participant,date,expName,psychopyVersion,OS,frameRate,browser,xResolution,yResolution,key_resp.keys,key_resp.rt,training_resp.keys,training_resp.rt,points_trial,points_cumul,trainBlock,training.thisRepN,training.thisTrialN,training.thisN,training.thisIndex,training.ran,LTriangleOpac,LCircleOpac,LHexagonOpac,LStarOpac,RTriangleOpac,RCircleOpac,RHexagonOpac,RStarOpac,LShape_ID,RShape_ID,curr_topStim,curr_bottStim,curr_shape,acc,E1,target_resp_prac1.keys,target_resp_prac1.rt,pracBlock,task1_prac_trials.thisRepN,task1_prac_trials.thisTrialN,task1_prac_trials.thisN,task1_prac_trials.thisIndex,task1_prac_trials.ran,target_resp_prac2.keys,target_resp_prac2.rt,task2_praac_trials.thisRepN,task2_praac_trials.thisTrialN,task2_praac_trials.thisN,task2_praac_trials.thisIndex,task2_praac_trials.ran,alt,task,condition,target_resp.keys,target_resp.rt,rewCond,vts_practice_trials.thisRepN,vts_practice_trials.thisTrialN,vts_practice_trials.thisN,vts_practice_trials.thisIndex,vts_practice_trials.ran,blockNum,trials_norew.thisRepN,trials_norew.thisTrialN,trials_norew.thisN,trials_norew.thisIndex,trials_norew.ran,key_resp_2.keys,key_resp_2.rt,rewExpectancy,trials_rew.thisRepN,trials_rew.thisTrialN,trials_rew.thisN,trials_rew.thisIndex,trials_rew.ran,Q1,Q2,Q2_text,Q3,Q4,Q5_text,Q5,xRes,yRes
298216,2022-12-06_14h39.40.471,vts_reward_expectancy_bt,2022.2.4,Win32,60.04563468,Chrome,1536,864,,,,,,,,,,,,,,,,,,,,,,,,,,,,,,,,,,,,,,,,,,,,,,,,,,,,,,,,,,,,,,,,,,,,,,,,,,,,
298216,2022-12-06_14h39.40.471,vts_reward_expectancy_bt,2022.2.4,Win32,60.04563468,Chrome,1536,864,space,1.0768,,,,,,,,,,,,,,,,,,,,,,,,,,,,,,,,,,,,,,,,,,,,,,,,,,,,,,,,,,,,,,,,,,,,,,,,,,
298216,2022-12-06_14h39.40.471,vts_reward_expectancy_bt,2022.2.4,Win32,60.04563468,Chrome,1536,864,,,,,,,,,,,,,,,,,,,,,,,,,,,,,,,,,,,,,,,,,,,,,,,,,,,,,,,,,,,,,,,,,,,,,,,,,,,,
298216,2022-12-06_14h39.40.471,vts_reward_expectancy_bt,2022.2.4,Win32,60.04563468,Chrome,1536,864,,,a,1.0229,1,1,0,0,0,0,6,1,0,0,1,0,1,0,0,0,hexagon,triangle,,,,,,,,,,,,,,,,,,,,,,,,,,,,,,,,,,,,,,,,,,,,,,,,,,,,,,
298216,2022-12-06_14h39.40.471,vts_reward_expectancy_bt,2022.2.4,Win32,60.04563468,Chrome,1536,864,,,l,0.1446,1,2,0,0,1,1,5,1,0,1,0,0,0,0,0,1,circle,star,,,,,,,,,,,,,,,,,,,,,,,,,,,,,,,,,,,,,,,,,,,,,,,,,,,,,,
298216,2022-12-06_14h39.40.471,vts_reward_expectancy_bt,2022.2.4,Win32,60.04563468,Chrome,1536,864,,,a,0.1793,1,3,0,0,2,2,7,1,0,0,1,0,0,1,0,0,hexagon,circle,,,,,,,,,,,,,,,,,,,,,,,,,,,,,,,,,,,,,,,,,,,,,,,,,,,,,,
298216,2022-12-06_14h39.40.471,vts_reward_expectancy_bt,2022.2.4,Win32,60.04563468,Chrome,1536,864,,,a,0.0368,10,13,0,0,3,3,4,1,0,1,0,0,0,0,1,0,circle,hexagon,,,,,,,,,,,,,,,,,,,,,,,,,,,,,,,,,,,,,,,,,,,,,,,,,,,,,,
298216,2022-12-06_14h39.40.471,vts_reward_expectancy_bt,2022.2.4,Win32,60.04563468,Chrome,1536,864,,,a,0.0168,1,14,0,0,4,4,8,1,0,0,1,0,0,0,0,1,hexagon,star,,,,,,,,,,,,,,,,,,,,,,,,,,,,,,,,,,,,,,,,,,,,,,,,,,,,,,
298216,2022-12-06_14h39.40.471,vts_reward_expectancy_bt,2022.2.4,Win32,60.04563468,Chrome,1536,864,,,a,0.0327,1,15,0,0,5,5,3,1,0,1,0,0,1,0,0,0,circle,triangle,,,,,,,,,,,,,,,,,,,,,,,,,,,,,,,,,,,,,,,,,,,,,,,,,,,,,,
298216,2022-12-06_14h39.40.471,vts_reward_expectancy_bt,2022.2.4,Win32,60.04563468,Chrome,1536,864,,,l,0.0007,10,25,0,0,6,6,9,1,0,0,0,1,1,0,0,0,star,triangle,,,,,,,,,,,,,,,,,,,,,,,,,,,,,,,,,,,,,,,,,,,,,,,,,,,,,,
298216,2022-12-06_14h39.40.471,vts_reward_expectancy_bt,2022.2.4,Win32,60.04563468,Chrome,1536,864,,,l,0.1257,1,26,0,0,7,7,0,1,1,0,0,0,0,1,0,0,triangle,circle,,,,,,,,,,,,,,,,,,,,,,,,,,,,,,,,,,,,,,,,,,,,,,,,,,,,,,
298216,2022-12-06_14h39.40.471,vts_reward_expectancy_bt,2022.2.4,Win32,60.04563468,Chrome,1536,864,,,l,0.1,1,27,0,0,8,8,1,1,1,0,0,0,0,0,1,0,triangle,hexagon,,,,,,,,,,,,,,,,,,,,,,,,,,,,,,,,,,,,,,,,,,,,,,,,,,,,,,
298216,2022-12-06_14h39.40.471,vts_reward_expectancy_bt,2022.2.4,Win32,60.04563468,Chrome,1536,864,,,l,0.0205,10,37,0,0,9,9,2,1,1,0,0,0,0,0,0,1,triangle,star,,,,,,,,,,,,,,,,,,,,,,,,,,,,,,,,,,,,,,,,,,,,,,,,,,,,,,
298216,2022-12-06_14h39.40.471,vts_reward_expectancy_bt,2022.2.4,Win32,60.04563468,Chrome,1536,864,,,l,0.2003,1,38,0,0,10,10,10,1,0,0,0,1,0,1,0,0,star ,circle,,,,,,,,,,,,,,,,,,,,,,,,,,,,,,,,,,,,,,,,,,,,,,,,,,,,,,
298216,2022-12-06_14h39.40.471,vts_reward_expectancy_bt,2022.2.4,Win32,60.04563468,Chrome,1536,864,,,a,0.1345,1,39,0,0,11,11,11,1,0,0,0,1,0,0,1,0,star,hexagon,,,,,,,,,,,,,,,,,,,,,,,,,,,,,,,,,,,,,,,,,,,,,,,,,,,,,,
298216,2022-12-06_14h39.40.471,vts_reward_expectancy_bt,2022.2.4,Win32,60.04563468,Chrome,1536,864,,,a,0.0641,1,40,0,1,0,12,7,1,0,0,1,0,0,1,0,0,hexagon,circle,,,,,,,,,,,,,,,,,,,,,,,,,,,,,,,,,,,,,,,,,,,,,,,,,,,,,,
298216,2022-12-06_14h39.40.471,vts_reward_expectancy_bt,2022.2.4,Win32,60.04563468,Chrome,1536,864,,,a,0.1189,10,50,0,1,1,13,9,1,0,0,0,1,1,0,0,0,star,triangle,,,,,,,,,,,,,,,,,,,,,,,,,,,,,,,,,,,,,,,,,,,,,,,,,,,,,,
298216,2022-12-06_14h39.40.471,vts_reward_expectancy_bt,2022.2.4,Win32,60.04563468,Chrome,1536,864,,,a,0.1008,10,60,0,1,2,14,8,1,0,0,1,0,0,0,0,1,hexagon,star,,,,,,,,,,,,,,,,,,,,,,,,,,,,,,,,,,,,,,,,,,,,,,,,,,,,,,
298216,2022-12-06_14h39.40.471,vts_reward_expectancy_bt,2022.2.4,Win32,60.04563468,Chrome,1536,864,,,a,0.1369,10,70,0,1,3,15,6,1,0,0,1,0,1,0,0,0,hexagon,triangle,,,,,,,,,,,,,,,,,,,,,,,,,,,,,,,,,,,,,,,,,,,,,,,,,,,,,,
298216,2022-12-06_14h39.40.471,vts_reward_expectancy_bt,2022.2.4,Win32,60.04563468,Chrome,1536,864,,,l,0.2111,10,80,0,1,4,16,5,1,0,1,0,0,0,0,0,1,circle,star,,,,,,,,,,,,,,,,,,,,,,,,,,,,,,,,,,,,,,,,,,,,,,,,,,,,,,
298216,2022-12-06_14h39.40.471,vts_reward_expectancy_bt,2022.2.4,Win32,60.04563468,Chrome,1536,864,,,l,0.1961,10,90,0,1,5,17,1,1,1,0,0,0,0,0,1,0,triangle,hexagon,,,,,,,,,,,,,,,,,,,,,,,,,,,,,,,,,,,,,,,,,,,,,,,,,,,,,,
298216,2022-12-06_14h39.40.471,vts_reward_expectancy_bt,2022.2.4,Win32,60.04563468,Chrome,1536,864,,,l,0.0985,10,100,0,1,6,18,0,1,1,0,0,0,0,1,0,0,triangle,circle,,,,,,,,,,,,,,,,,,,,,,,,,,,,,,,,,,,,,,,,,,,,,,,,,,,,,,
298216,2022-12-06_14h39.40.471,vts_reward_expectancy_bt,2022.2.4,Win32,60.04563468,Chrome,1536,864,,,l,0.1659,10,110,0,1,7,19,3,1,0,1,0,0,1,0,0,0,circle,triangle,,,,,,,,,,,,,,,,,,,,,,,,,,,,,,,,,,,,,,,,,,,,,,,,,,,,,,
298216,2022-12-06_14h39.40.471,vts_reward_expectancy_bt,2022.2.4,Win32,60.04563468,Chrome,1536,864,,,l,0.1019,10,120,0,1,8,20,11,1,0,0,0,1,0,0,1,0,star,hexagon,,,,,,,,,,,,,,,,,,,,,,,,,,,,,,,,,,,,,,,,,,,,,,,,,,,,,,
298216,2022-12-06_14h39.40.471,vts_reward_expectancy_bt,2022.2.4,Win32,60.04563468,Chrome,1536,864,,,a,0.0139,10,130,0,1,9,21,10,1,0,0,0,1,0,1,0,0,star ,circle,,,,,,,,,,,,,,,,,,,,,,,,,,,,,,,,,,,,,,,,,,,,,,,,,,,,,,
298216,2022-12-06_14h39.40.471,vts_reward_expectancy_bt,2022.2.4,Win32,60.04563468,Chrome,1536,864,,,a,0.1887,10,140,0,1,10,22,2,1,1,0,0,0,0,0,0,1,triangle,star,,,,,,,,,,,,,,,,,,,,,,,,,,,,,,,,,,,,,,,,,,,,,,,,,,,,,,
298216,2022-12-06_14h39.40.471,vts_reward_expectancy_bt,2022.2.4,Win32,60.04563468,Chrome,1536,864,,,l,0.2008,10,150,0,1,11,23,4,1,0,1,0,0,0,0,1,0,circle,hexagon,,,,,,,,,,,,,,,,,,,,,,,,,,,,,,,,,,,,,,,,,,,,,,,,,,,,,,
298216,2022-12-06_14h39.40.471,vts_reward_expectancy_bt,2022.2.4,Win32,60.04563468,Chrome,1536,864,,,l,0.1526,1,151,0,2,0,24,5,1,0,1,0,0,0,0,0,1,circle,star,,,,,,,,,,,,,,,,,,,,,,,,,,,,,,,,,,,,,,,,,,,,,,,,,,,,,,
298216,2022-12-06_14h39.40.471,vts_reward_expectancy_bt,2022.2.4,Win32,60.04563468,Chrome,1536,864,,,l,1.3413,10,161,0,2,1,25,10,1,0,0,0,1,0,1,0,0,star ,circle,,,,,,,,,,,,,,,,,,,,,,,,,,,,,,,,,,,,,,,,,,,,,,,,,,,,,,
298216,2022-12-06_14h39.40.471,vts_reward_expectancy_bt,2022.2.4,Win32,60.04563468,Chrome,1536,864,,,l,0.2048,1,162,0,2,2,26,7,1,0,0,1,0,0,1,0,0,hexagon,circle,,,,,,,,,,,,,,,,,,,,,,,,,,,,,,,,,,,,,,,,,,,,,,,,,,,,,,
298216,2022-12-06_14h39.40.471,vts_reward_expectancy_bt,2022.2.4,Win32,60.04563468,Chrome,1536,864,,,a,0.0616,1,163,0,2,3,27,4,1,0,1,0,0,0,0,1,0,circle,hexagon,,,,,,,,,,,,,,,,,,,,,,,,,,,,,,,,,,,,,,,,,,,,,,,,,,,,,,
298216,2022-12-06_14h39.40.471,vts_reward_expectancy_bt,2022.2.4,Win32,60.04563468,Chrome,1536,864,,,l,0.081,1,164,0,2,4,28,2,1,1,0,0,0,0,0,0,1,triangle,star,,,,,,,,,,,,,,,,,,,,,,,,,,,,,,,,,,,,,,,,,,,,,,,,,,,,,,
298216,2022-12-06_14h39.40.471,vts_reward_expectancy_bt,2022.2.4,Win32,60.04563468,Chrome,1536,864,,,l,0.3133,1,165,0,2,5,29,3,1,0,1,0,0,1,0,0,0,circle,triangle,,,,,,,,,,,,,,,,,,,,,,,,,,,,,,,,,,,,,,,,,,,,,,,,,,,,,,
298216,2022-12-06_14h39.40.471,vts_reward_expectancy_bt,2022.2.4,Win32,60.04563468,Chrome,1536,864,,,l,0.2241,1,166,0,2,6,30,6,1,0,0,1,0,1,0,0,0,hexagon,triangle,,,,,,,,,,,,,,,,,,,,,,,,,,,,,,,,,,,,,,,,,,,,,,,,,,,,,,
298216,2022-12-06_14h39.40.471,vts_reward_expectancy_bt,2022.2.4,Win32,60.04563468,Chrome,1536,864,,,a,0.5511,1,167,0,2,7,31,9,1,0,0,0,1,1,0,0,0,star,triangle,,,,,,,,,,,,,,,,,,,,,,,,,,,,,,,,,,,,,,,,,,,,,,,,,,,,,,
298216,2022-12-06_14h39.40.471,vts_reward_expectancy_bt,2022.2.4,Win32,60.04563468,Chrome,1536,864,,,a,0.0229,10,177,0,2,8,32,8,1,0,0,1,0,0,0,0,1,hexagon,star,,,,,,,,,,,,,,,,,,,,,,,,,,,,,,,,,,,,,,,,,,,,,,,,,,,,,,
298216,2022-12-06_14h39.40.471,vts_reward_expectancy_bt,2022.2.4,Win32,60.04563468,Chrome,1536,864,,,a,0.3818,1,178,0,2,9,33,11,1,0,0,0,1,0,0,1,0,star,hexagon,,,,,,,,,,,,,,,,,,,,,,,,,,,,,,,,,,,,,,,,,,,,,,,,,,,,,,
298216,2022-12-06_14h39.40.471,vts_reward_expectancy_bt,2022.2.4,Win32,60.04563468,Chrome,1536,864,,,a,0.2803,10,188,0,2,10,34,1,1,1,0,0,0,0,0,1,0,triangle,hexagon,,,,,,,,,,,,,,,,,,,,,,,,,,,,,,,,,,,,,,,,,,,,,,,,,,,,,,
298216,2022-12-06_14h39.40.471,vts_reward_expectancy_bt,2022.2.4,Win32,60.04563468,Chrome,1536,864,,,a,0.0218,10,198,0,2,11,35,0,1,1,0,0,0,0,1,0,0,triangle,circle,,,,,,,,,,,,,,,,,,,,,,,,,,,,,,,,,,,,,,,,,,,,,,,,,,,,,,
298216,2022-12-06_14h39.40.471,vts_reward_expectancy_bt,2022.2.4,Win32,60.04563468,Chrome,1536,864,,,a,0.9795,1,199,1,0,0,0,1,1,1,0,0,0,0,0,1,0,triangle,hexagon,,,,,,,,,,,,,,,,,,,,,,,,,,,,,,,,,,,,,,,,,,,,,,,,,,,,,,
298216,2022-12-06_14h39.40.471,vts_reward_expectancy_bt,2022.2.4,Win32,60.04563468,Chrome,1536,864,,,a,0.1161,10,209,1,0,1,1,11,1,0,0,0,1,0,0,1,0,star,hexagon,,,,,,,,,,,,,,,,,,,,,,,,,,,,,,,,,,,,,,,,,,,,,,,,,,,,,,
298216,2022-12-06_14h39.40.471,vts_reward_expectancy_bt,2022.2.4,Win32,60.04563468,Chrome,1536,864,,,l,0.09,1,210,1,0,2,2,8,1,0,0,1,0,0,0,0,1,hexagon,star,,,,,,,,,,,,,,,,,,,,,,,,,,,,,,,,,,,,,,,,,,,,,,,,,,,,,,
298216,2022-12-06_14h39.40.471,vts_reward_expectancy_bt,2022.2.4,Win32,60.04563468,Chrome,1536,864,,,l,0.1232,1,211,1,0,3,3,2,1,1,0,0,0,0,0,0,1,triangle,star,,,,,,,,,,,,,,,,,,,,,,,,,,,,,,,,,,,,,,,,,,,,,,,,,,,,,,
298216,2022-12-06_14h39.40.471,vts_reward_expectancy_bt,2022.2.4,Win32,60.04563468,Chrome,1536,864,,,l,0.4594,1,212,1,0,4,4,6,1,0,0,1,0,1,0,0,0,hexagon,triangle,,,,,,,,,,,,,,,,,,,,,,,,,,,,,,,,,,,,,,,,,,,,,,,,,,,,,,
298216,2022-12-06_14h39.40.471,vts_reward_expectancy_bt,2022.2.4,Win32,60.04563468,Chrome,1536,864,,,l,0.4207,1,213,1,0,5,5,3,1,0,1,0,0,1,0,0,0,circle,triangle,,,,,,,,,,,,,,,,,,,,,,,,,,,,,,,,,,,,,,,,,,,,,,,,,,,,,,
298216,2022-12-06_14h39.40.471,vts_reward_expectancy_bt,2022.2.4,Win32,60.04563468,Chrome,1536,864,,,l,0.0009,1,214,1,0,6,6,9,1,0,0,0,1,1,0,0,0,star,triangle,,,,,,,,,,,,,,,,,,,,,,,,,,,,,,,,,,,,,,,,,,,,,,,,,,,,,,
298216,2022-12-06_14h39.40.471,vts_reward_expectancy_bt,2022.2.4,Win32,60.04563468,Chrome,1536,864,,,a,0.4008,10,224,1,0,7,7,7,1,0,0,1,0,0,1,0,0,hexagon,circle,,,,,,,,,,,,,,,,,,,,,,,,,,,,,,,,,,,,,,,,,,,,,,,,,,,,,,
298216,2022-12-06_14h39.40.471,vts_reward_expectancy_bt,2022.2.4,Win32,60.04563468,Chrome,1536,864,,,a,0.6708,1,225,1,0,8,8,5,1,0,1,0,0,0,0,0,1,circle,star,,,,,,,,,,,,,,,,,,,,,,,,,,,,,,,,,,,,,,,,,,,,,,,,,,,,,,
298216,2022-12-06_14h39.40.471,vts_reward_expectancy_bt,2022.2.4,Win32,60.04563468,Chrome,1536,864,,,a,0.6146,1,226,1,0,9,9,10,1,0,0,0,1,0,1,0,0,star ,circle,,,,,,,,,,,,,,,,,,,,,,,,,,,,,,,,,,,,,,,,,,,,,,,,,,,,,,
298216,2022-12-06_14h39.40.471,vts_reward_expectancy_bt,2022.2.4,Win32,60.04563468,Chrome,1536,864,,,a,0.0006,1,227,1,0,10,10,4,1,0,1,0,0,0,0,1,0,circle,hexagon,,,,,,,,,,,,,,,,,,,,,,,,,,,,,,,,,,,,,,,,,,,,,,,,,,,,,,
298216,2022-12-06_14h39.40.471,vts_reward_expectancy_bt,2022.2.4,Win32,60.04563468,Chrome,1536,864,,,a,0.1491,10,237,1,0,11,11,0,1,1,0,0,0,0,1,0,0,triangle,circle,,,,,,,,,,,,,,,,,,,,,,,,,,,,,,,,,,,,,,,,,,,,,,,,,,,,,,
298216,2022-12-06_14h39.40.471,vts_reward_expectancy_bt,2022.2.4,Win32,60.04563468,Chrome,1536,864,,,a,0.0008,1,238,1,1,0,12,4,1,0,1,0,0,0,0,1,0,circle,hexagon,,,,,,,,,,,,,,,,,,,,,,,,,,,,,,,,,,,,,,,,,,,,,,,,,,,,,,
298216,2022-12-06_14h39.40.471,vts_reward_expectancy_bt,2022.2.4,Win32,60.04563468,Chrome,1536,864,,,a,0.0223,10,248,1,1,1,13,3,1,0,1,0,0,1,0,0,0,circle,triangle,,,,,,,,,,,,,,,,,,,,,,,,,,,,,,,,,,,,,,,,,,,,,,,,,,,,,,
298216,2022-12-06_14h39.40.471,vts_reward_expectancy_bt,2022.2.4,Win32,60.04563468,Chrome,1536,864,,,l,0.1348,1,249,1,1,2,14,10,1,0,0,0,1,0,1,0,0,star ,circle,,,,,,,,,,,,,,,,,,,,,,,,,,,,,,,,,,,,,,,,,,,,,,,,,,,,,,
298216,2022-12-06_14h39.40.471,vts_reward_expectancy_bt,2022.2.4,Win32,60.04563468,Chrome,1536,864,,,l,0.1501,10,259,1,1,3,15,5,1,0,1,0,0,0,0,0,1,circle,star,,,,,,,,,,,,,,,,,,,,,,,,,,,,,,,,,,,,,,,,,,,,,,,,,,,,,,
298216,2022-12-06_14h39.40.471,vts_reward_expectancy_bt,2022.2.4,Win32,60.04563468,Chrome,1536,864,,,l,0.0008,10,269,1,1,4,16,2,1,1,0,0,0,0,0,0,1,triangle,star,,,,,,,,,,,,,,,,,,,,,,,,,,,,,,,,,,,,,,,,,,,,,,,,,,,,,,
298216,2022-12-06_14h39.40.471,vts_reward_expectancy_bt,2022.2.4,Win32,60.04563468,Chrome,1536,864,,,l,0.0848,10,279,1,1,5,17,1,1,1,0,0,0,0,0,1,0,triangle,hexagon,,,,,,,,,,,,,,,,,,,,,,,,,,,,,,,,,,,,,,,,,,,,,,,,,,,,,,
298216,2022-12-06_14h39.40.471,vts_reward_expectancy_bt,2022.2.4,Win32,60.04563468,Chrome,1536,864,,,l,0.1844,10,289,1,1,6,18,0,1,1,0,0,0,0,1,0,0,triangle,circle,,,,,,,,,,,,,,,,,,,,,,,,,,,,,,,,,,,,,,,,,,,,,,,,,,,,,,
298216,2022-12-06_14h39.40.471,vts_reward_expectancy_bt,2022.2.4,Win32,60.04563468,Chrome,1536,864,,,l,0.1866,10,299,1,1,7,19,7,1,0,0,1,0,0,1,0,0,hexagon,circle,,,,,,,,,,,,,,,,,,,,,,,,,,,,,,,,,,,,,,,,,,,,,,,,,,,,,,
298216,2022-12-06_14h39.40.471,vts_reward_expectancy_bt,2022.2.4,Win32,60.04563468,Chrome,1536,864,,,l,0.1176,10,309,1,1,8,20,9,1,0,0,0,1,1,0,0,0,star,triangle,,,,,,,,,,,,,,,,,,,,,,,,,,,,,,,,,,,,,,,,,,,,,,,,,,,,,,
298216,2022-12-06_14h39.40.471,vts_reward_expectancy_bt,2022.2.4,Win32,60.04563468,Chrome,1536,864,,,a,0.1085,10,319,1,1,9,21,11,1,0,0,0,1,0,0,1,0,star,hexagon,,,,,,,,,,,,,,,,,,,,,,,,,,,,,,,,,,,,,,,,,,,,,,,,,,,,,,
298216,2022-12-06_14h39.40.471,vts_reward_expectancy_bt,2022.2.4,Win32,60.04563468,Chrome,1536,864,,,a,0.1698,10,329,1,1,10,22,8,1,0,0,1,0,0,0,0,1,hexagon,star,,,,,,,,,,,,,,,,,,,,,,,,,,,,,,,,,,,,,,,,,,,,,,,,,,,,,,
298216,2022-12-06_14h39.40.471,vts_reward_expectancy_bt,2022.2.4,Win32,60.04563468,Chrome,1536,864,,,l,0.0173,10,339,1,1,11,23,6,1,0,0,1,0,1,0,0,0,hexagon,triangle,,,,,,,,,,,,,,,,,,,,,,,,,,,,,,,,,,,,,,,,,,,,,,,,,,,,,,
298216,2022-12-06_14h39.40.471,vts_reward_expectancy_bt,2022.2.4,Win32,60.04563468,Chrome,1536,864,,,a,0.0205,10,349,1,2,0,24,1,1,1,0,0,0,0,0,1,0,triangle,hexagon,,,,,,,,,,,,,,,,,,,,,,,,,,,,,,,,,,,,,,,,,,,,,,,,,,,,,,
298216,2022-12-06_14h39.40.471,vts_reward_expectancy_bt,2022.2.4,Win32,60.04563468,Chrome,1536,864,,,l,0.0545,1,350,1,2,1,25,0,1,1,0,0,0,0,1,0,0,triangle,circle,,,,,,,,,,,,,,,,,,,,,,,,,,,,,,,,,,,,,,,,,,,,,,,,,,,,,,
298216,2022-12-06_14h39.40.471,vts_reward_expectancy_bt,2022.2.4,Win32,60.04563468,Chrome,1536,864,,,l,0.0512,1,351,1,2,2,26,9,1,0,0,0,1,1,0,0,0,star,triangle,,,,,,,,,,,,,,,,,,,,,,,,,,,,,,,,,,,,,,,,,,,,,,,,,,,,,,
298216,2022-12-06_14h39.40.471,vts_reward_expectancy_bt,2022.2.4,Win32,60.04563468,Chrome,1536,864,,,l,0.4423,10,361,1,2,3,27,6,1,0,0,1,0,1,0,0,0,hexagon,triangle,,,,,,,,,,,,,,,,,,,,,,,,,,,,,,,,,,,,,,,,,,,,,,,,,,,,,,
298216,2022-12-06_14h39.40.471,vts_reward_expectancy_bt,2022.2.4,Win32,60.04563468,Chrome,1536,864,,,a,0.2266,1,362,1,2,4,28,2,1,1,0,0,0,0,0,0,1,triangle,star,,,,,,,,,,,,,,,,,,,,,,,,,,,,,,,,,,,,,,,,,,,,,,,,,,,,,,
298216,2022-12-06_14h39.40.471,vts_reward_expectancy_bt,2022.2.4,Win32,60.04563468,Chrome,1536,864,,,a,0.0708,10,372,1,2,5,29,8,1,0,0,1,0,0,0,0,1,hexagon,star,,,,,,,,,,,,,,,,,,,,,,,,,,,,,,,,,,,,,,,,,,,,,,,,,,,,,,
298216,2022-12-06_14h39.40.471,vts_reward_expectancy_bt,2022.2.4,Win32,60.04563468,Chrome,1536,864,,,a,0.7635,10,382,1,2,6,30,3,1,0,1,0,0,1,0,0,0,circle,triangle,,,,,,,,,,,,,,,,,,,,,,,,,,,,,,,,,,,,,,,,,,,,,,,,,,,,,,
298216,2022-12-06_14h39.40.471,vts_reward_expectancy_bt,2022.2.4,Win32,60.04563468,Chrome,1536,864,,,l,0.6494,10,392,1,2,7,31,11,1,0,0,0,1,0,0,1,0,star,hexagon,,,,,,,,,,,,,,,,,,,,,,,,,,,,,,,,,,,,,,,,,,,,,,,,,,,,,,
298216,2022-12-06_14h39.40.471,vts_reward_expectancy_bt,2022.2.4,Win32,60.04563468,Chrome,1536,864,,,a,1.3383,10,402,1,2,8,32,4,1,0,1,0,0,0,0,1,0,circle,hexagon,,,,,,,,,,,,,,,,,,,,,,,,,,,,,,,,,,,,,,,,,,,,,,,,,,,,,,
298216,2022-12-06_14h39.40.471,vts_reward_expectancy_bt,2022.2.4,Win32,60.04563468,Chrome,1536,864,,,l,0.8851,10,412,1,2,9,33,7,1,0,0,1,0,0,1,0,0,hexagon,circle,,,,,,,,,,,,,,,,,,,,,,,,,,,,,,,,,,,,,,,,,,,,,,,,,,,,,,
298216,2022-12-06_14h39.40.471,vts_reward_expectancy_bt,2022.2.4,Win32,60.04563468,Chrome,1536,864,,,a,0.6047,10,422,1,2,10,34,5,1,0,1,0,0,0,0,0,1,circle,star,,,,,,,,,,,,,,,,,,,,,,,,,,,,,,,,,,,,,,,,,,,,,,,,,,,,,,
298216,2022-12-06_14h39.40.471,vts_reward_expectancy_bt,2022.2.4,Win32,60.04563468,Chrome,1536,864,,,l,0.471,10,432,1,2,11,35,10,1,0,0,0,1,0,1,0,0,star ,circle,,,,,,,,,,,,,,,,,,,,,,,,,,,,,,,,,,,,,,,,,,,,,,,,,,,,,,
298216,2022-12-06_14h39.40.471,vts_reward_expectancy_bt,2022.2.4,Win32,60.04563468,Chrome,1536,864,,,l,1.6899,1,433,2,0,0,0,1,1,1,0,0,0,0,0,1,0,triangle,hexagon,,,,,,,,,,,,,,,,,,,,,,,,,,,,,,,,,,,,,,,,,,,,,,,,,,,,,,
298216,2022-12-06_14h39.40.471,vts_reward_expectancy_bt,2022.2.4,Win32,60.04563468,Chrome,1536,864,,,l,0.5192,1,434,2,0,1,1,4,1,0,1,0,0,0,0,1,0,circle,hexagon,,,,,,,,,,,,,,,,,,,,,,,,,,,,,,,,,,,,,,,,,,,,,,,,,,,,,,
298216,2022-12-06_14h39.40.471,vts_reward_expectancy_bt,2022.2.4,Win32,60.04563468,Chrome,1536,864,,,a,0.4645,1,435,2,0,2,2,0,1,1,0,0,0,0,1,0,0,triangle,circle,,,,,,,,,,,,,,,,,,,,,,,,,,,,,,,,,,,,,,,,,,,,,,,,,,,,,,
298216,2022-12-06_14h39.40.471,vts_reward_expectancy_bt,2022.2.4,Win32,60.04563468,Chrome,1536,864,,,l,0.6594,1,436,2,0,3,3,2,1,1,0,0,0,0,0,0,1,triangle,star,,,,,,,,,,,,,,,,,,,,,,,,,,,,,,,,,,,,,,,,,,,,,,,,,,,,,,
298216,2022-12-06_14h39.40.471,vts_reward_expectancy_bt,2022.2.4,Win32,60.04563468,Chrome,1536,864,,,l,0.6735,1,437,2,0,4,4,9,1,0,0,0,1,1,0,0,0,star,triangle,,,,,,,,,,,,,,,,,,,,,,,,,,,,,,,,,,,,,,,,,,,,,,,,,,,,,,
298216,2022-12-06_14h39.40.471,vts_reward_expectancy_bt,2022.2.4,Win32,60.04563468,Chrome,1536,864,,,a,0.5384,10,447,2,0,5,5,5,1,0,1,0,0,0,0,0,1,circle,star,,,,,,,,,,,,,,,,,,,,,,,,,,,,,,,,,,,,,,,,,,,,,,,,,,,,,,
298216,2022-12-06_14h39.40.471,vts_reward_expectancy_bt,2022.2.4,Win32,60.04563468,Chrome,1536,864,,,l,0.6221,10,457,2,0,6,6,11,1,0,0,0,1,0,0,1,0,star,hexagon,,,,,,,,,,,,,,,,,,,,,,,,,,,,,,,,,,,,,,,,,,,,,,,,,,,,,,
298216,2022-12-06_14h39.40.471,vts_reward_expectancy_bt,2022.2.4,Win32,60.04563468,Chrome,1536,864,,,l,0.5707,10,467,2,0,7,7,6,1,0,0,1,0,1,0,0,0,hexagon,triangle,,,,,,,,,,,,,,,,,,,,,,,,,,,,,,,,,,,,,,,,,,,,,,,,,,,,,,
298216,2022-12-06_14h39.40.471,vts_reward_expectancy_bt,2022.2.4,Win32,60.04563468,Chrome,1536,864,,,a,0.6841,1,468,2,0,8,8,3,1,0,1,0,0,1,0,0,0,circle,triangle,,,,,,,,,,,,,,,,,,,,,,,,,,,,,,,,,,,,,,,,,,,,,,,,,,,,,,
298216,2022-12-06_14h39.40.471,vts_reward_expectancy_bt,2022.2.4,Win32,60.04563468,Chrome,1536,864,,,l,0.4579,1,469,2,0,9,9,7,1,0,0,1,0,0,1,0,0,hexagon,circle,,,,,,,,,,,,,,,,,,,,,,,,,,,,,,,,,,,,,,,,,,,,,,,,,,,,,,
298216,2022-12-06_14h39.40.471,vts_reward_expectancy_bt,2022.2.4,Win32,60.04563468,Chrome,1536,864,,,l,0.4351,10,479,2,0,10,10,10,1,0,0,0,1,0,1,0,0,star ,circle,,,,,,,,,,,,,,,,,,,,,,,,,,,,,,,,,,,,,,,,,,,,,,,,,,,,,,
298216,2022-12-06_14h39.40.471,vts_reward_expectancy_bt,2022.2.4,Win32,60.04563468,Chrome,1536,864,,,a,0.544,10,489,2,0,11,11,8,1,0,0,1,0,0,0,0,1,hexagon,star,,,,,,,,,,,,,,,,,,,,,,,,,,,,,,,,,,,,,,,,,,,,,,,,,,,,,,
298216,2022-12-06_14h39.40.471,vts_reward_expectancy_bt,2022.2.4,Win32,60.04563468,Chrome,1536,864,,,l,0.0516,10,499,2,1,0,12,1,1,1,0,0,0,0,0,1,0,triangle,hexagon,,,,,,,,,,,,,,,,,,,,,,,,,,,,,,,,,,,,,,,,,,,,,,,,,,,,,,
298216,2022-12-06_14h39.40.471,vts_reward_expectancy_bt,2022.2.4,Win32,60.04563468,Chrome,1536,864,,,l,0.4842,10,509,2,1,1,13,9,1,0,0,0,1,1,0,0,0,star,triangle,,,,,,,,,,,,,,,,,,,,,,,,,,,,,,,,,,,,,,,,,,,,,,,,,,,,,,
298216,2022-12-06_14h39.40.471,vts_reward_expectancy_bt,2022.2.4,Win32,60.04563468,Chrome,1536,864,,,l,0.7925,1,510,2,1,2,14,5,1,0,1,0,0,0,0,0,1,circle,star,,,,,,,,,,,,,,,,,,,,,,,,,,,,,,,,,,,,,,,,,,,,,,,,,,,,,,
298216,2022-12-06_14h39.40.471,vts_reward_expectancy_bt,2022.2.4,Win32,60.04563468,Chrome,1536,864,,,a,0.1172,1,511,2,1,3,15,0,1,1,0,0,0,0,1,0,0,triangle,circle,,,,,,,,,,,,,,,,,,,,,,,,,,,,,,,,,,,,,,,,,,,,,,,,,,,,,,
298216,2022-12-06_14h39.40.471,vts_reward_expectancy_bt,2022.2.4,Win32,60.04563468,Chrome,1536,864,,,a,0.0694,1,512,2,1,4,16,10,1,0,0,0,1,0,1,0,0,star ,circle,,,,,,,,,,,,,,,,,,,,,,,,,,,,,,,,,,,,,,,,,,,,,,,,,,,,,,
298216,2022-12-06_14h39.40.471,vts_reward_expectancy_bt,2022.2.4,Win32,60.04563468,Chrome,1536,864,,,l,0.0007,10,522,2,1,5,17,2,1,1,0,0,0,0,0,0,1,triangle,star,,,,,,,,,,,,,,,,,,,,,,,,,,,,,,,,,,,,,,,,,,,,,,,,,,,,,,
298216,2022-12-06_14h39.40.471,vts_reward_expectancy_bt,2022.2.4,Win32,60.04563468,Chrome,1536,864,,,l,0.1205,10,532,2,1,6,18,6,1,0,0,1,0,1,0,0,0,hexagon,triangle,,,,,,,,,,,,,,,,,,,,,,,,,,,,,,,,,,,,,,,,,,,,,,,,,,,,,,
298216,2022-12-06_14h39.40.471,vts_reward_expectancy_bt,2022.2.4,Win32,60.04563468,Chrome,1536,864,,,l,0.2543,1,533,2,1,7,19,11,1,0,0,0,1,0,0,1,0,star,hexagon,,,,,,,,,,,,,,,,,,,,,,,,,,,,,,,,,,,,,,,,,,,,,,,,,,,,,,
298216,2022-12-06_14h39.40.471,vts_reward_expectancy_bt,2022.2.4,Win32,60.04563468,Chrome,1536,864,,,a,0.0342,10,543,2,1,8,20,8,1,0,0,1,0,0,0,0,1,hexagon,star,,,,,,,,,,,,,,,,,,,,,,,,,,,,,,,,,,,,,,,,,,,,,,,,,,,,,,
298216,2022-12-06_14h39.40.471,vts_reward_expectancy_bt,2022.2.4,Win32,60.04563468,Chrome,1536,864,,,a,0.0057,1,544,2,1,9,21,4,1,0,1,0,0,0,0,1,0,circle,hexagon,,,,,,,,,,,,,,,,,,,,,,,,,,,,,,,,,,,,,,,,,,,,,,,,,,,,,,
298216,2022-12-06_14h39.40.471,vts_reward_expectancy_bt,2022.2.4,Win32,60.04563468,Chrome,1536,864,,,l,0.025,1,545,2,1,10,22,7,1,0,0,1,0,0,1,0,0,hexagon,circle,,,,,,,,,,,,,,,,,,,,,,,,,,,,,,,,,,,,,,,,,,,,,,,,,,,,,,
298216,2022-12-06_14h39.40.471,vts_reward_expectancy_bt,2022.2.4,Win32,60.04563468,Chrome,1536,864,,,l,0.0544,10,555,2,1,11,23,3,1,0,1,0,0,1,0,0,0,circle,triangle,,,,,,,,,,,,,,,,,,,,,,,,,,,,,,,,,,,,,,,,,,,,,,,,,,,,,,
298216,2022-12-06_14h39.40.471,vts_reward_expectancy_bt,2022.2.4,Win32,60.04563468,Chrome,1536,864,,,l,0.0173,10,565,2,2,0,24,2,1,1,0,0,0,0,0,0,1,triangle,star,,,,,,,,,,,,,,,,,,,,,,,,,,,,,,,,,,,,,,,,,,,,,,,,,,,,,,
298216,2022-12-06_14h39.40.471,vts_reward_expectancy_bt,2022.2.4,Win32,60.04563468,Chrome,1536,864,,,a,0.7176,10,575,2,2,1,25,4,1,0,1,0,0,0,0,1,0,circle,hexagon,,,,,,,,,,,,,,,,,,,,,,,,,,,,,,,,,,,,,,,,,,,,,,,,,,,,,,
298216,2022-12-06_14h39.40.471,vts_reward_expectancy_bt,2022.2.4,Win32,60.04563468,Chrome,1536,864,,,l,0.3676,1,576,2,2,2,26,6,1,0,0,1,0,1,0,0,0,hexagon,triangle,,,,,,,,,,,,,,,,,,,,,,,,,,,,,,,,,,,,,,,,,,,,,,,,,,,,,,
298216,2022-12-06_14h39.40.471,vts_reward_expectancy_bt,2022.2.4,Win32,60.04563468,Chrome,1536,864,,,l,0.5672,10,586,2,2,3,27,9,1,0,0,0,1,1,0,0,0,star,triangle,,,,,,,,,,,,,,,,,,,,,,,,,,,,,,,,,,,,,,,,,,,,,,,,,,,,,,
298216,2022-12-06_14h39.40.471,vts_reward_expectancy_bt,2022.2.4,Win32,60.04563468,Chrome,1536,864,,,a,0.3515,10,596,2,2,4,28,0,1,1,0,0,0,0,1,0,0,triangle,circle,,,,,,,,,,,,,,,,,,,,,,,,,,,,,,,,,,,,,,,,,,,,,,,,,,,,,,
298216,2022-12-06_14h39.40.471,vts_reward_expectancy_bt,2022.2.4,Win32,60.04563468,Chrome,1536,864,,,a,0.7335,1,597,2,2,5,29,5,1,0,1,0,0,0,0,0,1,circle,star,,,,,,,,,,,,,,,,,,,,,,,,,,,,,,,,,,,,,,,,,,,,,,,,,,,,,,
298216,2022-12-06_14h39.40.471,vts_reward_expectancy_bt,2022.2.4,Win32,60.04563468,Chrome,1536,864,,,l,0.8015,10,607,2,2,6,30,1,1,1,0,0,0,0,0,1,0,triangle,hexagon,,,,,,,,,,,,,,,,,,,,,,,,,,,,,,,,,,,,,,,,,,,,,,,,,,,,,,
298216,2022-12-06_14h39.40.471,vts_reward_expectancy_bt,2022.2.4,Win32,60.04563468,Chrome,1536,864,,,l,0.3747,1,608,2,2,7,31,11,1,0,0,0,1,0,0,1,0,star,hexagon,,,,,,,,,,,,,,,,,,,,,,,,,,,,,,,,,,,,,,,,,,,,,,,,,,,,,,
298216,2022-12-06_14h39.40.471,vts_reward_expectancy_bt,2022.2.4,Win32,60.04563468,Chrome,1536,864,,,a,0.1499,10,618,2,2,8,32,7,1,0,0,1,0,0,1,0,0,hexagon,circle,,,,,,,,,,,,,,,,,,,,,,,,,,,,,,,,,,,,,,,,,,,,,,,,,,,,,,
298216,2022-12-06_14h39.40.471,vts_reward_expectancy_bt,2022.2.4,Win32,60.04563468,Chrome,1536,864,,,l,0.0845,1,619,2,2,9,33,10,1,0,0,0,1,0,1,0,0,star ,circle,,,,,,,,,,,,,,,,,,,,,,,,,,,,,,,,,,,,,,,,,,,,,,,,,,,,,,
298216,2022-12-06_14h39.40.471,vts_reward_expectancy_bt,2022.2.4,Win32,60.04563468,Chrome,1536,864,,,a,0.3349,1,620,2,2,10,34,8,1,0,0,1,0,0,0,0,1,hexagon,star,,,,,,,,,,,,,,,,,,,,,,,,,,,,,,,,,,,,,,,,,,,,,,,,,,,,,,
298216,2022-12-06_14h39.40.471,vts_reward_expectancy_bt,2022.2.4,Win32,60.04563468,Chrome,1536,864,,,l,0.5508,10,630,2,2,11,35,3,1,0,1,0,0,1,0,0,0,circle,triangle,,,,,,,,,,,,,,,,,,,,,,,,,,,,,,,,,,,,,,,,,,,,,,,,,,,,,,
298216,2022-12-06_14h39.40.471,vts_reward_expectancy_bt,2022.2.4,Win32,60.04563468,Chrome,1536,864,,,,,,,,,,,,,,,,,,,,,,,B,139,star,1,0,d,1.4147,0,0,0,0,0,1,,,,,,,,,,,,,,,,,,,,,,,,,,,,,,,,,,,,,,,,,
298216,2022-12-06_14h39.40.471,vts_reward_expectancy_bt,2022.2.4,Win32,60.04563468,Chrome,1536,864,,,,,,,,,,,,,,,,,,,,,,,F,174,triangle,0,0,f,0.7926,0,1,0,1,0,1,,,,,,,,,,,,,,,,,,,,,,,,,,,,,,,,,,,,,,,,,
298216,2022-12-06_14h39.40.471,vts_reward_expectancy_bt,2022.2.4,Win32,60.04563468,Chrome,1536,864,,,,,,,,,,,,,,,,,,,,,,,S,160,hexagon,0,1,d,0.8614,0,2,0,2,0,1,,,,,,,,,,,,,,,,,,,,,,,,,,,,,,,,,,,,,,,,,
298216,2022-12-06_14h39.40.471,vts_reward_expectancy_bt,2022.2.4,Win32,60.04563468,Chrome,1536,864,,,,,,,,,,,,,,,,,,,,,,,U,167,circle,0,1,d,0.6525,0,3,0,3,0,1,,,,,,,,,,,,,,,,,,,,,,,,,,,,,,,,,,,,,,,,,
298216,2022-12-06_14h39.40.471,vts_reward_expectancy_bt,2022.2.4,Win32,60.04563468,Chrome,1536,864,,,,,,,,,,,,,,,,,,,,,,,H,132,star,0,1,f,0.794,0,4,0,4,0,1,,,,,,,,,,,,,,,,,,,,,,,,,,,,,,,,,,,,,,,,,
298216,2022-12-06_14h39.40.471,vts_reward_expectancy_bt,2022.2.4,Win32,60.04563468,Chrome,1536,864,,,,,,,,,,,,,,,,,,,,,,,Y,146,triangle,1,1,f,0.4101,0,5,0,5,0,1,,,,,,,,,,,,,,,,,,,,,,,,,,,,,,,,,,,,,,,,,
298216,2022-12-06_14h39.40.471,vts_reward_expectancy_bt,2022.2.4,Win32,60.04563468,Chrome,1536,864,,,,,,,,,,,,,,,,,,,,,,,W,125,hexagon,0,0,d,0.4805,0,6,0,6,0,1,,,,,,,,,,,,,,,,,,,,,,,,,,,,,,,,,,,,,,,,,
298216,2022-12-06_14h39.40.471,vts_reward_expectancy_bt,2022.2.4,Win32,60.04563468,Chrome,1536,864,,,,,,,,,,,,,,,,,,,,,,,D,181,circle,0,1,f,0.2652,0,7,0,7,0,1,,,,,,,,,,,,,,,,,,,,,,,,,,,,,,,,,,,,,,,,,
298216,2022-12-06_14h39.40.471,vts_reward_expectancy_bt,2022.2.4,Win32,60.04563468,Chrome,1536,864,,,,,,,,,,,,,,,,,,,,,,,B,139,hexagon,0,1,f,0.494,0,8,0,8,0,1,,,,,,,,,,,,,,,,,,,,,,,,,,,,,,,,,,,,,,,,,
298216,2022-12-06_14h39.40.471,vts_reward_expectancy_bt,2022.2.4,Win32,60.04563468,Chrome,1536,864,,,,,,,,,,,,,,,,,,,,,,,F,174,circle,1,1,d,0.3192,0,9,0,9,0,1,,,,,,,,,,,,,,,,,,,,,,,,,,,,,,,,,,,,,,,,,
298216,2022-12-06_14h39.40.471,vts_reward_expectancy_bt,2022.2.4,Win32,60.04563468,Chrome,1536,864,,,,,,,,,,,,,,,,,,,,,,,F,174,triangle,1,0,d,0.3513,1,0,0,0,0,1,,,,,,,,,,,,,,,,,,,,,,,,,,,,,,,,,,,,,,,,,
298216,2022-12-06_14h39.40.471,vts_reward_expectancy_bt,2022.2.4,Win32,60.04563468,Chrome,1536,864,,,,,,,,,,,,,,,,,,,,,,,W,160,hexagon,1,0,f,0.7702,1,1,0,1,0,1,,,,,,,,,,,,,,,,,,,,,,,,,,,,,,,,,,,,,,,,,
298216,2022-12-06_14h39.40.471,vts_reward_expectancy_bt,2022.2.4,Win32,60.04563468,Chrome,1536,864,,,,,,,,,,,,,,,,,,,,,,,U,125,circle,0,0,d,0.3761,1,2,0,2,0,1,,,,,,,,,,,,,,,,,,,,,,,,,,,,,,,,,,,,,,,,,
298216,2022-12-06_14h39.40.471,vts_reward_expectancy_bt,2022.2.4,Win32,60.04563468,Chrome,1536,864,,,,,,,,,,,,,,,,,,,,,,,H,132,star,1,1,d,0.4342,1,3,0,3,0,1,,,,,,,,,,,,,,,,,,,,,,,,,,,,,,,,,,,,,,,,,
298216,2022-12-06_14h39.40.471,vts_reward_expectancy_bt,2022.2.4,Win32,60.04563468,Chrome,1536,864,,,,,,,,,,,,,,,,,,,,,,,B,139,triangle,0,0,f,0.9516,1,4,0,4,0,1,,,,,,,,,,,,,,,,,,,,,,,,,,,,,,,,,,,,,,,,,
298216,2022-12-06_14h39.40.471,vts_reward_expectancy_bt,2022.2.4,Win32,60.04563468,Chrome,1536,864,,,,,,,,,,,,,,,,,,,,,,,S,167,hexagon,0,1,d,0.3177,1,5,0,5,0,1,,,,,,,,,,,,,,,,,,,,,,,,,,,,,,,,,,,,,,,,,
298216,2022-12-06_14h39.40.471,vts_reward_expectancy_bt,2022.2.4,Win32,60.04563468,Chrome,1536,864,,,,,,,,,,,,,,,,,,,,,,,Y,181,circle,0,1,d,0.2831,1,6,0,6,0,1,,,,,,,,,,,,,,,,,,,,,,,,,,,,,,,,,,,,,,,,,
298216,2022-12-06_14h39.40.471,vts_reward_expectancy_bt,2022.2.4,Win32,60.04563468,Chrome,1536,864,,,,,,,,,,,,,,,,,,,,,,,D,146,star,1,1,d,0.2698,1,7,0,7,0,1,,,,,,,,,,,,,,,,,,,,,,,,,,,,,,,,,,,,,,,,,
298216,2022-12-06_14h39.40.471,vts_reward_expectancy_bt,2022.2.4,Win32,60.04563468,Chrome,1536,864,,,,,,,,,,,,,,,,,,,,,,,F,174,star,1,0,d,0.4331,1,8,0,8,0,1,,,,,,,,,,,,,,,,,,,,,,,,,,,,,,,,,,,,,,,,,
298216,2022-12-06_14h39.40.471,vts_reward_expectancy_bt,2022.2.4,Win32,60.04563468,Chrome,1536,864,,,,,,,,,,,,,,,,,,,,,,,W,160,triangle,0,0,d,0.4226,1,9,0,9,0,1,,,,,,,,,,,,,,,,,,,,,,,,,,,,,,,,,,,,,,,,,
298216,2022-12-06_14h39.40.471,vts_reward_expectancy_bt,2022.2.4,Win32,60.04563468,Chrome,1536,864,,,,,,,,,,,,,,,,,,,,,,,S,146,circle,0,1,d,0.3378,2,0,0,0,0,1,,,,,,,,,,,,,,,,,,,,,,,,,,,,,,,,,,,,,,,,,
298216,2022-12-06_14h39.40.471,vts_reward_expectancy_bt,2022.2.4,Win32,60.04563468,Chrome,1536,864,,,,,,,,,,,,,,,,,,,,,,,W,167,star,0,1,d,0.3589,2,1,0,1,0,1,,,,,,,,,,,,,,,,,,,,,,,,,,,,,,,,,,,,,,,,,
298216,2022-12-06_14h39.40.471,vts_reward_expectancy_bt,2022.2.4,Win32,60.04563468,Chrome,1536,864,,,,,,,,,,,,,,,,,,,,,,,Y,181,triangle,1,1,f,0.3918,2,2,0,2,0,1,,,,,,,,,,,,,,,,,,,,,,,,,,,,,,,,,,,,,,,,,
298216,2022-12-06_14h39.40.471,vts_reward_expectancy_bt,2022.2.4,Win32,60.04563468,Chrome,1536,864,,,,,,,,,,,,,,,,,,,,,,,F,139,hexagon,0,0,f,2.1679,2,3,0,3,0,1,,,,,,,,,,,,,,,,,,,,,,,,,,,,,,,,,,,,,,,,,
298216,2022-12-06_14h39.40.471,vts_reward_expectancy_bt,2022.2.4,Win32,60.04563468,Chrome,1536,864,,,,,,,,,,,,,,,,,,,,,,,B,125,circle,1,1,d,0.951,2,4,0,4,0,1,,,,,,,,,,,,,,,,,,,,,,,,,,,,,,,,,,,,,,,,,
298216,2022-12-06_14h39.40.471,vts_reward_expectancy_bt,2022.2.4,Win32,60.04563468,Chrome,1536,864,,,,,,,,,,,,,,,,,,,,,,,D,174,star,1,0,d,0.8058,2,5,0,5,0,1,,,,,,,,,,,,,,,,,,,,,,,,,,,,,,,,,,,,,,,,,
298216,2022-12-06_14h39.40.471,vts_reward_expectancy_bt,2022.2.4,Win32,60.04563468,Chrome,1536,864,,,,,,,,,,,,,,,,,,,,,,,H,160,triangle,1,0,d,0.8545,2,6,0,6,0,1,,,,,,,,,,,,,,,,,,,,,,,,,,,,,,,,,,,,,,,,,
298216,2022-12-06_14h39.40.471,vts_reward_expectancy_bt,2022.2.4,Win32,60.04563468,Chrome,1536,864,,,,,,,,,,,,,,,,,,,,,,,U,132,hexagon,1,0,f,0.6009,2,7,0,7,0,1,,,,,,,,,,,,,,,,,,,,,,,,,,,,,,,,,,,,,,,,,
298216,2022-12-06_14h39.40.471,vts_reward_expectancy_bt,2022.2.4,Win32,60.04563468,Chrome,1536,864,,,,,,,,,,,,,,,,,,,,,,,S,146,star,0,0,d,0.6237,2,8,0,8,0,1,,,,,,,,,,,,,,,,,,,,,,,,,,,,,,,,,,,,,,,,,
298216,2022-12-06_14h39.40.471,vts_reward_expectancy_bt,2022.2.4,Win32,60.04563468,Chrome,1536,864,,,,,,,,,,,,,,,,,,,,,,,W,167,circle,0,1,d,1.1178,2,9,0,9,0,1,,,,,,,,,,,,,,,,,,,,,,,,,,,,,,,,,,,,,,,,,
298216,2022-12-06_14h39.40.471,vts_reward_expectancy_bt,2022.2.4,Win32,60.04563468,Chrome,1536,864,,,,,,,,,,,,,,,,,,,,,,,Y,125,circle,2,1,,,3,,,,,,d,0.8817,0,0,0,0,1,,,,,,,,,,,,,,,,,,,,,,,,,,,,,,,,,,
298216,2022-12-06_14h39.40.471,vts_reward_expectancy_bt,2022.2.4,Win32,60.04563468,Chrome,1536,864,,,,,,,,,,,,,,,,,,,,,,,D,174,hexagon,2,0,,,3,,,,,,f,0.4052,1,0,1,0,1,,,,,,,,,,,,,,,,,,,,,,,,,,,,,,,,,,
298216,2022-12-06_14h39.40.471,vts_reward_expectancy_bt,2022.2.4,Win32,60.04563468,Chrome,1536,864,,,,,,,,,,,,,,,,,,,,,,,S,139,triangle,1,0,,,3,,,,,,j,0.2544,2,0,2,0,1,,,,,,,,,,,,,,,,,,,,,,,,,,,,,,,,,,
298216,2022-12-06_14h39.40.471,vts_reward_expectancy_bt,2022.2.4,Win32,60.04563468,Chrome,1536,864,,,,,,,,,,,,,,,,,,,,,,,W,167,star,1,0,,,3,,,,,,k,0.544,3,0,3,0,1,,,,,,,,,,,,,,,,,,,,,,,,,,,,,,,,,,
298216,2022-12-06_14h39.40.471,vts_reward_expectancy_bt,2022.2.4,Win32,60.04563468,Chrome,1536,864,,,,,,,,,,,,,,,,,,,,,,,H,132,circle,0,0,,,3,,,,,,k,0.2004,4,0,4,0,1,,,,,,,,,,,,,,,,,,,,,,,,,,,,,,,,,,
298216,2022-12-06_14h39.40.471,vts_reward_expectancy_bt,2022.2.4,Win32,60.04563468,Chrome,1536,864,,,,,,,,,,,,,,,,,,,,,,,U,181,hexagon,1,1,,,3,,,,,,k,0.1277,5,0,5,0,1,,,,,,,,,,,,,,,,,,,,,,,,,,,,,,,,,,
298216,2022-12-06_14h39.40.471,vts_reward_expectancy_bt,2022.2.4,Win32,60.04563468,Chrome,1536,864,,,,,,,,,,,,,,,,,,,,,,,B,160,triangle,0,0,,,3,,,,,,j,0.5772,6,0,6,0,1,,,,,,,,,,,,,,,,,,,,,,,,,,,,,,,,,,
298216,2022-12-06_14h39.40.471,vts_reward_expectancy_bt,2022.2.4,Win32,60.04563468,Chrome,1536,864,,,,,,,,,,,,,,,,,,,,,,,F,146,star,0,1,,,3,,,,,,k,0.3945,7,0,7,0,1,,,,,,,,,,,,,,,,,,,,,,,,,,,,,,,,,,
298216,2022-12-06_14h39.40.471,vts_reward_expectancy_bt,2022.2.4,Win32,60.04563468,Chrome,1536,864,,,,,,,,,,,,,,,,,,,,,,,Y,125,star,1,1,,,3,,,,,,j,0.7513,8,0,8,0,1,,,,,,,,,,,,,,,,,,,,,,,,,,,,,,,,,,
298216,2022-12-06_14h39.40.471,vts_reward_expectancy_bt,2022.2.4,Win32,60.04563468,Chrome,1536,864,,,,,,,,,,,,,,,,,,,,,,,D,174,hexagon,0,0,,,3,,,,,,j,1.1778,9,0,9,0,1,,,,,,,,,,,,,,,,,,,,,,,,,,,,,,,,,,
298216,2022-12-06_14h39.40.471,vts_reward_expectancy_bt,2022.2.4,Win32,60.04563468,Chrome,1536,864,,,,,,,,,,,,,,,,,,,,,,,F,139,star,0,1,,,4,,,,,,,,0,0,0,0,1,,,,,,,,,,,,,,,,,,,,,,,,,,,,,,,,,,
298216,2022-12-06_14h39.40.471,vts_reward_expectancy_bt,2022.2.4,Win32,60.04563468,Chrome,1536,864,,,,,,,,,,,,,,,,,,,,,,,U,125,hexagon,0,1,,,4,,,,,,,,1,0,1,0,1,,,,,,,,,,,,,,,,,,,,,,,,,,,,,,,,,,
298216,2022-12-06_14h39.40.471,vts_reward_expectancy_bt,2022.2.4,Win32,60.04563468,Chrome,1536,864,,,,,,,,,,,,,,,,,,,,,,,S,181,triangle,1,1,,,4,,,,,,k,0.9797,2,0,2,0,1,,,,,,,,,,,,,,,,,,,,,,,,,,,,,,,,,,
298216,2022-12-06_14h39.40.471,vts_reward_expectancy_bt,2022.2.4,Win32,60.04563468,Chrome,1536,864,,,,,,,,,,,,,,,,,,,,,,,H,174,circle,1,0,,,4,,,,,,k,1.1688,3,0,3,0,1,,,,,,,,,,,,,,,,,,,,,,,,,,,,,,,,,,
298216,2022-12-06_14h39.40.471,vts_reward_expectancy_bt,2022.2.4,Win32,60.04563468,Chrome,1536,864,,,,,,,,,,,,,,,,,,,,,,,B,132,star,1,0,,,4,,,,,,j,0.501,4,0,4,0,1,,,,,,,,,,,,,,,,,,,,,,,,,,,,,,,,,,
298216,2022-12-06_14h39.40.471,vts_reward_expectancy_bt,2022.2.4,Win32,60.04563468,Chrome,1536,864,,,,,,,,,,,,,,,,,,,,,,,Y,167,hexagon,1,0,,,4,,,,,,k,1.9323,5,0,5,0,1,,,,,,,,,,,,,,,,,,,,,,,,,,,,,,,,,,
298216,2022-12-06_14h39.40.471,vts_reward_expectancy_bt,2022.2.4,Win32,60.04563468,Chrome,1536,864,,,,,,,,,,,,,,,,,,,,,,,D,160,triangle,0,0,,,4,,,,,,j,0.5858,6,0,6,0,1,,,,,,,,,,,,,,,,,,,,,,,,,,,,,,,,,,
298216,2022-12-06_14h39.40.471,vts_reward_expectancy_bt,2022.2.4,Win32,60.04563468,Chrome,1536,864,,,,,,,,,,,,,,,,,,,,,,,W,146,circle,1,1,,,4,,,,,,j,0.6148,7,0,7,0,1,,,,,,,,,,,,,,,,,,,,,,,,,,,,,,,,,,
298216,2022-12-06_14h39.40.471,vts_reward_expectancy_bt,2022.2.4,Win32,60.04563468,Chrome,1536,864,,,,,,,,,,,,,,,,,,,,,,,F,139,hexagon,1,0,,,4,,,,,,j,0.9162,8,0,8,0,1,,,,,,,,,,,,,,,,,,,,,,,,,,,,,,,,,,
298216,2022-12-06_14h39.40.471,vts_reward_expectancy_bt,2022.2.4,Win32,60.04563468,Chrome,1536,864,,,,,,,,,,,,,,,,,,,,,,,U,125,circle,0,0,,,4,,,,,,k,0.432,9,0,9,0,1,,,,,,,,,,,,,,,,,,,,,,,,,,,,,,,,,,
298216,2022-12-06_14h39.40.471,vts_reward_expectancy_bt,2022.2.4,Win32,60.04563468,Chrome,1536,864,,,,,,,,,,,,,,,,,,,,,,,H,125,star,1,1,,,5,,,,,,j,0.5227,0,0,0,0,1,,,,,,,,,,,,,,,,,,,,,,,,,,,,,,,,,,
298216,2022-12-06_14h39.40.471,vts_reward_expectancy_bt,2022.2.4,Win32,60.04563468,Chrome,1536,864,,,,,,,,,,,,,,,,,,,,,,,S,139,hexagon,1,0,,,5,,,,,,j,0.617,1,0,1,0,1,,,,,,,,,,,,,,,,,,,,,,,,,,,,,,,,,,
298216,2022-12-06_14h39.40.471,vts_reward_expectancy_bt,2022.2.4,Win32,60.04563468,Chrome,1536,864,,,,,,,,,,,,,,,,,,,,,,,U,174,circle,1,0,,,5,,,,,,k,0.6673,2,0,2,0,1,,,,,,,,,,,,,,,,,,,,,,,,,,,,,,,,,,
298216,2022-12-06_14h39.40.471,vts_reward_expectancy_bt,2022.2.4,Win32,60.04563468,Chrome,1536,864,,,,,,,,,,,,,,,,,,,,,,,D,132,triangle,1,0,,,5,,,,,,j,0.6732,3,0,3,0,1,,,,,,,,,,,,,,,,,,,,,,,,,,,,,,,,,,
298216,2022-12-06_14h39.40.471,vts_reward_expectancy_bt,2022.2.4,Win32,60.04563468,Chrome,1536,864,,,,,,,,,,,,,,,,,,,,,,,Y,160,star,1,0,,,5,,,,,,k,0.8094,4,0,4,0,1,,,,,,,,,,,,,,,,,,,,,,,,,,,,,,,,,,
298216,2022-12-06_14h39.40.471,vts_reward_expectancy_bt,2022.2.4,Win32,60.04563468,Chrome,1536,864,,,,,,,,,,,,,,,,,,,,,,,W,167,hexagon,1,0,,,5,,,,,,k,0.672,5,0,5,0,1,,,,,,,,,,,,,,,,,,,,,,,,,,,,,,,,,,
298216,2022-12-06_14h39.40.471,vts_reward_expectancy_bt,2022.2.4,Win32,60.04563468,Chrome,1536,864,,,,,,,,,,,,,,,,,,,,,,,B,146,circle,1,0,,,5,,,,,,j,0.7414,6,0,6,0,1,,,,,,,,,,,,,,,,,,,,,,,,,,,,,,,,,,
298216,2022-12-06_14h39.40.471,vts_reward_expectancy_bt,2022.2.4,Win32,60.04563468,Chrome,1536,864,,,,,,,,,,,,,,,,,,,,,,,F,181,triangle,1,0,,,5,,,,,,k,0.6394,7,0,7,0,1,,,,,,,,,,,,,,,,,,,,,,,,,,,,,,,,,,
298216,2022-12-06_14h39.40.471,vts_reward_expectancy_bt,2022.2.4,Win32,60.04563468,Chrome,1536,864,,,,,,,,,,,,,,,,,,,,,,,H,125,star,1,0,,,5,,,,,,j,0.6579,8,0,8,0,1,,,,,,,,,,,,,,,,,,,,,,,,,,,,,,,,,,
298216,2022-12-06_14h39.40.471,vts_reward_expectancy_bt,2022.2.4,Win32,60.04563468,Chrome,1536,864,,,,,,,,,,,,,,,,,,,,,,,S,139,hexagon,1,0,,,5,,,,,,j,0.6341,9,0,9,0,1,,,,,,,,,,,,,,,,,,,,,,,,,,,,,,,,,,
298216,2022-12-06_14h39.40.471,vts_reward_expectancy_bt,2022.2.4,Win32,60.04563468,Chrome,1536,864,,,,,0,630,,,,,,,,,,,,,,,,,S,160,circle,0,0,,,6,,,,,,,,,,,,,-1,number,NA,j,1.2762,vtsPrac,0,0,0,0,1,,,,,,,,,,,,,,,,,,,,,,,
298216,2022-12-06_14h39.40.471,vts_reward_expectancy_bt,2022.2.4,Win32,60.04563468,Chrome,1536,864,,,,,0,630,,,,,,,,,,,,,,,,,W,174,triangle,0,1,,,6,,,,,,,,,,,,,switch,letter,NA,d,0.5686,vtsPrac,1,0,1,0,1,,,,,,,,,,,,,,,,,,,,,,,
298216,2022-12-06_14h39.40.471,vts_reward_expectancy_bt,2022.2.4,Win32,60.04563468,Chrome,1536,864,,,,,0,630,,,,,,,,,,,,,,,,,Y,167,circle,-1,1,,,6,,,,,,,,,,,,,switch,no_choice,NA,,,vtsPrac,2,0,2,0,1,,,,,,,,,,,,,,,,,,,,,,,
298216,2022-12-06_14h39.40.471,vts_reward_expectancy_bt,2022.2.4,Win32,60.04563468,Chrome,1536,864,,,,,0,630,,,,,,,,,,,,,,,,,B,125,triangle,0,0,,,6,,,,,,,,,,,,,switch,number,NA,k,0.4981,vtsPrac,3,0,3,0,1,,,,,,,,,,,,,,,,,,,,,,,
298216,2022-12-06_14h39.40.471,vts_reward_expectancy_bt,2022.2.4,Win32,60.04563468,Chrome,1536,864,,,,,0,630,,,,,,,,,,,,,,,,,S,160,circle,0,1,,,6,,,,,,,,,,,,,repeat,number,NA,j,0.6555,vtsPrac,4,0,4,0,1,,,,,,,,,,,,,,,,,,,,,,,
298216,2022-12-06_14h39.40.471,vts_reward_expectancy_bt,2022.2.4,Win32,60.04563468,Chrome,1536,864,,,,,0,630,,,,,,,,,,,,,,,,,W,174,triangle,1,1,,,6,,,,,,,,,,,,,repeat,number,numRpt,k,0.704,vtsPrac,5,0,5,0,1,,,,,,,,,,,,,,,,,,,,,,,
298216,2022-12-06_14h39.40.471,vts_reward_expectancy_bt,2022.2.4,Win32,60.04563468,Chrome,1536,864,,,,,0,630,,,,,,,,,,,,,,,,,Y,167,triangle,1,0,,,6,,,,,,,,,,,,,repeat,number,numRpt,k,0.8156,vtsPrac,6,0,6,0,1,,,,,,,,,,,,,,,,,,,,,,,
298216,2022-12-06_14h39.40.471,vts_reward_expectancy_bt,2022.2.4,Win32,60.04563468,Chrome,1536,864,,,,,0,630,,,,,,,,,,,,,,,,,B,125,circle,1,0,,,6,,,,,,,,,,,,,repeat,number,numRpt,j,0.7781,vtsPrac,7,0,7,0,1,,,,,,,,,,,,,,,,,,,,,,,
298216,2022-12-06_14h39.40.471,vts_reward_expectancy_bt,2022.2.4,Win32,60.04563468,Chrome,1536,864,,,,,0,630,,,,,,,,,,,,,,,,,D,167,circle,1,0,,,6,,,,,,,,,,,,,repeat,number,numRpt,k,0.6706,vtsPrac,8,0,8,0,1,,,,,,,,,,,,,,,,,,,,,,,
298216,2022-12-06_14h39.40.471,vts_reward_expectancy_bt,2022.2.4,Win32,60.04563468,Chrome,1536,864,,,,,0,630,,,,,,,,,,,,,,,,,H,146,triangle,1,0,,,6,,,,,,,,,,,,,repeat,number,numRpt,j,0.6202,vtsPrac,9,0,9,0,1,,,,,,,,,,,,,,,,,,,,,,,
298216,2022-12-06_14h39.40.471,vts_reward_expectancy_bt,2022.2.4,Win32,60.04563468,Chrome,1536,864,,,,,0,630,,,,,,,,,,,,,,,,,S,139,triangle,1,0,,,6,,,,,,,,,,,,,repeat,number,numRpt,j,0.6145,vtsPrac,10,0,10,0,1,,,,,,,,,,,,,,,,,,,,,,,
298216,2022-12-06_14h39.40.471,vts_reward_expectancy_bt,2022.2.4,Win32,60.04563468,Chrome,1536,864,,,,,0,630,,,,,,,,,,,,,,,,,U,160,hexagon,1,0,,,6,,,,,,,,,,,,,repeat,number,numRpt,k,0.5348,vtsPrac,11,0,11,0,1,,,,,,,,,,,,,,,,,,,,,,,
298216,2022-12-06_14h39.40.471,vts_reward_expectancy_bt,2022.2.4,Win32,60.04563468,Chrome,1536,864,,,,,0,630,,,,,,,,,,,,,,,,,S,181,circle,1,0,,,6,,,,,,,,,,,,,repeat,number,numRpt,k,0.7634,vtsPrac,12,0,12,0,1,,,,,,,,,,,,,,,,,,,,,,,
298216,2022-12-06_14h39.40.471,vts_reward_expectancy_bt,2022.2.4,Win32,60.04563468,Chrome,1536,864,,,,,0,630,,,,,,,,,,,,,,,,,H,167,triangle,1,0,,,6,,,,,,,,,,,,,repeat,number,numRpt,k,0.7435,vtsPrac,13,0,13,0,1,,,,,,,,,,,,,,,,,,,,,,,
298216,2022-12-06_14h39.40.471,vts_reward_expectancy_bt,2022.2.4,Win32,60.04563468,Chrome,1536,864,,,,,0,630,,,,,,,,,,,,,,,,,D,160,star,1,0,,,6,,,,,,,,,,,,,repeat,number,numRpt,k,0.7875,vtsPrac,14,0,14,0,1,,,,,,,,,,,,,,,,,,,,,,,
298216,2022-12-06_14h39.40.471,vts_reward_expectancy_bt,2022.2.4,Win32,60.04563468,Chrome,1536,864,,,,,0,630,,,,,,,,,,,,,,,,,B,132,triangle,1,0,,,6,,,,,,,,,,,,,repeat,number,numRpt,j,0.8049,vtsPrac,15,0,15,0,1,,,,,,,,,,,,,,,,,,,,,,,
298216,2022-12-06_14h39.40.471,vts_reward_expectancy_bt,2022.2.4,Win32,60.04563468,Chrome,1536,864,,,,,0,630,,,,,,,,,,,,,,,,,S,167,triangle,1,0,,,6,,,,,,,,,,,,,repeat,number,numRpt,k,0.733,vtsPrac,16,0,16,0,1,,,,,,,,,,,,,,,,,,,,,,,
298216,2022-12-06_14h39.40.471,vts_reward_expectancy_bt,2022.2.4,Win32,60.04563468,Chrome,1536,864,,,,,0,630,,,,,,,,,,,,,,,,,B,174,star,1,0,,,6,,,,,,,,,,,,,repeat,number,numRpt,k,0.6481,vtsPrac,17,0,17,0,1,,,,,,,,,,,,,,,,,,,,,,,
298216,2022-12-06_14h39.40.471,vts_reward_expectancy_bt,2022.2.4,Win32,60.04563468,Chrome,1536,864,,,,,0,630,,,,,,,,,,,,,,,,,H,139,star,1,0,,,6,,,,,,,,,,,,,repeat,number,numRpt,j,0.5809,vtsPrac,18,0,18,0,1,,,,,,,,,,,,,,,,,,,,,,,
298216,2022-12-06_14h39.40.471,vts_reward_expectancy_bt,2022.2.4,Win32,60.04563468,Chrome,1536,864,,,,,0,630,,,,,,,,,,,,,,,,,U,132,circle,1,0,,,6,,,,,,,,,,,,,repeat,number,numRpt,j,0.7979,vtsPrac,19,0,19,0,1,,,,,,,,,,,,,,,,,,,,,,,
298216,2022-12-06_14h39.40.471,vts_reward_expectancy_bt,2022.2.4,Win32,60.04563468,Chrome,1536,864,,,,,0,630,,,,,,,,,,,,,,,,,D,125,star,1,0,,,6,,,,,,,,,,,,,repeat,number,numRpt,j,0.7095,vtsPrac,20,0,20,0,1,,,,,,,,,,,,,,,,,,,,,,,
298216,2022-12-06_14h39.40.471,vts_reward_expectancy_bt,2022.2.4,Win32,60.04563468,Chrome,1536,864,,,,,0,630,,,,,,,,,,,,,,,,,S,139,circle,1,0,,,6,,,,,,,,,,,,,repeat,number,numRpt,j,0.6588,vtsPrac,21,0,21,0,1,,,,,,,,,,,,,,,,,,,,,,,
298216,2022-12-06_14h39.40.471,vts_reward_expectancy_bt,2022.2.4,Win32,60.04563468,Chrome,1536,864,,,,,0,630,,,,,,,,,,,,,,,,,B,132,triangle,1,0,,,6,,,,,,,,,,,,,repeat,number,numRpt,j,0.5371,vtsPrac,22,0,22,0,1,,,,,,,,,,,,,,,,,,,,,,,
298216,2022-12-06_14h39.40.471,vts_reward_expectancy_bt,2022.2.4,Win32,60.04563468,Chrome,1536,864,,,,,0,630,,,,,,,,,,,,,,,,,U,167,circle,1,0,,,6,,,,,,,,,,,,,repeat,number,numRpt,k,0.7835,vtsPrac,23,0,23,0,1,,,,,,,,,,,,,,,,,,,,,,,
298216,2022-12-06_14h39.40.471,vts_reward_expectancy_bt,2022.2.4,Win32,60.04563468,Chrome,1536,864,,,,,0,630,,,,,,,,,,,,,,,,,W,181,triangle,1,0,,,6,,,,,,,,,,,,,repeat,number,numRpt,k,0.9257,vtsPrac,24,0,24,0,1,,,,,,,,,,,,,,,,,,,,,,,
298216,2022-12-06_14h39.40.471,vts_reward_expectancy_bt,2022.2.4,Win32,60.04563468,Chrome,1536,864,,,,,0,630,,,,,,,,,,,,,,,,,H,139,circle,1,0,,,6,,,,,,,,,,,,,repeat,number,numRpt,j,0.7172,vtsPrac,25,0,25,0,1,,,,,,,,,,,,,,,,,,,,,,,
298216,2022-12-06_14h39.40.471,vts_reward_expectancy_bt,2022.2.4,Win32,60.04563468,Chrome,1536,864,,,,,0,630,,,,,,,,,,,,,,,,,Y,146,circle,1,0,,,6,,,,,,,,,,,,,repeat,number,numRpt,j,1.2672,vtsPrac,26,0,26,0,1,,,,,,,,,,,,,,,,,,,,,,,
298216,2022-12-06_14h39.40.471,vts_reward_expectancy_bt,2022.2.4,Win32,60.04563468,Chrome,1536,864,,,,,0,630,,,,,,,,,,,,,,,,,D,132,triangle,1,0,,,6,,,,,,,,,,,,,repeat,number,numRpt,j,1,vtsPrac,27,0,27,0,1,,,,,,,,,,,,,,,,,,,,,,,
298216,2022-12-06_14h39.40.471,vts_reward_expectancy_bt,2022.2.4,Win32,60.04563468,Chrome,1536,864,,,,,0,630,,,,,,,,,,,,,,,,,F,160,hexagon,1,0,,,6,,,,,,,,,,,,,repeat,number,numRpt,k,0.8336,vtsPrac,28,0,28,0,1,,,,,,,,,,,,,,,,,,,,,,,
298216,2022-12-06_14h39.40.471,vts_reward_expectancy_bt,2022.2.4,Win32,60.04563468,Chrome,1536,864,,,,,0,630,,,,,,,,,,,,,,,,,S,181,triangle,1,0,,,6,,,,,,,,,,,,,repeat,number,numRpt,k,0.9352,vtsPrac,29,0,29,0,1,,,,,,,,,,,,,,,,,,,,,,,
298216,2022-12-06_14h39.40.471,vts_reward_expectancy_bt,2022.2.4,Win32,60.04563468,Chrome,1536,864,,,,,0,630,,,,,,,,,,,,,,,,,Y,125,star,1,0,,,6,,,,,,,,,,,,,repeat,number,numRpt,j,0.6008,vtsPrac,30,0,30,0,1,,,,,,,,,,,,,,,,,,,,,,,
298216,2022-12-06_14h39.40.471,vts_reward_expectancy_bt,2022.2.4,Win32,60.04563468,Chrome,1536,864,,,,,0,630,,,,,,,,,,,,,,,,,W,132,circle,1,0,,,6,,,,,,,,,,,,,repeat,number,numRpt,j,0.8174,vtsPrac,31,0,31,0,1,,,,,,,,,,,,,,,,,,,,,,,
298216,2022-12-06_14h39.40.471,vts_reward_expectancy_bt,2022.2.4,Win32,60.04563468,Chrome,1536,864,,,,,0,630,,,,,,,,,,,,,,,,,W,160,star,1,0,,,7,,,,,,,,,,,,,switch,letter,lettSwt,f,2.5249,vtsPrac,0,0,0,0,1,,,,,,,,,,,,,,,,,,,,,,,
298216,2022-12-06_14h39.40.471,vts_reward_expectancy_bt,2022.2.4,Win32,60.04563468,Chrome,1536,864,,,,,0,630,,,,,,,,,,,,,,,,,S,167,circle,1,0,,,7,,,,,,,,,,,,,repeat,letter,lettRpt,f,1.801,vtsPrac,1,0,1,0,1,,,,,,,,,,,,,,,,,,,,,,,
298216,2022-12-06_14h39.40.471,vts_reward_expectancy_bt,2022.2.4,Win32,60.04563468,Chrome,1536,864,,,,,0,630,,,,,,,,,,,,,,,,,U,125,star,1,0,,,7,,,,,,,,,,,,,repeat,letter,lettRpt,f,1.1172,vtsPrac,2,0,2,0,1,,,,,,,,,,,,,,,,,,,,,,,
298216,2022-12-06_14h39.40.471,vts_reward_expectancy_bt,2022.2.4,Win32,60.04563468,Chrome,1536,864,,,,,0,630,,,,,,,,,,,,,,,,,H,181,circle,1,0,,,7,,,,,,,,,,,,,repeat,letter,lettRpt,d,2.0513,vtsPrac,3,0,3,0,1,,,,,,,,,,,,,,,,,,,,,,,
298216,2022-12-06_14h39.40.471,vts_reward_expectancy_bt,2022.2.4,Win32,60.04563468,Chrome,1536,864,,,,,0,630,,,,,,,,,,,,,,,,,W,160,triangle,1,0,,,7,,,,,,,,,,,,,switch,number,numSwt,k,1.4004,vtsPrac,4,0,4,0,1,,,,,,,,,,,,,,,,,,,,,,,
298216,2022-12-06_14h39.40.471,vts_reward_expectancy_bt,2022.2.4,Win32,60.04563468,Chrome,1536,864,,,,,0,630,,,,,,,,,,,,,,,,,S,167,circle,1,0,,,7,,,,,,,,,,,,,repeat,number,numRpt,k,1.2828,vtsPrac,5,0,5,0,1,,,,,,,,,,,,,,,,,,,,,,,
298216,2022-12-06_14h39.40.471,vts_reward_expectancy_bt,2022.2.4,Win32,60.04563468,Chrome,1536,864,,,,,0,630,,,,,,,,,,,,,,,,,U,125,circle,1,0,,,7,,,,,,,,,,,,,switch,letter,lettSwt,f,2.9032,vtsPrac,6,0,6,0,1,,,,,,,,,,,,,,,,,,,,,,,
298216,2022-12-06_14h39.40.471,vts_reward_expectancy_bt,2022.2.4,Win32,60.04563468,Chrome,1536,864,,,,,0,630,,,,,,,,,,,,,,,,,H,181,triangle,1,0,,,7,,,,,,,,,,,,,repeat,letter,lettRpt,d,2.3676,vtsPrac,7,0,7,0,1,,,,,,,,,,,,,,,,,,,,,,,
298216,2022-12-06_14h39.40.471,vts_reward_expectancy_bt,2022.2.4,Win32,60.04563468,Chrome,1536,864,,,,,0,630,,,,,,,,,,,,,,,,,S,160,triangle,1,0,,,7,,,,,,,,,,,,,repeat,letter,lettRpt,f,2.234,vtsPrac,8,0,8,0,1,,,,,,,,,,,,,,,,,,,,,,,
298216,2022-12-06_14h39.40.471,vts_reward_expectancy_bt,2022.2.4,Win32,60.04563468,Chrome,1536,864,,,,,0,630,,,,,,,,,,,,,,,,,U,146,circle,-1,0,,,7,,,,,,,,,,,,,switch,no_choice,NA,,,vtsPrac,9,0,9,0,1,,,,,,,,,,,,,,,,,,,,,,,
298216,2022-12-06_14h39.40.471,vts_reward_expectancy_bt,2022.2.4,Win32,60.04563468,Chrome,1536,864,,,,,0,630,,,,,,,,,,,,,,,,,D,167,star,1,0,,,7,,,,,,,,,,,,,switch,letter,lettSwt,d,1.7669,vtsPrac,10,0,10,0,1,,,,,,,,,,,,,,,,,,,,,,,
298216,2022-12-06_14h39.40.471,vts_reward_expectancy_bt,2022.2.4,Win32,60.04563468,Chrome,1536,864,,,,,0,630,,,,,,,,,,,,,,,,,B,125,triangle,1,0,,,7,,,,,,,,,,,,,repeat,letter,lettRpt,d,1.4003,vtsPrac,11,0,11,0,1,,,,,,,,,,,,,,,,,,,,,,,
298216,2022-12-06_14h39.40.471,vts_reward_expectancy_bt,2022.2.4,Win32,60.04563468,Chrome,1536,864,,,,,0,630,,,,,,,,,,,,,,,,,D,160,star,1,0,,,7,,,,,,,,,,,,,repeat,letter,lettRpt,d,1.4567,vtsPrac,12,0,12,0,1,,,,,,,,,,,,,,,,,,,,,,,
298216,2022-12-06_14h39.40.471,vts_reward_expectancy_bt,2022.2.4,Win32,60.04563468,Chrome,1536,864,,,,,0,630,,,,,,,,,,,,,,,,,B,125,circle,1,0,,,7,,,,,,,,,,,,,repeat,letter,lettRpt,d,0.7167,vtsPrac,13,0,13,0,1,,,,,,,,,,,,,,,,,,,,,,,
298216,2022-12-06_14h39.40.471,vts_reward_expectancy_bt,2022.2.4,Win32,60.04563468,Chrome,1536,864,,,,,0,630,,,,,,,,,,,,,,,,,U,174,hexagon,1,0,,,7,,,,,,,,,,,,,repeat,letter,lettRpt,f,0.7665,vtsPrac,14,0,14,0,1,,,,,,,,,,,,,,,,,,,,,,,
298216,2022-12-06_14h39.40.471,vts_reward_expectancy_bt,2022.2.4,Win32,60.04563468,Chrome,1536,864,,,,,0,630,,,,,,,,,,,,,,,,,S,167,circle,1,0,,,7,,,,,,,,,,,,,switch,number,numSwt,k,0.8171,vtsPrac,15,0,15,0,1,,,,,,,,,,,,,,,,,,,,,,,
298216,2022-12-06_14h39.40.471,vts_reward_expectancy_bt,2022.2.4,Win32,60.04563468,Chrome,1536,864,,,,,0,630,,,,,,,,,,,,,,,,,S,146,triangle,1,0,,,7,,,,,,,,,,,,,repeat,number,numRpt,j,2.2868,vtsPrac,16,0,16,0,1,,,,,,,,,,,,,,,,,,,,,,,
298216,2022-12-06_14h39.40.471,vts_reward_expectancy_bt,2022.2.4,Win32,60.04563468,Chrome,1536,864,,,,,0,630,,,,,,,,,,,,,,,,,B,167,circle,1,0,,,7,,,,,,,,,,,,,repeat,number,numRpt,k,1.0041,vtsPrac,17,0,17,0,1,,,,,,,,,,,,,,,,,,,,,,,
298216,2022-12-06_14h39.40.471,vts_reward_expectancy_bt,2022.2.4,Win32,60.04563468,Chrome,1536,864,,,,,0,630,,,,,,,,,,,,,,,,,W,139,triangle,1,0,,,7,,,,,,,,,,,,,switch,letter,lettSwt,f,0.7011,vtsPrac,18,0,18,0,1,,,,,,,,,,,,,,,,,,,,,,,
298216,2022-12-06_14h39.40.471,vts_reward_expectancy_bt,2022.2.4,Win32,60.04563468,Chrome,1536,864,,,,,0,630,,,,,,,,,,,,,,,,,H,125,hexagon,1,0,,,7,,,,,,,,,,,,,repeat,letter,lettRpt,d,0.7263,vtsPrac,19,0,19,0,1,,,,,,,,,,,,,,,,,,,,,,,
298216,2022-12-06_14h39.40.471,vts_reward_expectancy_bt,2022.2.4,Win32,60.04563468,Chrome,1536,864,,,,,0,630,,,,,,,,,,,,,,,,,Y,125,star,1,0,,,7,,,,,,,,,,,,,repeat,letter,lettRpt,f,1.3005,vtsPrac,20,0,20,0,1,,,,,,,,,,,,,,,,,,,,,,,
298216,2022-12-06_14h39.40.471,vts_reward_expectancy_bt,2022.2.4,Win32,60.04563468,Chrome,1536,864,,,,,0,630,,,,,,,,,,,,,,,,,U,174,triangle,1,0,,,7,,,,,,,,,,,,,switch,number,numSwt,k,1.3507,vtsPrac,21,0,21,0,1,,,,,,,,,,,,,,,,,,,,,,,
298216,2022-12-06_14h39.40.471,vts_reward_expectancy_bt,2022.2.4,Win32,60.04563468,Chrome,1536,864,,,,,0,630,,,,,,,,,,,,,,,,,B,181,triangle,1,0,,,7,,,,,,,,,,,,,repeat,number,numRpt,k,0.6834,vtsPrac,22,0,22,0,1,,,,,,,,,,,,,,,,,,,,,,,
298216,2022-12-06_14h39.40.471,vts_reward_expectancy_bt,2022.2.4,Win32,60.04563468,Chrome,1536,864,,,,,0,630,,,,,,,,,,,,,,,,,S,132,circle,1,0,,,7,,,,,,,,,,,,,repeat,number,numRpt,j,0.9599,vtsPrac,23,0,23,0,1,,,,,,,,,,,,,,,,,,,,,,,
298216,2022-12-06_14h39.40.471,vts_reward_expectancy_bt,2022.2.4,Win32,60.04563468,Chrome,1536,864,,,,,0,630,,,,,,,,,,,,,,,,,Y,181,hexagon,1,0,,,7,,,,,,,,,,,,,switch,letter,lettSwt,f,1.3917,vtsPrac,24,0,24,0,1,,,,,,,,,,,,,,,,,,,,,,,
298216,2022-12-06_14h39.40.471,vts_reward_expectancy_bt,2022.2.4,Win32,60.04563468,Chrome,1536,864,,,,,0,630,,,,,,,,,,,,,,,,,F,146,star,1,0,,,7,,,,,,,,,,,,,repeat,letter,lettRpt,d,0.626,vtsPrac,25,0,25,0,1,,,,,,,,,,,,,,,,,,,,,,,
298216,2022-12-06_14h39.40.471,vts_reward_expectancy_bt,2022.2.4,Win32,60.04563468,Chrome,1536,864,,,,,0,630,,,,,,,,,,,,,,,,,W,167,triangle,1,0,,,7,,,,,,,,,,,,,repeat,letter,lettRpt,f,0.6667,vtsPrac,26,0,26,0,1,,,,,,,,,,,,,,,,,,,,,,,
298216,2022-12-06_14h39.40.471,vts_reward_expectancy_bt,2022.2.4,Win32,60.04563468,Chrome,1536,864,,,,,0,630,,,,,,,,,,,,,,,,,D,139,hexagon,1,0,,,7,,,,,,,,,,,,,switch,number,numSwt,j,0.7174,vtsPrac,27,0,27,0,1,,,,,,,,,,,,,,,,,,,,,,,
298216,2022-12-06_14h39.40.471,vts_reward_expectancy_bt,2022.2.4,Win32,60.04563468,Chrome,1536,864,,,,,0,630,,,,,,,,,,,,,,,,,D,160,circle,1,0,,,7,,,,,,,,,,,,,repeat,number,numRpt,k,1.2356,vtsPrac,28,0,28,0,1,,,,,,,,,,,,,,,,,,,,,,,
298216,2022-12-06_14h39.40.471,vts_reward_expectancy_bt,2022.2.4,Win32,60.04563468,Chrome,1536,864,,,,,0,630,,,,,,,,,,,,,,,,,H,125,triangle,1,0,,,7,,,,,,,,,,,,,switch,letter,lettSwt,d,1.0225,vtsPrac,29,0,29,0,1,,,,,,,,,,,,,,,,,,,,,,,
298216,2022-12-06_14h39.40.471,vts_reward_expectancy_bt,2022.2.4,Win32,60.04563468,Chrome,1536,864,,,,,0,630,,,,,,,,,,,,,,,,,U,139,hexagon,0,0,,,7,,,,,,,,,,,,,repeat,letter,NA,d,0.8336,vtsPrac,30,0,30,0,1,,,,,,,,,,,,,,,,,,,,,,,
298216,2022-12-06_14h39.40.471,vts_reward_expectancy_bt,2022.2.4,Win32,60.04563468,Chrome,1536,864,,,,,0,630,,,,,,,,,,,,,,,,,W,174,triangle,1,1,,,7,,,,,,,,,,,,,repeat,letter,lettRpt,f,1.1397,vtsPrac,31,0,31,0,1,,,,,,,,,,,,,,,,,,,,,,,
298216,2022-12-06_14h39.40.471,vts_reward_expectancy_bt,2022.2.4,Win32,60.04563468,Chrome,1536,864,,,,,,,,,,,,,,,,,,,,,,,,,,,,,,,,,,,,,,,,,,,,,,,,,,,,,,,,,,,,,,,,,,,,,,,,,,,,
298216,2022-12-06_14h39.40.471,vts_reward_expectancy_bt,2022.2.4,Win32,60.04563468,Chrome,1536,864,,,,,,,,,,,,,,,,,,,,,,,,,,,,,,,,,,,,,,,,,,,,,,,,,,,,,,,,,,,,,,,,,,,,,,,,,,,,
298216,2022-12-06_14h39.40.471,vts_reward_expectancy_bt,2022.2.4,Win32,60.04563468,Chrome,1536,864,,,,,0,630,,,,,,,,,,,,,,,,,F,139,triangle,1,0,,,,,,,,,,,,,,,,repeat,letter,lettRpt,d,1.2334,noRew,,,,,,0,0,0,0,0,1,,,,,,,,,,,,,,,,,
298216,2022-12-06_14h39.40.471,vts_reward_expectancy_bt,2022.2.4,Win32,60.04563468,Chrome,1536,864,,,,,0,630,,,,,,,,,,,,,,,,,D,132,star,1,0,,,,,,,,,,,,,,,,switch,number,numSwt,j,0.959,noRew,,,,,,0,1,0,1,0,1,,,,,,,,,,,,,,,,,
298216,2022-12-06_14h39.40.471,vts_reward_expectancy_bt,2022.2.4,Win32,60.04563468,Chrome,1536,864,,,,,0,630,,,,,,,,,,,,,,,,,S,167,triangle,1,0,,,,,,,,,,,,,,,,repeat,number,numRpt,k,0.8677,noRew,,,,,,0,2,0,2,0,1,,,,,,,,,,,,,,,,,
298216,2022-12-06_14h39.40.471,vts_reward_expectancy_bt,2022.2.4,Win32,60.04563468,Chrome,1536,864,,,,,0,630,,,,,,,,,,,,,,,,,H,125,star,1,0,,,,,,,,,,,,,,,,repeat,number,numRpt,j,0.6214,noRew,,,,,,0,3,0,3,0,1,,,,,,,,,,,,,,,,,
298216,2022-12-06_14h39.40.471,vts_reward_expectancy_bt,2022.2.4,Win32,60.04563468,Chrome,1536,864,,,,,0,630,,,,,,,,,,,,,,,,,F,139,hexagon,1,0,,,,,,,,,,,,,,,,switch,letter,lettSwt,d,0.8665,noRew,,,,,,0,4,0,4,0,1,,,,,,,,,,,,,,,,,
298216,2022-12-06_14h39.40.471,vts_reward_expectancy_bt,2022.2.4,Win32,60.04563468,Chrome,1536,864,,,,,0,630,,,,,,,,,,,,,,,,,D,132,star,1,0,,,,,,,,,,,,,,,,repeat,letter,lettRpt,d,0.8098,noRew,,,,,,0,5,0,5,0,1,,,,,,,,,,,,,,,,,
298216,2022-12-06_14h39.40.471,vts_reward_expectancy_bt,2022.2.4,Win32,60.04563468,Chrome,1536,864,,,,,0,630,,,,,,,,,,,,,,,,,S,167,hexagon,1,0,,,,,,,,,,,,,,,,repeat,letter,lettRpt,f,0.8252,noRew,,,,,,0,6,0,6,0,1,,,,,,,,,,,,,,,,,
298216,2022-12-06_14h39.40.471,vts_reward_expectancy_bt,2022.2.4,Win32,60.04563468,Chrome,1536,864,,,,,0,630,,,,,,,,,,,,,,,,,H,125,triangle,1,0,,,,,,,,,,,,,,,,switch,number,numSwt,j,0.585,noRew,,,,,,0,7,0,7,0,1,,,,,,,,,,,,,,,,,
298216,2022-12-06_14h39.40.471,vts_reward_expectancy_bt,2022.2.4,Win32,60.04563468,Chrome,1536,864,,,,,0,630,,,,,,,,,,,,,,,,,H,160,hexagon,1,0,,,,,,,,,,,,,,,,repeat,number,numRpt,k,0.7396,noRew,,,,,,0,8,0,8,0,1,,,,,,,,,,,,,,,,,
298216,2022-12-06_14h39.40.471,vts_reward_expectancy_bt,2022.2.4,Win32,60.04563468,Chrome,1536,864,,,,,0,630,,,,,,,,,,,,,,,,,F,139,triangle,1,0,,,,,,,,,,,,,,,,switch,letter,lettSwt,d,2.7417,noRew,,,,,,0,9,0,9,0,1,,,,,,,,,,,,,,,,,
298216,2022-12-06_14h39.40.471,vts_reward_expectancy_bt,2022.2.4,Win32,60.04563468,Chrome,1536,864,,,,,0,630,,,,,,,,,,,,,,,,,Y,125,circle,1,0,,,,,,,,,,,,,,,,switch,number,numSwt,j,1.201,noRew,,,,,,0,10,0,10,0,1,,,,,,,,,,,,,,,,,
298216,2022-12-06_14h39.40.471,vts_reward_expectancy_bt,2022.2.4,Win32,60.04563468,Chrome,1536,864,,,,,0,630,,,,,,,,,,,,,,,,,D,132,star,1,0,,,,,,,,,,,,,,,,switch,letter,lettSwt,d,1.0836,noRew,,,,,,0,11,0,11,0,1,,,,,,,,,,,,,,,,,
298216,2022-12-06_14h39.40.471,vts_reward_expectancy_bt,2022.2.4,Win32,60.04563468,Chrome,1536,864,,,,,0,630,,,,,,,,,,,,,,,,,Y,174,circle,1,0,,,,,,,,,,,,,,,,repeat,letter,lettRpt,f,0.5838,noRew,,,,,,0,12,0,12,0,1,,,,,,,,,,,,,,,,,
298216,2022-12-06_14h39.40.471,vts_reward_expectancy_bt,2022.2.4,Win32,60.04563468,Chrome,1536,864,,,,,0,630,,,,,,,,,,,,,,,,,B,125,hexagon,1,0,,,,,,,,,,,,,,,,repeat,letter,lettRpt,d,0.6038,noRew,,,,,,0,13,0,13,0,1,,,,,,,,,,,,,,,,,
298216,2022-12-06_14h39.40.471,vts_reward_expectancy_bt,2022.2.4,Win32,60.04563468,Chrome,1536,864,,,,,0,630,,,,,,,,,,,,,,,,,H,181,circle,1,0,,,,,,,,,,,,,,,,repeat,letter,lettRpt,d,0.9667,noRew,,,,,,0,14,0,14,0,1,,,,,,,,,,,,,,,,,
298216,2022-12-06_14h39.40.471,vts_reward_expectancy_bt,2022.2.4,Win32,60.04563468,Chrome,1536,864,,,,,0,630,,,,,,,,,,,,,,,,,D,139,hexagon,1,0,,,,,,,,,,,,,,,,switch,number,numSwt,j,0.8261,noRew,,,,,,0,15,0,15,0,1,,,,,,,,,,,,,,,,,
298216,2022-12-06_14h39.40.471,vts_reward_expectancy_bt,2022.2.4,Win32,60.04563468,Chrome,1536,864,,,,,0,630,,,,,,,,,,,,,,,,,F,132,triangle,1,0,,,,,,,,,,,,,,,,repeat,number,numRpt,j,0.6695,noRew,,,,,,0,16,0,16,0,1,,,,,,,,,,,,,,,,,
298216,2022-12-06_14h39.40.471,vts_reward_expectancy_bt,2022.2.4,Win32,60.04563468,Chrome,1536,864,,,,,0,630,,,,,,,,,,,,,,,,,H,146,hexagon,1,0,,,,,,,,,,,,,,,,repeat,number,numRpt,j,0.8372,noRew,,,,,,0,17,0,17,0,1,,,,,,,,,,,,,,,,,
298216,2022-12-06_14h39.40.471,vts_reward_expectancy_bt,2022.2.4,Win32,60.04563468,Chrome,1536,864,,,,,0,630,,,,,,,,,,,,,,,,,B,167,circle,1,0,,,,,,,,,,,,,,,,switch,letter,lettSwt,d,0.8342,noRew,,,,,,0,18,0,18,0,1,,,,,,,,,,,,,,,,,
298216,2022-12-06_14h39.40.471,vts_reward_expectancy_bt,2022.2.4,Win32,60.04563468,Chrome,1536,864,,,,,0,630,,,,,,,,,,,,,,,,,U,174,hexagon,1,0,,,,,,,,,,,,,,,,repeat,letter,lettRpt,f,0.7173,noRew,,,,,,0,19,0,19,0,1,,,,,,,,,,,,,,,,,
298216,2022-12-06_14h39.40.471,vts_reward_expectancy_bt,2022.2.4,Win32,60.04563468,Chrome,1536,864,,,,,0,630,,,,,,,,,,,,,,,,,F,139,star,1,0,,,,,,,,,,,,,,,,switch,number,numSwt,j,1.3907,noRew,,,,,,0,20,0,20,0,1,,,,,,,,,,,,,,,,,
298216,2022-12-06_14h39.40.471,vts_reward_expectancy_bt,2022.2.4,Win32,60.04563468,Chrome,1536,864,,,,,0,630,,,,,,,,,,,,,,,,,D,160,triangle,0,0,,,,,,,,,,,,,,,,switch,letter,NA,f,1.1012,noRew,,,,,,0,21,0,21,0,1,,,,,,,,,,,,,,,,,
298216,2022-12-06_14h39.40.471,vts_reward_expectancy_bt,2022.2.4,Win32,60.04563468,Chrome,1536,864,,,,,0,630,,,,,,,,,,,,,,,,,W,174,circle,1,1,,,,,,,,,,,,,,,,repeat,letter,lettRpt,f,0.7672,noRew,,,,,,0,22,0,22,0,1,,,,,,,,,,,,,,,,,
298216,2022-12-06_14h39.40.471,vts_reward_expectancy_bt,2022.2.4,Win32,60.04563468,Chrome,1536,864,,,,,0,630,,,,,,,,,,,,,,,,,U,125,triangle,1,0,,,,,,,,,,,,,,,,switch,number,numSwt,j,1.3422,noRew,,,,,,0,23,0,23,0,1,,,,,,,,,,,,,,,,,
298216,2022-12-06_14h39.40.471,vts_reward_expectancy_bt,2022.2.4,Win32,60.04563468,Chrome,1536,864,,,,,0,630,,,,,,,,,,,,,,,,,U,174,hexagon,1,0,,,,,,,,,,,,,,,,switch,letter,lettSwt,f,0.9173,noRew,,,,,,0,24,0,24,0,1,,,,,,,,,,,,,,,,,
298216,2022-12-06_14h39.40.471,vts_reward_expectancy_bt,2022.2.4,Win32,60.04563468,Chrome,1536,864,,,,,0,630,,,,,,,,,,,,,,,,,S,160,star,1,0,,,,,,,,,,,,,,,,switch,number,numSwt,k,1,noRew,,,,,,0,25,0,25,0,1,,,,,,,,,,,,,,,,,
298216,2022-12-06_14h39.40.471,vts_reward_expectancy_bt,2022.2.4,Win32,60.04563468,Chrome,1536,864,,,,,0,630,,,,,,,,,,,,,,,,,B,125,circle,1,0,,,,,,,,,,,,,,,,switch,letter,lettSwt,d,1.5508,noRew,,,,,,0,26,0,26,0,1,,,,,,,,,,,,,,,,,
298216,2022-12-06_14h39.40.471,vts_reward_expectancy_bt,2022.2.4,Win32,60.04563468,Chrome,1536,864,,,,,0,630,,,,,,,,,,,,,,,,,H,181,hexagon,1,0,,,,,,,,,,,,,,,,switch,number,numSwt,k,1.3662,noRew,,,,,,0,27,0,27,0,1,,,,,,,,,,,,,,,,,
298216,2022-12-06_14h39.40.471,vts_reward_expectancy_bt,2022.2.4,Win32,60.04563468,Chrome,1536,864,,,,,0,630,,,,,,,,,,,,,,,,,S,167,star,1,0,,,,,,,,,,,,,,,,repeat,number,numRpt,k,1.3729,noRew,,,,,,0,28,0,28,0,1,,,,,,,,,,,,,,,,,
298216,2022-12-06_14h39.40.471,vts_reward_expectancy_bt,2022.2.4,Win32,60.04563468,Chrome,1536,864,,,,,0,630,,,,,,,,,,,,,,,,,B,125,circle,1,0,,,,,,,,,,,,,,,,switch,letter,lettSwt,d,1.6594,noRew,,,,,,0,29,0,29,0,1,,,,,,,,,,,,,,,,,
298216,2022-12-06_14h39.40.471,vts_reward_expectancy_bt,2022.2.4,Win32,60.04563468,Chrome,1536,864,,,,,0,630,,,,,,,,,,,,,,,,,W,174,triangle,1,0,,,,,,,,,,,,,,,,repeat,letter,lettRpt,f,0.9697,noRew,,,,,,0,30,0,30,0,1,,,,,,,,,,,,,,,,,
298216,2022-12-06_14h39.40.471,vts_reward_expectancy_bt,2022.2.4,Win32,60.04563468,Chrome,1536,864,,,,,0,630,,,,,,,,,,,,,,,,,D,146,star,1,0,,,,,,,,,,,,,,,,repeat,letter,lettRpt,d,1.1841,noRew,,,,,,0,31,0,31,0,1,,,,,,,,,,,,,,,,,
298216,2022-12-06_14h39.40.471,vts_reward_expectancy_bt,2022.2.4,Win32,60.04563468,Chrome,1536,864,,,,,0,630,,,,,,,,,,,,,,,,,D,160,triangle,1,0,,,,,,,,,,,,,,,,switch,number,numSwt,k,0.55,noRew,,,,,,0,32,0,32,0,1,,,,,,,,,,,,,,,,,
298216,2022-12-06_14h39.40.471,vts_reward_expectancy_bt,2022.2.4,Win32,60.04563468,Chrome,1536,864,,,,,0,630,,,,,,,,,,,,,,,,,F,139,circle,0,0,,,,,,,,,,,,,,,,switch,letter,NA,f,0.5172,noRew,,,,,,0,33,0,33,0,1,,,,,,,,,,,,,,,,,
298216,2022-12-06_14h39.40.471,vts_reward_expectancy_bt,2022.2.4,Win32,60.04563468,Chrome,1536,864,,,,,0,630,,,,,,,,,,,,,,,,,Y,167,triangle,1,1,,,,,,,,,,,,,,,,repeat,letter,lettRpt,f,0.8335,noRew,,,,,,0,34,0,34,0,1,,,,,,,,,,,,,,,,,
298216,2022-12-06_14h39.40.471,vts_reward_expectancy_bt,2022.2.4,Win32,60.04563468,Chrome,1536,864,,,,,0,630,,,,,,,,,,,,,,,,,H,132,circle,1,0,,,,,,,,,,,,,,,,switch,number,numSwt,j,0.8004,noRew,,,,,,0,35,0,35,0,1,,,,,,,,,,,,,,,,,
298216,2022-12-06_14h39.40.471,vts_reward_expectancy_bt,2022.2.4,Win32,60.04563468,Chrome,1536,864,,,,,0,630,,,,,,,,,,,,,,,,,U,160,hexagon,1,0,,,,,,,,,,,,,,,,repeat,number,numRpt,k,1.2169,noRew,,,,,,0,36,0,36,0,1,,,,,,,,,,,,,,,,,
298216,2022-12-06_14h39.40.471,vts_reward_expectancy_bt,2022.2.4,Win32,60.04563468,Chrome,1536,864,,,,,0,630,,,,,,,,,,,,,,,,,H,139,triangle,1,0,,,,,,,,,,,,,,,,switch,letter,lettSwt,d,0.668,noRew,,,,,,0,37,0,37,0,1,,,,,,,,,,,,,,,,,
298216,2022-12-06_14h39.40.471,vts_reward_expectancy_bt,2022.2.4,Win32,60.04563468,Chrome,1536,864,,,,,0,630,,,,,,,,,,,,,,,,,S,146,star,1,0,,,,,,,,,,,,,,,,switch,number,numSwt,j,0.7732,noRew,,,,,,0,38,0,38,0,1,,,,,,,,,,,,,,,,,
298216,2022-12-06_14h39.40.471,vts_reward_expectancy_bt,2022.2.4,Win32,60.04563468,Chrome,1536,864,,,,,0,630,,,,,,,,,,,,,,,,,F,132,circle,1,0,,,,,,,,,,,,,,,,switch,letter,lettSwt,d,1.8063,noRew,,,,,,0,39,0,39,0,1,,,,,,,,,,,,,,,,,
298216,2022-12-06_14h39.40.471,vts_reward_expectancy_bt,2022.2.4,Win32,60.04563468,Chrome,1536,864,,,,,0,630,,,,,,,,,,,,,,,,,Y,167,triangle,1,0,,,,,,,,,,,,,,,,repeat,letter,lettRpt,f,1.701,noRew,,,,,,0,40,0,40,0,1,,,,,,,,,,,,,,,,,
298216,2022-12-06_14h39.40.471,vts_reward_expectancy_bt,2022.2.4,Win32,60.04563468,Chrome,1536,864,,,,,0,630,,,,,,,,,,,,,,,,,D,174,circle,1,0,,,,,,,,,,,,,,,,switch,number,numSwt,k,2.7845,noRew,,,,,,0,41,0,41,0,1,,,,,,,,,,,,,,,,,
298216,2022-12-06_14h39.40.471,vts_reward_expectancy_bt,2022.2.4,Win32,60.04563468,Chrome,1536,864,,,,,0,630,,,,,,,,,,,,,,,,,F,139,triangle,1,0,,,,,,,,,,,,,,,,switch,letter,lettSwt,d,1.8912,noRew,,,,,,0,42,0,42,0,1,,,,,,,,,,,,,,,,,
298216,2022-12-06_14h39.40.471,vts_reward_expectancy_bt,2022.2.4,Win32,60.04563468,Chrome,1536,864,,,,,0,630,,,,,,,,,,,,,,,,,U,132,star,1,0,,,,,,,,,,,,,,,,switch,number,numSwt,j,1.3179,noRew,,,,,,0,43,0,43,0,1,,,,,,,,,,,,,,,,,
298216,2022-12-06_14h39.40.471,vts_reward_expectancy_bt,2022.2.4,Win32,60.04563468,Chrome,1536,864,,,,,0,630,,,,,,,,,,,,,,,,,U,139,triangle,1,0,,,,,,,,,,,,,,,,switch,letter,lettSwt,f,0.5337,noRew,,,,,,0,44,0,44,0,1,,,,,,,,,,,,,,,,,
298216,2022-12-06_14h39.40.471,vts_reward_expectancy_bt,2022.2.4,Win32,60.04563468,Chrome,1536,864,,,,,0,630,,,,,,,,,,,,,,,,,Y,160,circle,1,0,,,,,,,,,,,,,,,,repeat,letter,lettRpt,f,0.4345,noRew,,,,,,0,45,0,45,0,1,,,,,,,,,,,,,,,,,
298216,2022-12-06_14h39.40.471,vts_reward_expectancy_bt,2022.2.4,Win32,60.04563468,Chrome,1536,864,,,,,0,630,,,,,,,,,,,,,,,,,B,125,star,1,0,,,,,,,,,,,,,,,,repeat,letter,lettRpt,d,0.7004,noRew,,,,,,0,46,0,46,0,1,,,,,,,,,,,,,,,,,
298216,2022-12-06_14h39.40.471,vts_reward_expectancy_bt,2022.2.4,Win32,60.04563468,Chrome,1536,864,,,,,0,630,,,,,,,,,,,,,,,,,H,181,triangle,1,0,,,,,,,,,,,,,,,,switch,number,numSwt,k,0.6046,noRew,,,,,,0,47,0,47,0,1,,,,,,,,,,,,,,,,,
298216,2022-12-06_14h39.40.471,vts_reward_expectancy_bt,2022.2.4,Win32,60.04563468,Chrome,1536,864,,,,,0,630,,,,,,,,,,,,,,,,,Y,146,hexagon,1,0,,,,,,,,,,,,,,,,repeat,number,numRpt,j,0.7843,noRew,,,,,,0,48,0,48,0,1,,,,,,,,,,,,,,,,,
298216,2022-12-06_14h39.40.471,vts_reward_expectancy_bt,2022.2.4,Win32,60.04563468,Chrome,1536,864,,,,,0,630,,,,,,,,,,,,,,,,,U,181,circle,1,0,,,,,,,,,,,,,,,,repeat,number,numRpt,k,0.8845,noRew,,,,,,0,49,0,49,0,1,,,,,,,,,,,,,,,,,
298216,2022-12-06_14h39.40.471,vts_reward_expectancy_bt,2022.2.4,Win32,60.04563468,Chrome,1536,864,,,,,0,630,,,,,,,,,,,,,,,,,W,160,circle,0,0,,,,,,,,,,,,,,,,repeat,number,NA,j,1.0337,noRew,,,,,,0,50,0,50,0,1,,,,,,,,,,,,,,,,,
298216,2022-12-06_14h39.40.471,vts_reward_expectancy_bt,2022.2.4,Win32,60.04563468,Chrome,1536,864,,,,,0,630,,,,,,,,,,,,,,,,,H,167,hexagon,1,1,,,,,,,,,,,,,,,,repeat,number,numRpt,k,1.0174,noRew,,,,,,0,51,0,51,0,1,,,,,,,,,,,,,,,,,
298216,2022-12-06_14h39.40.471,vts_reward_expectancy_bt,2022.2.4,Win32,60.04563468,Chrome,1536,864,,,,,0,630,,,,,,,,,,,,,,,,,U,174,star,1,0,,,,,,,,,,,,,,,,switch,letter,lettSwt,f,0.6339,noRew,,,,,,0,52,0,52,0,1,,,,,,,,,,,,,,,,,
298216,2022-12-06_14h39.40.471,vts_reward_expectancy_bt,2022.2.4,Win32,60.04563468,Chrome,1536,864,,,,,0,630,,,,,,,,,,,,,,,,,W,181,circle,1,0,,,,,,,,,,,,,,,,repeat,letter,lettRpt,f,0.6584,noRew,,,,,,0,53,0,53,0,1,,,,,,,,,,,,,,,,,
298216,2022-12-06_14h39.40.471,vts_reward_expectancy_bt,2022.2.4,Win32,60.04563468,Chrome,1536,864,,,,,0,630,,,,,,,,,,,,,,,,,S,146,triangle,1,0,,,,,,,,,,,,,,,,repeat,letter,lettRpt,f,1.0226,noRew,,,,,,0,54,0,54,0,1,,,,,,,,,,,,,,,,,
298216,2022-12-06_14h39.40.471,vts_reward_expectancy_bt,2022.2.4,Win32,60.04563468,Chrome,1536,864,,,,,0,630,,,,,,,,,,,,,,,,,Y,160,star,1,0,,,,,,,,,,,,,,,,repeat,letter,lettRpt,f,0.8172,noRew,,,,,,0,55,0,55,0,1,,,,,,,,,,,,,,,,,
298216,2022-12-06_14h39.40.471,vts_reward_expectancy_bt,2022.2.4,Win32,60.04563468,Chrome,1536,864,,,,,0,630,,,,,,,,,,,,,,,,,D,181,circle,1,0,,,,,,,,,,,,,,,,repeat,letter,lettRpt,d,1.3337,noRew,,,,,,0,56,0,56,0,1,,,,,,,,,,,,,,,,,
298216,2022-12-06_14h39.40.471,vts_reward_expectancy_bt,2022.2.4,Win32,60.04563468,Chrome,1536,864,,,,,0,630,,,,,,,,,,,,,,,,,F,174,triangle,1,0,,,,,,,,,,,,,,,,repeat,letter,lettRpt,d,0.6508,noRew,,,,,,0,57,0,57,0,1,,,,,,,,,,,,,,,,,
298216,2022-12-06_14h39.40.471,vts_reward_expectancy_bt,2022.2.4,Win32,60.04563468,Chrome,1536,864,,,,,0,630,,,,,,,,,,,,,,,,,Y,160,circle,1,0,,,,,,,,,,,,,,,,repeat,letter,lettRpt,f,0.6172,noRew,,,,,,0,58,0,58,0,1,,,,,,,,,,,,,,,,,
298216,2022-12-06_14h39.40.471,vts_reward_expectancy_bt,2022.2.4,Win32,60.04563468,Chrome,1536,864,,,,,0,630,,,,,,,,,,,,,,,,,B,146,hexagon,1,0,,,,,,,,,,,,,,,,repeat,letter,lettRpt,d,0.5673,noRew,,,,,,0,59,0,59,0,1,,,,,,,,,,,,,,,,,
298216,2022-12-06_14h39.40.471,vts_reward_expectancy_bt,2022.2.4,Win32,60.04563468,Chrome,1536,864,,,,,0,630,,,,,,,,,,,,,,,,,B,174,star,1,0,,,,,,,,,,,,,,,,switch,number,numSwt,k,0.6206,noRew,,,,,,0,60,0,60,0,1,,,,,,,,,,,,,,,,,
298216,2022-12-06_14h39.40.471,vts_reward_expectancy_bt,2022.2.4,Win32,60.04563468,Chrome,1536,864,,,,,0,630,,,,,,,,,,,,,,,,,F,125,circle,1,0,,,,,,,,,,,,,,,,repeat,number,numRpt,j,0.5075,noRew,,,,,,0,61,0,61,0,1,,,,,,,,,,,,,,,,,
298216,2022-12-06_14h39.40.471,vts_reward_expectancy_bt,2022.2.4,Win32,60.04563468,Chrome,1536,864,,,,,0,630,,,,,,,,,,,,,,,,,S,167,triangle,1,0,,,,,,,,,,,,,,,,repeat,number,numRpt,k,0.7203,noRew,,,,,,0,62,0,62,0,1,,,,,,,,,,,,,,,,,
298216,2022-12-06_14h39.40.471,vts_reward_expectancy_bt,2022.2.4,Win32,60.04563468,Chrome,1536,864,,,,,0,630,,,,,,,,,,,,,,,,,W,146,circle,1,0,,,,,,,,,,,,,,,,repeat,number,numRpt,j,0.6169,noRew,,,,,,0,63,0,63,0,1,,,,,,,,,,,,,,,,,
298216,2022-12-06_14h39.40.471,vts_reward_expectancy_bt,2022.2.4,Win32,60.04563468,Chrome,1536,864,,,,,,,,,,,,,,,,,,,,,,,,,,,,,,,,,,,,,,,,,,,,,,,,,,,,,,,,,,,,,,,,,,,,,,,,,,,,
298216,2022-12-06_14h39.40.471,vts_reward_expectancy_bt,2022.2.4,Win32,60.04563468,Chrome,1536,864,,,,,0,630,,,,,,,,,,,,,,,,,W,125,hexagon,0,0,,,,,,,,,,,,,,,,switch,letter,NA,d,0.7326,noRew,,,,,,0,,,,,,space,5.0494,low,0,0,0,0,1,,,,,,,,,
298216,2022-12-06_14h39.40.471,vts_reward_expectancy_bt,2022.2.4,Win32,60.04563468,Chrome,1536,864,,,,,10,640,,,,,,,,,,,,,,,,,S,167,triangle,1,1,,,,,,,,,,,,,,,,repeat,letter,lettRpt,f,0.5179,Hi,,,,,,0,,,,,,,,low,1,0,1,0,1,,,,,,,,,
298216,2022-12-06_14h39.40.471,vts_reward_expectancy_bt,2022.2.4,Win32,60.04563468,Chrome,1536,864,,,,,1,641,,,,,,,,,,,,,,,,,H,160,star,1,0,,,,,,,,,,,,,,,,switch,number,numSwt,k,1.1343,Lo,,,,,,0,,,,,,,,low,2,0,2,0,1,,,,,,,,,
298216,2022-12-06_14h39.40.471,vts_reward_expectancy_bt,2022.2.4,Win32,60.04563468,Chrome,1536,864,,,,,1,642,,,,,,,,,,,,,,,,,B,146,circle,1,0,,,,,,,,,,,,,,,,switch,letter,lettSwt,d,0.5715,Lo,,,,,,0,,,,,,,,low,3,0,3,0,1,,,,,,,,,
298216,2022-12-06_14h39.40.471,vts_reward_expectancy_bt,2022.2.4,Win32,60.04563468,Chrome,1536,864,,,,,0,642,,,,,,,,,,,,,,,,,F,132,hexagon,1,0,,,,,,,,,,,,,,,,switch,number,numSwt,j,2.551,Hi,,,,,,0,,,,,,,,low,4,0,4,0,1,,,,,,,,,
298216,2022-12-06_14h39.40.471,vts_reward_expectancy_bt,2022.2.4,Win32,60.04563468,Chrome,1536,864,,,,,0,642,,,,,,,,,,,,,,,,,D,181,triangle,1,0,,,,,,,,,,,,,,,,switch,letter,lettSwt,d,1.5611,Hi,,,,,,0,,,,,,,,low,5,0,5,0,1,,,,,,,,,
298216,2022-12-06_14h39.40.471,vts_reward_expectancy_bt,2022.2.4,Win32,60.04563468,Chrome,1536,864,,,,,1,643,,,,,,,,,,,,,,,,,Y,174,star,1,0,,,,,,,,,,,,,,,,repeat,letter,lettRpt,f,0.8328,Lo,,,,,,0,,,,,,,,low,6,0,6,0,1,,,,,,,,,
298216,2022-12-06_14h39.40.471,vts_reward_expectancy_bt,2022.2.4,Win32,60.04563468,Chrome,1536,864,,,,,10,653,,,,,,,,,,,,,,,,,U,139,circle,1,0,,,,,,,,,,,,,,,,repeat,letter,lettRpt,f,0.5445,Lo,,,,,,0,,,,,,,,low,7,0,7,0,1,,,,,,,,,
298216,2022-12-06_14h39.40.471,vts_reward_expectancy_bt,2022.2.4,Win32,60.04563468,Chrome,1536,864,,,,,0,653,,,,,,,,,,,,,,,,,W,125,hexagon,1,0,,,,,,,,,,,,,,,,switch,number,numSwt,j,1.3184,Hi,,,,,,0,,,,,,,,low,8,0,8,0,1,,,,,,,,,
298216,2022-12-06_14h39.40.471,vts_reward_expectancy_bt,2022.2.4,Win32,60.04563468,Chrome,1536,864,,,,,1,654,,,,,,,,,,,,,,,,,S,167,triangle,1,0,,,,,,,,,,,,,,,,switch,letter,lettSwt,f,0.6337,Hi,,,,,,0,,,,,,,,low,9,0,9,0,1,,,,,,,,,
298216,2022-12-06_14h39.40.471,vts_reward_expectancy_bt,2022.2.4,Win32,60.04563468,Chrome,1536,864,,,,,0,654,,,,,,,,,,,,,,,,,H,160,star,0,0,,,,,,,,,,,,,,,,switch,number,NA,j,0.7094,Hi,,,,,,0,,,,,,,,low,10,0,10,0,1,,,,,,,,,
298216,2022-12-06_14h39.40.471,vts_reward_expectancy_bt,2022.2.4,Win32,60.04563468,Chrome,1536,864,,,,,10,664,,,,,,,,,,,,,,,,,B,146,circle,1,1,,,,,,,,,,,,,,,,repeat,number,numRpt,j,1.7002,Lo,,,,,,0,,,,,,,,low,11,0,11,0,1,,,,,,,,,
298216,2022-12-06_14h39.40.471,vts_reward_expectancy_bt,2022.2.4,Win32,60.04563468,Chrome,1536,864,,,,,10,674,,,,,,,,,,,,,,,,,F,132,triangle,1,0,,,,,,,,,,,,,,,,switch,letter,lettSwt,d,0.6504,Hi,,,,,,0,,,,,,,,low,12,0,12,0,1,,,,,,,,,
298216,2022-12-06_14h39.40.471,vts_reward_expectancy_bt,2022.2.4,Win32,60.04563468,Chrome,1536,864,,,,,10,684,,,,,,,,,,,,,,,,,D,181,star,1,0,,,,,,,,,,,,,,,,repeat,letter,lettRpt,d,0.6503,Lo,,,,,,0,,,,,,,,low,13,0,13,0,1,,,,,,,,,
298216,2022-12-06_14h39.40.471,vts_reward_expectancy_bt,2022.2.4,Win32,60.04563468,Chrome,1536,864,,,,,0,684,,,,,,,,,,,,,,,,,Y,174,hexagon,1,0,,,,,,,,,,,,,,,,repeat,letter,lettRpt,f,1.4016,Hi,,,,,,0,,,,,,,,low,14,0,14,0,1,,,,,,,,,
298216,2022-12-06_14h39.40.471,vts_reward_expectancy_bt,2022.2.4,Win32,60.04563468,Chrome,1536,864,,,,,1,685,,,,,,,,,,,,,,,,,U,139,circle,1,0,,,,,,,,,,,,,,,,repeat,letter,lettRpt,f,1.2681,Lo,,,,,,0,,,,,,,,low,15,0,15,0,1,,,,,,,,,
298216,2022-12-06_14h39.40.471,vts_reward_expectancy_bt,2022.2.4,Win32,60.04563468,Chrome,1536,864,,,,,10,695,,,,,,,,,,,,,,,,,S,125,star,1,0,,,,,,,,,,,,,,,,repeat,letter,lettRpt,f,0.7172,Lo,,,,,,0,,,,,,,,low,16,0,16,0,1,,,,,,,,,
298216,2022-12-06_14h39.40.471,vts_reward_expectancy_bt,2022.2.4,Win32,60.04563468,Chrome,1536,864,,,,,1,696,,,,,,,,,,,,,,,,,U,139,triangle,1,0,,,,,,,,,,,,,,,,repeat,letter,lettRpt,f,0.4505,Hi,,,,,,0,,,,,,,,low,17,0,17,0,1,,,,,,,,,
298216,2022-12-06_14h39.40.471,vts_reward_expectancy_bt,2022.2.4,Win32,60.04563468,Chrome,1536,864,,,,,10,706,,,,,,,,,,,,,,,,,D,174,circle,1,0,,,,,,,,,,,,,,,,repeat,letter,lettRpt,d,1.0004,Lo,,,,,,0,,,,,,,,low,18,0,18,0,1,,,,,,,,,
298216,2022-12-06_14h39.40.471,vts_reward_expectancy_bt,2022.2.4,Win32,60.04563468,Chrome,1536,864,,,,,10,716,,,,,,,,,,,,,,,,,B,132,hexagon,1,0,,,,,,,,,,,,,,,,repeat,letter,lettRpt,d,0.6779,Hi,,,,,,0,,,,,,,,low,19,0,19,0,1,,,,,,,,,
298216,2022-12-06_14h39.40.471,vts_reward_expectancy_bt,2022.2.4,Win32,60.04563468,Chrome,1536,864,,,,,10,726,,,,,,,,,,,,,,,,,F,167,triangle,1,0,,,,,,,,,,,,,,,,repeat,letter,lettRpt,d,0.594,Hi,,,,,,0,,,,,,,,low,20,0,20,0,1,,,,,,,,,
298216,2022-12-06_14h39.40.471,vts_reward_expectancy_bt,2022.2.4,Win32,60.04563468,Chrome,1536,864,,,,,10,736,,,,,,,,,,,,,,,,,W,160,star,1,0,,,,,,,,,,,,,,,,switch,number,numSwt,k,0.8028,Lo,,,,,,0,,,,,,,,low,21,0,21,0,1,,,,,,,,,
298216,2022-12-06_14h39.40.471,vts_reward_expectancy_bt,2022.2.4,Win32,60.04563468,Chrome,1536,864,,,,,10,746,,,,,,,,,,,,,,,,,Y,181,hexagon,1,0,,,,,,,,,,,,,,,,repeat,number,numRpt,k,0.5939,Hi,,,,,,0,,,,,,,,low,22,0,22,0,1,,,,,,,,,
298216,2022-12-06_14h39.40.471,vts_reward_expectancy_bt,2022.2.4,Win32,60.04563468,Chrome,1536,864,,,,,1,747,,,,,,,,,,,,,,,,,H,146,circle,1,0,,,,,,,,,,,,,,,,switch,letter,lettSwt,d,0.9478,Lo,,,,,,0,,,,,,,,low,23,0,23,0,1,,,,,,,,,
298216,2022-12-06_14h39.40.471,vts_reward_expectancy_bt,2022.2.4,Win32,60.04563468,Chrome,1536,864,,,,,1,748,,,,,,,,,,,,,,,,,D,132,circle,1,0,,,,,,,,,,,,,,,,repeat,letter,lettRpt,d,1.2666,Lo,,,,,,0,,,,,,,,low,24,0,24,0,1,,,,,,,,,
298216,2022-12-06_14h39.40.471,vts_reward_expectancy_bt,2022.2.4,Win32,60.04563468,Chrome,1536,864,,,,,10,758,,,,,,,,,,,,,,,,,B,174,star,1,0,,,,,,,,,,,,,,,,repeat,letter,lettRpt,d,0.5342,Lo,,,,,,0,,,,,,,,low,25,0,25,0,1,,,,,,,,,
298216,2022-12-06_14h39.40.471,vts_reward_expectancy_bt,2022.2.4,Win32,60.04563468,Chrome,1536,864,,,,,10,768,,,,,,,,,,,,,,,,,H,146,hexagon,1,0,,,,,,,,,,,,,,,,switch,number,numSwt,j,0.6173,Hi,,,,,,0,,,,,,,,low,26,0,26,0,1,,,,,,,,,
298216,2022-12-06_14h39.40.471,vts_reward_expectancy_bt,2022.2.4,Win32,60.04563468,Chrome,1536,864,,,,,10,778,,,,,,,,,,,,,,,,,Y,125,triangle,1,0,,,,,,,,,,,,,,,,switch,letter,lettSwt,f,0.5565,Hi,,,,,,0,,,,,,,,low,27,0,27,0,1,,,,,,,,,
298216,2022-12-06_14h39.40.471,vts_reward_expectancy_bt,2022.2.4,Win32,60.04563468,Chrome,1536,864,,,,,1,779,,,,,,,,,,,,,,,,,S,160,circle,1,0,,,,,,,,,,,,,,,,repeat,letter,lettRpt,f,0.7,Lo,,,,,,0,,,,,,,,low,28,0,28,0,1,,,,,,,,,
298216,2022-12-06_14h39.40.471,vts_reward_expectancy_bt,2022.2.4,Win32,60.04563468,Chrome,1536,864,,,,,10,789,,,,,,,,,,,,,,,,,F,167,hexagon,1,0,,,,,,,,,,,,,,,,switch,number,numSwt,k,0.6717,Hi,,,,,,0,,,,,,,,low,29,0,29,0,1,,,,,,,,,
298216,2022-12-06_14h39.40.471,vts_reward_expectancy_bt,2022.2.4,Win32,60.04563468,Chrome,1536,864,,,,,1,790,,,,,,,,,,,,,,,,,W,181,star,1,0,,,,,,,,,,,,,,,,repeat,number,numRpt,k,0.5561,Lo,,,,,,0,,,,,,,,low,30,0,30,0,1,,,,,,,,,
298216,2022-12-06_14h39.40.471,vts_reward_expectancy_bt,2022.2.4,Win32,60.04563468,Chrome,1536,864,,,,,10,800,,,,,,,,,,,,,,,,,U,139,triangle,1,0,,,,,,,,,,,,,,,,repeat,number,numRpt,j,0.6502,Hi,,,,,,0,,,,,,,,low,31,0,31,0,1,,,,,,,,,
298216,2022-12-06_14h39.40.471,vts_reward_expectancy_bt,2022.2.4,Win32,60.04563468,Chrome,1536,864,,,,,10,810,,,,,,,,,,,,,,,,,W,132,circle,1,0,,,,,,,,,,,,,,,,switch,letter,lettSwt,f,0.6877,Lo,,,,,,1,,,,,,space,1.4337,low,0,0,0,0,1,,,,,,,,,
298216,2022-12-06_14h39.40.471,vts_reward_expectancy_bt,2022.2.4,Win32,60.04563468,Chrome,1536,864,,,,,10,820,,,,,,,,,,,,,,,,,S,167,hexagon,1,0,,,,,,,,,,,,,,,,switch,number,numSwt,k,0.5969,Hi,,,,,,1,,,,,,,,low,1,0,1,0,1,,,,,,,,,
298216,2022-12-06_14h39.40.471,vts_reward_expectancy_bt,2022.2.4,Win32,60.04563468,Chrome,1536,864,,,,,0,820,,,,,,,,,,,,,,,,,F,174,triangle,1,0,,,,,,,,,,,,,,,,repeat,number,numRpt,k,0.932,Hi,,,,,,1,,,,,,,,low,2,0,2,0,1,,,,,,,,,
298216,2022-12-06_14h39.40.471,vts_reward_expectancy_bt,2022.2.4,Win32,60.04563468,Chrome,1536,864,,,,,1,821,,,,,,,,,,,,,,,,,D,139,star,1,0,,,,,,,,,,,,,,,,repeat,number,numRpt,j,0.7144,Lo,,,,,,1,,,,,,,,low,3,0,3,0,1,,,,,,,,,
298216,2022-12-06_14h39.40.471,vts_reward_expectancy_bt,2022.2.4,Win32,60.04563468,Chrome,1536,864,,,,,10,831,,,,,,,,,,,,,,,,,B,181,circle,1,0,,,,,,,,,,,,,,,,switch,letter,lettSwt,d,0.5969,Lo,,,,,,1,,,,,,,,low,4,0,4,0,1,,,,,,,,,
298216,2022-12-06_14h39.40.471,vts_reward_expectancy_bt,2022.2.4,Win32,60.04563468,Chrome,1536,864,,,,,10,841,,,,,,,,,,,,,,,,,Y,125,hexagon,1,0,,,,,,,,,,,,,,,,repeat,letter,lettRpt,f,0.5302,Hi,,,,,,1,,,,,,,,low,5,0,5,0,1,,,,,,,,,
298216,2022-12-06_14h39.40.471,vts_reward_expectancy_bt,2022.2.4,Win32,60.04563468,Chrome,1536,864,,,,,0,841,,,,,,,,,,,,,,,,,U,160,triangle,1,0,,,,,,,,,,,,,,,,repeat,letter,lettRpt,f,0.9098,Hi,,,,,,1,,,,,,,,low,6,0,6,0,1,,,,,,,,,
298216,2022-12-06_14h39.40.471,vts_reward_expectancy_bt,2022.2.4,Win32,60.04563468,Chrome,1536,864,,,,,10,851,,,,,,,,,,,,,,,,,H,146,star,1,0,,,,,,,,,,,,,,,,switch,number,numSwt,j,0.6885,Lo,,,,,,1,,,,,,,,low,7,0,7,0,1,,,,,,,,,
298216,2022-12-06_14h39.40.471,vts_reward_expectancy_bt,2022.2.4,Win32,60.04563468,Chrome,1536,864,,,,,0,851,,,,,,,,,,,,,,,,,W,132,hexagon,1,0,,,,,,,,,,,,,,,,switch,letter,lettSwt,f,0.7734,Hi,,,,,,1,,,,,,,,low,8,0,8,0,1,,,,,,,,,
298216,2022-12-06_14h39.40.471,vts_reward_expectancy_bt,2022.2.4,Win32,60.04563468,Chrome,1536,864,,,,,1,852,,,,,,,,,,,,,,,,,S,167,triangle,1,0,,,,,,,,,,,,,,,,switch,number,numSwt,k,0.7007,Hi,,,,,,1,,,,,,,,low,9,0,9,0,1,,,,,,,,,
298216,2022-12-06_14h39.40.471,vts_reward_expectancy_bt,2022.2.4,Win32,60.04563468,Chrome,1536,864,,,,,1,853,,,,,,,,,,,,,,,,,F,174,circle,1,0,,,,,,,,,,,,,,,,switch,letter,lettSwt,d,0.5663,Lo,,,,,,1,,,,,,,,low,10,0,10,0,1,,,,,,,,,
298216,2022-12-06_14h39.40.471,vts_reward_expectancy_bt,2022.2.4,Win32,60.04563468,Chrome,1536,864,,,,,1,854,,,,,,,,,,,,,,,,,D,139,star,1,0,,,,,,,,,,,,,,,,repeat,letter,lettRpt,d,0.619,Lo,,,,,,1,,,,,,,,low,11,0,11,0,1,,,,,,,,,
298216,2022-12-06_14h39.40.471,vts_reward_expectancy_bt,2022.2.4,Win32,60.04563468,Chrome,1536,864,,,,,0,854,,,,,,,,,,,,,,,,,B,181,triangle,1,0,,,,,,,,,,,,,,,,switch,number,numSwt,k,0.7892,Hi,,,,,,1,,,,,,,,low,12,0,12,0,1,,,,,,,,,
298216,2022-12-06_14h39.40.471,vts_reward_expectancy_bt,2022.2.4,Win32,60.04563468,Chrome,1536,864,,,,,10,864,,,,,,,,,,,,,,,,,Y,125,hexagon,1,0,,,,,,,,,,,,,,,,repeat,number,numRpt,j,0.5026,Hi,,,,,,1,,,,,,,,low,13,0,13,0,1,,,,,,,,,
298216,2022-12-06_14h39.40.471,vts_reward_expectancy_bt,2022.2.4,Win32,60.04563468,Chrome,1536,864,,,,,1,865,,,,,,,,,,,,,,,,,U,160,circle,1,0,,,,,,,,,,,,,,,,repeat,number,numRpt,k,0.8004,Lo,,,,,,1,,,,,,,,low,14,0,14,0,1,,,,,,,,,
298216,2022-12-06_14h39.40.471,vts_reward_expectancy_bt,2022.2.4,Win32,60.04563468,Chrome,1536,864,,,,,1,866,,,,,,,,,,,,,,,,,H,146,star,1,0,,,,,,,,,,,,,,,,repeat,number,numRpt,j,0.5927,Lo,,,,,,1,,,,,,,,low,15,0,15,0,1,,,,,,,,,
298216,2022-12-06_14h39.40.471,vts_reward_expectancy_bt,2022.2.4,Win32,60.04563468,Chrome,1536,864,,,,,1,867,,,,,,,,,,,,,,,,,H,181,hexagon,1,0,,,,,,,,,,,,,,,,repeat,number,numRpt,k,0.4768,Hi,,,,,,1,,,,,,,,low,16,0,16,0,1,,,,,,,,,
298216,2022-12-06_14h39.40.471,vts_reward_expectancy_bt,2022.2.4,Win32,60.04563468,Chrome,1536,864,,,,,0,867,,,,,,,,,,,,,,,,,W,125,circle,0,0,,,,,,,,,,,,,,,,switch,letter,NA,d,0.884,Hi,,,,,,1,,,,,,,,low,17,0,17,0,1,,,,,,,,,
298216,2022-12-06_14h39.40.471,vts_reward_expectancy_bt,2022.2.4,Win32,60.04563468,Chrome,1536,864,,,,,10,877,,,,,,,,,,,,,,,,,F,167,triangle,1,1,,,,,,,,,,,,,,,,repeat,letter,lettRpt,d,0.5928,Hi,,,,,,1,,,,,,,,low,18,0,18,0,1,,,,,,,,,
298216,2022-12-06_14h39.40.471,vts_reward_expectancy_bt,2022.2.4,Win32,60.04563468,Chrome,1536,864,,,,,1,878,,,,,,,,,,,,,,,,,Y,160,star,1,0,,,,,,,,,,,,,,,,repeat,letter,lettRpt,f,0.4383,Lo,,,,,,1,,,,,,,,low,19,0,19,0,1,,,,,,,,,
298216,2022-12-06_14h39.40.471,vts_reward_expectancy_bt,2022.2.4,Win32,60.04563468,Chrome,1536,864,,,,,10,888,,,,,,,,,,,,,,,,,S,132,circle,1,0,,,,,,,,,,,,,,,,repeat,letter,lettRpt,f,0.5167,Lo,,,,,,1,,,,,,,,low,20,0,20,0,1,,,,,,,,,
298216,2022-12-06_14h39.40.471,vts_reward_expectancy_bt,2022.2.4,Win32,60.04563468,Chrome,1536,864,,,,,1,889,,,,,,,,,,,,,,,,,B,139,triangle,1,0,,,,,,,,,,,,,,,,repeat,letter,lettRpt,d,0.5497,Hi,,,,,,1,,,,,,,,low,21,0,21,0,1,,,,,,,,,
298216,2022-12-06_14h39.40.471,vts_reward_expectancy_bt,2022.2.4,Win32,60.04563468,Chrome,1536,864,,,,,10,899,,,,,,,,,,,,,,,,,D,146,hexagon,1,0,,,,,,,,,,,,,,,,switch,number,numSwt,j,0.4329,Hi,,,,,,1,,,,,,,,low,22,0,22,0,1,,,,,,,,,
298216,2022-12-06_14h39.40.471,vts_reward_expectancy_bt,2022.2.4,Win32,60.04563468,Chrome,1536,864,,,,,10,909,,,,,,,,,,,,,,,,,U,174,star,1,0,,,,,,,,,,,,,,,,repeat,number,numRpt,k,0.577,Lo,,,,,,1,,,,,,,,low,23,0,23,0,1,,,,,,,,,
298216,2022-12-06_14h39.40.471,vts_reward_expectancy_bt,2022.2.4,Win32,60.04563468,Chrome,1536,864,,,,,10,919,,,,,,,,,,,,,,,,,D,125,circle,1,0,,,,,,,,,,,,,,,,switch,letter,lettSwt,d,0.6216,Lo,,,,,,1,,,,,,,,low,24,0,24,0,1,,,,,,,,,
298216,2022-12-06_14h39.40.471,vts_reward_expectancy_bt,2022.2.4,Win32,60.04563468,Chrome,1536,864,,,,,1,920,,,,,,,,,,,,,,,,,F,132,hexagon,1,0,,,,,,,,,,,,,,,,switch,number,numSwt,j,0.5942,Hi,,,,,,1,,,,,,,,low,25,0,25,0,1,,,,,,,,,
298216,2022-12-06_14h39.40.471,vts_reward_expectancy_bt,2022.2.4,Win32,60.04563468,Chrome,1536,864,,,,,10,930,,,,,,,,,,,,,,,,,B,139,triangle,1,0,,,,,,,,,,,,,,,,switch,letter,lettSwt,d,0.4168,Hi,,,,,,1,,,,,,,,low,26,0,26,0,1,,,,,,,,,
298216,2022-12-06_14h39.40.471,vts_reward_expectancy_bt,2022.2.4,Win32,60.04563468,Chrome,1536,864,,,,,10,940,,,,,,,,,,,,,,,,,W,146,star,1,0,,,,,,,,,,,,,,,,repeat,letter,lettRpt,f,0.5335,Lo,,,,,,1,,,,,,,,low,27,0,27,0,1,,,,,,,,,
298216,2022-12-06_14h39.40.471,vts_reward_expectancy_bt,2022.2.4,Win32,60.04563468,Chrome,1536,864,,,,,1,941,,,,,,,,,,,,,,,,,U,174,triangle,1,0,,,,,,,,,,,,,,,,switch,number,numSwt,k,0.6836,Hi,,,,,,1,,,,,,,,low,28,0,28,0,1,,,,,,,,,
298216,2022-12-06_14h39.40.471,vts_reward_expectancy_bt,2022.2.4,Win32,60.04563468,Chrome,1536,864,,,,,0,941,,,,,,,,,,,,,,,,,H,181,hexagon,1,0,,,,,,,,,,,,,,,,repeat,number,numRpt,k,0.6066,Hi,,,,,,1,,,,,,,,low,29,0,29,0,1,,,,,,,,,
298216,2022-12-06_14h39.40.471,vts_reward_expectancy_bt,2022.2.4,Win32,60.04563468,Chrome,1536,864,,,,,1,942,,,,,,,,,,,,,,,,,S,160,circle,1,0,,,,,,,,,,,,,,,,switch,letter,lettSwt,f,0.7168,Lo,,,,,,1,,,,,,,,low,30,0,30,0,1,,,,,,,,,
298216,2022-12-06_14h39.40.471,vts_reward_expectancy_bt,2022.2.4,Win32,60.04563468,Chrome,1536,864,,,,,10,952,,,,,,,,,,,,,,,,,Y,167,star,1,0,,,,,,,,,,,,,,,,repeat,letter,lettRpt,f,0.9999,Lo,,,,,,1,,,,,,,,low,31,0,31,0,1,,,,,,,,,
298216,2022-12-06_14h39.40.471,vts_reward_expectancy_bt,2022.2.4,Win32,60.04563468,Chrome,1536,864,,,,,1,953,,,,,,,,,,,,,,,,,Y,146,star,1,0,,,,,,,,,,,,,,,,repeat,letter,lettRpt,f,0.5317,Lo,,,,,,2,,,,,,space,1.2315,low,0,0,0,0,1,,,,,,,,,
298216,2022-12-06_14h39.40.471,vts_reward_expectancy_bt,2022.2.4,Win32,60.04563468,Chrome,1536,864,,,,,0,953,,,,,,,,,,,,,,,,,H,167,hexagon,1,0,,,,,,,,,,,,,,,,repeat,letter,lettRpt,d,0.6602,Hi,,,,,,2,,,,,,,,low,1,0,1,0,1,,,,,,,,,
298216,2022-12-06_14h39.40.471,vts_reward_expectancy_bt,2022.2.4,Win32,60.04563468,Chrome,1536,864,,,,,0,953,,,,,,,,,,,,,,,,,F,132,triangle,1,0,,,,,,,,,,,,,,,,switch,number,numSwt,j,0.7059,Hi,,,,,,2,,,,,,,,low,2,0,2,0,1,,,,,,,,,
298216,2022-12-06_14h39.40.471,vts_reward_expectancy_bt,2022.2.4,Win32,60.04563468,Chrome,1536,864,,,,,10,963,,,,,,,,,,,,,,,,,U,181,circle,1,0,,,,,,,,,,,,,,,,repeat,number,numRpt,k,0.5704,Lo,,,,,,2,,,,,,,,low,3,0,3,0,1,,,,,,,,,
298216,2022-12-06_14h39.40.471,vts_reward_expectancy_bt,2022.2.4,Win32,60.04563468,Chrome,1536,864,,,,,1,964,,,,,,,,,,,,,,,,,B,139,star,1,0,,,,,,,,,,,,,,,,switch,letter,lettSwt,d,0.5166,Lo,,,,,,2,,,,,,,,low,4,0,4,0,1,,,,,,,,,
298216,2022-12-06_14h39.40.471,vts_reward_expectancy_bt,2022.2.4,Win32,60.04563468,Chrome,1536,864,,,,,10,974,,,,,,,,,,,,,,,,,W,125,hexagon,1,0,,,,,,,,,,,,,,,,switch,number,numSwt,j,0.5671,Hi,,,,,,2,,,,,,,,low,5,0,5,0,1,,,,,,,,,
298216,2022-12-06_14h39.40.471,vts_reward_expectancy_bt,2022.2.4,Win32,60.04563468,Chrome,1536,864,,,,,10,984,,,,,,,,,,,,,,,,,D,160,triangle,1,0,,,,,,,,,,,,,,,,switch,letter,lettSwt,d,0.4705,Hi,,,,,,2,,,,,,,,low,6,0,6,0,1,,,,,,,,,
298216,2022-12-06_14h39.40.471,vts_reward_expectancy_bt,2022.2.4,Win32,60.04563468,Chrome,1536,864,,,,,1,985,,,,,,,,,,,,,,,,,S,174,circle,1,0,,,,,,,,,,,,,,,,switch,number,numSwt,k,1.3219,Lo,,,,,,2,,,,,,,,low,7,0,7,0,1,,,,,,,,,
298216,2022-12-06_14h39.40.471,vts_reward_expectancy_bt,2022.2.4,Win32,60.04563468,Chrome,1536,864,,,,,0,985,,,,,,,,,,,,,,,,,Y,146,hexagon,1,0,,,,,,,,,,,,,,,,switch,letter,lettSwt,f,2.017,Hi,,,,,,2,,,,,,,,low,8,0,8,0,1,,,,,,,,,
298216,2022-12-06_14h39.40.471,vts_reward_expectancy_bt,2022.2.4,Win32,60.04563468,Chrome,1536,864,,,,,1,986,,,,,,,,,,,,,,,,,H,167,circle,1,0,,,,,,,,,,,,,,,,switch,number,numSwt,k,1.6152,Lo,,,,,,2,,,,,,,,low,9,0,9,0,1,,,,,,,,,
298216,2022-12-06_14h39.40.471,vts_reward_expectancy_bt,2022.2.4,Win32,60.04563468,Chrome,1536,864,,,,,0,986,,,,,,,,,,,,,,,,,F,132,triangle,1,0,,,,,,,,,,,,,,,,repeat,number,numRpt,j,0.8075,Hi,,,,,,2,,,,,,,,low,10,0,10,0,1,,,,,,,,,
298216,2022-12-06_14h39.40.471,vts_reward_expectancy_bt,2022.2.4,Win32,60.04563468,Chrome,1536,864,,,,,1,987,,,,,,,,,,,,,,,,,U,181,star,1,0,,,,,,,,,,,,,,,,switch,letter,lettSwt,f,0.6665,Lo,,,,,,2,,,,,,,,low,11,0,11,0,1,,,,,,,,,
298216,2022-12-06_14h39.40.471,vts_reward_expectancy_bt,2022.2.4,Win32,60.04563468,Chrome,1536,864,,,,,1,988,,,,,,,,,,,,,,,,,B,139,star,1,0,,,,,,,,,,,,,,,,repeat,letter,lettRpt,d,0.6184,Lo,,,,,,2,,,,,,,,low,12,0,12,0,1,,,,,,,,,
298216,2022-12-06_14h39.40.471,vts_reward_expectancy_bt,2022.2.4,Win32,60.04563468,Chrome,1536,864,,,,,0,988,,,,,,,,,,,,,,,,,W,125,triangle,1,0,,,,,,,,,,,,,,,,repeat,letter,lettRpt,f,1.2339,Hi,,,,,,2,,,,,,,,low,13,0,13,0,1,,,,,,,,,
298216,2022-12-06_14h39.40.471,vts_reward_expectancy_bt,2022.2.4,Win32,60.04563468,Chrome,1536,864,,,,,1,989,,,,,,,,,,,,,,,,,D,160,circle,1,0,,,,,,,,,,,,,,,,repeat,letter,lettRpt,d,1.7338,Lo,,,,,,2,,,,,,,,low,14,0,14,0,1,,,,,,,,,
298216,2022-12-06_14h39.40.471,vts_reward_expectancy_bt,2022.2.4,Win32,60.04563468,Chrome,1536,864,,,,,0,989,,,,,,,,,,,,,,,,,S,174,hexagon,1,0,,,,,,,,,,,,,,,,switch,number,numSwt,k,1.0236,Hi,,,,,,2,,,,,,,,low,15,0,15,0,1,,,,,,,,,
298216,2022-12-06_14h39.40.471,vts_reward_expectancy_bt,2022.2.4,Win32,60.04563468,Chrome,1536,864,,,,,0,989,,,,,,,,,,,,,,,,,H,146,triangle,1,0,,,,,,,,,,,,,,,,switch,letter,lettSwt,d,1.1673,Hi,,,,,,2,,,,,,,,low,16,0,16,0,1,,,,,,,,,
298216,2022-12-06_14h39.40.471,vts_reward_expectancy_bt,2022.2.4,Win32,60.04563468,Chrome,1536,864,,,,,1,990,,,,,,,,,,,,,,,,,Y,125,circle,1,0,,,,,,,,,,,,,,,,repeat,letter,lettRpt,f,0.8175,Lo,,,,,,2,,,,,,,,low,17,0,17,0,1,,,,,,,,,
298216,2022-12-06_14h39.40.471,vts_reward_expectancy_bt,2022.2.4,Win32,60.04563468,Chrome,1536,864,,,,,0,990,,,,,,,,,,,,,,,,,D,139,hexagon,1,0,,,,,,,,,,,,,,,,switch,number,numSwt,j,0.7914,Hi,,,,,,2,,,,,,,,low,18,0,18,0,1,,,,,,,,,
298216,2022-12-06_14h39.40.471,vts_reward_expectancy_bt,2022.2.4,Win32,60.04563468,Chrome,1536,864,,,,,1,991,,,,,,,,,,,,,,,,,S,181,star,1,0,,,,,,,,,,,,,,,,switch,letter,lettSwt,f,0.8675,Lo,,,,,,2,,,,,,,,low,19,0,19,0,1,,,,,,,,,
298216,2022-12-06_14h39.40.471,vts_reward_expectancy_bt,2022.2.4,Win32,60.04563468,Chrome,1536,864,,,,,10,1001,,,,,,,,,,,,,,,,,F,174,circle,1,0,,,,,,,,,,,,,,,,switch,number,numSwt,k,1.1671,Lo,,,,,,2,,,,,,,,low,20,0,20,0,1,,,,,,,,,
298216,2022-12-06_14h39.40.471,vts_reward_expectancy_bt,2022.2.4,Win32,60.04563468,Chrome,1536,864,,,,,1,1002,,,,,,,,,,,,,,,,,U,132,hexagon,1,0,,,,,,,,,,,,,,,,switch,letter,lettSwt,f,0.584,Hi,,,,,,2,,,,,,,,low,21,0,21,0,1,,,,,,,,,
298216,2022-12-06_14h39.40.471,vts_reward_expectancy_bt,2022.2.4,Win32,60.04563468,Chrome,1536,864,,,,,0,1002,,,,,,,,,,,,,,,,,B,160,star,0,0,,,,,,,,,,,,,,,,switch,number,NA,j,1.2392,Hi,,,,,,2,,,,,,,,low,22,0,22,0,1,,,,,,,,,
298216,2022-12-06_14h39.40.471,vts_reward_expectancy_bt,2022.2.4,Win32,60.04563468,Chrome,1536,864,,,,,0,1002,,,,,,,,,,,,,,,,,W,167,triangle,1,1,,,,,,,,,,,,,,,,repeat,number,numRpt,k,0.7424,Hi,,,,,,2,,,,,,,,low,23,0,23,0,1,,,,,,,,,
298216,2022-12-06_14h39.40.471,vts_reward_expectancy_bt,2022.2.4,Win32,60.04563468,Chrome,1536,864,,,,,1,1003,,,,,,,,,,,,,,,,,D,132,circle,1,0,,,,,,,,,,,,,,,,switch,letter,lettSwt,d,0.5339,Lo,,,,,,2,,,,,,,,low,24,0,24,0,1,,,,,,,,,
298216,2022-12-06_14h39.40.471,vts_reward_expectancy_bt,2022.2.4,Win32,60.04563468,Chrome,1536,864,,,,,10,1013,,,,,,,,,,,,,,,,,F,167,star,1,0,,,,,,,,,,,,,,,,switch,number,numSwt,k,1.056,Lo,,,,,,2,,,,,,,,low,25,0,25,0,1,,,,,,,,,
298216,2022-12-06_14h39.40.471,vts_reward_expectancy_bt,2022.2.4,Win32,60.04563468,Chrome,1536,864,,,,,0,1013,,,,,,,,,,,,,,,,,U,160,hexagon,1,0,,,,,,,,,,,,,,,,switch,letter,lettSwt,f,0.7173,Hi,,,,,,2,,,,,,,,low,26,0,26,0,1,,,,,,,,,
298216,2022-12-06_14h39.40.471,vts_reward_expectancy_bt,2022.2.4,Win32,60.04563468,Chrome,1536,864,,,,,0,1013,,,,,,,,,,,,,,,,,H,181,triangle,1,0,,,,,,,,,,,,,,,,switch,number,numSwt,k,2.0219,Hi,,,,,,2,,,,,,,,low,27,0,27,0,1,,,,,,,,,
298216,2022-12-06_14h39.40.471,vts_reward_expectancy_bt,2022.2.4,Win32,60.04563468,Chrome,1536,864,,,,,0,1013,,,,,,,,,,,,,,,,,B,146,triangle,1,0,,,,,,,,,,,,,,,,switch,letter,lettSwt,d,1.3229,Hi,,,,,,2,,,,,,,,low,28,0,28,0,1,,,,,,,,,
298216,2022-12-06_14h39.40.471,vts_reward_expectancy_bt,2022.2.4,Win32,60.04563468,Chrome,1536,864,,,,,1,1014,,,,,,,,,,,,,,,,,S,174,circle,1,0,,,,,,,,,,,,,,,,repeat,letter,lettRpt,f,0.5846,Lo,,,,,,2,,,,,,,,low,29,0,29,0,1,,,,,,,,,
298216,2022-12-06_14h39.40.471,vts_reward_expectancy_bt,2022.2.4,Win32,60.04563468,Chrome,1536,864,,,,,0,1014,,,,,,,,,,,,,,,,,W,125,hexagon,1,0,,,,,,,,,,,,,,,,switch,number,numSwt,j,0.8925,Hi,,,,,,2,,,,,,,,low,30,0,30,0,1,,,,,,,,,
298216,2022-12-06_14h39.40.471,vts_reward_expectancy_bt,2022.2.4,Win32,60.04563468,Chrome,1536,864,,,,,1,1015,,,,,,,,,,,,,,,,,Y,139,star,1,0,,,,,,,,,,,,,,,,repeat,number,numRpt,j,1.1519,Lo,,,,,,2,,,,,,,,low,31,0,31,0,1,,,,,,,,,
298216,2022-12-06_14h39.40.471,vts_reward_expectancy_bt,2022.2.4,Win32,60.04563468,Chrome,1536,864,,,,,0,1015,,,,,,,,,,,,,,,,,F,146,hexagon,1,0,,,,,,,,,,,,,,,,switch,letter,lettSwt,d,2.5001,Hi,,,,,,3,,,,,,space,8.8469,low,0,0,0,0,1,,,,,,,,,
298216,2022-12-06_14h39.40.471,vts_reward_expectancy_bt,2022.2.4,Win32,60.04563468,Chrome,1536,864,,,,,1,1016,,,,,,,,,,,,,,,,,U,160,circle,1,0,,,,,,,,,,,,,,,,switch,number,numSwt,k,1.2164,Lo,,,,,,3,,,,,,,,low,1,0,1,0,1,,,,,,,,,
298216,2022-12-06_14h39.40.471,vts_reward_expectancy_bt,2022.2.4,Win32,60.04563468,Chrome,1536,864,,,,,10,1026,,,,,,,,,,,,,,,,,D,139,star,1,0,,,,,,,,,,,,,,,,switch,letter,lettSwt,d,0.5724,Lo,,,,,,3,,,,,,,,low,2,0,2,0,1,,,,,,,,,
298216,2022-12-06_14h39.40.471,vts_reward_expectancy_bt,2022.2.4,Win32,60.04563468,Chrome,1536,864,,,,,0,1026,,,,,,,,,,,,,,,,,Y,132,triangle,1,0,,,,,,,,,,,,,,,,repeat,letter,lettRpt,f,1.3093,Hi,,,,,,3,,,,,,,,low,3,0,3,0,1,,,,,,,,,
298216,2022-12-06_14h39.40.471,vts_reward_expectancy_bt,2022.2.4,Win32,60.04563468,Chrome,1536,864,,,,,0,1026,,,,,,,,,,,,,,,,,H,167,hexagon,0,0,,,,,,,,,,,,,,,,switch,number,NA,j,0.8672,Hi,,,,,,3,,,,,,,,low,4,0,4,0,1,,,,,,,,,
298216,2022-12-06_14h39.40.471,vts_reward_expectancy_bt,2022.2.4,Win32,60.04563468,Chrome,1536,864,,,,,1,1027,,,,,,,,,,,,,,,,,S,174,circle,1,1,,,,,,,,,,,,,,,,repeat,number,numRpt,k,0.6246,Lo,,,,,,3,,,,,,,,low,5,0,5,0,1,,,,,,,,,
298216,2022-12-06_14h39.40.471,vts_reward_expectancy_bt,2022.2.4,Win32,60.04563468,Chrome,1536,864,,,,,1,1028,,,,,,,,,,,,,,,,,B,181,star,1,0,,,,,,,,,,,,,,,,switch,letter,lettSwt,d,0.7671,Lo,,,,,,3,,,,,,,,low,6,0,6,0,1,,,,,,,,,
298216,2022-12-06_14h39.40.471,vts_reward_expectancy_bt,2022.2.4,Win32,60.04563468,Chrome,1536,864,,,,,10,1038,,,,,,,,,,,,,,,,,W,125,triangle,1,0,,,,,,,,,,,,,,,,switch,number,numSwt,j,0.5226,Hi,,,,,,3,,,,,,,,low,7,0,7,0,1,,,,,,,,,
298216,2022-12-06_14h39.40.471,vts_reward_expectancy_bt,2022.2.4,Win32,60.04563468,Chrome,1536,864,,,,,0,1038,,,,,,,,,,,,,,,,,F,146,hexagon,1,0,,,,,,,,,,,,,,,,repeat,number,numRpt,j,0.9833,Hi,,,,,,3,,,,,,,,low,8,0,8,0,1,,,,,,,,,
298216,2022-12-06_14h39.40.471,vts_reward_expectancy_bt,2022.2.4,Win32,60.04563468,Chrome,1536,864,,,,,1,1039,,,,,,,,,,,,,,,,,U,160,triangle,1,0,,,,,,,,,,,,,,,,switch,letter,lettSwt,f,0.5727,Hi,,,,,,3,,,,,,,,low,9,0,9,0,1,,,,,,,,,
298216,2022-12-06_14h39.40.471,vts_reward_expectancy_bt,2022.2.4,Win32,60.04563468,Chrome,1536,864,,,,,1,1040,,,,,,,,,,,,,,,,,D,139,circle,1,0,,,,,,,,,,,,,,,,repeat,letter,lettRpt,d,0.5835,Lo,,,,,,3,,,,,,,,low,10,0,10,0,1,,,,,,,,,
298216,2022-12-06_14h39.40.471,vts_reward_expectancy_bt,2022.2.4,Win32,60.04563468,Chrome,1536,864,,,,,1,1041,,,,,,,,,,,,,,,,,Y,132,star,1,0,,,,,,,,,,,,,,,,repeat,letter,lettRpt,f,2.6211,Lo,,,,,,3,,,,,,,,low,11,0,11,0,1,,,,,,,,,
298216,2022-12-06_14h39.40.471,vts_reward_expectancy_bt,2022.2.4,Win32,60.04563468,Chrome,1536,864,,,,,1,1042,,,,,,,,,,,,,,,,,H,167,star,1,0,,,,,,,,,,,,,,,,repeat,letter,lettRpt,d,1.5331,Lo,,,,,,3,,,,,,,,low,12,0,12,0,1,,,,,,,,,
298216,2022-12-06_14h39.40.471,vts_reward_expectancy_bt,2022.2.4,Win32,60.04563468,Chrome,1536,864,,,,,0,1042,,,,,,,,,,,,,,,,,S,174,triangle,1,0,,,,,,,,,,,,,,,,repeat,letter,lettRpt,f,0.6355,Hi,,,,,,3,,,,,,,,low,13,0,13,0,1,,,,,,,,,
298216,2022-12-06_14h39.40.471,vts_reward_expectancy_bt,2022.2.4,Win32,60.04563468,Chrome,1536,864,,,,,10,1052,,,,,,,,,,,,,,,,,B,181,hexagon,1,0,,,,,,,,,,,,,,,,switch,number,numSwt,k,0.569,Hi,,,,,,3,,,,,,,,low,14,0,14,0,1,,,,,,,,,
298216,2022-12-06_14h39.40.471,vts_reward_expectancy_bt,2022.2.4,Win32,60.04563468,Chrome,1536,864,,,,,10,1062,,,,,,,,,,,,,,,,,W,125,circle,1,0,,,,,,,,,,,,,,,,repeat,number,numRpt,j,0.467,Lo,,,,,,3,,,,,,,,low,15,0,15,0,1,,,,,,,,,
298216,2022-12-06_14h39.40.471,vts_reward_expectancy_bt,2022.2.4,Win32,60.04563468,Chrome,1536,864,,,,,0,1062,,,,,,,,,,,,,,,,,B,160,triangle,1,0,,,,,,,,,,,,,,,,repeat,number,numRpt,k,1.404,Hi,,,,,,3,,,,,,,,low,16,0,16,0,1,,,,,,,,,
298216,2022-12-06_14h39.40.471,vts_reward_expectancy_bt,2022.2.4,Win32,60.04563468,Chrome,1536,864,,,,,0,1062,,,,,,,,,,,,,,,,,H,167,hexagon,0,0,,,,,,,,,,,,,,,,repeat,number,NA,j,1.0039,Hi,,,,,,3,,,,,,,,low,17,0,17,0,1,,,,,,,,,
298216,2022-12-06_14h39.40.471,vts_reward_expectancy_bt,2022.2.4,Win32,60.04563468,Chrome,1536,864,,,,,1,1063,,,,,,,,,,,,,,,,,F,174,star,1,1,,,,,,,,,,,,,,,,repeat,number,numRpt,k,1.3518,Lo,,,,,,3,,,,,,,,low,18,0,18,0,1,,,,,,,,,
298216,2022-12-06_14h39.40.471,vts_reward_expectancy_bt,2022.2.4,Win32,60.04563468,Chrome,1536,864,,,,,0,1063,,,,,,,,,,,,,,,,,S,146,circle,0,0,,,,,,,,,,,,,,,,switch,letter,NA,d,1.6008,Lo,,,,,,3,,,,,,,,low,19,0,19,0,1,,,,,,,,,
298216,2022-12-06_14h39.40.471,vts_reward_expectancy_bt,2022.2.4,Win32,60.04563468,Chrome,1536,864,,,,,1,1064,,,,,,,,,,,,,,,,,U,125,star,1,1,,,,,,,,,,,,,,,,repeat,letter,lettRpt,f,0.9911,Lo,,,,,,3,,,,,,,,low,20,0,20,0,1,,,,,,,,,
298216,2022-12-06_14h39.40.471,vts_reward_expectancy_bt,2022.2.4,Win32,60.04563468,Chrome,1536,864,,,,,1,1065,,,,,,,,,,,,,,,,,Y,139,triangle,1,0,,,,,,,,,,,,,,,,repeat,letter,lettRpt,f,0.6019,Hi,,,,,,3,,,,,,,,low,21,0,21,0,1,,,,,,,,,
298216,2022-12-06_14h39.40.471,vts_reward_expectancy_bt,2022.2.4,Win32,60.04563468,Chrome,1536,864,,,,,1,1066,,,,,,,,,,,,,,,,,D,181,circle,1,0,,,,,,,,,,,,,,,,switch,number,numSwt,k,0.8664,Lo,,,,,,3,,,,,,,,low,22,0,22,0,1,,,,,,,,,
298216,2022-12-06_14h39.40.471,vts_reward_expectancy_bt,2022.2.4,Win32,60.04563468,Chrome,1536,864,,,,,10,1076,,,,,,,,,,,,,,,,,W,132,hexagon,1,0,,,,,,,,,,,,,,,,repeat,number,numRpt,j,0.6081,Hi,,,,,,3,,,,,,,,low,23,0,23,0,1,,,,,,,,,
298216,2022-12-06_14h39.40.471,vts_reward_expectancy_bt,2022.2.4,Win32,60.04563468,Chrome,1536,864,,,,,0,1076,,,,,,,,,,,,,,,,,F,160,triangle,1,0,,,,,,,,,,,,,,,,switch,letter,lettSwt,d,0.6837,Hi,,,,,,3,,,,,,,,low,24,0,24,0,1,,,,,,,,,
298216,2022-12-06_14h39.40.471,vts_reward_expectancy_bt,2022.2.4,Win32,60.04563468,Chrome,1536,864,,,,,1,1077,,,,,,,,,,,,,,,,,Y,139,hexagon,1,0,,,,,,,,,,,,,,,,repeat,letter,lettRpt,f,0.5021,Hi,,,,,,3,,,,,,,,low,25,0,25,0,1,,,,,,,,,
298216,2022-12-06_14h39.40.471,vts_reward_expectancy_bt,2022.2.4,Win32,60.04563468,Chrome,1536,864,,,,,1,1078,,,,,,,,,,,,,,,,,W,125,star,1,0,,,,,,,,,,,,,,,,switch,number,numSwt,j,0.685,Lo,,,,,,3,,,,,,,,low,26,0,26,0,1,,,,,,,,,
298216,2022-12-06_14h39.40.471,vts_reward_expectancy_bt,2022.2.4,Win32,60.04563468,Chrome,1536,864,,,,,1,1079,,,,,,,,,,,,,,,,,B,146,circle,1,0,,,,,,,,,,,,,,,,repeat,number,numRpt,j,1.5572,Lo,,,,,,3,,,,,,,,low,27,0,27,0,1,,,,,,,,,
298216,2022-12-06_14h39.40.471,vts_reward_expectancy_bt,2022.2.4,Win32,60.04563468,Chrome,1536,864,,,,,1,1080,,,,,,,,,,,,,,,,,H,167,star,1,0,,,,,,,,,,,,,,,,repeat,number,numRpt,k,1.3499,Lo,,,,,,3,,,,,,,,low,28,0,28,0,1,,,,,,,,,
298216,2022-12-06_14h39.40.471,vts_reward_expectancy_bt,2022.2.4,Win32,60.04563468,Chrome,1536,864,,,,,10,1090,,,,,,,,,,,,,,,,,D,174,hexagon,1,0,,,,,,,,,,,,,,,,repeat,number,numRpt,k,0.6205,Hi,,,,,,3,,,,,,,,low,29,0,29,0,1,,,,,,,,,
298216,2022-12-06_14h39.40.471,vts_reward_expectancy_bt,2022.2.4,Win32,60.04563468,Chrome,1536,864,,,,,1,1091,,,,,,,,,,,,,,,,,S,181,circle,1,0,,,,,,,,,,,,,,,,repeat,number,numRpt,k,1.2855,Lo,,,,,,3,,,,,,,,low,30,0,30,0,1,,,,,,,,,
298216,2022-12-06_14h39.40.471,vts_reward_expectancy_bt,2022.2.4,Win32,60.04563468,Chrome,1536,864,,,,,0,1091,,,,,,,,,,,,,,,,,U,132,triangle,1,0,,,,,,,,,,,,,,,,repeat,number,numRpt,j,1.1511,Hi,,,,,,3,,,,,,,,low,31,0,31,0,1,,,,,,,,,
298216,2022-12-06_14h39.40.471,vts_reward_expectancy_bt,2022.2.4,Win32,60.04563468,Chrome,1536,864,,,,,10,1101,,,,,,,,,,,,,,,,,Y,125,triangle,1,0,,,,,,,,,,,,,,,,switch,letter,lettSwt,f,0.5675,Hi,,,,,,4,,,,,,space,0.99,low,0,0,0,0,1,,,,,,,,,
298216,2022-12-06_14h39.40.471,vts_reward_expectancy_bt,2022.2.4,Win32,60.04563468,Chrome,1536,864,,,,,10,1111,,,,,,,,,,,,,,,,,U,139,circle,1,0,,,,,,,,,,,,,,,,repeat,letter,lettRpt,f,0.583,Lo,,,,,,4,,,,,,,,low,1,0,1,0,1,,,,,,,,,
298216,2022-12-06_14h39.40.471,vts_reward_expectancy_bt,2022.2.4,Win32,60.04563468,Chrome,1536,864,,,,,10,1121,,,,,,,,,,,,,,,,,B,167,star,1,0,,,,,,,,,,,,,,,,repeat,letter,lettRpt,d,0.5376,Lo,,,,,,4,,,,,,,,low,2,0,2,0,1,,,,,,,,,
298216,2022-12-06_14h39.40.471,vts_reward_expectancy_bt,2022.2.4,Win32,60.04563468,Chrome,1536,864,,,,,0,1121,,,,,,,,,,,,,,,,,F,146,hexagon,1,0,,,,,,,,,,,,,,,,repeat,letter,lettRpt,d,0.6669,Hi,,,,,,4,,,,,,,,low,3,0,3,0,1,,,,,,,,,
298216,2022-12-06_14h39.40.471,vts_reward_expectancy_bt,2022.2.4,Win32,60.04563468,Chrome,1536,864,,,,,1,1122,,,,,,,,,,,,,,,,,S,132,triangle,1,0,,,,,,,,,,,,,,,,repeat,letter,lettRpt,f,0.5273,Hi,,,,,,4,,,,,,,,low,4,0,4,0,1,,,,,,,,,
298216,2022-12-06_14h39.40.471,vts_reward_expectancy_bt,2022.2.4,Win32,60.04563468,Chrome,1536,864,,,,,10,1132,,,,,,,,,,,,,,,,,W,160,circle,1,0,,,,,,,,,,,,,,,,repeat,letter,lettRpt,f,0.4833,Lo,,,,,,4,,,,,,,,low,5,0,5,0,1,,,,,,,,,
298216,2022-12-06_14h39.40.471,vts_reward_expectancy_bt,2022.2.4,Win32,60.04563468,Chrome,1536,864,,,,,1,1133,,,,,,,,,,,,,,,,,H,174,star,1,0,,,,,,,,,,,,,,,,repeat,letter,lettRpt,d,1.0013,Lo,,,,,,4,,,,,,,,low,6,0,6,0,1,,,,,,,,,
298216,2022-12-06_14h39.40.471,vts_reward_expectancy_bt,2022.2.4,Win32,60.04563468,Chrome,1536,864,,,,,0,1133,,,,,,,,,,,,,,,,,D,181,hexagon,0,0,,,,,,,,,,,,,,,,repeat,letter,NA,f,1.0164,Lo,,,,,,4,,,,,,,,low,7,0,7,0,1,,,,,,,,,
298216,2022-12-06_14h39.40.471,vts_reward_expectancy_bt,2022.2.4,Win32,60.04563468,Chrome,1536,864,,,,,1,1134,,,,,,,,,,,,,,,,,Y,125,star,1,1,,,,,,,,,,,,,,,,repeat,letter,lettRpt,f,0.8303,Lo,,,,,,4,,,,,,,,low,8,0,8,0,1,,,,,,,,,
298216,2022-12-06_14h39.40.471,vts_reward_expectancy_bt,2022.2.4,Win32,60.04563468,Chrome,1536,864,,,,,0,1134,,,,,,,,,,,,,,,,,U,139,triangle,1,0,,,,,,,,,,,,,,,,repeat,letter,lettRpt,f,1.047,Hi,,,,,,4,,,,,,,,low,9,0,9,0,1,,,,,,,,,
298216,2022-12-06_14h39.40.471,vts_reward_expectancy_bt,2022.2.4,Win32,60.04563468,Chrome,1536,864,,,,,1,1135,,,,,,,,,,,,,,,,,B,167,circle,1,0,,,,,,,,,,,,,,,,repeat,letter,lettRpt,d,1.4825,Lo,,,,,,4,,,,,,,,low,10,0,10,0,1,,,,,,,,,
298216,2022-12-06_14h39.40.471,vts_reward_expectancy_bt,2022.2.4,Win32,60.04563468,Chrome,1536,864,,,,,0,1135,,,,,,,,,,,,,,,,,F,146,hexagon,-1,0,,,,,,,,,,,,,,,,switch,no_choice,NA,,,Lo,,,,,,4,,,,,,,,low,11,0,11,0,1,,,,,,,,,
298216,2022-12-06_14h39.40.471,vts_reward_expectancy_bt,2022.2.4,Win32,60.04563468,Chrome,1536,864,,,,,0,1135,,,,,,,,,,,,,,,,,S,132,hexagon,1,0,,,,,,,,,,,,,,,,switch,number,numSwt,j,0.6141,Hi,,,,,,4,,,,,,,,low,12,0,12,0,1,,,,,,,,,
298216,2022-12-06_14h39.40.471,vts_reward_expectancy_bt,2022.2.4,Win32,60.04563468,Chrome,1536,864,,,,,0,1135,,,,,,,,,,,,,,,,,W,160,circle,0,0,,,,,,,,,,,,,,,,repeat,number,NA,j,1.4635,Hi,,,,,,4,,,,,,,,low,13,0,13,0,1,,,,,,,,,
