participant,date,expName,psychopyVersion,OS,frameRate,browser,xResolution,yResolution,key_resp.keys,key_resp.rt,training_resp.keys,training_resp.rt,points_trial,points_cumul,trainBlock,training.thisRepN,training.thisTrialN,training.thisN,training.thisIndex,training.ran,LTriangleOpac,LCircleOpac,LHexagonOpac,LStarOpac,RTriangleOpac,RCircleOpac,RHexagonOpac,RStarOpac,LShape_ID,RShape_ID,curr_topStim,curr_bottStim,curr_shape,acc,E1,target_resp_prac1.keys,pracBlock,task1_prac_trials.thisRepN,task1_prac_trials.thisTrialN,task1_prac_trials.thisN,task1_prac_trials.thisIndex,task1_prac_trials.ran,target_resp_prac1.rt,target_resp_prac2.keys,target_resp_prac2.rt,task2_praac_trials.thisRepN,task2_praac_trials.thisTrialN,task2_praac_trials.thisN,task2_praac_trials.thisIndex,task2_praac_trials.ran,alt,task,condition,target_resp.keys,target_resp.rt,rewCond,vts_practice_trials.thisRepN,vts_practice_trials.thisTrialN,vts_practice_trials.thisN,vts_practice_trials.thisIndex,vts_practice_trials.ran,blockNum,trials_norew.thisRepN,trials_norew.thisTrialN,trials_norew.thisN,trials_norew.thisIndex,trials_norew.ran,key_resp_2.keys,key_resp_2.rt,rewExpectancy,trials_rew.thisRepN,trials_rew.thisTrialN,trials_rew.thisN,trials_rew.thisIndex,trials_rew.ran,Q1,Q2,Q2_text,Q3,Q4,Q5,Q5_text,xRes,yRes
298237,2022-11-21_11h40.54.277,vts_reward_expectancy_bt,2022.2.4,MacIntel,59.84082341,Chrome,1440,900,,,,,,,,,,,,,,,,,,,,,,,,,,,,,,,,,,,,,,,,,,,,,,,,,,,,,,,,,,,,,,,,,,,,,,,,,,,,
298237,2022-11-21_11h40.54.277,vts_reward_expectancy_bt,2022.2.4,MacIntel,59.84082341,Chrome,1440,900,space,14.7032,,,,,,,,,,,,,,,,,,,,,,,,,,,,,,,,,,,,,,,,,,,,,,,,,,,,,,,,,,,,,,,,,,,,,,,,,,
298237,2022-11-21_11h40.54.277,vts_reward_expectancy_bt,2022.2.4,MacIntel,59.84082341,Chrome,1440,900,,,,,,,,,,,,,,,,,,,,,,,,,,,,,,,,,,,,,,,,,,,,,,,,,,,,,,,,,,,,,,,,,,,,,,,,,,,,
298237,2022-11-21_11h40.54.277,vts_reward_expectancy_bt,2022.2.4,MacIntel,59.84082341,Chrome,1440,900,,,l,1.9546,1,1,0,0,0,0,1,1,1,0,0,0,0,0,1,0,triangle,hexagon,,,,,,,,,,,,,,,,,,,,,,,,,,,,,,,,,,,,,,,,,,,,,,,,,,,,,,
298237,2022-11-21_11h40.54.277,vts_reward_expectancy_bt,2022.2.4,MacIntel,59.84082341,Chrome,1440,900,,,a,1.4984,1,2,0,0,1,1,0,1,1,0,0,0,0,1,0,0,triangle,circle,,,,,,,,,,,,,,,,,,,,,,,,,,,,,,,,,,,,,,,,,,,,,,,,,,,,,,
298237,2022-11-21_11h40.54.277,vts_reward_expectancy_bt,2022.2.4,MacIntel,59.84082341,Chrome,1440,900,,,a,2.0523,10,12,0,0,2,2,8,1,0,0,1,0,0,0,0,1,hexagon,star,,,,,,,,,,,,,,,,,,,,,,,,,,,,,,,,,,,,,,,,,,,,,,,,,,,,,,
298237,2022-11-21_11h40.54.277,vts_reward_expectancy_bt,2022.2.4,MacIntel,59.84082341,Chrome,1440,900,,,a,1.5047,10,22,0,0,3,3,5,1,0,1,0,0,0,0,0,1,circle,star,,,,,,,,,,,,,,,,,,,,,,,,,,,,,,,,,,,,,,,,,,,,,,,,,,,,,,
298237,2022-11-21_11h40.54.277,vts_reward_expectancy_bt,2022.2.4,MacIntel,59.84082341,Chrome,1440,900,,,l,1.7207,10,32,0,0,4,4,11,1,0,0,0,1,0,0,1,0,star,hexagon,,,,,,,,,,,,,,,,,,,,,,,,,,,,,,,,,,,,,,,,,,,,,,,,,,,,,,
298237,2022-11-21_11h40.54.277,vts_reward_expectancy_bt,2022.2.4,MacIntel,59.84082341,Chrome,1440,900,,,l,1.2097,1,33,0,0,5,5,9,1,0,0,0,1,1,0,0,0,star,triangle,,,,,,,,,,,,,,,,,,,,,,,,,,,,,,,,,,,,,,,,,,,,,,,,,,,,,,
298237,2022-11-21_11h40.54.277,vts_reward_expectancy_bt,2022.2.4,MacIntel,59.84082341,Chrome,1440,900,,,a,1.5547,1,34,0,0,6,6,2,1,1,0,0,0,0,0,0,1,triangle,star,,,,,,,,,,,,,,,,,,,,,,,,,,,,,,,,,,,,,,,,,,,,,,,,,,,,,,
298237,2022-11-21_11h40.54.277,vts_reward_expectancy_bt,2022.2.4,MacIntel,59.84082341,Chrome,1440,900,,,a,1.0147,1,35,0,0,7,7,10,1,0,0,0,1,0,1,0,0,star ,circle,,,,,,,,,,,,,,,,,,,,,,,,,,,,,,,,,,,,,,,,,,,,,,,,,,,,,,
298237,2022-11-21_11h40.54.277,vts_reward_expectancy_bt,2022.2.4,MacIntel,59.84082341,Chrome,1440,900,,,a,1.7055,10,45,0,0,8,8,6,1,0,0,1,0,1,0,0,0,hexagon,triangle,,,,,,,,,,,,,,,,,,,,,,,,,,,,,,,,,,,,,,,,,,,,,,,,,,,,,,
298237,2022-11-21_11h40.54.277,vts_reward_expectancy_bt,2022.2.4,MacIntel,59.84082341,Chrome,1440,900,,,a,1.6713,10,55,0,0,9,9,7,1,0,0,1,0,0,1,0,0,hexagon,circle,,,,,,,,,,,,,,,,,,,,,,,,,,,,,,,,,,,,,,,,,,,,,,,,,,,,,,
298237,2022-11-21_11h40.54.277,vts_reward_expectancy_bt,2022.2.4,MacIntel,59.84082341,Chrome,1440,900,,,l,1.2369,1,56,0,0,10,10,4,1,0,1,0,0,0,0,1,0,circle,hexagon,,,,,,,,,,,,,,,,,,,,,,,,,,,,,,,,,,,,,,,,,,,,,,,,,,,,,,
298237,2022-11-21_11h40.54.277,vts_reward_expectancy_bt,2022.2.4,MacIntel,59.84082341,Chrome,1440,900,,,l,1.8072,1,57,0,0,11,11,3,1,0,1,0,0,1,0,0,0,circle,triangle,,,,,,,,,,,,,,,,,,,,,,,,,,,,,,,,,,,,,,,,,,,,,,,,,,,,,,
298237,2022-11-21_11h40.54.277,vts_reward_expectancy_bt,2022.2.4,MacIntel,59.84082341,Chrome,1440,900,,,a,0.6399,1,58,0,1,0,12,10,1,0,0,0,1,0,1,0,0,star ,circle,,,,,,,,,,,,,,,,,,,,,,,,,,,,,,,,,,,,,,,,,,,,,,,,,,,,,,
298237,2022-11-21_11h40.54.277,vts_reward_expectancy_bt,2022.2.4,MacIntel,59.84082341,Chrome,1440,900,,,a,1.0695,10,68,0,1,1,13,6,1,0,0,1,0,1,0,0,0,hexagon,triangle,,,,,,,,,,,,,,,,,,,,,,,,,,,,,,,,,,,,,,,,,,,,,,,,,,,,,,
298237,2022-11-21_11h40.54.277,vts_reward_expectancy_bt,2022.2.4,MacIntel,59.84082341,Chrome,1440,900,,,l,0.6741,10,78,0,1,2,14,2,1,1,0,0,0,0,0,0,1,triangle,star,,,,,,,,,,,,,,,,,,,,,,,,,,,,,,,,,,,,,,,,,,,,,,,,,,,,,,
298237,2022-11-21_11h40.54.277,vts_reward_expectancy_bt,2022.2.4,MacIntel,59.84082341,Chrome,1440,900,,,l,0.8677,10,88,0,1,3,15,0,1,1,0,0,0,0,1,0,0,triangle,circle,,,,,,,,,,,,,,,,,,,,,,,,,,,,,,,,,,,,,,,,,,,,,,,,,,,,,,
298237,2022-11-21_11h40.54.277,vts_reward_expectancy_bt,2022.2.4,MacIntel,59.84082341,Chrome,1440,900,,,a,0.8697,1,89,0,1,4,16,7,1,0,0,1,0,0,1,0,0,hexagon,circle,,,,,,,,,,,,,,,,,,,,,,,,,,,,,,,,,,,,,,,,,,,,,,,,,,,,,,
298237,2022-11-21_11h40.54.277,vts_reward_expectancy_bt,2022.2.4,MacIntel,59.84082341,Chrome,1440,900,,,l,0.5544,1,90,0,1,5,17,1,1,1,0,0,0,0,0,1,0,triangle,hexagon,,,,,,,,,,,,,,,,,,,,,,,,,,,,,,,,,,,,,,,,,,,,,,,,,,,,,,
298237,2022-11-21_11h40.54.277,vts_reward_expectancy_bt,2022.2.4,MacIntel,59.84082341,Chrome,1440,900,,,l,0.9192,1,91,0,1,6,18,8,1,0,0,1,0,0,0,0,1,hexagon,star,,,,,,,,,,,,,,,,,,,,,,,,,,,,,,,,,,,,,,,,,,,,,,,,,,,,,,
298237,2022-11-21_11h40.54.277,vts_reward_expectancy_bt,2022.2.4,MacIntel,59.84082341,Chrome,1440,900,,,l,1.001,1,92,0,1,7,19,5,1,0,1,0,0,0,0,0,1,circle,star,,,,,,,,,,,,,,,,,,,,,,,,,,,,,,,,,,,,,,,,,,,,,,,,,,,,,,
298237,2022-11-21_11h40.54.277,vts_reward_expectancy_bt,2022.2.4,MacIntel,59.84082341,Chrome,1440,900,,,a,0.4674,10,102,0,1,8,20,4,1,0,1,0,0,0,0,1,0,circle,hexagon,,,,,,,,,,,,,,,,,,,,,,,,,,,,,,,,,,,,,,,,,,,,,,,,,,,,,,
298237,2022-11-21_11h40.54.277,vts_reward_expectancy_bt,2022.2.4,MacIntel,59.84082341,Chrome,1440,900,,,a,0.9866,1,103,0,1,9,21,11,1,0,0,0,1,0,0,1,0,star,hexagon,,,,,,,,,,,,,,,,,,,,,,,,,,,,,,,,,,,,,,,,,,,,,,,,,,,,,,
298237,2022-11-21_11h40.54.277,vts_reward_expectancy_bt,2022.2.4,MacIntel,59.84082341,Chrome,1440,900,,,a,1.6923,10,113,0,1,10,22,3,1,0,1,0,0,1,0,0,0,circle,triangle,,,,,,,,,,,,,,,,,,,,,,,,,,,,,,,,,,,,,,,,,,,,,,,,,,,,,,
298237,2022-11-21_11h40.54.277,vts_reward_expectancy_bt,2022.2.4,MacIntel,59.84082341,Chrome,1440,900,,,a,1.8229,1,114,0,1,11,23,9,1,0,0,0,1,1,0,0,0,star,triangle,,,,,,,,,,,,,,,,,,,,,,,,,,,,,,,,,,,,,,,,,,,,,,,,,,,,,,
298237,2022-11-21_11h40.54.277,vts_reward_expectancy_bt,2022.2.4,MacIntel,59.84082341,Chrome,1440,900,,,l,1.4699,1,115,0,2,0,24,8,1,0,0,1,0,0,0,0,1,hexagon,star,,,,,,,,,,,,,,,,,,,,,,,,,,,,,,,,,,,,,,,,,,,,,,,,,,,,,,
298237,2022-11-21_11h40.54.277,vts_reward_expectancy_bt,2022.2.4,MacIntel,59.84082341,Chrome,1440,900,,,l,0.6686,1,116,0,2,1,25,0,1,1,0,0,0,0,1,0,0,triangle,circle,,,,,,,,,,,,,,,,,,,,,,,,,,,,,,,,,,,,,,,,,,,,,,,,,,,,,,
298237,2022-11-21_11h40.54.277,vts_reward_expectancy_bt,2022.2.4,MacIntel,59.84082341,Chrome,1440,900,,,l,1.2864,1,117,0,2,2,26,2,1,1,0,0,0,0,0,0,1,triangle,star,,,,,,,,,,,,,,,,,,,,,,,,,,,,,,,,,,,,,,,,,,,,,,,,,,,,,,
298237,2022-11-21_11h40.54.277,vts_reward_expectancy_bt,2022.2.4,MacIntel,59.84082341,Chrome,1440,900,,,a,1.0925,1,118,0,2,3,27,11,1,0,0,0,1,0,0,1,0,star,hexagon,,,,,,,,,,,,,,,,,,,,,,,,,,,,,,,,,,,,,,,,,,,,,,,,,,,,,,
298237,2022-11-21_11h40.54.277,vts_reward_expectancy_bt,2022.2.4,MacIntel,59.84082341,Chrome,1440,900,,,a,1.3604,1,119,0,2,4,28,9,1,0,0,0,1,1,0,0,0,star,triangle,,,,,,,,,,,,,,,,,,,,,,,,,,,,,,,,,,,,,,,,,,,,,,,,,,,,,,
298237,2022-11-21_11h40.54.277,vts_reward_expectancy_bt,2022.2.4,MacIntel,59.84082341,Chrome,1440,900,,,l,0.7009,10,129,0,2,5,29,7,1,0,0,1,0,0,1,0,0,hexagon,circle,,,,,,,,,,,,,,,,,,,,,,,,,,,,,,,,,,,,,,,,,,,,,,,,,,,,,,
298237,2022-11-21_11h40.54.277,vts_reward_expectancy_bt,2022.2.4,MacIntel,59.84082341,Chrome,1440,900,,,a,1.0203,1,130,0,2,6,30,1,1,1,0,0,0,0,0,1,0,triangle,hexagon,,,,,,,,,,,,,,,,,,,,,,,,,,,,,,,,,,,,,,,,,,,,,,,,,,,,,,
298237,2022-11-21_11h40.54.277,vts_reward_expectancy_bt,2022.2.4,MacIntel,59.84082341,Chrome,1440,900,,,l,0.6367,1,131,0,2,7,31,3,1,0,1,0,0,1,0,0,0,circle,triangle,,,,,,,,,,,,,,,,,,,,,,,,,,,,,,,,,,,,,,,,,,,,,,,,,,,,,,
298237,2022-11-21_11h40.54.277,vts_reward_expectancy_bt,2022.2.4,MacIntel,59.84082341,Chrome,1440,900,,,l,1.3201,1,132,0,2,8,32,6,1,0,0,1,0,1,0,0,0,hexagon,triangle,,,,,,,,,,,,,,,,,,,,,,,,,,,,,,,,,,,,,,,,,,,,,,,,,,,,,,
298237,2022-11-21_11h40.54.277,vts_reward_expectancy_bt,2022.2.4,MacIntel,59.84082341,Chrome,1440,900,,,l,1.0548,10,142,0,2,9,33,10,1,0,0,0,1,0,1,0,0,star ,circle,,,,,,,,,,,,,,,,,,,,,,,,,,,,,,,,,,,,,,,,,,,,,,,,,,,,,,
298237,2022-11-21_11h40.54.277,vts_reward_expectancy_bt,2022.2.4,MacIntel,59.84082341,Chrome,1440,900,,,a,1.8215,1,143,0,2,10,34,4,1,0,1,0,0,0,0,1,0,circle,hexagon,,,,,,,,,,,,,,,,,,,,,,,,,,,,,,,,,,,,,,,,,,,,,,,,,,,,,,
298237,2022-11-21_11h40.54.277,vts_reward_expectancy_bt,2022.2.4,MacIntel,59.84082341,Chrome,1440,900,,,l,0.5357,1,144,0,2,11,35,5,1,0,1,0,0,0,0,0,1,circle,star,,,,,,,,,,,,,,,,,,,,,,,,,,,,,,,,,,,,,,,,,,,,,,,,,,,,,,
298237,2022-11-21_11h40.54.277,vts_reward_expectancy_bt,2022.2.4,MacIntel,59.84082341,Chrome,1440,900,,,l,14.4444,10,154,1,0,0,0,7,1,0,0,1,0,0,1,0,0,hexagon,circle,,,,,,,,,,,,,,,,,,,,,,,,,,,,,,,,,,,,,,,,,,,,,,,,,,,,,,
298237,2022-11-21_11h40.54.277,vts_reward_expectancy_bt,2022.2.4,MacIntel,59.84082341,Chrome,1440,900,,,a,11.1956,10,164,1,0,1,1,5,1,0,1,0,0,0,0,0,1,circle,star,,,,,,,,,,,,,,,,,,,,,,,,,,,,,,,,,,,,,,,,,,,,,,,,,,,,,,
298237,2022-11-21_11h40.54.277,vts_reward_expectancy_bt,2022.2.4,MacIntel,59.84082341,Chrome,1440,900,,,l,8.4951,10,174,1,0,2,2,6,1,0,0,1,0,1,0,0,0,hexagon,triangle,,,,,,,,,,,,,,,,,,,,,,,,,,,,,,,,,,,,,,,,,,,,,,,,,,,,,,
298237,2022-11-21_11h40.54.277,vts_reward_expectancy_bt,2022.2.4,MacIntel,59.84082341,Chrome,1440,900,,,a,4.2125,10,184,1,0,3,3,4,1,0,1,0,0,0,0,1,0,circle,hexagon,,,,,,,,,,,,,,,,,,,,,,,,,,,,,,,,,,,,,,,,,,,,,,,,,,,,,,
298237,2022-11-21_11h40.54.277,vts_reward_expectancy_bt,2022.2.4,MacIntel,59.84082341,Chrome,1440,900,,,l,6.152,1,185,1,0,4,4,3,1,0,1,0,0,1,0,0,0,circle,triangle,,,,,,,,,,,,,,,,,,,,,,,,,,,,,,,,,,,,,,,,,,,,,,,,,,,,,,
298237,2022-11-21_11h40.54.277,vts_reward_expectancy_bt,2022.2.4,MacIntel,59.84082341,Chrome,1440,900,,,a,13.8374,10,195,1,0,5,5,11,1,0,0,0,1,0,0,1,0,star,hexagon,,,,,,,,,,,,,,,,,,,,,,,,,,,,,,,,,,,,,,,,,,,,,,,,,,,,,,
298237,2022-11-21_11h40.54.277,vts_reward_expectancy_bt,2022.2.4,MacIntel,59.84082341,Chrome,1440,900,,,l,3.5093,10,205,1,0,6,6,0,1,1,0,0,0,0,1,0,0,triangle,circle,,,,,,,,,,,,,,,,,,,,,,,,,,,,,,,,,,,,,,,,,,,,,,,,,,,,,,
298237,2022-11-21_11h40.54.277,vts_reward_expectancy_bt,2022.2.4,MacIntel,59.84082341,Chrome,1440,900,,,l,6.0175,1,206,1,0,7,7,8,1,0,0,1,0,0,0,0,1,hexagon,star,,,,,,,,,,,,,,,,,,,,,,,,,,,,,,,,,,,,,,,,,,,,,,,,,,,,,,
298237,2022-11-21_11h40.54.277,vts_reward_expectancy_bt,2022.2.4,MacIntel,59.84082341,Chrome,1440,900,,,a,4.5776,1,207,1,0,8,8,1,1,1,0,0,0,0,0,1,0,triangle,hexagon,,,,,,,,,,,,,,,,,,,,,,,,,,,,,,,,,,,,,,,,,,,,,,,,,,,,,,
298237,2022-11-21_11h40.54.277,vts_reward_expectancy_bt,2022.2.4,MacIntel,59.84082341,Chrome,1440,900,,,l,4.8128,10,217,1,0,9,9,10,1,0,0,0,1,0,1,0,0,star ,circle,,,,,,,,,,,,,,,,,,,,,,,,,,,,,,,,,,,,,,,,,,,,,,,,,,,,,,
298237,2022-11-21_11h40.54.277,vts_reward_expectancy_bt,2022.2.4,MacIntel,59.84082341,Chrome,1440,900,,,l,8.4998,1,218,1,0,10,10,9,1,0,0,0,1,1,0,0,0,star,triangle,,,,,,,,,,,,,,,,,,,,,,,,,,,,,,,,,,,,,,,,,,,,,,,,,,,,,,
298237,2022-11-21_11h40.54.277,vts_reward_expectancy_bt,2022.2.4,MacIntel,59.84082341,Chrome,1440,900,,,l,7.5095,1,219,1,0,11,11,2,1,1,0,0,0,0,0,0,1,triangle,star,,,,,,,,,,,,,,,,,,,,,,,,,,,,,,,,,,,,,,,,,,,,,,,,,,,,,,
298237,2022-11-21_11h40.54.277,vts_reward_expectancy_bt,2022.2.4,MacIntel,59.84082341,Chrome,1440,900,,,l,6.7856,10,229,1,1,0,12,0,1,1,0,0,0,0,1,0,0,triangle,circle,,,,,,,,,,,,,,,,,,,,,,,,,,,,,,,,,,,,,,,,,,,,,,,,,,,,,,
298237,2022-11-21_11h40.54.277,vts_reward_expectancy_bt,2022.2.4,MacIntel,59.84082341,Chrome,1440,900,,,l,9.2841,1,230,1,1,1,13,6,1,0,0,1,0,1,0,0,0,hexagon,triangle,,,,,,,,,,,,,,,,,,,,,,,,,,,,,,,,,,,,,,,,,,,,,,,,,,,,,,
298237,2022-11-21_11h40.54.277,vts_reward_expectancy_bt,2022.2.4,MacIntel,59.84082341,Chrome,1440,900,,,a,10.1443,1,231,1,1,2,14,10,1,0,0,0,1,0,1,0,0,star ,circle,,,,,,,,,,,,,,,,,,,,,,,,,,,,,,,,,,,,,,,,,,,,,,,,,,,,,,
298237,2022-11-21_11h40.54.277,vts_reward_expectancy_bt,2022.2.4,MacIntel,59.84082341,Chrome,1440,900,,,a,9.4813,10,241,1,1,3,15,2,1,1,0,0,0,0,0,0,1,triangle,star,,,,,,,,,,,,,,,,,,,,,,,,,,,,,,,,,,,,,,,,,,,,,,,,,,,,,,
298237,2022-11-21_11h40.54.277,vts_reward_expectancy_bt,2022.2.4,MacIntel,59.84082341,Chrome,1440,900,,,l,3.9141,10,251,1,1,4,16,7,1,0,0,1,0,0,1,0,0,hexagon,circle,,,,,,,,,,,,,,,,,,,,,,,,,,,,,,,,,,,,,,,,,,,,,,,,,,,,,,
298237,2022-11-21_11h40.54.277,vts_reward_expectancy_bt,2022.2.4,MacIntel,59.84082341,Chrome,1440,900,,,a,3.8948,10,261,1,1,5,17,5,1,0,1,0,0,0,0,0,1,circle,star,,,,,,,,,,,,,,,,,,,,,,,,,,,,,,,,,,,,,,,,,,,,,,,,,,,,,,
298237,2022-11-21_11h40.54.277,vts_reward_expectancy_bt,2022.2.4,MacIntel,59.84082341,Chrome,1440,900,,,a,1.2209,1,262,1,1,6,18,11,1,0,0,0,1,0,0,1,0,star,hexagon,,,,,,,,,,,,,,,,,,,,,,,,,,,,,,,,,,,,,,,,,,,,,,,,,,,,,,
298237,2022-11-21_11h40.54.277,vts_reward_expectancy_bt,2022.2.4,MacIntel,59.84082341,Chrome,1440,900,,,l,6.2694,1,263,1,1,7,19,8,1,0,0,1,0,0,0,0,1,hexagon,star,,,,,,,,,,,,,,,,,,,,,,,,,,,,,,,,,,,,,,,,,,,,,,,,,,,,,,
298237,2022-11-21_11h40.54.277,vts_reward_expectancy_bt,2022.2.4,MacIntel,59.84082341,Chrome,1440,900,,,a,3.862,1,264,1,1,8,20,9,1,0,0,0,1,1,0,0,0,star,triangle,,,,,,,,,,,,,,,,,,,,,,,,,,,,,,,,,,,,,,,,,,,,,,,,,,,,,,
298237,2022-11-21_11h40.54.277,vts_reward_expectancy_bt,2022.2.4,MacIntel,59.84082341,Chrome,1440,900,,,a,2.5072,1,265,1,1,9,21,4,1,0,1,0,0,0,0,1,0,circle,hexagon,,,,,,,,,,,,,,,,,,,,,,,,,,,,,,,,,,,,,,,,,,,,,,,,,,,,,,
298237,2022-11-21_11h40.54.277,vts_reward_expectancy_bt,2022.2.4,MacIntel,59.84082341,Chrome,1440,900,,,l,5.4332,10,275,1,1,10,22,1,1,1,0,0,0,0,0,1,0,triangle,hexagon,,,,,,,,,,,,,,,,,,,,,,,,,,,,,,,,,,,,,,,,,,,,,,,,,,,,,,
298237,2022-11-21_11h40.54.277,vts_reward_expectancy_bt,2022.2.4,MacIntel,59.84082341,Chrome,1440,900,,,a,2.5482,10,285,1,1,11,23,3,1,0,1,0,0,1,0,0,0,circle,triangle,,,,,,,,,,,,,,,,,,,,,,,,,,,,,,,,,,,,,,,,,,,,,,,,,,,,,,
298237,2022-11-21_11h40.54.277,vts_reward_expectancy_bt,2022.2.4,MacIntel,59.84082341,Chrome,1440,900,,,a,2.4071,1,286,1,2,0,24,11,1,0,0,0,1,0,0,1,0,star,hexagon,,,,,,,,,,,,,,,,,,,,,,,,,,,,,,,,,,,,,,,,,,,,,,,,,,,,,,
298237,2022-11-21_11h40.54.277,vts_reward_expectancy_bt,2022.2.4,MacIntel,59.84082341,Chrome,1440,900,,,l,6.1718,10,296,1,2,1,25,0,1,1,0,0,0,0,1,0,0,triangle,circle,,,,,,,,,,,,,,,,,,,,,,,,,,,,,,,,,,,,,,,,,,,,,,,,,,,,,,
298237,2022-11-21_11h40.54.277,vts_reward_expectancy_bt,2022.2.4,MacIntel,59.84082341,Chrome,1440,900,,,a,2.46,1,297,1,2,2,26,3,1,0,1,0,0,1,0,0,0,circle,triangle,,,,,,,,,,,,,,,,,,,,,,,,,,,,,,,,,,,,,,,,,,,,,,,,,,,,,,
298237,2022-11-21_11h40.54.277,vts_reward_expectancy_bt,2022.2.4,MacIntel,59.84082341,Chrome,1440,900,,,a,3.1118,1,298,1,2,3,27,4,1,0,1,0,0,0,0,1,0,circle,hexagon,,,,,,,,,,,,,,,,,,,,,,,,,,,,,,,,,,,,,,,,,,,,,,,,,,,,,,
298237,2022-11-21_11h40.54.277,vts_reward_expectancy_bt,2022.2.4,MacIntel,59.84082341,Chrome,1440,900,,,l,4.3945,1,299,1,2,4,28,8,1,0,0,1,0,0,0,0,1,hexagon,star,,,,,,,,,,,,,,,,,,,,,,,,,,,,,,,,,,,,,,,,,,,,,,,,,,,,,,
298237,2022-11-21_11h40.54.277,vts_reward_expectancy_bt,2022.2.4,MacIntel,59.84082341,Chrome,1440,900,,,l,2.9725,1,300,1,2,5,29,9,1,0,0,0,1,1,0,0,0,star,triangle,,,,,,,,,,,,,,,,,,,,,,,,,,,,,,,,,,,,,,,,,,,,,,,,,,,,,,
298237,2022-11-21_11h40.54.277,vts_reward_expectancy_bt,2022.2.4,MacIntel,59.84082341,Chrome,1440,900,,,l,5.652,10,310,1,2,6,30,7,1,0,0,1,0,0,1,0,0,hexagon,circle,,,,,,,,,,,,,,,,,,,,,,,,,,,,,,,,,,,,,,,,,,,,,,,,,,,,,,
298237,2022-11-21_11h40.54.277,vts_reward_expectancy_bt,2022.2.4,MacIntel,59.84082341,Chrome,1440,900,,,l,3.5097,1,311,1,2,7,31,6,1,0,0,1,0,1,0,0,0,hexagon,triangle,,,,,,,,,,,,,,,,,,,,,,,,,,,,,,,,,,,,,,,,,,,,,,,,,,,,,,
298237,2022-11-21_11h40.54.277,vts_reward_expectancy_bt,2022.2.4,MacIntel,59.84082341,Chrome,1440,900,,,l,3.4604,10,321,1,2,8,32,2,1,1,0,0,0,0,0,0,1,triangle,star,,,,,,,,,,,,,,,,,,,,,,,,,,,,,,,,,,,,,,,,,,,,,,,,,,,,,,
298237,2022-11-21_11h40.54.277,vts_reward_expectancy_bt,2022.2.4,MacIntel,59.84082341,Chrome,1440,900,,,a,4.2309,10,331,1,2,9,33,5,1,0,1,0,0,0,0,0,1,circle,star,,,,,,,,,,,,,,,,,,,,,,,,,,,,,,,,,,,,,,,,,,,,,,,,,,,,,,
298237,2022-11-21_11h40.54.277,vts_reward_expectancy_bt,2022.2.4,MacIntel,59.84082341,Chrome,1440,900,,,a,1.6666,10,341,1,2,10,34,10,1,0,0,0,1,0,1,0,0,star ,circle,,,,,,,,,,,,,,,,,,,,,,,,,,,,,,,,,,,,,,,,,,,,,,,,,,,,,,
298237,2022-11-21_11h40.54.277,vts_reward_expectancy_bt,2022.2.4,MacIntel,59.84082341,Chrome,1440,900,,,a,4.2338,1,342,1,2,11,35,1,1,1,0,0,0,0,0,1,0,triangle,hexagon,,,,,,,,,,,,,,,,,,,,,,,,,,,,,,,,,,,,,,,,,,,,,,,,,,,,,,
298237,2022-11-21_11h40.54.277,vts_reward_expectancy_bt,2022.2.4,MacIntel,59.84082341,Chrome,1440,900,,,a,11.5362,1,343,2,0,0,0,10,1,0,0,0,1,0,1,0,0,star ,circle,,,,,,,,,,,,,,,,,,,,,,,,,,,,,,,,,,,,,,,,,,,,,,,,,,,,,,
298237,2022-11-21_11h40.54.277,vts_reward_expectancy_bt,2022.2.4,MacIntel,59.84082341,Chrome,1440,900,,,a,12.238,10,353,2,0,1,1,1,1,1,0,0,0,0,0,1,0,triangle,hexagon,,,,,,,,,,,,,,,,,,,,,,,,,,,,,,,,,,,,,,,,,,,,,,,,,,,,,,
298237,2022-11-21_11h40.54.277,vts_reward_expectancy_bt,2022.2.4,MacIntel,59.84082341,Chrome,1440,900,,,a,6.4855,1,354,2,0,2,2,9,1,0,0,0,1,1,0,0,0,star,triangle,,,,,,,,,,,,,,,,,,,,,,,,,,,,,,,,,,,,,,,,,,,,,,,,,,,,,,
298237,2022-11-21_11h40.54.277,vts_reward_expectancy_bt,2022.2.4,MacIntel,59.84082341,Chrome,1440,900,,,l,11.2309,10,364,2,0,3,3,11,1,0,0,0,1,0,0,1,0,star,hexagon,,,,,,,,,,,,,,,,,,,,,,,,,,,,,,,,,,,,,,,,,,,,,,,,,,,,,,
298237,2022-11-21_11h40.54.277,vts_reward_expectancy_bt,2022.2.4,MacIntel,59.84082341,Chrome,1440,900,,,a,5.8328,1,365,2,0,4,4,5,1,0,1,0,0,0,0,0,1,circle,star,,,,,,,,,,,,,,,,,,,,,,,,,,,,,,,,,,,,,,,,,,,,,,,,,,,,,,
298237,2022-11-21_11h40.54.277,vts_reward_expectancy_bt,2022.2.4,MacIntel,59.84082341,Chrome,1440,900,,,a,11.0299,10,375,2,0,5,5,3,1,0,1,0,0,1,0,0,0,circle,triangle,,,,,,,,,,,,,,,,,,,,,,,,,,,,,,,,,,,,,,,,,,,,,,,,,,,,,,
298237,2022-11-21_11h40.54.277,vts_reward_expectancy_bt,2022.2.4,MacIntel,59.84082341,Chrome,1440,900,,,l,7.7727,10,385,2,0,6,6,0,1,1,0,0,0,0,1,0,0,triangle,circle,,,,,,,,,,,,,,,,,,,,,,,,,,,,,,,,,,,,,,,,,,,,,,,,,,,,,,
298237,2022-11-21_11h40.54.277,vts_reward_expectancy_bt,2022.2.4,MacIntel,59.84082341,Chrome,1440,900,,,l,12.4883,1,386,2,0,7,7,8,1,0,0,1,0,0,0,0,1,hexagon,star,,,,,,,,,,,,,,,,,,,,,,,,,,,,,,,,,,,,,,,,,,,,,,,,,,,,,,
298237,2022-11-21_11h40.54.277,vts_reward_expectancy_bt,2022.2.4,MacIntel,59.84082341,Chrome,1440,900,,,a,10.2949,10,396,2,0,8,8,4,1,0,1,0,0,0,0,1,0,circle,hexagon,,,,,,,,,,,,,,,,,,,,,,,,,,,,,,,,,,,,,,,,,,,,,,,,,,,,,,
298237,2022-11-21_11h40.54.277,vts_reward_expectancy_bt,2022.2.4,MacIntel,59.84082341,Chrome,1440,900,,,l,5.7178,10,406,2,0,9,9,7,1,0,0,1,0,0,1,0,0,hexagon,circle,,,,,,,,,,,,,,,,,,,,,,,,,,,,,,,,,,,,,,,,,,,,,,,,,,,,,,
298237,2022-11-21_11h40.54.277,vts_reward_expectancy_bt,2022.2.4,MacIntel,59.84082341,Chrome,1440,900,,,a,13.5704,10,416,2,0,10,10,2,1,1,0,0,0,0,0,0,1,triangle,star,,,,,,,,,,,,,,,,,,,,,,,,,,,,,,,,,,,,,,,,,,,,,,,,,,,,,,
298237,2022-11-21_11h40.54.277,vts_reward_expectancy_bt,2022.2.4,MacIntel,59.84082341,Chrome,1440,900,,,l,14.7618,10,426,2,0,11,11,6,1,0,0,1,0,1,0,0,0,hexagon,triangle,,,,,,,,,,,,,,,,,,,,,,,,,,,,,,,,,,,,,,,,,,,,,,,,,,,,,,
298237,2022-11-21_11h40.54.277,vts_reward_expectancy_bt,2022.2.4,MacIntel,59.84082341,Chrome,1440,900,,,a,8.329,1,427,2,1,0,12,9,1,0,0,0,1,1,0,0,0,star,triangle,,,,,,,,,,,,,,,,,,,,,,,,,,,,,,,,,,,,,,,,,,,,,,,,,,,,,,
298237,2022-11-21_11h40.54.277,vts_reward_expectancy_bt,2022.2.4,MacIntel,59.84082341,Chrome,1440,900,,,l,11.481,10,437,2,1,1,13,1,1,1,0,0,0,0,0,1,0,triangle,hexagon,,,,,,,,,,,,,,,,,,,,,,,,,,,,,,,,,,,,,,,,,,,,,,,,,,,,,,
298237,2022-11-21_11h40.54.277,vts_reward_expectancy_bt,2022.2.4,MacIntel,59.84082341,Chrome,1440,900,,,l,4.6336,1,438,2,1,2,14,6,1,0,0,1,0,1,0,0,0,hexagon,triangle,,,,,,,,,,,,,,,,,,,,,,,,,,,,,,,,,,,,,,,,,,,,,,,,,,,,,,
298237,2022-11-21_11h40.54.277,vts_reward_expectancy_bt,2022.2.4,MacIntel,59.84082341,Chrome,1440,900,,,l,5.3034,10,448,2,1,3,15,10,1,0,0,0,1,0,1,0,0,star ,circle,,,,,,,,,,,,,,,,,,,,,,,,,,,,,,,,,,,,,,,,,,,,,,,,,,,,,,
298237,2022-11-21_11h40.54.277,vts_reward_expectancy_bt,2022.2.4,MacIntel,59.84082341,Chrome,1440,900,,,a,4.3462,10,458,2,1,4,16,2,1,1,0,0,0,0,0,0,1,triangle,star,,,,,,,,,,,,,,,,,,,,,,,,,,,,,,,,,,,,,,,,,,,,,,,,,,,,,,
298237,2022-11-21_11h40.54.277,vts_reward_expectancy_bt,2022.2.4,MacIntel,59.84082341,Chrome,1440,900,,,a,5.199,10,468,2,1,5,17,4,1,0,1,0,0,0,0,1,0,circle,hexagon,,,,,,,,,,,,,,,,,,,,,,,,,,,,,,,,,,,,,,,,,,,,,,,,,,,,,,
298237,2022-11-21_11h40.54.277,vts_reward_expectancy_bt,2022.2.4,MacIntel,59.84082341,Chrome,1440,900,,,l,7.126,10,478,2,1,6,18,11,1,0,0,0,1,0,0,1,0,star,hexagon,,,,,,,,,,,,,,,,,,,,,,,,,,,,,,,,,,,,,,,,,,,,,,,,,,,,,,
298237,2022-11-21_11h40.54.277,vts_reward_expectancy_bt,2022.2.4,MacIntel,59.84082341,Chrome,1440,900,,,a,5.8517,10,488,2,1,7,19,8,1,0,0,1,0,0,0,0,1,hexagon,star,,,,,,,,,,,,,,,,,,,,,,,,,,,,,,,,,,,,,,,,,,,,,,,,,,,,,,
298237,2022-11-21_11h40.54.277,vts_reward_expectancy_bt,2022.2.4,MacIntel,59.84082341,Chrome,1440,900,,,l,5.5166,1,489,2,1,8,20,7,1,0,0,1,0,0,1,0,0,hexagon,circle,,,,,,,,,,,,,,,,,,,,,,,,,,,,,,,,,,,,,,,,,,,,,,,,,,,,,,
298237,2022-11-21_11h40.54.277,vts_reward_expectancy_bt,2022.2.4,MacIntel,59.84082341,Chrome,1440,900,,,l,7.6726,10,499,2,1,9,21,0,1,1,0,0,0,0,1,0,0,triangle,circle,,,,,,,,,,,,,,,,,,,,,,,,,,,,,,,,,,,,,,,,,,,,,,,,,,,,,,
298237,2022-11-21_11h40.54.277,vts_reward_expectancy_bt,2022.2.4,MacIntel,59.84082341,Chrome,1440,900,,,a,6.8024,10,509,2,1,10,22,5,1,0,1,0,0,0,0,0,1,circle,star,,,,,,,,,,,,,,,,,,,,,,,,,,,,,,,,,,,,,,,,,,,,,,,,,,,,,,
298237,2022-11-21_11h40.54.277,vts_reward_expectancy_bt,2022.2.4,MacIntel,59.84082341,Chrome,1440,900,,,a,6.8547,1,510,2,1,11,23,3,1,0,1,0,0,1,0,0,0,circle,triangle,,,,,,,,,,,,,,,,,,,,,,,,,,,,,,,,,,,,,,,,,,,,,,,,,,,,,,
298237,2022-11-21_11h40.54.277,vts_reward_expectancy_bt,2022.2.4,MacIntel,59.84082341,Chrome,1440,900,,,l,3.5436,1,511,2,2,0,24,6,1,0,0,1,0,1,0,0,0,hexagon,triangle,,,,,,,,,,,,,,,,,,,,,,,,,,,,,,,,,,,,,,,,,,,,,,,,,,,,,,
298237,2022-11-21_11h40.54.277,vts_reward_expectancy_bt,2022.2.4,MacIntel,59.84082341,Chrome,1440,900,,,l,2.3037,10,521,2,2,1,25,1,1,1,0,0,0,0,0,1,0,triangle,hexagon,,,,,,,,,,,,,,,,,,,,,,,,,,,,,,,,,,,,,,,,,,,,,,,,,,,,,,
298237,2022-11-21_11h40.54.277,vts_reward_expectancy_bt,2022.2.4,MacIntel,59.84082341,Chrome,1440,900,,,l,20.7734,1,522,2,2,2,26,9,1,0,0,0,1,1,0,0,0,star,triangle,,,,,,,,,,,,,,,,,,,,,,,,,,,,,,,,,,,,,,,,,,,,,,,,,,,,,,
298237,2022-11-21_11h40.54.277,vts_reward_expectancy_bt,2022.2.4,MacIntel,59.84082341,Chrome,1440,900,,,l,5.6967,10,532,2,2,3,27,11,1,0,0,0,1,0,0,1,0,star,hexagon,,,,,,,,,,,,,,,,,,,,,,,,,,,,,,,,,,,,,,,,,,,,,,,,,,,,,,
298237,2022-11-21_11h40.54.277,vts_reward_expectancy_bt,2022.2.4,MacIntel,59.84082341,Chrome,1440,900,,,a,5.4995,1,533,2,2,4,28,5,1,0,1,0,0,0,0,0,1,circle,star,,,,,,,,,,,,,,,,,,,,,,,,,,,,,,,,,,,,,,,,,,,,,,,,,,,,,,
298237,2022-11-21_11h40.54.277,vts_reward_expectancy_bt,2022.2.4,MacIntel,59.84082341,Chrome,1440,900,,,a,15.9777,10,543,2,2,5,29,3,1,0,1,0,0,1,0,0,0,circle,triangle,,,,,,,,,,,,,,,,,,,,,,,,,,,,,,,,,,,,,,,,,,,,,,,,,,,,,,
298237,2022-11-21_11h40.54.277,vts_reward_expectancy_bt,2022.2.4,MacIntel,59.84082341,Chrome,1440,900,,,l,6.956,10,553,2,2,6,30,7,1,0,0,1,0,0,1,0,0,hexagon,circle,,,,,,,,,,,,,,,,,,,,,,,,,,,,,,,,,,,,,,,,,,,,,,,,,,,,,,
298237,2022-11-21_11h40.54.277,vts_reward_expectancy_bt,2022.2.4,MacIntel,59.84082341,Chrome,1440,900,,,a,7.4739,10,563,2,2,7,31,8,1,0,0,1,0,0,0,0,1,hexagon,star,,,,,,,,,,,,,,,,,,,,,,,,,,,,,,,,,,,,,,,,,,,,,,,,,,,,,,
298237,2022-11-21_11h40.54.277,vts_reward_expectancy_bt,2022.2.4,MacIntel,59.84082341,Chrome,1440,900,,,a,3.5292,10,573,2,2,8,32,4,1,0,1,0,0,0,0,1,0,circle,hexagon,,,,,,,,,,,,,,,,,,,,,,,,,,,,,,,,,,,,,,,,,,,,,,,,,,,,,,
298237,2022-11-21_11h40.54.277,vts_reward_expectancy_bt,2022.2.4,MacIntel,59.84082341,Chrome,1440,900,,,l,4.1486,1,574,2,2,9,33,0,1,1,0,0,0,0,1,0,0,triangle,circle,,,,,,,,,,,,,,,,,,,,,,,,,,,,,,,,,,,,,,,,,,,,,,,,,,,,,,
298237,2022-11-21_11h40.54.277,vts_reward_expectancy_bt,2022.2.4,MacIntel,59.84082341,Chrome,1440,900,,,l,10.0828,10,584,2,2,10,34,10,1,0,0,0,1,0,1,0,0,star ,circle,,,,,,,,,,,,,,,,,,,,,,,,,,,,,,,,,,,,,,,,,,,,,,,,,,,,,,
298237,2022-11-21_11h40.54.277,vts_reward_expectancy_bt,2022.2.4,MacIntel,59.84082341,Chrome,1440,900,,,a,4.8484,1,585,2,2,11,35,2,1,1,0,0,0,0,0,0,1,triangle,star,,,,,,,,,,,,,,,,,,,,,,,,,,,,,,,,,,,,,,,,,,,,,,,,,,,,,,
298237,2022-11-21_11h40.54.277,vts_reward_expectancy_bt,2022.2.4,MacIntel,59.84082341,Chrome,1440,900,,,,,,,,,,,,,,,,,,,,,,,125,H,hexagon,0,0,,0,0,0,0,0,1,,,,,,,,,,,,,,,,,,,,,,,,,,,,,,,,,,,,,,,,,,
298237,2022-11-21_11h40.54.277,vts_reward_expectancy_bt,2022.2.4,MacIntel,59.84082341,Chrome,1440,900,,,,,,,,,,,,,,,,,,,,,,,139,Y,circle,1,1,d,0,1,0,1,0,1,2.1719,,,,,,,,,,,,,,,,,,,,,,,,,,,,,,,,,,,,,,,,,
298237,2022-11-21_11h40.54.277,vts_reward_expectancy_bt,2022.2.4,MacIntel,59.84082341,Chrome,1440,900,,,,,,,,,,,,,,,,,,,,,,,160,U,star,1,0,f,0,2,0,2,0,1,0.9513,,,,,,,,,,,,,,,,,,,,,,,,,,,,,,,,,,,,,,,,,
298237,2022-11-21_11h40.54.277,vts_reward_expectancy_bt,2022.2.4,MacIntel,59.84082341,Chrome,1440,900,,,,,,,,,,,,,,,,,,,,,,,181,W,triangle,1,0,f,0,3,0,3,0,1,1.0395,,,,,,,,,,,,,,,,,,,,,,,,,,,,,,,,,,,,,,,,,
298237,2022-11-21_11h40.54.277,vts_reward_expectancy_bt,2022.2.4,MacIntel,59.84082341,Chrome,1440,900,,,,,,,,,,,,,,,,,,,,,,,146,S,hexagon,1,0,d,0,4,0,4,0,1,0.683,,,,,,,,,,,,,,,,,,,,,,,,,,,,,,,,,,,,,,,,,
298237,2022-11-21_11h40.54.277,vts_reward_expectancy_bt,2022.2.4,MacIntel,59.84082341,Chrome,1440,900,,,,,,,,,,,,,,,,,,,,,,,132,F,circle,1,0,d,0,5,0,5,0,1,0.7832,,,,,,,,,,,,,,,,,,,,,,,,,,,,,,,,,,,,,,,,,
298237,2022-11-21_11h40.54.277,vts_reward_expectancy_bt,2022.2.4,MacIntel,59.84082341,Chrome,1440,900,,,,,,,,,,,,,,,,,,,,,,,167,D,star,1,0,f,0,6,0,6,0,1,1.0408,,,,,,,,,,,,,,,,,,,,,,,,,,,,,,,,,,,,,,,,,
298237,2022-11-21_11h40.54.277,vts_reward_expectancy_bt,2022.2.4,MacIntel,59.84082341,Chrome,1440,900,,,,,,,,,,,,,,,,,,,,,,,174,B,triangle,1,0,f,0,7,0,7,0,1,0.688,,,,,,,,,,,,,,,,,,,,,,,,,,,,,,,,,,,,,,,,,
298237,2022-11-21_11h40.54.277,vts_reward_expectancy_bt,2022.2.4,MacIntel,59.84082341,Chrome,1440,900,,,,,,,,,,,,,,,,,,,,,,,125,H,circle,1,0,d,0,8,0,8,0,1,0.7184,,,,,,,,,,,,,,,,,,,,,,,,,,,,,,,,,,,,,,,,,
298237,2022-11-21_11h40.54.277,vts_reward_expectancy_bt,2022.2.4,MacIntel,59.84082341,Chrome,1440,900,,,,,,,,,,,,,,,,,,,,,,,139,Y,triangle,1,0,d,0,9,0,9,0,1,0.989,,,,,,,,,,,,,,,,,,,,,,,,,,,,,,,,,,,,,,,,,
298237,2022-11-21_11h40.54.277,vts_reward_expectancy_bt,2022.2.4,MacIntel,59.84082341,Chrome,1440,900,,,,,,,,,,,,,,,,,,,,,,,174,S,star,1,0,,1,,,,,,,k,1.5345,0,0,0,0,1,,,,,,,,,,,,,,,,,,,,,,,,,,,,,,,,,,
298237,2022-11-21_11h40.54.277,vts_reward_expectancy_bt,2022.2.4,MacIntel,59.84082341,Chrome,1440,900,,,,,,,,,,,,,,,,,,,,,,,160,H,circle,1,0,,1,,,,,,,j,0.8892,1,0,1,0,1,,,,,,,,,,,,,,,,,,,,,,,,,,,,,,,,,,
298237,2022-11-21_11h40.54.277,vts_reward_expectancy_bt,2022.2.4,MacIntel,59.84082341,Chrome,1440,900,,,,,,,,,,,,,,,,,,,,,,,167,W,triangle,1,0,,1,,,,,,,k,0.7339,2,0,2,0,1,,,,,,,,,,,,,,,,,,,,,,,,,,,,,,,,,,
298237,2022-11-21_11h40.54.277,vts_reward_expectancy_bt,2022.2.4,MacIntel,59.84082341,Chrome,1440,900,,,,,,,,,,,,,,,,,,,,,,,125,F,hexagon,1,0,,1,,,,,,,j,0.9324,3,0,3,0,1,,,,,,,,,,,,,,,,,,,,,,,,,,,,,,,,,,
298237,2022-11-21_11h40.54.277,vts_reward_expectancy_bt,2022.2.4,MacIntel,59.84082341,Chrome,1440,900,,,,,,,,,,,,,,,,,,,,,,,146,D,star,1,0,,1,,,,,,,j,0.6706,4,0,4,0,1,,,,,,,,,,,,,,,,,,,,,,,,,,,,,,,,,,
298237,2022-11-21_11h40.54.277,vts_reward_expectancy_bt,2022.2.4,MacIntel,59.84082341,Chrome,1440,900,,,,,,,,,,,,,,,,,,,,,,,139,Y,circle,1,0,,1,,,,,,,k,0.5557,5,0,5,0,1,,,,,,,,,,,,,,,,,,,,,,,,,,,,,,,,,,
298237,2022-11-21_11h40.54.277,vts_reward_expectancy_bt,2022.2.4,MacIntel,59.84082341,Chrome,1440,900,,,,,,,,,,,,,,,,,,,,,,,132,B,triangle,1,0,,1,,,,,,,j,0.5542,6,0,6,0,1,,,,,,,,,,,,,,,,,,,,,,,,,,,,,,,,,,
298237,2022-11-21_11h40.54.277,vts_reward_expectancy_bt,2022.2.4,MacIntel,59.84082341,Chrome,1440,900,,,,,,,,,,,,,,,,,,,,,,,181,U,hexagon,1,0,,1,,,,,,,k,0.6398,7,0,7,0,1,,,,,,,,,,,,,,,,,,,,,,,,,,,,,,,,,,
298237,2022-11-21_11h40.54.277,vts_reward_expectancy_bt,2022.2.4,MacIntel,59.84082341,Chrome,1440,900,,,,,,,,,,,,,,,,,,,,,,,174,S,star,1,0,,1,,,,,,,k,0.8691,8,0,8,0,1,,,,,,,,,,,,,,,,,,,,,,,,,,,,,,,,,,
298237,2022-11-21_11h40.54.277,vts_reward_expectancy_bt,2022.2.4,MacIntel,59.84082341,Chrome,1440,900,,,,,,,,,,,,,,,,,,,,,,,160,H,triangle,1,0,,1,,,,,,,j,0.6888,9,0,9,0,1,,,,,,,,,,,,,,,,,,,,,,,,,,,,,,,,,,
298237,2022-11-21_11h40.54.277,vts_reward_expectancy_bt,2022.2.4,MacIntel,59.84082341,Chrome,1440,900,,,,,0,585,,,,,,,,,,,,,,,,,132,F,hexagon,1,0,,2,,,,,,,,,,,,,,-1,number,NA,d,1.0901,vtsPrac,0,0,0,0,1,,,,,,,,,,,,,,,,,,,,,,,
298237,2022-11-21_11h40.54.277,vts_reward_expectancy_bt,2022.2.4,MacIntel,59.84082341,Chrome,1440,900,,,,,0,585,,,,,,,,,,,,,,,,,125,W,triangle,1,0,,2,,,,,,,,,,,,,,repeat,number,numRpt,d,0.9179,vtsPrac,1,0,1,0,1,,,,,,,,,,,,,,,,,,,,,,,
298237,2022-11-21_11h40.54.277,vts_reward_expectancy_bt,2022.2.4,MacIntel,59.84082341,Chrome,1440,900,,,,,0,585,,,,,,,,,,,,,,,,,146,D,hexagon,1,0,,2,,,,,,,,,,,,,,switch,letter,lettSwt,j,0.6157,vtsPrac,2,0,2,0,1,,,,,,,,,,,,,,,,,,,,,,,
298237,2022-11-21_11h40.54.277,vts_reward_expectancy_bt,2022.2.4,MacIntel,59.84082341,Chrome,1440,900,,,,,0,585,,,,,,,,,,,,,,,,,174,B,triangle,1,0,,2,,,,,,,,,,,,,,switch,number,numSwt,f,0.5327,vtsPrac,3,0,3,0,1,,,,,,,,,,,,,,,,,,,,,,,
298237,2022-11-21_11h40.54.277,vts_reward_expectancy_bt,2022.2.4,MacIntel,59.84082341,Chrome,1440,900,,,,,0,585,,,,,,,,,,,,,,,,,132,F,triangle,1,0,,2,,,,,,,,,,,,,,switch,letter,lettSwt,j,0.6679,vtsPrac,4,0,4,0,1,,,,,,,,,,,,,,,,,,,,,,,
298237,2022-11-21_11h40.54.277,vts_reward_expectancy_bt,2022.2.4,MacIntel,59.84082341,Chrome,1440,900,,,,,0,585,,,,,,,,,,,,,,,,,125,W,hexagon,1,0,,2,,,,,,,,,,,,,,repeat,letter,lettRpt,k,0.5167,vtsPrac,5,0,5,0,1,,,,,,,,,,,,,,,,,,,,,,,
298237,2022-11-21_11h40.54.277,vts_reward_expectancy_bt,2022.2.4,MacIntel,59.84082341,Chrome,1440,900,,,,,0,585,,,,,,,,,,,,,,,,,146,D,triangle,1,0,,2,,,,,,,,,,,,,,switch,number,numSwt,d,1.3562,vtsPrac,6,0,6,0,1,,,,,,,,,,,,,,,,,,,,,,,
298237,2022-11-21_11h40.54.277,vts_reward_expectancy_bt,2022.2.4,MacIntel,59.84082341,Chrome,1440,900,,,,,0,585,,,,,,,,,,,,,,,,,174,B,hexagon,1,0,,2,,,,,,,,,,,,,,switch,letter,lettSwt,j,0.5523,vtsPrac,7,0,7,0,1,,,,,,,,,,,,,,,,,,,,,,,
298237,2022-11-21_11h40.54.277,vts_reward_expectancy_bt,2022.2.4,MacIntel,59.84082341,Chrome,1440,900,,,,,0,585,,,,,,,,,,,,,,,,,146,U,star,1,0,,2,,,,,,,,,,,,,,switch,number,numSwt,d,0.6487,vtsPrac,8,0,8,0,1,,,,,,,,,,,,,,,,,,,,,,,
298237,2022-11-21_11h40.54.277,vts_reward_expectancy_bt,2022.2.4,MacIntel,59.84082341,Chrome,1440,900,,,,,0,585,,,,,,,,,,,,,,,,,139,W,triangle,1,0,,2,,,,,,,,,,,,,,repeat,number,numRpt,d,0.7333,vtsPrac,9,0,9,0,1,,,,,,,,,,,,,,,,,,,,,,,
298237,2022-11-21_11h40.54.277,vts_reward_expectancy_bt,2022.2.4,MacIntel,59.84082341,Chrome,1440,900,,,,,0,585,,,,,,,,,,,,,,,,,174,D,circle,1,0,,2,,,,,,,,,,,,,,switch,letter,lettSwt,j,0.6182,vtsPrac,10,0,10,0,1,,,,,,,,,,,,,,,,,,,,,,,
298237,2022-11-21_11h40.54.277,vts_reward_expectancy_bt,2022.2.4,MacIntel,59.84082341,Chrome,1440,900,,,,,0,585,,,,,,,,,,,,,,,,,132,B,hexagon,1,0,,2,,,,,,,,,,,,,,switch,number,numSwt,d,0.5949,vtsPrac,11,0,11,0,1,,,,,,,,,,,,,,,,,,,,,,,
298237,2022-11-21_11h40.54.277,vts_reward_expectancy_bt,2022.2.4,MacIntel,59.84082341,Chrome,1440,900,,,,,0,585,,,,,,,,,,,,,,,,,160,Y,circle,1,0,,2,,,,,,,,,,,,,,switch,letter,lettSwt,k,0.5497,vtsPrac,12,0,12,0,1,,,,,,,,,,,,,,,,,,,,,,,
298237,2022-11-21_11h40.54.277,vts_reward_expectancy_bt,2022.2.4,MacIntel,59.84082341,Chrome,1440,900,,,,,0,585,,,,,,,,,,,,,,,,,146,D,triangle,1,0,,2,,,,,,,,,,,,,,repeat,letter,lettRpt,j,0.5525,vtsPrac,13,0,13,0,1,,,,,,,,,,,,,,,,,,,,,,,
298237,2022-11-21_11h40.54.277,vts_reward_expectancy_bt,2022.2.4,MacIntel,59.84082341,Chrome,1440,900,,,,,0,585,,,,,,,,,,,,,,,,,132,S,star,1,0,,2,,,,,,,,,,,,,,switch,number,numSwt,d,0.6208,vtsPrac,14,0,14,0,1,,,,,,,,,,,,,,,,,,,,,,,
298237,2022-11-21_11h40.54.277,vts_reward_expectancy_bt,2022.2.4,MacIntel,59.84082341,Chrome,1440,900,,,,,0,585,,,,,,,,,,,,,,,,,125,B,triangle,1,0,,2,,,,,,,,,,,,,,switch,letter,lettSwt,j,0.4123,vtsPrac,15,0,15,0,1,,,,,,,,,,,,,,,,,,,,,,,
298237,2022-11-21_11h40.54.277,vts_reward_expectancy_bt,2022.2.4,MacIntel,59.84082341,Chrome,1440,900,,,,,0,585,,,,,,,,,,,,,,,,,174,S,star,1,0,,2,,,,,,,,,,,,,,repeat,letter,lettRpt,k,0.6351,vtsPrac,16,0,16,0,1,,,,,,,,,,,,,,,,,,,,,,,
298237,2022-11-21_11h40.54.277,vts_reward_expectancy_bt,2022.2.4,MacIntel,59.84082341,Chrome,1440,900,,,,,0,585,,,,,,,,,,,,,,,,,160,B,triangle,1,0,,2,,,,,,,,,,,,,,switch,number,numSwt,f,0.8503,vtsPrac,17,0,17,0,1,,,,,,,,,,,,,,,,,,,,,,,
298237,2022-11-21_11h40.54.277,vts_reward_expectancy_bt,2022.2.4,MacIntel,59.84082341,Chrome,1440,900,,,,,0,585,,,,,,,,,,,,,,,,,125,H,star,1,0,,2,,,,,,,,,,,,,,switch,letter,lettSwt,j,0.7323,vtsPrac,18,0,18,0,1,,,,,,,,,,,,,,,,,,,,,,,
298237,2022-11-21_11h40.54.277,vts_reward_expectancy_bt,2022.2.4,MacIntel,59.84082341,Chrome,1440,900,,,,,0,585,,,,,,,,,,,,,,,,,132,U,hexagon,1,0,,2,,,,,,,,,,,,,,repeat,letter,lettRpt,k,0.5654,vtsPrac,19,0,19,0,1,,,,,,,,,,,,,,,,,,,,,,,
298237,2022-11-21_11h40.54.277,vts_reward_expectancy_bt,2022.2.4,MacIntel,59.84082341,Chrome,1440,900,,,,,0,585,,,,,,,,,,,,,,,,,146,U,circle,1,0,,2,,,,,,,,,,,,,,switch,number,numSwt,d,0.5525,vtsPrac,20,0,20,0,1,,,,,,,,,,,,,,,,,,,,,,,
298237,2022-11-21_11h40.54.277,vts_reward_expectancy_bt,2022.2.4,MacIntel,59.84082341,Chrome,1440,900,,,,,0,585,,,,,,,,,,,,,,,,,174,F,triangle,1,0,,2,,,,,,,,,,,,,,repeat,number,numRpt,f,0.5821,vtsPrac,21,0,21,0,1,,,,,,,,,,,,,,,,,,,,,,,
298237,2022-11-21_11h40.54.277,vts_reward_expectancy_bt,2022.2.4,MacIntel,59.84082341,Chrome,1440,900,,,,,0,585,,,,,,,,,,,,,,,,,139,S,star,1,0,,2,,,,,,,,,,,,,,switch,letter,lettSwt,k,0.6643,vtsPrac,22,0,22,0,1,,,,,,,,,,,,,,,,,,,,,,,
298237,2022-11-21_11h40.54.277,vts_reward_expectancy_bt,2022.2.4,MacIntel,59.84082341,Chrome,1440,900,,,,,0,585,,,,,,,,,,,,,,,,,132,B,triangle,1,0,,2,,,,,,,,,,,,,,switch,number,numSwt,d,0.7374,vtsPrac,23,0,23,0,1,,,,,,,,,,,,,,,,,,,,,,,
298237,2022-11-21_11h40.54.277,vts_reward_expectancy_bt,2022.2.4,MacIntel,59.84082341,Chrome,1440,900,,,,,0,585,,,,,,,,,,,,,,,,,174,F,hexagon,1,0,,2,,,,,,,,,,,,,,switch,letter,lettSwt,j,0.6497,vtsPrac,24,0,24,0,1,,,,,,,,,,,,,,,,,,,,,,,
298237,2022-11-21_11h40.54.277,vts_reward_expectancy_bt,2022.2.4,MacIntel,59.84082341,Chrome,1440,900,,,,,0,585,,,,,,,,,,,,,,,,,160,D,star,1,0,,2,,,,,,,,,,,,,,repeat,letter,lettRpt,j,0.5312,vtsPrac,25,0,25,0,1,,,,,,,,,,,,,,,,,,,,,,,
298237,2022-11-21_11h40.54.277,vts_reward_expectancy_bt,2022.2.4,MacIntel,59.84082341,Chrome,1440,900,,,,,0,585,,,,,,,,,,,,,,,,,167,W,hexagon,1,0,,2,,,,,,,,,,,,,,switch,number,numSwt,f,0.635,vtsPrac,26,0,26,0,1,,,,,,,,,,,,,,,,,,,,,,,
298237,2022-11-21_11h40.54.277,vts_reward_expectancy_bt,2022.2.4,MacIntel,59.84082341,Chrome,1440,900,,,,,0,585,,,,,,,,,,,,,,,,,181,Y,star,1,0,,2,,,,,,,,,,,,,,repeat,number,numRpt,f,0.6529,vtsPrac,27,0,27,0,1,,,,,,,,,,,,,,,,,,,,,,,
298237,2022-11-21_11h40.54.277,vts_reward_expectancy_bt,2022.2.4,MacIntel,59.84082341,Chrome,1440,900,,,,,0,585,,,,,,,,,,,,,,,,,181,U,circle,1,0,,2,,,,,,,,,,,,,,switch,letter,lettSwt,k,0.5169,vtsPrac,28,0,28,0,1,,,,,,,,,,,,,,,,,,,,,,,
298237,2022-11-21_11h40.54.277,vts_reward_expectancy_bt,2022.2.4,MacIntel,59.84082341,Chrome,1440,900,,,,,0,585,,,,,,,,,,,,,,,,,174,B,triangle,1,0,,2,,,,,,,,,,,,,,repeat,letter,lettRpt,j,0.5674,vtsPrac,29,0,29,0,1,,,,,,,,,,,,,,,,,,,,,,,
298237,2022-11-21_11h40.54.277,vts_reward_expectancy_bt,2022.2.4,MacIntel,59.84082341,Chrome,1440,900,,,,,0,585,,,,,,,,,,,,,,,,,146,F,star,1,0,,2,,,,,,,,,,,,,,switch,number,numSwt,d,0.6492,vtsPrac,30,0,30,0,1,,,,,,,,,,,,,,,,,,,,,,,
298237,2022-11-21_11h40.54.277,vts_reward_expectancy_bt,2022.2.4,MacIntel,59.84082341,Chrome,1440,900,,,,,0,585,,,,,,,,,,,,,,,,,167,S,circle,1,0,,2,,,,,,,,,,,,,,switch,letter,lettSwt,k,1.2017,vtsPrac,31,0,31,0,1,,,,,,,,,,,,,,,,,,,,,,,
298237,2022-11-21_11h40.54.277,vts_reward_expectancy_bt,2022.2.4,MacIntel,59.84082341,Chrome,1440,900,,,,,,,,,,,,,,,,,,,,,,,,,,,,,,,,,,,,,,,,,,,,,,,,,,,,,,,,,,,,,,,,,,,,,,,,,,,,
298237,2022-11-21_11h40.54.277,vts_reward_expectancy_bt,2022.2.4,MacIntel,59.84082341,Chrome,1440,900,,,,,,,,,,,,,,,,,,,,,,,,,,,,,,,,,,,,,,,,,,,,,,,,,,,,,,,,,,,,,,,,,,,,,,,,,,,,
298237,2022-11-21_11h40.54.277,vts_reward_expectancy_bt,2022.2.4,MacIntel,59.84082341,Chrome,1440,900,,,,,0,585,,,,,,,,,,,,,,,,,167,F,hexagon,1,0,,,,,,,,,,,,,,,,switch,number,numSwt,f,1.2877,noRew,,,,,,0,0,0,0,0,1,,,,,,,,,,,,,,,,,
298237,2022-11-21_11h40.54.277,vts_reward_expectancy_bt,2022.2.4,MacIntel,59.84082341,Chrome,1440,900,,,,,0,585,,,,,,,,,,,,,,,,,139,B,circle,1,0,,,,,,,,,,,,,,,,repeat,number,numRpt,d,0.7998,noRew,,,,,,0,1,0,1,0,1,,,,,,,,,,,,,,,,,
298237,2022-11-21_11h40.54.277,vts_reward_expectancy_bt,2022.2.4,MacIntel,59.84082341,Chrome,1440,900,,,,,0,585,,,,,,,,,,,,,,,,,146,Y,hexagon,1,0,,,,,,,,,,,,,,,,switch,letter,lettSwt,k,0.8362,noRew,,,,,,0,2,0,2,0,1,,,,,,,,,,,,,,,,,
298237,2022-11-21_11h40.54.277,vts_reward_expectancy_bt,2022.2.4,MacIntel,59.84082341,Chrome,1440,900,,,,,0,585,,,,,,,,,,,,,,,,,160,D,circle,1,0,,,,,,,,,,,,,,,,switch,number,numSwt,f,0.8324,noRew,,,,,,0,3,0,3,0,1,,,,,,,,,,,,,,,,,
298237,2022-11-21_11h40.54.277,vts_reward_expectancy_bt,2022.2.4,MacIntel,59.84082341,Chrome,1440,900,,,,,0,585,,,,,,,,,,,,,,,,,167,F,circle,1,0,,,,,,,,,,,,,,,,switch,letter,lettSwt,j,1.0488,noRew,,,,,,0,4,0,4,0,1,,,,,,,,,,,,,,,,,
298237,2022-11-21_11h40.54.277,vts_reward_expectancy_bt,2022.2.4,MacIntel,59.84082341,Chrome,1440,900,,,,,0,585,,,,,,,,,,,,,,,,,139,B,hexagon,1,0,,,,,,,,,,,,,,,,repeat,letter,lettRpt,j,0.5673,noRew,,,,,,0,5,0,5,0,1,,,,,,,,,,,,,,,,,
298237,2022-11-21_11h40.54.277,vts_reward_expectancy_bt,2022.2.4,MacIntel,59.84082341,Chrome,1440,900,,,,,0,585,,,,,,,,,,,,,,,,,146,Y,hexagon,1,0,,,,,,,,,,,,,,,,switch,number,numSwt,d,0.6898,noRew,,,,,,0,6,0,6,0,1,,,,,,,,,,,,,,,,,
298237,2022-11-21_11h40.54.277,vts_reward_expectancy_bt,2022.2.4,MacIntel,59.84082341,Chrome,1440,900,,,,,0,585,,,,,,,,,,,,,,,,,160,D,circle,1,0,,,,,,,,,,,,,,,,switch,letter,lettSwt,j,0.732,noRew,,,,,,0,7,0,7,0,1,,,,,,,,,,,,,,,,,
298237,2022-11-21_11h40.54.277,vts_reward_expectancy_bt,2022.2.4,MacIntel,59.84082341,Chrome,1440,900,,,,,0,585,,,,,,,,,,,,,,,,,167,Y,hexagon,1,0,,,,,,,,,,,,,,,,switch,number,numSwt,f,0.6175,noRew,,,,,,0,8,0,8,0,1,,,,,,,,,,,,,,,,,
298237,2022-11-21_11h40.54.277,vts_reward_expectancy_bt,2022.2.4,MacIntel,59.84082341,Chrome,1440,900,,,,,0,585,,,,,,,,,,,,,,,,,146,B,triangle,1,0,,,,,,,,,,,,,,,,repeat,number,numRpt,d,1.2139,noRew,,,,,,0,9,0,9,0,1,,,,,,,,,,,,,,,,,
298237,2022-11-21_11h40.54.277,vts_reward_expectancy_bt,2022.2.4,MacIntel,59.84082341,Chrome,1440,900,,,,,0,585,,,,,,,,,,,,,,,,,132,F,triangle,1,0,,,,,,,,,,,,,,,,switch,letter,lettSwt,j,0.7342,noRew,,,,,,0,10,0,10,0,1,,,,,,,,,,,,,,,,,
298237,2022-11-21_11h40.54.277,vts_reward_expectancy_bt,2022.2.4,MacIntel,59.84082341,Chrome,1440,900,,,,,0,585,,,,,,,,,,,,,,,,,174,S,star,1,0,,,,,,,,,,,,,,,,switch,number,numSwt,f,0.7497,noRew,,,,,,0,11,0,11,0,1,,,,,,,,,,,,,,,,,
298237,2022-11-21_11h40.54.277,vts_reward_expectancy_bt,2022.2.4,MacIntel,59.84082341,Chrome,1440,900,,,,,0,585,,,,,,,,,,,,,,,,,160,S,circle,1,0,,,,,,,,,,,,,,,,switch,letter,lettSwt,k,0.821,noRew,,,,,,0,12,0,12,0,1,,,,,,,,,,,,,,,,,
298237,2022-11-21_11h40.54.277,vts_reward_expectancy_bt,2022.2.4,MacIntel,59.84082341,Chrome,1440,900,,,,,0,585,,,,,,,,,,,,,,,,,132,Y,triangle,1,0,,,,,,,,,,,,,,,,repeat,letter,lettRpt,k,0.5989,noRew,,,,,,0,13,0,13,0,1,,,,,,,,,,,,,,,,,
298237,2022-11-21_11h40.54.277,vts_reward_expectancy_bt,2022.2.4,MacIntel,59.84082341,Chrome,1440,900,,,,,0,585,,,,,,,,,,,,,,,,,174,D,triangle,1,0,,,,,,,,,,,,,,,,switch,number,numSwt,f,0.6523,noRew,,,,,,0,14,0,14,0,1,,,,,,,,,,,,,,,,,
298237,2022-11-21_11h40.54.277,vts_reward_expectancy_bt,2022.2.4,MacIntel,59.84082341,Chrome,1440,900,,,,,0,585,,,,,,,,,,,,,,,,,125,H,hexagon,1,0,,,,,,,,,,,,,,,,repeat,number,numRpt,d,0.7823,noRew,,,,,,0,15,0,15,0,1,,,,,,,,,,,,,,,,,
298237,2022-11-21_11h40.54.277,vts_reward_expectancy_bt,2022.2.4,MacIntel,59.84082341,Chrome,1440,900,,,,,0,585,,,,,,,,,,,,,,,,,174,S,star,1,0,,,,,,,,,,,,,,,,switch,letter,lettSwt,k,0.5152,noRew,,,,,,0,16,0,16,0,1,,,,,,,,,,,,,,,,,
298237,2022-11-21_11h40.54.277,vts_reward_expectancy_bt,2022.2.4,MacIntel,59.84082341,Chrome,1440,900,,,,,0,585,,,,,,,,,,,,,,,,,125,D,triangle,1,0,,,,,,,,,,,,,,,,repeat,letter,lettRpt,j,0.5851,noRew,,,,,,0,17,0,17,0,1,,,,,,,,,,,,,,,,,
298237,2022-11-21_11h40.54.277,vts_reward_expectancy_bt,2022.2.4,MacIntel,59.84082341,Chrome,1440,900,,,,,0,585,,,,,,,,,,,,,,,,,132,W,star,1,0,,,,,,,,,,,,,,,,switch,number,numSwt,d,0.5659,noRew,,,,,,0,18,0,18,0,1,,,,,,,,,,,,,,,,,
298237,2022-11-21_11h40.54.277,vts_reward_expectancy_bt,2022.2.4,MacIntel,59.84082341,Chrome,1440,900,,,,,0,585,,,,,,,,,,,,,,,,,181,B,hexagon,1,0,,,,,,,,,,,,,,,,repeat,number,numRpt,f,1.2524,noRew,,,,,,0,19,0,19,0,1,,,,,,,,,,,,,,,,,
298237,2022-11-21_11h40.54.277,vts_reward_expectancy_bt,2022.2.4,MacIntel,59.84082341,Chrome,1440,900,,,,,0,585,,,,,,,,,,,,,,,,,125,W,star,1,0,,,,,,,,,,,,,,,,switch,letter,lettSwt,k,0.6004,noRew,,,,,,0,20,0,20,0,1,,,,,,,,,,,,,,,,,
298237,2022-11-21_11h40.54.277,vts_reward_expectancy_bt,2022.2.4,MacIntel,59.84082341,Chrome,1440,900,,,,,0,585,,,,,,,,,,,,,,,,,167,B,circle,1,0,,,,,,,,,,,,,,,,repeat,letter,lettRpt,j,0.5821,noRew,,,,,,0,21,0,21,0,1,,,,,,,,,,,,,,,,,
298237,2022-11-21_11h40.54.277,vts_reward_expectancy_bt,2022.2.4,MacIntel,59.84082341,Chrome,1440,900,,,,,0,585,,,,,,,,,,,,,,,,,132,F,triangle,1,0,,,,,,,,,,,,,,,,repeat,letter,lettRpt,j,0.6539,noRew,,,,,,0,22,0,22,0,1,,,,,,,,,,,,,,,,,
298237,2022-11-21_11h40.54.277,vts_reward_expectancy_bt,2022.2.4,MacIntel,59.84082341,Chrome,1440,900,,,,,0,585,,,,,,,,,,,,,,,,,139,U,hexagon,1,0,,,,,,,,,,,,,,,,switch,number,numSwt,d,0.7502,noRew,,,,,,0,23,0,23,0,1,,,,,,,,,,,,,,,,,
298237,2022-11-21_11h40.54.277,vts_reward_expectancy_bt,2022.2.4,MacIntel,59.84082341,Chrome,1440,900,,,,,0,585,,,,,,,,,,,,,,,,,160,W,triangle,1,0,,,,,,,,,,,,,,,,repeat,number,numRpt,f,1.3347,noRew,,,,,,0,24,0,24,0,1,,,,,,,,,,,,,,,,,
298237,2022-11-21_11h40.54.277,vts_reward_expectancy_bt,2022.2.4,MacIntel,59.84082341,Chrome,1440,900,,,,,0,585,,,,,,,,,,,,,,,,,181,F,hexagon,1,0,,,,,,,,,,,,,,,,switch,letter,lettSwt,j,0.7192,noRew,,,,,,0,25,0,25,0,1,,,,,,,,,,,,,,,,,
298237,2022-11-21_11h40.54.277,vts_reward_expectancy_bt,2022.2.4,MacIntel,59.84082341,Chrome,1440,900,,,,,0,585,,,,,,,,,,,,,,,,,132,H,star,1,0,,,,,,,,,,,,,,,,switch,number,numSwt,d,0.8722,noRew,,,,,,0,26,0,26,0,1,,,,,,,,,,,,,,,,,
298237,2022-11-21_11h40.54.277,vts_reward_expectancy_bt,2022.2.4,MacIntel,59.84082341,Chrome,1440,900,,,,,0,585,,,,,,,,,,,,,,,,,139,Y,hexagon,1,0,,,,,,,,,,,,,,,,repeat,number,numRpt,d,0.8325,noRew,,,,,,0,27,0,27,0,1,,,,,,,,,,,,,,,,,
298237,2022-11-21_11h40.54.277,vts_reward_expectancy_bt,2022.2.4,MacIntel,59.84082341,Chrome,1440,900,,,,,0,585,,,,,,,,,,,,,,,,,181,H,triangle,1,0,,,,,,,,,,,,,,,,switch,letter,lettSwt,j,0.7328,noRew,,,,,,0,28,0,28,0,1,,,,,,,,,,,,,,,,,
298237,2022-11-21_11h40.54.277,vts_reward_expectancy_bt,2022.2.4,MacIntel,59.84082341,Chrome,1440,900,,,,,0,585,,,,,,,,,,,,,,,,,146,W,hexagon,1,0,,,,,,,,,,,,,,,,switch,number,numSwt,d,0.5502,noRew,,,,,,0,29,0,29,0,1,,,,,,,,,,,,,,,,,
298237,2022-11-21_11h40.54.277,vts_reward_expectancy_bt,2022.2.4,MacIntel,59.84082341,Chrome,1440,900,,,,,0,585,,,,,,,,,,,,,,,,,139,S,triangle,1,0,,,,,,,,,,,,,,,,switch,letter,lettSwt,k,0.9162,noRew,,,,,,0,30,0,30,0,1,,,,,,,,,,,,,,,,,
298237,2022-11-21_11h40.54.277,vts_reward_expectancy_bt,2022.2.4,MacIntel,59.84082341,Chrome,1440,900,,,,,0,585,,,,,,,,,,,,,,,,,125,Y,hexagon,1,0,,,,,,,,,,,,,,,,repeat,letter,lettRpt,k,0.55,noRew,,,,,,0,31,0,31,0,1,,,,,,,,,,,,,,,,,
298237,2022-11-21_11h40.54.277,vts_reward_expectancy_bt,2022.2.4,MacIntel,59.84082341,Chrome,1440,900,,,,,0,585,,,,,,,,,,,,,,,,,146,Y,circle,1,0,,,,,,,,,,,,,,,,switch,number,numSwt,d,1.2079,noRew,,,,,,0,32,0,32,0,1,,,,,,,,,,,,,,,,,
298237,2022-11-21_11h40.54.277,vts_reward_expectancy_bt,2022.2.4,MacIntel,59.84082341,Chrome,1440,900,,,,,0,585,,,,,,,,,,,,,,,,,181,H,triangle,1,0,,,,,,,,,,,,,,,,repeat,number,numRpt,f,0.6151,noRew,,,,,,0,33,0,33,0,1,,,,,,,,,,,,,,,,,
298237,2022-11-21_11h40.54.277,vts_reward_expectancy_bt,2022.2.4,MacIntel,59.84082341,Chrome,1440,900,,,,,0,585,,,,,,,,,,,,,,,,,139,W,circle,1,0,,,,,,,,,,,,,,,,switch,letter,lettSwt,k,0.6357,noRew,,,,,,0,34,0,34,0,1,,,,,,,,,,,,,,,,,
298237,2022-11-21_11h40.54.277,vts_reward_expectancy_bt,2022.2.4,MacIntel,59.84082341,Chrome,1440,900,,,,,0,585,,,,,,,,,,,,,,,,,174,S,hexagon,1,0,,,,,,,,,,,,,,,,repeat,letter,lettRpt,k,0.6195,noRew,,,,,,0,35,0,35,0,1,,,,,,,,,,,,,,,,,
298237,2022-11-21_11h40.54.277,vts_reward_expectancy_bt,2022.2.4,MacIntel,59.84082341,Chrome,1440,900,,,,,0,585,,,,,,,,,,,,,,,,,146,W,hexagon,1,0,,,,,,,,,,,,,,,,switch,number,numSwt,d,0.7846,noRew,,,,,,0,36,0,36,0,1,,,,,,,,,,,,,,,,,
298237,2022-11-21_11h40.54.277,vts_reward_expectancy_bt,2022.2.4,MacIntel,59.84082341,Chrome,1440,900,,,,,0,585,,,,,,,,,,,,,,,,,132,H,star,1,0,,,,,,,,,,,,,,,,switch,letter,lettSwt,j,0.9833,noRew,,,,,,0,37,0,37,0,1,,,,,,,,,,,,,,,,,
298237,2022-11-21_11h40.54.277,vts_reward_expectancy_bt,2022.2.4,MacIntel,59.84082341,Chrome,1440,900,,,,,0,585,,,,,,,,,,,,,,,,,174,S,hexagon,1,0,,,,,,,,,,,,,,,,switch,number,numSwt,f,1.2376,noRew,,,,,,0,38,0,38,0,1,,,,,,,,,,,,,,,,,
298237,2022-11-21_11h40.54.277,vts_reward_expectancy_bt,2022.2.4,MacIntel,59.84082341,Chrome,1440,900,,,,,0,585,,,,,,,,,,,,,,,,,167,U,circle,1,0,,,,,,,,,,,,,,,,repeat,number,numRpt,f,0.9653,noRew,,,,,,0,39,0,39,0,1,,,,,,,,,,,,,,,,,
298237,2022-11-21_11h40.54.277,vts_reward_expectancy_bt,2022.2.4,MacIntel,59.84082341,Chrome,1440,900,,,,,0,585,,,,,,,,,,,,,,,,,132,W,star,1,0,,,,,,,,,,,,,,,,switch,letter,lettSwt,k,0.8685,noRew,,,,,,0,40,0,40,0,1,,,,,,,,,,,,,,,,,
298237,2022-11-21_11h40.54.277,vts_reward_expectancy_bt,2022.2.4,MacIntel,59.84082341,Chrome,1440,900,,,,,0,585,,,,,,,,,,,,,,,,,146,B,circle,1,0,,,,,,,,,,,,,,,,repeat,letter,lettRpt,j,0.4866,noRew,,,,,,0,41,0,41,0,1,,,,,,,,,,,,,,,,,
298237,2022-11-21_11h40.54.277,vts_reward_expectancy_bt,2022.2.4,MacIntel,59.84082341,Chrome,1440,900,,,,,0,585,,,,,,,,,,,,,,,,,139,S,triangle,1,0,,,,,,,,,,,,,,,,switch,number,numSwt,d,0.8197,noRew,,,,,,0,42,0,42,0,1,,,,,,,,,,,,,,,,,
298237,2022-11-21_11h40.54.277,vts_reward_expectancy_bt,2022.2.4,MacIntel,59.84082341,Chrome,1440,900,,,,,0,585,,,,,,,,,,,,,,,,,181,U,circle,0,0,,,,,,,,,,,,,,,,repeat,number,NA,d,1.2523,noRew,,,,,,0,43,0,43,0,1,,,,,,,,,,,,,,,,,
298237,2022-11-21_11h40.54.277,vts_reward_expectancy_bt,2022.2.4,MacIntel,59.84082341,Chrome,1440,900,,,,,0,585,,,,,,,,,,,,,,,,,174,H,star,1,1,,,,,,,,,,,,,,,,repeat,number,numRpt,f,1.4867,noRew,,,,,,0,44,0,44,0,1,,,,,,,,,,,,,,,,,
298237,2022-11-21_11h40.54.277,vts_reward_expectancy_bt,2022.2.4,MacIntel,59.84082341,Chrome,1440,900,,,,,0,585,,,,,,,,,,,,,,,,,181,F,circle,1,0,,,,,,,,,,,,,,,,switch,letter,lettSwt,j,0.6074,noRew,,,,,,0,45,0,45,0,1,,,,,,,,,,,,,,,,,
298237,2022-11-21_11h40.54.277,vts_reward_expectancy_bt,2022.2.4,MacIntel,59.84082341,Chrome,1440,900,,,,,0,585,,,,,,,,,,,,,,,,,146,W,hexagon,1,0,,,,,,,,,,,,,,,,repeat,letter,lettRpt,k,0.5704,noRew,,,,,,0,46,0,46,0,1,,,,,,,,,,,,,,,,,
298237,2022-11-21_11h40.54.277,vts_reward_expectancy_bt,2022.2.4,MacIntel,59.84082341,Chrome,1440,900,,,,,0,585,,,,,,,,,,,,,,,,,160,D,circle,1,0,,,,,,,,,,,,,,,,repeat,letter,lettRpt,j,0.7713,noRew,,,,,,0,47,0,47,0,1,,,,,,,,,,,,,,,,,
298237,2022-11-21_11h40.54.277,vts_reward_expectancy_bt,2022.2.4,MacIntel,59.84082341,Chrome,1440,900,,,,,0,585,,,,,,,,,,,,,,,,,125,W,triangle,1,0,,,,,,,,,,,,,,,,switch,number,numSwt,d,0.8833,noRew,,,,,,0,48,0,48,0,1,,,,,,,,,,,,,,,,,
298237,2022-11-21_11h40.54.277,vts_reward_expectancy_bt,2022.2.4,MacIntel,59.84082341,Chrome,1440,900,,,,,0,585,,,,,,,,,,,,,,,,,174,B,star,1,0,,,,,,,,,,,,,,,,repeat,number,numRpt,f,1.0412,noRew,,,,,,0,49,0,49,0,1,,,,,,,,,,,,,,,,,
298237,2022-11-21_11h40.54.277,vts_reward_expectancy_bt,2022.2.4,MacIntel,59.84082341,Chrome,1440,900,,,,,0,585,,,,,,,,,,,,,,,,,132,U,hexagon,1,0,,,,,,,,,,,,,,,,switch,letter,lettSwt,k,0.5865,noRew,,,,,,0,50,0,50,0,1,,,,,,,,,,,,,,,,,
298237,2022-11-21_11h40.54.277,vts_reward_expectancy_bt,2022.2.4,MacIntel,59.84082341,Chrome,1440,900,,,,,0,585,,,,,,,,,,,,,,,,,181,D,circle,1,0,,,,,,,,,,,,,,,,switch,number,numSwt,f,0.7157,noRew,,,,,,0,51,0,51,0,1,,,,,,,,,,,,,,,,,
298237,2022-11-21_11h40.54.277,vts_reward_expectancy_bt,2022.2.4,MacIntel,59.84082341,Chrome,1440,900,,,,,0,585,,,,,,,,,,,,,,,,,139,D,hexagon,1,0,,,,,,,,,,,,,,,,repeat,number,numRpt,d,0.7846,noRew,,,,,,0,52,0,52,0,1,,,,,,,,,,,,,,,,,
298237,2022-11-21_11h40.54.277,vts_reward_expectancy_bt,2022.2.4,MacIntel,59.84082341,Chrome,1440,900,,,,,0,585,,,,,,,,,,,,,,,,,160,H,star,1,0,,,,,,,,,,,,,,,,switch,letter,lettSwt,j,0.6165,noRew,,,,,,0,53,0,53,0,1,,,,,,,,,,,,,,,,,
298237,2022-11-21_11h40.54.277,vts_reward_expectancy_bt,2022.2.4,MacIntel,59.84082341,Chrome,1440,900,,,,,0,585,,,,,,,,,,,,,,,,,125,S,triangle,1,0,,,,,,,,,,,,,,,,repeat,letter,lettRpt,k,1.0372,noRew,,,,,,0,54,0,54,0,1,,,,,,,,,,,,,,,,,
298237,2022-11-21_11h40.54.277,vts_reward_expectancy_bt,2022.2.4,MacIntel,59.84082341,Chrome,1440,900,,,,,0,585,,,,,,,,,,,,,,,,,181,Y,star,1,0,,,,,,,,,,,,,,,,switch,number,numSwt,f,0.7334,noRew,,,,,,0,55,0,55,0,1,,,,,,,,,,,,,,,,,
298237,2022-11-21_11h40.54.277,vts_reward_expectancy_bt,2022.2.4,MacIntel,59.84082341,Chrome,1440,900,,,,,0,585,,,,,,,,,,,,,,,,,146,U,triangle,1,0,,,,,,,,,,,,,,,,switch,letter,lettSwt,k,0.636,noRew,,,,,,0,56,0,56,0,1,,,,,,,,,,,,,,,,,
298237,2022-11-21_11h40.54.277,vts_reward_expectancy_bt,2022.2.4,MacIntel,59.84082341,Chrome,1440,900,,,,,0,585,,,,,,,,,,,,,,,,,125,F,hexagon,1,0,,,,,,,,,,,,,,,,repeat,letter,lettRpt,j,0.5487,noRew,,,,,,0,57,0,57,0,1,,,,,,,,,,,,,,,,,
298237,2022-11-21_11h40.54.277,vts_reward_expectancy_bt,2022.2.4,MacIntel,59.84082341,Chrome,1440,900,,,,,0,585,,,,,,,,,,,,,,,,,174,S,triangle,1,0,,,,,,,,,,,,,,,,switch,number,numSwt,f,0.5876,noRew,,,,,,0,58,0,58,0,1,,,,,,,,,,,,,,,,,
298237,2022-11-21_11h40.54.277,vts_reward_expectancy_bt,2022.2.4,MacIntel,59.84082341,Chrome,1440,900,,,,,0,585,,,,,,,,,,,,,,,,,132,H,star,1,0,,,,,,,,,,,,,,,,repeat,number,numRpt,d,0.9021,noRew,,,,,,0,59,0,59,0,1,,,,,,,,,,,,,,,,,
298237,2022-11-21_11h40.54.277,vts_reward_expectancy_bt,2022.2.4,MacIntel,59.84082341,Chrome,1440,900,,,,,0,585,,,,,,,,,,,,,,,,,160,Y,star,1,0,,,,,,,,,,,,,,,,repeat,number,numRpt,f,1.2556,noRew,,,,,,0,60,0,60,0,1,,,,,,,,,,,,,,,,,
298237,2022-11-21_11h40.54.277,vts_reward_expectancy_bt,2022.2.4,MacIntel,59.84082341,Chrome,1440,900,,,,,0,585,,,,,,,,,,,,,,,,,181,U,hexagon,1,0,,,,,,,,,,,,,,,,switch,letter,lettSwt,k,0.6387,noRew,,,,,,0,61,0,61,0,1,,,,,,,,,,,,,,,,,
298237,2022-11-21_11h40.54.277,vts_reward_expectancy_bt,2022.2.4,MacIntel,59.84082341,Chrome,1440,900,,,,,0,585,,,,,,,,,,,,,,,,,132,W,triangle,1,0,,,,,,,,,,,,,,,,repeat,letter,lettRpt,k,0.6187,noRew,,,,,,0,62,0,62,0,1,,,,,,,,,,,,,,,,,
298237,2022-11-21_11h40.54.277,vts_reward_expectancy_bt,2022.2.4,MacIntel,59.84082341,Chrome,1440,900,,,,,0,585,,,,,,,,,,,,,,,,,174,H,star,1,0,,,,,,,,,,,,,,,,switch,number,numSwt,f,0.5845,noRew,,,,,,0,63,0,63,0,1,,,,,,,,,,,,,,,,,
298237,2022-11-21_11h40.54.277,vts_reward_expectancy_bt,2022.2.4,MacIntel,59.84082341,Chrome,1440,900,,,,,,,,,,,,,,,,,,,,,,,,,,,,,,,,,,,,,,,,,,,,,,,,,,,,,,,,,,,,,,,,,,,,,,,,,,,,
298237,2022-11-21_11h40.54.277,vts_reward_expectancy_bt,2022.2.4,MacIntel,59.84082341,Chrome,1440,900,,,,,1,586,,,,,,,,,,,,,,,,,139,S,star,1,0,,,,,,,,,,,,,,,,switch,letter,lettSwt,k,0.5161,Lo,,,,,,0,,,,,,space,172.1225,high,0,0,0,0,1,,,,,,,,,
298237,2022-11-21_11h40.54.277,vts_reward_expectancy_bt,2022.2.4,MacIntel,59.84082341,Chrome,1440,900,,,,,1,587,,,,,,,,,,,,,,,,,160,D,triangle,1,0,,,,,,,,,,,,,,,,switch,number,numSwt,f,0.8842,Lo,,,,,,0,,,,,,,,high,1,0,1,0,1,,,,,,,,,
298237,2022-11-21_11h40.54.277,vts_reward_expectancy_bt,2022.2.4,MacIntel,59.84082341,Chrome,1440,900,,,,,0,587,,,,,,,,,,,,,,,,,181,U,hexagon,1,0,,,,,,,,,,,,,,,,repeat,number,numRpt,f,1.0158,Hi,,,,,,0,,,,,,,,high,2,0,2,0,1,,,,,,,,,
298237,2022-11-21_11h40.54.277,vts_reward_expectancy_bt,2022.2.4,MacIntel,59.84082341,Chrome,1440,900,,,,,0,587,,,,,,,,,,,,,,,,,125,W,circle,0,0,,,,,,,,,,,,,,,,repeat,number,NA,f,0.5669,Hi,,,,,,0,,,,,,,,high,3,0,3,0,1,,,,,,,,,
298237,2022-11-21_11h40.54.277,vts_reward_expectancy_bt,2022.2.4,MacIntel,59.84082341,Chrome,1440,900,,,,,1,588,,,,,,,,,,,,,,,,,132,F,star,1,1,,,,,,,,,,,,,,,,repeat,number,numRpt,d,0.6168,Lo,,,,,,0,,,,,,,,high,4,0,4,0,1,,,,,,,,,
298237,2022-11-21_11h40.54.277,vts_reward_expectancy_bt,2022.2.4,MacIntel,59.84082341,Chrome,1440,900,,,,,1,589,,,,,,,,,,,,,,,,,146,Y,triangle,1,0,,,,,,,,,,,,,,,,switch,letter,lettSwt,k,0.5997,Lo,,,,,,0,,,,,,,,high,5,0,5,0,1,,,,,,,,,
298237,2022-11-21_11h40.54.277,vts_reward_expectancy_bt,2022.2.4,MacIntel,59.84082341,Chrome,1440,900,,,,,0,589,,,,,,,,,,,,,,,,,167,H,hexagon,1,0,,,,,,,,,,,,,,,,repeat,letter,lettRpt,j,0.5867,Hi,,,,,,0,,,,,,,,high,6,0,6,0,1,,,,,,,,,
298237,2022-11-21_11h40.54.277,vts_reward_expectancy_bt,2022.2.4,MacIntel,59.84082341,Chrome,1440,900,,,,,10,599,,,,,,,,,,,,,,,,,174,B,circle,1,0,,,,,,,,,,,,,,,,repeat,letter,lettRpt,j,0.5659,Hi,,,,,,0,,,,,,,,high,7,0,7,0,1,,,,,,,,,
298237,2022-11-21_11h40.54.277,vts_reward_expectancy_bt,2022.2.4,MacIntel,59.84082341,Chrome,1440,900,,,,,10,609,,,,,,,,,,,,,,,,,139,S,hexagon,1,0,,,,,,,,,,,,,,,,switch,number,numSwt,d,0.5003,Hi,,,,,,0,,,,,,,,high,8,0,8,0,1,,,,,,,,,
298237,2022-11-21_11h40.54.277,vts_reward_expectancy_bt,2022.2.4,MacIntel,59.84082341,Chrome,1440,900,,,,,10,619,,,,,,,,,,,,,,,,,160,D,circle,1,0,,,,,,,,,,,,,,,,repeat,number,numRpt,f,0.5548,Hi,,,,,,0,,,,,,,,high,9,0,9,0,1,,,,,,,,,
298237,2022-11-21_11h40.54.277,vts_reward_expectancy_bt,2022.2.4,MacIntel,59.84082341,Chrome,1440,900,,,,,1,620,,,,,,,,,,,,,,,,,181,U,star,1,0,,,,,,,,,,,,,,,,switch,letter,lettSwt,k,0.5042,Lo,,,,,,0,,,,,,,,high,10,0,10,0,1,,,,,,,,,
298237,2022-11-21_11h40.54.277,vts_reward_expectancy_bt,2022.2.4,MacIntel,59.84082341,Chrome,1440,900,,,,,1,621,,,,,,,,,,,,,,,,,125,W,triangle,1,0,,,,,,,,,,,,,,,,repeat,letter,lettRpt,k,0.7193,Lo,,,,,,0,,,,,,,,high,11,0,11,0,1,,,,,,,,,
298237,2022-11-21_11h40.54.277,vts_reward_expectancy_bt,2022.2.4,MacIntel,59.84082341,Chrome,1440,900,,,,,10,631,,,,,,,,,,,,,,,,,132,F,star,1,0,,,,,,,,,,,,,,,,switch,number,numSwt,d,0.5488,Lo,,,,,,0,,,,,,,,high,12,0,12,0,1,,,,,,,,,
298237,2022-11-21_11h40.54.277,vts_reward_expectancy_bt,2022.2.4,MacIntel,59.84082341,Chrome,1440,900,,,,,0,631,,,,,,,,,,,,,,,,,146,Y,hexagon,1,0,,,,,,,,,,,,,,,,switch,letter,lettSwt,k,0.7837,Hi,,,,,,0,,,,,,,,high,13,0,13,0,1,,,,,,,,,
298237,2022-11-21_11h40.54.277,vts_reward_expectancy_bt,2022.2.4,MacIntel,59.84082341,Chrome,1440,900,,,,,10,641,,,,,,,,,,,,,,,,,167,H,circle,1,0,,,,,,,,,,,,,,,,repeat,letter,lettRpt,j,0.5519,Hi,,,,,,0,,,,,,,,high,14,0,14,0,1,,,,,,,,,
298237,2022-11-21_11h40.54.277,vts_reward_expectancy_bt,2022.2.4,MacIntel,59.84082341,Chrome,1440,900,,,,,1,642,,,,,,,,,,,,,,,,,174,B,triangle,1,0,,,,,,,,,,,,,,,,switch,number,numSwt,f,0.5994,Lo,,,,,,0,,,,,,,,high,15,0,15,0,1,,,,,,,,,
298237,2022-11-21_11h40.54.277,vts_reward_expectancy_bt,2022.2.4,MacIntel,59.84082341,Chrome,1440,900,,,,,10,652,,,,,,,,,,,,,,,,,125,W,circle,1,0,,,,,,,,,,,,,,,,switch,letter,lettSwt,k,0.5693,Hi,,,,,,0,,,,,,,,high,16,0,16,0,1,,,,,,,,,
298237,2022-11-21_11h40.54.277,vts_reward_expectancy_bt,2022.2.4,MacIntel,59.84082341,Chrome,1440,900,,,,,10,662,,,,,,,,,,,,,,,,,139,D,hexagon,1,0,,,,,,,,,,,,,,,,switch,number,numSwt,d,0.6657,Hi,,,,,,0,,,,,,,,high,17,0,17,0,1,,,,,,,,,
298237,2022-11-21_11h40.54.277,vts_reward_expectancy_bt,2022.2.4,MacIntel,59.84082341,Chrome,1440,900,,,,,0,662,,,,,,,,,,,,,,,,,174,S,triangle,0,0,,,,,,,,,,,,,,,,switch,letter,NA,j,0.4505,Hi,,,,,,0,,,,,,,,high,18,0,18,0,1,,,,,,,,,
298237,2022-11-21_11h40.54.277,vts_reward_expectancy_bt,2022.2.4,MacIntel,59.84082341,Chrome,1440,900,,,,,0,662,,,,,,,,,,,,,,,,,167,H,star,0,1,,,,,,,,,,,,,,,,repeat,letter,NA,k,0.5696,Hi,,,,,,0,,,,,,,,high,19,0,19,0,1,,,,,,,,,
298237,2022-11-21_11h40.54.277,vts_reward_expectancy_bt,2022.2.4,MacIntel,59.84082341,Chrome,1440,900,,,,,1,663,,,,,,,,,,,,,,,,,132,B,triangle,1,1,,,,,,,,,,,,,,,,switch,number,numSwt,d,0.6161,Lo,,,,,,0,,,,,,,,high,20,0,20,0,1,,,,,,,,,
298237,2022-11-21_11h40.54.277,vts_reward_expectancy_bt,2022.2.4,MacIntel,59.84082341,Chrome,1440,900,,,,,10,673,,,,,,,,,,,,,,,,,181,F,star,1,0,,,,,,,,,,,,,,,,repeat,number,numRpt,f,0.8341,Lo,,,,,,0,,,,,,,,high,21,0,21,0,1,,,,,,,,,
298237,2022-11-21_11h40.54.277,vts_reward_expectancy_bt,2022.2.4,MacIntel,59.84082341,Chrome,1440,900,,,,,10,683,,,,,,,,,,,,,,,,,146,U,hexagon,1,0,,,,,,,,,,,,,,,,switch,letter,lettSwt,k,0.5674,Hi,,,,,,0,,,,,,,,high,22,0,22,0,1,,,,,,,,,
298237,2022-11-21_11h40.54.277,vts_reward_expectancy_bt,2022.2.4,MacIntel,59.84082341,Chrome,1440,900,,,,,0,683,,,,,,,,,,,,,,,,,160,Y,circle,1,0,,,,,,,,,,,,,,,,repeat,letter,lettRpt,k,0.5718,Hi,,,,,,0,,,,,,,,high,23,0,23,0,1,,,,,,,,,
298237,2022-11-21_11h40.54.277,vts_reward_expectancy_bt,2022.2.4,MacIntel,59.84082341,Chrome,1440,900,,,,,1,684,,,,,,,,,,,,,,,,,167,Y,hexagon,1,0,,,,,,,,,,,,,,,,switch,number,numSwt,f,0.55,Hi,,,,,,0,,,,,,,,high,24,0,24,0,1,,,,,,,,,
298237,2022-11-21_11h40.54.277,vts_reward_expectancy_bt,2022.2.4,MacIntel,59.84082341,Chrome,1440,900,,,,,0,684,,,,,,,,,,,,,,,,,174,D,triangle,0,0,,,,,,,,,,,,,,,,repeat,number,NA,d,0.7494,Hi,,,,,,0,,,,,,,,high,25,0,25,0,1,,,,,,,,,
298237,2022-11-21_11h40.54.277,vts_reward_expectancy_bt,2022.2.4,MacIntel,59.84082341,Chrome,1440,900,,,,,0,684,,,,,,,,,,,,,,,,,160,H,circle,1,1,,,,,,,,,,,,,,,,repeat,number,numRpt,f,0.8866,Hi,,,,,,0,,,,,,,,high,26,0,26,0,1,,,,,,,,,
298237,2022-11-21_11h40.54.277,vts_reward_expectancy_bt,2022.2.4,MacIntel,59.84082341,Chrome,1440,900,,,,,1,685,,,,,,,,,,,,,,,,,139,F,star,1,0,,,,,,,,,,,,,,,,switch,letter,lettSwt,j,0.6516,Lo,,,,,,0,,,,,,,,high,27,0,27,0,1,,,,,,,,,
298237,2022-11-21_11h40.54.277,vts_reward_expectancy_bt,2022.2.4,MacIntel,59.84082341,Chrome,1440,900,,,,,0,685,,,,,,,,,,,,,,,,,146,S,hexagon,0,0,,,,,,,,,,,,,,,,repeat,letter,NA,j,0.3974,Lo,,,,,,0,,,,,,,,high,28,0,28,0,1,,,,,,,,,
298237,2022-11-21_11h40.54.277,vts_reward_expectancy_bt,2022.2.4,MacIntel,59.84082341,Chrome,1440,900,,,,,1,686,,,,,,,,,,,,,,,,,181,U,triangle,1,1,,,,,,,,,,,,,,,,switch,number,numSwt,f,0.95,Lo,,,,,,0,,,,,,,,high,29,0,29,0,1,,,,,,,,,
298237,2022-11-21_11h40.54.277,vts_reward_expectancy_bt,2022.2.4,MacIntel,59.84082341,Chrome,1440,900,,,,,10,696,,,,,,,,,,,,,,,,,132,B,star,1,0,,,,,,,,,,,,,,,,switch,letter,lettSwt,j,0.6643,Lo,,,,,,0,,,,,,,,high,30,0,30,0,1,,,,,,,,,
298237,2022-11-21_11h40.54.277,vts_reward_expectancy_bt,2022.2.4,MacIntel,59.84082341,Chrome,1440,900,,,,,0,696,,,,,,,,,,,,,,,,,125,W,circle,1,0,,,,,,,,,,,,,,,,repeat,letter,lettRpt,k,0.5985,Hi,,,,,,0,,,,,,,,high,31,0,31,0,1,,,,,,,,,
298237,2022-11-21_11h40.54.277,vts_reward_expectancy_bt,2022.2.4,MacIntel,59.84082341,Chrome,1440,900,,,,,10,706,,,,,,,,,,,,,,,,,125,W,circle,1,0,,,,,,,,,,,,,,,,repeat,letter,lettRpt,k,0.5357,Hi,,,,,,1,,,,,,space,14.3876,high,0,0,0,0,1,,,,,,,,,
298237,2022-11-21_11h40.54.277,vts_reward_expectancy_bt,2022.2.4,MacIntel,59.84082341,Chrome,1440,900,,,,,1,707,,,,,,,,,,,,,,,,,167,H,star,1,0,,,,,,,,,,,,,,,,repeat,letter,lettRpt,j,0.5744,Lo,,,,,,1,,,,,,,,high,1,0,1,0,1,,,,,,,,,
298237,2022-11-21_11h40.54.277,vts_reward_expectancy_bt,2022.2.4,MacIntel,59.84082341,Chrome,1440,900,,,,,1,708,,,,,,,,,,,,,,,,,132,Y,triangle,1,0,,,,,,,,,,,,,,,,switch,number,numSwt,d,0.4671,Lo,,,,,,1,,,,,,,,high,2,0,2,0,1,,,,,,,,,
298237,2022-11-21_11h40.54.277,vts_reward_expectancy_bt,2022.2.4,MacIntel,59.84082341,Chrome,1440,900,,,,,10,718,,,,,,,,,,,,,,,,,139,F,hexagon,1,0,,,,,,,,,,,,,,,,repeat,number,numRpt,d,0.5504,Hi,,,,,,1,,,,,,,,high,3,0,3,0,1,,,,,,,,,
298237,2022-11-21_11h40.54.277,vts_reward_expectancy_bt,2022.2.4,MacIntel,59.84082341,Chrome,1440,900,,,,,0,718,,,,,,,,,,,,,,,,,160,S,circle,1,0,,,,,,,,,,,,,,,,repeat,number,numRpt,f,0.7174,Hi,,,,,,1,,,,,,,,high,4,0,4,0,1,,,,,,,,,
298237,2022-11-21_11h40.54.277,vts_reward_expectancy_bt,2022.2.4,MacIntel,59.84082341,Chrome,1440,900,,,,,1,719,,,,,,,,,,,,,,,,,146,B,star,1,0,,,,,,,,,,,,,,,,switch,letter,lettSwt,j,0.4691,Lo,,,,,,1,,,,,,,,high,5,0,5,0,1,,,,,,,,,
298237,2022-11-21_11h40.54.277,vts_reward_expectancy_bt,2022.2.4,MacIntel,59.84082341,Chrome,1440,900,,,,,0,719,,,,,,,,,,,,,,,,,181,D,triangle,0,0,,,,,,,,,,,,,,,,switch,number,NA,d,0.5686,Lo,,,,,,1,,,,,,,,high,6,0,6,0,1,,,,,,,,,
298237,2022-11-21_11h40.54.277,vts_reward_expectancy_bt,2022.2.4,MacIntel,59.84082341,Chrome,1440,900,,,,,0,719,,,,,,,,,,,,,,,,,174,U,hexagon,1,1,,,,,,,,,,,,,,,,repeat,number,numRpt,f,0.7845,Hi,,,,,,1,,,,,,,,high,7,0,7,0,1,,,,,,,,,
298237,2022-11-21_11h40.54.277,vts_reward_expectancy_bt,2022.2.4,MacIntel,59.84082341,Chrome,1440,900,,,,,10,729,,,,,,,,,,,,,,,,,125,W,hexagon,1,0,,,,,,,,,,,,,,,,switch,letter,lettSwt,k,0.5486,Hi,,,,,,1,,,,,,,,high,8,0,8,0,1,,,,,,,,,
298237,2022-11-21_11h40.54.277,vts_reward_expectancy_bt,2022.2.4,MacIntel,59.84082341,Chrome,1440,900,,,,,0,729,,,,,,,,,,,,,,,,,167,H,circle,1,0,,,,,,,,,,,,,,,,switch,number,numSwt,f,0.5824,Hi,,,,,,1,,,,,,,,high,9,0,9,0,1,,,,,,,,,
298237,2022-11-21_11h40.54.277,vts_reward_expectancy_bt,2022.2.4,MacIntel,59.84082341,Chrome,1440,900,,,,,1,730,,,,,,,,,,,,,,,,,132,Y,star,1,0,,,,,,,,,,,,,,,,switch,letter,lettSwt,k,0.6514,Lo,,,,,,1,,,,,,,,high,10,0,10,0,1,,,,,,,,,
298237,2022-11-21_11h40.54.277,vts_reward_expectancy_bt,2022.2.4,MacIntel,59.84082341,Chrome,1440,900,,,,,1,731,,,,,,,,,,,,,,,,,139,F,triangle,1,0,,,,,,,,,,,,,,,,switch,number,numSwt,d,0.717,Lo,,,,,,1,,,,,,,,high,11,0,11,0,1,,,,,,,,,
298237,2022-11-21_11h40.54.277,vts_reward_expectancy_bt,2022.2.4,MacIntel,59.84082341,Chrome,1440,900,,,,,1,732,,,,,,,,,,,,,,,,,160,S,star,1,0,,,,,,,,,,,,,,,,repeat,number,numRpt,f,0.788,Lo,,,,,,1,,,,,,,,high,12,0,12,0,1,,,,,,,,,
298237,2022-11-21_11h40.54.277,vts_reward_expectancy_bt,2022.2.4,MacIntel,59.84082341,Chrome,1440,900,,,,,0,732,,,,,,,,,,,,,,,,,146,B,hexagon,1,0,,,,,,,,,,,,,,,,switch,letter,lettSwt,j,0.8162,Hi,,,,,,1,,,,,,,,high,13,0,13,0,1,,,,,,,,,
298237,2022-11-21_11h40.54.277,vts_reward_expectancy_bt,2022.2.4,MacIntel,59.84082341,Chrome,1440,900,,,,,1,733,,,,,,,,,,,,,,,,,181,D,triangle,1,0,,,,,,,,,,,,,,,,repeat,letter,lettRpt,j,0.5806,Lo,,,,,,1,,,,,,,,high,14,0,14,0,1,,,,,,,,,
298237,2022-11-21_11h40.54.277,vts_reward_expectancy_bt,2022.2.4,MacIntel,59.84082341,Chrome,1440,900,,,,,10,743,,,,,,,,,,,,,,,,,174,U,circle,1,0,,,,,,,,,,,,,,,,repeat,letter,lettRpt,k,0.4819,Hi,,,,,,1,,,,,,,,high,15,0,15,0,1,,,,,,,,,
298237,2022-11-21_11h40.54.277,vts_reward_expectancy_bt,2022.2.4,MacIntel,59.84082341,Chrome,1440,900,,,,,10,753,,,,,,,,,,,,,,,,,174,W,circle,1,0,,,,,,,,,,,,,,,,switch,number,numSwt,f,0.452,Hi,,,,,,1,,,,,,,,high,16,0,16,0,1,,,,,,,,,
298237,2022-11-21_11h40.54.277,vts_reward_expectancy_bt,2022.2.4,MacIntel,59.84082341,Chrome,1440,900,,,,,1,754,,,,,,,,,,,,,,,,,181,S,star,1,0,,,,,,,,,,,,,,,,repeat,number,numRpt,f,0.7208,Lo,,,,,,1,,,,,,,,high,17,0,17,0,1,,,,,,,,,
298237,2022-11-21_11h40.54.277,vts_reward_expectancy_bt,2022.2.4,MacIntel,59.84082341,Chrome,1440,900,,,,,0,754,,,,,,,,,,,,,,,,,139,F,hexagon,1,0,,,,,,,,,,,,,,,,repeat,number,numRpt,d,1.1329,Hi,,,,,,1,,,,,,,,high,18,0,18,0,1,,,,,,,,,
298237,2022-11-21_11h40.54.277,vts_reward_expectancy_bt,2022.2.4,MacIntel,59.84082341,Chrome,1440,900,,,,,10,764,,,,,,,,,,,,,,,,,167,H,triangle,1,0,,,,,,,,,,,,,,,,switch,letter,lettSwt,j,0.8491,Lo,,,,,,1,,,,,,,,high,19,0,19,0,1,,,,,,,,,
298237,2022-11-21_11h40.54.277,vts_reward_expectancy_bt,2022.2.4,MacIntel,59.84082341,Chrome,1440,900,,,,,0,764,,,,,,,,,,,,,,,,,146,U,circle,1,0,,,,,,,,,,,,,,,,switch,number,numSwt,d,0.7041,Hi,,,,,,1,,,,,,,,high,20,0,20,0,1,,,,,,,,,
298237,2022-11-21_11h40.54.277,vts_reward_expectancy_bt,2022.2.4,MacIntel,59.84082341,Chrome,1440,900,,,,,1,765,,,,,,,,,,,,,,,,,132,B,star,1,0,,,,,,,,,,,,,,,,switch,letter,lettSwt,j,0.6833,Lo,,,,,,1,,,,,,,,high,21,0,21,0,1,,,,,,,,,
298237,2022-11-21_11h40.54.277,vts_reward_expectancy_bt,2022.2.4,MacIntel,59.84082341,Chrome,1440,900,,,,,10,775,,,,,,,,,,,,,,,,,125,D,hexagon,1,0,,,,,,,,,,,,,,,,repeat,letter,lettRpt,j,0.4168,Hi,,,,,,1,,,,,,,,high,22,0,22,0,1,,,,,,,,,
298237,2022-11-21_11h40.54.277,vts_reward_expectancy_bt,2022.2.4,MacIntel,59.84082341,Chrome,1440,900,,,,,1,776,,,,,,,,,,,,,,,,,160,Y,triangle,1,0,,,,,,,,,,,,,,,,switch,number,numSwt,f,0.8369,Lo,,,,,,1,,,,,,,,high,23,0,23,0,1,,,,,,,,,
298237,2022-11-21_11h40.54.277,vts_reward_expectancy_bt,2022.2.4,MacIntel,59.84082341,Chrome,1440,900,,,,,1,777,,,,,,,,,,,,,,,,,160,W,star,1,0,,,,,,,,,,,,,,,,switch,letter,lettSwt,k,0.6558,Lo,,,,,,1,,,,,,,,high,24,0,24,0,1,,,,,,,,,
298237,2022-11-21_11h40.54.277,vts_reward_expectancy_bt,2022.2.4,MacIntel,59.84082341,Chrome,1440,900,,,,,1,778,,,,,,,,,,,,,,,,,139,Y,triangle,1,0,,,,,,,,,,,,,,,,repeat,letter,lettRpt,k,0.6042,Lo,,,,,,1,,,,,,,,high,25,0,25,0,1,,,,,,,,,
298237,2022-11-21_11h40.54.277,vts_reward_expectancy_bt,2022.2.4,MacIntel,59.84082341,Chrome,1440,900,,,,,10,788,,,,,,,,,,,,,,,,,125,S,hexagon,1,0,,,,,,,,,,,,,,,,switch,number,numSwt,d,0.5349,Hi,,,,,,1,,,,,,,,high,26,0,26,0,1,,,,,,,,,
298237,2022-11-21_11h40.54.277,vts_reward_expectancy_bt,2022.2.4,MacIntel,59.84082341,Chrome,1440,900,,,,,1,789,,,,,,,,,,,,,,,,,146,U,circle,1,0,,,,,,,,,,,,,,,,repeat,number,numRpt,d,0.5167,Hi,,,,,,1,,,,,,,,high,27,0,27,0,1,,,,,,,,,
298237,2022-11-21_11h40.54.277,vts_reward_expectancy_bt,2022.2.4,MacIntel,59.84082341,Chrome,1440,900,,,,,1,790,,,,,,,,,,,,,,,,,181,H,triangle,1,0,,,,,,,,,,,,,,,,repeat,number,numRpt,f,0.4958,Lo,,,,,,1,,,,,,,,high,28,0,28,0,1,,,,,,,,,
298237,2022-11-21_11h40.54.277,vts_reward_expectancy_bt,2022.2.4,MacIntel,59.84082341,Chrome,1440,900,,,,,1,791,,,,,,,,,,,,,,,,,174,F,circle,1,0,,,,,,,,,,,,,,,,switch,letter,lettSwt,j,0.5673,Hi,,,,,,1,,,,,,,,high,29,0,29,0,1,,,,,,,,,
298237,2022-11-21_11h40.54.277,vts_reward_expectancy_bt,2022.2.4,MacIntel,59.84082341,Chrome,1440,900,,,,,1,792,,,,,,,,,,,,,,,,,167,D,star,1,0,,,,,,,,,,,,,,,,repeat,letter,lettRpt,j,0.6169,Lo,,,,,,1,,,,,,,,high,30,0,30,0,1,,,,,,,,,
298237,2022-11-21_11h40.54.277,vts_reward_expectancy_bt,2022.2.4,MacIntel,59.84082341,Chrome,1440,900,,,,,0,792,,,,,,,,,,,,,,,,,132,B,hexagon,1,0,,,,,,,,,,,,,,,,repeat,letter,lettRpt,j,0.7013,Hi,,,,,,1,,,,,,,,high,31,0,31,0,1,,,,,,,,,
298237,2022-11-21_11h40.54.277,vts_reward_expectancy_bt,2022.2.4,MacIntel,59.84082341,Chrome,1440,900,,,,,0,792,,,,,,,,,,,,,,,,,132,W,circle,1,0,,,,,,,,,,,,,,,,switch,number,numSwt,d,0.6158,Hi,,,,,,2,,,,,,space,1.7085,high,0,0,0,0,1,,,,,,,,,
298237,2022-11-21_11h40.54.277,vts_reward_expectancy_bt,2022.2.4,MacIntel,59.84082341,Chrome,1440,900,,,,,10,802,,,,,,,,,,,,,,,,,125,H,hexagon,1,0,,,,,,,,,,,,,,,,repeat,number,numRpt,d,0.4988,Hi,,,,,,2,,,,,,,,high,1,0,1,0,1,,,,,,,,,
298237,2022-11-21_11h40.54.277,vts_reward_expectancy_bt,2022.2.4,MacIntel,59.84082341,Chrome,1440,900,,,,,0,802,,,,,,,,,,,,,,,,,160,S,triangle,0,0,,,,,,,,,,,,,,,,switch,letter,NA,j,0.4161,Hi,,,,,,2,,,,,,,,high,2,0,2,0,1,,,,,,,,,
298237,2022-11-21_11h40.54.277,vts_reward_expectancy_bt,2022.2.4,MacIntel,59.84082341,Chrome,1440,900,,,,,1,803,,,,,,,,,,,,,,,,,139,D,star,1,1,,,,,,,,,,,,,,,,repeat,letter,lettRpt,j,0.7661,Lo,,,,,,2,,,,,,,,high,3,0,3,0,1,,,,,,,,,
298237,2022-11-21_11h40.54.277,vts_reward_expectancy_bt,2022.2.4,MacIntel,59.84082341,Chrome,1440,900,,,,,10,813,,,,,,,,,,,,,,,,,174,Y,circle,1,0,,,,,,,,,,,,,,,,repeat,letter,lettRpt,k,0.401,Hi,,,,,,2,,,,,,,,high,4,0,4,0,1,,,,,,,,,
298237,2022-11-21_11h40.54.277,vts_reward_expectancy_bt,2022.2.4,MacIntel,59.84082341,Chrome,1440,900,,,,,0,813,,,,,,,,,,,,,,,,,181,U,hexagon,1,0,,,,,,,,,,,,,,,,switch,number,numSwt,f,0.5961,Hi,,,,,,2,,,,,,,,high,5,0,5,0,1,,,,,,,,,
298237,2022-11-21_11h40.54.277,vts_reward_expectancy_bt,2022.2.4,MacIntel,59.84082341,Chrome,1440,900,,,,,1,814,,,,,,,,,,,,,,,,,146,F,triangle,1,0,,,,,,,,,,,,,,,,repeat,number,numRpt,d,0.7011,Lo,,,,,,2,,,,,,,,high,6,0,6,0,1,,,,,,,,,
298237,2022-11-21_11h40.54.277,vts_reward_expectancy_bt,2022.2.4,MacIntel,59.84082341,Chrome,1440,900,,,,,10,824,,,,,,,,,,,,,,,,,167,B,star,1,0,,,,,,,,,,,,,,,,switch,letter,lettSwt,j,0.5168,Lo,,,,,,2,,,,,,,,high,7,0,7,0,1,,,,,,,,,
298237,2022-11-21_11h40.54.277,vts_reward_expectancy_bt,2022.2.4,MacIntel,59.84082341,Chrome,1440,900,,,,,1,825,,,,,,,,,,,,,,,,,132,W,triangle,1,0,,,,,,,,,,,,,,,,repeat,letter,lettRpt,k,0.549,Lo,,,,,,2,,,,,,,,high,8,0,8,0,1,,,,,,,,,
298237,2022-11-21_11h40.54.277,vts_reward_expectancy_bt,2022.2.4,MacIntel,59.84082341,Chrome,1440,900,,,,,0,825,,,,,,,,,,,,,,,,,125,H,star,0,0,,,,,,,,,,,,,,,,repeat,letter,NA,k,0.4169,Lo,,,,,,2,,,,,,,,high,9,0,9,0,1,,,,,,,,,
298237,2022-11-21_11h40.54.277,vts_reward_expectancy_bt,2022.2.4,MacIntel,59.84082341,Chrome,1440,900,,,,,0,825,,,,,,,,,,,,,,,,,160,S,hexagon,1,1,,,,,,,,,,,,,,,,switch,number,numSwt,f,0.6328,Hi,,,,,,2,,,,,,,,high,10,0,10,0,1,,,,,,,,,
298237,2022-11-21_11h40.54.277,vts_reward_expectancy_bt,2022.2.4,MacIntel,59.84082341,Chrome,1440,900,,,,,10,835,,,,,,,,,,,,,,,,,139,D,circle,1,0,,,,,,,,,,,,,,,,repeat,number,numRpt,d,0.5662,Hi,,,,,,2,,,,,,,,high,11,0,11,0,1,,,,,,,,,
298237,2022-11-21_11h40.54.277,vts_reward_expectancy_bt,2022.2.4,MacIntel,59.84082341,Chrome,1440,900,,,,,0,835,,,,,,,,,,,,,,,,,174,Y,triangle,0,0,,,,,,,,,,,,,,,,repeat,number,NA,d,0.7652,Hi,,,,,,2,,,,,,,,high,12,0,12,0,1,,,,,,,,,
298237,2022-11-21_11h40.54.277,vts_reward_expectancy_bt,2022.2.4,MacIntel,59.84082341,Chrome,1440,900,,,,,1,836,,,,,,,,,,,,,,,,,181,U,star,1,1,,,,,,,,,,,,,,,,switch,letter,lettSwt,k,0.5352,Lo,,,,,,2,,,,,,,,high,13,0,13,0,1,,,,,,,,,
298237,2022-11-21_11h40.54.277,vts_reward_expectancy_bt,2022.2.4,MacIntel,59.84082341,Chrome,1440,900,,,,,0,836,,,,,,,,,,,,,,,,,146,F,hexagon,1,0,,,,,,,,,,,,,,,,repeat,letter,lettRpt,j,0.8702,Hi,,,,,,2,,,,,,,,high,14,0,14,0,1,,,,,,,,,
298237,2022-11-21_11h40.54.277,vts_reward_expectancy_bt,2022.2.4,MacIntel,59.84082341,Chrome,1440,900,,,,,0,836,,,,,,,,,,,,,,,,,167,B,circle,1,0,,,,,,,,,,,,,,,,switch,number,numSwt,f,0.7164,Hi,,,,,,2,,,,,,,,high,15,0,15,0,1,,,,,,,,,
298237,2022-11-21_11h40.54.277,vts_reward_expectancy_bt,2022.2.4,MacIntel,59.84082341,Chrome,1440,900,,,,,0,836,,,,,,,,,,,,,,,,,125,Y,circle,1,0,,,,,,,,,,,,,,,,repeat,number,numRpt,d,0.7165,Hi,,,,,,2,,,,,,,,high,16,0,16,0,1,,,,,,,,,
298237,2022-11-21_11h40.54.277,vts_reward_expectancy_bt,2022.2.4,MacIntel,59.84082341,Chrome,1440,900,,,,,0,836,,,,,,,,,,,,,,,,,160,U,hexagon,1,0,,,,,,,,,,,,,,,,switch,letter,lettSwt,k,1.2691,Hi,,,,,,2,,,,,,,,high,17,0,17,0,1,,,,,,,,,
298237,2022-11-21_11h40.54.277,vts_reward_expectancy_bt,2022.2.4,MacIntel,59.84082341,Chrome,1440,900,,,,,1,837,,,,,,,,,,,,,,,,,181,D,triangle,1,0,,,,,,,,,,,,,,,,repeat,letter,lettRpt,j,0.6841,Lo,,,,,,2,,,,,,,,high,18,0,18,0,1,,,,,,,,,
298237,2022-11-21_11h40.54.277,vts_reward_expectancy_bt,2022.2.4,MacIntel,59.84082341,Chrome,1440,900,,,,,1,838,,,,,,,,,,,,,,,,,139,H,star,1,0,,,,,,,,,,,,,,,,switch,number,numSwt,d,0.5535,Lo,,,,,,2,,,,,,,,high,19,0,19,0,1,,,,,,,,,
298237,2022-11-21_11h40.54.277,vts_reward_expectancy_bt,2022.2.4,MacIntel,59.84082341,Chrome,1440,900,,,,,1,839,,,,,,,,,,,,,,,,,174,F,star,1,0,,,,,,,,,,,,,,,,repeat,number,numRpt,f,1.0832,Lo,,,,,,2,,,,,,,,high,20,0,20,0,1,,,,,,,,,
298237,2022-11-21_11h40.54.277,vts_reward_expectancy_bt,2022.2.4,MacIntel,59.84082341,Chrome,1440,900,,,,,1,840,,,,,,,,,,,,,,,,,146,B,triangle,1,0,,,,,,,,,,,,,,,,switch,letter,lettSwt,j,0.4987,Lo,,,,,,2,,,,,,,,high,21,0,21,0,1,,,,,,,,,
298237,2022-11-21_11h40.54.277,vts_reward_expectancy_bt,2022.2.4,MacIntel,59.84082341,Chrome,1440,900,,,,,1,841,,,,,,,,,,,,,,,,,132,S,hexagon,1,0,,,,,,,,,,,,,,,,repeat,letter,lettRpt,k,0.5328,Hi,,,,,,2,,,,,,,,high,22,0,22,0,1,,,,,,,,,
298237,2022-11-21_11h40.54.277,vts_reward_expectancy_bt,2022.2.4,MacIntel,59.84082341,Chrome,1440,900,,,,,0,841,,,,,,,,,,,,,,,,,167,W,circle,1,0,,,,,,,,,,,,,,,,repeat,letter,lettRpt,k,0.7157,Hi,,,,,,2,,,,,,,,high,23,0,23,0,1,,,,,,,,,
298237,2022-11-21_11h40.54.277,vts_reward_expectancy_bt,2022.2.4,MacIntel,59.84082341,Chrome,1440,900,,,,,1,842,,,,,,,,,,,,,,,,,132,U,star,1,0,,,,,,,,,,,,,,,,repeat,letter,lettRpt,k,0.5646,Lo,,,,,,2,,,,,,,,high,24,0,24,0,1,,,,,,,,,
298237,2022-11-21_11h40.54.277,vts_reward_expectancy_bt,2022.2.4,MacIntel,59.84082341,Chrome,1440,900,,,,,10,852,,,,,,,,,,,,,,,,,174,B,circle,1,0,,,,,,,,,,,,,,,,repeat,letter,lettRpt,j,0.3994,Hi,,,,,,2,,,,,,,,high,25,0,25,0,1,,,,,,,,,
298237,2022-11-21_11h40.54.277,vts_reward_expectancy_bt,2022.2.4,MacIntel,59.84082341,Chrome,1440,900,,,,,10,862,,,,,,,,,,,,,,,,,125,H,hexagon,1,0,,,,,,,,,,,,,,,,switch,number,numSwt,d,0.4895,Hi,,,,,,2,,,,,,,,high,26,0,26,0,1,,,,,,,,,
298237,2022-11-21_11h40.54.277,vts_reward_expectancy_bt,2022.2.4,MacIntel,59.84082341,Chrome,1440,900,,,,,1,863,,,,,,,,,,,,,,,,,181,F,triangle,1,0,,,,,,,,,,,,,,,,repeat,number,numRpt,f,0.5325,Lo,,,,,,2,,,,,,,,high,27,0,27,0,1,,,,,,,,,
298237,2022-11-21_11h40.54.277,vts_reward_expectancy_bt,2022.2.4,MacIntel,59.84082341,Chrome,1440,900,,,,,1,864,,,,,,,,,,,,,,,,,167,S,triangle,1,0,,,,,,,,,,,,,,,,repeat,number,numRpt,f,1.1011,Lo,,,,,,2,,,,,,,,high,28,0,28,0,1,,,,,,,,,
298237,2022-11-21_11h40.54.277,vts_reward_expectancy_bt,2022.2.4,MacIntel,59.84082341,Chrome,1440,900,,,,,0,864,,,,,,,,,,,,,,,,,146,D,hexagon,1,0,,,,,,,,,,,,,,,,switch,letter,lettSwt,j,0.6323,Hi,,,,,,2,,,,,,,,high,29,0,29,0,1,,,,,,,,,
298237,2022-11-21_11h40.54.277,vts_reward_expectancy_bt,2022.2.4,MacIntel,59.84082341,Chrome,1440,900,,,,,10,874,,,,,,,,,,,,,,,,,160,W,circle,1,0,,,,,,,,,,,,,,,,repeat,letter,lettRpt,k,0.4495,Hi,,,,,,2,,,,,,,,high,30,0,30,0,1,,,,,,,,,
298237,2022-11-21_11h40.54.277,vts_reward_expectancy_bt,2022.2.4,MacIntel,59.84082341,Chrome,1440,900,,,,,10,884,,,,,,,,,,,,,,,,,139,Y,star,1,0,,,,,,,,,,,,,,,,repeat,letter,lettRpt,k,1.7728,Lo,,,,,,2,,,,,,,,high,31,0,31,0,1,,,,,,,,,
298237,2022-11-21_11h40.54.277,vts_reward_expectancy_bt,2022.2.4,MacIntel,59.84082341,Chrome,1440,900,,,,,1,885,,,,,,,,,,,,,,,,,132,B,star,1,0,,,,,,,,,,,,,,,,repeat,letter,lettRpt,j,0.6555,Lo,,,,,,3,,,,,,space,1.21,high,0,0,0,0,1,,,,,,,,,
298237,2022-11-21_11h40.54.277,vts_reward_expectancy_bt,2022.2.4,MacIntel,59.84082341,Chrome,1440,900,,,,,10,895,,,,,,,,,,,,,,,,,167,Y,circle,1,0,,,,,,,,,,,,,,,,repeat,letter,lettRpt,k,0.4148,Hi,,,,,,3,,,,,,,,high,1,0,1,0,1,,,,,,,,,
298237,2022-11-21_11h40.54.277,vts_reward_expectancy_bt,2022.2.4,MacIntel,59.84082341,Chrome,1440,900,,,,,0,895,,,,,,,,,,,,,,,,,146,D,hexagon,1,0,,,,,,,,,,,,,,,,repeat,letter,lettRpt,j,0.6378,Hi,,,,,,3,,,,,,,,high,2,0,2,0,1,,,,,,,,,
298237,2022-11-21_11h40.54.277,vts_reward_expectancy_bt,2022.2.4,MacIntel,59.84082341,Chrome,1440,900,,,,,1,896,,,,,,,,,,,,,,,,,181,W,triangle,1,0,,,,,,,,,,,,,,,,switch,number,numSwt,f,1.4382,Lo,,,,,,3,,,,,,,,high,3,0,3,0,1,,,,,,,,,
298237,2022-11-21_11h40.54.277,vts_reward_expectancy_bt,2022.2.4,MacIntel,59.84082341,Chrome,1440,900,,,,,1,897,,,,,,,,,,,,,,,,,139,F,star,1,0,,,,,,,,,,,,,,,,switch,letter,lettSwt,j,1.7229,Lo,,,,,,3,,,,,,,,high,4,0,4,0,1,,,,,,,,,
298237,2022-11-21_11h40.54.277,vts_reward_expectancy_bt,2022.2.4,MacIntel,59.84082341,Chrome,1440,900,,,,,1,898,,,,,,,,,,,,,,,,,174,U,circle,1,0,,,,,,,,,,,,,,,,repeat,letter,lettRpt,k,0.5154,Hi,,,,,,3,,,,,,,,high,5,0,5,0,1,,,,,,,,,
298237,2022-11-21_11h40.54.277,vts_reward_expectancy_bt,2022.2.4,MacIntel,59.84082341,Chrome,1440,900,,,,,0,898,,,,,,,,,,,,,,,,,160,S,hexagon,1,0,,,,,,,,,,,,,,,,switch,number,numSwt,f,1.2036,Hi,,,,,,3,,,,,,,,high,6,0,6,0,1,,,,,,,,,
298237,2022-11-21_11h40.54.277,vts_reward_expectancy_bt,2022.2.4,MacIntel,59.84082341,Chrome,1440,900,,,,,1,899,,,,,,,,,,,,,,,,,125,H,triangle,1,0,,,,,,,,,,,,,,,,repeat,number,numRpt,d,1.148,Lo,,,,,,3,,,,,,,,high,7,0,7,0,1,,,,,,,,,
298237,2022-11-21_11h40.54.277,vts_reward_expectancy_bt,2022.2.4,MacIntel,59.84082341,Chrome,1440,900,,,,,0,899,,,,,,,,,,,,,,,,,132,B,hexagon,1,0,,,,,,,,,,,,,,,,repeat,number,numRpt,d,0.7709,Hi,,,,,,3,,,,,,,,high,8,0,8,0,1,,,,,,,,,
298237,2022-11-21_11h40.54.277,vts_reward_expectancy_bt,2022.2.4,MacIntel,59.84082341,Chrome,1440,900,,,,,1,900,,,,,,,,,,,,,,,,,167,Y,triangle,1,0,,,,,,,,,,,,,,,,switch,letter,lettSwt,k,0.5493,Lo,,,,,,3,,,,,,,,high,9,0,9,0,1,,,,,,,,,
298237,2022-11-21_11h40.54.277,vts_reward_expectancy_bt,2022.2.4,MacIntel,59.84082341,Chrome,1440,900,,,,,1,901,,,,,,,,,,,,,,,,,146,D,star,1,0,,,,,,,,,,,,,,,,repeat,letter,lettRpt,j,2.2377,Lo,,,,,,3,,,,,,,,high,10,0,10,0,1,,,,,,,,,
298237,2022-11-21_11h40.54.277,vts_reward_expectancy_bt,2022.2.4,MacIntel,59.84082341,Chrome,1440,900,,,,,10,911,,,,,,,,,,,,,,,,,181,W,circle,1,0,,,,,,,,,,,,,,,,repeat,letter,lettRpt,k,0.4716,Hi,,,,,,3,,,,,,,,high,11,0,11,0,1,,,,,,,,,
298237,2022-11-21_11h40.54.277,vts_reward_expectancy_bt,2022.2.4,MacIntel,59.84082341,Chrome,1440,900,,,,,1,912,,,,,,,,,,,,,,,,,139,F,triangle,1,0,,,,,,,,,,,,,,,,switch,number,numSwt,d,2.3595,Lo,,,,,,3,,,,,,,,high,12,0,12,0,1,,,,,,,,,
298237,2022-11-21_11h40.54.277,vts_reward_expectancy_bt,2022.2.4,MacIntel,59.84082341,Chrome,1440,900,,,,,10,922,,,,,,,,,,,,,,,,,174,U,circle,1,0,,,,,,,,,,,,,,,,repeat,number,numRpt,f,0.5627,Hi,,,,,,3,,,,,,,,high,13,0,13,0,1,,,,,,,,,
298237,2022-11-21_11h40.54.277,vts_reward_expectancy_bt,2022.2.4,MacIntel,59.84082341,Chrome,1440,900,,,,,0,922,,,,,,,,,,,,,,,,,160,S,hexagon,1,0,,,,,,,,,,,,,,,,switch,letter,lettSwt,k,0.5491,Hi,,,,,,3,,,,,,,,high,14,0,14,0,1,,,,,,,,,
298237,2022-11-21_11h40.54.277,vts_reward_expectancy_bt,2022.2.4,MacIntel,59.84082341,Chrome,1440,900,,,,,1,923,,,,,,,,,,,,,,,,,125,H,star,1,0,,,,,,,,,,,,,,,,repeat,letter,lettRpt,j,2.7405,Lo,,,,,,3,,,,,,,,high,15,0,15,0,1,,,,,,,,,
298237,2022-11-21_11h40.54.277,vts_reward_expectancy_bt,2022.2.4,MacIntel,59.84082341,Chrome,1440,900,,,,,10,933,,,,,,,,,,,,,,,,,160,D,circle,1,0,,,,,,,,,,,,,,,,repeat,letter,lettRpt,j,0.5189,Hi,,,,,,3,,,,,,,,high,16,0,16,0,1,,,,,,,,,
298237,2022-11-21_11h40.54.277,vts_reward_expectancy_bt,2022.2.4,MacIntel,59.84082341,Chrome,1440,900,,,,,10,943,,,,,,,,,,,,,,,,,132,W,hexagon,1,0,,,,,,,,,,,,,,,,switch,number,numSwt,d,0.4966,Hi,,,,,,3,,,,,,,,high,17,0,17,0,1,,,,,,,,,
298237,2022-11-21_11h40.54.277,vts_reward_expectancy_bt,2022.2.4,MacIntel,59.84082341,Chrome,1440,900,,,,,1,944,,,,,,,,,,,,,,,,,146,Y,triangle,1,0,,,,,,,,,,,,,,,,repeat,number,numRpt,d,0.6658,Lo,,,,,,3,,,,,,,,high,18,0,18,0,1,,,,,,,,,
298237,2022-11-21_11h40.54.277,vts_reward_expectancy_bt,2022.2.4,MacIntel,59.84082341,Chrome,1440,900,,,,,0,944,,,,,,,,,,,,,,,,,174,B,star,-1,0,,,,,,,,,,,,,,,,switch,no_choice,NA,,,Lo,,,,,,3,,,,,,,,high,19,0,19,0,1,,,,,,,,,
298237,2022-11-21_11h40.54.277,vts_reward_expectancy_bt,2022.2.4,MacIntel,59.84082341,Chrome,1440,900,,,,,1,945,,,,,,,,,,,,,,,,,139,S,triangle,1,0,,,,,,,,,,,,,,,,switch,letter,lettSwt,k,1.2565,Lo,,,,,,3,,,,,,,,high,20,0,20,0,1,,,,,,,,,
298237,2022-11-21_11h40.54.277,vts_reward_expectancy_bt,2022.2.4,MacIntel,59.84082341,Chrome,1440,900,,,,,0,945,,,,,,,,,,,,,,,,,125,U,circle,1,0,,,,,,,,,,,,,,,,repeat,letter,lettRpt,k,0.8039,Hi,,,,,,3,,,,,,,,high,21,0,21,0,1,,,,,,,,,
298237,2022-11-21_11h40.54.277,vts_reward_expectancy_bt,2022.2.4,MacIntel,59.84082341,Chrome,1440,900,,,,,1,946,,,,,,,,,,,,,,,,,167,H,star,1,0,,,,,,,,,,,,,,,,switch,number,numSwt,f,0.9326,Lo,,,,,,3,,,,,,,,high,22,0,22,0,1,,,,,,,,,
298237,2022-11-21_11h40.54.277,vts_reward_expectancy_bt,2022.2.4,MacIntel,59.84082341,Chrome,1440,900,,,,,10,956,,,,,,,,,,,,,,,,,181,F,hexagon,1,0,,,,,,,,,,,,,,,,switch,letter,lettSwt,j,0.4823,Hi,,,,,,3,,,,,,,,high,23,0,23,0,1,,,,,,,,,
298237,2022-11-21_11h40.54.277,vts_reward_expectancy_bt,2022.2.4,MacIntel,59.84082341,Chrome,1440,900,,,,,10,966,,,,,,,,,,,,,,,,,160,D,circle,1,0,,,,,,,,,,,,,,,,repeat,letter,lettRpt,j,0.4328,Hi,,,,,,3,,,,,,,,high,24,0,24,0,1,,,,,,,,,
298237,2022-11-21_11h40.54.277,vts_reward_expectancy_bt,2022.2.4,MacIntel,59.84082341,Chrome,1440,900,,,,,10,976,,,,,,,,,,,,,,,,,146,U,hexagon,1,0,,,,,,,,,,,,,,,,repeat,letter,lettRpt,k,0.5002,Hi,,,,,,3,,,,,,,,high,25,0,25,0,1,,,,,,,,,
298237,2022-11-21_11h40.54.277,vts_reward_expectancy_bt,2022.2.4,MacIntel,59.84082341,Chrome,1440,900,,,,,1,977,,,,,,,,,,,,,,,,,167,W,star,1,0,,,,,,,,,,,,,,,,switch,number,numSwt,f,1.0856,Lo,,,,,,3,,,,,,,,high,26,0,26,0,1,,,,,,,,,
298237,2022-11-21_11h40.54.277,vts_reward_expectancy_bt,2022.2.4,MacIntel,59.84082341,Chrome,1440,900,,,,,1,978,,,,,,,,,,,,,,,,,139,S,triangle,1,0,,,,,,,,,,,,,,,,repeat,number,numRpt,d,0.566,Lo,,,,,,3,,,,,,,,high,27,0,27,0,1,,,,,,,,,
298237,2022-11-21_11h40.54.277,vts_reward_expectancy_bt,2022.2.4,MacIntel,59.84082341,Chrome,1440,900,,,,,10,988,,,,,,,,,,,,,,,,,181,B,circle,1,0,,,,,,,,,,,,,,,,switch,letter,lettSwt,j,0.3821,Hi,,,,,,3,,,,,,,,high,28,0,28,0,1,,,,,,,,,
298237,2022-11-21_11h40.54.277,vts_reward_expectancy_bt,2022.2.4,MacIntel,59.84082341,Chrome,1440,900,,,,,1,989,,,,,,,,,,,,,,,,,174,H,triangle,1,0,,,,,,,,,,,,,,,,repeat,letter,lettRpt,j,0.5798,Lo,,,,,,3,,,,,,,,high,29,0,29,0,1,,,,,,,,,
298237,2022-11-21_11h40.54.277,vts_reward_expectancy_bt,2022.2.4,MacIntel,59.84082341,Chrome,1440,900,,,,,1,990,,,,,,,,,,,,,,,,,132,Y,star,1,0,,,,,,,,,,,,,,,,switch,number,numSwt,d,0.4819,Lo,,,,,,3,,,,,,,,high,30,0,30,0,1,,,,,,,,,
298237,2022-11-21_11h40.54.277,vts_reward_expectancy_bt,2022.2.4,MacIntel,59.84082341,Chrome,1440,900,,,,,10,1000,,,,,,,,,,,,,,,,,125,F,hexagon,1,0,,,,,,,,,,,,,,,,repeat,number,numRpt,d,0.4971,Hi,,,,,,3,,,,,,,,high,31,0,31,0,1,,,,,,,,,
298237,2022-11-21_11h40.54.277,vts_reward_expectancy_bt,2022.2.4,MacIntel,59.84082341,Chrome,1440,900,,,,,1,1001,,,,,,,,,,,,,,,,,174,D,star,1,0,,,,,,,,,,,,,,,,switch,letter,lettSwt,j,1.4914,Lo,,,,,,4,,,,,,space,1.1076,high,0,0,0,0,1,,,,,,,,,
298237,2022-11-21_11h40.54.277,vts_reward_expectancy_bt,2022.2.4,MacIntel,59.84082341,Chrome,1440,900,,,,,0,1001,,,,,,,,,,,,,,,,,125,U,hexagon,1,0,,,,,,,,,,,,,,,,repeat,letter,lettRpt,k,0.5202,Hi,,,,,,4,,,,,,,,high,1,0,1,0,1,,,,,,,,,
298237,2022-11-21_11h40.54.277,vts_reward_expectancy_bt,2022.2.4,MacIntel,59.84082341,Chrome,1440,900,,,,,0,1001,,,,,,,,,,,,,,,,,167,Y,triangle,0,0,,,,,,,,,,,,,,,,switch,number,NA,d,0.6353,Hi,,,,,,4,,,,,,,,high,2,0,2,0,1,,,,,,,,,
298237,2022-11-21_11h40.54.277,vts_reward_expectancy_bt,2022.2.4,MacIntel,59.84082341,Chrome,1440,900,,,,,10,1011,,,,,,,,,,,,,,,,,146,H,circle,1,1,,,,,,,,,,,,,,,,repeat,number,numRpt,d,0.3655,Hi,,,,,,4,,,,,,,,high,3,0,3,0,1,,,,,,,,,
298237,2022-11-21_11h40.54.277,vts_reward_expectancy_bt,2022.2.4,MacIntel,59.84082341,Chrome,1440,900,,,,,1,1012,,,,,,,,,,,,,,,,,160,S,star,1,0,,,,,,,,,,,,,,,,repeat,number,numRpt,f,1.8036,Lo,,,,,,4,,,,,,,,high,4,0,4,0,1,,,,,,,,,
298237,2022-11-21_11h40.54.277,vts_reward_expectancy_bt,2022.2.4,MacIntel,59.84082341,Chrome,1440,900,,,,,10,1022,,,,,,,,,,,,,,,,,181,B,hexagon,1,0,,,,,,,,,,,,,,,,switch,letter,lettSwt,j,0.4325,Hi,,,,,,4,,,,,,,,high,5,0,5,0,1,,,,,,,,,
298237,2022-11-21_11h40.54.277,vts_reward_expectancy_bt,2022.2.4,MacIntel,59.84082341,Chrome,1440,900,,,,,1,1023,,,,,,,,,,,,,,,,,139,W,triangle,1,0,,,,,,,,,,,,,,,,repeat,letter,lettRpt,k,1.986,Lo,,,,,,4,,,,,,,,high,6,0,6,0,1,,,,,,,,,
298237,2022-11-21_11h40.54.277,vts_reward_expectancy_bt,2022.2.4,MacIntel,59.84082341,Chrome,1440,900,,,,,10,1033,,,,,,,,,,,,,,,,,132,F,circle,1,0,,,,,,,,,,,,,,,,switch,number,numSwt,d,0.4175,Hi,,,,,,4,,,,,,,,high,7,0,7,0,1,,,,,,,,,
298237,2022-11-21_11h40.54.277,vts_reward_expectancy_bt,2022.2.4,MacIntel,59.84082341,Chrome,1440,900,,,,,10,1043,,,,,,,,,,,,,,,,,174,D,circle,1,0,,,,,,,,,,,,,,,,repeat,number,numRpt,f,0.52,Hi,,,,,,4,,,,,,,,high,8,0,8,0,1,,,,,,,,,
298237,2022-11-21_11h40.54.277,vts_reward_expectancy_bt,2022.2.4,MacIntel,59.84082341,Chrome,1440,900,,,,,1,1044,,,,,,,,,,,,,,,,,125,U,triangle,1,0,,,,,,,,,,,,,,,,switch,letter,lettSwt,k,2.025,Lo,,,,,,4,,,,,,,,high,9,0,9,0,1,,,,,,,,,
298237,2022-11-21_11h40.54.277,vts_reward_expectancy_bt,2022.2.4,MacIntel,59.84082341,Chrome,1440,900,,,,,0,1044,,,,,,,,,,,,,,,,,167,Y,hexagon,1,0,,,,,,,,,,,,,,,,repeat,letter,lettRpt,k,0.6384,Hi,,,,,,4,,,,,,,,high,10,0,10,0,1,,,,,,,,,
298237,2022-11-21_11h40.54.277,vts_reward_expectancy_bt,2022.2.4,MacIntel,59.84082341,Chrome,1440,900,,,,,1,1045,,,,,,,,,,,,,,,,,146,H,star,1,0,,,,,,,,,,,,,,,,switch,number,numSwt,d,2.2695,Lo,,,,,,4,,,,,,,,high,11,0,11,0,1,,,,,,,,,
298237,2022-11-21_11h40.54.277,vts_reward_expectancy_bt,2022.2.4,MacIntel,59.84082341,Chrome,1440,900,,,,,0,1045,,,,,,,,,,,,,,,,,160,S,hexagon,1,0,,,,,,,,,,,,,,,,switch,letter,lettSwt,k,2.1867,Hi,,,,,,4,,,,,,,,high,12,0,12,0,1,,,,,,,,,
298237,2022-11-21_11h40.54.277,vts_reward_expectancy_bt,2022.2.4,MacIntel,59.84082341,Chrome,1440,900,,,,,1,1046,,,,,,,,,,,,,,,,,181,B,triangle,1,0,,,,,,,,,,,,,,,,repeat,letter,lettRpt,j,2.5072,Lo,,,,,,4,,,,,,,,high,13,0,13,0,1,,,,,,,,,
298237,2022-11-21_11h40.54.277,vts_reward_expectancy_bt,2022.2.4,MacIntel,59.84082341,Chrome,1440,900,,,,,10,1056,,,,,,,,,,,,,,,,,139,W,circle,1,0,,,,,,,,,,,,,,,,switch,number,numSwt,d,0.5503,Hi,,,,,,4,,,,,,,,high,14,0,14,0,1,,,,,,,,,
298237,2022-11-21_11h40.54.277,vts_reward_expectancy_bt,2022.2.4,MacIntel,59.84082341,Chrome,1440,900,,,,,10,1066,,,,,,,,,,,,,,,,,132,F,star,1,0,,,,,,,,,,,,,,,,switch,letter,lettSwt,j,2.4712,Lo,,,,,,4,,,,,,,,high,15,0,15,0,1,,,,,,,,,
298237,2022-11-21_11h40.54.277,vts_reward_expectancy_bt,2022.2.4,MacIntel,59.84082341,Chrome,1440,900,,,,,10,1076,,,,,,,,,,,,,,,,,139,B,hexagon,1,0,,,,,,,,,,,,,,,,repeat,letter,lettRpt,j,0.35,Hi,,,,,,4,,,,,,,,high,16,0,16,0,1,,,,,,,,,
298237,2022-11-21_11h40.54.277,vts_reward_expectancy_bt,2022.2.4,MacIntel,59.84082341,Chrome,1440,900,,,,,0,1076,,,,,,,,,,,,,,,,,181,F,star,-1,0,,,,,,,,,,,,,,,,switch,no_choice,NA,,,Hi,,,,,,4,,,,,,,,high,17,0,17,0,1,,,,,,,,,
298237,2022-11-21_11h40.54.277,vts_reward_expectancy_bt,2022.2.4,MacIntel,59.84082341,Chrome,1440,900,,,,,0,1076,,,,,,,,,,,,,,,,,146,H,circle,1,0,,,,,,,,,,,,,,,,switch,letter,lettSwt,j,0.5346,Hi,,,,,,4,,,,,,,,high,18,0,18,0,1,,,,,,,,,
298237,2022-11-21_11h40.54.277,vts_reward_expectancy_bt,2022.2.4,MacIntel,59.84082341,Chrome,1440,900,,,,,1,1077,,,,,,,,,,,,,,,,,174,W,triangle,1,0,,,,,,,,,,,,,,,,switch,number,numSwt,f,2.1384,Lo,,,,,,4,,,,,,,,high,19,0,19,0,1,,,,,,,,,
298237,2022-11-21_11h40.54.277,vts_reward_expectancy_bt,2022.2.4,MacIntel,59.84082341,Chrome,1440,900,,,,,1,1078,,,,,,,,,,,,,,,,,125,S,star,1,0,,,,,,,,,,,,,,,,switch,letter,lettSwt,k,2.0702,Lo,,,,,,4,,,,,,,,high,20,0,20,0,1,,,,,,,,,
298237,2022-11-21_11h40.54.277,vts_reward_expectancy_bt,2022.2.4,MacIntel,59.84082341,Chrome,1440,900,,,,,1,1079,,,,,,,,,,,,,,,,,132,D,hexagon,1,0,,,,,,,,,,,,,,,,repeat,letter,lettRpt,j,0.3644,Hi,,,,,,4,,,,,,,,high,21,0,21,0,1,,,,,,,,,
298237,2022-11-21_11h40.54.277,vts_reward_expectancy_bt,2022.2.4,MacIntel,59.84082341,Chrome,1440,900,,,,,1,1080,,,,,,,,,,,,,,,,,167,U,triangle,1,0,,,,,,,,,,,,,,,,switch,number,numSwt,f,1.3694,Lo,,,,,,4,,,,,,,,high,22,0,22,0,1,,,,,,,,,
298237,2022-11-21_11h40.54.277,vts_reward_expectancy_bt,2022.2.4,MacIntel,59.84082341,Chrome,1440,900,,,,,0,1080,,,,,,,,,,,,,,,,,160,Y,circle,0,0,,,,,,,,,,,,,,,,repeat,number,NA,d,0.4308,Lo,,,,,,4,,,,,,,,high,23,0,23,0,1,,,,,,,,,
298237,2022-11-21_11h40.54.277,vts_reward_expectancy_bt,2022.2.4,MacIntel,59.84082341,Chrome,1440,900,,,,,0,1080,,,,,,,,,,,,,,,,,146,D,hexagon,1,1,,,,,,,,,,,,,,,,repeat,number,numRpt,d,0.8164,Hi,,,,,,4,,,,,,,,high,24,0,24,0,1,,,,,,,,,
298237,2022-11-21_11h40.54.277,vts_reward_expectancy_bt,2022.2.4,MacIntel,59.84082341,Chrome,1440,900,,,,,1,1081,,,,,,,,,,,,,,,,,132,B,triangle,1,0,,,,,,,,,,,,,,,,switch,letter,lettSwt,j,0.6672,Lo,,,,,,4,,,,,,,,high,25,0,25,0,1,,,,,,,,,
298237,2022-11-21_11h40.54.277,vts_reward_expectancy_bt,2022.2.4,MacIntel,59.84082341,Chrome,1440,900,,,,,0,1081,,,,,,,,,,,,,,,,,139,S,circle,1,0,,,,,,,,,,,,,,,,repeat,letter,lettRpt,k,0.5833,Hi,,,,,,4,,,,,,,,high,26,0,26,0,1,,,,,,,,,
298237,2022-11-21_11h40.54.277,vts_reward_expectancy_bt,2022.2.4,MacIntel,59.84082341,Chrome,1440,900,,,,,1,1082,,,,,,,,,,,,,,,,,181,F,star,1,0,,,,,,,,,,,,,,,,switch,number,numSwt,f,0.5884,Lo,,,,,,4,,,,,,,,high,27,0,27,0,1,,,,,,,,,
298237,2022-11-21_11h40.54.277,vts_reward_expectancy_bt,2022.2.4,MacIntel,59.84082341,Chrome,1440,900,,,,,10,1092,,,,,,,,,,,,,,,,,174,H,triangle,1,0,,,,,,,,,,,,,,,,repeat,number,numRpt,f,0.9331,Lo,,,,,,4,,,,,,,,high,28,0,28,0,1,,,,,,,,,
298237,2022-11-21_11h40.54.277,vts_reward_expectancy_bt,2022.2.4,MacIntel,59.84082341,Chrome,1440,900,,,,,0,1092,,,,,,,,,,,,,,,,,125,Y,circle,1,0,,,,,,,,,,,,,,,,repeat,number,numRpt,d,0.6661,Hi,,,,,,4,,,,,,,,high,29,0,29,0,1,,,,,,,,,
298237,2022-11-21_11h40.54.277,vts_reward_expectancy_bt,2022.2.4,MacIntel,59.84082341,Chrome,1440,900,,,,,1,1093,,,,,,,,,,,,,,,,,167,W,hexagon,1,0,,,,,,,,,,,,,,,,switch,letter,lettSwt,k,0.4846,Hi,,,,,,4,,,,,,,,high,30,0,30,0,1,,,,,,,,,
298237,2022-11-21_11h40.54.277,vts_reward_expectancy_bt,2022.2.4,MacIntel,59.84082341,Chrome,1440,900,,,,,10,1103,,,,,,,,,,,,,,,,,160,U,star,1,0,,,,,,,,,,,,,,,,repeat,letter,lettRpt,k,0.6064,Lo,,,,,,4,,,,,,,,high,31,0,31,0,1,,,,,,,,,
298237,2022-11-21_11h40.54.277,vts_reward_expectancy_bt,2022.2.4,MacIntel,59.84082341,Chrome,1440,900,,,,,10,1113,,,,,,,,,,,,,,,,,167,H,circle,1,0,,,,,,,,,,,,,,,,repeat,letter,lettRpt,j,0.4188,Hi,,,,,,5,,,,,,space,2.3149,high,0,0,0,0,1,,,,,,,,,
298237,2022-11-21_11h40.54.277,vts_reward_expectancy_bt,2022.2.4,MacIntel,59.84082341,Chrome,1440,900,,,,,10,1123,,,,,,,,,,,,,,,,,125,S,triangle,1,0,,,,,,,,,,,,,,,,repeat,letter,lettRpt,k,0.5152,Lo,,,,,,5,,,,,,,,high,1,0,1,0,1,,,,,,,,,
298237,2022-11-21_11h40.54.277,vts_reward_expectancy_bt,2022.2.4,MacIntel,59.84082341,Chrome,1440,900,,,,,0,1123,,,,,,,,,,,,,,,,,146,W,hexagon,1,0,,,,,,,,,,,,,,,,switch,number,numSwt,d,0.5836,Hi,,,,,,5,,,,,,,,high,2,0,2,0,1,,,,,,,,,
298237,2022-11-21_11h40.54.277,vts_reward_expectancy_bt,2022.2.4,MacIntel,59.84082341,Chrome,1440,900,,,,,1,1124,,,,,,,,,,,,,,,,,139,F,star,1,0,,,,,,,,,,,,,,,,repeat,number,numRpt,d,0.5163,Lo,,,,,,5,,,,,,,,high,3,0,3,0,1,,,,,,,,,
298237,2022-11-21_11h40.54.277,vts_reward_expectancy_bt,2022.2.4,MacIntel,59.84082341,Chrome,1440,900,,,,,10,1134,,,,,,,,,,,,,,,,,132,B,circle,1,0,,,,,,,,,,,,,,,,switch,letter,lettSwt,j,0.3673,Hi,,,,,,5,,,,,,,,high,4,0,4,0,1,,,,,,,,,
298237,2022-11-21_11h40.54.277,vts_reward_expectancy_bt,2022.2.4,MacIntel,59.84082341,Chrome,1440,900,,,,,1,1135,,,,,,,,,,,,,,,,,160,D,triangle,1,0,,,,,,,,,,,,,,,,switch,number,numSwt,f,0.6378,Lo,,,,,,5,,,,,,,,high,5,0,5,0,1,,,,,,,,,
298237,2022-11-21_11h40.54.277,vts_reward_expectancy_bt,2022.2.4,MacIntel,59.84082341,Chrome,1440,900,,,,,10,1145,,,,,,,,,,,,,,,,,174,Y,hexagon,1,0,,,,,,,,,,,,,,,,switch,letter,lettSwt,k,0.3868,Hi,,,,,,5,,,,,,,,high,6,0,6,0,1,,,,,,,,,
298237,2022-11-21_11h40.54.277,vts_reward_expectancy_bt,2022.2.4,MacIntel,59.84082341,Chrome,1440,900,,,,,1,1146,,,,,,,,,,,,,,,,,181,U,star,1,0,,,,,,,,,,,,,,,,repeat,letter,lettRpt,k,1.0393,Lo,,,,,,5,,,,,,,,high,7,0,7,0,1,,,,,,,,,
298237,2022-11-21_11h40.54.277,vts_reward_expectancy_bt,2022.2.4,MacIntel,59.84082341,Chrome,1440,900,,,,,0,1146,,,,,,,,,,,,,,,,,167,H,triangle,0,0,,,,,,,,,,,,,,,,switch,number,NA,d,0.6663,Lo,,,,,,5,,,,,,,,high,8,0,8,0,1,,,,,,,,,
298237,2022-11-21_11h40.54.277,vts_reward_expectancy_bt,2022.2.4,MacIntel,59.84082341,Chrome,1440,900,,,,,10,1156,,,,,,,,,,,,,,,,,125,S,hexagon,1,1,,,,,,,,,,,,,,,,repeat,number,numRpt,d,0.3987,Hi,,,,,,5,,,,,,,,high,9,0,9,0,1,,,,,,,,,
298237,2022-11-21_11h40.54.277,vts_reward_expectancy_bt,2022.2.4,MacIntel,59.84082341,Chrome,1440,900,,,,,1,1157,,,,,,,,,,,,,,,,,146,W,star,1,0,,,,,,,,,,,,,,,,switch,letter,lettSwt,k,0.5563,Lo,,,,,,5,,,,,,,,high,10,0,10,0,1,,,,,,,,,
298237,2022-11-21_11h40.54.277,vts_reward_expectancy_bt,2022.2.4,MacIntel,59.84082341,Chrome,1440,900,,,,,0,1157,,,,,,,,,,,,,,,,,139,F,circle,0,0,,,,,,,,,,,,,,,,repeat,letter,NA,k,0.416,Lo,,,,,,5,,,,,,,,high,11,0,11,0,1,,,,,,,,,
298237,2022-11-21_11h40.54.277,vts_reward_expectancy_bt,2022.2.4,MacIntel,59.84082341,Chrome,1440,900,,,,,10,1167,,,,,,,,,,,,,,,,,132,B,hexagon,1,1,,,,,,,,,,,,,,,,repeat,letter,lettRpt,j,0.4002,Hi,,,,,,5,,,,,,,,high,12,0,12,0,1,,,,,,,,,
298237,2022-11-21_11h40.54.277,vts_reward_expectancy_bt,2022.2.4,MacIntel,59.84082341,Chrome,1440,900,,,,,10,1177,,,,,,,,,,,,,,,,,160,D,star,1,0,,,,,,,,,,,,,,,,switch,number,numSwt,f,1.4195,Lo,,,,,,5,,,,,,,,high,13,0,13,0,1,,,,,,,,,
298237,2022-11-21_11h40.54.277,vts_reward_expectancy_bt,2022.2.4,MacIntel,59.84082341,Chrome,1440,900,,,,,1,1178,,,,,,,,,,,,,,,,,174,Y,triangle,1,0,,,,,,,,,,,,,,,,repeat,number,numRpt,f,1.3332,Lo,,,,,,5,,,,,,,,high,14,0,14,0,1,,,,,,,,,
298237,2022-11-21_11h40.54.277,vts_reward_expectancy_bt,2022.2.4,MacIntel,59.84082341,Chrome,1440,900,,,,,10,1188,,,,,,,,,,,,,,,,,181,U,circle,1,0,,,,,,,,,,,,,,,,switch,letter,lettSwt,k,0.5181,Hi,,,,,,5,,,,,,,,high,15,0,15,0,1,,,,,,,,,
298237,2022-11-21_11h40.54.277,vts_reward_expectancy_bt,2022.2.4,MacIntel,59.84082341,Chrome,1440,900,,,,,10,1198,,,,,,,,,,,,,,,,,146,W,circle,1,0,,,,,,,,,,,,,,,,repeat,letter,lettRpt,k,0.4511,Hi,,,,,,5,,,,,,,,high,16,0,16,0,1,,,,,,,,,
298237,2022-11-21_11h40.54.277,vts_reward_expectancy_bt,2022.2.4,MacIntel,59.84082341,Chrome,1440,900,,,,,1,1199,,,,,,,,,,,,,,,,,139,S,star,1,0,,,,,,,,,,,,,,,,switch,number,numSwt,d,1.3342,Lo,,,,,,5,,,,,,,,high,17,0,17,0,1,,,,,,,,,
298237,2022-11-21_11h40.54.277,vts_reward_expectancy_bt,2022.2.4,MacIntel,59.84082341,Chrome,1440,900,,,,,0,1199,,,,,,,,,,,,,,,,,181,D,hexagon,1,0,,,,,,,,,,,,,,,,repeat,number,numRpt,f,0.6461,Hi,,,,,,5,,,,,,,,high,18,0,18,0,1,,,,,,,,,
298237,2022-11-21_11h40.54.277,vts_reward_expectancy_bt,2022.2.4,MacIntel,59.84082341,Chrome,1440,900,,,,,1,1200,,,,,,,,,,,,,,,,,167,U,triangle,1,0,,,,,,,,,,,,,,,,switch,letter,lettSwt,k,1.0353,Lo,,,,,,5,,,,,,,,high,19,0,19,0,1,,,,,,,,,
298237,2022-11-21_11h40.54.277,vts_reward_expectancy_bt,2022.2.4,MacIntel,59.84082341,Chrome,1440,900,,,,,10,1210,,,,,,,,,,,,,,,,,125,F,hexagon,1,0,,,,,,,,,,,,,,,,switch,number,numSwt,d,0.4442,Hi,,,,,,5,,,,,,,,high,20,0,20,0,1,,,,,,,,,
298237,2022-11-21_11h40.54.277,vts_reward_expectancy_bt,2022.2.4,MacIntel,59.84082341,Chrome,1440,900,,,,,1,1211,,,,,,,,,,,,,,,,,174,B,star,1,0,,,,,,,,,,,,,,,,repeat,number,numRpt,f,0.8999,Lo,,,,,,5,,,,,,,,high,21,0,21,0,1,,,,,,,,,
298237,2022-11-21_11h40.54.277,vts_reward_expectancy_bt,2022.2.4,MacIntel,59.84082341,Chrome,1440,900,,,,,10,1221,,,,,,,,,,,,,,,,,132,H,circle,1,0,,,,,,,,,,,,,,,,switch,letter,lettSwt,j,0.465,Hi,,,,,,5,,,,,,,,high,22,0,22,0,1,,,,,,,,,
298237,2022-11-21_11h40.54.277,vts_reward_expectancy_bt,2022.2.4,MacIntel,59.84082341,Chrome,1440,900,,,,,1,1222,,,,,,,,,,,,,,,,,160,Y,triangle,1,0,,,,,,,,,,,,,,,,repeat,letter,lettRpt,k,2.3235,Lo,,,,,,5,,,,,,,,high,23,0,23,0,1,,,,,,,,,
298237,2022-11-21_11h40.54.277,vts_reward_expectancy_bt,2022.2.4,MacIntel,59.84082341,Chrome,1440,900,,,,,1,1223,,,,,,,,,,,,,,,,,146,U,star,1,0,,,,,,,,,,,,,,,,repeat,letter,lettRpt,k,2.9289,Lo,,,,,,5,,,,,,,,high,24,0,24,0,1,,,,,,,,,
298237,2022-11-21_11h40.54.277,vts_reward_expectancy_bt,2022.2.4,MacIntel,59.84082341,Chrome,1440,900,,,,,10,1233,,,,,,,,,,,,,,,,,125,B,circle,1,0,,,,,,,,,,,,,,,,switch,number,numSwt,d,0.4562,Hi,,,,,,5,,,,,,,,high,25,0,25,0,1,,,,,,,,,
298237,2022-11-21_11h40.54.277,vts_reward_expectancy_bt,2022.2.4,MacIntel,59.84082341,Chrome,1440,900,,,,,10,1243,,,,,,,,,,,,,,,,,167,H,hexagon,1,0,,,,,,,,,,,,,,,,repeat,number,numRpt,f,0.401,Hi,,,,,,5,,,,,,,,high,26,0,26,0,1,,,,,,,,,
298237,2022-11-21_11h40.54.277,vts_reward_expectancy_bt,2022.2.4,MacIntel,59.84082341,Chrome,1440,900,,,,,1,1244,,,,,,,,,,,,,,,,,174,D,triangle,1,0,,,,,,,,,,,,,,,,switch,letter,lettSwt,j,2.4082,Lo,,,,,,5,,,,,,,,high,27,0,27,0,1,,,,,,,,,
298237,2022-11-21_11h40.54.277,vts_reward_expectancy_bt,2022.2.4,MacIntel,59.84082341,Chrome,1440,900,,,,,1,1245,,,,,,,,,,,,,,,,,181,S,circle,1,0,,,,,,,,,,,,,,,,repeat,letter,lettRpt,k,0.5387,Hi,,,,,,5,,,,,,,,high,28,0,28,0,1,,,,,,,,,
298237,2022-11-21_11h40.54.277,vts_reward_expectancy_bt,2022.2.4,MacIntel,59.84082341,Chrome,1440,900,,,,,10,1255,,,,,,,,,,,,,,,,,160,Y,hexagon,1,0,,,,,,,,,,,,,,,,switch,number,numSwt,f,0.4992,Hi,,,,,,5,,,,,,,,high,29,0,29,0,1,,,,,,,,,
298237,2022-11-21_11h40.54.277,vts_reward_expectancy_bt,2022.2.4,MacIntel,59.84082341,Chrome,1440,900,,,,,10,1265,,,,,,,,,,,,,,,,,132,F,triangle,1,0,,,,,,,,,,,,,,,,switch,letter,lettSwt,j,2.8402,Lo,,,,,,5,,,,,,,,high,30,0,30,0,1,,,,,,,,,
298237,2022-11-21_11h40.54.277,vts_reward_expectancy_bt,2022.2.4,MacIntel,59.84082341,Chrome,1440,900,,,,,10,1275,,,,,,,,,,,,,,,,,139,W,star,1,0,,,,,,,,,,,,,,,,repeat,letter,lettRpt,k,2.8113,Lo,,,,,,5,,,,,,,,high,31,0,31,0,1,,,,,,,,,
298237,2022-11-21_11h40.54.277,vts_reward_expectancy_bt,2022.2.4,MacIntel,59.84082341,Chrome,1440,900,,,,,0,1275,,,,,,,,,,,,,,,,,174,S,hexagon,1,0,,,,,,,,,,,,,,,,repeat,letter,lettRpt,k,0.5651,Hi,,,,,,6,,,,,,space,3.0758,high,0,0,0,0,1,,,,,,,,,
298237,2022-11-21_11h40.54.277,vts_reward_expectancy_bt,2022.2.4,MacIntel,59.84082341,Chrome,1440,900,,,,,0,1275,,,,,,,,,,,,,,,,,139,Y,circle,0,0,,,,,,,,,,,,,,,,repeat,letter,NA,j,0.3544,Hi,,,,,,6,,,,,,,,high,1,0,1,0,1,,,,,,,,,
298237,2022-11-21_11h40.54.277,vts_reward_expectancy_bt,2022.2.4,MacIntel,59.84082341,Chrome,1440,900,,,,,10,1285,,,,,,,,,,,,,,,,,167,D,triangle,1,1,,,,,,,,,,,,,,,,switch,number,numSwt,f,2.1934,Lo,,,,,,6,,,,,,,,high,2,0,2,0,1,,,,,,,,,
298237,2022-11-21_11h40.54.277,vts_reward_expectancy_bt,2022.2.4,MacIntel,59.84082341,Chrome,1440,900,,,,,1,1286,,,,,,,,,,,,,,,,,160,W,star,1,0,,,,,,,,,,,,,,,,repeat,number,numRpt,f,2.4541,Lo,,,,,,6,,,,,,,,high,3,0,3,0,1,,,,,,,,,
298237,2022-11-21_11h40.54.277,vts_reward_expectancy_bt,2022.2.4,MacIntel,59.84082341,Chrome,1440,900,,,,,0,1286,,,,,,,,,,,,,,,,,132,H,hexagon,0,0,,,,,,,,,,,,,,,,switch,letter,NA,k,0.4147,Lo,,,,,,6,,,,,,,,high,4,0,4,0,1,,,,,,,,,
298237,2022-11-21_11h40.54.277,vts_reward_expectancy_bt,2022.2.4,MacIntel,59.84082341,Chrome,1440,900,,,,,1,1287,,,,,,,,,,,,,,,,,125,B,circle,1,1,,,,,,,,,,,,,,,,repeat,letter,lettRpt,j,0.384,Hi,,,,,,6,,,,,,,,high,5,0,5,0,1,,,,,,,,,
298237,2022-11-21_11h40.54.277,vts_reward_expectancy_bt,2022.2.4,MacIntel,59.84082341,Chrome,1440,900,,,,,1,1288,,,,,,,,,,,,,,,,,146,U,triangle,1,0,,,,,,,,,,,,,,,,repeat,letter,lettRpt,k,1.2353,Lo,,,,,,6,,,,,,,,high,6,0,6,0,1,,,,,,,,,
298237,2022-11-21_11h40.54.277,vts_reward_expectancy_bt,2022.2.4,MacIntel,59.84082341,Chrome,1440,900,,,,,1,1289,,,,,,,,,,,,,,,,,181,F,star,1,0,,,,,,,,,,,,,,,,repeat,letter,lettRpt,j,1.2342,Lo,,,,,,6,,,,,,,,high,7,0,7,0,1,,,,,,,,,
298237,2022-11-21_11h40.54.277,vts_reward_expectancy_bt,2022.2.4,MacIntel,59.84082341,Chrome,1440,900,,,,,0,1289,,,,,,,,,,,,,,,,,174,S,circle,1,0,,,,,,,,,,,,,,,,repeat,letter,lettRpt,k,1.3072,Hi,,,,,,6,,,,,,,,high,8,0,8,0,1,,,,,,,,,
298237,2022-11-21_11h40.54.277,vts_reward_expectancy_bt,2022.2.4,MacIntel,59.84082341,Chrome,1440,900,,,,,10,1299,,,,,,,,,,,,,,,,,139,Y,star,1,0,,,,,,,,,,,,,,,,repeat,letter,lettRpt,k,1.8187,Lo,,,,,,6,,,,,,,,high,9,0,9,0,1,,,,,,,,,
