participant,date,expName,psychopyVersion,OS,frameRate,browser,xResolution,yResolution,key_resp.keys,key_resp.rt,training_resp.keys,training_resp.rt,points_trial,points_cumul,trainBlock,training.thisRepN,training.thisTrialN,training.thisN,training.thisIndex,training.ran,LTriangleOpac,LCircleOpac,LHexagonOpac,LStarOpac,RTriangleOpac,RCircleOpac,RHexagonOpac,RStarOpac,LShape_ID,RShape_ID,curr_topStim,curr_bottStim,curr_shape,acc,E1,target_resp_prac1.keys,pracBlock,task1_prac_trials.thisRepN,task1_prac_trials.thisTrialN,task1_prac_trials.thisN,task1_prac_trials.thisIndex,task1_prac_trials.ran,target_resp_prac1.rt,target_resp_prac2.keys,target_resp_prac2.rt,task2_praac_trials.thisRepN,task2_praac_trials.thisTrialN,task2_praac_trials.thisN,task2_praac_trials.thisIndex,task2_praac_trials.ran,alt,task,condition,target_resp.keys,target_resp.rt,rewCond,vts_practice_trials.thisRepN,vts_practice_trials.thisTrialN,vts_practice_trials.thisN,vts_practice_trials.thisIndex,vts_practice_trials.ran,blockNum,trials_norew.thisRepN,trials_norew.thisTrialN,trials_norew.thisN,trials_norew.thisIndex,trials_norew.ran,key_resp_2.keys,key_resp_2.rt,rewExpectancy,trials_rew.thisRepN,trials_rew.thisTrialN,trials_rew.thisN,trials_rew.thisIndex,trials_rew.ran,Q1,Q2,Q2_text,Q3,Q4,Q5_text,Q5,xRes,yRes
298249,2022-11-27_13h08.25.262,vts_reward_expectancy_bt,2022.2.4,Win32,59.99520038,Chrome,1536,864,,,,,,,,,,,,,,,,,,,,,,,,,,,,,,,,,,,,,,,,,,,,,,,,,,,,,,,,,,,,,,,,,,,,,,,,,,,,
298249,2022-11-27_13h08.25.262,vts_reward_expectancy_bt,2022.2.4,Win32,59.99520038,Chrome,1536,864,space,26.3643,,,,,,,,,,,,,,,,,,,,,,,,,,,,,,,,,,,,,,,,,,,,,,,,,,,,,,,,,,,,,,,,,,,,,,,,,,
298249,2022-11-27_13h08.25.262,vts_reward_expectancy_bt,2022.2.4,Win32,59.99520038,Chrome,1536,864,,,,,,,,,,,,,,,,,,,,,,,,,,,,,,,,,,,,,,,,,,,,,,,,,,,,,,,,,,,,,,,,,,,,,,,,,,,,
298249,2022-11-27_13h08.25.262,vts_reward_expectancy_bt,2022.2.4,Win32,59.99520038,Chrome,1536,864,,,l,2.0546,10,10,0,0,0,0,7,1,0,0,1,0,0,1,0,0,hexagon,circle,,,,,,,,,,,,,,,,,,,,,,,,,,,,,,,,,,,,,,,,,,,,,,,,,,,,,,
298249,2022-11-27_13h08.25.262,vts_reward_expectancy_bt,2022.2.4,Win32,59.99520038,Chrome,1536,864,,,l,2.246,1,11,0,0,1,1,3,1,0,1,0,0,1,0,0,0,circle,triangle,,,,,,,,,,,,,,,,,,,,,,,,,,,,,,,,,,,,,,,,,,,,,,,,,,,,,,
298249,2022-11-27_13h08.25.262,vts_reward_expectancy_bt,2022.2.4,Win32,59.99520038,Chrome,1536,864,,,l,1.8286,1,12,0,0,2,2,1,1,1,0,0,0,0,0,1,0,triangle,hexagon,,,,,,,,,,,,,,,,,,,,,,,,,,,,,,,,,,,,,,,,,,,,,,,,,,,,,,
298249,2022-11-27_13h08.25.262,vts_reward_expectancy_bt,2022.2.4,Win32,59.99520038,Chrome,1536,864,,,a,1.0217,1,13,0,0,3,3,11,1,0,0,0,1,0,0,1,0,star,hexagon,,,,,,,,,,,,,,,,,,,,,,,,,,,,,,,,,,,,,,,,,,,,,,,,,,,,,,
298249,2022-11-27_13h08.25.262,vts_reward_expectancy_bt,2022.2.4,Win32,59.99520038,Chrome,1536,864,,,l,1.7288,10,23,0,0,4,4,0,1,1,0,0,0,0,1,0,0,triangle,circle,,,,,,,,,,,,,,,,,,,,,,,,,,,,,,,,,,,,,,,,,,,,,,,,,,,,,,
298249,2022-11-27_13h08.25.262,vts_reward_expectancy_bt,2022.2.4,Win32,59.99520038,Chrome,1536,864,,,a,2.1314,10,33,0,0,5,5,9,1,0,0,0,1,1,0,0,0,star,triangle,,,,,,,,,,,,,,,,,,,,,,,,,,,,,,,,,,,,,,,,,,,,,,,,,,,,,,
298249,2022-11-27_13h08.25.262,vts_reward_expectancy_bt,2022.2.4,Win32,59.99520038,Chrome,1536,864,,,l,1.3447,10,43,0,0,6,6,2,1,1,0,0,0,0,0,0,1,triangle,star,,,,,,,,,,,,,,,,,,,,,,,,,,,,,,,,,,,,,,,,,,,,,,,,,,,,,,
298249,2022-11-27_13h08.25.262,vts_reward_expectancy_bt,2022.2.4,Win32,59.99520038,Chrome,1536,864,,,a,0.9755,10,53,0,0,7,7,4,1,0,1,0,0,0,0,1,0,circle,hexagon,,,,,,,,,,,,,,,,,,,,,,,,,,,,,,,,,,,,,,,,,,,,,,,,,,,,,,
298249,2022-11-27_13h08.25.262,vts_reward_expectancy_bt,2022.2.4,Win32,59.99520038,Chrome,1536,864,,,l,1.1643,10,63,0,0,8,8,10,1,0,0,0,1,0,1,0,0,star ,circle,,,,,,,,,,,,,,,,,,,,,,,,,,,,,,,,,,,,,,,,,,,,,,,,,,,,,,
298249,2022-11-27_13h08.25.262,vts_reward_expectancy_bt,2022.2.4,Win32,59.99520038,Chrome,1536,864,,,l,1.7191,10,73,0,0,9,9,8,1,0,0,1,0,0,0,0,1,hexagon,star,,,,,,,,,,,,,,,,,,,,,,,,,,,,,,,,,,,,,,,,,,,,,,,,,,,,,,
298249,2022-11-27_13h08.25.262,vts_reward_expectancy_bt,2022.2.4,Win32,59.99520038,Chrome,1536,864,,,a,1.4851,1,74,0,0,10,10,6,1,0,0,1,0,1,0,0,0,hexagon,triangle,,,,,,,,,,,,,,,,,,,,,,,,,,,,,,,,,,,,,,,,,,,,,,,,,,,,,,
298249,2022-11-27_13h08.25.262,vts_reward_expectancy_bt,2022.2.4,Win32,59.99520038,Chrome,1536,864,,,a,2.6031,10,84,0,0,11,11,5,1,0,1,0,0,0,0,0,1,circle,star,,,,,,,,,,,,,,,,,,,,,,,,,,,,,,,,,,,,,,,,,,,,,,,,,,,,,,
298249,2022-11-27_13h08.25.262,vts_reward_expectancy_bt,2022.2.4,Win32,59.99520038,Chrome,1536,864,,,a,2.3659,1,85,0,1,0,12,11,1,0,0,0,1,0,0,1,0,star,hexagon,,,,,,,,,,,,,,,,,,,,,,,,,,,,,,,,,,,,,,,,,,,,,,,,,,,,,,
298249,2022-11-27_13h08.25.262,vts_reward_expectancy_bt,2022.2.4,Win32,59.99520038,Chrome,1536,864,,,a,1.4091,1,86,0,1,1,13,8,1,0,0,1,0,0,0,0,1,hexagon,star,,,,,,,,,,,,,,,,,,,,,,,,,,,,,,,,,,,,,,,,,,,,,,,,,,,,,,
298249,2022-11-27_13h08.25.262,vts_reward_expectancy_bt,2022.2.4,Win32,59.99520038,Chrome,1536,864,,,a,2.4223,10,96,0,1,2,14,9,1,0,0,0,1,1,0,0,0,star,triangle,,,,,,,,,,,,,,,,,,,,,,,,,,,,,,,,,,,,,,,,,,,,,,,,,,,,,,
298249,2022-11-27_13h08.25.262,vts_reward_expectancy_bt,2022.2.4,Win32,59.99520038,Chrome,1536,864,,,l,1.8719,10,106,0,1,3,15,6,1,0,0,1,0,1,0,0,0,hexagon,triangle,,,,,,,,,,,,,,,,,,,,,,,,,,,,,,,,,,,,,,,,,,,,,,,,,,,,,,
298249,2022-11-27_13h08.25.262,vts_reward_expectancy_bt,2022.2.4,Win32,59.99520038,Chrome,1536,864,,,a,3.47,1,107,0,1,4,16,2,1,1,0,0,0,0,0,0,1,triangle,star,,,,,,,,,,,,,,,,,,,,,,,,,,,,,,,,,,,,,,,,,,,,,,,,,,,,,,
298249,2022-11-27_13h08.25.262,vts_reward_expectancy_bt,2022.2.4,Win32,59.99520038,Chrome,1536,864,,,a,3.0242,10,117,0,1,5,17,3,1,0,1,0,0,1,0,0,0,circle,triangle,,,,,,,,,,,,,,,,,,,,,,,,,,,,,,,,,,,,,,,,,,,,,,,,,,,,,,
298249,2022-11-27_13h08.25.262,vts_reward_expectancy_bt,2022.2.4,Win32,59.99520038,Chrome,1536,864,,,l,0.8473,10,127,0,1,6,18,7,1,0,0,1,0,0,1,0,0,hexagon,circle,,,,,,,,,,,,,,,,,,,,,,,,,,,,,,,,,,,,,,,,,,,,,,,,,,,,,,
298249,2022-11-27_13h08.25.262,vts_reward_expectancy_bt,2022.2.4,Win32,59.99520038,Chrome,1536,864,,,a,1.2444,10,137,0,1,7,19,5,1,0,1,0,0,0,0,0,1,circle,star,,,,,,,,,,,,,,,,,,,,,,,,,,,,,,,,,,,,,,,,,,,,,,,,,,,,,,
298249,2022-11-27_13h08.25.262,vts_reward_expectancy_bt,2022.2.4,Win32,59.99520038,Chrome,1536,864,,,l,0.6019,1,138,0,1,8,20,0,1,1,0,0,0,0,1,0,0,triangle,circle,,,,,,,,,,,,,,,,,,,,,,,,,,,,,,,,,,,,,,,,,,,,,,,,,,,,,,
298249,2022-11-27_13h08.25.262,vts_reward_expectancy_bt,2022.2.4,Win32,59.99520038,Chrome,1536,864,,,a,2.1116,10,148,0,1,9,21,4,1,0,1,0,0,0,0,1,0,circle,hexagon,,,,,,,,,,,,,,,,,,,,,,,,,,,,,,,,,,,,,,,,,,,,,,,,,,,,,,
298249,2022-11-27_13h08.25.262,vts_reward_expectancy_bt,2022.2.4,Win32,59.99520038,Chrome,1536,864,,,l,1.2367,10,158,0,1,10,22,10,1,0,0,0,1,0,1,0,0,star ,circle,,,,,,,,,,,,,,,,,,,,,,,,,,,,,,,,,,,,,,,,,,,,,,,,,,,,,,
298249,2022-11-27_13h08.25.262,vts_reward_expectancy_bt,2022.2.4,Win32,59.99520038,Chrome,1536,864,,,a,0.6155,1,159,0,1,11,23,1,1,1,0,0,0,0,0,1,0,triangle,hexagon,,,,,,,,,,,,,,,,,,,,,,,,,,,,,,,,,,,,,,,,,,,,,,,,,,,,,,
298249,2022-11-27_13h08.25.262,vts_reward_expectancy_bt,2022.2.4,Win32,59.99520038,Chrome,1536,864,,,l,1.351,1,160,0,2,0,24,3,1,0,1,0,0,1,0,0,0,circle,triangle,,,,,,,,,,,,,,,,,,,,,,,,,,,,,,,,,,,,,,,,,,,,,,,,,,,,,,
298249,2022-11-27_13h08.25.262,vts_reward_expectancy_bt,2022.2.4,Win32,59.99520038,Chrome,1536,864,,,a,1.5152,10,170,0,2,1,25,4,1,0,1,0,0,0,0,1,0,circle,hexagon,,,,,,,,,,,,,,,,,,,,,,,,,,,,,,,,,,,,,,,,,,,,,,,,,,,,,,
298249,2022-11-27_13h08.25.262,vts_reward_expectancy_bt,2022.2.4,Win32,59.99520038,Chrome,1536,864,,,l,0.9043,1,171,0,2,2,26,9,1,0,0,0,1,1,0,0,0,star,triangle,,,,,,,,,,,,,,,,,,,,,,,,,,,,,,,,,,,,,,,,,,,,,,,,,,,,,,
298249,2022-11-27_13h08.25.262,vts_reward_expectancy_bt,2022.2.4,Win32,59.99520038,Chrome,1536,864,,,l,1.2078,1,172,0,2,3,27,7,1,0,0,1,0,0,1,0,0,hexagon,circle,,,,,,,,,,,,,,,,,,,,,,,,,,,,,,,,,,,,,,,,,,,,,,,,,,,,,,
298249,2022-11-27_13h08.25.262,vts_reward_expectancy_bt,2022.2.4,Win32,59.99520038,Chrome,1536,864,,,a,3.1498,1,173,0,2,4,28,6,1,0,0,1,0,1,0,0,0,hexagon,triangle,,,,,,,,,,,,,,,,,,,,,,,,,,,,,,,,,,,,,,,,,,,,,,,,,,,,,,
298249,2022-11-27_13h08.25.262,vts_reward_expectancy_bt,2022.2.4,Win32,59.99520038,Chrome,1536,864,,,a,1.3841,10,183,0,2,5,29,11,1,0,0,0,1,0,0,1,0,star,hexagon,,,,,,,,,,,,,,,,,,,,,,,,,,,,,,,,,,,,,,,,,,,,,,,,,,,,,,
298249,2022-11-27_13h08.25.262,vts_reward_expectancy_bt,2022.2.4,Win32,59.99520038,Chrome,1536,864,,,l,0.6972,10,193,0,2,6,30,0,1,1,0,0,0,0,1,0,0,triangle,circle,,,,,,,,,,,,,,,,,,,,,,,,,,,,,,,,,,,,,,,,,,,,,,,,,,,,,,
298249,2022-11-27_13h08.25.262,vts_reward_expectancy_bt,2022.2.4,Win32,59.99520038,Chrome,1536,864,,,l,0.746,1,194,0,2,7,31,10,1,0,0,0,1,0,1,0,0,star ,circle,,,,,,,,,,,,,,,,,,,,,,,,,,,,,,,,,,,,,,,,,,,,,,,,,,,,,,
298249,2022-11-27_13h08.25.262,vts_reward_expectancy_bt,2022.2.4,Win32,59.99520038,Chrome,1536,864,,,a,0.9538,10,204,0,2,8,32,1,1,1,0,0,0,0,0,1,0,triangle,hexagon,,,,,,,,,,,,,,,,,,,,,,,,,,,,,,,,,,,,,,,,,,,,,,,,,,,,,,
298249,2022-11-27_13h08.25.262,vts_reward_expectancy_bt,2022.2.4,Win32,59.99520038,Chrome,1536,864,,,a,0.8796,10,214,0,2,9,33,5,1,0,1,0,0,0,0,0,1,circle,star,,,,,,,,,,,,,,,,,,,,,,,,,,,,,,,,,,,,,,,,,,,,,,,,,,,,,,
298249,2022-11-27_13h08.25.262,vts_reward_expectancy_bt,2022.2.4,Win32,59.99520038,Chrome,1536,864,,,l,1.7285,1,215,0,2,10,34,2,1,1,0,0,0,0,0,0,1,triangle,star,,,,,,,,,,,,,,,,,,,,,,,,,,,,,,,,,,,,,,,,,,,,,,,,,,,,,,
298249,2022-11-27_13h08.25.262,vts_reward_expectancy_bt,2022.2.4,Win32,59.99520038,Chrome,1536,864,,,l,1.1099,1,216,0,2,11,35,8,1,0,0,1,0,0,0,0,1,hexagon,star,,,,,,,,,,,,,,,,,,,,,,,,,,,,,,,,,,,,,,,,,,,,,,,,,,,,,,
298249,2022-11-27_13h08.25.262,vts_reward_expectancy_bt,2022.2.4,Win32,59.99520038,Chrome,1536,864,,,a,1.9789,10,226,1,0,0,0,5,1,0,1,0,0,0,0,0,1,circle,star,,,,,,,,,,,,,,,,,,,,,,,,,,,,,,,,,,,,,,,,,,,,,,,,,,,,,,
298249,2022-11-27_13h08.25.262,vts_reward_expectancy_bt,2022.2.4,Win32,59.99520038,Chrome,1536,864,,,a,0.9417,10,236,1,0,1,1,4,1,0,1,0,0,0,0,1,0,circle,hexagon,,,,,,,,,,,,,,,,,,,,,,,,,,,,,,,,,,,,,,,,,,,,,,,,,,,,,,
298249,2022-11-27_13h08.25.262,vts_reward_expectancy_bt,2022.2.4,Win32,59.99520038,Chrome,1536,864,,,l,0.9985,10,246,1,0,2,2,0,1,1,0,0,0,0,1,0,0,triangle,circle,,,,,,,,,,,,,,,,,,,,,,,,,,,,,,,,,,,,,,,,,,,,,,,,,,,,,,
298249,2022-11-27_13h08.25.262,vts_reward_expectancy_bt,2022.2.4,Win32,59.99520038,Chrome,1536,864,,,l,1.7352,1,247,1,0,3,3,1,1,1,0,0,0,0,0,1,0,triangle,hexagon,,,,,,,,,,,,,,,,,,,,,,,,,,,,,,,,,,,,,,,,,,,,,,,,,,,,,,
298249,2022-11-27_13h08.25.262,vts_reward_expectancy_bt,2022.2.4,Win32,59.99520038,Chrome,1536,864,,,l,0.7902,1,248,1,0,4,4,7,1,0,0,1,0,0,1,0,0,hexagon,circle,,,,,,,,,,,,,,,,,,,,,,,,,,,,,,,,,,,,,,,,,,,,,,,,,,,,,,
298249,2022-11-27_13h08.25.262,vts_reward_expectancy_bt,2022.2.4,Win32,59.99520038,Chrome,1536,864,,,l,0.9356,10,258,1,0,5,5,10,1,0,0,0,1,0,1,0,0,star ,circle,,,,,,,,,,,,,,,,,,,,,,,,,,,,,,,,,,,,,,,,,,,,,,,,,,,,,,
298249,2022-11-27_13h08.25.262,vts_reward_expectancy_bt,2022.2.4,Win32,59.99520038,Chrome,1536,864,,,l,2.065,1,259,1,0,6,6,6,1,0,0,1,0,1,0,0,0,hexagon,triangle,,,,,,,,,,,,,,,,,,,,,,,,,,,,,,,,,,,,,,,,,,,,,,,,,,,,,,
298249,2022-11-27_13h08.25.262,vts_reward_expectancy_bt,2022.2.4,Win32,59.99520038,Chrome,1536,864,,,a,0.9455,10,269,1,0,7,7,2,1,1,0,0,0,0,0,0,1,triangle,star,,,,,,,,,,,,,,,,,,,,,,,,,,,,,,,,,,,,,,,,,,,,,,,,,,,,,,
298249,2022-11-27_13h08.25.262,vts_reward_expectancy_bt,2022.2.4,Win32,59.99520038,Chrome,1536,864,,,a,3.2374,10,279,1,0,8,8,11,1,0,0,0,1,0,0,1,0,star,hexagon,,,,,,,,,,,,,,,,,,,,,,,,,,,,,,,,,,,,,,,,,,,,,,,,,,,,,,
298249,2022-11-27_13h08.25.262,vts_reward_expectancy_bt,2022.2.4,Win32,59.99520038,Chrome,1536,864,,,l,3.6255,10,289,1,0,9,9,8,1,0,0,1,0,0,0,0,1,hexagon,star,,,,,,,,,,,,,,,,,,,,,,,,,,,,,,,,,,,,,,,,,,,,,,,,,,,,,,
298249,2022-11-27_13h08.25.262,vts_reward_expectancy_bt,2022.2.4,Win32,59.99520038,Chrome,1536,864,,,l,1.688,1,290,1,0,10,10,3,1,0,1,0,0,1,0,0,0,circle,triangle,,,,,,,,,,,,,,,,,,,,,,,,,,,,,,,,,,,,,,,,,,,,,,,,,,,,,,
298249,2022-11-27_13h08.25.262,vts_reward_expectancy_bt,2022.2.4,Win32,59.99520038,Chrome,1536,864,,,a,1.8278,10,300,1,0,11,11,9,1,0,0,0,1,1,0,0,0,star,triangle,,,,,,,,,,,,,,,,,,,,,,,,,,,,,,,,,,,,,,,,,,,,,,,,,,,,,,
298249,2022-11-27_13h08.25.262,vts_reward_expectancy_bt,2022.2.4,Win32,59.99520038,Chrome,1536,864,,,a,1.651,1,301,1,1,0,12,8,1,0,0,1,0,0,0,0,1,hexagon,star,,,,,,,,,,,,,,,,,,,,,,,,,,,,,,,,,,,,,,,,,,,,,,,,,,,,,,
298249,2022-11-27_13h08.25.262,vts_reward_expectancy_bt,2022.2.4,Win32,59.99520038,Chrome,1536,864,,,a,0.8601,1,302,1,1,1,13,1,1,1,0,0,0,0,0,1,0,triangle,hexagon,,,,,,,,,,,,,,,,,,,,,,,,,,,,,,,,,,,,,,,,,,,,,,,,,,,,,,
298249,2022-11-27_13h08.25.262,vts_reward_expectancy_bt,2022.2.4,Win32,59.99520038,Chrome,1536,864,,,l,0.6711,10,312,1,1,2,14,7,1,0,0,1,0,0,1,0,0,hexagon,circle,,,,,,,,,,,,,,,,,,,,,,,,,,,,,,,,,,,,,,,,,,,,,,,,,,,,,,
298249,2022-11-27_13h08.25.262,vts_reward_expectancy_bt,2022.2.4,Win32,59.99520038,Chrome,1536,864,,,l,0.8032,10,322,1,1,3,15,0,1,1,0,0,0,0,1,0,0,triangle,circle,,,,,,,,,,,,,,,,,,,,,,,,,,,,,,,,,,,,,,,,,,,,,,,,,,,,,,
298249,2022-11-27_13h08.25.262,vts_reward_expectancy_bt,2022.2.4,Win32,59.99520038,Chrome,1536,864,,,a,1.2988,10,332,1,1,4,16,5,1,0,1,0,0,0,0,0,1,circle,star,,,,,,,,,,,,,,,,,,,,,,,,,,,,,,,,,,,,,,,,,,,,,,,,,,,,,,
298249,2022-11-27_13h08.25.262,vts_reward_expectancy_bt,2022.2.4,Win32,59.99520038,Chrome,1536,864,,,a,0.7699,1,333,1,1,5,17,3,1,0,1,0,0,1,0,0,0,circle,triangle,,,,,,,,,,,,,,,,,,,,,,,,,,,,,,,,,,,,,,,,,,,,,,,,,,,,,,
298249,2022-11-27_13h08.25.262,vts_reward_expectancy_bt,2022.2.4,Win32,59.99520038,Chrome,1536,864,,,a,0.8229,10,343,1,1,6,18,4,1,0,1,0,0,0,0,1,0,circle,hexagon,,,,,,,,,,,,,,,,,,,,,,,,,,,,,,,,,,,,,,,,,,,,,,,,,,,,,,
298249,2022-11-27_13h08.25.262,vts_reward_expectancy_bt,2022.2.4,Win32,59.99520038,Chrome,1536,864,,,a,1.8297,10,353,1,1,7,19,11,1,0,0,0,1,0,0,1,0,star,hexagon,,,,,,,,,,,,,,,,,,,,,,,,,,,,,,,,,,,,,,,,,,,,,,,,,,,,,,
298249,2022-11-27_13h08.25.262,vts_reward_expectancy_bt,2022.2.4,Win32,59.99520038,Chrome,1536,864,,,l,0.8769,10,363,1,1,8,20,10,1,0,0,0,1,0,1,0,0,star ,circle,,,,,,,,,,,,,,,,,,,,,,,,,,,,,,,,,,,,,,,,,,,,,,,,,,,,,,
298249,2022-11-27_13h08.25.262,vts_reward_expectancy_bt,2022.2.4,Win32,59.99520038,Chrome,1536,864,,,l,2.4959,1,364,1,1,9,21,6,1,0,0,1,0,1,0,0,0,hexagon,triangle,,,,,,,,,,,,,,,,,,,,,,,,,,,,,,,,,,,,,,,,,,,,,,,,,,,,,,
298249,2022-11-27_13h08.25.262,vts_reward_expectancy_bt,2022.2.4,Win32,59.99520038,Chrome,1536,864,,,l,1.7545,1,365,1,1,10,22,2,1,1,0,0,0,0,0,0,1,triangle,star,,,,,,,,,,,,,,,,,,,,,,,,,,,,,,,,,,,,,,,,,,,,,,,,,,,,,,
298249,2022-11-27_13h08.25.262,vts_reward_expectancy_bt,2022.2.4,Win32,59.99520038,Chrome,1536,864,,,l,1.8574,10,375,1,1,11,23,9,1,0,0,0,1,1,0,0,0,star,triangle,,,,,,,,,,,,,,,,,,,,,,,,,,,,,,,,,,,,,,,,,,,,,,,,,,,,,,
298249,2022-11-27_13h08.25.262,vts_reward_expectancy_bt,2022.2.4,Win32,59.99520038,Chrome,1536,864,,,a,1.4215,10,385,1,2,0,24,5,1,0,1,0,0,0,0,0,1,circle,star,,,,,,,,,,,,,,,,,,,,,,,,,,,,,,,,,,,,,,,,,,,,,,,,,,,,,,
298249,2022-11-27_13h08.25.262,vts_reward_expectancy_bt,2022.2.4,Win32,59.99520038,Chrome,1536,864,,,a,3.4059,1,386,1,2,1,25,8,1,0,0,1,0,0,0,0,1,hexagon,star,,,,,,,,,,,,,,,,,,,,,,,,,,,,,,,,,,,,,,,,,,,,,,,,,,,,,,
298249,2022-11-27_13h08.25.262,vts_reward_expectancy_bt,2022.2.4,Win32,59.99520038,Chrome,1536,864,,,a,2.4183,10,396,1,2,2,26,11,1,0,0,0,1,0,0,1,0,star,hexagon,,,,,,,,,,,,,,,,,,,,,,,,,,,,,,,,,,,,,,,,,,,,,,,,,,,,,,
298249,2022-11-27_13h08.25.262,vts_reward_expectancy_bt,2022.2.4,Win32,59.99520038,Chrome,1536,864,,,l,2.1783,1,397,1,2,3,27,1,1,1,0,0,0,0,0,1,0,triangle,hexagon,,,,,,,,,,,,,,,,,,,,,,,,,,,,,,,,,,,,,,,,,,,,,,,,,,,,,,
298249,2022-11-27_13h08.25.262,vts_reward_expectancy_bt,2022.2.4,Win32,59.99520038,Chrome,1536,864,,,l,1.4987,1,398,1,2,4,28,6,1,0,0,1,0,1,0,0,0,hexagon,triangle,,,,,,,,,,,,,,,,,,,,,,,,,,,,,,,,,,,,,,,,,,,,,,,,,,,,,,
298249,2022-11-27_13h08.25.262,vts_reward_expectancy_bt,2022.2.4,Win32,59.99520038,Chrome,1536,864,,,a,0.646,10,408,1,2,5,29,3,1,0,1,0,0,1,0,0,0,circle,triangle,,,,,,,,,,,,,,,,,,,,,,,,,,,,,,,,,,,,,,,,,,,,,,,,,,,,,,
298249,2022-11-27_13h08.25.262,vts_reward_expectancy_bt,2022.2.4,Win32,59.99520038,Chrome,1536,864,,,a,2.4838,10,418,1,2,6,30,2,1,1,0,0,0,0,0,0,1,triangle,star,,,,,,,,,,,,,,,,,,,,,,,,,,,,,,,,,,,,,,,,,,,,,,,,,,,,,,
298249,2022-11-27_13h08.25.262,vts_reward_expectancy_bt,2022.2.4,Win32,59.99520038,Chrome,1536,864,,,l,0.9652,10,428,1,2,7,31,7,1,0,0,1,0,0,1,0,0,hexagon,circle,,,,,,,,,,,,,,,,,,,,,,,,,,,,,,,,,,,,,,,,,,,,,,,,,,,,,,
298249,2022-11-27_13h08.25.262,vts_reward_expectancy_bt,2022.2.4,Win32,59.99520038,Chrome,1536,864,,,l,0.8243,10,438,1,2,8,32,0,1,1,0,0,0,0,1,0,0,triangle,circle,,,,,,,,,,,,,,,,,,,,,,,,,,,,,,,,,,,,,,,,,,,,,,,,,,,,,,
298249,2022-11-27_13h08.25.262,vts_reward_expectancy_bt,2022.2.4,Win32,59.99520038,Chrome,1536,864,,,a,0.86,10,448,1,2,9,33,9,1,0,0,0,1,1,0,0,0,star,triangle,,,,,,,,,,,,,,,,,,,,,,,,,,,,,,,,,,,,,,,,,,,,,,,,,,,,,,
298249,2022-11-27_13h08.25.262,vts_reward_expectancy_bt,2022.2.4,Win32,59.99520038,Chrome,1536,864,,,l,0.831,10,458,1,2,10,34,10,1,0,0,0,1,0,1,0,0,star ,circle,,,,,,,,,,,,,,,,,,,,,,,,,,,,,,,,,,,,,,,,,,,,,,,,,,,,,,
298249,2022-11-27_13h08.25.262,vts_reward_expectancy_bt,2022.2.4,Win32,59.99520038,Chrome,1536,864,,,a,1.0193,10,468,1,2,11,35,4,1,0,1,0,0,0,0,1,0,circle,hexagon,,,,,,,,,,,,,,,,,,,,,,,,,,,,,,,,,,,,,,,,,,,,,,,,,,,,,,
298249,2022-11-27_13h08.25.262,vts_reward_expectancy_bt,2022.2.4,Win32,59.99520038,Chrome,1536,864,,,l,1.7548,1,469,2,0,0,0,11,1,0,0,0,1,0,0,1,0,star,hexagon,,,,,,,,,,,,,,,,,,,,,,,,,,,,,,,,,,,,,,,,,,,,,,,,,,,,,,
298249,2022-11-27_13h08.25.262,vts_reward_expectancy_bt,2022.2.4,Win32,59.99520038,Chrome,1536,864,,,l,1.6903,10,479,2,0,1,1,10,1,0,0,0,1,0,1,0,0,star ,circle,,,,,,,,,,,,,,,,,,,,,,,,,,,,,,,,,,,,,,,,,,,,,,,,,,,,,,
298249,2022-11-27_13h08.25.262,vts_reward_expectancy_bt,2022.2.4,Win32,59.99520038,Chrome,1536,864,,,a,0.9623,10,489,2,0,2,2,2,1,1,0,0,0,0,0,0,1,triangle,star,,,,,,,,,,,,,,,,,,,,,,,,,,,,,,,,,,,,,,,,,,,,,,,,,,,,,,
298249,2022-11-27_13h08.25.262,vts_reward_expectancy_bt,2022.2.4,Win32,59.99520038,Chrome,1536,864,,,a,0.8002,10,499,2,0,3,3,5,1,0,1,0,0,0,0,0,1,circle,star,,,,,,,,,,,,,,,,,,,,,,,,,,,,,,,,,,,,,,,,,,,,,,,,,,,,,,
298249,2022-11-27_13h08.25.262,vts_reward_expectancy_bt,2022.2.4,Win32,59.99520038,Chrome,1536,864,,,a,1.5872,10,509,2,0,4,4,1,1,1,0,0,0,0,0,1,0,triangle,hexagon,,,,,,,,,,,,,,,,,,,,,,,,,,,,,,,,,,,,,,,,,,,,,,,,,,,,,,
298249,2022-11-27_13h08.25.262,vts_reward_expectancy_bt,2022.2.4,Win32,59.99520038,Chrome,1536,864,,,a,1.3624,1,510,2,0,5,5,8,1,0,0,1,0,0,0,0,1,hexagon,star,,,,,,,,,,,,,,,,,,,,,,,,,,,,,,,,,,,,,,,,,,,,,,,,,,,,,,
298249,2022-11-27_13h08.25.262,vts_reward_expectancy_bt,2022.2.4,Win32,59.99520038,Chrome,1536,864,,,l,1.3345,10,520,2,0,6,6,7,1,0,0,1,0,0,1,0,0,hexagon,circle,,,,,,,,,,,,,,,,,,,,,,,,,,,,,,,,,,,,,,,,,,,,,,,,,,,,,,
298249,2022-11-27_13h08.25.262,vts_reward_expectancy_bt,2022.2.4,Win32,59.99520038,Chrome,1536,864,,,a,0.9372,1,521,2,0,7,7,3,1,0,1,0,0,1,0,0,0,circle,triangle,,,,,,,,,,,,,,,,,,,,,,,,,,,,,,,,,,,,,,,,,,,,,,,,,,,,,,
298249,2022-11-27_13h08.25.262,vts_reward_expectancy_bt,2022.2.4,Win32,59.99520038,Chrome,1536,864,,,l,1.2489,1,522,2,0,8,8,9,1,0,0,0,1,1,0,0,0,star,triangle,,,,,,,,,,,,,,,,,,,,,,,,,,,,,,,,,,,,,,,,,,,,,,,,,,,,,,
298249,2022-11-27_13h08.25.262,vts_reward_expectancy_bt,2022.2.4,Win32,59.99520038,Chrome,1536,864,,,a,0.7484,1,523,2,0,9,9,4,1,0,1,0,0,0,0,1,0,circle,hexagon,,,,,,,,,,,,,,,,,,,,,,,,,,,,,,,,,,,,,,,,,,,,,,,,,,,,,,
298249,2022-11-27_13h08.25.262,vts_reward_expectancy_bt,2022.2.4,Win32,59.99520038,Chrome,1536,864,,,a,1.5585,1,524,2,0,10,10,6,1,0,0,1,0,1,0,0,0,hexagon,triangle,,,,,,,,,,,,,,,,,,,,,,,,,,,,,,,,,,,,,,,,,,,,,,,,,,,,,,
298249,2022-11-27_13h08.25.262,vts_reward_expectancy_bt,2022.2.4,Win32,59.99520038,Chrome,1536,864,,,l,2.1098,10,534,2,0,11,11,0,1,1,0,0,0,0,1,0,0,triangle,circle,,,,,,,,,,,,,,,,,,,,,,,,,,,,,,,,,,,,,,,,,,,,,,,,,,,,,,
298249,2022-11-27_13h08.25.262,vts_reward_expectancy_bt,2022.2.4,Win32,59.99520038,Chrome,1536,864,,,l,0.489,10,544,2,1,0,12,10,1,0,0,0,1,0,1,0,0,star ,circle,,,,,,,,,,,,,,,,,,,,,,,,,,,,,,,,,,,,,,,,,,,,,,,,,,,,,,
298249,2022-11-27_13h08.25.262,vts_reward_expectancy_bt,2022.2.4,Win32,59.99520038,Chrome,1536,864,,,l,0.5181,1,545,2,1,1,13,7,1,0,0,1,0,0,1,0,0,hexagon,circle,,,,,,,,,,,,,,,,,,,,,,,,,,,,,,,,,,,,,,,,,,,,,,,,,,,,,,
298249,2022-11-27_13h08.25.262,vts_reward_expectancy_bt,2022.2.4,Win32,59.99520038,Chrome,1536,864,,,l,1.6314,1,546,2,1,2,14,8,1,0,0,1,0,0,0,0,1,hexagon,star,,,,,,,,,,,,,,,,,,,,,,,,,,,,,,,,,,,,,,,,,,,,,,,,,,,,,,
298249,2022-11-27_13h08.25.262,vts_reward_expectancy_bt,2022.2.4,Win32,59.99520038,Chrome,1536,864,,,a,0.7392,1,547,2,1,3,15,6,1,0,0,1,0,1,0,0,0,hexagon,triangle,,,,,,,,,,,,,,,,,,,,,,,,,,,,,,,,,,,,,,,,,,,,,,,,,,,,,,
298249,2022-11-27_13h08.25.262,vts_reward_expectancy_bt,2022.2.4,Win32,59.99520038,Chrome,1536,864,,,a,0.8827,10,557,2,1,4,16,4,1,0,1,0,0,0,0,1,0,circle,hexagon,,,,,,,,,,,,,,,,,,,,,,,,,,,,,,,,,,,,,,,,,,,,,,,,,,,,,,
298249,2022-11-27_13h08.25.262,vts_reward_expectancy_bt,2022.2.4,Win32,59.99520038,Chrome,1536,864,,,a,0.9354,10,567,2,1,5,17,5,1,0,1,0,0,0,0,0,1,circle,star,,,,,,,,,,,,,,,,,,,,,,,,,,,,,,,,,,,,,,,,,,,,,,,,,,,,,,
298249,2022-11-27_13h08.25.262,vts_reward_expectancy_bt,2022.2.4,Win32,59.99520038,Chrome,1536,864,,,a,1.1633,1,568,2,1,6,18,2,1,1,0,0,0,0,0,0,1,triangle,star,,,,,,,,,,,,,,,,,,,,,,,,,,,,,,,,,,,,,,,,,,,,,,,,,,,,,,
298249,2022-11-27_13h08.25.262,vts_reward_expectancy_bt,2022.2.4,Win32,59.99520038,Chrome,1536,864,,,a,1.4458,10,578,2,1,7,19,3,1,0,1,0,0,1,0,0,0,circle,triangle,,,,,,,,,,,,,,,,,,,,,,,,,,,,,,,,,,,,,,,,,,,,,,,,,,,,,,
298249,2022-11-27_13h08.25.262,vts_reward_expectancy_bt,2022.2.4,Win32,59.99520038,Chrome,1536,864,,,a,1.5051,10,588,2,1,8,20,11,1,0,0,0,1,0,0,1,0,star,hexagon,,,,,,,,,,,,,,,,,,,,,,,,,,,,,,,,,,,,,,,,,,,,,,,,,,,,,,
298249,2022-11-27_13h08.25.262,vts_reward_expectancy_bt,2022.2.4,Win32,59.99520038,Chrome,1536,864,,,l,1.0867,1,589,2,1,9,21,0,1,1,0,0,0,0,1,0,0,triangle,circle,,,,,,,,,,,,,,,,,,,,,,,,,,,,,,,,,,,,,,,,,,,,,,,,,,,,,,
298249,2022-11-27_13h08.25.262,vts_reward_expectancy_bt,2022.2.4,Win32,59.99520038,Chrome,1536,864,,,a,1.9035,1,590,2,1,10,22,1,1,1,0,0,0,0,0,1,0,triangle,hexagon,,,,,,,,,,,,,,,,,,,,,,,,,,,,,,,,,,,,,,,,,,,,,,,,,,,,,,
298249,2022-11-27_13h08.25.262,vts_reward_expectancy_bt,2022.2.4,Win32,59.99520038,Chrome,1536,864,,,l,1.5391,1,591,2,1,11,23,9,1,0,0,0,1,1,0,0,0,star,triangle,,,,,,,,,,,,,,,,,,,,,,,,,,,,,,,,,,,,,,,,,,,,,,,,,,,,,,
298249,2022-11-27_13h08.25.262,vts_reward_expectancy_bt,2022.2.4,Win32,59.99520038,Chrome,1536,864,,,a,1.1901,1,592,2,2,0,24,3,1,0,1,0,0,1,0,0,0,circle,triangle,,,,,,,,,,,,,,,,,,,,,,,,,,,,,,,,,,,,,,,,,,,,,,,,,,,,,,
298249,2022-11-27_13h08.25.262,vts_reward_expectancy_bt,2022.2.4,Win32,59.99520038,Chrome,1536,864,,,a,2.0095,1,593,2,2,1,25,1,1,1,0,0,0,0,0,1,0,triangle,hexagon,,,,,,,,,,,,,,,,,,,,,,,,,,,,,,,,,,,,,,,,,,,,,,,,,,,,,,
298249,2022-11-27_13h08.25.262,vts_reward_expectancy_bt,2022.2.4,Win32,59.99520038,Chrome,1536,864,,,a,0.9711,10,603,2,2,2,26,5,1,0,1,0,0,0,0,0,1,circle,star,,,,,,,,,,,,,,,,,,,,,,,,,,,,,,,,,,,,,,,,,,,,,,,,,,,,,,
298249,2022-11-27_13h08.25.262,vts_reward_expectancy_bt,2022.2.4,Win32,59.99520038,Chrome,1536,864,,,l,1.5892,10,613,2,2,3,27,8,1,0,0,1,0,0,0,0,1,hexagon,star,,,,,,,,,,,,,,,,,,,,,,,,,,,,,,,,,,,,,,,,,,,,,,,,,,,,,,
298249,2022-11-27_13h08.25.262,vts_reward_expectancy_bt,2022.2.4,Win32,59.99520038,Chrome,1536,864,,,l,0.8731,10,623,2,2,4,28,0,1,1,0,0,0,0,1,0,0,triangle,circle,,,,,,,,,,,,,,,,,,,,,,,,,,,,,,,,,,,,,,,,,,,,,,,,,,,,,,
298249,2022-11-27_13h08.25.262,vts_reward_expectancy_bt,2022.2.4,Win32,59.99520038,Chrome,1536,864,,,a,0.5497,10,633,2,2,5,29,11,1,0,0,0,1,0,0,1,0,star,hexagon,,,,,,,,,,,,,,,,,,,,,,,,,,,,,,,,,,,,,,,,,,,,,,,,,,,,,,
298249,2022-11-27_13h08.25.262,vts_reward_expectancy_bt,2022.2.4,Win32,59.99520038,Chrome,1536,864,,,l,1.2368,10,643,2,2,6,30,7,1,0,0,1,0,0,1,0,0,hexagon,circle,,,,,,,,,,,,,,,,,,,,,,,,,,,,,,,,,,,,,,,,,,,,,,,,,,,,,,
298249,2022-11-27_13h08.25.262,vts_reward_expectancy_bt,2022.2.4,Win32,59.99520038,Chrome,1536,864,,,a,0.717,10,653,2,2,7,31,9,1,0,0,0,1,1,0,0,0,star,triangle,,,,,,,,,,,,,,,,,,,,,,,,,,,,,,,,,,,,,,,,,,,,,,,,,,,,,,
298249,2022-11-27_13h08.25.262,vts_reward_expectancy_bt,2022.2.4,Win32,59.99520038,Chrome,1536,864,,,a,0.9232,1,654,2,2,8,32,4,1,0,1,0,0,0,0,1,0,circle,hexagon,,,,,,,,,,,,,,,,,,,,,,,,,,,,,,,,,,,,,,,,,,,,,,,,,,,,,,
298249,2022-11-27_13h08.25.262,vts_reward_expectancy_bt,2022.2.4,Win32,59.99520038,Chrome,1536,864,,,l,1.0244,1,655,2,2,9,33,2,1,1,0,0,0,0,0,0,1,triangle,star,,,,,,,,,,,,,,,,,,,,,,,,,,,,,,,,,,,,,,,,,,,,,,,,,,,,,,
298249,2022-11-27_13h08.25.262,vts_reward_expectancy_bt,2022.2.4,Win32,59.99520038,Chrome,1536,864,,,l,1.7793,1,656,2,2,10,34,6,1,0,0,1,0,1,0,0,0,hexagon,triangle,,,,,,,,,,,,,,,,,,,,,,,,,,,,,,,,,,,,,,,,,,,,,,,,,,,,,,
298249,2022-11-27_13h08.25.262,vts_reward_expectancy_bt,2022.2.4,Win32,59.99520038,Chrome,1536,864,,,l,0.869,10,666,2,2,11,35,10,1,0,0,0,1,0,1,0,0,star ,circle,,,,,,,,,,,,,,,,,,,,,,,,,,,,,,,,,,,,,,,,,,,,,,,,,,,,,,
298249,2022-11-27_13h08.25.262,vts_reward_expectancy_bt,2022.2.4,Win32,59.99520038,Chrome,1536,864,,,,,,,,,,,,,,,,,,,,,,,125,D,hexagon,0,0,,0,0,0,0,0,1,,,,,,,,,,,,,,,,,,,,,,,,,,,,,,,,,,,,,,,,,,
298249,2022-11-27_13h08.25.262,vts_reward_expectancy_bt,2022.2.4,Win32,59.99520038,Chrome,1536,864,,,,,,,,,,,,,,,,,,,,,,,181,W,circle,1,1,f,0,1,0,1,0,1,1.412,,,,,,,,,,,,,,,,,,,,,,,,,,,,,,,,,,,,,,,,,
298249,2022-11-27_13h08.25.262,vts_reward_expectancy_bt,2022.2.4,Win32,59.99520038,Chrome,1536,864,,,,,,,,,,,,,,,,,,,,,,,139,Y,star,0,0,f,0,2,0,2,0,1,1.6026,,,,,,,,,,,,,,,,,,,,,,,,,,,,,,,,,,,,,,,,,
298249,2022-11-27_13h08.25.262,vts_reward_expectancy_bt,2022.2.4,Win32,59.99520038,Chrome,1536,864,,,,,,,,,,,,,,,,,,,,,,,132,F,triangle,1,1,d,0,3,0,3,0,1,1.4026,,,,,,,,,,,,,,,,,,,,,,,,,,,,,,,,,,,,,,,,,
298249,2022-11-27_13h08.25.262,vts_reward_expectancy_bt,2022.2.4,Win32,59.99520038,Chrome,1536,864,,,,,,,,,,,,,,,,,,,,,,,160,B,hexagon,1,0,f,0,4,0,4,0,1,0.9409,,,,,,,,,,,,,,,,,,,,,,,,,,,,,,,,,,,,,,,,,
298249,2022-11-27_13h08.25.262,vts_reward_expectancy_bt,2022.2.4,Win32,59.99520038,Chrome,1536,864,,,,,,,,,,,,,,,,,,,,,,,146,S,circle,1,0,d,0,5,0,5,0,1,1.2606,,,,,,,,,,,,,,,,,,,,,,,,,,,,,,,,,,,,,,,,,
298249,2022-11-27_13h08.25.262,vts_reward_expectancy_bt,2022.2.4,Win32,59.99520038,Chrome,1536,864,,,,,,,,,,,,,,,,,,,,,,,167,H,star,1,0,f,0,6,0,6,0,1,0.7555,,,,,,,,,,,,,,,,,,,,,,,,,,,,,,,,,,,,,,,,,
298249,2022-11-27_13h08.25.262,vts_reward_expectancy_bt,2022.2.4,Win32,59.99520038,Chrome,1536,864,,,,,,,,,,,,,,,,,,,,,,,174,U,triangle,1,0,f,0,7,0,7,0,1,0.902,,,,,,,,,,,,,,,,,,,,,,,,,,,,,,,,,,,,,,,,,
298249,2022-11-27_13h08.25.262,vts_reward_expectancy_bt,2022.2.4,Win32,59.99520038,Chrome,1536,864,,,,,,,,,,,,,,,,,,,,,,,125,D,hexagon,1,0,d,0,8,0,8,0,1,1.2284,,,,,,,,,,,,,,,,,,,,,,,,,,,,,,,,,,,,,,,,,
298249,2022-11-27_13h08.25.262,vts_reward_expectancy_bt,2022.2.4,Win32,59.99520038,Chrome,1536,864,,,,,,,,,,,,,,,,,,,,,,,181,W,star,1,0,f,0,9,0,9,0,1,1.0105,,,,,,,,,,,,,,,,,,,,,,,,,,,,,,,,,,,,,,,,,
298249,2022-11-27_13h08.25.262,vts_reward_expectancy_bt,2022.2.4,Win32,59.99520038,Chrome,1536,864,,,,,,,,,,,,,,,,,,,,,,,125,S,hexagon,1,0,d,1,0,0,0,0,1,0.8267,,,,,,,,,,,,,,,,,,,,,,,,,,,,,,,,,,,,,,,,,
298249,2022-11-27_13h08.25.262,vts_reward_expectancy_bt,2022.2.4,Win32,59.99520038,Chrome,1536,864,,,,,,,,,,,,,,,,,,,,,,,132,B,star,1,0,d,1,1,0,1,0,1,0.6769,,,,,,,,,,,,,,,,,,,,,,,,,,,,,,,,,,,,,,,,,
298249,2022-11-27_13h08.25.262,vts_reward_expectancy_bt,2022.2.4,Win32,59.99520038,Chrome,1536,864,,,,,,,,,,,,,,,,,,,,,,,160,H,circle,1,0,f,1,2,0,2,0,1,0.8271,,,,,,,,,,,,,,,,,,,,,,,,,,,,,,,,,,,,,,,,,
298249,2022-11-27_13h08.25.262,vts_reward_expectancy_bt,2022.2.4,Win32,59.99520038,Chrome,1536,864,,,,,,,,,,,,,,,,,,,,,,,167,W,triangle,1,0,f,1,3,0,3,0,1,0.5866,,,,,,,,,,,,,,,,,,,,,,,,,,,,,,,,,,,,,,,,,
298249,2022-11-27_13h08.25.262,vts_reward_expectancy_bt,2022.2.4,Win32,59.99520038,Chrome,1536,864,,,,,,,,,,,,,,,,,,,,,,,181,U,hexagon,1,0,f,1,4,0,4,0,1,0.7429,,,,,,,,,,,,,,,,,,,,,,,,,,,,,,,,,,,,,,,,,
298249,2022-11-27_13h08.25.262,vts_reward_expectancy_bt,2022.2.4,Win32,59.99520038,Chrome,1536,864,,,,,,,,,,,,,,,,,,,,,,,174,F,star,1,0,f,1,5,0,5,0,1,1.1075,,,,,,,,,,,,,,,,,,,,,,,,,,,,,,,,,,,,,,,,,
298249,2022-11-27_13h08.25.262,vts_reward_expectancy_bt,2022.2.4,Win32,59.99520038,Chrome,1536,864,,,,,,,,,,,,,,,,,,,,,,,146,Y,circle,1,0,d,1,6,0,6,0,1,0.7829,,,,,,,,,,,,,,,,,,,,,,,,,,,,,,,,,,,,,,,,,
298249,2022-11-27_13h08.25.262,vts_reward_expectancy_bt,2022.2.4,Win32,59.99520038,Chrome,1536,864,,,,,,,,,,,,,,,,,,,,,,,139,D,triangle,1,0,d,1,7,0,7,0,1,0.9092,,,,,,,,,,,,,,,,,,,,,,,,,,,,,,,,,,,,,,,,,
298249,2022-11-27_13h08.25.262,vts_reward_expectancy_bt,2022.2.4,Win32,59.99520038,Chrome,1536,864,,,,,,,,,,,,,,,,,,,,,,,125,S,circle,1,0,d,1,8,0,8,0,1,0.5614,,,,,,,,,,,,,,,,,,,,,,,,,,,,,,,,,,,,,,,,,
298249,2022-11-27_13h08.25.262,vts_reward_expectancy_bt,2022.2.4,Win32,59.99520038,Chrome,1536,864,,,,,,,,,,,,,,,,,,,,,,,132,B,triangle,1,0,d,1,9,0,9,0,1,0.8668,,,,,,,,,,,,,,,,,,,,,,,,,,,,,,,,,,,,,,,,,
298249,2022-11-27_13h08.25.262,vts_reward_expectancy_bt,2022.2.4,Win32,59.99520038,Chrome,1536,864,,,,,,,,,,,,,,,,,,,,,,,167,W,hexagon,1,0,,2,,,,,,,k,0.7993,0,0,0,0,1,,,,,,,,,,,,,,,,,,,,,,,,,,,,,,,,,,
298249,2022-11-27_13h08.25.262,vts_reward_expectancy_bt,2022.2.4,Win32,59.99520038,Chrome,1536,864,,,,,,,,,,,,,,,,,,,,,,,174,H,star,1,0,,2,,,,,,,j,0.8475,1,0,1,0,1,,,,,,,,,,,,,,,,,,,,,,,,,,,,,,,,,,
298249,2022-11-27_13h08.25.262,vts_reward_expectancy_bt,2022.2.4,Win32,59.99520038,Chrome,1536,864,,,,,,,,,,,,,,,,,,,,,,,181,Y,circle,1,0,,2,,,,,,,k,0.7003,2,0,2,0,1,,,,,,,,,,,,,,,,,,,,,,,,,,,,,,,,,,
298249,2022-11-27_13h08.25.262,vts_reward_expectancy_bt,2022.2.4,Win32,59.99520038,Chrome,1536,864,,,,,,,,,,,,,,,,,,,,,,,132,B,triangle,1,0,,2,,,,,,,j,0.6659,3,0,3,0,1,,,,,,,,,,,,,,,,,,,,,,,,,,,,,,,,,,
298249,2022-11-27_13h08.25.262,vts_reward_expectancy_bt,2022.2.4,Win32,59.99520038,Chrome,1536,864,,,,,,,,,,,,,,,,,,,,,,,146,S,hexagon,1,0,,2,,,,,,,k,0.5996,4,0,4,0,1,,,,,,,,,,,,,,,,,,,,,,,,,,,,,,,,,,
298249,2022-11-27_13h08.25.262,vts_reward_expectancy_bt,2022.2.4,Win32,59.99520038,Chrome,1536,864,,,,,,,,,,,,,,,,,,,,,,,125,U,star,1,0,,2,,,,,,,k,0.8002,5,0,5,0,1,,,,,,,,,,,,,,,,,,,,,,,,,,,,,,,,,,
298249,2022-11-27_13h08.25.262,vts_reward_expectancy_bt,2022.2.4,Win32,59.99520038,Chrome,1536,864,,,,,,,,,,,,,,,,,,,,,,,139,D,circle,1,0,,2,,,,,,,j,0.682,6,0,6,0,1,,,,,,,,,,,,,,,,,,,,,,,,,,,,,,,,,,
298249,2022-11-27_13h08.25.262,vts_reward_expectancy_bt,2022.2.4,Win32,59.99520038,Chrome,1536,864,,,,,,,,,,,,,,,,,,,,,,,160,F,triangle,1,0,,2,,,,,,,j,0.6821,7,0,7,0,1,,,,,,,,,,,,,,,,,,,,,,,,,,,,,,,,,,
298249,2022-11-27_13h08.25.262,vts_reward_expectancy_bt,2022.2.4,Win32,59.99520038,Chrome,1536,864,,,,,,,,,,,,,,,,,,,,,,,167,W,hexagon,1,0,,2,,,,,,,k,0.835,8,0,8,0,1,,,,,,,,,,,,,,,,,,,,,,,,,,,,,,,,,,
298249,2022-11-27_13h08.25.262,vts_reward_expectancy_bt,2022.2.4,Win32,59.99520038,Chrome,1536,864,,,,,,,,,,,,,,,,,,,,,,,174,H,star,1,0,,2,,,,,,,j,0.7307,9,0,9,0,1,,,,,,,,,,,,,,,,,,,,,,,,,,,,,,,,,,
298249,2022-11-27_13h08.25.262,vts_reward_expectancy_bt,2022.2.4,Win32,59.99520038,Chrome,1536,864,,,,,0,666,,,,,,,,,,,,,,,,,125,B,hexagon,1,0,,3,,,,,,,,,,,,,,-1,number,NA,d,1.4438,vtsPrac,0,0,0,0,1,,,,,,,,,,,,,,,,,,,,,,,
298249,2022-11-27_13h08.25.262,vts_reward_expectancy_bt,2022.2.4,Win32,59.99520038,Chrome,1536,864,,,,,0,666,,,,,,,,,,,,,,,,,146,W,triangle,1,0,,3,,,,,,,,,,,,,,repeat,number,numRpt,d,1.5172,vtsPrac,1,0,1,0,1,,,,,,,,,,,,,,,,,,,,,,,
298249,2022-11-27_13h08.25.262,vts_reward_expectancy_bt,2022.2.4,Win32,59.99520038,Chrome,1536,864,,,,,0,666,,,,,,,,,,,,,,,,,132,S,hexagon,1,0,,3,,,,,,,,,,,,,,repeat,number,numRpt,d,1.2145,vtsPrac,2,0,2,0,1,,,,,,,,,,,,,,,,,,,,,,,
298249,2022-11-27_13h08.25.262,vts_reward_expectancy_bt,2022.2.4,Win32,59.99520038,Chrome,1536,864,,,,,0,666,,,,,,,,,,,,,,,,,139,F,triangle,1,0,,3,,,,,,,,,,,,,,repeat,number,numRpt,d,0.8657,vtsPrac,3,0,3,0,1,,,,,,,,,,,,,,,,,,,,,,,
298249,2022-11-27_13h08.25.262,vts_reward_expectancy_bt,2022.2.4,Win32,59.99520038,Chrome,1536,864,,,,,0,666,,,,,,,,,,,,,,,,,125,B,circle,1,0,,3,,,,,,,,,,,,,,repeat,number,numRpt,d,0.9652,vtsPrac,4,0,4,0,1,,,,,,,,,,,,,,,,,,,,,,,
298249,2022-11-27_13h08.25.262,vts_reward_expectancy_bt,2022.2.4,Win32,59.99520038,Chrome,1536,864,,,,,0,666,,,,,,,,,,,,,,,,,146,W,triangle,1,0,,3,,,,,,,,,,,,,,repeat,number,numRpt,d,1.0016,vtsPrac,5,0,5,0,1,,,,,,,,,,,,,,,,,,,,,,,
298249,2022-11-27_13h08.25.262,vts_reward_expectancy_bt,2022.2.4,Win32,59.99520038,Chrome,1536,864,,,,,0,666,,,,,,,,,,,,,,,,,132,S,hexagon,1,0,,3,,,,,,,,,,,,,,repeat,number,numRpt,d,1.6491,vtsPrac,6,0,6,0,1,,,,,,,,,,,,,,,,,,,,,,,
298249,2022-11-27_13h08.25.262,vts_reward_expectancy_bt,2022.2.4,Win32,59.99520038,Chrome,1536,864,,,,,0,666,,,,,,,,,,,,,,,,,139,F,star,1,0,,3,,,,,,,,,,,,,,repeat,number,numRpt,d,1.3971,vtsPrac,7,0,7,0,1,,,,,,,,,,,,,,,,,,,,,,,
298249,2022-11-27_13h08.25.262,vts_reward_expectancy_bt,2022.2.4,Win32,59.99520038,Chrome,1536,864,,,,,0,666,,,,,,,,,,,,,,,,,146,B,star,1,0,,3,,,,,,,,,,,,,,repeat,number,numRpt,d,1.1314,vtsPrac,8,0,8,0,1,,,,,,,,,,,,,,,,,,,,,,,
298249,2022-11-27_13h08.25.262,vts_reward_expectancy_bt,2022.2.4,Win32,59.99520038,Chrome,1536,864,,,,,0,666,,,,,,,,,,,,,,,,,160,F,triangle,1,0,,3,,,,,,,,,,,,,,switch,letter,lettSwt,j,1.2649,vtsPrac,9,0,9,0,1,,,,,,,,,,,,,,,,,,,,,,,
298249,2022-11-27_13h08.25.262,vts_reward_expectancy_bt,2022.2.4,Win32,59.99520038,Chrome,1536,864,,,,,0,666,,,,,,,,,,,,,,,,,174,W,hexagon,1,0,,3,,,,,,,,,,,,,,switch,number,numSwt,f,1.5036,vtsPrac,10,0,10,0,1,,,,,,,,,,,,,,,,,,,,,,,
298249,2022-11-27_13h08.25.262,vts_reward_expectancy_bt,2022.2.4,Win32,59.99520038,Chrome,1536,864,,,,,0,666,,,,,,,,,,,,,,,,,181,D,triangle,1,0,,3,,,,,,,,,,,,,,switch,letter,lettSwt,j,1.7364,vtsPrac,11,0,11,0,1,,,,,,,,,,,,,,,,,,,,,,,
298249,2022-11-27_13h08.25.262,vts_reward_expectancy_bt,2022.2.4,Win32,59.99520038,Chrome,1536,864,,,,,0,666,,,,,,,,,,,,,,,,,146,F,star,1,0,,3,,,,,,,,,,,,,,switch,number,numSwt,d,1.2856,vtsPrac,12,0,12,0,1,,,,,,,,,,,,,,,,,,,,,,,
298249,2022-11-27_13h08.25.262,vts_reward_expectancy_bt,2022.2.4,Win32,59.99520038,Chrome,1536,864,,,,,0,666,,,,,,,,,,,,,,,,,139,D,triangle,1,0,,3,,,,,,,,,,,,,,repeat,number,numRpt,d,1.4656,vtsPrac,13,0,13,0,1,,,,,,,,,,,,,,,,,,,,,,,
298249,2022-11-27_13h08.25.262,vts_reward_expectancy_bt,2022.2.4,Win32,59.99520038,Chrome,1536,864,,,,,0,666,,,,,,,,,,,,,,,,,174,W,star,1,0,,3,,,,,,,,,,,,,,repeat,number,numRpt,f,1.0177,vtsPrac,14,0,14,0,1,,,,,,,,,,,,,,,,,,,,,,,
298249,2022-11-27_13h08.25.262,vts_reward_expectancy_bt,2022.2.4,Win32,59.99520038,Chrome,1536,864,,,,,0,666,,,,,,,,,,,,,,,,,167,Y,triangle,1,0,,3,,,,,,,,,,,,,,repeat,number,numRpt,f,1.769,vtsPrac,15,0,15,0,1,,,,,,,,,,,,,,,,,,,,,,,
298249,2022-11-27_13h08.25.262,vts_reward_expectancy_bt,2022.2.4,Win32,59.99520038,Chrome,1536,864,,,,,0,666,,,,,,,,,,,,,,,,,146,Y,triangle,1,0,,3,,,,,,,,,,,,,,repeat,number,numRpt,d,1.1193,vtsPrac,16,0,16,0,1,,,,,,,,,,,,,,,,,,,,,,,
298249,2022-11-27_13h08.25.262,vts_reward_expectancy_bt,2022.2.4,Win32,59.99520038,Chrome,1536,864,,,,,0,666,,,,,,,,,,,,,,,,,125,U,hexagon,1,0,,3,,,,,,,,,,,,,,repeat,number,numRpt,d,1.4149,vtsPrac,17,0,17,0,1,,,,,,,,,,,,,,,,,,,,,,,
298249,2022-11-27_13h08.25.262,vts_reward_expectancy_bt,2022.2.4,Win32,59.99520038,Chrome,1536,864,,,,,0,666,,,,,,,,,,,,,,,,,139,F,hexagon,1,0,,3,,,,,,,,,,,,,,switch,letter,lettSwt,j,1.1197,vtsPrac,18,0,18,0,1,,,,,,,,,,,,,,,,,,,,,,,
298249,2022-11-27_13h08.25.262,vts_reward_expectancy_bt,2022.2.4,Win32,59.99520038,Chrome,1536,864,,,,,0,666,,,,,,,,,,,,,,,,,167,D,circle,1,0,,3,,,,,,,,,,,,,,switch,number,numSwt,f,1.3024,vtsPrac,19,0,19,0,1,,,,,,,,,,,,,,,,,,,,,,,
298249,2022-11-27_13h08.25.262,vts_reward_expectancy_bt,2022.2.4,Win32,59.99520038,Chrome,1536,864,,,,,0,666,,,,,,,,,,,,,,,,,181,W,star,1,0,,3,,,,,,,,,,,,,,repeat,number,numRpt,f,1.3636,vtsPrac,20,0,20,0,1,,,,,,,,,,,,,,,,,,,,,,,
298249,2022-11-27_13h08.25.262,vts_reward_expectancy_bt,2022.2.4,Win32,59.99520038,Chrome,1536,864,,,,,0,666,,,,,,,,,,,,,,,,,132,D,triangle,1,0,,3,,,,,,,,,,,,,,repeat,number,numRpt,d,0.8997,vtsPrac,21,0,21,0,1,,,,,,,,,,,,,,,,,,,,,,,
298249,2022-11-27_13h08.25.262,vts_reward_expectancy_bt,2022.2.4,Win32,59.99520038,Chrome,1536,864,,,,,0,666,,,,,,,,,,,,,,,,,125,H,hexagon,1,0,,3,,,,,,,,,,,,,,switch,letter,lettSwt,j,0.9983,vtsPrac,22,0,22,0,1,,,,,,,,,,,,,,,,,,,,,,,
298249,2022-11-27_13h08.25.262,vts_reward_expectancy_bt,2022.2.4,Win32,59.99520038,Chrome,1536,864,,,,,0,666,,,,,,,,,,,,,,,,,139,Y,circle,1,0,,3,,,,,,,,,,,,,,switch,number,numSwt,d,1.3503,vtsPrac,23,0,23,0,1,,,,,,,,,,,,,,,,,,,,,,,
298249,2022-11-27_13h08.25.262,vts_reward_expectancy_bt,2022.2.4,Win32,59.99520038,Chrome,1536,864,,,,,0,666,,,,,,,,,,,,,,,,,132,U,triangle,1,0,,3,,,,,,,,,,,,,,repeat,number,numRpt,d,1.1829,vtsPrac,24,0,24,0,1,,,,,,,,,,,,,,,,,,,,,,,
298249,2022-11-27_13h08.25.262,vts_reward_expectancy_bt,2022.2.4,Win32,59.99520038,Chrome,1536,864,,,,,0,666,,,,,,,,,,,,,,,,,167,S,circle,1,0,,3,,,,,,,,,,,,,,repeat,number,numRpt,f,1.83,vtsPrac,25,0,25,0,1,,,,,,,,,,,,,,,,,,,,,,,
298249,2022-11-27_13h08.25.262,vts_reward_expectancy_bt,2022.2.4,Win32,59.99520038,Chrome,1536,864,,,,,0,666,,,,,,,,,,,,,,,,,181,H,triangle,1,0,,3,,,,,,,,,,,,,,switch,letter,lettSwt,j,1.1131,vtsPrac,26,0,26,0,1,,,,,,,,,,,,,,,,,,,,,,,
298249,2022-11-27_13h08.25.262,vts_reward_expectancy_bt,2022.2.4,Win32,59.99520038,Chrome,1536,864,,,,,0,666,,,,,,,,,,,,,,,,,139,F,circle,1,0,,3,,,,,,,,,,,,,,switch,number,numSwt,d,1.5362,vtsPrac,27,0,27,0,1,,,,,,,,,,,,,,,,,,,,,,,
298249,2022-11-27_13h08.25.262,vts_reward_expectancy_bt,2022.2.4,Win32,59.99520038,Chrome,1536,864,,,,,0,666,,,,,,,,,,,,,,,,,167,U,circle,1,0,,3,,,,,,,,,,,,,,switch,letter,lettSwt,k,1.5231,vtsPrac,28,0,28,0,1,,,,,,,,,,,,,,,,,,,,,,,
298249,2022-11-27_13h08.25.262,vts_reward_expectancy_bt,2022.2.4,Win32,59.99520038,Chrome,1536,864,,,,,0,666,,,,,,,,,,,,,,,,,125,S,triangle,1,0,,3,,,,,,,,,,,,,,switch,number,numSwt,d,1.418,vtsPrac,29,0,29,0,1,,,,,,,,,,,,,,,,,,,,,,,
298249,2022-11-27_13h08.25.262,vts_reward_expectancy_bt,2022.2.4,Win32,59.99520038,Chrome,1536,864,,,,,0,666,,,,,,,,,,,,,,,,,174,D,circle,1,0,,3,,,,,,,,,,,,,,repeat,number,numRpt,f,1.5205,vtsPrac,30,0,30,0,1,,,,,,,,,,,,,,,,,,,,,,,
298249,2022-11-27_13h08.25.262,vts_reward_expectancy_bt,2022.2.4,Win32,59.99520038,Chrome,1536,864,,,,,0,666,,,,,,,,,,,,,,,,,146,B,star,1,0,,3,,,,,,,,,,,,,,repeat,number,numRpt,d,1.5369,vtsPrac,31,0,31,0,1,,,,,,,,,,,,,,,,,,,,,,,
298249,2022-11-27_13h08.25.262,vts_reward_expectancy_bt,2022.2.4,Win32,59.99520038,Chrome,1536,864,,,,,,,,,,,,,,,,,,,,,,,,,,,,,,,,,,,,,,,,,,,,,,,,,,,,,,,,,,,,,,,,,,,,,,,,,,,,
298249,2022-11-27_13h08.25.262,vts_reward_expectancy_bt,2022.2.4,Win32,59.99520038,Chrome,1536,864,,,,,,,,,,,,,,,,,,,,,,,,,,,,,,,,,,,,,,,,,,,,,,,,,,,,,,,,,,,,,,,,,,,,,,,,,,,,
298249,2022-11-27_13h08.25.262,vts_reward_expectancy_bt,2022.2.4,Win32,59.99520038,Chrome,1536,864,,,,,0,666,,,,,,,,,,,,,,,,,181,F,hexagon,1,0,,,,,,,,,,,,,,,,repeat,number,numRpt,f,1.1012,noRew,,,,,,0,0,0,0,0,1,,,,,,,,,,,,,,,,,
298249,2022-11-27_13h08.25.262,vts_reward_expectancy_bt,2022.2.4,Win32,59.99520038,Chrome,1536,864,,,,,0,666,,,,,,,,,,,,,,,,,160,W,star,1,0,,,,,,,,,,,,,,,,repeat,number,numRpt,f,0.8835,noRew,,,,,,0,1,0,1,0,1,,,,,,,,,,,,,,,,,
298249,2022-11-27_13h08.25.262,vts_reward_expectancy_bt,2022.2.4,Win32,59.99520038,Chrome,1536,864,,,,,0,666,,,,,,,,,,,,,,,,,132,H,hexagon,0,0,,,,,,,,,,,,,,,,switch,letter,NA,k,1.1153,noRew,,,,,,0,2,0,2,0,1,,,,,,,,,,,,,,,,,
298249,2022-11-27_13h08.25.262,vts_reward_expectancy_bt,2022.2.4,Win32,59.99520038,Chrome,1536,864,,,,,0,666,,,,,,,,,,,,,,,,,125,D,star,1,1,,,,,,,,,,,,,,,,repeat,letter,lettRpt,j,0.8496,noRew,,,,,,0,3,0,3,0,1,,,,,,,,,,,,,,,,,
298249,2022-11-27_13h08.25.262,vts_reward_expectancy_bt,2022.2.4,Win32,59.99520038,Chrome,1536,864,,,,,0,666,,,,,,,,,,,,,,,,,181,F,hexagon,1,0,,,,,,,,,,,,,,,,repeat,letter,lettRpt,j,0.7326,noRew,,,,,,0,4,0,4,0,1,,,,,,,,,,,,,,,,,
298249,2022-11-27_13h08.25.262,vts_reward_expectancy_bt,2022.2.4,Win32,59.99520038,Chrome,1536,864,,,,,0,666,,,,,,,,,,,,,,,,,160,W,triangle,1,0,,,,,,,,,,,,,,,,switch,number,numSwt,f,1.3155,noRew,,,,,,0,5,0,5,0,1,,,,,,,,,,,,,,,,,
298249,2022-11-27_13h08.25.262,vts_reward_expectancy_bt,2022.2.4,Win32,59.99520038,Chrome,1536,864,,,,,0,666,,,,,,,,,,,,,,,,,132,H,circle,1,0,,,,,,,,,,,,,,,,switch,letter,lettSwt,j,1.0155,noRew,,,,,,0,6,0,6,0,1,,,,,,,,,,,,,,,,,
298249,2022-11-27_13h08.25.262,vts_reward_expectancy_bt,2022.2.4,Win32,59.99520038,Chrome,1536,864,,,,,0,666,,,,,,,,,,,,,,,,,125,D,hexagon,1,0,,,,,,,,,,,,,,,,switch,number,numSwt,d,0.7987,noRew,,,,,,0,7,0,7,0,1,,,,,,,,,,,,,,,,,
298249,2022-11-27_13h08.25.262,vts_reward_expectancy_bt,2022.2.4,Win32,59.99520038,Chrome,1536,864,,,,,0,666,,,,,,,,,,,,,,,,,125,U,triangle,1,0,,,,,,,,,,,,,,,,repeat,number,numRpt,d,0.8389,noRew,,,,,,0,8,0,8,0,1,,,,,,,,,,,,,,,,,
298249,2022-11-27_13h08.25.262,vts_reward_expectancy_bt,2022.2.4,Win32,59.99520038,Chrome,1536,864,,,,,0,666,,,,,,,,,,,,,,,,,174,B,hexagon,1,0,,,,,,,,,,,,,,,,switch,letter,lettSwt,j,0.602,noRew,,,,,,0,9,0,9,0,1,,,,,,,,,,,,,,,,,
298249,2022-11-27_13h08.25.262,vts_reward_expectancy_bt,2022.2.4,Win32,59.99520038,Chrome,1536,864,,,,,0,666,,,,,,,,,,,,,,,,,181,F,hexagon,1,0,,,,,,,,,,,,,,,,switch,number,numSwt,f,0.6986,noRew,,,,,,0,10,0,10,0,1,,,,,,,,,,,,,,,,,
298249,2022-11-27_13h08.25.262,vts_reward_expectancy_bt,2022.2.4,Win32,59.99520038,Chrome,1536,864,,,,,0,666,,,,,,,,,,,,,,,,,167,W,triangle,1,0,,,,,,,,,,,,,,,,repeat,number,numRpt,f,0.9659,noRew,,,,,,0,11,0,11,0,1,,,,,,,,,,,,,,,,,
298249,2022-11-27_13h08.25.262,vts_reward_expectancy_bt,2022.2.4,Win32,59.99520038,Chrome,1536,864,,,,,0,666,,,,,,,,,,,,,,,,,160,H,triangle,1,0,,,,,,,,,,,,,,,,switch,letter,lettSwt,j,1.0815,noRew,,,,,,0,12,0,12,0,1,,,,,,,,,,,,,,,,,
298249,2022-11-27_13h08.25.262,vts_reward_expectancy_bt,2022.2.4,Win32,59.99520038,Chrome,1536,864,,,,,0,666,,,,,,,,,,,,,,,,,181,F,circle,1,0,,,,,,,,,,,,,,,,repeat,letter,lettRpt,j,0.9177,noRew,,,,,,0,13,0,13,0,1,,,,,,,,,,,,,,,,,
298249,2022-11-27_13h08.25.262,vts_reward_expectancy_bt,2022.2.4,Win32,59.99520038,Chrome,1536,864,,,,,0,666,,,,,,,,,,,,,,,,,174,B,star,1,0,,,,,,,,,,,,,,,,switch,number,numSwt,f,1.1327,noRew,,,,,,0,14,0,14,0,1,,,,,,,,,,,,,,,,,
298249,2022-11-27_13h08.25.262,vts_reward_expectancy_bt,2022.2.4,Win32,59.99520038,Chrome,1536,864,,,,,0,666,,,,,,,,,,,,,,,,,132,S,circle,1,0,,,,,,,,,,,,,,,,repeat,number,numRpt,d,0.982,noRew,,,,,,0,15,0,15,0,1,,,,,,,,,,,,,,,,,
298249,2022-11-27_13h08.25.262,vts_reward_expectancy_bt,2022.2.4,Win32,59.99520038,Chrome,1536,864,,,,,0,666,,,,,,,,,,,,,,,,,181,D,hexagon,1,0,,,,,,,,,,,,,,,,repeat,number,numRpt,f,0.731,noRew,,,,,,0,16,0,16,0,1,,,,,,,,,,,,,,,,,
298249,2022-11-27_13h08.25.262,vts_reward_expectancy_bt,2022.2.4,Win32,59.99520038,Chrome,1536,864,,,,,0,666,,,,,,,,,,,,,,,,,146,F,star,1,0,,,,,,,,,,,,,,,,repeat,number,numRpt,d,0.9149,noRew,,,,,,0,17,0,17,0,1,,,,,,,,,,,,,,,,,
298249,2022-11-27_13h08.25.262,vts_reward_expectancy_bt,2022.2.4,Win32,59.99520038,Chrome,1536,864,,,,,0,666,,,,,,,,,,,,,,,,,125,H,triangle,1,0,,,,,,,,,,,,,,,,switch,letter,lettSwt,j,1.0496,noRew,,,,,,0,18,0,18,0,1,,,,,,,,,,,,,,,,,
298249,2022-11-27_13h08.25.262,vts_reward_expectancy_bt,2022.2.4,Win32,59.99520038,Chrome,1536,864,,,,,0,666,,,,,,,,,,,,,,,,,132,B,star,1,0,,,,,,,,,,,,,,,,switch,number,numSwt,d,1.147,noRew,,,,,,0,19,0,19,0,1,,,,,,,,,,,,,,,,,
298249,2022-11-27_13h08.25.262,vts_reward_expectancy_bt,2022.2.4,Win32,59.99520038,Chrome,1536,864,,,,,0,666,,,,,,,,,,,,,,,,,167,B,hexagon,1,0,,,,,,,,,,,,,,,,switch,letter,lettSwt,j,0.6864,noRew,,,,,,0,20,0,20,0,1,,,,,,,,,,,,,,,,,
298249,2022-11-27_13h08.25.262,vts_reward_expectancy_bt,2022.2.4,Win32,59.99520038,Chrome,1536,864,,,,,0,666,,,,,,,,,,,,,,,,,181,F,circle,1,0,,,,,,,,,,,,,,,,repeat,letter,lettRpt,j,0.9165,noRew,,,,,,0,21,0,21,0,1,,,,,,,,,,,,,,,,,
298249,2022-11-27_13h08.25.262,vts_reward_expectancy_bt,2022.2.4,Win32,59.99520038,Chrome,1536,864,,,,,0,666,,,,,,,,,,,,,,,,,146,D,star,1,0,,,,,,,,,,,,,,,,repeat,letter,lettRpt,j,1.1665,noRew,,,,,,0,22,0,22,0,1,,,,,,,,,,,,,,,,,
298249,2022-11-27_13h08.25.262,vts_reward_expectancy_bt,2022.2.4,Win32,59.99520038,Chrome,1536,864,,,,,0,666,,,,,,,,,,,,,,,,,160,U,triangle,1,0,,,,,,,,,,,,,,,,switch,number,numSwt,f,1.0509,noRew,,,,,,0,23,0,23,0,1,,,,,,,,,,,,,,,,,
298249,2022-11-27_13h08.25.262,vts_reward_expectancy_bt,2022.2.4,Win32,59.99520038,Chrome,1536,864,,,,,0,666,,,,,,,,,,,,,,,,,181,B,circle,1,0,,,,,,,,,,,,,,,,repeat,number,numRpt,f,0.7648,noRew,,,,,,0,24,0,24,0,1,,,,,,,,,,,,,,,,,
298249,2022-11-27_13h08.25.262,vts_reward_expectancy_bt,2022.2.4,Win32,59.99520038,Chrome,1536,864,,,,,0,666,,,,,,,,,,,,,,,,,125,H,hexagon,1,0,,,,,,,,,,,,,,,,repeat,number,numRpt,d,0.9188,noRew,,,,,,0,25,0,25,0,1,,,,,,,,,,,,,,,,,
298249,2022-11-27_13h08.25.262,vts_reward_expectancy_bt,2022.2.4,Win32,59.99520038,Chrome,1536,864,,,,,0,666,,,,,,,,,,,,,,,,,139,S,triangle,1,0,,,,,,,,,,,,,,,,switch,letter,lettSwt,k,0.8505,noRew,,,,,,0,26,0,26,0,1,,,,,,,,,,,,,,,,,
298249,2022-11-27_13h08.25.262,vts_reward_expectancy_bt,2022.2.4,Win32,59.99520038,Chrome,1536,864,,,,,0,666,,,,,,,,,,,,,,,,,160,Y,star,0,0,,,,,,,,,,,,,,,,switch,number,NA,d,1.5317,noRew,,,,,,0,27,0,27,0,1,,,,,,,,,,,,,,,,,
298249,2022-11-27_13h08.25.262,vts_reward_expectancy_bt,2022.2.4,Win32,59.99520038,Chrome,1536,864,,,,,0,666,,,,,,,,,,,,,,,,,139,U,triangle,1,1,,,,,,,,,,,,,,,,switch,letter,lettSwt,k,0.7856,noRew,,,,,,0,28,0,28,0,1,,,,,,,,,,,,,,,,,
298249,2022-11-27_13h08.25.262,vts_reward_expectancy_bt,2022.2.4,Win32,59.99520038,Chrome,1536,864,,,,,0,666,,,,,,,,,,,,,,,,,167,W,star,1,0,,,,,,,,,,,,,,,,repeat,letter,lettRpt,k,0.7147,noRew,,,,,,0,29,0,29,0,1,,,,,,,,,,,,,,,,,
298249,2022-11-27_13h08.25.262,vts_reward_expectancy_bt,2022.2.4,Win32,59.99520038,Chrome,1536,864,,,,,0,666,,,,,,,,,,,,,,,,,132,D,circle,1,0,,,,,,,,,,,,,,,,repeat,letter,lettRpt,j,0.9562,noRew,,,,,,0,30,0,30,0,1,,,,,,,,,,,,,,,,,
298249,2022-11-27_13h08.25.262,vts_reward_expectancy_bt,2022.2.4,Win32,59.99520038,Chrome,1536,864,,,,,0,666,,,,,,,,,,,,,,,,,160,Y,triangle,1,0,,,,,,,,,,,,,,,,repeat,letter,lettRpt,k,0.765,noRew,,,,,,0,31,0,31,0,1,,,,,,,,,,,,,,,,,
298249,2022-11-27_13h08.25.262,vts_reward_expectancy_bt,2022.2.4,Win32,59.99520038,Chrome,1536,864,,,,,0,666,,,,,,,,,,,,,,,,,181,D,star,-1,0,,,,,,,,,,,,,,,,switch,no_choice,NA,,,noRew,,,,,,0,32,0,32,0,1,,,,,,,,,,,,,,,,,
298249,2022-11-27_13h08.25.262,vts_reward_expectancy_bt,2022.2.4,Win32,59.99520038,Chrome,1536,864,,,,,0,666,,,,,,,,,,,,,,,,,167,F,hexagon,1,0,,,,,,,,,,,,,,,,switch,number,numSwt,f,0.5328,noRew,,,,,,0,33,0,33,0,1,,,,,,,,,,,,,,,,,
298249,2022-11-27_13h08.25.262,vts_reward_expectancy_bt,2022.2.4,Win32,59.99520038,Chrome,1536,864,,,,,0,666,,,,,,,,,,,,,,,,,125,B,hexagon,1,0,,,,,,,,,,,,,,,,repeat,number,numRpt,d,0.7148,noRew,,,,,,0,34,0,34,0,1,,,,,,,,,,,,,,,,,
298249,2022-11-27_13h08.25.262,vts_reward_expectancy_bt,2022.2.4,Win32,59.99520038,Chrome,1536,864,,,,,0,666,,,,,,,,,,,,,,,,,160,Y,star,1,0,,,,,,,,,,,,,,,,repeat,number,numRpt,f,0.8495,noRew,,,,,,0,35,0,35,0,1,,,,,,,,,,,,,,,,,
298249,2022-11-27_13h08.25.262,vts_reward_expectancy_bt,2022.2.4,Win32,59.99520038,Chrome,1536,864,,,,,0,666,,,,,,,,,,,,,,,,,181,Y,circle,1,0,,,,,,,,,,,,,,,,switch,letter,lettSwt,k,0.8545,noRew,,,,,,0,36,0,36,0,1,,,,,,,,,,,,,,,,,
298249,2022-11-27_13h08.25.262,vts_reward_expectancy_bt,2022.2.4,Win32,59.99520038,Chrome,1536,864,,,,,0,666,,,,,,,,,,,,,,,,,160,B,triangle,1,0,,,,,,,,,,,,,,,,repeat,letter,lettRpt,j,1.0983,noRew,,,,,,0,37,0,37,0,1,,,,,,,,,,,,,,,,,
298249,2022-11-27_13h08.25.262,vts_reward_expectancy_bt,2022.2.4,Win32,59.99520038,Chrome,1536,864,,,,,0,666,,,,,,,,,,,,,,,,,167,H,triangle,1,0,,,,,,,,,,,,,,,,switch,number,numSwt,f,1.2005,noRew,,,,,,0,38,0,38,0,1,,,,,,,,,,,,,,,,,
298249,2022-11-27_13h08.25.262,vts_reward_expectancy_bt,2022.2.4,Win32,59.99520038,Chrome,1536,864,,,,,0,666,,,,,,,,,,,,,,,,,125,U,hexagon,1,0,,,,,,,,,,,,,,,,switch,letter,lettSwt,k,0.6528,noRew,,,,,,0,39,0,39,0,1,,,,,,,,,,,,,,,,,
298249,2022-11-27_13h08.25.262,vts_reward_expectancy_bt,2022.2.4,Win32,59.99520038,Chrome,1536,864,,,,,0,666,,,,,,,,,,,,,,,,,139,W,hexagon,1,0,,,,,,,,,,,,,,,,switch,number,numSwt,d,0.6143,noRew,,,,,,0,40,0,40,0,1,,,,,,,,,,,,,,,,,
298249,2022-11-27_13h08.25.262,vts_reward_expectancy_bt,2022.2.4,Win32,59.99520038,Chrome,1536,864,,,,,0,666,,,,,,,,,,,,,,,,,125,D,triangle,1,0,,,,,,,,,,,,,,,,repeat,number,numRpt,d,0.8333,noRew,,,,,,0,41,0,41,0,1,,,,,,,,,,,,,,,,,
298249,2022-11-27_13h08.25.262,vts_reward_expectancy_bt,2022.2.4,Win32,59.99520038,Chrome,1536,864,,,,,0,666,,,,,,,,,,,,,,,,,146,Y,hexagon,1,0,,,,,,,,,,,,,,,,switch,letter,lettSwt,k,1.1808,noRew,,,,,,0,42,0,42,0,1,,,,,,,,,,,,,,,,,
298249,2022-11-27_13h08.25.262,vts_reward_expectancy_bt,2022.2.4,Win32,59.99520038,Chrome,1536,864,,,,,0,666,,,,,,,,,,,,,,,,,174,H,star,1,0,,,,,,,,,,,,,,,,repeat,letter,lettRpt,j,1.4353,noRew,,,,,,0,43,0,43,0,1,,,,,,,,,,,,,,,,,
298249,2022-11-27_13h08.25.262,vts_reward_expectancy_bt,2022.2.4,Win32,59.99520038,Chrome,1536,864,,,,,0,666,,,,,,,,,,,,,,,,,160,W,hexagon,1,0,,,,,,,,,,,,,,,,repeat,letter,lettRpt,k,0.7649,noRew,,,,,,0,44,0,44,0,1,,,,,,,,,,,,,,,,,
298249,2022-11-27_13h08.25.262,vts_reward_expectancy_bt,2022.2.4,Win32,59.99520038,Chrome,1536,864,,,,,0,666,,,,,,,,,,,,,,,,,146,D,circle,1,0,,,,,,,,,,,,,,,,switch,number,numSwt,d,0.8986,noRew,,,,,,0,45,0,45,0,1,,,,,,,,,,,,,,,,,
298249,2022-11-27_13h08.25.262,vts_reward_expectancy_bt,2022.2.4,Win32,59.99520038,Chrome,1536,864,,,,,0,666,,,,,,,,,,,,,,,,,132,S,hexagon,1,0,,,,,,,,,,,,,,,,repeat,number,numRpt,d,0.6831,noRew,,,,,,0,46,0,46,0,1,,,,,,,,,,,,,,,,,
298249,2022-11-27_13h08.25.262,vts_reward_expectancy_bt,2022.2.4,Win32,59.99520038,Chrome,1536,864,,,,,0,666,,,,,,,,,,,,,,,,,167,B,circle,1,0,,,,,,,,,,,,,,,,repeat,number,numRpt,f,0.6475,noRew,,,,,,0,47,0,47,0,1,,,,,,,,,,,,,,,,,
298249,2022-11-27_13h08.25.262,vts_reward_expectancy_bt,2022.2.4,Win32,59.99520038,Chrome,1536,864,,,,,0,666,,,,,,,,,,,,,,,,,132,H,triangle,1,0,,,,,,,,,,,,,,,,repeat,number,numRpt,d,0.7167,noRew,,,,,,0,48,0,48,0,1,,,,,,,,,,,,,,,,,
298249,2022-11-27_13h08.25.262,vts_reward_expectancy_bt,2022.2.4,Win32,59.99520038,Chrome,1536,864,,,,,0,666,,,,,,,,,,,,,,,,,139,Y,star,1,0,,,,,,,,,,,,,,,,switch,letter,lettSwt,k,1.0646,noRew,,,,,,0,49,0,49,0,1,,,,,,,,,,,,,,,,,
298249,2022-11-27_13h08.25.262,vts_reward_expectancy_bt,2022.2.4,Win32,59.99520038,Chrome,1536,864,,,,,0,666,,,,,,,,,,,,,,,,,160,B,circle,1,0,,,,,,,,,,,,,,,,repeat,letter,lettRpt,j,0.4978,noRew,,,,,,0,50,0,50,0,1,,,,,,,,,,,,,,,,,
298249,2022-11-27_13h08.25.262,vts_reward_expectancy_bt,2022.2.4,Win32,59.99520038,Chrome,1536,864,,,,,0,666,,,,,,,,,,,,,,,,,174,F,triangle,1,0,,,,,,,,,,,,,,,,switch,number,numSwt,f,0.8647,noRew,,,,,,0,51,0,51,0,1,,,,,,,,,,,,,,,,,
298249,2022-11-27_13h08.25.262,vts_reward_expectancy_bt,2022.2.4,Win32,59.99520038,Chrome,1536,864,,,,,0,666,,,,,,,,,,,,,,,,,132,H,circle,1,0,,,,,,,,,,,,,,,,switch,letter,lettSwt,j,0.6841,noRew,,,,,,0,52,0,52,0,1,,,,,,,,,,,,,,,,,
298249,2022-11-27_13h08.25.262,vts_reward_expectancy_bt,2022.2.4,Win32,59.99520038,Chrome,1536,864,,,,,0,666,,,,,,,,,,,,,,,,,146,B,hexagon,1,0,,,,,,,,,,,,,,,,switch,number,numSwt,d,1.2324,noRew,,,,,,0,53,0,53,0,1,,,,,,,,,,,,,,,,,
298249,2022-11-27_13h08.25.262,vts_reward_expectancy_bt,2022.2.4,Win32,59.99520038,Chrome,1536,864,,,,,0,666,,,,,,,,,,,,,,,,,181,Y,triangle,1,0,,,,,,,,,,,,,,,,repeat,number,numRpt,f,0.6664,noRew,,,,,,0,54,0,54,0,1,,,,,,,,,,,,,,,,,
298249,2022-11-27_13h08.25.262,vts_reward_expectancy_bt,2022.2.4,Win32,59.99520038,Chrome,1536,864,,,,,0,666,,,,,,,,,,,,,,,,,139,F,circle,1,0,,,,,,,,,,,,,,,,repeat,number,numRpt,d,1.101,noRew,,,,,,0,55,0,55,0,1,,,,,,,,,,,,,,,,,
298249,2022-11-27_13h08.25.262,vts_reward_expectancy_bt,2022.2.4,Win32,59.99520038,Chrome,1536,864,,,,,0,666,,,,,,,,,,,,,,,,,132,D,hexagon,1,0,,,,,,,,,,,,,,,,switch,letter,lettSwt,j,0.8154,noRew,,,,,,0,56,0,56,0,1,,,,,,,,,,,,,,,,,
298249,2022-11-27_13h08.25.262,vts_reward_expectancy_bt,2022.2.4,Win32,59.99520038,Chrome,1536,864,,,,,0,666,,,,,,,,,,,,,,,,,139,Y,star,1,0,,,,,,,,,,,,,,,,switch,number,numSwt,d,0.9846,noRew,,,,,,0,57,0,57,0,1,,,,,,,,,,,,,,,,,
298249,2022-11-27_13h08.25.262,vts_reward_expectancy_bt,2022.2.4,Win32,59.99520038,Chrome,1536,864,,,,,0,666,,,,,,,,,,,,,,,,,160,W,circle,1,0,,,,,,,,,,,,,,,,switch,letter,lettSwt,k,0.8685,noRew,,,,,,0,58,0,58,0,1,,,,,,,,,,,,,,,,,
298249,2022-11-27_13h08.25.262,vts_reward_expectancy_bt,2022.2.4,Win32,59.99520038,Chrome,1536,864,,,,,0,666,,,,,,,,,,,,,,,,,167,U,hexagon,1,0,,,,,,,,,,,,,,,,repeat,letter,lettRpt,k,0.7979,noRew,,,,,,0,59,0,59,0,1,,,,,,,,,,,,,,,,,
298249,2022-11-27_13h08.25.262,vts_reward_expectancy_bt,2022.2.4,Win32,59.99520038,Chrome,1536,864,,,,,0,666,,,,,,,,,,,,,,,,,181,B,star,1,0,,,,,,,,,,,,,,,,repeat,letter,lettRpt,j,0.9145,noRew,,,,,,0,60,0,60,0,1,,,,,,,,,,,,,,,,,
298249,2022-11-27_13h08.25.262,vts_reward_expectancy_bt,2022.2.4,Win32,59.99520038,Chrome,1536,864,,,,,0,666,,,,,,,,,,,,,,,,,146,F,circle,1,0,,,,,,,,,,,,,,,,switch,number,numSwt,d,1.7303,noRew,,,,,,0,61,0,61,0,1,,,,,,,,,,,,,,,,,
298249,2022-11-27_13h08.25.262,vts_reward_expectancy_bt,2022.2.4,Win32,59.99520038,Chrome,1536,864,,,,,0,666,,,,,,,,,,,,,,,,,167,W,circle,1,0,,,,,,,,,,,,,,,,repeat,number,numRpt,f,0.7317,noRew,,,,,,0,62,0,62,0,1,,,,,,,,,,,,,,,,,
298249,2022-11-27_13h08.25.262,vts_reward_expectancy_bt,2022.2.4,Win32,59.99520038,Chrome,1536,864,,,,,0,666,,,,,,,,,,,,,,,,,139,H,star,1,0,,,,,,,,,,,,,,,,switch,letter,lettSwt,j,0.8145,noRew,,,,,,0,63,0,63,0,1,,,,,,,,,,,,,,,,,
298249,2022-11-27_13h08.25.262,vts_reward_expectancy_bt,2022.2.4,Win32,59.99520038,Chrome,1536,864,,,,,,,,,,,,,,,,,,,,,,,,,,,,,,,,,,,,,,,,,,,,,,,,,,,,,,,,,,,,,,,,,,,,,,,,,,,,
298249,2022-11-27_13h08.25.262,vts_reward_expectancy_bt,2022.2.4,Win32,59.99520038,Chrome,1536,864,,,,,1,667,,,,,,,,,,,,,,,,,146,F,triangle,1,0,,,,,,,,,,,,,,,,switch,number,numSwt,d,0.8143,Lo,,,,,,0,,,,,,space,14.6282,high,0,0,0,0,1,,,,,,,,,
298249,2022-11-27_13h08.25.262,vts_reward_expectancy_bt,2022.2.4,Win32,59.99520038,Chrome,1536,864,,,,,0,667,,,,,,,,,,,,,,,,,174,U,star,1,0,,,,,,,,,,,,,,,,repeat,number,numRpt,f,1.8817,Hi,,,,,,0,,,,,,,,high,1,0,1,0,1,,,,,,,,,
298249,2022-11-27_13h08.25.262,vts_reward_expectancy_bt,2022.2.4,Win32,59.99520038,Chrome,1536,864,,,,,1,668,,,,,,,,,,,,,,,,,125,S,hexagon,1,0,,,,,,,,,,,,,,,,repeat,number,numRpt,d,1.2518,Lo,,,,,,0,,,,,,,,high,2,0,2,0,1,,,,,,,,,
298249,2022-11-27_13h08.25.262,vts_reward_expectancy_bt,2022.2.4,Win32,59.99520038,Chrome,1536,864,,,,,0,668,,,,,,,,,,,,,,,,,160,H,circle,1,0,,,,,,,,,,,,,,,,repeat,number,numRpt,f,0.7488,Hi,,,,,,0,,,,,,,,high,3,0,3,0,1,,,,,,,,,
298249,2022-11-27_13h08.25.262,vts_reward_expectancy_bt,2022.2.4,Win32,59.99520038,Chrome,1536,864,,,,,0,668,,,,,,,,,,,,,,,,,132,W,triangle,0,0,,,,,,,,,,,,,,,,repeat,number,NA,f,1.0313,Hi,,,,,,0,,,,,,,,high,4,0,4,0,1,,,,,,,,,
298249,2022-11-27_13h08.25.262,vts_reward_expectancy_bt,2022.2.4,Win32,59.99520038,Chrome,1536,864,,,,,0,668,,,,,,,,,,,,,,,,,167,D,star,1,1,,,,,,,,,,,,,,,,repeat,number,numRpt,f,0.8652,Hi,,,,,,0,,,,,,,,high,5,0,5,0,1,,,,,,,,,
298249,2022-11-27_13h08.25.262,vts_reward_expectancy_bt,2022.2.4,Win32,59.99520038,Chrome,1536,864,,,,,1,669,,,,,,,,,,,,,,,,,181,Y,hexagon,1,0,,,,,,,,,,,,,,,,repeat,number,numRpt,f,0.5362,Lo,,,,,,0,,,,,,,,high,6,0,6,0,1,,,,,,,,,
298249,2022-11-27_13h08.25.262,vts_reward_expectancy_bt,2022.2.4,Win32,59.99520038,Chrome,1536,864,,,,,10,679,,,,,,,,,,,,,,,,,139,B,circle,1,0,,,,,,,,,,,,,,,,switch,letter,lettSwt,j,0.5979,Hi,,,,,,0,,,,,,,,high,7,0,7,0,1,,,,,,,,,
298249,2022-11-27_13h08.25.262,vts_reward_expectancy_bt,2022.2.4,Win32,59.99520038,Chrome,1536,864,,,,,1,680,,,,,,,,,,,,,,,,,146,F,star,1,0,,,,,,,,,,,,,,,,repeat,letter,lettRpt,j,0.7685,Hi,,,,,,0,,,,,,,,high,8,0,8,0,1,,,,,,,,,
298249,2022-11-27_13h08.25.262,vts_reward_expectancy_bt,2022.2.4,Win32,59.99520038,Chrome,1536,864,,,,,0,680,,,,,,,,,,,,,,,,,174,U,circle,1,0,,,,,,,,,,,,,,,,repeat,letter,lettRpt,k,0.9298,Hi,,,,,,0,,,,,,,,high,9,0,9,0,1,,,,,,,,,
298249,2022-11-27_13h08.25.262,vts_reward_expectancy_bt,2022.2.4,Win32,59.99520038,Chrome,1536,864,,,,,10,690,,,,,,,,,,,,,,,,,125,S,hexagon,1,0,,,,,,,,,,,,,,,,repeat,letter,lettRpt,k,0.666,Lo,,,,,,0,,,,,,,,high,10,0,10,0,1,,,,,,,,,
298249,2022-11-27_13h08.25.262,vts_reward_expectancy_bt,2022.2.4,Win32,59.99520038,Chrome,1536,864,,,,,1,691,,,,,,,,,,,,,,,,,160,H,triangle,1,0,,,,,,,,,,,,,,,,repeat,letter,lettRpt,j,0.9153,Lo,,,,,,0,,,,,,,,high,11,0,11,0,1,,,,,,,,,
298249,2022-11-27_13h08.25.262,vts_reward_expectancy_bt,2022.2.4,Win32,59.99520038,Chrome,1536,864,,,,,1,692,,,,,,,,,,,,,,,,,132,W,triangle,1,0,,,,,,,,,,,,,,,,repeat,letter,lettRpt,k,0.7508,Lo,,,,,,0,,,,,,,,high,12,0,12,0,1,,,,,,,,,
298249,2022-11-27_13h08.25.262,vts_reward_expectancy_bt,2022.2.4,Win32,59.99520038,Chrome,1536,864,,,,,1,693,,,,,,,,,,,,,,,,,167,D,hexagon,1,0,,,,,,,,,,,,,,,,repeat,letter,lettRpt,j,0.8331,Lo,,,,,,0,,,,,,,,high,13,0,13,0,1,,,,,,,,,
298249,2022-11-27_13h08.25.262,vts_reward_expectancy_bt,2022.2.4,Win32,59.99520038,Chrome,1536,864,,,,,10,703,,,,,,,,,,,,,,,,,181,Y,star,1,0,,,,,,,,,,,,,,,,switch,number,numSwt,f,0.7158,Hi,,,,,,0,,,,,,,,high,14,0,14,0,1,,,,,,,,,
298249,2022-11-27_13h08.25.262,vts_reward_expectancy_bt,2022.2.4,Win32,59.99520038,Chrome,1536,864,,,,,10,713,,,,,,,,,,,,,,,,,139,B,circle,1,0,,,,,,,,,,,,,,,,repeat,number,numRpt,d,0.6808,Hi,,,,,,0,,,,,,,,high,15,0,15,0,1,,,,,,,,,
298249,2022-11-27_13h08.25.262,vts_reward_expectancy_bt,2022.2.4,Win32,59.99520038,Chrome,1536,864,,,,,1,714,,,,,,,,,,,,,,,,,181,Y,hexagon,1,0,,,,,,,,,,,,,,,,repeat,number,numRpt,f,0.6325,Lo,,,,,,0,,,,,,,,high,16,0,16,0,1,,,,,,,,,
298249,2022-11-27_13h08.25.262,vts_reward_expectancy_bt,2022.2.4,Win32,59.99520038,Chrome,1536,864,,,,,1,715,,,,,,,,,,,,,,,,,167,D,triangle,1,0,,,,,,,,,,,,,,,,repeat,number,numRpt,f,0.6708,Lo,,,,,,0,,,,,,,,high,17,0,17,0,1,,,,,,,,,
298249,2022-11-27_13h08.25.262,vts_reward_expectancy_bt,2022.2.4,Win32,59.99520038,Chrome,1536,864,,,,,0,715,,,,,,,,,,,,,,,,,125,F,circle,1,0,,,,,,,,,,,,,,,,repeat,number,numRpt,d,0.7666,Hi,,,,,,0,,,,,,,,high,18,0,18,0,1,,,,,,,,,
298249,2022-11-27_13h08.25.262,vts_reward_expectancy_bt,2022.2.4,Win32,59.99520038,Chrome,1536,864,,,,,10,725,,,,,,,,,,,,,,,,,174,W,star,1,0,,,,,,,,,,,,,,,,repeat,number,numRpt,f,0.6197,Hi,,,,,,0,,,,,,,,high,19,0,19,0,1,,,,,,,,,
298249,2022-11-27_13h08.25.262,vts_reward_expectancy_bt,2022.2.4,Win32,59.99520038,Chrome,1536,864,,,,,0,725,,,,,,,,,,,,,,,,,146,S,star,1,0,,,,,,,,,,,,,,,,switch,letter,lettSwt,k,1.5676,Hi,,,,,,0,,,,,,,,high,20,0,20,0,1,,,,,,,,,
298249,2022-11-27_13h08.25.262,vts_reward_expectancy_bt,2022.2.4,Win32,59.99520038,Chrome,1536,864,,,,,10,735,,,,,,,,,,,,,,,,,139,H,circle,1,0,,,,,,,,,,,,,,,,repeat,letter,lettRpt,j,0.7171,Hi,,,,,,0,,,,,,,,high,21,0,21,0,1,,,,,,,,,
298249,2022-11-27_13h08.25.262,vts_reward_expectancy_bt,2022.2.4,Win32,59.99520038,Chrome,1536,864,,,,,1,736,,,,,,,,,,,,,,,,,160,B,triangle,1,0,,,,,,,,,,,,,,,,repeat,letter,lettRpt,j,0.5685,Lo,,,,,,0,,,,,,,,high,22,0,22,0,1,,,,,,,,,
298249,2022-11-27_13h08.25.262,vts_reward_expectancy_bt,2022.2.4,Win32,59.99520038,Chrome,1536,864,,,,,1,737,,,,,,,,,,,,,,,,,132,U,hexagon,1,0,,,,,,,,,,,,,,,,switch,number,numSwt,d,0.5699,Lo,,,,,,0,,,,,,,,high,23,0,23,0,1,,,,,,,,,
298249,2022-11-27_13h08.25.262,vts_reward_expectancy_bt,2022.2.4,Win32,59.99520038,Chrome,1536,864,,,,,1,738,,,,,,,,,,,,,,,,,181,F,triangle,1,0,,,,,,,,,,,,,,,,repeat,number,numRpt,f,0.698,Lo,,,,,,0,,,,,,,,high,24,0,24,0,1,,,,,,,,,
298249,2022-11-27_13h08.25.262,vts_reward_expectancy_bt,2022.2.4,Win32,59.99520038,Chrome,1536,864,,,,,1,739,,,,,,,,,,,,,,,,,132,U,hexagon,1,0,,,,,,,,,,,,,,,,repeat,number,numRpt,d,0.5992,Lo,,,,,,0,,,,,,,,high,25,0,25,0,1,,,,,,,,,
298249,2022-11-27_13h08.25.262,vts_reward_expectancy_bt,2022.2.4,Win32,59.99520038,Chrome,1536,864,,,,,10,749,,,,,,,,,,,,,,,,,146,B,circle,1,0,,,,,,,,,,,,,,,,switch,letter,lettSwt,j,0.5326,Hi,,,,,,0,,,,,,,,high,26,0,26,0,1,,,,,,,,,
298249,2022-11-27_13h08.25.262,vts_reward_expectancy_bt,2022.2.4,Win32,59.99520038,Chrome,1536,864,,,,,10,759,,,,,,,,,,,,,,,,,160,S,star,1,0,,,,,,,,,,,,,,,,repeat,letter,lettRpt,k,0.684,Hi,,,,,,0,,,,,,,,high,27,0,27,0,1,,,,,,,,,
298249,2022-11-27_13h08.25.262,vts_reward_expectancy_bt,2022.2.4,Win32,59.99520038,Chrome,1536,864,,,,,1,760,,,,,,,,,,,,,,,,,167,Y,triangle,1,0,,,,,,,,,,,,,,,,repeat,letter,lettRpt,k,0.7853,Lo,,,,,,0,,,,,,,,high,28,0,28,0,1,,,,,,,,,
298249,2022-11-27_13h08.25.262,vts_reward_expectancy_bt,2022.2.4,Win32,59.99520038,Chrome,1536,864,,,,,1,761,,,,,,,,,,,,,,,,,139,H,hexagon,1,0,,,,,,,,,,,,,,,,repeat,letter,lettRpt,j,0.7979,Lo,,,,,,0,,,,,,,,high,29,0,29,0,1,,,,,,,,,
298249,2022-11-27_13h08.25.262,vts_reward_expectancy_bt,2022.2.4,Win32,59.99520038,Chrome,1536,864,,,,,0,761,,,,,,,,,,,,,,,,,174,W,star,0,0,,,,,,,,,,,,,,,,switch,number,NA,d,1.1671,Lo,,,,,,0,,,,,,,,high,30,0,30,0,1,,,,,,,,,
298249,2022-11-27_13h08.25.262,vts_reward_expectancy_bt,2022.2.4,Win32,59.99520038,Chrome,1536,864,,,,,10,771,,,,,,,,,,,,,,,,,125,D,circle,1,1,,,,,,,,,,,,,,,,repeat,number,numRpt,d,0.6805,Hi,,,,,,0,,,,,,,,high,31,0,31,0,1,,,,,,,,,
298249,2022-11-27_13h08.25.262,vts_reward_expectancy_bt,2022.2.4,Win32,59.99520038,Chrome,1536,864,,,,,1,772,,,,,,,,,,,,,,,,,181,D,triangle,1,0,,,,,,,,,,,,,,,,repeat,number,numRpt,f,0.5381,Lo,,,,,,1,,,,,,space,5.8336,high,0,0,0,0,1,,,,,,,,,
298249,2022-11-27_13h08.25.262,vts_reward_expectancy_bt,2022.2.4,Win32,59.99520038,Chrome,1536,864,,,,,0,772,,,,,,,,,,,,,,,,,132,U,star,1,0,,,,,,,,,,,,,,,,switch,letter,lettSwt,k,0.581,Hi,,,,,,1,,,,,,,,high,1,0,1,0,1,,,,,,,,,
298249,2022-11-27_13h08.25.262,vts_reward_expectancy_bt,2022.2.4,Win32,59.99520038,Chrome,1536,864,,,,,1,773,,,,,,,,,,,,,,,,,125,H,hexagon,1,0,,,,,,,,,,,,,,,,switch,number,numSwt,d,0.6859,Lo,,,,,,1,,,,,,,,high,2,0,2,0,1,,,,,,,,,
298249,2022-11-27_13h08.25.262,vts_reward_expectancy_bt,2022.2.4,Win32,59.99520038,Chrome,1536,864,,,,,10,783,,,,,,,,,,,,,,,,,160,W,circle,1,0,,,,,,,,,,,,,,,,switch,letter,lettSwt,k,0.5676,Hi,,,,,,1,,,,,,,,high,3,0,3,0,1,,,,,,,,,
298249,2022-11-27_13h08.25.262,vts_reward_expectancy_bt,2022.2.4,Win32,59.99520038,Chrome,1536,864,,,,,10,793,,,,,,,,,,,,,,,,,167,B,triangle,1,0,,,,,,,,,,,,,,,,switch,number,numSwt,f,0.7013,Lo,,,,,,1,,,,,,,,high,4,0,4,0,1,,,,,,,,,
298249,2022-11-27_13h08.25.262,vts_reward_expectancy_bt,2022.2.4,Win32,59.99520038,Chrome,1536,864,,,,,0,793,,,,,,,,,,,,,,,,,174,S,star,1,0,,,,,,,,,,,,,,,,switch,letter,lettSwt,k,1.1495,Hi,,,,,,1,,,,,,,,high,5,0,5,0,1,,,,,,,,,
298249,2022-11-27_13h08.25.262,vts_reward_expectancy_bt,2022.2.4,Win32,59.99520038,Chrome,1536,864,,,,,1,794,,,,,,,,,,,,,,,,,139,F,hexagon,1,0,,,,,,,,,,,,,,,,switch,number,numSwt,d,0.7149,Lo,,,,,,1,,,,,,,,high,6,0,6,0,1,,,,,,,,,
298249,2022-11-27_13h08.25.262,vts_reward_expectancy_bt,2022.2.4,Win32,59.99520038,Chrome,1536,864,,,,,1,795,,,,,,,,,,,,,,,,,146,Y,circle,1,0,,,,,,,,,,,,,,,,switch,letter,lettSwt,k,0.5505,Hi,,,,,,1,,,,,,,,high,7,0,7,0,1,,,,,,,,,
298249,2022-11-27_13h08.25.262,vts_reward_expectancy_bt,2022.2.4,Win32,59.99520038,Chrome,1536,864,,,,,10,805,,,,,,,,,,,,,,,,,181,D,circle,1,0,,,,,,,,,,,,,,,,switch,number,numSwt,f,0.5816,Hi,,,,,,1,,,,,,,,high,8,0,8,0,1,,,,,,,,,
298249,2022-11-27_13h08.25.262,vts_reward_expectancy_bt,2022.2.4,Win32,59.99520038,Chrome,1536,864,,,,,0,805,,,,,,,,,,,,,,,,,132,U,star,1,0,,,,,,,,,,,,,,,,switch,letter,lettSwt,k,1.3004,Hi,,,,,,1,,,,,,,,high,9,0,9,0,1,,,,,,,,,
298249,2022-11-27_13h08.25.262,vts_reward_expectancy_bt,2022.2.4,Win32,59.99520038,Chrome,1536,864,,,,,1,806,,,,,,,,,,,,,,,,,125,H,hexagon,1,0,,,,,,,,,,,,,,,,switch,number,numSwt,d,0.697,Lo,,,,,,1,,,,,,,,high,10,0,10,0,1,,,,,,,,,
298249,2022-11-27_13h08.25.262,vts_reward_expectancy_bt,2022.2.4,Win32,59.99520038,Chrome,1536,864,,,,,1,807,,,,,,,,,,,,,,,,,160,W,triangle,1,0,,,,,,,,,,,,,,,,repeat,number,numRpt,f,0.7485,Lo,,,,,,1,,,,,,,,high,11,0,11,0,1,,,,,,,,,
298249,2022-11-27_13h08.25.262,vts_reward_expectancy_bt,2022.2.4,Win32,59.99520038,Chrome,1536,864,,,,,0,807,,,,,,,,,,,,,,,,,167,B,circle,1,0,,,,,,,,,,,,,,,,switch,letter,lettSwt,j,0.783,Hi,,,,,,1,,,,,,,,high,12,0,12,0,1,,,,,,,,,
298249,2022-11-27_13h08.25.262,vts_reward_expectancy_bt,2022.2.4,Win32,59.99520038,Chrome,1536,864,,,,,1,808,,,,,,,,,,,,,,,,,174,S,triangle,1,0,,,,,,,,,,,,,,,,repeat,letter,lettRpt,k,0.5332,Lo,,,,,,1,,,,,,,,high,13,0,13,0,1,,,,,,,,,
298249,2022-11-27_13h08.25.262,vts_reward_expectancy_bt,2022.2.4,Win32,59.99520038,Chrome,1536,864,,,,,1,809,,,,,,,,,,,,,,,,,139,F,hexagon,1,0,,,,,,,,,,,,,,,,switch,number,numSwt,d,0.6497,Lo,,,,,,1,,,,,,,,high,14,0,14,0,1,,,,,,,,,
298249,2022-11-27_13h08.25.262,vts_reward_expectancy_bt,2022.2.4,Win32,59.99520038,Chrome,1536,864,,,,,0,809,,,,,,,,,,,,,,,,,146,Y,star,1,0,,,,,,,,,,,,,,,,switch,letter,lettSwt,k,0.7684,Hi,,,,,,1,,,,,,,,high,15,0,15,0,1,,,,,,,,,
298249,2022-11-27_13h08.25.262,vts_reward_expectancy_bt,2022.2.4,Win32,59.99520038,Chrome,1536,864,,,,,0,809,,,,,,,,,,,,,,,,,167,U,star,1,0,,,,,,,,,,,,,,,,switch,number,numSwt,f,0.7841,Hi,,,,,,1,,,,,,,,high,16,0,16,0,1,,,,,,,,,
298249,2022-11-27_13h08.25.262,vts_reward_expectancy_bt,2022.2.4,Win32,59.99520038,Chrome,1536,864,,,,,1,810,,,,,,,,,,,,,,,,,146,B,hexagon,1,0,,,,,,,,,,,,,,,,repeat,number,numRpt,d,0.6654,Lo,,,,,,1,,,,,,,,high,17,0,17,0,1,,,,,,,,,
298249,2022-11-27_13h08.25.262,vts_reward_expectancy_bt,2022.2.4,Win32,59.99520038,Chrome,1536,864,,,,,10,820,,,,,,,,,,,,,,,,,174,Y,circle,1,0,,,,,,,,,,,,,,,,switch,letter,lettSwt,k,0.5657,Hi,,,,,,1,,,,,,,,high,18,0,18,0,1,,,,,,,,,
298249,2022-11-27_13h08.25.262,vts_reward_expectancy_bt,2022.2.4,Win32,59.99520038,Chrome,1536,864,,,,,1,821,,,,,,,,,,,,,,,,,160,W,triangle,1,0,,,,,,,,,,,,,,,,repeat,letter,lettRpt,k,0.7301,Lo,,,,,,1,,,,,,,,high,19,0,19,0,1,,,,,,,,,
298249,2022-11-27_13h08.25.262,vts_reward_expectancy_bt,2022.2.4,Win32,59.99520038,Chrome,1536,864,,,,,0,821,,,,,,,,,,,,,,,,,132,H,circle,1,0,,,,,,,,,,,,,,,,switch,number,numSwt,d,1.0179,Hi,,,,,,1,,,,,,,,high,20,0,20,0,1,,,,,,,,,
298249,2022-11-27_13h08.25.262,vts_reward_expectancy_bt,2022.2.4,Win32,59.99520038,Chrome,1536,864,,,,,10,831,,,,,,,,,,,,,,,,,139,S,hexagon,1,0,,,,,,,,,,,,,,,,repeat,number,numRpt,d,1.082,Lo,,,,,,1,,,,,,,,high,21,0,21,0,1,,,,,,,,,
298249,2022-11-27_13h08.25.262,vts_reward_expectancy_bt,2022.2.4,Win32,59.99520038,Chrome,1536,864,,,,,1,832,,,,,,,,,,,,,,,,,181,D,triangle,1,0,,,,,,,,,,,,,,,,repeat,number,numRpt,f,0.6011,Lo,,,,,,1,,,,,,,,high,22,0,22,0,1,,,,,,,,,
298249,2022-11-27_13h08.25.262,vts_reward_expectancy_bt,2022.2.4,Win32,59.99520038,Chrome,1536,864,,,,,0,832,,,,,,,,,,,,,,,,,125,F,star,1,0,,,,,,,,,,,,,,,,repeat,number,numRpt,d,0.8165,Hi,,,,,,1,,,,,,,,high,23,0,23,0,1,,,,,,,,,
298249,2022-11-27_13h08.25.262,vts_reward_expectancy_bt,2022.2.4,Win32,59.99520038,Chrome,1536,864,,,,,0,832,,,,,,,,,,,,,,,,,181,D,circle,1,0,,,,,,,,,,,,,,,,switch,letter,lettSwt,j,0.5982,Hi,,,,,,1,,,,,,,,high,24,0,24,0,1,,,,,,,,,
298249,2022-11-27_13h08.25.262,vts_reward_expectancy_bt,2022.2.4,Win32,59.99520038,Chrome,1536,864,,,,,0,832,,,,,,,,,,,,,,,,,125,Y,star,1,0,,,,,,,,,,,,,,,,switch,number,numSwt,d,1.8177,Hi,,,,,,1,,,,,,,,high,25,0,25,0,1,,,,,,,,,
298249,2022-11-27_13h08.25.262,vts_reward_expectancy_bt,2022.2.4,Win32,59.99520038,Chrome,1536,864,,,,,1,833,,,,,,,,,,,,,,,,,174,H,hexagon,1,0,,,,,,,,,,,,,,,,repeat,number,numRpt,f,0.681,Lo,,,,,,1,,,,,,,,high,26,0,26,0,1,,,,,,,,,
298249,2022-11-27_13h08.25.262,vts_reward_expectancy_bt,2022.2.4,Win32,59.99520038,Chrome,1536,864,,,,,1,834,,,,,,,,,,,,,,,,,167,W,triangle,1,0,,,,,,,,,,,,,,,,switch,letter,lettSwt,k,0.5332,Lo,,,,,,1,,,,,,,,high,27,0,27,0,1,,,,,,,,,
298249,2022-11-27_13h08.25.262,vts_reward_expectancy_bt,2022.2.4,Win32,59.99520038,Chrome,1536,864,,,,,10,844,,,,,,,,,,,,,,,,,146,F,triangle,1,0,,,,,,,,,,,,,,,,repeat,letter,lettRpt,j,0.799,Lo,,,,,,1,,,,,,,,high,28,0,28,0,1,,,,,,,,,
298249,2022-11-27_13h08.25.262,vts_reward_expectancy_bt,2022.2.4,Win32,59.99520038,Chrome,1536,864,,,,,1,845,,,,,,,,,,,,,,,,,139,S,hexagon,1,0,,,,,,,,,,,,,,,,repeat,letter,lettRpt,k,0.9155,Lo,,,,,,1,,,,,,,,high,29,0,29,0,1,,,,,,,,,
298249,2022-11-27_13h08.25.262,vts_reward_expectancy_bt,2022.2.4,Win32,59.99520038,Chrome,1536,864,,,,,10,855,,,,,,,,,,,,,,,,,160,B,circle,1,0,,,,,,,,,,,,,,,,repeat,letter,lettRpt,j,0.5659,Hi,,,,,,1,,,,,,,,high,30,0,30,0,1,,,,,,,,,
298249,2022-11-27_13h08.25.262,vts_reward_expectancy_bt,2022.2.4,Win32,59.99520038,Chrome,1536,864,,,,,0,855,,,,,,,,,,,,,,,,,132,U,star,1,0,,,,,,,,,,,,,,,,switch,number,numSwt,d,1.7488,Hi,,,,,,1,,,,,,,,high,31,0,31,0,1,,,,,,,,,
298249,2022-11-27_13h08.25.262,vts_reward_expectancy_bt,2022.2.4,Win32,59.99520038,Chrome,1536,864,,,,,10,865,,,,,,,,,,,,,,,,,139,D,circle,1,0,,,,,,,,,,,,,,,,repeat,number,numRpt,d,0.6332,Hi,,,,,,2,,,,,,space,2.0008,high,0,0,0,0,1,,,,,,,,,
298249,2022-11-27_13h08.25.262,vts_reward_expectancy_bt,2022.2.4,Win32,59.99520038,Chrome,1536,864,,,,,0,865,,,,,,,,,,,,,,,,,132,W,star,1,0,,,,,,,,,,,,,,,,repeat,number,numRpt,d,0.6646,Hi,,,,,,2,,,,,,,,high,1,0,1,0,1,,,,,,,,,
298249,2022-11-27_13h08.25.262,vts_reward_expectancy_bt,2022.2.4,Win32,59.99520038,Chrome,1536,864,,,,,10,875,,,,,,,,,,,,,,,,,181,F,triangle,1,0,,,,,,,,,,,,,,,,switch,letter,lettSwt,j,0.7304,Lo,,,,,,2,,,,,,,,high,2,0,2,0,1,,,,,,,,,
298249,2022-11-27_13h08.25.262,vts_reward_expectancy_bt,2022.2.4,Win32,59.99520038,Chrome,1536,864,,,,,1,876,,,,,,,,,,,,,,,,,174,H,hexagon,1,0,,,,,,,,,,,,,,,,repeat,letter,lettRpt,j,0.6338,Lo,,,,,,2,,,,,,,,high,3,0,3,0,1,,,,,,,,,
298249,2022-11-27_13h08.25.262,vts_reward_expectancy_bt,2022.2.4,Win32,59.99520038,Chrome,1536,864,,,,,10,886,,,,,,,,,,,,,,,,,125,S,circle,1,0,,,,,,,,,,,,,,,,switch,number,numSwt,d,0.5332,Hi,,,,,,2,,,,,,,,high,4,0,4,0,1,,,,,,,,,
298249,2022-11-27_13h08.25.262,vts_reward_expectancy_bt,2022.2.4,Win32,59.99520038,Chrome,1536,864,,,,,10,896,,,,,,,,,,,,,,,,,160,U,star,1,0,,,,,,,,,,,,,,,,repeat,number,numRpt,f,0.6481,Hi,,,,,,2,,,,,,,,high,5,0,5,0,1,,,,,,,,,
298249,2022-11-27_13h08.25.262,vts_reward_expectancy_bt,2022.2.4,Win32,59.99520038,Chrome,1536,864,,,,,1,897,,,,,,,,,,,,,,,,,146,Y,triangle,1,0,,,,,,,,,,,,,,,,switch,letter,lettSwt,k,0.4997,Lo,,,,,,2,,,,,,,,high,6,0,6,0,1,,,,,,,,,
298249,2022-11-27_13h08.25.262,vts_reward_expectancy_bt,2022.2.4,Win32,59.99520038,Chrome,1536,864,,,,,1,898,,,,,,,,,,,,,,,,,167,B,hexagon,1,0,,,,,,,,,,,,,,,,repeat,letter,lettRpt,j,0.518,Lo,,,,,,2,,,,,,,,high,7,0,7,0,1,,,,,,,,,
298249,2022-11-27_13h08.25.262,vts_reward_expectancy_bt,2022.2.4,Win32,59.99520038,Chrome,1536,864,,,,,1,899,,,,,,,,,,,,,,,,,139,D,hexagon,1,0,,,,,,,,,,,,,,,,switch,number,numSwt,d,0.6828,Lo,,,,,,2,,,,,,,,high,8,0,8,0,1,,,,,,,,,
298249,2022-11-27_13h08.25.262,vts_reward_expectancy_bt,2022.2.4,Win32,59.99520038,Chrome,1536,864,,,,,10,909,,,,,,,,,,,,,,,,,132,W,triangle,1,0,,,,,,,,,,,,,,,,repeat,number,numRpt,d,0.5816,Lo,,,,,,2,,,,,,,,high,9,0,9,0,1,,,,,,,,,
298249,2022-11-27_13h08.25.262,vts_reward_expectancy_bt,2022.2.4,Win32,59.99520038,Chrome,1536,864,,,,,0,909,,,,,,,,,,,,,,,,,181,F,star,1,0,,,,,,,,,,,,,,,,switch,letter,lettSwt,j,0.8639,Hi,,,,,,2,,,,,,,,high,10,0,10,0,1,,,,,,,,,
298249,2022-11-27_13h08.25.262,vts_reward_expectancy_bt,2022.2.4,Win32,59.99520038,Chrome,1536,864,,,,,0,909,,,,,,,,,,,,,,,,,174,H,circle,1,0,,,,,,,,,,,,,,,,repeat,letter,lettRpt,j,0.6495,Hi,,,,,,2,,,,,,,,high,11,0,11,0,1,,,,,,,,,
298249,2022-11-27_13h08.25.262,vts_reward_expectancy_bt,2022.2.4,Win32,59.99520038,Chrome,1536,864,,,,,0,909,,,,,,,,,,,,,,,,,125,S,star,1,0,,,,,,,,,,,,,,,,switch,number,numSwt,d,0.9504,Hi,,,,,,2,,,,,,,,high,12,0,12,0,1,,,,,,,,,
298249,2022-11-27_13h08.25.262,vts_reward_expectancy_bt,2022.2.4,Win32,59.99520038,Chrome,1536,864,,,,,1,910,,,,,,,,,,,,,,,,,160,U,triangle,1,0,,,,,,,,,,,,,,,,repeat,number,numRpt,f,0.5313,Lo,,,,,,2,,,,,,,,high,13,0,13,0,1,,,,,,,,,
298249,2022-11-27_13h08.25.262,vts_reward_expectancy_bt,2022.2.4,Win32,59.99520038,Chrome,1536,864,,,,,0,910,,,,,,,,,,,,,,,,,146,Y,circle,1,0,,,,,,,,,,,,,,,,repeat,number,numRpt,d,0.7171,Hi,,,,,,2,,,,,,,,high,14,0,14,0,1,,,,,,,,,
298249,2022-11-27_13h08.25.262,vts_reward_expectancy_bt,2022.2.4,Win32,59.99520038,Chrome,1536,864,,,,,1,911,,,,,,,,,,,,,,,,,167,B,hexagon,1,0,,,,,,,,,,,,,,,,switch,letter,lettSwt,j,0.4031,Lo,,,,,,2,,,,,,,,high,15,0,15,0,1,,,,,,,,,
298249,2022-11-27_13h08.25.262,vts_reward_expectancy_bt,2022.2.4,Win32,59.99520038,Chrome,1536,864,,,,,10,921,,,,,,,,,,,,,,,,,139,Y,hexagon,1,0,,,,,,,,,,,,,,,,repeat,letter,lettRpt,k,0.568,Lo,,,,,,2,,,,,,,,high,16,0,16,0,1,,,,,,,,,
298249,2022-11-27_13h08.25.262,vts_reward_expectancy_bt,2022.2.4,Win32,59.99520038,Chrome,1536,864,,,,,0,921,,,,,,,,,,,,,,,,,125,B,circle,1,0,,,,,,,,,,,,,,,,switch,number,numSwt,d,0.9846,Hi,,,,,,2,,,,,,,,high,17,0,17,0,1,,,,,,,,,
298249,2022-11-27_13h08.25.262,vts_reward_expectancy_bt,2022.2.4,Win32,59.99520038,Chrome,1536,864,,,,,0,921,,,,,,,,,,,,,,,,,146,U,star,1,0,,,,,,,,,,,,,,,,switch,letter,lettSwt,k,0.7826,Hi,,,,,,2,,,,,,,,high,18,0,18,0,1,,,,,,,,,
298249,2022-11-27_13h08.25.262,vts_reward_expectancy_bt,2022.2.4,Win32,59.99520038,Chrome,1536,864,,,,,1,922,,,,,,,,,,,,,,,,,160,W,triangle,1,0,,,,,,,,,,,,,,,,repeat,letter,lettRpt,k,0.715,Lo,,,,,,2,,,,,,,,high,19,0,19,0,1,,,,,,,,,
298249,2022-11-27_13h08.25.262,vts_reward_expectancy_bt,2022.2.4,Win32,59.99520038,Chrome,1536,864,,,,,0,922,,,,,,,,,,,,,,,,,181,D,hexagon,0,0,,,,,,,,,,,,,,,,switch,number,NA,d,0.5811,Lo,,,,,,2,,,,,,,,high,20,0,20,0,1,,,,,,,,,
298249,2022-11-27_13h08.25.262,vts_reward_expectancy_bt,2022.2.4,Win32,59.99520038,Chrome,1536,864,,,,,0,922,,,,,,,,,,,,,,,,,132,F,triangle,0,1,,,,,,,,,,,,,,,,repeat,number,NA,f,0.4313,Lo,,,,,,2,,,,,,,,high,21,0,21,0,1,,,,,,,,,
298249,2022-11-27_13h08.25.262,vts_reward_expectancy_bt,2022.2.4,Win32,59.99520038,Chrome,1536,864,,,,,10,932,,,,,,,,,,,,,,,,,167,H,star,1,1,,,,,,,,,,,,,,,,repeat,number,numRpt,f,0.6001,Hi,,,,,,2,,,,,,,,high,22,0,22,0,1,,,,,,,,,
298249,2022-11-27_13h08.25.262,vts_reward_expectancy_bt,2022.2.4,Win32,59.99520038,Chrome,1536,864,,,,,10,942,,,,,,,,,,,,,,,,,174,S,circle,1,0,,,,,,,,,,,,,,,,repeat,number,numRpt,f,0.5151,Hi,,,,,,2,,,,,,,,high,23,0,23,0,1,,,,,,,,,
298249,2022-11-27_13h08.25.262,vts_reward_expectancy_bt,2022.2.4,Win32,59.99520038,Chrome,1536,864,,,,,0,942,,,,,,,,,,,,,,,,,125,F,hexagon,0,0,,,,,,,,,,,,,,,,switch,letter,NA,k,0.7332,Hi,,,,,,2,,,,,,,,high,24,0,24,0,1,,,,,,,,,
298249,2022-11-27_13h08.25.262,vts_reward_expectancy_bt,2022.2.4,Win32,59.99520038,Chrome,1536,864,,,,,1,943,,,,,,,,,,,,,,,,,174,U,triangle,1,1,,,,,,,,,,,,,,,,repeat,letter,lettRpt,k,0.5977,Lo,,,,,,2,,,,,,,,high,25,0,25,0,1,,,,,,,,,
298249,2022-11-27_13h08.25.262,vts_reward_expectancy_bt,2022.2.4,Win32,59.99520038,Chrome,1536,864,,,,,1,944,,,,,,,,,,,,,,,,,181,B,star,1,0,,,,,,,,,,,,,,,,repeat,letter,lettRpt,j,0.5322,Hi,,,,,,2,,,,,,,,high,26,0,26,0,1,,,,,,,,,
298249,2022-11-27_13h08.25.262,vts_reward_expectancy_bt,2022.2.4,Win32,59.99520038,Chrome,1536,864,,,,,1,945,,,,,,,,,,,,,,,,,160,W,circle,1,0,,,,,,,,,,,,,,,,repeat,letter,lettRpt,k,0.4681,Hi,,,,,,2,,,,,,,,high,27,0,27,0,1,,,,,,,,,
298249,2022-11-27_13h08.25.262,vts_reward_expectancy_bt,2022.2.4,Win32,59.99520038,Chrome,1536,864,,,,,10,955,,,,,,,,,,,,,,,,,146,S,circle,1,0,,,,,,,,,,,,,,,,switch,number,numSwt,d,0.6643,Hi,,,,,,2,,,,,,,,high,28,0,28,0,1,,,,,,,,,
298249,2022-11-27_13h08.25.262,vts_reward_expectancy_bt,2022.2.4,Win32,59.99520038,Chrome,1536,864,,,,,10,965,,,,,,,,,,,,,,,,,139,H,star,1,0,,,,,,,,,,,,,,,,repeat,number,numRpt,d,0.4968,Hi,,,,,,2,,,,,,,,high,29,0,29,0,1,,,,,,,,,
298249,2022-11-27_13h08.25.262,vts_reward_expectancy_bt,2022.2.4,Win32,59.99520038,Chrome,1536,864,,,,,1,966,,,,,,,,,,,,,,,,,132,Y,hexagon,1,0,,,,,,,,,,,,,,,,repeat,number,numRpt,d,0.6,Lo,,,,,,2,,,,,,,,high,30,0,30,0,1,,,,,,,,,
298249,2022-11-27_13h08.25.262,vts_reward_expectancy_bt,2022.2.4,Win32,59.99520038,Chrome,1536,864,,,,,1,967,,,,,,,,,,,,,,,,,167,D,triangle,1,0,,,,,,,,,,,,,,,,switch,letter,lettSwt,j,0.4525,Lo,,,,,,2,,,,,,,,high,31,0,31,0,1,,,,,,,,,
298249,2022-11-27_13h08.25.262,vts_reward_expectancy_bt,2022.2.4,Win32,59.99520038,Chrome,1536,864,,,,,10,977,,,,,,,,,,,,,,,,,174,H,triangle,1,0,,,,,,,,,,,,,,,,switch,number,numSwt,f,0.6324,Lo,,,,,,3,,,,,,space,1.2022,high,0,0,0,0,1,,,,,,,,,
298249,2022-11-27_13h08.25.262,vts_reward_expectancy_bt,2022.2.4,Win32,59.99520038,Chrome,1536,864,,,,,10,987,,,,,,,,,,,,,,,,,139,S,hexagon,1,0,,,,,,,,,,,,,,,,repeat,number,numRpt,d,0.4852,Lo,,,,,,3,,,,,,,,high,1,0,1,0,1,,,,,,,,,
298249,2022-11-27_13h08.25.262,vts_reward_expectancy_bt,2022.2.4,Win32,59.99520038,Chrome,1536,864,,,,,0,987,,,,,,,,,,,,,,,,,146,Y,circle,1,0,,,,,,,,,,,,,,,,switch,letter,lettSwt,k,0.582,Hi,,,,,,3,,,,,,,,high,2,0,2,0,1,,,,,,,,,
298249,2022-11-27_13h08.25.262,vts_reward_expectancy_bt,2022.2.4,Win32,59.99520038,Chrome,1536,864,,,,,0,987,,,,,,,,,,,,,,,,,167,D,star,1,0,,,,,,,,,,,,,,,,repeat,letter,lettRpt,j,0.7675,Hi,,,,,,3,,,,,,,,high,3,0,3,0,1,,,,,,,,,
298249,2022-11-27_13h08.25.262,vts_reward_expectancy_bt,2022.2.4,Win32,59.99520038,Chrome,1536,864,,,,,1,988,,,,,,,,,,,,,,,,,181,U,triangle,1,0,,,,,,,,,,,,,,,,switch,number,numSwt,f,0.5155,Lo,,,,,,3,,,,,,,,high,4,0,4,0,1,,,,,,,,,
298249,2022-11-27_13h08.25.262,vts_reward_expectancy_bt,2022.2.4,Win32,59.99520038,Chrome,1536,864,,,,,1,989,,,,,,,,,,,,,,,,,132,W,hexagon,1,0,,,,,,,,,,,,,,,,repeat,number,numRpt,d,0.4661,Lo,,,,,,3,,,,,,,,high,5,0,5,0,1,,,,,,,,,
298249,2022-11-27_13h08.25.262,vts_reward_expectancy_bt,2022.2.4,Win32,59.99520038,Chrome,1536,864,,,,,0,989,,,,,,,,,,,,,,,,,160,F,circle,1,0,,,,,,,,,,,,,,,,switch,letter,lettSwt,j,0.5977,Hi,,,,,,3,,,,,,,,high,6,0,6,0,1,,,,,,,,,
298249,2022-11-27_13h08.25.262,vts_reward_expectancy_bt,2022.2.4,Win32,59.99520038,Chrome,1536,864,,,,,0,989,,,,,,,,,,,,,,,,,125,B,star,1,0,,,,,,,,,,,,,,,,repeat,letter,lettRpt,j,0.5996,Hi,,,,,,3,,,,,,,,high,7,0,7,0,1,,,,,,,,,
298249,2022-11-27_13h08.25.262,vts_reward_expectancy_bt,2022.2.4,Win32,59.99520038,Chrome,1536,864,,,,,1,990,,,,,,,,,,,,,,,,,174,H,triangle,1,0,,,,,,,,,,,,,,,,switch,number,numSwt,f,0.5158,Lo,,,,,,3,,,,,,,,high,8,0,8,0,1,,,,,,,,,
298249,2022-11-27_13h08.25.262,vts_reward_expectancy_bt,2022.2.4,Win32,59.99520038,Chrome,1536,864,,,,,10,1000,,,,,,,,,,,,,,,,,139,S,circle,1,0,,,,,,,,,,,,,,,,repeat,number,numRpt,d,0.4966,Hi,,,,,,3,,,,,,,,high,9,0,9,0,1,,,,,,,,,
298249,2022-11-27_13h08.25.262,vts_reward_expectancy_bt,2022.2.4,Win32,59.99520038,Chrome,1536,864,,,,,1,1001,,,,,,,,,,,,,,,,,146,Y,hexagon,1,0,,,,,,,,,,,,,,,,switch,letter,lettSwt,k,0.5812,Lo,,,,,,3,,,,,,,,high,10,0,10,0,1,,,,,,,,,
298249,2022-11-27_13h08.25.262,vts_reward_expectancy_bt,2022.2.4,Win32,59.99520038,Chrome,1536,864,,,,,10,1011,,,,,,,,,,,,,,,,,167,D,star,1,0,,,,,,,,,,,,,,,,repeat,letter,lettRpt,j,0.514,Hi,,,,,,3,,,,,,,,high,11,0,11,0,1,,,,,,,,,
298249,2022-11-27_13h08.25.262,vts_reward_expectancy_bt,2022.2.4,Win32,59.99520038,Chrome,1536,864,,,,,10,1021,,,,,,,,,,,,,,,,,181,U,circle,1,0,,,,,,,,,,,,,,,,switch,number,numSwt,f,0.5976,Hi,,,,,,3,,,,,,,,high,12,0,12,0,1,,,,,,,,,
298249,2022-11-27_13h08.25.262,vts_reward_expectancy_bt,2022.2.4,Win32,59.99520038,Chrome,1536,864,,,,,0,1021,,,,,,,,,,,,,,,,,132,W,star,1,0,,,,,,,,,,,,,,,,repeat,number,numRpt,d,0.6003,Hi,,,,,,3,,,,,,,,high,13,0,13,0,1,,,,,,,,,
298249,2022-11-27_13h08.25.262,vts_reward_expectancy_bt,2022.2.4,Win32,59.99520038,Chrome,1536,864,,,,,1,1022,,,,,,,,,,,,,,,,,160,F,hexagon,1,0,,,,,,,,,,,,,,,,switch,letter,lettSwt,j,0.452,Lo,,,,,,3,,,,,,,,high,14,0,14,0,1,,,,,,,,,
298249,2022-11-27_13h08.25.262,vts_reward_expectancy_bt,2022.2.4,Win32,59.99520038,Chrome,1536,864,,,,,1,1023,,,,,,,,,,,,,,,,,125,B,triangle,1,0,,,,,,,,,,,,,,,,repeat,letter,lettRpt,j,0.5338,Lo,,,,,,3,,,,,,,,high,15,0,15,0,1,,,,,,,,,
298249,2022-11-27_13h08.25.262,vts_reward_expectancy_bt,2022.2.4,Win32,59.99520038,Chrome,1536,864,,,,,0,1023,,,,,,,,,,,,,,,,,167,S,star,1,0,,,,,,,,,,,,,,,,switch,number,numSwt,f,0.7344,Hi,,,,,,3,,,,,,,,high,16,0,16,0,1,,,,,,,,,
298249,2022-11-27_13h08.25.262,vts_reward_expectancy_bt,2022.2.4,Win32,59.99520038,Chrome,1536,864,,,,,1,1024,,,,,,,,,,,,,,,,,181,B,hexagon,1,0,,,,,,,,,,,,,,,,repeat,number,numRpt,f,0.4334,Lo,,,,,,3,,,,,,,,high,17,0,17,0,1,,,,,,,,,
298249,2022-11-27_13h08.25.262,vts_reward_expectancy_bt,2022.2.4,Win32,59.99520038,Chrome,1536,864,,,,,1,1025,,,,,,,,,,,,,,,,,125,W,triangle,1,0,,,,,,,,,,,,,,,,repeat,number,numRpt,d,0.6499,Lo,,,,,,3,,,,,,,,high,18,0,18,0,1,,,,,,,,,
298249,2022-11-27_13h08.25.262,vts_reward_expectancy_bt,2022.2.4,Win32,59.99520038,Chrome,1536,864,,,,,0,1025,,,,,,,,,,,,,,,,,174,Y,circle,0,0,,,,,,,,,,,,,,,,switch,letter,NA,j,0.5665,Lo,,,,,,3,,,,,,,,high,19,0,19,0,1,,,,,,,,,
298249,2022-11-27_13h08.25.262,vts_reward_expectancy_bt,2022.2.4,Win32,59.99520038,Chrome,1536,864,,,,,0,1025,,,,,,,,,,,,,,,,,160,H,circle,1,1,,,,,,,,,,,,,,,,repeat,letter,lettRpt,j,0.6664,Hi,,,,,,3,,,,,,,,high,20,0,20,0,1,,,,,,,,,
298249,2022-11-27_13h08.25.262,vts_reward_expectancy_bt,2022.2.4,Win32,59.99520038,Chrome,1536,864,,,,,10,1035,,,,,,,,,,,,,,,,,146,D,hexagon,1,0,,,,,,,,,,,,,,,,repeat,letter,lettRpt,j,0.7833,Lo,,,,,,3,,,,,,,,high,21,0,21,0,1,,,,,,,,,
298249,2022-11-27_13h08.25.262,vts_reward_expectancy_bt,2022.2.4,Win32,59.99520038,Chrome,1536,864,,,,,0,1035,,,,,,,,,,,,,,,,,139,F,star,1,0,,,,,,,,,,,,,,,,repeat,letter,lettRpt,j,0.6308,Hi,,,,,,3,,,,,,,,high,22,0,22,0,1,,,,,,,,,
298249,2022-11-27_13h08.25.262,vts_reward_expectancy_bt,2022.2.4,Win32,59.99520038,Chrome,1536,864,,,,,1,1036,,,,,,,,,,,,,,,,,132,U,triangle,1,0,,,,,,,,,,,,,,,,switch,number,numSwt,d,0.501,Lo,,,,,,3,,,,,,,,high,23,0,23,0,1,,,,,,,,,
298249,2022-11-27_13h08.25.262,vts_reward_expectancy_bt,2022.2.4,Win32,59.99520038,Chrome,1536,864,,,,,0,1036,,,,,,,,,,,,,,,,,132,B,star,1,0,,,,,,,,,,,,,,,,repeat,number,numRpt,d,0.7714,Hi,,,,,,3,,,,,,,,high,24,0,24,0,1,,,,,,,,,
298249,2022-11-27_13h08.25.262,vts_reward_expectancy_bt,2022.2.4,Win32,59.99520038,Chrome,1536,864,,,,,0,1036,,,,,,,,,,,,,,,,,181,F,circle,1,0,,,,,,,,,,,,,,,,switch,letter,lettSwt,j,0.6976,Hi,,,,,,3,,,,,,,,high,25,0,25,0,1,,,,,,,,,
298249,2022-11-27_13h08.25.262,vts_reward_expectancy_bt,2022.2.4,Win32,59.99520038,Chrome,1536,864,,,,,1,1037,,,,,,,,,,,,,,,,,167,U,hexagon,1,0,,,,,,,,,,,,,,,,repeat,letter,lettRpt,k,0.7848,Lo,,,,,,3,,,,,,,,high,26,0,26,0,1,,,,,,,,,
298249,2022-11-27_13h08.25.262,vts_reward_expectancy_bt,2022.2.4,Win32,59.99520038,Chrome,1536,864,,,,,1,1038,,,,,,,,,,,,,,,,,174,Y,triangle,1,0,,,,,,,,,,,,,,,,switch,number,numSwt,f,0.5306,Lo,,,,,,3,,,,,,,,high,27,0,27,0,1,,,,,,,,,
298249,2022-11-27_13h08.25.262,vts_reward_expectancy_bt,2022.2.4,Win32,59.99520038,Chrome,1536,864,,,,,0,1038,,,,,,,,,,,,,,,,,139,H,circle,1,0,,,,,,,,,,,,,,,,repeat,number,numRpt,d,0.5999,Hi,,,,,,3,,,,,,,,high,28,0,28,0,1,,,,,,,,,
298249,2022-11-27_13h08.25.262,vts_reward_expectancy_bt,2022.2.4,Win32,59.99520038,Chrome,1536,864,,,,,1,1039,,,,,,,,,,,,,,,,,146,W,hexagon,1,0,,,,,,,,,,,,,,,,switch,letter,lettSwt,k,0.7659,Lo,,,,,,3,,,,,,,,high,29,0,29,0,1,,,,,,,,,
298249,2022-11-27_13h08.25.262,vts_reward_expectancy_bt,2022.2.4,Win32,59.99520038,Chrome,1536,864,,,,,1,1040,,,,,,,,,,,,,,,,,125,S,triangle,1,0,,,,,,,,,,,,,,,,repeat,letter,lettRpt,k,0.6028,Lo,,,,,,3,,,,,,,,high,30,0,30,0,1,,,,,,,,,
298249,2022-11-27_13h08.25.262,vts_reward_expectancy_bt,2022.2.4,Win32,59.99520038,Chrome,1536,864,,,,,0,1040,,,,,,,,,,,,,,,,,160,D,star,1,0,,,,,,,,,,,,,,,,switch,number,numSwt,f,0.7819,Hi,,,,,,3,,,,,,,,high,31,0,31,0,1,,,,,,,,,
298249,2022-11-27_13h08.25.262,vts_reward_expectancy_bt,2022.2.4,Win32,59.99520038,Chrome,1536,864,,,,,0,1040,,,,,,,,,,,,,,,,,167,H,star,1,0,,,,,,,,,,,,,,,,repeat,number,numRpt,f,0.6333,Hi,,,,,,4,,,,,,space,3.2546,high,0,0,0,0,1,,,,,,,,,
298249,2022-11-27_13h08.25.262,vts_reward_expectancy_bt,2022.2.4,Win32,59.99520038,Chrome,1536,864,,,,,10,1050,,,,,,,,,,,,,,,,,139,F,hexagon,1,0,,,,,,,,,,,,,,,,repeat,number,numRpt,d,0.5171,Lo,,,,,,4,,,,,,,,high,1,0,1,0,1,,,,,,,,,
298249,2022-11-27_13h08.25.262,vts_reward_expectancy_bt,2022.2.4,Win32,59.99520038,Chrome,1536,864,,,,,10,1060,,,,,,,,,,,,,,,,,125,S,circle,1,0,,,,,,,,,,,,,,,,switch,letter,lettSwt,k,0.5814,Hi,,,,,,4,,,,,,,,high,2,0,2,0,1,,,,,,,,,
298249,2022-11-27_13h08.25.262,vts_reward_expectancy_bt,2022.2.4,Win32,59.99520038,Chrome,1536,864,,,,,1,1061,,,,,,,,,,,,,,,,,174,Y,triangle,1,0,,,,,,,,,,,,,,,,repeat,letter,lettRpt,k,0.4827,Lo,,,,,,4,,,,,,,,high,3,0,3,0,1,,,,,,,,,
298249,2022-11-27_13h08.25.262,vts_reward_expectancy_bt,2022.2.4,Win32,59.99520038,Chrome,1536,864,,,,,10,1071,,,,,,,,,,,,,,,,,160,B,star,1,0,,,,,,,,,,,,,,,,switch,number,numSwt,f,0.4822,Hi,,,,,,4,,,,,,,,high,4,0,4,0,1,,,,,,,,,
298249,2022-11-27_13h08.25.262,vts_reward_expectancy_bt,2022.2.4,Win32,59.99520038,Chrome,1536,864,,,,,1,1072,,,,,,,,,,,,,,,,,146,W,hexagon,1,0,,,,,,,,,,,,,,,,repeat,number,numRpt,d,0.5304,Lo,,,,,,4,,,,,,,,high,5,0,5,0,1,,,,,,,,,
298249,2022-11-27_13h08.25.262,vts_reward_expectancy_bt,2022.2.4,Win32,59.99520038,Chrome,1536,864,,,,,10,1082,,,,,,,,,,,,,,,,,181,U,circle,1,0,,,,,,,,,,,,,,,,switch,letter,lettSwt,k,0.5001,Hi,,,,,,4,,,,,,,,high,6,0,6,0,1,,,,,,,,,
298249,2022-11-27_13h08.25.262,vts_reward_expectancy_bt,2022.2.4,Win32,59.99520038,Chrome,1536,864,,,,,1,1083,,,,,,,,,,,,,,,,,132,D,triangle,1,0,,,,,,,,,,,,,,,,repeat,letter,lettRpt,j,0.4163,Lo,,,,,,4,,,,,,,,high,7,0,7,0,1,,,,,,,,,
298249,2022-11-27_13h08.25.262,vts_reward_expectancy_bt,2022.2.4,Win32,59.99520038,Chrome,1536,864,,,,,0,1083,,,,,,,,,,,,,,,,,167,H,circle,1,0,,,,,,,,,,,,,,,,switch,number,numSwt,f,0.5313,Hi,,,,,,4,,,,,,,,high,8,0,8,0,1,,,,,,,,,
298249,2022-11-27_13h08.25.262,vts_reward_expectancy_bt,2022.2.4,Win32,59.99520038,Chrome,1536,864,,,,,0,1083,,,,,,,,,,,,,,,,,139,F,star,1,0,,,,,,,,,,,,,,,,repeat,number,numRpt,d,0.5017,Hi,,,,,,4,,,,,,,,high,9,0,9,0,1,,,,,,,,,
298249,2022-11-27_13h08.25.262,vts_reward_expectancy_bt,2022.2.4,Win32,59.99520038,Chrome,1536,864,,,,,1,1084,,,,,,,,,,,,,,,,,125,S,triangle,1,0,,,,,,,,,,,,,,,,switch,letter,lettSwt,k,0.4019,Lo,,,,,,4,,,,,,,,high,10,0,10,0,1,,,,,,,,,
298249,2022-11-27_13h08.25.262,vts_reward_expectancy_bt,2022.2.4,Win32,59.99520038,Chrome,1536,864,,,,,1,1085,,,,,,,,,,,,,,,,,174,Y,hexagon,1,0,,,,,,,,,,,,,,,,repeat,letter,lettRpt,k,0.5167,Lo,,,,,,4,,,,,,,,high,11,0,11,0,1,,,,,,,,,
298249,2022-11-27_13h08.25.262,vts_reward_expectancy_bt,2022.2.4,Win32,59.99520038,Chrome,1536,864,,,,,0,1085,,,,,,,,,,,,,,,,,160,B,star,1,0,,,,,,,,,,,,,,,,switch,number,numSwt,f,0.6812,Hi,,,,,,4,,,,,,,,high,12,0,12,0,1,,,,,,,,,
298249,2022-11-27_13h08.25.262,vts_reward_expectancy_bt,2022.2.4,Win32,59.99520038,Chrome,1536,864,,,,,1,1086,,,,,,,,,,,,,,,,,146,W,hexagon,1,0,,,,,,,,,,,,,,,,repeat,number,numRpt,d,0.432,Lo,,,,,,4,,,,,,,,high,13,0,13,0,1,,,,,,,,,
298249,2022-11-27_13h08.25.262,vts_reward_expectancy_bt,2022.2.4,Win32,59.99520038,Chrome,1536,864,,,,,1,1087,,,,,,,,,,,,,,,,,181,U,triangle,1,0,,,,,,,,,,,,,,,,repeat,number,numRpt,f,0.8646,Lo,,,,,,4,,,,,,,,high,14,0,14,0,1,,,,,,,,,
298249,2022-11-27_13h08.25.262,vts_reward_expectancy_bt,2022.2.4,Win32,59.99520038,Chrome,1536,864,,,,,0,1087,,,,,,,,,,,,,,,,,132,D,circle,1,0,,,,,,,,,,,,,,,,switch,letter,lettSwt,j,0.832,Hi,,,,,,4,,,,,,,,high,15,0,15,0,1,,,,,,,,,
298249,2022-11-27_13h08.25.262,vts_reward_expectancy_bt,2022.2.4,Win32,59.99520038,Chrome,1536,864,,,,,1,1088,,,,,,,,,,,,,,,,,181,U,circle,1,0,,,,,,,,,,,,,,,,repeat,letter,lettRpt,k,0.5508,Hi,,,,,,4,,,,,,,,high,16,0,16,0,1,,,,,,,,,
298249,2022-11-27_13h08.25.262,vts_reward_expectancy_bt,2022.2.4,Win32,59.99520038,Chrome,1536,864,,,,,1,1089,,,,,,,,,,,,,,,,,160,Y,hexagon,1,0,,,,,,,,,,,,,,,,repeat,letter,lettRpt,k,0.5141,Lo,,,,,,4,,,,,,,,high,17,0,17,0,1,,,,,,,,,
298249,2022-11-27_13h08.25.262,vts_reward_expectancy_bt,2022.2.4,Win32,59.99520038,Chrome,1536,864,,,,,0,1089,,,,,,,,,,,,,,,,,146,S,star,0,0,,,,,,,,,,,,,,,,switch,number,NA,f,0.5495,Lo,,,,,,4,,,,,,,,high,18,0,18,0,1,,,,,,,,,
298249,2022-11-27_13h08.25.262,vts_reward_expectancy_bt,2022.2.4,Win32,59.99520038,Chrome,1536,864,,,,,1,1090,,,,,,,,,,,,,,,,,139,F,triangle,1,1,,,,,,,,,,,,,,,,repeat,number,numRpt,d,0.6976,Lo,,,,,,4,,,,,,,,high,19,0,19,0,1,,,,,,,,,
298249,2022-11-27_13h08.25.262,vts_reward_expectancy_bt,2022.2.4,Win32,59.99520038,Chrome,1536,864,,,,,10,1100,,,,,,,,,,,,,,,,,167,D,star,1,0,,,,,,,,,,,,,,,,repeat,number,numRpt,f,0.3824,Hi,,,,,,4,,,,,,,,high,20,0,20,0,1,,,,,,,,,
298249,2022-11-27_13h08.25.262,vts_reward_expectancy_bt,2022.2.4,Win32,59.99520038,Chrome,1536,864,,,,,1,1101,,,,,,,,,,,,,,,,,174,W,hexagon,1,0,,,,,,,,,,,,,,,,repeat,number,numRpt,f,0.5491,Lo,,,,,,4,,,,,,,,high,21,0,21,0,1,,,,,,,,,
298249,2022-11-27_13h08.25.262,vts_reward_expectancy_bt,2022.2.4,Win32,59.99520038,Chrome,1536,864,,,,,0,1101,,,,,,,,,,,,,,,,,125,B,circle,1,0,,,,,,,,,,,,,,,,repeat,number,numRpt,d,0.5652,Hi,,,,,,4,,,,,,,,high,22,0,22,0,1,,,,,,,,,
298249,2022-11-27_13h08.25.262,vts_reward_expectancy_bt,2022.2.4,Win32,59.99520038,Chrome,1536,864,,,,,0,1101,,,,,,,,,,,,,,,,,132,H,triangle,0,0,,,,,,,,,,,,,,,,switch,letter,NA,k,0.6977,Hi,,,,,,4,,,,,,,,high,23,0,23,0,1,,,,,,,,,
298249,2022-11-27_13h08.25.262,vts_reward_expectancy_bt,2022.2.4,Win32,59.99520038,Chrome,1536,864,,,,,10,1111,,,,,,,,,,,,,,,,,181,Y,hexagon,1,1,,,,,,,,,,,,,,,,repeat,letter,lettRpt,k,0.5525,Lo,,,,,,4,,,,,,,,high,24,0,24,0,1,,,,,,,,,
298249,2022-11-27_13h08.25.262,vts_reward_expectancy_bt,2022.2.4,Win32,59.99520038,Chrome,1536,864,,,,,0,1111,,,,,,,,,,,,,,,,,174,H,star,1,0,,,,,,,,,,,,,,,,repeat,letter,lettRpt,j,0.6824,Hi,,,,,,4,,,,,,,,high,25,0,25,0,1,,,,,,,,,
298249,2022-11-27_13h08.25.262,vts_reward_expectancy_bt,2022.2.4,Win32,59.99520038,Chrome,1536,864,,,,,0,1111,,,,,,,,,,,,,,,,,160,S,circle,1,0,,,,,,,,,,,,,,,,switch,number,numSwt,f,0.5335,Hi,,,,,,4,,,,,,,,high,26,0,26,0,1,,,,,,,,,
298249,2022-11-27_13h08.25.262,vts_reward_expectancy_bt,2022.2.4,Win32,59.99520038,Chrome,1536,864,,,,,1,1112,,,,,,,,,,,,,,,,,125,W,triangle,1,0,,,,,,,,,,,,,,,,repeat,number,numRpt,d,0.7493,Lo,,,,,,4,,,,,,,,high,27,0,27,0,1,,,,,,,,,
298249,2022-11-27_13h08.25.262,vts_reward_expectancy_bt,2022.2.4,Win32,59.99520038,Chrome,1536,864,,,,,0,1112,,,,,,,,,,,,,,,,,167,U,circle,1,0,,,,,,,,,,,,,,,,switch,letter,lettSwt,k,0.6499,Hi,,,,,,4,,,,,,,,high,28,0,28,0,1,,,,,,,,,
298249,2022-11-27_13h08.25.262,vts_reward_expectancy_bt,2022.2.4,Win32,59.99520038,Chrome,1536,864,,,,,10,1122,,,,,,,,,,,,,,,,,146,D,triangle,1,0,,,,,,,,,,,,,,,,repeat,letter,lettRpt,j,0.6162,Lo,,,,,,4,,,,,,,,high,29,0,29,0,1,,,,,,,,,
298249,2022-11-27_13h08.25.262,vts_reward_expectancy_bt,2022.2.4,Win32,59.99520038,Chrome,1536,864,,,,,1,1123,,,,,,,,,,,,,,,,,132,F,hexagon,1,0,,,,,,,,,,,,,,,,switch,number,numSwt,d,0.7987,Lo,,,,,,4,,,,,,,,high,30,0,30,0,1,,,,,,,,,
298249,2022-11-27_13h08.25.262,vts_reward_expectancy_bt,2022.2.4,Win32,59.99520038,Chrome,1536,864,,,,,0,1123,,,,,,,,,,,,,,,,,139,B,star,1,0,,,,,,,,,,,,,,,,repeat,number,numRpt,d,0.5683,Hi,,,,,,4,,,,,,,,high,31,0,31,0,1,,,,,,,,,
298249,2022-11-27_13h08.25.262,vts_reward_expectancy_bt,2022.2.4,Win32,59.99520038,Chrome,1536,864,,,,,1,1124,,,,,,,,,,,,,,,,,174,S,hexagon,1,0,,,,,,,,,,,,,,,,repeat,number,numRpt,f,0.5813,Lo,,,,,,5,,,,,,space,1.0513,high,0,0,0,0,1,,,,,,,,,
298249,2022-11-27_13h08.25.262,vts_reward_expectancy_bt,2022.2.4,Win32,59.99520038,Chrome,1536,864,,,,,0,1124,,,,,,,,,,,,,,,,,125,W,triangle,0,0,,,,,,,,,,,,,,,,repeat,number,NA,f,0.482,Lo,,,,,,5,,,,,,,,high,1,0,1,0,1,,,,,,,,,
298249,2022-11-27_13h08.25.262,vts_reward_expectancy_bt,2022.2.4,Win32,59.99520038,Chrome,1536,864,,,,,10,1134,,,,,,,,,,,,,,,,,181,B,circle,1,1,,,,,,,,,,,,,,,,switch,letter,lettSwt,j,0.4348,Hi,,,,,,5,,,,,,,,high,2,0,2,0,1,,,,,,,,,
298249,2022-11-27_13h08.25.262,vts_reward_expectancy_bt,2022.2.4,Win32,59.99520038,Chrome,1536,864,,,,,10,1144,,,,,,,,,,,,,,,,,146,Y,star,1,0,,,,,,,,,,,,,,,,repeat,letter,lettRpt,k,0.2988,Hi,,,,,,5,,,,,,,,high,3,0,3,0,1,,,,,,,,,
298249,2022-11-27_13h08.25.262,vts_reward_expectancy_bt,2022.2.4,Win32,59.99520038,Chrome,1536,864,,,,,0,1144,,,,,,,,,,,,,,,,,132,U,hexagon,0,0,,,,,,,,,,,,,,,,switch,number,NA,f,0.3331,Hi,,,,,,5,,,,,,,,high,4,0,4,0,1,,,,,,,,,
298249,2022-11-27_13h08.25.262,vts_reward_expectancy_bt,2022.2.4,Win32,59.99520038,Chrome,1536,864,,,,,1,1145,,,,,,,,,,,,,,,,,139,H,triangle,1,1,,,,,,,,,,,,,,,,repeat,number,numRpt,d,0.5812,Lo,,,,,,5,,,,,,,,high,5,0,5,0,1,,,,,,,,,
298249,2022-11-27_13h08.25.262,vts_reward_expectancy_bt,2022.2.4,Win32,59.99520038,Chrome,1536,864,,,,,0,1145,,,,,,,,,,,,,,,,,167,F,circle,1,0,,,,,,,,,,,,,,,,switch,letter,lettSwt,j,0.5977,Hi,,,,,,5,,,,,,,,high,6,0,6,0,1,,,,,,,,,
298249,2022-11-27_13h08.25.262,vts_reward_expectancy_bt,2022.2.4,Win32,59.99520038,Chrome,1536,864,,,,,0,1145,,,,,,,,,,,,,,,,,160,D,star,0,0,,,,,,,,,,,,,,,,repeat,letter,NA,k,0.4163,Hi,,,,,,5,,,,,,,,high,7,0,7,0,1,,,,,,,,,
298249,2022-11-27_13h08.25.262,vts_reward_expectancy_bt,2022.2.4,Win32,59.99520038,Chrome,1536,864,,,,,1,1146,,,,,,,,,,,,,,,,,174,S,hexagon,1,1,,,,,,,,,,,,,,,,switch,number,numSwt,f,0.6002,Lo,,,,,,5,,,,,,,,high,8,0,8,0,1,,,,,,,,,
298249,2022-11-27_13h08.25.262,vts_reward_expectancy_bt,2022.2.4,Win32,59.99520038,Chrome,1536,864,,,,,0,1146,,,,,,,,,,,,,,,,,125,W,star,1,0,,,,,,,,,,,,,,,,repeat,number,numRpt,d,0.5982,Hi,,,,,,5,,,,,,,,high,9,0,9,0,1,,,,,,,,,
298249,2022-11-27_13h08.25.262,vts_reward_expectancy_bt,2022.2.4,Win32,59.99520038,Chrome,1536,864,,,,,10,1156,,,,,,,,,,,,,,,,,181,B,triangle,1,0,,,,,,,,,,,,,,,,switch,letter,lettSwt,j,0.448,Lo,,,,,,5,,,,,,,,high,10,0,10,0,1,,,,,,,,,
298249,2022-11-27_13h08.25.262,vts_reward_expectancy_bt,2022.2.4,Win32,59.99520038,Chrome,1536,864,,,,,0,1156,,,,,,,,,,,,,,,,,146,Y,circle,1,0,,,,,,,,,,,,,,,,repeat,letter,lettRpt,k,0.5211,Hi,,,,,,5,,,,,,,,high,11,0,11,0,1,,,,,,,,,
298249,2022-11-27_13h08.25.262,vts_reward_expectancy_bt,2022.2.4,Win32,59.99520038,Chrome,1536,864,,,,,0,1156,,,,,,,,,,,,,,,,,132,U,circle,0,0,,,,,,,,,,,,,,,,switch,number,NA,f,0.5149,Hi,,,,,,5,,,,,,,,high,12,0,12,0,1,,,,,,,,,
298249,2022-11-27_13h08.25.262,vts_reward_expectancy_bt,2022.2.4,Win32,59.99520038,Chrome,1536,864,,,,,1,1157,,,,,,,,,,,,,,,,,139,H,triangle,1,1,,,,,,,,,,,,,,,,repeat,number,numRpt,d,0.5653,Lo,,,,,,5,,,,,,,,high,13,0,13,0,1,,,,,,,,,
298249,2022-11-27_13h08.25.262,vts_reward_expectancy_bt,2022.2.4,Win32,59.99520038,Chrome,1536,864,,,,,10,1167,,,,,,,,,,,,,,,,,167,F,hexagon,1,0,,,,,,,,,,,,,,,,switch,letter,lettSwt,j,1.0017,Lo,,,,,,5,,,,,,,,high,14,0,14,0,1,,,,,,,,,
298249,2022-11-27_13h08.25.262,vts_reward_expectancy_bt,2022.2.4,Win32,59.99520038,Chrome,1536,864,,,,,10,1177,,,,,,,,,,,,,,,,,160,D,star,1,0,,,,,,,,,,,,,,,,repeat,letter,lettRpt,j,0.4689,Hi,,,,,,5,,,,,,,,high,15,0,15,0,1,,,,,,,,,
298249,2022-11-27_13h08.25.262,vts_reward_expectancy_bt,2022.2.4,Win32,59.99520038,Chrome,1536,864,,,,,0,1177,,,,,,,,,,,,,,,,,160,Y,star,1,0,,,,,,,,,,,,,,,,repeat,letter,lettRpt,k,0.6536,Hi,,,,,,5,,,,,,,,high,16,0,16,0,1,,,,,,,,,
298249,2022-11-27_13h08.25.262,vts_reward_expectancy_bt,2022.2.4,Win32,59.99520038,Chrome,1536,864,,,,,1,1178,,,,,,,,,,,,,,,,,139,U,hexagon,1,0,,,,,,,,,,,,,,,,switch,number,numSwt,d,0.532,Lo,,,,,,5,,,,,,,,high,17,0,17,0,1,,,,,,,,,
298249,2022-11-27_13h08.25.262,vts_reward_expectancy_bt,2022.2.4,Win32,59.99520038,Chrome,1536,864,,,,,1,1179,,,,,,,,,,,,,,,,,146,D,triangle,1,0,,,,,,,,,,,,,,,,repeat,number,numRpt,d,0.6146,Lo,,,,,,5,,,,,,,,high,18,0,18,0,1,,,,,,,,,
298249,2022-11-27_13h08.25.262,vts_reward_expectancy_bt,2022.2.4,Win32,59.99520038,Chrome,1536,864,,,,,0,1179,,,,,,,,,,,,,,,,,174,F,circle,1,0,,,,,,,,,,,,,,,,repeat,number,numRpt,f,0.9125,Hi,,,,,,5,,,,,,,,high,19,0,19,0,1,,,,,,,,,
298249,2022-11-27_13h08.25.262,vts_reward_expectancy_bt,2022.2.4,Win32,59.99520038,Chrome,1536,864,,,,,10,1189,,,,,,,,,,,,,,,,,181,S,triangle,1,0,,,,,,,,,,,,,,,,switch,letter,lettSwt,k,0.549,Lo,,,,,,5,,,,,,,,high,20,0,20,0,1,,,,,,,,,
298249,2022-11-27_13h08.25.262,vts_reward_expectancy_bt,2022.2.4,Win32,59.99520038,Chrome,1536,864,,,,,1,1190,,,,,,,,,,,,,,,,,125,H,hexagon,1,0,,,,,,,,,,,,,,,,repeat,letter,lettRpt,j,0.6704,Lo,,,,,,5,,,,,,,,high,21,0,21,0,1,,,,,,,,,
298249,2022-11-27_13h08.25.262,vts_reward_expectancy_bt,2022.2.4,Win32,59.99520038,Chrome,1536,864,,,,,0,1190,,,,,,,,,,,,,,,,,132,W,star,1,0,,,,,,,,,,,,,,,,switch,number,numSwt,d,0.5519,Hi,,,,,,5,,,,,,,,high,22,0,22,0,1,,,,,,,,,
298249,2022-11-27_13h08.25.262,vts_reward_expectancy_bt,2022.2.4,Win32,59.99520038,Chrome,1536,864,,,,,10,1200,,,,,,,,,,,,,,,,,167,B,circle,1,0,,,,,,,,,,,,,,,,repeat,number,numRpt,f,0.4164,Hi,,,,,,5,,,,,,,,high,23,0,23,0,1,,,,,,,,,
298249,2022-11-27_13h08.25.262,vts_reward_expectancy_bt,2022.2.4,Win32,59.99520038,Chrome,1536,864,,,,,0,1200,,,,,,,,,,,,,,,,,167,D,star,1,0,,,,,,,,,,,,,,,,switch,letter,lettSwt,j,0.5705,Hi,,,,,,5,,,,,,,,high,24,0,24,0,1,,,,,,,,,
298249,2022-11-27_13h08.25.262,vts_reward_expectancy_bt,2022.2.4,Win32,59.99520038,Chrome,1536,864,,,,,0,1200,,,,,,,,,,,,,,,,,181,F,triangle,0,0,,,,,,,,,,,,,,,,repeat,letter,NA,k,0.4167,Hi,,,,,,5,,,,,,,,high,25,0,25,0,1,,,,,,,,,
298249,2022-11-27_13h08.25.262,vts_reward_expectancy_bt,2022.2.4,Win32,59.99520038,Chrome,1536,864,,,,,10,1210,,,,,,,,,,,,,,,,,160,Y,circle,1,1,,,,,,,,,,,,,,,,switch,number,numSwt,f,0.4678,Hi,,,,,,5,,,,,,,,high,26,0,26,0,1,,,,,,,,,
298249,2022-11-27_13h08.25.262,vts_reward_expectancy_bt,2022.2.4,Win32,59.99520038,Chrome,1536,864,,,,,0,1210,,,,,,,,,,,,,,,,,146,S,hexagon,0,0,,,,,,,,,,,,,,,,repeat,number,NA,f,0.466,Hi,,,,,,5,,,,,,,,high,27,0,27,0,1,,,,,,,,,
298249,2022-11-27_13h08.25.262,vts_reward_expectancy_bt,2022.2.4,Win32,59.99520038,Chrome,1536,864,,,,,1,1211,,,,,,,,,,,,,,,,,125,W,hexagon,1,1,,,,,,,,,,,,,,,,switch,letter,lettSwt,k,1.3292,Lo,,,,,,5,,,,,,,,high,28,0,28,0,1,,,,,,,,,
298249,2022-11-27_13h08.25.262,vts_reward_expectancy_bt,2022.2.4,Win32,59.99520038,Chrome,1536,864,,,,,0,1211,,,,,,,,,,,,,,,,,174,H,star,1,0,,,,,,,,,,,,,,,,repeat,letter,lettRpt,j,0.5324,Hi,,,,,,5,,,,,,,,high,29,0,29,0,1,,,,,,,,,
298249,2022-11-27_13h08.25.262,vts_reward_expectancy_bt,2022.2.4,Win32,59.99520038,Chrome,1536,864,,,,,0,1211,,,,,,,,,,,,,,,,,139,B,circle,1,0,,,,,,,,,,,,,,,,repeat,letter,lettRpt,j,0.632,Hi,,,,,,5,,,,,,,,high,30,0,30,0,1,,,,,,,,,
298249,2022-11-27_13h08.25.262,vts_reward_expectancy_bt,2022.2.4,Win32,59.99520038,Chrome,1536,864,,,,,1,1212,,,,,,,,,,,,,,,,,132,U,triangle,1,0,,,,,,,,,,,,,,,,switch,number,numSwt,d,0.5643,Lo,,,,,,5,,,,,,,,high,31,0,31,0,1,,,,,,,,,
298249,2022-11-27_13h08.25.262,vts_reward_expectancy_bt,2022.2.4,Win32,59.99520038,Chrome,1536,864,,,,,1,1213,,,,,,,,,,,,,,,,,132,F,triangle,1,0,,,,,,,,,,,,,,,,repeat,number,numRpt,d,0.6572,Lo,,,,,,6,,,,,,space,2.2,high,0,0,0,0,1,,,,,,,,,
298249,2022-11-27_13h08.25.262,vts_reward_expectancy_bt,2022.2.4,Win32,59.99520038,Chrome,1536,864,,,,,10,1223,,,,,,,,,,,,,,,,,167,H,star,1,0,,,,,,,,,,,,,,,,repeat,number,numRpt,f,0.4008,Hi,,,,,,6,,,,,,,,high,1,0,1,0,1,,,,,,,,,
298249,2022-11-27_13h08.25.262,vts_reward_expectancy_bt,2022.2.4,Win32,59.99520038,Chrome,1536,864,,,,,0,1223,,,,,,,,,,,,,,,,,146,W,circle,0,0,,,,,,,,,,,,,,,,switch,letter,NA,j,0.3839,Hi,,,,,,6,,,,,,,,high,2,0,2,0,1,,,,,,,,,
298249,2022-11-27_13h08.25.262,vts_reward_expectancy_bt,2022.2.4,Win32,59.99520038,Chrome,1536,864,,,,,1,1224,,,,,,,,,,,,,,,,,125,D,hexagon,1,1,,,,,,,,,,,,,,,,repeat,letter,lettRpt,j,0.6151,Lo,,,,,,6,,,,,,,,high,3,0,3,0,1,,,,,,,,,
298249,2022-11-27_13h08.25.262,vts_reward_expectancy_bt,2022.2.4,Win32,59.99520038,Chrome,1536,864,,,,,1,1225,,,,,,,,,,,,,,,,,174,U,triangle,1,0,,,,,,,,,,,,,,,,repeat,letter,lettRpt,k,0.5832,Lo,,,,,,6,,,,,,,,high,4,0,4,0,1,,,,,,,,,
298249,2022-11-27_13h08.25.262,vts_reward_expectancy_bt,2022.2.4,Win32,59.99520038,Chrome,1536,864,,,,,0,1225,,,,,,,,,,,,,,,,,160,Y,star,1,0,,,,,,,,,,,,,,,,switch,number,numSwt,f,0.5645,Hi,,,,,,6,,,,,,,,high,5,0,5,0,1,,,,,,,,,
298249,2022-11-27_13h08.25.262,vts_reward_expectancy_bt,2022.2.4,Win32,59.99520038,Chrome,1536,864,,,,,10,1235,,,,,,,,,,,,,,,,,139,B,circle,1,0,,,,,,,,,,,,,,,,repeat,number,numRpt,d,0.5159,Hi,,,,,,6,,,,,,,,high,6,0,6,0,1,,,,,,,,,
