participant,date,expName,psychopyVersion,OS,frameRate,browser,xResolution,yResolution,key_resp.keys,key_resp.rt,training_resp.keys,training_resp.rt,points_trial,points_cumul,trainBlock,training.thisRepN,training.thisTrialN,training.thisN,training.thisIndex,training.ran,LTriangleOpac,LCircleOpac,LHexagonOpac,LStarOpac,RTriangleOpac,RCircleOpac,RHexagonOpac,RStarOpac,LShape_ID,RShape_ID,curr_topStim,curr_bottStim,curr_shape,acc,E1,target_resp_prac1.keys,target_resp_prac1.rt,pracBlock,task1_prac_trials.thisRepN,task1_prac_trials.thisTrialN,task1_prac_trials.thisN,task1_prac_trials.thisIndex,task1_prac_trials.ran,target_resp_prac2.keys,target_resp_prac2.rt,task2_praac_trials.thisRepN,task2_praac_trials.thisTrialN,task2_praac_trials.thisN,task2_praac_trials.thisIndex,task2_praac_trials.ran,alt,task,condition,target_resp.keys,rewCond,vts_practice_trials.thisRepN,vts_practice_trials.thisTrialN,vts_practice_trials.thisN,vts_practice_trials.thisIndex,vts_practice_trials.ran,target_resp.rt,blockNum,trials_norew.thisRepN,trials_norew.thisTrialN,trials_norew.thisN,trials_norew.thisIndex,trials_norew.ran,key_resp_2.keys,key_resp_2.rt,rewExpectancy,trials_rew.thisRepN,trials_rew.thisTrialN,trials_rew.thisN,trials_rew.thisIndex,trials_rew.ran,Q1,Q2,Q2_text,Q3,Q4,Q5_text,Q5,xRes,yRes
298234,2022-12-02_11h07.14.459,vts_reward_expectancy_bt,2022.2.4,MacIntel,59.99880002,Chrome,1440,900,,,,,,,,,,,,,,,,,,,,,,,,,,,,,,,,,,,,,,,,,,,,,,,,,,,,,,,,,,,,,,,,,,,,,,,,,,,,
298234,2022-12-02_11h07.14.459,vts_reward_expectancy_bt,2022.2.4,MacIntel,59.99880002,Chrome,1440,900,space,6.1951,,,,,,,,,,,,,,,,,,,,,,,,,,,,,,,,,,,,,,,,,,,,,,,,,,,,,,,,,,,,,,,,,,,,,,,,,,
298234,2022-12-02_11h07.14.459,vts_reward_expectancy_bt,2022.2.4,MacIntel,59.99880002,Chrome,1440,900,,,,,,,,,,,,,,,,,,,,,,,,,,,,,,,,,,,,,,,,,,,,,,,,,,,,,,,,,,,,,,,,,,,,,,,,,,,,
298234,2022-12-02_11h07.14.459,vts_reward_expectancy_bt,2022.2.4,MacIntel,59.99880002,Chrome,1440,900,,,a,2.9591,1,1,0,0,0,0,3,1,0,1,0,0,1,0,0,0,circle,triangle,,,,,,,,,,,,,,,,,,,,,,,,,,,,,,,,,,,,,,,,,,,,,,,,,,,,,,
298234,2022-12-02_11h07.14.459,vts_reward_expectancy_bt,2022.2.4,MacIntel,59.99880002,Chrome,1440,900,,,l,1.1169,10,11,0,0,1,1,1,1,1,0,0,0,0,0,1,0,triangle,hexagon,,,,,,,,,,,,,,,,,,,,,,,,,,,,,,,,,,,,,,,,,,,,,,,,,,,,,,
298234,2022-12-02_11h07.14.459,vts_reward_expectancy_bt,2022.2.4,MacIntel,59.99880002,Chrome,1440,900,,,l,0.4929,10,21,0,0,2,2,4,1,0,1,0,0,0,0,1,0,circle,hexagon,,,,,,,,,,,,,,,,,,,,,,,,,,,,,,,,,,,,,,,,,,,,,,,,,,,,,,
298234,2022-12-02_11h07.14.459,vts_reward_expectancy_bt,2022.2.4,MacIntel,59.99880002,Chrome,1440,900,,,l,0.4709,1,22,0,0,3,3,8,1,0,0,1,0,0,0,0,1,hexagon,star,,,,,,,,,,,,,,,,,,,,,,,,,,,,,,,,,,,,,,,,,,,,,,,,,,,,,,
298234,2022-12-02_11h07.14.459,vts_reward_expectancy_bt,2022.2.4,MacIntel,59.99880002,Chrome,1440,900,,,l,1.2701,1,23,0,0,4,4,10,1,0,0,0,1,0,1,0,0,star ,circle,,,,,,,,,,,,,,,,,,,,,,,,,,,,,,,,,,,,,,,,,,,,,,,,,,,,,,
298234,2022-12-02_11h07.14.459,vts_reward_expectancy_bt,2022.2.4,MacIntel,59.99880002,Chrome,1440,900,,,a,0.4817,1,24,0,0,5,5,0,1,1,0,0,0,0,1,0,0,triangle,circle,,,,,,,,,,,,,,,,,,,,,,,,,,,,,,,,,,,,,,,,,,,,,,,,,,,,,,
298234,2022-12-02_11h07.14.459,vts_reward_expectancy_bt,2022.2.4,MacIntel,59.99880002,Chrome,1440,900,,,l,0.3969,1,25,0,0,6,6,2,1,1,0,0,0,0,0,0,1,triangle,star,,,,,,,,,,,,,,,,,,,,,,,,,,,,,,,,,,,,,,,,,,,,,,,,,,,,,,
298234,2022-12-02_11h07.14.459,vts_reward_expectancy_bt,2022.2.4,MacIntel,59.99880002,Chrome,1440,900,,,l,0.2509,1,26,0,0,7,7,9,1,0,0,0,1,1,0,0,0,star,triangle,,,,,,,,,,,,,,,,,,,,,,,,,,,,,,,,,,,,,,,,,,,,,,,,,,,,,,
298234,2022-12-02_11h07.14.459,vts_reward_expectancy_bt,2022.2.4,MacIntel,59.99880002,Chrome,1440,900,,,a,0.4572,1,27,0,0,8,8,7,1,0,0,1,0,0,1,0,0,hexagon,circle,,,,,,,,,,,,,,,,,,,,,,,,,,,,,,,,,,,,,,,,,,,,,,,,,,,,,,
298234,2022-12-02_11h07.14.459,vts_reward_expectancy_bt,2022.2.4,MacIntel,59.99880002,Chrome,1440,900,,,a,0.2966,10,37,0,0,9,9,6,1,0,0,1,0,1,0,0,0,hexagon,triangle,,,,,,,,,,,,,,,,,,,,,,,,,,,,,,,,,,,,,,,,,,,,,,,,,,,,,,
298234,2022-12-02_11h07.14.459,vts_reward_expectancy_bt,2022.2.4,MacIntel,59.99880002,Chrome,1440,900,,,a,0.4353,10,47,0,0,10,10,11,1,0,0,0,1,0,0,1,0,star,hexagon,,,,,,,,,,,,,,,,,,,,,,,,,,,,,,,,,,,,,,,,,,,,,,,,,,,,,,
298234,2022-12-02_11h07.14.459,vts_reward_expectancy_bt,2022.2.4,MacIntel,59.99880002,Chrome,1440,900,,,a,0.8482,1,48,0,0,11,11,5,1,0,1,0,0,0,0,0,1,circle,star,,,,,,,,,,,,,,,,,,,,,,,,,,,,,,,,,,,,,,,,,,,,,,,,,,,,,,
298234,2022-12-02_11h07.14.459,vts_reward_expectancy_bt,2022.2.4,MacIntel,59.99880002,Chrome,1440,900,,,l,0.3991,10,58,0,1,0,12,7,1,0,0,1,0,0,1,0,0,hexagon,circle,,,,,,,,,,,,,,,,,,,,,,,,,,,,,,,,,,,,,,,,,,,,,,,,,,,,,,
298234,2022-12-02_11h07.14.459,vts_reward_expectancy_bt,2022.2.4,MacIntel,59.99880002,Chrome,1440,900,,,l,0.3629,10,68,0,1,1,13,6,1,0,0,1,0,1,0,0,0,hexagon,triangle,,,,,,,,,,,,,,,,,,,,,,,,,,,,,,,,,,,,,,,,,,,,,,,,,,,,,,
298234,2022-12-02_11h07.14.459,vts_reward_expectancy_bt,2022.2.4,MacIntel,59.99880002,Chrome,1440,900,,,l,0.3364,10,78,0,1,2,14,2,1,1,0,0,0,0,0,0,1,triangle,star,,,,,,,,,,,,,,,,,,,,,,,,,,,,,,,,,,,,,,,,,,,,,,,,,,,,,,
298234,2022-12-02_11h07.14.459,vts_reward_expectancy_bt,2022.2.4,MacIntel,59.99880002,Chrome,1440,900,,,l,0.2508,1,79,0,1,3,15,8,1,0,0,1,0,0,0,0,1,hexagon,star,,,,,,,,,,,,,,,,,,,,,,,,,,,,,,,,,,,,,,,,,,,,,,,,,,,,,,
298234,2022-12-02_11h07.14.459,vts_reward_expectancy_bt,2022.2.4,MacIntel,59.99880002,Chrome,1440,900,,,l,0.3533,10,89,0,1,4,16,10,1,0,0,0,1,0,1,0,0,star ,circle,,,,,,,,,,,,,,,,,,,,,,,,,,,,,,,,,,,,,,,,,,,,,,,,,,,,,,
298234,2022-12-02_11h07.14.459,vts_reward_expectancy_bt,2022.2.4,MacIntel,59.99880002,Chrome,1440,900,,,l,0.1172,1,90,0,1,5,17,5,1,0,1,0,0,0,0,0,1,circle,star,,,,,,,,,,,,,,,,,,,,,,,,,,,,,,,,,,,,,,,,,,,,,,,,,,,,,,
298234,2022-12-02_11h07.14.459,vts_reward_expectancy_bt,2022.2.4,MacIntel,59.99880002,Chrome,1440,900,,,l,0.2393,1,91,0,1,6,18,0,1,1,0,0,0,0,1,0,0,triangle,circle,,,,,,,,,,,,,,,,,,,,,,,,,,,,,,,,,,,,,,,,,,,,,,,,,,,,,,
298234,2022-12-02_11h07.14.459,vts_reward_expectancy_bt,2022.2.4,MacIntel,59.99880002,Chrome,1440,900,,,a,0.1008,10,101,0,1,7,19,3,1,0,1,0,0,1,0,0,0,circle,triangle,,,,,,,,,,,,,,,,,,,,,,,,,,,,,,,,,,,,,,,,,,,,,,,,,,,,,,
298234,2022-12-02_11h07.14.459,vts_reward_expectancy_bt,2022.2.4,MacIntel,59.99880002,Chrome,1440,900,,,a,0.3187,10,111,0,1,8,20,9,1,0,0,0,1,1,0,0,0,star,triangle,,,,,,,,,,,,,,,,,,,,,,,,,,,,,,,,,,,,,,,,,,,,,,,,,,,,,,
298234,2022-12-02_11h07.14.459,vts_reward_expectancy_bt,2022.2.4,MacIntel,59.99880002,Chrome,1440,900,,,a,0.1165,1,112,0,1,9,21,1,1,1,0,0,0,0,0,1,0,triangle,hexagon,,,,,,,,,,,,,,,,,,,,,,,,,,,,,,,,,,,,,,,,,,,,,,,,,,,,,,
298234,2022-12-02_11h07.14.459,vts_reward_expectancy_bt,2022.2.4,MacIntel,59.99880002,Chrome,1440,900,,,l,0.4515,1,113,0,1,10,22,4,1,0,1,0,0,0,0,1,0,circle,hexagon,,,,,,,,,,,,,,,,,,,,,,,,,,,,,,,,,,,,,,,,,,,,,,,,,,,,,,
298234,2022-12-02_11h07.14.459,vts_reward_expectancy_bt,2022.2.4,MacIntel,59.99880002,Chrome,1440,900,,,a,0.417,10,123,0,1,11,23,11,1,0,0,0,1,0,0,1,0,star,hexagon,,,,,,,,,,,,,,,,,,,,,,,,,,,,,,,,,,,,,,,,,,,,,,,,,,,,,,
298234,2022-12-02_11h07.14.459,vts_reward_expectancy_bt,2022.2.4,MacIntel,59.99880002,Chrome,1440,900,,,a,0.0652,10,133,0,2,0,24,0,1,1,0,0,0,0,1,0,0,triangle,circle,,,,,,,,,,,,,,,,,,,,,,,,,,,,,,,,,,,,,,,,,,,,,,,,,,,,,,
298234,2022-12-02_11h07.14.459,vts_reward_expectancy_bt,2022.2.4,MacIntel,59.99880002,Chrome,1440,900,,,a,0.3196,10,143,0,2,1,25,10,1,0,0,0,1,0,1,0,0,star ,circle,,,,,,,,,,,,,,,,,,,,,,,,,,,,,,,,,,,,,,,,,,,,,,,,,,,,,,
298234,2022-12-02_11h07.14.459,vts_reward_expectancy_bt,2022.2.4,MacIntel,59.99880002,Chrome,1440,900,,,a,0.0667,10,153,0,2,2,26,4,1,0,1,0,0,0,0,1,0,circle,hexagon,,,,,,,,,,,,,,,,,,,,,,,,,,,,,,,,,,,,,,,,,,,,,,,,,,,,,,
298234,2022-12-02_11h07.14.459,vts_reward_expectancy_bt,2022.2.4,MacIntel,59.99880002,Chrome,1440,900,,,a,0.2491,10,163,0,2,3,27,7,1,0,0,1,0,0,1,0,0,hexagon,circle,,,,,,,,,,,,,,,,,,,,,,,,,,,,,,,,,,,,,,,,,,,,,,,,,,,,,,
298234,2022-12-02_11h07.14.459,vts_reward_expectancy_bt,2022.2.4,MacIntel,59.99880002,Chrome,1440,900,,,a,0.1339,1,164,0,2,4,28,3,1,0,1,0,0,1,0,0,0,circle,triangle,,,,,,,,,,,,,,,,,,,,,,,,,,,,,,,,,,,,,,,,,,,,,,,,,,,,,,
298234,2022-12-02_11h07.14.459,vts_reward_expectancy_bt,2022.2.4,MacIntel,59.99880002,Chrome,1440,900,,,a,0.0669,10,174,0,2,5,29,11,1,0,0,0,1,0,0,1,0,star,hexagon,,,,,,,,,,,,,,,,,,,,,,,,,,,,,,,,,,,,,,,,,,,,,,,,,,,,,,
298234,2022-12-02_11h07.14.459,vts_reward_expectancy_bt,2022.2.4,MacIntel,59.99880002,Chrome,1440,900,,,a,0.5069,1,175,0,2,6,30,1,1,1,0,0,0,0,0,1,0,triangle,hexagon,,,,,,,,,,,,,,,,,,,,,,,,,,,,,,,,,,,,,,,,,,,,,,,,,,,,,,
298234,2022-12-02_11h07.14.459,vts_reward_expectancy_bt,2022.2.4,MacIntel,59.99880002,Chrome,1440,900,,,a,0.0344,10,185,0,2,7,31,8,1,0,0,1,0,0,0,0,1,hexagon,star,,,,,,,,,,,,,,,,,,,,,,,,,,,,,,,,,,,,,,,,,,,,,,,,,,,,,,
298234,2022-12-02_11h07.14.459,vts_reward_expectancy_bt,2022.2.4,MacIntel,59.99880002,Chrome,1440,900,,,a,0.5514,10,195,0,2,8,32,2,1,1,0,0,0,0,0,0,1,triangle,star,,,,,,,,,,,,,,,,,,,,,,,,,,,,,,,,,,,,,,,,,,,,,,,,,,,,,,
298234,2022-12-02_11h07.14.459,vts_reward_expectancy_bt,2022.2.4,MacIntel,59.99880002,Chrome,1440,900,,,a,0.0192,10,205,0,2,9,33,5,1,0,1,0,0,0,0,0,1,circle,star,,,,,,,,,,,,,,,,,,,,,,,,,,,,,,,,,,,,,,,,,,,,,,,,,,,,,,
298234,2022-12-02_11h07.14.459,vts_reward_expectancy_bt,2022.2.4,MacIntel,59.99880002,Chrome,1440,900,,,a,0.2326,1,206,0,2,10,34,9,1,0,0,0,1,1,0,0,0,star,triangle,,,,,,,,,,,,,,,,,,,,,,,,,,,,,,,,,,,,,,,,,,,,,,,,,,,,,,
298234,2022-12-02_11h07.14.459,vts_reward_expectancy_bt,2022.2.4,MacIntel,59.99880002,Chrome,1440,900,,,a,0.137,1,207,0,2,11,35,6,1,0,0,1,0,1,0,0,0,hexagon,triangle,,,,,,,,,,,,,,,,,,,,,,,,,,,,,,,,,,,,,,,,,,,,,,,,,,,,,,
298234,2022-12-02_11h07.14.459,vts_reward_expectancy_bt,2022.2.4,MacIntel,59.99880002,Chrome,1440,900,,,l,0.613,1,208,1,0,0,0,8,1,0,0,1,0,0,0,0,1,hexagon,star,,,,,,,,,,,,,,,,,,,,,,,,,,,,,,,,,,,,,,,,,,,,,,,,,,,,,,
298234,2022-12-02_11h07.14.459,vts_reward_expectancy_bt,2022.2.4,MacIntel,59.99880002,Chrome,1440,900,,,l,0.203,1,209,1,0,1,1,7,1,0,0,1,0,0,1,0,0,hexagon,circle,,,,,,,,,,,,,,,,,,,,,,,,,,,,,,,,,,,,,,,,,,,,,,,,,,,,,,
298234,2022-12-02_11h07.14.459,vts_reward_expectancy_bt,2022.2.4,MacIntel,59.99880002,Chrome,1440,900,,,l,0.4478,10,219,1,0,2,2,1,1,1,0,0,0,0,0,1,0,triangle,hexagon,,,,,,,,,,,,,,,,,,,,,,,,,,,,,,,,,,,,,,,,,,,,,,,,,,,,,,
298234,2022-12-02_11h07.14.459,vts_reward_expectancy_bt,2022.2.4,MacIntel,59.99880002,Chrome,1440,900,,,l,0.467,1,220,1,0,3,3,6,1,0,0,1,0,1,0,0,0,hexagon,triangle,,,,,,,,,,,,,,,,,,,,,,,,,,,,,,,,,,,,,,,,,,,,,,,,,,,,,,
298234,2022-12-02_11h07.14.459,vts_reward_expectancy_bt,2022.2.4,MacIntel,59.99880002,Chrome,1440,900,,,l,1.8803,1,221,1,0,4,4,4,1,0,1,0,0,0,0,1,0,circle,hexagon,,,,,,,,,,,,,,,,,,,,,,,,,,,,,,,,,,,,,,,,,,,,,,,,,,,,,,
298234,2022-12-02_11h07.14.459,vts_reward_expectancy_bt,2022.2.4,MacIntel,59.99880002,Chrome,1440,900,,,l,0.8958,1,222,1,0,5,5,3,1,0,1,0,0,1,0,0,0,circle,triangle,,,,,,,,,,,,,,,,,,,,,,,,,,,,,,,,,,,,,,,,,,,,,,,,,,,,,,
298234,2022-12-02_11h07.14.459,vts_reward_expectancy_bt,2022.2.4,MacIntel,59.99880002,Chrome,1440,900,,,l,0.6465,1,223,1,0,6,6,11,1,0,0,0,1,0,0,1,0,star,hexagon,,,,,,,,,,,,,,,,,,,,,,,,,,,,,,,,,,,,,,,,,,,,,,,,,,,,,,
298234,2022-12-02_11h07.14.459,vts_reward_expectancy_bt,2022.2.4,MacIntel,59.99880002,Chrome,1440,900,,,l,0.3645,1,224,1,0,7,7,2,1,1,0,0,0,0,0,0,1,triangle,star,,,,,,,,,,,,,,,,,,,,,,,,,,,,,,,,,,,,,,,,,,,,,,,,,,,,,,
298234,2022-12-02_11h07.14.459,vts_reward_expectancy_bt,2022.2.4,MacIntel,59.99880002,Chrome,1440,900,,,l,0.6409,1,225,1,0,8,8,10,1,0,0,0,1,0,1,0,0,star ,circle,,,,,,,,,,,,,,,,,,,,,,,,,,,,,,,,,,,,,,,,,,,,,,,,,,,,,,
298234,2022-12-02_11h07.14.459,vts_reward_expectancy_bt,2022.2.4,MacIntel,59.99880002,Chrome,1440,900,,,l,0.5291,1,226,1,0,9,9,9,1,0,0,0,1,1,0,0,0,star,triangle,,,,,,,,,,,,,,,,,,,,,,,,,,,,,,,,,,,,,,,,,,,,,,,,,,,,,,
298234,2022-12-02_11h07.14.459,vts_reward_expectancy_bt,2022.2.4,MacIntel,59.99880002,Chrome,1440,900,,,l,0.5134,10,236,1,0,10,10,0,1,1,0,0,0,0,1,0,0,triangle,circle,,,,,,,,,,,,,,,,,,,,,,,,,,,,,,,,,,,,,,,,,,,,,,,,,,,,,,
298234,2022-12-02_11h07.14.459,vts_reward_expectancy_bt,2022.2.4,MacIntel,59.99880002,Chrome,1440,900,,,l,0.0832,1,237,1,0,11,11,5,1,0,1,0,0,0,0,0,1,circle,star,,,,,,,,,,,,,,,,,,,,,,,,,,,,,,,,,,,,,,,,,,,,,,,,,,,,,,
298234,2022-12-02_11h07.14.459,vts_reward_expectancy_bt,2022.2.4,MacIntel,59.99880002,Chrome,1440,900,,,l,0.5902,10,247,1,1,0,12,8,1,0,0,1,0,0,0,0,1,hexagon,star,,,,,,,,,,,,,,,,,,,,,,,,,,,,,,,,,,,,,,,,,,,,,,,,,,,,,,
298234,2022-12-02_11h07.14.459,vts_reward_expectancy_bt,2022.2.4,MacIntel,59.99880002,Chrome,1440,900,,,l,1.5132,10,257,1,1,1,13,4,1,0,1,0,0,0,0,1,0,circle,hexagon,,,,,,,,,,,,,,,,,,,,,,,,,,,,,,,,,,,,,,,,,,,,,,,,,,,,,,
298234,2022-12-02_11h07.14.459,vts_reward_expectancy_bt,2022.2.4,MacIntel,59.99880002,Chrome,1440,900,,,l,0.5837,10,267,1,1,2,14,11,1,0,0,0,1,0,0,1,0,star,hexagon,,,,,,,,,,,,,,,,,,,,,,,,,,,,,,,,,,,,,,,,,,,,,,,,,,,,,,
298234,2022-12-02_11h07.14.459,vts_reward_expectancy_bt,2022.2.4,MacIntel,59.99880002,Chrome,1440,900,,,a,0.0321,10,277,1,1,3,15,5,1,0,1,0,0,0,0,0,1,circle,star,,,,,,,,,,,,,,,,,,,,,,,,,,,,,,,,,,,,,,,,,,,,,,,,,,,,,,
298234,2022-12-02_11h07.14.459,vts_reward_expectancy_bt,2022.2.4,MacIntel,59.99880002,Chrome,1440,900,,,a,0.3815,10,287,1,1,4,16,10,1,0,0,0,1,0,1,0,0,star ,circle,,,,,,,,,,,,,,,,,,,,,,,,,,,,,,,,,,,,,,,,,,,,,,,,,,,,,,
298234,2022-12-02_11h07.14.459,vts_reward_expectancy_bt,2022.2.4,MacIntel,59.99880002,Chrome,1440,900,,,l,0.7334,10,297,1,1,5,17,0,1,1,0,0,0,0,1,0,0,triangle,circle,,,,,,,,,,,,,,,,,,,,,,,,,,,,,,,,,,,,,,,,,,,,,,,,,,,,,,
298234,2022-12-02_11h07.14.459,vts_reward_expectancy_bt,2022.2.4,MacIntel,59.99880002,Chrome,1440,900,,,a,0.2004,1,298,1,1,6,18,1,1,1,0,0,0,0,0,1,0,triangle,hexagon,,,,,,,,,,,,,,,,,,,,,,,,,,,,,,,,,,,,,,,,,,,,,,,,,,,,,,
298234,2022-12-02_11h07.14.459,vts_reward_expectancy_bt,2022.2.4,MacIntel,59.99880002,Chrome,1440,900,,,l,0.1377,10,308,1,1,7,19,6,1,0,0,1,0,1,0,0,0,hexagon,triangle,,,,,,,,,,,,,,,,,,,,,,,,,,,,,,,,,,,,,,,,,,,,,,,,,,,,,,
298234,2022-12-02_11h07.14.459,vts_reward_expectancy_bt,2022.2.4,MacIntel,59.99880002,Chrome,1440,900,,,a,0.1502,10,318,1,1,8,20,2,1,1,0,0,0,0,0,0,1,triangle,star,,,,,,,,,,,,,,,,,,,,,,,,,,,,,,,,,,,,,,,,,,,,,,,,,,,,,,
298234,2022-12-02_11h07.14.459,vts_reward_expectancy_bt,2022.2.4,MacIntel,59.99880002,Chrome,1440,900,,,l,0.3476,1,319,1,1,9,21,3,1,0,1,0,0,1,0,0,0,circle,triangle,,,,,,,,,,,,,,,,,,,,,,,,,,,,,,,,,,,,,,,,,,,,,,,,,,,,,,
298234,2022-12-02_11h07.14.459,vts_reward_expectancy_bt,2022.2.4,MacIntel,59.99880002,Chrome,1440,900,,,l,0.2886,1,320,1,1,10,22,9,1,0,0,0,1,1,0,0,0,star,triangle,,,,,,,,,,,,,,,,,,,,,,,,,,,,,,,,,,,,,,,,,,,,,,,,,,,,,,
298234,2022-12-02_11h07.14.459,vts_reward_expectancy_bt,2022.2.4,MacIntel,59.99880002,Chrome,1440,900,,,l,0.1479,1,321,1,1,11,23,7,1,0,0,1,0,0,1,0,0,hexagon,circle,,,,,,,,,,,,,,,,,,,,,,,,,,,,,,,,,,,,,,,,,,,,,,,,,,,,,,
298234,2022-12-02_11h07.14.459,vts_reward_expectancy_bt,2022.2.4,MacIntel,59.99880002,Chrome,1440,900,,,a,0.1838,10,331,1,2,0,24,5,1,0,1,0,0,0,0,0,1,circle,star,,,,,,,,,,,,,,,,,,,,,,,,,,,,,,,,,,,,,,,,,,,,,,,,,,,,,,
298234,2022-12-02_11h07.14.459,vts_reward_expectancy_bt,2022.2.4,MacIntel,59.99880002,Chrome,1440,900,,,a,0.1894,1,332,1,2,1,25,2,1,1,0,0,0,0,0,0,1,triangle,star,,,,,,,,,,,,,,,,,,,,,,,,,,,,,,,,,,,,,,,,,,,,,,,,,,,,,,
298234,2022-12-02_11h07.14.459,vts_reward_expectancy_bt,2022.2.4,MacIntel,59.99880002,Chrome,1440,900,,,a,0.0004,10,342,1,2,2,26,6,1,0,0,1,0,1,0,0,0,hexagon,triangle,,,,,,,,,,,,,,,,,,,,,,,,,,,,,,,,,,,,,,,,,,,,,,,,,,,,,,
298234,2022-12-02_11h07.14.459,vts_reward_expectancy_bt,2022.2.4,MacIntel,59.99880002,Chrome,1440,900,,,l,0.169,1,343,1,2,3,27,3,1,0,1,0,0,1,0,0,0,circle,triangle,,,,,,,,,,,,,,,,,,,,,,,,,,,,,,,,,,,,,,,,,,,,,,,,,,,,,,
298234,2022-12-02_11h07.14.459,vts_reward_expectancy_bt,2022.2.4,MacIntel,59.99880002,Chrome,1440,900,,,l,0.072,1,344,1,2,4,28,10,1,0,0,0,1,0,1,0,0,star ,circle,,,,,,,,,,,,,,,,,,,,,,,,,,,,,,,,,,,,,,,,,,,,,,,,,,,,,,
298234,2022-12-02_11h07.14.459,vts_reward_expectancy_bt,2022.2.4,MacIntel,59.99880002,Chrome,1440,900,,,a,0.1831,10,354,1,2,5,29,11,1,0,0,0,1,0,0,1,0,star,hexagon,,,,,,,,,,,,,,,,,,,,,,,,,,,,,,,,,,,,,,,,,,,,,,,,,,,,,,
298234,2022-12-02_11h07.14.459,vts_reward_expectancy_bt,2022.2.4,MacIntel,59.99880002,Chrome,1440,900,,,l,0.0635,1,355,1,2,6,30,7,1,0,0,1,0,0,1,0,0,hexagon,circle,,,,,,,,,,,,,,,,,,,,,,,,,,,,,,,,,,,,,,,,,,,,,,,,,,,,,,
298234,2022-12-02_11h07.14.459,vts_reward_expectancy_bt,2022.2.4,MacIntel,59.99880002,Chrome,1440,900,,,l,0.0005,1,356,1,2,7,31,9,1,0,0,0,1,1,0,0,0,star,triangle,,,,,,,,,,,,,,,,,,,,,,,,,,,,,,,,,,,,,,,,,,,,,,,,,,,,,,
298234,2022-12-02_11h07.14.459,vts_reward_expectancy_bt,2022.2.4,MacIntel,59.99880002,Chrome,1440,900,,,a,0.0824,1,357,1,2,8,32,0,1,1,0,0,0,0,1,0,0,triangle,circle,,,,,,,,,,,,,,,,,,,,,,,,,,,,,,,,,,,,,,,,,,,,,,,,,,,,,,
298234,2022-12-02_11h07.14.459,vts_reward_expectancy_bt,2022.2.4,MacIntel,59.99880002,Chrome,1440,900,,,l,0.6164,10,367,1,2,9,33,1,1,1,0,0,0,0,0,1,0,triangle,hexagon,,,,,,,,,,,,,,,,,,,,,,,,,,,,,,,,,,,,,,,,,,,,,,,,,,,,,,
298234,2022-12-02_11h07.14.459,vts_reward_expectancy_bt,2022.2.4,MacIntel,59.99880002,Chrome,1440,900,,,l,0.6983,10,377,1,2,10,34,4,1,0,1,0,0,0,0,1,0,circle,hexagon,,,,,,,,,,,,,,,,,,,,,,,,,,,,,,,,,,,,,,,,,,,,,,,,,,,,,,
298234,2022-12-02_11h07.14.459,vts_reward_expectancy_bt,2022.2.4,MacIntel,59.99880002,Chrome,1440,900,,,l,16.5753,1,378,1,2,11,35,8,1,0,0,1,0,0,0,0,1,hexagon,star,,,,,,,,,,,,,,,,,,,,,,,,,,,,,,,,,,,,,,,,,,,,,,,,,,,,,,
298234,2022-12-02_11h07.14.459,vts_reward_expectancy_bt,2022.2.4,MacIntel,59.99880002,Chrome,1440,900,,,l,0.6427,1,379,2,0,0,0,4,1,0,1,0,0,0,0,1,0,circle,hexagon,,,,,,,,,,,,,,,,,,,,,,,,,,,,,,,,,,,,,,,,,,,,,,,,,,,,,,
298234,2022-12-02_11h07.14.459,vts_reward_expectancy_bt,2022.2.4,MacIntel,59.99880002,Chrome,1440,900,,,a,0.0718,10,389,2,0,1,1,11,1,0,0,0,1,0,0,1,0,star,hexagon,,,,,,,,,,,,,,,,,,,,,,,,,,,,,,,,,,,,,,,,,,,,,,,,,,,,,,
298234,2022-12-02_11h07.14.459,vts_reward_expectancy_bt,2022.2.4,MacIntel,59.99880002,Chrome,1440,900,,,a,0.4515,1,390,2,0,2,2,8,1,0,0,1,0,0,0,0,1,hexagon,star,,,,,,,,,,,,,,,,,,,,,,,,,,,,,,,,,,,,,,,,,,,,,,,,,,,,,,
298234,2022-12-02_11h07.14.459,vts_reward_expectancy_bt,2022.2.4,MacIntel,59.99880002,Chrome,1440,900,,,a,0.5671,10,400,2,0,3,3,9,1,0,0,0,1,1,0,0,0,star,triangle,,,,,,,,,,,,,,,,,,,,,,,,,,,,,,,,,,,,,,,,,,,,,,,,,,,,,,
298234,2022-12-02_11h07.14.459,vts_reward_expectancy_bt,2022.2.4,MacIntel,59.99880002,Chrome,1440,900,,,a,2.1694,1,401,2,0,4,4,7,1,0,0,1,0,0,1,0,0,hexagon,circle,,,,,,,,,,,,,,,,,,,,,,,,,,,,,,,,,,,,,,,,,,,,,,,,,,,,,,
298234,2022-12-02_11h07.14.459,vts_reward_expectancy_bt,2022.2.4,MacIntel,59.99880002,Chrome,1440,900,,,a,0.4974,1,402,2,0,5,5,5,1,0,1,0,0,0,0,0,1,circle,star,,,,,,,,,,,,,,,,,,,,,,,,,,,,,,,,,,,,,,,,,,,,,,,,,,,,,,
298234,2022-12-02_11h07.14.459,vts_reward_expectancy_bt,2022.2.4,MacIntel,59.99880002,Chrome,1440,900,,,a,0.4454,10,412,2,0,6,6,1,1,1,0,0,0,0,0,1,0,triangle,hexagon,,,,,,,,,,,,,,,,,,,,,,,,,,,,,,,,,,,,,,,,,,,,,,,,,,,,,,
298234,2022-12-02_11h07.14.459,vts_reward_expectancy_bt,2022.2.4,MacIntel,59.99880002,Chrome,1440,900,,,l,0.4467,10,422,2,0,7,7,0,1,1,0,0,0,0,1,0,0,triangle,circle,,,,,,,,,,,,,,,,,,,,,,,,,,,,,,,,,,,,,,,,,,,,,,,,,,,,,,
298234,2022-12-02_11h07.14.459,vts_reward_expectancy_bt,2022.2.4,MacIntel,59.99880002,Chrome,1440,900,,,l,0.633,10,432,2,0,8,8,10,1,0,0,0,1,0,1,0,0,star ,circle,,,,,,,,,,,,,,,,,,,,,,,,,,,,,,,,,,,,,,,,,,,,,,,,,,,,,,
298234,2022-12-02_11h07.14.459,vts_reward_expectancy_bt,2022.2.4,MacIntel,59.99880002,Chrome,1440,900,,,l,2.3104,1,433,2,0,9,9,2,1,1,0,0,0,0,0,0,1,triangle,star,,,,,,,,,,,,,,,,,,,,,,,,,,,,,,,,,,,,,,,,,,,,,,,,,,,,,,
298234,2022-12-02_11h07.14.459,vts_reward_expectancy_bt,2022.2.4,MacIntel,59.99880002,Chrome,1440,900,,,a,0.2446,10,443,2,0,10,10,3,1,0,1,0,0,1,0,0,0,circle,triangle,,,,,,,,,,,,,,,,,,,,,,,,,,,,,,,,,,,,,,,,,,,,,,,,,,,,,,
298234,2022-12-02_11h07.14.459,vts_reward_expectancy_bt,2022.2.4,MacIntel,59.99880002,Chrome,1440,900,,,a,9.1709,1,444,2,0,11,11,6,1,0,0,1,0,1,0,0,0,hexagon,triangle,,,,,,,,,,,,,,,,,,,,,,,,,,,,,,,,,,,,,,,,,,,,,,,,,,,,,,
298234,2022-12-02_11h07.14.459,vts_reward_expectancy_bt,2022.2.4,MacIntel,59.99880002,Chrome,1440,900,,,l,0.4119,1,445,2,1,0,12,9,1,0,0,0,1,1,0,0,0,star,triangle,,,,,,,,,,,,,,,,,,,,,,,,,,,,,,,,,,,,,,,,,,,,,,,,,,,,,,
298234,2022-12-02_11h07.14.459,vts_reward_expectancy_bt,2022.2.4,MacIntel,59.99880002,Chrome,1440,900,,,l,0.8977,1,446,2,1,1,13,10,1,0,0,0,1,0,1,0,0,star ,circle,,,,,,,,,,,,,,,,,,,,,,,,,,,,,,,,,,,,,,,,,,,,,,,,,,,,,,
298234,2022-12-02_11h07.14.459,vts_reward_expectancy_bt,2022.2.4,MacIntel,59.99880002,Chrome,1440,900,,,a,0.4343,10,456,2,1,2,14,1,1,1,0,0,0,0,0,1,0,triangle,hexagon,,,,,,,,,,,,,,,,,,,,,,,,,,,,,,,,,,,,,,,,,,,,,,,,,,,,,,
298234,2022-12-02_11h07.14.459,vts_reward_expectancy_bt,2022.2.4,MacIntel,59.99880002,Chrome,1440,900,,,l,0.7175,10,466,2,1,3,15,5,1,0,1,0,0,0,0,0,1,circle,star,,,,,,,,,,,,,,,,,,,,,,,,,,,,,,,,,,,,,,,,,,,,,,,,,,,,,,
298234,2022-12-02_11h07.14.459,vts_reward_expectancy_bt,2022.2.4,MacIntel,59.99880002,Chrome,1440,900,,,l,2.0027,10,476,2,1,4,16,4,1,0,1,0,0,0,0,1,0,circle,hexagon,,,,,,,,,,,,,,,,,,,,,,,,,,,,,,,,,,,,,,,,,,,,,,,,,,,,,,
298234,2022-12-02_11h07.14.459,vts_reward_expectancy_bt,2022.2.4,MacIntel,59.99880002,Chrome,1440,900,,,a,2.0015,1,477,2,1,5,17,6,1,0,0,1,0,1,0,0,0,hexagon,triangle,,,,,,,,,,,,,,,,,,,,,,,,,,,,,,,,,,,,,,,,,,,,,,,,,,,,,,
298234,2022-12-02_11h07.14.459,vts_reward_expectancy_bt,2022.2.4,MacIntel,59.99880002,Chrome,1440,900,,,a,0.5124,1,478,2,1,6,18,2,1,1,0,0,0,0,0,0,1,triangle,star,,,,,,,,,,,,,,,,,,,,,,,,,,,,,,,,,,,,,,,,,,,,,,,,,,,,,,
298234,2022-12-02_11h07.14.459,vts_reward_expectancy_bt,2022.2.4,MacIntel,59.99880002,Chrome,1440,900,,,a,0.1721,10,488,2,1,7,19,3,1,0,1,0,0,1,0,0,0,circle,triangle,,,,,,,,,,,,,,,,,,,,,,,,,,,,,,,,,,,,,,,,,,,,,,,,,,,,,,
298234,2022-12-02_11h07.14.459,vts_reward_expectancy_bt,2022.2.4,MacIntel,59.99880002,Chrome,1440,900,,,a,2.2843,1,489,2,1,8,20,11,1,0,0,0,1,0,0,1,0,star,hexagon,,,,,,,,,,,,,,,,,,,,,,,,,,,,,,,,,,,,,,,,,,,,,,,,,,,,,,
298234,2022-12-02_11h07.14.459,vts_reward_expectancy_bt,2022.2.4,MacIntel,59.99880002,Chrome,1440,900,,,a,0.6316,10,499,2,1,9,21,7,1,0,0,1,0,0,1,0,0,hexagon,circle,,,,,,,,,,,,,,,,,,,,,,,,,,,,,,,,,,,,,,,,,,,,,,,,,,,,,,
298234,2022-12-02_11h07.14.459,vts_reward_expectancy_bt,2022.2.4,MacIntel,59.99880002,Chrome,1440,900,,,a,2.0995,1,500,2,1,10,22,0,1,1,0,0,0,0,1,0,0,triangle,circle,,,,,,,,,,,,,,,,,,,,,,,,,,,,,,,,,,,,,,,,,,,,,,,,,,,,,,
298234,2022-12-02_11h07.14.459,vts_reward_expectancy_bt,2022.2.4,MacIntel,59.99880002,Chrome,1440,900,,,a,0.3632,10,510,2,1,11,23,8,1,0,0,1,0,0,0,0,1,hexagon,star,,,,,,,,,,,,,,,,,,,,,,,,,,,,,,,,,,,,,,,,,,,,,,,,,,,,,,
298234,2022-12-02_11h07.14.459,vts_reward_expectancy_bt,2022.2.4,MacIntel,59.99880002,Chrome,1440,900,,,l,0.6667,1,511,2,2,0,24,1,1,1,0,0,0,0,0,1,0,triangle,hexagon,,,,,,,,,,,,,,,,,,,,,,,,,,,,,,,,,,,,,,,,,,,,,,,,,,,,,,
298234,2022-12-02_11h07.14.459,vts_reward_expectancy_bt,2022.2.4,MacIntel,59.99880002,Chrome,1440,900,,,l,0.4665,10,521,2,2,1,25,2,1,1,0,0,0,0,0,0,1,triangle,star,,,,,,,,,,,,,,,,,,,,,,,,,,,,,,,,,,,,,,,,,,,,,,,,,,,,,,
298234,2022-12-02_11h07.14.459,vts_reward_expectancy_bt,2022.2.4,MacIntel,59.99880002,Chrome,1440,900,,,l,0.1329,1,522,2,2,2,26,11,1,0,0,0,1,0,0,1,0,star,hexagon,,,,,,,,,,,,,,,,,,,,,,,,,,,,,,,,,,,,,,,,,,,,,,,,,,,,,,
298234,2022-12-02_11h07.14.459,vts_reward_expectancy_bt,2022.2.4,MacIntel,59.99880002,Chrome,1440,900,,,l,0.0849,10,532,2,2,3,27,4,1,0,1,0,0,0,0,1,0,circle,hexagon,,,,,,,,,,,,,,,,,,,,,,,,,,,,,,,,,,,,,,,,,,,,,,,,,,,,,,
298234,2022-12-02_11h07.14.459,vts_reward_expectancy_bt,2022.2.4,MacIntel,59.99880002,Chrome,1440,900,,,l,0.3069,10,542,2,2,4,28,5,1,0,1,0,0,0,0,0,1,circle,star,,,,,,,,,,,,,,,,,,,,,,,,,,,,,,,,,,,,,,,,,,,,,,,,,,,,,,
298234,2022-12-02_11h07.14.459,vts_reward_expectancy_bt,2022.2.4,MacIntel,59.99880002,Chrome,1440,900,,,l,0.3031,10,552,2,2,5,29,7,1,0,0,1,0,0,1,0,0,hexagon,circle,,,,,,,,,,,,,,,,,,,,,,,,,,,,,,,,,,,,,,,,,,,,,,,,,,,,,,
298234,2022-12-02_11h07.14.459,vts_reward_expectancy_bt,2022.2.4,MacIntel,59.99880002,Chrome,1440,900,,,l,0.4274,1,553,2,2,6,30,9,1,0,0,0,1,1,0,0,0,star,triangle,,,,,,,,,,,,,,,,,,,,,,,,,,,,,,,,,,,,,,,,,,,,,,,,,,,,,,
298234,2022-12-02_11h07.14.459,vts_reward_expectancy_bt,2022.2.4,MacIntel,59.99880002,Chrome,1440,900,,,a,0.2858,10,563,2,2,7,31,3,1,0,1,0,0,1,0,0,0,circle,triangle,,,,,,,,,,,,,,,,,,,,,,,,,,,,,,,,,,,,,,,,,,,,,,,,,,,,,,
298234,2022-12-02_11h07.14.459,vts_reward_expectancy_bt,2022.2.4,MacIntel,59.99880002,Chrome,1440,900,,,l,0.0223,10,573,2,2,8,32,0,1,1,0,0,0,0,1,0,0,triangle,circle,,,,,,,,,,,,,,,,,,,,,,,,,,,,,,,,,,,,,,,,,,,,,,,,,,,,,,
298234,2022-12-02_11h07.14.459,vts_reward_expectancy_bt,2022.2.4,MacIntel,59.99880002,Chrome,1440,900,,,a,0.1558,1,574,2,2,9,33,8,1,0,0,1,0,0,0,0,1,hexagon,star,,,,,,,,,,,,,,,,,,,,,,,,,,,,,,,,,,,,,,,,,,,,,,,,,,,,,,
298234,2022-12-02_11h07.14.459,vts_reward_expectancy_bt,2022.2.4,MacIntel,59.99880002,Chrome,1440,900,,,l,0.022,10,584,2,2,10,34,10,1,0,0,0,1,0,1,0,0,star ,circle,,,,,,,,,,,,,,,,,,,,,,,,,,,,,,,,,,,,,,,,,,,,,,,,,,,,,,
298234,2022-12-02_11h07.14.459,vts_reward_expectancy_bt,2022.2.4,MacIntel,59.99880002,Chrome,1440,900,,,a,0.0005,10,594,2,2,11,35,6,1,0,0,1,0,1,0,0,0,hexagon,triangle,,,,,,,,,,,,,,,,,,,,,,,,,,,,,,,,,,,,,,,,,,,,,,,,,,,,,,
298234,2022-12-02_11h07.14.459,vts_reward_expectancy_bt,2022.2.4,MacIntel,59.99880002,Chrome,1440,900,,,,,,,,,,,,,,,,,,,,,,,146,U,star,1,0,d,0.7491,0,0,0,0,0,1,,,,,,,,,,,,,,,,,,,,,,,,,,,,,,,,,,,,,,,,,
298234,2022-12-02_11h07.14.459,vts_reward_expectancy_bt,2022.2.4,MacIntel,59.99880002,Chrome,1440,900,,,,,,,,,,,,,,,,,,,,,,,167,S,circle,1,0,f,0.4324,0,1,0,1,0,1,,,,,,,,,,,,,,,,,,,,,,,,,,,,,,,,,,,,,,,,,
298234,2022-12-02_11h07.14.459,vts_reward_expectancy_bt,2022.2.4,MacIntel,59.99880002,Chrome,1440,900,,,,,,,,,,,,,,,,,,,,,,,132,F,hexagon,1,0,d,0.4669,0,2,0,2,0,1,,,,,,,,,,,,,,,,,,,,,,,,,,,,,,,,,,,,,,,,,
298234,2022-12-02_11h07.14.459,vts_reward_expectancy_bt,2022.2.4,MacIntel,59.99880002,Chrome,1440,900,,,,,,,,,,,,,,,,,,,,,,,139,D,triangle,1,0,d,0.5479,0,3,0,3,0,1,,,,,,,,,,,,,,,,,,,,,,,,,,,,,,,,,,,,,,,,,
298234,2022-12-02_11h07.14.459,vts_reward_expectancy_bt,2022.2.4,MacIntel,59.99880002,Chrome,1440,900,,,,,,,,,,,,,,,,,,,,,,,125,W,star,1,0,d,0.8012,0,4,0,4,0,1,,,,,,,,,,,,,,,,,,,,,,,,,,,,,,,,,,,,,,,,,
298234,2022-12-02_11h07.14.459,vts_reward_expectancy_bt,2022.2.4,MacIntel,59.99880002,Chrome,1440,900,,,,,,,,,,,,,,,,,,,,,,,160,B,circle,1,0,f,0.7036,0,5,0,5,0,1,,,,,,,,,,,,,,,,,,,,,,,,,,,,,,,,,,,,,,,,,
298234,2022-12-02_11h07.14.459,vts_reward_expectancy_bt,2022.2.4,MacIntel,59.99880002,Chrome,1440,900,,,,,,,,,,,,,,,,,,,,,,,181,H,hexagon,1,0,f,0.699,0,6,0,6,0,1,,,,,,,,,,,,,,,,,,,,,,,,,,,,,,,,,,,,,,,,,
298234,2022-12-02_11h07.14.459,vts_reward_expectancy_bt,2022.2.4,MacIntel,59.99880002,Chrome,1440,900,,,,,,,,,,,,,,,,,,,,,,,174,Y,triangle,1,0,f,0.5688,0,7,0,7,0,1,,,,,,,,,,,,,,,,,,,,,,,,,,,,,,,,,,,,,,,,,
298234,2022-12-02_11h07.14.459,vts_reward_expectancy_bt,2022.2.4,MacIntel,59.99880002,Chrome,1440,900,,,,,,,,,,,,,,,,,,,,,,,146,U,triangle,1,0,d,0.5077,0,8,0,8,0,1,,,,,,,,,,,,,,,,,,,,,,,,,,,,,,,,,,,,,,,,,
298234,2022-12-02_11h07.14.459,vts_reward_expectancy_bt,2022.2.4,MacIntel,59.99880002,Chrome,1440,900,,,,,,,,,,,,,,,,,,,,,,,167,S,star,1,0,f,0.6815,0,9,0,9,0,1,,,,,,,,,,,,,,,,,,,,,,,,,,,,,,,,,,,,,,,,,
298234,2022-12-02_11h07.14.459,vts_reward_expectancy_bt,2022.2.4,MacIntel,59.99880002,Chrome,1440,900,,,,,,,,,,,,,,,,,,,,,,,132,W,star,1,0,,,1,,,,,,k,0.7217,0,0,0,0,1,,,,,,,,,,,,,,,,,,,,,,,,,,,,,,,,,,
298234,2022-12-02_11h07.14.459,vts_reward_expectancy_bt,2022.2.4,MacIntel,59.99880002,Chrome,1440,900,,,,,,,,,,,,,,,,,,,,,,,160,S,hexagon,1,0,,,1,,,,,,k,0.8631,1,0,1,0,1,,,,,,,,,,,,,,,,,,,,,,,,,,,,,,,,,,
298234,2022-12-02_11h07.14.459,vts_reward_expectancy_bt,2022.2.4,MacIntel,59.99880002,Chrome,1440,900,,,,,,,,,,,,,,,,,,,,,,,181,B,circle,1,0,,,1,,,,,,j,0.5322,2,0,2,0,1,,,,,,,,,,,,,,,,,,,,,,,,,,,,,,,,,,
298234,2022-12-02_11h07.14.459,vts_reward_expectancy_bt,2022.2.4,MacIntel,59.99880002,Chrome,1440,900,,,,,,,,,,,,,,,,,,,,,,,125,Y,triangle,1,0,,,1,,,,,,k,0.5517,3,0,3,0,1,,,,,,,,,,,,,,,,,,,,,,,,,,,,,,,,,,
298234,2022-12-02_11h07.14.459,vts_reward_expectancy_bt,2022.2.4,MacIntel,59.99880002,Chrome,1440,900,,,,,,,,,,,,,,,,,,,,,,,167,H,star,1,0,,,1,,,,,,j,0.6647,4,0,4,0,1,,,,,,,,,,,,,,,,,,,,,,,,,,,,,,,,,,
298234,2022-12-02_11h07.14.459,vts_reward_expectancy_bt,2022.2.4,MacIntel,59.99880002,Chrome,1440,900,,,,,,,,,,,,,,,,,,,,,,,146,U,hexagon,1,0,,,1,,,,,,k,0.4522,5,0,5,0,1,,,,,,,,,,,,,,,,,,,,,,,,,,,,,,,,,,
298234,2022-12-02_11h07.14.459,vts_reward_expectancy_bt,2022.2.4,MacIntel,59.99880002,Chrome,1440,900,,,,,,,,,,,,,,,,,,,,,,,174,F,circle,1,0,,,1,,,,,,j,0.583,6,0,6,0,1,,,,,,,,,,,,,,,,,,,,,,,,,,,,,,,,,,
298234,2022-12-02_11h07.14.459,vts_reward_expectancy_bt,2022.2.4,MacIntel,59.99880002,Chrome,1440,900,,,,,,,,,,,,,,,,,,,,,,,139,D,triangle,1,0,,,1,,,,,,j,0.4634,7,0,7,0,1,,,,,,,,,,,,,,,,,,,,,,,,,,,,,,,,,,
298234,2022-12-02_11h07.14.459,vts_reward_expectancy_bt,2022.2.4,MacIntel,59.99880002,Chrome,1440,900,,,,,,,,,,,,,,,,,,,,,,,132,W,triangle,1,0,,,1,,,,,,k,0.4145,8,0,8,0,1,,,,,,,,,,,,,,,,,,,,,,,,,,,,,,,,,,
298234,2022-12-02_11h07.14.459,vts_reward_expectancy_bt,2022.2.4,MacIntel,59.99880002,Chrome,1440,900,,,,,,,,,,,,,,,,,,,,,,,160,S,hexagon,0,0,,,1,,,,,,j,0.5393,9,0,9,0,1,,,,,,,,,,,,,,,,,,,,,,,,,,,,,,,,,,
298234,2022-12-02_11h07.14.459,vts_reward_expectancy_bt,2022.2.4,MacIntel,59.99880002,Chrome,1440,900,,,,,0,594,,,,,,,,,,,,,,,,,125,D,star,-1,1,,,2,,,,,,,,,,,,,-1,no_choice,NA,,vtsPrac,0,0,0,0,1,,,,,,,,,,,,,,,,,,,,,,,,
298234,2022-12-02_11h07.14.459,vts_reward_expectancy_bt,2022.2.4,MacIntel,59.99880002,Chrome,1440,900,,,,,0,594,,,,,,,,,,,,,,,,,146,S,hexagon,1,0,,,2,,,,,,,,,,,,,switch,number,numSwt,d,vtsPrac,1,0,1,0,1,1.0722,,,,,,,,,,,,,,,,,,,,,,,
298234,2022-12-02_11h07.14.459,vts_reward_expectancy_bt,2022.2.4,MacIntel,59.99880002,Chrome,1440,900,,,,,0,594,,,,,,,,,,,,,,,,,160,F,star,1,0,,,2,,,,,,,,,,,,,switch,letter,lettSwt,j,vtsPrac,2,0,2,0,1,0.8648,,,,,,,,,,,,,,,,,,,,,,,
298234,2022-12-02_11h07.14.459,vts_reward_expectancy_bt,2022.2.4,MacIntel,59.99880002,Chrome,1440,900,,,,,0,594,,,,,,,,,,,,,,,,,139,B,hexagon,1,0,,,2,,,,,,,,,,,,,switch,number,numSwt,d,vtsPrac,3,0,3,0,1,0.7308,,,,,,,,,,,,,,,,,,,,,,,
298234,2022-12-02_11h07.14.459,vts_reward_expectancy_bt,2022.2.4,MacIntel,59.99880002,Chrome,1440,900,,,,,0,594,,,,,,,,,,,,,,,,,125,D,star,1,0,,,2,,,,,,,,,,,,,switch,letter,lettSwt,j,vtsPrac,4,0,4,0,1,0.717,,,,,,,,,,,,,,,,,,,,,,,
298234,2022-12-02_11h07.14.459,vts_reward_expectancy_bt,2022.2.4,MacIntel,59.99880002,Chrome,1440,900,,,,,0,594,,,,,,,,,,,,,,,,,146,S,circle,1,0,,,2,,,,,,,,,,,,,switch,number,numSwt,d,vtsPrac,5,0,5,0,1,0.7999,,,,,,,,,,,,,,,,,,,,,,,
298234,2022-12-02_11h07.14.459,vts_reward_expectancy_bt,2022.2.4,MacIntel,59.99880002,Chrome,1440,900,,,,,0,594,,,,,,,,,,,,,,,,,160,F,circle,1,0,,,2,,,,,,,,,,,,,switch,letter,lettSwt,j,vtsPrac,6,0,6,0,1,0.8372,,,,,,,,,,,,,,,,,,,,,,,
298234,2022-12-02_11h07.14.459,vts_reward_expectancy_bt,2022.2.4,MacIntel,59.99880002,Chrome,1440,900,,,,,0,594,,,,,,,,,,,,,,,,,139,B,triangle,1,0,,,2,,,,,,,,,,,,,switch,number,numSwt,d,vtsPrac,7,0,7,0,1,0.5503,,,,,,,,,,,,,,,,,,,,,,,
298234,2022-12-02_11h07.14.459,vts_reward_expectancy_bt,2022.2.4,MacIntel,59.99880002,Chrome,1440,900,,,,,0,594,,,,,,,,,,,,,,,,,132,S,star,1,0,,,2,,,,,,,,,,,,,switch,letter,lettSwt,k,vtsPrac,8,0,8,0,1,0.7194,,,,,,,,,,,,,,,,,,,,,,,
298234,2022-12-02_11h07.14.459,vts_reward_expectancy_bt,2022.2.4,MacIntel,59.99880002,Chrome,1440,900,,,,,0,594,,,,,,,,,,,,,,,,,139,D,hexagon,1,0,,,2,,,,,,,,,,,,,switch,number,numSwt,d,vtsPrac,9,0,9,0,1,0.598,,,,,,,,,,,,,,,,,,,,,,,
298234,2022-12-02_11h07.14.459,vts_reward_expectancy_bt,2022.2.4,MacIntel,59.99880002,Chrome,1440,900,,,,,0,594,,,,,,,,,,,,,,,,,167,H,hexagon,1,0,,,2,,,,,,,,,,,,,switch,letter,lettSwt,j,vtsPrac,10,0,10,0,1,0.6718,,,,,,,,,,,,,,,,,,,,,,,
298234,2022-12-02_11h07.14.459,vts_reward_expectancy_bt,2022.2.4,MacIntel,59.99880002,Chrome,1440,900,,,,,0,594,,,,,,,,,,,,,,,,,146,Y,star,1,0,,,2,,,,,,,,,,,,,switch,number,numSwt,d,vtsPrac,11,0,11,0,1,0.5826,,,,,,,,,,,,,,,,,,,,,,,
298234,2022-12-02_11h07.14.459,vts_reward_expectancy_bt,2022.2.4,MacIntel,59.99880002,Chrome,1440,900,,,,,0,594,,,,,,,,,,,,,,,,,167,B,triangle,1,0,,,2,,,,,,,,,,,,,switch,letter,lettSwt,j,vtsPrac,12,0,12,0,1,1.0338,,,,,,,,,,,,,,,,,,,,,,,
298234,2022-12-02_11h07.14.459,vts_reward_expectancy_bt,2022.2.4,MacIntel,59.99880002,Chrome,1440,900,,,,,0,594,,,,,,,,,,,,,,,,,139,F,star,1,0,,,2,,,,,,,,,,,,,switch,number,numSwt,d,vtsPrac,13,0,13,0,1,0.5831,,,,,,,,,,,,,,,,,,,,,,,
298234,2022-12-02_11h07.14.459,vts_reward_expectancy_bt,2022.2.4,MacIntel,59.99880002,Chrome,1440,900,,,,,0,594,,,,,,,,,,,,,,,,,125,U,circle,1,0,,,2,,,,,,,,,,,,,repeat,number,numRpt,d,vtsPrac,14,0,14,0,1,0.6312,,,,,,,,,,,,,,,,,,,,,,,
298234,2022-12-02_11h07.14.459,vts_reward_expectancy_bt,2022.2.4,MacIntel,59.99880002,Chrome,1440,900,,,,,0,594,,,,,,,,,,,,,,,,,146,Y,star,1,0,,,2,,,,,,,,,,,,,switch,letter,lettSwt,k,vtsPrac,15,0,15,0,1,0.447,,,,,,,,,,,,,,,,,,,,,,,
298234,2022-12-02_11h07.14.459,vts_reward_expectancy_bt,2022.2.4,MacIntel,59.99880002,Chrome,1440,900,,,,,0,594,,,,,,,,,,,,,,,,,181,D,triangle,1,0,,,2,,,,,,,,,,,,,switch,number,numSwt,f,vtsPrac,16,0,16,0,1,0.6061,,,,,,,,,,,,,,,,,,,,,,,
298234,2022-12-02_11h07.14.459,vts_reward_expectancy_bt,2022.2.4,MacIntel,59.99880002,Chrome,1440,900,,,,,0,594,,,,,,,,,,,,,,,,,139,B,star,1,0,,,2,,,,,,,,,,,,,repeat,number,numRpt,d,vtsPrac,17,0,17,0,1,1.0158,,,,,,,,,,,,,,,,,,,,,,,
298234,2022-12-02_11h07.14.459,vts_reward_expectancy_bt,2022.2.4,MacIntel,59.99880002,Chrome,1440,900,,,,,0,594,,,,,,,,,,,,,,,,,167,W,hexagon,1,0,,,2,,,,,,,,,,,,,switch,letter,lettSwt,k,vtsPrac,18,0,18,0,1,0.6136,,,,,,,,,,,,,,,,,,,,,,,
298234,2022-12-02_11h07.14.459,vts_reward_expectancy_bt,2022.2.4,MacIntel,59.99880002,Chrome,1440,900,,,,,0,594,,,,,,,,,,,,,,,,,125,S,star,1,0,,,2,,,,,,,,,,,,,switch,number,numSwt,d,vtsPrac,19,0,19,0,1,0.6821,,,,,,,,,,,,,,,,,,,,,,,
298234,2022-12-02_11h07.14.459,vts_reward_expectancy_bt,2022.2.4,MacIntel,59.99880002,Chrome,1440,900,,,,,0,594,,,,,,,,,,,,,,,,,146,U,circle,1,0,,,2,,,,,,,,,,,,,switch,letter,lettSwt,k,vtsPrac,20,0,20,0,1,0.732,,,,,,,,,,,,,,,,,,,,,,,
298234,2022-12-02_11h07.14.459,vts_reward_expectancy_bt,2022.2.4,MacIntel,59.99880002,Chrome,1440,900,,,,,0,594,,,,,,,,,,,,,,,,,174,F,star,1,0,,,2,,,,,,,,,,,,,switch,number,numSwt,f,vtsPrac,21,0,21,0,1,0.7314,,,,,,,,,,,,,,,,,,,,,,,
298234,2022-12-02_11h07.14.459,vts_reward_expectancy_bt,2022.2.4,MacIntel,59.99880002,Chrome,1440,900,,,,,0,594,,,,,,,,,,,,,,,,,160,Y,triangle,1,0,,,2,,,,,,,,,,,,,switch,letter,lettSwt,k,vtsPrac,22,0,22,0,1,0.5151,,,,,,,,,,,,,,,,,,,,,,,
298234,2022-12-02_11h07.14.459,vts_reward_expectancy_bt,2022.2.4,MacIntel,59.99880002,Chrome,1440,900,,,,,0,594,,,,,,,,,,,,,,,,,139,H,circle,1,0,,,2,,,,,,,,,,,,,switch,number,numSwt,d,vtsPrac,23,0,23,0,1,0.6107,,,,,,,,,,,,,,,,,,,,,,,
298234,2022-12-02_11h07.14.459,vts_reward_expectancy_bt,2022.2.4,MacIntel,59.99880002,Chrome,1440,900,,,,,0,594,,,,,,,,,,,,,,,,,167,F,star,1,0,,,2,,,,,,,,,,,,,switch,letter,lettSwt,j,vtsPrac,24,0,24,0,1,0.9158,,,,,,,,,,,,,,,,,,,,,,,
298234,2022-12-02_11h07.14.459,vts_reward_expectancy_bt,2022.2.4,MacIntel,59.99880002,Chrome,1440,900,,,,,0,594,,,,,,,,,,,,,,,,,181,Y,circle,1,0,,,2,,,,,,,,,,,,,switch,number,numSwt,f,vtsPrac,25,0,25,0,1,0.6299,,,,,,,,,,,,,,,,,,,,,,,
298234,2022-12-02_11h07.14.459,vts_reward_expectancy_bt,2022.2.4,MacIntel,59.99880002,Chrome,1440,900,,,,,0,594,,,,,,,,,,,,,,,,,139,H,triangle,1,0,,,2,,,,,,,,,,,,,switch,letter,lettSwt,j,vtsPrac,26,0,26,0,1,0.8161,,,,,,,,,,,,,,,,,,,,,,,
298234,2022-12-02_11h07.14.459,vts_reward_expectancy_bt,2022.2.4,MacIntel,59.99880002,Chrome,1440,900,,,,,0,594,,,,,,,,,,,,,,,,,174,W,hexagon,1,0,,,2,,,,,,,,,,,,,switch,number,numSwt,f,vtsPrac,27,0,27,0,1,1.1467,,,,,,,,,,,,,,,,,,,,,,,
298234,2022-12-02_11h07.14.459,vts_reward_expectancy_bt,2022.2.4,MacIntel,59.99880002,Chrome,1440,900,,,,,0,594,,,,,,,,,,,,,,,,,139,H,star,0,0,,,2,,,,,,,,,,,,,switch,letter,NA,k,vtsPrac,28,0,28,0,1,0.5832,,,,,,,,,,,,,,,,,,,,,,,
298234,2022-12-02_11h07.14.459,vts_reward_expectancy_bt,2022.2.4,MacIntel,59.99880002,Chrome,1440,900,,,,,0,594,,,,,,,,,,,,,,,,,132,S,triangle,1,1,,,2,,,,,,,,,,,,,switch,number,numSwt,d,vtsPrac,29,0,29,0,1,1.0822,,,,,,,,,,,,,,,,,,,,,,,
298234,2022-12-02_11h07.14.459,vts_reward_expectancy_bt,2022.2.4,MacIntel,59.99880002,Chrome,1440,900,,,,,0,594,,,,,,,,,,,,,,,,,174,Y,star,1,0,,,2,,,,,,,,,,,,,switch,letter,lettSwt,k,vtsPrac,30,0,30,0,1,0.9026,,,,,,,,,,,,,,,,,,,,,,,
298234,2022-12-02_11h07.14.459,vts_reward_expectancy_bt,2022.2.4,MacIntel,59.99880002,Chrome,1440,900,,,,,0,594,,,,,,,,,,,,,,,,,160,W,triangle,1,0,,,2,,,,,,,,,,,,,switch,number,numSwt,f,vtsPrac,31,0,31,0,1,0.849,,,,,,,,,,,,,,,,,,,,,,,
298234,2022-12-02_11h07.14.459,vts_reward_expectancy_bt,2022.2.4,MacIntel,59.99880002,Chrome,1440,900,,,,,0,594,,,,,,,,,,,,,,,,,125,S,triangle,1,0,,,3,,,,,,,,,,,,,switch,letter,lettSwt,k,vtsPrac,0,0,0,0,1,0.9369,,,,,,,,,,,,,,,,,,,,,,,
298234,2022-12-02_11h07.14.459,vts_reward_expectancy_bt,2022.2.4,MacIntel,59.99880002,Chrome,1440,900,,,,,0,594,,,,,,,,,,,,,,,,,181,D,hexagon,1,0,,,3,,,,,,,,,,,,,repeat,letter,lettRpt,j,vtsPrac,1,0,1,0,1,0.766,,,,,,,,,,,,,,,,,,,,,,,
298234,2022-12-02_11h07.14.459,vts_reward_expectancy_bt,2022.2.4,MacIntel,59.99880002,Chrome,1440,900,,,,,0,594,,,,,,,,,,,,,,,,,167,B,triangle,1,0,,,3,,,,,,,,,,,,,repeat,letter,lettRpt,j,vtsPrac,2,0,2,0,1,0.8153,,,,,,,,,,,,,,,,,,,,,,,
298234,2022-12-02_11h07.14.459,vts_reward_expectancy_bt,2022.2.4,MacIntel,59.99880002,Chrome,1440,900,,,,,0,594,,,,,,,,,,,,,,,,,174,H,hexagon,1,0,,,3,,,,,,,,,,,,,switch,number,numSwt,f,vtsPrac,3,0,3,0,1,0.599,,,,,,,,,,,,,,,,,,,,,,,
298234,2022-12-02_11h07.14.459,vts_reward_expectancy_bt,2022.2.4,MacIntel,59.99880002,Chrome,1440,900,,,,,0,594,,,,,,,,,,,,,,,,,125,S,hexagon,1,0,,,3,,,,,,,,,,,,,switch,letter,lettSwt,k,vtsPrac,4,0,4,0,1,0.654,,,,,,,,,,,,,,,,,,,,,,,
298234,2022-12-02_11h07.14.459,vts_reward_expectancy_bt,2022.2.4,MacIntel,59.99880002,Chrome,1440,900,,,,,0,594,,,,,,,,,,,,,,,,,181,D,circle,1,0,,,3,,,,,,,,,,,,,switch,number,numSwt,f,vtsPrac,5,0,5,0,1,0.7157,,,,,,,,,,,,,,,,,,,,,,,
298234,2022-12-02_11h07.14.459,vts_reward_expectancy_bt,2022.2.4,MacIntel,59.99880002,Chrome,1440,900,,,,,0,594,,,,,,,,,,,,,,,,,167,B,star,1,0,,,3,,,,,,,,,,,,,repeat,number,numRpt,f,vtsPrac,6,0,6,0,1,0.1976,,,,,,,,,,,,,,,,,,,,,,,
298234,2022-12-02_11h07.14.459,vts_reward_expectancy_bt,2022.2.4,MacIntel,59.99880002,Chrome,1440,900,,,,,0,594,,,,,,,,,,,,,,,,,174,H,triangle,0,0,,,3,,,,,,,,,,,,,switch,letter,NA,k,vtsPrac,7,0,7,0,1,0.5793,,,,,,,,,,,,,,,,,,,,,,,
298234,2022-12-02_11h07.14.459,vts_reward_expectancy_bt,2022.2.4,MacIntel,59.99880002,Chrome,1440,900,,,,,0,594,,,,,,,,,,,,,,,,,146,D,hexagon,1,1,,,3,,,,,,,,,,,,,repeat,letter,lettRpt,j,vtsPrac,8,0,8,0,1,0.7812,,,,,,,,,,,,,,,,,,,,,,,
298234,2022-12-02_11h07.14.459,vts_reward_expectancy_bt,2022.2.4,MacIntel,59.99880002,Chrome,1440,900,,,,,0,594,,,,,,,,,,,,,,,,,132,H,star,1,0,,,3,,,,,,,,,,,,,repeat,letter,lettRpt,j,vtsPrac,9,0,9,0,1,0.7001,,,,,,,,,,,,,,,,,,,,,,,
298234,2022-12-02_11h07.14.459,vts_reward_expectancy_bt,2022.2.4,MacIntel,59.99880002,Chrome,1440,900,,,,,0,594,,,,,,,,,,,,,,,,,125,W,star,0,0,,,3,,,,,,,,,,,,,switch,number,NA,f,vtsPrac,10,0,10,0,1,1.1711,,,,,,,,,,,,,,,,,,,,,,,
298234,2022-12-02_11h07.14.459,vts_reward_expectancy_bt,2022.2.4,MacIntel,59.99880002,Chrome,1440,900,,,,,0,594,,,,,,,,,,,,,,,,,139,F,hexagon,1,1,,,3,,,,,,,,,,,,,repeat,number,numRpt,d,vtsPrac,11,0,11,0,1,0.8986,,,,,,,,,,,,,,,,,,,,,,,
298234,2022-12-02_11h07.14.459,vts_reward_expectancy_bt,2022.2.4,MacIntel,59.99880002,Chrome,1440,900,,,,,0,594,,,,,,,,,,,,,,,,,146,U,triangle,1,0,,,3,,,,,,,,,,,,,switch,letter,lettSwt,k,vtsPrac,12,0,12,0,1,0.6484,,,,,,,,,,,,,,,,,,,,,,,
298234,2022-12-02_11h07.14.459,vts_reward_expectancy_bt,2022.2.4,MacIntel,59.99880002,Chrome,1440,900,,,,,0,594,,,,,,,,,,,,,,,,,160,S,hexagon,1,0,,,3,,,,,,,,,,,,,repeat,letter,lettRpt,k,vtsPrac,13,0,13,0,1,0.9509,,,,,,,,,,,,,,,,,,,,,,,
298234,2022-12-02_11h07.14.459,vts_reward_expectancy_bt,2022.2.4,MacIntel,59.99880002,Chrome,1440,900,,,,,0,594,,,,,,,,,,,,,,,,,181,Y,star,1,0,,,3,,,,,,,,,,,,,repeat,letter,lettRpt,k,vtsPrac,14,0,14,0,1,0.7365,,,,,,,,,,,,,,,,,,,,,,,
298234,2022-12-02_11h07.14.459,vts_reward_expectancy_bt,2022.2.4,MacIntel,59.99880002,Chrome,1440,900,,,,,0,594,,,,,,,,,,,,,,,,,125,W,circle,1,0,,,3,,,,,,,,,,,,,switch,number,numSwt,d,vtsPrac,15,0,15,0,1,0.7792,,,,,,,,,,,,,,,,,,,,,,,
298234,2022-12-02_11h07.14.459,vts_reward_expectancy_bt,2022.2.4,MacIntel,59.99880002,Chrome,1440,900,,,,,0,594,,,,,,,,,,,,,,,,,181,Y,hexagon,1,0,,,3,,,,,,,,,,,,,repeat,number,numRpt,f,vtsPrac,16,0,16,0,1,0.8973,,,,,,,,,,,,,,,,,,,,,,,
298234,2022-12-02_11h07.14.459,vts_reward_expectancy_bt,2022.2.4,MacIntel,59.99880002,Chrome,1440,900,,,,,0,594,,,,,,,,,,,,,,,,,125,S,triangle,1,0,,,3,,,,,,,,,,,,,repeat,number,numRpt,d,vtsPrac,17,0,17,0,1,0.8974,,,,,,,,,,,,,,,,,,,,,,,
298234,2022-12-02_11h07.14.459,vts_reward_expectancy_bt,2022.2.4,MacIntel,59.99880002,Chrome,1440,900,,,,,0,594,,,,,,,,,,,,,,,,,167,F,star,1,0,,,3,,,,,,,,,,,,,repeat,number,numRpt,f,vtsPrac,18,0,18,0,1,1.4955,,,,,,,,,,,,,,,,,,,,,,,
298234,2022-12-02_11h07.14.459,vts_reward_expectancy_bt,2022.2.4,MacIntel,59.99880002,Chrome,1440,900,,,,,0,594,,,,,,,,,,,,,,,,,146,W,triangle,1,0,,,3,,,,,,,,,,,,,repeat,number,numRpt,d,vtsPrac,19,0,19,0,1,1.7319,,,,,,,,,,,,,,,,,,,,,,,
298234,2022-12-02_11h07.14.459,vts_reward_expectancy_bt,2022.2.4,MacIntel,59.99880002,Chrome,1440,900,,,,,0,594,,,,,,,,,,,,,,,,,132,H,triangle,1,0,,,3,,,,,,,,,,,,,repeat,number,numRpt,d,vtsPrac,20,0,20,0,1,1.2298,,,,,,,,,,,,,,,,,,,,,,,
298234,2022-12-02_11h07.14.459,vts_reward_expectancy_bt,2022.2.4,MacIntel,59.99880002,Chrome,1440,900,,,,,0,594,,,,,,,,,,,,,,,,,181,F,star,1,0,,,3,,,,,,,,,,,,,repeat,number,numRpt,f,vtsPrac,21,0,21,0,1,0.6076,,,,,,,,,,,,,,,,,,,,,,,
298234,2022-12-02_11h07.14.459,vts_reward_expectancy_bt,2022.2.4,MacIntel,59.99880002,Chrome,1440,900,,,,,0,594,,,,,,,,,,,,,,,,,167,U,star,1,0,,,3,,,,,,,,,,,,,switch,letter,lettSwt,k,vtsPrac,22,0,22,0,1,1.1971,,,,,,,,,,,,,,,,,,,,,,,
298234,2022-12-02_11h07.14.459,vts_reward_expectancy_bt,2022.2.4,MacIntel,59.99880002,Chrome,1440,900,,,,,0,594,,,,,,,,,,,,,,,,,125,B,circle,1,0,,,3,,,,,,,,,,,,,repeat,letter,lettRpt,j,vtsPrac,23,0,23,0,1,0.5529,,,,,,,,,,,,,,,,,,,,,,,
298234,2022-12-02_11h07.14.459,vts_reward_expectancy_bt,2022.2.4,MacIntel,59.99880002,Chrome,1440,900,,,,,0,594,,,,,,,,,,,,,,,,,181,B,hexagon,1,0,,,3,,,,,,,,,,,,,repeat,letter,lettRpt,j,vtsPrac,24,0,24,0,1,0.7132,,,,,,,,,,,,,,,,,,,,,,,
298234,2022-12-02_11h07.14.459,vts_reward_expectancy_bt,2022.2.4,MacIntel,59.99880002,Chrome,1440,900,,,,,0,594,,,,,,,,,,,,,,,,,167,W,circle,1,0,,,3,,,,,,,,,,,,,switch,number,numSwt,f,vtsPrac,25,0,25,0,1,0.8159,,,,,,,,,,,,,,,,,,,,,,,
298234,2022-12-02_11h07.14.459,vts_reward_expectancy_bt,2022.2.4,MacIntel,59.99880002,Chrome,1440,900,,,,,0,594,,,,,,,,,,,,,,,,,174,S,circle,1,0,,,3,,,,,,,,,,,,,repeat,number,numRpt,f,vtsPrac,26,0,26,0,1,0.8442,,,,,,,,,,,,,,,,,,,,,,,
298234,2022-12-02_11h07.14.459,vts_reward_expectancy_bt,2022.2.4,MacIntel,59.99880002,Chrome,1440,900,,,,,0,594,,,,,,,,,,,,,,,,,139,U,star,1,0,,,3,,,,,,,,,,,,,repeat,number,numRpt,d,vtsPrac,27,0,27,0,1,0.7499,,,,,,,,,,,,,,,,,,,,,,,
298234,2022-12-02_11h07.14.459,vts_reward_expectancy_bt,2022.2.4,MacIntel,59.99880002,Chrome,1440,900,,,,,0,594,,,,,,,,,,,,,,,,,181,H,hexagon,1,0,,,3,,,,,,,,,,,,,repeat,number,numRpt,f,vtsPrac,28,0,28,0,1,0.7387,,,,,,,,,,,,,,,,,,,,,,,
298234,2022-12-02_11h07.14.459,vts_reward_expectancy_bt,2022.2.4,MacIntel,59.99880002,Chrome,1440,900,,,,,0,594,,,,,,,,,,,,,,,,,146,F,circle,1,0,,,3,,,,,,,,,,,,,repeat,number,numRpt,d,vtsPrac,29,0,29,0,1,0.8145,,,,,,,,,,,,,,,,,,,,,,,
298234,2022-12-02_11h07.14.459,vts_reward_expectancy_bt,2022.2.4,MacIntel,59.99880002,Chrome,1440,900,,,,,0,594,,,,,,,,,,,,,,,,,132,Y,triangle,1,0,,,3,,,,,,,,,,,,,switch,letter,lettSwt,k,vtsPrac,30,0,30,0,1,0.6692,,,,,,,,,,,,,,,,,,,,,,,
298234,2022-12-02_11h07.14.459,vts_reward_expectancy_bt,2022.2.4,MacIntel,59.99880002,Chrome,1440,900,,,,,0,594,,,,,,,,,,,,,,,,,125,S,circle,1,0,,,3,,,,,,,,,,,,,repeat,letter,lettRpt,k,vtsPrac,31,0,31,0,1,0.6976,,,,,,,,,,,,,,,,,,,,,,,
298234,2022-12-02_11h07.14.459,vts_reward_expectancy_bt,2022.2.4,MacIntel,59.99880002,Chrome,1440,900,,,,,,,,,,,,,,,,,,,,,,,,,,,,,,,,,,,,,,,,,,,,,,,,,,,,,,,,,,,,,,,,,,,,,,,,,,,,
298234,2022-12-02_11h07.14.459,vts_reward_expectancy_bt,2022.2.4,MacIntel,59.99880002,Chrome,1440,900,,,,,,,,,,,,,,,,,,,,,,,,,,,,,,,,,,,,,,,,,,,,,,,,,,,,,,,,,,,,,,,,,,,,,,,,,,,,
298234,2022-12-02_11h07.14.459,vts_reward_expectancy_bt,2022.2.4,MacIntel,59.99880002,Chrome,1440,900,,,,,0,594,,,,,,,,,,,,,,,,,139,W,star,1,0,,,,,,,,,,,,,,,,repeat,letter,lettRpt,k,noRew,,,,,,1.0444,0,0,0,0,0,1,,,,,,,,,,,,,,,,,
298234,2022-12-02_11h07.14.459,vts_reward_expectancy_bt,2022.2.4,MacIntel,59.99880002,Chrome,1440,900,,,,,0,594,,,,,,,,,,,,,,,,,132,Y,circle,1,0,,,,,,,,,,,,,,,,repeat,letter,lettRpt,k,noRew,,,,,,0.4861,0,1,0,1,0,1,,,,,,,,,,,,,,,,,
298234,2022-12-02_11h07.14.459,vts_reward_expectancy_bt,2022.2.4,MacIntel,59.99880002,Chrome,1440,900,,,,,0,594,,,,,,,,,,,,,,,,,125,F,star,1,0,,,,,,,,,,,,,,,,switch,number,numSwt,d,noRew,,,,,,0.933,0,2,0,2,0,1,,,,,,,,,,,,,,,,,
298234,2022-12-02_11h07.14.459,vts_reward_expectancy_bt,2022.2.4,MacIntel,59.99880002,Chrome,1440,900,,,,,0,594,,,,,,,,,,,,,,,,,181,U,circle,1,0,,,,,,,,,,,,,,,,switch,letter,lettSwt,k,noRew,,,,,,0.9326,0,3,0,3,0,1,,,,,,,,,,,,,,,,,
298234,2022-12-02_11h07.14.459,vts_reward_expectancy_bt,2022.2.4,MacIntel,59.99880002,Chrome,1440,900,,,,,0,594,,,,,,,,,,,,,,,,,139,W,hexagon,1,0,,,,,,,,,,,,,,,,repeat,letter,lettRpt,k,noRew,,,,,,1.8326,0,4,0,4,0,1,,,,,,,,,,,,,,,,,
298234,2022-12-02_11h07.14.459,vts_reward_expectancy_bt,2022.2.4,MacIntel,59.99880002,Chrome,1440,900,,,,,0,594,,,,,,,,,,,,,,,,,132,Y,star,1,0,,,,,,,,,,,,,,,,switch,number,numSwt,d,noRew,,,,,,1.1152,0,5,0,5,0,1,,,,,,,,,,,,,,,,,
298234,2022-12-02_11h07.14.459,vts_reward_expectancy_bt,2022.2.4,MacIntel,59.99880002,Chrome,1440,900,,,,,0,594,,,,,,,,,,,,,,,,,125,F,circle,1,0,,,,,,,,,,,,,,,,switch,letter,lettSwt,j,noRew,,,,,,0.6347,0,6,0,6,0,1,,,,,,,,,,,,,,,,,
298234,2022-12-02_11h07.14.459,vts_reward_expectancy_bt,2022.2.4,MacIntel,59.99880002,Chrome,1440,900,,,,,0,594,,,,,,,,,,,,,,,,,181,U,star,1,0,,,,,,,,,,,,,,,,repeat,letter,lettRpt,k,noRew,,,,,,0.5145,0,7,0,7,0,1,,,,,,,,,,,,,,,,,
298234,2022-12-02_11h07.14.459,vts_reward_expectancy_bt,2022.2.4,MacIntel,59.99880002,Chrome,1440,900,,,,,0,594,,,,,,,,,,,,,,,,,146,Y,star,1,0,,,,,,,,,,,,,,,,switch,number,numSwt,d,noRew,,,,,,0.8328,0,8,0,8,0,1,,,,,,,,,,,,,,,,,
298234,2022-12-02_11h07.14.459,vts_reward_expectancy_bt,2022.2.4,MacIntel,59.99880002,Chrome,1440,900,,,,,0,594,,,,,,,,,,,,,,,,,125,B,circle,1,0,,,,,,,,,,,,,,,,repeat,number,numRpt,d,noRew,,,,,,0.7736,0,9,0,9,0,1,,,,,,,,,,,,,,,,,
298234,2022-12-02_11h07.14.459,vts_reward_expectancy_bt,2022.2.4,MacIntel,59.99880002,Chrome,1440,900,,,,,0,594,,,,,,,,,,,,,,,,,132,D,circle,1,0,,,,,,,,,,,,,,,,switch,letter,lettSwt,j,noRew,,,,,,0.7257,0,10,0,10,0,1,,,,,,,,,,,,,,,,,
298234,2022-12-02_11h07.14.459,vts_reward_expectancy_bt,2022.2.4,MacIntel,59.99880002,Chrome,1440,900,,,,,0,594,,,,,,,,,,,,,,,,,139,S,hexagon,1,0,,,,,,,,,,,,,,,,switch,number,numSwt,d,noRew,,,,,,0.4196,0,11,0,11,0,1,,,,,,,,,,,,,,,,,
298234,2022-12-02_11h07.14.459,vts_reward_expectancy_bt,2022.2.4,MacIntel,59.99880002,Chrome,1440,900,,,,,0,594,,,,,,,,,,,,,,,,,146,B,circle,1,0,,,,,,,,,,,,,,,,switch,letter,lettSwt,j,noRew,,,,,,0.7176,0,12,0,12,0,1,,,,,,,,,,,,,,,,,
298234,2022-12-02_11h07.14.459,vts_reward_expectancy_bt,2022.2.4,MacIntel,59.99880002,Chrome,1440,900,,,,,0,594,,,,,,,,,,,,,,,,,174,D,star,0,0,,,,,,,,,,,,,,,,repeat,letter,NA,k,noRew,,,,,,0.5504,0,13,0,13,0,1,,,,,,,,,,,,,,,,,
298234,2022-12-02_11h07.14.459,vts_reward_expectancy_bt,2022.2.4,MacIntel,59.99880002,Chrome,1440,900,,,,,0,594,,,,,,,,,,,,,,,,,181,H,hexagon,1,1,,,,,,,,,,,,,,,,switch,number,numSwt,f,noRew,,,,,,0.9068,0,14,0,14,0,1,,,,,,,,,,,,,,,,,
298234,2022-12-02_11h07.14.459,vts_reward_expectancy_bt,2022.2.4,MacIntel,59.99880002,Chrome,1440,900,,,,,0,594,,,,,,,,,,,,,,,,,160,W,star,1,0,,,,,,,,,,,,,,,,repeat,number,numRpt,f,noRew,,,,,,0.9008,0,15,0,15,0,1,,,,,,,,,,,,,,,,,
298234,2022-12-02_11h07.14.459,vts_reward_expectancy_bt,2022.2.4,MacIntel,59.99880002,Chrome,1440,900,,,,,0,594,,,,,,,,,,,,,,,,,160,Y,triangle,1,0,,,,,,,,,,,,,,,,switch,letter,lettSwt,k,noRew,,,,,,1.1338,0,16,0,16,0,1,,,,,,,,,,,,,,,,,
298234,2022-12-02_11h07.14.459,vts_reward_expectancy_bt,2022.2.4,MacIntel,59.99880002,Chrome,1440,900,,,,,0,594,,,,,,,,,,,,,,,,,146,F,hexagon,1,0,,,,,,,,,,,,,,,,repeat,letter,lettRpt,j,noRew,,,,,,0.898,0,17,0,17,0,1,,,,,,,,,,,,,,,,,
298234,2022-12-02_11h07.14.459,vts_reward_expectancy_bt,2022.2.4,MacIntel,59.99880002,Chrome,1440,900,,,,,0,594,,,,,,,,,,,,,,,,,139,W,triangle,0,0,,,,,,,,,,,,,,,,repeat,letter,NA,j,noRew,,,,,,1.4166,0,18,0,18,0,1,,,,,,,,,,,,,,,,,
298234,2022-12-02_11h07.14.459,vts_reward_expectancy_bt,2022.2.4,MacIntel,59.99880002,Chrome,1440,900,,,,,0,594,,,,,,,,,,,,,,,,,132,D,star,1,1,,,,,,,,,,,,,,,,switch,number,numSwt,d,noRew,,,,,,1.4825,0,19,0,19,0,1,,,,,,,,,,,,,,,,,
298234,2022-12-02_11h07.14.459,vts_reward_expectancy_bt,2022.2.4,MacIntel,59.99880002,Chrome,1440,900,,,,,0,594,,,,,,,,,,,,,,,,,174,S,hexagon,1,0,,,,,,,,,,,,,,,,repeat,number,numRpt,f,noRew,,,,,,0.7668,0,20,0,20,0,1,,,,,,,,,,,,,,,,,
298234,2022-12-02_11h07.14.459,vts_reward_expectancy_bt,2022.2.4,MacIntel,59.99880002,Chrome,1440,900,,,,,0,594,,,,,,,,,,,,,,,,,125,B,triangle,1,0,,,,,,,,,,,,,,,,switch,letter,lettSwt,j,noRew,,,,,,0.9663,0,21,0,21,0,1,,,,,,,,,,,,,,,,,
298234,2022-12-02_11h07.14.459,vts_reward_expectancy_bt,2022.2.4,MacIntel,59.99880002,Chrome,1440,900,,,,,0,594,,,,,,,,,,,,,,,,,160,U,hexagon,1,0,,,,,,,,,,,,,,,,switch,number,numSwt,f,noRew,,,,,,0.9676,0,22,0,22,0,1,,,,,,,,,,,,,,,,,
298234,2022-12-02_11h07.14.459,vts_reward_expectancy_bt,2022.2.4,MacIntel,59.99880002,Chrome,1440,900,,,,,0,594,,,,,,,,,,,,,,,,,181,Y,triangle,1,0,,,,,,,,,,,,,,,,switch,letter,lettSwt,k,noRew,,,,,,0.7637,0,23,0,23,0,1,,,,,,,,,,,,,,,,,
298234,2022-12-02_11h07.14.459,vts_reward_expectancy_bt,2022.2.4,MacIntel,59.99880002,Chrome,1440,900,,,,,0,594,,,,,,,,,,,,,,,,,139,S,circle,1,0,,,,,,,,,,,,,,,,repeat,letter,lettRpt,k,noRew,,,,,,0.8481,0,24,0,24,0,1,,,,,,,,,,,,,,,,,
298234,2022-12-02_11h07.14.459,vts_reward_expectancy_bt,2022.2.4,MacIntel,59.99880002,Chrome,1440,900,,,,,0,594,,,,,,,,,,,,,,,,,132,B,star,1,0,,,,,,,,,,,,,,,,repeat,letter,lettRpt,j,noRew,,,,,,0.708,0,25,0,25,0,1,,,,,,,,,,,,,,,,,
298234,2022-12-02_11h07.14.459,vts_reward_expectancy_bt,2022.2.4,MacIntel,59.99880002,Chrome,1440,900,,,,,0,594,,,,,,,,,,,,,,,,,125,F,circle,1,0,,,,,,,,,,,,,,,,switch,number,numSwt,d,noRew,,,,,,0.9189,0,26,0,26,0,1,,,,,,,,,,,,,,,,,
298234,2022-12-02_11h07.14.459,vts_reward_expectancy_bt,2022.2.4,MacIntel,59.99880002,Chrome,1440,900,,,,,0,594,,,,,,,,,,,,,,,,,167,H,triangle,1,0,,,,,,,,,,,,,,,,switch,letter,lettSwt,j,noRew,,,,,,0.8314,0,27,0,27,0,1,,,,,,,,,,,,,,,,,
298234,2022-12-02_11h07.14.459,vts_reward_expectancy_bt,2022.2.4,MacIntel,59.99880002,Chrome,1440,900,,,,,0,594,,,,,,,,,,,,,,,,,139,F,hexagon,-1,0,,,,,,,,,,,,,,,,switch,no_choice,NA,,noRew,,,,,,,0,28,0,28,0,1,,,,,,,,,,,,,,,,,
298234,2022-12-02_11h07.14.459,vts_reward_expectancy_bt,2022.2.4,MacIntel,59.99880002,Chrome,1440,900,,,,,0,594,,,,,,,,,,,,,,,,,174,D,star,0,0,,,,,,,,,,,,,,,,switch,letter,NA,k,noRew,,,,,,1.4998,0,29,0,29,0,1,,,,,,,,,,,,,,,,,
298234,2022-12-02_11h07.14.459,vts_reward_expectancy_bt,2022.2.4,MacIntel,59.99880002,Chrome,1440,900,,,,,0,594,,,,,,,,,,,,,,,,,125,H,hexagon,1,1,,,,,,,,,,,,,,,,switch,number,numSwt,d,noRew,,,,,,1.4334,0,30,0,30,0,1,,,,,,,,,,,,,,,,,
298234,2022-12-02_11h07.14.459,vts_reward_expectancy_bt,2022.2.4,MacIntel,59.99880002,Chrome,1440,900,,,,,0,594,,,,,,,,,,,,,,,,,167,W,circle,1,0,,,,,,,,,,,,,,,,repeat,number,numRpt,f,noRew,,,,,,1.3991,0,31,0,31,0,1,,,,,,,,,,,,,,,,,
298234,2022-12-02_11h07.14.459,vts_reward_expectancy_bt,2022.2.4,MacIntel,59.99880002,Chrome,1440,900,,,,,0,594,,,,,,,,,,,,,,,,,174,S,circle,1,0,,,,,,,,,,,,,,,,repeat,number,numRpt,f,noRew,,,,,,2.1182,0,32,0,32,0,1,,,,,,,,,,,,,,,,,
298234,2022-12-02_11h07.14.459,vts_reward_expectancy_bt,2022.2.4,MacIntel,59.99880002,Chrome,1440,900,,,,,0,594,,,,,,,,,,,,,,,,,125,F,triangle,0,0,,,,,,,,,,,,,,,,repeat,number,NA,f,noRew,,,,,,1.9694,0,33,0,33,0,1,,,,,,,,,,,,,,,,,
298234,2022-12-02_11h07.14.459,vts_reward_expectancy_bt,2022.2.4,MacIntel,59.99880002,Chrome,1440,900,,,,,0,594,,,,,,,,,,,,,,,,,132,H,star,1,1,,,,,,,,,,,,,,,,repeat,number,numRpt,d,noRew,,,,,,1.5345,0,34,0,34,0,1,,,,,,,,,,,,,,,,,
298234,2022-12-02_11h07.14.459,vts_reward_expectancy_bt,2022.2.4,MacIntel,59.99880002,Chrome,1440,900,,,,,0,594,,,,,,,,,,,,,,,,,167,B,hexagon,1,0,,,,,,,,,,,,,,,,switch,letter,lettSwt,j,noRew,,,,,,1.2622,0,35,0,35,0,1,,,,,,,,,,,,,,,,,
298234,2022-12-02_11h07.14.459,vts_reward_expectancy_bt,2022.2.4,MacIntel,59.99880002,Chrome,1440,900,,,,,0,594,,,,,,,,,,,,,,,,,167,D,triangle,1,0,,,,,,,,,,,,,,,,repeat,letter,lettRpt,j,noRew,,,,,,1.2487,0,36,0,36,0,1,,,,,,,,,,,,,,,,,
298234,2022-12-02_11h07.14.459,vts_reward_expectancy_bt,2022.2.4,MacIntel,59.99880002,Chrome,1440,900,,,,,0,594,,,,,,,,,,,,,,,,,132,W,hexagon,1,0,,,,,,,,,,,,,,,,switch,number,numSwt,d,noRew,,,,,,1.8319,0,37,0,37,0,1,,,,,,,,,,,,,,,,,
298234,2022-12-02_11h07.14.459,vts_reward_expectancy_bt,2022.2.4,MacIntel,59.99880002,Chrome,1440,900,,,,,0,594,,,,,,,,,,,,,,,,,174,S,star,0,0,,,,,,,,,,,,,,,,switch,letter,NA,j,noRew,,,,,,1.1165,0,38,0,38,0,1,,,,,,,,,,,,,,,,,
298234,2022-12-02_11h07.14.459,vts_reward_expectancy_bt,2022.2.4,MacIntel,59.99880002,Chrome,1440,900,,,,,0,594,,,,,,,,,,,,,,,,,146,Y,triangle,1,1,,,,,,,,,,,,,,,,repeat,letter,lettRpt,k,noRew,,,,,,1.0858,0,39,0,39,0,1,,,,,,,,,,,,,,,,,
298234,2022-12-02_11h07.14.459,vts_reward_expectancy_bt,2022.2.4,MacIntel,59.99880002,Chrome,1440,900,,,,,0,594,,,,,,,,,,,,,,,,,160,U,hexagon,1,0,,,,,,,,,,,,,,,,repeat,letter,lettRpt,k,noRew,,,,,,0.6699,0,40,0,40,0,1,,,,,,,,,,,,,,,,,
298234,2022-12-02_11h07.14.459,vts_reward_expectancy_bt,2022.2.4,MacIntel,59.99880002,Chrome,1440,900,,,,,0,594,,,,,,,,,,,,,,,,,174,Y,circle,1,0,,,,,,,,,,,,,,,,repeat,letter,lettRpt,k,noRew,,,,,,0.8384,0,41,0,41,0,1,,,,,,,,,,,,,,,,,
298234,2022-12-02_11h07.14.459,vts_reward_expectancy_bt,2022.2.4,MacIntel,59.99880002,Chrome,1440,900,,,,,0,594,,,,,,,,,,,,,,,,,146,B,triangle,1,0,,,,,,,,,,,,,,,,switch,number,numSwt,d,noRew,,,,,,0.741,0,42,0,42,0,1,,,,,,,,,,,,,,,,,
298234,2022-12-02_11h07.14.459,vts_reward_expectancy_bt,2022.2.4,MacIntel,59.99880002,Chrome,1440,900,,,,,0,594,,,,,,,,,,,,,,,,,125,H,circle,1,0,,,,,,,,,,,,,,,,repeat,number,numRpt,d,noRew,,,,,,0.5659,0,43,0,43,0,1,,,,,,,,,,,,,,,,,
298234,2022-12-02_11h07.14.459,vts_reward_expectancy_bt,2022.2.4,MacIntel,59.99880002,Chrome,1440,900,,,,,0,594,,,,,,,,,,,,,,,,,125,W,triangle,1,0,,,,,,,,,,,,,,,,repeat,number,numRpt,d,noRew,,,,,,1.2008,0,44,0,44,0,1,,,,,,,,,,,,,,,,,
298234,2022-12-02_11h07.14.459,vts_reward_expectancy_bt,2022.2.4,MacIntel,59.99880002,Chrome,1440,900,,,,,0,594,,,,,,,,,,,,,,,,,160,H,star,1,0,,,,,,,,,,,,,,,,switch,letter,lettSwt,j,noRew,,,,,,1.7542,0,45,0,45,0,1,,,,,,,,,,,,,,,,,
298234,2022-12-02_11h07.14.459,vts_reward_expectancy_bt,2022.2.4,MacIntel,59.99880002,Chrome,1440,900,,,,,0,594,,,,,,,,,,,,,,,,,132,Y,star,1,0,,,,,,,,,,,,,,,,repeat,letter,lettRpt,k,noRew,,,,,,0.799,0,46,0,46,0,1,,,,,,,,,,,,,,,,,
298234,2022-12-02_11h07.14.459,vts_reward_expectancy_bt,2022.2.4,MacIntel,59.99880002,Chrome,1440,900,,,,,0,594,,,,,,,,,,,,,,,,,146,F,circle,1,0,,,,,,,,,,,,,,,,repeat,letter,lettRpt,j,noRew,,,,,,1.234,0,47,0,47,0,1,,,,,,,,,,,,,,,,,
298234,2022-12-02_11h07.14.459,vts_reward_expectancy_bt,2022.2.4,MacIntel,59.99880002,Chrome,1440,900,,,,,0,594,,,,,,,,,,,,,,,,,181,S,triangle,1,0,,,,,,,,,,,,,,,,switch,number,numSwt,f,noRew,,,,,,0.9016,0,48,0,48,0,1,,,,,,,,,,,,,,,,,
298234,2022-12-02_11h07.14.459,vts_reward_expectancy_bt,2022.2.4,MacIntel,59.99880002,Chrome,1440,900,,,,,0,594,,,,,,,,,,,,,,,,,146,B,hexagon,1,0,,,,,,,,,,,,,,,,repeat,number,numRpt,d,noRew,,,,,,1.1651,0,49,0,49,0,1,,,,,,,,,,,,,,,,,
298234,2022-12-02_11h07.14.459,vts_reward_expectancy_bt,2022.2.4,MacIntel,59.99880002,Chrome,1440,900,,,,,0,594,,,,,,,,,,,,,,,,,139,Y,hexagon,1,0,,,,,,,,,,,,,,,,switch,letter,lettSwt,k,noRew,,,,,,0.4998,0,50,0,50,0,1,,,,,,,,,,,,,,,,,
298234,2022-12-02_11h07.14.459,vts_reward_expectancy_bt,2022.2.4,MacIntel,59.99880002,Chrome,1440,900,,,,,0,594,,,,,,,,,,,,,,,,,160,U,star,1,0,,,,,,,,,,,,,,,,repeat,letter,lettRpt,k,noRew,,,,,,0.7661,0,51,0,51,0,1,,,,,,,,,,,,,,,,,
298234,2022-12-02_11h07.14.459,vts_reward_expectancy_bt,2022.2.4,MacIntel,59.99880002,Chrome,1440,900,,,,,0,594,,,,,,,,,,,,,,,,,139,Y,hexagon,1,0,,,,,,,,,,,,,,,,repeat,letter,lettRpt,k,noRew,,,,,,0.7498,0,52,0,52,0,1,,,,,,,,,,,,,,,,,
298234,2022-12-02_11h07.14.459,vts_reward_expectancy_bt,2022.2.4,MacIntel,59.99880002,Chrome,1440,900,,,,,0,594,,,,,,,,,,,,,,,,,181,W,circle,1,0,,,,,,,,,,,,,,,,switch,number,numSwt,f,noRew,,,,,,0.8076,0,53,0,53,0,1,,,,,,,,,,,,,,,,,
298234,2022-12-02_11h07.14.459,vts_reward_expectancy_bt,2022.2.4,MacIntel,59.99880002,Chrome,1440,900,,,,,0,594,,,,,,,,,,,,,,,,,174,S,triangle,1,0,,,,,,,,,,,,,,,,switch,letter,lettSwt,k,noRew,,,,,,1.7304,0,54,0,54,0,1,,,,,,,,,,,,,,,,,
298234,2022-12-02_11h07.14.459,vts_reward_expectancy_bt,2022.2.4,MacIntel,59.99880002,Chrome,1440,900,,,,,0,594,,,,,,,,,,,,,,,,,146,F,hexagon,1,0,,,,,,,,,,,,,,,,repeat,letter,lettRpt,j,noRew,,,,,,1.4878,0,55,0,55,0,1,,,,,,,,,,,,,,,,,
298234,2022-12-02_11h07.14.459,vts_reward_expectancy_bt,2022.2.4,MacIntel,59.99880002,Chrome,1440,900,,,,,0,594,,,,,,,,,,,,,,,,,167,B,hexagon,1,0,,,,,,,,,,,,,,,,switch,number,numSwt,f,noRew,,,,,,1.4134,0,56,0,56,0,1,,,,,,,,,,,,,,,,,
298234,2022-12-02_11h07.14.459,vts_reward_expectancy_bt,2022.2.4,MacIntel,59.99880002,Chrome,1440,900,,,,,0,594,,,,,,,,,,,,,,,,,146,U,circle,1,0,,,,,,,,,,,,,,,,repeat,number,numRpt,d,noRew,,,,,,2.8016,0,57,0,57,0,1,,,,,,,,,,,,,,,,,
298234,2022-12-02_11h07.14.459,vts_reward_expectancy_bt,2022.2.4,MacIntel,59.99880002,Chrome,1440,900,,,,,0,594,,,,,,,,,,,,,,,,,174,S,circle,1,0,,,,,,,,,,,,,,,,repeat,number,numRpt,f,noRew,,,,,,1.7317,0,58,0,58,0,1,,,,,,,,,,,,,,,,,
298234,2022-12-02_11h07.14.459,vts_reward_expectancy_bt,2022.2.4,MacIntel,59.99880002,Chrome,1440,900,,,,,0,594,,,,,,,,,,,,,,,,,139,W,hexagon,1,0,,,,,,,,,,,,,,,,repeat,number,numRpt,d,noRew,,,,,,1.6482,0,59,0,59,0,1,,,,,,,,,,,,,,,,,
298234,2022-12-02_11h07.14.459,vts_reward_expectancy_bt,2022.2.4,MacIntel,59.99880002,Chrome,1440,900,,,,,0,594,,,,,,,,,,,,,,,,,139,U,triangle,1,0,,,,,,,,,,,,,,,,repeat,number,numRpt,d,noRew,,,,,,2.9202,0,60,0,60,0,1,,,,,,,,,,,,,,,,,
298234,2022-12-02_11h07.14.459,vts_reward_expectancy_bt,2022.2.4,MacIntel,59.99880002,Chrome,1440,900,,,,,0,594,,,,,,,,,,,,,,,,,174,W,circle,1,0,,,,,,,,,,,,,,,,switch,letter,lettSwt,k,noRew,,,,,,0.8648,0,61,0,61,0,1,,,,,,,,,,,,,,,,,
298234,2022-12-02_11h07.14.459,vts_reward_expectancy_bt,2022.2.4,MacIntel,59.99880002,Chrome,1440,900,,,,,0,594,,,,,,,,,,,,,,,,,181,S,hexagon,1,0,,,,,,,,,,,,,,,,switch,number,numSwt,f,noRew,,,,,,0.8821,0,62,0,62,0,1,,,,,,,,,,,,,,,,,
298234,2022-12-02_11h07.14.459,vts_reward_expectancy_bt,2022.2.4,MacIntel,59.99880002,Chrome,1440,900,,,,,0,594,,,,,,,,,,,,,,,,,125,H,triangle,1,0,,,,,,,,,,,,,,,,repeat,number,numRpt,d,noRew,,,,,,0.6158,0,63,0,63,0,1,,,,,,,,,,,,,,,,,
298234,2022-12-02_11h07.14.459,vts_reward_expectancy_bt,2022.2.4,MacIntel,59.99880002,Chrome,1440,900,,,,,,,,,,,,,,,,,,,,,,,,,,,,,,,,,,,,,,,,,,,,,,,,,,,,,,,,,,,,,,,,,,,,,,,,,,,,
298234,2022-12-02_11h07.14.459,vts_reward_expectancy_bt,2022.2.4,MacIntel,59.99880002,Chrome,1440,900,,,,,10,604,,,,,,,,,,,,,,,,,167,Y,star,1,0,,,,,,,,,,,,,,,,repeat,number,numRpt,f,Hi,,,,,,0.6993,0,,,,,,space,12.7141,low,0,0,0,0,1,,,,,,,,,
298234,2022-12-02_11h07.14.459,vts_reward_expectancy_bt,2022.2.4,MacIntel,59.99880002,Chrome,1440,900,,,,,0,604,,,,,,,,,,,,,,,,,160,W,circle,-1,0,,,,,,,,,,,,,,,,switch,no_choice,NA,,Hi,,,,,,,0,,,,,,,,low,1,0,1,0,1,,,,,,,,,
298234,2022-12-02_11h07.14.459,vts_reward_expectancy_bt,2022.2.4,MacIntel,59.99880002,Chrome,1440,900,,,,,1,605,,,,,,,,,,,,,,,,,181,U,hexagon,1,0,,,,,,,,,,,,,,,,switch,number,numSwt,f,Lo,,,,,,0.8162,0,,,,,,,,low,2,0,2,0,1,,,,,,,,,
298234,2022-12-02_11h07.14.459,vts_reward_expectancy_bt,2022.2.4,MacIntel,59.99880002,Chrome,1440,900,,,,,10,615,,,,,,,,,,,,,,,,,146,H,triangle,1,0,,,,,,,,,,,,,,,,switch,letter,lettSwt,j,Lo,,,,,,1.3515,0,,,,,,,,low,3,0,3,0,1,,,,,,,,,
298234,2022-12-02_11h07.14.459,vts_reward_expectancy_bt,2022.2.4,MacIntel,59.99880002,Chrome,1440,900,,,,,0,615,,,,,,,,,,,,,,,,,125,B,star,1,0,,,,,,,,,,,,,,,,switch,number,numSwt,d,Hi,,,,,,1.3674,0,,,,,,,,low,4,0,4,0,1,,,,,,,,,
298234,2022-12-02_11h07.14.459,vts_reward_expectancy_bt,2022.2.4,MacIntel,59.99880002,Chrome,1440,900,,,,,0,615,,,,,,,,,,,,,,,,,132,S,circle,0,0,,,,,,,,,,,,,,,,switch,letter,NA,j,Hi,,,,,,1.1047,0,,,,,,,,low,5,0,5,0,1,,,,,,,,,
298234,2022-12-02_11h07.14.459,vts_reward_expectancy_bt,2022.2.4,MacIntel,59.99880002,Chrome,1440,900,,,,,1,616,,,,,,,,,,,,,,,,,174,F,hexagon,1,1,,,,,,,,,,,,,,,,repeat,letter,lettRpt,j,Lo,,,,,,0.7656,0,,,,,,,,low,6,0,6,0,1,,,,,,,,,
298234,2022-12-02_11h07.14.459,vts_reward_expectancy_bt,2022.2.4,MacIntel,59.99880002,Chrome,1440,900,,,,,10,626,,,,,,,,,,,,,,,,,139,D,triangle,1,0,,,,,,,,,,,,,,,,repeat,letter,lettRpt,j,Lo,,,,,,0.9505,0,,,,,,,,low,7,0,7,0,1,,,,,,,,,
298234,2022-12-02_11h07.14.459,vts_reward_expectancy_bt,2022.2.4,MacIntel,59.99880002,Chrome,1440,900,,,,,0,626,,,,,,,,,,,,,,,,,167,Y,star,1,0,,,,,,,,,,,,,,,,switch,number,numSwt,f,Hi,,,,,,1.0806,0,,,,,,,,low,8,0,8,0,1,,,,,,,,,
298234,2022-12-02_11h07.14.459,vts_reward_expectancy_bt,2022.2.4,MacIntel,59.99880002,Chrome,1440,900,,,,,1,627,,,,,,,,,,,,,,,,,160,W,circle,1,0,,,,,,,,,,,,,,,,repeat,number,numRpt,f,Hi,,,,,,0.6326,0,,,,,,,,low,9,0,9,0,1,,,,,,,,,
298234,2022-12-02_11h07.14.459,vts_reward_expectancy_bt,2022.2.4,MacIntel,59.99880002,Chrome,1440,900,,,,,10,637,,,,,,,,,,,,,,,,,181,U,triangle,1,0,,,,,,,,,,,,,,,,switch,letter,lettSwt,k,Lo,,,,,,1.2177,0,,,,,,,,low,10,0,10,0,1,,,,,,,,,
298234,2022-12-02_11h07.14.459,vts_reward_expectancy_bt,2022.2.4,MacIntel,59.99880002,Chrome,1440,900,,,,,0,637,,,,,,,,,,,,,,,,,146,H,hexagon,0,0,,,,,,,,,,,,,,,,switch,number,NA,f,Lo,,,,,,0.831,0,,,,,,,,low,11,0,11,0,1,,,,,,,,,
298234,2022-12-02_11h07.14.459,vts_reward_expectancy_bt,2022.2.4,MacIntel,59.99880002,Chrome,1440,900,,,,,0,637,,,,,,,,,,,,,,,,,125,B,star,0,1,,,,,,,,,,,,,,,,switch,letter,NA,k,Lo,,,,,,0.1213,0,,,,,,,,low,12,0,12,0,1,,,,,,,,,
298234,2022-12-02_11h07.14.459,vts_reward_expectancy_bt,2022.2.4,MacIntel,59.99880002,Chrome,1440,900,,,,,10,647,,,,,,,,,,,,,,,,,132,S,circle,1,1,,,,,,,,,,,,,,,,repeat,letter,lettRpt,k,Hi,,,,,,0.0988,0,,,,,,,,low,13,0,13,0,1,,,,,,,,,
298234,2022-12-02_11h07.14.459,vts_reward_expectancy_bt,2022.2.4,MacIntel,59.99880002,Chrome,1440,900,,,,,1,648,,,,,,,,,,,,,,,,,174,F,hexagon,1,0,,,,,,,,,,,,,,,,repeat,letter,lettRpt,j,Lo,,,,,,0.799,0,,,,,,,,low,14,0,14,0,1,,,,,,,,,
298234,2022-12-02_11h07.14.459,vts_reward_expectancy_bt,2022.2.4,MacIntel,59.99880002,Chrome,1440,900,,,,,1,649,,,,,,,,,,,,,,,,,139,D,triangle,1,0,,,,,,,,,,,,,,,,switch,number,numSwt,d,Lo,,,,,,0.5312,0,,,,,,,,low,15,0,15,0,1,,,,,,,,,
298234,2022-12-02_11h07.14.459,vts_reward_expectancy_bt,2022.2.4,MacIntel,59.99880002,Chrome,1440,900,,,,,1,650,,,,,,,,,,,,,,,,,181,U,triangle,1,0,,,,,,,,,,,,,,,,repeat,number,numRpt,f,Lo,,,,,,0.7027,0,,,,,,,,low,16,0,16,0,1,,,,,,,,,
298234,2022-12-02_11h07.14.459,vts_reward_expectancy_bt,2022.2.4,MacIntel,59.99880002,Chrome,1440,900,,,,,1,651,,,,,,,,,,,,,,,,,125,F,star,1,0,,,,,,,,,,,,,,,,repeat,number,numRpt,d,Hi,,,,,,0.9665,0,,,,,,,,low,17,0,17,0,1,,,,,,,,,
298234,2022-12-02_11h07.14.459,vts_reward_expectancy_bt,2022.2.4,MacIntel,59.99880002,Chrome,1440,900,,,,,10,661,,,,,,,,,,,,,,,,,146,B,hexagon,1,0,,,,,,,,,,,,,,,,repeat,number,numRpt,d,Lo,,,,,,1.0041,0,,,,,,,,low,18,0,18,0,1,,,,,,,,,
298234,2022-12-02_11h07.14.459,vts_reward_expectancy_bt,2022.2.4,MacIntel,59.99880002,Chrome,1440,900,,,,,0,661,,,,,,,,,,,,,,,,,139,Y,circle,1,0,,,,,,,,,,,,,,,,repeat,number,numRpt,d,Hi,,,,,,1.3007,0,,,,,,,,low,19,0,19,0,1,,,,,,,,,
298234,2022-12-02_11h07.14.459,vts_reward_expectancy_bt,2022.2.4,MacIntel,59.99880002,Chrome,1440,900,,,,,1,662,,,,,,,,,,,,,,,,,174,D,hexagon,1,0,,,,,,,,,,,,,,,,repeat,number,numRpt,f,Lo,,,,,,0.9859,0,,,,,,,,low,20,0,20,0,1,,,,,,,,,
298234,2022-12-02_11h07.14.459,vts_reward_expectancy_bt,2022.2.4,MacIntel,59.99880002,Chrome,1440,900,,,,,10,672,,,,,,,,,,,,,,,,,160,S,triangle,1,0,,,,,,,,,,,,,,,,repeat,number,numRpt,f,Lo,,,,,,0.0331,0,,,,,,,,low,21,0,21,0,1,,,,,,,,,
298234,2022-12-02_11h07.14.459,vts_reward_expectancy_bt,2022.2.4,MacIntel,59.99880002,Chrome,1440,900,,,,,0,672,,,,,,,,,,,,,,,,,132,W,star,1,0,,,,,,,,,,,,,,,,switch,letter,lettSwt,k,Hi,,,,,,1.1842,0,,,,,,,,low,22,0,22,0,1,,,,,,,,,
298234,2022-12-02_11h07.14.459,vts_reward_expectancy_bt,2022.2.4,MacIntel,59.99880002,Chrome,1440,900,,,,,0,672,,,,,,,,,,,,,,,,,167,H,circle,1,0,,,,,,,,,,,,,,,,repeat,letter,lettRpt,j,Hi,,,,,,0.7823,0,,,,,,,,low,23,0,23,0,1,,,,,,,,,
298234,2022-12-02_11h07.14.459,vts_reward_expectancy_bt,2022.2.4,MacIntel,59.99880002,Chrome,1440,900,,,,,1,673,,,,,,,,,,,,,,,,,160,D,hexagon,1,0,,,,,,,,,,,,,,,,repeat,letter,lettRpt,j,Lo,,,,,,0.5831,0,,,,,,,,low,24,0,24,0,1,,,,,,,,,
298234,2022-12-02_11h07.14.459,vts_reward_expectancy_bt,2022.2.4,MacIntel,59.99880002,Chrome,1440,900,,,,,10,683,,,,,,,,,,,,,,,,,125,W,triangle,1,0,,,,,,,,,,,,,,,,switch,number,numSwt,d,Lo,,,,,,0.5711,0,,,,,,,,low,25,0,25,0,1,,,,,,,,,
298234,2022-12-02_11h07.14.459,vts_reward_expectancy_bt,2022.2.4,MacIntel,59.99880002,Chrome,1440,900,,,,,10,693,,,,,,,,,,,,,,,,,181,H,star,1,0,,,,,,,,,,,,,,,,repeat,number,numRpt,f,Hi,,,,,,0.5813,0,,,,,,,,low,26,0,26,0,1,,,,,,,,,
298234,2022-12-02_11h07.14.459,vts_reward_expectancy_bt,2022.2.4,MacIntel,59.99880002,Chrome,1440,900,,,,,0,693,,,,,,,,,,,,,,,,,167,S,circle,0,0,,,,,,,,,,,,,,,,switch,letter,NA,j,Hi,,,,,,0.7486,0,,,,,,,,low,27,0,27,0,1,,,,,,,,,
298234,2022-12-02_11h07.14.459,vts_reward_expectancy_bt,2022.2.4,MacIntel,59.99880002,Chrome,1440,900,,,,,10,703,,,,,,,,,,,,,,,,,146,Y,triangle,1,1,,,,,,,,,,,,,,,,repeat,letter,lettRpt,k,Lo,,,,,,0.7027,0,,,,,,,,low,28,0,28,0,1,,,,,,,,,
298234,2022-12-02_11h07.14.459,vts_reward_expectancy_bt,2022.2.4,MacIntel,59.99880002,Chrome,1440,900,,,,,0,703,,,,,,,,,,,,,,,,,139,F,circle,1,0,,,,,,,,,,,,,,,,repeat,letter,lettRpt,j,Hi,,,,,,1.3792,0,,,,,,,,low,29,0,29,0,1,,,,,,,,,
298234,2022-12-02_11h07.14.459,vts_reward_expectancy_bt,2022.2.4,MacIntel,59.99880002,Chrome,1440,900,,,,,10,713,,,,,,,,,,,,,,,,,132,U,star,1,0,,,,,,,,,,,,,,,,repeat,letter,lettRpt,k,Hi,,,,,,0.717,0,,,,,,,,low,30,0,30,0,1,,,,,,,,,
298234,2022-12-02_11h07.14.459,vts_reward_expectancy_bt,2022.2.4,MacIntel,59.99880002,Chrome,1440,900,,,,,0,713,,,,,,,,,,,,,,,,,174,B,hexagon,0,0,,,,,,,,,,,,,,,,switch,number,NA,d,Hi,,,,,,1.2849,0,,,,,,,,low,31,0,31,0,1,,,,,,,,,
298234,2022-12-02_11h07.14.459,vts_reward_expectancy_bt,2022.2.4,MacIntel,59.99880002,Chrome,1440,900,,,,,1,714,,,,,,,,,,,,,,,,,146,F,circle,1,1,,,,,,,,,,,,,,,,repeat,number,numRpt,d,Hi,,,,,,0.5098,1,,,,,,space,2.1834,low,0,0,0,0,1,,,,,,,,,
298234,2022-12-02_11h07.14.459,vts_reward_expectancy_bt,2022.2.4,MacIntel,59.99880002,Chrome,1440,900,,,,,1,715,,,,,,,,,,,,,,,,,167,H,hexagon,1,0,,,,,,,,,,,,,,,,repeat,number,numRpt,f,Lo,,,,,,0.8979,1,,,,,,,,low,1,0,1,0,1,,,,,,,,,
298234,2022-12-02_11h07.14.459,vts_reward_expectancy_bt,2022.2.4,MacIntel,59.99880002,Chrome,1440,900,,,,,10,725,,,,,,,,,,,,,,,,,125,S,triangle,1,0,,,,,,,,,,,,,,,,switch,letter,lettSwt,k,Lo,,,,,,0.665,1,,,,,,,,low,2,0,2,0,1,,,,,,,,,
298234,2022-12-02_11h07.14.459,vts_reward_expectancy_bt,2022.2.4,MacIntel,59.99880002,Chrome,1440,900,,,,,1,726,,,,,,,,,,,,,,,,,132,Y,star,1,0,,,,,,,,,,,,,,,,repeat,letter,lettRpt,k,Hi,,,,,,0.5985,1,,,,,,,,low,3,0,3,0,1,,,,,,,,,
298234,2022-12-02_11h07.14.459,vts_reward_expectancy_bt,2022.2.4,MacIntel,59.99880002,Chrome,1440,900,,,,,10,736,,,,,,,,,,,,,,,,,139,W,circle,1,0,,,,,,,,,,,,,,,,repeat,letter,lettRpt,k,Hi,,,,,,0.6175,1,,,,,,,,low,4,0,4,0,1,,,,,,,,,
298234,2022-12-02_11h07.14.459,vts_reward_expectancy_bt,2022.2.4,MacIntel,59.99880002,Chrome,1440,900,,,,,10,746,,,,,,,,,,,,,,,,,181,D,hexagon,1,0,,,,,,,,,,,,,,,,switch,number,numSwt,f,Lo,,,,,,0.6307,1,,,,,,,,low,5,0,5,0,1,,,,,,,,,
298234,2022-12-02_11h07.14.459,vts_reward_expectancy_bt,2022.2.4,MacIntel,59.99880002,Chrome,1440,900,,,,,1,747,,,,,,,,,,,,,,,,,160,U,triangle,1,0,,,,,,,,,,,,,,,,switch,letter,lettSwt,k,Lo,,,,,,0.5168,1,,,,,,,,low,6,0,6,0,1,,,,,,,,,
298234,2022-12-02_11h07.14.459,vts_reward_expectancy_bt,2022.2.4,MacIntel,59.99880002,Chrome,1440,900,,,,,0,747,,,,,,,,,,,,,,,,,174,B,star,1,0,,,,,,,,,,,,,,,,switch,number,numSwt,f,Hi,,,,,,0.6987,1,,,,,,,,low,7,0,7,0,1,,,,,,,,,
298234,2022-12-02_11h07.14.459,vts_reward_expectancy_bt,2022.2.4,MacIntel,59.99880002,Chrome,1440,900,,,,,0,747,,,,,,,,,,,,,,,,,146,F,circle,1,0,,,,,,,,,,,,,,,,repeat,number,numRpt,d,Hi,,,,,,0.6958,1,,,,,,,,low,8,0,8,0,1,,,,,,,,,
298234,2022-12-02_11h07.14.459,vts_reward_expectancy_bt,2022.2.4,MacIntel,59.99880002,Chrome,1440,900,,,,,10,757,,,,,,,,,,,,,,,,,167,H,hexagon,1,0,,,,,,,,,,,,,,,,repeat,number,numRpt,f,Lo,,,,,,0.6241,1,,,,,,,,low,9,0,9,0,1,,,,,,,,,
298234,2022-12-02_11h07.14.459,vts_reward_expectancy_bt,2022.2.4,MacIntel,59.99880002,Chrome,1440,900,,,,,1,758,,,,,,,,,,,,,,,,,125,S,star,1,0,,,,,,,,,,,,,,,,switch,letter,lettSwt,k,Hi,,,,,,0.7217,1,,,,,,,,low,10,0,10,0,1,,,,,,,,,
298234,2022-12-02_11h07.14.459,vts_reward_expectancy_bt,2022.2.4,MacIntel,59.99880002,Chrome,1440,900,,,,,1,759,,,,,,,,,,,,,,,,,132,Y,triangle,1,0,,,,,,,,,,,,,,,,repeat,letter,lettRpt,k,Lo,,,,,,0.9306,1,,,,,,,,low,11,0,11,0,1,,,,,,,,,
298234,2022-12-02_11h07.14.459,vts_reward_expectancy_bt,2022.2.4,MacIntel,59.99880002,Chrome,1440,900,,,,,1,760,,,,,,,,,,,,,,,,,139,W,triangle,1,0,,,,,,,,,,,,,,,,repeat,letter,lettRpt,k,Lo,,,,,,0.6067,1,,,,,,,,low,12,0,12,0,1,,,,,,,,,
298234,2022-12-02_11h07.14.459,vts_reward_expectancy_bt,2022.2.4,MacIntel,59.99880002,Chrome,1440,900,,,,,10,770,,,,,,,,,,,,,,,,,181,D,hexagon,1,0,,,,,,,,,,,,,,,,switch,number,numSwt,f,Lo,,,,,,1.0139,1,,,,,,,,low,13,0,13,0,1,,,,,,,,,
298234,2022-12-02_11h07.14.459,vts_reward_expectancy_bt,2022.2.4,MacIntel,59.99880002,Chrome,1440,900,,,,,0,770,,,,,,,,,,,,,,,,,160,U,star,1,0,,,,,,,,,,,,,,,,repeat,number,numRpt,f,Hi,,,,,,0.823,1,,,,,,,,low,14,0,14,0,1,,,,,,,,,
298234,2022-12-02_11h07.14.459,vts_reward_expectancy_bt,2022.2.4,MacIntel,59.99880002,Chrome,1440,900,,,,,0,770,,,,,,,,,,,,,,,,,174,B,circle,1,0,,,,,,,,,,,,,,,,repeat,number,numRpt,f,Hi,,,,,,0.7482,1,,,,,,,,low,15,0,15,0,1,,,,,,,,,
298234,2022-12-02_11h07.14.459,vts_reward_expectancy_bt,2022.2.4,MacIntel,59.99880002,Chrome,1440,900,,,,,10,780,,,,,,,,,,,,,,,,,181,F,star,1,0,,,,,,,,,,,,,,,,repeat,number,numRpt,f,Hi,,,,,,0.5476,1,,,,,,,,low,16,0,16,0,1,,,,,,,,,
298234,2022-12-02_11h07.14.459,vts_reward_expectancy_bt,2022.2.4,MacIntel,59.99880002,Chrome,1440,900,,,,,0,780,,,,,,,,,,,,,,,,,132,D,circle,1,0,,,,,,,,,,,,,,,,repeat,number,numRpt,d,Hi,,,,,,0.8161,1,,,,,,,,low,17,0,17,0,1,,,,,,,,,
298234,2022-12-02_11h07.14.459,vts_reward_expectancy_bt,2022.2.4,MacIntel,59.99880002,Chrome,1440,900,,,,,10,790,,,,,,,,,,,,,,,,,139,U,hexagon,1,0,,,,,,,,,,,,,,,,repeat,number,numRpt,d,Lo,,,,,,0.9181,1,,,,,,,,low,18,0,18,0,1,,,,,,,,,
298234,2022-12-02_11h07.14.459,vts_reward_expectancy_bt,2022.2.4,MacIntel,59.99880002,Chrome,1440,900,,,,,1,791,,,,,,,,,,,,,,,,,160,Y,triangle,1,0,,,,,,,,,,,,,,,,repeat,number,numRpt,f,Lo,,,,,,0.9447,1,,,,,,,,low,19,0,19,0,1,,,,,,,,,
298234,2022-12-02_11h07.14.459,vts_reward_expectancy_bt,2022.2.4,MacIntel,59.99880002,Chrome,1440,900,,,,,1,792,,,,,,,,,,,,,,,,,125,B,triangle,1,0,,,,,,,,,,,,,,,,switch,letter,lettSwt,j,Lo,,,,,,1.7405,1,,,,,,,,low,20,0,20,0,1,,,,,,,,,
298234,2022-12-02_11h07.14.459,vts_reward_expectancy_bt,2022.2.4,MacIntel,59.99880002,Chrome,1440,900,,,,,0,792,,,,,,,,,,,,,,,,,174,S,circle,1,0,,,,,,,,,,,,,,,,switch,number,numSwt,f,Hi,,,,,,0.8335,1,,,,,,,,low,21,0,21,0,1,,,,,,,,,
298234,2022-12-02_11h07.14.459,vts_reward_expectancy_bt,2022.2.4,MacIntel,59.99880002,Chrome,1440,900,,,,,0,792,,,,,,,,,,,,,,,,,167,W,star,1,0,,,,,,,,,,,,,,,,repeat,number,numRpt,f,Hi,,,,,,1.1841,1,,,,,,,,low,22,0,22,0,1,,,,,,,,,
298234,2022-12-02_11h07.14.459,vts_reward_expectancy_bt,2022.2.4,MacIntel,59.99880002,Chrome,1440,900,,,,,10,802,,,,,,,,,,,,,,,,,146,H,hexagon,1,0,,,,,,,,,,,,,,,,repeat,number,numRpt,d,Lo,,,,,,0.7042,1,,,,,,,,low,23,0,23,0,1,,,,,,,,,
298234,2022-12-02_11h07.14.459,vts_reward_expectancy_bt,2022.2.4,MacIntel,59.99880002,Chrome,1440,900,,,,,10,812,,,,,,,,,,,,,,,,,160,Y,triangle,1,0,,,,,,,,,,,,,,,,repeat,number,numRpt,f,Lo,,,,,,0.6998,1,,,,,,,,low,24,0,24,0,1,,,,,,,,,
298234,2022-12-02_11h07.14.459,vts_reward_expectancy_bt,2022.2.4,MacIntel,59.99880002,Chrome,1440,900,,,,,1,813,,,,,,,,,,,,,,,,,139,S,star,1,0,,,,,,,,,,,,,,,,repeat,number,numRpt,d,Hi,,,,,,0.6318,1,,,,,,,,low,25,0,25,0,1,,,,,,,,,
298234,2022-12-02_11h07.14.459,vts_reward_expectancy_bt,2022.2.4,MacIntel,59.99880002,Chrome,1440,900,,,,,10,823,,,,,,,,,,,,,,,,,174,U,circle,1,0,,,,,,,,,,,,,,,,repeat,number,numRpt,f,Hi,,,,,,0.6702,1,,,,,,,,low,26,0,26,0,1,,,,,,,,,
298234,2022-12-02_11h07.14.459,vts_reward_expectancy_bt,2022.2.4,MacIntel,59.99880002,Chrome,1440,900,,,,,10,833,,,,,,,,,,,,,,,,,167,D,hexagon,1,0,,,,,,,,,,,,,,,,switch,letter,lettSwt,j,Lo,,,,,,0.5905,1,,,,,,,,low,27,0,27,0,1,,,,,,,,,
298234,2022-12-02_11h07.14.459,vts_reward_expectancy_bt,2022.2.4,MacIntel,59.99880002,Chrome,1440,900,,,,,10,843,,,,,,,,,,,,,,,,,146,W,circle,1,0,,,,,,,,,,,,,,,,repeat,letter,lettRpt,k,Hi,,,,,,0.7004,1,,,,,,,,low,28,0,28,0,1,,,,,,,,,
298234,2022-12-02_11h07.14.459,vts_reward_expectancy_bt,2022.2.4,MacIntel,59.99880002,Chrome,1440,900,,,,,10,853,,,,,,,,,,,,,,,,,181,F,hexagon,1,0,,,,,,,,,,,,,,,,repeat,letter,lettRpt,j,Lo,,,,,,1.4885,1,,,,,,,,low,29,0,29,0,1,,,,,,,,,
298234,2022-12-02_11h07.14.459,vts_reward_expectancy_bt,2022.2.4,MacIntel,59.99880002,Chrome,1440,900,,,,,10,863,,,,,,,,,,,,,,,,,125,H,triangle,1,0,,,,,,,,,,,,,,,,switch,number,numSwt,d,Lo,,,,,,0.7338,1,,,,,,,,low,30,0,30,0,1,,,,,,,,,
298234,2022-12-02_11h07.14.459,vts_reward_expectancy_bt,2022.2.4,MacIntel,59.99880002,Chrome,1440,900,,,,,0,863,,,,,,,,,,,,,,,,,132,B,star,1,0,,,,,,,,,,,,,,,,repeat,number,numRpt,d,Hi,,,,,,0.9013,1,,,,,,,,low,31,0,31,0,1,,,,,,,,,
298234,2022-12-02_11h07.14.459,vts_reward_expectancy_bt,2022.2.4,MacIntel,59.99880002,Chrome,1440,900,,,,,0,863,,,,,,,,,,,,,,,,,181,F,star,0,0,,,,,,,,,,,,,,,,repeat,number,NA,d,Hi,,,,,,0.5812,2,,,,,,space,2.3617,low,0,0,0,0,1,,,,,,,,,
298234,2022-12-02_11h07.14.459,vts_reward_expectancy_bt,2022.2.4,MacIntel,59.99880002,Chrome,1440,900,,,,,0,863,,,,,,,,,,,,,,,,,146,S,circle,0,1,,,,,,,,,,,,,,,,repeat,number,NA,f,Hi,,,,,,0.3148,2,,,,,,,,low,1,0,1,0,1,,,,,,,,,
298234,2022-12-02_11h07.14.459,vts_reward_expectancy_bt,2022.2.4,MacIntel,59.99880002,Chrome,1440,900,,,,,1,864,,,,,,,,,,,,,,,,,125,Y,hexagon,1,1,,,,,,,,,,,,,,,,switch,letter,lettSwt,k,Lo,,,,,,1.3845,2,,,,,,,,low,2,0,2,0,1,,,,,,,,,
298234,2022-12-02_11h07.14.459,vts_reward_expectancy_bt,2022.2.4,MacIntel,59.99880002,Chrome,1440,900,,,,,1,865,,,,,,,,,,,,,,,,,174,U,triangle,1,0,,,,,,,,,,,,,,,,repeat,letter,lettRpt,k,Lo,,,,,,0.819,2,,,,,,,,low,3,0,3,0,1,,,,,,,,,
298234,2022-12-02_11h07.14.459,vts_reward_expectancy_bt,2022.2.4,MacIntel,59.99880002,Chrome,1440,900,,,,,0,865,,,,,,,,,,,,,,,,,160,B,star,1,0,,,,,,,,,,,,,,,,repeat,letter,lettRpt,j,Hi,,,,,,2.9511,2,,,,,,,,low,4,0,4,0,1,,,,,,,,,
298234,2022-12-02_11h07.14.459,vts_reward_expectancy_bt,2022.2.4,MacIntel,59.99880002,Chrome,1440,900,,,,,0,865,,,,,,,,,,,,,,,,,139,W,circle,-1,0,,,,,,,,,,,,,,,,switch,no_choice,NA,,Hi,,,,,,,2,,,,,,,,low,5,0,5,0,1,,,,,,,,,
298234,2022-12-02_11h07.14.459,vts_reward_expectancy_bt,2022.2.4,MacIntel,59.99880002,Chrome,1440,900,,,,,0,865,,,,,,,,,,,,,,,,,132,H,hexagon,0,0,,,,,,,,,,,,,,,,switch,letter,NA,k,Hi,,,,,,1.3998,2,,,,,,,,low,6,0,6,0,1,,,,,,,,,
298234,2022-12-02_11h07.14.459,vts_reward_expectancy_bt,2022.2.4,MacIntel,59.99880002,Chrome,1440,900,,,,,1,866,,,,,,,,,,,,,,,,,167,D,triangle,1,1,,,,,,,,,,,,,,,,repeat,letter,lettRpt,j,Lo,,,,,,1.4173,2,,,,,,,,low,7,0,7,0,1,,,,,,,,,
298234,2022-12-02_11h07.14.459,vts_reward_expectancy_bt,2022.2.4,MacIntel,59.99880002,Chrome,1440,900,,,,,0,866,,,,,,,,,,,,,,,,,181,F,star,1,0,,,,,,,,,,,,,,,,repeat,letter,lettRpt,j,Hi,,,,,,1.2623,2,,,,,,,,low,8,0,8,0,1,,,,,,,,,
298234,2022-12-02_11h07.14.459,vts_reward_expectancy_bt,2022.2.4,MacIntel,59.99880002,Chrome,1440,900,,,,,0,866,,,,,,,,,,,,,,,,,146,S,hexagon,-1,0,,,,,,,,,,,,,,,,switch,no_choice,NA,,Hi,,,,,,,2,,,,,,,,low,9,0,9,0,1,,,,,,,,,
298234,2022-12-02_11h07.14.459,vts_reward_expectancy_bt,2022.2.4,MacIntel,59.99880002,Chrome,1440,900,,,,,1,867,,,,,,,,,,,,,,,,,125,Y,triangle,1,0,,,,,,,,,,,,,,,,switch,number,numSwt,d,Lo,,,,,,1.2171,2,,,,,,,,low,10,0,10,0,1,,,,,,,,,
298234,2022-12-02_11h07.14.459,vts_reward_expectancy_bt,2022.2.4,MacIntel,59.99880002,Chrome,1440,900,,,,,0,867,,,,,,,,,,,,,,,,,174,U,circle,1,0,,,,,,,,,,,,,,,,repeat,number,numRpt,f,Hi,,,,,,2.7977,2,,,,,,,,low,11,0,11,0,1,,,,,,,,,
298234,2022-12-02_11h07.14.459,vts_reward_expectancy_bt,2022.2.4,MacIntel,59.99880002,Chrome,1440,900,,,,,1,868,,,,,,,,,,,,,,,,,160,B,hexagon,1,0,,,,,,,,,,,,,,,,switch,letter,lettSwt,j,Lo,,,,,,2.0635,2,,,,,,,,low,12,0,12,0,1,,,,,,,,,
298234,2022-12-02_11h07.14.459,vts_reward_expectancy_bt,2022.2.4,MacIntel,59.99880002,Chrome,1440,900,,,,,0,868,,,,,,,,,,,,,,,,,139,W,star,1,0,,,,,,,,,,,,,,,,repeat,letter,lettRpt,k,Hi,,,,,,1.7336,2,,,,,,,,low,13,0,13,0,1,,,,,,,,,
298234,2022-12-02_11h07.14.459,vts_reward_expectancy_bt,2022.2.4,MacIntel,59.99880002,Chrome,1440,900,,,,,0,868,,,,,,,,,,,,,,,,,132,H,circle,0,0,,,,,,,,,,,,,,,,repeat,letter,NA,k,Hi,,,,,,1.5515,2,,,,,,,,low,14,0,14,0,1,,,,,,,,,
298234,2022-12-02_11h07.14.459,vts_reward_expectancy_bt,2022.2.4,MacIntel,59.99880002,Chrome,1440,900,,,,,0,868,,,,,,,,,,,,,,,,,167,D,triangle,-1,1,,,,,,,,,,,,,,,,switch,no_choice,NA,,Hi,,,,,,,2,,,,,,,,low,15,0,15,0,1,,,,,,,,,
298234,2022-12-02_11h07.14.459,vts_reward_expectancy_bt,2022.2.4,MacIntel,59.99880002,Chrome,1440,900,,,,,0,868,,,,,,,,,,,,,,,,,125,D,star,1,0,,,,,,,,,,,,,,,,switch,letter,lettSwt,j,Hi,,,,,,1.0871,2,,,,,,,,low,16,0,16,0,1,,,,,,,,,
298234,2022-12-02_11h07.14.459,vts_reward_expectancy_bt,2022.2.4,MacIntel,59.99880002,Chrome,1440,900,,,,,1,869,,,,,,,,,,,,,,,,,132,S,triangle,1,0,,,,,,,,,,,,,,,,repeat,letter,lettRpt,k,Lo,,,,,,1.6877,2,,,,,,,,low,17,0,17,0,1,,,,,,,,,
298234,2022-12-02_11h07.14.459,vts_reward_expectancy_bt,2022.2.4,MacIntel,59.99880002,Chrome,1440,900,,,,,0,869,,,,,,,,,,,,,,,,,160,W,circle,1,0,,,,,,,,,,,,,,,,repeat,letter,lettRpt,k,Hi,,,,,,1.5671,2,,,,,,,,low,18,0,18,0,1,,,,,,,,,
298234,2022-12-02_11h07.14.459,vts_reward_expectancy_bt,2022.2.4,MacIntel,59.99880002,Chrome,1440,900,,,,,10,879,,,,,,,,,,,,,,,,,139,H,hexagon,1,0,,,,,,,,,,,,,,,,repeat,letter,lettRpt,j,Lo,,,,,,2.6995,2,,,,,,,,low,19,0,19,0,1,,,,,,,,,
298234,2022-12-02_11h07.14.459,vts_reward_expectancy_bt,2022.2.4,MacIntel,59.99880002,Chrome,1440,900,,,,,1,880,,,,,,,,,,,,,,,,,174,F,triangle,1,0,,,,,,,,,,,,,,,,repeat,letter,lettRpt,j,Lo,,,,,,1.0647,2,,,,,,,,low,20,0,20,0,1,,,,,,,,,
298234,2022-12-02_11h07.14.459,vts_reward_expectancy_bt,2022.2.4,MacIntel,59.99880002,Chrome,1440,900,,,,,0,880,,,,,,,,,,,,,,,,,146,U,circle,0,0,,,,,,,,,,,,,,,,repeat,letter,NA,j,Lo,,,,,,1.8646,2,,,,,,,,low,21,0,21,0,1,,,,,,,,,
298234,2022-12-02_11h07.14.459,vts_reward_expectancy_bt,2022.2.4,MacIntel,59.99880002,Chrome,1440,900,,,,,0,880,,,,,,,,,,,,,,,,,167,Y,hexagon,0,1,,,,,,,,,,,,,,,,repeat,letter,NA,j,Lo,,,,,,2.2078,2,,,,,,,,low,22,0,22,0,1,,,,,,,,,
298234,2022-12-02_11h07.14.459,vts_reward_expectancy_bt,2022.2.4,MacIntel,59.99880002,Chrome,1440,900,,,,,0,880,,,,,,,,,,,,,,,,,181,B,star,1,1,,,,,,,,,,,,,,,,repeat,letter,lettRpt,j,Hi,,,,,,0.7925,2,,,,,,,,low,23,0,23,0,1,,,,,,,,,
298234,2022-12-02_11h07.14.459,vts_reward_expectancy_bt,2022.2.4,MacIntel,59.99880002,Chrome,1440,900,,,,,0,880,,,,,,,,,,,,,,,,,146,D,circle,0,0,,,,,,,,,,,,,,,,switch,number,NA,f,Hi,,,,,,1.0479,2,,,,,,,,low,24,0,24,0,1,,,,,,,,,
298234,2022-12-02_11h07.14.459,vts_reward_expectancy_bt,2022.2.4,MacIntel,59.99880002,Chrome,1440,900,,,,,1,881,,,,,,,,,,,,,,,,,132,B,triangle,1,1,,,,,,,,,,,,,,,,switch,letter,lettSwt,j,Lo,,,,,,0.7233,2,,,,,,,,low,25,0,25,0,1,,,,,,,,,
298234,2022-12-02_11h07.14.459,vts_reward_expectancy_bt,2022.2.4,MacIntel,59.99880002,Chrome,1440,900,,,,,0,881,,,,,,,,,,,,,,,,,139,U,star,0,0,,,,,,,,,,,,,,,,repeat,letter,NA,j,Lo,,,,,,1.1314,2,,,,,,,,low,26,0,26,0,1,,,,,,,,,
298234,2022-12-02_11h07.14.459,vts_reward_expectancy_bt,2022.2.4,MacIntel,59.99880002,Chrome,1440,900,,,,,10,891,,,,,,,,,,,,,,,,,125,H,hexagon,1,1,,,,,,,,,,,,,,,,repeat,letter,lettRpt,j,Lo,,,,,,1.5313,2,,,,,,,,low,27,0,27,0,1,,,,,,,,,
298234,2022-12-02_11h07.14.459,vts_reward_expectancy_bt,2022.2.4,MacIntel,59.99880002,Chrome,1440,900,,,,,0,891,,,,,,,,,,,,,,,,,167,Y,triangle,-1,0,,,,,,,,,,,,,,,,switch,no_choice,NA,,Lo,,,,,,,2,,,,,,,,low,28,0,28,0,1,,,,,,,,,
298234,2022-12-02_11h07.14.459,vts_reward_expectancy_bt,2022.2.4,MacIntel,59.99880002,Chrome,1440,900,,,,,0,891,,,,,,,,,,,,,,,,,174,W,star,1,0,,,,,,,,,,,,,,,,switch,letter,lettSwt,k,Hi,,,,,,0.7172,2,,,,,,,,low,29,0,29,0,1,,,,,,,,,
298234,2022-12-02_11h07.14.459,vts_reward_expectancy_bt,2022.2.4,MacIntel,59.99880002,Chrome,1440,900,,,,,1,892,,,,,,,,,,,,,,,,,160,F,hexagon,1,0,,,,,,,,,,,,,,,,repeat,letter,lettRpt,j,Lo,,,,,,1.1013,2,,,,,,,,low,30,0,30,0,1,,,,,,,,,
298234,2022-12-02_11h07.14.459,vts_reward_expectancy_bt,2022.2.4,MacIntel,59.99880002,Chrome,1440,900,,,,,0,892,,,,,,,,,,,,,,,,,181,S,circle,1,0,,,,,,,,,,,,,,,,repeat,letter,lettRpt,k,Hi,,,,,,1.3053,2,,,,,,,,low,31,0,31,0,1,,,,,,,,,
298234,2022-12-02_11h07.14.459,vts_reward_expectancy_bt,2022.2.4,MacIntel,59.99880002,Chrome,1440,900,,,,,10,902,,,,,,,,,,,,,,,,,181,B,hexagon,1,0,,,,,,,,,,,,,,,,repeat,letter,lettRpt,j,Lo,,,,,,1.9757,3,,,,,,space,3.0263,low,0,0,0,0,1,,,,,,,,,
298234,2022-12-02_11h07.14.459,vts_reward_expectancy_bt,2022.2.4,MacIntel,59.99880002,Chrome,1440,900,,,,,10,912,,,,,,,,,,,,,,,,,125,U,circle,1,0,,,,,,,,,,,,,,,,switch,number,numSwt,d,Hi,,,,,,0.9808,3,,,,,,,,low,1,0,1,0,1,,,,,,,,,
298234,2022-12-02_11h07.14.459,vts_reward_expectancy_bt,2022.2.4,MacIntel,59.99880002,Chrome,1440,900,,,,,10,922,,,,,,,,,,,,,,,,,160,Y,triangle,1,0,,,,,,,,,,,,,,,,repeat,number,numRpt,f,Lo,,,,,,0.6402,3,,,,,,,,low,2,0,2,0,1,,,,,,,,,
298234,2022-12-02_11h07.14.459,vts_reward_expectancy_bt,2022.2.4,MacIntel,59.99880002,Chrome,1440,900,,,,,10,932,,,,,,,,,,,,,,,,,174,W,star,1,0,,,,,,,,,,,,,,,,switch,letter,lettSwt,k,Hi,,,,,,0.6507,3,,,,,,,,low,3,0,3,0,1,,,,,,,,,
298234,2022-12-02_11h07.14.459,vts_reward_expectancy_bt,2022.2.4,MacIntel,59.99880002,Chrome,1440,900,,,,,10,942,,,,,,,,,,,,,,,,,146,D,hexagon,1,0,,,,,,,,,,,,,,,,repeat,letter,lettRpt,j,Lo,,,,,,0.8159,3,,,,,,,,low,4,0,4,0,1,,,,,,,,,
298234,2022-12-02_11h07.14.459,vts_reward_expectancy_bt,2022.2.4,MacIntel,59.99880002,Chrome,1440,900,,,,,10,952,,,,,,,,,,,,,,,,,139,H,circle,1,0,,,,,,,,,,,,,,,,switch,number,numSwt,d,Hi,,,,,,0.6714,3,,,,,,,,low,5,0,5,0,1,,,,,,,,,
298234,2022-12-02_11h07.14.459,vts_reward_expectancy_bt,2022.2.4,MacIntel,59.99880002,Chrome,1440,900,,,,,10,962,,,,,,,,,,,,,,,,,132,S,triangle,1,0,,,,,,,,,,,,,,,,repeat,number,numRpt,d,Lo,,,,,,0.8302,3,,,,,,,,low,6,0,6,0,1,,,,,,,,,
298234,2022-12-02_11h07.14.459,vts_reward_expectancy_bt,2022.2.4,MacIntel,59.99880002,Chrome,1440,900,,,,,0,962,,,,,,,,,,,,,,,,,167,F,star,1,0,,,,,,,,,,,,,,,,switch,letter,lettSwt,j,Hi,,,,,,1.631,3,,,,,,,,low,7,0,7,0,1,,,,,,,,,
298234,2022-12-02_11h07.14.459,vts_reward_expectancy_bt,2022.2.4,MacIntel,59.99880002,Chrome,1440,900,,,,,10,972,,,,,,,,,,,,,,,,,181,B,triangle,1,0,,,,,,,,,,,,,,,,repeat,letter,lettRpt,j,Lo,,,,,,0.7489,3,,,,,,,,low,8,0,8,0,1,,,,,,,,,
298234,2022-12-02_11h07.14.459,vts_reward_expectancy_bt,2022.2.4,MacIntel,59.99880002,Chrome,1440,900,,,,,1,973,,,,,,,,,,,,,,,,,125,U,circle,1,0,,,,,,,,,,,,,,,,switch,number,numSwt,d,Hi,,,,,,0.634,3,,,,,,,,low,9,0,9,0,1,,,,,,,,,
298234,2022-12-02_11h07.14.459,vts_reward_expectancy_bt,2022.2.4,MacIntel,59.99880002,Chrome,1440,900,,,,,1,974,,,,,,,,,,,,,,,,,160,Y,hexagon,1,0,,,,,,,,,,,,,,,,repeat,number,numRpt,f,Lo,,,,,,0.6689,3,,,,,,,,low,10,0,10,0,1,,,,,,,,,
298234,2022-12-02_11h07.14.459,vts_reward_expectancy_bt,2022.2.4,MacIntel,59.99880002,Chrome,1440,900,,,,,0,974,,,,,,,,,,,,,,,,,174,W,star,1,0,,,,,,,,,,,,,,,,switch,letter,lettSwt,k,Hi,,,,,,1.7318,3,,,,,,,,low,11,0,11,0,1,,,,,,,,,
298234,2022-12-02_11h07.14.459,vts_reward_expectancy_bt,2022.2.4,MacIntel,59.99880002,Chrome,1440,900,,,,,10,984,,,,,,,,,,,,,,,,,146,D,star,1,0,,,,,,,,,,,,,,,,switch,number,numSwt,d,Hi,,,,,,0.7337,3,,,,,,,,low,12,0,12,0,1,,,,,,,,,
298234,2022-12-02_11h07.14.459,vts_reward_expectancy_bt,2022.2.4,MacIntel,59.99880002,Chrome,1440,900,,,,,10,994,,,,,,,,,,,,,,,,,139,H,triangle,1,0,,,,,,,,,,,,,,,,switch,letter,lettSwt,j,Lo,,,,,,1.1925,3,,,,,,,,low,13,0,13,0,1,,,,,,,,,
298234,2022-12-02_11h07.14.459,vts_reward_expectancy_bt,2022.2.4,MacIntel,59.99880002,Chrome,1440,900,,,,,0,994,,,,,,,,,,,,,,,,,132,S,hexagon,-1,0,,,,,,,,,,,,,,,,switch,no_choice,NA,,Lo,,,,,,,3,,,,,,,,low,14,0,14,0,1,,,,,,,,,
298234,2022-12-02_11h07.14.459,vts_reward_expectancy_bt,2022.2.4,MacIntel,59.99880002,Chrome,1440,900,,,,,0,994,,,,,,,,,,,,,,,,,167,F,circle,0,0,,,,,,,,,,,,,,,,switch,letter,NA,k,Lo,,,,,,1.5414,3,,,,,,,,low,15,0,15,0,1,,,,,,,,,
298234,2022-12-02_11h07.14.459,vts_reward_expectancy_bt,2022.2.4,MacIntel,59.99880002,Chrome,1440,900,,,,,0,994,,,,,,,,,,,,,,,,,132,D,star,-1,1,,,,,,,,,,,,,,,,switch,no_choice,NA,,Lo,,,,,,,3,,,,,,,,low,16,0,16,0,1,,,,,,,,,
298234,2022-12-02_11h07.14.459,vts_reward_expectancy_bt,2022.2.4,MacIntel,59.99880002,Chrome,1440,900,,,,,0,994,,,,,,,,,,,,,,,,,160,U,circle,1,0,,,,,,,,,,,,,,,,switch,number,numSwt,f,Hi,,,,,,1.6978,3,,,,,,,,low,17,0,17,0,1,,,,,,,,,
298234,2022-12-02_11h07.14.459,vts_reward_expectancy_bt,2022.2.4,MacIntel,59.99880002,Chrome,1440,900,,,,,10,1004,,,,,,,,,,,,,,,,,181,B,hexagon,1,0,,,,,,,,,,,,,,,,repeat,number,numRpt,f,Lo,,,,,,1.4169,3,,,,,,,,low,18,0,18,0,1,,,,,,,,,
298234,2022-12-02_11h07.14.459,vts_reward_expectancy_bt,2022.2.4,MacIntel,59.99880002,Chrome,1440,900,,,,,1,1005,,,,,,,,,,,,,,,,,174,S,triangle,1,0,,,,,,,,,,,,,,,,repeat,number,numRpt,f,Lo,,,,,,1.0821,3,,,,,,,,low,19,0,19,0,1,,,,,,,,,
298234,2022-12-02_11h07.14.459,vts_reward_expectancy_bt,2022.2.4,MacIntel,59.99880002,Chrome,1440,900,,,,,1,1006,,,,,,,,,,,,,,,,,146,Y,hexagon,1,0,,,,,,,,,,,,,,,,repeat,number,numRpt,d,Lo,,,,,,1.9415,3,,,,,,,,low,20,0,20,0,1,,,,,,,,,
298234,2022-12-02_11h07.14.459,vts_reward_expectancy_bt,2022.2.4,MacIntel,59.99880002,Chrome,1440,900,,,,,1,1007,,,,,,,,,,,,,,,,,139,W,star,1,0,,,,,,,,,,,,,,,,switch,letter,lettSwt,k,Hi,,,,,,0.7621,3,,,,,,,,low,21,0,21,0,1,,,,,,,,,
298234,2022-12-02_11h07.14.459,vts_reward_expectancy_bt,2022.2.4,MacIntel,59.99880002,Chrome,1440,900,,,,,1,1008,,,,,,,,,,,,,,,,,167,F,triangle,1,0,,,,,,,,,,,,,,,,switch,number,numSwt,f,Lo,,,,,,0.8381,3,,,,,,,,low,22,0,22,0,1,,,,,,,,,
298234,2022-12-02_11h07.14.459,vts_reward_expectancy_bt,2022.2.4,MacIntel,59.99880002,Chrome,1440,900,,,,,10,1018,,,,,,,,,,,,,,,,,125,H,circle,1,0,,,,,,,,,,,,,,,,repeat,number,numRpt,d,Hi,,,,,,1.1565,3,,,,,,,,low,23,0,23,0,1,,,,,,,,,
298234,2022-12-02_11h07.14.459,vts_reward_expectancy_bt,2022.2.4,MacIntel,59.99880002,Chrome,1440,900,,,,,1,1019,,,,,,,,,,,,,,,,,160,U,triangle,1,0,,,,,,,,,,,,,,,,repeat,number,numRpt,f,Lo,,,,,,0.6647,3,,,,,,,,low,24,0,24,0,1,,,,,,,,,
298234,2022-12-02_11h07.14.459,vts_reward_expectancy_bt,2022.2.4,MacIntel,59.99880002,Chrome,1440,900,,,,,10,1029,,,,,,,,,,,,,,,,,125,H,hexagon,1,0,,,,,,,,,,,,,,,,repeat,number,numRpt,d,Lo,,,,,,1.0238,3,,,,,,,,low,25,0,25,0,1,,,,,,,,,
298234,2022-12-02_11h07.14.459,vts_reward_expectancy_bt,2022.2.4,MacIntel,59.99880002,Chrome,1440,900,,,,,1,1030,,,,,,,,,,,,,,,,,174,S,circle,1,0,,,,,,,,,,,,,,,,repeat,number,numRpt,f,Hi,,,,,,0.8811,3,,,,,,,,low,26,0,26,0,1,,,,,,,,,
298234,2022-12-02_11h07.14.459,vts_reward_expectancy_bt,2022.2.4,MacIntel,59.99880002,Chrome,1440,900,,,,,0,1030,,,,,,,,,,,,,,,,,132,F,star,0,0,,,,,,,,,,,,,,,,repeat,number,NA,f,Hi,,,,,,1.4654,3,,,,,,,,low,27,0,27,0,1,,,,,,,,,
298234,2022-12-02_11h07.14.459,vts_reward_expectancy_bt,2022.2.4,MacIntel,59.99880002,Chrome,1440,900,,,,,1,1031,,,,,,,,,,,,,,,,,139,Y,hexagon,1,1,,,,,,,,,,,,,,,,repeat,number,numRpt,d,Lo,,,,,,1.698,3,,,,,,,,low,28,0,28,0,1,,,,,,,,,
298234,2022-12-02_11h07.14.459,vts_reward_expectancy_bt,2022.2.4,MacIntel,59.99880002,Chrome,1440,900,,,,,0,1031,,,,,,,,,,,,,,,,,167,D,circle,-1,0,,,,,,,,,,,,,,,,switch,no_choice,NA,,Lo,,,,,,,3,,,,,,,,low,29,0,29,0,1,,,,,,,,,
298234,2022-12-02_11h07.14.459,vts_reward_expectancy_bt,2022.2.4,MacIntel,59.99880002,Chrome,1440,900,,,,,0,1031,,,,,,,,,,,,,,,,,181,B,triangle,0,0,,,,,,,,,,,,,,,,switch,letter,NA,k,Lo,,,,,,1.2495,3,,,,,,,,low,30,0,30,0,1,,,,,,,,,
298234,2022-12-02_11h07.14.459,vts_reward_expectancy_bt,2022.2.4,MacIntel,59.99880002,Chrome,1440,900,,,,,0,1031,,,,,,,,,,,,,,,,,146,W,star,1,1,,,,,,,,,,,,,,,,switch,number,numSwt,d,Hi,,,,,,1.8976,3,,,,,,,,low,31,0,31,0,1,,,,,,,,,
298234,2022-12-02_11h07.14.459,vts_reward_expectancy_bt,2022.2.4,MacIntel,59.99880002,Chrome,1440,900,,,,,10,1041,,,,,,,,,,,,,,,,,181,F,hexagon,1,0,,,,,,,,,,,,,,,,switch,letter,lettSwt,j,Lo,,,,,,1.4343,4,,,,,,space,0.716,low,0,0,0,0,1,,,,,,,,,
298234,2022-12-02_11h07.14.459,vts_reward_expectancy_bt,2022.2.4,MacIntel,59.99880002,Chrome,1440,900,,,,,0,1041,,,,,,,,,,,,,,,,,160,W,circle,1,0,,,,,,,,,,,,,,,,repeat,letter,lettRpt,k,Hi,,,,,,1.514,4,,,,,,,,low,1,0,1,0,1,,,,,,,,,
298234,2022-12-02_11h07.14.459,vts_reward_expectancy_bt,2022.2.4,MacIntel,59.99880002,Chrome,1440,900,,,,,0,1041,,,,,,,,,,,,,,,,,125,D,star,1,0,,,,,,,,,,,,,,,,switch,number,numSwt,d,Hi,,,,,,1.3683,4,,,,,,,,low,2,0,2,0,1,,,,,,,,,
298234,2022-12-02_11h07.14.459,vts_reward_expectancy_bt,2022.2.4,MacIntel,59.99880002,Chrome,1440,900,,,,,1,1042,,,,,,,,,,,,,,,,,167,B,triangle,1,0,,,,,,,,,,,,,,,,repeat,number,numRpt,f,Lo,,,,,,0.9074,4,,,,,,,,low,3,0,3,0,1,,,,,,,,,
298234,2022-12-02_11h07.14.459,vts_reward_expectancy_bt,2022.2.4,MacIntel,59.99880002,Chrome,1440,900,,,,,1,1043,,,,,,,,,,,,,,,,,174,Y,hexagon,1,0,,,,,,,,,,,,,,,,repeat,number,numRpt,f,Lo,,,,,,2.0031,4,,,,,,,,low,4,0,4,0,1,,,,,,,,,
298234,2022-12-02_11h07.14.459,vts_reward_expectancy_bt,2022.2.4,MacIntel,59.99880002,Chrome,1440,900,,,,,0,1043,,,,,,,,,,,,,,,,,132,H,circle,1,0,,,,,,,,,,,,,,,,repeat,number,numRpt,d,Hi,,,,,,1.8306,4,,,,,,,,low,5,0,5,0,1,,,,,,,,,
298234,2022-12-02_11h07.14.459,vts_reward_expectancy_bt,2022.2.4,MacIntel,59.99880002,Chrome,1440,900,,,,,0,1043,,,,,,,,,,,,,,,,,139,U,star,0,0,,,,,,,,,,,,,,,,repeat,number,NA,f,Hi,,,,,,1.6507,4,,,,,,,,low,6,0,6,0,1,,,,,,,,,
298234,2022-12-02_11h07.14.459,vts_reward_expectancy_bt,2022.2.4,MacIntel,59.99880002,Chrome,1440,900,,,,,1,1044,,,,,,,,,,,,,,,,,146,S,triangle,1,1,,,,,,,,,,,,,,,,repeat,number,numRpt,d,Lo,,,,,,0.9658,4,,,,,,,,low,7,0,7,0,1,,,,,,,,,
298234,2022-12-02_11h07.14.459,vts_reward_expectancy_bt,2022.2.4,MacIntel,59.99880002,Chrome,1440,900,,,,,1,1045,,,,,,,,,,,,,,,,,181,F,hexagon,1,0,,,,,,,,,,,,,,,,repeat,number,numRpt,f,Lo,,,,,,0.9574,4,,,,,,,,low,8,0,8,0,1,,,,,,,,,
298234,2022-12-02_11h07.14.459,vts_reward_expectancy_bt,2022.2.4,MacIntel,59.99880002,Chrome,1440,900,,,,,1,1046,,,,,,,,,,,,,,,,,160,W,triangle,1,0,,,,,,,,,,,,,,,,repeat,number,numRpt,f,Lo,,,,,,0.7817,4,,,,,,,,low,9,0,9,0,1,,,,,,,,,
298234,2022-12-02_11h07.14.459,vts_reward_expectancy_bt,2022.2.4,MacIntel,59.99880002,Chrome,1440,900,,,,,0,1046,,,,,,,,,,,,,,,,,125,D,star,1,0,,,,,,,,,,,,,,,,repeat,number,numRpt,d,Hi,,,,,,1.0645,4,,,,,,,,low,10,0,10,0,1,,,,,,,,,
298234,2022-12-02_11h07.14.459,vts_reward_expectancy_bt,2022.2.4,MacIntel,59.99880002,Chrome,1440,900,,,,,10,1056,,,,,,,,,,,,,,,,,167,B,circle,1,0,,,,,,,,,,,,,,,,repeat,number,numRpt,f,Hi,,,,,,0.8408,4,,,,,,,,low,11,0,11,0,1,,,,,,,,,
298234,2022-12-02_11h07.14.459,vts_reward_expectancy_bt,2022.2.4,MacIntel,59.99880002,Chrome,1440,900,,,,,10,1066,,,,,,,,,,,,,,,,,174,Y,triangle,1,0,,,,,,,,,,,,,,,,repeat,number,numRpt,f,Lo,,,,,,0.8142,4,,,,,,,,low,12,0,12,0,1,,,,,,,,,
298234,2022-12-02_11h07.14.459,vts_reward_expectancy_bt,2022.2.4,MacIntel,59.99880002,Chrome,1440,900,,,,,10,1076,,,,,,,,,,,,,,,,,132,H,hexagon,1,0,,,,,,,,,,,,,,,,repeat,number,numRpt,d,Lo,,,,,,1.4491,4,,,,,,,,low,13,0,13,0,1,,,,,,,,,
298234,2022-12-02_11h07.14.459,vts_reward_expectancy_bt,2022.2.4,MacIntel,59.99880002,Chrome,1440,900,,,,,0,1076,,,,,,,,,,,,,,,,,139,U,circle,1,0,,,,,,,,,,,,,,,,repeat,number,numRpt,d,Hi,,,,,,0.849,4,,,,,,,,low,14,0,14,0,1,,,,,,,,,
298234,2022-12-02_11h07.14.459,vts_reward_expectancy_bt,2022.2.4,MacIntel,59.99880002,Chrome,1440,900,,,,,0,1076,,,,,,,,,,,,,,,,,146,S,star,0,0,,,,,,,,,,,,,,,,repeat,number,NA,f,Hi,,,,,,0.8159,4,,,,,,,,low,15,0,15,0,1,,,,,,,,,
298234,2022-12-02_11h07.14.459,vts_reward_expectancy_bt,2022.2.4,MacIntel,59.99880002,Chrome,1440,900,,,,,0,1076,,,,,,,,,,,,,,,,,125,H,circle,1,1,,,,,,,,,,,,,,,,switch,letter,lettSwt,j,Hi,,,,,,0.9733,4,,,,,,,,low,16,0,16,0,1,,,,,,,,,
298234,2022-12-02_11h07.14.459,vts_reward_expectancy_bt,2022.2.4,MacIntel,59.99880002,Chrome,1440,900,,,,,10,1086,,,,,,,,,,,,,,,,,132,F,hexagon,1,0,,,,,,,,,,,,,,,,repeat,letter,lettRpt,j,Lo,,,,,,0.7541,4,,,,,,,,low,17,0,17,0,1,,,,,,,,,
298234,2022-12-02_11h07.14.459,vts_reward_expectancy_bt,2022.2.4,MacIntel,59.99880002,Chrome,1440,900,,,,,1,1087,,,,,,,,,,,,,,,,,181,B,triangle,1,0,,,,,,,,,,,,,,,,repeat,letter,lettRpt,j,Lo,,,,,,0.6847,4,,,,,,,,low,18,0,18,0,1,,,,,,,,,
298234,2022-12-02_11h07.14.459,vts_reward_expectancy_bt,2022.2.4,MacIntel,59.99880002,Chrome,1440,900,,,,,0,1087,,,,,,,,,,,,,,,,,139,W,star,1,0,,,,,,,,,,,,,,,,repeat,letter,lettRpt,k,Hi,,,,,,1.1207,4,,,,,,,,low,19,0,19,0,1,,,,,,,,,
298234,2022-12-02_11h07.14.459,vts_reward_expectancy_bt,2022.2.4,MacIntel,59.99880002,Chrome,1440,900,,,,,0,1087,,,,,,,,,,,,,,,,,167,U,star,1,0,,,,,,,,,,,,,,,,repeat,letter,lettRpt,k,Hi,,,,,,1.6248,4,,,,,,,,low,20,0,20,0,1,,,,,,,,,
298234,2022-12-02_11h07.14.459,vts_reward_expectancy_bt,2022.2.4,MacIntel,59.99880002,Chrome,1440,900,,,,,0,1087,,,,,,,,,,,,,,,,,174,Y,circle,1,0,,,,,,,,,,,,,,,,repeat,letter,lettRpt,k,Hi,,,,,,0.8563,4,,,,,,,,low,21,0,21,0,1,,,,,,,,,
298234,2022-12-02_11h07.14.459,vts_reward_expectancy_bt,2022.2.4,MacIntel,59.99880002,Chrome,1440,900,,,,,1,1088,,,,,,,,,,,,,,,,,160,D,hexagon,1,0,,,,,,,,,,,,,,,,repeat,letter,lettRpt,j,Lo,,,,,,1.2904,4,,,,,,,,low,22,0,22,0,1,,,,,,,,,
298234,2022-12-02_11h07.14.459,vts_reward_expectancy_bt,2022.2.4,MacIntel,59.99880002,Chrome,1440,900,,,,,10,1098,,,,,,,,,,,,,,,,,146,S,triangle,1,0,,,,,,,,,,,,,,,,repeat,letter,lettRpt,k,Lo,,,,,,1.2164,4,,,,,,,,low,23,0,23,0,1,,,,,,,,,
298234,2022-12-02_11h07.14.459,vts_reward_expectancy_bt,2022.2.4,MacIntel,59.99880002,Chrome,1440,900,,,,,0,1098,,,,,,,,,,,,,,,,,139,S,star,1,0,,,,,,,,,,,,,,,,repeat,letter,lettRpt,k,Hi,,,,,,1.2238,4,,,,,,,,low,24,0,24,0,1,,,,,,,,,
298234,2022-12-02_11h07.14.459,vts_reward_expectancy_bt,2022.2.4,MacIntel,59.99880002,Chrome,1440,900,,,,,0,1098,,,,,,,,,,,,,,,,,160,W,circle,1,0,,,,,,,,,,,,,,,,repeat,letter,lettRpt,k,Hi,,,,,,1.5846,4,,,,,,,,low,25,0,25,0,1,,,,,,,,,
298234,2022-12-02_11h07.14.459,vts_reward_expectancy_bt,2022.2.4,MacIntel,59.99880002,Chrome,1440,900,,,,,1,1099,,,,,,,,,,,,,,,,,146,D,hexagon,1,0,,,,,,,,,,,,,,,,repeat,letter,lettRpt,j,Lo,,,,,,0.7638,4,,,,,,,,low,26,0,26,0,1,,,,,,,,,
298234,2022-12-02_11h07.14.459,vts_reward_expectancy_bt,2022.2.4,MacIntel,59.99880002,Chrome,1440,900,,,,,10,1109,,,,,,,,,,,,,,,,,167,F,triangle,1,0,,,,,,,,,,,,,,,,repeat,letter,lettRpt,j,Lo,,,,,,0.9731,4,,,,,,,,low,27,0,27,0,1,,,,,,,,,
298234,2022-12-02_11h07.14.459,vts_reward_expectancy_bt,2022.2.4,MacIntel,59.99880002,Chrome,1440,900,,,,,10,1119,,,,,,,,,,,,,,,,,174,Y,triangle,1,0,,,,,,,,,,,,,,,,repeat,letter,lettRpt,k,Lo,,,,,,0.8149,4,,,,,,,,low,28,0,28,0,1,,,,,,,,,
298234,2022-12-02_11h07.14.459,vts_reward_expectancy_bt,2022.2.4,MacIntel,59.99880002,Chrome,1440,900,,,,,0,1119,,,,,,,,,,,,,,,,,181,U,circle,1,0,,,,,,,,,,,,,,,,repeat,letter,lettRpt,k,Hi,,,,,,0.8781,4,,,,,,,,low,29,0,29,0,1,,,,,,,,,
298234,2022-12-02_11h07.14.459,vts_reward_expectancy_bt,2022.2.4,MacIntel,59.99880002,Chrome,1440,900,,,,,10,1129,,,,,,,,,,,,,,,,,125,B,hexagon,1,0,,,,,,,,,,,,,,,,repeat,letter,lettRpt,j,Lo,,,,,,1.9674,4,,,,,,,,low,30,0,30,0,1,,,,,,,,,
298234,2022-12-02_11h07.14.459,vts_reward_expectancy_bt,2022.2.4,MacIntel,59.99880002,Chrome,1440,900,,,,,0,1129,,,,,,,,,,,,,,,,,132,H,star,1,0,,,,,,,,,,,,,,,,repeat,letter,lettRpt,j,Hi,,,,,,1.1146,4,,,,,,,,low,31,0,31,0,1,,,,,,,,,
298234,2022-12-02_11h07.14.459,vts_reward_expectancy_bt,2022.2.4,MacIntel,59.99880002,Chrome,1440,900,,,,,0,1129,,,,,,,,,,,,,,,,,181,S,circle,1,0,,,,,,,,,,,,,,,,repeat,letter,lettRpt,k,Hi,,,,,,1.097,5,,,,,,space,0.8973,low,0,0,0,0,1,,,,,,,,,
298234,2022-12-02_11h07.14.459,vts_reward_expectancy_bt,2022.2.4,MacIntel,59.99880002,Chrome,1440,900,,,,,0,1129,,,,,,,,,,,,,,,,,132,H,star,1,0,,,,,,,,,,,,,,,,switch,number,numSwt,d,Hi,,,,,,1.4813,5,,,,,,,,low,1,0,1,0,1,,,,,,,,,
298234,2022-12-02_11h07.14.459,vts_reward_expectancy_bt,2022.2.4,MacIntel,59.99880002,Chrome,1440,900,,,,,0,1129,,,,,,,,,,,,,,,,,160,B,hexagon,-1,0,,,,,,,,,,,,,,,,switch,no_choice,NA,,Hi,,,,,,,5,,,,,,,,low,2,0,2,0,1,,,,,,,,,
298234,2022-12-02_11h07.14.459,vts_reward_expectancy_bt,2022.2.4,MacIntel,59.99880002,Chrome,1440,900,,,,,0,1129,,,,,,,,,,,,,,,,,174,D,triangle,0,0,,,,,,,,,,,,,,,,switch,number,NA,d,Hi,,,,,,2.1662,5,,,,,,,,low,3,0,3,0,1,,,,,,,,,
298234,2022-12-02_11h07.14.459,vts_reward_expectancy_bt,2022.2.4,MacIntel,59.99880002,Chrome,1440,900,,,,,0,1129,,,,,,,,,,,,,,,,,139,W,circle,1,1,,,,,,,,,,,,,,,,switch,letter,lettSwt,k,Hi,,,,,,2.0931,5,,,,,,,,low,4,0,4,0,1,,,,,,,,,
298234,2022-12-02_11h07.14.459,vts_reward_expectancy_bt,2022.2.4,MacIntel,59.99880002,Chrome,1440,900,,,,,0,1129,,,,,,,,,,,,,,,,,146,Y,star,1,0,,,,,,,,,,,,,,,,repeat,letter,lettRpt,k,Hi,,,,,,2.0326,5,,,,,,,,low,5,0,5,0,1,,,,,,,,,
298234,2022-12-02_11h07.14.459,vts_reward_expectancy_bt,2022.2.4,MacIntel,59.99880002,Chrome,1440,900,,,,,10,1139,,,,,,,,,,,,,,,,,125,U,hexagon,1,0,,,,,,,,,,,,,,,,repeat,letter,lettRpt,k,Lo,,,,,,2.1811,5,,,,,,,,low,6,0,6,0,1,,,,,,,,,
298234,2022-12-02_11h07.14.459,vts_reward_expectancy_bt,2022.2.4,MacIntel,59.99880002,Chrome,1440,900,,,,,0,1139,,,,,,,,,,,,,,,,,167,F,triangle,0,0,,,,,,,,,,,,,,,,repeat,letter,NA,k,Lo,,,,,,1.9026,5,,,,,,,,low,7,0,7,0,1,,,,,,,,,
298234,2022-12-02_11h07.14.459,vts_reward_expectancy_bt,2022.2.4,MacIntel,59.99880002,Chrome,1440,900,,,,,10,1149,,,,,,,,,,,,,,,,,181,S,triangle,1,1,,,,,,,,,,,,,,,,repeat,letter,lettRpt,k,Lo,,,,,,0.9153,5,,,,,,,,low,8,0,8,0,1,,,,,,,,,
298234,2022-12-02_11h07.14.459,vts_reward_expectancy_bt,2022.2.4,MacIntel,59.99880002,Chrome,1440,900,,,,,0,1149,,,,,,,,,,,,,,,,,132,H,circle,1,0,,,,,,,,,,,,,,,,repeat,letter,lettRpt,j,Hi,,,,,,2.2675,5,,,,,,,,low,9,0,9,0,1,,,,,,,,,
298234,2022-12-02_11h07.14.459,vts_reward_expectancy_bt,2022.2.4,MacIntel,59.99880002,Chrome,1440,900,,,,,1,1150,,,,,,,,,,,,,,,,,160,B,star,1,0,,,,,,,,,,,,,,,,repeat,letter,lettRpt,j,Hi,,,,,,0.8181,5,,,,,,,,low,10,0,10,0,1,,,,,,,,,
298234,2022-12-02_11h07.14.459,vts_reward_expectancy_bt,2022.2.4,MacIntel,59.99880002,Chrome,1440,900,,,,,0,1150,,,,,,,,,,,,,,,,,174,D,hexagon,0,0,,,,,,,,,,,,,,,,repeat,letter,NA,k,Hi,,,,,,1.1985,5,,,,,,,,low,11,0,11,0,1,,,,,,,,,
