participant,date,expName,psychopyVersion,OS,frameRate,browser,xResolution,yResolution,key_resp.keys,key_resp.rt,training_resp.keys,training_resp.rt,points_trial,points_cumul,trainBlock,training.thisRepN,training.thisTrialN,training.thisN,training.thisIndex,training.ran,LTriangleOpac,LCircleOpac,LHexagonOpac,LStarOpac,RTriangleOpac,RCircleOpac,RHexagonOpac,RStarOpac,LShape_ID,RShape_ID,curr_topStim,curr_bottStim,curr_shape,acc,E1,target_resp_prac1.keys,target_resp_prac1.rt,pracBlock,task1_prac_trials.thisRepN,task1_prac_trials.thisTrialN,task1_prac_trials.thisN,task1_prac_trials.thisIndex,task1_prac_trials.ran,target_resp_prac2.keys,target_resp_prac2.rt,task2_praac_trials.thisRepN,task2_praac_trials.thisTrialN,task2_praac_trials.thisN,task2_praac_trials.thisIndex,task2_praac_trials.ran,alt,task,condition,target_resp.keys,target_resp.rt,rewCond,vts_practice_trials.thisRepN,vts_practice_trials.thisTrialN,vts_practice_trials.thisN,vts_practice_trials.thisIndex,vts_practice_trials.ran,blockNum,trials_norew.thisRepN,trials_norew.thisTrialN,trials_norew.thisN,trials_norew.thisIndex,trials_norew.ran,key_resp_2.keys,key_resp_2.rt,rewExpectancy,trials_rew.thisRepN,trials_rew.thisTrialN,trials_rew.thisN,trials_rew.thisIndex,trials_rew.ran,Q1,Q2,Q2_text,Q3,Q4,Q5_text,Q5,xRes,yRes
298285,2022-11-29_12h04.19.394,vts_reward_expectancy_bt,2022.2.4,MacIntel,120.0048002,Chrome,1512,982,,,,,,,,,,,,,,,,,,,,,,,,,,,,,,,,,,,,,,,,,,,,,,,,,,,,,,,,,,,,,,,,,,,,,,,,,,,,
298285,2022-11-29_12h04.19.394,vts_reward_expectancy_bt,2022.2.4,MacIntel,120.0048002,Chrome,1512,982,space,16.2461,,,,,,,,,,,,,,,,,,,,,,,,,,,,,,,,,,,,,,,,,,,,,,,,,,,,,,,,,,,,,,,,,,,,,,,,,,
298285,2022-11-29_12h04.19.394,vts_reward_expectancy_bt,2022.2.4,MacIntel,120.0048002,Chrome,1512,982,,,,,,,,,,,,,,,,,,,,,,,,,,,,,,,,,,,,,,,,,,,,,,,,,,,,,,,,,,,,,,,,,,,,,,,,,,,,
298285,2022-11-29_12h04.19.394,vts_reward_expectancy_bt,2022.2.4,MacIntel,120.0048002,Chrome,1512,982,,,a,3.6171,1,1,0,0,0,0,1,1,1,0,0,0,0,0,1,0,triangle,hexagon,,,,,,,,,,,,,,,,,,,,,,,,,,,,,,,,,,,,,,,,,,,,,,,,,,,,,,
298285,2022-11-29_12h04.19.394,vts_reward_expectancy_bt,2022.2.4,MacIntel,120.0048002,Chrome,1512,982,,,a,1.695,10,11,0,0,1,1,11,1,0,0,0,1,0,0,1,0,star,hexagon,,,,,,,,,,,,,,,,,,,,,,,,,,,,,,,,,,,,,,,,,,,,,,,,,,,,,,
298285,2022-11-29_12h04.19.394,vts_reward_expectancy_bt,2022.2.4,MacIntel,120.0048002,Chrome,1512,982,,,l,1.6487,10,21,0,0,2,2,8,1,0,0,1,0,0,0,0,1,hexagon,star,,,,,,,,,,,,,,,,,,,,,,,,,,,,,,,,,,,,,,,,,,,,,,,,,,,,,,
298285,2022-11-29_12h04.19.394,vts_reward_expectancy_bt,2022.2.4,MacIntel,120.0048002,Chrome,1512,982,,,l,1.4441,10,31,0,0,3,3,4,1,0,1,0,0,0,0,1,0,circle,hexagon,,,,,,,,,,,,,,,,,,,,,,,,,,,,,,,,,,,,,,,,,,,,,,,,,,,,,,
298285,2022-11-29_12h04.19.394,vts_reward_expectancy_bt,2022.2.4,MacIntel,120.0048002,Chrome,1512,982,,,l,0.9817,10,41,0,0,4,4,2,1,1,0,0,0,0,0,0,1,triangle,star,,,,,,,,,,,,,,,,,,,,,,,,,,,,,,,,,,,,,,,,,,,,,,,,,,,,,,
298285,2022-11-29_12h04.19.394,vts_reward_expectancy_bt,2022.2.4,MacIntel,120.0048002,Chrome,1512,982,,,a,0.9288,1,42,0,0,5,5,9,1,0,0,0,1,1,0,0,0,star,triangle,,,,,,,,,,,,,,,,,,,,,,,,,,,,,,,,,,,,,,,,,,,,,,,,,,,,,,
298285,2022-11-29_12h04.19.394,vts_reward_expectancy_bt,2022.2.4,MacIntel,120.0048002,Chrome,1512,982,,,a,1.095,10,52,0,0,6,6,0,1,1,0,0,0,0,1,0,0,triangle,circle,,,,,,,,,,,,,,,,,,,,,,,,,,,,,,,,,,,,,,,,,,,,,,,,,,,,,,
298285,2022-11-29_12h04.19.394,vts_reward_expectancy_bt,2022.2.4,MacIntel,120.0048002,Chrome,1512,982,,,a,0.688,1,53,0,0,7,7,7,1,0,0,1,0,0,1,0,0,hexagon,circle,,,,,,,,,,,,,,,,,,,,,,,,,,,,,,,,,,,,,,,,,,,,,,,,,,,,,,
298285,2022-11-29_12h04.19.394,vts_reward_expectancy_bt,2022.2.4,MacIntel,120.0048002,Chrome,1512,982,,,l,1.0014,10,63,0,0,8,8,3,1,0,1,0,0,1,0,0,0,circle,triangle,,,,,,,,,,,,,,,,,,,,,,,,,,,,,,,,,,,,,,,,,,,,,,,,,,,,,,
298285,2022-11-29_12h04.19.394,vts_reward_expectancy_bt,2022.2.4,MacIntel,120.0048002,Chrome,1512,982,,,a,0.573,1,64,0,0,9,9,6,1,0,0,1,0,1,0,0,0,hexagon,triangle,,,,,,,,,,,,,,,,,,,,,,,,,,,,,,,,,,,,,,,,,,,,,,,,,,,,,,
298285,2022-11-29_12h04.19.394,vts_reward_expectancy_bt,2022.2.4,MacIntel,120.0048002,Chrome,1512,982,,,a,0.4958,1,65,0,0,10,10,10,1,0,0,0,1,0,1,0,0,star ,circle,,,,,,,,,,,,,,,,,,,,,,,,,,,,,,,,,,,,,,,,,,,,,,,,,,,,,,
298285,2022-11-29_12h04.19.394,vts_reward_expectancy_bt,2022.2.4,MacIntel,120.0048002,Chrome,1512,982,,,l,1.2475,10,75,0,0,11,11,5,1,0,1,0,0,0,0,0,1,circle,star,,,,,,,,,,,,,,,,,,,,,,,,,,,,,,,,,,,,,,,,,,,,,,,,,,,,,,
298285,2022-11-29_12h04.19.394,vts_reward_expectancy_bt,2022.2.4,MacIntel,120.0048002,Chrome,1512,982,,,l,0.5324,1,76,0,1,0,12,2,1,1,0,0,0,0,0,0,1,triangle,star,,,,,,,,,,,,,,,,,,,,,,,,,,,,,,,,,,,,,,,,,,,,,,,,,,,,,,
298285,2022-11-29_12h04.19.394,vts_reward_expectancy_bt,2022.2.4,MacIntel,120.0048002,Chrome,1512,982,,,a,0.4893,1,77,0,1,1,13,6,1,0,0,1,0,1,0,0,0,hexagon,triangle,,,,,,,,,,,,,,,,,,,,,,,,,,,,,,,,,,,,,,,,,,,,,,,,,,,,,,
298285,2022-11-29_12h04.19.394,vts_reward_expectancy_bt,2022.2.4,MacIntel,120.0048002,Chrome,1512,982,,,a,0.6746,1,78,0,1,2,14,10,1,0,0,0,1,0,1,0,0,star ,circle,,,,,,,,,,,,,,,,,,,,,,,,,,,,,,,,,,,,,,,,,,,,,,,,,,,,,,
298285,2022-11-29_12h04.19.394,vts_reward_expectancy_bt,2022.2.4,MacIntel,120.0048002,Chrome,1512,982,,,l,0.6409,1,79,0,1,3,15,1,1,1,0,0,0,0,0,1,0,triangle,hexagon,,,,,,,,,,,,,,,,,,,,,,,,,,,,,,,,,,,,,,,,,,,,,,,,,,,,,,
298285,2022-11-29_12h04.19.394,vts_reward_expectancy_bt,2022.2.4,MacIntel,120.0048002,Chrome,1512,982,,,l,0.856,10,89,0,1,4,16,11,1,0,0,0,1,0,0,1,0,star,hexagon,,,,,,,,,,,,,,,,,,,,,,,,,,,,,,,,,,,,,,,,,,,,,,,,,,,,,,
298285,2022-11-29_12h04.19.394,vts_reward_expectancy_bt,2022.2.4,MacIntel,120.0048002,Chrome,1512,982,,,a,0.751,1,90,0,1,5,17,8,1,0,0,1,0,0,0,0,1,hexagon,star,,,,,,,,,,,,,,,,,,,,,,,,,,,,,,,,,,,,,,,,,,,,,,,,,,,,,,
298285,2022-11-29_12h04.19.394,vts_reward_expectancy_bt,2022.2.4,MacIntel,120.0048002,Chrome,1512,982,,,a,0.779,1,91,0,1,6,18,7,1,0,0,1,0,0,1,0,0,hexagon,circle,,,,,,,,,,,,,,,,,,,,,,,,,,,,,,,,,,,,,,,,,,,,,,,,,,,,,,
298285,2022-11-29_12h04.19.394,vts_reward_expectancy_bt,2022.2.4,MacIntel,120.0048002,Chrome,1512,982,,,a,0.5793,10,101,0,1,7,19,9,1,0,0,0,1,1,0,0,0,star,triangle,,,,,,,,,,,,,,,,,,,,,,,,,,,,,,,,,,,,,,,,,,,,,,,,,,,,,,
298285,2022-11-29_12h04.19.394,vts_reward_expectancy_bt,2022.2.4,MacIntel,120.0048002,Chrome,1512,982,,,l,0.4972,10,111,0,1,8,20,0,1,1,0,0,0,0,1,0,0,triangle,circle,,,,,,,,,,,,,,,,,,,,,,,,,,,,,,,,,,,,,,,,,,,,,,,,,,,,,,
298285,2022-11-29_12h04.19.394,vts_reward_expectancy_bt,2022.2.4,MacIntel,120.0048002,Chrome,1512,982,,,l,0.5486,1,112,0,1,9,21,4,1,0,1,0,0,0,0,1,0,circle,hexagon,,,,,,,,,,,,,,,,,,,,,,,,,,,,,,,,,,,,,,,,,,,,,,,,,,,,,,
298285,2022-11-29_12h04.19.394,vts_reward_expectancy_bt,2022.2.4,MacIntel,120.0048002,Chrome,1512,982,,,a,0.5223,10,122,0,1,10,22,3,1,0,1,0,0,1,0,0,0,circle,triangle,,,,,,,,,,,,,,,,,,,,,,,,,,,,,,,,,,,,,,,,,,,,,,,,,,,,,,
298285,2022-11-29_12h04.19.394,vts_reward_expectancy_bt,2022.2.4,MacIntel,120.0048002,Chrome,1512,982,,,l,0.4528,10,132,0,1,11,23,5,1,0,1,0,0,0,0,0,1,circle,star,,,,,,,,,,,,,,,,,,,,,,,,,,,,,,,,,,,,,,,,,,,,,,,,,,,,,,
298285,2022-11-29_12h04.19.394,vts_reward_expectancy_bt,2022.2.4,MacIntel,120.0048002,Chrome,1512,982,,,l,0.6431,1,133,0,2,0,24,1,1,1,0,0,0,0,0,1,0,triangle,hexagon,,,,,,,,,,,,,,,,,,,,,,,,,,,,,,,,,,,,,,,,,,,,,,,,,,,,,,
298285,2022-11-29_12h04.19.394,vts_reward_expectancy_bt,2022.2.4,MacIntel,120.0048002,Chrome,1512,982,,,a,0.6039,1,134,0,2,1,25,3,1,0,1,0,0,1,0,0,0,circle,triangle,,,,,,,,,,,,,,,,,,,,,,,,,,,,,,,,,,,,,,,,,,,,,,,,,,,,,,
298285,2022-11-29_12h04.19.394,vts_reward_expectancy_bt,2022.2.4,MacIntel,120.0048002,Chrome,1512,982,,,l,0.5304,10,144,0,2,2,26,5,1,0,1,0,0,0,0,0,1,circle,star,,,,,,,,,,,,,,,,,,,,,,,,,,,,,,,,,,,,,,,,,,,,,,,,,,,,,,
298285,2022-11-29_12h04.19.394,vts_reward_expectancy_bt,2022.2.4,MacIntel,120.0048002,Chrome,1512,982,,,l,0.5046,10,154,0,2,3,27,2,1,1,0,0,0,0,0,0,1,triangle,star,,,,,,,,,,,,,,,,,,,,,,,,,,,,,,,,,,,,,,,,,,,,,,,,,,,,,,
298285,2022-11-29_12h04.19.394,vts_reward_expectancy_bt,2022.2.4,MacIntel,120.0048002,Chrome,1512,982,,,a,0.4645,10,164,0,2,4,28,10,1,0,0,0,1,0,1,0,0,star ,circle,,,,,,,,,,,,,,,,,,,,,,,,,,,,,,,,,,,,,,,,,,,,,,,,,,,,,,
298285,2022-11-29_12h04.19.394,vts_reward_expectancy_bt,2022.2.4,MacIntel,120.0048002,Chrome,1512,982,,,a,0.62,10,174,0,2,5,29,6,1,0,0,1,0,1,0,0,0,hexagon,triangle,,,,,,,,,,,,,,,,,,,,,,,,,,,,,,,,,,,,,,,,,,,,,,,,,,,,,,
298285,2022-11-29_12h04.19.394,vts_reward_expectancy_bt,2022.2.4,MacIntel,120.0048002,Chrome,1512,982,,,a,0.5511,10,184,0,2,6,30,9,1,0,0,0,1,1,0,0,0,star,triangle,,,,,,,,,,,,,,,,,,,,,,,,,,,,,,,,,,,,,,,,,,,,,,,,,,,,,,
298285,2022-11-29_12h04.19.394,vts_reward_expectancy_bt,2022.2.4,MacIntel,120.0048002,Chrome,1512,982,,,l,0.607,10,194,0,2,7,31,0,1,1,0,0,0,0,1,0,0,triangle,circle,,,,,,,,,,,,,,,,,,,,,,,,,,,,,,,,,,,,,,,,,,,,,,,,,,,,,,
298285,2022-11-29_12h04.19.394,vts_reward_expectancy_bt,2022.2.4,MacIntel,120.0048002,Chrome,1512,982,,,a,0.4237,10,204,0,2,8,32,11,1,0,0,0,1,0,0,1,0,star,hexagon,,,,,,,,,,,,,,,,,,,,,,,,,,,,,,,,,,,,,,,,,,,,,,,,,,,,,,
298285,2022-11-29_12h04.19.394,vts_reward_expectancy_bt,2022.2.4,MacIntel,120.0048002,Chrome,1512,982,,,l,0.3776,10,214,0,2,9,33,8,1,0,0,1,0,0,0,0,1,hexagon,star,,,,,,,,,,,,,,,,,,,,,,,,,,,,,,,,,,,,,,,,,,,,,,,,,,,,,,
298285,2022-11-29_12h04.19.394,vts_reward_expectancy_bt,2022.2.4,MacIntel,120.0048002,Chrome,1512,982,,,a,0.3981,10,224,0,2,10,34,4,1,0,1,0,0,0,0,1,0,circle,hexagon,,,,,,,,,,,,,,,,,,,,,,,,,,,,,,,,,,,,,,,,,,,,,,,,,,,,,,
298285,2022-11-29_12h04.19.394,vts_reward_expectancy_bt,2022.2.4,MacIntel,120.0048002,Chrome,1512,982,,,a,0.4236,1,225,0,2,11,35,7,1,0,0,1,0,0,1,0,0,hexagon,circle,,,,,,,,,,,,,,,,,,,,,,,,,,,,,,,,,,,,,,,,,,,,,,,,,,,,,,
298285,2022-11-29_12h04.19.394,vts_reward_expectancy_bt,2022.2.4,MacIntel,120.0048002,Chrome,1512,982,,,l,1.1108,10,235,1,0,0,0,2,1,1,0,0,0,0,0,0,1,triangle,star,,,,,,,,,,,,,,,,,,,,,,,,,,,,,,,,,,,,,,,,,,,,,,,,,,,,,,
298285,2022-11-29_12h04.19.394,vts_reward_expectancy_bt,2022.2.4,MacIntel,120.0048002,Chrome,1512,982,,,a,0.3454,10,245,1,0,1,1,10,1,0,0,0,1,0,1,0,0,star ,circle,,,,,,,,,,,,,,,,,,,,,,,,,,,,,,,,,,,,,,,,,,,,,,,,,,,,,,
298285,2022-11-29_12h04.19.394,vts_reward_expectancy_bt,2022.2.4,MacIntel,120.0048002,Chrome,1512,982,,,a,0.4229,10,255,1,0,2,2,6,1,0,0,1,0,1,0,0,0,hexagon,triangle,,,,,,,,,,,,,,,,,,,,,,,,,,,,,,,,,,,,,,,,,,,,,,,,,,,,,,
298285,2022-11-29_12h04.19.394,vts_reward_expectancy_bt,2022.2.4,MacIntel,120.0048002,Chrome,1512,982,,,l,0.3279,10,265,1,0,3,3,8,1,0,0,1,0,0,0,0,1,hexagon,star,,,,,,,,,,,,,,,,,,,,,,,,,,,,,,,,,,,,,,,,,,,,,,,,,,,,,,
298285,2022-11-29_12h04.19.394,vts_reward_expectancy_bt,2022.2.4,MacIntel,120.0048002,Chrome,1512,982,,,a,0.3108,10,275,1,0,4,4,1,1,1,0,0,0,0,0,1,0,triangle,hexagon,,,,,,,,,,,,,,,,,,,,,,,,,,,,,,,,,,,,,,,,,,,,,,,,,,,,,,
298285,2022-11-29_12h04.19.394,vts_reward_expectancy_bt,2022.2.4,MacIntel,120.0048002,Chrome,1512,982,,,l,0.333,1,276,1,0,5,5,4,1,0,1,0,0,0,0,1,0,circle,hexagon,,,,,,,,,,,,,,,,,,,,,,,,,,,,,,,,,,,,,,,,,,,,,,,,,,,,,,
298285,2022-11-29_12h04.19.394,vts_reward_expectancy_bt,2022.2.4,MacIntel,120.0048002,Chrome,1512,982,,,a,0.3722,1,277,1,0,6,6,11,1,0,0,0,1,0,0,1,0,star,hexagon,,,,,,,,,,,,,,,,,,,,,,,,,,,,,,,,,,,,,,,,,,,,,,,,,,,,,,
298285,2022-11-29_12h04.19.394,vts_reward_expectancy_bt,2022.2.4,MacIntel,120.0048002,Chrome,1512,982,,,a,0.3674,10,287,1,0,7,7,3,1,0,1,0,0,1,0,0,0,circle,triangle,,,,,,,,,,,,,,,,,,,,,,,,,,,,,,,,,,,,,,,,,,,,,,,,,,,,,,
298285,2022-11-29_12h04.19.394,vts_reward_expectancy_bt,2022.2.4,MacIntel,120.0048002,Chrome,1512,982,,,l,0.4874,10,297,1,0,8,8,0,1,1,0,0,0,0,1,0,0,triangle,circle,,,,,,,,,,,,,,,,,,,,,,,,,,,,,,,,,,,,,,,,,,,,,,,,,,,,,,
298285,2022-11-29_12h04.19.394,vts_reward_expectancy_bt,2022.2.4,MacIntel,120.0048002,Chrome,1512,982,,,a,0.3907,1,298,1,0,9,9,7,1,0,0,1,0,0,1,0,0,hexagon,circle,,,,,,,,,,,,,,,,,,,,,,,,,,,,,,,,,,,,,,,,,,,,,,,,,,,,,,
298285,2022-11-29_12h04.19.394,vts_reward_expectancy_bt,2022.2.4,MacIntel,120.0048002,Chrome,1512,982,,,a,0.4044,1,299,1,0,10,10,9,1,0,0,0,1,1,0,0,0,star,triangle,,,,,,,,,,,,,,,,,,,,,,,,,,,,,,,,,,,,,,,,,,,,,,,,,,,,,,
298285,2022-11-29_12h04.19.394,vts_reward_expectancy_bt,2022.2.4,MacIntel,120.0048002,Chrome,1512,982,,,l,0.326,1,300,1,0,11,11,5,1,0,1,0,0,0,0,0,1,circle,star,,,,,,,,,,,,,,,,,,,,,,,,,,,,,,,,,,,,,,,,,,,,,,,,,,,,,,
298285,2022-11-29_12h04.19.394,vts_reward_expectancy_bt,2022.2.4,MacIntel,120.0048002,Chrome,1512,982,,,l,0.3155,10,310,1,1,0,12,2,1,1,0,0,0,0,0,0,1,triangle,star,,,,,,,,,,,,,,,,,,,,,,,,,,,,,,,,,,,,,,,,,,,,,,,,,,,,,,
298285,2022-11-29_12h04.19.394,vts_reward_expectancy_bt,2022.2.4,MacIntel,120.0048002,Chrome,1512,982,,,a,0.3301,10,320,1,1,1,13,4,1,0,1,0,0,0,0,1,0,circle,hexagon,,,,,,,,,,,,,,,,,,,,,,,,,,,,,,,,,,,,,,,,,,,,,,,,,,,,,,
298285,2022-11-29_12h04.19.394,vts_reward_expectancy_bt,2022.2.4,MacIntel,120.0048002,Chrome,1512,982,,,a,0.3991,1,321,1,1,2,14,11,1,0,0,0,1,0,0,1,0,star,hexagon,,,,,,,,,,,,,,,,,,,,,,,,,,,,,,,,,,,,,,,,,,,,,,,,,,,,,,
298285,2022-11-29_12h04.19.394,vts_reward_expectancy_bt,2022.2.4,MacIntel,120.0048002,Chrome,1512,982,,,l,0.2696,10,331,1,1,3,15,7,1,0,0,1,0,0,1,0,0,hexagon,circle,,,,,,,,,,,,,,,,,,,,,,,,,,,,,,,,,,,,,,,,,,,,,,,,,,,,,,
298285,2022-11-29_12h04.19.394,vts_reward_expectancy_bt,2022.2.4,MacIntel,120.0048002,Chrome,1512,982,,,a,0.3164,1,332,1,1,4,16,6,1,0,0,1,0,1,0,0,0,hexagon,triangle,,,,,,,,,,,,,,,,,,,,,,,,,,,,,,,,,,,,,,,,,,,,,,,,,,,,,,
298285,2022-11-29_12h04.19.394,vts_reward_expectancy_bt,2022.2.4,MacIntel,120.0048002,Chrome,1512,982,,,l,0.258,10,342,1,1,5,17,5,1,0,1,0,0,0,0,0,1,circle,star,,,,,,,,,,,,,,,,,,,,,,,,,,,,,,,,,,,,,,,,,,,,,,,,,,,,,,
298285,2022-11-29_12h04.19.394,vts_reward_expectancy_bt,2022.2.4,MacIntel,120.0048002,Chrome,1512,982,,,a,0.4211,1,343,1,1,6,18,9,1,0,0,0,1,1,0,0,0,star,triangle,,,,,,,,,,,,,,,,,,,,,,,,,,,,,,,,,,,,,,,,,,,,,,,,,,,,,,
298285,2022-11-29_12h04.19.394,vts_reward_expectancy_bt,2022.2.4,MacIntel,120.0048002,Chrome,1512,982,,,l,0.5151,10,353,1,1,7,19,3,1,0,1,0,0,1,0,0,0,circle,triangle,,,,,,,,,,,,,,,,,,,,,,,,,,,,,,,,,,,,,,,,,,,,,,,,,,,,,,
298285,2022-11-29_12h04.19.394,vts_reward_expectancy_bt,2022.2.4,MacIntel,120.0048002,Chrome,1512,982,,,l,0.5811,10,363,1,1,8,20,10,1,0,0,0,1,0,1,0,0,star ,circle,,,,,,,,,,,,,,,,,,,,,,,,,,,,,,,,,,,,,,,,,,,,,,,,,,,,,,
298285,2022-11-29_12h04.19.394,vts_reward_expectancy_bt,2022.2.4,MacIntel,120.0048002,Chrome,1512,982,,,l,0.3813,10,373,1,1,9,21,8,1,0,0,1,0,0,0,0,1,hexagon,star,,,,,,,,,,,,,,,,,,,,,,,,,,,,,,,,,,,,,,,,,,,,,,,,,,,,,,
298285,2022-11-29_12h04.19.394,vts_reward_expectancy_bt,2022.2.4,MacIntel,120.0048002,Chrome,1512,982,,,a,0.2642,1,374,1,1,10,22,1,1,1,0,0,0,0,0,1,0,triangle,hexagon,,,,,,,,,,,,,,,,,,,,,,,,,,,,,,,,,,,,,,,,,,,,,,,,,,,,,,
298285,2022-11-29_12h04.19.394,vts_reward_expectancy_bt,2022.2.4,MacIntel,120.0048002,Chrome,1512,982,,,a,0.3987,1,375,1,1,11,23,0,1,1,0,0,0,0,1,0,0,triangle,circle,,,,,,,,,,,,,,,,,,,,,,,,,,,,,,,,,,,,,,,,,,,,,,,,,,,,,,
298285,2022-11-29_12h04.19.394,vts_reward_expectancy_bt,2022.2.4,MacIntel,120.0048002,Chrome,1512,982,,,l,0.2847,1,376,1,2,0,24,8,1,0,0,1,0,0,0,0,1,hexagon,star,,,,,,,,,,,,,,,,,,,,,,,,,,,,,,,,,,,,,,,,,,,,,,,,,,,,,,
298285,2022-11-29_12h04.19.394,vts_reward_expectancy_bt,2022.2.4,MacIntel,120.0048002,Chrome,1512,982,,,l,0.4293,1,377,1,2,1,25,1,1,1,0,0,0,0,0,1,0,triangle,hexagon,,,,,,,,,,,,,,,,,,,,,,,,,,,,,,,,,,,,,,,,,,,,,,,,,,,,,,
298285,2022-11-29_12h04.19.394,vts_reward_expectancy_bt,2022.2.4,MacIntel,120.0048002,Chrome,1512,982,,,l,0.4654,10,387,1,2,2,26,5,1,0,1,0,0,0,0,0,1,circle,star,,,,,,,,,,,,,,,,,,,,,,,,,,,,,,,,,,,,,,,,,,,,,,,,,,,,,,
298285,2022-11-29_12h04.19.394,vts_reward_expectancy_bt,2022.2.4,MacIntel,120.0048002,Chrome,1512,982,,,a,0.5558,10,397,1,2,3,27,9,1,0,0,0,1,1,0,0,0,star,triangle,,,,,,,,,,,,,,,,,,,,,,,,,,,,,,,,,,,,,,,,,,,,,,,,,,,,,,
298285,2022-11-29_12h04.19.394,vts_reward_expectancy_bt,2022.2.4,MacIntel,120.0048002,Chrome,1512,982,,,a,0.3614,10,407,1,2,4,28,10,1,0,0,0,1,0,1,0,0,star ,circle,,,,,,,,,,,,,,,,,,,,,,,,,,,,,,,,,,,,,,,,,,,,,,,,,,,,,,
298285,2022-11-29_12h04.19.394,vts_reward_expectancy_bt,2022.2.4,MacIntel,120.0048002,Chrome,1512,982,,,l,0.2585,10,417,1,2,5,29,7,1,0,0,1,0,0,1,0,0,hexagon,circle,,,,,,,,,,,,,,,,,,,,,,,,,,,,,,,,,,,,,,,,,,,,,,,,,,,,,,
298285,2022-11-29_12h04.19.394,vts_reward_expectancy_bt,2022.2.4,MacIntel,120.0048002,Chrome,1512,982,,,a,0.2982,1,418,1,2,6,30,4,1,0,1,0,0,0,0,1,0,circle,hexagon,,,,,,,,,,,,,,,,,,,,,,,,,,,,,,,,,,,,,,,,,,,,,,,,,,,,,,
298285,2022-11-29_12h04.19.394,vts_reward_expectancy_bt,2022.2.4,MacIntel,120.0048002,Chrome,1512,982,,,l,0.358,1,419,1,2,7,31,2,1,1,0,0,0,0,0,0,1,triangle,star,,,,,,,,,,,,,,,,,,,,,,,,,,,,,,,,,,,,,,,,,,,,,,,,,,,,,,
298285,2022-11-29_12h04.19.394,vts_reward_expectancy_bt,2022.2.4,MacIntel,120.0048002,Chrome,1512,982,,,a,0.3603,10,429,1,2,8,32,11,1,0,0,0,1,0,0,1,0,star,hexagon,,,,,,,,,,,,,,,,,,,,,,,,,,,,,,,,,,,,,,,,,,,,,,,,,,,,,,
298285,2022-11-29_12h04.19.394,vts_reward_expectancy_bt,2022.2.4,MacIntel,120.0048002,Chrome,1512,982,,,l,0.4763,1,430,1,2,9,33,3,1,0,1,0,0,1,0,0,0,circle,triangle,,,,,,,,,,,,,,,,,,,,,,,,,,,,,,,,,,,,,,,,,,,,,,,,,,,,,,
298285,2022-11-29_12h04.19.394,vts_reward_expectancy_bt,2022.2.4,MacIntel,120.0048002,Chrome,1512,982,,,l,0.5087,1,431,1,2,10,34,6,1,0,0,1,0,1,0,0,0,hexagon,triangle,,,,,,,,,,,,,,,,,,,,,,,,,,,,,,,,,,,,,,,,,,,,,,,,,,,,,,
298285,2022-11-29_12h04.19.394,vts_reward_expectancy_bt,2022.2.4,MacIntel,120.0048002,Chrome,1512,982,,,a,0.3818,10,441,1,2,11,35,0,1,1,0,0,0,0,1,0,0,triangle,circle,,,,,,,,,,,,,,,,,,,,,,,,,,,,,,,,,,,,,,,,,,,,,,,,,,,,,,
298285,2022-11-29_12h04.19.394,vts_reward_expectancy_bt,2022.2.4,MacIntel,120.0048002,Chrome,1512,982,,,a,1.3094,1,442,2,0,0,0,7,1,0,0,1,0,0,1,0,0,hexagon,circle,,,,,,,,,,,,,,,,,,,,,,,,,,,,,,,,,,,,,,,,,,,,,,,,,,,,,,
298285,2022-11-29_12h04.19.394,vts_reward_expectancy_bt,2022.2.4,MacIntel,120.0048002,Chrome,1512,982,,,a,0.2877,1,443,2,0,1,1,0,1,1,0,0,0,0,1,0,0,triangle,circle,,,,,,,,,,,,,,,,,,,,,,,,,,,,,,,,,,,,,,,,,,,,,,,,,,,,,,
298285,2022-11-29_12h04.19.394,vts_reward_expectancy_bt,2022.2.4,MacIntel,120.0048002,Chrome,1512,982,,,a,0.3572,1,444,2,0,2,2,10,1,0,0,0,1,0,1,0,0,star ,circle,,,,,,,,,,,,,,,,,,,,,,,,,,,,,,,,,,,,,,,,,,,,,,,,,,,,,,
298285,2022-11-29_12h04.19.394,vts_reward_expectancy_bt,2022.2.4,MacIntel,120.0048002,Chrome,1512,982,,,l,0.2794,10,454,2,0,3,3,2,1,1,0,0,0,0,0,0,1,triangle,star,,,,,,,,,,,,,,,,,,,,,,,,,,,,,,,,,,,,,,,,,,,,,,,,,,,,,,
298285,2022-11-29_12h04.19.394,vts_reward_expectancy_bt,2022.2.4,MacIntel,120.0048002,Chrome,1512,982,,,a,0.354,10,464,2,0,4,4,9,1,0,0,0,1,1,0,0,0,star,triangle,,,,,,,,,,,,,,,,,,,,,,,,,,,,,,,,,,,,,,,,,,,,,,,,,,,,,,
298285,2022-11-29_12h04.19.394,vts_reward_expectancy_bt,2022.2.4,MacIntel,120.0048002,Chrome,1512,982,,,l,0.3413,1,465,2,0,5,5,3,1,0,1,0,0,1,0,0,0,circle,triangle,,,,,,,,,,,,,,,,,,,,,,,,,,,,,,,,,,,,,,,,,,,,,,,,,,,,,,
298285,2022-11-29_12h04.19.394,vts_reward_expectancy_bt,2022.2.4,MacIntel,120.0048002,Chrome,1512,982,,,l,0.2994,10,475,2,0,6,6,5,1,0,1,0,0,0,0,0,1,circle,star,,,,,,,,,,,,,,,,,,,,,,,,,,,,,,,,,,,,,,,,,,,,,,,,,,,,,,
298285,2022-11-29_12h04.19.394,vts_reward_expectancy_bt,2022.2.4,MacIntel,120.0048002,Chrome,1512,982,,,a,0.2759,10,485,2,0,7,7,11,1,0,0,0,1,0,0,1,0,star,hexagon,,,,,,,,,,,,,,,,,,,,,,,,,,,,,,,,,,,,,,,,,,,,,,,,,,,,,,
298285,2022-11-29_12h04.19.394,vts_reward_expectancy_bt,2022.2.4,MacIntel,120.0048002,Chrome,1512,982,,,l,0.2503,1,486,2,0,8,8,6,1,0,0,1,0,1,0,0,0,hexagon,triangle,,,,,,,,,,,,,,,,,,,,,,,,,,,,,,,,,,,,,,,,,,,,,,,,,,,,,,
298285,2022-11-29_12h04.19.394,vts_reward_expectancy_bt,2022.2.4,MacIntel,120.0048002,Chrome,1512,982,,,a,0.5206,1,487,2,0,9,9,1,1,1,0,0,0,0,0,1,0,triangle,hexagon,,,,,,,,,,,,,,,,,,,,,,,,,,,,,,,,,,,,,,,,,,,,,,,,,,,,,,
298285,2022-11-29_12h04.19.394,vts_reward_expectancy_bt,2022.2.4,MacIntel,120.0048002,Chrome,1512,982,,,l,0.431,1,488,2,0,10,10,8,1,0,0,1,0,0,0,0,1,hexagon,star,,,,,,,,,,,,,,,,,,,,,,,,,,,,,,,,,,,,,,,,,,,,,,,,,,,,,,
298285,2022-11-29_12h04.19.394,vts_reward_expectancy_bt,2022.2.4,MacIntel,120.0048002,Chrome,1512,982,,,a,0.4139,10,498,2,0,11,11,4,1,0,1,0,0,0,0,1,0,circle,hexagon,,,,,,,,,,,,,,,,,,,,,,,,,,,,,,,,,,,,,,,,,,,,,,,,,,,,,,
298285,2022-11-29_12h04.19.394,vts_reward_expectancy_bt,2022.2.4,MacIntel,120.0048002,Chrome,1512,982,,,l,0.3797,1,499,2,1,0,12,3,1,0,1,0,0,1,0,0,0,circle,triangle,,,,,,,,,,,,,,,,,,,,,,,,,,,,,,,,,,,,,,,,,,,,,,,,,,,,,,
298285,2022-11-29_12h04.19.394,vts_reward_expectancy_bt,2022.2.4,MacIntel,120.0048002,Chrome,1512,982,,,l,0.4038,10,509,2,1,1,13,8,1,0,0,1,0,0,0,0,1,hexagon,star,,,,,,,,,,,,,,,,,,,,,,,,,,,,,,,,,,,,,,,,,,,,,,,,,,,,,,
298285,2022-11-29_12h04.19.394,vts_reward_expectancy_bt,2022.2.4,MacIntel,120.0048002,Chrome,1512,982,,,a,0.5302,10,519,2,1,2,14,9,1,0,0,0,1,1,0,0,0,star,triangle,,,,,,,,,,,,,,,,,,,,,,,,,,,,,,,,,,,,,,,,,,,,,,,,,,,,,,
298285,2022-11-29_12h04.19.394,vts_reward_expectancy_bt,2022.2.4,MacIntel,120.0048002,Chrome,1512,982,,,l,0.4323,1,520,2,1,3,15,7,1,0,0,1,0,0,1,0,0,hexagon,circle,,,,,,,,,,,,,,,,,,,,,,,,,,,,,,,,,,,,,,,,,,,,,,,,,,,,,,
298285,2022-11-29_12h04.19.394,vts_reward_expectancy_bt,2022.2.4,MacIntel,120.0048002,Chrome,1512,982,,,a,0.3807,10,530,2,1,4,16,11,1,0,0,0,1,0,0,1,0,star,hexagon,,,,,,,,,,,,,,,,,,,,,,,,,,,,,,,,,,,,,,,,,,,,,,,,,,,,,,
298285,2022-11-29_12h04.19.394,vts_reward_expectancy_bt,2022.2.4,MacIntel,120.0048002,Chrome,1512,982,,,a,0.5914,1,531,2,1,5,17,6,1,0,0,1,0,1,0,0,0,hexagon,triangle,,,,,,,,,,,,,,,,,,,,,,,,,,,,,,,,,,,,,,,,,,,,,,,,,,,,,,
298285,2022-11-29_12h04.19.394,vts_reward_expectancy_bt,2022.2.4,MacIntel,120.0048002,Chrome,1512,982,,,l,0.4479,1,532,2,1,6,18,1,1,1,0,0,0,0,0,1,0,triangle,hexagon,,,,,,,,,,,,,,,,,,,,,,,,,,,,,,,,,,,,,,,,,,,,,,,,,,,,,,
298285,2022-11-29_12h04.19.394,vts_reward_expectancy_bt,2022.2.4,MacIntel,120.0048002,Chrome,1512,982,,,a,0.4005,1,533,2,1,7,19,10,1,0,0,0,1,0,1,0,0,star ,circle,,,,,,,,,,,,,,,,,,,,,,,,,,,,,,,,,,,,,,,,,,,,,,,,,,,,,,
298285,2022-11-29_12h04.19.394,vts_reward_expectancy_bt,2022.2.4,MacIntel,120.0048002,Chrome,1512,982,,,l,0.2629,10,543,2,1,8,20,5,1,0,1,0,0,0,0,0,1,circle,star,,,,,,,,,,,,,,,,,,,,,,,,,,,,,,,,,,,,,,,,,,,,,,,,,,,,,,
298285,2022-11-29_12h04.19.394,vts_reward_expectancy_bt,2022.2.4,MacIntel,120.0048002,Chrome,1512,982,,,a,0.346,1,544,2,1,9,21,0,1,1,0,0,0,0,1,0,0,triangle,circle,,,,,,,,,,,,,,,,,,,,,,,,,,,,,,,,,,,,,,,,,,,,,,,,,,,,,,
298285,2022-11-29_12h04.19.394,vts_reward_expectancy_bt,2022.2.4,MacIntel,120.0048002,Chrome,1512,982,,,l,0.2657,10,554,2,1,10,22,2,1,1,0,0,0,0,0,0,1,triangle,star,,,,,,,,,,,,,,,,,,,,,,,,,,,,,,,,,,,,,,,,,,,,,,,,,,,,,,
298285,2022-11-29_12h04.19.394,vts_reward_expectancy_bt,2022.2.4,MacIntel,120.0048002,Chrome,1512,982,,,l,0.4196,1,555,2,1,11,23,4,1,0,1,0,0,0,0,1,0,circle,hexagon,,,,,,,,,,,,,,,,,,,,,,,,,,,,,,,,,,,,,,,,,,,,,,,,,,,,,,
298285,2022-11-29_12h04.19.394,vts_reward_expectancy_bt,2022.2.4,MacIntel,120.0048002,Chrome,1512,982,,,l,0.5105,1,556,2,2,0,24,1,1,1,0,0,0,0,0,1,0,triangle,hexagon,,,,,,,,,,,,,,,,,,,,,,,,,,,,,,,,,,,,,,,,,,,,,,,,,,,,,,
298285,2022-11-29_12h04.19.394,vts_reward_expectancy_bt,2022.2.4,MacIntel,120.0048002,Chrome,1512,982,,,l,0.3781,10,566,2,2,1,25,8,1,0,0,1,0,0,0,0,1,hexagon,star,,,,,,,,,,,,,,,,,,,,,,,,,,,,,,,,,,,,,,,,,,,,,,,,,,,,,,
298285,2022-11-29_12h04.19.394,vts_reward_expectancy_bt,2022.2.4,MacIntel,120.0048002,Chrome,1512,982,,,l,0.49,10,576,2,2,2,26,5,1,0,1,0,0,0,0,0,1,circle,star,,,,,,,,,,,,,,,,,,,,,,,,,,,,,,,,,,,,,,,,,,,,,,,,,,,,,,
298285,2022-11-29_12h04.19.394,vts_reward_expectancy_bt,2022.2.4,MacIntel,120.0048002,Chrome,1512,982,,,a,0.3255,10,586,2,2,3,27,11,1,0,0,0,1,0,0,1,0,star,hexagon,,,,,,,,,,,,,,,,,,,,,,,,,,,,,,,,,,,,,,,,,,,,,,,,,,,,,,
298285,2022-11-29_12h04.19.394,vts_reward_expectancy_bt,2022.2.4,MacIntel,120.0048002,Chrome,1512,982,,,l,0.3174,10,596,2,2,4,28,2,1,1,0,0,0,0,0,0,1,triangle,star,,,,,,,,,,,,,,,,,,,,,,,,,,,,,,,,,,,,,,,,,,,,,,,,,,,,,,
298285,2022-11-29_12h04.19.394,vts_reward_expectancy_bt,2022.2.4,MacIntel,120.0048002,Chrome,1512,982,,,a,0.3396,10,606,2,2,5,29,9,1,0,0,0,1,1,0,0,0,star,triangle,,,,,,,,,,,,,,,,,,,,,,,,,,,,,,,,,,,,,,,,,,,,,,,,,,,,,,
298285,2022-11-29_12h04.19.394,vts_reward_expectancy_bt,2022.2.4,MacIntel,120.0048002,Chrome,1512,982,,,l,0.568,10,616,2,2,6,30,0,1,1,0,0,0,0,1,0,0,triangle,circle,,,,,,,,,,,,,,,,,,,,,,,,,,,,,,,,,,,,,,,,,,,,,,,,,,,,,,
298285,2022-11-29_12h04.19.394,vts_reward_expectancy_bt,2022.2.4,MacIntel,120.0048002,Chrome,1512,982,,,a,0.5429,1,617,2,2,7,31,3,1,0,1,0,0,1,0,0,0,circle,triangle,,,,,,,,,,,,,,,,,,,,,,,,,,,,,,,,,,,,,,,,,,,,,,,,,,,,,,
298285,2022-11-29_12h04.19.394,vts_reward_expectancy_bt,2022.2.4,MacIntel,120.0048002,Chrome,1512,982,,,a,0.4283,1,618,2,2,8,32,6,1,0,0,1,0,1,0,0,0,hexagon,triangle,,,,,,,,,,,,,,,,,,,,,,,,,,,,,,,,,,,,,,,,,,,,,,,,,,,,,,
298285,2022-11-29_12h04.19.394,vts_reward_expectancy_bt,2022.2.4,MacIntel,120.0048002,Chrome,1512,982,,,l,0.6075,1,619,2,2,9,33,7,1,0,0,1,0,0,1,0,0,hexagon,circle,,,,,,,,,,,,,,,,,,,,,,,,,,,,,,,,,,,,,,,,,,,,,,,,,,,,,,
298285,2022-11-29_12h04.19.394,vts_reward_expectancy_bt,2022.2.4,MacIntel,120.0048002,Chrome,1512,982,,,l,0.4616,1,620,2,2,10,34,4,1,0,1,0,0,0,0,1,0,circle,hexagon,,,,,,,,,,,,,,,,,,,,,,,,,,,,,,,,,,,,,,,,,,,,,,,,,,,,,,
298285,2022-11-29_12h04.19.394,vts_reward_expectancy_bt,2022.2.4,MacIntel,120.0048002,Chrome,1512,982,,,a,0.5866,1,621,2,2,11,35,10,1,0,0,0,1,0,1,0,0,star ,circle,,,,,,,,,,,,,,,,,,,,,,,,,,,,,,,,,,,,,,,,,,,,,,,,,,,,,,
298285,2022-11-29_12h04.19.394,vts_reward_expectancy_bt,2022.2.4,MacIntel,120.0048002,Chrome,1512,982,,,,,,,,,,,,,,,,,,,,,,,167,B,circle,0,0,d,1.8446,0,0,0,0,0,1,,,,,,,,,,,,,,,,,,,,,,,,,,,,,,,,,,,,,,,,,
298285,2022-11-29_12h04.19.394,vts_reward_expectancy_bt,2022.2.4,MacIntel,120.0048002,Chrome,1512,982,,,,,,,,,,,,,,,,,,,,,,,132,U,triangle,0,1,,,0,1,0,1,0,1,,,,,,,,,,,,,,,,,,,,,,,,,,,,,,,,,,,,,,,,,
298285,2022-11-29_12h04.19.394,vts_reward_expectancy_bt,2022.2.4,MacIntel,120.0048002,Chrome,1512,982,,,,,,,,,,,,,,,,,,,,,,,181,W,hexagon,0,1,d,0.4019,0,2,0,2,0,1,,,,,,,,,,,,,,,,,,,,,,,,,,,,,,,,,,,,,,,,,
298285,2022-11-29_12h04.19.394,vts_reward_expectancy_bt,2022.2.4,MacIntel,120.0048002,Chrome,1512,982,,,,,,,,,,,,,,,,,,,,,,,160,D,star,2,1,k,0.2922,0,3,0,3,0,1,,,,,,,,,,,,,,,,,,,,,,,,,,,,,,,,,,,,,,,,,
298285,2022-11-29_12h04.19.394,vts_reward_expectancy_bt,2022.2.4,MacIntel,120.0048002,Chrome,1512,982,,,,,,,,,,,,,,,,,,,,,,,125,Y,circle,0,0,f,0.5371,0,4,0,4,0,1,,,,,,,,,,,,,,,,,,,,,,,,,,,,,,,,,,,,,,,,,
298285,2022-11-29_12h04.19.394,vts_reward_expectancy_bt,2022.2.4,MacIntel,120.0048002,Chrome,1512,982,,,,,,,,,,,,,,,,,,,,,,,174,F,triangle,0,1,d,0.4155,0,5,0,5,0,1,,,,,,,,,,,,,,,,,,,,,,,,,,,,,,,,,,,,,,,,,
298285,2022-11-29_12h04.19.394,vts_reward_expectancy_bt,2022.2.4,MacIntel,120.0048002,Chrome,1512,982,,,,,,,,,,,,,,,,,,,,,,,146,S,hexagon,1,1,d,2.7315,0,6,0,6,0,1,,,,,,,,,,,,,,,,,,,,,,,,,,,,,,,,,,,,,,,,,
298285,2022-11-29_12h04.19.394,vts_reward_expectancy_bt,2022.2.4,MacIntel,120.0048002,Chrome,1512,982,,,,,,,,,,,,,,,,,,,,,,,139,H,star,1,0,d,0.764,0,7,0,7,0,1,,,,,,,,,,,,,,,,,,,,,,,,,,,,,,,,,,,,,,,,,
298285,2022-11-29_12h04.19.394,vts_reward_expectancy_bt,2022.2.4,MacIntel,120.0048002,Chrome,1512,982,,,,,,,,,,,,,,,,,,,,,,,167,B,triangle,0,0,d,0.6,0,8,0,8,0,1,,,,,,,,,,,,,,,,,,,,,,,,,,,,,,,,,,,,,,,,,
298285,2022-11-29_12h04.19.394,vts_reward_expectancy_bt,2022.2.4,MacIntel,120.0048002,Chrome,1512,982,,,,,,,,,,,,,,,,,,,,,,,132,U,circle,1,1,d,0.5346,0,9,0,9,0,1,,,,,,,,,,,,,,,,,,,,,,,,,,,,,,,,,,,,,,,,,
298285,2022-11-29_12h04.19.394,vts_reward_expectancy_bt,2022.2.4,MacIntel,120.0048002,Chrome,1512,982,,,,,,,,,,,,,,,,,,,,,,,181,Y,hexagon,1,0,f,0.4697,1,0,0,0,0,1,,,,,,,,,,,,,,,,,,,,,,,,,,,,,,,,,,,,,,,,,
298285,2022-11-29_12h04.19.394,vts_reward_expectancy_bt,2022.2.4,MacIntel,120.0048002,Chrome,1512,982,,,,,,,,,,,,,,,,,,,,,,,139,D,circle,1,0,d,0.4248,1,1,0,1,0,1,,,,,,,,,,,,,,,,,,,,,,,,,,,,,,,,,,,,,,,,,
298285,2022-11-29_12h04.19.394,vts_reward_expectancy_bt,2022.2.4,MacIntel,120.0048002,Chrome,1512,982,,,,,,,,,,,,,,,,,,,,,,,125,H,triangle,1,0,d,0.4542,1,2,0,2,0,1,,,,,,,,,,,,,,,,,,,,,,,,,,,,,,,,,,,,,,,,,
298285,2022-11-29_12h04.19.394,vts_reward_expectancy_bt,2022.2.4,MacIntel,120.0048002,Chrome,1512,982,,,,,,,,,,,,,,,,,,,,,,,132,U,star,1,0,d,0.4714,1,3,0,3,0,1,,,,,,,,,,,,,,,,,,,,,,,,,,,,,,,,,,,,,,,,,
298285,2022-11-29_12h04.19.394,vts_reward_expectancy_bt,2022.2.4,MacIntel,120.0048002,Chrome,1512,982,,,,,,,,,,,,,,,,,,,,,,,167,S,hexagon,1,0,f,0.6326,1,4,0,4,0,1,,,,,,,,,,,,,,,,,,,,,,,,,,,,,,,,,,,,,,,,,
298285,2022-11-29_12h04.19.394,vts_reward_expectancy_bt,2022.2.4,MacIntel,120.0048002,Chrome,1512,982,,,,,,,,,,,,,,,,,,,,,,,160,B,circle,1,0,f,0.5035,1,5,0,5,0,1,,,,,,,,,,,,,,,,,,,,,,,,,,,,,,,,,,,,,,,,,
298285,2022-11-29_12h04.19.394,vts_reward_expectancy_bt,2022.2.4,MacIntel,120.0048002,Chrome,1512,982,,,,,,,,,,,,,,,,,,,,,,,174,F,triangle,1,0,f,0.4804,1,6,0,6,0,1,,,,,,,,,,,,,,,,,,,,,,,,,,,,,,,,,,,,,,,,,
298285,2022-11-29_12h04.19.394,vts_reward_expectancy_bt,2022.2.4,MacIntel,120.0048002,Chrome,1512,982,,,,,,,,,,,,,,,,,,,,,,,146,W,star,1,0,d,0.6136,1,7,0,7,0,1,,,,,,,,,,,,,,,,,,,,,,,,,,,,,,,,,,,,,,,,,
298285,2022-11-29_12h04.19.394,vts_reward_expectancy_bt,2022.2.4,MacIntel,120.0048002,Chrome,1512,982,,,,,,,,,,,,,,,,,,,,,,,181,Y,triangle,1,0,f,0.4895,1,8,0,8,0,1,,,,,,,,,,,,,,,,,,,,,,,,,,,,,,,,,,,,,,,,,
298285,2022-11-29_12h04.19.394,vts_reward_expectancy_bt,2022.2.4,MacIntel,120.0048002,Chrome,1512,982,,,,,,,,,,,,,,,,,,,,,,,139,D,star,1,0,d,0.3724,1,9,0,9,0,1,,,,,,,,,,,,,,,,,,,,,,,,,,,,,,,,,,,,,,,,,
298285,2022-11-29_12h04.19.394,vts_reward_expectancy_bt,2022.2.4,MacIntel,120.0048002,Chrome,1512,982,,,,,,,,,,,,,,,,,,,,,,,132,S,triangle,1,0,,,2,,,,,,k,1.1811,0,0,0,0,1,,,,,,,,,,,,,,,,,,,,,,,,,,,,,,,,,,
298285,2022-11-29_12h04.19.394,vts_reward_expectancy_bt,2022.2.4,MacIntel,120.0048002,Chrome,1512,982,,,,,,,,,,,,,,,,,,,,,,,181,Y,star,1,0,,,2,,,,,,k,0.6687,1,0,1,0,1,,,,,,,,,,,,,,,,,,,,,,,,,,,,,,,,,,
298285,2022-11-29_12h04.19.394,vts_reward_expectancy_bt,2022.2.4,MacIntel,120.0048002,Chrome,1512,982,,,,,,,,,,,,,,,,,,,,,,,146,W,hexagon,1,0,,,2,,,,,,k,2.0992,2,0,2,0,1,,,,,,,,,,,,,,,,,,,,,,,,,,,,,,,,,,
298285,2022-11-29_12h04.19.394,vts_reward_expectancy_bt,2022.2.4,MacIntel,120.0048002,Chrome,1512,982,,,,,,,,,,,,,,,,,,,,,,,125,F,circle,1,0,,,2,,,,,,j,1.6872,3,0,3,0,1,,,,,,,,,,,,,,,,,,,,,,,,,,,,,,,,,,
298285,2022-11-29_12h04.19.394,vts_reward_expectancy_bt,2022.2.4,MacIntel,120.0048002,Chrome,1512,982,,,,,,,,,,,,,,,,,,,,,,,160,B,triangle,1,0,,,2,,,,,,j,0.6377,4,0,4,0,1,,,,,,,,,,,,,,,,,,,,,,,,,,,,,,,,,,
298285,2022-11-29_12h04.19.394,vts_reward_expectancy_bt,2022.2.4,MacIntel,120.0048002,Chrome,1512,982,,,,,,,,,,,,,,,,,,,,,,,139,D,star,1,0,,,2,,,,,,j,0.8032,5,0,5,0,1,,,,,,,,,,,,,,,,,,,,,,,,,,,,,,,,,,
298285,2022-11-29_12h04.19.394,vts_reward_expectancy_bt,2022.2.4,MacIntel,120.0048002,Chrome,1512,982,,,,,,,,,,,,,,,,,,,,,,,174,H,hexagon,1,0,,,2,,,,,,j,0.9309,6,0,6,0,1,,,,,,,,,,,,,,,,,,,,,,,,,,,,,,,,,,
298285,2022-11-29_12h04.19.394,vts_reward_expectancy_bt,2022.2.4,MacIntel,120.0048002,Chrome,1512,982,,,,,,,,,,,,,,,,,,,,,,,167,U,circle,1,0,,,2,,,,,,k,0.6348,7,0,7,0,1,,,,,,,,,,,,,,,,,,,,,,,,,,,,,,,,,,
298285,2022-11-29_12h04.19.394,vts_reward_expectancy_bt,2022.2.4,MacIntel,120.0048002,Chrome,1512,982,,,,,,,,,,,,,,,,,,,,,,,132,S,star,1,0,,,2,,,,,,k,0.7112,8,0,8,0,1,,,,,,,,,,,,,,,,,,,,,,,,,,,,,,,,,,
298285,2022-11-29_12h04.19.394,vts_reward_expectancy_bt,2022.2.4,MacIntel,120.0048002,Chrome,1512,982,,,,,,,,,,,,,,,,,,,,,,,181,Y,hexagon,1,0,,,2,,,,,,k,0.5842,9,0,9,0,1,,,,,,,,,,,,,,,,,,,,,,,,,,,,,,,,,,
298285,2022-11-29_12h04.19.394,vts_reward_expectancy_bt,2022.2.4,MacIntel,120.0048002,Chrome,1512,982,,,,,0,621,,,,,,,,,,,,,,,,,125,D,star,1,0,,,3,,,,,,,,,,,,,-1,number,NA,d,1.5909,vtsPrac,0,0,0,0,1,,,,,,,,,,,,,,,,,,,,,,,
298285,2022-11-29_12h04.19.394,vts_reward_expectancy_bt,2022.2.4,MacIntel,120.0048002,Chrome,1512,982,,,,,0,621,,,,,,,,,,,,,,,,,174,Y,hexagon,1,0,,,3,,,,,,,,,,,,,repeat,number,numRpt,f,0.8202,vtsPrac,1,0,1,0,1,,,,,,,,,,,,,,,,,,,,,,,
298285,2022-11-29_12h04.19.394,vts_reward_expectancy_bt,2022.2.4,MacIntel,120.0048002,Chrome,1512,982,,,,,0,621,,,,,,,,,,,,,,,,,181,W,star,1,0,,,3,,,,,,,,,,,,,switch,letter,lettSwt,k,0.6532,vtsPrac,2,0,2,0,1,,,,,,,,,,,,,,,,,,,,,,,
298285,2022-11-29_12h04.19.394,vts_reward_expectancy_bt,2022.2.4,MacIntel,120.0048002,Chrome,1512,982,,,,,0,621,,,,,,,,,,,,,,,,,167,S,hexagon,1,0,,,3,,,,,,,,,,,,,repeat,letter,lettRpt,k,2.0622,vtsPrac,3,0,3,0,1,,,,,,,,,,,,,,,,,,,,,,,
298285,2022-11-29_12h04.19.394,vts_reward_expectancy_bt,2022.2.4,MacIntel,120.0048002,Chrome,1512,982,,,,,0,621,,,,,,,,,,,,,,,,,125,D,star,1,0,,,3,,,,,,,,,,,,,switch,number,numSwt,d,2.8639,vtsPrac,4,0,4,0,1,,,,,,,,,,,,,,,,,,,,,,,
298285,2022-11-29_12h04.19.394,vts_reward_expectancy_bt,2022.2.4,MacIntel,120.0048002,Chrome,1512,982,,,,,0,621,,,,,,,,,,,,,,,,,174,Y,triangle,1,0,,,3,,,,,,,,,,,,,switch,letter,lettSwt,k,0.8966,vtsPrac,5,0,5,0,1,,,,,,,,,,,,,,,,,,,,,,,
298285,2022-11-29_12h04.19.394,vts_reward_expectancy_bt,2022.2.4,MacIntel,120.0048002,Chrome,1512,982,,,,,0,621,,,,,,,,,,,,,,,,,181,W,triangle,1,0,,,3,,,,,,,,,,,,,repeat,letter,lettRpt,k,1.5493,vtsPrac,6,0,6,0,1,,,,,,,,,,,,,,,,,,,,,,,
298285,2022-11-29_12h04.19.394,vts_reward_expectancy_bt,2022.2.4,MacIntel,120.0048002,Chrome,1512,982,,,,,0,621,,,,,,,,,,,,,,,,,167,S,hexagon,1,0,,,3,,,,,,,,,,,,,switch,number,numSwt,f,1.1541,vtsPrac,7,0,7,0,1,,,,,,,,,,,,,,,,,,,,,,,
298285,2022-11-29_12h04.19.394,vts_reward_expectancy_bt,2022.2.4,MacIntel,120.0048002,Chrome,1512,982,,,,,0,621,,,,,,,,,,,,,,,,,132,B,triangle,1,0,,,3,,,,,,,,,,,,,repeat,number,numRpt,d,1.1701,vtsPrac,8,0,8,0,1,,,,,,,,,,,,,,,,,,,,,,,
298285,2022-11-29_12h04.19.394,vts_reward_expectancy_bt,2022.2.4,MacIntel,120.0048002,Chrome,1512,982,,,,,0,621,,,,,,,,,,,,,,,,,146,S,hexagon,1,0,,,3,,,,,,,,,,,,,switch,letter,lettSwt,k,0.8572,vtsPrac,9,0,9,0,1,,,,,,,,,,,,,,,,,,,,,,,
298285,2022-11-29_12h04.19.394,vts_reward_expectancy_bt,2022.2.4,MacIntel,120.0048002,Chrome,1512,982,,,,,0,621,,,,,,,,,,,,,,,,,139,H,hexagon,1,0,,,3,,,,,,,,,,,,,switch,number,numSwt,d,1.2635,vtsPrac,10,0,10,0,1,,,,,,,,,,,,,,,,,,,,,,,
298285,2022-11-29_12h04.19.394,vts_reward_expectancy_bt,2022.2.4,MacIntel,120.0048002,Chrome,1512,982,,,,,0,621,,,,,,,,,,,,,,,,,160,U,triangle,1,0,,,3,,,,,,,,,,,,,switch,letter,lettSwt,k,1.678,vtsPrac,11,0,11,0,1,,,,,,,,,,,,,,,,,,,,,,,
298285,2022-11-29_12h04.19.394,vts_reward_expectancy_bt,2022.2.4,MacIntel,120.0048002,Chrome,1512,982,,,,,0,621,,,,,,,,,,,,,,,,,146,U,star,1,0,,,3,,,,,,,,,,,,,switch,number,numSwt,d,1.296,vtsPrac,12,0,12,0,1,,,,,,,,,,,,,,,,,,,,,,,
298285,2022-11-29_12h04.19.394,vts_reward_expectancy_bt,2022.2.4,MacIntel,120.0048002,Chrome,1512,982,,,,,0,621,,,,,,,,,,,,,,,,,125,F,triangle,1,0,,,3,,,,,,,,,,,,,repeat,number,numRpt,d,0.8692,vtsPrac,13,0,13,0,1,,,,,,,,,,,,,,,,,,,,,,,
298285,2022-11-29_12h04.19.394,vts_reward_expectancy_bt,2022.2.4,MacIntel,120.0048002,Chrome,1512,982,,,,,0,621,,,,,,,,,,,,,,,,,139,W,hexagon,1,0,,,3,,,,,,,,,,,,,switch,letter,lettSwt,k,1.1609,vtsPrac,14,0,14,0,1,,,,,,,,,,,,,,,,,,,,,,,
298285,2022-11-29_12h04.19.394,vts_reward_expectancy_bt,2022.2.4,MacIntel,120.0048002,Chrome,1512,982,,,,,0,621,,,,,,,,,,,,,,,,,167,B,star,1,0,,,3,,,,,,,,,,,,,repeat,letter,lettRpt,j,1.222,vtsPrac,15,0,15,0,1,,,,,,,,,,,,,,,,,,,,,,,
298285,2022-11-29_12h04.19.394,vts_reward_expectancy_bt,2022.2.4,MacIntel,120.0048002,Chrome,1512,982,,,,,0,621,,,,,,,,,,,,,,,,,146,S,circle,1,0,,,3,,,,,,,,,,,,,switch,number,numSwt,d,0.9537,vtsPrac,16,0,16,0,1,,,,,,,,,,,,,,,,,,,,,,,
298285,2022-11-29_12h04.19.394,vts_reward_expectancy_bt,2022.2.4,MacIntel,120.0048002,Chrome,1512,982,,,,,0,621,,,,,,,,,,,,,,,,,125,W,star,1,0,,,3,,,,,,,,,,,,,switch,letter,lettSwt,k,2.6917,vtsPrac,17,0,17,0,1,,,,,,,,,,,,,,,,,,,,,,,
298285,2022-11-29_12h04.19.394,vts_reward_expectancy_bt,2022.2.4,MacIntel,120.0048002,Chrome,1512,982,,,,,0,621,,,,,,,,,,,,,,,,,139,B,triangle,1,0,,,3,,,,,,,,,,,,,switch,number,numSwt,d,0.8373,vtsPrac,18,0,18,0,1,,,,,,,,,,,,,,,,,,,,,,,
298285,2022-11-29_12h04.19.394,vts_reward_expectancy_bt,2022.2.4,MacIntel,120.0048002,Chrome,1512,982,,,,,0,621,,,,,,,,,,,,,,,,,174,D,hexagon,1,0,,,3,,,,,,,,,,,,,switch,letter,lettSwt,j,1.2285,vtsPrac,19,0,19,0,1,,,,,,,,,,,,,,,,,,,,,,,
298285,2022-11-29_12h04.19.394,vts_reward_expectancy_bt,2022.2.4,MacIntel,120.0048002,Chrome,1512,982,,,,,0,621,,,,,,,,,,,,,,,,,167,B,circle,1,0,,,3,,,,,,,,,,,,,repeat,letter,lettRpt,j,0.7611,vtsPrac,20,0,20,0,1,,,,,,,,,,,,,,,,,,,,,,,
298285,2022-11-29_12h04.19.394,vts_reward_expectancy_bt,2022.2.4,MacIntel,120.0048002,Chrome,1512,982,,,,,0,621,,,,,,,,,,,,,,,,,174,U,star,1,0,,,3,,,,,,,,,,,,,switch,number,numSwt,f,1.7114,vtsPrac,21,0,21,0,1,,,,,,,,,,,,,,,,,,,,,,,
298285,2022-11-29_12h04.19.394,vts_reward_expectancy_bt,2022.2.4,MacIntel,120.0048002,Chrome,1512,982,,,,,0,621,,,,,,,,,,,,,,,,,146,Y,hexagon,1,0,,,3,,,,,,,,,,,,,switch,letter,lettSwt,k,1.305,vtsPrac,22,0,22,0,1,,,,,,,,,,,,,,,,,,,,,,,
298285,2022-11-29_12h04.19.394,vts_reward_expectancy_bt,2022.2.4,MacIntel,120.0048002,Chrome,1512,982,,,,,0,621,,,,,,,,,,,,,,,,,160,H,triangle,1,0,,,3,,,,,,,,,,,,,repeat,letter,lettRpt,j,1.7693,vtsPrac,23,0,23,0,1,,,,,,,,,,,,,,,,,,,,,,,
298285,2022-11-29_12h04.19.394,vts_reward_expectancy_bt,2022.2.4,MacIntel,120.0048002,Chrome,1512,982,,,,,0,621,,,,,,,,,,,,,,,,,139,F,star,1,0,,,3,,,,,,,,,,,,,switch,number,numSwt,d,1.194,vtsPrac,24,0,24,0,1,,,,,,,,,,,,,,,,,,,,,,,
298285,2022-11-29_12h04.19.394,vts_reward_expectancy_bt,2022.2.4,MacIntel,120.0048002,Chrome,1512,982,,,,,0,621,,,,,,,,,,,,,,,,,160,B,hexagon,1,0,,,3,,,,,,,,,,,,,repeat,number,numRpt,f,1.0369,vtsPrac,25,0,25,0,1,,,,,,,,,,,,,,,,,,,,,,,
298285,2022-11-29_12h04.19.394,vts_reward_expectancy_bt,2022.2.4,MacIntel,120.0048002,Chrome,1512,982,,,,,0,621,,,,,,,,,,,,,,,,,174,H,circle,1,0,,,3,,,,,,,,,,,,,repeat,number,numRpt,f,0.7142,vtsPrac,26,0,26,0,1,,,,,,,,,,,,,,,,,,,,,,,
298285,2022-11-29_12h04.19.394,vts_reward_expectancy_bt,2022.2.4,MacIntel,120.0048002,Chrome,1512,982,,,,,0,621,,,,,,,,,,,,,,,,,146,D,triangle,1,0,,,3,,,,,,,,,,,,,switch,letter,lettSwt,j,1.3259,vtsPrac,27,0,27,0,1,,,,,,,,,,,,,,,,,,,,,,,
298285,2022-11-29_12h04.19.394,vts_reward_expectancy_bt,2022.2.4,MacIntel,120.0048002,Chrome,1512,982,,,,,0,621,,,,,,,,,,,,,,,,,167,H,star,1,0,,,3,,,,,,,,,,,,,repeat,letter,lettRpt,j,0.8969,vtsPrac,28,0,28,0,1,,,,,,,,,,,,,,,,,,,,,,,
298285,2022-11-29_12h04.19.394,vts_reward_expectancy_bt,2022.2.4,MacIntel,120.0048002,Chrome,1512,982,,,,,0,621,,,,,,,,,,,,,,,,,146,D,circle,1,0,,,3,,,,,,,,,,,,,switch,number,numSwt,d,1.0254,vtsPrac,29,0,29,0,1,,,,,,,,,,,,,,,,,,,,,,,
298285,2022-11-29_12h04.19.394,vts_reward_expectancy_bt,2022.2.4,MacIntel,120.0048002,Chrome,1512,982,,,,,0,621,,,,,,,,,,,,,,,,,174,B,circle,1,0,,,3,,,,,,,,,,,,,switch,letter,lettSwt,j,1.2961,vtsPrac,30,0,30,0,1,,,,,,,,,,,,,,,,,,,,,,,
298285,2022-11-29_12h04.19.394,vts_reward_expectancy_bt,2022.2.4,MacIntel,120.0048002,Chrome,1512,982,,,,,0,621,,,,,,,,,,,,,,,,,139,F,hexagon,1,0,,,3,,,,,,,,,,,,,switch,number,numSwt,d,0.8761,vtsPrac,31,0,31,0,1,,,,,,,,,,,,,,,,,,,,,,,
298285,2022-11-29_12h04.19.394,vts_reward_expectancy_bt,2022.2.4,MacIntel,120.0048002,Chrome,1512,982,,,,,,,,,,,,,,,,,,,,,,,,,,,,,,,,,,,,,,,,,,,,,,,,,,,,,,,,,,,,,,,,,,,,,,,,,,,,
298285,2022-11-29_12h04.19.394,vts_reward_expectancy_bt,2022.2.4,MacIntel,120.0048002,Chrome,1512,982,,,,,,,,,,,,,,,,,,,,,,,,,,,,,,,,,,,,,,,,,,,,,,,,,,,,,,,,,,,,,,,,,,,,,,,,,,,,
298285,2022-11-29_12h04.19.394,vts_reward_expectancy_bt,2022.2.4,MacIntel,120.0048002,Chrome,1512,982,,,,,0,621,,,,,,,,,,,,,,,,,139,Y,hexagon,1,0,,,,,,,,,,,,,,,,repeat,number,numRpt,d,0.9284,noRew,,,,,,0,0,0,0,0,1,,,,,,,,,,,,,,,,,
298285,2022-11-29_12h04.19.394,vts_reward_expectancy_bt,2022.2.4,MacIntel,120.0048002,Chrome,1512,982,,,,,0,621,,,,,,,,,,,,,,,,,174,S,circle,1,0,,,,,,,,,,,,,,,,repeat,number,numRpt,f,1.3214,noRew,,,,,,0,1,0,1,0,1,,,,,,,,,,,,,,,,,
298285,2022-11-29_12h04.19.394,vts_reward_expectancy_bt,2022.2.4,MacIntel,120.0048002,Chrome,1512,982,,,,,0,621,,,,,,,,,,,,,,,,,125,U,hexagon,1,0,,,,,,,,,,,,,,,,switch,letter,lettSwt,k,1.4465,noRew,,,,,,0,2,0,2,0,1,,,,,,,,,,,,,,,,,
298285,2022-11-29_12h04.19.394,vts_reward_expectancy_bt,2022.2.4,MacIntel,120.0048002,Chrome,1512,982,,,,,0,621,,,,,,,,,,,,,,,,,132,D,circle,1,0,,,,,,,,,,,,,,,,repeat,letter,lettRpt,j,1.0144,noRew,,,,,,0,3,0,3,0,1,,,,,,,,,,,,,,,,,
298285,2022-11-29_12h04.19.394,vts_reward_expectancy_bt,2022.2.4,MacIntel,120.0048002,Chrome,1512,982,,,,,0,621,,,,,,,,,,,,,,,,,139,Y,triangle,1,0,,,,,,,,,,,,,,,,repeat,letter,lettRpt,k,0.5099,noRew,,,,,,0,4,0,4,0,1,,,,,,,,,,,,,,,,,
298285,2022-11-29_12h04.19.394,vts_reward_expectancy_bt,2022.2.4,MacIntel,120.0048002,Chrome,1512,982,,,,,0,621,,,,,,,,,,,,,,,,,174,S,circle,1,0,,,,,,,,,,,,,,,,switch,number,numSwt,f,0.8621,noRew,,,,,,0,5,0,5,0,1,,,,,,,,,,,,,,,,,
298285,2022-11-29_12h04.19.394,vts_reward_expectancy_bt,2022.2.4,MacIntel,120.0048002,Chrome,1512,982,,,,,0,621,,,,,,,,,,,,,,,,,125,U,triangle,1,0,,,,,,,,,,,,,,,,repeat,number,numRpt,d,1.1678,noRew,,,,,,0,6,0,6,0,1,,,,,,,,,,,,,,,,,
298285,2022-11-29_12h04.19.394,vts_reward_expectancy_bt,2022.2.4,MacIntel,120.0048002,Chrome,1512,982,,,,,0,621,,,,,,,,,,,,,,,,,132,D,star,1,0,,,,,,,,,,,,,,,,switch,letter,lettSwt,j,1.1977,noRew,,,,,,0,7,0,7,0,1,,,,,,,,,,,,,,,,,
298285,2022-11-29_12h04.19.394,vts_reward_expectancy_bt,2022.2.4,MacIntel,120.0048002,Chrome,1512,982,,,,,0,621,,,,,,,,,,,,,,,,,146,F,circle,1,0,,,,,,,,,,,,,,,,repeat,letter,lettRpt,j,0.9986,noRew,,,,,,0,8,0,8,0,1,,,,,,,,,,,,,,,,,
298285,2022-11-29_12h04.19.394,vts_reward_expectancy_bt,2022.2.4,MacIntel,120.0048002,Chrome,1512,982,,,,,0,621,,,,,,,,,,,,,,,,,160,S,triangle,1,0,,,,,,,,,,,,,,,,switch,number,numSwt,f,2.6847,noRew,,,,,,0,9,0,9,0,1,,,,,,,,,,,,,,,,,
298285,2022-11-29_12h04.19.394,vts_reward_expectancy_bt,2022.2.4,MacIntel,120.0048002,Chrome,1512,982,,,,,0,621,,,,,,,,,,,,,,,,,174,H,hexagon,1,0,,,,,,,,,,,,,,,,repeat,number,numRpt,f,0.8983,noRew,,,,,,0,10,0,10,0,1,,,,,,,,,,,,,,,,,
298285,2022-11-29_12h04.19.394,vts_reward_expectancy_bt,2022.2.4,MacIntel,120.0048002,Chrome,1512,982,,,,,0,621,,,,,,,,,,,,,,,,,132,U,circle,1,0,,,,,,,,,,,,,,,,switch,letter,lettSwt,k,1.164,noRew,,,,,,0,11,0,11,0,1,,,,,,,,,,,,,,,,,
298285,2022-11-29_12h04.19.394,vts_reward_expectancy_bt,2022.2.4,MacIntel,120.0048002,Chrome,1512,982,,,,,0,621,,,,,,,,,,,,,,,,,125,Y,hexagon,1,0,,,,,,,,,,,,,,,,repeat,letter,lettRpt,k,1.246,noRew,,,,,,0,12,0,12,0,1,,,,,,,,,,,,,,,,,
298285,2022-11-29_12h04.19.394,vts_reward_expectancy_bt,2022.2.4,MacIntel,120.0048002,Chrome,1512,982,,,,,0,621,,,,,,,,,,,,,,,,,139,W,triangle,1,0,,,,,,,,,,,,,,,,switch,number,numSwt,d,1.9601,noRew,,,,,,0,13,0,13,0,1,,,,,,,,,,,,,,,,,
298285,2022-11-29_12h04.19.394,vts_reward_expectancy_bt,2022.2.4,MacIntel,120.0048002,Chrome,1512,982,,,,,0,621,,,,,,,,,,,,,,,,,174,F,circle,1,0,,,,,,,,,,,,,,,,switch,letter,lettSwt,j,2.432,noRew,,,,,,0,14,0,14,0,1,,,,,,,,,,,,,,,,,
298285,2022-11-29_12h04.19.394,vts_reward_expectancy_bt,2022.2.4,MacIntel,120.0048002,Chrome,1512,982,,,,,0,621,,,,,,,,,,,,,,,,,132,S,triangle,1,0,,,,,,,,,,,,,,,,switch,number,numSwt,d,2.7711,noRew,,,,,,0,15,0,15,0,1,,,,,,,,,,,,,,,,,
298285,2022-11-29_12h04.19.394,vts_reward_expectancy_bt,2022.2.4,MacIntel,120.0048002,Chrome,1512,982,,,,,0,621,,,,,,,,,,,,,,,,,174,H,triangle,1,0,,,,,,,,,,,,,,,,switch,letter,lettSwt,j,1.216,noRew,,,,,,0,16,0,16,0,1,,,,,,,,,,,,,,,,,
298285,2022-11-29_12h04.19.394,vts_reward_expectancy_bt,2022.2.4,MacIntel,120.0048002,Chrome,1512,982,,,,,0,621,,,,,,,,,,,,,,,,,139,U,circle,1,0,,,,,,,,,,,,,,,,switch,number,numSwt,d,0.8113,noRew,,,,,,0,17,0,17,0,1,,,,,,,,,,,,,,,,,
298285,2022-11-29_12h04.19.394,vts_reward_expectancy_bt,2022.2.4,MacIntel,120.0048002,Chrome,1512,982,,,,,0,621,,,,,,,,,,,,,,,,,146,F,circle,1,0,,,,,,,,,,,,,,,,repeat,number,numRpt,d,1.0456,noRew,,,,,,0,18,0,18,0,1,,,,,,,,,,,,,,,,,
298285,2022-11-29_12h04.19.394,vts_reward_expectancy_bt,2022.2.4,MacIntel,120.0048002,Chrome,1512,982,,,,,0,621,,,,,,,,,,,,,,,,,160,Y,triangle,1,0,,,,,,,,,,,,,,,,switch,letter,lettSwt,k,1.4386,noRew,,,,,,0,19,0,19,0,1,,,,,,,,,,,,,,,,,
298285,2022-11-29_12h04.19.394,vts_reward_expectancy_bt,2022.2.4,MacIntel,120.0048002,Chrome,1512,982,,,,,0,621,,,,,,,,,,,,,,,,,132,H,triangle,1,0,,,,,,,,,,,,,,,,repeat,letter,lettRpt,j,1.1683,noRew,,,,,,0,20,0,20,0,1,,,,,,,,,,,,,,,,,
298285,2022-11-29_12h04.19.394,vts_reward_expectancy_bt,2022.2.4,MacIntel,120.0048002,Chrome,1512,982,,,,,0,621,,,,,,,,,,,,,,,,,125,B,hexagon,1,0,,,,,,,,,,,,,,,,switch,number,numSwt,d,2.4168,noRew,,,,,,0,21,0,21,0,1,,,,,,,,,,,,,,,,,
298285,2022-11-29_12h04.19.394,vts_reward_expectancy_bt,2022.2.4,MacIntel,120.0048002,Chrome,1512,982,,,,,0,621,,,,,,,,,,,,,,,,,146,U,hexagon,1,0,,,,,,,,,,,,,,,,repeat,number,numRpt,d,2.2385,noRew,,,,,,0,22,0,22,0,1,,,,,,,,,,,,,,,,,
298285,2022-11-29_12h04.19.394,vts_reward_expectancy_bt,2022.2.4,MacIntel,120.0048002,Chrome,1512,982,,,,,0,621,,,,,,,,,,,,,,,,,167,S,star,-1,0,,,,,,,,,,,,,,,,switch,no_choice,NA,,,noRew,,,,,,0,23,0,23,0,1,,,,,,,,,,,,,,,,,
298285,2022-11-29_12h04.19.394,vts_reward_expectancy_bt,2022.2.4,MacIntel,120.0048002,Chrome,1512,982,,,,,0,621,,,,,,,,,,,,,,,,,139,F,star,1,0,,,,,,,,,,,,,,,,switch,number,numSwt,d,1.2862,noRew,,,,,,0,24,0,24,0,1,,,,,,,,,,,,,,,,,
298285,2022-11-29_12h04.19.394,vts_reward_expectancy_bt,2022.2.4,MacIntel,120.0048002,Chrome,1512,982,,,,,0,621,,,,,,,,,,,,,,,,,160,Y,triangle,1,0,,,,,,,,,,,,,,,,switch,letter,lettSwt,k,0.7952,noRew,,,,,,0,25,0,25,0,1,,,,,,,,,,,,,,,,,
298285,2022-11-29_12h04.19.394,vts_reward_expectancy_bt,2022.2.4,MacIntel,120.0048002,Chrome,1512,982,,,,,0,621,,,,,,,,,,,,,,,,,132,U,star,1,0,,,,,,,,,,,,,,,,repeat,letter,lettRpt,k,0.7676,noRew,,,,,,0,26,0,26,0,1,,,,,,,,,,,,,,,,,
298285,2022-11-29_12h04.19.394,vts_reward_expectancy_bt,2022.2.4,MacIntel,120.0048002,Chrome,1512,982,,,,,0,621,,,,,,,,,,,,,,,,,181,H,circle,1,0,,,,,,,,,,,,,,,,switch,number,numSwt,f,1.0787,noRew,,,,,,0,27,0,27,0,1,,,,,,,,,,,,,,,,,
298285,2022-11-29_12h04.19.394,vts_reward_expectancy_bt,2022.2.4,MacIntel,120.0048002,Chrome,1512,982,,,,,0,621,,,,,,,,,,,,,,,,,125,W,circle,1,0,,,,,,,,,,,,,,,,switch,letter,lettSwt,k,0.9798,noRew,,,,,,0,28,0,28,0,1,,,,,,,,,,,,,,,,,
298285,2022-11-29_12h04.19.394,vts_reward_expectancy_bt,2022.2.4,MacIntel,120.0048002,Chrome,1512,982,,,,,0,621,,,,,,,,,,,,,,,,,160,U,hexagon,1,0,,,,,,,,,,,,,,,,switch,number,numSwt,f,1.3022,noRew,,,,,,0,29,0,29,0,1,,,,,,,,,,,,,,,,,
298285,2022-11-29_12h04.19.394,vts_reward_expectancy_bt,2022.2.4,MacIntel,120.0048002,Chrome,1512,982,,,,,0,621,,,,,,,,,,,,,,,,,146,S,circle,1,0,,,,,,,,,,,,,,,,switch,letter,lettSwt,k,1.3289,noRew,,,,,,0,30,0,30,0,1,,,,,,,,,,,,,,,,,
298285,2022-11-29_12h04.19.394,vts_reward_expectancy_bt,2022.2.4,MacIntel,120.0048002,Chrome,1512,982,,,,,0,621,,,,,,,,,,,,,,,,,174,H,triangle,1,0,,,,,,,,,,,,,,,,repeat,letter,lettRpt,j,1.5726,noRew,,,,,,0,31,0,31,0,1,,,,,,,,,,,,,,,,,
298285,2022-11-29_12h04.19.394,vts_reward_expectancy_bt,2022.2.4,MacIntel,120.0048002,Chrome,1512,982,,,,,0,621,,,,,,,,,,,,,,,,,181,B,hexagon,1,0,,,,,,,,,,,,,,,,repeat,letter,lettRpt,j,0.928,noRew,,,,,,0,32,0,32,0,1,,,,,,,,,,,,,,,,,
298285,2022-11-29_12h04.19.394,vts_reward_expectancy_bt,2022.2.4,MacIntel,120.0048002,Chrome,1512,982,,,,,0,621,,,,,,,,,,,,,,,,,167,H,circle,1,0,,,,,,,,,,,,,,,,switch,number,numSwt,f,2.926,noRew,,,,,,0,33,0,33,0,1,,,,,,,,,,,,,,,,,
298285,2022-11-29_12h04.19.394,vts_reward_expectancy_bt,2022.2.4,MacIntel,120.0048002,Chrome,1512,982,,,,,0,621,,,,,,,,,,,,,,,,,146,S,triangle,1,0,,,,,,,,,,,,,,,,switch,letter,lettSwt,k,2.9,noRew,,,,,,0,34,0,34,0,1,,,,,,,,,,,,,,,,,
298285,2022-11-29_12h04.19.394,vts_reward_expectancy_bt,2022.2.4,MacIntel,120.0048002,Chrome,1512,982,,,,,0,621,,,,,,,,,,,,,,,,,160,F,circle,1,0,,,,,,,,,,,,,,,,repeat,letter,lettRpt,j,1.3008,noRew,,,,,,0,35,0,35,0,1,,,,,,,,,,,,,,,,,
298285,2022-11-29_12h04.19.394,vts_reward_expectancy_bt,2022.2.4,MacIntel,120.0048002,Chrome,1512,982,,,,,0,621,,,,,,,,,,,,,,,,,174,F,triangle,1,0,,,,,,,,,,,,,,,,switch,number,numSwt,f,1.332,noRew,,,,,,0,36,0,36,0,1,,,,,,,,,,,,,,,,,
298285,2022-11-29_12h04.19.394,vts_reward_expectancy_bt,2022.2.4,MacIntel,120.0048002,Chrome,1512,982,,,,,0,621,,,,,,,,,,,,,,,,,139,W,hexagon,1,0,,,,,,,,,,,,,,,,repeat,number,numRpt,d,0.9684,noRew,,,,,,0,37,0,37,0,1,,,,,,,,,,,,,,,,,
298285,2022-11-29_12h04.19.394,vts_reward_expectancy_bt,2022.2.4,MacIntel,120.0048002,Chrome,1512,982,,,,,0,621,,,,,,,,,,,,,,,,,125,U,circle,1,0,,,,,,,,,,,,,,,,switch,letter,lettSwt,k,0.9314,noRew,,,,,,0,38,0,38,0,1,,,,,,,,,,,,,,,,,
298285,2022-11-29_12h04.19.394,vts_reward_expectancy_bt,2022.2.4,MacIntel,120.0048002,Chrome,1512,982,,,,,0,621,,,,,,,,,,,,,,,,,146,Y,triangle,-1,0,,,,,,,,,,,,,,,,switch,no_choice,NA,,,noRew,,,,,,0,39,0,39,0,1,,,,,,,,,,,,,,,,,
298285,2022-11-29_12h04.19.394,vts_reward_expectancy_bt,2022.2.4,MacIntel,120.0048002,Chrome,1512,982,,,,,0,621,,,,,,,,,,,,,,,,,146,S,hexagon,1,0,,,,,,,,,,,,,,,,switch,letter,lettSwt,k,0.8143,noRew,,,,,,0,40,0,40,0,1,,,,,,,,,,,,,,,,,
298285,2022-11-29_12h04.19.394,vts_reward_expectancy_bt,2022.2.4,MacIntel,120.0048002,Chrome,1512,982,,,,,0,621,,,,,,,,,,,,,,,,,174,H,circle,1,0,,,,,,,,,,,,,,,,switch,number,numSwt,f,0.9283,noRew,,,,,,0,41,0,41,0,1,,,,,,,,,,,,,,,,,
298285,2022-11-29_12h04.19.394,vts_reward_expectancy_bt,2022.2.4,MacIntel,120.0048002,Chrome,1512,982,,,,,0,621,,,,,,,,,,,,,,,,,181,W,triangle,1,0,,,,,,,,,,,,,,,,switch,letter,lettSwt,k,1.7452,noRew,,,,,,0,42,0,42,0,1,,,,,,,,,,,,,,,,,
298285,2022-11-29_12h04.19.394,vts_reward_expectancy_bt,2022.2.4,MacIntel,120.0048002,Chrome,1512,982,,,,,0,621,,,,,,,,,,,,,,,,,160,Y,star,1,0,,,,,,,,,,,,,,,,repeat,letter,lettRpt,k,2.6378,noRew,,,,,,0,43,0,43,0,1,,,,,,,,,,,,,,,,,
298285,2022-11-29_12h04.19.394,vts_reward_expectancy_bt,2022.2.4,MacIntel,120.0048002,Chrome,1512,982,,,,,0,621,,,,,,,,,,,,,,,,,174,U,triangle,1,0,,,,,,,,,,,,,,,,repeat,letter,lettRpt,k,1.767,noRew,,,,,,0,44,0,44,0,1,,,,,,,,,,,,,,,,,
298285,2022-11-29_12h04.19.394,vts_reward_expectancy_bt,2022.2.4,MacIntel,120.0048002,Chrome,1512,982,,,,,0,621,,,,,,,,,,,,,,,,,125,Y,hexagon,1,0,,,,,,,,,,,,,,,,switch,number,numSwt,d,1.0866,noRew,,,,,,0,45,0,45,0,1,,,,,,,,,,,,,,,,,
298285,2022-11-29_12h04.19.394,vts_reward_expectancy_bt,2022.2.4,MacIntel,120.0048002,Chrome,1512,982,,,,,0,621,,,,,,,,,,,,,,,,,146,F,circle,1,0,,,,,,,,,,,,,,,,repeat,number,numRpt,d,1.1003,noRew,,,,,,0,46,0,46,0,1,,,,,,,,,,,,,,,,,
298285,2022-11-29_12h04.19.394,vts_reward_expectancy_bt,2022.2.4,MacIntel,120.0048002,Chrome,1512,982,,,,,0,621,,,,,,,,,,,,,,,,,167,D,triangle,1,0,,,,,,,,,,,,,,,,switch,letter,lettSwt,j,2.3886,noRew,,,,,,0,47,0,47,0,1,,,,,,,,,,,,,,,,,
298285,2022-11-29_12h04.19.394,vts_reward_expectancy_bt,2022.2.4,MacIntel,120.0048002,Chrome,1512,982,,,,,0,621,,,,,,,,,,,,,,,,,174,B,triangle,1,0,,,,,,,,,,,,,,,,switch,number,numSwt,f,2.9394,noRew,,,,,,0,48,0,48,0,1,,,,,,,,,,,,,,,,,
298285,2022-11-29_12h04.19.394,vts_reward_expectancy_bt,2022.2.4,MacIntel,120.0048002,Chrome,1512,982,,,,,0,621,,,,,,,,,,,,,,,,,167,H,hexagon,1,0,,,,,,,,,,,,,,,,repeat,number,numRpt,f,2.201,noRew,,,,,,0,49,0,49,0,1,,,,,,,,,,,,,,,,,
298285,2022-11-29_12h04.19.394,vts_reward_expectancy_bt,2022.2.4,MacIntel,120.0048002,Chrome,1512,982,,,,,0,621,,,,,,,,,,,,,,,,,146,F,circle,1,0,,,,,,,,,,,,,,,,switch,letter,lettSwt,j,1.7388,noRew,,,,,,0,50,0,50,0,1,,,,,,,,,,,,,,,,,
298285,2022-11-29_12h04.19.394,vts_reward_expectancy_bt,2022.2.4,MacIntel,120.0048002,Chrome,1512,982,,,,,0,621,,,,,,,,,,,,,,,,,139,S,triangle,1,0,,,,,,,,,,,,,,,,repeat,letter,lettRpt,k,1.6855,noRew,,,,,,0,51,0,51,0,1,,,,,,,,,,,,,,,,,
298285,2022-11-29_12h04.19.394,vts_reward_expectancy_bt,2022.2.4,MacIntel,120.0048002,Chrome,1512,982,,,,,0,621,,,,,,,,,,,,,,,,,146,W,circle,1,0,,,,,,,,,,,,,,,,switch,number,numSwt,d,1.5207,noRew,,,,,,0,52,0,52,0,1,,,,,,,,,,,,,,,,,
298285,2022-11-29_12h04.19.394,vts_reward_expectancy_bt,2022.2.4,MacIntel,120.0048002,Chrome,1512,982,,,,,0,621,,,,,,,,,,,,,,,,,160,Y,hexagon,1,0,,,,,,,,,,,,,,,,repeat,number,numRpt,f,1.4623,noRew,,,,,,0,53,0,53,0,1,,,,,,,,,,,,,,,,,
298285,2022-11-29_12h04.19.394,vts_reward_expectancy_bt,2022.2.4,MacIntel,120.0048002,Chrome,1512,982,,,,,0,621,,,,,,,,,,,,,,,,,125,D,circle,1,0,,,,,,,,,,,,,,,,switch,letter,lettSwt,j,1.3001,noRew,,,,,,0,54,0,54,0,1,,,,,,,,,,,,,,,,,
298285,2022-11-29_12h04.19.394,vts_reward_expectancy_bt,2022.2.4,MacIntel,120.0048002,Chrome,1512,982,,,,,0,621,,,,,,,,,,,,,,,,,181,F,star,1,0,,,,,,,,,,,,,,,,switch,number,numSwt,f,1.3354,noRew,,,,,,0,55,0,55,0,1,,,,,,,,,,,,,,,,,
298285,2022-11-29_12h04.19.394,vts_reward_expectancy_bt,2022.2.4,MacIntel,120.0048002,Chrome,1512,982,,,,,0,621,,,,,,,,,,,,,,,,,125,D,hexagon,1,0,,,,,,,,,,,,,,,,switch,letter,lettSwt,j,1.2039,noRew,,,,,,0,56,0,56,0,1,,,,,,,,,,,,,,,,,
298285,2022-11-29_12h04.19.394,vts_reward_expectancy_bt,2022.2.4,MacIntel,120.0048002,Chrome,1512,982,,,,,0,621,,,,,,,,,,,,,,,,,146,S,triangle,1,0,,,,,,,,,,,,,,,,repeat,letter,lettRpt,k,1.3228,noRew,,,,,,0,57,0,57,0,1,,,,,,,,,,,,,,,,,
298285,2022-11-29_12h04.19.394,vts_reward_expectancy_bt,2022.2.4,MacIntel,120.0048002,Chrome,1512,982,,,,,0,621,,,,,,,,,,,,,,,,,132,F,triangle,1,0,,,,,,,,,,,,,,,,switch,number,numSwt,d,0.8718,noRew,,,,,,0,58,0,58,0,1,,,,,,,,,,,,,,,,,
298285,2022-11-29_12h04.19.394,vts_reward_expectancy_bt,2022.2.4,MacIntel,120.0048002,Chrome,1512,982,,,,,0,621,,,,,,,,,,,,,,,,,160,Y,circle,1,0,,,,,,,,,,,,,,,,repeat,number,numRpt,f,0.8922,noRew,,,,,,0,59,0,59,0,1,,,,,,,,,,,,,,,,,
298285,2022-11-29_12h04.19.394,vts_reward_expectancy_bt,2022.2.4,MacIntel,120.0048002,Chrome,1512,982,,,,,0,621,,,,,,,,,,,,,,,,,132,W,hexagon,1,0,,,,,,,,,,,,,,,,repeat,number,numRpt,d,0.8333,noRew,,,,,,0,60,0,60,0,1,,,,,,,,,,,,,,,,,
298285,2022-11-29_12h04.19.394,vts_reward_expectancy_bt,2022.2.4,MacIntel,120.0048002,Chrome,1512,982,,,,,0,621,,,,,,,,,,,,,,,,,160,D,triangle,1,0,,,,,,,,,,,,,,,,switch,letter,lettSwt,j,0.8907,noRew,,,,,,0,61,0,61,0,1,,,,,,,,,,,,,,,,,
298285,2022-11-29_12h04.19.394,vts_reward_expectancy_bt,2022.2.4,MacIntel,120.0048002,Chrome,1512,982,,,,,0,621,,,,,,,,,,,,,,,,,125,B,star,1,0,,,,,,,,,,,,,,,,repeat,letter,lettRpt,j,0.9897,noRew,,,,,,0,62,0,62,0,1,,,,,,,,,,,,,,,,,
298285,2022-11-29_12h04.19.394,vts_reward_expectancy_bt,2022.2.4,MacIntel,120.0048002,Chrome,1512,982,,,,,0,621,,,,,,,,,,,,,,,,,139,U,circle,1,0,,,,,,,,,,,,,,,,repeat,letter,lettRpt,k,0.7581,noRew,,,,,,0,63,0,63,0,1,,,,,,,,,,,,,,,,,
298285,2022-11-29_12h04.19.394,vts_reward_expectancy_bt,2022.2.4,MacIntel,120.0048002,Chrome,1512,982,,,,,,,,,,,,,,,,,,,,,,,,,,,,,,,,,,,,,,,,,,,,,,,,,,,,,,,,,,,,,,,,,,,,,,,,,,,,
298285,2022-11-29_12h04.19.394,vts_reward_expectancy_bt,2022.2.4,MacIntel,120.0048002,Chrome,1512,982,,,,,1,622,,,,,,,,,,,,,,,,,174,B,hexagon,1,0,,,,,,,,,,,,,,,,switch,number,numSwt,f,1.143,Lo,,,,,,0,,,,,,space,21.6978,high,0,0,0,0,1,,,,,,,,,
298285,2022-11-29_12h04.19.394,vts_reward_expectancy_bt,2022.2.4,MacIntel,120.0048002,Chrome,1512,982,,,,,10,632,,,,,,,,,,,,,,,,,132,S,triangle,1,0,,,,,,,,,,,,,,,,switch,letter,lettSwt,k,0.9123,Lo,,,,,,0,,,,,,,,high,1,0,1,0,1,,,,,,,,,
298285,2022-11-29_12h04.19.394,vts_reward_expectancy_bt,2022.2.4,MacIntel,120.0048002,Chrome,1512,982,,,,,0,632,,,,,,,,,,,,,,,,,160,H,star,1,0,,,,,,,,,,,,,,,,repeat,letter,lettRpt,j,1.5663,Hi,,,,,,0,,,,,,,,high,2,0,2,0,1,,,,,,,,,
298285,2022-11-29_12h04.19.394,vts_reward_expectancy_bt,2022.2.4,MacIntel,120.0048002,Chrome,1512,982,,,,,10,642,,,,,,,,,,,,,,,,,167,U,circle,1,0,,,,,,,,,,,,,,,,repeat,letter,lettRpt,k,0.7801,Hi,,,,,,0,,,,,,,,high,3,0,3,0,1,,,,,,,,,
298285,2022-11-29_12h04.19.394,vts_reward_expectancy_bt,2022.2.4,MacIntel,120.0048002,Chrome,1512,982,,,,,1,643,,,,,,,,,,,,,,,,,181,D,hexagon,1,0,,,,,,,,,,,,,,,,switch,number,numSwt,f,0.4965,Lo,,,,,,0,,,,,,,,high,4,0,4,0,1,,,,,,,,,
298285,2022-11-29_12h04.19.394,vts_reward_expectancy_bt,2022.2.4,MacIntel,120.0048002,Chrome,1512,982,,,,,10,653,,,,,,,,,,,,,,,,,125,W,triangle,1,0,,,,,,,,,,,,,,,,repeat,number,numRpt,d,0.964,Lo,,,,,,0,,,,,,,,high,5,0,5,0,1,,,,,,,,,
298285,2022-11-29_12h04.19.394,vts_reward_expectancy_bt,2022.2.4,MacIntel,120.0048002,Chrome,1512,982,,,,,10,663,,,,,,,,,,,,,,,,,146,Y,star,1,0,,,,,,,,,,,,,,,,switch,letter,lettSwt,k,0.574,Hi,,,,,,0,,,,,,,,high,6,0,6,0,1,,,,,,,,,
298285,2022-11-29_12h04.19.394,vts_reward_expectancy_bt,2022.2.4,MacIntel,120.0048002,Chrome,1512,982,,,,,10,673,,,,,,,,,,,,,,,,,139,F,circle,1,0,,,,,,,,,,,,,,,,switch,number,numSwt,d,0.5676,Hi,,,,,,0,,,,,,,,high,7,0,7,0,1,,,,,,,,,
298285,2022-11-29_12h04.19.394,vts_reward_expectancy_bt,2022.2.4,MacIntel,120.0048002,Chrome,1512,982,,,,,10,683,,,,,,,,,,,,,,,,,174,B,triangle,1,0,,,,,,,,,,,,,,,,switch,letter,lettSwt,j,0.5627,Lo,,,,,,0,,,,,,,,high,8,0,8,0,1,,,,,,,,,
298285,2022-11-29_12h04.19.394,vts_reward_expectancy_bt,2022.2.4,MacIntel,120.0048002,Chrome,1512,982,,,,,10,693,,,,,,,,,,,,,,,,,132,S,star,1,0,,,,,,,,,,,,,,,,switch,number,numSwt,d,0.7812,Hi,,,,,,0,,,,,,,,high,9,0,9,0,1,,,,,,,,,
298285,2022-11-29_12h04.19.394,vts_reward_expectancy_bt,2022.2.4,MacIntel,120.0048002,Chrome,1512,982,,,,,1,694,,,,,,,,,,,,,,,,,160,H,hexagon,1,0,,,,,,,,,,,,,,,,repeat,number,numRpt,f,0.6652,Lo,,,,,,0,,,,,,,,high,10,0,10,0,1,,,,,,,,,
298285,2022-11-29_12h04.19.394,vts_reward_expectancy_bt,2022.2.4,MacIntel,120.0048002,Chrome,1512,982,,,,,10,704,,,,,,,,,,,,,,,,,167,U,circle,1,0,,,,,,,,,,,,,,,,switch,letter,lettSwt,k,0.5859,Hi,,,,,,0,,,,,,,,high,11,0,11,0,1,,,,,,,,,
298285,2022-11-29_12h04.19.394,vts_reward_expectancy_bt,2022.2.4,MacIntel,120.0048002,Chrome,1512,982,,,,,10,714,,,,,,,,,,,,,,,,,181,D,star,1,0,,,,,,,,,,,,,,,,switch,number,numSwt,f,0.6942,Hi,,,,,,0,,,,,,,,high,12,0,12,0,1,,,,,,,,,
298285,2022-11-29_12h04.19.394,vts_reward_expectancy_bt,2022.2.4,MacIntel,120.0048002,Chrome,1512,982,,,,,1,715,,,,,,,,,,,,,,,,,125,W,triangle,1,0,,,,,,,,,,,,,,,,switch,letter,lettSwt,k,0.6369,Lo,,,,,,0,,,,,,,,high,13,0,13,0,1,,,,,,,,,
298285,2022-11-29_12h04.19.394,vts_reward_expectancy_bt,2022.2.4,MacIntel,120.0048002,Chrome,1512,982,,,,,1,716,,,,,,,,,,,,,,,,,146,Y,hexagon,1,0,,,,,,,,,,,,,,,,repeat,letter,lettRpt,k,0.8426,Lo,,,,,,0,,,,,,,,high,14,0,14,0,1,,,,,,,,,
298285,2022-11-29_12h04.19.394,vts_reward_expectancy_bt,2022.2.4,MacIntel,120.0048002,Chrome,1512,982,,,,,10,726,,,,,,,,,,,,,,,,,139,F,circle,1,0,,,,,,,,,,,,,,,,switch,number,numSwt,d,0.9075,Hi,,,,,,0,,,,,,,,high,15,0,15,0,1,,,,,,,,,
298285,2022-11-29_12h04.19.394,vts_reward_expectancy_bt,2022.2.4,MacIntel,120.0048002,Chrome,1512,982,,,,,0,726,,,,,,,,,,,,,,,,,167,S,star,1,0,,,,,,,,,,,,,,,,switch,letter,lettSwt,k,1.6968,Hi,,,,,,0,,,,,,,,high,16,0,16,0,1,,,,,,,,,
298285,2022-11-29_12h04.19.394,vts_reward_expectancy_bt,2022.2.4,MacIntel,120.0048002,Chrome,1512,982,,,,,1,727,,,,,,,,,,,,,,,,,125,F,hexagon,1,0,,,,,,,,,,,,,,,,switch,number,numSwt,d,0.7524,Lo,,,,,,0,,,,,,,,high,17,0,17,0,1,,,,,,,,,
298285,2022-11-29_12h04.19.394,vts_reward_expectancy_bt,2022.2.4,MacIntel,120.0048002,Chrome,1512,982,,,,,1,728,,,,,,,,,,,,,,,,,146,U,circle,1,0,,,,,,,,,,,,,,,,switch,letter,lettSwt,k,0.6269,Hi,,,,,,0,,,,,,,,high,18,0,18,0,1,,,,,,,,,
298285,2022-11-29_12h04.19.394,vts_reward_expectancy_bt,2022.2.4,MacIntel,120.0048002,Chrome,1512,982,,,,,1,729,,,,,,,,,,,,,,,,,181,H,triangle,1,0,,,,,,,,,,,,,,,,switch,number,numSwt,f,0.7396,Lo,,,,,,0,,,,,,,,high,19,0,19,0,1,,,,,,,,,
298285,2022-11-29_12h04.19.394,vts_reward_expectancy_bt,2022.2.4,MacIntel,120.0048002,Chrome,1512,982,,,,,10,739,,,,,,,,,,,,,,,,,139,B,star,1,0,,,,,,,,,,,,,,,,switch,letter,lettSwt,j,0.7064,Hi,,,,,,0,,,,,,,,high,20,0,20,0,1,,,,,,,,,
298285,2022-11-29_12h04.19.394,vts_reward_expectancy_bt,2022.2.4,MacIntel,120.0048002,Chrome,1512,982,,,,,1,740,,,,,,,,,,,,,,,,,174,D,hexagon,1,0,,,,,,,,,,,,,,,,repeat,letter,lettRpt,j,0.6824,Lo,,,,,,0,,,,,,,,high,21,0,21,0,1,,,,,,,,,
298285,2022-11-29_12h04.19.394,vts_reward_expectancy_bt,2022.2.4,MacIntel,120.0048002,Chrome,1512,982,,,,,1,741,,,,,,,,,,,,,,,,,132,Y,triangle,1,0,,,,,,,,,,,,,,,,switch,number,numSwt,d,0.6485,Lo,,,,,,0,,,,,,,,high,22,0,22,0,1,,,,,,,,,
298285,2022-11-29_12h04.19.394,vts_reward_expectancy_bt,2022.2.4,MacIntel,120.0048002,Chrome,1512,982,,,,,0,741,,,,,,,,,,,,,,,,,160,W,circle,0,0,,,,,,,,,,,,,,,,repeat,number,NA,d,0.833,Lo,,,,,,0,,,,,,,,high,23,0,23,0,1,,,,,,,,,
298285,2022-11-29_12h04.19.394,vts_reward_expectancy_bt,2022.2.4,MacIntel,120.0048002,Chrome,1512,982,,,,,1,742,,,,,,,,,,,,,,,,,174,F,triangle,1,1,,,,,,,,,,,,,,,,repeat,number,numRpt,f,0.6048,Lo,,,,,,0,,,,,,,,high,24,0,24,0,1,,,,,,,,,
298285,2022-11-29_12h04.19.394,vts_reward_expectancy_bt,2022.2.4,MacIntel,120.0048002,Chrome,1512,982,,,,,10,752,,,,,,,,,,,,,,,,,125,Y,star,1,0,,,,,,,,,,,,,,,,switch,letter,lettSwt,k,0.7661,Hi,,,,,,0,,,,,,,,high,25,0,25,0,1,,,,,,,,,
298285,2022-11-29_12h04.19.394,vts_reward_expectancy_bt,2022.2.4,MacIntel,120.0048002,Chrome,1512,982,,,,,1,753,,,,,,,,,,,,,,,,,139,W,hexagon,1,0,,,,,,,,,,,,,,,,switch,number,numSwt,d,0.7023,Lo,,,,,,0,,,,,,,,high,26,0,26,0,1,,,,,,,,,
298285,2022-11-29_12h04.19.394,vts_reward_expectancy_bt,2022.2.4,MacIntel,120.0048002,Chrome,1512,982,,,,,1,754,,,,,,,,,,,,,,,,,181,D,circle,1,0,,,,,,,,,,,,,,,,switch,letter,lettSwt,j,0.6263,Hi,,,,,,0,,,,,,,,high,27,0,27,0,1,,,,,,,,,
298285,2022-11-29_12h04.19.394,vts_reward_expectancy_bt,2022.2.4,MacIntel,120.0048002,Chrome,1512,982,,,,,10,764,,,,,,,,,,,,,,,,,146,B,star,1,0,,,,,,,,,,,,,,,,switch,number,numSwt,d,0.9131,Hi,,,,,,0,,,,,,,,high,28,0,28,0,1,,,,,,,,,
298285,2022-11-29_12h04.19.394,vts_reward_expectancy_bt,2022.2.4,MacIntel,120.0048002,Chrome,1512,982,,,,,10,774,,,,,,,,,,,,,,,,,167,U,circle,1,0,,,,,,,,,,,,,,,,switch,letter,lettSwt,k,0.5849,Hi,,,,,,0,,,,,,,,high,29,0,29,0,1,,,,,,,,,
298285,2022-11-29_12h04.19.394,vts_reward_expectancy_bt,2022.2.4,MacIntel,120.0048002,Chrome,1512,982,,,,,1,775,,,,,,,,,,,,,,,,,160,S,hexagon,1,0,,,,,,,,,,,,,,,,switch,number,numSwt,f,0.9224,Lo,,,,,,0,,,,,,,,high,30,0,30,0,1,,,,,,,,,
298285,2022-11-29_12h04.19.394,vts_reward_expectancy_bt,2022.2.4,MacIntel,120.0048002,Chrome,1512,982,,,,,1,776,,,,,,,,,,,,,,,,,132,H,triangle,1,0,,,,,,,,,,,,,,,,switch,letter,lettSwt,j,0.7431,Lo,,,,,,0,,,,,,,,high,31,0,31,0,1,,,,,,,,,
298285,2022-11-29_12h04.19.394,vts_reward_expectancy_bt,2022.2.4,MacIntel,120.0048002,Chrome,1512,982,,,,,0,776,,,,,,,,,,,,,,,,,181,U,circle,1,0,,,,,,,,,,,,,,,,switch,number,numSwt,f,0.8317,Hi,,,,,,1,,,,,,space,13.9971,high,0,0,0,0,1,,,,,,,,,
298285,2022-11-29_12h04.19.394,vts_reward_expectancy_bt,2022.2.4,MacIntel,120.0048002,Chrome,1512,982,,,,,0,776,,,,,,,,,,,,,,,,,132,F,star,1,0,,,,,,,,,,,,,,,,switch,letter,lettSwt,j,0.7564,Hi,,,,,,1,,,,,,,,high,1,0,1,0,1,,,,,,,,,
298285,2022-11-29_12h04.19.394,vts_reward_expectancy_bt,2022.2.4,MacIntel,120.0048002,Chrome,1512,982,,,,,1,777,,,,,,,,,,,,,,,,,139,Y,triangle,1,0,,,,,,,,,,,,,,,,switch,number,numSwt,d,0.4799,Lo,,,,,,1,,,,,,,,high,2,0,2,0,1,,,,,,,,,
298285,2022-11-29_12h04.19.394,vts_reward_expectancy_bt,2022.2.4,MacIntel,120.0048002,Chrome,1512,982,,,,,10,787,,,,,,,,,,,,,,,,,160,H,hexagon,1,0,,,,,,,,,,,,,,,,switch,letter,lettSwt,j,0.5897,Lo,,,,,,1,,,,,,,,high,3,0,3,0,1,,,,,,,,,
298285,2022-11-29_12h04.19.394,vts_reward_expectancy_bt,2022.2.4,MacIntel,120.0048002,Chrome,1512,982,,,,,10,797,,,,,,,,,,,,,,,,,167,D,circle,1,0,,,,,,,,,,,,,,,,switch,number,numSwt,f,0.499,Hi,,,,,,1,,,,,,,,high,4,0,4,0,1,,,,,,,,,
298285,2022-11-29_12h04.19.394,vts_reward_expectancy_bt,2022.2.4,MacIntel,120.0048002,Chrome,1512,982,,,,,10,807,,,,,,,,,,,,,,,,,174,W,star,1,0,,,,,,,,,,,,,,,,switch,letter,lettSwt,k,0.4821,Hi,,,,,,1,,,,,,,,high,5,0,5,0,1,,,,,,,,,
298285,2022-11-29_12h04.19.394,vts_reward_expectancy_bt,2022.2.4,MacIntel,120.0048002,Chrome,1512,982,,,,,10,817,,,,,,,,,,,,,,,,,125,S,triangle,1,0,,,,,,,,,,,,,,,,switch,number,numSwt,d,0.5034,Lo,,,,,,1,,,,,,,,high,6,0,6,0,1,,,,,,,,,
298285,2022-11-29_12h04.19.394,vts_reward_expectancy_bt,2022.2.4,MacIntel,120.0048002,Chrome,1512,982,,,,,0,817,,,,,,,,,,,,,,,,,146,B,hexagon,0,0,,,,,,,,,,,,,,,,repeat,number,NA,f,0.6462,Lo,,,,,,1,,,,,,,,high,7,0,7,0,1,,,,,,,,,
298285,2022-11-29_12h04.19.394,vts_reward_expectancy_bt,2022.2.4,MacIntel,120.0048002,Chrome,1512,982,,,,,0,817,,,,,,,,,,,,,,,,,181,U,triangle,0,1,,,,,,,,,,,,,,,,repeat,number,NA,d,0.6594,Lo,,,,,,1,,,,,,,,high,8,0,8,0,1,,,,,,,,,
298285,2022-11-29_12h04.19.394,vts_reward_expectancy_bt,2022.2.4,MacIntel,120.0048002,Chrome,1512,982,,,,,0,817,,,,,,,,,,,,,,,,,132,F,circle,1,1,,,,,,,,,,,,,,,,switch,letter,lettSwt,j,0.6321,Hi,,,,,,1,,,,,,,,high,9,0,9,0,1,,,,,,,,,
298285,2022-11-29_12h04.19.394,vts_reward_expectancy_bt,2022.2.4,MacIntel,120.0048002,Chrome,1512,982,,,,,0,817,,,,,,,,,,,,,,,,,139,Y,star,0,0,,,,,,,,,,,,,,,,switch,number,NA,f,0.5558,Hi,,,,,,1,,,,,,,,high,10,0,10,0,1,,,,,,,,,
298285,2022-11-29_12h04.19.394,vts_reward_expectancy_bt,2022.2.4,MacIntel,120.0048002,Chrome,1512,982,,,,,0,817,,,,,,,,,,,,,,,,,160,H,hexagon,0,1,,,,,,,,,,,,,,,,repeat,number,NA,d,0.723,Hi,,,,,,1,,,,,,,,high,11,0,11,0,1,,,,,,,,,
298285,2022-11-29_12h04.19.394,vts_reward_expectancy_bt,2022.2.4,MacIntel,120.0048002,Chrome,1512,982,,,,,10,827,,,,,,,,,,,,,,,,,167,D,star,1,1,,,,,,,,,,,,,,,,switch,letter,lettSwt,j,0.5287,Hi,,,,,,1,,,,,,,,high,12,0,12,0,1,,,,,,,,,
298285,2022-11-29_12h04.19.394,vts_reward_expectancy_bt,2022.2.4,MacIntel,120.0048002,Chrome,1512,982,,,,,10,837,,,,,,,,,,,,,,,,,174,W,hexagon,1,0,,,,,,,,,,,,,,,,switch,number,numSwt,f,0.4614,Lo,,,,,,1,,,,,,,,high,13,0,13,0,1,,,,,,,,,
298285,2022-11-29_12h04.19.394,vts_reward_expectancy_bt,2022.2.4,MacIntel,120.0048002,Chrome,1512,982,,,,,1,838,,,,,,,,,,,,,,,,,125,S,triangle,1,0,,,,,,,,,,,,,,,,switch,letter,lettSwt,k,0.5267,Lo,,,,,,1,,,,,,,,high,14,0,14,0,1,,,,,,,,,
298285,2022-11-29_12h04.19.394,vts_reward_expectancy_bt,2022.2.4,MacIntel,120.0048002,Chrome,1512,982,,,,,0,838,,,,,,,,,,,,,,,,,146,B,circle,0,0,,,,,,,,,,,,,,,,switch,number,NA,f,0.5869,Lo,,,,,,1,,,,,,,,high,15,0,15,0,1,,,,,,,,,
298285,2022-11-29_12h04.19.394,vts_reward_expectancy_bt,2022.2.4,MacIntel,120.0048002,Chrome,1512,982,,,,,0,838,,,,,,,,,,,,,,,,,146,F,triangle,0,1,,,,,,,,,,,,,,,,repeat,number,NA,f,0.5047,Lo,,,,,,1,,,,,,,,high,16,0,16,0,1,,,,,,,,,
298285,2022-11-29_12h04.19.394,vts_reward_expectancy_bt,2022.2.4,MacIntel,120.0048002,Chrome,1512,982,,,,,1,839,,,,,,,,,,,,,,,,,125,S,star,1,1,,,,,,,,,,,,,,,,repeat,number,numRpt,d,0.5013,Hi,,,,,,1,,,,,,,,high,17,0,17,0,1,,,,,,,,,
298285,2022-11-29_12h04.19.394,vts_reward_expectancy_bt,2022.2.4,MacIntel,120.0048002,Chrome,1512,982,,,,,10,849,,,,,,,,,,,,,,,,,139,B,circle,1,0,,,,,,,,,,,,,,,,repeat,number,numRpt,d,0.572,Hi,,,,,,1,,,,,,,,high,18,0,18,0,1,,,,,,,,,
298285,2022-11-29_12h04.19.394,vts_reward_expectancy_bt,2022.2.4,MacIntel,120.0048002,Chrome,1512,982,,,,,1,850,,,,,,,,,,,,,,,,,181,D,hexagon,1,0,,,,,,,,,,,,,,,,switch,letter,lettSwt,j,0.4192,Lo,,,,,,1,,,,,,,,high,19,0,19,0,1,,,,,,,,,
298285,2022-11-29_12h04.19.394,vts_reward_expectancy_bt,2022.2.4,MacIntel,120.0048002,Chrome,1512,982,,,,,10,860,,,,,,,,,,,,,,,,,132,W,circle,1,0,,,,,,,,,,,,,,,,switch,number,numSwt,d,0.6333,Hi,,,,,,1,,,,,,,,high,20,0,20,0,1,,,,,,,,,
298285,2022-11-29_12h04.19.394,vts_reward_expectancy_bt,2022.2.4,MacIntel,120.0048002,Chrome,1512,982,,,,,0,860,,,,,,,,,,,,,,,,,167,Y,hexagon,0,0,,,,,,,,,,,,,,,,switch,letter,NA,j,0.3886,Hi,,,,,,1,,,,,,,,high,21,0,21,0,1,,,,,,,,,
298285,2022-11-29_12h04.19.394,vts_reward_expectancy_bt,2022.2.4,MacIntel,120.0048002,Chrome,1512,982,,,,,10,870,,,,,,,,,,,,,,,,,160,H,star,1,1,,,,,,,,,,,,,,,,switch,number,numSwt,f,0.6532,Hi,,,,,,1,,,,,,,,high,22,0,22,0,1,,,,,,,,,
298285,2022-11-29_12h04.19.394,vts_reward_expectancy_bt,2022.2.4,MacIntel,120.0048002,Chrome,1512,982,,,,,1,871,,,,,,,,,,,,,,,,,174,U,triangle,1,0,,,,,,,,,,,,,,,,switch,letter,lettSwt,k,0.7048,Lo,,,,,,1,,,,,,,,high,23,0,23,0,1,,,,,,,,,
298285,2022-11-29_12h04.19.394,vts_reward_expectancy_bt,2022.2.4,MacIntel,120.0048002,Chrome,1512,982,,,,,1,872,,,,,,,,,,,,,,,,,181,B,triangle,1,0,,,,,,,,,,,,,,,,switch,number,numSwt,f,0.5825,Lo,,,,,,1,,,,,,,,high,24,0,24,0,1,,,,,,,,,
298285,2022-11-29_12h04.19.394,vts_reward_expectancy_bt,2022.2.4,MacIntel,120.0048002,Chrome,1512,982,,,,,0,872,,,,,,,,,,,,,,,,,125,H,star,1,0,,,,,,,,,,,,,,,,switch,letter,lettSwt,j,0.6318,Hi,,,,,,1,,,,,,,,high,25,0,25,0,1,,,,,,,,,
298285,2022-11-29_12h04.19.394,vts_reward_expectancy_bt,2022.2.4,MacIntel,120.0048002,Chrome,1512,982,,,,,1,873,,,,,,,,,,,,,,,,,167,S,hexagon,1,0,,,,,,,,,,,,,,,,switch,number,numSwt,f,0.5123,Lo,,,,,,1,,,,,,,,high,26,0,26,0,1,,,,,,,,,
298285,2022-11-29_12h04.19.394,vts_reward_expectancy_bt,2022.2.4,MacIntel,120.0048002,Chrome,1512,982,,,,,10,883,,,,,,,,,,,,,,,,,160,U,circle,1,0,,,,,,,,,,,,,,,,switch,letter,lettSwt,k,0.5544,Hi,,,,,,1,,,,,,,,high,27,0,27,0,1,,,,,,,,,
298285,2022-11-29_12h04.19.394,vts_reward_expectancy_bt,2022.2.4,MacIntel,120.0048002,Chrome,1512,982,,,,,10,893,,,,,,,,,,,,,,,,,132,Y,star,1,0,,,,,,,,,,,,,,,,switch,number,numSwt,d,0.6824,Hi,,,,,,1,,,,,,,,high,28,0,28,0,1,,,,,,,,,
298285,2022-11-29_12h04.19.394,vts_reward_expectancy_bt,2022.2.4,MacIntel,120.0048002,Chrome,1512,982,,,,,10,903,,,,,,,,,,,,,,,,,146,D,hexagon,1,0,,,,,,,,,,,,,,,,switch,letter,lettSwt,j,0.6712,Lo,,,,,,1,,,,,,,,high,29,0,29,0,1,,,,,,,,,
298285,2022-11-29_12h04.19.394,vts_reward_expectancy_bt,2022.2.4,MacIntel,120.0048002,Chrome,1512,982,,,,,1,904,,,,,,,,,,,,,,,,,139,F,circle,1,0,,,,,,,,,,,,,,,,repeat,letter,lettRpt,j,0.5759,Hi,,,,,,1,,,,,,,,high,30,0,30,0,1,,,,,,,,,
298285,2022-11-29_12h04.19.394,vts_reward_expectancy_bt,2022.2.4,MacIntel,120.0048002,Chrome,1512,982,,,,,1,905,,,,,,,,,,,,,,,,,174,W,triangle,1,0,,,,,,,,,,,,,,,,switch,number,numSwt,f,0.4887,Lo,,,,,,1,,,,,,,,high,31,0,31,0,1,,,,,,,,,
298285,2022-11-29_12h04.19.394,vts_reward_expectancy_bt,2022.2.4,MacIntel,120.0048002,Chrome,1512,982,,,,,0,905,,,,,,,,,,,,,,,,,174,S,star,1,0,,,,,,,,,,,,,,,,switch,letter,lettSwt,k,0.5771,Hi,,,,,,2,,,,,,space,323.6997,high,0,0,0,0,1,,,,,,,,,
298285,2022-11-29_12h04.19.394,vts_reward_expectancy_bt,2022.2.4,MacIntel,120.0048002,Chrome,1512,982,,,,,0,905,,,,,,,,,,,,,,,,,125,D,triangle,0,0,,,,,,,,,,,,,,,,switch,number,NA,f,0.4391,Hi,,,,,,2,,,,,,,,high,1,0,1,0,1,,,,,,,,,
298285,2022-11-29_12h04.19.394,vts_reward_expectancy_bt,2022.2.4,MacIntel,120.0048002,Chrome,1512,982,,,,,0,905,,,,,,,,,,,,,,,,,160,B,hexagon,0,1,,,,,,,,,,,,,,,,repeat,number,NA,d,0.4645,Hi,,,,,,2,,,,,,,,high,2,0,2,0,1,,,,,,,,,
298285,2022-11-29_12h04.19.394,vts_reward_expectancy_bt,2022.2.4,MacIntel,120.0048002,Chrome,1512,982,,,,,0,905,,,,,,,,,,,,,,,,,167,U,circle,1,1,,,,,,,,,,,,,,,,repeat,number,numRpt,f,0.6562,Hi,,,,,,2,,,,,,,,high,3,0,3,0,1,,,,,,,,,
298285,2022-11-29_12h04.19.394,vts_reward_expectancy_bt,2022.2.4,MacIntel,120.0048002,Chrome,1512,982,,,,,0,905,,,,,,,,,,,,,,,,,146,H,star,0,0,,,,,,,,,,,,,,,,switch,letter,NA,k,0.4119,Hi,,,,,,2,,,,,,,,high,4,0,4,0,1,,,,,,,,,
298285,2022-11-29_12h04.19.394,vts_reward_expectancy_bt,2022.2.4,MacIntel,120.0048002,Chrome,1512,982,,,,,0,905,,,,,,,,,,,,,,,,,132,F,triangle,0,1,,,,,,,,,,,,,,,,repeat,letter,NA,k,0.4822,Hi,,,,,,2,,,,,,,,high,5,0,5,0,1,,,,,,,,,
298285,2022-11-29_12h04.19.394,vts_reward_expectancy_bt,2022.2.4,MacIntel,120.0048002,Chrome,1512,982,,,,,1,906,,,,,,,,,,,,,,,,,181,W,hexagon,1,1,,,,,,,,,,,,,,,,switch,number,numSwt,f,0.4642,Lo,,,,,,2,,,,,,,,high,6,0,6,0,1,,,,,,,,,
298285,2022-11-29_12h04.19.394,vts_reward_expectancy_bt,2022.2.4,MacIntel,120.0048002,Chrome,1512,982,,,,,10,916,,,,,,,,,,,,,,,,,139,Y,circle,1,0,,,,,,,,,,,,,,,,switch,letter,lettSwt,k,0.4919,Hi,,,,,,2,,,,,,,,high,7,0,7,0,1,,,,,,,,,
298285,2022-11-29_12h04.19.394,vts_reward_expectancy_bt,2022.2.4,MacIntel,120.0048002,Chrome,1512,982,,,,,10,926,,,,,,,,,,,,,,,,,174,S,circle,1,0,,,,,,,,,,,,,,,,switch,number,numSwt,f,0.4461,Hi,,,,,,2,,,,,,,,high,8,0,8,0,1,,,,,,,,,
298285,2022-11-29_12h04.19.394,vts_reward_expectancy_bt,2022.2.4,MacIntel,120.0048002,Chrome,1512,982,,,,,1,927,,,,,,,,,,,,,,,,,125,D,triangle,1,0,,,,,,,,,,,,,,,,switch,letter,lettSwt,j,0.4717,Lo,,,,,,2,,,,,,,,high,9,0,9,0,1,,,,,,,,,
298285,2022-11-29_12h04.19.394,vts_reward_expectancy_bt,2022.2.4,MacIntel,120.0048002,Chrome,1512,982,,,,,10,937,,,,,,,,,,,,,,,,,160,B,star,1,0,,,,,,,,,,,,,,,,repeat,letter,lettRpt,j,0.4723,Hi,,,,,,2,,,,,,,,high,10,0,10,0,1,,,,,,,,,
298285,2022-11-29_12h04.19.394,vts_reward_expectancy_bt,2022.2.4,MacIntel,120.0048002,Chrome,1512,982,,,,,1,938,,,,,,,,,,,,,,,,,167,U,hexagon,1,0,,,,,,,,,,,,,,,,switch,number,numSwt,f,0.5574,Lo,,,,,,2,,,,,,,,high,11,0,11,0,1,,,,,,,,,
298285,2022-11-29_12h04.19.394,vts_reward_expectancy_bt,2022.2.4,MacIntel,120.0048002,Chrome,1512,982,,,,,1,939,,,,,,,,,,,,,,,,,146,H,hexagon,1,0,,,,,,,,,,,,,,,,switch,letter,lettSwt,j,0.5846,Lo,,,,,,2,,,,,,,,high,12,0,12,0,1,,,,,,,,,
298285,2022-11-29_12h04.19.394,vts_reward_expectancy_bt,2022.2.4,MacIntel,120.0048002,Chrome,1512,982,,,,,1,940,,,,,,,,,,,,,,,,,132,F,triangle,1,0,,,,,,,,,,,,,,,,switch,number,numSwt,d,0.6387,Lo,,,,,,2,,,,,,,,high,13,0,13,0,1,,,,,,,,,
298285,2022-11-29_12h04.19.394,vts_reward_expectancy_bt,2022.2.4,MacIntel,120.0048002,Chrome,1512,982,,,,,0,940,,,,,,,,,,,,,,,,,181,W,circle,0,0,,,,,,,,,,,,,,,,switch,letter,NA,j,0.5482,Lo,,,,,,2,,,,,,,,high,14,0,14,0,1,,,,,,,,,
298285,2022-11-29_12h04.19.394,vts_reward_expectancy_bt,2022.2.4,MacIntel,120.0048002,Chrome,1512,982,,,,,10,950,,,,,,,,,,,,,,,,,139,Y,star,1,1,,,,,,,,,,,,,,,,repeat,letter,lettRpt,k,0.5071,Hi,,,,,,2,,,,,,,,high,15,0,15,0,1,,,,,,,,,
298285,2022-11-29_12h04.19.394,vts_reward_expectancy_bt,2022.2.4,MacIntel,120.0048002,Chrome,1512,982,,,,,1,951,,,,,,,,,,,,,,,,,132,W,triangle,1,0,,,,,,,,,,,,,,,,switch,number,numSwt,d,0.6635,Lo,,,,,,2,,,,,,,,high,16,0,16,0,1,,,,,,,,,
298285,2022-11-29_12h04.19.394,vts_reward_expectancy_bt,2022.2.4,MacIntel,120.0048002,Chrome,1512,982,,,,,0,951,,,,,,,,,,,,,,,,,181,S,circle,1,0,,,,,,,,,,,,,,,,switch,letter,lettSwt,k,0.5483,Hi,,,,,,2,,,,,,,,high,17,0,17,0,1,,,,,,,,,
298285,2022-11-29_12h04.19.394,vts_reward_expectancy_bt,2022.2.4,MacIntel,120.0048002,Chrome,1512,982,,,,,1,952,,,,,,,,,,,,,,,,,139,D,star,1,0,,,,,,,,,,,,,,,,repeat,letter,lettRpt,j,0.4647,Hi,,,,,,2,,,,,,,,high,18,0,18,0,1,,,,,,,,,
298285,2022-11-29_12h04.19.394,vts_reward_expectancy_bt,2022.2.4,MacIntel,120.0048002,Chrome,1512,982,,,,,1,953,,,,,,,,,,,,,,,,,167,U,hexagon,1,0,,,,,,,,,,,,,,,,switch,number,numSwt,f,0.5478,Lo,,,,,,2,,,,,,,,high,19,0,19,0,1,,,,,,,,,
298285,2022-11-29_12h04.19.394,vts_reward_expectancy_bt,2022.2.4,MacIntel,120.0048002,Chrome,1512,982,,,,,10,963,,,,,,,,,,,,,,,,,174,B,circle,1,0,,,,,,,,,,,,,,,,switch,letter,lettSwt,j,0.4599,Hi,,,,,,2,,,,,,,,high,20,0,20,0,1,,,,,,,,,
298285,2022-11-29_12h04.19.394,vts_reward_expectancy_bt,2022.2.4,MacIntel,120.0048002,Chrome,1512,982,,,,,10,973,,,,,,,,,,,,,,,,,160,F,hexagon,1,0,,,,,,,,,,,,,,,,switch,number,numSwt,f,0.5339,Lo,,,,,,2,,,,,,,,high,21,0,21,0,1,,,,,,,,,
298285,2022-11-29_12h04.19.394,vts_reward_expectancy_bt,2022.2.4,MacIntel,120.0048002,Chrome,1512,982,,,,,1,974,,,,,,,,,,,,,,,,,125,H,star,1,0,,,,,,,,,,,,,,,,switch,letter,lettSwt,j,0.4942,Hi,,,,,,2,,,,,,,,high,22,0,22,0,1,,,,,,,,,
298285,2022-11-29_12h04.19.394,vts_reward_expectancy_bt,2022.2.4,MacIntel,120.0048002,Chrome,1512,982,,,,,1,975,,,,,,,,,,,,,,,,,146,Y,triangle,1,0,,,,,,,,,,,,,,,,switch,number,numSwt,d,0.6104,Lo,,,,,,2,,,,,,,,high,23,0,23,0,1,,,,,,,,,
298285,2022-11-29_12h04.19.394,vts_reward_expectancy_bt,2022.2.4,MacIntel,120.0048002,Chrome,1512,982,,,,,10,985,,,,,,,,,,,,,,,,,139,U,circle,1,0,,,,,,,,,,,,,,,,switch,letter,lettSwt,k,0.4529,Hi,,,,,,2,,,,,,,,high,24,0,24,0,1,,,,,,,,,
298285,2022-11-29_12h04.19.394,vts_reward_expectancy_bt,2022.2.4,MacIntel,120.0048002,Chrome,1512,982,,,,,1,986,,,,,,,,,,,,,,,,,160,D,triangle,1,0,,,,,,,,,,,,,,,,switch,number,numSwt,f,0.6405,Lo,,,,,,2,,,,,,,,high,25,0,25,0,1,,,,,,,,,
298285,2022-11-29_12h04.19.394,vts_reward_expectancy_bt,2022.2.4,MacIntel,120.0048002,Chrome,1512,982,,,,,1,987,,,,,,,,,,,,,,,,,181,Y,hexagon,1,0,,,,,,,,,,,,,,,,switch,letter,lettSwt,k,0.5767,Lo,,,,,,2,,,,,,,,high,26,0,26,0,1,,,,,,,,,
298285,2022-11-29_12h04.19.394,vts_reward_expectancy_bt,2022.2.4,MacIntel,120.0048002,Chrome,1512,982,,,,,10,997,,,,,,,,,,,,,,,,,167,W,star,1,0,,,,,,,,,,,,,,,,repeat,letter,lettRpt,k,0.4802,Hi,,,,,,2,,,,,,,,high,27,0,27,0,1,,,,,,,,,
298285,2022-11-29_12h04.19.394,vts_reward_expectancy_bt,2022.2.4,MacIntel,120.0048002,Chrome,1512,982,,,,,0,997,,,,,,,,,,,,,,,,,174,H,star,1,0,,,,,,,,,,,,,,,,switch,number,numSwt,f,0.5489,Hi,,,,,,2,,,,,,,,high,28,0,28,0,1,,,,,,,,,
298285,2022-11-29_12h04.19.394,vts_reward_expectancy_bt,2022.2.4,MacIntel,120.0048002,Chrome,1512,982,,,,,1,998,,,,,,,,,,,,,,,,,146,B,triangle,1,0,,,,,,,,,,,,,,,,repeat,number,numRpt,d,0.5288,Lo,,,,,,2,,,,,,,,high,29,0,29,0,1,,,,,,,,,
298285,2022-11-29_12h04.19.394,vts_reward_expectancy_bt,2022.2.4,MacIntel,120.0048002,Chrome,1512,982,,,,,10,1008,,,,,,,,,,,,,,,,,125,F,circle,1,0,,,,,,,,,,,,,,,,switch,letter,lettSwt,j,0.5244,Hi,,,,,,2,,,,,,,,high,30,0,30,0,1,,,,,,,,,
298285,2022-11-29_12h04.19.394,vts_reward_expectancy_bt,2022.2.4,MacIntel,120.0048002,Chrome,1512,982,,,,,10,1018,,,,,,,,,,,,,,,,,132,S,hexagon,1,0,,,,,,,,,,,,,,,,switch,number,numSwt,d,0.5458,Lo,,,,,,2,,,,,,,,high,31,0,31,0,1,,,,,,,,,
298285,2022-11-29_12h04.19.394,vts_reward_expectancy_bt,2022.2.4,MacIntel,120.0048002,Chrome,1512,982,,,,,0,1018,,,,,,,,,,,,,,,,,132,W,hexagon,0,0,,,,,,,,,,,,,,,,repeat,number,NA,f,0.6982,Lo,,,,,,3,,,,,,space,0.9871,high,0,0,0,0,1,,,,,,,,,
298285,2022-11-29_12h04.19.394,vts_reward_expectancy_bt,2022.2.4,MacIntel,120.0048002,Chrome,1512,982,,,,,10,1028,,,,,,,,,,,,,,,,,160,B,star,1,1,,,,,,,,,,,,,,,,switch,letter,lettSwt,j,0.4064,Hi,,,,,,3,,,,,,,,high,1,0,1,0,1,,,,,,,,,
298285,2022-11-29_12h04.19.394,vts_reward_expectancy_bt,2022.2.4,MacIntel,120.0048002,Chrome,1512,982,,,,,1,1029,,,,,,,,,,,,,,,,,174,S,triangle,1,0,,,,,,,,,,,,,,,,switch,number,numSwt,f,0.5108,Lo,,,,,,3,,,,,,,,high,2,0,2,0,1,,,,,,,,,
298285,2022-11-29_12h04.19.394,vts_reward_expectancy_bt,2022.2.4,MacIntel,120.0048002,Chrome,1512,982,,,,,0,1029,,,,,,,,,,,,,,,,,167,F,circle,1,0,,,,,,,,,,,,,,,,switch,letter,lettSwt,j,0.6341,Hi,,,,,,3,,,,,,,,high,3,0,3,0,1,,,,,,,,,
298285,2022-11-29_12h04.19.394,vts_reward_expectancy_bt,2022.2.4,MacIntel,120.0048002,Chrome,1512,982,,,,,10,1039,,,,,,,,,,,,,,,,,125,D,hexagon,1,0,,,,,,,,,,,,,,,,repeat,letter,lettRpt,j,0.3899,Lo,,,,,,3,,,,,,,,high,4,0,4,0,1,,,,,,,,,
298285,2022-11-29_12h04.19.394,vts_reward_expectancy_bt,2022.2.4,MacIntel,120.0048002,Chrome,1512,982,,,,,0,1039,,,,,,,,,,,,,,,,,181,H,star,1,0,,,,,,,,,,,,,,,,repeat,letter,lettRpt,j,0.4912,Hi,,,,,,3,,,,,,,,high,5,0,5,0,1,,,,,,,,,
298285,2022-11-29_12h04.19.394,vts_reward_expectancy_bt,2022.2.4,MacIntel,120.0048002,Chrome,1512,982,,,,,1,1040,,,,,,,,,,,,,,,,,139,Y,triangle,1,0,,,,,,,,,,,,,,,,switch,number,numSwt,d,0.3887,Lo,,,,,,3,,,,,,,,high,6,0,6,0,1,,,,,,,,,
298285,2022-11-29_12h04.19.394,vts_reward_expectancy_bt,2022.2.4,MacIntel,120.0048002,Chrome,1512,982,,,,,0,1040,,,,,,,,,,,,,,,,,146,U,circle,1,0,,,,,,,,,,,,,,,,switch,letter,lettSwt,k,0.5209,Hi,,,,,,3,,,,,,,,high,7,0,7,0,1,,,,,,,,,
298285,2022-11-29_12h04.19.394,vts_reward_expectancy_bt,2022.2.4,MacIntel,120.0048002,Chrome,1512,982,,,,,0,1040,,,,,,,,,,,,,,,,,132,W,circle,0,0,,,,,,,,,,,,,,,,switch,number,NA,f,0.5059,Hi,,,,,,3,,,,,,,,high,8,0,8,0,1,,,,,,,,,
298285,2022-11-29_12h04.19.394,vts_reward_expectancy_bt,2022.2.4,MacIntel,120.0048002,Chrome,1512,982,,,,,10,1050,,,,,,,,,,,,,,,,,160,B,star,1,1,,,,,,,,,,,,,,,,repeat,number,numRpt,f,0.4724,Hi,,,,,,3,,,,,,,,high,9,0,9,0,1,,,,,,,,,
298285,2022-11-29_12h04.19.394,vts_reward_expectancy_bt,2022.2.4,MacIntel,120.0048002,Chrome,1512,982,,,,,0,1050,,,,,,,,,,,,,,,,,174,S,hexagon,0,0,,,,,,,,,,,,,,,,switch,letter,NA,j,0.4446,Hi,,,,,,3,,,,,,,,high,10,0,10,0,1,,,,,,,,,
298285,2022-11-29_12h04.19.394,vts_reward_expectancy_bt,2022.2.4,MacIntel,120.0048002,Chrome,1512,982,,,,,1,1051,,,,,,,,,,,,,,,,,167,F,triangle,1,1,,,,,,,,,,,,,,,,repeat,letter,lettRpt,j,0.4549,Lo,,,,,,3,,,,,,,,high,11,0,11,0,1,,,,,,,,,
298285,2022-11-29_12h04.19.394,vts_reward_expectancy_bt,2022.2.4,MacIntel,120.0048002,Chrome,1512,982,,,,,10,1061,,,,,,,,,,,,,,,,,125,D,star,1,0,,,,,,,,,,,,,,,,switch,number,numSwt,d,0.4395,Hi,,,,,,3,,,,,,,,high,12,0,12,0,1,,,,,,,,,
298285,2022-11-29_12h04.19.394,vts_reward_expectancy_bt,2022.2.4,MacIntel,120.0048002,Chrome,1512,982,,,,,0,1061,,,,,,,,,,,,,,,,,181,H,circle,1,0,,,,,,,,,,,,,,,,switch,letter,lettSwt,j,0.4975,Hi,,,,,,3,,,,,,,,high,13,0,13,0,1,,,,,,,,,
298285,2022-11-29_12h04.19.394,vts_reward_expectancy_bt,2022.2.4,MacIntel,120.0048002,Chrome,1512,982,,,,,1,1062,,,,,,,,,,,,,,,,,139,Y,hexagon,1,0,,,,,,,,,,,,,,,,repeat,letter,lettRpt,k,0.5121,Lo,,,,,,3,,,,,,,,high,14,0,14,0,1,,,,,,,,,
298285,2022-11-29_12h04.19.394,vts_reward_expectancy_bt,2022.2.4,MacIntel,120.0048002,Chrome,1512,982,,,,,1,1063,,,,,,,,,,,,,,,,,146,U,triangle,1,0,,,,,,,,,,,,,,,,switch,number,numSwt,d,0.4304,Lo,,,,,,3,,,,,,,,high,15,0,15,0,1,,,,,,,,,
298285,2022-11-29_12h04.19.394,vts_reward_expectancy_bt,2022.2.4,MacIntel,120.0048002,Chrome,1512,982,,,,,1,1064,,,,,,,,,,,,,,,,,181,S,star,1,0,,,,,,,,,,,,,,,,repeat,number,numRpt,f,0.4328,Hi,,,,,,3,,,,,,,,high,16,0,16,0,1,,,,,,,,,
298285,2022-11-29_12h04.19.394,vts_reward_expectancy_bt,2022.2.4,MacIntel,120.0048002,Chrome,1512,982,,,,,10,1074,,,,,,,,,,,,,,,,,125,Y,circle,1,0,,,,,,,,,,,,,,,,switch,letter,lettSwt,k,0.4758,Hi,,,,,,3,,,,,,,,high,17,0,17,0,1,,,,,,,,,
298285,2022-11-29_12h04.19.394,vts_reward_expectancy_bt,2022.2.4,MacIntel,120.0048002,Chrome,1512,982,,,,,1,1075,,,,,,,,,,,,,,,,,132,F,hexagon,1,0,,,,,,,,,,,,,,,,repeat,letter,lettRpt,j,0.4339,Lo,,,,,,3,,,,,,,,high,18,0,18,0,1,,,,,,,,,
298285,2022-11-29_12h04.19.394,vts_reward_expectancy_bt,2022.2.4,MacIntel,120.0048002,Chrome,1512,982,,,,,1,1076,,,,,,,,,,,,,,,,,146,W,triangle,1,0,,,,,,,,,,,,,,,,switch,number,numSwt,d,0.5419,Lo,,,,,,3,,,,,,,,high,19,0,19,0,1,,,,,,,,,
298285,2022-11-29_12h04.19.394,vts_reward_expectancy_bt,2022.2.4,MacIntel,120.0048002,Chrome,1512,982,,,,,1,1077,,,,,,,,,,,,,,,,,139,B,triangle,1,0,,,,,,,,,,,,,,,,switch,letter,lettSwt,j,0.4387,Lo,,,,,,3,,,,,,,,high,20,0,20,0,1,,,,,,,,,
298285,2022-11-29_12h04.19.394,vts_reward_expectancy_bt,2022.2.4,MacIntel,120.0048002,Chrome,1512,982,,,,,10,1087,,,,,,,,,,,,,,,,,174,D,hexagon,1,0,,,,,,,,,,,,,,,,switch,number,numSwt,f,0.5143,Lo,,,,,,3,,,,,,,,high,21,0,21,0,1,,,,,,,,,
298285,2022-11-29_12h04.19.394,vts_reward_expectancy_bt,2022.2.4,MacIntel,120.0048002,Chrome,1512,982,,,,,0,1087,,,,,,,,,,,,,,,,,167,U,star,1,0,,,,,,,,,,,,,,,,switch,letter,lettSwt,k,0.5326,Hi,,,,,,3,,,,,,,,high,22,0,22,0,1,,,,,,,,,
298285,2022-11-29_12h04.19.394,vts_reward_expectancy_bt,2022.2.4,MacIntel,120.0048002,Chrome,1512,982,,,,,10,1097,,,,,,,,,,,,,,,,,160,H,circle,1,0,,,,,,,,,,,,,,,,switch,number,numSwt,f,0.4363,Hi,,,,,,3,,,,,,,,high,23,0,23,0,1,,,,,,,,,
298285,2022-11-29_12h04.19.394,vts_reward_expectancy_bt,2022.2.4,MacIntel,120.0048002,Chrome,1512,982,,,,,1,1098,,,,,,,,,,,,,,,,,146,B,triangle,1,0,,,,,,,,,,,,,,,,switch,letter,lettSwt,j,0.4045,Lo,,,,,,3,,,,,,,,high,24,0,24,0,1,,,,,,,,,
298285,2022-11-29_12h04.19.394,vts_reward_expectancy_bt,2022.2.4,MacIntel,120.0048002,Chrome,1512,982,,,,,0,1098,,,,,,,,,,,,,,,,,132,Y,circle,0,0,,,,,,,,,,,,,,,,switch,number,NA,f,0.563,Lo,,,,,,3,,,,,,,,high,25,0,25,0,1,,,,,,,,,
298285,2022-11-29_12h04.19.394,vts_reward_expectancy_bt,2022.2.4,MacIntel,120.0048002,Chrome,1512,982,,,,,1,1099,,,,,,,,,,,,,,,,,160,H,hexagon,1,1,,,,,,,,,,,,,,,,repeat,number,numRpt,f,0.4064,Lo,,,,,,3,,,,,,,,high,26,0,26,0,1,,,,,,,,,
298285,2022-11-29_12h04.19.394,vts_reward_expectancy_bt,2022.2.4,MacIntel,120.0048002,Chrome,1512,982,,,,,0,1099,,,,,,,,,,,,,,,,,167,U,star,1,0,,,,,,,,,,,,,,,,switch,letter,lettSwt,k,0.498,Hi,,,,,,3,,,,,,,,high,27,0,27,0,1,,,,,,,,,
298285,2022-11-29_12h04.19.394,vts_reward_expectancy_bt,2022.2.4,MacIntel,120.0048002,Chrome,1512,982,,,,,1,1100,,,,,,,,,,,,,,,,,181,F,triangle,1,0,,,,,,,,,,,,,,,,repeat,letter,lettRpt,j,0.4255,Lo,,,,,,3,,,,,,,,high,28,0,28,0,1,,,,,,,,,
298285,2022-11-29_12h04.19.394,vts_reward_expectancy_bt,2022.2.4,MacIntel,120.0048002,Chrome,1512,982,,,,,10,1110,,,,,,,,,,,,,,,,,139,W,circle,1,0,,,,,,,,,,,,,,,,switch,number,numSwt,d,0.5231,Hi,,,,,,3,,,,,,,,high,29,0,29,0,1,,,,,,,,,
298285,2022-11-29_12h04.19.394,vts_reward_expectancy_bt,2022.2.4,MacIntel,120.0048002,Chrome,1512,982,,,,,0,1110,,,,,,,,,,,,,,,,,125,D,star,1,0,,,,,,,,,,,,,,,,switch,letter,lettSwt,j,0.5739,Hi,,,,,,3,,,,,,,,high,30,0,30,0,1,,,,,,,,,
298285,2022-11-29_12h04.19.394,vts_reward_expectancy_bt,2022.2.4,MacIntel,120.0048002,Chrome,1512,982,,,,,0,1110,,,,,,,,,,,,,,,,,174,S,hexagon,0,0,,,,,,,,,,,,,,,,switch,number,NA,d,0.4692,Hi,,,,,,3,,,,,,,,high,31,0,31,0,1,,,,,,,,,
298285,2022-11-29_12h04.19.394,vts_reward_expectancy_bt,2022.2.4,MacIntel,120.0048002,Chrome,1512,982,,,,,0,1110,,,,,,,,,,,,,,,,,174,Y,hexagon,0,1,,,,,,,,,,,,,,,,repeat,number,NA,d,0.4245,Hi,,,,,,4,,,,,,space,1.5771,high,0,0,0,0,1,,,,,,,,,
298285,2022-11-29_12h04.19.394,vts_reward_expectancy_bt,2022.2.4,MacIntel,120.0048002,Chrome,1512,982,,,,,0,1110,,,,,,,,,,,,,,,,,181,D,star,1,1,,,,,,,,,,,,,,,,repeat,number,numRpt,f,0.4581,Hi,,,,,,4,,,,,,,,high,1,0,1,0,1,,,,,,,,,
298285,2022-11-29_12h04.19.394,vts_reward_expectancy_bt,2022.2.4,MacIntel,120.0048002,Chrome,1512,982,,,,,0,1110,,,,,,,,,,,,,,,,,146,U,circle,0,0,,,,,,,,,,,,,,,,switch,letter,NA,j,0.3702,Hi,,,,,,4,,,,,,,,high,2,0,2,0,1,,,,,,,,,
298285,2022-11-29_12h04.19.394,vts_reward_expectancy_bt,2022.2.4,MacIntel,120.0048002,Chrome,1512,982,,,,,1,1111,,,,,,,,,,,,,,,,,167,H,triangle,1,1,,,,,,,,,,,,,,,,repeat,letter,lettRpt,j,0.4874,Lo,,,,,,4,,,,,,,,high,3,0,3,0,1,,,,,,,,,
298285,2022-11-29_12h04.19.394,vts_reward_expectancy_bt,2022.2.4,MacIntel,120.0048002,Chrome,1512,982,,,,,1,1112,,,,,,,,,,,,,,,,,125,W,hexagon,1,0,,,,,,,,,,,,,,,,switch,number,numSwt,d,0.4001,Lo,,,,,,4,,,,,,,,high,4,0,4,0,1,,,,,,,,,
298285,2022-11-29_12h04.19.394,vts_reward_expectancy_bt,2022.2.4,MacIntel,120.0048002,Chrome,1512,982,,,,,0,1112,,,,,,,,,,,,,,,,,132,F,star,0,0,,,,,,,,,,,,,,,,switch,letter,NA,k,0.4335,Lo,,,,,,4,,,,,,,,high,5,0,5,0,1,,,,,,,,,
298285,2022-11-29_12h04.19.394,vts_reward_expectancy_bt,2022.2.4,MacIntel,120.0048002,Chrome,1512,982,,,,,0,1112,,,,,,,,,,,,,,,,,139,S,circle,0,1,,,,,,,,,,,,,,,,repeat,letter,NA,j,0.418,Lo,,,,,,4,,,,,,,,high,6,0,6,0,1,,,,,,,,,
298285,2022-11-29_12h04.19.394,vts_reward_expectancy_bt,2022.2.4,MacIntel,120.0048002,Chrome,1512,982,,,,,1,1113,,,,,,,,,,,,,,,,,160,B,triangle,1,1,,,,,,,,,,,,,,,,switch,number,numSwt,f,0.4819,Lo,,,,,,4,,,,,,,,high,7,0,7,0,1,,,,,,,,,
298285,2022-11-29_12h04.19.394,vts_reward_expectancy_bt,2022.2.4,MacIntel,120.0048002,Chrome,1512,982,,,,,10,1123,,,,,,,,,,,,,,,,,174,Y,circle,1,0,,,,,,,,,,,,,,,,switch,letter,lettSwt,k,0.4716,Hi,,,,,,4,,,,,,,,high,8,0,8,0,1,,,,,,,,,
298285,2022-11-29_12h04.19.394,vts_reward_expectancy_bt,2022.2.4,MacIntel,120.0048002,Chrome,1512,982,,,,,1,1124,,,,,,,,,,,,,,,,,181,D,hexagon,1,0,,,,,,,,,,,,,,,,repeat,letter,lettRpt,j,0.4365,Lo,,,,,,4,,,,,,,,high,9,0,9,0,1,,,,,,,,,
298285,2022-11-29_12h04.19.394,vts_reward_expectancy_bt,2022.2.4,MacIntel,120.0048002,Chrome,1512,982,,,,,0,1124,,,,,,,,,,,,,,,,,146,U,star,0,0,,,,,,,,,,,,,,,,switch,number,NA,f,0.5024,Lo,,,,,,4,,,,,,,,high,10,0,10,0,1,,,,,,,,,
298285,2022-11-29_12h04.19.394,vts_reward_expectancy_bt,2022.2.4,MacIntel,120.0048002,Chrome,1512,982,,,,,1,1125,,,,,,,,,,,,,,,,,167,H,triangle,1,1,,,,,,,,,,,,,,,,repeat,number,numRpt,f,0.4585,Lo,,,,,,4,,,,,,,,high,11,0,11,0,1,,,,,,,,,
298285,2022-11-29_12h04.19.394,vts_reward_expectancy_bt,2022.2.4,MacIntel,120.0048002,Chrome,1512,982,,,,,1,1126,,,,,,,,,,,,,,,,,125,W,triangle,1,0,,,,,,,,,,,,,,,,switch,letter,lettSwt,k,0.409,Lo,,,,,,4,,,,,,,,high,12,0,12,0,1,,,,,,,,,
298285,2022-11-29_12h04.19.394,vts_reward_expectancy_bt,2022.2.4,MacIntel,120.0048002,Chrome,1512,982,,,,,10,1136,,,,,,,,,,,,,,,,,132,F,circle,1,0,,,,,,,,,,,,,,,,repeat,letter,lettRpt,j,0.4134,Hi,,,,,,4,,,,,,,,high,13,0,13,0,1,,,,,,,,,
298285,2022-11-29_12h04.19.394,vts_reward_expectancy_bt,2022.2.4,MacIntel,120.0048002,Chrome,1512,982,,,,,10,1146,,,,,,,,,,,,,,,,,139,S,hexagon,1,0,,,,,,,,,,,,,,,,switch,number,numSwt,d,0.4992,Lo,,,,,,4,,,,,,,,high,14,0,14,0,1,,,,,,,,,
298285,2022-11-29_12h04.19.394,vts_reward_expectancy_bt,2022.2.4,MacIntel,120.0048002,Chrome,1512,982,,,,,0,1146,,,,,,,,,,,,,,,,,160,B,star,1,0,,,,,,,,,,,,,,,,repeat,number,numRpt,f,0.4411,Hi,,,,,,4,,,,,,,,high,15,0,15,0,1,,,,,,,,,
298285,2022-11-29_12h04.19.394,vts_reward_expectancy_bt,2022.2.4,MacIntel,120.0048002,Chrome,1512,982,,,,,0,1146,,,,,,,,,,,,,,,,,167,B,star,0,0,,,,,,,,,,,,,,,,switch,letter,NA,k,0.4442,Hi,,,,,,4,,,,,,,,high,16,0,16,0,1,,,,,,,,,
298285,2022-11-29_12h04.19.394,vts_reward_expectancy_bt,2022.2.4,MacIntel,120.0048002,Chrome,1512,982,,,,,1,1147,,,,,,,,,,,,,,,,,146,F,triangle,1,1,,,,,,,,,,,,,,,,repeat,letter,lettRpt,j,0.5046,Lo,,,,,,4,,,,,,,,high,17,0,17,0,1,,,,,,,,,
298285,2022-11-29_12h04.19.394,vts_reward_expectancy_bt,2022.2.4,MacIntel,120.0048002,Chrome,1512,982,,,,,0,1147,,,,,,,,,,,,,,,,,181,U,circle,1,0,,,,,,,,,,,,,,,,switch,number,numSwt,f,0.4454,Hi,,,,,,4,,,,,,,,high,18,0,18,0,1,,,,,,,,,
298285,2022-11-29_12h04.19.394,vts_reward_expectancy_bt,2022.2.4,MacIntel,120.0048002,Chrome,1512,982,,,,,0,1147,,,,,,,,,,,,,,,,,174,Y,hexagon,0,0,,,,,,,,,,,,,,,,repeat,number,NA,d,0.392,Hi,,,,,,4,,,,,,,,high,19,0,19,0,1,,,,,,,,,
298285,2022-11-29_12h04.19.394,vts_reward_expectancy_bt,2022.2.4,MacIntel,120.0048002,Chrome,1512,982,,,,,0,1147,,,,,,,,,,,,,,,,,132,W,circle,1,1,,,,,,,,,,,,,,,,repeat,number,numRpt,d,0.4434,Hi,,,,,,4,,,,,,,,high,20,0,20,0,1,,,,,,,,,
298285,2022-11-29_12h04.19.394,vts_reward_expectancy_bt,2022.2.4,MacIntel,120.0048002,Chrome,1512,982,,,,,0,1147,,,,,,,,,,,,,,,,,125,S,triangle,0,0,,,,,,,,,,,,,,,,switch,letter,NA,j,0.4517,Hi,,,,,,4,,,,,,,,high,21,0,21,0,1,,,,,,,,,
298285,2022-11-29_12h04.19.394,vts_reward_expectancy_bt,2022.2.4,MacIntel,120.0048002,Chrome,1512,982,,,,,0,1147,,,,,,,,,,,,,,,,,139,H,star,1,1,,,,,,,,,,,,,,,,repeat,letter,lettRpt,j,0.525,Hi,,,,,,4,,,,,,,,high,22,0,22,0,1,,,,,,,,,
298285,2022-11-29_12h04.19.394,vts_reward_expectancy_bt,2022.2.4,MacIntel,120.0048002,Chrome,1512,982,,,,,1,1148,,,,,,,,,,,,,,,,,160,D,hexagon,1,0,,,,,,,,,,,,,,,,repeat,letter,lettRpt,j,0.4734,Lo,,,,,,4,,,,,,,,high,23,0,23,0,1,,,,,,,,,
298285,2022-11-29_12h04.19.394,vts_reward_expectancy_bt,2022.2.4,MacIntel,120.0048002,Chrome,1512,982,,,,,0,1148,,,,,,,,,,,,,,,,,132,B,triangle,0,0,,,,,,,,,,,,,,,,switch,number,NA,f,0.3464,Lo,,,,,,4,,,,,,,,high,24,0,24,0,1,,,,,,,,,
298285,2022-11-29_12h04.19.394,vts_reward_expectancy_bt,2022.2.4,MacIntel,120.0048002,Chrome,1512,982,,,,,1,1149,,,,,,,,,,,,,,,,,167,U,hexagon,1,1,,,,,,,,,,,,,,,,repeat,number,numRpt,f,0.4663,Lo,,,,,,4,,,,,,,,high,25,0,25,0,1,,,,,,,,,
298285,2022-11-29_12h04.19.394,vts_reward_expectancy_bt,2022.2.4,MacIntel,120.0048002,Chrome,1512,982,,,,,0,1149,,,,,,,,,,,,,,,,,174,W,star,1,0,,,,,,,,,,,,,,,,switch,letter,lettSwt,k,0.4887,Hi,,,,,,4,,,,,,,,high,26,0,26,0,1,,,,,,,,,
298285,2022-11-29_12h04.19.394,vts_reward_expectancy_bt,2022.2.4,MacIntel,120.0048002,Chrome,1512,982,,,,,0,1149,,,,,,,,,,,,,,,,,139,F,circle,1,0,,,,,,,,,,,,,,,,switch,number,numSwt,d,1.265,Hi,,,,,,4,,,,,,,,high,27,0,27,0,1,,,,,,,,,
298285,2022-11-29_12h04.19.394,vts_reward_expectancy_bt,2022.2.4,MacIntel,120.0048002,Chrome,1512,982,,,,,0,1149,,,,,,,,,,,,,,,,,146,D,circle,1,0,,,,,,,,,,,,,,,,repeat,number,numRpt,d,0.4723,Hi,,,,,,4,,,,,,,,high,28,0,28,0,1,,,,,,,,,
298285,2022-11-29_12h04.19.394,vts_reward_expectancy_bt,2022.2.4,MacIntel,120.0048002,Chrome,1512,982,,,,,0,1149,,,,,,,,,,,,,,,,,160,H,triangle,0,0,,,,,,,,,,,,,,,,repeat,number,NA,d,0.3868,Hi,,,,,,4,,,,,,,,high,29,0,29,0,1,,,,,,,,,
298285,2022-11-29_12h04.19.394,vts_reward_expectancy_bt,2022.2.4,MacIntel,120.0048002,Chrome,1512,982,,,,,1,1150,,,,,,,,,,,,,,,,,181,Y,star,1,1,,,,,,,,,,,,,,,,repeat,number,numRpt,f,0.4181,Hi,,,,,,4,,,,,,,,high,30,0,30,0,1,,,,,,,,,
298285,2022-11-29_12h04.19.394,vts_reward_expectancy_bt,2022.2.4,MacIntel,120.0048002,Chrome,1512,982,,,,,1,1151,,,,,,,,,,,,,,,,,125,S,hexagon,1,0,,,,,,,,,,,,,,,,switch,letter,lettSwt,k,0.4618,Lo,,,,,,4,,,,,,,,high,31,0,31,0,1,,,,,,,,,
298285,2022-11-29_12h04.19.394,vts_reward_expectancy_bt,2022.2.4,MacIntel,120.0048002,Chrome,1512,982,,,,,1,1152,,,,,,,,,,,,,,,,,139,F,hexagon,1,0,,,,,,,,,,,,,,,,switch,number,numSwt,d,0.3974,Lo,,,,,,5,,,,,,space,3.3811,high,0,0,0,0,1,,,,,,,,,
298285,2022-11-29_12h04.19.394,vts_reward_expectancy_bt,2022.2.4,MacIntel,120.0048002,Chrome,1512,982,,,,,0,1152,,,,,,,,,,,,,,,,,181,W,circle,0,0,,,,,,,,,,,,,,,,switch,letter,NA,j,0.3946,Lo,,,,,,5,,,,,,,,high,1,0,1,0,1,,,,,,,,,
298285,2022-11-29_12h04.19.394,vts_reward_expectancy_bt,2022.2.4,MacIntel,120.0048002,Chrome,1512,982,,,,,1,1153,,,,,,,,,,,,,,,,,167,Y,triangle,1,1,,,,,,,,,,,,,,,,repeat,letter,lettRpt,k,0.4236,Lo,,,,,,5,,,,,,,,high,2,0,2,0,1,,,,,,,,,
298285,2022-11-29_12h04.19.394,vts_reward_expectancy_bt,2022.2.4,MacIntel,120.0048002,Chrome,1512,982,,,,,0,1153,,,,,,,,,,,,,,,,,132,D,star,0,0,,,,,,,,,,,,,,,,switch,number,NA,f,0.4896,Lo,,,,,,5,,,,,,,,high,3,0,3,0,1,,,,,,,,,
298285,2022-11-29_12h04.19.394,vts_reward_expectancy_bt,2022.2.4,MacIntel,120.0048002,Chrome,1512,982,,,,,1,1154,,,,,,,,,,,,,,,,,174,S,hexagon,1,1,,,,,,,,,,,,,,,,repeat,number,numRpt,f,0.5387,Lo,,,,,,5,,,,,,,,high,4,0,4,0,1,,,,,,,,,
298285,2022-11-29_12h04.19.394,vts_reward_expectancy_bt,2022.2.4,MacIntel,120.0048002,Chrome,1512,982,,,,,0,1154,,,,,,,,,,,,,,,,,125,U,circle,0,0,,,,,,,,,,,,,,,,switch,letter,NA,j,0.3684,Lo,,,,,,5,,,,,,,,high,5,0,5,0,1,,,,,,,,,
298285,2022-11-29_12h04.19.394,vts_reward_expectancy_bt,2022.2.4,MacIntel,120.0048002,Chrome,1512,982,,,,,0,1154,,,,,,,,,,,,,,,,,160,H,triangle,0,1,,,,,,,,,,,,,,,,repeat,letter,NA,k,0.4529,Lo,,,,,,5,,,,,,,,high,6,0,6,0,1,,,,,,,,,
298285,2022-11-29_12h04.19.394,vts_reward_expectancy_bt,2022.2.4,MacIntel,120.0048002,Chrome,1512,982,,,,,10,1164,,,,,,,,,,,,,,,,,146,B,star,1,1,,,,,,,,,,,,,,,,repeat,letter,lettRpt,j,0.3384,Hi,,,,,,5,,,,,,,,high,7,0,7,0,1,,,,,,,,,
298285,2022-11-29_12h04.19.394,vts_reward_expectancy_bt,2022.2.4,MacIntel,120.0048002,Chrome,1512,982,,,,,10,1174,,,,,,,,,,,,,,,,,139,F,hexagon,1,0,,,,,,,,,,,,,,,,switch,number,numSwt,d,0.4146,Lo,,,,,,5,,,,,,,,high,8,0,8,0,1,,,,,,,,,
298285,2022-11-29_12h04.19.394,vts_reward_expectancy_bt,2022.2.4,MacIntel,120.0048002,Chrome,1512,982,,,,,10,1184,,,,,,,,,,,,,,,,,181,W,star,1,0,,,,,,,,,,,,,,,,repeat,number,numRpt,f,0.3717,Hi,,,,,,5,,,,,,,,high,9,0,9,0,1,,,,,,,,,
298285,2022-11-29_12h04.19.394,vts_reward_expectancy_bt,2022.2.4,MacIntel,120.0048002,Chrome,1512,982,,,,,10,1194,,,,,,,,,,,,,,,,,167,Y,circle,1,0,,,,,,,,,,,,,,,,switch,letter,lettSwt,k,0.4547,Hi,,,,,,5,,,,,,,,high,10,0,10,0,1,,,,,,,,,
298285,2022-11-29_12h04.19.394,vts_reward_expectancy_bt,2022.2.4,MacIntel,120.0048002,Chrome,1512,982,,,,,0,1194,,,,,,,,,,,,,,,,,132,D,triangle,0,0,,,,,,,,,,,,,,,,repeat,letter,NA,k,0.4113,Hi,,,,,,5,,,,,,,,high,11,0,11,0,1,,,,,,,,,
298285,2022-11-29_12h04.19.394,vts_reward_expectancy_bt,2022.2.4,MacIntel,120.0048002,Chrome,1512,982,,,,,0,1194,,,,,,,,,,,,,,,,,174,S,star,0,1,,,,,,,,,,,,,,,,switch,number,NA,d,0.4474,Hi,,,,,,5,,,,,,,,high,12,0,12,0,1,,,,,,,,,
298285,2022-11-29_12h04.19.394,vts_reward_expectancy_bt,2022.2.4,MacIntel,120.0048002,Chrome,1512,982,,,,,1,1195,,,,,,,,,,,,,,,,,125,U,triangle,1,1,,,,,,,,,,,,,,,,repeat,number,numRpt,d,0.4308,Lo,,,,,,5,,,,,,,,high,13,0,13,0,1,,,,,,,,,
298285,2022-11-29_12h04.19.394,vts_reward_expectancy_bt,2022.2.4,MacIntel,120.0048002,Chrome,1512,982,,,,,1,1196,,,,,,,,,,,,,,,,,160,H,hexagon,1,0,,,,,,,,,,,,,,,,switch,letter,lettSwt,j,0.5141,Lo,,,,,,5,,,,,,,,high,14,0,14,0,1,,,,,,,,,
298285,2022-11-29_12h04.19.394,vts_reward_expectancy_bt,2022.2.4,MacIntel,120.0048002,Chrome,1512,982,,,,,0,1196,,,,,,,,,,,,,,,,,146,B,circle,0,0,,,,,,,,,,,,,,,,repeat,letter,NA,k,0.3353,Lo,,,,,,5,,,,,,,,high,15,0,15,0,1,,,,,,,,,
298285,2022-11-29_12h04.19.394,vts_reward_expectancy_bt,2022.2.4,MacIntel,120.0048002,Chrome,1512,982,,,,,1,1197,,,,,,,,,,,,,,,,,132,U,triangle,1,1,,,,,,,,,,,,,,,,switch,number,numSwt,d,0.4605,Lo,,,,,,5,,,,,,,,high,16,0,16,0,1,,,,,,,,,
298285,2022-11-29_12h04.19.394,vts_reward_expectancy_bt,2022.2.4,MacIntel,120.0048002,Chrome,1512,982,,,,,0,1197,,,,,,,,,,,,,,,,,174,Y,star,0,0,,,,,,,,,,,,,,,,switch,letter,NA,j,0.4249,Lo,,,,,,5,,,,,,,,high,17,0,17,0,1,,,,,,,,,
298285,2022-11-29_12h04.19.394,vts_reward_expectancy_bt,2022.2.4,MacIntel,120.0048002,Chrome,1512,982,,,,,1,1198,,,,,,,,,,,,,,,,,167,D,hexagon,1,1,,,,,,,,,,,,,,,,repeat,letter,lettRpt,j,0.2909,Lo,,,,,,5,,,,,,,,high,18,0,18,0,1,,,,,,,,,
298285,2022-11-29_12h04.19.394,vts_reward_expectancy_bt,2022.2.4,MacIntel,120.0048002,Chrome,1512,982,,,,,0,1198,,,,,,,,,,,,,,,,,146,F,circle,0,0,,,,,,,,,,,,,,,,switch,number,NA,f,0.4072,Lo,,,,,,5,,,,,,,,high,19,0,19,0,1,,,,,,,,,
298285,2022-11-29_12h04.19.394,vts_reward_expectancy_bt,2022.2.4,MacIntel,120.0048002,Chrome,1512,982,,,,,0,1198,,,,,,,,,,,,,,,,,181,B,circle,1,1,,,,,,,,,,,,,,,,repeat,number,numRpt,f,0.5354,Hi,,,,,,5,,,,,,,,high,20,0,20,0,1,,,,,,,,,
298285,2022-11-29_12h04.19.394,vts_reward_expectancy_bt,2022.2.4,MacIntel,120.0048002,Chrome,1512,982,,,,,0,1198,,,,,,,,,,,,,,,,,160,W,triangle,0,0,,,,,,,,,,,,,,,,repeat,number,NA,d,0.3977,Hi,,,,,,5,,,,,,,,high,21,0,21,0,1,,,,,,,,,
298285,2022-11-29_12h04.19.394,vts_reward_expectancy_bt,2022.2.4,MacIntel,120.0048002,Chrome,1512,982,,,,,1,1199,,,,,,,,,,,,,,,,,139,H,hexagon,1,1,,,,,,,,,,,,,,,,repeat,number,numRpt,d,0.4218,Lo,,,,,,5,,,,,,,,high,22,0,22,0,1,,,,,,,,,
298285,2022-11-29_12h04.19.394,vts_reward_expectancy_bt,2022.2.4,MacIntel,120.0048002,Chrome,1512,982,,,,,0,1199,,,,,,,,,,,,,,,,,125,S,star,0,0,,,,,,,,,,,,,,,,switch,letter,NA,j,0.3652,Lo,,,,,,5,,,,,,,,high,23,0,23,0,1,,,,,,,,,
298285,2022-11-29_12h04.19.394,vts_reward_expectancy_bt,2022.2.4,MacIntel,120.0048002,Chrome,1512,982,,,,,1,1200,,,,,,,,,,,,,,,,,181,D,hexagon,1,1,,,,,,,,,,,,,,,,repeat,letter,lettRpt,j,0.371,Lo,,,,,,5,,,,,,,,high,24,0,24,0,1,,,,,,,,,
298285,2022-11-29_12h04.19.394,vts_reward_expectancy_bt,2022.2.4,MacIntel,120.0048002,Chrome,1512,982,,,,,1,1201,,,,,,,,,,,,,,,,,160,F,star,1,0,,,,,,,,,,,,,,,,repeat,letter,lettRpt,j,0.411,Hi,,,,,,5,,,,,,,,high,25,0,25,0,1,,,,,,,,,
298285,2022-11-29_12h04.19.394,vts_reward_expectancy_bt,2022.2.4,MacIntel,120.0048002,Chrome,1512,982,,,,,0,1201,,,,,,,,,,,,,,,,,146,U,circle,0,0,,,,,,,,,,,,,,,,repeat,letter,NA,j,0.4141,Hi,,,,,,5,,,,,,,,high,26,0,26,0,1,,,,,,,,,
298285,2022-11-29_12h04.19.394,vts_reward_expectancy_bt,2022.2.4,MacIntel,120.0048002,Chrome,1512,982,,,,,0,1201,,,,,,,,,,,,,,,,,132,B,triangle,0,1,,,,,,,,,,,,,,,,repeat,letter,NA,k,0.3381,Hi,,,,,,5,,,,,,,,high,27,0,27,0,1,,,,,,,,,
298285,2022-11-29_12h04.19.394,vts_reward_expectancy_bt,2022.2.4,MacIntel,120.0048002,Chrome,1512,982,,,,,0,1201,,,,,,,,,,,,,,,,,139,H,circle,0,1,,,,,,,,,,,,,,,,repeat,letter,NA,k,0.4156,Hi,,,,,,5,,,,,,,,high,28,0,28,0,1,,,,,,,,,
298285,2022-11-29_12h04.19.394,vts_reward_expectancy_bt,2022.2.4,MacIntel,120.0048002,Chrome,1512,982,,,,,10,1211,,,,,,,,,,,,,,,,,125,W,hexagon,1,1,,,,,,,,,,,,,,,,switch,number,numSwt,d,0.4811,Lo,,,,,,5,,,,,,,,high,29,0,29,0,1,,,,,,,,,
298285,2022-11-29_12h04.19.394,vts_reward_expectancy_bt,2022.2.4,MacIntel,120.0048002,Chrome,1512,982,,,,,0,1211,,,,,,,,,,,,,,,,,167,S,star,1,0,,,,,,,,,,,,,,,,repeat,number,numRpt,f,0.5605,Hi,,,,,,5,,,,,,,,high,30,0,30,0,1,,,,,,,,,
298285,2022-11-29_12h04.19.394,vts_reward_expectancy_bt,2022.2.4,MacIntel,120.0048002,Chrome,1512,982,,,,,1,1212,,,,,,,,,,,,,,,,,174,Y,triangle,1,0,,,,,,,,,,,,,,,,repeat,number,numRpt,f,0.4457,Lo,,,,,,5,,,,,,,,high,31,0,31,0,1,,,,,,,,,
298285,2022-11-29_12h04.19.394,vts_reward_expectancy_bt,2022.2.4,MacIntel,120.0048002,Chrome,1512,982,,,,,1,1213,,,,,,,,,,,,,,,,,132,Y,hexagon,1,0,,,,,,,,,,,,,,,,repeat,number,numRpt,d,0.4656,Lo,,,,,,6,,,,,,space,2.9581,high,0,0,0,0,1,,,,,,,,,
298285,2022-11-29_12h04.19.394,vts_reward_expectancy_bt,2022.2.4,MacIntel,120.0048002,Chrome,1512,982,,,,,0,1213,,,,,,,,,,,,,,,,,146,U,star,0,0,,,,,,,,,,,,,,,,switch,letter,NA,j,0.4299,Lo,,,,,,6,,,,,,,,high,1,0,1,0,1,,,,,,,,,
