participant,date,expName,psychopyVersion,OS,frameRate,browser,xResolution,yResolution,key_resp.keys,key_resp.rt,training_resp.keys,training_resp.rt,points_trial,points_cumul,trainBlock,training.thisRepN,training.thisTrialN,training.thisN,training.thisIndex,training.ran,LTriangleOpac,LCircleOpac,LHexagonOpac,LStarOpac,RTriangleOpac,RCircleOpac,RHexagonOpac,RStarOpac,LShape_ID,RShape_ID,curr_topStim,curr_bottStim,curr_shape,acc,E1,target_resp_prac1.keys,target_resp_prac1.rt,pracBlock,task1_prac_trials.thisRepN,task1_prac_trials.thisTrialN,task1_prac_trials.thisN,task1_prac_trials.thisIndex,task1_prac_trials.ran,target_resp_prac2.keys,task2_praac_trials.thisRepN,task2_praac_trials.thisTrialN,task2_praac_trials.thisN,task2_praac_trials.thisIndex,task2_praac_trials.ran,target_resp_prac2.rt,alt,task,condition,target_resp.keys,target_resp.rt,rewCond,vts_practice_trials.thisRepN,vts_practice_trials.thisTrialN,vts_practice_trials.thisN,vts_practice_trials.thisIndex,vts_practice_trials.ran,blockNum,trials_norew.thisRepN,trials_norew.thisTrialN,trials_norew.thisN,trials_norew.thisIndex,trials_norew.ran,key_resp_2.keys,key_resp_2.rt,rewExpectancy,trials_rew.thisRepN,trials_rew.thisTrialN,trials_rew.thisN,trials_rew.thisIndex,trials_rew.ran,Q1,Q2,Q2_text,Q3,Q4,Q5_text,Q5,xRes,yRes
298297,2022-11-30_24h13.27.053,vts_reward_expectancy_bt,2022.2.4,MacIntel,60.0024001,Chrome,1440,900,,,,,,,,,,,,,,,,,,,,,,,,,,,,,,,,,,,,,,,,,,,,,,,,,,,,,,,,,,,,,,,,,,,,,,,,,,,,
298297,2022-11-30_24h13.27.053,vts_reward_expectancy_bt,2022.2.4,MacIntel,60.0024001,Chrome,1440,900,space,2.8328,,,,,,,,,,,,,,,,,,,,,,,,,,,,,,,,,,,,,,,,,,,,,,,,,,,,,,,,,,,,,,,,,,,,,,,,,,
298297,2022-11-30_24h13.27.053,vts_reward_expectancy_bt,2022.2.4,MacIntel,60.0024001,Chrome,1440,900,,,,,,,,,,,,,,,,,,,,,,,,,,,,,,,,,,,,,,,,,,,,,,,,,,,,,,,,,,,,,,,,,,,,,,,,,,,,
298297,2022-11-30_24h13.27.053,vts_reward_expectancy_bt,2022.2.4,MacIntel,60.0024001,Chrome,1440,900,,,a,1.5182,1,1,0,0,0,0,5,1,0,1,0,0,0,0,0,1,circle,star,,,,,,,,,,,,,,,,,,,,,,,,,,,,,,,,,,,,,,,,,,,,,,,,,,,,,,
298297,2022-11-30_24h13.27.053,vts_reward_expectancy_bt,2022.2.4,MacIntel,60.0024001,Chrome,1440,900,,,l,0.6147,1,2,0,0,1,1,8,1,0,0,1,0,0,0,0,1,hexagon,star,,,,,,,,,,,,,,,,,,,,,,,,,,,,,,,,,,,,,,,,,,,,,,,,,,,,,,
298297,2022-11-30_24h13.27.053,vts_reward_expectancy_bt,2022.2.4,MacIntel,60.0024001,Chrome,1440,900,,,l,0.2843,10,12,0,0,2,2,9,1,0,0,0,1,1,0,0,0,star,triangle,,,,,,,,,,,,,,,,,,,,,,,,,,,,,,,,,,,,,,,,,,,,,,,,,,,,,,
298297,2022-11-30_24h13.27.053,vts_reward_expectancy_bt,2022.2.4,MacIntel,60.0024001,Chrome,1440,900,,,a,0.3536,1,13,0,0,3,3,0,1,1,0,0,0,0,1,0,0,triangle,circle,,,,,,,,,,,,,,,,,,,,,,,,,,,,,,,,,,,,,,,,,,,,,,,,,,,,,,
298297,2022-11-30_24h13.27.053,vts_reward_expectancy_bt,2022.2.4,MacIntel,60.0024001,Chrome,1440,900,,,l,0.4205,1,14,0,0,4,4,10,1,0,0,0,1,0,1,0,0,star ,circle,,,,,,,,,,,,,,,,,,,,,,,,,,,,,,,,,,,,,,,,,,,,,,,,,,,,,,
298297,2022-11-30_24h13.27.053,vts_reward_expectancy_bt,2022.2.4,MacIntel,60.0024001,Chrome,1440,900,,,l,0.2697,10,24,0,0,5,5,1,1,1,0,0,0,0,0,1,0,triangle,hexagon,,,,,,,,,,,,,,,,,,,,,,,,,,,,,,,,,,,,,,,,,,,,,,,,,,,,,,
298297,2022-11-30_24h13.27.053,vts_reward_expectancy_bt,2022.2.4,MacIntel,60.0024001,Chrome,1440,900,,,l,0.416,10,34,0,0,6,6,3,1,0,1,0,0,1,0,0,0,circle,triangle,,,,,,,,,,,,,,,,,,,,,,,,,,,,,,,,,,,,,,,,,,,,,,,,,,,,,,
298297,2022-11-30_24h13.27.053,vts_reward_expectancy_bt,2022.2.4,MacIntel,60.0024001,Chrome,1440,900,,,a,0.3363,10,44,0,0,7,7,4,1,0,1,0,0,0,0,1,0,circle,hexagon,,,,,,,,,,,,,,,,,,,,,,,,,,,,,,,,,,,,,,,,,,,,,,,,,,,,,,
298297,2022-11-30_24h13.27.053,vts_reward_expectancy_bt,2022.2.4,MacIntel,60.0024001,Chrome,1440,900,,,l,0.5671,10,54,0,0,8,8,11,1,0,0,0,1,0,0,1,0,star,hexagon,,,,,,,,,,,,,,,,,,,,,,,,,,,,,,,,,,,,,,,,,,,,,,,,,,,,,,
298297,2022-11-30_24h13.27.053,vts_reward_expectancy_bt,2022.2.4,MacIntel,60.0024001,Chrome,1440,900,,,l,0.0004,1,55,0,0,9,9,7,1,0,0,1,0,0,1,0,0,hexagon,circle,,,,,,,,,,,,,,,,,,,,,,,,,,,,,,,,,,,,,,,,,,,,,,,,,,,,,,
298297,2022-11-30_24h13.27.053,vts_reward_expectancy_bt,2022.2.4,MacIntel,60.0024001,Chrome,1440,900,,,l,0.5179,10,65,0,0,10,10,6,1,0,0,1,0,1,0,0,0,hexagon,triangle,,,,,,,,,,,,,,,,,,,,,,,,,,,,,,,,,,,,,,,,,,,,,,,,,,,,,,
298297,2022-11-30_24h13.27.053,vts_reward_expectancy_bt,2022.2.4,MacIntel,60.0024001,Chrome,1440,900,,,a,0.4727,10,75,0,0,11,11,2,1,1,0,0,0,0,0,0,1,triangle,star,,,,,,,,,,,,,,,,,,,,,,,,,,,,,,,,,,,,,,,,,,,,,,,,,,,,,,
298297,2022-11-30_24h13.27.053,vts_reward_expectancy_bt,2022.2.4,MacIntel,60.0024001,Chrome,1440,900,,,a,0.4327,1,76,0,1,0,12,5,1,0,1,0,0,0,0,0,1,circle,star,,,,,,,,,,,,,,,,,,,,,,,,,,,,,,,,,,,,,,,,,,,,,,,,,,,,,,
298297,2022-11-30_24h13.27.053,vts_reward_expectancy_bt,2022.2.4,MacIntel,60.0024001,Chrome,1440,900,,,l,0.4034,10,86,0,1,1,13,4,1,0,1,0,0,0,0,1,0,circle,hexagon,,,,,,,,,,,,,,,,,,,,,,,,,,,,,,,,,,,,,,,,,,,,,,,,,,,,,,
298297,2022-11-30_24h13.27.053,vts_reward_expectancy_bt,2022.2.4,MacIntel,60.0024001,Chrome,1440,900,,,a,0.5545,10,96,0,1,2,14,8,1,0,0,1,0,0,0,0,1,hexagon,star,,,,,,,,,,,,,,,,,,,,,,,,,,,,,,,,,,,,,,,,,,,,,,,,,,,,,,
298297,2022-11-30_24h13.27.053,vts_reward_expectancy_bt,2022.2.4,MacIntel,60.0024001,Chrome,1440,900,,,a,0.4707,10,106,0,1,3,15,2,1,1,0,0,0,0,0,0,1,triangle,star,,,,,,,,,,,,,,,,,,,,,,,,,,,,,,,,,,,,,,,,,,,,,,,,,,,,,,
298297,2022-11-30_24h13.27.053,vts_reward_expectancy_bt,2022.2.4,MacIntel,60.0024001,Chrome,1440,900,,,l,0.4713,1,107,0,1,4,16,11,1,0,0,0,1,0,0,1,0,star,hexagon,,,,,,,,,,,,,,,,,,,,,,,,,,,,,,,,,,,,,,,,,,,,,,,,,,,,,,
298297,2022-11-30_24h13.27.053,vts_reward_expectancy_bt,2022.2.4,MacIntel,60.0024001,Chrome,1440,900,,,l,0.5124,10,117,0,1,5,17,6,1,0,0,1,0,1,0,0,0,hexagon,triangle,,,,,,,,,,,,,,,,,,,,,,,,,,,,,,,,,,,,,,,,,,,,,,,,,,,,,,
298297,2022-11-30_24h13.27.053,vts_reward_expectancy_bt,2022.2.4,MacIntel,60.0024001,Chrome,1440,900,,,l,0.7523,1,118,0,1,6,18,7,1,0,0,1,0,0,1,0,0,hexagon,circle,,,,,,,,,,,,,,,,,,,,,,,,,,,,,,,,,,,,,,,,,,,,,,,,,,,,,,
298297,2022-11-30_24h13.27.053,vts_reward_expectancy_bt,2022.2.4,MacIntel,60.0024001,Chrome,1440,900,,,l,0.5186,1,119,0,1,7,19,10,1,0,0,0,1,0,1,0,0,star ,circle,,,,,,,,,,,,,,,,,,,,,,,,,,,,,,,,,,,,,,,,,,,,,,,,,,,,,,
298297,2022-11-30_24h13.27.053,vts_reward_expectancy_bt,2022.2.4,MacIntel,60.0024001,Chrome,1440,900,,,a,0.5724,10,129,0,1,8,20,0,1,1,0,0,0,0,1,0,0,triangle,circle,,,,,,,,,,,,,,,,,,,,,,,,,,,,,,,,,,,,,,,,,,,,,,,,,,,,,,
298297,2022-11-30_24h13.27.053,vts_reward_expectancy_bt,2022.2.4,MacIntel,60.0024001,Chrome,1440,900,,,a,2.0856,1,130,0,1,9,21,1,1,1,0,0,0,0,0,1,0,triangle,hexagon,,,,,,,,,,,,,,,,,,,,,,,,,,,,,,,,,,,,,,,,,,,,,,,,,,,,,,
298297,2022-11-30_24h13.27.053,vts_reward_expectancy_bt,2022.2.4,MacIntel,60.0024001,Chrome,1440,900,,,a,0.3137,10,140,0,1,10,22,3,1,0,1,0,0,1,0,0,0,circle,triangle,,,,,,,,,,,,,,,,,,,,,,,,,,,,,,,,,,,,,,,,,,,,,,,,,,,,,,
298297,2022-11-30_24h13.27.053,vts_reward_expectancy_bt,2022.2.4,MacIntel,60.0024001,Chrome,1440,900,,,l,2.4892,10,150,0,1,11,23,9,1,0,0,0,1,1,0,0,0,star,triangle,,,,,,,,,,,,,,,,,,,,,,,,,,,,,,,,,,,,,,,,,,,,,,,,,,,,,,
298297,2022-11-30_24h13.27.053,vts_reward_expectancy_bt,2022.2.4,MacIntel,60.0024001,Chrome,1440,900,,,l,0.3182,10,160,0,2,0,24,6,1,0,0,1,0,1,0,0,0,hexagon,triangle,,,,,,,,,,,,,,,,,,,,,,,,,,,,,,,,,,,,,,,,,,,,,,,,,,,,,,
298297,2022-11-30_24h13.27.053,vts_reward_expectancy_bt,2022.2.4,MacIntel,60.0024001,Chrome,1440,900,,,l,0.0284,1,161,0,2,1,25,9,1,0,0,0,1,1,0,0,0,star,triangle,,,,,,,,,,,,,,,,,,,,,,,,,,,,,,,,,,,,,,,,,,,,,,,,,,,,,,
298297,2022-11-30_24h13.27.053,vts_reward_expectancy_bt,2022.2.4,MacIntel,60.0024001,Chrome,1440,900,,,a,0.5411,1,162,0,2,2,26,11,1,0,0,0,1,0,0,1,0,star,hexagon,,,,,,,,,,,,,,,,,,,,,,,,,,,,,,,,,,,,,,,,,,,,,,,,,,,,,,
298297,2022-11-30_24h13.27.053,vts_reward_expectancy_bt,2022.2.4,MacIntel,60.0024001,Chrome,1440,900,,,a,1.0673,1,163,0,2,3,27,3,1,0,1,0,0,1,0,0,0,circle,triangle,,,,,,,,,,,,,,,,,,,,,,,,,,,,,,,,,,,,,,,,,,,,,,,,,,,,,,
298297,2022-11-30_24h13.27.053,vts_reward_expectancy_bt,2022.2.4,MacIntel,60.0024001,Chrome,1440,900,,,l,0.4884,1,164,0,2,4,28,5,1,0,1,0,0,0,0,0,1,circle,star,,,,,,,,,,,,,,,,,,,,,,,,,,,,,,,,,,,,,,,,,,,,,,,,,,,,,,
298297,2022-11-30_24h13.27.053,vts_reward_expectancy_bt,2022.2.4,MacIntel,60.0024001,Chrome,1440,900,,,a,0.3199,10,174,0,2,5,29,7,1,0,0,1,0,0,1,0,0,hexagon,circle,,,,,,,,,,,,,,,,,,,,,,,,,,,,,,,,,,,,,,,,,,,,,,,,,,,,,,
298297,2022-11-30_24h13.27.053,vts_reward_expectancy_bt,2022.2.4,MacIntel,60.0024001,Chrome,1440,900,,,a,1.049,10,184,0,2,6,30,1,1,1,0,0,0,0,0,1,0,triangle,hexagon,,,,,,,,,,,,,,,,,,,,,,,,,,,,,,,,,,,,,,,,,,,,,,,,,,,,,,
298297,2022-11-30_24h13.27.053,vts_reward_expectancy_bt,2022.2.4,MacIntel,60.0024001,Chrome,1440,900,,,a,0.7341,10,194,0,2,7,31,4,1,0,1,0,0,0,0,1,0,circle,hexagon,,,,,,,,,,,,,,,,,,,,,,,,,,,,,,,,,,,,,,,,,,,,,,,,,,,,,,
298297,2022-11-30_24h13.27.053,vts_reward_expectancy_bt,2022.2.4,MacIntel,60.0024001,Chrome,1440,900,,,a,0.7733,10,204,0,2,8,32,0,1,1,0,0,0,0,1,0,0,triangle,circle,,,,,,,,,,,,,,,,,,,,,,,,,,,,,,,,,,,,,,,,,,,,,,,,,,,,,,
298297,2022-11-30_24h13.27.053,vts_reward_expectancy_bt,2022.2.4,MacIntel,60.0024001,Chrome,1440,900,,,l,0.3011,10,214,0,2,9,33,8,1,0,0,1,0,0,0,0,1,hexagon,star,,,,,,,,,,,,,,,,,,,,,,,,,,,,,,,,,,,,,,,,,,,,,,,,,,,,,,
298297,2022-11-30_24h13.27.053,vts_reward_expectancy_bt,2022.2.4,MacIntel,60.0024001,Chrome,1440,900,,,l,0.6505,1,215,0,2,10,34,2,1,1,0,0,0,0,0,0,1,triangle,star,,,,,,,,,,,,,,,,,,,,,,,,,,,,,,,,,,,,,,,,,,,,,,,,,,,,,,
298297,2022-11-30_24h13.27.053,vts_reward_expectancy_bt,2022.2.4,MacIntel,60.0024001,Chrome,1440,900,,,l,0.3115,1,216,0,2,11,35,10,1,0,0,0,1,0,1,0,0,star ,circle,,,,,,,,,,,,,,,,,,,,,,,,,,,,,,,,,,,,,,,,,,,,,,,,,,,,,,
298297,2022-11-30_24h13.27.053,vts_reward_expectancy_bt,2022.2.4,MacIntel,60.0024001,Chrome,1440,900,,,l,0.8514,1,217,1,0,0,0,9,1,0,0,0,1,1,0,0,0,star,triangle,,,,,,,,,,,,,,,,,,,,,,,,,,,,,,,,,,,,,,,,,,,,,,,,,,,,,,
298297,2022-11-30_24h13.27.053,vts_reward_expectancy_bt,2022.2.4,MacIntel,60.0024001,Chrome,1440,900,,,a,0.4316,1,218,1,0,1,1,4,1,0,1,0,0,0,0,1,0,circle,hexagon,,,,,,,,,,,,,,,,,,,,,,,,,,,,,,,,,,,,,,,,,,,,,,,,,,,,,,
298297,2022-11-30_24h13.27.053,vts_reward_expectancy_bt,2022.2.4,MacIntel,60.0024001,Chrome,1440,900,,,a,0.4191,1,219,1,0,2,2,3,1,0,1,0,0,1,0,0,0,circle,triangle,,,,,,,,,,,,,,,,,,,,,,,,,,,,,,,,,,,,,,,,,,,,,,,,,,,,,,
298297,2022-11-30_24h13.27.053,vts_reward_expectancy_bt,2022.2.4,MacIntel,60.0024001,Chrome,1440,900,,,l,0.3297,10,229,1,0,3,3,6,1,0,0,1,0,1,0,0,0,hexagon,triangle,,,,,,,,,,,,,,,,,,,,,,,,,,,,,,,,,,,,,,,,,,,,,,,,,,,,,,
298297,2022-11-30_24h13.27.053,vts_reward_expectancy_bt,2022.2.4,MacIntel,60.0024001,Chrome,1440,900,,,l,0.3667,1,230,1,0,4,4,7,1,0,0,1,0,0,1,0,0,hexagon,circle,,,,,,,,,,,,,,,,,,,,,,,,,,,,,,,,,,,,,,,,,,,,,,,,,,,,,,
298297,2022-11-30_24h13.27.053,vts_reward_expectancy_bt,2022.2.4,MacIntel,60.0024001,Chrome,1440,900,,,l,0.1535,10,240,1,0,5,5,5,1,0,1,0,0,0,0,0,1,circle,star,,,,,,,,,,,,,,,,,,,,,,,,,,,,,,,,,,,,,,,,,,,,,,,,,,,,,,
298297,2022-11-30_24h13.27.053,vts_reward_expectancy_bt,2022.2.4,MacIntel,60.0024001,Chrome,1440,900,,,a,0.2179,1,241,1,0,6,6,11,1,0,0,0,1,0,0,1,0,star,hexagon,,,,,,,,,,,,,,,,,,,,,,,,,,,,,,,,,,,,,,,,,,,,,,,,,,,,,,
298297,2022-11-30_24h13.27.053,vts_reward_expectancy_bt,2022.2.4,MacIntel,60.0024001,Chrome,1440,900,,,l,0.016,1,242,1,0,7,7,0,1,1,0,0,0,0,1,0,0,triangle,circle,,,,,,,,,,,,,,,,,,,,,,,,,,,,,,,,,,,,,,,,,,,,,,,,,,,,,,
298297,2022-11-30_24h13.27.053,vts_reward_expectancy_bt,2022.2.4,MacIntel,60.0024001,Chrome,1440,900,,,a,0.2885,1,243,1,0,8,8,1,1,1,0,0,0,0,0,1,0,triangle,hexagon,,,,,,,,,,,,,,,,,,,,,,,,,,,,,,,,,,,,,,,,,,,,,,,,,,,,,,
298297,2022-11-30_24h13.27.053,vts_reward_expectancy_bt,2022.2.4,MacIntel,60.0024001,Chrome,1440,900,,,l,0.0426,1,244,1,0,9,9,8,1,0,0,1,0,0,0,0,1,hexagon,star,,,,,,,,,,,,,,,,,,,,,,,,,,,,,,,,,,,,,,,,,,,,,,,,,,,,,,
298297,2022-11-30_24h13.27.053,vts_reward_expectancy_bt,2022.2.4,MacIntel,60.0024001,Chrome,1440,900,,,l,0.2841,1,245,1,0,10,10,10,1,0,0,0,1,0,1,0,0,star ,circle,,,,,,,,,,,,,,,,,,,,,,,,,,,,,,,,,,,,,,,,,,,,,,,,,,,,,,
298297,2022-11-30_24h13.27.053,vts_reward_expectancy_bt,2022.2.4,MacIntel,60.0024001,Chrome,1440,900,,,a,0.4706,10,255,1,0,11,11,2,1,1,0,0,0,0,0,0,1,triangle,star,,,,,,,,,,,,,,,,,,,,,,,,,,,,,,,,,,,,,,,,,,,,,,,,,,,,,,
298297,2022-11-30_24h13.27.053,vts_reward_expectancy_bt,2022.2.4,MacIntel,60.0024001,Chrome,1440,900,,,a,0.1027,10,265,1,1,0,12,9,1,0,0,0,1,1,0,0,0,star,triangle,,,,,,,,,,,,,,,,,,,,,,,,,,,,,,,,,,,,,,,,,,,,,,,,,,,,,,
298297,2022-11-30_24h13.27.053,vts_reward_expectancy_bt,2022.2.4,MacIntel,60.0024001,Chrome,1440,900,,,a,0.4704,10,275,1,1,1,13,7,1,0,0,1,0,0,1,0,0,hexagon,circle,,,,,,,,,,,,,,,,,,,,,,,,,,,,,,,,,,,,,,,,,,,,,,,,,,,,,,
298297,2022-11-30_24h13.27.053,vts_reward_expectancy_bt,2022.2.4,MacIntel,60.0024001,Chrome,1440,900,,,a,1.1076,10,285,1,1,2,14,8,1,0,0,1,0,0,0,0,1,hexagon,star,,,,,,,,,,,,,,,,,,,,,,,,,,,,,,,,,,,,,,,,,,,,,,,,,,,,,,
298297,2022-11-30_24h13.27.053,vts_reward_expectancy_bt,2022.2.4,MacIntel,60.0024001,Chrome,1440,900,,,a,0.551,10,295,1,1,3,15,3,1,0,1,0,0,1,0,0,0,circle,triangle,,,,,,,,,,,,,,,,,,,,,,,,,,,,,,,,,,,,,,,,,,,,,,,,,,,,,,
298297,2022-11-30_24h13.27.053,vts_reward_expectancy_bt,2022.2.4,MacIntel,60.0024001,Chrome,1440,900,,,a,0.5351,10,305,1,1,4,16,6,1,0,0,1,0,1,0,0,0,hexagon,triangle,,,,,,,,,,,,,,,,,,,,,,,,,,,,,,,,,,,,,,,,,,,,,,,,,,,,,,
298297,2022-11-30_24h13.27.053,vts_reward_expectancy_bt,2022.2.4,MacIntel,60.0024001,Chrome,1440,900,,,a,0.3272,1,306,1,1,5,17,4,1,0,1,0,0,0,0,1,0,circle,hexagon,,,,,,,,,,,,,,,,,,,,,,,,,,,,,,,,,,,,,,,,,,,,,,,,,,,,,,
298297,2022-11-30_24h13.27.053,vts_reward_expectancy_bt,2022.2.4,MacIntel,60.0024001,Chrome,1440,900,,,l,0.2521,1,307,1,1,6,18,2,1,1,0,0,0,0,0,0,1,triangle,star,,,,,,,,,,,,,,,,,,,,,,,,,,,,,,,,,,,,,,,,,,,,,,,,,,,,,,
298297,2022-11-30_24h13.27.053,vts_reward_expectancy_bt,2022.2.4,MacIntel,60.0024001,Chrome,1440,900,,,a,0.0543,10,317,1,1,7,19,0,1,1,0,0,0,0,1,0,0,triangle,circle,,,,,,,,,,,,,,,,,,,,,,,,,,,,,,,,,,,,,,,,,,,,,,,,,,,,,,
298297,2022-11-30_24h13.27.053,vts_reward_expectancy_bt,2022.2.4,MacIntel,60.0024001,Chrome,1440,900,,,a,0.4325,10,327,1,1,8,20,1,1,1,0,0,0,0,0,1,0,triangle,hexagon,,,,,,,,,,,,,,,,,,,,,,,,,,,,,,,,,,,,,,,,,,,,,,,,,,,,,,
298297,2022-11-30_24h13.27.053,vts_reward_expectancy_bt,2022.2.4,MacIntel,60.0024001,Chrome,1440,900,,,a,0.3365,10,337,1,1,9,21,10,1,0,0,0,1,0,1,0,0,star ,circle,,,,,,,,,,,,,,,,,,,,,,,,,,,,,,,,,,,,,,,,,,,,,,,,,,,,,,
298297,2022-11-30_24h13.27.053,vts_reward_expectancy_bt,2022.2.4,MacIntel,60.0024001,Chrome,1440,900,,,a,0.0848,10,347,1,1,10,22,11,1,0,0,0,1,0,0,1,0,star,hexagon,,,,,,,,,,,,,,,,,,,,,,,,,,,,,,,,,,,,,,,,,,,,,,,,,,,,,,
298297,2022-11-30_24h13.27.053,vts_reward_expectancy_bt,2022.2.4,MacIntel,60.0024001,Chrome,1440,900,,,a,0.1368,1,348,1,1,11,23,5,1,0,1,0,0,0,0,0,1,circle,star,,,,,,,,,,,,,,,,,,,,,,,,,,,,,,,,,,,,,,,,,,,,,,,,,,,,,,
298297,2022-11-30_24h13.27.053,vts_reward_expectancy_bt,2022.2.4,MacIntel,60.0024001,Chrome,1440,900,,,l,0.4316,10,358,1,2,0,24,6,1,0,0,1,0,1,0,0,0,hexagon,triangle,,,,,,,,,,,,,,,,,,,,,,,,,,,,,,,,,,,,,,,,,,,,,,,,,,,,,,
298297,2022-11-30_24h13.27.053,vts_reward_expectancy_bt,2022.2.4,MacIntel,60.0024001,Chrome,1440,900,,,l,0.3509,1,359,1,2,1,25,11,1,0,0,0,1,0,0,1,0,star,hexagon,,,,,,,,,,,,,,,,,,,,,,,,,,,,,,,,,,,,,,,,,,,,,,,,,,,,,,
298297,2022-11-30_24h13.27.053,vts_reward_expectancy_bt,2022.2.4,MacIntel,60.0024001,Chrome,1440,900,,,a,0.3144,1,360,1,2,2,26,10,1,0,0,0,1,0,1,0,0,star ,circle,,,,,,,,,,,,,,,,,,,,,,,,,,,,,,,,,,,,,,,,,,,,,,,,,,,,,,
298297,2022-11-30_24h13.27.053,vts_reward_expectancy_bt,2022.2.4,MacIntel,60.0024001,Chrome,1440,900,,,l,0.3164,1,361,1,2,3,27,3,1,0,1,0,0,1,0,0,0,circle,triangle,,,,,,,,,,,,,,,,,,,,,,,,,,,,,,,,,,,,,,,,,,,,,,,,,,,,,,
298297,2022-11-30_24h13.27.053,vts_reward_expectancy_bt,2022.2.4,MacIntel,60.0024001,Chrome,1440,900,,,a,0.4314,10,371,1,2,4,28,5,1,0,1,0,0,0,0,0,1,circle,star,,,,,,,,,,,,,,,,,,,,,,,,,,,,,,,,,,,,,,,,,,,,,,,,,,,,,,
298297,2022-11-30_24h13.27.053,vts_reward_expectancy_bt,2022.2.4,MacIntel,60.0024001,Chrome,1440,900,,,a,0.4039,1,372,1,2,5,29,9,1,0,0,0,1,1,0,0,0,star,triangle,,,,,,,,,,,,,,,,,,,,,,,,,,,,,,,,,,,,,,,,,,,,,,,,,,,,,,
298297,2022-11-30_24h13.27.053,vts_reward_expectancy_bt,2022.2.4,MacIntel,60.0024001,Chrome,1440,900,,,l,0.6353,1,373,1,2,6,30,2,1,1,0,0,0,0,0,0,1,triangle,star,,,,,,,,,,,,,,,,,,,,,,,,,,,,,,,,,,,,,,,,,,,,,,,,,,,,,,
298297,2022-11-30_24h13.27.053,vts_reward_expectancy_bt,2022.2.4,MacIntel,60.0024001,Chrome,1440,900,,,l,0.5145,10,383,1,2,7,31,1,1,1,0,0,0,0,0,1,0,triangle,hexagon,,,,,,,,,,,,,,,,,,,,,,,,,,,,,,,,,,,,,,,,,,,,,,,,,,,,,,
298297,2022-11-30_24h13.27.053,vts_reward_expectancy_bt,2022.2.4,MacIntel,60.0024001,Chrome,1440,900,,,l,0.5074,1,384,1,2,8,32,8,1,0,0,1,0,0,0,0,1,hexagon,star,,,,,,,,,,,,,,,,,,,,,,,,,,,,,,,,,,,,,,,,,,,,,,,,,,,,,,
298297,2022-11-30_24h13.27.053,vts_reward_expectancy_bt,2022.2.4,MacIntel,60.0024001,Chrome,1440,900,,,a,0.3165,1,385,1,2,9,33,4,1,0,1,0,0,0,0,1,0,circle,hexagon,,,,,,,,,,,,,,,,,,,,,,,,,,,,,,,,,,,,,,,,,,,,,,,,,,,,,,
298297,2022-11-30_24h13.27.053,vts_reward_expectancy_bt,2022.2.4,MacIntel,60.0024001,Chrome,1440,900,,,a,0.0825,10,395,1,2,10,34,7,1,0,0,1,0,0,1,0,0,hexagon,circle,,,,,,,,,,,,,,,,,,,,,,,,,,,,,,,,,,,,,,,,,,,,,,,,,,,,,,
298297,2022-11-30_24h13.27.053,vts_reward_expectancy_bt,2022.2.4,MacIntel,60.0024001,Chrome,1440,900,,,a,0.2512,10,405,1,2,11,35,0,1,1,0,0,0,0,1,0,0,triangle,circle,,,,,,,,,,,,,,,,,,,,,,,,,,,,,,,,,,,,,,,,,,,,,,,,,,,,,,
298297,2022-11-30_24h13.27.053,vts_reward_expectancy_bt,2022.2.4,MacIntel,60.0024001,Chrome,1440,900,,,l,1.3969,1,406,2,0,0,0,4,1,0,1,0,0,0,0,1,0,circle,hexagon,,,,,,,,,,,,,,,,,,,,,,,,,,,,,,,,,,,,,,,,,,,,,,,,,,,,,,
298297,2022-11-30_24h13.27.053,vts_reward_expectancy_bt,2022.2.4,MacIntel,60.0024001,Chrome,1440,900,,,l,0.4226,1,407,2,0,1,1,10,1,0,0,0,1,0,1,0,0,star ,circle,,,,,,,,,,,,,,,,,,,,,,,,,,,,,,,,,,,,,,,,,,,,,,,,,,,,,,
298297,2022-11-30_24h13.27.053,vts_reward_expectancy_bt,2022.2.4,MacIntel,60.0024001,Chrome,1440,900,,,a,0.4753,1,408,2,0,2,2,5,1,0,1,0,0,0,0,0,1,circle,star,,,,,,,,,,,,,,,,,,,,,,,,,,,,,,,,,,,,,,,,,,,,,,,,,,,,,,
298297,2022-11-30_24h13.27.053,vts_reward_expectancy_bt,2022.2.4,MacIntel,60.0024001,Chrome,1440,900,,,a,0.8423,10,418,2,0,3,3,9,1,0,0,0,1,1,0,0,0,star,triangle,,,,,,,,,,,,,,,,,,,,,,,,,,,,,,,,,,,,,,,,,,,,,,,,,,,,,,
298297,2022-11-30_24h13.27.053,vts_reward_expectancy_bt,2022.2.4,MacIntel,60.0024001,Chrome,1440,900,,,a,0.0019,1,419,2,0,4,4,6,1,0,0,1,0,1,0,0,0,hexagon,triangle,,,,,,,,,,,,,,,,,,,,,,,,,,,,,,,,,,,,,,,,,,,,,,,,,,,,,,
298297,2022-11-30_24h13.27.053,vts_reward_expectancy_bt,2022.2.4,MacIntel,60.0024001,Chrome,1440,900,,,l,0.0005,10,429,2,0,5,5,11,1,0,0,0,1,0,0,1,0,star,hexagon,,,,,,,,,,,,,,,,,,,,,,,,,,,,,,,,,,,,,,,,,,,,,,,,,,,,,,
298297,2022-11-30_24h13.27.053,vts_reward_expectancy_bt,2022.2.4,MacIntel,60.0024001,Chrome,1440,900,,,l,0.5734,1,430,2,0,6,6,3,1,0,1,0,0,1,0,0,0,circle,triangle,,,,,,,,,,,,,,,,,,,,,,,,,,,,,,,,,,,,,,,,,,,,,,,,,,,,,,
298297,2022-11-30_24h13.27.053,vts_reward_expectancy_bt,2022.2.4,MacIntel,60.0024001,Chrome,1440,900,,,a,0.481,10,440,2,0,7,7,2,1,1,0,0,0,0,0,0,1,triangle,star,,,,,,,,,,,,,,,,,,,,,,,,,,,,,,,,,,,,,,,,,,,,,,,,,,,,,,
298297,2022-11-30_24h13.27.053,vts_reward_expectancy_bt,2022.2.4,MacIntel,60.0024001,Chrome,1440,900,,,a,0.5512,10,450,2,0,8,8,1,1,1,0,0,0,0,0,1,0,triangle,hexagon,,,,,,,,,,,,,,,,,,,,,,,,,,,,,,,,,,,,,,,,,,,,,,,,,,,,,,
298297,2022-11-30_24h13.27.053,vts_reward_expectancy_bt,2022.2.4,MacIntel,60.0024001,Chrome,1440,900,,,a,0.3503,10,460,2,0,9,9,8,1,0,0,1,0,0,0,0,1,hexagon,star,,,,,,,,,,,,,,,,,,,,,,,,,,,,,,,,,,,,,,,,,,,,,,,,,,,,,,
298297,2022-11-30_24h13.27.053,vts_reward_expectancy_bt,2022.2.4,MacIntel,60.0024001,Chrome,1440,900,,,a,2.0894,10,470,2,0,10,10,0,1,1,0,0,0,0,1,0,0,triangle,circle,,,,,,,,,,,,,,,,,,,,,,,,,,,,,,,,,,,,,,,,,,,,,,,,,,,,,,
298297,2022-11-30_24h13.27.053,vts_reward_expectancy_bt,2022.2.4,MacIntel,60.0024001,Chrome,1440,900,,,a,0.6221,1,471,2,0,11,11,7,1,0,0,1,0,0,1,0,0,hexagon,circle,,,,,,,,,,,,,,,,,,,,,,,,,,,,,,,,,,,,,,,,,,,,,,,,,,,,,,
298297,2022-11-30_24h13.27.053,vts_reward_expectancy_bt,2022.2.4,MacIntel,60.0024001,Chrome,1440,900,,,l,1.0153,1,472,2,1,0,12,4,1,0,1,0,0,0,0,1,0,circle,hexagon,,,,,,,,,,,,,,,,,,,,,,,,,,,,,,,,,,,,,,,,,,,,,,,,,,,,,,
298297,2022-11-30_24h13.27.053,vts_reward_expectancy_bt,2022.2.4,MacIntel,60.0024001,Chrome,1440,900,,,l,0.7856,10,482,2,1,1,13,11,1,0,0,0,1,0,0,1,0,star,hexagon,,,,,,,,,,,,,,,,,,,,,,,,,,,,,,,,,,,,,,,,,,,,,,,,,,,,,,
298297,2022-11-30_24h13.27.053,vts_reward_expectancy_bt,2022.2.4,MacIntel,60.0024001,Chrome,1440,900,,,l,0.6107,10,492,2,1,2,14,3,1,0,1,0,0,1,0,0,0,circle,triangle,,,,,,,,,,,,,,,,,,,,,,,,,,,,,,,,,,,,,,,,,,,,,,,,,,,,,,
298297,2022-11-30_24h13.27.053,vts_reward_expectancy_bt,2022.2.4,MacIntel,60.0024001,Chrome,1440,900,,,l,0.0717,1,493,2,1,3,15,2,1,1,0,0,0,0,0,0,1,triangle,star,,,,,,,,,,,,,,,,,,,,,,,,,,,,,,,,,,,,,,,,,,,,,,,,,,,,,,
298297,2022-11-30_24h13.27.053,vts_reward_expectancy_bt,2022.2.4,MacIntel,60.0024001,Chrome,1440,900,,,l,0.3886,1,494,2,1,4,16,0,1,1,0,0,0,0,1,0,0,triangle,circle,,,,,,,,,,,,,,,,,,,,,,,,,,,,,,,,,,,,,,,,,,,,,,,,,,,,,,
298297,2022-11-30_24h13.27.053,vts_reward_expectancy_bt,2022.2.4,MacIntel,60.0024001,Chrome,1440,900,,,a,0.3712,1,495,2,1,5,17,5,1,0,1,0,0,0,0,0,1,circle,star,,,,,,,,,,,,,,,,,,,,,,,,,,,,,,,,,,,,,,,,,,,,,,,,,,,,,,
298297,2022-11-30_24h13.27.053,vts_reward_expectancy_bt,2022.2.4,MacIntel,60.0024001,Chrome,1440,900,,,l,0.0003,1,496,2,1,6,18,8,1,0,0,1,0,0,0,0,1,hexagon,star,,,,,,,,,,,,,,,,,,,,,,,,,,,,,,,,,,,,,,,,,,,,,,,,,,,,,,
298297,2022-11-30_24h13.27.053,vts_reward_expectancy_bt,2022.2.4,MacIntel,60.0024001,Chrome,1440,900,,,l,0.3416,10,506,2,1,7,19,1,1,1,0,0,0,0,0,1,0,triangle,hexagon,,,,,,,,,,,,,,,,,,,,,,,,,,,,,,,,,,,,,,,,,,,,,,,,,,,,,,
298297,2022-11-30_24h13.27.053,vts_reward_expectancy_bt,2022.2.4,MacIntel,60.0024001,Chrome,1440,900,,,l,0.1018,10,516,2,1,8,20,6,1,0,0,1,0,1,0,0,0,hexagon,triangle,,,,,,,,,,,,,,,,,,,,,,,,,,,,,,,,,,,,,,,,,,,,,,,,,,,,,,
298297,2022-11-30_24h13.27.053,vts_reward_expectancy_bt,2022.2.4,MacIntel,60.0024001,Chrome,1440,900,,,l,0.3007,1,517,2,1,9,21,7,1,0,0,1,0,0,1,0,0,hexagon,circle,,,,,,,,,,,,,,,,,,,,,,,,,,,,,,,,,,,,,,,,,,,,,,,,,,,,,,
298297,2022-11-30_24h13.27.053,vts_reward_expectancy_bt,2022.2.4,MacIntel,60.0024001,Chrome,1440,900,,,a,0.3682,1,518,2,1,10,22,10,1,0,0,0,1,0,1,0,0,star ,circle,,,,,,,,,,,,,,,,,,,,,,,,,,,,,,,,,,,,,,,,,,,,,,,,,,,,,,
298297,2022-11-30_24h13.27.053,vts_reward_expectancy_bt,2022.2.4,MacIntel,60.0024001,Chrome,1440,900,,,l,0.2858,1,519,2,1,11,23,9,1,0,0,0,1,1,0,0,0,star,triangle,,,,,,,,,,,,,,,,,,,,,,,,,,,,,,,,,,,,,,,,,,,,,,,,,,,,,,
298297,2022-11-30_24h13.27.053,vts_reward_expectancy_bt,2022.2.4,MacIntel,60.0024001,Chrome,1440,900,,,l,0.0706,1,520,2,2,0,24,8,1,0,0,1,0,0,0,0,1,hexagon,star,,,,,,,,,,,,,,,,,,,,,,,,,,,,,,,,,,,,,,,,,,,,,,,,,,,,,,
298297,2022-11-30_24h13.27.053,vts_reward_expectancy_bt,2022.2.4,MacIntel,60.0024001,Chrome,1440,900,,,l,0.4521,1,521,2,2,1,25,2,1,1,0,0,0,0,0,0,1,triangle,star,,,,,,,,,,,,,,,,,,,,,,,,,,,,,,,,,,,,,,,,,,,,,,,,,,,,,,
298297,2022-11-30_24h13.27.053,vts_reward_expectancy_bt,2022.2.4,MacIntel,60.0024001,Chrome,1440,900,,,a,0.2047,1,522,2,2,2,26,5,1,0,1,0,0,0,0,0,1,circle,star,,,,,,,,,,,,,,,,,,,,,,,,,,,,,,,,,,,,,,,,,,,,,,,,,,,,,,
298297,2022-11-30_24h13.27.053,vts_reward_expectancy_bt,2022.2.4,MacIntel,60.0024001,Chrome,1440,900,,,l,0.1184,10,532,2,2,3,27,6,1,0,0,1,0,1,0,0,0,hexagon,triangle,,,,,,,,,,,,,,,,,,,,,,,,,,,,,,,,,,,,,,,,,,,,,,,,,,,,,,
298297,2022-11-30_24h13.27.053,vts_reward_expectancy_bt,2022.2.4,MacIntel,60.0024001,Chrome,1440,900,,,l,0.0043,1,533,2,2,4,28,7,1,0,0,1,0,0,1,0,0,hexagon,circle,,,,,,,,,,,,,,,,,,,,,,,,,,,,,,,,,,,,,,,,,,,,,,,,,,,,,,
298297,2022-11-30_24h13.27.053,vts_reward_expectancy_bt,2022.2.4,MacIntel,60.0024001,Chrome,1440,900,,,l,0.5221,1,534,2,2,5,29,11,1,0,0,0,1,0,0,1,0,star,hexagon,,,,,,,,,,,,,,,,,,,,,,,,,,,,,,,,,,,,,,,,,,,,,,,,,,,,,,
298297,2022-11-30_24h13.27.053,vts_reward_expectancy_bt,2022.2.4,MacIntel,60.0024001,Chrome,1440,900,,,l,0.3844,1,535,2,2,6,30,1,1,1,0,0,0,0,0,1,0,triangle,hexagon,,,,,,,,,,,,,,,,,,,,,,,,,,,,,,,,,,,,,,,,,,,,,,,,,,,,,,
298297,2022-11-30_24h13.27.053,vts_reward_expectancy_bt,2022.2.4,MacIntel,60.0024001,Chrome,1440,900,,,a,0.1973,1,536,2,2,7,31,10,1,0,0,0,1,0,1,0,0,star ,circle,,,,,,,,,,,,,,,,,,,,,,,,,,,,,,,,,,,,,,,,,,,,,,,,,,,,,,
298297,2022-11-30_24h13.27.053,vts_reward_expectancy_bt,2022.2.4,MacIntel,60.0024001,Chrome,1440,900,,,l,0.3168,1,537,2,2,8,32,0,1,1,0,0,0,0,1,0,0,triangle,circle,,,,,,,,,,,,,,,,,,,,,,,,,,,,,,,,,,,,,,,,,,,,,,,,,,,,,,
298297,2022-11-30_24h13.27.053,vts_reward_expectancy_bt,2022.2.4,MacIntel,60.0024001,Chrome,1440,900,,,a,0.1056,1,538,2,2,9,33,4,1,0,1,0,0,0,0,1,0,circle,hexagon,,,,,,,,,,,,,,,,,,,,,,,,,,,,,,,,,,,,,,,,,,,,,,,,,,,,,,
298297,2022-11-30_24h13.27.053,vts_reward_expectancy_bt,2022.2.4,MacIntel,60.0024001,Chrome,1440,900,,,a,0.1217,1,539,2,2,10,34,3,1,0,1,0,0,1,0,0,0,circle,triangle,,,,,,,,,,,,,,,,,,,,,,,,,,,,,,,,,,,,,,,,,,,,,,,,,,,,,,
298297,2022-11-30_24h13.27.053,vts_reward_expectancy_bt,2022.2.4,MacIntel,60.0024001,Chrome,1440,900,,,a,0.1385,1,540,2,2,11,35,9,1,0,0,0,1,1,0,0,0,star,triangle,,,,,,,,,,,,,,,,,,,,,,,,,,,,,,,,,,,,,,,,,,,,,,,,,,,,,,
298297,2022-11-30_24h13.27.053,vts_reward_expectancy_bt,2022.2.4,MacIntel,60.0024001,Chrome,1440,900,,,,,,,,,,,,,,,,,,,,,,,D,167,triangle,1,0,d,2.7261,0,0,0,0,0,1,,,,,,,,,,,,,,,,,,,,,,,,,,,,,,,,,,,,,,,,,
298297,2022-11-30_24h13.27.053,vts_reward_expectancy_bt,2022.2.4,MacIntel,60.0024001,Chrome,1440,900,,,,,,,,,,,,,,,,,,,,,,,Y,146,hexagon,1,0,f,0.9339,0,1,0,1,0,1,,,,,,,,,,,,,,,,,,,,,,,,,,,,,,,,,,,,,,,,,
298297,2022-11-30_24h13.27.053,vts_reward_expectancy_bt,2022.2.4,MacIntel,60.0024001,Chrome,1440,900,,,,,,,,,,,,,,,,,,,,,,,S,160,star,1,0,f,1.0808,0,2,0,2,0,1,,,,,,,,,,,,,,,,,,,,,,,,,,,,,,,,,,,,,,,,,
298297,2022-11-30_24h13.27.053,vts_reward_expectancy_bt,2022.2.4,MacIntel,60.0024001,Chrome,1440,900,,,,,,,,,,,,,,,,,,,,,,,W,174,circle,1,0,f,0.5989,0,3,0,3,0,1,,,,,,,,,,,,,,,,,,,,,,,,,,,,,,,,,,,,,,,,,
298297,2022-11-30_24h13.27.053,vts_reward_expectancy_bt,2022.2.4,MacIntel,60.0024001,Chrome,1440,900,,,,,,,,,,,,,,,,,,,,,,,H,125,triangle,1,0,d,0.5871,0,4,0,4,0,1,,,,,,,,,,,,,,,,,,,,,,,,,,,,,,,,,,,,,,,,,
298297,2022-11-30_24h13.27.053,vts_reward_expectancy_bt,2022.2.4,MacIntel,60.0024001,Chrome,1440,900,,,,,,,,,,,,,,,,,,,,,,,B,181,hexagon,1,0,d,0.6212,0,5,0,5,0,1,,,,,,,,,,,,,,,,,,,,,,,,,,,,,,,,,,,,,,,,,
298297,2022-11-30_24h13.27.053,vts_reward_expectancy_bt,2022.2.4,MacIntel,60.0024001,Chrome,1440,900,,,,,,,,,,,,,,,,,,,,,,,F,132,star,1,0,d,0.6443,0,6,0,6,0,1,,,,,,,,,,,,,,,,,,,,,,,,,,,,,,,,,,,,,,,,,
298297,2022-11-30_24h13.27.053,vts_reward_expectancy_bt,2022.2.4,MacIntel,60.0024001,Chrome,1440,900,,,,,,,,,,,,,,,,,,,,,,,U,139,circle,1,0,f,0.4845,0,7,0,7,0,1,,,,,,,,,,,,,,,,,,,,,,,,,,,,,,,,,,,,,,,,,
298297,2022-11-30_24h13.27.053,vts_reward_expectancy_bt,2022.2.4,MacIntel,60.0024001,Chrome,1440,900,,,,,,,,,,,,,,,,,,,,,,,D,167,circle,1,0,d,0.8916,0,8,0,8,0,1,,,,,,,,,,,,,,,,,,,,,,,,,,,,,,,,,,,,,,,,,
298297,2022-11-30_24h13.27.053,vts_reward_expectancy_bt,2022.2.4,MacIntel,60.0024001,Chrome,1440,900,,,,,,,,,,,,,,,,,,,,,,,Y,146,hexagon,1,0,f,0.8137,0,9,0,9,0,1,,,,,,,,,,,,,,,,,,,,,,,,,,,,,,,,,,,,,,,,,
298297,2022-11-30_24h13.27.053,vts_reward_expectancy_bt,2022.2.4,MacIntel,60.0024001,Chrome,1440,900,,,,,,,,,,,,,,,,,,,,,,,D,174,triangle,0,0,,,1,,,,,,,0,0,0,0,1,,,,,,,,,,,,,,,,,,,,,,,,,,,,,,,,,,,
298297,2022-11-30_24h13.27.053,vts_reward_expectancy_bt,2022.2.4,MacIntel,60.0024001,Chrome,1440,900,,,,,,,,,,,,,,,,,,,,,,,S,160,hexagon,1,1,,,1,,,,,,k,1,0,1,0,1,0.981,,,,,,,,,,,,,,,,,,,,,,,,,,,,,,,,,,
298297,2022-11-30_24h13.27.053,vts_reward_expectancy_bt,2022.2.4,MacIntel,60.0024001,Chrome,1440,900,,,,,,,,,,,,,,,,,,,,,,,Y,167,star,1,0,,,1,,,,,,k,2,0,2,0,1,0.7151,,,,,,,,,,,,,,,,,,,,,,,,,,,,,,,,,,
298297,2022-11-30_24h13.27.053,vts_reward_expectancy_bt,2022.2.4,MacIntel,60.0024001,Chrome,1440,900,,,,,,,,,,,,,,,,,,,,,,,B,146,circle,1,0,,,1,,,,,,j,3,0,3,0,1,1.0148,,,,,,,,,,,,,,,,,,,,,,,,,,,,,,,,,,
298297,2022-11-30_24h13.27.053,vts_reward_expectancy_bt,2022.2.4,MacIntel,60.0024001,Chrome,1440,900,,,,,,,,,,,,,,,,,,,,,,,F,132,triangle,1,0,,,1,,,,,,j,4,0,4,0,1,0.6817,,,,,,,,,,,,,,,,,,,,,,,,,,,,,,,,,,
298297,2022-11-30_24h13.27.053,vts_reward_expectancy_bt,2022.2.4,MacIntel,60.0024001,Chrome,1440,900,,,,,,,,,,,,,,,,,,,,,,,W,181,hexagon,1,0,,,1,,,,,,k,5,0,5,0,1,0.6635,,,,,,,,,,,,,,,,,,,,,,,,,,,,,,,,,,
298297,2022-11-30_24h13.27.053,vts_reward_expectancy_bt,2022.2.4,MacIntel,60.0024001,Chrome,1440,900,,,,,,,,,,,,,,,,,,,,,,,H,125,star,1,0,,,1,,,,,,j,6,0,6,0,1,1.2991,,,,,,,,,,,,,,,,,,,,,,,,,,,,,,,,,,
298297,2022-11-30_24h13.27.053,vts_reward_expectancy_bt,2022.2.4,MacIntel,60.0024001,Chrome,1440,900,,,,,,,,,,,,,,,,,,,,,,,U,139,circle,1,0,,,1,,,,,,j,7,0,7,0,1,0.9944,,,,,,,,,,,,,,,,,,,,,,,,,,,,,,,,,,
298297,2022-11-30_24h13.27.053,vts_reward_expectancy_bt,2022.2.4,MacIntel,60.0024001,Chrome,1440,900,,,,,,,,,,,,,,,,,,,,,,,D,174,circle,1,0,,,1,,,,,,k,8,0,8,0,1,0.5974,,,,,,,,,,,,,,,,,,,,,,,,,,,,,,,,,,
298297,2022-11-30_24h13.27.053,vts_reward_expectancy_bt,2022.2.4,MacIntel,60.0024001,Chrome,1440,900,,,,,,,,,,,,,,,,,,,,,,,S,160,triangle,1,0,,,1,,,,,,k,9,0,9,0,1,0.6352,,,,,,,,,,,,,,,,,,,,,,,,,,,,,,,,,,
298297,2022-11-30_24h13.27.053,vts_reward_expectancy_bt,2022.2.4,MacIntel,60.0024001,Chrome,1440,900,,,,,0,540,,,,,,,,,,,,,,,,,F,146,circle,0,0,,,2,,,,,,,,,,,,,-1,number,NA,k,1.7825,vtsPrac,0,0,0,0,1,,,,,,,,,,,,,,,,,,,,,,,
298297,2022-11-30_24h13.27.053,vts_reward_expectancy_bt,2022.2.4,MacIntel,60.0024001,Chrome,1440,900,,,,,0,540,,,,,,,,,,,,,,,,,U,174,triangle,1,1,,,2,,,,,,,,,,,,,switch,letter,lettSwt,f,1.4457,vtsPrac,1,0,1,0,1,,,,,,,,,,,,,,,,,,,,,,,
298297,2022-11-30_24h13.27.053,vts_reward_expectancy_bt,2022.2.4,MacIntel,60.0024001,Chrome,1440,900,,,,,0,540,,,,,,,,,,,,,,,,,H,132,circle,1,0,,,2,,,,,,,,,,,,,repeat,letter,lettRpt,d,1.9446,vtsPrac,2,0,2,0,1,,,,,,,,,,,,,,,,,,,,,,,
298297,2022-11-30_24h13.27.053,vts_reward_expectancy_bt,2022.2.4,MacIntel,60.0024001,Chrome,1440,900,,,,,0,540,,,,,,,,,,,,,,,,,W,160,triangle,1,0,,,2,,,,,,,,,,,,,switch,number,numSwt,k,2.4635,vtsPrac,3,0,3,0,1,,,,,,,,,,,,,,,,,,,,,,,
298297,2022-11-30_24h13.27.053,vts_reward_expectancy_bt,2022.2.4,MacIntel,60.0024001,Chrome,1440,900,,,,,0,540,,,,,,,,,,,,,,,,,F,146,circle,0,0,,,2,,,,,,,,,,,,,repeat,number,NA,k,1.8731,vtsPrac,4,0,4,0,1,,,,,,,,,,,,,,,,,,,,,,,
298297,2022-11-30_24h13.27.053,vts_reward_expectancy_bt,2022.2.4,MacIntel,60.0024001,Chrome,1440,900,,,,,0,540,,,,,,,,,,,,,,,,,U,174,hexagon,1,1,,,2,,,,,,,,,,,,,switch,letter,lettSwt,f,2.1941,vtsPrac,5,0,5,0,1,,,,,,,,,,,,,,,,,,,,,,,
298297,2022-11-30_24h13.27.053,vts_reward_expectancy_bt,2022.2.4,MacIntel,60.0024001,Chrome,1440,900,,,,,0,540,,,,,,,,,,,,,,,,,H,132,circle,1,0,,,2,,,,,,,,,,,,,switch,number,numSwt,j,2.0943,vtsPrac,6,0,6,0,1,,,,,,,,,,,,,,,,,,,,,,,
298297,2022-11-30_24h13.27.053,vts_reward_expectancy_bt,2022.2.4,MacIntel,60.0024001,Chrome,1440,900,,,,,0,540,,,,,,,,,,,,,,,,,W,160,hexagon,1,0,,,2,,,,,,,,,,,,,repeat,number,numRpt,k,0.8443,vtsPrac,7,0,7,0,1,,,,,,,,,,,,,,,,,,,,,,,
298297,2022-11-30_24h13.27.053,vts_reward_expectancy_bt,2022.2.4,MacIntel,60.0024001,Chrome,1440,900,,,,,0,540,,,,,,,,,,,,,,,,,D,125,circle,1,0,,,2,,,,,,,,,,,,,repeat,number,numRpt,j,0.7979,vtsPrac,8,0,8,0,1,,,,,,,,,,,,,,,,,,,,,,,
298297,2022-11-30_24h13.27.053,vts_reward_expectancy_bt,2022.2.4,MacIntel,60.0024001,Chrome,1440,900,,,,,0,540,,,,,,,,,,,,,,,,,B,132,hexagon,1,0,,,2,,,,,,,,,,,,,switch,letter,lettSwt,d,2.1948,vtsPrac,9,0,9,0,1,,,,,,,,,,,,,,,,,,,,,,,
298297,2022-11-30_24h13.27.053,vts_reward_expectancy_bt,2022.2.4,MacIntel,60.0024001,Chrome,1440,900,,,,,0,540,,,,,,,,,,,,,,,,,H,160,triangle,1,0,,,2,,,,,,,,,,,,,switch,number,numSwt,k,1.85,vtsPrac,10,0,10,0,1,,,,,,,,,,,,,,,,,,,,,,,
298297,2022-11-30_24h13.27.053,vts_reward_expectancy_bt,2022.2.4,MacIntel,60.0024001,Chrome,1440,900,,,,,0,540,,,,,,,,,,,,,,,,,S,167,star,-1,0,,,2,,,,,,,,,,,,,switch,no_choice,NA,,,vtsPrac,11,0,11,0,1,,,,,,,,,,,,,,,,,,,,,,,
298297,2022-11-30_24h13.27.053,vts_reward_expectancy_bt,2022.2.4,MacIntel,60.0024001,Chrome,1440,900,,,,,0,540,,,,,,,,,,,,,,,,,Y,181,hexagon,1,0,,,2,,,,,,,,,,,,,switch,letter,lettSwt,f,0.7997,vtsPrac,12,0,12,0,1,,,,,,,,,,,,,,,,,,,,,,,
298297,2022-11-30_24h13.27.053,vts_reward_expectancy_bt,2022.2.4,MacIntel,60.0024001,Chrome,1440,900,,,,,0,540,,,,,,,,,,,,,,,,,W,174,triangle,1,0,,,2,,,,,,,,,,,,,switch,number,numSwt,k,0.5829,vtsPrac,13,0,13,0,1,,,,,,,,,,,,,,,,,,,,,,,
298297,2022-11-30_24h13.27.053,vts_reward_expectancy_bt,2022.2.4,MacIntel,60.0024001,Chrome,1440,900,,,,,0,540,,,,,,,,,,,,,,,,,B,160,circle,0,0,,,2,,,,,,,,,,,,,repeat,number,NA,j,0.732,vtsPrac,14,0,14,0,1,,,,,,,,,,,,,,,,,,,,,,,
298297,2022-11-30_24h13.27.053,vts_reward_expectancy_bt,2022.2.4,MacIntel,60.0024001,Chrome,1440,900,,,,,0,540,,,,,,,,,,,,,,,,,F,125,hexagon,0,1,,,2,,,,,,,,,,,,,repeat,number,NA,k,0.9602,vtsPrac,15,0,15,0,1,,,,,,,,,,,,,,,,,,,,,,,
298297,2022-11-30_24h13.27.053,vts_reward_expectancy_bt,2022.2.4,MacIntel,60.0024001,Chrome,1440,900,,,,,0,540,,,,,,,,,,,,,,,,,D,146,triangle,1,1,,,2,,,,,,,,,,,,,repeat,number,numRpt,j,0.8348,vtsPrac,16,0,16,0,1,,,,,,,,,,,,,,,,,,,,,,,
298297,2022-11-30_24h13.27.053,vts_reward_expectancy_bt,2022.2.4,MacIntel,60.0024001,Chrome,1440,900,,,,,0,540,,,,,,,,,,,,,,,,,H,181,star,1,0,,,2,,,,,,,,,,,,,switch,letter,lettSwt,d,1.6105,vtsPrac,17,0,17,0,1,,,,,,,,,,,,,,,,,,,,,,,
298297,2022-11-30_24h13.27.053,vts_reward_expectancy_bt,2022.2.4,MacIntel,60.0024001,Chrome,1440,900,,,,,0,540,,,,,,,,,,,,,,,,,U,167,triangle,1,0,,,2,,,,,,,,,,,,,switch,number,numSwt,k,1.2042,vtsPrac,18,0,18,0,1,,,,,,,,,,,,,,,,,,,,,,,
298297,2022-11-30_24h13.27.053,vts_reward_expectancy_bt,2022.2.4,MacIntel,60.0024001,Chrome,1440,900,,,,,0,540,,,,,,,,,,,,,,,,,B,132,circle,1,0,,,2,,,,,,,,,,,,,repeat,number,numRpt,j,0.8131,vtsPrac,19,0,19,0,1,,,,,,,,,,,,,,,,,,,,,,,
298297,2022-11-30_24h13.27.053,vts_reward_expectancy_bt,2022.2.4,MacIntel,60.0024001,Chrome,1440,900,,,,,0,540,,,,,,,,,,,,,,,,,F,146,triangle,1,0,,,2,,,,,,,,,,,,,repeat,number,numRpt,j,0.7639,vtsPrac,20,0,20,0,1,,,,,,,,,,,,,,,,,,,,,,,
298297,2022-11-30_24h13.27.053,vts_reward_expectancy_bt,2022.2.4,MacIntel,60.0024001,Chrome,1440,900,,,,,0,540,,,,,,,,,,,,,,,,,H,139,hexagon,1,0,,,2,,,,,,,,,,,,,repeat,number,numRpt,j,0.4983,vtsPrac,21,0,21,0,1,,,,,,,,,,,,,,,,,,,,,,,
298297,2022-11-30_24h13.27.053,vts_reward_expectancy_bt,2022.2.4,MacIntel,60.0024001,Chrome,1440,900,,,,,0,540,,,,,,,,,,,,,,,,,S,181,hexagon,1,0,,,2,,,,,,,,,,,,,repeat,number,numRpt,k,0.5926,vtsPrac,22,0,22,0,1,,,,,,,,,,,,,,,,,,,,,,,
298297,2022-11-30_24h13.27.053,vts_reward_expectancy_bt,2022.2.4,MacIntel,60.0024001,Chrome,1440,900,,,,,0,540,,,,,,,,,,,,,,,,,U,125,star,1,0,,,2,,,,,,,,,,,,,repeat,number,numRpt,j,1.2802,vtsPrac,23,0,23,0,1,,,,,,,,,,,,,,,,,,,,,,,
298297,2022-11-30_24h13.27.053,vts_reward_expectancy_bt,2022.2.4,MacIntel,60.0024001,Chrome,1440,900,,,,,0,540,,,,,,,,,,,,,,,,,F,160,circle,1,0,,,2,,,,,,,,,,,,,repeat,number,numRpt,k,1.6344,vtsPrac,24,0,24,0,1,,,,,,,,,,,,,,,,,,,,,,,
298297,2022-11-30_24h13.27.053,vts_reward_expectancy_bt,2022.2.4,MacIntel,60.0024001,Chrome,1440,900,,,,,0,540,,,,,,,,,,,,,,,,,B,132,star,1,0,,,2,,,,,,,,,,,,,repeat,number,numRpt,j,0.5299,vtsPrac,25,0,25,0,1,,,,,,,,,,,,,,,,,,,,,,,
298297,2022-11-30_24h13.27.053,vts_reward_expectancy_bt,2022.2.4,MacIntel,60.0024001,Chrome,1440,900,,,,,0,540,,,,,,,,,,,,,,,,,D,174,star,1,0,,,2,,,,,,,,,,,,,repeat,number,numRpt,k,0.8641,vtsPrac,26,0,26,0,1,,,,,,,,,,,,,,,,,,,,,,,
298297,2022-11-30_24h13.27.053,vts_reward_expectancy_bt,2022.2.4,MacIntel,60.0024001,Chrome,1440,900,,,,,0,540,,,,,,,,,,,,,,,,,U,139,triangle,1,0,,,2,,,,,,,,,,,,,repeat,number,numRpt,j,1.0454,vtsPrac,27,0,27,0,1,,,,,,,,,,,,,,,,,,,,,,,
298297,2022-11-30_24h13.27.053,vts_reward_expectancy_bt,2022.2.4,MacIntel,60.0024001,Chrome,1440,900,,,,,0,540,,,,,,,,,,,,,,,,,H,181,triangle,1,0,,,2,,,,,,,,,,,,,repeat,number,numRpt,k,0.6485,vtsPrac,28,0,28,0,1,,,,,,,,,,,,,,,,,,,,,,,
298297,2022-11-30_24h13.27.053,vts_reward_expectancy_bt,2022.2.4,MacIntel,60.0024001,Chrome,1440,900,,,,,0,540,,,,,,,,,,,,,,,,,B,174,hexagon,1,0,,,2,,,,,,,,,,,,,repeat,number,numRpt,k,0.6639,vtsPrac,29,0,29,0,1,,,,,,,,,,,,,,,,,,,,,,,
298297,2022-11-30_24h13.27.053,vts_reward_expectancy_bt,2022.2.4,MacIntel,60.0024001,Chrome,1440,900,,,,,0,540,,,,,,,,,,,,,,,,,S,146,triangle,1,0,,,2,,,,,,,,,,,,,repeat,number,numRpt,j,1.4609,vtsPrac,30,0,30,0,1,,,,,,,,,,,,,,,,,,,,,,,
298297,2022-11-30_24h13.27.053,vts_reward_expectancy_bt,2022.2.4,MacIntel,60.0024001,Chrome,1440,900,,,,,0,540,,,,,,,,,,,,,,,,,W,125,hexagon,1,0,,,2,,,,,,,,,,,,,repeat,number,numRpt,j,0.6558,vtsPrac,31,0,31,0,1,,,,,,,,,,,,,,,,,,,,,,,
298297,2022-11-30_24h13.27.053,vts_reward_expectancy_bt,2022.2.4,MacIntel,60.0024001,Chrome,1440,900,,,,,,,,,,,,,,,,,,,,,,,,,,,,,,,,,,,,,,,,,,,,,,,,,,,,,,,,,,,,,,,,,,,,,,,,,,,,
298297,2022-11-30_24h13.27.053,vts_reward_expectancy_bt,2022.2.4,MacIntel,60.0024001,Chrome,1440,900,,,,,,,,,,,,,,,,,,,,,,,,,,,,,,,,,,,,,,,,,,,,,,,,,,,,,,,,,,,,,,,,,,,,,,,,,,,,
298297,2022-11-30_24h13.27.053,vts_reward_expectancy_bt,2022.2.4,MacIntel,60.0024001,Chrome,1440,900,,,,,0,540,,,,,,,,,,,,,,,,,S,125,circle,1,0,,,,,,,,,,,,,,,,switch,letter,lettSwt,f,1.8089,noRew,,,,,,0,0,0,0,0,1,,,,,,,,,,,,,,,,,
298297,2022-11-30_24h13.27.053,vts_reward_expectancy_bt,2022.2.4,MacIntel,60.0024001,Chrome,1440,900,,,,,0,540,,,,,,,,,,,,,,,,,Y,160,star,1,0,,,,,,,,,,,,,,,,switch,number,numSwt,k,0.5292,noRew,,,,,,0,1,0,1,0,1,,,,,,,,,,,,,,,,,
298297,2022-11-30_24h13.27.053,vts_reward_expectancy_bt,2022.2.4,MacIntel,60.0024001,Chrome,1440,900,,,,,0,540,,,,,,,,,,,,,,,,,H,146,circle,1,0,,,,,,,,,,,,,,,,switch,letter,lettSwt,d,0.8683,noRew,,,,,,0,2,0,2,0,1,,,,,,,,,,,,,,,,,
298297,2022-11-30_24h13.27.053,vts_reward_expectancy_bt,2022.2.4,MacIntel,60.0024001,Chrome,1440,900,,,,,0,540,,,,,,,,,,,,,,,,,B,181,star,1,0,,,,,,,,,,,,,,,,switch,number,numSwt,k,0.6965,noRew,,,,,,0,3,0,3,0,1,,,,,,,,,,,,,,,,,
298297,2022-11-30_24h13.27.053,vts_reward_expectancy_bt,2022.2.4,MacIntel,60.0024001,Chrome,1440,900,,,,,0,540,,,,,,,,,,,,,,,,,S,125,triangle,1,0,,,,,,,,,,,,,,,,switch,letter,lettSwt,f,1.6467,noRew,,,,,,0,4,0,4,0,1,,,,,,,,,,,,,,,,,
298297,2022-11-30_24h13.27.053,vts_reward_expectancy_bt,2022.2.4,MacIntel,60.0024001,Chrome,1440,900,,,,,0,540,,,,,,,,,,,,,,,,,Y,160,star,-1,0,,,,,,,,,,,,,,,,switch,no_choice,NA,,,noRew,,,,,,0,5,0,5,0,1,,,,,,,,,,,,,,,,,
298297,2022-11-30_24h13.27.053,vts_reward_expectancy_bt,2022.2.4,MacIntel,60.0024001,Chrome,1440,900,,,,,0,540,,,,,,,,,,,,,,,,,H,146,circle,1,0,,,,,,,,,,,,,,,,switch,letter,lettSwt,d,0.9823,noRew,,,,,,0,6,0,6,0,1,,,,,,,,,,,,,,,,,
298297,2022-11-30_24h13.27.053,vts_reward_expectancy_bt,2022.2.4,MacIntel,60.0024001,Chrome,1440,900,,,,,0,540,,,,,,,,,,,,,,,,,B,181,star,1,0,,,,,,,,,,,,,,,,switch,number,numSwt,k,0.5628,noRew,,,,,,0,7,0,7,0,1,,,,,,,,,,,,,,,,,
298297,2022-11-30_24h13.27.053,vts_reward_expectancy_bt,2022.2.4,MacIntel,60.0024001,Chrome,1440,900,,,,,0,540,,,,,,,,,,,,,,,,,B,139,hexagon,1,0,,,,,,,,,,,,,,,,switch,letter,lettSwt,d,0.7174,noRew,,,,,,0,8,0,8,0,1,,,,,,,,,,,,,,,,,
298297,2022-11-30_24h13.27.053,vts_reward_expectancy_bt,2022.2.4,MacIntel,60.0024001,Chrome,1440,900,,,,,0,540,,,,,,,,,,,,,,,,,H,125,triangle,1,0,,,,,,,,,,,,,,,,switch,number,numSwt,j,1.1787,noRew,,,,,,0,9,0,9,0,1,,,,,,,,,,,,,,,,,
298297,2022-11-30_24h13.27.053,vts_reward_expectancy_bt,2022.2.4,MacIntel,60.0024001,Chrome,1440,900,,,,,0,540,,,,,,,,,,,,,,,,,U,160,hexagon,1,0,,,,,,,,,,,,,,,,switch,letter,lettSwt,f,0.627,noRew,,,,,,0,10,0,10,0,1,,,,,,,,,,,,,,,,,
298297,2022-11-30_24h13.27.053,vts_reward_expectancy_bt,2022.2.4,MacIntel,60.0024001,Chrome,1440,900,,,,,0,540,,,,,,,,,,,,,,,,,Y,167,triangle,1,0,,,,,,,,,,,,,,,,switch,number,numSwt,k,1.0943,noRew,,,,,,0,11,0,11,0,1,,,,,,,,,,,,,,,,,
298297,2022-11-30_24h13.27.053,vts_reward_expectancy_bt,2022.2.4,MacIntel,60.0024001,Chrome,1440,900,,,,,0,540,,,,,,,,,,,,,,,,,S,146,circle,1,0,,,,,,,,,,,,,,,,switch,letter,lettSwt,f,1.5289,noRew,,,,,,0,12,0,12,0,1,,,,,,,,,,,,,,,,,
298297,2022-11-30_24h13.27.053,vts_reward_expectancy_bt,2022.2.4,MacIntel,60.0024001,Chrome,1440,900,,,,,0,540,,,,,,,,,,,,,,,,,D,181,hexagon,1,0,,,,,,,,,,,,,,,,switch,number,numSwt,k,0.5715,noRew,,,,,,0,13,0,13,0,1,,,,,,,,,,,,,,,,,
298297,2022-11-30_24h13.27.053,vts_reward_expectancy_bt,2022.2.4,MacIntel,60.0024001,Chrome,1440,900,,,,,0,540,,,,,,,,,,,,,,,,,B,167,hexagon,1,0,,,,,,,,,,,,,,,,switch,letter,lettSwt,d,0.7962,noRew,,,,,,0,14,0,14,0,1,,,,,,,,,,,,,,,,,
298297,2022-11-30_24h13.27.053,vts_reward_expectancy_bt,2022.2.4,MacIntel,60.0024001,Chrome,1440,900,,,,,0,540,,,,,,,,,,,,,,,,,H,174,triangle,1,0,,,,,,,,,,,,,,,,switch,number,numSwt,k,0.5199,noRew,,,,,,0,15,0,15,0,1,,,,,,,,,,,,,,,,,
298297,2022-11-30_24h13.27.053,vts_reward_expectancy_bt,2022.2.4,MacIntel,60.0024001,Chrome,1440,900,,,,,0,540,,,,,,,,,,,,,,,,,Y,132,star,1,0,,,,,,,,,,,,,,,,switch,letter,lettSwt,f,0.9302,noRew,,,,,,0,16,0,16,0,1,,,,,,,,,,,,,,,,,
298297,2022-11-30_24h13.27.053,vts_reward_expectancy_bt,2022.2.4,MacIntel,60.0024001,Chrome,1440,900,,,,,0,540,,,,,,,,,,,,,,,,,B,160,triangle,1,0,,,,,,,,,,,,,,,,switch,number,numSwt,k,0.5782,noRew,,,,,,0,17,0,17,0,1,,,,,,,,,,,,,,,,,
298297,2022-11-30_24h13.27.053,vts_reward_expectancy_bt,2022.2.4,MacIntel,60.0024001,Chrome,1440,900,,,,,0,540,,,,,,,,,,,,,,,,,S,181,hexagon,1,0,,,,,,,,,,,,,,,,switch,letter,lettSwt,f,0.6948,noRew,,,,,,0,18,0,18,0,1,,,,,,,,,,,,,,,,,
298297,2022-11-30_24h13.27.053,vts_reward_expectancy_bt,2022.2.4,MacIntel,60.0024001,Chrome,1440,900,,,,,0,540,,,,,,,,,,,,,,,,,F,139,triangle,1,0,,,,,,,,,,,,,,,,switch,number,numSwt,j,0.7132,noRew,,,,,,0,19,0,19,0,1,,,,,,,,,,,,,,,,,
298297,2022-11-30_24h13.27.053,vts_reward_expectancy_bt,2022.2.4,MacIntel,60.0024001,Chrome,1440,900,,,,,0,540,,,,,,,,,,,,,,,,,H,125,circle,1,0,,,,,,,,,,,,,,,,switch,letter,lettSwt,d,0.8293,noRew,,,,,,0,20,0,20,0,1,,,,,,,,,,,,,,,,,
298297,2022-11-30_24h13.27.053,vts_reward_expectancy_bt,2022.2.4,MacIntel,60.0024001,Chrome,1440,900,,,,,0,540,,,,,,,,,,,,,,,,,Y,139,star,1,0,,,,,,,,,,,,,,,,switch,number,numSwt,j,0.8835,noRew,,,,,,0,21,0,21,0,1,,,,,,,,,,,,,,,,,
298297,2022-11-30_24h13.27.053,vts_reward_expectancy_bt,2022.2.4,MacIntel,60.0024001,Chrome,1440,900,,,,,0,540,,,,,,,,,,,,,,,,,B,146,triangle,1,0,,,,,,,,,,,,,,,,switch,letter,lettSwt,d,0.7822,noRew,,,,,,0,22,0,22,0,1,,,,,,,,,,,,,,,,,
298297,2022-11-30_24h13.27.053,vts_reward_expectancy_bt,2022.2.4,MacIntel,60.0024001,Chrome,1440,900,,,,,0,540,,,,,,,,,,,,,,,,,S,160,hexagon,1,0,,,,,,,,,,,,,,,,switch,number,numSwt,k,0.5953,noRew,,,,,,0,23,0,23,0,1,,,,,,,,,,,,,,,,,
298297,2022-11-30_24h13.27.053,vts_reward_expectancy_bt,2022.2.4,MacIntel,60.0024001,Chrome,1440,900,,,,,0,540,,,,,,,,,,,,,,,,,H,125,triangle,1,0,,,,,,,,,,,,,,,,switch,letter,lettSwt,d,1.8537,noRew,,,,,,0,24,0,24,0,1,,,,,,,,,,,,,,,,,
298297,2022-11-30_24h13.27.053,vts_reward_expectancy_bt,2022.2.4,MacIntel,60.0024001,Chrome,1440,900,,,,,0,540,,,,,,,,,,,,,,,,,S,132,hexagon,1,0,,,,,,,,,,,,,,,,switch,number,numSwt,j,0.4863,noRew,,,,,,0,25,0,25,0,1,,,,,,,,,,,,,,,,,
298297,2022-11-30_24h13.27.053,vts_reward_expectancy_bt,2022.2.4,MacIntel,60.0024001,Chrome,1440,900,,,,,0,540,,,,,,,,,,,,,,,,,Y,174,triangle,1,0,,,,,,,,,,,,,,,,switch,letter,lettSwt,f,0.6276,noRew,,,,,,0,26,0,26,0,1,,,,,,,,,,,,,,,,,
298297,2022-11-30_24h13.27.053,vts_reward_expectancy_bt,2022.2.4,MacIntel,60.0024001,Chrome,1440,900,,,,,0,540,,,,,,,,,,,,,,,,,F,139,hexagon,1,0,,,,,,,,,,,,,,,,switch,number,numSwt,j,0.9703,noRew,,,,,,0,27,0,27,0,1,,,,,,,,,,,,,,,,,
298297,2022-11-30_24h13.27.053,vts_reward_expectancy_bt,2022.2.4,MacIntel,60.0024001,Chrome,1440,900,,,,,0,540,,,,,,,,,,,,,,,,,U,174,triangle,1,0,,,,,,,,,,,,,,,,switch,letter,lettSwt,f,1.5192,noRew,,,,,,0,28,0,28,0,1,,,,,,,,,,,,,,,,,
298297,2022-11-30_24h13.27.053,vts_reward_expectancy_bt,2022.2.4,MacIntel,60.0024001,Chrome,1440,900,,,,,0,540,,,,,,,,,,,,,,,,,B,139,star,1,0,,,,,,,,,,,,,,,,switch,number,numSwt,j,0.9051,noRew,,,,,,0,29,0,29,0,1,,,,,,,,,,,,,,,,,
298297,2022-11-30_24h13.27.053,vts_reward_expectancy_bt,2022.2.4,MacIntel,60.0024001,Chrome,1440,900,,,,,0,540,,,,,,,,,,,,,,,,,D,146,triangle,1,0,,,,,,,,,,,,,,,,switch,letter,lettSwt,d,1.1129,noRew,,,,,,0,30,0,30,0,1,,,,,,,,,,,,,,,,,
298297,2022-11-30_24h13.27.053,vts_reward_expectancy_bt,2022.2.4,MacIntel,60.0024001,Chrome,1440,900,,,,,0,540,,,,,,,,,,,,,,,,,H,167,circle,1,0,,,,,,,,,,,,,,,,switch,number,numSwt,k,0.7649,noRew,,,,,,0,31,0,31,0,1,,,,,,,,,,,,,,,,,
298297,2022-11-30_24h13.27.053,vts_reward_expectancy_bt,2022.2.4,MacIntel,60.0024001,Chrome,1440,900,,,,,0,540,,,,,,,,,,,,,,,,,U,139,triangle,1,0,,,,,,,,,,,,,,,,switch,letter,lettSwt,f,0.7432,noRew,,,,,,0,32,0,32,0,1,,,,,,,,,,,,,,,,,
298297,2022-11-30_24h13.27.053,vts_reward_expectancy_bt,2022.2.4,MacIntel,60.0024001,Chrome,1440,900,,,,,0,540,,,,,,,,,,,,,,,,,W,160,star,1,0,,,,,,,,,,,,,,,,switch,number,numSwt,k,0.6144,noRew,,,,,,0,33,0,33,0,1,,,,,,,,,,,,,,,,,
298297,2022-11-30_24h13.27.053,vts_reward_expectancy_bt,2022.2.4,MacIntel,60.0024001,Chrome,1440,900,,,,,0,540,,,,,,,,,,,,,,,,,F,146,hexagon,1,0,,,,,,,,,,,,,,,,switch,letter,lettSwt,d,0.6544,noRew,,,,,,0,34,0,34,0,1,,,,,,,,,,,,,,,,,
298297,2022-11-30_24h13.27.053,vts_reward_expectancy_bt,2022.2.4,MacIntel,60.0024001,Chrome,1440,900,,,,,0,540,,,,,,,,,,,,,,,,,B,167,circle,1,0,,,,,,,,,,,,,,,,switch,number,numSwt,k,1.8086,noRew,,,,,,0,35,0,35,0,1,,,,,,,,,,,,,,,,,
298297,2022-11-30_24h13.27.053,vts_reward_expectancy_bt,2022.2.4,MacIntel,60.0024001,Chrome,1440,900,,,,,0,540,,,,,,,,,,,,,,,,,D,160,circle,1,0,,,,,,,,,,,,,,,,switch,letter,lettSwt,d,0.5702,noRew,,,,,,0,36,0,36,0,1,,,,,,,,,,,,,,,,,
298297,2022-11-30_24h13.27.053,vts_reward_expectancy_bt,2022.2.4,MacIntel,60.0024001,Chrome,1440,900,,,,,0,540,,,,,,,,,,,,,,,,,U,167,hexagon,1,0,,,,,,,,,,,,,,,,switch,number,numSwt,k,0.569,noRew,,,,,,0,37,0,37,0,1,,,,,,,,,,,,,,,,,
298297,2022-11-30_24h13.27.053,vts_reward_expectancy_bt,2022.2.4,MacIntel,60.0024001,Chrome,1440,900,,,,,0,540,,,,,,,,,,,,,,,,,B,139,star,1,0,,,,,,,,,,,,,,,,switch,letter,lettSwt,d,0.5124,noRew,,,,,,0,38,0,38,0,1,,,,,,,,,,,,,,,,,
298297,2022-11-30_24h13.27.053,vts_reward_expectancy_bt,2022.2.4,MacIntel,60.0024001,Chrome,1440,900,,,,,0,540,,,,,,,,,,,,,,,,,H,181,triangle,1,0,,,,,,,,,,,,,,,,switch,number,numSwt,k,0.7014,noRew,,,,,,0,39,0,39,0,1,,,,,,,,,,,,,,,,,
298297,2022-11-30_24h13.27.053,vts_reward_expectancy_bt,2022.2.4,MacIntel,60.0024001,Chrome,1440,900,,,,,0,540,,,,,,,,,,,,,,,,,F,139,hexagon,1,0,,,,,,,,,,,,,,,,switch,letter,lettSwt,d,1.6967,noRew,,,,,,0,40,0,40,0,1,,,,,,,,,,,,,,,,,
298297,2022-11-30_24h13.27.053,vts_reward_expectancy_bt,2022.2.4,MacIntel,60.0024001,Chrome,1440,900,,,,,0,540,,,,,,,,,,,,,,,,,H,132,triangle,1,0,,,,,,,,,,,,,,,,switch,number,numSwt,j,0.9852,noRew,,,,,,0,41,0,41,0,1,,,,,,,,,,,,,,,,,
298297,2022-11-30_24h13.27.053,vts_reward_expectancy_bt,2022.2.4,MacIntel,60.0024001,Chrome,1440,900,,,,,0,540,,,,,,,,,,,,,,,,,D,174,triangle,1,0,,,,,,,,,,,,,,,,switch,letter,lettSwt,d,0.8119,noRew,,,,,,0,42,0,42,0,1,,,,,,,,,,,,,,,,,
298297,2022-11-30_24h13.27.053,vts_reward_expectancy_bt,2022.2.4,MacIntel,60.0024001,Chrome,1440,900,,,,,0,540,,,,,,,,,,,,,,,,,S,181,hexagon,1,0,,,,,,,,,,,,,,,,switch,number,numSwt,k,0.7443,noRew,,,,,,0,43,0,43,0,1,,,,,,,,,,,,,,,,,
298297,2022-11-30_24h13.27.053,vts_reward_expectancy_bt,2022.2.4,MacIntel,60.0024001,Chrome,1440,900,,,,,0,540,,,,,,,,,,,,,,,,,B,125,hexagon,1,0,,,,,,,,,,,,,,,,switch,letter,lettSwt,d,0.6721,noRew,,,,,,0,44,0,44,0,1,,,,,,,,,,,,,,,,,
298297,2022-11-30_24h13.27.053,vts_reward_expectancy_bt,2022.2.4,MacIntel,60.0024001,Chrome,1440,900,,,,,0,540,,,,,,,,,,,,,,,,,Y,160,triangle,1,0,,,,,,,,,,,,,,,,switch,number,numSwt,k,2.0553,noRew,,,,,,0,45,0,45,0,1,,,,,,,,,,,,,,,,,
298297,2022-11-30_24h13.27.053,vts_reward_expectancy_bt,2022.2.4,MacIntel,60.0024001,Chrome,1440,900,,,,,0,540,,,,,,,,,,,,,,,,,F,132,circle,1,0,,,,,,,,,,,,,,,,switch,letter,lettSwt,d,0.4685,noRew,,,,,,0,46,0,46,0,1,,,,,,,,,,,,,,,,,
298297,2022-11-30_24h13.27.053,vts_reward_expectancy_bt,2022.2.4,MacIntel,60.0024001,Chrome,1440,900,,,,,0,540,,,,,,,,,,,,,,,,,U,181,triangle,1,0,,,,,,,,,,,,,,,,switch,number,numSwt,k,1.6111,noRew,,,,,,0,47,0,47,0,1,,,,,,,,,,,,,,,,,
298297,2022-11-30_24h13.27.053,vts_reward_expectancy_bt,2022.2.4,MacIntel,60.0024001,Chrome,1440,900,,,,,0,540,,,,,,,,,,,,,,,,,H,125,hexagon,1,0,,,,,,,,,,,,,,,,switch,letter,lettSwt,d,0.6042,noRew,,,,,,0,48,0,48,0,1,,,,,,,,,,,,,,,,,
298297,2022-11-30_24h13.27.053,vts_reward_expectancy_bt,2022.2.4,MacIntel,60.0024001,Chrome,1440,900,,,,,0,540,,,,,,,,,,,,,,,,,Y,181,circle,1,0,,,,,,,,,,,,,,,,switch,number,numSwt,k,0.6503,noRew,,,,,,0,49,0,49,0,1,,,,,,,,,,,,,,,,,
298297,2022-11-30_24h13.27.053,vts_reward_expectancy_bt,2022.2.4,MacIntel,60.0024001,Chrome,1440,900,,,,,0,540,,,,,,,,,,,,,,,,,U,139,triangle,1,0,,,,,,,,,,,,,,,,switch,letter,lettSwt,f,0.7323,noRew,,,,,,0,50,0,50,0,1,,,,,,,,,,,,,,,,,
298297,2022-11-30_24h13.27.053,vts_reward_expectancy_bt,2022.2.4,MacIntel,60.0024001,Chrome,1440,900,,,,,0,540,,,,,,,,,,,,,,,,,B,160,hexagon,1,0,,,,,,,,,,,,,,,,switch,number,numSwt,k,1.0803,noRew,,,,,,0,51,0,51,0,1,,,,,,,,,,,,,,,,,
298297,2022-11-30_24h13.27.053,vts_reward_expectancy_bt,2022.2.4,MacIntel,60.0024001,Chrome,1440,900,,,,,0,540,,,,,,,,,,,,,,,,,D,125,hexagon,1,0,,,,,,,,,,,,,,,,switch,letter,lettSwt,d,1.0224,noRew,,,,,,0,52,0,52,0,1,,,,,,,,,,,,,,,,,
298297,2022-11-30_24h13.27.053,vts_reward_expectancy_bt,2022.2.4,MacIntel,60.0024001,Chrome,1440,900,,,,,0,540,,,,,,,,,,,,,,,,,Y,174,triangle,1,0,,,,,,,,,,,,,,,,switch,number,numSwt,k,1.2348,noRew,,,,,,0,53,0,53,0,1,,,,,,,,,,,,,,,,,
298297,2022-11-30_24h13.27.053,vts_reward_expectancy_bt,2022.2.4,MacIntel,60.0024001,Chrome,1440,900,,,,,0,540,,,,,,,,,,,,,,,,,U,167,hexagon,-1,0,,,,,,,,,,,,,,,,switch,no_choice,NA,,,noRew,,,,,,0,54,0,54,0,1,,,,,,,,,,,,,,,,,
298297,2022-11-30_24h13.27.053,vts_reward_expectancy_bt,2022.2.4,MacIntel,60.0024001,Chrome,1440,900,,,,,0,540,,,,,,,,,,,,,,,,,W,181,triangle,1,0,,,,,,,,,,,,,,,,switch,number,numSwt,k,0.7488,noRew,,,,,,0,55,0,55,0,1,,,,,,,,,,,,,,,,,
298297,2022-11-30_24h13.27.053,vts_reward_expectancy_bt,2022.2.4,MacIntel,60.0024001,Chrome,1440,900,,,,,0,540,,,,,,,,,,,,,,,,,U,181,circle,1,0,,,,,,,,,,,,,,,,switch,letter,lettSwt,f,1.8059,noRew,,,,,,0,56,0,56,0,1,,,,,,,,,,,,,,,,,
298297,2022-11-30_24h13.27.053,vts_reward_expectancy_bt,2022.2.4,MacIntel,60.0024001,Chrome,1440,900,,,,,0,540,,,,,,,,,,,,,,,,,F,146,triangle,0,0,,,,,,,,,,,,,,,,switch,number,NA,k,1.8948,noRew,,,,,,0,57,0,57,0,1,,,,,,,,,,,,,,,,,
298297,2022-11-30_24h13.27.053,vts_reward_expectancy_bt,2022.2.4,MacIntel,60.0024001,Chrome,1440,900,,,,,0,540,,,,,,,,,,,,,,,,,Y,167,circle,1,1,,,,,,,,,,,,,,,,switch,letter,lettSwt,f,0.8265,noRew,,,,,,0,58,0,58,0,1,,,,,,,,,,,,,,,,,
298297,2022-11-30_24h13.27.053,vts_reward_expectancy_bt,2022.2.4,MacIntel,60.0024001,Chrome,1440,900,,,,,0,540,,,,,,,,,,,,,,,,,S,132,hexagon,0,0,,,,,,,,,,,,,,,,switch,number,NA,k,0.9202,noRew,,,,,,0,59,0,59,0,1,,,,,,,,,,,,,,,,,
298297,2022-11-30_24h13.27.053,vts_reward_expectancy_bt,2022.2.4,MacIntel,60.0024001,Chrome,1440,900,,,,,0,540,,,,,,,,,,,,,,,,,Y,160,circle,1,1,,,,,,,,,,,,,,,,switch,letter,lettSwt,f,1.1283,noRew,,,,,,0,60,0,60,0,1,,,,,,,,,,,,,,,,,
298297,2022-11-30_24h13.27.053,vts_reward_expectancy_bt,2022.2.4,MacIntel,60.0024001,Chrome,1440,900,,,,,0,540,,,,,,,,,,,,,,,,,B,146,star,1,0,,,,,,,,,,,,,,,,switch,number,numSwt,j,1.1323,noRew,,,,,,0,61,0,61,0,1,,,,,,,,,,,,,,,,,
298297,2022-11-30_24h13.27.053,vts_reward_expectancy_bt,2022.2.4,MacIntel,60.0024001,Chrome,1440,900,,,,,0,540,,,,,,,,,,,,,,,,,S,139,hexagon,1,0,,,,,,,,,,,,,,,,switch,letter,lettSwt,f,1.4976,noRew,,,,,,0,62,0,62,0,1,,,,,,,,,,,,,,,,,
298297,2022-11-30_24h13.27.053,vts_reward_expectancy_bt,2022.2.4,MacIntel,60.0024001,Chrome,1440,900,,,,,0,540,,,,,,,,,,,,,,,,,W,132,circle,1,0,,,,,,,,,,,,,,,,switch,number,numSwt,j,1.2449,noRew,,,,,,0,63,0,63,0,1,,,,,,,,,,,,,,,,,
298297,2022-11-30_24h13.27.053,vts_reward_expectancy_bt,2022.2.4,MacIntel,60.0024001,Chrome,1440,900,,,,,,,,,,,,,,,,,,,,,,,,,,,,,,,,,,,,,,,,,,,,,,,,,,,,,,,,,,,,,,,,,,,,,,,,,,,,
298297,2022-11-30_24h13.27.053,vts_reward_expectancy_bt,2022.2.4,MacIntel,60.0024001,Chrome,1440,900,,,,,0,540,,,,,,,,,,,,,,,,,W,181,triangle,1,0,,,,,,,,,,,,,,,,switch,letter,lettSwt,f,0.7336,Hi,,,,,,0,,,,,,space,6.0091,high,0,0,0,0,1,,,,,,,,,
298297,2022-11-30_24h13.27.053,vts_reward_expectancy_bt,2022.2.4,MacIntel,60.0024001,Chrome,1440,900,,,,,10,550,,,,,,,,,,,,,,,,,B,139,hexagon,1,0,,,,,,,,,,,,,,,,switch,number,numSwt,j,0.5131,Hi,,,,,,0,,,,,,,,high,1,0,1,0,1,,,,,,,,,
298297,2022-11-30_24h13.27.053,vts_reward_expectancy_bt,2022.2.4,MacIntel,60.0024001,Chrome,1440,900,,,,,10,560,,,,,,,,,,,,,,,,,S,146,circle,1,0,,,,,,,,,,,,,,,,switch,letter,lettSwt,f,0.5633,Lo,,,,,,0,,,,,,,,high,2,0,2,0,1,,,,,,,,,
298297,2022-11-30_24h13.27.053,vts_reward_expectancy_bt,2022.2.4,MacIntel,60.0024001,Chrome,1440,900,,,,,1,561,,,,,,,,,,,,,,,,,U,160,star,1,0,,,,,,,,,,,,,,,,switch,number,numSwt,k,0.4798,Lo,,,,,,0,,,,,,,,high,3,0,3,0,1,,,,,,,,,
298297,2022-11-30_24h13.27.053,vts_reward_expectancy_bt,2022.2.4,MacIntel,60.0024001,Chrome,1440,900,,,,,0,561,,,,,,,,,,,,,,,,,H,132,triangle,0,0,,,,,,,,,,,,,,,,switch,letter,NA,f,0.4774,Lo,,,,,,0,,,,,,,,high,4,0,4,0,1,,,,,,,,,
298297,2022-11-30_24h13.27.053,vts_reward_expectancy_bt,2022.2.4,MacIntel,60.0024001,Chrome,1440,900,,,,,10,571,,,,,,,,,,,,,,,,,Y,174,hexagon,1,1,,,,,,,,,,,,,,,,repeat,letter,lettRpt,f,0.5956,Hi,,,,,,0,,,,,,,,high,5,0,5,0,1,,,,,,,,,
298297,2022-11-30_24h13.27.053,vts_reward_expectancy_bt,2022.2.4,MacIntel,60.0024001,Chrome,1440,900,,,,,1,572,,,,,,,,,,,,,,,,,D,125,circle,1,0,,,,,,,,,,,,,,,,switch,number,numSwt,j,0.5312,Lo,,,,,,0,,,,,,,,high,6,0,6,0,1,,,,,,,,,
298297,2022-11-30_24h13.27.053,vts_reward_expectancy_bt,2022.2.4,MacIntel,60.0024001,Chrome,1440,900,,,,,1,573,,,,,,,,,,,,,,,,,F,167,star,1,0,,,,,,,,,,,,,,,,switch,letter,lettSwt,d,0.3879,Lo,,,,,,0,,,,,,,,high,7,0,7,0,1,,,,,,,,,
298297,2022-11-30_24h13.27.053,vts_reward_expectancy_bt,2022.2.4,MacIntel,60.0024001,Chrome,1440,900,,,,,1,574,,,,,,,,,,,,,,,,,W,181,star,1,0,,,,,,,,,,,,,,,,switch,number,numSwt,k,0.4375,Lo,,,,,,0,,,,,,,,high,8,0,8,0,1,,,,,,,,,
298297,2022-11-30_24h13.27.053,vts_reward_expectancy_bt,2022.2.4,MacIntel,60.0024001,Chrome,1440,900,,,,,0,574,,,,,,,,,,,,,,,,,B,139,triangle,0,0,,,,,,,,,,,,,,,,switch,letter,NA,f,0.4038,Lo,,,,,,0,,,,,,,,high,9,0,9,0,1,,,,,,,,,
298297,2022-11-30_24h13.27.053,vts_reward_expectancy_bt,2022.2.4,MacIntel,60.0024001,Chrome,1440,900,,,,,1,575,,,,,,,,,,,,,,,,,S,146,circle,1,1,,,,,,,,,,,,,,,,switch,number,numSwt,j,0.7164,Lo,,,,,,0,,,,,,,,high,10,0,10,0,1,,,,,,,,,
298297,2022-11-30_24h13.27.053,vts_reward_expectancy_bt,2022.2.4,MacIntel,60.0024001,Chrome,1440,900,,,,,10,585,,,,,,,,,,,,,,,,,U,160,hexagon,1,0,,,,,,,,,,,,,,,,switch,letter,lettSwt,f,0.6159,Hi,,,,,,0,,,,,,,,high,11,0,11,0,1,,,,,,,,,
298297,2022-11-30_24h13.27.053,vts_reward_expectancy_bt,2022.2.4,MacIntel,60.0024001,Chrome,1440,900,,,,,0,585,,,,,,,,,,,,,,,,,H,132,hexagon,1,0,,,,,,,,,,,,,,,,switch,number,numSwt,j,0.8131,Hi,,,,,,0,,,,,,,,high,12,0,12,0,1,,,,,,,,,
298297,2022-11-30_24h13.27.053,vts_reward_expectancy_bt,2022.2.4,MacIntel,60.0024001,Chrome,1440,900,,,,,1,586,,,,,,,,,,,,,,,,,Y,174,circle,1,0,,,,,,,,,,,,,,,,switch,letter,lettSwt,f,0.4801,Lo,,,,,,0,,,,,,,,high,13,0,13,0,1,,,,,,,,,
298297,2022-11-30_24h13.27.053,vts_reward_expectancy_bt,2022.2.4,MacIntel,60.0024001,Chrome,1440,900,,,,,1,587,,,,,,,,,,,,,,,,,D,125,star,1,0,,,,,,,,,,,,,,,,switch,number,numSwt,j,0.3986,Lo,,,,,,0,,,,,,,,high,14,0,14,0,1,,,,,,,,,
298297,2022-11-30_24h13.27.053,vts_reward_expectancy_bt,2022.2.4,MacIntel,60.0024001,Chrome,1440,900,,,,,1,588,,,,,,,,,,,,,,,,,F,167,triangle,1,0,,,,,,,,,,,,,,,,switch,letter,lettSwt,d,0.5447,Hi,,,,,,0,,,,,,,,high,15,0,15,0,1,,,,,,,,,
298297,2022-11-30_24h13.27.053,vts_reward_expectancy_bt,2022.2.4,MacIntel,60.0024001,Chrome,1440,900,,,,,1,589,,,,,,,,,,,,,,,,,B,167,star,1,0,,,,,,,,,,,,,,,,switch,number,numSwt,k,0.8223,Lo,,,,,,0,,,,,,,,high,16,0,16,0,1,,,,,,,,,
298297,2022-11-30_24h13.27.053,vts_reward_expectancy_bt,2022.2.4,MacIntel,60.0024001,Chrome,1440,900,,,,,1,590,,,,,,,,,,,,,,,,,W,160,circle,1,0,,,,,,,,,,,,,,,,switch,letter,lettSwt,f,0.6644,Lo,,,,,,0,,,,,,,,high,17,0,17,0,1,,,,,,,,,
298297,2022-11-30_24h13.27.053,vts_reward_expectancy_bt,2022.2.4,MacIntel,60.0024001,Chrome,1440,900,,,,,0,590,,,,,,,,,,,,,,,,,F,146,hexagon,1,0,,,,,,,,,,,,,,,,switch,number,numSwt,j,0.6719,Hi,,,,,,0,,,,,,,,high,18,0,18,0,1,,,,,,,,,
298297,2022-11-30_24h13.27.053,vts_reward_expectancy_bt,2022.2.4,MacIntel,60.0024001,Chrome,1440,900,,,,,0,590,,,,,,,,,,,,,,,,,U,181,triangle,0,0,,,,,,,,,,,,,,,,switch,letter,NA,d,0.7681,Hi,,,,,,0,,,,,,,,high,19,0,19,0,1,,,,,,,,,
298297,2022-11-30_24h13.27.053,vts_reward_expectancy_bt,2022.2.4,MacIntel,60.0024001,Chrome,1440,900,,,,,0,590,,,,,,,,,,,,,,,,,H,132,hexagon,1,1,,,,,,,,,,,,,,,,switch,number,numSwt,j,0.8141,Hi,,,,,,0,,,,,,,,high,20,0,20,0,1,,,,,,,,,
298297,2022-11-30_24h13.27.053,vts_reward_expectancy_bt,2022.2.4,MacIntel,60.0024001,Chrome,1440,900,,,,,0,590,,,,,,,,,,,,,,,,,S,139,star,0,0,,,,,,,,,,,,,,,,switch,letter,NA,d,0.5363,Hi,,,,,,0,,,,,,,,high,21,0,21,0,1,,,,,,,,,
298297,2022-11-30_24h13.27.053,vts_reward_expectancy_bt,2022.2.4,MacIntel,60.0024001,Chrome,1440,900,,,,,1,591,,,,,,,,,,,,,,,,,Y,125,circle,1,1,,,,,,,,,,,,,,,,switch,number,numSwt,j,0.5211,Lo,,,,,,0,,,,,,,,high,22,0,22,0,1,,,,,,,,,
298297,2022-11-30_24h13.27.053,vts_reward_expectancy_bt,2022.2.4,MacIntel,60.0024001,Chrome,1440,900,,,,,10,601,,,,,,,,,,,,,,,,,D,174,triangle,1,0,,,,,,,,,,,,,,,,switch,letter,lettSwt,d,0.5781,Hi,,,,,,0,,,,,,,,high,23,0,23,0,1,,,,,,,,,
298297,2022-11-30_24h13.27.053,vts_reward_expectancy_bt,2022.2.4,MacIntel,60.0024001,Chrome,1440,900,,,,,10,611,,,,,,,,,,,,,,,,,Y,132,star,1,0,,,,,,,,,,,,,,,,switch,number,numSwt,j,0.4423,Lo,,,,,,0,,,,,,,,high,24,0,24,0,1,,,,,,,,,
298297,2022-11-30_24h13.27.053,vts_reward_expectancy_bt,2022.2.4,MacIntel,60.0024001,Chrome,1440,900,,,,,1,612,,,,,,,,,,,,,,,,,U,125,circle,1,0,,,,,,,,,,,,,,,,switch,letter,lettSwt,f,1.1637,Lo,,,,,,0,,,,,,,,high,25,0,25,0,1,,,,,,,,,
298297,2022-11-30_24h13.27.053,vts_reward_expectancy_bt,2022.2.4,MacIntel,60.0024001,Chrome,1440,900,,,,,10,622,,,,,,,,,,,,,,,,,D,174,triangle,1,0,,,,,,,,,,,,,,,,switch,number,numSwt,k,0.5451,Hi,,,,,,0,,,,,,,,high,26,0,26,0,1,,,,,,,,,
298297,2022-11-30_24h13.27.053,vts_reward_expectancy_bt,2022.2.4,MacIntel,60.0024001,Chrome,1440,900,,,,,10,632,,,,,,,,,,,,,,,,,W,146,hexagon,1,0,,,,,,,,,,,,,,,,switch,letter,lettSwt,f,0.5305,Hi,,,,,,0,,,,,,,,high,27,0,27,0,1,,,,,,,,,
298297,2022-11-30_24h13.27.053,vts_reward_expectancy_bt,2022.2.4,MacIntel,60.0024001,Chrome,1440,900,,,,,0,632,,,,,,,,,,,,,,,,,B,167,star,0,0,,,,,,,,,,,,,,,,switch,number,NA,j,1.4326,Hi,,,,,,0,,,,,,,,high,28,0,28,0,1,,,,,,,,,
298297,2022-11-30_24h13.27.053,vts_reward_expectancy_bt,2022.2.4,MacIntel,60.0024001,Chrome,1440,900,,,,,0,632,,,,,,,,,,,,,,,,,S,139,hexagon,0,1,,,,,,,,,,,,,,,,switch,letter,NA,d,0.8678,Hi,,,,,,0,,,,,,,,high,29,0,29,0,1,,,,,,,,,
298297,2022-11-30_24h13.27.053,vts_reward_expectancy_bt,2022.2.4,MacIntel,60.0024001,Chrome,1440,900,,,,,10,642,,,,,,,,,,,,,,,,,H,160,circle,1,1,,,,,,,,,,,,,,,,switch,number,numSwt,k,0.7511,Lo,,,,,,0,,,,,,,,high,30,0,30,0,1,,,,,,,,,
298297,2022-11-30_24h13.27.053,vts_reward_expectancy_bt,2022.2.4,MacIntel,60.0024001,Chrome,1440,900,,,,,0,642,,,,,,,,,,,,,,,,,F,181,triangle,1,0,,,,,,,,,,,,,,,,switch,letter,lettSwt,d,0.8482,Hi,,,,,,0,,,,,,,,high,31,0,31,0,1,,,,,,,,,
298297,2022-11-30_24h13.27.053,vts_reward_expectancy_bt,2022.2.4,MacIntel,60.0024001,Chrome,1440,900,,,,,0,642,,,,,,,,,,,,,,,,,D,174,triangle,1,0,,,,,,,,,,,,,,,,repeat,letter,lettRpt,d,1.1652,Hi,,,,,,1,,,,,,space,2.1228,high,0,0,0,0,1,,,,,,,,,
298297,2022-11-30_24h13.27.053,vts_reward_expectancy_bt,2022.2.4,MacIntel,60.0024001,Chrome,1440,900,,,,,10,652,,,,,,,,,,,,,,,,,Y,125,star,1,0,,,,,,,,,,,,,,,,switch,number,numSwt,j,0.621,Lo,,,,,,1,,,,,,,,high,1,0,1,0,1,,,,,,,,,
298297,2022-11-30_24h13.27.053,vts_reward_expectancy_bt,2022.2.4,MacIntel,60.0024001,Chrome,1440,900,,,,,10,662,,,,,,,,,,,,,,,,,H,132,hexagon,1,0,,,,,,,,,,,,,,,,switch,letter,lettSwt,d,0.4802,Hi,,,,,,1,,,,,,,,high,2,0,2,0,1,,,,,,,,,
298297,2022-11-30_24h13.27.053,vts_reward_expectancy_bt,2022.2.4,MacIntel,60.0024001,Chrome,1440,900,,,,,10,672,,,,,,,,,,,,,,,,,U,160,circle,1,0,,,,,,,,,,,,,,,,switch,number,numSwt,k,2.9274,Lo,,,,,,1,,,,,,,,high,3,0,3,0,1,,,,,,,,,
298297,2022-11-30_24h13.27.053,vts_reward_expectancy_bt,2022.2.4,MacIntel,60.0024001,Chrome,1440,900,,,,,0,672,,,,,,,,,,,,,,,,,S,181,triangle,0,0,,,,,,,,,,,,,,,,switch,letter,NA,d,1.2604,Lo,,,,,,1,,,,,,,,high,4,0,4,0,1,,,,,,,,,
298297,2022-11-30_24h13.27.053,vts_reward_expectancy_bt,2022.2.4,MacIntel,60.0024001,Chrome,1440,900,,,,,1,673,,,,,,,,,,,,,,,,,B,139,star,1,1,,,,,,,,,,,,,,,,switch,number,numSwt,j,1.2221,Lo,,,,,,1,,,,,,,,high,5,0,5,0,1,,,,,,,,,
298297,2022-11-30_24h13.27.053,vts_reward_expectancy_bt,2022.2.4,MacIntel,60.0024001,Chrome,1440,900,,,,,0,673,,,,,,,,,,,,,,,,,W,146,hexagon,1,0,,,,,,,,,,,,,,,,switch,letter,lettSwt,f,0.6114,Hi,,,,,,1,,,,,,,,high,6,0,6,0,1,,,,,,,,,
298297,2022-11-30_24h13.27.053,vts_reward_expectancy_bt,2022.2.4,MacIntel,60.0024001,Chrome,1440,900,,,,,0,673,,,,,,,,,,,,,,,,,F,167,circle,-1,0,,,,,,,,,,,,,,,,switch,no_choice,NA,,,Hi,,,,,,1,,,,,,,,high,7,0,7,0,1,,,,,,,,,
298297,2022-11-30_24h13.27.053,vts_reward_expectancy_bt,2022.2.4,MacIntel,60.0024001,Chrome,1440,900,,,,,0,673,,,,,,,,,,,,,,,,,D,174,triangle,1,0,,,,,,,,,,,,,,,,switch,number,numSwt,k,0.7469,Hi,,,,,,1,,,,,,,,high,8,0,8,0,1,,,,,,,,,
298297,2022-11-30_24h13.27.053,vts_reward_expectancy_bt,2022.2.4,MacIntel,60.0024001,Chrome,1440,900,,,,,0,673,,,,,,,,,,,,,,,,,Y,125,circle,0,0,,,,,,,,,,,,,,,,switch,letter,NA,d,0.4826,Hi,,,,,,1,,,,,,,,high,9,0,9,0,1,,,,,,,,,
298297,2022-11-30_24h13.27.053,vts_reward_expectancy_bt,2022.2.4,MacIntel,60.0024001,Chrome,1440,900,,,,,0,673,,,,,,,,,,,,,,,,,H,132,hexagon,1,1,,,,,,,,,,,,,,,,switch,number,numSwt,j,0.7267,Hi,,,,,,1,,,,,,,,high,10,0,10,0,1,,,,,,,,,
298297,2022-11-30_24h13.27.053,vts_reward_expectancy_bt,2022.2.4,MacIntel,60.0024001,Chrome,1440,900,,,,,0,673,,,,,,,,,,,,,,,,,U,160,star,0,0,,,,,,,,,,,,,,,,switch,letter,NA,d,1.449,Hi,,,,,,1,,,,,,,,high,11,0,11,0,1,,,,,,,,,
298297,2022-11-30_24h13.27.053,vts_reward_expectancy_bt,2022.2.4,MacIntel,60.0024001,Chrome,1440,900,,,,,0,673,,,,,,,,,,,,,,,,,S,181,hexagon,1,1,,,,,,,,,,,,,,,,switch,number,numSwt,k,0.8883,Hi,,,,,,1,,,,,,,,high,12,0,12,0,1,,,,,,,,,
298297,2022-11-30_24h13.27.053,vts_reward_expectancy_bt,2022.2.4,MacIntel,60.0024001,Chrome,1440,900,,,,,0,673,,,,,,,,,,,,,,,,,B,139,triangle,1,0,,,,,,,,,,,,,,,,switch,letter,lettSwt,d,0.6158,Hi,,,,,,1,,,,,,,,high,13,0,13,0,1,,,,,,,,,
298297,2022-11-30_24h13.27.053,vts_reward_expectancy_bt,2022.2.4,MacIntel,60.0024001,Chrome,1440,900,,,,,0,673,,,,,,,,,,,,,,,,,W,146,star,0,0,,,,,,,,,,,,,,,,switch,number,NA,k,0.4132,Hi,,,,,,1,,,,,,,,high,14,0,14,0,1,,,,,,,,,
298297,2022-11-30_24h13.27.053,vts_reward_expectancy_bt,2022.2.4,MacIntel,60.0024001,Chrome,1440,900,,,,,0,673,,,,,,,,,,,,,,,,,F,167,circle,0,1,,,,,,,,,,,,,,,,repeat,number,NA,j,0.3961,Hi,,,,,,1,,,,,,,,high,15,0,15,0,1,,,,,,,,,
298297,2022-11-30_24h13.27.053,vts_reward_expectancy_bt,2022.2.4,MacIntel,60.0024001,Chrome,1440,900,,,,,0,673,,,,,,,,,,,,,,,,,S,181,triangle,0,1,,,,,,,,,,,,,,,,switch,letter,NA,d,0.2974,Hi,,,,,,1,,,,,,,,high,16,0,16,0,1,,,,,,,,,
298297,2022-11-30_24h13.27.053,vts_reward_expectancy_bt,2022.2.4,MacIntel,60.0024001,Chrome,1440,900,,,,,0,673,,,,,,,,,,,,,,,,,U,146,star,0,1,,,,,,,,,,,,,,,,repeat,letter,NA,d,0.5761,Hi,,,,,,1,,,,,,,,high,17,0,17,0,1,,,,,,,,,
298297,2022-11-30_24h13.27.053,vts_reward_expectancy_bt,2022.2.4,MacIntel,60.0024001,Chrome,1440,900,,,,,10,683,,,,,,,,,,,,,,,,,H,132,circle,1,1,,,,,,,,,,,,,,,,repeat,letter,lettRpt,d,0.3856,Lo,,,,,,1,,,,,,,,high,18,0,18,0,1,,,,,,,,,
298297,2022-11-30_24h13.27.053,vts_reward_expectancy_bt,2022.2.4,MacIntel,60.0024001,Chrome,1440,900,,,,,0,683,,,,,,,,,,,,,,,,,W,160,hexagon,0,0,,,,,,,,,,,,,,,,repeat,letter,NA,d,0.0426,Lo,,,,,,1,,,,,,,,high,19,0,19,0,1,,,,,,,,,
298297,2022-11-30_24h13.27.053,vts_reward_expectancy_bt,2022.2.4,MacIntel,60.0024001,Chrome,1440,900,,,,,0,683,,,,,,,,,,,,,,,,,B,167,star,0,1,,,,,,,,,,,,,,,,switch,number,NA,j,0.5622,Lo,,,,,,1,,,,,,,,high,20,0,20,0,1,,,,,,,,,
298297,2022-11-30_24h13.27.053,vts_reward_expectancy_bt,2022.2.4,MacIntel,60.0024001,Chrome,1440,900,,,,,10,693,,,,,,,,,,,,,,,,,Y,125,circle,1,1,,,,,,,,,,,,,,,,repeat,number,numRpt,j,0.1867,Lo,,,,,,1,,,,,,,,high,21,0,21,0,1,,,,,,,,,
298297,2022-11-30_24h13.27.053,vts_reward_expectancy_bt,2022.2.4,MacIntel,60.0024001,Chrome,1440,900,,,,,0,693,,,,,,,,,,,,,,,,,D,139,triangle,0,0,,,,,,,,,,,,,,,,repeat,number,NA,k,0.0289,Lo,,,,,,1,,,,,,,,high,22,0,22,0,1,,,,,,,,,
298297,2022-11-30_24h13.27.053,vts_reward_expectancy_bt,2022.2.4,MacIntel,60.0024001,Chrome,1440,900,,,,,10,703,,,,,,,,,,,,,,,,,F,174,hexagon,1,1,,,,,,,,,,,,,,,,switch,letter,lettSwt,d,0.1566,Hi,,,,,,1,,,,,,,,high,23,0,23,0,1,,,,,,,,,
298297,2022-11-30_24h13.27.053,vts_reward_expectancy_bt,2022.2.4,MacIntel,60.0024001,Chrome,1440,900,,,,,0,703,,,,,,,,,,,,,,,,,Y,146,circle,0,0,,,,,,,,,,,,,,,,switch,number,NA,k,0.0482,Hi,,,,,,1,,,,,,,,high,24,0,24,0,1,,,,,,,,,
298297,2022-11-30_24h13.27.053,vts_reward_expectancy_bt,2022.2.4,MacIntel,60.0024001,Chrome,1440,900,,,,,0,703,,,,,,,,,,,,,,,,,D,139,hexagon,0,1,,,,,,,,,,,,,,,,repeat,number,NA,k,0.1005,Hi,,,,,,1,,,,,,,,high,25,0,25,0,1,,,,,,,,,
298297,2022-11-30_24h13.27.053,vts_reward_expectancy_bt,2022.2.4,MacIntel,60.0024001,Chrome,1440,900,,,,,10,713,,,,,,,,,,,,,,,,,U,160,triangle,1,1,,,,,,,,,,,,,,,,repeat,number,numRpt,k,0.1888,Hi,,,,,,1,,,,,,,,high,26,0,26,0,1,,,,,,,,,
298297,2022-11-30_24h13.27.053,vts_reward_expectancy_bt,2022.2.4,MacIntel,60.0024001,Chrome,1440,900,,,,,0,713,,,,,,,,,,,,,,,,,F,125,star,0,0,,,,,,,,,,,,,,,,switch,letter,NA,f,0.0988,Hi,,,,,,1,,,,,,,,high,27,0,27,0,1,,,,,,,,,
298297,2022-11-30_24h13.27.053,vts_reward_expectancy_bt,2022.2.4,MacIntel,60.0024001,Chrome,1440,900,,,,,0,713,,,,,,,,,,,,,,,,,W,167,circle,0,1,,,,,,,,,,,,,,,,switch,number,NA,j,0.1429,Hi,,,,,,1,,,,,,,,high,28,0,28,0,1,,,,,,,,,
298297,2022-11-30_24h13.27.053,vts_reward_expectancy_bt,2022.2.4,MacIntel,60.0024001,Chrome,1440,900,,,,,0,713,,,,,,,,,,,,,,,,,B,132,star,0,1,,,,,,,,,,,,,,,,switch,letter,NA,f,0.1867,Hi,,,,,,1,,,,,,,,high,29,0,29,0,1,,,,,,,,,
298297,2022-11-30_24h13.27.053,vts_reward_expectancy_bt,2022.2.4,MacIntel,60.0024001,Chrome,1440,900,,,,,0,713,,,,,,,,,,,,,,,,,S,181,triangle,0,1,,,,,,,,,,,,,,,,switch,number,NA,j,0.1474,Hi,,,,,,1,,,,,,,,high,30,0,30,0,1,,,,,,,,,
298297,2022-11-30_24h13.27.053,vts_reward_expectancy_bt,2022.2.4,MacIntel,60.0024001,Chrome,1440,900,,,,,10,723,,,,,,,,,,,,,,,,,H,174,hexagon,1,1,,,,,,,,,,,,,,,,switch,letter,lettSwt,d,0.0644,Hi,,,,,,1,,,,,,,,high,31,0,31,0,1,,,,,,,,,
298297,2022-11-30_24h13.27.053,vts_reward_expectancy_bt,2022.2.4,MacIntel,60.0024001,Chrome,1440,900,,,,,10,733,,,,,,,,,,,,,,,,,H,139,hexagon,1,0,,,,,,,,,,,,,,,,switch,number,numSwt,j,0.233,Hi,,,,,,2,,,,,,space,2.2892,high,0,0,0,0,1,,,,,,,,,
298297,2022-11-30_24h13.27.053,vts_reward_expectancy_bt,2022.2.4,MacIntel,60.0024001,Chrome,1440,900,,,,,10,743,,,,,,,,,,,,,,,,,B,167,circle,1,0,,,,,,,,,,,,,,,,repeat,number,numRpt,k,0.0789,Lo,,,,,,2,,,,,,,,high,1,0,1,0,1,,,,,,,,,
298297,2022-11-30_24h13.27.053,vts_reward_expectancy_bt,2022.2.4,MacIntel,60.0024001,Chrome,1440,900,,,,,10,753,,,,,,,,,,,,,,,,,W,132,triangle,1,0,,,,,,,,,,,,,,,,repeat,number,numRpt,j,0.1002,Hi,,,,,,2,,,,,,,,high,2,0,2,0,1,,,,,,,,,
298297,2022-11-30_24h13.27.053,vts_reward_expectancy_bt,2022.2.4,MacIntel,60.0024001,Chrome,1440,900,,,,,1,754,,,,,,,,,,,,,,,,,Y,160,star,1,0,,,,,,,,,,,,,,,,switch,letter,lettSwt,f,0.288,Lo,,,,,,2,,,,,,,,high,3,0,3,0,1,,,,,,,,,
298297,2022-11-30_24h13.27.053,vts_reward_expectancy_bt,2022.2.4,MacIntel,60.0024001,Chrome,1440,900,,,,,10,764,,,,,,,,,,,,,,,,,U,174,hexagon,1,0,,,,,,,,,,,,,,,,repeat,letter,lettRpt,f,0.3173,Hi,,,,,,2,,,,,,,,high,4,0,4,0,1,,,,,,,,,
298297,2022-11-30_24h13.27.053,vts_reward_expectancy_bt,2022.2.4,MacIntel,60.0024001,Chrome,1440,900,,,,,0,764,,,,,,,,,,,,,,,,,S,181,circle,0,0,,,,,,,,,,,,,,,,switch,number,NA,j,0.0307,Hi,,,,,,2,,,,,,,,high,5,0,5,0,1,,,,,,,,,
298297,2022-11-30_24h13.27.053,vts_reward_expectancy_bt,2022.2.4,MacIntel,60.0024001,Chrome,1440,900,,,,,10,774,,,,,,,,,,,,,,,,,D,146,triangle,1,1,,,,,,,,,,,,,,,,switch,letter,lettSwt,d,0.1296,Hi,,,,,,2,,,,,,,,high,6,0,6,0,1,,,,,,,,,
298297,2022-11-30_24h13.27.053,vts_reward_expectancy_bt,2022.2.4,MacIntel,60.0024001,Chrome,1440,900,,,,,1,775,,,,,,,,,,,,,,,,,F,125,star,1,0,,,,,,,,,,,,,,,,repeat,letter,lettRpt,d,0.4018,Lo,,,,,,2,,,,,,,,high,7,0,7,0,1,,,,,,,,,
298297,2022-11-30_24h13.27.053,vts_reward_expectancy_bt,2022.2.4,MacIntel,60.0024001,Chrome,1440,900,,,,,0,775,,,,,,,,,,,,,,,,,H,139,circle,0,0,,,,,,,,,,,,,,,,repeat,letter,NA,f,0.0981,Lo,,,,,,2,,,,,,,,high,8,0,8,0,1,,,,,,,,,
298297,2022-11-30_24h13.27.053,vts_reward_expectancy_bt,2022.2.4,MacIntel,60.0024001,Chrome,1440,900,,,,,0,775,,,,,,,,,,,,,,,,,B,167,triangle,0,1,,,,,,,,,,,,,,,,switch,number,NA,j,0.4119,Lo,,,,,,2,,,,,,,,high,9,0,9,0,1,,,,,,,,,
298297,2022-11-30_24h13.27.053,vts_reward_expectancy_bt,2022.2.4,MacIntel,60.0024001,Chrome,1440,900,,,,,0,775,,,,,,,,,,,,,,,,,W,132,hexagon,1,1,,,,,,,,,,,,,,,,repeat,number,numRpt,j,0.2181,Hi,,,,,,2,,,,,,,,high,10,0,10,0,1,,,,,,,,,
298297,2022-11-30_24h13.27.053,vts_reward_expectancy_bt,2022.2.4,MacIntel,60.0024001,Chrome,1440,900,,,,,0,775,,,,,,,,,,,,,,,,,Y,160,star,0,0,,,,,,,,,,,,,,,,switch,letter,NA,d,0.0004,Hi,,,,,,2,,,,,,,,high,11,0,11,0,1,,,,,,,,,
298297,2022-11-30_24h13.27.053,vts_reward_expectancy_bt,2022.2.4,MacIntel,60.0024001,Chrome,1440,900,,,,,1,776,,,,,,,,,,,,,,,,,U,174,star,1,1,,,,,,,,,,,,,,,,repeat,letter,lettRpt,f,0.1626,Lo,,,,,,2,,,,,,,,high,12,0,12,0,1,,,,,,,,,
298297,2022-11-30_24h13.27.053,vts_reward_expectancy_bt,2022.2.4,MacIntel,60.0024001,Chrome,1440,900,,,,,0,776,,,,,,,,,,,,,,,,,S,181,hexagon,0,0,,,,,,,,,,,,,,,,repeat,letter,NA,d,0.4293,Lo,,,,,,2,,,,,,,,high,13,0,13,0,1,,,,,,,,,
298297,2022-11-30_24h13.27.053,vts_reward_expectancy_bt,2022.2.4,MacIntel,60.0024001,Chrome,1440,900,,,,,0,776,,,,,,,,,,,,,,,,,D,146,circle,0,1,,,,,,,,,,,,,,,,switch,number,NA,k,0.011,Lo,,,,,,2,,,,,,,,high,14,0,14,0,1,,,,,,,,,
298297,2022-11-30_24h13.27.053,vts_reward_expectancy_bt,2022.2.4,MacIntel,60.0024001,Chrome,1440,900,,,,,0,776,,,,,,,,,,,,,,,,,F,125,triangle,0,1,,,,,,,,,,,,,,,,repeat,number,NA,k,0.0175,Lo,,,,,,2,,,,,,,,high,15,0,15,0,1,,,,,,,,,
298297,2022-11-30_24h13.27.053,vts_reward_expectancy_bt,2022.2.4,MacIntel,60.0024001,Chrome,1440,900,,,,,0,776,,,,,,,,,,,,,,,,,F,160,circle,0,1,,,,,,,,,,,,,,,,repeat,number,NA,j,0.0993,Lo,,,,,,2,,,,,,,,high,16,0,16,0,1,,,,,,,,,
298297,2022-11-30_24h13.27.053,vts_reward_expectancy_bt,2022.2.4,MacIntel,60.0024001,Chrome,1440,900,,,,,1,777,,,,,,,,,,,,,,,,,U,174,star,1,1,,,,,,,,,,,,,,,,switch,letter,lettSwt,f,0.0004,Lo,,,,,,2,,,,,,,,high,17,0,17,0,1,,,,,,,,,
298297,2022-11-30_24h13.27.053,vts_reward_expectancy_bt,2022.2.4,MacIntel,60.0024001,Chrome,1440,900,,,,,0,777,,,,,,,,,,,,,,,,,H,167,hexagon,0,0,,,,,,,,,,,,,,,,switch,number,NA,j,0.0884,Lo,,,,,,2,,,,,,,,high,18,0,18,0,1,,,,,,,,,
298297,2022-11-30_24h13.27.053,vts_reward_expectancy_bt,2022.2.4,MacIntel,60.0024001,Chrome,1440,900,,,,,0,777,,,,,,,,,,,,,,,,,B,181,triangle,0,1,,,,,,,,,,,,,,,,switch,letter,NA,f,0.3954,Lo,,,,,,2,,,,,,,,high,19,0,19,0,1,,,,,,,,,
298297,2022-11-30_24h13.27.053,vts_reward_expectancy_bt,2022.2.4,MacIntel,60.0024001,Chrome,1440,900,,,,,0,777,,,,,,,,,,,,,,,,,D,146,star,0,1,,,,,,,,,,,,,,,,switch,number,NA,k,0.121,Lo,,,,,,2,,,,,,,,high,20,0,20,0,1,,,,,,,,,
298297,2022-11-30_24h13.27.053,vts_reward_expectancy_bt,2022.2.4,MacIntel,60.0024001,Chrome,1440,900,,,,,1,778,,,,,,,,,,,,,,,,,W,139,circle,1,1,,,,,,,,,,,,,,,,repeat,number,numRpt,j,0.3125,Lo,,,,,,2,,,,,,,,high,21,0,21,0,1,,,,,,,,,
298297,2022-11-30_24h13.27.053,vts_reward_expectancy_bt,2022.2.4,MacIntel,60.0024001,Chrome,1440,900,,,,,0,778,,,,,,,,,,,,,,,,,S,132,hexagon,0,0,,,,,,,,,,,,,,,,switch,letter,NA,d,0.0195,Lo,,,,,,2,,,,,,,,high,22,0,22,0,1,,,,,,,,,
298297,2022-11-30_24h13.27.053,vts_reward_expectancy_bt,2022.2.4,MacIntel,60.0024001,Chrome,1440,900,,,,,0,778,,,,,,,,,,,,,,,,,Y,125,triangle,0,1,,,,,,,,,,,,,,,,switch,number,NA,k,0.0003,Lo,,,,,,2,,,,,,,,high,23,0,23,0,1,,,,,,,,,
298297,2022-11-30_24h13.27.053,vts_reward_expectancy_bt,2022.2.4,MacIntel,60.0024001,Chrome,1440,900,,,,,1,779,,,,,,,,,,,,,,,,,S,139,circle,1,1,,,,,,,,,,,,,,,,repeat,number,numRpt,j,0.197,Lo,,,,,,2,,,,,,,,high,24,0,24,0,1,,,,,,,,,
298297,2022-11-30_24h13.27.053,vts_reward_expectancy_bt,2022.2.4,MacIntel,60.0024001,Chrome,1440,900,,,,,1,780,,,,,,,,,,,,,,,,,F,181,triangle,1,0,,,,,,,,,,,,,,,,switch,letter,lettSwt,d,0.0002,Hi,,,,,,2,,,,,,,,high,25,0,25,0,1,,,,,,,,,
298297,2022-11-30_24h13.27.053,vts_reward_expectancy_bt,2022.2.4,MacIntel,60.0024001,Chrome,1440,900,,,,,0,780,,,,,,,,,,,,,,,,,Y,125,star,0,0,,,,,,,,,,,,,,,,repeat,letter,NA,d,0.2404,Hi,,,,,,2,,,,,,,,high,26,0,26,0,1,,,,,,,,,
298297,2022-11-30_24h13.27.053,vts_reward_expectancy_bt,2022.2.4,MacIntel,60.0024001,Chrome,1440,900,,,,,0,780,,,,,,,,,,,,,,,,,B,146,hexagon,0,1,,,,,,,,,,,,,,,,switch,number,NA,k,0.0003,Hi,,,,,,2,,,,,,,,high,27,0,27,0,1,,,,,,,,,
298297,2022-11-30_24h13.27.053,vts_reward_expectancy_bt,2022.2.4,MacIntel,60.0024001,Chrome,1440,900,,,,,1,781,,,,,,,,,,,,,,,,,W,160,star,1,1,,,,,,,,,,,,,,,,repeat,number,numRpt,k,0.0627,Lo,,,,,,2,,,,,,,,high,28,0,28,0,1,,,,,,,,,
298297,2022-11-30_24h13.27.053,vts_reward_expectancy_bt,2022.2.4,MacIntel,60.0024001,Chrome,1440,900,,,,,0,781,,,,,,,,,,,,,,,,,H,167,circle,0,0,,,,,,,,,,,,,,,,repeat,number,NA,j,0.0278,Lo,,,,,,2,,,,,,,,high,29,0,29,0,1,,,,,,,,,
298297,2022-11-30_24h13.27.053,vts_reward_expectancy_bt,2022.2.4,MacIntel,60.0024001,Chrome,1440,900,,,,,10,791,,,,,,,,,,,,,,,,,D,174,hexagon,1,1,,,,,,,,,,,,,,,,switch,letter,lettSwt,d,0.1182,Hi,,,,,,2,,,,,,,,high,30,0,30,0,1,,,,,,,,,
298297,2022-11-30_24h13.27.053,vts_reward_expectancy_bt,2022.2.4,MacIntel,60.0024001,Chrome,1440,900,,,,,1,792,,,,,,,,,,,,,,,,,U,132,triangle,1,0,,,,,,,,,,,,,,,,switch,number,numSwt,j,0.2468,Hi,,,,,,2,,,,,,,,high,31,0,31,0,1,,,,,,,,,
298297,2022-11-30_24h13.27.053,vts_reward_expectancy_bt,2022.2.4,MacIntel,60.0024001,Chrome,1440,900,,,,,0,792,,,,,,,,,,,,,,,,,F,160,hexagon,0,0,,,,,,,,,,,,,,,,switch,letter,NA,f,0.0009,Hi,,,,,,3,,,,,,space,4.6368,high,0,0,0,0,1,,,,,,,,,
298297,2022-11-30_24h13.27.053,vts_reward_expectancy_bt,2022.2.4,MacIntel,60.0024001,Chrome,1440,900,,,,,10,802,,,,,,,,,,,,,,,,,H,125,triangle,1,1,,,,,,,,,,,,,,,,repeat,letter,lettRpt,d,0.0452,Hi,,,,,,3,,,,,,,,high,1,0,1,0,1,,,,,,,,,
298297,2022-11-30_24h13.27.053,vts_reward_expectancy_bt,2022.2.4,MacIntel,60.0024001,Chrome,1440,900,,,,,10,812,,,,,,,,,,,,,,,,,Y,132,star,1,0,,,,,,,,,,,,,,,,switch,number,numSwt,j,0.4672,Lo,,,,,,3,,,,,,,,high,2,0,2,0,1,,,,,,,,,
298297,2022-11-30_24h13.27.053,vts_reward_expectancy_bt,2022.2.4,MacIntel,60.0024001,Chrome,1440,900,,,,,0,812,,,,,,,,,,,,,,,,,D,146,circle,0,0,,,,,,,,,,,,,,,,repeat,number,NA,k,0.0003,Lo,,,,,,3,,,,,,,,high,3,0,3,0,1,,,,,,,,,
298297,2022-11-30_24h13.27.053,vts_reward_expectancy_bt,2022.2.4,MacIntel,60.0024001,Chrome,1440,900,,,,,10,822,,,,,,,,,,,,,,,,,S,167,hexagon,1,1,,,,,,,,,,,,,,,,repeat,number,numRpt,k,0.0002,Hi,,,,,,3,,,,,,,,high,4,0,4,0,1,,,,,,,,,
298297,2022-11-30_24h13.27.053,vts_reward_expectancy_bt,2022.2.4,MacIntel,60.0024001,Chrome,1440,900,,,,,0,822,,,,,,,,,,,,,,,,,U,181,triangle,0,0,,,,,,,,,,,,,,,,repeat,number,NA,j,0.2968,Hi,,,,,,3,,,,,,,,high,5,0,5,0,1,,,,,,,,,
298297,2022-11-30_24h13.27.053,vts_reward_expectancy_bt,2022.2.4,MacIntel,60.0024001,Chrome,1440,900,,,,,0,822,,,,,,,,,,,,,,,,,B,139,star,0,1,,,,,,,,,,,,,,,,repeat,number,NA,k,0.0552,Hi,,,,,,3,,,,,,,,high,6,0,6,0,1,,,,,,,,,
298297,2022-11-30_24h13.27.053,vts_reward_expectancy_bt,2022.2.4,MacIntel,60.0024001,Chrome,1440,900,,,,,0,822,,,,,,,,,,,,,,,,,W,174,circle,0,1,,,,,,,,,,,,,,,,repeat,number,NA,j,0.0158,Hi,,,,,,3,,,,,,,,high,7,0,7,0,1,,,,,,,,,
298297,2022-11-30_24h13.27.053,vts_reward_expectancy_bt,2022.2.4,MacIntel,60.0024001,Chrome,1440,900,,,,,0,822,,,,,,,,,,,,,,,,,F,160,circle,0,1,,,,,,,,,,,,,,,,switch,letter,NA,f,0.1396,Hi,,,,,,3,,,,,,,,high,8,0,8,0,1,,,,,,,,,
298297,2022-11-30_24h13.27.053,vts_reward_expectancy_bt,2022.2.4,MacIntel,60.0024001,Chrome,1440,900,,,,,1,823,,,,,,,,,,,,,,,,,H,125,hexagon,1,1,,,,,,,,,,,,,,,,repeat,letter,lettRpt,d,0.1633,Hi,,,,,,3,,,,,,,,high,9,0,9,0,1,,,,,,,,,
298297,2022-11-30_24h13.27.053,vts_reward_expectancy_bt,2022.2.4,MacIntel,60.0024001,Chrome,1440,900,,,,,0,823,,,,,,,,,,,,,,,,,Y,132,triangle,0,0,,,,,,,,,,,,,,,,repeat,letter,NA,d,0.365,Hi,,,,,,3,,,,,,,,high,10,0,10,0,1,,,,,,,,,
298297,2022-11-30_24h13.27.053,vts_reward_expectancy_bt,2022.2.4,MacIntel,60.0024001,Chrome,1440,900,,,,,0,823,,,,,,,,,,,,,,,,,D,146,star,0,1,,,,,,,,,,,,,,,,repeat,letter,NA,f,0.2861,Hi,,,,,,3,,,,,,,,high,11,0,11,0,1,,,,,,,,,
298297,2022-11-30_24h13.27.053,vts_reward_expectancy_bt,2022.2.4,MacIntel,60.0024001,Chrome,1440,900,,,,,10,833,,,,,,,,,,,,,,,,,S,167,hexagon,1,1,,,,,,,,,,,,,,,,repeat,letter,lettRpt,f,0.1847,Hi,,,,,,3,,,,,,,,high,12,0,12,0,1,,,,,,,,,
298297,2022-11-30_24h13.27.053,vts_reward_expectancy_bt,2022.2.4,MacIntel,60.0024001,Chrome,1440,900,,,,,0,833,,,,,,,,,,,,,,,,,U,181,triangle,1,0,,,,,,,,,,,,,,,,switch,number,numSwt,k,0.4509,Hi,,,,,,3,,,,,,,,high,13,0,13,0,1,,,,,,,,,
298297,2022-11-30_24h13.27.053,vts_reward_expectancy_bt,2022.2.4,MacIntel,60.0024001,Chrome,1440,900,,,,,10,843,,,,,,,,,,,,,,,,,B,139,circle,1,0,,,,,,,,,,,,,,,,switch,letter,lettSwt,d,0.1298,Lo,,,,,,3,,,,,,,,high,14,0,14,0,1,,,,,,,,,
298297,2022-11-30_24h13.27.053,vts_reward_expectancy_bt,2022.2.4,MacIntel,60.0024001,Chrome,1440,900,,,,,0,843,,,,,,,,,,,,,,,,,W,174,star,0,0,,,,,,,,,,,,,,,,switch,number,NA,j,0.0037,Lo,,,,,,3,,,,,,,,high,15,0,15,0,1,,,,,,,,,
298297,2022-11-30_24h13.27.053,vts_reward_expectancy_bt,2022.2.4,MacIntel,60.0024001,Chrome,1440,900,,,,,0,843,,,,,,,,,,,,,,,,,B,139,triangle,1,1,,,,,,,,,,,,,,,,repeat,number,numRpt,j,0.1381,Hi,,,,,,3,,,,,,,,high,16,0,16,0,1,,,,,,,,,
298297,2022-11-30_24h13.27.053,vts_reward_expectancy_bt,2022.2.4,MacIntel,60.0024001,Chrome,1440,900,,,,,1,844,,,,,,,,,,,,,,,,,Y,125,circle,1,0,,,,,,,,,,,,,,,,repeat,number,numRpt,j,0.0818,Lo,,,,,,3,,,,,,,,high,17,0,17,0,1,,,,,,,,,
298297,2022-11-30_24h13.27.053,vts_reward_expectancy_bt,2022.2.4,MacIntel,60.0024001,Chrome,1440,900,,,,,1,845,,,,,,,,,,,,,,,,,U,146,star,1,0,,,,,,,,,,,,,,,,repeat,number,numRpt,j,0.0157,Lo,,,,,,3,,,,,,,,high,18,0,18,0,1,,,,,,,,,
298297,2022-11-30_24h13.27.053,vts_reward_expectancy_bt,2022.2.4,MacIntel,60.0024001,Chrome,1440,900,,,,,0,845,,,,,,,,,,,,,,,,,H,132,hexagon,1,0,,,,,,,,,,,,,,,,repeat,number,numRpt,j,0.129,Hi,,,,,,3,,,,,,,,high,19,0,19,0,1,,,,,,,,,
298297,2022-11-30_24h13.27.053,vts_reward_expectancy_bt,2022.2.4,MacIntel,60.0024001,Chrome,1440,900,,,,,0,845,,,,,,,,,,,,,,,,,D,181,triangle,0,0,,,,,,,,,,,,,,,,repeat,number,NA,j,0.0952,Hi,,,,,,3,,,,,,,,high,20,0,20,0,1,,,,,,,,,
298297,2022-11-30_24h13.27.053,vts_reward_expectancy_bt,2022.2.4,MacIntel,60.0024001,Chrome,1440,900,,,,,1,846,,,,,,,,,,,,,,,,,W,174,star,1,1,,,,,,,,,,,,,,,,repeat,number,numRpt,k,0.0334,Lo,,,,,,3,,,,,,,,high,21,0,21,0,1,,,,,,,,,
298297,2022-11-30_24h13.27.053,vts_reward_expectancy_bt,2022.2.4,MacIntel,60.0024001,Chrome,1440,900,,,,,0,846,,,,,,,,,,,,,,,,,F,160,circle,0,0,,,,,,,,,,,,,,,,switch,letter,NA,f,0.2705,Lo,,,,,,3,,,,,,,,high,22,0,22,0,1,,,,,,,,,
298297,2022-11-30_24h13.27.053,vts_reward_expectancy_bt,2022.2.4,MacIntel,60.0024001,Chrome,1440,900,,,,,0,846,,,,,,,,,,,,,,,,,S,167,hexagon,0,1,,,,,,,,,,,,,,,,switch,number,NA,j,0.1614,Lo,,,,,,3,,,,,,,,high,23,0,23,0,1,,,,,,,,,
298297,2022-11-30_24h13.27.053,vts_reward_expectancy_bt,2022.2.4,MacIntel,60.0024001,Chrome,1440,900,,,,,0,846,,,,,,,,,,,,,,,,,U,167,hexagon,0,1,,,,,,,,,,,,,,,,switch,letter,NA,d,0.0004,Lo,,,,,,3,,,,,,,,high,24,0,24,0,1,,,,,,,,,
298297,2022-11-30_24h13.27.053,vts_reward_expectancy_bt,2022.2.4,MacIntel,60.0024001,Chrome,1440,900,,,,,1,847,,,,,,,,,,,,,,,,,Y,160,star,1,1,,,,,,,,,,,,,,,,switch,number,numSwt,k,0.0351,Lo,,,,,,3,,,,,,,,high,25,0,25,0,1,,,,,,,,,
298297,2022-11-30_24h13.27.053,vts_reward_expectancy_bt,2022.2.4,MacIntel,60.0024001,Chrome,1440,900,,,,,10,857,,,,,,,,,,,,,,,,,F,146,circle,1,0,,,,,,,,,,,,,,,,switch,letter,lettSwt,d,0.0476,Lo,,,,,,3,,,,,,,,high,26,0,26,0,1,,,,,,,,,
298297,2022-11-30_24h13.27.053,vts_reward_expectancy_bt,2022.2.4,MacIntel,60.0024001,Chrome,1440,900,,,,,10,867,,,,,,,,,,,,,,,,,H,139,triangle,1,0,,,,,,,,,,,,,,,,switch,number,numSwt,j,0.1025,Hi,,,,,,3,,,,,,,,high,27,0,27,0,1,,,,,,,,,
298297,2022-11-30_24h13.27.053,vts_reward_expectancy_bt,2022.2.4,MacIntel,60.0024001,Chrome,1440,900,,,,,0,867,,,,,,,,,,,,,,,,,W,125,circle,0,0,,,,,,,,,,,,,,,,switch,letter,NA,d,0.0004,Hi,,,,,,3,,,,,,,,high,28,0,28,0,1,,,,,,,,,
298297,2022-11-30_24h13.27.053,vts_reward_expectancy_bt,2022.2.4,MacIntel,60.0024001,Chrome,1440,900,,,,,10,877,,,,,,,,,,,,,,,,,B,132,triangle,1,1,,,,,,,,,,,,,,,,switch,number,numSwt,j,0.0629,Hi,,,,,,3,,,,,,,,high,29,0,29,0,1,,,,,,,,,
298297,2022-11-30_24h13.27.053,vts_reward_expectancy_bt,2022.2.4,MacIntel,60.0024001,Chrome,1440,900,,,,,0,877,,,,,,,,,,,,,,,,,D,181,star,0,0,,,,,,,,,,,,,,,,repeat,number,NA,j,0.1156,Hi,,,,,,3,,,,,,,,high,30,0,30,0,1,,,,,,,,,
298297,2022-11-30_24h13.27.053,vts_reward_expectancy_bt,2022.2.4,MacIntel,60.0024001,Chrome,1440,900,,,,,0,877,,,,,,,,,,,,,,,,,S,174,hexagon,1,1,,,,,,,,,,,,,,,,switch,letter,lettSwt,f,0.5021,Hi,,,,,,3,,,,,,,,high,31,0,31,0,1,,,,,,,,,
298297,2022-11-30_24h13.27.053,vts_reward_expectancy_bt,2022.2.4,MacIntel,60.0024001,Chrome,1440,900,,,,,0,877,,,,,,,,,,,,,,,,,D,139,triangle,1,0,,,,,,,,,,,,,,,,repeat,letter,lettRpt,d,0.18,Hi,,,,,,4,,,,,,space,6.3604,high,0,0,0,0,1,,,,,,,,,
298297,2022-11-30_24h13.27.053,vts_reward_expectancy_bt,2022.2.4,MacIntel,60.0024001,Chrome,1440,900,,,,,0,877,,,,,,,,,,,,,,,,,Y,167,hexagon,0,0,,,,,,,,,,,,,,,,switch,number,NA,j,0.0653,Hi,,,,,,4,,,,,,,,high,1,0,1,0,1,,,,,,,,,
298297,2022-11-30_24h13.27.053,vts_reward_expectancy_bt,2022.2.4,MacIntel,60.0024001,Chrome,1440,900,,,,,0,877,,,,,,,,,,,,,,,,,S,125,circle,0,1,,,,,,,,,,,,,,,,switch,letter,NA,d,0.0117,Hi,,,,,,4,,,,,,,,high,2,0,2,0,1,,,,,,,,,
298297,2022-11-30_24h13.27.053,vts_reward_expectancy_bt,2022.2.4,MacIntel,60.0024001,Chrome,1440,900,,,,,0,877,,,,,,,,,,,,,,,,,F,146,star,0,1,,,,,,,,,,,,,,,,switch,number,NA,k,0.1683,Hi,,,,,,4,,,,,,,,high,3,0,3,0,1,,,,,,,,,
298297,2022-11-30_24h13.27.053,vts_reward_expectancy_bt,2022.2.4,MacIntel,60.0024001,Chrome,1440,900,,,,,10,887,,,,,,,,,,,,,,,,,U,160,triangle,1,1,,,,,,,,,,,,,,,,switch,letter,lettSwt,f,0.0002,Hi,,,,,,4,,,,,,,,high,4,0,4,0,1,,,,,,,,,
298297,2022-11-30_24h13.27.053,vts_reward_expectancy_bt,2022.2.4,MacIntel,60.0024001,Chrome,1440,900,,,,,10,897,,,,,,,,,,,,,,,,,H,174,hexagon,1,0,,,,,,,,,,,,,,,,repeat,letter,lettRpt,d,0.1134,Hi,,,,,,4,,,,,,,,high,5,0,5,0,1,,,,,,,,,
298297,2022-11-30_24h13.27.053,vts_reward_expectancy_bt,2022.2.4,MacIntel,60.0024001,Chrome,1440,900,,,,,1,898,,,,,,,,,,,,,,,,,W,181,circle,1,0,,,,,,,,,,,,,,,,repeat,letter,lettRpt,f,0.0004,Lo,,,,,,4,,,,,,,,high,6,0,6,0,1,,,,,,,,,
298297,2022-11-30_24h13.27.053,vts_reward_expectancy_bt,2022.2.4,MacIntel,60.0024001,Chrome,1440,900,,,,,0,898,,,,,,,,,,,,,,,,,B,132,star,0,0,,,,,,,,,,,,,,,,switch,number,NA,k,0.1872,Lo,,,,,,4,,,,,,,,high,7,0,7,0,1,,,,,,,,,
298297,2022-11-30_24h13.27.053,vts_reward_expectancy_bt,2022.2.4,MacIntel,60.0024001,Chrome,1440,900,,,,,0,898,,,,,,,,,,,,,,,,,D,139,hexagon,1,1,,,,,,,,,,,,,,,,switch,letter,lettSwt,d,0.2814,Hi,,,,,,4,,,,,,,,high,8,0,8,0,1,,,,,,,,,
298297,2022-11-30_24h13.27.053,vts_reward_expectancy_bt,2022.2.4,MacIntel,60.0024001,Chrome,1440,900,,,,,1,899,,,,,,,,,,,,,,,,,Y,167,circle,1,0,,,,,,,,,,,,,,,,switch,number,numSwt,k,0.0468,Lo,,,,,,4,,,,,,,,high,9,0,9,0,1,,,,,,,,,
298297,2022-11-30_24h13.27.053,vts_reward_expectancy_bt,2022.2.4,MacIntel,60.0024001,Chrome,1440,900,,,,,0,899,,,,,,,,,,,,,,,,,S,125,triangle,0,0,,,,,,,,,,,,,,,,repeat,number,NA,k,0.1469,Lo,,,,,,4,,,,,,,,high,10,0,10,0,1,,,,,,,,,
298297,2022-11-30_24h13.27.053,vts_reward_expectancy_bt,2022.2.4,MacIntel,60.0024001,Chrome,1440,900,,,,,1,900,,,,,,,,,,,,,,,,,F,146,star,1,1,,,,,,,,,,,,,,,,switch,letter,lettSwt,d,0.0012,Lo,,,,,,4,,,,,,,,high,11,0,11,0,1,,,,,,,,,
298297,2022-11-30_24h13.27.053,vts_reward_expectancy_bt,2022.2.4,MacIntel,60.0024001,Chrome,1440,900,,,,,0,900,,,,,,,,,,,,,,,,,U,160,triangle,1,0,,,,,,,,,,,,,,,,repeat,letter,lettRpt,f,0.2382,Hi,,,,,,4,,,,,,,,high,12,0,12,0,1,,,,,,,,,
298297,2022-11-30_24h13.27.053,vts_reward_expectancy_bt,2022.2.4,MacIntel,60.0024001,Chrome,1440,900,,,,,1,901,,,,,,,,,,,,,,,,,H,174,star,1,0,,,,,,,,,,,,,,,,switch,number,numSwt,k,0.1607,Lo,,,,,,4,,,,,,,,high,13,0,13,0,1,,,,,,,,,
298297,2022-11-30_24h13.27.053,vts_reward_expectancy_bt,2022.2.4,MacIntel,60.0024001,Chrome,1440,900,,,,,0,901,,,,,,,,,,,,,,,,,W,181,hexagon,1,0,,,,,,,,,,,,,,,,repeat,number,numRpt,k,0.0638,Hi,,,,,,4,,,,,,,,high,14,0,14,0,1,,,,,,,,,
298297,2022-11-30_24h13.27.053,vts_reward_expectancy_bt,2022.2.4,MacIntel,60.0024001,Chrome,1440,900,,,,,1,902,,,,,,,,,,,,,,,,,B,132,circle,1,0,,,,,,,,,,,,,,,,repeat,number,numRpt,j,0.1996,Lo,,,,,,4,,,,,,,,high,15,0,15,0,1,,,,,,,,,
298297,2022-11-30_24h13.27.053,vts_reward_expectancy_bt,2022.2.4,MacIntel,60.0024001,Chrome,1440,900,,,,,0,902,,,,,,,,,,,,,,,,,F,174,star,0,0,,,,,,,,,,,,,,,,switch,letter,NA,f,0.0359,Lo,,,,,,4,,,,,,,,high,16,0,16,0,1,,,,,,,,,
298297,2022-11-30_24h13.27.053,vts_reward_expectancy_bt,2022.2.4,MacIntel,60.0024001,Chrome,1440,900,,,,,0,902,,,,,,,,,,,,,,,,,W,181,circle,0,1,,,,,,,,,,,,,,,,repeat,letter,NA,d,0.0003,Lo,,,,,,4,,,,,,,,high,17,0,17,0,1,,,,,,,,,
298297,2022-11-30_24h13.27.053,vts_reward_expectancy_bt,2022.2.4,MacIntel,60.0024001,Chrome,1440,900,,,,,10,912,,,,,,,,,,,,,,,,,D,167,hexagon,1,1,,,,,,,,,,,,,,,,repeat,letter,lettRpt,d,0.0232,Hi,,,,,,4,,,,,,,,high,18,0,18,0,1,,,,,,,,,
298297,2022-11-30_24h13.27.053,vts_reward_expectancy_bt,2022.2.4,MacIntel,60.0024001,Chrome,1440,900,,,,,0,912,,,,,,,,,,,,,,,,,H,132,triangle,1,0,,,,,,,,,,,,,,,,repeat,letter,lettRpt,d,0.1834,Hi,,,,,,4,,,,,,,,high,19,0,19,0,1,,,,,,,,,
298297,2022-11-30_24h13.27.053,vts_reward_expectancy_bt,2022.2.4,MacIntel,60.0024001,Chrome,1440,900,,,,,0,912,,,,,,,,,,,,,,,,,S,146,hexagon,1,0,,,,,,,,,,,,,,,,switch,number,numSwt,j,0.199,Hi,,,,,,4,,,,,,,,high,20,0,20,0,1,,,,,,,,,
298297,2022-11-30_24h13.27.053,vts_reward_expectancy_bt,2022.2.4,MacIntel,60.0024001,Chrome,1440,900,,,,,0,912,,,,,,,,,,,,,,,,,U,160,triangle,0,0,,,,,,,,,,,,,,,,repeat,number,NA,j,0.2151,Hi,,,,,,4,,,,,,,,high,21,0,21,0,1,,,,,,,,,
298297,2022-11-30_24h13.27.053,vts_reward_expectancy_bt,2022.2.4,MacIntel,60.0024001,Chrome,1440,900,,,,,0,912,,,,,,,,,,,,,,,,,Y,139,circle,0,1,,,,,,,,,,,,,,,,switch,letter,NA,d,0.1678,Hi,,,,,,4,,,,,,,,high,22,0,22,0,1,,,,,,,,,
298297,2022-11-30_24h13.27.053,vts_reward_expectancy_bt,2022.2.4,MacIntel,60.0024001,Chrome,1440,900,,,,,1,913,,,,,,,,,,,,,,,,,B,125,star,1,1,,,,,,,,,,,,,,,,repeat,letter,lettRpt,d,0.2469,Lo,,,,,,4,,,,,,,,high,23,0,23,0,1,,,,,,,,,
298297,2022-11-30_24h13.27.053,vts_reward_expectancy_bt,2022.2.4,MacIntel,60.0024001,Chrome,1440,900,,,,,1,914,,,,,,,,,,,,,,,,,H,160,star,1,0,,,,,,,,,,,,,,,,repeat,letter,lettRpt,d,0.0003,Lo,,,,,,4,,,,,,,,high,24,0,24,0,1,,,,,,,,,
298297,2022-11-30_24h13.27.053,vts_reward_expectancy_bt,2022.2.4,MacIntel,60.0024001,Chrome,1440,900,,,,,0,914,,,,,,,,,,,,,,,,,S,167,triangle,0,0,,,,,,,,,,,,,,,,repeat,letter,NA,d,0.1507,Lo,,,,,,4,,,,,,,,high,25,0,25,0,1,,,,,,,,,
298297,2022-11-30_24h13.27.053,vts_reward_expectancy_bt,2022.2.4,MacIntel,60.0024001,Chrome,1440,900,,,,,0,914,,,,,,,,,,,,,,,,,U,181,circle,0,1,,,,,,,,,,,,,,,,switch,number,NA,j,0.1523,Lo,,,,,,4,,,,,,,,high,26,0,26,0,1,,,,,,,,,
298297,2022-11-30_24h13.27.053,vts_reward_expectancy_bt,2022.2.4,MacIntel,60.0024001,Chrome,1440,900,,,,,0,914,,,,,,,,,,,,,,,,,F,174,hexagon,0,1,,,,,,,,,,,,,,,,repeat,number,NA,j,0.0665,Lo,,,,,,4,,,,,,,,high,27,0,27,0,1,,,,,,,,,
298297,2022-11-30_24h13.27.053,vts_reward_expectancy_bt,2022.2.4,MacIntel,60.0024001,Chrome,1440,900,,,,,0,914,,,,,,,,,,,,,,,,,W,125,triangle,0,1,,,,,,,,,,,,,,,,switch,letter,NA,d,0.2304,Lo,,,,,,4,,,,,,,,high,28,0,28,0,1,,,,,,,,,
298297,2022-11-30_24h13.27.053,vts_reward_expectancy_bt,2022.2.4,MacIntel,60.0024001,Chrome,1440,900,,,,,0,914,,,,,,,,,,,,,,,,,D,132,hexagon,0,1,,,,,,,,,,,,,,,,switch,number,NA,k,0.0843,Lo,,,,,,4,,,,,,,,high,29,0,29,0,1,,,,,,,,,
298297,2022-11-30_24h13.27.053,vts_reward_expectancy_bt,2022.2.4,MacIntel,60.0024001,Chrome,1440,900,,,,,10,924,,,,,,,,,,,,,,,,,Y,139,circle,1,1,,,,,,,,,,,,,,,,repeat,number,numRpt,j,0.1963,Lo,,,,,,4,,,,,,,,high,30,0,30,0,1,,,,,,,,,
298297,2022-11-30_24h13.27.053,vts_reward_expectancy_bt,2022.2.4,MacIntel,60.0024001,Chrome,1440,900,,,,,0,924,,,,,,,,,,,,,,,,,B,146,star,0,0,,,,,,,,,,,,,,,,repeat,number,NA,k,0.0375,Lo,,,,,,4,,,,,,,,high,31,0,31,0,1,,,,,,,,,
298297,2022-11-30_24h13.27.053,vts_reward_expectancy_bt,2022.2.4,MacIntel,60.0024001,Chrome,1440,900,,,,,1,925,,,,,,,,,,,,,,,,,F,174,star,1,1,,,,,,,,,,,,,,,,repeat,number,numRpt,k,0.0842,Lo,,,,,,5,,,,,,space,2.2738,high,0,0,0,0,1,,,,,,,,,
298297,2022-11-30_24h13.27.053,vts_reward_expectancy_bt,2022.2.4,MacIntel,60.0024001,Chrome,1440,900,,,,,10,935,,,,,,,,,,,,,,,,,U,146,hexagon,1,0,,,,,,,,,,,,,,,,repeat,number,numRpt,j,0.0131,Hi,,,,,,5,,,,,,,,high,1,0,1,0,1,,,,,,,,,
298297,2022-11-30_24h13.27.053,vts_reward_expectancy_bt,2022.2.4,MacIntel,60.0024001,Chrome,1440,900,,,,,0,935,,,,,,,,,,,,,,,,,Y,125,circle,0,0,,,,,,,,,,,,,,,,repeat,number,NA,k,0.0276,Hi,,,,,,5,,,,,,,,high,2,0,2,0,1,,,,,,,,,
298297,2022-11-30_24h13.27.053,vts_reward_expectancy_bt,2022.2.4,MacIntel,60.0024001,Chrome,1440,900,,,,,10,945,,,,,,,,,,,,,,,,,W,167,triangle,1,1,,,,,,,,,,,,,,,,repeat,number,numRpt,k,0.0004,Hi,,,,,,5,,,,,,,,high,3,0,3,0,1,,,,,,,,,
298297,2022-11-30_24h13.27.053,vts_reward_expectancy_bt,2022.2.4,MacIntel,60.0024001,Chrome,1440,900,,,,,0,945,,,,,,,,,,,,,,,,,H,181,star,0,0,,,,,,,,,,,,,,,,repeat,number,NA,j,0.1176,Hi,,,,,,5,,,,,,,,high,4,0,4,0,1,,,,,,,,,
298297,2022-11-30_24h13.27.053,vts_reward_expectancy_bt,2022.2.4,MacIntel,60.0024001,Chrome,1440,900,,,,,0,945,,,,,,,,,,,,,,,,,D,160,hexagon,1,1,,,,,,,,,,,,,,,,switch,letter,lettSwt,d,0.1388,Hi,,,,,,5,,,,,,,,high,5,0,5,0,1,,,,,,,,,
298297,2022-11-30_24h13.27.053,vts_reward_expectancy_bt,2022.2.4,MacIntel,60.0024001,Chrome,1440,900,,,,,1,946,,,,,,,,,,,,,,,,,S,132,circle,1,0,,,,,,,,,,,,,,,,switch,number,numSwt,j,0.0819,Lo,,,,,,5,,,,,,,,high,6,0,6,0,1,,,,,,,,,
298297,2022-11-30_24h13.27.053,vts_reward_expectancy_bt,2022.2.4,MacIntel,60.0024001,Chrome,1440,900,,,,,10,956,,,,,,,,,,,,,,,,,B,139,triangle,1,0,,,,,,,,,,,,,,,,repeat,number,numRpt,j,0.0492,Hi,,,,,,5,,,,,,,,high,7,0,7,0,1,,,,,,,,,
298297,2022-11-30_24h13.27.053,vts_reward_expectancy_bt,2022.2.4,MacIntel,60.0024001,Chrome,1440,900,,,,,1,957,,,,,,,,,,,,,,,,,F,174,star,1,0,,,,,,,,,,,,,,,,repeat,number,numRpt,k,0.082,Lo,,,,,,5,,,,,,,,high,8,0,8,0,1,,,,,,,,,
298297,2022-11-30_24h13.27.053,vts_reward_expectancy_bt,2022.2.4,MacIntel,60.0024001,Chrome,1440,900,,,,,1,958,,,,,,,,,,,,,,,,,U,146,circle,1,0,,,,,,,,,,,,,,,,repeat,number,numRpt,j,0.1348,Lo,,,,,,5,,,,,,,,high,9,0,9,0,1,,,,,,,,,
298297,2022-11-30_24h13.27.053,vts_reward_expectancy_bt,2022.2.4,MacIntel,60.0024001,Chrome,1440,900,,,,,1,959,,,,,,,,,,,,,,,,,Y,125,hexagon,1,0,,,,,,,,,,,,,,,,repeat,number,numRpt,j,0.0311,Hi,,,,,,5,,,,,,,,high,10,0,10,0,1,,,,,,,,,
298297,2022-11-30_24h13.27.053,vts_reward_expectancy_bt,2022.2.4,MacIntel,60.0024001,Chrome,1440,900,,,,,0,959,,,,,,,,,,,,,,,,,W,167,triangle,0,0,,,,,,,,,,,,,,,,switch,letter,NA,d,0.2344,Hi,,,,,,5,,,,,,,,high,11,0,11,0,1,,,,,,,,,
298297,2022-11-30_24h13.27.053,vts_reward_expectancy_bt,2022.2.4,MacIntel,60.0024001,Chrome,1440,900,,,,,1,960,,,,,,,,,,,,,,,,,H,181,star,1,1,,,,,,,,,,,,,,,,repeat,letter,lettRpt,d,0.4666,Lo,,,,,,5,,,,,,,,high,12,0,12,0,1,,,,,,,,,
298297,2022-11-30_24h13.27.053,vts_reward_expectancy_bt,2022.2.4,MacIntel,60.0024001,Chrome,1440,900,,,,,0,960,,,,,,,,,,,,,,,,,D,160,circle,0,0,,,,,,,,,,,,,,,,repeat,letter,NA,f,0.0133,Lo,,,,,,5,,,,,,,,high,13,0,13,0,1,,,,,,,,,
298297,2022-11-30_24h13.27.053,vts_reward_expectancy_bt,2022.2.4,MacIntel,60.0024001,Chrome,1440,900,,,,,0,960,,,,,,,,,,,,,,,,,S,132,hexagon,0,1,,,,,,,,,,,,,,,,repeat,letter,NA,d,0.2476,Lo,,,,,,5,,,,,,,,high,14,0,14,0,1,,,,,,,,,
298297,2022-11-30_24h13.27.053,vts_reward_expectancy_bt,2022.2.4,MacIntel,60.0024001,Chrome,1440,900,,,,,0,960,,,,,,,,,,,,,,,,,B,139,triangle,0,1,,,,,,,,,,,,,,,,repeat,letter,NA,f,0.3838,Lo,,,,,,5,,,,,,,,high,15,0,15,0,1,,,,,,,,,
298297,2022-11-30_24h13.27.053,vts_reward_expectancy_bt,2022.2.4,MacIntel,60.0024001,Chrome,1440,900,,,,,10,970,,,,,,,,,,,,,,,,,S,146,circle,1,1,,,,,,,,,,,,,,,,repeat,letter,lettRpt,f,0.4101,Lo,,,,,,5,,,,,,,,high,16,0,16,0,1,,,,,,,,,
298297,2022-11-30_24h13.27.053,vts_reward_expectancy_bt,2022.2.4,MacIntel,60.0024001,Chrome,1440,900,,,,,0,970,,,,,,,,,,,,,,,,,W,174,triangle,1,0,,,,,,,,,,,,,,,,repeat,letter,lettRpt,f,0.3484,Hi,,,,,,5,,,,,,,,high,17,0,17,0,1,,,,,,,,,
298297,2022-11-30_24h13.27.053,vts_reward_expectancy_bt,2022.2.4,MacIntel,60.0024001,Chrome,1440,900,,,,,0,970,,,,,,,,,,,,,,,,,U,160,hexagon,1,0,,,,,,,,,,,,,,,,repeat,letter,lettRpt,f,0.5435,Hi,,,,,,5,,,,,,,,high,18,0,18,0,1,,,,,,,,,
298297,2022-11-30_24h13.27.053,vts_reward_expectancy_bt,2022.2.4,MacIntel,60.0024001,Chrome,1440,900,,,,,0,970,,,,,,,,,,,,,,,,,Y,132,star,0,0,,,,,,,,,,,,,,,,repeat,letter,NA,d,0.1676,Hi,,,,,,5,,,,,,,,high,19,0,19,0,1,,,,,,,,,
298297,2022-11-30_24h13.27.053,vts_reward_expectancy_bt,2022.2.4,MacIntel,60.0024001,Chrome,1440,900,,,,,0,970,,,,,,,,,,,,,,,,,B,181,triangle,0,1,,,,,,,,,,,,,,,,switch,number,NA,j,0.0014,Hi,,,,,,5,,,,,,,,high,20,0,20,0,1,,,,,,,,,
298297,2022-11-30_24h13.27.053,vts_reward_expectancy_bt,2022.2.4,MacIntel,60.0024001,Chrome,1440,900,,,,,0,970,,,,,,,,,,,,,,,,,H,167,hexagon,1,1,,,,,,,,,,,,,,,,switch,letter,lettSwt,d,0.0877,Hi,,,,,,5,,,,,,,,high,21,0,21,0,1,,,,,,,,,
298297,2022-11-30_24h13.27.053,vts_reward_expectancy_bt,2022.2.4,MacIntel,60.0024001,Chrome,1440,900,,,,,1,971,,,,,,,,,,,,,,,,,D,125,circle,1,0,,,,,,,,,,,,,,,,switch,number,numSwt,j,0.1542,Lo,,,,,,5,,,,,,,,high,22,0,22,0,1,,,,,,,,,
298297,2022-11-30_24h13.27.053,vts_reward_expectancy_bt,2022.2.4,MacIntel,60.0024001,Chrome,1440,900,,,,,0,971,,,,,,,,,,,,,,,,,F,139,star,0,0,,,,,,,,,,,,,,,,repeat,number,NA,k,0.0141,Lo,,,,,,5,,,,,,,,high,23,0,23,0,1,,,,,,,,,
298297,2022-11-30_24h13.27.053,vts_reward_expectancy_bt,2022.2.4,MacIntel,60.0024001,Chrome,1440,900,,,,,1,972,,,,,,,,,,,,,,,,,D,146,circle,1,1,,,,,,,,,,,,,,,,switch,letter,lettSwt,d,0.2368,Lo,,,,,,5,,,,,,,,high,24,0,24,0,1,,,,,,,,,
298297,2022-11-30_24h13.27.053,vts_reward_expectancy_bt,2022.2.4,MacIntel,60.0024001,Chrome,1440,900,,,,,0,972,,,,,,,,,,,,,,,,,Y,132,triangle,1,0,,,,,,,,,,,,,,,,switch,number,numSwt,j,0.6976,Hi,,,,,,5,,,,,,,,high,25,0,25,0,1,,,,,,,,,
298297,2022-11-30_24h13.27.053,vts_reward_expectancy_bt,2022.2.4,MacIntel,60.0024001,Chrome,1440,900,,,,,0,972,,,,,,,,,,,,,,,,,W,167,hexagon,0,0,,,,,,,,,,,,,,,,switch,letter,NA,d,0.0969,Hi,,,,,,5,,,,,,,,high,26,0,26,0,1,,,,,,,,,
298297,2022-11-30_24h13.27.053,vts_reward_expectancy_bt,2022.2.4,MacIntel,60.0024001,Chrome,1440,900,,,,,1,973,,,,,,,,,,,,,,,,,H,125,star,1,1,,,,,,,,,,,,,,,,repeat,letter,lettRpt,d,0.0975,Lo,,,,,,5,,,,,,,,high,27,0,27,0,1,,,,,,,,,
298297,2022-11-30_24h13.27.053,vts_reward_expectancy_bt,2022.2.4,MacIntel,60.0024001,Chrome,1440,900,,,,,0,973,,,,,,,,,,,,,,,,,F,174,hexagon,1,0,,,,,,,,,,,,,,,,repeat,letter,lettRpt,d,0.3528,Hi,,,,,,5,,,,,,,,high,28,0,28,0,1,,,,,,,,,
298297,2022-11-30_24h13.27.053,vts_reward_expectancy_bt,2022.2.4,MacIntel,60.0024001,Chrome,1440,900,,,,,1,974,,,,,,,,,,,,,,,,,S,160,star,1,0,,,,,,,,,,,,,,,,switch,number,numSwt,k,0.1854,Lo,,,,,,5,,,,,,,,high,29,0,29,0,1,,,,,,,,,
298297,2022-11-30_24h13.27.053,vts_reward_expectancy_bt,2022.2.4,MacIntel,60.0024001,Chrome,1440,900,,,,,0,974,,,,,,,,,,,,,,,,,B,139,triangle,0,0,,,,,,,,,,,,,,,,repeat,number,NA,k,0.03,Lo,,,,,,5,,,,,,,,high,30,0,30,0,1,,,,,,,,,
298297,2022-11-30_24h13.27.053,vts_reward_expectancy_bt,2022.2.4,MacIntel,60.0024001,Chrome,1440,900,,,,,1,975,,,,,,,,,,,,,,,,,U,181,circle,1,1,,,,,,,,,,,,,,,,switch,letter,lettSwt,f,0.0894,Lo,,,,,,5,,,,,,,,high,31,0,31,0,1,,,,,,,,,
298297,2022-11-30_24h13.27.053,vts_reward_expectancy_bt,2022.2.4,MacIntel,60.0024001,Chrome,1440,900,,,,,10,985,,,,,,,,,,,,,,,,,W,146,triangle,1,0,,,,,,,,,,,,,,,,repeat,letter,lettRpt,f,0.1138,Hi,,,,,,6,,,,,,space,8.8254,high,0,0,0,0,1,,,,,,,,,
298297,2022-11-30_24h13.27.053,vts_reward_expectancy_bt,2022.2.4,MacIntel,60.0024001,Chrome,1440,900,,,,,10,995,,,,,,,,,,,,,,,,,Y,125,hexagon,1,0,,,,,,,,,,,,,,,,switch,number,numSwt,j,0.1499,Hi,,,,,,6,,,,,,,,high,1,0,1,0,1,,,,,,,,,
298297,2022-11-30_24h13.27.053,vts_reward_expectancy_bt,2022.2.4,MacIntel,60.0024001,Chrome,1440,900,,,,,0,995,,,,,,,,,,,,,,,,,S,167,circle,0,0,,,,,,,,,,,,,,,,repeat,number,NA,j,0.3116,Hi,,,,,,6,,,,,,,,high,2,0,2,0,1,,,,,,,,,
298297,2022-11-30_24h13.27.053,vts_reward_expectancy_bt,2022.2.4,MacIntel,60.0024001,Chrome,1440,900,,,,,0,995,,,,,,,,,,,,,,,,,H,160,star,0,1,,,,,,,,,,,,,,,,repeat,number,NA,j,0.3635,Hi,,,,,,6,,,,,,,,high,3,0,3,0,1,,,,,,,,,
298297,2022-11-30_24h13.27.053,vts_reward_expectancy_bt,2022.2.4,MacIntel,60.0024001,Chrome,1440,900,,,,,0,995,,,,,,,,,,,,,,,,,B,181,triangle,0,1,,,,,,,,,,,,,,,,switch,letter,NA,f,0.039,Hi,,,,,,6,,,,,,,,high,4,0,4,0,1,,,,,,,,,
298297,2022-11-30_24h13.27.053,vts_reward_expectancy_bt,2022.2.4,MacIntel,60.0024001,Chrome,1440,900,,,,,0,995,,,,,,,,,,,,,,,,,U,132,hexagon,1,1,,,,,,,,,,,,,,,,switch,number,numSwt,j,0.1654,Hi,,,,,,6,,,,,,,,high,5,0,5,0,1,,,,,,,,,
298297,2022-11-30_24h13.27.053,vts_reward_expectancy_bt,2022.2.4,MacIntel,60.0024001,Chrome,1440,900,,,,,0,995,,,,,,,,,,,,,,,,,F,174,circle,0,0,,,,,,,,,,,,,,,,switch,letter,NA,f,0.03,Hi,,,,,,6,,,,,,,,high,6,0,6,0,1,,,,,,,,,
298297,2022-11-30_24h13.27.053,vts_reward_expectancy_bt,2022.2.4,MacIntel,60.0024001,Chrome,1440,900,,,,,1,996,,,,,,,,,,,,,,,,,D,139,star,1,1,,,,,,,,,,,,,,,,switch,number,numSwt,j,0.1325,Lo,,,,,,6,,,,,,,,high,7,0,7,0,1,,,,,,,,,
298297,2022-11-30_24h13.27.053,vts_reward_expectancy_bt,2022.2.4,MacIntel,60.0024001,Chrome,1440,900,,,,,0,996,,,,,,,,,,,,,,,,,W,146,hexagon,0,0,,,,,,,,,,,,,,,,switch,letter,NA,d,0.2121,Lo,,,,,,6,,,,,,,,high,8,0,8,0,1,,,,,,,,,
298297,2022-11-30_24h13.27.053,vts_reward_expectancy_bt,2022.2.4,MacIntel,60.0024001,Chrome,1440,900,,,,,1,997,,,,,,,,,,,,,,,,,Y,125,star,1,1,,,,,,,,,,,,,,,,switch,number,numSwt,j,0.2521,Lo,,,,,,6,,,,,,,,high,9,0,9,0,1,,,,,,,,,
298297,2022-11-30_24h13.27.053,vts_reward_expectancy_bt,2022.2.4,MacIntel,60.0024001,Chrome,1440,900,,,,,0,997,,,,,,,,,,,,,,,,,S,167,circle,0,0,,,,,,,,,,,,,,,,switch,letter,NA,d,0.0882,Lo,,,,,,6,,,,,,,,high,10,0,10,0,1,,,,,,,,,
298297,2022-11-30_24h13.27.053,vts_reward_expectancy_bt,2022.2.4,MacIntel,60.0024001,Chrome,1440,900,,,,,10,1007,,,,,,,,,,,,,,,,,H,160,triangle,1,1,,,,,,,,,,,,,,,,switch,number,numSwt,k,0.0782,Hi,,,,,,6,,,,,,,,high,11,0,11,0,1,,,,,,,,,
298297,2022-11-30_24h13.27.053,vts_reward_expectancy_bt,2022.2.4,MacIntel,60.0024001,Chrome,1440,900,,,,,0,1007,,,,,,,,,,,,,,,,,B,181,triangle,0,0,,,,,,,,,,,,,,,,repeat,number,NA,j,0.1488,Hi,,,,,,6,,,,,,,,high,12,0,12,0,1,,,,,,,,,
298297,2022-11-30_24h13.27.053,vts_reward_expectancy_bt,2022.2.4,MacIntel,60.0024001,Chrome,1440,900,,,,,0,1007,,,,,,,,,,,,,,,,,U,132,hexagon,0,1,,,,,,,,,,,,,,,,switch,letter,NA,d,0.1846,Hi,,,,,,6,,,,,,,,high,13,0,13,0,1,,,,,,,,,
