participant,date,expName,psychopyVersion,OS,frameRate,browser,xResolution,yResolution,key_resp.keys,key_resp.rt,training_resp.keys,training_resp.rt,points_trial,points_cumul,trainBlock,training.thisRepN,training.thisTrialN,training.thisN,training.thisIndex,training.ran,LTriangleOpac,LCircleOpac,LHexagonOpac,LStarOpac,RTriangleOpac,RCircleOpac,RHexagonOpac,RStarOpac,LShape_ID,RShape_ID,curr_topStim,curr_bottStim,curr_shape,acc,E1,target_resp_prac1.keys,pracBlock,task1_prac_trials.thisRepN,task1_prac_trials.thisTrialN,task1_prac_trials.thisN,task1_prac_trials.thisIndex,task1_prac_trials.ran,target_resp_prac1.rt,target_resp_prac2.keys,target_resp_prac2.rt,task2_praac_trials.thisRepN,task2_praac_trials.thisTrialN,task2_praac_trials.thisN,task2_praac_trials.thisIndex,task2_praac_trials.ran,alt,task,condition,target_resp.keys,target_resp.rt,rewCond,vts_practice_trials.thisRepN,vts_practice_trials.thisTrialN,vts_practice_trials.thisN,vts_practice_trials.thisIndex,vts_practice_trials.ran,blockNum,trials_norew.thisRepN,trials_norew.thisTrialN,trials_norew.thisN,trials_norew.thisIndex,trials_norew.ran,key_resp_2.keys,key_resp_2.rt,rewExpectancy,trials_rew.thisRepN,trials_rew.thisTrialN,trials_rew.thisN,trials_rew.thisIndex,trials_rew.ran,Q1,Q2,Q2_text,Q3,Q4,Q5,Q5_text,xRes,yRes
298267,2022-11-29_17h06.47.904,vts_reward_expectancy_bt,2022.2.4,MacIntel,62.5,Safari,1440,900,,,,,,,,,,,,,,,,,,,,,,,,,,,,,,,,,,,,,,,,,,,,,,,,,,,,,,,,,,,,,,,,,,,,,,,,,,,,
298267,2022-11-29_17h06.47.904,vts_reward_expectancy_bt,2022.2.4,MacIntel,62.5,Safari,1440,900,space,17.035,,,,,,,,,,,,,,,,,,,,,,,,,,,,,,,,,,,,,,,,,,,,,,,,,,,,,,,,,,,,,,,,,,,,,,,,,,
298267,2022-11-29_17h06.47.904,vts_reward_expectancy_bt,2022.2.4,MacIntel,62.5,Safari,1440,900,,,,,,,,,,,,,,,,,,,,,,,,,,,,,,,,,,,,,,,,,,,,,,,,,,,,,,,,,,,,,,,,,,,,,,,,,,,,
298267,2022-11-29_17h06.47.904,vts_reward_expectancy_bt,2022.2.4,MacIntel,62.5,Safari,1440,900,,,a,2.669,1,1,0,0,0,0,1,1,1,0,0,0,0,0,1,0,triangle,hexagon,,,,,,,,,,,,,,,,,,,,,,,,,,,,,,,,,,,,,,,,,,,,,,,,,,,,,,
298267,2022-11-29_17h06.47.904,vts_reward_expectancy_bt,2022.2.4,MacIntel,62.5,Safari,1440,900,,,a,6.675,10,11,0,0,1,1,7,1,0,0,1,0,0,1,0,0,hexagon,circle,,,,,,,,,,,,,,,,,,,,,,,,,,,,,,,,,,,,,,,,,,,,,,,,,,,,,,
298267,2022-11-29_17h06.47.904,vts_reward_expectancy_bt,2022.2.4,MacIntel,62.5,Safari,1440,900,,,a,1.139,1,12,0,0,2,2,9,1,0,0,0,1,1,0,0,0,star,triangle,,,,,,,,,,,,,,,,,,,,,,,,,,,,,,,,,,,,,,,,,,,,,,,,,,,,,,
298267,2022-11-29_17h06.47.904,vts_reward_expectancy_bt,2022.2.4,MacIntel,62.5,Safari,1440,900,,,a,3.083,10,22,0,0,3,3,6,1,0,0,1,0,1,0,0,0,hexagon,triangle,,,,,,,,,,,,,,,,,,,,,,,,,,,,,,,,,,,,,,,,,,,,,,,,,,,,,,
298267,2022-11-29_17h06.47.904,vts_reward_expectancy_bt,2022.2.4,MacIntel,62.5,Safari,1440,900,,,l,3.461,10,32,0,0,4,4,0,1,1,0,0,0,0,1,0,0,triangle,circle,,,,,,,,,,,,,,,,,,,,,,,,,,,,,,,,,,,,,,,,,,,,,,,,,,,,,,
298267,2022-11-29_17h06.47.904,vts_reward_expectancy_bt,2022.2.4,MacIntel,62.5,Safari,1440,900,,,a,2.372,10,42,0,0,5,5,5,1,0,1,0,0,0,0,0,1,circle,star,,,,,,,,,,,,,,,,,,,,,,,,,,,,,,,,,,,,,,,,,,,,,,,,,,,,,,
298267,2022-11-29_17h06.47.904,vts_reward_expectancy_bt,2022.2.4,MacIntel,62.5,Safari,1440,900,,,a,2.131,10,52,0,0,6,6,3,1,0,1,0,0,1,0,0,0,circle,triangle,,,,,,,,,,,,,,,,,,,,,,,,,,,,,,,,,,,,,,,,,,,,,,,,,,,,,,
298267,2022-11-29_17h06.47.904,vts_reward_expectancy_bt,2022.2.4,MacIntel,62.5,Safari,1440,900,,,l,5.579,1,53,0,0,7,7,2,1,1,0,0,0,0,0,0,1,triangle,star,,,,,,,,,,,,,,,,,,,,,,,,,,,,,,,,,,,,,,,,,,,,,,,,,,,,,,
298267,2022-11-29_17h06.47.904,vts_reward_expectancy_bt,2022.2.4,MacIntel,62.5,Safari,1440,900,,,l,1.653,10,63,0,0,8,8,10,1,0,0,0,1,0,1,0,0,star ,circle,,,,,,,,,,,,,,,,,,,,,,,,,,,,,,,,,,,,,,,,,,,,,,,,,,,,,,
298267,2022-11-29_17h06.47.904,vts_reward_expectancy_bt,2022.2.4,MacIntel,62.5,Safari,1440,900,,,a,1.299,10,73,0,0,9,9,8,1,0,0,1,0,0,0,0,1,hexagon,star,,,,,,,,,,,,,,,,,,,,,,,,,,,,,,,,,,,,,,,,,,,,,,,,,,,,,,
298267,2022-11-29_17h06.47.904,vts_reward_expectancy_bt,2022.2.4,MacIntel,62.5,Safari,1440,900,,,l,1.825,10,83,0,0,10,10,11,1,0,0,0,1,0,0,1,0,star,hexagon,,,,,,,,,,,,,,,,,,,,,,,,,,,,,,,,,,,,,,,,,,,,,,,,,,,,,,
298267,2022-11-29_17h06.47.904,vts_reward_expectancy_bt,2022.2.4,MacIntel,62.5,Safari,1440,900,,,l,2.548,10,93,0,0,11,11,4,1,0,1,0,0,0,0,1,0,circle,hexagon,,,,,,,,,,,,,,,,,,,,,,,,,,,,,,,,,,,,,,,,,,,,,,,,,,,,,,
298267,2022-11-29_17h06.47.904,vts_reward_expectancy_bt,2022.2.4,MacIntel,62.5,Safari,1440,900,,,l,1.434,10,103,0,1,0,12,1,1,1,0,0,0,0,0,1,0,triangle,hexagon,,,,,,,,,,,,,,,,,,,,,,,,,,,,,,,,,,,,,,,,,,,,,,,,,,,,,,
298267,2022-11-29_17h06.47.904,vts_reward_expectancy_bt,2022.2.4,MacIntel,62.5,Safari,1440,900,,,a,1.098,10,113,0,1,1,13,7,1,0,0,1,0,0,1,0,0,hexagon,circle,,,,,,,,,,,,,,,,,,,,,,,,,,,,,,,,,,,,,,,,,,,,,,,,,,,,,,
298267,2022-11-29_17h06.47.904,vts_reward_expectancy_bt,2022.2.4,MacIntel,62.5,Safari,1440,900,,,l,0.683,1,114,0,1,2,14,4,1,0,1,0,0,0,0,1,0,circle,hexagon,,,,,,,,,,,,,,,,,,,,,,,,,,,,,,,,,,,,,,,,,,,,,,,,,,,,,,
298267,2022-11-29_17h06.47.904,vts_reward_expectancy_bt,2022.2.4,MacIntel,62.5,Safari,1440,900,,,a,1.562,10,124,0,1,3,15,5,1,0,1,0,0,0,0,0,1,circle,star,,,,,,,,,,,,,,,,,,,,,,,,,,,,,,,,,,,,,,,,,,,,,,,,,,,,,,
298267,2022-11-29_17h06.47.904,vts_reward_expectancy_bt,2022.2.4,MacIntel,62.5,Safari,1440,900,,,a,1.383,10,134,0,1,4,16,6,1,0,0,1,0,1,0,0,0,hexagon,triangle,,,,,,,,,,,,,,,,,,,,,,,,,,,,,,,,,,,,,,,,,,,,,,,,,,,,,,
298267,2022-11-29_17h06.47.904,vts_reward_expectancy_bt,2022.2.4,MacIntel,62.5,Safari,1440,900,,,l,7.75,1,135,0,1,5,17,0,1,1,0,0,0,0,1,0,0,triangle,circle,,,,,,,,,,,,,,,,,,,,,,,,,,,,,,,,,,,,,,,,,,,,,,,,,,,,,,
298267,2022-11-29_17h06.47.904,vts_reward_expectancy_bt,2022.2.4,MacIntel,62.5,Safari,1440,900,,,l,1.736,10,145,0,1,6,18,11,1,0,0,0,1,0,0,1,0,star,hexagon,,,,,,,,,,,,,,,,,,,,,,,,,,,,,,,,,,,,,,,,,,,,,,,,,,,,,,
298267,2022-11-29_17h06.47.904,vts_reward_expectancy_bt,2022.2.4,MacIntel,62.5,Safari,1440,900,,,a,1.206,1,146,0,1,7,19,2,1,1,0,0,0,0,0,0,1,triangle,star,,,,,,,,,,,,,,,,,,,,,,,,,,,,,,,,,,,,,,,,,,,,,,,,,,,,,,
298267,2022-11-29_17h06.47.904,vts_reward_expectancy_bt,2022.2.4,MacIntel,62.5,Safari,1440,900,,,l,1.219,10,156,0,1,8,20,10,1,0,0,0,1,0,1,0,0,star ,circle,,,,,,,,,,,,,,,,,,,,,,,,,,,,,,,,,,,,,,,,,,,,,,,,,,,,,,
298267,2022-11-29_17h06.47.904,vts_reward_expectancy_bt,2022.2.4,MacIntel,62.5,Safari,1440,900,,,a,4.866,1,157,0,1,9,21,9,1,0,0,0,1,1,0,0,0,star,triangle,,,,,,,,,,,,,,,,,,,,,,,,,,,,,,,,,,,,,,,,,,,,,,,,,,,,,,
298267,2022-11-29_17h06.47.904,vts_reward_expectancy_bt,2022.2.4,MacIntel,62.5,Safari,1440,900,,,a,1.294,1,158,0,1,10,22,8,1,0,0,1,0,0,0,0,1,hexagon,star,,,,,,,,,,,,,,,,,,,,,,,,,,,,,,,,,,,,,,,,,,,,,,,,,,,,,,
298267,2022-11-29_17h06.47.904,vts_reward_expectancy_bt,2022.2.4,MacIntel,62.5,Safari,1440,900,,,l,4.101,1,159,0,1,11,23,3,1,0,1,0,0,1,0,0,0,circle,triangle,,,,,,,,,,,,,,,,,,,,,,,,,,,,,,,,,,,,,,,,,,,,,,,,,,,,,,
298267,2022-11-29_17h06.47.904,vts_reward_expectancy_bt,2022.2.4,MacIntel,62.5,Safari,1440,900,,,l,6.502,10,169,0,2,0,24,2,1,1,0,0,0,0,0,0,1,triangle,star,,,,,,,,,,,,,,,,,,,,,,,,,,,,,,,,,,,,,,,,,,,,,,,,,,,,,,
298267,2022-11-29_17h06.47.904,vts_reward_expectancy_bt,2022.2.4,MacIntel,62.5,Safari,1440,900,,,a,1.869,10,179,0,2,1,25,7,1,0,0,1,0,0,1,0,0,hexagon,circle,,,,,,,,,,,,,,,,,,,,,,,,,,,,,,,,,,,,,,,,,,,,,,,,,,,,,,
298267,2022-11-29_17h06.47.904,vts_reward_expectancy_bt,2022.2.4,MacIntel,62.5,Safari,1440,900,,,l,1.313,10,189,0,2,2,26,4,1,0,1,0,0,0,0,1,0,circle,hexagon,,,,,,,,,,,,,,,,,,,,,,,,,,,,,,,,,,,,,,,,,,,,,,,,,,,,,,
298267,2022-11-29_17h06.47.904,vts_reward_expectancy_bt,2022.2.4,MacIntel,62.5,Safari,1440,900,,,a,2.932,1,190,0,2,3,27,3,1,0,1,0,0,1,0,0,0,circle,triangle,,,,,,,,,,,,,,,,,,,,,,,,,,,,,,,,,,,,,,,,,,,,,,,,,,,,,,
298267,2022-11-29_17h06.47.904,vts_reward_expectancy_bt,2022.2.4,MacIntel,62.5,Safari,1440,900,,,a,1.682,1,191,0,2,4,28,9,1,0,0,0,1,1,0,0,0,star,triangle,,,,,,,,,,,,,,,,,,,,,,,,,,,,,,,,,,,,,,,,,,,,,,,,,,,,,,
298267,2022-11-29_17h06.47.904,vts_reward_expectancy_bt,2022.2.4,MacIntel,62.5,Safari,1440,900,,,l,7.117,10,201,0,2,5,29,0,1,1,0,0,0,0,1,0,0,triangle,circle,,,,,,,,,,,,,,,,,,,,,,,,,,,,,,,,,,,,,,,,,,,,,,,,,,,,,,
298267,2022-11-29_17h06.47.904,vts_reward_expectancy_bt,2022.2.4,MacIntel,62.5,Safari,1440,900,,,l,7.616,10,211,0,2,6,30,1,1,1,0,0,0,0,0,1,0,triangle,hexagon,,,,,,,,,,,,,,,,,,,,,,,,,,,,,,,,,,,,,,,,,,,,,,,,,,,,,,
298267,2022-11-29_17h06.47.904,vts_reward_expectancy_bt,2022.2.4,MacIntel,62.5,Safari,1440,900,,,l,27.956,10,221,0,2,7,31,11,1,0,0,0,1,0,0,1,0,star,hexagon,,,,,,,,,,,,,,,,,,,,,,,,,,,,,,,,,,,,,,,,,,,,,,,,,,,,,,
298267,2022-11-29_17h06.47.904,vts_reward_expectancy_bt,2022.2.4,MacIntel,62.5,Safari,1440,900,,,a,12.865,10,231,0,2,8,32,8,1,0,0,1,0,0,0,0,1,hexagon,star,,,,,,,,,,,,,,,,,,,,,,,,,,,,,,,,,,,,,,,,,,,,,,,,,,,,,,
298267,2022-11-29_17h06.47.904,vts_reward_expectancy_bt,2022.2.4,MacIntel,62.5,Safari,1440,900,,,a,13.778,10,241,0,2,9,33,6,1,0,0,1,0,1,0,0,0,hexagon,triangle,,,,,,,,,,,,,,,,,,,,,,,,,,,,,,,,,,,,,,,,,,,,,,,,,,,,,,
298267,2022-11-29_17h06.47.904,vts_reward_expectancy_bt,2022.2.4,MacIntel,62.5,Safari,1440,900,,,a,9.547,10,251,0,2,10,34,10,1,0,0,0,1,0,1,0,0,star ,circle,,,,,,,,,,,,,,,,,,,,,,,,,,,,,,,,,,,,,,,,,,,,,,,,,,,,,,
298267,2022-11-29_17h06.47.904,vts_reward_expectancy_bt,2022.2.4,MacIntel,62.5,Safari,1440,900,,,l,4.862,1,252,0,2,11,35,5,1,0,1,0,0,0,0,0,1,circle,star,,,,,,,,,,,,,,,,,,,,,,,,,,,,,,,,,,,,,,,,,,,,,,,,,,,,,,
298267,2022-11-29_17h06.47.904,vts_reward_expectancy_bt,2022.2.4,MacIntel,62.5,Safari,1440,900,,,a,4.314,1,253,1,0,0,0,3,1,0,1,0,0,1,0,0,0,circle,triangle,,,,,,,,,,,,,,,,,,,,,,,,,,,,,,,,,,,,,,,,,,,,,,,,,,,,,,
298267,2022-11-29_17h06.47.904,vts_reward_expectancy_bt,2022.2.4,MacIntel,62.5,Safari,1440,900,,,a,5.633,10,263,1,0,1,1,2,1,1,0,0,0,0,0,0,1,triangle,star,,,,,,,,,,,,,,,,,,,,,,,,,,,,,,,,,,,,,,,,,,,,,,,,,,,,,,
298267,2022-11-29_17h06.47.904,vts_reward_expectancy_bt,2022.2.4,MacIntel,62.5,Safari,1440,900,,,a,16.948,10,273,1,0,2,2,7,1,0,0,1,0,0,1,0,0,hexagon,circle,,,,,,,,,,,,,,,,,,,,,,,,,,,,,,,,,,,,,,,,,,,,,,,,,,,,,,
298267,2022-11-29_17h06.47.904,vts_reward_expectancy_bt,2022.2.4,MacIntel,62.5,Safari,1440,900,,,a,8.884,1,274,1,0,3,3,8,1,0,0,1,0,0,0,0,1,hexagon,star,,,,,,,,,,,,,,,,,,,,,,,,,,,,,,,,,,,,,,,,,,,,,,,,,,,,,,
298267,2022-11-29_17h06.47.904,vts_reward_expectancy_bt,2022.2.4,MacIntel,62.5,Safari,1440,900,,,l,13.367,1,275,1,0,4,4,5,1,0,1,0,0,0,0,0,1,circle,star,,,,,,,,,,,,,,,,,,,,,,,,,,,,,,,,,,,,,,,,,,,,,,,,,,,,,,
298267,2022-11-29_17h06.47.904,vts_reward_expectancy_bt,2022.2.4,MacIntel,62.5,Safari,1440,900,,,l,3.848,10,285,1,0,5,5,1,1,1,0,0,0,0,0,1,0,triangle,hexagon,,,,,,,,,,,,,,,,,,,,,,,,,,,,,,,,,,,,,,,,,,,,,,,,,,,,,,
298267,2022-11-29_17h06.47.904,vts_reward_expectancy_bt,2022.2.4,MacIntel,62.5,Safari,1440,900,,,l,13.208,10,295,1,0,6,6,10,1,0,0,0,1,0,1,0,0,star ,circle,,,,,,,,,,,,,,,,,,,,,,,,,,,,,,,,,,,,,,,,,,,,,,,,,,,,,,
298267,2022-11-29_17h06.47.904,vts_reward_expectancy_bt,2022.2.4,MacIntel,62.5,Safari,1440,900,,,l,4.015,10,305,1,0,7,7,11,1,0,0,0,1,0,0,1,0,star,hexagon,,,,,,,,,,,,,,,,,,,,,,,,,,,,,,,,,,,,,,,,,,,,,,,,,,,,,,
298267,2022-11-29_17h06.47.904,vts_reward_expectancy_bt,2022.2.4,MacIntel,62.5,Safari,1440,900,,,a,2.22,1,306,1,0,8,8,0,1,1,0,0,0,0,1,0,0,triangle,circle,,,,,,,,,,,,,,,,,,,,,,,,,,,,,,,,,,,,,,,,,,,,,,,,,,,,,,
298267,2022-11-29_17h06.47.904,vts_reward_expectancy_bt,2022.2.4,MacIntel,62.5,Safari,1440,900,,,a,2.937,10,316,1,0,9,9,9,1,0,0,0,1,1,0,0,0,star,triangle,,,,,,,,,,,,,,,,,,,,,,,,,,,,,,,,,,,,,,,,,,,,,,,,,,,,,,
298267,2022-11-29_17h06.47.904,vts_reward_expectancy_bt,2022.2.4,MacIntel,62.5,Safari,1440,900,,,l,1.714,10,326,1,0,10,10,4,1,0,1,0,0,0,0,1,0,circle,hexagon,,,,,,,,,,,,,,,,,,,,,,,,,,,,,,,,,,,,,,,,,,,,,,,,,,,,,,
298267,2022-11-29_17h06.47.904,vts_reward_expectancy_bt,2022.2.4,MacIntel,62.5,Safari,1440,900,,,l,1.468,1,327,1,0,11,11,6,1,0,0,1,0,1,0,0,0,hexagon,triangle,,,,,,,,,,,,,,,,,,,,,,,,,,,,,,,,,,,,,,,,,,,,,,,,,,,,,,
298267,2022-11-29_17h06.47.904,vts_reward_expectancy_bt,2022.2.4,MacIntel,62.5,Safari,1440,900,,,a,6.932,10,337,1,1,0,12,5,1,0,1,0,0,0,0,0,1,circle,star,,,,,,,,,,,,,,,,,,,,,,,,,,,,,,,,,,,,,,,,,,,,,,,,,,,,,,
298267,2022-11-29_17h06.47.904,vts_reward_expectancy_bt,2022.2.4,MacIntel,62.5,Safari,1440,900,,,l,5.689,1,338,1,1,1,13,1,1,1,0,0,0,0,0,1,0,triangle,hexagon,,,,,,,,,,,,,,,,,,,,,,,,,,,,,,,,,,,,,,,,,,,,,,,,,,,,,,
298267,2022-11-29_17h06.47.904,vts_reward_expectancy_bt,2022.2.4,MacIntel,62.5,Safari,1440,900,,,a,4.567,10,348,1,1,2,14,0,1,1,0,0,0,0,1,0,0,triangle,circle,,,,,,,,,,,,,,,,,,,,,,,,,,,,,,,,,,,,,,,,,,,,,,,,,,,,,,
298267,2022-11-29_17h06.47.904,vts_reward_expectancy_bt,2022.2.4,MacIntel,62.5,Safari,1440,900,,,l,3.869,1,349,1,1,3,15,8,1,0,0,1,0,0,0,0,1,hexagon,star,,,,,,,,,,,,,,,,,,,,,,,,,,,,,,,,,,,,,,,,,,,,,,,,,,,,,,
298267,2022-11-29_17h06.47.904,vts_reward_expectancy_bt,2022.2.4,MacIntel,62.5,Safari,1440,900,,,l,4.333,1,350,1,1,4,16,9,1,0,0,0,1,1,0,0,0,star,triangle,,,,,,,,,,,,,,,,,,,,,,,,,,,,,,,,,,,,,,,,,,,,,,,,,,,,,,
298267,2022-11-29_17h06.47.904,vts_reward_expectancy_bt,2022.2.4,MacIntel,62.5,Safari,1440,900,,,l,4.577,10,360,1,1,5,17,11,1,0,0,0,1,0,0,1,0,star,hexagon,,,,,,,,,,,,,,,,,,,,,,,,,,,,,,,,,,,,,,,,,,,,,,,,,,,,,,
298267,2022-11-29_17h06.47.904,vts_reward_expectancy_bt,2022.2.4,MacIntel,62.5,Safari,1440,900,,,a,8.967,1,361,1,1,6,18,2,1,1,0,0,0,0,0,0,1,triangle,star,,,,,,,,,,,,,,,,,,,,,,,,,,,,,,,,,,,,,,,,,,,,,,,,,,,,,,
298267,2022-11-29_17h06.47.904,vts_reward_expectancy_bt,2022.2.4,MacIntel,62.5,Safari,1440,900,,,l,3.036,1,362,1,1,7,19,3,1,0,1,0,0,1,0,0,0,circle,triangle,,,,,,,,,,,,,,,,,,,,,,,,,,,,,,,,,,,,,,,,,,,,,,,,,,,,,,
298267,2022-11-29_17h06.47.904,vts_reward_expectancy_bt,2022.2.4,MacIntel,62.5,Safari,1440,900,,,a,8.715,1,363,1,1,8,20,10,1,0,0,0,1,0,1,0,0,star ,circle,,,,,,,,,,,,,,,,,,,,,,,,,,,,,,,,,,,,,,,,,,,,,,,,,,,,,,
298267,2022-11-29_17h06.47.904,vts_reward_expectancy_bt,2022.2.4,MacIntel,62.5,Safari,1440,900,,,a,1.348,10,373,1,1,9,21,7,1,0,0,1,0,0,1,0,0,hexagon,circle,,,,,,,,,,,,,,,,,,,,,,,,,,,,,,,,,,,,,,,,,,,,,,,,,,,,,,
298267,2022-11-29_17h06.47.904,vts_reward_expectancy_bt,2022.2.4,MacIntel,62.5,Safari,1440,900,,,l,30.742,1,374,1,1,10,22,6,1,0,0,1,0,1,0,0,0,hexagon,triangle,,,,,,,,,,,,,,,,,,,,,,,,,,,,,,,,,,,,,,,,,,,,,,,,,,,,,,
298267,2022-11-29_17h06.47.904,vts_reward_expectancy_bt,2022.2.4,MacIntel,62.5,Safari,1440,900,,,a,7.281,10,384,1,1,11,23,4,1,0,1,0,0,0,0,1,0,circle,hexagon,,,,,,,,,,,,,,,,,,,,,,,,,,,,,,,,,,,,,,,,,,,,,,,,,,,,,,
298267,2022-11-29_17h06.47.904,vts_reward_expectancy_bt,2022.2.4,MacIntel,62.5,Safari,1440,900,,,a,11.335,10,394,1,2,0,24,8,1,0,0,1,0,0,0,0,1,hexagon,star,,,,,,,,,,,,,,,,,,,,,,,,,,,,,,,,,,,,,,,,,,,,,,,,,,,,,,
298267,2022-11-29_17h06.47.904,vts_reward_expectancy_bt,2022.2.4,MacIntel,62.5,Safari,1440,900,,,l,13.935,1,395,1,2,1,25,6,1,0,0,1,0,1,0,0,0,hexagon,triangle,,,,,,,,,,,,,,,,,,,,,,,,,,,,,,,,,,,,,,,,,,,,,,,,,,,,,,
298267,2022-11-29_17h06.47.904,vts_reward_expectancy_bt,2022.2.4,MacIntel,62.5,Safari,1440,900,,,l,10.047,10,405,1,2,2,26,10,1,0,0,0,1,0,1,0,0,star ,circle,,,,,,,,,,,,,,,,,,,,,,,,,,,,,,,,,,,,,,,,,,,,,,,,,,,,,,
298267,2022-11-29_17h06.47.904,vts_reward_expectancy_bt,2022.2.4,MacIntel,62.5,Safari,1440,900,,,a,14.941,1,406,1,2,3,27,11,1,0,0,0,1,0,0,1,0,star,hexagon,,,,,,,,,,,,,,,,,,,,,,,,,,,,,,,,,,,,,,,,,,,,,,,,,,,,,,
298267,2022-11-29_17h06.47.904,vts_reward_expectancy_bt,2022.2.4,MacIntel,62.5,Safari,1440,900,,,a,9.738,1,407,1,2,4,28,7,1,0,0,1,0,0,1,0,0,hexagon,circle,,,,,,,,,,,,,,,,,,,,,,,,,,,,,,,,,,,,,,,,,,,,,,,,,,,,,,
298267,2022-11-29_17h06.47.904,vts_reward_expectancy_bt,2022.2.4,MacIntel,62.5,Safari,1440,900,,,a,1.462,10,417,1,2,5,29,5,1,0,1,0,0,0,0,0,1,circle,star,,,,,,,,,,,,,,,,,,,,,,,,,,,,,,,,,,,,,,,,,,,,,,,,,,,,,,
298267,2022-11-29_17h06.47.904,vts_reward_expectancy_bt,2022.2.4,MacIntel,62.5,Safari,1440,900,,,a,4.533,10,427,1,2,6,30,3,1,0,1,0,0,1,0,0,0,circle,triangle,,,,,,,,,,,,,,,,,,,,,,,,,,,,,,,,,,,,,,,,,,,,,,,,,,,,,,
298267,2022-11-29_17h06.47.904,vts_reward_expectancy_bt,2022.2.4,MacIntel,62.5,Safari,1440,900,,,l,1.797,10,437,1,2,7,31,0,1,1,0,0,0,0,1,0,0,triangle,circle,,,,,,,,,,,,,,,,,,,,,,,,,,,,,,,,,,,,,,,,,,,,,,,,,,,,,,
298267,2022-11-29_17h06.47.904,vts_reward_expectancy_bt,2022.2.4,MacIntel,62.5,Safari,1440,900,,,l,1.883,10,447,1,2,8,32,4,1,0,1,0,0,0,0,1,0,circle,hexagon,,,,,,,,,,,,,,,,,,,,,,,,,,,,,,,,,,,,,,,,,,,,,,,,,,,,,,
298267,2022-11-29_17h06.47.904,vts_reward_expectancy_bt,2022.2.4,MacIntel,62.5,Safari,1440,900,,,a,8.108,10,457,1,2,9,33,2,1,1,0,0,0,0,0,0,1,triangle,star,,,,,,,,,,,,,,,,,,,,,,,,,,,,,,,,,,,,,,,,,,,,,,,,,,,,,,
298267,2022-11-29_17h06.47.904,vts_reward_expectancy_bt,2022.2.4,MacIntel,62.5,Safari,1440,900,,,l,22.038,10,467,1,2,10,34,1,1,1,0,0,0,0,0,1,0,triangle,hexagon,,,,,,,,,,,,,,,,,,,,,,,,,,,,,,,,,,,,,,,,,,,,,,,,,,,,,,
298267,2022-11-29_17h06.47.904,vts_reward_expectancy_bt,2022.2.4,MacIntel,62.5,Safari,1440,900,,,l,14.899,1,468,1,2,11,35,9,1,0,0,0,1,1,0,0,0,star,triangle,,,,,,,,,,,,,,,,,,,,,,,,,,,,,,,,,,,,,,,,,,,,,,,,,,,,,,
298267,2022-11-29_17h06.47.904,vts_reward_expectancy_bt,2022.2.4,MacIntel,62.5,Safari,1440,900,,,l,12.528,10,478,2,0,0,0,1,1,1,0,0,0,0,0,1,0,triangle,hexagon,,,,,,,,,,,,,,,,,,,,,,,,,,,,,,,,,,,,,,,,,,,,,,,,,,,,,,
298267,2022-11-29_17h06.47.904,vts_reward_expectancy_bt,2022.2.4,MacIntel,62.5,Safari,1440,900,,,a,14.554,10,488,2,0,1,1,6,1,0,0,1,0,1,0,0,0,hexagon,triangle,,,,,,,,,,,,,,,,,,,,,,,,,,,,,,,,,,,,,,,,,,,,,,,,,,,,,,
298267,2022-11-29_17h06.47.904,vts_reward_expectancy_bt,2022.2.4,MacIntel,62.5,Safari,1440,900,,,a,21.96,1,489,2,0,2,2,8,1,0,0,1,0,0,0,0,1,hexagon,star,,,,,,,,,,,,,,,,,,,,,,,,,,,,,,,,,,,,,,,,,,,,,,,,,,,,,,
298267,2022-11-29_17h06.47.904,vts_reward_expectancy_bt,2022.2.4,MacIntel,62.5,Safari,1440,900,,,l,9.74,10,499,2,0,3,3,0,1,1,0,0,0,0,1,0,0,triangle,circle,,,,,,,,,,,,,,,,,,,,,,,,,,,,,,,,,,,,,,,,,,,,,,,,,,,,,,
298267,2022-11-29_17h06.47.904,vts_reward_expectancy_bt,2022.2.4,MacIntel,62.5,Safari,1440,900,,,a,10.927,10,509,2,0,4,4,7,1,0,0,1,0,0,1,0,0,hexagon,circle,,,,,,,,,,,,,,,,,,,,,,,,,,,,,,,,,,,,,,,,,,,,,,,,,,,,,,
298267,2022-11-29_17h06.47.904,vts_reward_expectancy_bt,2022.2.4,MacIntel,62.5,Safari,1440,900,,,l,12.756,10,519,2,0,5,5,4,1,0,1,0,0,0,0,1,0,circle,hexagon,,,,,,,,,,,,,,,,,,,,,,,,,,,,,,,,,,,,,,,,,,,,,,,,,,,,,,
298267,2022-11-29_17h06.47.904,vts_reward_expectancy_bt,2022.2.4,MacIntel,62.5,Safari,1440,900,,,a,10.601,1,520,2,0,6,6,2,1,1,0,0,0,0,0,0,1,triangle,star,,,,,,,,,,,,,,,,,,,,,,,,,,,,,,,,,,,,,,,,,,,,,,,,,,,,,,
298267,2022-11-29_17h06.47.904,vts_reward_expectancy_bt,2022.2.4,MacIntel,62.5,Safari,1440,900,,,l,11.737,1,521,2,0,7,7,3,1,0,1,0,0,1,0,0,0,circle,triangle,,,,,,,,,,,,,,,,,,,,,,,,,,,,,,,,,,,,,,,,,,,,,,,,,,,,,,
298267,2022-11-29_17h06.47.904,vts_reward_expectancy_bt,2022.2.4,MacIntel,62.5,Safari,1440,900,,,l,10.108,1,522,2,0,8,8,9,1,0,0,0,1,1,0,0,0,star,triangle,,,,,,,,,,,,,,,,,,,,,,,,,,,,,,,,,,,,,,,,,,,,,,,,,,,,,,
298267,2022-11-29_17h06.47.904,vts_reward_expectancy_bt,2022.2.4,MacIntel,62.5,Safari,1440,900,,,a,12.415,10,532,2,0,9,9,5,1,0,1,0,0,0,0,0,1,circle,star,,,,,,,,,,,,,,,,,,,,,,,,,,,,,,,,,,,,,,,,,,,,,,,,,,,,,,
298267,2022-11-29_17h06.47.904,vts_reward_expectancy_bt,2022.2.4,MacIntel,62.5,Safari,1440,900,,,l,12.803,10,542,2,0,10,10,10,1,0,0,0,1,0,1,0,0,star ,circle,,,,,,,,,,,,,,,,,,,,,,,,,,,,,,,,,,,,,,,,,,,,,,,,,,,,,,
298267,2022-11-29_17h06.47.904,vts_reward_expectancy_bt,2022.2.4,MacIntel,62.5,Safari,1440,900,,,l,17.771,1,543,2,0,11,11,11,1,0,0,0,1,0,0,1,0,star,hexagon,,,,,,,,,,,,,,,,,,,,,,,,,,,,,,,,,,,,,,,,,,,,,,,,,,,,,,
298267,2022-11-29_17h06.47.904,vts_reward_expectancy_bt,2022.2.4,MacIntel,62.5,Safari,1440,900,,,l,8.185,1,544,2,1,0,12,2,1,1,0,0,0,0,0,0,1,triangle,star,,,,,,,,,,,,,,,,,,,,,,,,,,,,,,,,,,,,,,,,,,,,,,,,,,,,,,
298267,2022-11-29_17h06.47.904,vts_reward_expectancy_bt,2022.2.4,MacIntel,62.5,Safari,1440,900,,,a,15.783,1,545,2,1,1,13,9,1,0,0,0,1,1,0,0,0,star,triangle,,,,,,,,,,,,,,,,,,,,,,,,,,,,,,,,,,,,,,,,,,,,,,,,,,,,,,
298267,2022-11-29_17h06.47.904,vts_reward_expectancy_bt,2022.2.4,MacIntel,62.5,Safari,1440,900,,,l,10.229,10,555,2,1,2,14,4,1,0,1,0,0,0,0,1,0,circle,hexagon,,,,,,,,,,,,,,,,,,,,,,,,,,,,,,,,,,,,,,,,,,,,,,,,,,,,,,
298267,2022-11-29_17h06.47.904,vts_reward_expectancy_bt,2022.2.4,MacIntel,62.5,Safari,1440,900,,,a,1.817,10,565,2,1,3,15,5,1,0,1,0,0,0,0,0,1,circle,star,,,,,,,,,,,,,,,,,,,,,,,,,,,,,,,,,,,,,,,,,,,,,,,,,,,,,,
298267,2022-11-29_17h06.47.904,vts_reward_expectancy_bt,2022.2.4,MacIntel,62.5,Safari,1440,900,,,a,1.082,1,566,2,1,4,16,6,1,0,0,1,0,1,0,0,0,hexagon,triangle,,,,,,,,,,,,,,,,,,,,,,,,,,,,,,,,,,,,,,,,,,,,,,,,,,,,,,
298267,2022-11-29_17h06.47.904,vts_reward_expectancy_bt,2022.2.4,MacIntel,62.5,Safari,1440,900,,,a,0.935,10,576,2,1,5,17,7,1,0,0,1,0,0,1,0,0,hexagon,circle,,,,,,,,,,,,,,,,,,,,,,,,,,,,,,,,,,,,,,,,,,,,,,,,,,,,,,
298267,2022-11-29_17h06.47.904,vts_reward_expectancy_bt,2022.2.4,MacIntel,62.5,Safari,1440,900,,,l,3.337,1,577,2,1,6,18,8,1,0,0,1,0,0,0,0,1,hexagon,star,,,,,,,,,,,,,,,,,,,,,,,,,,,,,,,,,,,,,,,,,,,,,,,,,,,,,,
298267,2022-11-29_17h06.47.904,vts_reward_expectancy_bt,2022.2.4,MacIntel,62.5,Safari,1440,900,,,l,0.948,1,578,2,1,7,19,11,1,0,0,0,1,0,0,1,0,star,hexagon,,,,,,,,,,,,,,,,,,,,,,,,,,,,,,,,,,,,,,,,,,,,,,,,,,,,,,
298267,2022-11-29_17h06.47.904,vts_reward_expectancy_bt,2022.2.4,MacIntel,62.5,Safari,1440,900,,,l,2.906,10,588,2,1,8,20,1,1,1,0,0,0,0,0,1,0,triangle,hexagon,,,,,,,,,,,,,,,,,,,,,,,,,,,,,,,,,,,,,,,,,,,,,,,,,,,,,,
298267,2022-11-29_17h06.47.904,vts_reward_expectancy_bt,2022.2.4,MacIntel,62.5,Safari,1440,900,,,a,1.868,10,598,2,1,9,21,10,1,0,0,0,1,0,1,0,0,star ,circle,,,,,,,,,,,,,,,,,,,,,,,,,,,,,,,,,,,,,,,,,,,,,,,,,,,,,,
298267,2022-11-29_17h06.47.904,vts_reward_expectancy_bt,2022.2.4,MacIntel,62.5,Safari,1440,900,,,a,2.312,10,608,2,1,10,22,3,1,0,1,0,0,1,0,0,0,circle,triangle,,,,,,,,,,,,,,,,,,,,,,,,,,,,,,,,,,,,,,,,,,,,,,,,,,,,,,
298267,2022-11-29_17h06.47.904,vts_reward_expectancy_bt,2022.2.4,MacIntel,62.5,Safari,1440,900,,,a,1.513,10,618,2,1,11,23,0,1,1,0,0,0,0,1,0,0,triangle,circle,,,,,,,,,,,,,,,,,,,,,,,,,,,,,,,,,,,,,,,,,,,,,,,,,,,,,,
298267,2022-11-29_17h06.47.904,vts_reward_expectancy_bt,2022.2.4,MacIntel,62.5,Safari,1440,900,,,l,5.555,1,619,2,2,0,24,8,1,0,0,1,0,0,0,0,1,hexagon,star,,,,,,,,,,,,,,,,,,,,,,,,,,,,,,,,,,,,,,,,,,,,,,,,,,,,,,
298267,2022-11-29_17h06.47.904,vts_reward_expectancy_bt,2022.2.4,MacIntel,62.5,Safari,1440,900,,,a,1.476,10,629,2,2,1,25,7,1,0,0,1,0,0,1,0,0,hexagon,circle,,,,,,,,,,,,,,,,,,,,,,,,,,,,,,,,,,,,,,,,,,,,,,,,,,,,,,
298267,2022-11-29_17h06.47.904,vts_reward_expectancy_bt,2022.2.4,MacIntel,62.5,Safari,1440,900,,,l,2.877,1,630,2,2,2,26,6,1,0,0,1,0,1,0,0,0,hexagon,triangle,,,,,,,,,,,,,,,,,,,,,,,,,,,,,,,,,,,,,,,,,,,,,,,,,,,,,,
298267,2022-11-29_17h06.47.904,vts_reward_expectancy_bt,2022.2.4,MacIntel,62.5,Safari,1440,900,,,l,1.555,1,631,2,2,3,27,4,1,0,1,0,0,0,0,1,0,circle,hexagon,,,,,,,,,,,,,,,,,,,,,,,,,,,,,,,,,,,,,,,,,,,,,,,,,,,,,,
298267,2022-11-29_17h06.47.904,vts_reward_expectancy_bt,2022.2.4,MacIntel,62.5,Safari,1440,900,,,a,7.953,1,632,2,2,4,28,2,1,1,0,0,0,0,0,0,1,triangle,star,,,,,,,,,,,,,,,,,,,,,,,,,,,,,,,,,,,,,,,,,,,,,,,,,,,,,,
298267,2022-11-29_17h06.47.904,vts_reward_expectancy_bt,2022.2.4,MacIntel,62.5,Safari,1440,900,,,a,5.799,1,633,2,2,5,29,9,1,0,0,0,1,1,0,0,0,star,triangle,,,,,,,,,,,,,,,,,,,,,,,,,,,,,,,,,,,,,,,,,,,,,,,,,,,,,,
298267,2022-11-29_17h06.47.904,vts_reward_expectancy_bt,2022.2.4,MacIntel,62.5,Safari,1440,900,,,l,1.872,1,634,2,2,6,30,11,1,0,0,0,1,0,0,1,0,star,hexagon,,,,,,,,,,,,,,,,,,,,,,,,,,,,,,,,,,,,,,,,,,,,,,,,,,,,,,
298267,2022-11-29_17h06.47.904,vts_reward_expectancy_bt,2022.2.4,MacIntel,62.5,Safari,1440,900,,,a,0.852,10,644,2,2,7,31,5,1,0,1,0,0,0,0,0,1,circle,star,,,,,,,,,,,,,,,,,,,,,,,,,,,,,,,,,,,,,,,,,,,,,,,,,,,,,,
298267,2022-11-29_17h06.47.904,vts_reward_expectancy_bt,2022.2.4,MacIntel,62.5,Safari,1440,900,,,l,1.546,10,654,2,2,8,32,10,1,0,0,0,1,0,1,0,0,star ,circle,,,,,,,,,,,,,,,,,,,,,,,,,,,,,,,,,,,,,,,,,,,,,,,,,,,,,,
298267,2022-11-29_17h06.47.904,vts_reward_expectancy_bt,2022.2.4,MacIntel,62.5,Safari,1440,900,,,a,2.21,10,664,2,2,9,33,1,1,1,0,0,0,0,0,1,0,triangle,hexagon,,,,,,,,,,,,,,,,,,,,,,,,,,,,,,,,,,,,,,,,,,,,,,,,,,,,,,
298267,2022-11-29_17h06.47.904,vts_reward_expectancy_bt,2022.2.4,MacIntel,62.5,Safari,1440,900,,,a,2.386,1,665,2,2,10,34,0,1,1,0,0,0,0,1,0,0,triangle,circle,,,,,,,,,,,,,,,,,,,,,,,,,,,,,,,,,,,,,,,,,,,,,,,,,,,,,,
298267,2022-11-29_17h06.47.904,vts_reward_expectancy_bt,2022.2.4,MacIntel,62.5,Safari,1440,900,,,a,2.131,10,675,2,2,11,35,3,1,0,1,0,0,1,0,0,0,circle,triangle,,,,,,,,,,,,,,,,,,,,,,,,,,,,,,,,,,,,,,,,,,,,,,,,,,,,,,
298267,2022-11-29_17h06.47.904,vts_reward_expectancy_bt,2022.2.4,MacIntel,62.5,Safari,1440,900,,,,,,,,,,,,,,,,,,,,,,,181,D,hexagon,0,0,,0,0,0,0,0,1,,,,,,,,,,,,,,,,,,,,,,,,,,,,,,,,,,,,,,,,,,
298267,2022-11-29_17h06.47.904,vts_reward_expectancy_bt,2022.2.4,MacIntel,62.5,Safari,1440,900,,,,,,,,,,,,,,,,,,,,,,,167,B,triangle,0,1,,0,1,0,1,0,1,,,,,,,,,,,,,,,,,,,,,,,,,,,,,,,,,,,,,,,,,,
298267,2022-11-29_17h06.47.904,vts_reward_expectancy_bt,2022.2.4,MacIntel,62.5,Safari,1440,900,,,,,,,,,,,,,,,,,,,,,,,125,W,circle,1,1,d,0,2,0,2,0,1,0.677,,,,,,,,,,,,,,,,,,,,,,,,,,,,,,,,,,,,,,,,,
298267,2022-11-29_17h06.47.904,vts_reward_expectancy_bt,2022.2.4,MacIntel,62.5,Safari,1440,900,,,,,,,,,,,,,,,,,,,,,,,132,H,star,0,0,f,0,3,0,3,0,1,1.191,,,,,,,,,,,,,,,,,,,,,,,,,,,,,,,,,,,,,,,,,
298267,2022-11-29_17h06.47.904,vts_reward_expectancy_bt,2022.2.4,MacIntel,62.5,Safari,1440,900,,,,,,,,,,,,,,,,,,,,,,,139,Y,hexagon,1,1,d,0,4,0,4,0,1,0.361,,,,,,,,,,,,,,,,,,,,,,,,,,,,,,,,,,,,,,,,,
298267,2022-11-29_17h06.47.904,vts_reward_expectancy_bt,2022.2.4,MacIntel,62.5,Safari,1440,900,,,,,,,,,,,,,,,,,,,,,,,174,U,triangle,1,0,f,0,5,0,5,0,1,0.31,,,,,,,,,,,,,,,,,,,,,,,,,,,,,,,,,,,,,,,,,
298267,2022-11-29_17h06.47.904,vts_reward_expectancy_bt,2022.2.4,MacIntel,62.5,Safari,1440,900,,,,,,,,,,,,,,,,,,,,,,,146,F,circle,0,0,f,0,6,0,6,0,1,0.724,,,,,,,,,,,,,,,,,,,,,,,,,,,,,,,,,,,,,,,,,
298267,2022-11-29_17h06.47.904,vts_reward_expectancy_bt,2022.2.4,MacIntel,62.5,Safari,1440,900,,,,,,,,,,,,,,,,,,,,,,,160,S,star,0,1,d,0,7,0,7,0,1,0.516,,,,,,,,,,,,,,,,,,,,,,,,,,,,,,,,,,,,,,,,,
298267,2022-11-29_17h06.47.904,vts_reward_expectancy_bt,2022.2.4,MacIntel,62.5,Safari,1440,900,,,,,,,,,,,,,,,,,,,,,,,181,D,hexagon,1,1,f,0,8,0,8,0,1,0.314,,,,,,,,,,,,,,,,,,,,,,,,,,,,,,,,,,,,,,,,,
298267,2022-11-29_17h06.47.904,vts_reward_expectancy_bt,2022.2.4,MacIntel,62.5,Safari,1440,900,,,,,,,,,,,,,,,,,,,,,,,167,B,circle,0,0,d,0,9,0,9,0,1,0.963,,,,,,,,,,,,,,,,,,,,,,,,,,,,,,,,,,,,,,,,,
298267,2022-11-29_17h06.47.904,vts_reward_expectancy_bt,2022.2.4,MacIntel,62.5,Safari,1440,900,,,,,,,,,,,,,,,,,,,,,,,132,F,triangle,1,1,d,1,0,0,0,0,1,1.977,,,,,,,,,,,,,,,,,,,,,,,,,,,,,,,,,,,,,,,,,
298267,2022-11-29_17h06.47.904,vts_reward_expectancy_bt,2022.2.4,MacIntel,62.5,Safari,1440,900,,,,,,,,,,,,,,,,,,,,,,,181,S,circle,1,0,f,1,1,0,1,0,1,0.677,,,,,,,,,,,,,,,,,,,,,,,,,,,,,,,,,,,,,,,,,
298267,2022-11-29_17h06.47.904,vts_reward_expectancy_bt,2022.2.4,MacIntel,62.5,Safari,1440,900,,,,,,,,,,,,,,,,,,,,,,,146,W,hexagon,1,0,d,1,2,0,2,0,1,0.658,,,,,,,,,,,,,,,,,,,,,,,,,,,,,,,,,,,,,,,,,
298267,2022-11-29_17h06.47.904,vts_reward_expectancy_bt,2022.2.4,MacIntel,62.5,Safari,1440,900,,,,,,,,,,,,,,,,,,,,,,,174,U,star,1,0,f,1,3,0,3,0,1,0.531,,,,,,,,,,,,,,,,,,,,,,,,,,,,,,,,,,,,,,,,,
298267,2022-11-29_17h06.47.904,vts_reward_expectancy_bt,2022.2.4,MacIntel,62.5,Safari,1440,900,,,,,,,,,,,,,,,,,,,,,,,125,B,triangle,1,0,d,1,4,0,4,0,1,0.642,,,,,,,,,,,,,,,,,,,,,,,,,,,,,,,,,,,,,,,,,
298267,2022-11-29_17h06.47.904,vts_reward_expectancy_bt,2022.2.4,MacIntel,62.5,Safari,1440,900,,,,,,,,,,,,,,,,,,,,,,,160,Y,circle,1,0,f,1,5,0,5,0,1,0.748,,,,,,,,,,,,,,,,,,,,,,,,,,,,,,,,,,,,,,,,,
298267,2022-11-29_17h06.47.904,vts_reward_expectancy_bt,2022.2.4,MacIntel,62.5,Safari,1440,900,,,,,,,,,,,,,,,,,,,,,,,167,D,hexagon,1,0,f,1,6,0,6,0,1,0.595,,,,,,,,,,,,,,,,,,,,,,,,,,,,,,,,,,,,,,,,,
298267,2022-11-29_17h06.47.904,vts_reward_expectancy_bt,2022.2.4,MacIntel,62.5,Safari,1440,900,,,,,,,,,,,,,,,,,,,,,,,139,H,star,1,0,d,1,7,0,7,0,1,0.681,,,,,,,,,,,,,,,,,,,,,,,,,,,,,,,,,,,,,,,,,
298267,2022-11-29_17h06.47.904,vts_reward_expectancy_bt,2022.2.4,MacIntel,62.5,Safari,1440,900,,,,,,,,,,,,,,,,,,,,,,,132,F,star,1,0,d,1,8,0,8,0,1,0.548,,,,,,,,,,,,,,,,,,,,,,,,,,,,,,,,,,,,,,,,,
298267,2022-11-29_17h06.47.904,vts_reward_expectancy_bt,2022.2.4,MacIntel,62.5,Safari,1440,900,,,,,,,,,,,,,,,,,,,,,,,181,S,hexagon,1,0,f,1,9,0,9,0,1,0.491,,,,,,,,,,,,,,,,,,,,,,,,,,,,,,,,,,,,,,,,,
298267,2022-11-29_17h06.47.904,vts_reward_expectancy_bt,2022.2.4,MacIntel,62.5,Safari,1440,900,,,,,,,,,,,,,,,,,,,,,,,132,F,star,1,0,,2,,,,,,,j,0.961,0,0,0,0,1,,,,,,,,,,,,,,,,,,,,,,,,,,,,,,,,,,
298267,2022-11-29_17h06.47.904,vts_reward_expectancy_bt,2022.2.4,MacIntel,62.5,Safari,1440,900,,,,,,,,,,,,,,,,,,,,,,,139,D,circle,1,0,,2,,,,,,,j,0.667,1,0,1,0,1,,,,,,,,,,,,,,,,,,,,,,,,,,,,,,,,,,
298267,2022-11-29_17h06.47.904,vts_reward_expectancy_bt,2022.2.4,MacIntel,62.5,Safari,1440,900,,,,,,,,,,,,,,,,,,,,,,,160,Y,triangle,1,0,,2,,,,,,,k,0.546,2,0,2,0,1,,,,,,,,,,,,,,,,,,,,,,,,,,,,,,,,,,
298267,2022-11-29_17h06.47.904,vts_reward_expectancy_bt,2022.2.4,MacIntel,62.5,Safari,1440,900,,,,,,,,,,,,,,,,,,,,,,,174,S,hexagon,1,0,,2,,,,,,,k,0.594,3,0,3,0,1,,,,,,,,,,,,,,,,,,,,,,,,,,,,,,,,,,
298267,2022-11-29_17h06.47.904,vts_reward_expectancy_bt,2022.2.4,MacIntel,62.5,Safari,1440,900,,,,,,,,,,,,,,,,,,,,,,,146,U,star,1,0,,2,,,,,,,k,0.527,4,0,4,0,1,,,,,,,,,,,,,,,,,,,,,,,,,,,,,,,,,,
298267,2022-11-29_17h06.47.904,vts_reward_expectancy_bt,2022.2.4,MacIntel,62.5,Safari,1440,900,,,,,,,,,,,,,,,,,,,,,,,167,H,circle,1,0,,2,,,,,,,j,0.508,5,0,5,0,1,,,,,,,,,,,,,,,,,,,,,,,,,,,,,,,,,,
298267,2022-11-29_17h06.47.904,vts_reward_expectancy_bt,2022.2.4,MacIntel,62.5,Safari,1440,900,,,,,,,,,,,,,,,,,,,,,,,181,W,triangle,1,0,,2,,,,,,,k,0.468,6,0,6,0,1,,,,,,,,,,,,,,,,,,,,,,,,,,,,,,,,,,
298267,2022-11-29_17h06.47.904,vts_reward_expectancy_bt,2022.2.4,MacIntel,62.5,Safari,1440,900,,,,,,,,,,,,,,,,,,,,,,,125,B,hexagon,1,0,,2,,,,,,,j,0.611,7,0,7,0,1,,,,,,,,,,,,,,,,,,,,,,,,,,,,,,,,,,
298267,2022-11-29_17h06.47.904,vts_reward_expectancy_bt,2022.2.4,MacIntel,62.5,Safari,1440,900,,,,,,,,,,,,,,,,,,,,,,,132,F,hexagon,1,0,,2,,,,,,,j,0.793,8,0,8,0,1,,,,,,,,,,,,,,,,,,,,,,,,,,,,,,,,,,
298267,2022-11-29_17h06.47.904,vts_reward_expectancy_bt,2022.2.4,MacIntel,62.5,Safari,1440,900,,,,,,,,,,,,,,,,,,,,,,,139,D,star,1,0,,2,,,,,,,j,0.534,9,0,9,0,1,,,,,,,,,,,,,,,,,,,,,,,,,,,,,,,,,,
298267,2022-11-29_17h06.47.904,vts_reward_expectancy_bt,2022.2.4,MacIntel,62.5,Safari,1440,900,,,,,0,675,,,,,,,,,,,,,,,,,181,S,star,1,0,,3,,,,,,,,,,,,,,-1,letter,NA,k,1.583,vtsPrac,0,0,0,0,1,,,,,,,,,,,,,,,,,,,,,,,
298267,2022-11-29_17h06.47.904,vts_reward_expectancy_bt,2022.2.4,MacIntel,62.5,Safari,1440,900,,,,,0,675,,,,,,,,,,,,,,,,,160,D,triangle,1,0,,3,,,,,,,,,,,,,,switch,number,numSwt,f,1.384,vtsPrac,1,0,1,0,1,,,,,,,,,,,,,,,,,,,,,,,
298267,2022-11-29_17h06.47.904,vts_reward_expectancy_bt,2022.2.4,MacIntel,62.5,Safari,1440,900,,,,,0,675,,,,,,,,,,,,,,,,,146,Y,star,1,0,,3,,,,,,,,,,,,,,switch,letter,lettSwt,k,0.995,vtsPrac,2,0,2,0,1,,,,,,,,,,,,,,,,,,,,,,,
298267,2022-11-29_17h06.47.904,vts_reward_expectancy_bt,2022.2.4,MacIntel,62.5,Safari,1440,900,,,,,0,675,,,,,,,,,,,,,,,,,167,U,triangle,1,0,,3,,,,,,,,,,,,,,repeat,letter,lettRpt,k,0.772,vtsPrac,3,0,3,0,1,,,,,,,,,,,,,,,,,,,,,,,
298267,2022-11-29_17h06.47.904,vts_reward_expectancy_bt,2022.2.4,MacIntel,62.5,Safari,1440,900,,,,,0,675,,,,,,,,,,,,,,,,,181,S,hexagon,1,0,,3,,,,,,,,,,,,,,repeat,letter,lettRpt,k,0.578,vtsPrac,4,0,4,0,1,,,,,,,,,,,,,,,,,,,,,,,
298267,2022-11-29_17h06.47.904,vts_reward_expectancy_bt,2022.2.4,MacIntel,62.5,Safari,1440,900,,,,,0,675,,,,,,,,,,,,,,,,,160,D,star,1,0,,3,,,,,,,,,,,,,,switch,number,numSwt,f,0.645,vtsPrac,5,0,5,0,1,,,,,,,,,,,,,,,,,,,,,,,
298267,2022-11-29_17h06.47.904,vts_reward_expectancy_bt,2022.2.4,MacIntel,62.5,Safari,1440,900,,,,,0,675,,,,,,,,,,,,,,,,,146,Y,circle,1,0,,3,,,,,,,,,,,,,,repeat,number,numRpt,d,0.654,vtsPrac,6,0,6,0,1,,,,,,,,,,,,,,,,,,,,,,,
298267,2022-11-29_17h06.47.904,vts_reward_expectancy_bt,2022.2.4,MacIntel,62.5,Safari,1440,900,,,,,0,675,,,,,,,,,,,,,,,,,167,U,triangle,1,0,,3,,,,,,,,,,,,,,repeat,number,numRpt,f,0.628,vtsPrac,7,0,7,0,1,,,,,,,,,,,,,,,,,,,,,,,
298267,2022-11-29_17h06.47.904,vts_reward_expectancy_bt,2022.2.4,MacIntel,62.5,Safari,1440,900,,,,,0,675,,,,,,,,,,,,,,,,,139,H,hexagon,1,0,,3,,,,,,,,,,,,,,switch,letter,lettSwt,j,0.748,vtsPrac,8,0,8,0,1,,,,,,,,,,,,,,,,,,,,,,,
298267,2022-11-29_17h06.47.904,vts_reward_expectancy_bt,2022.2.4,MacIntel,62.5,Safari,1440,900,,,,,0,675,,,,,,,,,,,,,,,,,167,S,triangle,1,0,,3,,,,,,,,,,,,,,repeat,letter,lettRpt,k,0.589,vtsPrac,9,0,9,0,1,,,,,,,,,,,,,,,,,,,,,,,
298267,2022-11-29_17h06.47.904,vts_reward_expectancy_bt,2022.2.4,MacIntel,62.5,Safari,1440,900,,,,,0,675,,,,,,,,,,,,,,,,,160,W,circle,1,0,,3,,,,,,,,,,,,,,repeat,letter,lettRpt,k,0.694,vtsPrac,10,0,10,0,1,,,,,,,,,,,,,,,,,,,,,,,
298267,2022-11-29_17h06.47.904,vts_reward_expectancy_bt,2022.2.4,MacIntel,62.5,Safari,1440,900,,,,,0,675,,,,,,,,,,,,,,,,,146,U,star,1,0,,3,,,,,,,,,,,,,,switch,number,numSwt,d,0.842,vtsPrac,11,0,11,0,1,,,,,,,,,,,,,,,,,,,,,,,
298267,2022-11-29_17h06.47.904,vts_reward_expectancy_bt,2022.2.4,MacIntel,62.5,Safari,1440,900,,,,,0,675,,,,,,,,,,,,,,,,,125,F,hexagon,1,0,,3,,,,,,,,,,,,,,repeat,number,numRpt,d,0.787,vtsPrac,12,0,12,0,1,,,,,,,,,,,,,,,,,,,,,,,
298267,2022-11-29_17h06.47.904,vts_reward_expectancy_bt,2022.2.4,MacIntel,62.5,Safari,1440,900,,,,,0,675,,,,,,,,,,,,,,,,,181,D,triangle,1,0,,3,,,,,,,,,,,,,,repeat,number,numRpt,f,0.587,vtsPrac,13,0,13,0,1,,,,,,,,,,,,,,,,,,,,,,,
298267,2022-11-29_17h06.47.904,vts_reward_expectancy_bt,2022.2.4,MacIntel,62.5,Safari,1440,900,,,,,0,675,,,,,,,,,,,,,,,,,139,H,star,1,0,,3,,,,,,,,,,,,,,switch,letter,lettSwt,j,0.545,vtsPrac,14,0,14,0,1,,,,,,,,,,,,,,,,,,,,,,,
298267,2022-11-29_17h06.47.904,vts_reward_expectancy_bt,2022.2.4,MacIntel,62.5,Safari,1440,900,,,,,0,675,,,,,,,,,,,,,,,,,167,Y,hexagon,1,0,,3,,,,,,,,,,,,,,repeat,letter,lettRpt,k,0.791,vtsPrac,15,0,15,0,1,,,,,,,,,,,,,,,,,,,,,,,
298267,2022-11-29_17h06.47.904,vts_reward_expectancy_bt,2022.2.4,MacIntel,62.5,Safari,1440,900,,,,,0,675,,,,,,,,,,,,,,,,,174,F,hexagon,1,0,,3,,,,,,,,,,,,,,repeat,letter,lettRpt,j,0.734,vtsPrac,16,0,16,0,1,,,,,,,,,,,,,,,,,,,,,,,
298267,2022-11-29_17h06.47.904,vts_reward_expectancy_bt,2022.2.4,MacIntel,62.5,Safari,1440,900,,,,,0,675,,,,,,,,,,,,,,,,,125,U,circle,1,0,,3,,,,,,,,,,,,,,switch,number,numSwt,d,0.592,vtsPrac,17,0,17,0,1,,,,,,,,,,,,,,,,,,,,,,,
298267,2022-11-29_17h06.47.904,vts_reward_expectancy_bt,2022.2.4,MacIntel,62.5,Safari,1440,900,,,,,0,675,,,,,,,,,,,,,,,,,160,H,hexagon,1,0,,3,,,,,,,,,,,,,,repeat,number,numRpt,f,0.757,vtsPrac,18,0,18,0,1,,,,,,,,,,,,,,,,,,,,,,,
298267,2022-11-29_17h06.47.904,vts_reward_expectancy_bt,2022.2.4,MacIntel,62.5,Safari,1440,900,,,,,0,675,,,,,,,,,,,,,,,,,167,D,triangle,1,0,,3,,,,,,,,,,,,,,repeat,number,numRpt,f,0.69,vtsPrac,19,0,19,0,1,,,,,,,,,,,,,,,,,,,,,,,
298267,2022-11-29_17h06.47.904,vts_reward_expectancy_bt,2022.2.4,MacIntel,62.5,Safari,1440,900,,,,,0,675,,,,,,,,,,,,,,,,,167,U,triangle,1,0,,3,,,,,,,,,,,,,,switch,letter,lettSwt,k,0.667,vtsPrac,20,0,20,0,1,,,,,,,,,,,,,,,,,,,,,,,
298267,2022-11-29_17h06.47.904,vts_reward_expectancy_bt,2022.2.4,MacIntel,62.5,Safari,1440,900,,,,,0,675,,,,,,,,,,,,,,,,,160,S,hexagon,1,0,,3,,,,,,,,,,,,,,repeat,letter,lettRpt,k,0.601,vtsPrac,21,0,21,0,1,,,,,,,,,,,,,,,,,,,,,,,
298267,2022-11-29_17h06.47.904,vts_reward_expectancy_bt,2022.2.4,MacIntel,62.5,Safari,1440,900,,,,,0,675,,,,,,,,,,,,,,,,,174,F,triangle,1,0,,3,,,,,,,,,,,,,,repeat,letter,lettRpt,j,0.712,vtsPrac,22,0,22,0,1,,,,,,,,,,,,,,,,,,,,,,,
298267,2022-11-29_17h06.47.904,vts_reward_expectancy_bt,2022.2.4,MacIntel,62.5,Safari,1440,900,,,,,0,675,,,,,,,,,,,,,,,,,181,H,star,1,0,,3,,,,,,,,,,,,,,switch,number,numSwt,f,0.857,vtsPrac,23,0,23,0,1,,,,,,,,,,,,,,,,,,,,,,,
298267,2022-11-29_17h06.47.904,vts_reward_expectancy_bt,2022.2.4,MacIntel,62.5,Safari,1440,900,,,,,0,675,,,,,,,,,,,,,,,,,125,Y,star,1,0,,3,,,,,,,,,,,,,,repeat,number,numRpt,d,0.775,vtsPrac,24,0,24,0,1,,,,,,,,,,,,,,,,,,,,,,,
298267,2022-11-29_17h06.47.904,vts_reward_expectancy_bt,2022.2.4,MacIntel,62.5,Safari,1440,900,,,,,0,675,,,,,,,,,,,,,,,,,181,B,circle,1,0,,3,,,,,,,,,,,,,,repeat,number,numRpt,f,0.808,vtsPrac,25,0,25,0,1,,,,,,,,,,,,,,,,,,,,,,,
298267,2022-11-29_17h06.47.904,vts_reward_expectancy_bt,2022.2.4,MacIntel,62.5,Safari,1440,900,,,,,0,675,,,,,,,,,,,,,,,,,146,S,star,1,0,,3,,,,,,,,,,,,,,switch,letter,lettSwt,k,0.681,vtsPrac,26,0,26,0,1,,,,,,,,,,,,,,,,,,,,,,,
298267,2022-11-29_17h06.47.904,vts_reward_expectancy_bt,2022.2.4,MacIntel,62.5,Safari,1440,900,,,,,0,675,,,,,,,,,,,,,,,,,132,U,circle,1,0,,3,,,,,,,,,,,,,,repeat,letter,lettRpt,k,0.599,vtsPrac,27,0,27,0,1,,,,,,,,,,,,,,,,,,,,,,,
298267,2022-11-29_17h06.47.904,vts_reward_expectancy_bt,2022.2.4,MacIntel,62.5,Safari,1440,900,,,,,0,675,,,,,,,,,,,,,,,,,125,Y,triangle,1,0,,3,,,,,,,,,,,,,,repeat,letter,lettRpt,k,0.691,vtsPrac,28,0,28,0,1,,,,,,,,,,,,,,,,,,,,,,,
298267,2022-11-29_17h06.47.904,vts_reward_expectancy_bt,2022.2.4,MacIntel,62.5,Safari,1440,900,,,,,0,675,,,,,,,,,,,,,,,,,139,W,circle,1,0,,3,,,,,,,,,,,,,,switch,number,numSwt,d,0.758,vtsPrac,29,0,29,0,1,,,,,,,,,,,,,,,,,,,,,,,
298267,2022-11-29_17h06.47.904,vts_reward_expectancy_bt,2022.2.4,MacIntel,62.5,Safari,1440,900,,,,,0,675,,,,,,,,,,,,,,,,,174,F,hexagon,1,0,,3,,,,,,,,,,,,,,repeat,number,numRpt,f,0.627,vtsPrac,30,0,30,0,1,,,,,,,,,,,,,,,,,,,,,,,
298267,2022-11-29_17h06.47.904,vts_reward_expectancy_bt,2022.2.4,MacIntel,62.5,Safari,1440,900,,,,,0,675,,,,,,,,,,,,,,,,,181,S,star,1,0,,3,,,,,,,,,,,,,,switch,letter,lettSwt,k,0.666,vtsPrac,31,0,31,0,1,,,,,,,,,,,,,,,,,,,,,,,
298267,2022-11-29_17h06.47.904,vts_reward_expectancy_bt,2022.2.4,MacIntel,62.5,Safari,1440,900,,,,,,,,,,,,,,,,,,,,,,,,,,,,,,,,,,,,,,,,,,,,,,,,,,,,,,,,,,,,,,,,,,,,,,,,,,,,
298267,2022-11-29_17h06.47.904,vts_reward_expectancy_bt,2022.2.4,MacIntel,62.5,Safari,1440,900,,,,,,,,,,,,,,,,,,,,,,,,,,,,,,,,,,,,,,,,,,,,,,,,,,,,,,,,,,,,,,,,,,,,,,,,,,,,
298267,2022-11-29_17h06.47.904,vts_reward_expectancy_bt,2022.2.4,MacIntel,62.5,Safari,1440,900,,,,,0,675,,,,,,,,,,,,,,,,,146,B,star,1,0,,,,,,,,,,,,,,,,switch,number,numSwt,d,1.308,noRew,,,,,,0,0,0,0,0,1,,,,,,,,,,,,,,,,,
298267,2022-11-29_17h06.47.904,vts_reward_expectancy_bt,2022.2.4,MacIntel,62.5,Safari,1440,900,,,,,0,675,,,,,,,,,,,,,,,,,125,U,triangle,1,0,,,,,,,,,,,,,,,,repeat,number,numRpt,d,0.897,noRew,,,,,,0,1,0,1,0,1,,,,,,,,,,,,,,,,,
298267,2022-11-29_17h06.47.904,vts_reward_expectancy_bt,2022.2.4,MacIntel,62.5,Safari,1440,900,,,,,0,675,,,,,,,,,,,,,,,,,139,H,star,1,0,,,,,,,,,,,,,,,,repeat,number,numRpt,d,1.258,noRew,,,,,,0,2,0,2,0,1,,,,,,,,,,,,,,,,,
298267,2022-11-29_17h06.47.904,vts_reward_expectancy_bt,2022.2.4,MacIntel,62.5,Safari,1440,900,,,,,0,675,,,,,,,,,,,,,,,,,132,D,triangle,1,0,,,,,,,,,,,,,,,,switch,letter,lettSwt,j,0.629,noRew,,,,,,0,3,0,3,0,1,,,,,,,,,,,,,,,,,
298267,2022-11-29_17h06.47.904,vts_reward_expectancy_bt,2022.2.4,MacIntel,62.5,Safari,1440,900,,,,,0,675,,,,,,,,,,,,,,,,,146,B,triangle,1,0,,,,,,,,,,,,,,,,switch,number,numSwt,d,0.811,noRew,,,,,,0,4,0,4,0,1,,,,,,,,,,,,,,,,,
298267,2022-11-29_17h06.47.904,vts_reward_expectancy_bt,2022.2.4,MacIntel,62.5,Safari,1440,900,,,,,0,675,,,,,,,,,,,,,,,,,125,U,star,1,0,,,,,,,,,,,,,,,,switch,letter,lettSwt,k,0.628,noRew,,,,,,0,5,0,5,0,1,,,,,,,,,,,,,,,,,
298267,2022-11-29_17h06.47.904,vts_reward_expectancy_bt,2022.2.4,MacIntel,62.5,Safari,1440,900,,,,,0,675,,,,,,,,,,,,,,,,,139,H,triangle,1,0,,,,,,,,,,,,,,,,switch,number,numSwt,d,0.552,noRew,,,,,,0,6,0,6,0,1,,,,,,,,,,,,,,,,,
298267,2022-11-29_17h06.47.904,vts_reward_expectancy_bt,2022.2.4,MacIntel,62.5,Safari,1440,900,,,,,0,675,,,,,,,,,,,,,,,,,132,D,circle,1,0,,,,,,,,,,,,,,,,switch,letter,lettSwt,j,0.703,noRew,,,,,,0,7,0,7,0,1,,,,,,,,,,,,,,,,,
298267,2022-11-29_17h06.47.904,vts_reward_expectancy_bt,2022.2.4,MacIntel,62.5,Safari,1440,900,,,,,0,675,,,,,,,,,,,,,,,,,174,F,triangle,1,0,,,,,,,,,,,,,,,,switch,number,numSwt,f,0.907,noRew,,,,,,0,8,0,8,0,1,,,,,,,,,,,,,,,,,
298267,2022-11-29_17h06.47.904,vts_reward_expectancy_bt,2022.2.4,MacIntel,62.5,Safari,1440,900,,,,,0,675,,,,,,,,,,,,,,,,,125,B,star,1,0,,,,,,,,,,,,,,,,switch,letter,lettSwt,j,0.766,noRew,,,,,,0,9,0,9,0,1,,,,,,,,,,,,,,,,,
298267,2022-11-29_17h06.47.904,vts_reward_expectancy_bt,2022.2.4,MacIntel,62.5,Safari,1440,900,,,,,0,675,,,,,,,,,,,,,,,,,181,S,hexagon,1,0,,,,,,,,,,,,,,,,switch,number,numSwt,f,0.843,noRew,,,,,,0,10,0,10,0,1,,,,,,,,,,,,,,,,,
298267,2022-11-29_17h06.47.904,vts_reward_expectancy_bt,2022.2.4,MacIntel,62.5,Safari,1440,900,,,,,0,675,,,,,,,,,,,,,,,,,167,Y,triangle,1,0,,,,,,,,,,,,,,,,switch,letter,lettSwt,k,0.661,noRew,,,,,,0,11,0,11,0,1,,,,,,,,,,,,,,,,,
298267,2022-11-29_17h06.47.904,vts_reward_expectancy_bt,2022.2.4,MacIntel,62.5,Safari,1440,900,,,,,0,675,,,,,,,,,,,,,,,,,139,F,triangle,1,0,,,,,,,,,,,,,,,,switch,number,numSwt,d,0.747,noRew,,,,,,0,12,0,12,0,1,,,,,,,,,,,,,,,,,
298267,2022-11-29_17h06.47.904,vts_reward_expectancy_bt,2022.2.4,MacIntel,62.5,Safari,1440,900,,,,,0,675,,,,,,,,,,,,,,,,,181,W,hexagon,1,0,,,,,,,,,,,,,,,,switch,letter,lettSwt,k,0.711,noRew,,,,,,0,13,0,13,0,1,,,,,,,,,,,,,,,,,
298267,2022-11-29_17h06.47.904,vts_reward_expectancy_bt,2022.2.4,MacIntel,62.5,Safari,1440,900,,,,,0,675,,,,,,,,,,,,,,,,,167,B,circle,0,0,,,,,,,,,,,,,,,,switch,number,NA,d,1.025,noRew,,,,,,0,14,0,14,0,1,,,,,,,,,,,,,,,,,
298267,2022-11-29_17h06.47.904,vts_reward_expectancy_bt,2022.2.4,MacIntel,62.5,Safari,1440,900,,,,,0,675,,,,,,,,,,,,,,,,,132,H,hexagon,1,1,,,,,,,,,,,,,,,,switch,letter,lettSwt,j,1.017,noRew,,,,,,0,15,0,15,0,1,,,,,,,,,,,,,,,,,
298267,2022-11-29_17h06.47.904,vts_reward_expectancy_bt,2022.2.4,MacIntel,62.5,Safari,1440,900,,,,,0,675,,,,,,,,,,,,,,,,,132,B,star,1,0,,,,,,,,,,,,,,,,switch,number,numSwt,d,0.696,noRew,,,,,,0,16,0,16,0,1,,,,,,,,,,,,,,,,,
298267,2022-11-29_17h06.47.904,vts_reward_expectancy_bt,2022.2.4,MacIntel,62.5,Safari,1440,900,,,,,0,675,,,,,,,,,,,,,,,,,181,S,hexagon,1,0,,,,,,,,,,,,,,,,switch,letter,lettSwt,k,0.758,noRew,,,,,,0,17,0,17,0,1,,,,,,,,,,,,,,,,,
298267,2022-11-29_17h06.47.904,vts_reward_expectancy_bt,2022.2.4,MacIntel,62.5,Safari,1440,900,,,,,0,675,,,,,,,,,,,,,,,,,167,F,star,1,0,,,,,,,,,,,,,,,,switch,number,numSwt,f,0.841,noRew,,,,,,0,18,0,18,0,1,,,,,,,,,,,,,,,,,
298267,2022-11-29_17h06.47.904,vts_reward_expectancy_bt,2022.2.4,MacIntel,62.5,Safari,1440,900,,,,,0,675,,,,,,,,,,,,,,,,,174,W,circle,1,0,,,,,,,,,,,,,,,,switch,letter,lettSwt,k,0.724,noRew,,,,,,0,19,0,19,0,1,,,,,,,,,,,,,,,,,
298267,2022-11-29_17h06.47.904,vts_reward_expectancy_bt,2022.2.4,MacIntel,62.5,Safari,1440,900,,,,,0,675,,,,,,,,,,,,,,,,,174,Y,hexagon,1,0,,,,,,,,,,,,,,,,switch,number,numSwt,f,0.644,noRew,,,,,,0,20,0,20,0,1,,,,,,,,,,,,,,,,,
298267,2022-11-29_17h06.47.904,vts_reward_expectancy_bt,2022.2.4,MacIntel,62.5,Safari,1440,900,,,,,0,675,,,,,,,,,,,,,,,,,181,D,triangle,1,0,,,,,,,,,,,,,,,,switch,letter,lettSwt,j,0.797,noRew,,,,,,0,21,0,21,0,1,,,,,,,,,,,,,,,,,
298267,2022-11-29_17h06.47.904,vts_reward_expectancy_bt,2022.2.4,MacIntel,62.5,Safari,1440,900,,,,,0,675,,,,,,,,,,,,,,,,,125,S,hexagon,1,0,,,,,,,,,,,,,,,,switch,number,numSwt,d,0.642,noRew,,,,,,0,22,0,22,0,1,,,,,,,,,,,,,,,,,
298267,2022-11-29_17h06.47.904,vts_reward_expectancy_bt,2022.2.4,MacIntel,62.5,Safari,1440,900,,,,,0,675,,,,,,,,,,,,,,,,,146,U,circle,1,0,,,,,,,,,,,,,,,,switch,letter,lettSwt,k,0.792,noRew,,,,,,0,23,0,23,0,1,,,,,,,,,,,,,,,,,
298267,2022-11-29_17h06.47.904,vts_reward_expectancy_bt,2022.2.4,MacIntel,62.5,Safari,1440,900,,,,,0,675,,,,,,,,,,,,,,,,,174,U,triangle,1,0,,,,,,,,,,,,,,,,switch,number,numSwt,f,0.727,noRew,,,,,,0,24,0,24,0,1,,,,,,,,,,,,,,,,,
298267,2022-11-29_17h06.47.904,vts_reward_expectancy_bt,2022.2.4,MacIntel,62.5,Safari,1440,900,,,,,0,675,,,,,,,,,,,,,,,,,160,Y,circle,1,0,,,,,,,,,,,,,,,,switch,letter,lettSwt,k,0.804,noRew,,,,,,0,25,0,25,0,1,,,,,,,,,,,,,,,,,
298267,2022-11-29_17h06.47.904,vts_reward_expectancy_bt,2022.2.4,MacIntel,62.5,Safari,1440,900,,,,,0,675,,,,,,,,,,,,,,,,,167,S,triangle,1,0,,,,,,,,,,,,,,,,switch,number,numSwt,f,0.742,noRew,,,,,,0,26,0,26,0,1,,,,,,,,,,,,,,,,,
298267,2022-11-29_17h06.47.904,vts_reward_expectancy_bt,2022.2.4,MacIntel,62.5,Safari,1440,900,,,,,0,675,,,,,,,,,,,,,,,,,139,H,circle,1,0,,,,,,,,,,,,,,,,switch,letter,lettSwt,j,0.826,noRew,,,,,,0,27,0,27,0,1,,,,,,,,,,,,,,,,,
298267,2022-11-29_17h06.47.904,vts_reward_expectancy_bt,2022.2.4,MacIntel,62.5,Safari,1440,900,,,,,0,675,,,,,,,,,,,,,,,,,181,D,star,1,0,,,,,,,,,,,,,,,,switch,number,numSwt,f,0.541,noRew,,,,,,0,28,0,28,0,1,,,,,,,,,,,,,,,,,
298267,2022-11-29_17h06.47.904,vts_reward_expectancy_bt,2022.2.4,MacIntel,62.5,Safari,1440,900,,,,,0,675,,,,,,,,,,,,,,,,,174,H,hexagon,1,0,,,,,,,,,,,,,,,,switch,letter,lettSwt,j,0.66,noRew,,,,,,0,29,0,29,0,1,,,,,,,,,,,,,,,,,
298267,2022-11-29_17h06.47.904,vts_reward_expectancy_bt,2022.2.4,MacIntel,62.5,Safari,1440,900,,,,,0,675,,,,,,,,,,,,,,,,,160,F,hexagon,1,0,,,,,,,,,,,,,,,,switch,number,numSwt,f,0.907,noRew,,,,,,0,30,0,30,0,1,,,,,,,,,,,,,,,,,
298267,2022-11-29_17h06.47.904,vts_reward_expectancy_bt,2022.2.4,MacIntel,62.5,Safari,1440,900,,,,,0,675,,,,,,,,,,,,,,,,,167,B,triangle,1,0,,,,,,,,,,,,,,,,switch,letter,lettSwt,j,0.856,noRew,,,,,,0,31,0,31,0,1,,,,,,,,,,,,,,,,,
298267,2022-11-29_17h06.47.904,vts_reward_expectancy_bt,2022.2.4,MacIntel,62.5,Safari,1440,900,,,,,0,675,,,,,,,,,,,,,,,,,132,W,circle,1,0,,,,,,,,,,,,,,,,switch,number,numSwt,d,1.242,noRew,,,,,,0,32,0,32,0,1,,,,,,,,,,,,,,,,,
298267,2022-11-29_17h06.47.904,vts_reward_expectancy_bt,2022.2.4,MacIntel,62.5,Safari,1440,900,,,,,0,675,,,,,,,,,,,,,,,,,125,U,star,1,0,,,,,,,,,,,,,,,,repeat,number,numRpt,d,0.923,noRew,,,,,,0,33,0,33,0,1,,,,,,,,,,,,,,,,,
298267,2022-11-29_17h06.47.904,vts_reward_expectancy_bt,2022.2.4,MacIntel,62.5,Safari,1440,900,,,,,0,675,,,,,,,,,,,,,,,,,139,B,star,1,0,,,,,,,,,,,,,,,,switch,letter,lettSwt,j,0.766,noRew,,,,,,0,34,0,34,0,1,,,,,,,,,,,,,,,,,
298267,2022-11-29_17h06.47.904,vts_reward_expectancy_bt,2022.2.4,MacIntel,62.5,Safari,1440,900,,,,,0,675,,,,,,,,,,,,,,,,,174,H,hexagon,1,0,,,,,,,,,,,,,,,,switch,number,numSwt,f,0.785,noRew,,,,,,0,35,0,35,0,1,,,,,,,,,,,,,,,,,
298267,2022-11-29_17h06.47.904,vts_reward_expectancy_bt,2022.2.4,MacIntel,62.5,Safari,1440,900,,,,,0,675,,,,,,,,,,,,,,,,,146,U,triangle,1,0,,,,,,,,,,,,,,,,switch,letter,lettSwt,k,0.882,noRew,,,,,,0,36,0,36,0,1,,,,,,,,,,,,,,,,,
298267,2022-11-29_17h06.47.904,vts_reward_expectancy_bt,2022.2.4,MacIntel,62.5,Safari,1440,900,,,,,0,675,,,,,,,,,,,,,,,,,174,D,star,1,0,,,,,,,,,,,,,,,,switch,number,numSwt,f,0.757,noRew,,,,,,0,37,0,37,0,1,,,,,,,,,,,,,,,,,
298267,2022-11-29_17h06.47.904,vts_reward_expectancy_bt,2022.2.4,MacIntel,62.5,Safari,1440,900,,,,,0,675,,,,,,,,,,,,,,,,,167,B,triangle,1,0,,,,,,,,,,,,,,,,switch,letter,lettSwt,j,0.626,noRew,,,,,,0,38,0,38,0,1,,,,,,,,,,,,,,,,,
298267,2022-11-29_17h06.47.904,vts_reward_expectancy_bt,2022.2.4,MacIntel,62.5,Safari,1440,900,,,,,0,675,,,,,,,,,,,,,,,,,160,Y,circle,1,0,,,,,,,,,,,,,,,,switch,number,numSwt,f,0.762,noRew,,,,,,0,39,0,39,0,1,,,,,,,,,,,,,,,,,
298267,2022-11-29_17h06.47.904,vts_reward_expectancy_bt,2022.2.4,MacIntel,62.5,Safari,1440,900,,,,,0,675,,,,,,,,,,,,,,,,,167,S,circle,1,0,,,,,,,,,,,,,,,,switch,letter,lettSwt,k,1.046,noRew,,,,,,0,40,0,40,0,1,,,,,,,,,,,,,,,,,
298267,2022-11-29_17h06.47.904,vts_reward_expectancy_bt,2022.2.4,MacIntel,62.5,Safari,1440,900,,,,,0,675,,,,,,,,,,,,,,,,,146,U,triangle,1,0,,,,,,,,,,,,,,,,switch,number,numSwt,d,0.725,noRew,,,,,,0,41,0,41,0,1,,,,,,,,,,,,,,,,,
298267,2022-11-29_17h06.47.904,vts_reward_expectancy_bt,2022.2.4,MacIntel,62.5,Safari,1440,900,,,,,0,675,,,,,,,,,,,,,,,,,125,H,hexagon,1,0,,,,,,,,,,,,,,,,switch,letter,lettSwt,j,0.683,noRew,,,,,,0,42,0,42,0,1,,,,,,,,,,,,,,,,,
298267,2022-11-29_17h06.47.904,vts_reward_expectancy_bt,2022.2.4,MacIntel,62.5,Safari,1440,900,,,,,0,675,,,,,,,,,,,,,,,,,139,B,star,1,0,,,,,,,,,,,,,,,,switch,number,numSwt,d,0.809,noRew,,,,,,0,43,0,43,0,1,,,,,,,,,,,,,,,,,
298267,2022-11-29_17h06.47.904,vts_reward_expectancy_bt,2022.2.4,MacIntel,62.5,Safari,1440,900,,,,,0,675,,,,,,,,,,,,,,,,,132,U,hexagon,1,0,,,,,,,,,,,,,,,,switch,letter,lettSwt,k,0.646,noRew,,,,,,0,44,0,44,0,1,,,,,,,,,,,,,,,,,
298267,2022-11-29_17h06.47.904,vts_reward_expectancy_bt,2022.2.4,MacIntel,62.5,Safari,1440,900,,,,,0,675,,,,,,,,,,,,,,,,,139,F,triangle,1,0,,,,,,,,,,,,,,,,switch,number,numSwt,d,0.708,noRew,,,,,,0,45,0,45,0,1,,,,,,,,,,,,,,,,,
298267,2022-11-29_17h06.47.904,vts_reward_expectancy_bt,2022.2.4,MacIntel,62.5,Safari,1440,900,,,,,0,675,,,,,,,,,,,,,,,,,174,S,star,1,0,,,,,,,,,,,,,,,,switch,letter,lettSwt,k,0.625,noRew,,,,,,0,46,0,46,0,1,,,,,,,,,,,,,,,,,
298267,2022-11-29_17h06.47.904,vts_reward_expectancy_bt,2022.2.4,MacIntel,62.5,Safari,1440,900,,,,,0,675,,,,,,,,,,,,,,,,,160,H,triangle,1,0,,,,,,,,,,,,,,,,switch,number,numSwt,f,1.026,noRew,,,,,,0,47,0,47,0,1,,,,,,,,,,,,,,,,,
298267,2022-11-29_17h06.47.904,vts_reward_expectancy_bt,2022.2.4,MacIntel,62.5,Safari,1440,900,,,,,0,675,,,,,,,,,,,,,,,,,132,U,hexagon,1,0,,,,,,,,,,,,,,,,switch,letter,lettSwt,k,1.074,noRew,,,,,,0,48,0,48,0,1,,,,,,,,,,,,,,,,,
298267,2022-11-29_17h06.47.904,vts_reward_expectancy_bt,2022.2.4,MacIntel,62.5,Safari,1440,900,,,,,0,675,,,,,,,,,,,,,,,,,160,S,triangle,1,0,,,,,,,,,,,,,,,,switch,number,numSwt,f,0.691,noRew,,,,,,0,49,0,49,0,1,,,,,,,,,,,,,,,,,
298267,2022-11-29_17h06.47.904,vts_reward_expectancy_bt,2022.2.4,MacIntel,62.5,Safari,1440,900,,,,,0,675,,,,,,,,,,,,,,,,,167,F,hexagon,1,0,,,,,,,,,,,,,,,,switch,letter,lettSwt,j,1.213,noRew,,,,,,0,50,0,50,0,1,,,,,,,,,,,,,,,,,
298267,2022-11-29_17h06.47.904,vts_reward_expectancy_bt,2022.2.4,MacIntel,62.5,Safari,1440,900,,,,,0,675,,,,,,,,,,,,,,,,,139,H,triangle,1,0,,,,,,,,,,,,,,,,switch,number,numSwt,d,0.584,noRew,,,,,,0,51,0,51,0,1,,,,,,,,,,,,,,,,,
298267,2022-11-29_17h06.47.904,vts_reward_expectancy_bt,2022.2.4,MacIntel,62.5,Safari,1440,900,,,,,0,675,,,,,,,,,,,,,,,,,146,D,star,1,0,,,,,,,,,,,,,,,,switch,letter,lettSwt,j,0.561,noRew,,,,,,0,52,0,52,0,1,,,,,,,,,,,,,,,,,
298267,2022-11-29_17h06.47.904,vts_reward_expectancy_bt,2022.2.4,MacIntel,62.5,Safari,1440,900,,,,,0,675,,,,,,,,,,,,,,,,,174,S,triangle,1,0,,,,,,,,,,,,,,,,repeat,letter,lettRpt,k,1.192,noRew,,,,,,0,53,0,53,0,1,,,,,,,,,,,,,,,,,
298267,2022-11-29_17h06.47.904,vts_reward_expectancy_bt,2022.2.4,MacIntel,62.5,Safari,1440,900,,,,,0,675,,,,,,,,,,,,,,,,,167,F,triangle,1,0,,,,,,,,,,,,,,,,switch,number,numSwt,f,0.889,noRew,,,,,,0,54,0,54,0,1,,,,,,,,,,,,,,,,,
298267,2022-11-29_17h06.47.904,vts_reward_expectancy_bt,2022.2.4,MacIntel,62.5,Safari,1440,900,,,,,0,675,,,,,,,,,,,,,,,,,125,U,star,1,0,,,,,,,,,,,,,,,,switch,letter,lettSwt,k,1.225,noRew,,,,,,0,55,0,55,0,1,,,,,,,,,,,,,,,,,
298267,2022-11-29_17h06.47.904,vts_reward_expectancy_bt,2022.2.4,MacIntel,62.5,Safari,1440,900,,,,,0,675,,,,,,,,,,,,,,,,,167,F,triangle,1,0,,,,,,,,,,,,,,,,switch,number,numSwt,f,0.672,noRew,,,,,,0,56,0,56,0,1,,,,,,,,,,,,,,,,,
298267,2022-11-29_17h06.47.904,vts_reward_expectancy_bt,2022.2.4,MacIntel,62.5,Safari,1440,900,,,,,0,675,,,,,,,,,,,,,,,,,125,Y,star,1,0,,,,,,,,,,,,,,,,switch,letter,lettSwt,k,0.656,noRew,,,,,,0,57,0,57,0,1,,,,,,,,,,,,,,,,,
298267,2022-11-29_17h06.47.904,vts_reward_expectancy_bt,2022.2.4,MacIntel,62.5,Safari,1440,900,,,,,0,675,,,,,,,,,,,,,,,,,139,U,hexagon,0,0,,,,,,,,,,,,,,,,switch,number,NA,f,0.843,noRew,,,,,,0,58,0,58,0,1,,,,,,,,,,,,,,,,,
298267,2022-11-29_17h06.47.904,vts_reward_expectancy_bt,2022.2.4,MacIntel,62.5,Safari,1440,900,,,,,0,675,,,,,,,,,,,,,,,,,174,S,star,1,1,,,,,,,,,,,,,,,,switch,letter,lettSwt,k,0.675,noRew,,,,,,0,59,0,59,0,1,,,,,,,,,,,,,,,,,
298267,2022-11-29_17h06.47.904,vts_reward_expectancy_bt,2022.2.4,MacIntel,62.5,Safari,1440,900,,,,,0,675,,,,,,,,,,,,,,,,,132,B,triangle,1,0,,,,,,,,,,,,,,,,switch,number,numSwt,d,0.88,noRew,,,,,,0,60,0,60,0,1,,,,,,,,,,,,,,,,,
298267,2022-11-29_17h06.47.904,vts_reward_expectancy_bt,2022.2.4,MacIntel,62.5,Safari,1440,900,,,,,0,675,,,,,,,,,,,,,,,,,160,H,circle,1,0,,,,,,,,,,,,,,,,switch,letter,lettSwt,j,0.634,noRew,,,,,,0,61,0,61,0,1,,,,,,,,,,,,,,,,,
298267,2022-11-29_17h06.47.904,vts_reward_expectancy_bt,2022.2.4,MacIntel,62.5,Safari,1440,900,,,,,0,675,,,,,,,,,,,,,,,,,139,W,circle,1,0,,,,,,,,,,,,,,,,switch,number,numSwt,d,0.596,noRew,,,,,,0,62,0,62,0,1,,,,,,,,,,,,,,,,,
298267,2022-11-29_17h06.47.904,vts_reward_expectancy_bt,2022.2.4,MacIntel,62.5,Safari,1440,900,,,,,0,675,,,,,,,,,,,,,,,,,167,D,hexagon,1,0,,,,,,,,,,,,,,,,switch,letter,lettSwt,j,0.798,noRew,,,,,,0,63,0,63,0,1,,,,,,,,,,,,,,,,,
298267,2022-11-29_17h06.47.904,vts_reward_expectancy_bt,2022.2.4,MacIntel,62.5,Safari,1440,900,,,,,,,,,,,,,,,,,,,,,,,,,,,,,,,,,,,,,,,,,,,,,,,,,,,,,,,,,,,,,,,,,,,,,,,,,,,,
298267,2022-11-29_17h06.47.904,vts_reward_expectancy_bt,2022.2.4,MacIntel,62.5,Safari,1440,900,,,,,0,675,,,,,,,,,,,,,,,,,132,H,circle,1,0,,,,,,,,,,,,,,,,switch,number,numSwt,d,0.724,Hi,,,,,,0,,,,,,space,9.902,high,0,0,0,0,1,,,,,,,,,
298267,2022-11-29_17h06.47.904,vts_reward_expectancy_bt,2022.2.4,MacIntel,62.5,Safari,1440,900,,,,,1,676,,,,,,,,,,,,,,,,,167,W,star,1,0,,,,,,,,,,,,,,,,switch,letter,lettSwt,k,0.634,Lo,,,,,,0,,,,,,,,high,1,0,1,0,1,,,,,,,,,
298267,2022-11-29_17h06.47.904,vts_reward_expectancy_bt,2022.2.4,MacIntel,62.5,Safari,1440,900,,,,,1,677,,,,,,,,,,,,,,,,,139,U,triangle,1,0,,,,,,,,,,,,,,,,repeat,letter,lettRpt,k,0.579,Lo,,,,,,0,,,,,,,,high,2,0,2,0,1,,,,,,,,,
298267,2022-11-29_17h06.47.904,vts_reward_expectancy_bt,2022.2.4,MacIntel,62.5,Safari,1440,900,,,,,1,678,,,,,,,,,,,,,,,,,125,S,hexagon,1,0,,,,,,,,,,,,,,,,repeat,letter,lettRpt,k,0.499,Hi,,,,,,0,,,,,,,,high,3,0,3,0,1,,,,,,,,,
298267,2022-11-29_17h06.47.904,vts_reward_expectancy_bt,2022.2.4,MacIntel,62.5,Safari,1440,900,,,,,10,688,,,,,,,,,,,,,,,,,181,F,circle,1,0,,,,,,,,,,,,,,,,repeat,letter,lettRpt,j,0.609,Hi,,,,,,0,,,,,,,,high,4,0,4,0,1,,,,,,,,,
298267,2022-11-29_17h06.47.904,vts_reward_expectancy_bt,2022.2.4,MacIntel,62.5,Safari,1440,900,,,,,1,689,,,,,,,,,,,,,,,,,174,B,star,1,0,,,,,,,,,,,,,,,,repeat,letter,lettRpt,j,0.525,Lo,,,,,,0,,,,,,,,high,5,0,5,0,1,,,,,,,,,
298267,2022-11-29_17h06.47.904,vts_reward_expectancy_bt,2022.2.4,MacIntel,62.5,Safari,1440,900,,,,,1,690,,,,,,,,,,,,,,,,,146,Y,triangle,1,0,,,,,,,,,,,,,,,,repeat,letter,lettRpt,k,0.457,Lo,,,,,,0,,,,,,,,high,6,0,6,0,1,,,,,,,,,
298267,2022-11-29_17h06.47.904,vts_reward_expectancy_bt,2022.2.4,MacIntel,62.5,Safari,1440,900,,,,,1,691,,,,,,,,,,,,,,,,,160,D,hexagon,1,0,,,,,,,,,,,,,,,,repeat,letter,lettRpt,j,0.641,Hi,,,,,,0,,,,,,,,high,7,0,7,0,1,,,,,,,,,
298267,2022-11-29_17h06.47.904,vts_reward_expectancy_bt,2022.2.4,MacIntel,62.5,Safari,1440,900,,,,,10,701,,,,,,,,,,,,,,,,,132,H,circle,1,0,,,,,,,,,,,,,,,,switch,number,numSwt,d,0.578,Hi,,,,,,0,,,,,,,,high,8,0,8,0,1,,,,,,,,,
298267,2022-11-29_17h06.47.904,vts_reward_expectancy_bt,2022.2.4,MacIntel,62.5,Safari,1440,900,,,,,1,702,,,,,,,,,,,,,,,,,167,W,hexagon,1,0,,,,,,,,,,,,,,,,switch,letter,lettSwt,k,0.408,Hi,,,,,,0,,,,,,,,high,9,0,9,0,1,,,,,,,,,
298267,2022-11-29_17h06.47.904,vts_reward_expectancy_bt,2022.2.4,MacIntel,62.5,Safari,1440,900,,,,,1,703,,,,,,,,,,,,,,,,,139,U,star,1,0,,,,,,,,,,,,,,,,switch,number,numSwt,d,0.563,Lo,,,,,,0,,,,,,,,high,10,0,10,0,1,,,,,,,,,
298267,2022-11-29_17h06.47.904,vts_reward_expectancy_bt,2022.2.4,MacIntel,62.5,Safari,1440,900,,,,,1,704,,,,,,,,,,,,,,,,,125,S,triangle,1,0,,,,,,,,,,,,,,,,switch,letter,lettSwt,k,0.591,Lo,,,,,,0,,,,,,,,high,11,0,11,0,1,,,,,,,,,
298267,2022-11-29_17h06.47.904,vts_reward_expectancy_bt,2022.2.4,MacIntel,62.5,Safari,1440,900,,,,,1,705,,,,,,,,,,,,,,,,,181,F,hexagon,1,0,,,,,,,,,,,,,,,,switch,number,numSwt,f,0.594,Hi,,,,,,0,,,,,,,,high,12,0,12,0,1,,,,,,,,,
298267,2022-11-29_17h06.47.904,vts_reward_expectancy_bt,2022.2.4,MacIntel,62.5,Safari,1440,900,,,,,10,715,,,,,,,,,,,,,,,,,174,B,star,1,0,,,,,,,,,,,,,,,,switch,letter,lettSwt,j,0.631,Lo,,,,,,0,,,,,,,,high,13,0,13,0,1,,,,,,,,,
298267,2022-11-29_17h06.47.904,vts_reward_expectancy_bt,2022.2.4,MacIntel,62.5,Safari,1440,900,,,,,1,716,,,,,,,,,,,,,,,,,146,Y,triangle,1,0,,,,,,,,,,,,,,,,switch,number,numSwt,d,0.614,Lo,,,,,,0,,,,,,,,high,14,0,14,0,1,,,,,,,,,
298267,2022-11-29_17h06.47.904,vts_reward_expectancy_bt,2022.2.4,MacIntel,62.5,Safari,1440,900,,,,,10,726,,,,,,,,,,,,,,,,,160,D,circle,1,0,,,,,,,,,,,,,,,,switch,letter,lettSwt,j,0.662,Hi,,,,,,0,,,,,,,,high,15,0,15,0,1,,,,,,,,,
298267,2022-11-29_17h06.47.904,vts_reward_expectancy_bt,2022.2.4,MacIntel,62.5,Safari,1440,900,,,,,1,727,,,,,,,,,,,,,,,,,132,W,triangle,1,0,,,,,,,,,,,,,,,,repeat,letter,lettRpt,k,0.658,Lo,,,,,,0,,,,,,,,high,16,0,16,0,1,,,,,,,,,
298267,2022-11-29_17h06.47.904,vts_reward_expectancy_bt,2022.2.4,MacIntel,62.5,Safari,1440,900,,,,,1,728,,,,,,,,,,,,,,,,,174,F,star,1,0,,,,,,,,,,,,,,,,repeat,letter,lettRpt,j,0.732,Lo,,,,,,0,,,,,,,,high,17,0,17,0,1,,,,,,,,,
298267,2022-11-29_17h06.47.904,vts_reward_expectancy_bt,2022.2.4,MacIntel,62.5,Safari,1440,900,,,,,0,728,,,,,,,,,,,,,,,,,181,H,hexagon,0,0,,,,,,,,,,,,,,,,repeat,letter,NA,k,0.534,Lo,,,,,,0,,,,,,,,high,18,0,18,0,1,,,,,,,,,
298267,2022-11-29_17h06.47.904,vts_reward_expectancy_bt,2022.2.4,MacIntel,62.5,Safari,1440,900,,,,,10,738,,,,,,,,,,,,,,,,,167,S,circle,1,1,,,,,,,,,,,,,,,,repeat,letter,lettRpt,k,0.601,Hi,,,,,,0,,,,,,,,high,19,0,19,0,1,,,,,,,,,
298267,2022-11-29_17h06.47.904,vts_reward_expectancy_bt,2022.2.4,MacIntel,62.5,Safari,1440,900,,,,,0,738,,,,,,,,,,,,,,,,,160,B,hexagon,1,0,,,,,,,,,,,,,,,,switch,number,numSwt,f,0.755,Hi,,,,,,0,,,,,,,,high,20,0,20,0,1,,,,,,,,,
298267,2022-11-29_17h06.47.904,vts_reward_expectancy_bt,2022.2.4,MacIntel,62.5,Safari,1440,900,,,,,1,739,,,,,,,,,,,,,,,,,125,D,star,1,0,,,,,,,,,,,,,,,,repeat,number,numRpt,d,0.539,Lo,,,,,,0,,,,,,,,high,21,0,21,0,1,,,,,,,,,
298267,2022-11-29_17h06.47.904,vts_reward_expectancy_bt,2022.2.4,MacIntel,62.5,Safari,1440,900,,,,,1,740,,,,,,,,,,,,,,,,,146,Y,triangle,1,0,,,,,,,,,,,,,,,,repeat,number,numRpt,d,0.662,Lo,,,,,,0,,,,,,,,high,22,0,22,0,1,,,,,,,,,
298267,2022-11-29_17h06.47.904,vts_reward_expectancy_bt,2022.2.4,MacIntel,62.5,Safari,1440,900,,,,,0,740,,,,,,,,,,,,,,,,,139,U,circle,0,0,,,,,,,,,,,,,,,,switch,letter,NA,j,0.809,Lo,,,,,,0,,,,,,,,high,23,0,23,0,1,,,,,,,,,
298267,2022-11-29_17h06.47.904,vts_reward_expectancy_bt,2022.2.4,MacIntel,62.5,Safari,1440,900,,,,,10,750,,,,,,,,,,,,,,,,,139,D,circle,1,1,,,,,,,,,,,,,,,,repeat,letter,lettRpt,j,0.749,Hi,,,,,,0,,,,,,,,high,24,0,24,0,1,,,,,,,,,
298267,2022-11-29_17h06.47.904,vts_reward_expectancy_bt,2022.2.4,MacIntel,62.5,Safari,1440,900,,,,,10,760,,,,,,,,,,,,,,,,,174,W,hexagon,1,0,,,,,,,,,,,,,,,,repeat,letter,lettRpt,k,0.658,Hi,,,,,,0,,,,,,,,high,25,0,25,0,1,,,,,,,,,
298267,2022-11-29_17h06.47.904,vts_reward_expectancy_bt,2022.2.4,MacIntel,62.5,Safari,1440,900,,,,,1,761,,,,,,,,,,,,,,,,,146,Y,triangle,1,0,,,,,,,,,,,,,,,,switch,number,numSwt,d,0.715,Lo,,,,,,0,,,,,,,,high,26,0,26,0,1,,,,,,,,,
298267,2022-11-29_17h06.47.904,vts_reward_expectancy_bt,2022.2.4,MacIntel,62.5,Safari,1440,900,,,,,0,761,,,,,,,,,,,,,,,,,132,H,star,0,0,,,,,,,,,,,,,,,,repeat,number,NA,f,0.649,Lo,,,,,,0,,,,,,,,high,27,0,27,0,1,,,,,,,,,
298267,2022-11-29_17h06.47.904,vts_reward_expectancy_bt,2022.2.4,MacIntel,62.5,Safari,1440,900,,,,,1,762,,,,,,,,,,,,,,,,,181,B,triangle,1,1,,,,,,,,,,,,,,,,switch,letter,lettSwt,j,0.593,Lo,,,,,,0,,,,,,,,high,28,0,28,0,1,,,,,,,,,
298267,2022-11-29_17h06.47.904,vts_reward_expectancy_bt,2022.2.4,MacIntel,62.5,Safari,1440,900,,,,,10,772,,,,,,,,,,,,,,,,,125,S,circle,1,0,,,,,,,,,,,,,,,,repeat,letter,lettRpt,k,0.634,Hi,,,,,,0,,,,,,,,high,29,0,29,0,1,,,,,,,,,
298267,2022-11-29_17h06.47.904,vts_reward_expectancy_bt,2022.2.4,MacIntel,62.5,Safari,1440,900,,,,,1,773,,,,,,,,,,,,,,,,,167,F,star,1,0,,,,,,,,,,,,,,,,repeat,letter,lettRpt,j,0.96,Lo,,,,,,0,,,,,,,,high,30,0,30,0,1,,,,,,,,,
298267,2022-11-29_17h06.47.904,vts_reward_expectancy_bt,2022.2.4,MacIntel,62.5,Safari,1440,900,,,,,10,783,,,,,,,,,,,,,,,,,160,U,hexagon,1,0,,,,,,,,,,,,,,,,repeat,letter,lettRpt,k,0.61,Hi,,,,,,0,,,,,,,,high,31,0,31,0,1,,,,,,,,,
298267,2022-11-29_17h06.47.904,vts_reward_expectancy_bt,2022.2.4,MacIntel,62.5,Safari,1440,900,,,,,0,783,,,,,,,,,,,,,,,,,174,F,hexagon,1,0,,,,,,,,,,,,,,,,switch,number,numSwt,f,0.71,Hi,,,,,,1,,,,,,space,58.768,high,0,0,0,0,1,,,,,,,,,
298267,2022-11-29_17h06.47.904,vts_reward_expectancy_bt,2022.2.4,MacIntel,62.5,Safari,1440,900,,,,,1,784,,,,,,,,,,,,,,,,,132,U,star,1,0,,,,,,,,,,,,,,,,switch,letter,lettSwt,k,0.643,Lo,,,,,,1,,,,,,,,high,1,0,1,0,1,,,,,,,,,
298267,2022-11-29_17h06.47.904,vts_reward_expectancy_bt,2022.2.4,MacIntel,62.5,Safari,1440,900,,,,,10,794,,,,,,,,,,,,,,,,,125,S,circle,1,0,,,,,,,,,,,,,,,,repeat,letter,lettRpt,k,0.579,Hi,,,,,,1,,,,,,,,high,2,0,2,0,1,,,,,,,,,
298267,2022-11-29_17h06.47.904,vts_reward_expectancy_bt,2022.2.4,MacIntel,62.5,Safari,1440,900,,,,,1,795,,,,,,,,,,,,,,,,,181,Y,triangle,1,0,,,,,,,,,,,,,,,,repeat,letter,lettRpt,k,0.575,Lo,,,,,,1,,,,,,,,high,3,0,3,0,1,,,,,,,,,
298267,2022-11-29_17h06.47.904,vts_reward_expectancy_bt,2022.2.4,MacIntel,62.5,Safari,1440,900,,,,,0,795,,,,,,,,,,,,,,,,,160,D,hexagon,1,0,,,,,,,,,,,,,,,,repeat,letter,lettRpt,j,0.708,Hi,,,,,,1,,,,,,,,high,4,0,4,0,1,,,,,,,,,
298267,2022-11-29_17h06.47.904,vts_reward_expectancy_bt,2022.2.4,MacIntel,62.5,Safari,1440,900,,,,,1,796,,,,,,,,,,,,,,,,,139,H,star,1,0,,,,,,,,,,,,,,,,repeat,letter,lettRpt,j,0.574,Lo,,,,,,1,,,,,,,,high,5,0,5,0,1,,,,,,,,,
298267,2022-11-29_17h06.47.904,vts_reward_expectancy_bt,2022.2.4,MacIntel,62.5,Safari,1440,900,,,,,0,796,,,,,,,,,,,,,,,,,167,W,circle,1,0,,,,,,,,,,,,,,,,repeat,letter,lettRpt,k,0.632,Hi,,,,,,1,,,,,,,,high,6,0,6,0,1,,,,,,,,,
298267,2022-11-29_17h06.47.904,vts_reward_expectancy_bt,2022.2.4,MacIntel,62.5,Safari,1440,900,,,,,1,797,,,,,,,,,,,,,,,,,146,B,triangle,1,0,,,,,,,,,,,,,,,,repeat,letter,lettRpt,j,0.622,Lo,,,,,,1,,,,,,,,high,7,0,7,0,1,,,,,,,,,
298267,2022-11-29_17h06.47.904,vts_reward_expectancy_bt,2022.2.4,MacIntel,62.5,Safari,1440,900,,,,,1,798,,,,,,,,,,,,,,,,,174,F,triangle,1,0,,,,,,,,,,,,,,,,repeat,letter,lettRpt,j,0.674,Lo,,,,,,1,,,,,,,,high,8,0,8,0,1,,,,,,,,,
298267,2022-11-29_17h06.47.904,vts_reward_expectancy_bt,2022.2.4,MacIntel,62.5,Safari,1440,900,,,,,10,808,,,,,,,,,,,,,,,,,132,U,hexagon,1,0,,,,,,,,,,,,,,,,repeat,letter,lettRpt,k,0.575,Hi,,,,,,1,,,,,,,,high,9,0,9,0,1,,,,,,,,,
298267,2022-11-29_17h06.47.904,vts_reward_expectancy_bt,2022.2.4,MacIntel,62.5,Safari,1440,900,,,,,0,808,,,,,,,,,,,,,,,,,125,S,circle,1,0,,,,,,,,,,,,,,,,repeat,letter,lettRpt,k,0.609,Hi,,,,,,1,,,,,,,,high,10,0,10,0,1,,,,,,,,,
298267,2022-11-29_17h06.47.904,vts_reward_expectancy_bt,2022.2.4,MacIntel,62.5,Safari,1440,900,,,,,1,809,,,,,,,,,,,,,,,,,181,Y,star,1,0,,,,,,,,,,,,,,,,repeat,letter,lettRpt,k,0.575,Lo,,,,,,1,,,,,,,,high,11,0,11,0,1,,,,,,,,,
298267,2022-11-29_17h06.47.904,vts_reward_expectancy_bt,2022.2.4,MacIntel,62.5,Safari,1440,900,,,,,10,819,,,,,,,,,,,,,,,,,160,D,hexagon,1,0,,,,,,,,,,,,,,,,repeat,letter,lettRpt,j,0.47,Hi,,,,,,1,,,,,,,,high,12,0,12,0,1,,,,,,,,,
298267,2022-11-29_17h06.47.904,vts_reward_expectancy_bt,2022.2.4,MacIntel,62.5,Safari,1440,900,,,,,0,819,,,,,,,,,,,,,,,,,139,H,circle,0,0,,,,,,,,,,,,,,,,repeat,letter,NA,k,0.657,Hi,,,,,,1,,,,,,,,high,13,0,13,0,1,,,,,,,,,
298267,2022-11-29_17h06.47.904,vts_reward_expectancy_bt,2022.2.4,MacIntel,62.5,Safari,1440,900,,,,,1,820,,,,,,,,,,,,,,,,,167,W,star,1,1,,,,,,,,,,,,,,,,repeat,letter,lettRpt,k,0.643,Lo,,,,,,1,,,,,,,,high,14,0,14,0,1,,,,,,,,,
298267,2022-11-29_17h06.47.904,vts_reward_expectancy_bt,2022.2.4,MacIntel,62.5,Safari,1440,900,,,,,1,821,,,,,,,,,,,,,,,,,146,B,triangle,1,0,,,,,,,,,,,,,,,,repeat,letter,lettRpt,j,0.542,Lo,,,,,,1,,,,,,,,high,15,0,15,0,1,,,,,,,,,
298267,2022-11-29_17h06.47.904,vts_reward_expectancy_bt,2022.2.4,MacIntel,62.5,Safari,1440,900,,,,,10,831,,,,,,,,,,,,,,,,,167,B,circle,1,0,,,,,,,,,,,,,,,,repeat,letter,lettRpt,j,0.502,Hi,,,,,,1,,,,,,,,high,16,0,16,0,1,,,,,,,,,
298267,2022-11-29_17h06.47.904,vts_reward_expectancy_bt,2022.2.4,MacIntel,62.5,Safari,1440,900,,,,,10,841,,,,,,,,,,,,,,,,,146,S,star,1,0,,,,,,,,,,,,,,,,repeat,letter,lettRpt,k,0.676,Lo,,,,,,1,,,,,,,,high,17,0,17,0,1,,,,,,,,,
298267,2022-11-29_17h06.47.904,vts_reward_expectancy_bt,2022.2.4,MacIntel,62.5,Safari,1440,900,,,,,1,842,,,,,,,,,,,,,,,,,174,D,hexagon,1,0,,,,,,,,,,,,,,,,repeat,letter,lettRpt,j,0.564,Hi,,,,,,1,,,,,,,,high,18,0,18,0,1,,,,,,,,,
298267,2022-11-29_17h06.47.904,vts_reward_expectancy_bt,2022.2.4,MacIntel,62.5,Safari,1440,900,,,,,10,852,,,,,,,,,,,,,,,,,125,U,triangle,1,0,,,,,,,,,,,,,,,,repeat,letter,lettRpt,k,0.58,Lo,,,,,,1,,,,,,,,high,19,0,19,0,1,,,,,,,,,
298267,2022-11-29_17h06.47.904,vts_reward_expectancy_bt,2022.2.4,MacIntel,62.5,Safari,1440,900,,,,,10,862,,,,,,,,,,,,,,,,,132,Y,hexagon,1,0,,,,,,,,,,,,,,,,repeat,letter,lettRpt,k,0.59,Hi,,,,,,1,,,,,,,,high,20,0,20,0,1,,,,,,,,,
298267,2022-11-29_17h06.47.904,vts_reward_expectancy_bt,2022.2.4,MacIntel,62.5,Safari,1440,900,,,,,10,872,,,,,,,,,,,,,,,,,139,H,circle,1,0,,,,,,,,,,,,,,,,repeat,letter,lettRpt,j,0.603,Hi,,,,,,1,,,,,,,,high,21,0,21,0,1,,,,,,,,,
298267,2022-11-29_17h06.47.904,vts_reward_expectancy_bt,2022.2.4,MacIntel,62.5,Safari,1440,900,,,,,10,882,,,,,,,,,,,,,,,,,160,F,triangle,1,0,,,,,,,,,,,,,,,,repeat,letter,lettRpt,j,0.644,Lo,,,,,,1,,,,,,,,high,22,0,22,0,1,,,,,,,,,
298267,2022-11-29_17h06.47.904,vts_reward_expectancy_bt,2022.2.4,MacIntel,62.5,Safari,1440,900,,,,,10,892,,,,,,,,,,,,,,,,,181,W,star,1,0,,,,,,,,,,,,,,,,repeat,letter,lettRpt,k,0.573,Lo,,,,,,1,,,,,,,,high,23,0,23,0,1,,,,,,,,,
298267,2022-11-29_17h06.47.904,vts_reward_expectancy_bt,2022.2.4,MacIntel,62.5,Safari,1440,900,,,,,10,902,,,,,,,,,,,,,,,,,167,B,star,1,0,,,,,,,,,,,,,,,,repeat,letter,lettRpt,j,0.541,Lo,,,,,,1,,,,,,,,high,24,0,24,0,1,,,,,,,,,
298267,2022-11-29_17h06.47.904,vts_reward_expectancy_bt,2022.2.4,MacIntel,62.5,Safari,1440,900,,,,,1,903,,,,,,,,,,,,,,,,,160,U,triangle,1,0,,,,,,,,,,,,,,,,repeat,letter,lettRpt,k,0.618,Lo,,,,,,1,,,,,,,,high,25,0,25,0,1,,,,,,,,,
298267,2022-11-29_17h06.47.904,vts_reward_expectancy_bt,2022.2.4,MacIntel,62.5,Safari,1440,900,,,,,10,913,,,,,,,,,,,,,,,,,139,Y,hexagon,1,0,,,,,,,,,,,,,,,,repeat,letter,lettRpt,k,0.512,Hi,,,,,,1,,,,,,,,high,26,0,26,0,1,,,,,,,,,
298267,2022-11-29_17h06.47.904,vts_reward_expectancy_bt,2022.2.4,MacIntel,62.5,Safari,1440,900,,,,,0,913,,,,,,,,,,,,,,,,,181,F,circle,1,0,,,,,,,,,,,,,,,,repeat,letter,lettRpt,j,0.775,Hi,,,,,,1,,,,,,,,high,27,0,27,0,1,,,,,,,,,
298267,2022-11-29_17h06.47.904,vts_reward_expectancy_bt,2022.2.4,MacIntel,62.5,Safari,1440,900,,,,,1,914,,,,,,,,,,,,,,,,,174,D,star,1,0,,,,,,,,,,,,,,,,repeat,letter,lettRpt,j,0.661,Lo,,,,,,1,,,,,,,,high,28,0,28,0,1,,,,,,,,,
298267,2022-11-29_17h06.47.904,vts_reward_expectancy_bt,2022.2.4,MacIntel,62.5,Safari,1440,900,,,,,1,915,,,,,,,,,,,,,,,,,132,H,triangle,1,0,,,,,,,,,,,,,,,,repeat,letter,lettRpt,j,0.572,Lo,,,,,,1,,,,,,,,high,29,0,29,0,1,,,,,,,,,
298267,2022-11-29_17h06.47.904,vts_reward_expectancy_bt,2022.2.4,MacIntel,62.5,Safari,1440,900,,,,,10,925,,,,,,,,,,,,,,,,,146,S,circle,1,0,,,,,,,,,,,,,,,,repeat,letter,lettRpt,k,0.47,Hi,,,,,,1,,,,,,,,high,30,0,30,0,1,,,,,,,,,
298267,2022-11-29_17h06.47.904,vts_reward_expectancy_bt,2022.2.4,MacIntel,62.5,Safari,1440,900,,,,,1,926,,,,,,,,,,,,,,,,,125,W,hexagon,1,0,,,,,,,,,,,,,,,,repeat,letter,lettRpt,k,0.528,Hi,,,,,,1,,,,,,,,high,31,0,31,0,1,,,,,,,,,
298267,2022-11-29_17h06.47.904,vts_reward_expectancy_bt,2022.2.4,MacIntel,62.5,Safari,1440,900,,,,,10,936,,,,,,,,,,,,,,,,,139,Y,star,1,0,,,,,,,,,,,,,,,,repeat,letter,lettRpt,k,0.561,Lo,,,,,,2,,,,,,space,2.825,high,0,0,0,0,1,,,,,,,,,
298267,2022-11-29_17h06.47.904,vts_reward_expectancy_bt,2022.2.4,MacIntel,62.5,Safari,1440,900,,,,,0,936,,,,,,,,,,,,,,,,,174,U,circle,1,0,,,,,,,,,,,,,,,,repeat,letter,lettRpt,k,0.625,Hi,,,,,,2,,,,,,,,high,1,0,1,0,1,,,,,,,,,
298267,2022-11-29_17h06.47.904,vts_reward_expectancy_bt,2022.2.4,MacIntel,62.5,Safari,1440,900,,,,,0,936,,,,,,,,,,,,,,,,,146,D,hexagon,1,0,,,,,,,,,,,,,,,,repeat,letter,lettRpt,j,0.677,Hi,,,,,,2,,,,,,,,high,2,0,2,0,1,,,,,,,,,
298267,2022-11-29_17h06.47.904,vts_reward_expectancy_bt,2022.2.4,MacIntel,62.5,Safari,1440,900,,,,,1,937,,,,,,,,,,,,,,,,,181,S,triangle,1,0,,,,,,,,,,,,,,,,repeat,letter,lettRpt,k,0.444,Lo,,,,,,2,,,,,,,,high,3,0,3,0,1,,,,,,,,,
298267,2022-11-29_17h06.47.904,vts_reward_expectancy_bt,2022.2.4,MacIntel,62.5,Safari,1440,900,,,,,1,938,,,,,,,,,,,,,,,,,160,W,star,1,0,,,,,,,,,,,,,,,,repeat,letter,lettRpt,k,0.492,Lo,,,,,,2,,,,,,,,high,4,0,4,0,1,,,,,,,,,
298267,2022-11-29_17h06.47.904,vts_reward_expectancy_bt,2022.2.4,MacIntel,62.5,Safari,1440,900,,,,,1,939,,,,,,,,,,,,,,,,,167,B,circle,1,0,,,,,,,,,,,,,,,,repeat,letter,lettRpt,j,0.559,Hi,,,,,,2,,,,,,,,high,5,0,5,0,1,,,,,,,,,
298267,2022-11-29_17h06.47.904,vts_reward_expectancy_bt,2022.2.4,MacIntel,62.5,Safari,1440,900,,,,,0,939,,,,,,,,,,,,,,,,,132,F,hexagon,1,0,,,,,,,,,,,,,,,,repeat,letter,lettRpt,j,0.659,Hi,,,,,,2,,,,,,,,high,6,0,6,0,1,,,,,,,,,
298267,2022-11-29_17h06.47.904,vts_reward_expectancy_bt,2022.2.4,MacIntel,62.5,Safari,1440,900,,,,,1,940,,,,,,,,,,,,,,,,,125,H,triangle,1,0,,,,,,,,,,,,,,,,repeat,letter,lettRpt,j,0.51,Lo,,,,,,2,,,,,,,,high,7,0,7,0,1,,,,,,,,,
298267,2022-11-29_17h06.47.904,vts_reward_expectancy_bt,2022.2.4,MacIntel,62.5,Safari,1440,900,,,,,1,941,,,,,,,,,,,,,,,,,139,Y,star,1,0,,,,,,,,,,,,,,,,repeat,letter,lettRpt,k,0.465,Lo,,,,,,2,,,,,,,,high,8,0,8,0,1,,,,,,,,,
298267,2022-11-29_17h06.47.904,vts_reward_expectancy_bt,2022.2.4,MacIntel,62.5,Safari,1440,900,,,,,0,941,,,,,,,,,,,,,,,,,174,U,circle,1,0,,,,,,,,,,,,,,,,repeat,letter,lettRpt,k,0.582,Hi,,,,,,2,,,,,,,,high,9,0,9,0,1,,,,,,,,,
298267,2022-11-29_17h06.47.904,vts_reward_expectancy_bt,2022.2.4,MacIntel,62.5,Safari,1440,900,,,,,0,941,,,,,,,,,,,,,,,,,146,D,hexagon,1,0,,,,,,,,,,,,,,,,repeat,letter,lettRpt,j,0.706,Hi,,,,,,2,,,,,,,,high,10,0,10,0,1,,,,,,,,,
298267,2022-11-29_17h06.47.904,vts_reward_expectancy_bt,2022.2.4,MacIntel,62.5,Safari,1440,900,,,,,1,942,,,,,,,,,,,,,,,,,181,S,triangle,1,0,,,,,,,,,,,,,,,,repeat,letter,lettRpt,k,0.533,Lo,,,,,,2,,,,,,,,high,11,0,11,0,1,,,,,,,,,
298267,2022-11-29_17h06.47.904,vts_reward_expectancy_bt,2022.2.4,MacIntel,62.5,Safari,1440,900,,,,,0,942,,,,,,,,,,,,,,,,,160,W,circle,1,0,,,,,,,,,,,,,,,,repeat,letter,lettRpt,k,0.593,Hi,,,,,,2,,,,,,,,high,12,0,12,0,1,,,,,,,,,
298267,2022-11-29_17h06.47.904,vts_reward_expectancy_bt,2022.2.4,MacIntel,62.5,Safari,1440,900,,,,,1,943,,,,,,,,,,,,,,,,,167,B,triangle,1,0,,,,,,,,,,,,,,,,repeat,letter,lettRpt,j,0.443,Lo,,,,,,2,,,,,,,,high,13,0,13,0,1,,,,,,,,,
298267,2022-11-29_17h06.47.904,vts_reward_expectancy_bt,2022.2.4,MacIntel,62.5,Safari,1440,900,,,,,10,953,,,,,,,,,,,,,,,,,132,F,star,1,0,,,,,,,,,,,,,,,,repeat,letter,lettRpt,j,0.467,Lo,,,,,,2,,,,,,,,high,14,0,14,0,1,,,,,,,,,
298267,2022-11-29_17h06.47.904,vts_reward_expectancy_bt,2022.2.4,MacIntel,62.5,Safari,1440,900,,,,,10,963,,,,,,,,,,,,,,,,,125,H,hexagon,1,0,,,,,,,,,,,,,,,,repeat,letter,lettRpt,j,0.524,Hi,,,,,,2,,,,,,,,high,15,0,15,0,1,,,,,,,,,
298267,2022-11-29_17h06.47.904,vts_reward_expectancy_bt,2022.2.4,MacIntel,62.5,Safari,1440,900,,,,,10,973,,,,,,,,,,,,,,,,,146,Y,hexagon,1,0,,,,,,,,,,,,,,,,repeat,letter,lettRpt,k,0.392,Hi,,,,,,2,,,,,,,,high,16,0,16,0,1,,,,,,,,,
298267,2022-11-29_17h06.47.904,vts_reward_expectancy_bt,2022.2.4,MacIntel,62.5,Safari,1440,900,,,,,1,974,,,,,,,,,,,,,,,,,167,B,star,1,0,,,,,,,,,,,,,,,,repeat,letter,lettRpt,j,0.408,Lo,,,,,,2,,,,,,,,high,17,0,17,0,1,,,,,,,,,
298267,2022-11-29_17h06.47.904,vts_reward_expectancy_bt,2022.2.4,MacIntel,62.5,Safari,1440,900,,,,,0,974,,,,,,,,,,,,,,,,,181,W,circle,0,0,,,,,,,,,,,,,,,,repeat,letter,NA,j,0.575,Lo,,,,,,2,,,,,,,,high,18,0,18,0,1,,,,,,,,,
298267,2022-11-29_17h06.47.904,vts_reward_expectancy_bt,2022.2.4,MacIntel,62.5,Safari,1440,900,,,,,1,975,,,,,,,,,,,,,,,,,132,D,triangle,1,1,,,,,,,,,,,,,,,,repeat,letter,lettRpt,j,0.509,Lo,,,,,,2,,,,,,,,high,19,0,19,0,1,,,,,,,,,
298267,2022-11-29_17h06.47.904,vts_reward_expectancy_bt,2022.2.4,MacIntel,62.5,Safari,1440,900,,,,,0,975,,,,,,,,,,,,,,,,,174,U,triangle,0,0,,,,,,,,,,,,,,,,repeat,letter,NA,j,0.594,Lo,,,,,,2,,,,,,,,high,20,0,20,0,1,,,,,,,,,
298267,2022-11-29_17h06.47.904,vts_reward_expectancy_bt,2022.2.4,MacIntel,62.5,Safari,1440,900,,,,,0,975,,,,,,,,,,,,,,,,,160,S,circle,1,1,,,,,,,,,,,,,,,,repeat,letter,lettRpt,k,0.606,Hi,,,,,,2,,,,,,,,high,21,0,21,0,1,,,,,,,,,
298267,2022-11-29_17h06.47.904,vts_reward_expectancy_bt,2022.2.4,MacIntel,62.5,Safari,1440,900,,,,,10,985,,,,,,,,,,,,,,,,,139,H,hexagon,1,0,,,,,,,,,,,,,,,,repeat,letter,lettRpt,j,0.549,Hi,,,,,,2,,,,,,,,high,22,0,22,0,1,,,,,,,,,
298267,2022-11-29_17h06.47.904,vts_reward_expectancy_bt,2022.2.4,MacIntel,62.5,Safari,1440,900,,,,,10,995,,,,,,,,,,,,,,,,,125,F,star,1,0,,,,,,,,,,,,,,,,repeat,letter,lettRpt,j,0.577,Lo,,,,,,2,,,,,,,,high,23,0,23,0,1,,,,,,,,,
298267,2022-11-29_17h06.47.904,vts_reward_expectancy_bt,2022.2.4,MacIntel,62.5,Safari,1440,900,,,,,1,996,,,,,,,,,,,,,,,,,125,Y,star,1,0,,,,,,,,,,,,,,,,repeat,letter,lettRpt,k,0.415,Lo,,,,,,2,,,,,,,,high,24,0,24,0,1,,,,,,,,,
298267,2022-11-29_17h06.47.904,vts_reward_expectancy_bt,2022.2.4,MacIntel,62.5,Safari,1440,900,,,,,0,996,,,,,,,,,,,,,,,,,174,F,circle,1,0,,,,,,,,,,,,,,,,repeat,letter,lettRpt,j,0.595,Hi,,,,,,2,,,,,,,,high,25,0,25,0,1,,,,,,,,,
298267,2022-11-29_17h06.47.904,vts_reward_expectancy_bt,2022.2.4,MacIntel,62.5,Safari,1440,900,,,,,0,996,,,,,,,,,,,,,,,,,132,H,hexagon,0,0,,,,,,,,,,,,,,,,repeat,letter,NA,k,0.565,Hi,,,,,,2,,,,,,,,high,26,0,26,0,1,,,,,,,,,
298267,2022-11-29_17h06.47.904,vts_reward_expectancy_bt,2022.2.4,MacIntel,62.5,Safari,1440,900,,,,,1,997,,,,,,,,,,,,,,,,,167,S,triangle,1,1,,,,,,,,,,,,,,,,repeat,letter,lettRpt,k,0.572,Lo,,,,,,2,,,,,,,,high,27,0,27,0,1,,,,,,,,,
298267,2022-11-29_17h06.47.904,vts_reward_expectancy_bt,2022.2.4,MacIntel,62.5,Safari,1440,900,,,,,10,1007,,,,,,,,,,,,,,,,,146,U,hexagon,1,0,,,,,,,,,,,,,,,,repeat,letter,lettRpt,k,0.491,Hi,,,,,,2,,,,,,,,high,28,0,28,0,1,,,,,,,,,
298267,2022-11-29_17h06.47.904,vts_reward_expectancy_bt,2022.2.4,MacIntel,62.5,Safari,1440,900,,,,,10,1017,,,,,,,,,,,,,,,,,160,W,star,1,0,,,,,,,,,,,,,,,,repeat,letter,lettRpt,k,0.523,Lo,,,,,,2,,,,,,,,high,29,0,29,0,1,,,,,,,,,
298267,2022-11-29_17h06.47.904,vts_reward_expectancy_bt,2022.2.4,MacIntel,62.5,Safari,1440,900,,,,,10,1027,,,,,,,,,,,,,,,,,139,D,triangle,1,0,,,,,,,,,,,,,,,,repeat,letter,lettRpt,j,0.559,Lo,,,,,,2,,,,,,,,high,30,0,30,0,1,,,,,,,,,
298267,2022-11-29_17h06.47.904,vts_reward_expectancy_bt,2022.2.4,MacIntel,62.5,Safari,1440,900,,,,,10,1037,,,,,,,,,,,,,,,,,181,B,circle,1,0,,,,,,,,,,,,,,,,repeat,letter,lettRpt,j,0.44,Hi,,,,,,2,,,,,,,,high,31,0,31,0,1,,,,,,,,,
298267,2022-11-29_17h06.47.904,vts_reward_expectancy_bt,2022.2.4,MacIntel,62.5,Safari,1440,900,,,,,0,1037,,,,,,,,,,,,,,,,,174,U,circle,1,0,,,,,,,,,,,,,,,,repeat,letter,lettRpt,k,0.623,Hi,,,,,,3,,,,,,space,1.064,high,0,0,0,0,1,,,,,,,,,
298267,2022-11-29_17h06.47.904,vts_reward_expectancy_bt,2022.2.4,MacIntel,62.5,Safari,1440,900,,,,,0,1037,,,,,,,,,,,,,,,,,139,D,hexagon,1,0,,,,,,,,,,,,,,,,repeat,letter,lettRpt,j,0.513,Hi,,,,,,3,,,,,,,,high,1,0,1,0,1,,,,,,,,,
298267,2022-11-29_17h06.47.904,vts_reward_expectancy_bt,2022.2.4,MacIntel,62.5,Safari,1440,900,,,,,1,1038,,,,,,,,,,,,,,,,,132,S,triangle,1,0,,,,,,,,,,,,,,,,repeat,letter,lettRpt,k,0.481,Lo,,,,,,3,,,,,,,,high,2,0,2,0,1,,,,,,,,,
298267,2022-11-29_17h06.47.904,vts_reward_expectancy_bt,2022.2.4,MacIntel,62.5,Safari,1440,900,,,,,1,1039,,,,,,,,,,,,,,,,,181,F,star,1,0,,,,,,,,,,,,,,,,repeat,letter,lettRpt,j,0.546,Lo,,,,,,3,,,,,,,,high,3,0,3,0,1,,,,,,,,,
298267,2022-11-29_17h06.47.904,vts_reward_expectancy_bt,2022.2.4,MacIntel,62.5,Safari,1440,900,,,,,0,1039,,,,,,,,,,,,,,,,,125,H,circle,1,0,,,,,,,,,,,,,,,,repeat,letter,lettRpt,j,0.68,Hi,,,,,,3,,,,,,,,high,4,0,4,0,1,,,,,,,,,
298267,2022-11-29_17h06.47.904,vts_reward_expectancy_bt,2022.2.4,MacIntel,62.5,Safari,1440,900,,,,,0,1039,,,,,,,,,,,,,,,,,167,Y,hexagon,1,0,,,,,,,,,,,,,,,,repeat,letter,lettRpt,k,0.591,Hi,,,,,,3,,,,,,,,high,5,0,5,0,1,,,,,,,,,
298267,2022-11-29_17h06.47.904,vts_reward_expectancy_bt,2022.2.4,MacIntel,62.5,Safari,1440,900,,,,,1,1040,,,,,,,,,,,,,,,,,160,W,triangle,1,0,,,,,,,,,,,,,,,,repeat,letter,lettRpt,k,0.572,Lo,,,,,,3,,,,,,,,high,6,0,6,0,1,,,,,,,,,
298267,2022-11-29_17h06.47.904,vts_reward_expectancy_bt,2022.2.4,MacIntel,62.5,Safari,1440,900,,,,,1,1041,,,,,,,,,,,,,,,,,146,B,star,1,0,,,,,,,,,,,,,,,,repeat,letter,lettRpt,j,0.517,Lo,,,,,,3,,,,,,,,high,7,0,7,0,1,,,,,,,,,
298267,2022-11-29_17h06.47.904,vts_reward_expectancy_bt,2022.2.4,MacIntel,62.5,Safari,1440,900,,,,,1,1042,,,,,,,,,,,,,,,,,174,U,triangle,1,0,,,,,,,,,,,,,,,,repeat,letter,lettRpt,k,0.476,Lo,,,,,,3,,,,,,,,high,8,0,8,0,1,,,,,,,,,
298267,2022-11-29_17h06.47.904,vts_reward_expectancy_bt,2022.2.4,MacIntel,62.5,Safari,1440,900,,,,,10,1052,,,,,,,,,,,,,,,,,139,D,hexagon,1,0,,,,,,,,,,,,,,,,repeat,letter,lettRpt,j,0.488,Hi,,,,,,3,,,,,,,,high,9,0,9,0,1,,,,,,,,,
298267,2022-11-29_17h06.47.904,vts_reward_expectancy_bt,2022.2.4,MacIntel,62.5,Safari,1440,900,,,,,1,1053,,,,,,,,,,,,,,,,,132,S,star,1,0,,,,,,,,,,,,,,,,repeat,letter,lettRpt,k,0.44,Lo,,,,,,3,,,,,,,,high,10,0,10,0,1,,,,,,,,,
298267,2022-11-29_17h06.47.904,vts_reward_expectancy_bt,2022.2.4,MacIntel,62.5,Safari,1440,900,,,,,0,1053,,,,,,,,,,,,,,,,,181,F,circle,0,0,,,,,,,,,,,,,,,,repeat,letter,NA,k,0.448,Lo,,,,,,3,,,,,,,,high,11,0,11,0,1,,,,,,,,,
298267,2022-11-29_17h06.47.904,vts_reward_expectancy_bt,2022.2.4,MacIntel,62.5,Safari,1440,900,,,,,1,1054,,,,,,,,,,,,,,,,,125,H,star,1,1,,,,,,,,,,,,,,,,repeat,letter,lettRpt,j,0.534,Lo,,,,,,3,,,,,,,,high,12,0,12,0,1,,,,,,,,,
298267,2022-11-29_17h06.47.904,vts_reward_expectancy_bt,2022.2.4,MacIntel,62.5,Safari,1440,900,,,,,0,1054,,,,,,,,,,,,,,,,,167,Y,hexagon,1,0,,,,,,,,,,,,,,,,repeat,letter,lettRpt,k,0.558,Hi,,,,,,3,,,,,,,,high,13,0,13,0,1,,,,,,,,,
298267,2022-11-29_17h06.47.904,vts_reward_expectancy_bt,2022.2.4,MacIntel,62.5,Safari,1440,900,,,,,0,1054,,,,,,,,,,,,,,,,,160,W,circle,1,0,,,,,,,,,,,,,,,,repeat,letter,lettRpt,k,0.577,Hi,,,,,,3,,,,,,,,high,14,0,14,0,1,,,,,,,,,
298267,2022-11-29_17h06.47.904,vts_reward_expectancy_bt,2022.2.4,MacIntel,62.5,Safari,1440,900,,,,,1,1055,,,,,,,,,,,,,,,,,146,B,triangle,1,0,,,,,,,,,,,,,,,,repeat,letter,lettRpt,j,0.546,Lo,,,,,,3,,,,,,,,high,15,0,15,0,1,,,,,,,,,
298267,2022-11-29_17h06.47.904,vts_reward_expectancy_bt,2022.2.4,MacIntel,62.5,Safari,1440,900,,,,,1,1056,,,,,,,,,,,,,,,,,174,U,triangle,1,0,,,,,,,,,,,,,,,,repeat,letter,lettRpt,k,0.51,Lo,,,,,,3,,,,,,,,high,16,0,16,0,1,,,,,,,,,
298267,2022-11-29_17h06.47.904,vts_reward_expectancy_bt,2022.2.4,MacIntel,62.5,Safari,1440,900,,,,,0,1056,,,,,,,,,,,,,,,,,139,F,circle,1,0,,,,,,,,,,,,,,,,repeat,letter,lettRpt,j,0.505,Hi,,,,,,3,,,,,,,,high,17,0,17,0,1,,,,,,,,,
298267,2022-11-29_17h06.47.904,vts_reward_expectancy_bt,2022.2.4,MacIntel,62.5,Safari,1440,900,,,,,1,1057,,,,,,,,,,,,,,,,,181,B,star,1,0,,,,,,,,,,,,,,,,repeat,letter,lettRpt,j,0.657,Lo,,,,,,3,,,,,,,,high,18,0,18,0,1,,,,,,,,,
298267,2022-11-29_17h06.47.904,vts_reward_expectancy_bt,2022.2.4,MacIntel,62.5,Safari,1440,900,,,,,1,1058,,,,,,,,,,,,,,,,,132,S,hexagon,1,0,,,,,,,,,,,,,,,,switch,number,numSwt,d,0.495,Hi,,,,,,3,,,,,,,,high,19,0,19,0,1,,,,,,,,,
298267,2022-11-29_17h06.47.904,vts_reward_expectancy_bt,2022.2.4,MacIntel,62.5,Safari,1440,900,,,,,0,1058,,,,,,,,,,,,,,,,,160,H,star,0,0,,,,,,,,,,,,,,,,repeat,number,NA,d,0.506,Hi,,,,,,3,,,,,,,,high,20,0,20,0,1,,,,,,,,,
298267,2022-11-29_17h06.47.904,vts_reward_expectancy_bt,2022.2.4,MacIntel,62.5,Safari,1440,900,,,,,1,1059,,,,,,,,,,,,,,,,,125,W,hexagon,1,1,,,,,,,,,,,,,,,,repeat,number,numRpt,d,0.547,Hi,,,,,,3,,,,,,,,high,21,0,21,0,1,,,,,,,,,
298267,2022-11-29_17h06.47.904,vts_reward_expectancy_bt,2022.2.4,MacIntel,62.5,Safari,1440,900,,,,,10,1069,,,,,,,,,,,,,,,,,146,Y,triangle,1,0,,,,,,,,,,,,,,,,repeat,number,numRpt,d,0.573,Lo,,,,,,3,,,,,,,,high,22,0,22,0,1,,,,,,,,,
298267,2022-11-29_17h06.47.904,vts_reward_expectancy_bt,2022.2.4,MacIntel,62.5,Safari,1440,900,,,,,1,1070,,,,,,,,,,,,,,,,,167,D,circle,1,0,,,,,,,,,,,,,,,,repeat,number,numRpt,f,0.525,Hi,,,,,,3,,,,,,,,high,23,0,23,0,1,,,,,,,,,
298267,2022-11-29_17h06.47.904,vts_reward_expectancy_bt,2022.2.4,MacIntel,62.5,Safari,1440,900,,,,,10,1080,,,,,,,,,,,,,,,,,160,W,triangle,1,0,,,,,,,,,,,,,,,,repeat,number,numRpt,f,0.559,Lo,,,,,,3,,,,,,,,high,24,0,24,0,1,,,,,,,,,
298267,2022-11-29_17h06.47.904,vts_reward_expectancy_bt,2022.2.4,MacIntel,62.5,Safari,1440,900,,,,,10,1090,,,,,,,,,,,,,,,,,125,B,circle,1,0,,,,,,,,,,,,,,,,repeat,number,numRpt,d,0.549,Hi,,,,,,3,,,,,,,,high,25,0,25,0,1,,,,,,,,,
298267,2022-11-29_17h06.47.904,vts_reward_expectancy_bt,2022.2.4,MacIntel,62.5,Safari,1440,900,,,,,1,1091,,,,,,,,,,,,,,,,,139,H,star,1,0,,,,,,,,,,,,,,,,repeat,number,numRpt,d,0.534,Lo,,,,,,3,,,,,,,,high,26,0,26,0,1,,,,,,,,,
298267,2022-11-29_17h06.47.904,vts_reward_expectancy_bt,2022.2.4,MacIntel,62.5,Safari,1440,900,,,,,10,1101,,,,,,,,,,,,,,,,,132,F,hexagon,1,0,,,,,,,,,,,,,,,,repeat,number,numRpt,d,0.393,Hi,,,,,,3,,,,,,,,high,27,0,27,0,1,,,,,,,,,
298267,2022-11-29_17h06.47.904,vts_reward_expectancy_bt,2022.2.4,MacIntel,62.5,Safari,1440,900,,,,,1,1102,,,,,,,,,,,,,,,,,146,D,circle,1,0,,,,,,,,,,,,,,,,repeat,number,numRpt,d,0.558,Hi,,,,,,3,,,,,,,,high,28,0,28,0,1,,,,,,,,,
298267,2022-11-29_17h06.47.904,vts_reward_expectancy_bt,2022.2.4,MacIntel,62.5,Safari,1440,900,,,,,10,1112,,,,,,,,,,,,,,,,,181,U,hexagon,1,0,,,,,,,,,,,,,,,,repeat,number,numRpt,f,0.459,Hi,,,,,,3,,,,,,,,high,29,0,29,0,1,,,,,,,,,
298267,2022-11-29_17h06.47.904,vts_reward_expectancy_bt,2022.2.4,MacIntel,62.5,Safari,1440,900,,,,,1,1113,,,,,,,,,,,,,,,,,174,Y,star,1,0,,,,,,,,,,,,,,,,repeat,number,numRpt,f,0.726,Lo,,,,,,3,,,,,,,,high,30,0,30,0,1,,,,,,,,,
298267,2022-11-29_17h06.47.904,vts_reward_expectancy_bt,2022.2.4,MacIntel,62.5,Safari,1440,900,,,,,1,1114,,,,,,,,,,,,,,,,,167,S,triangle,1,0,,,,,,,,,,,,,,,,repeat,number,numRpt,f,0.475,Lo,,,,,,3,,,,,,,,high,31,0,31,0,1,,,,,,,,,
298267,2022-11-29_17h06.47.904,vts_reward_expectancy_bt,2022.2.4,MacIntel,62.5,Safari,1440,900,,,,,0,1114,,,,,,,,,,,,,,,,,160,B,hexagon,1,0,,,,,,,,,,,,,,,,repeat,number,numRpt,f,1.005,Hi,,,,,,4,,,,,,space,0.463,high,0,0,0,0,1,,,,,,,,,
298267,2022-11-29_17h06.47.904,vts_reward_expectancy_bt,2022.2.4,MacIntel,62.5,Safari,1440,900,,,,,10,1124,,,,,,,,,,,,,,,,,181,U,triangle,1,0,,,,,,,,,,,,,,,,repeat,number,numRpt,f,0.459,Lo,,,,,,4,,,,,,,,high,1,0,1,0,1,,,,,,,,,
298267,2022-11-29_17h06.47.904,vts_reward_expectancy_bt,2022.2.4,MacIntel,62.5,Safari,1440,900,,,,,1,1125,,,,,,,,,,,,,,,,,174,H,star,1,0,,,,,,,,,,,,,,,,repeat,number,numRpt,f,0.527,Lo,,,,,,4,,,,,,,,high,2,0,2,0,1,,,,,,,,,
298267,2022-11-29_17h06.47.904,vts_reward_expectancy_bt,2022.2.4,MacIntel,62.5,Safari,1440,900,,,,,0,1125,,,,,,,,,,,,,,,,,146,Y,circle,1,0,,,,,,,,,,,,,,,,repeat,number,numRpt,d,0.64,Hi,,,,,,4,,,,,,,,high,3,0,3,0,1,,,,,,,,,
298267,2022-11-29_17h06.47.904,vts_reward_expectancy_bt,2022.2.4,MacIntel,62.5,Safari,1440,900,,,,,0,1125,,,,,,,,,,,,,,,,,167,F,hexagon,1,0,,,,,,,,,,,,,,,,repeat,number,numRpt,f,0.543,Hi,,,,,,4,,,,,,,,high,4,0,4,0,1,,,,,,,,,
298267,2022-11-29_17h06.47.904,vts_reward_expectancy_bt,2022.2.4,MacIntel,62.5,Safari,1440,900,,,,,1,1126,,,,,,,,,,,,,,,,,132,W,triangle,1,0,,,,,,,,,,,,,,,,repeat,number,numRpt,d,0.444,Lo,,,,,,4,,,,,,,,high,5,0,5,0,1,,,,,,,,,
298267,2022-11-29_17h06.47.904,vts_reward_expectancy_bt,2022.2.4,MacIntel,62.5,Safari,1440,900,,,,,1,1127,,,,,,,,,,,,,,,,,139,S,star,1,0,,,,,,,,,,,,,,,,repeat,number,numRpt,d,0.576,Lo,,,,,,4,,,,,,,,high,6,0,6,0,1,,,,,,,,,
298267,2022-11-29_17h06.47.904,vts_reward_expectancy_bt,2022.2.4,MacIntel,62.5,Safari,1440,900,,,,,10,1137,,,,,,,,,,,,,,,,,125,D,circle,1,0,,,,,,,,,,,,,,,,repeat,number,numRpt,d,0.441,Hi,,,,,,4,,,,,,,,high,7,0,7,0,1,,,,,,,,,
298267,2022-11-29_17h06.47.904,vts_reward_expectancy_bt,2022.2.4,MacIntel,62.5,Safari,1440,900,,,,,1,1138,,,,,,,,,,,,,,,,,160,B,triangle,1,0,,,,,,,,,,,,,,,,repeat,number,numRpt,f,0.525,Lo,,,,,,4,,,,,,,,high,8,0,8,0,1,,,,,,,,,
298267,2022-11-29_17h06.47.904,vts_reward_expectancy_bt,2022.2.4,MacIntel,62.5,Safari,1440,900,,,,,0,1138,,,,,,,,,,,,,,,,,181,U,circle,0,0,,,,,,,,,,,,,,,,repeat,number,NA,d,0.432,Lo,,,,,,4,,,,,,,,high,9,0,9,0,1,,,,,,,,,
298267,2022-11-29_17h06.47.904,vts_reward_expectancy_bt,2022.2.4,MacIntel,62.5,Safari,1440,900,,,,,1,1139,,,,,,,,,,,,,,,,,174,H,star,1,1,,,,,,,,,,,,,,,,repeat,number,numRpt,f,0.673,Lo,,,,,,4,,,,,,,,high,10,0,10,0,1,,,,,,,,,
298267,2022-11-29_17h06.47.904,vts_reward_expectancy_bt,2022.2.4,MacIntel,62.5,Safari,1440,900,,,,,0,1139,,,,,,,,,,,,,,,,,146,Y,hexagon,1,0,,,,,,,,,,,,,,,,repeat,number,numRpt,d,0.593,Hi,,,,,,4,,,,,,,,high,11,0,11,0,1,,,,,,,,,
298267,2022-11-29_17h06.47.904,vts_reward_expectancy_bt,2022.2.4,MacIntel,62.5,Safari,1440,900,,,,,10,1149,,,,,,,,,,,,,,,,,167,F,triangle,1,0,,,,,,,,,,,,,,,,repeat,number,numRpt,f,0.477,Lo,,,,,,4,,,,,,,,high,12,0,12,0,1,,,,,,,,,
298267,2022-11-29_17h06.47.904,vts_reward_expectancy_bt,2022.2.4,MacIntel,62.5,Safari,1440,900,,,,,10,1159,,,,,,,,,,,,,,,,,132,W,hexagon,1,0,,,,,,,,,,,,,,,,switch,letter,lettSwt,k,0.559,Hi,,,,,,4,,,,,,,,high,13,0,13,0,1,,,,,,,,,
298267,2022-11-29_17h06.47.904,vts_reward_expectancy_bt,2022.2.4,MacIntel,62.5,Safari,1440,900,,,,,1,1160,,,,,,,,,,,,,,,,,139,S,star,1,0,,,,,,,,,,,,,,,,switch,number,numSwt,d,0.447,Lo,,,,,,4,,,,,,,,high,14,0,14,0,1,,,,,,,,,
298267,2022-11-29_17h06.47.904,vts_reward_expectancy_bt,2022.2.4,MacIntel,62.5,Safari,1440,900,,,,,10,1170,,,,,,,,,,,,,,,,,125,D,circle,1,0,,,,,,,,,,,,,,,,switch,letter,lettSwt,j,0.507,Hi,,,,,,4,,,,,,,,high,15,0,15,0,1,,,,,,,,,
298267,2022-11-29_17h06.47.904,vts_reward_expectancy_bt,2022.2.4,MacIntel,62.5,Safari,1440,900,,,,,1,1171,,,,,,,,,,,,,,,,,181,S,star,1,0,,,,,,,,,,,,,,,,switch,number,numSwt,f,0.543,Lo,,,,,,4,,,,,,,,high,16,0,16,0,1,,,,,,,,,
298267,2022-11-29_17h06.47.904,vts_reward_expectancy_bt,2022.2.4,MacIntel,62.5,Safari,1440,900,,,,,10,1181,,,,,,,,,,,,,,,,,132,F,circle,1,0,,,,,,,,,,,,,,,,switch,letter,lettSwt,j,0.608,Hi,,,,,,4,,,,,,,,high,17,0,17,0,1,,,,,,,,,
298267,2022-11-29_17h06.47.904,vts_reward_expectancy_bt,2022.2.4,MacIntel,62.5,Safari,1440,900,,,,,0,1181,,,,,,,,,,,,,,,,,139,Y,hexagon,1,0,,,,,,,,,,,,,,,,switch,number,numSwt,d,0.558,Hi,,,,,,4,,,,,,,,high,18,0,18,0,1,,,,,,,,,
298267,2022-11-29_17h06.47.904,vts_reward_expectancy_bt,2022.2.4,MacIntel,62.5,Safari,1440,900,,,,,1,1182,,,,,,,,,,,,,,,,,167,W,triangle,1,0,,,,,,,,,,,,,,,,switch,letter,lettSwt,k,0.469,Lo,,,,,,4,,,,,,,,high,19,0,19,0,1,,,,,,,,,
298267,2022-11-29_17h06.47.904,vts_reward_expectancy_bt,2022.2.4,MacIntel,62.5,Safari,1440,900,,,,,0,1182,,,,,,,,,,,,,,,,,125,D,circle,0,0,,,,,,,,,,,,,,,,switch,number,NA,f,0.509,Lo,,,,,,4,,,,,,,,high,20,0,20,0,1,,,,,,,,,
298267,2022-11-29_17h06.47.904,vts_reward_expectancy_bt,2022.2.4,MacIntel,62.5,Safari,1440,900,,,,,1,1183,,,,,,,,,,,,,,,,,146,B,star,1,1,,,,,,,,,,,,,,,,repeat,number,numRpt,d,0.547,Lo,,,,,,4,,,,,,,,high,21,0,21,0,1,,,,,,,,,
298267,2022-11-29_17h06.47.904,vts_reward_expectancy_bt,2022.2.4,MacIntel,62.5,Safari,1440,900,,,,,0,1183,,,,,,,,,,,,,,,,,160,U,hexagon,0,0,,,,,,,,,,,,,,,,switch,letter,NA,j,0.518,Lo,,,,,,4,,,,,,,,high,22,0,22,0,1,,,,,,,,,
298267,2022-11-29_17h06.47.904,vts_reward_expectancy_bt,2022.2.4,MacIntel,62.5,Safari,1440,900,,,,,1,1184,,,,,,,,,,,,,,,,,174,H,triangle,1,1,,,,,,,,,,,,,,,,switch,number,numSwt,f,0.625,Lo,,,,,,4,,,,,,,,high,23,0,23,0,1,,,,,,,,,
298267,2022-11-29_17h06.47.904,vts_reward_expectancy_bt,2022.2.4,MacIntel,62.5,Safari,1440,900,,,,,10,1194,,,,,,,,,,,,,,,,,125,U,hexagon,1,0,,,,,,,,,,,,,,,,switch,letter,lettSwt,k,0.522,Hi,,,,,,4,,,,,,,,high,24,0,24,0,1,,,,,,,,,
298267,2022-11-29_17h06.47.904,vts_reward_expectancy_bt,2022.2.4,MacIntel,62.5,Safari,1440,900,,,,,0,1194,,,,,,,,,,,,,,,,,181,B,circle,1,0,,,,,,,,,,,,,,,,switch,number,numSwt,f,0.592,Hi,,,,,,4,,,,,,,,high,25,0,25,0,1,,,,,,,,,
298267,2022-11-29_17h06.47.904,vts_reward_expectancy_bt,2022.2.4,MacIntel,62.5,Safari,1440,900,,,,,1,1195,,,,,,,,,,,,,,,,,146,F,star,1,0,,,,,,,,,,,,,,,,switch,letter,lettSwt,j,0.602,Lo,,,,,,4,,,,,,,,high,26,0,26,0,1,,,,,,,,,
298267,2022-11-29_17h06.47.904,vts_reward_expectancy_bt,2022.2.4,MacIntel,62.5,Safari,1440,900,,,,,1,1196,,,,,,,,,,,,,,,,,160,D,triangle,1,0,,,,,,,,,,,,,,,,switch,number,numSwt,f,0.501,Lo,,,,,,4,,,,,,,,high,27,0,27,0,1,,,,,,,,,
298267,2022-11-29_17h06.47.904,vts_reward_expectancy_bt,2022.2.4,MacIntel,62.5,Safari,1440,900,,,,,10,1206,,,,,,,,,,,,,,,,,132,S,circle,1,0,,,,,,,,,,,,,,,,switch,letter,lettSwt,k,0.527,Hi,,,,,,4,,,,,,,,high,28,0,28,0,1,,,,,,,,,
298267,2022-11-29_17h06.47.904,vts_reward_expectancy_bt,2022.2.4,MacIntel,62.5,Safari,1440,900,,,,,10,1216,,,,,,,,,,,,,,,,,167,H,triangle,1,0,,,,,,,,,,,,,,,,switch,number,numSwt,f,0.557,Lo,,,,,,4,,,,,,,,high,29,0,29,0,1,,,,,,,,,
298267,2022-11-29_17h06.47.904,vts_reward_expectancy_bt,2022.2.4,MacIntel,62.5,Safari,1440,900,,,,,1,1217,,,,,,,,,,,,,,,,,139,W,hexagon,1,0,,,,,,,,,,,,,,,,switch,letter,lettSwt,k,0.469,Hi,,,,,,4,,,,,,,,high,30,0,30,0,1,,,,,,,,,
298267,2022-11-29_17h06.47.904,vts_reward_expectancy_bt,2022.2.4,MacIntel,62.5,Safari,1440,900,,,,,10,1227,,,,,,,,,,,,,,,,,174,Y,star,1,0,,,,,,,,,,,,,,,,switch,number,numSwt,f,0.559,Lo,,,,,,4,,,,,,,,high,31,0,31,0,1,,,,,,,,,
298267,2022-11-29_17h06.47.904,vts_reward_expectancy_bt,2022.2.4,MacIntel,62.5,Safari,1440,900,,,,,0,1227,,,,,,,,,,,,,,,,,125,B,circle,1,0,,,,,,,,,,,,,,,,repeat,number,numRpt,d,0.639,Hi,,,,,,5,,,,,,space,1.395,high,0,0,0,0,1,,,,,,,,,
298267,2022-11-29_17h06.47.904,vts_reward_expectancy_bt,2022.2.4,MacIntel,62.5,Safari,1440,900,,,,,1,1228,,,,,,,,,,,,,,,,,181,F,hexagon,1,0,,,,,,,,,,,,,,,,repeat,number,numRpt,f,0.459,Hi,,,,,,5,,,,,,,,high,1,0,1,0,1,,,,,,,,,
298267,2022-11-29_17h06.47.904,vts_reward_expectancy_bt,2022.2.4,MacIntel,62.5,Safari,1440,900,,,,,1,1229,,,,,,,,,,,,,,,,,146,Y,triangle,1,0,,,,,,,,,,,,,,,,switch,letter,lettSwt,k,0.493,Lo,,,,,,5,,,,,,,,high,2,0,2,0,1,,,,,,,,,
298267,2022-11-29_17h06.47.904,vts_reward_expectancy_bt,2022.2.4,MacIntel,62.5,Safari,1440,900,,,,,1,1230,,,,,,,,,,,,,,,,,132,W,star,1,0,,,,,,,,,,,,,,,,switch,number,numSwt,d,0.518,Lo,,,,,,5,,,,,,,,high,3,0,3,0,1,,,,,,,,,
298267,2022-11-29_17h06.47.904,vts_reward_expectancy_bt,2022.2.4,MacIntel,62.5,Safari,1440,900,,,,,0,1230,,,,,,,,,,,,,,,,,160,U,circle,1,0,,,,,,,,,,,,,,,,switch,letter,lettSwt,k,0.583,Hi,,,,,,5,,,,,,,,high,4,0,4,0,1,,,,,,,,,
298267,2022-11-29_17h06.47.904,vts_reward_expectancy_bt,2022.2.4,MacIntel,62.5,Safari,1440,900,,,,,10,1240,,,,,,,,,,,,,,,,,139,H,hexagon,1,0,,,,,,,,,,,,,,,,switch,number,numSwt,d,0.542,Hi,,,,,,5,,,,,,,,high,5,0,5,0,1,,,,,,,,,
298267,2022-11-29_17h06.47.904,vts_reward_expectancy_bt,2022.2.4,MacIntel,62.5,Safari,1440,900,,,,,10,1250,,,,,,,,,,,,,,,,,167,D,triangle,1,0,,,,,,,,,,,,,,,,switch,letter,lettSwt,j,0.519,Lo,,,,,,5,,,,,,,,high,6,0,6,0,1,,,,,,,,,
298267,2022-11-29_17h06.47.904,vts_reward_expectancy_bt,2022.2.4,MacIntel,62.5,Safari,1440,900,,,,,10,1260,,,,,,,,,,,,,,,,,174,S,star,1,0,,,,,,,,,,,,,,,,switch,number,numSwt,f,0.506,Lo,,,,,,5,,,,,,,,high,7,0,7,0,1,,,,,,,,,
298267,2022-11-29_17h06.47.904,vts_reward_expectancy_bt,2022.2.4,MacIntel,62.5,Safari,1440,900,,,,,0,1260,,,,,,,,,,,,,,,,,125,B,hexagon,1,0,,,,,,,,,,,,,,,,switch,letter,lettSwt,j,0.517,Hi,,,,,,5,,,,,,,,high,8,0,8,0,1,,,,,,,,,
298267,2022-11-29_17h06.47.904,vts_reward_expectancy_bt,2022.2.4,MacIntel,62.5,Safari,1440,900,,,,,1,1261,,,,,,,,,,,,,,,,,181,F,star,1,0,,,,,,,,,,,,,,,,switch,number,numSwt,f,0.54,Lo,,,,,,5,,,,,,,,high,9,0,9,0,1,,,,,,,,,
298267,2022-11-29_17h06.47.904,vts_reward_expectancy_bt,2022.2.4,MacIntel,62.5,Safari,1440,900,,,,,1,1262,,,,,,,,,,,,,,,,,146,Y,triangle,1,0,,,,,,,,,,,,,,,,switch,letter,lettSwt,k,0.566,Lo,,,,,,5,,,,,,,,high,10,0,10,0,1,,,,,,,,,
298267,2022-11-29_17h06.47.904,vts_reward_expectancy_bt,2022.2.4,MacIntel,62.5,Safari,1440,900,,,,,10,1272,,,,,,,,,,,,,,,,,132,W,circle,1,0,,,,,,,,,,,,,,,,switch,number,numSwt,d,0.408,Hi,,,,,,5,,,,,,,,high,11,0,11,0,1,,,,,,,,,
298267,2022-11-29_17h06.47.904,vts_reward_expectancy_bt,2022.2.4,MacIntel,62.5,Safari,1440,900,,,,,0,1272,,,,,,,,,,,,,,,,,160,U,star,0,0,,,,,,,,,,,,,,,,switch,letter,NA,j,0.564,Hi,,,,,,5,,,,,,,,high,12,0,12,0,1,,,,,,,,,
298267,2022-11-29_17h06.47.904,vts_reward_expectancy_bt,2022.2.4,MacIntel,62.5,Safari,1440,900,,,,,10,1282,,,,,,,,,,,,,,,,,139,H,hexagon,1,1,,,,,,,,,,,,,,,,repeat,letter,lettRpt,j,0.515,Hi,,,,,,5,,,,,,,,high,13,0,13,0,1,,,,,,,,,
298267,2022-11-29_17h06.47.904,vts_reward_expectancy_bt,2022.2.4,MacIntel,62.5,Safari,1440,900,,,,,1,1283,,,,,,,,,,,,,,,,,167,D,triangle,1,0,,,,,,,,,,,,,,,,switch,number,numSwt,f,0.512,Lo,,,,,,5,,,,,,,,high,14,0,14,0,1,,,,,,,,,
298267,2022-11-29_17h06.47.904,vts_reward_expectancy_bt,2022.2.4,MacIntel,62.5,Safari,1440,900,,,,,0,1283,,,,,,,,,,,,,,,,,174,S,circle,1,0,,,,,,,,,,,,,,,,repeat,number,numRpt,f,0.597,Hi,,,,,,5,,,,,,,,high,15,0,15,0,1,,,,,,,,,
298267,2022-11-29_17h06.47.904,vts_reward_expectancy_bt,2022.2.4,MacIntel,62.5,Safari,1440,900,,,,,0,1283,,,,,,,,,,,,,,,,,146,Y,circle,0,0,,,,,,,,,,,,,,,,switch,letter,NA,j,0.45,Hi,,,,,,5,,,,,,,,high,16,0,16,0,1,,,,,,,,,
298267,2022-11-29_17h06.47.904,vts_reward_expectancy_bt,2022.2.4,MacIntel,62.5,Safari,1440,900,,,,,1,1284,,,,,,,,,,,,,,,,,181,U,triangle,1,1,,,,,,,,,,,,,,,,repeat,letter,lettRpt,k,0.473,Lo,,,,,,5,,,,,,,,high,17,0,17,0,1,,,,,,,,,
298267,2022-11-29_17h06.47.904,vts_reward_expectancy_bt,2022.2.4,MacIntel,62.5,Safari,1440,900,,,,,10,1294,,,,,,,,,,,,,,,,,132,B,hexagon,1,0,,,,,,,,,,,,,,,,switch,number,numSwt,d,0.545,Hi,,,,,,5,,,,,,,,high,18,0,18,0,1,,,,,,,,,
298267,2022-11-29_17h06.47.904,vts_reward_expectancy_bt,2022.2.4,MacIntel,62.5,Safari,1440,900,,,,,1,1295,,,,,,,,,,,,,,,,,160,W,star,1,0,,,,,,,,,,,,,,,,repeat,number,numRpt,f,0.563,Lo,,,,,,5,,,,,,,,high,19,0,19,0,1,,,,,,,,,
298267,2022-11-29_17h06.47.904,vts_reward_expectancy_bt,2022.2.4,MacIntel,62.5,Safari,1440,900,,,,,0,1295,,,,,,,,,,,,,,,,,139,H,hexagon,1,0,,,,,,,,,,,,,,,,switch,letter,lettSwt,j,0.616,Hi,,,,,,5,,,,,,,,high,20,0,20,0,1,,,,,,,,,
298267,2022-11-29_17h06.47.904,vts_reward_expectancy_bt,2022.2.4,MacIntel,62.5,Safari,1440,900,,,,,1,1296,,,,,,,,,,,,,,,,,125,D,star,1,0,,,,,,,,,,,,,,,,repeat,letter,lettRpt,j,0.526,Lo,,,,,,5,,,,,,,,high,21,0,21,0,1,,,,,,,,,
298267,2022-11-29_17h06.47.904,vts_reward_expectancy_bt,2022.2.4,MacIntel,62.5,Safari,1440,900,,,,,0,1296,,,,,,,,,,,,,,,,,167,F,triangle,0,0,,,,,,,,,,,,,,,,switch,number,NA,d,0.543,Lo,,,,,,5,,,,,,,,high,22,0,22,0,1,,,,,,,,,
298267,2022-11-29_17h06.47.904,vts_reward_expectancy_bt,2022.2.4,MacIntel,62.5,Safari,1440,900,,,,,10,1306,,,,,,,,,,,,,,,,,174,S,circle,1,1,,,,,,,,,,,,,,,,repeat,number,numRpt,f,0.49,Hi,,,,,,5,,,,,,,,high,23,0,23,0,1,,,,,,,,,
298267,2022-11-29_17h06.47.904,vts_reward_expectancy_bt,2022.2.4,MacIntel,62.5,Safari,1440,900,,,,,1,1307,,,,,,,,,,,,,,,,,132,W,hexagon,1,0,,,,,,,,,,,,,,,,repeat,number,numRpt,d,0.415,Hi,,,,,,5,,,,,,,,high,24,0,24,0,1,,,,,,,,,
298267,2022-11-29_17h06.47.904,vts_reward_expectancy_bt,2022.2.4,MacIntel,62.5,Safari,1440,900,,,,,0,1307,,,,,,,,,,,,,,,,,125,U,circle,1,0,,,,,,,,,,,,,,,,repeat,number,numRpt,d,0.528,Hi,,,,,,5,,,,,,,,high,25,0,25,0,1,,,,,,,,,
298267,2022-11-29_17h06.47.904,vts_reward_expectancy_bt,2022.2.4,MacIntel,62.5,Safari,1440,900,,,,,1,1308,,,,,,,,,,,,,,,,,181,B,star,1,0,,,,,,,,,,,,,,,,switch,letter,lettSwt,j,0.475,Lo,,,,,,5,,,,,,,,high,26,0,26,0,1,,,,,,,,,
298267,2022-11-29_17h06.47.904,vts_reward_expectancy_bt,2022.2.4,MacIntel,62.5,Safari,1440,900,,,,,10,1318,,,,,,,,,,,,,,,,,146,D,triangle,1,0,,,,,,,,,,,,,,,,repeat,letter,lettRpt,j,0.542,Lo,,,,,,5,,,,,,,,high,27,0,27,0,1,,,,,,,,,
298267,2022-11-29_17h06.47.904,vts_reward_expectancy_bt,2022.2.4,MacIntel,62.5,Safari,1440,900,,,,,10,1328,,,,,,,,,,,,,,,,,167,H,hexagon,1,0,,,,,,,,,,,,,,,,repeat,letter,lettRpt,j,0.461,Hi,,,,,,5,,,,,,,,high,28,0,28,0,1,,,,,,,,,
298267,2022-11-29_17h06.47.904,vts_reward_expectancy_bt,2022.2.4,MacIntel,62.5,Safari,1440,900,,,,,1,1329,,,,,,,,,,,,,,,,,160,Y,star,1,0,,,,,,,,,,,,,,,,repeat,letter,lettRpt,k,0.408,Lo,,,,,,5,,,,,,,,high,29,0,29,0,1,,,,,,,,,
298267,2022-11-29_17h06.47.904,vts_reward_expectancy_bt,2022.2.4,MacIntel,62.5,Safari,1440,900,,,,,1,1330,,,,,,,,,,,,,,,,,174,F,triangle,1,0,,,,,,,,,,,,,,,,repeat,letter,lettRpt,j,0.494,Lo,,,,,,5,,,,,,,,high,30,0,30,0,1,,,,,,,,,
298267,2022-11-29_17h06.47.904,vts_reward_expectancy_bt,2022.2.4,MacIntel,62.5,Safari,1440,900,,,,,0,1330,,,,,,,,,,,,,,,,,139,S,circle,0,0,,,,,,,,,,,,,,,,repeat,letter,NA,j,0.447,Lo,,,,,,5,,,,,,,,high,31,0,31,0,1,,,,,,,,,
298267,2022-11-29_17h06.47.904,vts_reward_expectancy_bt,2022.2.4,MacIntel,62.5,Safari,1440,900,,,,,1,1331,,,,,,,,,,,,,,,,,139,W,triangle,1,1,,,,,,,,,,,,,,,,repeat,letter,lettRpt,k,0.494,Lo,,,,,,6,,,,,,space,3.066,high,0,0,0,0,1,,,,,,,,,
298267,2022-11-29_17h06.47.904,vts_reward_expectancy_bt,2022.2.4,MacIntel,62.5,Safari,1440,900,,,,,0,1331,,,,,,,,,,,,,,,,,160,U,circle,1,0,,,,,,,,,,,,,,,,repeat,letter,lettRpt,k,0.534,Hi,,,,,,6,,,,,,,,high,1,0,1,0,1,,,,,,,,,
298267,2022-11-29_17h06.47.904,vts_reward_expectancy_bt,2022.2.4,MacIntel,62.5,Safari,1440,900,,,,,0,1331,,,,,,,,,,,,,,,,,174,H,star,0,0,,,,,,,,,,,,,,,,repeat,letter,NA,k,0.46,Hi,,,,,,6,,,,,,,,high,2,0,2,0,1,,,,,,,,,
298267,2022-11-29_17h06.47.904,vts_reward_expectancy_bt,2022.2.4,MacIntel,62.5,Safari,1440,900,,,,,10,1341,,,,,,,,,,,,,,,,,146,S,hexagon,1,1,,,,,,,,,,,,,,,,repeat,letter,lettRpt,k,0.325,Hi,,,,,,6,,,,,,,,high,3,0,3,0,1,,,,,,,,,
298267,2022-11-29_17h06.47.904,vts_reward_expectancy_bt,2022.2.4,MacIntel,62.5,Safari,1440,900,,,,,1,1342,,,,,,,,,,,,,,,,,132,Y,triangle,1,0,,,,,,,,,,,,,,,,repeat,letter,lettRpt,k,0.469,Lo,,,,,,6,,,,,,,,high,4,0,4,0,1,,,,,,,,,
298267,2022-11-29_17h06.47.904,vts_reward_expectancy_bt,2022.2.4,MacIntel,62.5,Safari,1440,900,,,,,10,1352,,,,,,,,,,,,,,,,,125,D,circle,1,0,,,,,,,,,,,,,,,,repeat,letter,lettRpt,j,0.418,Hi,,,,,,6,,,,,,,,high,5,0,5,0,1,,,,,,,,,
298267,2022-11-29_17h06.47.904,vts_reward_expectancy_bt,2022.2.4,MacIntel,62.5,Safari,1440,900,,,,,1,1353,,,,,,,,,,,,,,,,,167,B,star,1,0,,,,,,,,,,,,,,,,repeat,letter,lettRpt,j,0.449,Lo,,,,,,6,,,,,,,,high,6,0,6,0,1,,,,,,,,,
298267,2022-11-29_17h06.47.904,vts_reward_expectancy_bt,2022.2.4,MacIntel,62.5,Safari,1440,900,,,,,0,1353,,,,,,,,,,,,,,,,,181,F,hexagon,1,0,,,,,,,,,,,,,,,,repeat,letter,lettRpt,j,0.58,Hi,,,,,,6,,,,,,,,high,7,0,7,0,1,,,,,,,,,
298267,2022-11-29_17h06.47.904,vts_reward_expectancy_bt,2022.2.4,MacIntel,62.5,Safari,1440,900,,,,,10,1363,,,,,,,,,,,,,,,,,139,W,hexagon,1,0,,,,,,,,,,,,,,,,repeat,letter,lettRpt,k,0.437,Hi,,,,,,6,,,,,,,,high,8,0,8,0,1,,,,,,,,,
298267,2022-11-29_17h06.47.904,vts_reward_expectancy_bt,2022.2.4,MacIntel,62.5,Safari,1440,900,,,,,0,1363,,,,,,,,,,,,,,,,,160,U,circle,1,0,,,,,,,,,,,,,,,,repeat,letter,lettRpt,k,0.506,Hi,,,,,,6,,,,,,,,high,9,0,9,0,1,,,,,,,,,
298267,2022-11-29_17h06.47.904,vts_reward_expectancy_bt,2022.2.4,MacIntel,62.5,Safari,1440,900,,,,,1,1364,,,,,,,,,,,,,,,,,174,H,triangle,1,0,,,,,,,,,,,,,,,,repeat,letter,lettRpt,j,0.576,Lo,,,,,,6,,,,,,,,high,10,0,10,0,1,,,,,,,,,
298267,2022-11-29_17h06.47.904,vts_reward_expectancy_bt,2022.2.4,MacIntel,62.5,Safari,1440,900,,,,,1,1365,,,,,,,,,,,,,,,,,146,S,star,1,0,,,,,,,,,,,,,,,,repeat,letter,lettRpt,k,0.515,Lo,,,,,,6,,,,,,,,high,11,0,11,0,1,,,,,,,,,
298267,2022-11-29_17h06.47.904,vts_reward_expectancy_bt,2022.2.4,MacIntel,62.5,Safari,1440,900,,,,,10,1375,,,,,,,,,,,,,,,,,132,Y,hexagon,1,0,,,,,,,,,,,,,,,,repeat,letter,lettRpt,k,0.47,Hi,,,,,,6,,,,,,,,high,12,0,12,0,1,,,,,,,,,
298267,2022-11-29_17h06.47.904,vts_reward_expectancy_bt,2022.2.4,MacIntel,62.5,Safari,1440,900,,,,,1,1376,,,,,,,,,,,,,,,,,125,D,triangle,1,0,,,,,,,,,,,,,,,,repeat,letter,lettRpt,j,0.478,Lo,,,,,,6,,,,,,,,high,13,0,13,0,1,,,,,,,,,
298267,2022-11-29_17h06.47.904,vts_reward_expectancy_bt,2022.2.4,MacIntel,62.5,Safari,1440,900,,,,,0,1376,,,,,,,,,,,,,,,,,167,B,circle,1,0,,,,,,,,,,,,,,,,repeat,letter,lettRpt,j,0.49,Hi,,,,,,6,,,,,,,,high,14,0,14,0,1,,,,,,,,,
298267,2022-11-29_17h06.47.904,vts_reward_expectancy_bt,2022.2.4,MacIntel,62.5,Safari,1440,900,,,,,0,1376,,,,,,,,,,,,,,,,,181,F,star,0,0,,,,,,,,,,,,,,,,repeat,letter,NA,k,0.5,Hi,,,,,,6,,,,,,,,high,15,0,15,0,1,,,,,,,,,
