participant,date,expName,psychopyVersion,OS,frameRate,browser,xResolution,yResolution,key_resp.keys,key_resp.rt,training_resp.keys,training_resp.rt,points_trial,points_cumul,trainBlock,training.thisRepN,training.thisTrialN,training.thisN,training.thisIndex,training.ran,LTriangleOpac,LCircleOpac,LHexagonOpac,LStarOpac,RTriangleOpac,RCircleOpac,RHexagonOpac,RStarOpac,LShape_ID,RShape_ID,curr_topStim,curr_bottStim,curr_shape,acc,E1,target_resp_prac1.keys,target_resp_prac1.rt,pracBlock,task1_prac_trials.thisRepN,task1_prac_trials.thisTrialN,task1_prac_trials.thisN,task1_prac_trials.thisIndex,task1_prac_trials.ran,target_resp_prac2.keys,target_resp_prac2.rt,task2_praac_trials.thisRepN,task2_praac_trials.thisTrialN,task2_praac_trials.thisN,task2_praac_trials.thisIndex,task2_praac_trials.ran,alt,task,condition,target_resp.keys,target_resp.rt,rewCond,vts_practice_trials.thisRepN,vts_practice_trials.thisTrialN,vts_practice_trials.thisN,vts_practice_trials.thisIndex,vts_practice_trials.ran,blockNum,trials_norew.thisRepN,trials_norew.thisTrialN,trials_norew.thisN,trials_norew.thisIndex,trials_norew.ran,key_resp_2.keys,key_resp_2.rt,rewExpectancy,trials_rew.thisRepN,trials_rew.thisTrialN,trials_rew.thisN,trials_rew.thisIndex,trials_rew.ran,Q1,Q2,Q2_text,Q3,Q4,Q5_text,Q5,xRes,yRes
298288,2022-11-29_11h15.20.872,vts_reward_expectancy_bt,2022.2.4,Win32,59.93048064,Chrome,1536,864,,,,,,,,,,,,,,,,,,,,,,,,,,,,,,,,,,,,,,,,,,,,,,,,,,,,,,,,,,,,,,,,,,,,,,,,,,,,
298288,2022-11-29_11h15.20.872,vts_reward_expectancy_bt,2022.2.4,Win32,59.93048064,Chrome,1536,864,space,6.2149,,,,,,,,,,,,,,,,,,,,,,,,,,,,,,,,,,,,,,,,,,,,,,,,,,,,,,,,,,,,,,,,,,,,,,,,,,
298288,2022-11-29_11h15.20.872,vts_reward_expectancy_bt,2022.2.4,Win32,59.93048064,Chrome,1536,864,,,,,,,,,,,,,,,,,,,,,,,,,,,,,,,,,,,,,,,,,,,,,,,,,,,,,,,,,,,,,,,,,,,,,,,,,,,,
298288,2022-11-29_11h15.20.872,vts_reward_expectancy_bt,2022.2.4,Win32,59.93048064,Chrome,1536,864,,,l,0.9725,1,1,0,0,0,0,6,1,0,0,1,0,1,0,0,0,hexagon,triangle,,,,,,,,,,,,,,,,,,,,,,,,,,,,,,,,,,,,,,,,,,,,,,,,,,,,,,
298288,2022-11-29_11h15.20.872,vts_reward_expectancy_bt,2022.2.4,Win32,59.93048064,Chrome,1536,864,,,l,1.6757,1,2,0,0,1,1,3,1,0,1,0,0,1,0,0,0,circle,triangle,,,,,,,,,,,,,,,,,,,,,,,,,,,,,,,,,,,,,,,,,,,,,,,,,,,,,,
298288,2022-11-29_11h15.20.872,vts_reward_expectancy_bt,2022.2.4,Win32,59.93048064,Chrome,1536,864,,,a,1.7682,10,12,0,0,2,2,8,1,0,0,1,0,0,0,0,1,hexagon,star,,,,,,,,,,,,,,,,,,,,,,,,,,,,,,,,,,,,,,,,,,,,,,,,,,,,,,
298288,2022-11-29_11h15.20.872,vts_reward_expectancy_bt,2022.2.4,Win32,59.93048064,Chrome,1536,864,,,l,1.5006,1,13,0,0,3,3,7,1,0,0,1,0,0,1,0,0,hexagon,circle,,,,,,,,,,,,,,,,,,,,,,,,,,,,,,,,,,,,,,,,,,,,,,,,,,,,,,
298288,2022-11-29_11h15.20.872,vts_reward_expectancy_bt,2022.2.4,Win32,59.93048064,Chrome,1536,864,,,a,0.9841,1,14,0,0,4,4,4,1,0,1,0,0,0,0,1,0,circle,hexagon,,,,,,,,,,,,,,,,,,,,,,,,,,,,,,,,,,,,,,,,,,,,,,,,,,,,,,
298288,2022-11-29_11h15.20.872,vts_reward_expectancy_bt,2022.2.4,Win32,59.93048064,Chrome,1536,864,,,a,0.8841,1,15,0,0,5,5,10,1,0,0,0,1,0,1,0,0,star ,circle,,,,,,,,,,,,,,,,,,,,,,,,,,,,,,,,,,,,,,,,,,,,,,,,,,,,,,
298288,2022-11-29_11h15.20.872,vts_reward_expectancy_bt,2022.2.4,Win32,59.93048064,Chrome,1536,864,,,l,1.7843,1,16,0,0,6,6,9,1,0,0,0,1,1,0,0,0,star,triangle,,,,,,,,,,,,,,,,,,,,,,,,,,,,,,,,,,,,,,,,,,,,,,,,,,,,,,
298288,2022-11-29_11h15.20.872,vts_reward_expectancy_bt,2022.2.4,Win32,59.93048064,Chrome,1536,864,,,l,0.6969,1,17,0,0,7,7,5,1,0,1,0,0,0,0,0,1,circle,star,,,,,,,,,,,,,,,,,,,,,,,,,,,,,,,,,,,,,,,,,,,,,,,,,,,,,,
298288,2022-11-29_11h15.20.872,vts_reward_expectancy_bt,2022.2.4,Win32,59.93048064,Chrome,1536,864,,,l,1.4172,10,27,0,0,8,8,1,1,1,0,0,0,0,0,1,0,triangle,hexagon,,,,,,,,,,,,,,,,,,,,,,,,,,,,,,,,,,,,,,,,,,,,,,,,,,,,,,
298288,2022-11-29_11h15.20.872,vts_reward_expectancy_bt,2022.2.4,Win32,59.93048064,Chrome,1536,864,,,a,1.3845,1,28,0,0,9,9,0,1,1,0,0,0,0,1,0,0,triangle,circle,,,,,,,,,,,,,,,,,,,,,,,,,,,,,,,,,,,,,,,,,,,,,,,,,,,,,,
298288,2022-11-29_11h15.20.872,vts_reward_expectancy_bt,2022.2.4,Win32,59.93048064,Chrome,1536,864,,,l,1.3009,10,38,0,0,10,10,11,1,0,0,0,1,0,0,1,0,star,hexagon,,,,,,,,,,,,,,,,,,,,,,,,,,,,,,,,,,,,,,,,,,,,,,,,,,,,,,
298288,2022-11-29_11h15.20.872,vts_reward_expectancy_bt,2022.2.4,Win32,59.93048064,Chrome,1536,864,,,a,1.2173,10,48,0,0,11,11,2,1,1,0,0,0,0,0,0,1,triangle,star,,,,,,,,,,,,,,,,,,,,,,,,,,,,,,,,,,,,,,,,,,,,,,,,,,,,,,
298288,2022-11-29_11h15.20.872,vts_reward_expectancy_bt,2022.2.4,Win32,59.93048064,Chrome,1536,864,,,a,0.7508,10,58,0,1,0,12,2,1,1,0,0,0,0,0,0,1,triangle,star,,,,,,,,,,,,,,,,,,,,,,,,,,,,,,,,,,,,,,,,,,,,,,,,,,,,,,
298288,2022-11-29_11h15.20.872,vts_reward_expectancy_bt,2022.2.4,Win32,59.93048064,Chrome,1536,864,,,l,0.9303,1,59,0,1,1,13,4,1,0,1,0,0,0,0,1,0,circle,hexagon,,,,,,,,,,,,,,,,,,,,,,,,,,,,,,,,,,,,,,,,,,,,,,,,,,,,,,
298288,2022-11-29_11h15.20.872,vts_reward_expectancy_bt,2022.2.4,Win32,59.93048064,Chrome,1536,864,,,a,1.0174,10,69,0,1,2,14,5,1,0,1,0,0,0,0,0,1,circle,star,,,,,,,,,,,,,,,,,,,,,,,,,,,,,,,,,,,,,,,,,,,,,,,,,,,,,,
298288,2022-11-29_11h15.20.872,vts_reward_expectancy_bt,2022.2.4,Win32,59.93048064,Chrome,1536,864,,,a,1.0307,10,79,0,1,3,15,8,1,0,0,1,0,0,0,0,1,hexagon,star,,,,,,,,,,,,,,,,,,,,,,,,,,,,,,,,,,,,,,,,,,,,,,,,,,,,,,
298288,2022-11-29_11h15.20.872,vts_reward_expectancy_bt,2022.2.4,Win32,59.93048064,Chrome,1536,864,,,l,0.9303,10,89,0,1,4,16,10,1,0,0,0,1,0,1,0,0,star ,circle,,,,,,,,,,,,,,,,,,,,,,,,,,,,,,,,,,,,,,,,,,,,,,,,,,,,,,
298288,2022-11-29_11h15.20.872,vts_reward_expectancy_bt,2022.2.4,Win32,59.93048064,Chrome,1536,864,,,l,0.6808,10,99,0,1,5,17,11,1,0,0,0,1,0,0,1,0,star,hexagon,,,,,,,,,,,,,,,,,,,,,,,,,,,,,,,,,,,,,,,,,,,,,,,,,,,,,,
298288,2022-11-29_11h15.20.872,vts_reward_expectancy_bt,2022.2.4,Win32,59.93048064,Chrome,1536,864,,,l,1.9215,1,100,0,1,6,18,0,1,1,0,0,0,0,1,0,0,triangle,circle,,,,,,,,,,,,,,,,,,,,,,,,,,,,,,,,,,,,,,,,,,,,,,,,,,,,,,
298288,2022-11-29_11h15.20.872,vts_reward_expectancy_bt,2022.2.4,Win32,59.93048064,Chrome,1536,864,,,l,1.281,1,101,0,1,7,19,9,1,0,0,0,1,1,0,0,0,star,triangle,,,,,,,,,,,,,,,,,,,,,,,,,,,,,,,,,,,,,,,,,,,,,,,,,,,,,,
298288,2022-11-29_11h15.20.872,vts_reward_expectancy_bt,2022.2.4,Win32,59.93048064,Chrome,1536,864,,,l,0.9476,10,111,0,1,8,20,1,1,1,0,0,0,0,0,1,0,triangle,hexagon,,,,,,,,,,,,,,,,,,,,,,,,,,,,,,,,,,,,,,,,,,,,,,,,,,,,,,
298288,2022-11-29_11h15.20.872,vts_reward_expectancy_bt,2022.2.4,Win32,59.93048064,Chrome,1536,864,,,a,1.2175,1,112,0,1,9,21,3,1,0,1,0,0,1,0,0,0,circle,triangle,,,,,,,,,,,,,,,,,,,,,,,,,,,,,,,,,,,,,,,,,,,,,,,,,,,,,,
298288,2022-11-29_11h15.20.872,vts_reward_expectancy_bt,2022.2.4,Win32,59.93048064,Chrome,1536,864,,,l,0.9309,1,113,0,1,10,22,6,1,0,0,1,0,1,0,0,0,hexagon,triangle,,,,,,,,,,,,,,,,,,,,,,,,,,,,,,,,,,,,,,,,,,,,,,,,,,,,,,
298288,2022-11-29_11h15.20.872,vts_reward_expectancy_bt,2022.2.4,Win32,59.93048064,Chrome,1536,864,,,a,0.7141,10,123,0,1,11,23,7,1,0,0,1,0,0,1,0,0,hexagon,circle,,,,,,,,,,,,,,,,,,,,,,,,,,,,,,,,,,,,,,,,,,,,,,,,,,,,,,
298288,2022-11-29_11h15.20.872,vts_reward_expectancy_bt,2022.2.4,Win32,59.93048064,Chrome,1536,864,,,a,0.551,10,133,0,2,0,24,6,1,0,0,1,0,1,0,0,0,hexagon,triangle,,,,,,,,,,,,,,,,,,,,,,,,,,,,,,,,,,,,,,,,,,,,,,,,,,,,,,
298288,2022-11-29_11h15.20.872,vts_reward_expectancy_bt,2022.2.4,Win32,59.93048064,Chrome,1536,864,,,a,0.9313,1,134,0,2,1,25,7,1,0,0,1,0,0,1,0,0,hexagon,circle,,,,,,,,,,,,,,,,,,,,,,,,,,,,,,,,,,,,,,,,,,,,,,,,,,,,,,
298288,2022-11-29_11h15.20.872,vts_reward_expectancy_bt,2022.2.4,Win32,59.93048064,Chrome,1536,864,,,a,1.0012,1,135,0,2,2,26,3,1,0,1,0,0,1,0,0,0,circle,triangle,,,,,,,,,,,,,,,,,,,,,,,,,,,,,,,,,,,,,,,,,,,,,,,,,,,,,,
298288,2022-11-29_11h15.20.872,vts_reward_expectancy_bt,2022.2.4,Win32,59.93048064,Chrome,1536,864,,,l,0.7133,1,136,0,2,3,27,9,1,0,0,0,1,1,0,0,0,star,triangle,,,,,,,,,,,,,,,,,,,,,,,,,,,,,,,,,,,,,,,,,,,,,,,,,,,,,,
298288,2022-11-29_11h15.20.872,vts_reward_expectancy_bt,2022.2.4,Win32,59.93048064,Chrome,1536,864,,,l,0.9844,10,146,0,2,4,28,4,1,0,1,0,0,0,0,1,0,circle,hexagon,,,,,,,,,,,,,,,,,,,,,,,,,,,,,,,,,,,,,,,,,,,,,,,,,,,,,,
298288,2022-11-29_11h15.20.872,vts_reward_expectancy_bt,2022.2.4,Win32,59.93048064,Chrome,1536,864,,,l,1.6812,10,156,0,2,5,29,2,1,1,0,0,0,0,0,0,1,triangle,star,,,,,,,,,,,,,,,,,,,,,,,,,,,,,,,,,,,,,,,,,,,,,,,,,,,,,,
298288,2022-11-29_11h15.20.872,vts_reward_expectancy_bt,2022.2.4,Win32,59.93048064,Chrome,1536,864,,,a,0.9507,1,157,0,2,6,30,5,1,0,1,0,0,0,0,0,1,circle,star,,,,,,,,,,,,,,,,,,,,,,,,,,,,,,,,,,,,,,,,,,,,,,,,,,,,,,
298288,2022-11-29_11h15.20.872,vts_reward_expectancy_bt,2022.2.4,Win32,59.93048064,Chrome,1536,864,,,l,0.5973,10,167,0,2,7,31,8,1,0,0,1,0,0,0,0,1,hexagon,star,,,,,,,,,,,,,,,,,,,,,,,,,,,,,,,,,,,,,,,,,,,,,,,,,,,,,,
298288,2022-11-29_11h15.20.872,vts_reward_expectancy_bt,2022.2.4,Win32,59.93048064,Chrome,1536,864,,,l,1.066,1,168,0,2,8,32,10,1,0,0,0,1,0,1,0,0,star ,circle,,,,,,,,,,,,,,,,,,,,,,,,,,,,,,,,,,,,,,,,,,,,,,,,,,,,,,
298288,2022-11-29_11h15.20.872,vts_reward_expectancy_bt,2022.2.4,Win32,59.93048064,Chrome,1536,864,,,l,1.4643,1,169,0,2,9,33,0,1,1,0,0,0,0,1,0,0,triangle,circle,,,,,,,,,,,,,,,,,,,,,,,,,,,,,,,,,,,,,,,,,,,,,,,,,,,,,,
298288,2022-11-29_11h15.20.872,vts_reward_expectancy_bt,2022.2.4,Win32,59.93048064,Chrome,1536,864,,,a,0.7972,10,179,0,2,10,34,11,1,0,0,0,1,0,0,1,0,star,hexagon,,,,,,,,,,,,,,,,,,,,,,,,,,,,,,,,,,,,,,,,,,,,,,,,,,,,,,
298288,2022-11-29_11h15.20.872,vts_reward_expectancy_bt,2022.2.4,Win32,59.93048064,Chrome,1536,864,,,a,1.364,1,180,0,2,11,35,1,1,1,0,0,0,0,0,1,0,triangle,hexagon,,,,,,,,,,,,,,,,,,,,,,,,,,,,,,,,,,,,,,,,,,,,,,,,,,,,,,
298288,2022-11-29_11h15.20.872,vts_reward_expectancy_bt,2022.2.4,Win32,59.93048064,Chrome,1536,864,,,a,0.7504,1,181,1,0,0,0,10,1,0,0,0,1,0,1,0,0,star ,circle,,,,,,,,,,,,,,,,,,,,,,,,,,,,,,,,,,,,,,,,,,,,,,,,,,,,,,
298288,2022-11-29_11h15.20.872,vts_reward_expectancy_bt,2022.2.4,Win32,59.93048064,Chrome,1536,864,,,a,0.597,1,182,1,0,1,1,5,1,0,1,0,0,0,0,0,1,circle,star,,,,,,,,,,,,,,,,,,,,,,,,,,,,,,,,,,,,,,,,,,,,,,,,,,,,,,
298288,2022-11-29_11h15.20.872,vts_reward_expectancy_bt,2022.2.4,Win32,59.93048064,Chrome,1536,864,,,a,0.7468,10,192,1,0,2,2,11,1,0,0,0,1,0,0,1,0,star,hexagon,,,,,,,,,,,,,,,,,,,,,,,,,,,,,,,,,,,,,,,,,,,,,,,,,,,,,,
298288,2022-11-29_11h15.20.872,vts_reward_expectancy_bt,2022.2.4,Win32,59.93048064,Chrome,1536,864,,,a,0.6674,10,202,1,0,3,3,9,1,0,0,0,1,1,0,0,0,star,triangle,,,,,,,,,,,,,,,,,,,,,,,,,,,,,,,,,,,,,,,,,,,,,,,,,,,,,,
298288,2022-11-29_11h15.20.872,vts_reward_expectancy_bt,2022.2.4,Win32,59.93048064,Chrome,1536,864,,,l,0.7831,1,203,1,0,4,4,3,1,0,1,0,0,1,0,0,0,circle,triangle,,,,,,,,,,,,,,,,,,,,,,,,,,,,,,,,,,,,,,,,,,,,,,,,,,,,,,
298288,2022-11-29_11h15.20.872,vts_reward_expectancy_bt,2022.2.4,Win32,59.93048064,Chrome,1536,864,,,l,0.817,1,204,1,0,5,5,4,1,0,1,0,0,0,0,1,0,circle,hexagon,,,,,,,,,,,,,,,,,,,,,,,,,,,,,,,,,,,,,,,,,,,,,,,,,,,,,,
298288,2022-11-29_11h15.20.872,vts_reward_expectancy_bt,2022.2.4,Win32,59.93048064,Chrome,1536,864,,,l,0.8472,10,214,1,0,6,6,2,1,1,0,0,0,0,0,0,1,triangle,star,,,,,,,,,,,,,,,,,,,,,,,,,,,,,,,,,,,,,,,,,,,,,,,,,,,,,,
298288,2022-11-29_11h15.20.872,vts_reward_expectancy_bt,2022.2.4,Win32,59.93048064,Chrome,1536,864,,,l,0.4972,10,224,1,0,7,7,7,1,0,0,1,0,0,1,0,0,hexagon,circle,,,,,,,,,,,,,,,,,,,,,,,,,,,,,,,,,,,,,,,,,,,,,,,,,,,,,,
298288,2022-11-29_11h15.20.872,vts_reward_expectancy_bt,2022.2.4,Win32,59.93048064,Chrome,1536,864,,,l,1.3308,1,225,1,0,8,8,0,1,1,0,0,0,0,1,0,0,triangle,circle,,,,,,,,,,,,,,,,,,,,,,,,,,,,,,,,,,,,,,,,,,,,,,,,,,,,,,
298288,2022-11-29_11h15.20.872,vts_reward_expectancy_bt,2022.2.4,Win32,59.93048064,Chrome,1536,864,,,a,1.4513,10,235,1,0,9,9,6,1,0,0,1,0,1,0,0,0,hexagon,triangle,,,,,,,,,,,,,,,,,,,,,,,,,,,,,,,,,,,,,,,,,,,,,,,,,,,,,,
298288,2022-11-29_11h15.20.872,vts_reward_expectancy_bt,2022.2.4,Win32,59.93048064,Chrome,1536,864,,,l,0.9975,10,245,1,0,10,10,1,1,1,0,0,0,0,0,1,0,triangle,hexagon,,,,,,,,,,,,,,,,,,,,,,,,,,,,,,,,,,,,,,,,,,,,,,,,,,,,,,
298288,2022-11-29_11h15.20.872,vts_reward_expectancy_bt,2022.2.4,Win32,59.93048064,Chrome,1536,864,,,l,0.5972,10,255,1,0,11,11,8,1,0,0,1,0,0,0,0,1,hexagon,star,,,,,,,,,,,,,,,,,,,,,,,,,,,,,,,,,,,,,,,,,,,,,,,,,,,,,,
298288,2022-11-29_11h15.20.872,vts_reward_expectancy_bt,2022.2.4,Win32,59.93048064,Chrome,1536,864,,,l,0.6671,10,265,1,1,0,12,8,1,0,0,1,0,0,0,0,1,hexagon,star,,,,,,,,,,,,,,,,,,,,,,,,,,,,,,,,,,,,,,,,,,,,,,,,,,,,,,
298288,2022-11-29_11h15.20.872,vts_reward_expectancy_bt,2022.2.4,Win32,59.93048064,Chrome,1536,864,,,a,0.6005,10,275,1,1,1,13,11,1,0,0,0,1,0,0,1,0,star,hexagon,,,,,,,,,,,,,,,,,,,,,,,,,,,,,,,,,,,,,,,,,,,,,,,,,,,,,,
298288,2022-11-29_11h15.20.872,vts_reward_expectancy_bt,2022.2.4,Win32,59.93048064,Chrome,1536,864,,,a,1.181,1,276,1,1,2,14,6,1,0,0,1,0,1,0,0,0,hexagon,triangle,,,,,,,,,,,,,,,,,,,,,,,,,,,,,,,,,,,,,,,,,,,,,,,,,,,,,,
298288,2022-11-29_11h15.20.872,vts_reward_expectancy_bt,2022.2.4,Win32,59.93048064,Chrome,1536,864,,,l,0.7309,10,286,1,1,3,15,1,1,1,0,0,0,0,0,1,0,triangle,hexagon,,,,,,,,,,,,,,,,,,,,,,,,,,,,,,,,,,,,,,,,,,,,,,,,,,,,,,
298288,2022-11-29_11h15.20.872,vts_reward_expectancy_bt,2022.2.4,Win32,59.93048064,Chrome,1536,864,,,a,0.9175,1,287,1,1,4,16,9,1,0,0,0,1,1,0,0,0,star,triangle,,,,,,,,,,,,,,,,,,,,,,,,,,,,,,,,,,,,,,,,,,,,,,,,,,,,,,
298288,2022-11-29_11h15.20.872,vts_reward_expectancy_bt,2022.2.4,Win32,59.93048064,Chrome,1536,864,,,l,0.5004,10,297,1,1,5,17,5,1,0,1,0,0,0,0,0,1,circle,star,,,,,,,,,,,,,,,,,,,,,,,,,,,,,,,,,,,,,,,,,,,,,,,,,,,,,,
298288,2022-11-29_11h15.20.872,vts_reward_expectancy_bt,2022.2.4,Win32,59.93048064,Chrome,1536,864,,,a,0.7839,10,307,1,1,6,18,7,1,0,0,1,0,0,1,0,0,hexagon,circle,,,,,,,,,,,,,,,,,,,,,,,,,,,,,,,,,,,,,,,,,,,,,,,,,,,,,,
298288,2022-11-29_11h15.20.872,vts_reward_expectancy_bt,2022.2.4,Win32,59.93048064,Chrome,1536,864,,,l,0.6304,10,317,1,1,7,19,4,1,0,1,0,0,0,0,1,0,circle,hexagon,,,,,,,,,,,,,,,,,,,,,,,,,,,,,,,,,,,,,,,,,,,,,,,,,,,,,,
298288,2022-11-29_11h15.20.872,vts_reward_expectancy_bt,2022.2.4,Win32,59.93048064,Chrome,1536,864,,,a,0.8142,10,327,1,1,8,20,10,1,0,0,0,1,0,1,0,0,star ,circle,,,,,,,,,,,,,,,,,,,,,,,,,,,,,,,,,,,,,,,,,,,,,,,,,,,,,,
298288,2022-11-29_11h15.20.872,vts_reward_expectancy_bt,2022.2.4,Win32,59.93048064,Chrome,1536,864,,,a,1.8812,1,328,1,1,9,21,0,1,1,0,0,0,0,1,0,0,triangle,circle,,,,,,,,,,,,,,,,,,,,,,,,,,,,,,,,,,,,,,,,,,,,,,,,,,,,,,
298288,2022-11-29_11h15.20.872,vts_reward_expectancy_bt,2022.2.4,Win32,59.93048064,Chrome,1536,864,,,l,0.5304,10,338,1,1,10,22,2,1,1,0,0,0,0,0,0,1,triangle,star,,,,,,,,,,,,,,,,,,,,,,,,,,,,,,,,,,,,,,,,,,,,,,,,,,,,,,
298288,2022-11-29_11h15.20.872,vts_reward_expectancy_bt,2022.2.4,Win32,59.93048064,Chrome,1536,864,,,l,1.7811,1,339,1,1,11,23,3,1,0,1,0,0,1,0,0,0,circle,triangle,,,,,,,,,,,,,,,,,,,,,,,,,,,,,,,,,,,,,,,,,,,,,,,,,,,,,,
298288,2022-11-29_11h15.20.872,vts_reward_expectancy_bt,2022.2.4,Win32,59.93048064,Chrome,1536,864,,,l,0.6344,1,340,1,2,0,24,2,1,1,0,0,0,0,0,0,1,triangle,star,,,,,,,,,,,,,,,,,,,,,,,,,,,,,,,,,,,,,,,,,,,,,,,,,,,,,,
298288,2022-11-29_11h15.20.872,vts_reward_expectancy_bt,2022.2.4,Win32,59.93048064,Chrome,1536,864,,,l,0.784,1,341,1,2,1,25,4,1,0,1,0,0,0,0,1,0,circle,hexagon,,,,,,,,,,,,,,,,,,,,,,,,,,,,,,,,,,,,,,,,,,,,,,,,,,,,,,
298288,2022-11-29_11h15.20.872,vts_reward_expectancy_bt,2022.2.4,Win32,59.93048064,Chrome,1536,864,,,l,0.4839,1,342,1,2,2,26,3,1,0,1,0,0,1,0,0,0,circle,triangle,,,,,,,,,,,,,,,,,,,,,,,,,,,,,,,,,,,,,,,,,,,,,,,,,,,,,,
298288,2022-11-29_11h15.20.872,vts_reward_expectancy_bt,2022.2.4,Win32,59.93048064,Chrome,1536,864,,,l,0.747,1,343,1,2,3,27,5,1,0,1,0,0,0,0,0,1,circle,star,,,,,,,,,,,,,,,,,,,,,,,,,,,,,,,,,,,,,,,,,,,,,,,,,,,,,,
298288,2022-11-29_11h15.20.872,vts_reward_expectancy_bt,2022.2.4,Win32,59.93048064,Chrome,1536,864,,,a,0.7137,10,353,1,2,4,28,7,1,0,0,1,0,0,1,0,0,hexagon,circle,,,,,,,,,,,,,,,,,,,,,,,,,,,,,,,,,,,,,,,,,,,,,,,,,,,,,,
298288,2022-11-29_11h15.20.872,vts_reward_expectancy_bt,2022.2.4,Win32,59.93048064,Chrome,1536,864,,,a,1.2644,10,363,1,2,5,29,6,1,0,0,1,0,1,0,0,0,hexagon,triangle,,,,,,,,,,,,,,,,,,,,,,,,,,,,,,,,,,,,,,,,,,,,,,,,,,,,,,
298288,2022-11-29_11h15.20.872,vts_reward_expectancy_bt,2022.2.4,Win32,59.93048064,Chrome,1536,864,,,a,0.7673,10,373,1,2,6,30,10,1,0,0,0,1,0,1,0,0,star ,circle,,,,,,,,,,,,,,,,,,,,,,,,,,,,,,,,,,,,,,,,,,,,,,,,,,,,,,
298288,2022-11-29_11h15.20.872,vts_reward_expectancy_bt,2022.2.4,Win32,59.93048064,Chrome,1536,864,,,a,1.2682,1,374,1,2,7,31,1,1,1,0,0,0,0,0,1,0,triangle,hexagon,,,,,,,,,,,,,,,,,,,,,,,,,,,,,,,,,,,,,,,,,,,,,,,,,,,,,,
298288,2022-11-29_11h15.20.872,vts_reward_expectancy_bt,2022.2.4,Win32,59.93048064,Chrome,1536,864,,,l,1.3475,1,375,1,2,8,32,0,1,1,0,0,0,0,1,0,0,triangle,circle,,,,,,,,,,,,,,,,,,,,,,,,,,,,,,,,,,,,,,,,,,,,,,,,,,,,,,
298288,2022-11-29_11h15.20.872,vts_reward_expectancy_bt,2022.2.4,Win32,59.93048064,Chrome,1536,864,,,a,1.5177,1,376,1,2,9,33,11,1,0,0,0,1,0,0,1,0,star,hexagon,,,,,,,,,,,,,,,,,,,,,,,,,,,,,,,,,,,,,,,,,,,,,,,,,,,,,,
298288,2022-11-29_11h15.20.872,vts_reward_expectancy_bt,2022.2.4,Win32,59.93048064,Chrome,1536,864,,,a,1.2145,1,377,1,2,10,34,9,1,0,0,0,1,1,0,0,0,star,triangle,,,,,,,,,,,,,,,,,,,,,,,,,,,,,,,,,,,,,,,,,,,,,,,,,,,,,,
298288,2022-11-29_11h15.20.872,vts_reward_expectancy_bt,2022.2.4,Win32,59.93048064,Chrome,1536,864,,,l,0.6645,10,387,1,2,11,35,8,1,0,0,1,0,0,0,0,1,hexagon,star,,,,,,,,,,,,,,,,,,,,,,,,,,,,,,,,,,,,,,,,,,,,,,,,,,,,,,
298288,2022-11-29_11h15.20.872,vts_reward_expectancy_bt,2022.2.4,Win32,59.93048064,Chrome,1536,864,,,l,1.9168,1,388,2,0,0,0,8,1,0,0,1,0,0,0,0,1,hexagon,star,,,,,,,,,,,,,,,,,,,,,,,,,,,,,,,,,,,,,,,,,,,,,,,,,,,,,,
298288,2022-11-29_11h15.20.872,vts_reward_expectancy_bt,2022.2.4,Win32,59.93048064,Chrome,1536,864,,,a,0.6004,10,398,2,0,1,1,6,1,0,0,1,0,1,0,0,0,hexagon,triangle,,,,,,,,,,,,,,,,,,,,,,,,,,,,,,,,,,,,,,,,,,,,,,,,,,,,,,
298288,2022-11-29_11h15.20.872,vts_reward_expectancy_bt,2022.2.4,Win32,59.93048064,Chrome,1536,864,,,l,0.7504,1,399,2,0,2,2,4,1,0,1,0,0,0,0,1,0,circle,hexagon,,,,,,,,,,,,,,,,,,,,,,,,,,,,,,,,,,,,,,,,,,,,,,,,,,,,,,
298288,2022-11-29_11h15.20.872,vts_reward_expectancy_bt,2022.2.4,Win32,59.93048064,Chrome,1536,864,,,a,0.3175,10,409,2,0,3,3,1,1,1,0,0,0,0,0,1,0,triangle,hexagon,,,,,,,,,,,,,,,,,,,,,,,,,,,,,,,,,,,,,,,,,,,,,,,,,,,,,,
298288,2022-11-29_11h15.20.872,vts_reward_expectancy_bt,2022.2.4,Win32,59.93048064,Chrome,1536,864,,,a,0.351,1,410,2,0,4,4,9,1,0,0,0,1,1,0,0,0,star,triangle,,,,,,,,,,,,,,,,,,,,,,,,,,,,,,,,,,,,,,,,,,,,,,,,,,,,,,
298288,2022-11-29_11h15.20.872,vts_reward_expectancy_bt,2022.2.4,Win32,59.93048064,Chrome,1536,864,,,a,0.4175,1,411,2,0,5,5,10,1,0,0,0,1,0,1,0,0,star ,circle,,,,,,,,,,,,,,,,,,,,,,,,,,,,,,,,,,,,,,,,,,,,,,,,,,,,,,
298288,2022-11-29_11h15.20.872,vts_reward_expectancy_bt,2022.2.4,Win32,59.93048064,Chrome,1536,864,,,l,0.334,1,412,2,0,6,6,7,1,0,0,1,0,0,1,0,0,hexagon,circle,,,,,,,,,,,,,,,,,,,,,,,,,,,,,,,,,,,,,,,,,,,,,,,,,,,,,,
298288,2022-11-29_11h15.20.872,vts_reward_expectancy_bt,2022.2.4,Win32,59.93048064,Chrome,1536,864,,,a,1.0177,1,413,2,0,7,7,3,1,0,1,0,0,1,0,0,0,circle,triangle,,,,,,,,,,,,,,,,,,,,,,,,,,,,,,,,,,,,,,,,,,,,,,,,,,,,,,
298288,2022-11-29_11h15.20.872,vts_reward_expectancy_bt,2022.2.4,Win32,59.93048064,Chrome,1536,864,,,a,0.5451,1,414,2,0,8,8,0,1,1,0,0,0,0,1,0,0,triangle,circle,,,,,,,,,,,,,,,,,,,,,,,,,,,,,,,,,,,,,,,,,,,,,,,,,,,,,,
298288,2022-11-29_11h15.20.872,vts_reward_expectancy_bt,2022.2.4,Win32,59.93048064,Chrome,1536,864,,,a,0.0801,1,415,2,0,9,9,2,1,1,0,0,0,0,0,0,1,triangle,star,,,,,,,,,,,,,,,,,,,,,,,,,,,,,,,,,,,,,,,,,,,,,,,,,,,,,,
298288,2022-11-29_11h15.20.872,vts_reward_expectancy_bt,2022.2.4,Win32,59.93048064,Chrome,1536,864,,,l,0.1842,10,425,2,0,10,10,11,1,0,0,0,1,0,0,1,0,star,hexagon,,,,,,,,,,,,,,,,,,,,,,,,,,,,,,,,,,,,,,,,,,,,,,,,,,,,,,
298288,2022-11-29_11h15.20.872,vts_reward_expectancy_bt,2022.2.4,Win32,59.93048064,Chrome,1536,864,,,l,0.9676,10,435,2,0,11,11,5,1,0,1,0,0,0,0,0,1,circle,star,,,,,,,,,,,,,,,,,,,,,,,,,,,,,,,,,,,,,,,,,,,,,,,,,,,,,,
298288,2022-11-29_11h15.20.872,vts_reward_expectancy_bt,2022.2.4,Win32,59.93048064,Chrome,1536,864,,,l,0.5007,10,445,2,1,0,12,5,1,0,1,0,0,0,0,0,1,circle,star,,,,,,,,,,,,,,,,,,,,,,,,,,,,,,,,,,,,,,,,,,,,,,,,,,,,,,
298288,2022-11-29_11h15.20.872,vts_reward_expectancy_bt,2022.2.4,Win32,59.93048064,Chrome,1536,864,,,l,0.8671,10,455,2,1,1,13,1,1,1,0,0,0,0,0,1,0,triangle,hexagon,,,,,,,,,,,,,,,,,,,,,,,,,,,,,,,,,,,,,,,,,,,,,,,,,,,,,,
298288,2022-11-29_11h15.20.872,vts_reward_expectancy_bt,2022.2.4,Win32,59.93048064,Chrome,1536,864,,,a,0.6339,1,456,2,1,2,14,9,1,0,0,0,1,1,0,0,0,star,triangle,,,,,,,,,,,,,,,,,,,,,,,,,,,,,,,,,,,,,,,,,,,,,,,,,,,,,,
298288,2022-11-29_11h15.20.872,vts_reward_expectancy_bt,2022.2.4,Win32,59.93048064,Chrome,1536,864,,,a,0.9507,10,466,2,1,3,15,6,1,0,0,1,0,1,0,0,0,hexagon,triangle,,,,,,,,,,,,,,,,,,,,,,,,,,,,,,,,,,,,,,,,,,,,,,,,,,,,,,
298288,2022-11-29_11h15.20.872,vts_reward_expectancy_bt,2022.2.4,Win32,59.93048064,Chrome,1536,864,,,l,0.7007,10,476,2,1,4,16,2,1,1,0,0,0,0,0,0,1,triangle,star,,,,,,,,,,,,,,,,,,,,,,,,,,,,,,,,,,,,,,,,,,,,,,,,,,,,,,
298288,2022-11-29_11h15.20.872,vts_reward_expectancy_bt,2022.2.4,Win32,59.93048064,Chrome,1536,864,,,a,1.2174,1,477,2,1,5,17,4,1,0,1,0,0,0,0,1,0,circle,hexagon,,,,,,,,,,,,,,,,,,,,,,,,,,,,,,,,,,,,,,,,,,,,,,,,,,,,,,
298288,2022-11-29_11h15.20.872,vts_reward_expectancy_bt,2022.2.4,Win32,59.93048064,Chrome,1536,864,,,a,0.8512,1,478,2,1,6,18,3,1,0,1,0,0,1,0,0,0,circle,triangle,,,,,,,,,,,,,,,,,,,,,,,,,,,,,,,,,,,,,,,,,,,,,,,,,,,,,,
298288,2022-11-29_11h15.20.872,vts_reward_expectancy_bt,2022.2.4,Win32,59.93048064,Chrome,1536,864,,,l,1.4846,1,479,2,1,7,19,7,1,0,0,1,0,0,1,0,0,hexagon,circle,,,,,,,,,,,,,,,,,,,,,,,,,,,,,,,,,,,,,,,,,,,,,,,,,,,,,,
298288,2022-11-29_11h15.20.872,vts_reward_expectancy_bt,2022.2.4,Win32,59.93048064,Chrome,1536,864,,,a,0.7009,10,489,2,1,8,20,0,1,1,0,0,0,0,1,0,0,triangle,circle,,,,,,,,,,,,,,,,,,,,,,,,,,,,,,,,,,,,,,,,,,,,,,,,,,,,,,
298288,2022-11-29_11h15.20.872,vts_reward_expectancy_bt,2022.2.4,Win32,59.93048064,Chrome,1536,864,,,l,1.4845,10,499,2,1,9,21,10,1,0,0,0,1,0,1,0,0,star ,circle,,,,,,,,,,,,,,,,,,,,,,,,,,,,,,,,,,,,,,,,,,,,,,,,,,,,,,
298288,2022-11-29_11h15.20.872,vts_reward_expectancy_bt,2022.2.4,Win32,59.93048064,Chrome,1536,864,,,l,2.118,1,500,2,1,10,22,8,1,0,0,1,0,0,0,0,1,hexagon,star,,,,,,,,,,,,,,,,,,,,,,,,,,,,,,,,,,,,,,,,,,,,,,,,,,,,,,
298288,2022-11-29_11h15.20.872,vts_reward_expectancy_bt,2022.2.4,Win32,59.93048064,Chrome,1536,864,,,l,1.0843,10,510,2,1,11,23,11,1,0,0,0,1,0,0,1,0,star,hexagon,,,,,,,,,,,,,,,,,,,,,,,,,,,,,,,,,,,,,,,,,,,,,,,,,,,,,,
298288,2022-11-29_11h15.20.872,vts_reward_expectancy_bt,2022.2.4,Win32,59.93048064,Chrome,1536,864,,,a,3.3855,1,511,2,2,0,24,3,1,0,1,0,0,1,0,0,0,circle,triangle,,,,,,,,,,,,,,,,,,,,,,,,,,,,,,,,,,,,,,,,,,,,,,,,,,,,,,
298288,2022-11-29_11h15.20.872,vts_reward_expectancy_bt,2022.2.4,Win32,59.93048064,Chrome,1536,864,,,a,1.3508,10,521,2,2,1,25,0,1,1,0,0,0,0,1,0,0,triangle,circle,,,,,,,,,,,,,,,,,,,,,,,,,,,,,,,,,,,,,,,,,,,,,,,,,,,,,,
298288,2022-11-29_11h15.20.872,vts_reward_expectancy_bt,2022.2.4,Win32,59.93048064,Chrome,1536,864,,,l,0.6504,1,522,2,2,2,26,8,1,0,0,1,0,0,0,0,1,hexagon,star,,,,,,,,,,,,,,,,,,,,,,,,,,,,,,,,,,,,,,,,,,,,,,,,,,,,,,
298288,2022-11-29_11h15.20.872,vts_reward_expectancy_bt,2022.2.4,Win32,59.93048064,Chrome,1536,864,,,a,0.7842,1,523,2,2,3,27,10,1,0,0,0,1,0,1,0,0,star ,circle,,,,,,,,,,,,,,,,,,,,,,,,,,,,,,,,,,,,,,,,,,,,,,,,,,,,,,
298288,2022-11-29_11h15.20.872,vts_reward_expectancy_bt,2022.2.4,Win32,59.93048064,Chrome,1536,864,,,l,0.5837,10,533,2,2,4,28,7,1,0,0,1,0,0,1,0,0,hexagon,circle,,,,,,,,,,,,,,,,,,,,,,,,,,,,,,,,,,,,,,,,,,,,,,,,,,,,,,
298288,2022-11-29_11h15.20.872,vts_reward_expectancy_bt,2022.2.4,Win32,59.93048064,Chrome,1536,864,,,a,0.7506,10,543,2,2,5,29,9,1,0,0,0,1,1,0,0,0,star,triangle,,,,,,,,,,,,,,,,,,,,,,,,,,,,,,,,,,,,,,,,,,,,,,,,,,,,,,
298288,2022-11-29_11h15.20.872,vts_reward_expectancy_bt,2022.2.4,Win32,59.93048064,Chrome,1536,864,,,l,1.5346,10,553,2,2,6,30,2,1,1,0,0,0,0,0,0,1,triangle,star,,,,,,,,,,,,,,,,,,,,,,,,,,,,,,,,,,,,,,,,,,,,,,,,,,,,,,
298288,2022-11-29_11h15.20.872,vts_reward_expectancy_bt,2022.2.4,Win32,59.93048064,Chrome,1536,864,,,l,1.1678,10,563,2,2,7,31,11,1,0,0,0,1,0,0,1,0,star,hexagon,,,,,,,,,,,,,,,,,,,,,,,,,,,,,,,,,,,,,,,,,,,,,,,,,,,,,,
298288,2022-11-29_11h15.20.872,vts_reward_expectancy_bt,2022.2.4,Win32,59.93048064,Chrome,1536,864,,,l,4.2022,10,573,2,2,8,32,4,1,0,1,0,0,0,0,1,0,circle,hexagon,,,,,,,,,,,,,,,,,,,,,,,,,,,,,,,,,,,,,,,,,,,,,,,,,,,,,,
298288,2022-11-29_11h15.20.872,vts_reward_expectancy_bt,2022.2.4,Win32,59.93048064,Chrome,1536,864,,,a,1.151,1,574,2,2,9,33,1,1,1,0,0,0,0,0,1,0,triangle,hexagon,,,,,,,,,,,,,,,,,,,,,,,,,,,,,,,,,,,,,,,,,,,,,,,,,,,,,,
298288,2022-11-29_11h15.20.872,vts_reward_expectancy_bt,2022.2.4,Win32,59.93048064,Chrome,1536,864,,,l,1.118,10,584,2,2,10,34,6,1,0,0,1,0,1,0,0,0,hexagon,triangle,,,,,,,,,,,,,,,,,,,,,,,,,,,,,,,,,,,,,,,,,,,,,,,,,,,,,,
298288,2022-11-29_11h15.20.872,vts_reward_expectancy_bt,2022.2.4,Win32,59.93048064,Chrome,1536,864,,,l,0.9006,10,594,2,2,11,35,5,1,0,1,0,0,0,0,0,1,circle,star,,,,,,,,,,,,,,,,,,,,,,,,,,,,,,,,,,,,,,,,,,,,,,,,,,,,,,
298288,2022-11-29_11h15.20.872,vts_reward_expectancy_bt,2022.2.4,Win32,59.93048064,Chrome,1536,864,,,,,,,,,,,,,,,,,,,,,,,181,S,hexagon,0,0,d,2.5849,0,0,0,0,0,1,,,,,,,,,,,,,,,,,,,,,,,,,,,,,,,,,,,,,,,,,
298288,2022-11-29_11h15.20.872,vts_reward_expectancy_bt,2022.2.4,Win32,59.93048064,Chrome,1536,864,,,,,,,,,,,,,,,,,,,,,,,146,H,circle,0,1,f,1.6678,0,1,0,1,0,1,,,,,,,,,,,,,,,,,,,,,,,,,,,,,,,,,,,,,,,,,
298288,2022-11-29_11h15.20.872,vts_reward_expectancy_bt,2022.2.4,Win32,59.93048064,Chrome,1536,864,,,,,,,,,,,,,,,,,,,,,,,139,D,star,0,1,f,0.7505,0,2,0,2,0,1,,,,,,,,,,,,,,,,,,,,,,,,,,,,,,,,,,,,,,,,,
298288,2022-11-29_11h15.20.872,vts_reward_expectancy_bt,2022.2.4,Win32,59.93048064,Chrome,1536,864,,,,,,,,,,,,,,,,,,,,,,,125,U,triangle,0,1,f,1.3006,0,3,0,3,0,1,,,,,,,,,,,,,,,,,,,,,,,,,,,,,,,,,,,,,,,,,
298288,2022-11-29_11h15.20.872,vts_reward_expectancy_bt,2022.2.4,Win32,59.93048064,Chrome,1536,864,,,,,,,,,,,,,,,,,,,,,,,174,B,hexagon,1,1,f,0.6174,0,4,0,4,0,1,,,,,,,,,,,,,,,,,,,,,,,,,,,,,,,,,,,,,,,,,
298288,2022-11-29_11h15.20.872,vts_reward_expectancy_bt,2022.2.4,Win32,59.93048064,Chrome,1536,864,,,,,,,,,,,,,,,,,,,,,,,167,W,circle,1,0,f,1.3677,0,5,0,5,0,1,,,,,,,,,,,,,,,,,,,,,,,,,,,,,,,,,,,,,,,,,
298288,2022-11-29_11h15.20.872,vts_reward_expectancy_bt,2022.2.4,Win32,59.93048064,Chrome,1536,864,,,,,,,,,,,,,,,,,,,,,,,160,Y,star,1,0,f,1.0842,0,6,0,6,0,1,,,,,,,,,,,,,,,,,,,,,,,,,,,,,,,,,,,,,,,,,
298288,2022-11-29_11h15.20.872,vts_reward_expectancy_bt,2022.2.4,Win32,59.93048064,Chrome,1536,864,,,,,,,,,,,,,,,,,,,,,,,132,F,triangle,1,0,d,1.5178,0,7,0,7,0,1,,,,,,,,,,,,,,,,,,,,,,,,,,,,,,,,,,,,,,,,,
298288,2022-11-29_11h15.20.872,vts_reward_expectancy_bt,2022.2.4,Win32,59.93048064,Chrome,1536,864,,,,,,,,,,,,,,,,,,,,,,,181,S,triangle,1,0,f,1.0176,0,8,0,8,0,1,,,,,,,,,,,,,,,,,,,,,,,,,,,,,,,,,,,,,,,,,
298288,2022-11-29_11h15.20.872,vts_reward_expectancy_bt,2022.2.4,Win32,59.93048064,Chrome,1536,864,,,,,,,,,,,,,,,,,,,,,,,146,H,circle,1,0,d,1.5346,0,9,0,9,0,1,,,,,,,,,,,,,,,,,,,,,,,,,,,,,,,,,,,,,,,,,
298288,2022-11-29_11h15.20.872,vts_reward_expectancy_bt,2022.2.4,Win32,59.93048064,Chrome,1536,864,,,,,,,,,,,,,,,,,,,,,,,174,F,hexagon,1,0,f,0.9509,1,0,0,0,0,1,,,,,,,,,,,,,,,,,,,,,,,,,,,,,,,,,,,,,,,,,
298288,2022-11-29_11h15.20.872,vts_reward_expectancy_bt,2022.2.4,Win32,59.93048064,Chrome,1536,864,,,,,,,,,,,,,,,,,,,,,,,125,D,star,1,0,d,0.8674,1,1,0,1,0,1,,,,,,,,,,,,,,,,,,,,,,,,,,,,,,,,,,,,,,,,,
298288,2022-11-29_11h15.20.872,vts_reward_expectancy_bt,2022.2.4,Win32,59.93048064,Chrome,1536,864,,,,,,,,,,,,,,,,,,,,,,,132,Y,triangle,1,0,d,1.3345,1,2,0,2,0,1,,,,,,,,,,,,,,,,,,,,,,,,,,,,,,,,,,,,,,,,,
298288,2022-11-29_11h15.20.872,vts_reward_expectancy_bt,2022.2.4,Win32,59.93048064,Chrome,1536,864,,,,,,,,,,,,,,,,,,,,,,,146,W,circle,0,0,f,1.8178,1,3,0,3,0,1,,,,,,,,,,,,,,,,,,,,,,,,,,,,,,,,,,,,,,,,,
298288,2022-11-29_11h15.20.872,vts_reward_expectancy_bt,2022.2.4,Win32,59.93048064,Chrome,1536,864,,,,,,,,,,,,,,,,,,,,,,,139,U,hexagon,1,1,d,1.7514,1,4,0,4,0,1,,,,,,,,,,,,,,,,,,,,,,,,,,,,,,,,,,,,,,,,,
298288,2022-11-29_11h15.20.872,vts_reward_expectancy_bt,2022.2.4,Win32,59.93048064,Chrome,1536,864,,,,,,,,,,,,,,,,,,,,,,,167,H,star,1,0,f,1.5175,1,5,0,5,0,1,,,,,,,,,,,,,,,,,,,,,,,,,,,,,,,,,,,,,,,,,
298288,2022-11-29_11h15.20.872,vts_reward_expectancy_bt,2022.2.4,Win32,59.93048064,Chrome,1536,864,,,,,,,,,,,,,,,,,,,,,,,181,B,triangle,1,0,f,0.8175,1,6,0,6,0,1,,,,,,,,,,,,,,,,,,,,,,,,,,,,,,,,,,,,,,,,,
298288,2022-11-29_11h15.20.872,vts_reward_expectancy_bt,2022.2.4,Win32,59.93048064,Chrome,1536,864,,,,,,,,,,,,,,,,,,,,,,,160,S,circle,1,0,f,1.3675,1,7,0,7,0,1,,,,,,,,,,,,,,,,,,,,,,,,,,,,,,,,,,,,,,,,,
298288,2022-11-29_11h15.20.872,vts_reward_expectancy_bt,2022.2.4,Win32,59.93048064,Chrome,1536,864,,,,,,,,,,,,,,,,,,,,,,,174,F,star,1,0,f,0.9511,1,8,0,8,0,1,,,,,,,,,,,,,,,,,,,,,,,,,,,,,,,,,,,,,,,,,
298288,2022-11-29_11h15.20.872,vts_reward_expectancy_bt,2022.2.4,Win32,59.93048064,Chrome,1536,864,,,,,,,,,,,,,,,,,,,,,,,125,D,triangle,1,0,d,0.684,1,9,0,9,0,1,,,,,,,,,,,,,,,,,,,,,,,,,,,,,,,,,,,,,,,,,
298288,2022-11-29_11h15.20.872,vts_reward_expectancy_bt,2022.2.4,Win32,59.93048064,Chrome,1536,864,,,,,,,,,,,,,,,,,,,,,,,167,S,hexagon,1,0,,,2,,,,,,k,1.6676,0,0,0,0,1,,,,,,,,,,,,,,,,,,,,,,,,,,,,,,,,,,
298288,2022-11-29_11h15.20.872,vts_reward_expectancy_bt,2022.2.4,Win32,59.93048064,Chrome,1536,864,,,,,,,,,,,,,,,,,,,,,,,181,F,triangle,1,0,,,2,,,,,,j,0.7671,1,0,1,0,1,,,,,,,,,,,,,,,,,,,,,,,,,,,,,,,,,,
298288,2022-11-29_11h15.20.872,vts_reward_expectancy_bt,2022.2.4,Win32,59.93048064,Chrome,1536,864,,,,,,,,,,,,,,,,,,,,,,,132,H,star,1,0,,,2,,,,,,j,1.1012,2,0,2,0,1,,,,,,,,,,,,,,,,,,,,,,,,,,,,,,,,,,
298288,2022-11-29_11h15.20.872,vts_reward_expectancy_bt,2022.2.4,Win32,59.93048064,Chrome,1536,864,,,,,,,,,,,,,,,,,,,,,,,174,Y,circle,1,0,,,2,,,,,,k,0.5673,3,0,3,0,1,,,,,,,,,,,,,,,,,,,,,,,,,,,,,,,,,,
298288,2022-11-29_11h15.20.872,vts_reward_expectancy_bt,2022.2.4,Win32,59.93048064,Chrome,1536,864,,,,,,,,,,,,,,,,,,,,,,,146,B,hexagon,1,0,,,2,,,,,,j,1.3341,4,0,4,0,1,,,,,,,,,,,,,,,,,,,,,,,,,,,,,,,,,,
298288,2022-11-29_11h15.20.872,vts_reward_expectancy_bt,2022.2.4,Win32,59.93048064,Chrome,1536,864,,,,,,,,,,,,,,,,,,,,,,,125,U,triangle,1,0,,,2,,,,,,k,2.135,5,0,5,0,1,,,,,,,,,,,,,,,,,,,,,,,,,,,,,,,,,,
298288,2022-11-29_11h15.20.872,vts_reward_expectancy_bt,2022.2.4,Win32,59.93048064,Chrome,1536,864,,,,,,,,,,,,,,,,,,,,,,,160,W,star,1,0,,,2,,,,,,k,0.7675,6,0,6,0,1,,,,,,,,,,,,,,,,,,,,,,,,,,,,,,,,,,
298288,2022-11-29_11h15.20.872,vts_reward_expectancy_bt,2022.2.4,Win32,59.93048064,Chrome,1536,864,,,,,,,,,,,,,,,,,,,,,,,139,D,circle,1,0,,,2,,,,,,j,1.1512,7,0,7,0,1,,,,,,,,,,,,,,,,,,,,,,,,,,,,,,,,,,
298288,2022-11-29_11h15.20.872,vts_reward_expectancy_bt,2022.2.4,Win32,59.93048064,Chrome,1536,864,,,,,,,,,,,,,,,,,,,,,,,167,S,star,1,0,,,2,,,,,,k,0.8005,8,0,8,0,1,,,,,,,,,,,,,,,,,,,,,,,,,,,,,,,,,,
298288,2022-11-29_11h15.20.872,vts_reward_expectancy_bt,2022.2.4,Win32,59.93048064,Chrome,1536,864,,,,,,,,,,,,,,,,,,,,,,,181,F,circle,1,0,,,2,,,,,,j,0.9341,9,0,9,0,1,,,,,,,,,,,,,,,,,,,,,,,,,,,,,,,,,,
298288,2022-11-29_11h15.20.872,vts_reward_expectancy_bt,2022.2.4,Win32,59.93048064,Chrome,1536,864,,,,,0,594,,,,,,,,,,,,,,,,,160,D,circle,1,0,,,3,,,,,,,,,,,,,-1,letter,NA,j,1.7377,vtsPrac,0,0,0,0,1,,,,,,,,,,,,,,,,,,,,,,,
298288,2022-11-29_11h15.20.872,vts_reward_expectancy_bt,2022.2.4,Win32,59.93048064,Chrome,1536,864,,,,,0,594,,,,,,,,,,,,,,,,,125,H,star,1,0,,,3,,,,,,,,,,,,,repeat,letter,lettRpt,j,1.1877,vtsPrac,1,0,1,0,1,,,,,,,,,,,,,,,,,,,,,,,
298288,2022-11-29_11h15.20.872,vts_reward_expectancy_bt,2022.2.4,Win32,59.93048064,Chrome,1536,864,,,,,0,594,,,,,,,,,,,,,,,,,146,W,circle,1,0,,,3,,,,,,,,,,,,,switch,number,numSwt,d,0.6808,vtsPrac,2,0,2,0,1,,,,,,,,,,,,,,,,,,,,,,,
298288,2022-11-29_11h15.20.872,vts_reward_expectancy_bt,2022.2.4,Win32,59.93048064,Chrome,1536,864,,,,,0,594,,,,,,,,,,,,,,,,,181,Y,star,1,0,,,3,,,,,,,,,,,,,repeat,number,numRpt,f,1.7503,vtsPrac,3,0,3,0,1,,,,,,,,,,,,,,,,,,,,,,,
298288,2022-11-29_11h15.20.872,vts_reward_expectancy_bt,2022.2.4,Win32,59.93048064,Chrome,1536,864,,,,,0,594,,,,,,,,,,,,,,,,,160,D,hexagon,1,0,,,3,,,,,,,,,,,,,switch,letter,lettSwt,j,0.5506,vtsPrac,4,0,4,0,1,,,,,,,,,,,,,,,,,,,,,,,
298288,2022-11-29_11h15.20.872,vts_reward_expectancy_bt,2022.2.4,Win32,59.93048064,Chrome,1536,864,,,,,0,594,,,,,,,,,,,,,,,,,125,H,circle,1,0,,,3,,,,,,,,,,,,,repeat,letter,lettRpt,j,1.4311,vtsPrac,5,0,5,0,1,,,,,,,,,,,,,,,,,,,,,,,
298288,2022-11-29_11h15.20.872,vts_reward_expectancy_bt,2022.2.4,Win32,59.93048064,Chrome,1536,864,,,,,0,594,,,,,,,,,,,,,,,,,146,W,star,1,0,,,3,,,,,,,,,,,,,switch,number,numSwt,d,1.4011,vtsPrac,6,0,6,0,1,,,,,,,,,,,,,,,,,,,,,,,
298288,2022-11-29_11h15.20.872,vts_reward_expectancy_bt,2022.2.4,Win32,59.93048064,Chrome,1536,864,,,,,0,594,,,,,,,,,,,,,,,,,181,Y,hexagon,1,0,,,3,,,,,,,,,,,,,repeat,number,numRpt,f,0.6471,vtsPrac,7,0,7,0,1,,,,,,,,,,,,,,,,,,,,,,,
298288,2022-11-29_11h15.20.872,vts_reward_expectancy_bt,2022.2.4,Win32,59.93048064,Chrome,1536,864,,,,,0,594,,,,,,,,,,,,,,,,,160,Y,hexagon,1,0,,,3,,,,,,,,,,,,,switch,letter,lettSwt,k,0.9975,vtsPrac,8,0,8,0,1,,,,,,,,,,,,,,,,,,,,,,,
298288,2022-11-29_11h15.20.872,vts_reward_expectancy_bt,2022.2.4,Win32,59.93048064,Chrome,1536,864,,,,,0,594,,,,,,,,,,,,,,,,,174,B,star,1,0,,,3,,,,,,,,,,,,,switch,number,numSwt,f,1.5813,vtsPrac,9,0,9,0,1,,,,,,,,,,,,,,,,,,,,,,,
298288,2022-11-29_11h15.20.872,vts_reward_expectancy_bt,2022.2.4,Win32,59.93048064,Chrome,1536,864,,,,,0,594,,,,,,,,,,,,,,,,,181,U,star,1,0,,,3,,,,,,,,,,,,,switch,letter,lettSwt,k,0.8177,vtsPrac,10,0,10,0,1,,,,,,,,,,,,,,,,,,,,,,,
298288,2022-11-29_11h15.20.872,vts_reward_expectancy_bt,2022.2.4,Win32,59.93048064,Chrome,1536,864,,,,,0,594,,,,,,,,,,,,,,,,,146,F,hexagon,1,0,,,3,,,,,,,,,,,,,switch,number,numSwt,d,0.7506,vtsPrac,11,0,11,0,1,,,,,,,,,,,,,,,,,,,,,,,
298288,2022-11-29_11h15.20.872,vts_reward_expectancy_bt,2022.2.4,Win32,59.93048064,Chrome,1536,864,,,,,0,594,,,,,,,,,,,,,,,,,146,D,circle,1,0,,,3,,,,,,,,,,,,,switch,letter,lettSwt,j,0.7337,vtsPrac,12,0,12,0,1,,,,,,,,,,,,,,,,,,,,,,,
298288,2022-11-29_11h15.20.872,vts_reward_expectancy_bt,2022.2.4,Win32,59.93048064,Chrome,1536,864,,,,,0,594,,,,,,,,,,,,,,,,,181,Y,hexagon,1,0,,,3,,,,,,,,,,,,,repeat,letter,lettRpt,k,0.4838,vtsPrac,13,0,13,0,1,,,,,,,,,,,,,,,,,,,,,,,
298288,2022-11-29_11h15.20.872,vts_reward_expectancy_bt,2022.2.4,Win32,59.93048064,Chrome,1536,864,,,,,0,594,,,,,,,,,,,,,,,,,139,H,star,1,0,,,3,,,,,,,,,,,,,switch,number,numSwt,d,0.7845,vtsPrac,14,0,14,0,1,,,,,,,,,,,,,,,,,,,,,,,
298288,2022-11-29_11h15.20.872,vts_reward_expectancy_bt,2022.2.4,Win32,59.93048064,Chrome,1536,864,,,,,0,594,,,,,,,,,,,,,,,,,167,S,hexagon,1,0,,,3,,,,,,,,,,,,,switch,letter,lettSwt,k,0.9349,vtsPrac,15,0,15,0,1,,,,,,,,,,,,,,,,,,,,,,,
298288,2022-11-29_11h15.20.872,vts_reward_expectancy_bt,2022.2.4,Win32,59.93048064,Chrome,1536,864,,,,,0,594,,,,,,,,,,,,,,,,,160,U,circle,1,0,,,3,,,,,,,,,,,,,repeat,letter,lettRpt,k,0.6173,vtsPrac,16,0,16,0,1,,,,,,,,,,,,,,,,,,,,,,,
298288,2022-11-29_11h15.20.872,vts_reward_expectancy_bt,2022.2.4,Win32,59.93048064,Chrome,1536,864,,,,,0,594,,,,,,,,,,,,,,,,,146,S,hexagon,1,0,,,3,,,,,,,,,,,,,switch,number,numSwt,d,1.0508,vtsPrac,17,0,17,0,1,,,,,,,,,,,,,,,,,,,,,,,
298288,2022-11-29_11h15.20.872,vts_reward_expectancy_bt,2022.2.4,Win32,59.93048064,Chrome,1536,864,,,,,0,594,,,,,,,,,,,,,,,,,139,H,circle,1,0,,,3,,,,,,,,,,,,,repeat,number,numRpt,d,0.6674,vtsPrac,18,0,18,0,1,,,,,,,,,,,,,,,,,,,,,,,
298288,2022-11-29_11h15.20.872,vts_reward_expectancy_bt,2022.2.4,Win32,59.93048064,Chrome,1536,864,,,,,0,594,,,,,,,,,,,,,,,,,125,W,hexagon,1,0,,,3,,,,,,,,,,,,,repeat,number,numRpt,d,0.7178,vtsPrac,19,0,19,0,1,,,,,,,,,,,,,,,,,,,,,,,
298288,2022-11-29_11h15.20.872,vts_reward_expectancy_bt,2022.2.4,Win32,59.93048064,Chrome,1536,864,,,,,0,594,,,,,,,,,,,,,,,,,181,D,hexagon,1,0,,,3,,,,,,,,,,,,,switch,letter,lettSwt,j,0.567,vtsPrac,20,0,20,0,1,,,,,,,,,,,,,,,,,,,,,,,
298288,2022-11-29_11h15.20.872,vts_reward_expectancy_bt,2022.2.4,Win32,59.93048064,Chrome,1536,864,,,,,0,594,,,,,,,,,,,,,,,,,146,S,star,1,0,,,3,,,,,,,,,,,,,repeat,letter,lettRpt,k,0.9338,vtsPrac,21,0,21,0,1,,,,,,,,,,,,,,,,,,,,,,,
298288,2022-11-29_11h15.20.872,vts_reward_expectancy_bt,2022.2.4,Win32,59.93048064,Chrome,1536,864,,,,,0,594,,,,,,,,,,,,,,,,,167,H,star,1,0,,,3,,,,,,,,,,,,,switch,number,numSwt,f,0.8506,vtsPrac,22,0,22,0,1,,,,,,,,,,,,,,,,,,,,,,,
298288,2022-11-29_11h15.20.872,vts_reward_expectancy_bt,2022.2.4,Win32,59.93048064,Chrome,1536,864,,,,,0,594,,,,,,,,,,,,,,,,,125,U,circle,1,0,,,3,,,,,,,,,,,,,repeat,number,numRpt,d,0.7171,vtsPrac,23,0,23,0,1,,,,,,,,,,,,,,,,,,,,,,,
298288,2022-11-29_11h15.20.872,vts_reward_expectancy_bt,2022.2.4,Win32,59.93048064,Chrome,1536,864,,,,,0,594,,,,,,,,,,,,,,,,,132,Y,hexagon,1,0,,,3,,,,,,,,,,,,,repeat,number,numRpt,d,0.8171,vtsPrac,24,0,24,0,1,,,,,,,,,,,,,,,,,,,,,,,
298288,2022-11-29_11h15.20.872,vts_reward_expectancy_bt,2022.2.4,Win32,59.93048064,Chrome,1536,864,,,,,0,594,,,,,,,,,,,,,,,,,181,H,circle,1,0,,,3,,,,,,,,,,,,,repeat,number,numRpt,f,0.6842,vtsPrac,25,0,25,0,1,,,,,,,,,,,,,,,,,,,,,,,
298288,2022-11-29_11h15.20.872,vts_reward_expectancy_bt,2022.2.4,Win32,59.93048064,Chrome,1536,864,,,,,0,594,,,,,,,,,,,,,,,,,146,S,hexagon,1,0,,,3,,,,,,,,,,,,,switch,letter,lettSwt,k,0.5835,vtsPrac,26,0,26,0,1,,,,,,,,,,,,,,,,,,,,,,,
298288,2022-11-29_11h15.20.872,vts_reward_expectancy_bt,2022.2.4,Win32,59.93048064,Chrome,1536,864,,,,,0,594,,,,,,,,,,,,,,,,,167,U,circle,1,0,,,3,,,,,,,,,,,,,switch,number,numSwt,f,0.8171,vtsPrac,27,0,27,0,1,,,,,,,,,,,,,,,,,,,,,,,
298288,2022-11-29_11h15.20.872,vts_reward_expectancy_bt,2022.2.4,Win32,59.93048064,Chrome,1536,864,,,,,0,594,,,,,,,,,,,,,,,,,132,H,star,1,0,,,3,,,,,,,,,,,,,switch,letter,lettSwt,j,0.9503,vtsPrac,28,0,28,0,1,,,,,,,,,,,,,,,,,,,,,,,
298288,2022-11-29_11h15.20.872,vts_reward_expectancy_bt,2022.2.4,Win32,59.93048064,Chrome,1536,864,,,,,0,594,,,,,,,,,,,,,,,,,139,D,circle,1,0,,,3,,,,,,,,,,,,,repeat,letter,lettRpt,j,0.9505,vtsPrac,29,0,29,0,1,,,,,,,,,,,,,,,,,,,,,,,
298288,2022-11-29_11h15.20.872,vts_reward_expectancy_bt,2022.2.4,Win32,59.93048064,Chrome,1536,864,,,,,0,594,,,,,,,,,,,,,,,,,174,W,triangle,1,0,,,3,,,,,,,,,,,,,switch,number,numSwt,f,1.4173,vtsPrac,30,0,30,0,1,,,,,,,,,,,,,,,,,,,,,,,
298288,2022-11-29_11h15.20.872,vts_reward_expectancy_bt,2022.2.4,Win32,59.93048064,Chrome,1536,864,,,,,0,594,,,,,,,,,,,,,,,,,181,F,circle,1,0,,,3,,,,,,,,,,,,,switch,letter,lettSwt,j,1.451,vtsPrac,31,0,31,0,1,,,,,,,,,,,,,,,,,,,,,,,
298288,2022-11-29_11h15.20.872,vts_reward_expectancy_bt,2022.2.4,Win32,59.93048064,Chrome,1536,864,,,,,,,,,,,,,,,,,,,,,,,,,,,,,,,,,,,,,,,,,,,,,,,,,,,,,,,,,,,,,,,,,,,,,,,,,,,,
298288,2022-11-29_11h15.20.872,vts_reward_expectancy_bt,2022.2.4,Win32,59.93048064,Chrome,1536,864,,,,,,,,,,,,,,,,,,,,,,,,,,,,,,,,,,,,,,,,,,,,,,,,,,,,,,,,,,,,,,,,,,,,,,,,,,,,
298288,2022-11-29_11h15.20.872,vts_reward_expectancy_bt,2022.2.4,Win32,59.93048064,Chrome,1536,864,,,,,0,594,,,,,,,,,,,,,,,,,132,S,triangle,1,0,,,,,,,,,,,,,,,,switch,number,numSwt,d,1.0449,noRew,,,,,,0,0,0,0,0,1,,,,,,,,,,,,,,,,,
298288,2022-11-29_11h15.20.872,vts_reward_expectancy_bt,2022.2.4,Win32,59.93048064,Chrome,1536,864,,,,,0,594,,,,,,,,,,,,,,,,,181,D,star,1,0,,,,,,,,,,,,,,,,switch,letter,lettSwt,j,0.6671,noRew,,,,,,0,1,0,1,0,1,,,,,,,,,,,,,,,,,
298288,2022-11-29_11h15.20.872,vts_reward_expectancy_bt,2022.2.4,Win32,59.93048064,Chrome,1536,864,,,,,0,594,,,,,,,,,,,,,,,,,146,W,triangle,1,0,,,,,,,,,,,,,,,,switch,number,numSwt,d,0.8336,noRew,,,,,,0,2,0,2,0,1,,,,,,,,,,,,,,,,,
298288,2022-11-29_11h15.20.872,vts_reward_expectancy_bt,2022.2.4,Win32,59.93048064,Chrome,1536,864,,,,,0,594,,,,,,,,,,,,,,,,,160,F,star,1,0,,,,,,,,,,,,,,,,switch,letter,lettSwt,j,0.6008,noRew,,,,,,0,3,0,3,0,1,,,,,,,,,,,,,,,,,
298288,2022-11-29_11h15.20.872,vts_reward_expectancy_bt,2022.2.4,Win32,59.93048064,Chrome,1536,864,,,,,0,594,,,,,,,,,,,,,,,,,132,S,circle,1,0,,,,,,,,,,,,,,,,switch,number,numSwt,d,0.7505,noRew,,,,,,0,4,0,4,0,1,,,,,,,,,,,,,,,,,
298288,2022-11-29_11h15.20.872,vts_reward_expectancy_bt,2022.2.4,Win32,59.93048064,Chrome,1536,864,,,,,0,594,,,,,,,,,,,,,,,,,181,D,hexagon,1,0,,,,,,,,,,,,,,,,switch,letter,lettSwt,j,0.6339,noRew,,,,,,0,5,0,5,0,1,,,,,,,,,,,,,,,,,
298288,2022-11-29_11h15.20.872,vts_reward_expectancy_bt,2022.2.4,Win32,59.93048064,Chrome,1536,864,,,,,0,594,,,,,,,,,,,,,,,,,146,W,star,1,0,,,,,,,,,,,,,,,,switch,number,numSwt,d,0.9003,noRew,,,,,,0,6,0,6,0,1,,,,,,,,,,,,,,,,,
298288,2022-11-29_11h15.20.872,vts_reward_expectancy_bt,2022.2.4,Win32,59.93048064,Chrome,1536,864,,,,,0,594,,,,,,,,,,,,,,,,,160,F,circle,1,0,,,,,,,,,,,,,,,,switch,letter,lettSwt,j,0.6512,noRew,,,,,,0,7,0,7,0,1,,,,,,,,,,,,,,,,,
298288,2022-11-29_11h15.20.872,vts_reward_expectancy_bt,2022.2.4,Win32,59.93048064,Chrome,1536,864,,,,,0,594,,,,,,,,,,,,,,,,,160,U,triangle,1,0,,,,,,,,,,,,,,,,switch,number,numSwt,f,0.9673,noRew,,,,,,0,8,0,8,0,1,,,,,,,,,,,,,,,,,
298288,2022-11-29_11h15.20.872,vts_reward_expectancy_bt,2022.2.4,Win32,59.93048064,Chrome,1536,864,,,,,0,594,,,,,,,,,,,,,,,,,125,D,circle,1,0,,,,,,,,,,,,,,,,switch,letter,lettSwt,j,0.7174,noRew,,,,,,0,9,0,9,0,1,,,,,,,,,,,,,,,,,
298288,2022-11-29_11h15.20.872,vts_reward_expectancy_bt,2022.2.4,Win32,59.93048064,Chrome,1536,864,,,,,0,594,,,,,,,,,,,,,,,,,139,W,star,1,0,,,,,,,,,,,,,,,,switch,number,numSwt,d,0.6004,noRew,,,,,,0,10,0,10,0,1,,,,,,,,,,,,,,,,,
298288,2022-11-29_11h15.20.872,vts_reward_expectancy_bt,2022.2.4,Win32,59.93048064,Chrome,1536,864,,,,,0,594,,,,,,,,,,,,,,,,,167,B,circle,1,0,,,,,,,,,,,,,,,,switch,letter,lettSwt,j,0.584,noRew,,,,,,0,11,0,11,0,1,,,,,,,,,,,,,,,,,
298288,2022-11-29_11h15.20.872,vts_reward_expectancy_bt,2022.2.4,Win32,59.93048064,Chrome,1536,864,,,,,0,594,,,,,,,,,,,,,,,,,174,D,star,1,0,,,,,,,,,,,,,,,,switch,number,numSwt,f,0.5005,noRew,,,,,,0,12,0,12,0,1,,,,,,,,,,,,,,,,,
298288,2022-11-29_11h15.20.872,vts_reward_expectancy_bt,2022.2.4,Win32,59.93048064,Chrome,1536,864,,,,,0,594,,,,,,,,,,,,,,,,,181,Y,hexagon,1,0,,,,,,,,,,,,,,,,switch,letter,lettSwt,k,0.5672,noRew,,,,,,0,13,0,13,0,1,,,,,,,,,,,,,,,,,
298288,2022-11-29_11h15.20.872,vts_reward_expectancy_bt,2022.2.4,Win32,59.93048064,Chrome,1536,864,,,,,0,594,,,,,,,,,,,,,,,,,139,H,circle,1,0,,,,,,,,,,,,,,,,switch,number,numSwt,d,0.5672,noRew,,,,,,0,14,0,14,0,1,,,,,,,,,,,,,,,,,
298288,2022-11-29_11h15.20.872,vts_reward_expectancy_bt,2022.2.4,Win32,59.93048064,Chrome,1536,864,,,,,0,594,,,,,,,,,,,,,,,,,132,B,star,1,0,,,,,,,,,,,,,,,,repeat,number,numRpt,d,0.8673,noRew,,,,,,0,15,0,15,0,1,,,,,,,,,,,,,,,,,
298288,2022-11-29_11h15.20.872,vts_reward_expectancy_bt,2022.2.4,Win32,59.93048064,Chrome,1536,864,,,,,0,594,,,,,,,,,,,,,,,,,181,B,star,0,0,,,,,,,,,,,,,,,,switch,letter,NA,k,1.284,noRew,,,,,,0,16,0,16,0,1,,,,,,,,,,,,,,,,,
298288,2022-11-29_11h15.20.872,vts_reward_expectancy_bt,2022.2.4,Win32,59.93048064,Chrome,1536,864,,,,,0,594,,,,,,,,,,,,,,,,,125,D,hexagon,1,1,,,,,,,,,,,,,,,,switch,number,numSwt,d,0.734,noRew,,,,,,0,17,0,17,0,1,,,,,,,,,,,,,,,,,
298288,2022-11-29_11h15.20.872,vts_reward_expectancy_bt,2022.2.4,Win32,59.93048064,Chrome,1536,864,,,,,0,594,,,,,,,,,,,,,,,,,146,Y,hexagon,1,0,,,,,,,,,,,,,,,,switch,letter,lettSwt,k,0.4672,noRew,,,,,,0,18,0,18,0,1,,,,,,,,,,,,,,,,,
298288,2022-11-29_11h15.20.872,vts_reward_expectancy_bt,2022.2.4,Win32,59.93048064,Chrome,1536,864,,,,,0,594,,,,,,,,,,,,,,,,,160,F,star,1,0,,,,,,,,,,,,,,,,switch,number,numSwt,f,0.8008,noRew,,,,,,0,19,0,19,0,1,,,,,,,,,,,,,,,,,
298288,2022-11-29_11h15.20.872,vts_reward_expectancy_bt,2022.2.4,Win32,59.93048064,Chrome,1536,864,,,,,0,594,,,,,,,,,,,,,,,,,125,B,triangle,1,0,,,,,,,,,,,,,,,,switch,letter,lettSwt,j,0.5005,noRew,,,,,,0,20,0,20,0,1,,,,,,,,,,,,,,,,,
298288,2022-11-29_11h15.20.872,vts_reward_expectancy_bt,2022.2.4,Win32,59.93048064,Chrome,1536,864,,,,,0,594,,,,,,,,,,,,,,,,,146,H,circle,1,0,,,,,,,,,,,,,,,,switch,number,numSwt,d,0.7658,noRew,,,,,,0,21,0,21,0,1,,,,,,,,,,,,,,,,,
298288,2022-11-29_11h15.20.872,vts_reward_expectancy_bt,2022.2.4,Win32,59.93048064,Chrome,1536,864,,,,,0,594,,,,,,,,,,,,,,,,,167,S,star,1,0,,,,,,,,,,,,,,,,switch,letter,lettSwt,k,0.7174,noRew,,,,,,0,22,0,22,0,1,,,,,,,,,,,,,,,,,
298288,2022-11-29_11h15.20.872,vts_reward_expectancy_bt,2022.2.4,Win32,59.93048064,Chrome,1536,864,,,,,0,594,,,,,,,,,,,,,,,,,139,Y,triangle,1,0,,,,,,,,,,,,,,,,switch,number,numSwt,d,0.9003,noRew,,,,,,0,23,0,23,0,1,,,,,,,,,,,,,,,,,
298288,2022-11-29_11h15.20.872,vts_reward_expectancy_bt,2022.2.4,Win32,59.93048064,Chrome,1536,864,,,,,0,594,,,,,,,,,,,,,,,,,167,F,star,1,0,,,,,,,,,,,,,,,,switch,letter,lettSwt,j,0.8508,noRew,,,,,,0,24,0,24,0,1,,,,,,,,,,,,,,,,,
298288,2022-11-29_11h15.20.872,vts_reward_expectancy_bt,2022.2.4,Win32,59.93048064,Chrome,1536,864,,,,,0,594,,,,,,,,,,,,,,,,,160,S,triangle,1,0,,,,,,,,,,,,,,,,switch,number,numSwt,f,0.8671,noRew,,,,,,0,25,0,25,0,1,,,,,,,,,,,,,,,,,
298288,2022-11-29_11h15.20.872,vts_reward_expectancy_bt,2022.2.4,Win32,59.93048064,Chrome,1536,864,,,,,0,594,,,,,,,,,,,,,,,,,139,U,triangle,1,0,,,,,,,,,,,,,,,,switch,letter,lettSwt,k,0.4673,noRew,,,,,,0,26,0,26,0,1,,,,,,,,,,,,,,,,,
298288,2022-11-29_11h15.20.872,vts_reward_expectancy_bt,2022.2.4,Win32,59.93048064,Chrome,1536,864,,,,,0,594,,,,,,,,,,,,,,,,,132,Y,hexagon,1,0,,,,,,,,,,,,,,,,switch,number,numSwt,d,0.6002,noRew,,,,,,0,27,0,27,0,1,,,,,,,,,,,,,,,,,
298288,2022-11-29_11h15.20.872,vts_reward_expectancy_bt,2022.2.4,Win32,59.93048064,Chrome,1536,864,,,,,0,594,,,,,,,,,,,,,,,,,146,F,triangle,1,0,,,,,,,,,,,,,,,,repeat,number,numRpt,d,0.8175,noRew,,,,,,0,28,0,28,0,1,,,,,,,,,,,,,,,,,
298288,2022-11-29_11h15.20.872,vts_reward_expectancy_bt,2022.2.4,Win32,59.93048064,Chrome,1536,864,,,,,0,594,,,,,,,,,,,,,,,,,160,B,circle,1,0,,,,,,,,,,,,,,,,switch,letter,lettSwt,j,0.5673,noRew,,,,,,0,29,0,29,0,1,,,,,,,,,,,,,,,,,
298288,2022-11-29_11h15.20.872,vts_reward_expectancy_bt,2022.2.4,Win32,59.93048064,Chrome,1536,864,,,,,0,594,,,,,,,,,,,,,,,,,167,Y,triangle,1,0,,,,,,,,,,,,,,,,switch,number,numSwt,f,1.0346,noRew,,,,,,0,30,0,30,0,1,,,,,,,,,,,,,,,,,
298288,2022-11-29_11h15.20.872,vts_reward_expectancy_bt,2022.2.4,Win32,59.93048064,Chrome,1536,864,,,,,0,594,,,,,,,,,,,,,,,,,174,W,star,1,0,,,,,,,,,,,,,,,,repeat,number,numRpt,f,1.0672,noRew,,,,,,0,31,0,31,0,1,,,,,,,,,,,,,,,,,
298288,2022-11-29_11h15.20.872,vts_reward_expectancy_bt,2022.2.4,Win32,59.93048064,Chrome,1536,864,,,,,0,594,,,,,,,,,,,,,,,,,132,B,star,1,0,,,,,,,,,,,,,,,,switch,letter,lettSwt,j,0.5503,noRew,,,,,,0,32,0,32,0,1,,,,,,,,,,,,,,,,,
298288,2022-11-29_11h15.20.872,vts_reward_expectancy_bt,2022.2.4,Win32,59.93048064,Chrome,1536,864,,,,,0,594,,,,,,,,,,,,,,,,,181,Y,circle,1,0,,,,,,,,,,,,,,,,switch,number,numSwt,f,0.7335,noRew,,,,,,0,33,0,33,0,1,,,,,,,,,,,,,,,,,
298288,2022-11-29_11h15.20.872,vts_reward_expectancy_bt,2022.2.4,Win32,59.93048064,Chrome,1536,864,,,,,0,594,,,,,,,,,,,,,,,,,125,S,hexagon,1,0,,,,,,,,,,,,,,,,switch,letter,lettSwt,k,0.667,noRew,,,,,,0,34,0,34,0,1,,,,,,,,,,,,,,,,,
298288,2022-11-29_11h15.20.872,vts_reward_expectancy_bt,2022.2.4,Win32,59.93048064,Chrome,1536,864,,,,,0,594,,,,,,,,,,,,,,,,,174,F,triangle,1,0,,,,,,,,,,,,,,,,repeat,letter,lettRpt,j,0.8175,noRew,,,,,,0,35,0,35,0,1,,,,,,,,,,,,,,,,,
298288,2022-11-29_11h15.20.872,vts_reward_expectancy_bt,2022.2.4,Win32,59.93048064,Chrome,1536,864,,,,,0,594,,,,,,,,,,,,,,,,,174,F,star,1,0,,,,,,,,,,,,,,,,switch,number,numSwt,f,0.7674,noRew,,,,,,0,36,0,36,0,1,,,,,,,,,,,,,,,,,
298288,2022-11-29_11h15.20.872,vts_reward_expectancy_bt,2022.2.4,Win32,59.93048064,Chrome,1536,864,,,,,0,594,,,,,,,,,,,,,,,,,125,D,circle,1,0,,,,,,,,,,,,,,,,switch,letter,lettSwt,j,0.634,noRew,,,,,,0,37,0,37,0,1,,,,,,,,,,,,,,,,,
298288,2022-11-29_11h15.20.872,vts_reward_expectancy_bt,2022.2.4,Win32,59.93048064,Chrome,1536,864,,,,,0,594,,,,,,,,,,,,,,,,,160,W,triangle,1,0,,,,,,,,,,,,,,,,switch,number,numSwt,f,0.8342,noRew,,,,,,0,38,0,38,0,1,,,,,,,,,,,,,,,,,
298288,2022-11-29_11h15.20.872,vts_reward_expectancy_bt,2022.2.4,Win32,59.93048064,Chrome,1536,864,,,,,0,594,,,,,,,,,,,,,,,,,146,B,circle,1,0,,,,,,,,,,,,,,,,switch,letter,lettSwt,j,0.8842,noRew,,,,,,0,39,0,39,0,1,,,,,,,,,,,,,,,,,
298288,2022-11-29_11h15.20.872,vts_reward_expectancy_bt,2022.2.4,Win32,59.93048064,Chrome,1536,864,,,,,0,594,,,,,,,,,,,,,,,,,132,Y,triangle,1,0,,,,,,,,,,,,,,,,switch,number,numSwt,d,0.7842,noRew,,,,,,0,40,0,40,0,1,,,,,,,,,,,,,,,,,
298288,2022-11-29_11h15.20.872,vts_reward_expectancy_bt,2022.2.4,Win32,59.93048064,Chrome,1536,864,,,,,0,594,,,,,,,,,,,,,,,,,181,S,hexagon,1,0,,,,,,,,,,,,,,,,switch,letter,lettSwt,k,0.6834,noRew,,,,,,0,41,0,41,0,1,,,,,,,,,,,,,,,,,
298288,2022-11-29_11h15.20.872,vts_reward_expectancy_bt,2022.2.4,Win32,59.93048064,Chrome,1536,864,,,,,0,594,,,,,,,,,,,,,,,,,146,D,triangle,1,0,,,,,,,,,,,,,,,,switch,number,numSwt,d,0.7167,noRew,,,,,,0,42,0,42,0,1,,,,,,,,,,,,,,,,,
298288,2022-11-29_11h15.20.872,vts_reward_expectancy_bt,2022.2.4,Win32,59.93048064,Chrome,1536,864,,,,,0,594,,,,,,,,,,,,,,,,,139,B,star,1,0,,,,,,,,,,,,,,,,switch,letter,lettSwt,j,0.517,noRew,,,,,,0,43,0,43,0,1,,,,,,,,,,,,,,,,,
298288,2022-11-29_11h15.20.872,vts_reward_expectancy_bt,2022.2.4,Win32,59.93048064,Chrome,1536,864,,,,,0,594,,,,,,,,,,,,,,,,,167,B,circle,1,0,,,,,,,,,,,,,,,,switch,number,numSwt,f,0.8343,noRew,,,,,,0,44,0,44,0,1,,,,,,,,,,,,,,,,,
298288,2022-11-29_11h15.20.872,vts_reward_expectancy_bt,2022.2.4,Win32,59.93048064,Chrome,1536,864,,,,,0,594,,,,,,,,,,,,,,,,,181,S,hexagon,1,0,,,,,,,,,,,,,,,,switch,letter,lettSwt,k,0.4506,noRew,,,,,,0,45,0,45,0,1,,,,,,,,,,,,,,,,,
298288,2022-11-29_11h15.20.872,vts_reward_expectancy_bt,2022.2.4,Win32,59.93048064,Chrome,1536,864,,,,,0,594,,,,,,,,,,,,,,,,,160,F,triangle,1,0,,,,,,,,,,,,,,,,switch,number,numSwt,f,0.684,noRew,,,,,,0,46,0,46,0,1,,,,,,,,,,,,,,,,,
298288,2022-11-29_11h15.20.872,vts_reward_expectancy_bt,2022.2.4,Win32,59.93048064,Chrome,1536,864,,,,,0,594,,,,,,,,,,,,,,,,,174,U,circle,1,0,,,,,,,,,,,,,,,,switch,letter,lettSwt,k,0.7836,noRew,,,,,,0,47,0,47,0,1,,,,,,,,,,,,,,,,,
298288,2022-11-29_11h15.20.872,vts_reward_expectancy_bt,2022.2.4,Win32,59.93048064,Chrome,1536,864,,,,,0,594,,,,,,,,,,,,,,,,,132,U,hexagon,1,0,,,,,,,,,,,,,,,,switch,number,numSwt,d,0.984,noRew,,,,,,0,48,0,48,0,1,,,,,,,,,,,,,,,,,
298288,2022-11-29_11h15.20.872,vts_reward_expectancy_bt,2022.2.4,Win32,59.93048064,Chrome,1536,864,,,,,0,594,,,,,,,,,,,,,,,,,125,D,circle,1,0,,,,,,,,,,,,,,,,switch,letter,lettSwt,j,0.6169,noRew,,,,,,0,49,0,49,0,1,,,,,,,,,,,,,,,,,
298288,2022-11-29_11h15.20.872,vts_reward_expectancy_bt,2022.2.4,Win32,59.93048064,Chrome,1536,864,,,,,0,594,,,,,,,,,,,,,,,,,174,Y,star,1,0,,,,,,,,,,,,,,,,switch,number,numSwt,f,0.7841,noRew,,,,,,0,50,0,50,0,1,,,,,,,,,,,,,,,,,
298288,2022-11-29_11h15.20.872,vts_reward_expectancy_bt,2022.2.4,Win32,59.93048064,Chrome,1536,864,,,,,0,594,,,,,,,,,,,,,,,,,146,W,triangle,1,0,,,,,,,,,,,,,,,,switch,letter,lettSwt,k,0.6674,noRew,,,,,,0,51,0,51,0,1,,,,,,,,,,,,,,,,,
298288,2022-11-29_11h15.20.872,vts_reward_expectancy_bt,2022.2.4,Win32,59.93048064,Chrome,1536,864,,,,,0,594,,,,,,,,,,,,,,,,,146,W,hexagon,1,0,,,,,,,,,,,,,,,,switch,number,numSwt,d,0.8508,noRew,,,,,,0,52,0,52,0,1,,,,,,,,,,,,,,,,,
298288,2022-11-29_11h15.20.872,vts_reward_expectancy_bt,2022.2.4,Win32,59.93048064,Chrome,1536,864,,,,,0,594,,,,,,,,,,,,,,,,,181,S,triangle,1,0,,,,,,,,,,,,,,,,switch,letter,lettSwt,k,1.0341,noRew,,,,,,0,53,0,53,0,1,,,,,,,,,,,,,,,,,
298288,2022-11-29_11h15.20.872,vts_reward_expectancy_bt,2022.2.4,Win32,59.93048064,Chrome,1536,864,,,,,0,594,,,,,,,,,,,,,,,,,174,F,circle,1,0,,,,,,,,,,,,,,,,switch,number,numSwt,f,0.8339,noRew,,,,,,0,54,0,54,0,1,,,,,,,,,,,,,,,,,
298288,2022-11-29_11h15.20.872,vts_reward_expectancy_bt,2022.2.4,Win32,59.93048064,Chrome,1536,864,,,,,0,594,,,,,,,,,,,,,,,,,167,Y,hexagon,1,0,,,,,,,,,,,,,,,,switch,letter,lettSwt,k,0.5338,noRew,,,,,,0,55,0,55,0,1,,,,,,,,,,,,,,,,,
298288,2022-11-29_11h15.20.872,vts_reward_expectancy_bt,2022.2.4,Win32,59.93048064,Chrome,1536,864,,,,,0,594,,,,,,,,,,,,,,,,,139,F,hexagon,1,0,,,,,,,,,,,,,,,,switch,number,numSwt,d,0.6004,noRew,,,,,,0,56,0,56,0,1,,,,,,,,,,,,,,,,,
298288,2022-11-29_11h15.20.872,vts_reward_expectancy_bt,2022.2.4,Win32,59.93048064,Chrome,1536,864,,,,,0,594,,,,,,,,,,,,,,,,,125,S,star,1,0,,,,,,,,,,,,,,,,switch,letter,lettSwt,k,0.4509,noRew,,,,,,0,57,0,57,0,1,,,,,,,,,,,,,,,,,
298288,2022-11-29_11h15.20.872,vts_reward_expectancy_bt,2022.2.4,Win32,59.93048064,Chrome,1536,864,,,,,0,594,,,,,,,,,,,,,,,,,146,B,circle,1,0,,,,,,,,,,,,,,,,switch,number,numSwt,d,0.834,noRew,,,,,,0,58,0,58,0,1,,,,,,,,,,,,,,,,,
298288,2022-11-29_11h15.20.872,vts_reward_expectancy_bt,2022.2.4,Win32,59.93048064,Chrome,1536,864,,,,,0,594,,,,,,,,,,,,,,,,,160,U,star,1,0,,,,,,,,,,,,,,,,switch,letter,lettSwt,k,0.8839,noRew,,,,,,0,59,0,59,0,1,,,,,,,,,,,,,,,,,
298288,2022-11-29_11h15.20.872,vts_reward_expectancy_bt,2022.2.4,Win32,59.93048064,Chrome,1536,864,,,,,0,594,,,,,,,,,,,,,,,,,125,F,star,1,0,,,,,,,,,,,,,,,,switch,number,numSwt,d,0.7004,noRew,,,,,,0,60,0,60,0,1,,,,,,,,,,,,,,,,,
298288,2022-11-29_11h15.20.872,vts_reward_expectancy_bt,2022.2.4,Win32,59.93048064,Chrome,1536,864,,,,,0,594,,,,,,,,,,,,,,,,,167,Y,hexagon,1,0,,,,,,,,,,,,,,,,switch,letter,lettSwt,k,0.6839,noRew,,,,,,0,61,0,61,0,1,,,,,,,,,,,,,,,,,
298288,2022-11-29_11h15.20.872,vts_reward_expectancy_bt,2022.2.4,Win32,59.93048064,Chrome,1536,864,,,,,0,594,,,,,,,,,,,,,,,,,160,B,triangle,1,0,,,,,,,,,,,,,,,,switch,number,numSwt,f,1.2839,noRew,,,,,,0,62,0,62,0,1,,,,,,,,,,,,,,,,,
298288,2022-11-29_11h15.20.872,vts_reward_expectancy_bt,2022.2.4,Win32,59.93048064,Chrome,1536,864,,,,,0,594,,,,,,,,,,,,,,,,,146,W,star,1,0,,,,,,,,,,,,,,,,switch,letter,lettSwt,k,0.7675,noRew,,,,,,0,63,0,63,0,1,,,,,,,,,,,,,,,,,
298288,2022-11-29_11h15.20.872,vts_reward_expectancy_bt,2022.2.4,Win32,59.93048064,Chrome,1536,864,,,,,,,,,,,,,,,,,,,,,,,,,,,,,,,,,,,,,,,,,,,,,,,,,,,,,,,,,,,,,,,,,,,,,,,,,,,,
298288,2022-11-29_11h15.20.872,vts_reward_expectancy_bt,2022.2.4,Win32,59.93048064,Chrome,1536,864,,,,,1,595,,,,,,,,,,,,,,,,,125,B,circle,1,0,,,,,,,,,,,,,,,,switch,number,numSwt,d,0.6639,Lo,,,,,,0,,,,,,space,9.3547,low,0,0,0,0,1,,,,,,,,,
298288,2022-11-29_11h15.20.872,vts_reward_expectancy_bt,2022.2.4,Win32,59.93048064,Chrome,1536,864,,,,,10,605,,,,,,,,,,,,,,,,,160,U,triangle,1,0,,,,,,,,,,,,,,,,repeat,number,numRpt,f,0.4502,Lo,,,,,,0,,,,,,,,low,1,0,1,0,1,,,,,,,,,
298288,2022-11-29_11h15.20.872,vts_reward_expectancy_bt,2022.2.4,Win32,59.93048064,Chrome,1536,864,,,,,1,606,,,,,,,,,,,,,,,,,181,H,star,1,0,,,,,,,,,,,,,,,,switch,letter,lettSwt,j,0.5172,Hi,,,,,,0,,,,,,,,low,2,0,2,0,1,,,,,,,,,
298288,2022-11-29_11h15.20.872,vts_reward_expectancy_bt,2022.2.4,Win32,59.93048064,Chrome,1536,864,,,,,10,616,,,,,,,,,,,,,,,,,174,S,hexagon,1,0,,,,,,,,,,,,,,,,switch,number,numSwt,f,0.5505,Hi,,,,,,0,,,,,,,,low,3,0,3,0,1,,,,,,,,,
298288,2022-11-29_11h15.20.872,vts_reward_expectancy_bt,2022.2.4,Win32,59.93048064,Chrome,1536,864,,,,,1,617,,,,,,,,,,,,,,,,,146,Y,circle,1,0,,,,,,,,,,,,,,,,switch,letter,lettSwt,k,0.3502,Lo,,,,,,0,,,,,,,,low,4,0,4,0,1,,,,,,,,,
298288,2022-11-29_11h15.20.872,vts_reward_expectancy_bt,2022.2.4,Win32,59.93048064,Chrome,1536,864,,,,,1,618,,,,,,,,,,,,,,,,,139,F,triangle,1,0,,,,,,,,,,,,,,,,repeat,letter,lettRpt,j,0.6002,Lo,,,,,,0,,,,,,,,low,5,0,5,0,1,,,,,,,,,
298288,2022-11-29_11h15.20.872,vts_reward_expectancy_bt,2022.2.4,Win32,59.93048064,Chrome,1536,864,,,,,0,618,,,,,,,,,,,,,,,,,132,D,star,1,0,,,,,,,,,,,,,,,,switch,number,numSwt,d,0.934,Hi,,,,,,0,,,,,,,,low,6,0,6,0,1,,,,,,,,,
298288,2022-11-29_11h15.20.872,vts_reward_expectancy_bt,2022.2.4,Win32,59.93048064,Chrome,1536,864,,,,,10,628,,,,,,,,,,,,,,,,,167,W,hexagon,1,0,,,,,,,,,,,,,,,,switch,letter,lettSwt,k,0.5171,Hi,,,,,,0,,,,,,,,low,7,0,7,0,1,,,,,,,,,
298288,2022-11-29_11h15.20.872,vts_reward_expectancy_bt,2022.2.4,Win32,59.93048064,Chrome,1536,864,,,,,10,638,,,,,,,,,,,,,,,,,125,B,star,1,0,,,,,,,,,,,,,,,,repeat,letter,lettRpt,j,0.5338,Hi,,,,,,0,,,,,,,,low,8,0,8,0,1,,,,,,,,,
298288,2022-11-29_11h15.20.872,vts_reward_expectancy_bt,2022.2.4,Win32,59.93048064,Chrome,1536,864,,,,,10,648,,,,,,,,,,,,,,,,,160,U,circle,1,0,,,,,,,,,,,,,,,,switch,number,numSwt,f,0.6005,Lo,,,,,,0,,,,,,,,low,9,0,9,0,1,,,,,,,,,
298288,2022-11-29_11h15.20.872,vts_reward_expectancy_bt,2022.2.4,Win32,59.93048064,Chrome,1536,864,,,,,0,648,,,,,,,,,,,,,,,,,181,H,triangle,0,0,,,,,,,,,,,,,,,,switch,letter,NA,k,0.417,Lo,,,,,,0,,,,,,,,low,10,0,10,0,1,,,,,,,,,
298288,2022-11-29_11h15.20.872,vts_reward_expectancy_bt,2022.2.4,Win32,59.93048064,Chrome,1536,864,,,,,1,649,,,,,,,,,,,,,,,,,174,S,hexagon,1,1,,,,,,,,,,,,,,,,repeat,letter,lettRpt,k,0.4506,Hi,,,,,,0,,,,,,,,low,11,0,11,0,1,,,,,,,,,
298288,2022-11-29_11h15.20.872,vts_reward_expectancy_bt,2022.2.4,Win32,59.93048064,Chrome,1536,864,,,,,0,649,,,,,,,,,,,,,,,,,146,Y,hexagon,0,0,,,,,,,,,,,,,,,,repeat,letter,NA,j,0.4833,Hi,,,,,,0,,,,,,,,low,12,0,12,0,1,,,,,,,,,
298288,2022-11-29_11h15.20.872,vts_reward_expectancy_bt,2022.2.4,Win32,59.93048064,Chrome,1536,864,,,,,1,650,,,,,,,,,,,,,,,,,139,F,circle,1,1,,,,,,,,,,,,,,,,switch,number,numSwt,d,0.6175,Lo,,,,,,0,,,,,,,,low,13,0,13,0,1,,,,,,,,,
298288,2022-11-29_11h15.20.872,vts_reward_expectancy_bt,2022.2.4,Win32,59.93048064,Chrome,1536,864,,,,,0,650,,,,,,,,,,,,,,,,,132,D,star,1,0,,,,,,,,,,,,,,,,switch,letter,lettSwt,j,0.5839,Hi,,,,,,0,,,,,,,,low,14,0,14,0,1,,,,,,,,,
298288,2022-11-29_11h15.20.872,vts_reward_expectancy_bt,2022.2.4,Win32,59.93048064,Chrome,1536,864,,,,,10,660,,,,,,,,,,,,,,,,,167,W,triangle,1,0,,,,,,,,,,,,,,,,switch,number,numSwt,f,0.4839,Lo,,,,,,0,,,,,,,,low,15,0,15,0,1,,,,,,,,,
298288,2022-11-29_11h15.20.872,vts_reward_expectancy_bt,2022.2.4,Win32,59.93048064,Chrome,1536,864,,,,,10,670,,,,,,,,,,,,,,,,,146,Y,circle,1,0,,,,,,,,,,,,,,,,switch,letter,lettSwt,k,0.3338,Lo,,,,,,0,,,,,,,,low,16,0,16,0,1,,,,,,,,,
298288,2022-11-29_11h15.20.872,vts_reward_expectancy_bt,2022.2.4,Win32,59.93048064,Chrome,1536,864,,,,,1,671,,,,,,,,,,,,,,,,,139,W,triangle,1,0,,,,,,,,,,,,,,,,switch,number,numSwt,d,0.5345,Lo,,,,,,0,,,,,,,,low,17,0,17,0,1,,,,,,,,,
298288,2022-11-29_11h15.20.872,vts_reward_expectancy_bt,2022.2.4,Win32,59.93048064,Chrome,1536,864,,,,,10,681,,,,,,,,,,,,,,,,,174,B,star,1,0,,,,,,,,,,,,,,,,switch,letter,lettSwt,j,0.5169,Hi,,,,,,0,,,,,,,,low,18,0,18,0,1,,,,,,,,,
298288,2022-11-29_11h15.20.872,vts_reward_expectancy_bt,2022.2.4,Win32,59.93048064,Chrome,1536,864,,,,,10,691,,,,,,,,,,,,,,,,,125,U,hexagon,1,0,,,,,,,,,,,,,,,,repeat,letter,lettRpt,k,0.4673,Hi,,,,,,0,,,,,,,,low,19,0,19,0,1,,,,,,,,,
298288,2022-11-29_11h15.20.872,vts_reward_expectancy_bt,2022.2.4,Win32,59.93048064,Chrome,1536,864,,,,,1,692,,,,,,,,,,,,,,,,,160,S,circle,1,0,,,,,,,,,,,,,,,,repeat,letter,lettRpt,k,0.4674,Lo,,,,,,0,,,,,,,,low,20,0,20,0,1,,,,,,,,,
298288,2022-11-29_11h15.20.872,vts_reward_expectancy_bt,2022.2.4,Win32,59.93048064,Chrome,1536,864,,,,,0,692,,,,,,,,,,,,,,,,,181,H,hexagon,0,0,,,,,,,,,,,,,,,,switch,number,NA,d,0.4171,Lo,,,,,,0,,,,,,,,low,21,0,21,0,1,,,,,,,,,
298288,2022-11-29_11h15.20.872,vts_reward_expectancy_bt,2022.2.4,Win32,59.93048064,Chrome,1536,864,,,,,1,693,,,,,,,,,,,,,,,,,167,F,triangle,1,1,,,,,,,,,,,,,,,,repeat,number,numRpt,f,0.5171,Lo,,,,,,0,,,,,,,,low,22,0,22,0,1,,,,,,,,,
298288,2022-11-29_11h15.20.872,vts_reward_expectancy_bt,2022.2.4,Win32,59.93048064,Chrome,1536,864,,,,,1,694,,,,,,,,,,,,,,,,,132,D,star,1,0,,,,,,,,,,,,,,,,repeat,number,numRpt,d,0.6,Hi,,,,,,0,,,,,,,,low,23,0,23,0,1,,,,,,,,,
298288,2022-11-29_11h15.20.872,vts_reward_expectancy_bt,2022.2.4,Win32,59.93048064,Chrome,1536,864,,,,,0,694,,,,,,,,,,,,,,,,,146,W,star,0,0,,,,,,,,,,,,,,,,repeat,number,NA,f,0.6168,Hi,,,,,,0,,,,,,,,low,24,0,24,0,1,,,,,,,,,
298288,2022-11-29_11h15.20.872,vts_reward_expectancy_bt,2022.2.4,Win32,59.93048064,Chrome,1536,864,,,,,1,695,,,,,,,,,,,,,,,,,132,S,circle,1,1,,,,,,,,,,,,,,,,repeat,number,numRpt,d,0.5505,Lo,,,,,,0,,,,,,,,low,25,0,25,0,1,,,,,,,,,
298288,2022-11-29_11h15.20.872,vts_reward_expectancy_bt,2022.2.4,Win32,59.93048064,Chrome,1536,864,,,,,10,705,,,,,,,,,,,,,,,,,139,Y,hexagon,1,0,,,,,,,,,,,,,,,,repeat,number,numRpt,d,0.4837,Hi,,,,,,0,,,,,,,,low,26,0,26,0,1,,,,,,,,,
298288,2022-11-29_11h15.20.872,vts_reward_expectancy_bt,2022.2.4,Win32,59.93048064,Chrome,1536,864,,,,,1,706,,,,,,,,,,,,,,,,,167,U,triangle,1,0,,,,,,,,,,,,,,,,repeat,number,numRpt,f,0.4005,Lo,,,,,,0,,,,,,,,low,27,0,27,0,1,,,,,,,,,
298288,2022-11-29_11h15.20.872,vts_reward_expectancy_bt,2022.2.4,Win32,59.93048064,Chrome,1536,864,,,,,10,716,,,,,,,,,,,,,,,,,160,D,star,1,0,,,,,,,,,,,,,,,,switch,letter,lettSwt,j,0.4504,Hi,,,,,,0,,,,,,,,low,28,0,28,0,1,,,,,,,,,
298288,2022-11-29_11h15.20.872,vts_reward_expectancy_bt,2022.2.4,Win32,59.93048064,Chrome,1536,864,,,,,0,716,,,,,,,,,,,,,,,,,174,F,hexagon,0,0,,,,,,,,,,,,,,,,repeat,letter,NA,k,0.5,Hi,,,,,,0,,,,,,,,low,29,0,29,0,1,,,,,,,,,
298288,2022-11-29_11h15.20.872,vts_reward_expectancy_bt,2022.2.4,Win32,59.93048064,Chrome,1536,864,,,,,1,717,,,,,,,,,,,,,,,,,125,B,triangle,1,1,,,,,,,,,,,,,,,,switch,number,numSwt,d,0.5506,Lo,,,,,,0,,,,,,,,low,30,0,30,0,1,,,,,,,,,
298288,2022-11-29_11h15.20.872,vts_reward_expectancy_bt,2022.2.4,Win32,59.93048064,Chrome,1536,864,,,,,10,727,,,,,,,,,,,,,,,,,181,H,circle,1,0,,,,,,,,,,,,,,,,switch,letter,lettSwt,j,0.4505,Lo,,,,,,0,,,,,,,,low,31,0,31,0,1,,,,,,,,,
298288,2022-11-29_11h15.20.872,vts_reward_expectancy_bt,2022.2.4,Win32,59.93048064,Chrome,1536,864,,,,,0,727,,,,,,,,,,,,,,,,,160,H,star,1,0,,,,,,,,,,,,,,,,repeat,letter,lettRpt,j,0.6169,Hi,,,,,,1,,,,,,space,4.3857,low,0,0,0,0,1,,,,,,,,,
298288,2022-11-29_11h15.20.872,vts_reward_expectancy_bt,2022.2.4,Win32,59.93048064,Chrome,1536,864,,,,,1,728,,,,,,,,,,,,,,,,,174,U,circle,1,0,,,,,,,,,,,,,,,,repeat,letter,lettRpt,k,0.4336,Lo,,,,,,1,,,,,,,,low,1,0,1,0,1,,,,,,,,,
298288,2022-11-29_11h15.20.872,vts_reward_expectancy_bt,2022.2.4,Win32,59.93048064,Chrome,1536,864,,,,,10,738,,,,,,,,,,,,,,,,,146,B,hexagon,1,0,,,,,,,,,,,,,,,,repeat,letter,lettRpt,j,0.4171,Hi,,,,,,1,,,,,,,,low,2,0,2,0,1,,,,,,,,,
298288,2022-11-29_11h15.20.872,vts_reward_expectancy_bt,2022.2.4,Win32,59.93048064,Chrome,1536,864,,,,,1,739,,,,,,,,,,,,,,,,,139,Y,triangle,1,0,,,,,,,,,,,,,,,,switch,number,numSwt,d,0.634,Lo,,,,,,1,,,,,,,,low,3,0,3,0,1,,,,,,,,,
298288,2022-11-29_11h15.20.872,vts_reward_expectancy_bt,2022.2.4,Win32,59.93048064,Chrome,1536,864,,,,,1,740,,,,,,,,,,,,,,,,,181,S,star,1,0,,,,,,,,,,,,,,,,repeat,number,numRpt,f,0.3341,Hi,,,,,,1,,,,,,,,low,4,0,4,0,1,,,,,,,,,
298288,2022-11-29_11h15.20.872,vts_reward_expectancy_bt,2022.2.4,Win32,59.93048064,Chrome,1536,864,,,,,1,741,,,,,,,,,,,,,,,,,125,W,circle,1,0,,,,,,,,,,,,,,,,repeat,number,numRpt,d,0.3837,Lo,,,,,,1,,,,,,,,low,5,0,5,0,1,,,,,,,,,
298288,2022-11-29_11h15.20.872,vts_reward_expectancy_bt,2022.2.4,Win32,59.93048064,Chrome,1536,864,,,,,10,751,,,,,,,,,,,,,,,,,132,F,hexagon,1,0,,,,,,,,,,,,,,,,switch,letter,lettSwt,j,0.4001,Hi,,,,,,1,,,,,,,,low,6,0,6,0,1,,,,,,,,,
298288,2022-11-29_11h15.20.872,vts_reward_expectancy_bt,2022.2.4,Win32,59.93048064,Chrome,1536,864,,,,,1,752,,,,,,,,,,,,,,,,,167,D,triangle,1,0,,,,,,,,,,,,,,,,repeat,letter,lettRpt,j,0.5505,Lo,,,,,,1,,,,,,,,low,7,0,7,0,1,,,,,,,,,
298288,2022-11-29_11h15.20.872,vts_reward_expectancy_bt,2022.2.4,Win32,59.93048064,Chrome,1536,864,,,,,1,753,,,,,,,,,,,,,,,,,160,H,triangle,1,0,,,,,,,,,,,,,,,,switch,number,numSwt,f,0.3832,Lo,,,,,,1,,,,,,,,low,8,0,8,0,1,,,,,,,,,
298288,2022-11-29_11h15.20.872,vts_reward_expectancy_bt,2022.2.4,Win32,59.93048064,Chrome,1536,864,,,,,0,753,,,,,,,,,,,,,,,,,174,U,hexagon,0,0,,,,,,,,,,,,,,,,switch,letter,NA,j,0.3337,Lo,,,,,,1,,,,,,,,low,9,0,9,0,1,,,,,,,,,
298288,2022-11-29_11h15.20.872,vts_reward_expectancy_bt,2022.2.4,Win32,59.93048064,Chrome,1536,864,,,,,10,763,,,,,,,,,,,,,,,,,146,B,star,1,1,,,,,,,,,,,,,,,,repeat,letter,lettRpt,j,0.3505,Hi,,,,,,1,,,,,,,,low,10,0,10,0,1,,,,,,,,,
298288,2022-11-29_11h15.20.872,vts_reward_expectancy_bt,2022.2.4,Win32,59.93048064,Chrome,1536,864,,,,,0,763,,,,,,,,,,,,,,,,,139,Y,circle,0,0,,,,,,,,,,,,,,,,switch,number,NA,f,0.4005,Hi,,,,,,1,,,,,,,,low,11,0,11,0,1,,,,,,,,,
298288,2022-11-29_11h15.20.872,vts_reward_expectancy_bt,2022.2.4,Win32,59.93048064,Chrome,1536,864,,,,,0,763,,,,,,,,,,,,,,,,,181,S,hexagon,1,1,,,,,,,,,,,,,,,,switch,letter,lettSwt,k,0.5168,Hi,,,,,,1,,,,,,,,low,12,0,12,0,1,,,,,,,,,
298288,2022-11-29_11h15.20.872,vts_reward_expectancy_bt,2022.2.4,Win32,59.93048064,Chrome,1536,864,,,,,1,764,,,,,,,,,,,,,,,,,125,W,circle,1,0,,,,,,,,,,,,,,,,repeat,letter,lettRpt,k,0.434,Lo,,,,,,1,,,,,,,,low,13,0,13,0,1,,,,,,,,,
298288,2022-11-29_11h15.20.872,vts_reward_expectancy_bt,2022.2.4,Win32,59.93048064,Chrome,1536,864,,,,,1,765,,,,,,,,,,,,,,,,,132,F,triangle,1,0,,,,,,,,,,,,,,,,switch,number,numSwt,d,0.4006,Lo,,,,,,1,,,,,,,,low,14,0,14,0,1,,,,,,,,,
298288,2022-11-29_11h15.20.872,vts_reward_expectancy_bt,2022.2.4,Win32,59.93048064,Chrome,1536,864,,,,,0,765,,,,,,,,,,,,,,,,,167,D,star,0,0,,,,,,,,,,,,,,,,repeat,number,NA,d,0.3505,Lo,,,,,,1,,,,,,,,low,15,0,15,0,1,,,,,,,,,
298288,2022-11-29_11h15.20.872,vts_reward_expectancy_bt,2022.2.4,Win32,59.93048064,Chrome,1536,864,,,,,0,765,,,,,,,,,,,,,,,,,167,U,hexagon,1,1,,,,,,,,,,,,,,,,repeat,number,numRpt,f,0.4838,Hi,,,,,,1,,,,,,,,low,16,0,16,0,1,,,,,,,,,
298288,2022-11-29_11h15.20.872,vts_reward_expectancy_bt,2022.2.4,Win32,59.93048064,Chrome,1536,864,,,,,0,765,,,,,,,,,,,,,,,,,160,B,star,0,0,,,,,,,,,,,,,,,,switch,letter,NA,k,0.4336,Hi,,,,,,1,,,,,,,,low,17,0,17,0,1,,,,,,,,,
298288,2022-11-29_11h15.20.872,vts_reward_expectancy_bt,2022.2.4,Win32,59.93048064,Chrome,1536,864,,,,,10,775,,,,,,,,,,,,,,,,,132,D,circle,1,1,,,,,,,,,,,,,,,,repeat,letter,lettRpt,j,0.5675,Lo,,,,,,1,,,,,,,,low,18,0,18,0,1,,,,,,,,,
298288,2022-11-29_11h15.20.872,vts_reward_expectancy_bt,2022.2.4,Win32,59.93048064,Chrome,1536,864,,,,,0,775,,,,,,,,,,,,,,,,,125,Y,triangle,0,0,,,,,,,,,,,,,,,,repeat,letter,NA,j,0.5839,Lo,,,,,,1,,,,,,,,low,19,0,19,0,1,,,,,,,,,
298288,2022-11-29_11h15.20.872,vts_reward_expectancy_bt,2022.2.4,Win32,59.93048064,Chrome,1536,864,,,,,10,785,,,,,,,,,,,,,,,,,181,F,circle,1,1,,,,,,,,,,,,,,,,switch,number,numSwt,f,0.4346,Lo,,,,,,1,,,,,,,,low,20,0,20,0,1,,,,,,,,,
298288,2022-11-29_11h15.20.872,vts_reward_expectancy_bt,2022.2.4,Win32,59.93048064,Chrome,1536,864,,,,,1,786,,,,,,,,,,,,,,,,,174,S,hexagon,1,0,,,,,,,,,,,,,,,,switch,letter,lettSwt,k,0.4339,Hi,,,,,,1,,,,,,,,low,21,0,21,0,1,,,,,,,,,
298288,2022-11-29_11h15.20.872,vts_reward_expectancy_bt,2022.2.4,Win32,59.93048064,Chrome,1536,864,,,,,0,786,,,,,,,,,,,,,,,,,146,W,triangle,0,0,,,,,,,,,,,,,,,,repeat,letter,NA,j,0.3669,Hi,,,,,,1,,,,,,,,low,22,0,22,0,1,,,,,,,,,
298288,2022-11-29_11h15.20.872,vts_reward_expectancy_bt,2022.2.4,Win32,59.93048064,Chrome,1536,864,,,,,0,786,,,,,,,,,,,,,,,,,139,H,star,1,1,,,,,,,,,,,,,,,,repeat,letter,lettRpt,j,0.6006,Hi,,,,,,1,,,,,,,,low,23,0,23,0,1,,,,,,,,,
298288,2022-11-29_11h15.20.872,vts_reward_expectancy_bt,2022.2.4,Win32,59.93048064,Chrome,1536,864,,,,,0,786,,,,,,,,,,,,,,,,,125,S,star,0,0,,,,,,,,,,,,,,,,switch,number,NA,f,0.4671,Hi,,,,,,1,,,,,,,,low,24,0,24,0,1,,,,,,,,,
298288,2022-11-29_11h15.20.872,vts_reward_expectancy_bt,2022.2.4,Win32,59.93048064,Chrome,1536,864,,,,,10,796,,,,,,,,,,,,,,,,,139,D,triangle,1,1,,,,,,,,,,,,,,,,switch,letter,lettSwt,j,0.9342,Lo,,,,,,1,,,,,,,,low,25,0,25,0,1,,,,,,,,,
298288,2022-11-29_11h15.20.872,vts_reward_expectancy_bt,2022.2.4,Win32,59.93048064,Chrome,1536,864,,,,,0,796,,,,,,,,,,,,,,,,,146,F,circle,0,0,,,,,,,,,,,,,,,,switch,number,NA,f,0.4505,Lo,,,,,,1,,,,,,,,low,26,0,26,0,1,,,,,,,,,
298288,2022-11-29_11h15.20.872,vts_reward_expectancy_bt,2022.2.4,Win32,59.93048064,Chrome,1536,864,,,,,1,797,,,,,,,,,,,,,,,,,132,B,hexagon,1,1,,,,,,,,,,,,,,,,repeat,number,numRpt,d,0.4502,Hi,,,,,,1,,,,,,,,low,27,0,27,0,1,,,,,,,,,
298288,2022-11-29_11h15.20.872,vts_reward_expectancy_bt,2022.2.4,Win32,59.93048064,Chrome,1536,864,,,,,1,798,,,,,,,,,,,,,,,,,181,W,triangle,1,0,,,,,,,,,,,,,,,,repeat,number,numRpt,f,0.6009,Lo,,,,,,1,,,,,,,,low,28,0,28,0,1,,,,,,,,,
298288,2022-11-29_11h15.20.872,vts_reward_expectancy_bt,2022.2.4,Win32,59.93048064,Chrome,1536,864,,,,,1,799,,,,,,,,,,,,,,,,,167,Y,circle,1,0,,,,,,,,,,,,,,,,repeat,number,numRpt,f,0.7675,Lo,,,,,,1,,,,,,,,low,29,0,29,0,1,,,,,,,,,
298288,2022-11-29_11h15.20.872,vts_reward_expectancy_bt,2022.2.4,Win32,59.93048064,Chrome,1536,864,,,,,0,799,,,,,,,,,,,,,,,,,174,U,hexagon,0,0,,,,,,,,,,,,,,,,repeat,number,NA,d,0.4838,Lo,,,,,,1,,,,,,,,low,30,0,30,0,1,,,,,,,,,
298288,2022-11-29_11h15.20.872,vts_reward_expectancy_bt,2022.2.4,Win32,59.93048064,Chrome,1536,864,,,,,0,799,,,,,,,,,,,,,,,,,160,H,star,0,1,,,,,,,,,,,,,,,,repeat,number,NA,d,0.7506,Lo,,,,,,1,,,,,,,,low,31,0,31,0,1,,,,,,,,,
298288,2022-11-29_11h15.20.872,vts_reward_expectancy_bt,2022.2.4,Win32,59.93048064,Chrome,1536,864,,,,,1,800,,,,,,,,,,,,,,,,,125,W,triangle,1,1,,,,,,,,,,,,,,,,switch,letter,lettSwt,k,0.4502,Lo,,,,,,2,,,,,,space,0.7174,low,0,0,0,0,1,,,,,,,,,
298288,2022-11-29_11h15.20.872,vts_reward_expectancy_bt,2022.2.4,Win32,59.93048064,Chrome,1536,864,,,,,0,800,,,,,,,,,,,,,,,,,160,S,star,0,0,,,,,,,,,,,,,,,,repeat,letter,NA,j,0.5668,Lo,,,,,,2,,,,,,,,low,1,0,1,0,1,,,,,,,,,
298288,2022-11-29_11h15.20.872,vts_reward_expectancy_bt,2022.2.4,Win32,59.93048064,Chrome,1536,864,,,,,0,800,,,,,,,,,,,,,,,,,181,Y,hexagon,1,1,,,,,,,,,,,,,,,,repeat,letter,lettRpt,k,0.6503,Hi,,,,,,2,,,,,,,,low,2,0,2,0,1,,,,,,,,,
298288,2022-11-29_11h15.20.872,vts_reward_expectancy_bt,2022.2.4,Win32,59.93048064,Chrome,1536,864,,,,,10,810,,,,,,,,,,,,,,,,,174,B,circle,1,0,,,,,,,,,,,,,,,,repeat,letter,lettRpt,j,0.3834,Lo,,,,,,2,,,,,,,,low,3,0,3,0,1,,,,,,,,,
298288,2022-11-29_11h15.20.872,vts_reward_expectancy_bt,2022.2.4,Win32,59.93048064,Chrome,1536,864,,,,,10,820,,,,,,,,,,,,,,,,,132,D,triangle,1,0,,,,,,,,,,,,,,,,repeat,letter,lettRpt,j,0.4673,Lo,,,,,,2,,,,,,,,low,4,0,4,0,1,,,,,,,,,
298288,2022-11-29_11h15.20.872,vts_reward_expectancy_bt,2022.2.4,Win32,59.93048064,Chrome,1536,864,,,,,0,820,,,,,,,,,,,,,,,,,139,F,star,0,0,,,,,,,,,,,,,,,,repeat,letter,NA,k,0.4339,Lo,,,,,,2,,,,,,,,low,5,0,5,0,1,,,,,,,,,
298288,2022-11-29_11h15.20.872,vts_reward_expectancy_bt,2022.2.4,Win32,59.93048064,Chrome,1536,864,,,,,0,820,,,,,,,,,,,,,,,,,167,U,hexagon,1,1,,,,,,,,,,,,,,,,repeat,letter,lettRpt,k,0.5173,Hi,,,,,,2,,,,,,,,low,6,0,6,0,1,,,,,,,,,
298288,2022-11-29_11h15.20.872,vts_reward_expectancy_bt,2022.2.4,Win32,59.93048064,Chrome,1536,864,,,,,1,821,,,,,,,,,,,,,,,,,146,H,circle,1,0,,,,,,,,,,,,,,,,switch,number,numSwt,d,0.584,Lo,,,,,,2,,,,,,,,low,7,0,7,0,1,,,,,,,,,
298288,2022-11-29_11h15.20.872,vts_reward_expectancy_bt,2022.2.4,Win32,59.93048064,Chrome,1536,864,,,,,1,822,,,,,,,,,,,,,,,,,125,W,triangle,1,0,,,,,,,,,,,,,,,,repeat,number,numRpt,d,0.4504,Lo,,,,,,2,,,,,,,,low,8,0,8,0,1,,,,,,,,,
298288,2022-11-29_11h15.20.872,vts_reward_expectancy_bt,2022.2.4,Win32,59.93048064,Chrome,1536,864,,,,,1,823,,,,,,,,,,,,,,,,,160,S,circle,1,0,,,,,,,,,,,,,,,,repeat,number,numRpt,f,0.5836,Lo,,,,,,2,,,,,,,,low,9,0,9,0,1,,,,,,,,,
298288,2022-11-29_11h15.20.872,vts_reward_expectancy_bt,2022.2.4,Win32,59.93048064,Chrome,1536,864,,,,,0,823,,,,,,,,,,,,,,,,,181,Y,hexagon,1,0,,,,,,,,,,,,,,,,repeat,number,numRpt,f,0.6668,Hi,,,,,,2,,,,,,,,low,10,0,10,0,1,,,,,,,,,
298288,2022-11-29_11h15.20.872,vts_reward_expectancy_bt,2022.2.4,Win32,59.93048064,Chrome,1536,864,,,,,0,823,,,,,,,,,,,,,,,,,174,B,star,1,0,,,,,,,,,,,,,,,,switch,letter,lettSwt,j,0.8005,Hi,,,,,,2,,,,,,,,low,11,0,11,0,1,,,,,,,,,
298288,2022-11-29_11h15.20.872,vts_reward_expectancy_bt,2022.2.4,Win32,59.93048064,Chrome,1536,864,,,,,0,823,,,,,,,,,,,,,,,,,132,D,hexagon,1,0,,,,,,,,,,,,,,,,switch,number,numSwt,d,0.584,Hi,,,,,,2,,,,,,,,low,12,0,12,0,1,,,,,,,,,
298288,2022-11-29_11h15.20.872,vts_reward_expectancy_bt,2022.2.4,Win32,59.93048064,Chrome,1536,864,,,,,0,823,,,,,,,,,,,,,,,,,139,F,circle,0,0,,,,,,,,,,,,,,,,switch,letter,NA,k,0.4505,Hi,,,,,,2,,,,,,,,low,13,0,13,0,1,,,,,,,,,
298288,2022-11-29_11h15.20.872,vts_reward_expectancy_bt,2022.2.4,Win32,59.93048064,Chrome,1536,864,,,,,0,823,,,,,,,,,,,,,,,,,167,U,star,1,1,,,,,,,,,,,,,,,,switch,number,numSwt,f,0.6341,Hi,,,,,,2,,,,,,,,low,14,0,14,0,1,,,,,,,,,
298288,2022-11-29_11h15.20.872,vts_reward_expectancy_bt,2022.2.4,Win32,59.93048064,Chrome,1536,864,,,,,1,824,,,,,,,,,,,,,,,,,146,H,triangle,1,0,,,,,,,,,,,,,,,,switch,letter,lettSwt,j,0.3839,Lo,,,,,,2,,,,,,,,low,15,0,15,0,1,,,,,,,,,
298288,2022-11-29_11h15.20.872,vts_reward_expectancy_bt,2022.2.4,Win32,59.93048064,Chrome,1536,864,,,,,10,834,,,,,,,,,,,,,,,,,174,D,circle,1,0,,,,,,,,,,,,,,,,repeat,letter,lettRpt,j,0.4339,Lo,,,,,,2,,,,,,,,low,16,0,16,0,1,,,,,,,,,
298288,2022-11-29_11h15.20.872,vts_reward_expectancy_bt,2022.2.4,Win32,59.93048064,Chrome,1536,864,,,,,0,834,,,,,,,,,,,,,,,,,146,U,hexagon,1,0,,,,,,,,,,,,,,,,repeat,letter,lettRpt,k,0.4505,Hi,,,,,,2,,,,,,,,low,17,0,17,0,1,,,,,,,,,
298288,2022-11-29_11h15.20.872,vts_reward_expectancy_bt,2022.2.4,Win32,59.93048064,Chrome,1536,864,,,,,10,844,,,,,,,,,,,,,,,,,139,S,triangle,1,0,,,,,,,,,,,,,,,,repeat,letter,lettRpt,k,0.6174,Lo,,,,,,2,,,,,,,,low,18,0,18,0,1,,,,,,,,,
298288,2022-11-29_11h15.20.872,vts_reward_expectancy_bt,2022.2.4,Win32,59.93048064,Chrome,1536,864,,,,,0,844,,,,,,,,,,,,,,,,,160,F,star,1,0,,,,,,,,,,,,,,,,repeat,letter,lettRpt,j,0.7339,Hi,,,,,,2,,,,,,,,low,19,0,19,0,1,,,,,,,,,
298288,2022-11-29_11h15.20.872,vts_reward_expectancy_bt,2022.2.4,Win32,59.93048064,Chrome,1536,864,,,,,10,854,,,,,,,,,,,,,,,,,132,Y,star,1,0,,,,,,,,,,,,,,,,repeat,letter,lettRpt,k,0.4172,Hi,,,,,,2,,,,,,,,low,20,0,20,0,1,,,,,,,,,
298288,2022-11-29_11h15.20.872,vts_reward_expectancy_bt,2022.2.4,Win32,59.93048064,Chrome,1536,864,,,,,1,855,,,,,,,,,,,,,,,,,167,W,circle,1,0,,,,,,,,,,,,,,,,repeat,letter,lettRpt,k,0.5173,Lo,,,,,,2,,,,,,,,low,21,0,21,0,1,,,,,,,,,
298288,2022-11-29_11h15.20.872,vts_reward_expectancy_bt,2022.2.4,Win32,59.93048064,Chrome,1536,864,,,,,0,855,,,,,,,,,,,,,,,,,125,H,hexagon,1,0,,,,,,,,,,,,,,,,repeat,letter,lettRpt,j,0.484,Hi,,,,,,2,,,,,,,,low,22,0,22,0,1,,,,,,,,,
298288,2022-11-29_11h15.20.872,vts_reward_expectancy_bt,2022.2.4,Win32,59.93048064,Chrome,1536,864,,,,,0,855,,,,,,,,,,,,,,,,,181,B,triangle,0,0,,,,,,,,,,,,,,,,repeat,letter,NA,k,0.4339,Hi,,,,,,2,,,,,,,,low,23,0,23,0,1,,,,,,,,,
298288,2022-11-29_11h15.20.872,vts_reward_expectancy_bt,2022.2.4,Win32,59.93048064,Chrome,1536,864,,,,,10,865,,,,,,,,,,,,,,,,,174,H,triangle,1,1,,,,,,,,,,,,,,,,repeat,letter,lettRpt,j,0.6172,Lo,,,,,,2,,,,,,,,low,24,0,24,0,1,,,,,,,,,
298288,2022-11-29_11h15.20.872,vts_reward_expectancy_bt,2022.2.4,Win32,59.93048064,Chrome,1536,864,,,,,0,865,,,,,,,,,,,,,,,,,181,B,hexagon,1,0,,,,,,,,,,,,,,,,repeat,letter,lettRpt,j,0.5506,Hi,,,,,,2,,,,,,,,low,25,0,25,0,1,,,,,,,,,
298288,2022-11-29_11h15.20.872,vts_reward_expectancy_bt,2022.2.4,Win32,59.93048064,Chrome,1536,864,,,,,0,865,,,,,,,,,,,,,,,,,125,D,star,1,0,,,,,,,,,,,,,,,,repeat,letter,lettRpt,j,0.5672,Hi,,,,,,2,,,,,,,,low,26,0,26,0,1,,,,,,,,,
298288,2022-11-29_11h15.20.872,vts_reward_expectancy_bt,2022.2.4,Win32,59.93048064,Chrome,1536,864,,,,,10,875,,,,,,,,,,,,,,,,,132,U,circle,1,0,,,,,,,,,,,,,,,,switch,number,numSwt,d,0.6172,Lo,,,,,,2,,,,,,,,low,27,0,27,0,1,,,,,,,,,
298288,2022-11-29_11h15.20.872,vts_reward_expectancy_bt,2022.2.4,Win32,59.93048064,Chrome,1536,864,,,,,0,875,,,,,,,,,,,,,,,,,146,S,star,0,0,,,,,,,,,,,,,,,,repeat,number,NA,f,0.5839,Lo,,,,,,2,,,,,,,,low,28,0,28,0,1,,,,,,,,,
298288,2022-11-29_11h15.20.872,vts_reward_expectancy_bt,2022.2.4,Win32,59.93048064,Chrome,1536,864,,,,,0,875,,,,,,,,,,,,,,,,,139,W,hexagon,1,1,,,,,,,,,,,,,,,,repeat,number,numRpt,d,0.584,Hi,,,,,,2,,,,,,,,low,29,0,29,0,1,,,,,,,,,
298288,2022-11-29_11h15.20.872,vts_reward_expectancy_bt,2022.2.4,Win32,59.93048064,Chrome,1536,864,,,,,0,875,,,,,,,,,,,,,,,,,160,Y,triangle,0,0,,,,,,,,,,,,,,,,switch,letter,NA,j,0.5172,Hi,,,,,,2,,,,,,,,low,30,0,30,0,1,,,,,,,,,
298288,2022-11-29_11h15.20.872,vts_reward_expectancy_bt,2022.2.4,Win32,59.93048064,Chrome,1536,864,,,,,0,875,,,,,,,,,,,,,,,,,167,F,circle,0,1,,,,,,,,,,,,,,,,switch,number,NA,d,0.6342,Hi,,,,,,2,,,,,,,,low,31,0,31,0,1,,,,,,,,,
298288,2022-11-29_11h15.20.872,vts_reward_expectancy_bt,2022.2.4,Win32,59.93048064,Chrome,1536,864,,,,,1,876,,,,,,,,,,,,,,,,,181,H,circle,1,1,,,,,,,,,,,,,,,,repeat,number,numRpt,f,0.5338,Lo,,,,,,3,,,,,,space,0.8173,low,0,0,0,0,1,,,,,,,,,
298288,2022-11-29_11h15.20.872,vts_reward_expectancy_bt,2022.2.4,Win32,59.93048064,Chrome,1536,864,,,,,0,876,,,,,,,,,,,,,,,,,160,D,triangle,0,0,,,,,,,,,,,,,,,,repeat,number,NA,d,0.317,Lo,,,,,,3,,,,,,,,low,1,0,1,0,1,,,,,,,,,
298288,2022-11-29_11h15.20.872,vts_reward_expectancy_bt,2022.2.4,Win32,59.93048064,Chrome,1536,864,,,,,0,876,,,,,,,,,,,,,,,,,125,F,star,0,1,,,,,,,,,,,,,,,,switch,letter,NA,k,0.3674,Lo,,,,,,3,,,,,,,,low,2,0,2,0,1,,,,,,,,,
298288,2022-11-29_11h15.20.872,vts_reward_expectancy_bt,2022.2.4,Win32,59.93048064,Chrome,1536,864,,,,,1,877,,,,,,,,,,,,,,,,,139,U,hexagon,1,1,,,,,,,,,,,,,,,,repeat,letter,lettRpt,k,0.4506,Hi,,,,,,3,,,,,,,,low,3,0,3,0,1,,,,,,,,,
298288,2022-11-29_11h15.20.872,vts_reward_expectancy_bt,2022.2.4,Win32,59.93048064,Chrome,1536,864,,,,,10,887,,,,,,,,,,,,,,,,,167,W,circle,1,0,,,,,,,,,,,,,,,,switch,number,numSwt,f,0.5506,Lo,,,,,,3,,,,,,,,low,4,0,4,0,1,,,,,,,,,
298288,2022-11-29_11h15.20.872,vts_reward_expectancy_bt,2022.2.4,Win32,59.93048064,Chrome,1536,864,,,,,1,888,,,,,,,,,,,,,,,,,174,Y,triangle,1,0,,,,,,,,,,,,,,,,repeat,number,numRpt,f,0.5339,Lo,,,,,,3,,,,,,,,low,5,0,5,0,1,,,,,,,,,
298288,2022-11-29_11h15.20.872,vts_reward_expectancy_bt,2022.2.4,Win32,59.93048064,Chrome,1536,864,,,,,0,888,,,,,,,,,,,,,,,,,146,S,star,1,0,,,,,,,,,,,,,,,,switch,letter,lettSwt,k,0.684,Hi,,,,,,3,,,,,,,,low,6,0,6,0,1,,,,,,,,,
298288,2022-11-29_11h15.20.872,vts_reward_expectancy_bt,2022.2.4,Win32,59.93048064,Chrome,1536,864,,,,,0,888,,,,,,,,,,,,,,,,,132,B,hexagon,1,0,,,,,,,,,,,,,,,,switch,number,numSwt,d,0.6511,Hi,,,,,,3,,,,,,,,low,7,0,7,0,1,,,,,,,,,
298288,2022-11-29_11h15.20.872,vts_reward_expectancy_bt,2022.2.4,Win32,59.93048064,Chrome,1536,864,,,,,0,888,,,,,,,,,,,,,,,,,181,H,star,0,0,,,,,,,,,,,,,,,,switch,letter,NA,k,0.5338,Hi,,,,,,3,,,,,,,,low,8,0,8,0,1,,,,,,,,,
298288,2022-11-29_11h15.20.872,vts_reward_expectancy_bt,2022.2.4,Win32,59.93048064,Chrome,1536,864,,,,,10,898,,,,,,,,,,,,,,,,,160,D,triangle,1,1,,,,,,,,,,,,,,,,repeat,letter,lettRpt,j,0.6178,Lo,,,,,,3,,,,,,,,low,9,0,9,0,1,,,,,,,,,
298288,2022-11-29_11h15.20.872,vts_reward_expectancy_bt,2022.2.4,Win32,59.93048064,Chrome,1536,864,,,,,0,898,,,,,,,,,,,,,,,,,125,F,hexagon,1,0,,,,,,,,,,,,,,,,repeat,letter,lettRpt,j,0.5838,Hi,,,,,,3,,,,,,,,low,10,0,10,0,1,,,,,,,,,
298288,2022-11-29_11h15.20.872,vts_reward_expectancy_bt,2022.2.4,Win32,59.93048064,Chrome,1536,864,,,,,1,899,,,,,,,,,,,,,,,,,139,U,circle,1,0,,,,,,,,,,,,,,,,repeat,letter,lettRpt,k,0.6179,Lo,,,,,,3,,,,,,,,low,11,0,11,0,1,,,,,,,,,
298288,2022-11-29_11h15.20.872,vts_reward_expectancy_bt,2022.2.4,Win32,59.93048064,Chrome,1536,864,,,,,1,900,,,,,,,,,,,,,,,,,167,W,circle,1,0,,,,,,,,,,,,,,,,switch,number,numSwt,f,0.5335,Lo,,,,,,3,,,,,,,,low,12,0,12,0,1,,,,,,,,,
298288,2022-11-29_11h15.20.872,vts_reward_expectancy_bt,2022.2.4,Win32,59.93048064,Chrome,1536,864,,,,,0,900,,,,,,,,,,,,,,,,,174,Y,hexagon,1,0,,,,,,,,,,,,,,,,switch,letter,lettSwt,k,0.6004,Hi,,,,,,3,,,,,,,,low,13,0,13,0,1,,,,,,,,,
298288,2022-11-29_11h15.20.872,vts_reward_expectancy_bt,2022.2.4,Win32,59.93048064,Chrome,1536,864,,,,,10,910,,,,,,,,,,,,,,,,,146,S,triangle,1,0,,,,,,,,,,,,,,,,switch,number,numSwt,d,0.6172,Lo,,,,,,3,,,,,,,,low,14,0,14,0,1,,,,,,,,,
298288,2022-11-29_11h15.20.872,vts_reward_expectancy_bt,2022.2.4,Win32,59.93048064,Chrome,1536,864,,,,,10,920,,,,,,,,,,,,,,,,,132,B,star,1,0,,,,,,,,,,,,,,,,switch,letter,lettSwt,j,0.3336,Hi,,,,,,3,,,,,,,,low,15,0,15,0,1,,,,,,,,,
298288,2022-11-29_11h15.20.872,vts_reward_expectancy_bt,2022.2.4,Win32,59.93048064,Chrome,1536,864,,,,,1,921,,,,,,,,,,,,,,,,,174,S,triangle,1,0,,,,,,,,,,,,,,,,switch,number,numSwt,f,0.4006,Lo,,,,,,3,,,,,,,,low,16,0,16,0,1,,,,,,,,,
298288,2022-11-29_11h15.20.872,vts_reward_expectancy_bt,2022.2.4,Win32,59.93048064,Chrome,1536,864,,,,,0,921,,,,,,,,,,,,,,,,,146,W,hexagon,0,0,,,,,,,,,,,,,,,,switch,letter,NA,j,0.3507,Lo,,,,,,3,,,,,,,,low,17,0,17,0,1,,,,,,,,,
298288,2022-11-29_11h15.20.872,vts_reward_expectancy_bt,2022.2.4,Win32,59.93048064,Chrome,1536,864,,,,,10,931,,,,,,,,,,,,,,,,,167,D,circle,1,1,,,,,,,,,,,,,,,,repeat,letter,lettRpt,j,0.4172,Lo,,,,,,3,,,,,,,,low,18,0,18,0,1,,,,,,,,,
298288,2022-11-29_11h15.20.872,vts_reward_expectancy_bt,2022.2.4,Win32,59.93048064,Chrome,1536,864,,,,,0,931,,,,,,,,,,,,,,,,,139,F,star,1,0,,,,,,,,,,,,,,,,switch,number,numSwt,d,0.7671,Hi,,,,,,3,,,,,,,,low,19,0,19,0,1,,,,,,,,,
298288,2022-11-29_11h15.20.872,vts_reward_expectancy_bt,2022.2.4,Win32,59.93048064,Chrome,1536,864,,,,,1,932,,,,,,,,,,,,,,,,,132,U,circle,1,0,,,,,,,,,,,,,,,,repeat,number,numRpt,d,0.617,Lo,,,,,,3,,,,,,,,low,20,0,20,0,1,,,,,,,,,
298288,2022-11-29_11h15.20.872,vts_reward_expectancy_bt,2022.2.4,Win32,59.93048064,Chrome,1536,864,,,,,10,942,,,,,,,,,,,,,,,,,125,H,star,1,0,,,,,,,,,,,,,,,,repeat,number,numRpt,d,0.5351,Hi,,,,,,3,,,,,,,,low,21,0,21,0,1,,,,,,,,,
298288,2022-11-29_11h15.20.872,vts_reward_expectancy_bt,2022.2.4,Win32,59.93048064,Chrome,1536,864,,,,,10,952,,,,,,,,,,,,,,,,,181,Y,triangle,1,0,,,,,,,,,,,,,,,,switch,letter,lettSwt,k,0.8338,Lo,,,,,,3,,,,,,,,low,22,0,22,0,1,,,,,,,,,
298288,2022-11-29_11h15.20.872,vts_reward_expectancy_bt,2022.2.4,Win32,59.93048064,Chrome,1536,864,,,,,0,952,,,,,,,,,,,,,,,,,160,B,hexagon,1,0,,,,,,,,,,,,,,,,repeat,letter,lettRpt,j,0.7505,Hi,,,,,,3,,,,,,,,low,23,0,23,0,1,,,,,,,,,
298288,2022-11-29_11h15.20.872,vts_reward_expectancy_bt,2022.2.4,Win32,59.93048064,Chrome,1536,864,,,,,1,953,,,,,,,,,,,,,,,,,174,D,circle,1,0,,,,,,,,,,,,,,,,switch,number,numSwt,f,0.5338,Lo,,,,,,3,,,,,,,,low,24,0,24,0,1,,,,,,,,,
298288,2022-11-29_11h15.20.872,vts_reward_expectancy_bt,2022.2.4,Win32,59.93048064,Chrome,1536,864,,,,,0,953,,,,,,,,,,,,,,,,,139,U,hexagon,1,0,,,,,,,,,,,,,,,,repeat,number,numRpt,d,0.6676,Hi,,,,,,3,,,,,,,,low,25,0,25,0,1,,,,,,,,,
298288,2022-11-29_11h15.20.872,vts_reward_expectancy_bt,2022.2.4,Win32,59.93048064,Chrome,1536,864,,,,,0,953,,,,,,,,,,,,,,,,,181,Y,triangle,0,0,,,,,,,,,,,,,,,,repeat,number,NA,d,0.5177,Hi,,,,,,3,,,,,,,,low,26,0,26,0,1,,,,,,,,,
298288,2022-11-29_11h15.20.872,vts_reward_expectancy_bt,2022.2.4,Win32,59.93048064,Chrome,1536,864,,,,,0,953,,,,,,,,,,,,,,,,,132,H,star,1,1,,,,,,,,,,,,,,,,repeat,number,numRpt,d,0.6342,Hi,,,,,,3,,,,,,,,low,27,0,27,0,1,,,,,,,,,
298288,2022-11-29_11h15.20.872,vts_reward_expectancy_bt,2022.2.4,Win32,59.93048064,Chrome,1536,864,,,,,1,954,,,,,,,,,,,,,,,,,125,S,circle,1,0,,,,,,,,,,,,,,,,repeat,number,numRpt,d,0.5502,Lo,,,,,,3,,,,,,,,low,28,0,28,0,1,,,,,,,,,
298288,2022-11-29_11h15.20.872,vts_reward_expectancy_bt,2022.2.4,Win32,59.93048064,Chrome,1536,864,,,,,0,954,,,,,,,,,,,,,,,,,146,F,triangle,0,0,,,,,,,,,,,,,,,,switch,letter,NA,k,0.501,Lo,,,,,,3,,,,,,,,low,29,0,29,0,1,,,,,,,,,
298288,2022-11-29_11h15.20.872,vts_reward_expectancy_bt,2022.2.4,Win32,59.93048064,Chrome,1536,864,,,,,10,964,,,,,,,,,,,,,,,,,160,B,hexagon,1,1,,,,,,,,,,,,,,,,repeat,letter,lettRpt,j,0.4175,Hi,,,,,,3,,,,,,,,low,30,0,30,0,1,,,,,,,,,
298288,2022-11-29_11h15.20.872,vts_reward_expectancy_bt,2022.2.4,Win32,59.93048064,Chrome,1536,864,,,,,10,974,,,,,,,,,,,,,,,,,167,W,star,1,0,,,,,,,,,,,,,,,,repeat,letter,lettRpt,k,0.3673,Hi,,,,,,3,,,,,,,,low,31,0,31,0,1,,,,,,,,,
298288,2022-11-29_11h15.20.872,vts_reward_expectancy_bt,2022.2.4,Win32,59.93048064,Chrome,1536,864,,,,,0,974,,,,,,,,,,,,,,,,,167,Y,star,1,0,,,,,,,,,,,,,,,,switch,number,numSwt,f,0.784,Hi,,,,,,4,,,,,,space,0.6338,low,0,0,0,0,1,,,,,,,,,
298288,2022-11-29_11h15.20.872,vts_reward_expectancy_bt,2022.2.4,Win32,59.93048064,Chrome,1536,864,,,,,1,975,,,,,,,,,,,,,,,,,132,S,circle,1,0,,,,,,,,,,,,,,,,repeat,number,numRpt,d,0.5837,Lo,,,,,,4,,,,,,,,low,1,0,1,0,1,,,,,,,,,
298288,2022-11-29_11h15.20.872,vts_reward_expectancy_bt,2022.2.4,Win32,59.93048064,Chrome,1536,864,,,,,10,985,,,,,,,,,,,,,,,,,160,W,triangle,1,0,,,,,,,,,,,,,,,,switch,letter,lettSwt,k,0.6002,Lo,,,,,,4,,,,,,,,low,2,0,2,0,1,,,,,,,,,
298288,2022-11-29_11h15.20.872,vts_reward_expectancy_bt,2022.2.4,Win32,59.93048064,Chrome,1536,864,,,,,0,985,,,,,,,,,,,,,,,,,174,H,hexagon,0,0,,,,,,,,,,,,,,,,repeat,letter,NA,k,0.5006,Lo,,,,,,4,,,,,,,,low,3,0,3,0,1,,,,,,,,,
298288,2022-11-29_11h15.20.872,vts_reward_expectancy_bt,2022.2.4,Win32,59.93048064,Chrome,1536,864,,,,,0,985,,,,,,,,,,,,,,,,,181,D,star,1,1,,,,,,,,,,,,,,,,repeat,letter,lettRpt,j,0.5505,Hi,,,,,,4,,,,,,,,low,4,0,4,0,1,,,,,,,,,
298288,2022-11-29_11h15.20.872,vts_reward_expectancy_bt,2022.2.4,Win32,59.93048064,Chrome,1536,864,,,,,1,986,,,,,,,,,,,,,,,,,139,U,circle,1,0,,,,,,,,,,,,,,,,repeat,letter,lettRpt,k,0.484,Lo,,,,,,4,,,,,,,,low,5,0,5,0,1,,,,,,,,,
298288,2022-11-29_11h15.20.872,vts_reward_expectancy_bt,2022.2.4,Win32,59.93048064,Chrome,1536,864,,,,,10,996,,,,,,,,,,,,,,,,,146,F,triangle,1,0,,,,,,,,,,,,,,,,repeat,letter,lettRpt,j,0.6511,Lo,,,,,,4,,,,,,,,low,6,0,6,0,1,,,,,,,,,
298288,2022-11-29_11h15.20.872,vts_reward_expectancy_bt,2022.2.4,Win32,59.93048064,Chrome,1536,864,,,,,0,996,,,,,,,,,,,,,,,,,125,B,hexagon,1,0,,,,,,,,,,,,,,,,switch,number,numSwt,d,0.6178,Hi,,,,,,4,,,,,,,,low,7,0,7,0,1,,,,,,,,,
298288,2022-11-29_11h15.20.872,vts_reward_expectancy_bt,2022.2.4,Win32,59.93048064,Chrome,1536,864,,,,,1,997,,,,,,,,,,,,,,,,,167,Y,hexagon,1,0,,,,,,,,,,,,,,,,repeat,number,numRpt,f,0.467,Hi,,,,,,4,,,,,,,,low,8,0,8,0,1,,,,,,,,,
298288,2022-11-29_11h15.20.872,vts_reward_expectancy_bt,2022.2.4,Win32,59.93048064,Chrome,1536,864,,,,,1,998,,,,,,,,,,,,,,,,,132,S,triangle,1,0,,,,,,,,,,,,,,,,repeat,number,numRpt,d,0.4002,Lo,,,,,,4,,,,,,,,low,9,0,9,0,1,,,,,,,,,
298288,2022-11-29_11h15.20.872,vts_reward_expectancy_bt,2022.2.4,Win32,59.93048064,Chrome,1536,864,,,,,1,999,,,,,,,,,,,,,,,,,160,W,star,1,0,,,,,,,,,,,,,,,,repeat,number,numRpt,f,0.4505,Hi,,,,,,4,,,,,,,,low,10,0,10,0,1,,,,,,,,,
298288,2022-11-29_11h15.20.872,vts_reward_expectancy_bt,2022.2.4,Win32,59.93048064,Chrome,1536,864,,,,,0,999,,,,,,,,,,,,,,,,,174,H,circle,0,0,,,,,,,,,,,,,,,,switch,letter,NA,k,0.4839,Hi,,,,,,4,,,,,,,,low,11,0,11,0,1,,,,,,,,,
298288,2022-11-29_11h15.20.872,vts_reward_expectancy_bt,2022.2.4,Win32,59.93048064,Chrome,1536,864,,,,,1,1000,,,,,,,,,,,,,,,,,181,D,circle,1,1,,,,,,,,,,,,,,,,repeat,letter,lettRpt,j,0.5169,Lo,,,,,,4,,,,,,,,low,12,0,12,0,1,,,,,,,,,
298288,2022-11-29_11h15.20.872,vts_reward_expectancy_bt,2022.2.4,Win32,59.93048064,Chrome,1536,864,,,,,0,1000,,,,,,,,,,,,,,,,,139,U,star,1,0,,,,,,,,,,,,,,,,repeat,letter,lettRpt,k,0.7006,Hi,,,,,,4,,,,,,,,low,13,0,13,0,1,,,,,,,,,
298288,2022-11-29_11h15.20.872,vts_reward_expectancy_bt,2022.2.4,Win32,59.93048064,Chrome,1536,864,,,,,0,1000,,,,,,,,,,,,,,,,,146,F,hexagon,1,0,,,,,,,,,,,,,,,,repeat,letter,lettRpt,j,0.5507,Hi,,,,,,4,,,,,,,,low,14,0,14,0,1,,,,,,,,,
298288,2022-11-29_11h15.20.872,vts_reward_expectancy_bt,2022.2.4,Win32,59.93048064,Chrome,1536,864,,,,,1,1001,,,,,,,,,,,,,,,,,125,B,triangle,1,0,,,,,,,,,,,,,,,,repeat,letter,lettRpt,j,0.5503,Lo,,,,,,4,,,,,,,,low,15,0,15,0,1,,,,,,,,,
298288,2022-11-29_11h15.20.872,vts_reward_expectancy_bt,2022.2.4,Win32,59.93048064,Chrome,1536,864,,,,,0,1001,,,,,,,,,,,,,,,,,132,W,star,1,0,,,,,,,,,,,,,,,,repeat,letter,lettRpt,k,0.4676,Hi,,,,,,4,,,,,,,,low,16,0,16,0,1,,,,,,,,,
298288,2022-11-29_11h15.20.872,vts_reward_expectancy_bt,2022.2.4,Win32,59.93048064,Chrome,1536,864,,,,,0,1001,,,,,,,,,,,,,,,,,174,H,hexagon,0,0,,,,,,,,,,,,,,,,switch,number,NA,d,0.5675,Hi,,,,,,4,,,,,,,,low,17,0,17,0,1,,,,,,,,,
298288,2022-11-29_11h15.20.872,vts_reward_expectancy_bt,2022.2.4,Win32,59.93048064,Chrome,1536,864,,,,,10,1011,,,,,,,,,,,,,,,,,160,U,circle,1,1,,,,,,,,,,,,,,,,repeat,number,numRpt,f,0.5838,Lo,,,,,,4,,,,,,,,low,18,0,18,0,1,,,,,,,,,
298288,2022-11-29_11h15.20.872,vts_reward_expectancy_bt,2022.2.4,Win32,59.93048064,Chrome,1536,864,,,,,1,1012,,,,,,,,,,,,,,,,,139,B,triangle,1,0,,,,,,,,,,,,,,,,repeat,number,numRpt,d,0.4839,Lo,,,,,,4,,,,,,,,low,19,0,19,0,1,,,,,,,,,
298288,2022-11-29_11h15.20.872,vts_reward_expectancy_bt,2022.2.4,Win32,59.93048064,Chrome,1536,864,,,,,1,1013,,,,,,,,,,,,,,,,,146,S,triangle,1,0,,,,,,,,,,,,,,,,repeat,number,numRpt,d,0.4836,Lo,,,,,,4,,,,,,,,low,20,0,20,0,1,,,,,,,,,
298288,2022-11-29_11h15.20.872,vts_reward_expectancy_bt,2022.2.4,Win32,59.93048064,Chrome,1536,864,,,,,10,1023,,,,,,,,,,,,,,,,,125,F,hexagon,1,0,,,,,,,,,,,,,,,,repeat,number,numRpt,d,0.5169,Hi,,,,,,4,,,,,,,,low,21,0,21,0,1,,,,,,,,,
298288,2022-11-29_11h15.20.872,vts_reward_expectancy_bt,2022.2.4,Win32,59.93048064,Chrome,1536,864,,,,,1,1024,,,,,,,,,,,,,,,,,167,D,star,1,0,,,,,,,,,,,,,,,,repeat,number,numRpt,f,0.4334,Hi,,,,,,4,,,,,,,,low,22,0,22,0,1,,,,,,,,,
298288,2022-11-29_11h15.20.872,vts_reward_expectancy_bt,2022.2.4,Win32,59.93048064,Chrome,1536,864,,,,,1,1025,,,,,,,,,,,,,,,,,181,Y,circle,1,0,,,,,,,,,,,,,,,,repeat,number,numRpt,f,0.4172,Lo,,,,,,4,,,,,,,,low,23,0,23,0,1,,,,,,,,,
298288,2022-11-29_11h15.20.872,vts_reward_expectancy_bt,2022.2.4,Win32,59.93048064,Chrome,1536,864,,,,,10,1035,,,,,,,,,,,,,,,,,167,Y,triangle,1,0,,,,,,,,,,,,,,,,repeat,number,numRpt,f,0.6005,Lo,,,,,,4,,,,,,,,low,24,0,24,0,1,,,,,,,,,
298288,2022-11-29_11h15.20.872,vts_reward_expectancy_bt,2022.2.4,Win32,59.93048064,Chrome,1536,864,,,,,1,1036,,,,,,,,,,,,,,,,,139,F,star,1,0,,,,,,,,,,,,,,,,repeat,number,numRpt,d,0.5005,Hi,,,,,,4,,,,,,,,low,25,0,25,0,1,,,,,,,,,
298288,2022-11-29_11h15.20.872,vts_reward_expectancy_bt,2022.2.4,Win32,59.93048064,Chrome,1536,864,,,,,10,1046,,,,,,,,,,,,,,,,,174,D,hexagon,1,0,,,,,,,,,,,,,,,,repeat,number,numRpt,f,0.4832,Hi,,,,,,4,,,,,,,,low,26,0,26,0,1,,,,,,,,,
298288,2022-11-29_11h15.20.872,vts_reward_expectancy_bt,2022.2.4,Win32,59.93048064,Chrome,1536,864,,,,,0,1046,,,,,,,,,,,,,,,,,132,B,circle,0,0,,,,,,,,,,,,,,,,repeat,number,NA,f,0.5007,Hi,,,,,,4,,,,,,,,low,27,0,27,0,1,,,,,,,,,
298288,2022-11-29_11h15.20.872,vts_reward_expectancy_bt,2022.2.4,Win32,59.93048064,Chrome,1536,864,,,,,1,1047,,,,,,,,,,,,,,,,,125,W,circle,1,1,,,,,,,,,,,,,,,,repeat,number,numRpt,d,0.5166,Lo,,,,,,4,,,,,,,,low,28,0,28,0,1,,,,,,,,,
298288,2022-11-29_11h15.20.872,vts_reward_expectancy_bt,2022.2.4,Win32,59.93048064,Chrome,1536,864,,,,,1,1048,,,,,,,,,,,,,,,,,181,H,triangle,1,0,,,,,,,,,,,,,,,,repeat,number,numRpt,f,0.6839,Lo,,,,,,4,,,,,,,,low,29,0,29,0,1,,,,,,,,,
298288,2022-11-29_11h15.20.872,vts_reward_expectancy_bt,2022.2.4,Win32,59.93048064,Chrome,1536,864,,,,,0,1048,,,,,,,,,,,,,,,,,146,U,star,1,0,,,,,,,,,,,,,,,,repeat,number,numRpt,d,0.5505,Hi,,,,,,4,,,,,,,,low,30,0,30,0,1,,,,,,,,,
298288,2022-11-29_11h15.20.872,vts_reward_expectancy_bt,2022.2.4,Win32,59.93048064,Chrome,1536,864,,,,,0,1048,,,,,,,,,,,,,,,,,160,S,hexagon,1,0,,,,,,,,,,,,,,,,repeat,number,numRpt,f,0.6672,Hi,,,,,,4,,,,,,,,low,31,0,31,0,1,,,,,,,,,
298288,2022-11-29_11h15.20.872,vts_reward_expectancy_bt,2022.2.4,Win32,59.93048064,Chrome,1536,864,,,,,10,1058,,,,,,,,,,,,,,,,,174,S,triangle,1,0,,,,,,,,,,,,,,,,repeat,number,numRpt,f,0.6511,Lo,,,,,,5,,,,,,space,1.3845,low,0,0,0,0,1,,,,,,,,,
298288,2022-11-29_11h15.20.872,vts_reward_expectancy_bt,2022.2.4,Win32,59.93048064,Chrome,1536,864,,,,,0,1058,,,,,,,,,,,,,,,,,139,B,hexagon,1,0,,,,,,,,,,,,,,,,repeat,number,numRpt,d,0.5508,Hi,,,,,,5,,,,,,,,low,1,0,1,0,1,,,,,,,,,
298288,2022-11-29_11h15.20.872,vts_reward_expectancy_bt,2022.2.4,Win32,59.93048064,Chrome,1536,864,,,,,0,1058,,,,,,,,,,,,,,,,,160,D,star,1,0,,,,,,,,,,,,,,,,repeat,number,numRpt,f,0.5671,Hi,,,,,,5,,,,,,,,low,2,0,2,0,1,,,,,,,,,
298288,2022-11-29_11h15.20.872,vts_reward_expectancy_bt,2022.2.4,Win32,59.93048064,Chrome,1536,864,,,,,1,1059,,,,,,,,,,,,,,,,,181,U,circle,1,0,,,,,,,,,,,,,,,,repeat,number,numRpt,f,0.617,Lo,,,,,,5,,,,,,,,low,3,0,3,0,1,,,,,,,,,
298288,2022-11-29_11h15.20.872,vts_reward_expectancy_bt,2022.2.4,Win32,59.93048064,Chrome,1536,864,,,,,10,1069,,,,,,,,,,,,,,,,,167,W,triangle,1,0,,,,,,,,,,,,,,,,repeat,number,numRpt,f,0.667,Lo,,,,,,5,,,,,,,,low,4,0,4,0,1,,,,,,,,,
298288,2022-11-29_11h15.20.872,vts_reward_expectancy_bt,2022.2.4,Win32,59.93048064,Chrome,1536,864,,,,,1,1070,,,,,,,,,,,,,,,,,132,F,hexagon,1,0,,,,,,,,,,,,,,,,switch,letter,lettSwt,j,0.5673,Hi,,,,,,5,,,,,,,,low,5,0,5,0,1,,,,,,,,,
298288,2022-11-29_11h15.20.872,vts_reward_expectancy_bt,2022.2.4,Win32,59.93048064,Chrome,1536,864,,,,,1,1071,,,,,,,,,,,,,,,,,146,H,star,1,0,,,,,,,,,,,,,,,,switch,number,numSwt,d,0.7507,Hi,,,,,,5,,,,,,,,low,6,0,6,0,1,,,,,,,,,
298288,2022-11-29_11h15.20.872,vts_reward_expectancy_bt,2022.2.4,Win32,59.93048064,Chrome,1536,864,,,,,10,1081,,,,,,,,,,,,,,,,,125,Y,circle,1,0,,,,,,,,,,,,,,,,repeat,number,numRpt,d,0.7176,Lo,,,,,,5,,,,,,,,low,7,0,7,0,1,,,,,,,,,
298288,2022-11-29_11h15.20.872,vts_reward_expectancy_bt,2022.2.4,Win32,59.93048064,Chrome,1536,864,,,,,0,1081,,,,,,,,,,,,,,,,,174,S,triangle,0,0,,,,,,,,,,,,,,,,repeat,number,NA,d,0.6837,Lo,,,,,,5,,,,,,,,low,8,0,8,0,1,,,,,,,,,
298288,2022-11-29_11h15.20.872,vts_reward_expectancy_bt,2022.2.4,Win32,59.93048064,Chrome,1536,864,,,,,1,1082,,,,,,,,,,,,,,,,,139,B,circle,1,1,,,,,,,,,,,,,,,,repeat,number,numRpt,d,0.5672,Lo,,,,,,5,,,,,,,,low,9,0,9,0,1,,,,,,,,,
298288,2022-11-29_11h15.20.872,vts_reward_expectancy_bt,2022.2.4,Win32,59.93048064,Chrome,1536,864,,,,,0,1082,,,,,,,,,,,,,,,,,160,D,star,1,0,,,,,,,,,,,,,,,,repeat,number,numRpt,f,0.7011,Hi,,,,,,5,,,,,,,,low,10,0,10,0,1,,,,,,,,,
298288,2022-11-29_11h15.20.872,vts_reward_expectancy_bt,2022.2.4,Win32,59.93048064,Chrome,1536,864,,,,,0,1082,,,,,,,,,,,,,,,,,181,U,hexagon,1,0,,,,,,,,,,,,,,,,repeat,number,numRpt,f,0.7173,Hi,,,,,,5,,,,,,,,low,11,0,11,0,1,,,,,,,,,
298288,2022-11-29_11h15.20.872,vts_reward_expectancy_bt,2022.2.4,Win32,59.93048064,Chrome,1536,864,,,,,10,1092,,,,,,,,,,,,,,,,,167,W,triangle,1,0,,,,,,,,,,,,,,,,repeat,number,numRpt,f,0.517,Lo,,,,,,5,,,,,,,,low,12,0,12,0,1,,,,,,,,,
298288,2022-11-29_11h15.20.872,vts_reward_expectancy_bt,2022.2.4,Win32,59.93048064,Chrome,1536,864,,,,,0,1092,,,,,,,,,,,,,,,,,132,F,hexagon,1,0,,,,,,,,,,,,,,,,repeat,number,numRpt,d,0.5506,Hi,,,,,,5,,,,,,,,low,13,0,13,0,1,,,,,,,,,
298288,2022-11-29_11h15.20.872,vts_reward_expectancy_bt,2022.2.4,Win32,59.93048064,Chrome,1536,864,,,,,0,1092,,,,,,,,,,,,,,,,,146,H,circle,0,0,,,,,,,,,,,,,,,,repeat,number,NA,f,0.6835,Hi,,,,,,5,,,,,,,,low,14,0,14,0,1,,,,,,,,,
298288,2022-11-29_11h15.20.872,vts_reward_expectancy_bt,2022.2.4,Win32,59.93048064,Chrome,1536,864,,,,,0,1092,,,,,,,,,,,,,,,,,125,Y,star,1,1,,,,,,,,,,,,,,,,repeat,number,numRpt,d,0.5671,Hi,,,,,,5,,,,,,,,low,15,0,15,0,1,,,,,,,,,
298288,2022-11-29_11h15.20.872,vts_reward_expectancy_bt,2022.2.4,Win32,59.93048064,Chrome,1536,864,,,,,0,1092,,,,,,,,,,,,,,,,,125,U,hexagon,1,0,,,,,,,,,,,,,,,,repeat,number,numRpt,d,0.4836,Hi,,,,,,5,,,,,,,,low,16,0,16,0,1,,,,,,,,,
298288,2022-11-29_11h15.20.872,vts_reward_expectancy_bt,2022.2.4,Win32,59.93048064,Chrome,1536,864,,,,,1,1093,,,,,,,,,,,,,,,,,139,H,circle,1,0,,,,,,,,,,,,,,,,switch,letter,lettSwt,j,0.667,Lo,,,,,,5,,,,,,,,low,17,0,17,0,1,,,,,,,,,
298288,2022-11-29_11h15.20.872,vts_reward_expectancy_bt,2022.2.4,Win32,59.93048064,Chrome,1536,864,,,,,0,1093,,,,,,,,,,,,,,,,,160,D,star,0,0,,,,,,,,,,,,,,,,switch,number,NA,d,0.6838,Lo,,,,,,5,,,,,,,,low,18,0,18,0,1,,,,,,,,,
298288,2022-11-29_11h15.20.872,vts_reward_expectancy_bt,2022.2.4,Win32,59.93048064,Chrome,1536,864,,,,,0,1093,,,,,,,,,,,,,,,,,146,W,triangle,0,1,,,,,,,,,,,,,,,,switch,letter,NA,j,0.5003,Lo,,,,,,5,,,,,,,,low,19,0,19,0,1,,,,,,,,,
298288,2022-11-29_11h15.20.872,vts_reward_expectancy_bt,2022.2.4,Win32,59.93048064,Chrome,1536,864,,,,,1,1094,,,,,,,,,,,,,,,,,167,S,hexagon,1,1,,,,,,,,,,,,,,,,switch,number,numSwt,f,0.0336,Hi,,,,,,5,,,,,,,,low,20,0,20,0,1,,,,,,,,,
298288,2022-11-29_11h15.20.872,vts_reward_expectancy_bt,2022.2.4,Win32,59.93048064,Chrome,1536,864,,,,,10,1104,,,,,,,,,,,,,,,,,132,Y,triangle,1,0,,,,,,,,,,,,,,,,repeat,number,numRpt,d,0.1669,Lo,,,,,,5,,,,,,,,low,21,0,21,0,1,,,,,,,,,
298288,2022-11-29_11h15.20.872,vts_reward_expectancy_bt,2022.2.4,Win32,59.93048064,Chrome,1536,864,,,,,0,1104,,,,,,,,,,,,,,,,,181,B,star,0,0,,,,,,,,,,,,,,,,switch,letter,NA,k,0.1334,Lo,,,,,,5,,,,,,,,low,22,0,22,0,1,,,,,,,,,
298288,2022-11-29_11h15.20.872,vts_reward_expectancy_bt,2022.2.4,Win32,59.93048064,Chrome,1536,864,,,,,10,1114,,,,,,,,,,,,,,,,,174,F,circle,1,1,,,,,,,,,,,,,,,,switch,number,numSwt,f,0.0503,Lo,,,,,,5,,,,,,,,low,23,0,23,0,1,,,,,,,,,
298288,2022-11-29_11h15.20.872,vts_reward_expectancy_bt,2022.2.4,Win32,59.93048064,Chrome,1536,864,,,,,1,1115,,,,,,,,,,,,,,,,,146,F,circle,1,0,,,,,,,,,,,,,,,,switch,letter,lettSwt,j,0.2171,Lo,,,,,,5,,,,,,,,low,24,0,24,0,1,,,,,,,,,
298288,2022-11-29_11h15.20.872,vts_reward_expectancy_bt,2022.2.4,Win32,59.93048064,Chrome,1536,864,,,,,0,1115,,,,,,,,,,,,,,,,,139,Y,star,0,0,,,,,,,,,,,,,,,,repeat,letter,NA,j,0.1005,Lo,,,,,,5,,,,,,,,low,25,0,25,0,1,,,,,,,,,
298288,2022-11-29_11h15.20.872,vts_reward_expectancy_bt,2022.2.4,Win32,59.93048064,Chrome,1536,864,,,,,0,1115,,,,,,,,,,,,,,,,,167,W,triangle,0,1,,,,,,,,,,,,,,,,repeat,letter,NA,j,0.0668,Lo,,,,,,5,,,,,,,,low,26,0,26,0,1,,,,,,,,,
298288,2022-11-29_11h15.20.872,vts_reward_expectancy_bt,2022.2.4,Win32,59.93048064,Chrome,1536,864,,,,,10,1125,,,,,,,,,,,,,,,,,181,B,hexagon,1,1,,,,,,,,,,,,,,,,repeat,letter,lettRpt,j,0.1,Hi,,,,,,5,,,,,,,,low,27,0,27,0,1,,,,,,,,,
298288,2022-11-29_11h15.20.872,vts_reward_expectancy_bt,2022.2.4,Win32,59.93048064,Chrome,1536,864,,,,,0,1125,,,,,,,,,,,,,,,,,160,S,triangle,0,0,,,,,,,,,,,,,,,,switch,number,NA,d,0.1164,Hi,,,,,,5,,,,,,,,low,28,0,28,0,1,,,,,,,,,
298288,2022-11-29_11h15.20.872,vts_reward_expectancy_bt,2022.2.4,Win32,59.93048064,Chrome,1536,864,,,,,1,1126,,,,,,,,,,,,,,,,,174,U,circle,1,1,,,,,,,,,,,,,,,,repeat,number,numRpt,f,0.1003,Lo,,,,,,5,,,,,,,,low,29,0,29,0,1,,,,,,,,,
298288,2022-11-29_11h15.20.872,vts_reward_expectancy_bt,2022.2.4,Win32,59.93048064,Chrome,1536,864,,,,,10,1136,,,,,,,,,,,,,,,,,132,H,hexagon,1,0,,,,,,,,,,,,,,,,switch,letter,lettSwt,j,0.1671,Hi,,,,,,5,,,,,,,,low,30,0,30,0,1,,,,,,,,,
298288,2022-11-29_11h15.20.872,vts_reward_expectancy_bt,2022.2.4,Win32,59.93048064,Chrome,1536,864,,,,,10,1146,,,,,,,,,,,,,,,,,125,D,star,1,0,,,,,,,,,,,,,,,,switch,number,numSwt,d,0.1838,Hi,,,,,,5,,,,,,,,low,31,0,31,0,1,,,,,,,,,
298288,2022-11-29_11h15.20.872,vts_reward_expectancy_bt,2022.2.4,Win32,59.93048064,Chrome,1536,864,,,,,0,1146,,,,,,,,,,,,,,,,,167,W,triangle,0,0,,,,,,,,,,,,,,,,switch,letter,NA,j,0.1834,Hi,,,,,,6,,,,,,space,1.8514,low,0,0,0,0,1,,,,,,,,,
298288,2022-11-29_11h15.20.872,vts_reward_expectancy_bt,2022.2.4,Win32,59.93048064,Chrome,1536,864,,,,,10,1156,,,,,,,,,,,,,,,,,146,Y,circle,1,1,,,,,,,,,,,,,,,,switch,number,numSwt,d,0.0665,Lo,,,,,,6,,,,,,,,low,1,0,1,0,1,,,,,,,,,
298288,2022-11-29_11h15.20.872,vts_reward_expectancy_bt,2022.2.4,Win32,59.93048064,Chrome,1536,864,,,,,0,1156,,,,,,,,,,,,,,,,,181,D,hexagon,0,0,,,,,,,,,,,,,,,,repeat,number,NA,d,0.0004,Lo,,,,,,6,,,,,,,,low,2,0,2,0,1,,,,,,,,,
298288,2022-11-29_11h15.20.872,vts_reward_expectancy_bt,2022.2.4,Win32,59.93048064,Chrome,1536,864,,,,,1,1157,,,,,,,,,,,,,,,,,139,U,star,1,1,,,,,,,,,,,,,,,,repeat,number,numRpt,d,0.5342,Hi,,,,,,6,,,,,,,,low,3,0,3,0,1,,,,,,,,,
298288,2022-11-29_11h15.20.872,vts_reward_expectancy_bt,2022.2.4,Win32,59.93048064,Chrome,1536,864,,,,,1,1158,,,,,,,,,,,,,,,,,125,F,triangle,1,0,,,,,,,,,,,,,,,,switch,letter,lettSwt,j,0.6673,Lo,,,,,,6,,,,,,,,low,4,0,4,0,1,,,,,,,,,
298288,2022-11-29_11h15.20.872,vts_reward_expectancy_bt,2022.2.4,Win32,59.93048064,Chrome,1536,864,,,,,0,1158,,,,,,,,,,,,,,,,,132,B,circle,0,0,,,,,,,,,,,,,,,,repeat,letter,NA,k,0.1005,Lo,,,,,,6,,,,,,,,low,5,0,5,0,1,,,,,,,,,
298288,2022-11-29_11h15.20.872,vts_reward_expectancy_bt,2022.2.4,Win32,59.93048064,Chrome,1536,864,,,,,0,1158,,,,,,,,,,,,,,,,,174,S,hexagon,1,1,,,,,,,,,,,,,,,,repeat,letter,lettRpt,k,0.1337,Hi,,,,,,6,,,,,,,,low,6,0,6,0,1,,,,,,,,,
298288,2022-11-29_11h15.20.872,vts_reward_expectancy_bt,2022.2.4,Win32,59.93048064,Chrome,1536,864,,,,,10,1168,,,,,,,,,,,,,,,,,160,H,star,1,0,,,,,,,,,,,,,,,,repeat,letter,lettRpt,j,0.017,Hi,,,,,,6,,,,,,,,low,7,0,7,0,1,,,,,,,,,
298288,2022-11-29_11h15.20.872,vts_reward_expectancy_bt,2022.2.4,Win32,59.93048064,Chrome,1536,864,,,,,0,1168,,,,,,,,,,,,,,,,,167,W,circle,0,0,,,,,,,,,,,,,,,,repeat,letter,NA,j,0.0168,Hi,,,,,,6,,,,,,,,low,8,0,8,0,1,,,,,,,,,
