participant,date,expName,psychopyVersion,OS,frameRate,browser,xResolution,yResolution,key_resp.keys,key_resp.rt,training_resp.keys,training_resp.rt,points_trial,points_cumul,trainBlock,training.thisRepN,training.thisTrialN,training.thisN,training.thisIndex,training.ran,LTriangleOpac,LCircleOpac,LHexagonOpac,LStarOpac,RTriangleOpac,RCircleOpac,RHexagonOpac,RStarOpac,LShape_ID,RShape_ID,curr_topStim,curr_bottStim,curr_shape,acc,E1,target_resp_prac1.keys,target_resp_prac1.rt,pracBlock,task1_prac_trials.thisRepN,task1_prac_trials.thisTrialN,task1_prac_trials.thisN,task1_prac_trials.thisIndex,task1_prac_trials.ran,target_resp_prac2.keys,target_resp_prac2.rt,task2_praac_trials.thisRepN,task2_praac_trials.thisTrialN,task2_praac_trials.thisN,task2_praac_trials.thisIndex,task2_praac_trials.ran,alt,task,condition,target_resp.keys,target_resp.rt,rewCond,vts_practice_trials.thisRepN,vts_practice_trials.thisTrialN,vts_practice_trials.thisN,vts_practice_trials.thisIndex,vts_practice_trials.ran,blockNum,trials_norew.thisRepN,trials_norew.thisTrialN,trials_norew.thisN,trials_norew.thisIndex,trials_norew.ran,key_resp_2.keys,key_resp_2.rt,rewExpectancy,trials_rew.thisRepN,trials_rew.thisTrialN,trials_rew.thisN,trials_rew.thisIndex,trials_rew.ran,Q1,Q2,Q2_text,Q3,Q4,Q5_text,Q5,xRes,yRes
298270,2022-11-27_20h05.45.535,vts_reward_expectancy_bt,2022.2.4,Win32,60.06006006,Chrome,1536,864,,,,,,,,,,,,,,,,,,,,,,,,,,,,,,,,,,,,,,,,,,,,,,,,,,,,,,,,,,,,,,,,,,,,,,,,,,,,
298270,2022-11-27_20h05.45.535,vts_reward_expectancy_bt,2022.2.4,Win32,60.06006006,Chrome,1536,864,space,10.5415,,,,,,,,,,,,,,,,,,,,,,,,,,,,,,,,,,,,,,,,,,,,,,,,,,,,,,,,,,,,,,,,,,,,,,,,,,
298270,2022-11-27_20h05.45.535,vts_reward_expectancy_bt,2022.2.4,Win32,60.06006006,Chrome,1536,864,,,,,,,,,,,,,,,,,,,,,,,,,,,,,,,,,,,,,,,,,,,,,,,,,,,,,,,,,,,,,,,,,,,,,,,,,,,,
298270,2022-11-27_20h05.45.535,vts_reward_expectancy_bt,2022.2.4,Win32,60.06006006,Chrome,1536,864,,,a,2.6263,10,10,0,0,0,0,5,1,0,1,0,0,0,0,0,1,circle,star,,,,,,,,,,,,,,,,,,,,,,,,,,,,,,,,,,,,,,,,,,,,,,,,,,,,,,
298270,2022-11-27_20h05.45.535,vts_reward_expectancy_bt,2022.2.4,Win32,60.06006006,Chrome,1536,864,,,a,1.6802,10,20,0,0,1,1,9,1,0,0,0,1,1,0,0,0,star,triangle,,,,,,,,,,,,,,,,,,,,,,,,,,,,,,,,,,,,,,,,,,,,,,,,,,,,,,
298270,2022-11-27_20h05.45.535,vts_reward_expectancy_bt,2022.2.4,Win32,60.06006006,Chrome,1536,864,,,l,3.3988,10,30,0,0,2,2,4,1,0,1,0,0,0,0,1,0,circle,hexagon,,,,,,,,,,,,,,,,,,,,,,,,,,,,,,,,,,,,,,,,,,,,,,,,,,,,,,
298270,2022-11-27_20h05.45.535,vts_reward_expectancy_bt,2022.2.4,Win32,60.06006006,Chrome,1536,864,,,a,1.607,10,40,0,0,3,3,2,1,1,0,0,0,0,0,0,1,triangle,star,,,,,,,,,,,,,,,,,,,,,,,,,,,,,,,,,,,,,,,,,,,,,,,,,,,,,,
298270,2022-11-27_20h05.45.535,vts_reward_expectancy_bt,2022.2.4,Win32,60.06006006,Chrome,1536,864,,,a,2.3593,1,41,0,0,4,4,0,1,1,0,0,0,0,1,0,0,triangle,circle,,,,,,,,,,,,,,,,,,,,,,,,,,,,,,,,,,,,,,,,,,,,,,,,,,,,,,
298270,2022-11-27_20h05.45.535,vts_reward_expectancy_bt,2022.2.4,Win32,60.06006006,Chrome,1536,864,,,a,1.0584,1,42,0,0,5,5,3,1,0,1,0,0,1,0,0,0,circle,triangle,,,,,,,,,,,,,,,,,,,,,,,,,,,,,,,,,,,,,,,,,,,,,,,,,,,,,,
298270,2022-11-27_20h05.45.535,vts_reward_expectancy_bt,2022.2.4,Win32,60.06006006,Chrome,1536,864,,,l,1.0057,1,43,0,0,6,6,7,1,0,0,1,0,0,1,0,0,hexagon,circle,,,,,,,,,,,,,,,,,,,,,,,,,,,,,,,,,,,,,,,,,,,,,,,,,,,,,,
298270,2022-11-27_20h05.45.535,vts_reward_expectancy_bt,2022.2.4,Win32,60.06006006,Chrome,1536,864,,,a,0.8823,1,44,0,0,7,7,10,1,0,0,0,1,0,1,0,0,star ,circle,,,,,,,,,,,,,,,,,,,,,,,,,,,,,,,,,,,,,,,,,,,,,,,,,,,,,,
298270,2022-11-27_20h05.45.535,vts_reward_expectancy_bt,2022.2.4,Win32,60.06006006,Chrome,1536,864,,,l,1.4748,10,54,0,0,8,8,6,1,0,0,1,0,1,0,0,0,hexagon,triangle,,,,,,,,,,,,,,,,,,,,,,,,,,,,,,,,,,,,,,,,,,,,,,,,,,,,,,
298270,2022-11-27_20h05.45.535,vts_reward_expectancy_bt,2022.2.4,Win32,60.06006006,Chrome,1536,864,,,a,1.2924,10,64,0,0,9,9,1,1,1,0,0,0,0,0,1,0,triangle,hexagon,,,,,,,,,,,,,,,,,,,,,,,,,,,,,,,,,,,,,,,,,,,,,,,,,,,,,,
298270,2022-11-27_20h05.45.535,vts_reward_expectancy_bt,2022.2.4,Win32,60.06006006,Chrome,1536,864,,,l,1.2466,10,74,0,0,10,10,11,1,0,0,0,1,0,0,1,0,star,hexagon,,,,,,,,,,,,,,,,,,,,,,,,,,,,,,,,,,,,,,,,,,,,,,,,,,,,,,
298270,2022-11-27_20h05.45.535,vts_reward_expectancy_bt,2022.2.4,Win32,60.06006006,Chrome,1536,864,,,a,1.243,1,75,0,0,11,11,8,1,0,0,1,0,0,0,0,1,hexagon,star,,,,,,,,,,,,,,,,,,,,,,,,,,,,,,,,,,,,,,,,,,,,,,,,,,,,,,
298270,2022-11-27_20h05.45.535,vts_reward_expectancy_bt,2022.2.4,Win32,60.06006006,Chrome,1536,864,,,a,2.5773,1,76,0,1,0,12,3,1,0,1,0,0,1,0,0,0,circle,triangle,,,,,,,,,,,,,,,,,,,,,,,,,,,,,,,,,,,,,,,,,,,,,,,,,,,,,,
298270,2022-11-27_20h05.45.535,vts_reward_expectancy_bt,2022.2.4,Win32,60.06006006,Chrome,1536,864,,,l,0.8817,10,86,0,1,1,13,10,1,0,0,0,1,0,1,0,0,star ,circle,,,,,,,,,,,,,,,,,,,,,,,,,,,,,,,,,,,,,,,,,,,,,,,,,,,,,,
298270,2022-11-27_20h05.45.535,vts_reward_expectancy_bt,2022.2.4,Win32,60.06006006,Chrome,1536,864,,,a,1.1165,1,87,0,1,2,14,2,1,1,0,0,0,0,0,0,1,triangle,star,,,,,,,,,,,,,,,,,,,,,,,,,,,,,,,,,,,,,,,,,,,,,,,,,,,,,,
298270,2022-11-27_20h05.45.535,vts_reward_expectancy_bt,2022.2.4,Win32,60.06006006,Chrome,1536,864,,,l,1.5359,10,97,0,1,3,15,9,1,0,0,0,1,1,0,0,0,star,triangle,,,,,,,,,,,,,,,,,,,,,,,,,,,,,,,,,,,,,,,,,,,,,,,,,,,,,,
298270,2022-11-27_20h05.45.535,vts_reward_expectancy_bt,2022.2.4,Win32,60.06006006,Chrome,1536,864,,,a,1.4674,1,98,0,1,4,16,5,1,0,1,0,0,0,0,0,1,circle,star,,,,,,,,,,,,,,,,,,,,,,,,,,,,,,,,,,,,,,,,,,,,,,,,,,,,,,
298270,2022-11-27_20h05.45.535,vts_reward_expectancy_bt,2022.2.4,Win32,60.06006006,Chrome,1536,864,,,l,1.0501,1,99,0,1,5,17,8,1,0,0,1,0,0,0,0,1,hexagon,star,,,,,,,,,,,,,,,,,,,,,,,,,,,,,,,,,,,,,,,,,,,,,,,,,,,,,,
298270,2022-11-27_20h05.45.535,vts_reward_expectancy_bt,2022.2.4,Win32,60.06006006,Chrome,1536,864,,,a,1.1413,1,100,0,1,6,18,4,1,0,1,0,0,0,0,1,0,circle,hexagon,,,,,,,,,,,,,,,,,,,,,,,,,,,,,,,,,,,,,,,,,,,,,,,,,,,,,,
298270,2022-11-27_20h05.45.535,vts_reward_expectancy_bt,2022.2.4,Win32,60.06006006,Chrome,1536,864,,,l,2.0279,10,110,0,1,7,19,7,1,0,0,1,0,0,1,0,0,hexagon,circle,,,,,,,,,,,,,,,,,,,,,,,,,,,,,,,,,,,,,,,,,,,,,,,,,,,,,,
298270,2022-11-27_20h05.45.535,vts_reward_expectancy_bt,2022.2.4,Win32,60.06006006,Chrome,1536,864,,,l,1.6203,10,120,0,1,8,20,6,1,0,0,1,0,1,0,0,0,hexagon,triangle,,,,,,,,,,,,,,,,,,,,,,,,,,,,,,,,,,,,,,,,,,,,,,,,,,,,,,
298270,2022-11-27_20h05.45.535,vts_reward_expectancy_bt,2022.2.4,Win32,60.06006006,Chrome,1536,864,,,a,1.4931,1,121,0,1,9,21,1,1,1,0,0,0,0,0,1,0,triangle,hexagon,,,,,,,,,,,,,,,,,,,,,,,,,,,,,,,,,,,,,,,,,,,,,,,,,,,,,,
298270,2022-11-27_20h05.45.535,vts_reward_expectancy_bt,2022.2.4,Win32,60.06006006,Chrome,1536,864,,,l,1.4243,1,122,0,1,10,22,0,1,1,0,0,0,0,1,0,0,triangle,circle,,,,,,,,,,,,,,,,,,,,,,,,,,,,,,,,,,,,,,,,,,,,,,,,,,,,,,
298270,2022-11-27_20h05.45.535,vts_reward_expectancy_bt,2022.2.4,Win32,60.06006006,Chrome,1536,864,,,a,0.9714,10,132,0,1,11,23,11,1,0,0,0,1,0,0,1,0,star,hexagon,,,,,,,,,,,,,,,,,,,,,,,,,,,,,,,,,,,,,,,,,,,,,,,,,,,,,,
298270,2022-11-27_20h05.45.535,vts_reward_expectancy_bt,2022.2.4,Win32,60.06006006,Chrome,1536,864,,,l,0.8974,1,133,0,2,0,24,3,1,0,1,0,0,1,0,0,0,circle,triangle,,,,,,,,,,,,,,,,,,,,,,,,,,,,,,,,,,,,,,,,,,,,,,,,,,,,,,
298270,2022-11-27_20h05.45.535,vts_reward_expectancy_bt,2022.2.4,Win32,60.06006006,Chrome,1536,864,,,l,1.1371,10,143,0,2,1,25,0,1,1,0,0,0,0,1,0,0,triangle,circle,,,,,,,,,,,,,,,,,,,,,,,,,,,,,,,,,,,,,,,,,,,,,,,,,,,,,,
298270,2022-11-27_20h05.45.535,vts_reward_expectancy_bt,2022.2.4,Win32,60.06006006,Chrome,1536,864,,,a,1.1329,10,153,0,2,2,26,11,1,0,0,0,1,0,0,1,0,star,hexagon,,,,,,,,,,,,,,,,,,,,,,,,,,,,,,,,,,,,,,,,,,,,,,,,,,,,,,
298270,2022-11-27_20h05.45.535,vts_reward_expectancy_bt,2022.2.4,Win32,60.06006006,Chrome,1536,864,,,l,1.2718,1,154,0,2,3,27,7,1,0,0,1,0,0,1,0,0,hexagon,circle,,,,,,,,,,,,,,,,,,,,,,,,,,,,,,,,,,,,,,,,,,,,,,,,,,,,,,
298270,2022-11-27_20h05.45.535,vts_reward_expectancy_bt,2022.2.4,Win32,60.06006006,Chrome,1536,864,,,a,1.2019,10,164,0,2,4,28,1,1,1,0,0,0,0,0,1,0,triangle,hexagon,,,,,,,,,,,,,,,,,,,,,,,,,,,,,,,,,,,,,,,,,,,,,,,,,,,,,,
298270,2022-11-27_20h05.45.535,vts_reward_expectancy_bt,2022.2.4,Win32,60.06006006,Chrome,1536,864,,,a,1.1331,10,174,0,2,5,29,5,1,0,1,0,0,0,0,0,1,circle,star,,,,,,,,,,,,,,,,,,,,,,,,,,,,,,,,,,,,,,,,,,,,,,,,,,,,,,
298270,2022-11-27_20h05.45.535,vts_reward_expectancy_bt,2022.2.4,Win32,60.06006006,Chrome,1536,864,,,l,1.2306,10,184,0,2,6,30,2,1,1,0,0,0,0,0,0,1,triangle,star,,,,,,,,,,,,,,,,,,,,,,,,,,,,,,,,,,,,,,,,,,,,,,,,,,,,,,
298270,2022-11-27_20h05.45.535,vts_reward_expectancy_bt,2022.2.4,Win32,60.06006006,Chrome,1536,864,,,l,1.2127,10,194,0,2,7,31,10,1,0,0,0,1,0,1,0,0,star ,circle,,,,,,,,,,,,,,,,,,,,,,,,,,,,,,,,,,,,,,,,,,,,,,,,,,,,,,
298270,2022-11-27_20h05.45.535,vts_reward_expectancy_bt,2022.2.4,Win32,60.06006006,Chrome,1536,864,,,a,1.2507,1,195,0,2,8,32,6,1,0,0,1,0,1,0,0,0,hexagon,triangle,,,,,,,,,,,,,,,,,,,,,,,,,,,,,,,,,,,,,,,,,,,,,,,,,,,,,,
298270,2022-11-27_20h05.45.535,vts_reward_expectancy_bt,2022.2.4,Win32,60.06006006,Chrome,1536,864,,,a,0.9922,10,205,0,2,9,33,4,1,0,1,0,0,0,0,1,0,circle,hexagon,,,,,,,,,,,,,,,,,,,,,,,,,,,,,,,,,,,,,,,,,,,,,,,,,,,,,,
298270,2022-11-27_20h05.45.535,vts_reward_expectancy_bt,2022.2.4,Win32,60.06006006,Chrome,1536,864,,,l,1.1839,10,215,0,2,10,34,8,1,0,0,1,0,0,0,0,1,hexagon,star,,,,,,,,,,,,,,,,,,,,,,,,,,,,,,,,,,,,,,,,,,,,,,,,,,,,,,
298270,2022-11-27_20h05.45.535,vts_reward_expectancy_bt,2022.2.4,Win32,60.06006006,Chrome,1536,864,,,l,1.6065,1,216,0,2,11,35,9,1,0,0,0,1,1,0,0,0,star,triangle,,,,,,,,,,,,,,,,,,,,,,,,,,,,,,,,,,,,,,,,,,,,,,,,,,,,,,
298270,2022-11-27_20h05.45.535,vts_reward_expectancy_bt,2022.2.4,Win32,60.06006006,Chrome,1536,864,,,a,1.6269,1,217,1,0,0,0,1,1,1,0,0,0,0,0,1,0,triangle,hexagon,,,,,,,,,,,,,,,,,,,,,,,,,,,,,,,,,,,,,,,,,,,,,,,,,,,,,,
298270,2022-11-27_20h05.45.535,vts_reward_expectancy_bt,2022.2.4,Win32,60.06006006,Chrome,1536,864,,,l,1.0054,10,227,1,0,1,1,8,1,0,0,1,0,0,0,0,1,hexagon,star,,,,,,,,,,,,,,,,,,,,,,,,,,,,,,,,,,,,,,,,,,,,,,,,,,,,,,
298270,2022-11-27_20h05.45.535,vts_reward_expectancy_bt,2022.2.4,Win32,60.06006006,Chrome,1536,864,,,a,1.0691,1,228,1,0,2,2,3,1,0,1,0,0,1,0,0,0,circle,triangle,,,,,,,,,,,,,,,,,,,,,,,,,,,,,,,,,,,,,,,,,,,,,,,,,,,,,,
298270,2022-11-27_20h05.45.535,vts_reward_expectancy_bt,2022.2.4,Win32,60.06006006,Chrome,1536,864,,,l,1.0332,10,238,1,0,3,3,4,1,0,1,0,0,0,0,1,0,circle,hexagon,,,,,,,,,,,,,,,,,,,,,,,,,,,,,,,,,,,,,,,,,,,,,,,,,,,,,,
298270,2022-11-27_20h05.45.535,vts_reward_expectancy_bt,2022.2.4,Win32,60.06006006,Chrome,1536,864,,,a,0.8983,10,248,1,0,4,4,0,1,1,0,0,0,0,1,0,0,triangle,circle,,,,,,,,,,,,,,,,,,,,,,,,,,,,,,,,,,,,,,,,,,,,,,,,,,,,,,
298270,2022-11-27_20h05.45.535,vts_reward_expectancy_bt,2022.2.4,Win32,60.06006006,Chrome,1536,864,,,l,0.7492,10,258,1,0,5,5,5,1,0,1,0,0,0,0,0,1,circle,star,,,,,,,,,,,,,,,,,,,,,,,,,,,,,,,,,,,,,,,,,,,,,,,,,,,,,,
298270,2022-11-27_20h05.45.535,vts_reward_expectancy_bt,2022.2.4,Win32,60.06006006,Chrome,1536,864,,,a,0.6989,10,268,1,0,6,6,10,1,0,0,0,1,0,1,0,0,star ,circle,,,,,,,,,,,,,,,,,,,,,,,,,,,,,,,,,,,,,,,,,,,,,,,,,,,,,,
298270,2022-11-27_20h05.45.535,vts_reward_expectancy_bt,2022.2.4,Win32,60.06006006,Chrome,1536,864,,,a,1.282,1,269,1,0,7,7,9,1,0,0,0,1,1,0,0,0,star,triangle,,,,,,,,,,,,,,,,,,,,,,,,,,,,,,,,,,,,,,,,,,,,,,,,,,,,,,
298270,2022-11-27_20h05.45.535,vts_reward_expectancy_bt,2022.2.4,Win32,60.06006006,Chrome,1536,864,,,l,2.4362,1,270,1,0,8,8,2,1,1,0,0,0,0,0,0,1,triangle,star,,,,,,,,,,,,,,,,,,,,,,,,,,,,,,,,,,,,,,,,,,,,,,,,,,,,,,
298270,2022-11-27_20h05.45.535,vts_reward_expectancy_bt,2022.2.4,Win32,60.06006006,Chrome,1536,864,,,a,0.6972,1,271,1,0,9,9,6,1,0,0,1,0,1,0,0,0,hexagon,triangle,,,,,,,,,,,,,,,,,,,,,,,,,,,,,,,,,,,,,,,,,,,,,,,,,,,,,,
298270,2022-11-27_20h05.45.535,vts_reward_expectancy_bt,2022.2.4,Win32,60.06006006,Chrome,1536,864,,,l,0.9471,1,272,1,0,10,10,7,1,0,0,1,0,0,1,0,0,hexagon,circle,,,,,,,,,,,,,,,,,,,,,,,,,,,,,,,,,,,,,,,,,,,,,,,,,,,,,,
298270,2022-11-27_20h05.45.535,vts_reward_expectancy_bt,2022.2.4,Win32,60.06006006,Chrome,1536,864,,,a,0.6308,10,282,1,0,11,11,11,1,0,0,0,1,0,0,1,0,star,hexagon,,,,,,,,,,,,,,,,,,,,,,,,,,,,,,,,,,,,,,,,,,,,,,,,,,,,,,
298270,2022-11-27_20h05.45.535,vts_reward_expectancy_bt,2022.2.4,Win32,60.06006006,Chrome,1536,864,,,a,1.4293,10,292,1,1,0,12,10,1,0,0,0,1,0,1,0,0,star ,circle,,,,,,,,,,,,,,,,,,,,,,,,,,,,,,,,,,,,,,,,,,,,,,,,,,,,,,
298270,2022-11-27_20h05.45.535,vts_reward_expectancy_bt,2022.2.4,Win32,60.06006006,Chrome,1536,864,,,l,2.0415,10,302,1,1,1,13,9,1,0,0,0,1,1,0,0,0,star,triangle,,,,,,,,,,,,,,,,,,,,,,,,,,,,,,,,,,,,,,,,,,,,,,,,,,,,,,
298270,2022-11-27_20h05.45.535,vts_reward_expectancy_bt,2022.2.4,Win32,60.06006006,Chrome,1536,864,,,a,1.1385,1,303,1,1,2,14,3,1,0,1,0,0,1,0,0,0,circle,triangle,,,,,,,,,,,,,,,,,,,,,,,,,,,,,,,,,,,,,,,,,,,,,,,,,,,,,,
298270,2022-11-27_20h05.45.535,vts_reward_expectancy_bt,2022.2.4,Win32,60.06006006,Chrome,1536,864,,,l,0.9625,10,313,1,1,3,15,4,1,0,1,0,0,0,0,1,0,circle,hexagon,,,,,,,,,,,,,,,,,,,,,,,,,,,,,,,,,,,,,,,,,,,,,,,,,,,,,,
298270,2022-11-27_20h05.45.535,vts_reward_expectancy_bt,2022.2.4,Win32,60.06006006,Chrome,1536,864,,,a,1.0216,1,314,1,1,4,16,11,1,0,0,0,1,0,0,1,0,star,hexagon,,,,,,,,,,,,,,,,,,,,,,,,,,,,,,,,,,,,,,,,,,,,,,,,,,,,,,
298270,2022-11-27_20h05.45.535,vts_reward_expectancy_bt,2022.2.4,Win32,60.06006006,Chrome,1536,864,,,a,1.032,10,324,1,1,5,17,7,1,0,0,1,0,0,1,0,0,hexagon,circle,,,,,,,,,,,,,,,,,,,,,,,,,,,,,,,,,,,,,,,,,,,,,,,,,,,,,,
298270,2022-11-27_20h05.45.535,vts_reward_expectancy_bt,2022.2.4,Win32,60.06006006,Chrome,1536,864,,,a,1.1652,1,325,1,1,6,18,6,1,0,0,1,0,1,0,0,0,hexagon,triangle,,,,,,,,,,,,,,,,,,,,,,,,,,,,,,,,,,,,,,,,,,,,,,,,,,,,,,
298270,2022-11-27_20h05.45.535,vts_reward_expectancy_bt,2022.2.4,Win32,60.06006006,Chrome,1536,864,,,l,1.1017,10,335,1,1,7,19,1,1,1,0,0,0,0,0,1,0,triangle,hexagon,,,,,,,,,,,,,,,,,,,,,,,,,,,,,,,,,,,,,,,,,,,,,,,,,,,,,,
298270,2022-11-27_20h05.45.535,vts_reward_expectancy_bt,2022.2.4,Win32,60.06006006,Chrome,1536,864,,,l,0.7003,1,336,1,1,8,20,5,1,0,1,0,0,0,0,0,1,circle,star,,,,,,,,,,,,,,,,,,,,,,,,,,,,,,,,,,,,,,,,,,,,,,,,,,,,,,
298270,2022-11-27_20h05.45.535,vts_reward_expectancy_bt,2022.2.4,Win32,60.06006006,Chrome,1536,864,,,l,0.7336,1,337,1,1,9,21,2,1,1,0,0,0,0,0,0,1,triangle,star,,,,,,,,,,,,,,,,,,,,,,,,,,,,,,,,,,,,,,,,,,,,,,,,,,,,,,
298270,2022-11-27_20h05.45.535,vts_reward_expectancy_bt,2022.2.4,Win32,60.06006006,Chrome,1536,864,,,a,0.6304,10,347,1,1,10,22,0,1,1,0,0,0,0,1,0,0,triangle,circle,,,,,,,,,,,,,,,,,,,,,,,,,,,,,,,,,,,,,,,,,,,,,,,,,,,,,,
298270,2022-11-27_20h05.45.535,vts_reward_expectancy_bt,2022.2.4,Win32,60.06006006,Chrome,1536,864,,,l,0.8297,10,357,1,1,11,23,8,1,0,0,1,0,0,0,0,1,hexagon,star,,,,,,,,,,,,,,,,,,,,,,,,,,,,,,,,,,,,,,,,,,,,,,,,,,,,,,
298270,2022-11-27_20h05.45.535,vts_reward_expectancy_bt,2022.2.4,Win32,60.06006006,Chrome,1536,864,,,a,0.6832,10,367,1,2,0,24,3,1,0,1,0,0,1,0,0,0,circle,triangle,,,,,,,,,,,,,,,,,,,,,,,,,,,,,,,,,,,,,,,,,,,,,,,,,,,,,,
298270,2022-11-27_20h05.45.535,vts_reward_expectancy_bt,2022.2.4,Win32,60.06006006,Chrome,1536,864,,,a,0.8989,10,377,1,2,1,25,9,1,0,0,0,1,1,0,0,0,star,triangle,,,,,,,,,,,,,,,,,,,,,,,,,,,,,,,,,,,,,,,,,,,,,,,,,,,,,,
298270,2022-11-27_20h05.45.535,vts_reward_expectancy_bt,2022.2.4,Win32,60.06006006,Chrome,1536,864,,,l,0.9501,1,378,1,2,2,26,4,1,0,1,0,0,0,0,1,0,circle,hexagon,,,,,,,,,,,,,,,,,,,,,,,,,,,,,,,,,,,,,,,,,,,,,,,,,,,,,,
298270,2022-11-27_20h05.45.535,vts_reward_expectancy_bt,2022.2.4,Win32,60.06006006,Chrome,1536,864,,,a,1.2827,1,379,1,2,3,27,7,1,0,0,1,0,0,1,0,0,hexagon,circle,,,,,,,,,,,,,,,,,,,,,,,,,,,,,,,,,,,,,,,,,,,,,,,,,,,,,,
298270,2022-11-27_20h05.45.535,vts_reward_expectancy_bt,2022.2.4,Win32,60.06006006,Chrome,1536,864,,,a,0.7844,10,389,1,2,4,28,11,1,0,0,0,1,0,0,1,0,star,hexagon,,,,,,,,,,,,,,,,,,,,,,,,,,,,,,,,,,,,,,,,,,,,,,,,,,,,,,
298270,2022-11-27_20h05.45.535,vts_reward_expectancy_bt,2022.2.4,Win32,60.06006006,Chrome,1536,864,,,a,0.8951,10,399,1,2,5,29,10,1,0,0,0,1,0,1,0,0,star ,circle,,,,,,,,,,,,,,,,,,,,,,,,,,,,,,,,,,,,,,,,,,,,,,,,,,,,,,
298270,2022-11-27_20h05.45.535,vts_reward_expectancy_bt,2022.2.4,Win32,60.06006006,Chrome,1536,864,,,a,0.9193,10,409,1,2,6,30,5,1,0,1,0,0,0,0,0,1,circle,star,,,,,,,,,,,,,,,,,,,,,,,,,,,,,,,,,,,,,,,,,,,,,,,,,,,,,,
298270,2022-11-27_20h05.45.535,vts_reward_expectancy_bt,2022.2.4,Win32,60.06006006,Chrome,1536,864,,,a,0.8617,10,419,1,2,7,31,6,1,0,0,1,0,1,0,0,0,hexagon,triangle,,,,,,,,,,,,,,,,,,,,,,,,,,,,,,,,,,,,,,,,,,,,,,,,,,,,,,
298270,2022-11-27_20h05.45.535,vts_reward_expectancy_bt,2022.2.4,Win32,60.06006006,Chrome,1536,864,,,l,0.8322,10,429,1,2,8,32,2,1,1,0,0,0,0,0,0,1,triangle,star,,,,,,,,,,,,,,,,,,,,,,,,,,,,,,,,,,,,,,,,,,,,,,,,,,,,,,
298270,2022-11-27_20h05.45.535,vts_reward_expectancy_bt,2022.2.4,Win32,60.06006006,Chrome,1536,864,,,a,1.1491,10,439,1,2,9,33,1,1,1,0,0,0,0,0,1,0,triangle,hexagon,,,,,,,,,,,,,,,,,,,,,,,,,,,,,,,,,,,,,,,,,,,,,,,,,,,,,,
298270,2022-11-27_20h05.45.535,vts_reward_expectancy_bt,2022.2.4,Win32,60.06006006,Chrome,1536,864,,,a,0.9492,10,449,1,2,10,34,0,1,1,0,0,0,0,1,0,0,triangle,circle,,,,,,,,,,,,,,,,,,,,,,,,,,,,,,,,,,,,,,,,,,,,,,,,,,,,,,
298270,2022-11-27_20h05.45.535,vts_reward_expectancy_bt,2022.2.4,Win32,60.06006006,Chrome,1536,864,,,l,0.6926,1,450,1,2,11,35,8,1,0,0,1,0,0,0,0,1,hexagon,star,,,,,,,,,,,,,,,,,,,,,,,,,,,,,,,,,,,,,,,,,,,,,,,,,,,,,,
298270,2022-11-27_20h05.45.535,vts_reward_expectancy_bt,2022.2.4,Win32,60.06006006,Chrome,1536,864,,,l,1.1036,1,451,2,0,0,0,1,1,1,0,0,0,0,0,1,0,triangle,hexagon,,,,,,,,,,,,,,,,,,,,,,,,,,,,,,,,,,,,,,,,,,,,,,,,,,,,,,
298270,2022-11-27_20h05.45.535,vts_reward_expectancy_bt,2022.2.4,Win32,60.06006006,Chrome,1536,864,,,a,0.6504,1,452,2,0,1,1,0,1,1,0,0,0,0,1,0,0,triangle,circle,,,,,,,,,,,,,,,,,,,,,,,,,,,,,,,,,,,,,,,,,,,,,,,,,,,,,,
298270,2022-11-27_20h05.45.535,vts_reward_expectancy_bt,2022.2.4,Win32,60.06006006,Chrome,1536,864,,,l,0.5329,1,453,2,0,2,2,5,1,0,1,0,0,0,0,0,1,circle,star,,,,,,,,,,,,,,,,,,,,,,,,,,,,,,,,,,,,,,,,,,,,,,,,,,,,,,
298270,2022-11-27_20h05.45.535,vts_reward_expectancy_bt,2022.2.4,Win32,60.06006006,Chrome,1536,864,,,a,1.3892,10,463,2,0,3,3,11,1,0,0,0,1,0,0,1,0,star,hexagon,,,,,,,,,,,,,,,,,,,,,,,,,,,,,,,,,,,,,,,,,,,,,,,,,,,,,,
298270,2022-11-27_20h05.45.535,vts_reward_expectancy_bt,2022.2.4,Win32,60.06006006,Chrome,1536,864,,,a,0.9356,1,464,2,0,4,4,8,1,0,0,1,0,0,0,0,1,hexagon,star,,,,,,,,,,,,,,,,,,,,,,,,,,,,,,,,,,,,,,,,,,,,,,,,,,,,,,
298270,2022-11-27_20h05.45.535,vts_reward_expectancy_bt,2022.2.4,Win32,60.06006006,Chrome,1536,864,,,l,0.9783,1,465,2,0,5,5,9,1,0,0,0,1,1,0,0,0,star,triangle,,,,,,,,,,,,,,,,,,,,,,,,,,,,,,,,,,,,,,,,,,,,,,,,,,,,,,
298270,2022-11-27_20h05.45.535,vts_reward_expectancy_bt,2022.2.4,Win32,60.06006006,Chrome,1536,864,,,l,0.916,10,475,2,0,6,6,4,1,0,1,0,0,0,0,1,0,circle,hexagon,,,,,,,,,,,,,,,,,,,,,,,,,,,,,,,,,,,,,,,,,,,,,,,,,,,,,,
298270,2022-11-27_20h05.45.535,vts_reward_expectancy_bt,2022.2.4,Win32,60.06006006,Chrome,1536,864,,,a,1.7695,10,485,2,0,7,7,10,1,0,0,0,1,0,1,0,0,star ,circle,,,,,,,,,,,,,,,,,,,,,,,,,,,,,,,,,,,,,,,,,,,,,,,,,,,,,,
298270,2022-11-27_20h05.45.535,vts_reward_expectancy_bt,2022.2.4,Win32,60.06006006,Chrome,1536,864,,,l,1.0603,10,495,2,0,8,8,7,1,0,0,1,0,0,1,0,0,hexagon,circle,,,,,,,,,,,,,,,,,,,,,,,,,,,,,,,,,,,,,,,,,,,,,,,,,,,,,,
298270,2022-11-27_20h05.45.535,vts_reward_expectancy_bt,2022.2.4,Win32,60.06006006,Chrome,1536,864,,,a,1.4491,10,505,2,0,9,9,3,1,0,1,0,0,1,0,0,0,circle,triangle,,,,,,,,,,,,,,,,,,,,,,,,,,,,,,,,,,,,,,,,,,,,,,,,,,,,,,
298270,2022-11-27_20h05.45.535,vts_reward_expectancy_bt,2022.2.4,Win32,60.06006006,Chrome,1536,864,,,l,0.9685,10,515,2,0,10,10,2,1,1,0,0,0,0,0,0,1,triangle,star,,,,,,,,,,,,,,,,,,,,,,,,,,,,,,,,,,,,,,,,,,,,,,,,,,,,,,
298270,2022-11-27_20h05.45.535,vts_reward_expectancy_bt,2022.2.4,Win32,60.06006006,Chrome,1536,864,,,a,1.0664,1,516,2,0,11,11,6,1,0,0,1,0,1,0,0,0,hexagon,triangle,,,,,,,,,,,,,,,,,,,,,,,,,,,,,,,,,,,,,,,,,,,,,,,,,,,,,,
298270,2022-11-27_20h05.45.535,vts_reward_expectancy_bt,2022.2.4,Win32,60.06006006,Chrome,1536,864,,,a,1.4966,10,526,2,1,0,12,7,1,0,0,1,0,0,1,0,0,hexagon,circle,,,,,,,,,,,,,,,,,,,,,,,,,,,,,,,,,,,,,,,,,,,,,,,,,,,,,,
298270,2022-11-27_20h05.45.535,vts_reward_expectancy_bt,2022.2.4,Win32,60.06006006,Chrome,1536,864,,,l,0.6703,10,536,2,1,1,13,8,1,0,0,1,0,0,0,0,1,hexagon,star,,,,,,,,,,,,,,,,,,,,,,,,,,,,,,,,,,,,,,,,,,,,,,,,,,,,,,
298270,2022-11-27_20h05.45.535,vts_reward_expectancy_bt,2022.2.4,Win32,60.06006006,Chrome,1536,864,,,a,0.7989,1,537,2,1,2,14,5,1,0,1,0,0,0,0,0,1,circle,star,,,,,,,,,,,,,,,,,,,,,,,,,,,,,,,,,,,,,,,,,,,,,,,,,,,,,,
298270,2022-11-27_20h05.45.535,vts_reward_expectancy_bt,2022.2.4,Win32,60.06006006,Chrome,1536,864,,,a,1.2568,1,538,2,1,3,15,3,1,0,1,0,0,1,0,0,0,circle,triangle,,,,,,,,,,,,,,,,,,,,,,,,,,,,,,,,,,,,,,,,,,,,,,,,,,,,,,
298270,2022-11-27_20h05.45.535,vts_reward_expectancy_bt,2022.2.4,Win32,60.06006006,Chrome,1536,864,,,a,0.6014,10,548,2,1,4,16,11,1,0,0,0,1,0,0,1,0,star,hexagon,,,,,,,,,,,,,,,,,,,,,,,,,,,,,,,,,,,,,,,,,,,,,,,,,,,,,,
298270,2022-11-27_20h05.45.535,vts_reward_expectancy_bt,2022.2.4,Win32,60.06006006,Chrome,1536,864,,,l,0.7706,1,549,2,1,5,17,2,1,1,0,0,0,0,0,0,1,triangle,star,,,,,,,,,,,,,,,,,,,,,,,,,,,,,,,,,,,,,,,,,,,,,,,,,,,,,,
298270,2022-11-27_20h05.45.535,vts_reward_expectancy_bt,2022.2.4,Win32,60.06006006,Chrome,1536,864,,,a,0.6607,10,559,2,1,6,18,9,1,0,0,0,1,1,0,0,0,star,triangle,,,,,,,,,,,,,,,,,,,,,,,,,,,,,,,,,,,,,,,,,,,,,,,,,,,,,,
298270,2022-11-27_20h05.45.535,vts_reward_expectancy_bt,2022.2.4,Win32,60.06006006,Chrome,1536,864,,,a,0.9794,10,569,2,1,7,19,0,1,1,0,0,0,0,1,0,0,triangle,circle,,,,,,,,,,,,,,,,,,,,,,,,,,,,,,,,,,,,,,,,,,,,,,,,,,,,,,
298270,2022-11-27_20h05.45.535,vts_reward_expectancy_bt,2022.2.4,Win32,60.06006006,Chrome,1536,864,,,a,0.588,10,579,2,1,8,20,10,1,0,0,0,1,0,1,0,0,star ,circle,,,,,,,,,,,,,,,,,,,,,,,,,,,,,,,,,,,,,,,,,,,,,,,,,,,,,,
298270,2022-11-27_20h05.45.535,vts_reward_expectancy_bt,2022.2.4,Win32,60.06006006,Chrome,1536,864,,,a,0.9816,10,589,2,1,9,21,4,1,0,1,0,0,0,0,1,0,circle,hexagon,,,,,,,,,,,,,,,,,,,,,,,,,,,,,,,,,,,,,,,,,,,,,,,,,,,,,,
298270,2022-11-27_20h05.45.535,vts_reward_expectancy_bt,2022.2.4,Win32,60.06006006,Chrome,1536,864,,,a,1.9491,10,599,2,1,10,22,6,1,0,0,1,0,1,0,0,0,hexagon,triangle,,,,,,,,,,,,,,,,,,,,,,,,,,,,,,,,,,,,,,,,,,,,,,,,,,,,,,
298270,2022-11-27_20h05.45.535,vts_reward_expectancy_bt,2022.2.4,Win32,60.06006006,Chrome,1536,864,,,l,0.8245,10,609,2,1,11,23,1,1,1,0,0,0,0,0,1,0,triangle,hexagon,,,,,,,,,,,,,,,,,,,,,,,,,,,,,,,,,,,,,,,,,,,,,,,,,,,,,,
298270,2022-11-27_20h05.45.535,vts_reward_expectancy_bt,2022.2.4,Win32,60.06006006,Chrome,1536,864,,,l,0.9641,1,610,2,2,0,24,5,1,0,1,0,0,0,0,0,1,circle,star,,,,,,,,,,,,,,,,,,,,,,,,,,,,,,,,,,,,,,,,,,,,,,,,,,,,,,
298270,2022-11-27_20h05.45.535,vts_reward_expectancy_bt,2022.2.4,Win32,60.06006006,Chrome,1536,864,,,a,0.7326,10,620,2,2,1,25,3,1,0,1,0,0,1,0,0,0,circle,triangle,,,,,,,,,,,,,,,,,,,,,,,,,,,,,,,,,,,,,,,,,,,,,,,,,,,,,,
298270,2022-11-27_20h05.45.535,vts_reward_expectancy_bt,2022.2.4,Win32,60.06006006,Chrome,1536,864,,,a,0.8964,10,630,2,2,2,26,7,1,0,0,1,0,0,1,0,0,hexagon,circle,,,,,,,,,,,,,,,,,,,,,,,,,,,,,,,,,,,,,,,,,,,,,,,,,,,,,,
298270,2022-11-27_20h05.45.535,vts_reward_expectancy_bt,2022.2.4,Win32,60.06006006,Chrome,1536,864,,,l,0.7831,10,640,2,2,3,27,8,1,0,0,1,0,0,0,0,1,hexagon,star,,,,,,,,,,,,,,,,,,,,,,,,,,,,,,,,,,,,,,,,,,,,,,,,,,,,,,
298270,2022-11-27_20h05.45.535,vts_reward_expectancy_bt,2022.2.4,Win32,60.06006006,Chrome,1536,864,,,a,0.7653,10,650,2,2,4,28,6,1,0,0,1,0,1,0,0,0,hexagon,triangle,,,,,,,,,,,,,,,,,,,,,,,,,,,,,,,,,,,,,,,,,,,,,,,,,,,,,,
298270,2022-11-27_20h05.45.535,vts_reward_expectancy_bt,2022.2.4,Win32,60.06006006,Chrome,1536,864,,,l,0.9831,10,660,2,2,5,29,10,1,0,0,0,1,0,1,0,0,star ,circle,,,,,,,,,,,,,,,,,,,,,,,,,,,,,,,,,,,,,,,,,,,,,,,,,,,,,,
298270,2022-11-27_20h05.45.535,vts_reward_expectancy_bt,2022.2.4,Win32,60.06006006,Chrome,1536,864,,,a,0.7925,10,670,2,2,6,30,9,1,0,0,0,1,1,0,0,0,star,triangle,,,,,,,,,,,,,,,,,,,,,,,,,,,,,,,,,,,,,,,,,,,,,,,,,,,,,,
298270,2022-11-27_20h05.45.535,vts_reward_expectancy_bt,2022.2.4,Win32,60.06006006,Chrome,1536,864,,,l,0.8486,10,680,2,2,7,31,1,1,1,0,0,0,0,0,1,0,triangle,hexagon,,,,,,,,,,,,,,,,,,,,,,,,,,,,,,,,,,,,,,,,,,,,,,,,,,,,,,
298270,2022-11-27_20h05.45.535,vts_reward_expectancy_bt,2022.2.4,Win32,60.06006006,Chrome,1536,864,,,a,1.3324,10,690,2,2,8,32,0,1,1,0,0,0,0,1,0,0,triangle,circle,,,,,,,,,,,,,,,,,,,,,,,,,,,,,,,,,,,,,,,,,,,,,,,,,,,,,,
298270,2022-11-27_20h05.45.535,vts_reward_expectancy_bt,2022.2.4,Win32,60.06006006,Chrome,1536,864,,,l,0.9907,1,691,2,2,9,33,11,1,0,0,0,1,0,0,1,0,star,hexagon,,,,,,,,,,,,,,,,,,,,,,,,,,,,,,,,,,,,,,,,,,,,,,,,,,,,,,
298270,2022-11-27_20h05.45.535,vts_reward_expectancy_bt,2022.2.4,Win32,60.06006006,Chrome,1536,864,,,l,0.9703,1,692,2,2,10,34,4,1,0,1,0,0,0,0,1,0,circle,hexagon,,,,,,,,,,,,,,,,,,,,,,,,,,,,,,,,,,,,,,,,,,,,,,,,,,,,,,
298270,2022-11-27_20h05.45.535,vts_reward_expectancy_bt,2022.2.4,Win32,60.06006006,Chrome,1536,864,,,l,1.0306,1,693,2,2,11,35,2,1,1,0,0,0,0,0,0,1,triangle,star,,,,,,,,,,,,,,,,,,,,,,,,,,,,,,,,,,,,,,,,,,,,,,,,,,,,,,
298270,2022-11-27_20h05.45.535,vts_reward_expectancy_bt,2022.2.4,Win32,60.06006006,Chrome,1536,864,,,,,,,,,,,,,,,,,,,,,,,S,125,circle,1,0,f,2.5084,0,0,0,0,0,1,,,,,,,,,,,,,,,,,,,,,,,,,,,,,,,,,,,,,,,,,
298270,2022-11-27_20h05.45.535,vts_reward_expectancy_bt,2022.2.4,Win32,60.06006006,Chrome,1536,864,,,,,,,,,,,,,,,,,,,,,,,F,181,triangle,1,0,d,2.7583,0,1,0,1,0,1,,,,,,,,,,,,,,,,,,,,,,,,,,,,,,,,,,,,,,,,,
298270,2022-11-27_20h05.45.535,vts_reward_expectancy_bt,2022.2.4,Win32,60.06006006,Chrome,1536,864,,,,,,,,,,,,,,,,,,,,,,,H,174,hexagon,1,0,d,0.7633,0,2,0,2,0,1,,,,,,,,,,,,,,,,,,,,,,,,,,,,,,,,,,,,,,,,,
298270,2022-11-27_20h05.45.535,vts_reward_expectancy_bt,2022.2.4,Win32,60.06006006,Chrome,1536,864,,,,,,,,,,,,,,,,,,,,,,,B,146,star,1,0,d,0.992,0,3,0,3,0,1,,,,,,,,,,,,,,,,,,,,,,,,,,,,,,,,,,,,,,,,,
298270,2022-11-27_20h05.45.535,vts_reward_expectancy_bt,2022.2.4,Win32,60.06006006,Chrome,1536,864,,,,,,,,,,,,,,,,,,,,,,,Y,167,circle,1,0,f,0.9612,0,4,0,4,0,1,,,,,,,,,,,,,,,,,,,,,,,,,,,,,,,,,,,,,,,,,
298270,2022-11-27_20h05.45.535,vts_reward_expectancy_bt,2022.2.4,Win32,60.06006006,Chrome,1536,864,,,,,,,,,,,,,,,,,,,,,,,D,139,triangle,1,0,d,0.8447,0,5,0,5,0,1,,,,,,,,,,,,,,,,,,,,,,,,,,,,,,,,,,,,,,,,,
298270,2022-11-27_20h05.45.535,vts_reward_expectancy_bt,2022.2.4,Win32,60.06006006,Chrome,1536,864,,,,,,,,,,,,,,,,,,,,,,,U,132,hexagon,1,0,f,0.8115,0,6,0,6,0,1,,,,,,,,,,,,,,,,,,,,,,,,,,,,,,,,,,,,,,,,,
298270,2022-11-27_20h05.45.535,vts_reward_expectancy_bt,2022.2.4,Win32,60.06006006,Chrome,1536,864,,,,,,,,,,,,,,,,,,,,,,,W,160,star,1,0,f,0.7935,0,7,0,7,0,1,,,,,,,,,,,,,,,,,,,,,,,,,,,,,,,,,,,,,,,,,
298270,2022-11-27_20h05.45.535,vts_reward_expectancy_bt,2022.2.4,Win32,60.06006006,Chrome,1536,864,,,,,,,,,,,,,,,,,,,,,,,S,125,star,1,0,f,1.4491,0,8,0,8,0,1,,,,,,,,,,,,,,,,,,,,,,,,,,,,,,,,,,,,,,,,,
298270,2022-11-27_20h05.45.535,vts_reward_expectancy_bt,2022.2.4,Win32,60.06006006,Chrome,1536,864,,,,,,,,,,,,,,,,,,,,,,,F,181,circle,1,0,d,0.6143,0,9,0,9,0,1,,,,,,,,,,,,,,,,,,,,,,,,,,,,,,,,,,,,,,,,,
298270,2022-11-27_20h05.45.535,vts_reward_expectancy_bt,2022.2.4,Win32,60.06006006,Chrome,1536,864,,,,,,,,,,,,,,,,,,,,,,,Y,167,star,1,0,,,1,,,,,,k,0.7896,0,0,0,0,1,,,,,,,,,,,,,,,,,,,,,,,,,,,,,,,,,,
298270,2022-11-27_20h05.45.535,vts_reward_expectancy_bt,2022.2.4,Win32,60.06006006,Chrome,1536,864,,,,,,,,,,,,,,,,,,,,,,,U,125,triangle,1,0,,,1,,,,,,j,0.6844,1,0,1,0,1,,,,,,,,,,,,,,,,,,,,,,,,,,,,,,,,,,
298270,2022-11-27_20h05.45.535,vts_reward_expectancy_bt,2022.2.4,Win32,60.06006006,Chrome,1536,864,,,,,,,,,,,,,,,,,,,,,,,H,174,hexagon,1,0,,,1,,,,,,k,0.6342,2,0,2,0,1,,,,,,,,,,,,,,,,,,,,,,,,,,,,,,,,,,
298270,2022-11-27_20h05.45.535,vts_reward_expectancy_bt,2022.2.4,Win32,60.06006006,Chrome,1536,864,,,,,,,,,,,,,,,,,,,,,,,B,181,circle,1,0,,,1,,,,,,k,0.6166,3,0,3,0,1,,,,,,,,,,,,,,,,,,,,,,,,,,,,,,,,,,
298270,2022-11-27_20h05.45.535,vts_reward_expectancy_bt,2022.2.4,Win32,60.06006006,Chrome,1536,864,,,,,,,,,,,,,,,,,,,,,,,S,160,star,1,0,,,1,,,,,,k,0.6732,4,0,4,0,1,,,,,,,,,,,,,,,,,,,,,,,,,,,,,,,,,,
298270,2022-11-27_20h05.45.535,vts_reward_expectancy_bt,2022.2.4,Win32,60.06006006,Chrome,1536,864,,,,,,,,,,,,,,,,,,,,,,,D,132,triangle,1,0,,,1,,,,,,j,0.9812,5,0,5,0,1,,,,,,,,,,,,,,,,,,,,,,,,,,,,,,,,,,
298270,2022-11-27_20h05.45.535,vts_reward_expectancy_bt,2022.2.4,Win32,60.06006006,Chrome,1536,864,,,,,,,,,,,,,,,,,,,,,,,F,139,hexagon,1,0,,,1,,,,,,j,0.9748,6,0,6,0,1,,,,,,,,,,,,,,,,,,,,,,,,,,,,,,,,,,
298270,2022-11-27_20h05.45.535,vts_reward_expectancy_bt,2022.2.4,Win32,60.06006006,Chrome,1536,864,,,,,,,,,,,,,,,,,,,,,,,W,146,circle,1,0,,,1,,,,,,j,0.7572,7,0,7,0,1,,,,,,,,,,,,,,,,,,,,,,,,,,,,,,,,,,
298270,2022-11-27_20h05.45.535,vts_reward_expectancy_bt,2022.2.4,Win32,60.06006006,Chrome,1536,864,,,,,,,,,,,,,,,,,,,,,,,Y,167,circle,1,0,,,1,,,,,,k,0.6968,8,0,8,0,1,,,,,,,,,,,,,,,,,,,,,,,,,,,,,,,,,,
298270,2022-11-27_20h05.45.535,vts_reward_expectancy_bt,2022.2.4,Win32,60.06006006,Chrome,1536,864,,,,,,,,,,,,,,,,,,,,,,,U,125,star,1,0,,,1,,,,,,j,0.6159,9,0,9,0,1,,,,,,,,,,,,,,,,,,,,,,,,,,,,,,,,,,
298270,2022-11-27_20h05.45.535,vts_reward_expectancy_bt,2022.2.4,Win32,60.06006006,Chrome,1536,864,,,,,0,693,,,,,,,,,,,,,,,,,H,160,hexagon,1,0,,,2,,,,,,,,,,,,,-1,letter,NA,d,1.394,vtsPrac,0,0,0,0,1,,,,,,,,,,,,,,,,,,,,,,,
298270,2022-11-27_20h05.45.535,vts_reward_expectancy_bt,2022.2.4,Win32,60.06006006,Chrome,1536,864,,,,,0,693,,,,,,,,,,,,,,,,,U,181,star,1,0,,,2,,,,,,,,,,,,,repeat,letter,lettRpt,f,1.0935,vtsPrac,1,0,1,0,1,,,,,,,,,,,,,,,,,,,,,,,
298270,2022-11-27_20h05.45.535,vts_reward_expectancy_bt,2022.2.4,Win32,60.06006006,Chrome,1536,864,,,,,0,693,,,,,,,,,,,,,,,,,W,132,hexagon,1,0,,,2,,,,,,,,,,,,,switch,number,numSwt,j,0.7174,vtsPrac,2,0,2,0,1,,,,,,,,,,,,,,,,,,,,,,,
298270,2022-11-27_20h05.45.535,vts_reward_expectancy_bt,2022.2.4,Win32,60.06006006,Chrome,1536,864,,,,,0,693,,,,,,,,,,,,,,,,,S,167,star,1,0,,,2,,,,,,,,,,,,,switch,letter,lettSwt,f,1.3486,vtsPrac,3,0,3,0,1,,,,,,,,,,,,,,,,,,,,,,,
298270,2022-11-27_20h05.45.535,vts_reward_expectancy_bt,2022.2.4,Win32,60.06006006,Chrome,1536,864,,,,,0,693,,,,,,,,,,,,,,,,,H,160,star,1,0,,,2,,,,,,,,,,,,,switch,number,numSwt,k,1.1127,vtsPrac,4,0,4,0,1,,,,,,,,,,,,,,,,,,,,,,,
298270,2022-11-27_20h05.45.535,vts_reward_expectancy_bt,2022.2.4,Win32,60.06006006,Chrome,1536,864,,,,,0,693,,,,,,,,,,,,,,,,,U,181,hexagon,1,0,,,2,,,,,,,,,,,,,repeat,number,numRpt,k,0.7461,vtsPrac,5,0,5,0,1,,,,,,,,,,,,,,,,,,,,,,,
298270,2022-11-27_20h05.45.535,vts_reward_expectancy_bt,2022.2.4,Win32,60.06006006,Chrome,1536,864,,,,,0,693,,,,,,,,,,,,,,,,,W,132,star,1,0,,,2,,,,,,,,,,,,,repeat,number,numRpt,j,0.8308,vtsPrac,6,0,6,0,1,,,,,,,,,,,,,,,,,,,,,,,
298270,2022-11-27_20h05.45.535,vts_reward_expectancy_bt,2022.2.4,Win32,60.06006006,Chrome,1536,864,,,,,0,693,,,,,,,,,,,,,,,,,S,167,circle,1,0,,,2,,,,,,,,,,,,,switch,letter,lettSwt,f,0.9492,vtsPrac,7,0,7,0,1,,,,,,,,,,,,,,,,,,,,,,,
298270,2022-11-27_20h05.45.535,vts_reward_expectancy_bt,2022.2.4,Win32,60.06006006,Chrome,1536,864,,,,,0,693,,,,,,,,,,,,,,,,,W,125,circle,1,0,,,2,,,,,,,,,,,,,switch,number,numSwt,j,0.8122,vtsPrac,8,0,8,0,1,,,,,,,,,,,,,,,,,,,,,,,
298270,2022-11-27_20h05.45.535,vts_reward_expectancy_bt,2022.2.4,Win32,60.06006006,Chrome,1536,864,,,,,0,693,,,,,,,,,,,,,,,,,S,160,star,1,0,,,2,,,,,,,,,,,,,switch,letter,lettSwt,f,0.6471,vtsPrac,9,0,9,0,1,,,,,,,,,,,,,,,,,,,,,,,
298270,2022-11-27_20h05.45.535,vts_reward_expectancy_bt,2022.2.4,Win32,60.06006006,Chrome,1536,864,,,,,0,693,,,,,,,,,,,,,,,,,Y,181,triangle,1,0,,,2,,,,,,,,,,,,,repeat,letter,lettRpt,f,0.7808,vtsPrac,10,0,10,0,1,,,,,,,,,,,,,,,,,,,,,,,
298270,2022-11-27_20h05.45.535,vts_reward_expectancy_bt,2022.2.4,Win32,60.06006006,Chrome,1536,864,,,,,0,693,,,,,,,,,,,,,,,,,B,174,circle,1,0,,,2,,,,,,,,,,,,,switch,number,numSwt,k,1.712,vtsPrac,11,0,11,0,1,,,,,,,,,,,,,,,,,,,,,,,
298270,2022-11-27_20h05.45.535,vts_reward_expectancy_bt,2022.2.4,Win32,60.06006006,Chrome,1536,864,,,,,0,693,,,,,,,,,,,,,,,,,F,132,triangle,1,0,,,2,,,,,,,,,,,,,switch,letter,lettSwt,d,1.0798,vtsPrac,12,0,12,0,1,,,,,,,,,,,,,,,,,,,,,,,
298270,2022-11-27_20h05.45.535,vts_reward_expectancy_bt,2022.2.4,Win32,60.06006006,Chrome,1536,864,,,,,0,693,,,,,,,,,,,,,,,,,B,181,circle,1,0,,,2,,,,,,,,,,,,,repeat,letter,lettRpt,d,0.7135,vtsPrac,13,0,13,0,1,,,,,,,,,,,,,,,,,,,,,,,
298270,2022-11-27_20h05.45.535,vts_reward_expectancy_bt,2022.2.4,Win32,60.06006006,Chrome,1536,864,,,,,0,693,,,,,,,,,,,,,,,,,U,160,star,1,0,,,2,,,,,,,,,,,,,repeat,letter,lettRpt,f,1.3591,vtsPrac,14,0,14,0,1,,,,,,,,,,,,,,,,,,,,,,,
298270,2022-11-27_20h05.45.535,vts_reward_expectancy_bt,2022.2.4,Win32,60.06006006,Chrome,1536,864,,,,,0,693,,,,,,,,,,,,,,,,,S,146,hexagon,1,0,,,2,,,,,,,,,,,,,switch,number,numSwt,j,0.9338,vtsPrac,15,0,15,0,1,,,,,,,,,,,,,,,,,,,,,,,
298270,2022-11-27_20h05.45.535,vts_reward_expectancy_bt,2022.2.4,Win32,60.06006006,Chrome,1536,864,,,,,0,693,,,,,,,,,,,,,,,,,H,139,triangle,1,0,,,2,,,,,,,,,,,,,switch,letter,lettSwt,d,1.6945,vtsPrac,16,0,16,0,1,,,,,,,,,,,,,,,,,,,,,,,
298270,2022-11-27_20h05.45.535,vts_reward_expectancy_bt,2022.2.4,Win32,60.06006006,Chrome,1536,864,,,,,0,693,,,,,,,,,,,,,,,,,S,132,circle,1,0,,,2,,,,,,,,,,,,,switch,number,numSwt,j,0.7295,vtsPrac,17,0,17,0,1,,,,,,,,,,,,,,,,,,,,,,,
298270,2022-11-27_20h05.45.535,vts_reward_expectancy_bt,2022.2.4,Win32,60.06006006,Chrome,1536,864,,,,,0,693,,,,,,,,,,,,,,,,,B,160,circle,1,0,,,2,,,,,,,,,,,,,switch,letter,lettSwt,d,0.7303,vtsPrac,18,0,18,0,1,,,,,,,,,,,,,,,,,,,,,,,
298270,2022-11-27_20h05.45.535,vts_reward_expectancy_bt,2022.2.4,Win32,60.06006006,Chrome,1536,864,,,,,0,693,,,,,,,,,,,,,,,,,U,174,hexagon,1,0,,,2,,,,,,,,,,,,,repeat,letter,lettRpt,f,0.8114,vtsPrac,19,0,19,0,1,,,,,,,,,,,,,,,,,,,,,,,
298270,2022-11-27_20h05.45.535,vts_reward_expectancy_bt,2022.2.4,Win32,60.06006006,Chrome,1536,864,,,,,0,693,,,,,,,,,,,,,,,,,W,160,hexagon,1,0,,,2,,,,,,,,,,,,,switch,number,numSwt,k,1.0936,vtsPrac,20,0,20,0,1,,,,,,,,,,,,,,,,,,,,,,,
298270,2022-11-27_20h05.45.535,vts_reward_expectancy_bt,2022.2.4,Win32,60.06006006,Chrome,1536,864,,,,,0,693,,,,,,,,,,,,,,,,,S,125,circle,1,0,,,2,,,,,,,,,,,,,switch,letter,lettSwt,f,0.6667,vtsPrac,21,0,21,0,1,,,,,,,,,,,,,,,,,,,,,,,
298270,2022-11-27_20h05.45.535,vts_reward_expectancy_bt,2022.2.4,Win32,60.06006006,Chrome,1536,864,,,,,0,693,,,,,,,,,,,,,,,,,D,139,hexagon,1,0,,,2,,,,,,,,,,,,,repeat,letter,lettRpt,d,0.943,vtsPrac,22,0,22,0,1,,,,,,,,,,,,,,,,,,,,,,,
298270,2022-11-27_20h05.45.535,vts_reward_expectancy_bt,2022.2.4,Win32,60.06006006,Chrome,1536,864,,,,,0,693,,,,,,,,,,,,,,,,,H,146,triangle,1,0,,,2,,,,,,,,,,,,,switch,number,numSwt,j,0.9941,vtsPrac,23,0,23,0,1,,,,,,,,,,,,,,,,,,,,,,,
298270,2022-11-27_20h05.45.535,vts_reward_expectancy_bt,2022.2.4,Win32,60.06006006,Chrome,1536,864,,,,,0,693,,,,,,,,,,,,,,,,,B,132,star,1,0,,,2,,,,,,,,,,,,,repeat,number,numRpt,j,0.6803,vtsPrac,24,0,24,0,1,,,,,,,,,,,,,,,,,,,,,,,
298270,2022-11-27_20h05.45.535,vts_reward_expectancy_bt,2022.2.4,Win32,60.06006006,Chrome,1536,864,,,,,0,693,,,,,,,,,,,,,,,,,Y,139,circle,1,0,,,2,,,,,,,,,,,,,repeat,number,numRpt,j,1.1665,vtsPrac,25,0,25,0,1,,,,,,,,,,,,,,,,,,,,,,,
298270,2022-11-27_20h05.45.535,vts_reward_expectancy_bt,2022.2.4,Win32,60.06006006,Chrome,1536,864,,,,,0,693,,,,,,,,,,,,,,,,,U,167,triangle,1,0,,,2,,,,,,,,,,,,,switch,letter,lettSwt,f,0.8625,vtsPrac,26,0,26,0,1,,,,,,,,,,,,,,,,,,,,,,,
298270,2022-11-27_20h05.45.535,vts_reward_expectancy_bt,2022.2.4,Win32,60.06006006,Chrome,1536,864,,,,,0,693,,,,,,,,,,,,,,,,,S,125,hexagon,1,0,,,2,,,,,,,,,,,,,switch,number,numSwt,j,0.8203,vtsPrac,27,0,27,0,1,,,,,,,,,,,,,,,,,,,,,,,
298270,2022-11-27_20h05.45.535,vts_reward_expectancy_bt,2022.2.4,Win32,60.06006006,Chrome,1536,864,,,,,0,693,,,,,,,,,,,,,,,,,B,125,hexagon,1,0,,,2,,,,,,,,,,,,,switch,letter,lettSwt,d,0.7999,vtsPrac,28,0,28,0,1,,,,,,,,,,,,,,,,,,,,,,,
298270,2022-11-27_20h05.45.535,vts_reward_expectancy_bt,2022.2.4,Win32,60.06006006,Chrome,1536,864,,,,,0,693,,,,,,,,,,,,,,,,,W,132,star,1,0,,,2,,,,,,,,,,,,,switch,number,numSwt,j,0.7595,vtsPrac,29,0,29,0,1,,,,,,,,,,,,,,,,,,,,,,,
298270,2022-11-27_20h05.45.535,vts_reward_expectancy_bt,2022.2.4,Win32,60.06006006,Chrome,1536,864,,,,,0,693,,,,,,,,,,,,,,,,,S,139,hexagon,1,0,,,2,,,,,,,,,,,,,switch,letter,lettSwt,f,0.7491,vtsPrac,30,0,30,0,1,,,,,,,,,,,,,,,,,,,,,,,
298270,2022-11-27_20h05.45.535,vts_reward_expectancy_bt,2022.2.4,Win32,60.06006006,Chrome,1536,864,,,,,0,693,,,,,,,,,,,,,,,,,U,160,star,1,0,,,2,,,,,,,,,,,,,switch,number,numSwt,k,1.3438,vtsPrac,31,0,31,0,1,,,,,,,,,,,,,,,,,,,,,,,
298270,2022-11-27_20h05.45.535,vts_reward_expectancy_bt,2022.2.4,Win32,60.06006006,Chrome,1536,864,,,,,,,,,,,,,,,,,,,,,,,,,,,,,,,,,,,,,,,,,,,,,,,,,,,,,,,,,,,,,,,,,,,,,,,,,,,,
298270,2022-11-27_20h05.45.535,vts_reward_expectancy_bt,2022.2.4,Win32,60.06006006,Chrome,1536,864,,,,,,,,,,,,,,,,,,,,,,,,,,,,,,,,,,,,,,,,,,,,,,,,,,,,,,,,,,,,,,,,,,,,,,,,,,,,
298270,2022-11-27_20h05.45.535,vts_reward_expectancy_bt,2022.2.4,Win32,60.06006006,Chrome,1536,864,,,,,0,693,,,,,,,,,,,,,,,,,B,174,star,1,0,,,,,,,,,,,,,,,,switch,letter,lettSwt,d,0.9302,noRew,,,,,,0,0,0,0,0,1,,,,,,,,,,,,,,,,,
298270,2022-11-27_20h05.45.535,vts_reward_expectancy_bt,2022.2.4,Win32,60.06006006,Chrome,1536,864,,,,,0,693,,,,,,,,,,,,,,,,,Y,146,circle,0,0,,,,,,,,,,,,,,,,repeat,letter,NA,d,0.7263,noRew,,,,,,0,1,0,1,0,1,,,,,,,,,,,,,,,,,
298270,2022-11-27_20h05.45.535,vts_reward_expectancy_bt,2022.2.4,Win32,60.06006006,Chrome,1536,864,,,,,0,693,,,,,,,,,,,,,,,,,D,181,star,1,1,,,,,,,,,,,,,,,,repeat,letter,lettRpt,d,1.2817,noRew,,,,,,0,2,0,2,0,1,,,,,,,,,,,,,,,,,
298270,2022-11-27_20h05.45.535,vts_reward_expectancy_bt,2022.2.4,Win32,60.06006006,Chrome,1536,864,,,,,0,693,,,,,,,,,,,,,,,,,H,160,circle,1,0,,,,,,,,,,,,,,,,switch,number,numSwt,k,0.8831,noRew,,,,,,0,3,0,3,0,1,,,,,,,,,,,,,,,,,
298270,2022-11-27_20h05.45.535,vts_reward_expectancy_bt,2022.2.4,Win32,60.06006006,Chrome,1536,864,,,,,0,693,,,,,,,,,,,,,,,,,B,174,star,1,0,,,,,,,,,,,,,,,,repeat,number,numRpt,k,0.7934,noRew,,,,,,0,4,0,4,0,1,,,,,,,,,,,,,,,,,
298270,2022-11-27_20h05.45.535,vts_reward_expectancy_bt,2022.2.4,Win32,60.06006006,Chrome,1536,864,,,,,0,693,,,,,,,,,,,,,,,,,Y,146,triangle,1,0,,,,,,,,,,,,,,,,switch,letter,lettSwt,f,0.6783,noRew,,,,,,0,5,0,5,0,1,,,,,,,,,,,,,,,,,
298270,2022-11-27_20h05.45.535,vts_reward_expectancy_bt,2022.2.4,Win32,60.06006006,Chrome,1536,864,,,,,0,693,,,,,,,,,,,,,,,,,D,181,star,1,0,,,,,,,,,,,,,,,,repeat,letter,lettRpt,d,0.7498,noRew,,,,,,0,6,0,6,0,1,,,,,,,,,,,,,,,,,
298270,2022-11-27_20h05.45.535,vts_reward_expectancy_bt,2022.2.4,Win32,60.06006006,Chrome,1536,864,,,,,0,693,,,,,,,,,,,,,,,,,H,160,triangle,1,0,,,,,,,,,,,,,,,,switch,number,numSwt,k,0.8633,noRew,,,,,,0,7,0,7,0,1,,,,,,,,,,,,,,,,,
298270,2022-11-27_20h05.45.535,vts_reward_expectancy_bt,2022.2.4,Win32,60.06006006,Chrome,1536,864,,,,,0,693,,,,,,,,,,,,,,,,,U,125,star,1,0,,,,,,,,,,,,,,,,switch,letter,lettSwt,f,1.1089,noRew,,,,,,0,8,0,8,0,1,,,,,,,,,,,,,,,,,
298270,2022-11-27_20h05.45.535,vts_reward_expectancy_bt,2022.2.4,Win32,60.06006006,Chrome,1536,864,,,,,0,693,,,,,,,,,,,,,,,,,Y,132,hexagon,1,0,,,,,,,,,,,,,,,,repeat,letter,lettRpt,f,0.7467,noRew,,,,,,0,9,0,9,0,1,,,,,,,,,,,,,,,,,
298270,2022-11-27_20h05.45.535,vts_reward_expectancy_bt,2022.2.4,Win32,60.06006006,Chrome,1536,864,,,,,0,693,,,,,,,,,,,,,,,,,H,174,circle,1,0,,,,,,,,,,,,,,,,switch,number,numSwt,k,0.6968,noRew,,,,,,0,10,0,10,0,1,,,,,,,,,,,,,,,,,
298270,2022-11-27_20h05.45.535,vts_reward_expectancy_bt,2022.2.4,Win32,60.06006006,Chrome,1536,864,,,,,0,693,,,,,,,,,,,,,,,,,S,146,hexagon,1,0,,,,,,,,,,,,,,,,repeat,number,numRpt,j,1.0919,noRew,,,,,,0,11,0,11,0,1,,,,,,,,,,,,,,,,,
298270,2022-11-27_20h05.45.535,vts_reward_expectancy_bt,2022.2.4,Win32,60.06006006,Chrome,1536,864,,,,,0,693,,,,,,,,,,,,,,,,,S,160,hexagon,1,0,,,,,,,,,,,,,,,,switch,letter,lettSwt,f,1.0647,noRew,,,,,,0,12,0,12,0,1,,,,,,,,,,,,,,,,,
298270,2022-11-27_20h05.45.535,vts_reward_expectancy_bt,2022.2.4,Win32,60.06006006,Chrome,1536,864,,,,,0,693,,,,,,,,,,,,,,,,,Y,132,circle,1,0,,,,,,,,,,,,,,,,switch,number,numSwt,j,0.7439,noRew,,,,,,0,13,0,13,0,1,,,,,,,,,,,,,,,,,
298270,2022-11-27_20h05.45.535,vts_reward_expectancy_bt,2022.2.4,Win32,60.06006006,Chrome,1536,864,,,,,0,693,,,,,,,,,,,,,,,,,B,174,star,1,0,,,,,,,,,,,,,,,,switch,letter,lettSwt,d,0.6774,noRew,,,,,,0,14,0,14,0,1,,,,,,,,,,,,,,,,,
298270,2022-11-27_20h05.45.535,vts_reward_expectancy_bt,2022.2.4,Win32,60.06006006,Chrome,1536,864,,,,,0,693,,,,,,,,,,,,,,,,,H,146,triangle,1,0,,,,,,,,,,,,,,,,repeat,letter,lettRpt,d,0.8125,noRew,,,,,,0,15,0,15,0,1,,,,,,,,,,,,,,,,,
298270,2022-11-27_20h05.45.535,vts_reward_expectancy_bt,2022.2.4,Win32,60.06006006,Chrome,1536,864,,,,,0,693,,,,,,,,,,,,,,,,,F,181,circle,1,0,,,,,,,,,,,,,,,,repeat,letter,lettRpt,d,0.8463,noRew,,,,,,0,16,0,16,0,1,,,,,,,,,,,,,,,,,
298270,2022-11-27_20h05.45.535,vts_reward_expectancy_bt,2022.2.4,Win32,60.06006006,Chrome,1536,864,,,,,0,693,,,,,,,,,,,,,,,,,W,167,star,1,0,,,,,,,,,,,,,,,,switch,number,numSwt,k,0.5199,noRew,,,,,,0,17,0,17,0,1,,,,,,,,,,,,,,,,,
298270,2022-11-27_20h05.45.535,vts_reward_expectancy_bt,2022.2.4,Win32,60.06006006,Chrome,1536,864,,,,,0,693,,,,,,,,,,,,,,,,,U,174,hexagon,1,0,,,,,,,,,,,,,,,,switch,letter,lettSwt,f,0.9496,noRew,,,,,,0,18,0,18,0,1,,,,,,,,,,,,,,,,,
298270,2022-11-27_20h05.45.535,vts_reward_expectancy_bt,2022.2.4,Win32,60.06006006,Chrome,1536,864,,,,,0,693,,,,,,,,,,,,,,,,,S,139,triangle,0,0,,,,,,,,,,,,,,,,switch,number,NA,k,0.6329,noRew,,,,,,0,19,0,19,0,1,,,,,,,,,,,,,,,,,
298270,2022-11-27_20h05.45.535,vts_reward_expectancy_bt,2022.2.4,Win32,60.06006006,Chrome,1536,864,,,,,0,693,,,,,,,,,,,,,,,,,H,167,circle,1,1,,,,,,,,,,,,,,,,repeat,number,numRpt,k,0.7016,noRew,,,,,,0,20,0,20,0,1,,,,,,,,,,,,,,,,,
298270,2022-11-27_20h05.45.535,vts_reward_expectancy_bt,2022.2.4,Win32,60.06006006,Chrome,1536,864,,,,,0,693,,,,,,,,,,,,,,,,,W,146,star,1,0,,,,,,,,,,,,,,,,repeat,number,numRpt,j,0.9316,noRew,,,,,,0,21,0,21,0,1,,,,,,,,,,,,,,,,,
298270,2022-11-27_20h05.45.535,vts_reward_expectancy_bt,2022.2.4,Win32,60.06006006,Chrome,1536,864,,,,,0,693,,,,,,,,,,,,,,,,,S,174,star,1,0,,,,,,,,,,,,,,,,repeat,number,numRpt,k,1.1099,noRew,,,,,,0,22,0,22,0,1,,,,,,,,,,,,,,,,,
298270,2022-11-27_20h05.45.535,vts_reward_expectancy_bt,2022.2.4,Win32,60.06006006,Chrome,1536,864,,,,,0,693,,,,,,,,,,,,,,,,,D,160,hexagon,1,0,,,,,,,,,,,,,,,,switch,letter,lettSwt,d,0.7193,noRew,,,,,,0,23,0,23,0,1,,,,,,,,,,,,,,,,,
298270,2022-11-27_20h05.45.535,vts_reward_expectancy_bt,2022.2.4,Win32,60.06006006,Chrome,1536,864,,,,,0,693,,,,,,,,,,,,,,,,,D,125,triangle,1,0,,,,,,,,,,,,,,,,repeat,letter,lettRpt,d,0.7158,noRew,,,,,,0,24,0,24,0,1,,,,,,,,,,,,,,,,,
298270,2022-11-27_20h05.45.535,vts_reward_expectancy_bt,2022.2.4,Win32,60.06006006,Chrome,1536,864,,,,,0,693,,,,,,,,,,,,,,,,,W,132,hexagon,1,0,,,,,,,,,,,,,,,,switch,number,numSwt,j,0.7456,noRew,,,,,,0,25,0,25,0,1,,,,,,,,,,,,,,,,,
298270,2022-11-27_20h05.45.535,vts_reward_expectancy_bt,2022.2.4,Win32,60.06006006,Chrome,1536,864,,,,,0,693,,,,,,,,,,,,,,,,,F,146,star,1,0,,,,,,,,,,,,,,,,switch,letter,lettSwt,d,0.7772,noRew,,,,,,0,26,0,26,0,1,,,,,,,,,,,,,,,,,
298270,2022-11-27_20h05.45.535,vts_reward_expectancy_bt,2022.2.4,Win32,60.06006006,Chrome,1536,864,,,,,0,693,,,,,,,,,,,,,,,,,S,174,triangle,1,0,,,,,,,,,,,,,,,,switch,number,numSwt,k,0.6003,noRew,,,,,,0,27,0,27,0,1,,,,,,,,,,,,,,,,,
298270,2022-11-27_20h05.45.535,vts_reward_expectancy_bt,2022.2.4,Win32,60.06006006,Chrome,1536,864,,,,,0,693,,,,,,,,,,,,,,,,,F,181,circle,1,0,,,,,,,,,,,,,,,,repeat,number,numRpt,k,0.9619,noRew,,,,,,0,28,0,28,0,1,,,,,,,,,,,,,,,,,
298270,2022-11-27_20h05.45.535,vts_reward_expectancy_bt,2022.2.4,Win32,60.06006006,Chrome,1536,864,,,,,0,693,,,,,,,,,,,,,,,,,Y,132,hexagon,1,0,,,,,,,,,,,,,,,,repeat,number,numRpt,j,0.817,noRew,,,,,,0,29,0,29,0,1,,,,,,,,,,,,,,,,,
298270,2022-11-27_20h05.45.535,vts_reward_expectancy_bt,2022.2.4,Win32,60.06006006,Chrome,1536,864,,,,,0,693,,,,,,,,,,,,,,,,,U,160,star,1,0,,,,,,,,,,,,,,,,switch,letter,lettSwt,f,0.6061,noRew,,,,,,0,30,0,30,0,1,,,,,,,,,,,,,,,,,
298270,2022-11-27_20h05.45.535,vts_reward_expectancy_bt,2022.2.4,Win32,60.06006006,Chrome,1536,864,,,,,0,693,,,,,,,,,,,,,,,,,D,167,triangle,1,0,,,,,,,,,,,,,,,,switch,number,numSwt,k,0.9428,noRew,,,,,,0,31,0,31,0,1,,,,,,,,,,,,,,,,,
298270,2022-11-27_20h05.45.535,vts_reward_expectancy_bt,2022.2.4,Win32,60.06006006,Chrome,1536,864,,,,,0,693,,,,,,,,,,,,,,,,,F,167,star,1,0,,,,,,,,,,,,,,,,switch,letter,lettSwt,d,0.834,noRew,,,,,,0,32,0,32,0,1,,,,,,,,,,,,,,,,,
298270,2022-11-27_20h05.45.535,vts_reward_expectancy_bt,2022.2.4,Win32,60.06006006,Chrome,1536,864,,,,,0,693,,,,,,,,,,,,,,,,,W,125,triangle,1,0,,,,,,,,,,,,,,,,repeat,letter,lettRpt,f,0.568,noRew,,,,,,0,33,0,33,0,1,,,,,,,,,,,,,,,,,
298270,2022-11-27_20h05.45.535,vts_reward_expectancy_bt,2022.2.4,Win32,60.06006006,Chrome,1536,864,,,,,0,693,,,,,,,,,,,,,,,,,Y,146,triangle,1,0,,,,,,,,,,,,,,,,switch,number,numSwt,j,0.6134,noRew,,,,,,0,34,0,34,0,1,,,,,,,,,,,,,,,,,
298270,2022-11-27_20h05.45.535,vts_reward_expectancy_bt,2022.2.4,Win32,60.06006006,Chrome,1536,864,,,,,0,693,,,,,,,,,,,,,,,,,S,160,hexagon,0,0,,,,,,,,,,,,,,,,switch,letter,NA,d,0.734,noRew,,,,,,0,35,0,35,0,1,,,,,,,,,,,,,,,,,
298270,2022-11-27_20h05.45.535,vts_reward_expectancy_bt,2022.2.4,Win32,60.06006006,Chrome,1536,864,,,,,0,693,,,,,,,,,,,,,,,,,H,167,hexagon,1,1,,,,,,,,,,,,,,,,switch,number,numSwt,k,1.3191,noRew,,,,,,0,36,0,36,0,1,,,,,,,,,,,,,,,,,
298270,2022-11-27_20h05.45.535,vts_reward_expectancy_bt,2022.2.4,Win32,60.06006006,Chrome,1536,864,,,,,0,693,,,,,,,,,,,,,,,,,D,125,star,1,0,,,,,,,,,,,,,,,,switch,letter,lettSwt,d,0.7672,noRew,,,,,,0,37,0,37,0,1,,,,,,,,,,,,,,,,,
298270,2022-11-27_20h05.45.535,vts_reward_expectancy_bt,2022.2.4,Win32,60.06006006,Chrome,1536,864,,,,,0,693,,,,,,,,,,,,,,,,,Y,160,circle,1,0,,,,,,,,,,,,,,,,repeat,letter,lettRpt,f,0.9003,noRew,,,,,,0,38,0,38,0,1,,,,,,,,,,,,,,,,,
298270,2022-11-27_20h05.45.535,vts_reward_expectancy_bt,2022.2.4,Win32,60.06006006,Chrome,1536,864,,,,,0,693,,,,,,,,,,,,,,,,,S,146,hexagon,1,0,,,,,,,,,,,,,,,,repeat,letter,lettRpt,f,1.3316,noRew,,,,,,0,39,0,39,0,1,,,,,,,,,,,,,,,,,
298270,2022-11-27_20h05.45.535,vts_reward_expectancy_bt,2022.2.4,Win32,60.06006006,Chrome,1536,864,,,,,0,693,,,,,,,,,,,,,,,,,B,139,circle,1,0,,,,,,,,,,,,,,,,switch,number,numSwt,j,0.8741,noRew,,,,,,0,40,0,40,0,1,,,,,,,,,,,,,,,,,
298270,2022-11-27_20h05.45.535,vts_reward_expectancy_bt,2022.2.4,Win32,60.06006006,Chrome,1536,864,,,,,0,693,,,,,,,,,,,,,,,,,H,146,triangle,1,0,,,,,,,,,,,,,,,,switch,letter,lettSwt,d,0.8403,noRew,,,,,,0,41,0,41,0,1,,,,,,,,,,,,,,,,,
298270,2022-11-27_20h05.45.535,vts_reward_expectancy_bt,2022.2.4,Win32,60.06006006,Chrome,1536,864,,,,,0,693,,,,,,,,,,,,,,,,,F,132,triangle,1,0,,,,,,,,,,,,,,,,switch,number,numSwt,j,0.6091,noRew,,,,,,0,42,0,42,0,1,,,,,,,,,,,,,,,,,
298270,2022-11-27_20h05.45.535,vts_reward_expectancy_bt,2022.2.4,Win32,60.06006006,Chrome,1536,864,,,,,0,693,,,,,,,,,,,,,,,,,S,167,hexagon,1,0,,,,,,,,,,,,,,,,repeat,number,numRpt,k,1.0592,noRew,,,,,,0,43,0,43,0,1,,,,,,,,,,,,,,,,,
298270,2022-11-27_20h05.45.535,vts_reward_expectancy_bt,2022.2.4,Win32,60.06006006,Chrome,1536,864,,,,,0,693,,,,,,,,,,,,,,,,,B,181,circle,1,0,,,,,,,,,,,,,,,,repeat,number,numRpt,k,0.6601,noRew,,,,,,0,44,0,44,0,1,,,,,,,,,,,,,,,,,
298270,2022-11-27_20h05.45.535,vts_reward_expectancy_bt,2022.2.4,Win32,60.06006006,Chrome,1536,864,,,,,0,693,,,,,,,,,,,,,,,,,S,160,star,1,0,,,,,,,,,,,,,,,,switch,letter,lettSwt,f,1.0996,noRew,,,,,,0,45,0,45,0,1,,,,,,,,,,,,,,,,,
298270,2022-11-27_20h05.45.535,vts_reward_expectancy_bt,2022.2.4,Win32,60.06006006,Chrome,1536,864,,,,,0,693,,,,,,,,,,,,,,,,,U,132,circle,1,0,,,,,,,,,,,,,,,,switch,number,numSwt,j,0.8001,noRew,,,,,,0,46,0,46,0,1,,,,,,,,,,,,,,,,,
298270,2022-11-27_20h05.45.535,vts_reward_expectancy_bt,2022.2.4,Win32,60.06006006,Chrome,1536,864,,,,,0,693,,,,,,,,,,,,,,,,,W,146,star,1,0,,,,,,,,,,,,,,,,repeat,number,numRpt,j,0.7835,noRew,,,,,,0,47,0,47,0,1,,,,,,,,,,,,,,,,,
298270,2022-11-27_20h05.45.535,vts_reward_expectancy_bt,2022.2.4,Win32,60.06006006,Chrome,1536,864,,,,,0,693,,,,,,,,,,,,,,,,,S,125,star,1,0,,,,,,,,,,,,,,,,switch,letter,lettSwt,f,0.7674,noRew,,,,,,0,48,0,48,0,1,,,,,,,,,,,,,,,,,
298270,2022-11-27_20h05.45.535,vts_reward_expectancy_bt,2022.2.4,Win32,60.06006006,Chrome,1536,864,,,,,0,693,,,,,,,,,,,,,,,,,B,160,circle,1,0,,,,,,,,,,,,,,,,repeat,letter,lettRpt,d,0.6694,noRew,,,,,,0,49,0,49,0,1,,,,,,,,,,,,,,,,,
298270,2022-11-27_20h05.45.535,vts_reward_expectancy_bt,2022.2.4,Win32,60.06006006,Chrome,1536,864,,,,,0,693,,,,,,,,,,,,,,,,,U,174,hexagon,1,0,,,,,,,,,,,,,,,,switch,number,numSwt,k,0.9516,noRew,,,,,,0,50,0,50,0,1,,,,,,,,,,,,,,,,,
298270,2022-11-27_20h05.45.535,vts_reward_expectancy_bt,2022.2.4,Win32,60.06006006,Chrome,1536,864,,,,,0,693,,,,,,,,,,,,,,,,,W,146,circle,1,0,,,,,,,,,,,,,,,,switch,letter,lettSwt,f,0.676,noRew,,,,,,0,51,0,51,0,1,,,,,,,,,,,,,,,,,
298270,2022-11-27_20h05.45.535,vts_reward_expectancy_bt,2022.2.4,Win32,60.06006006,Chrome,1536,864,,,,,0,693,,,,,,,,,,,,,,,,,Y,174,circle,1,0,,,,,,,,,,,,,,,,repeat,letter,lettRpt,f,0.6328,noRew,,,,,,0,52,0,52,0,1,,,,,,,,,,,,,,,,,
298270,2022-11-27_20h05.45.535,vts_reward_expectancy_bt,2022.2.4,Win32,60.06006006,Chrome,1536,864,,,,,0,693,,,,,,,,,,,,,,,,,B,167,hexagon,1,0,,,,,,,,,,,,,,,,repeat,letter,lettRpt,d,0.8488,noRew,,,,,,0,53,0,53,0,1,,,,,,,,,,,,,,,,,
298270,2022-11-27_20h05.45.535,vts_reward_expectancy_bt,2022.2.4,Win32,60.06006006,Chrome,1536,864,,,,,0,693,,,,,,,,,,,,,,,,,W,160,hexagon,1,0,,,,,,,,,,,,,,,,switch,number,numSwt,k,0.5968,noRew,,,,,,0,54,0,54,0,1,,,,,,,,,,,,,,,,,
298270,2022-11-27_20h05.45.535,vts_reward_expectancy_bt,2022.2.4,Win32,60.06006006,Chrome,1536,864,,,,,0,693,,,,,,,,,,,,,,,,,F,125,circle,1,0,,,,,,,,,,,,,,,,switch,letter,lettSwt,d,0.8203,noRew,,,,,,0,55,0,55,0,1,,,,,,,,,,,,,,,,,
298270,2022-11-27_20h05.45.535,vts_reward_expectancy_bt,2022.2.4,Win32,60.06006006,Chrome,1536,864,,,,,0,693,,,,,,,,,,,,,,,,,D,139,star,1,0,,,,,,,,,,,,,,,,switch,number,numSwt,j,0.6681,noRew,,,,,,0,56,0,56,0,1,,,,,,,,,,,,,,,,,
298270,2022-11-27_20h05.45.535,vts_reward_expectancy_bt,2022.2.4,Win32,60.06006006,Chrome,1536,864,,,,,0,693,,,,,,,,,,,,,,,,,B,132,hexagon,1,0,,,,,,,,,,,,,,,,repeat,number,numRpt,j,0.7338,noRew,,,,,,0,57,0,57,0,1,,,,,,,,,,,,,,,,,
298270,2022-11-27_20h05.45.535,vts_reward_expectancy_bt,2022.2.4,Win32,60.06006006,Chrome,1536,864,,,,,0,693,,,,,,,,,,,,,,,,,Y,125,circle,1,0,,,,,,,,,,,,,,,,repeat,number,numRpt,j,0.5677,noRew,,,,,,0,58,0,58,0,1,,,,,,,,,,,,,,,,,
298270,2022-11-27_20h05.45.535,vts_reward_expectancy_bt,2022.2.4,Win32,60.06006006,Chrome,1536,864,,,,,0,693,,,,,,,,,,,,,,,,,S,181,star,1,0,,,,,,,,,,,,,,,,switch,letter,lettSwt,f,0.855,noRew,,,,,,0,59,0,59,0,1,,,,,,,,,,,,,,,,,
298270,2022-11-27_20h05.45.535,vts_reward_expectancy_bt,2022.2.4,Win32,60.06006006,Chrome,1536,864,,,,,0,693,,,,,,,,,,,,,,,,,W,160,hexagon,1,0,,,,,,,,,,,,,,,,switch,number,numSwt,k,1.0034,noRew,,,,,,0,60,0,60,0,1,,,,,,,,,,,,,,,,,
298270,2022-11-27_20h05.45.535,vts_reward_expectancy_bt,2022.2.4,Win32,60.06006006,Chrome,1536,864,,,,,0,693,,,,,,,,,,,,,,,,,Y,139,circle,1,0,,,,,,,,,,,,,,,,switch,letter,lettSwt,f,0.7734,noRew,,,,,,0,61,0,61,0,1,,,,,,,,,,,,,,,,,
298270,2022-11-27_20h05.45.535,vts_reward_expectancy_bt,2022.2.4,Win32,60.06006006,Chrome,1536,864,,,,,0,693,,,,,,,,,,,,,,,,,F,146,star,1,0,,,,,,,,,,,,,,,,repeat,letter,lettRpt,d,1.0165,noRew,,,,,,0,62,0,62,0,1,,,,,,,,,,,,,,,,,
298270,2022-11-27_20h05.45.535,vts_reward_expectancy_bt,2022.2.4,Win32,60.06006006,Chrome,1536,864,,,,,0,693,,,,,,,,,,,,,,,,,S,132,hexagon,1,0,,,,,,,,,,,,,,,,switch,number,numSwt,j,1.0022,noRew,,,,,,0,63,0,63,0,1,,,,,,,,,,,,,,,,,
298270,2022-11-27_20h05.45.535,vts_reward_expectancy_bt,2022.2.4,Win32,60.06006006,Chrome,1536,864,,,,,,,,,,,,,,,,,,,,,,,,,,,,,,,,,,,,,,,,,,,,,,,,,,,,,,,,,,,,,,,,,,,,,,,,,,,,
298270,2022-11-27_20h05.45.535,vts_reward_expectancy_bt,2022.2.4,Win32,60.06006006,Chrome,1536,864,,,,,0,693,,,,,,,,,,,,,,,,,H,167,hexagon,1,0,,,,,,,,,,,,,,,,switch,letter,lettSwt,d,1.213,Hi,,,,,,0,,,,,,space,10.1444,low,0,0,0,0,1,,,,,,,,,
298270,2022-11-27_20h05.45.535,vts_reward_expectancy_bt,2022.2.4,Win32,60.06006006,Chrome,1536,864,,,,,1,694,,,,,,,,,,,,,,,,,B,125,circle,1,0,,,,,,,,,,,,,,,,switch,number,numSwt,j,0.496,Lo,,,,,,0,,,,,,,,low,1,0,1,0,1,,,,,,,,,
298270,2022-11-27_20h05.45.535,vts_reward_expectancy_bt,2022.2.4,Win32,60.06006006,Chrome,1536,864,,,,,1,695,,,,,,,,,,,,,,,,,S,174,triangle,1,0,,,,,,,,,,,,,,,,switch,letter,lettSwt,f,0.6831,Lo,,,,,,0,,,,,,,,low,2,0,2,0,1,,,,,,,,,
298270,2022-11-27_20h05.45.535,vts_reward_expectancy_bt,2022.2.4,Win32,60.06006006,Chrome,1536,864,,,,,10,705,,,,,,,,,,,,,,,,,W,139,star,1,0,,,,,,,,,,,,,,,,switch,number,numSwt,j,0.5447,Hi,,,,,,0,,,,,,,,low,3,0,3,0,1,,,,,,,,,
298270,2022-11-27_20h05.45.535,vts_reward_expectancy_bt,2022.2.4,Win32,60.06006006,Chrome,1536,864,,,,,10,715,,,,,,,,,,,,,,,,,Y,181,hexagon,1,0,,,,,,,,,,,,,,,,switch,letter,lettSwt,f,0.4965,Hi,,,,,,0,,,,,,,,low,4,0,4,0,1,,,,,,,,,
298270,2022-11-27_20h05.45.535,vts_reward_expectancy_bt,2022.2.4,Win32,60.06006006,Chrome,1536,864,,,,,1,716,,,,,,,,,,,,,,,,,D,146,circle,1,0,,,,,,,,,,,,,,,,switch,number,numSwt,j,0.4765,Lo,,,,,,0,,,,,,,,low,5,0,5,0,1,,,,,,,,,
298270,2022-11-27_20h05.45.535,vts_reward_expectancy_bt,2022.2.4,Win32,60.06006006,Chrome,1536,864,,,,,0,716,,,,,,,,,,,,,,,,,F,160,triangle,0,0,,,,,,,,,,,,,,,,switch,letter,NA,f,0.5818,Lo,,,,,,0,,,,,,,,low,6,0,6,0,1,,,,,,,,,
298270,2022-11-27_20h05.45.535,vts_reward_expectancy_bt,2022.2.4,Win32,60.06006006,Chrome,1536,864,,,,,1,717,,,,,,,,,,,,,,,,,U,132,star,1,1,,,,,,,,,,,,,,,,switch,number,numSwt,j,0.4943,Hi,,,,,,0,,,,,,,,low,7,0,7,0,1,,,,,,,,,
298270,2022-11-27_20h05.45.535,vts_reward_expectancy_bt,2022.2.4,Win32,60.06006006,Chrome,1536,864,,,,,10,727,,,,,,,,,,,,,,,,,H,167,hexagon,1,0,,,,,,,,,,,,,,,,repeat,number,numRpt,k,0.4935,Hi,,,,,,0,,,,,,,,low,8,0,8,0,1,,,,,,,,,
298270,2022-11-27_20h05.45.535,vts_reward_expectancy_bt,2022.2.4,Win32,60.06006006,Chrome,1536,864,,,,,10,737,,,,,,,,,,,,,,,,,B,125,triangle,1,0,,,,,,,,,,,,,,,,repeat,number,numRpt,j,0.38,Lo,,,,,,0,,,,,,,,low,9,0,9,0,1,,,,,,,,,
298270,2022-11-27_20h05.45.535,vts_reward_expectancy_bt,2022.2.4,Win32,60.06006006,Chrome,1536,864,,,,,10,747,,,,,,,,,,,,,,,,,S,174,star,1,0,,,,,,,,,,,,,,,,switch,letter,lettSwt,f,0.3812,Hi,,,,,,0,,,,,,,,low,10,0,10,0,1,,,,,,,,,
298270,2022-11-27_20h05.45.535,vts_reward_expectancy_bt,2022.2.4,Win32,60.06006006,Chrome,1536,864,,,,,1,748,,,,,,,,,,,,,,,,,W,139,circle,1,0,,,,,,,,,,,,,,,,repeat,letter,lettRpt,f,0.4865,Lo,,,,,,0,,,,,,,,low,11,0,11,0,1,,,,,,,,,
298270,2022-11-27_20h05.45.535,vts_reward_expectancy_bt,2022.2.4,Win32,60.06006006,Chrome,1536,864,,,,,10,758,,,,,,,,,,,,,,,,,Y,181,hexagon,1,0,,,,,,,,,,,,,,,,repeat,letter,lettRpt,f,0.5605,Hi,,,,,,0,,,,,,,,low,12,0,12,0,1,,,,,,,,,
298270,2022-11-27_20h05.45.535,vts_reward_expectancy_bt,2022.2.4,Win32,60.06006006,Chrome,1536,864,,,,,1,759,,,,,,,,,,,,,,,,,D,146,triangle,1,0,,,,,,,,,,,,,,,,switch,number,numSwt,j,0.3658,Lo,,,,,,0,,,,,,,,low,13,0,13,0,1,,,,,,,,,
298270,2022-11-27_20h05.45.535,vts_reward_expectancy_bt,2022.2.4,Win32,60.06006006,Chrome,1536,864,,,,,10,769,,,,,,,,,,,,,,,,,F,160,circle,1,0,,,,,,,,,,,,,,,,repeat,number,numRpt,k,0.4131,Lo,,,,,,0,,,,,,,,low,14,0,14,0,1,,,,,,,,,
298270,2022-11-27_20h05.45.535,vts_reward_expectancy_bt,2022.2.4,Win32,60.06006006,Chrome,1536,864,,,,,10,779,,,,,,,,,,,,,,,,,U,132,star,1,0,,,,,,,,,,,,,,,,repeat,number,numRpt,j,0.485,Hi,,,,,,0,,,,,,,,low,15,0,15,0,1,,,,,,,,,
298270,2022-11-27_20h05.45.535,vts_reward_expectancy_bt,2022.2.4,Win32,60.06006006,Chrome,1536,864,,,,,10,789,,,,,,,,,,,,,,,,,U,139,hexagon,1,0,,,,,,,,,,,,,,,,switch,letter,lettSwt,f,0.4455,Hi,,,,,,0,,,,,,,,low,16,0,16,0,1,,,,,,,,,
298270,2022-11-27_20h05.45.535,vts_reward_expectancy_bt,2022.2.4,Win32,60.06006006,Chrome,1536,864,,,,,1,790,,,,,,,,,,,,,,,,,S,132,triangle,1,0,,,,,,,,,,,,,,,,switch,number,numSwt,j,0.3484,Lo,,,,,,0,,,,,,,,low,17,0,17,0,1,,,,,,,,,
298270,2022-11-27_20h05.45.535,vts_reward_expectancy_bt,2022.2.4,Win32,60.06006006,Chrome,1536,864,,,,,1,791,,,,,,,,,,,,,,,,,Y,125,circle,1,0,,,,,,,,,,,,,,,,switch,letter,lettSwt,f,0.548,Lo,,,,,,0,,,,,,,,low,18,0,18,0,1,,,,,,,,,
298270,2022-11-27_20h05.45.535,vts_reward_expectancy_bt,2022.2.4,Win32,60.06006006,Chrome,1536,864,,,,,10,801,,,,,,,,,,,,,,,,,W,146,star,1,0,,,,,,,,,,,,,,,,repeat,letter,lettRpt,f,0.594,Hi,,,,,,0,,,,,,,,low,19,0,19,0,1,,,,,,,,,
298270,2022-11-27_20h05.45.535,vts_reward_expectancy_bt,2022.2.4,Win32,60.06006006,Chrome,1536,864,,,,,10,811,,,,,,,,,,,,,,,,,D,174,star,1,0,,,,,,,,,,,,,,,,switch,number,numSwt,k,0.4492,Hi,,,,,,0,,,,,,,,low,20,0,20,0,1,,,,,,,,,
298270,2022-11-27_20h05.45.535,vts_reward_expectancy_bt,2022.2.4,Win32,60.06006006,Chrome,1536,864,,,,,1,812,,,,,,,,,,,,,,,,,B,167,circle,1,0,,,,,,,,,,,,,,,,switch,letter,lettSwt,d,0.3763,Lo,,,,,,0,,,,,,,,low,21,0,21,0,1,,,,,,,,,
298270,2022-11-27_20h05.45.535,vts_reward_expectancy_bt,2022.2.4,Win32,60.06006006,Chrome,1536,864,,,,,10,822,,,,,,,,,,,,,,,,,H,181,hexagon,1,0,,,,,,,,,,,,,,,,switch,number,numSwt,k,0.3769,Hi,,,,,,0,,,,,,,,low,22,0,22,0,1,,,,,,,,,
298270,2022-11-27_20h05.45.535,vts_reward_expectancy_bt,2022.2.4,Win32,60.06006006,Chrome,1536,864,,,,,10,832,,,,,,,,,,,,,,,,,F,160,triangle,1,0,,,,,,,,,,,,,,,,repeat,number,numRpt,k,1.0138,Lo,,,,,,0,,,,,,,,low,23,0,23,0,1,,,,,,,,,
298270,2022-11-27_20h05.45.535,vts_reward_expectancy_bt,2022.2.4,Win32,60.06006006,Chrome,1536,864,,,,,1,833,,,,,,,,,,,,,,,,,D,167,hexagon,1,0,,,,,,,,,,,,,,,,switch,letter,lettSwt,d,0.6806,Hi,,,,,,0,,,,,,,,low,24,0,24,0,1,,,,,,,,,
298270,2022-11-27_20h05.45.535,vts_reward_expectancy_bt,2022.2.4,Win32,60.06006006,Chrome,1536,864,,,,,1,834,,,,,,,,,,,,,,,,,U,174,circle,1,0,,,,,,,,,,,,,,,,repeat,letter,lettRpt,f,0.9003,Lo,,,,,,0,,,,,,,,low,25,0,25,0,1,,,,,,,,,
298270,2022-11-27_20h05.45.535,vts_reward_expectancy_bt,2022.2.4,Win32,60.06006006,Chrome,1536,864,,,,,10,844,,,,,,,,,,,,,,,,,F,125,triangle,1,0,,,,,,,,,,,,,,,,repeat,letter,lettRpt,d,0.696,Lo,,,,,,0,,,,,,,,low,26,0,26,0,1,,,,,,,,,
298270,2022-11-27_20h05.45.535,vts_reward_expectancy_bt,2022.2.4,Win32,60.06006006,Chrome,1536,864,,,,,10,854,,,,,,,,,,,,,,,,,W,181,star,1,0,,,,,,,,,,,,,,,,switch,number,numSwt,k,0.6668,Hi,,,,,,0,,,,,,,,low,27,0,27,0,1,,,,,,,,,
298270,2022-11-27_20h05.45.535,vts_reward_expectancy_bt,2022.2.4,Win32,60.06006006,Chrome,1536,864,,,,,1,855,,,,,,,,,,,,,,,,,Y,132,star,1,0,,,,,,,,,,,,,,,,switch,letter,lettSwt,f,0.5632,Hi,,,,,,0,,,,,,,,low,28,0,28,0,1,,,,,,,,,
298270,2022-11-27_20h05.45.535,vts_reward_expectancy_bt,2022.2.4,Win32,60.06006006,Chrome,1536,864,,,,,1,856,,,,,,,,,,,,,,,,,S,139,circle,1,0,,,,,,,,,,,,,,,,repeat,letter,lettRpt,f,0.6428,Lo,,,,,,0,,,,,,,,low,29,0,29,0,1,,,,,,,,,
298270,2022-11-27_20h05.45.535,vts_reward_expectancy_bt,2022.2.4,Win32,60.06006006,Chrome,1536,864,,,,,10,866,,,,,,,,,,,,,,,,,B,160,hexagon,1,0,,,,,,,,,,,,,,,,switch,number,numSwt,k,0.4975,Hi,,,,,,0,,,,,,,,low,30,0,30,0,1,,,,,,,,,
298270,2022-11-27_20h05.45.535,vts_reward_expectancy_bt,2022.2.4,Win32,60.06006006,Chrome,1536,864,,,,,10,876,,,,,,,,,,,,,,,,,H,146,triangle,1,0,,,,,,,,,,,,,,,,repeat,number,numRpt,j,0.6775,Lo,,,,,,0,,,,,,,,low,31,0,31,0,1,,,,,,,,,
298270,2022-11-27_20h05.45.535,vts_reward_expectancy_bt,2022.2.4,Win32,60.06006006,Chrome,1536,864,,,,,10,886,,,,,,,,,,,,,,,,,B,181,star,1,0,,,,,,,,,,,,,,,,switch,letter,lettSwt,d,0.4595,Hi,,,,,,1,,,,,,space,3.7707,low,0,0,0,0,1,,,,,,,,,
298270,2022-11-27_20h05.45.535,vts_reward_expectancy_bt,2022.2.4,Win32,60.06006006,Chrome,1536,864,,,,,1,887,,,,,,,,,,,,,,,,,D,174,triangle,1,0,,,,,,,,,,,,,,,,repeat,letter,lettRpt,d,0.5314,Lo,,,,,,1,,,,,,,,low,1,0,1,0,1,,,,,,,,,
298270,2022-11-27_20h05.45.535,vts_reward_expectancy_bt,2022.2.4,Win32,60.06006006,Chrome,1536,864,,,,,1,888,,,,,,,,,,,,,,,,,F,160,circle,1,0,,,,,,,,,,,,,,,,switch,number,numSwt,k,0.8093,Lo,,,,,,1,,,,,,,,low,2,0,2,0,1,,,,,,,,,
298270,2022-11-27_20h05.45.535,vts_reward_expectancy_bt,2022.2.4,Win32,60.06006006,Chrome,1536,864,,,,,1,889,,,,,,,,,,,,,,,,,W,146,hexagon,1,0,,,,,,,,,,,,,,,,switch,letter,lettSwt,f,0.4772,Hi,,,,,,1,,,,,,,,low,3,0,3,0,1,,,,,,,,,
298270,2022-11-27_20h05.45.535,vts_reward_expectancy_bt,2022.2.4,Win32,60.06006006,Chrome,1536,864,,,,,0,889,,,,,,,,,,,,,,,,,H,125,star,1,0,,,,,,,,,,,,,,,,repeat,letter,lettRpt,d,0.584,Hi,,,,,,1,,,,,,,,low,4,0,4,0,1,,,,,,,,,
298270,2022-11-27_20h05.45.535,vts_reward_expectancy_bt,2022.2.4,Win32,60.06006006,Chrome,1536,864,,,,,0,889,,,,,,,,,,,,,,,,,U,167,triangle,0,0,,,,,,,,,,,,,,,,switch,number,NA,j,0.4436,Hi,,,,,,1,,,,,,,,low,5,0,5,0,1,,,,,,,,,
298270,2022-11-27_20h05.45.535,vts_reward_expectancy_bt,2022.2.4,Win32,60.06006006,Chrome,1536,864,,,,,1,890,,,,,,,,,,,,,,,,,S,132,circle,1,1,,,,,,,,,,,,,,,,repeat,number,numRpt,j,0.5797,Lo,,,,,,1,,,,,,,,low,6,0,6,0,1,,,,,,,,,
298270,2022-11-27_20h05.45.535,vts_reward_expectancy_bt,2022.2.4,Win32,60.06006006,Chrome,1536,864,,,,,0,890,,,,,,,,,,,,,,,,,Y,139,hexagon,1,0,,,,,,,,,,,,,,,,repeat,number,numRpt,j,0.4965,Hi,,,,,,1,,,,,,,,low,7,0,7,0,1,,,,,,,,,
298270,2022-11-27_20h05.45.535,vts_reward_expectancy_bt,2022.2.4,Win32,60.06006006,Chrome,1536,864,,,,,1,891,,,,,,,,,,,,,,,,,B,181,circle,1,0,,,,,,,,,,,,,,,,switch,letter,lettSwt,d,0.4452,Lo,,,,,,1,,,,,,,,low,8,0,8,0,1,,,,,,,,,
298270,2022-11-27_20h05.45.535,vts_reward_expectancy_bt,2022.2.4,Win32,60.06006006,Chrome,1536,864,,,,,0,891,,,,,,,,,,,,,,,,,D,174,hexagon,0,0,,,,,,,,,,,,,,,,switch,number,NA,j,0.3134,Lo,,,,,,1,,,,,,,,low,9,0,9,0,1,,,,,,,,,
298270,2022-11-27_20h05.45.535,vts_reward_expectancy_bt,2022.2.4,Win32,60.06006006,Chrome,1536,864,,,,,0,891,,,,,,,,,,,,,,,,,F,160,star,1,1,,,,,,,,,,,,,,,,repeat,number,numRpt,k,0.5025,Hi,,,,,,1,,,,,,,,low,10,0,10,0,1,,,,,,,,,
298270,2022-11-27_20h05.45.535,vts_reward_expectancy_bt,2022.2.4,Win32,60.06006006,Chrome,1536,864,,,,,1,892,,,,,,,,,,,,,,,,,W,146,triangle,1,0,,,,,,,,,,,,,,,,switch,letter,lettSwt,f,0.5959,Lo,,,,,,1,,,,,,,,low,11,0,11,0,1,,,,,,,,,
298270,2022-11-27_20h05.45.535,vts_reward_expectancy_bt,2022.2.4,Win32,60.06006006,Chrome,1536,864,,,,,10,902,,,,,,,,,,,,,,,,,H,125,circle,1,0,,,,,,,,,,,,,,,,switch,number,numSwt,j,0.4647,Lo,,,,,,1,,,,,,,,low,12,0,12,0,1,,,,,,,,,
298270,2022-11-27_20h05.45.535,vts_reward_expectancy_bt,2022.2.4,Win32,60.06006006,Chrome,1536,864,,,,,0,902,,,,,,,,,,,,,,,,,U,167,star,1,0,,,,,,,,,,,,,,,,switch,letter,lettSwt,f,0.4925,Hi,,,,,,1,,,,,,,,low,13,0,13,0,1,,,,,,,,,
298270,2022-11-27_20h05.45.535,vts_reward_expectancy_bt,2022.2.4,Win32,60.06006006,Chrome,1536,864,,,,,10,912,,,,,,,,,,,,,,,,,S,132,hexagon,1,0,,,,,,,,,,,,,,,,repeat,letter,lettRpt,f,0.4379,Hi,,,,,,1,,,,,,,,low,14,0,14,0,1,,,,,,,,,
298270,2022-11-27_20h05.45.535,vts_reward_expectancy_bt,2022.2.4,Win32,60.06006006,Chrome,1536,864,,,,,1,913,,,,,,,,,,,,,,,,,Y,139,triangle,1,0,,,,,,,,,,,,,,,,repeat,letter,lettRpt,f,0.447,Lo,,,,,,1,,,,,,,,low,15,0,15,0,1,,,,,,,,,
298270,2022-11-27_20h05.45.535,vts_reward_expectancy_bt,2022.2.4,Win32,60.06006006,Chrome,1536,864,,,,,1,914,,,,,,,,,,,,,,,,,Y,160,circle,1,0,,,,,,,,,,,,,,,,switch,number,numSwt,k,0.5024,Lo,,,,,,1,,,,,,,,low,16,0,16,0,1,,,,,,,,,
298270,2022-11-27_20h05.45.535,vts_reward_expectancy_bt,2022.2.4,Win32,60.06006006,Chrome,1536,864,,,,,10,924,,,,,,,,,,,,,,,,,S,174,triangle,1,0,,,,,,,,,,,,,,,,repeat,number,numRpt,k,0.4787,Lo,,,,,,1,,,,,,,,low,17,0,17,0,1,,,,,,,,,
298270,2022-11-27_20h05.45.535,vts_reward_expectancy_bt,2022.2.4,Win32,60.06006006,Chrome,1536,864,,,,,0,924,,,,,,,,,,,,,,,,,W,132,hexagon,1,0,,,,,,,,,,,,,,,,switch,letter,lettSwt,f,0.6108,Hi,,,,,,1,,,,,,,,low,18,0,18,0,1,,,,,,,,,
298270,2022-11-27_20h05.45.535,vts_reward_expectancy_bt,2022.2.4,Win32,60.06006006,Chrome,1536,864,,,,,0,924,,,,,,,,,,,,,,,,,H,167,star,1,0,,,,,,,,,,,,,,,,switch,number,numSwt,k,0.5803,Hi,,,,,,1,,,,,,,,low,19,0,19,0,1,,,,,,,,,
298270,2022-11-27_20h05.45.535,vts_reward_expectancy_bt,2022.2.4,Win32,60.06006006,Chrome,1536,864,,,,,1,925,,,,,,,,,,,,,,,,,U,139,star,1,0,,,,,,,,,,,,,,,,repeat,number,numRpt,j,0.3805,Hi,,,,,,1,,,,,,,,low,20,0,20,0,1,,,,,,,,,
298270,2022-11-27_20h05.45.535,vts_reward_expectancy_bt,2022.2.4,Win32,60.06006006,Chrome,1536,864,,,,,0,925,,,,,,,,,,,,,,,,,F,125,hexagon,0,0,,,,,,,,,,,,,,,,switch,letter,NA,f,0.5622,Hi,,,,,,1,,,,,,,,low,21,0,21,0,1,,,,,,,,,
298270,2022-11-27_20h05.45.535,vts_reward_expectancy_bt,2022.2.4,Win32,60.06006006,Chrome,1536,864,,,,,1,926,,,,,,,,,,,,,,,,,D,146,triangle,1,1,,,,,,,,,,,,,,,,switch,number,numSwt,j,0.5967,Lo,,,,,,1,,,,,,,,low,22,0,22,0,1,,,,,,,,,
298270,2022-11-27_20h05.45.535,vts_reward_expectancy_bt,2022.2.4,Win32,60.06006006,Chrome,1536,864,,,,,10,936,,,,,,,,,,,,,,,,,B,181,circle,1,0,,,,,,,,,,,,,,,,repeat,number,numRpt,k,0.6458,Lo,,,,,,1,,,,,,,,low,23,0,23,0,1,,,,,,,,,
298270,2022-11-27_20h05.45.535,vts_reward_expectancy_bt,2022.2.4,Win32,60.06006006,Chrome,1536,864,,,,,1,937,,,,,,,,,,,,,,,,,S,160,circle,1,0,,,,,,,,,,,,,,,,switch,letter,lettSwt,f,0.5133,Lo,,,,,,1,,,,,,,,low,24,0,24,0,1,,,,,,,,,
298270,2022-11-27_20h05.45.535,vts_reward_expectancy_bt,2022.2.4,Win32,60.06006006,Chrome,1536,864,,,,,0,937,,,,,,,,,,,,,,,,,W,139,hexagon,1,0,,,,,,,,,,,,,,,,switch,number,numSwt,j,0.4802,Hi,,,,,,1,,,,,,,,low,25,0,25,0,1,,,,,,,,,
298270,2022-11-27_20h05.45.535,vts_reward_expectancy_bt,2022.2.4,Win32,60.06006006,Chrome,1536,864,,,,,0,937,,,,,,,,,,,,,,,,,D,174,star,0,0,,,,,,,,,,,,,,,,switch,letter,NA,f,0.5437,Hi,,,,,,1,,,,,,,,low,26,0,26,0,1,,,,,,,,,
298270,2022-11-27_20h05.45.535,vts_reward_expectancy_bt,2022.2.4,Win32,60.06006006,Chrome,1536,864,,,,,1,938,,,,,,,,,,,,,,,,,F,125,triangle,1,1,,,,,,,,,,,,,,,,repeat,letter,lettRpt,d,0.5808,Lo,,,,,,1,,,,,,,,low,27,0,27,0,1,,,,,,,,,
298270,2022-11-27_20h05.45.535,vts_reward_expectancy_bt,2022.2.4,Win32,60.06006006,Chrome,1536,864,,,,,1,939,,,,,,,,,,,,,,,,,B,167,circle,1,0,,,,,,,,,,,,,,,,switch,number,numSwt,k,0.7465,Lo,,,,,,1,,,,,,,,low,28,0,28,0,1,,,,,,,,,
298270,2022-11-27_20h05.45.535,vts_reward_expectancy_bt,2022.2.4,Win32,60.06006006,Chrome,1536,864,,,,,1,940,,,,,,,,,,,,,,,,,H,181,triangle,1,0,,,,,,,,,,,,,,,,repeat,number,numRpt,k,0.4704,Lo,,,,,,1,,,,,,,,low,29,0,29,0,1,,,,,,,,,
298270,2022-11-27_20h05.45.535,vts_reward_expectancy_bt,2022.2.4,Win32,60.06006006,Chrome,1536,864,,,,,0,940,,,,,,,,,,,,,,,,,U,146,star,1,0,,,,,,,,,,,,,,,,switch,letter,lettSwt,f,0.7804,Hi,,,,,,1,,,,,,,,low,30,0,30,0,1,,,,,,,,,
298270,2022-11-27_20h05.45.535,vts_reward_expectancy_bt,2022.2.4,Win32,60.06006006,Chrome,1536,864,,,,,10,950,,,,,,,,,,,,,,,,,Y,132,hexagon,1,0,,,,,,,,,,,,,,,,repeat,letter,lettRpt,f,0.4927,Hi,,,,,,1,,,,,,,,low,31,0,31,0,1,,,,,,,,,
298270,2022-11-27_20h05.45.535,vts_reward_expectancy_bt,2022.2.4,Win32,60.06006006,Chrome,1536,864,,,,,0,950,,,,,,,,,,,,,,,,,B,160,hexagon,1,0,,,,,,,,,,,,,,,,repeat,letter,lettRpt,d,0.5657,Hi,,,,,,2,,,,,,space,2.1147,low,0,0,0,0,1,,,,,,,,,
298270,2022-11-27_20h05.45.535,vts_reward_expectancy_bt,2022.2.4,Win32,60.06006006,Chrome,1536,864,,,,,0,950,,,,,,,,,,,,,,,,,F,139,circle,0,0,,,,,,,,,,,,,,,,repeat,letter,NA,f,0.4257,Hi,,,,,,2,,,,,,,,low,1,0,1,0,1,,,,,,,,,
298270,2022-11-27_20h05.45.535,vts_reward_expectancy_bt,2022.2.4,Win32,60.06006006,Chrome,1536,864,,,,,0,950,,,,,,,,,,,,,,,,,D,125,star,1,1,,,,,,,,,,,,,,,,repeat,letter,lettRpt,d,0.6271,Hi,,,,,,2,,,,,,,,low,2,0,2,0,1,,,,,,,,,
298270,2022-11-27_20h05.45.535,vts_reward_expectancy_bt,2022.2.4,Win32,60.06006006,Chrome,1536,864,,,,,10,960,,,,,,,,,,,,,,,,,S,174,triangle,1,0,,,,,,,,,,,,,,,,switch,number,numSwt,k,0.5111,Lo,,,,,,2,,,,,,,,low,3,0,3,0,1,,,,,,,,,
298270,2022-11-27_20h05.45.535,vts_reward_expectancy_bt,2022.2.4,Win32,60.06006006,Chrome,1536,864,,,,,0,960,,,,,,,,,,,,,,,,,W,132,hexagon,1,0,,,,,,,,,,,,,,,,switch,letter,lettSwt,f,0.496,Hi,,,,,,2,,,,,,,,low,4,0,4,0,1,,,,,,,,,
298270,2022-11-27_20h05.45.535,vts_reward_expectancy_bt,2022.2.4,Win32,60.06006006,Chrome,1536,864,,,,,1,961,,,,,,,,,,,,,,,,,H,181,circle,1,0,,,,,,,,,,,,,,,,repeat,letter,lettRpt,d,0.6633,Lo,,,,,,2,,,,,,,,low,5,0,5,0,1,,,,,,,,,
298270,2022-11-27_20h05.45.535,vts_reward_expectancy_bt,2022.2.4,Win32,60.06006006,Chrome,1536,864,,,,,0,961,,,,,,,,,,,,,,,,,Y,146,star,1,0,,,,,,,,,,,,,,,,switch,number,numSwt,j,0.6133,Hi,,,,,,2,,,,,,,,low,6,0,6,0,1,,,,,,,,,
298270,2022-11-27_20h05.45.535,vts_reward_expectancy_bt,2022.2.4,Win32,60.06006006,Chrome,1536,864,,,,,10,971,,,,,,,,,,,,,,,,,U,167,triangle,1,0,,,,,,,,,,,,,,,,repeat,number,numRpt,k,0.5514,Lo,,,,,,2,,,,,,,,low,7,0,7,0,1,,,,,,,,,
298270,2022-11-27_20h05.45.535,vts_reward_expectancy_bt,2022.2.4,Win32,60.06006006,Chrome,1536,864,,,,,10,981,,,,,,,,,,,,,,,,,B,160,circle,1,0,,,,,,,,,,,,,,,,repeat,number,numRpt,k,0.462,Lo,,,,,,2,,,,,,,,low,8,0,8,0,1,,,,,,,,,
298270,2022-11-27_20h05.45.535,vts_reward_expectancy_bt,2022.2.4,Win32,60.06006006,Chrome,1536,864,,,,,0,981,,,,,,,,,,,,,,,,,F,139,hexagon,1,0,,,,,,,,,,,,,,,,repeat,number,numRpt,j,0.4825,Hi,,,,,,2,,,,,,,,low,9,0,9,0,1,,,,,,,,,
298270,2022-11-27_20h05.45.535,vts_reward_expectancy_bt,2022.2.4,Win32,60.06006006,Chrome,1536,864,,,,,1,982,,,,,,,,,,,,,,,,,D,125,triangle,1,0,,,,,,,,,,,,,,,,repeat,number,numRpt,j,0.4446,Lo,,,,,,2,,,,,,,,low,10,0,10,0,1,,,,,,,,,
298270,2022-11-27_20h05.45.535,vts_reward_expectancy_bt,2022.2.4,Win32,60.06006006,Chrome,1536,864,,,,,0,982,,,,,,,,,,,,,,,,,S,174,star,1,0,,,,,,,,,,,,,,,,switch,letter,lettSwt,f,0.5274,Hi,,,,,,2,,,,,,,,low,11,0,11,0,1,,,,,,,,,
298270,2022-11-27_20h05.45.535,vts_reward_expectancy_bt,2022.2.4,Win32,60.06006006,Chrome,1536,864,,,,,1,983,,,,,,,,,,,,,,,,,W,132,triangle,1,0,,,,,,,,,,,,,,,,switch,number,numSwt,j,0.4291,Lo,,,,,,2,,,,,,,,low,12,0,12,0,1,,,,,,,,,
298270,2022-11-27_20h05.45.535,vts_reward_expectancy_bt,2022.2.4,Win32,60.06006006,Chrome,1536,864,,,,,0,983,,,,,,,,,,,,,,,,,H,181,circle,0,0,,,,,,,,,,,,,,,,switch,letter,NA,f,0.4008,Lo,,,,,,2,,,,,,,,low,13,0,13,0,1,,,,,,,,,
298270,2022-11-27_20h05.45.535,vts_reward_expectancy_bt,2022.2.4,Win32,60.06006006,Chrome,1536,864,,,,,0,983,,,,,,,,,,,,,,,,,Y,146,hexagon,1,1,,,,,,,,,,,,,,,,repeat,letter,lettRpt,f,0.5772,Hi,,,,,,2,,,,,,,,low,14,0,14,0,1,,,,,,,,,
298270,2022-11-27_20h05.45.535,vts_reward_expectancy_bt,2022.2.4,Win32,60.06006006,Chrome,1536,864,,,,,0,983,,,,,,,,,,,,,,,,,U,167,star,0,0,,,,,,,,,,,,,,,,switch,number,NA,j,0.4946,Hi,,,,,,2,,,,,,,,low,15,0,15,0,1,,,,,,,,,
298270,2022-11-27_20h05.45.535,vts_reward_expectancy_bt,2022.2.4,Win32,60.06006006,Chrome,1536,864,,,,,0,983,,,,,,,,,,,,,,,,,U,125,star,1,1,,,,,,,,,,,,,,,,repeat,number,numRpt,j,0.8142,Hi,,,,,,2,,,,,,,,low,16,0,16,0,1,,,,,,,,,
298270,2022-11-27_20h05.45.535,vts_reward_expectancy_bt,2022.2.4,Win32,60.06006006,Chrome,1536,864,,,,,0,983,,,,,,,,,,,,,,,,,S,139,hexagon,1,0,,,,,,,,,,,,,,,,repeat,number,numRpt,j,0.58,Hi,,,,,,2,,,,,,,,low,17,0,17,0,1,,,,,,,,,
298270,2022-11-27_20h05.45.535,vts_reward_expectancy_bt,2022.2.4,Win32,60.06006006,Chrome,1536,864,,,,,1,984,,,,,,,,,,,,,,,,,D,167,triangle,1,0,,,,,,,,,,,,,,,,switch,letter,lettSwt,d,0.5849,Lo,,,,,,2,,,,,,,,low,18,0,18,0,1,,,,,,,,,
298270,2022-11-27_20h05.45.535,vts_reward_expectancy_bt,2022.2.4,Win32,60.06006006,Chrome,1536,864,,,,,10,994,,,,,,,,,,,,,,,,,H,174,circle,1,0,,,,,,,,,,,,,,,,repeat,letter,lettRpt,d,0.6704,Lo,,,,,,2,,,,,,,,low,19,0,19,0,1,,,,,,,,,
298270,2022-11-27_20h05.45.535,vts_reward_expectancy_bt,2022.2.4,Win32,60.06006006,Chrome,1536,864,,,,,0,994,,,,,,,,,,,,,,,,,B,160,circle,0,0,,,,,,,,,,,,,,,,switch,number,NA,j,0.428,Lo,,,,,,2,,,,,,,,low,20,0,20,0,1,,,,,,,,,
298270,2022-11-27_20h05.45.535,vts_reward_expectancy_bt,2022.2.4,Win32,60.06006006,Chrome,1536,864,,,,,0,994,,,,,,,,,,,,,,,,,F,146,star,1,1,,,,,,,,,,,,,,,,repeat,number,numRpt,j,0.4803,Hi,,,,,,2,,,,,,,,low,21,0,21,0,1,,,,,,,,,
298270,2022-11-27_20h05.45.535,vts_reward_expectancy_bt,2022.2.4,Win32,60.06006006,Chrome,1536,864,,,,,10,1004,,,,,,,,,,,,,,,,,Y,181,triangle,1,0,,,,,,,,,,,,,,,,switch,letter,lettSwt,f,0.5144,Lo,,,,,,2,,,,,,,,low,22,0,22,0,1,,,,,,,,,
298270,2022-11-27_20h05.45.535,vts_reward_expectancy_bt,2022.2.4,Win32,60.06006006,Chrome,1536,864,,,,,10,1014,,,,,,,,,,,,,,,,,W,132,hexagon,1,0,,,,,,,,,,,,,,,,repeat,letter,lettRpt,f,0.4501,Hi,,,,,,2,,,,,,,,low,23,0,23,0,1,,,,,,,,,
298270,2022-11-27_20h05.45.535,vts_reward_expectancy_bt,2022.2.4,Win32,60.06006006,Chrome,1536,864,,,,,1,1015,,,,,,,,,,,,,,,,,F,181,triangle,1,0,,,,,,,,,,,,,,,,switch,number,numSwt,k,0.5432,Lo,,,,,,2,,,,,,,,low,24,0,24,0,1,,,,,,,,,
298270,2022-11-27_20h05.45.535,vts_reward_expectancy_bt,2022.2.4,Win32,60.06006006,Chrome,1536,864,,,,,10,1025,,,,,,,,,,,,,,,,,B,132,circle,1,0,,,,,,,,,,,,,,,,switch,letter,lettSwt,d,0.5802,Lo,,,,,,2,,,,,,,,low,25,0,25,0,1,,,,,,,,,
298270,2022-11-27_20h05.45.535,vts_reward_expectancy_bt,2022.2.4,Win32,60.06006006,Chrome,1536,864,,,,,0,1025,,,,,,,,,,,,,,,,,S,160,star,1,0,,,,,,,,,,,,,,,,repeat,letter,lettRpt,f,0.6297,Hi,,,,,,2,,,,,,,,low,26,0,26,0,1,,,,,,,,,
298270,2022-11-27_20h05.45.535,vts_reward_expectancy_bt,2022.2.4,Win32,60.06006006,Chrome,1536,864,,,,,0,1025,,,,,,,,,,,,,,,,,D,174,hexagon,1,0,,,,,,,,,,,,,,,,repeat,letter,lettRpt,d,0.5604,Hi,,,,,,2,,,,,,,,low,27,0,27,0,1,,,,,,,,,
298270,2022-11-27_20h05.45.535,vts_reward_expectancy_bt,2022.2.4,Win32,60.06006006,Chrome,1536,864,,,,,1,1026,,,,,,,,,,,,,,,,,W,167,triangle,1,0,,,,,,,,,,,,,,,,switch,number,numSwt,k,0.6225,Lo,,,,,,2,,,,,,,,low,28,0,28,0,1,,,,,,,,,
298270,2022-11-27_20h05.45.535,vts_reward_expectancy_bt,2022.2.4,Win32,60.06006006,Chrome,1536,864,,,,,1,1027,,,,,,,,,,,,,,,,,H,125,circle,1,0,,,,,,,,,,,,,,,,repeat,number,numRpt,j,0.3817,Lo,,,,,,2,,,,,,,,low,29,0,29,0,1,,,,,,,,,
298270,2022-11-27_20h05.45.535,vts_reward_expectancy_bt,2022.2.4,Win32,60.06006006,Chrome,1536,864,,,,,10,1037,,,,,,,,,,,,,,,,,U,146,star,1,0,,,,,,,,,,,,,,,,switch,letter,lettSwt,f,0.4472,Hi,,,,,,2,,,,,,,,low,30,0,30,0,1,,,,,,,,,
298270,2022-11-27_20h05.45.535,vts_reward_expectancy_bt,2022.2.4,Win32,60.06006006,Chrome,1536,864,,,,,1,1038,,,,,,,,,,,,,,,,,Y,139,hexagon,1,0,,,,,,,,,,,,,,,,switch,number,numSwt,j,0.4372,Hi,,,,,,2,,,,,,,,low,31,0,31,0,1,,,,,,,,,
298270,2022-11-27_20h05.45.535,vts_reward_expectancy_bt,2022.2.4,Win32,60.06006006,Chrome,1536,864,,,,,10,1048,,,,,,,,,,,,,,,,,H,181,triangle,1,0,,,,,,,,,,,,,,,,repeat,number,numRpt,k,0.5017,Lo,,,,,,3,,,,,,space,4.9069,low,0,0,0,0,1,,,,,,,,,
298270,2022-11-27_20h05.45.535,vts_reward_expectancy_bt,2022.2.4,Win32,60.06006006,Chrome,1536,864,,,,,0,1048,,,,,,,,,,,,,,,,,F,132,circle,0,0,,,,,,,,,,,,,,,,switch,letter,NA,f,0.5538,Lo,,,,,,3,,,,,,,,low,1,0,1,0,1,,,,,,,,,
298270,2022-11-27_20h05.45.535,vts_reward_expectancy_bt,2022.2.4,Win32,60.06006006,Chrome,1536,864,,,,,1,1049,,,,,,,,,,,,,,,,,B,125,hexagon,1,1,,,,,,,,,,,,,,,,repeat,letter,lettRpt,d,0.4085,Hi,,,,,,3,,,,,,,,low,2,0,2,0,1,,,,,,,,,
298270,2022-11-27_20h05.45.535,vts_reward_expectancy_bt,2022.2.4,Win32,60.06006006,Chrome,1536,864,,,,,1,1050,,,,,,,,,,,,,,,,,U,167,star,1,0,,,,,,,,,,,,,,,,switch,number,numSwt,k,0.4506,Hi,,,,,,3,,,,,,,,low,3,0,3,0,1,,,,,,,,,
298270,2022-11-27_20h05.45.535,vts_reward_expectancy_bt,2022.2.4,Win32,60.06006006,Chrome,1536,864,,,,,1,1051,,,,,,,,,,,,,,,,,Y,160,triangle,1,0,,,,,,,,,,,,,,,,repeat,number,numRpt,k,0.5013,Lo,,,,,,3,,,,,,,,low,4,0,4,0,1,,,,,,,,,
298270,2022-11-27_20h05.45.535,vts_reward_expectancy_bt,2022.2.4,Win32,60.06006006,Chrome,1536,864,,,,,0,1051,,,,,,,,,,,,,,,,,S,174,circle,0,0,,,,,,,,,,,,,,,,switch,letter,NA,d,0.4513,Lo,,,,,,3,,,,,,,,low,5,0,5,0,1,,,,,,,,,
298270,2022-11-27_20h05.45.535,vts_reward_expectancy_bt,2022.2.4,Win32,60.06006006,Chrome,1536,864,,,,,10,1061,,,,,,,,,,,,,,,,,W,139,hexagon,1,1,,,,,,,,,,,,,,,,repeat,letter,lettRpt,f,0.4671,Hi,,,,,,3,,,,,,,,low,6,0,6,0,1,,,,,,,,,
298270,2022-11-27_20h05.45.535,vts_reward_expectancy_bt,2022.2.4,Win32,60.06006006,Chrome,1536,864,,,,,10,1071,,,,,,,,,,,,,,,,,D,146,star,1,0,,,,,,,,,,,,,,,,repeat,letter,lettRpt,d,0.5521,Hi,,,,,,3,,,,,,,,low,7,0,7,0,1,,,,,,,,,
298270,2022-11-27_20h05.45.535,vts_reward_expectancy_bt,2022.2.4,Win32,60.06006006,Chrome,1536,864,,,,,0,1071,,,,,,,,,,,,,,,,,H,181,triangle,0,0,,,,,,,,,,,,,,,,switch,number,NA,j,0.3776,Hi,,,,,,3,,,,,,,,low,8,0,8,0,1,,,,,,,,,
298270,2022-11-27_20h05.45.535,vts_reward_expectancy_bt,2022.2.4,Win32,60.06006006,Chrome,1536,864,,,,,0,1071,,,,,,,,,,,,,,,,,F,132,star,1,1,,,,,,,,,,,,,,,,repeat,number,numRpt,j,0.7933,Hi,,,,,,3,,,,,,,,low,9,0,9,0,1,,,,,,,,,
298270,2022-11-27_20h05.45.535,vts_reward_expectancy_bt,2022.2.4,Win32,60.06006006,Chrome,1536,864,,,,,10,1081,,,,,,,,,,,,,,,,,B,125,circle,1,0,,,,,,,,,,,,,,,,switch,letter,lettSwt,d,0.4435,Lo,,,,,,3,,,,,,,,low,10,0,10,0,1,,,,,,,,,
298270,2022-11-27_20h05.45.535,vts_reward_expectancy_bt,2022.2.4,Win32,60.06006006,Chrome,1536,864,,,,,0,1081,,,,,,,,,,,,,,,,,U,167,hexagon,1,0,,,,,,,,,,,,,,,,repeat,letter,lettRpt,f,0.6274,Hi,,,,,,3,,,,,,,,low,11,0,11,0,1,,,,,,,,,
298270,2022-11-27_20h05.45.535,vts_reward_expectancy_bt,2022.2.4,Win32,60.06006006,Chrome,1536,864,,,,,0,1081,,,,,,,,,,,,,,,,,Y,160,hexagon,1,0,,,,,,,,,,,,,,,,switch,number,numSwt,k,0.5769,Hi,,,,,,3,,,,,,,,low,12,0,12,0,1,,,,,,,,,
298270,2022-11-27_20h05.45.535,vts_reward_expectancy_bt,2022.2.4,Win32,60.06006006,Chrome,1536,864,,,,,1,1082,,,,,,,,,,,,,,,,,S,174,circle,1,0,,,,,,,,,,,,,,,,switch,letter,lettSwt,f,0.5141,Lo,,,,,,3,,,,,,,,low,13,0,13,0,1,,,,,,,,,
298270,2022-11-27_20h05.45.535,vts_reward_expectancy_bt,2022.2.4,Win32,60.06006006,Chrome,1536,864,,,,,1,1083,,,,,,,,,,,,,,,,,W,139,star,1,0,,,,,,,,,,,,,,,,repeat,letter,lettRpt,f,0.4976,Hi,,,,,,3,,,,,,,,low,14,0,14,0,1,,,,,,,,,
298270,2022-11-27_20h05.45.535,vts_reward_expectancy_bt,2022.2.4,Win32,60.06006006,Chrome,1536,864,,,,,10,1093,,,,,,,,,,,,,,,,,D,146,triangle,1,0,,,,,,,,,,,,,,,,repeat,letter,lettRpt,d,0.4861,Lo,,,,,,3,,,,,,,,low,15,0,15,0,1,,,,,,,,,
298270,2022-11-27_20h05.45.535,vts_reward_expectancy_bt,2022.2.4,Win32,60.06006006,Chrome,1536,864,,,,,0,1093,,,,,,,,,,,,,,,,,F,125,circle,0,0,,,,,,,,,,,,,,,,switch,number,NA,k,0.4334,Lo,,,,,,3,,,,,,,,low,16,0,16,0,1,,,,,,,,,
298270,2022-11-27_20h05.45.535,vts_reward_expectancy_bt,2022.2.4,Win32,60.06006006,Chrome,1536,864,,,,,0,1093,,,,,,,,,,,,,,,,,W,160,star,0,1,,,,,,,,,,,,,,,,repeat,number,NA,j,0.3676,Lo,,,,,,3,,,,,,,,low,17,0,17,0,1,,,,,,,,,
298270,2022-11-27_20h05.45.535,vts_reward_expectancy_bt,2022.2.4,Win32,60.06006006,Chrome,1536,864,,,,,0,1093,,,,,,,,,,,,,,,,,Y,181,hexagon,0,1,,,,,,,,,,,,,,,,switch,letter,NA,d,0.4673,Lo,,,,,,3,,,,,,,,low,18,0,18,0,1,,,,,,,,,
298270,2022-11-27_20h05.45.535,vts_reward_expectancy_bt,2022.2.4,Win32,60.06006006,Chrome,1536,864,,,,,10,1103,,,,,,,,,,,,,,,,,U,132,triangle,1,1,,,,,,,,,,,,,,,,repeat,letter,lettRpt,f,0.6694,Lo,,,,,,3,,,,,,,,low,19,0,19,0,1,,,,,,,,,
298270,2022-11-27_20h05.45.535,vts_reward_expectancy_bt,2022.2.4,Win32,60.06006006,Chrome,1536,864,,,,,10,1113,,,,,,,,,,,,,,,,,H,167,circle,1,0,,,,,,,,,,,,,,,,switch,number,numSwt,k,0.536,Lo,,,,,,3,,,,,,,,low,20,0,20,0,1,,,,,,,,,
298270,2022-11-27_20h05.45.535,vts_reward_expectancy_bt,2022.2.4,Win32,60.06006006,Chrome,1536,864,,,,,0,1113,,,,,,,,,,,,,,,,,B,174,star,0,0,,,,,,,,,,,,,,,,repeat,number,NA,j,0.4512,Lo,,,,,,3,,,,,,,,low,21,0,21,0,1,,,,,,,,,
298270,2022-11-27_20h05.45.535,vts_reward_expectancy_bt,2022.2.4,Win32,60.06006006,Chrome,1536,864,,,,,0,1113,,,,,,,,,,,,,,,,,D,146,triangle,0,1,,,,,,,,,,,,,,,,switch,letter,NA,f,0.386,Lo,,,,,,3,,,,,,,,low,22,0,22,0,1,,,,,,,,,
298270,2022-11-27_20h05.45.535,vts_reward_expectancy_bt,2022.2.4,Win32,60.06006006,Chrome,1536,864,,,,,0,1113,,,,,,,,,,,,,,,,,S,139,hexagon,1,1,,,,,,,,,,,,,,,,switch,number,numSwt,j,0.6396,Hi,,,,,,3,,,,,,,,low,23,0,23,0,1,,,,,,,,,
298270,2022-11-27_20h05.45.535,vts_reward_expectancy_bt,2022.2.4,Win32,60.06006006,Chrome,1536,864,,,,,10,1123,,,,,,,,,,,,,,,,,B,167,circle,1,0,,,,,,,,,,,,,,,,switch,letter,lettSwt,d,0.7853,Lo,,,,,,3,,,,,,,,low,24,0,24,0,1,,,,,,,,,
298270,2022-11-27_20h05.45.535,vts_reward_expectancy_bt,2022.2.4,Win32,60.06006006,Chrome,1536,864,,,,,0,1123,,,,,,,,,,,,,,,,,W,146,hexagon,1,0,,,,,,,,,,,,,,,,switch,number,numSwt,j,0.6546,Hi,,,,,,3,,,,,,,,low,25,0,25,0,1,,,,,,,,,
298270,2022-11-27_20h05.45.535,vts_reward_expectancy_bt,2022.2.4,Win32,60.06006006,Chrome,1536,864,,,,,0,1123,,,,,,,,,,,,,,,,,Y,160,star,1,0,,,,,,,,,,,,,,,,switch,letter,lettSwt,f,0.5374,Hi,,,,,,3,,,,,,,,low,26,0,26,0,1,,,,,,,,,
298270,2022-11-27_20h05.45.535,vts_reward_expectancy_bt,2022.2.4,Win32,60.06006006,Chrome,1536,864,,,,,1,1124,,,,,,,,,,,,,,,,,D,125,triangle,1,0,,,,,,,,,,,,,,,,repeat,letter,lettRpt,d,0.9234,Lo,,,,,,3,,,,,,,,low,27,0,27,0,1,,,,,,,,,
298270,2022-11-27_20h05.45.535,vts_reward_expectancy_bt,2022.2.4,Win32,60.06006006,Chrome,1536,864,,,,,1,1125,,,,,,,,,,,,,,,,,U,139,triangle,1,0,,,,,,,,,,,,,,,,repeat,letter,lettRpt,f,0.8601,Lo,,,,,,3,,,,,,,,low,28,0,28,0,1,,,,,,,,,
298270,2022-11-27_20h05.45.535,vts_reward_expectancy_bt,2022.2.4,Win32,60.06006006,Chrome,1536,864,,,,,0,1125,,,,,,,,,,,,,,,,,H,174,hexagon,1,0,,,,,,,,,,,,,,,,switch,number,numSwt,k,0.56,Hi,,,,,,3,,,,,,,,low,29,0,29,0,1,,,,,,,,,
298270,2022-11-27_20h05.45.535,vts_reward_expectancy_bt,2022.2.4,Win32,60.06006006,Chrome,1536,864,,,,,0,1125,,,,,,,,,,,,,,,,,F,132,star,0,0,,,,,,,,,,,,,,,,switch,letter,NA,f,0.6013,Hi,,,,,,3,,,,,,,,low,30,0,30,0,1,,,,,,,,,
298270,2022-11-27_20h05.45.535,vts_reward_expectancy_bt,2022.2.4,Win32,60.06006006,Chrome,1536,864,,,,,10,1135,,,,,,,,,,,,,,,,,S,181,circle,1,1,,,,,,,,,,,,,,,,repeat,letter,lettRpt,f,0.5589,Lo,,,,,,3,,,,,,,,low,31,0,31,0,1,,,,,,,,,
298270,2022-11-27_20h05.45.535,vts_reward_expectancy_bt,2022.2.4,Win32,60.06006006,Chrome,1536,864,,,,,10,1145,,,,,,,,,,,,,,,,,U,167,triangle,1,0,,,,,,,,,,,,,,,,repeat,letter,lettRpt,f,0.8504,Lo,,,,,,4,,,,,,space,1.1381,low,0,0,0,0,1,,,,,,,,,
298270,2022-11-27_20h05.45.535,vts_reward_expectancy_bt,2022.2.4,Win32,60.06006006,Chrome,1536,864,,,,,10,1155,,,,,,,,,,,,,,,,,F,160,circle,1,0,,,,,,,,,,,,,,,,repeat,letter,lettRpt,d,0.7445,Lo,,,,,,4,,,,,,,,low,1,0,1,0,1,,,,,,,,,
298270,2022-11-27_20h05.45.535,vts_reward_expectancy_bt,2022.2.4,Win32,60.06006006,Chrome,1536,864,,,,,1,1156,,,,,,,,,,,,,,,,,D,139,star,1,0,,,,,,,,,,,,,,,,switch,number,numSwt,j,0.4119,Hi,,,,,,4,,,,,,,,low,2,0,2,0,1,,,,,,,,,
298270,2022-11-27_20h05.45.535,vts_reward_expectancy_bt,2022.2.4,Win32,60.06006006,Chrome,1536,864,,,,,0,1156,,,,,,,,,,,,,,,,,B,174,hexagon,1,0,,,,,,,,,,,,,,,,repeat,number,numRpt,k,0.6401,Hi,,,,,,4,,,,,,,,low,3,0,3,0,1,,,,,,,,,
298270,2022-11-27_20h05.45.535,vts_reward_expectancy_bt,2022.2.4,Win32,60.06006006,Chrome,1536,864,,,,,1,1157,,,,,,,,,,,,,,,,,W,146,triangle,1,0,,,,,,,,,,,,,,,,switch,letter,lettSwt,f,0.4682,Lo,,,,,,4,,,,,,,,low,4,0,4,0,1,,,,,,,,,
298270,2022-11-27_20h05.45.535,vts_reward_expectancy_bt,2022.2.4,Win32,60.06006006,Chrome,1536,864,,,,,10,1167,,,,,,,,,,,,,,,,,Y,125,circle,1,0,,,,,,,,,,,,,,,,switch,number,numSwt,j,0.3513,Lo,,,,,,4,,,,,,,,low,5,0,5,0,1,,,,,,,,,
298270,2022-11-27_20h05.45.535,vts_reward_expectancy_bt,2022.2.4,Win32,60.06006006,Chrome,1536,864,,,,,0,1167,,,,,,,,,,,,,,,,,H,181,star,1,0,,,,,,,,,,,,,,,,repeat,number,numRpt,k,0.5173,Hi,,,,,,4,,,,,,,,low,6,0,6,0,1,,,,,,,,,
298270,2022-11-27_20h05.45.535,vts_reward_expectancy_bt,2022.2.4,Win32,60.06006006,Chrome,1536,864,,,,,0,1167,,,,,,,,,,,,,,,,,S,132,hexagon,0,0,,,,,,,,,,,,,,,,switch,letter,NA,d,0.4917,Hi,,,,,,4,,,,,,,,low,7,0,7,0,1,,,,,,,,,
298270,2022-11-27_20h05.45.535,vts_reward_expectancy_bt,2022.2.4,Win32,60.06006006,Chrome,1536,864,,,,,0,1167,,,,,,,,,,,,,,,,,U,167,star,1,1,,,,,,,,,,,,,,,,repeat,letter,lettRpt,f,0.5002,Hi,,,,,,4,,,,,,,,low,8,0,8,0,1,,,,,,,,,
298270,2022-11-27_20h05.45.535,vts_reward_expectancy_bt,2022.2.4,Win32,60.06006006,Chrome,1536,864,,,,,1,1168,,,,,,,,,,,,,,,,,F,160,triangle,1,0,,,,,,,,,,,,,,,,switch,number,numSwt,k,0.5604,Lo,,,,,,4,,,,,,,,low,9,0,9,0,1,,,,,,,,,
298270,2022-11-27_20h05.45.535,vts_reward_expectancy_bt,2022.2.4,Win32,60.06006006,Chrome,1536,864,,,,,1,1169,,,,,,,,,,,,,,,,,D,139,circle,1,0,,,,,,,,,,,,,,,,switch,letter,lettSwt,d,0.6019,Lo,,,,,,4,,,,,,,,low,10,0,10,0,1,,,,,,,,,
298270,2022-11-27_20h05.45.535,vts_reward_expectancy_bt,2022.2.4,Win32,60.06006006,Chrome,1536,864,,,,,0,1169,,,,,,,,,,,,,,,,,B,174,hexagon,1,0,,,,,,,,,,,,,,,,repeat,letter,lettRpt,d,0.5139,Hi,,,,,,4,,,,,,,,low,11,0,11,0,1,,,,,,,,,
298270,2022-11-27_20h05.45.535,vts_reward_expectancy_bt,2022.2.4,Win32,60.06006006,Chrome,1536,864,,,,,10,1179,,,,,,,,,,,,,,,,,W,146,triangle,1,0,,,,,,,,,,,,,,,,repeat,letter,lettRpt,f,0.5311,Lo,,,,,,4,,,,,,,,low,12,0,12,0,1,,,,,,,,,
298270,2022-11-27_20h05.45.535,vts_reward_expectancy_bt,2022.2.4,Win32,60.06006006,Chrome,1536,864,,,,,0,1179,,,,,,,,,,,,,,,,,Y,125,hexagon,1,0,,,,,,,,,,,,,,,,repeat,letter,lettRpt,f,0.5931,Hi,,,,,,4,,,,,,,,low,13,0,13,0,1,,,,,,,,,
298270,2022-11-27_20h05.45.535,vts_reward_expectancy_bt,2022.2.4,Win32,60.06006006,Chrome,1536,864,,,,,0,1179,,,,,,,,,,,,,,,,,H,181,star,1,0,,,,,,,,,,,,,,,,switch,number,numSwt,k,0.5579,Hi,,,,,,4,,,,,,,,low,14,0,14,0,1,,,,,,,,,
298270,2022-11-27_20h05.45.535,vts_reward_expectancy_bt,2022.2.4,Win32,60.06006006,Chrome,1536,864,,,,,10,1189,,,,,,,,,,,,,,,,,S,132,circle,1,0,,,,,,,,,,,,,,,,repeat,number,numRpt,j,0.5676,Lo,,,,,,4,,,,,,,,low,15,0,15,0,1,,,,,,,,,
298270,2022-11-27_20h05.45.535,vts_reward_expectancy_bt,2022.2.4,Win32,60.06006006,Chrome,1536,864,,,,,0,1189,,,,,,,,,,,,,,,,,Y,174,hexagon,1,0,,,,,,,,,,,,,,,,switch,letter,lettSwt,f,0.5994,Hi,,,,,,4,,,,,,,,low,16,0,16,0,1,,,,,,,,,
298270,2022-11-27_20h05.45.535,vts_reward_expectancy_bt,2022.2.4,Win32,60.06006006,Chrome,1536,864,,,,,1,1190,,,,,,,,,,,,,,,,,F,125,circle,1,0,,,,,,,,,,,,,,,,switch,number,numSwt,j,0.4328,Lo,,,,,,4,,,,,,,,low,17,0,17,0,1,,,,,,,,,
298270,2022-11-27_20h05.45.535,vts_reward_expectancy_bt,2022.2.4,Win32,60.06006006,Chrome,1536,864,,,,,1,1191,,,,,,,,,,,,,,,,,B,132,star,1,0,,,,,,,,,,,,,,,,switch,letter,lettSwt,d,0.4444,Hi,,,,,,4,,,,,,,,low,18,0,18,0,1,,,,,,,,,
298270,2022-11-27_20h05.45.535,vts_reward_expectancy_bt,2022.2.4,Win32,60.06006006,Chrome,1536,864,,,,,1,1192,,,,,,,,,,,,,,,,,D,167,triangle,1,0,,,,,,,,,,,,,,,,switch,number,numSwt,k,0.5108,Lo,,,,,,4,,,,,,,,low,19,0,19,0,1,,,,,,,,,
298270,2022-11-27_20h05.45.535,vts_reward_expectancy_bt,2022.2.4,Win32,60.06006006,Chrome,1536,864,,,,,0,1192,,,,,,,,,,,,,,,,,W,146,star,1,0,,,,,,,,,,,,,,,,repeat,number,numRpt,j,0.5104,Hi,,,,,,4,,,,,,,,low,20,0,20,0,1,,,,,,,,,
298270,2022-11-27_20h05.45.535,vts_reward_expectancy_bt,2022.2.4,Win32,60.06006006,Chrome,1536,864,,,,,10,1202,,,,,,,,,,,,,,,,,U,139,circle,1,0,,,,,,,,,,,,,,,,repeat,number,numRpt,j,0.418,Lo,,,,,,4,,,,,,,,low,21,0,21,0,1,,,,,,,,,
298270,2022-11-27_20h05.45.535,vts_reward_expectancy_bt,2022.2.4,Win32,60.06006006,Chrome,1536,864,,,,,10,1212,,,,,,,,,,,,,,,,,H,160,hexagon,1,0,,,,,,,,,,,,,,,,repeat,number,numRpt,k,0.5014,Hi,,,,,,4,,,,,,,,low,22,0,22,0,1,,,,,,,,,
298270,2022-11-27_20h05.45.535,vts_reward_expectancy_bt,2022.2.4,Win32,60.06006006,Chrome,1536,864,,,,,1,1213,,,,,,,,,,,,,,,,,S,181,triangle,1,0,,,,,,,,,,,,,,,,switch,letter,lettSwt,f,0.4736,Lo,,,,,,4,,,,,,,,low,23,0,23,0,1,,,,,,,,,
298270,2022-11-27_20h05.45.535,vts_reward_expectancy_bt,2022.2.4,Win32,60.06006006,Chrome,1536,864,,,,,0,1213,,,,,,,,,,,,,,,,,U,125,hexagon,1,0,,,,,,,,,,,,,,,,repeat,letter,lettRpt,f,0.5844,Hi,,,,,,4,,,,,,,,low,24,0,24,0,1,,,,,,,,,
298270,2022-11-27_20h05.45.535,vts_reward_expectancy_bt,2022.2.4,Win32,60.06006006,Chrome,1536,864,,,,,1,1214,,,,,,,,,,,,,,,,,S,181,circle,1,0,,,,,,,,,,,,,,,,repeat,letter,lettRpt,f,0.5591,Lo,,,,,,4,,,,,,,,low,25,0,25,0,1,,,,,,,,,
298270,2022-11-27_20h05.45.535,vts_reward_expectancy_bt,2022.2.4,Win32,60.06006006,Chrome,1536,864,,,,,0,1214,,,,,,,,,,,,,,,,,B,139,star,1,0,,,,,,,,,,,,,,,,switch,number,numSwt,j,0.568,Hi,,,,,,4,,,,,,,,low,26,0,26,0,1,,,,,,,,,
298270,2022-11-27_20h05.45.535,vts_reward_expectancy_bt,2022.2.4,Win32,60.06006006,Chrome,1536,864,,,,,1,1215,,,,,,,,,,,,,,,,,D,132,triangle,1,0,,,,,,,,,,,,,,,,repeat,number,numRpt,j,0.3376,Lo,,,,,,4,,,,,,,,low,27,0,27,0,1,,,,,,,,,
298270,2022-11-27_20h05.45.535,vts_reward_expectancy_bt,2022.2.4,Win32,60.06006006,Chrome,1536,864,,,,,0,1215,,,,,,,,,,,,,,,,,Y,160,hexagon,1,0,,,,,,,,,,,,,,,,switch,letter,lettSwt,f,0.6079,Hi,,,,,,4,,,,,,,,low,28,0,28,0,1,,,,,,,,,
298270,2022-11-27_20h05.45.535,vts_reward_expectancy_bt,2022.2.4,Win32,60.06006006,Chrome,1536,864,,,,,0,1215,,,,,,,,,,,,,,,,,W,167,star,0,0,,,,,,,,,,,,,,,,switch,number,NA,j,0.3847,Hi,,,,,,4,,,,,,,,low,29,0,29,0,1,,,,,,,,,
298270,2022-11-27_20h05.45.535,vts_reward_expectancy_bt,2022.2.4,Win32,60.06006006,Chrome,1536,864,,,,,0,1215,,,,,,,,,,,,,,,,,F,174,triangle,0,1,,,,,,,,,,,,,,,,switch,letter,NA,f,0.4234,Hi,,,,,,4,,,,,,,,low,30,0,30,0,1,,,,,,,,,
298270,2022-11-27_20h05.45.535,vts_reward_expectancy_bt,2022.2.4,Win32,60.06006006,Chrome,1536,864,,,,,1,1216,,,,,,,,,,,,,,,,,H,146,circle,1,1,,,,,,,,,,,,,,,,repeat,letter,lettRpt,d,0.525,Lo,,,,,,4,,,,,,,,low,31,0,31,0,1,,,,,,,,,
298270,2022-11-27_20h05.45.535,vts_reward_expectancy_bt,2022.2.4,Win32,60.06006006,Chrome,1536,864,,,,,1,1217,,,,,,,,,,,,,,,,,D,125,triangle,1,0,,,,,,,,,,,,,,,,switch,number,numSwt,j,0.679,Lo,,,,,,5,,,,,,space,0.7651,low,0,0,0,0,1,,,,,,,,,
298270,2022-11-27_20h05.45.535,vts_reward_expectancy_bt,2022.2.4,Win32,60.06006006,Chrome,1536,864,,,,,10,1227,,,,,,,,,,,,,,,,,W,181,circle,1,0,,,,,,,,,,,,,,,,switch,letter,lettSwt,f,0.4938,Lo,,,,,,5,,,,,,,,low,1,0,1,0,1,,,,,,,,,
298270,2022-11-27_20h05.45.535,vts_reward_expectancy_bt,2022.2.4,Win32,60.06006006,Chrome,1536,864,,,,,0,1227,,,,,,,,,,,,,,,,,Y,146,star,0,0,,,,,,,,,,,,,,,,switch,number,NA,k,0.7026,Lo,,,,,,5,,,,,,,,low,2,0,2,0,1,,,,,,,,,
298270,2022-11-27_20h05.45.535,vts_reward_expectancy_bt,2022.2.4,Win32,60.06006006,Chrome,1536,864,,,,,0,1227,,,,,,,,,,,,,,,,,S,132,hexagon,1,1,,,,,,,,,,,,,,,,switch,letter,lettSwt,f,0.6931,Hi,,,,,,5,,,,,,,,low,3,0,3,0,1,,,,,,,,,
298270,2022-11-27_20h05.45.535,vts_reward_expectancy_bt,2022.2.4,Win32,60.06006006,Chrome,1536,864,,,,,1,1228,,,,,,,,,,,,,,,,,B,174,triangle,1,0,,,,,,,,,,,,,,,,switch,number,numSwt,k,0.6189,Lo,,,,,,5,,,,,,,,low,4,0,4,0,1,,,,,,,,,
298270,2022-11-27_20h05.45.535,vts_reward_expectancy_bt,2022.2.4,Win32,60.06006006,Chrome,1536,864,,,,,10,1238,,,,,,,,,,,,,,,,,U,160,circle,1,0,,,,,,,,,,,,,,,,switch,letter,lettSwt,f,0.4909,Lo,,,,,,5,,,,,,,,low,5,0,5,0,1,,,,,,,,,
298270,2022-11-27_20h05.45.535,vts_reward_expectancy_bt,2022.2.4,Win32,60.06006006,Chrome,1536,864,,,,,0,1238,,,,,,,,,,,,,,,,,F,167,star,1,0,,,,,,,,,,,,,,,,switch,number,numSwt,k,0.6677,Hi,,,,,,5,,,,,,,,low,6,0,6,0,1,,,,,,,,,
298270,2022-11-27_20h05.45.535,vts_reward_expectancy_bt,2022.2.4,Win32,60.06006006,Chrome,1536,864,,,,,0,1238,,,,,,,,,,,,,,,,,H,139,hexagon,1,0,,,,,,,,,,,,,,,,repeat,number,numRpt,j,0.6675,Hi,,,,,,5,,,,,,,,low,7,0,7,0,1,,,,,,,,,
298270,2022-11-27_20h05.45.535,vts_reward_expectancy_bt,2022.2.4,Win32,60.06006006,Chrome,1536,864,,,,,0,1238,,,,,,,,,,,,,,,,,D,125,hexagon,0,0,,,,,,,,,,,,,,,,switch,letter,NA,f,0.6336,Hi,,,,,,5,,,,,,,,low,8,0,8,0,1,,,,,,,,,
298270,2022-11-27_20h05.45.535,vts_reward_expectancy_bt,2022.2.4,Win32,60.06006006,Chrome,1536,864,,,,,1,1239,,,,,,,,,,,,,,,,,W,181,triangle,1,1,,,,,,,,,,,,,,,,repeat,letter,lettRpt,f,0.4993,Lo,,,,,,5,,,,,,,,low,9,0,9,0,1,,,,,,,,,
298270,2022-11-27_20h05.45.535,vts_reward_expectancy_bt,2022.2.4,Win32,60.06006006,Chrome,1536,864,,,,,1,1240,,,,,,,,,,,,,,,,,Y,146,circle,1,0,,,,,,,,,,,,,,,,repeat,letter,lettRpt,f,0.5002,Lo,,,,,,5,,,,,,,,low,10,0,10,0,1,,,,,,,,,
298270,2022-11-27_20h05.45.535,vts_reward_expectancy_bt,2022.2.4,Win32,60.06006006,Chrome,1536,864,,,,,0,1240,,,,,,,,,,,,,,,,,S,132,star,1,0,,,,,,,,,,,,,,,,switch,number,numSwt,j,0.52,Hi,,,,,,5,,,,,,,,low,11,0,11,0,1,,,,,,,,,
298270,2022-11-27_20h05.45.535,vts_reward_expectancy_bt,2022.2.4,Win32,60.06006006,Chrome,1536,864,,,,,10,1250,,,,,,,,,,,,,,,,,B,174,triangle,1,0,,,,,,,,,,,,,,,,repeat,number,numRpt,k,0.5672,Lo,,,,,,5,,,,,,,,low,12,0,12,0,1,,,,,,,,,
298270,2022-11-27_20h05.45.535,vts_reward_expectancy_bt,2022.2.4,Win32,60.06006006,Chrome,1536,864,,,,,10,1260,,,,,,,,,,,,,,,,,U,160,circle,1,0,,,,,,,,,,,,,,,,switch,letter,lettSwt,f,0.4847,Lo,,,,,,5,,,,,,,,low,13,0,13,0,1,,,,,,,,,
298270,2022-11-27_20h05.45.535,vts_reward_expectancy_bt,2022.2.4,Win32,60.06006006,Chrome,1536,864,,,,,10,1270,,,,,,,,,,,,,,,,,F,167,hexagon,1,0,,,,,,,,,,,,,,,,switch,number,numSwt,k,0.3341,Hi,,,,,,5,,,,,,,,low,14,0,14,0,1,,,,,,,,,
298270,2022-11-27_20h05.45.535,vts_reward_expectancy_bt,2022.2.4,Win32,60.06006006,Chrome,1536,864,,,,,1,1271,,,,,,,,,,,,,,,,,H,139,star,1,0,,,,,,,,,,,,,,,,repeat,number,numRpt,j,0.3067,Hi,,,,,,5,,,,,,,,low,15,0,15,0,1,,,,,,,,,
298270,2022-11-27_20h05.45.535,vts_reward_expectancy_bt,2022.2.4,Win32,60.06006006,Chrome,1536,864,,,,,1,1272,,,,,,,,,,,,,,,,,B,132,triangle,1,0,,,,,,,,,,,,,,,,switch,letter,lettSwt,d,0.4544,Lo,,,,,,5,,,,,,,,low,16,0,16,0,1,,,,,,,,,
298270,2022-11-27_20h05.45.535,vts_reward_expectancy_bt,2022.2.4,Win32,60.06006006,Chrome,1536,864,,,,,1,1273,,,,,,,,,,,,,,,,,U,125,circle,1,0,,,,,,,,,,,,,,,,repeat,letter,lettRpt,f,0.5854,Lo,,,,,,5,,,,,,,,low,17,0,17,0,1,,,,,,,,,
298270,2022-11-27_20h05.45.535,vts_reward_expectancy_bt,2022.2.4,Win32,60.06006006,Chrome,1536,864,,,,,10,1283,,,,,,,,,,,,,,,,,F,139,star,1,0,,,,,,,,,,,,,,,,switch,number,numSwt,j,0.4141,Hi,,,,,,5,,,,,,,,low,18,0,18,0,1,,,,,,,,,
298270,2022-11-27_20h05.45.535,vts_reward_expectancy_bt,2022.2.4,Win32,60.06006006,Chrome,1536,864,,,,,0,1283,,,,,,,,,,,,,,,,,Y,181,hexagon,1,0,,,,,,,,,,,,,,,,switch,letter,lettSwt,f,0.4718,Hi,,,,,,5,,,,,,,,low,19,0,19,0,1,,,,,,,,,
298270,2022-11-27_20h05.45.535,vts_reward_expectancy_bt,2022.2.4,Win32,60.06006006,Chrome,1536,864,,,,,10,1293,,,,,,,,,,,,,,,,,S,146,triangle,1,0,,,,,,,,,,,,,,,,repeat,letter,lettRpt,f,0.4679,Lo,,,,,,5,,,,,,,,low,20,0,20,0,1,,,,,,,,,
298270,2022-11-27_20h05.45.535,vts_reward_expectancy_bt,2022.2.4,Win32,60.06006006,Chrome,1536,864,,,,,0,1293,,,,,,,,,,,,,,,,,W,167,star,0,0,,,,,,,,,,,,,,,,switch,number,NA,j,0.4185,Lo,,,,,,5,,,,,,,,low,21,0,21,0,1,,,,,,,,,
298270,2022-11-27_20h05.45.535,vts_reward_expectancy_bt,2022.2.4,Win32,60.06006006,Chrome,1536,864,,,,,1,1294,,,,,,,,,,,,,,,,,H,174,circle,1,1,,,,,,,,,,,,,,,,repeat,number,numRpt,k,0.4756,Lo,,,,,,5,,,,,,,,low,22,0,22,0,1,,,,,,,,,
298270,2022-11-27_20h05.45.535,vts_reward_expectancy_bt,2022.2.4,Win32,60.06006006,Chrome,1536,864,,,,,0,1294,,,,,,,,,,,,,,,,,D,160,hexagon,1,0,,,,,,,,,,,,,,,,switch,letter,lettSwt,d,0.5474,Hi,,,,,,5,,,,,,,,low,23,0,23,0,1,,,,,,,,,
298270,2022-11-27_20h05.45.535,vts_reward_expectancy_bt,2022.2.4,Win32,60.06006006,Chrome,1536,864,,,,,1,1295,,,,,,,,,,,,,,,,,U,167,hexagon,1,0,,,,,,,,,,,,,,,,repeat,letter,lettRpt,f,0.3847,Hi,,,,,,5,,,,,,,,low,24,0,24,0,1,,,,,,,,,
298270,2022-11-27_20h05.45.535,vts_reward_expectancy_bt,2022.2.4,Win32,60.06006006,Chrome,1536,864,,,,,10,1305,,,,,,,,,,,,,,,,,D,132,star,1,0,,,,,,,,,,,,,,,,repeat,letter,lettRpt,d,0.4895,Hi,,,,,,5,,,,,,,,low,25,0,25,0,1,,,,,,,,,
298270,2022-11-27_20h05.45.535,vts_reward_expectancy_bt,2022.2.4,Win32,60.06006006,Chrome,1536,864,,,,,1,1306,,,,,,,,,,,,,,,,,Y,125,triangle,1,0,,,,,,,,,,,,,,,,switch,number,numSwt,j,0.3566,Lo,,,,,,5,,,,,,,,low,26,0,26,0,1,,,,,,,,,
298270,2022-11-27_20h05.45.535,vts_reward_expectancy_bt,2022.2.4,Win32,60.06006006,Chrome,1536,864,,,,,0,1306,,,,,,,,,,,,,,,,,S,139,circle,0,0,,,,,,,,,,,,,,,,repeat,number,NA,k,0.3508,Lo,,,,,,5,,,,,,,,low,27,0,27,0,1,,,,,,,,,
298270,2022-11-27_20h05.45.535,vts_reward_expectancy_bt,2022.2.4,Win32,60.06006006,Chrome,1536,864,,,,,1,1307,,,,,,,,,,,,,,,,,F,181,triangle,1,1,,,,,,,,,,,,,,,,switch,letter,lettSwt,d,0.551,Lo,,,,,,5,,,,,,,,low,28,0,28,0,1,,,,,,,,,
298270,2022-11-27_20h05.45.535,vts_reward_expectancy_bt,2022.2.4,Win32,60.06006006,Chrome,1536,864,,,,,0,1307,,,,,,,,,,,,,,,,,B,160,star,0,0,,,,,,,,,,,,,,,,switch,number,NA,j,0.3853,Lo,,,,,,5,,,,,,,,low,29,0,29,0,1,,,,,,,,,
298270,2022-11-27_20h05.45.535,vts_reward_expectancy_bt,2022.2.4,Win32,60.06006006,Chrome,1536,864,,,,,0,1307,,,,,,,,,,,,,,,,,H,146,hexagon,1,1,,,,,,,,,,,,,,,,repeat,number,numRpt,j,0.6839,Hi,,,,,,5,,,,,,,,low,30,0,30,0,1,,,,,,,,,
298270,2022-11-27_20h05.45.535,vts_reward_expectancy_bt,2022.2.4,Win32,60.06006006,Chrome,1536,864,,,,,10,1317,,,,,,,,,,,,,,,,,W,174,circle,1,0,,,,,,,,,,,,,,,,switch,letter,lettSwt,f,0.4849,Lo,,,,,,5,,,,,,,,low,31,0,31,0,1,,,,,,,,,
298270,2022-11-27_20h05.45.535,vts_reward_expectancy_bt,2022.2.4,Win32,60.06006006,Chrome,1536,864,,,,,0,1317,,,,,,,,,,,,,,,,,B,125,circle,0,0,,,,,,,,,,,,,,,,switch,number,NA,k,0.4549,Lo,,,,,,6,,,,,,space,1.5042,low,0,0,0,0,1,,,,,,,,,
298270,2022-11-27_20h05.45.535,vts_reward_expectancy_bt,2022.2.4,Win32,60.06006006,Chrome,1536,864,,,,,0,1317,,,,,,,,,,,,,,,,,H,146,hexagon,0,1,,,,,,,,,,,,,,,,switch,letter,NA,f,0.4337,Lo,,,,,,6,,,,,,,,low,1,0,1,0,1,,,,,,,,,
298270,2022-11-27_20h05.45.535,vts_reward_expectancy_bt,2022.2.4,Win32,60.06006006,Chrome,1536,864,,,,,10,1327,,,,,,,,,,,,,,,,,U,132,star,1,1,,,,,,,,,,,,,,,,switch,number,numSwt,j,0.3807,Hi,,,,,,6,,,,,,,,low,2,0,2,0,1,,,,,,,,,
298270,2022-11-27_20h05.45.535,vts_reward_expectancy_bt,2022.2.4,Win32,60.06006006,Chrome,1536,864,,,,,0,1327,,,,,,,,,,,,,,,,,F,160,triangle,0,0,,,,,,,,,,,,,,,,switch,letter,NA,f,0.4021,Hi,,,,,,6,,,,,,,,low,3,0,3,0,1,,,,,,,,,
298270,2022-11-27_20h05.45.535,vts_reward_expectancy_bt,2022.2.4,Win32,60.06006006,Chrome,1536,864,,,,,10,1337,,,,,,,,,,,,,,,,,W,167,circle,1,1,,,,,,,,,,,,,,,,repeat,letter,lettRpt,f,0.4508,Lo,,,,,,6,,,,,,,,low,4,0,4,0,1,,,,,,,,,
298270,2022-11-27_20h05.45.535,vts_reward_expectancy_bt,2022.2.4,Win32,60.06006006,Chrome,1536,864,,,,,1,1338,,,,,,,,,,,,,,,,,S,139,hexagon,1,0,,,,,,,,,,,,,,,,switch,number,numSwt,j,0.3808,Hi,,,,,,6,,,,,,,,low,5,0,5,0,1,,,,,,,,,
298270,2022-11-27_20h05.45.535,vts_reward_expectancy_bt,2022.2.4,Win32,60.06006006,Chrome,1536,864,,,,,10,1348,,,,,,,,,,,,,,,,,Y,181,star,1,0,,,,,,,,,,,,,,,,repeat,number,numRpt,k,0.3165,Hi,,,,,,6,,,,,,,,low,6,0,6,0,1,,,,,,,,,
298270,2022-11-27_20h05.45.535,vts_reward_expectancy_bt,2022.2.4,Win32,60.06006006,Chrome,1536,864,,,,,10,1358,,,,,,,,,,,,,,,,,D,174,triangle,1,0,,,,,,,,,,,,,,,,switch,letter,lettSwt,d,0.3972,Lo,,,,,,6,,,,,,,,low,7,0,7,0,1,,,,,,,,,
298270,2022-11-27_20h05.45.535,vts_reward_expectancy_bt,2022.2.4,Win32,60.06006006,Chrome,1536,864,,,,,0,1358,,,,,,,,,,,,,,,,,B,125,triangle,0,0,,,,,,,,,,,,,,,,repeat,letter,NA,f,0.3337,Lo,,,,,,6,,,,,,,,low,8,0,8,0,1,,,,,,,,,
298270,2022-11-27_20h05.45.535,vts_reward_expectancy_bt,2022.2.4,Win32,60.06006006,Chrome,1536,864,,,,,0,1358,,,,,,,,,,,,,,,,,H,146,star,1,1,,,,,,,,,,,,,,,,repeat,letter,lettRpt,d,0.521,Hi,,,,,,6,,,,,,,,low,9,0,9,0,1,,,,,,,,,
298270,2022-11-27_20h05.45.535,vts_reward_expectancy_bt,2022.2.4,Win32,60.06006006,Chrome,1536,864,,,,,10,1368,,,,,,,,,,,,,,,,,U,132,circle,1,0,,,,,,,,,,,,,,,,switch,number,numSwt,j,0.3646,Lo,,,,,,6,,,,,,,,low,10,0,10,0,1,,,,,,,,,
298270,2022-11-27_20h05.45.535,vts_reward_expectancy_bt,2022.2.4,Win32,60.06006006,Chrome,1536,864,,,,,0,1368,,,,,,,,,,,,,,,,,F,160,hexagon,0,0,,,,,,,,,,,,,,,,repeat,number,NA,j,0.4842,Lo,,,,,,6,,,,,,,,low,11,0,11,0,1,,,,,,,,,
298270,2022-11-27_20h05.45.535,vts_reward_expectancy_bt,2022.2.4,Win32,60.06006006,Chrome,1536,864,,,,,1,1369,,,,,,,,,,,,,,,,,W,167,hexagon,1,1,,,,,,,,,,,,,,,,switch,letter,lettSwt,f,0.4347,Hi,,,,,,6,,,,,,,,low,12,0,12,0,1,,,,,,,,,
298270,2022-11-27_20h05.45.535,vts_reward_expectancy_bt,2022.2.4,Win32,60.06006006,Chrome,1536,864,,,,,1,1370,,,,,,,,,,,,,,,,,S,139,triangle,1,0,,,,,,,,,,,,,,,,repeat,letter,lettRpt,f,0.4032,Lo,,,,,,6,,,,,,,,low,13,0,13,0,1,,,,,,,,,
298270,2022-11-27_20h05.45.535,vts_reward_expectancy_bt,2022.2.4,Win32,60.06006006,Chrome,1536,864,,,,,1,1371,,,,,,,,,,,,,,,,,Y,181,circle,1,0,,,,,,,,,,,,,,,,switch,number,numSwt,k,0.5097,Lo,,,,,,6,,,,,,,,low,14,0,14,0,1,,,,,,,,,
298270,2022-11-27_20h05.45.535,vts_reward_expectancy_bt,2022.2.4,Win32,60.06006006,Chrome,1536,864,,,,,0,1371,,,,,,,,,,,,,,,,,D,174,star,1,0,,,,,,,,,,,,,,,,switch,letter,lettSwt,d,0.601,Hi,,,,,,6,,,,,,,,low,15,0,15,0,1,,,,,,,,,
298270,2022-11-27_20h05.45.535,vts_reward_expectancy_bt,2022.2.4,Win32,60.06006006,Chrome,1536,864,,,,,0,1371,,,,,,,,,,,,,,,,,B,167,hexagon,0,0,,,,,,,,,,,,,,,,switch,number,NA,j,0.3838,Hi,,,,,,6,,,,,,,,low,16,0,16,0,1,,,,,,,,,
