participant,date,expName,psychopyVersion,OS,frameRate,browser,xResolution,yResolution,key_resp.keys,key_resp.rt,training_resp.keys,training_resp.rt,points_trial,points_cumul,trainBlock,training.thisRepN,training.thisTrialN,training.thisN,training.thisIndex,training.ran,LTriangleOpac,LCircleOpac,LHexagonOpac,LStarOpac,RTriangleOpac,RCircleOpac,RHexagonOpac,RStarOpac,LShape_ID,RShape_ID,curr_topStim,curr_bottStim,curr_shape,acc,E1,target_resp_prac1.keys,pracBlock,task1_prac_trials.thisRepN,task1_prac_trials.thisTrialN,task1_prac_trials.thisN,task1_prac_trials.thisIndex,task1_prac_trials.ran,target_resp_prac1.rt,target_resp_prac2.keys,target_resp_prac2.rt,task2_praac_trials.thisRepN,task2_praac_trials.thisTrialN,task2_praac_trials.thisN,task2_praac_trials.thisIndex,task2_praac_trials.ran,alt,task,condition,target_resp.keys,target_resp.rt,rewCond,vts_practice_trials.thisRepN,vts_practice_trials.thisTrialN,vts_practice_trials.thisN,vts_practice_trials.thisIndex,vts_practice_trials.ran,blockNum,trials_norew.thisRepN,trials_norew.thisTrialN,trials_norew.thisN,trials_norew.thisIndex,trials_norew.ran,key_resp_2.keys,key_resp_2.rt,rewExpectancy,trials_rew.thisRepN,trials_rew.thisTrialN,trials_rew.thisN,trials_rew.thisIndex,trials_rew.ran,Q1,Q2,Q2_text,Q3,Q4,Q5_text,Q5,xRes,yRes
298330,2022-12-04_23h48.28.984,vts_reward_expectancy_bt,2022.2.4,MacIntel,60.0024001,Chrome,1440,900,,,,,,,,,,,,,,,,,,,,,,,,,,,,,,,,,,,,,,,,,,,,,,,,,,,,,,,,,,,,,,,,,,,,,,,,,,,,
298330,2022-12-04_23h48.28.984,vts_reward_expectancy_bt,2022.2.4,MacIntel,60.0024001,Chrome,1440,900,space,20.313,,,,,,,,,,,,,,,,,,,,,,,,,,,,,,,,,,,,,,,,,,,,,,,,,,,,,,,,,,,,,,,,,,,,,,,,,,
298330,2022-12-04_23h48.28.984,vts_reward_expectancy_bt,2022.2.4,MacIntel,60.0024001,Chrome,1440,900,,,,,,,,,,,,,,,,,,,,,,,,,,,,,,,,,,,,,,,,,,,,,,,,,,,,,,,,,,,,,,,,,,,,,,,,,,,,
298330,2022-12-04_23h48.28.984,vts_reward_expectancy_bt,2022.2.4,MacIntel,60.0024001,Chrome,1440,900,,,l,1.9253,1,1,0,0,0,0,6,1,0,0,1,0,1,0,0,0,hexagon,triangle,,,,,,,,,,,,,,,,,,,,,,,,,,,,,,,,,,,,,,,,,,,,,,,,,,,,,,
298330,2022-12-04_23h48.28.984,vts_reward_expectancy_bt,2022.2.4,MacIntel,60.0024001,Chrome,1440,900,,,a,3.0663,10,11,0,0,1,1,7,1,0,0,1,0,0,1,0,0,hexagon,circle,,,,,,,,,,,,,,,,,,,,,,,,,,,,,,,,,,,,,,,,,,,,,,,,,,,,,,
298330,2022-12-04_23h48.28.984,vts_reward_expectancy_bt,2022.2.4,MacIntel,60.0024001,Chrome,1440,900,,,l,1.8914,10,21,0,0,2,2,2,1,1,0,0,0,0,0,0,1,triangle,star,,,,,,,,,,,,,,,,,,,,,,,,,,,,,,,,,,,,,,,,,,,,,,,,,,,,,,
298330,2022-12-04_23h48.28.984,vts_reward_expectancy_bt,2022.2.4,MacIntel,60.0024001,Chrome,1440,900,,,a,1.3247,10,31,0,0,3,3,3,1,0,1,0,0,1,0,0,0,circle,triangle,,,,,,,,,,,,,,,,,,,,,,,,,,,,,,,,,,,,,,,,,,,,,,,,,,,,,,
298330,2022-12-04_23h48.28.984,vts_reward_expectancy_bt,2022.2.4,MacIntel,60.0024001,Chrome,1440,900,,,l,1.0417,1,32,0,0,4,4,0,1,1,0,0,0,0,1,0,0,triangle,circle,,,,,,,,,,,,,,,,,,,,,,,,,,,,,,,,,,,,,,,,,,,,,,,,,,,,,,
298330,2022-12-04_23h48.28.984,vts_reward_expectancy_bt,2022.2.4,MacIntel,60.0024001,Chrome,1440,900,,,l,1.2149,1,33,0,0,5,5,4,1,0,1,0,0,0,0,1,0,circle,hexagon,,,,,,,,,,,,,,,,,,,,,,,,,,,,,,,,,,,,,,,,,,,,,,,,,,,,,,
298330,2022-12-04_23h48.28.984,vts_reward_expectancy_bt,2022.2.4,MacIntel,60.0024001,Chrome,1440,900,,,l,1.9922,10,43,0,0,6,6,10,1,0,0,0,1,0,1,0,0,star ,circle,,,,,,,,,,,,,,,,,,,,,,,,,,,,,,,,,,,,,,,,,,,,,,,,,,,,,,
298330,2022-12-04_23h48.28.984,vts_reward_expectancy_bt,2022.2.4,MacIntel,60.0024001,Chrome,1440,900,,,l,1.113,1,44,0,0,7,7,8,1,0,0,1,0,0,0,0,1,hexagon,star,,,,,,,,,,,,,,,,,,,,,,,,,,,,,,,,,,,,,,,,,,,,,,,,,,,,,,
298330,2022-12-04_23h48.28.984,vts_reward_expectancy_bt,2022.2.4,MacIntel,60.0024001,Chrome,1440,900,,,l,0.7671,10,54,0,0,8,8,1,1,1,0,0,0,0,0,1,0,triangle,hexagon,,,,,,,,,,,,,,,,,,,,,,,,,,,,,,,,,,,,,,,,,,,,,,,,,,,,,,
298330,2022-12-04_23h48.28.984,vts_reward_expectancy_bt,2022.2.4,MacIntel,60.0024001,Chrome,1440,900,,,a,1.5111,1,55,0,0,9,9,9,1,0,0,0,1,1,0,0,0,star,triangle,,,,,,,,,,,,,,,,,,,,,,,,,,,,,,,,,,,,,,,,,,,,,,,,,,,,,,
298330,2022-12-04_23h48.28.984,vts_reward_expectancy_bt,2022.2.4,MacIntel,60.0024001,Chrome,1440,900,,,l,1.4594,1,56,0,0,10,10,5,1,0,1,0,0,0,0,0,1,circle,star,,,,,,,,,,,,,,,,,,,,,,,,,,,,,,,,,,,,,,,,,,,,,,,,,,,,,,
298330,2022-12-04_23h48.28.984,vts_reward_expectancy_bt,2022.2.4,MacIntel,60.0024001,Chrome,1440,900,,,a,1.3154,1,57,0,0,11,11,11,1,0,0,0,1,0,0,1,0,star,hexagon,,,,,,,,,,,,,,,,,,,,,,,,,,,,,,,,,,,,,,,,,,,,,,,,,,,,,,
298330,2022-12-04_23h48.28.984,vts_reward_expectancy_bt,2022.2.4,MacIntel,60.0024001,Chrome,1440,900,,,a,1.3569,10,67,0,1,0,12,4,1,0,1,0,0,0,0,1,0,circle,hexagon,,,,,,,,,,,,,,,,,,,,,,,,,,,,,,,,,,,,,,,,,,,,,,,,,,,,,,
298330,2022-12-04_23h48.28.984,vts_reward_expectancy_bt,2022.2.4,MacIntel,60.0024001,Chrome,1440,900,,,l,0.977,10,77,0,1,1,13,6,1,0,0,1,0,1,0,0,0,hexagon,triangle,,,,,,,,,,,,,,,,,,,,,,,,,,,,,,,,,,,,,,,,,,,,,,,,,,,,,,
298330,2022-12-04_23h48.28.984,vts_reward_expectancy_bt,2022.2.4,MacIntel,60.0024001,Chrome,1440,900,,,l,0.8998,1,78,0,1,2,14,3,1,0,1,0,0,1,0,0,0,circle,triangle,,,,,,,,,,,,,,,,,,,,,,,,,,,,,,,,,,,,,,,,,,,,,,,,,,,,,,
298330,2022-12-04_23h48.28.984,vts_reward_expectancy_bt,2022.2.4,MacIntel,60.0024001,Chrome,1440,900,,,a,0.4914,10,88,0,1,3,15,7,1,0,0,1,0,0,1,0,0,hexagon,circle,,,,,,,,,,,,,,,,,,,,,,,,,,,,,,,,,,,,,,,,,,,,,,,,,,,,,,
298330,2022-12-04_23h48.28.984,vts_reward_expectancy_bt,2022.2.4,MacIntel,60.0024001,Chrome,1440,900,,,a,1.0339,10,98,0,1,4,16,0,1,1,0,0,0,0,1,0,0,triangle,circle,,,,,,,,,,,,,,,,,,,,,,,,,,,,,,,,,,,,,,,,,,,,,,,,,,,,,,
298330,2022-12-04_23h48.28.984,vts_reward_expectancy_bt,2022.2.4,MacIntel,60.0024001,Chrome,1440,900,,,l,0.7503,1,99,0,1,5,17,2,1,1,0,0,0,0,0,0,1,triangle,star,,,,,,,,,,,,,,,,,,,,,,,,,,,,,,,,,,,,,,,,,,,,,,,,,,,,,,
298330,2022-12-04_23h48.28.984,vts_reward_expectancy_bt,2022.2.4,MacIntel,60.0024001,Chrome,1440,900,,,l,0.6453,1,100,0,1,6,18,8,1,0,0,1,0,0,0,0,1,hexagon,star,,,,,,,,,,,,,,,,,,,,,,,,,,,,,,,,,,,,,,,,,,,,,,,,,,,,,,
298330,2022-12-04_23h48.28.984,vts_reward_expectancy_bt,2022.2.4,MacIntel,60.0024001,Chrome,1440,900,,,l,0.4838,10,110,0,1,7,19,11,1,0,0,0,1,0,0,1,0,star,hexagon,,,,,,,,,,,,,,,,,,,,,,,,,,,,,,,,,,,,,,,,,,,,,,,,,,,,,,
298330,2022-12-04_23h48.28.984,vts_reward_expectancy_bt,2022.2.4,MacIntel,60.0024001,Chrome,1440,900,,,a,0.3833,1,111,0,1,8,20,9,1,0,0,0,1,1,0,0,0,star,triangle,,,,,,,,,,,,,,,,,,,,,,,,,,,,,,,,,,,,,,,,,,,,,,,,,,,,,,
298330,2022-12-04_23h48.28.984,vts_reward_expectancy_bt,2022.2.4,MacIntel,60.0024001,Chrome,1440,900,,,a,0.3271,1,112,0,1,9,21,1,1,1,0,0,0,0,0,1,0,triangle,hexagon,,,,,,,,,,,,,,,,,,,,,,,,,,,,,,,,,,,,,,,,,,,,,,,,,,,,,,
298330,2022-12-04_23h48.28.984,vts_reward_expectancy_bt,2022.2.4,MacIntel,60.0024001,Chrome,1440,900,,,l,0.1173,1,113,0,1,10,22,5,1,0,1,0,0,0,0,0,1,circle,star,,,,,,,,,,,,,,,,,,,,,,,,,,,,,,,,,,,,,,,,,,,,,,,,,,,,,,
298330,2022-12-04_23h48.28.984,vts_reward_expectancy_bt,2022.2.4,MacIntel,60.0024001,Chrome,1440,900,,,l,0.4318,1,114,0,1,11,23,10,1,0,0,0,1,0,1,0,0,star ,circle,,,,,,,,,,,,,,,,,,,,,,,,,,,,,,,,,,,,,,,,,,,,,,,,,,,,,,
298330,2022-12-04_23h48.28.984,vts_reward_expectancy_bt,2022.2.4,MacIntel,60.0024001,Chrome,1440,900,,,l,1.0505,10,124,0,2,0,24,6,1,0,0,1,0,1,0,0,0,hexagon,triangle,,,,,,,,,,,,,,,,,,,,,,,,,,,,,,,,,,,,,,,,,,,,,,,,,,,,,,
298330,2022-12-04_23h48.28.984,vts_reward_expectancy_bt,2022.2.4,MacIntel,60.0024001,Chrome,1440,900,,,a,1.1997,1,125,0,2,1,25,8,1,0,0,1,0,0,0,0,1,hexagon,star,,,,,,,,,,,,,,,,,,,,,,,,,,,,,,,,,,,,,,,,,,,,,,,,,,,,,,
298330,2022-12-04_23h48.28.984,vts_reward_expectancy_bt,2022.2.4,MacIntel,60.0024001,Chrome,1440,900,,,a,0.4271,1,126,0,2,2,26,11,1,0,0,0,1,0,0,1,0,star,hexagon,,,,,,,,,,,,,,,,,,,,,,,,,,,,,,,,,,,,,,,,,,,,,,,,,,,,,,
298330,2022-12-04_23h48.28.984,vts_reward_expectancy_bt,2022.2.4,MacIntel,60.0024001,Chrome,1440,900,,,l,0.4838,1,127,0,2,3,27,7,1,0,0,1,0,0,1,0,0,hexagon,circle,,,,,,,,,,,,,,,,,,,,,,,,,,,,,,,,,,,,,,,,,,,,,,,,,,,,,,
298330,2022-12-04_23h48.28.984,vts_reward_expectancy_bt,2022.2.4,MacIntel,60.0024001,Chrome,1440,900,,,a,0.2744,1,128,0,2,4,28,4,1,0,1,0,0,0,0,1,0,circle,hexagon,,,,,,,,,,,,,,,,,,,,,,,,,,,,,,,,,,,,,,,,,,,,,,,,,,,,,,
298330,2022-12-04_23h48.28.984,vts_reward_expectancy_bt,2022.2.4,MacIntel,60.0024001,Chrome,1440,900,,,l,0.0493,1,129,0,2,5,29,5,1,0,1,0,0,0,0,0,1,circle,star,,,,,,,,,,,,,,,,,,,,,,,,,,,,,,,,,,,,,,,,,,,,,,,,,,,,,,
298330,2022-12-04_23h48.28.984,vts_reward_expectancy_bt,2022.2.4,MacIntel,60.0024001,Chrome,1440,900,,,l,0.0169,1,130,0,2,6,30,1,1,1,0,0,0,0,0,1,0,triangle,hexagon,,,,,,,,,,,,,,,,,,,,,,,,,,,,,,,,,,,,,,,,,,,,,,,,,,,,,,
298330,2022-12-04_23h48.28.984,vts_reward_expectancy_bt,2022.2.4,MacIntel,60.0024001,Chrome,1440,900,,,l,0.1663,10,140,0,2,7,31,0,1,1,0,0,0,0,1,0,0,triangle,circle,,,,,,,,,,,,,,,,,,,,,,,,,,,,,,,,,,,,,,,,,,,,,,,,,,,,,,
298330,2022-12-04_23h48.28.984,vts_reward_expectancy_bt,2022.2.4,MacIntel,60.0024001,Chrome,1440,900,,,l,0.0168,10,150,0,2,8,32,9,1,0,0,0,1,1,0,0,0,star,triangle,,,,,,,,,,,,,,,,,,,,,,,,,,,,,,,,,,,,,,,,,,,,,,,,,,,,,,
298330,2022-12-04_23h48.28.984,vts_reward_expectancy_bt,2022.2.4,MacIntel,60.0024001,Chrome,1440,900,,,a,0.0672,10,160,0,2,9,33,2,1,1,0,0,0,0,0,0,1,triangle,star,,,,,,,,,,,,,,,,,,,,,,,,,,,,,,,,,,,,,,,,,,,,,,,,,,,,,,
298330,2022-12-04_23h48.28.984,vts_reward_expectancy_bt,2022.2.4,MacIntel,60.0024001,Chrome,1440,900,,,l,0.1831,10,170,0,2,10,34,3,1,0,1,0,0,1,0,0,0,circle,triangle,,,,,,,,,,,,,,,,,,,,,,,,,,,,,,,,,,,,,,,,,,,,,,,,,,,,,,
298330,2022-12-04_23h48.28.984,vts_reward_expectancy_bt,2022.2.4,MacIntel,60.0024001,Chrome,1440,900,,,l,0.0508,10,180,0,2,11,35,10,1,0,0,0,1,0,1,0,0,star ,circle,,,,,,,,,,,,,,,,,,,,,,,,,,,,,,,,,,,,,,,,,,,,,,,,,,,,,,
298330,2022-12-04_23h48.28.984,vts_reward_expectancy_bt,2022.2.4,MacIntel,60.0024001,Chrome,1440,900,,,l,1.2632,1,181,1,0,0,0,4,1,0,1,0,0,0,0,1,0,circle,hexagon,,,,,,,,,,,,,,,,,,,,,,,,,,,,,,,,,,,,,,,,,,,,,,,,,,,,,,
298330,2022-12-04_23h48.28.984,vts_reward_expectancy_bt,2022.2.4,MacIntel,60.0024001,Chrome,1440,900,,,l,0.4662,10,191,1,0,1,1,0,1,1,0,0,0,0,1,0,0,triangle,circle,,,,,,,,,,,,,,,,,,,,,,,,,,,,,,,,,,,,,,,,,,,,,,,,,,,,,,
298330,2022-12-04_23h48.28.984,vts_reward_expectancy_bt,2022.2.4,MacIntel,60.0024001,Chrome,1440,900,,,l,0.011,1,192,1,0,2,2,5,1,0,1,0,0,0,0,0,1,circle,star,,,,,,,,,,,,,,,,,,,,,,,,,,,,,,,,,,,,,,,,,,,,,,,,,,,,,,
298330,2022-12-04_23h48.28.984,vts_reward_expectancy_bt,2022.2.4,MacIntel,60.0024001,Chrome,1440,900,,,l,0.0004,1,193,1,0,3,3,11,1,0,0,0,1,0,0,1,0,star,hexagon,,,,,,,,,,,,,,,,,,,,,,,,,,,,,,,,,,,,,,,,,,,,,,,,,,,,,,
298330,2022-12-04_23h48.28.984,vts_reward_expectancy_bt,2022.2.4,MacIntel,60.0024001,Chrome,1440,900,,,l,0.3825,1,194,1,0,4,4,1,1,1,0,0,0,0,0,1,0,triangle,hexagon,,,,,,,,,,,,,,,,,,,,,,,,,,,,,,,,,,,,,,,,,,,,,,,,,,,,,,
298330,2022-12-04_23h48.28.984,vts_reward_expectancy_bt,2022.2.4,MacIntel,60.0024001,Chrome,1440,900,,,a,0.3169,1,195,1,0,5,5,8,1,0,0,1,0,0,0,0,1,hexagon,star,,,,,,,,,,,,,,,,,,,,,,,,,,,,,,,,,,,,,,,,,,,,,,,,,,,,,,
298330,2022-12-04_23h48.28.984,vts_reward_expectancy_bt,2022.2.4,MacIntel,60.0024001,Chrome,1440,900,,,l,0.3327,1,196,1,0,6,6,9,1,0,0,0,1,1,0,0,0,star,triangle,,,,,,,,,,,,,,,,,,,,,,,,,,,,,,,,,,,,,,,,,,,,,,,,,,,,,,
298330,2022-12-04_23h48.28.984,vts_reward_expectancy_bt,2022.2.4,MacIntel,60.0024001,Chrome,1440,900,,,l,0.1332,1,197,1,0,7,7,2,1,1,0,0,0,0,0,0,1,triangle,star,,,,,,,,,,,,,,,,,,,,,,,,,,,,,,,,,,,,,,,,,,,,,,,,,,,,,,
298330,2022-12-04_23h48.28.984,vts_reward_expectancy_bt,2022.2.4,MacIntel,60.0024001,Chrome,1440,900,,,l,0.5491,1,198,1,0,8,8,10,1,0,0,0,1,0,1,0,0,star ,circle,,,,,,,,,,,,,,,,,,,,,,,,,,,,,,,,,,,,,,,,,,,,,,,,,,,,,,
298330,2022-12-04_23h48.28.984,vts_reward_expectancy_bt,2022.2.4,MacIntel,60.0024001,Chrome,1440,900,,,l,0.2668,10,208,1,0,9,9,7,1,0,0,1,0,0,1,0,0,hexagon,circle,,,,,,,,,,,,,,,,,,,,,,,,,,,,,,,,,,,,,,,,,,,,,,,,,,,,,,
298330,2022-12-04_23h48.28.984,vts_reward_expectancy_bt,2022.2.4,MacIntel,60.0024001,Chrome,1440,900,,,a,0.342,10,218,1,0,10,10,6,1,0,0,1,0,1,0,0,0,hexagon,triangle,,,,,,,,,,,,,,,,,,,,,,,,,,,,,,,,,,,,,,,,,,,,,,,,,,,,,,
298330,2022-12-04_23h48.28.984,vts_reward_expectancy_bt,2022.2.4,MacIntel,60.0024001,Chrome,1440,900,,,a,0.3807,1,219,1,0,11,11,3,1,0,1,0,0,1,0,0,0,circle,triangle,,,,,,,,,,,,,,,,,,,,,,,,,,,,,,,,,,,,,,,,,,,,,,,,,,,,,,
298330,2022-12-04_23h48.28.984,vts_reward_expectancy_bt,2022.2.4,MacIntel,60.0024001,Chrome,1440,900,,,a,0.3504,1,220,1,1,0,12,7,1,0,0,1,0,0,1,0,0,hexagon,circle,,,,,,,,,,,,,,,,,,,,,,,,,,,,,,,,,,,,,,,,,,,,,,,,,,,,,,
298330,2022-12-04_23h48.28.984,vts_reward_expectancy_bt,2022.2.4,MacIntel,60.0024001,Chrome,1440,900,,,l,0.484,10,230,1,1,1,13,9,1,0,0,0,1,1,0,0,0,star,triangle,,,,,,,,,,,,,,,,,,,,,,,,,,,,,,,,,,,,,,,,,,,,,,,,,,,,,,
298330,2022-12-04_23h48.28.984,vts_reward_expectancy_bt,2022.2.4,MacIntel,60.0024001,Chrome,1440,900,,,a,0.7165,1,231,1,1,2,14,0,1,1,0,0,0,0,1,0,0,triangle,circle,,,,,,,,,,,,,,,,,,,,,,,,,,,,,,,,,,,,,,,,,,,,,,,,,,,,,,
298330,2022-12-04_23h48.28.984,vts_reward_expectancy_bt,2022.2.4,MacIntel,60.0024001,Chrome,1440,900,,,l,0.677,1,232,1,1,3,15,6,1,0,0,1,0,1,0,0,0,hexagon,triangle,,,,,,,,,,,,,,,,,,,,,,,,,,,,,,,,,,,,,,,,,,,,,,,,,,,,,,
298330,2022-12-04_23h48.28.984,vts_reward_expectancy_bt,2022.2.4,MacIntel,60.0024001,Chrome,1440,900,,,l,0.4839,1,233,1,1,4,16,11,1,0,0,0,1,0,0,1,0,star,hexagon,,,,,,,,,,,,,,,,,,,,,,,,,,,,,,,,,,,,,,,,,,,,,,,,,,,,,,
298330,2022-12-04_23h48.28.984,vts_reward_expectancy_bt,2022.2.4,MacIntel,60.0024001,Chrome,1440,900,,,a,0.3835,1,234,1,1,5,17,10,1,0,0,0,1,0,1,0,0,star ,circle,,,,,,,,,,,,,,,,,,,,,,,,,,,,,,,,,,,,,,,,,,,,,,,,,,,,,,
298330,2022-12-04_23h48.28.984,vts_reward_expectancy_bt,2022.2.4,MacIntel,60.0024001,Chrome,1440,900,,,l,0.4093,1,235,1,1,6,18,4,1,0,1,0,0,0,0,1,0,circle,hexagon,,,,,,,,,,,,,,,,,,,,,,,,,,,,,,,,,,,,,,,,,,,,,,,,,,,,,,
298330,2022-12-04_23h48.28.984,vts_reward_expectancy_bt,2022.2.4,MacIntel,60.0024001,Chrome,1440,900,,,l,1.3956,1,236,1,1,7,19,8,1,0,0,1,0,0,0,0,1,hexagon,star,,,,,,,,,,,,,,,,,,,,,,,,,,,,,,,,,,,,,,,,,,,,,,,,,,,,,,
298330,2022-12-04_23h48.28.984,vts_reward_expectancy_bt,2022.2.4,MacIntel,60.0024001,Chrome,1440,900,,,l,0.1453,10,246,1,1,8,20,2,1,1,0,0,0,0,0,0,1,triangle,star,,,,,,,,,,,,,,,,,,,,,,,,,,,,,,,,,,,,,,,,,,,,,,,,,,,,,,
298330,2022-12-04_23h48.28.984,vts_reward_expectancy_bt,2022.2.4,MacIntel,60.0024001,Chrome,1440,900,,,a,0.0269,10,256,1,1,9,21,3,1,0,1,0,0,1,0,0,0,circle,triangle,,,,,,,,,,,,,,,,,,,,,,,,,,,,,,,,,,,,,,,,,,,,,,,,,,,,,,
298330,2022-12-04_23h48.28.984,vts_reward_expectancy_bt,2022.2.4,MacIntel,60.0024001,Chrome,1440,900,,,a,1.3662,1,257,1,1,10,22,1,1,1,0,0,0,0,0,1,0,triangle,hexagon,,,,,,,,,,,,,,,,,,,,,,,,,,,,,,,,,,,,,,,,,,,,,,,,,,,,,,
298330,2022-12-04_23h48.28.984,vts_reward_expectancy_bt,2022.2.4,MacIntel,60.0024001,Chrome,1440,900,,,a,0.9004,10,267,1,1,11,23,5,1,0,1,0,0,0,0,0,1,circle,star,,,,,,,,,,,,,,,,,,,,,,,,,,,,,,,,,,,,,,,,,,,,,,,,,,,,,,
298330,2022-12-04_23h48.28.984,vts_reward_expectancy_bt,2022.2.4,MacIntel,60.0024001,Chrome,1440,900,,,a,0.759,1,268,1,2,0,24,7,1,0,0,1,0,0,1,0,0,hexagon,circle,,,,,,,,,,,,,,,,,,,,,,,,,,,,,,,,,,,,,,,,,,,,,,,,,,,,,,
298330,2022-12-04_23h48.28.984,vts_reward_expectancy_bt,2022.2.4,MacIntel,60.0024001,Chrome,1440,900,,,l,0.8163,1,269,1,2,1,25,6,1,0,0,1,0,1,0,0,0,hexagon,triangle,,,,,,,,,,,,,,,,,,,,,,,,,,,,,,,,,,,,,,,,,,,,,,,,,,,,,,
298330,2022-12-04_23h48.28.984,vts_reward_expectancy_bt,2022.2.4,MacIntel,60.0024001,Chrome,1440,900,,,l,0.4165,10,279,1,2,2,26,11,1,0,0,0,1,0,0,1,0,star,hexagon,,,,,,,,,,,,,,,,,,,,,,,,,,,,,,,,,,,,,,,,,,,,,,,,,,,,,,
298330,2022-12-04_23h48.28.984,vts_reward_expectancy_bt,2022.2.4,MacIntel,60.0024001,Chrome,1440,900,,,a,0.3954,1,280,1,2,3,27,8,1,0,0,1,0,0,0,0,1,hexagon,star,,,,,,,,,,,,,,,,,,,,,,,,,,,,,,,,,,,,,,,,,,,,,,,,,,,,,,
298330,2022-12-04_23h48.28.984,vts_reward_expectancy_bt,2022.2.4,MacIntel,60.0024001,Chrome,1440,900,,,a,0.4336,1,281,1,2,4,28,3,1,0,1,0,0,1,0,0,0,circle,triangle,,,,,,,,,,,,,,,,,,,,,,,,,,,,,,,,,,,,,,,,,,,,,,,,,,,,,,
298330,2022-12-04_23h48.28.984,vts_reward_expectancy_bt,2022.2.4,MacIntel,60.0024001,Chrome,1440,900,,,l,0.533,10,291,1,2,5,29,0,1,1,0,0,0,0,1,0,0,triangle,circle,,,,,,,,,,,,,,,,,,,,,,,,,,,,,,,,,,,,,,,,,,,,,,,,,,,,,,
298330,2022-12-04_23h48.28.984,vts_reward_expectancy_bt,2022.2.4,MacIntel,60.0024001,Chrome,1440,900,,,a,0.9834,1,292,1,2,6,30,4,1,0,1,0,0,0,0,1,0,circle,hexagon,,,,,,,,,,,,,,,,,,,,,,,,,,,,,,,,,,,,,,,,,,,,,,,,,,,,,,
298330,2022-12-04_23h48.28.984,vts_reward_expectancy_bt,2022.2.4,MacIntel,60.0024001,Chrome,1440,900,,,l,0.2616,1,293,1,2,7,31,5,1,0,1,0,0,0,0,0,1,circle,star,,,,,,,,,,,,,,,,,,,,,,,,,,,,,,,,,,,,,,,,,,,,,,,,,,,,,,
298330,2022-12-04_23h48.28.984,vts_reward_expectancy_bt,2022.2.4,MacIntel,60.0024001,Chrome,1440,900,,,l,0.0168,10,303,1,2,8,32,9,1,0,0,0,1,1,0,0,0,star,triangle,,,,,,,,,,,,,,,,,,,,,,,,,,,,,,,,,,,,,,,,,,,,,,,,,,,,,,
298330,2022-12-04_23h48.28.984,vts_reward_expectancy_bt,2022.2.4,MacIntel,60.0024001,Chrome,1440,900,,,a,0.0276,10,313,1,2,9,33,2,1,1,0,0,0,0,0,0,1,triangle,star,,,,,,,,,,,,,,,,,,,,,,,,,,,,,,,,,,,,,,,,,,,,,,,,,,,,,,
298330,2022-12-04_23h48.28.984,vts_reward_expectancy_bt,2022.2.4,MacIntel,60.0024001,Chrome,1440,900,,,a,0.0004,10,323,1,2,10,34,10,1,0,0,0,1,0,1,0,0,star ,circle,,,,,,,,,,,,,,,,,,,,,,,,,,,,,,,,,,,,,,,,,,,,,,,,,,,,,,
298330,2022-12-04_23h48.28.984,vts_reward_expectancy_bt,2022.2.4,MacIntel,60.0024001,Chrome,1440,900,,,l,0.0695,1,324,1,2,11,35,1,1,1,0,0,0,0,0,1,0,triangle,hexagon,,,,,,,,,,,,,,,,,,,,,,,,,,,,,,,,,,,,,,,,,,,,,,,,,,,,,,
298330,2022-12-04_23h48.28.984,vts_reward_expectancy_bt,2022.2.4,MacIntel,60.0024001,Chrome,1440,900,,,a,0.9315,1,325,2,0,0,0,2,1,1,0,0,0,0,0,0,1,triangle,star,,,,,,,,,,,,,,,,,,,,,,,,,,,,,,,,,,,,,,,,,,,,,,,,,,,,,,
298330,2022-12-04_23h48.28.984,vts_reward_expectancy_bt,2022.2.4,MacIntel,60.0024001,Chrome,1440,900,,,a,0.0012,1,326,2,0,1,1,10,1,0,0,0,1,0,1,0,0,star ,circle,,,,,,,,,,,,,,,,,,,,,,,,,,,,,,,,,,,,,,,,,,,,,,,,,,,,,,
298330,2022-12-04_23h48.28.984,vts_reward_expectancy_bt,2022.2.4,MacIntel,60.0024001,Chrome,1440,900,,,l,0.0165,1,327,2,0,2,2,4,1,0,1,0,0,0,0,1,0,circle,hexagon,,,,,,,,,,,,,,,,,,,,,,,,,,,,,,,,,,,,,,,,,,,,,,,,,,,,,,
298330,2022-12-04_23h48.28.984,vts_reward_expectancy_bt,2022.2.4,MacIntel,60.0024001,Chrome,1440,900,,,a,0.0026,10,337,2,0,3,3,8,1,0,0,1,0,0,0,0,1,hexagon,star,,,,,,,,,,,,,,,,,,,,,,,,,,,,,,,,,,,,,,,,,,,,,,,,,,,,,,
298330,2022-12-04_23h48.28.984,vts_reward_expectancy_bt,2022.2.4,MacIntel,60.0024001,Chrome,1440,900,,,a,0.1323,10,347,2,0,4,4,9,1,0,0,0,1,1,0,0,0,star,triangle,,,,,,,,,,,,,,,,,,,,,,,,,,,,,,,,,,,,,,,,,,,,,,,,,,,,,,
298330,2022-12-04_23h48.28.984,vts_reward_expectancy_bt,2022.2.4,MacIntel,60.0024001,Chrome,1440,900,,,l,0.017,10,357,2,0,5,5,7,1,0,0,1,0,0,1,0,0,hexagon,circle,,,,,,,,,,,,,,,,,,,,,,,,,,,,,,,,,,,,,,,,,,,,,,,,,,,,,,
298330,2022-12-04_23h48.28.984,vts_reward_expectancy_bt,2022.2.4,MacIntel,60.0024001,Chrome,1440,900,,,a,0.0172,1,358,2,0,6,6,3,1,0,1,0,0,1,0,0,0,circle,triangle,,,,,,,,,,,,,,,,,,,,,,,,,,,,,,,,,,,,,,,,,,,,,,,,,,,,,,
298330,2022-12-04_23h48.28.984,vts_reward_expectancy_bt,2022.2.4,MacIntel,60.0024001,Chrome,1440,900,,,a,0.0787,1,359,2,0,7,7,6,1,0,0,1,0,1,0,0,0,hexagon,triangle,,,,,,,,,,,,,,,,,,,,,,,,,,,,,,,,,,,,,,,,,,,,,,,,,,,,,,
298330,2022-12-04_23h48.28.984,vts_reward_expectancy_bt,2022.2.4,MacIntel,60.0024001,Chrome,1440,900,,,l,0.0291,1,360,2,0,8,8,1,1,1,0,0,0,0,0,1,0,triangle,hexagon,,,,,,,,,,,,,,,,,,,,,,,,,,,,,,,,,,,,,,,,,,,,,,,,,,,,,,
298330,2022-12-04_23h48.28.984,vts_reward_expectancy_bt,2022.2.4,MacIntel,60.0024001,Chrome,1440,900,,,l,0.0168,1,361,2,0,9,9,5,1,0,1,0,0,0,0,0,1,circle,star,,,,,,,,,,,,,,,,,,,,,,,,,,,,,,,,,,,,,,,,,,,,,,,,,,,,,,
298330,2022-12-04_23h48.28.984,vts_reward_expectancy_bt,2022.2.4,MacIntel,60.0024001,Chrome,1440,900,,,l,0.0331,10,371,2,0,10,10,0,1,1,0,0,0,0,1,0,0,triangle,circle,,,,,,,,,,,,,,,,,,,,,,,,,,,,,,,,,,,,,,,,,,,,,,,,,,,,,,
298330,2022-12-04_23h48.28.984,vts_reward_expectancy_bt,2022.2.4,MacIntel,60.0024001,Chrome,1440,900,,,l,0.0006,1,372,2,0,11,11,11,1,0,0,0,1,0,0,1,0,star,hexagon,,,,,,,,,,,,,,,,,,,,,,,,,,,,,,,,,,,,,,,,,,,,,,,,,,,,,,
298330,2022-12-04_23h48.28.984,vts_reward_expectancy_bt,2022.2.4,MacIntel,60.0024001,Chrome,1440,900,,,l,0.0168,10,382,2,1,0,12,11,1,0,0,0,1,0,0,1,0,star,hexagon,,,,,,,,,,,,,,,,,,,,,,,,,,,,,,,,,,,,,,,,,,,,,,,,,,,,,,
298330,2022-12-04_23h48.28.984,vts_reward_expectancy_bt,2022.2.4,MacIntel,60.0024001,Chrome,1440,900,,,l,0.0328,1,383,2,1,1,13,10,1,0,0,0,1,0,1,0,0,star ,circle,,,,,,,,,,,,,,,,,,,,,,,,,,,,,,,,,,,,,,,,,,,,,,,,,,,,,,
298330,2022-12-04_23h48.28.984,vts_reward_expectancy_bt,2022.2.4,MacIntel,60.0024001,Chrome,1440,900,,,l,0.032,10,393,2,1,2,14,6,1,0,0,1,0,1,0,0,0,hexagon,triangle,,,,,,,,,,,,,,,,,,,,,,,,,,,,,,,,,,,,,,,,,,,,,,,,,,,,,,
298330,2022-12-04_23h48.28.984,vts_reward_expectancy_bt,2022.2.4,MacIntel,60.0024001,Chrome,1440,900,,,l,0.0331,1,394,2,1,3,15,1,1,1,0,0,0,0,0,1,0,triangle,hexagon,,,,,,,,,,,,,,,,,,,,,,,,,,,,,,,,,,,,,,,,,,,,,,,,,,,,,,
298330,2022-12-04_23h48.28.984,vts_reward_expectancy_bt,2022.2.4,MacIntel,60.0024001,Chrome,1440,900,,,l,0.0004,10,404,2,1,4,16,2,1,1,0,0,0,0,0,0,1,triangle,star,,,,,,,,,,,,,,,,,,,,,,,,,,,,,,,,,,,,,,,,,,,,,,,,,,,,,,
298330,2022-12-04_23h48.28.984,vts_reward_expectancy_bt,2022.2.4,MacIntel,60.0024001,Chrome,1440,900,,,a,0.0984,10,414,2,1,5,17,0,1,1,0,0,0,0,1,0,0,triangle,circle,,,,,,,,,,,,,,,,,,,,,,,,,,,,,,,,,,,,,,,,,,,,,,,,,,,,,,
298330,2022-12-04_23h48.28.984,vts_reward_expectancy_bt,2022.2.4,MacIntel,60.0024001,Chrome,1440,900,,,l,0.0511,1,415,2,1,6,18,8,1,0,0,1,0,0,0,0,1,hexagon,star,,,,,,,,,,,,,,,,,,,,,,,,,,,,,,,,,,,,,,,,,,,,,,,,,,,,,,
298330,2022-12-04_23h48.28.984,vts_reward_expectancy_bt,2022.2.4,MacIntel,60.0024001,Chrome,1440,900,,,l,0.4476,1,416,2,1,7,19,3,1,0,1,0,0,1,0,0,0,circle,triangle,,,,,,,,,,,,,,,,,,,,,,,,,,,,,,,,,,,,,,,,,,,,,,,,,,,,,,
298330,2022-12-04_23h48.28.984,vts_reward_expectancy_bt,2022.2.4,MacIntel,60.0024001,Chrome,1440,900,,,l,0.3495,1,417,2,1,8,20,4,1,0,1,0,0,0,0,1,0,circle,hexagon,,,,,,,,,,,,,,,,,,,,,,,,,,,,,,,,,,,,,,,,,,,,,,,,,,,,,,
298330,2022-12-04_23h48.28.984,vts_reward_expectancy_bt,2022.2.4,MacIntel,60.0024001,Chrome,1440,900,,,l,0.3658,1,418,2,1,9,21,5,1,0,1,0,0,0,0,0,1,circle,star,,,,,,,,,,,,,,,,,,,,,,,,,,,,,,,,,,,,,,,,,,,,,,,,,,,,,,
298330,2022-12-04_23h48.28.984,vts_reward_expectancy_bt,2022.2.4,MacIntel,60.0024001,Chrome,1440,900,,,l,0.1843,1,419,2,1,10,22,9,1,0,0,0,1,1,0,0,0,star,triangle,,,,,,,,,,,,,,,,,,,,,,,,,,,,,,,,,,,,,,,,,,,,,,,,,,,,,,
298330,2022-12-04_23h48.28.984,vts_reward_expectancy_bt,2022.2.4,MacIntel,60.0024001,Chrome,1440,900,,,a,0.1008,1,420,2,1,11,23,7,1,0,0,1,0,0,1,0,0,hexagon,circle,,,,,,,,,,,,,,,,,,,,,,,,,,,,,,,,,,,,,,,,,,,,,,,,,,,,,,
298330,2022-12-04_23h48.28.984,vts_reward_expectancy_bt,2022.2.4,MacIntel,60.0024001,Chrome,1440,900,,,l,0.117,10,430,2,2,0,24,11,1,0,0,0,1,0,0,1,0,star,hexagon,,,,,,,,,,,,,,,,,,,,,,,,,,,,,,,,,,,,,,,,,,,,,,,,,,,,,,
298330,2022-12-04_23h48.28.984,vts_reward_expectancy_bt,2022.2.4,MacIntel,60.0024001,Chrome,1440,900,,,l,0.0664,1,431,2,2,1,25,2,1,1,0,0,0,0,0,0,1,triangle,star,,,,,,,,,,,,,,,,,,,,,,,,,,,,,,,,,,,,,,,,,,,,,,,,,,,,,,
298330,2022-12-04_23h48.28.984,vts_reward_expectancy_bt,2022.2.4,MacIntel,60.0024001,Chrome,1440,900,,,l,0.0171,10,441,2,2,2,26,3,1,0,1,0,0,1,0,0,0,circle,triangle,,,,,,,,,,,,,,,,,,,,,,,,,,,,,,,,,,,,,,,,,,,,,,,,,,,,,,
298330,2022-12-04_23h48.28.984,vts_reward_expectancy_bt,2022.2.4,MacIntel,60.0024001,Chrome,1440,900,,,a,0.0852,10,451,2,2,3,27,1,1,1,0,0,0,0,0,1,0,triangle,hexagon,,,,,,,,,,,,,,,,,,,,,,,,,,,,,,,,,,,,,,,,,,,,,,,,,,,,,,
298330,2022-12-04_23h48.28.984,vts_reward_expectancy_bt,2022.2.4,MacIntel,60.0024001,Chrome,1440,900,,,l,0.0285,10,461,2,2,4,28,7,1,0,0,1,0,0,1,0,0,hexagon,circle,,,,,,,,,,,,,,,,,,,,,,,,,,,,,,,,,,,,,,,,,,,,,,,,,,,,,,
298330,2022-12-04_23h48.28.984,vts_reward_expectancy_bt,2022.2.4,MacIntel,60.0024001,Chrome,1440,900,,,a,0.1499,1,462,2,2,5,29,0,1,1,0,0,0,0,1,0,0,triangle,circle,,,,,,,,,,,,,,,,,,,,,,,,,,,,,,,,,,,,,,,,,,,,,,,,,,,,,,
298330,2022-12-04_23h48.28.984,vts_reward_expectancy_bt,2022.2.4,MacIntel,60.0024001,Chrome,1440,900,,,a,0.0339,1,463,2,2,6,30,9,1,0,0,0,1,1,0,0,0,star,triangle,,,,,,,,,,,,,,,,,,,,,,,,,,,,,,,,,,,,,,,,,,,,,,,,,,,,,,
298330,2022-12-04_23h48.28.984,vts_reward_expectancy_bt,2022.2.4,MacIntel,60.0024001,Chrome,1440,900,,,l,0.0824,1,464,2,2,7,31,8,1,0,0,1,0,0,0,0,1,hexagon,star,,,,,,,,,,,,,,,,,,,,,,,,,,,,,,,,,,,,,,,,,,,,,,,,,,,,,,
298330,2022-12-04_23h48.28.984,vts_reward_expectancy_bt,2022.2.4,MacIntel,60.0024001,Chrome,1440,900,,,l,0.083,1,465,2,2,8,32,4,1,0,1,0,0,0,0,1,0,circle,hexagon,,,,,,,,,,,,,,,,,,,,,,,,,,,,,,,,,,,,,,,,,,,,,,,,,,,,,,
298330,2022-12-04_23h48.28.984,vts_reward_expectancy_bt,2022.2.4,MacIntel,60.0024001,Chrome,1440,900,,,l,0.1022,1,466,2,2,9,33,6,1,0,0,1,0,1,0,0,0,hexagon,triangle,,,,,,,,,,,,,,,,,,,,,,,,,,,,,,,,,,,,,,,,,,,,,,,,,,,,,,
298330,2022-12-04_23h48.28.984,vts_reward_expectancy_bt,2022.2.4,MacIntel,60.0024001,Chrome,1440,900,,,a,0.0338,1,467,2,2,10,34,10,1,0,0,0,1,0,1,0,0,star ,circle,,,,,,,,,,,,,,,,,,,,,,,,,,,,,,,,,,,,,,,,,,,,,,,,,,,,,,
298330,2022-12-04_23h48.28.984,vts_reward_expectancy_bt,2022.2.4,MacIntel,60.0024001,Chrome,1440,900,,,a,0.0653,10,477,2,2,11,35,5,1,0,1,0,0,0,0,0,1,circle,star,,,,,,,,,,,,,,,,,,,,,,,,,,,,,,,,,,,,,,,,,,,,,,,,,,,,,,
298330,2022-12-04_23h48.28.984,vts_reward_expectancy_bt,2022.2.4,MacIntel,60.0024001,Chrome,1440,900,,,,,,,,,,,,,,,,,,,,,,,U,146,circle,0,0,,0,0,0,0,0,1,,,,,,,,,,,,,,,,,,,,,,,,,,,,,,,,,,,,,,,,,,
298330,2022-12-04_23h48.28.984,vts_reward_expectancy_bt,2022.2.4,MacIntel,60.0024001,Chrome,1440,900,,,,,,,,,,,,,,,,,,,,,,,W,125,triangle,0,1,d,0,1,0,1,0,1,2.7147,,,,,,,,,,,,,,,,,,,,,,,,,,,,,,,,,,,,,,,,,
298330,2022-12-04_23h48.28.984,vts_reward_expectancy_bt,2022.2.4,MacIntel,60.0024001,Chrome,1440,900,,,,,,,,,,,,,,,,,,,,,,,H,139,hexagon,1,1,d,0,2,0,2,0,1,0.5009,,,,,,,,,,,,,,,,,,,,,,,,,,,,,,,,,,,,,,,,,
298330,2022-12-04_23h48.28.984,vts_reward_expectancy_bt,2022.2.4,MacIntel,60.0024001,Chrome,1440,900,,,,,,,,,,,,,,,,,,,,,,,Y,167,star,0,0,d,0,3,0,3,0,1,0.8322,,,,,,,,,,,,,,,,,,,,,,,,,,,,,,,,,,,,,,,,,
298330,2022-12-04_23h48.28.984,vts_reward_expectancy_bt,2022.2.4,MacIntel,60.0024001,Chrome,1440,900,,,,,,,,,,,,,,,,,,,,,,,S,174,circle,0,1,d,0,4,0,4,0,1,1.5817,,,,,,,,,,,,,,,,,,,,,,,,,,,,,,,,,,,,,,,,,
298330,2022-12-04_23h48.28.984,vts_reward_expectancy_bt,2022.2.4,MacIntel,60.0024001,Chrome,1440,900,,,,,,,,,,,,,,,,,,,,,,,D,160,triangle,1,1,d,0,5,0,5,0,1,1.2155,,,,,,,,,,,,,,,,,,,,,,,,,,,,,,,,,,,,,,,,,
298330,2022-12-04_23h48.28.984,vts_reward_expectancy_bt,2022.2.4,MacIntel,60.0024001,Chrome,1440,900,,,,,,,,,,,,,,,,,,,,,,,B,132,hexagon,1,0,d,0,6,0,6,0,1,2.1503,,,,,,,,,,,,,,,,,,,,,,,,,,,,,,,,,,,,,,,,,
298330,2022-12-04_23h48.28.984,vts_reward_expectancy_bt,2022.2.4,MacIntel,60.0024001,Chrome,1440,900,,,,,,,,,,,,,,,,,,,,,,,F,181,star,0,0,,0,7,0,7,0,1,,,,,,,,,,,,,,,,,,,,,,,,,,,,,,,,,,,,,,,,,,
298330,2022-12-04_23h48.28.984,vts_reward_expectancy_bt,2022.2.4,MacIntel,60.0024001,Chrome,1440,900,,,,,,,,,,,,,,,,,,,,,,,U,146,hexagon,0,1,d,0,8,0,8,0,1,2.698,,,,,,,,,,,,,,,,,,,,,,,,,,,,,,,,,,,,,,,,,
298330,2022-12-04_23h48.28.984,vts_reward_expectancy_bt,2022.2.4,MacIntel,60.0024001,Chrome,1440,900,,,,,,,,,,,,,,,,,,,,,,,W,125,circle,0,1,d,0,9,0,9,0,1,0.8654,,,,,,,,,,,,,,,,,,,,,,,,,,,,,,,,,,,,,,,,,
298330,2022-12-04_23h48.28.984,vts_reward_expectancy_bt,2022.2.4,MacIntel,60.0024001,Chrome,1440,900,,,,,,,,,,,,,,,,,,,,,,,S,132,circle,0,1,d,1,0,0,0,0,1,0.7828,,,,,,,,,,,,,,,,,,,,,,,,,,,,,,,,,,,,,,,,,
298330,2022-12-04_23h48.28.984,vts_reward_expectancy_bt,2022.2.4,MacIntel,60.0024001,Chrome,1440,900,,,,,,,,,,,,,,,,,,,,,,,B,139,star,1,1,d,1,1,0,1,0,1,0.9472,,,,,,,,,,,,,,,,,,,,,,,,,,,,,,,,,,,,,,,,,
298330,2022-12-04_23h48.28.984,vts_reward_expectancy_bt,2022.2.4,MacIntel,60.0024001,Chrome,1440,900,,,,,,,,,,,,,,,,,,,,,,,F,174,triangle,1,0,d,1,2,0,2,0,1,0.765,,,,,,,,,,,,,,,,,,,,,,,,,,,,,,,,,,,,,,,,,
298330,2022-12-04_23h48.28.984,vts_reward_expectancy_bt,2022.2.4,MacIntel,60.0024001,Chrome,1440,900,,,,,,,,,,,,,,,,,,,,,,,W,160,hexagon,1,0,f,1,3,0,3,0,1,0.6342,,,,,,,,,,,,,,,,,,,,,,,,,,,,,,,,,,,,,,,,,
298330,2022-12-04_23h48.28.984,vts_reward_expectancy_bt,2022.2.4,MacIntel,60.0024001,Chrome,1440,900,,,,,,,,,,,,,,,,,,,,,,,H,181,circle,0,0,f,1,4,0,4,0,1,0.664,,,,,,,,,,,,,,,,,,,,,,,,,,,,,,,,,,,,,,,,,
298330,2022-12-04_23h48.28.984,vts_reward_expectancy_bt,2022.2.4,MacIntel,60.0024001,Chrome,1440,900,,,,,,,,,,,,,,,,,,,,,,,U,167,star,1,1,f,1,5,0,5,0,1,0.8476,,,,,,,,,,,,,,,,,,,,,,,,,,,,,,,,,,,,,,,,,
298330,2022-12-04_23h48.28.984,vts_reward_expectancy_bt,2022.2.4,MacIntel,60.0024001,Chrome,1440,900,,,,,,,,,,,,,,,,,,,,,,,Y,125,triangle,1,0,f,1,6,0,6,0,1,0.9129,,,,,,,,,,,,,,,,,,,,,,,,,,,,,,,,,,,,,,,,,
298330,2022-12-04_23h48.28.984,vts_reward_expectancy_bt,2022.2.4,MacIntel,60.0024001,Chrome,1440,900,,,,,,,,,,,,,,,,,,,,,,,D,146,hexagon,1,0,d,1,7,0,7,0,1,0.5968,,,,,,,,,,,,,,,,,,,,,,,,,,,,,,,,,,,,,,,,,
298330,2022-12-04_23h48.28.984,vts_reward_expectancy_bt,2022.2.4,MacIntel,60.0024001,Chrome,1440,900,,,,,,,,,,,,,,,,,,,,,,,S,132,hexagon,0,0,d,1,8,0,8,0,1,0.8638,,,,,,,,,,,,,,,,,,,,,,,,,,,,,,,,,,,,,,,,,
298330,2022-12-04_23h48.28.984,vts_reward_expectancy_bt,2022.2.4,MacIntel,60.0024001,Chrome,1440,900,,,,,,,,,,,,,,,,,,,,,,,B,139,triangle,1,1,d,1,9,0,9,0,1,0.6311,,,,,,,,,,,,,,,,,,,,,,,,,,,,,,,,,,,,,,,,,
298330,2022-12-04_23h48.28.984,vts_reward_expectancy_bt,2022.2.4,MacIntel,60.0024001,Chrome,1440,900,,,,,,,,,,,,,,,,,,,,,,,S,160,star,1,0,f,2,0,0,0,0,1,0.797,,,,,,,,,,,,,,,,,,,,,,,,,,,,,,,,,,,,,,,,,
298330,2022-12-04_23h48.28.984,vts_reward_expectancy_bt,2022.2.4,MacIntel,60.0024001,Chrome,1440,900,,,,,,,,,,,,,,,,,,,,,,,Y,132,circle,1,0,f,2,1,0,1,0,1,0.6977,,,,,,,,,,,,,,,,,,,,,,,,,,,,,,,,,,,,,,,,,
298330,2022-12-04_23h48.28.984,vts_reward_expectancy_bt,2022.2.4,MacIntel,60.0024001,Chrome,1440,900,,,,,,,,,,,,,,,,,,,,,,,H,167,triangle,1,0,d,2,2,0,2,0,1,0.8653,,,,,,,,,,,,,,,,,,,,,,,,,,,,,,,,,,,,,,,,,
298330,2022-12-04_23h48.28.984,vts_reward_expectancy_bt,2022.2.4,MacIntel,60.0024001,Chrome,1440,900,,,,,,,,,,,,,,,,,,,,,,,F,174,hexagon,1,0,d,2,3,0,3,0,1,0.8128,,,,,,,,,,,,,,,,,,,,,,,,,,,,,,,,,,,,,,,,,
298330,2022-12-04_23h48.28.984,vts_reward_expectancy_bt,2022.2.4,MacIntel,60.0024001,Chrome,1440,900,,,,,,,,,,,,,,,,,,,,,,,B,125,star,1,0,d,2,4,0,4,0,1,0.4789,,,,,,,,,,,,,,,,,,,,,,,,,,,,,,,,,,,,,,,,,
298330,2022-12-04_23h48.28.984,vts_reward_expectancy_bt,2022.2.4,MacIntel,60.0024001,Chrome,1440,900,,,,,,,,,,,,,,,,,,,,,,,W,146,circle,1,0,f,2,5,0,5,0,1,0.6821,,,,,,,,,,,,,,,,,,,,,,,,,,,,,,,,,,,,,,,,,
298330,2022-12-04_23h48.28.984,vts_reward_expectancy_bt,2022.2.4,MacIntel,60.0024001,Chrome,1440,900,,,,,,,,,,,,,,,,,,,,,,,U,181,triangle,1,0,f,2,6,0,6,0,1,0.7821,,,,,,,,,,,,,,,,,,,,,,,,,,,,,,,,,,,,,,,,,
298330,2022-12-04_23h48.28.984,vts_reward_expectancy_bt,2022.2.4,MacIntel,60.0024001,Chrome,1440,900,,,,,,,,,,,,,,,,,,,,,,,D,139,hexagon,1,0,d,2,7,0,7,0,1,0.6317,,,,,,,,,,,,,,,,,,,,,,,,,,,,,,,,,,,,,,,,,
298330,2022-12-04_23h48.28.984,vts_reward_expectancy_bt,2022.2.4,MacIntel,60.0024001,Chrome,1440,900,,,,,,,,,,,,,,,,,,,,,,,S,160,triangle,1,0,f,2,8,0,8,0,1,1.097,,,,,,,,,,,,,,,,,,,,,,,,,,,,,,,,,,,,,,,,,
298330,2022-12-04_23h48.28.984,vts_reward_expectancy_bt,2022.2.4,MacIntel,60.0024001,Chrome,1440,900,,,,,,,,,,,,,,,,,,,,,,,Y,132,hexagon,1,0,f,2,9,0,9,0,1,0.6654,,,,,,,,,,,,,,,,,,,,,,,,,,,,,,,,,,,,,,,,,
298330,2022-12-04_23h48.28.984,vts_reward_expectancy_bt,2022.2.4,MacIntel,60.0024001,Chrome,1440,900,,,,,,,,,,,,,,,,,,,,,,,D,132,hexagon,1,0,,3,,,,,,,j,0.6492,0,0,0,0,1,,,,,,,,,,,,,,,,,,,,,,,,,,,,,,,,,,
298330,2022-12-04_23h48.28.984,vts_reward_expectancy_bt,2022.2.4,MacIntel,60.0024001,Chrome,1440,900,,,,,,,,,,,,,,,,,,,,,,,W,160,circle,1,0,,3,,,,,,,k,0.5165,1,0,1,0,1,,,,,,,,,,,,,,,,,,,,,,,,,,,,,,,,,,
298330,2022-12-04_23h48.28.984,vts_reward_expectancy_bt,2022.2.4,MacIntel,60.0024001,Chrome,1440,900,,,,,,,,,,,,,,,,,,,,,,,B,146,star,1,0,,3,,,,,,,j,0.6139,2,0,2,0,1,,,,,,,,,,,,,,,,,,,,,,,,,,,,,,,,,,
298330,2022-12-04_23h48.28.984,vts_reward_expectancy_bt,2022.2.4,MacIntel,60.0024001,Chrome,1440,900,,,,,,,,,,,,,,,,,,,,,,,F,174,triangle,1,0,,3,,,,,,,k,0.6629,3,0,3,0,1,,,,,,,,,,,,,,,,,,,,,,,,,,,,,,,,,,
298330,2022-12-04_23h48.28.984,vts_reward_expectancy_bt,2022.2.4,MacIntel,60.0024001,Chrome,1440,900,,,,,,,,,,,,,,,,,,,,,,,H,181,hexagon,1,0,,3,,,,,,,k,0.5192,4,0,4,0,1,,,,,,,,,,,,,,,,,,,,,,,,,,,,,,,,,,
298330,2022-12-04_23h48.28.984,vts_reward_expectancy_bt,2022.2.4,MacIntel,60.0024001,Chrome,1440,900,,,,,,,,,,,,,,,,,,,,,,,S,167,circle,1,0,,3,,,,,,,k,1.0147,5,0,5,0,1,,,,,,,,,,,,,,,,,,,,,,,,,,,,,,,,,,
298330,2022-12-04_23h48.28.984,vts_reward_expectancy_bt,2022.2.4,MacIntel,60.0024001,Chrome,1440,900,,,,,,,,,,,,,,,,,,,,,,,Y,139,star,1,0,,3,,,,,,,j,0.5479,6,0,6,0,1,,,,,,,,,,,,,,,,,,,,,,,,,,,,,,,,,,
298330,2022-12-04_23h48.28.984,vts_reward_expectancy_bt,2022.2.4,MacIntel,60.0024001,Chrome,1440,900,,,,,,,,,,,,,,,,,,,,,,,U,125,triangle,1,0,,3,,,,,,,j,0.5154,7,0,7,0,1,,,,,,,,,,,,,,,,,,,,,,,,,,,,,,,,,,
298330,2022-12-04_23h48.28.984,vts_reward_expectancy_bt,2022.2.4,MacIntel,60.0024001,Chrome,1440,900,,,,,,,,,,,,,,,,,,,,,,,D,132,circle,1,0,,3,,,,,,,j,0.5805,8,0,8,0,1,,,,,,,,,,,,,,,,,,,,,,,,,,,,,,,,,,
298330,2022-12-04_23h48.28.984,vts_reward_expectancy_bt,2022.2.4,MacIntel,60.0024001,Chrome,1440,900,,,,,,,,,,,,,,,,,,,,,,,W,160,hexagon,1,0,,3,,,,,,,k,0.7483,9,0,9,0,1,,,,,,,,,,,,,,,,,,,,,,,,,,,,,,,,,,
298330,2022-12-04_23h48.28.984,vts_reward_expectancy_bt,2022.2.4,MacIntel,60.0024001,Chrome,1440,900,,,,,0,477,,,,,,,,,,,,,,,,,F,146,star,1,0,,4,,,,,,,,,,,,,,-1,number,NA,j,2.1887,vtsPrac,0,0,0,0,1,,,,,,,,,,,,,,,,,,,,,,,
298330,2022-12-04_23h48.28.984,vts_reward_expectancy_bt,2022.2.4,MacIntel,60.0024001,Chrome,1440,900,,,,,0,477,,,,,,,,,,,,,,,,,U,174,circle,0,0,,4,,,,,,,,,,,,,,switch,letter,NA,d,1.2323,vtsPrac,1,0,1,0,1,,,,,,,,,,,,,,,,,,,,,,,
298330,2022-12-04_23h48.28.984,vts_reward_expectancy_bt,2022.2.4,MacIntel,60.0024001,Chrome,1440,900,,,,,0,477,,,,,,,,,,,,,,,,,S,181,star,0,1,,4,,,,,,,,,,,,,,switch,number,NA,j,2.417,vtsPrac,2,0,2,0,1,,,,,,,,,,,,,,,,,,,,,,,
298330,2022-12-04_23h48.28.984,vts_reward_expectancy_bt,2022.2.4,MacIntel,60.0024001,Chrome,1440,900,,,,,0,477,,,,,,,,,,,,,,,,,H,160,circle,1,1,,4,,,,,,,,,,,,,,repeat,number,numRpt,k,1.6806,vtsPrac,3,0,3,0,1,,,,,,,,,,,,,,,,,,,,,,,
298330,2022-12-04_23h48.28.984,vts_reward_expectancy_bt,2022.2.4,MacIntel,60.0024001,Chrome,1440,900,,,,,0,477,,,,,,,,,,,,,,,,,F,146,circle,1,0,,4,,,,,,,,,,,,,,repeat,number,numRpt,j,1.2299,vtsPrac,4,0,4,0,1,,,,,,,,,,,,,,,,,,,,,,,
298330,2022-12-04_23h48.28.984,vts_reward_expectancy_bt,2022.2.4,MacIntel,60.0024001,Chrome,1440,900,,,,,0,477,,,,,,,,,,,,,,,,,U,174,triangle,1,0,,4,,,,,,,,,,,,,,repeat,number,numRpt,k,0.8761,vtsPrac,5,0,5,0,1,,,,,,,,,,,,,,,,,,,,,,,
298330,2022-12-04_23h48.28.984,vts_reward_expectancy_bt,2022.2.4,MacIntel,60.0024001,Chrome,1440,900,,,,,0,477,,,,,,,,,,,,,,,,,S,181,triangle,1,0,,4,,,,,,,,,,,,,,repeat,number,numRpt,k,0.9659,vtsPrac,6,0,6,0,1,,,,,,,,,,,,,,,,,,,,,,,
298330,2022-12-04_23h48.28.984,vts_reward_expectancy_bt,2022.2.4,MacIntel,60.0024001,Chrome,1440,900,,,,,0,477,,,,,,,,,,,,,,,,,H,160,circle,1,0,,4,,,,,,,,,,,,,,repeat,number,numRpt,k,1.2314,vtsPrac,7,0,7,0,1,,,,,,,,,,,,,,,,,,,,,,,
298330,2022-12-04_23h48.28.984,vts_reward_expectancy_bt,2022.2.4,MacIntel,60.0024001,Chrome,1440,900,,,,,0,477,,,,,,,,,,,,,,,,,U,174,hexagon,1,0,,4,,,,,,,,,,,,,,repeat,number,numRpt,k,1.1984,vtsPrac,8,0,8,0,1,,,,,,,,,,,,,,,,,,,,,,,
298330,2022-12-04_23h48.28.984,vts_reward_expectancy_bt,2022.2.4,MacIntel,60.0024001,Chrome,1440,900,,,,,0,477,,,,,,,,,,,,,,,,,B,167,star,1,0,,4,,,,,,,,,,,,,,repeat,number,numRpt,k,0.897,vtsPrac,9,0,9,0,1,,,,,,,,,,,,,,,,,,,,,,,
298330,2022-12-04_23h48.28.984,vts_reward_expectancy_bt,2022.2.4,MacIntel,60.0024001,Chrome,1440,900,,,,,0,477,,,,,,,,,,,,,,,,,Y,146,hexagon,1,0,,4,,,,,,,,,,,,,,repeat,number,numRpt,j,0.8332,vtsPrac,10,0,10,0,1,,,,,,,,,,,,,,,,,,,,,,,
298330,2022-12-04_23h48.28.984,vts_reward_expectancy_bt,2022.2.4,MacIntel,60.0024001,Chrome,1440,900,,,,,0,477,,,,,,,,,,,,,,,,,F,125,triangle,1,0,,4,,,,,,,,,,,,,,repeat,number,numRpt,j,0.8146,vtsPrac,11,0,11,0,1,,,,,,,,,,,,,,,,,,,,,,,
298330,2022-12-04_23h48.28.984,vts_reward_expectancy_bt,2022.2.4,MacIntel,60.0024001,Chrome,1440,900,,,,,0,477,,,,,,,,,,,,,,,,,W,139,circle,1,0,,4,,,,,,,,,,,,,,repeat,number,numRpt,j,1.0139,vtsPrac,12,0,12,0,1,,,,,,,,,,,,,,,,,,,,,,,
298330,2022-12-04_23h48.28.984,vts_reward_expectancy_bt,2022.2.4,MacIntel,60.0024001,Chrome,1440,900,,,,,0,477,,,,,,,,,,,,,,,,,F,174,triangle,1,0,,4,,,,,,,,,,,,,,repeat,number,numRpt,k,0.6983,vtsPrac,13,0,13,0,1,,,,,,,,,,,,,,,,,,,,,,,
298330,2022-12-04_23h48.28.984,vts_reward_expectancy_bt,2022.2.4,MacIntel,60.0024001,Chrome,1440,900,,,,,0,477,,,,,,,,,,,,,,,,,S,146,star,1,0,,4,,,,,,,,,,,,,,repeat,number,numRpt,j,1.0312,vtsPrac,14,0,14,0,1,,,,,,,,,,,,,,,,,,,,,,,
298330,2022-12-04_23h48.28.984,vts_reward_expectancy_bt,2022.2.4,MacIntel,60.0024001,Chrome,1440,900,,,,,0,477,,,,,,,,,,,,,,,,,U,132,triangle,1,0,,4,,,,,,,,,,,,,,repeat,number,numRpt,j,0.7641,vtsPrac,15,0,15,0,1,,,,,,,,,,,,,,,,,,,,,,,
298330,2022-12-04_23h48.28.984,vts_reward_expectancy_bt,2022.2.4,MacIntel,60.0024001,Chrome,1440,900,,,,,0,477,,,,,,,,,,,,,,,,,Y,167,triangle,1,0,,4,,,,,,,,,,,,,,repeat,number,numRpt,k,0.7804,vtsPrac,16,0,16,0,1,,,,,,,,,,,,,,,,,,,,,,,
298330,2022-12-04_23h48.28.984,vts_reward_expectancy_bt,2022.2.4,MacIntel,60.0024001,Chrome,1440,900,,,,,0,477,,,,,,,,,,,,,,,,,S,139,hexagon,1,0,,4,,,,,,,,,,,,,,repeat,number,numRpt,j,0.9624,vtsPrac,17,0,17,0,1,,,,,,,,,,,,,,,,,,,,,,,
298330,2022-12-04_23h48.28.984,vts_reward_expectancy_bt,2022.2.4,MacIntel,60.0024001,Chrome,1440,900,,,,,0,477,,,,,,,,,,,,,,,,,U,181,hexagon,1,0,,4,,,,,,,,,,,,,,repeat,number,numRpt,k,0.6291,vtsPrac,18,0,18,0,1,,,,,,,,,,,,,,,,,,,,,,,
298330,2022-12-04_23h48.28.984,vts_reward_expectancy_bt,2022.2.4,MacIntel,60.0024001,Chrome,1440,900,,,,,0,477,,,,,,,,,,,,,,,,,D,160,star,0,0,,4,,,,,,,,,,,,,,repeat,number,NA,j,1.1503,vtsPrac,19,0,19,0,1,,,,,,,,,,,,,,,,,,,,,,,
298330,2022-12-04_23h48.28.984,vts_reward_expectancy_bt,2022.2.4,MacIntel,60.0024001,Chrome,1440,900,,,,,0,477,,,,,,,,,,,,,,,,,F,139,hexagon,1,1,,4,,,,,,,,,,,,,,repeat,number,numRpt,j,0.8613,vtsPrac,20,0,20,0,1,,,,,,,,,,,,,,,,,,,,,,,
298330,2022-12-04_23h48.28.984,vts_reward_expectancy_bt,2022.2.4,MacIntel,60.0024001,Chrome,1440,900,,,,,0,477,,,,,,,,,,,,,,,,,S,167,star,1,0,,4,,,,,,,,,,,,,,repeat,number,numRpt,k,0.9324,vtsPrac,21,0,21,0,1,,,,,,,,,,,,,,,,,,,,,,,
298330,2022-12-04_23h48.28.984,vts_reward_expectancy_bt,2022.2.4,MacIntel,60.0024001,Chrome,1440,900,,,,,0,477,,,,,,,,,,,,,,,,,U,174,star,1,0,,4,,,,,,,,,,,,,,repeat,number,numRpt,k,0.9603,vtsPrac,22,0,22,0,1,,,,,,,,,,,,,,,,,,,,,,,
298330,2022-12-04_23h48.28.984,vts_reward_expectancy_bt,2022.2.4,MacIntel,60.0024001,Chrome,1440,900,,,,,0,477,,,,,,,,,,,,,,,,,B,132,triangle,1,0,,4,,,,,,,,,,,,,,repeat,number,numRpt,j,0.9252,vtsPrac,23,0,23,0,1,,,,,,,,,,,,,,,,,,,,,,,
298330,2022-12-04_23h48.28.984,vts_reward_expectancy_bt,2022.2.4,MacIntel,60.0024001,Chrome,1440,900,,,,,0,477,,,,,,,,,,,,,,,,,F,132,star,1,0,,4,,,,,,,,,,,,,,repeat,number,numRpt,j,0.6649,vtsPrac,24,0,24,0,1,,,,,,,,,,,,,,,,,,,,,,,
298330,2022-12-04_23h48.28.984,vts_reward_expectancy_bt,2022.2.4,MacIntel,60.0024001,Chrome,1440,900,,,,,0,477,,,,,,,,,,,,,,,,,B,174,circle,1,0,,4,,,,,,,,,,,,,,repeat,number,numRpt,k,0.8139,vtsPrac,25,0,25,0,1,,,,,,,,,,,,,,,,,,,,,,,
298330,2022-12-04_23h48.28.984,vts_reward_expectancy_bt,2022.2.4,MacIntel,60.0024001,Chrome,1440,900,,,,,0,477,,,,,,,,,,,,,,,,,D,146,star,1,0,,4,,,,,,,,,,,,,,repeat,number,numRpt,j,1.2144,vtsPrac,26,0,26,0,1,,,,,,,,,,,,,,,,,,,,,,,
298330,2022-12-04_23h48.28.984,vts_reward_expectancy_bt,2022.2.4,MacIntel,60.0024001,Chrome,1440,900,,,,,0,477,,,,,,,,,,,,,,,,,Y,160,triangle,1,0,,4,,,,,,,,,,,,,,repeat,number,numRpt,k,0.8479,vtsPrac,27,0,27,0,1,,,,,,,,,,,,,,,,,,,,,,,
298330,2022-12-04_23h48.28.984,vts_reward_expectancy_bt,2022.2.4,MacIntel,60.0024001,Chrome,1440,900,,,,,0,477,,,,,,,,,,,,,,,,,F,125,hexagon,1,0,,4,,,,,,,,,,,,,,repeat,number,numRpt,j,1.2808,vtsPrac,28,0,28,0,1,,,,,,,,,,,,,,,,,,,,,,,
298330,2022-12-04_23h48.28.984,vts_reward_expectancy_bt,2022.2.4,MacIntel,60.0024001,Chrome,1440,900,,,,,0,477,,,,,,,,,,,,,,,,,Y,181,triangle,1,0,,4,,,,,,,,,,,,,,repeat,number,numRpt,k,0.5647,vtsPrac,29,0,29,0,1,,,,,,,,,,,,,,,,,,,,,,,
298330,2022-12-04_23h48.28.984,vts_reward_expectancy_bt,2022.2.4,MacIntel,60.0024001,Chrome,1440,900,,,,,0,477,,,,,,,,,,,,,,,,,B,139,circle,1,0,,4,,,,,,,,,,,,,,repeat,number,numRpt,j,0.8477,vtsPrac,30,0,30,0,1,,,,,,,,,,,,,,,,,,,,,,,
298330,2022-12-04_23h48.28.984,vts_reward_expectancy_bt,2022.2.4,MacIntel,60.0024001,Chrome,1440,900,,,,,0,477,,,,,,,,,,,,,,,,,S,132,hexagon,1,0,,4,,,,,,,,,,,,,,repeat,number,numRpt,j,1.2312,vtsPrac,31,0,31,0,1,,,,,,,,,,,,,,,,,,,,,,,
298330,2022-12-04_23h48.28.984,vts_reward_expectancy_bt,2022.2.4,MacIntel,60.0024001,Chrome,1440,900,,,,,0,477,,,,,,,,,,,,,,,,,Y,132,star,1,0,,5,,,,,,,,,,,,,,switch,letter,lettSwt,f,0.9991,vtsPrac,0,0,0,0,1,,,,,,,,,,,,,,,,,,,,,,,
298330,2022-12-04_23h48.28.984,vts_reward_expectancy_bt,2022.2.4,MacIntel,60.0024001,Chrome,1440,900,,,,,0,477,,,,,,,,,,,,,,,,,W,167,triangle,1,0,,5,,,,,,,,,,,,,,switch,number,numSwt,k,0.6319,vtsPrac,1,0,1,0,1,,,,,,,,,,,,,,,,,,,,,,,
298330,2022-12-04_23h48.28.984,vts_reward_expectancy_bt,2022.2.4,MacIntel,60.0024001,Chrome,1440,900,,,,,0,477,,,,,,,,,,,,,,,,,B,125,star,1,0,,5,,,,,,,,,,,,,,switch,letter,lettSwt,d,0.6647,vtsPrac,2,0,2,0,1,,,,,,,,,,,,,,,,,,,,,,,
298330,2022-12-04_23h48.28.984,vts_reward_expectancy_bt,2022.2.4,MacIntel,60.0024001,Chrome,1440,900,,,,,0,477,,,,,,,,,,,,,,,,,S,181,triangle,1,0,,5,,,,,,,,,,,,,,repeat,letter,lettRpt,f,1.0474,vtsPrac,3,0,3,0,1,,,,,,,,,,,,,,,,,,,,,,,
298330,2022-12-04_23h48.28.984,vts_reward_expectancy_bt,2022.2.4,MacIntel,60.0024001,Chrome,1440,900,,,,,0,477,,,,,,,,,,,,,,,,,Y,132,triangle,1,0,,5,,,,,,,,,,,,,,repeat,letter,lettRpt,f,0.7145,vtsPrac,4,0,4,0,1,,,,,,,,,,,,,,,,,,,,,,,
298330,2022-12-04_23h48.28.984,vts_reward_expectancy_bt,2022.2.4,MacIntel,60.0024001,Chrome,1440,900,,,,,0,477,,,,,,,,,,,,,,,,,W,167,circle,1,0,,5,,,,,,,,,,,,,,switch,number,numSwt,k,0.93,vtsPrac,5,0,5,0,1,,,,,,,,,,,,,,,,,,,,,,,
298330,2022-12-04_23h48.28.984,vts_reward_expectancy_bt,2022.2.4,MacIntel,60.0024001,Chrome,1440,900,,,,,0,477,,,,,,,,,,,,,,,,,B,125,star,1,0,,5,,,,,,,,,,,,,,repeat,number,numRpt,j,0.5163,vtsPrac,6,0,6,0,1,,,,,,,,,,,,,,,,,,,,,,,
298330,2022-12-04_23h48.28.984,vts_reward_expectancy_bt,2022.2.4,MacIntel,60.0024001,Chrome,1440,900,,,,,0,477,,,,,,,,,,,,,,,,,S,181,triangle,1,0,,5,,,,,,,,,,,,,,switch,letter,lettSwt,f,0.8481,vtsPrac,7,0,7,0,1,,,,,,,,,,,,,,,,,,,,,,,
298330,2022-12-04_23h48.28.984,vts_reward_expectancy_bt,2022.2.4,MacIntel,60.0024001,Chrome,1440,900,,,,,0,477,,,,,,,,,,,,,,,,,D,132,triangle,1,0,,5,,,,,,,,,,,,,,switch,number,numSwt,j,0.7148,vtsPrac,8,0,8,0,1,,,,,,,,,,,,,,,,,,,,,,,
298330,2022-12-04_23h48.28.984,vts_reward_expectancy_bt,2022.2.4,MacIntel,60.0024001,Chrome,1440,900,,,,,0,477,,,,,,,,,,,,,,,,,Y,160,star,1,0,,5,,,,,,,,,,,,,,switch,letter,lettSwt,f,0.5656,vtsPrac,9,0,9,0,1,,,,,,,,,,,,,,,,,,,,,,,
298330,2022-12-04_23h48.28.984,vts_reward_expectancy_bt,2022.2.4,MacIntel,60.0024001,Chrome,1440,900,,,,,0,477,,,,,,,,,,,,,,,,,B,167,hexagon,1,0,,5,,,,,,,,,,,,,,repeat,letter,lettRpt,d,0.6464,vtsPrac,10,0,10,0,1,,,,,,,,,,,,,,,,,,,,,,,
298330,2022-12-04_23h48.28.984,vts_reward_expectancy_bt,2022.2.4,MacIntel,60.0024001,Chrome,1440,900,,,,,0,477,,,,,,,,,,,,,,,,,F,125,star,0,0,,5,,,,,,,,,,,,,,repeat,letter,NA,f,1.181,vtsPrac,11,0,11,0,1,,,,,,,,,,,,,,,,,,,,,,,
298330,2022-12-04_23h48.28.984,vts_reward_expectancy_bt,2022.2.4,MacIntel,60.0024001,Chrome,1440,900,,,,,0,477,,,,,,,,,,,,,,,,,S,167,star,1,1,,5,,,,,,,,,,,,,,switch,number,numSwt,k,1.3326,vtsPrac,12,0,12,0,1,,,,,,,,,,,,,,,,,,,,,,,
298330,2022-12-04_23h48.28.984,vts_reward_expectancy_bt,2022.2.4,MacIntel,60.0024001,Chrome,1440,900,,,,,0,477,,,,,,,,,,,,,,,,,Y,146,circle,1,0,,5,,,,,,,,,,,,,,repeat,number,numRpt,j,1.1142,vtsPrac,13,0,13,0,1,,,,,,,,,,,,,,,,,,,,,,,
298330,2022-12-04_23h48.28.984,vts_reward_expectancy_bt,2022.2.4,MacIntel,60.0024001,Chrome,1440,900,,,,,0,477,,,,,,,,,,,,,,,,,D,125,circle,1,0,,5,,,,,,,,,,,,,,switch,letter,lettSwt,d,0.6485,vtsPrac,14,0,14,0,1,,,,,,,,,,,,,,,,,,,,,,,
298330,2022-12-04_23h48.28.984,vts_reward_expectancy_bt,2022.2.4,MacIntel,60.0024001,Chrome,1440,900,,,,,0,477,,,,,,,,,,,,,,,,,W,160,hexagon,1,0,,5,,,,,,,,,,,,,,repeat,letter,lettRpt,f,0.9977,vtsPrac,15,0,15,0,1,,,,,,,,,,,,,,,,,,,,,,,
298330,2022-12-04_23h48.28.984,vts_reward_expectancy_bt,2022.2.4,MacIntel,60.0024001,Chrome,1440,900,,,,,0,477,,,,,,,,,,,,,,,,,H,160,circle,1,0,,5,,,,,,,,,,,,,,switch,number,numSwt,k,0.8606,vtsPrac,16,0,16,0,1,,,,,,,,,,,,,,,,,,,,,,,
298330,2022-12-04_23h48.28.984,vts_reward_expectancy_bt,2022.2.4,MacIntel,60.0024001,Chrome,1440,900,,,,,0,477,,,,,,,,,,,,,,,,,D,132,star,1,0,,5,,,,,,,,,,,,,,switch,letter,lettSwt,d,0.9962,vtsPrac,17,0,17,0,1,,,,,,,,,,,,,,,,,,,,,,,
298330,2022-12-04_23h48.28.984,vts_reward_expectancy_bt,2022.2.4,MacIntel,60.0024001,Chrome,1440,900,,,,,0,477,,,,,,,,,,,,,,,,,F,174,circle,1,0,,5,,,,,,,,,,,,,,switch,number,numSwt,k,1.3147,vtsPrac,18,0,18,0,1,,,,,,,,,,,,,,,,,,,,,,,
298330,2022-12-04_23h48.28.984,vts_reward_expectancy_bt,2022.2.4,MacIntel,60.0024001,Chrome,1440,900,,,,,0,477,,,,,,,,,,,,,,,,,S,139,triangle,1,0,,5,,,,,,,,,,,,,,switch,letter,lettSwt,f,1.0482,vtsPrac,19,0,19,0,1,,,,,,,,,,,,,,,,,,,,,,,
298330,2022-12-04_23h48.28.984,vts_reward_expectancy_bt,2022.2.4,MacIntel,60.0024001,Chrome,1440,900,,,,,0,477,,,,,,,,,,,,,,,,,U,181,star,1,0,,5,,,,,,,,,,,,,,switch,number,numSwt,k,0.6328,vtsPrac,20,0,20,0,1,,,,,,,,,,,,,,,,,,,,,,,
298330,2022-12-04_23h48.28.984,vts_reward_expectancy_bt,2022.2.4,MacIntel,60.0024001,Chrome,1440,900,,,,,0,477,,,,,,,,,,,,,,,,,H,125,circle,0,0,,5,,,,,,,,,,,,,,repeat,number,NA,k,0.9489,vtsPrac,21,0,21,0,1,,,,,,,,,,,,,,,,,,,,,,,
298330,2022-12-04_23h48.28.984,vts_reward_expectancy_bt,2022.2.4,MacIntel,60.0024001,Chrome,1440,900,,,,,0,477,,,,,,,,,,,,,,,,,B,146,star,1,1,,5,,,,,,,,,,,,,,switch,letter,lettSwt,d,0.6142,vtsPrac,22,0,22,0,1,,,,,,,,,,,,,,,,,,,,,,,
298330,2022-12-04_23h48.28.984,vts_reward_expectancy_bt,2022.2.4,MacIntel,60.0024001,Chrome,1440,900,,,,,0,477,,,,,,,,,,,,,,,,,Y,174,circle,1,0,,5,,,,,,,,,,,,,,repeat,letter,lettRpt,f,0.6146,vtsPrac,23,0,23,0,1,,,,,,,,,,,,,,,,,,,,,,,
298330,2022-12-04_23h48.28.984,vts_reward_expectancy_bt,2022.2.4,MacIntel,60.0024001,Chrome,1440,900,,,,,0,477,,,,,,,,,,,,,,,,,F,139,hexagon,0,0,,5,,,,,,,,,,,,,,repeat,letter,NA,f,0.9149,vtsPrac,24,0,24,0,1,,,,,,,,,,,,,,,,,,,,,,,
298330,2022-12-04_23h48.28.984,vts_reward_expectancy_bt,2022.2.4,MacIntel,60.0024001,Chrome,1440,900,,,,,0,477,,,,,,,,,,,,,,,,,S,181,star,1,1,,5,,,,,,,,,,,,,,switch,number,numSwt,k,0.9301,vtsPrac,25,0,25,0,1,,,,,,,,,,,,,,,,,,,,,,,
298330,2022-12-04_23h48.28.984,vts_reward_expectancy_bt,2022.2.4,MacIntel,60.0024001,Chrome,1440,900,,,,,0,477,,,,,,,,,,,,,,,,,H,146,hexagon,1,0,,5,,,,,,,,,,,,,,repeat,number,numRpt,j,1.0982,vtsPrac,26,0,26,0,1,,,,,,,,,,,,,,,,,,,,,,,
298330,2022-12-04_23h48.28.984,vts_reward_expectancy_bt,2022.2.4,MacIntel,60.0024001,Chrome,1440,900,,,,,0,477,,,,,,,,,,,,,,,,,W,167,star,1,0,,5,,,,,,,,,,,,,,repeat,number,numRpt,k,0.8989,vtsPrac,27,0,27,0,1,,,,,,,,,,,,,,,,,,,,,,,
298330,2022-12-04_23h48.28.984,vts_reward_expectancy_bt,2022.2.4,MacIntel,60.0024001,Chrome,1440,900,,,,,0,477,,,,,,,,,,,,,,,,,B,125,star,1,0,,5,,,,,,,,,,,,,,switch,letter,lettSwt,d,0.8158,vtsPrac,28,0,28,0,1,,,,,,,,,,,,,,,,,,,,,,,
298330,2022-12-04_23h48.28.984,vts_reward_expectancy_bt,2022.2.4,MacIntel,60.0024001,Chrome,1440,900,,,,,0,477,,,,,,,,,,,,,,,,,D,146,circle,1,0,,5,,,,,,,,,,,,,,switch,number,numSwt,j,1.2138,vtsPrac,29,0,29,0,1,,,,,,,,,,,,,,,,,,,,,,,
298330,2022-12-04_23h48.28.984,vts_reward_expectancy_bt,2022.2.4,MacIntel,60.0024001,Chrome,1440,900,,,,,0,477,,,,,,,,,,,,,,,,,Y,160,triangle,1,0,,5,,,,,,,,,,,,,,switch,letter,lettSwt,f,0.631,vtsPrac,30,0,30,0,1,,,,,,,,,,,,,,,,,,,,,,,
298330,2022-12-04_23h48.28.984,vts_reward_expectancy_bt,2022.2.4,MacIntel,60.0024001,Chrome,1440,900,,,,,0,477,,,,,,,,,,,,,,,,,W,132,circle,1,0,,5,,,,,,,,,,,,,,repeat,letter,lettRpt,f,0.9314,vtsPrac,31,0,31,0,1,,,,,,,,,,,,,,,,,,,,,,,
298330,2022-12-04_23h48.28.984,vts_reward_expectancy_bt,2022.2.4,MacIntel,60.0024001,Chrome,1440,900,,,,,,,,,,,,,,,,,,,,,,,,,,,,,,,,,,,,,,,,,,,,,,,,,,,,,,,,,,,,,,,,,,,,,,,,,,,,
298330,2022-12-04_23h48.28.984,vts_reward_expectancy_bt,2022.2.4,MacIntel,60.0024001,Chrome,1440,900,,,,,,,,,,,,,,,,,,,,,,,,,,,,,,,,,,,,,,,,,,,,,,,,,,,,,,,,,,,,,,,,,,,,,,,,,,,,
298330,2022-12-04_23h48.28.984,vts_reward_expectancy_bt,2022.2.4,MacIntel,60.0024001,Chrome,1440,900,,,,,0,477,,,,,,,,,,,,,,,,,U,160,star,1,0,,,,,,,,,,,,,,,,switch,number,numSwt,k,0.7327,noRew,,,,,,0,0,0,0,0,1,,,,,,,,,,,,,,,,,
298330,2022-12-04_23h48.28.984,vts_reward_expectancy_bt,2022.2.4,MacIntel,60.0024001,Chrome,1440,900,,,,,0,477,,,,,,,,,,,,,,,,,W,132,hexagon,1,0,,,,,,,,,,,,,,,,switch,letter,lettSwt,f,1.148,noRew,,,,,,0,1,0,1,0,1,,,,,,,,,,,,,,,,,
298330,2022-12-04_23h48.28.984,vts_reward_expectancy_bt,2022.2.4,MacIntel,60.0024001,Chrome,1440,900,,,,,0,477,,,,,,,,,,,,,,,,,B,167,star,1,0,,,,,,,,,,,,,,,,repeat,letter,lettRpt,d,1.2154,noRew,,,,,,0,2,0,2,0,1,,,,,,,,,,,,,,,,,
298330,2022-12-04_23h48.28.984,vts_reward_expectancy_bt,2022.2.4,MacIntel,60.0024001,Chrome,1440,900,,,,,0,477,,,,,,,,,,,,,,,,,Y,125,hexagon,1,0,,,,,,,,,,,,,,,,switch,number,numSwt,j,0.7312,noRew,,,,,,0,3,0,3,0,1,,,,,,,,,,,,,,,,,
298330,2022-12-04_23h48.28.984,vts_reward_expectancy_bt,2022.2.4,MacIntel,60.0024001,Chrome,1440,900,,,,,0,477,,,,,,,,,,,,,,,,,U,160,hexagon,1,0,,,,,,,,,,,,,,,,switch,letter,lettSwt,f,1.165,noRew,,,,,,0,4,0,4,0,1,,,,,,,,,,,,,,,,,
298330,2022-12-04_23h48.28.984,vts_reward_expectancy_bt,2022.2.4,MacIntel,60.0024001,Chrome,1440,900,,,,,0,477,,,,,,,,,,,,,,,,,W,132,star,1,0,,,,,,,,,,,,,,,,switch,number,numSwt,j,0.8304,noRew,,,,,,0,5,0,5,0,1,,,,,,,,,,,,,,,,,
298330,2022-12-04_23h48.28.984,vts_reward_expectancy_bt,2022.2.4,MacIntel,60.0024001,Chrome,1440,900,,,,,0,477,,,,,,,,,,,,,,,,,B,167,star,1,0,,,,,,,,,,,,,,,,repeat,number,numRpt,k,0.8634,noRew,,,,,,0,6,0,6,0,1,,,,,,,,,,,,,,,,,
298330,2022-12-04_23h48.28.984,vts_reward_expectancy_bt,2022.2.4,MacIntel,60.0024001,Chrome,1440,900,,,,,0,477,,,,,,,,,,,,,,,,,Y,125,circle,1,0,,,,,,,,,,,,,,,,switch,letter,lettSwt,f,1.2929,noRew,,,,,,0,7,0,7,0,1,,,,,,,,,,,,,,,,,
298330,2022-12-04_23h48.28.984,vts_reward_expectancy_bt,2022.2.4,MacIntel,60.0024001,Chrome,1440,900,,,,,0,477,,,,,,,,,,,,,,,,,U,160,circle,1,0,,,,,,,,,,,,,,,,repeat,letter,lettRpt,f,1.1133,noRew,,,,,,0,8,0,8,0,1,,,,,,,,,,,,,,,,,
298330,2022-12-04_23h48.28.984,vts_reward_expectancy_bt,2022.2.4,MacIntel,60.0024001,Chrome,1440,900,,,,,0,477,,,,,,,,,,,,,,,,,H,139,hexagon,1,0,,,,,,,,,,,,,,,,switch,number,numSwt,j,0.6292,noRew,,,,,,0,9,0,9,0,1,,,,,,,,,,,,,,,,,
298330,2022-12-04_23h48.28.984,vts_reward_expectancy_bt,2022.2.4,MacIntel,60.0024001,Chrome,1440,900,,,,,0,477,,,,,,,,,,,,,,,,,S,125,circle,1,0,,,,,,,,,,,,,,,,repeat,number,numRpt,j,0.4819,noRew,,,,,,0,10,0,10,0,1,,,,,,,,,,,,,,,,,
298330,2022-12-04_23h48.28.984,vts_reward_expectancy_bt,2022.2.4,MacIntel,60.0024001,Chrome,1440,900,,,,,0,477,,,,,,,,,,,,,,,,,B,181,star,1,0,,,,,,,,,,,,,,,,switch,letter,lettSwt,d,1.1642,noRew,,,,,,0,11,0,11,0,1,,,,,,,,,,,,,,,,,
298330,2022-12-04_23h48.28.984,vts_reward_expectancy_bt,2022.2.4,MacIntel,60.0024001,Chrome,1440,900,,,,,0,477,,,,,,,,,,,,,,,,,Y,139,star,1,0,,,,,,,,,,,,,,,,switch,number,numSwt,j,0.9493,noRew,,,,,,0,12,0,12,0,1,,,,,,,,,,,,,,,,,
298330,2022-12-04_23h48.28.984,vts_reward_expectancy_bt,2022.2.4,MacIntel,60.0024001,Chrome,1440,900,,,,,0,477,,,,,,,,,,,,,,,,,B,160,triangle,1,0,,,,,,,,,,,,,,,,repeat,number,numRpt,k,0.8002,noRew,,,,,,0,13,0,13,0,1,,,,,,,,,,,,,,,,,
298330,2022-12-04_23h48.28.984,vts_reward_expectancy_bt,2022.2.4,MacIntel,60.0024001,Chrome,1440,900,,,,,0,477,,,,,,,,,,,,,,,,,D,174,star,1,0,,,,,,,,,,,,,,,,switch,letter,lettSwt,d,0.9494,noRew,,,,,,0,14,0,14,0,1,,,,,,,,,,,,,,,,,
298330,2022-12-04_23h48.28.984,vts_reward_expectancy_bt,2022.2.4,MacIntel,60.0024001,Chrome,1440,900,,,,,0,477,,,,,,,,,,,,,,,,,S,125,triangle,1,0,,,,,,,,,,,,,,,,repeat,letter,lettRpt,f,1.3814,noRew,,,,,,0,15,0,15,0,1,,,,,,,,,,,,,,,,,
298330,2022-12-04_23h48.28.984,vts_reward_expectancy_bt,2022.2.4,MacIntel,60.0024001,Chrome,1440,900,,,,,0,477,,,,,,,,,,,,,,,,,U,160,star,1,0,,,,,,,,,,,,,,,,switch,number,numSwt,k,0.799,noRew,,,,,,0,16,0,16,0,1,,,,,,,,,,,,,,,,,
298330,2022-12-04_23h48.28.984,vts_reward_expectancy_bt,2022.2.4,MacIntel,60.0024001,Chrome,1440,900,,,,,0,477,,,,,,,,,,,,,,,,,F,125,circle,1,0,,,,,,,,,,,,,,,,switch,letter,lettSwt,d,1.5638,noRew,,,,,,0,17,0,17,0,1,,,,,,,,,,,,,,,,,
298330,2022-12-04_23h48.28.984,vts_reward_expectancy_bt,2022.2.4,MacIntel,60.0024001,Chrome,1440,900,,,,,0,477,,,,,,,,,,,,,,,,,H,132,hexagon,1,0,,,,,,,,,,,,,,,,switch,number,numSwt,j,1.0329,noRew,,,,,,0,18,0,18,0,1,,,,,,,,,,,,,,,,,
298330,2022-12-04_23h48.28.984,vts_reward_expectancy_bt,2022.2.4,MacIntel,60.0024001,Chrome,1440,900,,,,,0,477,,,,,,,,,,,,,,,,,B,181,triangle,0,0,,,,,,,,,,,,,,,,repeat,number,NA,j,1.3141,noRew,,,,,,0,19,0,19,0,1,,,,,,,,,,,,,,,,,
298330,2022-12-04_23h48.28.984,vts_reward_expectancy_bt,2022.2.4,MacIntel,60.0024001,Chrome,1440,900,,,,,0,477,,,,,,,,,,,,,,,,,B,174,circle,1,1,,,,,,,,,,,,,,,,switch,letter,lettSwt,d,0.6987,noRew,,,,,,0,20,0,20,0,1,,,,,,,,,,,,,,,,,
298330,2022-12-04_23h48.28.984,vts_reward_expectancy_bt,2022.2.4,MacIntel,60.0024001,Chrome,1440,900,,,,,0,477,,,,,,,,,,,,,,,,,S,167,hexagon,1,0,,,,,,,,,,,,,,,,switch,number,numSwt,k,1.4343,noRew,,,,,,0,21,0,21,0,1,,,,,,,,,,,,,,,,,
298330,2022-12-04_23h48.28.984,vts_reward_expectancy_bt,2022.2.4,MacIntel,60.0024001,Chrome,1440,900,,,,,0,477,,,,,,,,,,,,,,,,,W,160,hexagon,1,0,,,,,,,,,,,,,,,,switch,letter,lettSwt,f,1.2481,noRew,,,,,,0,22,0,22,0,1,,,,,,,,,,,,,,,,,
298330,2022-12-04_23h48.28.984,vts_reward_expectancy_bt,2022.2.4,MacIntel,60.0024001,Chrome,1440,900,,,,,0,477,,,,,,,,,,,,,,,,,F,132,triangle,1,0,,,,,,,,,,,,,,,,switch,number,numSwt,j,0.7159,noRew,,,,,,0,23,0,23,0,1,,,,,,,,,,,,,,,,,
298330,2022-12-04_23h48.28.984,vts_reward_expectancy_bt,2022.2.4,MacIntel,60.0024001,Chrome,1440,900,,,,,0,477,,,,,,,,,,,,,,,,,F,132,hexagon,0,0,,,,,,,,,,,,,,,,switch,letter,NA,f,1.219,noRew,,,,,,0,24,0,24,0,1,,,,,,,,,,,,,,,,,
298330,2022-12-04_23h48.28.984,vts_reward_expectancy_bt,2022.2.4,MacIntel,60.0024001,Chrome,1440,900,,,,,0,477,,,,,,,,,,,,,,,,,U,146,triangle,0,1,,,,,,,,,,,,,,,,switch,number,NA,k,1.2657,noRew,,,,,,0,25,0,25,0,1,,,,,,,,,,,,,,,,,
298330,2022-12-04_23h48.28.984,vts_reward_expectancy_bt,2022.2.4,MacIntel,60.0024001,Chrome,1440,900,,,,,0,477,,,,,,,,,,,,,,,,,S,167,circle,1,1,,,,,,,,,,,,,,,,repeat,number,numRpt,k,1.2329,noRew,,,,,,0,26,0,26,0,1,,,,,,,,,,,,,,,,,
298330,2022-12-04_23h48.28.984,vts_reward_expectancy_bt,2022.2.4,MacIntel,60.0024001,Chrome,1440,900,,,,,0,477,,,,,,,,,,,,,,,,,D,139,star,1,0,,,,,,,,,,,,,,,,switch,letter,lettSwt,d,1.5825,noRew,,,,,,0,27,0,27,0,1,,,,,,,,,,,,,,,,,
298330,2022-12-04_23h48.28.984,vts_reward_expectancy_bt,2022.2.4,MacIntel,60.0024001,Chrome,1440,900,,,,,0,477,,,,,,,,,,,,,,,,,H,181,triangle,1,0,,,,,,,,,,,,,,,,switch,number,numSwt,k,2.3477,noRew,,,,,,0,28,0,28,0,1,,,,,,,,,,,,,,,,,
298330,2022-12-04_23h48.28.984,vts_reward_expectancy_bt,2022.2.4,MacIntel,60.0024001,Chrome,1440,900,,,,,0,477,,,,,,,,,,,,,,,,,W,146,hexagon,-1,0,,,,,,,,,,,,,,,,switch,no_choice,NA,,,noRew,,,,,,0,29,0,29,0,1,,,,,,,,,,,,,,,,,
298330,2022-12-04_23h48.28.984,vts_reward_expectancy_bt,2022.2.4,MacIntel,60.0024001,Chrome,1440,900,,,,,0,477,,,,,,,,,,,,,,,,,Y,139,hexagon,-1,0,,,,,,,,,,,,,,,,repeat,no_choice,NA,,,noRew,,,,,,0,30,0,30,0,1,,,,,,,,,,,,,,,,,
298330,2022-12-04_23h48.28.984,vts_reward_expectancy_bt,2022.2.4,MacIntel,60.0024001,Chrome,1440,900,,,,,0,477,,,,,,,,,,,,,,,,,F,174,circle,1,0,,,,,,,,,,,,,,,,switch,number,numSwt,k,1.9829,noRew,,,,,,0,31,0,31,0,1,,,,,,,,,,,,,,,,,
298330,2022-12-04_23h48.28.984,vts_reward_expectancy_bt,2022.2.4,MacIntel,60.0024001,Chrome,1440,900,,,,,0,477,,,,,,,,,,,,,,,,,W,160,triangle,1,0,,,,,,,,,,,,,,,,repeat,number,numRpt,k,0.8982,noRew,,,,,,0,32,0,32,0,1,,,,,,,,,,,,,,,,,
298330,2022-12-04_23h48.28.984,vts_reward_expectancy_bt,2022.2.4,MacIntel,60.0024001,Chrome,1440,900,,,,,0,477,,,,,,,,,,,,,,,,,S,181,circle,1,0,,,,,,,,,,,,,,,,repeat,number,numRpt,k,1.2972,noRew,,,,,,0,33,0,33,0,1,,,,,,,,,,,,,,,,,
298330,2022-12-04_23h48.28.984,vts_reward_expectancy_bt,2022.2.4,MacIntel,60.0024001,Chrome,1440,900,,,,,0,477,,,,,,,,,,,,,,,,,F,174,hexagon,1,0,,,,,,,,,,,,,,,,repeat,number,numRpt,k,0.7148,noRew,,,,,,0,34,0,34,0,1,,,,,,,,,,,,,,,,,
298330,2022-12-04_23h48.28.984,vts_reward_expectancy_bt,2022.2.4,MacIntel,60.0024001,Chrome,1440,900,,,,,0,477,,,,,,,,,,,,,,,,,B,146,triangle,1,0,,,,,,,,,,,,,,,,switch,letter,lettSwt,d,0.7087,noRew,,,,,,0,35,0,35,0,1,,,,,,,,,,,,,,,,,
298330,2022-12-04_23h48.28.984,vts_reward_expectancy_bt,2022.2.4,MacIntel,60.0024001,Chrome,1440,900,,,,,0,477,,,,,,,,,,,,,,,,,Y,132,star,1,0,,,,,,,,,,,,,,,,repeat,letter,lettRpt,f,1.0795,noRew,,,,,,0,36,0,36,0,1,,,,,,,,,,,,,,,,,
298330,2022-12-04_23h48.28.984,vts_reward_expectancy_bt,2022.2.4,MacIntel,60.0024001,Chrome,1440,900,,,,,0,477,,,,,,,,,,,,,,,,,U,167,circle,1,0,,,,,,,,,,,,,,,,repeat,letter,lettRpt,f,0.8328,noRew,,,,,,0,37,0,37,0,1,,,,,,,,,,,,,,,,,
298330,2022-12-04_23h48.28.984,vts_reward_expectancy_bt,2022.2.4,MacIntel,60.0024001,Chrome,1440,900,,,,,0,477,,,,,,,,,,,,,,,,,F,125,circle,1,0,,,,,,,,,,,,,,,,repeat,letter,lettRpt,d,1.9644,noRew,,,,,,0,38,0,38,0,1,,,,,,,,,,,,,,,,,
298330,2022-12-04_23h48.28.984,vts_reward_expectancy_bt,2022.2.4,MacIntel,60.0024001,Chrome,1440,900,,,,,0,477,,,,,,,,,,,,,,,,,B,139,hexagon,1,0,,,,,,,,,,,,,,,,switch,number,numSwt,j,0.8314,noRew,,,,,,0,39,0,39,0,1,,,,,,,,,,,,,,,,,
298330,2022-12-04_23h48.28.984,vts_reward_expectancy_bt,2022.2.4,MacIntel,60.0024001,Chrome,1440,900,,,,,0,477,,,,,,,,,,,,,,,,,Y,174,circle,1,0,,,,,,,,,,,,,,,,repeat,number,numRpt,k,0.6681,noRew,,,,,,0,40,0,40,0,1,,,,,,,,,,,,,,,,,
298330,2022-12-04_23h48.28.984,vts_reward_expectancy_bt,2022.2.4,MacIntel,60.0024001,Chrome,1440,900,,,,,0,477,,,,,,,,,,,,,,,,,D,160,star,1,0,,,,,,,,,,,,,,,,repeat,number,numRpt,k,1.4475,noRew,,,,,,0,41,0,41,0,1,,,,,,,,,,,,,,,,,
298330,2022-12-04_23h48.28.984,vts_reward_expectancy_bt,2022.2.4,MacIntel,60.0024001,Chrome,1440,900,,,,,0,477,,,,,,,,,,,,,,,,,W,132,triangle,1,0,,,,,,,,,,,,,,,,repeat,number,numRpt,j,0.763,noRew,,,,,,0,42,0,42,0,1,,,,,,,,,,,,,,,,,
298330,2022-12-04_23h48.28.984,vts_reward_expectancy_bt,2022.2.4,MacIntel,60.0024001,Chrome,1440,900,,,,,0,477,,,,,,,,,,,,,,,,,H,167,hexagon,1,0,,,,,,,,,,,,,,,,switch,letter,lettSwt,d,0.7481,noRew,,,,,,0,43,0,43,0,1,,,,,,,,,,,,,,,,,
298330,2022-12-04_23h48.28.984,vts_reward_expectancy_bt,2022.2.4,MacIntel,60.0024001,Chrome,1440,900,,,,,0,477,,,,,,,,,,,,,,,,,W,160,star,1,0,,,,,,,,,,,,,,,,repeat,letter,lettRpt,f,1.3003,noRew,,,,,,0,44,0,44,0,1,,,,,,,,,,,,,,,,,
298330,2022-12-04_23h48.28.984,vts_reward_expectancy_bt,2022.2.4,MacIntel,60.0024001,Chrome,1440,900,,,,,0,477,,,,,,,,,,,,,,,,,S,146,circle,1,0,,,,,,,,,,,,,,,,repeat,letter,lettRpt,f,1.3652,noRew,,,,,,0,45,0,45,0,1,,,,,,,,,,,,,,,,,
298330,2022-12-04_23h48.28.984,vts_reward_expectancy_bt,2022.2.4,MacIntel,60.0024001,Chrome,1440,900,,,,,0,477,,,,,,,,,,,,,,,,,D,125,hexagon,1,0,,,,,,,,,,,,,,,,repeat,letter,lettRpt,d,0.8649,noRew,,,,,,0,46,0,46,0,1,,,,,,,,,,,,,,,,,
298330,2022-12-04_23h48.28.984,vts_reward_expectancy_bt,2022.2.4,MacIntel,60.0024001,Chrome,1440,900,,,,,0,477,,,,,,,,,,,,,,,,,H,167,circle,0,0,,,,,,,,,,,,,,,,repeat,letter,NA,f,1.7488,noRew,,,,,,0,47,0,47,0,1,,,,,,,,,,,,,,,,,
298330,2022-12-04_23h48.28.984,vts_reward_expectancy_bt,2022.2.4,MacIntel,60.0024001,Chrome,1440,900,,,,,0,477,,,,,,,,,,,,,,,,,S,160,triangle,0,1,,,,,,,,,,,,,,,,repeat,letter,NA,d,1.5821,noRew,,,,,,0,48,0,48,0,1,,,,,,,,,,,,,,,,,
298330,2022-12-04_23h48.28.984,vts_reward_expectancy_bt,2022.2.4,MacIntel,60.0024001,Chrome,1440,900,,,,,0,477,,,,,,,,,,,,,,,,,U,125,star,0,1,,,,,,,,,,,,,,,,repeat,letter,NA,d,1.3471,noRew,,,,,,0,49,0,49,0,1,,,,,,,,,,,,,,,,,
298330,2022-12-04_23h48.28.984,vts_reward_expectancy_bt,2022.2.4,MacIntel,60.0024001,Chrome,1440,900,,,,,0,477,,,,,,,,,,,,,,,,,Y,132,circle,1,1,,,,,,,,,,,,,,,,repeat,letter,lettRpt,f,1.0925,noRew,,,,,,0,50,0,50,0,1,,,,,,,,,,,,,,,,,
298330,2022-12-04_23h48.28.984,vts_reward_expectancy_bt,2022.2.4,MacIntel,60.0024001,Chrome,1440,900,,,,,0,477,,,,,,,,,,,,,,,,,W,167,triangle,1,0,,,,,,,,,,,,,,,,switch,number,numSwt,k,1.2651,noRew,,,,,,0,51,0,51,0,1,,,,,,,,,,,,,,,,,
298330,2022-12-04_23h48.28.984,vts_reward_expectancy_bt,2022.2.4,MacIntel,60.0024001,Chrome,1440,900,,,,,0,477,,,,,,,,,,,,,,,,,U,139,hexagon,1,0,,,,,,,,,,,,,,,,repeat,number,numRpt,j,1.6307,noRew,,,,,,0,52,0,52,0,1,,,,,,,,,,,,,,,,,
298330,2022-12-04_23h48.28.984,vts_reward_expectancy_bt,2022.2.4,MacIntel,60.0024001,Chrome,1440,900,,,,,0,477,,,,,,,,,,,,,,,,,Y,132,triangle,1,0,,,,,,,,,,,,,,,,repeat,number,numRpt,j,0.8314,noRew,,,,,,0,53,0,53,0,1,,,,,,,,,,,,,,,,,
298330,2022-12-04_23h48.28.984,vts_reward_expectancy_bt,2022.2.4,MacIntel,60.0024001,Chrome,1440,900,,,,,0,477,,,,,,,,,,,,,,,,,H,146,hexagon,1,0,,,,,,,,,,,,,,,,repeat,number,numRpt,j,1.415,noRew,,,,,,0,54,0,54,0,1,,,,,,,,,,,,,,,,,
298330,2022-12-04_23h48.28.984,vts_reward_expectancy_bt,2022.2.4,MacIntel,60.0024001,Chrome,1440,900,,,,,0,477,,,,,,,,,,,,,,,,,S,167,triangle,1,0,,,,,,,,,,,,,,,,repeat,number,numRpt,k,1.4305,noRew,,,,,,0,55,0,55,0,1,,,,,,,,,,,,,,,,,
298330,2022-12-04_23h48.28.984,vts_reward_expectancy_bt,2022.2.4,MacIntel,60.0024001,Chrome,1440,900,,,,,0,477,,,,,,,,,,,,,,,,,D,132,circle,1,0,,,,,,,,,,,,,,,,repeat,number,numRpt,j,1.9982,noRew,,,,,,0,56,0,56,0,1,,,,,,,,,,,,,,,,,
298330,2022-12-04_23h48.28.984,vts_reward_expectancy_bt,2022.2.4,MacIntel,60.0024001,Chrome,1440,900,,,,,0,477,,,,,,,,,,,,,,,,,S,160,star,1,0,,,,,,,,,,,,,,,,switch,letter,lettSwt,f,2.1793,noRew,,,,,,0,57,0,57,0,1,,,,,,,,,,,,,,,,,
298330,2022-12-04_23h48.28.984,vts_reward_expectancy_bt,2022.2.4,MacIntel,60.0024001,Chrome,1440,900,,,,,0,477,,,,,,,,,,,,,,,,,Y,167,hexagon,1,0,,,,,,,,,,,,,,,,repeat,letter,lettRpt,f,0.8475,noRew,,,,,,0,58,0,58,0,1,,,,,,,,,,,,,,,,,
298330,2022-12-04_23h48.28.984,vts_reward_expectancy_bt,2022.2.4,MacIntel,60.0024001,Chrome,1440,900,,,,,0,477,,,,,,,,,,,,,,,,,W,139,triangle,1,0,,,,,,,,,,,,,,,,repeat,letter,lettRpt,f,1.4642,noRew,,,,,,0,59,0,59,0,1,,,,,,,,,,,,,,,,,
298330,2022-12-04_23h48.28.984,vts_reward_expectancy_bt,2022.2.4,MacIntel,60.0024001,Chrome,1440,900,,,,,0,477,,,,,,,,,,,,,,,,,B,160,star,1,0,,,,,,,,,,,,,,,,repeat,letter,lettRpt,d,1.4471,noRew,,,,,,0,60,0,60,0,1,,,,,,,,,,,,,,,,,
298330,2022-12-04_23h48.28.984,vts_reward_expectancy_bt,2022.2.4,MacIntel,60.0024001,Chrome,1440,900,,,,,0,477,,,,,,,,,,,,,,,,,U,181,triangle,1,0,,,,,,,,,,,,,,,,repeat,letter,lettRpt,f,0.8456,noRew,,,,,,0,61,0,61,0,1,,,,,,,,,,,,,,,,,
298330,2022-12-04_23h48.28.984,vts_reward_expectancy_bt,2022.2.4,MacIntel,60.0024001,Chrome,1440,900,,,,,0,477,,,,,,,,,,,,,,,,,H,125,star,0,0,,,,,,,,,,,,,,,,repeat,letter,NA,f,1.3155,noRew,,,,,,0,62,0,62,0,1,,,,,,,,,,,,,,,,,
298330,2022-12-04_23h48.28.984,vts_reward_expectancy_bt,2022.2.4,MacIntel,60.0024001,Chrome,1440,900,,,,,0,477,,,,,,,,,,,,,,,,,F,167,circle,1,1,,,,,,,,,,,,,,,,repeat,letter,lettRpt,d,1.8977,noRew,,,,,,0,63,0,63,0,1,,,,,,,,,,,,,,,,,
298330,2022-12-04_23h48.28.984,vts_reward_expectancy_bt,2022.2.4,MacIntel,60.0024001,Chrome,1440,900,,,,,,,,,,,,,,,,,,,,,,,,,,,,,,,,,,,,,,,,,,,,,,,,,,,,,,,,,,,,,,,,,,,,,,,,,,,,
298330,2022-12-04_23h48.28.984,vts_reward_expectancy_bt,2022.2.4,MacIntel,60.0024001,Chrome,1440,900,,,,,10,487,,,,,,,,,,,,,,,,,S,167,star,1,0,,,,,,,,,,,,,,,,switch,number,numSwt,k,1.5486,Lo,,,,,,0,,,,,,space,10.9699,low,0,0,0,0,1,,,,,,,,,
298330,2022-12-04_23h48.28.984,vts_reward_expectancy_bt,2022.2.4,MacIntel,60.0024001,Chrome,1440,900,,,,,0,487,,,,,,,,,,,,,,,,,Y,132,circle,1,0,,,,,,,,,,,,,,,,repeat,number,numRpt,j,1.9669,Hi,,,,,,0,,,,,,,,low,1,0,1,0,1,,,,,,,,,
298330,2022-12-04_23h48.28.984,vts_reward_expectancy_bt,2022.2.4,MacIntel,60.0024001,Chrome,1440,900,,,,,0,487,,,,,,,,,,,,,,,,,B,174,triangle,1,0,,,,,,,,,,,,,,,,switch,letter,lettSwt,d,1.2157,Hi,,,,,,0,,,,,,,,low,2,0,2,0,1,,,,,,,,,
298330,2022-12-04_23h48.28.984,vts_reward_expectancy_bt,2022.2.4,MacIntel,60.0024001,Chrome,1440,900,,,,,0,487,,,,,,,,,,,,,,,,,U,146,hexagon,0,0,,,,,,,,,,,,,,,,switch,number,NA,k,0.8976,Hi,,,,,,0,,,,,,,,low,3,0,3,0,1,,,,,,,,,
298330,2022-12-04_23h48.28.984,vts_reward_expectancy_bt,2022.2.4,MacIntel,60.0024001,Chrome,1440,900,,,,,0,487,,,,,,,,,,,,,,,,,H,139,star,0,1,,,,,,,,,,,,,,,,switch,letter,NA,f,1.5477,Hi,,,,,,0,,,,,,,,low,4,0,4,0,1,,,,,,,,,
298330,2022-12-04_23h48.28.984,vts_reward_expectancy_bt,2022.2.4,MacIntel,60.0024001,Chrome,1440,900,,,,,1,488,,,,,,,,,,,,,,,,,D,160,circle,1,1,,,,,,,,,,,,,,,,switch,number,numSwt,k,0.7014,Hi,,,,,,0,,,,,,,,low,5,0,5,0,1,,,,,,,,,
298330,2022-12-04_23h48.28.984,vts_reward_expectancy_bt,2022.2.4,MacIntel,60.0024001,Chrome,1440,900,,,,,1,489,,,,,,,,,,,,,,,,,F,125,triangle,1,0,,,,,,,,,,,,,,,,repeat,number,numRpt,j,0.7653,Hi,,,,,,0,,,,,,,,low,6,0,6,0,1,,,,,,,,,
298330,2022-12-04_23h48.28.984,vts_reward_expectancy_bt,2022.2.4,MacIntel,60.0024001,Chrome,1440,900,,,,,0,489,,,,,,,,,,,,,,,,,W,181,hexagon,0,0,,,,,,,,,,,,,,,,switch,letter,NA,d,1.1988,Hi,,,,,,0,,,,,,,,low,7,0,7,0,1,,,,,,,,,
298330,2022-12-04_23h48.28.984,vts_reward_expectancy_bt,2022.2.4,MacIntel,60.0024001,Chrome,1440,900,,,,,0,489,,,,,,,,,,,,,,,,,S,167,triangle,1,1,,,,,,,,,,,,,,,,repeat,letter,lettRpt,f,1.5312,Hi,,,,,,0,,,,,,,,low,8,0,8,0,1,,,,,,,,,
298330,2022-12-04_23h48.28.984,vts_reward_expectancy_bt,2022.2.4,MacIntel,60.0024001,Chrome,1440,900,,,,,1,490,,,,,,,,,,,,,,,,,Y,132,star,1,0,,,,,,,,,,,,,,,,repeat,letter,lettRpt,f,1.0973,Lo,,,,,,0,,,,,,,,low,9,0,9,0,1,,,,,,,,,
298330,2022-12-04_23h48.28.984,vts_reward_expectancy_bt,2022.2.4,MacIntel,60.0024001,Chrome,1440,900,,,,,1,491,,,,,,,,,,,,,,,,,B,174,hexagon,1,0,,,,,,,,,,,,,,,,repeat,letter,lettRpt,d,0.5471,Lo,,,,,,0,,,,,,,,low,10,0,10,0,1,,,,,,,,,
298330,2022-12-04_23h48.28.984,vts_reward_expectancy_bt,2022.2.4,MacIntel,60.0024001,Chrome,1440,900,,,,,10,501,,,,,,,,,,,,,,,,,U,146,circle,1,0,,,,,,,,,,,,,,,,switch,number,numSwt,j,0.6309,Hi,,,,,,0,,,,,,,,low,11,0,11,0,1,,,,,,,,,
298330,2022-12-04_23h48.28.984,vts_reward_expectancy_bt,2022.2.4,MacIntel,60.0024001,Chrome,1440,900,,,,,10,511,,,,,,,,,,,,,,,,,H,139,circle,1,0,,,,,,,,,,,,,,,,repeat,number,numRpt,j,0.4814,Hi,,,,,,0,,,,,,,,low,12,0,12,0,1,,,,,,,,,
298330,2022-12-04_23h48.28.984,vts_reward_expectancy_bt,2022.2.4,MacIntel,60.0024001,Chrome,1440,900,,,,,1,512,,,,,,,,,,,,,,,,,D,160,hexagon,1,0,,,,,,,,,,,,,,,,switch,letter,lettSwt,d,0.6502,Lo,,,,,,0,,,,,,,,low,13,0,13,0,1,,,,,,,,,
298330,2022-12-04_23h48.28.984,vts_reward_expectancy_bt,2022.2.4,MacIntel,60.0024001,Chrome,1440,900,,,,,0,512,,,,,,,,,,,,,,,,,F,125,triangle,0,0,,,,,,,,,,,,,,,,switch,number,NA,k,0.5817,Lo,,,,,,0,,,,,,,,low,14,0,14,0,1,,,,,,,,,
298330,2022-12-04_23h48.28.984,vts_reward_expectancy_bt,2022.2.4,MacIntel,60.0024001,Chrome,1440,900,,,,,1,513,,,,,,,,,,,,,,,,,W,181,star,1,1,,,,,,,,,,,,,,,,repeat,number,numRpt,k,1.2313,Lo,,,,,,0,,,,,,,,low,15,0,15,0,1,,,,,,,,,
298330,2022-12-04_23h48.28.984,vts_reward_expectancy_bt,2022.2.4,MacIntel,60.0024001,Chrome,1440,900,,,,,1,514,,,,,,,,,,,,,,,,,H,174,star,1,0,,,,,,,,,,,,,,,,repeat,number,numRpt,k,0.8501,Lo,,,,,,0,,,,,,,,low,16,0,16,0,1,,,,,,,,,
298330,2022-12-04_23h48.28.984,vts_reward_expectancy_bt,2022.2.4,MacIntel,60.0024001,Chrome,1440,900,,,,,10,524,,,,,,,,,,,,,,,,,U,125,hexagon,1,0,,,,,,,,,,,,,,,,switch,letter,lettSwt,f,1.6825,Lo,,,,,,0,,,,,,,,low,17,0,17,0,1,,,,,,,,,
298330,2022-12-04_23h48.28.984,vts_reward_expectancy_bt,2022.2.4,MacIntel,60.0024001,Chrome,1440,900,,,,,10,534,,,,,,,,,,,,,,,,,W,167,triangle,1,0,,,,,,,,,,,,,,,,repeat,letter,lettRpt,f,0.9331,Hi,,,,,,0,,,,,,,,low,18,0,18,0,1,,,,,,,,,
298330,2022-12-04_23h48.28.984,vts_reward_expectancy_bt,2022.2.4,MacIntel,60.0024001,Chrome,1440,900,,,,,1,535,,,,,,,,,,,,,,,,,B,132,circle,1,0,,,,,,,,,,,,,,,,switch,number,numSwt,j,0.727,Hi,,,,,,0,,,,,,,,low,19,0,19,0,1,,,,,,,,,
298330,2022-12-04_23h48.28.984,vts_reward_expectancy_bt,2022.2.4,MacIntel,60.0024001,Chrome,1440,900,,,,,1,536,,,,,,,,,,,,,,,,,D,139,triangle,1,0,,,,,,,,,,,,,,,,switch,letter,lettSwt,d,0.7655,Hi,,,,,,0,,,,,,,,low,20,0,20,0,1,,,,,,,,,
298330,2022-12-04_23h48.28.984,vts_reward_expectancy_bt,2022.2.4,MacIntel,60.0024001,Chrome,1440,900,,,,,10,546,,,,,,,,,,,,,,,,,F,146,hexagon,1,0,,,,,,,,,,,,,,,,switch,number,numSwt,j,0.7297,Lo,,,,,,0,,,,,,,,low,21,0,21,0,1,,,,,,,,,
298330,2022-12-04_23h48.28.984,vts_reward_expectancy_bt,2022.2.4,MacIntel,60.0024001,Chrome,1440,900,,,,,1,547,,,,,,,,,,,,,,,,,S,181,star,1,0,,,,,,,,,,,,,,,,repeat,number,numRpt,k,0.7477,Lo,,,,,,0,,,,,,,,low,22,0,22,0,1,,,,,,,,,
298330,2022-12-04_23h48.28.984,vts_reward_expectancy_bt,2022.2.4,MacIntel,60.0024001,Chrome,1440,900,,,,,0,547,,,,,,,,,,,,,,,,,Y,160,circle,1,0,,,,,,,,,,,,,,,,repeat,number,numRpt,k,0.8641,Hi,,,,,,0,,,,,,,,low,23,0,23,0,1,,,,,,,,,
298330,2022-12-04_23h48.28.984,vts_reward_expectancy_bt,2022.2.4,MacIntel,60.0024001,Chrome,1440,900,,,,,1,548,,,,,,,,,,,,,,,,,Y,146,hexagon,1,0,,,,,,,,,,,,,,,,repeat,number,numRpt,j,0.7492,Lo,,,,,,0,,,,,,,,low,24,0,24,0,1,,,,,,,,,
298330,2022-12-04_23h48.28.984,vts_reward_expectancy_bt,2022.2.4,MacIntel,60.0024001,Chrome,1440,900,,,,,0,548,,,,,,,,,,,,,,,,,H,160,circle,1,0,,,,,,,,,,,,,,,,switch,letter,lettSwt,d,1.298,Hi,,,,,,0,,,,,,,,low,25,0,25,0,1,,,,,,,,,
298330,2022-12-04_23h48.28.984,vts_reward_expectancy_bt,2022.2.4,MacIntel,60.0024001,Chrome,1440,900,,,,,1,549,,,,,,,,,,,,,,,,,U,181,star,1,0,,,,,,,,,,,,,,,,switch,number,numSwt,k,0.5597,Lo,,,,,,0,,,,,,,,low,26,0,26,0,1,,,,,,,,,
298330,2022-12-04_23h48.28.984,vts_reward_expectancy_bt,2022.2.4,MacIntel,60.0024001,Chrome,1440,900,,,,,10,559,,,,,,,,,,,,,,,,,B,139,triangle,1,0,,,,,,,,,,,,,,,,repeat,number,numRpt,j,0.4309,Hi,,,,,,0,,,,,,,,low,27,0,27,0,1,,,,,,,,,
298330,2022-12-04_23h48.28.984,vts_reward_expectancy_bt,2022.2.4,MacIntel,60.0024001,Chrome,1440,900,,,,,10,569,,,,,,,,,,,,,,,,,F,125,circle,1,0,,,,,,,,,,,,,,,,repeat,number,numRpt,j,0.4803,Hi,,,,,,0,,,,,,,,low,28,0,28,0,1,,,,,,,,,
298330,2022-12-04_23h48.28.984,vts_reward_expectancy_bt,2022.2.4,MacIntel,60.0024001,Chrome,1440,900,,,,,10,579,,,,,,,,,,,,,,,,,S,132,triangle,1,0,,,,,,,,,,,,,,,,repeat,number,numRpt,j,0.5924,Hi,,,,,,0,,,,,,,,low,29,0,29,0,1,,,,,,,,,
298330,2022-12-04_23h48.28.984,vts_reward_expectancy_bt,2022.2.4,MacIntel,60.0024001,Chrome,1440,900,,,,,10,589,,,,,,,,,,,,,,,,,D,174,star,1,0,,,,,,,,,,,,,,,,repeat,number,numRpt,k,0.5643,Lo,,,,,,0,,,,,,,,low,30,0,30,0,1,,,,,,,,,
298330,2022-12-04_23h48.28.984,vts_reward_expectancy_bt,2022.2.4,MacIntel,60.0024001,Chrome,1440,900,,,,,1,590,,,,,,,,,,,,,,,,,W,167,hexagon,1,0,,,,,,,,,,,,,,,,repeat,number,numRpt,k,0.6,Lo,,,,,,0,,,,,,,,low,31,0,31,0,1,,,,,,,,,
298330,2022-12-04_23h48.28.984,vts_reward_expectancy_bt,2022.2.4,MacIntel,60.0024001,Chrome,1440,900,,,,,1,591,,,,,,,,,,,,,,,,,H,181,triangle,1,0,,,,,,,,,,,,,,,,switch,letter,lettSwt,d,0.7148,Hi,,,,,,1,,,,,,space,3.8103,low,0,0,0,0,1,,,,,,,,,
298330,2022-12-04_23h48.28.984,vts_reward_expectancy_bt,2022.2.4,MacIntel,60.0024001,Chrome,1440,900,,,,,0,591,,,,,,,,,,,,,,,,,W,174,circle,0,0,,,,,,,,,,,,,,,,switch,number,NA,j,0.3341,Hi,,,,,,1,,,,,,,,low,1,0,1,0,1,,,,,,,,,
298330,2022-12-04_23h48.28.984,vts_reward_expectancy_bt,2022.2.4,MacIntel,60.0024001,Chrome,1440,900,,,,,1,592,,,,,,,,,,,,,,,,,B,139,star,1,1,,,,,,,,,,,,,,,,repeat,number,numRpt,j,0.632,Lo,,,,,,1,,,,,,,,low,2,0,2,0,1,,,,,,,,,
298330,2022-12-04_23h48.28.984,vts_reward_expectancy_bt,2022.2.4,MacIntel,60.0024001,Chrome,1440,900,,,,,10,602,,,,,,,,,,,,,,,,,S,125,hexagon,1,0,,,,,,,,,,,,,,,,repeat,number,numRpt,j,0.7166,Lo,,,,,,1,,,,,,,,low,3,0,3,0,1,,,,,,,,,
298330,2022-12-04_23h48.28.984,vts_reward_expectancy_bt,2022.2.4,MacIntel,60.0024001,Chrome,1440,900,,,,,10,612,,,,,,,,,,,,,,,,,F,160,triangle,1,0,,,,,,,,,,,,,,,,repeat,number,numRpt,k,0.5804,Hi,,,,,,1,,,,,,,,low,4,0,4,0,1,,,,,,,,,
298330,2022-12-04_23h48.28.984,vts_reward_expectancy_bt,2022.2.4,MacIntel,60.0024001,Chrome,1440,900,,,,,0,612,,,,,,,,,,,,,,,,,D,132,circle,1,0,,,,,,,,,,,,,,,,repeat,number,numRpt,j,1.0313,Hi,,,,,,1,,,,,,,,low,5,0,5,0,1,,,,,,,,,
298330,2022-12-04_23h48.28.984,vts_reward_expectancy_bt,2022.2.4,MacIntel,60.0024001,Chrome,1440,900,,,,,1,613,,,,,,,,,,,,,,,,,Y,167,star,1,0,,,,,,,,,,,,,,,,repeat,number,numRpt,k,0.4671,Lo,,,,,,1,,,,,,,,low,6,0,6,0,1,,,,,,,,,
298330,2022-12-04_23h48.28.984,vts_reward_expectancy_bt,2022.2.4,MacIntel,60.0024001,Chrome,1440,900,,,,,1,614,,,,,,,,,,,,,,,,,U,146,hexagon,1,0,,,,,,,,,,,,,,,,repeat,number,numRpt,j,0.4933,Lo,,,,,,1,,,,,,,,low,7,0,7,0,1,,,,,,,,,
298330,2022-12-04_23h48.28.984,vts_reward_expectancy_bt,2022.2.4,MacIntel,60.0024001,Chrome,1440,900,,,,,10,624,,,,,,,,,,,,,,,,,H,181,hexagon,1,0,,,,,,,,,,,,,,,,repeat,number,numRpt,k,0.647,Lo,,,,,,1,,,,,,,,low,8,0,8,0,1,,,,,,,,,
298330,2022-12-04_23h48.28.984,vts_reward_expectancy_bt,2022.2.4,MacIntel,60.0024001,Chrome,1440,900,,,,,10,634,,,,,,,,,,,,,,,,,W,174,star,1,0,,,,,,,,,,,,,,,,repeat,number,numRpt,k,0.483,Lo,,,,,,1,,,,,,,,low,9,0,9,0,1,,,,,,,,,
298330,2022-12-04_23h48.28.984,vts_reward_expectancy_bt,2022.2.4,MacIntel,60.0024001,Chrome,1440,900,,,,,0,634,,,,,,,,,,,,,,,,,B,139,circle,1,0,,,,,,,,,,,,,,,,repeat,number,numRpt,j,0.5971,Hi,,,,,,1,,,,,,,,low,10,0,10,0,1,,,,,,,,,
298330,2022-12-04_23h48.28.984,vts_reward_expectancy_bt,2022.2.4,MacIntel,60.0024001,Chrome,1440,900,,,,,1,635,,,,,,,,,,,,,,,,,S,125,triangle,1,0,,,,,,,,,,,,,,,,repeat,number,numRpt,j,0.4321,Hi,,,,,,1,,,,,,,,low,11,0,11,0,1,,,,,,,,,
298330,2022-12-04_23h48.28.984,vts_reward_expectancy_bt,2022.2.4,MacIntel,60.0024001,Chrome,1440,900,,,,,10,645,,,,,,,,,,,,,,,,,F,160,circle,1,0,,,,,,,,,,,,,,,,repeat,number,numRpt,k,0.4641,Hi,,,,,,1,,,,,,,,low,12,0,12,0,1,,,,,,,,,
298330,2022-12-04_23h48.28.984,vts_reward_expectancy_bt,2022.2.4,MacIntel,60.0024001,Chrome,1440,900,,,,,1,646,,,,,,,,,,,,,,,,,D,132,star,1,0,,,,,,,,,,,,,,,,repeat,number,numRpt,j,0.5999,Lo,,,,,,1,,,,,,,,low,13,0,13,0,1,,,,,,,,,
298330,2022-12-04_23h48.28.984,vts_reward_expectancy_bt,2022.2.4,MacIntel,60.0024001,Chrome,1440,900,,,,,0,646,,,,,,,,,,,,,,,,,Y,167,triangle,1,0,,,,,,,,,,,,,,,,repeat,number,numRpt,k,0.5972,Hi,,,,,,1,,,,,,,,low,14,0,14,0,1,,,,,,,,,
298330,2022-12-04_23h48.28.984,vts_reward_expectancy_bt,2022.2.4,MacIntel,60.0024001,Chrome,1440,900,,,,,10,656,,,,,,,,,,,,,,,,,U,146,hexagon,1,0,,,,,,,,,,,,,,,,repeat,number,numRpt,j,0.5476,Lo,,,,,,1,,,,,,,,low,15,0,15,0,1,,,,,,,,,
298330,2022-12-04_23h48.28.984,vts_reward_expectancy_bt,2022.2.4,MacIntel,60.0024001,Chrome,1440,900,,,,,0,656,,,,,,,,,,,,,,,,,B,132,star,0,0,,,,,,,,,,,,,,,,repeat,number,NA,k,0.6425,Lo,,,,,,1,,,,,,,,low,16,0,16,0,1,,,,,,,,,
298330,2022-12-04_23h48.28.984,vts_reward_expectancy_bt,2022.2.4,MacIntel,60.0024001,Chrome,1440,900,,,,,0,656,,,,,,,,,,,,,,,,,Y,167,circle,0,1,,,,,,,,,,,,,,,,repeat,number,NA,j,0.6988,Lo,,,,,,1,,,,,,,,low,17,0,17,0,1,,,,,,,,,
298330,2022-12-04_23h48.28.984,vts_reward_expectancy_bt,2022.2.4,MacIntel,60.0024001,Chrome,1440,900,,,,,10,666,,,,,,,,,,,,,,,,,U,181,hexagon,1,1,,,,,,,,,,,,,,,,repeat,number,numRpt,k,0.5479,Lo,,,,,,1,,,,,,,,low,18,0,18,0,1,,,,,,,,,
298330,2022-12-04_23h48.28.984,vts_reward_expectancy_bt,2022.2.4,MacIntel,60.0024001,Chrome,1440,900,,,,,1,667,,,,,,,,,,,,,,,,,W,125,triangle,1,0,,,,,,,,,,,,,,,,repeat,number,numRpt,j,0.4318,Hi,,,,,,1,,,,,,,,low,19,0,19,0,1,,,,,,,,,
298330,2022-12-04_23h48.28.984,vts_reward_expectancy_bt,2022.2.4,MacIntel,60.0024001,Chrome,1440,900,,,,,10,677,,,,,,,,,,,,,,,,,H,160,hexagon,1,0,,,,,,,,,,,,,,,,repeat,number,numRpt,k,0.5138,Lo,,,,,,1,,,,,,,,low,20,0,20,0,1,,,,,,,,,
298330,2022-12-04_23h48.28.984,vts_reward_expectancy_bt,2022.2.4,MacIntel,60.0024001,Chrome,1440,900,,,,,0,677,,,,,,,,,,,,,,,,,S,139,circle,0,0,,,,,,,,,,,,,,,,switch,letter,NA,d,0.8152,Lo,,,,,,1,,,,,,,,low,21,0,21,0,1,,,,,,,,,
298330,2022-12-04_23h48.28.984,vts_reward_expectancy_bt,2022.2.4,MacIntel,60.0024001,Chrome,1440,900,,,,,0,677,,,,,,,,,,,,,,,,,F,146,triangle,1,1,,,,,,,,,,,,,,,,repeat,letter,lettRpt,d,1.6473,Hi,,,,,,1,,,,,,,,low,22,0,22,0,1,,,,,,,,,
298330,2022-12-04_23h48.28.984,vts_reward_expectancy_bt,2022.2.4,MacIntel,60.0024001,Chrome,1440,900,,,,,1,678,,,,,,,,,,,,,,,,,D,174,star,1,0,,,,,,,,,,,,,,,,switch,number,numSwt,k,0.7826,Lo,,,,,,1,,,,,,,,low,23,0,23,0,1,,,,,,,,,
298330,2022-12-04_23h48.28.984,vts_reward_expectancy_bt,2022.2.4,MacIntel,60.0024001,Chrome,1440,900,,,,,10,688,,,,,,,,,,,,,,,,,H,146,star,1,0,,,,,,,,,,,,,,,,repeat,number,numRpt,j,0.5975,Lo,,,,,,1,,,,,,,,low,24,0,24,0,1,,,,,,,,,
298330,2022-12-04_23h48.28.984,vts_reward_expectancy_bt,2022.2.4,MacIntel,60.0024001,Chrome,1440,900,,,,,1,689,,,,,,,,,,,,,,,,,Y,139,hexagon,1,0,,,,,,,,,,,,,,,,repeat,number,numRpt,j,0.551,Lo,,,,,,1,,,,,,,,low,25,0,25,0,1,,,,,,,,,
298330,2022-12-04_23h48.28.984,vts_reward_expectancy_bt,2022.2.4,MacIntel,60.0024001,Chrome,1440,900,,,,,0,689,,,,,,,,,,,,,,,,,U,167,circle,1,0,,,,,,,,,,,,,,,,repeat,number,numRpt,k,0.5975,Hi,,,,,,1,,,,,,,,low,26,0,26,0,1,,,,,,,,,
298330,2022-12-04_23h48.28.984,vts_reward_expectancy_bt,2022.2.4,MacIntel,60.0024001,Chrome,1440,900,,,,,0,689,,,,,,,,,,,,,,,,,D,181,triangle,0,0,,,,,,,,,,,,,,,,repeat,number,NA,j,0.5818,Hi,,,,,,1,,,,,,,,low,27,0,27,0,1,,,,,,,,,
298330,2022-12-04_23h48.28.984,vts_reward_expectancy_bt,2022.2.4,MacIntel,60.0024001,Chrome,1440,900,,,,,0,689,,,,,,,,,,,,,,,,,F,132,hexagon,0,1,,,,,,,,,,,,,,,,repeat,number,NA,k,0.5635,Hi,,,,,,1,,,,,,,,low,28,0,28,0,1,,,,,,,,,
298330,2022-12-04_23h48.28.984,vts_reward_expectancy_bt,2022.2.4,MacIntel,60.0024001,Chrome,1440,900,,,,,1,690,,,,,,,,,,,,,,,,,S,125,circle,1,1,,,,,,,,,,,,,,,,repeat,number,numRpt,j,0.4308,Hi,,,,,,1,,,,,,,,low,29,0,29,0,1,,,,,,,,,
298330,2022-12-04_23h48.28.984,vts_reward_expectancy_bt,2022.2.4,MacIntel,60.0024001,Chrome,1440,900,,,,,0,690,,,,,,,,,,,,,,,,,W,174,triangle,1,0,,,,,,,,,,,,,,,,repeat,number,numRpt,k,0.6159,Hi,,,,,,1,,,,,,,,low,30,0,30,0,1,,,,,,,,,
298330,2022-12-04_23h48.28.984,vts_reward_expectancy_bt,2022.2.4,MacIntel,60.0024001,Chrome,1440,900,,,,,1,691,,,,,,,,,,,,,,,,,B,160,star,1,0,,,,,,,,,,,,,,,,repeat,number,numRpt,k,0.4345,Lo,,,,,,1,,,,,,,,low,31,0,31,0,1,,,,,,,,,
298330,2022-12-04_23h48.28.984,vts_reward_expectancy_bt,2022.2.4,MacIntel,60.0024001,Chrome,1440,900,,,,,10,701,,,,,,,,,,,,,,,,,W,139,star,1,0,,,,,,,,,,,,,,,,repeat,number,numRpt,j,0.8974,Lo,,,,,,2,,,,,,space,2.7753,low,0,0,0,0,1,,,,,,,,,
298330,2022-12-04_23h48.28.984,vts_reward_expectancy_bt,2022.2.4,MacIntel,60.0024001,Chrome,1440,900,,,,,0,701,,,,,,,,,,,,,,,,,U,132,triangle,1,0,,,,,,,,,,,,,,,,repeat,number,numRpt,j,0.565,Hi,,,,,,2,,,,,,,,low,1,0,1,0,1,,,,,,,,,
298330,2022-12-04_23h48.28.984,vts_reward_expectancy_bt,2022.2.4,MacIntel,60.0024001,Chrome,1440,900,,,,,10,711,,,,,,,,,,,,,,,,,H,125,circle,1,0,,,,,,,,,,,,,,,,repeat,number,numRpt,j,0.3477,Hi,,,,,,2,,,,,,,,low,2,0,2,0,1,,,,,,,,,
298330,2022-12-04_23h48.28.984,vts_reward_expectancy_bt,2022.2.4,MacIntel,60.0024001,Chrome,1440,900,,,,,10,721,,,,,,,,,,,,,,,,,F,160,hexagon,1,0,,,,,,,,,,,,,,,,repeat,number,numRpt,k,0.5632,Lo,,,,,,2,,,,,,,,low,3,0,3,0,1,,,,,,,,,
298330,2022-12-04_23h48.28.984,vts_reward_expectancy_bt,2022.2.4,MacIntel,60.0024001,Chrome,1440,900,,,,,1,722,,,,,,,,,,,,,,,,,S,146,star,1,0,,,,,,,,,,,,,,,,repeat,number,numRpt,j,0.5806,Lo,,,,,,2,,,,,,,,low,4,0,4,0,1,,,,,,,,,
298330,2022-12-04_23h48.28.984,vts_reward_expectancy_bt,2022.2.4,MacIntel,60.0024001,Chrome,1440,900,,,,,0,722,,,,,,,,,,,,,,,,,D,181,triangle,1,0,,,,,,,,,,,,,,,,repeat,number,numRpt,k,0.5655,Hi,,,,,,2,,,,,,,,low,5,0,5,0,1,,,,,,,,,
298330,2022-12-04_23h48.28.984,vts_reward_expectancy_bt,2022.2.4,MacIntel,60.0024001,Chrome,1440,900,,,,,1,723,,,,,,,,,,,,,,,,,Y,174,circle,1,0,,,,,,,,,,,,,,,,repeat,number,numRpt,k,0.4631,Hi,,,,,,2,,,,,,,,low,6,0,6,0,1,,,,,,,,,
298330,2022-12-04_23h48.28.984,vts_reward_expectancy_bt,2022.2.4,MacIntel,60.0024001,Chrome,1440,900,,,,,1,724,,,,,,,,,,,,,,,,,B,167,hexagon,1,0,,,,,,,,,,,,,,,,repeat,number,numRpt,k,0.5649,Lo,,,,,,2,,,,,,,,low,7,0,7,0,1,,,,,,,,,
298330,2022-12-04_23h48.28.984,vts_reward_expectancy_bt,2022.2.4,MacIntel,60.0024001,Chrome,1440,900,,,,,10,734,,,,,,,,,,,,,,,,,W,139,star,1,0,,,,,,,,,,,,,,,,repeat,number,numRpt,j,0.3311,Lo,,,,,,2,,,,,,,,low,8,0,8,0,1,,,,,,,,,
298330,2022-12-04_23h48.28.984,vts_reward_expectancy_bt,2022.2.4,MacIntel,60.0024001,Chrome,1440,900,,,,,0,734,,,,,,,,,,,,,,,,,U,132,circle,0,0,,,,,,,,,,,,,,,,repeat,number,NA,k,0.3484,Lo,,,,,,2,,,,,,,,low,9,0,9,0,1,,,,,,,,,
298330,2022-12-04_23h48.28.984,vts_reward_expectancy_bt,2022.2.4,MacIntel,60.0024001,Chrome,1440,900,,,,,0,734,,,,,,,,,,,,,,,,,H,125,triangle,1,1,,,,,,,,,,,,,,,,repeat,number,numRpt,j,0.615,Hi,,,,,,2,,,,,,,,low,10,0,10,0,1,,,,,,,,,
298330,2022-12-04_23h48.28.984,vts_reward_expectancy_bt,2022.2.4,MacIntel,60.0024001,Chrome,1440,900,,,,,10,744,,,,,,,,,,,,,,,,,F,160,hexagon,1,0,,,,,,,,,,,,,,,,repeat,number,numRpt,k,0.3979,Lo,,,,,,2,,,,,,,,low,11,0,11,0,1,,,,,,,,,
298330,2022-12-04_23h48.28.984,vts_reward_expectancy_bt,2022.2.4,MacIntel,60.0024001,Chrome,1440,900,,,,,1,745,,,,,,,,,,,,,,,,,S,146,hexagon,1,0,,,,,,,,,,,,,,,,repeat,number,numRpt,j,0.5595,Lo,,,,,,2,,,,,,,,low,12,0,12,0,1,,,,,,,,,
298330,2022-12-04_23h48.28.984,vts_reward_expectancy_bt,2022.2.4,MacIntel,60.0024001,Chrome,1440,900,,,,,10,755,,,,,,,,,,,,,,,,,D,181,circle,1,0,,,,,,,,,,,,,,,,repeat,number,numRpt,k,0.46,Hi,,,,,,2,,,,,,,,low,13,0,13,0,1,,,,,,,,,
298330,2022-12-04_23h48.28.984,vts_reward_expectancy_bt,2022.2.4,MacIntel,60.0024001,Chrome,1440,900,,,,,0,755,,,,,,,,,,,,,,,,,Y,174,triangle,1,0,,,,,,,,,,,,,,,,repeat,number,numRpt,k,0.7314,Hi,,,,,,2,,,,,,,,low,14,0,14,0,1,,,,,,,,,
298330,2022-12-04_23h48.28.984,vts_reward_expectancy_bt,2022.2.4,MacIntel,60.0024001,Chrome,1440,900,,,,,10,765,,,,,,,,,,,,,,,,,B,167,star,1,0,,,,,,,,,,,,,,,,repeat,number,numRpt,k,0.4818,Lo,,,,,,2,,,,,,,,low,15,0,15,0,1,,,,,,,,,
298330,2022-12-04_23h48.28.984,vts_reward_expectancy_bt,2022.2.4,MacIntel,60.0024001,Chrome,1440,900,,,,,0,765,,,,,,,,,,,,,,,,,F,160,circle,1,0,,,,,,,,,,,,,,,,repeat,number,numRpt,k,0.6658,Hi,,,,,,2,,,,,,,,low,16,0,16,0,1,,,,,,,,,
298330,2022-12-04_23h48.28.984,vts_reward_expectancy_bt,2022.2.4,MacIntel,60.0024001,Chrome,1440,900,,,,,10,775,,,,,,,,,,,,,,,,,B,139,star,1,0,,,,,,,,,,,,,,,,repeat,number,numRpt,j,0.4758,Lo,,,,,,2,,,,,,,,low,17,0,17,0,1,,,,,,,,,
298330,2022-12-04_23h48.28.984,vts_reward_expectancy_bt,2022.2.4,MacIntel,60.0024001,Chrome,1440,900,,,,,1,776,,,,,,,,,,,,,,,,,S,132,hexagon,1,0,,,,,,,,,,,,,,,,repeat,number,numRpt,j,0.3313,Lo,,,,,,2,,,,,,,,low,18,0,18,0,1,,,,,,,,,
298330,2022-12-04_23h48.28.984,vts_reward_expectancy_bt,2022.2.4,MacIntel,60.0024001,Chrome,1440,900,,,,,0,776,,,,,,,,,,,,,,,,,U,125,triangle,0,0,,,,,,,,,,,,,,,,repeat,number,NA,k,0.3157,Lo,,,,,,2,,,,,,,,low,19,0,19,0,1,,,,,,,,,
298330,2022-12-04_23h48.28.984,vts_reward_expectancy_bt,2022.2.4,MacIntel,60.0024001,Chrome,1440,900,,,,,1,777,,,,,,,,,,,,,,,,,W,174,star,1,1,,,,,,,,,,,,,,,,repeat,number,numRpt,k,0.4981,Lo,,,,,,2,,,,,,,,low,20,0,20,0,1,,,,,,,,,
298330,2022-12-04_23h48.28.984,vts_reward_expectancy_bt,2022.2.4,MacIntel,60.0024001,Chrome,1440,900,,,,,1,778,,,,,,,,,,,,,,,,,Y,181,circle,1,0,,,,,,,,,,,,,,,,repeat,number,numRpt,k,0.4647,Hi,,,,,,2,,,,,,,,low,21,0,21,0,1,,,,,,,,,
298330,2022-12-04_23h48.28.984,vts_reward_expectancy_bt,2022.2.4,MacIntel,60.0024001,Chrome,1440,900,,,,,10,788,,,,,,,,,,,,,,,,,D,146,triangle,1,0,,,,,,,,,,,,,,,,repeat,number,numRpt,j,0.4972,Hi,,,,,,2,,,,,,,,low,22,0,22,0,1,,,,,,,,,
298330,2022-12-04_23h48.28.984,vts_reward_expectancy_bt,2022.2.4,MacIntel,60.0024001,Chrome,1440,900,,,,,10,798,,,,,,,,,,,,,,,,,H,167,hexagon,1,0,,,,,,,,,,,,,,,,repeat,number,numRpt,k,0.3937,Lo,,,,,,2,,,,,,,,low,23,0,23,0,1,,,,,,,,,
298330,2022-12-04_23h48.28.984,vts_reward_expectancy_bt,2022.2.4,MacIntel,60.0024001,Chrome,1440,900,,,,,10,808,,,,,,,,,,,,,,,,,H,132,star,1,0,,,,,,,,,,,,,,,,repeat,number,numRpt,j,0.499,Lo,,,,,,2,,,,,,,,low,24,0,24,0,1,,,,,,,,,
298330,2022-12-04_23h48.28.984,vts_reward_expectancy_bt,2022.2.4,MacIntel,60.0024001,Chrome,1440,900,,,,,0,808,,,,,,,,,,,,,,,,,B,146,circle,0,0,,,,,,,,,,,,,,,,repeat,number,NA,k,0.6145,Lo,,,,,,2,,,,,,,,low,25,0,25,0,1,,,,,,,,,
298330,2022-12-04_23h48.28.984,vts_reward_expectancy_bt,2022.2.4,MacIntel,60.0024001,Chrome,1440,900,,,,,1,809,,,,,,,,,,,,,,,,,W,160,hexagon,1,1,,,,,,,,,,,,,,,,repeat,number,numRpt,k,0.5814,Lo,,,,,,2,,,,,,,,low,26,0,26,0,1,,,,,,,,,
298330,2022-12-04_23h48.28.984,vts_reward_expectancy_bt,2022.2.4,MacIntel,60.0024001,Chrome,1440,900,,,,,1,810,,,,,,,,,,,,,,,,,U,167,triangle,1,0,,,,,,,,,,,,,,,,repeat,number,numRpt,k,0.4642,Hi,,,,,,2,,,,,,,,low,27,0,27,0,1,,,,,,,,,
298330,2022-12-04_23h48.28.984,vts_reward_expectancy_bt,2022.2.4,MacIntel,60.0024001,Chrome,1440,900,,,,,1,811,,,,,,,,,,,,,,,,,F,125,star,1,0,,,,,,,,,,,,,,,,repeat,number,numRpt,j,0.4141,Lo,,,,,,2,,,,,,,,low,28,0,28,0,1,,,,,,,,,
298330,2022-12-04_23h48.28.984,vts_reward_expectancy_bt,2022.2.4,MacIntel,60.0024001,Chrome,1440,900,,,,,0,811,,,,,,,,,,,,,,,,,D,139,triangle,1,0,,,,,,,,,,,,,,,,repeat,number,numRpt,j,0.5283,Hi,,,,,,2,,,,,,,,low,29,0,29,0,1,,,,,,,,,
298330,2022-12-04_23h48.28.984,vts_reward_expectancy_bt,2022.2.4,MacIntel,60.0024001,Chrome,1440,900,,,,,10,821,,,,,,,,,,,,,,,,,S,174,hexagon,1,0,,,,,,,,,,,,,,,,repeat,number,numRpt,k,0.4313,Lo,,,,,,2,,,,,,,,low,30,0,30,0,1,,,,,,,,,
298330,2022-12-04_23h48.28.984,vts_reward_expectancy_bt,2022.2.4,MacIntel,60.0024001,Chrome,1440,900,,,,,10,831,,,,,,,,,,,,,,,,,Y,181,circle,1,0,,,,,,,,,,,,,,,,repeat,number,numRpt,k,0.498,Hi,,,,,,2,,,,,,,,low,31,0,31,0,1,,,,,,,,,
298330,2022-12-04_23h48.28.984,vts_reward_expectancy_bt,2022.2.4,MacIntel,60.0024001,Chrome,1440,900,,,,,10,841,,,,,,,,,,,,,,,,,Y,139,hexagon,1,0,,,,,,,,,,,,,,,,repeat,number,numRpt,j,0.699,Lo,,,,,,3,,,,,,space,1.694,low,0,0,0,0,1,,,,,,,,,
298330,2022-12-04_23h48.28.984,vts_reward_expectancy_bt,2022.2.4,MacIntel,60.0024001,Chrome,1440,900,,,,,1,842,,,,,,,,,,,,,,,,,B,125,circle,1,0,,,,,,,,,,,,,,,,repeat,number,numRpt,j,0.4157,Hi,,,,,,3,,,,,,,,low,1,0,1,0,1,,,,,,,,,
298330,2022-12-04_23h48.28.984,vts_reward_expectancy_bt,2022.2.4,MacIntel,60.0024001,Chrome,1440,900,,,,,0,842,,,,,,,,,,,,,,,,,S,181,triangle,1,0,,,,,,,,,,,,,,,,repeat,number,numRpt,k,0.5322,Hi,,,,,,3,,,,,,,,low,2,0,2,0,1,,,,,,,,,
298330,2022-12-04_23h48.28.984,vts_reward_expectancy_bt,2022.2.4,MacIntel,60.0024001,Chrome,1440,900,,,,,1,843,,,,,,,,,,,,,,,,,D,167,star,1,0,,,,,,,,,,,,,,,,repeat,number,numRpt,k,0.3809,Lo,,,,,,3,,,,,,,,low,3,0,3,0,1,,,,,,,,,
298330,2022-12-04_23h48.28.984,vts_reward_expectancy_bt,2022.2.4,MacIntel,60.0024001,Chrome,1440,900,,,,,10,853,,,,,,,,,,,,,,,,,U,146,hexagon,1,0,,,,,,,,,,,,,,,,repeat,number,numRpt,j,0.4817,Lo,,,,,,3,,,,,,,,low,4,0,4,0,1,,,,,,,,,
298330,2022-12-04_23h48.28.984,vts_reward_expectancy_bt,2022.2.4,MacIntel,60.0024001,Chrome,1440,900,,,,,0,853,,,,,,,,,,,,,,,,,F,174,circle,1,0,,,,,,,,,,,,,,,,repeat,number,numRpt,k,0.5143,Hi,,,,,,3,,,,,,,,low,5,0,5,0,1,,,,,,,,,
298330,2022-12-04_23h48.28.984,vts_reward_expectancy_bt,2022.2.4,MacIntel,60.0024001,Chrome,1440,900,,,,,10,863,,,,,,,,,,,,,,,,,W,160,triangle,1,0,,,,,,,,,,,,,,,,repeat,number,numRpt,k,0.4485,Hi,,,,,,3,,,,,,,,low,6,0,6,0,1,,,,,,,,,
298330,2022-12-04_23h48.28.984,vts_reward_expectancy_bt,2022.2.4,MacIntel,60.0024001,Chrome,1440,900,,,,,1,864,,,,,,,,,,,,,,,,,H,132,star,1,0,,,,,,,,,,,,,,,,repeat,number,numRpt,j,0.4813,Lo,,,,,,3,,,,,,,,low,7,0,7,0,1,,,,,,,,,
298330,2022-12-04_23h48.28.984,vts_reward_expectancy_bt,2022.2.4,MacIntel,60.0024001,Chrome,1440,900,,,,,10,874,,,,,,,,,,,,,,,,,Y,139,hexagon,1,0,,,,,,,,,,,,,,,,repeat,number,numRpt,j,0.448,Lo,,,,,,3,,,,,,,,low,8,0,8,0,1,,,,,,,,,
298330,2022-12-04_23h48.28.984,vts_reward_expectancy_bt,2022.2.4,MacIntel,60.0024001,Chrome,1440,900,,,,,0,874,,,,,,,,,,,,,,,,,B,125,triangle,1,0,,,,,,,,,,,,,,,,repeat,number,numRpt,j,0.4974,Hi,,,,,,3,,,,,,,,low,9,0,9,0,1,,,,,,,,,
298330,2022-12-04_23h48.28.984,vts_reward_expectancy_bt,2022.2.4,MacIntel,60.0024001,Chrome,1440,900,,,,,0,874,,,,,,,,,,,,,,,,,S,181,circle,0,0,,,,,,,,,,,,,,,,repeat,number,NA,j,0.4659,Hi,,,,,,3,,,,,,,,low,10,0,10,0,1,,,,,,,,,
298330,2022-12-04_23h48.28.984,vts_reward_expectancy_bt,2022.2.4,MacIntel,60.0024001,Chrome,1440,900,,,,,1,875,,,,,,,,,,,,,,,,,D,167,star,1,1,,,,,,,,,,,,,,,,repeat,number,numRpt,k,0.6321,Lo,,,,,,3,,,,,,,,low,11,0,11,0,1,,,,,,,,,
298330,2022-12-04_23h48.28.984,vts_reward_expectancy_bt,2022.2.4,MacIntel,60.0024001,Chrome,1440,900,,,,,0,875,,,,,,,,,,,,,,,,,U,146,triangle,1,0,,,,,,,,,,,,,,,,repeat,number,numRpt,j,0.518,Hi,,,,,,3,,,,,,,,low,12,0,12,0,1,,,,,,,,,
298330,2022-12-04_23h48.28.984,vts_reward_expectancy_bt,2022.2.4,MacIntel,60.0024001,Chrome,1440,900,,,,,10,885,,,,,,,,,,,,,,,,,F,174,star,1,0,,,,,,,,,,,,,,,,repeat,number,numRpt,k,0.4147,Lo,,,,,,3,,,,,,,,low,13,0,13,0,1,,,,,,,,,
298330,2022-12-04_23h48.28.984,vts_reward_expectancy_bt,2022.2.4,MacIntel,60.0024001,Chrome,1440,900,,,,,0,885,,,,,,,,,,,,,,,,,W,160,circle,1,0,,,,,,,,,,,,,,,,repeat,number,numRpt,k,0.6139,Hi,,,,,,3,,,,,,,,low,14,0,14,0,1,,,,,,,,,
298330,2022-12-04_23h48.28.984,vts_reward_expectancy_bt,2022.2.4,MacIntel,60.0024001,Chrome,1440,900,,,,,10,895,,,,,,,,,,,,,,,,,H,132,hexagon,1,0,,,,,,,,,,,,,,,,repeat,number,numRpt,j,0.531,Lo,,,,,,3,,,,,,,,low,15,0,15,0,1,,,,,,,,,
298330,2022-12-04_23h48.28.984,vts_reward_expectancy_bt,2022.2.4,MacIntel,60.0024001,Chrome,1440,900,,,,,0,895,,,,,,,,,,,,,,,,,U,167,triangle,1,0,,,,,,,,,,,,,,,,repeat,number,numRpt,k,0.4815,Hi,,,,,,3,,,,,,,,low,16,0,16,0,1,,,,,,,,,
298330,2022-12-04_23h48.28.984,vts_reward_expectancy_bt,2022.2.4,MacIntel,60.0024001,Chrome,1440,900,,,,,1,896,,,,,,,,,,,,,,,,,H,160,hexagon,1,0,,,,,,,,,,,,,,,,repeat,number,numRpt,k,0.5309,Lo,,,,,,3,,,,,,,,low,17,0,17,0,1,,,,,,,,,
298330,2022-12-04_23h48.28.984,vts_reward_expectancy_bt,2022.2.4,MacIntel,60.0024001,Chrome,1440,900,,,,,0,896,,,,,,,,,,,,,,,,,S,146,star,0,0,,,,,,,,,,,,,,,,repeat,number,NA,k,0.4482,Lo,,,,,,3,,,,,,,,low,18,0,18,0,1,,,,,,,,,
298330,2022-12-04_23h48.28.984,vts_reward_expectancy_bt,2022.2.4,MacIntel,60.0024001,Chrome,1440,900,,,,,0,896,,,,,,,,,,,,,,,,,B,181,circle,1,1,,,,,,,,,,,,,,,,repeat,number,numRpt,k,0.4814,Hi,,,,,,3,,,,,,,,low,19,0,19,0,1,,,,,,,,,
298330,2022-12-04_23h48.28.984,vts_reward_expectancy_bt,2022.2.4,MacIntel,60.0024001,Chrome,1440,900,,,,,0,896,,,,,,,,,,,,,,,,,F,174,triangle,1,0,,,,,,,,,,,,,,,,repeat,number,numRpt,k,0.4658,Hi,,,,,,3,,,,,,,,low,20,0,20,0,1,,,,,,,,,
298330,2022-12-04_23h48.28.984,vts_reward_expectancy_bt,2022.2.4,MacIntel,60.0024001,Chrome,1440,900,,,,,0,896,,,,,,,,,,,,,,,,,D,139,star,0,0,,,,,,,,,,,,,,,,repeat,number,NA,k,0.4792,Hi,,,,,,3,,,,,,,,low,21,0,21,0,1,,,,,,,,,
298330,2022-12-04_23h48.28.984,vts_reward_expectancy_bt,2022.2.4,MacIntel,60.0024001,Chrome,1440,900,,,,,1,897,,,,,,,,,,,,,,,,,W,125,circle,1,1,,,,,,,,,,,,,,,,repeat,number,numRpt,j,0.3655,Hi,,,,,,3,,,,,,,,low,22,0,22,0,1,,,,,,,,,
298330,2022-12-04_23h48.28.984,vts_reward_expectancy_bt,2022.2.4,MacIntel,60.0024001,Chrome,1440,900,,,,,0,897,,,,,,,,,,,,,,,,,Y,132,hexagon,0,0,,,,,,,,,,,,,,,,repeat,number,NA,k,0.4146,Hi,,,,,,3,,,,,,,,low,23,0,23,0,1,,,,,,,,,
298330,2022-12-04_23h48.28.984,vts_reward_expectancy_bt,2022.2.4,MacIntel,60.0024001,Chrome,1440,900,,,,,0,897,,,,,,,,,,,,,,,,,S,125,circle,1,1,,,,,,,,,,,,,,,,repeat,number,numRpt,j,0.9614,Hi,,,,,,3,,,,,,,,low,24,0,24,0,1,,,,,,,,,
298330,2022-12-04_23h48.28.984,vts_reward_expectancy_bt,2022.2.4,MacIntel,60.0024001,Chrome,1440,900,,,,,1,898,,,,,,,,,,,,,,,,,W,167,hexagon,1,0,,,,,,,,,,,,,,,,repeat,number,numRpt,k,0.4672,Lo,,,,,,3,,,,,,,,low,25,0,25,0,1,,,,,,,,,
298330,2022-12-04_23h48.28.984,vts_reward_expectancy_bt,2022.2.4,MacIntel,60.0024001,Chrome,1440,900,,,,,10,908,,,,,,,,,,,,,,,,,U,174,triangle,1,0,,,,,,,,,,,,,,,,repeat,number,numRpt,k,0.4321,Hi,,,,,,3,,,,,,,,low,26,0,26,0,1,,,,,,,,,
298330,2022-12-04_23h48.28.984,vts_reward_expectancy_bt,2022.2.4,MacIntel,60.0024001,Chrome,1440,900,,,,,10,918,,,,,,,,,,,,,,,,,Y,181,star,1,0,,,,,,,,,,,,,,,,repeat,number,numRpt,k,0.5643,Lo,,,,,,3,,,,,,,,low,27,0,27,0,1,,,,,,,,,
298330,2022-12-04_23h48.28.984,vts_reward_expectancy_bt,2022.2.4,MacIntel,60.0024001,Chrome,1440,900,,,,,0,918,,,,,,,,,,,,,,,,,B,146,star,0,0,,,,,,,,,,,,,,,,repeat,number,NA,k,0.4149,Lo,,,,,,3,,,,,,,,low,28,0,28,0,1,,,,,,,,,
298330,2022-12-04_23h48.28.984,vts_reward_expectancy_bt,2022.2.4,MacIntel,60.0024001,Chrome,1440,900,,,,,1,919,,,,,,,,,,,,,,,,,H,132,hexagon,1,1,,,,,,,,,,,,,,,,repeat,number,numRpt,j,0.5644,Lo,,,,,,3,,,,,,,,low,29,0,29,0,1,,,,,,,,,
298330,2022-12-04_23h48.28.984,vts_reward_expectancy_bt,2022.2.4,MacIntel,60.0024001,Chrome,1440,900,,,,,0,919,,,,,,,,,,,,,,,,,F,160,circle,1,0,,,,,,,,,,,,,,,,repeat,number,numRpt,k,0.4655,Hi,,,,,,3,,,,,,,,low,30,0,30,0,1,,,,,,,,,
298330,2022-12-04_23h48.28.984,vts_reward_expectancy_bt,2022.2.4,MacIntel,60.0024001,Chrome,1440,900,,,,,0,919,,,,,,,,,,,,,,,,,D,139,triangle,1,0,,,,,,,,,,,,,,,,repeat,number,numRpt,j,0.5304,Hi,,,,,,3,,,,,,,,low,31,0,31,0,1,,,,,,,,,
298330,2022-12-04_23h48.28.984,vts_reward_expectancy_bt,2022.2.4,MacIntel,60.0024001,Chrome,1440,900,,,,,0,919,,,,,,,,,,,,,,,,,S,160,circle,1,0,,,,,,,,,,,,,,,,repeat,number,numRpt,k,0.565,Hi,,,,,,4,,,,,,space,1.3966,low,0,0,0,0,1,,,,,,,,,
298330,2022-12-04_23h48.28.984,vts_reward_expectancy_bt,2022.2.4,MacIntel,60.0024001,Chrome,1440,900,,,,,0,919,,,,,,,,,,,,,,,,,F,181,hexagon,0,0,,,,,,,,,,,,,,,,repeat,number,NA,j,0.3338,Hi,,,,,,4,,,,,,,,low,1,0,1,0,1,,,,,,,,,
298330,2022-12-04_23h48.28.984,vts_reward_expectancy_bt,2022.2.4,MacIntel,60.0024001,Chrome,1440,900,,,,,1,920,,,,,,,,,,,,,,,,,W,125,triangle,1,1,,,,,,,,,,,,,,,,repeat,number,numRpt,j,0.4468,Hi,,,,,,4,,,,,,,,low,2,0,2,0,1,,,,,,,,,
298330,2022-12-04_23h48.28.984,vts_reward_expectancy_bt,2022.2.4,MacIntel,60.0024001,Chrome,1440,900,,,,,10,930,,,,,,,,,,,,,,,,,H,139,star,1,0,,,,,,,,,,,,,,,,repeat,number,numRpt,j,0.4651,Lo,,,,,,4,,,,,,,,low,3,0,3,0,1,,,,,,,,,
298330,2022-12-04_23h48.28.984,vts_reward_expectancy_bt,2022.2.4,MacIntel,60.0024001,Chrome,1440,900,,,,,0,930,,,,,,,,,,,,,,,,,U,146,circle,1,0,,,,,,,,,,,,,,,,repeat,number,numRpt,j,0.5485,Hi,,,,,,4,,,,,,,,low,4,0,4,0,1,,,,,,,,,
298330,2022-12-04_23h48.28.984,vts_reward_expectancy_bt,2022.2.4,MacIntel,60.0024001,Chrome,1440,900,,,,,1,931,,,,,,,,,,,,,,,,,D,167,hexagon,1,0,,,,,,,,,,,,,,,,repeat,number,numRpt,k,0.5963,Lo,,,,,,4,,,,,,,,low,5,0,5,0,1,,,,,,,,,
298330,2022-12-04_23h48.28.984,vts_reward_expectancy_bt,2022.2.4,MacIntel,60.0024001,Chrome,1440,900,,,,,10,941,,,,,,,,,,,,,,,,,B,132,triangle,1,0,,,,,,,,,,,,,,,,repeat,number,numRpt,j,0.3621,Hi,,,,,,4,,,,,,,,low,6,0,6,0,1,,,,,,,,,
298330,2022-12-04_23h48.28.984,vts_reward_expectancy_bt,2022.2.4,MacIntel,60.0024001,Chrome,1440,900,,,,,1,942,,,,,,,,,,,,,,,,,Y,174,star,1,0,,,,,,,,,,,,,,,,repeat,number,numRpt,k,0.4309,Lo,,,,,,4,,,,,,,,low,7,0,7,0,1,,,,,,,,,
298330,2022-12-04_23h48.28.984,vts_reward_expectancy_bt,2022.2.4,MacIntel,60.0024001,Chrome,1440,900,,,,,0,942,,,,,,,,,,,,,,,,,S,160,circle,1,0,,,,,,,,,,,,,,,,repeat,number,numRpt,k,0.5146,Hi,,,,,,4,,,,,,,,low,8,0,8,0,1,,,,,,,,,
298330,2022-12-04_23h48.28.984,vts_reward_expectancy_bt,2022.2.4,MacIntel,60.0024001,Chrome,1440,900,,,,,0,942,,,,,,,,,,,,,,,,,F,181,triangle,1,0,,,,,,,,,,,,,,,,repeat,number,numRpt,k,0.5146,Hi,,,,,,4,,,,,,,,low,9,0,9,0,1,,,,,,,,,
298330,2022-12-04_23h48.28.984,vts_reward_expectancy_bt,2022.2.4,MacIntel,60.0024001,Chrome,1440,900,,,,,1,943,,,,,,,,,,,,,,,,,W,125,star,1,0,,,,,,,,,,,,,,,,repeat,number,numRpt,j,0.4819,Lo,,,,,,4,,,,,,,,low,10,0,10,0,1,,,,,,,,,
298330,2022-12-04_23h48.28.984,vts_reward_expectancy_bt,2022.2.4,MacIntel,60.0024001,Chrome,1440,900,,,,,1,944,,,,,,,,,,,,,,,,,H,139,hexagon,1,0,,,,,,,,,,,,,,,,repeat,number,numRpt,j,0.4804,Lo,,,,,,4,,,,,,,,low,11,0,11,0,1,,,,,,,,,
298330,2022-12-04_23h48.28.984,vts_reward_expectancy_bt,2022.2.4,MacIntel,60.0024001,Chrome,1440,900,,,,,0,944,,,,,,,,,,,,,,,,,U,146,star,0,0,,,,,,,,,,,,,,,,repeat,number,NA,k,0.4636,Lo,,,,,,4,,,,,,,,low,12,0,12,0,1,,,,,,,,,
298330,2022-12-04_23h48.28.984,vts_reward_expectancy_bt,2022.2.4,MacIntel,60.0024001,Chrome,1440,900,,,,,0,944,,,,,,,,,,,,,,,,,D,167,circle,1,1,,,,,,,,,,,,,,,,repeat,number,numRpt,k,0.4768,Hi,,,,,,4,,,,,,,,low,13,0,13,0,1,,,,,,,,,
298330,2022-12-04_23h48.28.984,vts_reward_expectancy_bt,2022.2.4,MacIntel,60.0024001,Chrome,1440,900,,,,,10,954,,,,,,,,,,,,,,,,,B,132,hexagon,1,0,,,,,,,,,,,,,,,,repeat,number,numRpt,j,0.484,Lo,,,,,,4,,,,,,,,low,14,0,14,0,1,,,,,,,,,
298330,2022-12-04_23h48.28.984,vts_reward_expectancy_bt,2022.2.4,MacIntel,60.0024001,Chrome,1440,900,,,,,0,954,,,,,,,,,,,,,,,,,Y,174,triangle,1,0,,,,,,,,,,,,,,,,repeat,number,numRpt,k,0.5274,Hi,,,,,,4,,,,,,,,low,15,0,15,0,1,,,,,,,,,
298330,2022-12-04_23h48.28.984,vts_reward_expectancy_bt,2022.2.4,MacIntel,60.0024001,Chrome,1440,900,,,,,10,964,,,,,,,,,,,,,,,,,D,139,hexagon,1,0,,,,,,,,,,,,,,,,repeat,number,numRpt,j,0.5311,Lo,,,,,,4,,,,,,,,low,16,0,16,0,1,,,,,,,,,
298330,2022-12-04_23h48.28.984,vts_reward_expectancy_bt,2022.2.4,MacIntel,60.0024001,Chrome,1440,900,,,,,0,964,,,,,,,,,,,,,,,,,W,146,triangle,0,0,,,,,,,,,,,,,,,,repeat,number,NA,k,0.6317,Lo,,,,,,4,,,,,,,,low,17,0,17,0,1,,,,,,,,,
298330,2022-12-04_23h48.28.984,vts_reward_expectancy_bt,2022.2.4,MacIntel,60.0024001,Chrome,1440,900,,,,,0,964,,,,,,,,,,,,,,,,,Y,174,star,0,1,,,,,,,,,,,,,,,,repeat,number,NA,j,0.3632,Lo,,,,,,4,,,,,,,,low,18,0,18,0,1,,,,,,,,,
298330,2022-12-04_23h48.28.984,vts_reward_expectancy_bt,2022.2.4,MacIntel,60.0024001,Chrome,1440,900,,,,,0,964,,,,,,,,,,,,,,,,,H,167,circle,1,1,,,,,,,,,,,,,,,,repeat,number,numRpt,k,0.577,Hi,,,,,,4,,,,,,,,low,19,0,19,0,1,,,,,,,,,
298330,2022-12-04_23h48.28.984,vts_reward_expectancy_bt,2022.2.4,MacIntel,60.0024001,Chrome,1440,900,,,,,1,965,,,,,,,,,,,,,,,,,F,125,star,1,0,,,,,,,,,,,,,,,,repeat,number,numRpt,j,0.3971,Lo,,,,,,4,,,,,,,,low,20,0,20,0,1,,,,,,,,,
298330,2022-12-04_23h48.28.984,vts_reward_expectancy_bt,2022.2.4,MacIntel,60.0024001,Chrome,1440,900,,,,,1,966,,,,,,,,,,,,,,,,,S,160,hexagon,1,0,,,,,,,,,,,,,,,,repeat,number,numRpt,k,0.3327,Lo,,,,,,4,,,,,,,,low,21,0,21,0,1,,,,,,,,,
298330,2022-12-04_23h48.28.984,vts_reward_expectancy_bt,2022.2.4,MacIntel,60.0024001,Chrome,1440,900,,,,,10,976,,,,,,,,,,,,,,,,,U,132,circle,1,0,,,,,,,,,,,,,,,,repeat,number,numRpt,j,0.2601,Hi,,,,,,4,,,,,,,,low,22,0,22,0,1,,,,,,,,,
298330,2022-12-04_23h48.28.984,vts_reward_expectancy_bt,2022.2.4,MacIntel,60.0024001,Chrome,1440,900,,,,,10,986,,,,,,,,,,,,,,,,,B,181,triangle,1,0,,,,,,,,,,,,,,,,repeat,number,numRpt,k,0.3814,Hi,,,,,,4,,,,,,,,low,23,0,23,0,1,,,,,,,,,
298330,2022-12-04_23h48.28.984,vts_reward_expectancy_bt,2022.2.4,MacIntel,60.0024001,Chrome,1440,900,,,,,0,986,,,,,,,,,,,,,,,,,W,160,hexagon,0,0,,,,,,,,,,,,,,,,repeat,number,NA,j,0.4151,Hi,,,,,,4,,,,,,,,low,24,0,24,0,1,,,,,,,,,
298330,2022-12-04_23h48.28.984,vts_reward_expectancy_bt,2022.2.4,MacIntel,60.0024001,Chrome,1440,900,,,,,0,986,,,,,,,,,,,,,,,,,B,167,triangle,0,1,,,,,,,,,,,,,,,,repeat,number,NA,j,0.3507,Hi,,,,,,4,,,,,,,,low,25,0,25,0,1,,,,,,,,,
298330,2022-12-04_23h48.28.984,vts_reward_expectancy_bt,2022.2.4,MacIntel,60.0024001,Chrome,1440,900,,,,,0,986,,,,,,,,,,,,,,,,,F,181,circle,1,1,,,,,,,,,,,,,,,,repeat,number,numRpt,k,0.5979,Hi,,,,,,4,,,,,,,,low,26,0,26,0,1,,,,,,,,,
298330,2022-12-04_23h48.28.984,vts_reward_expectancy_bt,2022.2.4,MacIntel,60.0024001,Chrome,1440,900,,,,,1,987,,,,,,,,,,,,,,,,,D,125,star,1,0,,,,,,,,,,,,,,,,repeat,number,numRpt,j,0.3986,Lo,,,,,,4,,,,,,,,low,27,0,27,0,1,,,,,,,,,
298330,2022-12-04_23h48.28.984,vts_reward_expectancy_bt,2022.2.4,MacIntel,60.0024001,Chrome,1440,900,,,,,10,997,,,,,,,,,,,,,,,,,H,132,hexagon,1,0,,,,,,,,,,,,,,,,repeat,number,numRpt,j,0.38,Lo,,,,,,4,,,,,,,,low,28,0,28,0,1,,,,,,,,,
