participant,date,expName,psychopyVersion,OS,frameRate,browser,xResolution,yResolution,key_resp.keys,key_resp.rt,training_resp.keys,training_resp.rt,points_trial,points_cumul,trainBlock,training.thisRepN,training.thisTrialN,training.thisN,training.thisIndex,training.ran,LTriangleOpac,LCircleOpac,LHexagonOpac,LStarOpac,RTriangleOpac,RCircleOpac,RHexagonOpac,RStarOpac,LShape_ID,RShape_ID,curr_topStim,curr_bottStim,curr_shape,acc,E1,target_resp_prac1.keys,target_resp_prac1.rt,pracBlock,task1_prac_trials.thisRepN,task1_prac_trials.thisTrialN,task1_prac_trials.thisN,task1_prac_trials.thisIndex,task1_prac_trials.ran,target_resp_prac2.keys,target_resp_prac2.rt,task2_praac_trials.thisRepN,task2_praac_trials.thisTrialN,task2_praac_trials.thisN,task2_praac_trials.thisIndex,task2_praac_trials.ran,alt,task,condition,target_resp.keys,target_resp.rt,rewCond,vts_practice_trials.thisRepN,vts_practice_trials.thisTrialN,vts_practice_trials.thisN,vts_practice_trials.thisIndex,vts_practice_trials.ran,blockNum,trials_norew.thisRepN,trials_norew.thisTrialN,trials_norew.thisN,trials_norew.thisIndex,trials_norew.ran,key_resp_2.keys,key_resp_2.rt,rewExpectancy,trials_rew.thisRepN,trials_rew.thisTrialN,trials_rew.thisN,trials_rew.thisIndex,trials_rew.ran,Q1,Q2,Q2_text,Q3,Q4,Q5_text,Q5,xRes,yRes
298300,2022-12-07_14h13.11.401,vts_reward_expectancy_bt,2022.2.4,Win32,59.74786401,Chrome,1383,864,,,,,,,,,,,,,,,,,,,,,,,,,,,,,,,,,,,,,,,,,,,,,,,,,,,,,,,,,,,,,,,,,,,,,,,,,,,,
298300,2022-12-07_14h13.11.401,vts_reward_expectancy_bt,2022.2.4,Win32,59.74786401,Chrome,1383,864,space,0.8216,,,,,,,,,,,,,,,,,,,,,,,,,,,,,,,,,,,,,,,,,,,,,,,,,,,,,,,,,,,,,,,,,,,,,,,,,,
298300,2022-12-07_14h13.11.401,vts_reward_expectancy_bt,2022.2.4,Win32,59.74786401,Chrome,1383,864,,,,,,,,,,,,,,,,,,,,,,,,,,,,,,,,,,,,,,,,,,,,,,,,,,,,,,,,,,,,,,,,,,,,,,,,,,,,
298300,2022-12-07_14h13.11.401,vts_reward_expectancy_bt,2022.2.4,Win32,59.74786401,Chrome,1383,864,,,l,1.6389,10,10,0,0,0,0,0,1,1,0,0,0,0,1,0,0,triangle,circle,,,,,,,,,,,,,,,,,,,,,,,,,,,,,,,,,,,,,,,,,,,,,,,,,,,,,,
298300,2022-12-07_14h13.11.401,vts_reward_expectancy_bt,2022.2.4,Win32,59.74786401,Chrome,1383,864,,,l,0.1007,10,20,0,0,1,1,4,1,0,1,0,0,0,0,1,0,circle,hexagon,,,,,,,,,,,,,,,,,,,,,,,,,,,,,,,,,,,,,,,,,,,,,,,,,,,,,,
298300,2022-12-07_14h13.11.401,vts_reward_expectancy_bt,2022.2.4,Win32,59.74786401,Chrome,1383,864,,,l,0.0927,10,30,0,0,2,2,9,1,0,0,0,1,1,0,0,0,star,triangle,,,,,,,,,,,,,,,,,,,,,,,,,,,,,,,,,,,,,,,,,,,,,,,,,,,,,,
298300,2022-12-07_14h13.11.401,vts_reward_expectancy_bt,2022.2.4,Win32,59.74786401,Chrome,1383,864,,,l,0.0008,10,40,0,0,3,3,5,1,0,1,0,0,0,0,0,1,circle,star,,,,,,,,,,,,,,,,,,,,,,,,,,,,,,,,,,,,,,,,,,,,,,,,,,,,,,
298300,2022-12-07_14h13.11.401,vts_reward_expectancy_bt,2022.2.4,Win32,59.74786401,Chrome,1383,864,,,l,0.1395,10,50,0,0,4,4,1,1,1,0,0,0,0,0,1,0,triangle,hexagon,,,,,,,,,,,,,,,,,,,,,,,,,,,,,,,,,,,,,,,,,,,,,,,,,,,,,,
298300,2022-12-07_14h13.11.401,vts_reward_expectancy_bt,2022.2.4,Win32,59.74786401,Chrome,1383,864,,,l,0.001,10,60,0,0,5,5,2,1,1,0,0,0,0,0,0,1,triangle,star,,,,,,,,,,,,,,,,,,,,,,,,,,,,,,,,,,,,,,,,,,,,,,,,,,,,,,
298300,2022-12-07_14h13.11.401,vts_reward_expectancy_bt,2022.2.4,Win32,59.74786401,Chrome,1383,864,,,l,0.0513,10,70,0,0,6,6,11,1,0,0,0,1,0,0,1,0,star,hexagon,,,,,,,,,,,,,,,,,,,,,,,,,,,,,,,,,,,,,,,,,,,,,,,,,,,,,,
298300,2022-12-07_14h13.11.401,vts_reward_expectancy_bt,2022.2.4,Win32,59.74786401,Chrome,1383,864,,,l,0.1004,10,80,0,0,7,7,8,1,0,0,1,0,0,0,0,1,hexagon,star,,,,,,,,,,,,,,,,,,,,,,,,,,,,,,,,,,,,,,,,,,,,,,,,,,,,,,
298300,2022-12-07_14h13.11.401,vts_reward_expectancy_bt,2022.2.4,Win32,59.74786401,Chrome,1383,864,,,l,0.2322,1,81,0,0,8,8,10,1,0,0,0,1,0,1,0,0,star ,circle,,,,,,,,,,,,,,,,,,,,,,,,,,,,,,,,,,,,,,,,,,,,,,,,,,,,,,
298300,2022-12-07_14h13.11.401,vts_reward_expectancy_bt,2022.2.4,Win32,59.74786401,Chrome,1383,864,,,l,0.2698,1,82,0,0,9,9,6,1,0,0,1,0,1,0,0,0,hexagon,triangle,,,,,,,,,,,,,,,,,,,,,,,,,,,,,,,,,,,,,,,,,,,,,,,,,,,,,,
298300,2022-12-07_14h13.11.401,vts_reward_expectancy_bt,2022.2.4,Win32,59.74786401,Chrome,1383,864,,,l,0.1099,1,83,0,0,10,10,3,1,0,1,0,0,1,0,0,0,circle,triangle,,,,,,,,,,,,,,,,,,,,,,,,,,,,,,,,,,,,,,,,,,,,,,,,,,,,,,
298300,2022-12-07_14h13.11.401,vts_reward_expectancy_bt,2022.2.4,Win32,59.74786401,Chrome,1383,864,,,l,0.1344,1,84,0,0,11,11,7,1,0,0,1,0,0,1,0,0,hexagon,circle,,,,,,,,,,,,,,,,,,,,,,,,,,,,,,,,,,,,,,,,,,,,,,,,,,,,,,
298300,2022-12-07_14h13.11.401,vts_reward_expectancy_bt,2022.2.4,Win32,59.74786401,Chrome,1383,864,,,a,0.2674,1,85,0,1,0,12,5,1,0,1,0,0,0,0,0,1,circle,star,,,,,,,,,,,,,,,,,,,,,,,,,,,,,,,,,,,,,,,,,,,,,,,,,,,,,,
298300,2022-12-07_14h13.11.401,vts_reward_expectancy_bt,2022.2.4,Win32,59.74786401,Chrome,1383,864,,,a,0.234,1,86,0,1,1,13,4,1,0,1,0,0,0,0,1,0,circle,hexagon,,,,,,,,,,,,,,,,,,,,,,,,,,,,,,,,,,,,,,,,,,,,,,,,,,,,,,
298300,2022-12-07_14h13.11.401,vts_reward_expectancy_bt,2022.2.4,Win32,59.74786401,Chrome,1383,864,,,a,0.2661,10,96,0,1,2,14,9,1,0,0,0,1,1,0,0,0,star,triangle,,,,,,,,,,,,,,,,,,,,,,,,,,,,,,,,,,,,,,,,,,,,,,,,,,,,,,
298300,2022-12-07_14h13.11.401,vts_reward_expectancy_bt,2022.2.4,Win32,59.74786401,Chrome,1383,864,,,a,0.2389,1,97,0,1,3,15,1,1,1,0,0,0,0,0,1,0,triangle,hexagon,,,,,,,,,,,,,,,,,,,,,,,,,,,,,,,,,,,,,,,,,,,,,,,,,,,,,,
298300,2022-12-07_14h13.11.401,vts_reward_expectancy_bt,2022.2.4,Win32,59.74786401,Chrome,1383,864,,,l,0.0008,10,107,0,1,4,16,8,1,0,0,1,0,0,0,0,1,hexagon,star,,,,,,,,,,,,,,,,,,,,,,,,,,,,,,,,,,,,,,,,,,,,,,,,,,,,,,
298300,2022-12-07_14h13.11.401,vts_reward_expectancy_bt,2022.2.4,Win32,59.74786401,Chrome,1383,864,,,l,0.2656,1,108,0,1,5,17,3,1,0,1,0,0,1,0,0,0,circle,triangle,,,,,,,,,,,,,,,,,,,,,,,,,,,,,,,,,,,,,,,,,,,,,,,,,,,,,,
298300,2022-12-07_14h13.11.401,vts_reward_expectancy_bt,2022.2.4,Win32,59.74786401,Chrome,1383,864,,,a,0.0159,1,109,0,1,6,18,10,1,0,0,0,1,0,1,0,0,star ,circle,,,,,,,,,,,,,,,,,,,,,,,,,,,,,,,,,,,,,,,,,,,,,,,,,,,,,,
298300,2022-12-07_14h13.11.401,vts_reward_expectancy_bt,2022.2.4,Win32,59.74786401,Chrome,1383,864,,,a,0.4507,10,119,0,1,7,19,6,1,0,0,1,0,1,0,0,0,hexagon,triangle,,,,,,,,,,,,,,,,,,,,,,,,,,,,,,,,,,,,,,,,,,,,,,,,,,,,,,
298300,2022-12-07_14h13.11.401,vts_reward_expectancy_bt,2022.2.4,Win32,59.74786401,Chrome,1383,864,,,l,0.5568,1,120,0,1,8,20,7,1,0,0,1,0,0,1,0,0,hexagon,circle,,,,,,,,,,,,,,,,,,,,,,,,,,,,,,,,,,,,,,,,,,,,,,,,,,,,,,
298300,2022-12-07_14h13.11.401,vts_reward_expectancy_bt,2022.2.4,Win32,59.74786401,Chrome,1383,864,,,l,0.2919,1,121,0,1,9,21,2,1,1,0,0,0,0,0,0,1,triangle,star,,,,,,,,,,,,,,,,,,,,,,,,,,,,,,,,,,,,,,,,,,,,,,,,,,,,,,
298300,2022-12-07_14h13.11.401,vts_reward_expectancy_bt,2022.2.4,Win32,59.74786401,Chrome,1383,864,,,a,0.1001,1,122,0,1,10,22,0,1,1,0,0,0,0,1,0,0,triangle,circle,,,,,,,,,,,,,,,,,,,,,,,,,,,,,,,,,,,,,,,,,,,,,,,,,,,,,,
298300,2022-12-07_14h13.11.401,vts_reward_expectancy_bt,2022.2.4,Win32,59.74786401,Chrome,1383,864,,,a,0.1188,1,123,0,1,11,23,11,1,0,0,0,1,0,0,1,0,star,hexagon,,,,,,,,,,,,,,,,,,,,,,,,,,,,,,,,,,,,,,,,,,,,,,,,,,,,,,
298300,2022-12-07_14h13.11.401,vts_reward_expectancy_bt,2022.2.4,Win32,59.74786401,Chrome,1383,864,,,l,0.001,10,133,0,2,0,24,0,1,1,0,0,0,0,1,0,0,triangle,circle,,,,,,,,,,,,,,,,,,,,,,,,,,,,,,,,,,,,,,,,,,,,,,,,,,,,,,
298300,2022-12-07_14h13.11.401,vts_reward_expectancy_bt,2022.2.4,Win32,59.74786401,Chrome,1383,864,,,a,0.0246,10,143,0,2,1,25,6,1,0,0,1,0,1,0,0,0,hexagon,triangle,,,,,,,,,,,,,,,,,,,,,,,,,,,,,,,,,,,,,,,,,,,,,,,,,,,,,,
298300,2022-12-07_14h13.11.401,vts_reward_expectancy_bt,2022.2.4,Win32,59.74786401,Chrome,1383,864,,,l,0.0347,10,153,0,2,2,26,10,1,0,0,0,1,0,1,0,0,star ,circle,,,,,,,,,,,,,,,,,,,,,,,,,,,,,,,,,,,,,,,,,,,,,,,,,,,,,,
298300,2022-12-07_14h13.11.401,vts_reward_expectancy_bt,2022.2.4,Win32,59.74786401,Chrome,1383,864,,,l,0.0252,10,163,0,2,3,27,1,1,1,0,0,0,0,0,1,0,triangle,hexagon,,,,,,,,,,,,,,,,,,,,,,,,,,,,,,,,,,,,,,,,,,,,,,,,,,,,,,
298300,2022-12-07_14h13.11.401,vts_reward_expectancy_bt,2022.2.4,Win32,59.74786401,Chrome,1383,864,,,l,0.0008,1,164,0,2,4,28,4,1,0,1,0,0,0,0,1,0,circle,hexagon,,,,,,,,,,,,,,,,,,,,,,,,,,,,,,,,,,,,,,,,,,,,,,,,,,,,,,
298300,2022-12-07_14h13.11.401,vts_reward_expectancy_bt,2022.2.4,Win32,59.74786401,Chrome,1383,864,,,l,0.0179,1,165,0,2,5,29,9,1,0,0,0,1,1,0,0,0,star,triangle,,,,,,,,,,,,,,,,,,,,,,,,,,,,,,,,,,,,,,,,,,,,,,,,,,,,,,
298300,2022-12-07_14h13.11.401,vts_reward_expectancy_bt,2022.2.4,Win32,59.74786401,Chrome,1383,864,,,a,0.0362,1,166,0,2,6,30,7,1,0,0,1,0,0,1,0,0,hexagon,circle,,,,,,,,,,,,,,,,,,,,,,,,,,,,,,,,,,,,,,,,,,,,,,,,,,,,,,
298300,2022-12-07_14h13.11.401,vts_reward_expectancy_bt,2022.2.4,Win32,59.74786401,Chrome,1383,864,,,l,0.0772,10,176,0,2,7,31,8,1,0,0,1,0,0,0,0,1,hexagon,star,,,,,,,,,,,,,,,,,,,,,,,,,,,,,,,,,,,,,,,,,,,,,,,,,,,,,,
298300,2022-12-07_14h13.11.401,vts_reward_expectancy_bt,2022.2.4,Win32,59.74786401,Chrome,1383,864,,,a,0.1157,1,177,0,2,8,32,2,1,1,0,0,0,0,0,0,1,triangle,star,,,,,,,,,,,,,,,,,,,,,,,,,,,,,,,,,,,,,,,,,,,,,,,,,,,,,,
298300,2022-12-07_14h13.11.401,vts_reward_expectancy_bt,2022.2.4,Win32,59.74786401,Chrome,1383,864,,,l,0.1919,1,178,0,2,9,33,5,1,0,1,0,0,0,0,0,1,circle,star,,,,,,,,,,,,,,,,,,,,,,,,,,,,,,,,,,,,,,,,,,,,,,,,,,,,,,
298300,2022-12-07_14h13.11.401,vts_reward_expectancy_bt,2022.2.4,Win32,59.74786401,Chrome,1383,864,,,l,0.2003,10,188,0,2,10,34,11,1,0,0,0,1,0,0,1,0,star,hexagon,,,,,,,,,,,,,,,,,,,,,,,,,,,,,,,,,,,,,,,,,,,,,,,,,,,,,,
298300,2022-12-07_14h13.11.401,vts_reward_expectancy_bt,2022.2.4,Win32,59.74786401,Chrome,1383,864,,,l,0.1648,10,198,0,2,11,35,3,1,0,1,0,0,1,0,0,0,circle,triangle,,,,,,,,,,,,,,,,,,,,,,,,,,,,,,,,,,,,,,,,,,,,,,,,,,,,,,
298300,2022-12-07_14h13.11.401,vts_reward_expectancy_bt,2022.2.4,Win32,59.74786401,Chrome,1383,864,,,l,1.2557,1,199,1,0,0,0,1,1,1,0,0,0,0,0,1,0,triangle,hexagon,,,,,,,,,,,,,,,,,,,,,,,,,,,,,,,,,,,,,,,,,,,,,,,,,,,,,,
298300,2022-12-07_14h13.11.401,vts_reward_expectancy_bt,2022.2.4,Win32,59.74786401,Chrome,1383,864,,,a,0.2642,10,209,1,0,1,1,7,1,0,0,1,0,0,1,0,0,hexagon,circle,,,,,,,,,,,,,,,,,,,,,,,,,,,,,,,,,,,,,,,,,,,,,,,,,,,,,,
298300,2022-12-07_14h13.11.401,vts_reward_expectancy_bt,2022.2.4,Win32,59.74786401,Chrome,1383,864,,,a,0.1345,10,219,1,0,2,2,11,1,0,0,0,1,0,0,1,0,star,hexagon,,,,,,,,,,,,,,,,,,,,,,,,,,,,,,,,,,,,,,,,,,,,,,,,,,,,,,
298300,2022-12-07_14h13.11.401,vts_reward_expectancy_bt,2022.2.4,Win32,59.74786401,Chrome,1383,864,,,a,0.0114,10,229,1,0,3,3,9,1,0,0,0,1,1,0,0,0,star,triangle,,,,,,,,,,,,,,,,,,,,,,,,,,,,,,,,,,,,,,,,,,,,,,,,,,,,,,
298300,2022-12-07_14h13.11.401,vts_reward_expectancy_bt,2022.2.4,Win32,59.74786401,Chrome,1383,864,,,a,0.0007,10,239,1,0,4,4,3,1,0,1,0,0,1,0,0,0,circle,triangle,,,,,,,,,,,,,,,,,,,,,,,,,,,,,,,,,,,,,,,,,,,,,,,,,,,,,,
298300,2022-12-07_14h13.11.401,vts_reward_expectancy_bt,2022.2.4,Win32,59.74786401,Chrome,1383,864,,,a,0.1846,10,249,1,0,5,5,8,1,0,0,1,0,0,0,0,1,hexagon,star,,,,,,,,,,,,,,,,,,,,,,,,,,,,,,,,,,,,,,,,,,,,,,,,,,,,,,
298300,2022-12-07_14h13.11.401,vts_reward_expectancy_bt,2022.2.4,Win32,59.74786401,Chrome,1383,864,,,a,0.0979,10,259,1,0,6,6,0,1,1,0,0,0,0,1,0,0,triangle,circle,,,,,,,,,,,,,,,,,,,,,,,,,,,,,,,,,,,,,,,,,,,,,,,,,,,,,,
298300,2022-12-07_14h13.11.401,vts_reward_expectancy_bt,2022.2.4,Win32,59.74786401,Chrome,1383,864,,,a,0.0264,1,260,1,0,7,7,6,1,0,0,1,0,1,0,0,0,hexagon,triangle,,,,,,,,,,,,,,,,,,,,,,,,,,,,,,,,,,,,,,,,,,,,,,,,,,,,,,
298300,2022-12-07_14h13.11.401,vts_reward_expectancy_bt,2022.2.4,Win32,59.74786401,Chrome,1383,864,,,a,0.1177,1,261,1,0,8,8,4,1,0,1,0,0,0,0,1,0,circle,hexagon,,,,,,,,,,,,,,,,,,,,,,,,,,,,,,,,,,,,,,,,,,,,,,,,,,,,,,
298300,2022-12-07_14h13.11.401,vts_reward_expectancy_bt,2022.2.4,Win32,59.74786401,Chrome,1383,864,,,a,0.2829,1,262,1,0,9,9,10,1,0,0,0,1,0,1,0,0,star ,circle,,,,,,,,,,,,,,,,,,,,,,,,,,,,,,,,,,,,,,,,,,,,,,,,,,,,,,
298300,2022-12-07_14h13.11.401,vts_reward_expectancy_bt,2022.2.4,Win32,59.74786401,Chrome,1383,864,,,l,0.1011,1,263,1,0,10,10,5,1,0,1,0,0,0,0,0,1,circle,star,,,,,,,,,,,,,,,,,,,,,,,,,,,,,,,,,,,,,,,,,,,,,,,,,,,,,,
298300,2022-12-07_14h13.11.401,vts_reward_expectancy_bt,2022.2.4,Win32,59.74786401,Chrome,1383,864,,,l,0.3971,10,273,1,0,11,11,2,1,1,0,0,0,0,0,0,1,triangle,star,,,,,,,,,,,,,,,,,,,,,,,,,,,,,,,,,,,,,,,,,,,,,,,,,,,,,,
298300,2022-12-07_14h13.11.401,vts_reward_expectancy_bt,2022.2.4,Win32,59.74786401,Chrome,1383,864,,,l,0.0719,10,283,1,1,0,12,11,1,0,0,0,1,0,0,1,0,star,hexagon,,,,,,,,,,,,,,,,,,,,,,,,,,,,,,,,,,,,,,,,,,,,,,,,,,,,,,
298300,2022-12-07_14h13.11.401,vts_reward_expectancy_bt,2022.2.4,Win32,59.74786401,Chrome,1383,864,,,l,0.15,1,284,1,1,1,13,7,1,0,0,1,0,0,1,0,0,hexagon,circle,,,,,,,,,,,,,,,,,,,,,,,,,,,,,,,,,,,,,,,,,,,,,,,,,,,,,,
298300,2022-12-07_14h13.11.401,vts_reward_expectancy_bt,2022.2.4,Win32,59.74786401,Chrome,1383,864,,,l,0.0009,10,294,1,1,2,14,0,1,1,0,0,0,0,1,0,0,triangle,circle,,,,,,,,,,,,,,,,,,,,,,,,,,,,,,,,,,,,,,,,,,,,,,,,,,,,,,
298300,2022-12-07_14h13.11.401,vts_reward_expectancy_bt,2022.2.4,Win32,59.74786401,Chrome,1383,864,,,l,0.0854,1,295,1,1,3,15,10,1,0,0,0,1,0,1,0,0,star ,circle,,,,,,,,,,,,,,,,,,,,,,,,,,,,,,,,,,,,,,,,,,,,,,,,,,,,,,
298300,2022-12-07_14h13.11.401,vts_reward_expectancy_bt,2022.2.4,Win32,59.74786401,Chrome,1383,864,,,l,0.0008,10,305,1,1,4,16,3,1,0,1,0,0,1,0,0,0,circle,triangle,,,,,,,,,,,,,,,,,,,,,,,,,,,,,,,,,,,,,,,,,,,,,,,,,,,,,,
298300,2022-12-07_14h13.11.401,vts_reward_expectancy_bt,2022.2.4,Win32,59.74786401,Chrome,1383,864,,,l,0.1509,1,306,1,1,5,17,8,1,0,0,1,0,0,0,0,1,hexagon,star,,,,,,,,,,,,,,,,,,,,,,,,,,,,,,,,,,,,,,,,,,,,,,,,,,,,,,
298300,2022-12-07_14h13.11.401,vts_reward_expectancy_bt,2022.2.4,Win32,59.74786401,Chrome,1383,864,,,l,0.1709,1,307,1,1,6,18,5,1,0,1,0,0,0,0,0,1,circle,star,,,,,,,,,,,,,,,,,,,,,,,,,,,,,,,,,,,,,,,,,,,,,,,,,,,,,,
298300,2022-12-07_14h13.11.401,vts_reward_expectancy_bt,2022.2.4,Win32,59.74786401,Chrome,1383,864,,,a,0.0495,1,308,1,1,7,19,4,1,0,1,0,0,0,0,1,0,circle,hexagon,,,,,,,,,,,,,,,,,,,,,,,,,,,,,,,,,,,,,,,,,,,,,,,,,,,,,,
298300,2022-12-07_14h13.11.401,vts_reward_expectancy_bt,2022.2.4,Win32,59.74786401,Chrome,1383,864,,,a,0.1157,1,309,1,1,8,20,1,1,1,0,0,0,0,0,1,0,triangle,hexagon,,,,,,,,,,,,,,,,,,,,,,,,,,,,,,,,,,,,,,,,,,,,,,,,,,,,,,
298300,2022-12-07_14h13.11.401,vts_reward_expectancy_bt,2022.2.4,Win32,59.74786401,Chrome,1383,864,,,a,0.1508,10,319,1,1,9,21,9,1,0,0,0,1,1,0,0,0,star,triangle,,,,,,,,,,,,,,,,,,,,,,,,,,,,,,,,,,,,,,,,,,,,,,,,,,,,,,
298300,2022-12-07_14h13.11.401,vts_reward_expectancy_bt,2022.2.4,Win32,59.74786401,Chrome,1383,864,,,a,0.0889,10,329,1,1,10,22,2,1,1,0,0,0,0,0,0,1,triangle,star,,,,,,,,,,,,,,,,,,,,,,,,,,,,,,,,,,,,,,,,,,,,,,,,,,,,,,
298300,2022-12-07_14h13.11.401,vts_reward_expectancy_bt,2022.2.4,Win32,59.74786401,Chrome,1383,864,,,a,0.001,10,339,1,1,11,23,6,1,0,0,1,0,1,0,0,0,hexagon,triangle,,,,,,,,,,,,,,,,,,,,,,,,,,,,,,,,,,,,,,,,,,,,,,,,,,,,,,
298300,2022-12-07_14h13.11.401,vts_reward_expectancy_bt,2022.2.4,Win32,59.74786401,Chrome,1383,864,,,a,0.0435,1,340,1,2,0,24,6,1,0,0,1,0,1,0,0,0,hexagon,triangle,,,,,,,,,,,,,,,,,,,,,,,,,,,,,,,,,,,,,,,,,,,,,,,,,,,,,,
298300,2022-12-07_14h13.11.401,vts_reward_expectancy_bt,2022.2.4,Win32,59.74786401,Chrome,1383,864,,,a,0.0835,10,350,1,2,1,25,3,1,0,1,0,0,1,0,0,0,circle,triangle,,,,,,,,,,,,,,,,,,,,,,,,,,,,,,,,,,,,,,,,,,,,,,,,,,,,,,
298300,2022-12-07_14h13.11.401,vts_reward_expectancy_bt,2022.2.4,Win32,59.74786401,Chrome,1383,864,,,a,0.1509,1,351,1,2,2,26,5,1,0,1,0,0,0,0,0,1,circle,star,,,,,,,,,,,,,,,,,,,,,,,,,,,,,,,,,,,,,,,,,,,,,,,,,,,,,,
298300,2022-12-07_14h13.11.401,vts_reward_expectancy_bt,2022.2.4,Win32,59.74786401,Chrome,1383,864,,,a,0.1131,10,361,1,2,3,27,8,1,0,0,1,0,0,0,0,1,hexagon,star,,,,,,,,,,,,,,,,,,,,,,,,,,,,,,,,,,,,,,,,,,,,,,,,,,,,,,
298300,2022-12-07_14h13.11.401,vts_reward_expectancy_bt,2022.2.4,Win32,59.74786401,Chrome,1383,864,,,a,0.0009,10,371,1,2,4,28,2,1,1,0,0,0,0,0,0,1,triangle,star,,,,,,,,,,,,,,,,,,,,,,,,,,,,,,,,,,,,,,,,,,,,,,,,,,,,,,
298300,2022-12-07_14h13.11.401,vts_reward_expectancy_bt,2022.2.4,Win32,59.74786401,Chrome,1383,864,,,a,0.169,10,381,1,2,5,29,10,1,0,0,0,1,0,1,0,0,star ,circle,,,,,,,,,,,,,,,,,,,,,,,,,,,,,,,,,,,,,,,,,,,,,,,,,,,,,,
298300,2022-12-07_14h13.11.401,vts_reward_expectancy_bt,2022.2.4,Win32,59.74786401,Chrome,1383,864,,,a,0.1658,10,391,1,2,6,30,7,1,0,0,1,0,0,1,0,0,hexagon,circle,,,,,,,,,,,,,,,,,,,,,,,,,,,,,,,,,,,,,,,,,,,,,,,,,,,,,,
298300,2022-12-07_14h13.11.401,vts_reward_expectancy_bt,2022.2.4,Win32,59.74786401,Chrome,1383,864,,,a,0.1177,10,401,1,2,7,31,11,1,0,0,0,1,0,0,1,0,star,hexagon,,,,,,,,,,,,,,,,,,,,,,,,,,,,,,,,,,,,,,,,,,,,,,,,,,,,,,
298300,2022-12-07_14h13.11.401,vts_reward_expectancy_bt,2022.2.4,Win32,59.74786401,Chrome,1383,864,,,a,0.0561,10,411,1,2,8,32,4,1,0,1,0,0,0,0,1,0,circle,hexagon,,,,,,,,,,,,,,,,,,,,,,,,,,,,,,,,,,,,,,,,,,,,,,,,,,,,,,
298300,2022-12-07_14h13.11.401,vts_reward_expectancy_bt,2022.2.4,Win32,59.74786401,Chrome,1383,864,,,a,0.0278,10,421,1,2,9,33,0,1,1,0,0,0,0,1,0,0,triangle,circle,,,,,,,,,,,,,,,,,,,,,,,,,,,,,,,,,,,,,,,,,,,,,,,,,,,,,,
298300,2022-12-07_14h13.11.401,vts_reward_expectancy_bt,2022.2.4,Win32,59.74786401,Chrome,1383,864,,,a,0.1836,10,431,1,2,10,34,9,1,0,0,0,1,1,0,0,0,star,triangle,,,,,,,,,,,,,,,,,,,,,,,,,,,,,,,,,,,,,,,,,,,,,,,,,,,,,,
298300,2022-12-07_14h13.11.401,vts_reward_expectancy_bt,2022.2.4,Win32,59.74786401,Chrome,1383,864,,,a,0.0438,1,432,1,2,11,35,1,1,1,0,0,0,0,0,1,0,triangle,hexagon,,,,,,,,,,,,,,,,,,,,,,,,,,,,,,,,,,,,,,,,,,,,,,,,,,,,,,
298300,2022-12-07_14h13.11.401,vts_reward_expectancy_bt,2022.2.4,Win32,59.74786401,Chrome,1383,864,,,l,1.2162,1,433,2,0,0,0,10,1,0,0,0,1,0,1,0,0,star ,circle,,,,,,,,,,,,,,,,,,,,,,,,,,,,,,,,,,,,,,,,,,,,,,,,,,,,,,
298300,2022-12-07_14h13.11.401,vts_reward_expectancy_bt,2022.2.4,Win32,59.74786401,Chrome,1383,864,,,l,0.1669,10,443,2,0,1,1,0,1,1,0,0,0,0,1,0,0,triangle,circle,,,,,,,,,,,,,,,,,,,,,,,,,,,,,,,,,,,,,,,,,,,,,,,,,,,,,,
298300,2022-12-07_14h13.11.401,vts_reward_expectancy_bt,2022.2.4,Win32,59.74786401,Chrome,1383,864,,,l,0.0109,10,453,2,0,2,2,9,1,0,0,0,1,1,0,0,0,star,triangle,,,,,,,,,,,,,,,,,,,,,,,,,,,,,,,,,,,,,,,,,,,,,,,,,,,,,,
298300,2022-12-07_14h13.11.401,vts_reward_expectancy_bt,2022.2.4,Win32,59.74786401,Chrome,1383,864,,,l,0.0852,1,454,2,0,3,3,7,1,0,0,1,0,0,1,0,0,hexagon,circle,,,,,,,,,,,,,,,,,,,,,,,,,,,,,,,,,,,,,,,,,,,,,,,,,,,,,,
298300,2022-12-07_14h13.11.401,vts_reward_expectancy_bt,2022.2.4,Win32,59.74786401,Chrome,1383,864,,,l,0.1009,10,464,2,0,4,4,5,1,0,1,0,0,0,0,0,1,circle,star,,,,,,,,,,,,,,,,,,,,,,,,,,,,,,,,,,,,,,,,,,,,,,,,,,,,,,
298300,2022-12-07_14h13.11.401,vts_reward_expectancy_bt,2022.2.4,Win32,59.74786401,Chrome,1383,864,,,l,0.0502,10,474,2,0,5,5,1,1,1,0,0,0,0,0,1,0,triangle,hexagon,,,,,,,,,,,,,,,,,,,,,,,,,,,,,,,,,,,,,,,,,,,,,,,,,,,,,,
298300,2022-12-07_14h13.11.401,vts_reward_expectancy_bt,2022.2.4,Win32,59.74786401,Chrome,1383,864,,,l,0.1847,1,475,2,0,6,6,6,1,0,0,1,0,1,0,0,0,hexagon,triangle,,,,,,,,,,,,,,,,,,,,,,,,,,,,,,,,,,,,,,,,,,,,,,,,,,,,,,
298300,2022-12-07_14h13.11.401,vts_reward_expectancy_bt,2022.2.4,Win32,59.74786401,Chrome,1383,864,,,l,0.0008,1,476,2,0,7,7,3,1,0,1,0,0,1,0,0,0,circle,triangle,,,,,,,,,,,,,,,,,,,,,,,,,,,,,,,,,,,,,,,,,,,,,,,,,,,,,,
298300,2022-12-07_14h13.11.401,vts_reward_expectancy_bt,2022.2.4,Win32,59.74786401,Chrome,1383,864,,,a,0.0971,10,486,2,0,8,8,2,1,1,0,0,0,0,0,0,1,triangle,star,,,,,,,,,,,,,,,,,,,,,,,,,,,,,,,,,,,,,,,,,,,,,,,,,,,,,,
298300,2022-12-07_14h13.11.401,vts_reward_expectancy_bt,2022.2.4,Win32,59.74786401,Chrome,1383,864,,,a,0.089,10,496,2,0,9,9,11,1,0,0,0,1,0,0,1,0,star,hexagon,,,,,,,,,,,,,,,,,,,,,,,,,,,,,,,,,,,,,,,,,,,,,,,,,,,,,,
298300,2022-12-07_14h13.11.401,vts_reward_expectancy_bt,2022.2.4,Win32,59.74786401,Chrome,1383,864,,,a,0.0009,10,506,2,0,10,10,4,1,0,1,0,0,0,0,1,0,circle,hexagon,,,,,,,,,,,,,,,,,,,,,,,,,,,,,,,,,,,,,,,,,,,,,,,,,,,,,,
298300,2022-12-07_14h13.11.401,vts_reward_expectancy_bt,2022.2.4,Win32,59.74786401,Chrome,1383,864,,,a,0.0367,1,507,2,0,11,11,8,1,0,0,1,0,0,0,0,1,hexagon,star,,,,,,,,,,,,,,,,,,,,,,,,,,,,,,,,,,,,,,,,,,,,,,,,,,,,,,
298300,2022-12-07_14h13.11.401,vts_reward_expectancy_bt,2022.2.4,Win32,59.74786401,Chrome,1383,864,,,a,0.1067,1,508,2,1,0,12,1,1,1,0,0,0,0,0,1,0,triangle,hexagon,,,,,,,,,,,,,,,,,,,,,,,,,,,,,,,,,,,,,,,,,,,,,,,,,,,,,,
298300,2022-12-07_14h13.11.401,vts_reward_expectancy_bt,2022.2.4,Win32,59.74786401,Chrome,1383,864,,,a,0.0858,1,509,2,1,1,13,6,1,0,0,1,0,1,0,0,0,hexagon,triangle,,,,,,,,,,,,,,,,,,,,,,,,,,,,,,,,,,,,,,,,,,,,,,,,,,,,,,
298300,2022-12-07_14h13.11.401,vts_reward_expectancy_bt,2022.2.4,Win32,59.74786401,Chrome,1383,864,,,a,0.1197,1,510,2,1,2,14,4,1,0,1,0,0,0,0,1,0,circle,hexagon,,,,,,,,,,,,,,,,,,,,,,,,,,,,,,,,,,,,,,,,,,,,,,,,,,,,,,
298300,2022-12-07_14h13.11.401,vts_reward_expectancy_bt,2022.2.4,Win32,59.74786401,Chrome,1383,864,,,a,0.0673,1,511,2,1,3,15,10,1,0,0,0,1,0,1,0,0,star ,circle,,,,,,,,,,,,,,,,,,,,,,,,,,,,,,,,,,,,,,,,,,,,,,,,,,,,,,
298300,2022-12-07_14h13.11.401,vts_reward_expectancy_bt,2022.2.4,Win32,59.74786401,Chrome,1383,864,,,a,0.1286,10,521,2,1,4,16,7,1,0,0,1,0,0,1,0,0,hexagon,circle,,,,,,,,,,,,,,,,,,,,,,,,,,,,,,,,,,,,,,,,,,,,,,,,,,,,,,
298300,2022-12-07_14h13.11.401,vts_reward_expectancy_bt,2022.2.4,Win32,59.74786401,Chrome,1383,864,,,a,0.0519,1,522,2,1,5,17,0,1,1,0,0,0,0,1,0,0,triangle,circle,,,,,,,,,,,,,,,,,,,,,,,,,,,,,,,,,,,,,,,,,,,,,,,,,,,,,,
298300,2022-12-07_14h13.11.401,vts_reward_expectancy_bt,2022.2.4,Win32,59.74786401,Chrome,1383,864,,,l,0.083,10,532,2,1,6,18,8,1,0,0,1,0,0,0,0,1,hexagon,star,,,,,,,,,,,,,,,,,,,,,,,,,,,,,,,,,,,,,,,,,,,,,,,,,,,,,,
298300,2022-12-07_14h13.11.401,vts_reward_expectancy_bt,2022.2.4,Win32,59.74786401,Chrome,1383,864,,,l,0.0683,1,533,2,1,7,19,2,1,1,0,0,0,0,0,0,1,triangle,star,,,,,,,,,,,,,,,,,,,,,,,,,,,,,,,,,,,,,,,,,,,,,,,,,,,,,,
298300,2022-12-07_14h13.11.401,vts_reward_expectancy_bt,2022.2.4,Win32,59.74786401,Chrome,1383,864,,,l,0.1171,1,534,2,1,8,20,9,1,0,0,0,1,1,0,0,0,star,triangle,,,,,,,,,,,,,,,,,,,,,,,,,,,,,,,,,,,,,,,,,,,,,,,,,,,,,,
298300,2022-12-07_14h13.11.401,vts_reward_expectancy_bt,2022.2.4,Win32,59.74786401,Chrome,1383,864,,,l,0.1173,10,544,2,1,9,21,3,1,0,1,0,0,1,0,0,0,circle,triangle,,,,,,,,,,,,,,,,,,,,,,,,,,,,,,,,,,,,,,,,,,,,,,,,,,,,,,
298300,2022-12-07_14h13.11.401,vts_reward_expectancy_bt,2022.2.4,Win32,59.74786401,Chrome,1383,864,,,l,0.1501,10,554,2,1,10,22,11,1,0,0,0,1,0,0,1,0,star,hexagon,,,,,,,,,,,,,,,,,,,,,,,,,,,,,,,,,,,,,,,,,,,,,,,,,,,,,,
298300,2022-12-07_14h13.11.401,vts_reward_expectancy_bt,2022.2.4,Win32,59.74786401,Chrome,1383,864,,,l,0.0008,10,564,2,1,11,23,5,1,0,1,0,0,0,0,0,1,circle,star,,,,,,,,,,,,,,,,,,,,,,,,,,,,,,,,,,,,,,,,,,,,,,,,,,,,,,
298300,2022-12-07_14h13.11.401,vts_reward_expectancy_bt,2022.2.4,Win32,59.74786401,Chrome,1383,864,,,l,0.0008,1,565,2,2,0,24,7,1,0,0,1,0,0,1,0,0,hexagon,circle,,,,,,,,,,,,,,,,,,,,,,,,,,,,,,,,,,,,,,,,,,,,,,,,,,,,,,
298300,2022-12-07_14h13.11.401,vts_reward_expectancy_bt,2022.2.4,Win32,59.74786401,Chrome,1383,864,,,l,0.1086,10,575,2,2,1,25,5,1,0,1,0,0,0,0,0,1,circle,star,,,,,,,,,,,,,,,,,,,,,,,,,,,,,,,,,,,,,,,,,,,,,,,,,,,,,,
298300,2022-12-07_14h13.11.401,vts_reward_expectancy_bt,2022.2.4,Win32,59.74786401,Chrome,1383,864,,,a,0.0668,10,585,2,2,2,26,11,1,0,0,0,1,0,0,1,0,star,hexagon,,,,,,,,,,,,,,,,,,,,,,,,,,,,,,,,,,,,,,,,,,,,,,,,,,,,,,
298300,2022-12-07_14h13.11.401,vts_reward_expectancy_bt,2022.2.4,Win32,59.74786401,Chrome,1383,864,,,a,0.1678,1,586,2,2,3,27,1,1,1,0,0,0,0,0,1,0,triangle,hexagon,,,,,,,,,,,,,,,,,,,,,,,,,,,,,,,,,,,,,,,,,,,,,,,,,,,,,,
298300,2022-12-07_14h13.11.401,vts_reward_expectancy_bt,2022.2.4,Win32,59.74786401,Chrome,1383,864,,,a,0.1552,10,596,2,2,4,28,0,1,1,0,0,0,0,1,0,0,triangle,circle,,,,,,,,,,,,,,,,,,,,,,,,,,,,,,,,,,,,,,,,,,,,,,,,,,,,,,
298300,2022-12-07_14h13.11.401,vts_reward_expectancy_bt,2022.2.4,Win32,59.74786401,Chrome,1383,864,,,a,0.1332,1,597,2,2,5,29,2,1,1,0,0,0,0,0,0,1,triangle,star,,,,,,,,,,,,,,,,,,,,,,,,,,,,,,,,,,,,,,,,,,,,,,,,,,,,,,
298300,2022-12-07_14h13.11.401,vts_reward_expectancy_bt,2022.2.4,Win32,59.74786401,Chrome,1383,864,,,a,0.1418,1,598,2,2,6,30,6,1,0,0,1,0,1,0,0,0,hexagon,triangle,,,,,,,,,,,,,,,,,,,,,,,,,,,,,,,,,,,,,,,,,,,,,,,,,,,,,,
298300,2022-12-07_14h13.11.401,vts_reward_expectancy_bt,2022.2.4,Win32,59.74786401,Chrome,1383,864,,,a,0.0008,1,599,2,2,7,31,3,1,0,1,0,0,1,0,0,0,circle,triangle,,,,,,,,,,,,,,,,,,,,,,,,,,,,,,,,,,,,,,,,,,,,,,,,,,,,,,
298300,2022-12-07_14h13.11.401,vts_reward_expectancy_bt,2022.2.4,Win32,59.74786401,Chrome,1383,864,,,a,0.0657,1,600,2,2,8,32,10,1,0,0,0,1,0,1,0,0,star ,circle,,,,,,,,,,,,,,,,,,,,,,,,,,,,,,,,,,,,,,,,,,,,,,,,,,,,,,
298300,2022-12-07_14h13.11.401,vts_reward_expectancy_bt,2022.2.4,Win32,59.74786401,Chrome,1383,864,,,l,0.1197,10,610,2,2,9,33,8,1,0,0,1,0,0,0,0,1,hexagon,star,,,,,,,,,,,,,,,,,,,,,,,,,,,,,,,,,,,,,,,,,,,,,,,,,,,,,,
298300,2022-12-07_14h13.11.401,vts_reward_expectancy_bt,2022.2.4,Win32,59.74786401,Chrome,1383,864,,,l,0.0552,1,611,2,2,10,34,9,1,0,0,0,1,1,0,0,0,star,triangle,,,,,,,,,,,,,,,,,,,,,,,,,,,,,,,,,,,,,,,,,,,,,,,,,,,,,,
298300,2022-12-07_14h13.11.401,vts_reward_expectancy_bt,2022.2.4,Win32,59.74786401,Chrome,1383,864,,,a,0.0025,10,621,2,2,11,35,4,1,0,1,0,0,0,0,1,0,circle,hexagon,,,,,,,,,,,,,,,,,,,,,,,,,,,,,,,,,,,,,,,,,,,,,,,,,,,,,,
298300,2022-12-07_14h13.11.401,vts_reward_expectancy_bt,2022.2.4,Win32,59.74786401,Chrome,1383,864,,,,,,,,,,,,,,,,,,,,,,,132,H,hexagon,0,0,f,1.182,0,0,0,0,0,1,,,,,,,,,,,,,,,,,,,,,,,,,,,,,,,,,,,,,,,,,
298300,2022-12-07_14h13.11.401,vts_reward_expectancy_bt,2022.2.4,Win32,59.74786401,Chrome,1383,864,,,,,,,,,,,,,,,,,,,,,,,181,W,triangle,0,1,d,0.0732,0,1,0,1,0,1,,,,,,,,,,,,,,,,,,,,,,,,,,,,,,,,,,,,,,,,,
298300,2022-12-07_14h13.11.401,vts_reward_expectancy_bt,2022.2.4,Win32,59.74786401,Chrome,1383,864,,,,,,,,,,,,,,,,,,,,,,,139,D,star,2,1,k,1.1927,0,2,0,2,0,1,,,,,,,,,,,,,,,,,,,,,,,,,,,,,,,,,,,,,,,,,
298300,2022-12-07_14h13.11.401,vts_reward_expectancy_bt,2022.2.4,Win32,59.74786401,Chrome,1383,864,,,,,,,,,,,,,,,,,,,,,,,174,S,circle,1,0,f,1.4192,0,3,0,3,0,1,,,,,,,,,,,,,,,,,,,,,,,,,,,,,,,,,,,,,,,,,
298300,2022-12-07_14h13.11.401,vts_reward_expectancy_bt,2022.2.4,Win32,59.74786401,Chrome,1383,864,,,,,,,,,,,,,,,,,,,,,,,125,B,hexagon,1,0,d,0.4843,0,4,0,4,0,1,,,,,,,,,,,,,,,,,,,,,,,,,,,,,,,,,,,,,,,,,
298300,2022-12-07_14h13.11.401,vts_reward_expectancy_bt,2022.2.4,Win32,59.74786401,Chrome,1383,864,,,,,,,,,,,,,,,,,,,,,,,167,U,triangle,1,0,f,0.6165,0,5,0,5,0,1,,,,,,,,,,,,,,,,,,,,,,,,,,,,,,,,,,,,,,,,,
298300,2022-12-07_14h13.11.401,vts_reward_expectancy_bt,2022.2.4,Win32,59.74786401,Chrome,1383,864,,,,,,,,,,,,,,,,,,,,,,,160,F,star,0,0,d,0.5187,0,6,0,6,0,1,,,,,,,,,,,,,,,,,,,,,,,,,,,,,,,,,,,,,,,,,
298300,2022-12-07_14h13.11.401,vts_reward_expectancy_bt,2022.2.4,Win32,59.74786401,Chrome,1383,864,,,,,,,,,,,,,,,,,,,,,,,146,Y,circle,0,1,f,0.5027,0,7,0,7,0,1,,,,,,,,,,,,,,,,,,,,,,,,,,,,,,,,,,,,,,,,,
298300,2022-12-07_14h13.11.401,vts_reward_expectancy_bt,2022.2.4,Win32,59.74786401,Chrome,1383,864,,,,,,,,,,,,,,,,,,,,,,,132,H,hexagon,0,1,f,0.8018,0,8,0,8,0,1,,,,,,,,,,,,,,,,,,,,,,,,,,,,,,,,,,,,,,,,,
298300,2022-12-07_14h13.11.401,vts_reward_expectancy_bt,2022.2.4,Win32,59.74786401,Chrome,1383,864,,,,,,,,,,,,,,,,,,,,,,,181,W,triangle,1,1,f,0.603,0,9,0,9,0,1,,,,,,,,,,,,,,,,,,,,,,,,,,,,,,,,,,,,,,,,,
298300,2022-12-07_14h13.11.401,vts_reward_expectancy_bt,2022.2.4,Win32,59.74786401,Chrome,1383,864,,,,,,,,,,,,,,,,,,,,,,,160,H,triangle,0,0,d,1.015,1,0,0,0,0,1,,,,,,,,,,,,,,,,,,,,,,,,,,,,,,,,,,,,,,,,,
298300,2022-12-07_14h13.11.401,vts_reward_expectancy_bt,2022.2.4,Win32,59.74786401,Chrome,1383,864,,,,,,,,,,,,,,,,,,,,,,,125,B,circle,1,1,d,0.6811,1,1,0,1,0,1,,,,,,,,,,,,,,,,,,,,,,,,,,,,,,,,,,,,,,,,,
298300,2022-12-07_14h13.11.401,vts_reward_expectancy_bt,2022.2.4,Win32,59.74786401,Chrome,1383,864,,,,,,,,,,,,,,,,,,,,,,,139,U,star,1,0,d,0.533,1,2,0,2,0,1,,,,,,,,,,,,,,,,,,,,,,,,,,,,,,,,,,,,,,,,,
298300,2022-12-07_14h13.11.401,vts_reward_expectancy_bt,2022.2.4,Win32,59.74786401,Chrome,1383,864,,,,,,,,,,,,,,,,,,,,,,,181,S,hexagon,1,0,f,0.5491,1,3,0,3,0,1,,,,,,,,,,,,,,,,,,,,,,,,,,,,,,,,,,,,,,,,,
298300,2022-12-07_14h13.11.401,vts_reward_expectancy_bt,2022.2.4,Win32,59.74786401,Chrome,1383,864,,,,,,,,,,,,,,,,,,,,,,,146,D,triangle,1,0,d,0.764,1,4,0,4,0,1,,,,,,,,,,,,,,,,,,,,,,,,,,,,,,,,,,,,,,,,,
298300,2022-12-07_14h13.11.401,vts_reward_expectancy_bt,2022.2.4,Win32,59.74786401,Chrome,1383,864,,,,,,,,,,,,,,,,,,,,,,,132,W,circle,1,0,d,0.4845,1,5,0,5,0,1,,,,,,,,,,,,,,,,,,,,,,,,,,,,,,,,,,,,,,,,,
298300,2022-12-07_14h13.11.401,vts_reward_expectancy_bt,2022.2.4,Win32,59.74786401,Chrome,1383,864,,,,,,,,,,,,,,,,,,,,,,,174,F,star,1,0,f,0.534,1,6,0,6,0,1,,,,,,,,,,,,,,,,,,,,,,,,,,,,,,,,,,,,,,,,,
298300,2022-12-07_14h13.11.401,vts_reward_expectancy_bt,2022.2.4,Win32,59.74786401,Chrome,1383,864,,,,,,,,,,,,,,,,,,,,,,,167,Y,hexagon,1,0,f,0.4812,1,7,0,7,0,1,,,,,,,,,,,,,,,,,,,,,,,,,,,,,,,,,,,,,,,,,
298300,2022-12-07_14h13.11.401,vts_reward_expectancy_bt,2022.2.4,Win32,59.74786401,Chrome,1383,864,,,,,,,,,,,,,,,,,,,,,,,160,H,star,1,0,f,0.418,1,8,0,8,0,1,,,,,,,,,,,,,,,,,,,,,,,,,,,,,,,,,,,,,,,,,
298300,2022-12-07_14h13.11.401,vts_reward_expectancy_bt,2022.2.4,Win32,59.74786401,Chrome,1383,864,,,,,,,,,,,,,,,,,,,,,,,125,B,circle,1,0,d,0.5025,1,9,0,9,0,1,,,,,,,,,,,,,,,,,,,,,,,,,,,,,,,,,,,,,,,,,
298300,2022-12-07_14h13.11.401,vts_reward_expectancy_bt,2022.2.4,Win32,59.74786401,Chrome,1383,864,,,,,,,,,,,,,,,,,,,,,,,146,H,circle,1,0,,,2,,,,,,j,0.5499,0,0,0,0,1,,,,,,,,,,,,,,,,,,,,,,,,,,,,,,,,,,
298300,2022-12-07_14h13.11.401,vts_reward_expectancy_bt,2022.2.4,Win32,59.74786401,Chrome,1383,864,,,,,,,,,,,,,,,,,,,,,,,132,Y,hexagon,1,0,,,2,,,,,,k,0.566,1,0,1,0,1,,,,,,,,,,,,,,,,,,,,,,,,,,,,,,,,,,
298300,2022-12-07_14h13.11.401,vts_reward_expectancy_bt,2022.2.4,Win32,59.74786401,Chrome,1383,864,,,,,,,,,,,,,,,,,,,,,,,125,S,star,1,0,,,2,,,,,,k,0.565,2,0,2,0,1,,,,,,,,,,,,,,,,,,,,,,,,,,,,,,,,,,
298300,2022-12-07_14h13.11.401,vts_reward_expectancy_bt,2022.2.4,Win32,59.74786401,Chrome,1383,864,,,,,,,,,,,,,,,,,,,,,,,174,U,triangle,1,0,,,2,,,,,,k,0.4513,3,0,3,0,1,,,,,,,,,,,,,,,,,,,,,,,,,,,,,,,,,,
298300,2022-12-07_14h13.11.401,vts_reward_expectancy_bt,2022.2.4,Win32,59.74786401,Chrome,1383,864,,,,,,,,,,,,,,,,,,,,,,,167,F,circle,1,0,,,2,,,,,,j,1.6164,4,0,4,0,1,,,,,,,,,,,,,,,,,,,,,,,,,,,,,,,,,,
298300,2022-12-07_14h13.11.401,vts_reward_expectancy_bt,2022.2.4,Win32,59.74786401,Chrome,1383,864,,,,,,,,,,,,,,,,,,,,,,,139,D,hexagon,0,0,,,2,,,,,,k,1.7814,5,0,5,0,1,,,,,,,,,,,,,,,,,,,,,,,,,,,,,,,,,,
298300,2022-12-07_14h13.11.401,vts_reward_expectancy_bt,2022.2.4,Win32,59.74786401,Chrome,1383,864,,,,,,,,,,,,,,,,,,,,,,,160,B,star,1,1,,,2,,,,,,j,0.7001,6,0,6,0,1,,,,,,,,,,,,,,,,,,,,,,,,,,,,,,,,,,
298300,2022-12-07_14h13.11.401,vts_reward_expectancy_bt,2022.2.4,Win32,59.74786401,Chrome,1383,864,,,,,,,,,,,,,,,,,,,,,,,181,W,triangle,1,0,,,2,,,,,,k,1.655,7,0,7,0,1,,,,,,,,,,,,,,,,,,,,,,,,,,,,,,,,,,
298300,2022-12-07_14h13.11.401,vts_reward_expectancy_bt,2022.2.4,Win32,59.74786401,Chrome,1383,864,,,,,,,,,,,,,,,,,,,,,,,146,H,circle,0,0,,,2,,,,,,,,8,0,8,0,1,,,,,,,,,,,,,,,,,,,,,,,,,,,,,,,,,,
298300,2022-12-07_14h13.11.401,vts_reward_expectancy_bt,2022.2.4,Win32,59.74786401,Chrome,1383,864,,,,,,,,,,,,,,,,,,,,,,,132,Y,star,1,1,,,2,,,,,,k,1.3195,9,0,9,0,1,,,,,,,,,,,,,,,,,,,,,,,,,,,,,,,,,,
298300,2022-12-07_14h13.11.401,vts_reward_expectancy_bt,2022.2.4,Win32,59.74786401,Chrome,1383,864,,,,,,,,,,,,,,,,,,,,,,,146,B,hexagon,0,0,,,3,,,,,,k,0.4917,0,0,0,0,1,,,,,,,,,,,,,,,,,,,,,,,,,,,,,,,,,,
298300,2022-12-07_14h13.11.401,vts_reward_expectancy_bt,2022.2.4,Win32,59.74786401,Chrome,1383,864,,,,,,,,,,,,,,,,,,,,,,,139,Y,triangle,1,1,,,3,,,,,,k,0.5169,1,0,1,0,1,,,,,,,,,,,,,,,,,,,,,,,,,,,,,,,,,,
298300,2022-12-07_14h13.11.401,vts_reward_expectancy_bt,2022.2.4,Win32,59.74786401,Chrome,1383,864,,,,,,,,,,,,,,,,,,,,,,,125,U,star,1,0,,,3,,,,,,k,0.6993,2,0,2,0,1,,,,,,,,,,,,,,,,,,,,,,,,,,,,,,,,,,
298300,2022-12-07_14h13.11.401,vts_reward_expectancy_bt,2022.2.4,Win32,59.74786401,Chrome,1383,864,,,,,,,,,,,,,,,,,,,,,,,160,S,circle,1,0,,,3,,,,,,k,1.1494,3,0,3,0,1,,,,,,,,,,,,,,,,,,,,,,,,,,,,,,,,,,
298300,2022-12-07_14h13.11.401,vts_reward_expectancy_bt,2022.2.4,Win32,59.74786401,Chrome,1383,864,,,,,,,,,,,,,,,,,,,,,,,181,D,hexagon,1,0,,,3,,,,,,j,0.3516,4,0,4,0,1,,,,,,,,,,,,,,,,,,,,,,,,,,,,,,,,,,
298300,2022-12-07_14h13.11.401,vts_reward_expectancy_bt,2022.2.4,Win32,59.74786401,Chrome,1383,864,,,,,,,,,,,,,,,,,,,,,,,132,H,triangle,1,0,,,3,,,,,,j,0.9317,5,0,5,0,1,,,,,,,,,,,,,,,,,,,,,,,,,,,,,,,,,,
298300,2022-12-07_14h13.11.401,vts_reward_expectancy_bt,2022.2.4,Win32,59.74786401,Chrome,1383,864,,,,,,,,,,,,,,,,,,,,,,,174,W,star,1,0,,,3,,,,,,k,0.5629,6,0,6,0,1,,,,,,,,,,,,,,,,,,,,,,,,,,,,,,,,,,
298300,2022-12-07_14h13.11.401,vts_reward_expectancy_bt,2022.2.4,Win32,59.74786401,Chrome,1383,864,,,,,,,,,,,,,,,,,,,,,,,167,F,circle,0,0,,,3,,,,,,k,0.8659,7,0,7,0,1,,,,,,,,,,,,,,,,,,,,,,,,,,,,,,,,,,
298300,2022-12-07_14h13.11.401,vts_reward_expectancy_bt,2022.2.4,Win32,59.74786401,Chrome,1383,864,,,,,,,,,,,,,,,,,,,,,,,146,B,circle,1,1,,,3,,,,,,j,0.5506,8,0,8,0,1,,,,,,,,,,,,,,,,,,,,,,,,,,,,,,,,,,
298300,2022-12-07_14h13.11.401,vts_reward_expectancy_bt,2022.2.4,Win32,59.74786401,Chrome,1383,864,,,,,,,,,,,,,,,,,,,,,,,139,Y,star,1,0,,,3,,,,,,k,0.6696,9,0,9,0,1,,,,,,,,,,,,,,,,,,,,,,,,,,,,,,,,,,
298300,2022-12-07_14h13.11.401,vts_reward_expectancy_bt,2022.2.4,Win32,59.74786401,Chrome,1383,864,,,,,,,,,,,,,,,,,,,,,,,125,S,hexagon,0,0,,,4,,,,,,,,0,0,0,0,1,,,,,,,,,,,,,,,,,,,,,,,,,,,,,,,,,,
298300,2022-12-07_14h13.11.401,vts_reward_expectancy_bt,2022.2.4,Win32,59.74786401,Chrome,1383,864,,,,,,,,,,,,,,,,,,,,,,,132,Y,triangle,1,1,,,4,,,,,,k,0.918,1,0,1,0,1,,,,,,,,,,,,,,,,,,,,,,,,,,,,,,,,,,
298300,2022-12-07_14h13.11.401,vts_reward_expectancy_bt,2022.2.4,Win32,59.74786401,Chrome,1383,864,,,,,,,,,,,,,,,,,,,,,,,167,H,star,0,0,,,4,,,,,,k,0.5498,2,0,2,0,1,,,,,,,,,,,,,,,,,,,,,,,,,,,,,,,,,,
298300,2022-12-07_14h13.11.401,vts_reward_expectancy_bt,2022.2.4,Win32,59.74786401,Chrome,1383,864,,,,,,,,,,,,,,,,,,,,,,,181,B,circle,1,1,,,4,,,,,,j,0.849,3,0,3,0,1,,,,,,,,,,,,,,,,,,,,,,,,,,,,,,,,,,
298300,2022-12-07_14h13.11.401,vts_reward_expectancy_bt,2022.2.4,Win32,59.74786401,Chrome,1383,864,,,,,,,,,,,,,,,,,,,,,,,160,F,hexagon,1,0,,,4,,,,,,j,0.6662,4,0,4,0,1,,,,,,,,,,,,,,,,,,,,,,,,,,,,,,,,,,
298300,2022-12-07_14h13.11.401,vts_reward_expectancy_bt,2022.2.4,Win32,59.74786401,Chrome,1383,864,,,,,,,,,,,,,,,,,,,,,,,174,W,triangle,1,0,,,4,,,,,,k,0.5166,5,0,5,0,1,,,,,,,,,,,,,,,,,,,,,,,,,,,,,,,,,,
298300,2022-12-07_14h13.11.401,vts_reward_expectancy_bt,2022.2.4,Win32,59.74786401,Chrome,1383,864,,,,,,,,,,,,,,,,,,,,,,,139,D,star,1,0,,,4,,,,,,j,0.5016,6,0,6,0,1,,,,,,,,,,,,,,,,,,,,,,,,,,,,,,,,,,
298300,2022-12-07_14h13.11.401,vts_reward_expectancy_bt,2022.2.4,Win32,59.74786401,Chrome,1383,864,,,,,,,,,,,,,,,,,,,,,,,146,U,circle,1,0,,,4,,,,,,k,0.5834,7,0,7,0,1,,,,,,,,,,,,,,,,,,,,,,,,,,,,,,,,,,
298300,2022-12-07_14h13.11.401,vts_reward_expectancy_bt,2022.2.4,Win32,59.74786401,Chrome,1383,864,,,,,,,,,,,,,,,,,,,,,,,125,S,star,1,0,,,4,,,,,,k,1.0012,8,0,8,0,1,,,,,,,,,,,,,,,,,,,,,,,,,,,,,,,,,,
298300,2022-12-07_14h13.11.401,vts_reward_expectancy_bt,2022.2.4,Win32,59.74786401,Chrome,1383,864,,,,,,,,,,,,,,,,,,,,,,,132,Y,hexagon,1,0,,,4,,,,,,k,0.5685,9,0,9,0,1,,,,,,,,,,,,,,,,,,,,,,,,,,,,,,,,,,
298300,2022-12-07_14h13.11.401,vts_reward_expectancy_bt,2022.2.4,Win32,59.74786401,Chrome,1383,864,,,,,0,621,,,,,,,,,,,,,,,,,125,Y,triangle,1,0,,,5,,,,,,,,,,,,,-1,letter,NA,k,1.818,vtsPrac,0,0,0,0,1,,,,,,,,,,,,,,,,,,,,,,,
298300,2022-12-07_14h13.11.401,vts_reward_expectancy_bt,2022.2.4,Win32,59.74786401,Chrome,1383,864,,,,,0,621,,,,,,,,,,,,,,,,,139,B,circle,1,0,,,5,,,,,,,,,,,,,repeat,letter,lettRpt,j,0.8329,vtsPrac,1,0,1,0,1,,,,,,,,,,,,,,,,,,,,,,,
298300,2022-12-07_14h13.11.401,vts_reward_expectancy_bt,2022.2.4,Win32,59.74786401,Chrome,1383,864,,,,,0,621,,,,,,,,,,,,,,,,,167,S,triangle,1,0,,,5,,,,,,,,,,,,,repeat,letter,lettRpt,k,0.8502,vtsPrac,2,0,2,0,1,,,,,,,,,,,,,,,,,,,,,,,
298300,2022-12-07_14h13.11.401,vts_reward_expectancy_bt,2022.2.4,Win32,59.74786401,Chrome,1383,864,,,,,0,621,,,,,,,,,,,,,,,,,146,U,circle,1,0,,,5,,,,,,,,,,,,,repeat,letter,lettRpt,k,0.6059,vtsPrac,3,0,3,0,1,,,,,,,,,,,,,,,,,,,,,,,
298300,2022-12-07_14h13.11.401,vts_reward_expectancy_bt,2022.2.4,Win32,59.74786401,Chrome,1383,864,,,,,0,621,,,,,,,,,,,,,,,,,125,Y,hexagon,1,0,,,5,,,,,,,,,,,,,switch,number,numSwt,d,0.5011,vtsPrac,4,0,4,0,1,,,,,,,,,,,,,,,,,,,,,,,
298300,2022-12-07_14h13.11.401,vts_reward_expectancy_bt,2022.2.4,Win32,59.74786401,Chrome,1383,864,,,,,0,621,,,,,,,,,,,,,,,,,139,B,triangle,1,0,,,5,,,,,,,,,,,,,repeat,number,numRpt,d,0.5182,vtsPrac,5,0,5,0,1,,,,,,,,,,,,,,,,,,,,,,,
298300,2022-12-07_14h13.11.401,vts_reward_expectancy_bt,2022.2.4,Win32,59.74786401,Chrome,1383,864,,,,,0,621,,,,,,,,,,,,,,,,,167,S,circle,1,0,,,5,,,,,,,,,,,,,repeat,number,numRpt,f,0.6349,vtsPrac,6,0,6,0,1,,,,,,,,,,,,,,,,,,,,,,,
298300,2022-12-07_14h13.11.401,vts_reward_expectancy_bt,2022.2.4,Win32,59.74786401,Chrome,1383,864,,,,,0,621,,,,,,,,,,,,,,,,,146,U,hexagon,1,0,,,5,,,,,,,,,,,,,repeat,number,numRpt,d,0.4833,vtsPrac,7,0,7,0,1,,,,,,,,,,,,,,,,,,,,,,,
298300,2022-12-07_14h13.11.401,vts_reward_expectancy_bt,2022.2.4,Win32,59.74786401,Chrome,1383,864,,,,,0,621,,,,,,,,,,,,,,,,,174,B,hexagon,1,0,,,5,,,,,,,,,,,,,repeat,number,numRpt,f,0.5855,vtsPrac,8,0,8,0,1,,,,,,,,,,,,,,,,,,,,,,,
298300,2022-12-07_14h13.11.401,vts_reward_expectancy_bt,2022.2.4,Win32,59.74786401,Chrome,1383,864,,,,,0,621,,,,,,,,,,,,,,,,,125,U,circle,1,0,,,5,,,,,,,,,,,,,switch,letter,lettSwt,k,0.5165,vtsPrac,9,0,9,0,1,,,,,,,,,,,,,,,,,,,,,,,
298300,2022-12-07_14h13.11.401,vts_reward_expectancy_bt,2022.2.4,Win32,59.74786401,Chrome,1383,864,,,,,0,621,,,,,,,,,,,,,,,,,146,F,triangle,0,0,,,5,,,,,,,,,,,,,repeat,letter,NA,k,0.7526,vtsPrac,10,0,10,0,1,,,,,,,,,,,,,,,,,,,,,,,
298300,2022-12-07_14h13.11.401,vts_reward_expectancy_bt,2022.2.4,Win32,59.74786401,Chrome,1383,864,,,,,0,621,,,,,,,,,,,,,,,,,132,H,circle,1,1,,,5,,,,,,,,,,,,,switch,number,numSwt,d,0.4855,vtsPrac,11,0,11,0,1,,,,,,,,,,,,,,,,,,,,,,,
298300,2022-12-07_14h13.11.401,vts_reward_expectancy_bt,2022.2.4,Win32,59.74786401,Chrome,1383,864,,,,,0,621,,,,,,,,,,,,,,,,,125,W,hexagon,1,0,,,5,,,,,,,,,,,,,repeat,number,numRpt,d,0.4339,vtsPrac,12,0,12,0,1,,,,,,,,,,,,,,,,,,,,,,,
298300,2022-12-07_14h13.11.401,vts_reward_expectancy_bt,2022.2.4,Win32,59.74786401,Chrome,1383,864,,,,,0,621,,,,,,,,,,,,,,,,,174,H,circle,1,0,,,5,,,,,,,,,,,,,repeat,number,numRpt,f,0.4995,vtsPrac,13,0,13,0,1,,,,,,,,,,,,,,,,,,,,,,,
298300,2022-12-07_14h13.11.401,vts_reward_expectancy_bt,2022.2.4,Win32,59.74786401,Chrome,1383,864,,,,,0,621,,,,,,,,,,,,,,,,,167,U,star,1,0,,,5,,,,,,,,,,,,,repeat,number,numRpt,f,0.7852,vtsPrac,14,0,14,0,1,,,,,,,,,,,,,,,,,,,,,,,
298300,2022-12-07_14h13.11.401,vts_reward_expectancy_bt,2022.2.4,Win32,59.74786401,Chrome,1383,864,,,,,0,621,,,,,,,,,,,,,,,,,132,F,hexagon,1,0,,,5,,,,,,,,,,,,,repeat,number,numRpt,d,0.685,vtsPrac,15,0,15,0,1,,,,,,,,,,,,,,,,,,,,,,,
298300,2022-12-07_14h13.11.401,vts_reward_expectancy_bt,2022.2.4,Win32,59.74786401,Chrome,1383,864,,,,,0,621,,,,,,,,,,,,,,,,,160,U,triangle,1,0,,,5,,,,,,,,,,,,,switch,letter,lettSwt,k,0.532,vtsPrac,16,0,16,0,1,,,,,,,,,,,,,,,,,,,,,,,
298300,2022-12-07_14h13.11.401,vts_reward_expectancy_bt,2022.2.4,Win32,59.74786401,Chrome,1383,864,,,,,0,621,,,,,,,,,,,,,,,,,132,D,circle,1,0,,,5,,,,,,,,,,,,,repeat,letter,lettRpt,j,0.3529,vtsPrac,17,0,17,0,1,,,,,,,,,,,,,,,,,,,,,,,
298300,2022-12-07_14h13.11.401,vts_reward_expectancy_bt,2022.2.4,Win32,59.74786401,Chrome,1383,864,,,,,0,621,,,,,,,,,,,,,,,,,139,W,triangle,1,0,,,5,,,,,,,,,,,,,repeat,letter,lettRpt,k,0.418,vtsPrac,18,0,18,0,1,,,,,,,,,,,,,,,,,,,,,,,
298300,2022-12-07_14h13.11.401,vts_reward_expectancy_bt,2022.2.4,Win32,59.74786401,Chrome,1383,864,,,,,0,621,,,,,,,,,,,,,,,,,181,S,star,1,0,,,5,,,,,,,,,,,,,repeat,letter,lettRpt,k,2.0027,vtsPrac,19,0,19,0,1,,,,,,,,,,,,,,,,,,,,,,,
298300,2022-12-07_14h13.11.401,vts_reward_expectancy_bt,2022.2.4,Win32,59.74786401,Chrome,1383,864,,,,,0,621,,,,,,,,,,,,,,,,,139,W,hexagon,1,0,,,5,,,,,,,,,,,,,repeat,letter,lettRpt,k,0.6997,vtsPrac,20,0,20,0,1,,,,,,,,,,,,,,,,,,,,,,,
298300,2022-12-07_14h13.11.401,vts_reward_expectancy_bt,2022.2.4,Win32,59.74786401,Chrome,1383,864,,,,,0,621,,,,,,,,,,,,,,,,,174,B,triangle,0,0,,,5,,,,,,,,,,,,,repeat,letter,NA,k,0.5521,vtsPrac,21,0,21,0,1,,,,,,,,,,,,,,,,,,,,,,,
298300,2022-12-07_14h13.11.401,vts_reward_expectancy_bt,2022.2.4,Win32,59.74786401,Chrome,1383,864,,,,,0,621,,,,,,,,,,,,,,,,,146,D,triangle,1,1,,,5,,,,,,,,,,,,,switch,number,numSwt,d,0.7499,vtsPrac,22,0,22,0,1,,,,,,,,,,,,,,,,,,,,,,,
298300,2022-12-07_14h13.11.401,vts_reward_expectancy_bt,2022.2.4,Win32,59.74786401,Chrome,1383,864,,,,,0,621,,,,,,,,,,,,,,,,,160,Y,hexagon,1,0,,,5,,,,,,,,,,,,,repeat,number,numRpt,f,0.5842,vtsPrac,23,0,23,0,1,,,,,,,,,,,,,,,,,,,,,,,
298300,2022-12-07_14h13.11.401,vts_reward_expectancy_bt,2022.2.4,Win32,59.74786401,Chrome,1383,864,,,,,0,621,,,,,,,,,,,,,,,,,174,D,hexagon,1,0,,,5,,,,,,,,,,,,,repeat,number,numRpt,f,0.4663,vtsPrac,24,0,24,0,1,,,,,,,,,,,,,,,,,,,,,,,
298300,2022-12-07_14h13.11.401,vts_reward_expectancy_bt,2022.2.4,Win32,59.74786401,Chrome,1383,864,,,,,0,621,,,,,,,,,,,,,,,,,181,Y,star,-1,0,,,5,,,,,,,,,,,,,switch,no_choice,NA,,,vtsPrac,25,0,25,0,1,,,,,,,,,,,,,,,,,,,,,,,
298300,2022-12-07_14h13.11.401,vts_reward_expectancy_bt,2022.2.4,Win32,59.74786401,Chrome,1383,864,,,,,0,621,,,,,,,,,,,,,,,,,167,W,hexagon,-1,0,,,5,,,,,,,,,,,,,repeat,no_choice,NA,,,vtsPrac,26,0,26,0,1,,,,,,,,,,,,,,,,,,,,,,,
298300,2022-12-07_14h13.11.401,vts_reward_expectancy_bt,2022.2.4,Win32,59.74786401,Chrome,1383,864,,,,,0,621,,,,,,,,,,,,,,,,,139,U,circle,0,0,,,5,,,,,,,,,,,,,switch,number,NA,f,0.899,vtsPrac,27,0,27,0,1,,,,,,,,,,,,,,,,,,,,,,,
298300,2022-12-07_14h13.11.401,vts_reward_expectancy_bt,2022.2.4,Win32,59.74786401,Chrome,1383,864,,,,,0,621,,,,,,,,,,,,,,,,,139,S,triangle,0,1,,,5,,,,,,,,,,,,,repeat,number,NA,f,1.7679,vtsPrac,28,0,28,0,1,,,,,,,,,,,,,,,,,,,,,,,
298300,2022-12-07_14h13.11.401,vts_reward_expectancy_bt,2022.2.4,Win32,59.74786401,Chrome,1383,864,,,,,0,621,,,,,,,,,,,,,,,,,174,B,circle,1,1,,,5,,,,,,,,,,,,,repeat,number,numRpt,f,0.751,vtsPrac,29,0,29,0,1,,,,,,,,,,,,,,,,,,,,,,,
298300,2022-12-07_14h13.11.401,vts_reward_expectancy_bt,2022.2.4,Win32,59.74786401,Chrome,1383,864,,,,,0,621,,,,,,,,,,,,,,,,,125,F,circle,1,0,,,5,,,,,,,,,,,,,repeat,number,numRpt,d,0.8354,vtsPrac,30,0,30,0,1,,,,,,,,,,,,,,,,,,,,,,,
298300,2022-12-07_14h13.11.401,vts_reward_expectancy_bt,2022.2.4,Win32,59.74786401,Chrome,1383,864,,,,,0,621,,,,,,,,,,,,,,,,,160,Y,triangle,1,0,,,5,,,,,,,,,,,,,repeat,number,numRpt,f,1.7155,vtsPrac,31,0,31,0,1,,,,,,,,,,,,,,,,,,,,,,,
298300,2022-12-07_14h13.11.401,vts_reward_expectancy_bt,2022.2.4,Win32,59.74786401,Chrome,1383,864,,,,,,,,,,,,,,,,,,,,,,,,,,,,,,,,,,,,,,,,,,,,,,,,,,,,,,,,,,,,,,,,,,,,,,,,,,,,
298300,2022-12-07_14h13.11.401,vts_reward_expectancy_bt,2022.2.4,Win32,59.74786401,Chrome,1383,864,,,,,,,,,,,,,,,,,,,,,,,,,,,,,,,,,,,,,,,,,,,,,,,,,,,,,,,,,,,,,,,,,,,,,,,,,,,,
298300,2022-12-07_14h13.11.401,vts_reward_expectancy_bt,2022.2.4,Win32,59.74786401,Chrome,1383,864,,,,,0,621,,,,,,,,,,,,,,,,,139,S,hexagon,1,0,,,,,,,,,,,,,,,,repeat,number,numRpt,d,1.9559,noRew,,,,,,0,0,0,0,0,1,,,,,,,,,,,,,,,,,
298300,2022-12-07_14h13.11.401,vts_reward_expectancy_bt,2022.2.4,Win32,59.74786401,Chrome,1383,864,,,,,0,621,,,,,,,,,,,,,,,,,132,D,triangle,1,0,,,,,,,,,,,,,,,,repeat,number,numRpt,d,0.8327,noRew,,,,,,0,1,0,1,0,1,,,,,,,,,,,,,,,,,
298300,2022-12-07_14h13.11.401,vts_reward_expectancy_bt,2022.2.4,Win32,59.74786401,Chrome,1383,864,,,,,0,621,,,,,,,,,,,,,,,,,174,U,hexagon,1,0,,,,,,,,,,,,,,,,repeat,number,numRpt,f,0.4514,noRew,,,,,,0,2,0,2,0,1,,,,,,,,,,,,,,,,,
298300,2022-12-07_14h13.11.401,vts_reward_expectancy_bt,2022.2.4,Win32,59.74786401,Chrome,1383,864,,,,,0,621,,,,,,,,,,,,,,,,,167,W,triangle,1,0,,,,,,,,,,,,,,,,switch,letter,lettSwt,k,0.7883,noRew,,,,,,0,3,0,3,0,1,,,,,,,,,,,,,,,,,
298300,2022-12-07_14h13.11.401,vts_reward_expectancy_bt,2022.2.4,Win32,59.74786401,Chrome,1383,864,,,,,0,621,,,,,,,,,,,,,,,,,139,S,triangle,1,0,,,,,,,,,,,,,,,,switch,number,numSwt,d,0.7699,noRew,,,,,,0,4,0,4,0,1,,,,,,,,,,,,,,,,,
298300,2022-12-07_14h13.11.401,vts_reward_expectancy_bt,2022.2.4,Win32,59.74786401,Chrome,1383,864,,,,,0,621,,,,,,,,,,,,,,,,,132,D,circle,1,0,,,,,,,,,,,,,,,,switch,letter,lettSwt,j,0.4344,noRew,,,,,,0,5,0,5,0,1,,,,,,,,,,,,,,,,,
298300,2022-12-07_14h13.11.401,vts_reward_expectancy_bt,2022.2.4,Win32,59.74786401,Chrome,1383,864,,,,,0,621,,,,,,,,,,,,,,,,,174,U,star,1,0,,,,,,,,,,,,,,,,repeat,letter,lettRpt,k,0.4838,noRew,,,,,,0,6,0,6,0,1,,,,,,,,,,,,,,,,,
298300,2022-12-07_14h13.11.401,vts_reward_expectancy_bt,2022.2.4,Win32,59.74786401,Chrome,1383,864,,,,,0,621,,,,,,,,,,,,,,,,,167,W,hexagon,1,0,,,,,,,,,,,,,,,,repeat,letter,lettRpt,k,0.4166,noRew,,,,,,0,7,0,7,0,1,,,,,,,,,,,,,,,,,
298300,2022-12-07_14h13.11.401,vts_reward_expectancy_bt,2022.2.4,Win32,59.74786401,Chrome,1383,864,,,,,0,621,,,,,,,,,,,,,,,,,125,F,hexagon,1,0,,,,,,,,,,,,,,,,switch,number,numSwt,d,0.4338,noRew,,,,,,0,8,0,8,0,1,,,,,,,,,,,,,,,,,
298300,2022-12-07_14h13.11.401,vts_reward_expectancy_bt,2022.2.4,Win32,59.74786401,Chrome,1383,864,,,,,0,621,,,,,,,,,,,,,,,,,167,S,circle,0,0,,,,,,,,,,,,,,,,repeat,number,NA,d,0.9517,noRew,,,,,,0,9,0,9,0,1,,,,,,,,,,,,,,,,,
298300,2022-12-07_14h13.11.401,vts_reward_expectancy_bt,2022.2.4,Win32,59.74786401,Chrome,1383,864,,,,,0,621,,,,,,,,,,,,,,,,,139,W,star,1,1,,,,,,,,,,,,,,,,switch,letter,lettSwt,k,1.1838,noRew,,,,,,0,10,0,10,0,1,,,,,,,,,,,,,,,,,
298300,2022-12-07_14h13.11.401,vts_reward_expectancy_bt,2022.2.4,Win32,59.74786401,Chrome,1383,864,,,,,0,621,,,,,,,,,,,,,,,,,146,H,triangle,1,0,,,,,,,,,,,,,,,,switch,number,numSwt,d,0.6862,noRew,,,,,,0,11,0,11,0,1,,,,,,,,,,,,,,,,,
298300,2022-12-07_14h13.11.401,vts_reward_expectancy_bt,2022.2.4,Win32,59.74786401,Chrome,1383,864,,,,,0,621,,,,,,,,,,,,,,,,,174,D,triangle,1,0,,,,,,,,,,,,,,,,repeat,number,numRpt,f,0.3839,noRew,,,,,,0,12,0,12,0,1,,,,,,,,,,,,,,,,,
298300,2022-12-07_14h13.11.401,vts_reward_expectancy_bt,2022.2.4,Win32,59.74786401,Chrome,1383,864,,,,,0,621,,,,,,,,,,,,,,,,,132,F,hexagon,0,0,,,,,,,,,,,,,,,,switch,letter,NA,k,0.5167,noRew,,,,,,0,13,0,13,0,1,,,,,,,,,,,,,,,,,
298300,2022-12-07_14h13.11.401,vts_reward_expectancy_bt,2022.2.4,Win32,59.74786401,Chrome,1383,864,,,,,0,621,,,,,,,,,,,,,,,,,181,S,hexagon,1,1,,,,,,,,,,,,,,,,repeat,letter,lettRpt,k,0.7017,noRew,,,,,,0,14,0,14,0,1,,,,,,,,,,,,,,,,,
298300,2022-12-07_14h13.11.401,vts_reward_expectancy_bt,2022.2.4,Win32,59.74786401,Chrome,1383,864,,,,,0,621,,,,,,,,,,,,,,,,,160,H,star,1,0,,,,,,,,,,,,,,,,switch,number,numSwt,f,0.5186,noRew,,,,,,0,15,0,15,0,1,,,,,,,,,,,,,,,,,
298300,2022-12-07_14h13.11.401,vts_reward_expectancy_bt,2022.2.4,Win32,59.74786401,Chrome,1383,864,,,,,0,621,,,,,,,,,,,,,,,,,146,S,hexagon,1,0,,,,,,,,,,,,,,,,repeat,number,numRpt,d,0.5661,noRew,,,,,,0,16,0,16,0,1,,,,,,,,,,,,,,,,,
298300,2022-12-07_14h13.11.401,vts_reward_expectancy_bt,2022.2.4,Win32,59.74786401,Chrome,1383,864,,,,,0,621,,,,,,,,,,,,,,,,,181,W,circle,0,0,,,,,,,,,,,,,,,,repeat,number,NA,d,0.7318,noRew,,,,,,0,17,0,17,0,1,,,,,,,,,,,,,,,,,
298300,2022-12-07_14h13.11.401,vts_reward_expectancy_bt,2022.2.4,Win32,59.74786401,Chrome,1383,864,,,,,0,621,,,,,,,,,,,,,,,,,174,D,star,1,1,,,,,,,,,,,,,,,,repeat,number,numRpt,f,1.0183,noRew,,,,,,0,18,0,18,0,1,,,,,,,,,,,,,,,,,
298300,2022-12-07_14h13.11.401,vts_reward_expectancy_bt,2022.2.4,Win32,59.74786401,Chrome,1383,864,,,,,0,621,,,,,,,,,,,,,,,,,160,Y,circle,0,0,,,,,,,,,,,,,,,,switch,letter,NA,j,0.9006,noRew,,,,,,0,19,0,19,0,1,,,,,,,,,,,,,,,,,
298300,2022-12-07_14h13.11.401,vts_reward_expectancy_bt,2022.2.4,Win32,59.74786401,Chrome,1383,864,,,,,0,621,,,,,,,,,,,,,,,,,160,H,star,1,1,,,,,,,,,,,,,,,,repeat,letter,lettRpt,j,0.6837,noRew,,,,,,0,20,0,20,0,1,,,,,,,,,,,,,,,,,
298300,2022-12-07_14h13.11.401,vts_reward_expectancy_bt,2022.2.4,Win32,59.74786401,Chrome,1383,864,,,,,0,621,,,,,,,,,,,,,,,,,146,Y,triangle,1,0,,,,,,,,,,,,,,,,switch,number,numSwt,d,0.5847,noRew,,,,,,0,21,0,21,0,1,,,,,,,,,,,,,,,,,
298300,2022-12-07_14h13.11.401,vts_reward_expectancy_bt,2022.2.4,Win32,59.74786401,Chrome,1383,864,,,,,0,621,,,,,,,,,,,,,,,,,181,U,triangle,1,0,,,,,,,,,,,,,,,,switch,letter,lettSwt,k,0.7201,noRew,,,,,,0,22,0,22,0,1,,,,,,,,,,,,,,,,,
298300,2022-12-07_14h13.11.401,vts_reward_expectancy_bt,2022.2.4,Win32,59.74786401,Chrome,1383,864,,,,,0,621,,,,,,,,,,,,,,,,,139,S,circle,1,0,,,,,,,,,,,,,,,,repeat,letter,lettRpt,k,0.9359,noRew,,,,,,0,23,0,23,0,1,,,,,,,,,,,,,,,,,
298300,2022-12-07_14h13.11.401,vts_reward_expectancy_bt,2022.2.4,Win32,59.74786401,Chrome,1383,864,,,,,0,621,,,,,,,,,,,,,,,,,125,Y,hexagon,1,0,,,,,,,,,,,,,,,,switch,number,numSwt,d,0.6504,noRew,,,,,,0,24,0,24,0,1,,,,,,,,,,,,,,,,,
298300,2022-12-07_14h13.11.401,vts_reward_expectancy_bt,2022.2.4,Win32,59.74786401,Chrome,1383,864,,,,,0,621,,,,,,,,,,,,,,,,,160,W,circle,1,0,,,,,,,,,,,,,,,,switch,letter,lettSwt,k,0.8513,noRew,,,,,,0,25,0,25,0,1,,,,,,,,,,,,,,,,,
298300,2022-12-07_14h13.11.401,vts_reward_expectancy_bt,2022.2.4,Win32,59.74786401,Chrome,1383,864,,,,,0,621,,,,,,,,,,,,,,,,,167,S,hexagon,1,0,,,,,,,,,,,,,,,,switch,number,numSwt,f,1.2664,noRew,,,,,,0,26,0,26,0,1,,,,,,,,,,,,,,,,,
298300,2022-12-07_14h13.11.401,vts_reward_expectancy_bt,2022.2.4,Win32,59.74786401,Chrome,1383,864,,,,,0,621,,,,,,,,,,,,,,,,,132,H,star,-1,0,,,,,,,,,,,,,,,,switch,no_choice,NA,,,noRew,,,,,,0,27,0,27,0,1,,,,,,,,,,,,,,,,,
298300,2022-12-07_14h13.11.401,vts_reward_expectancy_bt,2022.2.4,Win32,59.74786401,Chrome,1383,864,,,,,0,621,,,,,,,,,,,,,,,,,125,U,triangle,0,0,,,,,,,,,,,,,,,,switch,number,NA,f,0.7658,noRew,,,,,,0,28,0,28,0,1,,,,,,,,,,,,,,,,,
298300,2022-12-07_14h13.11.401,vts_reward_expectancy_bt,2022.2.4,Win32,59.74786401,Chrome,1383,864,,,,,0,621,,,,,,,,,,,,,,,,,181,Y,hexagon,1,1,,,,,,,,,,,,,,,,repeat,number,numRpt,f,0.9349,noRew,,,,,,0,29,0,29,0,1,,,,,,,,,,,,,,,,,
298300,2022-12-07_14h13.11.401,vts_reward_expectancy_bt,2022.2.4,Win32,59.74786401,Chrome,1383,864,,,,,0,621,,,,,,,,,,,,,,,,,132,W,triangle,1,0,,,,,,,,,,,,,,,,switch,letter,lettSwt,k,1.0847,noRew,,,,,,0,30,0,30,0,1,,,,,,,,,,,,,,,,,
298300,2022-12-07_14h13.11.401,vts_reward_expectancy_bt,2022.2.4,Win32,59.74786401,Chrome,1383,864,,,,,0,621,,,,,,,,,,,,,,,,,174,F,star,1,0,,,,,,,,,,,,,,,,switch,number,numSwt,f,0.6835,noRew,,,,,,0,31,0,31,0,1,,,,,,,,,,,,,,,,,
298300,2022-12-07_14h13.11.401,vts_reward_expectancy_bt,2022.2.4,Win32,59.74786401,Chrome,1383,864,,,,,0,621,,,,,,,,,,,,,,,,,167,S,hexagon,1,0,,,,,,,,,,,,,,,,repeat,number,numRpt,f,0.6668,noRew,,,,,,0,32,0,32,0,1,,,,,,,,,,,,,,,,,
298300,2022-12-07_14h13.11.401,vts_reward_expectancy_bt,2022.2.4,Win32,59.74786401,Chrome,1383,864,,,,,0,621,,,,,,,,,,,,,,,,,146,B,circle,1,0,,,,,,,,,,,,,,,,switch,letter,lettSwt,j,2.8857,noRew,,,,,,0,33,0,33,0,1,,,,,,,,,,,,,,,,,
298300,2022-12-07_14h13.11.401,vts_reward_expectancy_bt,2022.2.4,Win32,59.74786401,Chrome,1383,864,,,,,0,621,,,,,,,,,,,,,,,,,139,U,circle,1,0,,,,,,,,,,,,,,,,repeat,letter,lettRpt,k,0.583,noRew,,,,,,0,34,0,34,0,1,,,,,,,,,,,,,,,,,
298300,2022-12-07_14h13.11.401,vts_reward_expectancy_bt,2022.2.4,Win32,59.74786401,Chrome,1383,864,,,,,0,621,,,,,,,,,,,,,,,,,174,D,triangle,1,0,,,,,,,,,,,,,,,,switch,number,numSwt,f,0.4003,noRew,,,,,,0,35,0,35,0,1,,,,,,,,,,,,,,,,,
298300,2022-12-07_14h13.11.401,vts_reward_expectancy_bt,2022.2.4,Win32,59.74786401,Chrome,1383,864,,,,,0,621,,,,,,,,,,,,,,,,,160,U,hexagon,0,0,,,,,,,,,,,,,,,,switch,letter,NA,j,1.3844,noRew,,,,,,0,36,0,36,0,1,,,,,,,,,,,,,,,,,
298300,2022-12-07_14h13.11.401,vts_reward_expectancy_bt,2022.2.4,Win32,59.74786401,Chrome,1383,864,,,,,0,621,,,,,,,,,,,,,,,,,146,B,triangle,-1,1,,,,,,,,,,,,,,,,switch,no_choice,NA,,,noRew,,,,,,0,37,0,37,0,1,,,,,,,,,,,,,,,,,
298300,2022-12-07_14h13.11.401,vts_reward_expectancy_bt,2022.2.4,Win32,59.74786401,Chrome,1383,864,,,,,0,621,,,,,,,,,,,,,,,,,139,Y,star,1,0,,,,,,,,,,,,,,,,switch,number,numSwt,d,0.5359,noRew,,,,,,0,38,0,38,0,1,,,,,,,,,,,,,,,,,
298300,2022-12-07_14h13.11.401,vts_reward_expectancy_bt,2022.2.4,Win32,59.74786401,Chrome,1383,864,,,,,0,621,,,,,,,,,,,,,,,,,132,D,hexagon,0,0,,,,,,,,,,,,,,,,repeat,number,NA,f,0.97,noRew,,,,,,0,39,0,39,0,1,,,,,,,,,,,,,,,,,
298300,2022-12-07_14h13.11.401,vts_reward_expectancy_bt,2022.2.4,Win32,59.74786401,Chrome,1383,864,,,,,0,621,,,,,,,,,,,,,,,,,139,Y,circle,1,1,,,,,,,,,,,,,,,,switch,letter,lettSwt,k,1.519,noRew,,,,,,0,40,0,40,0,1,,,,,,,,,,,,,,,,,
298300,2022-12-07_14h13.11.401,vts_reward_expectancy_bt,2022.2.4,Win32,59.74786401,Chrome,1383,864,,,,,0,621,,,,,,,,,,,,,,,,,146,F,hexagon,1,0,,,,,,,,,,,,,,,,switch,number,numSwt,d,1.4193,noRew,,,,,,0,41,0,41,0,1,,,,,,,,,,,,,,,,,
298300,2022-12-07_14h13.11.401,vts_reward_expectancy_bt,2022.2.4,Win32,59.74786401,Chrome,1383,864,,,,,0,621,,,,,,,,,,,,,,,,,174,S,hexagon,1,0,,,,,,,,,,,,,,,,repeat,number,numRpt,f,2.9339,noRew,,,,,,0,42,0,42,0,1,,,,,,,,,,,,,,,,,
298300,2022-12-07_14h13.11.401,vts_reward_expectancy_bt,2022.2.4,Win32,59.74786401,Chrome,1383,864,,,,,0,621,,,,,,,,,,,,,,,,,181,U,circle,1,0,,,,,,,,,,,,,,,,repeat,number,numRpt,f,1.2182,noRew,,,,,,0,43,0,43,0,1,,,,,,,,,,,,,,,,,
298300,2022-12-07_14h13.11.401,vts_reward_expectancy_bt,2022.2.4,Win32,59.74786401,Chrome,1383,864,,,,,0,621,,,,,,,,,,,,,,,,,167,F,star,1,0,,,,,,,,,,,,,,,,switch,letter,lettSwt,j,0.7678,noRew,,,,,,0,44,0,44,0,1,,,,,,,,,,,,,,,,,
298300,2022-12-07_14h13.11.401,vts_reward_expectancy_bt,2022.2.4,Win32,59.74786401,Chrome,1383,864,,,,,0,621,,,,,,,,,,,,,,,,,174,S,triangle,1,0,,,,,,,,,,,,,,,,repeat,letter,lettRpt,k,0.8021,noRew,,,,,,0,45,0,45,0,1,,,,,,,,,,,,,,,,,
298300,2022-12-07_14h13.11.401,vts_reward_expectancy_bt,2022.2.4,Win32,59.74786401,Chrome,1383,864,,,,,0,621,,,,,,,,,,,,,,,,,181,D,star,1,0,,,,,,,,,,,,,,,,switch,number,numSwt,f,0.4692,noRew,,,,,,0,46,0,46,0,1,,,,,,,,,,,,,,,,,
298300,2022-12-07_14h13.11.401,vts_reward_expectancy_bt,2022.2.4,Win32,59.74786401,Chrome,1383,864,,,,,0,621,,,,,,,,,,,,,,,,,160,U,hexagon,1,0,,,,,,,,,,,,,,,,repeat,number,numRpt,f,0.4999,noRew,,,,,,0,47,0,47,0,1,,,,,,,,,,,,,,,,,
298300,2022-12-07_14h13.11.401,vts_reward_expectancy_bt,2022.2.4,Win32,59.74786401,Chrome,1383,864,,,,,0,621,,,,,,,,,,,,,,,,,139,S,triangle,1,0,,,,,,,,,,,,,,,,switch,letter,lettSwt,k,0.5333,noRew,,,,,,0,48,0,48,0,1,,,,,,,,,,,,,,,,,
298300,2022-12-07_14h13.11.401,vts_reward_expectancy_bt,2022.2.4,Win32,59.74786401,Chrome,1383,864,,,,,0,621,,,,,,,,,,,,,,,,,132,F,hexagon,1,0,,,,,,,,,,,,,,,,repeat,letter,lettRpt,j,0.7268,noRew,,,,,,0,49,0,49,0,1,,,,,,,,,,,,,,,,,
298300,2022-12-07_14h13.11.401,vts_reward_expectancy_bt,2022.2.4,Win32,59.74786401,Chrome,1383,864,,,,,0,621,,,,,,,,,,,,,,,,,174,B,hexagon,1,0,,,,,,,,,,,,,,,,repeat,letter,lettRpt,j,0.6327,noRew,,,,,,0,50,0,50,0,1,,,,,,,,,,,,,,,,,
298300,2022-12-07_14h13.11.401,vts_reward_expectancy_bt,2022.2.4,Win32,59.74786401,Chrome,1383,864,,,,,0,621,,,,,,,,,,,,,,,,,125,W,circle,1,0,,,,,,,,,,,,,,,,repeat,letter,lettRpt,k,1.2498,noRew,,,,,,0,51,0,51,0,1,,,,,,,,,,,,,,,,,
298300,2022-12-07_14h13.11.401,vts_reward_expectancy_bt,2022.2.4,Win32,59.74786401,Chrome,1383,864,,,,,0,621,,,,,,,,,,,,,,,,,181,D,star,1,0,,,,,,,,,,,,,,,,switch,number,numSwt,f,1.0349,noRew,,,,,,0,52,0,52,0,1,,,,,,,,,,,,,,,,,
298300,2022-12-07_14h13.11.401,vts_reward_expectancy_bt,2022.2.4,Win32,59.74786401,Chrome,1383,864,,,,,0,621,,,,,,,,,,,,,,,,,125,H,hexagon,0,0,,,,,,,,,,,,,,,,repeat,number,NA,f,0.8844,noRew,,,,,,0,53,0,53,0,1,,,,,,,,,,,,,,,,,
298300,2022-12-07_14h13.11.401,vts_reward_expectancy_bt,2022.2.4,Win32,59.74786401,Chrome,1383,864,,,,,0,621,,,,,,,,,,,,,,,,,146,Y,star,0,1,,,,,,,,,,,,,,,,repeat,number,NA,f,0.7501,noRew,,,,,,0,54,0,54,0,1,,,,,,,,,,,,,,,,,
298300,2022-12-07_14h13.11.401,vts_reward_expectancy_bt,2022.2.4,Win32,59.74786401,Chrome,1383,864,,,,,0,621,,,,,,,,,,,,,,,,,174,W,triangle,1,1,,,,,,,,,,,,,,,,switch,letter,lettSwt,k,0.5342,noRew,,,,,,0,55,0,55,0,1,,,,,,,,,,,,,,,,,
298300,2022-12-07_14h13.11.401,vts_reward_expectancy_bt,2022.2.4,Win32,59.74786401,Chrome,1383,864,,,,,0,621,,,,,,,,,,,,,,,,,160,S,hexagon,1,0,,,,,,,,,,,,,,,,switch,number,numSwt,f,0.4836,noRew,,,,,,0,56,0,56,0,1,,,,,,,,,,,,,,,,,
298300,2022-12-07_14h13.11.401,vts_reward_expectancy_bt,2022.2.4,Win32,59.74786401,Chrome,1383,864,,,,,0,621,,,,,,,,,,,,,,,,,132,H,circle,1,0,,,,,,,,,,,,,,,,repeat,number,numRpt,d,1.3009,noRew,,,,,,0,57,0,57,0,1,,,,,,,,,,,,,,,,,
298300,2022-12-07_14h13.11.401,vts_reward_expectancy_bt,2022.2.4,Win32,59.74786401,Chrome,1383,864,,,,,0,621,,,,,,,,,,,,,,,,,146,Y,circle,1,0,,,,,,,,,,,,,,,,repeat,number,numRpt,d,1.5839,noRew,,,,,,0,58,0,58,0,1,,,,,,,,,,,,,,,,,
298300,2022-12-07_14h13.11.401,vts_reward_expectancy_bt,2022.2.4,Win32,59.74786401,Chrome,1383,864,,,,,0,621,,,,,,,,,,,,,,,,,139,B,star,0,0,,,,,,,,,,,,,,,,repeat,number,NA,f,0.7345,noRew,,,,,,0,59,0,59,0,1,,,,,,,,,,,,,,,,,
298300,2022-12-07_14h13.11.401,vts_reward_expectancy_bt,2022.2.4,Win32,59.74786401,Chrome,1383,864,,,,,0,621,,,,,,,,,,,,,,,,,160,S,star,1,1,,,,,,,,,,,,,,,,repeat,number,numRpt,f,1.0844,noRew,,,,,,0,60,0,60,0,1,,,,,,,,,,,,,,,,,
298300,2022-12-07_14h13.11.401,vts_reward_expectancy_bt,2022.2.4,Win32,59.74786401,Chrome,1383,864,,,,,0,621,,,,,,,,,,,,,,,,,132,U,circle,1,0,,,,,,,,,,,,,,,,switch,letter,lettSwt,k,1.1463,noRew,,,,,,0,61,0,61,0,1,,,,,,,,,,,,,,,,,
298300,2022-12-07_14h13.11.401,vts_reward_expectancy_bt,2022.2.4,Win32,59.74786401,Chrome,1383,864,,,,,0,621,,,,,,,,,,,,,,,,,125,B,triangle,1,0,,,,,,,,,,,,,,,,repeat,letter,lettRpt,j,0.3681,noRew,,,,,,0,62,0,62,0,1,,,,,,,,,,,,,,,,,
298300,2022-12-07_14h13.11.401,vts_reward_expectancy_bt,2022.2.4,Win32,59.74786401,Chrome,1383,864,,,,,0,621,,,,,,,,,,,,,,,,,139,Y,hexagon,1,0,,,,,,,,,,,,,,,,repeat,letter,lettRpt,k,0.6344,noRew,,,,,,0,63,0,63,0,1,,,,,,,,,,,,,,,,,
298300,2022-12-07_14h13.11.401,vts_reward_expectancy_bt,2022.2.4,Win32,59.74786401,Chrome,1383,864,,,,,,,,,,,,,,,,,,,,,,,,,,,,,,,,,,,,,,,,,,,,,,,,,,,,,,,,,,,,,,,,,,,,,,,,,,,,
298300,2022-12-07_14h13.11.401,vts_reward_expectancy_bt,2022.2.4,Win32,59.74786401,Chrome,1383,864,,,,,0,621,,,,,,,,,,,,,,,,,167,Y,star,1,0,,,,,,,,,,,,,,,,switch,number,numSwt,f,0.6328,Hi,,,,,,0,,,,,,space,6.0549,low,0,0,0,0,1,,,,,,,,,
298300,2022-12-07_14h13.11.401,vts_reward_expectancy_bt,2022.2.4,Win32,59.74786401,Chrome,1383,864,,,,,0,621,,,,,,,,,,,,,,,,,146,F,circle,0,0,,,,,,,,,,,,,,,,repeat,number,NA,f,0.3522,Hi,,,,,,0,,,,,,,,low,1,0,1,0,1,,,,,,,,,
298300,2022-12-07_14h13.11.401,vts_reward_expectancy_bt,2022.2.4,Win32,59.74786401,Chrome,1383,864,,,,,1,622,,,,,,,,,,,,,,,,,181,W,triangle,1,1,,,,,,,,,,,,,,,,switch,letter,lettSwt,k,0.4673,Lo,,,,,,0,,,,,,,,low,2,0,2,0,1,,,,,,,,,
298300,2022-12-07_14h13.11.401,vts_reward_expectancy_bt,2022.2.4,Win32,59.74786401,Chrome,1383,864,,,,,1,623,,,,,,,,,,,,,,,,,132,U,hexagon,1,0,,,,,,,,,,,,,,,,repeat,letter,lettRpt,k,0.4813,Hi,,,,,,0,,,,,,,,low,3,0,3,0,1,,,,,,,,,
298300,2022-12-07_14h13.11.401,vts_reward_expectancy_bt,2022.2.4,Win32,59.74786401,Chrome,1383,864,,,,,0,623,,,,,,,,,,,,,,,,,139,S,star,0,0,,,,,,,,,,,,,,,,repeat,letter,NA,j,0.4178,Hi,,,,,,0,,,,,,,,low,4,0,4,0,1,,,,,,,,,
298300,2022-12-07_14h13.11.401,vts_reward_expectancy_bt,2022.2.4,Win32,59.74786401,Chrome,1383,864,,,,,10,633,,,,,,,,,,,,,,,,,125,B,circle,1,1,,,,,,,,,,,,,,,,switch,number,numSwt,d,0.728,Lo,,,,,,0,,,,,,,,low,5,0,5,0,1,,,,,,,,,
298300,2022-12-07_14h13.11.401,vts_reward_expectancy_bt,2022.2.4,Win32,59.74786401,Chrome,1383,864,,,,,1,634,,,,,,,,,,,,,,,,,160,D,triangle,1,0,,,,,,,,,,,,,,,,repeat,number,numRpt,f,0.4341,Lo,,,,,,0,,,,,,,,low,6,0,6,0,1,,,,,,,,,
298300,2022-12-07_14h13.11.401,vts_reward_expectancy_bt,2022.2.4,Win32,59.74786401,Chrome,1383,864,,,,,0,634,,,,,,,,,,,,,,,,,174,H,hexagon,0,0,,,,,,,,,,,,,,,,switch,letter,NA,k,0.469,Lo,,,,,,0,,,,,,,,low,7,0,7,0,1,,,,,,,,,
298300,2022-12-07_14h13.11.401,vts_reward_expectancy_bt,2022.2.4,Win32,59.74786401,Chrome,1383,864,,,,,10,644,,,,,,,,,,,,,,,,,167,Y,star,1,1,,,,,,,,,,,,,,,,repeat,letter,lettRpt,k,0.4822,Hi,,,,,,0,,,,,,,,low,8,0,8,0,1,,,,,,,,,
298300,2022-12-07_14h13.11.401,vts_reward_expectancy_bt,2022.2.4,Win32,59.74786401,Chrome,1383,864,,,,,0,644,,,,,,,,,,,,,,,,,146,F,hexagon,0,0,,,,,,,,,,,,,,,,repeat,letter,NA,k,0.7018,Hi,,,,,,0,,,,,,,,low,9,0,9,0,1,,,,,,,,,
298300,2022-12-07_14h13.11.401,vts_reward_expectancy_bt,2022.2.4,Win32,59.74786401,Chrome,1383,864,,,,,10,654,,,,,,,,,,,,,,,,,181,W,circle,1,1,,,,,,,,,,,,,,,,repeat,letter,lettRpt,k,0.4674,Lo,,,,,,0,,,,,,,,low,10,0,10,0,1,,,,,,,,,
298300,2022-12-07_14h13.11.401,vts_reward_expectancy_bt,2022.2.4,Win32,59.74786401,Chrome,1383,864,,,,,10,664,,,,,,,,,,,,,,,,,132,U,triangle,1,0,,,,,,,,,,,,,,,,repeat,letter,lettRpt,k,0.5168,Lo,,,,,,0,,,,,,,,low,11,0,11,0,1,,,,,,,,,
298300,2022-12-07_14h13.11.401,vts_reward_expectancy_bt,2022.2.4,Win32,59.74786401,Chrome,1383,864,,,,,0,664,,,,,,,,,,,,,,,,,139,S,hexagon,0,0,,,,,,,,,,,,,,,,repeat,letter,NA,j,1.0676,Lo,,,,,,0,,,,,,,,low,12,0,12,0,1,,,,,,,,,
298300,2022-12-07_14h13.11.401,vts_reward_expectancy_bt,2022.2.4,Win32,59.74786401,Chrome,1383,864,,,,,0,664,,,,,,,,,,,,,,,,,125,B,circle,0,1,,,,,,,,,,,,,,,,repeat,letter,NA,k,0.4181,Lo,,,,,,0,,,,,,,,low,13,0,13,0,1,,,,,,,,,
298300,2022-12-07_14h13.11.401,vts_reward_expectancy_bt,2022.2.4,Win32,59.74786401,Chrome,1383,864,,,,,10,674,,,,,,,,,,,,,,,,,160,D,triangle,1,1,,,,,,,,,,,,,,,,repeat,letter,lettRpt,j,0.4841,Lo,,,,,,0,,,,,,,,low,14,0,14,0,1,,,,,,,,,
298300,2022-12-07_14h13.11.401,vts_reward_expectancy_bt,2022.2.4,Win32,59.74786401,Chrome,1383,864,,,,,0,674,,,,,,,,,,,,,,,,,174,H,star,1,0,,,,,,,,,,,,,,,,repeat,letter,lettRpt,j,0.7033,Hi,,,,,,0,,,,,,,,low,15,0,15,0,1,,,,,,,,,
298300,2022-12-07_14h13.11.401,vts_reward_expectancy_bt,2022.2.4,Win32,59.74786401,Chrome,1383,864,,,,,10,684,,,,,,,,,,,,,,,,,181,U,star,1,0,,,,,,,,,,,,,,,,repeat,letter,lettRpt,k,0.4012,Hi,,,,,,0,,,,,,,,low,16,0,16,0,1,,,,,,,,,
298300,2022-12-07_14h13.11.401,vts_reward_expectancy_bt,2022.2.4,Win32,59.74786401,Chrome,1383,864,,,,,0,684,,,,,,,,,,,,,,,,,132,B,hexagon,0,0,,,,,,,,,,,,,,,,switch,number,NA,f,0.6999,Hi,,,,,,0,,,,,,,,low,17,0,17,0,1,,,,,,,,,
298300,2022-12-07_14h13.11.401,vts_reward_expectancy_bt,2022.2.4,Win32,59.74786401,Chrome,1383,864,,,,,1,685,,,,,,,,,,,,,,,,,174,Y,triangle,1,1,,,,,,,,,,,,,,,,repeat,number,numRpt,f,0.5319,Lo,,,,,,0,,,,,,,,low,18,0,18,0,1,,,,,,,,,
298300,2022-12-07_14h13.11.401,vts_reward_expectancy_bt,2022.2.4,Win32,59.74786401,Chrome,1383,864,,,,,1,686,,,,,,,,,,,,,,,,,167,D,circle,1,0,,,,,,,,,,,,,,,,switch,letter,lettSwt,j,0.5673,Lo,,,,,,0,,,,,,,,low,19,0,19,0,1,,,,,,,,,
298300,2022-12-07_14h13.11.401,vts_reward_expectancy_bt,2022.2.4,Win32,59.74786401,Chrome,1383,864,,,,,0,686,,,,,,,,,,,,,,,,,139,F,triangle,0,0,,,,,,,,,,,,,,,,switch,number,NA,f,1.6528,Lo,,,,,,0,,,,,,,,low,20,0,20,0,1,,,,,,,,,
298300,2022-12-07_14h13.11.401,vts_reward_expectancy_bt,2022.2.4,Win32,59.74786401,Chrome,1383,864,,,,,0,686,,,,,,,,,,,,,,,,,160,H,hexagon,0,1,,,,,,,,,,,,,,,,switch,letter,NA,k,2.8709,Lo,,,,,,0,,,,,,,,low,21,0,21,0,1,,,,,,,,,
298300,2022-12-07_14h13.11.401,vts_reward_expectancy_bt,2022.2.4,Win32,59.74786401,Chrome,1383,864,,,,,1,687,,,,,,,,,,,,,,,,,125,W,circle,1,1,,,,,,,,,,,,,,,,repeat,letter,lettRpt,k,0.5333,Lo,,,,,,0,,,,,,,,low,22,0,22,0,1,,,,,,,,,
298300,2022-12-07_14h13.11.401,vts_reward_expectancy_bt,2022.2.4,Win32,59.74786401,Chrome,1383,864,,,,,0,687,,,,,,,,,,,,,,,,,146,S,star,-1,0,,,,,,,,,,,,,,,,switch,no_choice,NA,,,Lo,,,,,,0,,,,,,,,low,23,0,23,0,1,,,,,,,,,
298300,2022-12-07_14h13.11.401,vts_reward_expectancy_bt,2022.2.4,Win32,59.74786401,Chrome,1383,864,,,,,10,697,,,,,,,,,,,,,,,,,167,Y,hexagon,1,0,,,,,,,,,,,,,,,,switch,letter,lettSwt,k,0.3699,Hi,,,,,,0,,,,,,,,low,24,0,24,0,1,,,,,,,,,
298300,2022-12-07_14h13.11.401,vts_reward_expectancy_bt,2022.2.4,Win32,59.74786401,Chrome,1383,864,,,,,0,697,,,,,,,,,,,,,,,,,125,D,star,1,0,,,,,,,,,,,,,,,,repeat,letter,lettRpt,j,1.4849,Hi,,,,,,0,,,,,,,,low,25,0,25,0,1,,,,,,,,,
298300,2022-12-07_14h13.11.401,vts_reward_expectancy_bt,2022.2.4,Win32,59.74786401,Chrome,1383,864,,,,,1,698,,,,,,,,,,,,,,,,,146,U,circle,1,0,,,,,,,,,,,,,,,,repeat,letter,lettRpt,k,1.1343,Lo,,,,,,0,,,,,,,,low,26,0,26,0,1,,,,,,,,,
298300,2022-12-07_14h13.11.401,vts_reward_expectancy_bt,2022.2.4,Win32,59.74786401,Chrome,1383,864,,,,,1,699,,,,,,,,,,,,,,,,,139,H,triangle,1,0,,,,,,,,,,,,,,,,repeat,letter,lettRpt,j,0.8189,Lo,,,,,,0,,,,,,,,low,27,0,27,0,1,,,,,,,,,
298300,2022-12-07_14h13.11.401,vts_reward_expectancy_bt,2022.2.4,Win32,59.74786401,Chrome,1383,864,,,,,1,700,,,,,,,,,,,,,,,,,174,S,circle,1,0,,,,,,,,,,,,,,,,repeat,letter,lettRpt,k,0.7015,Lo,,,,,,0,,,,,,,,low,28,0,28,0,1,,,,,,,,,
298300,2022-12-07_14h13.11.401,vts_reward_expectancy_bt,2022.2.4,Win32,59.74786401,Chrome,1383,864,,,,,10,710,,,,,,,,,,,,,,,,,181,B,triangle,1,0,,,,,,,,,,,,,,,,repeat,letter,lettRpt,j,0.5845,Lo,,,,,,0,,,,,,,,low,29,0,29,0,1,,,,,,,,,
298300,2022-12-07_14h13.11.401,vts_reward_expectancy_bt,2022.2.4,Win32,59.74786401,Chrome,1383,864,,,,,0,710,,,,,,,,,,,,,,,,,132,F,star,1,0,,,,,,,,,,,,,,,,repeat,letter,lettRpt,j,0.667,Hi,,,,,,0,,,,,,,,low,30,0,30,0,1,,,,,,,,,
298300,2022-12-07_14h13.11.401,vts_reward_expectancy_bt,2022.2.4,Win32,59.74786401,Chrome,1383,864,,,,,0,710,,,,,,,,,,,,,,,,,160,W,hexagon,0,0,,,,,,,,,,,,,,,,repeat,letter,NA,j,0.6819,Hi,,,,,,0,,,,,,,,low,31,0,31,0,1,,,,,,,,,
298300,2022-12-07_14h13.11.401,vts_reward_expectancy_bt,2022.2.4,Win32,59.74786401,Chrome,1383,864,,,,,0,710,,,,,,,,,,,,,,,,,146,U,hexagon,1,1,,,,,,,,,,,,,,,,repeat,letter,lettRpt,k,0.5517,Hi,,,,,,1,,,,,,space,152.222,low,0,0,0,0,1,,,,,,,,,
298300,2022-12-07_14h13.11.401,vts_reward_expectancy_bt,2022.2.4,Win32,59.74786401,Chrome,1383,864,,,,,1,711,,,,,,,,,,,,,,,,,132,S,star,1,0,,,,,,,,,,,,,,,,switch,number,numSwt,d,0.5653,Hi,,,,,,1,,,,,,,,low,1,0,1,0,1,,,,,,,,,
298300,2022-12-07_14h13.11.401,vts_reward_expectancy_bt,2022.2.4,Win32,59.74786401,Chrome,1383,864,,,,,0,711,,,,,,,,,,,,,,,,,181,F,circle,0,0,,,,,,,,,,,,,,,,repeat,number,NA,d,0.6834,Hi,,,,,,1,,,,,,,,low,2,0,2,0,1,,,,,,,,,
298300,2022-12-07_14h13.11.401,vts_reward_expectancy_bt,2022.2.4,Win32,59.74786401,Chrome,1383,864,,,,,0,711,,,,,,,,,,,,,,,,,125,Y,triangle,0,1,,,,,,,,,,,,,,,,repeat,number,NA,f,1.4499,Hi,,,,,,1,,,,,,,,low,3,0,3,0,1,,,,,,,,,
298300,2022-12-07_14h13.11.401,vts_reward_expectancy_bt,2022.2.4,Win32,59.74786401,Chrome,1383,864,,,,,1,712,,,,,,,,,,,,,,,,,174,H,hexagon,1,1,,,,,,,,,,,,,,,,repeat,number,numRpt,f,0.4167,Hi,,,,,,1,,,,,,,,low,4,0,4,0,1,,,,,,,,,
298300,2022-12-07_14h13.11.401,vts_reward_expectancy_bt,2022.2.4,Win32,59.74786401,Chrome,1383,864,,,,,10,722,,,,,,,,,,,,,,,,,139,W,star,1,0,,,,,,,,,,,,,,,,switch,letter,lettSwt,k,0.3994,Hi,,,,,,1,,,,,,,,low,5,0,5,0,1,,,,,,,,,
298300,2022-12-07_14h13.11.401,vts_reward_expectancy_bt,2022.2.4,Win32,59.74786401,Chrome,1383,864,,,,,1,723,,,,,,,,,,,,,,,,,167,B,circle,1,0,,,,,,,,,,,,,,,,repeat,letter,lettRpt,j,0.6011,Lo,,,,,,1,,,,,,,,low,6,0,6,0,1,,,,,,,,,
298300,2022-12-07_14h13.11.401,vts_reward_expectancy_bt,2022.2.4,Win32,59.74786401,Chrome,1383,864,,,,,10,733,,,,,,,,,,,,,,,,,160,D,triangle,1,0,,,,,,,,,,,,,,,,repeat,letter,lettRpt,j,0.4923,Lo,,,,,,1,,,,,,,,low,7,0,7,0,1,,,,,,,,,
298300,2022-12-07_14h13.11.401,vts_reward_expectancy_bt,2022.2.4,Win32,59.74786401,Chrome,1383,864,,,,,1,734,,,,,,,,,,,,,,,,,146,U,star,1,0,,,,,,,,,,,,,,,,repeat,letter,lettRpt,k,0.4005,Hi,,,,,,1,,,,,,,,low,8,0,8,0,1,,,,,,,,,
298300,2022-12-07_14h13.11.401,vts_reward_expectancy_bt,2022.2.4,Win32,59.74786401,Chrome,1383,864,,,,,10,744,,,,,,,,,,,,,,,,,132,S,triangle,1,0,,,,,,,,,,,,,,,,switch,number,numSwt,d,0.432,Lo,,,,,,1,,,,,,,,low,9,0,9,0,1,,,,,,,,,
298300,2022-12-07_14h13.11.401,vts_reward_expectancy_bt,2022.2.4,Win32,59.74786401,Chrome,1383,864,,,,,0,744,,,,,,,,,,,,,,,,,181,F,hexagon,0,0,,,,,,,,,,,,,,,,repeat,number,NA,d,0.1997,Lo,,,,,,1,,,,,,,,low,10,0,10,0,1,,,,,,,,,
298300,2022-12-07_14h13.11.401,vts_reward_expectancy_bt,2022.2.4,Win32,59.74786401,Chrome,1383,864,,,,,0,744,,,,,,,,,,,,,,,,,125,Y,circle,0,1,,,,,,,,,,,,,,,,repeat,number,NA,f,0.7177,Lo,,,,,,1,,,,,,,,low,11,0,11,0,1,,,,,,,,,
298300,2022-12-07_14h13.11.401,vts_reward_expectancy_bt,2022.2.4,Win32,59.74786401,Chrome,1383,864,,,,,0,744,,,,,,,,,,,,,,,,,174,H,circle,0,1,,,,,,,,,,,,,,,,repeat,number,NA,d,0.8344,Lo,,,,,,1,,,,,,,,low,12,0,12,0,1,,,,,,,,,
298300,2022-12-07_14h13.11.401,vts_reward_expectancy_bt,2022.2.4,Win32,59.74786401,Chrome,1383,864,,,,,0,744,,,,,,,,,,,,,,,,,139,W,star,-1,1,,,,,,,,,,,,,,,,switch,no_choice,NA,,,Lo,,,,,,1,,,,,,,,low,13,0,13,0,1,,,,,,,,,
298300,2022-12-07_14h13.11.401,vts_reward_expectancy_bt,2022.2.4,Win32,59.74786401,Chrome,1383,864,,,,,1,745,,,,,,,,,,,,,,,,,167,B,triangle,1,0,,,,,,,,,,,,,,,,switch,number,numSwt,f,2.1525,Lo,,,,,,1,,,,,,,,low,14,0,14,0,1,,,,,,,,,
298300,2022-12-07_14h13.11.401,vts_reward_expectancy_bt,2022.2.4,Win32,59.74786401,Chrome,1383,864,,,,,0,745,,,,,,,,,,,,,,,,,160,D,hexagon,1,0,,,,,,,,,,,,,,,,repeat,number,numRpt,f,0.9,Hi,,,,,,1,,,,,,,,low,15,0,15,0,1,,,,,,,,,
298300,2022-12-07_14h13.11.401,vts_reward_expectancy_bt,2022.2.4,Win32,59.74786401,Chrome,1383,864,,,,,1,746,,,,,,,,,,,,,,,,,160,B,triangle,1,0,,,,,,,,,,,,,,,,repeat,number,numRpt,f,0.9148,Lo,,,,,,1,,,,,,,,low,16,0,16,0,1,,,,,,,,,
298300,2022-12-07_14h13.11.401,vts_reward_expectancy_bt,2022.2.4,Win32,59.74786401,Chrome,1383,864,,,,,10,756,,,,,,,,,,,,,,,,,167,H,hexagon,1,0,,,,,,,,,,,,,,,,repeat,number,numRpt,f,0.4004,Hi,,,,,,1,,,,,,,,low,17,0,17,0,1,,,,,,,,,
298300,2022-12-07_14h13.11.401,vts_reward_expectancy_bt,2022.2.4,Win32,59.74786401,Chrome,1383,864,,,,,10,766,,,,,,,,,,,,,,,,,146,W,circle,1,0,,,,,,,,,,,,,,,,repeat,number,numRpt,d,0.6352,Lo,,,,,,1,,,,,,,,low,18,0,18,0,1,,,,,,,,,
298300,2022-12-07_14h13.11.401,vts_reward_expectancy_bt,2022.2.4,Win32,59.74786401,Chrome,1383,864,,,,,0,766,,,,,,,,,,,,,,,,,181,F,star,0,0,,,,,,,,,,,,,,,,switch,letter,NA,k,0.5669,Lo,,,,,,1,,,,,,,,low,19,0,19,0,1,,,,,,,,,
298300,2022-12-07_14h13.11.401,vts_reward_expectancy_bt,2022.2.4,Win32,59.74786401,Chrome,1383,864,,,,,1,767,,,,,,,,,,,,,,,,,174,U,triangle,1,1,,,,,,,,,,,,,,,,repeat,letter,lettRpt,k,0.6278,Lo,,,,,,1,,,,,,,,low,20,0,20,0,1,,,,,,,,,
298300,2022-12-07_14h13.11.401,vts_reward_expectancy_bt,2022.2.4,Win32,59.74786401,Chrome,1383,864,,,,,0,767,,,,,,,,,,,,,,,,,139,S,star,1,0,,,,,,,,,,,,,,,,switch,number,numSwt,d,0.7003,Hi,,,,,,1,,,,,,,,low,21,0,21,0,1,,,,,,,,,
298300,2022-12-07_14h13.11.401,vts_reward_expectancy_bt,2022.2.4,Win32,59.74786401,Chrome,1383,864,,,,,0,767,,,,,,,,,,,,,,,,,132,Y,hexagon,1,0,,,,,,,,,,,,,,,,switch,letter,lettSwt,k,0.9003,Hi,,,,,,1,,,,,,,,low,22,0,22,0,1,,,,,,,,,
298300,2022-12-07_14h13.11.401,vts_reward_expectancy_bt,2022.2.4,Win32,59.74786401,Chrome,1383,864,,,,,1,768,,,,,,,,,,,,,,,,,125,D,circle,1,0,,,,,,,,,,,,,,,,repeat,letter,lettRpt,j,0.534,Lo,,,,,,1,,,,,,,,low,23,0,23,0,1,,,,,,,,,
298300,2022-12-07_14h13.11.401,vts_reward_expectancy_bt,2022.2.4,Win32,59.74786401,Chrome,1383,864,,,,,1,769,,,,,,,,,,,,,,,,,125,S,circle,1,0,,,,,,,,,,,,,,,,switch,number,numSwt,d,0.4339,Lo,,,,,,1,,,,,,,,low,24,0,24,0,1,,,,,,,,,
298300,2022-12-07_14h13.11.401,vts_reward_expectancy_bt,2022.2.4,Win32,59.74786401,Chrome,1383,864,,,,,0,769,,,,,,,,,,,,,,,,,160,D,star,1,0,,,,,,,,,,,,,,,,switch,letter,lettSwt,j,0.5847,Hi,,,,,,1,,,,,,,,low,25,0,25,0,1,,,,,,,,,
298300,2022-12-07_14h13.11.401,vts_reward_expectancy_bt,2022.2.4,Win32,59.74786401,Chrome,1383,864,,,,,1,770,,,,,,,,,,,,,,,,,167,B,hexagon,1,0,,,,,,,,,,,,,,,,repeat,letter,lettRpt,j,0.4703,Hi,,,,,,1,,,,,,,,low,26,0,26,0,1,,,,,,,,,
298300,2022-12-07_14h13.11.401,vts_reward_expectancy_bt,2022.2.4,Win32,59.74786401,Chrome,1383,864,,,,,10,780,,,,,,,,,,,,,,,,,181,W,triangle,1,0,,,,,,,,,,,,,,,,repeat,letter,lettRpt,k,0.4363,Lo,,,,,,1,,,,,,,,low,27,0,27,0,1,,,,,,,,,
298300,2022-12-07_14h13.11.401,vts_reward_expectancy_bt,2022.2.4,Win32,59.74786401,Chrome,1383,864,,,,,1,781,,,,,,,,,,,,,,,,,139,H,circle,1,0,,,,,,,,,,,,,,,,switch,number,numSwt,d,0.335,Lo,,,,,,1,,,,,,,,low,28,0,28,0,1,,,,,,,,,
298300,2022-12-07_14h13.11.401,vts_reward_expectancy_bt,2022.2.4,Win32,59.74786401,Chrome,1383,864,,,,,10,791,,,,,,,,,,,,,,,,,132,Y,triangle,1,0,,,,,,,,,,,,,,,,repeat,number,numRpt,d,0.42,Lo,,,,,,1,,,,,,,,low,29,0,29,0,1,,,,,,,,,
298300,2022-12-07_14h13.11.401,vts_reward_expectancy_bt,2022.2.4,Win32,59.74786401,Chrome,1383,864,,,,,10,801,,,,,,,,,,,,,,,,,146,U,hexagon,1,0,,,,,,,,,,,,,,,,repeat,number,numRpt,d,0.0009,Hi,,,,,,1,,,,,,,,low,30,0,30,0,1,,,,,,,,,
298300,2022-12-07_14h13.11.401,vts_reward_expectancy_bt,2022.2.4,Win32,59.74786401,Chrome,1383,864,,,,,10,811,,,,,,,,,,,,,,,,,174,F,star,1,0,,,,,,,,,,,,,,,,switch,letter,lettSwt,j,0.2013,Hi,,,,,,1,,,,,,,,low,31,0,31,0,1,,,,,,,,,
298300,2022-12-07_14h13.11.401,vts_reward_expectancy_bt,2022.2.4,Win32,59.74786401,Chrome,1383,864,,,,,0,811,,,,,,,,,,,,,,,,,174,D,star,-1,0,,,,,,,,,,,,,,,,switch,no_choice,NA,,,Hi,,,,,,2,,,,,,space,1.0811,low,0,0,0,0,1,,,,,,,,,
298300,2022-12-07_14h13.11.401,vts_reward_expectancy_bt,2022.2.4,Win32,59.74786401,Chrome,1383,864,,,,,0,811,,,,,,,,,,,,,,,,,125,B,hexagon,1,0,,,,,,,,,,,,,,,,switch,letter,lettSwt,j,0.5344,Hi,,,,,,2,,,,,,,,low,1,0,1,0,1,,,,,,,,,
298300,2022-12-07_14h13.11.401,vts_reward_expectancy_bt,2022.2.4,Win32,59.74786401,Chrome,1383,864,,,,,0,811,,,,,,,,,,,,,,,,,146,F,circle,0,0,,,,,,,,,,,,,,,,repeat,letter,NA,k,0.8003,Hi,,,,,,2,,,,,,,,low,2,0,2,0,1,,,,,,,,,
298300,2022-12-07_14h13.11.401,vts_reward_expectancy_bt,2022.2.4,Win32,59.74786401,Chrome,1383,864,,,,,0,811,,,,,,,,,,,,,,,,,132,U,triangle,0,1,,,,,,,,,,,,,,,,repeat,letter,NA,j,0.0232,Hi,,,,,,2,,,,,,,,low,3,0,3,0,1,,,,,,,,,
298300,2022-12-07_14h13.11.401,vts_reward_expectancy_bt,2022.2.4,Win32,59.74786401,Chrome,1383,864,,,,,0,811,,,,,,,,,,,,,,,,,181,S,star,1,1,,,,,,,,,,,,,,,,switch,number,numSwt,f,0.4686,Hi,,,,,,2,,,,,,,,low,4,0,4,0,1,,,,,,,,,
298300,2022-12-07_14h13.11.401,vts_reward_expectancy_bt,2022.2.4,Win32,59.74786401,Chrome,1383,864,,,,,10,821,,,,,,,,,,,,,,,,,160,W,hexagon,1,0,,,,,,,,,,,,,,,,switch,letter,lettSwt,k,0.3832,Hi,,,,,,2,,,,,,,,low,5,0,5,0,1,,,,,,,,,
298300,2022-12-07_14h13.11.401,vts_reward_expectancy_bt,2022.2.4,Win32,59.74786401,Chrome,1383,864,,,,,1,822,,,,,,,,,,,,,,,,,139,Y,circle,1,0,,,,,,,,,,,,,,,,switch,number,numSwt,d,0.3846,Lo,,,,,,2,,,,,,,,low,6,0,6,0,1,,,,,,,,,
298300,2022-12-07_14h13.11.401,vts_reward_expectancy_bt,2022.2.4,Win32,59.74786401,Chrome,1383,864,,,,,0,822,,,,,,,,,,,,,,,,,167,H,triangle,0,0,,,,,,,,,,,,,,,,repeat,number,NA,d,0.3332,Lo,,,,,,2,,,,,,,,low,7,0,7,0,1,,,,,,,,,
298300,2022-12-07_14h13.11.401,vts_reward_expectancy_bt,2022.2.4,Win32,59.74786401,Chrome,1383,864,,,,,0,822,,,,,,,,,,,,,,,,,174,D,star,0,1,,,,,,,,,,,,,,,,switch,letter,NA,k,0.4664,Lo,,,,,,2,,,,,,,,low,8,0,8,0,1,,,,,,,,,
298300,2022-12-07_14h13.11.401,vts_reward_expectancy_bt,2022.2.4,Win32,59.74786401,Chrome,1383,864,,,,,1,823,,,,,,,,,,,,,,,,,125,B,circle,1,1,,,,,,,,,,,,,,,,repeat,letter,lettRpt,j,0.0012,Lo,,,,,,2,,,,,,,,low,9,0,9,0,1,,,,,,,,,
298300,2022-12-07_14h13.11.401,vts_reward_expectancy_bt,2022.2.4,Win32,59.74786401,Chrome,1383,864,,,,,1,824,,,,,,,,,,,,,,,,,146,F,hexagon,1,0,,,,,,,,,,,,,,,,switch,number,numSwt,d,0.0386,Hi,,,,,,2,,,,,,,,low,10,0,10,0,1,,,,,,,,,
298300,2022-12-07_14h13.11.401,vts_reward_expectancy_bt,2022.2.4,Win32,59.74786401,Chrome,1383,864,,,,,0,824,,,,,,,,,,,,,,,,,132,U,triangle,0,0,,,,,,,,,,,,,,,,repeat,number,NA,f,0.0602,Hi,,,,,,2,,,,,,,,low,11,0,11,0,1,,,,,,,,,
298300,2022-12-07_14h13.11.401,vts_reward_expectancy_bt,2022.2.4,Win32,59.74786401,Chrome,1383,864,,,,,0,824,,,,,,,,,,,,,,,,,181,S,triangle,0,1,,,,,,,,,,,,,,,,repeat,number,NA,d,0.001,Hi,,,,,,2,,,,,,,,low,12,0,12,0,1,,,,,,,,,
298300,2022-12-07_14h13.11.401,vts_reward_expectancy_bt,2022.2.4,Win32,59.74786401,Chrome,1383,864,,,,,10,834,,,,,,,,,,,,,,,,,160,W,hexagon,1,1,,,,,,,,,,,,,,,,switch,letter,lettSwt,k,0.0998,Hi,,,,,,2,,,,,,,,low,13,0,13,0,1,,,,,,,,,
298300,2022-12-07_14h13.11.401,vts_reward_expectancy_bt,2022.2.4,Win32,59.74786401,Chrome,1383,864,,,,,0,834,,,,,,,,,,,,,,,,,139,Y,star,0,0,,,,,,,,,,,,,,,,switch,number,NA,f,0.0231,Hi,,,,,,2,,,,,,,,low,14,0,14,0,1,,,,,,,,,
298300,2022-12-07_14h13.11.401,vts_reward_expectancy_bt,2022.2.4,Win32,59.74786401,Chrome,1383,864,,,,,0,834,,,,,,,,,,,,,,,,,167,H,circle,0,1,,,,,,,,,,,,,,,,repeat,number,NA,d,0.0877,Hi,,,,,,2,,,,,,,,low,15,0,15,0,1,,,,,,,,,
298300,2022-12-07_14h13.11.401,vts_reward_expectancy_bt,2022.2.4,Win32,59.74786401,Chrome,1383,864,,,,,1,835,,,,,,,,,,,,,,,,,167,B,circle,1,1,,,,,,,,,,,,,,,,switch,letter,lettSwt,j,0.5143,Lo,,,,,,2,,,,,,,,low,16,0,16,0,1,,,,,,,,,
298300,2022-12-07_14h13.11.401,vts_reward_expectancy_bt,2022.2.4,Win32,59.74786401,Chrome,1383,864,,,,,1,836,,,,,,,,,,,,,,,,,160,H,star,1,0,,,,,,,,,,,,,,,,switch,number,numSwt,f,0.3343,Hi,,,,,,2,,,,,,,,low,17,0,17,0,1,,,,,,,,,
298300,2022-12-07_14h13.11.401,vts_reward_expectancy_bt,2022.2.4,Win32,59.74786401,Chrome,1383,864,,,,,1,837,,,,,,,,,,,,,,,,,139,W,triangle,1,0,,,,,,,,,,,,,,,,switch,letter,lettSwt,k,0.5328,Lo,,,,,,2,,,,,,,,low,18,0,18,0,1,,,,,,,,,
298300,2022-12-07_14h13.11.401,vts_reward_expectancy_bt,2022.2.4,Win32,59.74786401,Chrome,1383,864,,,,,0,837,,,,,,,,,,,,,,,,,146,Y,hexagon,1,0,,,,,,,,,,,,,,,,switch,number,numSwt,d,0.4341,Hi,,,,,,2,,,,,,,,low,19,0,19,0,1,,,,,,,,,
298300,2022-12-07_14h13.11.401,vts_reward_expectancy_bt,2022.2.4,Win32,59.74786401,Chrome,1383,864,,,,,10,847,,,,,,,,,,,,,,,,,132,U,star,1,0,,,,,,,,,,,,,,,,switch,letter,lettSwt,k,0.1509,Hi,,,,,,2,,,,,,,,low,20,0,20,0,1,,,,,,,,,
298300,2022-12-07_14h13.11.401,vts_reward_expectancy_bt,2022.2.4,Win32,59.74786401,Chrome,1383,864,,,,,0,847,,,,,,,,,,,,,,,,,181,D,hexagon,0,0,,,,,,,,,,,,,,,,switch,number,NA,d,0.0679,Hi,,,,,,2,,,,,,,,low,21,0,21,0,1,,,,,,,,,
298300,2022-12-07_14h13.11.401,vts_reward_expectancy_bt,2022.2.4,Win32,59.74786401,Chrome,1383,864,,,,,1,848,,,,,,,,,,,,,,,,,174,F,triangle,1,1,,,,,,,,,,,,,,,,repeat,number,numRpt,f,0.2845,Lo,,,,,,2,,,,,,,,low,22,0,22,0,1,,,,,,,,,
298300,2022-12-07_14h13.11.401,vts_reward_expectancy_bt,2022.2.4,Win32,59.74786401,Chrome,1383,864,,,,,10,858,,,,,,,,,,,,,,,,,125,S,circle,1,0,,,,,,,,,,,,,,,,switch,letter,lettSwt,k,0.5167,Lo,,,,,,2,,,,,,,,low,23,0,23,0,1,,,,,,,,,
298300,2022-12-07_14h13.11.401,vts_reward_expectancy_bt,2022.2.4,Win32,59.74786401,Chrome,1383,864,,,,,0,858,,,,,,,,,,,,,,,,,181,H,star,0,0,,,,,,,,,,,,,,,,repeat,letter,NA,k,0.3335,Lo,,,,,,2,,,,,,,,low,24,0,24,0,1,,,,,,,,,
298300,2022-12-07_14h13.11.401,vts_reward_expectancy_bt,2022.2.4,Win32,59.74786401,Chrome,1383,864,,,,,10,868,,,,,,,,,,,,,,,,,160,B,hexagon,1,1,,,,,,,,,,,,,,,,repeat,letter,lettRpt,j,0.4665,Hi,,,,,,2,,,,,,,,low,25,0,25,0,1,,,,,,,,,
298300,2022-12-07_14h13.11.401,vts_reward_expectancy_bt,2022.2.4,Win32,59.74786401,Chrome,1383,864,,,,,10,878,,,,,,,,,,,,,,,,,139,Y,circle,1,0,,,,,,,,,,,,,,,,repeat,letter,lettRpt,k,0.4003,Lo,,,,,,2,,,,,,,,low,26,0,26,0,1,,,,,,,,,
298300,2022-12-07_14h13.11.401,vts_reward_expectancy_bt,2022.2.4,Win32,59.74786401,Chrome,1383,864,,,,,0,878,,,,,,,,,,,,,,,,,125,S,triangle,0,0,,,,,,,,,,,,,,,,repeat,letter,NA,j,0.5015,Lo,,,,,,2,,,,,,,,low,27,0,27,0,1,,,,,,,,,
298300,2022-12-07_14h13.11.401,vts_reward_expectancy_bt,2022.2.4,Win32,59.74786401,Chrome,1383,864,,,,,0,878,,,,,,,,,,,,,,,,,167,U,hexagon,1,1,,,,,,,,,,,,,,,,switch,number,numSwt,f,0.5686,Hi,,,,,,2,,,,,,,,low,28,0,28,0,1,,,,,,,,,
298300,2022-12-07_14h13.11.401,vts_reward_expectancy_bt,2022.2.4,Win32,59.74786401,Chrome,1383,864,,,,,0,878,,,,,,,,,,,,,,,,,146,F,circle,0,0,,,,,,,,,,,,,,,,repeat,number,NA,f,0.5325,Hi,,,,,,2,,,,,,,,low,29,0,29,0,1,,,,,,,,,
298300,2022-12-07_14h13.11.401,vts_reward_expectancy_bt,2022.2.4,Win32,59.74786401,Chrome,1383,864,,,,,1,879,,,,,,,,,,,,,,,,,132,D,triangle,1,1,,,,,,,,,,,,,,,,repeat,number,numRpt,d,0.0832,Lo,,,,,,2,,,,,,,,low,30,0,30,0,1,,,,,,,,,
298300,2022-12-07_14h13.11.401,vts_reward_expectancy_bt,2022.2.4,Win32,59.74786401,Chrome,1383,864,,,,,0,879,,,,,,,,,,,,,,,,,174,W,star,1,0,,,,,,,,,,,,,,,,switch,letter,lettSwt,k,0.5019,Hi,,,,,,2,,,,,,,,low,31,0,31,0,1,,,,,,,,,
298300,2022-12-07_14h13.11.401,vts_reward_expectancy_bt,2022.2.4,Win32,59.74786401,Chrome,1383,864,,,,,0,879,,,,,,,,,,,,,,,,,146,W,star,0,0,,,,,,,,,,,,,,,,switch,number,NA,f,0.2986,Hi,,,,,,3,,,,,,space,1.5174,low,0,0,0,0,1,,,,,,,,,
298300,2022-12-07_14h13.11.401,vts_reward_expectancy_bt,2022.2.4,Win32,59.74786401,Chrome,1383,864,,,,,0,879,,,,,,,,,,,,,,,,,139,H,triangle,0,1,,,,,,,,,,,,,,,,switch,letter,NA,k,0.0843,Hi,,,,,,3,,,,,,,,low,1,0,1,0,1,,,,,,,,,
298300,2022-12-07_14h13.11.401,vts_reward_expectancy_bt,2022.2.4,Win32,59.74786401,Chrome,1383,864,,,,,0,879,,,,,,,,,,,,,,,,,132,B,hexagon,0,1,,,,,,,,,,,,,,,,repeat,letter,NA,k,0.0669,Hi,,,,,,3,,,,,,,,low,2,0,2,0,1,,,,,,,,,
298300,2022-12-07_14h13.11.401,vts_reward_expectancy_bt,2022.2.4,Win32,59.74786401,Chrome,1383,864,,,,,0,879,,,,,,,,,,,,,,,,,167,D,circle,0,1,,,,,,,,,,,,,,,,switch,number,NA,d,0.023,Hi,,,,,,3,,,,,,,,low,3,0,3,0,1,,,,,,,,,
298300,2022-12-07_14h13.11.401,vts_reward_expectancy_bt,2022.2.4,Win32,59.74786401,Chrome,1383,864,,,,,0,879,,,,,,,,,,,,,,,,,174,S,star,0,1,,,,,,,,,,,,,,,,switch,letter,NA,j,0.5014,Hi,,,,,,3,,,,,,,,low,4,0,4,0,1,,,,,,,,,
298300,2022-12-07_14h13.11.401,vts_reward_expectancy_bt,2022.2.4,Win32,59.74786401,Chrome,1383,864,,,,,0,879,,,,,,,,,,,,,,,,,181,Y,triangle,0,1,,,,,,,,,,,,,,,,switch,number,NA,d,0.266,Hi,,,,,,3,,,,,,,,low,5,0,5,0,1,,,,,,,,,
298300,2022-12-07_14h13.11.401,vts_reward_expectancy_bt,2022.2.4,Win32,59.74786401,Chrome,1383,864,,,,,0,879,,,,,,,,,,,,,,,,,160,F,hexagon,1,1,,,,,,,,,,,,,,,,repeat,number,numRpt,f,0.4179,Hi,,,,,,3,,,,,,,,low,6,0,6,0,1,,,,,,,,,
298300,2022-12-07_14h13.11.401,vts_reward_expectancy_bt,2022.2.4,Win32,59.74786401,Chrome,1383,864,,,,,0,879,,,,,,,,,,,,,,,,,125,U,circle,0,0,,,,,,,,,,,,,,,,repeat,number,NA,f,0.4167,Hi,,,,,,3,,,,,,,,low,7,0,7,0,1,,,,,,,,,
298300,2022-12-07_14h13.11.401,vts_reward_expectancy_bt,2022.2.4,Win32,59.74786401,Chrome,1383,864,,,,,0,879,,,,,,,,,,,,,,,,,146,W,hexagon,1,1,,,,,,,,,,,,,,,,repeat,number,numRpt,d,0.5162,Hi,,,,,,3,,,,,,,,low,8,0,8,0,1,,,,,,,,,
298300,2022-12-07_14h13.11.401,vts_reward_expectancy_bt,2022.2.4,Win32,59.74786401,Chrome,1383,864,,,,,0,879,,,,,,,,,,,,,,,,,139,H,triangle,0,0,,,,,,,,,,,,,,,,repeat,number,NA,f,0.5349,Hi,,,,,,3,,,,,,,,low,9,0,9,0,1,,,,,,,,,
298300,2022-12-07_14h13.11.401,vts_reward_expectancy_bt,2022.2.4,Win32,59.74786401,Chrome,1383,864,,,,,0,879,,,,,,,,,,,,,,,,,132,B,star,0,1,,,,,,,,,,,,,,,,repeat,number,NA,f,0.301,Hi,,,,,,3,,,,,,,,low,10,0,10,0,1,,,,,,,,,
298300,2022-12-07_14h13.11.401,vts_reward_expectancy_bt,2022.2.4,Win32,59.74786401,Chrome,1383,864,,,,,1,880,,,,,,,,,,,,,,,,,167,D,circle,1,1,,,,,,,,,,,,,,,,repeat,number,numRpt,f,0.0273,Lo,,,,,,3,,,,,,,,low,11,0,11,0,1,,,,,,,,,
298300,2022-12-07_14h13.11.401,vts_reward_expectancy_bt,2022.2.4,Win32,59.74786401,Chrome,1383,864,,,,,0,880,,,,,,,,,,,,,,,,,174,S,circle,0,0,,,,,,,,,,,,,,,,repeat,number,NA,d,1.1681,Lo,,,,,,3,,,,,,,,low,12,0,12,0,1,,,,,,,,,
298300,2022-12-07_14h13.11.401,vts_reward_expectancy_bt,2022.2.4,Win32,59.74786401,Chrome,1383,864,,,,,0,880,,,,,,,,,,,,,,,,,181,Y,star,1,1,,,,,,,,,,,,,,,,repeat,number,numRpt,f,0.5515,Hi,,,,,,3,,,,,,,,low,13,0,13,0,1,,,,,,,,,
298300,2022-12-07_14h13.11.401,vts_reward_expectancy_bt,2022.2.4,Win32,59.74786401,Chrome,1383,864,,,,,1,881,,,,,,,,,,,,,,,,,160,F,triangle,1,0,,,,,,,,,,,,,,,,repeat,number,numRpt,f,0.5683,Lo,,,,,,3,,,,,,,,low,14,0,14,0,1,,,,,,,,,
298300,2022-12-07_14h13.11.401,vts_reward_expectancy_bt,2022.2.4,Win32,59.74786401,Chrome,1383,864,,,,,0,881,,,,,,,,,,,,,,,,,125,U,hexagon,0,0,,,,,,,,,,,,,,,,switch,letter,NA,j,0.2943,Lo,,,,,,3,,,,,,,,low,15,0,15,0,1,,,,,,,,,
298300,2022-12-07_14h13.11.401,vts_reward_expectancy_bt,2022.2.4,Win32,59.74786401,Chrome,1383,864,,,,,1,882,,,,,,,,,,,,,,,,,167,Y,star,1,1,,,,,,,,,,,,,,,,repeat,letter,lettRpt,k,0.2335,Hi,,,,,,3,,,,,,,,low,16,0,16,0,1,,,,,,,,,
298300,2022-12-07_14h13.11.401,vts_reward_expectancy_bt,2022.2.4,Win32,59.74786401,Chrome,1383,864,,,,,0,882,,,,,,,,,,,,,,,,,125,H,triangle,0,0,,,,,,,,,,,,,,,,repeat,letter,NA,k,0.2837,Hi,,,,,,3,,,,,,,,low,17,0,17,0,1,,,,,,,,,
298300,2022-12-07_14h13.11.401,vts_reward_expectancy_bt,2022.2.4,Win32,59.74786401,Chrome,1383,864,,,,,0,882,,,,,,,,,,,,,,,,,146,S,hexagon,1,1,,,,,,,,,,,,,,,,repeat,letter,lettRpt,k,0.4844,Hi,,,,,,3,,,,,,,,low,18,0,18,0,1,,,,,,,,,
298300,2022-12-07_14h13.11.401,vts_reward_expectancy_bt,2022.2.4,Win32,59.74786401,Chrome,1383,864,,,,,0,882,,,,,,,,,,,,,,,,,174,D,circle,-1,0,,,,,,,,,,,,,,,,switch,no_choice,NA,,,Hi,,,,,,3,,,,,,,,low,19,0,19,0,1,,,,,,,,,
298300,2022-12-07_14h13.11.401,vts_reward_expectancy_bt,2022.2.4,Win32,59.74786401,Chrome,1383,864,,,,,0,882,,,,,,,,,,,,,,,,,181,F,circle,0,0,,,,,,,,,,,,,,,,switch,letter,NA,k,0.0994,Hi,,,,,,3,,,,,,,,low,20,0,20,0,1,,,,,,,,,
298300,2022-12-07_14h13.11.401,vts_reward_expectancy_bt,2022.2.4,Win32,59.74786401,Chrome,1383,864,,,,,0,882,,,,,,,,,,,,,,,,,160,U,triangle,0,1,,,,,,,,,,,,,,,,repeat,letter,NA,j,0.0009,Hi,,,,,,3,,,,,,,,low,21,0,21,0,1,,,,,,,,,
298300,2022-12-07_14h13.11.401,vts_reward_expectancy_bt,2022.2.4,Win32,59.74786401,Chrome,1383,864,,,,,0,882,,,,,,,,,,,,,,,,,132,B,hexagon,0,1,,,,,,,,,,,,,,,,switch,number,NA,f,0.0523,Hi,,,,,,3,,,,,,,,low,22,0,22,0,1,,,,,,,,,
298300,2022-12-07_14h13.11.401,vts_reward_expectancy_bt,2022.2.4,Win32,59.74786401,Chrome,1383,864,,,,,10,892,,,,,,,,,,,,,,,,,139,W,star,1,1,,,,,,,,,,,,,,,,repeat,number,numRpt,d,0.0509,Hi,,,,,,3,,,,,,,,low,23,0,23,0,1,,,,,,,,,
298300,2022-12-07_14h13.11.401,vts_reward_expectancy_bt,2022.2.4,Win32,59.74786401,Chrome,1383,864,,,,,1,893,,,,,,,,,,,,,,,,,132,D,triangle,1,0,,,,,,,,,,,,,,,,repeat,number,numRpt,d,0.0269,Lo,,,,,,3,,,,,,,,low,24,0,24,0,1,,,,,,,,,
298300,2022-12-07_14h13.11.401,vts_reward_expectancy_bt,2022.2.4,Win32,59.74786401,Chrome,1383,864,,,,,0,893,,,,,,,,,,,,,,,,,181,U,hexagon,0,0,,,,,,,,,,,,,,,,switch,letter,NA,j,0.116,Lo,,,,,,3,,,,,,,,low,25,0,25,0,1,,,,,,,,,
298300,2022-12-07_14h13.11.401,vts_reward_expectancy_bt,2022.2.4,Win32,59.74786401,Chrome,1383,864,,,,,0,893,,,,,,,,,,,,,,,,,174,Y,circle,0,1,,,,,,,,,,,,,,,,repeat,letter,NA,j,0.0009,Lo,,,,,,3,,,,,,,,low,26,0,26,0,1,,,,,,,,,
298300,2022-12-07_14h13.11.401,vts_reward_expectancy_bt,2022.2.4,Win32,59.74786401,Chrome,1383,864,,,,,10,903,,,,,,,,,,,,,,,,,125,B,star,1,1,,,,,,,,,,,,,,,,switch,number,numSwt,d,0.0841,Hi,,,,,,3,,,,,,,,low,27,0,27,0,1,,,,,,,,,
298300,2022-12-07_14h13.11.401,vts_reward_expectancy_bt,2022.2.4,Win32,59.74786401,Chrome,1383,864,,,,,0,903,,,,,,,,,,,,,,,,,167,H,star,0,0,,,,,,,,,,,,,,,,switch,letter,NA,k,0.0846,Hi,,,,,,3,,,,,,,,low,28,0,28,0,1,,,,,,,,,
298300,2022-12-07_14h13.11.401,vts_reward_expectancy_bt,2022.2.4,Win32,59.74786401,Chrome,1383,864,,,,,0,903,,,,,,,,,,,,,,,,,160,S,circle,0,1,,,,,,,,,,,,,,,,switch,number,NA,d,0.1376,Hi,,,,,,3,,,,,,,,low,29,0,29,0,1,,,,,,,,,
298300,2022-12-07_14h13.11.401,vts_reward_expectancy_bt,2022.2.4,Win32,59.74786401,Chrome,1383,864,,,,,0,903,,,,,,,,,,,,,,,,,146,F,triangle,0,1,,,,,,,,,,,,,,,,switch,letter,NA,k,0.1204,Hi,,,,,,3,,,,,,,,low,30,0,30,0,1,,,,,,,,,
298300,2022-12-07_14h13.11.401,vts_reward_expectancy_bt,2022.2.4,Win32,59.74786401,Chrome,1383,864,,,,,10,913,,,,,,,,,,,,,,,,,139,W,hexagon,1,1,,,,,,,,,,,,,,,,repeat,letter,lettRpt,k,0.1148,Hi,,,,,,3,,,,,,,,low,31,0,31,0,1,,,,,,,,,
298300,2022-12-07_14h13.11.401,vts_reward_expectancy_bt,2022.2.4,Win32,59.74786401,Chrome,1383,864,,,,,1,914,,,,,,,,,,,,,,,,,174,W,star,1,0,,,,,,,,,,,,,,,,repeat,letter,lettRpt,k,0.017,Hi,,,,,,4,,,,,,space,0.8978,low,0,0,0,0,1,,,,,,,,,
298300,2022-12-07_14h13.11.401,vts_reward_expectancy_bt,2022.2.4,Win32,59.74786401,Chrome,1383,864,,,,,10,924,,,,,,,,,,,,,,,,,125,D,circle,1,0,,,,,,,,,,,,,,,,switch,number,numSwt,d,0.0674,Lo,,,,,,4,,,,,,,,low,1,0,1,0,1,,,,,,,,,
298300,2022-12-07_14h13.11.401,vts_reward_expectancy_bt,2022.2.4,Win32,59.74786401,Chrome,1383,864,,,,,0,924,,,,,,,,,,,,,,,,,139,Y,triangle,0,0,,,,,,,,,,,,,,,,repeat,number,NA,f,0.0561,Lo,,,,,,4,,,,,,,,low,2,0,2,0,1,,,,,,,,,
298300,2022-12-07_14h13.11.401,vts_reward_expectancy_bt,2022.2.4,Win32,59.74786401,Chrome,1383,864,,,,,10,934,,,,,,,,,,,,,,,,,167,S,hexagon,1,1,,,,,,,,,,,,,,,,switch,letter,lettSwt,k,0.0009,Hi,,,,,,4,,,,,,,,low,3,0,3,0,1,,,,,,,,,
298300,2022-12-07_14h13.11.401,vts_reward_expectancy_bt,2022.2.4,Win32,59.74786401,Chrome,1383,864,,,,,10,944,,,,,,,,,,,,,,,,,146,U,star,1,0,,,,,,,,,,,,,,,,repeat,letter,lettRpt,k,0.1511,Hi,,,,,,4,,,,,,,,low,4,0,4,0,1,,,,,,,,,
298300,2022-12-07_14h13.11.401,vts_reward_expectancy_bt,2022.2.4,Win32,59.74786401,Chrome,1383,864,,,,,0,944,,,,,,,,,,,,,,,,,132,H,circle,0,0,,,,,,,,,,,,,,,,switch,number,NA,f,0.0008,Hi,,,,,,4,,,,,,,,low,5,0,5,0,1,,,,,,,,,
298300,2022-12-07_14h13.11.401,vts_reward_expectancy_bt,2022.2.4,Win32,59.74786401,Chrome,1383,864,,,,,0,944,,,,,,,,,,,,,,,,,160,F,triangle,0,1,,,,,,,,,,,,,,,,switch,letter,NA,k,0.0675,Hi,,,,,,4,,,,,,,,low,6,0,6,0,1,,,,,,,,,
298300,2022-12-07_14h13.11.401,vts_reward_expectancy_bt,2022.2.4,Win32,59.74786401,Chrome,1383,864,,,,,0,944,,,,,,,,,,,,,,,,,181,B,hexagon,0,1,,,,,,,,,,,,,,,,repeat,letter,NA,k,0.545,Hi,,,,,,4,,,,,,,,low,7,0,7,0,1,,,,,,,,,
298300,2022-12-07_14h13.11.401,vts_reward_expectancy_bt,2022.2.4,Win32,59.74786401,Chrome,1383,864,,,,,0,944,,,,,,,,,,,,,,,,,174,W,star,1,1,,,,,,,,,,,,,,,,switch,number,numSwt,f,0.6511,Hi,,,,,,4,,,,,,,,low,8,0,8,0,1,,,,,,,,,
298300,2022-12-07_14h13.11.401,vts_reward_expectancy_bt,2022.2.4,Win32,59.74786401,Chrome,1383,864,,,,,0,944,,,,,,,,,,,,,,,,,125,D,circle,0,0,,,,,,,,,,,,,,,,switch,letter,NA,k,0.0094,Hi,,,,,,4,,,,,,,,low,9,0,9,0,1,,,,,,,,,
298300,2022-12-07_14h13.11.401,vts_reward_expectancy_bt,2022.2.4,Win32,59.74786401,Chrome,1383,864,,,,,0,944,,,,,,,,,,,,,,,,,139,Y,hexagon,0,1,,,,,,,,,,,,,,,,switch,number,NA,f,0.1204,Hi,,,,,,4,,,,,,,,low,10,0,10,0,1,,,,,,,,,
298300,2022-12-07_14h13.11.401,vts_reward_expectancy_bt,2022.2.4,Win32,59.74786401,Chrome,1383,864,,,,,1,945,,,,,,,,,,,,,,,,,167,S,triangle,1,1,,,,,,,,,,,,,,,,switch,letter,lettSwt,k,1.033,Lo,,,,,,4,,,,,,,,low,11,0,11,0,1,,,,,,,,,
298300,2022-12-07_14h13.11.401,vts_reward_expectancy_bt,2022.2.4,Win32,59.74786401,Chrome,1383,864,,,,,10,955,,,,,,,,,,,,,,,,,146,U,circle,1,0,,,,,,,,,,,,,,,,repeat,letter,lettRpt,k,0.5842,Lo,,,,,,4,,,,,,,,low,12,0,12,0,1,,,,,,,,,
298300,2022-12-07_14h13.11.401,vts_reward_expectancy_bt,2022.2.4,Win32,59.74786401,Chrome,1383,864,,,,,0,955,,,,,,,,,,,,,,,,,132,H,triangle,0,0,,,,,,,,,,,,,,,,repeat,letter,NA,k,0.5175,Lo,,,,,,4,,,,,,,,low,13,0,13,0,1,,,,,,,,,
298300,2022-12-07_14h13.11.401,vts_reward_expectancy_bt,2022.2.4,Win32,59.74786401,Chrome,1383,864,,,,,0,955,,,,,,,,,,,,,,,,,160,F,hexagon,0,1,,,,,,,,,,,,,,,,repeat,letter,NA,k,1.7495,Lo,,,,,,4,,,,,,,,low,14,0,14,0,1,,,,,,,,,
298300,2022-12-07_14h13.11.401,vts_reward_expectancy_bt,2022.2.4,Win32,59.74786401,Chrome,1383,864,,,,,0,955,,,,,,,,,,,,,,,,,181,B,star,0,1,,,,,,,,,,,,,,,,repeat,letter,NA,k,0.55,Lo,,,,,,4,,,,,,,,low,15,0,15,0,1,,,,,,,,,
298300,2022-12-07_14h13.11.401,vts_reward_expectancy_bt,2022.2.4,Win32,59.74786401,Chrome,1383,864,,,,,0,955,,,,,,,,,,,,,,,,,181,B,triangle,0,1,,,,,,,,,,,,,,,,repeat,letter,NA,k,2.1839,Lo,,,,,,4,,,,,,,,low,16,0,16,0,1,,,,,,,,,
298300,2022-12-07_14h13.11.401,vts_reward_expectancy_bt,2022.2.4,Win32,59.74786401,Chrome,1383,864,,,,,10,965,,,,,,,,,,,,,,,,,132,Y,circle,1,1,,,,,,,,,,,,,,,,switch,number,numSwt,d,0.4211,Lo,,,,,,4,,,,,,,,low,17,0,17,0,1,,,,,,,,,
298300,2022-12-07_14h13.11.401,vts_reward_expectancy_bt,2022.2.4,Win32,59.74786401,Chrome,1383,864,,,,,0,965,,,,,,,,,,,,,,,,,139,U,star,1,0,,,,,,,,,,,,,,,,repeat,number,numRpt,d,0.4188,Hi,,,,,,4,,,,,,,,low,18,0,18,0,1,,,,,,,,,
298300,2022-12-07_14h13.11.401,vts_reward_expectancy_bt,2022.2.4,Win32,59.74786401,Chrome,1383,864,,,,,0,965,,,,,,,,,,,,,,,,,146,W,hexagon,0,0,,,,,,,,,,,,,,,,repeat,number,NA,f,0.4186,Hi,,,,,,4,,,,,,,,low,19,0,19,0,1,,,,,,,,,
298300,2022-12-07_14h13.11.401,vts_reward_expectancy_bt,2022.2.4,Win32,59.74786401,Chrome,1383,864,,,,,0,965,,,,,,,,,,,,,,,,,167,S,star,1,1,,,,,,,,,,,,,,,,repeat,number,numRpt,f,0.4501,Hi,,,,,,4,,,,,,,,low,20,0,20,0,1,,,,,,,,,
298300,2022-12-07_14h13.11.401,vts_reward_expectancy_bt,2022.2.4,Win32,59.74786401,Chrome,1383,864,,,,,1,966,,,,,,,,,,,,,,,,,160,F,triangle,1,0,,,,,,,,,,,,,,,,repeat,number,numRpt,f,0.8345,Lo,,,,,,4,,,,,,,,low,21,0,21,0,1,,,,,,,,,
298300,2022-12-07_14h13.11.401,vts_reward_expectancy_bt,2022.2.4,Win32,59.74786401,Chrome,1383,864,,,,,0,966,,,,,,,,,,,,,,,,,174,H,hexagon,1,0,,,,,,,,,,,,,,,,repeat,number,numRpt,f,0.5165,Hi,,,,,,4,,,,,,,,low,22,0,22,0,1,,,,,,,,,
298300,2022-12-07_14h13.11.401,vts_reward_expectancy_bt,2022.2.4,Win32,59.74786401,Chrome,1383,864,,,,,1,967,,,,,,,,,,,,,,,,,125,D,circle,1,0,,,,,,,,,,,,,,,,repeat,number,numRpt,d,0.2346,Lo,,,,,,4,,,,,,,,low,23,0,23,0,1,,,,,,,,,
298300,2022-12-07_14h13.11.401,vts_reward_expectancy_bt,2022.2.4,Win32,59.74786401,Chrome,1383,864,,,,,1,968,,,,,,,,,,,,,,,,,167,D,triangle,1,0,,,,,,,,,,,,,,,,switch,letter,lettSwt,j,0.9674,Lo,,,,,,4,,,,,,,,low,24,0,24,0,1,,,,,,,,,
298300,2022-12-07_14h13.11.401,vts_reward_expectancy_bt,2022.2.4,Win32,59.74786401,Chrome,1383,864,,,,,0,968,,,,,,,,,,,,,,,,,132,W,hexagon,1,0,,,,,,,,,,,,,,,,repeat,letter,lettRpt,k,0.334,Hi,,,,,,4,,,,,,,,low,25,0,25,0,1,,,,,,,,,
298300,2022-12-07_14h13.11.401,vts_reward_expectancy_bt,2022.2.4,Win32,59.74786401,Chrome,1383,864,,,,,0,968,,,,,,,,,,,,,,,,,181,H,star,1,0,,,,,,,,,,,,,,,,repeat,letter,lettRpt,j,1.2522,Hi,,,,,,4,,,,,,,,low,26,0,26,0,1,,,,,,,,,
298300,2022-12-07_14h13.11.401,vts_reward_expectancy_bt,2022.2.4,Win32,59.74786401,Chrome,1383,864,,,,,0,968,,,,,,,,,,,,,,,,,160,B,circle,-1,0,,,,,,,,,,,,,,,,switch,no_choice,NA,,,Hi,,,,,,4,,,,,,,,low,27,0,27,0,1,,,,,,,,,
298300,2022-12-07_14h13.11.401,vts_reward_expectancy_bt,2022.2.4,Win32,59.74786401,Chrome,1383,864,,,,,10,978,,,,,,,,,,,,,,,,,146,U,hexagon,1,0,,,,,,,,,,,,,,,,switch,letter,lettSwt,k,2.6343,Hi,,,,,,4,,,,,,,,low,28,0,28,0,1,,,,,,,,,
298300,2022-12-07_14h13.11.401,vts_reward_expectancy_bt,2022.2.4,Win32,59.74786401,Chrome,1383,864,,,,,0,978,,,,,,,,,,,,,,,,,125,F,star,-1,0,,,,,,,,,,,,,,,,switch,no_choice,NA,,,Hi,,,,,,4,,,,,,,,low,29,0,29,0,1,,,,,,,,,
298300,2022-12-07_14h13.11.401,vts_reward_expectancy_bt,2022.2.4,Win32,59.74786401,Chrome,1383,864,,,,,10,988,,,,,,,,,,,,,,,,,139,S,circle,1,0,,,,,,,,,,,,,,,,switch,letter,lettSwt,k,0.4517,Lo,,,,,,4,,,,,,,,low,30,0,30,0,1,,,,,,,,,
298300,2022-12-07_14h13.11.401,vts_reward_expectancy_bt,2022.2.4,Win32,59.74786401,Chrome,1383,864,,,,,1,989,,,,,,,,,,,,,,,,,174,Y,triangle,1,0,,,,,,,,,,,,,,,,repeat,letter,lettRpt,k,0.4333,Lo,,,,,,4,,,,,,,,low,31,0,31,0,1,,,,,,,,,
298300,2022-12-07_14h13.11.401,vts_reward_expectancy_bt,2022.2.4,Win32,59.74786401,Chrome,1383,864,,,,,1,990,,,,,,,,,,,,,,,,,160,F,circle,1,0,,,,,,,,,,,,,,,,switch,number,numSwt,f,0.3679,Lo,,,,,,5,,,,,,space,1.434,low,0,0,0,0,1,,,,,,,,,
298300,2022-12-07_14h13.11.401,vts_reward_expectancy_bt,2022.2.4,Win32,59.74786401,Chrome,1383,864,,,,,0,990,,,,,,,,,,,,,,,,,167,Y,star,1,0,,,,,,,,,,,,,,,,repeat,number,numRpt,f,0.5023,Hi,,,,,,5,,,,,,,,low,1,0,1,0,1,,,,,,,,,
298300,2022-12-07_14h13.11.401,vts_reward_expectancy_bt,2022.2.4,Win32,59.74786401,Chrome,1383,864,,,,,10,1000,,,,,,,,,,,,,,,,,132,U,triangle,1,0,,,,,,,,,,,,,,,,repeat,number,numRpt,d,0.4676,Lo,,,,,,5,,,,,,,,low,2,0,2,0,1,,,,,,,,,
298300,2022-12-07_14h13.11.401,vts_reward_expectancy_bt,2022.2.4,Win32,59.74786401,Chrome,1383,864,,,,,0,1000,,,,,,,,,,,,,,,,,139,D,hexagon,0,0,,,,,,,,,,,,,,,,repeat,number,NA,f,0.8666,Lo,,,,,,5,,,,,,,,low,3,0,3,0,1,,,,,,,,,
298300,2022-12-07_14h13.11.401,vts_reward_expectancy_bt,2022.2.4,Win32,59.74786401,Chrome,1383,864,,,,,10,1010,,,,,,,,,,,,,,,,,125,H,circle,1,1,,,,,,,,,,,,,,,,repeat,number,numRpt,d,1.1165,Lo,,,,,,5,,,,,,,,low,4,0,4,0,1,,,,,,,,,
298300,2022-12-07_14h13.11.401,vts_reward_expectancy_bt,2022.2.4,Win32,59.74786401,Chrome,1383,864,,,,,0,1010,,,,,,,,,,,,,,,,,146,S,star,1,0,,,,,,,,,,,,,,,,switch,letter,lettSwt,k,0.8179,Hi,,,,,,5,,,,,,,,low,5,0,5,0,1,,,,,,,,,
298300,2022-12-07_14h13.11.401,vts_reward_expectancy_bt,2022.2.4,Win32,59.74786401,Chrome,1383,864,,,,,1,1011,,,,,,,,,,,,,,,,,174,W,triangle,1,0,,,,,,,,,,,,,,,,repeat,letter,lettRpt,k,1.3007,Lo,,,,,,5,,,,,,,,low,6,0,6,0,1,,,,,,,,,
298300,2022-12-07_14h13.11.401,vts_reward_expectancy_bt,2022.2.4,Win32,59.74786401,Chrome,1383,864,,,,,0,1011,,,,,,,,,,,,,,,,,181,B,hexagon,1,0,,,,,,,,,,,,,,,,repeat,letter,lettRpt,j,1.518,Hi,,,,,,5,,,,,,,,low,7,0,7,0,1,,,,,,,,,
298300,2022-12-07_14h13.11.401,vts_reward_expectancy_bt,2022.2.4,Win32,59.74786401,Chrome,1383,864,,,,,0,1011,,,,,,,,,,,,,,,,,160,F,hexagon,0,0,,,,,,,,,,,,,,,,repeat,letter,NA,k,0.432,Hi,,,,,,5,,,,,,,,low,8,0,8,0,1,,,,,,,,,
298300,2022-12-07_14h13.11.401,vts_reward_expectancy_bt,2022.2.4,Win32,59.74786401,Chrome,1383,864,,,,,1,1012,,,,,,,,,,,,,,,,,167,Y,triangle,1,1,,,,,,,,,,,,,,,,repeat,letter,lettRpt,k,0.5456,Lo,,,,,,5,,,,,,,,low,9,0,9,0,1,,,,,,,,,
298300,2022-12-07_14h13.11.401,vts_reward_expectancy_bt,2022.2.4,Win32,59.74786401,Chrome,1383,864,,,,,0,1012,,,,,,,,,,,,,,,,,132,U,star,1,0,,,,,,,,,,,,,,,,repeat,letter,lettRpt,k,0.5699,Hi,,,,,,5,,,,,,,,low,10,0,10,0,1,,,,,,,,,
298300,2022-12-07_14h13.11.401,vts_reward_expectancy_bt,2022.2.4,Win32,59.74786401,Chrome,1383,864,,,,,1,1013,,,,,,,,,,,,,,,,,139,D,circle,1,0,,,,,,,,,,,,,,,,repeat,letter,lettRpt,j,1.4178,Lo,,,,,,5,,,,,,,,low,11,0,11,0,1,,,,,,,,,
298300,2022-12-07_14h13.11.401,vts_reward_expectancy_bt,2022.2.4,Win32,59.74786401,Chrome,1383,864,,,,,0,1013,,,,,,,,,,,,,,,,,125,H,hexagon,0,0,,,,,,,,,,,,,,,,repeat,letter,NA,k,0.5157,Lo,,,,,,5,,,,,,,,low,12,0,12,0,1,,,,,,,,,
298300,2022-12-07_14h13.11.401,vts_reward_expectancy_bt,2022.2.4,Win32,59.74786401,Chrome,1383,864,,,,,0,1013,,,,,,,,,,,,,,,,,146,S,triangle,0,1,,,,,,,,,,,,,,,,repeat,letter,NA,j,0.5688,Lo,,,,,,5,,,,,,,,low,13,0,13,0,1,,,,,,,,,
298300,2022-12-07_14h13.11.401,vts_reward_expectancy_bt,2022.2.4,Win32,59.74786401,Chrome,1383,864,,,,,0,1013,,,,,,,,,,,,,,,,,174,W,star,-1,1,,,,,,,,,,,,,,,,switch,no_choice,NA,,,Lo,,,,,,5,,,,,,,,low,14,0,14,0,1,,,,,,,,,
298300,2022-12-07_14h13.11.401,vts_reward_expectancy_bt,2022.2.4,Win32,59.74786401,Chrome,1383,864,,,,,1,1014,,,,,,,,,,,,,,,,,181,B,circle,1,0,,,,,,,,,,,,,,,,switch,number,numSwt,f,0.001,Lo,,,,,,5,,,,,,,,low,15,0,15,0,1,,,,,,,,,
298300,2022-12-07_14h13.11.401,vts_reward_expectancy_bt,2022.2.4,Win32,59.74786401,Chrome,1383,864,,,,,10,1024,,,,,,,,,,,,,,,,,132,B,circle,1,0,,,,,,,,,,,,,,,,repeat,number,numRpt,d,0.0008,Lo,,,,,,5,,,,,,,,low,16,0,16,0,1,,,,,,,,,
298300,2022-12-07_14h13.11.401,vts_reward_expectancy_bt,2022.2.4,Win32,59.74786401,Chrome,1383,864,,,,,10,1034,,,,,,,,,,,,,,,,,174,Y,hexagon,1,0,,,,,,,,,,,,,,,,switch,letter,lettSwt,k,0.0348,Hi,,,,,,5,,,,,,,,low,17,0,17,0,1,,,,,,,,,
298300,2022-12-07_14h13.11.401,vts_reward_expectancy_bt,2022.2.4,Win32,59.74786401,Chrome,1383,864,,,,,0,1034,,,,,,,,,,,,,,,,,167,S,triangle,0,0,,,,,,,,,,,,,,,,switch,number,NA,d,0.0552,Hi,,,,,,5,,,,,,,,low,18,0,18,0,1,,,,,,,,,
298300,2022-12-07_14h13.11.401,vts_reward_expectancy_bt,2022.2.4,Win32,59.74786401,Chrome,1383,864,,,,,1,1035,,,,,,,,,,,,,,,,,146,H,star,1,1,,,,,,,,,,,,,,,,repeat,number,numRpt,d,0.085,Hi,,,,,,5,,,,,,,,low,19,0,19,0,1,,,,,,,,,
298300,2022-12-07_14h13.11.401,vts_reward_expectancy_bt,2022.2.4,Win32,59.74786401,Chrome,1383,864,,,,,0,1035,,,,,,,,,,,,,,,,,125,D,triangle,-1,0,,,,,,,,,,,,,,,,switch,no_choice,NA,,,Hi,,,,,,5,,,,,,,,low,20,0,20,0,1,,,,,,,,,
298300,2022-12-07_14h13.11.401,vts_reward_expectancy_bt,2022.2.4,Win32,59.74786401,Chrome,1383,864,,,,,0,1035,,,,,,,,,,,,,,,,,139,F,star,0,0,,,,,,,,,,,,,,,,switch,number,NA,f,0.1166,Hi,,,,,,5,,,,,,,,low,21,0,21,0,1,,,,,,,,,
298300,2022-12-07_14h13.11.401,vts_reward_expectancy_bt,2022.2.4,Win32,59.74786401,Chrome,1383,864,,,,,0,1035,,,,,,,,,,,,,,,,,181,W,hexagon,0,1,,,,,,,,,,,,,,,,repeat,number,NA,d,0.0704,Hi,,,,,,5,,,,,,,,low,22,0,22,0,1,,,,,,,,,
298300,2022-12-07_14h13.11.401,vts_reward_expectancy_bt,2022.2.4,Win32,59.74786401,Chrome,1383,864,,,,,0,1035,,,,,,,,,,,,,,,,,160,U,circle,0,1,,,,,,,,,,,,,,,,repeat,number,NA,d,0.0009,Hi,,,,,,5,,,,,,,,low,23,0,23,0,1,,,,,,,,,
298300,2022-12-07_14h13.11.401,vts_reward_expectancy_bt,2022.2.4,Win32,59.74786401,Chrome,1383,864,,,,,0,1035,,,,,,,,,,,,,,,,,160,S,hexagon,0,1,,,,,,,,,,,,,,,,repeat,number,NA,d,0.6686,Hi,,,,,,5,,,,,,,,low,24,0,24,0,1,,,,,,,,,
