participant,date,expName,psychopyVersion,OS,frameRate,browser,xResolution,yResolution,key_resp.keys,key_resp.rt,training_resp.keys,training_resp.rt,points_trial,points_cumul,trainBlock,training.thisRepN,training.thisTrialN,training.thisN,training.thisIndex,training.ran,LTriangleOpac,LCircleOpac,LHexagonOpac,LStarOpac,RTriangleOpac,RCircleOpac,RHexagonOpac,RStarOpac,LShape_ID,RShape_ID,curr_topStim,curr_bottStim,curr_shape,acc,E1,target_resp_prac1.keys,target_resp_prac1.rt,pracBlock,task1_prac_trials.thisRepN,task1_prac_trials.thisTrialN,task1_prac_trials.thisN,task1_prac_trials.thisIndex,task1_prac_trials.ran,target_resp_prac2.keys,target_resp_prac2.rt,task2_praac_trials.thisRepN,task2_praac_trials.thisTrialN,task2_praac_trials.thisN,task2_praac_trials.thisIndex,task2_praac_trials.ran,alt,task,condition,target_resp.keys,target_resp.rt,rewCond,vts_practice_trials.thisRepN,vts_practice_trials.thisTrialN,vts_practice_trials.thisN,vts_practice_trials.thisIndex,vts_practice_trials.ran,blockNum,trials_norew.thisRepN,trials_norew.thisTrialN,trials_norew.thisN,trials_norew.thisIndex,trials_norew.ran,key_resp_2.keys,key_resp_2.rt,rewExpectancy,trials_rew.thisRepN,trials_rew.thisTrialN,trials_rew.thisN,trials_rew.thisIndex,trials_rew.ran,Q1,Q2,Q2_text,Q3,Q4,Q5_text,Q5,xRes,yRes
298327,2022-12-04_16h50.08.659,vts_reward_expectancy_bt,2022.2.4,Win32,138.6001386,Chrome,1600,1067,,,,,,,,,,,,,,,,,,,,,,,,,,,,,,,,,,,,,,,,,,,,,,,,,,,,,,,,,,,,,,,,,,,,,,,,,,,,
298327,2022-12-04_16h50.08.659,vts_reward_expectancy_bt,2022.2.4,Win32,138.6001386,Chrome,1600,1067,space,42.9902,,,,,,,,,,,,,,,,,,,,,,,,,,,,,,,,,,,,,,,,,,,,,,,,,,,,,,,,,,,,,,,,,,,,,,,,,,
298327,2022-12-04_16h50.08.659,vts_reward_expectancy_bt,2022.2.4,Win32,138.6001386,Chrome,1600,1067,,,,,,,,,,,,,,,,,,,,,,,,,,,,,,,,,,,,,,,,,,,,,,,,,,,,,,,,,,,,,,,,,,,,,,,,,,,,
298327,2022-12-04_16h50.08.659,vts_reward_expectancy_bt,2022.2.4,Win32,138.6001386,Chrome,1600,1067,,,a,3.2966,0,0,0,0,0,0,10,1,0,0,0,1,0,1,0,0,star ,circle,,,,,,,,,,,,,,,,,,,,,,,,,,,,,,,,,,,,,,,,,,,,,,,,,,,,,,
298327,2022-12-04_16h50.08.659,vts_reward_expectancy_bt,2022.2.4,Win32,138.6001386,Chrome,1600,1067,,,l,0.9168,10,10,0,0,1,1,11,1,0,0,0,1,0,0,1,0,star,hexagon,,,,,,,,,,,,,,,,,,,,,,,,,,,,,,,,,,,,,,,,,,,,,,,,,,,,,,
298327,2022-12-04_16h50.08.659,vts_reward_expectancy_bt,2022.2.4,Win32,138.6001386,Chrome,1600,1067,,,a,0.5978,1,11,0,0,2,2,5,1,0,1,0,0,0,0,0,1,circle,star,,,,,,,,,,,,,,,,,,,,,,,,,,,,,,,,,,,,,,,,,,,,,,,,,,,,,,
298327,2022-12-04_16h50.08.659,vts_reward_expectancy_bt,2022.2.4,Win32,138.6001386,Chrome,1600,1067,,,l,1.3435,10,21,0,0,3,3,2,1,1,0,0,0,0,0,0,1,triangle,star,,,,,,,,,,,,,,,,,,,,,,,,,,,,,,,,,,,,,,,,,,,,,,,,,,,,,,
298327,2022-12-04_16h50.08.659,vts_reward_expectancy_bt,2022.2.4,Win32,138.6001386,Chrome,1600,1067,,,l,0.8783,10,31,0,0,4,4,1,1,1,0,0,0,0,0,1,0,triangle,hexagon,,,,,,,,,,,,,,,,,,,,,,,,,,,,,,,,,,,,,,,,,,,,,,,,,,,,,,
298327,2022-12-04_16h50.08.659,vts_reward_expectancy_bt,2022.2.4,Win32,138.6001386,Chrome,1600,1067,,,a,1.0786,10,41,0,0,5,5,6,1,0,0,1,0,1,0,0,0,hexagon,triangle,,,,,,,,,,,,,,,,,,,,,,,,,,,,,,,,,,,,,,,,,,,,,,,,,,,,,,
298327,2022-12-04_16h50.08.659,vts_reward_expectancy_bt,2022.2.4,Win32,138.6001386,Chrome,1600,1067,,,a,1.195,1,42,0,0,6,6,3,1,0,1,0,0,1,0,0,0,circle,triangle,,,,,,,,,,,,,,,,,,,,,,,,,,,,,,,,,,,,,,,,,,,,,,,,,,,,,,
298327,2022-12-04_16h50.08.659,vts_reward_expectancy_bt,2022.2.4,Win32,138.6001386,Chrome,1600,1067,,,l,0.7162,10,52,0,0,7,7,7,1,0,0,1,0,0,1,0,0,hexagon,circle,,,,,,,,,,,,,,,,,,,,,,,,,,,,,,,,,,,,,,,,,,,,,,,,,,,,,,
298327,2022-12-04_16h50.08.659,vts_reward_expectancy_bt,2022.2.4,Win32,138.6001386,Chrome,1600,1067,,,l,1.1218,1,53,0,0,8,8,0,1,1,0,0,0,0,1,0,0,triangle,circle,,,,,,,,,,,,,,,,,,,,,,,,,,,,,,,,,,,,,,,,,,,,,,,,,,,,,,
298327,2022-12-04_16h50.08.659,vts_reward_expectancy_bt,2022.2.4,Win32,138.6001386,Chrome,1600,1067,,,l,1.7843,1,54,0,0,9,9,8,1,0,0,1,0,0,0,0,1,hexagon,star,,,,,,,,,,,,,,,,,,,,,,,,,,,,,,,,,,,,,,,,,,,,,,,,,,,,,,
298327,2022-12-04_16h50.08.659,vts_reward_expectancy_bt,2022.2.4,Win32,138.6001386,Chrome,1600,1067,,,l,1.588,10,64,0,0,10,10,4,1,0,1,0,0,0,0,1,0,circle,hexagon,,,,,,,,,,,,,,,,,,,,,,,,,,,,,,,,,,,,,,,,,,,,,,,,,,,,,,
298327,2022-12-04_16h50.08.659,vts_reward_expectancy_bt,2022.2.4,Win32,138.6001386,Chrome,1600,1067,,,l,0.9848,1,65,0,0,11,11,9,1,0,0,0,1,1,0,0,0,star,triangle,,,,,,,,,,,,,,,,,,,,,,,,,,,,,,,,,,,,,,,,,,,,,,,,,,,,,,
298327,2022-12-04_16h50.08.659,vts_reward_expectancy_bt,2022.2.4,Win32,138.6001386,Chrome,1600,1067,,,l,1.0084,1,66,0,1,0,12,8,1,0,0,1,0,0,0,0,1,hexagon,star,,,,,,,,,,,,,,,,,,,,,,,,,,,,,,,,,,,,,,,,,,,,,,,,,,,,,,
298327,2022-12-04_16h50.08.659,vts_reward_expectancy_bt,2022.2.4,Win32,138.6001386,Chrome,1600,1067,,,a,0.6588,10,76,0,1,1,13,11,1,0,0,0,1,0,0,1,0,star,hexagon,,,,,,,,,,,,,,,,,,,,,,,,,,,,,,,,,,,,,,,,,,,,,,,,,,,,,,
298327,2022-12-04_16h50.08.659,vts_reward_expectancy_bt,2022.2.4,Win32,138.6001386,Chrome,1600,1067,,,a,0.6008,10,86,0,1,2,14,6,1,0,0,1,0,1,0,0,0,hexagon,triangle,,,,,,,,,,,,,,,,,,,,,,,,,,,,,,,,,,,,,,,,,,,,,,,,,,,,,,
298327,2022-12-04_16h50.08.659,vts_reward_expectancy_bt,2022.2.4,Win32,138.6001386,Chrome,1600,1067,,,l,1.1592,10,96,0,1,3,15,4,1,0,1,0,0,0,0,1,0,circle,hexagon,,,,,,,,,,,,,,,,,,,,,,,,,,,,,,,,,,,,,,,,,,,,,,,,,,,,,,
298327,2022-12-04_16h50.08.659,vts_reward_expectancy_bt,2022.2.4,Win32,138.6001386,Chrome,1600,1067,,,a,4.4789,10,106,0,1,4,16,3,1,0,1,0,0,1,0,0,0,circle,triangle,,,,,,,,,,,,,,,,,,,,,,,,,,,,,,,,,,,,,,,,,,,,,,,,,,,,,,
298327,2022-12-04_16h50.08.659,vts_reward_expectancy_bt,2022.2.4,Win32,138.6001386,Chrome,1600,1067,,,l,0.4038,1,107,0,1,5,17,10,1,0,0,0,1,0,1,0,0,star ,circle,,,,,,,,,,,,,,,,,,,,,,,,,,,,,,,,,,,,,,,,,,,,,,,,,,,,,,
298327,2022-12-04_16h50.08.659,vts_reward_expectancy_bt,2022.2.4,Win32,138.6001386,Chrome,1600,1067,,,a,0.4077,1,108,0,1,6,18,1,1,1,0,0,0,0,0,1,0,triangle,hexagon,,,,,,,,,,,,,,,,,,,,,,,,,,,,,,,,,,,,,,,,,,,,,,,,,,,,,,
298327,2022-12-04_16h50.08.659,vts_reward_expectancy_bt,2022.2.4,Win32,138.6001386,Chrome,1600,1067,,,l,0.4011,1,109,0,1,7,19,0,1,1,0,0,0,0,1,0,0,triangle,circle,,,,,,,,,,,,,,,,,,,,,,,,,,,,,,,,,,,,,,,,,,,,,,,,,,,,,,
298327,2022-12-04_16h50.08.659,vts_reward_expectancy_bt,2022.2.4,Win32,138.6001386,Chrome,1600,1067,,,l,0.5289,10,119,0,1,8,20,2,1,1,0,0,0,0,0,0,1,triangle,star,,,,,,,,,,,,,,,,,,,,,,,,,,,,,,,,,,,,,,,,,,,,,,,,,,,,,,
298327,2022-12-04_16h50.08.659,vts_reward_expectancy_bt,2022.2.4,Win32,138.6001386,Chrome,1600,1067,,,l,0.538,10,129,0,1,9,21,7,1,0,0,1,0,0,1,0,0,hexagon,circle,,,,,,,,,,,,,,,,,,,,,,,,,,,,,,,,,,,,,,,,,,,,,,,,,,,,,,
298327,2022-12-04_16h50.08.659,vts_reward_expectancy_bt,2022.2.4,Win32,138.6001386,Chrome,1600,1067,,,a,0.3213,10,139,0,1,10,22,9,1,0,0,0,1,1,0,0,0,star,triangle,,,,,,,,,,,,,,,,,,,,,,,,,,,,,,,,,,,,,,,,,,,,,,,,,,,,,,
298327,2022-12-04_16h50.08.659,vts_reward_expectancy_bt,2022.2.4,Win32,138.6001386,Chrome,1600,1067,,,l,0.4231,10,149,0,1,11,23,5,1,0,1,0,0,0,0,0,1,circle,star,,,,,,,,,,,,,,,,,,,,,,,,,,,,,,,,,,,,,,,,,,,,,,,,,,,,,,
298327,2022-12-04_16h50.08.659,vts_reward_expectancy_bt,2022.2.4,Win32,138.6001386,Chrome,1600,1067,,,l,0.5156,1,150,0,2,0,24,10,1,0,0,0,1,0,1,0,0,star ,circle,,,,,,,,,,,,,,,,,,,,,,,,,,,,,,,,,,,,,,,,,,,,,,,,,,,,,,
298327,2022-12-04_16h50.08.659,vts_reward_expectancy_bt,2022.2.4,Win32,138.6001386,Chrome,1600,1067,,,l,0.4251,10,160,0,2,1,25,8,1,0,0,1,0,0,0,0,1,hexagon,star,,,,,,,,,,,,,,,,,,,,,,,,,,,,,,,,,,,,,,,,,,,,,,,,,,,,,,
298327,2022-12-04_16h50.08.659,vts_reward_expectancy_bt,2022.2.4,Win32,138.6001386,Chrome,1600,1067,,,a,0.4397,1,161,0,2,2,26,3,1,0,1,0,0,1,0,0,0,circle,triangle,,,,,,,,,,,,,,,,,,,,,,,,,,,,,,,,,,,,,,,,,,,,,,,,,,,,,,
298327,2022-12-04_16h50.08.659,vts_reward_expectancy_bt,2022.2.4,Win32,138.6001386,Chrome,1600,1067,,,a,0.4099,1,162,0,2,3,27,5,1,0,1,0,0,0,0,0,1,circle,star,,,,,,,,,,,,,,,,,,,,,,,,,,,,,,,,,,,,,,,,,,,,,,,,,,,,,,
298327,2022-12-04_16h50.08.659,vts_reward_expectancy_bt,2022.2.4,Win32,138.6001386,Chrome,1600,1067,,,l,0.3014,1,163,0,2,4,28,0,1,1,0,0,0,0,1,0,0,triangle,circle,,,,,,,,,,,,,,,,,,,,,,,,,,,,,,,,,,,,,,,,,,,,,,,,,,,,,,
298327,2022-12-04_16h50.08.659,vts_reward_expectancy_bt,2022.2.4,Win32,138.6001386,Chrome,1600,1067,,,a,0.3018,1,164,0,2,5,29,1,1,1,0,0,0,0,0,1,0,triangle,hexagon,,,,,,,,,,,,,,,,,,,,,,,,,,,,,,,,,,,,,,,,,,,,,,,,,,,,,,
298327,2022-12-04_16h50.08.659,vts_reward_expectancy_bt,2022.2.4,Win32,138.6001386,Chrome,1600,1067,,,l,0.4993,10,174,0,2,6,30,2,1,1,0,0,0,0,0,0,1,triangle,star,,,,,,,,,,,,,,,,,,,,,,,,,,,,,,,,,,,,,,,,,,,,,,,,,,,,,,
298327,2022-12-04_16h50.08.659,vts_reward_expectancy_bt,2022.2.4,Win32,138.6001386,Chrome,1600,1067,,,l,0.4615,10,184,0,2,7,31,4,1,0,1,0,0,0,0,1,0,circle,hexagon,,,,,,,,,,,,,,,,,,,,,,,,,,,,,,,,,,,,,,,,,,,,,,,,,,,,,,
298327,2022-12-04_16h50.08.659,vts_reward_expectancy_bt,2022.2.4,Win32,138.6001386,Chrome,1600,1067,,,a,0.3143,10,194,0,2,8,32,6,1,0,0,1,0,1,0,0,0,hexagon,triangle,,,,,,,,,,,,,,,,,,,,,,,,,,,,,,,,,,,,,,,,,,,,,,,,,,,,,,
298327,2022-12-04_16h50.08.659,vts_reward_expectancy_bt,2022.2.4,Win32,138.6001386,Chrome,1600,1067,,,l,0.4177,1,195,0,2,9,33,7,1,0,0,1,0,0,1,0,0,hexagon,circle,,,,,,,,,,,,,,,,,,,,,,,,,,,,,,,,,,,,,,,,,,,,,,,,,,,,,,
298327,2022-12-04_16h50.08.659,vts_reward_expectancy_bt,2022.2.4,Win32,138.6001386,Chrome,1600,1067,,,a,0.3783,10,205,0,2,10,34,9,1,0,0,0,1,1,0,0,0,star,triangle,,,,,,,,,,,,,,,,,,,,,,,,,,,,,,,,,,,,,,,,,,,,,,,,,,,,,,
298327,2022-12-04_16h50.08.659,vts_reward_expectancy_bt,2022.2.4,Win32,138.6001386,Chrome,1600,1067,,,l,0.5762,10,215,0,2,11,35,11,1,0,0,0,1,0,0,1,0,star,hexagon,,,,,,,,,,,,,,,,,,,,,,,,,,,,,,,,,,,,,,,,,,,,,,,,,,,,,,
298327,2022-12-04_16h50.08.659,vts_reward_expectancy_bt,2022.2.4,Win32,138.6001386,Chrome,1600,1067,,,l,1.7729,1,216,1,0,0,0,6,1,0,0,1,0,1,0,0,0,hexagon,triangle,,,,,,,,,,,,,,,,,,,,,,,,,,,,,,,,,,,,,,,,,,,,,,,,,,,,,,
298327,2022-12-04_16h50.08.659,vts_reward_expectancy_bt,2022.2.4,Win32,138.6001386,Chrome,1600,1067,,,a,0.3271,10,226,1,0,1,1,7,1,0,0,1,0,0,1,0,0,hexagon,circle,,,,,,,,,,,,,,,,,,,,,,,,,,,,,,,,,,,,,,,,,,,,,,,,,,,,,,
298327,2022-12-04_16h50.08.659,vts_reward_expectancy_bt,2022.2.4,Win32,138.6001386,Chrome,1600,1067,,,l,0.3367,1,227,1,0,2,2,9,1,0,0,0,1,1,0,0,0,star,triangle,,,,,,,,,,,,,,,,,,,,,,,,,,,,,,,,,,,,,,,,,,,,,,,,,,,,,,
298327,2022-12-04_16h50.08.659,vts_reward_expectancy_bt,2022.2.4,Win32,138.6001386,Chrome,1600,1067,,,a,0.3322,1,228,1,0,3,3,10,1,0,0,0,1,0,1,0,0,star ,circle,,,,,,,,,,,,,,,,,,,,,,,,,,,,,,,,,,,,,,,,,,,,,,,,,,,,,,
298327,2022-12-04_16h50.08.659,vts_reward_expectancy_bt,2022.2.4,Win32,138.6001386,Chrome,1600,1067,,,a,0.3416,10,238,1,0,4,4,1,1,1,0,0,0,0,0,1,0,triangle,hexagon,,,,,,,,,,,,,,,,,,,,,,,,,,,,,,,,,,,,,,,,,,,,,,,,,,,,,,
298327,2022-12-04_16h50.08.659,vts_reward_expectancy_bt,2022.2.4,Win32,138.6001386,Chrome,1600,1067,,,a,0.343,10,248,1,0,5,5,8,1,0,0,1,0,0,0,0,1,hexagon,star,,,,,,,,,,,,,,,,,,,,,,,,,,,,,,,,,,,,,,,,,,,,,,,,,,,,,,
298327,2022-12-04_16h50.08.659,vts_reward_expectancy_bt,2022.2.4,Win32,138.6001386,Chrome,1600,1067,,,l,0.2949,1,249,1,0,6,6,0,1,1,0,0,0,0,1,0,0,triangle,circle,,,,,,,,,,,,,,,,,,,,,,,,,,,,,,,,,,,,,,,,,,,,,,,,,,,,,,
298327,2022-12-04_16h50.08.659,vts_reward_expectancy_bt,2022.2.4,Win32,138.6001386,Chrome,1600,1067,,,l,0.2226,10,259,1,0,7,7,5,1,0,1,0,0,0,0,0,1,circle,star,,,,,,,,,,,,,,,,,,,,,,,,,,,,,,,,,,,,,,,,,,,,,,,,,,,,,,
298327,2022-12-04_16h50.08.659,vts_reward_expectancy_bt,2022.2.4,Win32,138.6001386,Chrome,1600,1067,,,l,2.5612,10,269,1,0,8,8,11,1,0,0,0,1,0,0,1,0,star,hexagon,,,,,,,,,,,,,,,,,,,,,,,,,,,,,,,,,,,,,,,,,,,,,,,,,,,,,,
298327,2022-12-04_16h50.08.659,vts_reward_expectancy_bt,2022.2.4,Win32,138.6001386,Chrome,1600,1067,,,l,0.378,10,279,1,0,9,9,3,1,0,1,0,0,1,0,0,0,circle,triangle,,,,,,,,,,,,,,,,,,,,,,,,,,,,,,,,,,,,,,,,,,,,,,,,,,,,,,
298327,2022-12-04_16h50.08.659,vts_reward_expectancy_bt,2022.2.4,Win32,138.6001386,Chrome,1600,1067,,,a,0.3506,1,280,1,0,10,10,4,1,0,1,0,0,0,0,1,0,circle,hexagon,,,,,,,,,,,,,,,,,,,,,,,,,,,,,,,,,,,,,,,,,,,,,,,,,,,,,,
298327,2022-12-04_16h50.08.659,vts_reward_expectancy_bt,2022.2.4,Win32,138.6001386,Chrome,1600,1067,,,l,0.4923,10,290,1,0,11,11,2,1,1,0,0,0,0,0,0,1,triangle,star,,,,,,,,,,,,,,,,,,,,,,,,,,,,,,,,,,,,,,,,,,,,,,,,,,,,,,
298327,2022-12-04_16h50.08.659,vts_reward_expectancy_bt,2022.2.4,Win32,138.6001386,Chrome,1600,1067,,,a,0.533,1,291,1,1,0,12,1,1,1,0,0,0,0,0,1,0,triangle,hexagon,,,,,,,,,,,,,,,,,,,,,,,,,,,,,,,,,,,,,,,,,,,,,,,,,,,,,,
298327,2022-12-04_16h50.08.659,vts_reward_expectancy_bt,2022.2.4,Win32,138.6001386,Chrome,1600,1067,,,l,1.634,10,301,1,1,1,13,7,1,0,0,1,0,0,1,0,0,hexagon,circle,,,,,,,,,,,,,,,,,,,,,,,,,,,,,,,,,,,,,,,,,,,,,,,,,,,,,,
298327,2022-12-04_16h50.08.659,vts_reward_expectancy_bt,2022.2.4,Win32,138.6001386,Chrome,1600,1067,,,a,1.6447,10,311,1,1,2,14,5,1,0,1,0,0,0,0,0,1,circle,star,,,,,,,,,,,,,,,,,,,,,,,,,,,,,,,,,,,,,,,,,,,,,,,,,,,,,,
298327,2022-12-04_16h50.08.659,vts_reward_expectancy_bt,2022.2.4,Win32,138.6001386,Chrome,1600,1067,,,l,1.2836,1,312,1,1,3,15,6,1,0,0,1,0,1,0,0,0,hexagon,triangle,,,,,,,,,,,,,,,,,,,,,,,,,,,,,,,,,,,,,,,,,,,,,,,,,,,,,,
298327,2022-12-04_16h50.08.659,vts_reward_expectancy_bt,2022.2.4,Win32,138.6001386,Chrome,1600,1067,,,a,1.8929,10,322,1,1,4,16,11,1,0,0,0,1,0,0,1,0,star,hexagon,,,,,,,,,,,,,,,,,,,,,,,,,,,,,,,,,,,,,,,,,,,,,,,,,,,,,,
298327,2022-12-04_16h50.08.659,vts_reward_expectancy_bt,2022.2.4,Win32,138.6001386,Chrome,1600,1067,,,a,2.0722,10,332,1,1,5,17,9,1,0,0,0,1,1,0,0,0,star,triangle,,,,,,,,,,,,,,,,,,,,,,,,,,,,,,,,,,,,,,,,,,,,,,,,,,,,,,
298327,2022-12-04_16h50.08.659,vts_reward_expectancy_bt,2022.2.4,Win32,138.6001386,Chrome,1600,1067,,,l,0.6095,10,342,1,1,6,18,10,1,0,0,0,1,0,1,0,0,star ,circle,,,,,,,,,,,,,,,,,,,,,,,,,,,,,,,,,,,,,,,,,,,,,,,,,,,,,,
298327,2022-12-04_16h50.08.659,vts_reward_expectancy_bt,2022.2.4,Win32,138.6001386,Chrome,1600,1067,,,a,0.4324,1,343,1,1,7,19,0,1,1,0,0,0,0,1,0,0,triangle,circle,,,,,,,,,,,,,,,,,,,,,,,,,,,,,,,,,,,,,,,,,,,,,,,,,,,,,,
298327,2022-12-04_16h50.08.659,vts_reward_expectancy_bt,2022.2.4,Win32,138.6001386,Chrome,1600,1067,,,l,0.4026,10,353,1,1,8,20,2,1,1,0,0,0,0,0,0,1,triangle,star,,,,,,,,,,,,,,,,,,,,,,,,,,,,,,,,,,,,,,,,,,,,,,,,,,,,,,
298327,2022-12-04_16h50.08.659,vts_reward_expectancy_bt,2022.2.4,Win32,138.6001386,Chrome,1600,1067,,,a,0.593,1,354,1,1,9,21,4,1,0,1,0,0,0,0,1,0,circle,hexagon,,,,,,,,,,,,,,,,,,,,,,,,,,,,,,,,,,,,,,,,,,,,,,,,,,,,,,
298327,2022-12-04_16h50.08.659,vts_reward_expectancy_bt,2022.2.4,Win32,138.6001386,Chrome,1600,1067,,,l,0.4985,1,355,1,1,10,22,3,1,0,1,0,0,1,0,0,0,circle,triangle,,,,,,,,,,,,,,,,,,,,,,,,,,,,,,,,,,,,,,,,,,,,,,,,,,,,,,
298327,2022-12-04_16h50.08.659,vts_reward_expectancy_bt,2022.2.4,Win32,138.6001386,Chrome,1600,1067,,,l,0.4154,10,365,1,1,11,23,8,1,0,0,1,0,0,0,0,1,hexagon,star,,,,,,,,,,,,,,,,,,,,,,,,,,,,,,,,,,,,,,,,,,,,,,,,,,,,,,
298327,2022-12-04_16h50.08.659,vts_reward_expectancy_bt,2022.2.4,Win32,138.6001386,Chrome,1600,1067,,,a,0.5348,10,375,1,2,0,24,9,1,0,0,0,1,1,0,0,0,star,triangle,,,,,,,,,,,,,,,,,,,,,,,,,,,,,,,,,,,,,,,,,,,,,,,,,,,,,,
298327,2022-12-04_16h50.08.659,vts_reward_expectancy_bt,2022.2.4,Win32,138.6001386,Chrome,1600,1067,,,l,0.6606,1,376,1,2,1,25,10,1,0,0,0,1,0,1,0,0,star ,circle,,,,,,,,,,,,,,,,,,,,,,,,,,,,,,,,,,,,,,,,,,,,,,,,,,,,,,
298327,2022-12-04_16h50.08.659,vts_reward_expectancy_bt,2022.2.4,Win32,138.6001386,Chrome,1600,1067,,,l,0.4583,1,377,1,2,2,26,0,1,1,0,0,0,0,1,0,0,triangle,circle,,,,,,,,,,,,,,,,,,,,,,,,,,,,,,,,,,,,,,,,,,,,,,,,,,,,,,
298327,2022-12-04_16h50.08.659,vts_reward_expectancy_bt,2022.2.4,Win32,138.6001386,Chrome,1600,1067,,,l,0.4146,10,387,1,2,3,27,3,1,0,1,0,0,1,0,0,0,circle,triangle,,,,,,,,,,,,,,,,,,,,,,,,,,,,,,,,,,,,,,,,,,,,,,,,,,,,,,
298327,2022-12-04_16h50.08.659,vts_reward_expectancy_bt,2022.2.4,Win32,138.6001386,Chrome,1600,1067,,,a,0.8988,10,397,1,2,4,28,2,1,1,0,0,0,0,0,0,1,triangle,star,,,,,,,,,,,,,,,,,,,,,,,,,,,,,,,,,,,,,,,,,,,,,,,,,,,,,,
298327,2022-12-04_16h50.08.659,vts_reward_expectancy_bt,2022.2.4,Win32,138.6001386,Chrome,1600,1067,,,l,0.821,10,407,1,2,5,29,11,1,0,0,0,1,0,0,1,0,star,hexagon,,,,,,,,,,,,,,,,,,,,,,,,,,,,,,,,,,,,,,,,,,,,,,,,,,,,,,
298327,2022-12-04_16h50.08.659,vts_reward_expectancy_bt,2022.2.4,Win32,138.6001386,Chrome,1600,1067,,,l,0.6679,10,417,1,2,6,30,7,1,0,0,1,0,0,1,0,0,hexagon,circle,,,,,,,,,,,,,,,,,,,,,,,,,,,,,,,,,,,,,,,,,,,,,,,,,,,,,,
298327,2022-12-04_16h50.08.659,vts_reward_expectancy_bt,2022.2.4,Win32,138.6001386,Chrome,1600,1067,,,a,0.5537,1,418,1,2,7,31,5,1,0,1,0,0,0,0,0,1,circle,star,,,,,,,,,,,,,,,,,,,,,,,,,,,,,,,,,,,,,,,,,,,,,,,,,,,,,,
298327,2022-12-04_16h50.08.659,vts_reward_expectancy_bt,2022.2.4,Win32,138.6001386,Chrome,1600,1067,,,l,0.4225,1,419,1,2,8,32,1,1,1,0,0,0,0,0,1,0,triangle,hexagon,,,,,,,,,,,,,,,,,,,,,,,,,,,,,,,,,,,,,,,,,,,,,,,,,,,,,,
298327,2022-12-04_16h50.08.659,vts_reward_expectancy_bt,2022.2.4,Win32,138.6001386,Chrome,1600,1067,,,a,0.5295,10,429,1,2,9,33,6,1,0,0,1,0,1,0,0,0,hexagon,triangle,,,,,,,,,,,,,,,,,,,,,,,,,,,,,,,,,,,,,,,,,,,,,,,,,,,,,,
298327,2022-12-04_16h50.08.659,vts_reward_expectancy_bt,2022.2.4,Win32,138.6001386,Chrome,1600,1067,,,l,0.412,1,430,1,2,10,34,4,1,0,1,0,0,0,0,1,0,circle,hexagon,,,,,,,,,,,,,,,,,,,,,,,,,,,,,,,,,,,,,,,,,,,,,,,,,,,,,,
298327,2022-12-04_16h50.08.659,vts_reward_expectancy_bt,2022.2.4,Win32,138.6001386,Chrome,1600,1067,,,a,0.5677,1,431,1,2,11,35,8,1,0,0,1,0,0,0,0,1,hexagon,star,,,,,,,,,,,,,,,,,,,,,,,,,,,,,,,,,,,,,,,,,,,,,,,,,,,,,,
298327,2022-12-04_16h50.08.659,vts_reward_expectancy_bt,2022.2.4,Win32,138.6001386,Chrome,1600,1067,,,l,1.4125,10,441,2,0,0,0,4,1,0,1,0,0,0,0,1,0,circle,hexagon,,,,,,,,,,,,,,,,,,,,,,,,,,,,,,,,,,,,,,,,,,,,,,,,,,,,,,
298327,2022-12-04_16h50.08.659,vts_reward_expectancy_bt,2022.2.4,Win32,138.6001386,Chrome,1600,1067,,,a,0.5101,1,442,2,0,1,1,3,1,0,1,0,0,1,0,0,0,circle,triangle,,,,,,,,,,,,,,,,,,,,,,,,,,,,,,,,,,,,,,,,,,,,,,,,,,,,,,
298327,2022-12-04_16h50.08.659,vts_reward_expectancy_bt,2022.2.4,Win32,138.6001386,Chrome,1600,1067,,,l,0.2739,1,443,2,0,2,2,6,1,0,0,1,0,1,0,0,0,hexagon,triangle,,,,,,,,,,,,,,,,,,,,,,,,,,,,,,,,,,,,,,,,,,,,,,,,,,,,,,
298327,2022-12-04_16h50.08.659,vts_reward_expectancy_bt,2022.2.4,Win32,138.6001386,Chrome,1600,1067,,,a,0.4199,1,444,2,0,3,3,10,1,0,0,0,1,0,1,0,0,star ,circle,,,,,,,,,,,,,,,,,,,,,,,,,,,,,,,,,,,,,,,,,,,,,,,,,,,,,,
298327,2022-12-04_16h50.08.659,vts_reward_expectancy_bt,2022.2.4,Win32,138.6001386,Chrome,1600,1067,,,l,0.262,1,445,2,0,4,4,9,1,0,0,0,1,1,0,0,0,star,triangle,,,,,,,,,,,,,,,,,,,,,,,,,,,,,,,,,,,,,,,,,,,,,,,,,,,,,,
298327,2022-12-04_16h50.08.659,vts_reward_expectancy_bt,2022.2.4,Win32,138.6001386,Chrome,1600,1067,,,l,0.2966,10,455,2,0,5,5,11,1,0,0,0,1,0,0,1,0,star,hexagon,,,,,,,,,,,,,,,,,,,,,,,,,,,,,,,,,,,,,,,,,,,,,,,,,,,,,,
298327,2022-12-04_16h50.08.659,vts_reward_expectancy_bt,2022.2.4,Win32,138.6001386,Chrome,1600,1067,,,l,0.3374,1,456,2,0,6,6,2,1,1,0,0,0,0,0,0,1,triangle,star,,,,,,,,,,,,,,,,,,,,,,,,,,,,,,,,,,,,,,,,,,,,,,,,,,,,,,
298327,2022-12-04_16h50.08.659,vts_reward_expectancy_bt,2022.2.4,Win32,138.6001386,Chrome,1600,1067,,,l,0.3583,1,457,2,0,7,7,7,1,0,0,1,0,0,1,0,0,hexagon,circle,,,,,,,,,,,,,,,,,,,,,,,,,,,,,,,,,,,,,,,,,,,,,,,,,,,,,,
298327,2022-12-04_16h50.08.659,vts_reward_expectancy_bt,2022.2.4,Win32,138.6001386,Chrome,1600,1067,,,l,0.4103,10,467,2,0,8,8,5,1,0,1,0,0,0,0,0,1,circle,star,,,,,,,,,,,,,,,,,,,,,,,,,,,,,,,,,,,,,,,,,,,,,,,,,,,,,,
298327,2022-12-04_16h50.08.659,vts_reward_expectancy_bt,2022.2.4,Win32,138.6001386,Chrome,1600,1067,,,a,0.3756,1,468,2,0,9,9,0,1,1,0,0,0,0,1,0,0,triangle,circle,,,,,,,,,,,,,,,,,,,,,,,,,,,,,,,,,,,,,,,,,,,,,,,,,,,,,,
298327,2022-12-04_16h50.08.659,vts_reward_expectancy_bt,2022.2.4,Win32,138.6001386,Chrome,1600,1067,,,l,0.5466,10,478,2,0,10,10,8,1,0,0,1,0,0,0,0,1,hexagon,star,,,,,,,,,,,,,,,,,,,,,,,,,,,,,,,,,,,,,,,,,,,,,,,,,,,,,,
298327,2022-12-04_16h50.08.659,vts_reward_expectancy_bt,2022.2.4,Win32,138.6001386,Chrome,1600,1067,,,l,0.9726,10,488,2,0,11,11,1,1,1,0,0,0,0,0,1,0,triangle,hexagon,,,,,,,,,,,,,,,,,,,,,,,,,,,,,,,,,,,,,,,,,,,,,,,,,,,,,,
298327,2022-12-04_16h50.08.659,vts_reward_expectancy_bt,2022.2.4,Win32,138.6001386,Chrome,1600,1067,,,a,0.788,1,489,2,1,0,12,3,1,0,1,0,0,1,0,0,0,circle,triangle,,,,,,,,,,,,,,,,,,,,,,,,,,,,,,,,,,,,,,,,,,,,,,,,,,,,,,
298327,2022-12-04_16h50.08.659,vts_reward_expectancy_bt,2022.2.4,Win32,138.6001386,Chrome,1600,1067,,,a,0.1669,1,490,2,1,1,13,4,1,0,1,0,0,0,0,1,0,circle,hexagon,,,,,,,,,,,,,,,,,,,,,,,,,,,,,,,,,,,,,,,,,,,,,,,,,,,,,,
298327,2022-12-04_16h50.08.659,vts_reward_expectancy_bt,2022.2.4,Win32,138.6001386,Chrome,1600,1067,,,l,0.4293,1,491,2,1,2,14,6,1,0,0,1,0,1,0,0,0,hexagon,triangle,,,,,,,,,,,,,,,,,,,,,,,,,,,,,,,,,,,,,,,,,,,,,,,,,,,,,,
298327,2022-12-04_16h50.08.659,vts_reward_expectancy_bt,2022.2.4,Win32,138.6001386,Chrome,1600,1067,,,l,0.4315,10,501,2,1,3,15,5,1,0,1,0,0,0,0,0,1,circle,star,,,,,,,,,,,,,,,,,,,,,,,,,,,,,,,,,,,,,,,,,,,,,,,,,,,,,,
298327,2022-12-04_16h50.08.659,vts_reward_expectancy_bt,2022.2.4,Win32,138.6001386,Chrome,1600,1067,,,a,0.5258,10,511,2,1,4,16,10,1,0,0,0,1,0,1,0,0,star ,circle,,,,,,,,,,,,,,,,,,,,,,,,,,,,,,,,,,,,,,,,,,,,,,,,,,,,,,
298327,2022-12-04_16h50.08.659,vts_reward_expectancy_bt,2022.2.4,Win32,138.6001386,Chrome,1600,1067,,,l,0.4001,10,521,2,1,5,17,2,1,1,0,0,0,0,0,0,1,triangle,star,,,,,,,,,,,,,,,,,,,,,,,,,,,,,,,,,,,,,,,,,,,,,,,,,,,,,,
298327,2022-12-04_16h50.08.659,vts_reward_expectancy_bt,2022.2.4,Win32,138.6001386,Chrome,1600,1067,,,l,0.4368,10,531,2,1,6,18,11,1,0,0,0,1,0,0,1,0,star,hexagon,,,,,,,,,,,,,,,,,,,,,,,,,,,,,,,,,,,,,,,,,,,,,,,,,,,,,,
298327,2022-12-04_16h50.08.659,vts_reward_expectancy_bt,2022.2.4,Win32,138.6001386,Chrome,1600,1067,,,a,0.2692,10,541,2,1,7,19,7,1,0,0,1,0,0,1,0,0,hexagon,circle,,,,,,,,,,,,,,,,,,,,,,,,,,,,,,,,,,,,,,,,,,,,,,,,,,,,,,
298327,2022-12-04_16h50.08.659,vts_reward_expectancy_bt,2022.2.4,Win32,138.6001386,Chrome,1600,1067,,,l,0.4095,10,551,2,1,8,20,0,1,1,0,0,0,0,1,0,0,triangle,circle,,,,,,,,,,,,,,,,,,,,,,,,,,,,,,,,,,,,,,,,,,,,,,,,,,,,,,
298327,2022-12-04_16h50.08.659,vts_reward_expectancy_bt,2022.2.4,Win32,138.6001386,Chrome,1600,1067,,,l,0.8485,1,552,2,1,9,21,9,1,0,0,0,1,1,0,0,0,star,triangle,,,,,,,,,,,,,,,,,,,,,,,,,,,,,,,,,,,,,,,,,,,,,,,,,,,,,,
298327,2022-12-04_16h50.08.659,vts_reward_expectancy_bt,2022.2.4,Win32,138.6001386,Chrome,1600,1067,,,a,0.339,1,553,2,1,10,22,8,1,0,0,1,0,0,0,0,1,hexagon,star,,,,,,,,,,,,,,,,,,,,,,,,,,,,,,,,,,,,,,,,,,,,,,,,,,,,,,
298327,2022-12-04_16h50.08.659,vts_reward_expectancy_bt,2022.2.4,Win32,138.6001386,Chrome,1600,1067,,,l,0.4426,1,554,2,1,11,23,1,1,1,0,0,0,0,0,1,0,triangle,hexagon,,,,,,,,,,,,,,,,,,,,,,,,,,,,,,,,,,,,,,,,,,,,,,,,,,,,,,
298327,2022-12-04_16h50.08.659,vts_reward_expectancy_bt,2022.2.4,Win32,138.6001386,Chrome,1600,1067,,,a,0.4151,10,564,2,2,0,24,7,1,0,0,1,0,0,1,0,0,hexagon,circle,,,,,,,,,,,,,,,,,,,,,,,,,,,,,,,,,,,,,,,,,,,,,,,,,,,,,,
298327,2022-12-04_16h50.08.659,vts_reward_expectancy_bt,2022.2.4,Win32,138.6001386,Chrome,1600,1067,,,l,0.6054,10,574,2,2,1,25,1,1,1,0,0,0,0,0,1,0,triangle,hexagon,,,,,,,,,,,,,,,,,,,,,,,,,,,,,,,,,,,,,,,,,,,,,,,,,,,,,,
298327,2022-12-04_16h50.08.659,vts_reward_expectancy_bt,2022.2.4,Win32,138.6001386,Chrome,1600,1067,,,l,0.4284,10,584,2,2,2,26,6,1,0,0,1,0,1,0,0,0,hexagon,triangle,,,,,,,,,,,,,,,,,,,,,,,,,,,,,,,,,,,,,,,,,,,,,,,,,,,,,,
298327,2022-12-04_16h50.08.659,vts_reward_expectancy_bt,2022.2.4,Win32,138.6001386,Chrome,1600,1067,,,a,0.3817,1,585,2,2,3,27,8,1,0,0,1,0,0,0,0,1,hexagon,star,,,,,,,,,,,,,,,,,,,,,,,,,,,,,,,,,,,,,,,,,,,,,,,,,,,,,,
298327,2022-12-04_16h50.08.659,vts_reward_expectancy_bt,2022.2.4,Win32,138.6001386,Chrome,1600,1067,,,l,0.311,10,595,2,2,4,28,4,1,0,1,0,0,0,0,1,0,circle,hexagon,,,,,,,,,,,,,,,,,,,,,,,,,,,,,,,,,,,,,,,,,,,,,,,,,,,,,,
298327,2022-12-04_16h50.08.659,vts_reward_expectancy_bt,2022.2.4,Win32,138.6001386,Chrome,1600,1067,,,l,0.3299,10,605,2,2,5,29,0,1,1,0,0,0,0,1,0,0,triangle,circle,,,,,,,,,,,,,,,,,,,,,,,,,,,,,,,,,,,,,,,,,,,,,,,,,,,,,,
298327,2022-12-04_16h50.08.659,vts_reward_expectancy_bt,2022.2.4,Win32,138.6001386,Chrome,1600,1067,,,l,0.5116,10,615,2,2,6,30,3,1,0,1,0,0,1,0,0,0,circle,triangle,,,,,,,,,,,,,,,,,,,,,,,,,,,,,,,,,,,,,,,,,,,,,,,,,,,,,,
298327,2022-12-04_16h50.08.659,vts_reward_expectancy_bt,2022.2.4,Win32,138.6001386,Chrome,1600,1067,,,a,0.5624,10,625,2,2,7,31,10,1,0,0,0,1,0,1,0,0,star ,circle,,,,,,,,,,,,,,,,,,,,,,,,,,,,,,,,,,,,,,,,,,,,,,,,,,,,,,
298327,2022-12-04_16h50.08.659,vts_reward_expectancy_bt,2022.2.4,Win32,138.6001386,Chrome,1600,1067,,,l,0.4189,10,635,2,2,8,32,5,1,0,1,0,0,0,0,0,1,circle,star,,,,,,,,,,,,,,,,,,,,,,,,,,,,,,,,,,,,,,,,,,,,,,,,,,,,,,
298327,2022-12-04_16h50.08.659,vts_reward_expectancy_bt,2022.2.4,Win32,138.6001386,Chrome,1600,1067,,,a,0.4156,10,645,2,2,9,33,11,1,0,0,0,1,0,0,1,0,star,hexagon,,,,,,,,,,,,,,,,,,,,,,,,,,,,,,,,,,,,,,,,,,,,,,,,,,,,,,
298327,2022-12-04_16h50.08.659,vts_reward_expectancy_bt,2022.2.4,Win32,138.6001386,Chrome,1600,1067,,,l,0.2998,1,646,2,2,10,34,2,1,1,0,0,0,0,0,0,1,triangle,star,,,,,,,,,,,,,,,,,,,,,,,,,,,,,,,,,,,,,,,,,,,,,,,,,,,,,,
298327,2022-12-04_16h50.08.659,vts_reward_expectancy_bt,2022.2.4,Win32,138.6001386,Chrome,1600,1067,,,a,0.5042,10,656,2,2,11,35,9,1,0,0,0,1,1,0,0,0,star,triangle,,,,,,,,,,,,,,,,,,,,,,,,,,,,,,,,,,,,,,,,,,,,,,,,,,,,,,
298327,2022-12-04_16h50.08.659,vts_reward_expectancy_bt,2022.2.4,Win32,138.6001386,Chrome,1600,1067,,,,,,,,,,,,,,,,,,,,,,,F,139,triangle,1,0,d,2.5631,0,0,0,0,0,1,,,,,,,,,,,,,,,,,,,,,,,,,,,,,,,,,,,,,,,,,
298327,2022-12-04_16h50.08.659,vts_reward_expectancy_bt,2022.2.4,Win32,138.6001386,Chrome,1600,1067,,,,,,,,,,,,,,,,,,,,,,,B,146,star,1,0,d,0.9822,0,1,0,1,0,1,,,,,,,,,,,,,,,,,,,,,,,,,,,,,,,,,,,,,,,,,
298327,2022-12-04_16h50.08.659,vts_reward_expectancy_bt,2022.2.4,Win32,138.6001386,Chrome,1600,1067,,,,,,,,,,,,,,,,,,,,,,,W,125,hexagon,1,0,f,1.6764,0,2,0,2,0,1,,,,,,,,,,,,,,,,,,,,,,,,,,,,,,,,,,,,,,,,,
298327,2022-12-04_16h50.08.659,vts_reward_expectancy_bt,2022.2.4,Win32,138.6001386,Chrome,1600,1067,,,,,,,,,,,,,,,,,,,,,,,S,174,circle,1,0,f,1.2068,0,3,0,3,0,1,,,,,,,,,,,,,,,,,,,,,,,,,,,,,,,,,,,,,,,,,
298327,2022-12-04_16h50.08.659,vts_reward_expectancy_bt,2022.2.4,Win32,138.6001386,Chrome,1600,1067,,,,,,,,,,,,,,,,,,,,,,,H,132,triangle,1,0,d,1.1813,0,4,0,4,0,1,,,,,,,,,,,,,,,,,,,,,,,,,,,,,,,,,,,,,,,,,
298327,2022-12-04_16h50.08.659,vts_reward_expectancy_bt,2022.2.4,Win32,138.6001386,Chrome,1600,1067,,,,,,,,,,,,,,,,,,,,,,,D,167,star,1,0,d,1.0161,0,5,0,5,0,1,,,,,,,,,,,,,,,,,,,,,,,,,,,,,,,,,,,,,,,,,
298327,2022-12-04_16h50.08.659,vts_reward_expectancy_bt,2022.2.4,Win32,138.6001386,Chrome,1600,1067,,,,,,,,,,,,,,,,,,,,,,,Y,181,hexagon,1,0,f,0.8922,0,6,0,6,0,1,,,,,,,,,,,,,,,,,,,,,,,,,,,,,,,,,,,,,,,,,
298327,2022-12-04_16h50.08.659,vts_reward_expectancy_bt,2022.2.4,Win32,138.6001386,Chrome,1600,1067,,,,,,,,,,,,,,,,,,,,,,,U,160,circle,1,0,f,0.6619,0,7,0,7,0,1,,,,,,,,,,,,,,,,,,,,,,,,,,,,,,,,,,,,,,,,,
298327,2022-12-04_16h50.08.659,vts_reward_expectancy_bt,2022.2.4,Win32,138.6001386,Chrome,1600,1067,,,,,,,,,,,,,,,,,,,,,,,F,139,hexagon,1,0,d,0.7383,0,8,0,8,0,1,,,,,,,,,,,,,,,,,,,,,,,,,,,,,,,,,,,,,,,,,
298327,2022-12-04_16h50.08.659,vts_reward_expectancy_bt,2022.2.4,Win32,138.6001386,Chrome,1600,1067,,,,,,,,,,,,,,,,,,,,,,,B,146,star,1,0,d,0.8088,0,9,0,9,0,1,,,,,,,,,,,,,,,,,,,,,,,,,,,,,,,,,,,,,,,,,
298327,2022-12-04_16h50.08.659,vts_reward_expectancy_bt,2022.2.4,Win32,138.6001386,Chrome,1600,1067,,,,,,,,,,,,,,,,,,,,,,,H,146,star,2,0,,,1,,,,,,d,0.9703,0,0,0,0,1,,,,,,,,,,,,,,,,,,,,,,,,,,,,,,,,,,
298327,2022-12-04_16h50.08.659,vts_reward_expectancy_bt,2022.2.4,Win32,138.6001386,Chrome,1600,1067,,,,,,,,,,,,,,,,,,,,,,,W,181,hexagon,1,0,,,1,,,,,,k,1.0071,1,0,1,0,1,,,,,,,,,,,,,,,,,,,,,,,,,,,,,,,,,,
298327,2022-12-04_16h50.08.659,vts_reward_expectancy_bt,2022.2.4,Win32,138.6001386,Chrome,1600,1067,,,,,,,,,,,,,,,,,,,,,,,B,167,triangle,1,0,,,1,,,,,,k,1.3852,2,0,2,0,1,,,,,,,,,,,,,,,,,,,,,,,,,,,,,,,,,,
298327,2022-12-04_16h50.08.659,vts_reward_expectancy_bt,2022.2.4,Win32,138.6001386,Chrome,1600,1067,,,,,,,,,,,,,,,,,,,,,,,U,160,circle,1,0,,,1,,,,,,k,1.2734,3,0,3,0,1,,,,,,,,,,,,,,,,,,,,,,,,,,,,,,,,,,
298327,2022-12-04_16h50.08.659,vts_reward_expectancy_bt,2022.2.4,Win32,138.6001386,Chrome,1600,1067,,,,,,,,,,,,,,,,,,,,,,,F,132,star,1,0,,,1,,,,,,j,0.8952,4,0,4,0,1,,,,,,,,,,,,,,,,,,,,,,,,,,,,,,,,,,
298327,2022-12-04_16h50.08.659,vts_reward_expectancy_bt,2022.2.4,Win32,138.6001386,Chrome,1600,1067,,,,,,,,,,,,,,,,,,,,,,,Y,125,hexagon,1,0,,,1,,,,,,j,0.8229,5,0,5,0,1,,,,,,,,,,,,,,,,,,,,,,,,,,,,,,,,,,
298327,2022-12-04_16h50.08.659,vts_reward_expectancy_bt,2022.2.4,Win32,138.6001386,Chrome,1600,1067,,,,,,,,,,,,,,,,,,,,,,,D,139,triangle,1,0,,,1,,,,,,j,1.3373,6,0,6,0,1,,,,,,,,,,,,,,,,,,,,,,,,,,,,,,,,,,
298327,2022-12-04_16h50.08.659,vts_reward_expectancy_bt,2022.2.4,Win32,138.6001386,Chrome,1600,1067,,,,,,,,,,,,,,,,,,,,,,,S,174,circle,1,0,,,1,,,,,,k,1.1348,7,0,7,0,1,,,,,,,,,,,,,,,,,,,,,,,,,,,,,,,,,,
298327,2022-12-04_16h50.08.659,vts_reward_expectancy_bt,2022.2.4,Win32,138.6001386,Chrome,1600,1067,,,,,,,,,,,,,,,,,,,,,,,H,146,triangle,1,0,,,1,,,,,,j,1.3608,8,0,8,0,1,,,,,,,,,,,,,,,,,,,,,,,,,,,,,,,,,,
298327,2022-12-04_16h50.08.659,vts_reward_expectancy_bt,2022.2.4,Win32,138.6001386,Chrome,1600,1067,,,,,,,,,,,,,,,,,,,,,,,W,181,hexagon,1,0,,,1,,,,,,k,0.9242,9,0,9,0,1,,,,,,,,,,,,,,,,,,,,,,,,,,,,,,,,,,
298327,2022-12-04_16h50.08.659,vts_reward_expectancy_bt,2022.2.4,Win32,138.6001386,Chrome,1600,1067,,,,,0,656,,,,,,,,,,,,,,,,,D,167,star,1,0,,,2,,,,,,,,,,,,,-1,letter,NA,d,1.3455,vtsPrac,0,0,0,0,1,,,,,,,,,,,,,,,,,,,,,,,
298327,2022-12-04_16h50.08.659,vts_reward_expectancy_bt,2022.2.4,Win32,138.6001386,Chrome,1600,1067,,,,,0,656,,,,,,,,,,,,,,,,,F,146,hexagon,1,0,,,2,,,,,,,,,,,,,repeat,letter,lettRpt,d,1.2685,vtsPrac,1,0,1,0,1,,,,,,,,,,,,,,,,,,,,,,,
298327,2022-12-04_16h50.08.659,vts_reward_expectancy_bt,2022.2.4,Win32,138.6001386,Chrome,1600,1067,,,,,0,656,,,,,,,,,,,,,,,,,H,125,star,1,0,,,2,,,,,,,,,,,,,switch,number,numSwt,j,1.5424,vtsPrac,2,0,2,0,1,,,,,,,,,,,,,,,,,,,,,,,
298327,2022-12-04_16h50.08.659,vts_reward_expectancy_bt,2022.2.4,Win32,138.6001386,Chrome,1600,1067,,,,,0,656,,,,,,,,,,,,,,,,,S,132,hexagon,1,0,,,2,,,,,,,,,,,,,switch,letter,lettSwt,f,1.7191,vtsPrac,3,0,3,0,1,,,,,,,,,,,,,,,,,,,,,,,
298327,2022-12-04_16h50.08.659,vts_reward_expectancy_bt,2022.2.4,Win32,138.6001386,Chrome,1600,1067,,,,,0,656,,,,,,,,,,,,,,,,,D,167,triangle,1,0,,,2,,,,,,,,,,,,,switch,number,numSwt,k,1.8779,vtsPrac,4,0,4,0,1,,,,,,,,,,,,,,,,,,,,,,,
298327,2022-12-04_16h50.08.659,vts_reward_expectancy_bt,2022.2.4,Win32,138.6001386,Chrome,1600,1067,,,,,0,656,,,,,,,,,,,,,,,,,F,146,circle,1,0,,,2,,,,,,,,,,,,,repeat,number,numRpt,j,2.6328,vtsPrac,5,0,5,0,1,,,,,,,,,,,,,,,,,,,,,,,
298327,2022-12-04_16h50.08.659,vts_reward_expectancy_bt,2022.2.4,Win32,138.6001386,Chrome,1600,1067,,,,,0,656,,,,,,,,,,,,,,,,,H,125,hexagon,1,0,,,2,,,,,,,,,,,,,switch,letter,lettSwt,d,1.7118,vtsPrac,6,0,6,0,1,,,,,,,,,,,,,,,,,,,,,,,
298327,2022-12-04_16h50.08.659,vts_reward_expectancy_bt,2022.2.4,Win32,138.6001386,Chrome,1600,1067,,,,,0,656,,,,,,,,,,,,,,,,,S,132,star,-1,0,,,2,,,,,,,,,,,,,switch,no_choice,NA,,,vtsPrac,7,0,7,0,1,,,,,,,,,,,,,,,,,,,,,,,
298327,2022-12-04_16h50.08.659,vts_reward_expectancy_bt,2022.2.4,Win32,138.6001386,Chrome,1600,1067,,,,,0,656,,,,,,,,,,,,,,,,,S,174,circle,1,0,,,2,,,,,,,,,,,,,switch,letter,lettSwt,f,1.0496,vtsPrac,8,0,8,0,1,,,,,,,,,,,,,,,,,,,,,,,
298327,2022-12-04_16h50.08.659,vts_reward_expectancy_bt,2022.2.4,Win32,138.6001386,Chrome,1600,1067,,,,,0,656,,,,,,,,,,,,,,,,,U,125,star,1,0,,,2,,,,,,,,,,,,,switch,number,numSwt,j,1.23,vtsPrac,9,0,9,0,1,,,,,,,,,,,,,,,,,,,,,,,
298327,2022-12-04_16h50.08.659,vts_reward_expectancy_bt,2022.2.4,Win32,138.6001386,Chrome,1600,1067,,,,,0,656,,,,,,,,,,,,,,,,,D,167,triangle,1,0,,,2,,,,,,,,,,,,,repeat,number,numRpt,k,1.1201,vtsPrac,10,0,10,0,1,,,,,,,,,,,,,,,,,,,,,,,
298327,2022-12-04_16h50.08.659,vts_reward_expectancy_bt,2022.2.4,Win32,138.6001386,Chrome,1600,1067,,,,,0,656,,,,,,,,,,,,,,,,,W,181,circle,1,0,,,2,,,,,,,,,,,,,switch,letter,lettSwt,f,0.7299,vtsPrac,11,0,11,0,1,,,,,,,,,,,,,,,,,,,,,,,
298327,2022-12-04_16h50.08.659,vts_reward_expectancy_bt,2022.2.4,Win32,138.6001386,Chrome,1600,1067,,,,,0,656,,,,,,,,,,,,,,,,,W,167,circle,1,0,,,2,,,,,,,,,,,,,switch,number,numSwt,k,1.264,vtsPrac,12,0,12,0,1,,,,,,,,,,,,,,,,,,,,,,,
298327,2022-12-04_16h50.08.659,vts_reward_expectancy_bt,2022.2.4,Win32,138.6001386,Chrome,1600,1067,,,,,0,656,,,,,,,,,,,,,,,,,S,132,hexagon,1,0,,,2,,,,,,,,,,,,,repeat,number,numRpt,j,1.1585,vtsPrac,13,0,13,0,1,,,,,,,,,,,,,,,,,,,,,,,
298327,2022-12-04_16h50.08.659,vts_reward_expectancy_bt,2022.2.4,Win32,138.6001386,Chrome,1600,1067,,,,,0,656,,,,,,,,,,,,,,,,,F,160,hexagon,1,0,,,2,,,,,,,,,,,,,switch,letter,lettSwt,d,1.5329,vtsPrac,14,0,14,0,1,,,,,,,,,,,,,,,,,,,,,,,
298327,2022-12-04_16h50.08.659,vts_reward_expectancy_bt,2022.2.4,Win32,138.6001386,Chrome,1600,1067,,,,,0,656,,,,,,,,,,,,,,,,,D,139,triangle,1,0,,,2,,,,,,,,,,,,,repeat,letter,lettRpt,d,1.1146,vtsPrac,15,0,15,0,1,,,,,,,,,,,,,,,,,,,,,,,
298327,2022-12-04_16h50.08.659,vts_reward_expectancy_bt,2022.2.4,Win32,138.6001386,Chrome,1600,1067,,,,,0,656,,,,,,,,,,,,,,,,,S,132,hexagon,1,0,,,2,,,,,,,,,,,,,switch,number,numSwt,j,1.6628,vtsPrac,16,0,16,0,1,,,,,,,,,,,,,,,,,,,,,,,
298327,2022-12-04_16h50.08.659,vts_reward_expectancy_bt,2022.2.4,Win32,138.6001386,Chrome,1600,1067,,,,,0,656,,,,,,,,,,,,,,,,,U,167,triangle,1,0,,,2,,,,,,,,,,,,,switch,letter,lettSwt,f,1.0251,vtsPrac,17,0,17,0,1,,,,,,,,,,,,,,,,,,,,,,,
298327,2022-12-04_16h50.08.659,vts_reward_expectancy_bt,2022.2.4,Win32,138.6001386,Chrome,1600,1067,,,,,0,656,,,,,,,,,,,,,,,,,F,160,star,1,0,,,2,,,,,,,,,,,,,switch,number,numSwt,k,1.1531,vtsPrac,18,0,18,0,1,,,,,,,,,,,,,,,,,,,,,,,
298327,2022-12-04_16h50.08.659,vts_reward_expectancy_bt,2022.2.4,Win32,138.6001386,Chrome,1600,1067,,,,,0,656,,,,,,,,,,,,,,,,,D,139,hexagon,1,0,,,2,,,,,,,,,,,,,switch,letter,lettSwt,d,1.1514,vtsPrac,19,0,19,0,1,,,,,,,,,,,,,,,,,,,,,,,
298327,2022-12-04_16h50.08.659,vts_reward_expectancy_bt,2022.2.4,Win32,138.6001386,Chrome,1600,1067,,,,,0,656,,,,,,,,,,,,,,,,,F,174,hexagon,1,0,,,2,,,,,,,,,,,,,repeat,letter,lettRpt,d,2.0404,vtsPrac,20,0,20,0,1,,,,,,,,,,,,,,,,,,,,,,,
298327,2022-12-04_16h50.08.659,vts_reward_expectancy_bt,2022.2.4,Win32,138.6001386,Chrome,1600,1067,,,,,0,656,,,,,,,,,,,,,,,,,S,146,triangle,1,0,,,2,,,,,,,,,,,,,switch,number,numSwt,j,1.1192,vtsPrac,21,0,21,0,1,,,,,,,,,,,,,,,,,,,,,,,
298327,2022-12-04_16h50.08.659,vts_reward_expectancy_bt,2022.2.4,Win32,138.6001386,Chrome,1600,1067,,,,,0,656,,,,,,,,,,,,,,,,,D,181,hexagon,1,0,,,2,,,,,,,,,,,,,switch,letter,lettSwt,d,1.5967,vtsPrac,22,0,22,0,1,,,,,,,,,,,,,,,,,,,,,,,
298327,2022-12-04_16h50.08.659,vts_reward_expectancy_bt,2022.2.4,Win32,138.6001386,Chrome,1600,1067,,,,,0,656,,,,,,,,,,,,,,,,,H,160,triangle,1,0,,,2,,,,,,,,,,,,,switch,number,numSwt,k,1.5258,vtsPrac,23,0,23,0,1,,,,,,,,,,,,,,,,,,,,,,,
298327,2022-12-04_16h50.08.659,vts_reward_expectancy_bt,2022.2.4,Win32,138.6001386,Chrome,1600,1067,,,,,0,656,,,,,,,,,,,,,,,,,Y,167,circle,1,0,,,2,,,,,,,,,,,,,repeat,number,numRpt,k,1.4237,vtsPrac,24,0,24,0,1,,,,,,,,,,,,,,,,,,,,,,,
298327,2022-12-04_16h50.08.659,vts_reward_expectancy_bt,2022.2.4,Win32,138.6001386,Chrome,1600,1067,,,,,0,656,,,,,,,,,,,,,,,,,U,132,triangle,1,0,,,2,,,,,,,,,,,,,switch,letter,lettSwt,f,2.2318,vtsPrac,25,0,25,0,1,,,,,,,,,,,,,,,,,,,,,,,
298327,2022-12-04_16h50.08.659,vts_reward_expectancy_bt,2022.2.4,Win32,138.6001386,Chrome,1600,1067,,,,,0,656,,,,,,,,,,,,,,,,,F,146,triangle,1,0,,,2,,,,,,,,,,,,,repeat,letter,lettRpt,d,1.1424,vtsPrac,26,0,26,0,1,,,,,,,,,,,,,,,,,,,,,,,
298327,2022-12-04_16h50.08.659,vts_reward_expectancy_bt,2022.2.4,Win32,138.6001386,Chrome,1600,1067,,,,,0,656,,,,,,,,,,,,,,,,,W,160,hexagon,1,0,,,2,,,,,,,,,,,,,switch,number,numSwt,k,2.0451,vtsPrac,27,0,27,0,1,,,,,,,,,,,,,,,,,,,,,,,
298327,2022-12-04_16h50.08.659,vts_reward_expectancy_bt,2022.2.4,Win32,138.6001386,Chrome,1600,1067,,,,,0,656,,,,,,,,,,,,,,,,,D,139,star,1,0,,,2,,,,,,,,,,,,,repeat,number,numRpt,j,1.2427,vtsPrac,28,0,28,0,1,,,,,,,,,,,,,,,,,,,,,,,
298327,2022-12-04_16h50.08.659,vts_reward_expectancy_bt,2022.2.4,Win32,138.6001386,Chrome,1600,1067,,,,,0,656,,,,,,,,,,,,,,,,,U,125,hexagon,1,0,,,2,,,,,,,,,,,,,switch,letter,lettSwt,f,1.1004,vtsPrac,29,0,29,0,1,,,,,,,,,,,,,,,,,,,,,,,
298327,2022-12-04_16h50.08.659,vts_reward_expectancy_bt,2022.2.4,Win32,138.6001386,Chrome,1600,1067,,,,,0,656,,,,,,,,,,,,,,,,,Y,174,star,1,0,,,2,,,,,,,,,,,,,switch,number,numSwt,k,1.1266,vtsPrac,30,0,30,0,1,,,,,,,,,,,,,,,,,,,,,,,
298327,2022-12-04_16h50.08.659,vts_reward_expectancy_bt,2022.2.4,Win32,138.6001386,Chrome,1600,1067,,,,,0,656,,,,,,,,,,,,,,,,,S,132,circle,1,0,,,2,,,,,,,,,,,,,switch,letter,lettSwt,f,0.895,vtsPrac,31,0,31,0,1,,,,,,,,,,,,,,,,,,,,,,,
298327,2022-12-04_16h50.08.659,vts_reward_expectancy_bt,2022.2.4,Win32,138.6001386,Chrome,1600,1067,,,,,,,,,,,,,,,,,,,,,,,,,,,,,,,,,,,,,,,,,,,,,,,,,,,,,,,,,,,,,,,,,,,,,,,,,,,,
298327,2022-12-04_16h50.08.659,vts_reward_expectancy_bt,2022.2.4,Win32,138.6001386,Chrome,1600,1067,,,,,,,,,,,,,,,,,,,,,,,,,,,,,,,,,,,,,,,,,,,,,,,,,,,,,,,,,,,,,,,,,,,,,,,,,,,,
298327,2022-12-04_16h50.08.659,vts_reward_expectancy_bt,2022.2.4,Win32,138.6001386,Chrome,1600,1067,,,,,0,656,,,,,,,,,,,,,,,,,H,181,circle,1,0,,,,,,,,,,,,,,,,repeat,letter,lettRpt,d,1.8854,noRew,,,,,,0,0,0,0,0,1,,,,,,,,,,,,,,,,,
298327,2022-12-04_16h50.08.659,vts_reward_expectancy_bt,2022.2.4,Win32,138.6001386,Chrome,1600,1067,,,,,0,656,,,,,,,,,,,,,,,,,S,125,star,1,0,,,,,,,,,,,,,,,,switch,number,numSwt,j,1.2054,noRew,,,,,,0,1,0,1,0,1,,,,,,,,,,,,,,,,,
298327,2022-12-04_16h50.08.659,vts_reward_expectancy_bt,2022.2.4,Win32,138.6001386,Chrome,1600,1067,,,,,0,656,,,,,,,,,,,,,,,,,F,174,circle,1,0,,,,,,,,,,,,,,,,repeat,number,numRpt,k,1.656,noRew,,,,,,0,2,0,2,0,1,,,,,,,,,,,,,,,,,
298327,2022-12-04_16h50.08.659,vts_reward_expectancy_bt,2022.2.4,Win32,138.6001386,Chrome,1600,1067,,,,,0,656,,,,,,,,,,,,,,,,,B,132,star,1,0,,,,,,,,,,,,,,,,switch,letter,lettSwt,d,0.9618,noRew,,,,,,0,3,0,3,0,1,,,,,,,,,,,,,,,,,
298327,2022-12-04_16h50.08.659,vts_reward_expectancy_bt,2022.2.4,Win32,138.6001386,Chrome,1600,1067,,,,,0,656,,,,,,,,,,,,,,,,,H,181,hexagon,1,0,,,,,,,,,,,,,,,,repeat,letter,lettRpt,d,1.3486,noRew,,,,,,0,4,0,4,0,1,,,,,,,,,,,,,,,,,
298327,2022-12-04_16h50.08.659,vts_reward_expectancy_bt,2022.2.4,Win32,138.6001386,Chrome,1600,1067,,,,,0,656,,,,,,,,,,,,,,,,,S,125,circle,1,0,,,,,,,,,,,,,,,,switch,number,numSwt,j,1.0009,noRew,,,,,,0,5,0,5,0,1,,,,,,,,,,,,,,,,,
298327,2022-12-04_16h50.08.659,vts_reward_expectancy_bt,2022.2.4,Win32,138.6001386,Chrome,1600,1067,,,,,0,656,,,,,,,,,,,,,,,,,F,174,circle,1,0,,,,,,,,,,,,,,,,repeat,number,numRpt,k,0.9966,noRew,,,,,,0,6,0,6,0,1,,,,,,,,,,,,,,,,,
298327,2022-12-04_16h50.08.659,vts_reward_expectancy_bt,2022.2.4,Win32,138.6001386,Chrome,1600,1067,,,,,0,656,,,,,,,,,,,,,,,,,B,132,triangle,1,0,,,,,,,,,,,,,,,,repeat,number,numRpt,j,1.2995,noRew,,,,,,0,7,0,7,0,1,,,,,,,,,,,,,,,,,
298327,2022-12-04_16h50.08.659,vts_reward_expectancy_bt,2022.2.4,Win32,138.6001386,Chrome,1600,1067,,,,,0,656,,,,,,,,,,,,,,,,,U,125,hexagon,1,0,,,,,,,,,,,,,,,,switch,letter,lettSwt,f,1.3994,noRew,,,,,,0,8,0,8,0,1,,,,,,,,,,,,,,,,,
298327,2022-12-04_16h50.08.659,vts_reward_expectancy_bt,2022.2.4,Win32,138.6001386,Chrome,1600,1067,,,,,0,656,,,,,,,,,,,,,,,,,F,139,star,1,0,,,,,,,,,,,,,,,,repeat,letter,lettRpt,d,1.3842,noRew,,,,,,0,9,0,9,0,1,,,,,,,,,,,,,,,,,
298327,2022-12-04_16h50.08.659,vts_reward_expectancy_bt,2022.2.4,Win32,138.6001386,Chrome,1600,1067,,,,,0,656,,,,,,,,,,,,,,,,,D,132,circle,1,0,,,,,,,,,,,,,,,,repeat,letter,lettRpt,d,0.9963,noRew,,,,,,0,10,0,10,0,1,,,,,,,,,,,,,,,,,
298327,2022-12-04_16h50.08.659,vts_reward_expectancy_bt,2022.2.4,Win32,138.6001386,Chrome,1600,1067,,,,,0,656,,,,,,,,,,,,,,,,,H,146,hexagon,1,0,,,,,,,,,,,,,,,,switch,number,numSwt,j,1.9087,noRew,,,,,,0,11,0,11,0,1,,,,,,,,,,,,,,,,,
298327,2022-12-04_16h50.08.659,vts_reward_expectancy_bt,2022.2.4,Win32,138.6001386,Chrome,1600,1067,,,,,0,656,,,,,,,,,,,,,,,,,W,160,triangle,1,0,,,,,,,,,,,,,,,,switch,letter,lettSwt,f,2.0924,noRew,,,,,,0,12,0,12,0,1,,,,,,,,,,,,,,,,,
298327,2022-12-04_16h50.08.659,vts_reward_expectancy_bt,2022.2.4,Win32,138.6001386,Chrome,1600,1067,,,,,0,656,,,,,,,,,,,,,,,,,H,146,hexagon,1,0,,,,,,,,,,,,,,,,switch,number,numSwt,j,1.3832,noRew,,,,,,0,13,0,13,0,1,,,,,,,,,,,,,,,,,
298327,2022-12-04_16h50.08.659,vts_reward_expectancy_bt,2022.2.4,Win32,138.6001386,Chrome,1600,1067,,,,,0,656,,,,,,,,,,,,,,,,,S,181,star,1,0,,,,,,,,,,,,,,,,repeat,number,numRpt,k,1.013,noRew,,,,,,0,14,0,14,0,1,,,,,,,,,,,,,,,,,
298327,2022-12-04_16h50.08.659,vts_reward_expectancy_bt,2022.2.4,Win32,138.6001386,Chrome,1600,1067,,,,,0,656,,,,,,,,,,,,,,,,,U,174,triangle,1,0,,,,,,,,,,,,,,,,repeat,number,numRpt,k,1.0615,noRew,,,,,,0,15,0,15,0,1,,,,,,,,,,,,,,,,,
298327,2022-12-04_16h50.08.659,vts_reward_expectancy_bt,2022.2.4,Win32,138.6001386,Chrome,1600,1067,,,,,0,656,,,,,,,,,,,,,,,,,S,174,circle,1,0,,,,,,,,,,,,,,,,switch,letter,lettSwt,f,1.0685,noRew,,,,,,0,16,0,16,0,1,,,,,,,,,,,,,,,,,
298327,2022-12-04_16h50.08.659,vts_reward_expectancy_bt,2022.2.4,Win32,138.6001386,Chrome,1600,1067,,,,,0,656,,,,,,,,,,,,,,,,,U,139,triangle,1,0,,,,,,,,,,,,,,,,switch,number,numSwt,j,1.4948,noRew,,,,,,0,17,0,17,0,1,,,,,,,,,,,,,,,,,
298327,2022-12-04_16h50.08.659,vts_reward_expectancy_bt,2022.2.4,Win32,138.6001386,Chrome,1600,1067,,,,,0,656,,,,,,,,,,,,,,,,,W,132,star,1,0,,,,,,,,,,,,,,,,repeat,number,numRpt,j,0.881,noRew,,,,,,0,18,0,18,0,1,,,,,,,,,,,,,,,,,
298327,2022-12-04_16h50.08.659,vts_reward_expectancy_bt,2022.2.4,Win32,138.6001386,Chrome,1600,1067,,,,,0,656,,,,,,,,,,,,,,,,,F,160,triangle,1,0,,,,,,,,,,,,,,,,switch,letter,lettSwt,d,1.1991,noRew,,,,,,0,19,0,19,0,1,,,,,,,,,,,,,,,,,
298327,2022-12-04_16h50.08.659,vts_reward_expectancy_bt,2022.2.4,Win32,138.6001386,Chrome,1600,1067,,,,,0,656,,,,,,,,,,,,,,,,,D,160,circle,1,0,,,,,,,,,,,,,,,,switch,number,numSwt,k,0.892,noRew,,,,,,0,20,0,20,0,1,,,,,,,,,,,,,,,,,
298327,2022-12-04_16h50.08.659,vts_reward_expectancy_bt,2022.2.4,Win32,138.6001386,Chrome,1600,1067,,,,,0,656,,,,,,,,,,,,,,,,,F,181,hexagon,0,0,,,,,,,,,,,,,,,,switch,letter,NA,f,2.5121,noRew,,,,,,0,21,0,21,0,1,,,,,,,,,,,,,,,,,
298327,2022-12-04_16h50.08.659,vts_reward_expectancy_bt,2022.2.4,Win32,138.6001386,Chrome,1600,1067,,,,,0,656,,,,,,,,,,,,,,,,,U,174,triangle,1,1,,,,,,,,,,,,,,,,switch,number,numSwt,k,1.234,noRew,,,,,,0,22,0,22,0,1,,,,,,,,,,,,,,,,,
298327,2022-12-04_16h50.08.659,vts_reward_expectancy_bt,2022.2.4,Win32,138.6001386,Chrome,1600,1067,,,,,0,656,,,,,,,,,,,,,,,,,S,146,hexagon,1,0,,,,,,,,,,,,,,,,switch,letter,lettSwt,f,0.8298,noRew,,,,,,0,23,0,23,0,1,,,,,,,,,,,,,,,,,
298327,2022-12-04_16h50.08.659,vts_reward_expectancy_bt,2022.2.4,Win32,138.6001386,Chrome,1600,1067,,,,,0,656,,,,,,,,,,,,,,,,,H,174,hexagon,1,0,,,,,,,,,,,,,,,,switch,number,numSwt,k,1.3282,noRew,,,,,,0,24,0,24,0,1,,,,,,,,,,,,,,,,,
298327,2022-12-04_16h50.08.659,vts_reward_expectancy_bt,2022.2.4,Win32,138.6001386,Chrome,1600,1067,,,,,0,656,,,,,,,,,,,,,,,,,B,139,circle,1,0,,,,,,,,,,,,,,,,switch,letter,lettSwt,d,1.1095,noRew,,,,,,0,25,0,25,0,1,,,,,,,,,,,,,,,,,
298327,2022-12-04_16h50.08.659,vts_reward_expectancy_bt,2022.2.4,Win32,138.6001386,Chrome,1600,1067,,,,,0,656,,,,,,,,,,,,,,,,,U,181,star,1,0,,,,,,,,,,,,,,,,repeat,letter,lettRpt,f,1.0358,noRew,,,,,,0,26,0,26,0,1,,,,,,,,,,,,,,,,,
298327,2022-12-04_16h50.08.659,vts_reward_expectancy_bt,2022.2.4,Win32,138.6001386,Chrome,1600,1067,,,,,0,656,,,,,,,,,,,,,,,,,F,125,hexagon,1,0,,,,,,,,,,,,,,,,switch,number,numSwt,j,0.8659,noRew,,,,,,0,27,0,27,0,1,,,,,,,,,,,,,,,,,
298327,2022-12-04_16h50.08.659,vts_reward_expectancy_bt,2022.2.4,Win32,138.6001386,Chrome,1600,1067,,,,,0,656,,,,,,,,,,,,,,,,,S,181,triangle,1,0,,,,,,,,,,,,,,,,repeat,number,numRpt,k,1.5373,noRew,,,,,,0,28,0,28,0,1,,,,,,,,,,,,,,,,,
298327,2022-12-04_16h50.08.659,vts_reward_expectancy_bt,2022.2.4,Win32,138.6001386,Chrome,1600,1067,,,,,0,656,,,,,,,,,,,,,,,,,D,125,hexagon,1,0,,,,,,,,,,,,,,,,repeat,number,numRpt,j,1.1809,noRew,,,,,,0,29,0,29,0,1,,,,,,,,,,,,,,,,,
298327,2022-12-04_16h50.08.659,vts_reward_expectancy_bt,2022.2.4,Win32,138.6001386,Chrome,1600,1067,,,,,0,656,,,,,,,,,,,,,,,,,B,146,hexagon,1,0,,,,,,,,,,,,,,,,switch,letter,lettSwt,d,0.8387,noRew,,,,,,0,30,0,30,0,1,,,,,,,,,,,,,,,,,
298327,2022-12-04_16h50.08.659,vts_reward_expectancy_bt,2022.2.4,Win32,138.6001386,Chrome,1600,1067,,,,,0,656,,,,,,,,,,,,,,,,,W,174,star,1,0,,,,,,,,,,,,,,,,repeat,letter,lettRpt,f,1.177,noRew,,,,,,0,31,0,31,0,1,,,,,,,,,,,,,,,,,
298327,2022-12-04_16h50.08.659,vts_reward_expectancy_bt,2022.2.4,Win32,138.6001386,Chrome,1600,1067,,,,,0,656,,,,,,,,,,,,,,,,,S,125,star,1,0,,,,,,,,,,,,,,,,switch,number,numSwt,j,1.5004,noRew,,,,,,0,32,0,32,0,1,,,,,,,,,,,,,,,,,
298327,2022-12-04_16h50.08.659,vts_reward_expectancy_bt,2022.2.4,Win32,138.6001386,Chrome,1600,1067,,,,,0,656,,,,,,,,,,,,,,,,,F,139,triangle,1,0,,,,,,,,,,,,,,,,switch,letter,lettSwt,d,1.1768,noRew,,,,,,0,33,0,33,0,1,,,,,,,,,,,,,,,,,
298327,2022-12-04_16h50.08.659,vts_reward_expectancy_bt,2022.2.4,Win32,138.6001386,Chrome,1600,1067,,,,,0,656,,,,,,,,,,,,,,,,,W,174,triangle,1,0,,,,,,,,,,,,,,,,repeat,letter,lettRpt,f,0.7912,noRew,,,,,,0,34,0,34,0,1,,,,,,,,,,,,,,,,,
298327,2022-12-04_16h50.08.659,vts_reward_expectancy_bt,2022.2.4,Win32,138.6001386,Chrome,1600,1067,,,,,0,656,,,,,,,,,,,,,,,,,D,167,circle,1,0,,,,,,,,,,,,,,,,repeat,letter,lettRpt,d,1.0769,noRew,,,,,,0,35,0,35,0,1,,,,,,,,,,,,,,,,,
298327,2022-12-04_16h50.08.659,vts_reward_expectancy_bt,2022.2.4,Win32,138.6001386,Chrome,1600,1067,,,,,0,656,,,,,,,,,,,,,,,,,U,139,triangle,1,0,,,,,,,,,,,,,,,,switch,number,numSwt,j,1.4023,noRew,,,,,,0,36,0,36,0,1,,,,,,,,,,,,,,,,,
298327,2022-12-04_16h50.08.659,vts_reward_expectancy_bt,2022.2.4,Win32,138.6001386,Chrome,1600,1067,,,,,0,656,,,,,,,,,,,,,,,,,B,167,star,1,0,,,,,,,,,,,,,,,,switch,letter,lettSwt,d,0.8294,noRew,,,,,,0,37,0,37,0,1,,,,,,,,,,,,,,,,,
298327,2022-12-04_16h50.08.659,vts_reward_expectancy_bt,2022.2.4,Win32,138.6001386,Chrome,1600,1067,,,,,0,656,,,,,,,,,,,,,,,,,S,132,hexagon,1,0,,,,,,,,,,,,,,,,switch,number,numSwt,j,0.799,noRew,,,,,,0,38,0,38,0,1,,,,,,,,,,,,,,,,,
298327,2022-12-04_16h50.08.659,vts_reward_expectancy_bt,2022.2.4,Win32,138.6001386,Chrome,1600,1067,,,,,0,656,,,,,,,,,,,,,,,,,Y,160,triangle,1,0,,,,,,,,,,,,,,,,repeat,number,numRpt,k,0.849,noRew,,,,,,0,39,0,39,0,1,,,,,,,,,,,,,,,,,
298327,2022-12-04_16h50.08.659,vts_reward_expectancy_bt,2022.2.4,Win32,138.6001386,Chrome,1600,1067,,,,,0,656,,,,,,,,,,,,,,,,,H,174,circle,1,0,,,,,,,,,,,,,,,,repeat,number,numRpt,k,1.2539,noRew,,,,,,0,40,0,40,0,1,,,,,,,,,,,,,,,,,
298327,2022-12-04_16h50.08.659,vts_reward_expectancy_bt,2022.2.4,Win32,138.6001386,Chrome,1600,1067,,,,,0,656,,,,,,,,,,,,,,,,,Y,139,triangle,1,0,,,,,,,,,,,,,,,,switch,letter,lettSwt,f,1.5291,noRew,,,,,,0,41,0,41,0,1,,,,,,,,,,,,,,,,,
298327,2022-12-04_16h50.08.659,vts_reward_expectancy_bt,2022.2.4,Win32,138.6001386,Chrome,1600,1067,,,,,0,656,,,,,,,,,,,,,,,,,D,146,star,1,0,,,,,,,,,,,,,,,,repeat,letter,lettRpt,d,0.914,noRew,,,,,,0,42,0,42,0,1,,,,,,,,,,,,,,,,,
298327,2022-12-04_16h50.08.659,vts_reward_expectancy_bt,2022.2.4,Win32,138.6001386,Chrome,1600,1067,,,,,0,656,,,,,,,,,,,,,,,,,F,167,triangle,1,0,,,,,,,,,,,,,,,,switch,number,numSwt,k,1.0902,noRew,,,,,,0,43,0,43,0,1,,,,,,,,,,,,,,,,,
298327,2022-12-04_16h50.08.659,vts_reward_expectancy_bt,2022.2.4,Win32,138.6001386,Chrome,1600,1067,,,,,0,656,,,,,,,,,,,,,,,,,Y,174,hexagon,1,0,,,,,,,,,,,,,,,,repeat,number,numRpt,k,1.0247,noRew,,,,,,0,44,0,44,0,1,,,,,,,,,,,,,,,,,
298327,2022-12-04_16h50.08.659,vts_reward_expectancy_bt,2022.2.4,Win32,138.6001386,Chrome,1600,1067,,,,,0,656,,,,,,,,,,,,,,,,,H,125,triangle,1,0,,,,,,,,,,,,,,,,repeat,number,numRpt,j,1.076,noRew,,,,,,0,45,0,45,0,1,,,,,,,,,,,,,,,,,
298327,2022-12-04_16h50.08.659,vts_reward_expectancy_bt,2022.2.4,Win32,138.6001386,Chrome,1600,1067,,,,,0,656,,,,,,,,,,,,,,,,,F,181,circle,1,0,,,,,,,,,,,,,,,,repeat,number,numRpt,k,1.2171,noRew,,,,,,0,46,0,46,0,1,,,,,,,,,,,,,,,,,
298327,2022-12-04_16h50.08.659,vts_reward_expectancy_bt,2022.2.4,Win32,138.6001386,Chrome,1600,1067,,,,,0,656,,,,,,,,,,,,,,,,,W,167,star,1,0,,,,,,,,,,,,,,,,repeat,number,numRpt,k,1.9829,noRew,,,,,,0,47,0,47,0,1,,,,,,,,,,,,,,,,,
298327,2022-12-04_16h50.08.659,vts_reward_expectancy_bt,2022.2.4,Win32,138.6001386,Chrome,1600,1067,,,,,0,656,,,,,,,,,,,,,,,,,H,139,hexagon,1,0,,,,,,,,,,,,,,,,switch,letter,lettSwt,d,1.5622,noRew,,,,,,0,48,0,48,0,1,,,,,,,,,,,,,,,,,
298327,2022-12-04_16h50.08.659,vts_reward_expectancy_bt,2022.2.4,Win32,138.6001386,Chrome,1600,1067,,,,,0,656,,,,,,,,,,,,,,,,,U,174,star,1,0,,,,,,,,,,,,,,,,switch,number,numSwt,k,0.9033,noRew,,,,,,0,49,0,49,0,1,,,,,,,,,,,,,,,,,
298327,2022-12-04_16h50.08.659,vts_reward_expectancy_bt,2022.2.4,Win32,138.6001386,Chrome,1600,1067,,,,,0,656,,,,,,,,,,,,,,,,,D,160,star,1,0,,,,,,,,,,,,,,,,repeat,number,numRpt,k,1.5376,noRew,,,,,,0,50,0,50,0,1,,,,,,,,,,,,,,,,,
298327,2022-12-04_16h50.08.659,vts_reward_expectancy_bt,2022.2.4,Win32,138.6001386,Chrome,1600,1067,,,,,0,656,,,,,,,,,,,,,,,,,W,132,triangle,1,0,,,,,,,,,,,,,,,,switch,letter,lettSwt,f,0.9955,noRew,,,,,,0,51,0,51,0,1,,,,,,,,,,,,,,,,,
298327,2022-12-04_16h50.08.659,vts_reward_expectancy_bt,2022.2.4,Win32,138.6001386,Chrome,1600,1067,,,,,0,656,,,,,,,,,,,,,,,,,U,167,hexagon,1,0,,,,,,,,,,,,,,,,repeat,letter,lettRpt,f,1.0575,noRew,,,,,,0,52,0,52,0,1,,,,,,,,,,,,,,,,,
298327,2022-12-04_16h50.08.659,vts_reward_expectancy_bt,2022.2.4,Win32,138.6001386,Chrome,1600,1067,,,,,0,656,,,,,,,,,,,,,,,,,Y,160,circle,1,0,,,,,,,,,,,,,,,,switch,number,numSwt,k,1.1234,noRew,,,,,,0,53,0,53,0,1,,,,,,,,,,,,,,,,,
298327,2022-12-04_16h50.08.659,vts_reward_expectancy_bt,2022.2.4,Win32,138.6001386,Chrome,1600,1067,,,,,0,656,,,,,,,,,,,,,,,,,S,132,circle,1,0,,,,,,,,,,,,,,,,repeat,number,numRpt,j,0.9438,noRew,,,,,,0,54,0,54,0,1,,,,,,,,,,,,,,,,,
298327,2022-12-04_16h50.08.659,vts_reward_expectancy_bt,2022.2.4,Win32,138.6001386,Chrome,1600,1067,,,,,0,656,,,,,,,,,,,,,,,,,D,174,hexagon,1,0,,,,,,,,,,,,,,,,repeat,number,numRpt,k,0.9946,noRew,,,,,,0,55,0,55,0,1,,,,,,,,,,,,,,,,,
298327,2022-12-04_16h50.08.659,vts_reward_expectancy_bt,2022.2.4,Win32,138.6001386,Chrome,1600,1067,,,,,0,656,,,,,,,,,,,,,,,,,F,160,star,1,0,,,,,,,,,,,,,,,,switch,letter,lettSwt,d,1.5813,noRew,,,,,,0,56,0,56,0,1,,,,,,,,,,,,,,,,,
298327,2022-12-04_16h50.08.659,vts_reward_expectancy_bt,2022.2.4,Win32,138.6001386,Chrome,1600,1067,,,,,0,656,,,,,,,,,,,,,,,,,Y,146,hexagon,1,0,,,,,,,,,,,,,,,,repeat,letter,lettRpt,f,0.83,noRew,,,,,,0,57,0,57,0,1,,,,,,,,,,,,,,,,,
298327,2022-12-04_16h50.08.659,vts_reward_expectancy_bt,2022.2.4,Win32,138.6001386,Chrome,1600,1067,,,,,0,656,,,,,,,,,,,,,,,,,H,181,circle,1,0,,,,,,,,,,,,,,,,switch,number,numSwt,k,1.3497,noRew,,,,,,0,58,0,58,0,1,,,,,,,,,,,,,,,,,
298327,2022-12-04_16h50.08.659,vts_reward_expectancy_bt,2022.2.4,Win32,138.6001386,Chrome,1600,1067,,,,,0,656,,,,,,,,,,,,,,,,,U,139,star,1,0,,,,,,,,,,,,,,,,repeat,number,numRpt,j,1.4153,noRew,,,,,,0,59,0,59,0,1,,,,,,,,,,,,,,,,,
298327,2022-12-04_16h50.08.659,vts_reward_expectancy_bt,2022.2.4,Win32,138.6001386,Chrome,1600,1067,,,,,0,656,,,,,,,,,,,,,,,,,U,125,hexagon,1,0,,,,,,,,,,,,,,,,switch,letter,lettSwt,f,0.8309,noRew,,,,,,0,60,0,60,0,1,,,,,,,,,,,,,,,,,
298327,2022-12-04_16h50.08.659,vts_reward_expectancy_bt,2022.2.4,Win32,138.6001386,Chrome,1600,1067,,,,,0,656,,,,,,,,,,,,,,,,,W,132,star,1,0,,,,,,,,,,,,,,,,switch,number,numSwt,j,1.2072,noRew,,,,,,0,61,0,61,0,1,,,,,,,,,,,,,,,,,
298327,2022-12-04_16h50.08.659,vts_reward_expectancy_bt,2022.2.4,Win32,138.6001386,Chrome,1600,1067,,,,,0,656,,,,,,,,,,,,,,,,,H,160,star,1,0,,,,,,,,,,,,,,,,switch,letter,lettSwt,d,1.7843,noRew,,,,,,0,62,0,62,0,1,,,,,,,,,,,,,,,,,
298327,2022-12-04_16h50.08.659,vts_reward_expectancy_bt,2022.2.4,Win32,138.6001386,Chrome,1600,1067,,,,,0,656,,,,,,,,,,,,,,,,,Y,174,circle,1,0,,,,,,,,,,,,,,,,switch,number,numSwt,k,1.0266,noRew,,,,,,0,63,0,63,0,1,,,,,,,,,,,,,,,,,
298327,2022-12-04_16h50.08.659,vts_reward_expectancy_bt,2022.2.4,Win32,138.6001386,Chrome,1600,1067,,,,,,,,,,,,,,,,,,,,,,,,,,,,,,,,,,,,,,,,,,,,,,,,,,,,,,,,,,,,,,,,,,,,,,,,,,,,
298327,2022-12-04_16h50.08.659,vts_reward_expectancy_bt,2022.2.4,Win32,138.6001386,Chrome,1600,1067,,,,,1,657,,,,,,,,,,,,,,,,,W,160,circle,1,0,,,,,,,,,,,,,,,,switch,letter,lettSwt,f,2.1836,Lo,,,,,,0,,,,,,space,14.0223,high,0,0,0,0,1,,,,,,,,,
298327,2022-12-04_16h50.08.659,vts_reward_expectancy_bt,2022.2.4,Win32,138.6001386,Chrome,1600,1067,,,,,10,667,,,,,,,,,,,,,,,,,Y,139,star,1,0,,,,,,,,,,,,,,,,switch,number,numSwt,j,0.998,Hi,,,,,,0,,,,,,,,high,1,0,1,0,1,,,,,,,,,
298327,2022-12-04_16h50.08.659,vts_reward_expectancy_bt,2022.2.4,Win32,138.6001386,Chrome,1600,1067,,,,,0,667,,,,,,,,,,,,,,,,,S,167,hexagon,1,0,,,,,,,,,,,,,,,,switch,letter,lettSwt,f,1.6196,Hi,,,,,,0,,,,,,,,high,2,0,2,0,1,,,,,,,,,
298327,2022-12-04_16h50.08.659,vts_reward_expectancy_bt,2022.2.4,Win32,138.6001386,Chrome,1600,1067,,,,,1,668,,,,,,,,,,,,,,,,,D,174,triangle,1,0,,,,,,,,,,,,,,,,switch,number,numSwt,k,1.0076,Lo,,,,,,0,,,,,,,,high,3,0,3,0,1,,,,,,,,,
298327,2022-12-04_16h50.08.659,vts_reward_expectancy_bt,2022.2.4,Win32,138.6001386,Chrome,1600,1067,,,,,1,669,,,,,,,,,,,,,,,,,H,125,circle,1,0,,,,,,,,,,,,,,,,repeat,number,numRpt,j,0.8596,Lo,,,,,,0,,,,,,,,high,4,0,4,0,1,,,,,,,,,
298327,2022-12-04_16h50.08.659,vts_reward_expectancy_bt,2022.2.4,Win32,138.6001386,Chrome,1600,1067,,,,,10,679,,,,,,,,,,,,,,,,,B,132,star,1,0,,,,,,,,,,,,,,,,switch,letter,lettSwt,d,0.9822,Hi,,,,,,0,,,,,,,,high,5,0,5,0,1,,,,,,,,,
298327,2022-12-04_16h50.08.659,vts_reward_expectancy_bt,2022.2.4,Win32,138.6001386,Chrome,1600,1067,,,,,0,679,,,,,,,,,,,,,,,,,U,146,hexagon,1,0,,,,,,,,,,,,,,,,repeat,letter,lettRpt,f,1.0562,Hi,,,,,,0,,,,,,,,high,6,0,6,0,1,,,,,,,,,
298327,2022-12-04_16h50.08.659,vts_reward_expectancy_bt,2022.2.4,Win32,138.6001386,Chrome,1600,1067,,,,,1,680,,,,,,,,,,,,,,,,,F,181,triangle,1,0,,,,,,,,,,,,,,,,switch,number,numSwt,k,0.8095,Lo,,,,,,0,,,,,,,,high,7,0,7,0,1,,,,,,,,,
298327,2022-12-04_16h50.08.659,vts_reward_expectancy_bt,2022.2.4,Win32,138.6001386,Chrome,1600,1067,,,,,0,680,,,,,,,,,,,,,,,,,W,160,hexagon,1,0,,,,,,,,,,,,,,,,repeat,number,numRpt,k,2.0104,Hi,,,,,,0,,,,,,,,high,8,0,8,0,1,,,,,,,,,
298327,2022-12-04_16h50.08.659,vts_reward_expectancy_bt,2022.2.4,Win32,138.6001386,Chrome,1600,1067,,,,,1,681,,,,,,,,,,,,,,,,,Y,139,triangle,1,0,,,,,,,,,,,,,,,,repeat,number,numRpt,j,1.293,Lo,,,,,,0,,,,,,,,high,9,0,9,0,1,,,,,,,,,
298327,2022-12-04_16h50.08.659,vts_reward_expectancy_bt,2022.2.4,Win32,138.6001386,Chrome,1600,1067,,,,,1,682,,,,,,,,,,,,,,,,,S,167,circle,1,0,,,,,,,,,,,,,,,,switch,letter,lettSwt,f,1.2984,Lo,,,,,,0,,,,,,,,high,10,0,10,0,1,,,,,,,,,
298327,2022-12-04_16h50.08.659,vts_reward_expectancy_bt,2022.2.4,Win32,138.6001386,Chrome,1600,1067,,,,,10,692,,,,,,,,,,,,,,,,,D,174,star,1,0,,,,,,,,,,,,,,,,switch,number,numSwt,k,0.8912,Hi,,,,,,0,,,,,,,,high,11,0,11,0,1,,,,,,,,,
298327,2022-12-04_16h50.08.659,vts_reward_expectancy_bt,2022.2.4,Win32,138.6001386,Chrome,1600,1067,,,,,1,693,,,,,,,,,,,,,,,,,H,125,circle,1,0,,,,,,,,,,,,,,,,repeat,number,numRpt,j,0.7795,Lo,,,,,,0,,,,,,,,high,12,0,12,0,1,,,,,,,,,
298327,2022-12-04_16h50.08.659,vts_reward_expectancy_bt,2022.2.4,Win32,138.6001386,Chrome,1600,1067,,,,,1,694,,,,,,,,,,,,,,,,,B,132,triangle,1,0,,,,,,,,,,,,,,,,repeat,number,numRpt,j,1.2581,Lo,,,,,,0,,,,,,,,high,13,0,13,0,1,,,,,,,,,
298327,2022-12-04_16h50.08.659,vts_reward_expectancy_bt,2022.2.4,Win32,138.6001386,Chrome,1600,1067,,,,,0,694,,,,,,,,,,,,,,,,,U,146,hexagon,1,0,,,,,,,,,,,,,,,,switch,letter,lettSwt,f,1.1922,Hi,,,,,,0,,,,,,,,high,14,0,14,0,1,,,,,,,,,
298327,2022-12-04_16h50.08.659,vts_reward_expectancy_bt,2022.2.4,Win32,138.6001386,Chrome,1600,1067,,,,,10,704,,,,,,,,,,,,,,,,,F,181,star,1,0,,,,,,,,,,,,,,,,repeat,letter,lettRpt,d,0.8345,Hi,,,,,,0,,,,,,,,high,15,0,15,0,1,,,,,,,,,
298327,2022-12-04_16h50.08.659,vts_reward_expectancy_bt,2022.2.4,Win32,138.6001386,Chrome,1600,1067,,,,,10,714,,,,,,,,,,,,,,,,,Y,160,star,1,0,,,,,,,,,,,,,,,,repeat,letter,lettRpt,f,0.8183,Hi,,,,,,0,,,,,,,,high,16,0,16,0,1,,,,,,,,,
298327,2022-12-04_16h50.08.659,vts_reward_expectancy_bt,2022.2.4,Win32,138.6001386,Chrome,1600,1067,,,,,10,724,,,,,,,,,,,,,,,,,F,146,circle,1,0,,,,,,,,,,,,,,,,repeat,letter,lettRpt,d,1.3823,Lo,,,,,,0,,,,,,,,high,17,0,17,0,1,,,,,,,,,
298327,2022-12-04_16h50.08.659,vts_reward_expectancy_bt,2022.2.4,Win32,138.6001386,Chrome,1600,1067,,,,,10,734,,,,,,,,,,,,,,,,,W,132,hexagon,1,0,,,,,,,,,,,,,,,,switch,number,numSwt,j,0.8182,Hi,,,,,,0,,,,,,,,high,18,0,18,0,1,,,,,,,,,
298327,2022-12-04_16h50.08.659,vts_reward_expectancy_bt,2022.2.4,Win32,138.6001386,Chrome,1600,1067,,,,,1,735,,,,,,,,,,,,,,,,,U,167,triangle,1,0,,,,,,,,,,,,,,,,repeat,number,numRpt,k,0.9393,Lo,,,,,,0,,,,,,,,high,19,0,19,0,1,,,,,,,,,
298327,2022-12-04_16h50.08.659,vts_reward_expectancy_bt,2022.2.4,Win32,138.6001386,Chrome,1600,1067,,,,,1,736,,,,,,,,,,,,,,,,,H,125,circle,1,0,,,,,,,,,,,,,,,,repeat,number,numRpt,j,0.7681,Lo,,,,,,0,,,,,,,,high,20,0,20,0,1,,,,,,,,,
298327,2022-12-04_16h50.08.659,vts_reward_expectancy_bt,2022.2.4,Win32,138.6001386,Chrome,1600,1067,,,,,0,736,,,,,,,,,,,,,,,,,D,181,star,1,0,,,,,,,,,,,,,,,,switch,letter,lettSwt,d,1.0933,Hi,,,,,,0,,,,,,,,high,21,0,21,0,1,,,,,,,,,
298327,2022-12-04_16h50.08.659,vts_reward_expectancy_bt,2022.2.4,Win32,138.6001386,Chrome,1600,1067,,,,,1,737,,,,,,,,,,,,,,,,,B,139,triangle,1,0,,,,,,,,,,,,,,,,switch,number,numSwt,j,0.9937,Lo,,,,,,0,,,,,,,,high,22,0,22,0,1,,,,,,,,,
298327,2022-12-04_16h50.08.659,vts_reward_expectancy_bt,2022.2.4,Win32,138.6001386,Chrome,1600,1067,,,,,1,738,,,,,,,,,,,,,,,,,S,174,hexagon,1,0,,,,,,,,,,,,,,,,switch,letter,lettSwt,f,0.7588,Hi,,,,,,0,,,,,,,,high,23,0,23,0,1,,,,,,,,,
298327,2022-12-04_16h50.08.659,vts_reward_expectancy_bt,2022.2.4,Win32,138.6001386,Chrome,1600,1067,,,,,10,748,,,,,,,,,,,,,,,,,B,146,hexagon,1,0,,,,,,,,,,,,,,,,repeat,letter,lettRpt,d,0.6124,Hi,,,,,,0,,,,,,,,high,24,0,24,0,1,,,,,,,,,
298327,2022-12-04_16h50.08.659,vts_reward_expectancy_bt,2022.2.4,Win32,138.6001386,Chrome,1600,1067,,,,,10,758,,,,,,,,,,,,,,,,,S,167,star,1,0,,,,,,,,,,,,,,,,switch,number,numSwt,k,1.0293,Hi,,,,,,0,,,,,,,,high,25,0,25,0,1,,,,,,,,,
298327,2022-12-04_16h50.08.659,vts_reward_expectancy_bt,2022.2.4,Win32,138.6001386,Chrome,1600,1067,,,,,1,759,,,,,,,,,,,,,,,,,U,174,circle,1,0,,,,,,,,,,,,,,,,switch,letter,lettSwt,f,0.601,Lo,,,,,,0,,,,,,,,high,26,0,26,0,1,,,,,,,,,
298327,2022-12-04_16h50.08.659,vts_reward_expectancy_bt,2022.2.4,Win32,138.6001386,Chrome,1600,1067,,,,,10,769,,,,,,,,,,,,,,,,,Y,160,triangle,1,0,,,,,,,,,,,,,,,,switch,number,numSwt,k,1.028,Lo,,,,,,0,,,,,,,,high,27,0,27,0,1,,,,,,,,,
298327,2022-12-04_16h50.08.659,vts_reward_expectancy_bt,2022.2.4,Win32,138.6001386,Chrome,1600,1067,,,,,0,769,,,,,,,,,,,,,,,,,W,139,circle,0,0,,,,,,,,,,,,,,,,switch,letter,NA,d,1.1592,Lo,,,,,,0,,,,,,,,high,28,0,28,0,1,,,,,,,,,
298327,2022-12-04_16h50.08.659,vts_reward_expectancy_bt,2022.2.4,Win32,138.6001386,Chrome,1600,1067,,,,,1,770,,,,,,,,,,,,,,,,,D,125,triangle,1,1,,,,,,,,,,,,,,,,switch,number,numSwt,j,1.018,Lo,,,,,,0,,,,,,,,high,29,0,29,0,1,,,,,,,,,
298327,2022-12-04_16h50.08.659,vts_reward_expectancy_bt,2022.2.4,Win32,138.6001386,Chrome,1600,1067,,,,,1,771,,,,,,,,,,,,,,,,,F,181,star,1,0,,,,,,,,,,,,,,,,repeat,number,numRpt,k,0.618,Hi,,,,,,0,,,,,,,,high,30,0,30,0,1,,,,,,,,,
298327,2022-12-04_16h50.08.659,vts_reward_expectancy_bt,2022.2.4,Win32,138.6001386,Chrome,1600,1067,,,,,0,771,,,,,,,,,,,,,,,,,H,132,hexagon,1,0,,,,,,,,,,,,,,,,repeat,number,numRpt,j,1.1547,Hi,,,,,,0,,,,,,,,high,31,0,31,0,1,,,,,,,,,
298327,2022-12-04_16h50.08.659,vts_reward_expectancy_bt,2022.2.4,Win32,138.6001386,Chrome,1600,1067,,,,,1,772,,,,,,,,,,,,,,,,,U,132,star,1,0,,,,,,,,,,,,,,,,switch,letter,lettSwt,f,0.6909,Hi,,,,,,1,,,,,,space,10.7815,high,0,0,0,0,1,,,,,,,,,
298327,2022-12-04_16h50.08.659,vts_reward_expectancy_bt,2022.2.4,Win32,138.6001386,Chrome,1600,1067,,,,,1,773,,,,,,,,,,,,,,,,,Y,181,circle,1,0,,,,,,,,,,,,,,,,switch,number,numSwt,k,1.237,Lo,,,,,,1,,,,,,,,high,1,0,1,0,1,,,,,,,,,
298327,2022-12-04_16h50.08.659,vts_reward_expectancy_bt,2022.2.4,Win32,138.6001386,Chrome,1600,1067,,,,,10,783,,,,,,,,,,,,,,,,,W,174,hexagon,1,0,,,,,,,,,,,,,,,,switch,letter,lettSwt,f,0.8082,Hi,,,,,,1,,,,,,,,high,2,0,2,0,1,,,,,,,,,
298327,2022-12-04_16h50.08.659,vts_reward_expectancy_bt,2022.2.4,Win32,138.6001386,Chrome,1600,1067,,,,,1,784,,,,,,,,,,,,,,,,,B,125,triangle,1,0,,,,,,,,,,,,,,,,switch,number,numSwt,j,0.8129,Lo,,,,,,1,,,,,,,,high,3,0,3,0,1,,,,,,,,,
298327,2022-12-04_16h50.08.659,vts_reward_expectancy_bt,2022.2.4,Win32,138.6001386,Chrome,1600,1067,,,,,10,794,,,,,,,,,,,,,,,,,S,146,star,1,0,,,,,,,,,,,,,,,,switch,letter,lettSwt,f,0.6862,Hi,,,,,,1,,,,,,,,high,4,0,4,0,1,,,,,,,,,
298327,2022-12-04_16h50.08.659,vts_reward_expectancy_bt,2022.2.4,Win32,138.6001386,Chrome,1600,1067,,,,,1,795,,,,,,,,,,,,,,,,,D,160,circle,1,0,,,,,,,,,,,,,,,,switch,number,numSwt,k,0.9354,Lo,,,,,,1,,,,,,,,high,5,0,5,0,1,,,,,,,,,
298327,2022-12-04_16h50.08.659,vts_reward_expectancy_bt,2022.2.4,Win32,138.6001386,Chrome,1600,1067,,,,,0,795,,,,,,,,,,,,,,,,,F,167,hexagon,1,0,,,,,,,,,,,,,,,,repeat,number,numRpt,k,0.9539,Hi,,,,,,1,,,,,,,,high,6,0,6,0,1,,,,,,,,,
298327,2022-12-04_16h50.08.659,vts_reward_expectancy_bt,2022.2.4,Win32,138.6001386,Chrome,1600,1067,,,,,0,795,,,,,,,,,,,,,,,,,H,139,triangle,0,0,,,,,,,,,,,,,,,,switch,letter,NA,f,1.4412,Hi,,,,,,1,,,,,,,,high,7,0,7,0,1,,,,,,,,,
298327,2022-12-04_16h50.08.659,vts_reward_expectancy_bt,2022.2.4,Win32,138.6001386,Chrome,1600,1067,,,,,1,796,,,,,,,,,,,,,,,,,U,132,circle,1,1,,,,,,,,,,,,,,,,switch,number,numSwt,j,0.7954,Lo,,,,,,1,,,,,,,,high,8,0,8,0,1,,,,,,,,,
298327,2022-12-04_16h50.08.659,vts_reward_expectancy_bt,2022.2.4,Win32,138.6001386,Chrome,1600,1067,,,,,0,796,,,,,,,,,,,,,,,,,Y,181,triangle,0,0,,,,,,,,,,,,,,,,switch,letter,NA,d,1.0016,Lo,,,,,,1,,,,,,,,high,9,0,9,0,1,,,,,,,,,
298327,2022-12-04_16h50.08.659,vts_reward_expectancy_bt,2022.2.4,Win32,138.6001386,Chrome,1600,1067,,,,,0,796,,,,,,,,,,,,,,,,,W,174,star,1,1,,,,,,,,,,,,,,,,switch,number,numSwt,k,1.1999,Hi,,,,,,1,,,,,,,,high,10,0,10,0,1,,,,,,,,,
298327,2022-12-04_16h50.08.659,vts_reward_expectancy_bt,2022.2.4,Win32,138.6001386,Chrome,1600,1067,,,,,10,806,,,,,,,,,,,,,,,,,B,125,hexagon,1,0,,,,,,,,,,,,,,,,repeat,number,numRpt,j,0.6305,Hi,,,,,,1,,,,,,,,high,11,0,11,0,1,,,,,,,,,
298327,2022-12-04_16h50.08.659,vts_reward_expectancy_bt,2022.2.4,Win32,138.6001386,Chrome,1600,1067,,,,,1,807,,,,,,,,,,,,,,,,,S,146,circle,1,0,,,,,,,,,,,,,,,,switch,letter,lettSwt,f,0.6075,Lo,,,,,,1,,,,,,,,high,12,0,12,0,1,,,,,,,,,
298327,2022-12-04_16h50.08.659,vts_reward_expectancy_bt,2022.2.4,Win32,138.6001386,Chrome,1600,1067,,,,,0,807,,,,,,,,,,,,,,,,,D,160,star,1,0,,,,,,,,,,,,,,,,repeat,letter,lettRpt,d,0.8505,Hi,,,,,,1,,,,,,,,high,13,0,13,0,1,,,,,,,,,
298327,2022-12-04_16h50.08.659,vts_reward_expectancy_bt,2022.2.4,Win32,138.6001386,Chrome,1600,1067,,,,,1,808,,,,,,,,,,,,,,,,,F,167,hexagon,1,0,,,,,,,,,,,,,,,,switch,number,numSwt,k,0.696,Hi,,,,,,1,,,,,,,,high,14,0,14,0,1,,,,,,,,,
298327,2022-12-04_16h50.08.659,vts_reward_expectancy_bt,2022.2.4,Win32,138.6001386,Chrome,1600,1067,,,,,10,818,,,,,,,,,,,,,,,,,H,139,triangle,1,0,,,,,,,,,,,,,,,,switch,letter,lettSwt,d,1.1076,Lo,,,,,,1,,,,,,,,high,15,0,15,0,1,,,,,,,,,
298327,2022-12-04_16h50.08.659,vts_reward_expectancy_bt,2022.2.4,Win32,138.6001386,Chrome,1600,1067,,,,,1,819,,,,,,,,,,,,,,,,,S,139,triangle,1,0,,,,,,,,,,,,,,,,switch,number,numSwt,j,1.0769,Lo,,,,,,1,,,,,,,,high,16,0,16,0,1,,,,,,,,,
298327,2022-12-04_16h50.08.659,vts_reward_expectancy_bt,2022.2.4,Win32,138.6001386,Chrome,1600,1067,,,,,10,829,,,,,,,,,,,,,,,,,U,160,star,1,0,,,,,,,,,,,,,,,,switch,letter,lettSwt,f,0.8593,Hi,,,,,,1,,,,,,,,high,17,0,17,0,1,,,,,,,,,
298327,2022-12-04_16h50.08.659,vts_reward_expectancy_bt,2022.2.4,Win32,138.6001386,Chrome,1600,1067,,,,,1,830,,,,,,,,,,,,,,,,,W,181,circle,1,0,,,,,,,,,,,,,,,,switch,number,numSwt,k,0.5891,Lo,,,,,,1,,,,,,,,high,18,0,18,0,1,,,,,,,,,
298327,2022-12-04_16h50.08.659,vts_reward_expectancy_bt,2022.2.4,Win32,138.6001386,Chrome,1600,1067,,,,,10,840,,,,,,,,,,,,,,,,,B,132,hexagon,1,0,,,,,,,,,,,,,,,,switch,letter,lettSwt,d,0.6837,Hi,,,,,,1,,,,,,,,high,19,0,19,0,1,,,,,,,,,
298327,2022-12-04_16h50.08.659,vts_reward_expectancy_bt,2022.2.4,Win32,138.6001386,Chrome,1600,1067,,,,,10,850,,,,,,,,,,,,,,,,,Y,167,hexagon,1,0,,,,,,,,,,,,,,,,switch,number,numSwt,k,0.7261,Hi,,,,,,1,,,,,,,,high,20,0,20,0,1,,,,,,,,,
298327,2022-12-04_16h50.08.659,vts_reward_expectancy_bt,2022.2.4,Win32,138.6001386,Chrome,1600,1067,,,,,1,851,,,,,,,,,,,,,,,,,F,174,circle,1,0,,,,,,,,,,,,,,,,switch,letter,lettSwt,d,1.1748,Lo,,,,,,1,,,,,,,,high,21,0,21,0,1,,,,,,,,,
298327,2022-12-04_16h50.08.659,vts_reward_expectancy_bt,2022.2.4,Win32,138.6001386,Chrome,1600,1067,,,,,10,861,,,,,,,,,,,,,,,,,D,146,star,1,0,,,,,,,,,,,,,,,,switch,number,numSwt,j,0.9487,Hi,,,,,,1,,,,,,,,high,22,0,22,0,1,,,,,,,,,
298327,2022-12-04_16h50.08.659,vts_reward_expectancy_bt,2022.2.4,Win32,138.6001386,Chrome,1600,1067,,,,,1,862,,,,,,,,,,,,,,,,,H,125,triangle,1,0,,,,,,,,,,,,,,,,repeat,number,numRpt,j,0.9259,Lo,,,,,,1,,,,,,,,high,23,0,23,0,1,,,,,,,,,
298327,2022-12-04_16h50.08.659,vts_reward_expectancy_bt,2022.2.4,Win32,138.6001386,Chrome,1600,1067,,,,,1,863,,,,,,,,,,,,,,,,,S,146,circle,1,0,,,,,,,,,,,,,,,,repeat,number,numRpt,j,1.3363,Lo,,,,,,1,,,,,,,,high,24,0,24,0,1,,,,,,,,,
298327,2022-12-04_16h50.08.659,vts_reward_expectancy_bt,2022.2.4,Win32,138.6001386,Chrome,1600,1067,,,,,1,864,,,,,,,,,,,,,,,,,H,160,triangle,1,0,,,,,,,,,,,,,,,,repeat,number,numRpt,k,0.7605,Lo,,,,,,1,,,,,,,,high,25,0,25,0,1,,,,,,,,,
298327,2022-12-04_16h50.08.659,vts_reward_expectancy_bt,2022.2.4,Win32,138.6001386,Chrome,1600,1067,,,,,0,864,,,,,,,,,,,,,,,,,B,167,star,1,0,,,,,,,,,,,,,,,,repeat,number,numRpt,k,0.9644,Hi,,,,,,1,,,,,,,,high,26,0,26,0,1,,,,,,,,,
298327,2022-12-04_16h50.08.659,vts_reward_expectancy_bt,2022.2.4,Win32,138.6001386,Chrome,1600,1067,,,,,0,864,,,,,,,,,,,,,,,,,U,132,hexagon,1,0,,,,,,,,,,,,,,,,switch,letter,lettSwt,f,1.1264,Hi,,,,,,1,,,,,,,,high,27,0,27,0,1,,,,,,,,,
298327,2022-12-04_16h50.08.659,vts_reward_expectancy_bt,2022.2.4,Win32,138.6001386,Chrome,1600,1067,,,,,1,865,,,,,,,,,,,,,,,,,F,125,circle,1,0,,,,,,,,,,,,,,,,repeat,letter,lettRpt,d,0.6093,Lo,,,,,,1,,,,,,,,high,28,0,28,0,1,,,,,,,,,
298327,2022-12-04_16h50.08.659,vts_reward_expectancy_bt,2022.2.4,Win32,138.6001386,Chrome,1600,1067,,,,,1,866,,,,,,,,,,,,,,,,,D,181,star,1,0,,,,,,,,,,,,,,,,switch,number,numSwt,k,0.5641,Hi,,,,,,1,,,,,,,,high,29,0,29,0,1,,,,,,,,,
298327,2022-12-04_16h50.08.659,vts_reward_expectancy_bt,2022.2.4,Win32,138.6001386,Chrome,1600,1067,,,,,1,867,,,,,,,,,,,,,,,,,Y,174,triangle,1,0,,,,,,,,,,,,,,,,repeat,number,numRpt,k,0.6268,Lo,,,,,,1,,,,,,,,high,30,0,30,0,1,,,,,,,,,
298327,2022-12-04_16h50.08.659,vts_reward_expectancy_bt,2022.2.4,Win32,138.6001386,Chrome,1600,1067,,,,,0,867,,,,,,,,,,,,,,,,,W,139,hexagon,0,0,,,,,,,,,,,,,,,,switch,letter,NA,d,0.9784,Lo,,,,,,1,,,,,,,,high,31,0,31,0,1,,,,,,,,,
298327,2022-12-04_16h50.08.659,vts_reward_expectancy_bt,2022.2.4,Win32,138.6001386,Chrome,1600,1067,,,,,0,867,,,,,,,,,,,,,,,,,H,139,triangle,0,1,,,,,,,,,,,,,,,,switch,number,NA,k,0.9462,Lo,,,,,,2,,,,,,space,3.4641,high,0,0,0,0,1,,,,,,,,,
298327,2022-12-04_16h50.08.659,vts_reward_expectancy_bt,2022.2.4,Win32,138.6001386,Chrome,1600,1067,,,,,1,868,,,,,,,,,,,,,,,,,D,160,star,1,1,,,,,,,,,,,,,,,,repeat,number,numRpt,k,0.6009,Hi,,,,,,2,,,,,,,,high,1,0,1,0,1,,,,,,,,,
298327,2022-12-04_16h50.08.659,vts_reward_expectancy_bt,2022.2.4,Win32,138.6001386,Chrome,1600,1067,,,,,10,878,,,,,,,,,,,,,,,,,B,167,hexagon,1,0,,,,,,,,,,,,,,,,repeat,number,numRpt,k,0.5555,Hi,,,,,,2,,,,,,,,high,2,0,2,0,1,,,,,,,,,
298327,2022-12-04_16h50.08.659,vts_reward_expectancy_bt,2022.2.4,Win32,138.6001386,Chrome,1600,1067,,,,,0,878,,,,,,,,,,,,,,,,,S,125,circle,0,0,,,,,,,,,,,,,,,,switch,letter,NA,d,0.5591,Hi,,,,,,2,,,,,,,,high,3,0,3,0,1,,,,,,,,,
298327,2022-12-04_16h50.08.659,vts_reward_expectancy_bt,2022.2.4,Win32,138.6001386,Chrome,1600,1067,,,,,1,879,,,,,,,,,,,,,,,,,W,174,triangle,1,1,,,,,,,,,,,,,,,,repeat,letter,lettRpt,f,1.2146,Lo,,,,,,2,,,,,,,,high,4,0,4,0,1,,,,,,,,,
298327,2022-12-04_16h50.08.659,vts_reward_expectancy_bt,2022.2.4,Win32,138.6001386,Chrome,1600,1067,,,,,10,889,,,,,,,,,,,,,,,,,U,181,star,1,0,,,,,,,,,,,,,,,,switch,number,numSwt,k,0.6295,Hi,,,,,,2,,,,,,,,high,5,0,5,0,1,,,,,,,,,
298327,2022-12-04_16h50.08.659,vts_reward_expectancy_bt,2022.2.4,Win32,138.6001386,Chrome,1600,1067,,,,,0,889,,,,,,,,,,,,,,,,,Y,146,hexagon,0,0,,,,,,,,,,,,,,,,repeat,number,NA,k,0.7581,Hi,,,,,,2,,,,,,,,high,6,0,6,0,1,,,,,,,,,
298327,2022-12-04_16h50.08.659,vts_reward_expectancy_bt,2022.2.4,Win32,138.6001386,Chrome,1600,1067,,,,,10,899,,,,,,,,,,,,,,,,,F,132,circle,1,1,,,,,,,,,,,,,,,,repeat,number,numRpt,j,0.7238,Lo,,,,,,2,,,,,,,,high,7,0,7,0,1,,,,,,,,,
298327,2022-12-04_16h50.08.659,vts_reward_expectancy_bt,2022.2.4,Win32,138.6001386,Chrome,1600,1067,,,,,10,909,,,,,,,,,,,,,,,,,H,139,triangle,1,0,,,,,,,,,,,,,,,,switch,letter,lettSwt,d,0.6542,Lo,,,,,,2,,,,,,,,high,8,0,8,0,1,,,,,,,,,
298327,2022-12-04_16h50.08.659,vts_reward_expectancy_bt,2022.2.4,Win32,138.6001386,Chrome,1600,1067,,,,,10,919,,,,,,,,,,,,,,,,,D,160,star,1,0,,,,,,,,,,,,,,,,switch,number,numSwt,k,0.6909,Hi,,,,,,2,,,,,,,,high,9,0,9,0,1,,,,,,,,,
298327,2022-12-04_16h50.08.659,vts_reward_expectancy_bt,2022.2.4,Win32,138.6001386,Chrome,1600,1067,,,,,1,920,,,,,,,,,,,,,,,,,B,167,circle,1,0,,,,,,,,,,,,,,,,switch,letter,lettSwt,d,0.7752,Lo,,,,,,2,,,,,,,,high,10,0,10,0,1,,,,,,,,,
298327,2022-12-04_16h50.08.659,vts_reward_expectancy_bt,2022.2.4,Win32,138.6001386,Chrome,1600,1067,,,,,10,930,,,,,,,,,,,,,,,,,S,125,hexagon,1,0,,,,,,,,,,,,,,,,switch,number,numSwt,j,0.6175,Hi,,,,,,2,,,,,,,,high,11,0,11,0,1,,,,,,,,,
298327,2022-12-04_16h50.08.659,vts_reward_expectancy_bt,2022.2.4,Win32,138.6001386,Chrome,1600,1067,,,,,10,940,,,,,,,,,,,,,,,,,W,174,hexagon,1,0,,,,,,,,,,,,,,,,repeat,number,numRpt,k,0.6636,Hi,,,,,,2,,,,,,,,high,12,0,12,0,1,,,,,,,,,
298327,2022-12-04_16h50.08.659,vts_reward_expectancy_bt,2022.2.4,Win32,138.6001386,Chrome,1600,1067,,,,,1,941,,,,,,,,,,,,,,,,,U,181,triangle,1,0,,,,,,,,,,,,,,,,switch,letter,lettSwt,f,0.6687,Lo,,,,,,2,,,,,,,,high,13,0,13,0,1,,,,,,,,,
298327,2022-12-04_16h50.08.659,vts_reward_expectancy_bt,2022.2.4,Win32,138.6001386,Chrome,1600,1067,,,,,0,941,,,,,,,,,,,,,,,,,Y,146,star,1,0,,,,,,,,,,,,,,,,switch,number,numSwt,j,1.2404,Hi,,,,,,2,,,,,,,,high,14,0,14,0,1,,,,,,,,,
298327,2022-12-04_16h50.08.659,vts_reward_expectancy_bt,2022.2.4,Win32,138.6001386,Chrome,1600,1067,,,,,1,942,,,,,,,,,,,,,,,,,F,132,circle,1,0,,,,,,,,,,,,,,,,switch,letter,lettSwt,d,0.726,Lo,,,,,,2,,,,,,,,high,15,0,15,0,1,,,,,,,,,
298327,2022-12-04_16h50.08.659,vts_reward_expectancy_bt,2022.2.4,Win32,138.6001386,Chrome,1600,1067,,,,,1,943,,,,,,,,,,,,,,,,,W,167,triangle,1,0,,,,,,,,,,,,,,,,repeat,letter,lettRpt,f,0.7397,Lo,,,,,,2,,,,,,,,high,16,0,16,0,1,,,,,,,,,
298327,2022-12-04_16h50.08.659,vts_reward_expectancy_bt,2022.2.4,Win32,138.6001386,Chrome,1600,1067,,,,,10,953,,,,,,,,,,,,,,,,,H,160,circle,1,0,,,,,,,,,,,,,,,,repeat,letter,lettRpt,d,0.8783,Lo,,,,,,2,,,,,,,,high,17,0,17,0,1,,,,,,,,,
298327,2022-12-04_16h50.08.659,vts_reward_expectancy_bt,2022.2.4,Win32,138.6001386,Chrome,1600,1067,,,,,0,953,,,,,,,,,,,,,,,,,U,125,star,1,0,,,,,,,,,,,,,,,,switch,number,numSwt,j,0.8051,Hi,,,,,,2,,,,,,,,high,18,0,18,0,1,,,,,,,,,
298327,2022-12-04_16h50.08.659,vts_reward_expectancy_bt,2022.2.4,Win32,138.6001386,Chrome,1600,1067,,,,,10,963,,,,,,,,,,,,,,,,,D,174,hexagon,1,0,,,,,,,,,,,,,,,,repeat,number,numRpt,k,0.7082,Hi,,,,,,2,,,,,,,,high,19,0,19,0,1,,,,,,,,,
298327,2022-12-04_16h50.08.659,vts_reward_expectancy_bt,2022.2.4,Win32,138.6001386,Chrome,1600,1067,,,,,0,963,,,,,,,,,,,,,,,,,Y,181,hexagon,1,0,,,,,,,,,,,,,,,,repeat,number,numRpt,k,0.7595,Hi,,,,,,2,,,,,,,,high,20,0,20,0,1,,,,,,,,,
298327,2022-12-04_16h50.08.659,vts_reward_expectancy_bt,2022.2.4,Win32,138.6001386,Chrome,1600,1067,,,,,0,963,,,,,,,,,,,,,,,,,S,146,triangle,0,0,,,,,,,,,,,,,,,,repeat,number,NA,k,0.8894,Hi,,,,,,2,,,,,,,,high,21,0,21,0,1,,,,,,,,,
298327,2022-12-04_16h50.08.659,vts_reward_expectancy_bt,2022.2.4,Win32,138.6001386,Chrome,1600,1067,,,,,1,964,,,,,,,,,,,,,,,,,B,132,circle,1,1,,,,,,,,,,,,,,,,repeat,number,numRpt,j,0.7182,Lo,,,,,,2,,,,,,,,high,22,0,22,0,1,,,,,,,,,
298327,2022-12-04_16h50.08.659,vts_reward_expectancy_bt,2022.2.4,Win32,138.6001386,Chrome,1600,1067,,,,,0,964,,,,,,,,,,,,,,,,,F,139,star,1,0,,,,,,,,,,,,,,,,switch,letter,lettSwt,d,0.6935,Hi,,,,,,2,,,,,,,,high,23,0,23,0,1,,,,,,,,,
298327,2022-12-04_16h50.08.659,vts_reward_expectancy_bt,2022.2.4,Win32,138.6001386,Chrome,1600,1067,,,,,1,965,,,,,,,,,,,,,,,,,F,160,circle,1,0,,,,,,,,,,,,,,,,repeat,letter,lettRpt,d,0.7964,Lo,,,,,,2,,,,,,,,high,24,0,24,0,1,,,,,,,,,
298327,2022-12-04_16h50.08.659,vts_reward_expectancy_bt,2022.2.4,Win32,138.6001386,Chrome,1600,1067,,,,,0,965,,,,,,,,,,,,,,,,,B,132,hexagon,1,0,,,,,,,,,,,,,,,,switch,number,numSwt,j,0.7636,Hi,,,,,,2,,,,,,,,high,25,0,25,0,1,,,,,,,,,
298327,2022-12-04_16h50.08.659,vts_reward_expectancy_bt,2022.2.4,Win32,138.6001386,Chrome,1600,1067,,,,,0,965,,,,,,,,,,,,,,,,,Y,146,star,1,0,,,,,,,,,,,,,,,,repeat,number,numRpt,j,0.8191,Hi,,,,,,2,,,,,,,,high,26,0,26,0,1,,,,,,,,,
298327,2022-12-04_16h50.08.659,vts_reward_expectancy_bt,2022.2.4,Win32,138.6001386,Chrome,1600,1067,,,,,1,966,,,,,,,,,,,,,,,,,W,181,triangle,1,0,,,,,,,,,,,,,,,,switch,letter,lettSwt,f,0.818,Lo,,,,,,2,,,,,,,,high,27,0,27,0,1,,,,,,,,,
298327,2022-12-04_16h50.08.659,vts_reward_expectancy_bt,2022.2.4,Win32,138.6001386,Chrome,1600,1067,,,,,1,967,,,,,,,,,,,,,,,,,H,167,hexagon,1,0,,,,,,,,,,,,,,,,switch,number,numSwt,k,0.6924,Hi,,,,,,2,,,,,,,,high,28,0,28,0,1,,,,,,,,,
298327,2022-12-04_16h50.08.659,vts_reward_expectancy_bt,2022.2.4,Win32,138.6001386,Chrome,1600,1067,,,,,1,968,,,,,,,,,,,,,,,,,D,139,circle,1,0,,,,,,,,,,,,,,,,switch,letter,lettSwt,d,0.7455,Lo,,,,,,2,,,,,,,,high,29,0,29,0,1,,,,,,,,,
298327,2022-12-04_16h50.08.659,vts_reward_expectancy_bt,2022.2.4,Win32,138.6001386,Chrome,1600,1067,,,,,1,969,,,,,,,,,,,,,,,,,S,125,triangle,1,0,,,,,,,,,,,,,,,,switch,number,numSwt,j,0.8912,Lo,,,,,,2,,,,,,,,high,30,0,30,0,1,,,,,,,,,
298327,2022-12-04_16h50.08.659,vts_reward_expectancy_bt,2022.2.4,Win32,138.6001386,Chrome,1600,1067,,,,,0,969,,,,,,,,,,,,,,,,,U,174,star,0,0,,,,,,,,,,,,,,,,switch,letter,NA,d,0.6347,Lo,,,,,,2,,,,,,,,high,31,0,31,0,1,,,,,,,,,
298327,2022-12-04_16h50.08.659,vts_reward_expectancy_bt,2022.2.4,Win32,138.6001386,Chrome,1600,1067,,,,,1,970,,,,,,,,,,,,,,,,,W,146,circle,1,1,,,,,,,,,,,,,,,,repeat,letter,lettRpt,f,0.6389,Lo,,,,,,3,,,,,,space,54.1197,high,0,0,0,0,1,,,,,,,,,
298327,2022-12-04_16h50.08.659,vts_reward_expectancy_bt,2022.2.4,Win32,138.6001386,Chrome,1600,1067,,,,,10,980,,,,,,,,,,,,,,,,,B,160,star,1,0,,,,,,,,,,,,,,,,switch,number,numSwt,k,0.5514,Hi,,,,,,3,,,,,,,,high,1,0,1,0,1,,,,,,,,,
298327,2022-12-04_16h50.08.659,vts_reward_expectancy_bt,2022.2.4,Win32,138.6001386,Chrome,1600,1067,,,,,10,990,,,,,,,,,,,,,,,,,H,167,hexagon,1,0,,,,,,,,,,,,,,,,repeat,number,numRpt,k,0.5849,Hi,,,,,,3,,,,,,,,high,2,0,2,0,1,,,,,,,,,
298327,2022-12-04_16h50.08.659,vts_reward_expectancy_bt,2022.2.4,Win32,138.6001386,Chrome,1600,1067,,,,,1,991,,,,,,,,,,,,,,,,,F,132,triangle,1,0,,,,,,,,,,,,,,,,repeat,number,numRpt,j,0.7933,Lo,,,,,,3,,,,,,,,high,3,0,3,0,1,,,,,,,,,
298327,2022-12-04_16h50.08.659,vts_reward_expectancy_bt,2022.2.4,Win32,138.6001386,Chrome,1600,1067,,,,,1,992,,,,,,,,,,,,,,,,,Y,125,circle,1,0,,,,,,,,,,,,,,,,repeat,number,numRpt,j,0.7366,Lo,,,,,,3,,,,,,,,high,4,0,4,0,1,,,,,,,,,
298327,2022-12-04_16h50.08.659,vts_reward_expectancy_bt,2022.2.4,Win32,138.6001386,Chrome,1600,1067,,,,,0,992,,,,,,,,,,,,,,,,,U,181,star,1,0,,,,,,,,,,,,,,,,repeat,number,numRpt,k,0.7168,Hi,,,,,,3,,,,,,,,high,5,0,5,0,1,,,,,,,,,
298327,2022-12-04_16h50.08.659,vts_reward_expectancy_bt,2022.2.4,Win32,138.6001386,Chrome,1600,1067,,,,,0,992,,,,,,,,,,,,,,,,,D,174,hexagon,0,0,,,,,,,,,,,,,,,,switch,letter,NA,f,0.5987,Hi,,,,,,3,,,,,,,,high,6,0,6,0,1,,,,,,,,,
298327,2022-12-04_16h50.08.659,vts_reward_expectancy_bt,2022.2.4,Win32,138.6001386,Chrome,1600,1067,,,,,1,993,,,,,,,,,,,,,,,,,S,139,triangle,1,1,,,,,,,,,,,,,,,,repeat,letter,lettRpt,f,0.9686,Lo,,,,,,3,,,,,,,,high,7,0,7,0,1,,,,,,,,,
298327,2022-12-04_16h50.08.659,vts_reward_expectancy_bt,2022.2.4,Win32,138.6001386,Chrome,1600,1067,,,,,1,994,,,,,,,,,,,,,,,,,W,146,triangle,1,0,,,,,,,,,,,,,,,,repeat,letter,lettRpt,f,0.9126,Lo,,,,,,3,,,,,,,,high,8,0,8,0,1,,,,,,,,,
298327,2022-12-04_16h50.08.659,vts_reward_expectancy_bt,2022.2.4,Win32,138.6001386,Chrome,1600,1067,,,,,1,995,,,,,,,,,,,,,,,,,B,160,circle,1,0,,,,,,,,,,,,,,,,switch,number,numSwt,k,0.6009,Lo,,,,,,3,,,,,,,,high,9,0,9,0,1,,,,,,,,,
298327,2022-12-04_16h50.08.659,vts_reward_expectancy_bt,2022.2.4,Win32,138.6001386,Chrome,1600,1067,,,,,0,995,,,,,,,,,,,,,,,,,H,167,hexagon,1,0,,,,,,,,,,,,,,,,repeat,number,numRpt,k,0.738,Hi,,,,,,3,,,,,,,,high,10,0,10,0,1,,,,,,,,,
298327,2022-12-04_16h50.08.659,vts_reward_expectancy_bt,2022.2.4,Win32,138.6001386,Chrome,1600,1067,,,,,0,995,,,,,,,,,,,,,,,,,F,132,star,1,0,,,,,,,,,,,,,,,,repeat,number,numRpt,j,0.7972,Hi,,,,,,3,,,,,,,,high,11,0,11,0,1,,,,,,,,,
298327,2022-12-04_16h50.08.659,vts_reward_expectancy_bt,2022.2.4,Win32,138.6001386,Chrome,1600,1067,,,,,10,1005,,,,,,,,,,,,,,,,,Y,125,triangle,1,0,,,,,,,,,,,,,,,,repeat,number,numRpt,j,0.626,Lo,,,,,,3,,,,,,,,high,12,0,12,0,1,,,,,,,,,
298327,2022-12-04_16h50.08.659,vts_reward_expectancy_bt,2022.2.4,Win32,138.6001386,Chrome,1600,1067,,,,,10,1015,,,,,,,,,,,,,,,,,U,181,star,1,0,,,,,,,,,,,,,,,,repeat,number,numRpt,k,0.6747,Hi,,,,,,3,,,,,,,,high,13,0,13,0,1,,,,,,,,,
298327,2022-12-04_16h50.08.659,vts_reward_expectancy_bt,2022.2.4,Win32,138.6001386,Chrome,1600,1067,,,,,1,1016,,,,,,,,,,,,,,,,,D,174,circle,1,0,,,,,,,,,,,,,,,,switch,letter,lettSwt,d,0.5761,Lo,,,,,,3,,,,,,,,high,14,0,14,0,1,,,,,,,,,
298327,2022-12-04_16h50.08.659,vts_reward_expectancy_bt,2022.2.4,Win32,138.6001386,Chrome,1600,1067,,,,,0,1016,,,,,,,,,,,,,,,,,S,139,hexagon,1,0,,,,,,,,,,,,,,,,repeat,letter,lettRpt,f,0.8525,Hi,,,,,,3,,,,,,,,high,15,0,15,0,1,,,,,,,,,
298327,2022-12-04_16h50.08.659,vts_reward_expectancy_bt,2022.2.4,Win32,138.6001386,Chrome,1600,1067,,,,,1,1017,,,,,,,,,,,,,,,,,B,125,triangle,1,0,,,,,,,,,,,,,,,,switch,number,numSwt,j,0.6182,Lo,,,,,,3,,,,,,,,high,16,0,16,0,1,,,,,,,,,
298327,2022-12-04_16h50.08.659,vts_reward_expectancy_bt,2022.2.4,Win32,138.6001386,Chrome,1600,1067,,,,,0,1017,,,,,,,,,,,,,,,,,W,139,hexagon,1,0,,,,,,,,,,,,,,,,repeat,number,numRpt,j,0.6994,Hi,,,,,,3,,,,,,,,high,17,0,17,0,1,,,,,,,,,
298327,2022-12-04_16h50.08.659,vts_reward_expectancy_bt,2022.2.4,Win32,138.6001386,Chrome,1600,1067,,,,,1,1018,,,,,,,,,,,,,,,,,U,174,circle,1,0,,,,,,,,,,,,,,,,repeat,number,numRpt,k,0.6444,Lo,,,,,,3,,,,,,,,high,18,0,18,0,1,,,,,,,,,
298327,2022-12-04_16h50.08.659,vts_reward_expectancy_bt,2022.2.4,Win32,138.6001386,Chrome,1600,1067,,,,,10,1028,,,,,,,,,,,,,,,,,D,167,star,1,0,,,,,,,,,,,,,,,,repeat,number,numRpt,k,0.609,Hi,,,,,,3,,,,,,,,high,19,0,19,0,1,,,,,,,,,
298327,2022-12-04_16h50.08.659,vts_reward_expectancy_bt,2022.2.4,Win32,138.6001386,Chrome,1600,1067,,,,,10,1038,,,,,,,,,,,,,,,,,S,132,hexagon,1,0,,,,,,,,,,,,,,,,repeat,number,numRpt,j,0.6769,Hi,,,,,,3,,,,,,,,high,20,0,20,0,1,,,,,,,,,
298327,2022-12-04_16h50.08.659,vts_reward_expectancy_bt,2022.2.4,Win32,138.6001386,Chrome,1600,1067,,,,,0,1038,,,,,,,,,,,,,,,,,F,160,star,1,0,,,,,,,,,,,,,,,,repeat,number,numRpt,k,0.6929,Hi,,,,,,3,,,,,,,,high,21,0,21,0,1,,,,,,,,,
298327,2022-12-04_16h50.08.659,vts_reward_expectancy_bt,2022.2.4,Win32,138.6001386,Chrome,1600,1067,,,,,1,1039,,,,,,,,,,,,,,,,,H,181,triangle,1,0,,,,,,,,,,,,,,,,repeat,number,numRpt,k,0.5467,Lo,,,,,,3,,,,,,,,high,22,0,22,0,1,,,,,,,,,
298327,2022-12-04_16h50.08.659,vts_reward_expectancy_bt,2022.2.4,Win32,138.6001386,Chrome,1600,1067,,,,,1,1040,,,,,,,,,,,,,,,,,Y,146,circle,1,0,,,,,,,,,,,,,,,,repeat,number,numRpt,j,0.8219,Lo,,,,,,3,,,,,,,,high,23,0,23,0,1,,,,,,,,,
298327,2022-12-04_16h50.08.659,vts_reward_expectancy_bt,2022.2.4,Win32,138.6001386,Chrome,1600,1067,,,,,0,1040,,,,,,,,,,,,,,,,,D,146,star,1,0,,,,,,,,,,,,,,,,repeat,number,numRpt,j,0.6934,Hi,,,,,,3,,,,,,,,high,24,0,24,0,1,,,,,,,,,
298327,2022-12-04_16h50.08.659,vts_reward_expectancy_bt,2022.2.4,Win32,138.6001386,Chrome,1600,1067,,,,,10,1050,,,,,,,,,,,,,,,,,B,167,hexagon,1,0,,,,,,,,,,,,,,,,repeat,number,numRpt,k,0.5964,Hi,,,,,,3,,,,,,,,high,25,0,25,0,1,,,,,,,,,
298327,2022-12-04_16h50.08.659,vts_reward_expectancy_bt,2022.2.4,Win32,138.6001386,Chrome,1600,1067,,,,,1,1051,,,,,,,,,,,,,,,,,H,174,circle,1,0,,,,,,,,,,,,,,,,switch,letter,lettSwt,d,0.6136,Lo,,,,,,3,,,,,,,,high,26,0,26,0,1,,,,,,,,,
298327,2022-12-04_16h50.08.659,vts_reward_expectancy_bt,2022.2.4,Win32,138.6001386,Chrome,1600,1067,,,,,1,1052,,,,,,,,,,,,,,,,,U,132,triangle,1,0,,,,,,,,,,,,,,,,switch,number,numSwt,j,0.7031,Lo,,,,,,3,,,,,,,,high,27,0,27,0,1,,,,,,,,,
298327,2022-12-04_16h50.08.659,vts_reward_expectancy_bt,2022.2.4,Win32,138.6001386,Chrome,1600,1067,,,,,1,1053,,,,,,,,,,,,,,,,,Y,139,circle,1,0,,,,,,,,,,,,,,,,repeat,number,numRpt,j,0.6919,Lo,,,,,,3,,,,,,,,high,28,0,28,0,1,,,,,,,,,
298327,2022-12-04_16h50.08.659,vts_reward_expectancy_bt,2022.2.4,Win32,138.6001386,Chrome,1600,1067,,,,,0,1053,,,,,,,,,,,,,,,,,S,160,hexagon,1,0,,,,,,,,,,,,,,,,repeat,number,numRpt,k,0.6918,Hi,,,,,,3,,,,,,,,high,29,0,29,0,1,,,,,,,,,
298327,2022-12-04_16h50.08.659,vts_reward_expectancy_bt,2022.2.4,Win32,138.6001386,Chrome,1600,1067,,,,,0,1053,,,,,,,,,,,,,,,,,F,181,star,1,0,,,,,,,,,,,,,,,,repeat,number,numRpt,k,0.7128,Hi,,,,,,3,,,,,,,,high,30,0,30,0,1,,,,,,,,,
298327,2022-12-04_16h50.08.659,vts_reward_expectancy_bt,2022.2.4,Win32,138.6001386,Chrome,1600,1067,,,,,1,1054,,,,,,,,,,,,,,,,,W,125,triangle,1,0,,,,,,,,,,,,,,,,repeat,number,numRpt,j,0.7068,Lo,,,,,,3,,,,,,,,high,31,0,31,0,1,,,,,,,,,
298327,2022-12-04_16h50.08.659,vts_reward_expectancy_bt,2022.2.4,Win32,138.6001386,Chrome,1600,1067,,,,,0,1054,,,,,,,,,,,,,,,,,H,146,hexagon,1,0,,,,,,,,,,,,,,,,repeat,number,numRpt,j,0.7623,Hi,,,,,,4,,,,,,space,1.1285,high,0,0,0,0,1,,,,,,,,,
298327,2022-12-04_16h50.08.659,vts_reward_expectancy_bt,2022.2.4,Win32,138.6001386,Chrome,1600,1067,,,,,0,1054,,,,,,,,,,,,,,,,,S,181,star,1,0,,,,,,,,,,,,,,,,repeat,number,numRpt,k,0.7067,Hi,,,,,,4,,,,,,,,high,1,0,1,0,1,,,,,,,,,
298327,2022-12-04_16h50.08.659,vts_reward_expectancy_bt,2022.2.4,Win32,138.6001386,Chrome,1600,1067,,,,,1,1055,,,,,,,,,,,,,,,,,U,167,circle,1,0,,,,,,,,,,,,,,,,switch,letter,lettSwt,f,0.7011,Lo,,,,,,4,,,,,,,,high,2,0,2,0,1,,,,,,,,,
298327,2022-12-04_16h50.08.659,vts_reward_expectancy_bt,2022.2.4,Win32,138.6001386,Chrome,1600,1067,,,,,1,1056,,,,,,,,,,,,,,,,,F,160,triangle,1,0,,,,,,,,,,,,,,,,repeat,letter,lettRpt,d,0.6508,Lo,,,,,,4,,,,,,,,high,3,0,3,0,1,,,,,,,,,
298327,2022-12-04_16h50.08.659,vts_reward_expectancy_bt,2022.2.4,Win32,138.6001386,Chrome,1600,1067,,,,,10,1066,,,,,,,,,,,,,,,,,W,139,hexagon,1,0,,,,,,,,,,,,,,,,repeat,letter,lettRpt,f,0.5352,Hi,,,,,,4,,,,,,,,high,4,0,4,0,1,,,,,,,,,
298327,2022-12-04_16h50.08.659,vts_reward_expectancy_bt,2022.2.4,Win32,138.6001386,Chrome,1600,1067,,,,,1,1067,,,,,,,,,,,,,,,,,B,132,star,1,0,,,,,,,,,,,,,,,,repeat,letter,lettRpt,d,0.802,Hi,,,,,,4,,,,,,,,high,5,0,5,0,1,,,,,,,,,
298327,2022-12-04_16h50.08.659,vts_reward_expectancy_bt,2022.2.4,Win32,138.6001386,Chrome,1600,1067,,,,,1,1068,,,,,,,,,,,,,,,,,Y,174,circle,1,0,,,,,,,,,,,,,,,,repeat,letter,lettRpt,f,0.7656,Lo,,,,,,4,,,,,,,,high,6,0,6,0,1,,,,,,,,,
298327,2022-12-04_16h50.08.659,vts_reward_expectancy_bt,2022.2.4,Win32,138.6001386,Chrome,1600,1067,,,,,10,1078,,,,,,,,,,,,,,,,,D,125,triangle,1,0,,,,,,,,,,,,,,,,repeat,letter,lettRpt,d,0.6578,Lo,,,,,,4,,,,,,,,high,7,0,7,0,1,,,,,,,,,
298327,2022-12-04_16h50.08.659,vts_reward_expectancy_bt,2022.2.4,Win32,138.6001386,Chrome,1600,1067,,,,,1,1079,,,,,,,,,,,,,,,,,H,146,circle,1,0,,,,,,,,,,,,,,,,repeat,letter,lettRpt,d,0.6176,Lo,,,,,,4,,,,,,,,high,8,0,8,0,1,,,,,,,,,
298327,2022-12-04_16h50.08.659,vts_reward_expectancy_bt,2022.2.4,Win32,138.6001386,Chrome,1600,1067,,,,,1,1080,,,,,,,,,,,,,,,,,S,181,triangle,1,0,,,,,,,,,,,,,,,,switch,number,numSwt,k,0.5791,Lo,,,,,,4,,,,,,,,high,9,0,9,0,1,,,,,,,,,
298327,2022-12-04_16h50.08.659,vts_reward_expectancy_bt,2022.2.4,Win32,138.6001386,Chrome,1600,1067,,,,,0,1080,,,,,,,,,,,,,,,,,U,167,hexagon,1,0,,,,,,,,,,,,,,,,repeat,number,numRpt,k,0.697,Hi,,,,,,4,,,,,,,,high,10,0,10,0,1,,,,,,,,,
298327,2022-12-04_16h50.08.659,vts_reward_expectancy_bt,2022.2.4,Win32,138.6001386,Chrome,1600,1067,,,,,10,1090,,,,,,,,,,,,,,,,,F,160,star,1,0,,,,,,,,,,,,,,,,repeat,number,numRpt,k,0.5428,Hi,,,,,,4,,,,,,,,high,11,0,11,0,1,,,,,,,,,
298327,2022-12-04_16h50.08.659,vts_reward_expectancy_bt,2022.2.4,Win32,138.6001386,Chrome,1600,1067,,,,,1,1091,,,,,,,,,,,,,,,,,W,139,triangle,1,0,,,,,,,,,,,,,,,,repeat,number,numRpt,j,0.714,Lo,,,,,,4,,,,,,,,high,12,0,12,0,1,,,,,,,,,
298327,2022-12-04_16h50.08.659,vts_reward_expectancy_bt,2022.2.4,Win32,138.6001386,Chrome,1600,1067,,,,,1,1092,,,,,,,,,,,,,,,,,B,132,circle,1,0,,,,,,,,,,,,,,,,repeat,number,numRpt,j,0.6783,Lo,,,,,,4,,,,,,,,high,13,0,13,0,1,,,,,,,,,
298327,2022-12-04_16h50.08.659,vts_reward_expectancy_bt,2022.2.4,Win32,138.6001386,Chrome,1600,1067,,,,,10,1102,,,,,,,,,,,,,,,,,Y,174,star,1,0,,,,,,,,,,,,,,,,repeat,number,numRpt,k,0.5679,Hi,,,,,,4,,,,,,,,high,14,0,14,0,1,,,,,,,,,
298327,2022-12-04_16h50.08.659,vts_reward_expectancy_bt,2022.2.4,Win32,138.6001386,Chrome,1600,1067,,,,,10,1112,,,,,,,,,,,,,,,,,D,125,hexagon,1,0,,,,,,,,,,,,,,,,repeat,number,numRpt,j,0.6084,Hi,,,,,,4,,,,,,,,high,15,0,15,0,1,,,,,,,,,
298327,2022-12-04_16h50.08.659,vts_reward_expectancy_bt,2022.2.4,Win32,138.6001386,Chrome,1600,1067,,,,,10,1122,,,,,,,,,,,,,,,,,F,181,hexagon,1,0,,,,,,,,,,,,,,,,repeat,number,numRpt,k,0.6447,Hi,,,,,,4,,,,,,,,high,16,0,16,0,1,,,,,,,,,
298327,2022-12-04_16h50.08.659,vts_reward_expectancy_bt,2022.2.4,Win32,138.6001386,Chrome,1600,1067,,,,,1,1123,,,,,,,,,,,,,,,,,B,139,circle,1,0,,,,,,,,,,,,,,,,repeat,number,numRpt,j,0.8973,Lo,,,,,,4,,,,,,,,high,17,0,17,0,1,,,,,,,,,
298327,2022-12-04_16h50.08.659,vts_reward_expectancy_bt,2022.2.4,Win32,138.6001386,Chrome,1600,1067,,,,,0,1123,,,,,,,,,,,,,,,,,Y,167,star,1,0,,,,,,,,,,,,,,,,repeat,number,numRpt,k,0.6786,Hi,,,,,,4,,,,,,,,high,18,0,18,0,1,,,,,,,,,
298327,2022-12-04_16h50.08.659,vts_reward_expectancy_bt,2022.2.4,Win32,138.6001386,Chrome,1600,1067,,,,,1,1124,,,,,,,,,,,,,,,,,H,160,triangle,1,0,,,,,,,,,,,,,,,,repeat,number,numRpt,k,0.6231,Lo,,,,,,4,,,,,,,,high,19,0,19,0,1,,,,,,,,,
298327,2022-12-04_16h50.08.659,vts_reward_expectancy_bt,2022.2.4,Win32,138.6001386,Chrome,1600,1067,,,,,1,1125,,,,,,,,,,,,,,,,,W,125,triangle,1,0,,,,,,,,,,,,,,,,repeat,number,numRpt,j,0.9169,Lo,,,,,,4,,,,,,,,high,20,0,20,0,1,,,,,,,,,
298327,2022-12-04_16h50.08.659,vts_reward_expectancy_bt,2022.2.4,Win32,138.6001386,Chrome,1600,1067,,,,,0,1125,,,,,,,,,,,,,,,,,D,174,hexagon,1,0,,,,,,,,,,,,,,,,repeat,number,numRpt,k,0.7446,Hi,,,,,,4,,,,,,,,high,21,0,21,0,1,,,,,,,,,
298327,2022-12-04_16h50.08.659,vts_reward_expectancy_bt,2022.2.4,Win32,138.6001386,Chrome,1600,1067,,,,,1,1126,,,,,,,,,,,,,,,,,U,132,circle,1,0,,,,,,,,,,,,,,,,repeat,number,numRpt,j,0.6616,Lo,,,,,,4,,,,,,,,high,22,0,22,0,1,,,,,,,,,
298327,2022-12-04_16h50.08.659,vts_reward_expectancy_bt,2022.2.4,Win32,138.6001386,Chrome,1600,1067,,,,,0,1126,,,,,,,,,,,,,,,,,S,146,star,0,0,,,,,,,,,,,,,,,,switch,letter,NA,d,0.7853,Lo,,,,,,4,,,,,,,,high,23,0,23,0,1,,,,,,,,,
298327,2022-12-04_16h50.08.659,vts_reward_expectancy_bt,2022.2.4,Win32,138.6001386,Chrome,1600,1067,,,,,10,1136,,,,,,,,,,,,,,,,,F,132,triangle,1,1,,,,,,,,,,,,,,,,repeat,letter,lettRpt,d,0.7346,Lo,,,,,,4,,,,,,,,high,24,0,24,0,1,,,,,,,,,
298327,2022-12-04_16h50.08.659,vts_reward_expectancy_bt,2022.2.4,Win32,138.6001386,Chrome,1600,1067,,,,,0,1136,,,,,,,,,,,,,,,,,W,139,star,0,0,,,,,,,,,,,,,,,,repeat,letter,NA,d,0.5852,Lo,,,,,,4,,,,,,,,high,25,0,25,0,1,,,,,,,,,
298327,2022-12-04_16h50.08.659,vts_reward_expectancy_bt,2022.2.4,Win32,138.6001386,Chrome,1600,1067,,,,,10,1146,,,,,,,,,,,,,,,,,B,174,circle,1,1,,,,,,,,,,,,,,,,repeat,letter,lettRpt,d,0.7001,Lo,,,,,,4,,,,,,,,high,26,0,26,0,1,,,,,,,,,
298327,2022-12-04_16h50.08.659,vts_reward_expectancy_bt,2022.2.4,Win32,138.6001386,Chrome,1600,1067,,,,,0,1146,,,,,,,,,,,,,,,,,D,125,hexagon,1,0,,,,,,,,,,,,,,,,switch,number,numSwt,j,0.6187,Hi,,,,,,4,,,,,,,,high,27,0,27,0,1,,,,,,,,,
298327,2022-12-04_16h50.08.659,vts_reward_expectancy_bt,2022.2.4,Win32,138.6001386,Chrome,1600,1067,,,,,10,1156,,,,,,,,,,,,,,,,,S,146,triangle,1,0,,,,,,,,,,,,,,,,repeat,number,numRpt,j,1.0452,Lo,,,,,,4,,,,,,,,high,28,0,28,0,1,,,,,,,,,
298327,2022-12-04_16h50.08.659,vts_reward_expectancy_bt,2022.2.4,Win32,138.6001386,Chrome,1600,1067,,,,,0,1156,,,,,,,,,,,,,,,,,Y,160,hexagon,1,0,,,,,,,,,,,,,,,,repeat,number,numRpt,k,0.6944,Hi,,,,,,4,,,,,,,,high,29,0,29,0,1,,,,,,,,,
298327,2022-12-04_16h50.08.659,vts_reward_expectancy_bt,2022.2.4,Win32,138.6001386,Chrome,1600,1067,,,,,1,1157,,,,,,,,,,,,,,,,,H,181,circle,1,0,,,,,,,,,,,,,,,,repeat,number,numRpt,k,0.7178,Lo,,,,,,4,,,,,,,,high,30,0,30,0,1,,,,,,,,,
298327,2022-12-04_16h50.08.659,vts_reward_expectancy_bt,2022.2.4,Win32,138.6001386,Chrome,1600,1067,,,,,0,1157,,,,,,,,,,,,,,,,,U,167,star,1,0,,,,,,,,,,,,,,,,repeat,number,numRpt,k,0.7097,Hi,,,,,,4,,,,,,,,high,31,0,31,0,1,,,,,,,,,
298327,2022-12-04_16h50.08.659,vts_reward_expectancy_bt,2022.2.4,Win32,138.6001386,Chrome,1600,1067,,,,,1,1158,,,,,,,,,,,,,,,,,F,167,triangle,1,0,,,,,,,,,,,,,,,,switch,letter,lettSwt,d,0.6515,Lo,,,,,,5,,,,,,space,0.9692,high,0,0,0,0,1,,,,,,,,,
298327,2022-12-04_16h50.08.659,vts_reward_expectancy_bt,2022.2.4,Win32,138.6001386,Chrome,1600,1067,,,,,0,1158,,,,,,,,,,,,,,,,,D,146,hexagon,1,0,,,,,,,,,,,,,,,,switch,number,numSwt,j,0.7676,Hi,,,,,,5,,,,,,,,high,1,0,1,0,1,,,,,,,,,
298327,2022-12-04_16h50.08.659,vts_reward_expectancy_bt,2022.2.4,Win32,138.6001386,Chrome,1600,1067,,,,,0,1158,,,,,,,,,,,,,,,,,Y,139,star,1,0,,,,,,,,,,,,,,,,repeat,number,numRpt,j,0.6826,Hi,,,,,,5,,,,,,,,high,2,0,2,0,1,,,,,,,,,
298327,2022-12-04_16h50.08.659,vts_reward_expectancy_bt,2022.2.4,Win32,138.6001386,Chrome,1600,1067,,,,,1,1159,,,,,,,,,,,,,,,,,U,125,circle,1,0,,,,,,,,,,,,,,,,switch,letter,lettSwt,f,0.8212,Lo,,,,,,5,,,,,,,,high,3,0,3,0,1,,,,,,,,,
298327,2022-12-04_16h50.08.659,vts_reward_expectancy_bt,2022.2.4,Win32,138.6001386,Chrome,1600,1067,,,,,1,1160,,,,,,,,,,,,,,,,,W,132,triangle,1,0,,,,,,,,,,,,,,,,repeat,letter,lettRpt,f,0.5846,Lo,,,,,,5,,,,,,,,high,4,0,4,0,1,,,,,,,,,
298327,2022-12-04_16h50.08.659,vts_reward_expectancy_bt,2022.2.4,Win32,138.6001386,Chrome,1600,1067,,,,,10,1170,,,,,,,,,,,,,,,,,S,181,hexagon,1,0,,,,,,,,,,,,,,,,switch,number,numSwt,k,0.4527,Hi,,,,,,5,,,,,,,,high,5,0,5,0,1,,,,,,,,,
298327,2022-12-04_16h50.08.659,vts_reward_expectancy_bt,2022.2.4,Win32,138.6001386,Chrome,1600,1067,,,,,0,1170,,,,,,,,,,,,,,,,,B,160,star,1,0,,,,,,,,,,,,,,,,repeat,number,numRpt,k,0.7008,Hi,,,,,,5,,,,,,,,high,6,0,6,0,1,,,,,,,,,
298327,2022-12-04_16h50.08.659,vts_reward_expectancy_bt,2022.2.4,Win32,138.6001386,Chrome,1600,1067,,,,,1,1171,,,,,,,,,,,,,,,,,H,174,circle,1,0,,,,,,,,,,,,,,,,repeat,number,numRpt,k,0.6585,Lo,,,,,,5,,,,,,,,high,7,0,7,0,1,,,,,,,,,
298327,2022-12-04_16h50.08.659,vts_reward_expectancy_bt,2022.2.4,Win32,138.6001386,Chrome,1600,1067,,,,,10,1181,,,,,,,,,,,,,,,,,F,167,hexagon,1,0,,,,,,,,,,,,,,,,switch,letter,lettSwt,d,0.6627,Hi,,,,,,5,,,,,,,,high,8,0,8,0,1,,,,,,,,,
298327,2022-12-04_16h50.08.659,vts_reward_expectancy_bt,2022.2.4,Win32,138.6001386,Chrome,1600,1067,,,,,0,1181,,,,,,,,,,,,,,,,,D,146,star,1,0,,,,,,,,,,,,,,,,repeat,letter,lettRpt,d,0.7433,Hi,,,,,,5,,,,,,,,high,9,0,9,0,1,,,,,,,,,
298327,2022-12-04_16h50.08.659,vts_reward_expectancy_bt,2022.2.4,Win32,138.6001386,Chrome,1600,1067,,,,,1,1182,,,,,,,,,,,,,,,,,Y,139,triangle,1,0,,,,,,,,,,,,,,,,switch,number,numSwt,j,0.6295,Lo,,,,,,5,,,,,,,,high,10,0,10,0,1,,,,,,,,,
298327,2022-12-04_16h50.08.659,vts_reward_expectancy_bt,2022.2.4,Win32,138.6001386,Chrome,1600,1067,,,,,1,1183,,,,,,,,,,,,,,,,,U,125,circle,1,0,,,,,,,,,,,,,,,,switch,letter,lettSwt,f,0.585,Lo,,,,,,5,,,,,,,,high,11,0,11,0,1,,,,,,,,,
298327,2022-12-04_16h50.08.659,vts_reward_expectancy_bt,2022.2.4,Win32,138.6001386,Chrome,1600,1067,,,,,0,1183,,,,,,,,,,,,,,,,,W,132,hexagon,1,0,,,,,,,,,,,,,,,,switch,number,numSwt,j,0.6604,Hi,,,,,,5,,,,,,,,high,12,0,12,0,1,,,,,,,,,
298327,2022-12-04_16h50.08.659,vts_reward_expectancy_bt,2022.2.4,Win32,138.6001386,Chrome,1600,1067,,,,,1,1184,,,,,,,,,,,,,,,,,S,181,triangle,1,0,,,,,,,,,,,,,,,,repeat,number,numRpt,k,0.6994,Lo,,,,,,5,,,,,,,,high,13,0,13,0,1,,,,,,,,,
298327,2022-12-04_16h50.08.659,vts_reward_expectancy_bt,2022.2.4,Win32,138.6001386,Chrome,1600,1067,,,,,0,1184,,,,,,,,,,,,,,,,,B,160,star,1,0,,,,,,,,,,,,,,,,switch,letter,lettSwt,d,0.7109,Hi,,,,,,5,,,,,,,,high,14,0,14,0,1,,,,,,,,,
298327,2022-12-04_16h50.08.659,vts_reward_expectancy_bt,2022.2.4,Win32,138.6001386,Chrome,1600,1067,,,,,1,1185,,,,,,,,,,,,,,,,,H,174,circle,1,0,,,,,,,,,,,,,,,,switch,number,numSwt,k,0.767,Lo,,,,,,5,,,,,,,,high,15,0,15,0,1,,,,,,,,,
298327,2022-12-04_16h50.08.659,vts_reward_expectancy_bt,2022.2.4,Win32,138.6001386,Chrome,1600,1067,,,,,0,1185,,,,,,,,,,,,,,,,,S,160,hexagon,1,0,,,,,,,,,,,,,,,,switch,letter,lettSwt,f,0.9842,Hi,,,,,,5,,,,,,,,high,16,0,16,0,1,,,,,,,,,
298327,2022-12-04_16h50.08.659,vts_reward_expectancy_bt,2022.2.4,Win32,138.6001386,Chrome,1600,1067,,,,,1,1186,,,,,,,,,,,,,,,,,F,146,circle,1,0,,,,,,,,,,,,,,,,switch,number,numSwt,j,0.867,Lo,,,,,,5,,,,,,,,high,17,0,17,0,1,,,,,,,,,
298327,2022-12-04_16h50.08.659,vts_reward_expectancy_bt,2022.2.4,Win32,138.6001386,Chrome,1600,1067,,,,,1,1187,,,,,,,,,,,,,,,,,D,174,triangle,1,0,,,,,,,,,,,,,,,,repeat,number,numRpt,k,0.8419,Lo,,,,,,5,,,,,,,,high,18,0,18,0,1,,,,,,,,,
298327,2022-12-04_16h50.08.659,vts_reward_expectancy_bt,2022.2.4,Win32,138.6001386,Chrome,1600,1067,,,,,10,1197,,,,,,,,,,,,,,,,,W,181,star,1,0,,,,,,,,,,,,,,,,repeat,number,numRpt,k,0.5653,Hi,,,,,,5,,,,,,,,high,19,0,19,0,1,,,,,,,,,
298327,2022-12-04_16h50.08.659,vts_reward_expectancy_bt,2022.2.4,Win32,138.6001386,Chrome,1600,1067,,,,,0,1197,,,,,,,,,,,,,,,,,H,132,star,1,0,,,,,,,,,,,,,,,,switch,letter,lettSwt,d,0.716,Hi,,,,,,5,,,,,,,,high,20,0,20,0,1,,,,,,,,,
298327,2022-12-04_16h50.08.659,vts_reward_expectancy_bt,2022.2.4,Win32,138.6001386,Chrome,1600,1067,,,,,0,1197,,,,,,,,,,,,,,,,,Y,167,hexagon,1,0,,,,,,,,,,,,,,,,repeat,letter,lettRpt,f,0.7321,Hi,,,,,,5,,,,,,,,high,21,0,21,0,1,,,,,,,,,
298327,2022-12-04_16h50.08.659,vts_reward_expectancy_bt,2022.2.4,Win32,138.6001386,Chrome,1600,1067,,,,,1,1198,,,,,,,,,,,,,,,,,B,139,triangle,1,0,,,,,,,,,,,,,,,,switch,number,numSwt,j,0.644,Lo,,,,,,5,,,,,,,,high,22,0,22,0,1,,,,,,,,,
298327,2022-12-04_16h50.08.659,vts_reward_expectancy_bt,2022.2.4,Win32,138.6001386,Chrome,1600,1067,,,,,10,1208,,,,,,,,,,,,,,,,,U,125,circle,1,0,,,,,,,,,,,,,,,,repeat,number,numRpt,j,0.5756,Lo,,,,,,5,,,,,,,,high,23,0,23,0,1,,,,,,,,,
298327,2022-12-04_16h50.08.659,vts_reward_expectancy_bt,2022.2.4,Win32,138.6001386,Chrome,1600,1067,,,,,1,1209,,,,,,,,,,,,,,,,,B,132,triangle,1,0,,,,,,,,,,,,,,,,repeat,number,numRpt,j,0.7069,Lo,,,,,,5,,,,,,,,high,24,0,24,0,1,,,,,,,,,
298327,2022-12-04_16h50.08.659,vts_reward_expectancy_bt,2022.2.4,Win32,138.6001386,Chrome,1600,1067,,,,,1,1210,,,,,,,,,,,,,,,,,H,174,circle,1,0,,,,,,,,,,,,,,,,switch,letter,lettSwt,d,0.5611,Lo,,,,,,5,,,,,,,,high,25,0,25,0,1,,,,,,,,,
298327,2022-12-04_16h50.08.659,vts_reward_expectancy_bt,2022.2.4,Win32,138.6001386,Chrome,1600,1067,,,,,0,1210,,,,,,,,,,,,,,,,,Y,125,hexagon,1,0,,,,,,,,,,,,,,,,repeat,letter,lettRpt,f,0.7273,Hi,,,,,,5,,,,,,,,high,26,0,26,0,1,,,,,,,,,
298327,2022-12-04_16h50.08.659,vts_reward_expectancy_bt,2022.2.4,Win32,138.6001386,Chrome,1600,1067,,,,,0,1210,,,,,,,,,,,,,,,,,S,167,star,1,0,,,,,,,,,,,,,,,,repeat,letter,lettRpt,f,0.744,Hi,,,,,,5,,,,,,,,high,27,0,27,0,1,,,,,,,,,
298327,2022-12-04_16h50.08.659,vts_reward_expectancy_bt,2022.2.4,Win32,138.6001386,Chrome,1600,1067,,,,,0,1210,,,,,,,,,,,,,,,,,D,181,star,1,0,,,,,,,,,,,,,,,,switch,number,numSwt,k,0.619,Hi,,,,,,5,,,,,,,,high,28,0,28,0,1,,,,,,,,,
298327,2022-12-04_16h50.08.659,vts_reward_expectancy_bt,2022.2.4,Win32,138.6001386,Chrome,1600,1067,,,,,10,1220,,,,,,,,,,,,,,,,,U,146,hexagon,1,0,,,,,,,,,,,,,,,,repeat,number,numRpt,j,0.5573,Hi,,,,,,5,,,,,,,,high,29,0,29,0,1,,,,,,,,,
298327,2022-12-04_16h50.08.659,vts_reward_expectancy_bt,2022.2.4,Win32,138.6001386,Chrome,1600,1067,,,,,1,1221,,,,,,,,,,,,,,,,,W,139,triangle,1,0,,,,,,,,,,,,,,,,repeat,number,numRpt,j,0.6603,Lo,,,,,,5,,,,,,,,high,30,0,30,0,1,,,,,,,,,
298327,2022-12-04_16h50.08.659,vts_reward_expectancy_bt,2022.2.4,Win32,138.6001386,Chrome,1600,1067,,,,,1,1222,,,,,,,,,,,,,,,,,F,160,circle,1,0,,,,,,,,,,,,,,,,repeat,number,numRpt,k,0.6765,Lo,,,,,,5,,,,,,,,high,31,0,31,0,1,,,,,,,,,
298327,2022-12-04_16h50.08.659,vts_reward_expectancy_bt,2022.2.4,Win32,138.6001386,Chrome,1600,1067,,,,,1,1223,,,,,,,,,,,,,,,,,H,139,star,1,0,,,,,,,,,,,,,,,,repeat,number,numRpt,j,0.6348,Hi,,,,,,6,,,,,,space,0.8583,high,0,0,0,0,1,,,,,,,,,
298327,2022-12-04_16h50.08.659,vts_reward_expectancy_bt,2022.2.4,Win32,138.6001386,Chrome,1600,1067,,,,,0,1223,,,,,,,,,,,,,,,,,D,160,hexagon,1,0,,,,,,,,,,,,,,,,switch,letter,lettSwt,d,0.7533,Hi,,,,,,6,,,,,,,,high,1,0,1,0,1,,,,,,,,,
298327,2022-12-04_16h50.08.659,vts_reward_expectancy_bt,2022.2.4,Win32,138.6001386,Chrome,1600,1067,,,,,1,1224,,,,,,,,,,,,,,,,,Y,132,triangle,1,0,,,,,,,,,,,,,,,,switch,number,numSwt,j,0.6319,Lo,,,,,,6,,,,,,,,high,2,0,2,0,1,,,,,,,,,
298327,2022-12-04_16h50.08.659,vts_reward_expectancy_bt,2022.2.4,Win32,138.6001386,Chrome,1600,1067,,,,,1,1225,,,,,,,,,,,,,,,,,S,174,circle,1,0,,,,,,,,,,,,,,,,repeat,number,numRpt,k,0.4187,Lo,,,,,,6,,,,,,,,high,3,0,3,0,1,,,,,,,,,
298327,2022-12-04_16h50.08.659,vts_reward_expectancy_bt,2022.2.4,Win32,138.6001386,Chrome,1600,1067,,,,,0,1225,,,,,,,,,,,,,,,,,F,181,star,0,0,,,,,,,,,,,,,,,,switch,letter,NA,f,0.531,Lo,,,,,,6,,,,,,,,high,4,0,4,0,1,,,,,,,,,
298327,2022-12-04_16h50.08.659,vts_reward_expectancy_bt,2022.2.4,Win32,138.6001386,Chrome,1600,1067,,,,,10,1235,,,,,,,,,,,,,,,,,U,167,hexagon,1,1,,,,,,,,,,,,,,,,switch,number,numSwt,k,0.6014,Hi,,,,,,6,,,,,,,,high,5,0,5,0,1,,,,,,,,,
298327,2022-12-04_16h50.08.659,vts_reward_expectancy_bt,2022.2.4,Win32,138.6001386,Chrome,1600,1067,,,,,1,1236,,,,,,,,,,,,,,,,,B,125,triangle,1,0,,,,,,,,,,,,,,,,switch,letter,lettSwt,d,0.5672,Lo,,,,,,6,,,,,,,,high,6,0,6,0,1,,,,,,,,,
298327,2022-12-04_16h50.08.659,vts_reward_expectancy_bt,2022.2.4,Win32,138.6001386,Chrome,1600,1067,,,,,0,1236,,,,,,,,,,,,,,,,,W,146,circle,0,0,,,,,,,,,,,,,,,,switch,number,NA,k,0.6822,Lo,,,,,,6,,,,,,,,high,7,0,7,0,1,,,,,,,,,
298327,2022-12-04_16h50.08.659,vts_reward_expectancy_bt,2022.2.4,Win32,138.6001386,Chrome,1600,1067,,,,,1,1237,,,,,,,,,,,,,,,,,H,139,triangle,1,1,,,,,,,,,,,,,,,,repeat,number,numRpt,j,0.7043,Lo,,,,,,6,,,,,,,,high,8,0,8,0,1,,,,,,,,,
298327,2022-12-04_16h50.08.659,vts_reward_expectancy_bt,2022.2.4,Win32,138.6001386,Chrome,1600,1067,,,,,0,1237,,,,,,,,,,,,,,,,,D,160,star,1,0,,,,,,,,,,,,,,,,switch,letter,lettSwt,d,0.7179,Hi,,,,,,6,,,,,,,,high,9,0,9,0,1,,,,,,,,,
298327,2022-12-04_16h50.08.659,vts_reward_expectancy_bt,2022.2.4,Win32,138.6001386,Chrome,1600,1067,,,,,0,1237,,,,,,,,,,,,,,,,,Y,132,hexagon,1,0,,,,,,,,,,,,,,,,repeat,letter,lettRpt,f,0.766,Hi,,,,,,6,,,,,,,,high,10,0,10,0,1,,,,,,,,,
298327,2022-12-04_16h50.08.659,vts_reward_expectancy_bt,2022.2.4,Win32,138.6001386,Chrome,1600,1067,,,,,1,1238,,,,,,,,,,,,,,,,,S,174,circle,1,0,,,,,,,,,,,,,,,,repeat,letter,lettRpt,f,0.7068,Lo,,,,,,6,,,,,,,,high,11,0,11,0,1,,,,,,,,,
298327,2022-12-04_16h50.08.659,vts_reward_expectancy_bt,2022.2.4,Win32,138.6001386,Chrome,1600,1067,,,,,0,1238,,,,,,,,,,,,,,,,,F,181,hexagon,1,0,,,,,,,,,,,,,,,,switch,number,numSwt,k,0.6999,Hi,,,,,,6,,,,,,,,high,12,0,12,0,1,,,,,,,,,
298327,2022-12-04_16h50.08.659,vts_reward_expectancy_bt,2022.2.4,Win32,138.6001386,Chrome,1600,1067,,,,,0,1238,,,,,,,,,,,,,,,,,U,167,star,1,0,,,,,,,,,,,,,,,,switch,letter,lettSwt,f,0.939,Hi,,,,,,6,,,,,,,,high,13,0,13,0,1,,,,,,,,,
