participant,date,expName,psychopyVersion,OS,frameRate,browser,xResolution,yResolution,key_resp.keys,key_resp.rt,training_resp.keys,training_resp.rt,points_trial,points_cumul,trainBlock,training.thisRepN,training.thisTrialN,training.thisN,training.thisIndex,training.ran,LTriangleOpac,LCircleOpac,LHexagonOpac,LStarOpac,RTriangleOpac,RCircleOpac,RHexagonOpac,RStarOpac,LShape_ID,RShape_ID,curr_topStim,curr_bottStim,curr_shape,acc,E1,target_resp_prac1.keys,pracBlock,task1_prac_trials.thisRepN,task1_prac_trials.thisTrialN,task1_prac_trials.thisN,task1_prac_trials.thisIndex,task1_prac_trials.ran,target_resp_prac1.rt,target_resp_prac2.keys,target_resp_prac2.rt,task2_praac_trials.thisRepN,task2_praac_trials.thisTrialN,task2_praac_trials.thisN,task2_praac_trials.thisIndex,task2_praac_trials.ran,alt,task,condition,target_resp.keys,target_resp.rt,rewCond,vts_practice_trials.thisRepN,vts_practice_trials.thisTrialN,vts_practice_trials.thisN,vts_practice_trials.thisIndex,vts_practice_trials.ran,blockNum,trials_norew.thisRepN,trials_norew.thisTrialN,trials_norew.thisN,trials_norew.thisIndex,trials_norew.ran,key_resp_2.keys,key_resp_2.rt,rewExpectancy,trials_rew.thisRepN,trials_rew.thisTrialN,trials_rew.thisN,trials_rew.thisIndex,trials_rew.ran,Q1,Q2,Q2_text,Q3,Q4,Q5_text,Q5,xRes,yRes
298339,2022-12-07_09h15.59.970,vts_reward_expectancy_bt,2022.2.4,Win32,145.6876457,Chrome,1536,864,,,,,,,,,,,,,,,,,,,,,,,,,,,,,,,,,,,,,,,,,,,,,,,,,,,,,,,,,,,,,,,,,,,,,,,,,,,,
298339,2022-12-07_09h15.59.970,vts_reward_expectancy_bt,2022.2.4,Win32,145.6876457,Chrome,1536,864,space,19.73,,,,,,,,,,,,,,,,,,,,,,,,,,,,,,,,,,,,,,,,,,,,,,,,,,,,,,,,,,,,,,,,,,,,,,,,,,
298339,2022-12-07_09h15.59.970,vts_reward_expectancy_bt,2022.2.4,Win32,145.6876457,Chrome,1536,864,,,,,,,,,,,,,,,,,,,,,,,,,,,,,,,,,,,,,,,,,,,,,,,,,,,,,,,,,,,,,,,,,,,,,,,,,,,,
298339,2022-12-07_09h15.59.970,vts_reward_expectancy_bt,2022.2.4,Win32,145.6876457,Chrome,1536,864,,,a,3.8896,1,1,0,0,0,0,7,1,0,0,1,0,0,1,0,0,hexagon,circle,,,,,,,,,,,,,,,,,,,,,,,,,,,,,,,,,,,,,,,,,,,,,,,,,,,,,,
298339,2022-12-07_09h15.59.970,vts_reward_expectancy_bt,2022.2.4,Win32,145.6876457,Chrome,1536,864,,,a,5.4503,1,2,0,0,1,1,4,1,0,1,0,0,0,0,1,0,circle,hexagon,,,,,,,,,,,,,,,,,,,,,,,,,,,,,,,,,,,,,,,,,,,,,,,,,,,,,,
298339,2022-12-07_09h15.59.970,vts_reward_expectancy_bt,2022.2.4,Win32,145.6876457,Chrome,1536,864,,,a,3.32,1,3,0,0,2,2,9,1,0,0,0,1,1,0,0,0,star,triangle,,,,,,,,,,,,,,,,,,,,,,,,,,,,,,,,,,,,,,,,,,,,,,,,,,,,,,
298339,2022-12-07_09h15.59.970,vts_reward_expectancy_bt,2022.2.4,Win32,145.6876457,Chrome,1536,864,,,l,0.6006,10,13,0,0,3,3,5,1,0,1,0,0,0,0,0,1,circle,star,,,,,,,,,,,,,,,,,,,,,,,,,,,,,,,,,,,,,,,,,,,,,,,,,,,,,,
298339,2022-12-07_09h15.59.970,vts_reward_expectancy_bt,2022.2.4,Win32,145.6876457,Chrome,1536,864,,,a,5.6288,1,14,0,0,4,4,3,1,0,1,0,0,1,0,0,0,circle,triangle,,,,,,,,,,,,,,,,,,,,,,,,,,,,,,,,,,,,,,,,,,,,,,,,,,,,,,
298339,2022-12-07_09h15.59.970,vts_reward_expectancy_bt,2022.2.4,Win32,145.6876457,Chrome,1536,864,,,l,0.52,10,24,0,0,5,5,6,1,0,0,1,0,1,0,0,0,hexagon,triangle,,,,,,,,,,,,,,,,,,,,,,,,,,,,,,,,,,,,,,,,,,,,,,,,,,,,,,
298339,2022-12-07_09h15.59.970,vts_reward_expectancy_bt,2022.2.4,Win32,145.6876457,Chrome,1536,864,,,l,0.8054,1,25,0,0,6,6,1,1,1,0,0,0,0,0,1,0,triangle,hexagon,,,,,,,,,,,,,,,,,,,,,,,,,,,,,,,,,,,,,,,,,,,,,,,,,,,,,,
298339,2022-12-07_09h15.59.970,vts_reward_expectancy_bt,2022.2.4,Win32,145.6876457,Chrome,1536,864,,,a,0.8591,10,35,0,0,7,7,0,1,1,0,0,0,0,1,0,0,triangle,circle,,,,,,,,,,,,,,,,,,,,,,,,,,,,,,,,,,,,,,,,,,,,,,,,,,,,,,
298339,2022-12-07_09h15.59.970,vts_reward_expectancy_bt,2022.2.4,Win32,145.6876457,Chrome,1536,864,,,l,1.9076,1,36,0,0,8,8,10,1,0,0,0,1,0,1,0,0,star ,circle,,,,,,,,,,,,,,,,,,,,,,,,,,,,,,,,,,,,,,,,,,,,,,,,,,,,,,
298339,2022-12-07_09h15.59.970,vts_reward_expectancy_bt,2022.2.4,Win32,145.6876457,Chrome,1536,864,,,l,8.757,10,46,0,0,9,9,8,1,0,0,1,0,0,0,0,1,hexagon,star,,,,,,,,,,,,,,,,,,,,,,,,,,,,,,,,,,,,,,,,,,,,,,,,,,,,,,
298339,2022-12-07_09h15.59.970,vts_reward_expectancy_bt,2022.2.4,Win32,145.6876457,Chrome,1536,864,,,a,1.7457,10,56,0,0,10,10,2,1,1,0,0,0,0,0,0,1,triangle,star,,,,,,,,,,,,,,,,,,,,,,,,,,,,,,,,,,,,,,,,,,,,,,,,,,,,,,
298339,2022-12-07_09h15.59.970,vts_reward_expectancy_bt,2022.2.4,Win32,145.6876457,Chrome,1536,864,,,a,3.3349,10,66,0,0,11,11,11,1,0,0,0,1,0,0,1,0,star,hexagon,,,,,,,,,,,,,,,,,,,,,,,,,,,,,,,,,,,,,,,,,,,,,,,,,,,,,,
298339,2022-12-07_09h15.59.970,vts_reward_expectancy_bt,2022.2.4,Win32,145.6876457,Chrome,1536,864,,,l,8.7913,1,67,0,1,0,12,5,1,0,1,0,0,0,0,0,1,circle,star,,,,,,,,,,,,,,,,,,,,,,,,,,,,,,,,,,,,,,,,,,,,,,,,,,,,,,
298339,2022-12-07_09h15.59.970,vts_reward_expectancy_bt,2022.2.4,Win32,145.6876457,Chrome,1536,864,,,a,1.0961,1,68,0,1,1,13,4,1,0,1,0,0,0,0,1,0,circle,hexagon,,,,,,,,,,,,,,,,,,,,,,,,,,,,,,,,,,,,,,,,,,,,,,,,,,,,,,
298339,2022-12-07_09h15.59.970,vts_reward_expectancy_bt,2022.2.4,Win32,145.6876457,Chrome,1536,864,,,a,1.0323,10,78,0,1,2,14,11,1,0,0,0,1,0,0,1,0,star,hexagon,,,,,,,,,,,,,,,,,,,,,,,,,,,,,,,,,,,,,,,,,,,,,,,,,,,,,,
298339,2022-12-07_09h15.59.970,vts_reward_expectancy_bt,2022.2.4,Win32,145.6876457,Chrome,1536,864,,,l,2.1388,1,79,0,1,3,15,10,1,0,0,0,1,0,1,0,0,star ,circle,,,,,,,,,,,,,,,,,,,,,,,,,,,,,,,,,,,,,,,,,,,,,,,,,,,,,,
298339,2022-12-07_09h15.59.970,vts_reward_expectancy_bt,2022.2.4,Win32,145.6876457,Chrome,1536,864,,,l,2.4925,10,89,0,1,4,16,8,1,0,0,1,0,0,0,0,1,hexagon,star,,,,,,,,,,,,,,,,,,,,,,,,,,,,,,,,,,,,,,,,,,,,,,,,,,,,,,
298339,2022-12-07_09h15.59.970,vts_reward_expectancy_bt,2022.2.4,Win32,145.6876457,Chrome,1536,864,,,l,1.3003,10,99,0,1,5,17,6,1,0,0,1,0,1,0,0,0,hexagon,triangle,,,,,,,,,,,,,,,,,,,,,,,,,,,,,,,,,,,,,,,,,,,,,,,,,,,,,,
298339,2022-12-07_09h15.59.970,vts_reward_expectancy_bt,2022.2.4,Win32,145.6876457,Chrome,1536,864,,,a,1.0693,10,109,0,1,6,18,2,1,1,0,0,0,0,0,0,1,triangle,star,,,,,,,,,,,,,,,,,,,,,,,,,,,,,,,,,,,,,,,,,,,,,,,,,,,,,,
298339,2022-12-07_09h15.59.970,vts_reward_expectancy_bt,2022.2.4,Win32,145.6876457,Chrome,1536,864,,,l,3.0753,10,119,0,1,7,19,7,1,0,0,1,0,0,1,0,0,hexagon,circle,,,,,,,,,,,,,,,,,,,,,,,,,,,,,,,,,,,,,,,,,,,,,,,,,,,,,,
298339,2022-12-07_09h15.59.970,vts_reward_expectancy_bt,2022.2.4,Win32,145.6876457,Chrome,1536,864,,,a,1.9247,1,120,0,1,8,20,1,1,1,0,0,0,0,0,1,0,triangle,hexagon,,,,,,,,,,,,,,,,,,,,,,,,,,,,,,,,,,,,,,,,,,,,,,,,,,,,,,
298339,2022-12-07_09h15.59.970,vts_reward_expectancy_bt,2022.2.4,Win32,145.6876457,Chrome,1536,864,,,l,1.2588,1,121,0,1,9,21,3,1,0,1,0,0,1,0,0,0,circle,triangle,,,,,,,,,,,,,,,,,,,,,,,,,,,,,,,,,,,,,,,,,,,,,,,,,,,,,,
298339,2022-12-07_09h15.59.970,vts_reward_expectancy_bt,2022.2.4,Win32,145.6876457,Chrome,1536,864,,,a,3.2588,1,122,0,1,10,22,0,1,1,0,0,0,0,1,0,0,triangle,circle,,,,,,,,,,,,,,,,,,,,,,,,,,,,,,,,,,,,,,,,,,,,,,,,,,,,,,
298339,2022-12-07_09h15.59.970,vts_reward_expectancy_bt,2022.2.4,Win32,145.6876457,Chrome,1536,864,,,l,4.8344,10,132,0,1,11,23,9,1,0,0,0,1,1,0,0,0,star,triangle,,,,,,,,,,,,,,,,,,,,,,,,,,,,,,,,,,,,,,,,,,,,,,,,,,,,,,
298339,2022-12-07_09h15.59.970,vts_reward_expectancy_bt,2022.2.4,Win32,145.6876457,Chrome,1536,864,,,l,1.7593,10,142,0,2,0,24,6,1,0,0,1,0,1,0,0,0,hexagon,triangle,,,,,,,,,,,,,,,,,,,,,,,,,,,,,,,,,,,,,,,,,,,,,,,,,,,,,,
298339,2022-12-07_09h15.59.970,vts_reward_expectancy_bt,2022.2.4,Win32,145.6876457,Chrome,1536,864,,,l,2.6873,10,152,0,2,1,25,5,1,0,1,0,0,0,0,0,1,circle,star,,,,,,,,,,,,,,,,,,,,,,,,,,,,,,,,,,,,,,,,,,,,,,,,,,,,,,
298339,2022-12-07_09h15.59.970,vts_reward_expectancy_bt,2022.2.4,Win32,145.6876457,Chrome,1536,864,,,a,4.4893,1,153,0,2,2,26,1,1,1,0,0,0,0,0,1,0,triangle,hexagon,,,,,,,,,,,,,,,,,,,,,,,,,,,,,,,,,,,,,,,,,,,,,,,,,,,,,,
298339,2022-12-07_09h15.59.970,vts_reward_expectancy_bt,2022.2.4,Win32,145.6876457,Chrome,1536,864,,,a,1.1625,10,163,0,2,3,27,0,1,1,0,0,0,0,1,0,0,triangle,circle,,,,,,,,,,,,,,,,,,,,,,,,,,,,,,,,,,,,,,,,,,,,,,,,,,,,,,
298339,2022-12-07_09h15.59.970,vts_reward_expectancy_bt,2022.2.4,Win32,145.6876457,Chrome,1536,864,,,a,11.6746,10,173,0,2,4,28,10,1,0,0,0,1,0,1,0,0,star ,circle,,,,,,,,,,,,,,,,,,,,,,,,,,,,,,,,,,,,,,,,,,,,,,,,,,,,,,
298339,2022-12-07_09h15.59.970,vts_reward_expectancy_bt,2022.2.4,Win32,145.6876457,Chrome,1536,864,,,a,9.7406,10,183,0,2,5,29,11,1,0,0,0,1,0,0,1,0,star,hexagon,,,,,,,,,,,,,,,,,,,,,,,,,,,,,,,,,,,,,,,,,,,,,,,,,,,,,,
298339,2022-12-07_09h15.59.970,vts_reward_expectancy_bt,2022.2.4,Win32,145.6876457,Chrome,1536,864,,,l,12.0536,1,184,0,2,6,30,7,1,0,0,1,0,0,1,0,0,hexagon,circle,,,,,,,,,,,,,,,,,,,,,,,,,,,,,,,,,,,,,,,,,,,,,,,,,,,,,,
298339,2022-12-07_09h15.59.970,vts_reward_expectancy_bt,2022.2.4,Win32,145.6876457,Chrome,1536,864,,,a,9.4852,1,185,0,2,7,31,2,1,1,0,0,0,0,0,0,1,triangle,star,,,,,,,,,,,,,,,,,,,,,,,,,,,,,,,,,,,,,,,,,,,,,,,,,,,,,,
298339,2022-12-07_09h15.59.970,vts_reward_expectancy_bt,2022.2.4,Win32,145.6876457,Chrome,1536,864,,,l,4.9916,10,195,0,2,8,32,9,1,0,0,0,1,1,0,0,0,star,triangle,,,,,,,,,,,,,,,,,,,,,,,,,,,,,,,,,,,,,,,,,,,,,,,,,,,,,,
298339,2022-12-07_09h15.59.970,vts_reward_expectancy_bt,2022.2.4,Win32,145.6876457,Chrome,1536,864,,,a,15.2593,1,196,0,2,9,33,4,1,0,1,0,0,0,0,1,0,circle,hexagon,,,,,,,,,,,,,,,,,,,,,,,,,,,,,,,,,,,,,,,,,,,,,,,,,,,,,,
298339,2022-12-07_09h15.59.970,vts_reward_expectancy_bt,2022.2.4,Win32,145.6876457,Chrome,1536,864,,,l,15.8902,10,206,0,2,10,34,8,1,0,0,1,0,0,0,0,1,hexagon,star,,,,,,,,,,,,,,,,,,,,,,,,,,,,,,,,,,,,,,,,,,,,,,,,,,,,,,
298339,2022-12-07_09h15.59.970,vts_reward_expectancy_bt,2022.2.4,Win32,145.6876457,Chrome,1536,864,,,l,5.382,1,207,0,2,11,35,3,1,0,1,0,0,1,0,0,0,circle,triangle,,,,,,,,,,,,,,,,,,,,,,,,,,,,,,,,,,,,,,,,,,,,,,,,,,,,,,
298339,2022-12-07_09h15.59.970,vts_reward_expectancy_bt,2022.2.4,Win32,145.6876457,Chrome,1536,864,,,a,6.7342,10,217,1,0,0,0,0,1,1,0,0,0,0,1,0,0,triangle,circle,,,,,,,,,,,,,,,,,,,,,,,,,,,,,,,,,,,,,,,,,,,,,,,,,,,,,,
298339,2022-12-07_09h15.59.970,vts_reward_expectancy_bt,2022.2.4,Win32,145.6876457,Chrome,1536,864,,,l,17.1259,10,227,1,0,1,1,6,1,0,0,1,0,1,0,0,0,hexagon,triangle,,,,,,,,,,,,,,,,,,,,,,,,,,,,,,,,,,,,,,,,,,,,,,,,,,,,,,
298339,2022-12-07_09h15.59.970,vts_reward_expectancy_bt,2022.2.4,Win32,145.6876457,Chrome,1536,864,,,l,31.7539,10,237,1,0,2,2,7,1,0,0,1,0,0,1,0,0,hexagon,circle,,,,,,,,,,,,,,,,,,,,,,,,,,,,,,,,,,,,,,,,,,,,,,,,,,,,,,
298339,2022-12-07_09h15.59.970,vts_reward_expectancy_bt,2022.2.4,Win32,145.6876457,Chrome,1536,864,,,a,12.271,1,238,1,0,3,3,4,1,0,1,0,0,0,0,1,0,circle,hexagon,,,,,,,,,,,,,,,,,,,,,,,,,,,,,,,,,,,,,,,,,,,,,,,,,,,,,,
298339,2022-12-07_09h15.59.970,vts_reward_expectancy_bt,2022.2.4,Win32,145.6876457,Chrome,1536,864,,,l,18.0421,10,248,1,0,4,4,8,1,0,0,1,0,0,0,0,1,hexagon,star,,,,,,,,,,,,,,,,,,,,,,,,,,,,,,,,,,,,,,,,,,,,,,,,,,,,,,
298339,2022-12-07_09h15.59.970,vts_reward_expectancy_bt,2022.2.4,Win32,145.6876457,Chrome,1536,864,,,a,35.615,10,258,1,0,5,5,9,1,0,0,0,1,1,0,0,0,star,triangle,,,,,,,,,,,,,,,,,,,,,,,,,,,,,,,,,,,,,,,,,,,,,,,,,,,,,,
298339,2022-12-07_09h15.59.970,vts_reward_expectancy_bt,2022.2.4,Win32,145.6876457,Chrome,1536,864,,,a,36.1274,1,259,1,0,6,6,1,1,1,0,0,0,0,0,1,0,triangle,hexagon,,,,,,,,,,,,,,,,,,,,,,,,,,,,,,,,,,,,,,,,,,,,,,,,,,,,,,
298339,2022-12-07_09h15.59.970,vts_reward_expectancy_bt,2022.2.4,Win32,145.6876457,Chrome,1536,864,,,l,26.0545,10,269,1,0,7,7,5,1,0,1,0,0,0,0,0,1,circle,star,,,,,,,,,,,,,,,,,,,,,,,,,,,,,,,,,,,,,,,,,,,,,,,,,,,,,,
298339,2022-12-07_09h15.59.970,vts_reward_expectancy_bt,2022.2.4,Win32,145.6876457,Chrome,1536,864,,,l,19.6078,1,270,1,0,8,8,2,1,1,0,0,0,0,0,0,1,triangle,star,,,,,,,,,,,,,,,,,,,,,,,,,,,,,,,,,,,,,,,,,,,,,,,,,,,,,,
298339,2022-12-07_09h15.59.970,vts_reward_expectancy_bt,2022.2.4,Win32,145.6876457,Chrome,1536,864,,,l,27.8513,1,271,1,0,9,9,3,1,0,1,0,0,1,0,0,0,circle,triangle,,,,,,,,,,,,,,,,,,,,,,,,,,,,,,,,,,,,,,,,,,,,,,,,,,,,,,
298339,2022-12-07_09h15.59.970,vts_reward_expectancy_bt,2022.2.4,Win32,145.6876457,Chrome,1536,864,,,a,19.7645,1,272,1,0,10,10,10,1,0,0,0,1,0,1,0,0,star ,circle,,,,,,,,,,,,,,,,,,,,,,,,,,,,,,,,,,,,,,,,,,,,,,,,,,,,,,
298339,2022-12-07_09h15.59.970,vts_reward_expectancy_bt,2022.2.4,Win32,145.6876457,Chrome,1536,864,,,a,32.4731,10,282,1,0,11,11,11,1,0,0,0,1,0,0,1,0,star,hexagon,,,,,,,,,,,,,,,,,,,,,,,,,,,,,,,,,,,,,,,,,,,,,,,,,,,,,,
298339,2022-12-07_09h15.59.970,vts_reward_expectancy_bt,2022.2.4,Win32,145.6876457,Chrome,1536,864,,,a,8.3572,1,283,1,1,0,12,3,1,0,1,0,0,1,0,0,0,circle,triangle,,,,,,,,,,,,,,,,,,,,,,,,,,,,,,,,,,,,,,,,,,,,,,,,,,,,,,
298339,2022-12-07_09h15.59.970,vts_reward_expectancy_bt,2022.2.4,Win32,145.6876457,Chrome,1536,864,,,l,16.1535,10,293,1,1,1,13,5,1,0,1,0,0,0,0,0,1,circle,star,,,,,,,,,,,,,,,,,,,,,,,,,,,,,,,,,,,,,,,,,,,,,,,,,,,,,,
298339,2022-12-07_09h15.59.970,vts_reward_expectancy_bt,2022.2.4,Win32,145.6876457,Chrome,1536,864,,,a,8.4188,10,303,1,1,2,14,9,1,0,0,0,1,1,0,0,0,star,triangle,,,,,,,,,,,,,,,,,,,,,,,,,,,,,,,,,,,,,,,,,,,,,,,,,,,,,,
298339,2022-12-07_09h15.59.970,vts_reward_expectancy_bt,2022.2.4,Win32,145.6876457,Chrome,1536,864,,,a,22.7794,10,313,1,1,3,15,11,1,0,0,0,1,0,0,1,0,star,hexagon,,,,,,,,,,,,,,,,,,,,,,,,,,,,,,,,,,,,,,,,,,,,,,,,,,,,,,
298339,2022-12-07_09h15.59.970,vts_reward_expectancy_bt,2022.2.4,Win32,145.6876457,Chrome,1536,864,,,l,15.4702,10,323,1,1,4,16,2,1,1,0,0,0,0,0,0,1,triangle,star,,,,,,,,,,,,,,,,,,,,,,,,,,,,,,,,,,,,,,,,,,,,,,,,,,,,,,
298339,2022-12-07_09h15.59.970,vts_reward_expectancy_bt,2022.2.4,Win32,145.6876457,Chrome,1536,864,,,a,31.9406,10,333,1,1,5,17,6,1,0,0,1,0,1,0,0,0,hexagon,triangle,,,,,,,,,,,,,,,,,,,,,,,,,,,,,,,,,,,,,,,,,,,,,,,,,,,,,,
298339,2022-12-07_09h15.59.970,vts_reward_expectancy_bt,2022.2.4,Win32,145.6876457,Chrome,1536,864,,,l,20.8542,1,334,1,1,6,18,1,1,1,0,0,0,0,0,1,0,triangle,hexagon,,,,,,,,,,,,,,,,,,,,,,,,,,,,,,,,,,,,,,,,,,,,,,,,,,,,,,
298339,2022-12-07_09h15.59.970,vts_reward_expectancy_bt,2022.2.4,Win32,145.6876457,Chrome,1536,864,,,l,7.6551,1,335,1,1,7,19,7,1,0,0,1,0,0,1,0,0,hexagon,circle,,,,,,,,,,,,,,,,,,,,,,,,,,,,,,,,,,,,,,,,,,,,,,,,,,,,,,
298339,2022-12-07_09h15.59.970,vts_reward_expectancy_bt,2022.2.4,Win32,145.6876457,Chrome,1536,864,,,a,5.7842,1,336,1,1,8,20,10,1,0,0,0,1,0,1,0,0,star ,circle,,,,,,,,,,,,,,,,,,,,,,,,,,,,,,,,,,,,,,,,,,,,,,,,,,,,,,
298339,2022-12-07_09h15.59.970,vts_reward_expectancy_bt,2022.2.4,Win32,145.6876457,Chrome,1536,864,,,a,3.1878,1,337,1,1,9,21,0,1,1,0,0,0,0,1,0,0,triangle,circle,,,,,,,,,,,,,,,,,,,,,,,,,,,,,,,,,,,,,,,,,,,,,,,,,,,,,,
298339,2022-12-07_09h15.59.970,vts_reward_expectancy_bt,2022.2.4,Win32,145.6876457,Chrome,1536,864,,,l,0.607,10,347,1,1,10,22,8,1,0,0,1,0,0,0,0,1,hexagon,star,,,,,,,,,,,,,,,,,,,,,,,,,,,,,,,,,,,,,,,,,,,,,,,,,,,,,,
298339,2022-12-07_09h15.59.970,vts_reward_expectancy_bt,2022.2.4,Win32,145.6876457,Chrome,1536,864,,,a,2.3542,1,348,1,1,11,23,4,1,0,1,0,0,0,0,1,0,circle,hexagon,,,,,,,,,,,,,,,,,,,,,,,,,,,,,,,,,,,,,,,,,,,,,,,,,,,,,,
298339,2022-12-07_09h15.59.970,vts_reward_expectancy_bt,2022.2.4,Win32,145.6876457,Chrome,1536,864,,,a,7.568,10,358,1,2,0,24,4,1,0,1,0,0,0,0,1,0,circle,hexagon,,,,,,,,,,,,,,,,,,,,,,,,,,,,,,,,,,,,,,,,,,,,,,,,,,,,,,
298339,2022-12-07_09h15.59.970,vts_reward_expectancy_bt,2022.2.4,Win32,145.6876457,Chrome,1536,864,,,a,2.2985,10,368,1,2,1,25,1,1,1,0,0,0,0,0,1,0,triangle,hexagon,,,,,,,,,,,,,,,,,,,,,,,,,,,,,,,,,,,,,,,,,,,,,,,,,,,,,,
298339,2022-12-07_09h15.59.970,vts_reward_expectancy_bt,2022.2.4,Win32,145.6876457,Chrome,1536,864,,,a,1.4983,1,369,1,2,2,26,11,1,0,0,0,1,0,0,1,0,star,hexagon,,,,,,,,,,,,,,,,,,,,,,,,,,,,,,,,,,,,,,,,,,,,,,,,,,,,,,
298339,2022-12-07_09h15.59.970,vts_reward_expectancy_bt,2022.2.4,Win32,145.6876457,Chrome,1536,864,,,l,2.1463,1,370,1,2,3,27,6,1,0,0,1,0,1,0,0,0,hexagon,triangle,,,,,,,,,,,,,,,,,,,,,,,,,,,,,,,,,,,,,,,,,,,,,,,,,,,,,,
298339,2022-12-07_09h15.59.970,vts_reward_expectancy_bt,2022.2.4,Win32,145.6876457,Chrome,1536,864,,,a,0.8964,1,371,1,2,4,28,10,1,0,0,0,1,0,1,0,0,star ,circle,,,,,,,,,,,,,,,,,,,,,,,,,,,,,,,,,,,,,,,,,,,,,,,,,,,,,,
298339,2022-12-07_09h15.59.970,vts_reward_expectancy_bt,2022.2.4,Win32,145.6876457,Chrome,1536,864,,,l,7.4531,10,381,1,2,5,29,3,1,0,1,0,0,1,0,0,0,circle,triangle,,,,,,,,,,,,,,,,,,,,,,,,,,,,,,,,,,,,,,,,,,,,,,,,,,,,,,
298339,2022-12-07_09h15.59.970,vts_reward_expectancy_bt,2022.2.4,Win32,145.6876457,Chrome,1536,864,,,l,6.8747,1,382,1,2,6,30,0,1,1,0,0,0,0,1,0,0,triangle,circle,,,,,,,,,,,,,,,,,,,,,,,,,,,,,,,,,,,,,,,,,,,,,,,,,,,,,,
298339,2022-12-07_09h15.59.970,vts_reward_expectancy_bt,2022.2.4,Win32,145.6876457,Chrome,1536,864,,,l,0.9729,10,392,1,2,7,31,8,1,0,0,1,0,0,0,0,1,hexagon,star,,,,,,,,,,,,,,,,,,,,,,,,,,,,,,,,,,,,,,,,,,,,,,,,,,,,,,
298339,2022-12-07_09h15.59.970,vts_reward_expectancy_bt,2022.2.4,Win32,145.6876457,Chrome,1536,864,,,l,1.6923,10,402,1,2,8,32,5,1,0,1,0,0,0,0,0,1,circle,star,,,,,,,,,,,,,,,,,,,,,,,,,,,,,,,,,,,,,,,,,,,,,,,,,,,,,,
298339,2022-12-07_09h15.59.970,vts_reward_expectancy_bt,2022.2.4,Win32,145.6876457,Chrome,1536,864,,,l,1.9127,10,412,1,2,9,33,2,1,1,0,0,0,0,0,0,1,triangle,star,,,,,,,,,,,,,,,,,,,,,,,,,,,,,,,,,,,,,,,,,,,,,,,,,,,,,,
298339,2022-12-07_09h15.59.970,vts_reward_expectancy_bt,2022.2.4,Win32,145.6876457,Chrome,1536,864,,,l,7.1961,10,422,1,2,10,34,7,1,0,0,1,0,0,1,0,0,hexagon,circle,,,,,,,,,,,,,,,,,,,,,,,,,,,,,,,,,,,,,,,,,,,,,,,,,,,,,,
298339,2022-12-07_09h15.59.970,vts_reward_expectancy_bt,2022.2.4,Win32,145.6876457,Chrome,1536,864,,,a,1.4999,10,432,1,2,11,35,9,1,0,0,0,1,1,0,0,0,star,triangle,,,,,,,,,,,,,,,,,,,,,,,,,,,,,,,,,,,,,,,,,,,,,,,,,,,,,,
298339,2022-12-07_09h15.59.970,vts_reward_expectancy_bt,2022.2.4,Win32,145.6876457,Chrome,1536,864,,,a,0.9483,10,442,2,0,0,0,11,1,0,0,0,1,0,0,1,0,star,hexagon,,,,,,,,,,,,,,,,,,,,,,,,,,,,,,,,,,,,,,,,,,,,,,,,,,,,,,
298339,2022-12-07_09h15.59.970,vts_reward_expectancy_bt,2022.2.4,Win32,145.6876457,Chrome,1536,864,,,l,2.3384,10,452,2,0,1,1,5,1,0,1,0,0,0,0,0,1,circle,star,,,,,,,,,,,,,,,,,,,,,,,,,,,,,,,,,,,,,,,,,,,,,,,,,,,,,,
298339,2022-12-07_09h15.59.970,vts_reward_expectancy_bt,2022.2.4,Win32,145.6876457,Chrome,1536,864,,,l,18.011,10,462,2,0,2,2,6,1,0,0,1,0,1,0,0,0,hexagon,triangle,,,,,,,,,,,,,,,,,,,,,,,,,,,,,,,,,,,,,,,,,,,,,,,,,,,,,,
298339,2022-12-07_09h15.59.970,vts_reward_expectancy_bt,2022.2.4,Win32,145.6876457,Chrome,1536,864,,,l,2.5751,10,472,2,0,3,3,8,1,0,0,1,0,0,0,0,1,hexagon,star,,,,,,,,,,,,,,,,,,,,,,,,,,,,,,,,,,,,,,,,,,,,,,,,,,,,,,
298339,2022-12-07_09h15.59.970,vts_reward_expectancy_bt,2022.2.4,Win32,145.6876457,Chrome,1536,864,,,l,5.2493,1,473,2,0,4,4,3,1,0,1,0,0,1,0,0,0,circle,triangle,,,,,,,,,,,,,,,,,,,,,,,,,,,,,,,,,,,,,,,,,,,,,,,,,,,,,,
298339,2022-12-07_09h15.59.970,vts_reward_expectancy_bt,2022.2.4,Win32,145.6876457,Chrome,1536,864,,,a,4.2046,10,483,2,0,5,5,1,1,1,0,0,0,0,0,1,0,triangle,hexagon,,,,,,,,,,,,,,,,,,,,,,,,,,,,,,,,,,,,,,,,,,,,,,,,,,,,,,
298339,2022-12-07_09h15.59.970,vts_reward_expectancy_bt,2022.2.4,Win32,145.6876457,Chrome,1536,864,,,l,1.5177,10,493,2,0,6,6,2,1,1,0,0,0,0,0,0,1,triangle,star,,,,,,,,,,,,,,,,,,,,,,,,,,,,,,,,,,,,,,,,,,,,,,,,,,,,,,
298339,2022-12-07_09h15.59.970,vts_reward_expectancy_bt,2022.2.4,Win32,145.6876457,Chrome,1536,864,,,a,8.8909,10,503,2,0,7,7,4,1,0,1,0,0,0,0,1,0,circle,hexagon,,,,,,,,,,,,,,,,,,,,,,,,,,,,,,,,,,,,,,,,,,,,,,,,,,,,,,
298339,2022-12-07_09h15.59.970,vts_reward_expectancy_bt,2022.2.4,Win32,145.6876457,Chrome,1536,864,,,a,2.0803,10,513,2,0,8,8,9,1,0,0,0,1,1,0,0,0,star,triangle,,,,,,,,,,,,,,,,,,,,,,,,,,,,,,,,,,,,,,,,,,,,,,,,,,,,,,
298339,2022-12-07_09h15.59.970,vts_reward_expectancy_bt,2022.2.4,Win32,145.6876457,Chrome,1536,864,,,a,1.3636,10,523,2,0,9,9,10,1,0,0,0,1,0,1,0,0,star ,circle,,,,,,,,,,,,,,,,,,,,,,,,,,,,,,,,,,,,,,,,,,,,,,,,,,,,,,
298339,2022-12-07_09h15.59.970,vts_reward_expectancy_bt,2022.2.4,Win32,145.6876457,Chrome,1536,864,,,a,3.3434,10,533,2,0,10,10,0,1,1,0,0,0,0,1,0,0,triangle,circle,,,,,,,,,,,,,,,,,,,,,,,,,,,,,,,,,,,,,,,,,,,,,,,,,,,,,,
298339,2022-12-07_09h15.59.970,vts_reward_expectancy_bt,2022.2.4,Win32,145.6876457,Chrome,1536,864,,,l,9.098,10,543,2,0,11,11,7,1,0,0,1,0,0,1,0,0,hexagon,circle,,,,,,,,,,,,,,,,,,,,,,,,,,,,,,,,,,,,,,,,,,,,,,,,,,,,,,
298339,2022-12-07_09h15.59.970,vts_reward_expectancy_bt,2022.2.4,Win32,145.6876457,Chrome,1536,864,,,a,0.6915,10,553,2,1,0,12,10,1,0,0,0,1,0,1,0,0,star ,circle,,,,,,,,,,,,,,,,,,,,,,,,,,,,,,,,,,,,,,,,,,,,,,,,,,,,,,
298339,2022-12-07_09h15.59.970,vts_reward_expectancy_bt,2022.2.4,Win32,145.6876457,Chrome,1536,864,,,l,2.1634,10,563,2,1,1,13,7,1,0,0,1,0,0,1,0,0,hexagon,circle,,,,,,,,,,,,,,,,,,,,,,,,,,,,,,,,,,,,,,,,,,,,,,,,,,,,,,
298339,2022-12-07_09h15.59.970,vts_reward_expectancy_bt,2022.2.4,Win32,145.6876457,Chrome,1536,864,,,l,0.8825,10,573,2,1,2,14,2,1,1,0,0,0,0,0,0,1,triangle,star,,,,,,,,,,,,,,,,,,,,,,,,,,,,,,,,,,,,,,,,,,,,,,,,,,,,,,
298339,2022-12-07_09h15.59.970,vts_reward_expectancy_bt,2022.2.4,Win32,145.6876457,Chrome,1536,864,,,a,0.8297,1,574,2,1,3,15,11,1,0,0,0,1,0,0,1,0,star,hexagon,,,,,,,,,,,,,,,,,,,,,,,,,,,,,,,,,,,,,,,,,,,,,,,,,,,,,,
298339,2022-12-07_09h15.59.970,vts_reward_expectancy_bt,2022.2.4,Win32,145.6876457,Chrome,1536,864,,,l,14.7306,1,575,2,1,4,16,5,1,0,1,0,0,0,0,0,1,circle,star,,,,,,,,,,,,,,,,,,,,,,,,,,,,,,,,,,,,,,,,,,,,,,,,,,,,,,
298339,2022-12-07_09h15.59.970,vts_reward_expectancy_bt,2022.2.4,Win32,145.6876457,Chrome,1536,864,,,l,5.5866,10,585,2,1,5,17,3,1,0,1,0,0,1,0,0,0,circle,triangle,,,,,,,,,,,,,,,,,,,,,,,,,,,,,,,,,,,,,,,,,,,,,,,,,,,,,,
298339,2022-12-07_09h15.59.970,vts_reward_expectancy_bt,2022.2.4,Win32,145.6876457,Chrome,1536,864,,,a,2.9556,10,595,2,1,6,18,9,1,0,0,0,1,1,0,0,0,star,triangle,,,,,,,,,,,,,,,,,,,,,,,,,,,,,,,,,,,,,,,,,,,,,,,,,,,,,,
298339,2022-12-07_09h15.59.970,vts_reward_expectancy_bt,2022.2.4,Win32,145.6876457,Chrome,1536,864,,,l,1.2842,10,605,2,1,7,19,8,1,0,0,1,0,0,0,0,1,hexagon,star,,,,,,,,,,,,,,,,,,,,,,,,,,,,,,,,,,,,,,,,,,,,,,,,,,,,,,
298339,2022-12-07_09h15.59.970,vts_reward_expectancy_bt,2022.2.4,Win32,145.6876457,Chrome,1536,864,,,l,2.1564,1,606,2,1,8,20,6,1,0,0,1,0,1,0,0,0,hexagon,triangle,,,,,,,,,,,,,,,,,,,,,,,,,,,,,,,,,,,,,,,,,,,,,,,,,,,,,,
298339,2022-12-07_09h15.59.970,vts_reward_expectancy_bt,2022.2.4,Win32,145.6876457,Chrome,1536,864,,,a,1.5105,10,616,2,1,9,21,0,1,1,0,0,0,0,1,0,0,triangle,circle,,,,,,,,,,,,,,,,,,,,,,,,,,,,,,,,,,,,,,,,,,,,,,,,,,,,,,
298339,2022-12-07_09h15.59.970,vts_reward_expectancy_bt,2022.2.4,Win32,145.6876457,Chrome,1536,864,,,l,12.5355,1,617,2,1,10,22,4,1,0,1,0,0,0,0,1,0,circle,hexagon,,,,,,,,,,,,,,,,,,,,,,,,,,,,,,,,,,,,,,,,,,,,,,,,,,,,,,
298339,2022-12-07_09h15.59.970,vts_reward_expectancy_bt,2022.2.4,Win32,145.6876457,Chrome,1536,864,,,a,0.6108,10,627,2,1,11,23,1,1,1,0,0,0,0,0,1,0,triangle,hexagon,,,,,,,,,,,,,,,,,,,,,,,,,,,,,,,,,,,,,,,,,,,,,,,,,,,,,,
298339,2022-12-07_09h15.59.970,vts_reward_expectancy_bt,2022.2.4,Win32,145.6876457,Chrome,1536,864,,,a,1.4397,1,628,2,2,0,24,4,1,0,1,0,0,0,0,1,0,circle,hexagon,,,,,,,,,,,,,,,,,,,,,,,,,,,,,,,,,,,,,,,,,,,,,,,,,,,,,,
298339,2022-12-07_09h15.59.970,vts_reward_expectancy_bt,2022.2.4,Win32,145.6876457,Chrome,1536,864,,,a,9.8472,10,638,2,2,1,25,0,1,1,0,0,0,0,1,0,0,triangle,circle,,,,,,,,,,,,,,,,,,,,,,,,,,,,,,,,,,,,,,,,,,,,,,,,,,,,,,
298339,2022-12-07_09h15.59.970,vts_reward_expectancy_bt,2022.2.4,Win32,145.6876457,Chrome,1536,864,,,l,1.8494,10,648,2,2,2,26,8,1,0,0,1,0,0,0,0,1,hexagon,star,,,,,,,,,,,,,,,,,,,,,,,,,,,,,,,,,,,,,,,,,,,,,,,,,,,,,,
298339,2022-12-07_09h15.59.970,vts_reward_expectancy_bt,2022.2.4,Win32,145.6876457,Chrome,1536,864,,,l,1.4865,10,658,2,2,3,27,2,1,1,0,0,0,0,0,0,1,triangle,star,,,,,,,,,,,,,,,,,,,,,,,,,,,,,,,,,,,,,,,,,,,,,,,,,,,,,,
298339,2022-12-07_09h15.59.970,vts_reward_expectancy_bt,2022.2.4,Win32,145.6876457,Chrome,1536,864,,,l,3.5256,10,668,2,2,4,28,6,1,0,0,1,0,1,0,0,0,hexagon,triangle,,,,,,,,,,,,,,,,,,,,,,,,,,,,,,,,,,,,,,,,,,,,,,,,,,,,,,
298339,2022-12-07_09h15.59.970,vts_reward_expectancy_bt,2022.2.4,Win32,145.6876457,Chrome,1536,864,,,a,0.5514,10,678,2,2,5,29,11,1,0,0,0,1,0,0,1,0,star,hexagon,,,,,,,,,,,,,,,,,,,,,,,,,,,,,,,,,,,,,,,,,,,,,,,,,,,,,,
298339,2022-12-07_09h15.59.970,vts_reward_expectancy_bt,2022.2.4,Win32,145.6876457,Chrome,1536,864,,,l,0.5403,10,688,2,2,6,30,5,1,0,1,0,0,0,0,0,1,circle,star,,,,,,,,,,,,,,,,,,,,,,,,,,,,,,,,,,,,,,,,,,,,,,,,,,,,,,
298339,2022-12-07_09h15.59.970,vts_reward_expectancy_bt,2022.2.4,Win32,145.6876457,Chrome,1536,864,,,a,0.5954,10,698,2,2,7,31,10,1,0,0,0,1,0,1,0,0,star ,circle,,,,,,,,,,,,,,,,,,,,,,,,,,,,,,,,,,,,,,,,,,,,,,,,,,,,,,
298339,2022-12-07_09h15.59.970,vts_reward_expectancy_bt,2022.2.4,Win32,145.6876457,Chrome,1536,864,,,a,0.5671,10,708,2,2,8,32,9,1,0,0,0,1,1,0,0,0,star,triangle,,,,,,,,,,,,,,,,,,,,,,,,,,,,,,,,,,,,,,,,,,,,,,,,,,,,,,
298339,2022-12-07_09h15.59.970,vts_reward_expectancy_bt,2022.2.4,Win32,145.6876457,Chrome,1536,864,,,a,1.464,1,709,2,2,9,33,1,1,1,0,0,0,0,0,1,0,triangle,hexagon,,,,,,,,,,,,,,,,,,,,,,,,,,,,,,,,,,,,,,,,,,,,,,,,,,,,,,
298339,2022-12-07_09h15.59.970,vts_reward_expectancy_bt,2022.2.4,Win32,145.6876457,Chrome,1536,864,,,l,15.5238,10,719,2,2,10,34,3,1,0,1,0,0,1,0,0,0,circle,triangle,,,,,,,,,,,,,,,,,,,,,,,,,,,,,,,,,,,,,,,,,,,,,,,,,,,,,,
298339,2022-12-07_09h15.59.970,vts_reward_expectancy_bt,2022.2.4,Win32,145.6876457,Chrome,1536,864,,,l,18.9415,1,720,2,2,11,35,7,1,0,0,1,0,0,1,0,0,hexagon,circle,,,,,,,,,,,,,,,,,,,,,,,,,,,,,,,,,,,,,,,,,,,,,,,,,,,,,,
298339,2022-12-07_09h15.59.970,vts_reward_expectancy_bt,2022.2.4,Win32,145.6876457,Chrome,1536,864,,,,,,,,,,,,,,,,,,,,,,,132,D,circle,0,0,,0,0,0,0,0,1,,,,,,,,,,,,,,,,,,,,,,,,,,,,,,,,,,,,,,,,,,
298339,2022-12-07_09h15.59.970,vts_reward_expectancy_bt,2022.2.4,Win32,145.6876457,Chrome,1536,864,,,,,,,,,,,,,,,,,,,,,,,181,B,star,1,1,f,0,1,0,1,0,1,2.2084,,,,,,,,,,,,,,,,,,,,,,,,,,,,,,,,,,,,,,,,,
298339,2022-12-07_09h15.59.970,vts_reward_expectancy_bt,2022.2.4,Win32,145.6876457,Chrome,1536,864,,,,,,,,,,,,,,,,,,,,,,,146,W,triangle,0,0,,0,2,0,2,0,1,,,,,,,,,,,,,,,,,,,,,,,,,,,,,,,,,,,,,,,,,,
298339,2022-12-07_09h15.59.970,vts_reward_expectancy_bt,2022.2.4,Win32,145.6876457,Chrome,1536,864,,,,,,,,,,,,,,,,,,,,,,,174,Y,hexagon,1,1,f,0,3,0,3,0,1,0.6943,,,,,,,,,,,,,,,,,,,,,,,,,,,,,,,,,,,,,,,,,
298339,2022-12-07_09h15.59.970,vts_reward_expectancy_bt,2022.2.4,Win32,145.6876457,Chrome,1536,864,,,,,,,,,,,,,,,,,,,,,,,125,S,circle,1,0,d,0,4,0,4,0,1,0.8801,,,,,,,,,,,,,,,,,,,,,,,,,,,,,,,,,,,,,,,,,
298339,2022-12-07_09h15.59.970,vts_reward_expectancy_bt,2022.2.4,Win32,145.6876457,Chrome,1536,864,,,,,,,,,,,,,,,,,,,,,,,167,H,star,1,0,f,0,5,0,5,0,1,0.7595,,,,,,,,,,,,,,,,,,,,,,,,,,,,,,,,,,,,,,,,,
298339,2022-12-07_09h15.59.970,vts_reward_expectancy_bt,2022.2.4,Win32,145.6876457,Chrome,1536,864,,,,,,,,,,,,,,,,,,,,,,,139,U,triangle,1,0,d,0,6,0,6,0,1,0.7928,,,,,,,,,,,,,,,,,,,,,,,,,,,,,,,,,,,,,,,,,
298339,2022-12-07_09h15.59.970,vts_reward_expectancy_bt,2022.2.4,Win32,145.6876457,Chrome,1536,864,,,,,,,,,,,,,,,,,,,,,,,160,F,hexagon,1,0,f,0,7,0,7,0,1,0.8194,,,,,,,,,,,,,,,,,,,,,,,,,,,,,,,,,,,,,,,,,
298339,2022-12-07_09h15.59.970,vts_reward_expectancy_bt,2022.2.4,Win32,145.6876457,Chrome,1536,864,,,,,,,,,,,,,,,,,,,,,,,132,D,circle,1,0,d,0,8,0,8,0,1,1.1502,,,,,,,,,,,,,,,,,,,,,,,,,,,,,,,,,,,,,,,,,
298339,2022-12-07_09h15.59.970,vts_reward_expectancy_bt,2022.2.4,Win32,145.6876457,Chrome,1536,864,,,,,,,,,,,,,,,,,,,,,,,181,B,hexagon,1,0,f,0,9,0,9,0,1,0.4805,,,,,,,,,,,,,,,,,,,,,,,,,,,,,,,,,,,,,,,,,
298339,2022-12-07_09h15.59.970,vts_reward_expectancy_bt,2022.2.4,Win32,145.6876457,Chrome,1536,864,,,,,,,,,,,,,,,,,,,,,,,160,B,hexagon,1,0,f,1,0,0,0,0,1,1.0877,,,,,,,,,,,,,,,,,,,,,,,,,,,,,,,,,,,,,,,,,
298339,2022-12-07_09h15.59.970,vts_reward_expectancy_bt,2022.2.4,Win32,145.6876457,Chrome,1536,864,,,,,,,,,,,,,,,,,,,,,,,146,F,circle,1,0,d,1,1,0,1,0,1,1.1437,,,,,,,,,,,,,,,,,,,,,,,,,,,,,,,,,,,,,,,,,
298339,2022-12-07_09h15.59.970,vts_reward_expectancy_bt,2022.2.4,Win32,145.6876457,Chrome,1536,864,,,,,,,,,,,,,,,,,,,,,,,174,D,triangle,1,0,f,1,2,0,2,0,1,0.7586,,,,,,,,,,,,,,,,,,,,,,,,,,,,,,,,,,,,,,,,,
298339,2022-12-07_09h15.59.970,vts_reward_expectancy_bt,2022.2.4,Win32,145.6876457,Chrome,1536,864,,,,,,,,,,,,,,,,,,,,,,,167,W,star,1,0,f,1,3,0,3,0,1,0.5763,,,,,,,,,,,,,,,,,,,,,,,,,,,,,,,,,,,,,,,,,
298339,2022-12-07_09h15.59.970,vts_reward_expectancy_bt,2022.2.4,Win32,145.6876457,Chrome,1536,864,,,,,,,,,,,,,,,,,,,,,,,181,U,hexagon,1,0,f,1,4,0,4,0,1,0.4618,,,,,,,,,,,,,,,,,,,,,,,,,,,,,,,,,,,,,,,,,
298339,2022-12-07_09h15.59.970,vts_reward_expectancy_bt,2022.2.4,Win32,145.6876457,Chrome,1536,864,,,,,,,,,,,,,,,,,,,,,,,132,H,circle,1,0,d,1,5,0,5,0,1,0.4846,,,,,,,,,,,,,,,,,,,,,,,,,,,,,,,,,,,,,,,,,
298339,2022-12-07_09h15.59.970,vts_reward_expectancy_bt,2022.2.4,Win32,145.6876457,Chrome,1536,864,,,,,,,,,,,,,,,,,,,,,,,125,Y,triangle,1,0,d,1,6,0,6,0,1,0.5222,,,,,,,,,,,,,,,,,,,,,,,,,,,,,,,,,,,,,,,,,
298339,2022-12-07_09h15.59.970,vts_reward_expectancy_bt,2022.2.4,Win32,145.6876457,Chrome,1536,864,,,,,,,,,,,,,,,,,,,,,,,139,S,star,1,0,d,1,7,0,7,0,1,0.6356,,,,,,,,,,,,,,,,,,,,,,,,,,,,,,,,,,,,,,,,,
298339,2022-12-07_09h15.59.970,vts_reward_expectancy_bt,2022.2.4,Win32,145.6876457,Chrome,1536,864,,,,,,,,,,,,,,,,,,,,,,,160,B,star,1,0,f,1,8,0,8,0,1,0.6645,,,,,,,,,,,,,,,,,,,,,,,,,,,,,,,,,,,,,,,,,
298339,2022-12-07_09h15.59.970,vts_reward_expectancy_bt,2022.2.4,Win32,145.6876457,Chrome,1536,864,,,,,,,,,,,,,,,,,,,,,,,146,F,triangle,1,0,d,1,9,0,9,0,1,0.8073,,,,,,,,,,,,,,,,,,,,,,,,,,,,,,,,,,,,,,,,,
298339,2022-12-07_09h15.59.970,vts_reward_expectancy_bt,2022.2.4,Win32,145.6876457,Chrome,1536,864,,,,,,,,,,,,,,,,,,,,,,,160,Y,circle,1,0,,2,,,,,,,k,2.2422,0,0,0,0,1,,,,,,,,,,,,,,,,,,,,,,,,,,,,,,,,,,
298339,2022-12-07_09h15.59.970,vts_reward_expectancy_bt,2022.2.4,Win32,145.6876457,Chrome,1536,864,,,,,,,,,,,,,,,,,,,,,,,125,F,triangle,1,0,,2,,,,,,,j,2.0189,1,0,1,0,1,,,,,,,,,,,,,,,,,,,,,,,,,,,,,,,,,,
298339,2022-12-07_09h15.59.970,vts_reward_expectancy_bt,2022.2.4,Win32,145.6876457,Chrome,1536,864,,,,,,,,,,,,,,,,,,,,,,,174,U,hexagon,1,0,,2,,,,,,,k,0.7423,2,0,2,0,1,,,,,,,,,,,,,,,,,,,,,,,,,,,,,,,,,,
298339,2022-12-07_09h15.59.970,vts_reward_expectancy_bt,2022.2.4,Win32,145.6876457,Chrome,1536,864,,,,,,,,,,,,,,,,,,,,,,,146,H,star,0,0,,2,,,,,,,k,1.6445,3,0,3,0,1,,,,,,,,,,,,,,,,,,,,,,,,,,,,,,,,,,
298339,2022-12-07_09h15.59.970,vts_reward_expectancy_bt,2022.2.4,Win32,145.6876457,Chrome,1536,864,,,,,,,,,,,,,,,,,,,,,,,139,B,circle,1,1,,2,,,,,,,j,0.7761,4,0,4,0,1,,,,,,,,,,,,,,,,,,,,,,,,,,,,,,,,,,
298339,2022-12-07_09h15.59.970,vts_reward_expectancy_bt,2022.2.4,Win32,145.6876457,Chrome,1536,864,,,,,,,,,,,,,,,,,,,,,,,132,D,triangle,1,0,,2,,,,,,,j,1.4205,5,0,5,0,1,,,,,,,,,,,,,,,,,,,,,,,,,,,,,,,,,,
298339,2022-12-07_09h15.59.970,vts_reward_expectancy_bt,2022.2.4,Win32,145.6876457,Chrome,1536,864,,,,,,,,,,,,,,,,,,,,,,,167,W,hexagon,1,0,,2,,,,,,,k,0.7109,6,0,6,0,1,,,,,,,,,,,,,,,,,,,,,,,,,,,,,,,,,,
298339,2022-12-07_09h15.59.970,vts_reward_expectancy_bt,2022.2.4,Win32,145.6876457,Chrome,1536,864,,,,,,,,,,,,,,,,,,,,,,,181,S,star,1,0,,2,,,,,,,k,1.7111,7,0,7,0,1,,,,,,,,,,,,,,,,,,,,,,,,,,,,,,,,,,
298339,2022-12-07_09h15.59.970,vts_reward_expectancy_bt,2022.2.4,Win32,145.6876457,Chrome,1536,864,,,,,,,,,,,,,,,,,,,,,,,160,Y,triangle,1,0,,2,,,,,,,k,0.8346,8,0,8,0,1,,,,,,,,,,,,,,,,,,,,,,,,,,,,,,,,,,
298339,2022-12-07_09h15.59.970,vts_reward_expectancy_bt,2022.2.4,Win32,145.6876457,Chrome,1536,864,,,,,,,,,,,,,,,,,,,,,,,125,F,hexagon,1,0,,2,,,,,,,j,2.0921,9,0,9,0,1,,,,,,,,,,,,,,,,,,,,,,,,,,,,,,,,,,
298339,2022-12-07_09h15.59.970,vts_reward_expectancy_bt,2022.2.4,Win32,145.6876457,Chrome,1536,864,,,,,0,720,,,,,,,,,,,,,,,,,139,F,hexagon,1,0,,3,,,,,,,,,,,,,,-1,number,NA,d,2.1217,vtsPrac,0,0,0,0,1,,,,,,,,,,,,,,,,,,,,,,,
298339,2022-12-07_09h15.59.970,vts_reward_expectancy_bt,2022.2.4,Win32,145.6876457,Chrome,1536,864,,,,,0,720,,,,,,,,,,,,,,,,,181,Y,star,1,0,,3,,,,,,,,,,,,,,repeat,number,numRpt,f,0.9014,vtsPrac,1,0,1,0,1,,,,,,,,,,,,,,,,,,,,,,,
298339,2022-12-07_09h15.59.970,vts_reward_expectancy_bt,2022.2.4,Win32,145.6876457,Chrome,1536,864,,,,,0,720,,,,,,,,,,,,,,,,,167,D,hexagon,1,0,,3,,,,,,,,,,,,,,repeat,number,numRpt,f,0.5531,vtsPrac,2,0,2,0,1,,,,,,,,,,,,,,,,,,,,,,,
298339,2022-12-07_09h15.59.970,vts_reward_expectancy_bt,2022.2.4,Win32,145.6876457,Chrome,1536,864,,,,,0,720,,,,,,,,,,,,,,,,,174,H,star,1,0,,3,,,,,,,,,,,,,,repeat,number,numRpt,f,0.7245,vtsPrac,3,0,3,0,1,,,,,,,,,,,,,,,,,,,,,,,
298339,2022-12-07_09h15.59.970,vts_reward_expectancy_bt,2022.2.4,Win32,145.6876457,Chrome,1536,864,,,,,0,720,,,,,,,,,,,,,,,,,139,F,hexagon,1,0,,3,,,,,,,,,,,,,,repeat,number,numRpt,d,0.9324,vtsPrac,4,0,4,0,1,,,,,,,,,,,,,,,,,,,,,,,
298339,2022-12-07_09h15.59.970,vts_reward_expectancy_bt,2022.2.4,Win32,145.6876457,Chrome,1536,864,,,,,0,720,,,,,,,,,,,,,,,,,181,Y,triangle,1,0,,3,,,,,,,,,,,,,,switch,letter,lettSwt,k,0.6301,vtsPrac,5,0,5,0,1,,,,,,,,,,,,,,,,,,,,,,,
298339,2022-12-07_09h15.59.970,vts_reward_expectancy_bt,2022.2.4,Win32,145.6876457,Chrome,1536,864,,,,,0,720,,,,,,,,,,,,,,,,,167,D,triangle,1,0,,3,,,,,,,,,,,,,,repeat,letter,lettRpt,j,1.226,vtsPrac,6,0,6,0,1,,,,,,,,,,,,,,,,,,,,,,,
298339,2022-12-07_09h15.59.970,vts_reward_expectancy_bt,2022.2.4,Win32,145.6876457,Chrome,1536,864,,,,,0,720,,,,,,,,,,,,,,,,,174,H,star,1,0,,3,,,,,,,,,,,,,,repeat,letter,lettRpt,j,1.7411,vtsPrac,7,0,7,0,1,,,,,,,,,,,,,,,,,,,,,,,
298339,2022-12-07_09h15.59.970,vts_reward_expectancy_bt,2022.2.4,Win32,145.6876457,Chrome,1536,864,,,,,0,720,,,,,,,,,,,,,,,,,146,Y,hexagon,1,0,,3,,,,,,,,,,,,,,repeat,letter,lettRpt,k,0.8474,vtsPrac,8,0,8,0,1,,,,,,,,,,,,,,,,,,,,,,,
298339,2022-12-07_09h15.59.970,vts_reward_expectancy_bt,2022.2.4,Win32,145.6876457,Chrome,1536,864,,,,,0,720,,,,,,,,,,,,,,,,,181,D,star,1,0,,3,,,,,,,,,,,,,,repeat,letter,lettRpt,j,0.6957,vtsPrac,9,0,9,0,1,,,,,,,,,,,,,,,,,,,,,,,
298339,2022-12-07_09h15.59.970,vts_reward_expectancy_bt,2022.2.4,Win32,145.6876457,Chrome,1536,864,,,,,0,720,,,,,,,,,,,,,,,,,160,F,circle,1,0,,3,,,,,,,,,,,,,,switch,number,numSwt,f,0.6467,vtsPrac,10,0,10,0,1,,,,,,,,,,,,,,,,,,,,,,,
298339,2022-12-07_09h15.59.970,vts_reward_expectancy_bt,2022.2.4,Win32,145.6876457,Chrome,1536,864,,,,,0,720,,,,,,,,,,,,,,,,,139,B,star,1,0,,3,,,,,,,,,,,,,,repeat,number,numRpt,d,0.6495,vtsPrac,11,0,11,0,1,,,,,,,,,,,,,,,,,,,,,,,
298339,2022-12-07_09h15.59.970,vts_reward_expectancy_bt,2022.2.4,Win32,145.6876457,Chrome,1536,864,,,,,0,720,,,,,,,,,,,,,,,,,139,B,circle,1,0,,3,,,,,,,,,,,,,,repeat,number,numRpt,d,0.7614,vtsPrac,12,0,12,0,1,,,,,,,,,,,,,,,,,,,,,,,
298339,2022-12-07_09h15.59.970,vts_reward_expectancy_bt,2022.2.4,Win32,145.6876457,Chrome,1536,864,,,,,0,720,,,,,,,,,,,,,,,,,174,H,hexagon,1,0,,3,,,,,,,,,,,,,,repeat,number,numRpt,f,0.6206,vtsPrac,13,0,13,0,1,,,,,,,,,,,,,,,,,,,,,,,
298339,2022-12-07_09h15.59.970,vts_reward_expectancy_bt,2022.2.4,Win32,145.6876457,Chrome,1536,864,,,,,0,720,,,,,,,,,,,,,,,,,125,S,hexagon,1,0,,3,,,,,,,,,,,,,,repeat,number,numRpt,d,0.6386,vtsPrac,14,0,14,0,1,,,,,,,,,,,,,,,,,,,,,,,
298339,2022-12-07_09h15.59.970,vts_reward_expectancy_bt,2022.2.4,Win32,145.6876457,Chrome,1536,864,,,,,0,720,,,,,,,,,,,,,,,,,146,W,star,1,0,,3,,,,,,,,,,,,,,repeat,number,numRpt,d,0.8113,vtsPrac,15,0,15,0,1,,,,,,,,,,,,,,,,,,,,,,,
298339,2022-12-07_09h15.59.970,vts_reward_expectancy_bt,2022.2.4,Win32,145.6876457,Chrome,1536,864,,,,,0,720,,,,,,,,,,,,,,,,,160,D,triangle,1,0,,3,,,,,,,,,,,,,,repeat,number,numRpt,f,0.6548,vtsPrac,16,0,16,0,1,,,,,,,,,,,,,,,,,,,,,,,
298339,2022-12-07_09h15.59.970,vts_reward_expectancy_bt,2022.2.4,Win32,145.6876457,Chrome,1536,864,,,,,0,720,,,,,,,,,,,,,,,,,181,Y,circle,1,0,,3,,,,,,,,,,,,,,switch,letter,lettSwt,k,0.603,vtsPrac,17,0,17,0,1,,,,,,,,,,,,,,,,,,,,,,,
298339,2022-12-07_09h15.59.970,vts_reward_expectancy_bt,2022.2.4,Win32,145.6876457,Chrome,1536,864,,,,,0,720,,,,,,,,,,,,,,,,,125,H,circle,1,0,,3,,,,,,,,,,,,,,repeat,letter,lettRpt,j,0.8622,vtsPrac,18,0,18,0,1,,,,,,,,,,,,,,,,,,,,,,,
298339,2022-12-07_09h15.59.970,vts_reward_expectancy_bt,2022.2.4,Win32,145.6876457,Chrome,1536,864,,,,,0,720,,,,,,,,,,,,,,,,,146,U,hexagon,1,0,,3,,,,,,,,,,,,,,repeat,letter,lettRpt,k,0.6373,vtsPrac,19,0,19,0,1,,,,,,,,,,,,,,,,,,,,,,,
298339,2022-12-07_09h15.59.970,vts_reward_expectancy_bt,2022.2.4,Win32,145.6876457,Chrome,1536,864,,,,,0,720,,,,,,,,,,,,,,,,,146,W,triangle,1,0,,3,,,,,,,,,,,,,,repeat,letter,lettRpt,k,0.7032,vtsPrac,20,0,20,0,1,,,,,,,,,,,,,,,,,,,,,,,
298339,2022-12-07_09h15.59.970,vts_reward_expectancy_bt,2022.2.4,Win32,145.6876457,Chrome,1536,864,,,,,0,720,,,,,,,,,,,,,,,,,132,F,star,1,0,,3,,,,,,,,,,,,,,repeat,letter,lettRpt,j,1.339,vtsPrac,21,0,21,0,1,,,,,,,,,,,,,,,,,,,,,,,
298339,2022-12-07_09h15.59.970,vts_reward_expectancy_bt,2022.2.4,Win32,145.6876457,Chrome,1536,864,,,,,0,720,,,,,,,,,,,,,,,,,160,U,circle,1,0,,3,,,,,,,,,,,,,,repeat,letter,lettRpt,k,0.6243,vtsPrac,22,0,22,0,1,,,,,,,,,,,,,,,,,,,,,,,
298339,2022-12-07_09h15.59.970,vts_reward_expectancy_bt,2022.2.4,Win32,145.6876457,Chrome,1536,864,,,,,0,720,,,,,,,,,,,,,,,,,181,D,hexagon,1,0,,3,,,,,,,,,,,,,,repeat,letter,lettRpt,j,0.9161,vtsPrac,23,0,23,0,1,,,,,,,,,,,,,,,,,,,,,,,
298339,2022-12-07_09h15.59.970,vts_reward_expectancy_bt,2022.2.4,Win32,145.6876457,Chrome,1536,864,,,,,0,720,,,,,,,,,,,,,,,,,181,Y,hexagon,1,0,,3,,,,,,,,,,,,,,repeat,letter,lettRpt,k,0.6347,vtsPrac,24,0,24,0,1,,,,,,,,,,,,,,,,,,,,,,,
298339,2022-12-07_09h15.59.970,vts_reward_expectancy_bt,2022.2.4,Win32,145.6876457,Chrome,1536,864,,,,,0,720,,,,,,,,,,,,,,,,,125,D,star,1,0,,3,,,,,,,,,,,,,,repeat,letter,lettRpt,j,0.8481,vtsPrac,25,0,25,0,1,,,,,,,,,,,,,,,,,,,,,,,
298339,2022-12-07_09h15.59.970,vts_reward_expectancy_bt,2022.2.4,Win32,145.6876457,Chrome,1536,864,,,,,0,720,,,,,,,,,,,,,,,,,167,B,triangle,1,0,,3,,,,,,,,,,,,,,repeat,letter,lettRpt,j,0.8053,vtsPrac,26,0,26,0,1,,,,,,,,,,,,,,,,,,,,,,,
298339,2022-12-07_09h15.59.970,vts_reward_expectancy_bt,2022.2.4,Win32,145.6876457,Chrome,1536,864,,,,,0,720,,,,,,,,,,,,,,,,,146,U,hexagon,1,0,,3,,,,,,,,,,,,,,repeat,letter,lettRpt,k,0.6559,vtsPrac,27,0,27,0,1,,,,,,,,,,,,,,,,,,,,,,,
298339,2022-12-07_09h15.59.970,vts_reward_expectancy_bt,2022.2.4,Win32,145.6876457,Chrome,1536,864,,,,,0,720,,,,,,,,,,,,,,,,,167,D,hexagon,1,0,,3,,,,,,,,,,,,,,repeat,letter,lettRpt,j,1.0821,vtsPrac,28,0,28,0,1,,,,,,,,,,,,,,,,,,,,,,,
298339,2022-12-07_09h15.59.970,vts_reward_expectancy_bt,2022.2.4,Win32,145.6876457,Chrome,1536,864,,,,,0,720,,,,,,,,,,,,,,,,,174,S,star,1,0,,3,,,,,,,,,,,,,,switch,number,numSwt,f,2.489,vtsPrac,29,0,29,0,1,,,,,,,,,,,,,,,,,,,,,,,
298339,2022-12-07_09h15.59.970,vts_reward_expectancy_bt,2022.2.4,Win32,145.6876457,Chrome,1536,864,,,,,0,720,,,,,,,,,,,,,,,,,139,F,triangle,1,0,,3,,,,,,,,,,,,,,repeat,number,numRpt,d,1.8592,vtsPrac,30,0,30,0,1,,,,,,,,,,,,,,,,,,,,,,,
298339,2022-12-07_09h15.59.970,vts_reward_expectancy_bt,2022.2.4,Win32,145.6876457,Chrome,1536,864,,,,,0,720,,,,,,,,,,,,,,,,,160,H,hexagon,1,0,,3,,,,,,,,,,,,,,repeat,number,numRpt,f,0.6921,vtsPrac,31,0,31,0,1,,,,,,,,,,,,,,,,,,,,,,,
298339,2022-12-07_09h15.59.970,vts_reward_expectancy_bt,2022.2.4,Win32,145.6876457,Chrome,1536,864,,,,,0,720,,,,,,,,,,,,,,,,,132,H,triangle,1,0,,4,,,,,,,,,,,,,,repeat,number,numRpt,d,1.0017,vtsPrac,0,0,0,0,1,,,,,,,,,,,,,,,,,,,,,,,
298339,2022-12-07_09h15.59.970,vts_reward_expectancy_bt,2022.2.4,Win32,145.6876457,Chrome,1536,864,,,,,0,720,,,,,,,,,,,,,,,,,146,D,circle,1,0,,4,,,,,,,,,,,,,,repeat,number,numRpt,d,1.5015,vtsPrac,1,0,1,0,1,,,,,,,,,,,,,,,,,,,,,,,
298339,2022-12-07_09h15.59.970,vts_reward_expectancy_bt,2022.2.4,Win32,145.6876457,Chrome,1536,864,,,,,0,720,,,,,,,,,,,,,,,,,125,W,triangle,1,0,,4,,,,,,,,,,,,,,repeat,number,numRpt,d,1.531,vtsPrac,2,0,2,0,1,,,,,,,,,,,,,,,,,,,,,,,
298339,2022-12-07_09h15.59.970,vts_reward_expectancy_bt,2022.2.4,Win32,145.6876457,Chrome,1536,864,,,,,0,720,,,,,,,,,,,,,,,,,181,B,circle,1,0,,4,,,,,,,,,,,,,,repeat,number,numRpt,f,0.7236,vtsPrac,3,0,3,0,1,,,,,,,,,,,,,,,,,,,,,,,
298339,2022-12-07_09h15.59.970,vts_reward_expectancy_bt,2022.2.4,Win32,145.6876457,Chrome,1536,864,,,,,0,720,,,,,,,,,,,,,,,,,132,H,triangle,1,0,,4,,,,,,,,,,,,,,repeat,number,numRpt,d,0.8403,vtsPrac,4,0,4,0,1,,,,,,,,,,,,,,,,,,,,,,,
298339,2022-12-07_09h15.59.970,vts_reward_expectancy_bt,2022.2.4,Win32,145.6876457,Chrome,1536,864,,,,,0,720,,,,,,,,,,,,,,,,,146,D,hexagon,1,0,,4,,,,,,,,,,,,,,repeat,number,numRpt,d,1.9126,vtsPrac,5,0,5,0,1,,,,,,,,,,,,,,,,,,,,,,,
298339,2022-12-07_09h15.59.970,vts_reward_expectancy_bt,2022.2.4,Win32,145.6876457,Chrome,1536,864,,,,,0,720,,,,,,,,,,,,,,,,,125,W,circle,1,0,,4,,,,,,,,,,,,,,repeat,number,numRpt,d,1.7116,vtsPrac,6,0,6,0,1,,,,,,,,,,,,,,,,,,,,,,,
298339,2022-12-07_09h15.59.970,vts_reward_expectancy_bt,2022.2.4,Win32,145.6876457,Chrome,1536,864,,,,,0,720,,,,,,,,,,,,,,,,,181,B,star,1,0,,4,,,,,,,,,,,,,,repeat,number,numRpt,f,0.6343,vtsPrac,7,0,7,0,1,,,,,,,,,,,,,,,,,,,,,,,
298339,2022-12-07_09h15.59.970,vts_reward_expectancy_bt,2022.2.4,Win32,145.6876457,Chrome,1536,864,,,,,0,720,,,,,,,,,,,,,,,,,181,F,circle,1,0,,4,,,,,,,,,,,,,,repeat,number,numRpt,f,1.7832,vtsPrac,8,0,8,0,1,,,,,,,,,,,,,,,,,,,,,,,
298339,2022-12-07_09h15.59.970,vts_reward_expectancy_bt,2022.2.4,Win32,145.6876457,Chrome,1536,864,,,,,0,720,,,,,,,,,,,,,,,,,132,D,triangle,1,0,,4,,,,,,,,,,,,,,repeat,number,numRpt,d,1.6363,vtsPrac,9,0,9,0,1,,,,,,,,,,,,,,,,,,,,,,,
298339,2022-12-07_09h15.59.970,vts_reward_expectancy_bt,2022.2.4,Win32,145.6876457,Chrome,1536,864,,,,,0,720,,,,,,,,,,,,,,,,,174,H,hexagon,1,0,,4,,,,,,,,,,,,,,repeat,number,numRpt,f,1.1874,vtsPrac,10,0,10,0,1,,,,,,,,,,,,,,,,,,,,,,,
298339,2022-12-07_09h15.59.970,vts_reward_expectancy_bt,2022.2.4,Win32,145.6876457,Chrome,1536,864,,,,,0,720,,,,,,,,,,,,,,,,,146,S,triangle,1,0,,4,,,,,,,,,,,,,,repeat,number,numRpt,d,1.2423,vtsPrac,11,0,11,0,1,,,,,,,,,,,,,,,,,,,,,,,
298339,2022-12-07_09h15.59.970,vts_reward_expectancy_bt,2022.2.4,Win32,145.6876457,Chrome,1536,864,,,,,0,720,,,,,,,,,,,,,,,,,167,S,star,1,0,,4,,,,,,,,,,,,,,repeat,number,numRpt,f,0.6848,vtsPrac,12,0,12,0,1,,,,,,,,,,,,,,,,,,,,,,,
298339,2022-12-07_09h15.59.970,vts_reward_expectancy_bt,2022.2.4,Win32,145.6876457,Chrome,1536,864,,,,,0,720,,,,,,,,,,,,,,,,,181,D,triangle,1,0,,4,,,,,,,,,,,,,,repeat,number,numRpt,f,0.597,vtsPrac,13,0,13,0,1,,,,,,,,,,,,,,,,,,,,,,,
298339,2022-12-07_09h15.59.970,vts_reward_expectancy_bt,2022.2.4,Win32,145.6876457,Chrome,1536,864,,,,,0,720,,,,,,,,,,,,,,,,,132,H,circle,1,0,,4,,,,,,,,,,,,,,repeat,number,numRpt,d,0.8103,vtsPrac,14,0,14,0,1,,,,,,,,,,,,,,,,,,,,,,,
298339,2022-12-07_09h15.59.970,vts_reward_expectancy_bt,2022.2.4,Win32,145.6876457,Chrome,1536,864,,,,,0,720,,,,,,,,,,,,,,,,,146,U,hexagon,1,0,,4,,,,,,,,,,,,,,repeat,number,numRpt,d,1.0294,vtsPrac,15,0,15,0,1,,,,,,,,,,,,,,,,,,,,,,,
298339,2022-12-07_09h15.59.970,vts_reward_expectancy_bt,2022.2.4,Win32,145.6876457,Chrome,1536,864,,,,,0,720,,,,,,,,,,,,,,,,,181,F,star,1,0,,4,,,,,,,,,,,,,,repeat,number,numRpt,f,0.5473,vtsPrac,16,0,16,0,1,,,,,,,,,,,,,,,,,,,,,,,
298339,2022-12-07_09h15.59.970,vts_reward_expectancy_bt,2022.2.4,Win32,145.6876457,Chrome,1536,864,,,,,0,720,,,,,,,,,,,,,,,,,174,Y,triangle,1,0,,4,,,,,,,,,,,,,,repeat,number,numRpt,f,0.7367,vtsPrac,17,0,17,0,1,,,,,,,,,,,,,,,,,,,,,,,
298339,2022-12-07_09h15.59.970,vts_reward_expectancy_bt,2022.2.4,Win32,145.6876457,Chrome,1536,864,,,,,0,720,,,,,,,,,,,,,,,,,160,B,hexagon,1,0,,4,,,,,,,,,,,,,,repeat,number,numRpt,f,0.7953,vtsPrac,18,0,18,0,1,,,,,,,,,,,,,,,,,,,,,,,
298339,2022-12-07_09h15.59.970,vts_reward_expectancy_bt,2022.2.4,Win32,145.6876457,Chrome,1536,864,,,,,0,720,,,,,,,,,,,,,,,,,146,D,triangle,1,0,,4,,,,,,,,,,,,,,repeat,number,numRpt,d,0.6662,vtsPrac,19,0,19,0,1,,,,,,,,,,,,,,,,,,,,,,,
298339,2022-12-07_09h15.59.970,vts_reward_expectancy_bt,2022.2.4,Win32,145.6876457,Chrome,1536,864,,,,,0,720,,,,,,,,,,,,,,,,,160,H,circle,1,0,,4,,,,,,,,,,,,,,repeat,number,numRpt,f,0.621,vtsPrac,20,0,20,0,1,,,,,,,,,,,,,,,,,,,,,,,
298339,2022-12-07_09h15.59.970,vts_reward_expectancy_bt,2022.2.4,Win32,145.6876457,Chrome,1536,864,,,,,0,720,,,,,,,,,,,,,,,,,181,U,triangle,1,0,,4,,,,,,,,,,,,,,repeat,number,numRpt,f,0.5843,vtsPrac,21,0,21,0,1,,,,,,,,,,,,,,,,,,,,,,,
298339,2022-12-07_09h15.59.970,vts_reward_expectancy_bt,2022.2.4,Win32,145.6876457,Chrome,1536,864,,,,,0,720,,,,,,,,,,,,,,,,,167,F,star,1,0,,4,,,,,,,,,,,,,,repeat,number,numRpt,f,0.825,vtsPrac,22,0,22,0,1,,,,,,,,,,,,,,,,,,,,,,,
298339,2022-12-07_09h15.59.970,vts_reward_expectancy_bt,2022.2.4,Win32,145.6876457,Chrome,1536,864,,,,,0,720,,,,,,,,,,,,,,,,,146,W,hexagon,1,0,,4,,,,,,,,,,,,,,repeat,number,numRpt,d,0.8768,vtsPrac,23,0,23,0,1,,,,,,,,,,,,,,,,,,,,,,,
298339,2022-12-07_09h15.59.970,vts_reward_expectancy_bt,2022.2.4,Win32,145.6876457,Chrome,1536,864,,,,,0,720,,,,,,,,,,,,,,,,,167,F,circle,1,0,,4,,,,,,,,,,,,,,repeat,number,numRpt,f,0.7148,vtsPrac,24,0,24,0,1,,,,,,,,,,,,,,,,,,,,,,,
298339,2022-12-07_09h15.59.970,vts_reward_expectancy_bt,2022.2.4,Win32,145.6876457,Chrome,1536,864,,,,,0,720,,,,,,,,,,,,,,,,,181,D,star,1,0,,4,,,,,,,,,,,,,,repeat,number,numRpt,f,0.6579,vtsPrac,25,0,25,0,1,,,,,,,,,,,,,,,,,,,,,,,
298339,2022-12-07_09h15.59.970,vts_reward_expectancy_bt,2022.2.4,Win32,145.6876457,Chrome,1536,864,,,,,0,720,,,,,,,,,,,,,,,,,146,S,triangle,1,0,,4,,,,,,,,,,,,,,repeat,number,numRpt,d,0.7815,vtsPrac,26,0,26,0,1,,,,,,,,,,,,,,,,,,,,,,,
298339,2022-12-07_09h15.59.970,vts_reward_expectancy_bt,2022.2.4,Win32,145.6876457,Chrome,1536,864,,,,,0,720,,,,,,,,,,,,,,,,,125,W,hexagon,1,0,,4,,,,,,,,,,,,,,repeat,number,numRpt,d,0.6654,vtsPrac,27,0,27,0,1,,,,,,,,,,,,,,,,,,,,,,,
298339,2022-12-07_09h15.59.970,vts_reward_expectancy_bt,2022.2.4,Win32,145.6876457,Chrome,1536,864,,,,,0,720,,,,,,,,,,,,,,,,,139,B,triangle,1,0,,4,,,,,,,,,,,,,,repeat,number,numRpt,d,0.8656,vtsPrac,28,0,28,0,1,,,,,,,,,,,,,,,,,,,,,,,
298339,2022-12-07_09h15.59.970,vts_reward_expectancy_bt,2022.2.4,Win32,145.6876457,Chrome,1536,864,,,,,0,720,,,,,,,,,,,,,,,,,160,S,circle,1,0,,4,,,,,,,,,,,,,,repeat,number,numRpt,f,0.6549,vtsPrac,29,0,29,0,1,,,,,,,,,,,,,,,,,,,,,,,
298339,2022-12-07_09h15.59.970,vts_reward_expectancy_bt,2022.2.4,Win32,145.6876457,Chrome,1536,864,,,,,0,720,,,,,,,,,,,,,,,,,125,F,triangle,1,0,,4,,,,,,,,,,,,,,repeat,number,numRpt,d,0.6422,vtsPrac,30,0,30,0,1,,,,,,,,,,,,,,,,,,,,,,,
298339,2022-12-07_09h15.59.970,vts_reward_expectancy_bt,2022.2.4,Win32,145.6876457,Chrome,1536,864,,,,,0,720,,,,,,,,,,,,,,,,,181,D,star,1,0,,4,,,,,,,,,,,,,,repeat,number,numRpt,f,0.7198,vtsPrac,31,0,31,0,1,,,,,,,,,,,,,,,,,,,,,,,
298339,2022-12-07_09h15.59.970,vts_reward_expectancy_bt,2022.2.4,Win32,145.6876457,Chrome,1536,864,,,,,0,720,,,,,,,,,,,,,,,,,132,W,circle,1,0,,5,,,,,,,,,,,,,,switch,letter,lettSwt,k,1.7894,vtsPrac,0,0,0,0,1,,,,,,,,,,,,,,,,,,,,,,,
298339,2022-12-07_09h15.59.970,vts_reward_expectancy_bt,2022.2.4,Win32,145.6876457,Chrome,1536,864,,,,,0,720,,,,,,,,,,,,,,,,,125,H,star,1,0,,5,,,,,,,,,,,,,,switch,number,numSwt,d,0.9438,vtsPrac,1,0,1,0,1,,,,,,,,,,,,,,,,,,,,,,,
298339,2022-12-07_09h15.59.970,vts_reward_expectancy_bt,2022.2.4,Win32,145.6876457,Chrome,1536,864,,,,,0,720,,,,,,,,,,,,,,,,,146,Y,circle,1,0,,5,,,,,,,,,,,,,,repeat,number,numRpt,d,1.0089,vtsPrac,2,0,2,0,1,,,,,,,,,,,,,,,,,,,,,,,
298339,2022-12-07_09h15.59.970,vts_reward_expectancy_bt,2022.2.4,Win32,145.6876457,Chrome,1536,864,,,,,0,720,,,,,,,,,,,,,,,,,167,D,star,1,0,,5,,,,,,,,,,,,,,switch,letter,lettSwt,j,0.7812,vtsPrac,3,0,3,0,1,,,,,,,,,,,,,,,,,,,,,,,
298339,2022-12-07_09h15.59.970,vts_reward_expectancy_bt,2022.2.4,Win32,145.6876457,Chrome,1536,864,,,,,0,720,,,,,,,,,,,,,,,,,132,W,circle,1,0,,5,,,,,,,,,,,,,,switch,number,numSwt,d,0.6162,vtsPrac,4,0,4,0,1,,,,,,,,,,,,,,,,,,,,,,,
298339,2022-12-07_09h15.59.970,vts_reward_expectancy_bt,2022.2.4,Win32,145.6876457,Chrome,1536,864,,,,,0,720,,,,,,,,,,,,,,,,,125,H,triangle,1,0,,5,,,,,,,,,,,,,,repeat,number,numRpt,d,1.1703,vtsPrac,5,0,5,0,1,,,,,,,,,,,,,,,,,,,,,,,
298339,2022-12-07_09h15.59.970,vts_reward_expectancy_bt,2022.2.4,Win32,145.6876457,Chrome,1536,864,,,,,0,720,,,,,,,,,,,,,,,,,146,Y,hexagon,1,0,,5,,,,,,,,,,,,,,switch,letter,lettSwt,k,0.5555,vtsPrac,6,0,6,0,1,,,,,,,,,,,,,,,,,,,,,,,
298339,2022-12-07_09h15.59.970,vts_reward_expectancy_bt,2022.2.4,Win32,145.6876457,Chrome,1536,864,,,,,0,720,,,,,,,,,,,,,,,,,167,D,triangle,1,0,,5,,,,,,,,,,,,,,switch,number,numSwt,f,0.9162,vtsPrac,7,0,7,0,1,,,,,,,,,,,,,,,,,,,,,,,
298339,2022-12-07_09h15.59.970,vts_reward_expectancy_bt,2022.2.4,Win32,145.6876457,Chrome,1536,864,,,,,0,720,,,,,,,,,,,,,,,,,139,U,star,1,0,,5,,,,,,,,,,,,,,switch,letter,lettSwt,k,0.7043,vtsPrac,8,0,8,0,1,,,,,,,,,,,,,,,,,,,,,,,
298339,2022-12-07_09h15.59.970,vts_reward_expectancy_bt,2022.2.4,Win32,145.6876457,Chrome,1536,864,,,,,0,720,,,,,,,,,,,,,,,,,146,Y,triangle,1,0,,5,,,,,,,,,,,,,,switch,number,numSwt,d,0.667,vtsPrac,9,0,9,0,1,,,,,,,,,,,,,,,,,,,,,,,
298339,2022-12-07_09h15.59.970,vts_reward_expectancy_bt,2022.2.4,Win32,145.6876457,Chrome,1536,864,,,,,0,720,,,,,,,,,,,,,,,,,160,D,circle,1,0,,5,,,,,,,,,,,,,,repeat,number,numRpt,f,0.6715,vtsPrac,10,0,10,0,1,,,,,,,,,,,,,,,,,,,,,,,
298339,2022-12-07_09h15.59.970,vts_reward_expectancy_bt,2022.2.4,Win32,145.6876457,Chrome,1536,864,,,,,0,720,,,,,,,,,,,,,,,,,174,W,triangle,1,0,,5,,,,,,,,,,,,,,repeat,number,numRpt,f,0.7729,vtsPrac,11,0,11,0,1,,,,,,,,,,,,,,,,,,,,,,,
298339,2022-12-07_09h15.59.970,vts_reward_expectancy_bt,2022.2.4,Win32,145.6876457,Chrome,1536,864,,,,,0,720,,,,,,,,,,,,,,,,,181,H,triangle,1,0,,5,,,,,,,,,,,,,,repeat,number,numRpt,f,1.0213,vtsPrac,12,0,12,0,1,,,,,,,,,,,,,,,,,,,,,,,
298339,2022-12-07_09h15.59.970,vts_reward_expectancy_bt,2022.2.4,Win32,145.6876457,Chrome,1536,864,,,,,0,720,,,,,,,,,,,,,,,,,146,S,circle,1,0,,5,,,,,,,,,,,,,,repeat,number,numRpt,d,1.6897,vtsPrac,13,0,13,0,1,,,,,,,,,,,,,,,,,,,,,,,
298339,2022-12-07_09h15.59.970,vts_reward_expectancy_bt,2022.2.4,Win32,145.6876457,Chrome,1536,864,,,,,0,720,,,,,,,,,,,,,,,,,160,D,star,1,0,,5,,,,,,,,,,,,,,repeat,number,numRpt,f,1.2341,vtsPrac,14,0,14,0,1,,,,,,,,,,,,,,,,,,,,,,,
298339,2022-12-07_09h15.59.970,vts_reward_expectancy_bt,2022.2.4,Win32,145.6876457,Chrome,1536,864,,,,,0,720,,,,,,,,,,,,,,,,,139,W,triangle,1,0,,5,,,,,,,,,,,,,,switch,letter,lettSwt,k,0.7541,vtsPrac,15,0,15,0,1,,,,,,,,,,,,,,,,,,,,,,,
298339,2022-12-07_09h15.59.970,vts_reward_expectancy_bt,2022.2.4,Win32,145.6876457,Chrome,1536,864,,,,,0,720,,,,,,,,,,,,,,,,,146,Y,circle,1,0,,5,,,,,,,,,,,,,,repeat,letter,lettRpt,k,0.617,vtsPrac,16,0,16,0,1,,,,,,,,,,,,,,,,,,,,,,,
298339,2022-12-07_09h15.59.970,vts_reward_expectancy_bt,2022.2.4,Win32,145.6876457,Chrome,1536,864,,,,,0,720,,,,,,,,,,,,,,,,,181,D,triangle,1,0,,5,,,,,,,,,,,,,,switch,number,numSwt,f,1.2979,vtsPrac,17,0,17,0,1,,,,,,,,,,,,,,,,,,,,,,,
298339,2022-12-07_09h15.59.970,vts_reward_expectancy_bt,2022.2.4,Win32,145.6876457,Chrome,1536,864,,,,,0,720,,,,,,,,,,,,,,,,,167,B,star,1,0,,5,,,,,,,,,,,,,,switch,letter,lettSwt,j,0.6861,vtsPrac,18,0,18,0,1,,,,,,,,,,,,,,,,,,,,,,,
298339,2022-12-07_09h15.59.970,vts_reward_expectancy_bt,2022.2.4,Win32,145.6876457,Chrome,1536,864,,,,,0,720,,,,,,,,,,,,,,,,,160,H,circle,1,0,,5,,,,,,,,,,,,,,switch,number,numSwt,f,1.3719,vtsPrac,19,0,19,0,1,,,,,,,,,,,,,,,,,,,,,,,
298339,2022-12-07_09h15.59.970,vts_reward_expectancy_bt,2022.2.4,Win32,145.6876457,Chrome,1536,864,,,,,0,720,,,,,,,,,,,,,,,,,167,Y,triangle,1,0,,5,,,,,,,,,,,,,,switch,letter,lettSwt,k,0.9626,vtsPrac,20,0,20,0,1,,,,,,,,,,,,,,,,,,,,,,,
298339,2022-12-07_09h15.59.970,vts_reward_expectancy_bt,2022.2.4,Win32,145.6876457,Chrome,1536,864,,,,,0,720,,,,,,,,,,,,,,,,,132,U,hexagon,1,0,,5,,,,,,,,,,,,,,repeat,letter,lettRpt,k,0.6804,vtsPrac,21,0,21,0,1,,,,,,,,,,,,,,,,,,,,,,,
298339,2022-12-07_09h15.59.970,vts_reward_expectancy_bt,2022.2.4,Win32,145.6876457,Chrome,1536,864,,,,,0,720,,,,,,,,,,,,,,,,,174,H,star,1,0,,5,,,,,,,,,,,,,,switch,number,numSwt,f,1.5957,vtsPrac,22,0,22,0,1,,,,,,,,,,,,,,,,,,,,,,,
298339,2022-12-07_09h15.59.970,vts_reward_expectancy_bt,2022.2.4,Win32,145.6876457,Chrome,1536,864,,,,,0,720,,,,,,,,,,,,,,,,,181,S,circle,1,0,,5,,,,,,,,,,,,,,repeat,number,numRpt,f,1.4007,vtsPrac,23,0,23,0,1,,,,,,,,,,,,,,,,,,,,,,,
298339,2022-12-07_09h15.59.970,vts_reward_expectancy_bt,2022.2.4,Win32,145.6876457,Chrome,1536,864,,,,,0,720,,,,,,,,,,,,,,,,,181,B,triangle,0,0,,5,,,,,,,,,,,,,,switch,letter,NA,k,0.9994,vtsPrac,24,0,24,0,1,,,,,,,,,,,,,,,,,,,,,,,
298339,2022-12-07_09h15.59.970,vts_reward_expectancy_bt,2022.2.4,Win32,145.6876457,Chrome,1536,864,,,,,0,720,,,,,,,,,,,,,,,,,146,U,hexagon,1,1,,5,,,,,,,,,,,,,,repeat,letter,lettRpt,k,0.801,vtsPrac,25,0,25,0,1,,,,,,,,,,,,,,,,,,,,,,,
298339,2022-12-07_09h15.59.970,vts_reward_expectancy_bt,2022.2.4,Win32,145.6876457,Chrome,1536,864,,,,,0,720,,,,,,,,,,,,,,,,,139,Y,star,1,0,,5,,,,,,,,,,,,,,repeat,letter,lettRpt,k,0.8157,vtsPrac,26,0,26,0,1,,,,,,,,,,,,,,,,,,,,,,,
298339,2022-12-07_09h15.59.970,vts_reward_expectancy_bt,2022.2.4,Win32,145.6876457,Chrome,1536,864,,,,,0,720,,,,,,,,,,,,,,,,,132,S,circle,1,0,,5,,,,,,,,,,,,,,switch,number,numSwt,d,1.4728,vtsPrac,27,0,27,0,1,,,,,,,,,,,,,,,,,,,,,,,
298339,2022-12-07_09h15.59.970,vts_reward_expectancy_bt,2022.2.4,Win32,145.6876457,Chrome,1536,864,,,,,0,720,,,,,,,,,,,,,,,,,167,B,hexagon,1,0,,5,,,,,,,,,,,,,,switch,letter,lettSwt,j,1.2509,vtsPrac,28,0,28,0,1,,,,,,,,,,,,,,,,,,,,,,,
298339,2022-12-07_09h15.59.970,vts_reward_expectancy_bt,2022.2.4,Win32,145.6876457,Chrome,1536,864,,,,,0,720,,,,,,,,,,,,,,,,,146,S,triangle,1,0,,5,,,,,,,,,,,,,,switch,number,numSwt,d,1.84,vtsPrac,29,0,29,0,1,,,,,,,,,,,,,,,,,,,,,,,
298339,2022-12-07_09h15.59.970,vts_reward_expectancy_bt,2022.2.4,Win32,145.6876457,Chrome,1536,864,,,,,0,720,,,,,,,,,,,,,,,,,125,U,triangle,1,0,,5,,,,,,,,,,,,,,switch,letter,lettSwt,k,0.9964,vtsPrac,30,0,30,0,1,,,,,,,,,,,,,,,,,,,,,,,
298339,2022-12-07_09h15.59.970,vts_reward_expectancy_bt,2022.2.4,Win32,145.6876457,Chrome,1536,864,,,,,0,720,,,,,,,,,,,,,,,,,139,D,hexagon,1,0,,5,,,,,,,,,,,,,,switch,number,numSwt,d,0.8973,vtsPrac,31,0,31,0,1,,,,,,,,,,,,,,,,,,,,,,,
298339,2022-12-07_09h15.59.970,vts_reward_expectancy_bt,2022.2.4,Win32,145.6876457,Chrome,1536,864,,,,,,,,,,,,,,,,,,,,,,,,,,,,,,,,,,,,,,,,,,,,,,,,,,,,,,,,,,,,,,,,,,,,,,,,,,,,
298339,2022-12-07_09h15.59.970,vts_reward_expectancy_bt,2022.2.4,Win32,145.6876457,Chrome,1536,864,,,,,,,,,,,,,,,,,,,,,,,,,,,,,,,,,,,,,,,,,,,,,,,,,,,,,,,,,,,,,,,,,,,,,,,,,,,,
298339,2022-12-07_09h15.59.970,vts_reward_expectancy_bt,2022.2.4,Win32,145.6876457,Chrome,1536,864,,,,,0,720,,,,,,,,,,,,,,,,,132,Y,triangle,1,0,,,,,,,,,,,,,,,,switch,letter,lettSwt,k,1.3054,noRew,,,,,,0,0,0,0,0,1,,,,,,,,,,,,,,,,,
298339,2022-12-07_09h15.59.970,vts_reward_expectancy_bt,2022.2.4,Win32,145.6876457,Chrome,1536,864,,,,,0,720,,,,,,,,,,,,,,,,,174,D,hexagon,1,0,,,,,,,,,,,,,,,,switch,number,numSwt,f,1.2908,noRew,,,,,,0,1,0,1,0,1,,,,,,,,,,,,,,,,,
298339,2022-12-07_09h15.59.970,vts_reward_expectancy_bt,2022.2.4,Win32,145.6876457,Chrome,1536,864,,,,,0,720,,,,,,,,,,,,,,,,,160,S,triangle,1,0,,,,,,,,,,,,,,,,repeat,number,numRpt,f,1.291,noRew,,,,,,0,2,0,2,0,1,,,,,,,,,,,,,,,,,
298339,2022-12-07_09h15.59.970,vts_reward_expectancy_bt,2022.2.4,Win32,145.6876457,Chrome,1536,864,,,,,0,720,,,,,,,,,,,,,,,,,139,U,hexagon,1,0,,,,,,,,,,,,,,,,switch,letter,lettSwt,k,0.8158,noRew,,,,,,0,3,0,3,0,1,,,,,,,,,,,,,,,,,
298339,2022-12-07_09h15.59.970,vts_reward_expectancy_bt,2022.2.4,Win32,145.6876457,Chrome,1536,864,,,,,0,720,,,,,,,,,,,,,,,,,132,Y,star,1,0,,,,,,,,,,,,,,,,repeat,letter,lettRpt,k,1.3239,noRew,,,,,,0,4,0,4,0,1,,,,,,,,,,,,,,,,,
298339,2022-12-07_09h15.59.970,vts_reward_expectancy_bt,2022.2.4,Win32,145.6876457,Chrome,1536,864,,,,,0,720,,,,,,,,,,,,,,,,,174,D,triangle,1,0,,,,,,,,,,,,,,,,switch,number,numSwt,f,1.134,noRew,,,,,,0,5,0,5,0,1,,,,,,,,,,,,,,,,,
298339,2022-12-07_09h15.59.970,vts_reward_expectancy_bt,2022.2.4,Win32,145.6876457,Chrome,1536,864,,,,,0,720,,,,,,,,,,,,,,,,,160,S,hexagon,1,0,,,,,,,,,,,,,,,,repeat,number,numRpt,f,1.0851,noRew,,,,,,0,6,0,6,0,1,,,,,,,,,,,,,,,,,
298339,2022-12-07_09h15.59.970,vts_reward_expectancy_bt,2022.2.4,Win32,145.6876457,Chrome,1536,864,,,,,0,720,,,,,,,,,,,,,,,,,139,U,triangle,1,0,,,,,,,,,,,,,,,,switch,letter,lettSwt,k,0.9178,noRew,,,,,,0,7,0,7,0,1,,,,,,,,,,,,,,,,,
298339,2022-12-07_09h15.59.970,vts_reward_expectancy_bt,2022.2.4,Win32,145.6876457,Chrome,1536,864,,,,,0,720,,,,,,,,,,,,,,,,,132,B,triangle,1,0,,,,,,,,,,,,,,,,switch,number,numSwt,d,1.9502,noRew,,,,,,0,8,0,8,0,1,,,,,,,,,,,,,,,,,
298339,2022-12-07_09h15.59.970,vts_reward_expectancy_bt,2022.2.4,Win32,145.6876457,Chrome,1536,864,,,,,0,720,,,,,,,,,,,,,,,,,146,D,hexagon,1,0,,,,,,,,,,,,,,,,repeat,number,numRpt,d,1.1291,noRew,,,,,,0,9,0,9,0,1,,,,,,,,,,,,,,,,,
298339,2022-12-07_09h15.59.970,vts_reward_expectancy_bt,2022.2.4,Win32,145.6876457,Chrome,1536,864,,,,,0,720,,,,,,,,,,,,,,,,,139,Y,star,1,0,,,,,,,,,,,,,,,,switch,letter,lettSwt,k,1.1134,noRew,,,,,,0,10,0,10,0,1,,,,,,,,,,,,,,,,,
298339,2022-12-07_09h15.59.970,vts_reward_expectancy_bt,2022.2.4,Win32,145.6876457,Chrome,1536,864,,,,,0,720,,,,,,,,,,,,,,,,,160,S,triangle,1,0,,,,,,,,,,,,,,,,switch,number,numSwt,f,0.9421,noRew,,,,,,0,11,0,11,0,1,,,,,,,,,,,,,,,,,
298339,2022-12-07_09h15.59.970,vts_reward_expectancy_bt,2022.2.4,Win32,145.6876457,Chrome,1536,864,,,,,0,720,,,,,,,,,,,,,,,,,167,W,triangle,1,0,,,,,,,,,,,,,,,,repeat,number,numRpt,f,1.4535,noRew,,,,,,0,12,0,12,0,1,,,,,,,,,,,,,,,,,
298339,2022-12-07_09h15.59.970,vts_reward_expectancy_bt,2022.2.4,Win32,145.6876457,Chrome,1536,864,,,,,0,720,,,,,,,,,,,,,,,,,132,S,hexagon,1,0,,,,,,,,,,,,,,,,repeat,number,numRpt,d,1.3053,noRew,,,,,,0,13,0,13,0,1,,,,,,,,,,,,,,,,,
298339,2022-12-07_09h15.59.970,vts_reward_expectancy_bt,2022.2.4,Win32,145.6876457,Chrome,1536,864,,,,,0,720,,,,,,,,,,,,,,,,,139,B,triangle,1,0,,,,,,,,,,,,,,,,switch,letter,lettSwt,j,1.0034,noRew,,,,,,0,14,0,14,0,1,,,,,,,,,,,,,,,,,
298339,2022-12-07_09h15.59.970,vts_reward_expectancy_bt,2022.2.4,Win32,145.6876457,Chrome,1536,864,,,,,0,720,,,,,,,,,,,,,,,,,160,D,circle,1,0,,,,,,,,,,,,,,,,repeat,letter,lettRpt,j,0.8329,noRew,,,,,,0,15,0,15,0,1,,,,,,,,,,,,,,,,,
298339,2022-12-07_09h15.59.970,vts_reward_expectancy_bt,2022.2.4,Win32,145.6876457,Chrome,1536,864,,,,,0,720,,,,,,,,,,,,,,,,,167,W,hexagon,1,0,,,,,,,,,,,,,,,,repeat,letter,lettRpt,k,0.9438,noRew,,,,,,0,16,0,16,0,1,,,,,,,,,,,,,,,,,
298339,2022-12-07_09h15.59.970,vts_reward_expectancy_bt,2022.2.4,Win32,145.6876457,Chrome,1536,864,,,,,0,720,,,,,,,,,,,,,,,,,181,S,triangle,1,0,,,,,,,,,,,,,,,,switch,number,numSwt,f,0.8227,noRew,,,,,,0,17,0,17,0,1,,,,,,,,,,,,,,,,,
298339,2022-12-07_09h15.59.970,vts_reward_expectancy_bt,2022.2.4,Win32,145.6876457,Chrome,1536,864,,,,,0,720,,,,,,,,,,,,,,,,,139,Y,circle,1,0,,,,,,,,,,,,,,,,switch,letter,lettSwt,k,0.694,noRew,,,,,,0,18,0,18,0,1,,,,,,,,,,,,,,,,,
298339,2022-12-07_09h15.59.970,vts_reward_expectancy_bt,2022.2.4,Win32,145.6876457,Chrome,1536,864,,,,,0,720,,,,,,,,,,,,,,,,,160,U,triangle,1,0,,,,,,,,,,,,,,,,repeat,letter,lettRpt,k,1.1166,noRew,,,,,,0,19,0,19,0,1,,,,,,,,,,,,,,,,,
298339,2022-12-07_09h15.59.970,vts_reward_expectancy_bt,2022.2.4,Win32,145.6876457,Chrome,1536,864,,,,,0,720,,,,,,,,,,,,,,,,,174,D,star,1,0,,,,,,,,,,,,,,,,switch,number,numSwt,f,0.904,noRew,,,,,,0,20,0,20,0,1,,,,,,,,,,,,,,,,,
298339,2022-12-07_09h15.59.970,vts_reward_expectancy_bt,2022.2.4,Win32,145.6876457,Chrome,1536,864,,,,,0,720,,,,,,,,,,,,,,,,,160,U,triangle,1,0,,,,,,,,,,,,,,,,switch,letter,lettSwt,k,0.8879,noRew,,,,,,0,21,0,21,0,1,,,,,,,,,,,,,,,,,
298339,2022-12-07_09h15.59.970,vts_reward_expectancy_bt,2022.2.4,Win32,145.6876457,Chrome,1536,864,,,,,0,720,,,,,,,,,,,,,,,,,167,W,hexagon,1,0,,,,,,,,,,,,,,,,switch,number,numSwt,f,0.6899,noRew,,,,,,0,22,0,22,0,1,,,,,,,,,,,,,,,,,
298339,2022-12-07_09h15.59.970,vts_reward_expectancy_bt,2022.2.4,Win32,145.6876457,Chrome,1536,864,,,,,0,720,,,,,,,,,,,,,,,,,132,Y,star,1,0,,,,,,,,,,,,,,,,switch,letter,lettSwt,k,0.9771,noRew,,,,,,0,23,0,23,0,1,,,,,,,,,,,,,,,,,
298339,2022-12-07_09h15.59.970,vts_reward_expectancy_bt,2022.2.4,Win32,145.6876457,Chrome,1536,864,,,,,0,720,,,,,,,,,,,,,,,,,167,Y,circle,1,0,,,,,,,,,,,,,,,,switch,number,numSwt,f,0.6665,noRew,,,,,,0,24,0,24,0,1,,,,,,,,,,,,,,,,,
298339,2022-12-07_09h15.59.970,vts_reward_expectancy_bt,2022.2.4,Win32,145.6876457,Chrome,1536,864,,,,,0,720,,,,,,,,,,,,,,,,,139,S,star,1,0,,,,,,,,,,,,,,,,repeat,number,numRpt,d,1.0992,noRew,,,,,,0,25,0,25,0,1,,,,,,,,,,,,,,,,,
298339,2022-12-07_09h15.59.970,vts_reward_expectancy_bt,2022.2.4,Win32,145.6876457,Chrome,1536,864,,,,,0,720,,,,,,,,,,,,,,,,,146,D,star,1,0,,,,,,,,,,,,,,,,repeat,number,numRpt,d,1.7263,noRew,,,,,,0,26,0,26,0,1,,,,,,,,,,,,,,,,,
298339,2022-12-07_09h15.59.970,vts_reward_expectancy_bt,2022.2.4,Win32,145.6876457,Chrome,1536,864,,,,,0,720,,,,,,,,,,,,,,,,,132,U,hexagon,1,0,,,,,,,,,,,,,,,,switch,letter,lettSwt,k,0.984,noRew,,,,,,0,27,0,27,0,1,,,,,,,,,,,,,,,,,
298339,2022-12-07_09h15.59.970,vts_reward_expectancy_bt,2022.2.4,Win32,145.6876457,Chrome,1536,864,,,,,0,720,,,,,,,,,,,,,,,,,160,W,star,1,0,,,,,,,,,,,,,,,,switch,number,numSwt,f,0.6665,noRew,,,,,,0,28,0,28,0,1,,,,,,,,,,,,,,,,,
298339,2022-12-07_09h15.59.970,vts_reward_expectancy_bt,2022.2.4,Win32,145.6876457,Chrome,1536,864,,,,,0,720,,,,,,,,,,,,,,,,,167,Y,triangle,1,0,,,,,,,,,,,,,,,,repeat,number,numRpt,f,0.806,noRew,,,,,,0,29,0,29,0,1,,,,,,,,,,,,,,,,,
298339,2022-12-07_09h15.59.970,vts_reward_expectancy_bt,2022.2.4,Win32,145.6876457,Chrome,1536,864,,,,,0,720,,,,,,,,,,,,,,,,,125,D,triangle,1,0,,,,,,,,,,,,,,,,repeat,number,numRpt,d,1.0093,noRew,,,,,,0,30,0,30,0,1,,,,,,,,,,,,,,,,,
298339,2022-12-07_09h15.59.970,vts_reward_expectancy_bt,2022.2.4,Win32,145.6876457,Chrome,1536,864,,,,,0,720,,,,,,,,,,,,,,,,,174,H,star,1,0,,,,,,,,,,,,,,,,repeat,number,numRpt,f,0.9966,noRew,,,,,,0,31,0,31,0,1,,,,,,,,,,,,,,,,,
298339,2022-12-07_09h15.59.970,vts_reward_expectancy_bt,2022.2.4,Win32,145.6876457,Chrome,1536,864,,,,,0,720,,,,,,,,,,,,,,,,,132,U,hexagon,1,0,,,,,,,,,,,,,,,,switch,letter,lettSwt,k,0.6825,noRew,,,,,,0,32,0,32,0,1,,,,,,,,,,,,,,,,,
298339,2022-12-07_09h15.59.970,vts_reward_expectancy_bt,2022.2.4,Win32,145.6876457,Chrome,1536,864,,,,,0,720,,,,,,,,,,,,,,,,,125,B,triangle,1,0,,,,,,,,,,,,,,,,repeat,letter,lettRpt,j,0.7753,noRew,,,,,,0,33,0,33,0,1,,,,,,,,,,,,,,,,,
298339,2022-12-07_09h15.59.970,vts_reward_expectancy_bt,2022.2.4,Win32,145.6876457,Chrome,1536,864,,,,,0,720,,,,,,,,,,,,,,,,,160,W,star,1,0,,,,,,,,,,,,,,,,repeat,letter,lettRpt,k,0.8449,noRew,,,,,,0,34,0,34,0,1,,,,,,,,,,,,,,,,,
298339,2022-12-07_09h15.59.970,vts_reward_expectancy_bt,2022.2.4,Win32,145.6876457,Chrome,1536,864,,,,,0,720,,,,,,,,,,,,,,,,,146,H,hexagon,1,0,,,,,,,,,,,,,,,,switch,number,numSwt,d,1.2855,noRew,,,,,,0,35,0,35,0,1,,,,,,,,,,,,,,,,,
298339,2022-12-07_09h15.59.970,vts_reward_expectancy_bt,2022.2.4,Win32,145.6876457,Chrome,1536,864,,,,,0,720,,,,,,,,,,,,,,,,,125,W,circle,1,0,,,,,,,,,,,,,,,,switch,letter,lettSwt,k,0.9784,noRew,,,,,,0,36,0,36,0,1,,,,,,,,,,,,,,,,,
298339,2022-12-07_09h15.59.970,vts_reward_expectancy_bt,2022.2.4,Win32,145.6876457,Chrome,1536,864,,,,,0,720,,,,,,,,,,,,,,,,,139,B,hexagon,1,0,,,,,,,,,,,,,,,,repeat,letter,lettRpt,j,0.811,noRew,,,,,,0,37,0,37,0,1,,,,,,,,,,,,,,,,,
298339,2022-12-07_09h15.59.970,vts_reward_expectancy_bt,2022.2.4,Win32,145.6876457,Chrome,1536,864,,,,,0,720,,,,,,,,,,,,,,,,,132,U,star,1,0,,,,,,,,,,,,,,,,repeat,letter,lettRpt,k,0.6574,noRew,,,,,,0,38,0,38,0,1,,,,,,,,,,,,,,,,,
298339,2022-12-07_09h15.59.970,vts_reward_expectancy_bt,2022.2.4,Win32,145.6876457,Chrome,1536,864,,,,,0,720,,,,,,,,,,,,,,,,,146,S,triangle,1,0,,,,,,,,,,,,,,,,switch,number,numSwt,d,1.638,noRew,,,,,,0,39,0,39,0,1,,,,,,,,,,,,,,,,,
298339,2022-12-07_09h15.59.970,vts_reward_expectancy_bt,2022.2.4,Win32,145.6876457,Chrome,1536,864,,,,,0,720,,,,,,,,,,,,,,,,,146,S,hexagon,1,0,,,,,,,,,,,,,,,,repeat,number,numRpt,d,1.1774,noRew,,,,,,0,40,0,40,0,1,,,,,,,,,,,,,,,,,
298339,2022-12-07_09h15.59.970,vts_reward_expectancy_bt,2022.2.4,Win32,145.6876457,Chrome,1536,864,,,,,0,720,,,,,,,,,,,,,,,,,139,H,triangle,1,0,,,,,,,,,,,,,,,,repeat,number,numRpt,d,1.7204,noRew,,,,,,0,41,0,41,0,1,,,,,,,,,,,,,,,,,
298339,2022-12-07_09h15.59.970,vts_reward_expectancy_bt,2022.2.4,Win32,145.6876457,Chrome,1536,864,,,,,0,720,,,,,,,,,,,,,,,,,160,F,star,1,0,,,,,,,,,,,,,,,,repeat,number,numRpt,f,1.2995,noRew,,,,,,0,42,0,42,0,1,,,,,,,,,,,,,,,,,
298339,2022-12-07_09h15.59.970,vts_reward_expectancy_bt,2022.2.4,Win32,145.6876457,Chrome,1536,864,,,,,0,720,,,,,,,,,,,,,,,,,125,B,triangle,1,0,,,,,,,,,,,,,,,,switch,letter,lettSwt,j,0.9444,noRew,,,,,,0,43,0,43,0,1,,,,,,,,,,,,,,,,,
298339,2022-12-07_09h15.59.970,vts_reward_expectancy_bt,2022.2.4,Win32,145.6876457,Chrome,1536,864,,,,,0,720,,,,,,,,,,,,,,,,,160,H,star,1,0,,,,,,,,,,,,,,,,switch,number,numSwt,f,1.7975,noRew,,,,,,0,44,0,44,0,1,,,,,,,,,,,,,,,,,
298339,2022-12-07_09h15.59.970,vts_reward_expectancy_bt,2022.2.4,Win32,145.6876457,Chrome,1536,864,,,,,0,720,,,,,,,,,,,,,,,,,167,B,triangle,1,0,,,,,,,,,,,,,,,,switch,letter,lettSwt,j,0.7712,noRew,,,,,,0,45,0,45,0,1,,,,,,,,,,,,,,,,,
298339,2022-12-07_09h15.59.970,vts_reward_expectancy_bt,2022.2.4,Win32,145.6876457,Chrome,1536,864,,,,,0,720,,,,,,,,,,,,,,,,,132,D,star,1,0,,,,,,,,,,,,,,,,repeat,letter,lettRpt,j,0.9378,noRew,,,,,,0,46,0,46,0,1,,,,,,,,,,,,,,,,,
298339,2022-12-07_09h15.59.970,vts_reward_expectancy_bt,2022.2.4,Win32,145.6876457,Chrome,1536,864,,,,,0,720,,,,,,,,,,,,,,,,,139,W,hexagon,1,0,,,,,,,,,,,,,,,,repeat,letter,lettRpt,k,0.7946,noRew,,,,,,0,47,0,47,0,1,,,,,,,,,,,,,,,,,
298339,2022-12-07_09h15.59.970,vts_reward_expectancy_bt,2022.2.4,Win32,145.6876457,Chrome,1536,864,,,,,0,720,,,,,,,,,,,,,,,,,139,Y,triangle,1,0,,,,,,,,,,,,,,,,repeat,letter,lettRpt,k,0.7512,noRew,,,,,,0,48,0,48,0,1,,,,,,,,,,,,,,,,,
298339,2022-12-07_09h15.59.970,vts_reward_expectancy_bt,2022.2.4,Win32,145.6876457,Chrome,1536,864,,,,,0,720,,,,,,,,,,,,,,,,,146,H,star,1,0,,,,,,,,,,,,,,,,switch,number,numSwt,d,1.5744,noRew,,,,,,0,49,0,49,0,1,,,,,,,,,,,,,,,,,
298339,2022-12-07_09h15.59.970,vts_reward_expectancy_bt,2022.2.4,Win32,145.6876457,Chrome,1536,864,,,,,0,720,,,,,,,,,,,,,,,,,125,W,hexagon,1,0,,,,,,,,,,,,,,,,switch,letter,lettSwt,k,1.1435,noRew,,,,,,0,50,0,50,0,1,,,,,,,,,,,,,,,,,
298339,2022-12-07_09h15.59.970,vts_reward_expectancy_bt,2022.2.4,Win32,145.6876457,Chrome,1536,864,,,,,0,720,,,,,,,,,,,,,,,,,132,F,triangle,1,0,,,,,,,,,,,,,,,,switch,number,numSwt,d,1.7382,noRew,,,,,,0,51,0,51,0,1,,,,,,,,,,,,,,,,,
298339,2022-12-07_09h15.59.970,vts_reward_expectancy_bt,2022.2.4,Win32,145.6876457,Chrome,1536,864,,,,,0,720,,,,,,,,,,,,,,,,,125,U,hexagon,1,0,,,,,,,,,,,,,,,,switch,letter,lettSwt,k,0.8582,noRew,,,,,,0,52,0,52,0,1,,,,,,,,,,,,,,,,,
298339,2022-12-07_09h15.59.970,vts_reward_expectancy_bt,2022.2.4,Win32,145.6876457,Chrome,1536,864,,,,,0,720,,,,,,,,,,,,,,,,,167,H,star,1,0,,,,,,,,,,,,,,,,switch,number,numSwt,f,1.1678,noRew,,,,,,0,53,0,53,0,1,,,,,,,,,,,,,,,,,
298339,2022-12-07_09h15.59.970,vts_reward_expectancy_bt,2022.2.4,Win32,145.6876457,Chrome,1536,864,,,,,0,720,,,,,,,,,,,,,,,,,181,S,hexagon,1,0,,,,,,,,,,,,,,,,repeat,number,numRpt,f,1.4272,noRew,,,,,,0,54,0,54,0,1,,,,,,,,,,,,,,,,,
298339,2022-12-07_09h15.59.970,vts_reward_expectancy_bt,2022.2.4,Win32,145.6876457,Chrome,1536,864,,,,,0,720,,,,,,,,,,,,,,,,,174,B,triangle,1,0,,,,,,,,,,,,,,,,switch,letter,lettSwt,j,0.7117,noRew,,,,,,0,55,0,55,0,1,,,,,,,,,,,,,,,,,
298339,2022-12-07_09h15.59.970,vts_reward_expectancy_bt,2022.2.4,Win32,145.6876457,Chrome,1536,864,,,,,0,720,,,,,,,,,,,,,,,,,181,D,triangle,1,0,,,,,,,,,,,,,,,,repeat,letter,lettRpt,j,1.032,noRew,,,,,,0,56,0,56,0,1,,,,,,,,,,,,,,,,,
298339,2022-12-07_09h15.59.970,vts_reward_expectancy_bt,2022.2.4,Win32,145.6876457,Chrome,1536,864,,,,,0,720,,,,,,,,,,,,,,,,,160,H,hexagon,1,0,,,,,,,,,,,,,,,,switch,number,numSwt,f,1.4683,noRew,,,,,,0,57,0,57,0,1,,,,,,,,,,,,,,,,,
298339,2022-12-07_09h15.59.970,vts_reward_expectancy_bt,2022.2.4,Win32,145.6876457,Chrome,1536,864,,,,,0,720,,,,,,,,,,,,,,,,,139,B,hexagon,1,0,,,,,,,,,,,,,,,,switch,letter,lettSwt,j,1.0056,noRew,,,,,,0,58,0,58,0,1,,,,,,,,,,,,,,,,,
298339,2022-12-07_09h15.59.970,vts_reward_expectancy_bt,2022.2.4,Win32,145.6876457,Chrome,1536,864,,,,,0,720,,,,,,,,,,,,,,,,,125,F,circle,1,0,,,,,,,,,,,,,,,,switch,number,numSwt,d,1.2404,noRew,,,,,,0,59,0,59,0,1,,,,,,,,,,,,,,,,,
298339,2022-12-07_09h15.59.970,vts_reward_expectancy_bt,2022.2.4,Win32,145.6876457,Chrome,1536,864,,,,,0,720,,,,,,,,,,,,,,,,,181,H,star,1,0,,,,,,,,,,,,,,,,repeat,number,numRpt,f,1.0258,noRew,,,,,,0,60,0,60,0,1,,,,,,,,,,,,,,,,,
298339,2022-12-07_09h15.59.970,vts_reward_expectancy_bt,2022.2.4,Win32,145.6876457,Chrome,1536,864,,,,,0,720,,,,,,,,,,,,,,,,,132,B,triangle,1,0,,,,,,,,,,,,,,,,switch,letter,lettSwt,j,1.0353,noRew,,,,,,0,61,0,61,0,1,,,,,,,,,,,,,,,,,
298339,2022-12-07_09h15.59.970,vts_reward_expectancy_bt,2022.2.4,Win32,145.6876457,Chrome,1536,864,,,,,0,720,,,,,,,,,,,,,,,,,167,W,circle,1,0,,,,,,,,,,,,,,,,repeat,letter,lettRpt,k,0.8408,noRew,,,,,,0,62,0,62,0,1,,,,,,,,,,,,,,,,,
298339,2022-12-07_09h15.59.970,vts_reward_expectancy_bt,2022.2.4,Win32,145.6876457,Chrome,1536,864,,,,,0,720,,,,,,,,,,,,,,,,,160,D,hexagon,1,0,,,,,,,,,,,,,,,,repeat,letter,lettRpt,j,0.6871,noRew,,,,,,0,63,0,63,0,1,,,,,,,,,,,,,,,,,
298339,2022-12-07_09h15.59.970,vts_reward_expectancy_bt,2022.2.4,Win32,145.6876457,Chrome,1536,864,,,,,,,,,,,,,,,,,,,,,,,,,,,,,,,,,,,,,,,,,,,,,,,,,,,,,,,,,,,,,,,,,,,,,,,,,,,,
298339,2022-12-07_09h15.59.970,vts_reward_expectancy_bt,2022.2.4,Win32,145.6876457,Chrome,1536,864,,,,,10,730,,,,,,,,,,,,,,,,,146,B,star,1,0,,,,,,,,,,,,,,,,switch,number,numSwt,d,0.9313,Hi,,,,,,0,,,,,,space,5.696,high,0,0,0,0,1,,,,,,,,,
298339,2022-12-07_09h15.59.970,vts_reward_expectancy_bt,2022.2.4,Win32,145.6876457,Chrome,1536,864,,,,,10,740,,,,,,,,,,,,,,,,,139,D,triangle,1,0,,,,,,,,,,,,,,,,repeat,number,numRpt,d,0.7984,Hi,,,,,,0,,,,,,,,high,1,0,1,0,1,,,,,,,,,
298339,2022-12-07_09h15.59.970,vts_reward_expectancy_bt,2022.2.4,Win32,145.6876457,Chrome,1536,864,,,,,1,741,,,,,,,,,,,,,,,,,132,Y,circle,1,0,,,,,,,,,,,,,,,,switch,letter,lettSwt,k,0.8971,Lo,,,,,,0,,,,,,,,high,2,0,2,0,1,,,,,,,,,
298339,2022-12-07_09h15.59.970,vts_reward_expectancy_bt,2022.2.4,Win32,145.6876457,Chrome,1536,864,,,,,1,742,,,,,,,,,,,,,,,,,174,H,hexagon,1,0,,,,,,,,,,,,,,,,switch,number,numSwt,f,1.2223,Lo,,,,,,0,,,,,,,,high,3,0,3,0,1,,,,,,,,,
298339,2022-12-07_09h15.59.970,vts_reward_expectancy_bt,2022.2.4,Win32,145.6876457,Chrome,1536,864,,,,,10,752,,,,,,,,,,,,,,,,,167,U,star,1,0,,,,,,,,,,,,,,,,repeat,number,numRpt,f,0.8016,Hi,,,,,,0,,,,,,,,high,4,0,4,0,1,,,,,,,,,
298339,2022-12-07_09h15.59.970,vts_reward_expectancy_bt,2022.2.4,Win32,145.6876457,Chrome,1536,864,,,,,10,762,,,,,,,,,,,,,,,,,125,S,triangle,1,0,,,,,,,,,,,,,,,,repeat,number,numRpt,d,0.9499,Hi,,,,,,0,,,,,,,,high,5,0,5,0,1,,,,,,,,,
298339,2022-12-07_09h15.59.970,vts_reward_expectancy_bt,2022.2.4,Win32,145.6876457,Chrome,1536,864,,,,,1,763,,,,,,,,,,,,,,,,,181,F,circle,1,0,,,,,,,,,,,,,,,,repeat,number,numRpt,f,0.979,Lo,,,,,,0,,,,,,,,high,6,0,6,0,1,,,,,,,,,
298339,2022-12-07_09h15.59.970,vts_reward_expectancy_bt,2022.2.4,Win32,145.6876457,Chrome,1536,864,,,,,1,764,,,,,,,,,,,,,,,,,160,W,hexagon,1,0,,,,,,,,,,,,,,,,repeat,number,numRpt,f,1.1394,Lo,,,,,,0,,,,,,,,high,7,0,7,0,1,,,,,,,,,
298339,2022-12-07_09h15.59.970,vts_reward_expectancy_bt,2022.2.4,Win32,145.6876457,Chrome,1536,864,,,,,10,774,,,,,,,,,,,,,,,,,146,B,triangle,1,0,,,,,,,,,,,,,,,,repeat,number,numRpt,d,0.8709,Hi,,,,,,0,,,,,,,,high,8,0,8,0,1,,,,,,,,,
298339,2022-12-07_09h15.59.970,vts_reward_expectancy_bt,2022.2.4,Win32,145.6876457,Chrome,1536,864,,,,,10,784,,,,,,,,,,,,,,,,,139,D,hexagon,1,0,,,,,,,,,,,,,,,,repeat,number,numRpt,d,1.2372,Lo,,,,,,0,,,,,,,,high,9,0,9,0,1,,,,,,,,,
298339,2022-12-07_09h15.59.970,vts_reward_expectancy_bt,2022.2.4,Win32,145.6876457,Chrome,1536,864,,,,,10,794,,,,,,,,,,,,,,,,,132,Y,circle,1,0,,,,,,,,,,,,,,,,switch,letter,lettSwt,k,0.826,Lo,,,,,,0,,,,,,,,high,10,0,10,0,1,,,,,,,,,
298339,2022-12-07_09h15.59.970,vts_reward_expectancy_bt,2022.2.4,Win32,145.6876457,Chrome,1536,864,,,,,1,795,,,,,,,,,,,,,,,,,174,H,star,1,0,,,,,,,,,,,,,,,,switch,number,numSwt,f,0.7888,Hi,,,,,,0,,,,,,,,high,11,0,11,0,1,,,,,,,,,
298339,2022-12-07_09h15.59.970,vts_reward_expectancy_bt,2022.2.4,Win32,145.6876457,Chrome,1536,864,,,,,1,796,,,,,,,,,,,,,,,,,167,U,hexagon,1,0,,,,,,,,,,,,,,,,switch,letter,lettSwt,k,1.2699,Lo,,,,,,0,,,,,,,,high,12,0,12,0,1,,,,,,,,,
298339,2022-12-07_09h15.59.970,vts_reward_expectancy_bt,2022.2.4,Win32,145.6876457,Chrome,1536,864,,,,,10,806,,,,,,,,,,,,,,,,,125,S,star,1,0,,,,,,,,,,,,,,,,switch,number,numSwt,d,0.9018,Hi,,,,,,0,,,,,,,,high,13,0,13,0,1,,,,,,,,,
298339,2022-12-07_09h15.59.970,vts_reward_expectancy_bt,2022.2.4,Win32,145.6876457,Chrome,1536,864,,,,,0,806,,,,,,,,,,,,,,,,,181,F,triangle,1,0,,,,,,,,,,,,,,,,repeat,number,numRpt,f,1.7751,Hi,,,,,,0,,,,,,,,high,14,0,14,0,1,,,,,,,,,
298339,2022-12-07_09h15.59.970,vts_reward_expectancy_bt,2022.2.4,Win32,145.6876457,Chrome,1536,864,,,,,10,816,,,,,,,,,,,,,,,,,160,W,circle,1,0,,,,,,,,,,,,,,,,repeat,number,numRpt,f,0.5801,Lo,,,,,,0,,,,,,,,high,15,0,15,0,1,,,,,,,,,
298339,2022-12-07_09h15.59.970,vts_reward_expectancy_bt,2022.2.4,Win32,145.6876457,Chrome,1536,864,,,,,1,817,,,,,,,,,,,,,,,,,132,Y,hexagon,1,0,,,,,,,,,,,,,,,,repeat,number,numRpt,d,0.7008,Lo,,,,,,0,,,,,,,,high,16,0,16,0,1,,,,,,,,,
298339,2022-12-07_09h15.59.970,vts_reward_expectancy_bt,2022.2.4,Win32,145.6876457,Chrome,1536,864,,,,,1,818,,,,,,,,,,,,,,,,,181,W,circle,1,0,,,,,,,,,,,,,,,,switch,letter,lettSwt,k,0.7879,Lo,,,,,,0,,,,,,,,high,17,0,17,0,1,,,,,,,,,
298339,2022-12-07_09h15.59.970,vts_reward_expectancy_bt,2022.2.4,Win32,145.6876457,Chrome,1536,864,,,,,10,828,,,,,,,,,,,,,,,,,139,D,triangle,1,0,,,,,,,,,,,,,,,,switch,number,numSwt,d,0.7566,Hi,,,,,,0,,,,,,,,high,18,0,18,0,1,,,,,,,,,
298339,2022-12-07_09h15.59.970,vts_reward_expectancy_bt,2022.2.4,Win32,145.6876457,Chrome,1536,864,,,,,10,838,,,,,,,,,,,,,,,,,160,B,star,1,0,,,,,,,,,,,,,,,,repeat,number,numRpt,f,0.5754,Hi,,,,,,0,,,,,,,,high,19,0,19,0,1,,,,,,,,,
298339,2022-12-07_09h15.59.970,vts_reward_expectancy_bt,2022.2.4,Win32,145.6876457,Chrome,1536,864,,,,,10,848,,,,,,,,,,,,,,,,,174,F,triangle,1,0,,,,,,,,,,,,,,,,repeat,number,numRpt,f,0.6386,Hi,,,,,,0,,,,,,,,high,20,0,20,0,1,,,,,,,,,
298339,2022-12-07_09h15.59.970,vts_reward_expectancy_bt,2022.2.4,Win32,145.6876457,Chrome,1536,864,,,,,1,849,,,,,,,,,,,,,,,,,146,U,hexagon,1,0,,,,,,,,,,,,,,,,switch,letter,lettSwt,k,0.9437,Lo,,,,,,0,,,,,,,,high,21,0,21,0,1,,,,,,,,,
298339,2022-12-07_09h15.59.970,vts_reward_expectancy_bt,2022.2.4,Win32,145.6876457,Chrome,1536,864,,,,,1,850,,,,,,,,,,,,,,,,,125,H,star,1,0,,,,,,,,,,,,,,,,switch,number,numSwt,d,0.6398,Hi,,,,,,0,,,,,,,,high,22,0,22,0,1,,,,,,,,,
298339,2022-12-07_09h15.59.970,vts_reward_expectancy_bt,2022.2.4,Win32,145.6876457,Chrome,1536,864,,,,,1,851,,,,,,,,,,,,,,,,,167,S,circle,1,0,,,,,,,,,,,,,,,,repeat,number,numRpt,f,1.068,Lo,,,,,,0,,,,,,,,high,23,0,23,0,1,,,,,,,,,
298339,2022-12-07_09h15.59.970,vts_reward_expectancy_bt,2022.2.4,Win32,145.6876457,Chrome,1536,864,,,,,0,851,,,,,,,,,,,,,,,,,132,S,triangle,1,0,,,,,,,,,,,,,,,,switch,letter,lettSwt,k,1.4361,Hi,,,,,,0,,,,,,,,high,24,0,24,0,1,,,,,,,,,
298339,2022-12-07_09h15.59.970,vts_reward_expectancy_bt,2022.2.4,Win32,145.6876457,Chrome,1536,864,,,,,1,852,,,,,,,,,,,,,,,,,167,Y,circle,1,0,,,,,,,,,,,,,,,,switch,number,numSwt,f,0.5245,Lo,,,,,,0,,,,,,,,high,25,0,25,0,1,,,,,,,,,
298339,2022-12-07_09h15.59.970,vts_reward_expectancy_bt,2022.2.4,Win32,145.6876457,Chrome,1536,864,,,,,1,853,,,,,,,,,,,,,,,,,160,U,hexagon,1,0,,,,,,,,,,,,,,,,repeat,number,numRpt,f,0.5834,Lo,,,,,,0,,,,,,,,high,26,0,26,0,1,,,,,,,,,
298339,2022-12-07_09h15.59.970,vts_reward_expectancy_bt,2022.2.4,Win32,145.6876457,Chrome,1536,864,,,,,10,863,,,,,,,,,,,,,,,,,139,B,star,1,0,,,,,,,,,,,,,,,,repeat,number,numRpt,d,0.9409,Hi,,,,,,0,,,,,,,,high,27,0,27,0,1,,,,,,,,,
298339,2022-12-07_09h15.59.970,vts_reward_expectancy_bt,2022.2.4,Win32,145.6876457,Chrome,1536,864,,,,,1,864,,,,,,,,,,,,,,,,,146,F,triangle,1,0,,,,,,,,,,,,,,,,repeat,number,numRpt,d,0.5869,Hi,,,,,,0,,,,,,,,high,28,0,28,0,1,,,,,,,,,
298339,2022-12-07_09h15.59.970,vts_reward_expectancy_bt,2022.2.4,Win32,145.6876457,Chrome,1536,864,,,,,1,865,,,,,,,,,,,,,,,,,181,W,hexagon,1,0,,,,,,,,,,,,,,,,repeat,number,numRpt,f,0.5317,Lo,,,,,,0,,,,,,,,high,29,0,29,0,1,,,,,,,,,
298339,2022-12-07_09h15.59.970,vts_reward_expectancy_bt,2022.2.4,Win32,145.6876457,Chrome,1536,864,,,,,1,866,,,,,,,,,,,,,,,,,174,D,circle,1,0,,,,,,,,,,,,,,,,repeat,number,numRpt,f,1.0975,Lo,,,,,,0,,,,,,,,high,30,0,30,0,1,,,,,,,,,
298339,2022-12-07_09h15.59.970,vts_reward_expectancy_bt,2022.2.4,Win32,145.6876457,Chrome,1536,864,,,,,10,876,,,,,,,,,,,,,,,,,125,H,star,1,0,,,,,,,,,,,,,,,,repeat,number,numRpt,d,1.0434,Hi,,,,,,0,,,,,,,,high,31,0,31,0,1,,,,,,,,,
298339,2022-12-07_09h15.59.970,vts_reward_expectancy_bt,2022.2.4,Win32,145.6876457,Chrome,1536,864,,,,,0,876,,,,,,,,,,,,,,,,,174,U,circle,0,0,,,,,,,,,,,,,,,,repeat,number,NA,d,0.6996,Hi,,,,,,1,,,,,,space,2.4159,high,0,0,0,0,1,,,,,,,,,
298339,2022-12-07_09h15.59.970,vts_reward_expectancy_bt,2022.2.4,Win32,145.6876457,Chrome,1536,864,,,,,1,877,,,,,,,,,,,,,,,,,139,W,hexagon,1,1,,,,,,,,,,,,,,,,repeat,number,numRpt,d,0.6631,Lo,,,,,,1,,,,,,,,high,1,0,1,0,1,,,,,,,,,
298339,2022-12-07_09h15.59.970,vts_reward_expectancy_bt,2022.2.4,Win32,145.6876457,Chrome,1536,864,,,,,0,877,,,,,,,,,,,,,,,,,146,H,star,1,0,,,,,,,,,,,,,,,,repeat,number,numRpt,d,0.7678,Hi,,,,,,1,,,,,,,,high,2,0,2,0,1,,,,,,,,,
298339,2022-12-07_09h15.59.970,vts_reward_expectancy_bt,2022.2.4,Win32,145.6876457,Chrome,1536,864,,,,,10,887,,,,,,,,,,,,,,,,,167,B,triangle,1,0,,,,,,,,,,,,,,,,repeat,number,numRpt,f,0.5507,Hi,,,,,,1,,,,,,,,high,3,0,3,0,1,,,,,,,,,
298339,2022-12-07_09h15.59.970,vts_reward_expectancy_bt,2022.2.4,Win32,145.6876457,Chrome,1536,864,,,,,1,888,,,,,,,,,,,,,,,,,132,Y,circle,1,0,,,,,,,,,,,,,,,,repeat,number,numRpt,d,0.5835,Lo,,,,,,1,,,,,,,,high,4,0,4,0,1,,,,,,,,,
298339,2022-12-07_09h15.59.970,vts_reward_expectancy_bt,2022.2.4,Win32,145.6876457,Chrome,1536,864,,,,,10,898,,,,,,,,,,,,,,,,,181,F,hexagon,1,0,,,,,,,,,,,,,,,,repeat,number,numRpt,f,0.4913,Lo,,,,,,1,,,,,,,,high,5,0,5,0,1,,,,,,,,,
298339,2022-12-07_09h15.59.970,vts_reward_expectancy_bt,2022.2.4,Win32,145.6876457,Chrome,1536,864,,,,,10,908,,,,,,,,,,,,,,,,,125,S,star,1,0,,,,,,,,,,,,,,,,repeat,number,numRpt,d,0.4773,Hi,,,,,,1,,,,,,,,high,6,0,6,0,1,,,,,,,,,
298339,2022-12-07_09h15.59.970,vts_reward_expectancy_bt,2022.2.4,Win32,145.6876457,Chrome,1536,864,,,,,10,918,,,,,,,,,,,,,,,,,160,D,triangle,1,0,,,,,,,,,,,,,,,,repeat,number,numRpt,f,0.4907,Hi,,,,,,1,,,,,,,,high,7,0,7,0,1,,,,,,,,,
298339,2022-12-07_09h15.59.970,vts_reward_expectancy_bt,2022.2.4,Win32,145.6876457,Chrome,1536,864,,,,,1,919,,,,,,,,,,,,,,,,,174,U,circle,1,0,,,,,,,,,,,,,,,,repeat,number,numRpt,f,0.5413,Lo,,,,,,1,,,,,,,,high,8,0,8,0,1,,,,,,,,,
298339,2022-12-07_09h15.59.970,vts_reward_expectancy_bt,2022.2.4,Win32,145.6876457,Chrome,1536,864,,,,,10,929,,,,,,,,,,,,,,,,,139,W,triangle,1,0,,,,,,,,,,,,,,,,repeat,number,numRpt,d,0.5717,Hi,,,,,,1,,,,,,,,high,9,0,9,0,1,,,,,,,,,
298339,2022-12-07_09h15.59.970,vts_reward_expectancy_bt,2022.2.4,Win32,145.6876457,Chrome,1536,864,,,,,1,930,,,,,,,,,,,,,,,,,146,H,hexagon,1,0,,,,,,,,,,,,,,,,repeat,number,numRpt,d,0.5125,Lo,,,,,,1,,,,,,,,high,10,0,10,0,1,,,,,,,,,
298339,2022-12-07_09h15.59.970,vts_reward_expectancy_bt,2022.2.4,Win32,145.6876457,Chrome,1536,864,,,,,10,940,,,,,,,,,,,,,,,,,167,B,star,1,0,,,,,,,,,,,,,,,,repeat,number,numRpt,f,0.4694,Hi,,,,,,1,,,,,,,,high,11,0,11,0,1,,,,,,,,,
298339,2022-12-07_09h15.59.970,vts_reward_expectancy_bt,2022.2.4,Win32,145.6876457,Chrome,1536,864,,,,,1,941,,,,,,,,,,,,,,,,,132,Y,circle,1,0,,,,,,,,,,,,,,,,repeat,number,numRpt,d,0.5333,Lo,,,,,,1,,,,,,,,high,12,0,12,0,1,,,,,,,,,
298339,2022-12-07_09h15.59.970,vts_reward_expectancy_bt,2022.2.4,Win32,145.6876457,Chrome,1536,864,,,,,1,942,,,,,,,,,,,,,,,,,181,F,hexagon,1,0,,,,,,,,,,,,,,,,repeat,number,numRpt,f,0.4661,Lo,,,,,,1,,,,,,,,high,13,0,13,0,1,,,,,,,,,
298339,2022-12-07_09h15.59.970,vts_reward_expectancy_bt,2022.2.4,Win32,145.6876457,Chrome,1536,864,,,,,10,952,,,,,,,,,,,,,,,,,125,S,star,1,0,,,,,,,,,,,,,,,,repeat,number,numRpt,d,0.4394,Hi,,,,,,1,,,,,,,,high,14,0,14,0,1,,,,,,,,,
298339,2022-12-07_09h15.59.970,vts_reward_expectancy_bt,2022.2.4,Win32,145.6876457,Chrome,1536,864,,,,,10,962,,,,,,,,,,,,,,,,,160,D,triangle,1,0,,,,,,,,,,,,,,,,repeat,number,numRpt,f,0.5354,Hi,,,,,,1,,,,,,,,high,15,0,15,0,1,,,,,,,,,
298339,2022-12-07_09h15.59.970,vts_reward_expectancy_bt,2022.2.4,Win32,145.6876457,Chrome,1536,864,,,,,1,963,,,,,,,,,,,,,,,,,125,W,hexagon,1,0,,,,,,,,,,,,,,,,repeat,number,numRpt,d,0.635,Lo,,,,,,1,,,,,,,,high,16,0,16,0,1,,,,,,,,,
298339,2022-12-07_09h15.59.970,vts_reward_expectancy_bt,2022.2.4,Win32,145.6876457,Chrome,1536,864,,,,,1,964,,,,,,,,,,,,,,,,,139,F,circle,1,0,,,,,,,,,,,,,,,,repeat,number,numRpt,d,0.7123,Lo,,,,,,1,,,,,,,,high,17,0,17,0,1,,,,,,,,,
298339,2022-12-07_09h15.59.970,vts_reward_expectancy_bt,2022.2.4,Win32,145.6876457,Chrome,1536,864,,,,,10,974,,,,,,,,,,,,,,,,,181,D,star,1,0,,,,,,,,,,,,,,,,repeat,number,numRpt,f,0.4761,Hi,,,,,,1,,,,,,,,high,18,0,18,0,1,,,,,,,,,
298339,2022-12-07_09h15.59.970,vts_reward_expectancy_bt,2022.2.4,Win32,145.6876457,Chrome,1536,864,,,,,1,975,,,,,,,,,,,,,,,,,174,S,triangle,1,0,,,,,,,,,,,,,,,,repeat,number,numRpt,f,0.6298,Hi,,,,,,1,,,,,,,,high,19,0,19,0,1,,,,,,,,,
298339,2022-12-07_09h15.59.970,vts_reward_expectancy_bt,2022.2.4,Win32,145.6876457,Chrome,1536,864,,,,,1,976,,,,,,,,,,,,,,,,,132,Y,hexagon,1,0,,,,,,,,,,,,,,,,repeat,number,numRpt,d,0.5501,Lo,,,,,,1,,,,,,,,high,20,0,20,0,1,,,,,,,,,
298339,2022-12-07_09h15.59.970,vts_reward_expectancy_bt,2022.2.4,Win32,145.6876457,Chrome,1536,864,,,,,1,977,,,,,,,,,,,,,,,,,146,B,triangle,1,0,,,,,,,,,,,,,,,,repeat,number,numRpt,d,0.6255,Hi,,,,,,1,,,,,,,,high,21,0,21,0,1,,,,,,,,,
298339,2022-12-07_09h15.59.970,vts_reward_expectancy_bt,2022.2.4,Win32,145.6876457,Chrome,1536,864,,,,,1,978,,,,,,,,,,,,,,,,,167,U,circle,1,0,,,,,,,,,,,,,,,,repeat,number,numRpt,f,0.7328,Lo,,,,,,1,,,,,,,,high,22,0,22,0,1,,,,,,,,,
298339,2022-12-07_09h15.59.970,vts_reward_expectancy_bt,2022.2.4,Win32,145.6876457,Chrome,1536,864,,,,,10,988,,,,,,,,,,,,,,,,,160,H,star,1,0,,,,,,,,,,,,,,,,repeat,number,numRpt,f,0.5095,Hi,,,,,,1,,,,,,,,high,23,0,23,0,1,,,,,,,,,
298339,2022-12-07_09h15.59.970,vts_reward_expectancy_bt,2022.2.4,Win32,145.6876457,Chrome,1536,864,,,,,0,988,,,,,,,,,,,,,,,,,125,S,triangle,1,0,,,,,,,,,,,,,,,,repeat,number,numRpt,d,0.7075,Hi,,,,,,1,,,,,,,,high,24,0,24,0,1,,,,,,,,,
298339,2022-12-07_09h15.59.970,vts_reward_expectancy_bt,2022.2.4,Win32,145.6876457,Chrome,1536,864,,,,,10,998,,,,,,,,,,,,,,,,,160,Y,star,1,0,,,,,,,,,,,,,,,,repeat,number,numRpt,f,0.443,Hi,,,,,,1,,,,,,,,high,25,0,25,0,1,,,,,,,,,
298339,2022-12-07_09h15.59.970,vts_reward_expectancy_bt,2022.2.4,Win32,145.6876457,Chrome,1536,864,,,,,10,1008,,,,,,,,,,,,,,,,,139,W,hexagon,1,0,,,,,,,,,,,,,,,,repeat,number,numRpt,d,0.6406,Lo,,,,,,1,,,,,,,,high,26,0,26,0,1,,,,,,,,,
298339,2022-12-07_09h15.59.970,vts_reward_expectancy_bt,2022.2.4,Win32,145.6876457,Chrome,1536,864,,,,,1,1009,,,,,,,,,,,,,,,,,167,F,circle,1,0,,,,,,,,,,,,,,,,repeat,number,numRpt,f,0.5173,Lo,,,,,,1,,,,,,,,high,27,0,27,0,1,,,,,,,,,
298339,2022-12-07_09h15.59.970,vts_reward_expectancy_bt,2022.2.4,Win32,145.6876457,Chrome,1536,864,,,,,10,1019,,,,,,,,,,,,,,,,,146,D,triangle,1,0,,,,,,,,,,,,,,,,repeat,number,numRpt,d,0.5387,Hi,,,,,,1,,,,,,,,high,28,0,28,0,1,,,,,,,,,
298339,2022-12-07_09h15.59.970,vts_reward_expectancy_bt,2022.2.4,Win32,145.6876457,Chrome,1536,864,,,,,10,1029,,,,,,,,,,,,,,,,,132,H,circle,1,0,,,,,,,,,,,,,,,,repeat,number,numRpt,d,0.504,Lo,,,,,,1,,,,,,,,high,29,0,29,0,1,,,,,,,,,
298339,2022-12-07_09h15.59.970,vts_reward_expectancy_bt,2022.2.4,Win32,145.6876457,Chrome,1536,864,,,,,10,1039,,,,,,,,,,,,,,,,,174,B,hexagon,1,0,,,,,,,,,,,,,,,,repeat,number,numRpt,f,0.5575,Lo,,,,,,1,,,,,,,,high,30,0,30,0,1,,,,,,,,,
298339,2022-12-07_09h15.59.970,vts_reward_expectancy_bt,2022.2.4,Win32,145.6876457,Chrome,1536,864,,,,,10,1049,,,,,,,,,,,,,,,,,181,U,star,1,0,,,,,,,,,,,,,,,,repeat,number,numRpt,f,0.51,Hi,,,,,,1,,,,,,,,high,31,0,31,0,1,,,,,,,,,
298339,2022-12-07_09h15.59.970,vts_reward_expectancy_bt,2022.2.4,Win32,145.6876457,Chrome,1536,864,,,,,10,1059,,,,,,,,,,,,,,,,,125,W,star,1,0,,,,,,,,,,,,,,,,switch,letter,lettSwt,k,1.316,Hi,,,,,,2,,,,,,space,347.4895,high,0,0,0,0,1,,,,,,,,,
298339,2022-12-07_09h15.59.970,vts_reward_expectancy_bt,2022.2.4,Win32,145.6876457,Chrome,1536,864,,,,,1,1060,,,,,,,,,,,,,,,,,181,Y,circle,1,0,,,,,,,,,,,,,,,,switch,number,numSwt,f,0.5317,Lo,,,,,,2,,,,,,,,high,1,0,1,0,1,,,,,,,,,
298339,2022-12-07_09h15.59.970,vts_reward_expectancy_bt,2022.2.4,Win32,145.6876457,Chrome,1536,864,,,,,1,1061,,,,,,,,,,,,,,,,,132,H,triangle,1,0,,,,,,,,,,,,,,,,repeat,number,numRpt,d,0.4652,Hi,,,,,,2,,,,,,,,high,2,0,2,0,1,,,,,,,,,
298339,2022-12-07_09h15.59.970,vts_reward_expectancy_bt,2022.2.4,Win32,145.6876457,Chrome,1536,864,,,,,1,1062,,,,,,,,,,,,,,,,,167,D,hexagon,1,0,,,,,,,,,,,,,,,,repeat,number,numRpt,f,0.6117,Lo,,,,,,2,,,,,,,,high,3,0,3,0,1,,,,,,,,,
298339,2022-12-07_09h15.59.970,vts_reward_expectancy_bt,2022.2.4,Win32,145.6876457,Chrome,1536,864,,,,,10,1072,,,,,,,,,,,,,,,,,160,S,star,1,0,,,,,,,,,,,,,,,,repeat,number,numRpt,f,0.4911,Hi,,,,,,2,,,,,,,,high,4,0,4,0,1,,,,,,,,,
298339,2022-12-07_09h15.59.970,vts_reward_expectancy_bt,2022.2.4,Win32,145.6876457,Chrome,1536,864,,,,,1,1073,,,,,,,,,,,,,,,,,174,B,circle,1,0,,,,,,,,,,,,,,,,repeat,number,numRpt,f,0.719,Lo,,,,,,2,,,,,,,,high,5,0,5,0,1,,,,,,,,,
298339,2022-12-07_09h15.59.970,vts_reward_expectancy_bt,2022.2.4,Win32,145.6876457,Chrome,1536,864,,,,,10,1083,,,,,,,,,,,,,,,,,146,U,triangle,1,0,,,,,,,,,,,,,,,,repeat,number,numRpt,d,0.4545,Hi,,,,,,2,,,,,,,,high,6,0,6,0,1,,,,,,,,,
298339,2022-12-07_09h15.59.970,vts_reward_expectancy_bt,2022.2.4,Win32,145.6876457,Chrome,1536,864,,,,,1,1084,,,,,,,,,,,,,,,,,139,F,hexagon,1,0,,,,,,,,,,,,,,,,repeat,number,numRpt,d,0.7108,Lo,,,,,,2,,,,,,,,high,7,0,7,0,1,,,,,,,,,
298339,2022-12-07_09h15.59.970,vts_reward_expectancy_bt,2022.2.4,Win32,145.6876457,Chrome,1536,864,,,,,0,1084,,,,,,,,,,,,,,,,,125,W,star,1,0,,,,,,,,,,,,,,,,repeat,number,numRpt,d,0.5817,Hi,,,,,,2,,,,,,,,high,8,0,8,0,1,,,,,,,,,
298339,2022-12-07_09h15.59.970,vts_reward_expectancy_bt,2022.2.4,Win32,145.6876457,Chrome,1536,864,,,,,10,1094,,,,,,,,,,,,,,,,,181,Y,triangle,1,0,,,,,,,,,,,,,,,,repeat,number,numRpt,f,0.4934,Hi,,,,,,2,,,,,,,,high,9,0,9,0,1,,,,,,,,,
298339,2022-12-07_09h15.59.970,vts_reward_expectancy_bt,2022.2.4,Win32,145.6876457,Chrome,1536,864,,,,,1,1095,,,,,,,,,,,,,,,,,132,H,circle,1,0,,,,,,,,,,,,,,,,repeat,number,numRpt,d,0.4749,Lo,,,,,,2,,,,,,,,high,10,0,10,0,1,,,,,,,,,
298339,2022-12-07_09h15.59.970,vts_reward_expectancy_bt,2022.2.4,Win32,145.6876457,Chrome,1536,864,,,,,1,1096,,,,,,,,,,,,,,,,,167,D,hexagon,1,0,,,,,,,,,,,,,,,,repeat,number,numRpt,f,0.4325,Lo,,,,,,2,,,,,,,,high,11,0,11,0,1,,,,,,,,,
298339,2022-12-07_09h15.59.970,vts_reward_expectancy_bt,2022.2.4,Win32,145.6876457,Chrome,1536,864,,,,,1,1097,,,,,,,,,,,,,,,,,160,S,circle,1,0,,,,,,,,,,,,,,,,repeat,number,numRpt,f,0.4145,Lo,,,,,,2,,,,,,,,high,12,0,12,0,1,,,,,,,,,
298339,2022-12-07_09h15.59.970,vts_reward_expectancy_bt,2022.2.4,Win32,145.6876457,Chrome,1536,864,,,,,10,1107,,,,,,,,,,,,,,,,,174,B,star,1,0,,,,,,,,,,,,,,,,repeat,number,numRpt,f,0.4911,Hi,,,,,,2,,,,,,,,high,13,0,13,0,1,,,,,,,,,
298339,2022-12-07_09h15.59.970,vts_reward_expectancy_bt,2022.2.4,Win32,145.6876457,Chrome,1536,864,,,,,0,1107,,,,,,,,,,,,,,,,,146,U,triangle,1,0,,,,,,,,,,,,,,,,repeat,number,numRpt,d,0.5205,Hi,,,,,,2,,,,,,,,high,14,0,14,0,1,,,,,,,,,
298339,2022-12-07_09h15.59.970,vts_reward_expectancy_bt,2022.2.4,Win32,145.6876457,Chrome,1536,864,,,,,1,1108,,,,,,,,,,,,,,,,,139,F,hexagon,1,0,,,,,,,,,,,,,,,,repeat,number,numRpt,d,0.609,Lo,,,,,,2,,,,,,,,high,15,0,15,0,1,,,,,,,,,
298339,2022-12-07_09h15.59.970,vts_reward_expectancy_bt,2022.2.4,Win32,145.6876457,Chrome,1536,864,,,,,10,1118,,,,,,,,,,,,,,,,,167,U,triangle,1,0,,,,,,,,,,,,,,,,repeat,number,numRpt,f,0.4019,Hi,,,,,,2,,,,,,,,high,16,0,16,0,1,,,,,,,,,
298339,2022-12-07_09h15.59.970,vts_reward_expectancy_bt,2022.2.4,Win32,145.6876457,Chrome,1536,864,,,,,1,1119,,,,,,,,,,,,,,,,,160,S,hexagon,1,0,,,,,,,,,,,,,,,,repeat,number,numRpt,f,0.4357,Lo,,,,,,2,,,,,,,,high,17,0,17,0,1,,,,,,,,,
298339,2022-12-07_09h15.59.970,vts_reward_expectancy_bt,2022.2.4,Win32,145.6876457,Chrome,1536,864,,,,,1,1120,,,,,,,,,,,,,,,,,181,D,circle,1,0,,,,,,,,,,,,,,,,repeat,number,numRpt,f,0.4367,Lo,,,,,,2,,,,,,,,high,18,0,18,0,1,,,,,,,,,
298339,2022-12-07_09h15.59.970,vts_reward_expectancy_bt,2022.2.4,Win32,145.6876457,Chrome,1536,864,,,,,1,1121,,,,,,,,,,,,,,,,,132,H,star,1,0,,,,,,,,,,,,,,,,repeat,number,numRpt,d,0.4417,Hi,,,,,,2,,,,,,,,high,19,0,19,0,1,,,,,,,,,
298339,2022-12-07_09h15.59.970,vts_reward_expectancy_bt,2022.2.4,Win32,145.6876457,Chrome,1536,864,,,,,0,1121,,,,,,,,,,,,,,,,,139,B,triangle,1,0,,,,,,,,,,,,,,,,repeat,number,numRpt,d,0.5255,Hi,,,,,,2,,,,,,,,high,20,0,20,0,1,,,,,,,,,
298339,2022-12-07_09h15.59.970,vts_reward_expectancy_bt,2022.2.4,Win32,145.6876457,Chrome,1536,864,,,,,10,1131,,,,,,,,,,,,,,,,,125,F,hexagon,1,0,,,,,,,,,,,,,,,,repeat,number,numRpt,d,0.549,Lo,,,,,,2,,,,,,,,high,21,0,21,0,1,,,,,,,,,
298339,2022-12-07_09h15.59.970,vts_reward_expectancy_bt,2022.2.4,Win32,145.6876457,Chrome,1536,864,,,,,10,1141,,,,,,,,,,,,,,,,,146,W,star,1,0,,,,,,,,,,,,,,,,switch,letter,lettSwt,k,0.8202,Hi,,,,,,2,,,,,,,,high,22,0,22,0,1,,,,,,,,,
298339,2022-12-07_09h15.59.970,vts_reward_expectancy_bt,2022.2.4,Win32,145.6876457,Chrome,1536,864,,,,,1,1142,,,,,,,,,,,,,,,,,174,Y,circle,1,0,,,,,,,,,,,,,,,,switch,number,numSwt,f,0.5807,Lo,,,,,,2,,,,,,,,high,23,0,23,0,1,,,,,,,,,
298339,2022-12-07_09h15.59.970,vts_reward_expectancy_bt,2022.2.4,Win32,145.6876457,Chrome,1536,864,,,,,10,1152,,,,,,,,,,,,,,,,,174,U,circle,1,0,,,,,,,,,,,,,,,,repeat,number,numRpt,f,0.4363,Lo,,,,,,2,,,,,,,,high,24,0,24,0,1,,,,,,,,,
298339,2022-12-07_09h15.59.970,vts_reward_expectancy_bt,2022.2.4,Win32,145.6876457,Chrome,1536,864,,,,,0,1152,,,,,,,,,,,,,,,,,139,Y,triangle,1,0,,,,,,,,,,,,,,,,repeat,number,numRpt,d,0.6552,Hi,,,,,,2,,,,,,,,high,25,0,25,0,1,,,,,,,,,
298339,2022-12-07_09h15.59.970,vts_reward_expectancy_bt,2022.2.4,Win32,145.6876457,Chrome,1536,864,,,,,10,1162,,,,,,,,,,,,,,,,,181,S,star,1,0,,,,,,,,,,,,,,,,repeat,number,numRpt,f,0.415,Hi,,,,,,2,,,,,,,,high,26,0,26,0,1,,,,,,,,,
298339,2022-12-07_09h15.59.970,vts_reward_expectancy_bt,2022.2.4,Win32,145.6876457,Chrome,1536,864,,,,,10,1172,,,,,,,,,,,,,,,,,132,D,hexagon,1,0,,,,,,,,,,,,,,,,repeat,number,numRpt,d,0.4777,Lo,,,,,,2,,,,,,,,high,27,0,27,0,1,,,,,,,,,
298339,2022-12-07_09h15.59.970,vts_reward_expectancy_bt,2022.2.4,Win32,145.6876457,Chrome,1536,864,,,,,1,1173,,,,,,,,,,,,,,,,,160,W,circle,1,0,,,,,,,,,,,,,,,,repeat,number,numRpt,f,0.4607,Lo,,,,,,2,,,,,,,,high,28,0,28,0,1,,,,,,,,,
298339,2022-12-07_09h15.59.970,vts_reward_expectancy_bt,2022.2.4,Win32,145.6876457,Chrome,1536,864,,,,,1,1174,,,,,,,,,,,,,,,,,146,H,star,1,0,,,,,,,,,,,,,,,,repeat,number,numRpt,d,0.3688,Hi,,,,,,2,,,,,,,,high,29,0,29,0,1,,,,,,,,,
298339,2022-12-07_09h15.59.970,vts_reward_expectancy_bt,2022.2.4,Win32,145.6876457,Chrome,1536,864,,,,,10,1184,,,,,,,,,,,,,,,,,125,B,hexagon,1,0,,,,,,,,,,,,,,,,repeat,number,numRpt,d,0.4671,Lo,,,,,,2,,,,,,,,high,30,0,30,0,1,,,,,,,,,
298339,2022-12-07_09h15.59.970,vts_reward_expectancy_bt,2022.2.4,Win32,145.6876457,Chrome,1536,864,,,,,0,1184,,,,,,,,,,,,,,,,,167,F,triangle,1,0,,,,,,,,,,,,,,,,repeat,number,numRpt,f,0.5184,Hi,,,,,,2,,,,,,,,high,31,0,31,0,1,,,,,,,,,
298339,2022-12-07_09h15.59.970,vts_reward_expectancy_bt,2022.2.4,Win32,145.6876457,Chrome,1536,864,,,,,0,1184,,,,,,,,,,,,,,,,,125,W,circle,0,0,,,,,,,,,,,,,,,,switch,letter,NA,j,0.6597,Hi,,,,,,3,,,,,,space,0.9029,high,0,0,0,0,1,,,,,,,,,
298339,2022-12-07_09h15.59.970,vts_reward_expectancy_bt,2022.2.4,Win32,145.6876457,Chrome,1536,864,,,,,1,1185,,,,,,,,,,,,,,,,,181,D,star,1,1,,,,,,,,,,,,,,,,switch,number,numSwt,f,0.45,Hi,,,,,,3,,,,,,,,high,1,0,1,0,1,,,,,,,,,
298339,2022-12-07_09h15.59.970,vts_reward_expectancy_bt,2022.2.4,Win32,145.6876457,Chrome,1536,864,,,,,1,1186,,,,,,,,,,,,,,,,,139,H,hexagon,1,0,,,,,,,,,,,,,,,,repeat,number,numRpt,d,0.5641,Lo,,,,,,3,,,,,,,,high,2,0,2,0,1,,,,,,,,,
298339,2022-12-07_09h15.59.970,vts_reward_expectancy_bt,2022.2.4,Win32,145.6876457,Chrome,1536,864,,,,,10,1196,,,,,,,,,,,,,,,,,160,U,triangle,1,0,,,,,,,,,,,,,,,,repeat,number,numRpt,f,0.4142,Hi,,,,,,3,,,,,,,,high,3,0,3,0,1,,,,,,,,,
298339,2022-12-07_09h15.59.970,vts_reward_expectancy_bt,2022.2.4,Win32,145.6876457,Chrome,1536,864,,,,,1,1197,,,,,,,,,,,,,,,,,174,F,circle,1,0,,,,,,,,,,,,,,,,repeat,number,numRpt,f,0.4709,Lo,,,,,,3,,,,,,,,high,4,0,4,0,1,,,,,,,,,
298339,2022-12-07_09h15.59.970,vts_reward_expectancy_bt,2022.2.4,Win32,145.6876457,Chrome,1536,864,,,,,0,1197,,,,,,,,,,,,,,,,,132,B,star,0,0,,,,,,,,,,,,,,,,repeat,number,NA,f,0.4424,Lo,,,,,,3,,,,,,,,high,5,0,5,0,1,,,,,,,,,
298339,2022-12-07_09h15.59.970,vts_reward_expectancy_bt,2022.2.4,Win32,145.6876457,Chrome,1536,864,,,,,1,1198,,,,,,,,,,,,,,,,,146,S,hexagon,1,1,,,,,,,,,,,,,,,,repeat,number,numRpt,d,0.572,Lo,,,,,,3,,,,,,,,high,6,0,6,0,1,,,,,,,,,
298339,2022-12-07_09h15.59.970,vts_reward_expectancy_bt,2022.2.4,Win32,145.6876457,Chrome,1536,864,,,,,0,1198,,,,,,,,,,,,,,,,,167,Y,triangle,1,0,,,,,,,,,,,,,,,,repeat,number,numRpt,f,0.5068,Hi,,,,,,3,,,,,,,,high,7,0,7,0,1,,,,,,,,,
298339,2022-12-07_09h15.59.970,vts_reward_expectancy_bt,2022.2.4,Win32,145.6876457,Chrome,1536,864,,,,,10,1208,,,,,,,,,,,,,,,,,125,W,triangle,1,0,,,,,,,,,,,,,,,,repeat,number,numRpt,d,0.4104,Hi,,,,,,3,,,,,,,,high,8,0,8,0,1,,,,,,,,,
298339,2022-12-07_09h15.59.970,vts_reward_expectancy_bt,2022.2.4,Win32,145.6876457,Chrome,1536,864,,,,,1,1209,,,,,,,,,,,,,,,,,181,D,circle,1,0,,,,,,,,,,,,,,,,repeat,number,numRpt,f,0.4072,Lo,,,,,,3,,,,,,,,high,9,0,9,0,1,,,,,,,,,
298339,2022-12-07_09h15.59.970,vts_reward_expectancy_bt,2022.2.4,Win32,145.6876457,Chrome,1536,864,,,,,0,1209,,,,,,,,,,,,,,,,,139,H,star,0,0,,,,,,,,,,,,,,,,repeat,number,NA,f,0.4529,Lo,,,,,,3,,,,,,,,high,10,0,10,0,1,,,,,,,,,
298339,2022-12-07_09h15.59.970,vts_reward_expectancy_bt,2022.2.4,Win32,145.6876457,Chrome,1536,864,,,,,1,1210,,,,,,,,,,,,,,,,,160,U,hexagon,1,1,,,,,,,,,,,,,,,,repeat,number,numRpt,f,0.4279,Lo,,,,,,3,,,,,,,,high,11,0,11,0,1,,,,,,,,,
298339,2022-12-07_09h15.59.970,vts_reward_expectancy_bt,2022.2.4,Win32,145.6876457,Chrome,1536,864,,,,,0,1210,,,,,,,,,,,,,,,,,174,F,star,1,0,,,,,,,,,,,,,,,,repeat,number,numRpt,f,0.4805,Hi,,,,,,3,,,,,,,,high,12,0,12,0,1,,,,,,,,,
298339,2022-12-07_09h15.59.970,vts_reward_expectancy_bt,2022.2.4,Win32,145.6876457,Chrome,1536,864,,,,,0,1210,,,,,,,,,,,,,,,,,132,B,triangle,1,0,,,,,,,,,,,,,,,,repeat,number,numRpt,d,0.5182,Hi,,,,,,3,,,,,,,,high,13,0,13,0,1,,,,,,,,,
298339,2022-12-07_09h15.59.970,vts_reward_expectancy_bt,2022.2.4,Win32,145.6876457,Chrome,1536,864,,,,,0,1210,,,,,,,,,,,,,,,,,146,S,circle,0,0,,,,,,,,,,,,,,,,repeat,number,NA,f,0.4079,Hi,,,,,,3,,,,,,,,high,14,0,14,0,1,,,,,,,,,
298339,2022-12-07_09h15.59.970,vts_reward_expectancy_bt,2022.2.4,Win32,145.6876457,Chrome,1536,864,,,,,1,1211,,,,,,,,,,,,,,,,,167,Y,hexagon,1,1,,,,,,,,,,,,,,,,repeat,number,numRpt,f,0.4311,Lo,,,,,,3,,,,,,,,high,15,0,15,0,1,,,,,,,,,
298339,2022-12-07_09h15.59.970,vts_reward_expectancy_bt,2022.2.4,Win32,145.6876457,Chrome,1536,864,,,,,1,1212,,,,,,,,,,,,,,,,,160,F,triangle,1,0,,,,,,,,,,,,,,,,repeat,number,numRpt,f,0.4016,Hi,,,,,,3,,,,,,,,high,16,0,16,0,1,,,,,,,,,
298339,2022-12-07_09h15.59.970,vts_reward_expectancy_bt,2022.2.4,Win32,145.6876457,Chrome,1536,864,,,,,1,1213,,,,,,,,,,,,,,,,,132,W,hexagon,1,0,,,,,,,,,,,,,,,,repeat,number,numRpt,d,0.4383,Lo,,,,,,3,,,,,,,,high,17,0,17,0,1,,,,,,,,,
298339,2022-12-07_09h15.59.970,vts_reward_expectancy_bt,2022.2.4,Win32,145.6876457,Chrome,1536,864,,,,,0,1213,,,,,,,,,,,,,,,,,174,B,circle,0,0,,,,,,,,,,,,,,,,repeat,number,NA,d,0.4287,Lo,,,,,,3,,,,,,,,high,18,0,18,0,1,,,,,,,,,
298339,2022-12-07_09h15.59.970,vts_reward_expectancy_bt,2022.2.4,Win32,145.6876457,Chrome,1536,864,,,,,10,1223,,,,,,,,,,,,,,,,,125,Y,star,1,1,,,,,,,,,,,,,,,,repeat,number,numRpt,d,0.4004,Hi,,,,,,3,,,,,,,,high,19,0,19,0,1,,,,,,,,,
298339,2022-12-07_09h15.59.970,vts_reward_expectancy_bt,2022.2.4,Win32,145.6876457,Chrome,1536,864,,,,,1,1224,,,,,,,,,,,,,,,,,167,S,hexagon,1,0,,,,,,,,,,,,,,,,repeat,number,numRpt,f,0.3818,Lo,,,,,,3,,,,,,,,high,20,0,20,0,1,,,,,,,,,
298339,2022-12-07_09h15.59.970,vts_reward_expectancy_bt,2022.2.4,Win32,145.6876457,Chrome,1536,864,,,,,1,1225,,,,,,,,,,,,,,,,,139,U,star,1,0,,,,,,,,,,,,,,,,repeat,number,numRpt,d,0.4367,Hi,,,,,,3,,,,,,,,high,21,0,21,0,1,,,,,,,,,
298339,2022-12-07_09h15.59.970,vts_reward_expectancy_bt,2022.2.4,Win32,145.6876457,Chrome,1536,864,,,,,0,1225,,,,,,,,,,,,,,,,,146,D,triangle,1,0,,,,,,,,,,,,,,,,repeat,number,numRpt,d,0.5214,Hi,,,,,,3,,,,,,,,high,22,0,22,0,1,,,,,,,,,
298339,2022-12-07_09h15.59.970,vts_reward_expectancy_bt,2022.2.4,Win32,145.6876457,Chrome,1536,864,,,,,1,1226,,,,,,,,,,,,,,,,,181,H,circle,1,0,,,,,,,,,,,,,,,,repeat,number,numRpt,f,0.3718,Lo,,,,,,3,,,,,,,,high,23,0,23,0,1,,,,,,,,,
298339,2022-12-07_09h15.59.970,vts_reward_expectancy_bt,2022.2.4,Win32,145.6876457,Chrome,1536,864,,,,,0,1226,,,,,,,,,,,,,,,,,174,D,star,1,0,,,,,,,,,,,,,,,,repeat,number,numRpt,f,0.4752,Hi,,,,,,3,,,,,,,,high,24,0,24,0,1,,,,,,,,,
298339,2022-12-07_09h15.59.970,vts_reward_expectancy_bt,2022.2.4,Win32,145.6876457,Chrome,1536,864,,,,,0,1226,,,,,,,,,,,,,,,,,132,B,triangle,1,0,,,,,,,,,,,,,,,,repeat,number,numRpt,d,0.5442,Hi,,,,,,3,,,,,,,,high,25,0,25,0,1,,,,,,,,,
298339,2022-12-07_09h15.59.970,vts_reward_expectancy_bt,2022.2.4,Win32,145.6876457,Chrome,1536,864,,,,,10,1236,,,,,,,,,,,,,,,,,146,W,hexagon,1,0,,,,,,,,,,,,,,,,repeat,number,numRpt,d,0.4396,Lo,,,,,,3,,,,,,,,high,26,0,26,0,1,,,,,,,,,
298339,2022-12-07_09h15.59.970,vts_reward_expectancy_bt,2022.2.4,Win32,145.6876457,Chrome,1536,864,,,,,1,1237,,,,,,,,,,,,,,,,,139,H,circle,1,0,,,,,,,,,,,,,,,,repeat,number,numRpt,d,0.4294,Lo,,,,,,3,,,,,,,,high,27,0,27,0,1,,,,,,,,,
298339,2022-12-07_09h15.59.970,vts_reward_expectancy_bt,2022.2.4,Win32,145.6876457,Chrome,1536,864,,,,,10,1247,,,,,,,,,,,,,,,,,160,S,triangle,1,0,,,,,,,,,,,,,,,,repeat,number,numRpt,f,0.3962,Hi,,,,,,3,,,,,,,,high,28,0,28,0,1,,,,,,,,,
298339,2022-12-07_09h15.59.970,vts_reward_expectancy_bt,2022.2.4,Win32,145.6876457,Chrome,1536,864,,,,,0,1247,,,,,,,,,,,,,,,,,125,F,hexagon,0,0,,,,,,,,,,,,,,,,repeat,number,NA,f,0.4121,Hi,,,,,,3,,,,,,,,high,29,0,29,0,1,,,,,,,,,
298339,2022-12-07_09h15.59.970,vts_reward_expectancy_bt,2022.2.4,Win32,145.6876457,Chrome,1536,864,,,,,1,1248,,,,,,,,,,,,,,,,,167,Y,circle,1,1,,,,,,,,,,,,,,,,repeat,number,numRpt,f,0.4962,Lo,,,,,,3,,,,,,,,high,30,0,30,0,1,,,,,,,,,
298339,2022-12-07_09h15.59.970,vts_reward_expectancy_bt,2022.2.4,Win32,145.6876457,Chrome,1536,864,,,,,10,1258,,,,,,,,,,,,,,,,,181,U,star,1,0,,,,,,,,,,,,,,,,repeat,number,numRpt,f,0.3915,Hi,,,,,,3,,,,,,,,high,31,0,31,0,1,,,,,,,,,
298339,2022-12-07_09h15.59.970,vts_reward_expectancy_bt,2022.2.4,Win32,145.6876457,Chrome,1536,864,,,,,0,1258,,,,,,,,,,,,,,,,,167,D,star,1,0,,,,,,,,,,,,,,,,repeat,number,numRpt,f,0.4612,Hi,,,,,,4,,,,,,space,0.5824,high,0,0,0,0,1,,,,,,,,,
298339,2022-12-07_09h15.59.970,vts_reward_expectancy_bt,2022.2.4,Win32,145.6876457,Chrome,1536,864,,,,,10,1268,,,,,,,,,,,,,,,,,125,U,triangle,1,0,,,,,,,,,,,,,,,,repeat,number,numRpt,d,0.3923,Hi,,,,,,4,,,,,,,,high,1,0,1,0,1,,,,,,,,,
298339,2022-12-07_09h15.59.970,vts_reward_expectancy_bt,2022.2.4,Win32,145.6876457,Chrome,1536,864,,,,,1,1269,,,,,,,,,,,,,,,,,181,W,hexagon,1,0,,,,,,,,,,,,,,,,repeat,number,numRpt,f,0.5377,Lo,,,,,,4,,,,,,,,high,2,0,2,0,1,,,,,,,,,
298339,2022-12-07_09h15.59.970,vts_reward_expectancy_bt,2022.2.4,Win32,145.6876457,Chrome,1536,864,,,,,0,1269,,,,,,,,,,,,,,,,,160,S,circle,0,0,,,,,,,,,,,,,,,,repeat,number,NA,d,0.3263,Lo,,,,,,4,,,,,,,,high,3,0,3,0,1,,,,,,,,,
298339,2022-12-07_09h15.59.970,vts_reward_expectancy_bt,2022.2.4,Win32,145.6876457,Chrome,1536,864,,,,,0,1269,,,,,,,,,,,,,,,,,132,F,star,1,1,,,,,,,,,,,,,,,,repeat,number,numRpt,d,0.4509,Hi,,,,,,4,,,,,,,,high,4,0,4,0,1,,,,,,,,,
298339,2022-12-07_09h15.59.970,vts_reward_expectancy_bt,2022.2.4,Win32,145.6876457,Chrome,1536,864,,,,,10,1279,,,,,,,,,,,,,,,,,174,B,triangle,1,0,,,,,,,,,,,,,,,,switch,letter,lettSwt,j,0.3965,Hi,,,,,,4,,,,,,,,high,5,0,5,0,1,,,,,,,,,
298339,2022-12-07_09h15.59.970,vts_reward_expectancy_bt,2022.2.4,Win32,145.6876457,Chrome,1536,864,,,,,1,1280,,,,,,,,,,,,,,,,,139,Y,hexagon,1,0,,,,,,,,,,,,,,,,repeat,letter,lettRpt,k,0.4665,Lo,,,,,,4,,,,,,,,high,6,0,6,0,1,,,,,,,,,
