participant,date,expName,psychopyVersion,OS,frameRate,browser,xResolution,yResolution,key_resp.keys,key_resp.rt,training_resp.keys,training_resp.rt,points_trial,points_cumul,trainBlock,training.thisRepN,training.thisTrialN,training.thisN,training.thisIndex,training.ran,LTriangleOpac,LCircleOpac,LHexagonOpac,LStarOpac,RTriangleOpac,RCircleOpac,RHexagonOpac,RStarOpac,LShape_ID,RShape_ID,curr_topStim,curr_bottStim,curr_shape,acc,E1,target_resp_prac1.keys,target_resp_prac1.rt,pracBlock,task1_prac_trials.thisRepN,task1_prac_trials.thisTrialN,task1_prac_trials.thisN,task1_prac_trials.thisIndex,task1_prac_trials.ran,target_resp_prac2.keys,target_resp_prac2.rt,task2_praac_trials.thisRepN,task2_praac_trials.thisTrialN,task2_praac_trials.thisN,task2_praac_trials.thisIndex,task2_praac_trials.ran,alt,task,condition,target_resp.keys,target_resp.rt,rewCond,vts_practice_trials.thisRepN,vts_practice_trials.thisTrialN,vts_practice_trials.thisN,vts_practice_trials.thisIndex,vts_practice_trials.ran,blockNum,trials_norew.thisRepN,trials_norew.thisTrialN,trials_norew.thisN,trials_norew.thisIndex,trials_norew.ran,key_resp_2.keys,key_resp_2.rt,rewExpectancy,trials_rew.thisRepN,trials_rew.thisTrialN,trials_rew.thisN,trials_rew.thisIndex,trials_rew.ran,Q1,Q2,Q2_text,Q3,Q4,Q5_text,Q5,xRes,yRes
298306,2022-12-01_14h06.21.388,vts_reward_expectancy_bt,2022.2.4,MacIntel,58.96226415,Firefox,1440,900,,,,,,,,,,,,,,,,,,,,,,,,,,,,,,,,,,,,,,,,,,,,,,,,,,,,,,,,,,,,,,,,,,,,,,,,,,,,
298306,2022-12-01_14h06.21.388,vts_reward_expectancy_bt,2022.2.4,MacIntel,58.96226415,Firefox,1440,900,space,29.954,,,,,,,,,,,,,,,,,,,,,,,,,,,,,,,,,,,,,,,,,,,,,,,,,,,,,,,,,,,,,,,,,,,,,,,,,,
298306,2022-12-01_14h06.21.388,vts_reward_expectancy_bt,2022.2.4,MacIntel,58.96226415,Firefox,1440,900,,,,,,,,,,,,,,,,,,,,,,,,,,,,,,,,,,,,,,,,,,,,,,,,,,,,,,,,,,,,,,,,,,,,,,,,,,,,
298306,2022-12-01_14h06.21.388,vts_reward_expectancy_bt,2022.2.4,MacIntel,58.96226415,Firefox,1440,900,,,a,5.283,1,1,0,0,0,0,8,1,0,0,1,0,0,0,0,1,hexagon,star,,,,,,,,,,,,,,,,,,,,,,,,,,,,,,,,,,,,,,,,,,,,,,,,,,,,,,
298306,2022-12-01_14h06.21.388,vts_reward_expectancy_bt,2022.2.4,MacIntel,58.96226415,Firefox,1440,900,,,l,4.946,1,2,0,0,1,1,7,1,0,0,1,0,0,1,0,0,hexagon,circle,,,,,,,,,,,,,,,,,,,,,,,,,,,,,,,,,,,,,,,,,,,,,,,,,,,,,,
298306,2022-12-01_14h06.21.388,vts_reward_expectancy_bt,2022.2.4,MacIntel,58.96226415,Firefox,1440,900,,,a,2.249,1,3,0,0,2,2,1,1,1,0,0,0,0,0,1,0,triangle,hexagon,,,,,,,,,,,,,,,,,,,,,,,,,,,,,,,,,,,,,,,,,,,,,,,,,,,,,,
298306,2022-12-01_14h06.21.388,vts_reward_expectancy_bt,2022.2.4,MacIntel,58.96226415,Firefox,1440,900,,,a,1.216,10,13,0,0,3,3,9,1,0,0,0,1,1,0,0,0,star,triangle,,,,,,,,,,,,,,,,,,,,,,,,,,,,,,,,,,,,,,,,,,,,,,,,,,,,,,
298306,2022-12-01_14h06.21.388,vts_reward_expectancy_bt,2022.2.4,MacIntel,58.96226415,Firefox,1440,900,,,l,1.247,10,23,0,0,4,4,3,1,0,1,0,0,1,0,0,0,circle,triangle,,,,,,,,,,,,,,,,,,,,,,,,,,,,,,,,,,,,,,,,,,,,,,,,,,,,,,
298306,2022-12-01_14h06.21.388,vts_reward_expectancy_bt,2022.2.4,MacIntel,58.96226415,Firefox,1440,900,,,l,1.019,1,24,0,0,5,5,6,1,0,0,1,0,1,0,0,0,hexagon,triangle,,,,,,,,,,,,,,,,,,,,,,,,,,,,,,,,,,,,,,,,,,,,,,,,,,,,,,
298306,2022-12-01_14h06.21.388,vts_reward_expectancy_bt,2022.2.4,MacIntel,58.96226415,Firefox,1440,900,,,a,1.034,10,34,0,0,6,6,11,1,0,0,0,1,0,0,1,0,star,hexagon,,,,,,,,,,,,,,,,,,,,,,,,,,,,,,,,,,,,,,,,,,,,,,,,,,,,,,
298306,2022-12-01_14h06.21.388,vts_reward_expectancy_bt,2022.2.4,MacIntel,58.96226415,Firefox,1440,900,,,l,0.768,1,35,0,0,7,7,4,1,0,1,0,0,0,0,1,0,circle,hexagon,,,,,,,,,,,,,,,,,,,,,,,,,,,,,,,,,,,,,,,,,,,,,,,,,,,,,,
298306,2022-12-01_14h06.21.388,vts_reward_expectancy_bt,2022.2.4,MacIntel,58.96226415,Firefox,1440,900,,,l,1.633,1,36,0,0,8,8,0,1,1,0,0,0,0,1,0,0,triangle,circle,,,,,,,,,,,,,,,,,,,,,,,,,,,,,,,,,,,,,,,,,,,,,,,,,,,,,,
298306,2022-12-01_14h06.21.388,vts_reward_expectancy_bt,2022.2.4,MacIntel,58.96226415,Firefox,1440,900,,,l,0.715,1,37,0,0,9,9,5,1,0,1,0,0,0,0,0,1,circle,star,,,,,,,,,,,,,,,,,,,,,,,,,,,,,,,,,,,,,,,,,,,,,,,,,,,,,,
298306,2022-12-01_14h06.21.388,vts_reward_expectancy_bt,2022.2.4,MacIntel,58.96226415,Firefox,1440,900,,,l,0.448,1,38,0,0,10,10,10,1,0,0,0,1,0,1,0,0,star ,circle,,,,,,,,,,,,,,,,,,,,,,,,,,,,,,,,,,,,,,,,,,,,,,,,,,,,,,
298306,2022-12-01_14h06.21.388,vts_reward_expectancy_bt,2022.2.4,MacIntel,58.96226415,Firefox,1440,900,,,a,1.26,10,48,0,0,11,11,2,1,1,0,0,0,0,0,0,1,triangle,star,,,,,,,,,,,,,,,,,,,,,,,,,,,,,,,,,,,,,,,,,,,,,,,,,,,,,,
298306,2022-12-01_14h06.21.388,vts_reward_expectancy_bt,2022.2.4,MacIntel,58.96226415,Firefox,1440,900,,,a,2.197,10,58,0,1,0,12,11,1,0,0,0,1,0,0,1,0,star,hexagon,,,,,,,,,,,,,,,,,,,,,,,,,,,,,,,,,,,,,,,,,,,,,,,,,,,,,,
298306,2022-12-01_14h06.21.388,vts_reward_expectancy_bt,2022.2.4,MacIntel,58.96226415,Firefox,1440,900,,,l,1.545,10,68,0,1,1,13,5,1,0,1,0,0,0,0,0,1,circle,star,,,,,,,,,,,,,,,,,,,,,,,,,,,,,,,,,,,,,,,,,,,,,,,,,,,,,,
298306,2022-12-01_14h06.21.388,vts_reward_expectancy_bt,2022.2.4,MacIntel,58.96226415,Firefox,1440,900,,,a,1.964,1,69,0,1,2,14,7,1,0,0,1,0,0,1,0,0,hexagon,circle,,,,,,,,,,,,,,,,,,,,,,,,,,,,,,,,,,,,,,,,,,,,,,,,,,,,,,
298306,2022-12-01_14h06.21.388,vts_reward_expectancy_bt,2022.2.4,MacIntel,58.96226415,Firefox,1440,900,,,l,1.384,10,79,0,1,3,15,8,1,0,0,1,0,0,0,0,1,hexagon,star,,,,,,,,,,,,,,,,,,,,,,,,,,,,,,,,,,,,,,,,,,,,,,,,,,,,,,
298306,2022-12-01_14h06.21.388,vts_reward_expectancy_bt,2022.2.4,MacIntel,58.96226415,Firefox,1440,900,,,l,0.638,1,80,0,1,4,16,0,1,1,0,0,0,0,1,0,0,triangle,circle,,,,,,,,,,,,,,,,,,,,,,,,,,,,,,,,,,,,,,,,,,,,,,,,,,,,,,
298306,2022-12-01_14h06.21.388,vts_reward_expectancy_bt,2022.2.4,MacIntel,58.96226415,Firefox,1440,900,,,l,0.418,1,81,0,1,5,17,3,1,0,1,0,0,1,0,0,0,circle,triangle,,,,,,,,,,,,,,,,,,,,,,,,,,,,,,,,,,,,,,,,,,,,,,,,,,,,,,
298306,2022-12-01_14h06.21.388,vts_reward_expectancy_bt,2022.2.4,MacIntel,58.96226415,Firefox,1440,900,,,a,0.97,1,82,0,1,6,18,9,1,0,0,0,1,1,0,0,0,star,triangle,,,,,,,,,,,,,,,,,,,,,,,,,,,,,,,,,,,,,,,,,,,,,,,,,,,,,,
298306,2022-12-01_14h06.21.388,vts_reward_expectancy_bt,2022.2.4,MacIntel,58.96226415,Firefox,1440,900,,,l,1.234,10,92,0,1,7,19,10,1,0,0,0,1,0,1,0,0,star ,circle,,,,,,,,,,,,,,,,,,,,,,,,,,,,,,,,,,,,,,,,,,,,,,,,,,,,,,
298306,2022-12-01_14h06.21.388,vts_reward_expectancy_bt,2022.2.4,MacIntel,58.96226415,Firefox,1440,900,,,a,1.334,10,102,0,1,8,20,2,1,1,0,0,0,0,0,0,1,triangle,star,,,,,,,,,,,,,,,,,,,,,,,,,,,,,,,,,,,,,,,,,,,,,,,,,,,,,,
298306,2022-12-01_14h06.21.388,vts_reward_expectancy_bt,2022.2.4,MacIntel,58.96226415,Firefox,1440,900,,,a,1.486,10,112,0,1,9,21,1,1,1,0,0,0,0,0,1,0,triangle,hexagon,,,,,,,,,,,,,,,,,,,,,,,,,,,,,,,,,,,,,,,,,,,,,,,,,,,,,,
298306,2022-12-01_14h06.21.388,vts_reward_expectancy_bt,2022.2.4,MacIntel,58.96226415,Firefox,1440,900,,,a,1.229,1,113,0,1,10,22,4,1,0,1,0,0,0,0,1,0,circle,hexagon,,,,,,,,,,,,,,,,,,,,,,,,,,,,,,,,,,,,,,,,,,,,,,,,,,,,,,
298306,2022-12-01_14h06.21.388,vts_reward_expectancy_bt,2022.2.4,MacIntel,58.96226415,Firefox,1440,900,,,l,0.745,10,123,0,1,11,23,6,1,0,0,1,0,1,0,0,0,hexagon,triangle,,,,,,,,,,,,,,,,,,,,,,,,,,,,,,,,,,,,,,,,,,,,,,,,,,,,,,
298306,2022-12-01_14h06.21.388,vts_reward_expectancy_bt,2022.2.4,MacIntel,58.96226415,Firefox,1440,900,,,a,1.252,10,133,0,2,0,24,8,1,0,0,1,0,0,0,0,1,hexagon,star,,,,,,,,,,,,,,,,,,,,,,,,,,,,,,,,,,,,,,,,,,,,,,,,,,,,,,
298306,2022-12-01_14h06.21.388,vts_reward_expectancy_bt,2022.2.4,MacIntel,58.96226415,Firefox,1440,900,,,l,1.107,1,134,0,2,1,25,11,1,0,0,0,1,0,0,1,0,star,hexagon,,,,,,,,,,,,,,,,,,,,,,,,,,,,,,,,,,,,,,,,,,,,,,,,,,,,,,
298306,2022-12-01_14h06.21.388,vts_reward_expectancy_bt,2022.2.4,MacIntel,58.96226415,Firefox,1440,900,,,a,0.8,10,144,0,2,2,26,2,1,1,0,0,0,0,0,0,1,triangle,star,,,,,,,,,,,,,,,,,,,,,,,,,,,,,,,,,,,,,,,,,,,,,,,,,,,,,,
298306,2022-12-01_14h06.21.388,vts_reward_expectancy_bt,2022.2.4,MacIntel,58.96226415,Firefox,1440,900,,,a,1.402,1,145,0,2,3,27,1,1,1,0,0,0,0,0,1,0,triangle,hexagon,,,,,,,,,,,,,,,,,,,,,,,,,,,,,,,,,,,,,,,,,,,,,,,,,,,,,,
298306,2022-12-01_14h06.21.388,vts_reward_expectancy_bt,2022.2.4,MacIntel,58.96226415,Firefox,1440,900,,,l,1.337,10,155,0,2,4,28,9,1,0,0,0,1,1,0,0,0,star,triangle,,,,,,,,,,,,,,,,,,,,,,,,,,,,,,,,,,,,,,,,,,,,,,,,,,,,,,
298306,2022-12-01_14h06.21.388,vts_reward_expectancy_bt,2022.2.4,MacIntel,58.96226415,Firefox,1440,900,,,l,0.867,1,156,0,2,5,29,7,1,0,0,1,0,0,1,0,0,hexagon,circle,,,,,,,,,,,,,,,,,,,,,,,,,,,,,,,,,,,,,,,,,,,,,,,,,,,,,,
298306,2022-12-01_14h06.21.388,vts_reward_expectancy_bt,2022.2.4,MacIntel,58.96226415,Firefox,1440,900,,,a,1.671,1,157,0,2,6,30,10,1,0,0,0,1,0,1,0,0,star ,circle,,,,,,,,,,,,,,,,,,,,,,,,,,,,,,,,,,,,,,,,,,,,,,,,,,,,,,
298306,2022-12-01_14h06.21.388,vts_reward_expectancy_bt,2022.2.4,MacIntel,58.96226415,Firefox,1440,900,,,l,0.765,10,167,0,2,7,31,3,1,0,1,0,0,1,0,0,0,circle,triangle,,,,,,,,,,,,,,,,,,,,,,,,,,,,,,,,,,,,,,,,,,,,,,,,,,,,,,
298306,2022-12-01_14h06.21.388,vts_reward_expectancy_bt,2022.2.4,MacIntel,58.96226415,Firefox,1440,900,,,l,1.133,1,168,0,2,8,32,4,1,0,1,0,0,0,0,1,0,circle,hexagon,,,,,,,,,,,,,,,,,,,,,,,,,,,,,,,,,,,,,,,,,,,,,,,,,,,,,,
298306,2022-12-01_14h06.21.388,vts_reward_expectancy_bt,2022.2.4,MacIntel,58.96226415,Firefox,1440,900,,,a,2.907,1,169,0,2,9,33,5,1,0,1,0,0,0,0,0,1,circle,star,,,,,,,,,,,,,,,,,,,,,,,,,,,,,,,,,,,,,,,,,,,,,,,,,,,,,,
298306,2022-12-01_14h06.21.388,vts_reward_expectancy_bt,2022.2.4,MacIntel,58.96226415,Firefox,1440,900,,,a,1.098,1,170,0,2,10,34,0,1,1,0,0,0,0,1,0,0,triangle,circle,,,,,,,,,,,,,,,,,,,,,,,,,,,,,,,,,,,,,,,,,,,,,,,,,,,,,,
298306,2022-12-01_14h06.21.388,vts_reward_expectancy_bt,2022.2.4,MacIntel,58.96226415,Firefox,1440,900,,,a,1.414,1,171,0,2,11,35,6,1,0,0,1,0,1,0,0,0,hexagon,triangle,,,,,,,,,,,,,,,,,,,,,,,,,,,,,,,,,,,,,,,,,,,,,,,,,,,,,,
298306,2022-12-01_14h06.21.388,vts_reward_expectancy_bt,2022.2.4,MacIntel,58.96226415,Firefox,1440,900,,,a,1.399,1,172,1,0,0,0,0,1,1,0,0,0,0,1,0,0,triangle,circle,,,,,,,,,,,,,,,,,,,,,,,,,,,,,,,,,,,,,,,,,,,,,,,,,,,,,,
298306,2022-12-01_14h06.21.388,vts_reward_expectancy_bt,2022.2.4,MacIntel,58.96226415,Firefox,1440,900,,,l,0.552,10,182,1,0,1,1,7,1,0,0,1,0,0,1,0,0,hexagon,circle,,,,,,,,,,,,,,,,,,,,,,,,,,,,,,,,,,,,,,,,,,,,,,,,,,,,,,
298306,2022-12-01_14h06.21.388,vts_reward_expectancy_bt,2022.2.4,MacIntel,58.96226415,Firefox,1440,900,,,a,1.201,1,183,1,0,2,2,11,1,0,0,0,1,0,0,1,0,star,hexagon,,,,,,,,,,,,,,,,,,,,,,,,,,,,,,,,,,,,,,,,,,,,,,,,,,,,,,
298306,2022-12-01_14h06.21.388,vts_reward_expectancy_bt,2022.2.4,MacIntel,58.96226415,Firefox,1440,900,,,a,0.901,1,184,1,0,3,3,3,1,0,1,0,0,1,0,0,0,circle,triangle,,,,,,,,,,,,,,,,,,,,,,,,,,,,,,,,,,,,,,,,,,,,,,,,,,,,,,
298306,2022-12-01_14h06.21.388,vts_reward_expectancy_bt,2022.2.4,MacIntel,58.96226415,Firefox,1440,900,,,a,0.636,10,194,1,0,4,4,1,1,1,0,0,0,0,0,1,0,triangle,hexagon,,,,,,,,,,,,,,,,,,,,,,,,,,,,,,,,,,,,,,,,,,,,,,,,,,,,,,
298306,2022-12-01_14h06.21.388,vts_reward_expectancy_bt,2022.2.4,MacIntel,58.96226415,Firefox,1440,900,,,l,1.167,1,195,1,0,5,5,5,1,0,1,0,0,0,0,0,1,circle,star,,,,,,,,,,,,,,,,,,,,,,,,,,,,,,,,,,,,,,,,,,,,,,,,,,,,,,
298306,2022-12-01_14h06.21.388,vts_reward_expectancy_bt,2022.2.4,MacIntel,58.96226415,Firefox,1440,900,,,a,0.813,1,196,1,0,6,6,2,1,1,0,0,0,0,0,0,1,triangle,star,,,,,,,,,,,,,,,,,,,,,,,,,,,,,,,,,,,,,,,,,,,,,,,,,,,,,,
298306,2022-12-01_14h06.21.388,vts_reward_expectancy_bt,2022.2.4,MacIntel,58.96226415,Firefox,1440,900,,,a,0.512,1,197,1,0,7,7,10,1,0,0,0,1,0,1,0,0,star ,circle,,,,,,,,,,,,,,,,,,,,,,,,,,,,,,,,,,,,,,,,,,,,,,,,,,,,,,
298306,2022-12-01_14h06.21.388,vts_reward_expectancy_bt,2022.2.4,MacIntel,58.96226415,Firefox,1440,900,,,l,2.029,10,207,1,0,8,8,4,1,0,1,0,0,0,0,1,0,circle,hexagon,,,,,,,,,,,,,,,,,,,,,,,,,,,,,,,,,,,,,,,,,,,,,,,,,,,,,,
298306,2022-12-01_14h06.21.388,vts_reward_expectancy_bt,2022.2.4,MacIntel,58.96226415,Firefox,1440,900,,,l,1.348,1,208,1,0,9,9,6,1,0,0,1,0,1,0,0,0,hexagon,triangle,,,,,,,,,,,,,,,,,,,,,,,,,,,,,,,,,,,,,,,,,,,,,,,,,,,,,,
298306,2022-12-01_14h06.21.388,vts_reward_expectancy_bt,2022.2.4,MacIntel,58.96226415,Firefox,1440,900,,,l,1.602,10,218,1,0,10,10,9,1,0,0,0,1,1,0,0,0,star,triangle,,,,,,,,,,,,,,,,,,,,,,,,,,,,,,,,,,,,,,,,,,,,,,,,,,,,,,
298306,2022-12-01_14h06.21.388,vts_reward_expectancy_bt,2022.2.4,MacIntel,58.96226415,Firefox,1440,900,,,l,1.098,1,219,1,0,11,11,8,1,0,0,1,0,0,0,0,1,hexagon,star,,,,,,,,,,,,,,,,,,,,,,,,,,,,,,,,,,,,,,,,,,,,,,,,,,,,,,
298306,2022-12-01_14h06.21.388,vts_reward_expectancy_bt,2022.2.4,MacIntel,58.96226415,Firefox,1440,900,,,a,1.071,1,220,1,1,0,12,8,1,0,0,1,0,0,0,0,1,hexagon,star,,,,,,,,,,,,,,,,,,,,,,,,,,,,,,,,,,,,,,,,,,,,,,,,,,,,,,
298306,2022-12-01_14h06.21.388,vts_reward_expectancy_bt,2022.2.4,MacIntel,58.96226415,Firefox,1440,900,,,l,1.032,10,230,1,1,1,13,9,1,0,0,0,1,1,0,0,0,star,triangle,,,,,,,,,,,,,,,,,,,,,,,,,,,,,,,,,,,,,,,,,,,,,,,,,,,,,,
298306,2022-12-01_14h06.21.388,vts_reward_expectancy_bt,2022.2.4,MacIntel,58.96226415,Firefox,1440,900,,,l,1.181,10,240,1,1,2,14,4,1,0,1,0,0,0,0,1,0,circle,hexagon,,,,,,,,,,,,,,,,,,,,,,,,,,,,,,,,,,,,,,,,,,,,,,,,,,,,,,
298306,2022-12-01_14h06.21.388,vts_reward_expectancy_bt,2022.2.4,MacIntel,58.96226415,Firefox,1440,900,,,a,1.963,10,250,1,1,3,15,10,1,0,0,0,1,0,1,0,0,star ,circle,,,,,,,,,,,,,,,,,,,,,,,,,,,,,,,,,,,,,,,,,,,,,,,,,,,,,,
298306,2022-12-01_14h06.21.388,vts_reward_expectancy_bt,2022.2.4,MacIntel,58.96226415,Firefox,1440,900,,,l,0.78,10,260,1,1,4,16,3,1,0,1,0,0,1,0,0,0,circle,triangle,,,,,,,,,,,,,,,,,,,,,,,,,,,,,,,,,,,,,,,,,,,,,,,,,,,,,,
298306,2022-12-01_14h06.21.388,vts_reward_expectancy_bt,2022.2.4,MacIntel,58.96226415,Firefox,1440,900,,,l,1.201,10,270,1,1,5,17,6,1,0,0,1,0,1,0,0,0,hexagon,triangle,,,,,,,,,,,,,,,,,,,,,,,,,,,,,,,,,,,,,,,,,,,,,,,,,,,,,,
298306,2022-12-01_14h06.21.388,vts_reward_expectancy_bt,2022.2.4,MacIntel,58.96226415,Firefox,1440,900,,,l,1.13,1,271,1,1,6,18,2,1,1,0,0,0,0,0,0,1,triangle,star,,,,,,,,,,,,,,,,,,,,,,,,,,,,,,,,,,,,,,,,,,,,,,,,,,,,,,
298306,2022-12-01_14h06.21.388,vts_reward_expectancy_bt,2022.2.4,MacIntel,58.96226415,Firefox,1440,900,,,l,1.483,1,272,1,1,7,19,5,1,0,1,0,0,0,0,0,1,circle,star,,,,,,,,,,,,,,,,,,,,,,,,,,,,,,,,,,,,,,,,,,,,,,,,,,,,,,
298306,2022-12-01_14h06.21.388,vts_reward_expectancy_bt,2022.2.4,MacIntel,58.96226415,Firefox,1440,900,,,l,1.749,1,273,1,1,8,20,1,1,1,0,0,0,0,0,1,0,triangle,hexagon,,,,,,,,,,,,,,,,,,,,,,,,,,,,,,,,,,,,,,,,,,,,,,,,,,,,,,
298306,2022-12-01_14h06.21.388,vts_reward_expectancy_bt,2022.2.4,MacIntel,58.96226415,Firefox,1440,900,,,a,2.254,10,283,1,1,9,21,11,1,0,0,0,1,0,0,1,0,star,hexagon,,,,,,,,,,,,,,,,,,,,,,,,,,,,,,,,,,,,,,,,,,,,,,,,,,,,,,
298306,2022-12-01_14h06.21.388,vts_reward_expectancy_bt,2022.2.4,MacIntel,58.96226415,Firefox,1440,900,,,l,1.799,10,293,1,1,10,22,7,1,0,0,1,0,0,1,0,0,hexagon,circle,,,,,,,,,,,,,,,,,,,,,,,,,,,,,,,,,,,,,,,,,,,,,,,,,,,,,,
298306,2022-12-01_14h06.21.388,vts_reward_expectancy_bt,2022.2.4,MacIntel,58.96226415,Firefox,1440,900,,,a,0.785,10,303,1,1,11,23,0,1,1,0,0,0,0,1,0,0,triangle,circle,,,,,,,,,,,,,,,,,,,,,,,,,,,,,,,,,,,,,,,,,,,,,,,,,,,,,,
298306,2022-12-01_14h06.21.388,vts_reward_expectancy_bt,2022.2.4,MacIntel,58.96226415,Firefox,1440,900,,,l,0.717,10,313,1,2,0,24,1,1,1,0,0,0,0,0,1,0,triangle,hexagon,,,,,,,,,,,,,,,,,,,,,,,,,,,,,,,,,,,,,,,,,,,,,,,,,,,,,,
298306,2022-12-01_14h06.21.388,vts_reward_expectancy_bt,2022.2.4,MacIntel,58.96226415,Firefox,1440,900,,,a,1.081,1,314,1,2,1,25,9,1,0,0,0,1,1,0,0,0,star,triangle,,,,,,,,,,,,,,,,,,,,,,,,,,,,,,,,,,,,,,,,,,,,,,,,,,,,,,
298306,2022-12-01_14h06.21.388,vts_reward_expectancy_bt,2022.2.4,MacIntel,58.96226415,Firefox,1440,900,,,a,1.296,1,315,1,2,2,26,3,1,0,1,0,0,1,0,0,0,circle,triangle,,,,,,,,,,,,,,,,,,,,,,,,,,,,,,,,,,,,,,,,,,,,,,,,,,,,,,
298306,2022-12-01_14h06.21.388,vts_reward_expectancy_bt,2022.2.4,MacIntel,58.96226415,Firefox,1440,900,,,l,2.485,10,325,1,2,3,27,5,1,0,1,0,0,0,0,0,1,circle,star,,,,,,,,,,,,,,,,,,,,,,,,,,,,,,,,,,,,,,,,,,,,,,,,,,,,,,
298306,2022-12-01_14h06.21.388,vts_reward_expectancy_bt,2022.2.4,MacIntel,58.96226415,Firefox,1440,900,,,l,1.366,1,326,1,2,4,28,4,1,0,1,0,0,0,0,1,0,circle,hexagon,,,,,,,,,,,,,,,,,,,,,,,,,,,,,,,,,,,,,,,,,,,,,,,,,,,,,,
298306,2022-12-01_14h06.21.388,vts_reward_expectancy_bt,2022.2.4,MacIntel,58.96226415,Firefox,1440,900,,,a,1.834,1,327,1,2,5,29,6,1,0,0,1,0,1,0,0,0,hexagon,triangle,,,,,,,,,,,,,,,,,,,,,,,,,,,,,,,,,,,,,,,,,,,,,,,,,,,,,,
298306,2022-12-01_14h06.21.388,vts_reward_expectancy_bt,2022.2.4,MacIntel,58.96226415,Firefox,1440,900,,,a,1.703,1,328,1,2,6,30,11,1,0,0,0,1,0,0,1,0,star,hexagon,,,,,,,,,,,,,,,,,,,,,,,,,,,,,,,,,,,,,,,,,,,,,,,,,,,,,,
298306,2022-12-01_14h06.21.388,vts_reward_expectancy_bt,2022.2.4,MacIntel,58.96226415,Firefox,1440,900,,,a,2.518,1,329,1,2,7,31,2,1,1,0,0,0,0,0,0,1,triangle,star,,,,,,,,,,,,,,,,,,,,,,,,,,,,,,,,,,,,,,,,,,,,,,,,,,,,,,
298306,2022-12-01_14h06.21.388,vts_reward_expectancy_bt,2022.2.4,MacIntel,58.96226415,Firefox,1440,900,,,l,0.749,10,339,1,2,8,32,10,1,0,0,0,1,0,1,0,0,star ,circle,,,,,,,,,,,,,,,,,,,,,,,,,,,,,,,,,,,,,,,,,,,,,,,,,,,,,,
298306,2022-12-01_14h06.21.388,vts_reward_expectancy_bt,2022.2.4,MacIntel,58.96226415,Firefox,1440,900,,,a,0.602,10,349,1,2,9,33,7,1,0,0,1,0,0,1,0,0,hexagon,circle,,,,,,,,,,,,,,,,,,,,,,,,,,,,,,,,,,,,,,,,,,,,,,,,,,,,,,
298306,2022-12-01_14h06.21.388,vts_reward_expectancy_bt,2022.2.4,MacIntel,58.96226415,Firefox,1440,900,,,a,1.32,10,359,1,2,10,34,0,1,1,0,0,0,0,1,0,0,triangle,circle,,,,,,,,,,,,,,,,,,,,,,,,,,,,,,,,,,,,,,,,,,,,,,,,,,,,,,
298306,2022-12-01_14h06.21.388,vts_reward_expectancy_bt,2022.2.4,MacIntel,58.96226415,Firefox,1440,900,,,l,0.981,1,360,1,2,11,35,8,1,0,0,1,0,0,0,0,1,hexagon,star,,,,,,,,,,,,,,,,,,,,,,,,,,,,,,,,,,,,,,,,,,,,,,,,,,,,,,
298306,2022-12-01_14h06.21.388,vts_reward_expectancy_bt,2022.2.4,MacIntel,58.96226415,Firefox,1440,900,,,a,1.577,10,370,2,0,0,0,4,1,0,1,0,0,0,0,1,0,circle,hexagon,,,,,,,,,,,,,,,,,,,,,,,,,,,,,,,,,,,,,,,,,,,,,,,,,,,,,,
298306,2022-12-01_14h06.21.388,vts_reward_expectancy_bt,2022.2.4,MacIntel,58.96226415,Firefox,1440,900,,,l,0.882,1,371,2,0,1,1,6,1,0,0,1,0,1,0,0,0,hexagon,triangle,,,,,,,,,,,,,,,,,,,,,,,,,,,,,,,,,,,,,,,,,,,,,,,,,,,,,,
298306,2022-12-01_14h06.21.388,vts_reward_expectancy_bt,2022.2.4,MacIntel,58.96226415,Firefox,1440,900,,,a,1.036,1,372,2,0,2,2,2,1,1,0,0,0,0,0,0,1,triangle,star,,,,,,,,,,,,,,,,,,,,,,,,,,,,,,,,,,,,,,,,,,,,,,,,,,,,,,
298306,2022-12-01_14h06.21.388,vts_reward_expectancy_bt,2022.2.4,MacIntel,58.96226415,Firefox,1440,900,,,a,1.649,1,373,2,0,3,3,10,1,0,0,0,1,0,1,0,0,star ,circle,,,,,,,,,,,,,,,,,,,,,,,,,,,,,,,,,,,,,,,,,,,,,,,,,,,,,,
298306,2022-12-01_14h06.21.388,vts_reward_expectancy_bt,2022.2.4,MacIntel,58.96226415,Firefox,1440,900,,,l,0.814,1,374,2,0,4,4,3,1,0,1,0,0,1,0,0,0,circle,triangle,,,,,,,,,,,,,,,,,,,,,,,,,,,,,,,,,,,,,,,,,,,,,,,,,,,,,,
298306,2022-12-01_14h06.21.388,vts_reward_expectancy_bt,2022.2.4,MacIntel,58.96226415,Firefox,1440,900,,,l,1.466,1,375,2,0,5,5,11,1,0,0,0,1,0,0,1,0,star,hexagon,,,,,,,,,,,,,,,,,,,,,,,,,,,,,,,,,,,,,,,,,,,,,,,,,,,,,,
298306,2022-12-01_14h06.21.388,vts_reward_expectancy_bt,2022.2.4,MacIntel,58.96226415,Firefox,1440,900,,,a,1.035,1,376,2,0,6,6,0,1,1,0,0,0,0,1,0,0,triangle,circle,,,,,,,,,,,,,,,,,,,,,,,,,,,,,,,,,,,,,,,,,,,,,,,,,,,,,,
298306,2022-12-01_14h06.21.388,vts_reward_expectancy_bt,2022.2.4,MacIntel,58.96226415,Firefox,1440,900,,,l,1.054,1,377,2,0,7,7,7,1,0,0,1,0,0,1,0,0,hexagon,circle,,,,,,,,,,,,,,,,,,,,,,,,,,,,,,,,,,,,,,,,,,,,,,,,,,,,,,
298306,2022-12-01_14h06.21.388,vts_reward_expectancy_bt,2022.2.4,MacIntel,58.96226415,Firefox,1440,900,,,l,1.877,10,387,2,0,8,8,1,1,1,0,0,0,0,0,1,0,triangle,hexagon,,,,,,,,,,,,,,,,,,,,,,,,,,,,,,,,,,,,,,,,,,,,,,,,,,,,,,
298306,2022-12-01_14h06.21.388,vts_reward_expectancy_bt,2022.2.4,MacIntel,58.96226415,Firefox,1440,900,,,a,0.713,10,397,2,0,9,9,8,1,0,0,1,0,0,0,0,1,hexagon,star,,,,,,,,,,,,,,,,,,,,,,,,,,,,,,,,,,,,,,,,,,,,,,,,,,,,,,
298306,2022-12-01_14h06.21.388,vts_reward_expectancy_bt,2022.2.4,MacIntel,58.96226415,Firefox,1440,900,,,a,1.816,10,407,2,0,10,10,9,1,0,0,0,1,1,0,0,0,star,triangle,,,,,,,,,,,,,,,,,,,,,,,,,,,,,,,,,,,,,,,,,,,,,,,,,,,,,,
298306,2022-12-01_14h06.21.388,vts_reward_expectancy_bt,2022.2.4,MacIntel,58.96226415,Firefox,1440,900,,,l,0.485,10,417,2,0,11,11,5,1,0,1,0,0,0,0,0,1,circle,star,,,,,,,,,,,,,,,,,,,,,,,,,,,,,,,,,,,,,,,,,,,,,,,,,,,,,,
298306,2022-12-01_14h06.21.388,vts_reward_expectancy_bt,2022.2.4,MacIntel,58.96226415,Firefox,1440,900,,,a,0.718,1,418,2,1,0,12,9,1,0,0,0,1,1,0,0,0,star,triangle,,,,,,,,,,,,,,,,,,,,,,,,,,,,,,,,,,,,,,,,,,,,,,,,,,,,,,
298306,2022-12-01_14h06.21.388,vts_reward_expectancy_bt,2022.2.4,MacIntel,58.96226415,Firefox,1440,900,,,a,0.485,1,419,2,1,1,13,1,1,1,0,0,0,0,0,1,0,triangle,hexagon,,,,,,,,,,,,,,,,,,,,,,,,,,,,,,,,,,,,,,,,,,,,,,,,,,,,,,
298306,2022-12-01_14h06.21.388,vts_reward_expectancy_bt,2022.2.4,MacIntel,58.96226415,Firefox,1440,900,,,l,0.469,10,429,2,1,2,14,4,1,0,1,0,0,0,0,1,0,circle,hexagon,,,,,,,,,,,,,,,,,,,,,,,,,,,,,,,,,,,,,,,,,,,,,,,,,,,,,,
298306,2022-12-01_14h06.21.388,vts_reward_expectancy_bt,2022.2.4,MacIntel,58.96226415,Firefox,1440,900,,,a,1.214,10,439,2,1,3,15,0,1,1,0,0,0,0,1,0,0,triangle,circle,,,,,,,,,,,,,,,,,,,,,,,,,,,,,,,,,,,,,,,,,,,,,,,,,,,,,,
298306,2022-12-01_14h06.21.388,vts_reward_expectancy_bt,2022.2.4,MacIntel,58.96226415,Firefox,1440,900,,,a,0.883,10,449,2,1,4,16,11,1,0,0,0,1,0,0,1,0,star,hexagon,,,,,,,,,,,,,,,,,,,,,,,,,,,,,,,,,,,,,,,,,,,,,,,,,,,,,,
298306,2022-12-01_14h06.21.388,vts_reward_expectancy_bt,2022.2.4,MacIntel,58.96226415,Firefox,1440,900,,,l,0.516,10,459,2,1,5,17,2,1,1,0,0,0,0,0,0,1,triangle,star,,,,,,,,,,,,,,,,,,,,,,,,,,,,,,,,,,,,,,,,,,,,,,,,,,,,,,
298306,2022-12-01_14h06.21.388,vts_reward_expectancy_bt,2022.2.4,MacIntel,58.96226415,Firefox,1440,900,,,a,1.503,1,460,2,1,6,18,6,1,0,0,1,0,1,0,0,0,hexagon,triangle,,,,,,,,,,,,,,,,,,,,,,,,,,,,,,,,,,,,,,,,,,,,,,,,,,,,,,
298306,2022-12-01_14h06.21.388,vts_reward_expectancy_bt,2022.2.4,MacIntel,58.96226415,Firefox,1440,900,,,l,0.426,10,470,2,1,7,19,3,1,0,1,0,0,1,0,0,0,circle,triangle,,,,,,,,,,,,,,,,,,,,,,,,,,,,,,,,,,,,,,,,,,,,,,,,,,,,,,
298306,2022-12-01_14h06.21.388,vts_reward_expectancy_bt,2022.2.4,MacIntel,58.96226415,Firefox,1440,900,,,l,1.318,1,471,2,1,8,20,7,1,0,0,1,0,0,1,0,0,hexagon,circle,,,,,,,,,,,,,,,,,,,,,,,,,,,,,,,,,,,,,,,,,,,,,,,,,,,,,,
298306,2022-12-01_14h06.21.388,vts_reward_expectancy_bt,2022.2.4,MacIntel,58.96226415,Firefox,1440,900,,,a,0.503,1,472,2,1,9,21,8,1,0,0,1,0,0,0,0,1,hexagon,star,,,,,,,,,,,,,,,,,,,,,,,,,,,,,,,,,,,,,,,,,,,,,,,,,,,,,,
298306,2022-12-01_14h06.21.388,vts_reward_expectancy_bt,2022.2.4,MacIntel,58.96226415,Firefox,1440,900,,,a,0.779,1,473,2,1,10,22,10,1,0,0,0,1,0,1,0,0,star ,circle,,,,,,,,,,,,,,,,,,,,,,,,,,,,,,,,,,,,,,,,,,,,,,,,,,,,,,
298306,2022-12-01_14h06.21.388,vts_reward_expectancy_bt,2022.2.4,MacIntel,58.96226415,Firefox,1440,900,,,a,0.784,10,483,2,1,11,23,5,1,0,1,0,0,0,0,0,1,circle,star,,,,,,,,,,,,,,,,,,,,,,,,,,,,,,,,,,,,,,,,,,,,,,,,,,,,,,
298306,2022-12-01_14h06.21.388,vts_reward_expectancy_bt,2022.2.4,MacIntel,58.96226415,Firefox,1440,900,,,l,0.75,10,493,2,2,0,24,7,1,0,0,1,0,0,1,0,0,hexagon,circle,,,,,,,,,,,,,,,,,,,,,,,,,,,,,,,,,,,,,,,,,,,,,,,,,,,,,,
298306,2022-12-01_14h06.21.388,vts_reward_expectancy_bt,2022.2.4,MacIntel,58.96226415,Firefox,1440,900,,,a,1.32,10,503,2,2,1,25,10,1,0,0,0,1,0,1,0,0,star ,circle,,,,,,,,,,,,,,,,,,,,,,,,,,,,,,,,,,,,,,,,,,,,,,,,,,,,,,
298306,2022-12-01_14h06.21.388,vts_reward_expectancy_bt,2022.2.4,MacIntel,58.96226415,Firefox,1440,900,,,l,1.569,10,513,2,2,2,26,1,1,1,0,0,0,0,0,1,0,triangle,hexagon,,,,,,,,,,,,,,,,,,,,,,,,,,,,,,,,,,,,,,,,,,,,,,,,,,,,,,
298306,2022-12-01_14h06.21.388,vts_reward_expectancy_bt,2022.2.4,MacIntel,58.96226415,Firefox,1440,900,,,l,1.3,1,514,2,2,3,27,5,1,0,1,0,0,0,0,0,1,circle,star,,,,,,,,,,,,,,,,,,,,,,,,,,,,,,,,,,,,,,,,,,,,,,,,,,,,,,
298306,2022-12-01_14h06.21.388,vts_reward_expectancy_bt,2022.2.4,MacIntel,58.96226415,Firefox,1440,900,,,a,1.168,1,515,2,2,4,28,11,1,0,0,0,1,0,0,1,0,star,hexagon,,,,,,,,,,,,,,,,,,,,,,,,,,,,,,,,,,,,,,,,,,,,,,,,,,,,,,
298306,2022-12-01_14h06.21.388,vts_reward_expectancy_bt,2022.2.4,MacIntel,58.96226415,Firefox,1440,900,,,a,0.981,1,516,2,2,5,29,8,1,0,0,1,0,0,0,0,1,hexagon,star,,,,,,,,,,,,,,,,,,,,,,,,,,,,,,,,,,,,,,,,,,,,,,,,,,,,,,
298306,2022-12-01_14h06.21.388,vts_reward_expectancy_bt,2022.2.4,MacIntel,58.96226415,Firefox,1440,900,,,l,0.938,1,517,2,2,6,30,6,1,0,0,1,0,1,0,0,0,hexagon,triangle,,,,,,,,,,,,,,,,,,,,,,,,,,,,,,,,,,,,,,,,,,,,,,,,,,,,,,
298306,2022-12-01_14h06.21.388,vts_reward_expectancy_bt,2022.2.4,MacIntel,58.96226415,Firefox,1440,900,,,a,2.098,1,518,2,2,7,31,0,1,1,0,0,0,0,1,0,0,triangle,circle,,,,,,,,,,,,,,,,,,,,,,,,,,,,,,,,,,,,,,,,,,,,,,,,,,,,,,
298306,2022-12-01_14h06.21.388,vts_reward_expectancy_bt,2022.2.4,MacIntel,58.96226415,Firefox,1440,900,,,a,1.935,10,528,2,2,8,32,9,1,0,0,0,1,1,0,0,0,star,triangle,,,,,,,,,,,,,,,,,,,,,,,,,,,,,,,,,,,,,,,,,,,,,,,,,,,,,,
298306,2022-12-01_14h06.21.388,vts_reward_expectancy_bt,2022.2.4,MacIntel,58.96226415,Firefox,1440,900,,,a,1.266,10,538,2,2,9,33,3,1,0,1,0,0,1,0,0,0,circle,triangle,,,,,,,,,,,,,,,,,,,,,,,,,,,,,,,,,,,,,,,,,,,,,,,,,,,,,,
298306,2022-12-01_14h06.21.388,vts_reward_expectancy_bt,2022.2.4,MacIntel,58.96226415,Firefox,1440,900,,,l,0.933,1,539,2,2,10,34,2,1,1,0,0,0,0,0,0,1,triangle,star,,,,,,,,,,,,,,,,,,,,,,,,,,,,,,,,,,,,,,,,,,,,,,,,,,,,,,
298306,2022-12-01_14h06.21.388,vts_reward_expectancy_bt,2022.2.4,MacIntel,58.96226415,Firefox,1440,900,,,a,0.737,1,540,2,2,11,35,4,1,0,1,0,0,0,0,1,0,circle,hexagon,,,,,,,,,,,,,,,,,,,,,,,,,,,,,,,,,,,,,,,,,,,,,,,,,,,,,,
298306,2022-12-01_14h06.21.388,vts_reward_expectancy_bt,2022.2.4,MacIntel,58.96226415,Firefox,1440,900,,,,,,,,,,,,,,,,,,,,,,,F,174,star,1,0,d,2.148,0,0,0,0,0,1,,,,,,,,,,,,,,,,,,,,,,,,,,,,,,,,,,,,,,,,,
298306,2022-12-01_14h06.21.388,vts_reward_expectancy_bt,2022.2.4,MacIntel,58.96226415,Firefox,1440,900,,,,,,,,,,,,,,,,,,,,,,,D,125,hexagon,1,0,d,0.868,0,1,0,1,0,1,,,,,,,,,,,,,,,,,,,,,,,,,,,,,,,,,,,,,,,,,
298306,2022-12-01_14h06.21.388,vts_reward_expectancy_bt,2022.2.4,MacIntel,58.96226415,Firefox,1440,900,,,,,,,,,,,,,,,,,,,,,,,H,146,circle,1,0,d,0.716,0,2,0,2,0,1,,,,,,,,,,,,,,,,,,,,,,,,,,,,,,,,,,,,,,,,,
298306,2022-12-01_14h06.21.388,vts_reward_expectancy_bt,2022.2.4,MacIntel,58.96226415,Firefox,1440,900,,,,,,,,,,,,,,,,,,,,,,,B,160,triangle,1,0,d,0.633,0,3,0,3,0,1,,,,,,,,,,,,,,,,,,,,,,,,,,,,,,,,,,,,,,,,,
298306,2022-12-01_14h06.21.388,vts_reward_expectancy_bt,2022.2.4,MacIntel,58.96226415,Firefox,1440,900,,,,,,,,,,,,,,,,,,,,,,,W,167,star,1,0,f,0.681,0,4,0,4,0,1,,,,,,,,,,,,,,,,,,,,,,,,,,,,,,,,,,,,,,,,,
298306,2022-12-01_14h06.21.388,vts_reward_expectancy_bt,2022.2.4,MacIntel,58.96226415,Firefox,1440,900,,,,,,,,,,,,,,,,,,,,,,,S,139,hexagon,1,0,f,0.718,0,5,0,5,0,1,,,,,,,,,,,,,,,,,,,,,,,,,,,,,,,,,,,,,,,,,
298306,2022-12-01_14h06.21.388,vts_reward_expectancy_bt,2022.2.4,MacIntel,58.96226415,Firefox,1440,900,,,,,,,,,,,,,,,,,,,,,,,U,181,circle,1,0,f,0.662,0,6,0,6,0,1,,,,,,,,,,,,,,,,,,,,,,,,,,,,,,,,,,,,,,,,,
298306,2022-12-01_14h06.21.388,vts_reward_expectancy_bt,2022.2.4,MacIntel,58.96226415,Firefox,1440,900,,,,,,,,,,,,,,,,,,,,,,,Y,132,triangle,1,0,f,0.696,0,7,0,7,0,1,,,,,,,,,,,,,,,,,,,,,,,,,,,,,,,,,,,,,,,,,
298306,2022-12-01_14h06.21.388,vts_reward_expectancy_bt,2022.2.4,MacIntel,58.96226415,Firefox,1440,900,,,,,,,,,,,,,,,,,,,,,,,F,174,circle,1,0,d,0.799,0,8,0,8,0,1,,,,,,,,,,,,,,,,,,,,,,,,,,,,,,,,,,,,,,,,,
298306,2022-12-01_14h06.21.388,vts_reward_expectancy_bt,2022.2.4,MacIntel,58.96226415,Firefox,1440,900,,,,,,,,,,,,,,,,,,,,,,,D,125,hexagon,1,0,d,0.6,0,9,0,9,0,1,,,,,,,,,,,,,,,,,,,,,,,,,,,,,,,,,,,,,,,,,
298306,2022-12-01_14h06.21.388,vts_reward_expectancy_bt,2022.2.4,MacIntel,58.96226415,Firefox,1440,900,,,,,,,,,,,,,,,,,,,,,,,F,146,star,1,0,,,1,,,,,,j,1.016,0,0,0,0,1,,,,,,,,,,,,,,,,,,,,,,,,,,,,,,,,,,
298306,2022-12-01_14h06.21.388,vts_reward_expectancy_bt,2022.2.4,MacIntel,58.96226415,Firefox,1440,900,,,,,,,,,,,,,,,,,,,,,,,S,167,triangle,1,0,,,1,,,,,,k,0.73,1,0,1,0,1,,,,,,,,,,,,,,,,,,,,,,,,,,,,,,,,,,
298306,2022-12-01_14h06.21.388,vts_reward_expectancy_bt,2022.2.4,MacIntel,58.96226415,Firefox,1440,900,,,,,,,,,,,,,,,,,,,,,,,Y,139,hexagon,1,0,,,1,,,,,,j,0.619,2,0,2,0,1,,,,,,,,,,,,,,,,,,,,,,,,,,,,,,,,,,
298306,2022-12-01_14h06.21.388,vts_reward_expectancy_bt,2022.2.4,MacIntel,58.96226415,Firefox,1440,900,,,,,,,,,,,,,,,,,,,,,,,D,132,circle,1,0,,,1,,,,,,j,0.65,3,0,3,0,1,,,,,,,,,,,,,,,,,,,,,,,,,,,,,,,,,,
298306,2022-12-01_14h06.21.388,vts_reward_expectancy_bt,2022.2.4,MacIntel,58.96226415,Firefox,1440,900,,,,,,,,,,,,,,,,,,,,,,,U,174,star,1,0,,,1,,,,,,k,0.666,4,0,4,0,1,,,,,,,,,,,,,,,,,,,,,,,,,,,,,,,,,,
298306,2022-12-01_14h06.21.388,vts_reward_expectancy_bt,2022.2.4,MacIntel,58.96226415,Firefox,1440,900,,,,,,,,,,,,,,,,,,,,,,,W,181,triangle,1,0,,,1,,,,,,k,0.665,5,0,5,0,1,,,,,,,,,,,,,,,,,,,,,,,,,,,,,,,,,,
298306,2022-12-01_14h06.21.388,vts_reward_expectancy_bt,2022.2.4,MacIntel,58.96226415,Firefox,1440,900,,,,,,,,,,,,,,,,,,,,,,,B,125,hexagon,1,0,,,1,,,,,,j,0.667,6,0,6,0,1,,,,,,,,,,,,,,,,,,,,,,,,,,,,,,,,,,
298306,2022-12-01_14h06.21.388,vts_reward_expectancy_bt,2022.2.4,MacIntel,58.96226415,Firefox,1440,900,,,,,,,,,,,,,,,,,,,,,,,H,160,circle,1,0,,,1,,,,,,k,0.898,7,0,7,0,1,,,,,,,,,,,,,,,,,,,,,,,,,,,,,,,,,,
298306,2022-12-01_14h06.21.388,vts_reward_expectancy_bt,2022.2.4,MacIntel,58.96226415,Firefox,1440,900,,,,,,,,,,,,,,,,,,,,,,,F,146,hexagon,1,0,,,1,,,,,,j,0.606,8,0,8,0,1,,,,,,,,,,,,,,,,,,,,,,,,,,,,,,,,,,
298306,2022-12-01_14h06.21.388,vts_reward_expectancy_bt,2022.2.4,MacIntel,58.96226415,Firefox,1440,900,,,,,,,,,,,,,,,,,,,,,,,S,167,triangle,1,0,,,1,,,,,,k,0.551,9,0,9,0,1,,,,,,,,,,,,,,,,,,,,,,,,,,,,,,,,,,
298306,2022-12-01_14h06.21.388,vts_reward_expectancy_bt,2022.2.4,MacIntel,58.96226415,Firefox,1440,900,,,,,0,540,,,,,,,,,,,,,,,,,U,146,circle,1,0,,,2,,,,,,,,,,,,,-1,letter,NA,f,2.948,vtsPrac,0,0,0,0,1,,,,,,,,,,,,,,,,,,,,,,,
298306,2022-12-01_14h06.21.388,vts_reward_expectancy_bt,2022.2.4,MacIntel,58.96226415,Firefox,1440,900,,,,,0,540,,,,,,,,,,,,,,,,,S,125,hexagon,1,0,,,2,,,,,,,,,,,,,repeat,letter,lettRpt,f,0.814,vtsPrac,1,0,1,0,1,,,,,,,,,,,,,,,,,,,,,,,
298306,2022-12-01_14h06.21.388,vts_reward_expectancy_bt,2022.2.4,MacIntel,58.96226415,Firefox,1440,900,,,,,0,540,,,,,,,,,,,,,,,,,D,132,circle,1,0,,,2,,,,,,,,,,,,,switch,number,numSwt,j,1.033,vtsPrac,2,0,2,0,1,,,,,,,,,,,,,,,,,,,,,,,
298306,2022-12-01_14h06.21.388,vts_reward_expectancy_bt,2022.2.4,MacIntel,58.96226415,Firefox,1440,900,,,,,0,540,,,,,,,,,,,,,,,,,W,160,hexagon,1,0,,,2,,,,,,,,,,,,,switch,letter,lettSwt,f,0.734,vtsPrac,3,0,3,0,1,,,,,,,,,,,,,,,,,,,,,,,
298306,2022-12-01_14h06.21.388,vts_reward_expectancy_bt,2022.2.4,MacIntel,58.96226415,Firefox,1440,900,,,,,0,540,,,,,,,,,,,,,,,,,U,146,star,1,0,,,2,,,,,,,,,,,,,switch,number,numSwt,j,1.133,vtsPrac,4,0,4,0,1,,,,,,,,,,,,,,,,,,,,,,,
298306,2022-12-01_14h06.21.388,vts_reward_expectancy_bt,2022.2.4,MacIntel,58.96226415,Firefox,1440,900,,,,,0,540,,,,,,,,,,,,,,,,,S,125,circle,1,0,,,2,,,,,,,,,,,,,repeat,number,numRpt,j,0.753,vtsPrac,5,0,5,0,1,,,,,,,,,,,,,,,,,,,,,,,
298306,2022-12-01_14h06.21.388,vts_reward_expectancy_bt,2022.2.4,MacIntel,58.96226415,Firefox,1440,900,,,,,0,540,,,,,,,,,,,,,,,,,D,132,circle,1,0,,,2,,,,,,,,,,,,,repeat,number,numRpt,j,0.782,vtsPrac,6,0,6,0,1,,,,,,,,,,,,,,,,,,,,,,,
298306,2022-12-01_14h06.21.388,vts_reward_expectancy_bt,2022.2.4,MacIntel,58.96226415,Firefox,1440,900,,,,,0,540,,,,,,,,,,,,,,,,,W,160,hexagon,1,0,,,2,,,,,,,,,,,,,switch,letter,lettSwt,f,0.748,vtsPrac,7,0,7,0,1,,,,,,,,,,,,,,,,,,,,,,,
298306,2022-12-01_14h06.21.388,vts_reward_expectancy_bt,2022.2.4,MacIntel,58.96226415,Firefox,1440,900,,,,,0,540,,,,,,,,,,,,,,,,,Y,139,triangle,1,0,,,2,,,,,,,,,,,,,switch,number,numSwt,j,0.812,vtsPrac,8,0,8,0,1,,,,,,,,,,,,,,,,,,,,,,,
298306,2022-12-01_14h06.21.388,vts_reward_expectancy_bt,2022.2.4,MacIntel,58.96226415,Firefox,1440,900,,,,,0,540,,,,,,,,,,,,,,,,,F,181,hexagon,1,0,,,2,,,,,,,,,,,,,repeat,number,numRpt,k,0.798,vtsPrac,9,0,9,0,1,,,,,,,,,,,,,,,,,,,,,,,
298306,2022-12-01_14h06.21.388,vts_reward_expectancy_bt,2022.2.4,MacIntel,58.96226415,Firefox,1440,900,,,,,0,540,,,,,,,,,,,,,,,,,U,146,triangle,1,0,,,2,,,,,,,,,,,,,repeat,number,numRpt,j,1.004,vtsPrac,10,0,10,0,1,,,,,,,,,,,,,,,,,,,,,,,
298306,2022-12-01_14h06.21.388,vts_reward_expectancy_bt,2022.2.4,MacIntel,58.96226415,Firefox,1440,900,,,,,0,540,,,,,,,,,,,,,,,,,S,125,star,1,0,,,2,,,,,,,,,,,,,switch,letter,lettSwt,f,0.934,vtsPrac,11,0,11,0,1,,,,,,,,,,,,,,,,,,,,,,,
298306,2022-12-01_14h06.21.388,vts_reward_expectancy_bt,2022.2.4,MacIntel,58.96226415,Firefox,1440,900,,,,,0,540,,,,,,,,,,,,,,,,,F,167,hexagon,1,0,,,2,,,,,,,,,,,,,switch,number,numSwt,k,0.753,vtsPrac,12,0,12,0,1,,,,,,,,,,,,,,,,,,,,,,,
298306,2022-12-01_14h06.21.388,vts_reward_expectancy_bt,2022.2.4,MacIntel,58.96226415,Firefox,1440,900,,,,,0,540,,,,,,,,,,,,,,,,,Y,181,triangle,1,0,,,2,,,,,,,,,,,,,switch,letter,lettSwt,f,0.556,vtsPrac,13,0,13,0,1,,,,,,,,,,,,,,,,,,,,,,,
298306,2022-12-01_14h06.21.388,vts_reward_expectancy_bt,2022.2.4,MacIntel,58.96226415,Firefox,1440,900,,,,,0,540,,,,,,,,,,,,,,,,,S,160,hexagon,1,0,,,2,,,,,,,,,,,,,repeat,letter,lettRpt,f,0.75,vtsPrac,14,0,14,0,1,,,,,,,,,,,,,,,,,,,,,,,
298306,2022-12-01_14h06.21.388,vts_reward_expectancy_bt,2022.2.4,MacIntel,58.96226415,Firefox,1440,900,,,,,0,540,,,,,,,,,,,,,,,,,W,174,triangle,1,0,,,2,,,,,,,,,,,,,switch,number,numSwt,k,0.649,vtsPrac,15,0,15,0,1,,,,,,,,,,,,,,,,,,,,,,,
298306,2022-12-01_14h06.21.388,vts_reward_expectancy_bt,2022.2.4,MacIntel,58.96226415,Firefox,1440,900,,,,,0,540,,,,,,,,,,,,,,,,,F,167,hexagon,1,0,,,2,,,,,,,,,,,,,switch,letter,lettSwt,d,1.664,vtsPrac,16,0,16,0,1,,,,,,,,,,,,,,,,,,,,,,,
298306,2022-12-01_14h06.21.388,vts_reward_expectancy_bt,2022.2.4,MacIntel,58.96226415,Firefox,1440,900,,,,,0,540,,,,,,,,,,,,,,,,,S,160,triangle,1,0,,,2,,,,,,,,,,,,,repeat,letter,lettRpt,f,1.118,vtsPrac,17,0,17,0,1,,,,,,,,,,,,,,,,,,,,,,,
298306,2022-12-01_14h06.21.388,vts_reward_expectancy_bt,2022.2.4,MacIntel,58.96226415,Firefox,1440,900,,,,,0,540,,,,,,,,,,,,,,,,,W,146,hexagon,1,0,,,2,,,,,,,,,,,,,switch,number,numSwt,j,1.131,vtsPrac,18,0,18,0,1,,,,,,,,,,,,,,,,,,,,,,,
298306,2022-12-01_14h06.21.388,vts_reward_expectancy_bt,2022.2.4,MacIntel,58.96226415,Firefox,1440,900,,,,,0,540,,,,,,,,,,,,,,,,,D,174,circle,1,0,,,2,,,,,,,,,,,,,repeat,number,numRpt,k,1.582,vtsPrac,19,0,19,0,1,,,,,,,,,,,,,,,,,,,,,,,
298306,2022-12-01_14h06.21.388,vts_reward_expectancy_bt,2022.2.4,MacIntel,58.96226415,Firefox,1440,900,,,,,0,540,,,,,,,,,,,,,,,,,U,174,hexagon,1,0,,,2,,,,,,,,,,,,,repeat,number,numRpt,k,1.189,vtsPrac,20,0,20,0,1,,,,,,,,,,,,,,,,,,,,,,,
298306,2022-12-01_14h06.21.388,vts_reward_expectancy_bt,2022.2.4,MacIntel,58.96226415,Firefox,1440,900,,,,,0,540,,,,,,,,,,,,,,,,,S,146,triangle,1,0,,,2,,,,,,,,,,,,,repeat,number,numRpt,j,0.951,vtsPrac,21,0,21,0,1,,,,,,,,,,,,,,,,,,,,,,,
298306,2022-12-01_14h06.21.388,vts_reward_expectancy_bt,2022.2.4,MacIntel,58.96226415,Firefox,1440,900,,,,,0,540,,,,,,,,,,,,,,,,,H,125,hexagon,1,0,,,2,,,,,,,,,,,,,switch,letter,lettSwt,d,0.715,vtsPrac,22,0,22,0,1,,,,,,,,,,,,,,,,,,,,,,,
298306,2022-12-01_14h06.21.388,vts_reward_expectancy_bt,2022.2.4,MacIntel,58.96226415,Firefox,1440,900,,,,,0,540,,,,,,,,,,,,,,,,,B,160,triangle,1,0,,,2,,,,,,,,,,,,,repeat,letter,lettRpt,d,0.601,vtsPrac,23,0,23,0,1,,,,,,,,,,,,,,,,,,,,,,,
298306,2022-12-01_14h06.21.388,vts_reward_expectancy_bt,2022.2.4,MacIntel,58.96226415,Firefox,1440,900,,,,,0,540,,,,,,,,,,,,,,,,,H,167,circle,1,0,,,2,,,,,,,,,,,,,repeat,letter,lettRpt,d,0.902,vtsPrac,24,0,24,0,1,,,,,,,,,,,,,,,,,,,,,,,
298306,2022-12-01_14h06.21.388,vts_reward_expectancy_bt,2022.2.4,MacIntel,58.96226415,Firefox,1440,900,,,,,0,540,,,,,,,,,,,,,,,,,D,132,star,1,0,,,2,,,,,,,,,,,,,switch,number,numSwt,j,0.701,vtsPrac,25,0,25,0,1,,,,,,,,,,,,,,,,,,,,,,,
298306,2022-12-01_14h06.21.388,vts_reward_expectancy_bt,2022.2.4,MacIntel,58.96226415,Firefox,1440,900,,,,,0,540,,,,,,,,,,,,,,,,,S,160,hexagon,1,0,,,2,,,,,,,,,,,,,repeat,number,numRpt,k,0.813,vtsPrac,26,0,26,0,1,,,,,,,,,,,,,,,,,,,,,,,
298306,2022-12-01_14h06.21.388,vts_reward_expectancy_bt,2022.2.4,MacIntel,58.96226415,Firefox,1440,900,,,,,0,540,,,,,,,,,,,,,,,,,F,146,circle,1,0,,,2,,,,,,,,,,,,,switch,letter,lettSwt,d,0.98,vtsPrac,27,0,27,0,1,,,,,,,,,,,,,,,,,,,,,,,
298306,2022-12-01_14h06.21.388,vts_reward_expectancy_bt,2022.2.4,MacIntel,58.96226415,Firefox,1440,900,,,,,0,540,,,,,,,,,,,,,,,,,D,139,star,1,0,,,2,,,,,,,,,,,,,switch,number,numSwt,j,0.721,vtsPrac,28,0,28,0,1,,,,,,,,,,,,,,,,,,,,,,,
298306,2022-12-01_14h06.21.388,vts_reward_expectancy_bt,2022.2.4,MacIntel,58.96226415,Firefox,1440,900,,,,,0,540,,,,,,,,,,,,,,,,,W,174,circle,1,0,,,2,,,,,,,,,,,,,repeat,number,numRpt,k,0.714,vtsPrac,29,0,29,0,1,,,,,,,,,,,,,,,,,,,,,,,
298306,2022-12-01_14h06.21.388,vts_reward_expectancy_bt,2022.2.4,MacIntel,58.96226415,Firefox,1440,900,,,,,0,540,,,,,,,,,,,,,,,,,U,132,hexagon,1,0,,,2,,,,,,,,,,,,,repeat,number,numRpt,j,0.598,vtsPrac,30,0,30,0,1,,,,,,,,,,,,,,,,,,,,,,,
298306,2022-12-01_14h06.21.388,vts_reward_expectancy_bt,2022.2.4,MacIntel,58.96226415,Firefox,1440,900,,,,,0,540,,,,,,,,,,,,,,,,,Y,160,triangle,1,0,,,2,,,,,,,,,,,,,switch,letter,lettSwt,f,0.618,vtsPrac,31,0,31,0,1,,,,,,,,,,,,,,,,,,,,,,,
298306,2022-12-01_14h06.21.388,vts_reward_expectancy_bt,2022.2.4,MacIntel,58.96226415,Firefox,1440,900,,,,,,,,,,,,,,,,,,,,,,,,,,,,,,,,,,,,,,,,,,,,,,,,,,,,,,,,,,,,,,,,,,,,,,,,,,,,
298306,2022-12-01_14h06.21.388,vts_reward_expectancy_bt,2022.2.4,MacIntel,58.96226415,Firefox,1440,900,,,,,,,,,,,,,,,,,,,,,,,,,,,,,,,,,,,,,,,,,,,,,,,,,,,,,,,,,,,,,,,,,,,,,,,,,,,,
298306,2022-12-01_14h06.21.388,vts_reward_expectancy_bt,2022.2.4,MacIntel,58.96226415,Firefox,1440,900,,,,,0,540,,,,,,,,,,,,,,,,,Y,174,triangle,1,0,,,,,,,,,,,,,,,,repeat,letter,lettRpt,f,0.866,noRew,,,,,,0,0,0,0,0,1,,,,,,,,,,,,,,,,,
298306,2022-12-01_14h06.21.388,vts_reward_expectancy_bt,2022.2.4,MacIntel,58.96226415,Firefox,1440,900,,,,,0,540,,,,,,,,,,,,,,,,,W,146,hexagon,1,0,,,,,,,,,,,,,,,,repeat,letter,lettRpt,f,0.788,noRew,,,,,,0,1,0,1,0,1,,,,,,,,,,,,,,,,,
298306,2022-12-01_14h06.21.388,vts_reward_expectancy_bt,2022.2.4,MacIntel,58.96226415,Firefox,1440,900,,,,,0,540,,,,,,,,,,,,,,,,,H,167,triangle,1,0,,,,,,,,,,,,,,,,repeat,letter,lettRpt,d,0.835,noRew,,,,,,0,2,0,2,0,1,,,,,,,,,,,,,,,,,
298306,2022-12-01_14h06.21.388,vts_reward_expectancy_bt,2022.2.4,MacIntel,58.96226415,Firefox,1440,900,,,,,0,540,,,,,,,,,,,,,,,,,S,125,hexagon,1,0,,,,,,,,,,,,,,,,switch,number,numSwt,j,0.713,noRew,,,,,,0,3,0,3,0,1,,,,,,,,,,,,,,,,,
298306,2022-12-01_14h06.21.388,vts_reward_expectancy_bt,2022.2.4,MacIntel,58.96226415,Firefox,1440,900,,,,,0,540,,,,,,,,,,,,,,,,,Y,174,triangle,1,0,,,,,,,,,,,,,,,,repeat,number,numRpt,k,0.618,noRew,,,,,,0,4,0,4,0,1,,,,,,,,,,,,,,,,,
298306,2022-12-01_14h06.21.388,vts_reward_expectancy_bt,2022.2.4,MacIntel,58.96226415,Firefox,1440,900,,,,,0,540,,,,,,,,,,,,,,,,,W,146,circle,1,0,,,,,,,,,,,,,,,,switch,letter,lettSwt,f,0.701,noRew,,,,,,0,5,0,5,0,1,,,,,,,,,,,,,,,,,
298306,2022-12-01_14h06.21.388,vts_reward_expectancy_bt,2022.2.4,MacIntel,58.96226415,Firefox,1440,900,,,,,0,540,,,,,,,,,,,,,,,,,H,167,circle,1,0,,,,,,,,,,,,,,,,switch,number,numSwt,k,0.618,noRew,,,,,,0,6,0,6,0,1,,,,,,,,,,,,,,,,,
298306,2022-12-01_14h06.21.388,vts_reward_expectancy_bt,2022.2.4,MacIntel,58.96226415,Firefox,1440,900,,,,,0,540,,,,,,,,,,,,,,,,,S,125,star,1,0,,,,,,,,,,,,,,,,repeat,number,numRpt,j,0.621,noRew,,,,,,0,7,0,7,0,1,,,,,,,,,,,,,,,,,
298306,2022-12-01_14h06.21.388,vts_reward_expectancy_bt,2022.2.4,MacIntel,58.96226415,Firefox,1440,900,,,,,0,540,,,,,,,,,,,,,,,,,F,160,star,1,0,,,,,,,,,,,,,,,,switch,letter,lettSwt,d,0.803,noRew,,,,,,0,8,0,8,0,1,,,,,,,,,,,,,,,,,
298306,2022-12-01_14h06.21.388,vts_reward_expectancy_bt,2022.2.4,MacIntel,58.96226415,Firefox,1440,900,,,,,0,540,,,,,,,,,,,,,,,,,H,167,hexagon,1,0,,,,,,,,,,,,,,,,switch,number,numSwt,k,1.001,noRew,,,,,,0,9,0,9,0,1,,,,,,,,,,,,,,,,,
298306,2022-12-01_14h06.21.388,vts_reward_expectancy_bt,2022.2.4,MacIntel,58.96226415,Firefox,1440,900,,,,,0,540,,,,,,,,,,,,,,,,,S,174,triangle,1,0,,,,,,,,,,,,,,,,repeat,number,numRpt,k,0.784,noRew,,,,,,0,10,0,10,0,1,,,,,,,,,,,,,,,,,
298306,2022-12-01_14h06.21.388,vts_reward_expectancy_bt,2022.2.4,MacIntel,58.96226415,Firefox,1440,900,,,,,0,540,,,,,,,,,,,,,,,,,D,125,hexagon,1,0,,,,,,,,,,,,,,,,switch,letter,lettSwt,d,0.765,noRew,,,,,,0,11,0,11,0,1,,,,,,,,,,,,,,,,,
298306,2022-12-01_14h06.21.388,vts_reward_expectancy_bt,2022.2.4,MacIntel,58.96226415,Firefox,1440,900,,,,,0,540,,,,,,,,,,,,,,,,,S,181,hexagon,1,0,,,,,,,,,,,,,,,,repeat,letter,lettRpt,f,0.849,noRew,,,,,,0,12,0,12,0,1,,,,,,,,,,,,,,,,,
298306,2022-12-01_14h06.21.388,vts_reward_expectancy_bt,2022.2.4,MacIntel,58.96226415,Firefox,1440,900,,,,,0,540,,,,,,,,,,,,,,,,,W,139,star,1,0,,,,,,,,,,,,,,,,switch,number,numSwt,j,0.651,noRew,,,,,,0,13,0,13,0,1,,,,,,,,,,,,,,,,,
298306,2022-12-01_14h06.21.388,vts_reward_expectancy_bt,2022.2.4,MacIntel,58.96226415,Firefox,1440,900,,,,,0,540,,,,,,,,,,,,,,,,,D,146,triangle,1,0,,,,,,,,,,,,,,,,repeat,number,numRpt,j,0.58,noRew,,,,,,0,14,0,14,0,1,,,,,,,,,,,,,,,,,
298306,2022-12-01_14h06.21.388,vts_reward_expectancy_bt,2022.2.4,MacIntel,58.96226415,Firefox,1440,900,,,,,0,540,,,,,,,,,,,,,,,,,Y,125,circle,1,0,,,,,,,,,,,,,,,,repeat,number,numRpt,j,0.83,noRew,,,,,,0,15,0,15,0,1,,,,,,,,,,,,,,,,,
298306,2022-12-01_14h06.21.388,vts_reward_expectancy_bt,2022.2.4,MacIntel,58.96226415,Firefox,1440,900,,,,,0,540,,,,,,,,,,,,,,,,,U,160,triangle,1,0,,,,,,,,,,,,,,,,switch,letter,lettSwt,f,0.797,noRew,,,,,,0,16,0,16,0,1,,,,,,,,,,,,,,,,,
298306,2022-12-01_14h06.21.388,vts_reward_expectancy_bt,2022.2.4,MacIntel,58.96226415,Firefox,1440,900,,,,,0,540,,,,,,,,,,,,,,,,,H,139,hexagon,1,0,,,,,,,,,,,,,,,,switch,number,numSwt,j,0.781,noRew,,,,,,0,17,0,17,0,1,,,,,,,,,,,,,,,,,
298306,2022-12-01_14h06.21.388,vts_reward_expectancy_bt,2022.2.4,MacIntel,58.96226415,Firefox,1440,900,,,,,0,540,,,,,,,,,,,,,,,,,Y,167,star,1,0,,,,,,,,,,,,,,,,switch,letter,lettSwt,f,0.734,noRew,,,,,,0,18,0,18,0,1,,,,,,,,,,,,,,,,,
298306,2022-12-01_14h06.21.388,vts_reward_expectancy_bt,2022.2.4,MacIntel,58.96226415,Firefox,1440,900,,,,,0,540,,,,,,,,,,,,,,,,,D,174,hexagon,1,0,,,,,,,,,,,,,,,,switch,number,numSwt,k,0.769,noRew,,,,,,0,19,0,19,0,1,,,,,,,,,,,,,,,,,
298306,2022-12-01_14h06.21.388,vts_reward_expectancy_bt,2022.2.4,MacIntel,58.96226415,Firefox,1440,900,,,,,0,540,,,,,,,,,,,,,,,,,H,132,hexagon,1,0,,,,,,,,,,,,,,,,switch,letter,lettSwt,d,0.75,noRew,,,,,,0,20,0,20,0,1,,,,,,,,,,,,,,,,,
298306,2022-12-01_14h06.21.388,vts_reward_expectancy_bt,2022.2.4,MacIntel,58.96226415,Firefox,1440,900,,,,,0,540,,,,,,,,,,,,,,,,,U,160,circle,1,0,,,,,,,,,,,,,,,,repeat,letter,lettRpt,f,0.949,noRew,,,,,,0,21,0,21,0,1,,,,,,,,,,,,,,,,,
298306,2022-12-01_14h06.21.388,vts_reward_expectancy_bt,2022.2.4,MacIntel,58.96226415,Firefox,1440,900,,,,,0,540,,,,,,,,,,,,,,,,,S,139,star,1,0,,,,,,,,,,,,,,,,switch,number,numSwt,j,0.646,noRew,,,,,,0,22,0,22,0,1,,,,,,,,,,,,,,,,,
298306,2022-12-01_14h06.21.388,vts_reward_expectancy_bt,2022.2.4,MacIntel,58.96226415,Firefox,1440,900,,,,,0,540,,,,,,,,,,,,,,,,,F,125,triangle,1,0,,,,,,,,,,,,,,,,switch,letter,lettSwt,d,0.693,noRew,,,,,,0,23,0,23,0,1,,,,,,,,,,,,,,,,,
298306,2022-12-01_14h06.21.388,vts_reward_expectancy_bt,2022.2.4,MacIntel,58.96226415,Firefox,1440,900,,,,,0,540,,,,,,,,,,,,,,,,,S,167,circle,1,0,,,,,,,,,,,,,,,,switch,number,numSwt,k,0.834,noRew,,,,,,0,24,0,24,0,1,,,,,,,,,,,,,,,,,
298306,2022-12-01_14h06.21.388,vts_reward_expectancy_bt,2022.2.4,MacIntel,58.96226415,Firefox,1440,900,,,,,0,540,,,,,,,,,,,,,,,,,D,174,hexagon,1,0,,,,,,,,,,,,,,,,repeat,number,numRpt,k,0.997,noRew,,,,,,0,25,0,25,0,1,,,,,,,,,,,,,,,,,
298306,2022-12-01_14h06.21.388,vts_reward_expectancy_bt,2022.2.4,MacIntel,58.96226415,Firefox,1440,900,,,,,0,540,,,,,,,,,,,,,,,,,U,125,star,1,0,,,,,,,,,,,,,,,,repeat,number,numRpt,j,0.631,noRew,,,,,,0,26,0,26,0,1,,,,,,,,,,,,,,,,,
298306,2022-12-01_14h06.21.388,vts_reward_expectancy_bt,2022.2.4,MacIntel,58.96226415,Firefox,1440,900,,,,,0,540,,,,,,,,,,,,,,,,,W,181,triangle,1,0,,,,,,,,,,,,,,,,repeat,number,numRpt,k,0.683,noRew,,,,,,0,27,0,27,0,1,,,,,,,,,,,,,,,,,
298306,2022-12-01_14h06.21.388,vts_reward_expectancy_bt,2022.2.4,MacIntel,58.96226415,Firefox,1440,900,,,,,0,540,,,,,,,,,,,,,,,,,B,160,triangle,1,0,,,,,,,,,,,,,,,,repeat,number,numRpt,k,1.066,noRew,,,,,,0,28,0,28,0,1,,,,,,,,,,,,,,,,,
298306,2022-12-01_14h06.21.388,vts_reward_expectancy_bt,2022.2.4,MacIntel,58.96226415,Firefox,1440,900,,,,,0,540,,,,,,,,,,,,,,,,,F,132,circle,1,0,,,,,,,,,,,,,,,,switch,letter,lettSwt,d,0.75,noRew,,,,,,0,29,0,29,0,1,,,,,,,,,,,,,,,,,
298306,2022-12-01_14h06.21.388,vts_reward_expectancy_bt,2022.2.4,MacIntel,58.96226415,Firefox,1440,900,,,,,0,540,,,,,,,,,,,,,,,,,D,125,triangle,1,0,,,,,,,,,,,,,,,,repeat,letter,lettRpt,d,0.697,noRew,,,,,,0,30,0,30,0,1,,,,,,,,,,,,,,,,,
298306,2022-12-01_14h06.21.388,vts_reward_expectancy_bt,2022.2.4,MacIntel,58.96226415,Firefox,1440,900,,,,,0,540,,,,,,,,,,,,,,,,,H,139,circle,1,0,,,,,,,,,,,,,,,,switch,number,numSwt,j,0.567,noRew,,,,,,0,31,0,31,0,1,,,,,,,,,,,,,,,,,
298306,2022-12-01_14h06.21.388,vts_reward_expectancy_bt,2022.2.4,MacIntel,58.96226415,Firefox,1440,900,,,,,0,540,,,,,,,,,,,,,,,,,Y,181,star,1,0,,,,,,,,,,,,,,,,repeat,number,numRpt,k,0.871,noRew,,,,,,0,32,0,32,0,1,,,,,,,,,,,,,,,,,
298306,2022-12-01_14h06.21.388,vts_reward_expectancy_bt,2022.2.4,MacIntel,58.96226415,Firefox,1440,900,,,,,0,540,,,,,,,,,,,,,,,,,U,167,hexagon,1,0,,,,,,,,,,,,,,,,switch,letter,lettSwt,f,0.6,noRew,,,,,,0,33,0,33,0,1,,,,,,,,,,,,,,,,,
298306,2022-12-01_14h06.21.388,vts_reward_expectancy_bt,2022.2.4,MacIntel,58.96226415,Firefox,1440,900,,,,,0,540,,,,,,,,,,,,,,,,,H,146,star,1,0,,,,,,,,,,,,,,,,switch,number,numSwt,j,0.567,noRew,,,,,,0,34,0,34,0,1,,,,,,,,,,,,,,,,,
298306,2022-12-01_14h06.21.388,vts_reward_expectancy_bt,2022.2.4,MacIntel,58.96226415,Firefox,1440,900,,,,,0,540,,,,,,,,,,,,,,,,,S,139,circle,1,0,,,,,,,,,,,,,,,,repeat,number,numRpt,j,0.633,noRew,,,,,,0,35,0,35,0,1,,,,,,,,,,,,,,,,,
298306,2022-12-01_14h06.21.388,vts_reward_expectancy_bt,2022.2.4,MacIntel,58.96226415,Firefox,1440,900,,,,,0,540,,,,,,,,,,,,,,,,,Y,181,hexagon,1,0,,,,,,,,,,,,,,,,switch,letter,lettSwt,f,0.716,noRew,,,,,,0,36,0,36,0,1,,,,,,,,,,,,,,,,,
298306,2022-12-01_14h06.21.388,vts_reward_expectancy_bt,2022.2.4,MacIntel,58.96226415,Firefox,1440,900,,,,,0,540,,,,,,,,,,,,,,,,,F,167,circle,1,0,,,,,,,,,,,,,,,,switch,number,numSwt,k,1.019,noRew,,,,,,0,37,0,37,0,1,,,,,,,,,,,,,,,,,
298306,2022-12-01_14h06.21.388,vts_reward_expectancy_bt,2022.2.4,MacIntel,58.96226415,Firefox,1440,900,,,,,0,540,,,,,,,,,,,,,,,,,W,174,star,1,0,,,,,,,,,,,,,,,,repeat,number,numRpt,k,0.549,noRew,,,,,,0,38,0,38,0,1,,,,,,,,,,,,,,,,,
298306,2022-12-01_14h06.21.388,vts_reward_expectancy_bt,2022.2.4,MacIntel,58.96226415,Firefox,1440,900,,,,,0,540,,,,,,,,,,,,,,,,,S,132,triangle,1,0,,,,,,,,,,,,,,,,switch,letter,lettSwt,f,0.632,noRew,,,,,,0,39,0,39,0,1,,,,,,,,,,,,,,,,,
298306,2022-12-01_14h06.21.388,vts_reward_expectancy_bt,2022.2.4,MacIntel,58.96226415,Firefox,1440,900,,,,,0,540,,,,,,,,,,,,,,,,,F,125,triangle,1,0,,,,,,,,,,,,,,,,repeat,letter,lettRpt,d,0.732,noRew,,,,,,0,40,0,40,0,1,,,,,,,,,,,,,,,,,
298306,2022-12-01_14h06.21.388,vts_reward_expectancy_bt,2022.2.4,MacIntel,58.96226415,Firefox,1440,900,,,,,0,540,,,,,,,,,,,,,,,,,Y,139,circle,1,0,,,,,,,,,,,,,,,,repeat,letter,lettRpt,f,1.35,noRew,,,,,,0,41,0,41,0,1,,,,,,,,,,,,,,,,,
298306,2022-12-01_14h06.21.388,vts_reward_expectancy_bt,2022.2.4,MacIntel,58.96226415,Firefox,1440,900,,,,,0,540,,,,,,,,,,,,,,,,,U,181,circle,1,0,,,,,,,,,,,,,,,,switch,number,numSwt,k,0.601,noRew,,,,,,0,42,0,42,0,1,,,,,,,,,,,,,,,,,
298306,2022-12-01_14h06.21.388,vts_reward_expectancy_bt,2022.2.4,MacIntel,58.96226415,Firefox,1440,900,,,,,0,540,,,,,,,,,,,,,,,,,B,160,triangle,1,0,,,,,,,,,,,,,,,,repeat,number,numRpt,k,1.182,noRew,,,,,,0,43,0,43,0,1,,,,,,,,,,,,,,,,,
298306,2022-12-01_14h06.21.388,vts_reward_expectancy_bt,2022.2.4,MacIntel,58.96226415,Firefox,1440,900,,,,,0,540,,,,,,,,,,,,,,,,,B,125,circle,1,0,,,,,,,,,,,,,,,,repeat,number,numRpt,j,1.085,noRew,,,,,,0,44,0,44,0,1,,,,,,,,,,,,,,,,,
298306,2022-12-01_14h06.21.388,vts_reward_expectancy_bt,2022.2.4,MacIntel,58.96226415,Firefox,1440,900,,,,,0,540,,,,,,,,,,,,,,,,,U,132,star,1,0,,,,,,,,,,,,,,,,switch,letter,lettSwt,f,0.633,noRew,,,,,,0,45,0,45,0,1,,,,,,,,,,,,,,,,,
298306,2022-12-01_14h06.21.388,vts_reward_expectancy_bt,2022.2.4,MacIntel,58.96226415,Firefox,1440,900,,,,,0,540,,,,,,,,,,,,,,,,,W,146,triangle,1,0,,,,,,,,,,,,,,,,switch,number,numSwt,j,0.881,noRew,,,,,,0,46,0,46,0,1,,,,,,,,,,,,,,,,,
298306,2022-12-01_14h06.21.388,vts_reward_expectancy_bt,2022.2.4,MacIntel,58.96226415,Firefox,1440,900,,,,,0,540,,,,,,,,,,,,,,,,,F,139,circle,1,0,,,,,,,,,,,,,,,,repeat,number,numRpt,j,1.116,noRew,,,,,,0,47,0,47,0,1,,,,,,,,,,,,,,,,,
298306,2022-12-01_14h06.21.388,vts_reward_expectancy_bt,2022.2.4,MacIntel,58.96226415,Firefox,1440,900,,,,,0,540,,,,,,,,,,,,,,,,,H,181,triangle,1,0,,,,,,,,,,,,,,,,switch,letter,lettSwt,d,1.498,noRew,,,,,,0,48,0,48,0,1,,,,,,,,,,,,,,,,,
298306,2022-12-01_14h06.21.388,vts_reward_expectancy_bt,2022.2.4,MacIntel,58.96226415,Firefox,1440,900,,,,,0,540,,,,,,,,,,,,,,,,,S,160,hexagon,1,0,,,,,,,,,,,,,,,,repeat,letter,lettRpt,f,0.633,noRew,,,,,,0,49,0,49,0,1,,,,,,,,,,,,,,,,,
298306,2022-12-01_14h06.21.388,vts_reward_expectancy_bt,2022.2.4,MacIntel,58.96226415,Firefox,1440,900,,,,,0,540,,,,,,,,,,,,,,,,,B,167,hexagon,1,0,,,,,,,,,,,,,,,,switch,number,numSwt,k,0.651,noRew,,,,,,0,50,0,50,0,1,,,,,,,,,,,,,,,,,
298306,2022-12-01_14h06.21.388,vts_reward_expectancy_bt,2022.2.4,MacIntel,58.96226415,Firefox,1440,900,,,,,0,540,,,,,,,,,,,,,,,,,D,146,circle,1,0,,,,,,,,,,,,,,,,repeat,number,numRpt,j,0.881,noRew,,,,,,0,51,0,51,0,1,,,,,,,,,,,,,,,,,
298306,2022-12-01_14h06.21.388,vts_reward_expectancy_bt,2022.2.4,MacIntel,58.96226415,Firefox,1440,900,,,,,0,540,,,,,,,,,,,,,,,,,H,125,triangle,1,0,,,,,,,,,,,,,,,,switch,letter,lettSwt,d,0.666,noRew,,,,,,0,52,0,52,0,1,,,,,,,,,,,,,,,,,
298306,2022-12-01_14h06.21.388,vts_reward_expectancy_bt,2022.2.4,MacIntel,58.96226415,Firefox,1440,900,,,,,0,540,,,,,,,,,,,,,,,,,W,174,hexagon,1,0,,,,,,,,,,,,,,,,switch,number,numSwt,k,0.517,noRew,,,,,,0,53,0,53,0,1,,,,,,,,,,,,,,,,,
298306,2022-12-01_14h06.21.388,vts_reward_expectancy_bt,2022.2.4,MacIntel,58.96226415,Firefox,1440,900,,,,,0,540,,,,,,,,,,,,,,,,,D,167,hexagon,1,0,,,,,,,,,,,,,,,,switch,letter,lettSwt,d,0.617,noRew,,,,,,0,54,0,54,0,1,,,,,,,,,,,,,,,,,
298306,2022-12-01_14h06.21.388,vts_reward_expectancy_bt,2022.2.4,MacIntel,58.96226415,Firefox,1440,900,,,,,0,540,,,,,,,,,,,,,,,,,B,160,star,1,0,,,,,,,,,,,,,,,,repeat,letter,lettRpt,d,0.666,noRew,,,,,,0,55,0,55,0,1,,,,,,,,,,,,,,,,,
298306,2022-12-01_14h06.21.388,vts_reward_expectancy_bt,2022.2.4,MacIntel,58.96226415,Firefox,1440,900,,,,,0,540,,,,,,,,,,,,,,,,,H,132,hexagon,1,0,,,,,,,,,,,,,,,,repeat,letter,lettRpt,d,1.14,noRew,,,,,,0,56,0,56,0,1,,,,,,,,,,,,,,,,,
298306,2022-12-01_14h06.21.388,vts_reward_expectancy_bt,2022.2.4,MacIntel,58.96226415,Firefox,1440,900,,,,,0,540,,,,,,,,,,,,,,,,,U,125,triangle,1,0,,,,,,,,,,,,,,,,repeat,letter,lettRpt,f,0.699,noRew,,,,,,0,57,0,57,0,1,,,,,,,,,,,,,,,,,
298306,2022-12-01_14h06.21.388,vts_reward_expectancy_bt,2022.2.4,MacIntel,58.96226415,Firefox,1440,900,,,,,0,540,,,,,,,,,,,,,,,,,D,139,circle,1,0,,,,,,,,,,,,,,,,switch,number,numSwt,j,0.629,noRew,,,,,,0,58,0,58,0,1,,,,,,,,,,,,,,,,,
298306,2022-12-01_14h06.21.388,vts_reward_expectancy_bt,2022.2.4,MacIntel,58.96226415,Firefox,1440,900,,,,,0,540,,,,,,,,,,,,,,,,,B,160,hexagon,1,0,,,,,,,,,,,,,,,,repeat,number,numRpt,k,0.746,noRew,,,,,,0,59,0,59,0,1,,,,,,,,,,,,,,,,,
298306,2022-12-01_14h06.21.388,vts_reward_expectancy_bt,2022.2.4,MacIntel,58.96226415,Firefox,1440,900,,,,,0,540,,,,,,,,,,,,,,,,,D,160,triangle,1,0,,,,,,,,,,,,,,,,repeat,number,numRpt,k,0.624,noRew,,,,,,0,60,0,60,0,1,,,,,,,,,,,,,,,,,
298306,2022-12-01_14h06.21.388,vts_reward_expectancy_bt,2022.2.4,MacIntel,58.96226415,Firefox,1440,900,,,,,0,540,,,,,,,,,,,,,,,,,W,167,hexagon,1,0,,,,,,,,,,,,,,,,switch,letter,lettSwt,f,0.799,noRew,,,,,,0,61,0,61,0,1,,,,,,,,,,,,,,,,,
298306,2022-12-01_14h06.21.388,vts_reward_expectancy_bt,2022.2.4,MacIntel,58.96226415,Firefox,1440,900,,,,,0,540,,,,,,,,,,,,,,,,,B,174,star,1,0,,,,,,,,,,,,,,,,switch,number,numSwt,k,0.88,noRew,,,,,,0,62,0,62,0,1,,,,,,,,,,,,,,,,,
298306,2022-12-01_14h06.21.388,vts_reward_expectancy_bt,2022.2.4,MacIntel,58.96226415,Firefox,1440,900,,,,,0,540,,,,,,,,,,,,,,,,,H,139,circle,1,0,,,,,,,,,,,,,,,,repeat,number,numRpt,j,0.752,noRew,,,,,,0,63,0,63,0,1,,,,,,,,,,,,,,,,,
298306,2022-12-01_14h06.21.388,vts_reward_expectancy_bt,2022.2.4,MacIntel,58.96226415,Firefox,1440,900,,,,,,,,,,,,,,,,,,,,,,,,,,,,,,,,,,,,,,,,,,,,,,,,,,,,,,,,,,,,,,,,,,,,,,,,,,,,
298306,2022-12-01_14h06.21.388,vts_reward_expectancy_bt,2022.2.4,MacIntel,58.96226415,Firefox,1440,900,,,,,1,541,,,,,,,,,,,,,,,,,Y,174,circle,1,0,,,,,,,,,,,,,,,,switch,letter,lettSwt,f,0.57,Lo,,,,,,0,,,,,,space,8.68,low,0,0,0,0,1,,,,,,,,,
298306,2022-12-01_14h06.21.388,vts_reward_expectancy_bt,2022.2.4,MacIntel,58.96226415,Firefox,1440,900,,,,,1,542,,,,,,,,,,,,,,,,,W,125,hexagon,1,0,,,,,,,,,,,,,,,,switch,number,numSwt,j,0.566,Lo,,,,,,0,,,,,,,,low,1,0,1,0,1,,,,,,,,,
298306,2022-12-01_14h06.21.388,vts_reward_expectancy_bt,2022.2.4,MacIntel,58.96226415,Firefox,1440,900,,,,,1,543,,,,,,,,,,,,,,,,,U,167,star,1,0,,,,,,,,,,,,,,,,repeat,number,numRpt,k,0.598,Hi,,,,,,0,,,,,,,,low,2,0,2,0,1,,,,,,,,,
298306,2022-12-01_14h06.21.388,vts_reward_expectancy_bt,2022.2.4,MacIntel,58.96226415,Firefox,1440,900,,,,,1,544,,,,,,,,,,,,,,,,,S,146,triangle,1,0,,,,,,,,,,,,,,,,switch,letter,lettSwt,f,0.463,Hi,,,,,,0,,,,,,,,low,3,0,3,0,1,,,,,,,,,
298306,2022-12-01_14h06.21.388,vts_reward_expectancy_bt,2022.2.4,MacIntel,58.96226415,Firefox,1440,900,,,,,10,554,,,,,,,,,,,,,,,,,D,181,circle,1,0,,,,,,,,,,,,,,,,repeat,letter,lettRpt,d,0.349,Lo,,,,,,0,,,,,,,,low,4,0,4,0,1,,,,,,,,,
298306,2022-12-01_14h06.21.388,vts_reward_expectancy_bt,2022.2.4,MacIntel,58.96226415,Firefox,1440,900,,,,,10,564,,,,,,,,,,,,,,,,,F,139,hexagon,1,0,,,,,,,,,,,,,,,,switch,number,numSwt,j,0.418,Lo,,,,,,0,,,,,,,,low,5,0,5,0,1,,,,,,,,,
298306,2022-12-01_14h06.21.388,vts_reward_expectancy_bt,2022.2.4,MacIntel,58.96226415,Firefox,1440,900,,,,,1,565,,,,,,,,,,,,,,,,,H,160,star,1,0,,,,,,,,,,,,,,,,repeat,number,numRpt,k,0.518,Hi,,,,,,0,,,,,,,,low,6,0,6,0,1,,,,,,,,,
298306,2022-12-01_14h06.21.388,vts_reward_expectancy_bt,2022.2.4,MacIntel,58.96226415,Firefox,1440,900,,,,,10,575,,,,,,,,,,,,,,,,,B,132,triangle,1,0,,,,,,,,,,,,,,,,switch,letter,lettSwt,d,0.62,Hi,,,,,,0,,,,,,,,low,7,0,7,0,1,,,,,,,,,
298306,2022-12-01_14h06.21.388,vts_reward_expectancy_bt,2022.2.4,MacIntel,58.96226415,Firefox,1440,900,,,,,1,576,,,,,,,,,,,,,,,,,Y,174,star,1,0,,,,,,,,,,,,,,,,repeat,letter,lettRpt,f,0.482,Hi,,,,,,0,,,,,,,,low,8,0,8,0,1,,,,,,,,,
298306,2022-12-01_14h06.21.388,vts_reward_expectancy_bt,2022.2.4,MacIntel,58.96226415,Firefox,1440,900,,,,,10,586,,,,,,,,,,,,,,,,,W,125,hexagon,1,0,,,,,,,,,,,,,,,,repeat,letter,lettRpt,f,0.518,Lo,,,,,,0,,,,,,,,low,9,0,9,0,1,,,,,,,,,
298306,2022-12-01_14h06.21.388,vts_reward_expectancy_bt,2022.2.4,MacIntel,58.96226415,Firefox,1440,900,,,,,0,586,,,,,,,,,,,,,,,,,U,167,triangle,1,0,,,,,,,,,,,,,,,,switch,number,numSwt,k,0.65,Hi,,,,,,0,,,,,,,,low,10,0,10,0,1,,,,,,,,,
298306,2022-12-01_14h06.21.388,vts_reward_expectancy_bt,2022.2.4,MacIntel,58.96226415,Firefox,1440,900,,,,,0,586,,,,,,,,,,,,,,,,,S,146,circle,0,0,,,,,,,,,,,,,,,,switch,letter,NA,d,0.47,Hi,,,,,,0,,,,,,,,low,11,0,11,0,1,,,,,,,,,
298306,2022-12-01_14h06.21.388,vts_reward_expectancy_bt,2022.2.4,MacIntel,58.96226415,Firefox,1440,900,,,,,0,586,,,,,,,,,,,,,,,,,D,181,triangle,1,1,,,,,,,,,,,,,,,,switch,number,numSwt,k,0.639,Hi,,,,,,0,,,,,,,,low,12,0,12,0,1,,,,,,,,,
298306,2022-12-01_14h06.21.388,vts_reward_expectancy_bt,2022.2.4,MacIntel,58.96226415,Firefox,1440,900,,,,,1,587,,,,,,,,,,,,,,,,,F,139,hexagon,1,0,,,,,,,,,,,,,,,,repeat,number,numRpt,j,0.417,Lo,,,,,,0,,,,,,,,low,13,0,13,0,1,,,,,,,,,
298306,2022-12-01_14h06.21.388,vts_reward_expectancy_bt,2022.2.4,MacIntel,58.96226415,Firefox,1440,900,,,,,0,587,,,,,,,,,,,,,,,,,H,160,star,0,0,,,,,,,,,,,,,,,,switch,letter,NA,f,0.398,Lo,,,,,,0,,,,,,,,low,14,0,14,0,1,,,,,,,,,
298306,2022-12-01_14h06.21.388,vts_reward_expectancy_bt,2022.2.4,MacIntel,58.96226415,Firefox,1440,900,,,,,10,597,,,,,,,,,,,,,,,,,B,132,circle,1,1,,,,,,,,,,,,,,,,repeat,letter,lettRpt,d,0.5,Lo,,,,,,0,,,,,,,,low,15,0,15,0,1,,,,,,,,,
298306,2022-12-01_14h06.21.388,vts_reward_expectancy_bt,2022.2.4,MacIntel,58.96226415,Firefox,1440,900,,,,,10,607,,,,,,,,,,,,,,,,,B,132,triangle,1,0,,,,,,,,,,,,,,,,repeat,letter,lettRpt,d,0.457,Hi,,,,,,0,,,,,,,,low,16,0,16,0,1,,,,,,,,,
298306,2022-12-01_14h06.21.388,vts_reward_expectancy_bt,2022.2.4,MacIntel,58.96226415,Firefox,1440,900,,,,,1,608,,,,,,,,,,,,,,,,,W,139,star,1,0,,,,,,,,,,,,,,,,switch,number,numSwt,j,0.368,Hi,,,,,,0,,,,,,,,low,17,0,17,0,1,,,,,,,,,
298306,2022-12-01_14h06.21.388,vts_reward_expectancy_bt,2022.2.4,MacIntel,58.96226415,Firefox,1440,900,,,,,1,609,,,,,,,,,,,,,,,,,U,146,circle,1,0,,,,,,,,,,,,,,,,repeat,number,numRpt,j,0.501,Lo,,,,,,0,,,,,,,,low,18,0,18,0,1,,,,,,,,,
298306,2022-12-01_14h06.21.388,vts_reward_expectancy_bt,2022.2.4,MacIntel,58.96226415,Firefox,1440,900,,,,,1,610,,,,,,,,,,,,,,,,,D,181,hexagon,1,0,,,,,,,,,,,,,,,,switch,letter,lettSwt,d,0.447,Lo,,,,,,0,,,,,,,,low,19,0,19,0,1,,,,,,,,,
298306,2022-12-01_14h06.21.388,vts_reward_expectancy_bt,2022.2.4,MacIntel,58.96226415,Firefox,1440,900,,,,,10,620,,,,,,,,,,,,,,,,,S,167,circle,1,0,,,,,,,,,,,,,,,,repeat,letter,lettRpt,f,0.532,Lo,,,,,,0,,,,,,,,low,20,0,20,0,1,,,,,,,,,
298306,2022-12-01_14h06.21.388,vts_reward_expectancy_bt,2022.2.4,MacIntel,58.96226415,Firefox,1440,900,,,,,1,621,,,,,,,,,,,,,,,,,Y,125,star,1,0,,,,,,,,,,,,,,,,switch,number,numSwt,j,0.5,Hi,,,,,,0,,,,,,,,low,21,0,21,0,1,,,,,,,,,
298306,2022-12-01_14h06.21.388,vts_reward_expectancy_bt,2022.2.4,MacIntel,58.96226415,Firefox,1440,900,,,,,1,622,,,,,,,,,,,,,,,,,H,174,triangle,1,0,,,,,,,,,,,,,,,,switch,letter,lettSwt,d,0.486,Hi,,,,,,0,,,,,,,,low,22,0,22,0,1,,,,,,,,,
298306,2022-12-01_14h06.21.388,vts_reward_expectancy_bt,2022.2.4,MacIntel,58.96226415,Firefox,1440,900,,,,,10,632,,,,,,,,,,,,,,,,,F,160,hexagon,1,0,,,,,,,,,,,,,,,,switch,number,numSwt,k,0.6,Lo,,,,,,0,,,,,,,,low,23,0,23,0,1,,,,,,,,,
298306,2022-12-01_14h06.21.388,vts_reward_expectancy_bt,2022.2.4,MacIntel,58.96226415,Firefox,1440,900,,,,,1,633,,,,,,,,,,,,,,,,,D,139,hexagon,1,0,,,,,,,,,,,,,,,,repeat,number,numRpt,j,0.485,Lo,,,,,,0,,,,,,,,low,24,0,24,0,1,,,,,,,,,
298306,2022-12-01_14h06.21.388,vts_reward_expectancy_bt,2022.2.4,MacIntel,58.96226415,Firefox,1440,900,,,,,10,643,,,,,,,,,,,,,,,,,S,146,star,1,0,,,,,,,,,,,,,,,,switch,letter,lettSwt,f,0.456,Hi,,,,,,0,,,,,,,,low,25,0,25,0,1,,,,,,,,,
298306,2022-12-01_14h06.21.388,vts_reward_expectancy_bt,2022.2.4,MacIntel,58.96226415,Firefox,1440,900,,,,,1,644,,,,,,,,,,,,,,,,,B,174,triangle,1,0,,,,,,,,,,,,,,,,repeat,letter,lettRpt,d,0.498,Hi,,,,,,0,,,,,,,,low,26,0,26,0,1,,,,,,,,,
298306,2022-12-01_14h06.21.388,vts_reward_expectancy_bt,2022.2.4,MacIntel,58.96226415,Firefox,1440,900,,,,,10,654,,,,,,,,,,,,,,,,,U,132,circle,1,0,,,,,,,,,,,,,,,,repeat,letter,lettRpt,f,0.499,Lo,,,,,,0,,,,,,,,low,27,0,27,0,1,,,,,,,,,
298306,2022-12-01_14h06.21.388,vts_reward_expectancy_bt,2022.2.4,MacIntel,58.96226415,Firefox,1440,900,,,,,1,655,,,,,,,,,,,,,,,,,Y,181,hexagon,1,0,,,,,,,,,,,,,,,,switch,number,numSwt,k,0.451,Lo,,,,,,0,,,,,,,,low,28,0,28,0,1,,,,,,,,,
298306,2022-12-01_14h06.21.388,vts_reward_expectancy_bt,2022.2.4,MacIntel,58.96226415,Firefox,1440,900,,,,,0,655,,,,,,,,,,,,,,,,,W,167,star,0,0,,,,,,,,,,,,,,,,repeat,number,NA,j,0.455,Lo,,,,,,0,,,,,,,,low,29,0,29,0,1,,,,,,,,,
298306,2022-12-01_14h06.21.388,vts_reward_expectancy_bt,2022.2.4,MacIntel,58.96226415,Firefox,1440,900,,,,,1,656,,,,,,,,,,,,,,,,,H,125,circle,1,1,,,,,,,,,,,,,,,,switch,letter,lettSwt,d,0.548,Lo,,,,,,0,,,,,,,,low,30,0,30,0,1,,,,,,,,,
298306,2022-12-01_14h06.21.388,vts_reward_expectancy_bt,2022.2.4,MacIntel,58.96226415,Firefox,1440,900,,,,,10,666,,,,,,,,,,,,,,,,,F,160,triangle,1,0,,,,,,,,,,,,,,,,repeat,letter,lettRpt,d,0.519,Hi,,,,,,0,,,,,,,,low,31,0,31,0,1,,,,,,,,,
298306,2022-12-01_14h06.21.388,vts_reward_expectancy_bt,2022.2.4,MacIntel,58.96226415,Firefox,1440,900,,,,,10,676,,,,,,,,,,,,,,,,,Y,132,circle,1,0,,,,,,,,,,,,,,,,repeat,letter,lettRpt,f,0.568,Lo,,,,,,1,,,,,,space,2.172,low,0,0,0,0,1,,,,,,,,,
298306,2022-12-01_14h06.21.388,vts_reward_expectancy_bt,2022.2.4,MacIntel,58.96226415,Firefox,1440,900,,,,,0,676,,,,,,,,,,,,,,,,,F,125,triangle,1,0,,,,,,,,,,,,,,,,switch,number,numSwt,j,0.504,Hi,,,,,,1,,,,,,,,low,1,0,1,0,1,,,,,,,,,
298306,2022-12-01_14h06.21.388,vts_reward_expectancy_bt,2022.2.4,MacIntel,58.96226415,Firefox,1440,900,,,,,1,677,,,,,,,,,,,,,,,,,H,139,hexagon,1,0,,,,,,,,,,,,,,,,switch,letter,lettSwt,d,0.551,Lo,,,,,,1,,,,,,,,low,2,0,2,0,1,,,,,,,,,
298306,2022-12-01_14h06.21.388,vts_reward_expectancy_bt,2022.2.4,MacIntel,58.96226415,Firefox,1440,900,,,,,0,677,,,,,,,,,,,,,,,,,U,181,star,1,0,,,,,,,,,,,,,,,,repeat,letter,lettRpt,f,0.515,Hi,,,,,,1,,,,,,,,low,3,0,3,0,1,,,,,,,,,
298306,2022-12-01_14h06.21.388,vts_reward_expectancy_bt,2022.2.4,MacIntel,58.96226415,Firefox,1440,900,,,,,10,687,,,,,,,,,,,,,,,,,W,174,circle,1,0,,,,,,,,,,,,,,,,switch,number,numSwt,k,0.42,Lo,,,,,,1,,,,,,,,low,4,0,4,0,1,,,,,,,,,
298306,2022-12-01_14h06.21.388,vts_reward_expectancy_bt,2022.2.4,MacIntel,58.96226415,Firefox,1440,900,,,,,0,687,,,,,,,,,,,,,,,,,B,160,triangle,0,0,,,,,,,,,,,,,,,,repeat,number,NA,j,0.62,Lo,,,,,,1,,,,,,,,low,5,0,5,0,1,,,,,,,,,
298306,2022-12-01_14h06.21.388,vts_reward_expectancy_bt,2022.2.4,MacIntel,58.96226415,Firefox,1440,900,,,,,1,688,,,,,,,,,,,,,,,,,D,167,hexagon,1,1,,,,,,,,,,,,,,,,repeat,number,numRpt,k,0.517,Lo,,,,,,1,,,,,,,,low,6,0,6,0,1,,,,,,,,,
298306,2022-12-01_14h06.21.388,vts_reward_expectancy_bt,2022.2.4,MacIntel,58.96226415,Firefox,1440,900,,,,,0,688,,,,,,,,,,,,,,,,,S,146,star,1,0,,,,,,,,,,,,,,,,switch,letter,lettSwt,f,0.515,Hi,,,,,,1,,,,,,,,low,7,0,7,0,1,,,,,,,,,
298306,2022-12-01_14h06.21.388,vts_reward_expectancy_bt,2022.2.4,MacIntel,58.96226415,Firefox,1440,900,,,,,1,689,,,,,,,,,,,,,,,,,Y,132,triangle,1,0,,,,,,,,,,,,,,,,switch,number,numSwt,j,0.449,Hi,,,,,,1,,,,,,,,low,8,0,8,0,1,,,,,,,,,
298306,2022-12-01_14h06.21.388,vts_reward_expectancy_bt,2022.2.4,MacIntel,58.96226415,Firefox,1440,900,,,,,10,699,,,,,,,,,,,,,,,,,F,125,circle,1,0,,,,,,,,,,,,,,,,switch,letter,lettSwt,d,0.519,Lo,,,,,,1,,,,,,,,low,9,0,9,0,1,,,,,,,,,
298306,2022-12-01_14h06.21.388,vts_reward_expectancy_bt,2022.2.4,MacIntel,58.96226415,Firefox,1440,900,,,,,1,700,,,,,,,,,,,,,,,,,H,139,hexagon,1,0,,,,,,,,,,,,,,,,repeat,letter,lettRpt,d,0.664,Lo,,,,,,1,,,,,,,,low,10,0,10,0,1,,,,,,,,,
298306,2022-12-01_14h06.21.388,vts_reward_expectancy_bt,2022.2.4,MacIntel,58.96226415,Firefox,1440,900,,,,,10,710,,,,,,,,,,,,,,,,,U,181,star,1,0,,,,,,,,,,,,,,,,switch,number,numSwt,k,0.419,Hi,,,,,,1,,,,,,,,low,11,0,11,0,1,,,,,,,,,
298306,2022-12-01_14h06.21.388,vts_reward_expectancy_bt,2022.2.4,MacIntel,58.96226415,Firefox,1440,900,,,,,0,710,,,,,,,,,,,,,,,,,W,174,star,1,0,,,,,,,,,,,,,,,,repeat,number,numRpt,k,0.549,Hi,,,,,,1,,,,,,,,low,12,0,12,0,1,,,,,,,,,
298306,2022-12-01_14h06.21.388,vts_reward_expectancy_bt,2022.2.4,MacIntel,58.96226415,Firefox,1440,900,,,,,0,710,,,,,,,,,,,,,,,,,B,160,triangle,1,0,,,,,,,,,,,,,,,,repeat,number,numRpt,k,0.5,Hi,,,,,,1,,,,,,,,low,13,0,13,0,1,,,,,,,,,
298306,2022-12-01_14h06.21.388,vts_reward_expectancy_bt,2022.2.4,MacIntel,58.96226415,Firefox,1440,900,,,,,0,710,,,,,,,,,,,,,,,,,D,167,hexagon,0,0,,,,,,,,,,,,,,,,switch,letter,NA,f,0.466,Hi,,,,,,1,,,,,,,,low,14,0,14,0,1,,,,,,,,,
298306,2022-12-01_14h06.21.388,vts_reward_expectancy_bt,2022.2.4,MacIntel,58.96226415,Firefox,1440,900,,,,,0,710,,,,,,,,,,,,,,,,,S,146,circle,0,1,,,,,,,,,,,,,,,,repeat,letter,NA,d,0.53,Hi,,,,,,1,,,,,,,,low,15,0,15,0,1,,,,,,,,,
298306,2022-12-01_14h06.21.388,vts_reward_expectancy_bt,2022.2.4,MacIntel,58.96226415,Firefox,1440,900,,,,,10,720,,,,,,,,,,,,,,,,,S,160,hexagon,1,1,,,,,,,,,,,,,,,,repeat,letter,lettRpt,f,0.567,Lo,,,,,,1,,,,,,,,low,16,0,16,0,1,,,,,,,,,
298306,2022-12-01_14h06.21.388,vts_reward_expectancy_bt,2022.2.4,MacIntel,58.96226415,Firefox,1440,900,,,,,0,720,,,,,,,,,,,,,,,,,W,132,triangle,1,0,,,,,,,,,,,,,,,,switch,number,numSwt,j,0.536,Hi,,,,,,1,,,,,,,,low,17,0,17,0,1,,,,,,,,,
298306,2022-12-01_14h06.21.388,vts_reward_expectancy_bt,2022.2.4,MacIntel,58.96226415,Firefox,1440,900,,,,,1,721,,,,,,,,,,,,,,,,,U,167,circle,1,0,,,,,,,,,,,,,,,,repeat,number,numRpt,k,0.45,Lo,,,,,,1,,,,,,,,low,18,0,18,0,1,,,,,,,,,
298306,2022-12-01_14h06.21.388,vts_reward_expectancy_bt,2022.2.4,MacIntel,58.96226415,Firefox,1440,900,,,,,1,722,,,,,,,,,,,,,,,,,B,174,star,1,0,,,,,,,,,,,,,,,,repeat,number,numRpt,k,0.397,Hi,,,,,,1,,,,,,,,low,19,0,19,0,1,,,,,,,,,
298306,2022-12-01_14h06.21.388,vts_reward_expectancy_bt,2022.2.4,MacIntel,58.96226415,Firefox,1440,900,,,,,1,723,,,,,,,,,,,,,,,,,Y,181,star,1,0,,,,,,,,,,,,,,,,switch,letter,lettSwt,f,0.432,Hi,,,,,,1,,,,,,,,low,20,0,20,0,1,,,,,,,,,
298306,2022-12-01_14h06.21.388,vts_reward_expectancy_bt,2022.2.4,MacIntel,58.96226415,Firefox,1440,900,,,,,1,724,,,,,,,,,,,,,,,,,H,146,circle,1,0,,,,,,,,,,,,,,,,repeat,letter,lettRpt,d,0.451,Lo,,,,,,1,,,,,,,,low,21,0,21,0,1,,,,,,,,,
298306,2022-12-01_14h06.21.388,vts_reward_expectancy_bt,2022.2.4,MacIntel,58.96226415,Firefox,1440,900,,,,,1,725,,,,,,,,,,,,,,,,,F,125,hexagon,1,0,,,,,,,,,,,,,,,,switch,number,numSwt,j,0.496,Lo,,,,,,1,,,,,,,,low,22,0,22,0,1,,,,,,,,,
298306,2022-12-01_14h06.21.388,vts_reward_expectancy_bt,2022.2.4,MacIntel,58.96226415,Firefox,1440,900,,,,,0,725,,,,,,,,,,,,,,,,,D,139,triangle,1,0,,,,,,,,,,,,,,,,switch,letter,lettSwt,d,0.482,Hi,,,,,,1,,,,,,,,low,23,0,23,0,1,,,,,,,,,
298306,2022-12-01_14h06.21.388,vts_reward_expectancy_bt,2022.2.4,MacIntel,58.96226415,Firefox,1440,900,,,,,10,735,,,,,,,,,,,,,,,,,D,132,star,1,0,,,,,,,,,,,,,,,,repeat,letter,lettRpt,d,0.484,Hi,,,,,,1,,,,,,,,low,24,0,24,0,1,,,,,,,,,
298306,2022-12-01_14h06.21.388,vts_reward_expectancy_bt,2022.2.4,MacIntel,58.96226415,Firefox,1440,900,,,,,1,736,,,,,,,,,,,,,,,,,H,125,hexagon,1,0,,,,,,,,,,,,,,,,switch,number,numSwt,j,0.488,Lo,,,,,,1,,,,,,,,low,25,0,25,0,1,,,,,,,,,
298306,2022-12-01_14h06.21.388,vts_reward_expectancy_bt,2022.2.4,MacIntel,58.96226415,Firefox,1440,900,,,,,10,746,,,,,,,,,,,,,,,,,W,167,triangle,1,0,,,,,,,,,,,,,,,,repeat,number,numRpt,k,0.484,Hi,,,,,,1,,,,,,,,low,26,0,26,0,1,,,,,,,,,
298306,2022-12-01_14h06.21.388,vts_reward_expectancy_bt,2022.2.4,MacIntel,58.96226415,Firefox,1440,900,,,,,10,756,,,,,,,,,,,,,,,,,F,181,circle,1,0,,,,,,,,,,,,,,,,switch,letter,lettSwt,d,0.398,Lo,,,,,,1,,,,,,,,low,27,0,27,0,1,,,,,,,,,
298306,2022-12-01_14h06.21.388,vts_reward_expectancy_bt,2022.2.4,MacIntel,58.96226415,Firefox,1440,900,,,,,10,766,,,,,,,,,,,,,,,,,Y,160,hexagon,1,0,,,,,,,,,,,,,,,,repeat,letter,lettRpt,f,0.387,Lo,,,,,,1,,,,,,,,low,28,0,28,0,1,,,,,,,,,
298306,2022-12-01_14h06.21.388,vts_reward_expectancy_bt,2022.2.4,MacIntel,58.96226415,Firefox,1440,900,,,,,0,766,,,,,,,,,,,,,,,,,S,174,triangle,1,0,,,,,,,,,,,,,,,,switch,number,numSwt,k,0.494,Hi,,,,,,1,,,,,,,,low,29,0,29,0,1,,,,,,,,,
298306,2022-12-01_14h06.21.388,vts_reward_expectancy_bt,2022.2.4,MacIntel,58.96226415,Firefox,1440,900,,,,,0,766,,,,,,,,,,,,,,,,,U,139,star,0,0,,,,,,,,,,,,,,,,repeat,number,NA,k,0.398,Hi,,,,,,1,,,,,,,,low,30,0,30,0,1,,,,,,,,,
298306,2022-12-01_14h06.21.388,vts_reward_expectancy_bt,2022.2.4,MacIntel,58.96226415,Firefox,1440,900,,,,,1,767,,,,,,,,,,,,,,,,,B,146,circle,1,1,,,,,,,,,,,,,,,,repeat,number,numRpt,j,0.433,Lo,,,,,,1,,,,,,,,low,31,0,31,0,1,,,,,,,,,
298306,2022-12-01_14h06.21.388,vts_reward_expectancy_bt,2022.2.4,MacIntel,58.96226415,Firefox,1440,900,,,,,10,777,,,,,,,,,,,,,,,,,F,139,circle,1,0,,,,,,,,,,,,,,,,switch,letter,lettSwt,d,0.466,Lo,,,,,,2,,,,,,space,1.008,low,0,0,0,0,1,,,,,,,,,
298306,2022-12-01_14h06.21.388,vts_reward_expectancy_bt,2022.2.4,MacIntel,58.96226415,Firefox,1440,900,,,,,0,777,,,,,,,,,,,,,,,,,W,167,star,1,0,,,,,,,,,,,,,,,,repeat,letter,lettRpt,f,0.537,Hi,,,,,,2,,,,,,,,low,1,0,1,0,1,,,,,,,,,
298306,2022-12-01_14h06.21.388,vts_reward_expectancy_bt,2022.2.4,MacIntel,58.96226415,Firefox,1440,900,,,,,10,787,,,,,,,,,,,,,,,,,S,125,hexagon,1,0,,,,,,,,,,,,,,,,switch,number,numSwt,j,0.367,Lo,,,,,,2,,,,,,,,low,2,0,2,0,1,,,,,,,,,
298306,2022-12-01_14h06.21.388,vts_reward_expectancy_bt,2022.2.4,MacIntel,58.96226415,Firefox,1440,900,,,,,0,787,,,,,,,,,,,,,,,,,B,174,triangle,1,0,,,,,,,,,,,,,,,,repeat,number,numRpt,k,0.462,Hi,,,,,,2,,,,,,,,low,3,0,3,0,1,,,,,,,,,
298306,2022-12-01_14h06.21.388,vts_reward_expectancy_bt,2022.2.4,MacIntel,58.96226415,Firefox,1440,900,,,,,10,797,,,,,,,,,,,,,,,,,U,146,circle,1,0,,,,,,,,,,,,,,,,repeat,number,numRpt,j,0.449,Lo,,,,,,2,,,,,,,,low,4,0,4,0,1,,,,,,,,,
298306,2022-12-01_14h06.21.388,vts_reward_expectancy_bt,2022.2.4,MacIntel,58.96226415,Firefox,1440,900,,,,,10,807,,,,,,,,,,,,,,,,,D,132,star,1,0,,,,,,,,,,,,,,,,switch,letter,lettSwt,d,0.434,Hi,,,,,,2,,,,,,,,low,5,0,5,0,1,,,,,,,,,
298306,2022-12-01_14h06.21.388,vts_reward_expectancy_bt,2022.2.4,MacIntel,58.96226415,Firefox,1440,900,,,,,10,817,,,,,,,,,,,,,,,,,H,160,hexagon,1,0,,,,,,,,,,,,,,,,repeat,letter,lettRpt,d,0.481,Lo,,,,,,2,,,,,,,,low,6,0,6,0,1,,,,,,,,,
298306,2022-12-01_14h06.21.388,vts_reward_expectancy_bt,2022.2.4,MacIntel,58.96226415,Firefox,1440,900,,,,,10,827,,,,,,,,,,,,,,,,,Y,181,triangle,1,0,,,,,,,,,,,,,,,,repeat,letter,lettRpt,f,0.462,Hi,,,,,,2,,,,,,,,low,7,0,7,0,1,,,,,,,,,
298306,2022-12-01_14h06.21.388,vts_reward_expectancy_bt,2022.2.4,MacIntel,58.96226415,Firefox,1440,900,,,,,1,828,,,,,,,,,,,,,,,,,F,139,triangle,1,0,,,,,,,,,,,,,,,,repeat,letter,lettRpt,d,0.403,Hi,,,,,,2,,,,,,,,low,8,0,8,0,1,,,,,,,,,
298306,2022-12-01_14h06.21.388,vts_reward_expectancy_bt,2022.2.4,MacIntel,58.96226415,Firefox,1440,900,,,,,1,829,,,,,,,,,,,,,,,,,W,167,star,1,0,,,,,,,,,,,,,,,,switch,number,numSwt,k,0.436,Hi,,,,,,2,,,,,,,,low,9,0,9,0,1,,,,,,,,,
298306,2022-12-01_14h06.21.388,vts_reward_expectancy_bt,2022.2.4,MacIntel,58.96226415,Firefox,1440,900,,,,,1,830,,,,,,,,,,,,,,,,,S,125,hexagon,1,0,,,,,,,,,,,,,,,,repeat,number,numRpt,j,0.366,Lo,,,,,,2,,,,,,,,low,10,0,10,0,1,,,,,,,,,
298306,2022-12-01_14h06.21.388,vts_reward_expectancy_bt,2022.2.4,MacIntel,58.96226415,Firefox,1440,900,,,,,1,831,,,,,,,,,,,,,,,,,B,174,circle,1,0,,,,,,,,,,,,,,,,repeat,number,numRpt,k,0.418,Lo,,,,,,2,,,,,,,,low,11,0,11,0,1,,,,,,,,,
298306,2022-12-01_14h06.21.388,vts_reward_expectancy_bt,2022.2.4,MacIntel,58.96226415,Firefox,1440,900,,,,,10,841,,,,,,,,,,,,,,,,,U,146,circle,1,0,,,,,,,,,,,,,,,,switch,letter,lettSwt,f,0.581,Lo,,,,,,2,,,,,,,,low,12,0,12,0,1,,,,,,,,,
298306,2022-12-01_14h06.21.388,vts_reward_expectancy_bt,2022.2.4,MacIntel,58.96226415,Firefox,1440,900,,,,,10,851,,,,,,,,,,,,,,,,,D,132,star,1,0,,,,,,,,,,,,,,,,repeat,letter,lettRpt,d,0.382,Hi,,,,,,2,,,,,,,,low,13,0,13,0,1,,,,,,,,,
298306,2022-12-01_14h06.21.388,vts_reward_expectancy_bt,2022.2.4,MacIntel,58.96226415,Firefox,1440,900,,,,,10,861,,,,,,,,,,,,,,,,,H,160,triangle,1,0,,,,,,,,,,,,,,,,switch,number,numSwt,k,0.415,Hi,,,,,,2,,,,,,,,low,14,0,14,0,1,,,,,,,,,
298306,2022-12-01_14h06.21.388,vts_reward_expectancy_bt,2022.2.4,MacIntel,58.96226415,Firefox,1440,900,,,,,1,862,,,,,,,,,,,,,,,,,Y,181,hexagon,1,0,,,,,,,,,,,,,,,,repeat,number,numRpt,k,0.428,Lo,,,,,,2,,,,,,,,low,15,0,15,0,1,,,,,,,,,
298306,2022-12-01_14h06.21.388,vts_reward_expectancy_bt,2022.2.4,MacIntel,58.96226415,Firefox,1440,900,,,,,1,863,,,,,,,,,,,,,,,,,B,167,circle,1,0,,,,,,,,,,,,,,,,switch,letter,lettSwt,d,0.405,Lo,,,,,,2,,,,,,,,low,16,0,16,0,1,,,,,,,,,
298306,2022-12-01_14h06.21.388,vts_reward_expectancy_bt,2022.2.4,MacIntel,58.96226415,Firefox,1440,900,,,,,1,864,,,,,,,,,,,,,,,,,Y,125,hexagon,1,0,,,,,,,,,,,,,,,,repeat,letter,lettRpt,f,0.439,Lo,,,,,,2,,,,,,,,low,17,0,17,0,1,,,,,,,,,
298306,2022-12-01_14h06.21.388,vts_reward_expectancy_bt,2022.2.4,MacIntel,58.96226415,Firefox,1440,900,,,,,10,874,,,,,,,,,,,,,,,,,W,181,star,1,0,,,,,,,,,,,,,,,,switch,number,numSwt,k,0.404,Hi,,,,,,2,,,,,,,,low,18,0,18,0,1,,,,,,,,,
298306,2022-12-01_14h06.21.388,vts_reward_expectancy_bt,2022.2.4,MacIntel,58.96226415,Firefox,1440,900,,,,,10,884,,,,,,,,,,,,,,,,,F,146,triangle,1,0,,,,,,,,,,,,,,,,repeat,number,numRpt,j,0.414,Hi,,,,,,2,,,,,,,,low,19,0,19,0,1,,,,,,,,,
298306,2022-12-01_14h06.21.388,vts_reward_expectancy_bt,2022.2.4,MacIntel,58.96226415,Firefox,1440,900,,,,,10,894,,,,,,,,,,,,,,,,,S,139,hexagon,1,0,,,,,,,,,,,,,,,,switch,letter,lettSwt,f,0.4,Lo,,,,,,2,,,,,,,,low,20,0,20,0,1,,,,,,,,,
298306,2022-12-01_14h06.21.388,vts_reward_expectancy_bt,2022.2.4,MacIntel,58.96226415,Firefox,1440,900,,,,,1,895,,,,,,,,,,,,,,,,,D,132,circle,1,0,,,,,,,,,,,,,,,,switch,number,numSwt,j,0.35,Lo,,,,,,2,,,,,,,,low,21,0,21,0,1,,,,,,,,,
298306,2022-12-01_14h06.21.388,vts_reward_expectancy_bt,2022.2.4,MacIntel,58.96226415,Firefox,1440,900,,,,,0,895,,,,,,,,,,,,,,,,,H,174,triangle,1,0,,,,,,,,,,,,,,,,switch,letter,lettSwt,d,0.517,Hi,,,,,,2,,,,,,,,low,22,0,22,0,1,,,,,,,,,
298306,2022-12-01_14h06.21.388,vts_reward_expectancy_bt,2022.2.4,MacIntel,58.96226415,Firefox,1440,900,,,,,10,905,,,,,,,,,,,,,,,,,U,160,star,1,0,,,,,,,,,,,,,,,,switch,number,numSwt,k,0.436,Hi,,,,,,2,,,,,,,,low,23,0,23,0,1,,,,,,,,,
298306,2022-12-01_14h06.21.388,vts_reward_expectancy_bt,2022.2.4,MacIntel,58.96226415,Firefox,1440,900,,,,,0,905,,,,,,,,,,,,,,,,,W,125,star,1,0,,,,,,,,,,,,,,,,switch,letter,lettSwt,f,0.468,Hi,,,,,,2,,,,,,,,low,24,0,24,0,1,,,,,,,,,
298306,2022-12-01_14h06.21.388,vts_reward_expectancy_bt,2022.2.4,MacIntel,58.96226415,Firefox,1440,900,,,,,10,915,,,,,,,,,,,,,,,,,B,181,circle,1,0,,,,,,,,,,,,,,,,switch,number,numSwt,k,0.416,Lo,,,,,,2,,,,,,,,low,25,0,25,0,1,,,,,,,,,
298306,2022-12-01_14h06.21.388,vts_reward_expectancy_bt,2022.2.4,MacIntel,58.96226415,Firefox,1440,900,,,,,1,916,,,,,,,,,,,,,,,,,U,174,hexagon,1,0,,,,,,,,,,,,,,,,switch,letter,lettSwt,f,0.483,Lo,,,,,,2,,,,,,,,low,26,0,26,0,1,,,,,,,,,
298306,2022-12-01_14h06.21.388,vts_reward_expectancy_bt,2022.2.4,MacIntel,58.96226415,Firefox,1440,900,,,,,0,916,,,,,,,,,,,,,,,,,D,146,triangle,0,0,,,,,,,,,,,,,,,,repeat,letter,NA,f,0.418,Lo,,,,,,2,,,,,,,,low,27,0,27,0,1,,,,,,,,,
298306,2022-12-01_14h06.21.388,vts_reward_expectancy_bt,2022.2.4,MacIntel,58.96226415,Firefox,1440,900,,,,,0,916,,,,,,,,,,,,,,,,,H,139,star,1,1,,,,,,,,,,,,,,,,repeat,letter,lettRpt,d,0.514,Hi,,,,,,2,,,,,,,,low,28,0,28,0,1,,,,,,,,,
298306,2022-12-01_14h06.21.388,vts_reward_expectancy_bt,2022.2.4,MacIntel,58.96226415,Firefox,1440,900,,,,,10,926,,,,,,,,,,,,,,,,,Y,160,triangle,1,0,,,,,,,,,,,,,,,,switch,number,numSwt,k,0.417,Hi,,,,,,2,,,,,,,,low,29,0,29,0,1,,,,,,,,,
298306,2022-12-01_14h06.21.388,vts_reward_expectancy_bt,2022.2.4,MacIntel,58.96226415,Firefox,1440,900,,,,,10,936,,,,,,,,,,,,,,,,,S,167,circle,1,0,,,,,,,,,,,,,,,,repeat,number,numRpt,k,0.4,Lo,,,,,,2,,,,,,,,low,30,0,30,0,1,,,,,,,,,
298306,2022-12-01_14h06.21.388,vts_reward_expectancy_bt,2022.2.4,MacIntel,58.96226415,Firefox,1440,900,,,,,1,937,,,,,,,,,,,,,,,,,F,132,hexagon,1,0,,,,,,,,,,,,,,,,repeat,number,numRpt,j,0.366,Lo,,,,,,2,,,,,,,,low,31,0,31,0,1,,,,,,,,,
298306,2022-12-01_14h06.21.388,vts_reward_expectancy_bt,2022.2.4,MacIntel,58.96226415,Firefox,1440,900,,,,,0,937,,,,,,,,,,,,,,,,,W,160,circle,0,0,,,,,,,,,,,,,,,,switch,letter,NA,d,0.567,Lo,,,,,,3,,,,,,space,0.751,low,0,0,0,0,1,,,,,,,,,
298306,2022-12-01_14h06.21.388,vts_reward_expectancy_bt,2022.2.4,MacIntel,58.96226415,Firefox,1440,900,,,,,1,938,,,,,,,,,,,,,,,,,D,132,hexagon,1,1,,,,,,,,,,,,,,,,repeat,letter,lettRpt,d,0.447,Lo,,,,,,3,,,,,,,,low,1,0,1,0,1,,,,,,,,,
298306,2022-12-01_14h06.21.388,vts_reward_expectancy_bt,2022.2.4,MacIntel,58.96226415,Firefox,1440,900,,,,,0,938,,,,,,,,,,,,,,,,,U,181,star,1,0,,,,,,,,,,,,,,,,switch,number,numSwt,k,0.417,Hi,,,,,,3,,,,,,,,low,2,0,2,0,1,,,,,,,,,
298306,2022-12-01_14h06.21.388,vts_reward_expectancy_bt,2022.2.4,MacIntel,58.96226415,Firefox,1440,900,,,,,0,938,,,,,,,,,,,,,,,,,F,125,triangle,1,0,,,,,,,,,,,,,,,,repeat,number,numRpt,j,0.452,Hi,,,,,,3,,,,,,,,low,3,0,3,0,1,,,,,,,,,
298306,2022-12-01_14h06.21.388,vts_reward_expectancy_bt,2022.2.4,MacIntel,58.96226415,Firefox,1440,900,,,,,0,938,,,,,,,,,,,,,,,,,H,146,circle,0,0,,,,,,,,,,,,,,,,repeat,number,NA,k,0.351,Hi,,,,,,3,,,,,,,,low,4,0,4,0,1,,,,,,,,,
298306,2022-12-01_14h06.21.388,vts_reward_expectancy_bt,2022.2.4,MacIntel,58.96226415,Firefox,1440,900,,,,,10,948,,,,,,,,,,,,,,,,,B,174,hexagon,1,1,,,,,,,,,,,,,,,,repeat,number,numRpt,k,0.414,Lo,,,,,,3,,,,,,,,low,5,0,5,0,1,,,,,,,,,
298306,2022-12-01_14h06.21.388,vts_reward_expectancy_bt,2022.2.4,MacIntel,58.96226415,Firefox,1440,900,,,,,0,948,,,,,,,,,,,,,,,,,S,167,star,1,0,,,,,,,,,,,,,,,,switch,letter,lettSwt,f,0.586,Hi,,,,,,3,,,,,,,,low,6,0,6,0,1,,,,,,,,,
298306,2022-12-01_14h06.21.388,vts_reward_expectancy_bt,2022.2.4,MacIntel,58.96226415,Firefox,1440,900,,,,,0,948,,,,,,,,,,,,,,,,,Y,139,triangle,1,0,,,,,,,,,,,,,,,,repeat,letter,lettRpt,f,0.502,Hi,,,,,,3,,,,,,,,low,7,0,7,0,1,,,,,,,,,
298306,2022-12-01_14h06.21.388,vts_reward_expectancy_bt,2022.2.4,MacIntel,58.96226415,Firefox,1440,900,,,,,10,958,,,,,,,,,,,,,,,,,W,160,circle,1,0,,,,,,,,,,,,,,,,repeat,letter,lettRpt,f,0.432,Lo,,,,,,3,,,,,,,,low,8,0,8,0,1,,,,,,,,,
298306,2022-12-01_14h06.21.388,vts_reward_expectancy_bt,2022.2.4,MacIntel,58.96226415,Firefox,1440,900,,,,,0,958,,,,,,,,,,,,,,,,,D,132,star,1,0,,,,,,,,,,,,,,,,switch,number,numSwt,j,0.433,Hi,,,,,,3,,,,,,,,low,9,0,9,0,1,,,,,,,,,
298306,2022-12-01_14h06.21.388,vts_reward_expectancy_bt,2022.2.4,MacIntel,58.96226415,Firefox,1440,900,,,,,0,958,,,,,,,,,,,,,,,,,U,181,triangle,1,0,,,,,,,,,,,,,,,,repeat,number,numRpt,k,0.414,Hi,,,,,,3,,,,,,,,low,10,0,10,0,1,,,,,,,,,
298306,2022-12-01_14h06.21.388,vts_reward_expectancy_bt,2022.2.4,MacIntel,58.96226415,Firefox,1440,900,,,,,0,958,,,,,,,,,,,,,,,,,F,125,hexagon,0,0,,,,,,,,,,,,,,,,repeat,number,NA,k,0.367,Hi,,,,,,3,,,,,,,,low,11,0,11,0,1,,,,,,,,,
298306,2022-12-01_14h06.21.388,vts_reward_expectancy_bt,2022.2.4,MacIntel,58.96226415,Firefox,1440,900,,,,,10,968,,,,,,,,,,,,,,,,,H,146,hexagon,1,1,,,,,,,,,,,,,,,,repeat,number,numRpt,j,0.353,Lo,,,,,,3,,,,,,,,low,12,0,12,0,1,,,,,,,,,
298306,2022-12-01_14h06.21.388,vts_reward_expectancy_bt,2022.2.4,MacIntel,58.96226415,Firefox,1440,900,,,,,0,968,,,,,,,,,,,,,,,,,B,174,star,1,0,,,,,,,,,,,,,,,,switch,letter,lettSwt,d,0.486,Hi,,,,,,3,,,,,,,,low,13,0,13,0,1,,,,,,,,,
298306,2022-12-01_14h06.21.388,vts_reward_expectancy_bt,2022.2.4,MacIntel,58.96226415,Firefox,1440,900,,,,,0,968,,,,,,,,,,,,,,,,,S,167,circle,0,0,,,,,,,,,,,,,,,,repeat,letter,NA,d,0.383,Hi,,,,,,3,,,,,,,,low,14,0,14,0,1,,,,,,,,,
298306,2022-12-01_14h06.21.388,vts_reward_expectancy_bt,2022.2.4,MacIntel,58.96226415,Firefox,1440,900,,,,,10,978,,,,,,,,,,,,,,,,,Y,139,triangle,1,1,,,,,,,,,,,,,,,,repeat,letter,lettRpt,f,0.403,Hi,,,,,,3,,,,,,,,low,15,0,15,0,1,,,,,,,,,
298306,2022-12-01_14h06.21.388,vts_reward_expectancy_bt,2022.2.4,MacIntel,58.96226415,Firefox,1440,900,,,,,10,988,,,,,,,,,,,,,,,,,W,139,star,1,0,,,,,,,,,,,,,,,,switch,number,numSwt,j,0.366,Hi,,,,,,3,,,,,,,,low,16,0,16,0,1,,,,,,,,,
298306,2022-12-01_14h06.21.388,vts_reward_expectancy_bt,2022.2.4,MacIntel,58.96226415,Firefox,1440,900,,,,,10,998,,,,,,,,,,,,,,,,,U,167,hexagon,1,0,,,,,,,,,,,,,,,,repeat,number,numRpt,k,0.349,Lo,,,,,,3,,,,,,,,low,17,0,17,0,1,,,,,,,,,
298306,2022-12-01_14h06.21.388,vts_reward_expectancy_bt,2022.2.4,MacIntel,58.96226415,Firefox,1440,900,,,,,1,999,,,,,,,,,,,,,,,,,D,132,triangle,1,0,,,,,,,,,,,,,,,,repeat,number,numRpt,j,0.33,Hi,,,,,,3,,,,,,,,low,18,0,18,0,1,,,,,,,,,
298306,2022-12-01_14h06.21.388,vts_reward_expectancy_bt,2022.2.4,MacIntel,58.96226415,Firefox,1440,900,,,,,1,1000,,,,,,,,,,,,,,,,,H,125,circle,1,0,,,,,,,,,,,,,,,,switch,letter,lettSwt,d,0.454,Lo,,,,,,3,,,,,,,,low,19,0,19,0,1,,,,,,,,,
298306,2022-12-01_14h06.21.388,vts_reward_expectancy_bt,2022.2.4,MacIntel,58.96226415,Firefox,1440,900,,,,,10,1010,,,,,,,,,,,,,,,,,B,174,circle,1,0,,,,,,,,,,,,,,,,switch,number,numSwt,k,0.487,Lo,,,,,,3,,,,,,,,low,20,0,20,0,1,,,,,,,,,
298306,2022-12-01_14h06.21.388,vts_reward_expectancy_bt,2022.2.4,MacIntel,58.96226415,Firefox,1440,900,,,,,10,1020,,,,,,,,,,,,,,,,,S,160,hexagon,1,0,,,,,,,,,,,,,,,,repeat,number,numRpt,k,0.701,Lo,,,,,,3,,,,,,,,low,21,0,21,0,1,,,,,,,,,
298306,2022-12-01_14h06.21.388,vts_reward_expectancy_bt,2022.2.4,MacIntel,58.96226415,Firefox,1440,900,,,,,0,1020,,,,,,,,,,,,,,,,,F,181,star,1,0,,,,,,,,,,,,,,,,switch,letter,lettSwt,d,0.461,Hi,,,,,,3,,,,,,,,low,22,0,22,0,1,,,,,,,,,
298306,2022-12-01_14h06.21.388,vts_reward_expectancy_bt,2022.2.4,MacIntel,58.96226415,Firefox,1440,900,,,,,0,1020,,,,,,,,,,,,,,,,,Y,146,triangle,0,0,,,,,,,,,,,,,,,,repeat,letter,NA,d,0.399,Hi,,,,,,3,,,,,,,,low,23,0,23,0,1,,,,,,,,,
298306,2022-12-01_14h06.21.388,vts_reward_expectancy_bt,2022.2.4,MacIntel,58.96226415,Firefox,1440,900,,,,,1,1021,,,,,,,,,,,,,,,,,W,146,triangle,1,1,,,,,,,,,,,,,,,,repeat,letter,lettRpt,f,0.401,Hi,,,,,,3,,,,,,,,low,24,0,24,0,1,,,,,,,,,
298306,2022-12-01_14h06.21.388,vts_reward_expectancy_bt,2022.2.4,MacIntel,58.96226415,Firefox,1440,900,,,,,10,1031,,,,,,,,,,,,,,,,,H,160,circle,1,0,,,,,,,,,,,,,,,,switch,number,numSwt,k,0.449,Lo,,,,,,3,,,,,,,,low,25,0,25,0,1,,,,,,,,,
298306,2022-12-01_14h06.21.388,vts_reward_expectancy_bt,2022.2.4,MacIntel,58.96226415,Firefox,1440,900,,,,,1,1032,,,,,,,,,,,,,,,,,D,139,star,1,0,,,,,,,,,,,,,,,,repeat,number,numRpt,j,0.355,Hi,,,,,,3,,,,,,,,low,26,0,26,0,1,,,,,,,,,
298306,2022-12-01_14h06.21.388,vts_reward_expectancy_bt,2022.2.4,MacIntel,58.96226415,Firefox,1440,900,,,,,0,1032,,,,,,,,,,,,,,,,,F,125,hexagon,0,0,,,,,,,,,,,,,,,,switch,letter,NA,f,0.531,Hi,,,,,,3,,,,,,,,low,27,0,27,0,1,,,,,,,,,
298306,2022-12-01_14h06.21.388,vts_reward_expectancy_bt,2022.2.4,MacIntel,58.96226415,Firefox,1440,900,,,,,0,1032,,,,,,,,,,,,,,,,,U,181,star,1,1,,,,,,,,,,,,,,,,repeat,letter,lettRpt,f,0.52,Hi,,,,,,3,,,,,,,,low,28,0,28,0,1,,,,,,,,,
298306,2022-12-01_14h06.21.388,vts_reward_expectancy_bt,2022.2.4,MacIntel,58.96226415,Firefox,1440,900,,,,,1,1033,,,,,,,,,,,,,,,,,B,132,circle,1,0,,,,,,,,,,,,,,,,switch,number,numSwt,j,0.363,Lo,,,,,,3,,,,,,,,low,29,0,29,0,1,,,,,,,,,
298306,2022-12-01_14h06.21.388,vts_reward_expectancy_bt,2022.2.4,MacIntel,58.96226415,Firefox,1440,900,,,,,10,1043,,,,,,,,,,,,,,,,,S,174,hexagon,1,0,,,,,,,,,,,,,,,,repeat,number,numRpt,k,0.531,Lo,,,,,,3,,,,,,,,low,30,0,30,0,1,,,,,,,,,
298306,2022-12-01_14h06.21.388,vts_reward_expectancy_bt,2022.2.4,MacIntel,58.96226415,Firefox,1440,900,,,,,0,1043,,,,,,,,,,,,,,,,,Y,167,triangle,1,0,,,,,,,,,,,,,,,,repeat,number,numRpt,k,0.467,Hi,,,,,,3,,,,,,,,low,31,0,31,0,1,,,,,,,,,
298306,2022-12-01_14h06.21.388,vts_reward_expectancy_bt,2022.2.4,MacIntel,58.96226415,Firefox,1440,900,,,,,0,1043,,,,,,,,,,,,,,,,,D,174,hexagon,0,0,,,,,,,,,,,,,,,,switch,letter,NA,f,0.547,Hi,,,,,,4,,,,,,space,0.935,low,0,0,0,0,1,,,,,,,,,
298306,2022-12-01_14h06.21.388,vts_reward_expectancy_bt,2022.2.4,MacIntel,58.96226415,Firefox,1440,900,,,,,0,1043,,,,,,,,,,,,,,,,,B,125,star,1,1,,,,,,,,,,,,,,,,repeat,letter,lettRpt,d,0.498,Hi,,,,,,4,,,,,,,,low,1,0,1,0,1,,,,,,,,,
298306,2022-12-01_14h06.21.388,vts_reward_expectancy_bt,2022.2.4,MacIntel,58.96226415,Firefox,1440,900,,,,,1,1044,,,,,,,,,,,,,,,,,F,181,circle,1,0,,,,,,,,,,,,,,,,switch,number,numSwt,k,0.501,Lo,,,,,,4,,,,,,,,low,2,0,2,0,1,,,,,,,,,
298306,2022-12-01_14h06.21.388,vts_reward_expectancy_bt,2022.2.4,MacIntel,58.96226415,Firefox,1440,900,,,,,0,1044,,,,,,,,,,,,,,,,,Y,146,triangle,0,0,,,,,,,,,,,,,,,,repeat,number,NA,k,0.487,Lo,,,,,,4,,,,,,,,low,3,0,3,0,1,,,,,,,,,
298306,2022-12-01_14h06.21.388,vts_reward_expectancy_bt,2022.2.4,MacIntel,58.96226415,Firefox,1440,900,,,,,1,1045,,,,,,,,,,,,,,,,,S,160,hexagon,1,1,,,,,,,,,,,,,,,,repeat,number,numRpt,k,0.528,Lo,,,,,,4,,,,,,,,low,4,0,4,0,1,,,,,,,,,
298306,2022-12-01_14h06.21.388,vts_reward_expectancy_bt,2022.2.4,MacIntel,58.96226415,Firefox,1440,900,,,,,0,1045,,,,,,,,,,,,,,,,,H,167,star,0,0,,,,,,,,,,,,,,,,repeat,number,NA,j,0.6,Lo,,,,,,4,,,,,,,,low,5,0,5,0,1,,,,,,,,,
298306,2022-12-01_14h06.21.388,vts_reward_expectancy_bt,2022.2.4,MacIntel,58.96226415,Firefox,1440,900,,,,,1,1046,,,,,,,,,,,,,,,,,U,132,circle,1,1,,,,,,,,,,,,,,,,switch,letter,lettSwt,f,0.463,Lo,,,,,,4,,,,,,,,low,6,0,6,0,1,,,,,,,,,
298306,2022-12-01_14h06.21.388,vts_reward_expectancy_bt,2022.2.4,MacIntel,58.96226415,Firefox,1440,900,,,,,0,1046,,,,,,,,,,,,,,,,,W,139,triangle,1,0,,,,,,,,,,,,,,,,repeat,letter,lettRpt,f,0.481,Hi,,,,,,4,,,,,,,,low,7,0,7,0,1,,,,,,,,,
298306,2022-12-01_14h06.21.388,vts_reward_expectancy_bt,2022.2.4,MacIntel,58.96226415,Firefox,1440,900,,,,,0,1046,,,,,,,,,,,,,,,,,D,174,star,1,0,,,,,,,,,,,,,,,,repeat,letter,lettRpt,d,0.521,Hi,,,,,,4,,,,,,,,low,8,0,8,0,1,,,,,,,,,
298306,2022-12-01_14h06.21.388,vts_reward_expectancy_bt,2022.2.4,MacIntel,58.96226415,Firefox,1440,900,,,,,10,1056,,,,,,,,,,,,,,,,,B,125,circle,1,0,,,,,,,,,,,,,,,,switch,number,numSwt,j,0.557,Lo,,,,,,4,,,,,,,,low,9,0,9,0,1,,,,,,,,,
298306,2022-12-01_14h06.21.388,vts_reward_expectancy_bt,2022.2.4,MacIntel,58.96226415,Firefox,1440,900,,,,,0,1056,,,,,,,,,,,,,,,,,F,181,triangle,1,0,,,,,,,,,,,,,,,,repeat,number,numRpt,k,0.391,Hi,,,,,,4,,,,,,,,low,10,0,10,0,1,,,,,,,,,
298306,2022-12-01_14h06.21.388,vts_reward_expectancy_bt,2022.2.4,MacIntel,58.96226415,Firefox,1440,900,,,,,0,1056,,,,,,,,,,,,,,,,,Y,146,hexagon,0,0,,,,,,,,,,,,,,,,repeat,number,NA,k,0.463,Hi,,,,,,4,,,,,,,,low,11,0,11,0,1,,,,,,,,,
298306,2022-12-01_14h06.21.388,vts_reward_expectancy_bt,2022.2.4,MacIntel,58.96226415,Firefox,1440,900,,,,,1,1057,,,,,,,,,,,,,,,,,S,160,hexagon,1,1,,,,,,,,,,,,,,,,repeat,number,numRpt,k,0.616,Lo,,,,,,4,,,,,,,,low,12,0,12,0,1,,,,,,,,,
298306,2022-12-01_14h06.21.388,vts_reward_expectancy_bt,2022.2.4,MacIntel,58.96226415,Firefox,1440,900,,,,,0,1057,,,,,,,,,,,,,,,,,H,167,triangle,0,0,,,,,,,,,,,,,,,,switch,letter,NA,f,0.447,Lo,,,,,,4,,,,,,,,low,13,0,13,0,1,,,,,,,,,
298306,2022-12-01_14h06.21.388,vts_reward_expectancy_bt,2022.2.4,MacIntel,58.96226415,Firefox,1440,900,,,,,10,1067,,,,,,,,,,,,,,,,,U,132,circle,1,1,,,,,,,,,,,,,,,,switch,number,numSwt,j,0.368,Lo,,,,,,4,,,,,,,,low,14,0,14,0,1,,,,,,,,,
298306,2022-12-01_14h06.21.388,vts_reward_expectancy_bt,2022.2.4,MacIntel,58.96226415,Firefox,1440,900,,,,,0,1067,,,,,,,,,,,,,,,,,W,139,star,1,0,,,,,,,,,,,,,,,,repeat,number,numRpt,j,0.518,Hi,,,,,,4,,,,,,,,low,15,0,15,0,1,,,,,,,,,
298306,2022-12-01_14h06.21.388,vts_reward_expectancy_bt,2022.2.4,MacIntel,58.96226415,Firefox,1440,900,,,,,0,1067,,,,,,,,,,,,,,,,,F,181,star,1,0,,,,,,,,,,,,,,,,switch,letter,lettSwt,d,0.581,Hi,,,,,,4,,,,,,,,low,16,0,16,0,1,,,,,,,,,
298306,2022-12-01_14h06.21.388,vts_reward_expectancy_bt,2022.2.4,MacIntel,58.96226415,Firefox,1440,900,,,,,10,1077,,,,,,,,,,,,,,,,,Y,139,hexagon,1,0,,,,,,,,,,,,,,,,switch,number,numSwt,j,0.467,Lo,,,,,,4,,,,,,,,low,17,0,17,0,1,,,,,,,,,
298306,2022-12-01_14h06.21.388,vts_reward_expectancy_bt,2022.2.4,MacIntel,58.96226415,Firefox,1440,900,,,,,0,1077,,,,,,,,,,,,,,,,,U,174,triangle,0,0,,,,,,,,,,,,,,,,switch,letter,NA,d,0.5,Lo,,,,,,4,,,,,,,,low,18,0,18,0,1,,,,,,,,,
298306,2022-12-01_14h06.21.388,vts_reward_expectancy_bt,2022.2.4,MacIntel,58.96226415,Firefox,1440,900,,,,,10,1087,,,,,,,,,,,,,,,,,H,167,circle,1,1,,,,,,,,,,,,,,,,switch,number,numSwt,k,0.483,Lo,,,,,,4,,,,,,,,low,19,0,19,0,1,,,,,,,,,
298306,2022-12-01_14h06.21.388,vts_reward_expectancy_bt,2022.2.4,MacIntel,58.96226415,Firefox,1440,900,,,,,1,1088,,,,,,,,,,,,,,,,,W,125,circle,1,0,,,,,,,,,,,,,,,,repeat,number,numRpt,j,0.482,Lo,,,,,,4,,,,,,,,low,20,0,20,0,1,,,,,,,,,
298306,2022-12-01_14h06.21.388,vts_reward_expectancy_bt,2022.2.4,MacIntel,58.96226415,Firefox,1440,900,,,,,1,1089,,,,,,,,,,,,,,,,,D,146,hexagon,1,0,,,,,,,,,,,,,,,,switch,letter,lettSwt,d,0.415,Lo,,,,,,4,,,,,,,,low,21,0,21,0,1,,,,,,,,,
298306,2022-12-01_14h06.21.388,vts_reward_expectancy_bt,2022.2.4,MacIntel,58.96226415,Firefox,1440,900,,,,,0,1089,,,,,,,,,,,,,,,,,B,132,star,1,0,,,,,,,,,,,,,,,,repeat,letter,lettRpt,d,0.483,Hi,,,,,,4,,,,,,,,low,22,0,22,0,1,,,,,,,,,
298306,2022-12-01_14h06.21.388,vts_reward_expectancy_bt,2022.2.4,MacIntel,58.96226415,Firefox,1440,900,,,,,0,1089,,,,,,,,,,,,,,,,,S,160,triangle,1,0,,,,,,,,,,,,,,,,switch,number,numSwt,k,0.501,Hi,,,,,,4,,,,,,,,low,23,0,23,0,1,,,,,,,,,
298306,2022-12-01_14h06.21.388,vts_reward_expectancy_bt,2022.2.4,MacIntel,58.96226415,Firefox,1440,900,,,,,0,1089,,,,,,,,,,,,,,,,,S,167,circle,0,0,,,,,,,,,,,,,,,,repeat,number,NA,j,0.602,Hi,,,,,,4,,,,,,,,low,24,0,24,0,1,,,,,,,,,
298306,2022-12-01_14h06.21.388,vts_reward_expectancy_bt,2022.2.4,MacIntel,58.96226415,Firefox,1440,900,,,,,0,1089,,,,,,,,,,,,,,,,,F,174,hexagon,0,1,,,,,,,,,,,,,,,,switch,letter,NA,f,0.534,Hi,,,,,,4,,,,,,,,low,25,0,25,0,1,,,,,,,,,
298306,2022-12-01_14h06.21.388,vts_reward_expectancy_bt,2022.2.4,MacIntel,58.96226415,Firefox,1440,900,,,,,0,1089,,,,,,,,,,,,,,,,,U,160,star,1,1,,,,,,,,,,,,,,,,repeat,letter,lettRpt,f,0.543,Hi,,,,,,4,,,,,,,,low,26,0,26,0,1,,,,,,,,,
298306,2022-12-01_14h06.21.388,vts_reward_expectancy_bt,2022.2.4,MacIntel,58.96226415,Firefox,1440,900,,,,,0,1089,,,,,,,,,,,,,,,,,B,181,triangle,1,0,,,,,,,,,,,,,,,,switch,number,numSwt,k,0.586,Hi,,,,,,4,,,,,,,,low,27,0,27,0,1,,,,,,,,,
298306,2022-12-01_14h06.21.388,vts_reward_expectancy_bt,2022.2.4,MacIntel,58.96226415,Firefox,1440,900,,,,,0,1089,,,,,,,,,,,,,,,,,Y,132,triangle,1,0,,,,,,,,,,,,,,,,repeat,number,numRpt,j,0.431,Hi,,,,,,4,,,,,,,,low,28,0,28,0,1,,,,,,,,,
298306,2022-12-01_14h06.21.388,vts_reward_expectancy_bt,2022.2.4,MacIntel,58.96226415,Firefox,1440,900,,,,,10,1099,,,,,,,,,,,,,,,,,D,125,star,1,0,,,,,,,,,,,,,,,,switch,letter,lettSwt,d,0.434,Hi,,,,,,4,,,,,,,,low,29,0,29,0,1,,,,,,,,,
298306,2022-12-01_14h06.21.388,vts_reward_expectancy_bt,2022.2.4,MacIntel,58.96226415,Firefox,1440,900,,,,,0,1099,,,,,,,,,,,,,,,,,H,139,circle,0,0,,,,,,,,,,,,,,,,switch,number,NA,k,0.467,Hi,,,,,,4,,,,,,,,low,30,0,30,0,1,,,,,,,,,
298306,2022-12-01_14h06.21.388,vts_reward_expectancy_bt,2022.2.4,MacIntel,58.96226415,Firefox,1440,900,,,,,1,1100,,,,,,,,,,,,,,,,,W,146,hexagon,1,1,,,,,,,,,,,,,,,,repeat,number,numRpt,j,0.453,Lo,,,,,,4,,,,,,,,low,31,0,31,0,1,,,,,,,,,
298306,2022-12-01_14h06.21.388,vts_reward_expectancy_bt,2022.2.4,MacIntel,58.96226415,Firefox,1440,900,,,,,0,1100,,,,,,,,,,,,,,,,,W,139,triangle,1,0,,,,,,,,,,,,,,,,switch,letter,lettSwt,f,0.553,Hi,,,,,,5,,,,,,space,0.983,low,0,0,0,0,1,,,,,,,,,
298306,2022-12-01_14h06.21.388,vts_reward_expectancy_bt,2022.2.4,MacIntel,58.96226415,Firefox,1440,900,,,,,10,1110,,,,,,,,,,,,,,,,,B,160,circle,1,0,,,,,,,,,,,,,,,,switch,number,numSwt,k,0.415,Lo,,,,,,5,,,,,,,,low,1,0,1,0,1,,,,,,,,,
298306,2022-12-01_14h06.21.388,vts_reward_expectancy_bt,2022.2.4,MacIntel,58.96226415,Firefox,1440,900,,,,,0,1110,,,,,,,,,,,,,,,,,F,125,star,1,0,,,,,,,,,,,,,,,,switch,letter,lettSwt,d,0.449,Hi,,,,,,5,,,,,,,,low,2,0,2,0,1,,,,,,,,,
298306,2022-12-01_14h06.21.388,vts_reward_expectancy_bt,2022.2.4,MacIntel,58.96226415,Firefox,1440,900,,,,,0,1110,,,,,,,,,,,,,,,,,U,132,hexagon,0,0,,,,,,,,,,,,,,,,repeat,letter,NA,d,0.35,Hi,,,,,,5,,,,,,,,low,3,0,3,0,1,,,,,,,,,
298306,2022-12-01_14h06.21.388,vts_reward_expectancy_bt,2022.2.4,MacIntel,58.96226415,Firefox,1440,900,,,,,1,1111,,,,,,,,,,,,,,,,,Y,174,triangle,1,1,,,,,,,,,,,,,,,,switch,number,numSwt,k,0.416,Hi,,,,,,5,,,,,,,,low,4,0,4,0,1,,,,,,,,,
298306,2022-12-01_14h06.21.388,vts_reward_expectancy_bt,2022.2.4,MacIntel,58.96226415,Firefox,1440,900,,,,,0,1111,,,,,,,,,,,,,,,,,S,146,circle,0,0,,,,,,,,,,,,,,,,repeat,number,NA,k,0.414,Hi,,,,,,5,,,,,,,,low,5,0,5,0,1,,,,,,,,,
298306,2022-12-01_14h06.21.388,vts_reward_expectancy_bt,2022.2.4,MacIntel,58.96226415,Firefox,1440,900,,,,,10,1121,,,,,,,,,,,,,,,,,H,181,star,1,1,,,,,,,,,,,,,,,,switch,letter,lettSwt,d,0.432,Hi,,,,,,5,,,,,,,,low,6,0,6,0,1,,,,,,,,,
298306,2022-12-01_14h06.21.388,vts_reward_expectancy_bt,2022.2.4,MacIntel,58.96226415,Firefox,1440,900,,,,,0,1121,,,,,,,,,,,,,,,,,D,167,hexagon,0,0,,,,,,,,,,,,,,,,repeat,letter,NA,f,0.368,Hi,,,,,,5,,,,,,,,low,7,0,7,0,1,,,,,,,,,
298306,2022-12-01_14h06.21.388,vts_reward_expectancy_bt,2022.2.4,MacIntel,58.96226415,Firefox,1440,900,,,,,1,1122,,,,,,,,,,,,,,,,,W,139,triangle,1,1,,,,,,,,,,,,,,,,switch,number,numSwt,j,0.465,Hi,,,,,,5,,,,,,,,low,8,0,8,0,1,,,,,,,,,
298306,2022-12-01_14h06.21.388,vts_reward_expectancy_bt,2022.2.4,MacIntel,58.96226415,Firefox,1440,900,,,,,0,1122,,,,,,,,,,,,,,,,,B,160,star,0,0,,,,,,,,,,,,,,,,repeat,number,NA,j,0.386,Hi,,,,,,5,,,,,,,,low,9,0,9,0,1,,,,,,,,,
298306,2022-12-01_14h06.21.388,vts_reward_expectancy_bt,2022.2.4,MacIntel,58.96226415,Firefox,1440,900,,,,,1,1123,,,,,,,,,,,,,,,,,F,125,circle,1,1,,,,,,,,,,,,,,,,repeat,number,numRpt,j,0.452,Lo,,,,,,5,,,,,,,,low,10,0,10,0,1,,,,,,,,,
298306,2022-12-01_14h06.21.388,vts_reward_expectancy_bt,2022.2.4,MacIntel,58.96226415,Firefox,1440,900,,,,,0,1123,,,,,,,,,,,,,,,,,U,132,hexagon,0,0,,,,,,,,,,,,,,,,switch,letter,NA,d,0.435,Lo,,,,,,5,,,,,,,,low,11,0,11,0,1,,,,,,,,,
298306,2022-12-01_14h06.21.388,vts_reward_expectancy_bt,2022.2.4,MacIntel,58.96226415,Firefox,1440,900,,,,,10,1133,,,,,,,,,,,,,,,,,Y,174,triangle,1,1,,,,,,,,,,,,,,,,repeat,letter,lettRpt,f,0.466,Hi,,,,,,5,,,,,,,,low,12,0,12,0,1,,,,,,,,,
298306,2022-12-01_14h06.21.388,vts_reward_expectancy_bt,2022.2.4,MacIntel,58.96226415,Firefox,1440,900,,,,,1,1134,,,,,,,,,,,,,,,,,S,146,hexagon,1,0,,,,,,,,,,,,,,,,switch,number,numSwt,j,0.45,Lo,,,,,,5,,,,,,,,low,13,0,13,0,1,,,,,,,,,
298306,2022-12-01_14h06.21.388,vts_reward_expectancy_bt,2022.2.4,MacIntel,58.96226415,Firefox,1440,900,,,,,0,1134,,,,,,,,,,,,,,,,,H,181,star,1,0,,,,,,,,,,,,,,,,switch,letter,lettSwt,d,0.48,Hi,,,,,,5,,,,,,,,low,14,0,14,0,1,,,,,,,,,
298306,2022-12-01_14h06.21.388,vts_reward_expectancy_bt,2022.2.4,MacIntel,58.96226415,Firefox,1440,900,,,,,1,1135,,,,,,,,,,,,,,,,,D,167,circle,1,0,,,,,,,,,,,,,,,,switch,number,numSwt,k,0.401,Lo,,,,,,5,,,,,,,,low,15,0,15,0,1,,,,,,,,,
298306,2022-12-01_14h06.21.388,vts_reward_expectancy_bt,2022.2.4,MacIntel,58.96226415,Firefox,1440,900,,,,,1,1136,,,,,,,,,,,,,,,,,S,174,circle,1,0,,,,,,,,,,,,,,,,repeat,number,numRpt,k,0.414,Lo,,,,,,5,,,,,,,,low,16,0,16,0,1,,,,,,,,,
298306,2022-12-01_14h06.21.388,vts_reward_expectancy_bt,2022.2.4,MacIntel,58.96226415,Firefox,1440,900,,,,,1,1137,,,,,,,,,,,,,,,,,F,132,hexagon,1,0,,,,,,,,,,,,,,,,switch,letter,lettSwt,d,0.418,Lo,,,,,,5,,,,,,,,low,17,0,17,0,1,,,,,,,,,
298306,2022-12-01_14h06.21.388,vts_reward_expectancy_bt,2022.2.4,MacIntel,58.96226415,Firefox,1440,900,,,,,10,1147,,,,,,,,,,,,,,,,,D,160,star,1,0,,,,,,,,,,,,,,,,switch,number,numSwt,k,0.45,Hi,,,,,,5,,,,,,,,low,18,0,18,0,1,,,,,,,,,
298306,2022-12-01_14h06.21.388,vts_reward_expectancy_bt,2022.2.4,MacIntel,58.96226415,Firefox,1440,900,,,,,0,1147,,,,,,,,,,,,,,,,,Y,146,triangle,1,0,,,,,,,,,,,,,,,,switch,letter,lettSwt,f,0.451,Hi,,,,,,5,,,,,,,,low,19,0,19,0,1,,,,,,,,,
298306,2022-12-01_14h06.21.388,vts_reward_expectancy_bt,2022.2.4,MacIntel,58.96226415,Firefox,1440,900,,,,,10,1157,,,,,,,,,,,,,,,,,H,125,triangle,1,0,,,,,,,,,,,,,,,,switch,number,numSwt,j,0.432,Hi,,,,,,5,,,,,,,,low,20,0,20,0,1,,,,,,,,,
298306,2022-12-01_14h06.21.388,vts_reward_expectancy_bt,2022.2.4,MacIntel,58.96226415,Firefox,1440,900,,,,,1,1158,,,,,,,,,,,,,,,,,U,167,circle,1,0,,,,,,,,,,,,,,,,repeat,number,numRpt,k,0.433,Lo,,,,,,5,,,,,,,,low,21,0,21,0,1,,,,,,,,,
298306,2022-12-01_14h06.21.388,vts_reward_expectancy_bt,2022.2.4,MacIntel,58.96226415,Firefox,1440,900,,,,,1,1159,,,,,,,,,,,,,,,,,B,181,hexagon,1,0,,,,,,,,,,,,,,,,switch,letter,lettSwt,d,0.534,Lo,,,,,,5,,,,,,,,low,22,0,22,0,1,,,,,,,,,
298306,2022-12-01_14h06.21.388,vts_reward_expectancy_bt,2022.2.4,MacIntel,58.96226415,Firefox,1440,900,,,,,0,1159,,,,,,,,,,,,,,,,,W,139,star,1,0,,,,,,,,,,,,,,,,repeat,letter,lettRpt,f,0.497,Hi,,,,,,5,,,,,,,,low,23,0,23,0,1,,,,,,,,,
298306,2022-12-01_14h06.21.388,vts_reward_expectancy_bt,2022.2.4,MacIntel,58.96226415,Firefox,1440,900,,,,,1,1160,,,,,,,,,,,,,,,,,H,160,hexagon,1,0,,,,,,,,,,,,,,,,switch,number,numSwt,k,0.381,Lo,,,,,,5,,,,,,,,low,24,0,24,0,1,,,,,,,,,
298306,2022-12-01_14h06.21.388,vts_reward_expectancy_bt,2022.2.4,MacIntel,58.96226415,Firefox,1440,900,,,,,10,1170,,,,,,,,,,,,,,,,,S,139,star,1,0,,,,,,,,,,,,,,,,repeat,number,numRpt,j,0.351,Hi,,,,,,5,,,,,,,,low,25,0,25,0,1,,,,,,,,,
298306,2022-12-01_14h06.21.388,vts_reward_expectancy_bt,2022.2.4,MacIntel,58.96226415,Firefox,1440,900,,,,,1,1171,,,,,,,,,,,,,,,,,W,146,circle,1,0,,,,,,,,,,,,,,,,repeat,number,numRpt,j,0.502,Lo,,,,,,5,,,,,,,,low,26,0,26,0,1,,,,,,,,,
298306,2022-12-01_14h06.21.388,vts_reward_expectancy_bt,2022.2.4,MacIntel,58.96226415,Firefox,1440,900,,,,,0,1171,,,,,,,,,,,,,,,,,B,174,triangle,1,0,,,,,,,,,,,,,,,,switch,letter,lettSwt,d,0.514,Hi,,,,,,5,,,,,,,,low,27,0,27,0,1,,,,,,,,,
298306,2022-12-01_14h06.21.388,vts_reward_expectancy_bt,2022.2.4,MacIntel,58.96226415,Firefox,1440,900,,,,,1,1172,,,,,,,,,,,,,,,,,Y,181,triangle,1,0,,,,,,,,,,,,,,,,switch,number,numSwt,k,0.399,Hi,,,,,,5,,,,,,,,low,28,0,28,0,1,,,,,,,,,
298306,2022-12-01_14h06.21.388,vts_reward_expectancy_bt,2022.2.4,MacIntel,58.96226415,Firefox,1440,900,,,,,1,1173,,,,,,,,,,,,,,,,,F,125,circle,1,0,,,,,,,,,,,,,,,,repeat,number,numRpt,j,0.519,Lo,,,,,,5,,,,,,,,low,29,0,29,0,1,,,,,,,,,
298306,2022-12-01_14h06.21.388,vts_reward_expectancy_bt,2022.2.4,MacIntel,58.96226415,Firefox,1440,900,,,,,1,1174,,,,,,,,,,,,,,,,,D,132,star,1,0,,,,,,,,,,,,,,,,switch,letter,lettSwt,d,0.415,Hi,,,,,,5,,,,,,,,low,30,0,30,0,1,,,,,,,,,
298306,2022-12-01_14h06.21.388,vts_reward_expectancy_bt,2022.2.4,MacIntel,58.96226415,Firefox,1440,900,,,,,10,1184,,,,,,,,,,,,,,,,,U,167,hexagon,1,0,,,,,,,,,,,,,,,,repeat,letter,lettRpt,f,0.538,Lo,,,,,,5,,,,,,,,low,31,0,31,0,1,,,,,,,,,
298306,2022-12-01_14h06.21.388,vts_reward_expectancy_bt,2022.2.4,MacIntel,58.96226415,Firefox,1440,900,,,,,1,1185,,,,,,,,,,,,,,,,,B,167,hexagon,1,0,,,,,,,,,,,,,,,,repeat,letter,lettRpt,d,0.503,Lo,,,,,,6,,,,,,space,0.853,low,0,0,0,0,1,,,,,,,,,
298306,2022-12-01_14h06.21.388,vts_reward_expectancy_bt,2022.2.4,MacIntel,58.96226415,Firefox,1440,900,,,,,10,1195,,,,,,,,,,,,,,,,,U,139,circle,1,0,,,,,,,,,,,,,,,,switch,number,numSwt,j,0.373,Lo,,,,,,6,,,,,,,,low,1,0,1,0,1,,,,,,,,,
298306,2022-12-01_14h06.21.388,vts_reward_expectancy_bt,2022.2.4,MacIntel,58.96226415,Firefox,1440,900,,,,,0,1195,,,,,,,,,,,,,,,,,F,132,star,1,0,,,,,,,,,,,,,,,,repeat,number,numRpt,j,0.435,Hi,,,,,,6,,,,,,,,low,2,0,2,0,1,,,,,,,,,
298306,2022-12-01_14h06.21.388,vts_reward_expectancy_bt,2022.2.4,MacIntel,58.96226415,Firefox,1440,900,,,,,0,1195,,,,,,,,,,,,,,,,,W,146,triangle,1,0,,,,,,,,,,,,,,,,switch,letter,lettSwt,f,0.45,Hi,,,,,,6,,,,,,,,low,3,0,3,0,1,,,,,,,,,
298306,2022-12-01_14h06.21.388,vts_reward_expectancy_bt,2022.2.4,MacIntel,58.96226415,Firefox,1440,900,,,,,1,1196,,,,,,,,,,,,,,,,,S,160,hexagon,1,0,,,,,,,,,,,,,,,,switch,number,numSwt,k,0.599,Lo,,,,,,6,,,,,,,,low,4,0,4,0,1,,,,,,,,,
298306,2022-12-01_14h06.21.388,vts_reward_expectancy_bt,2022.2.4,MacIntel,58.96226415,Firefox,1440,900,,,,,1,1197,,,,,,,,,,,,,,,,,D,181,circle,1,0,,,,,,,,,,,,,,,,repeat,number,numRpt,k,0.449,Lo,,,,,,6,,,,,,,,low,5,0,5,0,1,,,,,,,,,
298306,2022-12-01_14h06.21.388,vts_reward_expectancy_bt,2022.2.4,MacIntel,58.96226415,Firefox,1440,900,,,,,0,1197,,,,,,,,,,,,,,,,,Y,125,star,1,0,,,,,,,,,,,,,,,,switch,letter,lettSwt,f,0.5,Hi,,,,,,6,,,,,,,,low,6,0,6,0,1,,,,,,,,,
298306,2022-12-01_14h06.21.388,vts_reward_expectancy_bt,2022.2.4,MacIntel,58.96226415,Firefox,1440,900,,,,,0,1197,,,,,,,,,,,,,,,,,H,174,triangle,1,0,,,,,,,,,,,,,,,,switch,number,numSwt,k,0.45,Hi,,,,,,6,,,,,,,,low,7,0,7,0,1,,,,,,,,,
298306,2022-12-01_14h06.21.388,vts_reward_expectancy_bt,2022.2.4,MacIntel,58.96226415,Firefox,1440,900,,,,,10,1207,,,,,,,,,,,,,,,,,B,167,circle,1,0,,,,,,,,,,,,,,,,repeat,number,numRpt,k,0.418,Lo,,,,,,6,,,,,,,,low,8,0,8,0,1,,,,,,,,,
298306,2022-12-01_14h06.21.388,vts_reward_expectancy_bt,2022.2.4,MacIntel,58.96226415,Firefox,1440,900,,,,,0,1207,,,,,,,,,,,,,,,,,U,139,triangle,1,0,,,,,,,,,,,,,,,,switch,letter,lettSwt,f,0.449,Hi,,,,,,6,,,,,,,,low,9,0,9,0,1,,,,,,,,,
298306,2022-12-01_14h06.21.388,vts_reward_expectancy_bt,2022.2.4,MacIntel,58.96226415,Firefox,1440,900,,,,,10,1217,,,,,,,,,,,,,,,,,F,132,hexagon,1,0,,,,,,,,,,,,,,,,repeat,letter,lettRpt,d,0.466,Lo,,,,,,6,,,,,,,,low,10,0,10,0,1,,,,,,,,,
