participant,date,expName,psychopyVersion,OS,frameRate,browser,xResolution,yResolution,key_resp.keys,key_resp.rt,training_resp.keys,training_resp.rt,points_trial,points_cumul,trainBlock,training.thisRepN,training.thisTrialN,training.thisN,training.thisIndex,training.ran,LTriangleOpac,LCircleOpac,LHexagonOpac,LStarOpac,RTriangleOpac,RCircleOpac,RHexagonOpac,RStarOpac,LShape_ID,RShape_ID,curr_topStim,curr_bottStim,curr_shape,acc,E1,target_resp_prac1.keys,target_resp_prac1.rt,pracBlock,task1_prac_trials.thisRepN,task1_prac_trials.thisTrialN,task1_prac_trials.thisN,task1_prac_trials.thisIndex,task1_prac_trials.ran,target_resp_prac2.keys,target_resp_prac2.rt,task2_praac_trials.thisRepN,task2_praac_trials.thisTrialN,task2_praac_trials.thisN,task2_praac_trials.thisIndex,task2_praac_trials.ran,alt,task,condition,target_resp.keys,target_resp.rt,rewCond,vts_practice_trials.thisRepN,vts_practice_trials.thisTrialN,vts_practice_trials.thisN,vts_practice_trials.thisIndex,vts_practice_trials.ran,blockNum,trials_norew.thisRepN,trials_norew.thisTrialN,trials_norew.thisN,trials_norew.thisIndex,trials_norew.ran,key_resp_2.keys,key_resp_2.rt,rewExpectancy,trials_rew.thisRepN,trials_rew.thisTrialN,trials_rew.thisN,trials_rew.thisIndex,trials_rew.ran,Q1,Q2,Q2_text,Q3,Q4,Q5_text,Q5,xRes,yRes
298342,2022-12-05_20h02.17.941,vts_reward_expectancy_bt,2022.2.4,MacIntel,60.0024001,Chrome,1440,900,,,,,,,,,,,,,,,,,,,,,,,,,,,,,,,,,,,,,,,,,,,,,,,,,,,,,,,,,,,,,,,,,,,,,,,,,,,,
298342,2022-12-05_20h02.17.941,vts_reward_expectancy_bt,2022.2.4,MacIntel,60.0024001,Chrome,1440,900,space,19.2613,,,,,,,,,,,,,,,,,,,,,,,,,,,,,,,,,,,,,,,,,,,,,,,,,,,,,,,,,,,,,,,,,,,,,,,,,,
298342,2022-12-05_20h02.17.941,vts_reward_expectancy_bt,2022.2.4,MacIntel,60.0024001,Chrome,1440,900,,,,,,,,,,,,,,,,,,,,,,,,,,,,,,,,,,,,,,,,,,,,,,,,,,,,,,,,,,,,,,,,,,,,,,,,,,,,
298342,2022-12-05_20h02.17.941,vts_reward_expectancy_bt,2022.2.4,MacIntel,60.0024001,Chrome,1440,900,,,a,2.265,10,10,0,0,0,0,0,1,1,0,0,0,0,1,0,0,triangle,circle,,,,,,,,,,,,,,,,,,,,,,,,,,,,,,,,,,,,,,,,,,,,,,,,,,,,,,
298342,2022-12-05_20h02.17.941,vts_reward_expectancy_bt,2022.2.4,MacIntel,60.0024001,Chrome,1440,900,,,l,1.5008,1,11,0,0,1,1,8,1,0,0,1,0,0,0,0,1,hexagon,star,,,,,,,,,,,,,,,,,,,,,,,,,,,,,,,,,,,,,,,,,,,,,,,,,,,,,,
298342,2022-12-05_20h02.17.941,vts_reward_expectancy_bt,2022.2.4,MacIntel,60.0024001,Chrome,1440,900,,,l,2.0829,10,21,0,0,2,2,9,1,0,0,0,1,1,0,0,0,star,triangle,,,,,,,,,,,,,,,,,,,,,,,,,,,,,,,,,,,,,,,,,,,,,,,,,,,,,,
298342,2022-12-05_20h02.17.941,vts_reward_expectancy_bt,2022.2.4,MacIntel,60.0024001,Chrome,1440,900,,,l,1.5856,10,31,0,0,3,3,10,1,0,0,0,1,0,1,0,0,star ,circle,,,,,,,,,,,,,,,,,,,,,,,,,,,,,,,,,,,,,,,,,,,,,,,,,,,,,,
298342,2022-12-05_20h02.17.941,vts_reward_expectancy_bt,2022.2.4,MacIntel,60.0024001,Chrome,1440,900,,,l,1.0263,10,41,0,0,4,4,7,1,0,0,1,0,0,1,0,0,hexagon,circle,,,,,,,,,,,,,,,,,,,,,,,,,,,,,,,,,,,,,,,,,,,,,,,,,,,,,,
298342,2022-12-05_20h02.17.941,vts_reward_expectancy_bt,2022.2.4,MacIntel,60.0024001,Chrome,1440,900,,,l,1.1222,10,51,0,0,5,5,6,1,0,0,1,0,1,0,0,0,hexagon,triangle,,,,,,,,,,,,,,,,,,,,,,,,,,,,,,,,,,,,,,,,,,,,,,,,,,,,,,
298342,2022-12-05_20h02.17.941,vts_reward_expectancy_bt,2022.2.4,MacIntel,60.0024001,Chrome,1440,900,,,a,0.7492,1,52,0,0,6,6,2,1,1,0,0,0,0,0,0,1,triangle,star,,,,,,,,,,,,,,,,,,,,,,,,,,,,,,,,,,,,,,,,,,,,,,,,,,,,,,
298342,2022-12-05_20h02.17.941,vts_reward_expectancy_bt,2022.2.4,MacIntel,60.0024001,Chrome,1440,900,,,l,1.1198,1,53,0,0,7,7,3,1,0,1,0,0,1,0,0,0,circle,triangle,,,,,,,,,,,,,,,,,,,,,,,,,,,,,,,,,,,,,,,,,,,,,,,,,,,,,,
298342,2022-12-05_20h02.17.941,vts_reward_expectancy_bt,2022.2.4,MacIntel,60.0024001,Chrome,1440,900,,,a,0.5358,10,63,0,0,8,8,5,1,0,1,0,0,0,0,0,1,circle,star,,,,,,,,,,,,,,,,,,,,,,,,,,,,,,,,,,,,,,,,,,,,,,,,,,,,,,
298342,2022-12-05_20h02.17.941,vts_reward_expectancy_bt,2022.2.4,MacIntel,60.0024001,Chrome,1440,900,,,a,1.0774,10,73,0,0,9,9,1,1,1,0,0,0,0,0,1,0,triangle,hexagon,,,,,,,,,,,,,,,,,,,,,,,,,,,,,,,,,,,,,,,,,,,,,,,,,,,,,,
298342,2022-12-05_20h02.17.941,vts_reward_expectancy_bt,2022.2.4,MacIntel,60.0024001,Chrome,1440,900,,,l,0.7512,10,83,0,0,10,10,11,1,0,0,0,1,0,0,1,0,star,hexagon,,,,,,,,,,,,,,,,,,,,,,,,,,,,,,,,,,,,,,,,,,,,,,,,,,,,,,
298342,2022-12-05_20h02.17.941,vts_reward_expectancy_bt,2022.2.4,MacIntel,60.0024001,Chrome,1440,900,,,a,0.7204,1,84,0,0,11,11,4,1,0,1,0,0,0,0,1,0,circle,hexagon,,,,,,,,,,,,,,,,,,,,,,,,,,,,,,,,,,,,,,,,,,,,,,,,,,,,,,
298342,2022-12-05_20h02.17.941,vts_reward_expectancy_bt,2022.2.4,MacIntel,60.0024001,Chrome,1440,900,,,l,0.9497,10,94,0,1,0,12,10,1,0,0,0,1,0,1,0,0,star ,circle,,,,,,,,,,,,,,,,,,,,,,,,,,,,,,,,,,,,,,,,,,,,,,,,,,,,,,
298342,2022-12-05_20h02.17.941,vts_reward_expectancy_bt,2022.2.4,MacIntel,60.0024001,Chrome,1440,900,,,a,0.6003,10,104,0,1,1,13,3,1,0,1,0,0,1,0,0,0,circle,triangle,,,,,,,,,,,,,,,,,,,,,,,,,,,,,,,,,,,,,,,,,,,,,,,,,,,,,,
298342,2022-12-05_20h02.17.941,vts_reward_expectancy_bt,2022.2.4,MacIntel,60.0024001,Chrome,1440,900,,,l,1.0236,1,105,0,1,2,14,6,1,0,0,1,0,1,0,0,0,hexagon,triangle,,,,,,,,,,,,,,,,,,,,,,,,,,,,,,,,,,,,,,,,,,,,,,,,,,,,,,
298342,2022-12-05_20h02.17.941,vts_reward_expectancy_bt,2022.2.4,MacIntel,60.0024001,Chrome,1440,900,,,a,0.7228,10,115,0,1,3,15,5,1,0,1,0,0,0,0,0,1,circle,star,,,,,,,,,,,,,,,,,,,,,,,,,,,,,,,,,,,,,,,,,,,,,,,,,,,,,,
298342,2022-12-05_20h02.17.941,vts_reward_expectancy_bt,2022.2.4,MacIntel,60.0024001,Chrome,1440,900,,,l,0.7571,10,125,0,1,4,16,4,1,0,1,0,0,0,0,1,0,circle,hexagon,,,,,,,,,,,,,,,,,,,,,,,,,,,,,,,,,,,,,,,,,,,,,,,,,,,,,,
298342,2022-12-05_20h02.17.941,vts_reward_expectancy_bt,2022.2.4,MacIntel,60.0024001,Chrome,1440,900,,,a,0.892,10,135,0,1,5,17,2,1,1,0,0,0,0,0,0,1,triangle,star,,,,,,,,,,,,,,,,,,,,,,,,,,,,,,,,,,,,,,,,,,,,,,,,,,,,,,
298342,2022-12-05_20h02.17.941,vts_reward_expectancy_bt,2022.2.4,MacIntel,60.0024001,Chrome,1440,900,,,a,0.7865,10,145,0,1,6,18,0,1,1,0,0,0,0,1,0,0,triangle,circle,,,,,,,,,,,,,,,,,,,,,,,,,,,,,,,,,,,,,,,,,,,,,,,,,,,,,,
298342,2022-12-05_20h02.17.941,vts_reward_expectancy_bt,2022.2.4,MacIntel,60.0024001,Chrome,1440,900,,,l,0.8138,1,146,0,1,7,19,9,1,0,0,0,1,1,0,0,0,star,triangle,,,,,,,,,,,,,,,,,,,,,,,,,,,,,,,,,,,,,,,,,,,,,,,,,,,,,,
298342,2022-12-05_20h02.17.941,vts_reward_expectancy_bt,2022.2.4,MacIntel,60.0024001,Chrome,1440,900,,,l,0.9325,1,147,0,1,8,20,11,1,0,0,0,1,0,0,1,0,star,hexagon,,,,,,,,,,,,,,,,,,,,,,,,,,,,,,,,,,,,,,,,,,,,,,,,,,,,,,
298342,2022-12-05_20h02.17.941,vts_reward_expectancy_bt,2022.2.4,MacIntel,60.0024001,Chrome,1440,900,,,a,0.9906,10,157,0,1,9,21,1,1,1,0,0,0,0,0,1,0,triangle,hexagon,,,,,,,,,,,,,,,,,,,,,,,,,,,,,,,,,,,,,,,,,,,,,,,,,,,,,,
298342,2022-12-05_20h02.17.941,vts_reward_expectancy_bt,2022.2.4,MacIntel,60.0024001,Chrome,1440,900,,,a,1.7573,1,158,0,1,10,22,8,1,0,0,1,0,0,0,0,1,hexagon,star,,,,,,,,,,,,,,,,,,,,,,,,,,,,,,,,,,,,,,,,,,,,,,,,,,,,,,
298342,2022-12-05_20h02.17.941,vts_reward_expectancy_bt,2022.2.4,MacIntel,60.0024001,Chrome,1440,900,,,l,0.8258,1,159,0,1,11,23,7,1,0,0,1,0,0,1,0,0,hexagon,circle,,,,,,,,,,,,,,,,,,,,,,,,,,,,,,,,,,,,,,,,,,,,,,,,,,,,,,
298342,2022-12-05_20h02.17.941,vts_reward_expectancy_bt,2022.2.4,MacIntel,60.0024001,Chrome,1440,900,,,a,0.8341,10,169,0,2,0,24,2,1,1,0,0,0,0,0,0,1,triangle,star,,,,,,,,,,,,,,,,,,,,,,,,,,,,,,,,,,,,,,,,,,,,,,,,,,,,,,
298342,2022-12-05_20h02.17.941,vts_reward_expectancy_bt,2022.2.4,MacIntel,60.0024001,Chrome,1440,900,,,l,0.7531,10,179,0,2,1,25,0,1,1,0,0,0,0,1,0,0,triangle,circle,,,,,,,,,,,,,,,,,,,,,,,,,,,,,,,,,,,,,,,,,,,,,,,,,,,,,,
298342,2022-12-05_20h02.17.941,vts_reward_expectancy_bt,2022.2.4,MacIntel,60.0024001,Chrome,1440,900,,,a,2.1841,10,189,0,2,2,26,1,1,1,0,0,0,0,0,1,0,triangle,hexagon,,,,,,,,,,,,,,,,,,,,,,,,,,,,,,,,,,,,,,,,,,,,,,,,,,,,,,
298342,2022-12-05_20h02.17.941,vts_reward_expectancy_bt,2022.2.4,MacIntel,60.0024001,Chrome,1440,900,,,l,1.0388,1,190,0,2,3,27,6,1,0,0,1,0,1,0,0,0,hexagon,triangle,,,,,,,,,,,,,,,,,,,,,,,,,,,,,,,,,,,,,,,,,,,,,,,,,,,,,,
298342,2022-12-05_20h02.17.941,vts_reward_expectancy_bt,2022.2.4,MacIntel,60.0024001,Chrome,1440,900,,,a,0.773,10,200,0,2,4,28,3,1,0,1,0,0,1,0,0,0,circle,triangle,,,,,,,,,,,,,,,,,,,,,,,,,,,,,,,,,,,,,,,,,,,,,,,,,,,,,,
298342,2022-12-05_20h02.17.941,vts_reward_expectancy_bt,2022.2.4,MacIntel,60.0024001,Chrome,1440,900,,,l,1.1423,1,201,0,2,5,29,8,1,0,0,1,0,0,0,0,1,hexagon,star,,,,,,,,,,,,,,,,,,,,,,,,,,,,,,,,,,,,,,,,,,,,,,,,,,,,,,
298342,2022-12-05_20h02.17.941,vts_reward_expectancy_bt,2022.2.4,MacIntel,60.0024001,Chrome,1440,900,,,l,0.6882,1,202,0,2,6,30,10,1,0,0,0,1,0,1,0,0,star ,circle,,,,,,,,,,,,,,,,,,,,,,,,,,,,,,,,,,,,,,,,,,,,,,,,,,,,,,
298342,2022-12-05_20h02.17.941,vts_reward_expectancy_bt,2022.2.4,MacIntel,60.0024001,Chrome,1440,900,,,l,1.2344,10,212,0,2,7,31,7,1,0,0,1,0,0,1,0,0,hexagon,circle,,,,,,,,,,,,,,,,,,,,,,,,,,,,,,,,,,,,,,,,,,,,,,,,,,,,,,
298342,2022-12-05_20h02.17.941,vts_reward_expectancy_bt,2022.2.4,MacIntel,60.0024001,Chrome,1440,900,,,l,0.7893,1,213,0,2,8,32,5,1,0,1,0,0,0,0,0,1,circle,star,,,,,,,,,,,,,,,,,,,,,,,,,,,,,,,,,,,,,,,,,,,,,,,,,,,,,,
298342,2022-12-05_20h02.17.941,vts_reward_expectancy_bt,2022.2.4,MacIntel,60.0024001,Chrome,1440,900,,,l,0.6525,10,223,0,2,9,33,11,1,0,0,0,1,0,0,1,0,star,hexagon,,,,,,,,,,,,,,,,,,,,,,,,,,,,,,,,,,,,,,,,,,,,,,,,,,,,,,
298342,2022-12-05_20h02.17.941,vts_reward_expectancy_bt,2022.2.4,MacIntel,60.0024001,Chrome,1440,900,,,a,0.4365,10,233,0,2,10,34,4,1,0,1,0,0,0,0,1,0,circle,hexagon,,,,,,,,,,,,,,,,,,,,,,,,,,,,,,,,,,,,,,,,,,,,,,,,,,,,,,
298342,2022-12-05_20h02.17.941,vts_reward_expectancy_bt,2022.2.4,MacIntel,60.0024001,Chrome,1440,900,,,l,0.6004,1,234,0,2,11,35,9,1,0,0,0,1,1,0,0,0,star,triangle,,,,,,,,,,,,,,,,,,,,,,,,,,,,,,,,,,,,,,,,,,,,,,,,,,,,,,
298342,2022-12-05_20h02.17.941,vts_reward_expectancy_bt,2022.2.4,MacIntel,60.0024001,Chrome,1440,900,,,l,1.5359,10,244,1,0,0,0,7,1,0,0,1,0,0,1,0,0,hexagon,circle,,,,,,,,,,,,,,,,,,,,,,,,,,,,,,,,,,,,,,,,,,,,,,,,,,,,,,
298342,2022-12-05_20h02.17.941,vts_reward_expectancy_bt,2022.2.4,MacIntel,60.0024001,Chrome,1440,900,,,a,0.6,10,254,1,0,1,1,4,1,0,1,0,0,0,0,1,0,circle,hexagon,,,,,,,,,,,,,,,,,,,,,,,,,,,,,,,,,,,,,,,,,,,,,,,,,,,,,,
298342,2022-12-05_20h02.17.941,vts_reward_expectancy_bt,2022.2.4,MacIntel,60.0024001,Chrome,1440,900,,,l,0.6412,1,255,1,0,2,2,6,1,0,0,1,0,1,0,0,0,hexagon,triangle,,,,,,,,,,,,,,,,,,,,,,,,,,,,,,,,,,,,,,,,,,,,,,,,,,,,,,
298342,2022-12-05_20h02.17.941,vts_reward_expectancy_bt,2022.2.4,MacIntel,60.0024001,Chrome,1440,900,,,a,0.6083,10,265,1,0,3,3,8,1,0,0,1,0,0,0,0,1,hexagon,star,,,,,,,,,,,,,,,,,,,,,,,,,,,,,,,,,,,,,,,,,,,,,,,,,,,,,,
298342,2022-12-05_20h02.17.941,vts_reward_expectancy_bt,2022.2.4,MacIntel,60.0024001,Chrome,1440,900,,,l,0.6517,10,275,1,0,4,4,11,1,0,0,0,1,0,0,1,0,star,hexagon,,,,,,,,,,,,,,,,,,,,,,,,,,,,,,,,,,,,,,,,,,,,,,,,,,,,,,
298342,2022-12-05_20h02.17.941,vts_reward_expectancy_bt,2022.2.4,MacIntel,60.0024001,Chrome,1440,900,,,a,1.1562,10,285,1,0,5,5,1,1,1,0,0,0,0,0,1,0,triangle,hexagon,,,,,,,,,,,,,,,,,,,,,,,,,,,,,,,,,,,,,,,,,,,,,,,,,,,,,,
298342,2022-12-05_20h02.17.941,vts_reward_expectancy_bt,2022.2.4,MacIntel,60.0024001,Chrome,1440,900,,,l,0.8982,10,295,1,0,6,6,10,1,0,0,0,1,0,1,0,0,star ,circle,,,,,,,,,,,,,,,,,,,,,,,,,,,,,,,,,,,,,,,,,,,,,,,,,,,,,,
298342,2022-12-05_20h02.17.941,vts_reward_expectancy_bt,2022.2.4,MacIntel,60.0024001,Chrome,1440,900,,,a,0.6214,10,305,1,0,7,7,3,1,0,1,0,0,1,0,0,0,circle,triangle,,,,,,,,,,,,,,,,,,,,,,,,,,,,,,,,,,,,,,,,,,,,,,,,,,,,,,
298342,2022-12-05_20h02.17.941,vts_reward_expectancy_bt,2022.2.4,MacIntel,60.0024001,Chrome,1440,900,,,l,0.8835,1,306,1,0,8,8,0,1,1,0,0,0,0,1,0,0,triangle,circle,,,,,,,,,,,,,,,,,,,,,,,,,,,,,,,,,,,,,,,,,,,,,,,,,,,,,,
298342,2022-12-05_20h02.17.941,vts_reward_expectancy_bt,2022.2.4,MacIntel,60.0024001,Chrome,1440,900,,,l,2.3386,10,316,1,0,9,9,2,1,1,0,0,0,0,0,0,1,triangle,star,,,,,,,,,,,,,,,,,,,,,,,,,,,,,,,,,,,,,,,,,,,,,,,,,,,,,,
298342,2022-12-05_20h02.17.941,vts_reward_expectancy_bt,2022.2.4,MacIntel,60.0024001,Chrome,1440,900,,,a,0.8923,10,326,1,0,10,10,9,1,0,0,0,1,1,0,0,0,star,triangle,,,,,,,,,,,,,,,,,,,,,,,,,,,,,,,,,,,,,,,,,,,,,,,,,,,,,,
298342,2022-12-05_20h02.17.941,vts_reward_expectancy_bt,2022.2.4,MacIntel,60.0024001,Chrome,1440,900,,,a,0.6702,1,327,1,0,11,11,5,1,0,1,0,0,0,0,0,1,circle,star,,,,,,,,,,,,,,,,,,,,,,,,,,,,,,,,,,,,,,,,,,,,,,,,,,,,,,
298342,2022-12-05_20h02.17.941,vts_reward_expectancy_bt,2022.2.4,MacIntel,60.0024001,Chrome,1440,900,,,l,0.752,10,337,1,1,0,12,9,1,0,0,0,1,1,0,0,0,star,triangle,,,,,,,,,,,,,,,,,,,,,,,,,,,,,,,,,,,,,,,,,,,,,,,,,,,,,,
298342,2022-12-05_20h02.17.941,vts_reward_expectancy_bt,2022.2.4,MacIntel,60.0024001,Chrome,1440,900,,,a,0.7292,10,347,1,1,1,13,8,1,0,0,1,0,0,0,0,1,hexagon,star,,,,,,,,,,,,,,,,,,,,,,,,,,,,,,,,,,,,,,,,,,,,,,,,,,,,,,
298342,2022-12-05_20h02.17.941,vts_reward_expectancy_bt,2022.2.4,MacIntel,60.0024001,Chrome,1440,900,,,l,0.765,10,357,1,1,2,14,7,1,0,0,1,0,0,1,0,0,hexagon,circle,,,,,,,,,,,,,,,,,,,,,,,,,,,,,,,,,,,,,,,,,,,,,,,,,,,,,,
298342,2022-12-05_20h02.17.941,vts_reward_expectancy_bt,2022.2.4,MacIntel,60.0024001,Chrome,1440,900,,,a,0.617,10,367,1,1,3,15,4,1,0,1,0,0,0,0,1,0,circle,hexagon,,,,,,,,,,,,,,,,,,,,,,,,,,,,,,,,,,,,,,,,,,,,,,,,,,,,,,
298342,2022-12-05_20h02.17.941,vts_reward_expectancy_bt,2022.2.4,MacIntel,60.0024001,Chrome,1440,900,,,a,0.4879,10,377,1,1,4,16,5,1,0,1,0,0,0,0,0,1,circle,star,,,,,,,,,,,,,,,,,,,,,,,,,,,,,,,,,,,,,,,,,,,,,,,,,,,,,,
298342,2022-12-05_20h02.17.941,vts_reward_expectancy_bt,2022.2.4,MacIntel,60.0024001,Chrome,1440,900,,,l,0.7072,1,378,1,1,5,17,6,1,0,0,1,0,1,0,0,0,hexagon,triangle,,,,,,,,,,,,,,,,,,,,,,,,,,,,,,,,,,,,,,,,,,,,,,,,,,,,,,
298342,2022-12-05_20h02.17.941,vts_reward_expectancy_bt,2022.2.4,MacIntel,60.0024001,Chrome,1440,900,,,a,0.7821,10,388,1,1,6,18,1,1,1,0,0,0,0,0,1,0,triangle,hexagon,,,,,,,,,,,,,,,,,,,,,,,,,,,,,,,,,,,,,,,,,,,,,,,,,,,,,,
298342,2022-12-05_20h02.17.941,vts_reward_expectancy_bt,2022.2.4,MacIntel,60.0024001,Chrome,1440,900,,,a,1.6221,1,389,1,1,7,19,11,1,0,0,0,1,0,0,1,0,star,hexagon,,,,,,,,,,,,,,,,,,,,,,,,,,,,,,,,,,,,,,,,,,,,,,,,,,,,,,
298342,2022-12-05_20h02.17.941,vts_reward_expectancy_bt,2022.2.4,MacIntel,60.0024001,Chrome,1440,900,,,a,0.99,1,390,1,1,8,20,3,1,0,1,0,0,1,0,0,0,circle,triangle,,,,,,,,,,,,,,,,,,,,,,,,,,,,,,,,,,,,,,,,,,,,,,,,,,,,,,
298342,2022-12-05_20h02.17.941,vts_reward_expectancy_bt,2022.2.4,MacIntel,60.0024001,Chrome,1440,900,,,l,0.7029,1,391,1,1,9,21,10,1,0,0,0,1,0,1,0,0,star ,circle,,,,,,,,,,,,,,,,,,,,,,,,,,,,,,,,,,,,,,,,,,,,,,,,,,,,,,
298342,2022-12-05_20h02.17.941,vts_reward_expectancy_bt,2022.2.4,MacIntel,60.0024001,Chrome,1440,900,,,l,0.9524,1,392,1,1,10,22,0,1,1,0,0,0,0,1,0,0,triangle,circle,,,,,,,,,,,,,,,,,,,,,,,,,,,,,,,,,,,,,,,,,,,,,,,,,,,,,,
298342,2022-12-05_20h02.17.941,vts_reward_expectancy_bt,2022.2.4,MacIntel,60.0024001,Chrome,1440,900,,,a,0.574,1,393,1,1,11,23,2,1,1,0,0,0,0,0,0,1,triangle,star,,,,,,,,,,,,,,,,,,,,,,,,,,,,,,,,,,,,,,,,,,,,,,,,,,,,,,
298342,2022-12-05_20h02.17.941,vts_reward_expectancy_bt,2022.2.4,MacIntel,60.0024001,Chrome,1440,900,,,a,0.6915,1,394,1,2,0,24,5,1,0,1,0,0,0,0,0,1,circle,star,,,,,,,,,,,,,,,,,,,,,,,,,,,,,,,,,,,,,,,,,,,,,,,,,,,,,,
298342,2022-12-05_20h02.17.941,vts_reward_expectancy_bt,2022.2.4,MacIntel,60.0024001,Chrome,1440,900,,,l,1.4146,1,395,1,2,1,25,1,1,1,0,0,0,0,0,1,0,triangle,hexagon,,,,,,,,,,,,,,,,,,,,,,,,,,,,,,,,,,,,,,,,,,,,,,,,,,,,,,
298342,2022-12-05_20h02.17.941,vts_reward_expectancy_bt,2022.2.4,MacIntel,60.0024001,Chrome,1440,900,,,a,0.583,10,405,1,2,2,26,2,1,1,0,0,0,0,0,0,1,triangle,star,,,,,,,,,,,,,,,,,,,,,,,,,,,,,,,,,,,,,,,,,,,,,,,,,,,,,,
298342,2022-12-05_20h02.17.941,vts_reward_expectancy_bt,2022.2.4,MacIntel,60.0024001,Chrome,1440,900,,,l,0.8713,10,415,1,2,3,27,11,1,0,0,0,1,0,0,1,0,star,hexagon,,,,,,,,,,,,,,,,,,,,,,,,,,,,,,,,,,,,,,,,,,,,,,,,,,,,,,
298342,2022-12-05_20h02.17.941,vts_reward_expectancy_bt,2022.2.4,MacIntel,60.0024001,Chrome,1440,900,,,l,1.0487,10,425,1,2,4,28,7,1,0,0,1,0,0,1,0,0,hexagon,circle,,,,,,,,,,,,,,,,,,,,,,,,,,,,,,,,,,,,,,,,,,,,,,,,,,,,,,
298342,2022-12-05_20h02.17.941,vts_reward_expectancy_bt,2022.2.4,MacIntel,60.0024001,Chrome,1440,900,,,l,0.8096,10,435,1,2,5,29,9,1,0,0,0,1,1,0,0,0,star,triangle,,,,,,,,,,,,,,,,,,,,,,,,,,,,,,,,,,,,,,,,,,,,,,,,,,,,,,
298342,2022-12-05_20h02.17.941,vts_reward_expectancy_bt,2022.2.4,MacIntel,60.0024001,Chrome,1440,900,,,l,0.8518,1,436,1,2,6,30,0,1,1,0,0,0,0,1,0,0,triangle,circle,,,,,,,,,,,,,,,,,,,,,,,,,,,,,,,,,,,,,,,,,,,,,,,,,,,,,,
298342,2022-12-05_20h02.17.941,vts_reward_expectancy_bt,2022.2.4,MacIntel,60.0024001,Chrome,1440,900,,,l,2.1409,10,446,1,2,7,31,10,1,0,0,0,1,0,1,0,0,star ,circle,,,,,,,,,,,,,,,,,,,,,,,,,,,,,,,,,,,,,,,,,,,,,,,,,,,,,,
298342,2022-12-05_20h02.17.941,vts_reward_expectancy_bt,2022.2.4,MacIntel,60.0024001,Chrome,1440,900,,,l,2.143,1,447,1,2,8,32,4,1,0,1,0,0,0,0,1,0,circle,hexagon,,,,,,,,,,,,,,,,,,,,,,,,,,,,,,,,,,,,,,,,,,,,,,,,,,,,,,
298342,2022-12-05_20h02.17.941,vts_reward_expectancy_bt,2022.2.4,MacIntel,60.0024001,Chrome,1440,900,,,l,2.3768,10,457,1,2,9,33,6,1,0,0,1,0,1,0,0,0,hexagon,triangle,,,,,,,,,,,,,,,,,,,,,,,,,,,,,,,,,,,,,,,,,,,,,,,,,,,,,,
298342,2022-12-05_20h02.17.941,vts_reward_expectancy_bt,2022.2.4,MacIntel,60.0024001,Chrome,1440,900,,,a,0.6893,1,458,1,2,10,34,8,1,0,0,1,0,0,0,0,1,hexagon,star,,,,,,,,,,,,,,,,,,,,,,,,,,,,,,,,,,,,,,,,,,,,,,,,,,,,,,
298342,2022-12-05_20h02.17.941,vts_reward_expectancy_bt,2022.2.4,MacIntel,60.0024001,Chrome,1440,900,,,a,0.5173,10,468,1,2,11,35,3,1,0,1,0,0,1,0,0,0,circle,triangle,,,,,,,,,,,,,,,,,,,,,,,,,,,,,,,,,,,,,,,,,,,,,,,,,,,,,,
298342,2022-12-05_20h02.17.941,vts_reward_expectancy_bt,2022.2.4,MacIntel,60.0024001,Chrome,1440,900,,,a,0.8887,1,469,2,0,0,0,2,1,1,0,0,0,0,0,0,1,triangle,star,,,,,,,,,,,,,,,,,,,,,,,,,,,,,,,,,,,,,,,,,,,,,,,,,,,,,,
298342,2022-12-05_20h02.17.941,vts_reward_expectancy_bt,2022.2.4,MacIntel,60.0024001,Chrome,1440,900,,,a,0.6334,1,470,2,0,1,1,5,1,0,1,0,0,0,0,0,1,circle,star,,,,,,,,,,,,,,,,,,,,,,,,,,,,,,,,,,,,,,,,,,,,,,,,,,,,,,
298342,2022-12-05_20h02.17.941,vts_reward_expectancy_bt,2022.2.4,MacIntel,60.0024001,Chrome,1440,900,,,l,0.9901,10,480,2,0,2,2,3,1,0,1,0,0,1,0,0,0,circle,triangle,,,,,,,,,,,,,,,,,,,,,,,,,,,,,,,,,,,,,,,,,,,,,,,,,,,,,,
298342,2022-12-05_20h02.17.941,vts_reward_expectancy_bt,2022.2.4,MacIntel,60.0024001,Chrome,1440,900,,,a,0.4237,1,481,2,0,3,3,0,1,1,0,0,0,0,1,0,0,triangle,circle,,,,,,,,,,,,,,,,,,,,,,,,,,,,,,,,,,,,,,,,,,,,,,,,,,,,,,
298342,2022-12-05_20h02.17.941,vts_reward_expectancy_bt,2022.2.4,MacIntel,60.0024001,Chrome,1440,900,,,a,0.618,1,482,2,0,4,4,11,1,0,0,0,1,0,0,1,0,star,hexagon,,,,,,,,,,,,,,,,,,,,,,,,,,,,,,,,,,,,,,,,,,,,,,,,,,,,,,
298342,2022-12-05_20h02.17.941,vts_reward_expectancy_bt,2022.2.4,MacIntel,60.0024001,Chrome,1440,900,,,a,0.5653,1,483,2,0,5,5,9,1,0,0,0,1,1,0,0,0,star,triangle,,,,,,,,,,,,,,,,,,,,,,,,,,,,,,,,,,,,,,,,,,,,,,,,,,,,,,
298342,2022-12-05_20h02.17.941,vts_reward_expectancy_bt,2022.2.4,MacIntel,60.0024001,Chrome,1440,900,,,l,0.4998,10,493,2,0,6,6,1,1,1,0,0,0,0,0,1,0,triangle,hexagon,,,,,,,,,,,,,,,,,,,,,,,,,,,,,,,,,,,,,,,,,,,,,,,,,,,,,,
298342,2022-12-05_20h02.17.941,vts_reward_expectancy_bt,2022.2.4,MacIntel,60.0024001,Chrome,1440,900,,,l,0.6664,10,503,2,0,7,7,7,1,0,0,1,0,0,1,0,0,hexagon,circle,,,,,,,,,,,,,,,,,,,,,,,,,,,,,,,,,,,,,,,,,,,,,,,,,,,,,,
298342,2022-12-05_20h02.17.941,vts_reward_expectancy_bt,2022.2.4,MacIntel,60.0024001,Chrome,1440,900,,,a,0.5725,10,513,2,0,8,8,6,1,0,0,1,0,1,0,0,0,hexagon,triangle,,,,,,,,,,,,,,,,,,,,,,,,,,,,,,,,,,,,,,,,,,,,,,,,,,,,,,
298342,2022-12-05_20h02.17.941,vts_reward_expectancy_bt,2022.2.4,MacIntel,60.0024001,Chrome,1440,900,,,a,0.6504,10,523,2,0,9,9,4,1,0,1,0,0,0,0,1,0,circle,hexagon,,,,,,,,,,,,,,,,,,,,,,,,,,,,,,,,,,,,,,,,,,,,,,,,,,,,,,
298342,2022-12-05_20h02.17.941,vts_reward_expectancy_bt,2022.2.4,MacIntel,60.0024001,Chrome,1440,900,,,l,0.4493,1,524,2,0,10,10,8,1,0,0,1,0,0,0,0,1,hexagon,star,,,,,,,,,,,,,,,,,,,,,,,,,,,,,,,,,,,,,,,,,,,,,,,,,,,,,,
298342,2022-12-05_20h02.17.941,vts_reward_expectancy_bt,2022.2.4,MacIntel,60.0024001,Chrome,1440,900,,,a,0.4191,1,525,2,0,11,11,10,1,0,0,0,1,0,1,0,0,star ,circle,,,,,,,,,,,,,,,,,,,,,,,,,,,,,,,,,,,,,,,,,,,,,,,,,,,,,,
298342,2022-12-05_20h02.17.941,vts_reward_expectancy_bt,2022.2.4,MacIntel,60.0024001,Chrome,1440,900,,,a,0.7996,1,526,2,1,0,12,7,1,0,0,1,0,0,1,0,0,hexagon,circle,,,,,,,,,,,,,,,,,,,,,,,,,,,,,,,,,,,,,,,,,,,,,,,,,,,,,,
298342,2022-12-05_20h02.17.941,vts_reward_expectancy_bt,2022.2.4,MacIntel,60.0024001,Chrome,1440,900,,,a,0.6754,10,536,2,1,1,13,1,1,1,0,0,0,0,0,1,0,triangle,hexagon,,,,,,,,,,,,,,,,,,,,,,,,,,,,,,,,,,,,,,,,,,,,,,,,,,,,,,
298342,2022-12-05_20h02.17.941,vts_reward_expectancy_bt,2022.2.4,MacIntel,60.0024001,Chrome,1440,900,,,l,0.7497,1,537,2,1,2,14,10,1,0,0,0,1,0,1,0,0,star ,circle,,,,,,,,,,,,,,,,,,,,,,,,,,,,,,,,,,,,,,,,,,,,,,,,,,,,,,
298342,2022-12-05_20h02.17.941,vts_reward_expectancy_bt,2022.2.4,MacIntel,60.0024001,Chrome,1440,900,,,a,0.5965,10,547,2,1,3,15,0,1,1,0,0,0,0,1,0,0,triangle,circle,,,,,,,,,,,,,,,,,,,,,,,,,,,,,,,,,,,,,,,,,,,,,,,,,,,,,,
298342,2022-12-05_20h02.17.941,vts_reward_expectancy_bt,2022.2.4,MacIntel,60.0024001,Chrome,1440,900,,,a,0.925,1,548,2,1,4,16,6,1,0,0,1,0,1,0,0,0,hexagon,triangle,,,,,,,,,,,,,,,,,,,,,,,,,,,,,,,,,,,,,,,,,,,,,,,,,,,,,,
298342,2022-12-05_20h02.17.941,vts_reward_expectancy_bt,2022.2.4,MacIntel,60.0024001,Chrome,1440,900,,,l,0.6217,10,558,2,1,5,17,9,1,0,0,0,1,1,0,0,0,star,triangle,,,,,,,,,,,,,,,,,,,,,,,,,,,,,,,,,,,,,,,,,,,,,,,,,,,,,,
298342,2022-12-05_20h02.17.941,vts_reward_expectancy_bt,2022.2.4,MacIntel,60.0024001,Chrome,1440,900,,,a,0.5334,10,568,2,1,6,18,8,1,0,0,1,0,0,0,0,1,hexagon,star,,,,,,,,,,,,,,,,,,,,,,,,,,,,,,,,,,,,,,,,,,,,,,,,,,,,,,
298342,2022-12-05_20h02.17.941,vts_reward_expectancy_bt,2022.2.4,MacIntel,60.0024001,Chrome,1440,900,,,l,0.4097,1,569,2,1,7,19,11,1,0,0,0,1,0,0,1,0,star,hexagon,,,,,,,,,,,,,,,,,,,,,,,,,,,,,,,,,,,,,,,,,,,,,,,,,,,,,,
298342,2022-12-05_20h02.17.941,vts_reward_expectancy_bt,2022.2.4,MacIntel,60.0024001,Chrome,1440,900,,,a,0.5004,1,570,2,1,8,20,4,1,0,1,0,0,0,0,1,0,circle,hexagon,,,,,,,,,,,,,,,,,,,,,,,,,,,,,,,,,,,,,,,,,,,,,,,,,,,,,,
298342,2022-12-05_20h02.17.941,vts_reward_expectancy_bt,2022.2.4,MacIntel,60.0024001,Chrome,1440,900,,,a,0.4734,10,580,2,1,9,21,5,1,0,1,0,0,0,0,0,1,circle,star,,,,,,,,,,,,,,,,,,,,,,,,,,,,,,,,,,,,,,,,,,,,,,,,,,,,,,
298342,2022-12-05_20h02.17.941,vts_reward_expectancy_bt,2022.2.4,MacIntel,60.0024001,Chrome,1440,900,,,a,0.415,10,590,2,1,10,22,3,1,0,1,0,0,1,0,0,0,circle,triangle,,,,,,,,,,,,,,,,,,,,,,,,,,,,,,,,,,,,,,,,,,,,,,,,,,,,,,
298342,2022-12-05_20h02.17.941,vts_reward_expectancy_bt,2022.2.4,MacIntel,60.0024001,Chrome,1440,900,,,l,0.8506,10,600,2,1,11,23,2,1,1,0,0,0,0,0,0,1,triangle,star,,,,,,,,,,,,,,,,,,,,,,,,,,,,,,,,,,,,,,,,,,,,,,,,,,,,,,
298342,2022-12-05_20h02.17.941,vts_reward_expectancy_bt,2022.2.4,MacIntel,60.0024001,Chrome,1440,900,,,a,0.9061,1,601,2,2,0,24,2,1,1,0,0,0,0,0,0,1,triangle,star,,,,,,,,,,,,,,,,,,,,,,,,,,,,,,,,,,,,,,,,,,,,,,,,,,,,,,
298342,2022-12-05_20h02.17.941,vts_reward_expectancy_bt,2022.2.4,MacIntel,60.0024001,Chrome,1440,900,,,l,1.0491,10,611,2,2,1,25,11,1,0,0,0,1,0,0,1,0,star,hexagon,,,,,,,,,,,,,,,,,,,,,,,,,,,,,,,,,,,,,,,,,,,,,,,,,,,,,,
298342,2022-12-05_20h02.17.941,vts_reward_expectancy_bt,2022.2.4,MacIntel,60.0024001,Chrome,1440,900,,,l,1.0401,1,612,2,2,2,26,6,1,0,0,1,0,1,0,0,0,hexagon,triangle,,,,,,,,,,,,,,,,,,,,,,,,,,,,,,,,,,,,,,,,,,,,,,,,,,,,,,
298342,2022-12-05_20h02.17.941,vts_reward_expectancy_bt,2022.2.4,MacIntel,60.0024001,Chrome,1440,900,,,a,0.6752,10,622,2,2,3,27,1,1,1,0,0,0,0,0,1,0,triangle,hexagon,,,,,,,,,,,,,,,,,,,,,,,,,,,,,,,,,,,,,,,,,,,,,,,,,,,,,,
298342,2022-12-05_20h02.17.941,vts_reward_expectancy_bt,2022.2.4,MacIntel,60.0024001,Chrome,1440,900,,,a,0.5895,10,632,2,2,4,28,5,1,0,1,0,0,0,0,0,1,circle,star,,,,,,,,,,,,,,,,,,,,,,,,,,,,,,,,,,,,,,,,,,,,,,,,,,,,,,
298342,2022-12-05_20h02.17.941,vts_reward_expectancy_bt,2022.2.4,MacIntel,60.0024001,Chrome,1440,900,,,a,0.9469,1,633,2,2,5,29,8,1,0,0,1,0,0,0,0,1,hexagon,star,,,,,,,,,,,,,,,,,,,,,,,,,,,,,,,,,,,,,,,,,,,,,,,,,,,,,,
298342,2022-12-05_20h02.17.941,vts_reward_expectancy_bt,2022.2.4,MacIntel,60.0024001,Chrome,1440,900,,,l,0.6164,1,634,2,2,6,30,7,1,0,0,1,0,0,1,0,0,hexagon,circle,,,,,,,,,,,,,,,,,,,,,,,,,,,,,,,,,,,,,,,,,,,,,,,,,,,,,,
298342,2022-12-05_20h02.17.941,vts_reward_expectancy_bt,2022.2.4,MacIntel,60.0024001,Chrome,1440,900,,,a,0.458,10,644,2,2,7,31,3,1,0,1,0,0,1,0,0,0,circle,triangle,,,,,,,,,,,,,,,,,,,,,,,,,,,,,,,,,,,,,,,,,,,,,,,,,,,,,,
298342,2022-12-05_20h02.17.941,vts_reward_expectancy_bt,2022.2.4,MacIntel,60.0024001,Chrome,1440,900,,,l,0.702,1,645,2,2,8,32,9,1,0,0,0,1,1,0,0,0,star,triangle,,,,,,,,,,,,,,,,,,,,,,,,,,,,,,,,,,,,,,,,,,,,,,,,,,,,,,
298342,2022-12-05_20h02.17.941,vts_reward_expectancy_bt,2022.2.4,MacIntel,60.0024001,Chrome,1440,900,,,l,0.7044,10,655,2,2,9,33,0,1,1,0,0,0,0,1,0,0,triangle,circle,,,,,,,,,,,,,,,,,,,,,,,,,,,,,,,,,,,,,,,,,,,,,,,,,,,,,,
298342,2022-12-05_20h02.17.941,vts_reward_expectancy_bt,2022.2.4,MacIntel,60.0024001,Chrome,1440,900,,,a,1.1675,1,656,2,2,10,34,4,1,0,1,0,0,0,0,1,0,circle,hexagon,,,,,,,,,,,,,,,,,,,,,,,,,,,,,,,,,,,,,,,,,,,,,,,,,,,,,,
298342,2022-12-05_20h02.17.941,vts_reward_expectancy_bt,2022.2.4,MacIntel,60.0024001,Chrome,1440,900,,,l,0.5473,1,657,2,2,11,35,10,1,0,0,0,1,0,1,0,0,star ,circle,,,,,,,,,,,,,,,,,,,,,,,,,,,,,,,,,,,,,,,,,,,,,,,,,,,,,,
298342,2022-12-05_20h02.17.941,vts_reward_expectancy_bt,2022.2.4,MacIntel,60.0024001,Chrome,1440,900,,,,,,,,,,,,,,,,,,,,,,,181,Y,star,0,0,d,2.4182,0,0,0,0,0,1,,,,,,,,,,,,,,,,,,,,,,,,,,,,,,,,,,,,,,,,,
298342,2022-12-05_20h02.17.941,vts_reward_expectancy_bt,2022.2.4,MacIntel,60.0024001,Chrome,1440,900,,,,,,,,,,,,,,,,,,,,,,,132,S,triangle,1,1,d,2.3,0,1,0,1,0,1,,,,,,,,,,,,,,,,,,,,,,,,,,,,,,,,,,,,,,,,,
298342,2022-12-05_20h02.17.941,vts_reward_expectancy_bt,2022.2.4,MacIntel,60.0024001,Chrome,1440,900,,,,,,,,,,,,,,,,,,,,,,,160,D,hexagon,1,0,f,1.0971,0,2,0,2,0,1,,,,,,,,,,,,,,,,,,,,,,,,,,,,,,,,,,,,,,,,,
298342,2022-12-05_20h02.17.941,vts_reward_expectancy_bt,2022.2.4,MacIntel,60.0024001,Chrome,1440,900,,,,,,,,,,,,,,,,,,,,,,,125,H,circle,1,0,d,0.5968,0,3,0,3,0,1,,,,,,,,,,,,,,,,,,,,,,,,,,,,,,,,,,,,,,,,,
298342,2022-12-05_20h02.17.941,vts_reward_expectancy_bt,2022.2.4,MacIntel,60.0024001,Chrome,1440,900,,,,,,,,,,,,,,,,,,,,,,,167,W,star,1,0,f,0.8989,0,4,0,4,0,1,,,,,,,,,,,,,,,,,,,,,,,,,,,,,,,,,,,,,,,,,
298342,2022-12-05_20h02.17.941,vts_reward_expectancy_bt,2022.2.4,MacIntel,60.0024001,Chrome,1440,900,,,,,,,,,,,,,,,,,,,,,,,174,B,triangle,1,0,f,0.5028,0,5,0,5,0,1,,,,,,,,,,,,,,,,,,,,,,,,,,,,,,,,,,,,,,,,,
298342,2022-12-05_20h02.17.941,vts_reward_expectancy_bt,2022.2.4,MacIntel,60.0024001,Chrome,1440,900,,,,,,,,,,,,,,,,,,,,,,,146,U,hexagon,1,0,d,0.5794,0,6,0,6,0,1,,,,,,,,,,,,,,,,,,,,,,,,,,,,,,,,,,,,,,,,,
298342,2022-12-05_20h02.17.941,vts_reward_expectancy_bt,2022.2.4,MacIntel,60.0024001,Chrome,1440,900,,,,,,,,,,,,,,,,,,,,,,,139,F,circle,1,0,d,0.584,0,7,0,7,0,1,,,,,,,,,,,,,,,,,,,,,,,,,,,,,,,,,,,,,,,,,
298342,2022-12-05_20h02.17.941,vts_reward_expectancy_bt,2022.2.4,MacIntel,60.0024001,Chrome,1440,900,,,,,,,,,,,,,,,,,,,,,,,181,Y,hexagon,1,0,f,0.4148,0,8,0,8,0,1,,,,,,,,,,,,,,,,,,,,,,,,,,,,,,,,,,,,,,,,,
298342,2022-12-05_20h02.17.941,vts_reward_expectancy_bt,2022.2.4,MacIntel,60.0024001,Chrome,1440,900,,,,,,,,,,,,,,,,,,,,,,,132,S,star,1,0,d,0.4805,0,9,0,9,0,1,,,,,,,,,,,,,,,,,,,,,,,,,,,,,,,,,,,,,,,,,
298342,2022-12-05_20h02.17.941,vts_reward_expectancy_bt,2022.2.4,MacIntel,60.0024001,Chrome,1440,900,,,,,,,,,,,,,,,,,,,,,,,139,B,triangle,1,0,,,1,,,,,,j,0.6483,0,0,0,0,1,,,,,,,,,,,,,,,,,,,,,,,,,,,,,,,,,,
298342,2022-12-05_20h02.17.941,vts_reward_expectancy_bt,2022.2.4,MacIntel,60.0024001,Chrome,1440,900,,,,,,,,,,,,,,,,,,,,,,,181,D,star,1,0,,,1,,,,,,j,0.6712,1,0,1,0,1,,,,,,,,,,,,,,,,,,,,,,,,,,,,,,,,,,
298342,2022-12-05_20h02.17.941,vts_reward_expectancy_bt,2022.2.4,MacIntel,60.0024001,Chrome,1440,900,,,,,,,,,,,,,,,,,,,,,,,167,F,hexagon,1,0,,,1,,,,,,j,0.8635,2,0,2,0,1,,,,,,,,,,,,,,,,,,,,,,,,,,,,,,,,,,
298342,2022-12-05_20h02.17.941,vts_reward_expectancy_bt,2022.2.4,MacIntel,60.0024001,Chrome,1440,900,,,,,,,,,,,,,,,,,,,,,,,160,Y,circle,1,0,,,1,,,,,,k,0.6313,3,0,3,0,1,,,,,,,,,,,,,,,,,,,,,,,,,,,,,,,,,,
298342,2022-12-05_20h02.17.941,vts_reward_expectancy_bt,2022.2.4,MacIntel,60.0024001,Chrome,1440,900,,,,,,,,,,,,,,,,,,,,,,,174,U,triangle,1,0,,,1,,,,,,k,0.598,4,0,4,0,1,,,,,,,,,,,,,,,,,,,,,,,,,,,,,,,,,,
298342,2022-12-05_20h02.17.941,vts_reward_expectancy_bt,2022.2.4,MacIntel,60.0024001,Chrome,1440,900,,,,,,,,,,,,,,,,,,,,,,,125,H,star,1,0,,,1,,,,,,j,0.6335,5,0,5,0,1,,,,,,,,,,,,,,,,,,,,,,,,,,,,,,,,,,
298342,2022-12-05_20h02.17.941,vts_reward_expectancy_bt,2022.2.4,MacIntel,60.0024001,Chrome,1440,900,,,,,,,,,,,,,,,,,,,,,,,132,S,hexagon,1,0,,,1,,,,,,k,0.7821,6,0,6,0,1,,,,,,,,,,,,,,,,,,,,,,,,,,,,,,,,,,
298342,2022-12-05_20h02.17.941,vts_reward_expectancy_bt,2022.2.4,MacIntel,60.0024001,Chrome,1440,900,,,,,,,,,,,,,,,,,,,,,,,146,W,circle,1,0,,,1,,,,,,k,0.7157,7,0,7,0,1,,,,,,,,,,,,,,,,,,,,,,,,,,,,,,,,,,
298342,2022-12-05_20h02.17.941,vts_reward_expectancy_bt,2022.2.4,MacIntel,60.0024001,Chrome,1440,900,,,,,,,,,,,,,,,,,,,,,,,139,B,star,1,0,,,1,,,,,,j,0.4469,8,0,8,0,1,,,,,,,,,,,,,,,,,,,,,,,,,,,,,,,,,,
298342,2022-12-05_20h02.17.941,vts_reward_expectancy_bt,2022.2.4,MacIntel,60.0024001,Chrome,1440,900,,,,,,,,,,,,,,,,,,,,,,,181,D,circle,1,0,,,1,,,,,,j,0.6157,9,0,9,0,1,,,,,,,,,,,,,,,,,,,,,,,,,,,,,,,,,,
298342,2022-12-05_20h02.17.941,vts_reward_expectancy_bt,2022.2.4,MacIntel,60.0024001,Chrome,1440,900,,,,,0,657,,,,,,,,,,,,,,,,,146,W,hexagon,1,0,,,2,,,,,,,,,,,,,-1,number,NA,d,1.5282,vtsPrac,0,0,0,0,1,,,,,,,,,,,,,,,,,,,,,,,
298342,2022-12-05_20h02.17.941,vts_reward_expectancy_bt,2022.2.4,MacIntel,60.0024001,Chrome,1440,900,,,,,0,657,,,,,,,,,,,,,,,,,167,D,circle,1,0,,,2,,,,,,,,,,,,,switch,letter,lettSwt,j,0.8299,vtsPrac,1,0,1,0,1,,,,,,,,,,,,,,,,,,,,,,,
298342,2022-12-05_20h02.17.941,vts_reward_expectancy_bt,2022.2.4,MacIntel,60.0024001,Chrome,1440,900,,,,,0,657,,,,,,,,,,,,,,,,,139,Y,hexagon,1,0,,,2,,,,,,,,,,,,,switch,number,numSwt,d,0.533,vtsPrac,2,0,2,0,1,,,,,,,,,,,,,,,,,,,,,,,
298342,2022-12-05_20h02.17.941,vts_reward_expectancy_bt,2022.2.4,MacIntel,60.0024001,Chrome,1440,900,,,,,0,657,,,,,,,,,,,,,,,,,174,U,circle,1,0,,,2,,,,,,,,,,,,,repeat,number,numRpt,f,0.6682,vtsPrac,3,0,3,0,1,,,,,,,,,,,,,,,,,,,,,,,
298342,2022-12-05_20h02.17.941,vts_reward_expectancy_bt,2022.2.4,MacIntel,60.0024001,Chrome,1440,900,,,,,0,657,,,,,,,,,,,,,,,,,146,W,circle,1,0,,,2,,,,,,,,,,,,,switch,letter,lettSwt,k,0.6637,vtsPrac,4,0,4,0,1,,,,,,,,,,,,,,,,,,,,,,,
298342,2022-12-05_20h02.17.941,vts_reward_expectancy_bt,2022.2.4,MacIntel,60.0024001,Chrome,1440,900,,,,,0,657,,,,,,,,,,,,,,,,,167,D,hexagon,1,0,,,2,,,,,,,,,,,,,switch,number,numSwt,f,0.7201,vtsPrac,5,0,5,0,1,,,,,,,,,,,,,,,,,,,,,,,
298342,2022-12-05_20h02.17.941,vts_reward_expectancy_bt,2022.2.4,MacIntel,60.0024001,Chrome,1440,900,,,,,0,657,,,,,,,,,,,,,,,,,139,Y,triangle,1,0,,,2,,,,,,,,,,,,,repeat,number,numRpt,d,0.4797,vtsPrac,6,0,6,0,1,,,,,,,,,,,,,,,,,,,,,,,
298342,2022-12-05_20h02.17.941,vts_reward_expectancy_bt,2022.2.4,MacIntel,60.0024001,Chrome,1440,900,,,,,0,657,,,,,,,,,,,,,,,,,174,U,circle,1,0,,,2,,,,,,,,,,,,,switch,letter,lettSwt,k,0.6032,vtsPrac,7,0,7,0,1,,,,,,,,,,,,,,,,,,,,,,,
298342,2022-12-05_20h02.17.941,vts_reward_expectancy_bt,2022.2.4,MacIntel,60.0024001,Chrome,1440,900,,,,,0,657,,,,,,,,,,,,,,,,,174,D,hexagon,1,0,,,2,,,,,,,,,,,,,switch,number,numSwt,f,0.5653,vtsPrac,8,0,8,0,1,,,,,,,,,,,,,,,,,,,,,,,
298342,2022-12-05_20h02.17.941,vts_reward_expectancy_bt,2022.2.4,MacIntel,60.0024001,Chrome,1440,900,,,,,0,657,,,,,,,,,,,,,,,,,167,Y,triangle,1,0,,,2,,,,,,,,,,,,,repeat,number,numRpt,f,0.6972,vtsPrac,9,0,9,0,1,,,,,,,,,,,,,,,,,,,,,,,
298342,2022-12-05_20h02.17.941,vts_reward_expectancy_bt,2022.2.4,MacIntel,60.0024001,Chrome,1440,900,,,,,0,657,,,,,,,,,,,,,,,,,132,B,circle,1,0,,,2,,,,,,,,,,,,,repeat,number,numRpt,d,0.6295,vtsPrac,10,0,10,0,1,,,,,,,,,,,,,,,,,,,,,,,
298342,2022-12-05_20h02.17.941,vts_reward_expectancy_bt,2022.2.4,MacIntel,60.0024001,Chrome,1440,900,,,,,0,657,,,,,,,,,,,,,,,,,146,F,triangle,1,0,,,2,,,,,,,,,,,,,switch,letter,lettSwt,j,0.6346,vtsPrac,11,0,11,0,1,,,,,,,,,,,,,,,,,,,,,,,
298342,2022-12-05_20h02.17.941,vts_reward_expectancy_bt,2022.2.4,MacIntel,60.0024001,Chrome,1440,900,,,,,0,657,,,,,,,,,,,,,,,,,174,D,circle,1,0,,,2,,,,,,,,,,,,,repeat,letter,lettRpt,j,0.5774,vtsPrac,12,0,12,0,1,,,,,,,,,,,,,,,,,,,,,,,
298342,2022-12-05_20h02.17.941,vts_reward_expectancy_bt,2022.2.4,MacIntel,60.0024001,Chrome,1440,900,,,,,0,657,,,,,,,,,,,,,,,,,160,B,triangle,1,0,,,2,,,,,,,,,,,,,repeat,letter,lettRpt,j,0.5857,vtsPrac,13,0,13,0,1,,,,,,,,,,,,,,,,,,,,,,,
298342,2022-12-05_20h02.17.941,vts_reward_expectancy_bt,2022.2.4,MacIntel,60.0024001,Chrome,1440,900,,,,,0,657,,,,,,,,,,,,,,,,,181,S,star,1,0,,,2,,,,,,,,,,,,,switch,number,numSwt,f,0.4814,vtsPrac,14,0,14,0,1,,,,,,,,,,,,,,,,,,,,,,,
298342,2022-12-05_20h02.17.941,vts_reward_expectancy_bt,2022.2.4,MacIntel,60.0024001,Chrome,1440,900,,,,,0,657,,,,,,,,,,,,,,,,,132,W,hexagon,1,0,,,2,,,,,,,,,,,,,repeat,number,numRpt,d,0.6177,vtsPrac,15,0,15,0,1,,,,,,,,,,,,,,,,,,,,,,,
298342,2022-12-05_20h02.17.941,vts_reward_expectancy_bt,2022.2.4,MacIntel,60.0024001,Chrome,1440,900,,,,,0,657,,,,,,,,,,,,,,,,,132,F,star,1,0,,,2,,,,,,,,,,,,,switch,letter,lettSwt,j,0.541,vtsPrac,16,0,16,0,1,,,,,,,,,,,,,,,,,,,,,,,
298342,2022-12-05_20h02.17.941,vts_reward_expectancy_bt,2022.2.4,MacIntel,60.0024001,Chrome,1440,900,,,,,0,657,,,,,,,,,,,,,,,,,139,D,hexagon,1,0,,,2,,,,,,,,,,,,,switch,number,numSwt,d,0.7852,vtsPrac,17,0,17,0,1,,,,,,,,,,,,,,,,,,,,,,,
298342,2022-12-05_20h02.17.941,vts_reward_expectancy_bt,2022.2.4,MacIntel,60.0024001,Chrome,1440,900,,,,,0,657,,,,,,,,,,,,,,,,,125,B,hexagon,1,0,,,2,,,,,,,,,,,,,switch,letter,lettSwt,j,0.7122,vtsPrac,18,0,18,0,1,,,,,,,,,,,,,,,,,,,,,,,
298342,2022-12-05_20h02.17.941,vts_reward_expectancy_bt,2022.2.4,MacIntel,60.0024001,Chrome,1440,900,,,,,0,657,,,,,,,,,,,,,,,,,181,U,circle,1,0,,,2,,,,,,,,,,,,,repeat,letter,lettRpt,k,0.6537,vtsPrac,19,0,19,0,1,,,,,,,,,,,,,,,,,,,,,,,
298342,2022-12-05_20h02.17.941,vts_reward_expectancy_bt,2022.2.4,MacIntel,60.0024001,Chrome,1440,900,,,,,0,657,,,,,,,,,,,,,,,,,167,H,circle,1,0,,,2,,,,,,,,,,,,,repeat,letter,lettRpt,j,0.5977,vtsPrac,20,0,20,0,1,,,,,,,,,,,,,,,,,,,,,,,
298342,2022-12-05_20h02.17.941,vts_reward_expectancy_bt,2022.2.4,MacIntel,60.0024001,Chrome,1440,900,,,,,0,657,,,,,,,,,,,,,,,,,160,S,triangle,1,0,,,2,,,,,,,,,,,,,switch,number,numSwt,f,1.7801,vtsPrac,21,0,21,0,1,,,,,,,,,,,,,,,,,,,,,,,
298342,2022-12-05_20h02.17.941,vts_reward_expectancy_bt,2022.2.4,MacIntel,60.0024001,Chrome,1440,900,,,,,0,657,,,,,,,,,,,,,,,,,125,W,circle,1,0,,,2,,,,,,,,,,,,,repeat,number,numRpt,d,0.7321,vtsPrac,22,0,22,0,1,,,,,,,,,,,,,,,,,,,,,,,
298342,2022-12-05_20h02.17.941,vts_reward_expectancy_bt,2022.2.4,MacIntel,60.0024001,Chrome,1440,900,,,,,0,657,,,,,,,,,,,,,,,,,146,F,hexagon,1,0,,,2,,,,,,,,,,,,,repeat,number,numRpt,d,0.7828,vtsPrac,23,0,23,0,1,,,,,,,,,,,,,,,,,,,,,,,
298342,2022-12-05_20h02.17.941,vts_reward_expectancy_bt,2022.2.4,MacIntel,60.0024001,Chrome,1440,900,,,,,0,657,,,,,,,,,,,,,,,,,167,S,hexagon,1,0,,,2,,,,,,,,,,,,,switch,letter,lettSwt,k,0.8325,vtsPrac,24,0,24,0,1,,,,,,,,,,,,,,,,,,,,,,,
298342,2022-12-05_20h02.17.941,vts_reward_expectancy_bt,2022.2.4,MacIntel,60.0024001,Chrome,1440,900,,,,,0,657,,,,,,,,,,,,,,,,,160,D,triangle,1,0,,,2,,,,,,,,,,,,,repeat,letter,lettRpt,j,1.2804,vtsPrac,25,0,25,0,1,,,,,,,,,,,,,,,,,,,,,,,
298342,2022-12-05_20h02.17.941,vts_reward_expectancy_bt,2022.2.4,MacIntel,60.0024001,Chrome,1440,900,,,,,0,657,,,,,,,,,,,,,,,,,139,F,star,1,0,,,2,,,,,,,,,,,,,switch,number,numSwt,d,0.7386,vtsPrac,26,0,26,0,1,,,,,,,,,,,,,,,,,,,,,,,
298342,2022-12-05_20h02.17.941,vts_reward_expectancy_bt,2022.2.4,MacIntel,60.0024001,Chrome,1440,900,,,,,0,657,,,,,,,,,,,,,,,,,132,H,triangle,1,0,,,2,,,,,,,,,,,,,switch,letter,lettSwt,j,0.7306,vtsPrac,27,0,27,0,1,,,,,,,,,,,,,,,,,,,,,,,
298342,2022-12-05_20h02.17.941,vts_reward_expectancy_bt,2022.2.4,MacIntel,60.0024001,Chrome,1440,900,,,,,0,657,,,,,,,,,,,,,,,,,167,S,star,1,0,,,2,,,,,,,,,,,,,repeat,letter,lettRpt,k,1.0313,vtsPrac,28,0,28,0,1,,,,,,,,,,,,,,,,,,,,,,,
298342,2022-12-05_20h02.17.941,vts_reward_expectancy_bt,2022.2.4,MacIntel,60.0024001,Chrome,1440,900,,,,,0,657,,,,,,,,,,,,,,,,,125,W,hexagon,1,0,,,2,,,,,,,,,,,,,switch,number,numSwt,d,0.6638,vtsPrac,29,0,29,0,1,,,,,,,,,,,,,,,,,,,,,,,
298342,2022-12-05_20h02.17.941,vts_reward_expectancy_bt,2022.2.4,MacIntel,60.0024001,Chrome,1440,900,,,,,0,657,,,,,,,,,,,,,,,,,181,D,star,1,0,,,2,,,,,,,,,,,,,switch,letter,lettSwt,j,0.4886,vtsPrac,30,0,30,0,1,,,,,,,,,,,,,,,,,,,,,,,
298342,2022-12-05_20h02.17.941,vts_reward_expectancy_bt,2022.2.4,MacIntel,60.0024001,Chrome,1440,900,,,,,0,657,,,,,,,,,,,,,,,,,174,B,circle,1,0,,,2,,,,,,,,,,,,,repeat,letter,lettRpt,j,0.5449,vtsPrac,31,0,31,0,1,,,,,,,,,,,,,,,,,,,,,,,
298342,2022-12-05_20h02.17.941,vts_reward_expectancy_bt,2022.2.4,MacIntel,60.0024001,Chrome,1440,900,,,,,,,,,,,,,,,,,,,,,,,,,,,,,,,,,,,,,,,,,,,,,,,,,,,,,,,,,,,,,,,,,,,,,,,,,,,,
298342,2022-12-05_20h02.17.941,vts_reward_expectancy_bt,2022.2.4,MacIntel,60.0024001,Chrome,1440,900,,,,,,,,,,,,,,,,,,,,,,,,,,,,,,,,,,,,,,,,,,,,,,,,,,,,,,,,,,,,,,,,,,,,,,,,,,,,
298342,2022-12-05_20h02.17.941,vts_reward_expectancy_bt,2022.2.4,MacIntel,60.0024001,Chrome,1440,900,,,,,0,657,,,,,,,,,,,,,,,,,139,F,star,1,0,,,,,,,,,,,,,,,,switch,number,numSwt,d,0.9637,noRew,,,,,,0,0,0,0,0,1,,,,,,,,,,,,,,,,,
298342,2022-12-05_20h02.17.941,vts_reward_expectancy_bt,2022.2.4,MacIntel,60.0024001,Chrome,1440,900,,,,,0,657,,,,,,,,,,,,,,,,,146,H,triangle,1,0,,,,,,,,,,,,,,,,repeat,number,numRpt,d,0.8531,noRew,,,,,,0,1,0,1,0,1,,,,,,,,,,,,,,,,,
298342,2022-12-05_20h02.17.941,vts_reward_expectancy_bt,2022.2.4,MacIntel,60.0024001,Chrome,1440,900,,,,,0,657,,,,,,,,,,,,,,,,,174,Y,star,1,0,,,,,,,,,,,,,,,,switch,letter,lettSwt,k,0.695,noRew,,,,,,0,2,0,2,0,1,,,,,,,,,,,,,,,,,
298342,2022-12-05_20h02.17.941,vts_reward_expectancy_bt,2022.2.4,MacIntel,60.0024001,Chrome,1440,900,,,,,0,657,,,,,,,,,,,,,,,,,132,S,triangle,1,0,,,,,,,,,,,,,,,,switch,number,numSwt,d,0.6638,noRew,,,,,,0,3,0,3,0,1,,,,,,,,,,,,,,,,,
298342,2022-12-05_20h02.17.941,vts_reward_expectancy_bt,2022.2.4,MacIntel,60.0024001,Chrome,1440,900,,,,,0,657,,,,,,,,,,,,,,,,,139,F,triangle,1,0,,,,,,,,,,,,,,,,switch,letter,lettSwt,j,1.2976,noRew,,,,,,0,4,0,4,0,1,,,,,,,,,,,,,,,,,
298342,2022-12-05_20h02.17.941,vts_reward_expectancy_bt,2022.2.4,MacIntel,60.0024001,Chrome,1440,900,,,,,0,657,,,,,,,,,,,,,,,,,146,H,star,1,0,,,,,,,,,,,,,,,,repeat,letter,lettRpt,j,0.7989,noRew,,,,,,0,5,0,5,0,1,,,,,,,,,,,,,,,,,
298342,2022-12-05_20h02.17.941,vts_reward_expectancy_bt,2022.2.4,MacIntel,60.0024001,Chrome,1440,900,,,,,0,657,,,,,,,,,,,,,,,,,174,Y,triangle,1,0,,,,,,,,,,,,,,,,repeat,letter,lettRpt,k,0.78,noRew,,,,,,0,6,0,6,0,1,,,,,,,,,,,,,,,,,
298342,2022-12-05_20h02.17.941,vts_reward_expectancy_bt,2022.2.4,MacIntel,60.0024001,Chrome,1440,900,,,,,0,657,,,,,,,,,,,,,,,,,132,S,star,1,0,,,,,,,,,,,,,,,,switch,number,numSwt,d,0.5313,noRew,,,,,,0,7,0,7,0,1,,,,,,,,,,,,,,,,,
298342,2022-12-05_20h02.17.941,vts_reward_expectancy_bt,2022.2.4,MacIntel,60.0024001,Chrome,1440,900,,,,,0,657,,,,,,,,,,,,,,,,,181,F,star,1,0,,,,,,,,,,,,,,,,repeat,number,numRpt,f,0.8134,noRew,,,,,,0,8,0,8,0,1,,,,,,,,,,,,,,,,,
298342,2022-12-05_20h02.17.941,vts_reward_expectancy_bt,2022.2.4,MacIntel,60.0024001,Chrome,1440,900,,,,,0,657,,,,,,,,,,,,,,,,,174,W,circle,1,0,,,,,,,,,,,,,,,,repeat,number,numRpt,f,0.5788,noRew,,,,,,0,9,0,9,0,1,,,,,,,,,,,,,,,,,
298342,2022-12-05_20h02.17.941,vts_reward_expectancy_bt,2022.2.4,MacIntel,60.0024001,Chrome,1440,900,,,,,0,657,,,,,,,,,,,,,,,,,160,U,triangle,1,0,,,,,,,,,,,,,,,,repeat,number,numRpt,f,1.0054,noRew,,,,,,0,10,0,10,0,1,,,,,,,,,,,,,,,,,
298342,2022-12-05_20h02.17.941,vts_reward_expectancy_bt,2022.2.4,MacIntel,60.0024001,Chrome,1440,900,,,,,0,657,,,,,,,,,,,,,,,,,146,B,star,1,0,,,,,,,,,,,,,,,,switch,letter,lettSwt,j,1.5295,noRew,,,,,,0,11,0,11,0,1,,,,,,,,,,,,,,,,,
298342,2022-12-05_20h02.17.941,vts_reward_expectancy_bt,2022.2.4,MacIntel,60.0024001,Chrome,1440,900,,,,,0,657,,,,,,,,,,,,,,,,,146,S,circle,1,0,,,,,,,,,,,,,,,,switch,number,numSwt,d,0.7988,noRew,,,,,,0,12,0,12,0,1,,,,,,,,,,,,,,,,,
298342,2022-12-05_20h02.17.941,vts_reward_expectancy_bt,2022.2.4,MacIntel,60.0024001,Chrome,1440,900,,,,,0,657,,,,,,,,,,,,,,,,,160,B,hexagon,1,0,,,,,,,,,,,,,,,,switch,letter,lettSwt,j,0.5787,noRew,,,,,,0,13,0,13,0,1,,,,,,,,,,,,,,,,,
298342,2022-12-05_20h02.17.941,vts_reward_expectancy_bt,2022.2.4,MacIntel,60.0024001,Chrome,1440,900,,,,,0,657,,,,,,,,,,,,,,,,,132,Y,hexagon,1,0,,,,,,,,,,,,,,,,repeat,letter,lettRpt,k,0.5812,noRew,,,,,,0,14,0,14,0,1,,,,,,,,,,,,,,,,,
298342,2022-12-05_20h02.17.941,vts_reward_expectancy_bt,2022.2.4,MacIntel,60.0024001,Chrome,1440,900,,,,,0,657,,,,,,,,,,,,,,,,,181,D,circle,1,0,,,,,,,,,,,,,,,,switch,number,numSwt,f,0.7125,noRew,,,,,,0,15,0,15,0,1,,,,,,,,,,,,,,,,,
298342,2022-12-05_20h02.17.941,vts_reward_expectancy_bt,2022.2.4,MacIntel,60.0024001,Chrome,1440,900,,,,,0,657,,,,,,,,,,,,,,,,,181,D,triangle,1,0,,,,,,,,,,,,,,,,switch,letter,lettSwt,j,1.1191,noRew,,,,,,0,16,0,16,0,1,,,,,,,,,,,,,,,,,
298342,2022-12-05_20h02.17.941,vts_reward_expectancy_bt,2022.2.4,MacIntel,60.0024001,Chrome,1440,900,,,,,0,657,,,,,,,,,,,,,,,,,160,W,circle,1,0,,,,,,,,,,,,,,,,repeat,letter,lettRpt,k,0.7122,noRew,,,,,,0,17,0,17,0,1,,,,,,,,,,,,,,,,,
298342,2022-12-05_20h02.17.941,vts_reward_expectancy_bt,2022.2.4,MacIntel,60.0024001,Chrome,1440,900,,,,,0,657,,,,,,,,,,,,,,,,,167,S,star,1,0,,,,,,,,,,,,,,,,switch,number,numSwt,f,0.5131,noRew,,,,,,0,18,0,18,0,1,,,,,,,,,,,,,,,,,
298342,2022-12-05_20h02.17.941,vts_reward_expectancy_bt,2022.2.4,MacIntel,60.0024001,Chrome,1440,900,,,,,0,657,,,,,,,,,,,,,,,,,132,H,circle,1,0,,,,,,,,,,,,,,,,repeat,number,numRpt,d,0.6838,noRew,,,,,,0,19,0,19,0,1,,,,,,,,,,,,,,,,,
298342,2022-12-05_20h02.17.941,vts_reward_expectancy_bt,2022.2.4,MacIntel,60.0024001,Chrome,1440,900,,,,,0,657,,,,,,,,,,,,,,,,,125,Y,hexagon,1,0,,,,,,,,,,,,,,,,switch,letter,lettSwt,k,0.6959,noRew,,,,,,0,20,0,20,0,1,,,,,,,,,,,,,,,,,
298342,2022-12-05_20h02.17.941,vts_reward_expectancy_bt,2022.2.4,MacIntel,60.0024001,Chrome,1440,900,,,,,0,657,,,,,,,,,,,,,,,,,160,S,star,1,0,,,,,,,,,,,,,,,,switch,number,numSwt,f,0.6985,noRew,,,,,,0,21,0,21,0,1,,,,,,,,,,,,,,,,,
298342,2022-12-05_20h02.17.941,vts_reward_expectancy_bt,2022.2.4,MacIntel,60.0024001,Chrome,1440,900,,,,,0,657,,,,,,,,,,,,,,,,,174,B,hexagon,1,0,,,,,,,,,,,,,,,,switch,letter,lettSwt,j,0.6505,noRew,,,,,,0,22,0,22,0,1,,,,,,,,,,,,,,,,,
298342,2022-12-05_20h02.17.941,vts_reward_expectancy_bt,2022.2.4,MacIntel,60.0024001,Chrome,1440,900,,,,,0,657,,,,,,,,,,,,,,,,,139,D,star,1,0,,,,,,,,,,,,,,,,repeat,letter,lettRpt,j,0.6308,noRew,,,,,,0,23,0,23,0,1,,,,,,,,,,,,,,,,,
298342,2022-12-05_20h02.17.941,vts_reward_expectancy_bt,2022.2.4,MacIntel,60.0024001,Chrome,1440,900,,,,,0,657,,,,,,,,,,,,,,,,,174,Y,triangle,1,0,,,,,,,,,,,,,,,,repeat,letter,lettRpt,k,0.7154,noRew,,,,,,0,24,0,24,0,1,,,,,,,,,,,,,,,,,
298342,2022-12-05_20h02.17.941,vts_reward_expectancy_bt,2022.2.4,MacIntel,60.0024001,Chrome,1440,900,,,,,0,657,,,,,,,,,,,,,,,,,146,D,hexagon,1,0,,,,,,,,,,,,,,,,repeat,letter,lettRpt,j,0.7294,noRew,,,,,,0,25,0,25,0,1,,,,,,,,,,,,,,,,,
298342,2022-12-05_20h02.17.941,vts_reward_expectancy_bt,2022.2.4,MacIntel,60.0024001,Chrome,1440,900,,,,,0,657,,,,,,,,,,,,,,,,,125,U,triangle,1,0,,,,,,,,,,,,,,,,switch,number,numSwt,d,0.8048,noRew,,,,,,0,26,0,26,0,1,,,,,,,,,,,,,,,,,
298342,2022-12-05_20h02.17.941,vts_reward_expectancy_bt,2022.2.4,MacIntel,60.0024001,Chrome,1440,900,,,,,0,657,,,,,,,,,,,,,,,,,167,S,circle,1,0,,,,,,,,,,,,,,,,repeat,number,numRpt,f,0.8532,noRew,,,,,,0,27,0,27,0,1,,,,,,,,,,,,,,,,,
298342,2022-12-05_20h02.17.941,vts_reward_expectancy_bt,2022.2.4,MacIntel,60.0024001,Chrome,1440,900,,,,,0,657,,,,,,,,,,,,,,,,,167,U,star,1,0,,,,,,,,,,,,,,,,repeat,number,numRpt,f,0.784,noRew,,,,,,0,28,0,28,0,1,,,,,,,,,,,,,,,,,
298342,2022-12-05_20h02.17.941,vts_reward_expectancy_bt,2022.2.4,MacIntel,60.0024001,Chrome,1440,900,,,,,0,657,,,,,,,,,,,,,,,,,139,D,circle,1,0,,,,,,,,,,,,,,,,repeat,number,numRpt,d,1.4844,noRew,,,,,,0,29,0,29,0,1,,,,,,,,,,,,,,,,,
298342,2022-12-05_20h02.17.941,vts_reward_expectancy_bt,2022.2.4,MacIntel,60.0024001,Chrome,1440,900,,,,,0,657,,,,,,,,,,,,,,,,,174,H,hexagon,1,0,,,,,,,,,,,,,,,,switch,letter,lettSwt,j,0.7994,noRew,,,,,,0,30,0,30,0,1,,,,,,,,,,,,,,,,,
298342,2022-12-05_20h02.17.941,vts_reward_expectancy_bt,2022.2.4,MacIntel,60.0024001,Chrome,1440,900,,,,,0,657,,,,,,,,,,,,,,,,,132,S,circle,1,0,,,,,,,,,,,,,,,,repeat,letter,lettRpt,k,1.2991,noRew,,,,,,0,31,0,31,0,1,,,,,,,,,,,,,,,,,
298342,2022-12-05_20h02.17.941,vts_reward_expectancy_bt,2022.2.4,MacIntel,60.0024001,Chrome,1440,900,,,,,0,657,,,,,,,,,,,,,,,,,167,W,triangle,1,0,,,,,,,,,,,,,,,,repeat,letter,lettRpt,k,0.5951,noRew,,,,,,0,32,0,32,0,1,,,,,,,,,,,,,,,,,
298342,2022-12-05_20h02.17.941,vts_reward_expectancy_bt,2022.2.4,MacIntel,60.0024001,Chrome,1440,900,,,,,0,657,,,,,,,,,,,,,,,,,181,F,circle,1,0,,,,,,,,,,,,,,,,switch,number,numSwt,f,0.6531,noRew,,,,,,0,33,0,33,0,1,,,,,,,,,,,,,,,,,
298342,2022-12-05_20h02.17.941,vts_reward_expectancy_bt,2022.2.4,MacIntel,60.0024001,Chrome,1440,900,,,,,0,657,,,,,,,,,,,,,,,,,139,H,star,1,0,,,,,,,,,,,,,,,,switch,letter,lettSwt,j,0.8298,noRew,,,,,,0,34,0,34,0,1,,,,,,,,,,,,,,,,,
298342,2022-12-05_20h02.17.941,vts_reward_expectancy_bt,2022.2.4,MacIntel,60.0024001,Chrome,1440,900,,,,,0,657,,,,,,,,,,,,,,,,,132,Y,circle,1,0,,,,,,,,,,,,,,,,repeat,letter,lettRpt,k,0.6469,noRew,,,,,,0,35,0,35,0,1,,,,,,,,,,,,,,,,,
298342,2022-12-05_20h02.17.941,vts_reward_expectancy_bt,2022.2.4,MacIntel,60.0024001,Chrome,1440,900,,,,,0,657,,,,,,,,,,,,,,,,,181,S,triangle,1,0,,,,,,,,,,,,,,,,repeat,letter,lettRpt,k,0.7532,noRew,,,,,,0,36,0,36,0,1,,,,,,,,,,,,,,,,,
298342,2022-12-05_20h02.17.941,vts_reward_expectancy_bt,2022.2.4,MacIntel,60.0024001,Chrome,1440,900,,,,,0,657,,,,,,,,,,,,,,,,,132,D,hexagon,1,0,,,,,,,,,,,,,,,,repeat,letter,lettRpt,j,0.6314,noRew,,,,,,0,37,0,37,0,1,,,,,,,,,,,,,,,,,
298342,2022-12-05_20h02.17.941,vts_reward_expectancy_bt,2022.2.4,MacIntel,60.0024001,Chrome,1440,900,,,,,0,657,,,,,,,,,,,,,,,,,125,F,hexagon,1,0,,,,,,,,,,,,,,,,switch,number,numSwt,d,0.9134,noRew,,,,,,0,38,0,38,0,1,,,,,,,,,,,,,,,,,
298342,2022-12-05_20h02.17.941,vts_reward_expectancy_bt,2022.2.4,MacIntel,60.0024001,Chrome,1440,900,,,,,0,657,,,,,,,,,,,,,,,,,174,B,circle,1,0,,,,,,,,,,,,,,,,switch,letter,lettSwt,j,0.6523,noRew,,,,,,0,39,0,39,0,1,,,,,,,,,,,,,,,,,
298342,2022-12-05_20h02.17.941,vts_reward_expectancy_bt,2022.2.4,MacIntel,60.0024001,Chrome,1440,900,,,,,0,657,,,,,,,,,,,,,,,,,174,U,star,1,0,,,,,,,,,,,,,,,,switch,number,numSwt,f,0.9084,noRew,,,,,,0,40,0,40,0,1,,,,,,,,,,,,,,,,,
298342,2022-12-05_20h02.17.941,vts_reward_expectancy_bt,2022.2.4,MacIntel,60.0024001,Chrome,1440,900,,,,,0,657,,,,,,,,,,,,,,,,,125,W,triangle,1,0,,,,,,,,,,,,,,,,repeat,number,numRpt,d,0.6466,noRew,,,,,,0,41,0,41,0,1,,,,,,,,,,,,,,,,,
298342,2022-12-05_20h02.17.941,vts_reward_expectancy_bt,2022.2.4,MacIntel,60.0024001,Chrome,1440,900,,,,,0,657,,,,,,,,,,,,,,,,,132,D,hexagon,1,0,,,,,,,,,,,,,,,,repeat,number,numRpt,d,0.9468,noRew,,,,,,0,42,0,42,0,1,,,,,,,,,,,,,,,,,
298342,2022-12-05_20h02.17.941,vts_reward_expectancy_bt,2022.2.4,MacIntel,60.0024001,Chrome,1440,900,,,,,0,657,,,,,,,,,,,,,,,,,139,H,triangle,1,0,,,,,,,,,,,,,,,,switch,letter,lettSwt,j,1.0129,noRew,,,,,,0,43,0,43,0,1,,,,,,,,,,,,,,,,,
298342,2022-12-05_20h02.17.941,vts_reward_expectancy_bt,2022.2.4,MacIntel,60.0024001,Chrome,1440,900,,,,,0,657,,,,,,,,,,,,,,,,,125,D,star,1,0,,,,,,,,,,,,,,,,switch,number,numSwt,d,0.4791,noRew,,,,,,0,44,0,44,0,1,,,,,,,,,,,,,,,,,
298342,2022-12-05_20h02.17.941,vts_reward_expectancy_bt,2022.2.4,MacIntel,60.0024001,Chrome,1440,900,,,,,0,657,,,,,,,,,,,,,,,,,139,B,triangle,1,0,,,,,,,,,,,,,,,,repeat,number,numRpt,d,0.5634,noRew,,,,,,0,45,0,45,0,1,,,,,,,,,,,,,,,,,
298342,2022-12-05_20h02.17.941,vts_reward_expectancy_bt,2022.2.4,MacIntel,60.0024001,Chrome,1440,900,,,,,0,657,,,,,,,,,,,,,,,,,167,U,star,1,0,,,,,,,,,,,,,,,,repeat,number,numRpt,f,0.6809,noRew,,,,,,0,46,0,46,0,1,,,,,,,,,,,,,,,,,
298342,2022-12-05_20h02.17.941,vts_reward_expectancy_bt,2022.2.4,MacIntel,60.0024001,Chrome,1440,900,,,,,0,657,,,,,,,,,,,,,,,,,174,F,circle,1,0,,,,,,,,,,,,,,,,repeat,number,numRpt,f,0.7293,noRew,,,,,,0,47,0,47,0,1,,,,,,,,,,,,,,,,,
298342,2022-12-05_20h02.17.941,vts_reward_expectancy_bt,2022.2.4,MacIntel,60.0024001,Chrome,1440,900,,,,,0,657,,,,,,,,,,,,,,,,,146,D,circle,1,0,,,,,,,,,,,,,,,,repeat,number,numRpt,d,0.8181,noRew,,,,,,0,48,0,48,0,1,,,,,,,,,,,,,,,,,
298342,2022-12-05_20h02.17.941,vts_reward_expectancy_bt,2022.2.4,MacIntel,60.0024001,Chrome,1440,900,,,,,0,657,,,,,,,,,,,,,,,,,160,S,star,1,0,,,,,,,,,,,,,,,,repeat,number,numRpt,f,0.8683,noRew,,,,,,0,49,0,49,0,1,,,,,,,,,,,,,,,,,
298342,2022-12-05_20h02.17.941,vts_reward_expectancy_bt,2022.2.4,MacIntel,60.0024001,Chrome,1440,900,,,,,0,657,,,,,,,,,,,,,,,,,132,F,star,1,0,,,,,,,,,,,,,,,,repeat,number,numRpt,d,0.6214,noRew,,,,,,0,50,0,50,0,1,,,,,,,,,,,,,,,,,
298342,2022-12-05_20h02.17.941,vts_reward_expectancy_bt,2022.2.4,MacIntel,60.0024001,Chrome,1440,900,,,,,0,657,,,,,,,,,,,,,,,,,174,H,hexagon,1,0,,,,,,,,,,,,,,,,switch,letter,lettSwt,j,0.755,noRew,,,,,,0,51,0,51,0,1,,,,,,,,,,,,,,,,,
298342,2022-12-05_20h02.17.941,vts_reward_expectancy_bt,2022.2.4,MacIntel,60.0024001,Chrome,1440,900,,,,,0,657,,,,,,,,,,,,,,,,,125,U,hexagon,1,0,,,,,,,,,,,,,,,,repeat,letter,lettRpt,k,0.6518,noRew,,,,,,0,52,0,52,0,1,,,,,,,,,,,,,,,,,
298342,2022-12-05_20h02.17.941,vts_reward_expectancy_bt,2022.2.4,MacIntel,60.0024001,Chrome,1440,900,,,,,0,657,,,,,,,,,,,,,,,,,181,B,circle,1,0,,,,,,,,,,,,,,,,repeat,letter,lettRpt,j,0.6209,noRew,,,,,,0,53,0,53,0,1,,,,,,,,,,,,,,,,,
298342,2022-12-05_20h02.17.941,vts_reward_expectancy_bt,2022.2.4,MacIntel,60.0024001,Chrome,1440,900,,,,,0,657,,,,,,,,,,,,,,,,,160,F,hexagon,1,0,,,,,,,,,,,,,,,,repeat,letter,lettRpt,j,0.9647,noRew,,,,,,0,54,0,54,0,1,,,,,,,,,,,,,,,,,
298342,2022-12-05_20h02.17.941,vts_reward_expectancy_bt,2022.2.4,MacIntel,60.0024001,Chrome,1440,900,,,,,0,657,,,,,,,,,,,,,,,,,132,S,triangle,1,0,,,,,,,,,,,,,,,,switch,number,numSwt,d,1.5492,noRew,,,,,,0,55,0,55,0,1,,,,,,,,,,,,,,,,,
298342,2022-12-05_20h02.17.941,vts_reward_expectancy_bt,2022.2.4,MacIntel,60.0024001,Chrome,1440,900,,,,,0,657,,,,,,,,,,,,,,,,,125,B,circle,1,0,,,,,,,,,,,,,,,,repeat,number,numRpt,d,0.7705,noRew,,,,,,0,56,0,56,0,1,,,,,,,,,,,,,,,,,
298342,2022-12-05_20h02.17.941,vts_reward_expectancy_bt,2022.2.4,MacIntel,60.0024001,Chrome,1440,900,,,,,0,657,,,,,,,,,,,,,,,,,167,F,star,1,0,,,,,,,,,,,,,,,,repeat,number,numRpt,f,0.974,noRew,,,,,,0,57,0,57,0,1,,,,,,,,,,,,,,,,,
298342,2022-12-05_20h02.17.941,vts_reward_expectancy_bt,2022.2.4,MacIntel,60.0024001,Chrome,1440,900,,,,,0,657,,,,,,,,,,,,,,,,,174,U,star,1,0,,,,,,,,,,,,,,,,switch,letter,lettSwt,k,1.1142,noRew,,,,,,0,58,0,58,0,1,,,,,,,,,,,,,,,,,
298342,2022-12-05_20h02.17.941,vts_reward_expectancy_bt,2022.2.4,MacIntel,60.0024001,Chrome,1440,900,,,,,0,657,,,,,,,,,,,,,,,,,132,H,circle,1,0,,,,,,,,,,,,,,,,repeat,letter,lettRpt,j,0.7008,noRew,,,,,,0,59,0,59,0,1,,,,,,,,,,,,,,,,,
298342,2022-12-05_20h02.17.941,vts_reward_expectancy_bt,2022.2.4,MacIntel,60.0024001,Chrome,1440,900,,,,,0,657,,,,,,,,,,,,,,,,,174,H,circle,1,0,,,,,,,,,,,,,,,,switch,number,numSwt,f,1.4151,noRew,,,,,,0,60,0,60,0,1,,,,,,,,,,,,,,,,,
298342,2022-12-05_20h02.17.941,vts_reward_expectancy_bt,2022.2.4,MacIntel,60.0024001,Chrome,1440,900,,,,,0,657,,,,,,,,,,,,,,,,,160,W,hexagon,1,0,,,,,,,,,,,,,,,,repeat,number,numRpt,f,1.0465,noRew,,,,,,0,61,0,61,0,1,,,,,,,,,,,,,,,,,
298342,2022-12-05_20h02.17.941,vts_reward_expectancy_bt,2022.2.4,MacIntel,60.0024001,Chrome,1440,900,,,,,0,657,,,,,,,,,,,,,,,,,181,D,circle,1,0,,,,,,,,,,,,,,,,switch,letter,lettSwt,j,0.9124,noRew,,,,,,0,62,0,62,0,1,,,,,,,,,,,,,,,,,
298342,2022-12-05_20h02.17.941,vts_reward_expectancy_bt,2022.2.4,MacIntel,60.0024001,Chrome,1440,900,,,,,0,657,,,,,,,,,,,,,,,,,139,B,triangle,1,0,,,,,,,,,,,,,,,,repeat,letter,lettRpt,j,0.8294,noRew,,,,,,0,63,0,63,0,1,,,,,,,,,,,,,,,,,
298342,2022-12-05_20h02.17.941,vts_reward_expectancy_bt,2022.2.4,MacIntel,60.0024001,Chrome,1440,900,,,,,,,,,,,,,,,,,,,,,,,,,,,,,,,,,,,,,,,,,,,,,,,,,,,,,,,,,,,,,,,,,,,,,,,,,,,,
298342,2022-12-05_20h02.17.941,vts_reward_expectancy_bt,2022.2.4,MacIntel,60.0024001,Chrome,1440,900,,,,,0,657,,,,,,,,,,,,,,,,,146,D,circle,1,0,,,,,,,,,,,,,,,,switch,number,numSwt,d,1.4177,Hi,,,,,,0,,,,,,space,14.8831,low,0,0,0,0,1,,,,,,,,,
298342,2022-12-05_20h02.17.941,vts_reward_expectancy_bt,2022.2.4,MacIntel,60.0024001,Chrome,1440,900,,,,,1,658,,,,,,,,,,,,,,,,,167,H,triangle,1,0,,,,,,,,,,,,,,,,switch,letter,lettSwt,j,0.5633,Hi,,,,,,0,,,,,,,,low,1,0,1,0,1,,,,,,,,,
298342,2022-12-05_20h02.17.941,vts_reward_expectancy_bt,2022.2.4,MacIntel,60.0024001,Chrome,1440,900,,,,,1,659,,,,,,,,,,,,,,,,,160,S,star,1,0,,,,,,,,,,,,,,,,repeat,letter,lettRpt,k,0.6997,Lo,,,,,,0,,,,,,,,low,2,0,2,0,1,,,,,,,,,
298342,2022-12-05_20h02.17.941,vts_reward_expectancy_bt,2022.2.4,MacIntel,60.0024001,Chrome,1440,900,,,,,1,660,,,,,,,,,,,,,,,,,132,U,hexagon,1,0,,,,,,,,,,,,,,,,switch,number,numSwt,d,0.4649,Lo,,,,,,0,,,,,,,,low,3,0,3,0,1,,,,,,,,,
298342,2022-12-05_20h02.17.941,vts_reward_expectancy_bt,2022.2.4,MacIntel,60.0024001,Chrome,1440,900,,,,,1,661,,,,,,,,,,,,,,,,,139,W,circle,1,0,,,,,,,,,,,,,,,,repeat,number,numRpt,d,0.5402,Hi,,,,,,0,,,,,,,,low,4,0,4,0,1,,,,,,,,,
298342,2022-12-05_20h02.17.941,vts_reward_expectancy_bt,2022.2.4,MacIntel,60.0024001,Chrome,1440,900,,,,,10,671,,,,,,,,,,,,,,,,,174,Y,triangle,1,0,,,,,,,,,,,,,,,,switch,letter,lettSwt,k,0.5627,Hi,,,,,,0,,,,,,,,low,5,0,5,0,1,,,,,,,,,
298342,2022-12-05_20h02.17.941,vts_reward_expectancy_bt,2022.2.4,MacIntel,60.0024001,Chrome,1440,900,,,,,10,681,,,,,,,,,,,,,,,,,181,F,star,1,0,,,,,,,,,,,,,,,,repeat,letter,lettRpt,j,0.9167,Lo,,,,,,0,,,,,,,,low,6,0,6,0,1,,,,,,,,,
298342,2022-12-05_20h02.17.941,vts_reward_expectancy_bt,2022.2.4,MacIntel,60.0024001,Chrome,1440,900,,,,,10,691,,,,,,,,,,,,,,,,,125,B,hexagon,1,0,,,,,,,,,,,,,,,,switch,number,numSwt,d,0.5988,Lo,,,,,,0,,,,,,,,low,7,0,7,0,1,,,,,,,,,
298342,2022-12-05_20h02.17.941,vts_reward_expectancy_bt,2022.2.4,MacIntel,60.0024001,Chrome,1440,900,,,,,1,692,,,,,,,,,,,,,,,,,146,D,triangle,1,0,,,,,,,,,,,,,,,,switch,letter,lettSwt,j,0.6344,Hi,,,,,,0,,,,,,,,low,8,0,8,0,1,,,,,,,,,
298342,2022-12-05_20h02.17.941,vts_reward_expectancy_bt,2022.2.4,MacIntel,60.0024001,Chrome,1440,900,,,,,10,702,,,,,,,,,,,,,,,,,167,H,hexagon,1,0,,,,,,,,,,,,,,,,repeat,letter,lettRpt,j,0.4705,Lo,,,,,,0,,,,,,,,low,9,0,9,0,1,,,,,,,,,
298342,2022-12-05_20h02.17.941,vts_reward_expectancy_bt,2022.2.4,MacIntel,60.0024001,Chrome,1440,900,,,,,1,703,,,,,,,,,,,,,,,,,160,S,star,1,0,,,,,,,,,,,,,,,,switch,number,numSwt,f,0.7988,Lo,,,,,,0,,,,,,,,low,10,0,10,0,1,,,,,,,,,
298342,2022-12-05_20h02.17.941,vts_reward_expectancy_bt,2022.2.4,MacIntel,60.0024001,Chrome,1440,900,,,,,10,713,,,,,,,,,,,,,,,,,132,U,circle,1,0,,,,,,,,,,,,,,,,repeat,number,numRpt,d,0.3977,Hi,,,,,,0,,,,,,,,low,11,0,11,0,1,,,,,,,,,
298342,2022-12-05_20h02.17.941,vts_reward_expectancy_bt,2022.2.4,MacIntel,60.0024001,Chrome,1440,900,,,,,10,723,,,,,,,,,,,,,,,,,139,W,triangle,1,0,,,,,,,,,,,,,,,,switch,letter,lettSwt,k,0.5163,Hi,,,,,,0,,,,,,,,low,12,0,12,0,1,,,,,,,,,
298342,2022-12-05_20h02.17.941,vts_reward_expectancy_bt,2022.2.4,MacIntel,60.0024001,Chrome,1440,900,,,,,1,724,,,,,,,,,,,,,,,,,174,Y,hexagon,1,0,,,,,,,,,,,,,,,,switch,number,numSwt,f,0.6806,Lo,,,,,,0,,,,,,,,low,13,0,13,0,1,,,,,,,,,
298342,2022-12-05_20h02.17.941,vts_reward_expectancy_bt,2022.2.4,MacIntel,60.0024001,Chrome,1440,900,,,,,1,725,,,,,,,,,,,,,,,,,181,F,star,1,0,,,,,,,,,,,,,,,,repeat,number,numRpt,f,0.7606,Lo,,,,,,0,,,,,,,,low,14,0,14,0,1,,,,,,,,,
298342,2022-12-05_20h02.17.941,vts_reward_expectancy_bt,2022.2.4,MacIntel,60.0024001,Chrome,1440,900,,,,,1,726,,,,,,,,,,,,,,,,,125,B,circle,1,0,,,,,,,,,,,,,,,,switch,letter,lettSwt,j,0.5458,Hi,,,,,,0,,,,,,,,low,15,0,15,0,1,,,,,,,,,
298342,2022-12-05_20h02.17.941,vts_reward_expectancy_bt,2022.2.4,MacIntel,60.0024001,Chrome,1440,900,,,,,10,736,,,,,,,,,,,,,,,,,146,H,triangle,1,0,,,,,,,,,,,,,,,,repeat,letter,lettRpt,j,0.5629,Hi,,,,,,0,,,,,,,,low,16,0,16,0,1,,,,,,,,,
298342,2022-12-05_20h02.17.941,vts_reward_expectancy_bt,2022.2.4,MacIntel,60.0024001,Chrome,1440,900,,,,,10,746,,,,,,,,,,,,,,,,,139,D,hexagon,1,0,,,,,,,,,,,,,,,,repeat,letter,lettRpt,j,0.5972,Lo,,,,,,0,,,,,,,,low,17,0,17,0,1,,,,,,,,,
298342,2022-12-05_20h02.17.941,vts_reward_expectancy_bt,2022.2.4,MacIntel,60.0024001,Chrome,1440,900,,,,,10,756,,,,,,,,,,,,,,,,,181,F,circle,1,0,,,,,,,,,,,,,,,,switch,number,numSwt,f,0.6004,Hi,,,,,,0,,,,,,,,low,18,0,18,0,1,,,,,,,,,
298342,2022-12-05_20h02.17.941,vts_reward_expectancy_bt,2022.2.4,MacIntel,60.0024001,Chrome,1440,900,,,,,1,757,,,,,,,,,,,,,,,,,174,Y,star,1,0,,,,,,,,,,,,,,,,switch,letter,lettSwt,k,0.5864,Lo,,,,,,0,,,,,,,,low,19,0,19,0,1,,,,,,,,,
298342,2022-12-05_20h02.17.941,vts_reward_expectancy_bt,2022.2.4,MacIntel,60.0024001,Chrome,1440,900,,,,,10,767,,,,,,,,,,,,,,,,,160,W,triangle,1,0,,,,,,,,,,,,,,,,repeat,letter,lettRpt,k,0.6145,Hi,,,,,,0,,,,,,,,low,20,0,20,0,1,,,,,,,,,
298342,2022-12-05_20h02.17.941,vts_reward_expectancy_bt,2022.2.4,MacIntel,60.0024001,Chrome,1440,900,,,,,10,777,,,,,,,,,,,,,,,,,167,B,circle,1,0,,,,,,,,,,,,,,,,switch,number,numSwt,f,0.6147,Hi,,,,,,0,,,,,,,,low,21,0,21,0,1,,,,,,,,,
298342,2022-12-05_20h02.17.941,vts_reward_expectancy_bt,2022.2.4,MacIntel,60.0024001,Chrome,1440,900,,,,,10,787,,,,,,,,,,,,,,,,,132,U,star,1,0,,,,,,,,,,,,,,,,repeat,number,numRpt,d,0.6533,Lo,,,,,,0,,,,,,,,low,22,0,22,0,1,,,,,,,,,
298342,2022-12-05_20h02.17.941,vts_reward_expectancy_bt,2022.2.4,MacIntel,60.0024001,Chrome,1440,900,,,,,10,797,,,,,,,,,,,,,,,,,125,S,hexagon,1,0,,,,,,,,,,,,,,,,switch,letter,lettSwt,k,0.8069,Lo,,,,,,0,,,,,,,,low,23,0,23,0,1,,,,,,,,,
298342,2022-12-05_20h02.17.941,vts_reward_expectancy_bt,2022.2.4,MacIntel,60.0024001,Chrome,1440,900,,,,,1,798,,,,,,,,,,,,,,,,,181,Y,circle,1,0,,,,,,,,,,,,,,,,switch,number,numSwt,f,0.5499,Hi,,,,,,0,,,,,,,,low,24,0,24,0,1,,,,,,,,,
298342,2022-12-05_20h02.17.941,vts_reward_expectancy_bt,2022.2.4,MacIntel,60.0024001,Chrome,1440,900,,,,,10,808,,,,,,,,,,,,,,,,,160,H,triangle,1,0,,,,,,,,,,,,,,,,switch,letter,lettSwt,j,0.5305,Hi,,,,,,0,,,,,,,,low,25,0,25,0,1,,,,,,,,,
298342,2022-12-05_20h02.17.941,vts_reward_expectancy_bt,2022.2.4,MacIntel,60.0024001,Chrome,1440,900,,,,,10,818,,,,,,,,,,,,,,,,,174,U,star,1,0,,,,,,,,,,,,,,,,switch,number,numSwt,f,0.5337,Lo,,,,,,0,,,,,,,,low,26,0,26,0,1,,,,,,,,,
298342,2022-12-05_20h02.17.941,vts_reward_expectancy_bt,2022.2.4,MacIntel,60.0024001,Chrome,1440,900,,,,,10,828,,,,,,,,,,,,,,,,,139,F,hexagon,1,0,,,,,,,,,,,,,,,,switch,letter,lettSwt,j,0.6844,Lo,,,,,,0,,,,,,,,low,27,0,27,0,1,,,,,,,,,
298342,2022-12-05_20h02.17.941,vts_reward_expectancy_bt,2022.2.4,MacIntel,60.0024001,Chrome,1440,900,,,,,1,829,,,,,,,,,,,,,,,,,146,S,triangle,1,0,,,,,,,,,,,,,,,,repeat,letter,lettRpt,k,0.5841,Hi,,,,,,0,,,,,,,,low,28,0,28,0,1,,,,,,,,,
298342,2022-12-05_20h02.17.941,vts_reward_expectancy_bt,2022.2.4,MacIntel,60.0024001,Chrome,1440,900,,,,,0,829,,,,,,,,,,,,,,,,,167,W,circle,1,0,,,,,,,,,,,,,,,,switch,number,numSwt,f,0.7656,Hi,,,,,,0,,,,,,,,low,29,0,29,0,1,,,,,,,,,
298342,2022-12-05_20h02.17.941,vts_reward_expectancy_bt,2022.2.4,MacIntel,60.0024001,Chrome,1440,900,,,,,1,830,,,,,,,,,,,,,,,,,132,D,hexagon,1,0,,,,,,,,,,,,,,,,switch,letter,lettSwt,j,0.4633,Lo,,,,,,0,,,,,,,,low,30,0,30,0,1,,,,,,,,,
298342,2022-12-05_20h02.17.941,vts_reward_expectancy_bt,2022.2.4,MacIntel,60.0024001,Chrome,1440,900,,,,,1,831,,,,,,,,,,,,,,,,,125,B,star,1,0,,,,,,,,,,,,,,,,switch,number,numSwt,d,0.5345,Lo,,,,,,0,,,,,,,,low,31,0,31,0,1,,,,,,,,,
298342,2022-12-05_20h02.17.941,vts_reward_expectancy_bt,2022.2.4,MacIntel,60.0024001,Chrome,1440,900,,,,,1,832,,,,,,,,,,,,,,,,,146,F,star,1,0,,,,,,,,,,,,,,,,repeat,number,numRpt,d,0.5849,Lo,,,,,,1,,,,,,space,7.9455,low,0,0,0,0,1,,,,,,,,,
298342,2022-12-05_20h02.17.941,vts_reward_expectancy_bt,2022.2.4,MacIntel,60.0024001,Chrome,1440,900,,,,,1,833,,,,,,,,,,,,,,,,,181,B,triangle,1,0,,,,,,,,,,,,,,,,switch,letter,lettSwt,j,0.4881,Hi,,,,,,1,,,,,,,,low,1,0,1,0,1,,,,,,,,,
298342,2022-12-05_20h02.17.941,vts_reward_expectancy_bt,2022.2.4,MacIntel,60.0024001,Chrome,1440,900,,,,,0,833,,,,,,,,,,,,,,,,,174,D,circle,1,0,,,,,,,,,,,,,,,,repeat,letter,lettRpt,j,0.6468,Hi,,,,,,1,,,,,,,,low,2,0,2,0,1,,,,,,,,,
298342,2022-12-05_20h02.17.941,vts_reward_expectancy_bt,2022.2.4,MacIntel,60.0024001,Chrome,1440,900,,,,,1,834,,,,,,,,,,,,,,,,,160,H,hexagon,1,0,,,,,,,,,,,,,,,,switch,number,numSwt,f,0.5155,Lo,,,,,,1,,,,,,,,low,3,0,3,0,1,,,,,,,,,
298342,2022-12-05_20h02.17.941,vts_reward_expectancy_bt,2022.2.4,MacIntel,60.0024001,Chrome,1440,900,,,,,1,835,,,,,,,,,,,,,,,,,167,S,star,1,0,,,,,,,,,,,,,,,,switch,letter,lettSwt,k,0.6462,Lo,,,,,,1,,,,,,,,low,4,0,4,0,1,,,,,,,,,
298342,2022-12-05_20h02.17.941,vts_reward_expectancy_bt,2022.2.4,MacIntel,60.0024001,Chrome,1440,900,,,,,0,835,,,,,,,,,,,,,,,,,132,U,triangle,1,0,,,,,,,,,,,,,,,,switch,number,numSwt,d,0.7465,Hi,,,,,,1,,,,,,,,low,5,0,5,0,1,,,,,,,,,
298342,2022-12-05_20h02.17.941,vts_reward_expectancy_bt,2022.2.4,MacIntel,60.0024001,Chrome,1440,900,,,,,0,835,,,,,,,,,,,,,,,,,125,Y,circle,1,0,,,,,,,,,,,,,,,,switch,letter,lettSwt,k,0.5662,Hi,,,,,,1,,,,,,,,low,6,0,6,0,1,,,,,,,,,
298342,2022-12-05_20h02.17.941,vts_reward_expectancy_bt,2022.2.4,MacIntel,60.0024001,Chrome,1440,900,,,,,10,845,,,,,,,,,,,,,,,,,139,W,hexagon,1,0,,,,,,,,,,,,,,,,switch,number,numSwt,d,0.5651,Lo,,,,,,1,,,,,,,,low,7,0,7,0,1,,,,,,,,,
298342,2022-12-05_20h02.17.941,vts_reward_expectancy_bt,2022.2.4,MacIntel,60.0024001,Chrome,1440,900,,,,,1,846,,,,,,,,,,,,,,,,,146,F,circle,1,0,,,,,,,,,,,,,,,,switch,letter,lettSwt,j,0.5387,Hi,,,,,,1,,,,,,,,low,8,0,8,0,1,,,,,,,,,
298342,2022-12-05_20h02.17.941,vts_reward_expectancy_bt,2022.2.4,MacIntel,60.0024001,Chrome,1440,900,,,,,10,856,,,,,,,,,,,,,,,,,181,B,hexagon,1,0,,,,,,,,,,,,,,,,switch,number,numSwt,f,0.4733,Lo,,,,,,1,,,,,,,,low,9,0,9,0,1,,,,,,,,,
298342,2022-12-05_20h02.17.941,vts_reward_expectancy_bt,2022.2.4,MacIntel,60.0024001,Chrome,1440,900,,,,,1,857,,,,,,,,,,,,,,,,,174,D,star,1,0,,,,,,,,,,,,,,,,repeat,number,numRpt,f,0.5203,Lo,,,,,,1,,,,,,,,low,10,0,10,0,1,,,,,,,,,
298342,2022-12-05_20h02.17.941,vts_reward_expectancy_bt,2022.2.4,MacIntel,60.0024001,Chrome,1440,900,,,,,1,858,,,,,,,,,,,,,,,,,160,H,triangle,1,0,,,,,,,,,,,,,,,,repeat,number,numRpt,f,0.5131,Hi,,,,,,1,,,,,,,,low,11,0,11,0,1,,,,,,,,,
298342,2022-12-05_20h02.17.941,vts_reward_expectancy_bt,2022.2.4,MacIntel,60.0024001,Chrome,1440,900,,,,,0,858,,,,,,,,,,,,,,,,,167,S,star,0,0,,,,,,,,,,,,,,,,switch,letter,NA,j,0.4794,Hi,,,,,,1,,,,,,,,low,12,0,12,0,1,,,,,,,,,
298342,2022-12-05_20h02.17.941,vts_reward_expectancy_bt,2022.2.4,MacIntel,60.0024001,Chrome,1440,900,,,,,10,868,,,,,,,,,,,,,,,,,132,U,hexagon,1,1,,,,,,,,,,,,,,,,switch,number,numSwt,d,0.446,Lo,,,,,,1,,,,,,,,low,13,0,13,0,1,,,,,,,,,
298342,2022-12-05_20h02.17.941,vts_reward_expectancy_bt,2022.2.4,MacIntel,60.0024001,Chrome,1440,900,,,,,0,868,,,,,,,,,,,,,,,,,125,Y,triangle,1,0,,,,,,,,,,,,,,,,switch,letter,lettSwt,k,0.6519,Hi,,,,,,1,,,,,,,,low,14,0,14,0,1,,,,,,,,,
298342,2022-12-05_20h02.17.941,vts_reward_expectancy_bt,2022.2.4,MacIntel,60.0024001,Chrome,1440,900,,,,,0,868,,,,,,,,,,,,,,,,,139,W,circle,1,0,,,,,,,,,,,,,,,,switch,number,numSwt,d,0.6201,Hi,,,,,,1,,,,,,,,low,15,0,15,0,1,,,,,,,,,
298342,2022-12-05_20h02.17.941,vts_reward_expectancy_bt,2022.2.4,MacIntel,60.0024001,Chrome,1440,900,,,,,10,878,,,,,,,,,,,,,,,,,181,F,star,1,0,,,,,,,,,,,,,,,,switch,letter,lettSwt,j,0.5792,Lo,,,,,,1,,,,,,,,low,16,0,16,0,1,,,,,,,,,
298342,2022-12-05_20h02.17.941,vts_reward_expectancy_bt,2022.2.4,MacIntel,60.0024001,Chrome,1440,900,,,,,1,879,,,,,,,,,,,,,,,,,167,B,hexagon,1,0,,,,,,,,,,,,,,,,switch,number,numSwt,f,0.4317,Lo,,,,,,1,,,,,,,,low,17,0,17,0,1,,,,,,,,,
298342,2022-12-05_20h02.17.941,vts_reward_expectancy_bt,2022.2.4,MacIntel,60.0024001,Chrome,1440,900,,,,,0,879,,,,,,,,,,,,,,,,,125,U,triangle,0,0,,,,,,,,,,,,,,,,switch,letter,NA,j,0.447,Lo,,,,,,1,,,,,,,,low,18,0,18,0,1,,,,,,,,,
298342,2022-12-05_20h02.17.941,vts_reward_expectancy_bt,2022.2.4,MacIntel,60.0024001,Chrome,1440,900,,,,,1,880,,,,,,,,,,,,,,,,,160,W,circle,1,1,,,,,,,,,,,,,,,,repeat,letter,lettRpt,k,0.5116,Hi,,,,,,1,,,,,,,,low,19,0,19,0,1,,,,,,,,,
298342,2022-12-05_20h02.17.941,vts_reward_expectancy_bt,2022.2.4,MacIntel,60.0024001,Chrome,1440,900,,,,,1,881,,,,,,,,,,,,,,,,,174,Y,hexagon,1,0,,,,,,,,,,,,,,,,switch,number,numSwt,f,0.464,Lo,,,,,,1,,,,,,,,low,20,0,20,0,1,,,,,,,,,
298342,2022-12-05_20h02.17.941,vts_reward_expectancy_bt,2022.2.4,MacIntel,60.0024001,Chrome,1440,900,,,,,10,891,,,,,,,,,,,,,,,,,146,D,star,1,0,,,,,,,,,,,,,,,,repeat,number,numRpt,d,0.4961,Lo,,,,,,1,,,,,,,,low,21,0,21,0,1,,,,,,,,,
298342,2022-12-05_20h02.17.941,vts_reward_expectancy_bt,2022.2.4,MacIntel,60.0024001,Chrome,1440,900,,,,,0,891,,,,,,,,,,,,,,,,,132,H,triangle,1,0,,,,,,,,,,,,,,,,repeat,number,numRpt,d,0.6122,Hi,,,,,,1,,,,,,,,low,22,0,22,0,1,,,,,,,,,
298342,2022-12-05_20h02.17.941,vts_reward_expectancy_bt,2022.2.4,MacIntel,60.0024001,Chrome,1440,900,,,,,10,901,,,,,,,,,,,,,,,,,139,S,circle,1,0,,,,,,,,,,,,,,,,repeat,number,numRpt,d,0.4652,Hi,,,,,,1,,,,,,,,low,23,0,23,0,1,,,,,,,,,
298342,2022-12-05_20h02.17.941,vts_reward_expectancy_bt,2022.2.4,MacIntel,60.0024001,Chrome,1440,900,,,,,10,911,,,,,,,,,,,,,,,,,160,H,star,1,0,,,,,,,,,,,,,,,,switch,letter,lettSwt,j,0.5685,Lo,,,,,,1,,,,,,,,low,24,0,24,0,1,,,,,,,,,
298342,2022-12-05_20h02.17.941,vts_reward_expectancy_bt,2022.2.4,MacIntel,60.0024001,Chrome,1440,900,,,,,10,921,,,,,,,,,,,,,,,,,181,Y,circle,1,0,,,,,,,,,,,,,,,,switch,number,numSwt,f,0.5001,Hi,,,,,,1,,,,,,,,low,25,0,25,0,1,,,,,,,,,
298342,2022-12-05_20h02.17.941,vts_reward_expectancy_bt,2022.2.4,MacIntel,60.0024001,Chrome,1440,900,,,,,10,931,,,,,,,,,,,,,,,,,125,B,triangle,1,0,,,,,,,,,,,,,,,,switch,letter,lettSwt,j,0.3854,Hi,,,,,,1,,,,,,,,low,26,0,26,0,1,,,,,,,,,
298342,2022-12-05_20h02.17.941,vts_reward_expectancy_bt,2022.2.4,MacIntel,60.0024001,Chrome,1440,900,,,,,10,941,,,,,,,,,,,,,,,,,132,U,hexagon,1,0,,,,,,,,,,,,,,,,repeat,letter,lettRpt,k,0.6795,Lo,,,,,,1,,,,,,,,low,27,0,27,0,1,,,,,,,,,
298342,2022-12-05_20h02.17.941,vts_reward_expectancy_bt,2022.2.4,MacIntel,60.0024001,Chrome,1440,900,,,,,10,951,,,,,,,,,,,,,,,,,167,W,triangle,1,0,,,,,,,,,,,,,,,,repeat,letter,lettRpt,k,0.5134,Hi,,,,,,1,,,,,,,,low,28,0,28,0,1,,,,,,,,,
298342,2022-12-05_20h02.17.941,vts_reward_expectancy_bt,2022.2.4,MacIntel,60.0024001,Chrome,1440,900,,,,,10,961,,,,,,,,,,,,,,,,,174,S,star,1,0,,,,,,,,,,,,,,,,switch,number,numSwt,f,0.4791,Lo,,,,,,1,,,,,,,,low,29,0,29,0,1,,,,,,,,,
298342,2022-12-05_20h02.17.941,vts_reward_expectancy_bt,2022.2.4,MacIntel,60.0024001,Chrome,1440,900,,,,,1,962,,,,,,,,,,,,,,,,,139,F,circle,1,0,,,,,,,,,,,,,,,,repeat,number,numRpt,d,0.4478,Hi,,,,,,1,,,,,,,,low,30,0,30,0,1,,,,,,,,,
298342,2022-12-05_20h02.17.941,vts_reward_expectancy_bt,2022.2.4,MacIntel,60.0024001,Chrome,1440,900,,,,,10,972,,,,,,,,,,,,,,,,,146,D,hexagon,1,0,,,,,,,,,,,,,,,,switch,letter,lettSwt,j,0.4492,Lo,,,,,,1,,,,,,,,low,31,0,31,0,1,,,,,,,,,
298342,2022-12-05_20h02.17.941,vts_reward_expectancy_bt,2022.2.4,MacIntel,60.0024001,Chrome,1440,900,,,,,1,973,,,,,,,,,,,,,,,,,174,H,star,1,0,,,,,,,,,,,,,,,,switch,number,numSwt,f,0.7192,Lo,,,,,,2,,,,,,space,2.5364,low,0,0,0,0,1,,,,,,,,,
298342,2022-12-05_20h02.17.941,vts_reward_expectancy_bt,2022.2.4,MacIntel,60.0024001,Chrome,1440,900,,,,,10,983,,,,,,,,,,,,,,,,,139,U,circle,1,0,,,,,,,,,,,,,,,,repeat,number,numRpt,d,0.3556,Hi,,,,,,2,,,,,,,,low,1,0,1,0,1,,,,,,,,,
298342,2022-12-05_20h02.17.941,vts_reward_expectancy_bt,2022.2.4,MacIntel,60.0024001,Chrome,1440,900,,,,,0,983,,,,,,,,,,,,,,,,,146,D,triangle,1,0,,,,,,,,,,,,,,,,switch,letter,lettSwt,j,0.6143,Hi,,,,,,2,,,,,,,,low,2,0,2,0,1,,,,,,,,,
298342,2022-12-05_20h02.17.941,vts_reward_expectancy_bt,2022.2.4,MacIntel,60.0024001,Chrome,1440,900,,,,,1,984,,,,,,,,,,,,,,,,,132,S,hexagon,1,0,,,,,,,,,,,,,,,,repeat,letter,lettRpt,k,0.765,Lo,,,,,,2,,,,,,,,low,3,0,3,0,1,,,,,,,,,
298342,2022-12-05_20h02.17.941,vts_reward_expectancy_bt,2022.2.4,MacIntel,60.0024001,Chrome,1440,900,,,,,10,994,,,,,,,,,,,,,,,,,125,B,star,1,0,,,,,,,,,,,,,,,,switch,number,numSwt,d,0.4233,Lo,,,,,,2,,,,,,,,low,4,0,4,0,1,,,,,,,,,
298342,2022-12-05_20h02.17.941,vts_reward_expectancy_bt,2022.2.4,MacIntel,60.0024001,Chrome,1440,900,,,,,0,994,,,,,,,,,,,,,,,,,167,F,circle,1,0,,,,,,,,,,,,,,,,repeat,number,numRpt,f,0.5642,Hi,,,,,,2,,,,,,,,low,5,0,5,0,1,,,,,,,,,
298342,2022-12-05_20h02.17.941,vts_reward_expectancy_bt,2022.2.4,MacIntel,60.0024001,Chrome,1440,900,,,,,0,994,,,,,,,,,,,,,,,,,181,W,triangle,1,0,,,,,,,,,,,,,,,,switch,letter,lettSwt,k,0.547,Hi,,,,,,2,,,,,,,,low,6,0,6,0,1,,,,,,,,,
298342,2022-12-05_20h02.17.941,vts_reward_expectancy_bt,2022.2.4,MacIntel,60.0024001,Chrome,1440,900,,,,,1,995,,,,,,,,,,,,,,,,,160,Y,hexagon,1,0,,,,,,,,,,,,,,,,repeat,letter,lettRpt,k,0.5298,Lo,,,,,,2,,,,,,,,low,7,0,7,0,1,,,,,,,,,
298342,2022-12-05_20h02.17.941,vts_reward_expectancy_bt,2022.2.4,MacIntel,60.0024001,Chrome,1440,900,,,,,1,996,,,,,,,,,,,,,,,,,174,H,triangle,1,0,,,,,,,,,,,,,,,,repeat,letter,lettRpt,j,0.4884,Hi,,,,,,2,,,,,,,,low,8,0,8,0,1,,,,,,,,,
298342,2022-12-05_20h02.17.941,vts_reward_expectancy_bt,2022.2.4,MacIntel,60.0024001,Chrome,1440,900,,,,,0,996,,,,,,,,,,,,,,,,,139,U,circle,0,0,,,,,,,,,,,,,,,,repeat,letter,NA,j,0.4312,Hi,,,,,,2,,,,,,,,low,9,0,9,0,1,,,,,,,,,
298342,2022-12-05_20h02.17.941,vts_reward_expectancy_bt,2022.2.4,MacIntel,60.0024001,Chrome,1440,900,,,,,10,1006,,,,,,,,,,,,,,,,,146,D,hexagon,1,1,,,,,,,,,,,,,,,,switch,number,numSwt,d,0.5053,Lo,,,,,,2,,,,,,,,low,10,0,10,0,1,,,,,,,,,
298342,2022-12-05_20h02.17.941,vts_reward_expectancy_bt,2022.2.4,MacIntel,60.0024001,Chrome,1440,900,,,,,10,1016,,,,,,,,,,,,,,,,,132,S,star,1,0,,,,,,,,,,,,,,,,repeat,number,numRpt,d,0.3965,Lo,,,,,,2,,,,,,,,low,11,0,11,0,1,,,,,,,,,
298342,2022-12-05_20h02.17.941,vts_reward_expectancy_bt,2022.2.4,MacIntel,60.0024001,Chrome,1440,900,,,,,1,1017,,,,,,,,,,,,,,,,,125,B,hexagon,1,0,,,,,,,,,,,,,,,,repeat,number,numRpt,d,0.4332,Lo,,,,,,2,,,,,,,,low,12,0,12,0,1,,,,,,,,,
298342,2022-12-05_20h02.17.941,vts_reward_expectancy_bt,2022.2.4,MacIntel,60.0024001,Chrome,1440,900,,,,,1,1018,,,,,,,,,,,,,,,,,167,F,star,1,0,,,,,,,,,,,,,,,,repeat,number,numRpt,f,0.4909,Lo,,,,,,2,,,,,,,,low,13,0,13,0,1,,,,,,,,,
298342,2022-12-05_20h02.17.941,vts_reward_expectancy_bt,2022.2.4,MacIntel,60.0024001,Chrome,1440,900,,,,,0,1018,,,,,,,,,,,,,,,,,181,W,triangle,1,0,,,,,,,,,,,,,,,,switch,letter,lettSwt,k,0.5302,Hi,,,,,,2,,,,,,,,low,14,0,14,0,1,,,,,,,,,
298342,2022-12-05_20h02.17.941,vts_reward_expectancy_bt,2022.2.4,MacIntel,60.0024001,Chrome,1440,900,,,,,0,1018,,,,,,,,,,,,,,,,,160,Y,circle,1,0,,,,,,,,,,,,,,,,repeat,letter,lettRpt,k,0.7133,Hi,,,,,,2,,,,,,,,low,15,0,15,0,1,,,,,,,,,
298342,2022-12-05_20h02.17.941,vts_reward_expectancy_bt,2022.2.4,MacIntel,60.0024001,Chrome,1440,900,,,,,0,1018,,,,,,,,,,,,,,,,,167,U,star,0,0,,,,,,,,,,,,,,,,switch,number,NA,d,0.3134,Hi,,,,,,2,,,,,,,,low,16,0,16,0,1,,,,,,,,,
298342,2022-12-05_20h02.17.941,vts_reward_expectancy_bt,2022.2.4,MacIntel,60.0024001,Chrome,1440,900,,,,,0,1018,,,,,,,,,,,,,,,,,160,S,circle,0,1,,,,,,,,,,,,,,,,repeat,number,NA,d,0.3316,Hi,,,,,,2,,,,,,,,low,17,0,17,0,1,,,,,,,,,
298342,2022-12-05_20h02.17.941,vts_reward_expectancy_bt,2022.2.4,MacIntel,60.0024001,Chrome,1440,900,,,,,10,1028,,,,,,,,,,,,,,,,,139,F,hexagon,1,1,,,,,,,,,,,,,,,,repeat,number,numRpt,d,0.4312,Lo,,,,,,2,,,,,,,,low,18,0,18,0,1,,,,,,,,,
298342,2022-12-05_20h02.17.941,vts_reward_expectancy_bt,2022.2.4,MacIntel,60.0024001,Chrome,1440,900,,,,,0,1028,,,,,,,,,,,,,,,,,125,Y,triangle,0,0,,,,,,,,,,,,,,,,switch,letter,NA,j,0.4459,Lo,,,,,,2,,,,,,,,low,19,0,19,0,1,,,,,,,,,
298342,2022-12-05_20h02.17.941,vts_reward_expectancy_bt,2022.2.4,MacIntel,60.0024001,Chrome,1440,900,,,,,0,1028,,,,,,,,,,,,,,,,,132,D,circle,1,1,,,,,,,,,,,,,,,,switch,number,numSwt,d,0.4978,Hi,,,,,,2,,,,,,,,low,20,0,20,0,1,,,,,,,,,
298342,2022-12-05_20h02.17.941,vts_reward_expectancy_bt,2022.2.4,MacIntel,60.0024001,Chrome,1440,900,,,,,1,1029,,,,,,,,,,,,,,,,,181,W,hexagon,1,0,,,,,,,,,,,,,,,,switch,letter,lettSwt,k,0.516,Lo,,,,,,2,,,,,,,,low,21,0,21,0,1,,,,,,,,,
298342,2022-12-05_20h02.17.941,vts_reward_expectancy_bt,2022.2.4,MacIntel,60.0024001,Chrome,1440,900,,,,,1,1030,,,,,,,,,,,,,,,,,174,B,star,1,0,,,,,,,,,,,,,,,,switch,number,numSwt,f,0.4339,Lo,,,,,,2,,,,,,,,low,22,0,22,0,1,,,,,,,,,
298342,2022-12-05_20h02.17.941,vts_reward_expectancy_bt,2022.2.4,MacIntel,60.0024001,Chrome,1440,900,,,,,10,1040,,,,,,,,,,,,,,,,,146,H,triangle,1,0,,,,,,,,,,,,,,,,repeat,number,numRpt,d,0.3871,Hi,,,,,,2,,,,,,,,low,23,0,23,0,1,,,,,,,,,
298342,2022-12-05_20h02.17.941,vts_reward_expectancy_bt,2022.2.4,MacIntel,60.0024001,Chrome,1440,900,,,,,1,1041,,,,,,,,,,,,,,,,,139,H,hexagon,1,0,,,,,,,,,,,,,,,,switch,letter,lettSwt,j,0.699,Lo,,,,,,2,,,,,,,,low,24,0,24,0,1,,,,,,,,,
298342,2022-12-05_20h02.17.941,vts_reward_expectancy_bt,2022.2.4,MacIntel,60.0024001,Chrome,1440,900,,,,,10,1051,,,,,,,,,,,,,,,,,125,Y,triangle,1,0,,,,,,,,,,,,,,,,switch,number,numSwt,d,0.4539,Hi,,,,,,2,,,,,,,,low,25,0,25,0,1,,,,,,,,,
298342,2022-12-05_20h02.17.941,vts_reward_expectancy_bt,2022.2.4,MacIntel,60.0024001,Chrome,1440,900,,,,,10,1061,,,,,,,,,,,,,,,,,181,F,star,1,0,,,,,,,,,,,,,,,,switch,letter,lettSwt,j,0.6712,Lo,,,,,,2,,,,,,,,low,26,0,26,0,1,,,,,,,,,
298342,2022-12-05_20h02.17.941,vts_reward_expectancy_bt,2022.2.4,MacIntel,60.0024001,Chrome,1440,900,,,,,0,1061,,,,,,,,,,,,,,,,,146,S,circle,1,0,,,,,,,,,,,,,,,,repeat,letter,lettRpt,k,0.6341,Hi,,,,,,2,,,,,,,,low,27,0,27,0,1,,,,,,,,,
298342,2022-12-05_20h02.17.941,vts_reward_expectancy_bt,2022.2.4,MacIntel,60.0024001,Chrome,1440,900,,,,,0,1061,,,,,,,,,,,,,,,,,174,D,triangle,1,0,,,,,,,,,,,,,,,,switch,number,numSwt,f,0.4812,Hi,,,,,,2,,,,,,,,low,28,0,28,0,1,,,,,,,,,
298342,2022-12-05_20h02.17.941,vts_reward_expectancy_bt,2022.2.4,MacIntel,60.0024001,Chrome,1440,900,,,,,10,1071,,,,,,,,,,,,,,,,,160,U,circle,1,0,,,,,,,,,,,,,,,,switch,letter,lettSwt,k,0.4646,Hi,,,,,,2,,,,,,,,low,29,0,29,0,1,,,,,,,,,
298342,2022-12-05_20h02.17.941,vts_reward_expectancy_bt,2022.2.4,MacIntel,60.0024001,Chrome,1440,900,,,,,1,1072,,,,,,,,,,,,,,,,,167,B,star,1,0,,,,,,,,,,,,,,,,switch,number,numSwt,f,0.3802,Lo,,,,,,2,,,,,,,,low,30,0,30,0,1,,,,,,,,,
298342,2022-12-05_20h02.17.941,vts_reward_expectancy_bt,2022.2.4,MacIntel,60.0024001,Chrome,1440,900,,,,,1,1073,,,,,,,,,,,,,,,,,132,W,hexagon,1,0,,,,,,,,,,,,,,,,repeat,number,numRpt,d,0.3799,Lo,,,,,,2,,,,,,,,low,31,0,31,0,1,,,,,,,,,
298342,2022-12-05_20h02.17.941,vts_reward_expectancy_bt,2022.2.4,MacIntel,60.0024001,Chrome,1440,900,,,,,0,1073,,,,,,,,,,,,,,,,,139,H,circle,1,0,,,,,,,,,,,,,,,,switch,letter,lettSwt,j,0.6193,Hi,,,,,,3,,,,,,space,1.9732,low,0,0,0,0,1,,,,,,,,,
298342,2022-12-05_20h02.17.941,vts_reward_expectancy_bt,2022.2.4,MacIntel,60.0024001,Chrome,1440,900,,,,,1,1074,,,,,,,,,,,,,,,,,146,S,star,1,0,,,,,,,,,,,,,,,,switch,number,numSwt,d,0.3383,Lo,,,,,,3,,,,,,,,low,1,0,1,0,1,,,,,,,,,
298342,2022-12-05_20h02.17.941,vts_reward_expectancy_bt,2022.2.4,MacIntel,60.0024001,Chrome,1440,900,,,,,10,1084,,,,,,,,,,,,,,,,,181,D,hexagon,1,0,,,,,,,,,,,,,,,,repeat,number,numRpt,f,0.3649,Lo,,,,,,3,,,,,,,,low,2,0,2,0,1,,,,,,,,,
298342,2022-12-05_20h02.17.941,vts_reward_expectancy_bt,2022.2.4,MacIntel,60.0024001,Chrome,1440,900,,,,,1,1085,,,,,,,,,,,,,,,,,132,U,triangle,1,0,,,,,,,,,,,,,,,,switch,letter,lettSwt,k,0.4641,Hi,,,,,,3,,,,,,,,low,3,0,3,0,1,,,,,,,,,
298342,2022-12-05_20h02.17.941,vts_reward_expectancy_bt,2022.2.4,MacIntel,60.0024001,Chrome,1440,900,,,,,0,1085,,,,,,,,,,,,,,,,,160,Y,circle,0,0,,,,,,,,,,,,,,,,repeat,letter,NA,j,0.3369,Hi,,,,,,3,,,,,,,,low,4,0,4,0,1,,,,,,,,,
298342,2022-12-05_20h02.17.941,vts_reward_expectancy_bt,2022.2.4,MacIntel,60.0024001,Chrome,1440,900,,,,,1,1086,,,,,,,,,,,,,,,,,167,F,star,1,1,,,,,,,,,,,,,,,,repeat,letter,lettRpt,j,0.5645,Lo,,,,,,3,,,,,,,,low,5,0,5,0,1,,,,,,,,,
298342,2022-12-05_20h02.17.941,vts_reward_expectancy_bt,2022.2.4,MacIntel,60.0024001,Chrome,1440,900,,,,,1,1087,,,,,,,,,,,,,,,,,174,W,hexagon,1,0,,,,,,,,,,,,,,,,switch,number,numSwt,f,0.4825,Lo,,,,,,3,,,,,,,,low,6,0,6,0,1,,,,,,,,,
298342,2022-12-05_20h02.17.941,vts_reward_expectancy_bt,2022.2.4,MacIntel,60.0024001,Chrome,1440,900,,,,,10,1097,,,,,,,,,,,,,,,,,125,B,triangle,1,0,,,,,,,,,,,,,,,,switch,letter,lettSwt,j,0.4485,Hi,,,,,,3,,,,,,,,low,7,0,7,0,1,,,,,,,,,
298342,2022-12-05_20h02.17.941,vts_reward_expectancy_bt,2022.2.4,MacIntel,60.0024001,Chrome,1440,900,,,,,0,1097,,,,,,,,,,,,,,,,,139,H,hexagon,0,0,,,,,,,,,,,,,,,,switch,number,NA,f,0.2883,Hi,,,,,,3,,,,,,,,low,8,0,8,0,1,,,,,,,,,
298342,2022-12-05_20h02.17.941,vts_reward_expectancy_bt,2022.2.4,MacIntel,60.0024001,Chrome,1440,900,,,,,0,1097,,,,,,,,,,,,,,,,,146,S,circle,0,1,,,,,,,,,,,,,,,,switch,letter,NA,j,0.3516,Hi,,,,,,3,,,,,,,,low,9,0,9,0,1,,,,,,,,,
298342,2022-12-05_20h02.17.941,vts_reward_expectancy_bt,2022.2.4,MacIntel,60.0024001,Chrome,1440,900,,,,,1,1098,,,,,,,,,,,,,,,,,181,D,triangle,1,1,,,,,,,,,,,,,,,,repeat,letter,lettRpt,j,0.3477,Hi,,,,,,3,,,,,,,,low,10,0,10,0,1,,,,,,,,,
298342,2022-12-05_20h02.17.941,vts_reward_expectancy_bt,2022.2.4,MacIntel,60.0024001,Chrome,1440,900,,,,,1,1099,,,,,,,,,,,,,,,,,132,U,star,1,0,,,,,,,,,,,,,,,,repeat,letter,lettRpt,k,0.5304,Lo,,,,,,3,,,,,,,,low,11,0,11,0,1,,,,,,,,,
298342,2022-12-05_20h02.17.941,vts_reward_expectancy_bt,2022.2.4,MacIntel,60.0024001,Chrome,1440,900,,,,,0,1099,,,,,,,,,,,,,,,,,160,Y,star,0,0,,,,,,,,,,,,,,,,repeat,letter,NA,j,0.3523,Lo,,,,,,3,,,,,,,,low,12,0,12,0,1,,,,,,,,,
298342,2022-12-05_20h02.17.941,vts_reward_expectancy_bt,2022.2.4,MacIntel,60.0024001,Chrome,1440,900,,,,,10,1109,,,,,,,,,,,,,,,,,167,F,circle,1,1,,,,,,,,,,,,,,,,switch,number,numSwt,f,0.3379,Hi,,,,,,3,,,,,,,,low,13,0,13,0,1,,,,,,,,,
298342,2022-12-05_20h02.17.941,vts_reward_expectancy_bt,2022.2.4,MacIntel,60.0024001,Chrome,1440,900,,,,,0,1109,,,,,,,,,,,,,,,,,174,W,hexagon,0,0,,,,,,,,,,,,,,,,repeat,number,NA,d,0.3631,Hi,,,,,,3,,,,,,,,low,14,0,14,0,1,,,,,,,,,
298342,2022-12-05_20h02.17.941,vts_reward_expectancy_bt,2022.2.4,MacIntel,60.0024001,Chrome,1440,900,,,,,0,1109,,,,,,,,,,,,,,,,,125,B,triangle,0,1,,,,,,,,,,,,,,,,repeat,number,NA,f,0.4805,Hi,,,,,,3,,,,,,,,low,15,0,15,0,1,,,,,,,,,
298342,2022-12-05_20h02.17.941,vts_reward_expectancy_bt,2022.2.4,MacIntel,60.0024001,Chrome,1440,900,,,,,1,1110,,,,,,,,,,,,,,,,,167,H,hexagon,1,1,,,,,,,,,,,,,,,,repeat,number,numRpt,f,0.7371,Lo,,,,,,3,,,,,,,,low,16,0,16,0,1,,,,,,,,,
298342,2022-12-05_20h02.17.941,vts_reward_expectancy_bt,2022.2.4,MacIntel,60.0024001,Chrome,1440,900,,,,,0,1110,,,,,,,,,,,,,,,,,139,W,circle,1,0,,,,,,,,,,,,,,,,switch,letter,lettSwt,k,0.5476,Hi,,,,,,3,,,,,,,,low,17,0,17,0,1,,,,,,,,,
298342,2022-12-05_20h02.17.941,vts_reward_expectancy_bt,2022.2.4,MacIntel,60.0024001,Chrome,1440,900,,,,,0,1110,,,,,,,,,,,,,,,,,132,Y,triangle,0,0,,,,,,,,,,,,,,,,repeat,letter,NA,j,0.3064,Hi,,,,,,3,,,,,,,,low,18,0,18,0,1,,,,,,,,,
298342,2022-12-05_20h02.17.941,vts_reward_expectancy_bt,2022.2.4,MacIntel,60.0024001,Chrome,1440,900,,,,,0,1110,,,,,,,,,,,,,,,,,174,U,star,0,1,,,,,,,,,,,,,,,,repeat,letter,NA,j,0.5289,Hi,,,,,,3,,,,,,,,low,19,0,19,0,1,,,,,,,,,
298342,2022-12-05_20h02.17.941,vts_reward_expectancy_bt,2022.2.4,MacIntel,60.0024001,Chrome,1440,900,,,,,10,1120,,,,,,,,,,,,,,,,,160,F,star,1,1,,,,,,,,,,,,,,,,repeat,letter,lettRpt,j,0.5547,Lo,,,,,,3,,,,,,,,low,20,0,20,0,1,,,,,,,,,
298342,2022-12-05_20h02.17.941,vts_reward_expectancy_bt,2022.2.4,MacIntel,60.0024001,Chrome,1440,900,,,,,0,1120,,,,,,,,,,,,,,,,,125,B,triangle,1,0,,,,,,,,,,,,,,,,switch,number,numSwt,d,0.597,Hi,,,,,,3,,,,,,,,low,21,0,21,0,1,,,,,,,,,
298342,2022-12-05_20h02.17.941,vts_reward_expectancy_bt,2022.2.4,MacIntel,60.0024001,Chrome,1440,900,,,,,10,1130,,,,,,,,,,,,,,,,,181,D,hexagon,1,0,,,,,,,,,,,,,,,,repeat,number,numRpt,f,0.4108,Lo,,,,,,3,,,,,,,,low,22,0,22,0,1,,,,,,,,,
298342,2022-12-05_20h02.17.941,vts_reward_expectancy_bt,2022.2.4,MacIntel,60.0024001,Chrome,1440,900,,,,,0,1130,,,,,,,,,,,,,,,,,146,S,circle,0,0,,,,,,,,,,,,,,,,switch,letter,NA,j,0.3517,Lo,,,,,,3,,,,,,,,low,23,0,23,0,1,,,,,,,,,
298342,2022-12-05_20h02.17.941,vts_reward_expectancy_bt,2022.2.4,MacIntel,60.0024001,Chrome,1440,900,,,,,0,1130,,,,,,,,,,,,,,,,,181,S,circle,1,1,,,,,,,,,,,,,,,,repeat,letter,lettRpt,k,0.597,Hi,,,,,,3,,,,,,,,low,24,0,24,0,1,,,,,,,,,
298342,2022-12-05_20h02.17.941,vts_reward_expectancy_bt,2022.2.4,MacIntel,60.0024001,Chrome,1440,900,,,,,1,1131,,,,,,,,,,,,,,,,,174,W,hexagon,1,0,,,,,,,,,,,,,,,,switch,number,numSwt,f,0.5493,Lo,,,,,,3,,,,,,,,low,25,0,25,0,1,,,,,,,,,
298342,2022-12-05_20h02.17.941,vts_reward_expectancy_bt,2022.2.4,MacIntel,60.0024001,Chrome,1440,900,,,,,0,1131,,,,,,,,,,,,,,,,,146,Y,triangle,1,0,,,,,,,,,,,,,,,,repeat,number,numRpt,d,0.5449,Hi,,,,,,3,,,,,,,,low,26,0,26,0,1,,,,,,,,,
298342,2022-12-05_20h02.17.941,vts_reward_expectancy_bt,2022.2.4,MacIntel,60.0024001,Chrome,1440,900,,,,,1,1132,,,,,,,,,,,,,,,,,139,H,star,1,0,,,,,,,,,,,,,,,,switch,letter,lettSwt,j,0.5908,Lo,,,,,,3,,,,,,,,low,27,0,27,0,1,,,,,,,,,
298342,2022-12-05_20h02.17.941,vts_reward_expectancy_bt,2022.2.4,MacIntel,60.0024001,Chrome,1440,900,,,,,1,1133,,,,,,,,,,,,,,,,,167,F,star,1,0,,,,,,,,,,,,,,,,repeat,letter,lettRpt,j,0.47,Lo,,,,,,3,,,,,,,,low,28,0,28,0,1,,,,,,,,,
298342,2022-12-05_20h02.17.941,vts_reward_expectancy_bt,2022.2.4,MacIntel,60.0024001,Chrome,1440,900,,,,,1,1134,,,,,,,,,,,,,,,,,125,B,triangle,1,0,,,,,,,,,,,,,,,,switch,number,numSwt,d,0.4303,Hi,,,,,,3,,,,,,,,low,29,0,29,0,1,,,,,,,,,
298342,2022-12-05_20h02.17.941,vts_reward_expectancy_bt,2022.2.4,MacIntel,60.0024001,Chrome,1440,900,,,,,1,1135,,,,,,,,,,,,,,,,,160,U,hexagon,1,0,,,,,,,,,,,,,,,,repeat,number,numRpt,f,0.4636,Lo,,,,,,3,,,,,,,,low,30,0,30,0,1,,,,,,,,,
298342,2022-12-05_20h02.17.941,vts_reward_expectancy_bt,2022.2.4,MacIntel,60.0024001,Chrome,1440,900,,,,,0,1135,,,,,,,,,,,,,,,,,132,D,circle,1,0,,,,,,,,,,,,,,,,switch,letter,lettSwt,j,0.5362,Hi,,,,,,3,,,,,,,,low,31,0,31,0,1,,,,,,,,,
298342,2022-12-05_20h02.17.941,vts_reward_expectancy_bt,2022.2.4,MacIntel,60.0024001,Chrome,1440,900,,,,,10,1145,,,,,,,,,,,,,,,,,139,H,hexagon,1,0,,,,,,,,,,,,,,,,repeat,letter,lettRpt,j,0.9637,Lo,,,,,,4,,,,,,space,56.5254,low,0,0,0,0,1,,,,,,,,,
298342,2022-12-05_20h02.17.941,vts_reward_expectancy_bt,2022.2.4,MacIntel,60.0024001,Chrome,1440,900,,,,,10,1155,,,,,,,,,,,,,,,,,174,F,star,1,0,,,,,,,,,,,,,,,,repeat,letter,lettRpt,j,0.5466,Lo,,,,,,4,,,,,,,,low,1,0,1,0,1,,,,,,,,,
298342,2022-12-05_20h02.17.941,vts_reward_expectancy_bt,2022.2.4,MacIntel,60.0024001,Chrome,1440,900,,,,,0,1155,,,,,,,,,,,,,,,,,167,B,triangle,1,0,,,,,,,,,,,,,,,,switch,number,numSwt,f,0.4989,Hi,,,,,,4,,,,,,,,low,2,0,2,0,1,,,,,,,,,
298342,2022-12-05_20h02.17.941,vts_reward_expectancy_bt,2022.2.4,MacIntel,60.0024001,Chrome,1440,900,,,,,10,1165,,,,,,,,,,,,,,,,,146,S,circle,1,0,,,,,,,,,,,,,,,,repeat,number,numRpt,d,0.3632,Hi,,,,,,4,,,,,,,,low,3,0,3,0,1,,,,,,,,,
298342,2022-12-05_20h02.17.941,vts_reward_expectancy_bt,2022.2.4,MacIntel,60.0024001,Chrome,1440,900,,,,,1,1166,,,,,,,,,,,,,,,,,125,U,hexagon,1,0,,,,,,,,,,,,,,,,switch,letter,lettSwt,k,0.5478,Lo,,,,,,4,,,,,,,,low,4,0,4,0,1,,,,,,,,,
298342,2022-12-05_20h02.17.941,vts_reward_expectancy_bt,2022.2.4,MacIntel,60.0024001,Chrome,1440,900,,,,,10,1176,,,,,,,,,,,,,,,,,132,D,star,1,0,,,,,,,,,,,,,,,,switch,number,numSwt,d,0.6329,Lo,,,,,,4,,,,,,,,low,5,0,5,0,1,,,,,,,,,
298342,2022-12-05_20h02.17.941,vts_reward_expectancy_bt,2022.2.4,MacIntel,60.0024001,Chrome,1440,900,,,,,0,1176,,,,,,,,,,,,,,,,,181,W,triangle,1,0,,,,,,,,,,,,,,,,repeat,number,numRpt,f,0.5457,Hi,,,,,,4,,,,,,,,low,6,0,6,0,1,,,,,,,,,
298342,2022-12-05_20h02.17.941,vts_reward_expectancy_bt,2022.2.4,MacIntel,60.0024001,Chrome,1440,900,,,,,10,1186,,,,,,,,,,,,,,,,,160,Y,circle,1,0,,,,,,,,,,,,,,,,switch,letter,lettSwt,k,0.4665,Hi,,,,,,4,,,,,,,,low,7,0,7,0,1,,,,,,,,,
298342,2022-12-05_20h02.17.941,vts_reward_expectancy_bt,2022.2.4,MacIntel,60.0024001,Chrome,1440,900,,,,,1,1187,,,,,,,,,,,,,,,,,139,H,hexagon,1,0,,,,,,,,,,,,,,,,switch,number,numSwt,d,0.5716,Lo,,,,,,4,,,,,,,,low,8,0,8,0,1,,,,,,,,,
298342,2022-12-05_20h02.17.941,vts_reward_expectancy_bt,2022.2.4,MacIntel,60.0024001,Chrome,1440,900,,,,,0,1187,,,,,,,,,,,,,,,,,174,F,circle,1,0,,,,,,,,,,,,,,,,repeat,number,numRpt,f,0.5194,Hi,,,,,,4,,,,,,,,low,9,0,9,0,1,,,,,,,,,
298342,2022-12-05_20h02.17.941,vts_reward_expectancy_bt,2022.2.4,MacIntel,60.0024001,Chrome,1440,900,,,,,0,1187,,,,,,,,,,,,,,,,,167,B,triangle,0,0,,,,,,,,,,,,,,,,repeat,number,NA,d,0.3295,Hi,,,,,,4,,,,,,,,low,10,0,10,0,1,,,,,,,,,
298342,2022-12-05_20h02.17.941,vts_reward_expectancy_bt,2022.2.4,MacIntel,60.0024001,Chrome,1440,900,,,,,0,1187,,,,,,,,,,,,,,,,,146,S,star,0,1,,,,,,,,,,,,,,,,switch,letter,NA,j,0.4974,Hi,,,,,,4,,,,,,,,low,11,0,11,0,1,,,,,,,,,
298342,2022-12-05_20h02.17.941,vts_reward_expectancy_bt,2022.2.4,MacIntel,60.0024001,Chrome,1440,900,,,,,10,1197,,,,,,,,,,,,,,,,,125,U,circle,1,1,,,,,,,,,,,,,,,,switch,number,numSwt,d,0.3321,Hi,,,,,,4,,,,,,,,low,12,0,12,0,1,,,,,,,,,
298342,2022-12-05_20h02.17.941,vts_reward_expectancy_bt,2022.2.4,MacIntel,60.0024001,Chrome,1440,900,,,,,10,1207,,,,,,,,,,,,,,,,,132,D,star,1,0,,,,,,,,,,,,,,,,switch,letter,lettSwt,j,0.8815,Lo,,,,,,4,,,,,,,,low,13,0,13,0,1,,,,,,,,,
298342,2022-12-05_20h02.17.941,vts_reward_expectancy_bt,2022.2.4,MacIntel,60.0024001,Chrome,1440,900,,,,,0,1207,,,,,,,,,,,,,,,,,181,W,triangle,1,0,,,,,,,,,,,,,,,,switch,number,numSwt,f,0.4262,Hi,,,,,,4,,,,,,,,low,14,0,14,0,1,,,,,,,,,
298342,2022-12-05_20h02.17.941,vts_reward_expectancy_bt,2022.2.4,MacIntel,60.0024001,Chrome,1440,900,,,,,1,1208,,,,,,,,,,,,,,,,,160,Y,hexagon,1,0,,,,,,,,,,,,,,,,repeat,number,numRpt,f,0.4378,Lo,,,,,,4,,,,,,,,low,15,0,15,0,1,,,,,,,,,
298342,2022-12-05_20h02.17.941,vts_reward_expectancy_bt,2022.2.4,MacIntel,60.0024001,Chrome,1440,900,,,,,10,1218,,,,,,,,,,,,,,,,,139,Y,star,1,0,,,,,,,,,,,,,,,,switch,letter,lettSwt,k,0.5162,Lo,,,,,,4,,,,,,,,low,16,0,16,0,1,,,,,,,,,
298342,2022-12-05_20h02.17.941,vts_reward_expectancy_bt,2022.2.4,MacIntel,60.0024001,Chrome,1440,900,,,,,0,1218,,,,,,,,,,,,,,,,,174,B,circle,1,0,,,,,,,,,,,,,,,,switch,number,numSwt,f,0.4648,Hi,,,,,,4,,,,,,,,low,17,0,17,0,1,,,,,,,,,
298342,2022-12-05_20h02.17.941,vts_reward_expectancy_bt,2022.2.4,MacIntel,60.0024001,Chrome,1440,900,,,,,10,1228,,,,,,,,,,,,,,,,,167,D,hexagon,1,0,,,,,,,,,,,,,,,,switch,letter,lettSwt,j,0.4794,Lo,,,,,,4,,,,,,,,low,18,0,18,0,1,,,,,,,,,
298342,2022-12-05_20h02.17.941,vts_reward_expectancy_bt,2022.2.4,MacIntel,60.0024001,Chrome,1440,900,,,,,1,1229,,,,,,,,,,,,,,,,,125,U,triangle,1,0,,,,,,,,,,,,,,,,repeat,letter,lettRpt,k,0.3877,Hi,,,,,,4,,,,,,,,low,19,0,19,0,1,,,,,,,,,
298342,2022-12-05_20h02.17.941,vts_reward_expectancy_bt,2022.2.4,MacIntel,60.0024001,Chrome,1440,900,,,,,1,1230,,,,,,,,,,,,,,,,,160,W,star,1,0,,,,,,,,,,,,,,,,repeat,letter,lettRpt,k,0.6789,Lo,,,,,,4,,,,,,,,low,20,0,20,0,1,,,,,,,,,
298342,2022-12-05_20h02.17.941,vts_reward_expectancy_bt,2022.2.4,MacIntel,60.0024001,Chrome,1440,900,,,,,0,1230,,,,,,,,,,,,,,,,,146,S,circle,1,0,,,,,,,,,,,,,,,,switch,number,numSwt,d,0.6233,Hi,,,,,,4,,,,,,,,low,21,0,21,0,1,,,,,,,,,
298342,2022-12-05_20h02.17.941,vts_reward_expectancy_bt,2022.2.4,MacIntel,60.0024001,Chrome,1440,900,,,,,10,1240,,,,,,,,,,,,,,,,,181,F,triangle,1,0,,,,,,,,,,,,,,,,repeat,number,numRpt,f,0.2631,Hi,,,,,,4,,,,,,,,low,22,0,22,0,1,,,,,,,,,
298342,2022-12-05_20h02.17.941,vts_reward_expectancy_bt,2022.2.4,MacIntel,60.0024001,Chrome,1440,900,,,,,1,1241,,,,,,,,,,,,,,,,,132,H,hexagon,1,0,,,,,,,,,,,,,,,,switch,letter,lettSwt,j,0.6144,Lo,,,,,,4,,,,,,,,low,23,0,23,0,1,,,,,,,,,
298342,2022-12-05_20h02.17.941,vts_reward_expectancy_bt,2022.2.4,MacIntel,60.0024001,Chrome,1440,900,,,,,0,1241,,,,,,,,,,,,,,,,,174,F,triangle,1,0,,,,,,,,,,,,,,,,switch,number,numSwt,f,0.465,Hi,,,,,,4,,,,,,,,low,24,0,24,0,1,,,,,,,,,
298342,2022-12-05_20h02.17.941,vts_reward_expectancy_bt,2022.2.4,MacIntel,60.0024001,Chrome,1440,900,,,,,10,1251,,,,,,,,,,,,,,,,,167,U,hexagon,1,0,,,,,,,,,,,,,,,,switch,letter,lettSwt,k,0.5297,Lo,,,,,,4,,,,,,,,low,25,0,25,0,1,,,,,,,,,
298342,2022-12-05_20h02.17.941,vts_reward_expectancy_bt,2022.2.4,MacIntel,60.0024001,Chrome,1440,900,,,,,1,1252,,,,,,,,,,,,,,,,,132,W,star,1,0,,,,,,,,,,,,,,,,repeat,letter,lettRpt,k,0.515,Lo,,,,,,4,,,,,,,,low,26,0,26,0,1,,,,,,,,,
298342,2022-12-05_20h02.17.941,vts_reward_expectancy_bt,2022.2.4,MacIntel,60.0024001,Chrome,1440,900,,,,,10,1262,,,,,,,,,,,,,,,,,125,B,circle,1,0,,,,,,,,,,,,,,,,switch,number,numSwt,d,0.2808,Hi,,,,,,4,,,,,,,,low,27,0,27,0,1,,,,,,,,,
298342,2022-12-05_20h02.17.941,vts_reward_expectancy_bt,2022.2.4,MacIntel,60.0024001,Chrome,1440,900,,,,,0,1262,,,,,,,,,,,,,,,,,181,H,triangle,0,0,,,,,,,,,,,,,,,,switch,letter,NA,k,0.4462,Hi,,,,,,4,,,,,,,,low,28,0,28,0,1,,,,,,,,,
298342,2022-12-05_20h02.17.941,vts_reward_expectancy_bt,2022.2.4,MacIntel,60.0024001,Chrome,1440,900,,,,,0,1262,,,,,,,,,,,,,,,,,146,D,circle,0,1,,,,,,,,,,,,,,,,switch,number,NA,f,0.2563,Hi,,,,,,4,,,,,,,,low,29,0,29,0,1,,,,,,,,,
298342,2022-12-05_20h02.17.941,vts_reward_expectancy_bt,2022.2.4,MacIntel,60.0024001,Chrome,1440,900,,,,,10,1272,,,,,,,,,,,,,,,,,139,Y,hexagon,1,1,,,,,,,,,,,,,,,,switch,letter,lettSwt,k,0.5791,Lo,,,,,,4,,,,,,,,low,30,0,30,0,1,,,,,,,,,
298342,2022-12-05_20h02.17.941,vts_reward_expectancy_bt,2022.2.4,MacIntel,60.0024001,Chrome,1440,900,,,,,0,1272,,,,,,,,,,,,,,,,,160,S,star,0,0,,,,,,,,,,,,,,,,repeat,letter,NA,j,0.5161,Lo,,,,,,4,,,,,,,,low,31,0,31,0,1,,,,,,,,,
298342,2022-12-05_20h02.17.941,vts_reward_expectancy_bt,2022.2.4,MacIntel,60.0024001,Chrome,1440,900,,,,,0,1272,,,,,,,,,,,,,,,,,181,U,triangle,1,1,,,,,,,,,,,,,,,,switch,number,numSwt,f,1.4354,Hi,,,,,,5,,,,,,space,1.1441,low,0,0,0,0,1,,,,,,,,,
298342,2022-12-05_20h02.17.941,vts_reward_expectancy_bt,2022.2.4,MacIntel,60.0024001,Chrome,1440,900,,,,,1,1273,,,,,,,,,,,,,,,,,160,B,hexagon,1,0,,,,,,,,,,,,,,,,switch,letter,lettSwt,j,0.5617,Lo,,,,,,5,,,,,,,,low,1,0,1,0,1,,,,,,,,,
298342,2022-12-05_20h02.17.941,vts_reward_expectancy_bt,2022.2.4,MacIntel,60.0024001,Chrome,1440,900,,,,,0,1273,,,,,,,,,,,,,,,,,146,S,star,0,0,,,,,,,,,,,,,,,,repeat,letter,NA,j,0.4775,Lo,,,,,,5,,,,,,,,low,2,0,2,0,1,,,,,,,,,
298342,2022-12-05_20h02.17.941,vts_reward_expectancy_bt,2022.2.4,MacIntel,60.0024001,Chrome,1440,900,,,,,1,1274,,,,,,,,,,,,,,,,,125,F,circle,1,1,,,,,,,,,,,,,,,,switch,number,numSwt,d,0.3716,Hi,,,,,,5,,,,,,,,low,3,0,3,0,1,,,,,,,,,
298342,2022-12-05_20h02.17.941,vts_reward_expectancy_bt,2022.2.4,MacIntel,60.0024001,Chrome,1440,900,,,,,0,1274,,,,,,,,,,,,,,,,,167,H,triangle,1,0,,,,,,,,,,,,,,,,repeat,number,numRpt,f,0.514,Hi,,,,,,5,,,,,,,,low,4,0,4,0,1,,,,,,,,,
298342,2022-12-05_20h02.17.941,vts_reward_expectancy_bt,2022.2.4,MacIntel,60.0024001,Chrome,1440,900,,,,,1,1275,,,,,,,,,,,,,,,,,132,W,hexagon,1,0,,,,,,,,,,,,,,,,switch,letter,lettSwt,k,0.6336,Lo,,,,,,5,,,,,,,,low,5,0,5,0,1,,,,,,,,,
298342,2022-12-05_20h02.17.941,vts_reward_expectancy_bt,2022.2.4,MacIntel,60.0024001,Chrome,1440,900,,,,,0,1275,,,,,,,,,,,,,,,,,139,D,star,0,0,,,,,,,,,,,,,,,,switch,number,NA,f,0.5298,Lo,,,,,,5,,,,,,,,low,6,0,6,0,1,,,,,,,,,
298342,2022-12-05_20h02.17.941,vts_reward_expectancy_bt,2022.2.4,MacIntel,60.0024001,Chrome,1440,900,,,,,0,1275,,,,,,,,,,,,,,,,,174,Y,circle,1,1,,,,,,,,,,,,,,,,repeat,number,numRpt,f,0.5464,Hi,,,,,,5,,,,,,,,low,7,0,7,0,1,,,,,,,,,
298342,2022-12-05_20h02.17.941,vts_reward_expectancy_bt,2022.2.4,MacIntel,60.0024001,Chrome,1440,900,,,,,0,1275,,,,,,,,,,,,,,,,,181,U,triangle,0,0,,,,,,,,,,,,,,,,repeat,number,NA,d,0.3634,Hi,,,,,,5,,,,,,,,low,8,0,8,0,1,,,,,,,,,
298342,2022-12-05_20h02.17.941,vts_reward_expectancy_bt,2022.2.4,MacIntel,60.0024001,Chrome,1440,900,,,,,10,1285,,,,,,,,,,,,,,,,,160,B,hexagon,1,1,,,,,,,,,,,,,,,,repeat,number,numRpt,f,0.4803,Lo,,,,,,5,,,,,,,,low,9,0,9,0,1,,,,,,,,,
298342,2022-12-05_20h02.17.941,vts_reward_expectancy_bt,2022.2.4,MacIntel,60.0024001,Chrome,1440,900,,,,,0,1285,,,,,,,,,,,,,,,,,146,S,circle,0,0,,,,,,,,,,,,,,,,repeat,number,NA,f,0.4782,Lo,,,,,,5,,,,,,,,low,10,0,10,0,1,,,,,,,,,
298342,2022-12-05_20h02.17.941,vts_reward_expectancy_bt,2022.2.4,MacIntel,60.0024001,Chrome,1440,900,,,,,1,1286,,,,,,,,,,,,,,,,,125,F,star,1,1,,,,,,,,,,,,,,,,repeat,number,numRpt,d,0.402,Lo,,,,,,5,,,,,,,,low,11,0,11,0,1,,,,,,,,,
298342,2022-12-05_20h02.17.941,vts_reward_expectancy_bt,2022.2.4,MacIntel,60.0024001,Chrome,1440,900,,,,,1,1287,,,,,,,,,,,,,,,,,167,H,star,1,0,,,,,,,,,,,,,,,,repeat,number,numRpt,f,0.4157,Lo,,,,,,5,,,,,,,,low,12,0,12,0,1,,,,,,,,,
298342,2022-12-05_20h02.17.941,vts_reward_expectancy_bt,2022.2.4,MacIntel,60.0024001,Chrome,1440,900,,,,,0,1287,,,,,,,,,,,,,,,,,132,W,hexagon,0,0,,,,,,,,,,,,,,,,repeat,number,NA,f,0.4971,Lo,,,,,,5,,,,,,,,low,13,0,13,0,1,,,,,,,,,
298342,2022-12-05_20h02.17.941,vts_reward_expectancy_bt,2022.2.4,MacIntel,60.0024001,Chrome,1440,900,,,,,10,1297,,,,,,,,,,,,,,,,,139,D,circle,1,1,,,,,,,,,,,,,,,,repeat,number,numRpt,d,0.2954,Hi,,,,,,5,,,,,,,,low,14,0,14,0,1,,,,,,,,,
298342,2022-12-05_20h02.17.941,vts_reward_expectancy_bt,2022.2.4,MacIntel,60.0024001,Chrome,1440,900,,,,,0,1297,,,,,,,,,,,,,,,,,174,Y,triangle,1,0,,,,,,,,,,,,,,,,repeat,number,numRpt,f,0.5231,Hi,,,,,,5,,,,,,,,low,15,0,15,0,1,,,,,,,,,
298342,2022-12-05_20h02.17.941,vts_reward_expectancy_bt,2022.2.4,MacIntel,60.0024001,Chrome,1440,900,,,,,10,1307,,,,,,,,,,,,,,,,,146,U,triangle,1,0,,,,,,,,,,,,,,,,switch,letter,lettSwt,k,0.4471,Hi,,,,,,5,,,,,,,,low,16,0,16,0,1,,,,,,,,,
298342,2022-12-05_20h02.17.941,vts_reward_expectancy_bt,2022.2.4,MacIntel,60.0024001,Chrome,1440,900,,,,,10,1317,,,,,,,,,,,,,,,,,139,Y,hexagon,1,0,,,,,,,,,,,,,,,,repeat,letter,lettRpt,k,0.5826,Lo,,,,,,5,,,,,,,,low,17,0,17,0,1,,,,,,,,,
298342,2022-12-05_20h02.17.941,vts_reward_expectancy_bt,2022.2.4,MacIntel,60.0024001,Chrome,1440,900,,,,,0,1317,,,,,,,,,,,,,,,,,181,W,circle,0,0,,,,,,,,,,,,,,,,repeat,letter,NA,j,0.4055,Lo,,,,,,5,,,,,,,,low,18,0,18,0,1,,,,,,,,,
298342,2022-12-05_20h02.17.941,vts_reward_expectancy_bt,2022.2.4,MacIntel,60.0024001,Chrome,1440,900,,,,,1,1318,,,,,,,,,,,,,,,,,160,B,star,1,1,,,,,,,,,,,,,,,,repeat,letter,lettRpt,j,0.3654,Lo,,,,,,5,,,,,,,,low,19,0,19,0,1,,,,,,,,,
298342,2022-12-05_20h02.17.941,vts_reward_expectancy_bt,2022.2.4,MacIntel,60.0024001,Chrome,1440,900,,,,,1,1319,,,,,,,,,,,,,,,,,125,S,circle,1,0,,,,,,,,,,,,,,,,repeat,letter,lettRpt,k,0.4706,Hi,,,,,,5,,,,,,,,low,20,0,20,0,1,,,,,,,,,
298342,2022-12-05_20h02.17.941,vts_reward_expectancy_bt,2022.2.4,MacIntel,60.0024001,Chrome,1440,900,,,,,0,1319,,,,,,,,,,,,,,,,,174,H,triangle,1,0,,,,,,,,,,,,,,,,repeat,letter,lettRpt,j,0.6057,Hi,,,,,,5,,,,,,,,low,21,0,21,0,1,,,,,,,,,
298342,2022-12-05_20h02.17.941,vts_reward_expectancy_bt,2022.2.4,MacIntel,60.0024001,Chrome,1440,900,,,,,10,1329,,,,,,,,,,,,,,,,,167,D,hexagon,1,0,,,,,,,,,,,,,,,,repeat,letter,lettRpt,j,0.4696,Lo,,,,,,5,,,,,,,,low,22,0,22,0,1,,,,,,,,,
298342,2022-12-05_20h02.17.941,vts_reward_expectancy_bt,2022.2.4,MacIntel,60.0024001,Chrome,1440,900,,,,,1,1330,,,,,,,,,,,,,,,,,132,F,star,1,0,,,,,,,,,,,,,,,,switch,number,numSwt,d,0.6623,Lo,,,,,,5,,,,,,,,low,23,0,23,0,1,,,,,,,,,
298342,2022-12-05_20h02.17.941,vts_reward_expectancy_bt,2022.2.4,MacIntel,60.0024001,Chrome,1440,900,,,,,1,1331,,,,,,,,,,,,,,,,,125,U,hexagon,1,0,,,,,,,,,,,,,,,,switch,letter,lettSwt,k,0.5966,Lo,,,,,,5,,,,,,,,low,24,0,24,0,1,,,,,,,,,
298342,2022-12-05_20h02.17.941,vts_reward_expectancy_bt,2022.2.4,MacIntel,60.0024001,Chrome,1440,900,,,,,1,1332,,,,,,,,,,,,,,,,,146,W,circle,1,0,,,,,,,,,,,,,,,,switch,number,numSwt,d,0.3024,Hi,,,,,,5,,,,,,,,low,25,0,25,0,1,,,,,,,,,
298342,2022-12-05_20h02.17.941,vts_reward_expectancy_bt,2022.2.4,MacIntel,60.0024001,Chrome,1440,900,,,,,10,1342,,,,,,,,,,,,,,,,,181,D,triangle,1,0,,,,,,,,,,,,,,,,repeat,number,numRpt,f,0.3297,Hi,,,,,,5,,,,,,,,low,26,0,26,0,1,,,,,,,,,
298342,2022-12-05_20h02.17.941,vts_reward_expectancy_bt,2022.2.4,MacIntel,60.0024001,Chrome,1440,900,,,,,10,1352,,,,,,,,,,,,,,,,,174,H,star,1,0,,,,,,,,,,,,,,,,switch,letter,lettSwt,j,0.5637,Lo,,,,,,5,,,,,,,,low,27,0,27,0,1,,,,,,,,,
298342,2022-12-05_20h02.17.941,vts_reward_expectancy_bt,2022.2.4,MacIntel,60.0024001,Chrome,1440,900,,,,,1,1353,,,,,,,,,,,,,,,,,139,F,hexagon,1,0,,,,,,,,,,,,,,,,repeat,letter,lettRpt,j,0.6394,Lo,,,,,,5,,,,,,,,low,28,0,28,0,1,,,,,,,,,
298342,2022-12-05_20h02.17.941,vts_reward_expectancy_bt,2022.2.4,MacIntel,60.0024001,Chrome,1440,900,,,,,0,1353,,,,,,,,,,,,,,,,,132,B,triangle,1,0,,,,,,,,,,,,,,,,repeat,letter,lettRpt,j,0.5463,Hi,,,,,,5,,,,,,,,low,29,0,29,0,1,,,,,,,,,
298342,2022-12-05_20h02.17.941,vts_reward_expectancy_bt,2022.2.4,MacIntel,60.0024001,Chrome,1440,900,,,,,0,1353,,,,,,,,,,,,,,,,,167,S,star,0,0,,,,,,,,,,,,,,,,repeat,letter,NA,j,0.4467,Hi,,,,,,5,,,,,,,,low,30,0,30,0,1,,,,,,,,,
298342,2022-12-05_20h02.17.941,vts_reward_expectancy_bt,2022.2.4,MacIntel,60.0024001,Chrome,1440,900,,,,,0,1353,,,,,,,,,,,,,,,,,160,Y,circle,1,1,,,,,,,,,,,,,,,,switch,number,numSwt,f,0.5035,Hi,,,,,,5,,,,,,,,low,31,0,31,0,1,,,,,,,,,
298342,2022-12-05_20h02.17.941,vts_reward_expectancy_bt,2022.2.4,MacIntel,60.0024001,Chrome,1440,900,,,,,1,1354,,,,,,,,,,,,,,,,,181,F,hexagon,1,0,,,,,,,,,,,,,,,,switch,letter,lettSwt,j,0.4453,Lo,,,,,,6,,,,,,space,2.5583,low,0,0,0,0,1,,,,,,,,,
298342,2022-12-05_20h02.17.941,vts_reward_expectancy_bt,2022.2.4,MacIntel,60.0024001,Chrome,1440,900,,,,,0,1354,,,,,,,,,,,,,,,,,132,W,triangle,1,0,,,,,,,,,,,,,,,,repeat,letter,lettRpt,k,0.512,Hi,,,,,,6,,,,,,,,low,1,0,1,0,1,,,,,,,,,
298342,2022-12-05_20h02.17.941,vts_reward_expectancy_bt,2022.2.4,MacIntel,60.0024001,Chrome,1440,900,,,,,0,1354,,,,,,,,,,,,,,,,,146,U,circle,1,0,,,,,,,,,,,,,,,,switch,number,numSwt,d,0.4148,Hi,,,,,,6,,,,,,,,low,2,0,2,0,1,,,,,,,,,
298342,2022-12-05_20h02.17.941,vts_reward_expectancy_bt,2022.2.4,MacIntel,60.0024001,Chrome,1440,900,,,,,10,1364,,,,,,,,,,,,,,,,,160,B,star,1,0,,,,,,,,,,,,,,,,repeat,number,numRpt,f,0.3802,Lo,,,,,,6,,,,,,,,low,3,0,3,0,1,,,,,,,,,
298342,2022-12-05_20h02.17.941,vts_reward_expectancy_bt,2022.2.4,MacIntel,60.0024001,Chrome,1440,900,,,,,1,1365,,,,,,,,,,,,,,,,,139,H,hexagon,1,0,,,,,,,,,,,,,,,,repeat,number,numRpt,d,0.4156,Lo,,,,,,6,,,,,,,,low,4,0,4,0,1,,,,,,,,,
298342,2022-12-05_20h02.17.941,vts_reward_expectancy_bt,2022.2.4,MacIntel,60.0024001,Chrome,1440,900,,,,,10,1375,,,,,,,,,,,,,,,,,125,D,triangle,1,0,,,,,,,,,,,,,,,,repeat,number,numRpt,d,0.2805,Hi,,,,,,6,,,,,,,,low,5,0,5,0,1,,,,,,,,,
298342,2022-12-05_20h02.17.941,vts_reward_expectancy_bt,2022.2.4,MacIntel,60.0024001,Chrome,1440,900,,,,,0,1375,,,,,,,,,,,,,,,,,174,S,circle,0,0,,,,,,,,,,,,,,,,switch,letter,NA,j,0.5633,Hi,,,,,,6,,,,,,,,low,6,0,6,0,1,,,,,,,,,
298342,2022-12-05_20h02.17.941,vts_reward_expectancy_bt,2022.2.4,MacIntel,60.0024001,Chrome,1440,900,,,,,1,1376,,,,,,,,,,,,,,,,,167,Y,star,1,1,,,,,,,,,,,,,,,,repeat,letter,lettRpt,k,0.481,Lo,,,,,,6,,,,,,,,low,7,0,7,0,1,,,,,,,,,
298342,2022-12-05_20h02.17.941,vts_reward_expectancy_bt,2022.2.4,MacIntel,60.0024001,Chrome,1440,900,,,,,10,1386,,,,,,,,,,,,,,,,,181,F,circle,1,0,,,,,,,,,,,,,,,,repeat,letter,lettRpt,j,0.412,Hi,,,,,,6,,,,,,,,low,8,0,8,0,1,,,,,,,,,
298342,2022-12-05_20h02.17.941,vts_reward_expectancy_bt,2022.2.4,MacIntel,60.0024001,Chrome,1440,900,,,,,1,1387,,,,,,,,,,,,,,,,,132,W,triangle,1,0,,,,,,,,,,,,,,,,switch,number,numSwt,d,0.2969,Hi,,,,,,6,,,,,,,,low,9,0,9,0,1,,,,,,,,,
298342,2022-12-05_20h02.17.941,vts_reward_expectancy_bt,2022.2.4,MacIntel,60.0024001,Chrome,1440,900,,,,,0,1387,,,,,,,,,,,,,,,,,146,U,star,0,0,,,,,,,,,,,,,,,,repeat,number,NA,f,0.3715,Hi,,,,,,6,,,,,,,,low,10,0,10,0,1,,,,,,,,,
298342,2022-12-05_20h02.17.941,vts_reward_expectancy_bt,2022.2.4,MacIntel,60.0024001,Chrome,1440,900,,,,,1,1388,,,,,,,,,,,,,,,,,160,B,hexagon,1,1,,,,,,,,,,,,,,,,switch,letter,lettSwt,j,0.4648,Lo,,,,,,6,,,,,,,,low,11,0,11,0,1,,,,,,,,,
298342,2022-12-05_20h02.17.941,vts_reward_expectancy_bt,2022.2.4,MacIntel,60.0024001,Chrome,1440,900,,,,,10,1398,,,,,,,,,,,,,,,,,139,H,triangle,1,0,,,,,,,,,,,,,,,,repeat,letter,lettRpt,j,0.4629,Hi,,,,,,6,,,,,,,,low,12,0,12,0,1,,,,,,,,,
