participant,date,expName,psychopyVersion,OS,frameRate,browser,xResolution,yResolution,key_resp.keys,key_resp.rt,training_resp.keys,training_resp.rt,points_trial,points_cumul,trainBlock,training.thisRepN,training.thisTrialN,training.thisN,training.thisIndex,training.ran,LTriangleOpac,LCircleOpac,LHexagonOpac,LStarOpac,RTriangleOpac,RCircleOpac,RHexagonOpac,RStarOpac,LShape_ID,RShape_ID,curr_topStim,curr_bottStim,curr_shape,acc,E1,target_resp_prac1.keys,target_resp_prac1.rt,pracBlock,task1_prac_trials.thisRepN,task1_prac_trials.thisTrialN,task1_prac_trials.thisN,task1_prac_trials.thisIndex,task1_prac_trials.ran,target_resp_prac2.keys,target_resp_prac2.rt,task2_praac_trials.thisRepN,task2_praac_trials.thisTrialN,task2_praac_trials.thisN,task2_praac_trials.thisIndex,task2_praac_trials.ran,alt,task,condition,target_resp.keys,target_resp.rt,rewCond,vts_practice_trials.thisRepN,vts_practice_trials.thisTrialN,vts_practice_trials.thisN,vts_practice_trials.thisIndex,vts_practice_trials.ran,blockNum,trials_norew.thisRepN,trials_norew.thisTrialN,trials_norew.thisN,trials_norew.thisIndex,trials_norew.ran,key_resp_2.keys,key_resp_2.rt,rewExpectancy,trials_rew.thisRepN,trials_rew.thisTrialN,trials_rew.thisN,trials_rew.thisIndex,trials_rew.ran,Q1,Q2,Q2_text,Q3,Q4,Q5_text,Q5,xRes,yRes
298351,2022-12-07_24h22.50.583,vts_reward_expectancy_bt,2022.2.4,Win32,57.92064871,Chrome,1536,864,,,,,,,,,,,,,,,,,,,,,,,,,,,,,,,,,,,,,,,,,,,,,,,,,,,,,,,,,,,,,,,,,,,,,,,,,,,,
298351,2022-12-07_24h22.50.583,vts_reward_expectancy_bt,2022.2.4,Win32,57.92064871,Chrome,1536,864,space,11.6255,,,,,,,,,,,,,,,,,,,,,,,,,,,,,,,,,,,,,,,,,,,,,,,,,,,,,,,,,,,,,,,,,,,,,,,,,,
298351,2022-12-07_24h22.50.583,vts_reward_expectancy_bt,2022.2.4,Win32,57.92064871,Chrome,1536,864,,,,,,,,,,,,,,,,,,,,,,,,,,,,,,,,,,,,,,,,,,,,,,,,,,,,,,,,,,,,,,,,,,,,,,,,,,,,
298351,2022-12-07_24h22.50.583,vts_reward_expectancy_bt,2022.2.4,Win32,57.92064871,Chrome,1536,864,,,a,3.6856,10,10,0,0,0,0,9,1,0,0,0,1,1,0,0,0,star,triangle,,,,,,,,,,,,,,,,,,,,,,,,,,,,,,,,,,,,,,,,,,,,,,,,,,,,,,
298351,2022-12-07_24h22.50.583,vts_reward_expectancy_bt,2022.2.4,Win32,57.92064871,Chrome,1536,864,,,l,0.9853,1,11,0,0,1,1,4,1,0,1,0,0,0,0,1,0,circle,hexagon,,,,,,,,,,,,,,,,,,,,,,,,,,,,,,,,,,,,,,,,,,,,,,,,,,,,,,
298351,2022-12-07_24h22.50.583,vts_reward_expectancy_bt,2022.2.4,Win32,57.92064871,Chrome,1536,864,,,l,1.0657,1,12,0,0,2,2,2,1,1,0,0,0,0,0,0,1,triangle,star,,,,,,,,,,,,,,,,,,,,,,,,,,,,,,,,,,,,,,,,,,,,,,,,,,,,,,
298351,2022-12-07_24h22.50.583,vts_reward_expectancy_bt,2022.2.4,Win32,57.92064871,Chrome,1536,864,,,a,0.5059,1,13,0,0,3,3,11,1,0,0,0,1,0,0,1,0,star,hexagon,,,,,,,,,,,,,,,,,,,,,,,,,,,,,,,,,,,,,,,,,,,,,,,,,,,,,,
298351,2022-12-07_24h22.50.583,vts_reward_expectancy_bt,2022.2.4,Win32,57.92064871,Chrome,1536,864,,,a,9.9496,10,23,0,0,4,4,7,1,0,0,1,0,0,1,0,0,hexagon,circle,,,,,,,,,,,,,,,,,,,,,,,,,,,,,,,,,,,,,,,,,,,,,,,,,,,,,,
298351,2022-12-07_24h22.50.583,vts_reward_expectancy_bt,2022.2.4,Win32,57.92064871,Chrome,1536,864,,,a,7.4817,10,33,0,0,5,5,1,1,1,0,0,0,0,0,1,0,triangle,hexagon,,,,,,,,,,,,,,,,,,,,,,,,,,,,,,,,,,,,,,,,,,,,,,,,,,,,,,
298351,2022-12-07_24h22.50.583,vts_reward_expectancy_bt,2022.2.4,Win32,57.92064871,Chrome,1536,864,,,l,10.1981,1,34,0,0,6,6,6,1,0,0,1,0,1,0,0,0,hexagon,triangle,,,,,,,,,,,,,,,,,,,,,,,,,,,,,,,,,,,,,,,,,,,,,,,,,,,,,,
298351,2022-12-07_24h22.50.583,vts_reward_expectancy_bt,2022.2.4,Win32,57.92064871,Chrome,1536,864,,,a,4.8902,10,44,0,0,7,7,5,1,0,1,0,0,0,0,0,1,circle,star,,,,,,,,,,,,,,,,,,,,,,,,,,,,,,,,,,,,,,,,,,,,,,,,,,,,,,
298351,2022-12-07_24h22.50.583,vts_reward_expectancy_bt,2022.2.4,Win32,57.92064871,Chrome,1536,864,,,a,1.1992,1,45,0,0,8,8,3,1,0,1,0,0,1,0,0,0,circle,triangle,,,,,,,,,,,,,,,,,,,,,,,,,,,,,,,,,,,,,,,,,,,,,,,,,,,,,,
298351,2022-12-07_24h22.50.583,vts_reward_expectancy_bt,2022.2.4,Win32,57.92064871,Chrome,1536,864,,,l,1.0432,1,46,0,0,9,9,10,1,0,0,0,1,0,1,0,0,star ,circle,,,,,,,,,,,,,,,,,,,,,,,,,,,,,,,,,,,,,,,,,,,,,,,,,,,,,,
298351,2022-12-07_24h22.50.583,vts_reward_expectancy_bt,2022.2.4,Win32,57.92064871,Chrome,1536,864,,,a,6.1318,10,56,0,0,10,10,0,1,1,0,0,0,0,1,0,0,triangle,circle,,,,,,,,,,,,,,,,,,,,,,,,,,,,,,,,,,,,,,,,,,,,,,,,,,,,,,
298351,2022-12-07_24h22.50.583,vts_reward_expectancy_bt,2022.2.4,Win32,57.92064871,Chrome,1536,864,,,a,11.7668,1,57,0,0,11,11,8,1,0,0,1,0,0,0,0,1,hexagon,star,,,,,,,,,,,,,,,,,,,,,,,,,,,,,,,,,,,,,,,,,,,,,,,,,,,,,,
298351,2022-12-07_24h22.50.583,vts_reward_expectancy_bt,2022.2.4,Win32,57.92064871,Chrome,1536,864,,,a,10.0021,1,58,0,1,0,12,6,1,0,0,1,0,1,0,0,0,hexagon,triangle,,,,,,,,,,,,,,,,,,,,,,,,,,,,,,,,,,,,,,,,,,,,,,,,,,,,,,
298351,2022-12-07_24h22.50.583,vts_reward_expectancy_bt,2022.2.4,Win32,57.92064871,Chrome,1536,864,,,a,1.0292,1,59,0,1,1,13,7,1,0,0,1,0,0,1,0,0,hexagon,circle,,,,,,,,,,,,,,,,,,,,,,,,,,,,,,,,,,,,,,,,,,,,,,,,,,,,,,
298351,2022-12-07_24h22.50.583,vts_reward_expectancy_bt,2022.2.4,Win32,57.92064871,Chrome,1536,864,,,l,8.0576,1,60,0,1,2,14,8,1,0,0,1,0,0,0,0,1,hexagon,star,,,,,,,,,,,,,,,,,,,,,,,,,,,,,,,,,,,,,,,,,,,,,,,,,,,,,,
298351,2022-12-07_24h22.50.583,vts_reward_expectancy_bt,2022.2.4,Win32,57.92064871,Chrome,1536,864,,,l,0.4745,10,70,0,1,3,15,1,1,1,0,0,0,0,0,1,0,triangle,hexagon,,,,,,,,,,,,,,,,,,,,,,,,,,,,,,,,,,,,,,,,,,,,,,,,,,,,,,
298351,2022-12-07_24h22.50.583,vts_reward_expectancy_bt,2022.2.4,Win32,57.92064871,Chrome,1536,864,,,a,0.9935,1,71,0,1,4,16,9,1,0,0,0,1,1,0,0,0,star,triangle,,,,,,,,,,,,,,,,,,,,,,,,,,,,,,,,,,,,,,,,,,,,,,,,,,,,,,
298351,2022-12-07_24h22.50.583,vts_reward_expectancy_bt,2022.2.4,Win32,57.92064871,Chrome,1536,864,,,l,3.7439,10,81,0,1,5,17,10,1,0,0,0,1,0,1,0,0,star ,circle,,,,,,,,,,,,,,,,,,,,,,,,,,,,,,,,,,,,,,,,,,,,,,,,,,,,,,
298351,2022-12-07_24h22.50.583,vts_reward_expectancy_bt,2022.2.4,Win32,57.92064871,Chrome,1536,864,,,l,12.8398,10,91,0,1,6,18,0,1,1,0,0,0,0,1,0,0,triangle,circle,,,,,,,,,,,,,,,,,,,,,,,,,,,,,,,,,,,,,,,,,,,,,,,,,,,,,,
298351,2022-12-07_24h22.50.583,vts_reward_expectancy_bt,2022.2.4,Win32,57.92064871,Chrome,1536,864,,,a,1.0792,10,101,0,1,7,19,2,1,1,0,0,0,0,0,0,1,triangle,star,,,,,,,,,,,,,,,,,,,,,,,,,,,,,,,,,,,,,,,,,,,,,,,,,,,,,,
298351,2022-12-07_24h22.50.583,vts_reward_expectancy_bt,2022.2.4,Win32,57.92064871,Chrome,1536,864,,,l,0.5918,1,102,0,1,8,20,11,1,0,0,0,1,0,0,1,0,star,hexagon,,,,,,,,,,,,,,,,,,,,,,,,,,,,,,,,,,,,,,,,,,,,,,,,,,,,,,
298351,2022-12-07_24h22.50.583,vts_reward_expectancy_bt,2022.2.4,Win32,57.92064871,Chrome,1536,864,,,a,9.6526,10,112,0,1,9,21,5,1,0,1,0,0,0,0,0,1,circle,star,,,,,,,,,,,,,,,,,,,,,,,,,,,,,,,,,,,,,,,,,,,,,,,,,,,,,,
298351,2022-12-07_24h22.50.583,vts_reward_expectancy_bt,2022.2.4,Win32,57.92064871,Chrome,1536,864,,,a,0.9037,10,122,0,1,10,22,3,1,0,1,0,0,1,0,0,0,circle,triangle,,,,,,,,,,,,,,,,,,,,,,,,,,,,,,,,,,,,,,,,,,,,,,,,,,,,,,
298351,2022-12-07_24h22.50.583,vts_reward_expectancy_bt,2022.2.4,Win32,57.92064871,Chrome,1536,864,,,a,1.0183,10,132,0,1,11,23,4,1,0,1,0,0,0,0,1,0,circle,hexagon,,,,,,,,,,,,,,,,,,,,,,,,,,,,,,,,,,,,,,,,,,,,,,,,,,,,,,
298351,2022-12-07_24h22.50.583,vts_reward_expectancy_bt,2022.2.4,Win32,57.92064871,Chrome,1536,864,,,a,1.1171,10,142,0,2,0,24,1,1,1,0,0,0,0,0,1,0,triangle,hexagon,,,,,,,,,,,,,,,,,,,,,,,,,,,,,,,,,,,,,,,,,,,,,,,,,,,,,,
298351,2022-12-07_24h22.50.583,vts_reward_expectancy_bt,2022.2.4,Win32,57.92064871,Chrome,1536,864,,,l,1.3228,10,152,0,2,1,25,0,1,1,0,0,0,0,1,0,0,triangle,circle,,,,,,,,,,,,,,,,,,,,,,,,,,,,,,,,,,,,,,,,,,,,,,,,,,,,,,
298351,2022-12-07_24h22.50.583,vts_reward_expectancy_bt,2022.2.4,Win32,57.92064871,Chrome,1536,864,,,l,1.0182,10,162,0,2,2,26,10,1,0,0,0,1,0,1,0,0,star ,circle,,,,,,,,,,,,,,,,,,,,,,,,,,,,,,,,,,,,,,,,,,,,,,,,,,,,,,
298351,2022-12-07_24h22.50.583,vts_reward_expectancy_bt,2022.2.4,Win32,57.92064871,Chrome,1536,864,,,a,0.7181,10,172,0,2,3,27,5,1,0,1,0,0,0,0,0,1,circle,star,,,,,,,,,,,,,,,,,,,,,,,,,,,,,,,,,,,,,,,,,,,,,,,,,,,,,,
298351,2022-12-07_24h22.50.583,vts_reward_expectancy_bt,2022.2.4,Win32,57.92064871,Chrome,1536,864,,,a,0.9665,10,182,0,2,4,28,4,1,0,1,0,0,0,0,1,0,circle,hexagon,,,,,,,,,,,,,,,,,,,,,,,,,,,,,,,,,,,,,,,,,,,,,,,,,,,,,,
298351,2022-12-07_24h22.50.583,vts_reward_expectancy_bt,2022.2.4,Win32,57.92064871,Chrome,1536,864,,,a,1.4206,10,192,0,2,5,29,3,1,0,1,0,0,1,0,0,0,circle,triangle,,,,,,,,,,,,,,,,,,,,,,,,,,,,,,,,,,,,,,,,,,,,,,,,,,,,,,
298351,2022-12-07_24h22.50.583,vts_reward_expectancy_bt,2022.2.4,Win32,57.92064871,Chrome,1536,864,,,a,1.2819,10,202,0,2,6,30,2,1,1,0,0,0,0,0,0,1,triangle,star,,,,,,,,,,,,,,,,,,,,,,,,,,,,,,,,,,,,,,,,,,,,,,,,,,,,,,
298351,2022-12-07_24h22.50.583,vts_reward_expectancy_bt,2022.2.4,Win32,57.92064871,Chrome,1536,864,,,l,0.8505,10,212,0,2,7,31,7,1,0,0,1,0,0,1,0,0,hexagon,circle,,,,,,,,,,,,,,,,,,,,,,,,,,,,,,,,,,,,,,,,,,,,,,,,,,,,,,
298351,2022-12-07_24h22.50.583,vts_reward_expectancy_bt,2022.2.4,Win32,57.92064871,Chrome,1536,864,,,l,0.8189,10,222,0,2,8,32,11,1,0,0,0,1,0,0,1,0,star,hexagon,,,,,,,,,,,,,,,,,,,,,,,,,,,,,,,,,,,,,,,,,,,,,,,,,,,,,,
298351,2022-12-07_24h22.50.583,vts_reward_expectancy_bt,2022.2.4,Win32,57.92064871,Chrome,1536,864,,,l,0.672,10,232,0,2,9,33,9,1,0,0,0,1,1,0,0,0,star,triangle,,,,,,,,,,,,,,,,,,,,,,,,,,,,,,,,,,,,,,,,,,,,,,,,,,,,,,
298351,2022-12-07_24h22.50.583,vts_reward_expectancy_bt,2022.2.4,Win32,57.92064871,Chrome,1536,864,,,l,1.4498,10,242,0,2,10,34,6,1,0,0,1,0,1,0,0,0,hexagon,triangle,,,,,,,,,,,,,,,,,,,,,,,,,,,,,,,,,,,,,,,,,,,,,,,,,,,,,,
298351,2022-12-07_24h22.50.583,vts_reward_expectancy_bt,2022.2.4,Win32,57.92064871,Chrome,1536,864,,,a,2.7865,1,243,0,2,11,35,8,1,0,0,1,0,0,0,0,1,hexagon,star,,,,,,,,,,,,,,,,,,,,,,,,,,,,,,,,,,,,,,,,,,,,,,,,,,,,,,
298351,2022-12-07_24h22.50.583,vts_reward_expectancy_bt,2022.2.4,Win32,57.92064871,Chrome,1536,864,,,l,2.4226,10,253,1,0,0,0,11,1,0,0,0,1,0,0,1,0,star,hexagon,,,,,,,,,,,,,,,,,,,,,,,,,,,,,,,,,,,,,,,,,,,,,,,,,,,,,,
298351,2022-12-07_24h22.50.583,vts_reward_expectancy_bt,2022.2.4,Win32,57.92064871,Chrome,1536,864,,,l,1.0501,10,263,1,0,1,1,6,1,0,0,1,0,1,0,0,0,hexagon,triangle,,,,,,,,,,,,,,,,,,,,,,,,,,,,,,,,,,,,,,,,,,,,,,,,,,,,,,
298351,2022-12-07_24h22.50.583,vts_reward_expectancy_bt,2022.2.4,Win32,57.92064871,Chrome,1536,864,,,l,1.1917,10,273,1,0,2,2,10,1,0,0,0,1,0,1,0,0,star ,circle,,,,,,,,,,,,,,,,,,,,,,,,,,,,,,,,,,,,,,,,,,,,,,,,,,,,,,
298351,2022-12-07_24h22.50.583,vts_reward_expectancy_bt,2022.2.4,Win32,57.92064871,Chrome,1536,864,,,l,0.737,10,283,1,0,3,3,9,1,0,0,0,1,1,0,0,0,star,triangle,,,,,,,,,,,,,,,,,,,,,,,,,,,,,,,,,,,,,,,,,,,,,,,,,,,,,,
298351,2022-12-07_24h22.50.583,vts_reward_expectancy_bt,2022.2.4,Win32,57.92064871,Chrome,1536,864,,,a,0.6843,10,293,1,0,4,4,2,1,1,0,0,0,0,0,0,1,triangle,star,,,,,,,,,,,,,,,,,,,,,,,,,,,,,,,,,,,,,,,,,,,,,,,,,,,,,,
298351,2022-12-07_24h22.50.583,vts_reward_expectancy_bt,2022.2.4,Win32,57.92064871,Chrome,1536,864,,,a,0.6182,10,303,1,0,5,5,5,1,0,1,0,0,0,0,0,1,circle,star,,,,,,,,,,,,,,,,,,,,,,,,,,,,,,,,,,,,,,,,,,,,,,,,,,,,,,
298351,2022-12-07_24h22.50.583,vts_reward_expectancy_bt,2022.2.4,Win32,57.92064871,Chrome,1536,864,,,a,1.3647,1,304,1,0,6,6,1,1,1,0,0,0,0,0,1,0,triangle,hexagon,,,,,,,,,,,,,,,,,,,,,,,,,,,,,,,,,,,,,,,,,,,,,,,,,,,,,,
298351,2022-12-07_24h22.50.583,vts_reward_expectancy_bt,2022.2.4,Win32,57.92064871,Chrome,1536,864,,,l,1.351,10,314,1,0,7,7,0,1,1,0,0,0,0,1,0,0,triangle,circle,,,,,,,,,,,,,,,,,,,,,,,,,,,,,,,,,,,,,,,,,,,,,,,,,,,,,,
298351,2022-12-07_24h22.50.583,vts_reward_expectancy_bt,2022.2.4,Win32,57.92064871,Chrome,1536,864,,,l,3.9152,10,324,1,0,8,8,7,1,0,0,1,0,0,1,0,0,hexagon,circle,,,,,,,,,,,,,,,,,,,,,,,,,,,,,,,,,,,,,,,,,,,,,,,,,,,,,,
298351,2022-12-07_24h22.50.583,vts_reward_expectancy_bt,2022.2.4,Win32,57.92064871,Chrome,1536,864,,,a,2.6197,10,334,1,0,9,9,4,1,0,1,0,0,0,0,1,0,circle,hexagon,,,,,,,,,,,,,,,,,,,,,,,,,,,,,,,,,,,,,,,,,,,,,,,,,,,,,,
298351,2022-12-07_24h22.50.583,vts_reward_expectancy_bt,2022.2.4,Win32,57.92064871,Chrome,1536,864,,,a,5.7511,1,335,1,0,10,10,8,1,0,0,1,0,0,0,0,1,hexagon,star,,,,,,,,,,,,,,,,,,,,,,,,,,,,,,,,,,,,,,,,,,,,,,,,,,,,,,
298351,2022-12-07_24h22.50.583,vts_reward_expectancy_bt,2022.2.4,Win32,57.92064871,Chrome,1536,864,,,a,7.2489,10,345,1,0,11,11,3,1,0,1,0,0,1,0,0,0,circle,triangle,,,,,,,,,,,,,,,,,,,,,,,,,,,,,,,,,,,,,,,,,,,,,,,,,,,,,,
298351,2022-12-07_24h22.50.583,vts_reward_expectancy_bt,2022.2.4,Win32,57.92064871,Chrome,1536,864,,,a,1.4787,1,346,1,1,0,12,1,1,1,0,0,0,0,0,1,0,triangle,hexagon,,,,,,,,,,,,,,,,,,,,,,,,,,,,,,,,,,,,,,,,,,,,,,,,,,,,,,
298351,2022-12-07_24h22.50.583,vts_reward_expectancy_bt,2022.2.4,Win32,57.92064871,Chrome,1536,864,,,l,4.0349,10,356,1,1,1,13,6,1,0,0,1,0,1,0,0,0,hexagon,triangle,,,,,,,,,,,,,,,,,,,,,,,,,,,,,,,,,,,,,,,,,,,,,,,,,,,,,,
298351,2022-12-07_24h22.50.583,vts_reward_expectancy_bt,2022.2.4,Win32,57.92064871,Chrome,1536,864,,,l,7.213,1,357,1,1,2,14,11,1,0,0,0,1,0,0,1,0,star,hexagon,,,,,,,,,,,,,,,,,,,,,,,,,,,,,,,,,,,,,,,,,,,,,,,,,,,,,,
298351,2022-12-07_24h22.50.583,vts_reward_expectancy_bt,2022.2.4,Win32,57.92064871,Chrome,1536,864,,,a,1.9712,10,367,1,1,3,15,5,1,0,1,0,0,0,0,0,1,circle,star,,,,,,,,,,,,,,,,,,,,,,,,,,,,,,,,,,,,,,,,,,,,,,,,,,,,,,
298351,2022-12-07_24h22.50.583,vts_reward_expectancy_bt,2022.2.4,Win32,57.92064871,Chrome,1536,864,,,a,8.0194,1,368,1,1,4,16,8,1,0,0,1,0,0,0,0,1,hexagon,star,,,,,,,,,,,,,,,,,,,,,,,,,,,,,,,,,,,,,,,,,,,,,,,,,,,,,,
298351,2022-12-07_24h22.50.583,vts_reward_expectancy_bt,2022.2.4,Win32,57.92064871,Chrome,1536,864,,,l,0.7898,10,378,1,1,5,17,10,1,0,0,0,1,0,1,0,0,star ,circle,,,,,,,,,,,,,,,,,,,,,,,,,,,,,,,,,,,,,,,,,,,,,,,,,,,,,,
298351,2022-12-07_24h22.50.583,vts_reward_expectancy_bt,2022.2.4,Win32,57.92064871,Chrome,1536,864,,,a,1.5071,10,388,1,1,6,18,4,1,0,1,0,0,0,0,1,0,circle,hexagon,,,,,,,,,,,,,,,,,,,,,,,,,,,,,,,,,,,,,,,,,,,,,,,,,,,,,,
298351,2022-12-07_24h22.50.583,vts_reward_expectancy_bt,2022.2.4,Win32,57.92064871,Chrome,1536,864,,,l,2.0578,10,398,1,1,7,19,9,1,0,0,0,1,1,0,0,0,star,triangle,,,,,,,,,,,,,,,,,,,,,,,,,,,,,,,,,,,,,,,,,,,,,,,,,,,,,,
298351,2022-12-07_24h22.50.583,vts_reward_expectancy_bt,2022.2.4,Win32,57.92064871,Chrome,1536,864,,,a,2.0763,10,408,1,1,8,20,3,1,0,1,0,0,1,0,0,0,circle,triangle,,,,,,,,,,,,,,,,,,,,,,,,,,,,,,,,,,,,,,,,,,,,,,,,,,,,,,
298351,2022-12-07_24h22.50.583,vts_reward_expectancy_bt,2022.2.4,Win32,57.92064871,Chrome,1536,864,,,l,0.9953,10,418,1,1,9,21,7,1,0,0,1,0,0,1,0,0,hexagon,circle,,,,,,,,,,,,,,,,,,,,,,,,,,,,,,,,,,,,,,,,,,,,,,,,,,,,,,
298351,2022-12-07_24h22.50.583,vts_reward_expectancy_bt,2022.2.4,Win32,57.92064871,Chrome,1536,864,,,a,1.6393,1,419,1,1,10,22,2,1,1,0,0,0,0,0,0,1,triangle,star,,,,,,,,,,,,,,,,,,,,,,,,,,,,,,,,,,,,,,,,,,,,,,,,,,,,,,
298351,2022-12-07_24h22.50.583,vts_reward_expectancy_bt,2022.2.4,Win32,57.92064871,Chrome,1536,864,,,l,0.9852,10,429,1,1,11,23,0,1,1,0,0,0,0,1,0,0,triangle,circle,,,,,,,,,,,,,,,,,,,,,,,,,,,,,,,,,,,,,,,,,,,,,,,,,,,,,,
298351,2022-12-07_24h22.50.583,vts_reward_expectancy_bt,2022.2.4,Win32,57.92064871,Chrome,1536,864,,,l,1.8196,10,439,1,2,0,24,9,1,0,0,0,1,1,0,0,0,star,triangle,,,,,,,,,,,,,,,,,,,,,,,,,,,,,,,,,,,,,,,,,,,,,,,,,,,,,,
298351,2022-12-07_24h22.50.583,vts_reward_expectancy_bt,2022.2.4,Win32,57.92064871,Chrome,1536,864,,,l,1.3827,1,440,1,2,1,25,2,1,1,0,0,0,0,0,0,1,triangle,star,,,,,,,,,,,,,,,,,,,,,,,,,,,,,,,,,,,,,,,,,,,,,,,,,,,,,,
298351,2022-12-07_24h22.50.583,vts_reward_expectancy_bt,2022.2.4,Win32,57.92064871,Chrome,1536,864,,,l,0.716,1,441,1,2,2,26,1,1,1,0,0,0,0,0,1,0,triangle,hexagon,,,,,,,,,,,,,,,,,,,,,,,,,,,,,,,,,,,,,,,,,,,,,,,,,,,,,,
298351,2022-12-07_24h22.50.583,vts_reward_expectancy_bt,2022.2.4,Win32,57.92064871,Chrome,1536,864,,,a,0.5011,10,451,1,2,3,27,6,1,0,0,1,0,1,0,0,0,hexagon,triangle,,,,,,,,,,,,,,,,,,,,,,,,,,,,,,,,,,,,,,,,,,,,,,,,,,,,,,
298351,2022-12-07_24h22.50.583,vts_reward_expectancy_bt,2022.2.4,Win32,57.92064871,Chrome,1536,864,,,a,1.1524,10,461,1,2,4,28,0,1,1,0,0,0,0,1,0,0,triangle,circle,,,,,,,,,,,,,,,,,,,,,,,,,,,,,,,,,,,,,,,,,,,,,,,,,,,,,,
298351,2022-12-07_24h22.50.583,vts_reward_expectancy_bt,2022.2.4,Win32,57.92064871,Chrome,1536,864,,,a,2.4532,10,471,1,2,5,29,10,1,0,0,0,1,0,1,0,0,star ,circle,,,,,,,,,,,,,,,,,,,,,,,,,,,,,,,,,,,,,,,,,,,,,,,,,,,,,,
298351,2022-12-07_24h22.50.583,vts_reward_expectancy_bt,2022.2.4,Win32,57.92064871,Chrome,1536,864,,,l,0.4171,10,481,1,2,6,30,5,1,0,1,0,0,0,0,0,1,circle,star,,,,,,,,,,,,,,,,,,,,,,,,,,,,,,,,,,,,,,,,,,,,,,,,,,,,,,
298351,2022-12-07_24h22.50.583,vts_reward_expectancy_bt,2022.2.4,Win32,57.92064871,Chrome,1536,864,,,a,0.2521,1,482,1,2,7,31,7,1,0,0,1,0,0,1,0,0,hexagon,circle,,,,,,,,,,,,,,,,,,,,,,,,,,,,,,,,,,,,,,,,,,,,,,,,,,,,,,
298351,2022-12-07_24h22.50.583,vts_reward_expectancy_bt,2022.2.4,Win32,57.92064871,Chrome,1536,864,,,l,0.8677,1,483,1,2,8,32,11,1,0,0,0,1,0,0,1,0,star,hexagon,,,,,,,,,,,,,,,,,,,,,,,,,,,,,,,,,,,,,,,,,,,,,,,,,,,,,,
298351,2022-12-07_24h22.50.583,vts_reward_expectancy_bt,2022.2.4,Win32,57.92064871,Chrome,1536,864,,,l,0.9374,1,484,1,2,9,33,8,1,0,0,1,0,0,0,0,1,hexagon,star,,,,,,,,,,,,,,,,,,,,,,,,,,,,,,,,,,,,,,,,,,,,,,,,,,,,,,
298351,2022-12-07_24h22.50.583,vts_reward_expectancy_bt,2022.2.4,Win32,57.92064871,Chrome,1536,864,,,a,0.7467,10,494,1,2,10,34,4,1,0,1,0,0,0,0,1,0,circle,hexagon,,,,,,,,,,,,,,,,,,,,,,,,,,,,,,,,,,,,,,,,,,,,,,,,,,,,,,
298351,2022-12-07_24h22.50.583,vts_reward_expectancy_bt,2022.2.4,Win32,57.92064871,Chrome,1536,864,,,a,0.7868,10,504,1,2,11,35,3,1,0,1,0,0,1,0,0,0,circle,triangle,,,,,,,,,,,,,,,,,,,,,,,,,,,,,,,,,,,,,,,,,,,,,,,,,,,,,,
298351,2022-12-07_24h22.50.583,vts_reward_expectancy_bt,2022.2.4,Win32,57.92064871,Chrome,1536,864,,,a,3.0481,1,505,2,0,0,0,8,1,0,0,1,0,0,0,0,1,hexagon,star,,,,,,,,,,,,,,,,,,,,,,,,,,,,,,,,,,,,,,,,,,,,,,,,,,,,,,
298351,2022-12-07_24h22.50.583,vts_reward_expectancy_bt,2022.2.4,Win32,57.92064871,Chrome,1536,864,,,a,2.2919,10,515,2,0,1,1,3,1,0,1,0,0,1,0,0,0,circle,triangle,,,,,,,,,,,,,,,,,,,,,,,,,,,,,,,,,,,,,,,,,,,,,,,,,,,,,,
298351,2022-12-07_24h22.50.583,vts_reward_expectancy_bt,2022.2.4,Win32,57.92064871,Chrome,1536,864,,,a,1.9376,1,516,2,0,2,2,1,1,1,0,0,0,0,0,1,0,triangle,hexagon,,,,,,,,,,,,,,,,,,,,,,,,,,,,,,,,,,,,,,,,,,,,,,,,,,,,,,
298351,2022-12-07_24h22.50.583,vts_reward_expectancy_bt,2022.2.4,Win32,57.92064871,Chrome,1536,864,,,l,1.6539,1,517,2,0,3,3,6,1,0,0,1,0,1,0,0,0,hexagon,triangle,,,,,,,,,,,,,,,,,,,,,,,,,,,,,,,,,,,,,,,,,,,,,,,,,,,,,,
298351,2022-12-07_24h22.50.583,vts_reward_expectancy_bt,2022.2.4,Win32,57.92064871,Chrome,1536,864,,,a,0.9807,10,527,2,0,4,4,4,1,0,1,0,0,0,0,1,0,circle,hexagon,,,,,,,,,,,,,,,,,,,,,,,,,,,,,,,,,,,,,,,,,,,,,,,,,,,,,,
298351,2022-12-07_24h22.50.583,vts_reward_expectancy_bt,2022.2.4,Win32,57.92064871,Chrome,1536,864,,,l,5.1174,10,537,2,0,5,5,0,1,1,0,0,0,0,1,0,0,triangle,circle,,,,,,,,,,,,,,,,,,,,,,,,,,,,,,,,,,,,,,,,,,,,,,,,,,,,,,
298351,2022-12-07_24h22.50.583,vts_reward_expectancy_bt,2022.2.4,Win32,57.92064871,Chrome,1536,864,,,a,1.8243,10,547,2,0,6,6,5,1,0,1,0,0,0,0,0,1,circle,star,,,,,,,,,,,,,,,,,,,,,,,,,,,,,,,,,,,,,,,,,,,,,,,,,,,,,,
298351,2022-12-07_24h22.50.583,vts_reward_expectancy_bt,2022.2.4,Win32,57.92064871,Chrome,1536,864,,,l,2.2335,10,557,2,0,7,7,7,1,0,0,1,0,0,1,0,0,hexagon,circle,,,,,,,,,,,,,,,,,,,,,,,,,,,,,,,,,,,,,,,,,,,,,,,,,,,,,,
298351,2022-12-07_24h22.50.583,vts_reward_expectancy_bt,2022.2.4,Win32,57.92064871,Chrome,1536,864,,,l,4.0691,10,567,2,0,8,8,10,1,0,0,0,1,0,1,0,0,star ,circle,,,,,,,,,,,,,,,,,,,,,,,,,,,,,,,,,,,,,,,,,,,,,,,,,,,,,,
298351,2022-12-07_24h22.50.583,vts_reward_expectancy_bt,2022.2.4,Win32,57.92064871,Chrome,1536,864,,,a,5.1213,1,568,2,0,9,9,11,1,0,0,0,1,0,0,1,0,star,hexagon,,,,,,,,,,,,,,,,,,,,,,,,,,,,,,,,,,,,,,,,,,,,,,,,,,,,,,
298351,2022-12-07_24h22.50.583,vts_reward_expectancy_bt,2022.2.4,Win32,57.92064871,Chrome,1536,864,,,l,1.1977,10,578,2,0,10,10,9,1,0,0,0,1,1,0,0,0,star,triangle,,,,,,,,,,,,,,,,,,,,,,,,,,,,,,,,,,,,,,,,,,,,,,,,,,,,,,
298351,2022-12-07_24h22.50.583,vts_reward_expectancy_bt,2022.2.4,Win32,57.92064871,Chrome,1536,864,,,a,0.6839,1,579,2,0,11,11,2,1,1,0,0,0,0,0,0,1,triangle,star,,,,,,,,,,,,,,,,,,,,,,,,,,,,,,,,,,,,,,,,,,,,,,,,,,,,,,
298351,2022-12-07_24h22.50.583,vts_reward_expectancy_bt,2022.2.4,Win32,57.92064871,Chrome,1536,864,,,l,0.6342,1,580,2,1,0,12,11,1,0,0,0,1,0,0,1,0,star,hexagon,,,,,,,,,,,,,,,,,,,,,,,,,,,,,,,,,,,,,,,,,,,,,,,,,,,,,,
298351,2022-12-07_24h22.50.583,vts_reward_expectancy_bt,2022.2.4,Win32,57.92064871,Chrome,1536,864,,,a,0.811,10,590,2,1,1,13,4,1,0,1,0,0,0,0,1,0,circle,hexagon,,,,,,,,,,,,,,,,,,,,,,,,,,,,,,,,,,,,,,,,,,,,,,,,,,,,,,
298351,2022-12-07_24h22.50.583,vts_reward_expectancy_bt,2022.2.4,Win32,57.92064871,Chrome,1536,864,,,a,1.2151,1,591,2,1,2,14,8,1,0,0,1,0,0,0,0,1,hexagon,star,,,,,,,,,,,,,,,,,,,,,,,,,,,,,,,,,,,,,,,,,,,,,,,,,,,,,,
298351,2022-12-07_24h22.50.583,vts_reward_expectancy_bt,2022.2.4,Win32,57.92064871,Chrome,1536,864,,,l,0.4733,10,601,2,1,3,15,0,1,1,0,0,0,0,1,0,0,triangle,circle,,,,,,,,,,,,,,,,,,,,,,,,,,,,,,,,,,,,,,,,,,,,,,,,,,,,,,
298351,2022-12-07_24h22.50.583,vts_reward_expectancy_bt,2022.2.4,Win32,57.92064871,Chrome,1536,864,,,a,0.3018,10,611,2,1,4,16,10,1,0,0,0,1,0,1,0,0,star ,circle,,,,,,,,,,,,,,,,,,,,,,,,,,,,,,,,,,,,,,,,,,,,,,,,,,,,,,
298351,2022-12-07_24h22.50.583,vts_reward_expectancy_bt,2022.2.4,Win32,57.92064871,Chrome,1536,864,,,l,0.6334,1,612,2,1,5,17,2,1,1,0,0,0,0,0,0,1,triangle,star,,,,,,,,,,,,,,,,,,,,,,,,,,,,,,,,,,,,,,,,,,,,,,,,,,,,,,
298351,2022-12-07_24h22.50.583,vts_reward_expectancy_bt,2022.2.4,Win32,57.92064871,Chrome,1536,864,,,a,0.3512,10,622,2,1,6,18,1,1,1,0,0,0,0,0,1,0,triangle,hexagon,,,,,,,,,,,,,,,,,,,,,,,,,,,,,,,,,,,,,,,,,,,,,,,,,,,,,,
298351,2022-12-07_24h22.50.583,vts_reward_expectancy_bt,2022.2.4,Win32,57.92064871,Chrome,1536,864,,,l,0.8263,10,632,2,1,7,19,9,1,0,0,0,1,1,0,0,0,star,triangle,,,,,,,,,,,,,,,,,,,,,,,,,,,,,,,,,,,,,,,,,,,,,,,,,,,,,,
298351,2022-12-07_24h22.50.583,vts_reward_expectancy_bt,2022.2.4,Win32,57.92064871,Chrome,1536,864,,,a,0.4828,1,633,2,1,8,20,6,1,0,0,1,0,1,0,0,0,hexagon,triangle,,,,,,,,,,,,,,,,,,,,,,,,,,,,,,,,,,,,,,,,,,,,,,,,,,,,,,
298351,2022-12-07_24h22.50.583,vts_reward_expectancy_bt,2022.2.4,Win32,57.92064871,Chrome,1536,864,,,l,0.3501,1,634,2,1,9,21,5,1,0,1,0,0,0,0,0,1,circle,star,,,,,,,,,,,,,,,,,,,,,,,,,,,,,,,,,,,,,,,,,,,,,,,,,,,,,,
298351,2022-12-07_24h22.50.583,vts_reward_expectancy_bt,2022.2.4,Win32,57.92064871,Chrome,1536,864,,,a,0.168,1,635,2,1,10,22,7,1,0,0,1,0,0,1,0,0,hexagon,circle,,,,,,,,,,,,,,,,,,,,,,,,,,,,,,,,,,,,,,,,,,,,,,,,,,,,,,
298351,2022-12-07_24h22.50.583,vts_reward_expectancy_bt,2022.2.4,Win32,57.92064871,Chrome,1536,864,,,l,0.335,10,645,2,1,11,23,3,1,0,1,0,0,1,0,0,0,circle,triangle,,,,,,,,,,,,,,,,,,,,,,,,,,,,,,,,,,,,,,,,,,,,,,,,,,,,,,
298351,2022-12-07_24h22.50.583,vts_reward_expectancy_bt,2022.2.4,Win32,57.92064871,Chrome,1536,864,,,a,0.4843,10,655,2,2,0,24,8,1,0,0,1,0,0,0,0,1,hexagon,star,,,,,,,,,,,,,,,,,,,,,,,,,,,,,,,,,,,,,,,,,,,,,,,,,,,,,,
298351,2022-12-07_24h22.50.583,vts_reward_expectancy_bt,2022.2.4,Win32,57.92064871,Chrome,1536,864,,,a,0.3628,10,665,2,2,1,25,4,1,0,1,0,0,0,0,1,0,circle,hexagon,,,,,,,,,,,,,,,,,,,,,,,,,,,,,,,,,,,,,,,,,,,,,,,,,,,,,,
298351,2022-12-07_24h22.50.583,vts_reward_expectancy_bt,2022.2.4,Win32,57.92064871,Chrome,1536,864,,,l,0.393,1,666,2,2,2,26,6,1,0,0,1,0,1,0,0,0,hexagon,triangle,,,,,,,,,,,,,,,,,,,,,,,,,,,,,,,,,,,,,,,,,,,,,,,,,,,,,,
298351,2022-12-07_24h22.50.583,vts_reward_expectancy_bt,2022.2.4,Win32,57.92064871,Chrome,1536,864,,,l,0.3634,1,667,2,2,3,27,7,1,0,0,1,0,0,1,0,0,hexagon,circle,,,,,,,,,,,,,,,,,,,,,,,,,,,,,,,,,,,,,,,,,,,,,,,,,,,,,,
298351,2022-12-07_24h22.50.583,vts_reward_expectancy_bt,2022.2.4,Win32,57.92064871,Chrome,1536,864,,,a,0.4238,10,677,2,2,4,28,11,1,0,0,0,1,0,0,1,0,star,hexagon,,,,,,,,,,,,,,,,,,,,,,,,,,,,,,,,,,,,,,,,,,,,,,,,,,,,,,
298351,2022-12-07_24h22.50.583,vts_reward_expectancy_bt,2022.2.4,Win32,57.92064871,Chrome,1536,864,,,l,0.6635,1,678,2,2,5,29,5,1,0,1,0,0,0,0,0,1,circle,star,,,,,,,,,,,,,,,,,,,,,,,,,,,,,,,,,,,,,,,,,,,,,,,,,,,,,,
298351,2022-12-07_24h22.50.583,vts_reward_expectancy_bt,2022.2.4,Win32,57.92064871,Chrome,1536,864,,,a,1.3509,10,688,2,2,6,30,1,1,1,0,0,0,0,0,1,0,triangle,hexagon,,,,,,,,,,,,,,,,,,,,,,,,,,,,,,,,,,,,,,,,,,,,,,,,,,,,,,
298351,2022-12-07_24h22.50.583,vts_reward_expectancy_bt,2022.2.4,Win32,57.92064871,Chrome,1536,864,,,a,0.8053,1,689,2,2,7,31,9,1,0,0,0,1,1,0,0,0,star,triangle,,,,,,,,,,,,,,,,,,,,,,,,,,,,,,,,,,,,,,,,,,,,,,,,,,,,,,
298351,2022-12-07_24h22.50.583,vts_reward_expectancy_bt,2022.2.4,Win32,57.92064871,Chrome,1536,864,,,a,12.401,10,699,2,2,8,32,3,1,0,1,0,0,1,0,0,0,circle,triangle,,,,,,,,,,,,,,,,,,,,,,,,,,,,,,,,,,,,,,,,,,,,,,,,,,,,,,
298351,2022-12-07_24h22.50.583,vts_reward_expectancy_bt,2022.2.4,Win32,57.92064871,Chrome,1536,864,,,l,5.3774,10,709,2,2,9,33,10,1,0,0,0,1,0,1,0,0,star ,circle,,,,,,,,,,,,,,,,,,,,,,,,,,,,,,,,,,,,,,,,,,,,,,,,,,,,,,
298351,2022-12-07_24h22.50.583,vts_reward_expectancy_bt,2022.2.4,Win32,57.92064871,Chrome,1536,864,,,l,1.8252,10,719,2,2,10,34,0,1,1,0,0,0,0,1,0,0,triangle,circle,,,,,,,,,,,,,,,,,,,,,,,,,,,,,,,,,,,,,,,,,,,,,,,,,,,,,,
298351,2022-12-07_24h22.50.583,vts_reward_expectancy_bt,2022.2.4,Win32,57.92064871,Chrome,1536,864,,,l,9.235,10,729,2,2,11,35,2,1,1,0,0,0,0,0,0,1,triangle,star,,,,,,,,,,,,,,,,,,,,,,,,,,,,,,,,,,,,,,,,,,,,,,,,,,,,,,
298351,2022-12-07_24h22.50.583,vts_reward_expectancy_bt,2022.2.4,Win32,57.92064871,Chrome,1536,864,,,,,,,,,,,,,,,,,,,,,,,132,U,hexagon,1,0,d,1.748,0,0,0,0,0,1,,,,,,,,,,,,,,,,,,,,,,,,,,,,,,,,,,,,,,,,,
298351,2022-12-07_24h22.50.583,vts_reward_expectancy_bt,2022.2.4,Win32,57.92064871,Chrome,1536,864,,,,,,,,,,,,,,,,,,,,,,,160,D,triangle,1,0,f,0.8667,0,1,0,1,0,1,,,,,,,,,,,,,,,,,,,,,,,,,,,,,,,,,,,,,,,,,
298351,2022-12-07_24h22.50.583,vts_reward_expectancy_bt,2022.2.4,Win32,57.92064871,Chrome,1536,864,,,,,,,,,,,,,,,,,,,,,,,167,S,star,1,0,f,0.9272,0,2,0,2,0,1,,,,,,,,,,,,,,,,,,,,,,,,,,,,,,,,,,,,,,,,,
298351,2022-12-07_24h22.50.583,vts_reward_expectancy_bt,2022.2.4,Win32,57.92064871,Chrome,1536,864,,,,,,,,,,,,,,,,,,,,,,,139,W,circle,1,0,d,0.6783,0,3,0,3,0,1,,,,,,,,,,,,,,,,,,,,,,,,,,,,,,,,,,,,,,,,,
298351,2022-12-07_24h22.50.583,vts_reward_expectancy_bt,2022.2.4,Win32,57.92064871,Chrome,1536,864,,,,,,,,,,,,,,,,,,,,,,,174,B,hexagon,1,0,f,0.5493,0,4,0,4,0,1,,,,,,,,,,,,,,,,,,,,,,,,,,,,,,,,,,,,,,,,,
298351,2022-12-07_24h22.50.583,vts_reward_expectancy_bt,2022.2.4,Win32,57.92064871,Chrome,1536,864,,,,,,,,,,,,,,,,,,,,,,,181,F,triangle,1,0,f,0.4749,0,5,0,5,0,1,,,,,,,,,,,,,,,,,,,,,,,,,,,,,,,,,,,,,,,,,
298351,2022-12-07_24h22.50.583,vts_reward_expectancy_bt,2022.2.4,Win32,57.92064871,Chrome,1536,864,,,,,,,,,,,,,,,,,,,,,,,125,H,star,1,0,d,0.5052,0,6,0,6,0,1,,,,,,,,,,,,,,,,,,,,,,,,,,,,,,,,,,,,,,,,,
298351,2022-12-07_24h22.50.583,vts_reward_expectancy_bt,2022.2.4,Win32,57.92064871,Chrome,1536,864,,,,,,,,,,,,,,,,,,,,,,,146,Y,circle,1,0,d,0.5659,0,7,0,7,0,1,,,,,,,,,,,,,,,,,,,,,,,,,,,,,,,,,,,,,,,,,
298351,2022-12-07_24h22.50.583,vts_reward_expectancy_bt,2022.2.4,Win32,57.92064871,Chrome,1536,864,,,,,,,,,,,,,,,,,,,,,,,132,U,star,1,0,d,0.561,0,8,0,8,0,1,,,,,,,,,,,,,,,,,,,,,,,,,,,,,,,,,,,,,,,,,
298351,2022-12-07_24h22.50.583,vts_reward_expectancy_bt,2022.2.4,Win32,57.92064871,Chrome,1536,864,,,,,,,,,,,,,,,,,,,,,,,160,D,triangle,1,0,f,0.4514,0,9,0,9,0,1,,,,,,,,,,,,,,,,,,,,,,,,,,,,,,,,,,,,,,,,,
298351,2022-12-07_24h22.50.583,vts_reward_expectancy_bt,2022.2.4,Win32,57.92064871,Chrome,1536,864,,,,,,,,,,,,,,,,,,,,,,,167,D,triangle,1,0,,,1,,,,,,j,0.8656,0,0,0,0,1,,,,,,,,,,,,,,,,,,,,,,,,,,,,,,,,,,
298351,2022-12-07_24h22.50.583,vts_reward_expectancy_bt,2022.2.4,Win32,57.92064871,Chrome,1536,864,,,,,,,,,,,,,,,,,,,,,,,174,U,circle,1,0,,,1,,,,,,k,0.8025,1,0,1,0,1,,,,,,,,,,,,,,,,,,,,,,,,,,,,,,,,,,
298351,2022-12-07_24h22.50.583,vts_reward_expectancy_bt,2022.2.4,Win32,57.92064871,Chrome,1536,864,,,,,,,,,,,,,,,,,,,,,,,181,H,hexagon,1,0,,,1,,,,,,j,1.167,2,0,2,0,1,,,,,,,,,,,,,,,,,,,,,,,,,,,,,,,,,,
298351,2022-12-07_24h22.50.583,vts_reward_expectancy_bt,2022.2.4,Win32,57.92064871,Chrome,1536,864,,,,,,,,,,,,,,,,,,,,,,,139,S,star,1,0,,,1,,,,,,k,0.8845,3,0,3,0,1,,,,,,,,,,,,,,,,,,,,,,,,,,,,,,,,,,
298351,2022-12-07_24h22.50.583,vts_reward_expectancy_bt,2022.2.4,Win32,57.92064871,Chrome,1536,864,,,,,,,,,,,,,,,,,,,,,,,146,F,triangle,1,0,,,1,,,,,,j,0.8661,4,0,4,0,1,,,,,,,,,,,,,,,,,,,,,,,,,,,,,,,,,,
298351,2022-12-07_24h22.50.583,vts_reward_expectancy_bt,2022.2.4,Win32,57.92064871,Chrome,1536,864,,,,,,,,,,,,,,,,,,,,,,,160,W,circle,1,0,,,1,,,,,,k,0.7264,5,0,5,0,1,,,,,,,,,,,,,,,,,,,,,,,,,,,,,,,,,,
298351,2022-12-07_24h22.50.583,vts_reward_expectancy_bt,2022.2.4,Win32,57.92064871,Chrome,1536,864,,,,,,,,,,,,,,,,,,,,,,,132,B,hexagon,1,0,,,1,,,,,,j,0.7917,6,0,6,0,1,,,,,,,,,,,,,,,,,,,,,,,,,,,,,,,,,,
298351,2022-12-07_24h22.50.583,vts_reward_expectancy_bt,2022.2.4,Win32,57.92064871,Chrome,1536,864,,,,,,,,,,,,,,,,,,,,,,,125,Y,star,1,0,,,1,,,,,,k,2.7491,7,0,7,0,1,,,,,,,,,,,,,,,,,,,,,,,,,,,,,,,,,,
298351,2022-12-07_24h22.50.583,vts_reward_expectancy_bt,2022.2.4,Win32,57.92064871,Chrome,1536,864,,,,,,,,,,,,,,,,,,,,,,,167,D,star,1,0,,,1,,,,,,j,0.843,8,0,8,0,1,,,,,,,,,,,,,,,,,,,,,,,,,,,,,,,,,,
298351,2022-12-07_24h22.50.583,vts_reward_expectancy_bt,2022.2.4,Win32,57.92064871,Chrome,1536,864,,,,,,,,,,,,,,,,,,,,,,,174,U,hexagon,1,0,,,1,,,,,,k,0.8673,9,0,9,0,1,,,,,,,,,,,,,,,,,,,,,,,,,,,,,,,,,,
298351,2022-12-07_24h22.50.583,vts_reward_expectancy_bt,2022.2.4,Win32,57.92064871,Chrome,1536,864,,,,,0,729,,,,,,,,,,,,,,,,,146,U,circle,1,0,,,2,,,,,,,,,,,,,-1,letter,NA,k,2.4417,vtsPrac,0,0,0,0,1,,,,,,,,,,,,,,,,,,,,,,,
298351,2022-12-07_24h22.50.583,vts_reward_expectancy_bt,2022.2.4,Win32,57.92064871,Chrome,1536,864,,,,,0,729,,,,,,,,,,,,,,,,,181,D,triangle,1,0,,,2,,,,,,,,,,,,,switch,number,numSwt,f,1.3282,vtsPrac,1,0,1,0,1,,,,,,,,,,,,,,,,,,,,,,,
298351,2022-12-07_24h22.50.583,vts_reward_expectancy_bt,2022.2.4,Win32,57.92064871,Chrome,1536,864,,,,,0,729,,,,,,,,,,,,,,,,,139,Y,circle,1,0,,,2,,,,,,,,,,,,,switch,letter,lettSwt,k,0.9151,vtsPrac,2,0,2,0,1,,,,,,,,,,,,,,,,,,,,,,,
298351,2022-12-07_24h22.50.583,vts_reward_expectancy_bt,2022.2.4,Win32,57.92064871,Chrome,1536,864,,,,,0,729,,,,,,,,,,,,,,,,,132,B,triangle,1,0,,,2,,,,,,,,,,,,,repeat,letter,lettRpt,j,0.6336,vtsPrac,3,0,3,0,1,,,,,,,,,,,,,,,,,,,,,,,
298351,2022-12-07_24h22.50.583,vts_reward_expectancy_bt,2022.2.4,Win32,57.92064871,Chrome,1536,864,,,,,0,729,,,,,,,,,,,,,,,,,146,U,triangle,1,0,,,2,,,,,,,,,,,,,repeat,letter,lettRpt,k,0.8663,vtsPrac,4,0,4,0,1,,,,,,,,,,,,,,,,,,,,,,,
298351,2022-12-07_24h22.50.583,vts_reward_expectancy_bt,2022.2.4,Win32,57.92064871,Chrome,1536,864,,,,,0,729,,,,,,,,,,,,,,,,,181,D,circle,1,0,,,2,,,,,,,,,,,,,switch,number,numSwt,f,1.0981,vtsPrac,5,0,5,0,1,,,,,,,,,,,,,,,,,,,,,,,
298351,2022-12-07_24h22.50.583,vts_reward_expectancy_bt,2022.2.4,Win32,57.92064871,Chrome,1536,864,,,,,0,729,,,,,,,,,,,,,,,,,139,Y,circle,1,0,,,2,,,,,,,,,,,,,switch,letter,lettSwt,k,0.9771,vtsPrac,6,0,6,0,1,,,,,,,,,,,,,,,,,,,,,,,
298351,2022-12-07_24h22.50.583,vts_reward_expectancy_bt,2022.2.4,Win32,57.92064871,Chrome,1536,864,,,,,0,729,,,,,,,,,,,,,,,,,132,B,triangle,-1,0,,,2,,,,,,,,,,,,,switch,no_choice,NA,,,vtsPrac,7,0,7,0,1,,,,,,,,,,,,,,,,,,,,,,,
298351,2022-12-07_24h22.50.583,vts_reward_expectancy_bt,2022.2.4,Win32,57.92064871,Chrome,1536,864,,,,,0,729,,,,,,,,,,,,,,,,,174,U,circle,1,0,,,2,,,,,,,,,,,,,switch,number,numSwt,f,1.2622,vtsPrac,8,0,8,0,1,,,,,,,,,,,,,,,,,,,,,,,
298351,2022-12-07_24h22.50.583,vts_reward_expectancy_bt,2022.2.4,Win32,57.92064871,Chrome,1536,864,,,,,0,729,,,,,,,,,,,,,,,,,125,B,triangle,1,0,,,2,,,,,,,,,,,,,repeat,number,numRpt,d,0.8334,vtsPrac,9,0,9,0,1,,,,,,,,,,,,,,,,,,,,,,,
298351,2022-12-07_24h22.50.583,vts_reward_expectancy_bt,2022.2.4,Win32,57.92064871,Chrome,1536,864,,,,,0,729,,,,,,,,,,,,,,,,,160,S,circle,1,0,,,2,,,,,,,,,,,,,switch,letter,lettSwt,k,0.716,vtsPrac,10,0,10,0,1,,,,,,,,,,,,,,,,,,,,,,,
298351,2022-12-07_24h22.50.583,vts_reward_expectancy_bt,2022.2.4,Win32,57.92064871,Chrome,1536,864,,,,,0,729,,,,,,,,,,,,,,,,,139,D,hexagon,1,0,,,2,,,,,,,,,,,,,switch,number,numSwt,d,0.7827,vtsPrac,11,0,11,0,1,,,,,,,,,,,,,,,,,,,,,,,
298351,2022-12-07_24h22.50.583,vts_reward_expectancy_bt,2022.2.4,Win32,57.92064871,Chrome,1536,864,,,,,0,729,,,,,,,,,,,,,,,,,139,U,hexagon,1,0,,,2,,,,,,,,,,,,,repeat,number,numRpt,d,1.0698,vtsPrac,12,0,12,0,1,,,,,,,,,,,,,,,,,,,,,,,
298351,2022-12-07_24h22.50.583,vts_reward_expectancy_bt,2022.2.4,Win32,57.92064871,Chrome,1536,864,,,,,0,729,,,,,,,,,,,,,,,,,125,D,circle,1,0,,,2,,,,,,,,,,,,,repeat,number,numRpt,d,0.9846,vtsPrac,13,0,13,0,1,,,,,,,,,,,,,,,,,,,,,,,
298351,2022-12-07_24h22.50.583,vts_reward_expectancy_bt,2022.2.4,Win32,57.92064871,Chrome,1536,864,,,,,0,729,,,,,,,,,,,,,,,,,181,W,triangle,1,0,,,2,,,,,,,,,,,,,switch,letter,lettSwt,k,0.6334,vtsPrac,14,0,14,0,1,,,,,,,,,,,,,,,,,,,,,,,
298351,2022-12-07_24h22.50.583,vts_reward_expectancy_bt,2022.2.4,Win32,57.92064871,Chrome,1536,864,,,,,0,729,,,,,,,,,,,,,,,,,160,S,circle,1,0,,,2,,,,,,,,,,,,,repeat,letter,lettRpt,k,0.7169,vtsPrac,15,0,15,0,1,,,,,,,,,,,,,,,,,,,,,,,
298351,2022-12-07_24h22.50.583,vts_reward_expectancy_bt,2022.2.4,Win32,57.92064871,Chrome,1536,864,,,,,0,729,,,,,,,,,,,,,,,,,174,D,star,1,0,,,2,,,,,,,,,,,,,switch,number,numSwt,f,0.737,vtsPrac,16,0,16,0,1,,,,,,,,,,,,,,,,,,,,,,,
298351,2022-12-07_24h22.50.583,vts_reward_expectancy_bt,2022.2.4,Win32,57.92064871,Chrome,1536,864,,,,,0,729,,,,,,,,,,,,,,,,,181,U,circle,1,0,,,2,,,,,,,,,,,,,repeat,number,numRpt,f,0.6871,vtsPrac,17,0,17,0,1,,,,,,,,,,,,,,,,,,,,,,,
298351,2022-12-07_24h22.50.583,vts_reward_expectancy_bt,2022.2.4,Win32,57.92064871,Chrome,1536,864,,,,,0,729,,,,,,,,,,,,,,,,,132,S,star,1,0,,,2,,,,,,,,,,,,,switch,letter,lettSwt,k,0.8668,vtsPrac,18,0,18,0,1,,,,,,,,,,,,,,,,,,,,,,,
298351,2022-12-07_24h22.50.583,vts_reward_expectancy_bt,2022.2.4,Win32,57.92064871,Chrome,1536,864,,,,,0,729,,,,,,,,,,,,,,,,,125,H,hexagon,1,0,,,2,,,,,,,,,,,,,switch,number,numSwt,d,0.5805,vtsPrac,19,0,19,0,1,,,,,,,,,,,,,,,,,,,,,,,
298351,2022-12-07_24h22.50.583,vts_reward_expectancy_bt,2022.2.4,Win32,57.92064871,Chrome,1536,864,,,,,0,729,,,,,,,,,,,,,,,,,139,W,hexagon,1,0,,,2,,,,,,,,,,,,,repeat,number,numRpt,d,1.3113,vtsPrac,20,0,20,0,1,,,,,,,,,,,,,,,,,,,,,,,
298351,2022-12-07_24h22.50.583,vts_reward_expectancy_bt,2022.2.4,Win32,57.92064871,Chrome,1536,864,,,,,0,729,,,,,,,,,,,,,,,,,174,F,circle,1,0,,,2,,,,,,,,,,,,,switch,letter,lettSwt,j,0.8263,vtsPrac,21,0,21,0,1,,,,,,,,,,,,,,,,,,,,,,,
298351,2022-12-07_24h22.50.583,vts_reward_expectancy_bt,2022.2.4,Win32,57.92064871,Chrome,1536,864,,,,,0,729,,,,,,,,,,,,,,,,,125,H,star,1,0,,,2,,,,,,,,,,,,,switch,number,numSwt,d,1.3811,vtsPrac,22,0,22,0,1,,,,,,,,,,,,,,,,,,,,,,,
298351,2022-12-07_24h22.50.583,vts_reward_expectancy_bt,2022.2.4,Win32,57.92064871,Chrome,1536,864,,,,,0,729,,,,,,,,,,,,,,,,,160,Y,triangle,1,0,,,2,,,,,,,,,,,,,repeat,number,numRpt,f,1.3827,vtsPrac,23,0,23,0,1,,,,,,,,,,,,,,,,,,,,,,,
298351,2022-12-07_24h22.50.583,vts_reward_expectancy_bt,2022.2.4,Win32,57.92064871,Chrome,1536,864,,,,,0,729,,,,,,,,,,,,,,,,,132,F,triangle,1,0,,,2,,,,,,,,,,,,,repeat,number,numRpt,d,1.3119,vtsPrac,24,0,24,0,1,,,,,,,,,,,,,,,,,,,,,,,
298351,2022-12-07_24h22.50.583,vts_reward_expectancy_bt,2022.2.4,Win32,57.92064871,Chrome,1536,864,,,,,0,729,,,,,,,,,,,,,,,,,139,Y,circle,1,0,,,2,,,,,,,,,,,,,switch,letter,lettSwt,k,1.0674,vtsPrac,25,0,25,0,1,,,,,,,,,,,,,,,,,,,,,,,
298351,2022-12-07_24h22.50.583,vts_reward_expectancy_bt,2022.2.4,Win32,57.92064871,Chrome,1536,864,,,,,0,729,,,,,,,,,,,,,,,,,181,B,star,1,0,,,2,,,,,,,,,,,,,switch,number,numSwt,f,1.1325,vtsPrac,26,0,26,0,1,,,,,,,,,,,,,,,,,,,,,,,
298351,2022-12-07_24h22.50.583,vts_reward_expectancy_bt,2022.2.4,Win32,57.92064871,Chrome,1536,864,,,,,0,729,,,,,,,,,,,,,,,,,174,H,triangle,1,0,,,2,,,,,,,,,,,,,repeat,number,numRpt,f,0.7886,vtsPrac,27,0,27,0,1,,,,,,,,,,,,,,,,,,,,,,,
298351,2022-12-07_24h22.50.583,vts_reward_expectancy_bt,2022.2.4,Win32,57.92064871,Chrome,1536,864,,,,,0,729,,,,,,,,,,,,,,,,,132,H,circle,1,0,,,2,,,,,,,,,,,,,switch,letter,lettSwt,j,0.7362,vtsPrac,28,0,28,0,1,,,,,,,,,,,,,,,,,,,,,,,
298351,2022-12-07_24h22.50.583,vts_reward_expectancy_bt,2022.2.4,Win32,57.92064871,Chrome,1536,864,,,,,0,729,,,,,,,,,,,,,,,,,174,D,star,1,0,,,2,,,,,,,,,,,,,repeat,letter,lettRpt,j,0.6499,vtsPrac,29,0,29,0,1,,,,,,,,,,,,,,,,,,,,,,,
298351,2022-12-07_24h22.50.583,vts_reward_expectancy_bt,2022.2.4,Win32,57.92064871,Chrome,1536,864,,,,,0,729,,,,,,,,,,,,,,,,,181,B,triangle,1,0,,,2,,,,,,,,,,,,,repeat,letter,lettRpt,j,0.6447,vtsPrac,30,0,30,0,1,,,,,,,,,,,,,,,,,,,,,,,
298351,2022-12-07_24h22.50.583,vts_reward_expectancy_bt,2022.2.4,Win32,57.92064871,Chrome,1536,864,,,,,0,729,,,,,,,,,,,,,,,,,160,W,star,1,0,,,2,,,,,,,,,,,,,repeat,letter,lettRpt,k,0.9749,vtsPrac,31,0,31,0,1,,,,,,,,,,,,,,,,,,,,,,,
298351,2022-12-07_24h22.50.583,vts_reward_expectancy_bt,2022.2.4,Win32,57.92064871,Chrome,1536,864,,,,,,,,,,,,,,,,,,,,,,,,,,,,,,,,,,,,,,,,,,,,,,,,,,,,,,,,,,,,,,,,,,,,,,,,,,,,
298351,2022-12-07_24h22.50.583,vts_reward_expectancy_bt,2022.2.4,Win32,57.92064871,Chrome,1536,864,,,,,,,,,,,,,,,,,,,,,,,,,,,,,,,,,,,,,,,,,,,,,,,,,,,,,,,,,,,,,,,,,,,,,,,,,,,,
298351,2022-12-07_24h22.50.583,vts_reward_expectancy_bt,2022.2.4,Win32,57.92064871,Chrome,1536,864,,,,,0,729,,,,,,,,,,,,,,,,,160,B,circle,1,0,,,,,,,,,,,,,,,,repeat,letter,lettRpt,j,0.856,noRew,,,,,,0,0,0,0,0,1,,,,,,,,,,,,,,,,,
298351,2022-12-07_24h22.50.583,vts_reward_expectancy_bt,2022.2.4,Win32,57.92064871,Chrome,1536,864,,,,,0,729,,,,,,,,,,,,,,,,,174,F,triangle,1,0,,,,,,,,,,,,,,,,repeat,letter,lettRpt,j,0.934,noRew,,,,,,0,1,0,1,0,1,,,,,,,,,,,,,,,,,
298351,2022-12-07_24h22.50.583,vts_reward_expectancy_bt,2022.2.4,Win32,57.92064871,Chrome,1536,864,,,,,0,729,,,,,,,,,,,,,,,,,146,U,circle,1,0,,,,,,,,,,,,,,,,repeat,letter,lettRpt,k,0.6926,noRew,,,,,,0,2,0,2,0,1,,,,,,,,,,,,,,,,,
298351,2022-12-07_24h22.50.583,vts_reward_expectancy_bt,2022.2.4,Win32,57.92064871,Chrome,1536,864,,,,,0,729,,,,,,,,,,,,,,,,,125,Y,triangle,1,0,,,,,,,,,,,,,,,,switch,number,numSwt,d,1.0913,noRew,,,,,,0,3,0,3,0,1,,,,,,,,,,,,,,,,,
298351,2022-12-07_24h22.50.583,vts_reward_expectancy_bt,2022.2.4,Win32,57.92064871,Chrome,1536,864,,,,,0,729,,,,,,,,,,,,,,,,,160,B,triangle,1,0,,,,,,,,,,,,,,,,switch,letter,lettSwt,j,0.5609,noRew,,,,,,0,4,0,4,0,1,,,,,,,,,,,,,,,,,
298351,2022-12-07_24h22.50.583,vts_reward_expectancy_bt,2022.2.4,Win32,57.92064871,Chrome,1536,864,,,,,0,729,,,,,,,,,,,,,,,,,174,F,hexagon,1,0,,,,,,,,,,,,,,,,switch,number,numSwt,f,0.8097,noRew,,,,,,0,5,0,5,0,1,,,,,,,,,,,,,,,,,
298351,2022-12-07_24h22.50.583,vts_reward_expectancy_bt,2022.2.4,Win32,57.92064871,Chrome,1536,864,,,,,0,729,,,,,,,,,,,,,,,,,146,U,star,1,0,,,,,,,,,,,,,,,,repeat,number,numRpt,d,0.7683,noRew,,,,,,0,6,0,6,0,1,,,,,,,,,,,,,,,,,
298351,2022-12-07_24h22.50.583,vts_reward_expectancy_bt,2022.2.4,Win32,57.92064871,Chrome,1536,864,,,,,0,729,,,,,,,,,,,,,,,,,125,Y,circle,1,0,,,,,,,,,,,,,,,,switch,letter,lettSwt,k,0.8368,noRew,,,,,,0,7,0,7,0,1,,,,,,,,,,,,,,,,,
298351,2022-12-07_24h22.50.583,vts_reward_expectancy_bt,2022.2.4,Win32,57.92064871,Chrome,1536,864,,,,,0,729,,,,,,,,,,,,,,,,,160,F,triangle,1,0,,,,,,,,,,,,,,,,switch,number,numSwt,f,1.3328,noRew,,,,,,0,8,0,8,0,1,,,,,,,,,,,,,,,,,
298351,2022-12-07_24h22.50.583,vts_reward_expectancy_bt,2022.2.4,Win32,57.92064871,Chrome,1536,864,,,,,0,729,,,,,,,,,,,,,,,,,132,U,circle,1,0,,,,,,,,,,,,,,,,repeat,number,numRpt,d,0.8507,noRew,,,,,,0,9,0,9,0,1,,,,,,,,,,,,,,,,,
298351,2022-12-07_24h22.50.583,vts_reward_expectancy_bt,2022.2.4,Win32,57.92064871,Chrome,1536,864,,,,,0,729,,,,,,,,,,,,,,,,,125,S,star,1,0,,,,,,,,,,,,,,,,switch,letter,lettSwt,k,1.8045,noRew,,,,,,0,10,0,10,0,1,,,,,,,,,,,,,,,,,
298351,2022-12-07_24h22.50.583,vts_reward_expectancy_bt,2022.2.4,Win32,57.92064871,Chrome,1536,864,,,,,0,729,,,,,,,,,,,,,,,,,174,B,triangle,1,0,,,,,,,,,,,,,,,,switch,number,numSwt,f,0.8392,noRew,,,,,,0,11,0,11,0,1,,,,,,,,,,,,,,,,,
298351,2022-12-07_24h22.50.583,vts_reward_expectancy_bt,2022.2.4,Win32,57.92064871,Chrome,1536,864,,,,,0,729,,,,,,,,,,,,,,,,,146,U,hexagon,1,0,,,,,,,,,,,,,,,,repeat,number,numRpt,d,0.7509,noRew,,,,,,0,12,0,12,0,1,,,,,,,,,,,,,,,,,
298351,2022-12-07_24h22.50.583,vts_reward_expectancy_bt,2022.2.4,Win32,57.92064871,Chrome,1536,864,,,,,0,729,,,,,,,,,,,,,,,,,139,H,circle,1,0,,,,,,,,,,,,,,,,switch,letter,lettSwt,j,0.9387,noRew,,,,,,0,13,0,13,0,1,,,,,,,,,,,,,,,,,
298351,2022-12-07_24h22.50.583,vts_reward_expectancy_bt,2022.2.4,Win32,57.92064871,Chrome,1536,864,,,,,0,729,,,,,,,,,,,,,,,,,160,S,hexagon,1,0,,,,,,,,,,,,,,,,switch,number,numSwt,f,1.3679,noRew,,,,,,0,14,0,14,0,1,,,,,,,,,,,,,,,,,
298351,2022-12-07_24h22.50.583,vts_reward_expectancy_bt,2022.2.4,Win32,57.92064871,Chrome,1536,864,,,,,0,729,,,,,,,,,,,,,,,,,181,F,triangle,1,0,,,,,,,,,,,,,,,,switch,letter,lettSwt,j,0.7193,noRew,,,,,,0,15,0,15,0,1,,,,,,,,,,,,,,,,,
298351,2022-12-07_24h22.50.583,vts_reward_expectancy_bt,2022.2.4,Win32,57.92064871,Chrome,1536,864,,,,,0,729,,,,,,,,,,,,,,,,,167,S,circle,1,0,,,,,,,,,,,,,,,,switch,number,numSwt,f,1.3159,noRew,,,,,,0,16,0,16,0,1,,,,,,,,,,,,,,,,,
298351,2022-12-07_24h22.50.583,vts_reward_expectancy_bt,2022.2.4,Win32,57.92064871,Chrome,1536,864,,,,,0,729,,,,,,,,,,,,,,,,,125,B,hexagon,1,0,,,,,,,,,,,,,,,,repeat,number,numRpt,d,0.7173,noRew,,,,,,0,17,0,17,0,1,,,,,,,,,,,,,,,,,
298351,2022-12-07_24h22.50.583,vts_reward_expectancy_bt,2022.2.4,Win32,57.92064871,Chrome,1536,864,,,,,0,729,,,,,,,,,,,,,,,,,174,W,triangle,1,0,,,,,,,,,,,,,,,,switch,letter,lettSwt,k,0.8693,noRew,,,,,,0,18,0,18,0,1,,,,,,,,,,,,,,,,,
298351,2022-12-07_24h22.50.583,vts_reward_expectancy_bt,2022.2.4,Win32,57.92064871,Chrome,1536,864,,,,,0,729,,,,,,,,,,,,,,,,,132,D,hexagon,1,0,,,,,,,,,,,,,,,,switch,number,numSwt,d,1.4109,noRew,,,,,,0,19,0,19,0,1,,,,,,,,,,,,,,,,,
298351,2022-12-07_24h22.50.583,vts_reward_expectancy_bt,2022.2.4,Win32,57.92064871,Chrome,1536,864,,,,,0,729,,,,,,,,,,,,,,,,,167,Y,triangle,1,0,,,,,,,,,,,,,,,,switch,letter,lettSwt,k,0.7419,noRew,,,,,,0,20,0,20,0,1,,,,,,,,,,,,,,,,,
298351,2022-12-07_24h22.50.583,vts_reward_expectancy_bt,2022.2.4,Win32,57.92064871,Chrome,1536,864,,,,,0,729,,,,,,,,,,,,,,,,,174,S,circle,1,0,,,,,,,,,,,,,,,,switch,number,numSwt,f,1.3058,noRew,,,,,,0,21,0,21,0,1,,,,,,,,,,,,,,,,,
298351,2022-12-07_24h22.50.583,vts_reward_expectancy_bt,2022.2.4,Win32,57.92064871,Chrome,1536,864,,,,,0,729,,,,,,,,,,,,,,,,,160,U,triangle,1,0,,,,,,,,,,,,,,,,switch,letter,lettSwt,k,0.8834,noRew,,,,,,0,22,0,22,0,1,,,,,,,,,,,,,,,,,
298351,2022-12-07_24h22.50.583,vts_reward_expectancy_bt,2022.2.4,Win32,57.92064871,Chrome,1536,864,,,,,0,729,,,,,,,,,,,,,,,,,146,H,hexagon,1,0,,,,,,,,,,,,,,,,switch,number,numSwt,d,1.2594,noRew,,,,,,0,23,0,23,0,1,,,,,,,,,,,,,,,,,
298351,2022-12-07_24h22.50.583,vts_reward_expectancy_bt,2022.2.4,Win32,57.92064871,Chrome,1536,864,,,,,0,729,,,,,,,,,,,,,,,,,139,H,star,1,0,,,,,,,,,,,,,,,,repeat,number,numRpt,d,0.8165,noRew,,,,,,0,24,0,24,0,1,,,,,,,,,,,,,,,,,
298351,2022-12-07_24h22.50.583,vts_reward_expectancy_bt,2022.2.4,Win32,57.92064871,Chrome,1536,864,,,,,0,729,,,,,,,,,,,,,,,,,125,D,hexagon,1,0,,,,,,,,,,,,,,,,switch,letter,lettSwt,j,0.885,noRew,,,,,,0,25,0,25,0,1,,,,,,,,,,,,,,,,,
298351,2022-12-07_24h22.50.583,vts_reward_expectancy_bt,2022.2.4,Win32,57.92064871,Chrome,1536,864,,,,,0,729,,,,,,,,,,,,,,,,,167,U,circle,1,0,,,,,,,,,,,,,,,,repeat,letter,lettRpt,k,0.8586,noRew,,,,,,0,26,0,26,0,1,,,,,,,,,,,,,,,,,
298351,2022-12-07_24h22.50.583,vts_reward_expectancy_bt,2022.2.4,Win32,57.92064871,Chrome,1536,864,,,,,0,729,,,,,,,,,,,,,,,,,174,Y,star,1,0,,,,,,,,,,,,,,,,switch,number,numSwt,f,1.0709,noRew,,,,,,0,27,0,27,0,1,,,,,,,,,,,,,,,,,
298351,2022-12-07_24h22.50.583,vts_reward_expectancy_bt,2022.2.4,Win32,57.92064871,Chrome,1536,864,,,,,0,729,,,,,,,,,,,,,,,,,146,H,hexagon,1,0,,,,,,,,,,,,,,,,repeat,number,numRpt,d,1.7676,noRew,,,,,,0,28,0,28,0,1,,,,,,,,,,,,,,,,,
298351,2022-12-07_24h22.50.583,vts_reward_expectancy_bt,2022.2.4,Win32,57.92064871,Chrome,1536,864,,,,,0,729,,,,,,,,,,,,,,,,,125,S,triangle,1,0,,,,,,,,,,,,,,,,switch,letter,lettSwt,k,0.8903,noRew,,,,,,0,29,0,29,0,1,,,,,,,,,,,,,,,,,
298351,2022-12-07_24h22.50.583,vts_reward_expectancy_bt,2022.2.4,Win32,57.92064871,Chrome,1536,864,,,,,0,729,,,,,,,,,,,,,,,,,181,D,hexagon,1,0,,,,,,,,,,,,,,,,switch,number,numSwt,f,0.9392,noRew,,,,,,0,30,0,30,0,1,,,,,,,,,,,,,,,,,
298351,2022-12-07_24h22.50.583,vts_reward_expectancy_bt,2022.2.4,Win32,57.92064871,Chrome,1536,864,,,,,0,729,,,,,,,,,,,,,,,,,174,F,circle,1,0,,,,,,,,,,,,,,,,switch,letter,lettSwt,j,1.0906,noRew,,,,,,0,31,0,31,0,1,,,,,,,,,,,,,,,,,
298351,2022-12-07_24h22.50.583,vts_reward_expectancy_bt,2022.2.4,Win32,57.92064871,Chrome,1536,864,,,,,0,729,,,,,,,,,,,,,,,,,160,U,triangle,1,0,,,,,,,,,,,,,,,,repeat,letter,lettRpt,k,1.3027,noRew,,,,,,0,32,0,32,0,1,,,,,,,,,,,,,,,,,
298351,2022-12-07_24h22.50.583,vts_reward_expectancy_bt,2022.2.4,Win32,57.92064871,Chrome,1536,864,,,,,0,729,,,,,,,,,,,,,,,,,125,B,hexagon,1,0,,,,,,,,,,,,,,,,switch,number,numSwt,d,1.3504,noRew,,,,,,0,33,0,33,0,1,,,,,,,,,,,,,,,,,
298351,2022-12-07_24h22.50.583,vts_reward_expectancy_bt,2022.2.4,Win32,57.92064871,Chrome,1536,864,,,,,0,729,,,,,,,,,,,,,,,,,181,W,star,-1,0,,,,,,,,,,,,,,,,switch,no_choice,NA,,,noRew,,,,,,0,34,0,34,0,1,,,,,,,,,,,,,,,,,
298351,2022-12-07_24h22.50.583,vts_reward_expectancy_bt,2022.2.4,Win32,57.92064871,Chrome,1536,864,,,,,0,729,,,,,,,,,,,,,,,,,139,Y,hexagon,1,0,,,,,,,,,,,,,,,,switch,number,numSwt,d,1.0093,noRew,,,,,,0,35,0,35,0,1,,,,,,,,,,,,,,,,,
298351,2022-12-07_24h22.50.583,vts_reward_expectancy_bt,2022.2.4,Win32,57.92064871,Chrome,1536,864,,,,,0,729,,,,,,,,,,,,,,,,,132,D,triangle,1,0,,,,,,,,,,,,,,,,repeat,number,numRpt,d,0.6413,noRew,,,,,,0,36,0,36,0,1,,,,,,,,,,,,,,,,,
298351,2022-12-07_24h22.50.583,vts_reward_expectancy_bt,2022.2.4,Win32,57.92064871,Chrome,1536,864,,,,,0,729,,,,,,,,,,,,,,,,,174,B,star,1,0,,,,,,,,,,,,,,,,switch,letter,lettSwt,j,0.9037,noRew,,,,,,0,37,0,37,0,1,,,,,,,,,,,,,,,,,
298351,2022-12-07_24h22.50.583,vts_reward_expectancy_bt,2022.2.4,Win32,57.92064871,Chrome,1536,864,,,,,0,729,,,,,,,,,,,,,,,,,160,S,circle,0,0,,,,,,,,,,,,,,,,switch,number,NA,d,1.9551,noRew,,,,,,0,38,0,38,0,1,,,,,,,,,,,,,,,,,
298351,2022-12-07_24h22.50.583,vts_reward_expectancy_bt,2022.2.4,Win32,57.92064871,Chrome,1536,864,,,,,0,729,,,,,,,,,,,,,,,,,167,F,triangle,1,1,,,,,,,,,,,,,,,,switch,letter,lettSwt,j,1.21,noRew,,,,,,0,39,0,39,0,1,,,,,,,,,,,,,,,,,
298351,2022-12-07_24h22.50.583,vts_reward_expectancy_bt,2022.2.4,Win32,57.92064871,Chrome,1536,864,,,,,0,729,,,,,,,,,,,,,,,,,181,D,triangle,1,0,,,,,,,,,,,,,,,,repeat,letter,lettRpt,j,0.8419,noRew,,,,,,0,40,0,40,0,1,,,,,,,,,,,,,,,,,
298351,2022-12-07_24h22.50.583,vts_reward_expectancy_bt,2022.2.4,Win32,57.92064871,Chrome,1536,864,,,,,0,729,,,,,,,,,,,,,,,,,125,H,hexagon,1,0,,,,,,,,,,,,,,,,switch,number,numSwt,d,0.7527,noRew,,,,,,0,41,0,41,0,1,,,,,,,,,,,,,,,,,
298351,2022-12-07_24h22.50.583,vts_reward_expectancy_bt,2022.2.4,Win32,57.92064871,Chrome,1536,864,,,,,0,729,,,,,,,,,,,,,,,,,139,B,hexagon,1,0,,,,,,,,,,,,,,,,repeat,number,numRpt,d,1.0243,noRew,,,,,,0,42,0,42,0,1,,,,,,,,,,,,,,,,,
298351,2022-12-07_24h22.50.583,vts_reward_expectancy_bt,2022.2.4,Win32,57.92064871,Chrome,1536,864,,,,,0,729,,,,,,,,,,,,,,,,,132,F,triangle,1,0,,,,,,,,,,,,,,,,repeat,number,numRpt,d,0.7332,noRew,,,,,,0,43,0,43,0,1,,,,,,,,,,,,,,,,,
298351,2022-12-07_24h22.50.583,vts_reward_expectancy_bt,2022.2.4,Win32,57.92064871,Chrome,1536,864,,,,,0,729,,,,,,,,,,,,,,,,,146,U,hexagon,1,0,,,,,,,,,,,,,,,,switch,letter,lettSwt,k,0.7342,noRew,,,,,,0,44,0,44,0,1,,,,,,,,,,,,,,,,,
298351,2022-12-07_24h22.50.583,vts_reward_expectancy_bt,2022.2.4,Win32,57.92064871,Chrome,1536,864,,,,,0,729,,,,,,,,,,,,,,,,,139,D,star,1,0,,,,,,,,,,,,,,,,switch,number,numSwt,d,0.7882,noRew,,,,,,0,45,0,45,0,1,,,,,,,,,,,,,,,,,
298351,2022-12-07_24h22.50.583,vts_reward_expectancy_bt,2022.2.4,Win32,57.92064871,Chrome,1536,864,,,,,0,729,,,,,,,,,,,,,,,,,174,H,circle,1,0,,,,,,,,,,,,,,,,repeat,number,numRpt,f,0.9706,noRew,,,,,,0,46,0,46,0,1,,,,,,,,,,,,,,,,,
298351,2022-12-07_24h22.50.583,vts_reward_expectancy_bt,2022.2.4,Win32,57.92064871,Chrome,1536,864,,,,,0,729,,,,,,,,,,,,,,,,,132,Y,hexagon,0,0,,,,,,,,,,,,,,,,switch,letter,NA,j,1.0344,noRew,,,,,,0,47,0,47,0,1,,,,,,,,,,,,,,,,,
298351,2022-12-07_24h22.50.583,vts_reward_expectancy_bt,2022.2.4,Win32,57.92064871,Chrome,1536,864,,,,,0,729,,,,,,,,,,,,,,,,,132,W,triangle,1,1,,,,,,,,,,,,,,,,switch,number,numSwt,d,1.5075,noRew,,,,,,0,48,0,48,0,1,,,,,,,,,,,,,,,,,
298351,2022-12-07_24h22.50.583,vts_reward_expectancy_bt,2022.2.4,Win32,57.92064871,Chrome,1536,864,,,,,0,729,,,,,,,,,,,,,,,,,181,S,hexagon,0,0,,,,,,,,,,,,,,,,repeat,number,NA,d,1.1832,noRew,,,,,,0,49,0,49,0,1,,,,,,,,,,,,,,,,,
298351,2022-12-07_24h22.50.583,vts_reward_expectancy_bt,2022.2.4,Win32,57.92064871,Chrome,1536,864,,,,,0,729,,,,,,,,,,,,,,,,,139,B,star,-1,1,,,,,,,,,,,,,,,,switch,no_choice,NA,,,noRew,,,,,,0,50,0,50,0,1,,,,,,,,,,,,,,,,,
298351,2022-12-07_24h22.50.583,vts_reward_expectancy_bt,2022.2.4,Win32,57.92064871,Chrome,1536,864,,,,,0,729,,,,,,,,,,,,,,,,,160,Y,triangle,0,0,,,,,,,,,,,,,,,,switch,number,NA,d,2.8532,noRew,,,,,,0,51,0,51,0,1,,,,,,,,,,,,,,,,,
298351,2022-12-07_24h22.50.583,vts_reward_expectancy_bt,2022.2.4,Win32,57.92064871,Chrome,1536,864,,,,,0,729,,,,,,,,,,,,,,,,,125,W,star,-1,1,,,,,,,,,,,,,,,,switch,no_choice,NA,,,noRew,,,,,,0,52,0,52,0,1,,,,,,,,,,,,,,,,,
298351,2022-12-07_24h22.50.583,vts_reward_expectancy_bt,2022.2.4,Win32,57.92064871,Chrome,1536,864,,,,,0,729,,,,,,,,,,,,,,,,,132,U,circle,-1,0,,,,,,,,,,,,,,,,repeat,no_choice,NA,,,noRew,,,,,,0,53,0,53,0,1,,,,,,,,,,,,,,,,,
298351,2022-12-07_24h22.50.583,vts_reward_expectancy_bt,2022.2.4,Win32,57.92064871,Chrome,1536,864,,,,,0,729,,,,,,,,,,,,,,,,,167,B,circle,1,0,,,,,,,,,,,,,,,,switch,letter,lettSwt,j,1.7106,noRew,,,,,,0,54,0,54,0,1,,,,,,,,,,,,,,,,,
298351,2022-12-07_24h22.50.583,vts_reward_expectancy_bt,2022.2.4,Win32,57.92064871,Chrome,1536,864,,,,,0,729,,,,,,,,,,,,,,,,,181,Y,triangle,1,0,,,,,,,,,,,,,,,,repeat,letter,lettRpt,k,0.7513,noRew,,,,,,0,55,0,55,0,1,,,,,,,,,,,,,,,,,
298351,2022-12-07_24h22.50.583,vts_reward_expectancy_bt,2022.2.4,Win32,57.92064871,Chrome,1536,864,,,,,0,729,,,,,,,,,,,,,,,,,132,B,circle,1,0,,,,,,,,,,,,,,,,repeat,letter,lettRpt,j,0.6836,noRew,,,,,,0,56,0,56,0,1,,,,,,,,,,,,,,,,,
298351,2022-12-07_24h22.50.583,vts_reward_expectancy_bt,2022.2.4,Win32,57.92064871,Chrome,1536,864,,,,,0,729,,,,,,,,,,,,,,,,,181,U,hexagon,1,0,,,,,,,,,,,,,,,,repeat,letter,lettRpt,k,1.0532,noRew,,,,,,0,57,0,57,0,1,,,,,,,,,,,,,,,,,
298351,2022-12-07_24h22.50.583,vts_reward_expectancy_bt,2022.2.4,Win32,57.92064871,Chrome,1536,864,,,,,0,729,,,,,,,,,,,,,,,,,167,S,hexagon,1,0,,,,,,,,,,,,,,,,repeat,letter,lettRpt,k,1.4336,noRew,,,,,,0,58,0,58,0,1,,,,,,,,,,,,,,,,,
298351,2022-12-07_24h22.50.583,vts_reward_expectancy_bt,2022.2.4,Win32,57.92064871,Chrome,1536,864,,,,,0,729,,,,,,,,,,,,,,,,,146,H,star,0,0,,,,,,,,,,,,,,,,switch,number,NA,f,0.9346,noRew,,,,,,0,59,0,59,0,1,,,,,,,,,,,,,,,,,
298351,2022-12-07_24h22.50.583,vts_reward_expectancy_bt,2022.2.4,Win32,57.92064871,Chrome,1536,864,,,,,0,729,,,,,,,,,,,,,,,,,139,F,hexagon,1,1,,,,,,,,,,,,,,,,repeat,number,numRpt,d,0.8828,noRew,,,,,,0,60,0,60,0,1,,,,,,,,,,,,,,,,,
298351,2022-12-07_24h22.50.583,vts_reward_expectancy_bt,2022.2.4,Win32,57.92064871,Chrome,1536,864,,,,,0,729,,,,,,,,,,,,,,,,,146,W,triangle,1,0,,,,,,,,,,,,,,,,switch,letter,lettSwt,k,0.9174,noRew,,,,,,0,61,0,61,0,1,,,,,,,,,,,,,,,,,
298351,2022-12-07_24h22.50.583,vts_reward_expectancy_bt,2022.2.4,Win32,57.92064871,Chrome,1536,864,,,,,0,729,,,,,,,,,,,,,,,,,160,D,hexagon,1,0,,,,,,,,,,,,,,,,switch,number,numSwt,f,1.4351,noRew,,,,,,0,62,0,62,0,1,,,,,,,,,,,,,,,,,
298351,2022-12-07_24h22.50.583,vts_reward_expectancy_bt,2022.2.4,Win32,57.92064871,Chrome,1536,864,,,,,0,729,,,,,,,,,,,,,,,,,167,U,triangle,1,0,,,,,,,,,,,,,,,,repeat,number,numRpt,f,0.7528,noRew,,,,,,0,63,0,63,0,1,,,,,,,,,,,,,,,,,
298351,2022-12-07_24h22.50.583,vts_reward_expectancy_bt,2022.2.4,Win32,57.92064871,Chrome,1536,864,,,,,,,,,,,,,,,,,,,,,,,,,,,,,,,,,,,,,,,,,,,,,,,,,,,,,,,,,,,,,,,,,,,,,,,,,,,,
298351,2022-12-07_24h22.50.583,vts_reward_expectancy_bt,2022.2.4,Win32,57.92064871,Chrome,1536,864,,,,,0,729,,,,,,,,,,,,,,,,,125,F,triangle,1,0,,,,,,,,,,,,,,,,repeat,number,numRpt,d,1.1494,Hi,,,,,,0,,,,,,space,6.3663,high,0,0,0,0,1,,,,,,,,,
298351,2022-12-07_24h22.50.583,vts_reward_expectancy_bt,2022.2.4,Win32,57.92064871,Chrome,1536,864,,,,,10,739,,,,,,,,,,,,,,,,,167,S,hexagon,1,0,,,,,,,,,,,,,,,,repeat,number,numRpt,f,0.7667,Lo,,,,,,0,,,,,,,,high,1,0,1,0,1,,,,,,,,,
298351,2022-12-07_24h22.50.583,vts_reward_expectancy_bt,2022.2.4,Win32,57.92064871,Chrome,1536,864,,,,,1,740,,,,,,,,,,,,,,,,,132,Y,star,1,0,,,,,,,,,,,,,,,,repeat,number,numRpt,d,1.097,Lo,,,,,,0,,,,,,,,high,2,0,2,0,1,,,,,,,,,
298351,2022-12-07_24h22.50.583,vts_reward_expectancy_bt,2022.2.4,Win32,57.92064871,Chrome,1536,864,,,,,0,740,,,,,,,,,,,,,,,,,139,W,circle,1,0,,,,,,,,,,,,,,,,repeat,number,numRpt,d,0.7607,Hi,,,,,,0,,,,,,,,high,3,0,3,0,1,,,,,,,,,
298351,2022-12-07_24h22.50.583,vts_reward_expectancy_bt,2022.2.4,Win32,57.92064871,Chrome,1536,864,,,,,0,740,,,,,,,,,,,,,,,,,174,U,triangle,0,0,,,,,,,,,,,,,,,,repeat,number,NA,d,0.2438,Hi,,,,,,0,,,,,,,,high,4,0,4,0,1,,,,,,,,,
298351,2022-12-07_24h22.50.583,vts_reward_expectancy_bt,2022.2.4,Win32,57.92064871,Chrome,1536,864,,,,,1,741,,,,,,,,,,,,,,,,,160,H,hexagon,1,1,,,,,,,,,,,,,,,,repeat,number,numRpt,f,0.5189,Lo,,,,,,0,,,,,,,,high,5,0,5,0,1,,,,,,,,,
298351,2022-12-07_24h22.50.583,vts_reward_expectancy_bt,2022.2.4,Win32,57.92064871,Chrome,1536,864,,,,,1,742,,,,,,,,,,,,,,,,,181,B,star,1,0,,,,,,,,,,,,,,,,switch,letter,lettSwt,j,0.5716,Lo,,,,,,0,,,,,,,,high,6,0,6,0,1,,,,,,,,,
298351,2022-12-07_24h22.50.583,vts_reward_expectancy_bt,2022.2.4,Win32,57.92064871,Chrome,1536,864,,,,,1,743,,,,,,,,,,,,,,,,,146,D,circle,1,0,,,,,,,,,,,,,,,,repeat,letter,lettRpt,j,0.3702,Hi,,,,,,0,,,,,,,,high,7,0,7,0,1,,,,,,,,,
298351,2022-12-07_24h22.50.583,vts_reward_expectancy_bt,2022.2.4,Win32,57.92064871,Chrome,1536,864,,,,,10,753,,,,,,,,,,,,,,,,,125,F,triangle,1,0,,,,,,,,,,,,,,,,repeat,letter,lettRpt,j,0.2679,Hi,,,,,,0,,,,,,,,high,8,0,8,0,1,,,,,,,,,
298351,2022-12-07_24h22.50.583,vts_reward_expectancy_bt,2022.2.4,Win32,57.92064871,Chrome,1536,864,,,,,10,763,,,,,,,,,,,,,,,,,167,S,star,1,0,,,,,,,,,,,,,,,,repeat,letter,lettRpt,k,0.2373,Lo,,,,,,0,,,,,,,,high,9,0,9,0,1,,,,,,,,,
298351,2022-12-07_24h22.50.583,vts_reward_expectancy_bt,2022.2.4,Win32,57.92064871,Chrome,1536,864,,,,,0,763,,,,,,,,,,,,,,,,,132,Y,circle,0,0,,,,,,,,,,,,,,,,repeat,letter,NA,j,0.4843,Lo,,,,,,0,,,,,,,,high,10,0,10,0,1,,,,,,,,,
298351,2022-12-07_24h22.50.583,vts_reward_expectancy_bt,2022.2.4,Win32,57.92064871,Chrome,1536,864,,,,,1,764,,,,,,,,,,,,,,,,,139,W,hexagon,1,1,,,,,,,,,,,,,,,,repeat,letter,lettRpt,k,0.5348,Lo,,,,,,0,,,,,,,,high,11,0,11,0,1,,,,,,,,,
298351,2022-12-07_24h22.50.583,vts_reward_expectancy_bt,2022.2.4,Win32,57.92064871,Chrome,1536,864,,,,,0,764,,,,,,,,,,,,,,,,,174,U,triangle,0,0,,,,,,,,,,,,,,,,repeat,letter,NA,j,0.4752,Lo,,,,,,0,,,,,,,,high,12,0,12,0,1,,,,,,,,,
298351,2022-12-07_24h22.50.583,vts_reward_expectancy_bt,2022.2.4,Win32,57.92064871,Chrome,1536,864,,,,,0,764,,,,,,,,,,,,,,,,,160,H,star,0,1,,,,,,,,,,,,,,,,repeat,letter,NA,k,0.0998,Lo,,,,,,0,,,,,,,,high,13,0,13,0,1,,,,,,,,,
298351,2022-12-07_24h22.50.583,vts_reward_expectancy_bt,2022.2.4,Win32,57.92064871,Chrome,1536,864,,,,,1,765,,,,,,,,,,,,,,,,,181,B,hexagon,1,1,,,,,,,,,,,,,,,,repeat,letter,lettRpt,j,0.0669,Lo,,,,,,0,,,,,,,,high,14,0,14,0,1,,,,,,,,,
298351,2022-12-07_24h22.50.583,vts_reward_expectancy_bt,2022.2.4,Win32,57.92064871,Chrome,1536,864,,,,,0,765,,,,,,,,,,,,,,,,,146,D,circle,0,0,,,,,,,,,,,,,,,,switch,number,NA,f,0.069,Lo,,,,,,0,,,,,,,,high,15,0,15,0,1,,,,,,,,,
298351,2022-12-07_24h22.50.583,vts_reward_expectancy_bt,2022.2.4,Win32,57.92064871,Chrome,1536,864,,,,,1,766,,,,,,,,,,,,,,,,,181,S,star,1,1,,,,,,,,,,,,,,,,repeat,number,numRpt,f,0.4441,Lo,,,,,,0,,,,,,,,high,16,0,16,0,1,,,,,,,,,
298351,2022-12-07_24h22.50.583,vts_reward_expectancy_bt,2022.2.4,Win32,57.92064871,Chrome,1536,864,,,,,1,767,,,,,,,,,,,,,,,,,125,W,circle,1,0,,,,,,,,,,,,,,,,repeat,number,numRpt,d,0.2688,Hi,,,,,,0,,,,,,,,high,17,0,17,0,1,,,,,,,,,
298351,2022-12-07_24h22.50.583,vts_reward_expectancy_bt,2022.2.4,Win32,57.92064871,Chrome,1536,864,,,,,10,777,,,,,,,,,,,,,,,,,139,Y,triangle,1,0,,,,,,,,,,,,,,,,repeat,number,numRpt,d,0.2572,Hi,,,,,,0,,,,,,,,high,18,0,18,0,1,,,,,,,,,
298351,2022-12-07_24h22.50.583,vts_reward_expectancy_bt,2022.2.4,Win32,57.92064871,Chrome,1536,864,,,,,0,777,,,,,,,,,,,,,,,,,167,U,hexagon,0,0,,,,,,,,,,,,,,,,repeat,number,NA,d,0.3554,Hi,,,,,,0,,,,,,,,high,19,0,19,0,1,,,,,,,,,
298351,2022-12-07_24h22.50.583,vts_reward_expectancy_bt,2022.2.4,Win32,57.92064871,Chrome,1536,864,,,,,10,787,,,,,,,,,,,,,,,,,174,F,hexagon,1,1,,,,,,,,,,,,,,,,switch,letter,lettSwt,j,0.1862,Lo,,,,,,0,,,,,,,,high,20,0,20,0,1,,,,,,,,,
298351,2022-12-07_24h22.50.583,vts_reward_expectancy_bt,2022.2.4,Win32,57.92064871,Chrome,1536,864,,,,,0,787,,,,,,,,,,,,,,,,,146,D,triangle,0,0,,,,,,,,,,,,,,,,switch,number,NA,f,0.2701,Lo,,,,,,0,,,,,,,,high,21,0,21,0,1,,,,,,,,,
298351,2022-12-07_24h22.50.583,vts_reward_expectancy_bt,2022.2.4,Win32,57.92064871,Chrome,1536,864,,,,,0,787,,,,,,,,,,,,,,,,,160,H,circle,0,1,,,,,,,,,,,,,,,,switch,letter,NA,k,0.5366,Lo,,,,,,0,,,,,,,,high,22,0,22,0,1,,,,,,,,,
298351,2022-12-07_24h22.50.583,vts_reward_expectancy_bt,2022.2.4,Win32,57.92064871,Chrome,1536,864,,,,,0,787,,,,,,,,,,,,,,,,,132,B,star,0,1,,,,,,,,,,,,,,,,repeat,letter,NA,k,0.4241,Lo,,,,,,0,,,,,,,,high,23,0,23,0,1,,,,,,,,,
298351,2022-12-07_24h22.50.583,vts_reward_expectancy_bt,2022.2.4,Win32,57.92064871,Chrome,1536,864,,,,,1,788,,,,,,,,,,,,,,,,,174,W,hexagon,1,1,,,,,,,,,,,,,,,,repeat,letter,lettRpt,k,0.3552,Lo,,,,,,0,,,,,,,,high,24,0,24,0,1,,,,,,,,,
298351,2022-12-07_24h22.50.583,vts_reward_expectancy_bt,2022.2.4,Win32,57.92064871,Chrome,1536,864,,,,,1,789,,,,,,,,,,,,,,,,,125,D,star,1,0,,,,,,,,,,,,,,,,repeat,letter,lettRpt,j,0.2731,Lo,,,,,,0,,,,,,,,high,25,0,25,0,1,,,,,,,,,
298351,2022-12-07_24h22.50.583,vts_reward_expectancy_bt,2022.2.4,Win32,57.92064871,Chrome,1536,864,,,,,10,799,,,,,,,,,,,,,,,,,132,F,circle,1,0,,,,,,,,,,,,,,,,repeat,letter,lettRpt,j,0.234,Hi,,,,,,0,,,,,,,,high,26,0,26,0,1,,,,,,,,,
298351,2022-12-07_24h22.50.583,vts_reward_expectancy_bt,2022.2.4,Win32,57.92064871,Chrome,1536,864,,,,,0,799,,,,,,,,,,,,,,,,,160,U,triangle,0,0,,,,,,,,,,,,,,,,repeat,letter,NA,j,0.3576,Hi,,,,,,0,,,,,,,,high,27,0,27,0,1,,,,,,,,,
298351,2022-12-07_24h22.50.583,vts_reward_expectancy_bt,2022.2.4,Win32,57.92064871,Chrome,1536,864,,,,,0,799,,,,,,,,,,,,,,,,,146,Y,circle,0,1,,,,,,,,,,,,,,,,repeat,letter,NA,j,0.3708,Hi,,,,,,0,,,,,,,,high,28,0,28,0,1,,,,,,,,,
298351,2022-12-07_24h22.50.583,vts_reward_expectancy_bt,2022.2.4,Win32,57.92064871,Chrome,1536,864,,,,,1,800,,,,,,,,,,,,,,,,,181,S,star,1,1,,,,,,,,,,,,,,,,switch,number,numSwt,f,0.2705,Lo,,,,,,0,,,,,,,,high,29,0,29,0,1,,,,,,,,,
298351,2022-12-07_24h22.50.583,vts_reward_expectancy_bt,2022.2.4,Win32,57.92064871,Chrome,1536,864,,,,,1,801,,,,,,,,,,,,,,,,,139,H,triangle,1,0,,,,,,,,,,,,,,,,repeat,number,numRpt,d,0.0737,Hi,,,,,,0,,,,,,,,high,30,0,30,0,1,,,,,,,,,
298351,2022-12-07_24h22.50.583,vts_reward_expectancy_bt,2022.2.4,Win32,57.92064871,Chrome,1536,864,,,,,1,802,,,,,,,,,,,,,,,,,167,B,hexagon,1,0,,,,,,,,,,,,,,,,repeat,number,numRpt,f,0.9924,Lo,,,,,,0,,,,,,,,high,31,0,31,0,1,,,,,,,,,
298351,2022-12-07_24h22.50.583,vts_reward_expectancy_bt,2022.2.4,Win32,57.92064871,Chrome,1536,864,,,,,0,802,,,,,,,,,,,,,,,,,125,D,triangle,0,0,,,,,,,,,,,,,,,,repeat,number,NA,f,0.064,Lo,,,,,,1,,,,,,space,1.0392,high,0,0,0,0,1,,,,,,,,,
298351,2022-12-07_24h22.50.583,vts_reward_expectancy_bt,2022.2.4,Win32,57.92064871,Chrome,1536,864,,,,,10,812,,,,,,,,,,,,,,,,,167,F,circle,1,1,,,,,,,,,,,,,,,,switch,letter,lettSwt,j,0.0307,Hi,,,,,,1,,,,,,,,high,1,0,1,0,1,,,,,,,,,
298351,2022-12-07_24h22.50.583,vts_reward_expectancy_bt,2022.2.4,Win32,57.92064871,Chrome,1536,864,,,,,0,812,,,,,,,,,,,,,,,,,139,W,hexagon,0,0,,,,,,,,,,,,,,,,switch,number,NA,f,0.2077,Hi,,,,,,1,,,,,,,,high,2,0,2,0,1,,,,,,,,,
298351,2022-12-07_24h22.50.583,vts_reward_expectancy_bt,2022.2.4,Win32,57.92064871,Chrome,1536,864,,,,,0,812,,,,,,,,,,,,,,,,,181,H,star,0,1,,,,,,,,,,,,,,,,switch,letter,NA,k,0.1891,Hi,,,,,,1,,,,,,,,high,3,0,3,0,1,,,,,,,,,
298351,2022-12-07_24h22.50.583,vts_reward_expectancy_bt,2022.2.4,Win32,57.92064871,Chrome,1536,864,,,,,10,822,,,,,,,,,,,,,,,,,132,Y,triangle,1,1,,,,,,,,,,,,,,,,repeat,letter,lettRpt,k,0.0848,Hi,,,,,,1,,,,,,,,high,4,0,4,0,1,,,,,,,,,
298351,2022-12-07_24h22.50.583,vts_reward_expectancy_bt,2022.2.4,Win32,57.92064871,Chrome,1536,864,,,,,0,822,,,,,,,,,,,,,,,,,146,U,circle,0,0,,,,,,,,,,,,,,,,repeat,letter,NA,j,0.1844,Hi,,,,,,1,,,,,,,,high,5,0,5,0,1,,,,,,,,,
298351,2022-12-07_24h22.50.583,vts_reward_expectancy_bt,2022.2.4,Win32,57.92064871,Chrome,1536,864,,,,,1,823,,,,,,,,,,,,,,,,,174,B,hexagon,1,1,,,,,,,,,,,,,,,,repeat,letter,lettRpt,j,0.2831,Lo,,,,,,1,,,,,,,,high,6,0,6,0,1,,,,,,,,,
298351,2022-12-07_24h22.50.583,vts_reward_expectancy_bt,2022.2.4,Win32,57.92064871,Chrome,1536,864,,,,,10,833,,,,,,,,,,,,,,,,,160,S,star,1,0,,,,,,,,,,,,,,,,repeat,letter,lettRpt,k,0.0511,Lo,,,,,,1,,,,,,,,high,7,0,7,0,1,,,,,,,,,
298351,2022-12-07_24h22.50.583,vts_reward_expectancy_bt,2022.2.4,Win32,57.92064871,Chrome,1536,864,,,,,10,843,,,,,,,,,,,,,,,,,125,D,circle,1,0,,,,,,,,,,,,,,,,repeat,letter,lettRpt,j,0.0008,Hi,,,,,,1,,,,,,,,high,8,0,8,0,1,,,,,,,,,
298351,2022-12-07_24h22.50.583,vts_reward_expectancy_bt,2022.2.4,Win32,57.92064871,Chrome,1536,864,,,,,0,843,,,,,,,,,,,,,,,,,167,F,triangle,0,0,,,,,,,,,,,,,,,,repeat,letter,NA,k,0.135,Hi,,,,,,1,,,,,,,,high,9,0,9,0,1,,,,,,,,,
298351,2022-12-07_24h22.50.583,vts_reward_expectancy_bt,2022.2.4,Win32,57.92064871,Chrome,1536,864,,,,,0,843,,,,,,,,,,,,,,,,,139,W,hexagon,0,1,,,,,,,,,,,,,,,,repeat,letter,NA,j,0.2391,Hi,,,,,,1,,,,,,,,high,10,0,10,0,1,,,,,,,,,
298351,2022-12-07_24h22.50.583,vts_reward_expectancy_bt,2022.2.4,Win32,57.92064871,Chrome,1536,864,,,,,0,843,,,,,,,,,,,,,,,,,181,H,star,0,1,,,,,,,,,,,,,,,,switch,number,NA,d,0.0344,Hi,,,,,,1,,,,,,,,high,11,0,11,0,1,,,,,,,,,
298351,2022-12-07_24h22.50.583,vts_reward_expectancy_bt,2022.2.4,Win32,57.92064871,Chrome,1536,864,,,,,1,844,,,,,,,,,,,,,,,,,132,Y,star,1,1,,,,,,,,,,,,,,,,repeat,number,numRpt,d,0.2682,Lo,,,,,,1,,,,,,,,high,12,0,12,0,1,,,,,,,,,
298351,2022-12-07_24h22.50.583,vts_reward_expectancy_bt,2022.2.4,Win32,57.92064871,Chrome,1536,864,,,,,0,844,,,,,,,,,,,,,,,,,146,U,hexagon,0,0,,,,,,,,,,,,,,,,repeat,number,NA,f,0.0082,Lo,,,,,,1,,,,,,,,high,13,0,13,0,1,,,,,,,,,
298351,2022-12-07_24h22.50.583,vts_reward_expectancy_bt,2022.2.4,Win32,57.92064871,Chrome,1536,864,,,,,10,854,,,,,,,,,,,,,,,,,174,B,circle,1,1,,,,,,,,,,,,,,,,switch,letter,lettSwt,j,0.0723,Hi,,,,,,1,,,,,,,,high,14,0,14,0,1,,,,,,,,,
298351,2022-12-07_24h22.50.583,vts_reward_expectancy_bt,2022.2.4,Win32,57.92064871,Chrome,1536,864,,,,,10,864,,,,,,,,,,,,,,,,,160,S,triangle,1,0,,,,,,,,,,,,,,,,switch,number,numSwt,f,0.1169,Hi,,,,,,1,,,,,,,,high,15,0,15,0,1,,,,,,,,,
298351,2022-12-07_24h22.50.583,vts_reward_expectancy_bt,2022.2.4,Win32,57.92064871,Chrome,1536,864,,,,,0,864,,,,,,,,,,,,,,,,,174,Y,star,0,0,,,,,,,,,,,,,,,,repeat,number,NA,d,0.2463,Hi,,,,,,1,,,,,,,,high,16,0,16,0,1,,,,,,,,,
298351,2022-12-07_24h22.50.583,vts_reward_expectancy_bt,2022.2.4,Win32,57.92064871,Chrome,1536,864,,,,,1,865,,,,,,,,,,,,,,,,,160,U,hexagon,1,1,,,,,,,,,,,,,,,,switch,letter,lettSwt,k,0.1499,Lo,,,,,,1,,,,,,,,high,17,0,17,0,1,,,,,,,,,
298351,2022-12-07_24h22.50.583,vts_reward_expectancy_bt,2022.2.4,Win32,57.92064871,Chrome,1536,864,,,,,0,865,,,,,,,,,,,,,,,,,167,S,circle,0,0,,,,,,,,,,,,,,,,switch,number,NA,d,0.1075,Lo,,,,,,1,,,,,,,,high,18,0,18,0,1,,,,,,,,,
298351,2022-12-07_24h22.50.583,vts_reward_expectancy_bt,2022.2.4,Win32,57.92064871,Chrome,1536,864,,,,,0,865,,,,,,,,,,,,,,,,,125,W,triangle,0,1,,,,,,,,,,,,,,,,repeat,number,NA,f,0.0011,Lo,,,,,,1,,,,,,,,high,19,0,19,0,1,,,,,,,,,
298351,2022-12-07_24h22.50.583,vts_reward_expectancy_bt,2022.2.4,Win32,57.92064871,Chrome,1536,864,,,,,0,865,,,,,,,,,,,,,,,,,139,D,hexagon,0,1,,,,,,,,,,,,,,,,repeat,number,NA,f,0.1366,Lo,,,,,,1,,,,,,,,high,20,0,20,0,1,,,,,,,,,
298351,2022-12-07_24h22.50.583,vts_reward_expectancy_bt,2022.2.4,Win32,57.92064871,Chrome,1536,864,,,,,0,865,,,,,,,,,,,,,,,,,132,F,circle,0,1,,,,,,,,,,,,,,,,repeat,number,NA,f,0.1371,Lo,,,,,,1,,,,,,,,high,21,0,21,0,1,,,,,,,,,
298351,2022-12-07_24h22.50.583,vts_reward_expectancy_bt,2022.2.4,Win32,57.92064871,Chrome,1536,864,,,,,1,866,,,,,,,,,,,,,,,,,181,H,star,1,1,,,,,,,,,,,,,,,,repeat,number,numRpt,f,0.2588,Lo,,,,,,1,,,,,,,,high,22,0,22,0,1,,,,,,,,,
298351,2022-12-07_24h22.50.583,vts_reward_expectancy_bt,2022.2.4,Win32,57.92064871,Chrome,1536,864,,,,,10,876,,,,,,,,,,,,,,,,,146,B,triangle,1,0,,,,,,,,,,,,,,,,repeat,number,numRpt,d,0.1053,Hi,,,,,,1,,,,,,,,high,23,0,23,0,1,,,,,,,,,
298351,2022-12-07_24h22.50.583,vts_reward_expectancy_bt,2022.2.4,Win32,57.92064871,Chrome,1536,864,,,,,1,877,,,,,,,,,,,,,,,,,125,S,hexagon,1,0,,,,,,,,,,,,,,,,repeat,number,numRpt,d,0.1529,Lo,,,,,,1,,,,,,,,high,24,0,24,0,1,,,,,,,,,
298351,2022-12-07_24h22.50.583,vts_reward_expectancy_bt,2022.2.4,Win32,57.92064871,Chrome,1536,864,,,,,0,877,,,,,,,,,,,,,,,,,132,Y,star,0,0,,,,,,,,,,,,,,,,repeat,number,NA,f,0.0597,Lo,,,,,,1,,,,,,,,high,25,0,25,0,1,,,,,,,,,
298351,2022-12-07_24h22.50.583,vts_reward_expectancy_bt,2022.2.4,Win32,57.92064871,Chrome,1536,864,,,,,0,877,,,,,,,,,,,,,,,,,181,H,triangle,0,1,,,,,,,,,,,,,,,,repeat,number,NA,d,0.2699,Lo,,,,,,1,,,,,,,,high,26,0,26,0,1,,,,,,,,,
298351,2022-12-07_24h22.50.583,vts_reward_expectancy_bt,2022.2.4,Win32,57.92064871,Chrome,1536,864,,,,,1,878,,,,,,,,,,,,,,,,,139,D,circle,1,1,,,,,,,,,,,,,,,,switch,letter,lettSwt,j,0.1392,Hi,,,,,,1,,,,,,,,high,27,0,27,0,1,,,,,,,,,
298351,2022-12-07_24h22.50.583,vts_reward_expectancy_bt,2022.2.4,Win32,57.92064871,Chrome,1536,864,,,,,0,878,,,,,,,,,,,,,,,,,174,U,hexagon,0,0,,,,,,,,,,,,,,,,repeat,letter,NA,j,0.0585,Hi,,,,,,1,,,,,,,,high,28,0,28,0,1,,,,,,,,,
298351,2022-12-07_24h22.50.583,vts_reward_expectancy_bt,2022.2.4,Win32,57.92064871,Chrome,1536,864,,,,,0,878,,,,,,,,,,,,,,,,,146,B,triangle,0,1,,,,,,,,,,,,,,,,repeat,letter,NA,k,0.5177,Hi,,,,,,1,,,,,,,,high,29,0,29,0,1,,,,,,,,,
298351,2022-12-07_24h22.50.583,vts_reward_expectancy_bt,2022.2.4,Win32,57.92064871,Chrome,1536,864,,,,,0,878,,,,,,,,,,,,,,,,,167,W,circle,-1,1,,,,,,,,,,,,,,,,switch,no_choice,NA,,,Hi,,,,,,1,,,,,,,,high,30,0,30,0,1,,,,,,,,,
298351,2022-12-07_24h22.50.583,vts_reward_expectancy_bt,2022.2.4,Win32,57.92064871,Chrome,1536,864,,,,,0,878,,,,,,,,,,,,,,,,,160,F,star,-1,0,,,,,,,,,,,,,,,,repeat,no_choice,NA,,,Hi,,,,,,1,,,,,,,,high,31,0,31,0,1,,,,,,,,,
298351,2022-12-07_24h22.50.583,vts_reward_expectancy_bt,2022.2.4,Win32,57.92064871,Chrome,1536,864,,,,,0,878,,,,,,,,,,,,,,,,,160,W,circle,0,0,,,,,,,,,,,,,,,,switch,letter,NA,j,0.1305,Hi,,,,,,2,,,,,,space,6.4485,high,0,0,0,0,1,,,,,,,,,
298351,2022-12-07_24h22.50.583,vts_reward_expectancy_bt,2022.2.4,Win32,57.92064871,Chrome,1536,864,,,,,0,878,,,,,,,,,,,,,,,,,139,U,star,0,1,,,,,,,,,,,,,,,,repeat,letter,NA,j,0.0013,Hi,,,,,,2,,,,,,,,high,1,0,1,0,1,,,,,,,,,
298351,2022-12-07_24h22.50.583,vts_reward_expectancy_bt,2022.2.4,Win32,57.92064871,Chrome,1536,864,,,,,0,878,,,,,,,,,,,,,,,,,174,D,hexagon,0,1,,,,,,,,,,,,,,,,switch,number,NA,d,0.1841,Hi,,,,,,2,,,,,,,,high,2,0,2,0,1,,,,,,,,,
298351,2022-12-07_24h22.50.583,vts_reward_expectancy_bt,2022.2.4,Win32,57.92064871,Chrome,1536,864,,,,,0,878,,,,,,,,,,,,,,,,,167,B,triangle,0,1,,,,,,,,,,,,,,,,repeat,number,NA,d,0.2845,Hi,,,,,,2,,,,,,,,high,3,0,3,0,1,,,,,,,,,
298351,2022-12-07_24h22.50.583,vts_reward_expectancy_bt,2022.2.4,Win32,57.92064871,Chrome,1536,864,,,,,10,888,,,,,,,,,,,,,,,,,146,F,circle,1,1,,,,,,,,,,,,,,,,switch,letter,lettSwt,j,0.0675,Hi,,,,,,2,,,,,,,,high,4,0,4,0,1,,,,,,,,,
298351,2022-12-07_24h22.50.583,vts_reward_expectancy_bt,2022.2.4,Win32,57.92064871,Chrome,1536,864,,,,,1,889,,,,,,,,,,,,,,,,,181,Y,star,1,0,,,,,,,,,,,,,,,,switch,number,numSwt,f,0.051,Lo,,,,,,2,,,,,,,,high,5,0,5,0,1,,,,,,,,,
298351,2022-12-07_24h22.50.583,vts_reward_expectancy_bt,2022.2.4,Win32,57.92064871,Chrome,1536,864,,,,,0,889,,,,,,,,,,,,,,,,,132,H,hexagon,0,0,,,,,,,,,,,,,,,,switch,letter,NA,k,0.2834,Lo,,,,,,2,,,,,,,,high,6,0,6,0,1,,,,,,,,,
298351,2022-12-07_24h22.50.583,vts_reward_expectancy_bt,2022.2.4,Win32,57.92064871,Chrome,1536,864,,,,,0,889,,,,,,,,,,,,,,,,,125,S,triangle,1,1,,,,,,,,,,,,,,,,repeat,letter,lettRpt,k,0.2345,Hi,,,,,,2,,,,,,,,high,7,0,7,0,1,,,,,,,,,
298351,2022-12-07_24h22.50.583,vts_reward_expectancy_bt,2022.2.4,Win32,57.92064871,Chrome,1536,864,,,,,0,889,,,,,,,,,,,,,,,,,160,W,hexagon,0,0,,,,,,,,,,,,,,,,repeat,letter,NA,j,0.2511,Hi,,,,,,2,,,,,,,,high,8,0,8,0,1,,,,,,,,,
298351,2022-12-07_24h22.50.583,vts_reward_expectancy_bt,2022.2.4,Win32,57.92064871,Chrome,1536,864,,,,,10,899,,,,,,,,,,,,,,,,,139,U,circle,1,1,,,,,,,,,,,,,,,,repeat,letter,lettRpt,k,0.0343,Hi,,,,,,2,,,,,,,,high,9,0,9,0,1,,,,,,,,,
298351,2022-12-07_24h22.50.583,vts_reward_expectancy_bt,2022.2.4,Win32,57.92064871,Chrome,1536,864,,,,,1,900,,,,,,,,,,,,,,,,,174,D,star,1,0,,,,,,,,,,,,,,,,repeat,letter,lettRpt,j,0.0172,Lo,,,,,,2,,,,,,,,high,10,0,10,0,1,,,,,,,,,
298351,2022-12-07_24h22.50.583,vts_reward_expectancy_bt,2022.2.4,Win32,57.92064871,Chrome,1536,864,,,,,0,900,,,,,,,,,,,,,,,,,167,B,triangle,0,0,,,,,,,,,,,,,,,,repeat,letter,NA,k,0.031,Lo,,,,,,2,,,,,,,,high,11,0,11,0,1,,,,,,,,,
298351,2022-12-07_24h22.50.583,vts_reward_expectancy_bt,2022.2.4,Win32,57.92064871,Chrome,1536,864,,,,,10,910,,,,,,,,,,,,,,,,,146,F,triangle,1,1,,,,,,,,,,,,,,,,switch,number,numSwt,d,0.0936,Hi,,,,,,2,,,,,,,,high,12,0,12,0,1,,,,,,,,,
298351,2022-12-07_24h22.50.583,vts_reward_expectancy_bt,2022.2.4,Win32,57.92064871,Chrome,1536,864,,,,,10,920,,,,,,,,,,,,,,,,,181,Y,circle,1,0,,,,,,,,,,,,,,,,repeat,number,numRpt,f,0.0799,Hi,,,,,,2,,,,,,,,high,13,0,13,0,1,,,,,,,,,
298351,2022-12-07_24h22.50.583,vts_reward_expectancy_bt,2022.2.4,Win32,57.92064871,Chrome,1536,864,,,,,0,920,,,,,,,,,,,,,,,,,132,H,star,0,0,,,,,,,,,,,,,,,,switch,letter,NA,k,0.1617,Hi,,,,,,2,,,,,,,,high,14,0,14,0,1,,,,,,,,,
298351,2022-12-07_24h22.50.583,vts_reward_expectancy_bt,2022.2.4,Win32,57.92064871,Chrome,1536,864,,,,,1,921,,,,,,,,,,,,,,,,,125,S,hexagon,1,1,,,,,,,,,,,,,,,,repeat,letter,lettRpt,k,0.1117,Lo,,,,,,2,,,,,,,,high,15,0,15,0,1,,,,,,,,,
298351,2022-12-07_24h22.50.583,vts_reward_expectancy_bt,2022.2.4,Win32,57.92064871,Chrome,1536,864,,,,,0,921,,,,,,,,,,,,,,,,,139,S,star,0,0,,,,,,,,,,,,,,,,repeat,letter,NA,j,0.3678,Lo,,,,,,2,,,,,,,,high,16,0,16,0,1,,,,,,,,,
298351,2022-12-07_24h22.50.583,vts_reward_expectancy_bt,2022.2.4,Win32,57.92064871,Chrome,1536,864,,,,,0,921,,,,,,,,,,,,,,,,,160,W,circle,1,1,,,,,,,,,,,,,,,,switch,number,numSwt,f,0.2482,Hi,,,,,,2,,,,,,,,high,17,0,17,0,1,,,,,,,,,
298351,2022-12-07_24h22.50.583,vts_reward_expectancy_bt,2022.2.4,Win32,57.92064871,Chrome,1536,864,,,,,1,922,,,,,,,,,,,,,,,,,125,D,hexagon,1,0,,,,,,,,,,,,,,,,repeat,number,numRpt,d,0.1629,Lo,,,,,,2,,,,,,,,high,18,0,18,0,1,,,,,,,,,
298351,2022-12-07_24h22.50.583,vts_reward_expectancy_bt,2022.2.4,Win32,57.92064871,Chrome,1536,864,,,,,10,932,,,,,,,,,,,,,,,,,174,Y,triangle,1,0,,,,,,,,,,,,,,,,switch,letter,lettSwt,k,0.0004,Hi,,,,,,2,,,,,,,,high,19,0,19,0,1,,,,,,,,,
298351,2022-12-07_24h22.50.583,vts_reward_expectancy_bt,2022.2.4,Win32,57.92064871,Chrome,1536,864,,,,,0,932,,,,,,,,,,,,,,,,,181,B,triangle,1,0,,,,,,,,,,,,,,,,repeat,letter,lettRpt,j,0.2318,Hi,,,,,,2,,,,,,,,high,20,0,20,0,1,,,,,,,,,
298351,2022-12-07_24h22.50.583,vts_reward_expectancy_bt,2022.2.4,Win32,57.92064871,Chrome,1536,864,,,,,0,932,,,,,,,,,,,,,,,,,146,F,hexagon,0,0,,,,,,,,,,,,,,,,repeat,letter,NA,k,0.0481,Hi,,,,,,2,,,,,,,,high,21,0,21,0,1,,,,,,,,,
298351,2022-12-07_24h22.50.583,vts_reward_expectancy_bt,2022.2.4,Win32,57.92064871,Chrome,1536,864,,,,,0,932,,,,,,,,,,,,,,,,,167,U,star,0,1,,,,,,,,,,,,,,,,switch,number,NA,d,0.0332,Hi,,,,,,2,,,,,,,,high,22,0,22,0,1,,,,,,,,,
298351,2022-12-07_24h22.50.583,vts_reward_expectancy_bt,2022.2.4,Win32,57.92064871,Chrome,1536,864,,,,,10,942,,,,,,,,,,,,,,,,,132,H,circle,1,1,,,,,,,,,,,,,,,,repeat,number,numRpt,d,0.0008,Hi,,,,,,2,,,,,,,,high,23,0,23,0,1,,,,,,,,,
298351,2022-12-07_24h22.50.583,vts_reward_expectancy_bt,2022.2.4,Win32,57.92064871,Chrome,1536,864,,,,,0,942,,,,,,,,,,,,,,,,,174,H,hexagon,0,0,,,,,,,,,,,,,,,,repeat,number,NA,d,0.2356,Hi,,,,,,2,,,,,,,,high,24,0,24,0,1,,,,,,,,,
298351,2022-12-07_24h22.50.583,vts_reward_expectancy_bt,2022.2.4,Win32,57.92064871,Chrome,1536,864,,,,,1,943,,,,,,,,,,,,,,,,,181,S,star,1,1,,,,,,,,,,,,,,,,repeat,number,numRpt,f,0.3473,Lo,,,,,,2,,,,,,,,high,25,0,25,0,1,,,,,,,,,
298351,2022-12-07_24h22.50.583,vts_reward_expectancy_bt,2022.2.4,Win32,57.92064871,Chrome,1536,864,,,,,10,953,,,,,,,,,,,,,,,,,125,Y,circle,1,0,,,,,,,,,,,,,,,,repeat,number,numRpt,d,0.1029,Hi,,,,,,2,,,,,,,,high,26,0,26,0,1,,,,,,,,,
298351,2022-12-07_24h22.50.583,vts_reward_expectancy_bt,2022.2.4,Win32,57.92064871,Chrome,1536,864,,,,,0,953,,,,,,,,,,,,,,,,,139,F,triangle,0,0,,,,,,,,,,,,,,,,switch,letter,NA,k,0.1031,Hi,,,,,,2,,,,,,,,high,27,0,27,0,1,,,,,,,,,
298351,2022-12-07_24h22.50.583,vts_reward_expectancy_bt,2022.2.4,Win32,57.92064871,Chrome,1536,864,,,,,0,953,,,,,,,,,,,,,,,,,167,B,circle,1,1,,,,,,,,,,,,,,,,repeat,letter,lettRpt,j,0.069,Hi,,,,,,2,,,,,,,,high,28,0,28,0,1,,,,,,,,,
298351,2022-12-07_24h22.50.583,vts_reward_expectancy_bt,2022.2.4,Win32,57.92064871,Chrome,1536,864,,,,,0,953,,,,,,,,,,,,,,,,,146,U,hexagon,0,0,,,,,,,,,,,,,,,,switch,number,NA,f,0.0012,Hi,,,,,,2,,,,,,,,high,29,0,29,0,1,,,,,,,,,
298351,2022-12-07_24h22.50.583,vts_reward_expectancy_bt,2022.2.4,Win32,57.92064871,Chrome,1536,864,,,,,1,954,,,,,,,,,,,,,,,,,160,W,star,1,1,,,,,,,,,,,,,,,,switch,letter,lettSwt,k,0.0008,Lo,,,,,,2,,,,,,,,high,30,0,30,0,1,,,,,,,,,
298351,2022-12-07_24h22.50.583,vts_reward_expectancy_bt,2022.2.4,Win32,57.92064871,Chrome,1536,864,,,,,0,954,,,,,,,,,,,,,,,,,132,D,triangle,0,0,,,,,,,,,,,,,,,,repeat,letter,NA,k,0.086,Lo,,,,,,2,,,,,,,,high,31,0,31,0,1,,,,,,,,,
298351,2022-12-07_24h22.50.583,vts_reward_expectancy_bt,2022.2.4,Win32,57.92064871,Chrome,1536,864,,,,,10,964,,,,,,,,,,,,,,,,,132,D,circle,1,1,,,,,,,,,,,,,,,,switch,number,numSwt,d,0.0493,Hi,,,,,,3,,,,,,space,3.0529,high,0,0,0,0,1,,,,,,,,,
298351,2022-12-07_24h22.50.583,vts_reward_expectancy_bt,2022.2.4,Win32,57.92064871,Chrome,1536,864,,,,,0,964,,,,,,,,,,,,,,,,,167,U,hexagon,0,0,,,,,,,,,,,,,,,,switch,letter,NA,j,0.0379,Hi,,,,,,3,,,,,,,,high,1,0,1,0,1,,,,,,,,,
298351,2022-12-07_24h22.50.583,vts_reward_expectancy_bt,2022.2.4,Win32,57.92064871,Chrome,1536,864,,,,,1,965,,,,,,,,,,,,,,,,,160,B,star,1,1,,,,,,,,,,,,,,,,repeat,letter,lettRpt,j,0.0278,Lo,,,,,,3,,,,,,,,high,2,0,2,0,1,,,,,,,,,
298351,2022-12-07_24h22.50.583,vts_reward_expectancy_bt,2022.2.4,Win32,57.92064871,Chrome,1536,864,,,,,0,965,,,,,,,,,,,,,,,,,181,H,triangle,1,0,,,,,,,,,,,,,,,,repeat,letter,lettRpt,j,0.0612,Hi,,,,,,3,,,,,,,,high,3,0,3,0,1,,,,,,,,,
298351,2022-12-07_24h22.50.583,vts_reward_expectancy_bt,2022.2.4,Win32,57.92064871,Chrome,1536,864,,,,,0,965,,,,,,,,,,,,,,,,,139,S,circle,0,0,,,,,,,,,,,,,,,,repeat,letter,NA,j,0.0007,Hi,,,,,,3,,,,,,,,high,4,0,4,0,1,,,,,,,,,
298351,2022-12-07_24h22.50.583,vts_reward_expectancy_bt,2022.2.4,Win32,57.92064871,Chrome,1536,864,,,,,1,966,,,,,,,,,,,,,,,,,146,F,hexagon,1,1,,,,,,,,,,,,,,,,repeat,letter,lettRpt,j,0.1645,Lo,,,,,,3,,,,,,,,high,5,0,5,0,1,,,,,,,,,
298351,2022-12-07_24h22.50.583,vts_reward_expectancy_bt,2022.2.4,Win32,57.92064871,Chrome,1536,864,,,,,0,966,,,,,,,,,,,,,,,,,125,W,star,0,0,,,,,,,,,,,,,,,,repeat,letter,NA,j,0.0609,Lo,,,,,,3,,,,,,,,high,6,0,6,0,1,,,,,,,,,
298351,2022-12-07_24h22.50.583,vts_reward_expectancy_bt,2022.2.4,Win32,57.92064871,Chrome,1536,864,,,,,0,966,,,,,,,,,,,,,,,,,174,Y,triangle,0,1,,,,,,,,,,,,,,,,repeat,letter,NA,j,0.0985,Lo,,,,,,3,,,,,,,,high,7,0,7,0,1,,,,,,,,,
298351,2022-12-07_24h22.50.583,vts_reward_expectancy_bt,2022.2.4,Win32,57.92064871,Chrome,1536,864,,,,,0,966,,,,,,,,,,,,,,,,,132,D,circle,1,1,,,,,,,,,,,,,,,,repeat,letter,lettRpt,j,0.1638,Hi,,,,,,3,,,,,,,,high,8,0,8,0,1,,,,,,,,,
298351,2022-12-07_24h22.50.583,vts_reward_expectancy_bt,2022.2.4,Win32,57.92064871,Chrome,1536,864,,,,,0,966,,,,,,,,,,,,,,,,,167,U,hexagon,0,0,,,,,,,,,,,,,,,,switch,number,NA,d,0.0786,Hi,,,,,,3,,,,,,,,high,9,0,9,0,1,,,,,,,,,
298351,2022-12-07_24h22.50.583,vts_reward_expectancy_bt,2022.2.4,Win32,57.92064871,Chrome,1536,864,,,,,0,966,,,,,,,,,,,,,,,,,160,B,star,0,1,,,,,,,,,,,,,,,,switch,letter,NA,k,0.0108,Hi,,,,,,3,,,,,,,,high,10,0,10,0,1,,,,,,,,,
298351,2022-12-07_24h22.50.583,vts_reward_expectancy_bt,2022.2.4,Win32,57.92064871,Chrome,1536,864,,,,,0,966,,,,,,,,,,,,,,,,,181,H,triangle,0,1,,,,,,,,,,,,,,,,switch,number,NA,d,0.1484,Hi,,,,,,3,,,,,,,,high,11,0,11,0,1,,,,,,,,,
298351,2022-12-07_24h22.50.583,vts_reward_expectancy_bt,2022.2.4,Win32,57.92064871,Chrome,1536,864,,,,,10,976,,,,,,,,,,,,,,,,,139,S,hexagon,1,1,,,,,,,,,,,,,,,,repeat,number,numRpt,d,0.7012,Lo,,,,,,3,,,,,,,,high,12,0,12,0,1,,,,,,,,,
298351,2022-12-07_24h22.50.583,vts_reward_expectancy_bt,2022.2.4,Win32,57.92064871,Chrome,1536,864,,,,,1,977,,,,,,,,,,,,,,,,,146,F,star,1,0,,,,,,,,,,,,,,,,switch,letter,lettSwt,j,0.5681,Lo,,,,,,3,,,,,,,,high,13,0,13,0,1,,,,,,,,,
298351,2022-12-07_24h22.50.583,vts_reward_expectancy_bt,2022.2.4,Win32,57.92064871,Chrome,1536,864,,,,,0,977,,,,,,,,,,,,,,,,,125,W,circle,1,0,,,,,,,,,,,,,,,,repeat,letter,lettRpt,k,0.8625,Hi,,,,,,3,,,,,,,,high,14,0,14,0,1,,,,,,,,,
298351,2022-12-07_24h22.50.583,vts_reward_expectancy_bt,2022.2.4,Win32,57.92064871,Chrome,1536,864,,,,,0,977,,,,,,,,,,,,,,,,,174,Y,triangle,1,0,,,,,,,,,,,,,,,,switch,number,numSwt,f,0.9684,Hi,,,,,,3,,,,,,,,high,15,0,15,0,1,,,,,,,,,
298351,2022-12-07_24h22.50.583,vts_reward_expectancy_bt,2022.2.4,Win32,57.92064871,Chrome,1536,864,,,,,0,977,,,,,,,,,,,,,,,,,125,S,circle,0,0,,,,,,,,,,,,,,,,switch,letter,NA,j,0.1961,Hi,,,,,,3,,,,,,,,high,16,0,16,0,1,,,,,,,,,
298351,2022-12-07_24h22.50.583,vts_reward_expectancy_bt,2022.2.4,Win32,57.92064871,Chrome,1536,864,,,,,0,977,,,,,,,,,,,,,,,,,132,D,star,0,1,,,,,,,,,,,,,,,,switch,number,NA,f,0.1835,Hi,,,,,,3,,,,,,,,high,17,0,17,0,1,,,,,,,,,
298351,2022-12-07_24h22.50.583,vts_reward_expectancy_bt,2022.2.4,Win32,57.92064871,Chrome,1536,864,,,,,0,977,,,,,,,,,,,,,,,,,167,Y,hexagon,0,1,,,,,,,,,,,,,,,,repeat,number,NA,d,0.0624,Hi,,,,,,3,,,,,,,,high,18,0,18,0,1,,,,,,,,,
298351,2022-12-07_24h22.50.583,vts_reward_expectancy_bt,2022.2.4,Win32,57.92064871,Chrome,1536,864,,,,,0,977,,,,,,,,,,,,,,,,,174,U,triangle,0,1,,,,,,,,,,,,,,,,switch,letter,NA,j,0.1647,Hi,,,,,,3,,,,,,,,high,19,0,19,0,1,,,,,,,,,
298351,2022-12-07_24h22.50.583,vts_reward_expectancy_bt,2022.2.4,Win32,57.92064871,Chrome,1536,864,,,,,10,987,,,,,,,,,,,,,,,,,139,H,star,1,1,,,,,,,,,,,,,,,,switch,number,numSwt,d,0.0012,Lo,,,,,,3,,,,,,,,high,20,0,20,0,1,,,,,,,,,
298351,2022-12-07_24h22.50.583,vts_reward_expectancy_bt,2022.2.4,Win32,57.92064871,Chrome,1536,864,,,,,0,987,,,,,,,,,,,,,,,,,160,W,circle,0,0,,,,,,,,,,,,,,,,repeat,number,NA,d,0.0649,Lo,,,,,,3,,,,,,,,high,21,0,21,0,1,,,,,,,,,
298351,2022-12-07_24h22.50.583,vts_reward_expectancy_bt,2022.2.4,Win32,57.92064871,Chrome,1536,864,,,,,0,987,,,,,,,,,,,,,,,,,146,B,hexagon,0,1,,,,,,,,,,,,,,,,repeat,number,NA,f,0.2432,Lo,,,,,,3,,,,,,,,high,22,0,22,0,1,,,,,,,,,
298351,2022-12-07_24h22.50.583,vts_reward_expectancy_bt,2022.2.4,Win32,57.92064871,Chrome,1536,864,,,,,0,987,,,,,,,,,,,,,,,,,181,F,triangle,0,1,,,,,,,,,,,,,,,,repeat,number,NA,d,0.1484,Lo,,,,,,3,,,,,,,,high,23,0,23,0,1,,,,,,,,,
298351,2022-12-07_24h22.50.583,vts_reward_expectancy_bt,2022.2.4,Win32,57.92064871,Chrome,1536,864,,,,,0,987,,,,,,,,,,,,,,,,,160,D,circle,1,1,,,,,,,,,,,,,,,,switch,letter,lettSwt,j,0.1023,Hi,,,,,,3,,,,,,,,high,24,0,24,0,1,,,,,,,,,
298351,2022-12-07_24h22.50.583,vts_reward_expectancy_bt,2022.2.4,Win32,57.92064871,Chrome,1536,864,,,,,1,988,,,,,,,,,,,,,,,,,132,F,hexagon,1,0,,,,,,,,,,,,,,,,switch,number,numSwt,d,0.0455,Lo,,,,,,3,,,,,,,,high,25,0,25,0,1,,,,,,,,,
298351,2022-12-07_24h22.50.583,vts_reward_expectancy_bt,2022.2.4,Win32,57.92064871,Chrome,1536,864,,,,,0,988,,,,,,,,,,,,,,,,,174,S,triangle,1,0,,,,,,,,,,,,,,,,switch,letter,lettSwt,k,0.0275,Hi,,,,,,3,,,,,,,,high,26,0,26,0,1,,,,,,,,,
298351,2022-12-07_24h22.50.583,vts_reward_expectancy_bt,2022.2.4,Win32,57.92064871,Chrome,1536,864,,,,,1,989,,,,,,,,,,,,,,,,,125,Y,star,1,0,,,,,,,,,,,,,,,,repeat,letter,lettRpt,k,0.1213,Lo,,,,,,3,,,,,,,,high,27,0,27,0,1,,,,,,,,,
298351,2022-12-07_24h22.50.583,vts_reward_expectancy_bt,2022.2.4,Win32,57.92064871,Chrome,1536,864,,,,,0,989,,,,,,,,,,,,,,,,,139,W,star,0,0,,,,,,,,,,,,,,,,switch,number,NA,f,0.0457,Lo,,,,,,3,,,,,,,,high,28,0,28,0,1,,,,,,,,,
298351,2022-12-07_24h22.50.583,vts_reward_expectancy_bt,2022.2.4,Win32,57.92064871,Chrome,1536,864,,,,,0,989,,,,,,,,,,,,,,,,,167,U,triangle,0,1,,,,,,,,,,,,,,,,repeat,number,NA,d,0.2648,Lo,,,,,,3,,,,,,,,high,29,0,29,0,1,,,,,,,,,
298351,2022-12-07_24h22.50.583,vts_reward_expectancy_bt,2022.2.4,Win32,57.92064871,Chrome,1536,864,,,,,0,989,,,,,,,,,,,,,,,,,181,B,hexagon,-1,1,,,,,,,,,,,,,,,,switch,no_choice,NA,,,Lo,,,,,,3,,,,,,,,high,30,0,30,0,1,,,,,,,,,
298351,2022-12-07_24h22.50.583,vts_reward_expectancy_bt,2022.2.4,Win32,57.92064871,Chrome,1536,864,,,,,0,989,,,,,,,,,,,,,,,,,146,H,circle,-1,0,,,,,,,,,,,,,,,,repeat,no_choice,NA,,,Lo,,,,,,3,,,,,,,,high,31,0,31,0,1,,,,,,,,,
298351,2022-12-07_24h22.50.583,vts_reward_expectancy_bt,2022.2.4,Win32,57.92064871,Chrome,1536,864,,,,,10,999,,,,,,,,,,,,,,,,,160,S,circle,1,0,,,,,,,,,,,,,,,,switch,letter,lettSwt,k,0.0163,Hi,,,,,,4,,,,,,space,0.7328,high,0,0,0,0,1,,,,,,,,,
298351,2022-12-07_24h22.50.583,vts_reward_expectancy_bt,2022.2.4,Win32,57.92064871,Chrome,1536,864,,,,,10,1009,,,,,,,,,,,,,,,,,132,H,star,1,0,,,,,,,,,,,,,,,,switch,number,numSwt,d,0.1032,Lo,,,,,,4,,,,,,,,high,1,0,1,0,1,,,,,,,,,
298351,2022-12-07_24h22.50.583,vts_reward_expectancy_bt,2022.2.4,Win32,57.92064871,Chrome,1536,864,,,,,10,1019,,,,,,,,,,,,,,,,,174,U,hexagon,1,0,,,,,,,,,,,,,,,,switch,letter,lettSwt,k,0.3933,Lo,,,,,,4,,,,,,,,high,2,0,2,0,1,,,,,,,,,
298351,2022-12-07_24h22.50.583,vts_reward_expectancy_bt,2022.2.4,Win32,57.92064871,Chrome,1536,864,,,,,10,1029,,,,,,,,,,,,,,,,,181,F,triangle,1,0,,,,,,,,,,,,,,,,switch,number,numSwt,f,0.0009,Hi,,,,,,4,,,,,,,,high,3,0,3,0,1,,,,,,,,,
298351,2022-12-07_24h22.50.583,vts_reward_expectancy_bt,2022.2.4,Win32,57.92064871,Chrome,1536,864,,,,,1,1030,,,,,,,,,,,,,,,,,125,D,circle,1,0,,,,,,,,,,,,,,,,repeat,number,numRpt,d,0.0689,Hi,,,,,,4,,,,,,,,high,4,0,4,0,1,,,,,,,,,
298351,2022-12-07_24h22.50.583,vts_reward_expectancy_bt,2022.2.4,Win32,57.92064871,Chrome,1536,864,,,,,1,1031,,,,,,,,,,,,,,,,,167,B,star,1,0,,,,,,,,,,,,,,,,repeat,number,numRpt,f,0.1368,Lo,,,,,,4,,,,,,,,high,5,0,5,0,1,,,,,,,,,
298351,2022-12-07_24h22.50.583,vts_reward_expectancy_bt,2022.2.4,Win32,57.92064871,Chrome,1536,864,,,,,0,1031,,,,,,,,,,,,,,,,,139,W,hexagon,0,0,,,,,,,,,,,,,,,,switch,letter,NA,j,0.2522,Lo,,,,,,4,,,,,,,,high,6,0,6,0,1,,,,,,,,,
298351,2022-12-07_24h22.50.583,vts_reward_expectancy_bt,2022.2.4,Win32,57.92064871,Chrome,1536,864,,,,,0,1031,,,,,,,,,,,,,,,,,146,Y,triangle,1,1,,,,,,,,,,,,,,,,repeat,letter,lettRpt,k,0.1341,Hi,,,,,,4,,,,,,,,high,7,0,7,0,1,,,,,,,,,
298351,2022-12-07_24h22.50.583,vts_reward_expectancy_bt,2022.2.4,Win32,57.92064871,Chrome,1536,864,,,,,0,1031,,,,,,,,,,,,,,,,,160,S,circle,0,0,,,,,,,,,,,,,,,,repeat,letter,NA,j,0.0009,Hi,,,,,,4,,,,,,,,high,8,0,8,0,1,,,,,,,,,
298351,2022-12-07_24h22.50.583,vts_reward_expectancy_bt,2022.2.4,Win32,57.92064871,Chrome,1536,864,,,,,0,1031,,,,,,,,,,,,,,,,,132,H,triangle,0,1,,,,,,,,,,,,,,,,repeat,letter,NA,k,0.0078,Hi,,,,,,4,,,,,,,,high,9,0,9,0,1,,,,,,,,,
298351,2022-12-07_24h22.50.583,vts_reward_expectancy_bt,2022.2.4,Win32,57.92064871,Chrome,1536,864,,,,,1,1032,,,,,,,,,,,,,,,,,174,U,star,1,1,,,,,,,,,,,,,,,,repeat,letter,lettRpt,k,0.0604,Lo,,,,,,4,,,,,,,,high,10,0,10,0,1,,,,,,,,,
298351,2022-12-07_24h22.50.583,vts_reward_expectancy_bt,2022.2.4,Win32,57.92064871,Chrome,1536,864,,,,,10,1042,,,,,,,,,,,,,,,,,181,F,hexagon,1,0,,,,,,,,,,,,,,,,repeat,letter,lettRpt,j,0.1041,Lo,,,,,,4,,,,,,,,high,11,0,11,0,1,,,,,,,,,
298351,2022-12-07_24h22.50.583,vts_reward_expectancy_bt,2022.2.4,Win32,57.92064871,Chrome,1536,864,,,,,0,1042,,,,,,,,,,,,,,,,,125,D,star,0,0,,,,,,,,,,,,,,,,switch,number,NA,f,0.0715,Lo,,,,,,4,,,,,,,,high,12,0,12,0,1,,,,,,,,,
298351,2022-12-07_24h22.50.583,vts_reward_expectancy_bt,2022.2.4,Win32,57.92064871,Chrome,1536,864,,,,,10,1052,,,,,,,,,,,,,,,,,167,B,triangle,1,1,,,,,,,,,,,,,,,,switch,letter,lettSwt,j,0.0162,Hi,,,,,,4,,,,,,,,high,13,0,13,0,1,,,,,,,,,
298351,2022-12-07_24h22.50.583,vts_reward_expectancy_bt,2022.2.4,Win32,57.92064871,Chrome,1536,864,,,,,0,1052,,,,,,,,,,,,,,,,,139,W,hexagon,-1,0,,,,,,,,,,,,,,,,switch,no_choice,NA,,,Hi,,,,,,4,,,,,,,,high,14,0,14,0,1,,,,,,,,,
298351,2022-12-07_24h22.50.583,vts_reward_expectancy_bt,2022.2.4,Win32,57.92064871,Chrome,1536,864,,,,,0,1052,,,,,,,,,,,,,,,,,146,Y,circle,-1,0,,,,,,,,,,,,,,,,repeat,no_choice,NA,,,Hi,,,,,,4,,,,,,,,high,15,0,15,0,1,,,,,,,,,
298351,2022-12-07_24h22.50.583,vts_reward_expectancy_bt,2022.2.4,Win32,57.92064871,Chrome,1536,864,,,,,0,1052,,,,,,,,,,,,,,,,,160,Y,circle,-1,0,,,,,,,,,,,,,,,,repeat,no_choice,NA,,,Hi,,,,,,4,,,,,,,,high,16,0,16,0,1,,,,,,,,,
298351,2022-12-07_24h22.50.583,vts_reward_expectancy_bt,2022.2.4,Win32,57.92064871,Chrome,1536,864,,,,,0,1052,,,,,,,,,,,,,,,,,125,D,star,-1,0,,,,,,,,,,,,,,,,repeat,no_choice,NA,,,Hi,,,,,,4,,,,,,,,high,17,0,17,0,1,,,,,,,,,
298351,2022-12-07_24h22.50.583,vts_reward_expectancy_bt,2022.2.4,Win32,57.92064871,Chrome,1536,864,,,,,1,1053,,,,,,,,,,,,,,,,,146,F,hexagon,1,0,,,,,,,,,,,,,,,,switch,letter,lettSwt,j,0.5302,Lo,,,,,,4,,,,,,,,high,18,0,18,0,1,,,,,,,,,
298351,2022-12-07_24h22.50.583,vts_reward_expectancy_bt,2022.2.4,Win32,57.92064871,Chrome,1536,864,,,,,0,1053,,,,,,,,,,,,,,,,,181,S,triangle,0,0,,,,,,,,,,,,,,,,switch,number,NA,d,0.0021,Lo,,,,,,4,,,,,,,,high,19,0,19,0,1,,,,,,,,,
298351,2022-12-07_24h22.50.583,vts_reward_expectancy_bt,2022.2.4,Win32,57.92064871,Chrome,1536,864,,,,,0,1053,,,,,,,,,,,,,,,,,132,H,circle,0,1,,,,,,,,,,,,,,,,repeat,number,NA,f,0.0005,Lo,,,,,,4,,,,,,,,high,20,0,20,0,1,,,,,,,,,
298351,2022-12-07_24h22.50.583,vts_reward_expectancy_bt,2022.2.4,Win32,57.92064871,Chrome,1536,864,,,,,0,1053,,,,,,,,,,,,,,,,,139,B,star,0,1,,,,,,,,,,,,,,,,switch,letter,NA,k,0.3171,Lo,,,,,,4,,,,,,,,high,21,0,21,0,1,,,,,,,,,
298351,2022-12-07_24h22.50.583,vts_reward_expectancy_bt,2022.2.4,Win32,57.92064871,Chrome,1536,864,,,,,0,1053,,,,,,,,,,,,,,,,,167,W,triangle,0,1,,,,,,,,,,,,,,,,switch,number,NA,d,0.1362,Lo,,,,,,4,,,,,,,,high,22,0,22,0,1,,,,,,,,,
298351,2022-12-07_24h22.50.583,vts_reward_expectancy_bt,2022.2.4,Win32,57.92064871,Chrome,1536,864,,,,,0,1053,,,,,,,,,,,,,,,,,174,U,hexagon,0,1,,,,,,,,,,,,,,,,repeat,number,NA,d,0.029,Lo,,,,,,4,,,,,,,,high,23,0,23,0,1,,,,,,,,,
298351,2022-12-07_24h22.50.583,vts_reward_expectancy_bt,2022.2.4,Win32,57.92064871,Chrome,1536,864,,,,,10,1063,,,,,,,,,,,,,,,,,132,U,triangle,1,1,,,,,,,,,,,,,,,,repeat,number,numRpt,d,0.0662,Hi,,,,,,4,,,,,,,,high,24,0,24,0,1,,,,,,,,,
298351,2022-12-07_24h22.50.583,vts_reward_expectancy_bt,2022.2.4,Win32,57.92064871,Chrome,1536,864,,,,,1,1064,,,,,,,,,,,,,,,,,160,Y,star,1,0,,,,,,,,,,,,,,,,repeat,number,numRpt,f,0.1614,Lo,,,,,,4,,,,,,,,high,25,0,25,0,1,,,,,,,,,
298351,2022-12-07_24h22.50.583,vts_reward_expectancy_bt,2022.2.4,Win32,57.92064871,Chrome,1536,864,,,,,1,1065,,,,,,,,,,,,,,,,,139,B,hexagon,1,0,,,,,,,,,,,,,,,,switch,letter,lettSwt,j,0.046,Lo,,,,,,4,,,,,,,,high,26,0,26,0,1,,,,,,,,,
298351,2022-12-07_24h22.50.583,vts_reward_expectancy_bt,2022.2.4,Win32,57.92064871,Chrome,1536,864,,,,,0,1065,,,,,,,,,,,,,,,,,167,S,circle,0,0,,,,,,,,,,,,,,,,repeat,letter,NA,j,0.2268,Lo,,,,,,4,,,,,,,,high,27,0,27,0,1,,,,,,,,,
298351,2022-12-07_24h22.50.583,vts_reward_expectancy_bt,2022.2.4,Win32,57.92064871,Chrome,1536,864,,,,,0,1065,,,,,,,,,,,,,,,,,174,W,star,0,1,,,,,,,,,,,,,,,,repeat,letter,NA,j,0.1,Lo,,,,,,4,,,,,,,,high,28,0,28,0,1,,,,,,,,,
298351,2022-12-07_24h22.50.583,vts_reward_expectancy_bt,2022.2.4,Win32,57.92064871,Chrome,1536,864,,,,,0,1065,,,,,,,,,,,,,,,,,125,D,circle,1,1,,,,,,,,,,,,,,,,repeat,letter,lettRpt,j,0.1293,Hi,,,,,,4,,,,,,,,high,29,0,29,0,1,,,,,,,,,
298351,2022-12-07_24h22.50.583,vts_reward_expectancy_bt,2022.2.4,Win32,57.92064871,Chrome,1536,864,,,,,0,1065,,,,,,,,,,,,,,,,,181,F,triangle,0,0,,,,,,,,,,,,,,,,switch,number,NA,d,0.0658,Hi,,,,,,4,,,,,,,,high,30,0,30,0,1,,,,,,,,,
298351,2022-12-07_24h22.50.583,vts_reward_expectancy_bt,2022.2.4,Win32,57.92064871,Chrome,1536,864,,,,,1,1066,,,,,,,,,,,,,,,,,146,H,hexagon,1,1,,,,,,,,,,,,,,,,switch,letter,lettSwt,j,0.5513,Lo,,,,,,4,,,,,,,,high,31,0,31,0,1,,,,,,,,,
298351,2022-12-07_24h22.50.583,vts_reward_expectancy_bt,2022.2.4,Win32,57.92064871,Chrome,1536,864,,,,,10,1076,,,,,,,,,,,,,,,,,132,Y,circle,1,0,,,,,,,,,,,,,,,,switch,number,numSwt,d,0.0479,Hi,,,,,,5,,,,,,space,1.5383,high,0,0,0,0,1,,,,,,,,,
298351,2022-12-07_24h22.50.583,vts_reward_expectancy_bt,2022.2.4,Win32,57.92064871,Chrome,1536,864,,,,,0,1076,,,,,,,,,,,,,,,,,167,B,triangle,0,0,,,,,,,,,,,,,,,,repeat,number,NA,d,0.2839,Hi,,,,,,5,,,,,,,,high,1,0,1,0,1,,,,,,,,,
298351,2022-12-07_24h22.50.583,vts_reward_expectancy_bt,2022.2.4,Win32,57.92064871,Chrome,1536,864,,,,,1,1077,,,,,,,,,,,,,,,,,125,U,hexagon,1,1,,,,,,,,,,,,,,,,repeat,number,numRpt,d,0.1872,Lo,,,,,,5,,,,,,,,high,2,0,2,0,1,,,,,,,,,
298351,2022-12-07_24h22.50.583,vts_reward_expectancy_bt,2022.2.4,Win32,57.92064871,Chrome,1536,864,,,,,1,1078,,,,,,,,,,,,,,,,,139,W,star,1,0,,,,,,,,,,,,,,,,repeat,number,numRpt,d,0.0844,Lo,,,,,,5,,,,,,,,high,3,0,3,0,1,,,,,,,,,
298351,2022-12-07_24h22.50.583,vts_reward_expectancy_bt,2022.2.4,Win32,57.92064871,Chrome,1536,864,,,,,0,1078,,,,,,,,,,,,,,,,,181,F,circle,1,0,,,,,,,,,,,,,,,,repeat,number,numRpt,f,0.2334,Hi,,,,,,5,,,,,,,,high,4,0,4,0,1,,,,,,,,,
298351,2022-12-07_24h22.50.583,vts_reward_expectancy_bt,2022.2.4,Win32,57.92064871,Chrome,1536,864,,,,,0,1078,,,,,,,,,,,,,,,,,146,D,triangle,0,0,,,,,,,,,,,,,,,,repeat,number,NA,f,0.1352,Hi,,,,,,5,,,,,,,,high,5,0,5,0,1,,,,,,,,,
298351,2022-12-07_24h22.50.583,vts_reward_expectancy_bt,2022.2.4,Win32,57.92064871,Chrome,1536,864,,,,,10,1088,,,,,,,,,,,,,,,,,174,H,hexagon,1,1,,,,,,,,,,,,,,,,repeat,number,numRpt,f,0.4239,Lo,,,,,,5,,,,,,,,high,6,0,6,0,1,,,,,,,,,
298351,2022-12-07_24h22.50.583,vts_reward_expectancy_bt,2022.2.4,Win32,57.92064871,Chrome,1536,864,,,,,0,1088,,,,,,,,,,,,,,,,,160,S,star,0,0,,,,,,,,,,,,,,,,repeat,number,NA,d,1.2526,Lo,,,,,,5,,,,,,,,high,7,0,7,0,1,,,,,,,,,
298351,2022-12-07_24h22.50.583,vts_reward_expectancy_bt,2022.2.4,Win32,57.92064871,Chrome,1536,864,,,,,10,1098,,,,,,,,,,,,,,,,,132,Y,star,1,1,,,,,,,,,,,,,,,,switch,letter,lettSwt,k,0.2854,Lo,,,,,,5,,,,,,,,high,8,0,8,0,1,,,,,,,,,
298351,2022-12-07_24h22.50.583,vts_reward_expectancy_bt,2022.2.4,Win32,57.92064871,Chrome,1536,864,,,,,0,1098,,,,,,,,,,,,,,,,,167,B,circle,-1,0,,,,,,,,,,,,,,,,switch,no_choice,NA,,,Lo,,,,,,5,,,,,,,,high,9,0,9,0,1,,,,,,,,,
298351,2022-12-07_24h22.50.583,vts_reward_expectancy_bt,2022.2.4,Win32,57.92064871,Chrome,1536,864,,,,,1,1099,,,,,,,,,,,,,,,,,125,U,hexagon,1,0,,,,,,,,,,,,,,,,switch,number,numSwt,d,0.7352,Lo,,,,,,5,,,,,,,,high,10,0,10,0,1,,,,,,,,,
298351,2022-12-07_24h22.50.583,vts_reward_expectancy_bt,2022.2.4,Win32,57.92064871,Chrome,1536,864,,,,,0,1099,,,,,,,,,,,,,,,,,139,W,triangle,1,0,,,,,,,,,,,,,,,,repeat,number,numRpt,d,0.1844,Hi,,,,,,5,,,,,,,,high,11,0,11,0,1,,,,,,,,,
298351,2022-12-07_24h22.50.583,vts_reward_expectancy_bt,2022.2.4,Win32,57.92064871,Chrome,1536,864,,,,,0,1099,,,,,,,,,,,,,,,,,181,F,triangle,0,0,,,,,,,,,,,,,,,,switch,letter,NA,k,0.0518,Hi,,,,,,5,,,,,,,,high,12,0,12,0,1,,,,,,,,,
298351,2022-12-07_24h22.50.583,vts_reward_expectancy_bt,2022.2.4,Win32,57.92064871,Chrome,1536,864,,,,,0,1099,,,,,,,,,,,,,,,,,146,D,circle,0,1,,,,,,,,,,,,,,,,repeat,letter,NA,k,0.0575,Hi,,,,,,5,,,,,,,,high,13,0,13,0,1,,,,,,,,,
298351,2022-12-07_24h22.50.583,vts_reward_expectancy_bt,2022.2.4,Win32,57.92064871,Chrome,1536,864,,,,,0,1099,,,,,,,,,,,,,,,,,174,H,hexagon,0,1,,,,,,,,,,,,,,,,switch,number,NA,d,0.6827,Hi,,,,,,5,,,,,,,,high,14,0,14,0,1,,,,,,,,,
298351,2022-12-07_24h22.50.583,vts_reward_expectancy_bt,2022.2.4,Win32,57.92064871,Chrome,1536,864,,,,,0,1099,,,,,,,,,,,,,,,,,160,S,star,0,1,,,,,,,,,,,,,,,,repeat,number,NA,d,0.1679,Hi,,,,,,5,,,,,,,,high,15,0,15,0,1,,,,,,,,,
298351,2022-12-07_24h22.50.583,vts_reward_expectancy_bt,2022.2.4,Win32,57.92064871,Chrome,1536,864,,,,,0,1099,,,,,,,,,,,,,,,,,174,F,circle,0,1,,,,,,,,,,,,,,,,repeat,number,NA,d,0.2168,Hi,,,,,,5,,,,,,,,high,16,0,16,0,1,,,,,,,,,
298351,2022-12-07_24h22.50.583,vts_reward_expectancy_bt,2022.2.4,Win32,57.92064871,Chrome,1536,864,,,,,1,1100,,,,,,,,,,,,,,,,,132,B,hexagon,1,1,,,,,,,,,,,,,,,,repeat,number,numRpt,d,0.6398,Lo,,,,,,5,,,,,,,,high,17,0,17,0,1,,,,,,,,,
298351,2022-12-07_24h22.50.583,vts_reward_expectancy_bt,2022.2.4,Win32,57.92064871,Chrome,1536,864,,,,,0,1100,,,,,,,,,,,,,,,,,146,U,triangle,1,0,,,,,,,,,,,,,,,,repeat,number,numRpt,d,1.2162,Hi,,,,,,5,,,,,,,,high,18,0,18,0,1,,,,,,,,,
298351,2022-12-07_24h22.50.583,vts_reward_expectancy_bt,2022.2.4,Win32,57.92064871,Chrome,1536,864,,,,,0,1100,,,,,,,,,,,,,,,,,181,H,star,0,0,,,,,,,,,,,,,,,,switch,letter,NA,k,0.5508,Hi,,,,,,5,,,,,,,,high,19,0,19,0,1,,,,,,,,,
298351,2022-12-07_24h22.50.583,vts_reward_expectancy_bt,2022.2.4,Win32,57.92064871,Chrome,1536,864,,,,,1,1101,,,,,,,,,,,,,,,,,167,Y,hexagon,1,1,,,,,,,,,,,,,,,,repeat,letter,lettRpt,k,0.1894,Lo,,,,,,5,,,,,,,,high,20,0,20,0,1,,,,,,,,,
298351,2022-12-07_24h22.50.583,vts_reward_expectancy_bt,2022.2.4,Win32,57.92064871,Chrome,1536,864,,,,,0,1101,,,,,,,,,,,,,,,,,160,W,circle,0,0,,,,,,,,,,,,,,,,repeat,letter,NA,j,0.1253,Lo,,,,,,5,,,,,,,,high,21,0,21,0,1,,,,,,,,,
298351,2022-12-07_24h22.50.583,vts_reward_expectancy_bt,2022.2.4,Win32,57.92064871,Chrome,1536,864,,,,,1,1102,,,,,,,,,,,,,,,,,125,D,star,1,1,,,,,,,,,,,,,,,,switch,number,numSwt,d,0.2589,Lo,,,,,,5,,,,,,,,high,22,0,22,0,1,,,,,,,,,
298351,2022-12-07_24h22.50.583,vts_reward_expectancy_bt,2022.2.4,Win32,57.92064871,Chrome,1536,864,,,,,0,1102,,,,,,,,,,,,,,,,,139,S,triangle,1,0,,,,,,,,,,,,,,,,switch,letter,lettSwt,k,0.4154,Hi,,,,,,5,,,,,,,,high,23,0,23,0,1,,,,,,,,,
298351,2022-12-07_24h22.50.583,vts_reward_expectancy_bt,2022.2.4,Win32,57.92064871,Chrome,1536,864,,,,,1,1103,,,,,,,,,,,,,,,,,132,H,hexagon,1,0,,,,,,,,,,,,,,,,repeat,letter,lettRpt,j,0.4692,Lo,,,,,,5,,,,,,,,high,24,0,24,0,1,,,,,,,,,
298351,2022-12-07_24h22.50.583,vts_reward_expectancy_bt,2022.2.4,Win32,57.92064871,Chrome,1536,864,,,,,0,1103,,,,,,,,,,,,,,,,,146,S,circle,0,0,,,,,,,,,,,,,,,,repeat,letter,NA,j,0.4206,Lo,,,,,,5,,,,,,,,high,25,0,25,0,1,,,,,,,,,
298351,2022-12-07_24h22.50.583,vts_reward_expectancy_bt,2022.2.4,Win32,57.92064871,Chrome,1536,864,,,,,1,1104,,,,,,,,,,,,,,,,,125,D,star,1,1,,,,,,,,,,,,,,,,repeat,letter,lettRpt,j,0.4432,Lo,,,,,,5,,,,,,,,high,26,0,26,0,1,,,,,,,,,
298351,2022-12-07_24h22.50.583,vts_reward_expectancy_bt,2022.2.4,Win32,57.92064871,Chrome,1536,864,,,,,0,1104,,,,,,,,,,,,,,,,,181,F,triangle,1,0,,,,,,,,,,,,,,,,repeat,letter,lettRpt,j,0.1448,Hi,,,,,,5,,,,,,,,high,27,0,27,0,1,,,,,,,,,
298351,2022-12-07_24h22.50.583,vts_reward_expectancy_bt,2022.2.4,Win32,57.92064871,Chrome,1536,864,,,,,1,1105,,,,,,,,,,,,,,,,,174,B,star,1,0,,,,,,,,,,,,,,,,switch,number,numSwt,f,0.0008,Lo,,,,,,5,,,,,,,,high,28,0,28,0,1,,,,,,,,,
298351,2022-12-07_24h22.50.583,vts_reward_expectancy_bt,2022.2.4,Win32,57.92064871,Chrome,1536,864,,,,,0,1105,,,,,,,,,,,,,,,,,160,U,triangle,0,0,,,,,,,,,,,,,,,,switch,letter,NA,j,0.0006,Lo,,,,,,5,,,,,,,,high,29,0,29,0,1,,,,,,,,,
298351,2022-12-07_24h22.50.583,vts_reward_expectancy_bt,2022.2.4,Win32,57.92064871,Chrome,1536,864,,,,,0,1105,,,,,,,,,,,,,,,,,139,W,hexagon,0,1,,,,,,,,,,,,,,,,switch,number,NA,f,1.0581,Lo,,,,,,5,,,,,,,,high,30,0,30,0,1,,,,,,,,,
298351,2022-12-07_24h22.50.583,vts_reward_expectancy_bt,2022.2.4,Win32,57.92064871,Chrome,1536,864,,,,,0,1105,,,,,,,,,,,,,,,,,167,Y,circle,-1,1,,,,,,,,,,,,,,,,switch,no_choice,NA,,,Lo,,,,,,5,,,,,,,,high,31,0,31,0,1,,,,,,,,,
298351,2022-12-07_24h22.50.583,vts_reward_expectancy_bt,2022.2.4,Win32,57.92064871,Chrome,1536,864,,,,,1,1106,,,,,,,,,,,,,,,,,174,S,hexagon,1,0,,,,,,,,,,,,,,,,switch,letter,lettSwt,k,0.1541,Lo,,,,,,6,,,,,,space,0.9418,high,0,0,0,0,1,,,,,,,,,
298351,2022-12-07_24h22.50.583,vts_reward_expectancy_bt,2022.2.4,Win32,57.92064871,Chrome,1536,864,,,,,0,1106,,,,,,,,,,,,,,,,,125,U,star,0,0,,,,,,,,,,,,,,,,switch,number,NA,f,0.2675,Lo,,,,,,6,,,,,,,,high,1,0,1,0,1,,,,,,,,,
298351,2022-12-07_24h22.50.583,vts_reward_expectancy_bt,2022.2.4,Win32,57.92064871,Chrome,1536,864,,,,,0,1106,,,,,,,,,,,,,,,,,160,W,triangle,0,1,,,,,,,,,,,,,,,,repeat,number,NA,d,0.9094,Lo,,,,,,6,,,,,,,,high,2,0,2,0,1,,,,,,,,,
298351,2022-12-07_24h22.50.583,vts_reward_expectancy_bt,2022.2.4,Win32,57.92064871,Chrome,1536,864,,,,,0,1106,,,,,,,,,,,,,,,,,132,D,circle,0,1,,,,,,,,,,,,,,,,switch,letter,NA,k,0.7291,Lo,,,,,,6,,,,,,,,high,3,0,3,0,1,,,,,,,,,
298351,2022-12-07_24h22.50.583,vts_reward_expectancy_bt,2022.2.4,Win32,57.92064871,Chrome,1536,864,,,,,1,1107,,,,,,,,,,,,,,,,,181,Y,hexagon,1,1,,,,,,,,,,,,,,,,switch,number,numSwt,f,0.1419,Lo,,,,,,6,,,,,,,,high,4,0,4,0,1,,,,,,,,,
298351,2022-12-07_24h22.50.583,vts_reward_expectancy_bt,2022.2.4,Win32,57.92064871,Chrome,1536,864,,,,,0,1107,,,,,,,,,,,,,,,,,167,B,star,0,0,,,,,,,,,,,,,,,,repeat,number,NA,d,0.0731,Lo,,,,,,6,,,,,,,,high,5,0,5,0,1,,,,,,,,,
298351,2022-12-07_24h22.50.583,vts_reward_expectancy_bt,2022.2.4,Win32,57.92064871,Chrome,1536,864,,,,,10,1117,,,,,,,,,,,,,,,,,139,F,triangle,1,1,,,,,,,,,,,,,,,,repeat,number,numRpt,d,0.0699,Hi,,,,,,6,,,,,,,,high,6,0,6,0,1,,,,,,,,,
298351,2022-12-07_24h22.50.583,vts_reward_expectancy_bt,2022.2.4,Win32,57.92064871,Chrome,1536,864,,,,,10,1127,,,,,,,,,,,,,,,,,146,H,circle,1,0,,,,,,,,,,,,,,,,repeat,number,numRpt,d,0.1698,Hi,,,,,,6,,,,,,,,high,7,0,7,0,1,,,,,,,,,
298351,2022-12-07_24h22.50.583,vts_reward_expectancy_bt,2022.2.4,Win32,57.92064871,Chrome,1536,864,,,,,0,1127,,,,,,,,,,,,,,,,,174,S,hexagon,0,0,,,,,,,,,,,,,,,,switch,letter,NA,j,0.0008,Hi,,,,,,6,,,,,,,,high,8,0,8,0,1,,,,,,,,,
298351,2022-12-07_24h22.50.583,vts_reward_expectancy_bt,2022.2.4,Win32,57.92064871,Chrome,1536,864,,,,,0,1127,,,,,,,,,,,,,,,,,125,U,triangle,1,1,,,,,,,,,,,,,,,,switch,number,numSwt,d,0.6475,Hi,,,,,,6,,,,,,,,high,9,0,9,0,1,,,,,,,,,
298351,2022-12-07_24h22.50.583,vts_reward_expectancy_bt,2022.2.4,Win32,57.92064871,Chrome,1536,864,,,,,0,1127,,,,,,,,,,,,,,,,,160,W,circle,0,0,,,,,,,,,,,,,,,,repeat,number,NA,d,0.5504,Hi,,,,,,6,,,,,,,,high,10,0,10,0,1,,,,,,,,,
298351,2022-12-07_24h22.50.583,vts_reward_expectancy_bt,2022.2.4,Win32,57.92064871,Chrome,1536,864,,,,,0,1127,,,,,,,,,,,,,,,,,132,D,star,-1,1,,,,,,,,,,,,,,,,switch,no_choice,NA,,,Hi,,,,,,6,,,,,,,,high,11,0,11,0,1,,,,,,,,,
298351,2022-12-07_24h22.50.583,vts_reward_expectancy_bt,2022.2.4,Win32,57.92064871,Chrome,1536,864,,,,,0,1127,,,,,,,,,,,,,,,,,181,Y,circle,-1,0,,,,,,,,,,,,,,,,repeat,no_choice,NA,,,Hi,,,,,,6,,,,,,,,high,12,0,12,0,1,,,,,,,,,
298351,2022-12-07_24h22.50.583,vts_reward_expectancy_bt,2022.2.4,Win32,57.92064871,Chrome,1536,864,,,,,0,1127,,,,,,,,,,,,,,,,,167,B,hexagon,-1,0,,,,,,,,,,,,,,,,repeat,no_choice,NA,,,Hi,,,,,,6,,,,,,,,high,13,0,13,0,1,,,,,,,,,
298351,2022-12-07_24h22.50.583,vts_reward_expectancy_bt,2022.2.4,Win32,57.92064871,Chrome,1536,864,,,,,0,1127,,,,,,,,,,,,,,,,,139,F,star,-1,0,,,,,,,,,,,,,,,,repeat,no_choice,NA,,,Hi,,,,,,6,,,,,,,,high,14,0,14,0,1,,,,,,,,,
298351,2022-12-07_24h22.50.583,vts_reward_expectancy_bt,2022.2.4,Win32,57.92064871,Chrome,1536,864,,,,,0,1127,,,,,,,,,,,,,,,,,146,H,triangle,-1,0,,,,,,,,,,,,,,,,repeat,no_choice,NA,,,Hi,,,,,,6,,,,,,,,high,15,0,15,0,1,,,,,,,,,
298351,2022-12-07_24h22.50.583,vts_reward_expectancy_bt,2022.2.4,Win32,57.92064871,Chrome,1536,864,,,,,0,1127,,,,,,,,,,,,,,,,,167,W,triangle,-1,0,,,,,,,,,,,,,,,,repeat,no_choice,NA,,,Hi,,,,,,6,,,,,,,,high,16,0,16,0,1,,,,,,,,,
298351,2022-12-07_24h22.50.583,vts_reward_expectancy_bt,2022.2.4,Win32,57.92064871,Chrome,1536,864,,,,,0,1127,,,,,,,,,,,,,,,,,139,U,hexagon,-1,0,,,,,,,,,,,,,,,,repeat,no_choice,NA,,,Hi,,,,,,6,,,,,,,,high,17,0,17,0,1,,,,,,,,,
