participant,date,expName,psychopyVersion,OS,frameRate,browser,xResolution,yResolution,key_resp.keys,key_resp.rt,training_resp.keys,training_resp.rt,points_trial,points_cumul,trainBlock,training.thisRepN,training.thisTrialN,training.thisN,training.thisIndex,training.ran,LTriangleOpac,LCircleOpac,LHexagonOpac,LStarOpac,RTriangleOpac,RCircleOpac,RHexagonOpac,RStarOpac,LShape_ID,RShape_ID,curr_topStim,curr_bottStim,curr_shape,acc,E1,target_resp_prac1.keys,pracBlock,task1_prac_trials.thisRepN,task1_prac_trials.thisTrialN,task1_prac_trials.thisN,task1_prac_trials.thisIndex,task1_prac_trials.ran,target_resp_prac1.rt,target_resp_prac2.keys,target_resp_prac2.rt,task2_praac_trials.thisRepN,task2_praac_trials.thisTrialN,task2_praac_trials.thisN,task2_praac_trials.thisIndex,task2_praac_trials.ran,alt,task,condition,target_resp.keys,target_resp.rt,rewCond,vts_practice_trials.thisRepN,vts_practice_trials.thisTrialN,vts_practice_trials.thisN,vts_practice_trials.thisIndex,vts_practice_trials.ran,blockNum,trials_norew.thisRepN,trials_norew.thisTrialN,trials_norew.thisN,trials_norew.thisIndex,trials_norew.ran,key_resp_2.keys,key_resp_2.rt,rewExpectancy,trials_rew.thisRepN,trials_rew.thisTrialN,trials_rew.thisN,trials_rew.thisIndex,trials_rew.ran,Q1,Q2,Q2_text,Q3,Q4,Q5_text,Q5,xRes,yRes
298321,2022-12-05_14h57.00.754,vts_reward_expectancy_bt,2022.2.4,MacIntel,60.0024001,Chrome,1440,900,,,,,,,,,,,,,,,,,,,,,,,,,,,,,,,,,,,,,,,,,,,,,,,,,,,,,,,,,,,,,,,,,,,,,,,,,,,,
298321,2022-12-05_14h57.00.754,vts_reward_expectancy_bt,2022.2.4,MacIntel,60.0024001,Chrome,1440,900,space,28.7442,,,,,,,,,,,,,,,,,,,,,,,,,,,,,,,,,,,,,,,,,,,,,,,,,,,,,,,,,,,,,,,,,,,,,,,,,,
298321,2022-12-05_14h57.00.754,vts_reward_expectancy_bt,2022.2.4,MacIntel,60.0024001,Chrome,1440,900,,,,,,,,,,,,,,,,,,,,,,,,,,,,,,,,,,,,,,,,,,,,,,,,,,,,,,,,,,,,,,,,,,,,,,,,,,,,
298321,2022-12-05_14h57.00.754,vts_reward_expectancy_bt,2022.2.4,MacIntel,60.0024001,Chrome,1440,900,,,a,4.2324,1,1,0,0,0,0,5,1,0,1,0,0,0,0,0,1,circle,star,,,,,,,,,,,,,,,,,,,,,,,,,,,,,,,,,,,,,,,,,,,,,,,,,,,,,,
298321,2022-12-05_14h57.00.754,vts_reward_expectancy_bt,2022.2.4,MacIntel,60.0024001,Chrome,1440,900,,,a,1.538,10,11,0,0,1,1,3,1,0,1,0,0,1,0,0,0,circle,triangle,,,,,,,,,,,,,,,,,,,,,,,,,,,,,,,,,,,,,,,,,,,,,,,,,,,,,,
298321,2022-12-05_14h57.00.754,vts_reward_expectancy_bt,2022.2.4,MacIntel,60.0024001,Chrome,1440,900,,,l,2.4483,1,12,0,0,2,2,1,1,1,0,0,0,0,0,1,0,triangle,hexagon,,,,,,,,,,,,,,,,,,,,,,,,,,,,,,,,,,,,,,,,,,,,,,,,,,,,,,
298321,2022-12-05_14h57.00.754,vts_reward_expectancy_bt,2022.2.4,MacIntel,60.0024001,Chrome,1440,900,,,a,1.5881,10,22,0,0,3,3,9,1,0,0,0,1,1,0,0,0,star,triangle,,,,,,,,,,,,,,,,,,,,,,,,,,,,,,,,,,,,,,,,,,,,,,,,,,,,,,
298321,2022-12-05_14h57.00.754,vts_reward_expectancy_bt,2022.2.4,MacIntel,60.0024001,Chrome,1440,900,,,a,0.7318,1,23,0,0,4,4,8,1,0,0,1,0,0,0,0,1,hexagon,star,,,,,,,,,,,,,,,,,,,,,,,,,,,,,,,,,,,,,,,,,,,,,,,,,,,,,,
298321,2022-12-05_14h57.00.754,vts_reward_expectancy_bt,2022.2.4,MacIntel,60.0024001,Chrome,1440,900,,,a,1.7653,1,24,0,0,5,5,10,1,0,0,0,1,0,1,0,0,star ,circle,,,,,,,,,,,,,,,,,,,,,,,,,,,,,,,,,,,,,,,,,,,,,,,,,,,,,,
298321,2022-12-05_14h57.00.754,vts_reward_expectancy_bt,2022.2.4,MacIntel,60.0024001,Chrome,1440,900,,,a,1.2915,1,25,0,0,6,6,7,1,0,0,1,0,0,1,0,0,hexagon,circle,,,,,,,,,,,,,,,,,,,,,,,,,,,,,,,,,,,,,,,,,,,,,,,,,,,,,,
298321,2022-12-05_14h57.00.754,vts_reward_expectancy_bt,2022.2.4,MacIntel,60.0024001,Chrome,1440,900,,,l,0.5278,1,26,0,0,7,7,4,1,0,1,0,0,0,0,1,0,circle,hexagon,,,,,,,,,,,,,,,,,,,,,,,,,,,,,,,,,,,,,,,,,,,,,,,,,,,,,,
298321,2022-12-05_14h57.00.754,vts_reward_expectancy_bt,2022.2.4,MacIntel,60.0024001,Chrome,1440,900,,,l,0.925,10,36,0,0,8,8,6,1,0,0,1,0,1,0,0,0,hexagon,triangle,,,,,,,,,,,,,,,,,,,,,,,,,,,,,,,,,,,,,,,,,,,,,,,,,,,,,,
298321,2022-12-05_14h57.00.754,vts_reward_expectancy_bt,2022.2.4,MacIntel,60.0024001,Chrome,1440,900,,,a,0.5692,10,46,0,0,9,9,2,1,1,0,0,0,0,0,0,1,triangle,star,,,,,,,,,,,,,,,,,,,,,,,,,,,,,,,,,,,,,,,,,,,,,,,,,,,,,,
298321,2022-12-05_14h57.00.754,vts_reward_expectancy_bt,2022.2.4,MacIntel,60.0024001,Chrome,1440,900,,,l,0.3669,1,47,0,0,10,10,0,1,1,0,0,0,0,1,0,0,triangle,circle,,,,,,,,,,,,,,,,,,,,,,,,,,,,,,,,,,,,,,,,,,,,,,,,,,,,,,
298321,2022-12-05_14h57.00.754,vts_reward_expectancy_bt,2022.2.4,MacIntel,60.0024001,Chrome,1440,900,,,a,0.7024,1,48,0,0,11,11,11,1,0,0,0,1,0,0,1,0,star,hexagon,,,,,,,,,,,,,,,,,,,,,,,,,,,,,,,,,,,,,,,,,,,,,,,,,,,,,,
298321,2022-12-05_14h57.00.754,vts_reward_expectancy_bt,2022.2.4,MacIntel,60.0024001,Chrome,1440,900,,,a,0.7026,10,58,0,1,0,12,2,1,1,0,0,0,0,0,0,1,triangle,star,,,,,,,,,,,,,,,,,,,,,,,,,,,,,,,,,,,,,,,,,,,,,,,,,,,,,,
298321,2022-12-05_14h57.00.754,vts_reward_expectancy_bt,2022.2.4,MacIntel,60.0024001,Chrome,1440,900,,,l,0.9667,1,59,0,1,1,13,11,1,0,0,0,1,0,0,1,0,star,hexagon,,,,,,,,,,,,,,,,,,,,,,,,,,,,,,,,,,,,,,,,,,,,,,,,,,,,,,
298321,2022-12-05_14h57.00.754,vts_reward_expectancy_bt,2022.2.4,MacIntel,60.0024001,Chrome,1440,900,,,a,0.685,1,60,0,1,2,14,8,1,0,0,1,0,0,0,0,1,hexagon,star,,,,,,,,,,,,,,,,,,,,,,,,,,,,,,,,,,,,,,,,,,,,,,,,,,,,,,
298321,2022-12-05_14h57.00.754,vts_reward_expectancy_bt,2022.2.4,MacIntel,60.0024001,Chrome,1440,900,,,a,0.7998,10,70,0,1,3,15,0,1,1,0,0,0,0,1,0,0,triangle,circle,,,,,,,,,,,,,,,,,,,,,,,,,,,,,,,,,,,,,,,,,,,,,,,,,,,,,,
298321,2022-12-05_14h57.00.754,vts_reward_expectancy_bt,2022.2.4,MacIntel,60.0024001,Chrome,1440,900,,,a,0.7683,1,71,0,1,4,16,6,1,0,0,1,0,1,0,0,0,hexagon,triangle,,,,,,,,,,,,,,,,,,,,,,,,,,,,,,,,,,,,,,,,,,,,,,,,,,,,,,
298321,2022-12-05_14h57.00.754,vts_reward_expectancy_bt,2022.2.4,MacIntel,60.0024001,Chrome,1440,900,,,l,0.3995,1,72,0,1,5,17,4,1,0,1,0,0,0,0,1,0,circle,hexagon,,,,,,,,,,,,,,,,,,,,,,,,,,,,,,,,,,,,,,,,,,,,,,,,,,,,,,
298321,2022-12-05_14h57.00.754,vts_reward_expectancy_bt,2022.2.4,MacIntel,60.0024001,Chrome,1440,900,,,a,0.4975,1,73,0,1,6,18,10,1,0,0,0,1,0,1,0,0,star ,circle,,,,,,,,,,,,,,,,,,,,,,,,,,,,,,,,,,,,,,,,,,,,,,,,,,,,,,
298321,2022-12-05_14h57.00.754,vts_reward_expectancy_bt,2022.2.4,MacIntel,60.0024001,Chrome,1440,900,,,a,0.3021,1,74,0,1,7,19,5,1,0,1,0,0,0,0,0,1,circle,star,,,,,,,,,,,,,,,,,,,,,,,,,,,,,,,,,,,,,,,,,,,,,,,,,,,,,,
298321,2022-12-05_14h57.00.754,vts_reward_expectancy_bt,2022.2.4,MacIntel,60.0024001,Chrome,1440,900,,,l,0.3193,10,84,0,1,8,20,3,1,0,1,0,0,1,0,0,0,circle,triangle,,,,,,,,,,,,,,,,,,,,,,,,,,,,,,,,,,,,,,,,,,,,,,,,,,,,,,
298321,2022-12-05_14h57.00.754,vts_reward_expectancy_bt,2022.2.4,MacIntel,60.0024001,Chrome,1440,900,,,a,0.332,10,94,0,1,9,21,9,1,0,0,0,1,1,0,0,0,star,triangle,,,,,,,,,,,,,,,,,,,,,,,,,,,,,,,,,,,,,,,,,,,,,,,,,,,,,,
298321,2022-12-05_14h57.00.754,vts_reward_expectancy_bt,2022.2.4,MacIntel,60.0024001,Chrome,1440,900,,,a,0.3188,10,104,0,1,10,22,1,1,1,0,0,0,0,0,1,0,triangle,hexagon,,,,,,,,,,,,,,,,,,,,,,,,,,,,,,,,,,,,,,,,,,,,,,,,,,,,,,
298321,2022-12-05_14h57.00.754,vts_reward_expectancy_bt,2022.2.4,MacIntel,60.0024001,Chrome,1440,900,,,l,0.3489,1,105,0,1,11,23,7,1,0,0,1,0,0,1,0,0,hexagon,circle,,,,,,,,,,,,,,,,,,,,,,,,,,,,,,,,,,,,,,,,,,,,,,,,,,,,,,
298321,2022-12-05_14h57.00.754,vts_reward_expectancy_bt,2022.2.4,MacIntel,60.0024001,Chrome,1440,900,,,a,0.4179,1,106,0,2,0,24,5,1,0,1,0,0,0,0,0,1,circle,star,,,,,,,,,,,,,,,,,,,,,,,,,,,,,,,,,,,,,,,,,,,,,,,,,,,,,,
298321,2022-12-05_14h57.00.754,vts_reward_expectancy_bt,2022.2.4,MacIntel,60.0024001,Chrome,1440,900,,,a,0.5037,10,116,0,2,1,25,2,1,1,0,0,0,0,0,0,1,triangle,star,,,,,,,,,,,,,,,,,,,,,,,,,,,,,,,,,,,,,,,,,,,,,,,,,,,,,,
298321,2022-12-05_14h57.00.754,vts_reward_expectancy_bt,2022.2.4,MacIntel,60.0024001,Chrome,1440,900,,,a,0.3664,1,117,0,2,2,26,7,1,0,0,1,0,0,1,0,0,hexagon,circle,,,,,,,,,,,,,,,,,,,,,,,,,,,,,,,,,,,,,,,,,,,,,,,,,,,,,,
298321,2022-12-05_14h57.00.754,vts_reward_expectancy_bt,2022.2.4,MacIntel,60.0024001,Chrome,1440,900,,,l,0.533,10,127,0,2,3,27,6,1,0,0,1,0,1,0,0,0,hexagon,triangle,,,,,,,,,,,,,,,,,,,,,,,,,,,,,,,,,,,,,,,,,,,,,,,,,,,,,,
298321,2022-12-05_14h57.00.754,vts_reward_expectancy_bt,2022.2.4,MacIntel,60.0024001,Chrome,1440,900,,,a,0.5837,1,128,0,2,4,28,8,1,0,0,1,0,0,0,0,1,hexagon,star,,,,,,,,,,,,,,,,,,,,,,,,,,,,,,,,,,,,,,,,,,,,,,,,,,,,,,
298321,2022-12-05_14h57.00.754,vts_reward_expectancy_bt,2022.2.4,MacIntel,60.0024001,Chrome,1440,900,,,l,0.3032,1,129,0,2,5,29,0,1,1,0,0,0,0,1,0,0,triangle,circle,,,,,,,,,,,,,,,,,,,,,,,,,,,,,,,,,,,,,,,,,,,,,,,,,,,,,,
298321,2022-12-05_14h57.00.754,vts_reward_expectancy_bt,2022.2.4,MacIntel,60.0024001,Chrome,1440,900,,,a,0.3516,10,139,0,2,6,30,9,1,0,0,0,1,1,0,0,0,star,triangle,,,,,,,,,,,,,,,,,,,,,,,,,,,,,,,,,,,,,,,,,,,,,,,,,,,,,,
298321,2022-12-05_14h57.00.754,vts_reward_expectancy_bt,2022.2.4,MacIntel,60.0024001,Chrome,1440,900,,,a,0.3187,1,140,0,2,7,31,3,1,0,1,0,0,1,0,0,0,circle,triangle,,,,,,,,,,,,,,,,,,,,,,,,,,,,,,,,,,,,,,,,,,,,,,,,,,,,,,
298321,2022-12-05_14h57.00.754,vts_reward_expectancy_bt,2022.2.4,MacIntel,60.0024001,Chrome,1440,900,,,a,0.451,10,150,0,2,8,32,11,1,0,0,0,1,0,0,1,0,star,hexagon,,,,,,,,,,,,,,,,,,,,,,,,,,,,,,,,,,,,,,,,,,,,,,,,,,,,,,
298321,2022-12-05_14h57.00.754,vts_reward_expectancy_bt,2022.2.4,MacIntel,60.0024001,Chrome,1440,900,,,a,0.45,1,151,0,2,9,33,4,1,0,1,0,0,0,0,1,0,circle,hexagon,,,,,,,,,,,,,,,,,,,,,,,,,,,,,,,,,,,,,,,,,,,,,,,,,,,,,,
298321,2022-12-05_14h57.00.754,vts_reward_expectancy_bt,2022.2.4,MacIntel,60.0024001,Chrome,1440,900,,,a,0.384,10,161,0,2,10,34,1,1,1,0,0,0,0,0,1,0,triangle,hexagon,,,,,,,,,,,,,,,,,,,,,,,,,,,,,,,,,,,,,,,,,,,,,,,,,,,,,,
298321,2022-12-05_14h57.00.754,vts_reward_expectancy_bt,2022.2.4,MacIntel,60.0024001,Chrome,1440,900,,,a,0.5346,10,171,0,2,11,35,10,1,0,0,0,1,0,1,0,0,star ,circle,,,,,,,,,,,,,,,,,,,,,,,,,,,,,,,,,,,,,,,,,,,,,,,,,,,,,,
298321,2022-12-05_14h57.00.754,vts_reward_expectancy_bt,2022.2.4,MacIntel,60.0024001,Chrome,1440,900,,,l,0.7519,1,172,1,0,0,0,0,1,1,0,0,0,0,1,0,0,triangle,circle,,,,,,,,,,,,,,,,,,,,,,,,,,,,,,,,,,,,,,,,,,,,,,,,,,,,,,
298321,2022-12-05_14h57.00.754,vts_reward_expectancy_bt,2022.2.4,MacIntel,60.0024001,Chrome,1440,900,,,l,0.6703,1,173,1,0,1,1,6,1,0,0,1,0,1,0,0,0,hexagon,triangle,,,,,,,,,,,,,,,,,,,,,,,,,,,,,,,,,,,,,,,,,,,,,,,,,,,,,,
298321,2022-12-05_14h57.00.754,vts_reward_expectancy_bt,2022.2.4,MacIntel,60.0024001,Chrome,1440,900,,,l,0.6513,10,183,1,0,2,2,8,1,0,0,1,0,0,0,0,1,hexagon,star,,,,,,,,,,,,,,,,,,,,,,,,,,,,,,,,,,,,,,,,,,,,,,,,,,,,,,
298321,2022-12-05_14h57.00.754,vts_reward_expectancy_bt,2022.2.4,MacIntel,60.0024001,Chrome,1440,900,,,l,0.4522,10,193,1,0,3,3,2,1,1,0,0,0,0,0,0,1,triangle,star,,,,,,,,,,,,,,,,,,,,,,,,,,,,,,,,,,,,,,,,,,,,,,,,,,,,,,
298321,2022-12-05_14h57.00.754,vts_reward_expectancy_bt,2022.2.4,MacIntel,60.0024001,Chrome,1440,900,,,l,0.4003,1,194,1,0,4,4,1,1,1,0,0,0,0,0,1,0,triangle,hexagon,,,,,,,,,,,,,,,,,,,,,,,,,,,,,,,,,,,,,,,,,,,,,,,,,,,,,,
298321,2022-12-05_14h57.00.754,vts_reward_expectancy_bt,2022.2.4,MacIntel,60.0024001,Chrome,1440,900,,,a,0.2993,10,204,1,0,5,5,5,1,0,1,0,0,0,0,0,1,circle,star,,,,,,,,,,,,,,,,,,,,,,,,,,,,,,,,,,,,,,,,,,,,,,,,,,,,,,
298321,2022-12-05_14h57.00.754,vts_reward_expectancy_bt,2022.2.4,MacIntel,60.0024001,Chrome,1440,900,,,l,0.2842,10,214,1,0,6,6,9,1,0,0,0,1,1,0,0,0,star,triangle,,,,,,,,,,,,,,,,,,,,,,,,,,,,,,,,,,,,,,,,,,,,,,,,,,,,,,
298321,2022-12-05_14h57.00.754,vts_reward_expectancy_bt,2022.2.4,MacIntel,60.0024001,Chrome,1440,900,,,l,0.3169,1,215,1,0,7,7,3,1,0,1,0,0,1,0,0,0,circle,triangle,,,,,,,,,,,,,,,,,,,,,,,,,,,,,,,,,,,,,,,,,,,,,,,,,,,,,,
298321,2022-12-05_14h57.00.754,vts_reward_expectancy_bt,2022.2.4,MacIntel,60.0024001,Chrome,1440,900,,,a,0.2836,10,225,1,0,8,8,7,1,0,0,1,0,0,1,0,0,hexagon,circle,,,,,,,,,,,,,,,,,,,,,,,,,,,,,,,,,,,,,,,,,,,,,,,,,,,,,,
298321,2022-12-05_14h57.00.754,vts_reward_expectancy_bt,2022.2.4,MacIntel,60.0024001,Chrome,1440,900,,,l,0.3657,1,226,1,0,9,9,4,1,0,1,0,0,0,0,1,0,circle,hexagon,,,,,,,,,,,,,,,,,,,,,,,,,,,,,,,,,,,,,,,,,,,,,,,,,,,,,,
298321,2022-12-05_14h57.00.754,vts_reward_expectancy_bt,2022.2.4,MacIntel,60.0024001,Chrome,1440,900,,,a,0.3174,10,236,1,0,10,10,11,1,0,0,0,1,0,0,1,0,star,hexagon,,,,,,,,,,,,,,,,,,,,,,,,,,,,,,,,,,,,,,,,,,,,,,,,,,,,,,
298321,2022-12-05_14h57.00.754,vts_reward_expectancy_bt,2022.2.4,MacIntel,60.0024001,Chrome,1440,900,,,a,0.3658,10,246,1,0,11,11,10,1,0,0,0,1,0,1,0,0,star ,circle,,,,,,,,,,,,,,,,,,,,,,,,,,,,,,,,,,,,,,,,,,,,,,,,,,,,,,
298321,2022-12-05_14h57.00.754,vts_reward_expectancy_bt,2022.2.4,MacIntel,60.0024001,Chrome,1440,900,,,l,0.3836,10,256,1,1,0,12,9,1,0,0,0,1,1,0,0,0,star,triangle,,,,,,,,,,,,,,,,,,,,,,,,,,,,,,,,,,,,,,,,,,,,,,,,,,,,,,
298321,2022-12-05_14h57.00.754,vts_reward_expectancy_bt,2022.2.4,MacIntel,60.0024001,Chrome,1440,900,,,l,0.3637,10,266,1,1,1,13,8,1,0,0,1,0,0,0,0,1,hexagon,star,,,,,,,,,,,,,,,,,,,,,,,,,,,,,,,,,,,,,,,,,,,,,,,,,,,,,,
298321,2022-12-05_14h57.00.754,vts_reward_expectancy_bt,2022.2.4,MacIntel,60.0024001,Chrome,1440,900,,,a,0.475,10,276,1,1,2,14,11,1,0,0,0,1,0,0,1,0,star,hexagon,,,,,,,,,,,,,,,,,,,,,,,,,,,,,,,,,,,,,,,,,,,,,,,,,,,,,,
298321,2022-12-05_14h57.00.754,vts_reward_expectancy_bt,2022.2.4,MacIntel,60.0024001,Chrome,1440,900,,,a,0.3151,1,277,1,1,3,15,4,1,0,1,0,0,0,0,1,0,circle,hexagon,,,,,,,,,,,,,,,,,,,,,,,,,,,,,,,,,,,,,,,,,,,,,,,,,,,,,,
298321,2022-12-05_14h57.00.754,vts_reward_expectancy_bt,2022.2.4,MacIntel,60.0024001,Chrome,1440,900,,,l,0.332,10,287,1,1,4,16,2,1,1,0,0,0,0,0,0,1,triangle,star,,,,,,,,,,,,,,,,,,,,,,,,,,,,,,,,,,,,,,,,,,,,,,,,,,,,,,
298321,2022-12-05_14h57.00.754,vts_reward_expectancy_bt,2022.2.4,MacIntel,60.0024001,Chrome,1440,900,,,l,0.3193,10,297,1,1,5,17,6,1,0,0,1,0,1,0,0,0,hexagon,triangle,,,,,,,,,,,,,,,,,,,,,,,,,,,,,,,,,,,,,,,,,,,,,,,,,,,,,,
298321,2022-12-05_14h57.00.754,vts_reward_expectancy_bt,2022.2.4,MacIntel,60.0024001,Chrome,1440,900,,,a,0.3654,1,298,1,1,6,18,5,1,0,1,0,0,0,0,0,1,circle,star,,,,,,,,,,,,,,,,,,,,,,,,,,,,,,,,,,,,,,,,,,,,,,,,,,,,,,
298321,2022-12-05_14h57.00.754,vts_reward_expectancy_bt,2022.2.4,MacIntel,60.0024001,Chrome,1440,900,,,l,0.2892,10,308,1,1,7,19,3,1,0,1,0,0,1,0,0,0,circle,triangle,,,,,,,,,,,,,,,,,,,,,,,,,,,,,,,,,,,,,,,,,,,,,,,,,,,,,,
298321,2022-12-05_14h57.00.754,vts_reward_expectancy_bt,2022.2.4,MacIntel,60.0024001,Chrome,1440,900,,,l,0.3314,1,309,1,1,8,20,10,1,0,0,0,1,0,1,0,0,star ,circle,,,,,,,,,,,,,,,,,,,,,,,,,,,,,,,,,,,,,,,,,,,,,,,,,,,,,,
298321,2022-12-05_14h57.00.754,vts_reward_expectancy_bt,2022.2.4,MacIntel,60.0024001,Chrome,1440,900,,,a,0.2847,1,310,1,1,9,21,7,1,0,0,1,0,0,1,0,0,hexagon,circle,,,,,,,,,,,,,,,,,,,,,,,,,,,,,,,,,,,,,,,,,,,,,,,,,,,,,,
298321,2022-12-05_14h57.00.754,vts_reward_expectancy_bt,2022.2.4,MacIntel,60.0024001,Chrome,1440,900,,,a,0.2531,10,320,1,1,10,22,0,1,1,0,0,0,0,1,0,0,triangle,circle,,,,,,,,,,,,,,,,,,,,,,,,,,,,,,,,,,,,,,,,,,,,,,,,,,,,,,
298321,2022-12-05_14h57.00.754,vts_reward_expectancy_bt,2022.2.4,MacIntel,60.0024001,Chrome,1440,900,,,l,0.6004,10,330,1,1,11,23,1,1,1,0,0,0,0,0,1,0,triangle,hexagon,,,,,,,,,,,,,,,,,,,,,,,,,,,,,,,,,,,,,,,,,,,,,,,,,,,,,,
298321,2022-12-05_14h57.00.754,vts_reward_expectancy_bt,2022.2.4,MacIntel,60.0024001,Chrome,1440,900,,,a,0.4344,10,340,1,2,0,24,2,1,1,0,0,0,0,0,0,1,triangle,star,,,,,,,,,,,,,,,,,,,,,,,,,,,,,,,,,,,,,,,,,,,,,,,,,,,,,,
298321,2022-12-05_14h57.00.754,vts_reward_expectancy_bt,2022.2.4,MacIntel,60.0024001,Chrome,1440,900,,,a,0.4499,10,350,1,2,1,25,10,1,0,0,0,1,0,1,0,0,star ,circle,,,,,,,,,,,,,,,,,,,,,,,,,,,,,,,,,,,,,,,,,,,,,,,,,,,,,,
298321,2022-12-05_14h57.00.754,vts_reward_expectancy_bt,2022.2.4,MacIntel,60.0024001,Chrome,1440,900,,,l,1.032,1,351,1,2,2,26,4,1,0,1,0,0,0,0,1,0,circle,hexagon,,,,,,,,,,,,,,,,,,,,,,,,,,,,,,,,,,,,,,,,,,,,,,,,,,,,,,
298321,2022-12-05_14h57.00.754,vts_reward_expectancy_bt,2022.2.4,MacIntel,60.0024001,Chrome,1440,900,,,a,0.3491,1,352,1,2,3,27,6,1,0,0,1,0,1,0,0,0,hexagon,triangle,,,,,,,,,,,,,,,,,,,,,,,,,,,,,,,,,,,,,,,,,,,,,,,,,,,,,,
298321,2022-12-05_14h57.00.754,vts_reward_expectancy_bt,2022.2.4,MacIntel,60.0024001,Chrome,1440,900,,,a,0.3174,10,362,1,2,4,28,0,1,1,0,0,0,0,1,0,0,triangle,circle,,,,,,,,,,,,,,,,,,,,,,,,,,,,,,,,,,,,,,,,,,,,,,,,,,,,,,
298321,2022-12-05_14h57.00.754,vts_reward_expectancy_bt,2022.2.4,MacIntel,60.0024001,Chrome,1440,900,,,a,0.3999,1,363,1,2,5,29,8,1,0,0,1,0,0,0,0,1,hexagon,star,,,,,,,,,,,,,,,,,,,,,,,,,,,,,,,,,,,,,,,,,,,,,,,,,,,,,,
298321,2022-12-05_14h57.00.754,vts_reward_expectancy_bt,2022.2.4,MacIntel,60.0024001,Chrome,1440,900,,,l,0.2839,1,364,1,2,6,30,1,1,1,0,0,0,0,0,1,0,triangle,hexagon,,,,,,,,,,,,,,,,,,,,,,,,,,,,,,,,,,,,,,,,,,,,,,,,,,,,,,
298321,2022-12-05_14h57.00.754,vts_reward_expectancy_bt,2022.2.4,MacIntel,60.0024001,Chrome,1440,900,,,l,0.2995,10,374,1,2,7,31,3,1,0,1,0,0,1,0,0,0,circle,triangle,,,,,,,,,,,,,,,,,,,,,,,,,,,,,,,,,,,,,,,,,,,,,,,,,,,,,,
298321,2022-12-05_14h57.00.754,vts_reward_expectancy_bt,2022.2.4,MacIntel,60.0024001,Chrome,1440,900,,,a,0.4985,10,384,1,2,8,32,9,1,0,0,0,1,1,0,0,0,star,triangle,,,,,,,,,,,,,,,,,,,,,,,,,,,,,,,,,,,,,,,,,,,,,,,,,,,,,,
298321,2022-12-05_14h57.00.754,vts_reward_expectancy_bt,2022.2.4,MacIntel,60.0024001,Chrome,1440,900,,,a,0.4212,1,385,1,2,9,33,7,1,0,0,1,0,0,1,0,0,hexagon,circle,,,,,,,,,,,,,,,,,,,,,,,,,,,,,,,,,,,,,,,,,,,,,,,,,,,,,,
298321,2022-12-05_14h57.00.754,vts_reward_expectancy_bt,2022.2.4,MacIntel,60.0024001,Chrome,1440,900,,,l,0.3553,1,386,1,2,10,34,11,1,0,0,0,1,0,0,1,0,star,hexagon,,,,,,,,,,,,,,,,,,,,,,,,,,,,,,,,,,,,,,,,,,,,,,,,,,,,,,
298321,2022-12-05_14h57.00.754,vts_reward_expectancy_bt,2022.2.4,MacIntel,60.0024001,Chrome,1440,900,,,a,0.5346,1,387,1,2,11,35,5,1,0,1,0,0,0,0,0,1,circle,star,,,,,,,,,,,,,,,,,,,,,,,,,,,,,,,,,,,,,,,,,,,,,,,,,,,,,,
298321,2022-12-05_14h57.00.754,vts_reward_expectancy_bt,2022.2.4,MacIntel,60.0024001,Chrome,1440,900,,,a,0.6415,10,397,2,0,0,0,1,1,1,0,0,0,0,0,1,0,triangle,hexagon,,,,,,,,,,,,,,,,,,,,,,,,,,,,,,,,,,,,,,,,,,,,,,,,,,,,,,
298321,2022-12-05_14h57.00.754,vts_reward_expectancy_bt,2022.2.4,MacIntel,60.0024001,Chrome,1440,900,,,l,2.9848,1,398,2,0,1,1,10,1,0,0,0,1,0,1,0,0,star ,circle,,,,,,,,,,,,,,,,,,,,,,,,,,,,,,,,,,,,,,,,,,,,,,,,,,,,,,
298321,2022-12-05_14h57.00.754,vts_reward_expectancy_bt,2022.2.4,MacIntel,60.0024001,Chrome,1440,900,,,a,0.7692,10,408,2,0,2,2,11,1,0,0,0,1,0,0,1,0,star,hexagon,,,,,,,,,,,,,,,,,,,,,,,,,,,,,,,,,,,,,,,,,,,,,,,,,,,,,,
298321,2022-12-05_14h57.00.754,vts_reward_expectancy_bt,2022.2.4,MacIntel,60.0024001,Chrome,1440,900,,,l,0.521,1,409,2,0,3,3,3,1,0,1,0,0,1,0,0,0,circle,triangle,,,,,,,,,,,,,,,,,,,,,,,,,,,,,,,,,,,,,,,,,,,,,,,,,,,,,,
298321,2022-12-05_14h57.00.754,vts_reward_expectancy_bt,2022.2.4,MacIntel,60.0024001,Chrome,1440,900,,,l,1.0483,1,410,2,0,4,4,0,1,1,0,0,0,0,1,0,0,triangle,circle,,,,,,,,,,,,,,,,,,,,,,,,,,,,,,,,,,,,,,,,,,,,,,,,,,,,,,
298321,2022-12-05_14h57.00.754,vts_reward_expectancy_bt,2022.2.4,MacIntel,60.0024001,Chrome,1440,900,,,a,0.9347,1,411,2,0,5,5,7,1,0,0,1,0,0,1,0,0,hexagon,circle,,,,,,,,,,,,,,,,,,,,,,,,,,,,,,,,,,,,,,,,,,,,,,,,,,,,,,
298321,2022-12-05_14h57.00.754,vts_reward_expectancy_bt,2022.2.4,MacIntel,60.0024001,Chrome,1440,900,,,a,0.6646,10,421,2,0,6,6,6,1,0,0,1,0,1,0,0,0,hexagon,triangle,,,,,,,,,,,,,,,,,,,,,,,,,,,,,,,,,,,,,,,,,,,,,,,,,,,,,,
298321,2022-12-05_14h57.00.754,vts_reward_expectancy_bt,2022.2.4,MacIntel,60.0024001,Chrome,1440,900,,,l,0.5665,1,422,2,0,7,7,4,1,0,1,0,0,0,0,1,0,circle,hexagon,,,,,,,,,,,,,,,,,,,,,,,,,,,,,,,,,,,,,,,,,,,,,,,,,,,,,,
298321,2022-12-05_14h57.00.754,vts_reward_expectancy_bt,2022.2.4,MacIntel,60.0024001,Chrome,1440,900,,,a,0.4851,1,423,2,0,8,8,8,1,0,0,1,0,0,0,0,1,hexagon,star,,,,,,,,,,,,,,,,,,,,,,,,,,,,,,,,,,,,,,,,,,,,,,,,,,,,,,
298321,2022-12-05_14h57.00.754,vts_reward_expectancy_bt,2022.2.4,MacIntel,60.0024001,Chrome,1440,900,,,a,0.1005,10,433,2,0,9,9,2,1,1,0,0,0,0,0,0,1,triangle,star,,,,,,,,,,,,,,,,,,,,,,,,,,,,,,,,,,,,,,,,,,,,,,,,,,,,,,
298321,2022-12-05_14h57.00.754,vts_reward_expectancy_bt,2022.2.4,MacIntel,60.0024001,Chrome,1440,900,,,a,0.4174,10,443,2,0,10,10,9,1,0,0,0,1,1,0,0,0,star,triangle,,,,,,,,,,,,,,,,,,,,,,,,,,,,,,,,,,,,,,,,,,,,,,,,,,,,,,
298321,2022-12-05_14h57.00.754,vts_reward_expectancy_bt,2022.2.4,MacIntel,60.0024001,Chrome,1440,900,,,a,0.3354,1,444,2,0,11,11,5,1,0,1,0,0,0,0,0,1,circle,star,,,,,,,,,,,,,,,,,,,,,,,,,,,,,,,,,,,,,,,,,,,,,,,,,,,,,,
298321,2022-12-05_14h57.00.754,vts_reward_expectancy_bt,2022.2.4,MacIntel,60.0024001,Chrome,1440,900,,,a,0.4493,1,445,2,1,0,12,8,1,0,0,1,0,0,0,0,1,hexagon,star,,,,,,,,,,,,,,,,,,,,,,,,,,,,,,,,,,,,,,,,,,,,,,,,,,,,,,
298321,2022-12-05_14h57.00.754,vts_reward_expectancy_bt,2022.2.4,MacIntel,60.0024001,Chrome,1440,900,,,a,0.4838,1,446,2,1,1,13,7,1,0,0,1,0,0,1,0,0,hexagon,circle,,,,,,,,,,,,,,,,,,,,,,,,,,,,,,,,,,,,,,,,,,,,,,,,,,,,,,
298321,2022-12-05_14h57.00.754,vts_reward_expectancy_bt,2022.2.4,MacIntel,60.0024001,Chrome,1440,900,,,a,0.6498,10,456,2,1,2,14,6,1,0,0,1,0,1,0,0,0,hexagon,triangle,,,,,,,,,,,,,,,,,,,,,,,,,,,,,,,,,,,,,,,,,,,,,,,,,,,,,,
298321,2022-12-05_14h57.00.754,vts_reward_expectancy_bt,2022.2.4,MacIntel,60.0024001,Chrome,1440,900,,,a,0.3352,1,457,2,1,3,15,4,1,0,1,0,0,0,0,1,0,circle,hexagon,,,,,,,,,,,,,,,,,,,,,,,,,,,,,,,,,,,,,,,,,,,,,,,,,,,,,,
298321,2022-12-05_14h57.00.754,vts_reward_expectancy_bt,2022.2.4,MacIntel,60.0024001,Chrome,1440,900,,,l,0.2665,10,467,2,1,4,16,0,1,1,0,0,0,0,1,0,0,triangle,circle,,,,,,,,,,,,,,,,,,,,,,,,,,,,,,,,,,,,,,,,,,,,,,,,,,,,,,
298321,2022-12-05_14h57.00.754,vts_reward_expectancy_bt,2022.2.4,MacIntel,60.0024001,Chrome,1440,900,,,l,0.4044,1,468,2,1,5,17,11,1,0,0,0,1,0,0,1,0,star,hexagon,,,,,,,,,,,,,,,,,,,,,,,,,,,,,,,,,,,,,,,,,,,,,,,,,,,,,,
298321,2022-12-05_14h57.00.754,vts_reward_expectancy_bt,2022.2.4,MacIntel,60.0024001,Chrome,1440,900,,,a,0.5189,10,478,2,1,6,18,9,1,0,0,0,1,1,0,0,0,star,triangle,,,,,,,,,,,,,,,,,,,,,,,,,,,,,,,,,,,,,,,,,,,,,,,,,,,,,,
298321,2022-12-05_14h57.00.754,vts_reward_expectancy_bt,2022.2.4,MacIntel,60.0024001,Chrome,1440,900,,,l,0.3207,10,488,2,1,7,19,1,1,1,0,0,0,0,0,1,0,triangle,hexagon,,,,,,,,,,,,,,,,,,,,,,,,,,,,,,,,,,,,,,,,,,,,,,,,,,,,,,
298321,2022-12-05_14h57.00.754,vts_reward_expectancy_bt,2022.2.4,MacIntel,60.0024001,Chrome,1440,900,,,a,0.3844,1,489,2,1,8,20,3,1,0,1,0,0,1,0,0,0,circle,triangle,,,,,,,,,,,,,,,,,,,,,,,,,,,,,,,,,,,,,,,,,,,,,,,,,,,,,,
298321,2022-12-05_14h57.00.754,vts_reward_expectancy_bt,2022.2.4,MacIntel,60.0024001,Chrome,1440,900,,,a,0.3335,10,499,2,1,9,21,2,1,1,0,0,0,0,0,0,1,triangle,star,,,,,,,,,,,,,,,,,,,,,,,,,,,,,,,,,,,,,,,,,,,,,,,,,,,,,,
298321,2022-12-05_14h57.00.754,vts_reward_expectancy_bt,2022.2.4,MacIntel,60.0024001,Chrome,1440,900,,,a,0.8546,10,509,2,1,10,22,10,1,0,0,0,1,0,1,0,0,star ,circle,,,,,,,,,,,,,,,,,,,,,,,,,,,,,,,,,,,,,,,,,,,,,,,,,,,,,,
298321,2022-12-05_14h57.00.754,vts_reward_expectancy_bt,2022.2.4,MacIntel,60.0024001,Chrome,1440,900,,,l,0.3509,10,519,2,1,11,23,5,1,0,1,0,0,0,0,0,1,circle,star,,,,,,,,,,,,,,,,,,,,,,,,,,,,,,,,,,,,,,,,,,,,,,,,,,,,,,
298321,2022-12-05_14h57.00.754,vts_reward_expectancy_bt,2022.2.4,MacIntel,60.0024001,Chrome,1440,900,,,a,0.4171,1,520,2,2,0,24,8,1,0,0,1,0,0,0,0,1,hexagon,star,,,,,,,,,,,,,,,,,,,,,,,,,,,,,,,,,,,,,,,,,,,,,,,,,,,,,,
298321,2022-12-05_14h57.00.754,vts_reward_expectancy_bt,2022.2.4,MacIntel,60.0024001,Chrome,1440,900,,,a,0.3831,1,521,2,2,1,25,5,1,0,1,0,0,0,0,0,1,circle,star,,,,,,,,,,,,,,,,,,,,,,,,,,,,,,,,,,,,,,,,,,,,,,,,,,,,,,
298321,2022-12-05_14h57.00.754,vts_reward_expectancy_bt,2022.2.4,MacIntel,60.0024001,Chrome,1440,900,,,l,0.3678,1,522,2,2,2,26,10,1,0,0,0,1,0,1,0,0,star ,circle,,,,,,,,,,,,,,,,,,,,,,,,,,,,,,,,,,,,,,,,,,,,,,,,,,,,,,
298321,2022-12-05_14h57.00.754,vts_reward_expectancy_bt,2022.2.4,MacIntel,60.0024001,Chrome,1440,900,,,a,0.3506,10,532,2,2,3,27,9,1,0,0,0,1,1,0,0,0,star,triangle,,,,,,,,,,,,,,,,,,,,,,,,,,,,,,,,,,,,,,,,,,,,,,,,,,,,,,
298321,2022-12-05_14h57.00.754,vts_reward_expectancy_bt,2022.2.4,MacIntel,60.0024001,Chrome,1440,900,,,a,0.5191,10,542,2,2,4,28,11,1,0,0,0,1,0,0,1,0,star,hexagon,,,,,,,,,,,,,,,,,,,,,,,,,,,,,,,,,,,,,,,,,,,,,,,,,,,,,,
298321,2022-12-05_14h57.00.754,vts_reward_expectancy_bt,2022.2.4,MacIntel,60.0024001,Chrome,1440,900,,,a,0.4838,10,552,2,2,5,29,6,1,0,0,1,0,1,0,0,0,hexagon,triangle,,,,,,,,,,,,,,,,,,,,,,,,,,,,,,,,,,,,,,,,,,,,,,,,,,,,,,
298321,2022-12-05_14h57.00.754,vts_reward_expectancy_bt,2022.2.4,MacIntel,60.0024001,Chrome,1440,900,,,l,0.3026,1,553,2,2,6,30,4,1,0,1,0,0,0,0,1,0,circle,hexagon,,,,,,,,,,,,,,,,,,,,,,,,,,,,,,,,,,,,,,,,,,,,,,,,,,,,,,
298321,2022-12-05_14h57.00.754,vts_reward_expectancy_bt,2022.2.4,MacIntel,60.0024001,Chrome,1440,900,,,a,0.3024,10,563,2,2,7,31,0,1,1,0,0,0,0,1,0,0,triangle,circle,,,,,,,,,,,,,,,,,,,,,,,,,,,,,,,,,,,,,,,,,,,,,,,,,,,,,,
298321,2022-12-05_14h57.00.754,vts_reward_expectancy_bt,2022.2.4,MacIntel,60.0024001,Chrome,1440,900,,,a,0.6832,1,564,2,2,8,32,3,1,0,1,0,0,1,0,0,0,circle,triangle,,,,,,,,,,,,,,,,,,,,,,,,,,,,,,,,,,,,,,,,,,,,,,,,,,,,,,
298321,2022-12-05_14h57.00.754,vts_reward_expectancy_bt,2022.2.4,MacIntel,60.0024001,Chrome,1440,900,,,l,0.4821,1,565,2,2,9,33,7,1,0,0,1,0,0,1,0,0,hexagon,circle,,,,,,,,,,,,,,,,,,,,,,,,,,,,,,,,,,,,,,,,,,,,,,,,,,,,,,
298321,2022-12-05_14h57.00.754,vts_reward_expectancy_bt,2022.2.4,MacIntel,60.0024001,Chrome,1440,900,,,a,0.4162,10,575,2,2,10,34,2,1,1,0,0,0,0,0,0,1,triangle,star,,,,,,,,,,,,,,,,,,,,,,,,,,,,,,,,,,,,,,,,,,,,,,,,,,,,,,
298321,2022-12-05_14h57.00.754,vts_reward_expectancy_bt,2022.2.4,MacIntel,60.0024001,Chrome,1440,900,,,a,0.4548,10,585,2,2,11,35,1,1,1,0,0,0,0,0,1,0,triangle,hexagon,,,,,,,,,,,,,,,,,,,,,,,,,,,,,,,,,,,,,,,,,,,,,,,,,,,,,,
298321,2022-12-05_14h57.00.754,vts_reward_expectancy_bt,2022.2.4,MacIntel,60.0024001,Chrome,1440,900,,,,,,,,,,,,,,,,,,,,,,,146,H,circle,0,0,,0,0,0,0,0,1,,,,,,,,,,,,,,,,,,,,,,,,,,,,,,,,,,,,,,,,,,
298321,2022-12-05_14h57.00.754,vts_reward_expectancy_bt,2022.2.4,MacIntel,60.0024001,Chrome,1440,900,,,,,,,,,,,,,,,,,,,,,,,167,Y,hexagon,1,1,f,0,1,0,1,0,1,0.697,,,,,,,,,,,,,,,,,,,,,,,,,,,,,,,,,,,,,,,,,
298321,2022-12-05_14h57.00.754,vts_reward_expectancy_bt,2022.2.4,MacIntel,60.0024001,Chrome,1440,900,,,,,,,,,,,,,,,,,,,,,,,174,B,star,1,0,f,0,2,0,2,0,1,0.7138,,,,,,,,,,,,,,,,,,,,,,,,,,,,,,,,,,,,,,,,,
298321,2022-12-05_14h57.00.754,vts_reward_expectancy_bt,2022.2.4,MacIntel,60.0024001,Chrome,1440,900,,,,,,,,,,,,,,,,,,,,,,,160,S,triangle,1,0,f,0,3,0,3,0,1,1.2289,,,,,,,,,,,,,,,,,,,,,,,,,,,,,,,,,,,,,,,,,
298321,2022-12-05_14h57.00.754,vts_reward_expectancy_bt,2022.2.4,MacIntel,60.0024001,Chrome,1440,900,,,,,,,,,,,,,,,,,,,,,,,139,W,circle,1,0,d,0,4,0,4,0,1,0.7826,,,,,,,,,,,,,,,,,,,,,,,,,,,,,,,,,,,,,,,,,
298321,2022-12-05_14h57.00.754,vts_reward_expectancy_bt,2022.2.4,MacIntel,60.0024001,Chrome,1440,900,,,,,,,,,,,,,,,,,,,,,,,125,U,hexagon,1,0,d,0,5,0,5,0,1,0.93,,,,,,,,,,,,,,,,,,,,,,,,,,,,,,,,,,,,,,,,,
298321,2022-12-05_14h57.00.754,vts_reward_expectancy_bt,2022.2.4,MacIntel,60.0024001,Chrome,1440,900,,,,,,,,,,,,,,,,,,,,,,,132,F,star,1,0,d,0,6,0,6,0,1,0.6137,,,,,,,,,,,,,,,,,,,,,,,,,,,,,,,,,,,,,,,,,
298321,2022-12-05_14h57.00.754,vts_reward_expectancy_bt,2022.2.4,MacIntel,60.0024001,Chrome,1440,900,,,,,,,,,,,,,,,,,,,,,,,181,D,triangle,1,0,f,0,7,0,7,0,1,0.7022,,,,,,,,,,,,,,,,,,,,,,,,,,,,,,,,,,,,,,,,,
298321,2022-12-05_14h57.00.754,vts_reward_expectancy_bt,2022.2.4,MacIntel,60.0024001,Chrome,1440,900,,,,,,,,,,,,,,,,,,,,,,,146,H,hexagon,1,0,d,0,8,0,8,0,1,0.6973,,,,,,,,,,,,,,,,,,,,,,,,,,,,,,,,,,,,,,,,,
298321,2022-12-05_14h57.00.754,vts_reward_expectancy_bt,2022.2.4,MacIntel,60.0024001,Chrome,1440,900,,,,,,,,,,,,,,,,,,,,,,,167,Y,star,1,0,f,0,9,0,9,0,1,0.6317,,,,,,,,,,,,,,,,,,,,,,,,,,,,,,,,,,,,,,,,,
298321,2022-12-05_14h57.00.754,vts_reward_expectancy_bt,2022.2.4,MacIntel,60.0024001,Chrome,1440,900,,,,,,,,,,,,,,,,,,,,,,,160,W,circle,1,0,,1,,,,,,,k,0.9842,0,0,0,0,1,,,,,,,,,,,,,,,,,,,,,,,,,,,,,,,,,,
298321,2022-12-05_14h57.00.754,vts_reward_expectancy_bt,2022.2.4,MacIntel,60.0024001,Chrome,1440,900,,,,,,,,,,,,,,,,,,,,,,,132,Y,hexagon,1,0,,1,,,,,,,k,0.6834,1,0,1,0,1,,,,,,,,,,,,,,,,,,,,,,,,,,,,,,,,,,
298321,2022-12-05_14h57.00.754,vts_reward_expectancy_bt,2022.2.4,MacIntel,60.0024001,Chrome,1440,900,,,,,,,,,,,,,,,,,,,,,,,139,F,star,1,0,,1,,,,,,,j,0.7977,2,0,2,0,1,,,,,,,,,,,,,,,,,,,,,,,,,,,,,,,,,,
298321,2022-12-05_14h57.00.754,vts_reward_expectancy_bt,2022.2.4,MacIntel,60.0024001,Chrome,1440,900,,,,,,,,,,,,,,,,,,,,,,,181,S,triangle,1,0,,1,,,,,,,k,0.5159,3,0,3,0,1,,,,,,,,,,,,,,,,,,,,,,,,,,,,,,,,,,
298321,2022-12-05_14h57.00.754,vts_reward_expectancy_bt,2022.2.4,MacIntel,60.0024001,Chrome,1440,900,,,,,,,,,,,,,,,,,,,,,,,174,D,circle,1,0,,1,,,,,,,j,0.582,4,0,4,0,1,,,,,,,,,,,,,,,,,,,,,,,,,,,,,,,,,,
298321,2022-12-05_14h57.00.754,vts_reward_expectancy_bt,2022.2.4,MacIntel,60.0024001,Chrome,1440,900,,,,,,,,,,,,,,,,,,,,,,,146,U,hexagon,1,0,,1,,,,,,,k,0.6121,5,0,5,0,1,,,,,,,,,,,,,,,,,,,,,,,,,,,,,,,,,,
298321,2022-12-05_14h57.00.754,vts_reward_expectancy_bt,2022.2.4,MacIntel,60.0024001,Chrome,1440,900,,,,,,,,,,,,,,,,,,,,,,,167,B,star,1,0,,1,,,,,,,j,0.4626,6,0,6,0,1,,,,,,,,,,,,,,,,,,,,,,,,,,,,,,,,,,
298321,2022-12-05_14h57.00.754,vts_reward_expectancy_bt,2022.2.4,MacIntel,60.0024001,Chrome,1440,900,,,,,,,,,,,,,,,,,,,,,,,125,H,triangle,1,0,,1,,,,,,,j,0.5846,7,0,7,0,1,,,,,,,,,,,,,,,,,,,,,,,,,,,,,,,,,,
298321,2022-12-05_14h57.00.754,vts_reward_expectancy_bt,2022.2.4,MacIntel,60.0024001,Chrome,1440,900,,,,,,,,,,,,,,,,,,,,,,,160,W,triangle,1,0,,1,,,,,,,k,0.6807,8,0,8,0,1,,,,,,,,,,,,,,,,,,,,,,,,,,,,,,,,,,
298321,2022-12-05_14h57.00.754,vts_reward_expectancy_bt,2022.2.4,MacIntel,60.0024001,Chrome,1440,900,,,,,,,,,,,,,,,,,,,,,,,132,Y,circle,1,0,,1,,,,,,,k,0.5973,9,0,9,0,1,,,,,,,,,,,,,,,,,,,,,,,,,,,,,,,,,,
298321,2022-12-05_14h57.00.754,vts_reward_expectancy_bt,2022.2.4,MacIntel,60.0024001,Chrome,1440,900,,,,,0,585,,,,,,,,,,,,,,,,,167,F,hexagon,1,0,,2,,,,,,,,,,,,,,-1,number,NA,f,1.8258,vtsPrac,0,0,0,0,1,,,,,,,,,,,,,,,,,,,,,,,
298321,2022-12-05_14h57.00.754,vts_reward_expectancy_bt,2022.2.4,MacIntel,60.0024001,Chrome,1440,900,,,,,0,585,,,,,,,,,,,,,,,,,174,H,triangle,1,0,,2,,,,,,,,,,,,,,repeat,number,numRpt,f,1.1483,vtsPrac,1,0,1,0,1,,,,,,,,,,,,,,,,,,,,,,,
298321,2022-12-05_14h57.00.754,vts_reward_expectancy_bt,2022.2.4,MacIntel,60.0024001,Chrome,1440,900,,,,,0,585,,,,,,,,,,,,,,,,,160,S,hexagon,0,0,,2,,,,,,,,,,,,,,repeat,number,NA,d,1.0138,vtsPrac,2,0,2,0,1,,,,,,,,,,,,,,,,,,,,,,,
298321,2022-12-05_14h57.00.754,vts_reward_expectancy_bt,2022.2.4,MacIntel,60.0024001,Chrome,1440,900,,,,,0,585,,,,,,,,,,,,,,,,,139,D,triangle,1,1,,2,,,,,,,,,,,,,,repeat,number,numRpt,d,1.2476,vtsPrac,3,0,3,0,1,,,,,,,,,,,,,,,,,,,,,,,
298321,2022-12-05_14h57.00.754,vts_reward_expectancy_bt,2022.2.4,MacIntel,60.0024001,Chrome,1440,900,,,,,0,585,,,,,,,,,,,,,,,,,167,F,star,1,0,,2,,,,,,,,,,,,,,switch,letter,lettSwt,j,0.7217,vtsPrac,4,0,4,0,1,,,,,,,,,,,,,,,,,,,,,,,
298321,2022-12-05_14h57.00.754,vts_reward_expectancy_bt,2022.2.4,MacIntel,60.0024001,Chrome,1440,900,,,,,0,585,,,,,,,,,,,,,,,,,174,H,triangle,1,0,,2,,,,,,,,,,,,,,repeat,letter,lettRpt,j,0.6651,vtsPrac,5,0,5,0,1,,,,,,,,,,,,,,,,,,,,,,,
298321,2022-12-05_14h57.00.754,vts_reward_expectancy_bt,2022.2.4,MacIntel,60.0024001,Chrome,1440,900,,,,,0,585,,,,,,,,,,,,,,,,,160,S,star,1,0,,2,,,,,,,,,,,,,,switch,number,numSwt,f,0.9789,vtsPrac,6,0,6,0,1,,,,,,,,,,,,,,,,,,,,,,,
298321,2022-12-05_14h57.00.754,vts_reward_expectancy_bt,2022.2.4,MacIntel,60.0024001,Chrome,1440,900,,,,,0,585,,,,,,,,,,,,,,,,,139,D,triangle,1,0,,2,,,,,,,,,,,,,,switch,letter,lettSwt,j,0.7975,vtsPrac,7,0,7,0,1,,,,,,,,,,,,,,,,,,,,,,,
298321,2022-12-05_14h57.00.754,vts_reward_expectancy_bt,2022.2.4,MacIntel,60.0024001,Chrome,1440,900,,,,,0,585,,,,,,,,,,,,,,,,,167,U,star,1,0,,2,,,,,,,,,,,,,,switch,number,numSwt,f,0.93,vtsPrac,8,0,8,0,1,,,,,,,,,,,,,,,,,,,,,,,
298321,2022-12-05_14h57.00.754,vts_reward_expectancy_bt,2022.2.4,MacIntel,60.0024001,Chrome,1440,900,,,,,0,585,,,,,,,,,,,,,,,,,146,F,hexagon,1,0,,2,,,,,,,,,,,,,,switch,letter,lettSwt,j,0.685,vtsPrac,9,0,9,0,1,,,,,,,,,,,,,,,,,,,,,,,
298321,2022-12-05_14h57.00.754,vts_reward_expectancy_bt,2022.2.4,MacIntel,60.0024001,Chrome,1440,900,,,,,0,585,,,,,,,,,,,,,,,,,139,H,triangle,1,0,,2,,,,,,,,,,,,,,switch,number,numSwt,d,0.899,vtsPrac,10,0,10,0,1,,,,,,,,,,,,,,,,,,,,,,,
298321,2022-12-05_14h57.00.754,vts_reward_expectancy_bt,2022.2.4,MacIntel,60.0024001,Chrome,1440,900,,,,,0,585,,,,,,,,,,,,,,,,,132,Y,star,1,0,,2,,,,,,,,,,,,,,switch,letter,lettSwt,k,1.03,vtsPrac,11,0,11,0,1,,,,,,,,,,,,,,,,,,,,,,,
298321,2022-12-05_14h57.00.754,vts_reward_expectancy_bt,2022.2.4,MacIntel,60.0024001,Chrome,1440,900,,,,,0,585,,,,,,,,,,,,,,,,,167,W,triangle,1,0,,2,,,,,,,,,,,,,,repeat,letter,lettRpt,k,1.7458,vtsPrac,12,0,12,0,1,,,,,,,,,,,,,,,,,,,,,,,
298321,2022-12-05_14h57.00.754,vts_reward_expectancy_bt,2022.2.4,MacIntel,60.0024001,Chrome,1440,900,,,,,0,585,,,,,,,,,,,,,,,,,174,D,hexagon,1,0,,2,,,,,,,,,,,,,,switch,number,numSwt,f,0.5493,vtsPrac,13,0,13,0,1,,,,,,,,,,,,,,,,,,,,,,,
298321,2022-12-05_14h57.00.754,vts_reward_expectancy_bt,2022.2.4,MacIntel,60.0024001,Chrome,1440,900,,,,,0,585,,,,,,,,,,,,,,,,,139,Y,triangle,1,0,,2,,,,,,,,,,,,,,switch,letter,lettSwt,k,0.6671,vtsPrac,14,0,14,0,1,,,,,,,,,,,,,,,,,,,,,,,
298321,2022-12-05_14h57.00.754,vts_reward_expectancy_bt,2022.2.4,MacIntel,60.0024001,Chrome,1440,900,,,,,0,585,,,,,,,,,,,,,,,,,125,F,star,1,0,,2,,,,,,,,,,,,,,switch,number,numSwt,d,0.8212,vtsPrac,15,0,15,0,1,,,,,,,,,,,,,,,,,,,,,,,
298321,2022-12-05_14h57.00.754,vts_reward_expectancy_bt,2022.2.4,MacIntel,60.0024001,Chrome,1440,900,,,,,0,585,,,,,,,,,,,,,,,,,125,D,star,1,0,,2,,,,,,,,,,,,,,switch,letter,lettSwt,j,0.667,vtsPrac,16,0,16,0,1,,,,,,,,,,,,,,,,,,,,,,,
298321,2022-12-05_14h57.00.754,vts_reward_expectancy_bt,2022.2.4,MacIntel,60.0024001,Chrome,1440,900,,,,,0,585,,,,,,,,,,,,,,,,,167,H,circle,1,0,,2,,,,,,,,,,,,,,switch,number,numSwt,f,0.717,vtsPrac,17,0,17,0,1,,,,,,,,,,,,,,,,,,,,,,,
298321,2022-12-05_14h57.00.754,vts_reward_expectancy_bt,2022.2.4,MacIntel,60.0024001,Chrome,1440,900,,,,,0,585,,,,,,,,,,,,,,,,,160,U,star,1,0,,2,,,,,,,,,,,,,,repeat,number,numRpt,f,1.4302,vtsPrac,18,0,18,0,1,,,,,,,,,,,,,,,,,,,,,,,
298321,2022-12-05_14h57.00.754,vts_reward_expectancy_bt,2022.2.4,MacIntel,60.0024001,Chrome,1440,900,,,,,0,585,,,,,,,,,,,,,,,,,132,Y,circle,1,0,,2,,,,,,,,,,,,,,repeat,number,numRpt,d,0.7452,vtsPrac,19,0,19,0,1,,,,,,,,,,,,,,,,,,,,,,,
298321,2022-12-05_14h57.00.754,vts_reward_expectancy_bt,2022.2.4,MacIntel,60.0024001,Chrome,1440,900,,,,,0,585,,,,,,,,,,,,,,,,,132,D,circle,1,0,,2,,,,,,,,,,,,,,repeat,number,numRpt,d,0.7505,vtsPrac,20,0,20,0,1,,,,,,,,,,,,,,,,,,,,,,,
298321,2022-12-05_14h57.00.754,vts_reward_expectancy_bt,2022.2.4,MacIntel,60.0024001,Chrome,1440,900,,,,,0,585,,,,,,,,,,,,,,,,,167,W,triangle,1,0,,2,,,,,,,,,,,,,,repeat,number,numRpt,f,0.6647,vtsPrac,21,0,21,0,1,,,,,,,,,,,,,,,,,,,,,,,
298321,2022-12-05_14h57.00.754,vts_reward_expectancy_bt,2022.2.4,MacIntel,60.0024001,Chrome,1440,900,,,,,0,585,,,,,,,,,,,,,,,,,160,U,hexagon,1,0,,2,,,,,,,,,,,,,,repeat,number,numRpt,f,1.0632,vtsPrac,22,0,22,0,1,,,,,,,,,,,,,,,,,,,,,,,
298321,2022-12-05_14h57.00.754,vts_reward_expectancy_bt,2022.2.4,MacIntel,60.0024001,Chrome,1440,900,,,,,0,585,,,,,,,,,,,,,,,,,125,F,circle,1,0,,2,,,,,,,,,,,,,,repeat,number,numRpt,d,1.9147,vtsPrac,23,0,23,0,1,,,,,,,,,,,,,,,,,,,,,,,
298321,2022-12-05_14h57.00.754,vts_reward_expectancy_bt,2022.2.4,MacIntel,60.0024001,Chrome,1440,900,,,,,0,585,,,,,,,,,,,,,,,,,139,B,circle,1,0,,2,,,,,,,,,,,,,,switch,letter,lettSwt,j,0.5207,vtsPrac,24,0,24,0,1,,,,,,,,,,,,,,,,,,,,,,,
298321,2022-12-05_14h57.00.754,vts_reward_expectancy_bt,2022.2.4,MacIntel,60.0024001,Chrome,1440,900,,,,,0,585,,,,,,,,,,,,,,,,,181,W,triangle,1,0,,2,,,,,,,,,,,,,,repeat,letter,lettRpt,k,0.5991,vtsPrac,25,0,25,0,1,,,,,,,,,,,,,,,,,,,,,,,
298321,2022-12-05_14h57.00.754,vts_reward_expectancy_bt,2022.2.4,MacIntel,60.0024001,Chrome,1440,900,,,,,0,585,,,,,,,,,,,,,,,,,160,Y,circle,1,0,,2,,,,,,,,,,,,,,repeat,letter,lettRpt,k,0.6184,vtsPrac,26,0,26,0,1,,,,,,,,,,,,,,,,,,,,,,,
298321,2022-12-05_14h57.00.754,vts_reward_expectancy_bt,2022.2.4,MacIntel,60.0024001,Chrome,1440,900,,,,,0,585,,,,,,,,,,,,,,,,,174,S,star,1,0,,2,,,,,,,,,,,,,,repeat,letter,lettRpt,k,0.5989,vtsPrac,27,0,27,0,1,,,,,,,,,,,,,,,,,,,,,,,
298321,2022-12-05_14h57.00.754,vts_reward_expectancy_bt,2022.2.4,MacIntel,60.0024001,Chrome,1440,900,,,,,0,585,,,,,,,,,,,,,,,,,181,F,circle,1,0,,2,,,,,,,,,,,,,,repeat,letter,lettRpt,j,0.8165,vtsPrac,28,0,28,0,1,,,,,,,,,,,,,,,,,,,,,,,
298321,2022-12-05_14h57.00.754,vts_reward_expectancy_bt,2022.2.4,MacIntel,60.0024001,Chrome,1440,900,,,,,0,585,,,,,,,,,,,,,,,,,125,B,star,1,0,,2,,,,,,,,,,,,,,switch,number,numSwt,d,0.6481,vtsPrac,29,0,29,0,1,,,,,,,,,,,,,,,,,,,,,,,
298321,2022-12-05_14h57.00.754,vts_reward_expectancy_bt,2022.2.4,MacIntel,60.0024001,Chrome,1440,900,,,,,0,585,,,,,,,,,,,,,,,,,146,D,hexagon,1,0,,2,,,,,,,,,,,,,,switch,letter,lettSwt,j,1.5629,vtsPrac,30,0,30,0,1,,,,,,,,,,,,,,,,,,,,,,,
298321,2022-12-05_14h57.00.754,vts_reward_expectancy_bt,2022.2.4,MacIntel,60.0024001,Chrome,1440,900,,,,,0,585,,,,,,,,,,,,,,,,,160,W,triangle,1,0,,2,,,,,,,,,,,,,,repeat,letter,lettRpt,k,0.6949,vtsPrac,31,0,31,0,1,,,,,,,,,,,,,,,,,,,,,,,
298321,2022-12-05_14h57.00.754,vts_reward_expectancy_bt,2022.2.4,MacIntel,60.0024001,Chrome,1440,900,,,,,,,,,,,,,,,,,,,,,,,,,,,,,,,,,,,,,,,,,,,,,,,,,,,,,,,,,,,,,,,,,,,,,,,,,,,,
298321,2022-12-05_14h57.00.754,vts_reward_expectancy_bt,2022.2.4,MacIntel,60.0024001,Chrome,1440,900,,,,,,,,,,,,,,,,,,,,,,,,,,,,,,,,,,,,,,,,,,,,,,,,,,,,,,,,,,,,,,,,,,,,,,,,,,,,
298321,2022-12-05_14h57.00.754,vts_reward_expectancy_bt,2022.2.4,MacIntel,60.0024001,Chrome,1440,900,,,,,0,585,,,,,,,,,,,,,,,,,125,D,star,1,0,,,,,,,,,,,,,,,,switch,number,numSwt,d,0.919,noRew,,,,,,0,0,0,0,0,1,,,,,,,,,,,,,,,,,
298321,2022-12-05_14h57.00.754,vts_reward_expectancy_bt,2022.2.4,MacIntel,60.0024001,Chrome,1440,900,,,,,0,585,,,,,,,,,,,,,,,,,181,B,hexagon,1,0,,,,,,,,,,,,,,,,repeat,number,numRpt,f,0.6152,noRew,,,,,,0,1,0,1,0,1,,,,,,,,,,,,,,,,,
298321,2022-12-05_14h57.00.754,vts_reward_expectancy_bt,2022.2.4,MacIntel,60.0024001,Chrome,1440,900,,,,,0,585,,,,,,,,,,,,,,,,,146,W,star,1,0,,,,,,,,,,,,,,,,repeat,number,numRpt,d,1.2478,noRew,,,,,,0,2,0,2,0,1,,,,,,,,,,,,,,,,,
298321,2022-12-05_14h57.00.754,vts_reward_expectancy_bt,2022.2.4,MacIntel,60.0024001,Chrome,1440,900,,,,,0,585,,,,,,,,,,,,,,,,,139,H,hexagon,1,0,,,,,,,,,,,,,,,,repeat,number,numRpt,d,1.2651,noRew,,,,,,0,3,0,3,0,1,,,,,,,,,,,,,,,,,
298321,2022-12-05_14h57.00.754,vts_reward_expectancy_bt,2022.2.4,MacIntel,60.0024001,Chrome,1440,900,,,,,0,585,,,,,,,,,,,,,,,,,125,D,hexagon,1,0,,,,,,,,,,,,,,,,repeat,number,numRpt,d,0.733,noRew,,,,,,0,4,0,4,0,1,,,,,,,,,,,,,,,,,
298321,2022-12-05_14h57.00.754,vts_reward_expectancy_bt,2022.2.4,MacIntel,60.0024001,Chrome,1440,900,,,,,0,585,,,,,,,,,,,,,,,,,181,B,star,1,0,,,,,,,,,,,,,,,,repeat,number,numRpt,f,0.6139,noRew,,,,,,0,5,0,5,0,1,,,,,,,,,,,,,,,,,
298321,2022-12-05_14h57.00.754,vts_reward_expectancy_bt,2022.2.4,MacIntel,60.0024001,Chrome,1440,900,,,,,0,585,,,,,,,,,,,,,,,,,146,W,hexagon,1,0,,,,,,,,,,,,,,,,repeat,number,numRpt,d,0.933,noRew,,,,,,0,6,0,6,0,1,,,,,,,,,,,,,,,,,
298321,2022-12-05_14h57.00.754,vts_reward_expectancy_bt,2022.2.4,MacIntel,60.0024001,Chrome,1440,900,,,,,0,585,,,,,,,,,,,,,,,,,139,H,triangle,1,0,,,,,,,,,,,,,,,,repeat,number,numRpt,d,0.7314,noRew,,,,,,0,7,0,7,0,1,,,,,,,,,,,,,,,,,
298321,2022-12-05_14h57.00.754,vts_reward_expectancy_bt,2022.2.4,MacIntel,60.0024001,Chrome,1440,900,,,,,0,585,,,,,,,,,,,,,,,,,146,W,triangle,1,0,,,,,,,,,,,,,,,,repeat,number,numRpt,d,0.6312,noRew,,,,,,0,8,0,8,0,1,,,,,,,,,,,,,,,,,
298321,2022-12-05_14h57.00.754,vts_reward_expectancy_bt,2022.2.4,MacIntel,60.0024001,Chrome,1440,900,,,,,0,585,,,,,,,,,,,,,,,,,167,U,circle,1,0,,,,,,,,,,,,,,,,repeat,number,numRpt,f,1.0678,noRew,,,,,,0,9,0,9,0,1,,,,,,,,,,,,,,,,,
298321,2022-12-05_14h57.00.754,vts_reward_expectancy_bt,2022.2.4,MacIntel,60.0024001,Chrome,1440,900,,,,,0,585,,,,,,,,,,,,,,,,,139,F,star,1,0,,,,,,,,,,,,,,,,repeat,number,numRpt,d,0.5498,noRew,,,,,,0,10,0,10,0,1,,,,,,,,,,,,,,,,,
298321,2022-12-05_14h57.00.754,vts_reward_expectancy_bt,2022.2.4,MacIntel,60.0024001,Chrome,1440,900,,,,,0,585,,,,,,,,,,,,,,,,,125,Y,hexagon,1,0,,,,,,,,,,,,,,,,repeat,number,numRpt,d,0.7799,noRew,,,,,,0,11,0,11,0,1,,,,,,,,,,,,,,,,,
298321,2022-12-05_14h57.00.754,vts_reward_expectancy_bt,2022.2.4,MacIntel,60.0024001,Chrome,1440,900,,,,,0,585,,,,,,,,,,,,,,,,,139,S,triangle,1,0,,,,,,,,,,,,,,,,repeat,number,numRpt,d,0.8327,noRew,,,,,,0,12,0,12,0,1,,,,,,,,,,,,,,,,,
298321,2022-12-05_14h57.00.754,vts_reward_expectancy_bt,2022.2.4,MacIntel,60.0024001,Chrome,1440,900,,,,,0,585,,,,,,,,,,,,,,,,,125,H,hexagon,1,0,,,,,,,,,,,,,,,,repeat,number,numRpt,d,0.5955,noRew,,,,,,0,13,0,13,0,1,,,,,,,,,,,,,,,,,
298321,2022-12-05_14h57.00.754,vts_reward_expectancy_bt,2022.2.4,MacIntel,60.0024001,Chrome,1440,900,,,,,0,585,,,,,,,,,,,,,,,,,146,U,circle,1,0,,,,,,,,,,,,,,,,repeat,number,numRpt,d,0.5978,noRew,,,,,,0,14,0,14,0,1,,,,,,,,,,,,,,,,,
298321,2022-12-05_14h57.00.754,vts_reward_expectancy_bt,2022.2.4,MacIntel,60.0024001,Chrome,1440,900,,,,,0,585,,,,,,,,,,,,,,,,,167,W,triangle,1,0,,,,,,,,,,,,,,,,repeat,number,numRpt,f,1.0483,noRew,,,,,,0,15,0,15,0,1,,,,,,,,,,,,,,,,,
298321,2022-12-05_14h57.00.754,vts_reward_expectancy_bt,2022.2.4,MacIntel,60.0024001,Chrome,1440,900,,,,,0,585,,,,,,,,,,,,,,,,,146,W,hexagon,1,0,,,,,,,,,,,,,,,,repeat,number,numRpt,d,0.813,noRew,,,,,,0,16,0,16,0,1,,,,,,,,,,,,,,,,,
298321,2022-12-05_14h57.00.754,vts_reward_expectancy_bt,2022.2.4,MacIntel,60.0024001,Chrome,1440,900,,,,,0,585,,,,,,,,,,,,,,,,,139,D,circle,1,0,,,,,,,,,,,,,,,,repeat,number,numRpt,d,1.53,noRew,,,,,,0,17,0,17,0,1,,,,,,,,,,,,,,,,,
298321,2022-12-05_14h57.00.754,vts_reward_expectancy_bt,2022.2.4,MacIntel,60.0024001,Chrome,1440,900,,,,,0,585,,,,,,,,,,,,,,,,,181,U,triangle,1,0,,,,,,,,,,,,,,,,repeat,number,numRpt,f,0.6783,noRew,,,,,,0,18,0,18,0,1,,,,,,,,,,,,,,,,,
298321,2022-12-05_14h57.00.754,vts_reward_expectancy_bt,2022.2.4,MacIntel,60.0024001,Chrome,1440,900,,,,,0,585,,,,,,,,,,,,,,,,,160,B,hexagon,1,0,,,,,,,,,,,,,,,,repeat,number,numRpt,f,1.115,noRew,,,,,,0,19,0,19,0,1,,,,,,,,,,,,,,,,,
298321,2022-12-05_14h57.00.754,vts_reward_expectancy_bt,2022.2.4,MacIntel,60.0024001,Chrome,1440,900,,,,,0,585,,,,,,,,,,,,,,,,,181,W,star,1,0,,,,,,,,,,,,,,,,repeat,number,numRpt,f,0.5798,noRew,,,,,,0,20,0,20,0,1,,,,,,,,,,,,,,,,,
298321,2022-12-05_14h57.00.754,vts_reward_expectancy_bt,2022.2.4,MacIntel,60.0024001,Chrome,1440,900,,,,,0,585,,,,,,,,,,,,,,,,,160,S,hexagon,1,0,,,,,,,,,,,,,,,,repeat,number,numRpt,f,0.6156,noRew,,,,,,0,21,0,21,0,1,,,,,,,,,,,,,,,,,
298321,2022-12-05_14h57.00.754,vts_reward_expectancy_bt,2022.2.4,MacIntel,60.0024001,Chrome,1440,900,,,,,0,585,,,,,,,,,,,,,,,,,146,H,star,1,0,,,,,,,,,,,,,,,,repeat,number,numRpt,d,1.5805,noRew,,,,,,0,22,0,22,0,1,,,,,,,,,,,,,,,,,
298321,2022-12-05_14h57.00.754,vts_reward_expectancy_bt,2022.2.4,MacIntel,60.0024001,Chrome,1440,900,,,,,0,585,,,,,,,,,,,,,,,,,139,F,hexagon,1,0,,,,,,,,,,,,,,,,repeat,number,numRpt,d,0.6185,noRew,,,,,,0,23,0,23,0,1,,,,,,,,,,,,,,,,,
298321,2022-12-05_14h57.00.754,vts_reward_expectancy_bt,2022.2.4,MacIntel,60.0024001,Chrome,1440,900,,,,,0,585,,,,,,,,,,,,,,,,,181,S,hexagon,1,0,,,,,,,,,,,,,,,,repeat,number,numRpt,f,0.6822,noRew,,,,,,0,24,0,24,0,1,,,,,,,,,,,,,,,,,
298321,2022-12-05_14h57.00.754,vts_reward_expectancy_bt,2022.2.4,MacIntel,60.0024001,Chrome,1440,900,,,,,0,585,,,,,,,,,,,,,,,,,174,H,star,1,0,,,,,,,,,,,,,,,,repeat,number,numRpt,f,0.6823,noRew,,,,,,0,25,0,25,0,1,,,,,,,,,,,,,,,,,
298321,2022-12-05_14h57.00.754,vts_reward_expectancy_bt,2022.2.4,MacIntel,60.0024001,Chrome,1440,900,,,,,0,585,,,,,,,,,,,,,,,,,160,W,triangle,1,0,,,,,,,,,,,,,,,,repeat,number,numRpt,f,0.5816,noRew,,,,,,0,26,0,26,0,1,,,,,,,,,,,,,,,,,
298321,2022-12-05_14h57.00.754,vts_reward_expectancy_bt,2022.2.4,MacIntel,60.0024001,Chrome,1440,900,,,,,0,585,,,,,,,,,,,,,,,,,167,U,star,1,0,,,,,,,,,,,,,,,,repeat,number,numRpt,f,0.6153,noRew,,,,,,0,27,0,27,0,1,,,,,,,,,,,,,,,,,
298321,2022-12-05_14h57.00.754,vts_reward_expectancy_bt,2022.2.4,MacIntel,60.0024001,Chrome,1440,900,,,,,0,585,,,,,,,,,,,,,,,,,146,Y,hexagon,1,0,,,,,,,,,,,,,,,,repeat,number,numRpt,d,0.8002,noRew,,,,,,0,28,0,28,0,1,,,,,,,,,,,,,,,,,
298321,2022-12-05_14h57.00.754,vts_reward_expectancy_bt,2022.2.4,MacIntel,60.0024001,Chrome,1440,900,,,,,0,585,,,,,,,,,,,,,,,,,132,H,triangle,1,0,,,,,,,,,,,,,,,,repeat,number,numRpt,d,0.6654,noRew,,,,,,0,29,0,29,0,1,,,,,,,,,,,,,,,,,
298321,2022-12-05_14h57.00.754,vts_reward_expectancy_bt,2022.2.4,MacIntel,60.0024001,Chrome,1440,900,,,,,0,585,,,,,,,,,,,,,,,,,181,S,hexagon,1,0,,,,,,,,,,,,,,,,repeat,number,numRpt,f,0.8286,noRew,,,,,,0,30,0,30,0,1,,,,,,,,,,,,,,,,,
298321,2022-12-05_14h57.00.754,vts_reward_expectancy_bt,2022.2.4,MacIntel,60.0024001,Chrome,1440,900,,,,,0,585,,,,,,,,,,,,,,,,,125,B,star,1,0,,,,,,,,,,,,,,,,repeat,number,numRpt,d,0.6495,noRew,,,,,,0,31,0,31,0,1,,,,,,,,,,,,,,,,,
298321,2022-12-05_14h57.00.754,vts_reward_expectancy_bt,2022.2.4,MacIntel,60.0024001,Chrome,1440,900,,,,,0,585,,,,,,,,,,,,,,,,,132,S,hexagon,1,0,,,,,,,,,,,,,,,,repeat,number,numRpt,d,0.5971,noRew,,,,,,0,32,0,32,0,1,,,,,,,,,,,,,,,,,
298321,2022-12-05_14h57.00.754,vts_reward_expectancy_bt,2022.2.4,MacIntel,60.0024001,Chrome,1440,900,,,,,0,585,,,,,,,,,,,,,,,,,181,U,circle,1,0,,,,,,,,,,,,,,,,repeat,number,numRpt,f,0.5459,noRew,,,,,,0,33,0,33,0,1,,,,,,,,,,,,,,,,,
298321,2022-12-05_14h57.00.754,vts_reward_expectancy_bt,2022.2.4,MacIntel,60.0024001,Chrome,1440,900,,,,,0,585,,,,,,,,,,,,,,,,,160,D,hexagon,1,0,,,,,,,,,,,,,,,,repeat,number,numRpt,f,0.7133,noRew,,,,,,0,34,0,34,0,1,,,,,,,,,,,,,,,,,
298321,2022-12-05_14h57.00.754,vts_reward_expectancy_bt,2022.2.4,MacIntel,60.0024001,Chrome,1440,900,,,,,0,585,,,,,,,,,,,,,,,,,146,Y,circle,1,0,,,,,,,,,,,,,,,,repeat,number,numRpt,d,0.7021,noRew,,,,,,0,35,0,35,0,1,,,,,,,,,,,,,,,,,
298321,2022-12-05_14h57.00.754,vts_reward_expectancy_bt,2022.2.4,MacIntel,60.0024001,Chrome,1440,900,,,,,0,585,,,,,,,,,,,,,,,,,160,W,hexagon,1,0,,,,,,,,,,,,,,,,repeat,number,numRpt,f,0.7961,noRew,,,,,,0,36,0,36,0,1,,,,,,,,,,,,,,,,,
298321,2022-12-05_14h57.00.754,vts_reward_expectancy_bt,2022.2.4,MacIntel,60.0024001,Chrome,1440,900,,,,,0,585,,,,,,,,,,,,,,,,,146,F,triangle,1,0,,,,,,,,,,,,,,,,repeat,number,numRpt,d,1.4636,noRew,,,,,,0,37,0,37,0,1,,,,,,,,,,,,,,,,,
298321,2022-12-05_14h57.00.754,vts_reward_expectancy_bt,2022.2.4,MacIntel,60.0024001,Chrome,1440,900,,,,,0,585,,,,,,,,,,,,,,,,,181,Y,triangle,1,0,,,,,,,,,,,,,,,,switch,letter,lettSwt,k,0.8292,noRew,,,,,,0,38,0,38,0,1,,,,,,,,,,,,,,,,,
298321,2022-12-05_14h57.00.754,vts_reward_expectancy_bt,2022.2.4,MacIntel,60.0024001,Chrome,1440,900,,,,,0,585,,,,,,,,,,,,,,,,,125,D,circle,1,0,,,,,,,,,,,,,,,,repeat,letter,lettRpt,j,0.6787,noRew,,,,,,0,39,0,39,0,1,,,,,,,,,,,,,,,,,
298321,2022-12-05_14h57.00.754,vts_reward_expectancy_bt,2022.2.4,MacIntel,60.0024001,Chrome,1440,900,,,,,0,585,,,,,,,,,,,,,,,,,139,W,hexagon,1,0,,,,,,,,,,,,,,,,repeat,letter,lettRpt,k,0.6466,noRew,,,,,,0,40,0,40,0,1,,,,,,,,,,,,,,,,,
298321,2022-12-05_14h57.00.754,vts_reward_expectancy_bt,2022.2.4,MacIntel,60.0024001,Chrome,1440,900,,,,,0,585,,,,,,,,,,,,,,,,,146,S,triangle,1,0,,,,,,,,,,,,,,,,repeat,letter,lettRpt,k,0.7957,noRew,,,,,,0,41,0,41,0,1,,,,,,,,,,,,,,,,,
298321,2022-12-05_14h57.00.754,vts_reward_expectancy_bt,2022.2.4,MacIntel,60.0024001,Chrome,1440,900,,,,,0,585,,,,,,,,,,,,,,,,,125,H,triangle,1,0,,,,,,,,,,,,,,,,repeat,letter,lettRpt,j,0.6136,noRew,,,,,,0,42,0,42,0,1,,,,,,,,,,,,,,,,,
298321,2022-12-05_14h57.00.754,vts_reward_expectancy_bt,2022.2.4,MacIntel,60.0024001,Chrome,1440,900,,,,,0,585,,,,,,,,,,,,,,,,,181,U,star,1,0,,,,,,,,,,,,,,,,repeat,letter,lettRpt,k,0.6795,noRew,,,,,,0,43,0,43,0,1,,,,,,,,,,,,,,,,,
298321,2022-12-05_14h57.00.754,vts_reward_expectancy_bt,2022.2.4,MacIntel,60.0024001,Chrome,1440,900,,,,,0,585,,,,,,,,,,,,,,,,,132,H,circle,1,0,,,,,,,,,,,,,,,,repeat,letter,lettRpt,j,0.5983,noRew,,,,,,0,44,0,44,0,1,,,,,,,,,,,,,,,,,
298321,2022-12-05_14h57.00.754,vts_reward_expectancy_bt,2022.2.4,MacIntel,60.0024001,Chrome,1440,900,,,,,0,585,,,,,,,,,,,,,,,,,125,F,triangle,1,0,,,,,,,,,,,,,,,,repeat,letter,lettRpt,j,0.8344,noRew,,,,,,0,45,0,45,0,1,,,,,,,,,,,,,,,,,
298321,2022-12-05_14h57.00.754,vts_reward_expectancy_bt,2022.2.4,MacIntel,60.0024001,Chrome,1440,900,,,,,0,585,,,,,,,,,,,,,,,,,160,S,star,1,0,,,,,,,,,,,,,,,,repeat,letter,lettRpt,k,0.7314,noRew,,,,,,0,46,0,46,0,1,,,,,,,,,,,,,,,,,
298321,2022-12-05_14h57.00.754,vts_reward_expectancy_bt,2022.2.4,MacIntel,60.0024001,Chrome,1440,900,,,,,0,585,,,,,,,,,,,,,,,,,181,U,hexagon,1,0,,,,,,,,,,,,,,,,repeat,letter,lettRpt,k,0.7179,noRew,,,,,,0,47,0,47,0,1,,,,,,,,,,,,,,,,,
298321,2022-12-05_14h57.00.754,vts_reward_expectancy_bt,2022.2.4,MacIntel,60.0024001,Chrome,1440,900,,,,,0,585,,,,,,,,,,,,,,,,,146,H,star,1,0,,,,,,,,,,,,,,,,repeat,letter,lettRpt,j,0.7149,noRew,,,,,,0,48,0,48,0,1,,,,,,,,,,,,,,,,,
298321,2022-12-05_14h57.00.754,vts_reward_expectancy_bt,2022.2.4,MacIntel,60.0024001,Chrome,1440,900,,,,,0,585,,,,,,,,,,,,,,,,,139,U,circle,1,0,,,,,,,,,,,,,,,,repeat,letter,lettRpt,k,0.6456,noRew,,,,,,0,49,0,49,0,1,,,,,,,,,,,,,,,,,
298321,2022-12-05_14h57.00.754,vts_reward_expectancy_bt,2022.2.4,MacIntel,60.0024001,Chrome,1440,900,,,,,0,585,,,,,,,,,,,,,,,,,125,D,hexagon,1,0,,,,,,,,,,,,,,,,repeat,letter,lettRpt,j,0.6463,noRew,,,,,,0,50,0,50,0,1,,,,,,,,,,,,,,,,,
298321,2022-12-05_14h57.00.754,vts_reward_expectancy_bt,2022.2.4,MacIntel,60.0024001,Chrome,1440,900,,,,,0,585,,,,,,,,,,,,,,,,,167,Y,circle,1,0,,,,,,,,,,,,,,,,repeat,letter,lettRpt,k,0.6814,noRew,,,,,,0,51,0,51,0,1,,,,,,,,,,,,,,,,,
298321,2022-12-05_14h57.00.754,vts_reward_expectancy_bt,2022.2.4,MacIntel,60.0024001,Chrome,1440,900,,,,,0,585,,,,,,,,,,,,,,,,,167,Y,star,1,0,,,,,,,,,,,,,,,,repeat,letter,lettRpt,k,0.6388,noRew,,,,,,0,52,0,52,0,1,,,,,,,,,,,,,,,,,
298321,2022-12-05_14h57.00.754,vts_reward_expectancy_bt,2022.2.4,MacIntel,60.0024001,Chrome,1440,900,,,,,0,585,,,,,,,,,,,,,,,,,132,S,hexagon,1,0,,,,,,,,,,,,,,,,repeat,letter,lettRpt,k,0.7428,noRew,,,,,,0,53,0,53,0,1,,,,,,,,,,,,,,,,,
298321,2022-12-05_14h57.00.754,vts_reward_expectancy_bt,2022.2.4,MacIntel,60.0024001,Chrome,1440,900,,,,,0,585,,,,,,,,,,,,,,,,,174,B,circle,1,0,,,,,,,,,,,,,,,,repeat,letter,lettRpt,j,0.5976,noRew,,,,,,0,54,0,54,0,1,,,,,,,,,,,,,,,,,
298321,2022-12-05_14h57.00.754,vts_reward_expectancy_bt,2022.2.4,MacIntel,60.0024001,Chrome,1440,900,,,,,0,585,,,,,,,,,,,,,,,,,125,W,star,1,0,,,,,,,,,,,,,,,,repeat,letter,lettRpt,k,0.5814,noRew,,,,,,0,55,0,55,0,1,,,,,,,,,,,,,,,,,
298321,2022-12-05_14h57.00.754,vts_reward_expectancy_bt,2022.2.4,MacIntel,60.0024001,Chrome,1440,900,,,,,0,585,,,,,,,,,,,,,,,,,139,W,star,1,0,,,,,,,,,,,,,,,,repeat,letter,lettRpt,k,0.6329,noRew,,,,,,0,56,0,56,0,1,,,,,,,,,,,,,,,,,
298321,2022-12-05_14h57.00.754,vts_reward_expectancy_bt,2022.2.4,MacIntel,60.0024001,Chrome,1440,900,,,,,0,585,,,,,,,,,,,,,,,,,146,Y,circle,1,0,,,,,,,,,,,,,,,,repeat,letter,lettRpt,k,0.5976,noRew,,,,,,0,57,0,57,0,1,,,,,,,,,,,,,,,,,
298321,2022-12-05_14h57.00.754,vts_reward_expectancy_bt,2022.2.4,MacIntel,60.0024001,Chrome,1440,900,,,,,0,585,,,,,,,,,,,,,,,,,174,S,triangle,1,0,,,,,,,,,,,,,,,,repeat,letter,lettRpt,k,0.5333,noRew,,,,,,0,58,0,58,0,1,,,,,,,,,,,,,,,,,
298321,2022-12-05_14h57.00.754,vts_reward_expectancy_bt,2022.2.4,MacIntel,60.0024001,Chrome,1440,900,,,,,0,585,,,,,,,,,,,,,,,,,160,U,circle,1,0,,,,,,,,,,,,,,,,repeat,letter,lettRpt,k,0.698,noRew,,,,,,0,59,0,59,0,1,,,,,,,,,,,,,,,,,
298321,2022-12-05_14h57.00.754,vts_reward_expectancy_bt,2022.2.4,MacIntel,60.0024001,Chrome,1440,900,,,,,0,585,,,,,,,,,,,,,,,,,167,H,star,1,0,,,,,,,,,,,,,,,,repeat,letter,lettRpt,j,0.598,noRew,,,,,,0,60,0,60,0,1,,,,,,,,,,,,,,,,,
298321,2022-12-05_14h57.00.754,vts_reward_expectancy_bt,2022.2.4,MacIntel,60.0024001,Chrome,1440,900,,,,,0,585,,,,,,,,,,,,,,,,,181,S,hexagon,1,0,,,,,,,,,,,,,,,,repeat,letter,lettRpt,k,1.4957,noRew,,,,,,0,61,0,61,0,1,,,,,,,,,,,,,,,,,
298321,2022-12-05_14h57.00.754,vts_reward_expectancy_bt,2022.2.4,MacIntel,60.0024001,Chrome,1440,900,,,,,0,585,,,,,,,,,,,,,,,,,160,W,hexagon,1,0,,,,,,,,,,,,,,,,repeat,letter,lettRpt,k,0.9096,noRew,,,,,,0,62,0,62,0,1,,,,,,,,,,,,,,,,,
298321,2022-12-05_14h57.00.754,vts_reward_expectancy_bt,2022.2.4,MacIntel,60.0024001,Chrome,1440,900,,,,,0,585,,,,,,,,,,,,,,,,,132,Y,circle,1,0,,,,,,,,,,,,,,,,repeat,letter,lettRpt,k,0.6205,noRew,,,,,,0,63,0,63,0,1,,,,,,,,,,,,,,,,,
298321,2022-12-05_14h57.00.754,vts_reward_expectancy_bt,2022.2.4,MacIntel,60.0024001,Chrome,1440,900,,,,,,,,,,,,,,,,,,,,,,,,,,,,,,,,,,,,,,,,,,,,,,,,,,,,,,,,,,,,,,,,,,,,,,,,,,,,
298321,2022-12-05_14h57.00.754,vts_reward_expectancy_bt,2022.2.4,MacIntel,60.0024001,Chrome,1440,900,,,,,1,586,,,,,,,,,,,,,,,,,160,W,hexagon,1,0,,,,,,,,,,,,,,,,switch,number,numSwt,f,0.9513,Lo,,,,,,0,,,,,,space,22.1969,high,0,0,0,0,1,,,,,,,,,
298321,2022-12-05_14h57.00.754,vts_reward_expectancy_bt,2022.2.4,MacIntel,60.0024001,Chrome,1440,900,,,,,0,586,,,,,,,,,,,,,,,,,146,U,star,1,0,,,,,,,,,,,,,,,,switch,letter,lettSwt,k,0.835,Hi,,,,,,0,,,,,,,,high,1,0,1,0,1,,,,,,,,,
298321,2022-12-05_14h57.00.754,vts_reward_expectancy_bt,2022.2.4,MacIntel,60.0024001,Chrome,1440,900,,,,,1,587,,,,,,,,,,,,,,,,,174,Y,circle,1,0,,,,,,,,,,,,,,,,switch,number,numSwt,f,0.6495,Lo,,,,,,0,,,,,,,,high,2,0,2,0,1,,,,,,,,,
298321,2022-12-05_14h57.00.754,vts_reward_expectancy_bt,2022.2.4,MacIntel,60.0024001,Chrome,1440,900,,,,,10,597,,,,,,,,,,,,,,,,,139,H,triangle,1,0,,,,,,,,,,,,,,,,repeat,number,numRpt,d,0.5252,Hi,,,,,,0,,,,,,,,high,3,0,3,0,1,,,,,,,,,
298321,2022-12-05_14h57.00.754,vts_reward_expectancy_bt,2022.2.4,MacIntel,60.0024001,Chrome,1440,900,,,,,10,607,,,,,,,,,,,,,,,,,132,S,hexagon,1,0,,,,,,,,,,,,,,,,repeat,number,numRpt,d,0.5342,Lo,,,,,,0,,,,,,,,high,4,0,4,0,1,,,,,,,,,
298321,2022-12-05_14h57.00.754,vts_reward_expectancy_bt,2022.2.4,MacIntel,60.0024001,Chrome,1440,900,,,,,0,607,,,,,,,,,,,,,,,,,167,F,star,1,0,,,,,,,,,,,,,,,,repeat,number,numRpt,f,0.8122,Hi,,,,,,0,,,,,,,,high,5,0,5,0,1,,,,,,,,,
298321,2022-12-05_14h57.00.754,vts_reward_expectancy_bt,2022.2.4,MacIntel,60.0024001,Chrome,1440,900,,,,,1,608,,,,,,,,,,,,,,,,,125,D,circle,1,0,,,,,,,,,,,,,,,,repeat,number,numRpt,d,0.3971,Lo,,,,,,0,,,,,,,,high,6,0,6,0,1,,,,,,,,,
298321,2022-12-05_14h57.00.754,vts_reward_expectancy_bt,2022.2.4,MacIntel,60.0024001,Chrome,1440,900,,,,,10,618,,,,,,,,,,,,,,,,,181,B,triangle,1,0,,,,,,,,,,,,,,,,switch,letter,lettSwt,j,0.3342,Hi,,,,,,0,,,,,,,,high,7,0,7,0,1,,,,,,,,,
298321,2022-12-05_14h57.00.754,vts_reward_expectancy_bt,2022.2.4,MacIntel,60.0024001,Chrome,1440,900,,,,,0,618,,,,,,,,,,,,,,,,,160,W,circle,0,0,,,,,,,,,,,,,,,,repeat,letter,NA,j,0.3806,Hi,,,,,,0,,,,,,,,high,8,0,8,0,1,,,,,,,,,
298321,2022-12-05_14h57.00.754,vts_reward_expectancy_bt,2022.2.4,MacIntel,60.0024001,Chrome,1440,900,,,,,1,619,,,,,,,,,,,,,,,,,146,U,hexagon,1,1,,,,,,,,,,,,,,,,switch,number,numSwt,d,1.3826,Lo,,,,,,0,,,,,,,,high,9,0,9,0,1,,,,,,,,,
298321,2022-12-05_14h57.00.754,vts_reward_expectancy_bt,2022.2.4,MacIntel,60.0024001,Chrome,1440,900,,,,,10,629,,,,,,,,,,,,,,,,,174,Y,star,1,0,,,,,,,,,,,,,,,,repeat,number,numRpt,f,0.43,Hi,,,,,,0,,,,,,,,high,10,0,10,0,1,,,,,,,,,
298321,2022-12-05_14h57.00.754,vts_reward_expectancy_bt,2022.2.4,MacIntel,60.0024001,Chrome,1440,900,,,,,1,630,,,,,,,,,,,,,,,,,139,H,triangle,1,0,,,,,,,,,,,,,,,,repeat,number,numRpt,d,0.4807,Hi,,,,,,0,,,,,,,,high,11,0,11,0,1,,,,,,,,,
298321,2022-12-05_14h57.00.754,vts_reward_expectancy_bt,2022.2.4,MacIntel,60.0024001,Chrome,1440,900,,,,,10,640,,,,,,,,,,,,,,,,,132,S,hexagon,1,0,,,,,,,,,,,,,,,,repeat,number,numRpt,d,0.6296,Lo,,,,,,0,,,,,,,,high,12,0,12,0,1,,,,,,,,,
298321,2022-12-05_14h57.00.754,vts_reward_expectancy_bt,2022.2.4,MacIntel,60.0024001,Chrome,1440,900,,,,,10,650,,,,,,,,,,,,,,,,,167,F,circle,1,0,,,,,,,,,,,,,,,,repeat,number,numRpt,f,1.1468,Lo,,,,,,0,,,,,,,,high,13,0,13,0,1,,,,,,,,,
298321,2022-12-05_14h57.00.754,vts_reward_expectancy_bt,2022.2.4,MacIntel,60.0024001,Chrome,1440,900,,,,,0,650,,,,,,,,,,,,,,,,,125,D,star,1,0,,,,,,,,,,,,,,,,repeat,number,numRpt,d,0.6477,Hi,,,,,,0,,,,,,,,high,14,0,14,0,1,,,,,,,,,
298321,2022-12-05_14h57.00.754,vts_reward_expectancy_bt,2022.2.4,MacIntel,60.0024001,Chrome,1440,900,,,,,10,660,,,,,,,,,,,,,,,,,181,B,triangle,1,0,,,,,,,,,,,,,,,,repeat,number,numRpt,f,0.53,Hi,,,,,,0,,,,,,,,high,15,0,15,0,1,,,,,,,,,
298321,2022-12-05_14h57.00.754,vts_reward_expectancy_bt,2022.2.4,MacIntel,60.0024001,Chrome,1440,900,,,,,10,670,,,,,,,,,,,,,,,,,125,W,triangle,1,0,,,,,,,,,,,,,,,,repeat,number,numRpt,d,0.5291,Hi,,,,,,0,,,,,,,,high,16,0,16,0,1,,,,,,,,,
298321,2022-12-05_14h57.00.754,vts_reward_expectancy_bt,2022.2.4,MacIntel,60.0024001,Chrome,1440,900,,,,,0,670,,,,,,,,,,,,,,,,,139,U,star,1,0,,,,,,,,,,,,,,,,repeat,number,numRpt,d,0.7663,Hi,,,,,,0,,,,,,,,high,17,0,17,0,1,,,,,,,,,
298321,2022-12-05_14h57.00.754,vts_reward_expectancy_bt,2022.2.4,MacIntel,60.0024001,Chrome,1440,900,,,,,10,680,,,,,,,,,,,,,,,,,174,B,hexagon,1,0,,,,,,,,,,,,,,,,switch,letter,lettSwt,j,0.3992,Lo,,,,,,0,,,,,,,,high,18,0,18,0,1,,,,,,,,,
298321,2022-12-05_14h57.00.754,vts_reward_expectancy_bt,2022.2.4,MacIntel,60.0024001,Chrome,1440,900,,,,,0,680,,,,,,,,,,,,,,,,,160,F,circle,0,0,,,,,,,,,,,,,,,,repeat,letter,NA,k,0.4833,Lo,,,,,,0,,,,,,,,high,19,0,19,0,1,,,,,,,,,
298321,2022-12-05_14h57.00.754,vts_reward_expectancy_bt,2022.2.4,MacIntel,60.0024001,Chrome,1440,900,,,,,0,680,,,,,,,,,,,,,,,,,146,Y,star,1,1,,,,,,,,,,,,,,,,repeat,letter,lettRpt,k,0.6829,Hi,,,,,,0,,,,,,,,high,20,0,20,0,1,,,,,,,,,
298321,2022-12-05_14h57.00.754,vts_reward_expectancy_bt,2022.2.4,MacIntel,60.0024001,Chrome,1440,900,,,,,1,681,,,,,,,,,,,,,,,,,181,H,circle,1,0,,,,,,,,,,,,,,,,repeat,letter,lettRpt,j,0.5322,Lo,,,,,,0,,,,,,,,high,21,0,21,0,1,,,,,,,,,
298321,2022-12-05_14h57.00.754,vts_reward_expectancy_bt,2022.2.4,MacIntel,60.0024001,Chrome,1440,900,,,,,10,691,,,,,,,,,,,,,,,,,167,S,hexagon,1,0,,,,,,,,,,,,,,,,switch,number,numSwt,f,0.7004,Lo,,,,,,0,,,,,,,,high,22,0,22,0,1,,,,,,,,,
298321,2022-12-05_14h57.00.754,vts_reward_expectancy_bt,2022.2.4,MacIntel,60.0024001,Chrome,1440,900,,,,,10,701,,,,,,,,,,,,,,,,,132,D,triangle,1,0,,,,,,,,,,,,,,,,repeat,number,numRpt,d,0.4616,Hi,,,,,,0,,,,,,,,high,23,0,23,0,1,,,,,,,,,
298321,2022-12-05_14h57.00.754,vts_reward_expectancy_bt,2022.2.4,MacIntel,60.0024001,Chrome,1440,900,,,,,1,702,,,,,,,,,,,,,,,,,160,B,circle,1,0,,,,,,,,,,,,,,,,repeat,number,numRpt,f,0.5485,Lo,,,,,,0,,,,,,,,high,24,0,24,0,1,,,,,,,,,
298321,2022-12-05_14h57.00.754,vts_reward_expectancy_bt,2022.2.4,MacIntel,60.0024001,Chrome,1440,900,,,,,10,712,,,,,,,,,,,,,,,,,125,Y,star,1,0,,,,,,,,,,,,,,,,repeat,number,numRpt,d,0.5144,Hi,,,,,,0,,,,,,,,high,25,0,25,0,1,,,,,,,,,
298321,2022-12-05_14h57.00.754,vts_reward_expectancy_bt,2022.2.4,MacIntel,60.0024001,Chrome,1440,900,,,,,1,713,,,,,,,,,,,,,,,,,132,W,hexagon,1,0,,,,,,,,,,,,,,,,repeat,number,numRpt,d,0.4767,Lo,,,,,,0,,,,,,,,high,26,0,26,0,1,,,,,,,,,
298321,2022-12-05_14h57.00.754,vts_reward_expectancy_bt,2022.2.4,MacIntel,60.0024001,Chrome,1440,900,,,,,0,713,,,,,,,,,,,,,,,,,174,S,triangle,1,0,,,,,,,,,,,,,,,,repeat,number,numRpt,f,0.9478,Hi,,,,,,0,,,,,,,,high,27,0,27,0,1,,,,,,,,,
298321,2022-12-05_14h57.00.754,vts_reward_expectancy_bt,2022.2.4,MacIntel,60.0024001,Chrome,1440,900,,,,,0,713,,,,,,,,,,,,,,,,,167,U,triangle,0,0,,,,,,,,,,,,,,,,repeat,number,NA,d,0.533,Hi,,,,,,0,,,,,,,,high,28,0,28,0,1,,,,,,,,,
298321,2022-12-05_14h57.00.754,vts_reward_expectancy_bt,2022.2.4,MacIntel,60.0024001,Chrome,1440,900,,,,,10,723,,,,,,,,,,,,,,,,,139,F,star,1,1,,,,,,,,,,,,,,,,repeat,number,numRpt,d,0.5845,Hi,,,,,,0,,,,,,,,high,29,0,29,0,1,,,,,,,,,
298321,2022-12-05_14h57.00.754,vts_reward_expectancy_bt,2022.2.4,MacIntel,60.0024001,Chrome,1440,900,,,,,10,733,,,,,,,,,,,,,,,,,181,D,circle,1,0,,,,,,,,,,,,,,,,repeat,number,numRpt,f,0.4967,Lo,,,,,,0,,,,,,,,high,30,0,30,0,1,,,,,,,,,
298321,2022-12-05_14h57.00.754,vts_reward_expectancy_bt,2022.2.4,MacIntel,60.0024001,Chrome,1440,900,,,,,10,743,,,,,,,,,,,,,,,,,146,H,hexagon,1,0,,,,,,,,,,,,,,,,repeat,number,numRpt,d,0.8347,Lo,,,,,,0,,,,,,,,high,31,0,31,0,1,,,,,,,,,
298321,2022-12-05_14h57.00.754,vts_reward_expectancy_bt,2022.2.4,MacIntel,60.0024001,Chrome,1440,900,,,,,1,744,,,,,,,,,,,,,,,,,139,F,hexagon,1,0,,,,,,,,,,,,,,,,repeat,number,numRpt,d,0.6475,Lo,,,,,,1,,,,,,space,8.6806,high,0,0,0,0,1,,,,,,,,,
298321,2022-12-05_14h57.00.754,vts_reward_expectancy_bt,2022.2.4,MacIntel,60.0024001,Chrome,1440,900,,,,,1,745,,,,,,,,,,,,,,,,,132,Y,circle,1,0,,,,,,,,,,,,,,,,repeat,number,numRpt,d,0.5617,Lo,,,,,,1,,,,,,,,high,1,0,1,0,1,,,,,,,,,
298321,2022-12-05_14h57.00.754,vts_reward_expectancy_bt,2022.2.4,MacIntel,60.0024001,Chrome,1440,900,,,,,0,745,,,,,,,,,,,,,,,,,160,U,star,1,0,,,,,,,,,,,,,,,,switch,letter,lettSwt,k,0.8327,Hi,,,,,,1,,,,,,,,high,2,0,2,0,1,,,,,,,,,
298321,2022-12-05_14h57.00.754,vts_reward_expectancy_bt,2022.2.4,MacIntel,60.0024001,Chrome,1440,900,,,,,10,755,,,,,,,,,,,,,,,,,181,S,triangle,1,0,,,,,,,,,,,,,,,,switch,number,numSwt,f,0.5301,Hi,,,,,,1,,,,,,,,high,3,0,3,0,1,,,,,,,,,
298321,2022-12-05_14h57.00.754,vts_reward_expectancy_bt,2022.2.4,MacIntel,60.0024001,Chrome,1440,900,,,,,1,756,,,,,,,,,,,,,,,,,146,B,hexagon,1,0,,,,,,,,,,,,,,,,repeat,number,numRpt,d,0.5492,Lo,,,,,,1,,,,,,,,high,4,0,4,0,1,,,,,,,,,
298321,2022-12-05_14h57.00.754,vts_reward_expectancy_bt,2022.2.4,MacIntel,60.0024001,Chrome,1440,900,,,,,1,757,,,,,,,,,,,,,,,,,167,H,circle,1,0,,,,,,,,,,,,,,,,repeat,number,numRpt,f,0.4005,Lo,,,,,,1,,,,,,,,high,5,0,5,0,1,,,,,,,,,
298321,2022-12-05_14h57.00.754,vts_reward_expectancy_bt,2022.2.4,MacIntel,60.0024001,Chrome,1440,900,,,,,1,758,,,,,,,,,,,,,,,,,174,D,star,1,0,,,,,,,,,,,,,,,,repeat,number,numRpt,f,0.5002,Hi,,,,,,1,,,,,,,,high,6,0,6,0,1,,,,,,,,,
298321,2022-12-05_14h57.00.754,vts_reward_expectancy_bt,2022.2.4,MacIntel,60.0024001,Chrome,1440,900,,,,,10,768,,,,,,,,,,,,,,,,,125,W,triangle,1,0,,,,,,,,,,,,,,,,repeat,number,numRpt,d,0.4984,Hi,,,,,,1,,,,,,,,high,7,0,7,0,1,,,,,,,,,
298321,2022-12-05_14h57.00.754,vts_reward_expectancy_bt,2022.2.4,MacIntel,60.0024001,Chrome,1440,900,,,,,10,778,,,,,,,,,,,,,,,,,139,F,circle,1,0,,,,,,,,,,,,,,,,repeat,number,numRpt,d,0.6019,Lo,,,,,,1,,,,,,,,high,8,0,8,0,1,,,,,,,,,
298321,2022-12-05_14h57.00.754,vts_reward_expectancy_bt,2022.2.4,MacIntel,60.0024001,Chrome,1440,900,,,,,0,778,,,,,,,,,,,,,,,,,132,Y,triangle,1,0,,,,,,,,,,,,,,,,repeat,number,numRpt,d,0.6791,Hi,,,,,,1,,,,,,,,high,9,0,9,0,1,,,,,,,,,
298321,2022-12-05_14h57.00.754,vts_reward_expectancy_bt,2022.2.4,MacIntel,60.0024001,Chrome,1440,900,,,,,10,788,,,,,,,,,,,,,,,,,160,U,star,1,0,,,,,,,,,,,,,,,,repeat,number,numRpt,f,0.4297,Hi,,,,,,1,,,,,,,,high,10,0,10,0,1,,,,,,,,,
298321,2022-12-05_14h57.00.754,vts_reward_expectancy_bt,2022.2.4,MacIntel,60.0024001,Chrome,1440,900,,,,,1,789,,,,,,,,,,,,,,,,,181,S,hexagon,1,0,,,,,,,,,,,,,,,,repeat,number,numRpt,f,0.5143,Lo,,,,,,1,,,,,,,,high,11,0,11,0,1,,,,,,,,,
298321,2022-12-05_14h57.00.754,vts_reward_expectancy_bt,2022.2.4,MacIntel,60.0024001,Chrome,1440,900,,,,,0,789,,,,,,,,,,,,,,,,,146,B,star,1,0,,,,,,,,,,,,,,,,repeat,number,numRpt,d,0.6961,Hi,,,,,,1,,,,,,,,high,12,0,12,0,1,,,,,,,,,
298321,2022-12-05_14h57.00.754,vts_reward_expectancy_bt,2022.2.4,MacIntel,60.0024001,Chrome,1440,900,,,,,1,790,,,,,,,,,,,,,,,,,167,H,circle,1,0,,,,,,,,,,,,,,,,repeat,number,numRpt,f,0.5827,Lo,,,,,,1,,,,,,,,high,13,0,13,0,1,,,,,,,,,
298321,2022-12-05_14h57.00.754,vts_reward_expectancy_bt,2022.2.4,MacIntel,60.0024001,Chrome,1440,900,,,,,1,791,,,,,,,,,,,,,,,,,174,D,hexagon,1,0,,,,,,,,,,,,,,,,repeat,number,numRpt,f,0.5982,Lo,,,,,,1,,,,,,,,high,14,0,14,0,1,,,,,,,,,
298321,2022-12-05_14h57.00.754,vts_reward_expectancy_bt,2022.2.4,MacIntel,60.0024001,Chrome,1440,900,,,,,10,801,,,,,,,,,,,,,,,,,125,W,triangle,1,0,,,,,,,,,,,,,,,,repeat,number,numRpt,d,0.4298,Hi,,,,,,1,,,,,,,,high,15,0,15,0,1,,,,,,,,,
298321,2022-12-05_14h57.00.754,vts_reward_expectancy_bt,2022.2.4,MacIntel,60.0024001,Chrome,1440,900,,,,,0,801,,,,,,,,,,,,,,,,,181,W,star,1,0,,,,,,,,,,,,,,,,repeat,number,numRpt,f,0.783,Hi,,,,,,1,,,,,,,,high,16,0,16,0,1,,,,,,,,,
298321,2022-12-05_14h57.00.754,vts_reward_expectancy_bt,2022.2.4,MacIntel,60.0024001,Chrome,1440,900,,,,,0,801,,,,,,,,,,,,,,,,,146,H,triangle,0,0,,,,,,,,,,,,,,,,repeat,number,NA,f,0.5817,Hi,,,,,,1,,,,,,,,high,17,0,17,0,1,,,,,,,,,
298321,2022-12-05_14h57.00.754,vts_reward_expectancy_bt,2022.2.4,MacIntel,60.0024001,Chrome,1440,900,,,,,10,811,,,,,,,,,,,,,,,,,167,D,hexagon,1,1,,,,,,,,,,,,,,,,repeat,number,numRpt,f,0.6786,Lo,,,,,,1,,,,,,,,high,18,0,18,0,1,,,,,,,,,
298321,2022-12-05_14h57.00.754,vts_reward_expectancy_bt,2022.2.4,MacIntel,60.0024001,Chrome,1440,900,,,,,1,812,,,,,,,,,,,,,,,,,160,U,circle,1,0,,,,,,,,,,,,,,,,repeat,number,numRpt,f,0.5305,Lo,,,,,,1,,,,,,,,high,19,0,19,0,1,,,,,,,,,
298321,2022-12-05_14h57.00.754,vts_reward_expectancy_bt,2022.2.4,MacIntel,60.0024001,Chrome,1440,900,,,,,0,812,,,,,,,,,,,,,,,,,174,B,star,1,0,,,,,,,,,,,,,,,,repeat,number,numRpt,f,0.5485,Hi,,,,,,1,,,,,,,,high,20,0,20,0,1,,,,,,,,,
298321,2022-12-05_14h57.00.754,vts_reward_expectancy_bt,2022.2.4,MacIntel,60.0024001,Chrome,1440,900,,,,,1,813,,,,,,,,,,,,,,,,,132,Y,hexagon,1,0,,,,,,,,,,,,,,,,repeat,number,numRpt,d,0.4956,Lo,,,,,,1,,,,,,,,high,21,0,21,0,1,,,,,,,,,
298321,2022-12-05_14h57.00.754,vts_reward_expectancy_bt,2022.2.4,MacIntel,60.0024001,Chrome,1440,900,,,,,0,813,,,,,,,,,,,,,,,,,125,S,triangle,1,0,,,,,,,,,,,,,,,,repeat,number,numRpt,d,0.5833,Hi,,,,,,1,,,,,,,,high,22,0,22,0,1,,,,,,,,,
298321,2022-12-05_14h57.00.754,vts_reward_expectancy_bt,2022.2.4,MacIntel,60.0024001,Chrome,1440,900,,,,,1,814,,,,,,,,,,,,,,,,,139,F,circle,1,0,,,,,,,,,,,,,,,,repeat,number,numRpt,d,0.4986,Lo,,,,,,1,,,,,,,,high,23,0,23,0,1,,,,,,,,,
298321,2022-12-05_14h57.00.754,vts_reward_expectancy_bt,2022.2.4,MacIntel,60.0024001,Chrome,1440,900,,,,,0,814,,,,,,,,,,,,,,,,,160,W,star,1,0,,,,,,,,,,,,,,,,repeat,number,numRpt,f,0.5495,Hi,,,,,,1,,,,,,,,high,24,0,24,0,1,,,,,,,,,
298321,2022-12-05_14h57.00.754,vts_reward_expectancy_bt,2022.2.4,MacIntel,60.0024001,Chrome,1440,900,,,,,1,815,,,,,,,,,,,,,,,,,139,H,hexagon,1,0,,,,,,,,,,,,,,,,repeat,number,numRpt,d,0.5334,Lo,,,,,,1,,,,,,,,high,25,0,25,0,1,,,,,,,,,
298321,2022-12-05_14h57.00.754,vts_reward_expectancy_bt,2022.2.4,MacIntel,60.0024001,Chrome,1440,900,,,,,1,816,,,,,,,,,,,,,,,,,125,Y,triangle,1,0,,,,,,,,,,,,,,,,repeat,number,numRpt,d,0.4994,Hi,,,,,,1,,,,,,,,high,26,0,26,0,1,,,,,,,,,
298321,2022-12-05_14h57.00.754,vts_reward_expectancy_bt,2022.2.4,MacIntel,60.0024001,Chrome,1440,900,,,,,1,817,,,,,,,,,,,,,,,,,174,D,circle,1,0,,,,,,,,,,,,,,,,repeat,number,numRpt,f,0.4682,Lo,,,,,,1,,,,,,,,high,27,0,27,0,1,,,,,,,,,
298321,2022-12-05_14h57.00.754,vts_reward_expectancy_bt,2022.2.4,MacIntel,60.0024001,Chrome,1440,900,,,,,1,818,,,,,,,,,,,,,,,,,167,U,circle,1,0,,,,,,,,,,,,,,,,repeat,number,numRpt,f,0.5807,Lo,,,,,,1,,,,,,,,high,28,0,28,0,1,,,,,,,,,
298321,2022-12-05_14h57.00.754,vts_reward_expectancy_bt,2022.2.4,MacIntel,60.0024001,Chrome,1440,900,,,,,1,819,,,,,,,,,,,,,,,,,181,S,triangle,1,0,,,,,,,,,,,,,,,,repeat,number,numRpt,f,0.4817,Hi,,,,,,1,,,,,,,,high,29,0,29,0,1,,,,,,,,,
298321,2022-12-05_14h57.00.754,vts_reward_expectancy_bt,2022.2.4,MacIntel,60.0024001,Chrome,1440,900,,,,,10,829,,,,,,,,,,,,,,,,,132,F,star,1,0,,,,,,,,,,,,,,,,repeat,number,numRpt,d,0.5143,Hi,,,,,,1,,,,,,,,high,30,0,30,0,1,,,,,,,,,
298321,2022-12-05_14h57.00.754,vts_reward_expectancy_bt,2022.2.4,MacIntel,60.0024001,Chrome,1440,900,,,,,1,830,,,,,,,,,,,,,,,,,146,B,hexagon,1,0,,,,,,,,,,,,,,,,repeat,number,numRpt,d,0.5806,Lo,,,,,,1,,,,,,,,high,31,0,31,0,1,,,,,,,,,
298321,2022-12-05_14h57.00.754,vts_reward_expectancy_bt,2022.2.4,MacIntel,60.0024001,Chrome,1440,900,,,,,0,830,,,,,,,,,,,,,,,,,146,Y,star,1,0,,,,,,,,,,,,,,,,repeat,number,numRpt,d,0.5446,Hi,,,,,,2,,,,,,space,4.7439,high,0,0,0,0,1,,,,,,,,,
298321,2022-12-05_14h57.00.754,vts_reward_expectancy_bt,2022.2.4,MacIntel,60.0024001,Chrome,1440,900,,,,,10,840,,,,,,,,,,,,,,,,,160,U,circle,1,0,,,,,,,,,,,,,,,,repeat,number,numRpt,f,0.4995,Lo,,,,,,2,,,,,,,,high,1,0,1,0,1,,,,,,,,,
298321,2022-12-05_14h57.00.754,vts_reward_expectancy_bt,2022.2.4,MacIntel,60.0024001,Chrome,1440,900,,,,,1,841,,,,,,,,,,,,,,,,,132,S,hexagon,1,0,,,,,,,,,,,,,,,,repeat,number,numRpt,d,0.5583,Lo,,,,,,2,,,,,,,,high,2,0,2,0,1,,,,,,,,,
298321,2022-12-05_14h57.00.754,vts_reward_expectancy_bt,2022.2.4,MacIntel,60.0024001,Chrome,1440,900,,,,,10,851,,,,,,,,,,,,,,,,,139,W,triangle,1,0,,,,,,,,,,,,,,,,repeat,number,numRpt,d,0.4808,Hi,,,,,,2,,,,,,,,high,3,0,3,0,1,,,,,,,,,
298321,2022-12-05_14h57.00.754,vts_reward_expectancy_bt,2022.2.4,MacIntel,60.0024001,Chrome,1440,900,,,,,0,851,,,,,,,,,,,,,,,,,167,D,star,0,0,,,,,,,,,,,,,,,,repeat,number,NA,d,0.6935,Hi,,,,,,2,,,,,,,,high,4,0,4,0,1,,,,,,,,,
298321,2022-12-05_14h57.00.754,vts_reward_expectancy_bt,2022.2.4,MacIntel,60.0024001,Chrome,1440,900,,,,,1,852,,,,,,,,,,,,,,,,,181,B,circle,1,1,,,,,,,,,,,,,,,,repeat,number,numRpt,f,0.5019,Lo,,,,,,2,,,,,,,,high,5,0,5,0,1,,,,,,,,,
298321,2022-12-05_14h57.00.754,vts_reward_expectancy_bt,2022.2.4,MacIntel,60.0024001,Chrome,1440,900,,,,,1,853,,,,,,,,,,,,,,,,,174,F,hexagon,1,0,,,,,,,,,,,,,,,,repeat,number,numRpt,f,0.4912,Lo,,,,,,2,,,,,,,,high,6,0,6,0,1,,,,,,,,,
298321,2022-12-05_14h57.00.754,vts_reward_expectancy_bt,2022.2.4,MacIntel,60.0024001,Chrome,1440,900,,,,,0,853,,,,,,,,,,,,,,,,,125,H,triangle,1,0,,,,,,,,,,,,,,,,repeat,number,numRpt,d,0.5267,Hi,,,,,,2,,,,,,,,high,7,0,7,0,1,,,,,,,,,
298321,2022-12-05_14h57.00.754,vts_reward_expectancy_bt,2022.2.4,MacIntel,60.0024001,Chrome,1440,900,,,,,0,853,,,,,,,,,,,,,,,,,146,Y,circle,0,0,,,,,,,,,,,,,,,,repeat,number,NA,f,0.9114,Hi,,,,,,2,,,,,,,,high,8,0,8,0,1,,,,,,,,,
298321,2022-12-05_14h57.00.754,vts_reward_expectancy_bt,2022.2.4,MacIntel,60.0024001,Chrome,1440,900,,,,,0,853,,,,,,,,,,,,,,,,,160,U,hexagon,0,1,,,,,,,,,,,,,,,,repeat,number,NA,d,0.5134,Hi,,,,,,2,,,,,,,,high,9,0,9,0,1,,,,,,,,,
298321,2022-12-05_14h57.00.754,vts_reward_expectancy_bt,2022.2.4,MacIntel,60.0024001,Chrome,1440,900,,,,,0,853,,,,,,,,,,,,,,,,,132,S,star,1,1,,,,,,,,,,,,,,,,repeat,number,numRpt,d,0.565,Hi,,,,,,2,,,,,,,,high,10,0,10,0,1,,,,,,,,,
298321,2022-12-05_14h57.00.754,vts_reward_expectancy_bt,2022.2.4,MacIntel,60.0024001,Chrome,1440,900,,,,,0,853,,,,,,,,,,,,,,,,,139,W,triangle,1,0,,,,,,,,,,,,,,,,repeat,number,numRpt,d,0.5653,Hi,,,,,,2,,,,,,,,high,11,0,11,0,1,,,,,,,,,
298321,2022-12-05_14h57.00.754,vts_reward_expectancy_bt,2022.2.4,MacIntel,60.0024001,Chrome,1440,900,,,,,10,863,,,,,,,,,,,,,,,,,167,D,star,1,0,,,,,,,,,,,,,,,,switch,letter,lettSwt,j,0.5786,Hi,,,,,,2,,,,,,,,high,12,0,12,0,1,,,,,,,,,
298321,2022-12-05_14h57.00.754,vts_reward_expectancy_bt,2022.2.4,MacIntel,60.0024001,Chrome,1440,900,,,,,1,864,,,,,,,,,,,,,,,,,181,B,hexagon,1,0,,,,,,,,,,,,,,,,repeat,letter,lettRpt,j,0.4698,Lo,,,,,,2,,,,,,,,high,13,0,13,0,1,,,,,,,,,
298321,2022-12-05_14h57.00.754,vts_reward_expectancy_bt,2022.2.4,MacIntel,60.0024001,Chrome,1440,900,,,,,10,874,,,,,,,,,,,,,,,,,174,F,triangle,1,0,,,,,,,,,,,,,,,,repeat,letter,lettRpt,j,0.5827,Hi,,,,,,2,,,,,,,,high,14,0,14,0,1,,,,,,,,,
298321,2022-12-05_14h57.00.754,vts_reward_expectancy_bt,2022.2.4,MacIntel,60.0024001,Chrome,1440,900,,,,,1,875,,,,,,,,,,,,,,,,,125,H,circle,1,0,,,,,,,,,,,,,,,,repeat,letter,lettRpt,j,0.6,Lo,,,,,,2,,,,,,,,high,15,0,15,0,1,,,,,,,,,
298321,2022-12-05_14h57.00.754,vts_reward_expectancy_bt,2022.2.4,MacIntel,60.0024001,Chrome,1440,900,,,,,10,885,,,,,,,,,,,,,,,,,181,Y,star,1,0,,,,,,,,,,,,,,,,repeat,letter,lettRpt,k,0.5443,Hi,,,,,,2,,,,,,,,high,16,0,16,0,1,,,,,,,,,
298321,2022-12-05_14h57.00.754,vts_reward_expectancy_bt,2022.2.4,MacIntel,60.0024001,Chrome,1440,900,,,,,1,886,,,,,,,,,,,,,,,,,174,S,circle,1,0,,,,,,,,,,,,,,,,repeat,letter,lettRpt,k,0.5622,Lo,,,,,,2,,,,,,,,high,17,0,17,0,1,,,,,,,,,
298321,2022-12-05_14h57.00.754,vts_reward_expectancy_bt,2022.2.4,MacIntel,60.0024001,Chrome,1440,900,,,,,10,896,,,,,,,,,,,,,,,,,167,W,hexagon,1,0,,,,,,,,,,,,,,,,repeat,letter,lettRpt,k,0.5095,Lo,,,,,,2,,,,,,,,high,18,0,18,0,1,,,,,,,,,
298321,2022-12-05_14h57.00.754,vts_reward_expectancy_bt,2022.2.4,MacIntel,60.0024001,Chrome,1440,900,,,,,0,896,,,,,,,,,,,,,,,,,139,F,triangle,0,0,,,,,,,,,,,,,,,,repeat,letter,NA,k,0.5009,Lo,,,,,,2,,,,,,,,high,19,0,19,0,1,,,,,,,,,
298321,2022-12-05_14h57.00.754,vts_reward_expectancy_bt,2022.2.4,MacIntel,60.0024001,Chrome,1440,900,,,,,1,897,,,,,,,,,,,,,,,,,125,U,hexagon,1,1,,,,,,,,,,,,,,,,repeat,letter,lettRpt,k,0.4765,Lo,,,,,,2,,,,,,,,high,20,0,20,0,1,,,,,,,,,
298321,2022-12-05_14h57.00.754,vts_reward_expectancy_bt,2022.2.4,MacIntel,60.0024001,Chrome,1440,900,,,,,10,907,,,,,,,,,,,,,,,,,132,B,star,1,0,,,,,,,,,,,,,,,,repeat,letter,lettRpt,j,0.4844,Hi,,,,,,2,,,,,,,,high,21,0,21,0,1,,,,,,,,,
298321,2022-12-05_14h57.00.754,vts_reward_expectancy_bt,2022.2.4,MacIntel,60.0024001,Chrome,1440,900,,,,,1,908,,,,,,,,,,,,,,,,,160,D,circle,1,0,,,,,,,,,,,,,,,,repeat,letter,lettRpt,j,0.4277,Lo,,,,,,2,,,,,,,,high,22,0,22,0,1,,,,,,,,,
298321,2022-12-05_14h57.00.754,vts_reward_expectancy_bt,2022.2.4,MacIntel,60.0024001,Chrome,1440,900,,,,,10,918,,,,,,,,,,,,,,,,,146,H,triangle,1,0,,,,,,,,,,,,,,,,repeat,letter,lettRpt,j,0.4104,Hi,,,,,,2,,,,,,,,high,23,0,23,0,1,,,,,,,,,
298321,2022-12-05_14h57.00.754,vts_reward_expectancy_bt,2022.2.4,MacIntel,60.0024001,Chrome,1440,900,,,,,1,919,,,,,,,,,,,,,,,,,125,U,hexagon,1,0,,,,,,,,,,,,,,,,repeat,letter,lettRpt,k,0.512,Lo,,,,,,2,,,,,,,,high,24,0,24,0,1,,,,,,,,,
298321,2022-12-05_14h57.00.754,vts_reward_expectancy_bt,2022.2.4,MacIntel,60.0024001,Chrome,1440,900,,,,,1,920,,,,,,,,,,,,,,,,,181,S,circle,1,0,,,,,,,,,,,,,,,,repeat,letter,lettRpt,k,0.4454,Lo,,,,,,2,,,,,,,,high,25,0,25,0,1,,,,,,,,,
298321,2022-12-05_14h57.00.754,vts_reward_expectancy_bt,2022.2.4,MacIntel,60.0024001,Chrome,1440,900,,,,,10,930,,,,,,,,,,,,,,,,,174,H,triangle,1,0,,,,,,,,,,,,,,,,repeat,letter,lettRpt,j,0.4441,Hi,,,,,,2,,,,,,,,high,26,0,26,0,1,,,,,,,,,
298321,2022-12-05_14h57.00.754,vts_reward_expectancy_bt,2022.2.4,MacIntel,60.0024001,Chrome,1440,900,,,,,10,940,,,,,,,,,,,,,,,,,167,W,star,1,0,,,,,,,,,,,,,,,,repeat,letter,lettRpt,k,0.4298,Hi,,,,,,2,,,,,,,,high,27,0,27,0,1,,,,,,,,,
298321,2022-12-05_14h57.00.754,vts_reward_expectancy_bt,2022.2.4,MacIntel,60.0024001,Chrome,1440,900,,,,,1,941,,,,,,,,,,,,,,,,,146,B,hexagon,1,0,,,,,,,,,,,,,,,,repeat,letter,lettRpt,j,0.4106,Lo,,,,,,2,,,,,,,,high,28,0,28,0,1,,,,,,,,,
298321,2022-12-05_14h57.00.754,vts_reward_expectancy_bt,2022.2.4,MacIntel,60.0024001,Chrome,1440,900,,,,,1,942,,,,,,,,,,,,,,,,,160,Y,triangle,1,0,,,,,,,,,,,,,,,,repeat,letter,lettRpt,k,0.4619,Hi,,,,,,2,,,,,,,,high,29,0,29,0,1,,,,,,,,,
298321,2022-12-05_14h57.00.754,vts_reward_expectancy_bt,2022.2.4,MacIntel,60.0024001,Chrome,1440,900,,,,,10,952,,,,,,,,,,,,,,,,,132,F,star,1,0,,,,,,,,,,,,,,,,repeat,letter,lettRpt,j,0.5922,Hi,,,,,,2,,,,,,,,high,30,0,30,0,1,,,,,,,,,
298321,2022-12-05_14h57.00.754,vts_reward_expectancy_bt,2022.2.4,MacIntel,60.0024001,Chrome,1440,900,,,,,1,953,,,,,,,,,,,,,,,,,139,D,circle,1,0,,,,,,,,,,,,,,,,repeat,letter,lettRpt,j,0.6987,Lo,,,,,,2,,,,,,,,high,31,0,31,0,1,,,,,,,,,
298321,2022-12-05_14h57.00.754,vts_reward_expectancy_bt,2022.2.4,MacIntel,60.0024001,Chrome,1440,900,,,,,10,963,,,,,,,,,,,,,,,,,160,U,triangle,1,0,,,,,,,,,,,,,,,,switch,number,numSwt,f,0.5495,Hi,,,,,,3,,,,,,space,6.35,high,0,0,0,0,1,,,,,,,,,
298321,2022-12-05_14h57.00.754,vts_reward_expectancy_bt,2022.2.4,MacIntel,60.0024001,Chrome,1440,900,,,,,10,973,,,,,,,,,,,,,,,,,167,F,circle,1,0,,,,,,,,,,,,,,,,repeat,number,numRpt,f,0.5462,Lo,,,,,,3,,,,,,,,high,1,0,1,0,1,,,,,,,,,
298321,2022-12-05_14h57.00.754,vts_reward_expectancy_bt,2022.2.4,MacIntel,60.0024001,Chrome,1440,900,,,,,0,973,,,,,,,,,,,,,,,,,174,S,star,0,0,,,,,,,,,,,,,,,,repeat,number,NA,d,0.572,Lo,,,,,,3,,,,,,,,high,2,0,2,0,1,,,,,,,,,
298321,2022-12-05_14h57.00.754,vts_reward_expectancy_bt,2022.2.4,MacIntel,60.0024001,Chrome,1440,900,,,,,1,974,,,,,,,,,,,,,,,,,181,W,hexagon,1,1,,,,,,,,,,,,,,,,repeat,number,numRpt,f,0.4308,Lo,,,,,,3,,,,,,,,high,3,0,3,0,1,,,,,,,,,
298321,2022-12-05_14h57.00.754,vts_reward_expectancy_bt,2022.2.4,MacIntel,60.0024001,Chrome,1440,900,,,,,0,974,,,,,,,,,,,,,,,,,146,D,triangle,1,0,,,,,,,,,,,,,,,,repeat,number,numRpt,d,0.5206,Hi,,,,,,3,,,,,,,,high,4,0,4,0,1,,,,,,,,,
298321,2022-12-05_14h57.00.754,vts_reward_expectancy_bt,2022.2.4,MacIntel,60.0024001,Chrome,1440,900,,,,,1,975,,,,,,,,,,,,,,,,,139,B,circle,1,0,,,,,,,,,,,,,,,,repeat,number,numRpt,d,0.4621,Lo,,,,,,3,,,,,,,,high,5,0,5,0,1,,,,,,,,,
298321,2022-12-05_14h57.00.754,vts_reward_expectancy_bt,2022.2.4,MacIntel,60.0024001,Chrome,1440,900,,,,,0,975,,,,,,,,,,,,,,,,,132,H,star,1,0,,,,,,,,,,,,,,,,repeat,number,numRpt,d,0.5602,Hi,,,,,,3,,,,,,,,high,6,0,6,0,1,,,,,,,,,
298321,2022-12-05_14h57.00.754,vts_reward_expectancy_bt,2022.2.4,MacIntel,60.0024001,Chrome,1440,900,,,,,1,976,,,,,,,,,,,,,,,,,125,Y,hexagon,1,0,,,,,,,,,,,,,,,,repeat,number,numRpt,d,0.4274,Lo,,,,,,3,,,,,,,,high,7,0,7,0,1,,,,,,,,,
298321,2022-12-05_14h57.00.754,vts_reward_expectancy_bt,2022.2.4,MacIntel,60.0024001,Chrome,1440,900,,,,,0,976,,,,,,,,,,,,,,,,,160,U,triangle,0,0,,,,,,,,,,,,,,,,repeat,number,NA,d,0.5126,Lo,,,,,,3,,,,,,,,high,8,0,8,0,1,,,,,,,,,
298321,2022-12-05_14h57.00.754,vts_reward_expectancy_bt,2022.2.4,MacIntel,60.0024001,Chrome,1440,900,,,,,1,977,,,,,,,,,,,,,,,,,167,F,hexagon,1,1,,,,,,,,,,,,,,,,repeat,number,numRpt,f,0.5752,Lo,,,,,,3,,,,,,,,high,9,0,9,0,1,,,,,,,,,
298321,2022-12-05_14h57.00.754,vts_reward_expectancy_bt,2022.2.4,MacIntel,60.0024001,Chrome,1440,900,,,,,1,978,,,,,,,,,,,,,,,,,174,S,star,1,0,,,,,,,,,,,,,,,,repeat,number,numRpt,f,0.4776,Hi,,,,,,3,,,,,,,,high,10,0,10,0,1,,,,,,,,,
298321,2022-12-05_14h57.00.754,vts_reward_expectancy_bt,2022.2.4,MacIntel,60.0024001,Chrome,1440,900,,,,,1,979,,,,,,,,,,,,,,,,,181,W,circle,1,0,,,,,,,,,,,,,,,,repeat,number,numRpt,f,0.4784,Lo,,,,,,3,,,,,,,,high,11,0,11,0,1,,,,,,,,,
298321,2022-12-05_14h57.00.754,vts_reward_expectancy_bt,2022.2.4,MacIntel,60.0024001,Chrome,1440,900,,,,,0,979,,,,,,,,,,,,,,,,,146,D,triangle,1,0,,,,,,,,,,,,,,,,repeat,number,numRpt,d,1.1458,Hi,,,,,,3,,,,,,,,high,12,0,12,0,1,,,,,,,,,
298321,2022-12-05_14h57.00.754,vts_reward_expectancy_bt,2022.2.4,MacIntel,60.0024001,Chrome,1440,900,,,,,1,980,,,,,,,,,,,,,,,,,139,B,hexagon,1,0,,,,,,,,,,,,,,,,switch,letter,lettSwt,j,0.6453,Lo,,,,,,3,,,,,,,,high,13,0,13,0,1,,,,,,,,,
298321,2022-12-05_14h57.00.754,vts_reward_expectancy_bt,2022.2.4,MacIntel,60.0024001,Chrome,1440,900,,,,,1,981,,,,,,,,,,,,,,,,,132,H,circle,1,0,,,,,,,,,,,,,,,,repeat,letter,lettRpt,j,0.4578,Lo,,,,,,3,,,,,,,,high,14,0,14,0,1,,,,,,,,,
298321,2022-12-05_14h57.00.754,vts_reward_expectancy_bt,2022.2.4,MacIntel,60.0024001,Chrome,1440,900,,,,,0,981,,,,,,,,,,,,,,,,,125,Y,star,1,0,,,,,,,,,,,,,,,,repeat,letter,lettRpt,k,0.6772,Hi,,,,,,3,,,,,,,,high,15,0,15,0,1,,,,,,,,,
298321,2022-12-05_14h57.00.754,vts_reward_expectancy_bt,2022.2.4,MacIntel,60.0024001,Chrome,1440,900,,,,,0,981,,,,,,,,,,,,,,,,,132,S,star,1,0,,,,,,,,,,,,,,,,repeat,letter,lettRpt,k,0.6011,Hi,,,,,,3,,,,,,,,high,16,0,16,0,1,,,,,,,,,
298321,2022-12-05_14h57.00.754,vts_reward_expectancy_bt,2022.2.4,MacIntel,60.0024001,Chrome,1440,900,,,,,0,981,,,,,,,,,,,,,,,,,167,Y,triangle,1,0,,,,,,,,,,,,,,,,repeat,letter,lettRpt,k,0.5015,Hi,,,,,,3,,,,,,,,high,17,0,17,0,1,,,,,,,,,
298321,2022-12-05_14h57.00.754,vts_reward_expectancy_bt,2022.2.4,MacIntel,60.0024001,Chrome,1440,900,,,,,0,981,,,,,,,,,,,,,,,,,181,B,hexagon,-1,0,,,,,,,,,,,,,,,,switch,no_choice,NA,,,Hi,,,,,,3,,,,,,,,high,18,0,18,0,1,,,,,,,,,
298321,2022-12-05_14h57.00.754,vts_reward_expectancy_bt,2022.2.4,MacIntel,60.0024001,Chrome,1440,900,,,,,0,981,,,,,,,,,,,,,,,,,125,U,circle,-1,0,,,,,,,,,,,,,,,,repeat,no_choice,NA,,,Hi,,,,,,3,,,,,,,,high,19,0,19,0,1,,,,,,,,,
298321,2022-12-05_14h57.00.754,vts_reward_expectancy_bt,2022.2.4,MacIntel,60.0024001,Chrome,1440,900,,,,,0,981,,,,,,,,,,,,,,,,,146,H,star,0,0,,,,,,,,,,,,,,,,switch,letter,NA,k,0.5259,Hi,,,,,,3,,,,,,,,high,20,0,20,0,1,,,,,,,,,
298321,2022-12-05_14h57.00.754,vts_reward_expectancy_bt,2022.2.4,MacIntel,60.0024001,Chrome,1440,900,,,,,1,982,,,,,,,,,,,,,,,,,174,D,hexagon,1,1,,,,,,,,,,,,,,,,repeat,letter,lettRpt,j,0.4466,Lo,,,,,,3,,,,,,,,high,21,0,21,0,1,,,,,,,,,
298321,2022-12-05_14h57.00.754,vts_reward_expectancy_bt,2022.2.4,MacIntel,60.0024001,Chrome,1440,900,,,,,0,982,,,,,,,,,,,,,,,,,160,W,triangle,1,0,,,,,,,,,,,,,,,,repeat,letter,lettRpt,k,0.4964,Hi,,,,,,3,,,,,,,,high,22,0,22,0,1,,,,,,,,,
298321,2022-12-05_14h57.00.754,vts_reward_expectancy_bt,2022.2.4,MacIntel,60.0024001,Chrome,1440,900,,,,,0,982,,,,,,,,,,,,,,,,,139,F,circle,0,0,,,,,,,,,,,,,,,,repeat,letter,NA,k,0.4645,Hi,,,,,,3,,,,,,,,high,23,0,23,0,1,,,,,,,,,
298321,2022-12-05_14h57.00.754,vts_reward_expectancy_bt,2022.2.4,MacIntel,60.0024001,Chrome,1440,900,,,,,0,982,,,,,,,,,,,,,,,,,146,S,triangle,0,1,,,,,,,,,,,,,,,,repeat,letter,NA,j,0.4768,Hi,,,,,,3,,,,,,,,high,24,0,24,0,1,,,,,,,,,
298321,2022-12-05_14h57.00.754,vts_reward_expectancy_bt,2022.2.4,MacIntel,60.0024001,Chrome,1440,900,,,,,0,982,,,,,,,,,,,,,,,,,132,U,star,1,1,,,,,,,,,,,,,,,,repeat,letter,lettRpt,k,0.5978,Hi,,,,,,3,,,,,,,,high,25,0,25,0,1,,,,,,,,,
298321,2022-12-05_14h57.00.754,vts_reward_expectancy_bt,2022.2.4,MacIntel,60.0024001,Chrome,1440,900,,,,,10,992,,,,,,,,,,,,,,,,,160,F,hexagon,1,0,,,,,,,,,,,,,,,,switch,number,numSwt,f,0.6169,Lo,,,,,,3,,,,,,,,high,26,0,26,0,1,,,,,,,,,
298321,2022-12-05_14h57.00.754,vts_reward_expectancy_bt,2022.2.4,MacIntel,60.0024001,Chrome,1440,900,,,,,1,993,,,,,,,,,,,,,,,,,167,W,circle,1,0,,,,,,,,,,,,,,,,repeat,number,numRpt,f,0.7151,Lo,,,,,,3,,,,,,,,high,27,0,27,0,1,,,,,,,,,
298321,2022-12-05_14h57.00.754,vts_reward_expectancy_bt,2022.2.4,MacIntel,60.0024001,Chrome,1440,900,,,,,1,994,,,,,,,,,,,,,,,,,181,B,hexagon,1,0,,,,,,,,,,,,,,,,repeat,number,numRpt,f,0.5154,Lo,,,,,,3,,,,,,,,high,28,0,28,0,1,,,,,,,,,
298321,2022-12-05_14h57.00.754,vts_reward_expectancy_bt,2022.2.4,MacIntel,60.0024001,Chrome,1440,900,,,,,0,994,,,,,,,,,,,,,,,,,139,Y,star,0,0,,,,,,,,,,,,,,,,repeat,number,NA,f,0.5301,Lo,,,,,,3,,,,,,,,high,29,0,29,0,1,,,,,,,,,
298321,2022-12-05_14h57.00.754,vts_reward_expectancy_bt,2022.2.4,MacIntel,60.0024001,Chrome,1440,900,,,,,10,1004,,,,,,,,,,,,,,,,,125,D,triangle,1,1,,,,,,,,,,,,,,,,repeat,number,numRpt,d,0.4835,Hi,,,,,,3,,,,,,,,high,30,0,30,0,1,,,,,,,,,
298321,2022-12-05_14h57.00.754,vts_reward_expectancy_bt,2022.2.4,MacIntel,60.0024001,Chrome,1440,900,,,,,1,1005,,,,,,,,,,,,,,,,,174,H,circle,1,0,,,,,,,,,,,,,,,,repeat,number,numRpt,f,0.5982,Lo,,,,,,3,,,,,,,,high,31,0,31,0,1,,,,,,,,,
298321,2022-12-05_14h57.00.754,vts_reward_expectancy_bt,2022.2.4,MacIntel,60.0024001,Chrome,1440,900,,,,,0,1005,,,,,,,,,,,,,,,,,167,Y,triangle,1,0,,,,,,,,,,,,,,,,repeat,number,numRpt,f,0.5495,Hi,,,,,,4,,,,,,space,6.0377,high,0,0,0,0,1,,,,,,,,,
298321,2022-12-05_14h57.00.754,vts_reward_expectancy_bt,2022.2.4,MacIntel,60.0024001,Chrome,1440,900,,,,,1,1006,,,,,,,,,,,,,,,,,139,W,circle,1,0,,,,,,,,,,,,,,,,repeat,number,numRpt,d,0.478,Lo,,,,,,4,,,,,,,,high,1,0,1,0,1,,,,,,,,,
298321,2022-12-05_14h57.00.754,vts_reward_expectancy_bt,2022.2.4,MacIntel,60.0024001,Chrome,1440,900,,,,,1,1007,,,,,,,,,,,,,,,,,132,F,hexagon,1,0,,,,,,,,,,,,,,,,repeat,number,numRpt,d,0.3068,Lo,,,,,,4,,,,,,,,high,2,0,2,0,1,,,,,,,,,
298321,2022-12-05_14h57.00.754,vts_reward_expectancy_bt,2022.2.4,MacIntel,60.0024001,Chrome,1440,900,,,,,0,1007,,,,,,,,,,,,,,,,,174,S,star,0,0,,,,,,,,,,,,,,,,repeat,number,NA,d,0.427,Lo,,,,,,4,,,,,,,,high,3,0,3,0,1,,,,,,,,,
298321,2022-12-05_14h57.00.754,vts_reward_expectancy_bt,2022.2.4,MacIntel,60.0024001,Chrome,1440,900,,,,,0,1007,,,,,,,,,,,,,,,,,125,B,triangle,1,1,,,,,,,,,,,,,,,,repeat,number,numRpt,d,0.4965,Hi,,,,,,4,,,,,,,,high,4,0,4,0,1,,,,,,,,,
298321,2022-12-05_14h57.00.754,vts_reward_expectancy_bt,2022.2.4,MacIntel,60.0024001,Chrome,1440,900,,,,,0,1007,,,,,,,,,,,,,,,,,146,D,circle,0,0,,,,,,,,,,,,,,,,repeat,number,NA,f,0.4499,Hi,,,,,,4,,,,,,,,high,5,0,5,0,1,,,,,,,,,
298321,2022-12-05_14h57.00.754,vts_reward_expectancy_bt,2022.2.4,MacIntel,60.0024001,Chrome,1440,900,,,,,1,1008,,,,,,,,,,,,,,,,,181,U,hexagon,1,1,,,,,,,,,,,,,,,,repeat,number,numRpt,f,0.4623,Lo,,,,,,4,,,,,,,,high,6,0,6,0,1,,,,,,,,,
298321,2022-12-05_14h57.00.754,vts_reward_expectancy_bt,2022.2.4,MacIntel,60.0024001,Chrome,1440,900,,,,,10,1018,,,,,,,,,,,,,,,,,160,H,star,1,0,,,,,,,,,,,,,,,,repeat,number,numRpt,f,0.4669,Hi,,,,,,4,,,,,,,,high,7,0,7,0,1,,,,,,,,,
298321,2022-12-05_14h57.00.754,vts_reward_expectancy_bt,2022.2.4,MacIntel,60.0024001,Chrome,1440,900,,,,,1,1019,,,,,,,,,,,,,,,,,167,Y,hexagon,1,0,,,,,,,,,,,,,,,,repeat,number,numRpt,f,0.5783,Lo,,,,,,4,,,,,,,,high,8,0,8,0,1,,,,,,,,,
298321,2022-12-05_14h57.00.754,vts_reward_expectancy_bt,2022.2.4,MacIntel,60.0024001,Chrome,1440,900,,,,,10,1029,,,,,,,,,,,,,,,,,139,W,triangle,1,0,,,,,,,,,,,,,,,,repeat,number,numRpt,d,0.463,Hi,,,,,,4,,,,,,,,high,9,0,9,0,1,,,,,,,,,
298321,2022-12-05_14h57.00.754,vts_reward_expectancy_bt,2022.2.4,MacIntel,60.0024001,Chrome,1440,900,,,,,0,1029,,,,,,,,,,,,,,,,,132,F,star,1,0,,,,,,,,,,,,,,,,repeat,number,numRpt,d,0.4963,Hi,,,,,,4,,,,,,,,high,10,0,10,0,1,,,,,,,,,
298321,2022-12-05_14h57.00.754,vts_reward_expectancy_bt,2022.2.4,MacIntel,60.0024001,Chrome,1440,900,,,,,1,1030,,,,,,,,,,,,,,,,,174,S,circle,1,0,,,,,,,,,,,,,,,,repeat,number,numRpt,f,0.4955,Lo,,,,,,4,,,,,,,,high,11,0,11,0,1,,,,,,,,,
298321,2022-12-05_14h57.00.754,vts_reward_expectancy_bt,2022.2.4,MacIntel,60.0024001,Chrome,1440,900,,,,,1,1031,,,,,,,,,,,,,,,,,125,B,hexagon,1,0,,,,,,,,,,,,,,,,repeat,number,numRpt,d,0.4992,Lo,,,,,,4,,,,,,,,high,12,0,12,0,1,,,,,,,,,
298321,2022-12-05_14h57.00.754,vts_reward_expectancy_bt,2022.2.4,MacIntel,60.0024001,Chrome,1440,900,,,,,0,1031,,,,,,,,,,,,,,,,,146,D,triangle,1,0,,,,,,,,,,,,,,,,repeat,number,numRpt,d,0.4844,Hi,,,,,,4,,,,,,,,high,13,0,13,0,1,,,,,,,,,
298321,2022-12-05_14h57.00.754,vts_reward_expectancy_bt,2022.2.4,MacIntel,60.0024001,Chrome,1440,900,,,,,1,1032,,,,,,,,,,,,,,,,,181,U,circle,1,0,,,,,,,,,,,,,,,,repeat,number,numRpt,f,0.48,Lo,,,,,,4,,,,,,,,high,14,0,14,0,1,,,,,,,,,
298321,2022-12-05_14h57.00.754,vts_reward_expectancy_bt,2022.2.4,MacIntel,60.0024001,Chrome,1440,900,,,,,0,1032,,,,,,,,,,,,,,,,,160,H,star,1,0,,,,,,,,,,,,,,,,repeat,number,numRpt,f,0.7642,Hi,,,,,,4,,,,,,,,high,15,0,15,0,1,,,,,,,,,
298321,2022-12-05_14h57.00.754,vts_reward_expectancy_bt,2022.2.4,MacIntel,60.0024001,Chrome,1440,900,,,,,1,1033,,,,,,,,,,,,,,,,,174,Y,circle,1,0,,,,,,,,,,,,,,,,repeat,number,numRpt,f,0.4934,Lo,,,,,,4,,,,,,,,high,16,0,16,0,1,,,,,,,,,
298321,2022-12-05_14h57.00.754,vts_reward_expectancy_bt,2022.2.4,MacIntel,60.0024001,Chrome,1440,900,,,,,0,1033,,,,,,,,,,,,,,,,,160,U,triangle,0,0,,,,,,,,,,,,,,,,repeat,number,NA,d,0.4667,Lo,,,,,,4,,,,,,,,high,17,0,17,0,1,,,,,,,,,
298321,2022-12-05_14h57.00.754,vts_reward_expectancy_bt,2022.2.4,MacIntel,60.0024001,Chrome,1440,900,,,,,1,1034,,,,,,,,,,,,,,,,,181,B,star,1,1,,,,,,,,,,,,,,,,repeat,number,numRpt,f,0.3815,Hi,,,,,,4,,,,,,,,high,18,0,18,0,1,,,,,,,,,
298321,2022-12-05_14h57.00.754,vts_reward_expectancy_bt,2022.2.4,MacIntel,60.0024001,Chrome,1440,900,,,,,0,1034,,,,,,,,,,,,,,,,,167,F,hexagon,0,0,,,,,,,,,,,,,,,,repeat,number,NA,d,0.4813,Hi,,,,,,4,,,,,,,,high,19,0,19,0,1,,,,,,,,,
298321,2022-12-05_14h57.00.754,vts_reward_expectancy_bt,2022.2.4,MacIntel,60.0024001,Chrome,1440,900,,,,,0,1034,,,,,,,,,,,,,,,,,132,S,triangle,1,1,,,,,,,,,,,,,,,,repeat,number,numRpt,d,0.5307,Hi,,,,,,4,,,,,,,,high,20,0,20,0,1,,,,,,,,,
298321,2022-12-05_14h57.00.754,vts_reward_expectancy_bt,2022.2.4,MacIntel,60.0024001,Chrome,1440,900,,,,,0,1034,,,,,,,,,,,,,,,,,146,D,star,1,0,,,,,,,,,,,,,,,,repeat,number,numRpt,d,0.6281,Hi,,,,,,4,,,,,,,,high,21,0,21,0,1,,,,,,,,,
298321,2022-12-05_14h57.00.754,vts_reward_expectancy_bt,2022.2.4,MacIntel,60.0024001,Chrome,1440,900,,,,,0,1034,,,,,,,,,,,,,,,,,139,H,circle,0,0,,,,,,,,,,,,,,,,repeat,number,NA,f,0.3952,Hi,,,,,,4,,,,,,,,high,22,0,22,0,1,,,,,,,,,
298321,2022-12-05_14h57.00.754,vts_reward_expectancy_bt,2022.2.4,MacIntel,60.0024001,Chrome,1440,900,,,,,1,1035,,,,,,,,,,,,,,,,,125,W,hexagon,1,1,,,,,,,,,,,,,,,,repeat,number,numRpt,d,0.461,Lo,,,,,,4,,,,,,,,high,23,0,23,0,1,,,,,,,,,
298321,2022-12-05_14h57.00.754,vts_reward_expectancy_bt,2022.2.4,MacIntel,60.0024001,Chrome,1440,900,,,,,1,1036,,,,,,,,,,,,,,,,,167,F,circle,1,0,,,,,,,,,,,,,,,,repeat,number,numRpt,f,0.6637,Lo,,,,,,4,,,,,,,,high,24,0,24,0,1,,,,,,,,,
298321,2022-12-05_14h57.00.754,vts_reward_expectancy_bt,2022.2.4,MacIntel,60.0024001,Chrome,1440,900,,,,,0,1036,,,,,,,,,,,,,,,,,125,W,triangle,1,0,,,,,,,,,,,,,,,,repeat,number,numRpt,d,0.5619,Hi,,,,,,4,,,,,,,,high,25,0,25,0,1,,,,,,,,,
298321,2022-12-05_14h57.00.754,vts_reward_expectancy_bt,2022.2.4,MacIntel,60.0024001,Chrome,1440,900,,,,,10,1046,,,,,,,,,,,,,,,,,139,D,hexagon,1,0,,,,,,,,,,,,,,,,repeat,number,numRpt,d,0.6625,Lo,,,,,,4,,,,,,,,high,26,0,26,0,1,,,,,,,,,
298321,2022-12-05_14h57.00.754,vts_reward_expectancy_bt,2022.2.4,MacIntel,60.0024001,Chrome,1440,900,,,,,10,1056,,,,,,,,,,,,,,,,,174,B,star,1,0,,,,,,,,,,,,,,,,repeat,number,numRpt,f,0.4325,Hi,,,,,,4,,,,,,,,high,27,0,27,0,1,,,,,,,,,
298321,2022-12-05_14h57.00.754,vts_reward_expectancy_bt,2022.2.4,MacIntel,60.0024001,Chrome,1440,900,,,,,10,1066,,,,,,,,,,,,,,,,,181,S,hexagon,1,0,,,,,,,,,,,,,,,,repeat,number,numRpt,f,0.4993,Lo,,,,,,4,,,,,,,,high,28,0,28,0,1,,,,,,,,,
298321,2022-12-05_14h57.00.754,vts_reward_expectancy_bt,2022.2.4,MacIntel,60.0024001,Chrome,1440,900,,,,,10,1076,,,,,,,,,,,,,,,,,160,Y,triangle,1,0,,,,,,,,,,,,,,,,repeat,number,numRpt,f,0.3805,Hi,,,,,,4,,,,,,,,high,29,0,29,0,1,,,,,,,,,
298321,2022-12-05_14h57.00.754,vts_reward_expectancy_bt,2022.2.4,MacIntel,60.0024001,Chrome,1440,900,,,,,1,1077,,,,,,,,,,,,,,,,,132,H,circle,1,0,,,,,,,,,,,,,,,,repeat,number,numRpt,d,0.4474,Lo,,,,,,4,,,,,,,,high,30,0,30,0,1,,,,,,,,,
298321,2022-12-05_14h57.00.754,vts_reward_expectancy_bt,2022.2.4,MacIntel,60.0024001,Chrome,1440,900,,,,,10,1087,,,,,,,,,,,,,,,,,146,U,star,1,0,,,,,,,,,,,,,,,,repeat,number,numRpt,d,0.4618,Hi,,,,,,4,,,,,,,,high,31,0,31,0,1,,,,,,,,,
298321,2022-12-05_14h57.00.754,vts_reward_expectancy_bt,2022.2.4,MacIntel,60.0024001,Chrome,1440,900,,,,,0,1087,,,,,,,,,,,,,,,,,174,D,triangle,1,0,,,,,,,,,,,,,,,,repeat,number,numRpt,f,0.5302,Hi,,,,,,5,,,,,,space,10.3005,high,0,0,0,0,1,,,,,,,,,
298321,2022-12-05_14h57.00.754,vts_reward_expectancy_bt,2022.2.4,MacIntel,60.0024001,Chrome,1440,900,,,,,1,1088,,,,,,,,,,,,,,,,,125,S,hexagon,1,0,,,,,,,,,,,,,,,,repeat,number,numRpt,d,0.435,Lo,,,,,,5,,,,,,,,high,1,0,1,0,1,,,,,,,,,
298321,2022-12-05_14h57.00.754,vts_reward_expectancy_bt,2022.2.4,MacIntel,60.0024001,Chrome,1440,900,,,,,1,1089,,,,,,,,,,,,,,,,,167,W,circle,1,0,,,,,,,,,,,,,,,,repeat,number,numRpt,f,0.3799,Lo,,,,,,5,,,,,,,,high,2,0,2,0,1,,,,,,,,,
298321,2022-12-05_14h57.00.754,vts_reward_expectancy_bt,2022.2.4,MacIntel,60.0024001,Chrome,1440,900,,,,,0,1089,,,,,,,,,,,,,,,,,139,F,star,1,0,,,,,,,,,,,,,,,,repeat,number,numRpt,d,0.495,Hi,,,,,,5,,,,,,,,high,3,0,3,0,1,,,,,,,,,
298321,2022-12-05_14h57.00.754,vts_reward_expectancy_bt,2022.2.4,MacIntel,60.0024001,Chrome,1440,900,,,,,0,1089,,,,,,,,,,,,,,,,,160,Y,triangle,0,0,,,,,,,,,,,,,,,,repeat,number,NA,d,0.3786,Hi,,,,,,5,,,,,,,,high,4,0,4,0,1,,,,,,,,,
298321,2022-12-05_14h57.00.754,vts_reward_expectancy_bt,2022.2.4,MacIntel,60.0024001,Chrome,1440,900,,,,,0,1089,,,,,,,,,,,,,,,,,146,H,hexagon,0,1,,,,,,,,,,,,,,,,repeat,number,NA,f,0.3812,Hi,,,,,,5,,,,,,,,high,5,0,5,0,1,,,,,,,,,
298321,2022-12-05_14h57.00.754,vts_reward_expectancy_bt,2022.2.4,MacIntel,60.0024001,Chrome,1440,900,,,,,1,1090,,,,,,,,,,,,,,,,,181,B,circle,1,1,,,,,,,,,,,,,,,,repeat,number,numRpt,f,0.4302,Lo,,,,,,5,,,,,,,,high,6,0,6,0,1,,,,,,,,,
298321,2022-12-05_14h57.00.754,vts_reward_expectancy_bt,2022.2.4,MacIntel,60.0024001,Chrome,1440,900,,,,,10,1100,,,,,,,,,,,,,,,,,132,U,star,1,0,,,,,,,,,,,,,,,,repeat,number,numRpt,d,0.4465,Hi,,,,,,5,,,,,,,,high,7,0,7,0,1,,,,,,,,,
298321,2022-12-05_14h57.00.754,vts_reward_expectancy_bt,2022.2.4,MacIntel,60.0024001,Chrome,1440,900,,,,,10,1110,,,,,,,,,,,,,,,,,174,D,triangle,1,0,,,,,,,,,,,,,,,,repeat,number,numRpt,f,0.4652,Hi,,,,,,5,,,,,,,,high,8,0,8,0,1,,,,,,,,,
298321,2022-12-05_14h57.00.754,vts_reward_expectancy_bt,2022.2.4,MacIntel,60.0024001,Chrome,1440,900,,,,,1,1111,,,,,,,,,,,,,,,,,125,S,circle,1,0,,,,,,,,,,,,,,,,repeat,number,numRpt,d,0.4811,Lo,,,,,,5,,,,,,,,high,9,0,9,0,1,,,,,,,,,
298321,2022-12-05_14h57.00.754,vts_reward_expectancy_bt,2022.2.4,MacIntel,60.0024001,Chrome,1440,900,,,,,1,1112,,,,,,,,,,,,,,,,,167,W,hexagon,1,0,,,,,,,,,,,,,,,,repeat,number,numRpt,f,0.4782,Lo,,,,,,5,,,,,,,,high,10,0,10,0,1,,,,,,,,,
298321,2022-12-05_14h57.00.754,vts_reward_expectancy_bt,2022.2.4,MacIntel,60.0024001,Chrome,1440,900,,,,,10,1122,,,,,,,,,,,,,,,,,139,F,star,1,0,,,,,,,,,,,,,,,,repeat,number,numRpt,d,0.4183,Hi,,,,,,5,,,,,,,,high,11,0,11,0,1,,,,,,,,,
298321,2022-12-05_14h57.00.754,vts_reward_expectancy_bt,2022.2.4,MacIntel,60.0024001,Chrome,1440,900,,,,,1,1123,,,,,,,,,,,,,,,,,160,Y,circle,1,0,,,,,,,,,,,,,,,,repeat,number,numRpt,f,0.4316,Lo,,,,,,5,,,,,,,,high,12,0,12,0,1,,,,,,,,,
298321,2022-12-05_14h57.00.754,vts_reward_expectancy_bt,2022.2.4,MacIntel,60.0024001,Chrome,1440,900,,,,,1,1124,,,,,,,,,,,,,,,,,146,H,hexagon,1,0,,,,,,,,,,,,,,,,repeat,number,numRpt,d,0.4161,Lo,,,,,,5,,,,,,,,high,13,0,13,0,1,,,,,,,,,
298321,2022-12-05_14h57.00.754,vts_reward_expectancy_bt,2022.2.4,MacIntel,60.0024001,Chrome,1440,900,,,,,10,1134,,,,,,,,,,,,,,,,,181,B,star,1,0,,,,,,,,,,,,,,,,repeat,number,numRpt,f,0.387,Hi,,,,,,5,,,,,,,,high,14,0,14,0,1,,,,,,,,,
298321,2022-12-05_14h57.00.754,vts_reward_expectancy_bt,2022.2.4,MacIntel,60.0024001,Chrome,1440,900,,,,,0,1134,,,,,,,,,,,,,,,,,132,U,triangle,0,0,,,,,,,,,,,,,,,,repeat,number,NA,f,0.4832,Hi,,,,,,5,,,,,,,,high,15,0,15,0,1,,,,,,,,,
298321,2022-12-05_14h57.00.754,vts_reward_expectancy_bt,2022.2.4,MacIntel,60.0024001,Chrome,1440,900,,,,,0,1134,,,,,,,,,,,,,,,,,181,B,triangle,1,1,,,,,,,,,,,,,,,,repeat,number,numRpt,f,0.4991,Hi,,,,,,5,,,,,,,,high,16,0,16,0,1,,,,,,,,,
298321,2022-12-05_14h57.00.754,vts_reward_expectancy_bt,2022.2.4,MacIntel,60.0024001,Chrome,1440,900,,,,,10,1144,,,,,,,,,,,,,,,,,125,H,circle,1,0,,,,,,,,,,,,,,,,repeat,number,numRpt,d,0.4612,Lo,,,,,,5,,,,,,,,high,17,0,17,0,1,,,,,,,,,
298321,2022-12-05_14h57.00.754,vts_reward_expectancy_bt,2022.2.4,MacIntel,60.0024001,Chrome,1440,900,,,,,0,1144,,,,,,,,,,,,,,,,,139,U,star,1,0,,,,,,,,,,,,,,,,repeat,number,numRpt,d,0.4809,Hi,,,,,,5,,,,,,,,high,18,0,18,0,1,,,,,,,,,
298321,2022-12-05_14h57.00.754,vts_reward_expectancy_bt,2022.2.4,MacIntel,60.0024001,Chrome,1440,900,,,,,1,1145,,,,,,,,,,,,,,,,,146,D,hexagon,1,0,,,,,,,,,,,,,,,,repeat,number,numRpt,d,0.5133,Lo,,,,,,5,,,,,,,,high,19,0,19,0,1,,,,,,,,,
298321,2022-12-05_14h57.00.754,vts_reward_expectancy_bt,2022.2.4,MacIntel,60.0024001,Chrome,1440,900,,,,,1,1146,,,,,,,,,,,,,,,,,167,W,circle,1,0,,,,,,,,,,,,,,,,repeat,number,numRpt,f,0.5014,Lo,,,,,,5,,,,,,,,high,20,0,20,0,1,,,,,,,,,
298321,2022-12-05_14h57.00.754,vts_reward_expectancy_bt,2022.2.4,MacIntel,60.0024001,Chrome,1440,900,,,,,1,1147,,,,,,,,,,,,,,,,,174,F,hexagon,1,0,,,,,,,,,,,,,,,,repeat,number,numRpt,f,0.6324,Lo,,,,,,5,,,,,,,,high,21,0,21,0,1,,,,,,,,,
298321,2022-12-05_14h57.00.754,vts_reward_expectancy_bt,2022.2.4,MacIntel,60.0024001,Chrome,1440,900,,,,,0,1147,,,,,,,,,,,,,,,,,132,Y,star,1,0,,,,,,,,,,,,,,,,repeat,number,numRpt,d,0.482,Hi,,,,,,5,,,,,,,,high,22,0,22,0,1,,,,,,,,,
298321,2022-12-05_14h57.00.754,vts_reward_expectancy_bt,2022.2.4,MacIntel,60.0024001,Chrome,1440,900,,,,,0,1147,,,,,,,,,,,,,,,,,160,S,triangle,1,0,,,,,,,,,,,,,,,,repeat,number,numRpt,f,0.4825,Hi,,,,,,5,,,,,,,,high,23,0,23,0,1,,,,,,,,,
298321,2022-12-05_14h57.00.754,vts_reward_expectancy_bt,2022.2.4,MacIntel,60.0024001,Chrome,1440,900,,,,,10,1157,,,,,,,,,,,,,,,,,125,U,hexagon,1,0,,,,,,,,,,,,,,,,repeat,number,numRpt,d,0.4632,Lo,,,,,,5,,,,,,,,high,24,0,24,0,1,,,,,,,,,
298321,2022-12-05_14h57.00.754,vts_reward_expectancy_bt,2022.2.4,MacIntel,60.0024001,Chrome,1440,900,,,,,10,1167,,,,,,,,,,,,,,,,,181,W,triangle,1,0,,,,,,,,,,,,,,,,repeat,number,numRpt,f,0.4297,Hi,,,,,,5,,,,,,,,high,25,0,25,0,1,,,,,,,,,
298321,2022-12-05_14h57.00.754,vts_reward_expectancy_bt,2022.2.4,MacIntel,60.0024001,Chrome,1440,900,,,,,0,1167,,,,,,,,,,,,,,,,,160,Y,star,1,0,,,,,,,,,,,,,,,,repeat,number,numRpt,f,0.528,Hi,,,,,,5,,,,,,,,high,26,0,26,0,1,,,,,,,,,
298321,2022-12-05_14h57.00.754,vts_reward_expectancy_bt,2022.2.4,MacIntel,60.0024001,Chrome,1440,900,,,,,1,1168,,,,,,,,,,,,,,,,,174,D,circle,1,0,,,,,,,,,,,,,,,,repeat,number,numRpt,f,0.3866,Lo,,,,,,5,,,,,,,,high,27,0,27,0,1,,,,,,,,,
298321,2022-12-05_14h57.00.754,vts_reward_expectancy_bt,2022.2.4,MacIntel,60.0024001,Chrome,1440,900,,,,,1,1169,,,,,,,,,,,,,,,,,139,B,hexagon,1,0,,,,,,,,,,,,,,,,repeat,number,numRpt,d,0.5307,Lo,,,,,,5,,,,,,,,high,28,0,28,0,1,,,,,,,,,
298321,2022-12-05_14h57.00.754,vts_reward_expectancy_bt,2022.2.4,MacIntel,60.0024001,Chrome,1440,900,,,,,1,1170,,,,,,,,,,,,,,,,,146,H,circle,1,0,,,,,,,,,,,,,,,,repeat,number,numRpt,d,0.5691,Lo,,,,,,5,,,,,,,,high,29,0,29,0,1,,,,,,,,,
298321,2022-12-05_14h57.00.754,vts_reward_expectancy_bt,2022.2.4,MacIntel,60.0024001,Chrome,1440,900,,,,,0,1170,,,,,,,,,,,,,,,,,132,S,triangle,1,0,,,,,,,,,,,,,,,,repeat,number,numRpt,d,0.5291,Hi,,,,,,5,,,,,,,,high,30,0,30,0,1,,,,,,,,,
298321,2022-12-05_14h57.00.754,vts_reward_expectancy_bt,2022.2.4,MacIntel,60.0024001,Chrome,1440,900,,,,,0,1170,,,,,,,,,,,,,,,,,167,F,star,1,0,,,,,,,,,,,,,,,,repeat,number,numRpt,f,0.5147,Hi,,,,,,5,,,,,,,,high,31,0,31,0,1,,,,,,,,,
298321,2022-12-05_14h57.00.754,vts_reward_expectancy_bt,2022.2.4,MacIntel,60.0024001,Chrome,1440,900,,,,,1,1171,,,,,,,,,,,,,,,,,125,U,circle,1,0,,,,,,,,,,,,,,,,repeat,number,numRpt,d,0.5121,Lo,,,,,,6,,,,,,space,6.986,high,0,0,0,0,1,,,,,,,,,
298321,2022-12-05_14h57.00.754,vts_reward_expectancy_bt,2022.2.4,MacIntel,60.0024001,Chrome,1440,900,,,,,1,1172,,,,,,,,,,,,,,,,,181,D,triangle,1,0,,,,,,,,,,,,,,,,repeat,number,numRpt,f,0.4477,Hi,,,,,,6,,,,,,,,high,1,0,1,0,1,,,,,,,,,
298321,2022-12-05_14h57.00.754,vts_reward_expectancy_bt,2022.2.4,MacIntel,60.0024001,Chrome,1440,900,,,,,0,1172,,,,,,,,,,,,,,,,,174,W,star,1,0,,,,,,,,,,,,,,,,repeat,number,numRpt,f,0.4638,Hi,,,,,,6,,,,,,,,high,2,0,2,0,1,,,,,,,,,
298321,2022-12-05_14h57.00.754,vts_reward_expectancy_bt,2022.2.4,MacIntel,60.0024001,Chrome,1440,900,,,,,1,1173,,,,,,,,,,,,,,,,,146,B,hexagon,1,0,,,,,,,,,,,,,,,,repeat,number,numRpt,d,0.4326,Lo,,,,,,6,,,,,,,,high,3,0,3,0,1,,,,,,,,,
298321,2022-12-05_14h57.00.754,vts_reward_expectancy_bt,2022.2.4,MacIntel,60.0024001,Chrome,1440,900,,,,,10,1183,,,,,,,,,,,,,,,,,132,F,circle,1,0,,,,,,,,,,,,,,,,repeat,number,numRpt,d,0.4961,Lo,,,,,,6,,,,,,,,high,4,0,4,0,1,,,,,,,,,
298321,2022-12-05_14h57.00.754,vts_reward_expectancy_bt,2022.2.4,MacIntel,60.0024001,Chrome,1440,900,,,,,0,1183,,,,,,,,,,,,,,,,,139,S,triangle,1,0,,,,,,,,,,,,,,,,repeat,number,numRpt,d,0.5983,Hi,,,,,,6,,,,,,,,high,5,0,5,0,1,,,,,,,,,
298321,2022-12-05_14h57.00.754,vts_reward_expectancy_bt,2022.2.4,MacIntel,60.0024001,Chrome,1440,900,,,,,0,1183,,,,,,,,,,,,,,,,,167,H,star,1,0,,,,,,,,,,,,,,,,repeat,number,numRpt,f,0.4988,Hi,,,,,,6,,,,,,,,high,6,0,6,0,1,,,,,,,,,
298321,2022-12-05_14h57.00.754,vts_reward_expectancy_bt,2022.2.4,MacIntel,60.0024001,Chrome,1440,900,,,,,1,1184,,,,,,,,,,,,,,,,,160,Y,hexagon,1,0,,,,,,,,,,,,,,,,repeat,number,numRpt,f,0.4325,Lo,,,,,,6,,,,,,,,high,7,0,7,0,1,,,,,,,,,
298321,2022-12-05_14h57.00.754,vts_reward_expectancy_bt,2022.2.4,MacIntel,60.0024001,Chrome,1440,900,,,,,0,1184,,,,,,,,,,,,,,,,,125,U,star,1,0,,,,,,,,,,,,,,,,repeat,number,numRpt,d,0.581,Hi,,,,,,6,,,,,,,,high,8,0,8,0,1,,,,,,,,,
298321,2022-12-05_14h57.00.754,vts_reward_expectancy_bt,2022.2.4,MacIntel,60.0024001,Chrome,1440,900,,,,,0,1184,,,,,,,,,,,,,,,,,181,D,circle,0,0,,,,,,,,,,,,,,,,repeat,number,NA,d,0.4987,Hi,,,,,,6,,,,,,,,high,9,0,9,0,1,,,,,,,,,
298321,2022-12-05_14h57.00.754,vts_reward_expectancy_bt,2022.2.4,MacIntel,60.0024001,Chrome,1440,900,,,,,10,1194,,,,,,,,,,,,,,,,,174,W,triangle,1,1,,,,,,,,,,,,,,,,repeat,number,numRpt,f,0.4371,Hi,,,,,,6,,,,,,,,high,10,0,10,0,1,,,,,,,,,
298321,2022-12-05_14h57.00.754,vts_reward_expectancy_bt,2022.2.4,MacIntel,60.0024001,Chrome,1440,900,,,,,10,1204,,,,,,,,,,,,,,,,,146,B,hexagon,1,0,,,,,,,,,,,,,,,,repeat,number,numRpt,d,0.5635,Lo,,,,,,6,,,,,,,,high,11,0,11,0,1,,,,,,,,,
298321,2022-12-05_14h57.00.754,vts_reward_expectancy_bt,2022.2.4,MacIntel,60.0024001,Chrome,1440,900,,,,,0,1204,,,,,,,,,,,,,,,,,132,F,star,1,0,,,,,,,,,,,,,,,,repeat,number,numRpt,d,0.515,Hi,,,,,,6,,,,,,,,high,12,0,12,0,1,,,,,,,,,
