participant,date,expName,psychopyVersion,OS,frameRate,browser,xResolution,yResolution,key_resp.keys,key_resp.rt,training_resp.keys,training_resp.rt,points_trial,points_cumul,trainBlock,training.thisRepN,training.thisTrialN,training.thisN,training.thisIndex,training.ran,LTriangleOpac,LCircleOpac,LHexagonOpac,LStarOpac,RTriangleOpac,RCircleOpac,RHexagonOpac,RStarOpac,LShape_ID,RShape_ID,curr_topStim,curr_bottStim,curr_shape,acc,E1,target_resp_prac1.keys,target_resp_prac1.rt,pracBlock,task1_prac_trials.thisRepN,task1_prac_trials.thisTrialN,task1_prac_trials.thisN,task1_prac_trials.thisIndex,task1_prac_trials.ran,target_resp_prac2.keys,target_resp_prac2.rt,task2_praac_trials.thisRepN,task2_praac_trials.thisTrialN,task2_praac_trials.thisN,task2_praac_trials.thisIndex,task2_praac_trials.ran,alt,task,condition,target_resp.keys,target_resp.rt,rewCond,vts_practice_trials.thisRepN,vts_practice_trials.thisTrialN,vts_practice_trials.thisN,vts_practice_trials.thisIndex,vts_practice_trials.ran,blockNum,trials_norew.thisRepN,trials_norew.thisTrialN,trials_norew.thisN,trials_norew.thisIndex,trials_norew.ran,key_resp_2.keys,key_resp_2.rt,rewExpectancy,trials_rew.thisRepN,trials_rew.thisTrialN,trials_rew.thisN,trials_rew.thisIndex,trials_rew.ran,Q1,Q2,Q2_text,Q3,Q4,Q5_text,Q5,xRes,yRes
298348,2022-12-06_15h23.46.732,vts_reward_expectancy_bt,2022.2.4,Win32,17.99305468,Chrome,1920,1080,,,,,,,,,,,,,,,,,,,,,,,,,,,,,,,,,,,,,,,,,,,,,,,,,,,,,,,,,,,,,,,,,,,,,,,,,,,,
298348,2022-12-06_15h23.46.732,vts_reward_expectancy_bt,2022.2.4,Win32,17.99305468,Chrome,1920,1080,space,24.904,,,,,,,,,,,,,,,,,,,,,,,,,,,,,,,,,,,,,,,,,,,,,,,,,,,,,,,,,,,,,,,,,,,,,,,,,,
298348,2022-12-06_15h23.46.732,vts_reward_expectancy_bt,2022.2.4,Win32,17.99305468,Chrome,1920,1080,,,,,,,,,,,,,,,,,,,,,,,,,,,,,,,,,,,,,,,,,,,,,,,,,,,,,,,,,,,,,,,,,,,,,,,,,,,,
298348,2022-12-06_15h23.46.732,vts_reward_expectancy_bt,2022.2.4,Win32,17.99305468,Chrome,1920,1080,,,a,1.5052,10,10,0,0,0,0,2,1,1,0,0,0,0,0,0,1,triangle,star,,,,,,,,,,,,,,,,,,,,,,,,,,,,,,,,,,,,,,,,,,,,,,,,,,,,,,
298348,2022-12-06_15h23.46.732,vts_reward_expectancy_bt,2022.2.4,Win32,17.99305468,Chrome,1920,1080,,,a,1.5863,1,11,0,0,1,1,1,1,1,0,0,0,0,0,1,0,triangle,hexagon,,,,,,,,,,,,,,,,,,,,,,,,,,,,,,,,,,,,,,,,,,,,,,,,,,,,,,
298348,2022-12-06_15h23.46.732,vts_reward_expectancy_bt,2022.2.4,Win32,17.99305468,Chrome,1920,1080,,,l,1.8265,1,12,0,0,2,2,9,1,0,0,0,1,1,0,0,0,star,triangle,,,,,,,,,,,,,,,,,,,,,,,,,,,,,,,,,,,,,,,,,,,,,,,,,,,,,,
298348,2022-12-06_15h23.46.732,vts_reward_expectancy_bt,2022.2.4,Win32,17.99305468,Chrome,1920,1080,,,a,1.7238,10,22,0,0,3,3,8,1,0,0,1,0,0,0,0,1,hexagon,star,,,,,,,,,,,,,,,,,,,,,,,,,,,,,,,,,,,,,,,,,,,,,,,,,,,,,,
298348,2022-12-06_15h23.46.732,vts_reward_expectancy_bt,2022.2.4,Win32,17.99305468,Chrome,1920,1080,,,a,2.9845,1,23,0,0,4,4,7,1,0,0,1,0,0,1,0,0,hexagon,circle,,,,,,,,,,,,,,,,,,,,,,,,,,,,,,,,,,,,,,,,,,,,,,,,,,,,,,
298348,2022-12-06_15h23.46.732,vts_reward_expectancy_bt,2022.2.4,Win32,17.99305468,Chrome,1920,1080,,,a,1.3202,1,24,0,0,5,5,3,1,0,1,0,0,1,0,0,0,circle,triangle,,,,,,,,,,,,,,,,,,,,,,,,,,,,,,,,,,,,,,,,,,,,,,,,,,,,,,
298348,2022-12-06_15h23.46.732,vts_reward_expectancy_bt,2022.2.4,Win32,17.99305468,Chrome,1920,1080,,,l,1.3333,10,34,0,0,6,6,4,1,0,1,0,0,0,0,1,0,circle,hexagon,,,,,,,,,,,,,,,,,,,,,,,,,,,,,,,,,,,,,,,,,,,,,,,,,,,,,,
298348,2022-12-06_15h23.46.732,vts_reward_expectancy_bt,2022.2.4,Win32,17.99305468,Chrome,1920,1080,,,a,1.5572,10,44,0,0,7,7,10,1,0,0,0,1,0,1,0,0,star ,circle,,,,,,,,,,,,,,,,,,,,,,,,,,,,,,,,,,,,,,,,,,,,,,,,,,,,,,
298348,2022-12-06_15h23.46.732,vts_reward_expectancy_bt,2022.2.4,Win32,17.99305468,Chrome,1920,1080,,,a,7.086,10,54,0,0,8,8,11,1,0,0,0,1,0,0,1,0,star,hexagon,,,,,,,,,,,,,,,,,,,,,,,,,,,,,,,,,,,,,,,,,,,,,,,,,,,,,,
298348,2022-12-06_15h23.46.732,vts_reward_expectancy_bt,2022.2.4,Win32,17.99305468,Chrome,1920,1080,,,l,1.3156,1,55,0,0,9,9,5,1,0,1,0,0,0,0,0,1,circle,star,,,,,,,,,,,,,,,,,,,,,,,,,,,,,,,,,,,,,,,,,,,,,,,,,,,,,,
298348,2022-12-06_15h23.46.732,vts_reward_expectancy_bt,2022.2.4,Win32,17.99305468,Chrome,1920,1080,,,a,1.3225,1,56,0,0,10,10,0,1,1,0,0,0,0,1,0,0,triangle,circle,,,,,,,,,,,,,,,,,,,,,,,,,,,,,,,,,,,,,,,,,,,,,,,,,,,,,,
298348,2022-12-06_15h23.46.732,vts_reward_expectancy_bt,2022.2.4,Win32,17.99305468,Chrome,1920,1080,,,a,0.995,1,57,0,0,11,11,6,1,0,0,1,0,1,0,0,0,hexagon,triangle,,,,,,,,,,,,,,,,,,,,,,,,,,,,,,,,,,,,,,,,,,,,,,,,,,,,,,
298348,2022-12-06_15h23.46.732,vts_reward_expectancy_bt,2022.2.4,Win32,17.99305468,Chrome,1920,1080,,,l,0.295,1,58,0,1,0,12,4,1,0,1,0,0,0,0,1,0,circle,hexagon,,,,,,,,,,,,,,,,,,,,,,,,,,,,,,,,,,,,,,,,,,,,,,,,,,,,,,
298348,2022-12-06_15h23.46.732,vts_reward_expectancy_bt,2022.2.4,Win32,17.99305468,Chrome,1920,1080,,,a,0.2271,10,68,0,1,1,13,5,1,0,1,0,0,0,0,0,1,circle,star,,,,,,,,,,,,,,,,,,,,,,,,,,,,,,,,,,,,,,,,,,,,,,,,,,,,,,
298348,2022-12-06_15h23.46.732,vts_reward_expectancy_bt,2022.2.4,Win32,17.99305468,Chrome,1920,1080,,,l,1.6339,1,69,0,1,2,14,11,1,0,0,0,1,0,0,1,0,star,hexagon,,,,,,,,,,,,,,,,,,,,,,,,,,,,,,,,,,,,,,,,,,,,,,,,,,,,,,
298348,2022-12-06_15h23.46.732,vts_reward_expectancy_bt,2022.2.4,Win32,17.99305468,Chrome,1920,1080,,,a,0.5686,10,79,0,1,3,15,3,1,0,1,0,0,1,0,0,0,circle,triangle,,,,,,,,,,,,,,,,,,,,,,,,,,,,,,,,,,,,,,,,,,,,,,,,,,,,,,
298348,2022-12-06_15h23.46.732,vts_reward_expectancy_bt,2022.2.4,Win32,17.99305468,Chrome,1920,1080,,,a,0.9975,1,80,0,1,4,16,8,1,0,0,1,0,0,0,0,1,hexagon,star,,,,,,,,,,,,,,,,,,,,,,,,,,,,,,,,,,,,,,,,,,,,,,,,,,,,,,
298348,2022-12-06_15h23.46.732,vts_reward_expectancy_bt,2022.2.4,Win32,17.99305468,Chrome,1920,1080,,,a,0.6074,1,81,0,1,5,17,7,1,0,0,1,0,0,1,0,0,hexagon,circle,,,,,,,,,,,,,,,,,,,,,,,,,,,,,,,,,,,,,,,,,,,,,,,,,,,,,,
298348,2022-12-06_15h23.46.732,vts_reward_expectancy_bt,2022.2.4,Win32,17.99305468,Chrome,1920,1080,,,a,0.3354,1,82,0,1,6,18,1,1,1,0,0,0,0,0,1,0,triangle,hexagon,,,,,,,,,,,,,,,,,,,,,,,,,,,,,,,,,,,,,,,,,,,,,,,,,,,,,,
298348,2022-12-06_15h23.46.732,vts_reward_expectancy_bt,2022.2.4,Win32,17.99305468,Chrome,1920,1080,,,a,0.1294,10,92,0,1,7,19,9,1,0,0,0,1,1,0,0,0,star,triangle,,,,,,,,,,,,,,,,,,,,,,,,,,,,,,,,,,,,,,,,,,,,,,,,,,,,,,
298348,2022-12-06_15h23.46.732,vts_reward_expectancy_bt,2022.2.4,Win32,17.99305468,Chrome,1920,1080,,,a,0.1211,10,102,0,1,8,20,10,1,0,0,0,1,0,1,0,0,star ,circle,,,,,,,,,,,,,,,,,,,,,,,,,,,,,,,,,,,,,,,,,,,,,,,,,,,,,,
298348,2022-12-06_15h23.46.732,vts_reward_expectancy_bt,2022.2.4,Win32,17.99305468,Chrome,1920,1080,,,a,0.235,1,103,0,1,9,21,2,1,1,0,0,0,0,0,0,1,triangle,star,,,,,,,,,,,,,,,,,,,,,,,,,,,,,,,,,,,,,,,,,,,,,,,,,,,,,,
298348,2022-12-06_15h23.46.732,vts_reward_expectancy_bt,2022.2.4,Win32,17.99305468,Chrome,1920,1080,,,a,0.2301,1,104,0,1,10,22,6,1,0,0,1,0,1,0,0,0,hexagon,triangle,,,,,,,,,,,,,,,,,,,,,,,,,,,,,,,,,,,,,,,,,,,,,,,,,,,,,,
298348,2022-12-06_15h23.46.732,vts_reward_expectancy_bt,2022.2.4,Win32,17.99305468,Chrome,1920,1080,,,l,0.0581,10,114,0,1,11,23,0,1,1,0,0,0,0,1,0,0,triangle,circle,,,,,,,,,,,,,,,,,,,,,,,,,,,,,,,,,,,,,,,,,,,,,,,,,,,,,,
298348,2022-12-06_15h23.46.732,vts_reward_expectancy_bt,2022.2.4,Win32,17.99305468,Chrome,1920,1080,,,a,0.1101,1,115,0,2,0,24,9,1,0,0,0,1,1,0,0,0,star,triangle,,,,,,,,,,,,,,,,,,,,,,,,,,,,,,,,,,,,,,,,,,,,,,,,,,,,,,
298348,2022-12-06_15h23.46.732,vts_reward_expectancy_bt,2022.2.4,Win32,17.99305468,Chrome,1920,1080,,,l,0.0061,1,116,0,2,1,25,6,1,0,0,1,0,1,0,0,0,hexagon,triangle,,,,,,,,,,,,,,,,,,,,,,,,,,,,,,,,,,,,,,,,,,,,,,,,,,,,,,
298348,2022-12-06_15h23.46.732,vts_reward_expectancy_bt,2022.2.4,Win32,17.99305468,Chrome,1920,1080,,,a,0.0603,1,117,0,2,2,26,7,1,0,0,1,0,0,1,0,0,hexagon,circle,,,,,,,,,,,,,,,,,,,,,,,,,,,,,,,,,,,,,,,,,,,,,,,,,,,,,,
298348,2022-12-06_15h23.46.732,vts_reward_expectancy_bt,2022.2.4,Win32,17.99305468,Chrome,1920,1080,,,l,0.0605,10,127,0,2,3,27,3,1,0,1,0,0,1,0,0,0,circle,triangle,,,,,,,,,,,,,,,,,,,,,,,,,,,,,,,,,,,,,,,,,,,,,,,,,,,,,,
298348,2022-12-06_15h23.46.732,vts_reward_expectancy_bt,2022.2.4,Win32,17.99305468,Chrome,1920,1080,,,l,0.0606,10,137,0,2,4,28,0,1,1,0,0,0,0,1,0,0,triangle,circle,,,,,,,,,,,,,,,,,,,,,,,,,,,,,,,,,,,,,,,,,,,,,,,,,,,,,,
298348,2022-12-06_15h23.46.732,vts_reward_expectancy_bt,2022.2.4,Win32,17.99305468,Chrome,1920,1080,,,l,0.1354,10,147,0,2,5,29,5,1,0,1,0,0,0,0,0,1,circle,star,,,,,,,,,,,,,,,,,,,,,,,,,,,,,,,,,,,,,,,,,,,,,,,,,,,,,,
298348,2022-12-06_15h23.46.732,vts_reward_expectancy_bt,2022.2.4,Win32,17.99305468,Chrome,1920,1080,,,a,0.1742,10,157,0,2,6,30,1,1,1,0,0,0,0,0,1,0,triangle,hexagon,,,,,,,,,,,,,,,,,,,,,,,,,,,,,,,,,,,,,,,,,,,,,,,,,,,,,,
298348,2022-12-06_15h23.46.732,vts_reward_expectancy_bt,2022.2.4,Win32,17.99305468,Chrome,1920,1080,,,a,0.1697,1,158,0,2,7,31,11,1,0,0,0,1,0,0,1,0,star,hexagon,,,,,,,,,,,,,,,,,,,,,,,,,,,,,,,,,,,,,,,,,,,,,,,,,,,,,,
298348,2022-12-06_15h23.46.732,vts_reward_expectancy_bt,2022.2.4,Win32,17.99305468,Chrome,1920,1080,,,a,0.1172,10,168,0,2,8,32,4,1,0,1,0,0,0,0,1,0,circle,hexagon,,,,,,,,,,,,,,,,,,,,,,,,,,,,,,,,,,,,,,,,,,,,,,,,,,,,,,
298348,2022-12-06_15h23.46.732,vts_reward_expectancy_bt,2022.2.4,Win32,17.99305468,Chrome,1920,1080,,,a,0.1201,10,178,0,2,9,33,10,1,0,0,0,1,0,1,0,0,star ,circle,,,,,,,,,,,,,,,,,,,,,,,,,,,,,,,,,,,,,,,,,,,,,,,,,,,,,,
298348,2022-12-06_15h23.46.732,vts_reward_expectancy_bt,2022.2.4,Win32,17.99305468,Chrome,1920,1080,,,a,0.0062,10,188,0,2,10,34,2,1,1,0,0,0,0,0,0,1,triangle,star,,,,,,,,,,,,,,,,,,,,,,,,,,,,,,,,,,,,,,,,,,,,,,,,,,,,,,
298348,2022-12-06_15h23.46.732,vts_reward_expectancy_bt,2022.2.4,Win32,17.99305468,Chrome,1920,1080,,,a,0.0058,1,189,0,2,11,35,8,1,0,0,1,0,0,0,0,1,hexagon,star,,,,,,,,,,,,,,,,,,,,,,,,,,,,,,,,,,,,,,,,,,,,,,,,,,,,,,
298348,2022-12-06_15h23.46.732,vts_reward_expectancy_bt,2022.2.4,Win32,17.99305468,Chrome,1920,1080,,,a,0.6172,10,199,1,0,0,0,9,1,0,0,0,1,1,0,0,0,star,triangle,,,,,,,,,,,,,,,,,,,,,,,,,,,,,,,,,,,,,,,,,,,,,,,,,,,,,,
298348,2022-12-06_15h23.46.732,vts_reward_expectancy_bt,2022.2.4,Win32,17.99305468,Chrome,1920,1080,,,a,0.0626,1,200,1,0,1,1,11,1,0,0,0,1,0,0,1,0,star,hexagon,,,,,,,,,,,,,,,,,,,,,,,,,,,,,,,,,,,,,,,,,,,,,,,,,,,,,,
298348,2022-12-06_15h23.46.732,vts_reward_expectancy_bt,2022.2.4,Win32,17.99305468,Chrome,1920,1080,,,l,0.0629,1,201,1,0,2,2,0,1,1,0,0,0,0,1,0,0,triangle,circle,,,,,,,,,,,,,,,,,,,,,,,,,,,,,,,,,,,,,,,,,,,,,,,,,,,,,,
298348,2022-12-06_15h23.46.732,vts_reward_expectancy_bt,2022.2.4,Win32,17.99305468,Chrome,1920,1080,,,l,0.0639,1,202,1,0,3,3,3,1,0,1,0,0,1,0,0,0,circle,triangle,,,,,,,,,,,,,,,,,,,,,,,,,,,,,,,,,,,,,,,,,,,,,,,,,,,,,,
298348,2022-12-06_15h23.46.732,vts_reward_expectancy_bt,2022.2.4,Win32,17.99305468,Chrome,1920,1080,,,l,0.0066,10,212,1,0,4,4,6,1,0,0,1,0,1,0,0,0,hexagon,triangle,,,,,,,,,,,,,,,,,,,,,,,,,,,,,,,,,,,,,,,,,,,,,,,,,,,,,,
298348,2022-12-06_15h23.46.732,vts_reward_expectancy_bt,2022.2.4,Win32,17.99305468,Chrome,1920,1080,,,l,0.2228,1,213,1,0,5,5,7,1,0,0,1,0,0,1,0,0,hexagon,circle,,,,,,,,,,,,,,,,,,,,,,,,,,,,,,,,,,,,,,,,,,,,,,,,,,,,,,
298348,2022-12-06_15h23.46.732,vts_reward_expectancy_bt,2022.2.4,Win32,17.99305468,Chrome,1920,1080,,,l,0.1715,1,214,1,0,6,6,1,1,1,0,0,0,0,0,1,0,triangle,hexagon,,,,,,,,,,,,,,,,,,,,,,,,,,,,,,,,,,,,,,,,,,,,,,,,,,,,,,
298348,2022-12-06_15h23.46.732,vts_reward_expectancy_bt,2022.2.4,Win32,17.99305468,Chrome,1920,1080,,,l,0.2263,10,224,1,0,7,7,4,1,0,1,0,0,0,0,1,0,circle,hexagon,,,,,,,,,,,,,,,,,,,,,,,,,,,,,,,,,,,,,,,,,,,,,,,,,,,,,,
298348,2022-12-06_15h23.46.732,vts_reward_expectancy_bt,2022.2.4,Win32,17.99305468,Chrome,1920,1080,,,l,0.1237,10,234,1,0,8,8,8,1,0,0,1,0,0,0,0,1,hexagon,star,,,,,,,,,,,,,,,,,,,,,,,,,,,,,,,,,,,,,,,,,,,,,,,,,,,,,,
298348,2022-12-06_15h23.46.732,vts_reward_expectancy_bt,2022.2.4,Win32,17.99305468,Chrome,1920,1080,,,l,0.0063,1,235,1,0,9,9,2,1,1,0,0,0,0,0,0,1,triangle,star,,,,,,,,,,,,,,,,,,,,,,,,,,,,,,,,,,,,,,,,,,,,,,,,,,,,,,
298348,2022-12-06_15h23.46.732,vts_reward_expectancy_bt,2022.2.4,Win32,17.99305468,Chrome,1920,1080,,,l,0.066,1,236,1,0,10,10,5,1,0,1,0,0,0,0,0,1,circle,star,,,,,,,,,,,,,,,,,,,,,,,,,,,,,,,,,,,,,,,,,,,,,,,,,,,,,,
298348,2022-12-06_15h23.46.732,vts_reward_expectancy_bt,2022.2.4,Win32,17.99305468,Chrome,1920,1080,,,l,0.0662,10,246,1,0,11,11,10,1,0,0,0,1,0,1,0,0,star ,circle,,,,,,,,,,,,,,,,,,,,,,,,,,,,,,,,,,,,,,,,,,,,,,,,,,,,,,
298348,2022-12-06_15h23.46.732,vts_reward_expectancy_bt,2022.2.4,Win32,17.99305468,Chrome,1920,1080,,,l,0.0061,10,256,1,1,0,12,2,1,1,0,0,0,0,0,0,1,triangle,star,,,,,,,,,,,,,,,,,,,,,,,,,,,,,,,,,,,,,,,,,,,,,,,,,,,,,,
298348,2022-12-06_15h23.46.732,vts_reward_expectancy_bt,2022.2.4,Win32,17.99305468,Chrome,1920,1080,,,l,0.063,10,266,1,1,1,13,0,1,1,0,0,0,0,1,0,0,triangle,circle,,,,,,,,,,,,,,,,,,,,,,,,,,,,,,,,,,,,,,,,,,,,,,,,,,,,,,
298348,2022-12-06_15h23.46.732,vts_reward_expectancy_bt,2022.2.4,Win32,17.99305468,Chrome,1920,1080,,,l,0.1237,1,267,1,1,2,14,10,1,0,0,0,1,0,1,0,0,star ,circle,,,,,,,,,,,,,,,,,,,,,,,,,,,,,,,,,,,,,,,,,,,,,,,,,,,,,,
298348,2022-12-06_15h23.46.732,vts_reward_expectancy_bt,2022.2.4,Win32,17.99305468,Chrome,1920,1080,,,l,0.0051,10,277,1,1,3,15,3,1,0,1,0,0,1,0,0,0,circle,triangle,,,,,,,,,,,,,,,,,,,,,,,,,,,,,,,,,,,,,,,,,,,,,,,,,,,,,,
298348,2022-12-06_15h23.46.732,vts_reward_expectancy_bt,2022.2.4,Win32,17.99305468,Chrome,1920,1080,,,l,0.0049,1,278,1,1,4,16,7,1,0,0,1,0,0,1,0,0,hexagon,circle,,,,,,,,,,,,,,,,,,,,,,,,,,,,,,,,,,,,,,,,,,,,,,,,,,,,,,
298348,2022-12-06_15h23.46.732,vts_reward_expectancy_bt,2022.2.4,Win32,17.99305468,Chrome,1920,1080,,,l,0.1847,10,288,1,1,5,17,6,1,0,0,1,0,1,0,0,0,hexagon,triangle,,,,,,,,,,,,,,,,,,,,,,,,,,,,,,,,,,,,,,,,,,,,,,,,,,,,,,
298348,2022-12-06_15h23.46.732,vts_reward_expectancy_bt,2022.2.4,Win32,17.99305468,Chrome,1920,1080,,,l,0.1732,1,289,1,1,6,18,11,1,0,0,0,1,0,0,1,0,star,hexagon,,,,,,,,,,,,,,,,,,,,,,,,,,,,,,,,,,,,,,,,,,,,,,,,,,,,,,
298348,2022-12-06_15h23.46.732,vts_reward_expectancy_bt,2022.2.4,Win32,17.99305468,Chrome,1920,1080,,,l,0.2386,10,299,1,1,7,19,9,1,0,0,0,1,1,0,0,0,star,triangle,,,,,,,,,,,,,,,,,,,,,,,,,,,,,,,,,,,,,,,,,,,,,,,,,,,,,,
298348,2022-12-06_15h23.46.732,vts_reward_expectancy_bt,2022.2.4,Win32,17.99305468,Chrome,1920,1080,,,l,0.2343,10,309,1,1,8,20,4,1,0,1,0,0,0,0,1,0,circle,hexagon,,,,,,,,,,,,,,,,,,,,,,,,,,,,,,,,,,,,,,,,,,,,,,,,,,,,,,
298348,2022-12-06_15h23.46.732,vts_reward_expectancy_bt,2022.2.4,Win32,17.99305468,Chrome,1920,1080,,,l,0.2315,1,310,1,1,9,21,1,1,1,0,0,0,0,0,1,0,triangle,hexagon,,,,,,,,,,,,,,,,,,,,,,,,,,,,,,,,,,,,,,,,,,,,,,,,,,,,,,
298348,2022-12-06_15h23.46.732,vts_reward_expectancy_bt,2022.2.4,Win32,17.99305468,Chrome,1920,1080,,,l,0.1663,10,320,1,1,10,22,8,1,0,0,1,0,0,0,0,1,hexagon,star,,,,,,,,,,,,,,,,,,,,,,,,,,,,,,,,,,,,,,,,,,,,,,,,,,,,,,
298348,2022-12-06_15h23.46.732,vts_reward_expectancy_bt,2022.2.4,Win32,17.99305468,Chrome,1920,1080,,,l,0.1167,10,330,1,1,11,23,5,1,0,1,0,0,0,0,0,1,circle,star,,,,,,,,,,,,,,,,,,,,,,,,,,,,,,,,,,,,,,,,,,,,,,,,,,,,,,
298348,2022-12-06_15h23.46.732,vts_reward_expectancy_bt,2022.2.4,Win32,17.99305468,Chrome,1920,1080,,,l,0.1744,10,340,1,2,0,24,8,1,0,0,1,0,0,0,0,1,hexagon,star,,,,,,,,,,,,,,,,,,,,,,,,,,,,,,,,,,,,,,,,,,,,,,,,,,,,,,
298348,2022-12-06_15h23.46.732,vts_reward_expectancy_bt,2022.2.4,Win32,17.99305468,Chrome,1920,1080,,,l,0.1805,1,341,1,2,1,25,7,1,0,0,1,0,0,1,0,0,hexagon,circle,,,,,,,,,,,,,,,,,,,,,,,,,,,,,,,,,,,,,,,,,,,,,,,,,,,,,,
298348,2022-12-06_15h23.46.732,vts_reward_expectancy_bt,2022.2.4,Win32,17.99305468,Chrome,1920,1080,,,l,0.1851,10,351,1,2,2,26,3,1,0,1,0,0,1,0,0,0,circle,triangle,,,,,,,,,,,,,,,,,,,,,,,,,,,,,,,,,,,,,,,,,,,,,,,,,,,,,,
298348,2022-12-06_15h23.46.732,vts_reward_expectancy_bt,2022.2.4,Win32,17.99305468,Chrome,1920,1080,,,l,1.0477,10,361,1,2,3,27,10,1,0,0,0,1,0,1,0,0,star ,circle,,,,,,,,,,,,,,,,,,,,,,,,,,,,,,,,,,,,,,,,,,,,,,,,,,,,,,
298348,2022-12-06_15h23.46.732,vts_reward_expectancy_bt,2022.2.4,Win32,17.99305468,Chrome,1920,1080,,,l,4.9071,1,362,1,2,4,28,1,1,1,0,0,0,0,0,1,0,triangle,hexagon,,,,,,,,,,,,,,,,,,,,,,,,,,,,,,,,,,,,,,,,,,,,,,,,,,,,,,
298348,2022-12-06_15h23.46.732,vts_reward_expectancy_bt,2022.2.4,Win32,17.99305468,Chrome,1920,1080,,,l,0.0601,1,363,1,2,5,29,9,1,0,0,0,1,1,0,0,0,star,triangle,,,,,,,,,,,,,,,,,,,,,,,,,,,,,,,,,,,,,,,,,,,,,,,,,,,,,,
298348,2022-12-06_15h23.46.732,vts_reward_expectancy_bt,2022.2.4,Win32,17.99305468,Chrome,1920,1080,,,l,0.235,10,373,1,2,6,30,6,1,0,0,1,0,1,0,0,0,hexagon,triangle,,,,,,,,,,,,,,,,,,,,,,,,,,,,,,,,,,,,,,,,,,,,,,,,,,,,,,
298348,2022-12-06_15h23.46.732,vts_reward_expectancy_bt,2022.2.4,Win32,17.99305468,Chrome,1920,1080,,,l,0.0616,1,374,1,2,7,31,4,1,0,1,0,0,0,0,1,0,circle,hexagon,,,,,,,,,,,,,,,,,,,,,,,,,,,,,,,,,,,,,,,,,,,,,,,,,,,,,,
298348,2022-12-06_15h23.46.732,vts_reward_expectancy_bt,2022.2.4,Win32,17.99305468,Chrome,1920,1080,,,l,0.006,1,375,1,2,8,32,11,1,0,0,0,1,0,0,1,0,star,hexagon,,,,,,,,,,,,,,,,,,,,,,,,,,,,,,,,,,,,,,,,,,,,,,,,,,,,,,
298348,2022-12-06_15h23.46.732,vts_reward_expectancy_bt,2022.2.4,Win32,17.99305468,Chrome,1920,1080,,,l,0.0068,1,376,1,2,9,33,0,1,1,0,0,0,0,1,0,0,triangle,circle,,,,,,,,,,,,,,,,,,,,,,,,,,,,,,,,,,,,,,,,,,,,,,,,,,,,,,
298348,2022-12-06_15h23.46.732,vts_reward_expectancy_bt,2022.2.4,Win32,17.99305468,Chrome,1920,1080,,,l,0.063,10,386,1,2,10,34,5,1,0,1,0,0,0,0,0,1,circle,star,,,,,,,,,,,,,,,,,,,,,,,,,,,,,,,,,,,,,,,,,,,,,,,,,,,,,,
298348,2022-12-06_15h23.46.732,vts_reward_expectancy_bt,2022.2.4,Win32,17.99305468,Chrome,1920,1080,,,l,0.0062,1,387,1,2,11,35,2,1,1,0,0,0,0,0,0,1,triangle,star,,,,,,,,,,,,,,,,,,,,,,,,,,,,,,,,,,,,,,,,,,,,,,,,,,,,,,
298348,2022-12-06_15h23.46.732,vts_reward_expectancy_bt,2022.2.4,Win32,17.99305468,Chrome,1920,1080,,,a,1.1084,1,388,2,0,0,0,11,1,0,0,0,1,0,0,1,0,star,hexagon,,,,,,,,,,,,,,,,,,,,,,,,,,,,,,,,,,,,,,,,,,,,,,,,,,,,,,
298348,2022-12-06_15h23.46.732,vts_reward_expectancy_bt,2022.2.4,Win32,17.99305468,Chrome,1920,1080,,,l,0.115,10,398,2,0,1,1,10,1,0,0,0,1,0,1,0,0,star ,circle,,,,,,,,,,,,,,,,,,,,,,,,,,,,,,,,,,,,,,,,,,,,,,,,,,,,,,
298348,2022-12-06_15h23.46.732,vts_reward_expectancy_bt,2022.2.4,Win32,17.99305468,Chrome,1920,1080,,,l,0.0063,1,399,2,0,2,2,5,1,0,1,0,0,0,0,0,1,circle,star,,,,,,,,,,,,,,,,,,,,,,,,,,,,,,,,,,,,,,,,,,,,,,,,,,,,,,
298348,2022-12-06_15h23.46.732,vts_reward_expectancy_bt,2022.2.4,Win32,17.99305468,Chrome,1920,1080,,,l,0.0627,10,409,2,0,3,3,2,1,1,0,0,0,0,0,0,1,triangle,star,,,,,,,,,,,,,,,,,,,,,,,,,,,,,,,,,,,,,,,,,,,,,,,,,,,,,,
298348,2022-12-06_15h23.46.732,vts_reward_expectancy_bt,2022.2.4,Win32,17.99305468,Chrome,1920,1080,,,l,0.136,1,410,2,0,4,4,4,1,0,1,0,0,0,0,1,0,circle,hexagon,,,,,,,,,,,,,,,,,,,,,,,,,,,,,,,,,,,,,,,,,,,,,,,,,,,,,,
298348,2022-12-06_15h23.46.732,vts_reward_expectancy_bt,2022.2.4,Win32,17.99305468,Chrome,1920,1080,,,l,0.1729,1,411,2,0,5,5,9,1,0,0,0,1,1,0,0,0,star,triangle,,,,,,,,,,,,,,,,,,,,,,,,,,,,,,,,,,,,,,,,,,,,,,,,,,,,,,
298348,2022-12-06_15h23.46.732,vts_reward_expectancy_bt,2022.2.4,Win32,17.99305468,Chrome,1920,1080,,,l,31.8015,10,421,2,0,6,6,1,1,1,0,0,0,0,0,1,0,triangle,hexagon,,,,,,,,,,,,,,,,,,,,,,,,,,,,,,,,,,,,,,,,,,,,,,,,,,,,,,
298348,2022-12-06_15h23.46.732,vts_reward_expectancy_bt,2022.2.4,Win32,17.99305468,Chrome,1920,1080,,,l,0.2291,10,431,2,0,7,7,3,1,0,1,0,0,1,0,0,0,circle,triangle,,,,,,,,,,,,,,,,,,,,,,,,,,,,,,,,,,,,,,,,,,,,,,,,,,,,,,
298348,2022-12-06_15h23.46.732,vts_reward_expectancy_bt,2022.2.4,Win32,17.99305468,Chrome,1920,1080,,,l,0.2264,1,432,2,0,8,8,8,1,0,0,1,0,0,0,0,1,hexagon,star,,,,,,,,,,,,,,,,,,,,,,,,,,,,,,,,,,,,,,,,,,,,,,,,,,,,,,
298348,2022-12-06_15h23.46.732,vts_reward_expectancy_bt,2022.2.4,Win32,17.99305468,Chrome,1920,1080,,,l,0.1165,10,442,2,0,9,9,6,1,0,0,1,0,1,0,0,0,hexagon,triangle,,,,,,,,,,,,,,,,,,,,,,,,,,,,,,,,,,,,,,,,,,,,,,,,,,,,,,
298348,2022-12-06_15h23.46.732,vts_reward_expectancy_bt,2022.2.4,Win32,17.99305468,Chrome,1920,1080,,,l,0.1821,10,452,2,0,10,10,7,1,0,0,1,0,0,1,0,0,hexagon,circle,,,,,,,,,,,,,,,,,,,,,,,,,,,,,,,,,,,,,,,,,,,,,,,,,,,,,,
298348,2022-12-06_15h23.46.732,vts_reward_expectancy_bt,2022.2.4,Win32,17.99305468,Chrome,1920,1080,,,l,0.0681,10,462,2,0,11,11,0,1,1,0,0,0,0,1,0,0,triangle,circle,,,,,,,,,,,,,,,,,,,,,,,,,,,,,,,,,,,,,,,,,,,,,,,,,,,,,,
298348,2022-12-06_15h23.46.732,vts_reward_expectancy_bt,2022.2.4,Win32,17.99305468,Chrome,1920,1080,,,l,0.0595,10,472,2,1,0,12,2,1,1,0,0,0,0,0,0,1,triangle,star,,,,,,,,,,,,,,,,,,,,,,,,,,,,,,,,,,,,,,,,,,,,,,,,,,,,,,
298348,2022-12-06_15h23.46.732,vts_reward_expectancy_bt,2022.2.4,Win32,17.99305468,Chrome,1920,1080,,,l,2.5504,10,482,2,1,1,13,8,1,0,0,1,0,0,0,0,1,hexagon,star,,,,,,,,,,,,,,,,,,,,,,,,,,,,,,,,,,,,,,,,,,,,,,,,,,,,,,
298348,2022-12-06_15h23.46.732,vts_reward_expectancy_bt,2022.2.4,Win32,17.99305468,Chrome,1920,1080,,,l,0.1934,10,492,2,1,2,14,4,1,0,1,0,0,0,0,1,0,circle,hexagon,,,,,,,,,,,,,,,,,,,,,,,,,,,,,,,,,,,,,,,,,,,,,,,,,,,,,,
298348,2022-12-06_15h23.46.732,vts_reward_expectancy_bt,2022.2.4,Win32,17.99305468,Chrome,1920,1080,,,l,0.1222,1,493,2,1,3,15,0,1,1,0,0,0,0,1,0,0,triangle,circle,,,,,,,,,,,,,,,,,,,,,,,,,,,,,,,,,,,,,,,,,,,,,,,,,,,,,,
298348,2022-12-06_15h23.46.732,vts_reward_expectancy_bt,2022.2.4,Win32,17.99305468,Chrome,1920,1080,,,l,0.0656,10,503,2,1,4,16,5,1,0,1,0,0,0,0,0,1,circle,star,,,,,,,,,,,,,,,,,,,,,,,,,,,,,,,,,,,,,,,,,,,,,,,,,,,,,,
298348,2022-12-06_15h23.46.732,vts_reward_expectancy_bt,2022.2.4,Win32,17.99305468,Chrome,1920,1080,,,l,0.0605,10,513,2,1,5,17,11,1,0,0,0,1,0,0,1,0,star,hexagon,,,,,,,,,,,,,,,,,,,,,,,,,,,,,,,,,,,,,,,,,,,,,,,,,,,,,,
298348,2022-12-06_15h23.46.732,vts_reward_expectancy_bt,2022.2.4,Win32,17.99305468,Chrome,1920,1080,,,l,0.0636,10,523,2,1,6,18,1,1,1,0,0,0,0,0,1,0,triangle,hexagon,,,,,,,,,,,,,,,,,,,,,,,,,,,,,,,,,,,,,,,,,,,,,,,,,,,,,,
298348,2022-12-06_15h23.46.732,vts_reward_expectancy_bt,2022.2.4,Win32,17.99305468,Chrome,1920,1080,,,l,0.1714,1,524,2,1,7,19,6,1,0,0,1,0,1,0,0,0,hexagon,triangle,,,,,,,,,,,,,,,,,,,,,,,,,,,,,,,,,,,,,,,,,,,,,,,,,,,,,,
298348,2022-12-06_15h23.46.732,vts_reward_expectancy_bt,2022.2.4,Win32,17.99305468,Chrome,1920,1080,,,l,0.1105,1,525,2,1,8,20,9,1,0,0,0,1,1,0,0,0,star,triangle,,,,,,,,,,,,,,,,,,,,,,,,,,,,,,,,,,,,,,,,,,,,,,,,,,,,,,
298348,2022-12-06_15h23.46.732,vts_reward_expectancy_bt,2022.2.4,Win32,17.99305468,Chrome,1920,1080,,,l,0.0589,10,535,2,1,9,21,7,1,0,0,1,0,0,1,0,0,hexagon,circle,,,,,,,,,,,,,,,,,,,,,,,,,,,,,,,,,,,,,,,,,,,,,,,,,,,,,,
298348,2022-12-06_15h23.46.732,vts_reward_expectancy_bt,2022.2.4,Win32,17.99305468,Chrome,1920,1080,,,l,0.1124,1,536,2,1,10,22,3,1,0,1,0,0,1,0,0,0,circle,triangle,,,,,,,,,,,,,,,,,,,,,,,,,,,,,,,,,,,,,,,,,,,,,,,,,,,,,,
298348,2022-12-06_15h23.46.732,vts_reward_expectancy_bt,2022.2.4,Win32,17.99305468,Chrome,1920,1080,,,l,0.1721,10,546,2,1,11,23,10,1,0,0,0,1,0,1,0,0,star ,circle,,,,,,,,,,,,,,,,,,,,,,,,,,,,,,,,,,,,,,,,,,,,,,,,,,,,,,
298348,2022-12-06_15h23.46.732,vts_reward_expectancy_bt,2022.2.4,Win32,17.99305468,Chrome,1920,1080,,,l,0.0605,10,556,2,2,0,24,7,1,0,0,1,0,0,1,0,0,hexagon,circle,,,,,,,,,,,,,,,,,,,,,,,,,,,,,,,,,,,,,,,,,,,,,,,,,,,,,,
298348,2022-12-06_15h23.46.732,vts_reward_expectancy_bt,2022.2.4,Win32,17.99305468,Chrome,1920,1080,,,l,0.1158,10,566,2,2,1,25,2,1,1,0,0,0,0,0,0,1,triangle,star,,,,,,,,,,,,,,,,,,,,,,,,,,,,,,,,,,,,,,,,,,,,,,,,,,,,,,
298348,2022-12-06_15h23.46.732,vts_reward_expectancy_bt,2022.2.4,Win32,17.99305468,Chrome,1920,1080,,,l,0.1155,1,567,2,2,2,26,6,1,0,0,1,0,1,0,0,0,hexagon,triangle,,,,,,,,,,,,,,,,,,,,,,,,,,,,,,,,,,,,,,,,,,,,,,,,,,,,,,
298348,2022-12-06_15h23.46.732,vts_reward_expectancy_bt,2022.2.4,Win32,17.99305468,Chrome,1920,1080,,,l,0.1111,1,568,2,2,3,27,9,1,0,0,0,1,1,0,0,0,star,triangle,,,,,,,,,,,,,,,,,,,,,,,,,,,,,,,,,,,,,,,,,,,,,,,,,,,,,,
298348,2022-12-06_15h23.46.732,vts_reward_expectancy_bt,2022.2.4,Win32,17.99305468,Chrome,1920,1080,,,l,0.064,10,578,2,2,4,28,5,1,0,1,0,0,0,0,0,1,circle,star,,,,,,,,,,,,,,,,,,,,,,,,,,,,,,,,,,,,,,,,,,,,,,,,,,,,,,
298348,2022-12-06_15h23.46.732,vts_reward_expectancy_bt,2022.2.4,Win32,17.99305468,Chrome,1920,1080,,,l,0.0599,1,579,2,2,5,29,11,1,0,0,0,1,0,0,1,0,star,hexagon,,,,,,,,,,,,,,,,,,,,,,,,,,,,,,,,,,,,,,,,,,,,,,,,,,,,,,
298348,2022-12-06_15h23.46.732,vts_reward_expectancy_bt,2022.2.4,Win32,17.99305468,Chrome,1920,1080,,,l,0.0592,10,589,2,2,6,30,1,1,1,0,0,0,0,0,1,0,triangle,hexagon,,,,,,,,,,,,,,,,,,,,,,,,,,,,,,,,,,,,,,,,,,,,,,,,,,,,,,
298348,2022-12-06_15h23.46.732,vts_reward_expectancy_bt,2022.2.4,Win32,17.99305468,Chrome,1920,1080,,,l,0.1157,10,599,2,2,7,31,10,1,0,0,0,1,0,1,0,0,star ,circle,,,,,,,,,,,,,,,,,,,,,,,,,,,,,,,,,,,,,,,,,,,,,,,,,,,,,,
298348,2022-12-06_15h23.46.732,vts_reward_expectancy_bt,2022.2.4,Win32,17.99305468,Chrome,1920,1080,,,l,0.1804,1,600,2,2,8,32,4,1,0,1,0,0,0,0,1,0,circle,hexagon,,,,,,,,,,,,,,,,,,,,,,,,,,,,,,,,,,,,,,,,,,,,,,,,,,,,,,
298348,2022-12-06_15h23.46.732,vts_reward_expectancy_bt,2022.2.4,Win32,17.99305468,Chrome,1920,1080,,,l,0.0608,1,601,2,2,9,33,3,1,0,1,0,0,1,0,0,0,circle,triangle,,,,,,,,,,,,,,,,,,,,,,,,,,,,,,,,,,,,,,,,,,,,,,,,,,,,,,
298348,2022-12-06_15h23.46.732,vts_reward_expectancy_bt,2022.2.4,Win32,17.99305468,Chrome,1920,1080,,,l,0.1686,1,602,2,2,10,34,0,1,1,0,0,0,0,1,0,0,triangle,circle,,,,,,,,,,,,,,,,,,,,,,,,,,,,,,,,,,,,,,,,,,,,,,,,,,,,,,
298348,2022-12-06_15h23.46.732,vts_reward_expectancy_bt,2022.2.4,Win32,17.99305468,Chrome,1920,1080,,,l,0.1151,10,612,2,2,11,35,8,1,0,0,1,0,0,0,0,1,hexagon,star,,,,,,,,,,,,,,,,,,,,,,,,,,,,,,,,,,,,,,,,,,,,,,,,,,,,,,
298348,2022-12-06_15h23.46.732,vts_reward_expectancy_bt,2022.2.4,Win32,17.99305468,Chrome,1920,1080,,,,,,,,,,,,,,,,,,,,,,,F,174,star,1,0,d,0.2693,0,0,0,0,0,1,,,,,,,,,,,,,,,,,,,,,,,,,,,,,,,,,,,,,,,,,
298348,2022-12-06_15h23.46.732,vts_reward_expectancy_bt,2022.2.4,Win32,17.99305468,Chrome,1920,1080,,,,,,,,,,,,,,,,,,,,,,,Y,146,triangle,1,0,f,0.8783,0,1,0,1,0,1,,,,,,,,,,,,,,,,,,,,,,,,,,,,,,,,,,,,,,,,,
298348,2022-12-06_15h23.46.732,vts_reward_expectancy_bt,2022.2.4,Win32,17.99305468,Chrome,1920,1080,,,,,,,,,,,,,,,,,,,,,,,U,181,hexagon,1,0,f,0.6628,0,2,0,2,0,1,,,,,,,,,,,,,,,,,,,,,,,,,,,,,,,,,,,,,,,,,
298348,2022-12-06_15h23.46.732,vts_reward_expectancy_bt,2022.2.4,Win32,17.99305468,Chrome,1920,1080,,,,,,,,,,,,,,,,,,,,,,,S,139,circle,0,0,d,0.4406,0,3,0,3,0,1,,,,,,,,,,,,,,,,,,,,,,,,,,,,,,,,,,,,,,,,,
298348,2022-12-06_15h23.46.732,vts_reward_expectancy_bt,2022.2.4,Win32,17.99305468,Chrome,1920,1080,,,,,,,,,,,,,,,,,,,,,,,D,125,star,1,1,d,0.3908,0,4,0,4,0,1,,,,,,,,,,,,,,,,,,,,,,,,,,,,,,,,,,,,,,,,,
298348,2022-12-06_15h23.46.732,vts_reward_expectancy_bt,2022.2.4,Win32,17.99305468,Chrome,1920,1080,,,,,,,,,,,,,,,,,,,,,,,H,167,triangle,0,0,f,0.2905,0,5,0,5,0,1,,,,,,,,,,,,,,,,,,,,,,,,,,,,,,,,,,,,,,,,,
298348,2022-12-06_15h23.46.732,vts_reward_expectancy_bt,2022.2.4,Win32,17.99305468,Chrome,1920,1080,,,,,,,,,,,,,,,,,,,,,,,B,160,hexagon,1,1,d,0.1112,0,6,0,6,0,1,,,,,,,,,,,,,,,,,,,,,,,,,,,,,,,,,,,,,,,,,
298348,2022-12-06_15h23.46.732,vts_reward_expectancy_bt,2022.2.4,Win32,17.99305468,Chrome,1920,1080,,,,,,,,,,,,,,,,,,,,,,,W,132,circle,0,0,d,0.1625,0,7,0,7,0,1,,,,,,,,,,,,,,,,,,,,,,,,,,,,,,,,,,,,,,,,,
298348,2022-12-06_15h23.46.732,vts_reward_expectancy_bt,2022.2.4,Win32,17.99305468,Chrome,1920,1080,,,,,,,,,,,,,,,,,,,,,,,F,174,hexagon,0,1,f,0.1182,0,8,0,8,0,1,,,,,,,,,,,,,,,,,,,,,,,,,,,,,,,,,,,,,,,,,
298348,2022-12-06_15h23.46.732,vts_reward_expectancy_bt,2022.2.4,Win32,17.99305468,Chrome,1920,1080,,,,,,,,,,,,,,,,,,,,,,,Y,146,triangle,1,1,f,0.1659,0,9,0,9,0,1,,,,,,,,,,,,,,,,,,,,,,,,,,,,,,,,,,,,,,,,,
298348,2022-12-06_15h23.46.732,vts_reward_expectancy_bt,2022.2.4,Win32,17.99305468,Chrome,1920,1080,,,,,,,,,,,,,,,,,,,,,,,H,160,star,0,0,f,0.8217,1,0,0,0,0,1,,,,,,,,,,,,,,,,,,,,,,,,,,,,,,,,,,,,,,,,,
298348,2022-12-06_15h23.46.732,vts_reward_expectancy_bt,2022.2.4,Win32,17.99305468,Chrome,1920,1080,,,,,,,,,,,,,,,,,,,,,,,F,139,circle,1,1,d,2.1318,1,1,0,1,0,1,,,,,,,,,,,,,,,,,,,,,,,,,,,,,,,,,,,,,,,,,
298348,2022-12-06_15h23.46.732,vts_reward_expectancy_bt,2022.2.4,Win32,17.99305468,Chrome,1920,1080,,,,,,,,,,,,,,,,,,,,,,,D,146,hexagon,1,0,d,0.7518,1,2,0,2,0,1,,,,,,,,,,,,,,,,,,,,,,,,,,,,,,,,,,,,,,,,,
298348,2022-12-06_15h23.46.732,vts_reward_expectancy_bt,2022.2.4,Win32,17.99305468,Chrome,1920,1080,,,,,,,,,,,,,,,,,,,,,,,Y,132,triangle,0,0,,,1,3,0,3,0,1,,,,,,,,,,,,,,,,,,,,,,,,,,,,,,,,,,,,,,,,,
298348,2022-12-06_15h23.46.732,vts_reward_expectancy_bt,2022.2.4,Win32,17.99305468,Chrome,1920,1080,,,,,,,,,,,,,,,,,,,,,,,W,181,star,1,1,f,0.7877,1,4,0,4,0,1,,,,,,,,,,,,,,,,,,,,,,,,,,,,,,,,,,,,,,,,,
298348,2022-12-06_15h23.46.732,vts_reward_expectancy_bt,2022.2.4,Win32,17.99305468,Chrome,1920,1080,,,,,,,,,,,,,,,,,,,,,,,U,174,circle,1,0,f,0.6617,1,5,0,5,0,1,,,,,,,,,,,,,,,,,,,,,,,,,,,,,,,,,,,,,,,,,
298348,2022-12-06_15h23.46.732,vts_reward_expectancy_bt,2022.2.4,Win32,17.99305468,Chrome,1920,1080,,,,,,,,,,,,,,,,,,,,,,,B,125,hexagon,1,0,d,0.5026,1,6,0,6,0,1,,,,,,,,,,,,,,,,,,,,,,,,,,,,,,,,,,,,,,,,,
298348,2022-12-06_15h23.46.732,vts_reward_expectancy_bt,2022.2.4,Win32,17.99305468,Chrome,1920,1080,,,,,,,,,,,,,,,,,,,,,,,S,167,triangle,1,0,f,0.6268,1,7,0,7,0,1,,,,,,,,,,,,,,,,,,,,,,,,,,,,,,,,,,,,,,,,,
298348,2022-12-06_15h23.46.732,vts_reward_expectancy_bt,2022.2.4,Win32,17.99305468,Chrome,1920,1080,,,,,,,,,,,,,,,,,,,,,,,H,160,triangle,0,0,f,0.7278,1,8,0,8,0,1,,,,,,,,,,,,,,,,,,,,,,,,,,,,,,,,,,,,,,,,,
298348,2022-12-06_15h23.46.732,vts_reward_expectancy_bt,2022.2.4,Win32,17.99305468,Chrome,1920,1080,,,,,,,,,,,,,,,,,,,,,,,F,139,circle,0,1,f,0.6685,1,9,0,9,0,1,,,,,,,,,,,,,,,,,,,,,,,,,,,,,,,,,,,,,,,,,
298348,2022-12-06_15h23.46.732,vts_reward_expectancy_bt,2022.2.4,Win32,17.99305468,Chrome,1920,1080,,,,,,,,,,,,,,,,,,,,,,,D,125,hexagon,1,1,d,0.8265,2,0,0,0,0,1,,,,,,,,,,,,,,,,,,,,,,,,,,,,,,,,,,,,,,,,,
298348,2022-12-06_15h23.46.732,vts_reward_expectancy_bt,2022.2.4,Win32,17.99305468,Chrome,1920,1080,,,,,,,,,,,,,,,,,,,,,,,B,139,circle,1,0,d,0.63,2,1,0,1,0,1,,,,,,,,,,,,,,,,,,,,,,,,,,,,,,,,,,,,,,,,,
298348,2022-12-06_15h23.46.732,vts_reward_expectancy_bt,2022.2.4,Win32,17.99305468,Chrome,1920,1080,,,,,,,,,,,,,,,,,,,,,,,H,167,triangle,1,0,d,2.0731,2,2,0,2,0,1,,,,,,,,,,,,,,,,,,,,,,,,,,,,,,,,,,,,,,,,,
298348,2022-12-06_15h23.46.732,vts_reward_expectancy_bt,2022.2.4,Win32,17.99305468,Chrome,1920,1080,,,,,,,,,,,,,,,,,,,,,,,U,174,star,1,0,f,1.1066,2,3,0,3,0,1,,,,,,,,,,,,,,,,,,,,,,,,,,,,,,,,,,,,,,,,,
298348,2022-12-06_15h23.46.732,vts_reward_expectancy_bt,2022.2.4,Win32,17.99305468,Chrome,1920,1080,,,,,,,,,,,,,,,,,,,,,,,W,146,hexagon,1,0,f,1.5119,2,4,0,4,0,1,,,,,,,,,,,,,,,,,,,,,,,,,,,,,,,,,,,,,,,,,
298348,2022-12-06_15h23.46.732,vts_reward_expectancy_bt,2022.2.4,Win32,17.99305468,Chrome,1920,1080,,,,,,,,,,,,,,,,,,,,,,,F,181,circle,1,0,d,1.2139,2,5,0,5,0,1,,,,,,,,,,,,,,,,,,,,,,,,,,,,,,,,,,,,,,,,,
298348,2022-12-06_15h23.46.732,vts_reward_expectancy_bt,2022.2.4,Win32,17.99305468,Chrome,1920,1080,,,,,,,,,,,,,,,,,,,,,,,S,132,triangle,1,0,f,1.0615,2,6,0,6,0,1,,,,,,,,,,,,,,,,,,,,,,,,,,,,,,,,,,,,,,,,,
298348,2022-12-06_15h23.46.732,vts_reward_expectancy_bt,2022.2.4,Win32,17.99305468,Chrome,1920,1080,,,,,,,,,,,,,,,,,,,,,,,Y,160,star,1,0,f,0.9509,2,7,0,7,0,1,,,,,,,,,,,,,,,,,,,,,,,,,,,,,,,,,,,,,,,,,
298348,2022-12-06_15h23.46.732,vts_reward_expectancy_bt,2022.2.4,Win32,17.99305468,Chrome,1920,1080,,,,,,,,,,,,,,,,,,,,,,,D,125,star,1,0,d,0.6909,2,8,0,8,0,1,,,,,,,,,,,,,,,,,,,,,,,,,,,,,,,,,,,,,,,,,
298348,2022-12-06_15h23.46.732,vts_reward_expectancy_bt,2022.2.4,Win32,17.99305468,Chrome,1920,1080,,,,,,,,,,,,,,,,,,,,,,,B,139,hexagon,1,0,d,0.5761,2,9,0,9,0,1,,,,,,,,,,,,,,,,,,,,,,,,,,,,,,,,,,,,,,,,,
298348,2022-12-06_15h23.46.732,vts_reward_expectancy_bt,2022.2.4,Win32,17.99305468,Chrome,1920,1080,,,,,,,,,,,,,,,,,,,,,,,B,132,star,1,0,,,3,,,,,,j,1.9727,0,0,0,0,1,,,,,,,,,,,,,,,,,,,,,,,,,,,,,,,,,,
298348,2022-12-06_15h23.46.732,vts_reward_expectancy_bt,2022.2.4,Win32,17.99305468,Chrome,1920,1080,,,,,,,,,,,,,,,,,,,,,,,H,174,triangle,1,0,,,3,,,,,,k,0.5691,1,0,1,0,1,,,,,,,,,,,,,,,,,,,,,,,,,,,,,,,,,,
298348,2022-12-06_15h23.46.732,vts_reward_expectancy_bt,2022.2.4,Win32,17.99305468,Chrome,1920,1080,,,,,,,,,,,,,,,,,,,,,,,S,146,circle,1,0,,,3,,,,,,j,1.7034,2,0,2,0,1,,,,,,,,,,,,,,,,,,,,,,,,,,,,,,,,,,
298348,2022-12-06_15h23.46.732,vts_reward_expectancy_bt,2022.2.4,Win32,17.99305468,Chrome,1920,1080,,,,,,,,,,,,,,,,,,,,,,,D,167,hexagon,1,0,,,3,,,,,,k,0.6095,3,0,3,0,1,,,,,,,,,,,,,,,,,,,,,,,,,,,,,,,,,,
298348,2022-12-06_15h23.46.732,vts_reward_expectancy_bt,2022.2.4,Win32,17.99305468,Chrome,1920,1080,,,,,,,,,,,,,,,,,,,,,,,Y,139,star,1,0,,,3,,,,,,j,0.5247,4,0,4,0,1,,,,,,,,,,,,,,,,,,,,,,,,,,,,,,,,,,
298348,2022-12-06_15h23.46.732,vts_reward_expectancy_bt,2022.2.4,Win32,17.99305468,Chrome,1920,1080,,,,,,,,,,,,,,,,,,,,,,,U,160,triangle,1,0,,,3,,,,,,k,0.571,5,0,5,0,1,,,,,,,,,,,,,,,,,,,,,,,,,,,,,,,,,,
298348,2022-12-06_15h23.46.732,vts_reward_expectancy_bt,2022.2.4,Win32,17.99305468,Chrome,1920,1080,,,,,,,,,,,,,,,,,,,,,,,W,125,circle,1,0,,,3,,,,,,j,0.6941,6,0,6,0,1,,,,,,,,,,,,,,,,,,,,,,,,,,,,,,,,,,
298348,2022-12-06_15h23.46.732,vts_reward_expectancy_bt,2022.2.4,Win32,17.99305468,Chrome,1920,1080,,,,,,,,,,,,,,,,,,,,,,,F,181,hexagon,1,0,,,3,,,,,,k,0.6123,7,0,7,0,1,,,,,,,,,,,,,,,,,,,,,,,,,,,,,,,,,,
298348,2022-12-06_15h23.46.732,vts_reward_expectancy_bt,2022.2.4,Win32,17.99305468,Chrome,1920,1080,,,,,,,,,,,,,,,,,,,,,,,B,132,star,1,0,,,3,,,,,,j,0.5872,8,0,8,0,1,,,,,,,,,,,,,,,,,,,,,,,,,,,,,,,,,,
298348,2022-12-06_15h23.46.732,vts_reward_expectancy_bt,2022.2.4,Win32,17.99305468,Chrome,1920,1080,,,,,,,,,,,,,,,,,,,,,,,H,174,hexagon,1,0,,,3,,,,,,k,0.6194,9,0,9,0,1,,,,,,,,,,,,,,,,,,,,,,,,,,,,,,,,,,
298348,2022-12-06_15h23.46.732,vts_reward_expectancy_bt,2022.2.4,Win32,17.99305468,Chrome,1920,1080,,,,,0,612,,,,,,,,,,,,,,,,,Y,132,triangle,1,0,,,4,,,,,,,,,,,,,-1,number,NA,j,0.6807,vtsPrac,0,0,0,0,1,,,,,,,,,,,,,,,,,,,,,,,
298348,2022-12-06_15h23.46.732,vts_reward_expectancy_bt,2022.2.4,Win32,17.99305468,Chrome,1920,1080,,,,,0,612,,,,,,,,,,,,,,,,,D,160,star,1,0,,,4,,,,,,,,,,,,,repeat,number,numRpt,k,0.9884,vtsPrac,1,0,1,0,1,,,,,,,,,,,,,,,,,,,,,,,
298348,2022-12-06_15h23.46.732,vts_reward_expectancy_bt,2022.2.4,Win32,17.99305468,Chrome,1920,1080,,,,,0,612,,,,,,,,,,,,,,,,,S,174,triangle,0,0,,,4,,,,,,,,,,,,,switch,letter,NA,d,1.7218,vtsPrac,2,0,2,0,1,,,,,,,,,,,,,,,,,,,,,,,
298348,2022-12-06_15h23.46.732,vts_reward_expectancy_bt,2022.2.4,Win32,17.99305468,Chrome,1920,1080,,,,,0,612,,,,,,,,,,,,,,,,,H,181,star,1,1,,,4,,,,,,,,,,,,,switch,number,numSwt,k,0.4619,vtsPrac,3,0,3,0,1,,,,,,,,,,,,,,,,,,,,,,,
298348,2022-12-06_15h23.46.732,vts_reward_expectancy_bt,2022.2.4,Win32,17.99305468,Chrome,1920,1080,,,,,0,612,,,,,,,,,,,,,,,,,Y,132,star,1,0,,,4,,,,,,,,,,,,,switch,letter,lettSwt,f,1.0802,vtsPrac,4,0,4,0,1,,,,,,,,,,,,,,,,,,,,,,,
298348,2022-12-06_15h23.46.732,vts_reward_expectancy_bt,2022.2.4,Win32,17.99305468,Chrome,1920,1080,,,,,0,612,,,,,,,,,,,,,,,,,D,160,hexagon,1,0,,,4,,,,,,,,,,,,,switch,number,numSwt,k,1.0731,vtsPrac,5,0,5,0,1,,,,,,,,,,,,,,,,,,,,,,,
298348,2022-12-06_15h23.46.732,vts_reward_expectancy_bt,2022.2.4,Win32,17.99305468,Chrome,1920,1080,,,,,0,612,,,,,,,,,,,,,,,,,S,174,circle,1,0,,,4,,,,,,,,,,,,,repeat,number,numRpt,k,0.743,vtsPrac,6,0,6,0,1,,,,,,,,,,,,,,,,,,,,,,,
298348,2022-12-06_15h23.46.732,vts_reward_expectancy_bt,2022.2.4,Win32,17.99305468,Chrome,1920,1080,,,,,0,612,,,,,,,,,,,,,,,,,H,181,star,1,0,,,4,,,,,,,,,,,,,switch,letter,lettSwt,d,2.1736,vtsPrac,7,0,7,0,1,,,,,,,,,,,,,,,,,,,,,,,
298348,2022-12-06_15h23.46.732,vts_reward_expectancy_bt,2022.2.4,Win32,17.99305468,Chrome,1920,1080,,,,,0,612,,,,,,,,,,,,,,,,,U,174,hexagon,1,0,,,4,,,,,,,,,,,,,switch,number,numSwt,k,0.7465,vtsPrac,8,0,8,0,1,,,,,,,,,,,,,,,,,,,,,,,
298348,2022-12-06_15h23.46.732,vts_reward_expectancy_bt,2022.2.4,Win32,17.99305468,Chrome,1920,1080,,,,,0,612,,,,,,,,,,,,,,,,,Y,181,circle,1,0,,,4,,,,,,,,,,,,,switch,letter,lettSwt,f,0.8437,vtsPrac,9,0,9,0,1,,,,,,,,,,,,,,,,,,,,,,,
298348,2022-12-06_15h23.46.732,vts_reward_expectancy_bt,2022.2.4,Win32,17.99305468,Chrome,1920,1080,,,,,0,612,,,,,,,,,,,,,,,,,H,132,star,1,0,,,4,,,,,,,,,,,,,switch,number,numSwt,j,0.7244,vtsPrac,10,0,10,0,1,,,,,,,,,,,,,,,,,,,,,,,
298348,2022-12-06_15h23.46.732,vts_reward_expectancy_bt,2022.2.4,Win32,17.99305468,Chrome,1920,1080,,,,,0,612,,,,,,,,,,,,,,,,,B,139,hexagon,1,0,,,4,,,,,,,,,,,,,switch,letter,lettSwt,d,1.0749,vtsPrac,11,0,11,0,1,,,,,,,,,,,,,,,,,,,,,,,
298348,2022-12-06_15h23.46.732,vts_reward_expectancy_bt,2022.2.4,Win32,17.99305468,Chrome,1920,1080,,,,,0,612,,,,,,,,,,,,,,,,,F,125,star,0,0,,,4,,,,,,,,,,,,,repeat,letter,NA,f,0.9515,vtsPrac,12,0,12,0,1,,,,,,,,,,,,,,,,,,,,,,,
298348,2022-12-06_15h23.46.732,vts_reward_expectancy_bt,2022.2.4,Win32,17.99305468,Chrome,1920,1080,,,,,0,612,,,,,,,,,,,,,,,,,D,146,hexagon,1,1,,,4,,,,,,,,,,,,,repeat,letter,lettRpt,d,1.0072,vtsPrac,13,0,13,0,1,,,,,,,,,,,,,,,,,,,,,,,
298348,2022-12-06_15h23.46.732,vts_reward_expectancy_bt,2022.2.4,Win32,17.99305468,Chrome,1920,1080,,,,,0,612,,,,,,,,,,,,,,,,,H,132,hexagon,1,0,,,4,,,,,,,,,,,,,switch,number,numSwt,j,0.748,vtsPrac,14,0,14,0,1,,,,,,,,,,,,,,,,,,,,,,,
298348,2022-12-06_15h23.46.732,vts_reward_expectancy_bt,2022.2.4,Win32,17.99305468,Chrome,1920,1080,,,,,0,612,,,,,,,,,,,,,,,,,W,160,circle,1,0,,,4,,,,,,,,,,,,,repeat,number,numRpt,k,1.0009,vtsPrac,15,0,15,0,1,,,,,,,,,,,,,,,,,,,,,,,
298348,2022-12-06_15h23.46.732,vts_reward_expectancy_bt,2022.2.4,Win32,17.99305468,Chrome,1920,1080,,,,,0,612,,,,,,,,,,,,,,,,,W,146,triangle,1,0,,,4,,,,,,,,,,,,,repeat,number,numRpt,j,1.6115,vtsPrac,16,0,16,0,1,,,,,,,,,,,,,,,,,,,,,,,
298348,2022-12-06_15h23.46.732,vts_reward_expectancy_bt,2022.2.4,Win32,17.99305468,Chrome,1920,1080,,,,,0,612,,,,,,,,,,,,,,,,,D,139,star,1,0,,,4,,,,,,,,,,,,,repeat,number,numRpt,j,0.8724,vtsPrac,17,0,17,0,1,,,,,,,,,,,,,,,,,,,,,,,
298348,2022-12-06_15h23.46.732,vts_reward_expectancy_bt,2022.2.4,Win32,17.99305468,Chrome,1920,1080,,,,,0,612,,,,,,,,,,,,,,,,,S,167,circle,1,0,,,4,,,,,,,,,,,,,switch,letter,lettSwt,f,1.2458,vtsPrac,18,0,18,0,1,,,,,,,,,,,,,,,,,,,,,,,
298348,2022-12-06_15h23.46.732,vts_reward_expectancy_bt,2022.2.4,Win32,17.99305468,Chrome,1920,1080,,,,,0,612,,,,,,,,,,,,,,,,,U,132,hexagon,1,0,,,4,,,,,,,,,,,,,switch,number,numSwt,j,0.7324,vtsPrac,19,0,19,0,1,,,,,,,,,,,,,,,,,,,,,,,
298348,2022-12-06_15h23.46.732,vts_reward_expectancy_bt,2022.2.4,Win32,17.99305468,Chrome,1920,1080,,,,,0,612,,,,,,,,,,,,,,,,,W,132,star,1,0,,,4,,,,,,,,,,,,,repeat,number,numRpt,j,0.7318,vtsPrac,20,0,20,0,1,,,,,,,,,,,,,,,,,,,,,,,
298348,2022-12-06_15h23.46.732,vts_reward_expectancy_bt,2022.2.4,Win32,17.99305468,Chrome,1920,1080,,,,,0,612,,,,,,,,,,,,,,,,,F,125,circle,1,0,,,4,,,,,,,,,,,,,switch,letter,lettSwt,d,1.7704,vtsPrac,21,0,21,0,1,,,,,,,,,,,,,,,,,,,,,,,
298348,2022-12-06_15h23.46.732,vts_reward_expectancy_bt,2022.2.4,Win32,17.99305468,Chrome,1920,1080,,,,,0,612,,,,,,,,,,,,,,,,,H,160,circle,1,0,,,4,,,,,,,,,,,,,switch,number,numSwt,k,1.0365,vtsPrac,22,0,22,0,1,,,,,,,,,,,,,,,,,,,,,,,
298348,2022-12-06_15h23.46.732,vts_reward_expectancy_bt,2022.2.4,Win32,17.99305468,Chrome,1920,1080,,,,,0,612,,,,,,,,,,,,,,,,,U,181,hexagon,1,0,,,4,,,,,,,,,,,,,switch,letter,lettSwt,f,1.5112,vtsPrac,23,0,23,0,1,,,,,,,,,,,,,,,,,,,,,,,
298348,2022-12-06_15h23.46.732,vts_reward_expectancy_bt,2022.2.4,Win32,17.99305468,Chrome,1920,1080,,,,,0,612,,,,,,,,,,,,,,,,,Y,139,circle,1,0,,,4,,,,,,,,,,,,,switch,number,numSwt,j,0.631,vtsPrac,24,0,24,0,1,,,,,,,,,,,,,,,,,,,,,,,
298348,2022-12-06_15h23.46.732,vts_reward_expectancy_bt,2022.2.4,Win32,17.99305468,Chrome,1920,1080,,,,,0,612,,,,,,,,,,,,,,,,,F,146,triangle,1,0,,,4,,,,,,,,,,,,,repeat,number,numRpt,j,1.0842,vtsPrac,25,0,25,0,1,,,,,,,,,,,,,,,,,,,,,,,
298348,2022-12-06_15h23.46.732,vts_reward_expectancy_bt,2022.2.4,Win32,17.99305468,Chrome,1920,1080,,,,,0,612,,,,,,,,,,,,,,,,,W,160,hexagon,1,0,,,4,,,,,,,,,,,,,repeat,number,numRpt,k,0.8511,vtsPrac,26,0,26,0,1,,,,,,,,,,,,,,,,,,,,,,,
298348,2022-12-06_15h23.46.732,vts_reward_expectancy_bt,2022.2.4,Win32,17.99305468,Chrome,1920,1080,,,,,0,612,,,,,,,,,,,,,,,,,U,181,star,1,0,,,4,,,,,,,,,,,,,switch,letter,lettSwt,f,1.5181,vtsPrac,27,0,27,0,1,,,,,,,,,,,,,,,,,,,,,,,
298348,2022-12-06_15h23.46.732,vts_reward_expectancy_bt,2022.2.4,Win32,17.99305468,Chrome,1920,1080,,,,,0,612,,,,,,,,,,,,,,,,,S,160,triangle,1,0,,,4,,,,,,,,,,,,,switch,number,numSwt,k,1.9995,vtsPrac,28,0,28,0,1,,,,,,,,,,,,,,,,,,,,,,,
298348,2022-12-06_15h23.46.732,vts_reward_expectancy_bt,2022.2.4,Win32,17.99305468,Chrome,1920,1080,,,,,0,612,,,,,,,,,,,,,,,,,H,146,circle,1,0,,,4,,,,,,,,,,,,,repeat,number,numRpt,j,1.7107,vtsPrac,29,0,29,0,1,,,,,,,,,,,,,,,,,,,,,,,
298348,2022-12-06_15h23.46.732,vts_reward_expectancy_bt,2022.2.4,Win32,17.99305468,Chrome,1920,1080,,,,,0,612,,,,,,,,,,,,,,,,,D,174,star,1,0,,,4,,,,,,,,,,,,,repeat,number,numRpt,k,1.0813,vtsPrac,30,0,30,0,1,,,,,,,,,,,,,,,,,,,,,,,
298348,2022-12-06_15h23.46.732,vts_reward_expectancy_bt,2022.2.4,Win32,17.99305468,Chrome,1920,1080,,,,,0,612,,,,,,,,,,,,,,,,,B,167,hexagon,1,0,,,4,,,,,,,,,,,,,repeat,number,numRpt,k,0.7067,vtsPrac,31,0,31,0,1,,,,,,,,,,,,,,,,,,,,,,,
298348,2022-12-06_15h23.46.732,vts_reward_expectancy_bt,2022.2.4,Win32,17.99305468,Chrome,1920,1080,,,,,,,,,,,,,,,,,,,,,,,,,,,,,,,,,,,,,,,,,,,,,,,,,,,,,,,,,,,,,,,,,,,,,,,,,,,,
298348,2022-12-06_15h23.46.732,vts_reward_expectancy_bt,2022.2.4,Win32,17.99305468,Chrome,1920,1080,,,,,,,,,,,,,,,,,,,,,,,,,,,,,,,,,,,,,,,,,,,,,,,,,,,,,,,,,,,,,,,,,,,,,,,,,,,,
298348,2022-12-06_15h23.46.732,vts_reward_expectancy_bt,2022.2.4,Win32,17.99305468,Chrome,1920,1080,,,,,0,612,,,,,,,,,,,,,,,,,S,160,hexagon,0,0,,,,,,,,,,,,,,,,switch,letter,NA,d,1.9353,noRew,,,,,,0,0,0,0,0,1,,,,,,,,,,,,,,,,,
298348,2022-12-06_15h23.46.732,vts_reward_expectancy_bt,2022.2.4,Win32,17.99305468,Chrome,1920,1080,,,,,0,612,,,,,,,,,,,,,,,,,Y,167,circle,1,1,,,,,,,,,,,,,,,,switch,number,numSwt,k,1.2972,noRew,,,,,,0,1,0,1,0,1,,,,,,,,,,,,,,,,,
298348,2022-12-06_15h23.46.732,vts_reward_expectancy_bt,2022.2.4,Win32,17.99305468,Chrome,1920,1080,,,,,0,612,,,,,,,,,,,,,,,,,W,132,hexagon,1,0,,,,,,,,,,,,,,,,switch,letter,lettSwt,f,1.3552,noRew,,,,,,0,2,0,2,0,1,,,,,,,,,,,,,,,,,
298348,2022-12-06_15h23.46.732,vts_reward_expectancy_bt,2022.2.4,Win32,17.99305468,Chrome,1920,1080,,,,,0,612,,,,,,,,,,,,,,,,,U,125,circle,1,0,,,,,,,,,,,,,,,,repeat,letter,lettRpt,f,1.2345,noRew,,,,,,0,3,0,3,0,1,,,,,,,,,,,,,,,,,
298348,2022-12-06_15h23.46.732,vts_reward_expectancy_bt,2022.2.4,Win32,17.99305468,Chrome,1920,1080,,,,,0,612,,,,,,,,,,,,,,,,,S,160,triangle,1,0,,,,,,,,,,,,,,,,switch,number,numSwt,k,0.8995,noRew,,,,,,0,4,0,4,0,1,,,,,,,,,,,,,,,,,
298348,2022-12-06_15h23.46.732,vts_reward_expectancy_bt,2022.2.4,Win32,17.99305468,Chrome,1920,1080,,,,,0,612,,,,,,,,,,,,,,,,,Y,167,hexagon,1,0,,,,,,,,,,,,,,,,repeat,number,numRpt,k,1.0686,noRew,,,,,,0,5,0,5,0,1,,,,,,,,,,,,,,,,,
298348,2022-12-06_15h23.46.732,vts_reward_expectancy_bt,2022.2.4,Win32,17.99305468,Chrome,1920,1080,,,,,0,612,,,,,,,,,,,,,,,,,W,132,triangle,1,0,,,,,,,,,,,,,,,,switch,letter,lettSwt,f,2.1287,noRew,,,,,,0,6,0,6,0,1,,,,,,,,,,,,,,,,,
298348,2022-12-06_15h23.46.732,vts_reward_expectancy_bt,2022.2.4,Win32,17.99305468,Chrome,1920,1080,,,,,0,612,,,,,,,,,,,,,,,,,U,125,star,1,0,,,,,,,,,,,,,,,,repeat,letter,lettRpt,f,2.5026,noRew,,,,,,0,7,0,7,0,1,,,,,,,,,,,,,,,,,
298348,2022-12-06_15h23.46.732,vts_reward_expectancy_bt,2022.2.4,Win32,17.99305468,Chrome,1920,1080,,,,,0,612,,,,,,,,,,,,,,,,,D,160,circle,1,0,,,,,,,,,,,,,,,,switch,number,numSwt,k,1.0555,noRew,,,,,,0,8,0,8,0,1,,,,,,,,,,,,,,,,,
298348,2022-12-06_15h23.46.732,vts_reward_expectancy_bt,2022.2.4,Win32,17.99305468,Chrome,1920,1080,,,,,0,612,,,,,,,,,,,,,,,,,U,139,triangle,1,0,,,,,,,,,,,,,,,,switch,letter,lettSwt,f,1.604,noRew,,,,,,0,9,0,9,0,1,,,,,,,,,,,,,,,,,
298348,2022-12-06_15h23.46.732,vts_reward_expectancy_bt,2022.2.4,Win32,17.99305468,Chrome,1920,1080,,,,,0,612,,,,,,,,,,,,,,,,,H,125,triangle,1,0,,,,,,,,,,,,,,,,repeat,letter,lettRpt,d,2.1288,noRew,,,,,,0,10,0,10,0,1,,,,,,,,,,,,,,,,,
298348,2022-12-06_15h23.46.732,vts_reward_expectancy_bt,2022.2.4,Win32,17.99305468,Chrome,1920,1080,,,,,0,612,,,,,,,,,,,,,,,,,Y,167,hexagon,1,0,,,,,,,,,,,,,,,,switch,number,numSwt,k,0.8798,noRew,,,,,,0,11,0,11,0,1,,,,,,,,,,,,,,,,,
298348,2022-12-06_15h23.46.732,vts_reward_expectancy_bt,2022.2.4,Win32,17.99305468,Chrome,1920,1080,,,,,0,612,,,,,,,,,,,,,,,,,B,160,hexagon,1,0,,,,,,,,,,,,,,,,repeat,number,numRpt,k,0.9502,noRew,,,,,,0,12,0,12,0,1,,,,,,,,,,,,,,,,,
298348,2022-12-06_15h23.46.732,vts_reward_expectancy_bt,2022.2.4,Win32,17.99305468,Chrome,1920,1080,,,,,0,612,,,,,,,,,,,,,,,,,S,132,star,1,0,,,,,,,,,,,,,,,,repeat,number,numRpt,j,1.0302,noRew,,,,,,0,13,0,13,0,1,,,,,,,,,,,,,,,,,
298348,2022-12-06_15h23.46.732,vts_reward_expectancy_bt,2022.2.4,Win32,17.99305468,Chrome,1920,1080,,,,,0,612,,,,,,,,,,,,,,,,,U,146,circle,1,0,,,,,,,,,,,,,,,,switch,letter,lettSwt,f,2.2316,noRew,,,,,,0,14,0,14,0,1,,,,,,,,,,,,,,,,,
298348,2022-12-06_15h23.46.732,vts_reward_expectancy_bt,2022.2.4,Win32,17.99305468,Chrome,1920,1080,,,,,0,612,,,,,,,,,,,,,,,,,W,139,triangle,1,0,,,,,,,,,,,,,,,,repeat,letter,lettRpt,f,1.5262,noRew,,,,,,0,15,0,15,0,1,,,,,,,,,,,,,,,,,
298348,2022-12-06_15h23.46.732,vts_reward_expectancy_bt,2022.2.4,Win32,17.99305468,Chrome,1920,1080,,,,,0,612,,,,,,,,,,,,,,,,,U,167,circle,1,0,,,,,,,,,,,,,,,,switch,number,numSwt,k,0.7913,noRew,,,,,,0,16,0,16,0,1,,,,,,,,,,,,,,,,,
298348,2022-12-06_15h23.46.732,vts_reward_expectancy_bt,2022.2.4,Win32,17.99305468,Chrome,1920,1080,,,,,0,612,,,,,,,,,,,,,,,,,S,146,hexagon,1,0,,,,,,,,,,,,,,,,switch,letter,lettSwt,f,1.2039,noRew,,,,,,0,17,0,17,0,1,,,,,,,,,,,,,,,,,
298348,2022-12-06_15h23.46.732,vts_reward_expectancy_bt,2022.2.4,Win32,17.99305468,Chrome,1920,1080,,,,,0,612,,,,,,,,,,,,,,,,,Y,132,circle,1,0,,,,,,,,,,,,,,,,repeat,letter,lettRpt,f,1.2252,noRew,,,,,,0,18,0,18,0,1,,,,,,,,,,,,,,,,,
298348,2022-12-06_15h23.46.732,vts_reward_expectancy_bt,2022.2.4,Win32,17.99305468,Chrome,1920,1080,,,,,0,612,,,,,,,,,,,,,,,,,B,181,star,1,0,,,,,,,,,,,,,,,,switch,number,numSwt,k,0.7296,noRew,,,,,,0,19,0,19,0,1,,,,,,,,,,,,,,,,,
298348,2022-12-06_15h23.46.732,vts_reward_expectancy_bt,2022.2.4,Win32,17.99305468,Chrome,1920,1080,,,,,0,612,,,,,,,,,,,,,,,,,W,167,triangle,1,0,,,,,,,,,,,,,,,,switch,letter,lettSwt,f,1.0351,noRew,,,,,,0,20,0,20,0,1,,,,,,,,,,,,,,,,,
298348,2022-12-06_15h23.46.732,vts_reward_expectancy_bt,2022.2.4,Win32,17.99305468,Chrome,1920,1080,,,,,0,612,,,,,,,,,,,,,,,,,S,125,star,1,0,,,,,,,,,,,,,,,,switch,number,numSwt,j,1.5399,noRew,,,,,,0,21,0,21,0,1,,,,,,,,,,,,,,,,,
298348,2022-12-06_15h23.46.732,vts_reward_expectancy_bt,2022.2.4,Win32,17.99305468,Chrome,1920,1080,,,,,0,612,,,,,,,,,,,,,,,,,D,174,circle,1,0,,,,,,,,,,,,,,,,repeat,number,numRpt,k,0.7656,noRew,,,,,,0,22,0,22,0,1,,,,,,,,,,,,,,,,,
298348,2022-12-06_15h23.46.732,vts_reward_expectancy_bt,2022.2.4,Win32,17.99305468,Chrome,1920,1080,,,,,0,612,,,,,,,,,,,,,,,,,F,160,triangle,1,0,,,,,,,,,,,,,,,,repeat,number,numRpt,k,1.0281,noRew,,,,,,0,23,0,23,0,1,,,,,,,,,,,,,,,,,
298348,2022-12-06_15h23.46.732,vts_reward_expectancy_bt,2022.2.4,Win32,17.99305468,Chrome,1920,1080,,,,,0,612,,,,,,,,,,,,,,,,,U,160,hexagon,1,0,,,,,,,,,,,,,,,,switch,letter,lettSwt,f,1.3955,noRew,,,,,,0,24,0,24,0,1,,,,,,,,,,,,,,,,,
298348,2022-12-06_15h23.46.732,vts_reward_expectancy_bt,2022.2.4,Win32,17.99305468,Chrome,1920,1080,,,,,0,612,,,,,,,,,,,,,,,,,D,167,star,1,0,,,,,,,,,,,,,,,,repeat,letter,lettRpt,d,0.6037,noRew,,,,,,0,25,0,25,0,1,,,,,,,,,,,,,,,,,
298348,2022-12-06_15h23.46.732,vts_reward_expectancy_bt,2022.2.4,Win32,17.99305468,Chrome,1920,1080,,,,,0,612,,,,,,,,,,,,,,,,,W,139,hexagon,1,0,,,,,,,,,,,,,,,,repeat,letter,lettRpt,f,0.795,noRew,,,,,,0,26,0,26,0,1,,,,,,,,,,,,,,,,,
298348,2022-12-06_15h23.46.732,vts_reward_expectancy_bt,2022.2.4,Win32,17.99305468,Chrome,1920,1080,,,,,0,612,,,,,,,,,,,,,,,,,S,146,star,1,0,,,,,,,,,,,,,,,,switch,number,numSwt,j,1.2487,noRew,,,,,,0,27,0,27,0,1,,,,,,,,,,,,,,,,,
298348,2022-12-06_15h23.46.732,vts_reward_expectancy_bt,2022.2.4,Win32,17.99305468,Chrome,1920,1080,,,,,0,612,,,,,,,,,,,,,,,,,S,132,circle,1,0,,,,,,,,,,,,,,,,repeat,number,numRpt,j,1.0263,noRew,,,,,,0,28,0,28,0,1,,,,,,,,,,,,,,,,,
298348,2022-12-06_15h23.46.732,vts_reward_expectancy_bt,2022.2.4,Win32,17.99305468,Chrome,1920,1080,,,,,0,612,,,,,,,,,,,,,,,,,W,139,star,1,0,,,,,,,,,,,,,,,,switch,letter,lettSwt,f,1.3813,noRew,,,,,,0,29,0,29,0,1,,,,,,,,,,,,,,,,,
298348,2022-12-06_15h23.46.732,vts_reward_expectancy_bt,2022.2.4,Win32,17.99305468,Chrome,1920,1080,,,,,0,612,,,,,,,,,,,,,,,,,D,174,circle,1,0,,,,,,,,,,,,,,,,switch,number,numSwt,k,0.8207,noRew,,,,,,0,30,0,30,0,1,,,,,,,,,,,,,,,,,
298348,2022-12-06_15h23.46.732,vts_reward_expectancy_bt,2022.2.4,Win32,17.99305468,Chrome,1920,1080,,,,,0,612,,,,,,,,,,,,,,,,,U,125,triangle,1,0,,,,,,,,,,,,,,,,repeat,number,numRpt,j,0.8241,noRew,,,,,,0,31,0,31,0,1,,,,,,,,,,,,,,,,,
298348,2022-12-06_15h23.46.732,vts_reward_expectancy_bt,2022.2.4,Win32,17.99305468,Chrome,1920,1080,,,,,0,612,,,,,,,,,,,,,,,,,S,167,hexagon,1,0,,,,,,,,,,,,,,,,repeat,number,numRpt,k,0.7666,noRew,,,,,,0,32,0,32,0,1,,,,,,,,,,,,,,,,,
298348,2022-12-06_15h23.46.732,vts_reward_expectancy_bt,2022.2.4,Win32,17.99305468,Chrome,1920,1080,,,,,0,612,,,,,,,,,,,,,,,,,W,181,star,1,0,,,,,,,,,,,,,,,,repeat,number,numRpt,k,0.8234,noRew,,,,,,0,33,0,33,0,1,,,,,,,,,,,,,,,,,
298348,2022-12-06_15h23.46.732,vts_reward_expectancy_bt,2022.2.4,Win32,17.99305468,Chrome,1920,1080,,,,,0,612,,,,,,,,,,,,,,,,,D,132,hexagon,1,0,,,,,,,,,,,,,,,,repeat,number,numRpt,j,0.8991,noRew,,,,,,0,34,0,34,0,1,,,,,,,,,,,,,,,,,
298348,2022-12-06_15h23.46.732,vts_reward_expectancy_bt,2022.2.4,Win32,17.99305468,Chrome,1920,1080,,,,,0,612,,,,,,,,,,,,,,,,,F,139,star,1,0,,,,,,,,,,,,,,,,switch,letter,lettSwt,d,1.6942,noRew,,,,,,0,35,0,35,0,1,,,,,,,,,,,,,,,,,
298348,2022-12-06_15h23.46.732,vts_reward_expectancy_bt,2022.2.4,Win32,17.99305468,Chrome,1920,1080,,,,,0,612,,,,,,,,,,,,,,,,,F,167,circle,1,0,,,,,,,,,,,,,,,,repeat,letter,lettRpt,d,0.865,noRew,,,,,,0,36,0,36,0,1,,,,,,,,,,,,,,,,,
298348,2022-12-06_15h23.46.732,vts_reward_expectancy_bt,2022.2.4,Win32,17.99305468,Chrome,1920,1080,,,,,0,612,,,,,,,,,,,,,,,,,B,146,star,1,0,,,,,,,,,,,,,,,,repeat,letter,lettRpt,d,0.7602,noRew,,,,,,0,37,0,37,0,1,,,,,,,,,,,,,,,,,
298348,2022-12-06_15h23.46.732,vts_reward_expectancy_bt,2022.2.4,Win32,17.99305468,Chrome,1920,1080,,,,,0,612,,,,,,,,,,,,,,,,,H,174,circle,1,0,,,,,,,,,,,,,,,,switch,number,numSwt,k,1.1503,noRew,,,,,,0,38,0,38,0,1,,,,,,,,,,,,,,,,,
298348,2022-12-06_15h23.46.732,vts_reward_expectancy_bt,2022.2.4,Win32,17.99305468,Chrome,1920,1080,,,,,0,612,,,,,,,,,,,,,,,,,D,139,triangle,1,0,,,,,,,,,,,,,,,,switch,letter,lettSwt,d,0.7128,noRew,,,,,,0,39,0,39,0,1,,,,,,,,,,,,,,,,,
298348,2022-12-06_15h23.46.732,vts_reward_expectancy_bt,2022.2.4,Win32,17.99305468,Chrome,1920,1080,,,,,0,612,,,,,,,,,,,,,,,,,S,160,triangle,1,0,,,,,,,,,,,,,,,,repeat,letter,lettRpt,f,1.2203,noRew,,,,,,0,40,0,40,0,1,,,,,,,,,,,,,,,,,
298348,2022-12-06_15h23.46.732,vts_reward_expectancy_bt,2022.2.4,Win32,17.99305468,Chrome,1920,1080,,,,,0,612,,,,,,,,,,,,,,,,,H,146,star,1,0,,,,,,,,,,,,,,,,switch,number,numSwt,j,0.8357,noRew,,,,,,0,41,0,41,0,1,,,,,,,,,,,,,,,,,
298348,2022-12-06_15h23.46.732,vts_reward_expectancy_bt,2022.2.4,Win32,17.99305468,Chrome,1920,1080,,,,,0,612,,,,,,,,,,,,,,,,,Y,167,circle,1,0,,,,,,,,,,,,,,,,switch,letter,lettSwt,f,1.0413,noRew,,,,,,0,42,0,42,0,1,,,,,,,,,,,,,,,,,
298348,2022-12-06_15h23.46.732,vts_reward_expectancy_bt,2022.2.4,Win32,17.99305468,Chrome,1920,1080,,,,,0,612,,,,,,,,,,,,,,,,,F,139,hexagon,1,0,,,,,,,,,,,,,,,,switch,number,numSwt,j,1.3727,noRew,,,,,,0,43,0,43,0,1,,,,,,,,,,,,,,,,,
298348,2022-12-06_15h23.46.732,vts_reward_expectancy_bt,2022.2.4,Win32,17.99305468,Chrome,1920,1080,,,,,0,612,,,,,,,,,,,,,,,,,S,174,hexagon,1,0,,,,,,,,,,,,,,,,repeat,number,numRpt,k,2.0413,noRew,,,,,,0,44,0,44,0,1,,,,,,,,,,,,,,,,,
298348,2022-12-06_15h23.46.732,vts_reward_expectancy_bt,2022.2.4,Win32,17.99305468,Chrome,1920,1080,,,,,0,612,,,,,,,,,,,,,,,,,D,125,circle,1,0,,,,,,,,,,,,,,,,repeat,number,numRpt,j,0.9082,noRew,,,,,,0,45,0,45,0,1,,,,,,,,,,,,,,,,,
298348,2022-12-06_15h23.46.732,vts_reward_expectancy_bt,2022.2.4,Win32,17.99305468,Chrome,1920,1080,,,,,0,612,,,,,,,,,,,,,,,,,Y,139,star,1,0,,,,,,,,,,,,,,,,switch,letter,lettSwt,f,0.8805,noRew,,,,,,0,46,0,46,0,1,,,,,,,,,,,,,,,,,
298348,2022-12-06_15h23.46.732,vts_reward_expectancy_bt,2022.2.4,Win32,17.99305468,Chrome,1920,1080,,,,,0,612,,,,,,,,,,,,,,,,,H,167,hexagon,-1,0,,,,,,,,,,,,,,,,switch,no_choice,NA,,,noRew,,,,,,0,47,0,47,0,1,,,,,,,,,,,,,,,,,
298348,2022-12-06_15h23.46.732,vts_reward_expectancy_bt,2022.2.4,Win32,17.99305468,Chrome,1920,1080,,,,,0,612,,,,,,,,,,,,,,,,,Y,146,star,0,0,,,,,,,,,,,,,,,,switch,number,NA,k,0.3337,noRew,,,,,,0,48,0,48,0,1,,,,,,,,,,,,,,,,,
298348,2022-12-06_15h23.46.732,vts_reward_expectancy_bt,2022.2.4,Win32,17.99305468,Chrome,1920,1080,,,,,0,612,,,,,,,,,,,,,,,,,W,167,circle,1,1,,,,,,,,,,,,,,,,repeat,number,numRpt,k,0.7492,noRew,,,,,,0,49,0,49,0,1,,,,,,,,,,,,,,,,,
298348,2022-12-06_15h23.46.732,vts_reward_expectancy_bt,2022.2.4,Win32,17.99305468,Chrome,1920,1080,,,,,0,612,,,,,,,,,,,,,,,,,B,132,triangle,1,0,,,,,,,,,,,,,,,,switch,letter,lettSwt,d,0.5758,noRew,,,,,,0,50,0,50,0,1,,,,,,,,,,,,,,,,,
298348,2022-12-06_15h23.46.732,vts_reward_expectancy_bt,2022.2.4,Win32,17.99305468,Chrome,1920,1080,,,,,0,612,,,,,,,,,,,,,,,,,D,181,star,1,0,,,,,,,,,,,,,,,,switch,number,numSwt,k,0.6605,noRew,,,,,,0,51,0,51,0,1,,,,,,,,,,,,,,,,,
298348,2022-12-06_15h23.46.732,vts_reward_expectancy_bt,2022.2.4,Win32,17.99305468,Chrome,1920,1080,,,,,0,612,,,,,,,,,,,,,,,,,B,160,circle,1,0,,,,,,,,,,,,,,,,switch,letter,lettSwt,d,0.6802,noRew,,,,,,0,52,0,52,0,1,,,,,,,,,,,,,,,,,
298348,2022-12-06_15h23.46.732,vts_reward_expectancy_bt,2022.2.4,Win32,17.99305468,Chrome,1920,1080,,,,,0,612,,,,,,,,,,,,,,,,,S,181,star,1,0,,,,,,,,,,,,,,,,switch,number,numSwt,k,1.337,noRew,,,,,,0,53,0,53,0,1,,,,,,,,,,,,,,,,,
298348,2022-12-06_15h23.46.732,vts_reward_expectancy_bt,2022.2.4,Win32,17.99305468,Chrome,1920,1080,,,,,0,612,,,,,,,,,,,,,,,,,F,146,triangle,1,0,,,,,,,,,,,,,,,,repeat,number,numRpt,j,1.2049,noRew,,,,,,0,54,0,54,0,1,,,,,,,,,,,,,,,,,
298348,2022-12-06_15h23.46.732,vts_reward_expectancy_bt,2022.2.4,Win32,17.99305468,Chrome,1920,1080,,,,,0,612,,,,,,,,,,,,,,,,,D,139,hexagon,1,0,,,,,,,,,,,,,,,,switch,letter,lettSwt,d,0.6752,noRew,,,,,,0,55,0,55,0,1,,,,,,,,,,,,,,,,,
298348,2022-12-06_15h23.46.732,vts_reward_expectancy_bt,2022.2.4,Win32,17.99305468,Chrome,1920,1080,,,,,0,612,,,,,,,,,,,,,,,,,S,132,triangle,1,0,,,,,,,,,,,,,,,,switch,number,numSwt,j,1.2195,noRew,,,,,,0,56,0,56,0,1,,,,,,,,,,,,,,,,,
298348,2022-12-06_15h23.46.732,vts_reward_expectancy_bt,2022.2.4,Win32,17.99305468,Chrome,1920,1080,,,,,0,612,,,,,,,,,,,,,,,,,B,146,hexagon,1,0,,,,,,,,,,,,,,,,repeat,number,numRpt,j,0.903,noRew,,,,,,0,57,0,57,0,1,,,,,,,,,,,,,,,,,
298348,2022-12-06_15h23.46.732,vts_reward_expectancy_bt,2022.2.4,Win32,17.99305468,Chrome,1920,1080,,,,,0,612,,,,,,,,,,,,,,,,,D,160,triangle,1,0,,,,,,,,,,,,,,,,switch,letter,lettSwt,d,0.7558,noRew,,,,,,0,58,0,58,0,1,,,,,,,,,,,,,,,,,
298348,2022-12-06_15h23.46.732,vts_reward_expectancy_bt,2022.2.4,Win32,17.99305468,Chrome,1920,1080,,,,,0,612,,,,,,,,,,,,,,,,,H,174,hexagon,1,0,,,,,,,,,,,,,,,,repeat,letter,lettRpt,d,1.2243,noRew,,,,,,0,59,0,59,0,1,,,,,,,,,,,,,,,,,
298348,2022-12-06_15h23.46.732,vts_reward_expectancy_bt,2022.2.4,Win32,17.99305468,Chrome,1920,1080,,,,,0,612,,,,,,,,,,,,,,,,,B,139,circle,1,0,,,,,,,,,,,,,,,,repeat,letter,lettRpt,d,0.8046,noRew,,,,,,0,60,0,60,0,1,,,,,,,,,,,,,,,,,
298348,2022-12-06_15h23.46.732,vts_reward_expectancy_bt,2022.2.4,Win32,17.99305468,Chrome,1920,1080,,,,,0,612,,,,,,,,,,,,,,,,,H,181,hexagon,1,0,,,,,,,,,,,,,,,,switch,number,numSwt,k,0.7164,noRew,,,,,,0,61,0,61,0,1,,,,,,,,,,,,,,,,,
298348,2022-12-06_15h23.46.732,vts_reward_expectancy_bt,2022.2.4,Win32,17.99305468,Chrome,1920,1080,,,,,0,612,,,,,,,,,,,,,,,,,Y,132,triangle,1,0,,,,,,,,,,,,,,,,repeat,number,numRpt,j,0.7094,noRew,,,,,,0,62,0,62,0,1,,,,,,,,,,,,,,,,,
298348,2022-12-06_15h23.46.732,vts_reward_expectancy_bt,2022.2.4,Win32,17.99305468,Chrome,1920,1080,,,,,0,612,,,,,,,,,,,,,,,,,W,174,hexagon,1,0,,,,,,,,,,,,,,,,repeat,number,numRpt,k,0.9227,noRew,,,,,,0,63,0,63,0,1,,,,,,,,,,,,,,,,,
298348,2022-12-06_15h23.46.732,vts_reward_expectancy_bt,2022.2.4,Win32,17.99305468,Chrome,1920,1080,,,,,,,,,,,,,,,,,,,,,,,,,,,,,,,,,,,,,,,,,,,,,,,,,,,,,,,,,,,,,,,,,,,,,,,,,,,,
298348,2022-12-06_15h23.46.732,vts_reward_expectancy_bt,2022.2.4,Win32,17.99305468,Chrome,1920,1080,,,,,10,622,,,,,,,,,,,,,,,,,D,146,triangle,1,0,,,,,,,,,,,,,,,,switch,letter,lettSwt,d,0.7305,Lo,,,,,,0,,,,,,space,9.3566,low,0,0,0,0,1,,,,,,,,,
298348,2022-12-06_15h23.46.732,vts_reward_expectancy_bt,2022.2.4,Win32,17.99305468,Chrome,1920,1080,,,,,0,622,,,,,,,,,,,,,,,,,Y,160,star,1,0,,,,,,,,,,,,,,,,switch,number,numSwt,k,1.003,Hi,,,,,,0,,,,,,,,low,1,0,1,0,1,,,,,,,,,
298348,2022-12-06_15h23.46.732,vts_reward_expectancy_bt,2022.2.4,Win32,17.99305468,Chrome,1920,1080,,,,,1,623,,,,,,,,,,,,,,,,,U,181,hexagon,1,0,,,,,,,,,,,,,,,,switch,letter,lettSwt,f,0.621,Lo,,,,,,0,,,,,,,,low,2,0,2,0,1,,,,,,,,,
298348,2022-12-06_15h23.46.732,vts_reward_expectancy_bt,2022.2.4,Win32,17.99305468,Chrome,1920,1080,,,,,10,633,,,,,,,,,,,,,,,,,F,167,circle,1,0,,,,,,,,,,,,,,,,switch,number,numSwt,k,0.4493,Hi,,,,,,0,,,,,,,,low,3,0,3,0,1,,,,,,,,,
298348,2022-12-06_15h23.46.732,vts_reward_expectancy_bt,2022.2.4,Win32,17.99305468,Chrome,1920,1080,,,,,1,634,,,,,,,,,,,,,,,,,S,132,triangle,1,0,,,,,,,,,,,,,,,,repeat,number,numRpt,j,0.5024,Lo,,,,,,0,,,,,,,,low,4,0,4,0,1,,,,,,,,,
298348,2022-12-06_15h23.46.732,vts_reward_expectancy_bt,2022.2.4,Win32,17.99305468,Chrome,1920,1080,,,,,1,635,,,,,,,,,,,,,,,,,W,174,star,1,0,,,,,,,,,,,,,,,,switch,letter,lettSwt,f,0.5772,Hi,,,,,,0,,,,,,,,low,5,0,5,0,1,,,,,,,,,
298348,2022-12-06_15h23.46.732,vts_reward_expectancy_bt,2022.2.4,Win32,17.99305468,Chrome,1920,1080,,,,,1,636,,,,,,,,,,,,,,,,,B,125,hexagon,1,0,,,,,,,,,,,,,,,,repeat,letter,lettRpt,d,0.4526,Lo,,,,,,0,,,,,,,,low,6,0,6,0,1,,,,,,,,,
298348,2022-12-06_15h23.46.732,vts_reward_expectancy_bt,2022.2.4,Win32,17.99305468,Chrome,1920,1080,,,,,10,646,,,,,,,,,,,,,,,,,H,139,circle,1,0,,,,,,,,,,,,,,,,switch,number,numSwt,j,0.5745,Hi,,,,,,0,,,,,,,,low,7,0,7,0,1,,,,,,,,,
298348,2022-12-06_15h23.46.732,vts_reward_expectancy_bt,2022.2.4,Win32,17.99305468,Chrome,1920,1080,,,,,0,646,,,,,,,,,,,,,,,,,D,146,circle,1,0,,,,,,,,,,,,,,,,repeat,number,numRpt,j,0.8539,Hi,,,,,,0,,,,,,,,low,8,0,8,0,1,,,,,,,,,
298348,2022-12-06_15h23.46.732,vts_reward_expectancy_bt,2022.2.4,Win32,17.99305468,Chrome,1920,1080,,,,,10,656,,,,,,,,,,,,,,,,,Y,160,hexagon,1,0,,,,,,,,,,,,,,,,switch,letter,lettSwt,f,0.64,Lo,,,,,,0,,,,,,,,low,9,0,9,0,1,,,,,,,,,
298348,2022-12-06_15h23.46.732,vts_reward_expectancy_bt,2022.2.4,Win32,17.99305468,Chrome,1920,1080,,,,,1,657,,,,,,,,,,,,,,,,,U,181,triangle,1,0,,,,,,,,,,,,,,,,repeat,letter,lettRpt,f,0.7215,Lo,,,,,,0,,,,,,,,low,10,0,10,0,1,,,,,,,,,
298348,2022-12-06_15h23.46.732,vts_reward_expectancy_bt,2022.2.4,Win32,17.99305468,Chrome,1920,1080,,,,,1,658,,,,,,,,,,,,,,,,,F,167,star,1,0,,,,,,,,,,,,,,,,switch,number,numSwt,k,0.6326,Hi,,,,,,0,,,,,,,,low,11,0,11,0,1,,,,,,,,,
298348,2022-12-06_15h23.46.732,vts_reward_expectancy_bt,2022.2.4,Win32,17.99305468,Chrome,1920,1080,,,,,10,668,,,,,,,,,,,,,,,,,S,132,triangle,1,0,,,,,,,,,,,,,,,,switch,letter,lettSwt,f,0.7134,Lo,,,,,,0,,,,,,,,low,12,0,12,0,1,,,,,,,,,
298348,2022-12-06_15h23.46.732,vts_reward_expectancy_bt,2022.2.4,Win32,17.99305468,Chrome,1920,1080,,,,,0,668,,,,,,,,,,,,,,,,,W,174,circle,1,0,,,,,,,,,,,,,,,,switch,number,numSwt,k,0.8405,Hi,,,,,,0,,,,,,,,low,13,0,13,0,1,,,,,,,,,
298348,2022-12-06_15h23.46.732,vts_reward_expectancy_bt,2022.2.4,Win32,17.99305468,Chrome,1920,1080,,,,,1,669,,,,,,,,,,,,,,,,,B,125,star,1,0,,,,,,,,,,,,,,,,repeat,number,numRpt,j,0.7829,Hi,,,,,,0,,,,,,,,low,14,0,14,0,1,,,,,,,,,
298348,2022-12-06_15h23.46.732,vts_reward_expectancy_bt,2022.2.4,Win32,17.99305468,Chrome,1920,1080,,,,,0,669,,,,,,,,,,,,,,,,,H,139,hexagon,0,0,,,,,,,,,,,,,,,,switch,letter,NA,f,0.5755,Hi,,,,,,0,,,,,,,,low,15,0,15,0,1,,,,,,,,,
298348,2022-12-06_15h23.46.732,vts_reward_expectancy_bt,2022.2.4,Win32,17.99305468,Chrome,1920,1080,,,,,0,669,,,,,,,,,,,,,,,,,Y,132,triangle,0,1,,,,,,,,,,,,,,,,repeat,letter,NA,d,0.3865,Hi,,,,,,0,,,,,,,,low,16,0,16,0,1,,,,,,,,,
298348,2022-12-06_15h23.46.732,vts_reward_expectancy_bt,2022.2.4,Win32,17.99305468,Chrome,1920,1080,,,,,0,669,,,,,,,,,,,,,,,,,U,146,hexagon,0,1,,,,,,,,,,,,,,,,switch,number,NA,k,0.3202,Hi,,,,,,0,,,,,,,,low,17,0,17,0,1,,,,,,,,,
298348,2022-12-06_15h23.46.732,vts_reward_expectancy_bt,2022.2.4,Win32,17.99305468,Chrome,1920,1080,,,,,0,669,,,,,,,,,,,,,,,,,F,181,circle,0,1,,,,,,,,,,,,,,,,repeat,number,NA,j,0.6627,Hi,,,,,,0,,,,,,,,low,18,0,18,0,1,,,,,,,,,
298348,2022-12-06_15h23.46.732,vts_reward_expectancy_bt,2022.2.4,Win32,17.99305468,Chrome,1920,1080,,,,,1,670,,,,,,,,,,,,,,,,,H,125,star,1,1,,,,,,,,,,,,,,,,repeat,number,numRpt,j,0.7152,Hi,,,,,,0,,,,,,,,low,19,0,19,0,1,,,,,,,,,
298348,2022-12-06_15h23.46.732,vts_reward_expectancy_bt,2022.2.4,Win32,17.99305468,Chrome,1920,1080,,,,,0,670,,,,,,,,,,,,,,,,,W,139,circle,0,0,,,,,,,,,,,,,,,,switch,letter,NA,d,0.7773,Hi,,,,,,0,,,,,,,,low,20,0,20,0,1,,,,,,,,,
298348,2022-12-06_15h23.46.732,vts_reward_expectancy_bt,2022.2.4,Win32,17.99305468,Chrome,1920,1080,,,,,10,680,,,,,,,,,,,,,,,,,D,167,hexagon,1,1,,,,,,,,,,,,,,,,repeat,letter,lettRpt,d,0.8211,Lo,,,,,,0,,,,,,,,low,21,0,21,0,1,,,,,,,,,
298348,2022-12-06_15h23.46.732,vts_reward_expectancy_bt,2022.2.4,Win32,17.99305468,Chrome,1920,1080,,,,,1,681,,,,,,,,,,,,,,,,,S,160,triangle,1,0,,,,,,,,,,,,,,,,repeat,letter,lettRpt,f,0.7324,Lo,,,,,,0,,,,,,,,low,22,0,22,0,1,,,,,,,,,
298348,2022-12-06_15h23.46.732,vts_reward_expectancy_bt,2022.2.4,Win32,17.99305468,Chrome,1920,1080,,,,,1,682,,,,,,,,,,,,,,,,,B,174,star,1,0,,,,,,,,,,,,,,,,switch,number,numSwt,k,0.6078,Hi,,,,,,0,,,,,,,,low,23,0,23,0,1,,,,,,,,,
298348,2022-12-06_15h23.46.732,vts_reward_expectancy_bt,2022.2.4,Win32,17.99305468,Chrome,1920,1080,,,,,1,683,,,,,,,,,,,,,,,,,H,146,hexagon,1,0,,,,,,,,,,,,,,,,repeat,number,numRpt,j,0.8223,Lo,,,,,,0,,,,,,,,low,24,0,24,0,1,,,,,,,,,
298348,2022-12-06_15h23.46.732,vts_reward_expectancy_bt,2022.2.4,Win32,17.99305468,Chrome,1920,1080,,,,,1,684,,,,,,,,,,,,,,,,,U,167,circle,1,0,,,,,,,,,,,,,,,,repeat,number,numRpt,k,0.7231,Hi,,,,,,0,,,,,,,,low,25,0,25,0,1,,,,,,,,,
298348,2022-12-06_15h23.46.732,vts_reward_expectancy_bt,2022.2.4,Win32,17.99305468,Chrome,1920,1080,,,,,10,694,,,,,,,,,,,,,,,,,B,160,star,1,0,,,,,,,,,,,,,,,,repeat,number,numRpt,k,0.7744,Hi,,,,,,0,,,,,,,,low,26,0,26,0,1,,,,,,,,,
298348,2022-12-06_15h23.46.732,vts_reward_expectancy_bt,2022.2.4,Win32,17.99305468,Chrome,1920,1080,,,,,10,704,,,,,,,,,,,,,,,,,W,181,triangle,1,0,,,,,,,,,,,,,,,,switch,letter,lettSwt,f,1.1256,Lo,,,,,,0,,,,,,,,low,27,0,27,0,1,,,,,,,,,
298348,2022-12-06_15h23.46.732,vts_reward_expectancy_bt,2022.2.4,Win32,17.99305468,Chrome,1920,1080,,,,,1,705,,,,,,,,,,,,,,,,,S,139,triangle,1,0,,,,,,,,,,,,,,,,switch,number,numSwt,j,0.6665,Lo,,,,,,0,,,,,,,,low,28,0,28,0,1,,,,,,,,,
298348,2022-12-06_15h23.46.732,vts_reward_expectancy_bt,2022.2.4,Win32,17.99305468,Chrome,1920,1080,,,,,0,705,,,,,,,,,,,,,,,,,F,132,circle,1,0,,,,,,,,,,,,,,,,switch,letter,lettSwt,d,1.0229,Hi,,,,,,0,,,,,,,,low,29,0,29,0,1,,,,,,,,,
298348,2022-12-06_15h23.46.732,vts_reward_expectancy_bt,2022.2.4,Win32,17.99305468,Chrome,1920,1080,,,,,1,706,,,,,,,,,,,,,,,,,Y,174,hexagon,1,0,,,,,,,,,,,,,,,,switch,number,numSwt,k,0.8888,Lo,,,,,,0,,,,,,,,low,30,0,30,0,1,,,,,,,,,
298348,2022-12-06_15h23.46.732,vts_reward_expectancy_bt,2022.2.4,Win32,17.99305468,Chrome,1920,1080,,,,,10,716,,,,,,,,,,,,,,,,,D,125,star,1,0,,,,,,,,,,,,,,,,repeat,number,numRpt,j,0.6564,Hi,,,,,,0,,,,,,,,low,31,0,31,0,1,,,,,,,,,
298348,2022-12-06_15h23.46.732,vts_reward_expectancy_bt,2022.2.4,Win32,17.99305468,Chrome,1920,1080,,,,,0,716,,,,,,,,,,,,,,,,,D,139,circle,0,0,,,,,,,,,,,,,,,,switch,letter,NA,f,0.6807,Hi,,,,,,1,,,,,,space,9.6092,low,0,0,0,0,1,,,,,,,,,
298348,2022-12-06_15h23.46.732,vts_reward_expectancy_bt,2022.2.4,Win32,17.99305468,Chrome,1920,1080,,,,,1,717,,,,,,,,,,,,,,,,,W,132,hexagon,1,1,,,,,,,,,,,,,,,,switch,number,numSwt,j,0.671,Lo,,,,,,1,,,,,,,,low,1,0,1,0,1,,,,,,,,,
298348,2022-12-06_15h23.46.732,vts_reward_expectancy_bt,2022.2.4,Win32,17.99305468,Chrome,1920,1080,,,,,10,727,,,,,,,,,,,,,,,,,H,160,triangle,1,0,,,,,,,,,,,,,,,,repeat,number,numRpt,k,0.5183,Lo,,,,,,1,,,,,,,,low,2,0,2,0,1,,,,,,,,,
298348,2022-12-06_15h23.46.732,vts_reward_expectancy_bt,2022.2.4,Win32,17.99305468,Chrome,1920,1080,,,,,0,727,,,,,,,,,,,,,,,,,B,146,star,1,0,,,,,,,,,,,,,,,,repeat,number,numRpt,j,0.7361,Hi,,,,,,1,,,,,,,,low,3,0,3,0,1,,,,,,,,,
298348,2022-12-06_15h23.46.732,vts_reward_expectancy_bt,2022.2.4,Win32,17.99305468,Chrome,1920,1080,,,,,0,727,,,,,,,,,,,,,,,,,F,181,circle,1,0,,,,,,,,,,,,,,,,repeat,number,numRpt,k,0.7409,Hi,,,,,,1,,,,,,,,low,4,0,4,0,1,,,,,,,,,
298348,2022-12-06_15h23.46.732,vts_reward_expectancy_bt,2022.2.4,Win32,17.99305468,Chrome,1920,1080,,,,,1,728,,,,,,,,,,,,,,,,,Y,174,hexagon,1,0,,,,,,,,,,,,,,,,switch,letter,lettSwt,f,0.1174,Lo,,,,,,1,,,,,,,,low,5,0,5,0,1,,,,,,,,,
298348,2022-12-06_15h23.46.732,vts_reward_expectancy_bt,2022.2.4,Win32,17.99305468,Chrome,1920,1080,,,,,10,738,,,,,,,,,,,,,,,,,U,125,triangle,1,0,,,,,,,,,,,,,,,,repeat,letter,lettRpt,f,0.6206,Lo,,,,,,1,,,,,,,,low,6,0,6,0,1,,,,,,,,,
298348,2022-12-06_15h23.46.732,vts_reward_expectancy_bt,2022.2.4,Win32,17.99305468,Chrome,1920,1080,,,,,0,738,,,,,,,,,,,,,,,,,S,167,star,0,0,,,,,,,,,,,,,,,,repeat,letter,NA,d,0.6705,Lo,,,,,,1,,,,,,,,low,7,0,7,0,1,,,,,,,,,
298348,2022-12-06_15h23.46.732,vts_reward_expectancy_bt,2022.2.4,Win32,17.99305468,Chrome,1920,1080,,,,,0,738,,,,,,,,,,,,,,,,,D,139,hexagon,0,1,,,,,,,,,,,,,,,,switch,number,NA,k,0.0626,Lo,,,,,,1,,,,,,,,low,8,0,8,0,1,,,,,,,,,
298348,2022-12-06_15h23.46.732,vts_reward_expectancy_bt,2022.2.4,Win32,17.99305468,Chrome,1920,1080,,,,,1,739,,,,,,,,,,,,,,,,,W,132,triangle,1,1,,,,,,,,,,,,,,,,repeat,number,numRpt,j,0.4132,Lo,,,,,,1,,,,,,,,low,9,0,9,0,1,,,,,,,,,
298348,2022-12-06_15h23.46.732,vts_reward_expectancy_bt,2022.2.4,Win32,17.99305468,Chrome,1920,1080,,,,,0,739,,,,,,,,,,,,,,,,,H,160,circle,1,0,,,,,,,,,,,,,,,,repeat,number,numRpt,k,0.7356,Hi,,,,,,1,,,,,,,,low,10,0,10,0,1,,,,,,,,,
298348,2022-12-06_15h23.46.732,vts_reward_expectancy_bt,2022.2.4,Win32,17.99305468,Chrome,1920,1080,,,,,10,749,,,,,,,,,,,,,,,,,B,146,star,1,0,,,,,,,,,,,,,,,,repeat,number,numRpt,j,0.5897,Hi,,,,,,1,,,,,,,,low,11,0,11,0,1,,,,,,,,,
298348,2022-12-06_15h23.46.732,vts_reward_expectancy_bt,2022.2.4,Win32,17.99305468,Chrome,1920,1080,,,,,10,759,,,,,,,,,,,,,,,,,F,181,hexagon,1,0,,,,,,,,,,,,,,,,repeat,number,numRpt,k,0.5679,Lo,,,,,,1,,,,,,,,low,12,0,12,0,1,,,,,,,,,
298348,2022-12-06_15h23.46.732,vts_reward_expectancy_bt,2022.2.4,Win32,17.99305468,Chrome,1920,1080,,,,,0,759,,,,,,,,,,,,,,,,,Y,174,circle,0,0,,,,,,,,,,,,,,,,switch,letter,NA,d,0.8543,Lo,,,,,,1,,,,,,,,low,13,0,13,0,1,,,,,,,,,
298348,2022-12-06_15h23.46.732,vts_reward_expectancy_bt,2022.2.4,Win32,17.99305468,Chrome,1920,1080,,,,,0,759,,,,,,,,,,,,,,,,,U,125,star,1,1,,,,,,,,,,,,,,,,switch,number,numSwt,j,0.7337,Hi,,,,,,1,,,,,,,,low,14,0,14,0,1,,,,,,,,,
298348,2022-12-06_15h23.46.732,vts_reward_expectancy_bt,2022.2.4,Win32,17.99305468,Chrome,1920,1080,,,,,1,760,,,,,,,,,,,,,,,,,S,167,triangle,1,0,,,,,,,,,,,,,,,,repeat,number,numRpt,k,0.6491,Lo,,,,,,1,,,,,,,,low,15,0,15,0,1,,,,,,,,,
298348,2022-12-06_15h23.46.732,vts_reward_expectancy_bt,2022.2.4,Win32,17.99305468,Chrome,1920,1080,,,,,1,761,,,,,,,,,,,,,,,,,D,167,hexagon,1,0,,,,,,,,,,,,,,,,repeat,number,numRpt,k,0.8564,Lo,,,,,,1,,,,,,,,low,16,0,16,0,1,,,,,,,,,
298348,2022-12-06_15h23.46.732,vts_reward_expectancy_bt,2022.2.4,Win32,17.99305468,Chrome,1920,1080,,,,,10,771,,,,,,,,,,,,,,,,,S,132,star,1,0,,,,,,,,,,,,,,,,repeat,number,numRpt,j,0.6354,Hi,,,,,,1,,,,,,,,low,17,0,17,0,1,,,,,,,,,
298348,2022-12-06_15h23.46.732,vts_reward_expectancy_bt,2022.2.4,Win32,17.99305468,Chrome,1920,1080,,,,,1,772,,,,,,,,,,,,,,,,,F,174,triangle,1,0,,,,,,,,,,,,,,,,switch,letter,lettSwt,d,0.0693,Lo,,,,,,1,,,,,,,,low,18,0,18,0,1,,,,,,,,,
298348,2022-12-06_15h23.46.732,vts_reward_expectancy_bt,2022.2.4,Win32,17.99305468,Chrome,1920,1080,,,,,0,772,,,,,,,,,,,,,,,,,W,125,circle,1,0,,,,,,,,,,,,,,,,repeat,letter,lettRpt,f,0.964,Hi,,,,,,1,,,,,,,,low,19,0,19,0,1,,,,,,,,,
298348,2022-12-06_15h23.46.732,vts_reward_expectancy_bt,2022.2.4,Win32,17.99305468,Chrome,1920,1080,,,,,0,772,,,,,,,,,,,,,,,,,U,160,circle,1,0,,,,,,,,,,,,,,,,switch,number,numSwt,k,0.6261,Hi,,,,,,1,,,,,,,,low,20,0,20,0,1,,,,,,,,,
298348,2022-12-06_15h23.46.732,vts_reward_expectancy_bt,2022.2.4,Win32,17.99305468,Chrome,1920,1080,,,,,1,773,,,,,,,,,,,,,,,,,Y,181,hexagon,1,0,,,,,,,,,,,,,,,,repeat,number,numRpt,k,0.6899,Lo,,,,,,1,,,,,,,,low,21,0,21,0,1,,,,,,,,,
298348,2022-12-06_15h23.46.732,vts_reward_expectancy_bt,2022.2.4,Win32,17.99305468,Chrome,1920,1080,,,,,1,774,,,,,,,,,,,,,,,,,B,139,triangle,1,0,,,,,,,,,,,,,,,,repeat,number,numRpt,j,0.687,Lo,,,,,,1,,,,,,,,low,22,0,22,0,1,,,,,,,,,
298348,2022-12-06_15h23.46.732,vts_reward_expectancy_bt,2022.2.4,Win32,17.99305468,Chrome,1920,1080,,,,,1,775,,,,,,,,,,,,,,,,,H,146,star,1,0,,,,,,,,,,,,,,,,repeat,number,numRpt,j,0.6877,Hi,,,,,,1,,,,,,,,low,23,0,23,0,1,,,,,,,,,
298348,2022-12-06_15h23.46.732,vts_reward_expectancy_bt,2022.2.4,Win32,17.99305468,Chrome,1920,1080,,,,,10,785,,,,,,,,,,,,,,,,,F,125,circle,1,0,,,,,,,,,,,,,,,,repeat,number,numRpt,j,0.6413,Hi,,,,,,1,,,,,,,,low,24,0,24,0,1,,,,,,,,,
298348,2022-12-06_15h23.46.732,vts_reward_expectancy_bt,2022.2.4,Win32,17.99305468,Chrome,1920,1080,,,,,0,785,,,,,,,,,,,,,,,,,D,132,star,1,0,,,,,,,,,,,,,,,,repeat,number,numRpt,j,0.8724,Hi,,,,,,1,,,,,,,,low,25,0,25,0,1,,,,,,,,,
298348,2022-12-06_15h23.46.732,vts_reward_expectancy_bt,2022.2.4,Win32,17.99305468,Chrome,1920,1080,,,,,1,786,,,,,,,,,,,,,,,,,S,167,triangle,1,0,,,,,,,,,,,,,,,,repeat,number,numRpt,k,0.7809,Lo,,,,,,1,,,,,,,,low,26,0,26,0,1,,,,,,,,,
298348,2022-12-06_15h23.46.732,vts_reward_expectancy_bt,2022.2.4,Win32,17.99305468,Chrome,1920,1080,,,,,1,787,,,,,,,,,,,,,,,,,U,160,hexagon,1,0,,,,,,,,,,,,,,,,repeat,number,numRpt,k,0.6136,Lo,,,,,,1,,,,,,,,low,27,0,27,0,1,,,,,,,,,
298348,2022-12-06_15h23.46.732,vts_reward_expectancy_bt,2022.2.4,Win32,17.99305468,Chrome,1920,1080,,,,,0,787,,,,,,,,,,,,,,,,,H,139,circle,1,0,,,,,,,,,,,,,,,,repeat,number,numRpt,j,0.7377,Hi,,,,,,1,,,,,,,,low,28,0,28,0,1,,,,,,,,,
298348,2022-12-06_15h23.46.732,vts_reward_expectancy_bt,2022.2.4,Win32,17.99305468,Chrome,1920,1080,,,,,0,787,,,,,,,,,,,,,,,,,W,146,star,1,0,,,,,,,,,,,,,,,,switch,letter,lettSwt,f,0.8075,Hi,,,,,,1,,,,,,,,low,29,0,29,0,1,,,,,,,,,
298348,2022-12-06_15h23.46.732,vts_reward_expectancy_bt,2022.2.4,Win32,17.99305468,Chrome,1920,1080,,,,,1,788,,,,,,,,,,,,,,,,,B,174,triangle,1,0,,,,,,,,,,,,,,,,switch,number,numSwt,k,1.1017,Lo,,,,,,1,,,,,,,,low,30,0,30,0,1,,,,,,,,,
298348,2022-12-06_15h23.46.732,vts_reward_expectancy_bt,2022.2.4,Win32,17.99305468,Chrome,1920,1080,,,,,0,788,,,,,,,,,,,,,,,,,Y,181,hexagon,0,0,,,,,,,,,,,,,,,,repeat,number,NA,j,0.553,Lo,,,,,,1,,,,,,,,low,31,0,31,0,1,,,,,,,,,
298348,2022-12-06_15h23.46.732,vts_reward_expectancy_bt,2022.2.4,Win32,17.99305468,Chrome,1920,1080,,,,,0,788,,,,,,,,,,,,,,,,,B,160,star,1,1,,,,,,,,,,,,,,,,repeat,number,numRpt,k,0.6599,Hi,,,,,,2,,,,,,space,1.4363,low,0,0,0,0,1,,,,,,,,,
298348,2022-12-06_15h23.46.732,vts_reward_expectancy_bt,2022.2.4,Win32,17.99305468,Chrome,1920,1080,,,,,0,788,,,,,,,,,,,,,,,,,H,132,circle,1,0,,,,,,,,,,,,,,,,repeat,number,numRpt,j,0.7388,Hi,,,,,,2,,,,,,,,low,1,0,1,0,1,,,,,,,,,
298348,2022-12-06_15h23.46.732,vts_reward_expectancy_bt,2022.2.4,Win32,17.99305468,Chrome,1920,1080,,,,,1,789,,,,,,,,,,,,,,,,,S,146,hexagon,1,0,,,,,,,,,,,,,,,,switch,letter,lettSwt,f,0.6959,Lo,,,,,,2,,,,,,,,low,2,0,2,0,1,,,,,,,,,
298348,2022-12-06_15h23.46.732,vts_reward_expectancy_bt,2022.2.4,Win32,17.99305468,Chrome,1920,1080,,,,,10,799,,,,,,,,,,,,,,,,,D,167,triangle,1,0,,,,,,,,,,,,,,,,switch,number,numSwt,k,0.6749,Lo,,,,,,2,,,,,,,,low,3,0,3,0,1,,,,,,,,,
298348,2022-12-06_15h23.46.732,vts_reward_expectancy_bt,2022.2.4,Win32,17.99305468,Chrome,1920,1080,,,,,0,799,,,,,,,,,,,,,,,,,W,181,star,1,0,,,,,,,,,,,,,,,,repeat,number,numRpt,k,0.6726,Hi,,,,,,2,,,,,,,,low,4,0,4,0,1,,,,,,,,,
298348,2022-12-06_15h23.46.732,vts_reward_expectancy_bt,2022.2.4,Win32,17.99305468,Chrome,1920,1080,,,,,1,800,,,,,,,,,,,,,,,,,F,174,circle,1,0,,,,,,,,,,,,,,,,repeat,number,numRpt,k,0.611,Hi,,,,,,2,,,,,,,,low,5,0,5,0,1,,,,,,,,,
298348,2022-12-06_15h23.46.732,vts_reward_expectancy_bt,2022.2.4,Win32,17.99305468,Chrome,1920,1080,,,,,1,801,,,,,,,,,,,,,,,,,Y,139,hexagon,1,0,,,,,,,,,,,,,,,,switch,letter,lettSwt,f,0.8647,Lo,,,,,,2,,,,,,,,low,6,0,6,0,1,,,,,,,,,
298348,2022-12-06_15h23.46.732,vts_reward_expectancy_bt,2022.2.4,Win32,17.99305468,Chrome,1920,1080,,,,,0,801,,,,,,,,,,,,,,,,,U,125,triangle,0,0,,,,,,,,,,,,,,,,repeat,letter,NA,d,0.8349,Lo,,,,,,2,,,,,,,,low,7,0,7,0,1,,,,,,,,,
298348,2022-12-06_15h23.46.732,vts_reward_expectancy_bt,2022.2.4,Win32,17.99305468,Chrome,1920,1080,,,,,0,801,,,,,,,,,,,,,,,,,B,160,circle,1,1,,,,,,,,,,,,,,,,switch,number,numSwt,k,0.6803,Hi,,,,,,2,,,,,,,,low,8,0,8,0,1,,,,,,,,,
298348,2022-12-06_15h23.46.732,vts_reward_expectancy_bt,2022.2.4,Win32,17.99305468,Chrome,1920,1080,,,,,0,801,,,,,,,,,,,,,,,,,H,132,star,1,0,,,,,,,,,,,,,,,,repeat,number,numRpt,j,0.6753,Hi,,,,,,2,,,,,,,,low,9,0,9,0,1,,,,,,,,,
298348,2022-12-06_15h23.46.732,vts_reward_expectancy_bt,2022.2.4,Win32,17.99305468,Chrome,1920,1080,,,,,0,801,,,,,,,,,,,,,,,,,S,146,hexagon,0,0,,,,,,,,,,,,,,,,repeat,number,NA,k,0.6995,Hi,,,,,,2,,,,,,,,low,10,0,10,0,1,,,,,,,,,
298348,2022-12-06_15h23.46.732,vts_reward_expectancy_bt,2022.2.4,Win32,17.99305468,Chrome,1920,1080,,,,,10,811,,,,,,,,,,,,,,,,,D,167,triangle,1,1,,,,,,,,,,,,,,,,repeat,number,numRpt,k,0.6869,Lo,,,,,,2,,,,,,,,low,11,0,11,0,1,,,,,,,,,
298348,2022-12-06_15h23.46.732,vts_reward_expectancy_bt,2022.2.4,Win32,17.99305468,Chrome,1920,1080,,,,,0,811,,,,,,,,,,,,,,,,,W,181,circle,1,0,,,,,,,,,,,,,,,,repeat,number,numRpt,k,0.6511,Hi,,,,,,2,,,,,,,,low,12,0,12,0,1,,,,,,,,,
298348,2022-12-06_15h23.46.732,vts_reward_expectancy_bt,2022.2.4,Win32,17.99305468,Chrome,1920,1080,,,,,1,812,,,,,,,,,,,,,,,,,F,174,triangle,1,0,,,,,,,,,,,,,,,,repeat,number,numRpt,k,0.7276,Lo,,,,,,2,,,,,,,,low,13,0,13,0,1,,,,,,,,,
298348,2022-12-06_15h23.46.732,vts_reward_expectancy_bt,2022.2.4,Win32,17.99305468,Chrome,1920,1080,,,,,0,812,,,,,,,,,,,,,,,,,Y,139,star,1,0,,,,,,,,,,,,,,,,repeat,number,numRpt,j,0.6901,Hi,,,,,,2,,,,,,,,low,14,0,14,0,1,,,,,,,,,
298348,2022-12-06_15h23.46.732,vts_reward_expectancy_bt,2022.2.4,Win32,17.99305468,Chrome,1920,1080,,,,,10,822,,,,,,,,,,,,,,,,,U,125,hexagon,1,0,,,,,,,,,,,,,,,,repeat,number,numRpt,j,0.6197,Lo,,,,,,2,,,,,,,,low,15,0,15,0,1,,,,,,,,,
298348,2022-12-06_15h23.46.732,vts_reward_expectancy_bt,2022.2.4,Win32,17.99305468,Chrome,1920,1080,,,,,0,822,,,,,,,,,,,,,,,,,Y,160,circle,0,0,,,,,,,,,,,,,,,,switch,letter,NA,d,0.8544,Lo,,,,,,2,,,,,,,,low,16,0,16,0,1,,,,,,,,,
298348,2022-12-06_15h23.46.732,vts_reward_expectancy_bt,2022.2.4,Win32,17.99305468,Chrome,1920,1080,,,,,0,822,,,,,,,,,,,,,,,,,W,146,star,1,1,,,,,,,,,,,,,,,,repeat,letter,lettRpt,f,0.7972,Hi,,,,,,2,,,,,,,,low,17,0,17,0,1,,,,,,,,,
298348,2022-12-06_15h23.46.732,vts_reward_expectancy_bt,2022.2.4,Win32,17.99305468,Chrome,1920,1080,,,,,0,822,,,,,,,,,,,,,,,,,B,125,triangle,0,0,,,,,,,,,,,,,,,,switch,number,NA,k,0.3572,Hi,,,,,,2,,,,,,,,low,18,0,18,0,1,,,,,,,,,
298348,2022-12-06_15h23.46.732,vts_reward_expectancy_bt,2022.2.4,Win32,17.99305468,Chrome,1920,1080,,,,,1,823,,,,,,,,,,,,,,,,,F,132,hexagon,1,1,,,,,,,,,,,,,,,,repeat,number,numRpt,j,0.6936,Lo,,,,,,2,,,,,,,,low,19,0,19,0,1,,,,,,,,,
298348,2022-12-06_15h23.46.732,vts_reward_expectancy_bt,2022.2.4,Win32,17.99305468,Chrome,1920,1080,,,,,10,833,,,,,,,,,,,,,,,,,S,139,hexagon,1,0,,,,,,,,,,,,,,,,repeat,number,numRpt,j,0.85,Lo,,,,,,2,,,,,,,,low,20,0,20,0,1,,,,,,,,,
298348,2022-12-06_15h23.46.732,vts_reward_expectancy_bt,2022.2.4,Win32,17.99305468,Chrome,1920,1080,,,,,1,834,,,,,,,,,,,,,,,,,H,174,triangle,1,0,,,,,,,,,,,,,,,,repeat,number,numRpt,k,0.6706,Lo,,,,,,2,,,,,,,,low,21,0,21,0,1,,,,,,,,,
298348,2022-12-06_15h23.46.732,vts_reward_expectancy_bt,2022.2.4,Win32,17.99305468,Chrome,1920,1080,,,,,10,844,,,,,,,,,,,,,,,,,D,181,star,1,0,,,,,,,,,,,,,,,,repeat,number,numRpt,k,0.603,Hi,,,,,,2,,,,,,,,low,22,0,22,0,1,,,,,,,,,
298348,2022-12-06_15h23.46.732,vts_reward_expectancy_bt,2022.2.4,Win32,17.99305468,Chrome,1920,1080,,,,,0,844,,,,,,,,,,,,,,,,,U,167,circle,1,0,,,,,,,,,,,,,,,,repeat,number,numRpt,k,0.9367,Hi,,,,,,2,,,,,,,,low,23,0,23,0,1,,,,,,,,,
298348,2022-12-06_15h23.46.732,vts_reward_expectancy_bt,2022.2.4,Win32,17.99305468,Chrome,1920,1080,,,,,10,854,,,,,,,,,,,,,,,,,F,132,hexagon,1,0,,,,,,,,,,,,,,,,repeat,number,numRpt,j,0.6805,Lo,,,,,,2,,,,,,,,low,24,0,24,0,1,,,,,,,,,
298348,2022-12-06_15h23.46.732,vts_reward_expectancy_bt,2022.2.4,Win32,17.99305468,Chrome,1920,1080,,,,,0,854,,,,,,,,,,,,,,,,,W,174,circle,1,0,,,,,,,,,,,,,,,,repeat,number,numRpt,k,0.7234,Hi,,,,,,2,,,,,,,,low,25,0,25,0,1,,,,,,,,,
298348,2022-12-06_15h23.46.732,vts_reward_expectancy_bt,2022.2.4,Win32,17.99305468,Chrome,1920,1080,,,,,1,855,,,,,,,,,,,,,,,,,Y,160,star,1,0,,,,,,,,,,,,,,,,repeat,number,numRpt,k,0.5793,Hi,,,,,,2,,,,,,,,low,26,0,26,0,1,,,,,,,,,
298348,2022-12-06_15h23.46.732,vts_reward_expectancy_bt,2022.2.4,Win32,17.99305468,Chrome,1920,1080,,,,,1,856,,,,,,,,,,,,,,,,,D,146,triangle,1,0,,,,,,,,,,,,,,,,repeat,number,numRpt,j,0.7419,Lo,,,,,,2,,,,,,,,low,27,0,27,0,1,,,,,,,,,
298348,2022-12-06_15h23.46.732,vts_reward_expectancy_bt,2022.2.4,Win32,17.99305468,Chrome,1920,1080,,,,,0,856,,,,,,,,,,,,,,,,,S,139,circle,1,0,,,,,,,,,,,,,,,,repeat,number,numRpt,j,0.676,Hi,,,,,,2,,,,,,,,low,28,0,28,0,1,,,,,,,,,
298348,2022-12-06_15h23.46.732,vts_reward_expectancy_bt,2022.2.4,Win32,17.99305468,Chrome,1920,1080,,,,,1,857,,,,,,,,,,,,,,,,,H,181,triangle,1,0,,,,,,,,,,,,,,,,repeat,number,numRpt,k,0.6802,Lo,,,,,,2,,,,,,,,low,29,0,29,0,1,,,,,,,,,
298348,2022-12-06_15h23.46.732,vts_reward_expectancy_bt,2022.2.4,Win32,17.99305468,Chrome,1920,1080,,,,,10,867,,,,,,,,,,,,,,,,,B,167,hexagon,1,0,,,,,,,,,,,,,,,,repeat,number,numRpt,k,0.6373,Lo,,,,,,2,,,,,,,,low,30,0,30,0,1,,,,,,,,,
298348,2022-12-06_15h23.46.732,vts_reward_expectancy_bt,2022.2.4,Win32,17.99305468,Chrome,1920,1080,,,,,0,867,,,,,,,,,,,,,,,,,U,125,star,1,0,,,,,,,,,,,,,,,,repeat,number,numRpt,j,0.8219,Hi,,,,,,2,,,,,,,,low,31,0,31,0,1,,,,,,,,,
298348,2022-12-06_15h23.46.732,vts_reward_expectancy_bt,2022.2.4,Win32,17.99305468,Chrome,1920,1080,,,,,0,867,,,,,,,,,,,,,,,,,H,181,star,1,0,,,,,,,,,,,,,,,,repeat,number,numRpt,k,0.7837,Hi,,,,,,3,,,,,,space,1.3994,low,0,0,0,0,1,,,,,,,,,
298348,2022-12-06_15h23.46.732,vts_reward_expectancy_bt,2022.2.4,Win32,17.99305468,Chrome,1920,1080,,,,,10,877,,,,,,,,,,,,,,,,,Y,139,triangle,1,0,,,,,,,,,,,,,,,,repeat,number,numRpt,j,0.751,Lo,,,,,,3,,,,,,,,low,1,0,1,0,1,,,,,,,,,
298348,2022-12-06_15h23.46.732,vts_reward_expectancy_bt,2022.2.4,Win32,17.99305468,Chrome,1920,1080,,,,,0,877,,,,,,,,,,,,,,,,,B,167,circle,1,0,,,,,,,,,,,,,,,,repeat,number,numRpt,k,0.9663,Hi,,,,,,3,,,,,,,,low,2,0,2,0,1,,,,,,,,,
298348,2022-12-06_15h23.46.732,vts_reward_expectancy_bt,2022.2.4,Win32,17.99305468,Chrome,1920,1080,,,,,1,878,,,,,,,,,,,,,,,,,S,132,hexagon,1,0,,,,,,,,,,,,,,,,repeat,number,numRpt,j,0.8357,Lo,,,,,,3,,,,,,,,low,3,0,3,0,1,,,,,,,,,
298348,2022-12-06_15h23.46.732,vts_reward_expectancy_bt,2022.2.4,Win32,17.99305468,Chrome,1920,1080,,,,,0,878,,,,,,,,,,,,,,,,,U,160,star,0,0,,,,,,,,,,,,,,,,repeat,number,NA,j,0.7902,Lo,,,,,,3,,,,,,,,low,4,0,4,0,1,,,,,,,,,
298348,2022-12-06_15h23.46.732,vts_reward_expectancy_bt,2022.2.4,Win32,17.99305468,Chrome,1920,1080,,,,,1,879,,,,,,,,,,,,,,,,,D,146,triangle,1,1,,,,,,,,,,,,,,,,repeat,number,numRpt,j,1.1755,Lo,,,,,,3,,,,,,,,low,5,0,5,0,1,,,,,,,,,
298348,2022-12-06_15h23.46.732,vts_reward_expectancy_bt,2022.2.4,Win32,17.99305468,Chrome,1920,1080,,,,,0,879,,,,,,,,,,,,,,,,,W,125,circle,1,0,,,,,,,,,,,,,,,,repeat,number,numRpt,j,0.8069,Hi,,,,,,3,,,,,,,,low,6,0,6,0,1,,,,,,,,,
298348,2022-12-06_15h23.46.732,vts_reward_expectancy_bt,2022.2.4,Win32,17.99305468,Chrome,1920,1080,,,,,1,880,,,,,,,,,,,,,,,,,F,174,hexagon,1,0,,,,,,,,,,,,,,,,repeat,number,numRpt,k,0.7806,Lo,,,,,,3,,,,,,,,low,7,0,7,0,1,,,,,,,,,
298348,2022-12-06_15h23.46.732,vts_reward_expectancy_bt,2022.2.4,Win32,17.99305468,Chrome,1920,1080,,,,,0,880,,,,,,,,,,,,,,,,,H,181,circle,1,0,,,,,,,,,,,,,,,,repeat,number,numRpt,k,0.6923,Hi,,,,,,3,,,,,,,,low,8,0,8,0,1,,,,,,,,,
298348,2022-12-06_15h23.46.732,vts_reward_expectancy_bt,2022.2.4,Win32,17.99305468,Chrome,1920,1080,,,,,1,881,,,,,,,,,,,,,,,,,Y,139,triangle,1,0,,,,,,,,,,,,,,,,repeat,number,numRpt,j,0.6785,Lo,,,,,,3,,,,,,,,low,9,0,9,0,1,,,,,,,,,
298348,2022-12-06_15h23.46.732,vts_reward_expectancy_bt,2022.2.4,Win32,17.99305468,Chrome,1920,1080,,,,,0,881,,,,,,,,,,,,,,,,,B,167,hexagon,0,0,,,,,,,,,,,,,,,,repeat,number,NA,j,0.9262,Lo,,,,,,3,,,,,,,,low,10,0,10,0,1,,,,,,,,,
298348,2022-12-06_15h23.46.732,vts_reward_expectancy_bt,2022.2.4,Win32,17.99305468,Chrome,1920,1080,,,,,0,881,,,,,,,,,,,,,,,,,S,132,star,1,1,,,,,,,,,,,,,,,,repeat,number,numRpt,j,0.7532,Hi,,,,,,3,,,,,,,,low,11,0,11,0,1,,,,,,,,,
298348,2022-12-06_15h23.46.732,vts_reward_expectancy_bt,2022.2.4,Win32,17.99305468,Chrome,1920,1080,,,,,0,881,,,,,,,,,,,,,,,,,U,160,star,1,0,,,,,,,,,,,,,,,,repeat,number,numRpt,k,0.9136,Hi,,,,,,3,,,,,,,,low,12,0,12,0,1,,,,,,,,,
298348,2022-12-06_15h23.46.732,vts_reward_expectancy_bt,2022.2.4,Win32,17.99305468,Chrome,1920,1080,,,,,0,881,,,,,,,,,,,,,,,,,D,146,circle,1,0,,,,,,,,,,,,,,,,switch,letter,lettSwt,d,1.3944,Hi,,,,,,3,,,,,,,,low,13,0,13,0,1,,,,,,,,,
298348,2022-12-06_15h23.46.732,vts_reward_expectancy_bt,2022.2.4,Win32,17.99305468,Chrome,1920,1080,,,,,1,882,,,,,,,,,,,,,,,,,W,125,hexagon,1,0,,,,,,,,,,,,,,,,switch,number,numSwt,j,0.7894,Lo,,,,,,3,,,,,,,,low,14,0,14,0,1,,,,,,,,,
298348,2022-12-06_15h23.46.732,vts_reward_expectancy_bt,2022.2.4,Win32,17.99305468,Chrome,1920,1080,,,,,1,883,,,,,,,,,,,,,,,,,F,174,triangle,1,0,,,,,,,,,,,,,,,,repeat,number,numRpt,k,0.7418,Lo,,,,,,3,,,,,,,,low,15,0,15,0,1,,,,,,,,,
298348,2022-12-06_15h23.46.732,vts_reward_expectancy_bt,2022.2.4,Win32,17.99305468,Chrome,1920,1080,,,,,10,893,,,,,,,,,,,,,,,,,S,181,star,1,0,,,,,,,,,,,,,,,,repeat,number,numRpt,k,0.6244,Hi,,,,,,3,,,,,,,,low,16,0,16,0,1,,,,,,,,,
298348,2022-12-06_15h23.46.732,vts_reward_expectancy_bt,2022.2.4,Win32,17.99305468,Chrome,1920,1080,,,,,10,903,,,,,,,,,,,,,,,,,W,167,hexagon,1,0,,,,,,,,,,,,,,,,repeat,number,numRpt,k,0.6896,Lo,,,,,,3,,,,,,,,low,17,0,17,0,1,,,,,,,,,
298348,2022-12-06_15h23.46.732,vts_reward_expectancy_bt,2022.2.4,Win32,17.99305468,Chrome,1920,1080,,,,,1,904,,,,,,,,,,,,,,,,,F,160,triangle,1,0,,,,,,,,,,,,,,,,repeat,number,numRpt,k,0.7357,Lo,,,,,,3,,,,,,,,low,18,0,18,0,1,,,,,,,,,
298348,2022-12-06_15h23.46.732,vts_reward_expectancy_bt,2022.2.4,Win32,17.99305468,Chrome,1920,1080,,,,,0,904,,,,,,,,,,,,,,,,,Y,146,circle,1,0,,,,,,,,,,,,,,,,repeat,number,numRpt,j,0.8655,Hi,,,,,,3,,,,,,,,low,19,0,19,0,1,,,,,,,,,
298348,2022-12-06_15h23.46.732,vts_reward_expectancy_bt,2022.2.4,Win32,17.99305468,Chrome,1920,1080,,,,,10,914,,,,,,,,,,,,,,,,,D,174,triangle,1,0,,,,,,,,,,,,,,,,repeat,number,numRpt,k,0.7317,Lo,,,,,,3,,,,,,,,low,20,0,20,0,1,,,,,,,,,
298348,2022-12-06_15h23.46.732,vts_reward_expectancy_bt,2022.2.4,Win32,17.99305468,Chrome,1920,1080,,,,,10,924,,,,,,,,,,,,,,,,,H,139,hexagon,1,0,,,,,,,,,,,,,,,,repeat,number,numRpt,j,0.9609,Lo,,,,,,3,,,,,,,,low,21,0,21,0,1,,,,,,,,,
298348,2022-12-06_15h23.46.732,vts_reward_expectancy_bt,2022.2.4,Win32,17.99305468,Chrome,1920,1080,,,,,0,924,,,,,,,,,,,,,,,,,B,132,circle,1,0,,,,,,,,,,,,,,,,switch,letter,lettSwt,d,1.5009,Hi,,,,,,3,,,,,,,,low,22,0,22,0,1,,,,,,,,,
298348,2022-12-06_15h23.46.732,vts_reward_expectancy_bt,2022.2.4,Win32,17.99305468,Chrome,1920,1080,,,,,0,924,,,,,,,,,,,,,,,,,U,125,star,1,0,,,,,,,,,,,,,,,,switch,number,numSwt,j,1.0797,Hi,,,,,,3,,,,,,,,low,23,0,23,0,1,,,,,,,,,
298348,2022-12-06_15h23.46.732,vts_reward_expectancy_bt,2022.2.4,Win32,17.99305468,Chrome,1920,1080,,,,,0,924,,,,,,,,,,,,,,,,,S,181,circle,1,0,,,,,,,,,,,,,,,,repeat,number,numRpt,k,0.6989,Hi,,,,,,3,,,,,,,,low,24,0,24,0,1,,,,,,,,,
298348,2022-12-06_15h23.46.732,vts_reward_expectancy_bt,2022.2.4,Win32,17.99305468,Chrome,1920,1080,,,,,0,924,,,,,,,,,,,,,,,,,F,174,star,1,0,,,,,,,,,,,,,,,,repeat,number,numRpt,k,0.9611,Hi,,,,,,3,,,,,,,,low,25,0,25,0,1,,,,,,,,,
298348,2022-12-06_15h23.46.732,vts_reward_expectancy_bt,2022.2.4,Win32,17.99305468,Chrome,1920,1080,,,,,1,925,,,,,,,,,,,,,,,,,B,139,triangle,1,0,,,,,,,,,,,,,,,,repeat,number,numRpt,j,0.6112,Lo,,,,,,3,,,,,,,,low,26,0,26,0,1,,,,,,,,,
298348,2022-12-06_15h23.46.732,vts_reward_expectancy_bt,2022.2.4,Win32,17.99305468,Chrome,1920,1080,,,,,1,926,,,,,,,,,,,,,,,,,H,160,hexagon,1,0,,,,,,,,,,,,,,,,repeat,number,numRpt,k,0.5091,Lo,,,,,,3,,,,,,,,low,27,0,27,0,1,,,,,,,,,
298348,2022-12-06_15h23.46.732,vts_reward_expectancy_bt,2022.2.4,Win32,17.99305468,Chrome,1920,1080,,,,,0,926,,,,,,,,,,,,,,,,,Y,146,star,1,0,,,,,,,,,,,,,,,,repeat,number,numRpt,j,0.737,Hi,,,,,,3,,,,,,,,low,28,0,28,0,1,,,,,,,,,
298348,2022-12-06_15h23.46.732,vts_reward_expectancy_bt,2022.2.4,Win32,17.99305468,Chrome,1920,1080,,,,,0,926,,,,,,,,,,,,,,,,,W,132,circle,1,0,,,,,,,,,,,,,,,,repeat,number,numRpt,j,0.675,Hi,,,,,,3,,,,,,,,low,29,0,29,0,1,,,,,,,,,
298348,2022-12-06_15h23.46.732,vts_reward_expectancy_bt,2022.2.4,Win32,17.99305468,Chrome,1920,1080,,,,,1,927,,,,,,,,,,,,,,,,,U,125,triangle,1,0,,,,,,,,,,,,,,,,repeat,number,numRpt,j,0.5955,Lo,,,,,,3,,,,,,,,low,30,0,30,0,1,,,,,,,,,
298348,2022-12-06_15h23.46.732,vts_reward_expectancy_bt,2022.2.4,Win32,17.99305468,Chrome,1920,1080,,,,,1,928,,,,,,,,,,,,,,,,,D,167,hexagon,1,0,,,,,,,,,,,,,,,,repeat,number,numRpt,k,0.604,Lo,,,,,,3,,,,,,,,low,31,0,31,0,1,,,,,,,,,
298348,2022-12-06_15h23.46.732,vts_reward_expectancy_bt,2022.2.4,Win32,17.99305468,Chrome,1920,1080,,,,,0,928,,,,,,,,,,,,,,,,,S,160,circle,0,0,,,,,,,,,,,,,,,,repeat,number,NA,j,0.8913,Lo,,,,,,4,,,,,,space,4.3925,low,0,0,0,0,1,,,,,,,,,
298348,2022-12-06_15h23.46.732,vts_reward_expectancy_bt,2022.2.4,Win32,17.99305468,Chrome,1920,1080,,,,,10,938,,,,,,,,,,,,,,,,,D,167,triangle,1,1,,,,,,,,,,,,,,,,repeat,number,numRpt,k,0.8386,Lo,,,,,,4,,,,,,,,low,1,0,1,0,1,,,,,,,,,
298348,2022-12-06_15h23.46.732,vts_reward_expectancy_bt,2022.2.4,Win32,17.99305468,Chrome,1920,1080,,,,,10,948,,,,,,,,,,,,,,,,,B,132,star,1,0,,,,,,,,,,,,,,,,repeat,number,numRpt,j,0.6815,Hi,,,,,,4,,,,,,,,low,2,0,2,0,1,,,,,,,,,
298348,2022-12-06_15h23.46.732,vts_reward_expectancy_bt,2022.2.4,Win32,17.99305468,Chrome,1920,1080,,,,,1,949,,,,,,,,,,,,,,,,,F,181,hexagon,1,0,,,,,,,,,,,,,,,,repeat,number,numRpt,k,0.6204,Lo,,,,,,4,,,,,,,,low,3,0,3,0,1,,,,,,,,,
298348,2022-12-06_15h23.46.732,vts_reward_expectancy_bt,2022.2.4,Win32,17.99305468,Chrome,1920,1080,,,,,0,949,,,,,,,,,,,,,,,,,W,139,circle,1,0,,,,,,,,,,,,,,,,repeat,number,numRpt,j,0.7478,Hi,,,,,,4,,,,,,,,low,4,0,4,0,1,,,,,,,,,
298348,2022-12-06_15h23.46.732,vts_reward_expectancy_bt,2022.2.4,Win32,17.99305468,Chrome,1920,1080,,,,,1,950,,,,,,,,,,,,,,,,,U,174,triangle,1,0,,,,,,,,,,,,,,,,repeat,number,numRpt,k,0.5687,Lo,,,,,,4,,,,,,,,low,5,0,5,0,1,,,,,,,,,
298348,2022-12-06_15h23.46.732,vts_reward_expectancy_bt,2022.2.4,Win32,17.99305468,Chrome,1920,1080,,,,,0,950,,,,,,,,,,,,,,,,,Y,146,star,1,0,,,,,,,,,,,,,,,,repeat,number,numRpt,j,0.7308,Hi,,,,,,4,,,,,,,,low,6,0,6,0,1,,,,,,,,,
298348,2022-12-06_15h23.46.732,vts_reward_expectancy_bt,2022.2.4,Win32,17.99305468,Chrome,1920,1080,,,,,10,960,,,,,,,,,,,,,,,,,H,125,hexagon,1,0,,,,,,,,,,,,,,,,repeat,number,numRpt,j,0.6163,Lo,,,,,,4,,,,,,,,low,7,0,7,0,1,,,,,,,,,
298348,2022-12-06_15h23.46.732,vts_reward_expectancy_bt,2022.2.4,Win32,17.99305468,Chrome,1920,1080,,,,,0,960,,,,,,,,,,,,,,,,,S,160,triangle,0,0,,,,,,,,,,,,,,,,repeat,number,NA,j,0.6835,Lo,,,,,,4,,,,,,,,low,8,0,8,0,1,,,,,,,,,
298348,2022-12-06_15h23.46.732,vts_reward_expectancy_bt,2022.2.4,Win32,17.99305468,Chrome,1920,1080,,,,,0,960,,,,,,,,,,,,,,,,,D,167,star,1,1,,,,,,,,,,,,,,,,repeat,number,numRpt,k,0.7337,Hi,,,,,,4,,,,,,,,low,9,0,9,0,1,,,,,,,,,
298348,2022-12-06_15h23.46.732,vts_reward_expectancy_bt,2022.2.4,Win32,17.99305468,Chrome,1920,1080,,,,,10,970,,,,,,,,,,,,,,,,,B,132,circle,1,0,,,,,,,,,,,,,,,,repeat,number,numRpt,j,0.5695,Hi,,,,,,4,,,,,,,,low,10,0,10,0,1,,,,,,,,,
298348,2022-12-06_15h23.46.732,vts_reward_expectancy_bt,2022.2.4,Win32,17.99305468,Chrome,1920,1080,,,,,1,971,,,,,,,,,,,,,,,,,F,181,hexagon,1,0,,,,,,,,,,,,,,,,repeat,number,numRpt,k,0.6363,Lo,,,,,,4,,,,,,,,low,11,0,11,0,1,,,,,,,,,
298348,2022-12-06_15h23.46.732,vts_reward_expectancy_bt,2022.2.4,Win32,17.99305468,Chrome,1920,1080,,,,,1,972,,,,,,,,,,,,,,,,,W,139,circle,1,0,,,,,,,,,,,,,,,,repeat,number,numRpt,j,0.6325,Hi,,,,,,4,,,,,,,,low,12,0,12,0,1,,,,,,,,,
298348,2022-12-06_15h23.46.732,vts_reward_expectancy_bt,2022.2.4,Win32,17.99305468,Chrome,1920,1080,,,,,10,982,,,,,,,,,,,,,,,,,U,174,triangle,1,0,,,,,,,,,,,,,,,,repeat,number,numRpt,k,0.5709,Lo,,,,,,4,,,,,,,,low,13,0,13,0,1,,,,,,,,,
298348,2022-12-06_15h23.46.732,vts_reward_expectancy_bt,2022.2.4,Win32,17.99305468,Chrome,1920,1080,,,,,0,982,,,,,,,,,,,,,,,,,Y,146,star,1,0,,,,,,,,,,,,,,,,repeat,number,numRpt,j,0.7545,Hi,,,,,,4,,,,,,,,low,14,0,14,0,1,,,,,,,,,
298348,2022-12-06_15h23.46.732,vts_reward_expectancy_bt,2022.2.4,Win32,17.99305468,Chrome,1920,1080,,,,,1,983,,,,,,,,,,,,,,,,,H,125,hexagon,1,0,,,,,,,,,,,,,,,,repeat,number,numRpt,j,0.6751,Lo,,,,,,4,,,,,,,,low,15,0,15,0,1,,,,,,,,,
298348,2022-12-06_15h23.46.732,vts_reward_expectancy_bt,2022.2.4,Win32,17.99305468,Chrome,1920,1080,,,,,10,993,,,,,,,,,,,,,,,,,Y,132,triangle,1,0,,,,,,,,,,,,,,,,repeat,number,numRpt,j,0.6901,Lo,,,,,,4,,,,,,,,low,16,0,16,0,1,,,,,,,,,
298348,2022-12-06_15h23.46.732,vts_reward_expectancy_bt,2022.2.4,Win32,17.99305468,Chrome,1920,1080,,,,,1,994,,,,,,,,,,,,,,,,,S,181,hexagon,1,0,,,,,,,,,,,,,,,,repeat,number,numRpt,k,0.7274,Lo,,,,,,4,,,,,,,,low,17,0,17,0,1,,,,,,,,,
298348,2022-12-06_15h23.46.732,vts_reward_expectancy_bt,2022.2.4,Win32,17.99305468,Chrome,1920,1080,,,,,0,994,,,,,,,,,,,,,,,,,U,174,star,1,0,,,,,,,,,,,,,,,,repeat,number,numRpt,k,0.703,Hi,,,,,,4,,,,,,,,low,18,0,18,0,1,,,,,,,,,
298348,2022-12-06_15h23.46.732,vts_reward_expectancy_bt,2022.2.4,Win32,17.99305468,Chrome,1920,1080,,,,,1,995,,,,,,,,,,,,,,,,,W,167,circle,1,0,,,,,,,,,,,,,,,,repeat,number,numRpt,k,0.6269,Hi,,,,,,4,,,,,,,,low,19,0,19,0,1,,,,,,,,,
298348,2022-12-06_15h23.46.732,vts_reward_expectancy_bt,2022.2.4,Win32,17.99305468,Chrome,1920,1080,,,,,0,995,,,,,,,,,,,,,,,,,H,139,star,0,0,,,,,,,,,,,,,,,,switch,letter,NA,f,0.6319,Hi,,,,,,4,,,,,,,,low,20,0,20,0,1,,,,,,,,,
298348,2022-12-06_15h23.46.732,vts_reward_expectancy_bt,2022.2.4,Win32,17.99305468,Chrome,1920,1080,,,,,10,1005,,,,,,,,,,,,,,,,,B,146,circle,1,1,,,,,,,,,,,,,,,,repeat,letter,lettRpt,d,0.8612,Hi,,,,,,4,,,,,,,,low,21,0,21,0,1,,,,,,,,,
298348,2022-12-06_15h23.46.732,vts_reward_expectancy_bt,2022.2.4,Win32,17.99305468,Chrome,1920,1080,,,,,0,1005,,,,,,,,,,,,,,,,,D,160,hexagon,0,0,,,,,,,,,,,,,,,,repeat,letter,NA,f,1.1354,Hi,,,,,,4,,,,,,,,low,22,0,22,0,1,,,,,,,,,
298348,2022-12-06_15h23.46.732,vts_reward_expectancy_bt,2022.2.4,Win32,17.99305468,Chrome,1920,1080,,,,,0,1005,,,,,,,,,,,,,,,,,F,125,triangle,0,1,,,,,,,,,,,,,,,,repeat,letter,NA,f,1.2594,Hi,,,,,,4,,,,,,,,low,23,0,23,0,1,,,,,,,,,
298348,2022-12-06_15h23.46.732,vts_reward_expectancy_bt,2022.2.4,Win32,17.99305468,Chrome,1920,1080,,,,,10,1015,,,,,,,,,,,,,,,,,F,132,triangle,1,1,,,,,,,,,,,,,,,,switch,number,numSwt,j,1.2351,Lo,,,,,,4,,,,,,,,low,24,0,24,0,1,,,,,,,,,
298348,2022-12-06_15h23.46.732,vts_reward_expectancy_bt,2022.2.4,Win32,17.99305468,Chrome,1920,1080,,,,,1,1016,,,,,,,,,,,,,,,,,Y,139,hexagon,1,0,,,,,,,,,,,,,,,,repeat,number,numRpt,j,1.6263,Lo,,,,,,4,,,,,,,,low,25,0,25,0,1,,,,,,,,,
298348,2022-12-06_15h23.46.732,vts_reward_expectancy_bt,2022.2.4,Win32,17.99305468,Chrome,1920,1080,,,,,0,1016,,,,,,,,,,,,,,,,,S,181,star,1,0,,,,,,,,,,,,,,,,repeat,number,numRpt,k,0.8242,Hi,,,,,,4,,,,,,,,low,26,0,26,0,1,,,,,,,,,
298348,2022-12-06_15h23.46.732,vts_reward_expectancy_bt,2022.2.4,Win32,17.99305468,Chrome,1920,1080,,,,,0,1016,,,,,,,,,,,,,,,,,D,167,circle,1,0,,,,,,,,,,,,,,,,repeat,number,numRpt,k,0.7688,Hi,,,,,,4,,,,,,,,low,27,0,27,0,1,,,,,,,,,
298348,2022-12-06_15h23.46.732,vts_reward_expectancy_bt,2022.2.4,Win32,17.99305468,Chrome,1920,1080,,,,,1,1017,,,,,,,,,,,,,,,,,U,160,triangle,1,0,,,,,,,,,,,,,,,,repeat,number,numRpt,k,1.0336,Lo,,,,,,4,,,,,,,,low,28,0,28,0,1,,,,,,,,,
298348,2022-12-06_15h23.46.732,vts_reward_expectancy_bt,2022.2.4,Win32,17.99305468,Chrome,1920,1080,,,,,10,1027,,,,,,,,,,,,,,,,,W,146,hexagon,1,0,,,,,,,,,,,,,,,,repeat,number,numRpt,j,0.8857,Lo,,,,,,4,,,,,,,,low,29,0,29,0,1,,,,,,,,,
298348,2022-12-06_15h23.46.732,vts_reward_expectancy_bt,2022.2.4,Win32,17.99305468,Chrome,1920,1080,,,,,0,1027,,,,,,,,,,,,,,,,,H,125,circle,1,0,,,,,,,,,,,,,,,,repeat,number,numRpt,j,0.9302,Hi,,,,,,4,,,,,,,,low,30,0,30,0,1,,,,,,,,,
298348,2022-12-06_15h23.46.732,vts_reward_expectancy_bt,2022.2.4,Win32,17.99305468,Chrome,1920,1080,,,,,1,1028,,,,,,,,,,,,,,,,,B,174,star,1,0,,,,,,,,,,,,,,,,repeat,number,numRpt,k,0.6732,Hi,,,,,,4,,,,,,,,low,31,0,31,0,1,,,,,,,,,
298348,2022-12-06_15h23.46.732,vts_reward_expectancy_bt,2022.2.4,Win32,17.99305468,Chrome,1920,1080,,,,,10,1038,,,,,,,,,,,,,,,,,B,174,circle,1,0,,,,,,,,,,,,,,,,repeat,number,numRpt,k,0.6042,Hi,,,,,,5,,,,,,space,13.6969,low,0,0,0,0,1,,,,,,,,,
298348,2022-12-06_15h23.46.732,vts_reward_expectancy_bt,2022.2.4,Win32,17.99305468,Chrome,1920,1080,,,,,0,1038,,,,,,,,,,,,,,,,,U,139,triangle,0,0,,,,,,,,,,,,,,,,switch,letter,NA,d,0.7771,Hi,,,,,,5,,,,,,,,low,1,0,1,0,1,,,,,,,,,
298348,2022-12-06_15h23.46.732,vts_reward_expectancy_bt,2022.2.4,Win32,17.99305468,Chrome,1920,1080,,,,,0,1038,,,,,,,,,,,,,,,,,H,132,hexagon,0,1,,,,,,,,,,,,,,,,repeat,letter,NA,f,0.9422,Hi,,,,,,5,,,,,,,,low,2,0,2,0,1,,,,,,,,,
298348,2022-12-06_15h23.46.732,vts_reward_expectancy_bt,2022.2.4,Win32,17.99305468,Chrome,1920,1080,,,,,1,1039,,,,,,,,,,,,,,,,,D,125,star,1,1,,,,,,,,,,,,,,,,repeat,letter,lettRpt,d,0.7234,Hi,,,,,,5,,,,,,,,low,3,0,3,0,1,,,,,,,,,
298348,2022-12-06_15h23.46.732,vts_reward_expectancy_bt,2022.2.4,Win32,17.99305468,Chrome,1920,1080,,,,,10,1049,,,,,,,,,,,,,,,,,Y,146,circle,1,0,,,,,,,,,,,,,,,,switch,number,numSwt,j,0.6748,Hi,,,,,,5,,,,,,,,low,4,0,4,0,1,,,,,,,,,
298348,2022-12-06_15h23.46.732,vts_reward_expectancy_bt,2022.2.4,Win32,17.99305468,Chrome,1920,1080,,,,,0,1049,,,,,,,,,,,,,,,,,S,181,triangle,0,0,,,,,,,,,,,,,,,,repeat,number,NA,j,0.7393,Hi,,,,,,5,,,,,,,,low,5,0,5,0,1,,,,,,,,,
298348,2022-12-06_15h23.46.732,vts_reward_expectancy_bt,2022.2.4,Win32,17.99305468,Chrome,1920,1080,,,,,0,1049,,,,,,,,,,,,,,,,,F,167,hexagon,0,1,,,,,,,,,,,,,,,,repeat,number,NA,j,0.8474,Hi,,,,,,5,,,,,,,,low,6,0,6,0,1,,,,,,,,,
298348,2022-12-06_15h23.46.732,vts_reward_expectancy_bt,2022.2.4,Win32,17.99305468,Chrome,1920,1080,,,,,0,1049,,,,,,,,,,,,,,,,,W,160,star,1,1,,,,,,,,,,,,,,,,repeat,number,numRpt,k,0.9056,Hi,,,,,,5,,,,,,,,low,7,0,7,0,1,,,,,,,,,
298348,2022-12-06_15h23.46.732,vts_reward_expectancy_bt,2022.2.4,Win32,17.99305468,Chrome,1920,1080,,,,,1,1050,,,,,,,,,,,,,,,,,B,174,triangle,1,0,,,,,,,,,,,,,,,,repeat,number,numRpt,k,0.7012,Lo,,,,,,5,,,,,,,,low,8,0,8,0,1,,,,,,,,,
298348,2022-12-06_15h23.46.732,vts_reward_expectancy_bt,2022.2.4,Win32,17.99305468,Chrome,1920,1080,,,,,0,1050,,,,,,,,,,,,,,,,,U,139,circle,0,0,,,,,,,,,,,,,,,,switch,letter,NA,d,0.8708,Lo,,,,,,5,,,,,,,,low,9,0,9,0,1,,,,,,,,,
298348,2022-12-06_15h23.46.732,vts_reward_expectancy_bt,2022.2.4,Win32,17.99305468,Chrome,1920,1080,,,,,0,1050,,,,,,,,,,,,,,,,,H,132,hexagon,0,1,,,,,,,,,,,,,,,,repeat,letter,NA,f,0.8588,Lo,,,,,,5,,,,,,,,low,10,0,10,0,1,,,,,,,,,
298348,2022-12-06_15h23.46.732,vts_reward_expectancy_bt,2022.2.4,Win32,17.99305468,Chrome,1920,1080,,,,,0,1050,,,,,,,,,,,,,,,,,D,125,star,1,1,,,,,,,,,,,,,,,,repeat,letter,lettRpt,d,1.2356,Hi,,,,,,5,,,,,,,,low,11,0,11,0,1,,,,,,,,,
298348,2022-12-06_15h23.46.732,vts_reward_expectancy_bt,2022.2.4,Win32,17.99305468,Chrome,1920,1080,,,,,0,1050,,,,,,,,,,,,,,,,,Y,146,triangle,0,0,,,,,,,,,,,,,,,,switch,number,NA,k,1.0564,Hi,,,,,,5,,,,,,,,low,12,0,12,0,1,,,,,,,,,
298348,2022-12-06_15h23.46.732,vts_reward_expectancy_bt,2022.2.4,Win32,17.99305468,Chrome,1920,1080,,,,,0,1050,,,,,,,,,,,,,,,,,S,181,star,1,1,,,,,,,,,,,,,,,,repeat,number,numRpt,k,0.9218,Hi,,,,,,5,,,,,,,,low,13,0,13,0,1,,,,,,,,,
298348,2022-12-06_15h23.46.732,vts_reward_expectancy_bt,2022.2.4,Win32,17.99305468,Chrome,1920,1080,,,,,0,1050,,,,,,,,,,,,,,,,,F,167,circle,0,0,,,,,,,,,,,,,,,,repeat,number,NA,j,0.6993,Hi,,,,,,5,,,,,,,,low,14,0,14,0,1,,,,,,,,,
298348,2022-12-06_15h23.46.732,vts_reward_expectancy_bt,2022.2.4,Win32,17.99305468,Chrome,1920,1080,,,,,1,1051,,,,,,,,,,,,,,,,,W,160,hexagon,1,1,,,,,,,,,,,,,,,,repeat,number,numRpt,k,1.1297,Lo,,,,,,5,,,,,,,,low,15,0,15,0,1,,,,,,,,,
298348,2022-12-06_15h23.46.732,vts_reward_expectancy_bt,2022.2.4,Win32,17.99305468,Chrome,1920,1080,,,,,0,1051,,,,,,,,,,,,,,,,,Y,132,triangle,0,0,,,,,,,,,,,,,,,,switch,letter,NA,d,1.0451,Lo,,,,,,5,,,,,,,,low,16,0,16,0,1,,,,,,,,,
298348,2022-12-06_15h23.46.732,vts_reward_expectancy_bt,2022.2.4,Win32,17.99305468,Chrome,1920,1080,,,,,1,1052,,,,,,,,,,,,,,,,,U,125,circle,1,1,,,,,,,,,,,,,,,,switch,number,numSwt,j,0.7399,Hi,,,,,,5,,,,,,,,low,17,0,17,0,1,,,,,,,,,
298348,2022-12-06_15h23.46.732,vts_reward_expectancy_bt,2022.2.4,Win32,17.99305468,Chrome,1920,1080,,,,,1,1053,,,,,,,,,,,,,,,,,D,167,star,1,0,,,,,,,,,,,,,,,,switch,letter,lettSwt,d,0.679,Hi,,,,,,5,,,,,,,,low,18,0,18,0,1,,,,,,,,,
298348,2022-12-06_15h23.46.732,vts_reward_expectancy_bt,2022.2.4,Win32,17.99305468,Chrome,1920,1080,,,,,1,1054,,,,,,,,,,,,,,,,,F,160,hexagon,1,0,,,,,,,,,,,,,,,,switch,number,numSwt,k,1.0218,Lo,,,,,,5,,,,,,,,low,19,0,19,0,1,,,,,,,,,
298348,2022-12-06_15h23.46.732,vts_reward_expectancy_bt,2022.2.4,Win32,17.99305468,Chrome,1920,1080,,,,,10,1064,,,,,,,,,,,,,,,,,W,174,circle,1,0,,,,,,,,,,,,,,,,switch,letter,lettSwt,f,1.0292,Hi,,,,,,5,,,,,,,,low,20,0,20,0,1,,,,,,,,,
298348,2022-12-06_15h23.46.732,vts_reward_expectancy_bt,2022.2.4,Win32,17.99305468,Chrome,1920,1080,,,,,1,1065,,,,,,,,,,,,,,,,,S,139,star,1,0,,,,,,,,,,,,,,,,switch,number,numSwt,j,0.7943,Hi,,,,,,5,,,,,,,,low,21,0,21,0,1,,,,,,,,,
298348,2022-12-06_15h23.46.732,vts_reward_expectancy_bt,2022.2.4,Win32,17.99305468,Chrome,1920,1080,,,,,10,1075,,,,,,,,,,,,,,,,,B,146,triangle,1,0,,,,,,,,,,,,,,,,repeat,number,numRpt,j,0.9847,Lo,,,,,,5,,,,,,,,low,22,0,22,0,1,,,,,,,,,
298348,2022-12-06_15h23.46.732,vts_reward_expectancy_bt,2022.2.4,Win32,17.99305468,Chrome,1920,1080,,,,,1,1076,,,,,,,,,,,,,,,,,H,181,hexagon,1,0,,,,,,,,,,,,,,,,repeat,number,numRpt,k,0.8336,Lo,,,,,,5,,,,,,,,low,23,0,23,0,1,,,,,,,,,
298348,2022-12-06_15h23.46.732,vts_reward_expectancy_bt,2022.2.4,Win32,17.99305468,Chrome,1920,1080,,,,,0,1076,,,,,,,,,,,,,,,,,W,146,star,1,0,,,,,,,,,,,,,,,,repeat,number,numRpt,j,0.7873,Hi,,,,,,5,,,,,,,,low,24,0,24,0,1,,,,,,,,,
298348,2022-12-06_15h23.46.732,vts_reward_expectancy_bt,2022.2.4,Win32,17.99305468,Chrome,1920,1080,,,,,0,1076,,,,,,,,,,,,,,,,,D,167,circle,1,0,,,,,,,,,,,,,,,,repeat,number,numRpt,k,1.1884,Hi,,,,,,5,,,,,,,,low,25,0,25,0,1,,,,,,,,,
298348,2022-12-06_15h23.46.732,vts_reward_expectancy_bt,2022.2.4,Win32,17.99305468,Chrome,1920,1080,,,,,1,1077,,,,,,,,,,,,,,,,,S,139,hexagon,1,0,,,,,,,,,,,,,,,,repeat,number,numRpt,j,1.1286,Lo,,,,,,5,,,,,,,,low,26,0,26,0,1,,,,,,,,,
298348,2022-12-06_15h23.46.732,vts_reward_expectancy_bt,2022.2.4,Win32,17.99305468,Chrome,1920,1080,,,,,1,1078,,,,,,,,,,,,,,,,,F,160,triangle,1,0,,,,,,,,,,,,,,,,repeat,number,numRpt,k,0.9103,Lo,,,,,,5,,,,,,,,low,27,0,27,0,1,,,,,,,,,
298348,2022-12-06_15h23.46.732,vts_reward_expectancy_bt,2022.2.4,Win32,17.99305468,Chrome,1920,1080,,,,,0,1078,,,,,,,,,,,,,,,,,U,174,circle,1,0,,,,,,,,,,,,,,,,repeat,number,numRpt,k,0.7703,Hi,,,,,,5,,,,,,,,low,28,0,28,0,1,,,,,,,,,
298348,2022-12-06_15h23.46.732,vts_reward_expectancy_bt,2022.2.4,Win32,17.99305468,Chrome,1920,1080,,,,,1,1079,,,,,,,,,,,,,,,,,B,181,hexagon,1,0,,,,,,,,,,,,,,,,repeat,number,numRpt,k,0.8495,Lo,,,,,,5,,,,,,,,low,29,0,29,0,1,,,,,,,,,
