participant,date,expName,psychopyVersion,OS,frameRate,browser,xResolution,yResolution,key_resp.keys,key_resp.rt,training_resp.keys,training_resp.rt,points_trial,points_cumul,trainBlock,training.thisRepN,training.thisTrialN,training.thisN,training.thisIndex,training.ran,LTriangleOpac,LCircleOpac,LHexagonOpac,LStarOpac,RTriangleOpac,RCircleOpac,RHexagonOpac,RStarOpac,LShape_ID,RShape_ID,curr_topStim,curr_bottStim,curr_shape,acc,E1,target_resp_prac1.keys,target_resp_prac1.rt,pracBlock,task1_prac_trials.thisRepN,task1_prac_trials.thisTrialN,task1_prac_trials.thisN,task1_prac_trials.thisIndex,task1_prac_trials.ran,target_resp_prac2.keys,target_resp_prac2.rt,task2_praac_trials.thisRepN,task2_praac_trials.thisTrialN,task2_praac_trials.thisN,task2_praac_trials.thisIndex,task2_praac_trials.ran,alt,task,condition,target_resp.keys,target_resp.rt,rewCond,vts_practice_trials.thisRepN,vts_practice_trials.thisTrialN,vts_practice_trials.thisN,vts_practice_trials.thisIndex,vts_practice_trials.ran,blockNum,trials_norew.thisRepN,trials_norew.thisTrialN,trials_norew.thisN,trials_norew.thisIndex,trials_norew.ran,key_resp_2.keys,key_resp_2.rt,rewExpectancy,trials_rew.thisRepN,trials_rew.thisTrialN,trials_rew.thisN,trials_rew.thisIndex,trials_rew.ran,Q1,Q2,Q2_text,Q3,Q4,Q5,Q5_text,xRes,yRes
298336,2022-12-05_18h09.20.611,vts_reward_expectancy_bt,2022.2.4,Win32,144.1337561,Chrome,1920,1080,,,,,,,,,,,,,,,,,,,,,,,,,,,,,,,,,,,,,,,,,,,,,,,,,,,,,,,,,,,,,,,,,,,,,,,,,,,,
298336,2022-12-05_18h09.20.611,vts_reward_expectancy_bt,2022.2.4,Win32,144.1337561,Chrome,1920,1080,space,11.6606,,,,,,,,,,,,,,,,,,,,,,,,,,,,,,,,,,,,,,,,,,,,,,,,,,,,,,,,,,,,,,,,,,,,,,,,,,
298336,2022-12-05_18h09.20.611,vts_reward_expectancy_bt,2022.2.4,Win32,144.1337561,Chrome,1920,1080,,,,,,,,,,,,,,,,,,,,,,,,,,,,,,,,,,,,,,,,,,,,,,,,,,,,,,,,,,,,,,,,,,,,,,,,,,,,
298336,2022-12-05_18h09.20.611,vts_reward_expectancy_bt,2022.2.4,Win32,144.1337561,Chrome,1920,1080,,,a,4.4781,1,1,0,0,0,0,6,1,0,0,1,0,1,0,0,0,hexagon,triangle,,,,,,,,,,,,,,,,,,,,,,,,,,,,,,,,,,,,,,,,,,,,,,,,,,,,,,
298336,2022-12-05_18h09.20.611,vts_reward_expectancy_bt,2022.2.4,Win32,144.1337561,Chrome,1920,1080,,,l,2.7786,10,11,0,0,1,1,10,1,0,0,0,1,0,1,0,0,star ,circle,,,,,,,,,,,,,,,,,,,,,,,,,,,,,,,,,,,,,,,,,,,,,,,,,,,,,,
298336,2022-12-05_18h09.20.611,vts_reward_expectancy_bt,2022.2.4,Win32,144.1337561,Chrome,1920,1080,,,l,9.3883,1,12,0,0,2,2,8,1,0,0,1,0,0,0,0,1,hexagon,star,,,,,,,,,,,,,,,,,,,,,,,,,,,,,,,,,,,,,,,,,,,,,,,,,,,,,,
298336,2022-12-05_18h09.20.611,vts_reward_expectancy_bt,2022.2.4,Win32,144.1337561,Chrome,1920,1080,,,l,2.0711,1,13,0,0,3,3,7,1,0,0,1,0,0,1,0,0,hexagon,circle,,,,,,,,,,,,,,,,,,,,,,,,,,,,,,,,,,,,,,,,,,,,,,,,,,,,,,
298336,2022-12-05_18h09.20.611,vts_reward_expectancy_bt,2022.2.4,Win32,144.1337561,Chrome,1920,1080,,,l,4.1678,10,23,0,0,4,4,1,1,1,0,0,0,0,0,1,0,triangle,hexagon,,,,,,,,,,,,,,,,,,,,,,,,,,,,,,,,,,,,,,,,,,,,,,,,,,,,,,
298336,2022-12-05_18h09.20.611,vts_reward_expectancy_bt,2022.2.4,Win32,144.1337561,Chrome,1920,1080,,,a,10.9651,1,24,0,0,5,5,2,1,1,0,0,0,0,0,0,1,triangle,star,,,,,,,,,,,,,,,,,,,,,,,,,,,,,,,,,,,,,,,,,,,,,,,,,,,,,,
298336,2022-12-05_18h09.20.611,vts_reward_expectancy_bt,2022.2.4,Win32,144.1337561,Chrome,1920,1080,,,l,6.0423,1,25,0,0,6,6,9,1,0,0,0,1,1,0,0,0,star,triangle,,,,,,,,,,,,,,,,,,,,,,,,,,,,,,,,,,,,,,,,,,,,,,,,,,,,,,
298336,2022-12-05_18h09.20.611,vts_reward_expectancy_bt,2022.2.4,Win32,144.1337561,Chrome,1920,1080,,,l,15.8218,10,35,0,0,7,7,0,1,1,0,0,0,0,1,0,0,triangle,circle,,,,,,,,,,,,,,,,,,,,,,,,,,,,,,,,,,,,,,,,,,,,,,,,,,,,,,
298336,2022-12-05_18h09.20.611,vts_reward_expectancy_bt,2022.2.4,Win32,144.1337561,Chrome,1920,1080,,,l,3.5974,1,36,0,0,8,8,3,1,0,1,0,0,1,0,0,0,circle,triangle,,,,,,,,,,,,,,,,,,,,,,,,,,,,,,,,,,,,,,,,,,,,,,,,,,,,,,
298336,2022-12-05_18h09.20.611,vts_reward_expectancy_bt,2022.2.4,Win32,144.1337561,Chrome,1920,1080,,,l,11.3698,10,46,0,0,9,9,4,1,0,1,0,0,0,0,1,0,circle,hexagon,,,,,,,,,,,,,,,,,,,,,,,,,,,,,,,,,,,,,,,,,,,,,,,,,,,,,,
298336,2022-12-05_18h09.20.611,vts_reward_expectancy_bt,2022.2.4,Win32,144.1337561,Chrome,1920,1080,,,l,2.2161,10,56,0,0,10,10,11,1,0,0,0,1,0,0,1,0,star,hexagon,,,,,,,,,,,,,,,,,,,,,,,,,,,,,,,,,,,,,,,,,,,,,,,,,,,,,,
298336,2022-12-05_18h09.20.611,vts_reward_expectancy_bt,2022.2.4,Win32,144.1337561,Chrome,1920,1080,,,l,3.7194,10,66,0,0,11,11,5,1,0,1,0,0,0,0,0,1,circle,star,,,,,,,,,,,,,,,,,,,,,,,,,,,,,,,,,,,,,,,,,,,,,,,,,,,,,,
298336,2022-12-05_18h09.20.611,vts_reward_expectancy_bt,2022.2.4,Win32,144.1337561,Chrome,1920,1080,,,l,1.1809,10,76,0,1,0,12,2,1,1,0,0,0,0,0,0,1,triangle,star,,,,,,,,,,,,,,,,,,,,,,,,,,,,,,,,,,,,,,,,,,,,,,,,,,,,,,
298336,2022-12-05_18h09.20.611,vts_reward_expectancy_bt,2022.2.4,Win32,144.1337561,Chrome,1920,1080,,,l,3.0215,1,77,0,1,1,13,3,1,0,1,0,0,1,0,0,0,circle,triangle,,,,,,,,,,,,,,,,,,,,,,,,,,,,,,,,,,,,,,,,,,,,,,,,,,,,,,
298336,2022-12-05_18h09.20.611,vts_reward_expectancy_bt,2022.2.4,Win32,144.1337561,Chrome,1920,1080,,,l,2.8611,10,87,0,1,2,14,7,1,0,0,1,0,0,1,0,0,hexagon,circle,,,,,,,,,,,,,,,,,,,,,,,,,,,,,,,,,,,,,,,,,,,,,,,,,,,,,,
298336,2022-12-05_18h09.20.611,vts_reward_expectancy_bt,2022.2.4,Win32,144.1337561,Chrome,1920,1080,,,l,4.4097,1,88,0,1,3,15,11,1,0,0,0,1,0,0,1,0,star,hexagon,,,,,,,,,,,,,,,,,,,,,,,,,,,,,,,,,,,,,,,,,,,,,,,,,,,,,,
298336,2022-12-05_18h09.20.611,vts_reward_expectancy_bt,2022.2.4,Win32,144.1337561,Chrome,1920,1080,,,l,3.4695,10,98,0,1,4,16,8,1,0,0,1,0,0,0,0,1,hexagon,star,,,,,,,,,,,,,,,,,,,,,,,,,,,,,,,,,,,,,,,,,,,,,,,,,,,,,,
298336,2022-12-05_18h09.20.611,vts_reward_expectancy_bt,2022.2.4,Win32,144.1337561,Chrome,1920,1080,,,a,3.8679,10,108,0,1,5,17,9,1,0,0,0,1,1,0,0,0,star,triangle,,,,,,,,,,,,,,,,,,,,,,,,,,,,,,,,,,,,,,,,,,,,,,,,,,,,,,
298336,2022-12-05_18h09.20.611,vts_reward_expectancy_bt,2022.2.4,Win32,144.1337561,Chrome,1920,1080,,,a,6.9896,1,109,0,1,6,18,1,1,1,0,0,0,0,0,1,0,triangle,hexagon,,,,,,,,,,,,,,,,,,,,,,,,,,,,,,,,,,,,,,,,,,,,,,,,,,,,,,
298336,2022-12-05_18h09.20.611,vts_reward_expectancy_bt,2022.2.4,Win32,144.1337561,Chrome,1920,1080,,,l,2.0361,10,119,0,1,7,19,10,1,0,0,0,1,0,1,0,0,star ,circle,,,,,,,,,,,,,,,,,,,,,,,,,,,,,,,,,,,,,,,,,,,,,,,,,,,,,,
298336,2022-12-05_18h09.20.611,vts_reward_expectancy_bt,2022.2.4,Win32,144.1337561,Chrome,1920,1080,,,l,6.229,10,129,0,1,8,20,4,1,0,1,0,0,0,0,1,0,circle,hexagon,,,,,,,,,,,,,,,,,,,,,,,,,,,,,,,,,,,,,,,,,,,,,,,,,,,,,,
298336,2022-12-05_18h09.20.611,vts_reward_expectancy_bt,2022.2.4,Win32,144.1337561,Chrome,1920,1080,,,l,3.0213,1,130,0,1,9,21,5,1,0,1,0,0,0,0,0,1,circle,star,,,,,,,,,,,,,,,,,,,,,,,,,,,,,,,,,,,,,,,,,,,,,,,,,,,,,,
298336,2022-12-05_18h09.20.611,vts_reward_expectancy_bt,2022.2.4,Win32,144.1337561,Chrome,1920,1080,,,l,1.4726,10,140,0,1,10,22,0,1,1,0,0,0,0,1,0,0,triangle,circle,,,,,,,,,,,,,,,,,,,,,,,,,,,,,,,,,,,,,,,,,,,,,,,,,,,,,,
298336,2022-12-05_18h09.20.611,vts_reward_expectancy_bt,2022.2.4,Win32,144.1337561,Chrome,1920,1080,,,a,12.9672,10,150,0,1,11,23,6,1,0,0,1,0,1,0,0,0,hexagon,triangle,,,,,,,,,,,,,,,,,,,,,,,,,,,,,,,,,,,,,,,,,,,,,,,,,,,,,,
298336,2022-12-05_18h09.20.611,vts_reward_expectancy_bt,2022.2.4,Win32,144.1337561,Chrome,1920,1080,,,a,8.0466,10,160,0,2,0,24,4,1,0,1,0,0,0,0,1,0,circle,hexagon,,,,,,,,,,,,,,,,,,,,,,,,,,,,,,,,,,,,,,,,,,,,,,,,,,,,,,
298336,2022-12-05_18h09.20.611,vts_reward_expectancy_bt,2022.2.4,Win32,144.1337561,Chrome,1920,1080,,,l,2.6111,10,170,0,2,1,25,8,1,0,0,1,0,0,0,0,1,hexagon,star,,,,,,,,,,,,,,,,,,,,,,,,,,,,,,,,,,,,,,,,,,,,,,,,,,,,,,
298336,2022-12-05_18h09.20.611,vts_reward_expectancy_bt,2022.2.4,Win32,144.1337561,Chrome,1920,1080,,,a,3.1111,10,180,0,2,2,26,6,1,0,0,1,0,1,0,0,0,hexagon,triangle,,,,,,,,,,,,,,,,,,,,,,,,,,,,,,,,,,,,,,,,,,,,,,,,,,,,,,
298336,2022-12-05_18h09.20.611,vts_reward_expectancy_bt,2022.2.4,Win32,144.1337561,Chrome,1920,1080,,,a,4.3364,1,181,0,2,3,27,3,1,0,1,0,0,1,0,0,0,circle,triangle,,,,,,,,,,,,,,,,,,,,,,,,,,,,,,,,,,,,,,,,,,,,,,,,,,,,,,
298336,2022-12-05_18h09.20.611,vts_reward_expectancy_bt,2022.2.4,Win32,144.1337561,Chrome,1920,1080,,,l,2.2645,10,191,0,2,4,28,2,1,1,0,0,0,0,0,0,1,triangle,star,,,,,,,,,,,,,,,,,,,,,,,,,,,,,,,,,,,,,,,,,,,,,,,,,,,,,,
298336,2022-12-05_18h09.20.611,vts_reward_expectancy_bt,2022.2.4,Win32,144.1337561,Chrome,1920,1080,,,l,1.0903,10,201,0,2,5,29,0,1,1,0,0,0,0,1,0,0,triangle,circle,,,,,,,,,,,,,,,,,,,,,,,,,,,,,,,,,,,,,,,,,,,,,,,,,,,,,,
298336,2022-12-05_18h09.20.611,vts_reward_expectancy_bt,2022.2.4,Win32,144.1337561,Chrome,1920,1080,,,l,3.2713,1,202,0,2,6,30,10,1,0,0,0,1,0,1,0,0,star ,circle,,,,,,,,,,,,,,,,,,,,,,,,,,,,,,,,,,,,,,,,,,,,,,,,,,,,,,
298336,2022-12-05_18h09.20.611,vts_reward_expectancy_bt,2022.2.4,Win32,144.1337561,Chrome,1920,1080,,,l,1.1625,1,203,0,2,7,31,7,1,0,0,1,0,0,1,0,0,hexagon,circle,,,,,,,,,,,,,,,,,,,,,,,,,,,,,,,,,,,,,,,,,,,,,,,,,,,,,,
298336,2022-12-05_18h09.20.611,vts_reward_expectancy_bt,2022.2.4,Win32,144.1337561,Chrome,1920,1080,,,a,1.2366,1,204,0,2,8,32,9,1,0,0,0,1,1,0,0,0,star,triangle,,,,,,,,,,,,,,,,,,,,,,,,,,,,,,,,,,,,,,,,,,,,,,,,,,,,,,
298336,2022-12-05_18h09.20.611,vts_reward_expectancy_bt,2022.2.4,Win32,144.1337561,Chrome,1920,1080,,,a,2.844,10,214,0,2,9,33,11,1,0,0,0,1,0,0,1,0,star,hexagon,,,,,,,,,,,,,,,,,,,,,,,,,,,,,,,,,,,,,,,,,,,,,,,,,,,,,,
298336,2022-12-05_18h09.20.611,vts_reward_expectancy_bt,2022.2.4,Win32,144.1337561,Chrome,1920,1080,,,l,2.0324,1,215,0,2,10,34,5,1,0,1,0,0,0,0,0,1,circle,star,,,,,,,,,,,,,,,,,,,,,,,,,,,,,,,,,,,,,,,,,,,,,,,,,,,,,,
298336,2022-12-05_18h09.20.611,vts_reward_expectancy_bt,2022.2.4,Win32,144.1337561,Chrome,1920,1080,,,l,4.8391,1,216,0,2,11,35,1,1,1,0,0,0,0,0,1,0,triangle,hexagon,,,,,,,,,,,,,,,,,,,,,,,,,,,,,,,,,,,,,,,,,,,,,,,,,,,,,,
298336,2022-12-05_18h09.20.611,vts_reward_expectancy_bt,2022.2.4,Win32,144.1337561,Chrome,1920,1080,,,l,2.1788,1,217,1,0,0,0,5,1,0,1,0,0,0,0,0,1,circle,star,,,,,,,,,,,,,,,,,,,,,,,,,,,,,,,,,,,,,,,,,,,,,,,,,,,,,,
298336,2022-12-05_18h09.20.611,vts_reward_expectancy_bt,2022.2.4,Win32,144.1337561,Chrome,1920,1080,,,a,7.8409,1,218,1,0,1,1,1,1,1,0,0,0,0,0,1,0,triangle,hexagon,,,,,,,,,,,,,,,,,,,,,,,,,,,,,,,,,,,,,,,,,,,,,,,,,,,,,,
298336,2022-12-05_18h09.20.611,vts_reward_expectancy_bt,2022.2.4,Win32,144.1337561,Chrome,1920,1080,,,l,3.7715,1,219,1,0,2,2,6,1,0,0,1,0,1,0,0,0,hexagon,triangle,,,,,,,,,,,,,,,,,,,,,,,,,,,,,,,,,,,,,,,,,,,,,,,,,,,,,,
298336,2022-12-05_18h09.20.611,vts_reward_expectancy_bt,2022.2.4,Win32,144.1337561,Chrome,1920,1080,,,l,1.0564,10,229,1,0,3,3,2,1,1,0,0,0,0,0,0,1,triangle,star,,,,,,,,,,,,,,,,,,,,,,,,,,,,,,,,,,,,,,,,,,,,,,,,,,,,,,
298336,2022-12-05_18h09.20.611,vts_reward_expectancy_bt,2022.2.4,Win32,144.1337561,Chrome,1920,1080,,,a,1.879,10,239,1,0,4,4,0,1,1,0,0,0,0,1,0,0,triangle,circle,,,,,,,,,,,,,,,,,,,,,,,,,,,,,,,,,,,,,,,,,,,,,,,,,,,,,,
298336,2022-12-05_18h09.20.611,vts_reward_expectancy_bt,2022.2.4,Win32,144.1337561,Chrome,1920,1080,,,l,4.8069,1,240,1,0,5,5,4,1,0,1,0,0,0,0,1,0,circle,hexagon,,,,,,,,,,,,,,,,,,,,,,,,,,,,,,,,,,,,,,,,,,,,,,,,,,,,,,
298336,2022-12-05_18h09.20.611,vts_reward_expectancy_bt,2022.2.4,Win32,144.1337561,Chrome,1920,1080,,,l,2.7427,1,241,1,0,6,6,8,1,0,0,1,0,0,0,0,1,hexagon,star,,,,,,,,,,,,,,,,,,,,,,,,,,,,,,,,,,,,,,,,,,,,,,,,,,,,,,
298336,2022-12-05_18h09.20.611,vts_reward_expectancy_bt,2022.2.4,Win32,144.1337561,Chrome,1920,1080,,,l,4.0769,10,251,1,0,7,7,7,1,0,0,1,0,0,1,0,0,hexagon,circle,,,,,,,,,,,,,,,,,,,,,,,,,,,,,,,,,,,,,,,,,,,,,,,,,,,,,,
298336,2022-12-05_18h09.20.611,vts_reward_expectancy_bt,2022.2.4,Win32,144.1337561,Chrome,1920,1080,,,a,6.6734,1,252,1,0,8,8,9,1,0,0,0,1,1,0,0,0,star,triangle,,,,,,,,,,,,,,,,,,,,,,,,,,,,,,,,,,,,,,,,,,,,,,,,,,,,,,
298336,2022-12-05_18h09.20.611,vts_reward_expectancy_bt,2022.2.4,Win32,144.1337561,Chrome,1920,1080,,,a,5.366,1,253,1,0,9,9,11,1,0,0,0,1,0,0,1,0,star,hexagon,,,,,,,,,,,,,,,,,,,,,,,,,,,,,,,,,,,,,,,,,,,,,,,,,,,,,,
298336,2022-12-05_18h09.20.611,vts_reward_expectancy_bt,2022.2.4,Win32,144.1337561,Chrome,1920,1080,,,l,6.4914,10,263,1,0,10,10,10,1,0,0,0,1,0,1,0,0,star ,circle,,,,,,,,,,,,,,,,,,,,,,,,,,,,,,,,,,,,,,,,,,,,,,,,,,,,,,
298336,2022-12-05_18h09.20.611,vts_reward_expectancy_bt,2022.2.4,Win32,144.1337561,Chrome,1920,1080,,,l,1.7449,1,264,1,0,11,11,3,1,0,1,0,0,1,0,0,0,circle,triangle,,,,,,,,,,,,,,,,,,,,,,,,,,,,,,,,,,,,,,,,,,,,,,,,,,,,,,
298336,2022-12-05_18h09.20.611,vts_reward_expectancy_bt,2022.2.4,Win32,144.1337561,Chrome,1920,1080,,,a,8.9317,1,265,1,1,0,12,1,1,1,0,0,0,0,0,1,0,triangle,hexagon,,,,,,,,,,,,,,,,,,,,,,,,,,,,,,,,,,,,,,,,,,,,,,,,,,,,,,
298336,2022-12-05_18h09.20.611,vts_reward_expectancy_bt,2022.2.4,Win32,144.1337561,Chrome,1920,1080,,,l,3.4872,10,275,1,1,1,13,5,1,0,1,0,0,0,0,0,1,circle,star,,,,,,,,,,,,,,,,,,,,,,,,,,,,,,,,,,,,,,,,,,,,,,,,,,,,,,
298336,2022-12-05_18h09.20.611,vts_reward_expectancy_bt,2022.2.4,Win32,144.1337561,Chrome,1920,1080,,,l,1.8398,1,276,1,1,2,14,10,1,0,0,0,1,0,1,0,0,star ,circle,,,,,,,,,,,,,,,,,,,,,,,,,,,,,,,,,,,,,,,,,,,,,,,,,,,,,,
298336,2022-12-05_18h09.20.611,vts_reward_expectancy_bt,2022.2.4,Win32,144.1337561,Chrome,1920,1080,,,a,9.9237,1,277,1,1,3,15,7,1,0,0,1,0,0,1,0,0,hexagon,circle,,,,,,,,,,,,,,,,,,,,,,,,,,,,,,,,,,,,,,,,,,,,,,,,,,,,,,
298336,2022-12-05_18h09.20.611,vts_reward_expectancy_bt,2022.2.4,Win32,144.1337561,Chrome,1920,1080,,,a,1.6229,1,278,1,1,4,16,0,1,1,0,0,0,0,1,0,0,triangle,circle,,,,,,,,,,,,,,,,,,,,,,,,,,,,,,,,,,,,,,,,,,,,,,,,,,,,,,
298336,2022-12-05_18h09.20.611,vts_reward_expectancy_bt,2022.2.4,Win32,144.1337561,Chrome,1920,1080,,,l,1.9606,10,288,1,1,5,17,8,1,0,0,1,0,0,0,0,1,hexagon,star,,,,,,,,,,,,,,,,,,,,,,,,,,,,,,,,,,,,,,,,,,,,,,,,,,,,,,
298336,2022-12-05_18h09.20.611,vts_reward_expectancy_bt,2022.2.4,Win32,144.1337561,Chrome,1920,1080,,,l,21.3501,1,289,1,1,6,18,6,1,0,0,1,0,1,0,0,0,hexagon,triangle,,,,,,,,,,,,,,,,,,,,,,,,,,,,,,,,,,,,,,,,,,,,,,,,,,,,,,
298336,2022-12-05_18h09.20.611,vts_reward_expectancy_bt,2022.2.4,Win32,144.1337561,Chrome,1920,1080,,,a,1.2107,10,299,1,1,7,19,3,1,0,1,0,0,1,0,0,0,circle,triangle,,,,,,,,,,,,,,,,,,,,,,,,,,,,,,,,,,,,,,,,,,,,,,,,,,,,,,
298336,2022-12-05_18h09.20.611,vts_reward_expectancy_bt,2022.2.4,Win32,144.1337561,Chrome,1920,1080,,,a,15.9977,10,309,1,1,8,20,4,1,0,1,0,0,0,0,1,0,circle,hexagon,,,,,,,,,,,,,,,,,,,,,,,,,,,,,,,,,,,,,,,,,,,,,,,,,,,,,,
298336,2022-12-05_18h09.20.611,vts_reward_expectancy_bt,2022.2.4,Win32,144.1337561,Chrome,1920,1080,,,a,1.9311,1,310,1,1,9,21,11,1,0,0,0,1,0,0,1,0,star,hexagon,,,,,,,,,,,,,,,,,,,,,,,,,,,,,,,,,,,,,,,,,,,,,,,,,,,,,,
298336,2022-12-05_18h09.20.611,vts_reward_expectancy_bt,2022.2.4,Win32,144.1337561,Chrome,1920,1080,,,l,2.0867,1,311,1,1,10,22,9,1,0,0,0,1,1,0,0,0,star,triangle,,,,,,,,,,,,,,,,,,,,,,,,,,,,,,,,,,,,,,,,,,,,,,,,,,,,,,
298336,2022-12-05_18h09.20.611,vts_reward_expectancy_bt,2022.2.4,Win32,144.1337561,Chrome,1920,1080,,,a,11.571,1,312,1,1,11,23,2,1,1,0,0,0,0,0,0,1,triangle,star,,,,,,,,,,,,,,,,,,,,,,,,,,,,,,,,,,,,,,,,,,,,,,,,,,,,,,
298336,2022-12-05_18h09.20.611,vts_reward_expectancy_bt,2022.2.4,Win32,144.1337561,Chrome,1920,1080,,,l,3.1677,10,322,1,2,0,24,8,1,0,0,1,0,0,0,0,1,hexagon,star,,,,,,,,,,,,,,,,,,,,,,,,,,,,,,,,,,,,,,,,,,,,,,,,,,,,,,
298336,2022-12-05_18h09.20.611,vts_reward_expectancy_bt,2022.2.4,Win32,144.1337561,Chrome,1920,1080,,,a,5.959,1,323,1,2,1,25,3,1,0,1,0,0,1,0,0,0,circle,triangle,,,,,,,,,,,,,,,,,,,,,,,,,,,,,,,,,,,,,,,,,,,,,,,,,,,,,,
298336,2022-12-05_18h09.20.611,vts_reward_expectancy_bt,2022.2.4,Win32,144.1337561,Chrome,1920,1080,,,a,5.4746,1,324,1,2,2,26,6,1,0,0,1,0,1,0,0,0,hexagon,triangle,,,,,,,,,,,,,,,,,,,,,,,,,,,,,,,,,,,,,,,,,,,,,,,,,,,,,,
298336,2022-12-05_18h09.20.611,vts_reward_expectancy_bt,2022.2.4,Win32,144.1337561,Chrome,1920,1080,,,a,1.537,10,334,1,2,3,27,9,1,0,0,0,1,1,0,0,0,star,triangle,,,,,,,,,,,,,,,,,,,,,,,,,,,,,,,,,,,,,,,,,,,,,,,,,,,,,,
298336,2022-12-05_18h09.20.611,vts_reward_expectancy_bt,2022.2.4,Win32,144.1337561,Chrome,1920,1080,,,a,6.4995,1,335,1,2,4,28,0,1,1,0,0,0,0,1,0,0,triangle,circle,,,,,,,,,,,,,,,,,,,,,,,,,,,,,,,,,,,,,,,,,,,,,,,,,,,,,,
298336,2022-12-05_18h09.20.611,vts_reward_expectancy_bt,2022.2.4,Win32,144.1337561,Chrome,1920,1080,,,l,1.9428,1,336,1,2,5,29,5,1,0,1,0,0,0,0,0,1,circle,star,,,,,,,,,,,,,,,,,,,,,,,,,,,,,,,,,,,,,,,,,,,,,,,,,,,,,,
298336,2022-12-05_18h09.20.611,vts_reward_expectancy_bt,2022.2.4,Win32,144.1337561,Chrome,1920,1080,,,l,2.7788,1,337,1,2,6,30,4,1,0,1,0,0,0,0,1,0,circle,hexagon,,,,,,,,,,,,,,,,,,,,,,,,,,,,,,,,,,,,,,,,,,,,,,,,,,,,,,
298336,2022-12-05_18h09.20.611,vts_reward_expectancy_bt,2022.2.4,Win32,144.1337561,Chrome,1920,1080,,,a,4.3953,1,338,1,2,7,31,1,1,1,0,0,0,0,0,1,0,triangle,hexagon,,,,,,,,,,,,,,,,,,,,,,,,,,,,,,,,,,,,,,,,,,,,,,,,,,,,,,
298336,2022-12-05_18h09.20.611,vts_reward_expectancy_bt,2022.2.4,Win32,144.1337561,Chrome,1920,1080,,,a,5.4661,1,339,1,2,8,32,7,1,0,0,1,0,0,1,0,0,hexagon,circle,,,,,,,,,,,,,,,,,,,,,,,,,,,,,,,,,,,,,,,,,,,,,,,,,,,,,,
298336,2022-12-05_18h09.20.611,vts_reward_expectancy_bt,2022.2.4,Win32,144.1337561,Chrome,1920,1080,,,l,1.3828,1,340,1,2,9,33,2,1,1,0,0,0,0,0,0,1,triangle,star,,,,,,,,,,,,,,,,,,,,,,,,,,,,,,,,,,,,,,,,,,,,,,,,,,,,,,
298336,2022-12-05_18h09.20.611,vts_reward_expectancy_bt,2022.2.4,Win32,144.1337561,Chrome,1920,1080,,,l,3.8671,10,350,1,2,10,34,11,1,0,0,0,1,0,0,1,0,star,hexagon,,,,,,,,,,,,,,,,,,,,,,,,,,,,,,,,,,,,,,,,,,,,,,,,,,,,,,
298336,2022-12-05_18h09.20.611,vts_reward_expectancy_bt,2022.2.4,Win32,144.1337561,Chrome,1920,1080,,,l,3.1246,1,351,1,2,11,35,10,1,0,0,0,1,0,1,0,0,star ,circle,,,,,,,,,,,,,,,,,,,,,,,,,,,,,,,,,,,,,,,,,,,,,,,,,,,,,,
298336,2022-12-05_18h09.20.611,vts_reward_expectancy_bt,2022.2.4,Win32,144.1337561,Chrome,1920,1080,,,a,2.7878,10,361,2,0,0,0,9,1,0,0,0,1,1,0,0,0,star,triangle,,,,,,,,,,,,,,,,,,,,,,,,,,,,,,,,,,,,,,,,,,,,,,,,,,,,,,
298336,2022-12-05_18h09.20.611,vts_reward_expectancy_bt,2022.2.4,Win32,144.1337561,Chrome,1920,1080,,,a,1.0756,1,362,2,0,1,1,11,1,0,0,0,1,0,0,1,0,star,hexagon,,,,,,,,,,,,,,,,,,,,,,,,,,,,,,,,,,,,,,,,,,,,,,,,,,,,,,
298336,2022-12-05_18h09.20.611,vts_reward_expectancy_bt,2022.2.4,Win32,144.1337561,Chrome,1920,1080,,,l,3.1101,1,363,2,0,2,2,2,1,1,0,0,0,0,0,0,1,triangle,star,,,,,,,,,,,,,,,,,,,,,,,,,,,,,,,,,,,,,,,,,,,,,,,,,,,,,,
298336,2022-12-05_18h09.20.611,vts_reward_expectancy_bt,2022.2.4,Win32,144.1337561,Chrome,1920,1080,,,l,2.9863,1,364,2,0,3,3,10,1,0,0,0,1,0,1,0,0,star ,circle,,,,,,,,,,,,,,,,,,,,,,,,,,,,,,,,,,,,,,,,,,,,,,,,,,,,,,
298336,2022-12-05_18h09.20.611,vts_reward_expectancy_bt,2022.2.4,Win32,144.1337561,Chrome,1920,1080,,,l,2.8031,1,365,2,0,4,4,5,1,0,1,0,0,0,0,0,1,circle,star,,,,,,,,,,,,,,,,,,,,,,,,,,,,,,,,,,,,,,,,,,,,,,,,,,,,,,
298336,2022-12-05_18h09.20.611,vts_reward_expectancy_bt,2022.2.4,Win32,144.1337561,Chrome,1920,1080,,,a,4.1041,1,366,2,0,5,5,3,1,0,1,0,0,1,0,0,0,circle,triangle,,,,,,,,,,,,,,,,,,,,,,,,,,,,,,,,,,,,,,,,,,,,,,,,,,,,,,
298336,2022-12-05_18h09.20.611,vts_reward_expectancy_bt,2022.2.4,Win32,144.1337561,Chrome,1920,1080,,,a,1.9264,1,367,2,0,6,6,0,1,1,0,0,0,0,1,0,0,triangle,circle,,,,,,,,,,,,,,,,,,,,,,,,,,,,,,,,,,,,,,,,,,,,,,,,,,,,,,
298336,2022-12-05_18h09.20.611,vts_reward_expectancy_bt,2022.2.4,Win32,144.1337561,Chrome,1920,1080,,,a,6.3712,10,377,2,0,7,7,6,1,0,0,1,0,1,0,0,0,hexagon,triangle,,,,,,,,,,,,,,,,,,,,,,,,,,,,,,,,,,,,,,,,,,,,,,,,,,,,,,
298336,2022-12-05_18h09.20.611,vts_reward_expectancy_bt,2022.2.4,Win32,144.1337561,Chrome,1920,1080,,,l,1.9776,1,378,2,0,8,8,1,1,1,0,0,0,0,0,1,0,triangle,hexagon,,,,,,,,,,,,,,,,,,,,,,,,,,,,,,,,,,,,,,,,,,,,,,,,,,,,,,
298336,2022-12-05_18h09.20.611,vts_reward_expectancy_bt,2022.2.4,Win32,144.1337561,Chrome,1920,1080,,,l,2.8747,10,388,2,0,9,9,7,1,0,0,1,0,0,1,0,0,hexagon,circle,,,,,,,,,,,,,,,,,,,,,,,,,,,,,,,,,,,,,,,,,,,,,,,,,,,,,,
298336,2022-12-05_18h09.20.611,vts_reward_expectancy_bt,2022.2.4,Win32,144.1337561,Chrome,1920,1080,,,a,2.4283,10,398,2,0,10,10,4,1,0,1,0,0,0,0,1,0,circle,hexagon,,,,,,,,,,,,,,,,,,,,,,,,,,,,,,,,,,,,,,,,,,,,,,,,,,,,,,
298336,2022-12-05_18h09.20.611,vts_reward_expectancy_bt,2022.2.4,Win32,144.1337561,Chrome,1920,1080,,,l,1.8548,1,399,2,0,11,11,8,1,0,0,1,0,0,0,0,1,hexagon,star,,,,,,,,,,,,,,,,,,,,,,,,,,,,,,,,,,,,,,,,,,,,,,,,,,,,,,
298336,2022-12-05_18h09.20.611,vts_reward_expectancy_bt,2022.2.4,Win32,144.1337561,Chrome,1920,1080,,,l,1.1617,10,409,2,1,0,12,10,1,0,0,0,1,0,1,0,0,star ,circle,,,,,,,,,,,,,,,,,,,,,,,,,,,,,,,,,,,,,,,,,,,,,,,,,,,,,,
298336,2022-12-05_18h09.20.611,vts_reward_expectancy_bt,2022.2.4,Win32,144.1337561,Chrome,1920,1080,,,a,3.4423,10,419,2,1,1,13,8,1,0,0,1,0,0,0,0,1,hexagon,star,,,,,,,,,,,,,,,,,,,,,,,,,,,,,,,,,,,,,,,,,,,,,,,,,,,,,,
298336,2022-12-05_18h09.20.611,vts_reward_expectancy_bt,2022.2.4,Win32,144.1337561,Chrome,1920,1080,,,a,1.6769,1,420,2,1,2,14,5,1,0,1,0,0,0,0,0,1,circle,star,,,,,,,,,,,,,,,,,,,,,,,,,,,,,,,,,,,,,,,,,,,,,,,,,,,,,,
298336,2022-12-05_18h09.20.611,vts_reward_expectancy_bt,2022.2.4,Win32,144.1337561,Chrome,1920,1080,,,a,2.305,10,430,2,1,3,15,9,1,0,0,0,1,1,0,0,0,star,triangle,,,,,,,,,,,,,,,,,,,,,,,,,,,,,,,,,,,,,,,,,,,,,,,,,,,,,,
298336,2022-12-05_18h09.20.611,vts_reward_expectancy_bt,2022.2.4,Win32,144.1337561,Chrome,1920,1080,,,l,1.5693,10,440,2,1,4,16,4,1,0,1,0,0,0,0,1,0,circle,hexagon,,,,,,,,,,,,,,,,,,,,,,,,,,,,,,,,,,,,,,,,,,,,,,,,,,,,,,
298336,2022-12-05_18h09.20.611,vts_reward_expectancy_bt,2022.2.4,Win32,144.1337561,Chrome,1920,1080,,,l,1.0105,1,441,2,1,5,17,6,1,0,0,1,0,1,0,0,0,hexagon,triangle,,,,,,,,,,,,,,,,,,,,,,,,,,,,,,,,,,,,,,,,,,,,,,,,,,,,,,
298336,2022-12-05_18h09.20.611,vts_reward_expectancy_bt,2022.2.4,Win32,144.1337561,Chrome,1920,1080,,,l,1.4257,10,451,2,1,6,18,7,1,0,0,1,0,0,1,0,0,hexagon,circle,,,,,,,,,,,,,,,,,,,,,,,,,,,,,,,,,,,,,,,,,,,,,,,,,,,,,,
298336,2022-12-05_18h09.20.611,vts_reward_expectancy_bt,2022.2.4,Win32,144.1337561,Chrome,1920,1080,,,a,0.2642,1,452,2,1,7,19,11,1,0,0,0,1,0,0,1,0,star,hexagon,,,,,,,,,,,,,,,,,,,,,,,,,,,,,,,,,,,,,,,,,,,,,,,,,,,,,,
298336,2022-12-05_18h09.20.611,vts_reward_expectancy_bt,2022.2.4,Win32,144.1337561,Chrome,1920,1080,,,a,2.5613,1,453,2,1,8,20,2,1,1,0,0,0,0,0,0,1,triangle,star,,,,,,,,,,,,,,,,,,,,,,,,,,,,,,,,,,,,,,,,,,,,,,,,,,,,,,
298336,2022-12-05_18h09.20.611,vts_reward_expectancy_bt,2022.2.4,Win32,144.1337561,Chrome,1920,1080,,,l,2.4524,1,454,2,1,9,21,3,1,0,1,0,0,1,0,0,0,circle,triangle,,,,,,,,,,,,,,,,,,,,,,,,,,,,,,,,,,,,,,,,,,,,,,,,,,,,,,
298336,2022-12-05_18h09.20.611,vts_reward_expectancy_bt,2022.2.4,Win32,144.1337561,Chrome,1920,1080,,,l,0.6813,1,455,2,1,10,22,1,1,1,0,0,0,0,0,1,0,triangle,hexagon,,,,,,,,,,,,,,,,,,,,,,,,,,,,,,,,,,,,,,,,,,,,,,,,,,,,,,
298336,2022-12-05_18h09.20.611,vts_reward_expectancy_bt,2022.2.4,Win32,144.1337561,Chrome,1920,1080,,,l,2.7991,1,456,2,1,11,23,0,1,1,0,0,0,0,1,0,0,triangle,circle,,,,,,,,,,,,,,,,,,,,,,,,,,,,,,,,,,,,,,,,,,,,,,,,,,,,,,
298336,2022-12-05_18h09.20.611,vts_reward_expectancy_bt,2022.2.4,Win32,144.1337561,Chrome,1920,1080,,,l,1.3735,1,457,2,2,0,24,3,1,0,1,0,0,1,0,0,0,circle,triangle,,,,,,,,,,,,,,,,,,,,,,,,,,,,,,,,,,,,,,,,,,,,,,,,,,,,,,
298336,2022-12-05_18h09.20.611,vts_reward_expectancy_bt,2022.2.4,Win32,144.1337561,Chrome,1920,1080,,,l,7.5121,10,467,2,2,1,25,7,1,0,0,1,0,0,1,0,0,hexagon,circle,,,,,,,,,,,,,,,,,,,,,,,,,,,,,,,,,,,,,,,,,,,,,,,,,,,,,,
298336,2022-12-05_18h09.20.611,vts_reward_expectancy_bt,2022.2.4,Win32,144.1337561,Chrome,1920,1080,,,l,1.4902,10,477,2,2,2,26,2,1,1,0,0,0,0,0,0,1,triangle,star,,,,,,,,,,,,,,,,,,,,,,,,,,,,,,,,,,,,,,,,,,,,,,,,,,,,,,
298336,2022-12-05_18h09.20.611,vts_reward_expectancy_bt,2022.2.4,Win32,144.1337561,Chrome,1920,1080,,,l,5.5663,10,487,2,2,3,27,4,1,0,1,0,0,0,0,1,0,circle,hexagon,,,,,,,,,,,,,,,,,,,,,,,,,,,,,,,,,,,,,,,,,,,,,,,,,,,,,,
298336,2022-12-05_18h09.20.611,vts_reward_expectancy_bt,2022.2.4,Win32,144.1337561,Chrome,1920,1080,,,a,2.9486,10,497,2,2,4,28,6,1,0,0,1,0,1,0,0,0,hexagon,triangle,,,,,,,,,,,,,,,,,,,,,,,,,,,,,,,,,,,,,,,,,,,,,,,,,,,,,,
298336,2022-12-05_18h09.20.611,vts_reward_expectancy_bt,2022.2.4,Win32,144.1337561,Chrome,1920,1080,,,l,4.3862,1,498,2,2,5,29,10,1,0,0,0,1,0,1,0,0,star ,circle,,,,,,,,,,,,,,,,,,,,,,,,,,,,,,,,,,,,,,,,,,,,,,,,,,,,,,
298336,2022-12-05_18h09.20.611,vts_reward_expectancy_bt,2022.2.4,Win32,144.1337561,Chrome,1920,1080,,,l,1.368,1,499,2,2,6,30,8,1,0,0,1,0,0,0,0,1,hexagon,star,,,,,,,,,,,,,,,,,,,,,,,,,,,,,,,,,,,,,,,,,,,,,,,,,,,,,,
298336,2022-12-05_18h09.20.611,vts_reward_expectancy_bt,2022.2.4,Win32,144.1337561,Chrome,1920,1080,,,l,8.4035,1,500,2,2,7,31,11,1,0,0,0,1,0,0,1,0,star,hexagon,,,,,,,,,,,,,,,,,,,,,,,,,,,,,,,,,,,,,,,,,,,,,,,,,,,,,,
298336,2022-12-05_18h09.20.611,vts_reward_expectancy_bt,2022.2.4,Win32,144.1337561,Chrome,1920,1080,,,l,4.9843,1,501,2,2,8,32,1,1,1,0,0,0,0,0,1,0,triangle,hexagon,,,,,,,,,,,,,,,,,,,,,,,,,,,,,,,,,,,,,,,,,,,,,,,,,,,,,,
298336,2022-12-05_18h09.20.611,vts_reward_expectancy_bt,2022.2.4,Win32,144.1337561,Chrome,1920,1080,,,a,2.1323,1,502,2,2,9,33,5,1,0,1,0,0,0,0,0,1,circle,star,,,,,,,,,,,,,,,,,,,,,,,,,,,,,,,,,,,,,,,,,,,,,,,,,,,,,,
298336,2022-12-05_18h09.20.611,vts_reward_expectancy_bt,2022.2.4,Win32,144.1337561,Chrome,1920,1080,,,l,1.938,1,503,2,2,10,34,0,1,1,0,0,0,0,1,0,0,triangle,circle,,,,,,,,,,,,,,,,,,,,,,,,,,,,,,,,,,,,,,,,,,,,,,,,,,,,,,
298336,2022-12-05_18h09.20.611,vts_reward_expectancy_bt,2022.2.4,Win32,144.1337561,Chrome,1920,1080,,,a,1.4071,1,504,2,2,11,35,9,1,0,0,0,1,1,0,0,0,star,triangle,,,,,,,,,,,,,,,,,,,,,,,,,,,,,,,,,,,,,,,,,,,,,,,,,,,,,,
298336,2022-12-05_18h09.20.611,vts_reward_expectancy_bt,2022.2.4,Win32,144.1337561,Chrome,1920,1080,,,,,,,,,,,,,,,,,,,,,,,D,181,triangle,1,0,d,1.7276,0,0,0,0,0,1,,,,,,,,,,,,,,,,,,,,,,,,,,,,,,,,,,,,,,,,,
298336,2022-12-05_18h09.20.611,vts_reward_expectancy_bt,2022.2.4,Win32,144.1337561,Chrome,1920,1080,,,,,,,,,,,,,,,,,,,,,,,W,139,star,1,0,f,0.6806,0,1,0,1,0,1,,,,,,,,,,,,,,,,,,,,,,,,,,,,,,,,,,,,,,,,,
298336,2022-12-05_18h09.20.611,vts_reward_expectancy_bt,2022.2.4,Win32,144.1337561,Chrome,1920,1080,,,,,,,,,,,,,,,,,,,,,,,U,132,hexagon,1,0,f,0.7578,0,2,0,2,0,1,,,,,,,,,,,,,,,,,,,,,,,,,,,,,,,,,,,,,,,,,
298336,2022-12-05_18h09.20.611,vts_reward_expectancy_bt,2022.2.4,Win32,144.1337561,Chrome,1920,1080,,,,,,,,,,,,,,,,,,,,,,,H,125,circle,1,0,d,0.7563,0,3,0,3,0,1,,,,,,,,,,,,,,,,,,,,,,,,,,,,,,,,,,,,,,,,,
298336,2022-12-05_18h09.20.611,vts_reward_expectancy_bt,2022.2.4,Win32,144.1337561,Chrome,1920,1080,,,,,,,,,,,,,,,,,,,,,,,F,167,triangle,1,0,d,0.6622,0,4,0,4,0,1,,,,,,,,,,,,,,,,,,,,,,,,,,,,,,,,,,,,,,,,,
298336,2022-12-05_18h09.20.611,vts_reward_expectancy_bt,2022.2.4,Win32,144.1337561,Chrome,1920,1080,,,,,,,,,,,,,,,,,,,,,,,S,160,star,1,0,f,0.6673,0,5,0,5,0,1,,,,,,,,,,,,,,,,,,,,,,,,,,,,,,,,,,,,,,,,,
298336,2022-12-05_18h09.20.611,vts_reward_expectancy_bt,2022.2.4,Win32,144.1337561,Chrome,1920,1080,,,,,,,,,,,,,,,,,,,,,,,B,146,hexagon,1,0,d,0.5572,0,6,0,6,0,1,,,,,,,,,,,,,,,,,,,,,,,,,,,,,,,,,,,,,,,,,
298336,2022-12-05_18h09.20.611,vts_reward_expectancy_bt,2022.2.4,Win32,144.1337561,Chrome,1920,1080,,,,,,,,,,,,,,,,,,,,,,,Y,174,circle,1,0,f,0.5809,0,7,0,7,0,1,,,,,,,,,,,,,,,,,,,,,,,,,,,,,,,,,,,,,,,,,
298336,2022-12-05_18h09.20.611,vts_reward_expectancy_bt,2022.2.4,Win32,144.1337561,Chrome,1920,1080,,,,,,,,,,,,,,,,,,,,,,,D,181,hexagon,1,0,d,0.5106,0,8,0,8,0,1,,,,,,,,,,,,,,,,,,,,,,,,,,,,,,,,,,,,,,,,,
298336,2022-12-05_18h09.20.611,vts_reward_expectancy_bt,2022.2.4,Win32,144.1337561,Chrome,1920,1080,,,,,,,,,,,,,,,,,,,,,,,W,139,triangle,1,0,f,0.4488,0,9,0,9,0,1,,,,,,,,,,,,,,,,,,,,,,,,,,,,,,,,,,,,,,,,,
298336,2022-12-05_18h09.20.611,vts_reward_expectancy_bt,2022.2.4,Win32,144.1337561,Chrome,1920,1080,,,,,,,,,,,,,,,,,,,,,,,B,174,triangle,2,0,,,1,,,,,,d,0.5855,0,0,0,0,1,,,,,,,,,,,,,,,,,,,,,,,,,,,,,,,,,,
298336,2022-12-05_18h09.20.611,vts_reward_expectancy_bt,2022.2.4,Win32,144.1337561,Chrome,1920,1080,,,,,,,,,,,,,,,,,,,,,,,U,181,circle,1,0,,,1,,,,,,k,1.2988,1,0,1,0,1,,,,,,,,,,,,,,,,,,,,,,,,,,,,,,,,,,
298336,2022-12-05_18h09.20.611,vts_reward_expectancy_bt,2022.2.4,Win32,144.1337561,Chrome,1920,1080,,,,,,,,,,,,,,,,,,,,,,,S,132,star,1,0,,,1,,,,,,j,0.459,2,0,2,0,1,,,,,,,,,,,,,,,,,,,,,,,,,,,,,,,,,,
298336,2022-12-05_18h09.20.611,vts_reward_expectancy_bt,2022.2.4,Win32,144.1337561,Chrome,1920,1080,,,,,,,,,,,,,,,,,,,,,,,H,160,hexagon,1,0,,,1,,,,,,k,0.4527,3,0,3,0,1,,,,,,,,,,,,,,,,,,,,,,,,,,,,,,,,,,
298336,2022-12-05_18h09.20.611,vts_reward_expectancy_bt,2022.2.4,Win32,144.1337561,Chrome,1920,1080,,,,,,,,,,,,,,,,,,,,,,,D,167,triangle,1,0,,,1,,,,,,k,0.5347,4,0,4,0,1,,,,,,,,,,,,,,,,,,,,,,,,,,,,,,,,,,
298336,2022-12-05_18h09.20.611,vts_reward_expectancy_bt,2022.2.4,Win32,144.1337561,Chrome,1920,1080,,,,,,,,,,,,,,,,,,,,,,,Y,125,circle,1,0,,,1,,,,,,j,0.4294,5,0,5,0,1,,,,,,,,,,,,,,,,,,,,,,,,,,,,,,,,,,
298336,2022-12-05_18h09.20.611,vts_reward_expectancy_bt,2022.2.4,Win32,144.1337561,Chrome,1920,1080,,,,,,,,,,,,,,,,,,,,,,,F,139,star,1,0,,,1,,,,,,j,0.7404,6,0,6,0,1,,,,,,,,,,,,,,,,,,,,,,,,,,,,,,,,,,
298336,2022-12-05_18h09.20.611,vts_reward_expectancy_bt,2022.2.4,Win32,144.1337561,Chrome,1920,1080,,,,,,,,,,,,,,,,,,,,,,,W,146,hexagon,1,0,,,1,,,,,,j,0.8101,7,0,7,0,1,,,,,,,,,,,,,,,,,,,,,,,,,,,,,,,,,,
298336,2022-12-05_18h09.20.611,vts_reward_expectancy_bt,2022.2.4,Win32,144.1337561,Chrome,1920,1080,,,,,,,,,,,,,,,,,,,,,,,B,174,triangle,0,0,,,1,,,,,,,,8,0,8,0,1,,,,,,,,,,,,,,,,,,,,,,,,,,,,,,,,,,
298336,2022-12-05_18h09.20.611,vts_reward_expectancy_bt,2022.2.4,Win32,144.1337561,Chrome,1920,1080,,,,,,,,,,,,,,,,,,,,,,,U,181,hexagon,1,1,,,1,,,,,,k,0.5247,9,0,9,0,1,,,,,,,,,,,,,,,,,,,,,,,,,,,,,,,,,,
298336,2022-12-05_18h09.20.611,vts_reward_expectancy_bt,2022.2.4,Win32,144.1337561,Chrome,1920,1080,,,,,,,,,,,,,,,,,,,,,,,S,181,hexagon,1,0,,,2,,,,,,k,0.768,0,0,0,0,1,,,,,,,,,,,,,,,,,,,,,,,,,,,,,,,,,,
298336,2022-12-05_18h09.20.611,vts_reward_expectancy_bt,2022.2.4,Win32,144.1337561,Chrome,1920,1080,,,,,,,,,,,,,,,,,,,,,,,B,167,triangle,1,0,,,2,,,,,,k,0.6113,1,0,1,0,1,,,,,,,,,,,,,,,,,,,,,,,,,,,,,,,,,,
298336,2022-12-05_18h09.20.611,vts_reward_expectancy_bt,2022.2.4,Win32,144.1337561,Chrome,1920,1080,,,,,,,,,,,,,,,,,,,,,,,D,174,star,1,0,,,2,,,,,,k,0.5139,2,0,2,0,1,,,,,,,,,,,,,,,,,,,,,,,,,,,,,,,,,,
298336,2022-12-05_18h09.20.611,vts_reward_expectancy_bt,2022.2.4,Win32,144.1337561,Chrome,1920,1080,,,,,,,,,,,,,,,,,,,,,,,W,132,circle,1,0,,,2,,,,,,j,0.318,3,0,3,0,1,,,,,,,,,,,,,,,,,,,,,,,,,,,,,,,,,,
298336,2022-12-05_18h09.20.611,vts_reward_expectancy_bt,2022.2.4,Win32,144.1337561,Chrome,1920,1080,,,,,,,,,,,,,,,,,,,,,,,U,125,hexagon,1,0,,,2,,,,,,j,0.3543,4,0,4,0,1,,,,,,,,,,,,,,,,,,,,,,,,,,,,,,,,,,
298336,2022-12-05_18h09.20.611,vts_reward_expectancy_bt,2022.2.4,Win32,144.1337561,Chrome,1920,1080,,,,,,,,,,,,,,,,,,,,,,,Y,139,triangle,1,0,,,2,,,,,,j,0.4652,5,0,5,0,1,,,,,,,,,,,,,,,,,,,,,,,,,,,,,,,,,,
298336,2022-12-05_18h09.20.611,vts_reward_expectancy_bt,2022.2.4,Win32,144.1337561,Chrome,1920,1080,,,,,,,,,,,,,,,,,,,,,,,F,160,star,1,0,,,2,,,,,,k,0.4022,6,0,6,0,1,,,,,,,,,,,,,,,,,,,,,,,,,,,,,,,,,,
298336,2022-12-05_18h09.20.611,vts_reward_expectancy_bt,2022.2.4,Win32,144.1337561,Chrome,1920,1080,,,,,,,,,,,,,,,,,,,,,,,H,146,circle,1,0,,,2,,,,,,j,0.4519,7,0,7,0,1,,,,,,,,,,,,,,,,,,,,,,,,,,,,,,,,,,
298336,2022-12-05_18h09.20.611,vts_reward_expectancy_bt,2022.2.4,Win32,144.1337561,Chrome,1920,1080,,,,,,,,,,,,,,,,,,,,,,,S,181,star,1,0,,,2,,,,,,k,0.4234,8,0,8,0,1,,,,,,,,,,,,,,,,,,,,,,,,,,,,,,,,,,
298336,2022-12-05_18h09.20.611,vts_reward_expectancy_bt,2022.2.4,Win32,144.1337561,Chrome,1920,1080,,,,,,,,,,,,,,,,,,,,,,,B,167,hexagon,1,0,,,2,,,,,,k,0.4377,9,0,9,0,1,,,,,,,,,,,,,,,,,,,,,,,,,,,,,,,,,,
298336,2022-12-05_18h09.20.611,vts_reward_expectancy_bt,2022.2.4,Win32,144.1337561,Chrome,1920,1080,,,,,0,504,,,,,,,,,,,,,,,,,Y,181,triangle,1,0,,,3,,,,,,,,,,,,,-1,letter,NA,f,1.6412,vtsPrac,0,0,0,0,1,,,,,,,,,,,,,,,,,,,,,,,
298336,2022-12-05_18h09.20.611,vts_reward_expectancy_bt,2022.2.4,Win32,144.1337561,Chrome,1920,1080,,,,,0,504,,,,,,,,,,,,,,,,,F,139,hexagon,1,0,,,3,,,,,,,,,,,,,switch,number,numSwt,j,0.7978,vtsPrac,1,0,1,0,1,,,,,,,,,,,,,,,,,,,,,,,
298336,2022-12-05_18h09.20.611,vts_reward_expectancy_bt,2022.2.4,Win32,144.1337561,Chrome,1920,1080,,,,,0,504,,,,,,,,,,,,,,,,,S,160,triangle,1,0,,,3,,,,,,,,,,,,,repeat,number,numRpt,k,0.3867,vtsPrac,2,0,2,0,1,,,,,,,,,,,,,,,,,,,,,,,
298336,2022-12-05_18h09.20.611,vts_reward_expectancy_bt,2022.2.4,Win32,144.1337561,Chrome,1920,1080,,,,,0,504,,,,,,,,,,,,,,,,,D,174,hexagon,1,0,,,3,,,,,,,,,,,,,switch,letter,lettSwt,d,0.5114,vtsPrac,3,0,3,0,1,,,,,,,,,,,,,,,,,,,,,,,
298336,2022-12-05_18h09.20.611,vts_reward_expectancy_bt,2022.2.4,Win32,144.1337561,Chrome,1920,1080,,,,,0,504,,,,,,,,,,,,,,,,,Y,181,hexagon,1,0,,,3,,,,,,,,,,,,,repeat,letter,lettRpt,f,0.6234,vtsPrac,4,0,4,0,1,,,,,,,,,,,,,,,,,,,,,,,
298336,2022-12-05_18h09.20.611,vts_reward_expectancy_bt,2022.2.4,Win32,144.1337561,Chrome,1920,1080,,,,,0,504,,,,,,,,,,,,,,,,,F,139,star,1,0,,,3,,,,,,,,,,,,,switch,number,numSwt,j,0.4823,vtsPrac,5,0,5,0,1,,,,,,,,,,,,,,,,,,,,,,,
298336,2022-12-05_18h09.20.611,vts_reward_expectancy_bt,2022.2.4,Win32,144.1337561,Chrome,1920,1080,,,,,0,504,,,,,,,,,,,,,,,,,S,160,triangle,1,0,,,3,,,,,,,,,,,,,repeat,number,numRpt,k,0.367,vtsPrac,6,0,6,0,1,,,,,,,,,,,,,,,,,,,,,,,
298336,2022-12-05_18h09.20.611,vts_reward_expectancy_bt,2022.2.4,Win32,144.1337561,Chrome,1920,1080,,,,,0,504,,,,,,,,,,,,,,,,,D,174,circle,1,0,,,3,,,,,,,,,,,,,repeat,number,numRpt,k,0.4069,vtsPrac,7,0,7,0,1,,,,,,,,,,,,,,,,,,,,,,,
298336,2022-12-05_18h09.20.611,vts_reward_expectancy_bt,2022.2.4,Win32,144.1337561,Chrome,1920,1080,,,,,0,504,,,,,,,,,,,,,,,,,U,132,circle,1,0,,,3,,,,,,,,,,,,,switch,letter,lettSwt,f,0.4518,vtsPrac,8,0,8,0,1,,,,,,,,,,,,,,,,,,,,,,,
298336,2022-12-05_18h09.20.611,vts_reward_expectancy_bt,2022.2.4,Win32,144.1337561,Chrome,1920,1080,,,,,0,504,,,,,,,,,,,,,,,,,D,174,hexagon,1,0,,,3,,,,,,,,,,,,,repeat,letter,lettRpt,d,0.3626,vtsPrac,9,0,9,0,1,,,,,,,,,,,,,,,,,,,,,,,
298336,2022-12-05_18h09.20.611,vts_reward_expectancy_bt,2022.2.4,Win32,144.1337561,Chrome,1920,1080,,,,,0,504,,,,,,,,,,,,,,,,,Y,125,star,1,0,,,3,,,,,,,,,,,,,switch,number,numSwt,j,0.3833,vtsPrac,10,0,10,0,1,,,,,,,,,,,,,,,,,,,,,,,
298336,2022-12-05_18h09.20.611,vts_reward_expectancy_bt,2022.2.4,Win32,144.1337561,Chrome,1920,1080,,,,,0,504,,,,,,,,,,,,,,,,,F,167,hexagon,1,0,,,3,,,,,,,,,,,,,switch,letter,lettSwt,d,0.6042,vtsPrac,11,0,11,0,1,,,,,,,,,,,,,,,,,,,,,,,
298336,2022-12-05_18h09.20.611,vts_reward_expectancy_bt,2022.2.4,Win32,144.1337561,Chrome,1920,1080,,,,,0,504,,,,,,,,,,,,,,,,,H,160,triangle,1,0,,,3,,,,,,,,,,,,,switch,number,numSwt,k,0.5573,vtsPrac,12,0,12,0,1,,,,,,,,,,,,,,,,,,,,,,,
298336,2022-12-05_18h09.20.611,vts_reward_expectancy_bt,2022.2.4,Win32,144.1337561,Chrome,1920,1080,,,,,0,504,,,,,,,,,,,,,,,,,D,132,circle,1,0,,,3,,,,,,,,,,,,,switch,letter,lettSwt,d,0.7847,vtsPrac,13,0,13,0,1,,,,,,,,,,,,,,,,,,,,,,,
298336,2022-12-05_18h09.20.611,vts_reward_expectancy_bt,2022.2.4,Win32,144.1337561,Chrome,1920,1080,,,,,0,504,,,,,,,,,,,,,,,,,S,125,hexagon,1,0,,,3,,,,,,,,,,,,,switch,number,numSwt,j,0.455,vtsPrac,14,0,14,0,1,,,,,,,,,,,,,,,,,,,,,,,
298336,2022-12-05_18h09.20.611,vts_reward_expectancy_bt,2022.2.4,Win32,144.1337561,Chrome,1920,1080,,,,,0,504,,,,,,,,,,,,,,,,,B,139,star,1,0,,,3,,,,,,,,,,,,,repeat,number,numRpt,j,0.6162,vtsPrac,15,0,15,0,1,,,,,,,,,,,,,,,,,,,,,,,
298336,2022-12-05_18h09.20.611,vts_reward_expectancy_bt,2022.2.4,Win32,144.1337561,Chrome,1920,1080,,,,,0,504,,,,,,,,,,,,,,,,,D,125,triangle,1,0,,,3,,,,,,,,,,,,,switch,letter,lettSwt,d,0.5351,vtsPrac,16,0,16,0,1,,,,,,,,,,,,,,,,,,,,,,,
298336,2022-12-05_18h09.20.611,vts_reward_expectancy_bt,2022.2.4,Win32,144.1337561,Chrome,1920,1080,,,,,0,504,,,,,,,,,,,,,,,,,Y,139,star,1,0,,,3,,,,,,,,,,,,,switch,number,numSwt,j,0.3709,vtsPrac,17,0,17,0,1,,,,,,,,,,,,,,,,,,,,,,,
298336,2022-12-05_18h09.20.611,vts_reward_expectancy_bt,2022.2.4,Win32,144.1337561,Chrome,1920,1080,,,,,0,504,,,,,,,,,,,,,,,,,U,146,star,1,0,,,3,,,,,,,,,,,,,repeat,number,numRpt,j,0.4076,vtsPrac,18,0,18,0,1,,,,,,,,,,,,,,,,,,,,,,,
298336,2022-12-05_18h09.20.611,vts_reward_expectancy_bt,2022.2.4,Win32,144.1337561,Chrome,1920,1080,,,,,0,504,,,,,,,,,,,,,,,,,B,132,hexagon,1,0,,,3,,,,,,,,,,,,,repeat,number,numRpt,j,0.4102,vtsPrac,19,0,19,0,1,,,,,,,,,,,,,,,,,,,,,,,
298336,2022-12-05_18h09.20.611,vts_reward_expectancy_bt,2022.2.4,Win32,144.1337561,Chrome,1920,1080,,,,,0,504,,,,,,,,,,,,,,,,,U,174,triangle,1,0,,,3,,,,,,,,,,,,,switch,letter,lettSwt,f,0.5997,vtsPrac,20,0,20,0,1,,,,,,,,,,,,,,,,,,,,,,,
298336,2022-12-05_18h09.20.611,vts_reward_expectancy_bt,2022.2.4,Win32,144.1337561,Chrome,1920,1080,,,,,0,504,,,,,,,,,,,,,,,,,Y,167,circle,1,0,,,3,,,,,,,,,,,,,repeat,letter,lettRpt,f,0.4681,vtsPrac,21,0,21,0,1,,,,,,,,,,,,,,,,,,,,,,,
298336,2022-12-05_18h09.20.611,vts_reward_expectancy_bt,2022.2.4,Win32,144.1337561,Chrome,1920,1080,,,,,0,504,,,,,,,,,,,,,,,,,S,139,circle,1,0,,,3,,,,,,,,,,,,,switch,number,numSwt,j,0.4303,vtsPrac,22,0,22,0,1,,,,,,,,,,,,,,,,,,,,,,,
298336,2022-12-05_18h09.20.611,vts_reward_expectancy_bt,2022.2.4,Win32,144.1337561,Chrome,1920,1080,,,,,0,504,,,,,,,,,,,,,,,,,H,125,hexagon,0,0,,,3,,,,,,,,,,,,,switch,letter,NA,f,0.4198,vtsPrac,23,0,23,0,1,,,,,,,,,,,,,,,,,,,,,,,
298336,2022-12-05_18h09.20.611,vts_reward_expectancy_bt,2022.2.4,Win32,144.1337561,Chrome,1920,1080,,,,,0,504,,,,,,,,,,,,,,,,,D,181,hexagon,1,1,,,3,,,,,,,,,,,,,repeat,letter,lettRpt,d,0.5484,vtsPrac,24,0,24,0,1,,,,,,,,,,,,,,,,,,,,,,,
298336,2022-12-05_18h09.20.611,vts_reward_expectancy_bt,2022.2.4,Win32,144.1337561,Chrome,1920,1080,,,,,0,504,,,,,,,,,,,,,,,,,U,132,circle,1,0,,,3,,,,,,,,,,,,,repeat,letter,lettRpt,f,0.5753,vtsPrac,25,0,25,0,1,,,,,,,,,,,,,,,,,,,,,,,
298336,2022-12-05_18h09.20.611,vts_reward_expectancy_bt,2022.2.4,Win32,144.1337561,Chrome,1920,1080,,,,,0,504,,,,,,,,,,,,,,,,,Y,160,circle,1,0,,,3,,,,,,,,,,,,,repeat,letter,lettRpt,f,0.5079,vtsPrac,26,0,26,0,1,,,,,,,,,,,,,,,,,,,,,,,
298336,2022-12-05_18h09.20.611,vts_reward_expectancy_bt,2022.2.4,Win32,144.1337561,Chrome,1920,1080,,,,,0,504,,,,,,,,,,,,,,,,,S,167,star,1,0,,,3,,,,,,,,,,,,,switch,number,numSwt,k,0.4967,vtsPrac,27,0,27,0,1,,,,,,,,,,,,,,,,,,,,,,,
298336,2022-12-05_18h09.20.611,vts_reward_expectancy_bt,2022.2.4,Win32,144.1337561,Chrome,1920,1080,,,,,0,504,,,,,,,,,,,,,,,,,U,132,circle,1,0,,,3,,,,,,,,,,,,,switch,letter,lettSwt,f,0.4494,vtsPrac,28,0,28,0,1,,,,,,,,,,,,,,,,,,,,,,,
298336,2022-12-05_18h09.20.611,vts_reward_expectancy_bt,2022.2.4,Win32,144.1337561,Chrome,1920,1080,,,,,0,504,,,,,,,,,,,,,,,,,Y,125,triangle,1,0,,,3,,,,,,,,,,,,,switch,number,numSwt,j,0.5539,vtsPrac,29,0,29,0,1,,,,,,,,,,,,,,,,,,,,,,,
298336,2022-12-05_18h09.20.611,vts_reward_expectancy_bt,2022.2.4,Win32,144.1337561,Chrome,1920,1080,,,,,0,504,,,,,,,,,,,,,,,,,W,146,star,1,0,,,3,,,,,,,,,,,,,repeat,number,numRpt,j,0.9168,vtsPrac,30,0,30,0,1,,,,,,,,,,,,,,,,,,,,,,,
298336,2022-12-05_18h09.20.611,vts_reward_expectancy_bt,2022.2.4,Win32,144.1337561,Chrome,1920,1080,,,,,0,504,,,,,,,,,,,,,,,,,D,174,triangle,1,0,,,3,,,,,,,,,,,,,repeat,number,numRpt,k,0.5542,vtsPrac,31,0,31,0,1,,,,,,,,,,,,,,,,,,,,,,,
298336,2022-12-05_18h09.20.611,vts_reward_expectancy_bt,2022.2.4,Win32,144.1337561,Chrome,1920,1080,,,,,,,,,,,,,,,,,,,,,,,,,,,,,,,,,,,,,,,,,,,,,,,,,,,,,,,,,,,,,,,,,,,,,,,,,,,,
298336,2022-12-05_18h09.20.611,vts_reward_expectancy_bt,2022.2.4,Win32,144.1337561,Chrome,1920,1080,,,,,,,,,,,,,,,,,,,,,,,,,,,,,,,,,,,,,,,,,,,,,,,,,,,,,,,,,,,,,,,,,,,,,,,,,,,,
298336,2022-12-05_18h09.20.611,vts_reward_expectancy_bt,2022.2.4,Win32,144.1337561,Chrome,1920,1080,,,,,0,504,,,,,,,,,,,,,,,,,D,181,hexagon,1,0,,,,,,,,,,,,,,,,switch,letter,lettSwt,d,0.5461,noRew,,,,,,0,0,0,0,0,1,,,,,,,,,,,,,,,,,
298336,2022-12-05_18h09.20.611,vts_reward_expectancy_bt,2022.2.4,Win32,144.1337561,Chrome,1920,1080,,,,,0,504,,,,,,,,,,,,,,,,,W,125,star,1,0,,,,,,,,,,,,,,,,repeat,letter,lettRpt,f,0.5816,noRew,,,,,,0,1,0,1,0,1,,,,,,,,,,,,,,,,,
298336,2022-12-05_18h09.20.611,vts_reward_expectancy_bt,2022.2.4,Win32,144.1337561,Chrome,1920,1080,,,,,0,504,,,,,,,,,,,,,,,,,U,174,hexagon,1,0,,,,,,,,,,,,,,,,switch,number,numSwt,k,0.462,noRew,,,,,,0,2,0,2,0,1,,,,,,,,,,,,,,,,,
298336,2022-12-05_18h09.20.611,vts_reward_expectancy_bt,2022.2.4,Win32,144.1337561,Chrome,1920,1080,,,,,0,504,,,,,,,,,,,,,,,,,S,146,star,1,0,,,,,,,,,,,,,,,,repeat,number,numRpt,j,0.4945,noRew,,,,,,0,3,0,3,0,1,,,,,,,,,,,,,,,,,
298336,2022-12-05_18h09.20.611,vts_reward_expectancy_bt,2022.2.4,Win32,144.1337561,Chrome,1920,1080,,,,,0,504,,,,,,,,,,,,,,,,,D,181,star,1,0,,,,,,,,,,,,,,,,repeat,number,numRpt,k,0.5607,noRew,,,,,,0,4,0,4,0,1,,,,,,,,,,,,,,,,,
298336,2022-12-05_18h09.20.611,vts_reward_expectancy_bt,2022.2.4,Win32,144.1337561,Chrome,1920,1080,,,,,0,504,,,,,,,,,,,,,,,,,W,125,triangle,1,0,,,,,,,,,,,,,,,,switch,letter,lettSwt,f,0.4378,noRew,,,,,,0,5,0,5,0,1,,,,,,,,,,,,,,,,,
298336,2022-12-05_18h09.20.611,vts_reward_expectancy_bt,2022.2.4,Win32,144.1337561,Chrome,1920,1080,,,,,0,504,,,,,,,,,,,,,,,,,U,174,triangle,1,0,,,,,,,,,,,,,,,,repeat,letter,lettRpt,f,0.4939,noRew,,,,,,0,6,0,6,0,1,,,,,,,,,,,,,,,,,
298336,2022-12-05_18h09.20.611,vts_reward_expectancy_bt,2022.2.4,Win32,144.1337561,Chrome,1920,1080,,,,,0,504,,,,,,,,,,,,,,,,,S,146,star,1,0,,,,,,,,,,,,,,,,switch,number,numSwt,j,0.6971,noRew,,,,,,0,7,0,7,0,1,,,,,,,,,,,,,,,,,
298336,2022-12-05_18h09.20.611,vts_reward_expectancy_bt,2022.2.4,Win32,144.1337561,Chrome,1920,1080,,,,,0,504,,,,,,,,,,,,,,,,,U,160,star,1,0,,,,,,,,,,,,,,,,switch,letter,lettSwt,f,0.8161,noRew,,,,,,0,8,0,8,0,1,,,,,,,,,,,,,,,,,
298336,2022-12-05_18h09.20.611,vts_reward_expectancy_bt,2022.2.4,Win32,144.1337561,Chrome,1920,1080,,,,,0,504,,,,,,,,,,,,,,,,,H,132,circle,1,0,,,,,,,,,,,,,,,,repeat,letter,lettRpt,d,0.7258,noRew,,,,,,0,9,0,9,0,1,,,,,,,,,,,,,,,,,
298336,2022-12-05_18h09.20.611,vts_reward_expectancy_bt,2022.2.4,Win32,144.1337561,Chrome,1920,1080,,,,,0,504,,,,,,,,,,,,,,,,,B,139,hexagon,1,0,,,,,,,,,,,,,,,,repeat,letter,lettRpt,d,0.4897,noRew,,,,,,0,10,0,10,0,1,,,,,,,,,,,,,,,,,
298336,2022-12-05_18h09.20.611,vts_reward_expectancy_bt,2022.2.4,Win32,144.1337561,Chrome,1920,1080,,,,,0,504,,,,,,,,,,,,,,,,,W,146,triangle,1,0,,,,,,,,,,,,,,,,switch,number,numSwt,j,0.4888,noRew,,,,,,0,11,0,11,0,1,,,,,,,,,,,,,,,,,
298336,2022-12-05_18h09.20.611,vts_reward_expectancy_bt,2022.2.4,Win32,144.1337561,Chrome,1920,1080,,,,,0,504,,,,,,,,,,,,,,,,,Y,167,star,1,0,,,,,,,,,,,,,,,,switch,letter,lettSwt,f,0.7078,noRew,,,,,,0,12,0,12,0,1,,,,,,,,,,,,,,,,,
298336,2022-12-05_18h09.20.611,vts_reward_expectancy_bt,2022.2.4,Win32,144.1337561,Chrome,1920,1080,,,,,0,504,,,,,,,,,,,,,,,,,D,146,circle,1,0,,,,,,,,,,,,,,,,repeat,letter,lettRpt,d,0.52,noRew,,,,,,0,13,0,13,0,1,,,,,,,,,,,,,,,,,
298336,2022-12-05_18h09.20.611,vts_reward_expectancy_bt,2022.2.4,Win32,144.1337561,Chrome,1920,1080,,,,,0,504,,,,,,,,,,,,,,,,,U,139,circle,1,0,,,,,,,,,,,,,,,,repeat,letter,lettRpt,f,0.5882,noRew,,,,,,0,14,0,14,0,1,,,,,,,,,,,,,,,,,
298336,2022-12-05_18h09.20.611,vts_reward_expectancy_bt,2022.2.4,Win32,144.1337561,Chrome,1920,1080,,,,,0,504,,,,,,,,,,,,,,,,,B,174,triangle,1,0,,,,,,,,,,,,,,,,switch,number,numSwt,k,0.7042,noRew,,,,,,0,15,0,15,0,1,,,,,,,,,,,,,,,,,
298336,2022-12-05_18h09.20.611,vts_reward_expectancy_bt,2022.2.4,Win32,144.1337561,Chrome,1920,1080,,,,,0,504,,,,,,,,,,,,,,,,,W,146,star,1,0,,,,,,,,,,,,,,,,switch,letter,lettSwt,f,0.8655,noRew,,,,,,0,16,0,16,0,1,,,,,,,,,,,,,,,,,
298336,2022-12-05_18h09.20.611,vts_reward_expectancy_bt,2022.2.4,Win32,144.1337561,Chrome,1920,1080,,,,,0,504,,,,,,,,,,,,,,,,,F,132,triangle,1,0,,,,,,,,,,,,,,,,repeat,letter,lettRpt,d,0.7803,noRew,,,,,,0,17,0,17,0,1,,,,,,,,,,,,,,,,,
298336,2022-12-05_18h09.20.611,vts_reward_expectancy_bt,2022.2.4,Win32,144.1337561,Chrome,1920,1080,,,,,0,504,,,,,,,,,,,,,,,,,U,160,triangle,1,0,,,,,,,,,,,,,,,,switch,number,numSwt,k,0.7479,noRew,,,,,,0,18,0,18,0,1,,,,,,,,,,,,,,,,,
298336,2022-12-05_18h09.20.611,vts_reward_expectancy_bt,2022.2.4,Win32,144.1337561,Chrome,1920,1080,,,,,0,504,,,,,,,,,,,,,,,,,S,174,hexagon,1,0,,,,,,,,,,,,,,,,repeat,number,numRpt,k,0.4928,noRew,,,,,,0,19,0,19,0,1,,,,,,,,,,,,,,,,,
298336,2022-12-05_18h09.20.611,vts_reward_expectancy_bt,2022.2.4,Win32,144.1337561,Chrome,1920,1080,,,,,0,504,,,,,,,,,,,,,,,,,B,146,star,1,0,,,,,,,,,,,,,,,,switch,letter,lettSwt,d,0.4802,noRew,,,,,,0,20,0,20,0,1,,,,,,,,,,,,,,,,,
298336,2022-12-05_18h09.20.611,vts_reward_expectancy_bt,2022.2.4,Win32,144.1337561,Chrome,1920,1080,,,,,0,504,,,,,,,,,,,,,,,,,W,160,hexagon,1,0,,,,,,,,,,,,,,,,switch,number,numSwt,k,0.5414,noRew,,,,,,0,21,0,21,0,1,,,,,,,,,,,,,,,,,
298336,2022-12-05_18h09.20.611,vts_reward_expectancy_bt,2022.2.4,Win32,144.1337561,Chrome,1920,1080,,,,,0,504,,,,,,,,,,,,,,,,,S,125,circle,1,0,,,,,,,,,,,,,,,,repeat,number,numRpt,j,0.496,noRew,,,,,,0,22,0,22,0,1,,,,,,,,,,,,,,,,,
298336,2022-12-05_18h09.20.611,vts_reward_expectancy_bt,2022.2.4,Win32,144.1337561,Chrome,1920,1080,,,,,0,504,,,,,,,,,,,,,,,,,F,174,hexagon,1,0,,,,,,,,,,,,,,,,repeat,number,numRpt,k,0.6276,noRew,,,,,,0,23,0,23,0,1,,,,,,,,,,,,,,,,,
298336,2022-12-05_18h09.20.611,vts_reward_expectancy_bt,2022.2.4,Win32,144.1337561,Chrome,1920,1080,,,,,0,504,,,,,,,,,,,,,,,,,W,146,star,1,0,,,,,,,,,,,,,,,,repeat,number,numRpt,j,0.8123,noRew,,,,,,0,24,0,24,0,1,,,,,,,,,,,,,,,,,
298336,2022-12-05_18h09.20.611,vts_reward_expectancy_bt,2022.2.4,Win32,144.1337561,Chrome,1920,1080,,,,,0,504,,,,,,,,,,,,,,,,,D,139,triangle,1,0,,,,,,,,,,,,,,,,switch,letter,lettSwt,d,0.8332,noRew,,,,,,0,25,0,25,0,1,,,,,,,,,,,,,,,,,
298336,2022-12-05_18h09.20.611,vts_reward_expectancy_bt,2022.2.4,Win32,144.1337561,Chrome,1920,1080,,,,,0,504,,,,,,,,,,,,,,,,,Y,125,circle,1,0,,,,,,,,,,,,,,,,repeat,letter,lettRpt,f,0.7642,noRew,,,,,,0,26,0,26,0,1,,,,,,,,,,,,,,,,,
298336,2022-12-05_18h09.20.611,vts_reward_expectancy_bt,2022.2.4,Win32,144.1337561,Chrome,1920,1080,,,,,0,504,,,,,,,,,,,,,,,,,B,181,hexagon,1,0,,,,,,,,,,,,,,,,repeat,letter,lettRpt,d,0.5525,noRew,,,,,,0,27,0,27,0,1,,,,,,,,,,,,,,,,,
298336,2022-12-05_18h09.20.611,vts_reward_expectancy_bt,2022.2.4,Win32,144.1337561,Chrome,1920,1080,,,,,0,504,,,,,,,,,,,,,,,,,F,160,circle,1,0,,,,,,,,,,,,,,,,switch,number,numSwt,k,0.7295,noRew,,,,,,0,28,0,28,0,1,,,,,,,,,,,,,,,,,
298336,2022-12-05_18h09.20.611,vts_reward_expectancy_bt,2022.2.4,Win32,144.1337561,Chrome,1920,1080,,,,,0,504,,,,,,,,,,,,,,,,,B,181,star,1,0,,,,,,,,,,,,,,,,repeat,number,numRpt,k,1.344,noRew,,,,,,0,29,0,29,0,1,,,,,,,,,,,,,,,,,
298336,2022-12-05_18h09.20.611,vts_reward_expectancy_bt,2022.2.4,Win32,144.1337561,Chrome,1920,1080,,,,,0,504,,,,,,,,,,,,,,,,,D,125,star,1,0,,,,,,,,,,,,,,,,switch,letter,lettSwt,d,0.5391,noRew,,,,,,0,30,0,30,0,1,,,,,,,,,,,,,,,,,
298336,2022-12-05_18h09.20.611,vts_reward_expectancy_bt,2022.2.4,Win32,144.1337561,Chrome,1920,1080,,,,,0,504,,,,,,,,,,,,,,,,,H,146,hexagon,1,0,,,,,,,,,,,,,,,,repeat,letter,lettRpt,d,0.6392,noRew,,,,,,0,31,0,31,0,1,,,,,,,,,,,,,,,,,
298336,2022-12-05_18h09.20.611,vts_reward_expectancy_bt,2022.2.4,Win32,144.1337561,Chrome,1920,1080,,,,,0,504,,,,,,,,,,,,,,,,,H,167,triangle,1,0,,,,,,,,,,,,,,,,repeat,letter,lettRpt,d,0.6394,noRew,,,,,,0,32,0,32,0,1,,,,,,,,,,,,,,,,,
298336,2022-12-05_18h09.20.611,vts_reward_expectancy_bt,2022.2.4,Win32,144.1337561,Chrome,1920,1080,,,,,0,504,,,,,,,,,,,,,,,,,B,125,star,1,0,,,,,,,,,,,,,,,,repeat,letter,lettRpt,d,0.4397,noRew,,,,,,0,33,0,33,0,1,,,,,,,,,,,,,,,,,
298336,2022-12-05_18h09.20.611,vts_reward_expectancy_bt,2022.2.4,Win32,144.1337561,Chrome,1920,1080,,,,,0,504,,,,,,,,,,,,,,,,,W,132,triangle,1,0,,,,,,,,,,,,,,,,switch,number,numSwt,j,0.6464,noRew,,,,,,0,34,0,34,0,1,,,,,,,,,,,,,,,,,
298336,2022-12-05_18h09.20.611,vts_reward_expectancy_bt,2022.2.4,Win32,144.1337561,Chrome,1920,1080,,,,,0,504,,,,,,,,,,,,,,,,,D,160,star,1,0,,,,,,,,,,,,,,,,switch,letter,lettSwt,d,0.7816,noRew,,,,,,0,35,0,35,0,1,,,,,,,,,,,,,,,,,
298336,2022-12-05_18h09.20.611,vts_reward_expectancy_bt,2022.2.4,Win32,144.1337561,Chrome,1920,1080,,,,,0,504,,,,,,,,,,,,,,,,,D,132,hexagon,1,0,,,,,,,,,,,,,,,,switch,number,numSwt,j,0.5217,noRew,,,,,,0,36,0,36,0,1,,,,,,,,,,,,,,,,,
298336,2022-12-05_18h09.20.611,vts_reward_expectancy_bt,2022.2.4,Win32,144.1337561,Chrome,1920,1080,,,,,0,504,,,,,,,,,,,,,,,,,W,174,triangle,0,0,,,,,,,,,,,,,,,,repeat,number,NA,j,0.6034,noRew,,,,,,0,37,0,37,0,1,,,,,,,,,,,,,,,,,
298336,2022-12-05_18h09.20.611,vts_reward_expectancy_bt,2022.2.4,Win32,144.1337561,Chrome,1920,1080,,,,,0,504,,,,,,,,,,,,,,,,,B,125,hexagon,1,1,,,,,,,,,,,,,,,,repeat,number,numRpt,j,0.5279,noRew,,,,,,0,38,0,38,0,1,,,,,,,,,,,,,,,,,
298336,2022-12-05_18h09.20.611,vts_reward_expectancy_bt,2022.2.4,Win32,144.1337561,Chrome,1920,1080,,,,,0,504,,,,,,,,,,,,,,,,,H,146,triangle,1,0,,,,,,,,,,,,,,,,repeat,number,numRpt,j,0.5069,noRew,,,,,,0,39,0,39,0,1,,,,,,,,,,,,,,,,,
298336,2022-12-05_18h09.20.611,vts_reward_expectancy_bt,2022.2.4,Win32,144.1337561,Chrome,1920,1080,,,,,0,504,,,,,,,,,,,,,,,,,B,125,circle,1,0,,,,,,,,,,,,,,,,switch,letter,lettSwt,d,0.3895,noRew,,,,,,0,40,0,40,0,1,,,,,,,,,,,,,,,,,
298336,2022-12-05_18h09.20.611,vts_reward_expectancy_bt,2022.2.4,Win32,144.1337561,Chrome,1920,1080,,,,,0,504,,,,,,,,,,,,,,,,,W,181,triangle,1,0,,,,,,,,,,,,,,,,switch,number,numSwt,k,0.6501,noRew,,,,,,0,41,0,41,0,1,,,,,,,,,,,,,,,,,
298336,2022-12-05_18h09.20.611,vts_reward_expectancy_bt,2022.2.4,Win32,144.1337561,Chrome,1920,1080,,,,,0,504,,,,,,,,,,,,,,,,,F,139,circle,1,0,,,,,,,,,,,,,,,,switch,letter,lettSwt,d,0.6684,noRew,,,,,,0,42,0,42,0,1,,,,,,,,,,,,,,,,,
298336,2022-12-05_18h09.20.611,vts_reward_expectancy_bt,2022.2.4,Win32,144.1337561,Chrome,1920,1080,,,,,0,504,,,,,,,,,,,,,,,,,U,167,star,1,0,,,,,,,,,,,,,,,,switch,number,numSwt,k,0.7857,noRew,,,,,,0,43,0,43,0,1,,,,,,,,,,,,,,,,,
298336,2022-12-05_18h09.20.611,vts_reward_expectancy_bt,2022.2.4,Win32,144.1337561,Chrome,1920,1080,,,,,0,504,,,,,,,,,,,,,,,,,U,160,triangle,1,0,,,,,,,,,,,,,,,,switch,letter,lettSwt,f,0.7819,noRew,,,,,,0,44,0,44,0,1,,,,,,,,,,,,,,,,,
298336,2022-12-05_18h09.20.611,vts_reward_expectancy_bt,2022.2.4,Win32,144.1337561,Chrome,1920,1080,,,,,0,504,,,,,,,,,,,,,,,,,Y,139,hexagon,1,0,,,,,,,,,,,,,,,,switch,number,numSwt,j,0.7663,noRew,,,,,,0,45,0,45,0,1,,,,,,,,,,,,,,,,,
298336,2022-12-05_18h09.20.611,vts_reward_expectancy_bt,2022.2.4,Win32,144.1337561,Chrome,1920,1080,,,,,0,504,,,,,,,,,,,,,,,,,B,132,hexagon,1,0,,,,,,,,,,,,,,,,switch,letter,lettSwt,d,0.6387,noRew,,,,,,0,46,0,46,0,1,,,,,,,,,,,,,,,,,
298336,2022-12-05_18h09.20.611,vts_reward_expectancy_bt,2022.2.4,Win32,144.1337561,Chrome,1920,1080,,,,,0,504,,,,,,,,,,,,,,,,,S,167,triangle,1,0,,,,,,,,,,,,,,,,repeat,letter,lettRpt,f,0.7121,noRew,,,,,,0,47,0,47,0,1,,,,,,,,,,,,,,,,,
298336,2022-12-05_18h09.20.611,vts_reward_expectancy_bt,2022.2.4,Win32,144.1337561,Chrome,1920,1080,,,,,0,504,,,,,,,,,,,,,,,,,U,174,hexagon,1,0,,,,,,,,,,,,,,,,repeat,letter,lettRpt,f,0.648,noRew,,,,,,0,48,0,48,0,1,,,,,,,,,,,,,,,,,
298336,2022-12-05_18h09.20.611,vts_reward_expectancy_bt,2022.2.4,Win32,144.1337561,Chrome,1920,1080,,,,,0,504,,,,,,,,,,,,,,,,,D,160,star,1,0,,,,,,,,,,,,,,,,repeat,letter,lettRpt,d,0.6277,noRew,,,,,,0,49,0,49,0,1,,,,,,,,,,,,,,,,,
298336,2022-12-05_18h09.20.611,vts_reward_expectancy_bt,2022.2.4,Win32,144.1337561,Chrome,1920,1080,,,,,0,504,,,,,,,,,,,,,,,,,W,146,hexagon,1,0,,,,,,,,,,,,,,,,repeat,letter,lettRpt,f,0.516,noRew,,,,,,0,50,0,50,0,1,,,,,,,,,,,,,,,,,
298336,2022-12-05_18h09.20.611,vts_reward_expectancy_bt,2022.2.4,Win32,144.1337561,Chrome,1920,1080,,,,,0,504,,,,,,,,,,,,,,,,,F,181,circle,1,0,,,,,,,,,,,,,,,,repeat,letter,lettRpt,d,0.8707,noRew,,,,,,0,51,0,51,0,1,,,,,,,,,,,,,,,,,
298336,2022-12-05_18h09.20.611,vts_reward_expectancy_bt,2022.2.4,Win32,144.1337561,Chrome,1920,1080,,,,,0,504,,,,,,,,,,,,,,,,,H,125,triangle,1,0,,,,,,,,,,,,,,,,switch,number,numSwt,j,0.4926,noRew,,,,,,0,52,0,52,0,1,,,,,,,,,,,,,,,,,
298336,2022-12-05_18h09.20.611,vts_reward_expectancy_bt,2022.2.4,Win32,144.1337561,Chrome,1920,1080,,,,,0,504,,,,,,,,,,,,,,,,,F,160,hexagon,1,0,,,,,,,,,,,,,,,,repeat,number,numRpt,k,0.4421,noRew,,,,,,0,53,0,53,0,1,,,,,,,,,,,,,,,,,
298336,2022-12-05_18h09.20.611,vts_reward_expectancy_bt,2022.2.4,Win32,144.1337561,Chrome,1920,1080,,,,,0,504,,,,,,,,,,,,,,,,,U,167,triangle,1,0,,,,,,,,,,,,,,,,repeat,number,numRpt,k,0.8271,noRew,,,,,,0,54,0,54,0,1,,,,,,,,,,,,,,,,,
298336,2022-12-05_18h09.20.611,vts_reward_expectancy_bt,2022.2.4,Win32,144.1337561,Chrome,1920,1080,,,,,0,504,,,,,,,,,,,,,,,,,S,132,hexagon,1,0,,,,,,,,,,,,,,,,switch,letter,lettSwt,f,0.5374,noRew,,,,,,0,55,0,55,0,1,,,,,,,,,,,,,,,,,
298336,2022-12-05_18h09.20.611,vts_reward_expectancy_bt,2022.2.4,Win32,144.1337561,Chrome,1920,1080,,,,,0,504,,,,,,,,,,,,,,,,,D,181,triangle,1,0,,,,,,,,,,,,,,,,repeat,letter,lettRpt,d,0.5002,noRew,,,,,,0,56,0,56,0,1,,,,,,,,,,,,,,,,,
298336,2022-12-05_18h09.20.611,vts_reward_expectancy_bt,2022.2.4,Win32,144.1337561,Chrome,1920,1080,,,,,0,504,,,,,,,,,,,,,,,,,U,160,circle,1,0,,,,,,,,,,,,,,,,switch,number,numSwt,k,0.9921,noRew,,,,,,0,57,0,57,0,1,,,,,,,,,,,,,,,,,
298336,2022-12-05_18h09.20.611,vts_reward_expectancy_bt,2022.2.4,Win32,144.1337561,Chrome,1920,1080,,,,,0,504,,,,,,,,,,,,,,,,,Y,167,triangle,1,0,,,,,,,,,,,,,,,,repeat,number,numRpt,k,0.5485,noRew,,,,,,0,58,0,58,0,1,,,,,,,,,,,,,,,,,
298336,2022-12-05_18h09.20.611,vts_reward_expectancy_bt,2022.2.4,Win32,144.1337561,Chrome,1920,1080,,,,,0,504,,,,,,,,,,,,,,,,,S,139,hexagon,1,0,,,,,,,,,,,,,,,,repeat,number,numRpt,j,0.563,noRew,,,,,,0,59,0,59,0,1,,,,,,,,,,,,,,,,,
298336,2022-12-05_18h09.20.611,vts_reward_expectancy_bt,2022.2.4,Win32,144.1337561,Chrome,1920,1080,,,,,0,504,,,,,,,,,,,,,,,,,F,174,star,1,0,,,,,,,,,,,,,,,,repeat,number,numRpt,k,0.517,noRew,,,,,,0,60,0,60,0,1,,,,,,,,,,,,,,,,,
298336,2022-12-05_18h09.20.611,vts_reward_expectancy_bt,2022.2.4,Win32,144.1337561,Chrome,1920,1080,,,,,0,504,,,,,,,,,,,,,,,,,H,167,triangle,1,0,,,,,,,,,,,,,,,,switch,letter,lettSwt,d,0.654,noRew,,,,,,0,61,0,61,0,1,,,,,,,,,,,,,,,,,
298336,2022-12-05_18h09.20.611,vts_reward_expectancy_bt,2022.2.4,Win32,144.1337561,Chrome,1920,1080,,,,,0,504,,,,,,,,,,,,,,,,,U,146,circle,1,0,,,,,,,,,,,,,,,,repeat,letter,lettRpt,f,0.6393,noRew,,,,,,0,62,0,62,0,1,,,,,,,,,,,,,,,,,
298336,2022-12-05_18h09.20.611,vts_reward_expectancy_bt,2022.2.4,Win32,144.1337561,Chrome,1920,1080,,,,,0,504,,,,,,,,,,,,,,,,,D,181,triangle,1,0,,,,,,,,,,,,,,,,repeat,letter,lettRpt,d,0.6876,noRew,,,,,,0,63,0,63,0,1,,,,,,,,,,,,,,,,,
298336,2022-12-05_18h09.20.611,vts_reward_expectancy_bt,2022.2.4,Win32,144.1337561,Chrome,1920,1080,,,,,,,,,,,,,,,,,,,,,,,,,,,,,,,,,,,,,,,,,,,,,,,,,,,,,,,,,,,,,,,,,,,,,,,,,,,,
298336,2022-12-05_18h09.20.611,vts_reward_expectancy_bt,2022.2.4,Win32,144.1337561,Chrome,1920,1080,,,,,0,504,,,,,,,,,,,,,,,,,F,160,hexagon,1,0,,,,,,,,,,,,,,,,repeat,letter,lettRpt,d,0.8452,Hi,,,,,,0,,,,,,space,6.4453,low,0,0,0,0,1,,,,,,,,,
298336,2022-12-05_18h09.20.611,vts_reward_expectancy_bt,2022.2.4,Win32,144.1337561,Chrome,1920,1080,,,,,10,514,,,,,,,,,,,,,,,,,Y,139,star,1,0,,,,,,,,,,,,,,,,repeat,letter,lettRpt,f,0.5817,Lo,,,,,,0,,,,,,,,low,1,0,1,0,1,,,,,,,,,
298336,2022-12-05_18h09.20.611,vts_reward_expectancy_bt,2022.2.4,Win32,144.1337561,Chrome,1920,1080,,,,,0,514,,,,,,,,,,,,,,,,,U,174,circle,1,0,,,,,,,,,,,,,,,,repeat,letter,lettRpt,f,0.6899,Hi,,,,,,0,,,,,,,,low,2,0,2,0,1,,,,,,,,,
298336,2022-12-05_18h09.20.611,vts_reward_expectancy_bt,2022.2.4,Win32,144.1337561,Chrome,1920,1080,,,,,1,515,,,,,,,,,,,,,,,,,B,181,triangle,1,0,,,,,,,,,,,,,,,,repeat,letter,lettRpt,d,0.3198,Lo,,,,,,0,,,,,,,,low,3,0,3,0,1,,,,,,,,,
298336,2022-12-05_18h09.20.611,vts_reward_expectancy_bt,2022.2.4,Win32,144.1337561,Chrome,1920,1080,,,,,10,525,,,,,,,,,,,,,,,,,S,146,hexagon,1,0,,,,,,,,,,,,,,,,switch,number,numSwt,j,0.3823,Hi,,,,,,0,,,,,,,,low,4,0,4,0,1,,,,,,,,,
298336,2022-12-05_18h09.20.611,vts_reward_expectancy_bt,2022.2.4,Win32,144.1337561,Chrome,1920,1080,,,,,1,526,,,,,,,,,,,,,,,,,W,167,star,1,0,,,,,,,,,,,,,,,,repeat,number,numRpt,k,0.3772,Lo,,,,,,0,,,,,,,,low,5,0,5,0,1,,,,,,,,,
298336,2022-12-05_18h09.20.611,vts_reward_expectancy_bt,2022.2.4,Win32,144.1337561,Chrome,1920,1080,,,,,10,536,,,,,,,,,,,,,,,,,H,132,circle,1,0,,,,,,,,,,,,,,,,repeat,number,numRpt,j,0.487,Hi,,,,,,0,,,,,,,,low,6,0,6,0,1,,,,,,,,,
298336,2022-12-05_18h09.20.611,vts_reward_expectancy_bt,2022.2.4,Win32,144.1337561,Chrome,1920,1080,,,,,1,537,,,,,,,,,,,,,,,,,D,125,triangle,1,0,,,,,,,,,,,,,,,,repeat,number,numRpt,j,0.3678,Lo,,,,,,0,,,,,,,,low,7,0,7,0,1,,,,,,,,,
298336,2022-12-05_18h09.20.611,vts_reward_expectancy_bt,2022.2.4,Win32,144.1337561,Chrome,1920,1080,,,,,0,537,,,,,,,,,,,,,,,,,F,160,circle,0,0,,,,,,,,,,,,,,,,switch,letter,NA,f,0.4083,Lo,,,,,,0,,,,,,,,low,8,0,8,0,1,,,,,,,,,
298336,2022-12-05_18h09.20.611,vts_reward_expectancy_bt,2022.2.4,Win32,144.1337561,Chrome,1920,1080,,,,,1,538,,,,,,,,,,,,,,,,,Y,139,star,1,1,,,,,,,,,,,,,,,,repeat,letter,lettRpt,f,0.4663,Lo,,,,,,0,,,,,,,,low,9,0,9,0,1,,,,,,,,,
298336,2022-12-05_18h09.20.611,vts_reward_expectancy_bt,2022.2.4,Win32,144.1337561,Chrome,1920,1080,,,,,1,539,,,,,,,,,,,,,,,,,U,174,triangle,1,0,,,,,,,,,,,,,,,,switch,number,numSwt,k,0.398,Lo,,,,,,0,,,,,,,,low,10,0,10,0,1,,,,,,,,,
298336,2022-12-05_18h09.20.611,vts_reward_expectancy_bt,2022.2.4,Win32,144.1337561,Chrome,1920,1080,,,,,10,549,,,,,,,,,,,,,,,,,B,181,hexagon,1,0,,,,,,,,,,,,,,,,repeat,number,numRpt,k,0.3546,Hi,,,,,,0,,,,,,,,low,11,0,11,0,1,,,,,,,,,
298336,2022-12-05_18h09.20.611,vts_reward_expectancy_bt,2022.2.4,Win32,144.1337561,Chrome,1920,1080,,,,,1,550,,,,,,,,,,,,,,,,,S,146,triangle,1,0,,,,,,,,,,,,,,,,repeat,number,numRpt,j,0.3798,Lo,,,,,,0,,,,,,,,low,12,0,12,0,1,,,,,,,,,
298336,2022-12-05_18h09.20.611,vts_reward_expectancy_bt,2022.2.4,Win32,144.1337561,Chrome,1920,1080,,,,,1,551,,,,,,,,,,,,,,,,,W,167,circle,1,0,,,,,,,,,,,,,,,,repeat,number,numRpt,k,0.3663,Hi,,,,,,0,,,,,,,,low,13,0,13,0,1,,,,,,,,,
298336,2022-12-05_18h09.20.611,vts_reward_expectancy_bt,2022.2.4,Win32,144.1337561,Chrome,1920,1080,,,,,10,561,,,,,,,,,,,,,,,,,H,132,hexagon,1,0,,,,,,,,,,,,,,,,repeat,number,numRpt,j,0.3055,Hi,,,,,,0,,,,,,,,low,14,0,14,0,1,,,,,,,,,
298336,2022-12-05_18h09.20.611,vts_reward_expectancy_bt,2022.2.4,Win32,144.1337561,Chrome,1920,1080,,,,,1,562,,,,,,,,,,,,,,,,,D,125,star,1,0,,,,,,,,,,,,,,,,switch,letter,lettSwt,d,0.4869,Lo,,,,,,0,,,,,,,,low,15,0,15,0,1,,,,,,,,,
298336,2022-12-05_18h09.20.611,vts_reward_expectancy_bt,2022.2.4,Win32,144.1337561,Chrome,1920,1080,,,,,0,562,,,,,,,,,,,,,,,,,W,146,hexagon,0,0,,,,,,,,,,,,,,,,repeat,letter,NA,d,0.3416,Lo,,,,,,0,,,,,,,,low,16,0,16,0,1,,,,,,,,,
298336,2022-12-05_18h09.20.611,vts_reward_expectancy_bt,2022.2.4,Win32,144.1337561,Chrome,1920,1080,,,,,1,563,,,,,,,,,,,,,,,,,D,160,triangle,1,1,,,,,,,,,,,,,,,,repeat,letter,lettRpt,d,0.4438,Lo,,,,,,0,,,,,,,,low,17,0,17,0,1,,,,,,,,,
298336,2022-12-05_18h09.20.611,vts_reward_expectancy_bt,2022.2.4,Win32,144.1337561,Chrome,1920,1080,,,,,1,564,,,,,,,,,,,,,,,,,F,174,star,1,0,,,,,,,,,,,,,,,,switch,number,numSwt,k,0.5974,Lo,,,,,,0,,,,,,,,low,18,0,18,0,1,,,,,,,,,
298336,2022-12-05_18h09.20.611,vts_reward_expectancy_bt,2022.2.4,Win32,144.1337561,Chrome,1920,1080,,,,,0,564,,,,,,,,,,,,,,,,,S,181,circle,1,0,,,,,,,,,,,,,,,,repeat,number,numRpt,k,0.514,Hi,,,,,,0,,,,,,,,low,19,0,19,0,1,,,,,,,,,
298336,2022-12-05_18h09.20.611,vts_reward_expectancy_bt,2022.2.4,Win32,144.1337561,Chrome,1920,1080,,,,,1,565,,,,,,,,,,,,,,,,,H,167,triangle,1,0,,,,,,,,,,,,,,,,repeat,number,numRpt,k,0.6697,Lo,,,,,,0,,,,,,,,low,20,0,20,0,1,,,,,,,,,
298336,2022-12-05_18h09.20.611,vts_reward_expectancy_bt,2022.2.4,Win32,144.1337561,Chrome,1920,1080,,,,,10,575,,,,,,,,,,,,,,,,,Y,132,circle,1,0,,,,,,,,,,,,,,,,repeat,number,numRpt,j,0.4381,Hi,,,,,,0,,,,,,,,low,21,0,21,0,1,,,,,,,,,
298336,2022-12-05_18h09.20.611,vts_reward_expectancy_bt,2022.2.4,Win32,144.1337561,Chrome,1920,1080,,,,,1,576,,,,,,,,,,,,,,,,,U,125,hexagon,1,0,,,,,,,,,,,,,,,,switch,letter,lettSwt,f,0.3821,Hi,,,,,,0,,,,,,,,low,22,0,22,0,1,,,,,,,,,
298336,2022-12-05_18h09.20.611,vts_reward_expectancy_bt,2022.2.4,Win32,144.1337561,Chrome,1920,1080,,,,,10,586,,,,,,,,,,,,,,,,,B,139,star,1,0,,,,,,,,,,,,,,,,repeat,letter,lettRpt,d,0.4448,Lo,,,,,,0,,,,,,,,low,23,0,23,0,1,,,,,,,,,
298336,2022-12-05_18h09.20.611,vts_reward_expectancy_bt,2022.2.4,Win32,144.1337561,Chrome,1920,1080,,,,,0,586,,,,,,,,,,,,,,,,,W,125,hexagon,0,0,,,,,,,,,,,,,,,,switch,number,NA,k,0.4102,Lo,,,,,,0,,,,,,,,low,24,0,24,0,1,,,,,,,,,
298336,2022-12-05_18h09.20.611,vts_reward_expectancy_bt,2022.2.4,Win32,144.1337561,Chrome,1920,1080,,,,,0,586,,,,,,,,,,,,,,,,,B,181,triangle,0,1,,,,,,,,,,,,,,,,repeat,number,NA,j,0.4756,Lo,,,,,,0,,,,,,,,low,25,0,25,0,1,,,,,,,,,
298336,2022-12-05_18h09.20.611,vts_reward_expectancy_bt,2022.2.4,Win32,144.1337561,Chrome,1920,1080,,,,,1,587,,,,,,,,,,,,,,,,,Y,146,circle,1,1,,,,,,,,,,,,,,,,switch,letter,lettSwt,f,0.3984,Hi,,,,,,0,,,,,,,,low,26,0,26,0,1,,,,,,,,,
298336,2022-12-05_18h09.20.611,vts_reward_expectancy_bt,2022.2.4,Win32,144.1337561,Chrome,1920,1080,,,,,10,597,,,,,,,,,,,,,,,,,S,160,star,1,0,,,,,,,,,,,,,,,,repeat,letter,lettRpt,f,0.5839,Lo,,,,,,0,,,,,,,,low,27,0,27,0,1,,,,,,,,,
298336,2022-12-05_18h09.20.611,vts_reward_expectancy_bt,2022.2.4,Win32,144.1337561,Chrome,1920,1080,,,,,1,598,,,,,,,,,,,,,,,,,U,132,star,1,0,,,,,,,,,,,,,,,,switch,number,numSwt,j,0.545,Lo,,,,,,0,,,,,,,,low,28,0,28,0,1,,,,,,,,,
298336,2022-12-05_18h09.20.611,vts_reward_expectancy_bt,2022.2.4,Win32,144.1337561,Chrome,1920,1080,,,,,10,608,,,,,,,,,,,,,,,,,F,174,hexagon,1,0,,,,,,,,,,,,,,,,repeat,number,numRpt,k,0.3986,Hi,,,,,,0,,,,,,,,low,29,0,29,0,1,,,,,,,,,
298336,2022-12-05_18h09.20.611,vts_reward_expectancy_bt,2022.2.4,Win32,144.1337561,Chrome,1920,1080,,,,,10,618,,,,,,,,,,,,,,,,,H,167,circle,1,0,,,,,,,,,,,,,,,,repeat,number,numRpt,k,0.4587,Hi,,,,,,0,,,,,,,,low,30,0,30,0,1,,,,,,,,,
298336,2022-12-05_18h09.20.611,vts_reward_expectancy_bt,2022.2.4,Win32,144.1337561,Chrome,1920,1080,,,,,1,619,,,,,,,,,,,,,,,,,D,139,triangle,1,0,,,,,,,,,,,,,,,,switch,letter,lettSwt,d,0.3674,Lo,,,,,,0,,,,,,,,low,31,0,31,0,1,,,,,,,,,
298336,2022-12-05_18h09.20.611,vts_reward_expectancy_bt,2022.2.4,Win32,144.1337561,Chrome,1920,1080,,,,,0,619,,,,,,,,,,,,,,,,,F,139,hexagon,1,0,,,,,,,,,,,,,,,,repeat,letter,lettRpt,d,0.5302,Hi,,,,,,1,,,,,,space,1.2113,low,0,0,0,0,1,,,,,,,,,
298336,2022-12-05_18h09.20.611,vts_reward_expectancy_bt,2022.2.4,Win32,144.1337561,Chrome,1920,1080,,,,,10,629,,,,,,,,,,,,,,,,,D,167,triangle,1,0,,,,,,,,,,,,,,,,repeat,letter,lettRpt,d,0.4105,Lo,,,,,,1,,,,,,,,low,1,0,1,0,1,,,,,,,,,
298336,2022-12-05_18h09.20.611,vts_reward_expectancy_bt,2022.2.4,Win32,144.1337561,Chrome,1920,1080,,,,,1,630,,,,,,,,,,,,,,,,,S,160,star,1,0,,,,,,,,,,,,,,,,switch,number,numSwt,k,0.4702,Lo,,,,,,1,,,,,,,,low,2,0,2,0,1,,,,,,,,,
298336,2022-12-05_18h09.20.611,vts_reward_expectancy_bt,2022.2.4,Win32,144.1337561,Chrome,1920,1080,,,,,10,640,,,,,,,,,,,,,,,,,H,146,circle,1,0,,,,,,,,,,,,,,,,repeat,number,numRpt,j,0.3373,Hi,,,,,,1,,,,,,,,low,3,0,3,0,1,,,,,,,,,
298336,2022-12-05_18h09.20.611,vts_reward_expectancy_bt,2022.2.4,Win32,144.1337561,Chrome,1920,1080,,,,,0,640,,,,,,,,,,,,,,,,,W,181,hexagon,1,0,,,,,,,,,,,,,,,,repeat,number,numRpt,k,0.3773,Hi,,,,,,1,,,,,,,,low,4,0,4,0,1,,,,,,,,,
298336,2022-12-05_18h09.20.611,vts_reward_expectancy_bt,2022.2.4,Win32,144.1337561,Chrome,1920,1080,,,,,1,641,,,,,,,,,,,,,,,,,B,132,triangle,1,0,,,,,,,,,,,,,,,,switch,letter,lettSwt,d,0.447,Lo,,,,,,1,,,,,,,,low,5,0,5,0,1,,,,,,,,,
298336,2022-12-05_18h09.20.611,vts_reward_expectancy_bt,2022.2.4,Win32,144.1337561,Chrome,1920,1080,,,,,10,651,,,,,,,,,,,,,,,,,Y,174,star,1,0,,,,,,,,,,,,,,,,repeat,letter,lettRpt,f,0.4032,Lo,,,,,,1,,,,,,,,low,6,0,6,0,1,,,,,,,,,
298336,2022-12-05_18h09.20.611,vts_reward_expectancy_bt,2022.2.4,Win32,144.1337561,Chrome,1920,1080,,,,,0,651,,,,,,,,,,,,,,,,,U,125,circle,1,0,,,,,,,,,,,,,,,,switch,number,numSwt,j,0.4906,Hi,,,,,,1,,,,,,,,low,7,0,7,0,1,,,,,,,,,
298336,2022-12-05_18h09.20.611,vts_reward_expectancy_bt,2022.2.4,Win32,144.1337561,Chrome,1920,1080,,,,,0,651,,,,,,,,,,,,,,,,,F,139,circle,1,0,,,,,,,,,,,,,,,,switch,letter,lettSwt,d,0.4566,Hi,,,,,,1,,,,,,,,low,8,0,8,0,1,,,,,,,,,
298336,2022-12-05_18h09.20.611,vts_reward_expectancy_bt,2022.2.4,Win32,144.1337561,Chrome,1920,1080,,,,,10,661,,,,,,,,,,,,,,,,,D,167,hexagon,1,0,,,,,,,,,,,,,,,,switch,number,numSwt,k,0.3695,Hi,,,,,,1,,,,,,,,low,9,0,9,0,1,,,,,,,,,
298336,2022-12-05_18h09.20.611,vts_reward_expectancy_bt,2022.2.4,Win32,144.1337561,Chrome,1920,1080,,,,,1,662,,,,,,,,,,,,,,,,,S,160,triangle,1,0,,,,,,,,,,,,,,,,repeat,number,numRpt,k,0.36,Lo,,,,,,1,,,,,,,,low,10,0,10,0,1,,,,,,,,,
298336,2022-12-05_18h09.20.611,vts_reward_expectancy_bt,2022.2.4,Win32,144.1337561,Chrome,1920,1080,,,,,1,663,,,,,,,,,,,,,,,,,H,146,star,1,0,,,,,,,,,,,,,,,,repeat,number,numRpt,j,0.362,Lo,,,,,,1,,,,,,,,low,11,0,11,0,1,,,,,,,,,
298336,2022-12-05_18h09.20.611,vts_reward_expectancy_bt,2022.2.4,Win32,144.1337561,Chrome,1920,1080,,,,,10,673,,,,,,,,,,,,,,,,,W,181,star,1,0,,,,,,,,,,,,,,,,repeat,number,numRpt,k,0.3085,Lo,,,,,,1,,,,,,,,low,12,0,12,0,1,,,,,,,,,
298336,2022-12-05_18h09.20.611,vts_reward_expectancy_bt,2022.2.4,Win32,144.1337561,Chrome,1920,1080,,,,,10,683,,,,,,,,,,,,,,,,,B,132,triangle,1,0,,,,,,,,,,,,,,,,repeat,number,numRpt,j,0.3254,Lo,,,,,,1,,,,,,,,low,13,0,13,0,1,,,,,,,,,
298336,2022-12-05_18h09.20.611,vts_reward_expectancy_bt,2022.2.4,Win32,144.1337561,Chrome,1920,1080,,,,,1,684,,,,,,,,,,,,,,,,,Y,174,hexagon,1,0,,,,,,,,,,,,,,,,repeat,number,numRpt,k,0.343,Hi,,,,,,1,,,,,,,,low,14,0,14,0,1,,,,,,,,,
298336,2022-12-05_18h09.20.611,vts_reward_expectancy_bt,2022.2.4,Win32,144.1337561,Chrome,1920,1080,,,,,0,684,,,,,,,,,,,,,,,,,U,125,circle,1,0,,,,,,,,,,,,,,,,repeat,number,numRpt,j,0.5608,Hi,,,,,,1,,,,,,,,low,15,0,15,0,1,,,,,,,,,
298336,2022-12-05_18h09.20.611,vts_reward_expectancy_bt,2022.2.4,Win32,144.1337561,Chrome,1920,1080,,,,,0,684,,,,,,,,,,,,,,,,,H,125,circle,1,0,,,,,,,,,,,,,,,,repeat,number,numRpt,j,0.4361,Hi,,,,,,1,,,,,,,,low,16,0,16,0,1,,,,,,,,,
298336,2022-12-05_18h09.20.611,vts_reward_expectancy_bt,2022.2.4,Win32,144.1337561,Chrome,1920,1080,,,,,0,684,,,,,,,,,,,,,,,,,S,160,hexagon,0,0,,,,,,,,,,,,,,,,repeat,number,NA,j,0.6743,Hi,,,,,,1,,,,,,,,low,17,0,17,0,1,,,,,,,,,
298336,2022-12-05_18h09.20.611,vts_reward_expectancy_bt,2022.2.4,Win32,144.1337561,Chrome,1920,1080,,,,,10,694,,,,,,,,,,,,,,,,,D,181,triangle,1,1,,,,,,,,,,,,,,,,repeat,number,numRpt,k,0.417,Lo,,,,,,1,,,,,,,,low,18,0,18,0,1,,,,,,,,,
298336,2022-12-05_18h09.20.611,vts_reward_expectancy_bt,2022.2.4,Win32,144.1337561,Chrome,1920,1080,,,,,1,695,,,,,,,,,,,,,,,,,W,146,star,1,0,,,,,,,,,,,,,,,,repeat,number,numRpt,j,0.4566,Lo,,,,,,1,,,,,,,,low,19,0,19,0,1,,,,,,,,,
298336,2022-12-05_18h09.20.611,vts_reward_expectancy_bt,2022.2.4,Win32,144.1337561,Chrome,1920,1080,,,,,10,705,,,,,,,,,,,,,,,,,Y,139,triangle,1,0,,,,,,,,,,,,,,,,repeat,number,numRpt,j,0.411,Lo,,,,,,1,,,,,,,,low,20,0,20,0,1,,,,,,,,,
298336,2022-12-05_18h09.20.611,vts_reward_expectancy_bt,2022.2.4,Win32,144.1337561,Chrome,1920,1080,,,,,1,706,,,,,,,,,,,,,,,,,B,132,circle,1,0,,,,,,,,,,,,,,,,repeat,number,numRpt,j,0.3517,Hi,,,,,,1,,,,,,,,low,21,0,21,0,1,,,,,,,,,
298336,2022-12-05_18h09.20.611,vts_reward_expectancy_bt,2022.2.4,Win32,144.1337561,Chrome,1920,1080,,,,,0,706,,,,,,,,,,,,,,,,,U,167,star,0,0,,,,,,,,,,,,,,,,repeat,number,NA,j,0.5425,Hi,,,,,,1,,,,,,,,low,22,0,22,0,1,,,,,,,,,
298336,2022-12-05_18h09.20.611,vts_reward_expectancy_bt,2022.2.4,Win32,144.1337561,Chrome,1920,1080,,,,,0,706,,,,,,,,,,,,,,,,,F,174,hexagon,1,1,,,,,,,,,,,,,,,,repeat,number,numRpt,k,0.4584,Hi,,,,,,1,,,,,,,,low,23,0,23,0,1,,,,,,,,,
298336,2022-12-05_18h09.20.611,vts_reward_expectancy_bt,2022.2.4,Win32,144.1337561,Chrome,1920,1080,,,,,0,706,,,,,,,,,,,,,,,,,U,146,circle,1,0,,,,,,,,,,,,,,,,switch,letter,lettSwt,f,0.438,Hi,,,,,,1,,,,,,,,low,24,0,24,0,1,,,,,,,,,
298336,2022-12-05_18h09.20.611,vts_reward_expectancy_bt,2022.2.4,Win32,144.1337561,Chrome,1920,1080,,,,,0,706,,,,,,,,,,,,,,,,,Y,160,hexagon,1,0,,,,,,,,,,,,,,,,repeat,letter,lettRpt,f,0.4826,Hi,,,,,,1,,,,,,,,low,25,0,25,0,1,,,,,,,,,
298336,2022-12-05_18h09.20.611,vts_reward_expectancy_bt,2022.2.4,Win32,144.1337561,Chrome,1920,1080,,,,,1,707,,,,,,,,,,,,,,,,,W,139,star,1,0,,,,,,,,,,,,,,,,repeat,letter,lettRpt,f,0.4532,Lo,,,,,,1,,,,,,,,low,26,0,26,0,1,,,,,,,,,
298336,2022-12-05_18h09.20.611,vts_reward_expectancy_bt,2022.2.4,Win32,144.1337561,Chrome,1920,1080,,,,,1,708,,,,,,,,,,,,,,,,,H,125,triangle,1,0,,,,,,,,,,,,,,,,repeat,letter,lettRpt,d,0.2966,Lo,,,,,,1,,,,,,,,low,27,0,27,0,1,,,,,,,,,
298336,2022-12-05_18h09.20.611,vts_reward_expectancy_bt,2022.2.4,Win32,144.1337561,Chrome,1920,1080,,,,,1,709,,,,,,,,,,,,,,,,,B,132,star,1,0,,,,,,,,,,,,,,,,switch,number,numSwt,j,0.3893,Lo,,,,,,1,,,,,,,,low,28,0,28,0,1,,,,,,,,,
298336,2022-12-05_18h09.20.611,vts_reward_expectancy_bt,2022.2.4,Win32,144.1337561,Chrome,1920,1080,,,,,0,709,,,,,,,,,,,,,,,,,D,167,circle,1,0,,,,,,,,,,,,,,,,switch,letter,lettSwt,d,0.3954,Hi,,,,,,1,,,,,,,,low,29,0,29,0,1,,,,,,,,,
298336,2022-12-05_18h09.20.611,vts_reward_expectancy_bt,2022.2.4,Win32,144.1337561,Chrome,1920,1080,,,,,1,710,,,,,,,,,,,,,,,,,F,181,triangle,1,0,,,,,,,,,,,,,,,,repeat,letter,lettRpt,d,0.5359,Lo,,,,,,1,,,,,,,,low,30,0,30,0,1,,,,,,,,,
298336,2022-12-05_18h09.20.611,vts_reward_expectancy_bt,2022.2.4,Win32,144.1337561,Chrome,1920,1080,,,,,10,720,,,,,,,,,,,,,,,,,S,174,hexagon,1,0,,,,,,,,,,,,,,,,switch,number,numSwt,k,0.3821,Hi,,,,,,1,,,,,,,,low,31,0,31,0,1,,,,,,,,,
298336,2022-12-05_18h09.20.611,vts_reward_expectancy_bt,2022.2.4,Win32,144.1337561,Chrome,1920,1080,,,,,10,730,,,,,,,,,,,,,,,,,W,132,star,1,0,,,,,,,,,,,,,,,,repeat,number,numRpt,j,0.5004,Lo,,,,,,2,,,,,,space,55.773,low,0,0,0,0,1,,,,,,,,,
298336,2022-12-05_18h09.20.611,vts_reward_expectancy_bt,2022.2.4,Win32,144.1337561,Chrome,1920,1080,,,,,0,730,,,,,,,,,,,,,,,,,H,167,circle,1,0,,,,,,,,,,,,,,,,repeat,number,numRpt,k,0.3817,Hi,,,,,,2,,,,,,,,low,1,0,1,0,1,,,,,,,,,
298336,2022-12-05_18h09.20.611,vts_reward_expectancy_bt,2022.2.4,Win32,144.1337561,Chrome,1920,1080,,,,,0,730,,,,,,,,,,,,,,,,,U,160,hexagon,1,0,,,,,,,,,,,,,,,,repeat,number,numRpt,k,0.4424,Hi,,,,,,2,,,,,,,,low,2,0,2,0,1,,,,,,,,,
298336,2022-12-05_18h09.20.611,vts_reward_expectancy_bt,2022.2.4,Win32,144.1337561,Chrome,1920,1080,,,,,0,730,,,,,,,,,,,,,,,,,S,139,triangle,0,0,,,,,,,,,,,,,,,,repeat,number,NA,k,0.2428,Hi,,,,,,2,,,,,,,,low,3,0,3,0,1,,,,,,,,,
298336,2022-12-05_18h09.20.611,vts_reward_expectancy_bt,2022.2.4,Win32,144.1337561,Chrome,1920,1080,,,,,0,730,,,,,,,,,,,,,,,,,B,174,star,0,1,,,,,,,,,,,,,,,,repeat,number,NA,j,0.2628,Hi,,,,,,2,,,,,,,,low,4,0,4,0,1,,,,,,,,,
298336,2022-12-05_18h09.20.611,vts_reward_expectancy_bt,2022.2.4,Win32,144.1337561,Chrome,1920,1080,,,,,1,731,,,,,,,,,,,,,,,,,F,125,circle,1,1,,,,,,,,,,,,,,,,repeat,number,numRpt,j,0.3357,Hi,,,,,,2,,,,,,,,low,5,0,5,0,1,,,,,,,,,
298336,2022-12-05_18h09.20.611,vts_reward_expectancy_bt,2022.2.4,Win32,144.1337561,Chrome,1920,1080,,,,,0,731,,,,,,,,,,,,,,,,,Y,146,hexagon,0,0,,,,,,,,,,,,,,,,repeat,number,NA,k,0.245,Hi,,,,,,2,,,,,,,,low,6,0,6,0,1,,,,,,,,,
298336,2022-12-05_18h09.20.611,vts_reward_expectancy_bt,2022.2.4,Win32,144.1337561,Chrome,1920,1080,,,,,1,732,,,,,,,,,,,,,,,,,D,181,triangle,1,1,,,,,,,,,,,,,,,,repeat,number,numRpt,k,0.3413,Lo,,,,,,2,,,,,,,,low,7,0,7,0,1,,,,,,,,,
298336,2022-12-05_18h09.20.611,vts_reward_expectancy_bt,2022.2.4,Win32,144.1337561,Chrome,1920,1080,,,,,0,732,,,,,,,,,,,,,,,,,W,132,hexagon,1,0,,,,,,,,,,,,,,,,repeat,number,numRpt,j,0.4115,Hi,,,,,,2,,,,,,,,low,8,0,8,0,1,,,,,,,,,
298336,2022-12-05_18h09.20.611,vts_reward_expectancy_bt,2022.2.4,Win32,144.1337561,Chrome,1920,1080,,,,,1,733,,,,,,,,,,,,,,,,,H,167,triangle,1,0,,,,,,,,,,,,,,,,repeat,number,numRpt,k,0.4031,Lo,,,,,,2,,,,,,,,low,9,0,9,0,1,,,,,,,,,
298336,2022-12-05_18h09.20.611,vts_reward_expectancy_bt,2022.2.4,Win32,144.1337561,Chrome,1920,1080,,,,,1,734,,,,,,,,,,,,,,,,,U,160,circle,1,0,,,,,,,,,,,,,,,,repeat,number,numRpt,k,0.3526,Hi,,,,,,2,,,,,,,,low,10,0,10,0,1,,,,,,,,,
298336,2022-12-05_18h09.20.611,vts_reward_expectancy_bt,2022.2.4,Win32,144.1337561,Chrome,1920,1080,,,,,10,744,,,,,,,,,,,,,,,,,S,139,star,1,0,,,,,,,,,,,,,,,,repeat,number,numRpt,j,0.3357,Lo,,,,,,2,,,,,,,,low,11,0,11,0,1,,,,,,,,,
298336,2022-12-05_18h09.20.611,vts_reward_expectancy_bt,2022.2.4,Win32,144.1337561,Chrome,1920,1080,,,,,0,744,,,,,,,,,,,,,,,,,B,174,circle,1,0,,,,,,,,,,,,,,,,repeat,number,numRpt,k,0.4453,Hi,,,,,,2,,,,,,,,low,12,0,12,0,1,,,,,,,,,
298336,2022-12-05_18h09.20.611,vts_reward_expectancy_bt,2022.2.4,Win32,144.1337561,Chrome,1920,1080,,,,,1,745,,,,,,,,,,,,,,,,,F,125,star,1,0,,,,,,,,,,,,,,,,repeat,number,numRpt,j,0.4352,Lo,,,,,,2,,,,,,,,low,13,0,13,0,1,,,,,,,,,
298336,2022-12-05_18h09.20.611,vts_reward_expectancy_bt,2022.2.4,Win32,144.1337561,Chrome,1920,1080,,,,,0,745,,,,,,,,,,,,,,,,,Y,146,hexagon,1,0,,,,,,,,,,,,,,,,repeat,number,numRpt,j,0.3862,Hi,,,,,,2,,,,,,,,low,14,0,14,0,1,,,,,,,,,
298336,2022-12-05_18h09.20.611,vts_reward_expectancy_bt,2022.2.4,Win32,144.1337561,Chrome,1920,1080,,,,,1,746,,,,,,,,,,,,,,,,,D,181,triangle,1,0,,,,,,,,,,,,,,,,switch,letter,lettSwt,d,0.3509,Lo,,,,,,2,,,,,,,,low,15,0,15,0,1,,,,,,,,,
298336,2022-12-05_18h09.20.611,vts_reward_expectancy_bt,2022.2.4,Win32,144.1337561,Chrome,1920,1080,,,,,10,756,,,,,,,,,,,,,,,,,F,174,circle,1,0,,,,,,,,,,,,,,,,repeat,letter,lettRpt,d,0.389,Hi,,,,,,2,,,,,,,,low,16,0,16,0,1,,,,,,,,,
298336,2022-12-05_18h09.20.611,vts_reward_expectancy_bt,2022.2.4,Win32,144.1337561,Chrome,1920,1080,,,,,0,756,,,,,,,,,,,,,,,,,U,146,hexagon,0,0,,,,,,,,,,,,,,,,repeat,letter,NA,d,0.3401,Hi,,,,,,2,,,,,,,,low,17,0,17,0,1,,,,,,,,,
298336,2022-12-05_18h09.20.611,vts_reward_expectancy_bt,2022.2.4,Win32,144.1337561,Chrome,1920,1080,,,,,0,756,,,,,,,,,,,,,,,,,Y,139,star,0,1,,,,,,,,,,,,,,,,repeat,letter,NA,d,0.4731,Hi,,,,,,2,,,,,,,,low,18,0,18,0,1,,,,,,,,,
298336,2022-12-05_18h09.20.611,vts_reward_expectancy_bt,2022.2.4,Win32,144.1337561,Chrome,1920,1080,,,,,10,766,,,,,,,,,,,,,,,,,D,132,triangle,1,1,,,,,,,,,,,,,,,,repeat,letter,lettRpt,d,0.4178,Lo,,,,,,2,,,,,,,,low,19,0,19,0,1,,,,,,,,,
298336,2022-12-05_18h09.20.611,vts_reward_expectancy_bt,2022.2.4,Win32,144.1337561,Chrome,1920,1080,,,,,1,767,,,,,,,,,,,,,,,,,H,181,triangle,1,0,,,,,,,,,,,,,,,,switch,number,numSwt,k,0.3262,Lo,,,,,,2,,,,,,,,low,20,0,20,0,1,,,,,,,,,
298336,2022-12-05_18h09.20.611,vts_reward_expectancy_bt,2022.2.4,Win32,144.1337561,Chrome,1920,1080,,,,,1,768,,,,,,,,,,,,,,,,,B,125,star,1,0,,,,,,,,,,,,,,,,switch,letter,lettSwt,d,0.3587,Lo,,,,,,2,,,,,,,,low,21,0,21,0,1,,,,,,,,,
298336,2022-12-05_18h09.20.611,vts_reward_expectancy_bt,2022.2.4,Win32,144.1337561,Chrome,1920,1080,,,,,0,768,,,,,,,,,,,,,,,,,W,167,circle,1,0,,,,,,,,,,,,,,,,switch,number,numSwt,k,0.4072,Hi,,,,,,2,,,,,,,,low,22,0,22,0,1,,,,,,,,,
298336,2022-12-05_18h09.20.611,vts_reward_expectancy_bt,2022.2.4,Win32,144.1337561,Chrome,1920,1080,,,,,0,768,,,,,,,,,,,,,,,,,S,160,hexagon,0,0,,,,,,,,,,,,,,,,switch,letter,NA,d,0.4918,Hi,,,,,,2,,,,,,,,low,23,0,23,0,1,,,,,,,,,
298336,2022-12-05_18h09.20.611,vts_reward_expectancy_bt,2022.2.4,Win32,144.1337561,Chrome,1920,1080,,,,,1,769,,,,,,,,,,,,,,,,,U,167,star,1,1,,,,,,,,,,,,,,,,repeat,letter,lettRpt,f,0.3924,Lo,,,,,,2,,,,,,,,low,24,0,24,0,1,,,,,,,,,
298336,2022-12-05_18h09.20.611,vts_reward_expectancy_bt,2022.2.4,Win32,144.1337561,Chrome,1920,1080,,,,,0,769,,,,,,,,,,,,,,,,,H,146,hexagon,0,0,,,,,,,,,,,,,,,,repeat,letter,NA,f,0.3893,Lo,,,,,,2,,,,,,,,low,25,0,25,0,1,,,,,,,,,
298336,2022-12-05_18h09.20.611,vts_reward_expectancy_bt,2022.2.4,Win32,144.1337561,Chrome,1920,1080,,,,,0,769,,,,,,,,,,,,,,,,,D,181,circle,1,1,,,,,,,,,,,,,,,,switch,number,numSwt,k,0.4566,Hi,,,,,,2,,,,,,,,low,26,0,26,0,1,,,,,,,,,
298336,2022-12-05_18h09.20.611,vts_reward_expectancy_bt,2022.2.4,Win32,144.1337561,Chrome,1920,1080,,,,,10,779,,,,,,,,,,,,,,,,,S,174,triangle,1,0,,,,,,,,,,,,,,,,switch,letter,lettSwt,f,0.4446,Lo,,,,,,2,,,,,,,,low,27,0,27,0,1,,,,,,,,,
298336,2022-12-05_18h09.20.611,vts_reward_expectancy_bt,2022.2.4,Win32,144.1337561,Chrome,1920,1080,,,,,10,789,,,,,,,,,,,,,,,,,B,132,star,1,0,,,,,,,,,,,,,,,,repeat,letter,lettRpt,d,0.3253,Lo,,,,,,2,,,,,,,,low,28,0,28,0,1,,,,,,,,,
298336,2022-12-05_18h09.20.611,vts_reward_expectancy_bt,2022.2.4,Win32,144.1337561,Chrome,1920,1080,,,,,10,799,,,,,,,,,,,,,,,,,Y,139,hexagon,1,0,,,,,,,,,,,,,,,,repeat,letter,lettRpt,f,0.3507,Hi,,,,,,2,,,,,,,,low,29,0,29,0,1,,,,,,,,,
298336,2022-12-05_18h09.20.611,vts_reward_expectancy_bt,2022.2.4,Win32,144.1337561,Chrome,1920,1080,,,,,0,799,,,,,,,,,,,,,,,,,F,160,circle,1,0,,,,,,,,,,,,,,,,repeat,letter,lettRpt,d,0.4128,Hi,,,,,,2,,,,,,,,low,30,0,30,0,1,,,,,,,,,
298336,2022-12-05_18h09.20.611,vts_reward_expectancy_bt,2022.2.4,Win32,144.1337561,Chrome,1920,1080,,,,,0,799,,,,,,,,,,,,,,,,,W,125,triangle,0,0,,,,,,,,,,,,,,,,switch,number,NA,k,0.2926,Hi,,,,,,2,,,,,,,,low,31,0,31,0,1,,,,,,,,,
298336,2022-12-05_18h09.20.611,vts_reward_expectancy_bt,2022.2.4,Win32,144.1337561,Chrome,1920,1080,,,,,0,799,,,,,,,,,,,,,,,,,H,181,circle,1,1,,,,,,,,,,,,,,,,repeat,number,numRpt,k,0.4935,Hi,,,,,,3,,,,,,space,1.3128,low,0,0,0,0,1,,,,,,,,,
298336,2022-12-05_18h09.20.611,vts_reward_expectancy_bt,2022.2.4,Win32,144.1337561,Chrome,1920,1080,,,,,1,800,,,,,,,,,,,,,,,,,U,146,triangle,1,0,,,,,,,,,,,,,,,,switch,letter,lettSwt,f,0.3491,Lo,,,,,,3,,,,,,,,low,1,0,1,0,1,,,,,,,,,
298336,2022-12-05_18h09.20.611,vts_reward_expectancy_bt,2022.2.4,Win32,144.1337561,Chrome,1920,1080,,,,,10,810,,,,,,,,,,,,,,,,,F,167,star,1,0,,,,,,,,,,,,,,,,repeat,letter,lettRpt,d,0.3947,Lo,,,,,,3,,,,,,,,low,2,0,2,0,1,,,,,,,,,
298336,2022-12-05_18h09.20.611,vts_reward_expectancy_bt,2022.2.4,Win32,144.1337561,Chrome,1920,1080,,,,,0,810,,,,,,,,,,,,,,,,,S,132,hexagon,1,0,,,,,,,,,,,,,,,,repeat,letter,lettRpt,f,0.3839,Hi,,,,,,3,,,,,,,,low,3,0,3,0,1,,,,,,,,,
298336,2022-12-05_18h09.20.611,vts_reward_expectancy_bt,2022.2.4,Win32,144.1337561,Chrome,1920,1080,,,,,0,810,,,,,,,,,,,,,,,,,W,160,circle,1,0,,,,,,,,,,,,,,,,switch,number,numSwt,k,0.4277,Hi,,,,,,3,,,,,,,,low,4,0,4,0,1,,,,,,,,,
298336,2022-12-05_18h09.20.611,vts_reward_expectancy_bt,2022.2.4,Win32,144.1337561,Chrome,1920,1080,,,,,10,820,,,,,,,,,,,,,,,,,Y,125,triangle,1,0,,,,,,,,,,,,,,,,switch,letter,lettSwt,f,0.3672,Lo,,,,,,3,,,,,,,,low,5,0,5,0,1,,,,,,,,,
298336,2022-12-05_18h09.20.611,vts_reward_expectancy_bt,2022.2.4,Win32,144.1337561,Chrome,1920,1080,,,,,10,830,,,,,,,,,,,,,,,,,B,139,star,1,0,,,,,,,,,,,,,,,,repeat,letter,lettRpt,d,0.3593,Lo,,,,,,3,,,,,,,,low,6,0,6,0,1,,,,,,,,,
298336,2022-12-05_18h09.20.611,vts_reward_expectancy_bt,2022.2.4,Win32,144.1337561,Chrome,1920,1080,,,,,1,831,,,,,,,,,,,,,,,,,D,174,hexagon,1,0,,,,,,,,,,,,,,,,repeat,letter,lettRpt,d,0.3404,Hi,,,,,,3,,,,,,,,low,7,0,7,0,1,,,,,,,,,
298336,2022-12-05_18h09.20.611,vts_reward_expectancy_bt,2022.2.4,Win32,144.1337561,Chrome,1920,1080,,,,,0,831,,,,,,,,,,,,,,,,,H,181,hexagon,1,0,,,,,,,,,,,,,,,,repeat,letter,lettRpt,d,0.486,Hi,,,,,,3,,,,,,,,low,8,0,8,0,1,,,,,,,,,
298336,2022-12-05_18h09.20.611,vts_reward_expectancy_bt,2022.2.4,Win32,144.1337561,Chrome,1920,1080,,,,,1,832,,,,,,,,,,,,,,,,,U,146,triangle,1,0,,,,,,,,,,,,,,,,switch,number,numSwt,j,0.2794,Lo,,,,,,3,,,,,,,,low,9,0,9,0,1,,,,,,,,,
298336,2022-12-05_18h09.20.611,vts_reward_expectancy_bt,2022.2.4,Win32,144.1337561,Chrome,1920,1080,,,,,1,833,,,,,,,,,,,,,,,,,F,167,star,1,0,,,,,,,,,,,,,,,,repeat,number,numRpt,k,0.3225,Lo,,,,,,3,,,,,,,,low,10,0,10,0,1,,,,,,,,,
298336,2022-12-05_18h09.20.611,vts_reward_expectancy_bt,2022.2.4,Win32,144.1337561,Chrome,1920,1080,,,,,0,833,,,,,,,,,,,,,,,,,S,132,circle,1,0,,,,,,,,,,,,,,,,repeat,number,numRpt,j,0.4174,Hi,,,,,,3,,,,,,,,low,11,0,11,0,1,,,,,,,,,
298336,2022-12-05_18h09.20.611,vts_reward_expectancy_bt,2022.2.4,Win32,144.1337561,Chrome,1920,1080,,,,,0,833,,,,,,,,,,,,,,,,,W,160,triangle,0,0,,,,,,,,,,,,,,,,switch,letter,NA,d,0.2874,Hi,,,,,,3,,,,,,,,low,12,0,12,0,1,,,,,,,,,
298336,2022-12-05_18h09.20.611,vts_reward_expectancy_bt,2022.2.4,Win32,144.1337561,Chrome,1920,1080,,,,,0,833,,,,,,,,,,,,,,,,,Y,125,hexagon,1,1,,,,,,,,,,,,,,,,repeat,letter,lettRpt,f,0.3896,Hi,,,,,,3,,,,,,,,low,13,0,13,0,1,,,,,,,,,
298336,2022-12-05_18h09.20.611,vts_reward_expectancy_bt,2022.2.4,Win32,144.1337561,Chrome,1920,1080,,,,,0,833,,,,,,,,,,,,,,,,,B,139,circle,1,0,,,,,,,,,,,,,,,,switch,number,numSwt,j,0.4588,Hi,,,,,,3,,,,,,,,low,14,0,14,0,1,,,,,,,,,
298336,2022-12-05_18h09.20.611,vts_reward_expectancy_bt,2022.2.4,Win32,144.1337561,Chrome,1920,1080,,,,,10,843,,,,,,,,,,,,,,,,,D,174,star,1,0,,,,,,,,,,,,,,,,switch,letter,lettSwt,d,0.3606,Lo,,,,,,3,,,,,,,,low,15,0,15,0,1,,,,,,,,,
298336,2022-12-05_18h09.20.611,vts_reward_expectancy_bt,2022.2.4,Win32,144.1337561,Chrome,1920,1080,,,,,1,844,,,,,,,,,,,,,,,,,Y,160,circle,1,0,,,,,,,,,,,,,,,,repeat,letter,lettRpt,f,0.3061,Hi,,,,,,3,,,,,,,,low,16,0,16,0,1,,,,,,,,,
298336,2022-12-05_18h09.20.611,vts_reward_expectancy_bt,2022.2.4,Win32,144.1337561,Chrome,1920,1080,,,,,0,844,,,,,,,,,,,,,,,,,H,125,star,0,0,,,,,,,,,,,,,,,,repeat,letter,NA,f,0.3558,Hi,,,,,,3,,,,,,,,low,17,0,17,0,1,,,,,,,,,
298336,2022-12-05_18h09.20.611,vts_reward_expectancy_bt,2022.2.4,Win32,144.1337561,Chrome,1920,1080,,,,,0,844,,,,,,,,,,,,,,,,,W,146,hexagon,1,1,,,,,,,,,,,,,,,,switch,number,numSwt,j,0.6246,Hi,,,,,,3,,,,,,,,low,18,0,18,0,1,,,,,,,,,
298336,2022-12-05_18h09.20.611,vts_reward_expectancy_bt,2022.2.4,Win32,144.1337561,Chrome,1920,1080,,,,,10,854,,,,,,,,,,,,,,,,,D,139,triangle,1,0,,,,,,,,,,,,,,,,switch,letter,lettSwt,d,0.2787,Lo,,,,,,3,,,,,,,,low,19,0,19,0,1,,,,,,,,,
298336,2022-12-05_18h09.20.611,vts_reward_expectancy_bt,2022.2.4,Win32,144.1337561,Chrome,1920,1080,,,,,0,854,,,,,,,,,,,,,,,,,S,174,hexagon,1,0,,,,,,,,,,,,,,,,repeat,letter,lettRpt,f,0.5361,Hi,,,,,,3,,,,,,,,low,20,0,20,0,1,,,,,,,,,
298336,2022-12-05_18h09.20.611,vts_reward_expectancy_bt,2022.2.4,Win32,144.1337561,Chrome,1920,1080,,,,,10,864,,,,,,,,,,,,,,,,,U,181,star,1,0,,,,,,,,,,,,,,,,switch,number,numSwt,k,0.4178,Lo,,,,,,3,,,,,,,,low,21,0,21,0,1,,,,,,,,,
298336,2022-12-05_18h09.20.611,vts_reward_expectancy_bt,2022.2.4,Win32,144.1337561,Chrome,1920,1080,,,,,1,865,,,,,,,,,,,,,,,,,B,167,triangle,1,0,,,,,,,,,,,,,,,,repeat,number,numRpt,k,0.3752,Lo,,,,,,3,,,,,,,,low,22,0,22,0,1,,,,,,,,,
298336,2022-12-05_18h09.20.611,vts_reward_expectancy_bt,2022.2.4,Win32,144.1337561,Chrome,1920,1080,,,,,1,866,,,,,,,,,,,,,,,,,F,132,circle,1,0,,,,,,,,,,,,,,,,repeat,number,numRpt,j,0.2917,Hi,,,,,,3,,,,,,,,low,23,0,23,0,1,,,,,,,,,
298336,2022-12-05_18h09.20.611,vts_reward_expectancy_bt,2022.2.4,Win32,144.1337561,Chrome,1920,1080,,,,,0,866,,,,,,,,,,,,,,,,,W,167,hexagon,1,0,,,,,,,,,,,,,,,,repeat,number,numRpt,k,0.4239,Hi,,,,,,3,,,,,,,,low,24,0,24,0,1,,,,,,,,,
298336,2022-12-05_18h09.20.611,vts_reward_expectancy_bt,2022.2.4,Win32,144.1337561,Chrome,1920,1080,,,,,10,876,,,,,,,,,,,,,,,,,U,160,triangle,1,0,,,,,,,,,,,,,,,,switch,letter,lettSwt,f,0.3688,Lo,,,,,,3,,,,,,,,low,25,0,25,0,1,,,,,,,,,
298336,2022-12-05_18h09.20.611,vts_reward_expectancy_bt,2022.2.4,Win32,144.1337561,Chrome,1920,1080,,,,,0,876,,,,,,,,,,,,,,,,,Y,181,circle,1,0,,,,,,,,,,,,,,,,repeat,letter,lettRpt,f,0.4952,Hi,,,,,,3,,,,,,,,low,26,0,26,0,1,,,,,,,,,
298336,2022-12-05_18h09.20.611,vts_reward_expectancy_bt,2022.2.4,Win32,144.1337561,Chrome,1920,1080,,,,,1,877,,,,,,,,,,,,,,,,,H,132,star,1,0,,,,,,,,,,,,,,,,switch,number,numSwt,j,0.4256,Lo,,,,,,3,,,,,,,,low,27,0,27,0,1,,,,,,,,,
298336,2022-12-05_18h09.20.611,vts_reward_expectancy_bt,2022.2.4,Win32,144.1337561,Chrome,1920,1080,,,,,1,878,,,,,,,,,,,,,,,,,S,174,star,1,0,,,,,,,,,,,,,,,,repeat,number,numRpt,k,0.3349,Lo,,,,,,3,,,,,,,,low,28,0,28,0,1,,,,,,,,,
298336,2022-12-05_18h09.20.611,vts_reward_expectancy_bt,2022.2.4,Win32,144.1337561,Chrome,1920,1080,,,,,1,879,,,,,,,,,,,,,,,,,D,139,circle,1,0,,,,,,,,,,,,,,,,repeat,number,numRpt,j,0.3507,Hi,,,,,,3,,,,,,,,low,29,0,29,0,1,,,,,,,,,
298336,2022-12-05_18h09.20.611,vts_reward_expectancy_bt,2022.2.4,Win32,144.1337561,Chrome,1920,1080,,,,,1,880,,,,,,,,,,,,,,,,,F,125,triangle,1,0,,,,,,,,,,,,,,,,repeat,number,numRpt,j,0.3351,Lo,,,,,,3,,,,,,,,low,30,0,30,0,1,,,,,,,,,
298336,2022-12-05_18h09.20.611,vts_reward_expectancy_bt,2022.2.4,Win32,144.1337561,Chrome,1920,1080,,,,,0,880,,,,,,,,,,,,,,,,,B,146,hexagon,1,0,,,,,,,,,,,,,,,,repeat,number,numRpt,j,0.5235,Hi,,,,,,3,,,,,,,,low,31,0,31,0,1,,,,,,,,,
298336,2022-12-05_18h09.20.611,vts_reward_expectancy_bt,2022.2.4,Win32,144.1337561,Chrome,1920,1080,,,,,0,880,,,,,,,,,,,,,,,,,H,139,hexagon,1,0,,,,,,,,,,,,,,,,switch,letter,lettSwt,d,0.6958,Hi,,,,,,4,,,,,,space,0.5543,low,0,0,0,0,1,,,,,,,,,
298336,2022-12-05_18h09.20.611,vts_reward_expectancy_bt,2022.2.4,Win32,144.1337561,Chrome,1920,1080,,,,,1,881,,,,,,,,,,,,,,,,,U,181,circle,1,0,,,,,,,,,,,,,,,,switch,number,numSwt,k,0.3824,Hi,,,,,,4,,,,,,,,low,1,0,1,0,1,,,,,,,,,
298336,2022-12-05_18h09.20.611,vts_reward_expectancy_bt,2022.2.4,Win32,144.1337561,Chrome,1920,1080,,,,,0,881,,,,,,,,,,,,,,,,,Y,167,star,0,0,,,,,,,,,,,,,,,,repeat,number,NA,j,0.286,Hi,,,,,,4,,,,,,,,low,2,0,2,0,1,,,,,,,,,
298336,2022-12-05_18h09.20.611,vts_reward_expectancy_bt,2022.2.4,Win32,144.1337561,Chrome,1920,1080,,,,,1,882,,,,,,,,,,,,,,,,,B,146,triangle,1,1,,,,,,,,,,,,,,,,repeat,number,numRpt,j,0.3745,Lo,,,,,,4,,,,,,,,low,3,0,3,0,1,,,,,,,,,
298336,2022-12-05_18h09.20.611,vts_reward_expectancy_bt,2022.2.4,Win32,144.1337561,Chrome,1920,1080,,,,,0,882,,,,,,,,,,,,,,,,,W,125,hexagon,1,0,,,,,,,,,,,,,,,,repeat,number,numRpt,j,0.4127,Hi,,,,,,4,,,,,,,,low,4,0,4,0,1,,,,,,,,,
298336,2022-12-05_18h09.20.611,vts_reward_expectancy_bt,2022.2.4,Win32,144.1337561,Chrome,1920,1080,,,,,10,892,,,,,,,,,,,,,,,,,D,132,circle,1,0,,,,,,,,,,,,,,,,switch,letter,lettSwt,d,0.315,Hi,,,,,,4,,,,,,,,low,5,0,5,0,1,,,,,,,,,
298336,2022-12-05_18h09.20.611,vts_reward_expectancy_bt,2022.2.4,Win32,144.1337561,Chrome,1920,1080,,,,,0,892,,,,,,,,,,,,,,,,,S,174,star,0,0,,,,,,,,,,,,,,,,repeat,letter,NA,d,0.3082,Hi,,,,,,4,,,,,,,,low,6,0,6,0,1,,,,,,,,,
298336,2022-12-05_18h09.20.611,vts_reward_expectancy_bt,2022.2.4,Win32,144.1337561,Chrome,1920,1080,,,,,1,893,,,,,,,,,,,,,,,,,F,160,triangle,1,1,,,,,,,,,,,,,,,,repeat,letter,lettRpt,d,0.4019,Lo,,,,,,4,,,,,,,,low,7,0,7,0,1,,,,,,,,,
298336,2022-12-05_18h09.20.611,vts_reward_expectancy_bt,2022.2.4,Win32,144.1337561,Chrome,1920,1080,,,,,10,903,,,,,,,,,,,,,,,,,H,139,star,1,0,,,,,,,,,,,,,,,,repeat,letter,lettRpt,d,0.3976,Lo,,,,,,4,,,,,,,,low,8,0,8,0,1,,,,,,,,,
298336,2022-12-05_18h09.20.611,vts_reward_expectancy_bt,2022.2.4,Win32,144.1337561,Chrome,1920,1080,,,,,0,903,,,,,,,,,,,,,,,,,U,181,hexagon,0,0,,,,,,,,,,,,,,,,repeat,letter,NA,d,0.3613,Lo,,,,,,4,,,,,,,,low,9,0,9,0,1,,,,,,,,,
298336,2022-12-05_18h09.20.611,vts_reward_expectancy_bt,2022.2.4,Win32,144.1337561,Chrome,1920,1080,,,,,0,903,,,,,,,,,,,,,,,,,Y,167,circle,1,1,,,,,,,,,,,,,,,,repeat,letter,lettRpt,f,0.3921,Hi,,,,,,4,,,,,,,,low,10,0,10,0,1,,,,,,,,,
298336,2022-12-05_18h09.20.611,vts_reward_expectancy_bt,2022.2.4,Win32,144.1337561,Chrome,1920,1080,,,,,10,913,,,,,,,,,,,,,,,,,B,146,triangle,1,0,,,,,,,,,,,,,,,,switch,number,numSwt,j,0.3753,Lo,,,,,,4,,,,,,,,low,11,0,11,0,1,,,,,,,,,
298336,2022-12-05_18h09.20.611,vts_reward_expectancy_bt,2022.2.4,Win32,144.1337561,Chrome,1920,1080,,,,,1,914,,,,,,,,,,,,,,,,,W,125,star,1,0,,,,,,,,,,,,,,,,repeat,number,numRpt,j,0.3815,Lo,,,,,,4,,,,,,,,low,12,0,12,0,1,,,,,,,,,
298336,2022-12-05_18h09.20.611,vts_reward_expectancy_bt,2022.2.4,Win32,144.1337561,Chrome,1920,1080,,,,,10,924,,,,,,,,,,,,,,,,,D,132,hexagon,1,0,,,,,,,,,,,,,,,,repeat,number,numRpt,j,0.3261,Hi,,,,,,4,,,,,,,,low,13,0,13,0,1,,,,,,,,,
298336,2022-12-05_18h09.20.611,vts_reward_expectancy_bt,2022.2.4,Win32,144.1337561,Chrome,1920,1080,,,,,0,924,,,,,,,,,,,,,,,,,S,174,circle,1,0,,,,,,,,,,,,,,,,repeat,number,numRpt,k,0.3752,Hi,,,,,,4,,,,,,,,low,14,0,14,0,1,,,,,,,,,
298336,2022-12-05_18h09.20.611,vts_reward_expectancy_bt,2022.2.4,Win32,144.1337561,Chrome,1920,1080,,,,,0,924,,,,,,,,,,,,,,,,,F,160,triangle,0,0,,,,,,,,,,,,,,,,switch,letter,NA,f,0.376,Hi,,,,,,4,,,,,,,,low,15,0,15,0,1,,,,,,,,,
298336,2022-12-05_18h09.20.611,vts_reward_expectancy_bt,2022.2.4,Win32,144.1337561,Chrome,1920,1080,,,,,1,925,,,,,,,,,,,,,,,,,Y,181,star,1,1,,,,,,,,,,,,,,,,repeat,letter,lettRpt,f,0.6612,Lo,,,,,,4,,,,,,,,low,16,0,16,0,1,,,,,,,,,
298336,2022-12-05_18h09.20.611,vts_reward_expectancy_bt,2022.2.4,Win32,144.1337561,Chrome,1920,1080,,,,,0,925,,,,,,,,,,,,,,,,,F,139,circle,1,0,,,,,,,,,,,,,,,,repeat,letter,lettRpt,d,0.3895,Hi,,,,,,4,,,,,,,,low,17,0,17,0,1,,,,,,,,,
298336,2022-12-05_18h09.20.611,vts_reward_expectancy_bt,2022.2.4,Win32,144.1337561,Chrome,1920,1080,,,,,1,926,,,,,,,,,,,,,,,,,W,125,triangle,1,0,,,,,,,,,,,,,,,,switch,number,numSwt,j,0.3773,Lo,,,,,,4,,,,,,,,low,18,0,18,0,1,,,,,,,,,
298336,2022-12-05_18h09.20.611,vts_reward_expectancy_bt,2022.2.4,Win32,144.1337561,Chrome,1920,1080,,,,,0,926,,,,,,,,,,,,,,,,,H,174,hexagon,0,0,,,,,,,,,,,,,,,,repeat,number,NA,j,0.2882,Lo,,,,,,4,,,,,,,,low,19,0,19,0,1,,,,,,,,,
298336,2022-12-05_18h09.20.611,vts_reward_expectancy_bt,2022.2.4,Win32,144.1337561,Chrome,1920,1080,,,,,1,927,,,,,,,,,,,,,,,,,U,146,triangle,1,1,,,,,,,,,,,,,,,,repeat,number,numRpt,j,0.3548,Lo,,,,,,4,,,,,,,,low,20,0,20,0,1,,,,,,,,,
298336,2022-12-05_18h09.20.611,vts_reward_expectancy_bt,2022.2.4,Win32,144.1337561,Chrome,1920,1080,,,,,1,928,,,,,,,,,,,,,,,,,B,167,star,1,0,,,,,,,,,,,,,,,,repeat,number,numRpt,k,0.3083,Lo,,,,,,4,,,,,,,,low,21,0,21,0,1,,,,,,,,,
298336,2022-12-05_18h09.20.611,vts_reward_expectancy_bt,2022.2.4,Win32,144.1337561,Chrome,1920,1080,,,,,1,929,,,,,,,,,,,,,,,,,D,132,circle,1,0,,,,,,,,,,,,,,,,repeat,number,numRpt,j,0.2857,Hi,,,,,,4,,,,,,,,low,22,0,22,0,1,,,,,,,,,
298336,2022-12-05_18h09.20.611,vts_reward_expectancy_bt,2022.2.4,Win32,144.1337561,Chrome,1920,1080,,,,,1,930,,,,,,,,,,,,,,,,,S,160,hexagon,1,0,,,,,,,,,,,,,,,,repeat,number,numRpt,k,0.2565,Hi,,,,,,4,,,,,,,,low,23,0,23,0,1,,,,,,,,,
298336,2022-12-05_18h09.20.611,vts_reward_expectancy_bt,2022.2.4,Win32,144.1337561,Chrome,1920,1080,,,,,0,930,,,,,,,,,,,,,,,,,H,160,hexagon,0,0,,,,,,,,,,,,,,,,repeat,number,NA,j,0.2338,Hi,,,,,,4,,,,,,,,low,24,0,24,0,1,,,,,,,,,
298336,2022-12-05_18h09.20.611,vts_reward_expectancy_bt,2022.2.4,Win32,144.1337561,Chrome,1920,1080,,,,,1,931,,,,,,,,,,,,,,,,,U,146,star,1,1,,,,,,,,,,,,,,,,repeat,number,numRpt,j,0.3354,Lo,,,,,,4,,,,,,,,low,25,0,25,0,1,,,,,,,,,
298336,2022-12-05_18h09.20.611,vts_reward_expectancy_bt,2022.2.4,Win32,144.1337561,Chrome,1920,1080,,,,,0,931,,,,,,,,,,,,,,,,,W,132,circle,1,0,,,,,,,,,,,,,,,,repeat,number,numRpt,j,0.3565,Hi,,,,,,4,,,,,,,,low,26,0,26,0,1,,,,,,,,,
298336,2022-12-05_18h09.20.611,vts_reward_expectancy_bt,2022.2.4,Win32,144.1337561,Chrome,1920,1080,,,,,10,941,,,,,,,,,,,,,,,,,F,181,triangle,1,0,,,,,,,,,,,,,,,,switch,letter,lettSwt,d,0.4147,Lo,,,,,,4,,,,,,,,low,27,0,27,0,1,,,,,,,,,
298336,2022-12-05_18h09.20.611,vts_reward_expectancy_bt,2022.2.4,Win32,144.1337561,Chrome,1920,1080,,,,,0,941,,,,,,,,,,,,,,,,,D,167,circle,1,0,,,,,,,,,,,,,,,,repeat,letter,lettRpt,d,0.3895,Hi,,,,,,4,,,,,,,,low,28,0,28,0,1,,,,,,,,,
298336,2022-12-05_18h09.20.611,vts_reward_expectancy_bt,2022.2.4,Win32,144.1337561,Chrome,1920,1080,,,,,0,941,,,,,,,,,,,,,,,,,B,139,hexagon,1,0,,,,,,,,,,,,,,,,repeat,letter,lettRpt,d,0.3888,Hi,,,,,,4,,,,,,,,low,29,0,29,0,1,,,,,,,,,
298336,2022-12-05_18h09.20.611,vts_reward_expectancy_bt,2022.2.4,Win32,144.1337561,Chrome,1920,1080,,,,,10,951,,,,,,,,,,,,,,,,,Y,174,star,1,0,,,,,,,,,,,,,,,,switch,number,numSwt,k,0.4214,Lo,,,,,,4,,,,,,,,low,30,0,30,0,1,,,,,,,,,
298336,2022-12-05_18h09.20.611,vts_reward_expectancy_bt,2022.2.4,Win32,144.1337561,Chrome,1920,1080,,,,,10,961,,,,,,,,,,,,,,,,,S,125,triangle,1,0,,,,,,,,,,,,,,,,repeat,number,numRpt,j,0.3295,Lo,,,,,,4,,,,,,,,low,31,0,31,0,1,,,,,,,,,
298336,2022-12-05_18h09.20.611,vts_reward_expectancy_bt,2022.2.4,Win32,144.1337561,Chrome,1920,1080,,,,,0,961,,,,,,,,,,,,,,,,,U,132,hexagon,1,0,,,,,,,,,,,,,,,,switch,letter,lettSwt,f,0.4452,Hi,,,,,,5,,,,,,space,0.8055,low,0,0,0,0,1,,,,,,,,,
298336,2022-12-05_18h09.20.611,vts_reward_expectancy_bt,2022.2.4,Win32,144.1337561,Chrome,1920,1080,,,,,1,962,,,,,,,,,,,,,,,,,D,125,circle,1,0,,,,,,,,,,,,,,,,switch,number,numSwt,j,0.3496,Hi,,,,,,5,,,,,,,,low,1,0,1,0,1,,,,,,,,,
298336,2022-12-05_18h09.20.611,vts_reward_expectancy_bt,2022.2.4,Win32,144.1337561,Chrome,1920,1080,,,,,0,962,,,,,,,,,,,,,,,,,S,146,star,0,0,,,,,,,,,,,,,,,,repeat,number,NA,k,0.3967,Hi,,,,,,5,,,,,,,,low,2,0,2,0,1,,,,,,,,,
298336,2022-12-05_18h09.20.611,vts_reward_expectancy_bt,2022.2.4,Win32,144.1337561,Chrome,1920,1080,,,,,1,963,,,,,,,,,,,,,,,,,W,181,triangle,1,1,,,,,,,,,,,,,,,,repeat,number,numRpt,k,0.3521,Lo,,,,,,5,,,,,,,,low,3,0,3,0,1,,,,,,,,,
298336,2022-12-05_18h09.20.611,vts_reward_expectancy_bt,2022.2.4,Win32,144.1337561,Chrome,1920,1080,,,,,0,963,,,,,,,,,,,,,,,,,B,139,hexagon,1,0,,,,,,,,,,,,,,,,repeat,number,numRpt,j,0.4095,Hi,,,,,,5,,,,,,,,low,4,0,4,0,1,,,,,,,,,
298336,2022-12-05_18h09.20.611,vts_reward_expectancy_bt,2022.2.4,Win32,144.1337561,Chrome,1920,1080,,,,,10,973,,,,,,,,,,,,,,,,,F,160,circle,1,0,,,,,,,,,,,,,,,,switch,letter,lettSwt,d,0.3792,Hi,,,,,,5,,,,,,,,low,5,0,5,0,1,,,,,,,,,
298336,2022-12-05_18h09.20.611,vts_reward_expectancy_bt,2022.2.4,Win32,144.1337561,Chrome,1920,1080,,,,,1,974,,,,,,,,,,,,,,,,,H,167,star,1,0,,,,,,,,,,,,,,,,repeat,letter,lettRpt,d,0.4383,Lo,,,,,,5,,,,,,,,low,6,0,6,0,1,,,,,,,,,
298336,2022-12-05_18h09.20.611,vts_reward_expectancy_bt,2022.2.4,Win32,144.1337561,Chrome,1920,1080,,,,,1,975,,,,,,,,,,,,,,,,,Y,174,triangle,1,0,,,,,,,,,,,,,,,,repeat,letter,lettRpt,f,0.4793,Lo,,,,,,5,,,,,,,,low,7,0,7,0,1,,,,,,,,,
298336,2022-12-05_18h09.20.611,vts_reward_expectancy_bt,2022.2.4,Win32,144.1337561,Chrome,1920,1080,,,,,10,985,,,,,,,,,,,,,,,,,U,132,circle,1,0,,,,,,,,,,,,,,,,repeat,letter,lettRpt,f,0.375,Hi,,,,,,5,,,,,,,,low,8,0,8,0,1,,,,,,,,,
298336,2022-12-05_18h09.20.611,vts_reward_expectancy_bt,2022.2.4,Win32,144.1337561,Chrome,1920,1080,,,,,1,986,,,,,,,,,,,,,,,,,D,125,triangle,1,0,,,,,,,,,,,,,,,,repeat,letter,lettRpt,d,0.4105,Lo,,,,,,5,,,,,,,,low,9,0,9,0,1,,,,,,,,,
298336,2022-12-05_18h09.20.611,vts_reward_expectancy_bt,2022.2.4,Win32,144.1337561,Chrome,1920,1080,,,,,0,986,,,,,,,,,,,,,,,,,S,146,hexagon,1,0,,,,,,,,,,,,,,,,repeat,letter,lettRpt,f,0.4039,Hi,,,,,,5,,,,,,,,low,10,0,10,0,1,,,,,,,,,
298336,2022-12-05_18h09.20.611,vts_reward_expectancy_bt,2022.2.4,Win32,144.1337561,Chrome,1920,1080,,,,,10,996,,,,,,,,,,,,,,,,,W,181,star,1,0,,,,,,,,,,,,,,,,switch,number,numSwt,k,0.4818,Lo,,,,,,5,,,,,,,,low,11,0,11,0,1,,,,,,,,,
298336,2022-12-05_18h09.20.611,vts_reward_expectancy_bt,2022.2.4,Win32,144.1337561,Chrome,1920,1080,,,,,10,1006,,,,,,,,,,,,,,,,,B,139,star,1,0,,,,,,,,,,,,,,,,repeat,number,numRpt,j,0.3575,Lo,,,,,,5,,,,,,,,low,12,0,12,0,1,,,,,,,,,
298336,2022-12-05_18h09.20.611,vts_reward_expectancy_bt,2022.2.4,Win32,144.1337561,Chrome,1920,1080,,,,,0,1006,,,,,,,,,,,,,,,,,F,160,hexagon,1,0,,,,,,,,,,,,,,,,repeat,number,numRpt,k,0.3825,Hi,,,,,,5,,,,,,,,low,13,0,13,0,1,,,,,,,,,
298336,2022-12-05_18h09.20.611,vts_reward_expectancy_bt,2022.2.4,Win32,144.1337561,Chrome,1920,1080,,,,,0,1006,,,,,,,,,,,,,,,,,H,167,triangle,0,0,,,,,,,,,,,,,,,,switch,letter,NA,f,0.3943,Hi,,,,,,5,,,,,,,,low,14,0,14,0,1,,,,,,,,,
298336,2022-12-05_18h09.20.611,vts_reward_expectancy_bt,2022.2.4,Win32,144.1337561,Chrome,1920,1080,,,,,0,1006,,,,,,,,,,,,,,,,,Y,174,circle,1,1,,,,,,,,,,,,,,,,repeat,letter,lettRpt,f,0.4291,Hi,,,,,,5,,,,,,,,low,15,0,15,0,1,,,,,,,,,
298336,2022-12-05_18h09.20.611,vts_reward_expectancy_bt,2022.2.4,Win32,144.1337561,Chrome,1920,1080,,,,,10,1016,,,,,,,,,,,,,,,,,U,181,triangle,1,0,,,,,,,,,,,,,,,,switch,number,numSwt,k,0.4448,Lo,,,,,,5,,,,,,,,low,16,0,16,0,1,,,,,,,,,
298336,2022-12-05_18h09.20.611,vts_reward_expectancy_bt,2022.2.4,Win32,144.1337561,Chrome,1920,1080,,,,,1,1017,,,,,,,,,,,,,,,,,W,132,hexagon,1,0,,,,,,,,,,,,,,,,repeat,number,numRpt,j,0.2722,Hi,,,,,,5,,,,,,,,low,17,0,17,0,1,,,,,,,,,
298336,2022-12-05_18h09.20.611,vts_reward_expectancy_bt,2022.2.4,Win32,144.1337561,Chrome,1920,1080,,,,,0,1017,,,,,,,,,,,,,,,,,B,139,star,0,0,,,,,,,,,,,,,,,,repeat,number,NA,k,0.2439,Hi,,,,,,5,,,,,,,,low,18,0,18,0,1,,,,,,,,,
298336,2022-12-05_18h09.20.611,vts_reward_expectancy_bt,2022.2.4,Win32,144.1337561,Chrome,1920,1080,,,,,0,1017,,,,,,,,,,,,,,,,,F,160,circle,1,1,,,,,,,,,,,,,,,,repeat,number,numRpt,k,0.3946,Hi,,,,,,5,,,,,,,,low,19,0,19,0,1,,,,,,,,,
298336,2022-12-05_18h09.20.611,vts_reward_expectancy_bt,2022.2.4,Win32,144.1337561,Chrome,1920,1080,,,,,0,1017,,,,,,,,,,,,,,,,,H,167,star,0,0,,,,,,,,,,,,,,,,switch,letter,NA,f,0.3831,Hi,,,,,,5,,,,,,,,low,20,0,20,0,1,,,,,,,,,
298336,2022-12-05_18h09.20.611,vts_reward_expectancy_bt,2022.2.4,Win32,144.1337561,Chrome,1920,1080,,,,,0,1017,,,,,,,,,,,,,,,,,S,174,circle,1,1,,,,,,,,,,,,,,,,repeat,letter,lettRpt,f,0.4166,Hi,,,,,,5,,,,,,,,low,21,0,21,0,1,,,,,,,,,
298336,2022-12-05_18h09.20.611,vts_reward_expectancy_bt,2022.2.4,Win32,144.1337561,Chrome,1920,1080,,,,,0,1017,,,,,,,,,,,,,,,,,D,146,hexagon,1,0,,,,,,,,,,,,,,,,switch,number,numSwt,j,0.5353,Hi,,,,,,5,,,,,,,,low,22,0,22,0,1,,,,,,,,,
298336,2022-12-05_18h09.20.611,vts_reward_expectancy_bt,2022.2.4,Win32,144.1337561,Chrome,1920,1080,,,,,1,1018,,,,,,,,,,,,,,,,,Y,125,triangle,1,0,,,,,,,,,,,,,,,,switch,letter,lettSwt,f,0.3986,Lo,,,,,,5,,,,,,,,low,23,0,23,0,1,,,,,,,,,
298336,2022-12-05_18h09.20.611,vts_reward_expectancy_bt,2022.2.4,Win32,144.1337561,Chrome,1920,1080,,,,,10,1028,,,,,,,,,,,,,,,,,W,174,circle,1,0,,,,,,,,,,,,,,,,repeat,letter,lettRpt,f,0.3847,Hi,,,,,,5,,,,,,,,low,24,0,24,0,1,,,,,,,,,
298336,2022-12-05_18h09.20.611,vts_reward_expectancy_bt,2022.2.4,Win32,144.1337561,Chrome,1920,1080,,,,,0,1028,,,,,,,,,,,,,,,,,H,181,hexagon,1,0,,,,,,,,,,,,,,,,repeat,letter,lettRpt,d,0.4868,Hi,,,,,,5,,,,,,,,low,25,0,25,0,1,,,,,,,,,
298336,2022-12-05_18h09.20.611,vts_reward_expectancy_bt,2022.2.4,Win32,144.1337561,Chrome,1920,1080,,,,,10,1038,,,,,,,,,,,,,,,,,S,125,triangle,1,0,,,,,,,,,,,,,,,,switch,number,numSwt,j,0.3364,Lo,,,,,,5,,,,,,,,low,26,0,26,0,1,,,,,,,,,
298336,2022-12-05_18h09.20.611,vts_reward_expectancy_bt,2022.2.4,Win32,144.1337561,Chrome,1920,1080,,,,,0,1038,,,,,,,,,,,,,,,,,U,160,star,0,0,,,,,,,,,,,,,,,,repeat,number,NA,j,0.3504,Lo,,,,,,5,,,,,,,,low,27,0,27,0,1,,,,,,,,,
298336,2022-12-05_18h09.20.611,vts_reward_expectancy_bt,2022.2.4,Win32,144.1337561,Chrome,1920,1080,,,,,0,1038,,,,,,,,,,,,,,,,,D,146,triangle,0,1,,,,,,,,,,,,,,,,switch,letter,NA,f,0.396,Lo,,,,,,5,,,,,,,,low,28,0,28,0,1,,,,,,,,,
298336,2022-12-05_18h09.20.611,vts_reward_expectancy_bt,2022.2.4,Win32,144.1337561,Chrome,1920,1080,,,,,1,1039,,,,,,,,,,,,,,,,,B,167,star,1,1,,,,,,,,,,,,,,,,repeat,letter,lettRpt,d,0.3685,Lo,,,,,,5,,,,,,,,low,29,0,29,0,1,,,,,,,,,
298336,2022-12-05_18h09.20.611,vts_reward_expectancy_bt,2022.2.4,Win32,144.1337561,Chrome,1920,1080,,,,,0,1039,,,,,,,,,,,,,,,,,Y,132,hexagon,1,0,,,,,,,,,,,,,,,,repeat,letter,lettRpt,f,0.3905,Hi,,,,,,5,,,,,,,,low,30,0,30,0,1,,,,,,,,,
298336,2022-12-05_18h09.20.611,vts_reward_expectancy_bt,2022.2.4,Win32,144.1337561,Chrome,1920,1080,,,,,0,1039,,,,,,,,,,,,,,,,,F,139,circle,0,0,,,,,,,,,,,,,,,,repeat,letter,NA,f,0.4108,Hi,,,,,,5,,,,,,,,low,31,0,31,0,1,,,,,,,,,
298336,2022-12-05_18h09.20.611,vts_reward_expectancy_bt,2022.2.4,Win32,144.1337561,Chrome,1920,1080,,,,,0,1039,,,,,,,,,,,,,,,,,Y,174,circle,1,1,,,,,,,,,,,,,,,,repeat,letter,lettRpt,f,0.4092,Hi,,,,,,6,,,,,,space,0.5566,low,0,0,0,0,1,,,,,,,,,
298336,2022-12-05_18h09.20.611,vts_reward_expectancy_bt,2022.2.4,Win32,144.1337561,Chrome,1920,1080,,,,,10,1049,,,,,,,,,,,,,,,,,H,181,hexagon,1,0,,,,,,,,,,,,,,,,switch,number,numSwt,k,0.3379,Hi,,,,,,6,,,,,,,,low,1,0,1,0,1,,,,,,,,,
298336,2022-12-05_18h09.20.611,vts_reward_expectancy_bt,2022.2.4,Win32,144.1337561,Chrome,1920,1080,,,,,1,1050,,,,,,,,,,,,,,,,,B,139,triangle,1,0,,,,,,,,,,,,,,,,repeat,number,numRpt,j,0.2581,Lo,,,,,,6,,,,,,,,low,2,0,2,0,1,,,,,,,,,
298336,2022-12-05_18h09.20.611,vts_reward_expectancy_bt,2022.2.4,Win32,144.1337561,Chrome,1920,1080,,,,,1,1051,,,,,,,,,,,,,,,,,U,160,star,1,0,,,,,,,,,,,,,,,,repeat,number,numRpt,k,0.3026,Lo,,,,,,6,,,,,,,,low,3,0,3,0,1,,,,,,,,,
298336,2022-12-05_18h09.20.611,vts_reward_expectancy_bt,2022.2.4,Win32,144.1337561,Chrome,1920,1080,,,,,1,1052,,,,,,,,,,,,,,,,,W,125,circle,1,0,,,,,,,,,,,,,,,,repeat,number,numRpt,j,0.2913,Hi,,,,,,6,,,,,,,,low,4,0,4,0,1,,,,,,,,,
298336,2022-12-05_18h09.20.611,vts_reward_expectancy_bt,2022.2.4,Win32,144.1337561,Chrome,1920,1080,,,,,0,1052,,,,,,,,,,,,,,,,,D,146,hexagon,0,0,,,,,,,,,,,,,,,,repeat,number,NA,k,0.2856,Hi,,,,,,6,,,,,,,,low,5,0,5,0,1,,,,,,,,,
298336,2022-12-05_18h09.20.611,vts_reward_expectancy_bt,2022.2.4,Win32,144.1337561,Chrome,1920,1080,,,,,0,1052,,,,,,,,,,,,,,,,,F,132,triangle,0,1,,,,,,,,,,,,,,,,repeat,number,NA,k,0.2259,Hi,,,,,,6,,,,,,,,low,6,0,6,0,1,,,,,,,,,
