participant,date,expName,psychopyVersion,OS,frameRate,browser,xResolution,yResolution,key_resp.keys,key_resp.rt,training_resp.keys,training_resp.rt,points_trial,points_cumul,trainBlock,training.thisRepN,training.thisTrialN,training.thisN,training.thisIndex,training.ran,LTriangleOpac,LCircleOpac,LHexagonOpac,LStarOpac,RTriangleOpac,RCircleOpac,RHexagonOpac,RStarOpac,LShape_ID,RShape_ID,curr_topStim,curr_bottStim,curr_shape,acc,E1,target_resp_prac1.keys,pracBlock,task1_prac_trials.thisRepN,task1_prac_trials.thisTrialN,task1_prac_trials.thisN,task1_prac_trials.thisIndex,task1_prac_trials.ran,target_resp_prac1.rt,target_resp_prac2.keys,target_resp_prac2.rt,task2_praac_trials.thisRepN,task2_praac_trials.thisTrialN,task2_praac_trials.thisN,task2_praac_trials.thisIndex,task2_praac_trials.ran,alt,task,condition,target_resp.keys,rewCond,vts_practice_trials.thisRepN,vts_practice_trials.thisTrialN,vts_practice_trials.thisN,vts_practice_trials.thisIndex,vts_practice_trials.ran,target_resp.rt,blockNum,trials_norew.thisRepN,trials_norew.thisTrialN,trials_norew.thisN,trials_norew.thisIndex,trials_norew.ran,key_resp_2.keys,key_resp_2.rt,rewExpectancy,trials_rew.thisRepN,trials_rew.thisTrialN,trials_rew.thisN,trials_rew.thisIndex,trials_rew.ran,Q1,Q2,Q2_text,Q3,Q4,Q5_text,Q5,xRes,yRes
298303,2022-11-30_22h46.31.996,vts_reward_expectancy_bt,2022.2.4,MacIntel,58.82352941,Safari,1440,900,,,,,,,,,,,,,,,,,,,,,,,,,,,,,,,,,,,,,,,,,,,,,,,,,,,,,,,,,,,,,,,,,,,,,,,,,,,,
298303,2022-11-30_22h46.31.996,vts_reward_expectancy_bt,2022.2.4,MacIntel,58.82352941,Safari,1440,900,space,24.632,,,,,,,,,,,,,,,,,,,,,,,,,,,,,,,,,,,,,,,,,,,,,,,,,,,,,,,,,,,,,,,,,,,,,,,,,,
298303,2022-11-30_22h46.31.996,vts_reward_expectancy_bt,2022.2.4,MacIntel,58.82352941,Safari,1440,900,,,,,,,,,,,,,,,,,,,,,,,,,,,,,,,,,,,,,,,,,,,,,,,,,,,,,,,,,,,,,,,,,,,,,,,,,,,,
298303,2022-11-30_22h46.31.996,vts_reward_expectancy_bt,2022.2.4,MacIntel,58.82352941,Safari,1440,900,,,a,3.96,10,10,0,0,0,0,6,1,0,0,1,0,1,0,0,0,hexagon,triangle,,,,,,,,,,,,,,,,,,,,,,,,,,,,,,,,,,,,,,,,,,,,,,,,,,,,,,
298303,2022-11-30_22h46.31.996,vts_reward_expectancy_bt,2022.2.4,MacIntel,58.82352941,Safari,1440,900,,,l,1.305,10,20,0,0,1,1,9,1,0,0,0,1,1,0,0,0,star,triangle,,,,,,,,,,,,,,,,,,,,,,,,,,,,,,,,,,,,,,,,,,,,,,,,,,,,,,
298303,2022-11-30_22h46.31.996,vts_reward_expectancy_bt,2022.2.4,MacIntel,58.82352941,Safari,1440,900,,,l,4.891,1,21,0,0,2,2,0,1,1,0,0,0,0,1,0,0,triangle,circle,,,,,,,,,,,,,,,,,,,,,,,,,,,,,,,,,,,,,,,,,,,,,,,,,,,,,,
298303,2022-11-30_22h46.31.996,vts_reward_expectancy_bt,2022.2.4,MacIntel,58.82352941,Safari,1440,900,,,a,2.538,10,31,0,0,3,3,11,1,0,0,0,1,0,0,1,0,star,hexagon,,,,,,,,,,,,,,,,,,,,,,,,,,,,,,,,,,,,,,,,,,,,,,,,,,,,,,
298303,2022-11-30_22h46.31.996,vts_reward_expectancy_bt,2022.2.4,MacIntel,58.82352941,Safari,1440,900,,,l,3.386,10,41,0,0,4,4,10,1,0,0,0,1,0,1,0,0,star ,circle,,,,,,,,,,,,,,,,,,,,,,,,,,,,,,,,,,,,,,,,,,,,,,,,,,,,,,
298303,2022-11-30_22h46.31.996,vts_reward_expectancy_bt,2022.2.4,MacIntel,58.82352941,Safari,1440,900,,,a,3.118,10,51,0,0,5,5,5,1,0,1,0,0,0,0,0,1,circle,star,,,,,,,,,,,,,,,,,,,,,,,,,,,,,,,,,,,,,,,,,,,,,,,,,,,,,,
298303,2022-11-30_22h46.31.996,vts_reward_expectancy_bt,2022.2.4,MacIntel,58.82352941,Safari,1440,900,,,l,0.93,1,52,0,0,6,6,4,1,0,1,0,0,0,0,1,0,circle,hexagon,,,,,,,,,,,,,,,,,,,,,,,,,,,,,,,,,,,,,,,,,,,,,,,,,,,,,,
298303,2022-11-30_22h46.31.996,vts_reward_expectancy_bt,2022.2.4,MacIntel,58.82352941,Safari,1440,900,,,l,2.383,1,53,0,0,7,7,3,1,0,1,0,0,1,0,0,0,circle,triangle,,,,,,,,,,,,,,,,,,,,,,,,,,,,,,,,,,,,,,,,,,,,,,,,,,,,,,
298303,2022-11-30_22h46.31.996,vts_reward_expectancy_bt,2022.2.4,MacIntel,58.82352941,Safari,1440,900,,,a,2.148,1,54,0,0,8,8,1,1,1,0,0,0,0,0,1,0,triangle,hexagon,,,,,,,,,,,,,,,,,,,,,,,,,,,,,,,,,,,,,,,,,,,,,,,,,,,,,,
298303,2022-11-30_22h46.31.996,vts_reward_expectancy_bt,2022.2.4,MacIntel,58.82352941,Safari,1440,900,,,l,0.943,10,64,0,0,9,9,8,1,0,0,1,0,0,0,0,1,hexagon,star,,,,,,,,,,,,,,,,,,,,,,,,,,,,,,,,,,,,,,,,,,,,,,,,,,,,,,
298303,2022-11-30_22h46.31.996,vts_reward_expectancy_bt,2022.2.4,MacIntel,58.82352941,Safari,1440,900,,,l,0.748,10,74,0,0,10,10,2,1,1,0,0,0,0,0,0,1,triangle,star,,,,,,,,,,,,,,,,,,,,,,,,,,,,,,,,,,,,,,,,,,,,,,,,,,,,,,
298303,2022-11-30_22h46.31.996,vts_reward_expectancy_bt,2022.2.4,MacIntel,58.82352941,Safari,1440,900,,,a,1.745,10,84,0,0,11,11,7,1,0,0,1,0,0,1,0,0,hexagon,circle,,,,,,,,,,,,,,,,,,,,,,,,,,,,,,,,,,,,,,,,,,,,,,,,,,,,,,
298303,2022-11-30_22h46.31.996,vts_reward_expectancy_bt,2022.2.4,MacIntel,58.82352941,Safari,1440,900,,,a,1.381,1,85,0,1,0,12,9,1,0,0,0,1,1,0,0,0,star,triangle,,,,,,,,,,,,,,,,,,,,,,,,,,,,,,,,,,,,,,,,,,,,,,,,,,,,,,
298303,2022-11-30_22h46.31.996,vts_reward_expectancy_bt,2022.2.4,MacIntel,58.82352941,Safari,1440,900,,,l,0.904,1,86,0,1,1,13,1,1,1,0,0,0,0,0,1,0,triangle,hexagon,,,,,,,,,,,,,,,,,,,,,,,,,,,,,,,,,,,,,,,,,,,,,,,,,,,,,,
298303,2022-11-30_22h46.31.996,vts_reward_expectancy_bt,2022.2.4,MacIntel,58.82352941,Safari,1440,900,,,l,1.497,10,96,0,1,2,14,7,1,0,0,1,0,0,1,0,0,hexagon,circle,,,,,,,,,,,,,,,,,,,,,,,,,,,,,,,,,,,,,,,,,,,,,,,,,,,,,,
298303,2022-11-30_22h46.31.996,vts_reward_expectancy_bt,2022.2.4,MacIntel,58.82352941,Safari,1440,900,,,l,0.763,1,97,0,1,3,15,3,1,0,1,0,0,1,0,0,0,circle,triangle,,,,,,,,,,,,,,,,,,,,,,,,,,,,,,,,,,,,,,,,,,,,,,,,,,,,,,
298303,2022-11-30_22h46.31.996,vts_reward_expectancy_bt,2022.2.4,MacIntel,58.82352941,Safari,1440,900,,,a,1.214,10,107,0,1,4,16,6,1,0,0,1,0,1,0,0,0,hexagon,triangle,,,,,,,,,,,,,,,,,,,,,,,,,,,,,,,,,,,,,,,,,,,,,,,,,,,,,,
298303,2022-11-30_22h46.31.996,vts_reward_expectancy_bt,2022.2.4,MacIntel,58.82352941,Safari,1440,900,,,a,1.215,10,117,0,1,5,17,11,1,0,0,0,1,0,0,1,0,star,hexagon,,,,,,,,,,,,,,,,,,,,,,,,,,,,,,,,,,,,,,,,,,,,,,,,,,,,,,
298303,2022-11-30_22h46.31.996,vts_reward_expectancy_bt,2022.2.4,MacIntel,58.82352941,Safari,1440,900,,,l,0.664,10,127,0,1,6,18,2,1,1,0,0,0,0,0,0,1,triangle,star,,,,,,,,,,,,,,,,,,,,,,,,,,,,,,,,,,,,,,,,,,,,,,,,,,,,,,
298303,2022-11-30_22h46.31.996,vts_reward_expectancy_bt,2022.2.4,MacIntel,58.82352941,Safari,1440,900,,,l,0.71,10,137,0,1,7,19,10,1,0,0,0,1,0,1,0,0,star ,circle,,,,,,,,,,,,,,,,,,,,,,,,,,,,,,,,,,,,,,,,,,,,,,,,,,,,,,
298303,2022-11-30_22h46.31.996,vts_reward_expectancy_bt,2022.2.4,MacIntel,58.82352941,Safari,1440,900,,,l,0.679,1,138,0,1,8,20,4,1,0,1,0,0,0,0,1,0,circle,hexagon,,,,,,,,,,,,,,,,,,,,,,,,,,,,,,,,,,,,,,,,,,,,,,,,,,,,,,
298303,2022-11-30_22h46.31.996,vts_reward_expectancy_bt,2022.2.4,MacIntel,58.82352941,Safari,1440,900,,,a,0.731,10,148,0,1,9,21,0,1,1,0,0,0,0,1,0,0,triangle,circle,,,,,,,,,,,,,,,,,,,,,,,,,,,,,,,,,,,,,,,,,,,,,,,,,,,,,,
298303,2022-11-30_22h46.31.996,vts_reward_expectancy_bt,2022.2.4,MacIntel,58.82352941,Safari,1440,900,,,l,0.698,1,149,0,1,10,22,8,1,0,0,1,0,0,0,0,1,hexagon,star,,,,,,,,,,,,,,,,,,,,,,,,,,,,,,,,,,,,,,,,,,,,,,,,,,,,,,
298303,2022-11-30_22h46.31.996,vts_reward_expectancy_bt,2022.2.4,MacIntel,58.82352941,Safari,1440,900,,,l,0.915,10,159,0,1,11,23,5,1,0,1,0,0,0,0,0,1,circle,star,,,,,,,,,,,,,,,,,,,,,,,,,,,,,,,,,,,,,,,,,,,,,,,,,,,,,,
298303,2022-11-30_22h46.31.996,vts_reward_expectancy_bt,2022.2.4,MacIntel,58.82352941,Safari,1440,900,,,l,0.583,1,160,0,2,0,24,3,1,0,1,0,0,1,0,0,0,circle,triangle,,,,,,,,,,,,,,,,,,,,,,,,,,,,,,,,,,,,,,,,,,,,,,,,,,,,,,
298303,2022-11-30_22h46.31.996,vts_reward_expectancy_bt,2022.2.4,MacIntel,58.82352941,Safari,1440,900,,,l,0.649,10,170,0,2,1,25,9,1,0,0,0,1,1,0,0,0,star,triangle,,,,,,,,,,,,,,,,,,,,,,,,,,,,,,,,,,,,,,,,,,,,,,,,,,,,,,
298303,2022-11-30_22h46.31.996,vts_reward_expectancy_bt,2022.2.4,MacIntel,58.82352941,Safari,1440,900,,,a,0.638,10,180,0,2,2,26,7,1,0,0,1,0,0,1,0,0,hexagon,circle,,,,,,,,,,,,,,,,,,,,,,,,,,,,,,,,,,,,,,,,,,,,,,,,,,,,,,
298303,2022-11-30_22h46.31.996,vts_reward_expectancy_bt,2022.2.4,MacIntel,58.82352941,Safari,1440,900,,,l,0.617,10,190,0,2,3,27,10,1,0,0,0,1,0,1,0,0,star ,circle,,,,,,,,,,,,,,,,,,,,,,,,,,,,,,,,,,,,,,,,,,,,,,,,,,,,,,
298303,2022-11-30_22h46.31.996,vts_reward_expectancy_bt,2022.2.4,MacIntel,58.82352941,Safari,1440,900,,,l,0.619,10,200,0,2,4,28,2,1,1,0,0,0,0,0,0,1,triangle,star,,,,,,,,,,,,,,,,,,,,,,,,,,,,,,,,,,,,,,,,,,,,,,,,,,,,,,
298303,2022-11-30_22h46.31.996,vts_reward_expectancy_bt,2022.2.4,MacIntel,58.82352941,Safari,1440,900,,,l,0.631,10,210,0,2,5,29,4,1,0,1,0,0,0,0,1,0,circle,hexagon,,,,,,,,,,,,,,,,,,,,,,,,,,,,,,,,,,,,,,,,,,,,,,,,,,,,,,
298303,2022-11-30_22h46.31.996,vts_reward_expectancy_bt,2022.2.4,MacIntel,58.82352941,Safari,1440,900,,,a,1.133,10,220,0,2,6,30,5,1,0,1,0,0,0,0,0,1,circle,star,,,,,,,,,,,,,,,,,,,,,,,,,,,,,,,,,,,,,,,,,,,,,,,,,,,,,,
298303,2022-11-30_22h46.31.996,vts_reward_expectancy_bt,2022.2.4,MacIntel,58.82352941,Safari,1440,900,,,l,0.614,10,230,0,2,7,31,1,1,1,0,0,0,0,0,1,0,triangle,hexagon,,,,,,,,,,,,,,,,,,,,,,,,,,,,,,,,,,,,,,,,,,,,,,,,,,,,,,
298303,2022-11-30_22h46.31.996,vts_reward_expectancy_bt,2022.2.4,MacIntel,58.82352941,Safari,1440,900,,,a,0.686,1,231,0,2,8,32,6,1,0,0,1,0,1,0,0,0,hexagon,triangle,,,,,,,,,,,,,,,,,,,,,,,,,,,,,,,,,,,,,,,,,,,,,,,,,,,,,,
298303,2022-11-30_22h46.31.996,vts_reward_expectancy_bt,2022.2.4,MacIntel,58.82352941,Safari,1440,900,,,a,0.567,1,232,0,2,9,33,11,1,0,0,0,1,0,0,1,0,star,hexagon,,,,,,,,,,,,,,,,,,,,,,,,,,,,,,,,,,,,,,,,,,,,,,,,,,,,,,
298303,2022-11-30_22h46.31.996,vts_reward_expectancy_bt,2022.2.4,MacIntel,58.82352941,Safari,1440,900,,,l,0.667,1,233,0,2,10,34,8,1,0,0,1,0,0,0,0,1,hexagon,star,,,,,,,,,,,,,,,,,,,,,,,,,,,,,,,,,,,,,,,,,,,,,,,,,,,,,,
298303,2022-11-30_22h46.31.996,vts_reward_expectancy_bt,2022.2.4,MacIntel,58.82352941,Safari,1440,900,,,l,0.569,10,243,0,2,11,35,0,1,1,0,0,0,0,1,0,0,triangle,circle,,,,,,,,,,,,,,,,,,,,,,,,,,,,,,,,,,,,,,,,,,,,,,,,,,,,,,
298303,2022-11-30_22h46.31.996,vts_reward_expectancy_bt,2022.2.4,MacIntel,58.82352941,Safari,1440,900,,,a,1.482,1,244,1,0,0,0,1,1,1,0,0,0,0,0,1,0,triangle,hexagon,,,,,,,,,,,,,,,,,,,,,,,,,,,,,,,,,,,,,,,,,,,,,,,,,,,,,,
298303,2022-11-30_22h46.31.996,vts_reward_expectancy_bt,2022.2.4,MacIntel,58.82352941,Safari,1440,900,,,l,0.74,1,245,1,0,1,1,4,1,0,1,0,0,0,0,1,0,circle,hexagon,,,,,,,,,,,,,,,,,,,,,,,,,,,,,,,,,,,,,,,,,,,,,,,,,,,,,,
298303,2022-11-30_22h46.31.996,vts_reward_expectancy_bt,2022.2.4,MacIntel,58.82352941,Safari,1440,900,,,a,1.005,1,246,1,0,2,2,6,1,0,0,1,0,1,0,0,0,hexagon,triangle,,,,,,,,,,,,,,,,,,,,,,,,,,,,,,,,,,,,,,,,,,,,,,,,,,,,,,
298303,2022-11-30_22h46.31.996,vts_reward_expectancy_bt,2022.2.4,MacIntel,58.82352941,Safari,1440,900,,,l,1.137,10,256,1,0,3,3,7,1,0,0,1,0,0,1,0,0,hexagon,circle,,,,,,,,,,,,,,,,,,,,,,,,,,,,,,,,,,,,,,,,,,,,,,,,,,,,,,
298303,2022-11-30_22h46.31.996,vts_reward_expectancy_bt,2022.2.4,MacIntel,58.82352941,Safari,1440,900,,,l,0.982,1,257,1,0,4,4,8,1,0,0,1,0,0,0,0,1,hexagon,star,,,,,,,,,,,,,,,,,,,,,,,,,,,,,,,,,,,,,,,,,,,,,,,,,,,,,,
298303,2022-11-30_22h46.31.996,vts_reward_expectancy_bt,2022.2.4,MacIntel,58.82352941,Safari,1440,900,,,a,0.769,10,267,1,0,5,5,3,1,0,1,0,0,1,0,0,0,circle,triangle,,,,,,,,,,,,,,,,,,,,,,,,,,,,,,,,,,,,,,,,,,,,,,,,,,,,,,
298303,2022-11-30_22h46.31.996,vts_reward_expectancy_bt,2022.2.4,MacIntel,58.82352941,Safari,1440,900,,,a,0.603,1,268,1,0,6,6,0,1,1,0,0,0,0,1,0,0,triangle,circle,,,,,,,,,,,,,,,,,,,,,,,,,,,,,,,,,,,,,,,,,,,,,,,,,,,,,,
298303,2022-11-30_22h46.31.996,vts_reward_expectancy_bt,2022.2.4,MacIntel,58.82352941,Safari,1440,900,,,a,0.942,1,269,1,0,7,7,2,1,1,0,0,0,0,0,0,1,triangle,star,,,,,,,,,,,,,,,,,,,,,,,,,,,,,,,,,,,,,,,,,,,,,,,,,,,,,,
298303,2022-11-30_22h46.31.996,vts_reward_expectancy_bt,2022.2.4,MacIntel,58.82352941,Safari,1440,900,,,l,0.605,10,279,1,0,8,8,5,1,0,1,0,0,0,0,0,1,circle,star,,,,,,,,,,,,,,,,,,,,,,,,,,,,,,,,,,,,,,,,,,,,,,,,,,,,,,
298303,2022-11-30_22h46.31.996,vts_reward_expectancy_bt,2022.2.4,MacIntel,58.82352941,Safari,1440,900,,,a,0.751,10,289,1,0,9,9,11,1,0,0,0,1,0,0,1,0,star,hexagon,,,,,,,,,,,,,,,,,,,,,,,,,,,,,,,,,,,,,,,,,,,,,,,,,,,,,,
298303,2022-11-30_22h46.31.996,vts_reward_expectancy_bt,2022.2.4,MacIntel,58.82352941,Safari,1440,900,,,a,0.433,10,299,1,0,10,10,9,1,0,0,0,1,1,0,0,0,star,triangle,,,,,,,,,,,,,,,,,,,,,,,,,,,,,,,,,,,,,,,,,,,,,,,,,,,,,,
298303,2022-11-30_22h46.31.996,vts_reward_expectancy_bt,2022.2.4,MacIntel,58.82352941,Safari,1440,900,,,a,0.589,10,309,1,0,11,11,10,1,0,0,0,1,0,1,0,0,star ,circle,,,,,,,,,,,,,,,,,,,,,,,,,,,,,,,,,,,,,,,,,,,,,,,,,,,,,,
298303,2022-11-30_22h46.31.996,vts_reward_expectancy_bt,2022.2.4,MacIntel,58.82352941,Safari,1440,900,,,l,0.797,1,310,1,1,0,12,2,1,1,0,0,0,0,0,0,1,triangle,star,,,,,,,,,,,,,,,,,,,,,,,,,,,,,,,,,,,,,,,,,,,,,,,,,,,,,,
298303,2022-11-30_22h46.31.996,vts_reward_expectancy_bt,2022.2.4,MacIntel,58.82352941,Safari,1440,900,,,a,0.591,10,320,1,1,1,13,9,1,0,0,0,1,1,0,0,0,star,triangle,,,,,,,,,,,,,,,,,,,,,,,,,,,,,,,,,,,,,,,,,,,,,,,,,,,,,,
298303,2022-11-30_22h46.31.996,vts_reward_expectancy_bt,2022.2.4,MacIntel,58.82352941,Safari,1440,900,,,a,0.664,10,330,1,1,2,14,7,1,0,0,1,0,0,1,0,0,hexagon,circle,,,,,,,,,,,,,,,,,,,,,,,,,,,,,,,,,,,,,,,,,,,,,,,,,,,,,,
298303,2022-11-30_22h46.31.996,vts_reward_expectancy_bt,2022.2.4,MacIntel,58.82352941,Safari,1440,900,,,a,0.583,10,340,1,1,3,15,10,1,0,0,0,1,0,1,0,0,star ,circle,,,,,,,,,,,,,,,,,,,,,,,,,,,,,,,,,,,,,,,,,,,,,,,,,,,,,,
298303,2022-11-30_22h46.31.996,vts_reward_expectancy_bt,2022.2.4,MacIntel,58.82352941,Safari,1440,900,,,l,0.75,1,341,1,1,4,16,8,1,0,0,1,0,0,0,0,1,hexagon,star,,,,,,,,,,,,,,,,,,,,,,,,,,,,,,,,,,,,,,,,,,,,,,,,,,,,,,
298303,2022-11-30_22h46.31.996,vts_reward_expectancy_bt,2022.2.4,MacIntel,58.82352941,Safari,1440,900,,,l,1.032,1,342,1,1,5,17,3,1,0,1,0,0,1,0,0,0,circle,triangle,,,,,,,,,,,,,,,,,,,,,,,,,,,,,,,,,,,,,,,,,,,,,,,,,,,,,,
298303,2022-11-30_22h46.31.996,vts_reward_expectancy_bt,2022.2.4,MacIntel,58.82352941,Safari,1440,900,,,l,0.688,1,343,1,1,6,18,1,1,1,0,0,0,0,0,1,0,triangle,hexagon,,,,,,,,,,,,,,,,,,,,,,,,,,,,,,,,,,,,,,,,,,,,,,,,,,,,,,
298303,2022-11-30_22h46.31.996,vts_reward_expectancy_bt,2022.2.4,MacIntel,58.82352941,Safari,1440,900,,,l,0.831,1,344,1,1,7,19,4,1,0,1,0,0,0,0,1,0,circle,hexagon,,,,,,,,,,,,,,,,,,,,,,,,,,,,,,,,,,,,,,,,,,,,,,,,,,,,,,
298303,2022-11-30_22h46.31.996,vts_reward_expectancy_bt,2022.2.4,MacIntel,58.82352941,Safari,1440,900,,,a,0.447,10,354,1,1,8,20,0,1,1,0,0,0,0,1,0,0,triangle,circle,,,,,,,,,,,,,,,,,,,,,,,,,,,,,,,,,,,,,,,,,,,,,,,,,,,,,,
298303,2022-11-30_22h46.31.996,vts_reward_expectancy_bt,2022.2.4,MacIntel,58.82352941,Safari,1440,900,,,a,1.216,10,364,1,1,9,21,11,1,0,0,0,1,0,0,1,0,star,hexagon,,,,,,,,,,,,,,,,,,,,,,,,,,,,,,,,,,,,,,,,,,,,,,,,,,,,,,
298303,2022-11-30_22h46.31.996,vts_reward_expectancy_bt,2022.2.4,MacIntel,58.82352941,Safari,1440,900,,,a,0.566,1,365,1,1,10,22,6,1,0,0,1,0,1,0,0,0,hexagon,triangle,,,,,,,,,,,,,,,,,,,,,,,,,,,,,,,,,,,,,,,,,,,,,,,,,,,,,,
298303,2022-11-30_22h46.31.996,vts_reward_expectancy_bt,2022.2.4,MacIntel,58.82352941,Safari,1440,900,,,l,0.854,10,375,1,1,11,23,5,1,0,1,0,0,0,0,0,1,circle,star,,,,,,,,,,,,,,,,,,,,,,,,,,,,,,,,,,,,,,,,,,,,,,,,,,,,,,
298303,2022-11-30_22h46.31.996,vts_reward_expectancy_bt,2022.2.4,MacIntel,58.82352941,Safari,1440,900,,,l,0.787,10,385,1,2,0,24,4,1,0,1,0,0,0,0,1,0,circle,hexagon,,,,,,,,,,,,,,,,,,,,,,,,,,,,,,,,,,,,,,,,,,,,,,,,,,,,,,
298303,2022-11-30_22h46.31.996,vts_reward_expectancy_bt,2022.2.4,MacIntel,58.82352941,Safari,1440,900,,,a,0.609,10,395,1,2,1,25,11,1,0,0,0,1,0,0,1,0,star,hexagon,,,,,,,,,,,,,,,,,,,,,,,,,,,,,,,,,,,,,,,,,,,,,,,,,,,,,,
298303,2022-11-30_22h46.31.996,vts_reward_expectancy_bt,2022.2.4,MacIntel,58.82352941,Safari,1440,900,,,a,0.918,1,396,1,2,2,26,8,1,0,0,1,0,0,0,0,1,hexagon,star,,,,,,,,,,,,,,,,,,,,,,,,,,,,,,,,,,,,,,,,,,,,,,,,,,,,,,
298303,2022-11-30_22h46.31.996,vts_reward_expectancy_bt,2022.2.4,MacIntel,58.82352941,Safari,1440,900,,,a,0.722,10,406,1,2,3,27,9,1,0,0,0,1,1,0,0,0,star,triangle,,,,,,,,,,,,,,,,,,,,,,,,,,,,,,,,,,,,,,,,,,,,,,,,,,,,,,
298303,2022-11-30_22h46.31.996,vts_reward_expectancy_bt,2022.2.4,MacIntel,58.82352941,Safari,1440,900,,,a,0.658,1,407,1,2,4,28,6,1,0,0,1,0,1,0,0,0,hexagon,triangle,,,,,,,,,,,,,,,,,,,,,,,,,,,,,,,,,,,,,,,,,,,,,,,,,,,,,,
298303,2022-11-30_22h46.31.996,vts_reward_expectancy_bt,2022.2.4,MacIntel,58.82352941,Safari,1440,900,,,a,0.708,1,408,1,2,5,29,10,1,0,0,0,1,0,1,0,0,star ,circle,,,,,,,,,,,,,,,,,,,,,,,,,,,,,,,,,,,,,,,,,,,,,,,,,,,,,,
298303,2022-11-30_22h46.31.996,vts_reward_expectancy_bt,2022.2.4,MacIntel,58.82352941,Safari,1440,900,,,l,0.532,10,418,1,2,6,30,5,1,0,1,0,0,0,0,0,1,circle,star,,,,,,,,,,,,,,,,,,,,,,,,,,,,,,,,,,,,,,,,,,,,,,,,,,,,,,
298303,2022-11-30_22h46.31.996,vts_reward_expectancy_bt,2022.2.4,MacIntel,58.82352941,Safari,1440,900,,,l,1.1,1,419,1,2,7,31,3,1,0,1,0,0,1,0,0,0,circle,triangle,,,,,,,,,,,,,,,,,,,,,,,,,,,,,,,,,,,,,,,,,,,,,,,,,,,,,,
298303,2022-11-30_22h46.31.996,vts_reward_expectancy_bt,2022.2.4,MacIntel,58.82352941,Safari,1440,900,,,a,0.616,1,420,1,2,8,32,7,1,0,0,1,0,0,1,0,0,hexagon,circle,,,,,,,,,,,,,,,,,,,,,,,,,,,,,,,,,,,,,,,,,,,,,,,,,,,,,,
298303,2022-11-30_22h46.31.996,vts_reward_expectancy_bt,2022.2.4,MacIntel,58.82352941,Safari,1440,900,,,l,0.667,10,430,1,2,9,33,0,1,1,0,0,0,0,1,0,0,triangle,circle,,,,,,,,,,,,,,,,,,,,,,,,,,,,,,,,,,,,,,,,,,,,,,,,,,,,,,
298303,2022-11-30_22h46.31.996,vts_reward_expectancy_bt,2022.2.4,MacIntel,58.82352941,Safari,1440,900,,,l,0.549,1,431,1,2,10,34,1,1,1,0,0,0,0,0,1,0,triangle,hexagon,,,,,,,,,,,,,,,,,,,,,,,,,,,,,,,,,,,,,,,,,,,,,,,,,,,,,,
298303,2022-11-30_22h46.31.996,vts_reward_expectancy_bt,2022.2.4,MacIntel,58.82352941,Safari,1440,900,,,l,0.608,10,441,1,2,11,35,2,1,1,0,0,0,0,0,0,1,triangle,star,,,,,,,,,,,,,,,,,,,,,,,,,,,,,,,,,,,,,,,,,,,,,,,,,,,,,,
298303,2022-11-30_22h46.31.996,vts_reward_expectancy_bt,2022.2.4,MacIntel,58.82352941,Safari,1440,900,,,a,1.348,10,451,2,0,0,0,3,1,0,1,0,0,1,0,0,0,circle,triangle,,,,,,,,,,,,,,,,,,,,,,,,,,,,,,,,,,,,,,,,,,,,,,,,,,,,,,
298303,2022-11-30_22h46.31.996,vts_reward_expectancy_bt,2022.2.4,MacIntel,58.82352941,Safari,1440,900,,,l,0.641,10,461,2,0,1,1,5,1,0,1,0,0,0,0,0,1,circle,star,,,,,,,,,,,,,,,,,,,,,,,,,,,,,,,,,,,,,,,,,,,,,,,,,,,,,,
298303,2022-11-30_22h46.31.996,vts_reward_expectancy_bt,2022.2.4,MacIntel,58.82352941,Safari,1440,900,,,l,0.682,10,471,2,0,2,2,2,1,1,0,0,0,0,0,0,1,triangle,star,,,,,,,,,,,,,,,,,,,,,,,,,,,,,,,,,,,,,,,,,,,,,,,,,,,,,,
298303,2022-11-30_22h46.31.996,vts_reward_expectancy_bt,2022.2.4,MacIntel,58.82352941,Safari,1440,900,,,a,0.547,1,472,2,0,3,3,7,1,0,0,1,0,0,1,0,0,hexagon,circle,,,,,,,,,,,,,,,,,,,,,,,,,,,,,,,,,,,,,,,,,,,,,,,,,,,,,,
298303,2022-11-30_22h46.31.996,vts_reward_expectancy_bt,2022.2.4,MacIntel,58.82352941,Safari,1440,900,,,l,0.655,10,482,2,0,4,4,4,1,0,1,0,0,0,0,1,0,circle,hexagon,,,,,,,,,,,,,,,,,,,,,,,,,,,,,,,,,,,,,,,,,,,,,,,,,,,,,,
298303,2022-11-30_22h46.31.996,vts_reward_expectancy_bt,2022.2.4,MacIntel,58.82352941,Safari,1440,900,,,l,0.532,1,483,2,0,5,5,1,1,1,0,0,0,0,0,1,0,triangle,hexagon,,,,,,,,,,,,,,,,,,,,,,,,,,,,,,,,,,,,,,,,,,,,,,,,,,,,,,
298303,2022-11-30_22h46.31.996,vts_reward_expectancy_bt,2022.2.4,MacIntel,58.82352941,Safari,1440,900,,,a,0.698,1,484,2,0,6,6,10,1,0,0,0,1,0,1,0,0,star ,circle,,,,,,,,,,,,,,,,,,,,,,,,,,,,,,,,,,,,,,,,,,,,,,,,,,,,,,
298303,2022-11-30_22h46.31.996,vts_reward_expectancy_bt,2022.2.4,MacIntel,58.82352941,Safari,1440,900,,,l,0.732,10,494,2,0,7,7,0,1,1,0,0,0,0,1,0,0,triangle,circle,,,,,,,,,,,,,,,,,,,,,,,,,,,,,,,,,,,,,,,,,,,,,,,,,,,,,,
298303,2022-11-30_22h46.31.996,vts_reward_expectancy_bt,2022.2.4,MacIntel,58.82352941,Safari,1440,900,,,a,0.966,10,504,2,0,8,8,9,1,0,0,0,1,1,0,0,0,star,triangle,,,,,,,,,,,,,,,,,,,,,,,,,,,,,,,,,,,,,,,,,,,,,,,,,,,,,,
298303,2022-11-30_22h46.31.996,vts_reward_expectancy_bt,2022.2.4,MacIntel,58.82352941,Safari,1440,900,,,a,0.538,10,514,2,0,9,9,11,1,0,0,0,1,0,0,1,0,star,hexagon,,,,,,,,,,,,,,,,,,,,,,,,,,,,,,,,,,,,,,,,,,,,,,,,,,,,,,
298303,2022-11-30_22h46.31.996,vts_reward_expectancy_bt,2022.2.4,MacIntel,58.82352941,Safari,1440,900,,,l,0.583,1,515,2,0,10,10,8,1,0,0,1,0,0,0,0,1,hexagon,star,,,,,,,,,,,,,,,,,,,,,,,,,,,,,,,,,,,,,,,,,,,,,,,,,,,,,,
298303,2022-11-30_22h46.31.996,vts_reward_expectancy_bt,2022.2.4,MacIntel,58.82352941,Safari,1440,900,,,a,0.55,1,516,2,0,11,11,6,1,0,0,1,0,1,0,0,0,hexagon,triangle,,,,,,,,,,,,,,,,,,,,,,,,,,,,,,,,,,,,,,,,,,,,,,,,,,,,,,
298303,2022-11-30_22h46.31.996,vts_reward_expectancy_bt,2022.2.4,MacIntel,58.82352941,Safari,1440,900,,,a,0.566,1,517,2,1,0,12,6,1,0,0,1,0,1,0,0,0,hexagon,triangle,,,,,,,,,,,,,,,,,,,,,,,,,,,,,,,,,,,,,,,,,,,,,,,,,,,,,,
298303,2022-11-30_22h46.31.996,vts_reward_expectancy_bt,2022.2.4,MacIntel,58.82352941,Safari,1440,900,,,l,0.416,1,518,2,1,1,13,1,1,1,0,0,0,0,0,1,0,triangle,hexagon,,,,,,,,,,,,,,,,,,,,,,,,,,,,,,,,,,,,,,,,,,,,,,,,,,,,,,
298303,2022-11-30_22h46.31.996,vts_reward_expectancy_bt,2022.2.4,MacIntel,58.82352941,Safari,1440,900,,,a,0.515,1,519,2,1,2,14,7,1,0,0,1,0,0,1,0,0,hexagon,circle,,,,,,,,,,,,,,,,,,,,,,,,,,,,,,,,,,,,,,,,,,,,,,,,,,,,,,
298303,2022-11-30_22h46.31.996,vts_reward_expectancy_bt,2022.2.4,MacIntel,58.82352941,Safari,1440,900,,,l,0.438,1,520,2,1,3,15,8,1,0,0,1,0,0,0,0,1,hexagon,star,,,,,,,,,,,,,,,,,,,,,,,,,,,,,,,,,,,,,,,,,,,,,,,,,,,,,,
298303,2022-11-30_22h46.31.996,vts_reward_expectancy_bt,2022.2.4,MacIntel,58.82352941,Safari,1440,900,,,a,0.617,10,530,2,1,4,16,11,1,0,0,0,1,0,0,1,0,star,hexagon,,,,,,,,,,,,,,,,,,,,,,,,,,,,,,,,,,,,,,,,,,,,,,,,,,,,,,
298303,2022-11-30_22h46.31.996,vts_reward_expectancy_bt,2022.2.4,MacIntel,58.82352941,Safari,1440,900,,,a,0.509,10,540,2,1,5,17,10,1,0,0,0,1,0,1,0,0,star ,circle,,,,,,,,,,,,,,,,,,,,,,,,,,,,,,,,,,,,,,,,,,,,,,,,,,,,,,
298303,2022-11-30_22h46.31.996,vts_reward_expectancy_bt,2022.2.4,MacIntel,58.82352941,Safari,1440,900,,,a,0.667,10,550,2,1,6,18,0,1,1,0,0,0,0,1,0,0,triangle,circle,,,,,,,,,,,,,,,,,,,,,,,,,,,,,,,,,,,,,,,,,,,,,,,,,,,,,,
298303,2022-11-30_22h46.31.996,vts_reward_expectancy_bt,2022.2.4,MacIntel,58.82352941,Safari,1440,900,,,a,0.766,10,560,2,1,7,19,9,1,0,0,0,1,1,0,0,0,star,triangle,,,,,,,,,,,,,,,,,,,,,,,,,,,,,,,,,,,,,,,,,,,,,,,,,,,,,,
298303,2022-11-30_22h46.31.996,vts_reward_expectancy_bt,2022.2.4,MacIntel,58.82352941,Safari,1440,900,,,l,0.806,10,570,2,1,8,20,5,1,0,1,0,0,0,0,0,1,circle,star,,,,,,,,,,,,,,,,,,,,,,,,,,,,,,,,,,,,,,,,,,,,,,,,,,,,,,
298303,2022-11-30_22h46.31.996,vts_reward_expectancy_bt,2022.2.4,MacIntel,58.82352941,Safari,1440,900,,,l,1.118,1,571,2,1,9,21,3,1,0,1,0,0,1,0,0,0,circle,triangle,,,,,,,,,,,,,,,,,,,,,,,,,,,,,,,,,,,,,,,,,,,,,,,,,,,,,,
298303,2022-11-30_22h46.31.996,vts_reward_expectancy_bt,2022.2.4,MacIntel,58.82352941,Safari,1440,900,,,l,0.734,1,572,2,1,10,22,4,1,0,1,0,0,0,0,1,0,circle,hexagon,,,,,,,,,,,,,,,,,,,,,,,,,,,,,,,,,,,,,,,,,,,,,,,,,,,,,,
298303,2022-11-30_22h46.31.996,vts_reward_expectancy_bt,2022.2.4,MacIntel,58.82352941,Safari,1440,900,,,a,0.492,10,582,2,1,11,23,2,1,1,0,0,0,0,0,0,1,triangle,star,,,,,,,,,,,,,,,,,,,,,,,,,,,,,,,,,,,,,,,,,,,,,,,,,,,,,,
298303,2022-11-30_22h46.31.996,vts_reward_expectancy_bt,2022.2.4,MacIntel,58.82352941,Safari,1440,900,,,a,0.532,10,592,2,2,0,24,3,1,0,1,0,0,1,0,0,0,circle,triangle,,,,,,,,,,,,,,,,,,,,,,,,,,,,,,,,,,,,,,,,,,,,,,,,,,,,,,
298303,2022-11-30_22h46.31.996,vts_reward_expectancy_bt,2022.2.4,MacIntel,58.82352941,Safari,1440,900,,,l,0.688,10,602,2,2,1,25,4,1,0,1,0,0,0,0,1,0,circle,hexagon,,,,,,,,,,,,,,,,,,,,,,,,,,,,,,,,,,,,,,,,,,,,,,,,,,,,,,
298303,2022-11-30_22h46.31.996,vts_reward_expectancy_bt,2022.2.4,MacIntel,58.82352941,Safari,1440,900,,,a,0.74,10,612,2,2,2,26,10,1,0,0,0,1,0,1,0,0,star ,circle,,,,,,,,,,,,,,,,,,,,,,,,,,,,,,,,,,,,,,,,,,,,,,,,,,,,,,
298303,2022-11-30_22h46.31.996,vts_reward_expectancy_bt,2022.2.4,MacIntel,58.82352941,Safari,1440,900,,,l,0.691,10,622,2,2,3,27,2,1,1,0,0,0,0,0,0,1,triangle,star,,,,,,,,,,,,,,,,,,,,,,,,,,,,,,,,,,,,,,,,,,,,,,,,,,,,,,
298303,2022-11-30_22h46.31.996,vts_reward_expectancy_bt,2022.2.4,MacIntel,58.82352941,Safari,1440,900,,,l,1.657,10,632,2,2,4,28,5,1,0,1,0,0,0,0,0,1,circle,star,,,,,,,,,,,,,,,,,,,,,,,,,,,,,,,,,,,,,,,,,,,,,,,,,,,,,,
298303,2022-11-30_22h46.31.996,vts_reward_expectancy_bt,2022.2.4,MacIntel,58.82352941,Safari,1440,900,,,l,0.866,10,642,2,2,5,29,0,1,1,0,0,0,0,1,0,0,triangle,circle,,,,,,,,,,,,,,,,,,,,,,,,,,,,,,,,,,,,,,,,,,,,,,,,,,,,,,
298303,2022-11-30_22h46.31.996,vts_reward_expectancy_bt,2022.2.4,MacIntel,58.82352941,Safari,1440,900,,,a,0.656,1,643,2,2,6,30,11,1,0,0,0,1,0,0,1,0,star,hexagon,,,,,,,,,,,,,,,,,,,,,,,,,,,,,,,,,,,,,,,,,,,,,,,,,,,,,,
298303,2022-11-30_22h46.31.996,vts_reward_expectancy_bt,2022.2.4,MacIntel,58.82352941,Safari,1440,900,,,a,0.531,10,653,2,2,7,31,7,1,0,0,1,0,0,1,0,0,hexagon,circle,,,,,,,,,,,,,,,,,,,,,,,,,,,,,,,,,,,,,,,,,,,,,,,,,,,,,,
298303,2022-11-30_22h46.31.996,vts_reward_expectancy_bt,2022.2.4,MacIntel,58.82352941,Safari,1440,900,,,l,0.562,1,654,2,2,8,32,8,1,0,0,1,0,0,0,0,1,hexagon,star,,,,,,,,,,,,,,,,,,,,,,,,,,,,,,,,,,,,,,,,,,,,,,,,,,,,,,
298303,2022-11-30_22h46.31.996,vts_reward_expectancy_bt,2022.2.4,MacIntel,58.82352941,Safari,1440,900,,,a,0.366,1,655,2,2,9,33,1,1,1,0,0,0,0,0,1,0,triangle,hexagon,,,,,,,,,,,,,,,,,,,,,,,,,,,,,,,,,,,,,,,,,,,,,,,,,,,,,,
298303,2022-11-30_22h46.31.996,vts_reward_expectancy_bt,2022.2.4,MacIntel,58.82352941,Safari,1440,900,,,a,1.337,1,656,2,2,10,34,6,1,0,0,1,0,1,0,0,0,hexagon,triangle,,,,,,,,,,,,,,,,,,,,,,,,,,,,,,,,,,,,,,,,,,,,,,,,,,,,,,
298303,2022-11-30_22h46.31.996,vts_reward_expectancy_bt,2022.2.4,MacIntel,58.82352941,Safari,1440,900,,,a,0.853,10,666,2,2,11,35,9,1,0,0,0,1,1,0,0,0,star,triangle,,,,,,,,,,,,,,,,,,,,,,,,,,,,,,,,,,,,,,,,,,,,,,,,,,,,,,
298303,2022-11-30_22h46.31.996,vts_reward_expectancy_bt,2022.2.4,MacIntel,58.82352941,Safari,1440,900,,,,,,,,,,,,,,,,,,,,,,,F,132,circle,0,0,,0,0,0,0,0,1,,,,,,,,,,,,,,,,,,,,,,,,,,,,,,,,,,,,,,,,,,
298303,2022-11-30_22h46.31.996,vts_reward_expectancy_bt,2022.2.4,MacIntel,58.82352941,Safari,1440,900,,,,,,,,,,,,,,,,,,,,,,,U,146,triangle,0,1,d,0,1,0,1,0,1,2.4,,,,,,,,,,,,,,,,,,,,,,,,,,,,,,,,,,,,,,,,,
298303,2022-11-30_22h46.31.996,vts_reward_expectancy_bt,2022.2.4,MacIntel,58.82352941,Safari,1440,900,,,,,,,,,,,,,,,,,,,,,,,H,160,star,1,1,d,0,2,0,2,0,1,1.842,,,,,,,,,,,,,,,,,,,,,,,,,,,,,,,,,,,,,,,,,
298303,2022-11-30_22h46.31.996,vts_reward_expectancy_bt,2022.2.4,MacIntel,58.82352941,Safari,1440,900,,,,,,,,,,,,,,,,,,,,,,,B,174,hexagon,1,0,d,0,3,0,3,0,1,0.843,,,,,,,,,,,,,,,,,,,,,,,,,,,,,,,,,,,,,,,,,
298303,2022-11-30_22h46.31.996,vts_reward_expectancy_bt,2022.2.4,MacIntel,58.82352941,Safari,1440,900,,,,,,,,,,,,,,,,,,,,,,,D,125,circle,1,0,d,0,4,0,4,0,1,0.644,,,,,,,,,,,,,,,,,,,,,,,,,,,,,,,,,,,,,,,,,
298303,2022-11-30_22h46.31.996,vts_reward_expectancy_bt,2022.2.4,MacIntel,58.82352941,Safari,1440,900,,,,,,,,,,,,,,,,,,,,,,,S,181,triangle,0,0,,0,5,0,5,0,1,,,,,,,,,,,,,,,,,,,,,,,,,,,,,,,,,,,,,,,,,,
298303,2022-11-30_22h46.31.996,vts_reward_expectancy_bt,2022.2.4,MacIntel,58.82352941,Safari,1440,900,,,,,,,,,,,,,,,,,,,,,,,W,139,star,0,1,,0,6,0,6,0,1,,,,,,,,,,,,,,,,,,,,,,,,,,,,,,,,,,,,,,,,,,
298303,2022-11-30_22h46.31.996,vts_reward_expectancy_bt,2022.2.4,MacIntel,58.82352941,Safari,1440,900,,,,,,,,,,,,,,,,,,,,,,,Y,167,hexagon,0,1,d,0,7,0,7,0,1,1.276,,,,,,,,,,,,,,,,,,,,,,,,,,,,,,,,,,,,,,,,,
298303,2022-11-30_22h46.31.996,vts_reward_expectancy_bt,2022.2.4,MacIntel,58.82352941,Safari,1440,900,,,,,,,,,,,,,,,,,,,,,,,F,132,circle,1,1,d,0,8,0,8,0,1,0.743,,,,,,,,,,,,,,,,,,,,,,,,,,,,,,,,,,,,,,,,,
298303,2022-11-30_22h46.31.996,vts_reward_expectancy_bt,2022.2.4,MacIntel,58.82352941,Safari,1440,900,,,,,,,,,,,,,,,,,,,,,,,U,146,star,0,0,,0,9,0,9,0,1,,,,,,,,,,,,,,,,,,,,,,,,,,,,,,,,,,,,,,,,,,
298303,2022-11-30_22h46.31.996,vts_reward_expectancy_bt,2022.2.4,MacIntel,58.82352941,Safari,1440,900,,,,,,,,,,,,,,,,,,,,,,,U,146,circle,0,1,,1,0,0,0,0,1,,,,,,,,,,,,,,,,,,,,,,,,,,,,,,,,,,,,,,,,,,
298303,2022-11-30_22h46.31.996,vts_reward_expectancy_bt,2022.2.4,MacIntel,58.82352941,Safari,1440,900,,,,,,,,,,,,,,,,,,,,,,,S,139,star,0,1,,1,1,0,1,0,1,,,,,,,,,,,,,,,,,,,,,,,,,,,,,,,,,,,,,,,,,,
298303,2022-11-30_22h46.31.996,vts_reward_expectancy_bt,2022.2.4,MacIntel,58.82352941,Safari,1440,900,,,,,,,,,,,,,,,,,,,,,,,W,181,hexagon,0,1,,1,2,0,2,0,1,,,,,,,,,,,,,,,,,,,,,,,,,,,,,,,,,,,,,,,,,,
298303,2022-11-30_22h46.31.996,vts_reward_expectancy_bt,2022.2.4,MacIntel,58.82352941,Safari,1440,900,,,,,,,,,,,,,,,,,,,,,,,F,160,triangle,1,1,d,1,3,0,3,0,1,0.647,,,,,,,,,,,,,,,,,,,,,,,,,,,,,,,,,,,,,,,,,
298303,2022-11-30_22h46.31.996,vts_reward_expectancy_bt,2022.2.4,MacIntel,58.82352941,Safari,1440,900,,,,,,,,,,,,,,,,,,,,,,,H,174,circle,1,0,d,1,4,0,4,0,1,0.594,,,,,,,,,,,,,,,,,,,,,,,,,,,,,,,,,,,,,,,,,
298303,2022-11-30_22h46.31.996,vts_reward_expectancy_bt,2022.2.4,MacIntel,58.82352941,Safari,1440,900,,,,,,,,,,,,,,,,,,,,,,,B,132,star,1,0,d,1,5,0,5,0,1,0.59,,,,,,,,,,,,,,,,,,,,,,,,,,,,,,,,,,,,,,,,,
298303,2022-11-30_22h46.31.996,vts_reward_expectancy_bt,2022.2.4,MacIntel,58.82352941,Safari,1440,900,,,,,,,,,,,,,,,,,,,,,,,D,125,hexagon,1,0,d,1,6,0,6,0,1,0.434,,,,,,,,,,,,,,,,,,,,,,,,,,,,,,,,,,,,,,,,,
298303,2022-11-30_22h46.31.996,vts_reward_expectancy_bt,2022.2.4,MacIntel,58.82352941,Safari,1440,900,,,,,,,,,,,,,,,,,,,,,,,Y,167,triangle,0,0,d,1,7,0,7,0,1,0.459,,,,,,,,,,,,,,,,,,,,,,,,,,,,,,,,,,,,,,,,,
298303,2022-11-30_22h46.31.996,vts_reward_expectancy_bt,2022.2.4,MacIntel,58.82352941,Safari,1440,900,,,,,,,,,,,,,,,,,,,,,,,U,146,triangle,0,1,,1,8,0,8,0,1,,,,,,,,,,,,,,,,,,,,,,,,,,,,,,,,,,,,,,,,,,
298303,2022-11-30_22h46.31.996,vts_reward_expectancy_bt,2022.2.4,MacIntel,58.82352941,Safari,1440,900,,,,,,,,,,,,,,,,,,,,,,,S,139,hexagon,0,1,,1,9,0,9,0,1,,,,,,,,,,,,,,,,,,,,,,,,,,,,,,,,,,,,,,,,,,
298303,2022-11-30_22h46.31.996,vts_reward_expectancy_bt,2022.2.4,MacIntel,58.82352941,Safari,1440,900,,,,,,,,,,,,,,,,,,,,,,,F,139,star,1,1,d,2,0,0,0,0,1,1.486,,,,,,,,,,,,,,,,,,,,,,,,,,,,,,,,,,,,,,,,,
298303,2022-11-30_22h46.31.996,vts_reward_expectancy_bt,2022.2.4,MacIntel,58.82352941,Safari,1440,900,,,,,,,,,,,,,,,,,,,,,,,U,174,hexagon,1,0,f,2,1,0,1,0,1,0.476,,,,,,,,,,,,,,,,,,,,,,,,,,,,,,,,,,,,,,,,,
298303,2022-11-30_22h46.31.996,vts_reward_expectancy_bt,2022.2.4,MacIntel,58.82352941,Safari,1440,900,,,,,,,,,,,,,,,,,,,,,,,S,181,triangle,1,0,f,2,2,0,2,0,1,0.686,,,,,,,,,,,,,,,,,,,,,,,,,,,,,,,,,,,,,,,,,
298303,2022-11-30_22h46.31.996,vts_reward_expectancy_bt,2022.2.4,MacIntel,58.82352941,Safari,1440,900,,,,,,,,,,,,,,,,,,,,,,,D,160,circle,1,0,d,2,3,0,3,0,1,0.66,,,,,,,,,,,,,,,,,,,,,,,,,,,,,,,,,,,,,,,,,
298303,2022-11-30_22h46.31.996,vts_reward_expectancy_bt,2022.2.4,MacIntel,58.82352941,Safari,1440,900,,,,,,,,,,,,,,,,,,,,,,,B,132,star,1,0,d,2,4,0,4,0,1,0.693,,,,,,,,,,,,,,,,,,,,,,,,,,,,,,,,,,,,,,,,,
298303,2022-11-30_22h46.31.996,vts_reward_expectancy_bt,2022.2.4,MacIntel,58.82352941,Safari,1440,900,,,,,,,,,,,,,,,,,,,,,,,H,125,hexagon,1,0,d,2,5,0,5,0,1,0.893,,,,,,,,,,,,,,,,,,,,,,,,,,,,,,,,,,,,,,,,,
298303,2022-11-30_22h46.31.996,vts_reward_expectancy_bt,2022.2.4,MacIntel,58.82352941,Safari,1440,900,,,,,,,,,,,,,,,,,,,,,,,Y,167,triangle,1,0,f,2,6,0,6,0,1,1.017,,,,,,,,,,,,,,,,,,,,,,,,,,,,,,,,,,,,,,,,,
298303,2022-11-30_22h46.31.996,vts_reward_expectancy_bt,2022.2.4,MacIntel,58.82352941,Safari,1440,900,,,,,,,,,,,,,,,,,,,,,,,W,146,circle,1,0,f,2,7,0,7,0,1,0.599,,,,,,,,,,,,,,,,,,,,,,,,,,,,,,,,,,,,,,,,,
298303,2022-11-30_22h46.31.996,vts_reward_expectancy_bt,2022.2.4,MacIntel,58.82352941,Safari,1440,900,,,,,,,,,,,,,,,,,,,,,,,F,139,star,1,0,d,2,8,0,8,0,1,1.07,,,,,,,,,,,,,,,,,,,,,,,,,,,,,,,,,,,,,,,,,
298303,2022-11-30_22h46.31.996,vts_reward_expectancy_bt,2022.2.4,MacIntel,58.82352941,Safari,1440,900,,,,,,,,,,,,,,,,,,,,,,,U,174,hexagon,1,0,f,2,9,0,9,0,1,0.996,,,,,,,,,,,,,,,,,,,,,,,,,,,,,,,,,,,,,,,,,
298303,2022-11-30_22h46.31.996,vts_reward_expectancy_bt,2022.2.4,MacIntel,58.82352941,Safari,1440,900,,,,,,,,,,,,,,,,,,,,,,,H,139,star,0,0,,3,,,,,,,k,1.527,0,0,0,0,1,,,,,,,,,,,,,,,,,,,,,,,,,,,,,,,,,,
298303,2022-11-30_22h46.31.996,vts_reward_expectancy_bt,2022.2.4,MacIntel,58.82352941,Safari,1440,900,,,,,,,,,,,,,,,,,,,,,,,S,174,triangle,0,1,,3,,,,,,,j,1.027,1,0,1,0,1,,,,,,,,,,,,,,,,,,,,,,,,,,,,,,,,,,
298303,2022-11-30_22h46.31.996,vts_reward_expectancy_bt,2022.2.4,MacIntel,58.82352941,Safari,1440,900,,,,,,,,,,,,,,,,,,,,,,,Y,167,circle,1,1,,3,,,,,,,k,2.065,2,0,2,0,1,,,,,,,,,,,,,,,,,,,,,,,,,,,,,,,,,,
298303,2022-11-30_22h46.31.996,vts_reward_expectancy_bt,2022.2.4,MacIntel,58.82352941,Safari,1440,900,,,,,,,,,,,,,,,,,,,,,,,D,146,hexagon,0,0,,3,,,,,,,k,0.643,3,0,3,0,1,,,,,,,,,,,,,,,,,,,,,,,,,,,,,,,,,,
298303,2022-11-30_22h46.31.996,vts_reward_expectancy_bt,2022.2.4,MacIntel,58.82352941,Safari,1440,900,,,,,,,,,,,,,,,,,,,,,,,U,132,star,1,1,,3,,,,,,,j,0.658,4,0,4,0,1,,,,,,,,,,,,,,,,,,,,,,,,,,,,,,,,,,
298303,2022-11-30_22h46.31.996,vts_reward_expectancy_bt,2022.2.4,MacIntel,58.82352941,Safari,1440,900,,,,,,,,,,,,,,,,,,,,,,,F,125,triangle,0,0,,3,,,,,,,,,5,0,5,0,1,,,,,,,,,,,,,,,,,,,,,,,,,,,,,,,,,,
298303,2022-11-30_22h46.31.996,vts_reward_expectancy_bt,2022.2.4,MacIntel,58.82352941,Safari,1440,900,,,,,,,,,,,,,,,,,,,,,,,W,181,circle,1,1,,3,,,,,,,k,0.919,6,0,6,0,1,,,,,,,,,,,,,,,,,,,,,,,,,,,,,,,,,,
298303,2022-11-30_22h46.31.996,vts_reward_expectancy_bt,2022.2.4,MacIntel,58.82352941,Safari,1440,900,,,,,,,,,,,,,,,,,,,,,,,B,160,hexagon,1,0,,3,,,,,,,k,1.034,7,0,7,0,1,,,,,,,,,,,,,,,,,,,,,,,,,,,,,,,,,,
298303,2022-11-30_22h46.31.996,vts_reward_expectancy_bt,2022.2.4,MacIntel,58.82352941,Safari,1440,900,,,,,,,,,,,,,,,,,,,,,,,H,139,star,1,0,,3,,,,,,,j,0.86,8,0,8,0,1,,,,,,,,,,,,,,,,,,,,,,,,,,,,,,,,,,
298303,2022-11-30_22h46.31.996,vts_reward_expectancy_bt,2022.2.4,MacIntel,58.82352941,Safari,1440,900,,,,,,,,,,,,,,,,,,,,,,,S,174,hexagon,1,0,,3,,,,,,,k,0.876,9,0,9,0,1,,,,,,,,,,,,,,,,,,,,,,,,,,,,,,,,,,
298303,2022-11-30_22h46.31.996,vts_reward_expectancy_bt,2022.2.4,MacIntel,58.82352941,Safari,1440,900,,,,,,,,,,,,,,,,,,,,,,,Y,181,circle,1,0,,4,,,,,,,k,0.793,0,0,0,0,1,,,,,,,,,,,,,,,,,,,,,,,,,,,,,,,,,,
298303,2022-11-30_22h46.31.996,vts_reward_expectancy_bt,2022.2.4,MacIntel,58.82352941,Safari,1440,900,,,,,,,,,,,,,,,,,,,,,,,U,174,star,1,0,,4,,,,,,,k,0.644,1,0,1,0,1,,,,,,,,,,,,,,,,,,,,,,,,,,,,,,,,,,
298303,2022-11-30_22h46.31.996,vts_reward_expectancy_bt,2022.2.4,MacIntel,58.82352941,Safari,1440,900,,,,,,,,,,,,,,,,,,,,,,,B,132,triangle,1,0,,4,,,,,,,j,0.769,2,0,2,0,1,,,,,,,,,,,,,,,,,,,,,,,,,,,,,,,,,,
298303,2022-11-30_22h46.31.996,vts_reward_expectancy_bt,2022.2.4,MacIntel,58.82352941,Safari,1440,900,,,,,,,,,,,,,,,,,,,,,,,W,167,hexagon,1,0,,4,,,,,,,k,1.181,3,0,3,0,1,,,,,,,,,,,,,,,,,,,,,,,,,,,,,,,,,,
298303,2022-11-30_22h46.31.996,vts_reward_expectancy_bt,2022.2.4,MacIntel,58.82352941,Safari,1440,900,,,,,,,,,,,,,,,,,,,,,,,F,139,circle,1,0,,4,,,,,,,j,0.961,4,0,4,0,1,,,,,,,,,,,,,,,,,,,,,,,,,,,,,,,,,,
298303,2022-11-30_22h46.31.996,vts_reward_expectancy_bt,2022.2.4,MacIntel,58.82352941,Safari,1440,900,,,,,,,,,,,,,,,,,,,,,,,H,160,star,0,0,,4,,,,,,,,,5,0,5,0,1,,,,,,,,,,,,,,,,,,,,,,,,,,,,,,,,,,
298303,2022-11-30_22h46.31.996,vts_reward_expectancy_bt,2022.2.4,MacIntel,58.82352941,Safari,1440,900,,,,,,,,,,,,,,,,,,,,,,,D,146,triangle,1,1,,4,,,,,,,j,1.416,6,0,6,0,1,,,,,,,,,,,,,,,,,,,,,,,,,,,,,,,,,,
298303,2022-11-30_22h46.31.996,vts_reward_expectancy_bt,2022.2.4,MacIntel,58.82352941,Safari,1440,900,,,,,,,,,,,,,,,,,,,,,,,S,125,hexagon,1,0,,4,,,,,,,j,0.826,7,0,7,0,1,,,,,,,,,,,,,,,,,,,,,,,,,,,,,,,,,,
298303,2022-11-30_22h46.31.996,vts_reward_expectancy_bt,2022.2.4,MacIntel,58.82352941,Safari,1440,900,,,,,,,,,,,,,,,,,,,,,,,Y,181,circle,1,0,,4,,,,,,,k,0.716,8,0,8,0,1,,,,,,,,,,,,,,,,,,,,,,,,,,,,,,,,,,
298303,2022-11-30_22h46.31.996,vts_reward_expectancy_bt,2022.2.4,MacIntel,58.82352941,Safari,1440,900,,,,,,,,,,,,,,,,,,,,,,,U,174,triangle,1,0,,4,,,,,,,k,1.493,9,0,9,0,1,,,,,,,,,,,,,,,,,,,,,,,,,,,,,,,,,,
298303,2022-11-30_22h46.31.996,vts_reward_expectancy_bt,2022.2.4,MacIntel,58.82352941,Safari,1440,900,,,,,0,666,,,,,,,,,,,,,,,,,D,160,triangle,-1,0,,5,,,,,,,,,,,,,,-1,no_choice,NA,,vtsPrac,0,0,0,0,1,,,,,,,,,,,,,,,,,,,,,,,,
298303,2022-11-30_22h46.31.996,vts_reward_expectancy_bt,2022.2.4,MacIntel,58.82352941,Safari,1440,900,,,,,0,666,,,,,,,,,,,,,,,,,F,174,circle,1,0,,5,,,,,,,,,,,,,,switch,letter,lettSwt,d,vtsPrac,1,0,1,0,1,1.291,,,,,,,,,,,,,,,,,,,,,,,
298303,2022-11-30_22h46.31.996,vts_reward_expectancy_bt,2022.2.4,MacIntel,58.82352941,Safari,1440,900,,,,,0,666,,,,,,,,,,,,,,,,,U,125,triangle,1,0,,5,,,,,,,,,,,,,,switch,number,numSwt,j,vtsPrac,2,0,2,0,1,1.159,,,,,,,,,,,,,,,,,,,,,,,
298303,2022-11-30_22h46.31.996,vts_reward_expectancy_bt,2022.2.4,MacIntel,58.82352941,Safari,1440,900,,,,,0,666,,,,,,,,,,,,,,,,,W,146,circle,1,0,,5,,,,,,,,,,,,,,repeat,number,numRpt,j,vtsPrac,3,0,3,0,1,1.728,,,,,,,,,,,,,,,,,,,,,,,
298303,2022-11-30_22h46.31.996,vts_reward_expectancy_bt,2022.2.4,MacIntel,58.82352941,Safari,1440,900,,,,,0,666,,,,,,,,,,,,,,,,,D,160,star,1,0,,5,,,,,,,,,,,,,,switch,letter,lettSwt,d,vtsPrac,4,0,4,0,1,0.983,,,,,,,,,,,,,,,,,,,,,,,
298303,2022-11-30_22h46.31.996,vts_reward_expectancy_bt,2022.2.4,MacIntel,58.82352941,Safari,1440,900,,,,,0,666,,,,,,,,,,,,,,,,,F,174,circle,1,0,,5,,,,,,,,,,,,,,repeat,letter,lettRpt,d,vtsPrac,5,0,5,0,1,0.782,,,,,,,,,,,,,,,,,,,,,,,
298303,2022-11-30_22h46.31.996,vts_reward_expectancy_bt,2022.2.4,MacIntel,58.82352941,Safari,1440,900,,,,,0,666,,,,,,,,,,,,,,,,,U,125,hexagon,1,0,,5,,,,,,,,,,,,,,repeat,letter,lettRpt,f,vtsPrac,6,0,6,0,1,1.069,,,,,,,,,,,,,,,,,,,,,,,
298303,2022-11-30_22h46.31.996,vts_reward_expectancy_bt,2022.2.4,MacIntel,58.82352941,Safari,1440,900,,,,,0,666,,,,,,,,,,,,,,,,,W,146,star,1,0,,5,,,,,,,,,,,,,,switch,number,numSwt,j,vtsPrac,7,0,7,0,1,1.159,,,,,,,,,,,,,,,,,,,,,,,
298303,2022-11-30_22h46.31.996,vts_reward_expectancy_bt,2022.2.4,MacIntel,58.82352941,Safari,1440,900,,,,,0,666,,,,,,,,,,,,,,,,,U,139,triangle,1,0,,5,,,,,,,,,,,,,,repeat,number,numRpt,j,vtsPrac,8,0,8,0,1,0.877,,,,,,,,,,,,,,,,,,,,,,,
298303,2022-11-30_22h46.31.996,vts_reward_expectancy_bt,2022.2.4,MacIntel,58.82352941,Safari,1440,900,,,,,0,666,,,,,,,,,,,,,,,,,H,174,circle,1,0,,5,,,,,,,,,,,,,,repeat,number,numRpt,k,vtsPrac,9,0,9,0,1,0.797,,,,,,,,,,,,,,,,,,,,,,,
298303,2022-11-30_22h46.31.996,vts_reward_expectancy_bt,2022.2.4,MacIntel,58.82352941,Safari,1440,900,,,,,0,666,,,,,,,,,,,,,,,,,B,160,star,1,0,,5,,,,,,,,,,,,,,repeat,number,numRpt,k,vtsPrac,10,0,10,0,1,0.96,,,,,,,,,,,,,,,,,,,,,,,
298303,2022-11-30_22h46.31.996,vts_reward_expectancy_bt,2022.2.4,MacIntel,58.82352941,Safari,1440,900,,,,,0,666,,,,,,,,,,,,,,,,,Y,132,triangle,1,0,,5,,,,,,,,,,,,,,repeat,number,numRpt,j,vtsPrac,11,0,11,0,1,0.67,,,,,,,,,,,,,,,,,,,,,,,
298303,2022-11-30_22h46.31.996,vts_reward_expectancy_bt,2022.2.4,MacIntel,58.82352941,Safari,1440,900,,,,,0,666,,,,,,,,,,,,,,,,,W,160,triangle,1,0,,5,,,,,,,,,,,,,,switch,letter,lettSwt,f,vtsPrac,12,0,12,0,1,0.793,,,,,,,,,,,,,,,,,,,,,,,
298303,2022-11-30_22h46.31.996,vts_reward_expectancy_bt,2022.2.4,MacIntel,58.82352941,Safari,1440,900,,,,,0,666,,,,,,,,,,,,,,,,,S,139,hexagon,1,0,,5,,,,,,,,,,,,,,switch,number,numSwt,j,vtsPrac,13,0,13,0,1,0.743,,,,,,,,,,,,,,,,,,,,,,,
298303,2022-11-30_22h46.31.996,vts_reward_expectancy_bt,2022.2.4,MacIntel,58.82352941,Safari,1440,900,,,,,0,666,,,,,,,,,,,,,,,,,B,167,circle,1,0,,5,,,,,,,,,,,,,,switch,letter,lettSwt,d,vtsPrac,14,0,14,0,1,0.792,,,,,,,,,,,,,,,,,,,,,,,
298303,2022-11-30_22h46.31.996,vts_reward_expectancy_bt,2022.2.4,MacIntel,58.82352941,Safari,1440,900,,,,,0,666,,,,,,,,,,,,,,,,,F,125,triangle,1,0,,5,,,,,,,,,,,,,,repeat,letter,lettRpt,d,vtsPrac,15,0,15,0,1,0.91,,,,,,,,,,,,,,,,,,,,,,,
298303,2022-11-30_22h46.31.996,vts_reward_expectancy_bt,2022.2.4,MacIntel,58.82352941,Safari,1440,900,,,,,0,666,,,,,,,,,,,,,,,,,F,181,circle,1,0,,5,,,,,,,,,,,,,,switch,number,numSwt,k,vtsPrac,16,0,16,0,1,0.778,,,,,,,,,,,,,,,,,,,,,,,
298303,2022-11-30_22h46.31.996,vts_reward_expectancy_bt,2022.2.4,MacIntel,58.82352941,Safari,1440,900,,,,,0,666,,,,,,,,,,,,,,,,,D,146,triangle,1,0,,5,,,,,,,,,,,,,,switch,letter,lettSwt,d,vtsPrac,17,0,17,0,1,0.86,,,,,,,,,,,,,,,,,,,,,,,
298303,2022-11-30_22h46.31.996,vts_reward_expectancy_bt,2022.2.4,MacIntel,58.82352941,Safari,1440,900,,,,,0,666,,,,,,,,,,,,,,,,,Y,139,triangle,1,0,,5,,,,,,,,,,,,,,repeat,letter,lettRpt,f,vtsPrac,18,0,18,0,1,0.765,,,,,,,,,,,,,,,,,,,,,,,
298303,2022-11-30_22h46.31.996,vts_reward_expectancy_bt,2022.2.4,MacIntel,58.82352941,Safari,1440,900,,,,,0,666,,,,,,,,,,,,,,,,,W,125,circle,1,0,,5,,,,,,,,,,,,,,repeat,letter,lettRpt,f,vtsPrac,19,0,19,0,1,0.751,,,,,,,,,,,,,,,,,,,,,,,
298303,2022-11-30_22h46.31.996,vts_reward_expectancy_bt,2022.2.4,MacIntel,58.82352941,Safari,1440,900,,,,,0,666,,,,,,,,,,,,,,,,,S,146,star,1,0,,5,,,,,,,,,,,,,,repeat,letter,lettRpt,f,vtsPrac,20,0,20,0,1,0.762,,,,,,,,,,,,,,,,,,,,,,,
298303,2022-11-30_22h46.31.996,vts_reward_expectancy_bt,2022.2.4,MacIntel,58.82352941,Safari,1440,900,,,,,0,666,,,,,,,,,,,,,,,,,Y,160,hexagon,1,0,,5,,,,,,,,,,,,,,repeat,letter,lettRpt,f,vtsPrac,21,0,21,0,1,0.66,,,,,,,,,,,,,,,,,,,,,,,
298303,2022-11-30_22h46.31.996,vts_reward_expectancy_bt,2022.2.4,MacIntel,58.82352941,Safari,1440,900,,,,,0,666,,,,,,,,,,,,,,,,,F,181,triangle,1,0,,5,,,,,,,,,,,,,,switch,number,numSwt,k,vtsPrac,22,0,22,0,1,0.733,,,,,,,,,,,,,,,,,,,,,,,
298303,2022-11-30_22h46.31.996,vts_reward_expectancy_bt,2022.2.4,MacIntel,58.82352941,Safari,1440,900,,,,,0,666,,,,,,,,,,,,,,,,,U,139,hexagon,0,0,,5,,,,,,,,,,,,,,repeat,number,NA,k,vtsPrac,23,0,23,0,1,0.719,,,,,,,,,,,,,,,,,,,,,,,
298303,2022-11-30_22h46.31.996,vts_reward_expectancy_bt,2022.2.4,MacIntel,58.82352941,Safari,1440,900,,,,,0,666,,,,,,,,,,,,,,,,,D,146,star,1,1,,5,,,,,,,,,,,,,,switch,letter,lettSwt,d,vtsPrac,24,0,24,0,1,0.612,,,,,,,,,,,,,,,,,,,,,,,
298303,2022-11-30_22h46.31.996,vts_reward_expectancy_bt,2022.2.4,MacIntel,58.82352941,Safari,1440,900,,,,,0,666,,,,,,,,,,,,,,,,,S,139,hexagon,1,0,,5,,,,,,,,,,,,,,repeat,letter,lettRpt,f,vtsPrac,25,0,25,0,1,1.954,,,,,,,,,,,,,,,,,,,,,,,
298303,2022-11-30_22h46.31.996,vts_reward_expectancy_bt,2022.2.4,MacIntel,58.82352941,Safari,1440,900,,,,,0,666,,,,,,,,,,,,,,,,,F,132,circle,1,0,,5,,,,,,,,,,,,,,repeat,letter,lettRpt,d,vtsPrac,26,0,26,0,1,0.761,,,,,,,,,,,,,,,,,,,,,,,
298303,2022-11-30_22h46.31.996,vts_reward_expectancy_bt,2022.2.4,MacIntel,58.82352941,Safari,1440,900,,,,,0,666,,,,,,,,,,,,,,,,,W,160,star,1,0,,5,,,,,,,,,,,,,,repeat,letter,lettRpt,f,vtsPrac,27,0,27,0,1,0.812,,,,,,,,,,,,,,,,,,,,,,,
298303,2022-11-30_22h46.31.996,vts_reward_expectancy_bt,2022.2.4,MacIntel,58.82352941,Safari,1440,900,,,,,0,666,,,,,,,,,,,,,,,,,D,167,star,1,0,,5,,,,,,,,,,,,,,repeat,letter,lettRpt,d,vtsPrac,28,0,28,0,1,0.731,,,,,,,,,,,,,,,,,,,,,,,
298303,2022-11-30_22h46.31.996,vts_reward_expectancy_bt,2022.2.4,MacIntel,58.82352941,Safari,1440,900,,,,,0,666,,,,,,,,,,,,,,,,,H,146,circle,1,0,,5,,,,,,,,,,,,,,repeat,letter,lettRpt,d,vtsPrac,29,0,29,0,1,0.81,,,,,,,,,,,,,,,,,,,,,,,
298303,2022-11-30_22h46.31.996,vts_reward_expectancy_bt,2022.2.4,MacIntel,58.82352941,Safari,1440,900,,,,,0,666,,,,,,,,,,,,,,,,,U,174,hexagon,1,0,,5,,,,,,,,,,,,,,repeat,letter,lettRpt,f,vtsPrac,30,0,30,0,1,1.141,,,,,,,,,,,,,,,,,,,,,,,
298303,2022-11-30_22h46.31.996,vts_reward_expectancy_bt,2022.2.4,MacIntel,58.82352941,Safari,1440,900,,,,,0,666,,,,,,,,,,,,,,,,,W,132,star,1,0,,5,,,,,,,,,,,,,,repeat,letter,lettRpt,f,vtsPrac,31,0,31,0,1,0.792,,,,,,,,,,,,,,,,,,,,,,,
298303,2022-11-30_22h46.31.996,vts_reward_expectancy_bt,2022.2.4,MacIntel,58.82352941,Safari,1440,900,,,,,,,,,,,,,,,,,,,,,,,,,,,,,,,,,,,,,,,,,,,,,,,,,,,,,,,,,,,,,,,,,,,,,,,,,,,,
298303,2022-11-30_22h46.31.996,vts_reward_expectancy_bt,2022.2.4,MacIntel,58.82352941,Safari,1440,900,,,,,,,,,,,,,,,,,,,,,,,,,,,,,,,,,,,,,,,,,,,,,,,,,,,,,,,,,,,,,,,,,,,,,,,,,,,,
298303,2022-11-30_22h46.31.996,vts_reward_expectancy_bt,2022.2.4,MacIntel,58.82352941,Safari,1440,900,,,,,0,666,,,,,,,,,,,,,,,,,F,181,star,1,0,,,,,,,,,,,,,,,,repeat,letter,lettRpt,d,noRew,,,,,,0.735,0,0,0,0,0,1,,,,,,,,,,,,,,,,,
298303,2022-11-30_22h46.31.996,vts_reward_expectancy_bt,2022.2.4,MacIntel,58.82352941,Safari,1440,900,,,,,0,666,,,,,,,,,,,,,,,,,U,125,hexagon,1,0,,,,,,,,,,,,,,,,repeat,letter,lettRpt,f,noRew,,,,,,0.803,0,1,0,1,0,1,,,,,,,,,,,,,,,,,
298303,2022-11-30_22h46.31.996,vts_reward_expectancy_bt,2022.2.4,MacIntel,58.82352941,Safari,1440,900,,,,,0,666,,,,,,,,,,,,,,,,,D,146,star,1,0,,,,,,,,,,,,,,,,repeat,letter,lettRpt,d,noRew,,,,,,0.809,0,2,0,2,0,1,,,,,,,,,,,,,,,,,
298303,2022-11-30_22h46.31.996,vts_reward_expectancy_bt,2022.2.4,MacIntel,58.82352941,Safari,1440,900,,,,,0,666,,,,,,,,,,,,,,,,,W,174,hexagon,1,0,,,,,,,,,,,,,,,,switch,number,numSwt,k,noRew,,,,,,0.627,0,3,0,3,0,1,,,,,,,,,,,,,,,,,
298303,2022-11-30_22h46.31.996,vts_reward_expectancy_bt,2022.2.4,MacIntel,58.82352941,Safari,1440,900,,,,,0,666,,,,,,,,,,,,,,,,,F,181,star,1,0,,,,,,,,,,,,,,,,switch,letter,lettSwt,d,noRew,,,,,,0.749,0,4,0,4,0,1,,,,,,,,,,,,,,,,,
298303,2022-11-30_22h46.31.996,vts_reward_expectancy_bt,2022.2.4,MacIntel,58.82352941,Safari,1440,900,,,,,0,666,,,,,,,,,,,,,,,,,U,125,triangle,1,0,,,,,,,,,,,,,,,,switch,number,numSwt,j,noRew,,,,,,0.785,0,5,0,5,0,1,,,,,,,,,,,,,,,,,
298303,2022-11-30_22h46.31.996,vts_reward_expectancy_bt,2022.2.4,MacIntel,58.82352941,Safari,1440,900,,,,,0,666,,,,,,,,,,,,,,,,,D,146,star,0,0,,,,,,,,,,,,,,,,repeat,number,NA,k,noRew,,,,,,0.527,0,6,0,6,0,1,,,,,,,,,,,,,,,,,
298303,2022-11-30_22h46.31.996,vts_reward_expectancy_bt,2022.2.4,MacIntel,58.82352941,Safari,1440,900,,,,,0,666,,,,,,,,,,,,,,,,,W,174,hexagon,1,1,,,,,,,,,,,,,,,,repeat,number,numRpt,k,noRew,,,,,,0.86,0,7,0,7,0,1,,,,,,,,,,,,,,,,,
298303,2022-11-30_22h46.31.996,vts_reward_expectancy_bt,2022.2.4,MacIntel,58.82352941,Safari,1440,900,,,,,0,666,,,,,,,,,,,,,,,,,B,160,hexagon,1,0,,,,,,,,,,,,,,,,repeat,number,numRpt,k,noRew,,,,,,1.36,0,8,0,8,0,1,,,,,,,,,,,,,,,,,
298303,2022-11-30_22h46.31.996,vts_reward_expectancy_bt,2022.2.4,MacIntel,58.82352941,Safari,1440,900,,,,,0,666,,,,,,,,,,,,,,,,,W,181,triangle,1,0,,,,,,,,,,,,,,,,switch,letter,lettSwt,f,noRew,,,,,,0.797,0,9,0,9,0,1,,,,,,,,,,,,,,,,,
298303,2022-11-30_22h46.31.996,vts_reward_expectancy_bt,2022.2.4,MacIntel,58.82352941,Safari,1440,900,,,,,0,666,,,,,,,,,,,,,,,,,F,139,triangle,1,0,,,,,,,,,,,,,,,,repeat,letter,lettRpt,d,noRew,,,,,,0.677,0,10,0,10,0,1,,,,,,,,,,,,,,,,,
298303,2022-11-30_22h46.31.996,vts_reward_expectancy_bt,2022.2.4,MacIntel,58.82352941,Safari,1440,900,,,,,0,666,,,,,,,,,,,,,,,,,Y,125,star,1,0,,,,,,,,,,,,,,,,repeat,letter,lettRpt,f,noRew,,,,,,0.711,0,11,0,11,0,1,,,,,,,,,,,,,,,,,
298303,2022-11-30_22h46.31.996,vts_reward_expectancy_bt,2022.2.4,MacIntel,58.82352941,Safari,1440,900,,,,,0,666,,,,,,,,,,,,,,,,,B,160,circle,1,0,,,,,,,,,,,,,,,,repeat,letter,lettRpt,d,noRew,,,,,,0.671,0,12,0,12,0,1,,,,,,,,,,,,,,,,,
298303,2022-11-30_22h46.31.996,vts_reward_expectancy_bt,2022.2.4,MacIntel,58.82352941,Safari,1440,900,,,,,0,666,,,,,,,,,,,,,,,,,U,181,triangle,1,0,,,,,,,,,,,,,,,,switch,number,numSwt,k,noRew,,,,,,1.635,0,13,0,13,0,1,,,,,,,,,,,,,,,,,
298303,2022-11-30_22h46.31.996,vts_reward_expectancy_bt,2022.2.4,MacIntel,58.82352941,Safari,1440,900,,,,,0,666,,,,,,,,,,,,,,,,,H,167,circle,1,0,,,,,,,,,,,,,,,,switch,letter,lettSwt,d,noRew,,,,,,0.701,0,14,0,14,0,1,,,,,,,,,,,,,,,,,
298303,2022-11-30_22h46.31.996,vts_reward_expectancy_bt,2022.2.4,MacIntel,58.82352941,Safari,1440,900,,,,,0,666,,,,,,,,,,,,,,,,,S,139,star,1,0,,,,,,,,,,,,,,,,repeat,letter,lettRpt,f,noRew,,,,,,0.694,0,15,0,15,0,1,,,,,,,,,,,,,,,,,
298303,2022-11-30_22h46.31.996,vts_reward_expectancy_bt,2022.2.4,MacIntel,58.82352941,Safari,1440,900,,,,,0,666,,,,,,,,,,,,,,,,,D,160,circle,1,0,,,,,,,,,,,,,,,,repeat,letter,lettRpt,d,noRew,,,,,,0.861,0,16,0,16,0,1,,,,,,,,,,,,,,,,,
298303,2022-11-30_22h46.31.996,vts_reward_expectancy_bt,2022.2.4,MacIntel,58.82352941,Safari,1440,900,,,,,0,666,,,,,,,,,,,,,,,,,B,132,triangle,1,0,,,,,,,,,,,,,,,,repeat,letter,lettRpt,d,noRew,,,,,,2.127,0,17,0,17,0,1,,,,,,,,,,,,,,,,,
298303,2022-11-30_22h46.31.996,vts_reward_expectancy_bt,2022.2.4,MacIntel,58.82352941,Safari,1440,900,,,,,0,666,,,,,,,,,,,,,,,,,W,146,triangle,1,0,,,,,,,,,,,,,,,,repeat,letter,lettRpt,f,noRew,,,,,,1.96,0,18,0,18,0,1,,,,,,,,,,,,,,,,,
298303,2022-11-30_22h46.31.996,vts_reward_expectancy_bt,2022.2.4,MacIntel,58.82352941,Safari,1440,900,,,,,0,666,,,,,,,,,,,,,,,,,S,167,star,1,0,,,,,,,,,,,,,,,,switch,number,numSwt,k,noRew,,,,,,0.593,0,19,0,19,0,1,,,,,,,,,,,,,,,,,
298303,2022-11-30_22h46.31.996,vts_reward_expectancy_bt,2022.2.4,MacIntel,58.82352941,Safari,1440,900,,,,,0,666,,,,,,,,,,,,,,,,,F,146,circle,-1,0,,,,,,,,,,,,,,,,switch,no_choice,NA,,noRew,,,,,,,0,20,0,20,0,1,,,,,,,,,,,,,,,,,
298303,2022-11-30_22h46.31.996,vts_reward_expectancy_bt,2022.2.4,MacIntel,58.82352941,Safari,1440,900,,,,,0,666,,,,,,,,,,,,,,,,,D,125,triangle,1,0,,,,,,,,,,,,,,,,switch,letter,lettSwt,d,noRew,,,,,,0.616,0,21,0,21,0,1,,,,,,,,,,,,,,,,,
298303,2022-11-30_22h46.31.996,vts_reward_expectancy_bt,2022.2.4,MacIntel,58.82352941,Safari,1440,900,,,,,0,666,,,,,,,,,,,,,,,,,B,174,triangle,1,0,,,,,,,,,,,,,,,,repeat,letter,lettRpt,d,noRew,,,,,,0.593,0,22,0,22,0,1,,,,,,,,,,,,,,,,,
298303,2022-11-30_22h46.31.996,vts_reward_expectancy_bt,2022.2.4,MacIntel,58.82352941,Safari,1440,900,,,,,0,666,,,,,,,,,,,,,,,,,U,167,circle,1,0,,,,,,,,,,,,,,,,switch,number,numSwt,k,noRew,,,,,,1.594,0,23,0,23,0,1,,,,,,,,,,,,,,,,,
298303,2022-11-30_22h46.31.996,vts_reward_expectancy_bt,2022.2.4,MacIntel,58.82352941,Safari,1440,900,,,,,0,666,,,,,,,,,,,,,,,,,B,160,triangle,1,0,,,,,,,,,,,,,,,,switch,letter,lettSwt,d,noRew,,,,,,0.619,0,24,0,24,0,1,,,,,,,,,,,,,,,,,
298303,2022-11-30_22h46.31.996,vts_reward_expectancy_bt,2022.2.4,MacIntel,58.82352941,Safari,1440,900,,,,,0,666,,,,,,,,,,,,,,,,,W,125,star,1,0,,,,,,,,,,,,,,,,repeat,letter,lettRpt,f,noRew,,,,,,0.729,0,25,0,25,0,1,,,,,,,,,,,,,,,,,
298303,2022-11-30_22h46.31.996,vts_reward_expectancy_bt,2022.2.4,MacIntel,58.82352941,Safari,1440,900,,,,,0,666,,,,,,,,,,,,,,,,,H,167,star,1,0,,,,,,,,,,,,,,,,repeat,letter,lettRpt,d,noRew,,,,,,0.992,0,26,0,26,0,1,,,,,,,,,,,,,,,,,
298303,2022-11-30_22h46.31.996,vts_reward_expectancy_bt,2022.2.4,MacIntel,58.82352941,Safari,1440,900,,,,,0,666,,,,,,,,,,,,,,,,,D,139,circle,1,0,,,,,,,,,,,,,,,,switch,number,numSwt,j,noRew,,,,,,0.866,0,27,0,27,0,1,,,,,,,,,,,,,,,,,
298303,2022-11-30_22h46.31.996,vts_reward_expectancy_bt,2022.2.4,MacIntel,58.82352941,Safari,1440,900,,,,,0,666,,,,,,,,,,,,,,,,,S,174,circle,1,0,,,,,,,,,,,,,,,,switch,letter,lettSwt,f,noRew,,,,,,1.078,0,28,0,28,0,1,,,,,,,,,,,,,,,,,
298303,2022-11-30_22h46.31.996,vts_reward_expectancy_bt,2022.2.4,MacIntel,58.82352941,Safari,1440,900,,,,,0,666,,,,,,,,,,,,,,,,,D,132,triangle,1,0,,,,,,,,,,,,,,,,repeat,letter,lettRpt,d,noRew,,,,,,0.66,0,29,0,29,0,1,,,,,,,,,,,,,,,,,
298303,2022-11-30_22h46.31.996,vts_reward_expectancy_bt,2022.2.4,MacIntel,58.82352941,Safari,1440,900,,,,,0,666,,,,,,,,,,,,,,,,,W,125,triangle,1,0,,,,,,,,,,,,,,,,repeat,letter,lettRpt,f,noRew,,,,,,0.797,0,30,0,30,0,1,,,,,,,,,,,,,,,,,
298303,2022-11-30_22h46.31.996,vts_reward_expectancy_bt,2022.2.4,MacIntel,58.82352941,Safari,1440,900,,,,,0,666,,,,,,,,,,,,,,,,,Y,160,star,1,0,,,,,,,,,,,,,,,,repeat,letter,lettRpt,f,noRew,,,,,,0.876,0,31,0,31,0,1,,,,,,,,,,,,,,,,,
298303,2022-11-30_22h46.31.996,vts_reward_expectancy_bt,2022.2.4,MacIntel,58.82352941,Safari,1440,900,,,,,0,666,,,,,,,,,,,,,,,,,F,125,triangle,1,0,,,,,,,,,,,,,,,,repeat,letter,lettRpt,d,noRew,,,,,,0.734,0,32,0,32,0,1,,,,,,,,,,,,,,,,,
298303,2022-11-30_22h46.31.996,vts_reward_expectancy_bt,2022.2.4,MacIntel,58.82352941,Safari,1440,900,,,,,0,666,,,,,,,,,,,,,,,,,D,174,circle,1,0,,,,,,,,,,,,,,,,switch,number,numSwt,k,noRew,,,,,,0.8,0,33,0,33,0,1,,,,,,,,,,,,,,,,,
298303,2022-11-30_22h46.31.996,vts_reward_expectancy_bt,2022.2.4,MacIntel,58.82352941,Safari,1440,900,,,,,0,666,,,,,,,,,,,,,,,,,B,132,triangle,1,0,,,,,,,,,,,,,,,,repeat,number,numRpt,j,noRew,,,,,,1.009,0,34,0,34,0,1,,,,,,,,,,,,,,,,,
298303,2022-11-30_22h46.31.996,vts_reward_expectancy_bt,2022.2.4,MacIntel,58.82352941,Safari,1440,900,,,,,0,666,,,,,,,,,,,,,,,,,W,146,circle,1,0,,,,,,,,,,,,,,,,switch,letter,lettSwt,f,noRew,,,,,,0.866,0,35,0,35,0,1,,,,,,,,,,,,,,,,,
298303,2022-11-30_22h46.31.996,vts_reward_expectancy_bt,2022.2.4,MacIntel,58.82352941,Safari,1440,900,,,,,0,666,,,,,,,,,,,,,,,,,F,167,circle,1,0,,,,,,,,,,,,,,,,repeat,letter,lettRpt,d,noRew,,,,,,0.753,0,36,0,36,0,1,,,,,,,,,,,,,,,,,
298303,2022-11-30_22h46.31.996,vts_reward_expectancy_bt,2022.2.4,MacIntel,58.82352941,Safari,1440,900,,,,,0,666,,,,,,,,,,,,,,,,,B,146,hexagon,1,0,,,,,,,,,,,,,,,,repeat,letter,lettRpt,d,noRew,,,,,,0.627,0,37,0,37,0,1,,,,,,,,,,,,,,,,,
298303,2022-11-30_22h46.31.996,vts_reward_expectancy_bt,2022.2.4,MacIntel,58.82352941,Safari,1440,900,,,,,0,666,,,,,,,,,,,,,,,,,S,160,hexagon,1,0,,,,,,,,,,,,,,,,repeat,letter,lettRpt,f,noRew,,,,,,0.642,0,38,0,38,0,1,,,,,,,,,,,,,,,,,
298303,2022-11-30_22h46.31.996,vts_reward_expectancy_bt,2022.2.4,MacIntel,58.82352941,Safari,1440,900,,,,,0,666,,,,,,,,,,,,,,,,,U,174,star,1,0,,,,,,,,,,,,,,,,switch,number,numSwt,k,noRew,,,,,,1.514,0,39,0,39,0,1,,,,,,,,,,,,,,,,,
298303,2022-11-30_22h46.31.996,vts_reward_expectancy_bt,2022.2.4,MacIntel,58.82352941,Safari,1440,900,,,,,0,666,,,,,,,,,,,,,,,,,Y,160,circle,1,0,,,,,,,,,,,,,,,,switch,letter,lettSwt,f,noRew,,,,,,1.149,0,40,0,40,0,1,,,,,,,,,,,,,,,,,
298303,2022-11-30_22h46.31.996,vts_reward_expectancy_bt,2022.2.4,MacIntel,58.82352941,Safari,1440,900,,,,,0,666,,,,,,,,,,,,,,,,,W,139,triangle,1,0,,,,,,,,,,,,,,,,repeat,letter,lettRpt,f,noRew,,,,,,0.651,0,41,0,41,0,1,,,,,,,,,,,,,,,,,
298303,2022-11-30_22h46.31.996,vts_reward_expectancy_bt,2022.2.4,MacIntel,58.82352941,Safari,1440,900,,,,,0,666,,,,,,,,,,,,,,,,,U,174,star,1,0,,,,,,,,,,,,,,,,repeat,letter,lettRpt,f,noRew,,,,,,1.433,0,42,0,42,0,1,,,,,,,,,,,,,,,,,
298303,2022-11-30_22h46.31.996,vts_reward_expectancy_bt,2022.2.4,MacIntel,58.82352941,Safari,1440,900,,,,,0,666,,,,,,,,,,,,,,,,,H,125,circle,1,0,,,,,,,,,,,,,,,,switch,number,numSwt,j,noRew,,,,,,1.36,0,43,0,43,0,1,,,,,,,,,,,,,,,,,
298303,2022-11-30_22h46.31.996,vts_reward_expectancy_bt,2022.2.4,MacIntel,58.82352941,Safari,1440,900,,,,,0,666,,,,,,,,,,,,,,,,,B,139,star,1,0,,,,,,,,,,,,,,,,switch,letter,lettSwt,d,noRew,,,,,,0.843,0,44,0,44,0,1,,,,,,,,,,,,,,,,,
298303,2022-11-30_22h46.31.996,vts_reward_expectancy_bt,2022.2.4,MacIntel,58.82352941,Safari,1440,900,,,,,0,666,,,,,,,,,,,,,,,,,W,181,circle,1,0,,,,,,,,,,,,,,,,switch,number,numSwt,k,noRew,,,,,,0.81,0,45,0,45,0,1,,,,,,,,,,,,,,,,,
298303,2022-11-30_22h46.31.996,vts_reward_expectancy_bt,2022.2.4,MacIntel,58.82352941,Safari,1440,900,,,,,0,666,,,,,,,,,,,,,,,,,F,174,triangle,1,0,,,,,,,,,,,,,,,,repeat,number,numRpt,k,noRew,,,,,,0.83,0,46,0,46,0,1,,,,,,,,,,,,,,,,,
298303,2022-11-30_22h46.31.996,vts_reward_expectancy_bt,2022.2.4,MacIntel,58.82352941,Safari,1440,900,,,,,0,666,,,,,,,,,,,,,,,,,H,167,hexagon,1,0,,,,,,,,,,,,,,,,repeat,number,numRpt,k,noRew,,,,,,0.626,0,47,0,47,0,1,,,,,,,,,,,,,,,,,
298303,2022-11-30_22h46.31.996,vts_reward_expectancy_bt,2022.2.4,MacIntel,58.82352941,Safari,1440,900,,,,,0,666,,,,,,,,,,,,,,,,,B,181,hexagon,1,0,,,,,,,,,,,,,,,,repeat,number,numRpt,k,noRew,,,,,,0.603,0,48,0,48,0,1,,,,,,,,,,,,,,,,,
298303,2022-11-30_22h46.31.996,vts_reward_expectancy_bt,2022.2.4,MacIntel,58.82352941,Safari,1440,900,,,,,0,666,,,,,,,,,,,,,,,,,U,125,circle,1,0,,,,,,,,,,,,,,,,repeat,number,numRpt,j,noRew,,,,,,0.81,0,49,0,49,0,1,,,,,,,,,,,,,,,,,
298303,2022-11-30_22h46.31.996,vts_reward_expectancy_bt,2022.2.4,MacIntel,58.82352941,Safari,1440,900,,,,,0,666,,,,,,,,,,,,,,,,,W,160,hexagon,1,0,,,,,,,,,,,,,,,,repeat,number,numRpt,k,noRew,,,,,,0.727,0,50,0,50,0,1,,,,,,,,,,,,,,,,,
298303,2022-11-30_22h46.31.996,vts_reward_expectancy_bt,2022.2.4,MacIntel,58.82352941,Safari,1440,900,,,,,0,666,,,,,,,,,,,,,,,,,Y,174,star,1,0,,,,,,,,,,,,,,,,repeat,number,numRpt,k,noRew,,,,,,1.392,0,51,0,51,0,1,,,,,,,,,,,,,,,,,
298303,2022-11-30_22h46.31.996,vts_reward_expectancy_bt,2022.2.4,MacIntel,58.82352941,Safari,1440,900,,,,,0,666,,,,,,,,,,,,,,,,,W,174,circle,1,0,,,,,,,,,,,,,,,,repeat,number,numRpt,k,noRew,,,,,,1.335,0,52,0,52,0,1,,,,,,,,,,,,,,,,,
298303,2022-11-30_22h46.31.996,vts_reward_expectancy_bt,2022.2.4,MacIntel,58.82352941,Safari,1440,900,,,,,0,666,,,,,,,,,,,,,,,,,S,181,triangle,1,0,,,,,,,,,,,,,,,,switch,letter,lettSwt,f,noRew,,,,,,0.759,0,53,0,53,0,1,,,,,,,,,,,,,,,,,
298303,2022-11-30_22h46.31.996,vts_reward_expectancy_bt,2022.2.4,MacIntel,58.82352941,Safari,1440,900,,,,,0,666,,,,,,,,,,,,,,,,,Y,125,circle,1,0,,,,,,,,,,,,,,,,repeat,letter,lettRpt,f,noRew,,,,,,0.797,0,54,0,54,0,1,,,,,,,,,,,,,,,,,
298303,2022-11-30_22h46.31.996,vts_reward_expectancy_bt,2022.2.4,MacIntel,58.82352941,Safari,1440,900,,,,,0,666,,,,,,,,,,,,,,,,,D,146,triangle,1,0,,,,,,,,,,,,,,,,repeat,letter,lettRpt,d,noRew,,,,,,0.809,0,55,0,55,0,1,,,,,,,,,,,,,,,,,
298303,2022-11-30_22h46.31.996,vts_reward_expectancy_bt,2022.2.4,MacIntel,58.82352941,Safari,1440,900,,,,,0,666,,,,,,,,,,,,,,,,,D,125,triangle,1,0,,,,,,,,,,,,,,,,repeat,letter,lettRpt,d,noRew,,,,,,0.569,0,56,0,56,0,1,,,,,,,,,,,,,,,,,
298303,2022-11-30_22h46.31.996,vts_reward_expectancy_bt,2022.2.4,MacIntel,58.82352941,Safari,1440,900,,,,,0,666,,,,,,,,,,,,,,,,,S,167,circle,1,0,,,,,,,,,,,,,,,,switch,number,numSwt,k,noRew,,,,,,0.747,0,57,0,57,0,1,,,,,,,,,,,,,,,,,
298303,2022-11-30_22h46.31.996,vts_reward_expectancy_bt,2022.2.4,MacIntel,58.82352941,Safari,1440,900,,,,,0,666,,,,,,,,,,,,,,,,,F,146,hexagon,0,0,,,,,,,,,,,,,,,,repeat,number,NA,k,noRew,,,,,,0.685,0,58,0,58,0,1,,,,,,,,,,,,,,,,,
298303,2022-11-30_22h46.31.996,vts_reward_expectancy_bt,2022.2.4,MacIntel,58.82352941,Safari,1440,900,,,,,0,666,,,,,,,,,,,,,,,,,W,160,circle,1,1,,,,,,,,,,,,,,,,repeat,number,numRpt,k,noRew,,,,,,1.386,0,59,0,59,0,1,,,,,,,,,,,,,,,,,
298303,2022-11-30_22h46.31.996,vts_reward_expectancy_bt,2022.2.4,MacIntel,58.82352941,Safari,1440,900,,,,,0,666,,,,,,,,,,,,,,,,,F,181,triangle,1,0,,,,,,,,,,,,,,,,repeat,number,numRpt,k,noRew,,,,,,1.342,0,60,0,60,0,1,,,,,,,,,,,,,,,,,
298303,2022-11-30_22h46.31.996,vts_reward_expectancy_bt,2022.2.4,MacIntel,58.82352941,Safari,1440,900,,,,,0,666,,,,,,,,,,,,,,,,,B,160,star,1,0,,,,,,,,,,,,,,,,switch,letter,lettSwt,d,noRew,,,,,,0.726,0,61,0,61,0,1,,,,,,,,,,,,,,,,,
298303,2022-11-30_22h46.31.996,vts_reward_expectancy_bt,2022.2.4,MacIntel,58.82352941,Safari,1440,900,,,,,0,666,,,,,,,,,,,,,,,,,D,174,circle,1,0,,,,,,,,,,,,,,,,repeat,letter,lettRpt,d,noRew,,,,,,1.127,0,62,0,62,0,1,,,,,,,,,,,,,,,,,
298303,2022-11-30_22h46.31.996,vts_reward_expectancy_bt,2022.2.4,MacIntel,58.82352941,Safari,1440,900,,,,,0,666,,,,,,,,,,,,,,,,,W,132,triangle,1,0,,,,,,,,,,,,,,,,repeat,letter,lettRpt,f,noRew,,,,,,0.76,0,63,0,63,0,1,,,,,,,,,,,,,,,,,
298303,2022-11-30_22h46.31.996,vts_reward_expectancy_bt,2022.2.4,MacIntel,58.82352941,Safari,1440,900,,,,,,,,,,,,,,,,,,,,,,,,,,,,,,,,,,,,,,,,,,,,,,,,,,,,,,,,,,,,,,,,,,,,,,,,,,,,
298303,2022-11-30_22h46.31.996,vts_reward_expectancy_bt,2022.2.4,MacIntel,58.82352941,Safari,1440,900,,,,,0,666,,,,,,,,,,,,,,,,,H,139,star,1,0,,,,,,,,,,,,,,,,repeat,letter,lettRpt,d,Hi,,,,,,0.827,0,,,,,,space,5.474,high,0,0,0,0,1,,,,,,,,,
298303,2022-11-30_22h46.31.996,vts_reward_expectancy_bt,2022.2.4,MacIntel,58.82352941,Safari,1440,900,,,,,10,676,,,,,,,,,,,,,,,,,Y,174,circle,1,0,,,,,,,,,,,,,,,,repeat,letter,lettRpt,f,Hi,,,,,,0.659,0,,,,,,,,high,1,0,1,0,1,,,,,,,,,
298303,2022-11-30_22h46.31.996,vts_reward_expectancy_bt,2022.2.4,MacIntel,58.82352941,Safari,1440,900,,,,,10,686,,,,,,,,,,,,,,,,,B,146,triangle,1,0,,,,,,,,,,,,,,,,switch,number,numSwt,j,Lo,,,,,,0.827,0,,,,,,,,high,2,0,2,0,1,,,,,,,,,
298303,2022-11-30_22h46.31.996,vts_reward_expectancy_bt,2022.2.4,MacIntel,58.82352941,Safari,1440,900,,,,,1,687,,,,,,,,,,,,,,,,,S,181,hexagon,1,0,,,,,,,,,,,,,,,,switch,letter,lettSwt,f,Lo,,,,,,0.643,0,,,,,,,,high,3,0,3,0,1,,,,,,,,,
298303,2022-11-30_22h46.31.996,vts_reward_expectancy_bt,2022.2.4,MacIntel,58.82352941,Safari,1440,900,,,,,10,697,,,,,,,,,,,,,,,,,F,125,star,1,0,,,,,,,,,,,,,,,,repeat,letter,lettRpt,d,Hi,,,,,,0.564,0,,,,,,,,high,4,0,4,0,1,,,,,,,,,
298303,2022-11-30_22h46.31.996,vts_reward_expectancy_bt,2022.2.4,MacIntel,58.82352941,Safari,1440,900,,,,,10,707,,,,,,,,,,,,,,,,,D,160,circle,1,0,,,,,,,,,,,,,,,,repeat,letter,lettRpt,d,Hi,,,,,,0.593,0,,,,,,,,high,5,0,5,0,1,,,,,,,,,
298303,2022-11-30_22h46.31.996,vts_reward_expectancy_bt,2022.2.4,MacIntel,58.82352941,Safari,1440,900,,,,,1,708,,,,,,,,,,,,,,,,,U,132,triangle,1,0,,,,,,,,,,,,,,,,repeat,letter,lettRpt,f,Lo,,,,,,0.726,0,,,,,,,,high,6,0,6,0,1,,,,,,,,,
298303,2022-11-30_22h46.31.996,vts_reward_expectancy_bt,2022.2.4,MacIntel,58.82352941,Safari,1440,900,,,,,1,709,,,,,,,,,,,,,,,,,W,167,hexagon,1,0,,,,,,,,,,,,,,,,switch,number,numSwt,k,Lo,,,,,,0.736,0,,,,,,,,high,7,0,7,0,1,,,,,,,,,
298303,2022-11-30_22h46.31.996,vts_reward_expectancy_bt,2022.2.4,MacIntel,58.82352941,Safari,1440,900,,,,,10,719,,,,,,,,,,,,,,,,,H,139,circle,1,0,,,,,,,,,,,,,,,,repeat,number,numRpt,j,Hi,,,,,,0.792,0,,,,,,,,high,8,0,8,0,1,,,,,,,,,
298303,2022-11-30_22h46.31.996,vts_reward_expectancy_bt,2022.2.4,MacIntel,58.82352941,Safari,1440,900,,,,,0,719,,,,,,,,,,,,,,,,,Y,174,star,1,0,,,,,,,,,,,,,,,,repeat,number,numRpt,k,Hi,,,,,,0.863,0,,,,,,,,high,9,0,9,0,1,,,,,,,,,
298303,2022-11-30_22h46.31.996,vts_reward_expectancy_bt,2022.2.4,MacIntel,58.82352941,Safari,1440,900,,,,,0,719,,,,,,,,,,,,,,,,,B,146,triangle,0,0,,,,,,,,,,,,,,,,repeat,number,NA,k,Hi,,,,,,1.427,0,,,,,,,,high,10,0,10,0,1,,,,,,,,,
298303,2022-11-30_22h46.31.996,vts_reward_expectancy_bt,2022.2.4,MacIntel,58.82352941,Safari,1440,900,,,,,1,720,,,,,,,,,,,,,,,,,S,181,hexagon,1,1,,,,,,,,,,,,,,,,switch,letter,lettSwt,f,Lo,,,,,,0.833,0,,,,,,,,high,11,0,11,0,1,,,,,,,,,
298303,2022-11-30_22h46.31.996,vts_reward_expectancy_bt,2022.2.4,MacIntel,58.82352941,Safari,1440,900,,,,,1,721,,,,,,,,,,,,,,,,,F,125,triangle,1,0,,,,,,,,,,,,,,,,repeat,letter,lettRpt,d,Lo,,,,,,0.997,0,,,,,,,,high,12,0,12,0,1,,,,,,,,,
298303,2022-11-30_22h46.31.996,vts_reward_expectancy_bt,2022.2.4,MacIntel,58.82352941,Safari,1440,900,,,,,10,731,,,,,,,,,,,,,,,,,D,160,star,1,0,,,,,,,,,,,,,,,,repeat,letter,lettRpt,d,Hi,,,,,,0.694,0,,,,,,,,high,13,0,13,0,1,,,,,,,,,
298303,2022-11-30_22h46.31.996,vts_reward_expectancy_bt,2022.2.4,MacIntel,58.82352941,Safari,1440,900,,,,,10,741,,,,,,,,,,,,,,,,,U,132,circle,1,0,,,,,,,,,,,,,,,,repeat,letter,lettRpt,f,Hi,,,,,,0.66,0,,,,,,,,high,14,0,14,0,1,,,,,,,,,
298303,2022-11-30_22h46.31.996,vts_reward_expectancy_bt,2022.2.4,MacIntel,58.82352941,Safari,1440,900,,,,,10,751,,,,,,,,,,,,,,,,,W,167,hexagon,1,0,,,,,,,,,,,,,,,,switch,number,numSwt,k,Lo,,,,,,1.666,0,,,,,,,,high,15,0,15,0,1,,,,,,,,,
298303,2022-11-30_22h46.31.996,vts_reward_expectancy_bt,2022.2.4,MacIntel,58.82352941,Safari,1440,900,,,,,10,761,,,,,,,,,,,,,,,,,H,132,circle,1,0,,,,,,,,,,,,,,,,switch,letter,lettSwt,d,Hi,,,,,,0.719,0,,,,,,,,high,16,0,16,0,1,,,,,,,,,
298303,2022-11-30_22h46.31.996,vts_reward_expectancy_bt,2022.2.4,MacIntel,58.82352941,Safari,1440,900,,,,,10,771,,,,,,,,,,,,,,,,,U,146,triangle,1,0,,,,,,,,,,,,,,,,repeat,letter,lettRpt,f,Lo,,,,,,0.765,0,,,,,,,,high,17,0,17,0,1,,,,,,,,,
298303,2022-11-30_22h46.31.996,vts_reward_expectancy_bt,2022.2.4,MacIntel,58.82352941,Safari,1440,900,,,,,1,772,,,,,,,,,,,,,,,,,F,167,star,1,0,,,,,,,,,,,,,,,,repeat,letter,lettRpt,d,Hi,,,,,,0.577,0,,,,,,,,high,18,0,18,0,1,,,,,,,,,
298303,2022-11-30_22h46.31.996,vts_reward_expectancy_bt,2022.2.4,MacIntel,58.82352941,Safari,1440,900,,,,,1,773,,,,,,,,,,,,,,,,,W,139,hexagon,1,0,,,,,,,,,,,,,,,,switch,number,numSwt,j,Lo,,,,,,0.945,0,,,,,,,,high,19,0,19,0,1,,,,,,,,,
298303,2022-11-30_22h46.31.996,vts_reward_expectancy_bt,2022.2.4,MacIntel,58.82352941,Safari,1440,900,,,,,0,773,,,,,,,,,,,,,,,,,Y,174,star,1,0,,,,,,,,,,,,,,,,switch,letter,lettSwt,f,Hi,,,,,,0.891,0,,,,,,,,high,20,0,20,0,1,,,,,,,,,
298303,2022-11-30_22h46.31.996,vts_reward_expectancy_bt,2022.2.4,MacIntel,58.82352941,Safari,1440,900,,,,,10,783,,,,,,,,,,,,,,,,,S,160,triangle,1,0,,,,,,,,,,,,,,,,repeat,letter,lettRpt,f,Lo,,,,,,0.716,0,,,,,,,,high,21,0,21,0,1,,,,,,,,,
298303,2022-11-30_22h46.31.996,vts_reward_expectancy_bt,2022.2.4,MacIntel,58.82352941,Safari,1440,900,,,,,0,783,,,,,,,,,,,,,,,,,D,125,circle,1,0,,,,,,,,,,,,,,,,repeat,letter,lettRpt,d,Hi,,,,,,0.843,0,,,,,,,,high,22,0,22,0,1,,,,,,,,,
298303,2022-11-30_22h46.31.996,vts_reward_expectancy_bt,2022.2.4,MacIntel,58.82352941,Safari,1440,900,,,,,1,784,,,,,,,,,,,,,,,,,B,181,hexagon,1,0,,,,,,,,,,,,,,,,repeat,letter,lettRpt,d,Lo,,,,,,0.508,0,,,,,,,,high,23,0,23,0,1,,,,,,,,,
298303,2022-11-30_22h46.31.996,vts_reward_expectancy_bt,2022.2.4,MacIntel,58.82352941,Safari,1440,900,,,,,1,785,,,,,,,,,,,,,,,,,D,160,hexagon,1,0,,,,,,,,,,,,,,,,repeat,letter,lettRpt,d,Lo,,,,,,0.511,0,,,,,,,,high,24,0,24,0,1,,,,,,,,,
298303,2022-11-30_22h46.31.996,vts_reward_expectancy_bt,2022.2.4,MacIntel,58.82352941,Safari,1440,900,,,,,0,785,,,,,,,,,,,,,,,,,W,146,star,0,0,,,,,,,,,,,,,,,,repeat,letter,NA,d,Lo,,,,,,1.064,0,,,,,,,,high,25,0,25,0,1,,,,,,,,,
298303,2022-11-30_22h46.31.996,vts_reward_expectancy_bt,2022.2.4,MacIntel,58.82352941,Safari,1440,900,,,,,0,785,,,,,,,,,,,,,,,,,F,174,circle,1,1,,,,,,,,,,,,,,,,repeat,letter,lettRpt,d,Hi,,,,,,0.711,0,,,,,,,,high,26,0,26,0,1,,,,,,,,,
298303,2022-11-30_22h46.31.996,vts_reward_expectancy_bt,2022.2.4,MacIntel,58.82352941,Safari,1440,900,,,,,1,786,,,,,,,,,,,,,,,,,B,167,triangle,1,0,,,,,,,,,,,,,,,,repeat,letter,lettRpt,d,Lo,,,,,,0.501,0,,,,,,,,high,27,0,27,0,1,,,,,,,,,
298303,2022-11-30_22h46.31.996,vts_reward_expectancy_bt,2022.2.4,MacIntel,58.82352941,Safari,1440,900,,,,,10,796,,,,,,,,,,,,,,,,,H,125,circle,1,0,,,,,,,,,,,,,,,,repeat,letter,lettRpt,d,Hi,,,,,,0.56,0,,,,,,,,high,28,0,28,0,1,,,,,,,,,
298303,2022-11-30_22h46.31.996,vts_reward_expectancy_bt,2022.2.4,MacIntel,58.82352941,Safari,1440,900,,,,,1,797,,,,,,,,,,,,,,,,,S,139,hexagon,1,0,,,,,,,,,,,,,,,,repeat,letter,lettRpt,f,Lo,,,,,,0.997,0,,,,,,,,high,29,0,29,0,1,,,,,,,,,
298303,2022-11-30_22h46.31.996,vts_reward_expectancy_bt,2022.2.4,MacIntel,58.82352941,Safari,1440,900,,,,,1,798,,,,,,,,,,,,,,,,,Y,181,triangle,1,0,,,,,,,,,,,,,,,,repeat,letter,lettRpt,f,Lo,,,,,,1.036,0,,,,,,,,high,30,0,30,0,1,,,,,,,,,
298303,2022-11-30_22h46.31.996,vts_reward_expectancy_bt,2022.2.4,MacIntel,58.82352941,Safari,1440,900,,,,,0,798,,,,,,,,,,,,,,,,,U,132,star,1,0,,,,,,,,,,,,,,,,repeat,letter,lettRpt,f,Hi,,,,,,0.798,0,,,,,,,,high,31,0,31,0,1,,,,,,,,,
298303,2022-11-30_22h46.31.996,vts_reward_expectancy_bt,2022.2.4,MacIntel,58.82352941,Safari,1440,900,,,,,1,799,,,,,,,,,,,,,,,,,Y,139,hexagon,1,0,,,,,,,,,,,,,,,,repeat,letter,lettRpt,f,Lo,,,,,,1.326,1,,,,,,space,3.085,high,0,0,0,0,1,,,,,,,,,
298303,2022-11-30_22h46.31.996,vts_reward_expectancy_bt,2022.2.4,MacIntel,58.82352941,Safari,1440,900,,,,,10,809,,,,,,,,,,,,,,,,,D,181,star,1,0,,,,,,,,,,,,,,,,repeat,letter,lettRpt,d,Hi,,,,,,0.609,1,,,,,,,,high,1,0,1,0,1,,,,,,,,,
298303,2022-11-30_22h46.31.996,vts_reward_expectancy_bt,2022.2.4,MacIntel,58.82352941,Safari,1440,900,,,,,0,809,,,,,,,,,,,,,,,,,F,174,circle,1,0,,,,,,,,,,,,,,,,repeat,letter,lettRpt,d,Hi,,,,,,0.665,1,,,,,,,,high,2,0,2,0,1,,,,,,,,,
298303,2022-11-30_22h46.31.996,vts_reward_expectancy_bt,2022.2.4,MacIntel,58.82352941,Safari,1440,900,,,,,0,809,,,,,,,,,,,,,,,,,S,167,triangle,0,0,,,,,,,,,,,,,,,,repeat,letter,NA,d,Hi,,,,,,0.561,1,,,,,,,,high,3,0,3,0,1,,,,,,,,,
298303,2022-11-30_22h46.31.996,vts_reward_expectancy_bt,2022.2.4,MacIntel,58.82352941,Safari,1440,900,,,,,1,810,,,,,,,,,,,,,,,,,U,146,hexagon,1,1,,,,,,,,,,,,,,,,repeat,letter,lettRpt,f,Lo,,,,,,0.676,1,,,,,,,,high,4,0,4,0,1,,,,,,,,,
298303,2022-11-30_22h46.31.996,vts_reward_expectancy_bt,2022.2.4,MacIntel,58.82352941,Safari,1440,900,,,,,0,810,,,,,,,,,,,,,,,,,H,132,star,1,0,,,,,,,,,,,,,,,,repeat,letter,lettRpt,d,Hi,,,,,,0.677,1,,,,,,,,high,5,0,5,0,1,,,,,,,,,
298303,2022-11-30_22h46.31.996,vts_reward_expectancy_bt,2022.2.4,MacIntel,58.82352941,Safari,1440,900,,,,,0,810,,,,,,,,,,,,,,,,,W,160,circle,1,0,,,,,,,,,,,,,,,,repeat,letter,lettRpt,f,Hi,,,,,,1.16,1,,,,,,,,high,6,0,6,0,1,,,,,,,,,
298303,2022-11-30_22h46.31.996,vts_reward_expectancy_bt,2022.2.4,MacIntel,58.82352941,Safari,1440,900,,,,,10,820,,,,,,,,,,,,,,,,,B,125,triangle,1,0,,,,,,,,,,,,,,,,repeat,letter,lettRpt,d,Lo,,,,,,0.578,1,,,,,,,,high,7,0,7,0,1,,,,,,,,,
298303,2022-11-30_22h46.31.996,vts_reward_expectancy_bt,2022.2.4,MacIntel,58.82352941,Safari,1440,900,,,,,0,820,,,,,,,,,,,,,,,,,Y,139,star,1,0,,,,,,,,,,,,,,,,repeat,letter,lettRpt,f,Hi,,,,,,0.743,1,,,,,,,,high,8,0,8,0,1,,,,,,,,,
298303,2022-11-30_22h46.31.996,vts_reward_expectancy_bt,2022.2.4,MacIntel,58.82352941,Safari,1440,900,,,,,1,821,,,,,,,,,,,,,,,,,D,181,hexagon,1,0,,,,,,,,,,,,,,,,repeat,letter,lettRpt,d,Lo,,,,,,0.677,1,,,,,,,,high,9,0,9,0,1,,,,,,,,,
298303,2022-11-30_22h46.31.996,vts_reward_expectancy_bt,2022.2.4,MacIntel,58.82352941,Safari,1440,900,,,,,0,821,,,,,,,,,,,,,,,,,F,174,circle,1,0,,,,,,,,,,,,,,,,repeat,letter,lettRpt,d,Hi,,,,,,0.715,1,,,,,,,,high,10,0,10,0,1,,,,,,,,,
298303,2022-11-30_22h46.31.996,vts_reward_expectancy_bt,2022.2.4,MacIntel,58.82352941,Safari,1440,900,,,,,1,822,,,,,,,,,,,,,,,,,S,167,triangle,1,0,,,,,,,,,,,,,,,,repeat,letter,lettRpt,f,Lo,,,,,,0.626,1,,,,,,,,high,11,0,11,0,1,,,,,,,,,
298303,2022-11-30_22h46.31.996,vts_reward_expectancy_bt,2022.2.4,MacIntel,58.82352941,Safari,1440,900,,,,,10,832,,,,,,,,,,,,,,,,,U,146,hexagon,1,0,,,,,,,,,,,,,,,,repeat,letter,lettRpt,f,Lo,,,,,,0.569,1,,,,,,,,high,12,0,12,0,1,,,,,,,,,
298303,2022-11-30_22h46.31.996,vts_reward_expectancy_bt,2022.2.4,MacIntel,58.82352941,Safari,1440,900,,,,,1,833,,,,,,,,,,,,,,,,,H,132,star,1,0,,,,,,,,,,,,,,,,repeat,letter,lettRpt,d,Hi,,,,,,0.594,1,,,,,,,,high,13,0,13,0,1,,,,,,,,,
298303,2022-11-30_22h46.31.996,vts_reward_expectancy_bt,2022.2.4,MacIntel,58.82352941,Safari,1440,900,,,,,10,843,,,,,,,,,,,,,,,,,W,160,circle,1,0,,,,,,,,,,,,,,,,switch,number,numSwt,k,Hi,,,,,,0.811,1,,,,,,,,high,14,0,14,0,1,,,,,,,,,
298303,2022-11-30_22h46.31.996,vts_reward_expectancy_bt,2022.2.4,MacIntel,58.82352941,Safari,1440,900,,,,,10,853,,,,,,,,,,,,,,,,,B,125,triangle,1,0,,,,,,,,,,,,,,,,repeat,number,numRpt,j,Lo,,,,,,0.777,1,,,,,,,,high,15,0,15,0,1,,,,,,,,,
298303,2022-11-30_22h46.31.996,vts_reward_expectancy_bt,2022.2.4,MacIntel,58.82352941,Safari,1440,900,,,,,1,854,,,,,,,,,,,,,,,,,H,132,triangle,1,0,,,,,,,,,,,,,,,,repeat,number,numRpt,j,Lo,,,,,,0.893,1,,,,,,,,high,16,0,16,0,1,,,,,,,,,
298303,2022-11-30_22h46.31.996,vts_reward_expectancy_bt,2022.2.4,MacIntel,58.82352941,Safari,1440,900,,,,,0,854,,,,,,,,,,,,,,,,,B,181,circle,1,0,,,,,,,,,,,,,,,,switch,letter,lettSwt,d,Hi,,,,,,0.742,1,,,,,,,,high,17,0,17,0,1,,,,,,,,,
298303,2022-11-30_22h46.31.996,vts_reward_expectancy_bt,2022.2.4,MacIntel,58.82352941,Safari,1440,900,,,,,0,854,,,,,,,,,,,,,,,,,F,125,star,1,0,,,,,,,,,,,,,,,,repeat,letter,lettRpt,d,Hi,,,,,,0.651,1,,,,,,,,high,18,0,18,0,1,,,,,,,,,
298303,2022-11-30_22h46.31.996,vts_reward_expectancy_bt,2022.2.4,MacIntel,58.82352941,Safari,1440,900,,,,,1,855,,,,,,,,,,,,,,,,,W,167,hexagon,1,0,,,,,,,,,,,,,,,,repeat,letter,lettRpt,f,Lo,,,,,,0.51,1,,,,,,,,high,19,0,19,0,1,,,,,,,,,
298303,2022-11-30_22h46.31.996,vts_reward_expectancy_bt,2022.2.4,MacIntel,58.82352941,Safari,1440,900,,,,,1,856,,,,,,,,,,,,,,,,,Y,146,star,1,0,,,,,,,,,,,,,,,,repeat,letter,lettRpt,f,Hi,,,,,,0.601,1,,,,,,,,high,20,0,20,0,1,,,,,,,,,
298303,2022-11-30_22h46.31.996,vts_reward_expectancy_bt,2022.2.4,MacIntel,58.82352941,Safari,1440,900,,,,,1,857,,,,,,,,,,,,,,,,,U,139,triangle,1,0,,,,,,,,,,,,,,,,repeat,letter,lettRpt,f,Lo,,,,,,0.66,1,,,,,,,,high,21,0,21,0,1,,,,,,,,,
298303,2022-11-30_22h46.31.996,vts_reward_expectancy_bt,2022.2.4,MacIntel,58.82352941,Safari,1440,900,,,,,1,858,,,,,,,,,,,,,,,,,D,160,hexagon,1,0,,,,,,,,,,,,,,,,repeat,letter,lettRpt,d,Lo,,,,,,0.662,1,,,,,,,,high,22,0,22,0,1,,,,,,,,,
298303,2022-11-30_22h46.31.996,vts_reward_expectancy_bt,2022.2.4,MacIntel,58.82352941,Safari,1440,900,,,,,0,858,,,,,,,,,,,,,,,,,S,174,circle,1,0,,,,,,,,,,,,,,,,repeat,letter,lettRpt,f,Hi,,,,,,0.627,1,,,,,,,,high,23,0,23,0,1,,,,,,,,,
298303,2022-11-30_22h46.31.996,vts_reward_expectancy_bt,2022.2.4,MacIntel,58.82352941,Safari,1440,900,,,,,1,859,,,,,,,,,,,,,,,,,Y,132,hexagon,1,0,,,,,,,,,,,,,,,,repeat,letter,lettRpt,f,Lo,,,,,,0.709,1,,,,,,,,high,24,0,24,0,1,,,,,,,,,
298303,2022-11-30_22h46.31.996,vts_reward_expectancy_bt,2022.2.4,MacIntel,58.82352941,Safari,1440,900,,,,,10,869,,,,,,,,,,,,,,,,,B,160,circle,1,0,,,,,,,,,,,,,,,,repeat,letter,lettRpt,d,Hi,,,,,,0.559,1,,,,,,,,high,25,0,25,0,1,,,,,,,,,
298303,2022-11-30_22h46.31.996,vts_reward_expectancy_bt,2022.2.4,MacIntel,58.82352941,Safari,1440,900,,,,,0,869,,,,,,,,,,,,,,,,,S,174,triangle,0,0,,,,,,,,,,,,,,,,repeat,letter,NA,d,Hi,,,,,,0.625,1,,,,,,,,high,26,0,26,0,1,,,,,,,,,
298303,2022-11-30_22h46.31.996,vts_reward_expectancy_bt,2022.2.4,MacIntel,58.82352941,Safari,1440,900,,,,,0,869,,,,,,,,,,,,,,,,,U,125,star,1,1,,,,,,,,,,,,,,,,repeat,letter,lettRpt,f,Hi,,,,,,0.693,1,,,,,,,,high,27,0,27,0,1,,,,,,,,,
298303,2022-11-30_22h46.31.996,vts_reward_expectancy_bt,2022.2.4,MacIntel,58.82352941,Safari,1440,900,,,,,0,869,,,,,,,,,,,,,,,,,F,139,star,1,0,,,,,,,,,,,,,,,,repeat,letter,lettRpt,d,Hi,,,,,,1.576,1,,,,,,,,high,28,0,28,0,1,,,,,,,,,
298303,2022-11-30_22h46.31.996,vts_reward_expectancy_bt,2022.2.4,MacIntel,58.82352941,Safari,1440,900,,,,,10,879,,,,,,,,,,,,,,,,,D,181,circle,1,0,,,,,,,,,,,,,,,,repeat,letter,lettRpt,d,Hi,,,,,,0.469,1,,,,,,,,high,29,0,29,0,1,,,,,,,,,
298303,2022-11-30_22h46.31.996,vts_reward_expectancy_bt,2022.2.4,MacIntel,58.82352941,Safari,1440,900,,,,,10,889,,,,,,,,,,,,,,,,,H,146,triangle,1,0,,,,,,,,,,,,,,,,repeat,letter,lettRpt,d,Lo,,,,,,0.581,1,,,,,,,,high,30,0,30,0,1,,,,,,,,,
298303,2022-11-30_22h46.31.996,vts_reward_expectancy_bt,2022.2.4,MacIntel,58.82352941,Safari,1440,900,,,,,1,890,,,,,,,,,,,,,,,,,W,167,hexagon,1,0,,,,,,,,,,,,,,,,repeat,letter,lettRpt,f,Lo,,,,,,0.661,1,,,,,,,,high,31,0,31,0,1,,,,,,,,,
298303,2022-11-30_22h46.31.996,vts_reward_expectancy_bt,2022.2.4,MacIntel,58.82352941,Safari,1440,900,,,,,0,890,,,,,,,,,,,,,,,,,Y,146,star,1,0,,,,,,,,,,,,,,,,repeat,letter,lettRpt,f,Hi,,,,,,0.744,2,,,,,,space,0.921,high,0,0,0,0,1,,,,,,,,,
298303,2022-11-30_22h46.31.996,vts_reward_expectancy_bt,2022.2.4,MacIntel,58.82352941,Safari,1440,900,,,,,0,890,,,,,,,,,,,,,,,,,W,174,hexagon,0,0,,,,,,,,,,,,,,,,repeat,letter,NA,d,Hi,,,,,,0.667,2,,,,,,,,high,1,0,1,0,1,,,,,,,,,
298303,2022-11-30_22h46.31.996,vts_reward_expectancy_bt,2022.2.4,MacIntel,58.82352941,Safari,1440,900,,,,,1,891,,,,,,,,,,,,,,,,,B,181,triangle,1,1,,,,,,,,,,,,,,,,repeat,letter,lettRpt,d,Lo,,,,,,0.602,2,,,,,,,,high,2,0,2,0,1,,,,,,,,,
298303,2022-11-30_22h46.31.996,vts_reward_expectancy_bt,2022.2.4,MacIntel,58.82352941,Safari,1440,900,,,,,0,891,,,,,,,,,,,,,,,,,U,139,circle,1,0,,,,,,,,,,,,,,,,repeat,letter,lettRpt,f,Hi,,,,,,0.766,2,,,,,,,,high,3,0,3,0,1,,,,,,,,,
298303,2022-11-30_22h46.31.996,vts_reward_expectancy_bt,2022.2.4,MacIntel,58.82352941,Safari,1440,900,,,,,10,901,,,,,,,,,,,,,,,,,D,125,star,1,0,,,,,,,,,,,,,,,,switch,number,numSwt,j,Hi,,,,,,0.677,2,,,,,,,,high,4,0,4,0,1,,,,,,,,,
298303,2022-11-30_22h46.31.996,vts_reward_expectancy_bt,2022.2.4,MacIntel,58.82352941,Safari,1440,900,,,,,1,902,,,,,,,,,,,,,,,,,H,160,hexagon,1,0,,,,,,,,,,,,,,,,repeat,number,numRpt,k,Lo,,,,,,0.562,2,,,,,,,,high,5,0,5,0,1,,,,,,,,,
298303,2022-11-30_22h46.31.996,vts_reward_expectancy_bt,2022.2.4,MacIntel,58.82352941,Safari,1440,900,,,,,0,902,,,,,,,,,,,,,,,,,F,167,triangle,0,0,,,,,,,,,,,,,,,,repeat,number,NA,j,Lo,,,,,,0.66,2,,,,,,,,high,6,0,6,0,1,,,,,,,,,
298303,2022-11-30_22h46.31.996,vts_reward_expectancy_bt,2022.2.4,MacIntel,58.82352941,Safari,1440,900,,,,,10,912,,,,,,,,,,,,,,,,,S,132,circle,1,1,,,,,,,,,,,,,,,,repeat,number,numRpt,j,Hi,,,,,,0.746,2,,,,,,,,high,7,0,7,0,1,,,,,,,,,
298303,2022-11-30_22h46.31.996,vts_reward_expectancy_bt,2022.2.4,MacIntel,58.82352941,Safari,1440,900,,,,,0,912,,,,,,,,,,,,,,,,,Y,146,star,1,0,,,,,,,,,,,,,,,,repeat,number,numRpt,j,Hi,,,,,,1.403,2,,,,,,,,high,8,0,8,0,1,,,,,,,,,
298303,2022-11-30_22h46.31.996,vts_reward_expectancy_bt,2022.2.4,MacIntel,58.82352941,Safari,1440,900,,,,,1,913,,,,,,,,,,,,,,,,,W,174,triangle,1,0,,,,,,,,,,,,,,,,repeat,number,numRpt,k,Lo,,,,,,0.664,2,,,,,,,,high,9,0,9,0,1,,,,,,,,,
298303,2022-11-30_22h46.31.996,vts_reward_expectancy_bt,2022.2.4,MacIntel,58.82352941,Safari,1440,900,,,,,0,913,,,,,,,,,,,,,,,,,B,181,circle,0,0,,,,,,,,,,,,,,,,repeat,number,NA,j,Lo,,,,,,0.748,2,,,,,,,,high,10,0,10,0,1,,,,,,,,,
298303,2022-11-30_22h46.31.996,vts_reward_expectancy_bt,2022.2.4,MacIntel,58.82352941,Safari,1440,900,,,,,10,923,,,,,,,,,,,,,,,,,U,139,hexagon,1,1,,,,,,,,,,,,,,,,switch,letter,lettSwt,f,Lo,,,,,,0.86,2,,,,,,,,high,11,0,11,0,1,,,,,,,,,
298303,2022-11-30_22h46.31.996,vts_reward_expectancy_bt,2022.2.4,MacIntel,58.82352941,Safari,1440,900,,,,,1,924,,,,,,,,,,,,,,,,,D,125,hexagon,1,0,,,,,,,,,,,,,,,,repeat,letter,lettRpt,d,Lo,,,,,,0.618,2,,,,,,,,high,12,0,12,0,1,,,,,,,,,
298303,2022-11-30_22h46.31.996,vts_reward_expectancy_bt,2022.2.4,MacIntel,58.82352941,Safari,1440,900,,,,,0,924,,,,,,,,,,,,,,,,,H,160,circle,1,0,,,,,,,,,,,,,,,,switch,number,numSwt,k,Hi,,,,,,0.985,2,,,,,,,,high,13,0,13,0,1,,,,,,,,,
298303,2022-11-30_22h46.31.996,vts_reward_expectancy_bt,2022.2.4,MacIntel,58.82352941,Safari,1440,900,,,,,1,925,,,,,,,,,,,,,,,,,F,167,triangle,1,0,,,,,,,,,,,,,,,,switch,letter,lettSwt,d,Lo,,,,,,1.726,2,,,,,,,,high,14,0,14,0,1,,,,,,,,,
298303,2022-11-30_22h46.31.996,vts_reward_expectancy_bt,2022.2.4,MacIntel,58.82352941,Safari,1440,900,,,,,0,925,,,,,,,,,,,,,,,,,S,132,star,1,0,,,,,,,,,,,,,,,,switch,number,numSwt,j,Hi,,,,,,0.918,2,,,,,,,,high,15,0,15,0,1,,,,,,,,,
298303,2022-11-30_22h46.31.996,vts_reward_expectancy_bt,2022.2.4,MacIntel,58.82352941,Safari,1440,900,,,,,1,926,,,,,,,,,,,,,,,,,U,174,hexagon,1,0,,,,,,,,,,,,,,,,repeat,number,numRpt,k,Lo,,,,,,0.927,2,,,,,,,,high,16,0,16,0,1,,,,,,,,,
298303,2022-11-30_22h46.31.996,vts_reward_expectancy_bt,2022.2.4,MacIntel,58.82352941,Safari,1440,900,,,,,1,927,,,,,,,,,,,,,,,,,Y,132,triangle,1,0,,,,,,,,,,,,,,,,repeat,number,numRpt,j,Lo,,,,,,0.65,2,,,,,,,,high,17,0,17,0,1,,,,,,,,,
298303,2022-11-30_22h46.31.996,vts_reward_expectancy_bt,2022.2.4,MacIntel,58.82352941,Safari,1440,900,,,,,0,927,,,,,,,,,,,,,,,,,H,146,circle,0,0,,,,,,,,,,,,,,,,repeat,number,NA,k,Lo,,,,,,0.776,2,,,,,,,,high,18,0,18,0,1,,,,,,,,,
298303,2022-11-30_22h46.31.996,vts_reward_expectancy_bt,2022.2.4,MacIntel,58.82352941,Safari,1440,900,,,,,10,937,,,,,,,,,,,,,,,,,S,167,star,1,1,,,,,,,,,,,,,,,,repeat,number,numRpt,k,Hi,,,,,,0.603,2,,,,,,,,high,19,0,19,0,1,,,,,,,,,
298303,2022-11-30_22h46.31.996,vts_reward_expectancy_bt,2022.2.4,MacIntel,58.82352941,Safari,1440,900,,,,,10,947,,,,,,,,,,,,,,,,,D,125,star,1,0,,,,,,,,,,,,,,,,repeat,number,numRpt,j,Hi,,,,,,0.693,2,,,,,,,,high,20,0,20,0,1,,,,,,,,,
298303,2022-11-30_22h46.31.996,vts_reward_expectancy_bt,2022.2.4,MacIntel,58.82352941,Safari,1440,900,,,,,1,948,,,,,,,,,,,,,,,,,W,181,triangle,1,0,,,,,,,,,,,,,,,,repeat,number,numRpt,k,Lo,,,,,,0.477,2,,,,,,,,high,21,0,21,0,1,,,,,,,,,
298303,2022-11-30_22h46.31.996,vts_reward_expectancy_bt,2022.2.4,MacIntel,58.82352941,Safari,1440,900,,,,,10,958,,,,,,,,,,,,,,,,,F,139,circle,1,0,,,,,,,,,,,,,,,,repeat,number,numRpt,j,Hi,,,,,,0.7,2,,,,,,,,high,22,0,22,0,1,,,,,,,,,
298303,2022-11-30_22h46.31.996,vts_reward_expectancy_bt,2022.2.4,MacIntel,58.82352941,Safari,1440,900,,,,,1,959,,,,,,,,,,,,,,,,,B,160,hexagon,1,0,,,,,,,,,,,,,,,,repeat,number,numRpt,k,Lo,,,,,,0.71,2,,,,,,,,high,23,0,23,0,1,,,,,,,,,
298303,2022-11-30_22h46.31.996,vts_reward_expectancy_bt,2022.2.4,MacIntel,58.82352941,Safari,1440,900,,,,,10,969,,,,,,,,,,,,,,,,,Y,132,star,1,0,,,,,,,,,,,,,,,,repeat,number,numRpt,j,Hi,,,,,,0.686,2,,,,,,,,high,24,0,24,0,1,,,,,,,,,
298303,2022-11-30_22h46.31.996,vts_reward_expectancy_bt,2022.2.4,MacIntel,58.82352941,Safari,1440,900,,,,,10,979,,,,,,,,,,,,,,,,,S,160,circle,1,0,,,,,,,,,,,,,,,,repeat,number,numRpt,k,Hi,,,,,,0.543,2,,,,,,,,high,25,0,25,0,1,,,,,,,,,
298303,2022-11-30_22h46.31.996,vts_reward_expectancy_bt,2022.2.4,MacIntel,58.82352941,Safari,1440,900,,,,,1,980,,,,,,,,,,,,,,,,,F,125,triangle,1,0,,,,,,,,,,,,,,,,repeat,number,numRpt,j,Lo,,,,,,0.727,2,,,,,,,,high,26,0,26,0,1,,,,,,,,,
298303,2022-11-30_22h46.31.996,vts_reward_expectancy_bt,2022.2.4,MacIntel,58.82352941,Safari,1440,900,,,,,0,980,,,,,,,,,,,,,,,,,H,146,hexagon,0,0,,,,,,,,,,,,,,,,repeat,number,NA,k,Lo,,,,,,0.612,2,,,,,,,,high,27,0,27,0,1,,,,,,,,,
298303,2022-11-30_22h46.31.996,vts_reward_expectancy_bt,2022.2.4,MacIntel,58.82352941,Safari,1440,900,,,,,1,981,,,,,,,,,,,,,,,,,D,139,star,1,1,,,,,,,,,,,,,,,,repeat,number,numRpt,j,Hi,,,,,,0.744,2,,,,,,,,high,28,0,28,0,1,,,,,,,,,
298303,2022-11-30_22h46.31.996,vts_reward_expectancy_bt,2022.2.4,MacIntel,58.82352941,Safari,1440,900,,,,,0,981,,,,,,,,,,,,,,,,,U,174,circle,1,0,,,,,,,,,,,,,,,,repeat,number,numRpt,k,Hi,,,,,,1.265,2,,,,,,,,high,29,0,29,0,1,,,,,,,,,
298303,2022-11-30_22h46.31.996,vts_reward_expectancy_bt,2022.2.4,MacIntel,58.82352941,Safari,1440,900,,,,,1,982,,,,,,,,,,,,,,,,,B,181,triangle,1,0,,,,,,,,,,,,,,,,repeat,number,numRpt,k,Lo,,,,,,0.67,2,,,,,,,,high,30,0,30,0,1,,,,,,,,,
298303,2022-11-30_22h46.31.996,vts_reward_expectancy_bt,2022.2.4,MacIntel,58.82352941,Safari,1440,900,,,,,1,983,,,,,,,,,,,,,,,,,W,167,hexagon,1,0,,,,,,,,,,,,,,,,repeat,number,numRpt,k,Lo,,,,,,1.308,2,,,,,,,,high,31,0,31,0,1,,,,,,,,,
298303,2022-11-30_22h46.31.996,vts_reward_expectancy_bt,2022.2.4,MacIntel,58.82352941,Safari,1440,900,,,,,1,984,,,,,,,,,,,,,,,,,U,125,hexagon,1,0,,,,,,,,,,,,,,,,switch,letter,lettSwt,f,Lo,,,,,,0.649,3,,,,,,space,1.245,high,0,0,0,0,1,,,,,,,,,
298303,2022-11-30_22h46.31.996,vts_reward_expectancy_bt,2022.2.4,MacIntel,58.82352941,Safari,1440,900,,,,,10,994,,,,,,,,,,,,,,,,,S,160,star,1,0,,,,,,,,,,,,,,,,repeat,letter,lettRpt,f,Hi,,,,,,0.566,3,,,,,,,,high,1,0,1,0,1,,,,,,,,,
298303,2022-11-30_22h46.31.996,vts_reward_expectancy_bt,2022.2.4,MacIntel,58.82352941,Safari,1440,900,,,,,1,995,,,,,,,,,,,,,,,,,B,139,triangle,1,0,,,,,,,,,,,,,,,,repeat,letter,lettRpt,d,Lo,,,,,,0.732,3,,,,,,,,high,2,0,2,0,1,,,,,,,,,
298303,2022-11-30_22h46.31.996,vts_reward_expectancy_bt,2022.2.4,MacIntel,58.82352941,Safari,1440,900,,,,,0,995,,,,,,,,,,,,,,,,,H,174,circle,1,0,,,,,,,,,,,,,,,,repeat,letter,lettRpt,d,Hi,,,,,,0.836,3,,,,,,,,high,3,0,3,0,1,,,,,,,,,
298303,2022-11-30_22h46.31.996,vts_reward_expectancy_bt,2022.2.4,MacIntel,58.82352941,Safari,1440,900,,,,,1,996,,,,,,,,,,,,,,,,,F,146,hexagon,1,0,,,,,,,,,,,,,,,,repeat,letter,lettRpt,d,Lo,,,,,,0.646,3,,,,,,,,high,4,0,4,0,1,,,,,,,,,
298303,2022-11-30_22h46.31.996,vts_reward_expectancy_bt,2022.2.4,MacIntel,58.82352941,Safari,1440,900,,,,,10,1006,,,,,,,,,,,,,,,,,D,181,star,1,0,,,,,,,,,,,,,,,,repeat,letter,lettRpt,d,Hi,,,,,,0.468,3,,,,,,,,high,5,0,5,0,1,,,,,,,,,
298303,2022-11-30_22h46.31.996,vts_reward_expectancy_bt,2022.2.4,MacIntel,58.82352941,Safari,1440,900,,,,,1,1007,,,,,,,,,,,,,,,,,W,167,triangle,1,0,,,,,,,,,,,,,,,,repeat,letter,lettRpt,f,Lo,,,,,,0.627,3,,,,,,,,high,6,0,6,0,1,,,,,,,,,
298303,2022-11-30_22h46.31.996,vts_reward_expectancy_bt,2022.2.4,MacIntel,58.82352941,Safari,1440,900,,,,,0,1007,,,,,,,,,,,,,,,,,Y,132,circle,1,0,,,,,,,,,,,,,,,,repeat,letter,lettRpt,f,Hi,,,,,,0.677,3,,,,,,,,high,7,0,7,0,1,,,,,,,,,
298303,2022-11-30_22h46.31.996,vts_reward_expectancy_bt,2022.2.4,MacIntel,58.82352941,Safari,1440,900,,,,,0,1007,,,,,,,,,,,,,,,,,U,125,circle,1,0,,,,,,,,,,,,,,,,repeat,letter,lettRpt,f,Hi,,,,,,0.677,3,,,,,,,,high,8,0,8,0,1,,,,,,,,,
298303,2022-11-30_22h46.31.996,vts_reward_expectancy_bt,2022.2.4,MacIntel,58.82352941,Safari,1440,900,,,,,1,1008,,,,,,,,,,,,,,,,,S,160,triangle,1,0,,,,,,,,,,,,,,,,repeat,letter,lettRpt,f,Lo,,,,,,0.719,3,,,,,,,,high,9,0,9,0,1,,,,,,,,,
298303,2022-11-30_22h46.31.996,vts_reward_expectancy_bt,2022.2.4,MacIntel,58.82352941,Safari,1440,900,,,,,10,1018,,,,,,,,,,,,,,,,,B,139,star,1,0,,,,,,,,,,,,,,,,repeat,letter,lettRpt,d,Hi,,,,,,0.502,3,,,,,,,,high,10,0,10,0,1,,,,,,,,,
298303,2022-11-30_22h46.31.996,vts_reward_expectancy_bt,2022.2.4,MacIntel,58.82352941,Safari,1440,900,,,,,0,1018,,,,,,,,,,,,,,,,,H,174,hexagon,0,0,,,,,,,,,,,,,,,,repeat,letter,NA,f,Hi,,,,,,0.443,3,,,,,,,,high,11,0,11,0,1,,,,,,,,,
298303,2022-11-30_22h46.31.996,vts_reward_expectancy_bt,2022.2.4,MacIntel,58.82352941,Safari,1440,900,,,,,1,1019,,,,,,,,,,,,,,,,,F,146,hexagon,1,1,,,,,,,,,,,,,,,,repeat,letter,lettRpt,d,Lo,,,,,,1.276,3,,,,,,,,high,12,0,12,0,1,,,,,,,,,
298303,2022-11-30_22h46.31.996,vts_reward_expectancy_bt,2022.2.4,MacIntel,58.82352941,Safari,1440,900,,,,,10,1029,,,,,,,,,,,,,,,,,D,181,circle,1,0,,,,,,,,,,,,,,,,repeat,letter,lettRpt,d,Hi,,,,,,0.526,3,,,,,,,,high,13,0,13,0,1,,,,,,,,,
298303,2022-11-30_22h46.31.996,vts_reward_expectancy_bt,2022.2.4,MacIntel,58.82352941,Safari,1440,900,,,,,1,1030,,,,,,,,,,,,,,,,,W,167,triangle,1,0,,,,,,,,,,,,,,,,repeat,letter,lettRpt,f,Lo,,,,,,0.676,3,,,,,,,,high,14,0,14,0,1,,,,,,,,,
298303,2022-11-30_22h46.31.996,vts_reward_expectancy_bt,2022.2.4,MacIntel,58.82352941,Safari,1440,900,,,,,1,1031,,,,,,,,,,,,,,,,,Y,132,star,1,0,,,,,,,,,,,,,,,,repeat,letter,lettRpt,f,Hi,,,,,,0.543,3,,,,,,,,high,15,0,15,0,1,,,,,,,,,
298303,2022-11-30_22h46.31.996,vts_reward_expectancy_bt,2022.2.4,MacIntel,58.82352941,Safari,1440,900,,,,,1,1032,,,,,,,,,,,,,,,,,Y,146,hexagon,1,0,,,,,,,,,,,,,,,,repeat,letter,lettRpt,f,Lo,,,,,,0.614,3,,,,,,,,high,16,0,16,0,1,,,,,,,,,
298303,2022-11-30_22h46.31.996,vts_reward_expectancy_bt,2022.2.4,MacIntel,58.82352941,Safari,1440,900,,,,,10,1042,,,,,,,,,,,,,,,,,U,139,star,1,0,,,,,,,,,,,,,,,,repeat,letter,lettRpt,f,Hi,,,,,,0.586,3,,,,,,,,high,17,0,17,0,1,,,,,,,,,
298303,2022-11-30_22h46.31.996,vts_reward_expectancy_bt,2022.2.4,MacIntel,58.82352941,Safari,1440,900,,,,,0,1042,,,,,,,,,,,,,,,,,S,167,circle,1,0,,,,,,,,,,,,,,,,repeat,letter,lettRpt,f,Hi,,,,,,0.711,3,,,,,,,,high,18,0,18,0,1,,,,,,,,,
298303,2022-11-30_22h46.31.996,vts_reward_expectancy_bt,2022.2.4,MacIntel,58.82352941,Safari,1440,900,,,,,10,1052,,,,,,,,,,,,,,,,,D,160,triangle,1,0,,,,,,,,,,,,,,,,repeat,letter,lettRpt,d,Lo,,,,,,0.692,3,,,,,,,,high,19,0,19,0,1,,,,,,,,,
298303,2022-11-30_22h46.31.996,vts_reward_expectancy_bt,2022.2.4,MacIntel,58.82352941,Safari,1440,900,,,,,1,1053,,,,,,,,,,,,,,,,,F,132,triangle,1,0,,,,,,,,,,,,,,,,repeat,letter,lettRpt,d,Lo,,,,,,1.051,3,,,,,,,,high,20,0,20,0,1,,,,,,,,,
298303,2022-11-30_22h46.31.996,vts_reward_expectancy_bt,2022.2.4,MacIntel,58.82352941,Safari,1440,900,,,,,0,1053,,,,,,,,,,,,,,,,,B,125,circle,1,0,,,,,,,,,,,,,,,,repeat,letter,lettRpt,d,Hi,,,,,,2.232,3,,,,,,,,high,21,0,21,0,1,,,,,,,,,
298303,2022-11-30_22h46.31.996,vts_reward_expectancy_bt,2022.2.4,MacIntel,58.82352941,Safari,1440,900,,,,,0,1053,,,,,,,,,,,,,,,,,H,174,star,1,0,,,,,,,,,,,,,,,,repeat,letter,lettRpt,d,Hi,,,,,,0.959,3,,,,,,,,high,22,0,22,0,1,,,,,,,,,
298303,2022-11-30_22h46.31.996,vts_reward_expectancy_bt,2022.2.4,MacIntel,58.82352941,Safari,1440,900,,,,,1,1054,,,,,,,,,,,,,,,,,W,181,hexagon,1,0,,,,,,,,,,,,,,,,repeat,letter,lettRpt,f,Lo,,,,,,0.615,3,,,,,,,,high,23,0,23,0,1,,,,,,,,,
298303,2022-11-30_22h46.31.996,vts_reward_expectancy_bt,2022.2.4,MacIntel,58.82352941,Safari,1440,900,,,,,10,1064,,,,,,,,,,,,,,,,,B,174,circle,1,0,,,,,,,,,,,,,,,,repeat,letter,lettRpt,d,Hi,,,,,,0.61,3,,,,,,,,high,24,0,24,0,1,,,,,,,,,
298303,2022-11-30_22h46.31.996,vts_reward_expectancy_bt,2022.2.4,MacIntel,58.82352941,Safari,1440,900,,,,,1,1065,,,,,,,,,,,,,,,,,Y,167,triangle,1,0,,,,,,,,,,,,,,,,repeat,letter,lettRpt,f,Lo,,,,,,0.567,3,,,,,,,,high,25,0,25,0,1,,,,,,,,,
298303,2022-11-30_22h46.31.996,vts_reward_expectancy_bt,2022.2.4,MacIntel,58.82352941,Safari,1440,900,,,,,0,1065,,,,,,,,,,,,,,,,,U,146,hexagon,0,0,,,,,,,,,,,,,,,,repeat,letter,NA,d,Lo,,,,,,0.694,3,,,,,,,,high,26,0,26,0,1,,,,,,,,,
298303,2022-11-30_22h46.31.996,vts_reward_expectancy_bt,2022.2.4,MacIntel,58.82352941,Safari,1440,900,,,,,0,1065,,,,,,,,,,,,,,,,,H,181,star,1,1,,,,,,,,,,,,,,,,repeat,letter,lettRpt,d,Hi,,,,,,0.965,3,,,,,,,,high,27,0,27,0,1,,,,,,,,,
298303,2022-11-30_22h46.31.996,vts_reward_expectancy_bt,2022.2.4,MacIntel,58.82352941,Safari,1440,900,,,,,10,1075,,,,,,,,,,,,,,,,,S,132,star,1,0,,,,,,,,,,,,,,,,repeat,letter,lettRpt,f,Hi,,,,,,0.55,3,,,,,,,,high,28,0,28,0,1,,,,,,,,,
298303,2022-11-30_22h46.31.996,vts_reward_expectancy_bt,2022.2.4,MacIntel,58.82352941,Safari,1440,900,,,,,1,1076,,,,,,,,,,,,,,,,,F,160,triangle,1,0,,,,,,,,,,,,,,,,repeat,letter,lettRpt,d,Lo,,,,,,0.599,3,,,,,,,,high,29,0,29,0,1,,,,,,,,,
298303,2022-11-30_22h46.31.996,vts_reward_expectancy_bt,2022.2.4,MacIntel,58.82352941,Safari,1440,900,,,,,1,1077,,,,,,,,,,,,,,,,,W,125,hexagon,1,0,,,,,,,,,,,,,,,,repeat,letter,lettRpt,f,Lo,,,,,,0.564,3,,,,,,,,high,30,0,30,0,1,,,,,,,,,
298303,2022-11-30_22h46.31.996,vts_reward_expectancy_bt,2022.2.4,MacIntel,58.82352941,Safari,1440,900,,,,,0,1077,,,,,,,,,,,,,,,,,D,139,circle,1,0,,,,,,,,,,,,,,,,repeat,letter,lettRpt,d,Hi,,,,,,0.936,3,,,,,,,,high,31,0,31,0,1,,,,,,,,,
298303,2022-11-30_22h46.31.996,vts_reward_expectancy_bt,2022.2.4,MacIntel,58.82352941,Safari,1440,900,,,,,1,1078,,,,,,,,,,,,,,,,,F,167,hexagon,1,0,,,,,,,,,,,,,,,,switch,number,numSwt,k,Lo,,,,,,1.079,4,,,,,,space,1.412,high,0,0,0,0,1,,,,,,,,,
298303,2022-11-30_22h46.31.996,vts_reward_expectancy_bt,2022.2.4,MacIntel,58.82352941,Safari,1440,900,,,,,10,1088,,,,,,,,,,,,,,,,,S,132,circle,1,0,,,,,,,,,,,,,,,,repeat,number,numRpt,j,Hi,,,,,,0.798,4,,,,,,,,high,1,0,1,0,1,,,,,,,,,
298303,2022-11-30_22h46.31.996,vts_reward_expectancy_bt,2022.2.4,MacIntel,58.82352941,Safari,1440,900,,,,,1,1089,,,,,,,,,,,,,,,,,H,125,triangle,1,0,,,,,,,,,,,,,,,,repeat,number,numRpt,j,Lo,,,,,,0.726,4,,,,,,,,high,2,0,2,0,1,,,,,,,,,
298303,2022-11-30_22h46.31.996,vts_reward_expectancy_bt,2022.2.4,MacIntel,58.82352941,Safari,1440,900,,,,,10,1099,,,,,,,,,,,,,,,,,U,174,star,1,0,,,,,,,,,,,,,,,,repeat,number,numRpt,k,Hi,,,,,,0.658,4,,,,,,,,high,3,0,3,0,1,,,,,,,,,
298303,2022-11-30_22h46.31.996,vts_reward_expectancy_bt,2022.2.4,MacIntel,58.82352941,Safari,1440,900,,,,,1,1100,,,,,,,,,,,,,,,,,D,139,hexagon,1,0,,,,,,,,,,,,,,,,repeat,number,numRpt,j,Lo,,,,,,0.726,4,,,,,,,,high,4,0,4,0,1,,,,,,,,,
298303,2022-11-30_22h46.31.996,vts_reward_expectancy_bt,2022.2.4,MacIntel,58.82352941,Safari,1440,900,,,,,10,1110,,,,,,,,,,,,,,,,,B,160,circle,1,0,,,,,,,,,,,,,,,,repeat,number,numRpt,k,Hi,,,,,,0.712,4,,,,,,,,high,5,0,5,0,1,,,,,,,,,
298303,2022-11-30_22h46.31.996,vts_reward_expectancy_bt,2022.2.4,MacIntel,58.82352941,Safari,1440,900,,,,,10,1120,,,,,,,,,,,,,,,,,W,181,triangle,1,0,,,,,,,,,,,,,,,,repeat,number,numRpt,k,Lo,,,,,,0.561,4,,,,,,,,high,6,0,6,0,1,,,,,,,,,
298303,2022-11-30_22h46.31.996,vts_reward_expectancy_bt,2022.2.4,MacIntel,58.82352941,Safari,1440,900,,,,,10,1130,,,,,,,,,,,,,,,,,Y,146,star,1,0,,,,,,,,,,,,,,,,repeat,number,numRpt,j,Hi,,,,,,0.692,4,,,,,,,,high,7,0,7,0,1,,,,,,,,,
298303,2022-11-30_22h46.31.996,vts_reward_expectancy_bt,2022.2.4,MacIntel,58.82352941,Safari,1440,900,,,,,10,1140,,,,,,,,,,,,,,,,,F,167,circle,1,0,,,,,,,,,,,,,,,,repeat,number,numRpt,k,Hi,,,,,,0.729,4,,,,,,,,high,8,0,8,0,1,,,,,,,,,
298303,2022-11-30_22h46.31.996,vts_reward_expectancy_bt,2022.2.4,MacIntel,58.82352941,Safari,1440,900,,,,,1,1141,,,,,,,,,,,,,,,,,S,132,triangle,1,0,,,,,,,,,,,,,,,,repeat,number,numRpt,j,Lo,,,,,,0.549,4,,,,,,,,high,9,0,9,0,1,,,,,,,,,
298303,2022-11-30_22h46.31.996,vts_reward_expectancy_bt,2022.2.4,MacIntel,58.82352941,Safari,1440,900,,,,,1,1142,,,,,,,,,,,,,,,,,H,125,hexagon,1,0,,,,,,,,,,,,,,,,repeat,number,numRpt,j,Lo,,,,,,0.76,4,,,,,,,,high,10,0,10,0,1,,,,,,,,,
298303,2022-11-30_22h46.31.996,vts_reward_expectancy_bt,2022.2.4,MacIntel,58.82352941,Safari,1440,900,,,,,10,1152,,,,,,,,,,,,,,,,,U,174,star,1,0,,,,,,,,,,,,,,,,repeat,number,numRpt,k,Hi,,,,,,0.67,4,,,,,,,,high,11,0,11,0,1,,,,,,,,,
298303,2022-11-30_22h46.31.996,vts_reward_expectancy_bt,2022.2.4,MacIntel,58.82352941,Safari,1440,900,,,,,10,1162,,,,,,,,,,,,,,,,,D,139,circle,1,0,,,,,,,,,,,,,,,,repeat,number,numRpt,j,Hi,,,,,,0.862,4,,,,,,,,high,12,0,12,0,1,,,,,,,,,
298303,2022-11-30_22h46.31.996,vts_reward_expectancy_bt,2022.2.4,MacIntel,58.82352941,Safari,1440,900,,,,,1,1163,,,,,,,,,,,,,,,,,B,160,triangle,1,0,,,,,,,,,,,,,,,,repeat,number,numRpt,k,Lo,,,,,,0.676,4,,,,,,,,high,13,0,13,0,1,,,,,,,,,
298303,2022-11-30_22h46.31.996,vts_reward_expectancy_bt,2022.2.4,MacIntel,58.82352941,Safari,1440,900,,,,,10,1173,,,,,,,,,,,,,,,,,W,181,hexagon,1,0,,,,,,,,,,,,,,,,repeat,number,numRpt,k,Lo,,,,,,0.943,4,,,,,,,,high,14,0,14,0,1,,,,,,,,,
298303,2022-11-30_22h46.31.996,vts_reward_expectancy_bt,2022.2.4,MacIntel,58.82352941,Safari,1440,900,,,,,1,1174,,,,,,,,,,,,,,,,,Y,146,star,1,0,,,,,,,,,,,,,,,,repeat,number,numRpt,j,Hi,,,,,,1.074,4,,,,,,,,high,15,0,15,0,1,,,,,,,,,
298303,2022-11-30_22h46.31.996,vts_reward_expectancy_bt,2022.2.4,MacIntel,58.82352941,Safari,1440,900,,,,,1,1175,,,,,,,,,,,,,,,,,W,160,hexagon,1,0,,,,,,,,,,,,,,,,repeat,number,numRpt,k,Lo,,,,,,0.92,4,,,,,,,,high,16,0,16,0,1,,,,,,,,,
298303,2022-11-30_22h46.31.996,vts_reward_expectancy_bt,2022.2.4,MacIntel,58.82352941,Safari,1440,900,,,,,1,1176,,,,,,,,,,,,,,,,,H,167,triangle,1,0,,,,,,,,,,,,,,,,repeat,number,numRpt,k,Lo,,,,,,0.976,4,,,,,,,,high,17,0,17,0,1,,,,,,,,,
298303,2022-11-30_22h46.31.996,vts_reward_expectancy_bt,2022.2.4,MacIntel,58.82352941,Safari,1440,900,,,,,10,1186,,,,,,,,,,,,,,,,,U,125,star,1,0,,,,,,,,,,,,,,,,repeat,number,numRpt,j,Hi,,,,,,0.71,4,,,,,,,,high,18,0,18,0,1,,,,,,,,,
298303,2022-11-30_22h46.31.996,vts_reward_expectancy_bt,2022.2.4,MacIntel,58.82352941,Safari,1440,900,,,,,1,1187,,,,,,,,,,,,,,,,,S,139,circle,1,0,,,,,,,,,,,,,,,,repeat,number,numRpt,j,Hi,,,,,,0.911,4,,,,,,,,high,19,0,19,0,1,,,,,,,,,
298303,2022-11-30_22h46.31.996,vts_reward_expectancy_bt,2022.2.4,MacIntel,58.82352941,Safari,1440,900,,,,,1,1188,,,,,,,,,,,,,,,,,D,174,triangle,1,0,,,,,,,,,,,,,,,,repeat,number,numRpt,k,Lo,,,,,,0.821,4,,,,,,,,high,20,0,20,0,1,,,,,,,,,
298303,2022-11-30_22h46.31.996,vts_reward_expectancy_bt,2022.2.4,MacIntel,58.82352941,Safari,1440,900,,,,,1,1189,,,,,,,,,,,,,,,,,B,132,circle,1,0,,,,,,,,,,,,,,,,repeat,number,numRpt,j,Hi,,,,,,0.601,4,,,,,,,,high,21,0,21,0,1,,,,,,,,,
298303,2022-11-30_22h46.31.996,vts_reward_expectancy_bt,2022.2.4,MacIntel,58.82352941,Safari,1440,900,,,,,0,1189,,,,,,,,,,,,,,,,,F,146,star,0,0,,,,,,,,,,,,,,,,repeat,number,NA,k,Hi,,,,,,1.578,4,,,,,,,,high,22,0,22,0,1,,,,,,,,,
298303,2022-11-30_22h46.31.996,vts_reward_expectancy_bt,2022.2.4,MacIntel,58.82352941,Safari,1440,900,,,,,1,1190,,,,,,,,,,,,,,,,,Y,181,hexagon,1,1,,,,,,,,,,,,,,,,repeat,number,numRpt,k,Lo,,,,,,0.576,4,,,,,,,,high,23,0,23,0,1,,,,,,,,,
298303,2022-11-30_22h46.31.996,vts_reward_expectancy_bt,2022.2.4,MacIntel,58.82352941,Safari,1440,900,,,,,1,1191,,,,,,,,,,,,,,,,,D,160,circle,1,0,,,,,,,,,,,,,,,,repeat,number,numRpt,k,Hi,,,,,,0.577,4,,,,,,,,high,24,0,24,0,1,,,,,,,,,
298303,2022-11-30_22h46.31.996,vts_reward_expectancy_bt,2022.2.4,MacIntel,58.82352941,Safari,1440,900,,,,,1,1192,,,,,,,,,,,,,,,,,B,167,triangle,1,0,,,,,,,,,,,,,,,,repeat,number,numRpt,k,Lo,,,,,,0.609,4,,,,,,,,high,25,0,25,0,1,,,,,,,,,
298303,2022-11-30_22h46.31.996,vts_reward_expectancy_bt,2022.2.4,MacIntel,58.82352941,Safari,1440,900,,,,,10,1202,,,,,,,,,,,,,,,,,U,132,star,1,0,,,,,,,,,,,,,,,,repeat,number,numRpt,j,Hi,,,,,,0.693,4,,,,,,,,high,26,0,26,0,1,,,,,,,,,
298303,2022-11-30_22h46.31.996,vts_reward_expectancy_bt,2022.2.4,MacIntel,58.82352941,Safari,1440,900,,,,,1,1203,,,,,,,,,,,,,,,,,H,174,hexagon,1,0,,,,,,,,,,,,,,,,repeat,number,numRpt,k,Lo,,,,,,0.866,4,,,,,,,,high,27,0,27,0,1,,,,,,,,,
298303,2022-11-30_22h46.31.996,vts_reward_expectancy_bt,2022.2.4,MacIntel,58.82352941,Safari,1440,900,,,,,1,1204,,,,,,,,,,,,,,,,,Y,181,star,1,0,,,,,,,,,,,,,,,,repeat,number,numRpt,k,Hi,,,,,,0.66,4,,,,,,,,high,28,0,28,0,1,,,,,,,,,
298303,2022-11-30_22h46.31.996,vts_reward_expectancy_bt,2022.2.4,MacIntel,58.82352941,Safari,1440,900,,,,,0,1204,,,,,,,,,,,,,,,,,W,146,triangle,0,0,,,,,,,,,,,,,,,,repeat,number,NA,k,Hi,,,,,,1.042,4,,,,,,,,high,29,0,29,0,1,,,,,,,,,
298303,2022-11-30_22h46.31.996,vts_reward_expectancy_bt,2022.2.4,MacIntel,58.82352941,Safari,1440,900,,,,,10,1214,,,,,,,,,,,,,,,,,S,125,hexagon,1,1,,,,,,,,,,,,,,,,repeat,number,numRpt,j,Lo,,,,,,0.715,4,,,,,,,,high,30,0,30,0,1,,,,,,,,,
298303,2022-11-30_22h46.31.996,vts_reward_expectancy_bt,2022.2.4,MacIntel,58.82352941,Safari,1440,900,,,,,10,1224,,,,,,,,,,,,,,,,,F,139,circle,1,0,,,,,,,,,,,,,,,,repeat,number,numRpt,j,Hi,,,,,,2.72,4,,,,,,,,high,31,0,31,0,1,,,,,,,,,
298303,2022-11-30_22h46.31.996,vts_reward_expectancy_bt,2022.2.4,MacIntel,58.82352941,Safari,1440,900,,,,,1,1225,,,,,,,,,,,,,,,,,H,125,circle,1,0,,,,,,,,,,,,,,,,switch,letter,lettSwt,d,Hi,,,,,,1.037,5,,,,,,space,0.88,high,0,0,0,0,1,,,,,,,,,
298303,2022-11-30_22h46.31.996,vts_reward_expectancy_bt,2022.2.4,MacIntel,58.82352941,Safari,1440,900,,,,,1,1226,,,,,,,,,,,,,,,,,B,132,hexagon,1,0,,,,,,,,,,,,,,,,repeat,letter,lettRpt,d,Lo,,,,,,0.534,5,,,,,,,,high,1,0,1,0,1,,,,,,,,,
298303,2022-11-30_22h46.31.996,vts_reward_expectancy_bt,2022.2.4,MacIntel,58.82352941,Safari,1440,900,,,,,1,1227,,,,,,,,,,,,,,,,,S,174,triangle,1,0,,,,,,,,,,,,,,,,repeat,letter,lettRpt,f,Lo,,,,,,0.733,5,,,,,,,,high,2,0,2,0,1,,,,,,,,,
298303,2022-11-30_22h46.31.996,vts_reward_expectancy_bt,2022.2.4,MacIntel,58.82352941,Safari,1440,900,,,,,10,1237,,,,,,,,,,,,,,,,,W,181,star,1,0,,,,,,,,,,,,,,,,repeat,letter,lettRpt,f,Hi,,,,,,1.075,5,,,,,,,,high,3,0,3,0,1,,,,,,,,,
298303,2022-11-30_22h46.31.996,vts_reward_expectancy_bt,2022.2.4,MacIntel,58.82352941,Safari,1440,900,,,,,10,1247,,,,,,,,,,,,,,,,,D,146,circle,1,0,,,,,,,,,,,,,,,,repeat,letter,lettRpt,d,Hi,,,,,,0.877,5,,,,,,,,high,4,0,4,0,1,,,,,,,,,
298303,2022-11-30_22h46.31.996,vts_reward_expectancy_bt,2022.2.4,MacIntel,58.82352941,Safari,1440,900,,,,,1,1248,,,,,,,,,,,,,,,,,F,167,hexagon,1,0,,,,,,,,,,,,,,,,repeat,letter,lettRpt,d,Lo,,,,,,0.735,5,,,,,,,,high,5,0,5,0,1,,,,,,,,,
298303,2022-11-30_22h46.31.996,vts_reward_expectancy_bt,2022.2.4,MacIntel,58.82352941,Safari,1440,900,,,,,1,1249,,,,,,,,,,,,,,,,,Y,160,triangle,1,0,,,,,,,,,,,,,,,,repeat,letter,lettRpt,f,Lo,,,,,,0.482,5,,,,,,,,high,6,0,6,0,1,,,,,,,,,
298303,2022-11-30_22h46.31.996,vts_reward_expectancy_bt,2022.2.4,MacIntel,58.82352941,Safari,1440,900,,,,,10,1259,,,,,,,,,,,,,,,,,U,139,star,1,0,,,,,,,,,,,,,,,,repeat,letter,lettRpt,f,Hi,,,,,,0.594,5,,,,,,,,high,7,0,7,0,1,,,,,,,,,
298303,2022-11-30_22h46.31.996,vts_reward_expectancy_bt,2022.2.4,MacIntel,58.82352941,Safari,1440,900,,,,,1,1260,,,,,,,,,,,,,,,,,H,125,hexagon,1,0,,,,,,,,,,,,,,,,repeat,letter,lettRpt,d,Lo,,,,,,0.934,5,,,,,,,,high,8,0,8,0,1,,,,,,,,,
298303,2022-11-30_22h46.31.996,vts_reward_expectancy_bt,2022.2.4,MacIntel,58.82352941,Safari,1440,900,,,,,10,1270,,,,,,,,,,,,,,,,,B,132,triangle,1,0,,,,,,,,,,,,,,,,repeat,letter,lettRpt,d,Lo,,,,,,0.636,5,,,,,,,,high,9,0,9,0,1,,,,,,,,,
298303,2022-11-30_22h46.31.996,vts_reward_expectancy_bt,2022.2.4,MacIntel,58.82352941,Safari,1440,900,,,,,1,1271,,,,,,,,,,,,,,,,,S,174,circle,1,0,,,,,,,,,,,,,,,,repeat,letter,lettRpt,f,Hi,,,,,,1.66,5,,,,,,,,high,10,0,10,0,1,,,,,,,,,
298303,2022-11-30_22h46.31.996,vts_reward_expectancy_bt,2022.2.4,MacIntel,58.82352941,Safari,1440,900,,,,,10,1281,,,,,,,,,,,,,,,,,W,181,star,1,0,,,,,,,,,,,,,,,,repeat,letter,lettRpt,f,Hi,,,,,,0.593,5,,,,,,,,high,11,0,11,0,1,,,,,,,,,
298303,2022-11-30_22h46.31.996,vts_reward_expectancy_bt,2022.2.4,MacIntel,58.82352941,Safari,1440,900,,,,,1,1282,,,,,,,,,,,,,,,,,D,146,hexagon,1,0,,,,,,,,,,,,,,,,repeat,letter,lettRpt,d,Lo,,,,,,0.603,5,,,,,,,,high,12,0,12,0,1,,,,,,,,,
298303,2022-11-30_22h46.31.996,vts_reward_expectancy_bt,2022.2.4,MacIntel,58.82352941,Safari,1440,900,,,,,10,1292,,,,,,,,,,,,,,,,,F,167,circle,1,0,,,,,,,,,,,,,,,,repeat,letter,lettRpt,d,Hi,,,,,,0.678,5,,,,,,,,high,13,0,13,0,1,,,,,,,,,
298303,2022-11-30_22h46.31.996,vts_reward_expectancy_bt,2022.2.4,MacIntel,58.82352941,Safari,1440,900,,,,,10,1302,,,,,,,,,,,,,,,,,Y,160,star,1,0,,,,,,,,,,,,,,,,repeat,letter,lettRpt,f,Hi,,,,,,0.516,5,,,,,,,,high,14,0,14,0,1,,,,,,,,,
298303,2022-11-30_22h46.31.996,vts_reward_expectancy_bt,2022.2.4,MacIntel,58.82352941,Safari,1440,900,,,,,0,1302,,,,,,,,,,,,,,,,,U,139,triangle,0,0,,,,,,,,,,,,,,,,repeat,letter,NA,d,Hi,,,,,,1.493,5,,,,,,,,high,15,0,15,0,1,,,,,,,,,
298303,2022-11-30_22h46.31.996,vts_reward_expectancy_bt,2022.2.4,MacIntel,58.82352941,Safari,1440,900,,,,,10,1312,,,,,,,,,,,,,,,,,D,132,star,1,1,,,,,,,,,,,,,,,,repeat,letter,lettRpt,d,Hi,,,,,,0.726,5,,,,,,,,high,16,0,16,0,1,,,,,,,,,
298303,2022-11-30_22h46.31.996,vts_reward_expectancy_bt,2022.2.4,MacIntel,58.82352941,Safari,1440,900,,,,,1,1313,,,,,,,,,,,,,,,,,W,181,hexagon,1,0,,,,,,,,,,,,,,,,repeat,letter,lettRpt,f,Lo,,,,,,0.544,5,,,,,,,,high,17,0,17,0,1,,,,,,,,,
