participant,date,expName,psychopyVersion,OS,frameRate,browser,xResolution,yResolution,key_resp.keys,key_resp.rt,training_resp.keys,training_resp.rt,points_trial,points_cumul,trainBlock,training.thisRepN,training.thisTrialN,training.thisN,training.thisIndex,training.ran,LTriangleOpac,LCircleOpac,LHexagonOpac,LStarOpac,RTriangleOpac,RCircleOpac,RHexagonOpac,RStarOpac,LShape_ID,RShape_ID,curr_topStim,curr_bottStim,curr_shape,acc,E1,target_resp_prac1.keys,pracBlock,task1_prac_trials.thisRepN,task1_prac_trials.thisTrialN,task1_prac_trials.thisN,task1_prac_trials.thisIndex,task1_prac_trials.ran,target_resp_prac1.rt,target_resp_prac2.keys,target_resp_prac2.rt,task2_praac_trials.thisRepN,task2_praac_trials.thisTrialN,task2_praac_trials.thisN,task2_praac_trials.thisIndex,task2_praac_trials.ran,alt,task,condition,target_resp.keys,target_resp.rt,rewCond,vts_practice_trials.thisRepN,vts_practice_trials.thisTrialN,vts_practice_trials.thisN,vts_practice_trials.thisIndex,vts_practice_trials.ran,blockNum,trials_norew.thisRepN,trials_norew.thisTrialN,trials_norew.thisN,trials_norew.thisIndex,trials_norew.ran,key_resp_2.keys,key_resp_2.rt,rewExpect,trials_rew.thisRepN,trials_rew.thisTrialN,trials_rew.thisN,trials_rew.thisIndex,trials_rew.ran,Q1,Q2,Q2_text,Q3,Q4,Q5_text,Q5,xRes,yRes
295519,2022-10-03_13h14.10.935,vts_reward_expectancy,2022.2.4,MacIntel,60.0024001,Chrome,1680,1050,,,,,,,,,,,,,,,,,,,,,,,,,,,,,,,,,,,,,,,,,,,,,,,,,,,,,,,,,,,,,,,,,,,,,,,,,,,,
295519,2022-10-03_13h14.10.935,vts_reward_expectancy,2022.2.4,MacIntel,60.0024001,Chrome,1680,1050,space,8.4168,,,,,,,,,,,,,,,,,,,,,,,,,,,,,,,,,,,,,,,,,,,,,,,,,,,,,,,,,,,,,,,,,,,,,,,,,,
295519,2022-10-03_13h14.10.935,vts_reward_expectancy,2022.2.4,MacIntel,60.0024001,Chrome,1680,1050,,,,,,,,,,,,,,,,,,,,,,,,,,,,,,,,,,,,,,,,,,,,,,,,,,,,,,,,,,,,,,,,,,,,,,,,,,,,
295519,2022-10-03_13h14.10.935,vts_reward_expectancy,2022.2.4,MacIntel,60.0024001,Chrome,1680,1050,,,l,1.3803,10,10,0,0,0,0,1,1,1,0,0,0,0,0,1,0,triangle,hexagon,,,,,,,,,,,,,,,,,,,,,,,,,,,,,,,,,,,,,,,,,,,,,,,,,,,,,,
295519,2022-10-03_13h14.10.935,vts_reward_expectancy,2022.2.4,MacIntel,60.0024001,Chrome,1680,1050,,,l,1.0005,10,20,0,0,1,1,9,1,0,0,0,1,1,0,0,0,star,triangle,,,,,,,,,,,,,,,,,,,,,,,,,,,,,,,,,,,,,,,,,,,,,,,,,,,,,,
295519,2022-10-03_13h14.10.935,vts_reward_expectancy,2022.2.4,MacIntel,60.0024001,Chrome,1680,1050,,,a,0.7152,10,30,0,0,2,2,5,1,0,1,0,0,0,0,0,1,circle,star,,,,,,,,,,,,,,,,,,,,,,,,,,,,,,,,,,,,,,,,,,,,,,,,,,,,,,
295519,2022-10-03_13h14.10.935,vts_reward_expectancy,2022.2.4,MacIntel,60.0024001,Chrome,1680,1050,,,l,0.6485,10,40,0,0,3,3,0,1,1,0,0,0,0,1,0,0,triangle,circle,,,,,,,,,,,,,,,,,,,,,,,,,,,,,,,,,,,,,,,,,,,,,,,,,,,,,,
295519,2022-10-03_13h14.10.935,vts_reward_expectancy,2022.2.4,MacIntel,60.0024001,Chrome,1680,1050,,,a,0.5672,1,41,0,0,4,4,8,1,0,0,1,0,0,0,0,1,hexagon,star,,,,,,,,,,,,,,,,,,,,,,,,,,,,,,,,,,,,,,,,,,,,,,,,,,,,,,
295519,2022-10-03_13h14.10.935,vts_reward_expectancy,2022.2.4,MacIntel,60.0024001,Chrome,1680,1050,,,a,0.7,1,42,0,0,5,5,7,1,0,0,1,0,0,1,0,0,hexagon,circle,,,,,,,,,,,,,,,,,,,,,,,,,,,,,,,,,,,,,,,,,,,,,,,,,,,,,,
295519,2022-10-03_13h14.10.935,vts_reward_expectancy,2022.2.4,MacIntel,60.0024001,Chrome,1680,1050,,,l,0.5832,10,52,0,0,6,6,3,1,0,1,0,0,1,0,0,0,circle,triangle,,,,,,,,,,,,,,,,,,,,,,,,,,,,,,,,,,,,,,,,,,,,,,,,,,,,,,
295519,2022-10-03_13h14.10.935,vts_reward_expectancy,2022.2.4,MacIntel,60.0024001,Chrome,1680,1050,,,l,0.5831,1,53,0,0,7,7,4,1,0,1,0,0,0,0,1,0,circle,hexagon,,,,,,,,,,,,,,,,,,,,,,,,,,,,,,,,,,,,,,,,,,,,,,,,,,,,,,
295519,2022-10-03_13h14.10.935,vts_reward_expectancy,2022.2.4,MacIntel,60.0024001,Chrome,1680,1050,,,a,0.5167,10,63,0,0,8,8,2,1,1,0,0,0,0,0,0,1,triangle,star,,,,,,,,,,,,,,,,,,,,,,,,,,,,,,,,,,,,,,,,,,,,,,,,,,,,,,
295519,2022-10-03_13h14.10.935,vts_reward_expectancy,2022.2.4,MacIntel,60.0024001,Chrome,1680,1050,,,l,0.4833,1,64,0,0,9,9,11,1,0,0,0,1,0,0,1,0,star,hexagon,,,,,,,,,,,,,,,,,,,,,,,,,,,,,,,,,,,,,,,,,,,,,,,,,,,,,,
295519,2022-10-03_13h14.10.935,vts_reward_expectancy,2022.2.4,MacIntel,60.0024001,Chrome,1680,1050,,,a,0.5011,1,65,0,0,10,10,10,1,0,0,0,1,0,1,0,0,star ,circle,,,,,,,,,,,,,,,,,,,,,,,,,,,,,,,,,,,,,,,,,,,,,,,,,,,,,,
295519,2022-10-03_13h14.10.935,vts_reward_expectancy,2022.2.4,MacIntel,60.0024001,Chrome,1680,1050,,,a,0.4843,1,66,0,0,11,11,6,1,0,0,1,0,1,0,0,0,hexagon,triangle,,,,,,,,,,,,,,,,,,,,,,,,,,,,,,,,,,,,,,,,,,,,,,,,,,,,,,
295519,2022-10-03_13h14.10.935,vts_reward_expectancy,2022.2.4,MacIntel,60.0024001,Chrome,1680,1050,,,a,0.5007,10,76,0,1,0,12,2,1,1,0,0,0,0,0,0,1,triangle,star,,,,,,,,,,,,,,,,,,,,,,,,,,,,,,,,,,,,,,,,,,,,,,,,,,,,,,
295519,2022-10-03_13h14.10.935,vts_reward_expectancy,2022.2.4,MacIntel,60.0024001,Chrome,1680,1050,,,l,0.5833,1,77,0,1,1,13,5,1,0,1,0,0,0,0,0,1,circle,star,,,,,,,,,,,,,,,,,,,,,,,,,,,,,,,,,,,,,,,,,,,,,,,,,,,,,,
295519,2022-10-03_13h14.10.935,vts_reward_expectancy,2022.2.4,MacIntel,60.0024001,Chrome,1680,1050,,,a,0.4334,10,87,0,1,2,14,4,1,0,1,0,0,0,0,1,0,circle,hexagon,,,,,,,,,,,,,,,,,,,,,,,,,,,,,,,,,,,,,,,,,,,,,,,,,,,,,,
295519,2022-10-03_13h14.10.935,vts_reward_expectancy,2022.2.4,MacIntel,60.0024001,Chrome,1680,1050,,,l,0.784,10,97,0,1,3,15,6,1,0,0,1,0,1,0,0,0,hexagon,triangle,,,,,,,,,,,,,,,,,,,,,,,,,,,,,,,,,,,,,,,,,,,,,,,,,,,,,,
295519,2022-10-03_13h14.10.935,vts_reward_expectancy,2022.2.4,MacIntel,60.0024001,Chrome,1680,1050,,,l,0.5507,10,107,0,1,4,16,0,1,1,0,0,0,0,1,0,0,triangle,circle,,,,,,,,,,,,,,,,,,,,,,,,,,,,,,,,,,,,,,,,,,,,,,,,,,,,,,
295519,2022-10-03_13h14.10.935,vts_reward_expectancy,2022.2.4,MacIntel,60.0024001,Chrome,1680,1050,,,l,0.6343,1,108,0,1,5,17,11,1,0,0,0,1,0,0,1,0,star,hexagon,,,,,,,,,,,,,,,,,,,,,,,,,,,,,,,,,,,,,,,,,,,,,,,,,,,,,,
295519,2022-10-03_13h14.10.935,vts_reward_expectancy,2022.2.4,MacIntel,60.0024001,Chrome,1680,1050,,,l,0.5174,10,118,0,1,6,18,9,1,0,0,0,1,1,0,0,0,star,triangle,,,,,,,,,,,,,,,,,,,,,,,,,,,,,,,,,,,,,,,,,,,,,,,,,,,,,,
295519,2022-10-03_13h14.10.935,vts_reward_expectancy,2022.2.4,MacIntel,60.0024001,Chrome,1680,1050,,,a,0.6502,10,128,0,1,7,19,3,1,0,1,0,0,1,0,0,0,circle,triangle,,,,,,,,,,,,,,,,,,,,,,,,,,,,,,,,,,,,,,,,,,,,,,,,,,,,,,
295519,2022-10-03_13h14.10.935,vts_reward_expectancy,2022.2.4,MacIntel,60.0024001,Chrome,1680,1050,,,l,0.6335,1,129,0,1,8,20,1,1,1,0,0,0,0,0,1,0,triangle,hexagon,,,,,,,,,,,,,,,,,,,,,,,,,,,,,,,,,,,,,,,,,,,,,,,,,,,,,,
295519,2022-10-03_13h14.10.935,vts_reward_expectancy,2022.2.4,MacIntel,60.0024001,Chrome,1680,1050,,,l,0.584,10,139,0,1,9,21,7,1,0,0,1,0,0,1,0,0,hexagon,circle,,,,,,,,,,,,,,,,,,,,,,,,,,,,,,,,,,,,,,,,,,,,,,,,,,,,,,
295519,2022-10-03_13h14.10.935,vts_reward_expectancy,2022.2.4,MacIntel,60.0024001,Chrome,1680,1050,,,l,0.4996,10,149,0,1,10,22,10,1,0,0,0,1,0,1,0,0,star ,circle,,,,,,,,,,,,,,,,,,,,,,,,,,,,,,,,,,,,,,,,,,,,,,,,,,,,,,
295519,2022-10-03_13h14.10.935,vts_reward_expectancy,2022.2.4,MacIntel,60.0024001,Chrome,1680,1050,,,a,0.5666,1,150,0,1,11,23,8,1,0,0,1,0,0,0,0,1,hexagon,star,,,,,,,,,,,,,,,,,,,,,,,,,,,,,,,,,,,,,,,,,,,,,,,,,,,,,,
295519,2022-10-03_13h14.10.935,vts_reward_expectancy,2022.2.4,MacIntel,60.0024001,Chrome,1680,1050,,,a,0.5336,10,160,0,2,0,24,4,1,0,1,0,0,0,0,1,0,circle,hexagon,,,,,,,,,,,,,,,,,,,,,,,,,,,,,,,,,,,,,,,,,,,,,,,,,,,,,,
295519,2022-10-03_13h14.10.935,vts_reward_expectancy,2022.2.4,MacIntel,60.0024001,Chrome,1680,1050,,,l,0.5338,1,161,0,2,1,25,11,1,0,0,0,1,0,0,1,0,star,hexagon,,,,,,,,,,,,,,,,,,,,,,,,,,,,,,,,,,,,,,,,,,,,,,,,,,,,,,
295519,2022-10-03_13h14.10.935,vts_reward_expectancy,2022.2.4,MacIntel,60.0024001,Chrome,1680,1050,,,l,0.5331,10,171,0,2,2,26,10,1,0,0,0,1,0,1,0,0,star ,circle,,,,,,,,,,,,,,,,,,,,,,,,,,,,,,,,,,,,,,,,,,,,,,,,,,,,,,
295519,2022-10-03_13h14.10.935,vts_reward_expectancy,2022.2.4,MacIntel,60.0024001,Chrome,1680,1050,,,l,0.601,10,181,0,2,3,27,9,1,0,0,0,1,1,0,0,0,star,triangle,,,,,,,,,,,,,,,,,,,,,,,,,,,,,,,,,,,,,,,,,,,,,,,,,,,,,,
295519,2022-10-03_13h14.10.935,vts_reward_expectancy,2022.2.4,MacIntel,60.0024001,Chrome,1680,1050,,,a,0.8333,10,191,0,2,4,28,1,1,1,0,0,0,0,0,1,0,triangle,hexagon,,,,,,,,,,,,,,,,,,,,,,,,,,,,,,,,,,,,,,,,,,,,,,,,,,,,,,
295519,2022-10-03_13h14.10.935,vts_reward_expectancy,2022.2.4,MacIntel,60.0024001,Chrome,1680,1050,,,l,0.6502,1,192,0,2,5,29,8,1,0,0,1,0,0,0,0,1,hexagon,star,,,,,,,,,,,,,,,,,,,,,,,,,,,,,,,,,,,,,,,,,,,,,,,,,,,,,,
295519,2022-10-03_13h14.10.935,vts_reward_expectancy,2022.2.4,MacIntel,60.0024001,Chrome,1680,1050,,,l,0.6176,10,202,0,2,6,30,2,1,1,0,0,0,0,0,0,1,triangle,star,,,,,,,,,,,,,,,,,,,,,,,,,,,,,,,,,,,,,,,,,,,,,,,,,,,,,,
295519,2022-10-03_13h14.10.935,vts_reward_expectancy,2022.2.4,MacIntel,60.0024001,Chrome,1680,1050,,,l,0.7338,10,212,0,2,7,31,6,1,0,0,1,0,1,0,0,0,hexagon,triangle,,,,,,,,,,,,,,,,,,,,,,,,,,,,,,,,,,,,,,,,,,,,,,,,,,,,,,
295519,2022-10-03_13h14.10.935,vts_reward_expectancy,2022.2.4,MacIntel,60.0024001,Chrome,1680,1050,,,l,0.7497,10,222,0,2,8,32,5,1,0,1,0,0,0,0,0,1,circle,star,,,,,,,,,,,,,,,,,,,,,,,,,,,,,,,,,,,,,,,,,,,,,,,,,,,,,,
295519,2022-10-03_13h14.10.935,vts_reward_expectancy,2022.2.4,MacIntel,60.0024001,Chrome,1680,1050,,,l,0.9178,10,232,0,2,9,33,7,1,0,0,1,0,0,1,0,0,hexagon,circle,,,,,,,,,,,,,,,,,,,,,,,,,,,,,,,,,,,,,,,,,,,,,,,,,,,,,,
295519,2022-10-03_13h14.10.935,vts_reward_expectancy,2022.2.4,MacIntel,60.0024001,Chrome,1680,1050,,,l,0.6337,10,242,0,2,10,34,0,1,1,0,0,0,0,1,0,0,triangle,circle,,,,,,,,,,,,,,,,,,,,,,,,,,,,,,,,,,,,,,,,,,,,,,,,,,,,,,
295519,2022-10-03_13h14.10.935,vts_reward_expectancy,2022.2.4,MacIntel,60.0024001,Chrome,1680,1050,,,a,0.5326,1,243,0,2,11,35,3,1,0,1,0,0,1,0,0,0,circle,triangle,,,,,,,,,,,,,,,,,,,,,,,,,,,,,,,,,,,,,,,,,,,,,,,,,,,,,,
295519,2022-10-03_13h14.10.935,vts_reward_expectancy,2022.2.4,MacIntel,60.0024001,Chrome,1680,1050,,,a,0.8465,10,253,1,0,0,0,1,1,1,0,0,0,0,0,1,0,triangle,hexagon,,,,,,,,,,,,,,,,,,,,,,,,,,,,,,,,,,,,,,,,,,,,,,,,,,,,,,
295519,2022-10-03_13h14.10.935,vts_reward_expectancy,2022.2.4,MacIntel,60.0024001,Chrome,1680,1050,,,l,0.6342,1,254,1,0,1,1,0,1,1,0,0,0,0,1,0,0,triangle,circle,,,,,,,,,,,,,,,,,,,,,,,,,,,,,,,,,,,,,,,,,,,,,,,,,,,,,,
295519,2022-10-03_13h14.10.935,vts_reward_expectancy,2022.2.4,MacIntel,60.0024001,Chrome,1680,1050,,,l,0.5334,1,255,1,0,2,2,7,1,0,0,1,0,0,1,0,0,hexagon,circle,,,,,,,,,,,,,,,,,,,,,,,,,,,,,,,,,,,,,,,,,,,,,,,,,,,,,,
295519,2022-10-03_13h14.10.935,vts_reward_expectancy,2022.2.4,MacIntel,60.0024001,Chrome,1680,1050,,,a,0.5673,1,256,1,0,3,3,4,1,0,1,0,0,0,0,1,0,circle,hexagon,,,,,,,,,,,,,,,,,,,,,,,,,,,,,,,,,,,,,,,,,,,,,,,,,,,,,,
295519,2022-10-03_13h14.10.935,vts_reward_expectancy,2022.2.4,MacIntel,60.0024001,Chrome,1680,1050,,,a,0.6663,1,257,1,0,4,4,8,1,0,0,1,0,0,0,0,1,hexagon,star,,,,,,,,,,,,,,,,,,,,,,,,,,,,,,,,,,,,,,,,,,,,,,,,,,,,,,
295519,2022-10-03_13h14.10.935,vts_reward_expectancy,2022.2.4,MacIntel,60.0024001,Chrome,1680,1050,,,l,0.5021,10,267,1,0,5,5,6,1,0,0,1,0,1,0,0,0,hexagon,triangle,,,,,,,,,,,,,,,,,,,,,,,,,,,,,,,,,,,,,,,,,,,,,,,,,,,,,,
295519,2022-10-03_13h14.10.935,vts_reward_expectancy,2022.2.4,MacIntel,60.0024001,Chrome,1680,1050,,,l,0.6165,10,277,1,0,6,6,2,1,1,0,0,0,0,0,0,1,triangle,star,,,,,,,,,,,,,,,,,,,,,,,,,,,,,,,,,,,,,,,,,,,,,,,,,,,,,,
295519,2022-10-03_13h14.10.935,vts_reward_expectancy,2022.2.4,MacIntel,60.0024001,Chrome,1680,1050,,,a,0.583,10,287,1,0,7,7,10,1,0,0,0,1,0,1,0,0,star ,circle,,,,,,,,,,,,,,,,,,,,,,,,,,,,,,,,,,,,,,,,,,,,,,,,,,,,,,
295519,2022-10-03_13h14.10.935,vts_reward_expectancy,2022.2.4,MacIntel,60.0024001,Chrome,1680,1050,,,a,0.5666,1,288,1,0,8,8,9,1,0,0,0,1,1,0,0,0,star,triangle,,,,,,,,,,,,,,,,,,,,,,,,,,,,,,,,,,,,,,,,,,,,,,,,,,,,,,
295519,2022-10-03_13h14.10.935,vts_reward_expectancy,2022.2.4,MacIntel,60.0024001,Chrome,1680,1050,,,a,0.5322,1,289,1,0,9,9,3,1,0,1,0,0,1,0,0,0,circle,triangle,,,,,,,,,,,,,,,,,,,,,,,,,,,,,,,,,,,,,,,,,,,,,,,,,,,,,,
295519,2022-10-03_13h14.10.935,vts_reward_expectancy,2022.2.4,MacIntel,60.0024001,Chrome,1680,1050,,,a,0.4998,10,299,1,0,10,10,5,1,0,1,0,0,0,0,0,1,circle,star,,,,,,,,,,,,,,,,,,,,,,,,,,,,,,,,,,,,,,,,,,,,,,,,,,,,,,
295519,2022-10-03_13h14.10.935,vts_reward_expectancy,2022.2.4,MacIntel,60.0024001,Chrome,1680,1050,,,l,0.4676,1,300,1,0,11,11,11,1,0,0,0,1,0,0,1,0,star,hexagon,,,,,,,,,,,,,,,,,,,,,,,,,,,,,,,,,,,,,,,,,,,,,,,,,,,,,,
295519,2022-10-03_13h14.10.935,vts_reward_expectancy,2022.2.4,MacIntel,60.0024001,Chrome,1680,1050,,,a,0.6159,10,310,1,1,0,12,4,1,0,1,0,0,0,0,1,0,circle,hexagon,,,,,,,,,,,,,,,,,,,,,,,,,,,,,,,,,,,,,,,,,,,,,,,,,,,,,,
295519,2022-10-03_13h14.10.935,vts_reward_expectancy,2022.2.4,MacIntel,60.0024001,Chrome,1680,1050,,,l,0.4991,10,320,1,1,1,13,10,1,0,0,0,1,0,1,0,0,star ,circle,,,,,,,,,,,,,,,,,,,,,,,,,,,,,,,,,,,,,,,,,,,,,,,,,,,,,,
295519,2022-10-03_13h14.10.935,vts_reward_expectancy,2022.2.4,MacIntel,60.0024001,Chrome,1680,1050,,,a,0.9168,1,321,1,1,2,14,1,1,1,0,0,0,0,0,1,0,triangle,hexagon,,,,,,,,,,,,,,,,,,,,,,,,,,,,,,,,,,,,,,,,,,,,,,,,,,,,,,
295519,2022-10-03_13h14.10.935,vts_reward_expectancy,2022.2.4,MacIntel,60.0024001,Chrome,1680,1050,,,l,0.9159,10,331,1,1,3,15,0,1,1,0,0,0,0,1,0,0,triangle,circle,,,,,,,,,,,,,,,,,,,,,,,,,,,,,,,,,,,,,,,,,,,,,,,,,,,,,,
295519,2022-10-03_13h14.10.935,vts_reward_expectancy,2022.2.4,MacIntel,60.0024001,Chrome,1680,1050,,,a,0.7501,10,341,1,1,4,16,3,1,0,1,0,0,1,0,0,0,circle,triangle,,,,,,,,,,,,,,,,,,,,,,,,,,,,,,,,,,,,,,,,,,,,,,,,,,,,,,
295519,2022-10-03_13h14.10.935,vts_reward_expectancy,2022.2.4,MacIntel,60.0024001,Chrome,1680,1050,,,a,0.9171,10,351,1,1,5,17,5,1,0,1,0,0,0,0,0,1,circle,star,,,,,,,,,,,,,,,,,,,,,,,,,,,,,,,,,,,,,,,,,,,,,,,,,,,,,,
295519,2022-10-03_13h14.10.935,vts_reward_expectancy,2022.2.4,MacIntel,60.0024001,Chrome,1680,1050,,,l,0.8998,10,361,1,1,6,18,7,1,0,0,1,0,0,1,0,0,hexagon,circle,,,,,,,,,,,,,,,,,,,,,,,,,,,,,,,,,,,,,,,,,,,,,,,,,,,,,,
295519,2022-10-03_13h14.10.935,vts_reward_expectancy,2022.2.4,MacIntel,60.0024001,Chrome,1680,1050,,,a,1.4002,1,362,1,1,7,19,6,1,0,0,1,0,1,0,0,0,hexagon,triangle,,,,,,,,,,,,,,,,,,,,,,,,,,,,,,,,,,,,,,,,,,,,,,,,,,,,,,
295519,2022-10-03_13h14.10.935,vts_reward_expectancy,2022.2.4,MacIntel,60.0024001,Chrome,1680,1050,,,l,1.0168,1,363,1,1,8,20,11,1,0,0,0,1,0,0,1,0,star,hexagon,,,,,,,,,,,,,,,,,,,,,,,,,,,,,,,,,,,,,,,,,,,,,,,,,,,,,,
295519,2022-10-03_13h14.10.935,vts_reward_expectancy,2022.2.4,MacIntel,60.0024001,Chrome,1680,1050,,,a,0.9836,1,364,1,1,9,21,9,1,0,0,0,1,1,0,0,0,star,triangle,,,,,,,,,,,,,,,,,,,,,,,,,,,,,,,,,,,,,,,,,,,,,,,,,,,,,,
295519,2022-10-03_13h14.10.935,vts_reward_expectancy,2022.2.4,MacIntel,60.0024001,Chrome,1680,1050,,,l,1.1506,10,374,1,1,10,22,2,1,1,0,0,0,0,0,0,1,triangle,star,,,,,,,,,,,,,,,,,,,,,,,,,,,,,,,,,,,,,,,,,,,,,,,,,,,,,,
295519,2022-10-03_13h14.10.935,vts_reward_expectancy,2022.2.4,MacIntel,60.0024001,Chrome,1680,1050,,,a,0.9856,1,375,1,1,11,23,8,1,0,0,1,0,0,0,0,1,hexagon,star,,,,,,,,,,,,,,,,,,,,,,,,,,,,,,,,,,,,,,,,,,,,,,,,,,,,,,
295519,2022-10-03_13h14.10.935,vts_reward_expectancy,2022.2.4,MacIntel,60.0024001,Chrome,1680,1050,,,l,0.7835,1,376,1,2,0,24,10,1,0,0,0,1,0,1,0,0,star ,circle,,,,,,,,,,,,,,,,,,,,,,,,,,,,,,,,,,,,,,,,,,,,,,,,,,,,,,
295519,2022-10-03_13h14.10.935,vts_reward_expectancy,2022.2.4,MacIntel,60.0024001,Chrome,1680,1050,,,l,0.8172,10,386,1,2,1,25,0,1,1,0,0,0,0,1,0,0,triangle,circle,,,,,,,,,,,,,,,,,,,,,,,,,,,,,,,,,,,,,,,,,,,,,,,,,,,,,,
295519,2022-10-03_13h14.10.935,vts_reward_expectancy,2022.2.4,MacIntel,60.0024001,Chrome,1680,1050,,,a,1.0163,1,387,1,2,2,26,11,1,0,0,0,1,0,0,1,0,star,hexagon,,,,,,,,,,,,,,,,,,,,,,,,,,,,,,,,,,,,,,,,,,,,,,,,,,,,,,
295519,2022-10-03_13h14.10.935,vts_reward_expectancy,2022.2.4,MacIntel,60.0024001,Chrome,1680,1050,,,a,1.1,10,397,1,2,3,27,1,1,1,0,0,0,0,0,1,0,triangle,hexagon,,,,,,,,,,,,,,,,,,,,,,,,,,,,,,,,,,,,,,,,,,,,,,,,,,,,,,
295519,2022-10-03_13h14.10.935,vts_reward_expectancy,2022.2.4,MacIntel,60.0024001,Chrome,1680,1050,,,l,0.7502,10,407,1,2,4,28,7,1,0,0,1,0,0,1,0,0,hexagon,circle,,,,,,,,,,,,,,,,,,,,,,,,,,,,,,,,,,,,,,,,,,,,,,,,,,,,,,
295519,2022-10-03_13h14.10.935,vts_reward_expectancy,2022.2.4,MacIntel,60.0024001,Chrome,1680,1050,,,l,1.0005,10,417,1,2,5,29,8,1,0,0,1,0,0,0,0,1,hexagon,star,,,,,,,,,,,,,,,,,,,,,,,,,,,,,,,,,,,,,,,,,,,,,,,,,,,,,,
295519,2022-10-03_13h14.10.935,vts_reward_expectancy,2022.2.4,MacIntel,60.0024001,Chrome,1680,1050,,,a,0.9177,10,427,1,2,6,30,4,1,0,1,0,0,0,0,1,0,circle,hexagon,,,,,,,,,,,,,,,,,,,,,,,,,,,,,,,,,,,,,,,,,,,,,,,,,,,,,,
295519,2022-10-03_13h14.10.935,vts_reward_expectancy,2022.2.4,MacIntel,60.0024001,Chrome,1680,1050,,,l,0.8689,10,437,1,2,7,31,6,1,0,0,1,0,1,0,0,0,hexagon,triangle,,,,,,,,,,,,,,,,,,,,,,,,,,,,,,,,,,,,,,,,,,,,,,,,,,,,,,
295519,2022-10-03_13h14.10.935,vts_reward_expectancy,2022.2.4,MacIntel,60.0024001,Chrome,1680,1050,,,l,0.6822,1,438,1,2,8,32,5,1,0,1,0,0,0,0,0,1,circle,star,,,,,,,,,,,,,,,,,,,,,,,,,,,,,,,,,,,,,,,,,,,,,,,,,,,,,,
295519,2022-10-03_13h14.10.935,vts_reward_expectancy,2022.2.4,MacIntel,60.0024001,Chrome,1680,1050,,,a,0.5834,1,439,1,2,9,33,3,1,0,1,0,0,1,0,0,0,circle,triangle,,,,,,,,,,,,,,,,,,,,,,,,,,,,,,,,,,,,,,,,,,,,,,,,,,,,,,
295519,2022-10-03_13h14.10.935,vts_reward_expectancy,2022.2.4,MacIntel,60.0024001,Chrome,1680,1050,,,l,0.6506,10,449,1,2,10,34,2,1,1,0,0,0,0,0,0,1,triangle,star,,,,,,,,,,,,,,,,,,,,,,,,,,,,,,,,,,,,,,,,,,,,,,,,,,,,,,
295519,2022-10-03_13h14.10.935,vts_reward_expectancy,2022.2.4,MacIntel,60.0024001,Chrome,1680,1050,,,l,0.8349,10,459,1,2,11,35,9,1,0,0,0,1,1,0,0,0,star,triangle,,,,,,,,,,,,,,,,,,,,,,,,,,,,,,,,,,,,,,,,,,,,,,,,,,,,,,
295519,2022-10-03_13h14.10.935,vts_reward_expectancy,2022.2.4,MacIntel,60.0024001,Chrome,1680,1050,,,l,1.1002,10,469,2,0,0,0,8,1,0,0,1,0,0,0,0,1,hexagon,star,,,,,,,,,,,,,,,,,,,,,,,,,,,,,,,,,,,,,,,,,,,,,,,,,,,,,,
295519,2022-10-03_13h14.10.935,vts_reward_expectancy,2022.2.4,MacIntel,60.0024001,Chrome,1680,1050,,,a,1.3671,10,479,2,0,1,1,1,1,1,0,0,0,0,0,1,0,triangle,hexagon,,,,,,,,,,,,,,,,,,,,,,,,,,,,,,,,,,,,,,,,,,,,,,,,,,,,,,
295519,2022-10-03_13h14.10.935,vts_reward_expectancy,2022.2.4,MacIntel,60.0024001,Chrome,1680,1050,,,l,0.6171,1,480,2,0,2,2,0,1,1,0,0,0,0,1,0,0,triangle,circle,,,,,,,,,,,,,,,,,,,,,,,,,,,,,,,,,,,,,,,,,,,,,,,,,,,,,,
295519,2022-10-03_13h14.10.935,vts_reward_expectancy,2022.2.4,MacIntel,60.0024001,Chrome,1680,1050,,,a,0.8192,10,490,2,0,3,3,2,1,1,0,0,0,0,0,0,1,triangle,star,,,,,,,,,,,,,,,,,,,,,,,,,,,,,,,,,,,,,,,,,,,,,,,,,,,,,,
295519,2022-10-03_13h14.10.935,vts_reward_expectancy,2022.2.4,MacIntel,60.0024001,Chrome,1680,1050,,,l,0.6499,10,500,2,0,4,4,7,1,0,0,1,0,0,1,0,0,hexagon,circle,,,,,,,,,,,,,,,,,,,,,,,,,,,,,,,,,,,,,,,,,,,,,,,,,,,,,,
295519,2022-10-03_13h14.10.935,vts_reward_expectancy,2022.2.4,MacIntel,60.0024001,Chrome,1680,1050,,,l,0.5998,1,501,2,0,5,5,10,1,0,0,0,1,0,1,0,0,star ,circle,,,,,,,,,,,,,,,,,,,,,,,,,,,,,,,,,,,,,,,,,,,,,,,,,,,,,,
295519,2022-10-03_13h14.10.935,vts_reward_expectancy,2022.2.4,MacIntel,60.0024001,Chrome,1680,1050,,,l,0.8337,1,502,2,0,6,6,6,1,0,0,1,0,1,0,0,0,hexagon,triangle,,,,,,,,,,,,,,,,,,,,,,,,,,,,,,,,,,,,,,,,,,,,,,,,,,,,,,
295519,2022-10-03_13h14.10.935,vts_reward_expectancy,2022.2.4,MacIntel,60.0024001,Chrome,1680,1050,,,l,0.5309,10,512,2,0,7,7,11,1,0,0,0,1,0,0,1,0,star,hexagon,,,,,,,,,,,,,,,,,,,,,,,,,,,,,,,,,,,,,,,,,,,,,,,,,,,,,,
295519,2022-10-03_13h14.10.935,vts_reward_expectancy,2022.2.4,MacIntel,60.0024001,Chrome,1680,1050,,,l,0.7002,10,522,2,0,8,8,9,1,0,0,0,1,1,0,0,0,star,triangle,,,,,,,,,,,,,,,,,,,,,,,,,,,,,,,,,,,,,,,,,,,,,,,,,,,,,,
295519,2022-10-03_13h14.10.935,vts_reward_expectancy,2022.2.4,MacIntel,60.0024001,Chrome,1680,1050,,,a,0.636,1,523,2,0,9,9,3,1,0,1,0,0,1,0,0,0,circle,triangle,,,,,,,,,,,,,,,,,,,,,,,,,,,,,,,,,,,,,,,,,,,,,,,,,,,,,,
295519,2022-10-03_13h14.10.935,vts_reward_expectancy,2022.2.4,MacIntel,60.0024001,Chrome,1680,1050,,,l,0.7336,1,524,2,0,10,10,5,1,0,1,0,0,0,0,0,1,circle,star,,,,,,,,,,,,,,,,,,,,,,,,,,,,,,,,,,,,,,,,,,,,,,,,,,,,,,
295519,2022-10-03_13h14.10.935,vts_reward_expectancy,2022.2.4,MacIntel,60.0024001,Chrome,1680,1050,,,a,0.6836,10,534,2,0,11,11,4,1,0,1,0,0,0,0,1,0,circle,hexagon,,,,,,,,,,,,,,,,,,,,,,,,,,,,,,,,,,,,,,,,,,,,,,,,,,,,,,
295519,2022-10-03_13h14.10.935,vts_reward_expectancy,2022.2.4,MacIntel,60.0024001,Chrome,1680,1050,,,a,0.5835,10,544,2,1,0,12,4,1,0,1,0,0,0,0,1,0,circle,hexagon,,,,,,,,,,,,,,,,,,,,,,,,,,,,,,,,,,,,,,,,,,,,,,,,,,,,,,
295519,2022-10-03_13h14.10.935,vts_reward_expectancy,2022.2.4,MacIntel,60.0024001,Chrome,1680,1050,,,a,0.5836,10,554,2,1,1,13,2,1,1,0,0,0,0,0,0,1,triangle,star,,,,,,,,,,,,,,,,,,,,,,,,,,,,,,,,,,,,,,,,,,,,,,,,,,,,,,
295519,2022-10-03_13h14.10.935,vts_reward_expectancy,2022.2.4,MacIntel,60.0024001,Chrome,1680,1050,,,l,0.5164,10,564,2,1,2,14,7,1,0,0,1,0,0,1,0,0,hexagon,circle,,,,,,,,,,,,,,,,,,,,,,,,,,,,,,,,,,,,,,,,,,,,,,,,,,,,,,
295519,2022-10-03_13h14.10.935,vts_reward_expectancy,2022.2.4,MacIntel,60.0024001,Chrome,1680,1050,,,l,0.5163,10,574,2,1,3,15,10,1,0,0,0,1,0,1,0,0,star ,circle,,,,,,,,,,,,,,,,,,,,,,,,,,,,,,,,,,,,,,,,,,,,,,,,,,,,,,
295519,2022-10-03_13h14.10.935,vts_reward_expectancy,2022.2.4,MacIntel,60.0024001,Chrome,1680,1050,,,a,0.4838,10,584,2,1,4,16,1,1,1,0,0,0,0,0,1,0,triangle,hexagon,,,,,,,,,,,,,,,,,,,,,,,,,,,,,,,,,,,,,,,,,,,,,,,,,,,,,,
295519,2022-10-03_13h14.10.935,vts_reward_expectancy,2022.2.4,MacIntel,60.0024001,Chrome,1680,1050,,,l,0.3835,10,594,2,1,5,17,6,1,0,0,1,0,1,0,0,0,hexagon,triangle,,,,,,,,,,,,,,,,,,,,,,,,,,,,,,,,,,,,,,,,,,,,,,,,,,,,,,
295519,2022-10-03_13h14.10.935,vts_reward_expectancy,2022.2.4,MacIntel,60.0024001,Chrome,1680,1050,,,l,0.6841,10,604,2,1,6,18,9,1,0,0,0,1,1,0,0,0,star,triangle,,,,,,,,,,,,,,,,,,,,,,,,,,,,,,,,,,,,,,,,,,,,,,,,,,,,,,
295519,2022-10-03_13h14.10.935,vts_reward_expectancy,2022.2.4,MacIntel,60.0024001,Chrome,1680,1050,,,l,0.5505,10,614,2,1,7,19,0,1,1,0,0,0,0,1,0,0,triangle,circle,,,,,,,,,,,,,,,,,,,,,,,,,,,,,,,,,,,,,,,,,,,,,,,,,,,,,,
295519,2022-10-03_13h14.10.935,vts_reward_expectancy,2022.2.4,MacIntel,60.0024001,Chrome,1680,1050,,,l,0.5167,1,615,2,1,8,20,5,1,0,1,0,0,0,0,0,1,circle,star,,,,,,,,,,,,,,,,,,,,,,,,,,,,,,,,,,,,,,,,,,,,,,,,,,,,,,
295519,2022-10-03_13h14.10.935,vts_reward_expectancy,2022.2.4,MacIntel,60.0024001,Chrome,1680,1050,,,a,0.5173,1,616,2,1,9,21,3,1,0,1,0,0,1,0,0,0,circle,triangle,,,,,,,,,,,,,,,,,,,,,,,,,,,,,,,,,,,,,,,,,,,,,,,,,,,,,,
295519,2022-10-03_13h14.10.935,vts_reward_expectancy,2022.2.4,MacIntel,60.0024001,Chrome,1680,1050,,,l,0.5839,1,617,2,1,10,22,8,1,0,0,1,0,0,0,0,1,hexagon,star,,,,,,,,,,,,,,,,,,,,,,,,,,,,,,,,,,,,,,,,,,,,,,,,,,,,,,
295519,2022-10-03_13h14.10.935,vts_reward_expectancy,2022.2.4,MacIntel,60.0024001,Chrome,1680,1050,,,l,0.5838,1,618,2,1,11,23,11,1,0,0,0,1,0,0,1,0,star,hexagon,,,,,,,,,,,,,,,,,,,,,,,,,,,,,,,,,,,,,,,,,,,,,,,,,,,,,,
295519,2022-10-03_13h14.10.935,vts_reward_expectancy,2022.2.4,MacIntel,60.0024001,Chrome,1680,1050,,,l,0.5698,10,628,2,2,0,24,11,1,0,0,0,1,0,0,1,0,star,hexagon,,,,,,,,,,,,,,,,,,,,,,,,,,,,,,,,,,,,,,,,,,,,,,,,,,,,,,
295519,2022-10-03_13h14.10.935,vts_reward_expectancy,2022.2.4,MacIntel,60.0024001,Chrome,1680,1050,,,a,0.4174,10,638,2,2,1,25,5,1,0,1,0,0,0,0,0,1,circle,star,,,,,,,,,,,,,,,,,,,,,,,,,,,,,,,,,,,,,,,,,,,,,,,,,,,,,,
295519,2022-10-03_13h14.10.935,vts_reward_expectancy,2022.2.4,MacIntel,60.0024001,Chrome,1680,1050,,,l,0.5506,1,639,2,2,2,26,8,1,0,0,1,0,0,0,0,1,hexagon,star,,,,,,,,,,,,,,,,,,,,,,,,,,,,,,,,,,,,,,,,,,,,,,,,,,,,,,
295519,2022-10-03_13h14.10.935,vts_reward_expectancy,2022.2.4,MacIntel,60.0024001,Chrome,1680,1050,,,l,0.5161,1,640,2,2,3,27,0,1,1,0,0,0,0,1,0,0,triangle,circle,,,,,,,,,,,,,,,,,,,,,,,,,,,,,,,,,,,,,,,,,,,,,,,,,,,,,,
295519,2022-10-03_13h14.10.935,vts_reward_expectancy,2022.2.4,MacIntel,60.0024001,Chrome,1680,1050,,,l,0.4178,1,641,2,2,4,28,10,1,0,0,0,1,0,1,0,0,star ,circle,,,,,,,,,,,,,,,,,,,,,,,,,,,,,,,,,,,,,,,,,,,,,,,,,,,,,,
295519,2022-10-03_13h14.10.935,vts_reward_expectancy,2022.2.4,MacIntel,60.0024001,Chrome,1680,1050,,,l,0.5506,1,642,2,2,5,29,3,1,0,1,0,0,1,0,0,0,circle,triangle,,,,,,,,,,,,,,,,,,,,,,,,,,,,,,,,,,,,,,,,,,,,,,,,,,,,,,
295519,2022-10-03_13h14.10.935,vts_reward_expectancy,2022.2.4,MacIntel,60.0024001,Chrome,1680,1050,,,l,0.5855,10,652,2,2,6,30,6,1,0,0,1,0,1,0,0,0,hexagon,triangle,,,,,,,,,,,,,,,,,,,,,,,,,,,,,,,,,,,,,,,,,,,,,,,,,,,,,,
295519,2022-10-03_13h14.10.935,vts_reward_expectancy,2022.2.4,MacIntel,60.0024001,Chrome,1680,1050,,,a,0.4829,1,653,2,2,7,31,4,1,0,1,0,0,0,0,1,0,circle,hexagon,,,,,,,,,,,,,,,,,,,,,,,,,,,,,,,,,,,,,,,,,,,,,,,,,,,,,,
295519,2022-10-03_13h14.10.935,vts_reward_expectancy,2022.2.4,MacIntel,60.0024001,Chrome,1680,1050,,,l,0.3359,10,663,2,2,8,32,7,1,0,0,1,0,0,1,0,0,hexagon,circle,,,,,,,,,,,,,,,,,,,,,,,,,,,,,,,,,,,,,,,,,,,,,,,,,,,,,,
295519,2022-10-03_13h14.10.935,vts_reward_expectancy,2022.2.4,MacIntel,60.0024001,Chrome,1680,1050,,,l,0.6024,10,673,2,2,9,33,2,1,1,0,0,0,0,0,0,1,triangle,star,,,,,,,,,,,,,,,,,,,,,,,,,,,,,,,,,,,,,,,,,,,,,,,,,,,,,,
295519,2022-10-03_13h14.10.935,vts_reward_expectancy,2022.2.4,MacIntel,60.0024001,Chrome,1680,1050,,,l,0.4672,1,674,2,2,10,34,1,1,1,0,0,0,0,0,1,0,triangle,hexagon,,,,,,,,,,,,,,,,,,,,,,,,,,,,,,,,,,,,,,,,,,,,,,,,,,,,,,
295519,2022-10-03_13h14.10.935,vts_reward_expectancy,2022.2.4,MacIntel,60.0024001,Chrome,1680,1050,,,l,0.5506,10,684,2,2,11,35,9,1,0,0,0,1,1,0,0,0,star,triangle,,,,,,,,,,,,,,,,,,,,,,,,,,,,,,,,,,,,,,,,,,,,,,,,,,,,,,
295519,2022-10-03_13h14.10.935,vts_reward_expectancy,2022.2.4,MacIntel,60.0024001,Chrome,1680,1050,,,,,,,,,,,,,,,,,,,,,,,U,146,star,0,0,,0,0,0,0,0,1,,,,,,,,,,,,,,,,,,,,,,,,,,,,,,,,,,,,,,,,,,
295519,2022-10-03_13h14.10.935,vts_reward_expectancy,2022.2.4,MacIntel,60.0024001,Chrome,1680,1050,,,,,,,,,,,,,,,,,,,,,,,H,181,circle,0,1,,0,1,0,1,0,1,,,,,,,,,,,,,,,,,,,,,,,,,,,,,,,,,,,,,,,,,,
295519,2022-10-03_13h14.10.935,vts_reward_expectancy,2022.2.4,MacIntel,60.0024001,Chrome,1680,1050,,,,,,,,,,,,,,,,,,,,,,,S,139,triangle,2,1,k,0,2,0,2,0,1,1.3158,,,,,,,,,,,,,,,,,,,,,,,,,,,,,,,,,,,,,,,,,
295519,2022-10-03_13h14.10.935,vts_reward_expectancy,2022.2.4,MacIntel,60.0024001,Chrome,1680,1050,,,,,,,,,,,,,,,,,,,,,,,B,132,hexagon,1,0,d,0,3,0,3,0,1,2.1333,,,,,,,,,,,,,,,,,,,,,,,,,,,,,,,,,,,,,,,,,
295519,2022-10-03_13h14.10.935,vts_reward_expectancy,2022.2.4,MacIntel,60.0024001,Chrome,1680,1050,,,,,,,,,,,,,,,,,,,,,,,Y,125,star,2,0,j,0,4,0,4,0,1,0.5511,,,,,,,,,,,,,,,,,,,,,,,,,,,,,,,,,,,,,,,,,
295519,2022-10-03_13h14.10.935,vts_reward_expectancy,2022.2.4,MacIntel,60.0024001,Chrome,1680,1050,,,,,,,,,,,,,,,,,,,,,,,W,160,circle,1,0,f,0,5,0,5,0,1,0.8161,,,,,,,,,,,,,,,,,,,,,,,,,,,,,,,,,,,,,,,,,
295519,2022-10-03_13h14.10.935,vts_reward_expectancy,2022.2.4,MacIntel,60.0024001,Chrome,1680,1050,,,,,,,,,,,,,,,,,,,,,,,D,167,triangle,1,0,d,0,6,0,6,0,1,0.7673,,,,,,,,,,,,,,,,,,,,,,,,,,,,,,,,,,,,,,,,,
295519,2022-10-03_13h14.10.935,vts_reward_expectancy,2022.2.4,MacIntel,60.0024001,Chrome,1680,1050,,,,,,,,,,,,,,,,,,,,,,,F,174,hexagon,1,0,d,0,7,0,7,0,1,0.785,,,,,,,,,,,,,,,,,,,,,,,,,,,,,,,,,,,,,,,,,
295519,2022-10-03_13h14.10.935,vts_reward_expectancy,2022.2.4,MacIntel,60.0024001,Chrome,1680,1050,,,,,,,,,,,,,,,,,,,,,,,U,146,star,1,0,f,0,8,0,8,0,1,0.8335,,,,,,,,,,,,,,,,,,,,,,,,,,,,,,,,,,,,,,,,,
295519,2022-10-03_13h14.10.935,vts_reward_expectancy,2022.2.4,MacIntel,60.0024001,Chrome,1680,1050,,,,,,,,,,,,,,,,,,,,,,,H,181,circle,1,0,d,0,9,0,9,0,1,0.7161,,,,,,,,,,,,,,,,,,,,,,,,,,,,,,,,,,,,,,,,,
295519,2022-10-03_13h14.10.935,vts_reward_expectancy,2022.2.4,MacIntel,60.0024001,Chrome,1680,1050,,,,,,,,,,,,,,,,,,,,,,,B,139,hexagon,1,0,d,1,0,0,0,0,1,0.682,,,,,,,,,,,,,,,,,,,,,,,,,,,,,,,,,,,,,,,,,
295519,2022-10-03_13h14.10.935,vts_reward_expectancy,2022.2.4,MacIntel,60.0024001,Chrome,1680,1050,,,,,,,,,,,,,,,,,,,,,,,D,160,triangle,1,0,d,1,1,0,1,0,1,0.616,,,,,,,,,,,,,,,,,,,,,,,,,,,,,,,,,,,,,,,,,
295519,2022-10-03_13h14.10.935,vts_reward_expectancy,2022.2.4,MacIntel,60.0024001,Chrome,1680,1050,,,,,,,,,,,,,,,,,,,,,,,S,132,star,1,0,f,1,2,0,2,0,1,0.6339,,,,,,,,,,,,,,,,,,,,,,,,,,,,,,,,,,,,,,,,,
295519,2022-10-03_13h14.10.935,vts_reward_expectancy,2022.2.4,MacIntel,60.0024001,Chrome,1680,1050,,,,,,,,,,,,,,,,,,,,,,,W,167,circle,1,0,f,1,3,0,3,0,1,0.649,,,,,,,,,,,,,,,,,,,,,,,,,,,,,,,,,,,,,,,,,
295519,2022-10-03_13h14.10.935,vts_reward_expectancy,2022.2.4,MacIntel,60.0024001,Chrome,1680,1050,,,,,,,,,,,,,,,,,,,,,,,F,146,hexagon,1,0,d,1,4,0,4,0,1,0.7487,,,,,,,,,,,,,,,,,,,,,,,,,,,,,,,,,,,,,,,,,
295519,2022-10-03_13h14.10.935,vts_reward_expectancy,2022.2.4,MacIntel,60.0024001,Chrome,1680,1050,,,,,,,,,,,,,,,,,,,,,,,U,181,triangle,1,0,f,1,5,0,5,0,1,0.6323,,,,,,,,,,,,,,,,,,,,,,,,,,,,,,,,,,,,,,,,,
295519,2022-10-03_13h14.10.935,vts_reward_expectancy,2022.2.4,MacIntel,60.0024001,Chrome,1680,1050,,,,,,,,,,,,,,,,,,,,,,,Y,125,star,1,0,f,1,6,0,6,0,1,0.7996,,,,,,,,,,,,,,,,,,,,,,,,,,,,,,,,,,,,,,,,,
295519,2022-10-03_13h14.10.935,vts_reward_expectancy,2022.2.4,MacIntel,60.0024001,Chrome,1680,1050,,,,,,,,,,,,,,,,,,,,,,,H,174,circle,1,0,d,1,7,0,7,0,1,0.7833,,,,,,,,,,,,,,,,,,,,,,,,,,,,,,,,,,,,,,,,,
295519,2022-10-03_13h14.10.935,vts_reward_expectancy,2022.2.4,MacIntel,60.0024001,Chrome,1680,1050,,,,,,,,,,,,,,,,,,,,,,,B,139,circle,1,0,d,1,8,0,8,0,1,0.649,,,,,,,,,,,,,,,,,,,,,,,,,,,,,,,,,,,,,,,,,
295519,2022-10-03_13h14.10.935,vts_reward_expectancy,2022.2.4,MacIntel,60.0024001,Chrome,1680,1050,,,,,,,,,,,,,,,,,,,,,,,D,160,triangle,1,0,d,1,9,0,9,0,1,0.6002,,,,,,,,,,,,,,,,,,,,,,,,,,,,,,,,,,,,,,,,,
295519,2022-10-03_13h14.10.935,vts_reward_expectancy,2022.2.4,MacIntel,60.0024001,Chrome,1680,1050,,,,,,,,,,,,,,,,,,,,,,,S,181,hexagon,1,0,,2,,,,,,,k,0.667,0,0,0,0,1,,,,,,,,,,,,,,,,,,,,,,,,,,,,,,,,,,
295519,2022-10-03_13h14.10.935,vts_reward_expectancy,2022.2.4,MacIntel,60.0024001,Chrome,1680,1050,,,,,,,,,,,,,,,,,,,,,,,W,174,triangle,1,0,,2,,,,,,,k,0.7993,1,0,1,0,1,,,,,,,,,,,,,,,,,,,,,,,,,,,,,,,,,,
295519,2022-10-03_13h14.10.935,vts_reward_expectancy,2022.2.4,MacIntel,60.0024001,Chrome,1680,1050,,,,,,,,,,,,,,,,,,,,,,,D,125,star,1,0,,2,,,,,,,j,0.9672,2,0,2,0,1,,,,,,,,,,,,,,,,,,,,,,,,,,,,,,,,,,
295519,2022-10-03_13h14.10.935,vts_reward_expectancy,2022.2.4,MacIntel,60.0024001,Chrome,1680,1050,,,,,,,,,,,,,,,,,,,,,,,U,132,circle,1,0,,2,,,,,,,j,2.0822,3,0,3,0,1,,,,,,,,,,,,,,,,,,,,,,,,,,,,,,,,,,
295519,2022-10-03_13h14.10.935,vts_reward_expectancy,2022.2.4,MacIntel,60.0024001,Chrome,1680,1050,,,,,,,,,,,,,,,,,,,,,,,H,167,hexagon,1,0,,2,,,,,,,k,0.7991,4,0,4,0,1,,,,,,,,,,,,,,,,,,,,,,,,,,,,,,,,,,
295519,2022-10-03_13h14.10.935,vts_reward_expectancy,2022.2.4,MacIntel,60.0024001,Chrome,1680,1050,,,,,,,,,,,,,,,,,,,,,,,B,146,triangle,1,0,,2,,,,,,,j,0.5159,5,0,5,0,1,,,,,,,,,,,,,,,,,,,,,,,,,,,,,,,,,,
295519,2022-10-03_13h14.10.935,vts_reward_expectancy,2022.2.4,MacIntel,60.0024001,Chrome,1680,1050,,,,,,,,,,,,,,,,,,,,,,,Y,160,star,1,0,,2,,,,,,,k,0.9662,6,0,6,0,1,,,,,,,,,,,,,,,,,,,,,,,,,,,,,,,,,,
295519,2022-10-03_13h14.10.935,vts_reward_expectancy,2022.2.4,MacIntel,60.0024001,Chrome,1680,1050,,,,,,,,,,,,,,,,,,,,,,,F,139,circle,1,0,,2,,,,,,,j,0.8995,7,0,7,0,1,,,,,,,,,,,,,,,,,,,,,,,,,,,,,,,,,,
295519,2022-10-03_13h14.10.935,vts_reward_expectancy,2022.2.4,MacIntel,60.0024001,Chrome,1680,1050,,,,,,,,,,,,,,,,,,,,,,,S,181,hexagon,1,0,,2,,,,,,,k,0.6847,8,0,8,0,1,,,,,,,,,,,,,,,,,,,,,,,,,,,,,,,,,,
295519,2022-10-03_13h14.10.935,vts_reward_expectancy,2022.2.4,MacIntel,60.0024001,Chrome,1680,1050,,,,,,,,,,,,,,,,,,,,,,,W,174,triangle,1,0,,2,,,,,,,k,0.7979,9,0,9,0,1,,,,,,,,,,,,,,,,,,,,,,,,,,,,,,,,,,
295519,2022-10-03_13h14.10.935,vts_reward_expectancy,2022.2.4,MacIntel,60.0024001,Chrome,1680,1050,,,,,0,684,,,,,,,,,,,,,,,,,D,146,hexagon,1,0,,3,,,,,,,,,,,,,,-1,letter,NA,d,2.7452,vtsPrac,0,0,0,0,1,,,,,,,,,,,,,,,,,,,,,,,
295519,2022-10-03_13h14.10.935,vts_reward_expectancy,2022.2.4,MacIntel,60.0024001,Chrome,1680,1050,,,,,0,684,,,,,,,,,,,,,,,,,W,139,circle,1,0,,3,,,,,,,,,,,,,,repeat,letter,lettRpt,f,1.3834,vtsPrac,1,0,1,0,1,,,,,,,,,,,,,,,,,,,,,,,
295519,2022-10-03_13h14.10.935,vts_reward_expectancy,2022.2.4,MacIntel,60.0024001,Chrome,1680,1050,,,,,0,684,,,,,,,,,,,,,,,,,B,167,hexagon,1,0,,3,,,,,,,,,,,,,,repeat,letter,lettRpt,d,1.1168,vtsPrac,2,0,2,0,1,,,,,,,,,,,,,,,,,,,,,,,
295519,2022-10-03_13h14.10.935,vts_reward_expectancy,2022.2.4,MacIntel,60.0024001,Chrome,1680,1050,,,,,0,684,,,,,,,,,,,,,,,,,Y,181,circle,1,0,,3,,,,,,,,,,,,,,repeat,letter,lettRpt,f,0.8987,vtsPrac,3,0,3,0,1,,,,,,,,,,,,,,,,,,,,,,,
295519,2022-10-03_13h14.10.935,vts_reward_expectancy,2022.2.4,MacIntel,60.0024001,Chrome,1680,1050,,,,,0,684,,,,,,,,,,,,,,,,,D,146,star,1,0,,3,,,,,,,,,,,,,,repeat,letter,lettRpt,d,0.7841,vtsPrac,4,0,4,0,1,,,,,,,,,,,,,,,,,,,,,,,
295519,2022-10-03_13h14.10.935,vts_reward_expectancy,2022.2.4,MacIntel,60.0024001,Chrome,1680,1050,,,,,0,684,,,,,,,,,,,,,,,,,W,139,circle,1,0,,3,,,,,,,,,,,,,,repeat,letter,lettRpt,f,1.1306,vtsPrac,5,0,5,0,1,,,,,,,,,,,,,,,,,,,,,,,
295519,2022-10-03_13h14.10.935,vts_reward_expectancy,2022.2.4,MacIntel,60.0024001,Chrome,1680,1050,,,,,0,684,,,,,,,,,,,,,,,,,B,167,circle,1,0,,3,,,,,,,,,,,,,,repeat,letter,lettRpt,d,1.3836,vtsPrac,6,0,6,0,1,,,,,,,,,,,,,,,,,,,,,,,
295519,2022-10-03_13h14.10.935,vts_reward_expectancy,2022.2.4,MacIntel,60.0024001,Chrome,1680,1050,,,,,0,684,,,,,,,,,,,,,,,,,Y,181,triangle,1,0,,3,,,,,,,,,,,,,,repeat,letter,lettRpt,f,1.0833,vtsPrac,7,0,7,0,1,,,,,,,,,,,,,,,,,,,,,,,
295519,2022-10-03_13h14.10.935,vts_reward_expectancy,2022.2.4,MacIntel,60.0024001,Chrome,1680,1050,,,,,0,684,,,,,,,,,,,,,,,,,B,181,circle,1,0,,3,,,,,,,,,,,,,,repeat,letter,lettRpt,d,0.8502,vtsPrac,8,0,8,0,1,,,,,,,,,,,,,,,,,,,,,,,
295519,2022-10-03_13h14.10.935,vts_reward_expectancy,2022.2.4,MacIntel,60.0024001,Chrome,1680,1050,,,,,0,684,,,,,,,,,,,,,,,,,U,139,triangle,1,0,,3,,,,,,,,,,,,,,repeat,letter,lettRpt,f,0.8996,vtsPrac,9,0,9,0,1,,,,,,,,,,,,,,,,,,,,,,,
295519,2022-10-03_13h14.10.935,vts_reward_expectancy,2022.2.4,MacIntel,60.0024001,Chrome,1680,1050,,,,,0,684,,,,,,,,,,,,,,,,,D,125,star,1,0,,3,,,,,,,,,,,,,,repeat,letter,lettRpt,d,1.2329,vtsPrac,10,0,10,0,1,,,,,,,,,,,,,,,,,,,,,,,
295519,2022-10-03_13h14.10.935,vts_reward_expectancy,2022.2.4,MacIntel,60.0024001,Chrome,1680,1050,,,,,0,684,,,,,,,,,,,,,,,,,H,146,hexagon,1,0,,3,,,,,,,,,,,,,,repeat,letter,lettRpt,d,1.166,vtsPrac,11,0,11,0,1,,,,,,,,,,,,,,,,,,,,,,,
295519,2022-10-03_13h14.10.935,vts_reward_expectancy,2022.2.4,MacIntel,60.0024001,Chrome,1680,1050,,,,,0,684,,,,,,,,,,,,,,,,,D,139,triangle,1,0,,3,,,,,,,,,,,,,,repeat,letter,lettRpt,d,0.7493,vtsPrac,12,0,12,0,1,,,,,,,,,,,,,,,,,,,,,,,
295519,2022-10-03_13h14.10.935,vts_reward_expectancy,2022.2.4,MacIntel,60.0024001,Chrome,1680,1050,,,,,0,684,,,,,,,,,,,,,,,,,Y,132,star,1,0,,3,,,,,,,,,,,,,,repeat,letter,lettRpt,f,0.745,vtsPrac,13,0,13,0,1,,,,,,,,,,,,,,,,,,,,,,,
295519,2022-10-03_13h14.10.935,vts_reward_expectancy,2022.2.4,MacIntel,60.0024001,Chrome,1680,1050,,,,,0,684,,,,,,,,,,,,,,,,,H,125,circle,1,0,,3,,,,,,,,,,,,,,repeat,letter,lettRpt,d,1.5999,vtsPrac,14,0,14,0,1,,,,,,,,,,,,,,,,,,,,,,,
295519,2022-10-03_13h14.10.935,vts_reward_expectancy,2022.2.4,MacIntel,60.0024001,Chrome,1680,1050,,,,,0,684,,,,,,,,,,,,,,,,,B,174,hexagon,1,0,,3,,,,,,,,,,,,,,repeat,letter,lettRpt,d,0.8332,vtsPrac,15,0,15,0,1,,,,,,,,,,,,,,,,,,,,,,,
295519,2022-10-03_13h14.10.935,vts_reward_expectancy,2022.2.4,MacIntel,60.0024001,Chrome,1680,1050,,,,,0,684,,,,,,,,,,,,,,,,,F,146,circle,1,0,,4,,,,,,,,,,,,,,repeat,letter,lettRpt,d,0.7013,vtsPrac,0,0,0,0,1,,,,,,,,,,,,,,,,,,,,,,,
295519,2022-10-03_13h14.10.935,vts_reward_expectancy,2022.2.4,MacIntel,60.0024001,Chrome,1680,1050,,,,,0,684,,,,,,,,,,,,,,,,,D,125,star,1,0,,4,,,,,,,,,,,,,,switch,number,numSwt,j,0.6167,vtsPrac,1,0,1,0,1,,,,,,,,,,,,,,,,,,,,,,,
295519,2022-10-03_13h14.10.935,vts_reward_expectancy,2022.2.4,MacIntel,60.0024001,Chrome,1680,1050,,,,,0,684,,,,,,,,,,,,,,,,,B,160,circle,1,0,,4,,,,,,,,,,,,,,switch,letter,lettSwt,d,0.6021,vtsPrac,2,0,2,0,1,,,,,,,,,,,,,,,,,,,,,,,
295519,2022-10-03_13h14.10.935,vts_reward_expectancy,2022.2.4,MacIntel,60.0024001,Chrome,1680,1050,,,,,0,684,,,,,,,,,,,,,,,,,S,181,star,1,0,,4,,,,,,,,,,,,,,switch,number,numSwt,k,0.5824,vtsPrac,3,0,3,0,1,,,,,,,,,,,,,,,,,,,,,,,
295519,2022-10-03_13h14.10.935,vts_reward_expectancy,2022.2.4,MacIntel,60.0024001,Chrome,1680,1050,,,,,0,684,,,,,,,,,,,,,,,,,F,146,triangle,1,0,,4,,,,,,,,,,,,,,repeat,number,numRpt,j,0.8024,vtsPrac,4,0,4,0,1,,,,,,,,,,,,,,,,,,,,,,,
295519,2022-10-03_13h14.10.935,vts_reward_expectancy,2022.2.4,MacIntel,60.0024001,Chrome,1680,1050,,,,,0,684,,,,,,,,,,,,,,,,,D,125,star,1,0,,4,,,,,,,,,,,,,,repeat,number,numRpt,j,0.5659,vtsPrac,5,0,5,0,1,,,,,,,,,,,,,,,,,,,,,,,
295519,2022-10-03_13h14.10.935,vts_reward_expectancy,2022.2.4,MacIntel,60.0024001,Chrome,1680,1050,,,,,0,684,,,,,,,,,,,,,,,,,B,160,hexagon,1,0,,4,,,,,,,,,,,,,,switch,letter,lettSwt,d,0.5153,vtsPrac,6,0,6,0,1,,,,,,,,,,,,,,,,,,,,,,,
295519,2022-10-03_13h14.10.935,vts_reward_expectancy,2022.2.4,MacIntel,60.0024001,Chrome,1680,1050,,,,,0,684,,,,,,,,,,,,,,,,,S,181,circle,1,0,,4,,,,,,,,,,,,,,repeat,letter,lettRpt,f,0.5502,vtsPrac,7,0,7,0,1,,,,,,,,,,,,,,,,,,,,,,,
295519,2022-10-03_13h14.10.935,vts_reward_expectancy,2022.2.4,MacIntel,60.0024001,Chrome,1680,1050,,,,,0,684,,,,,,,,,,,,,,,,,F,139,circle,1,0,,4,,,,,,,,,,,,,,repeat,letter,lettRpt,d,0.6663,vtsPrac,8,0,8,0,1,,,,,,,,,,,,,,,,,,,,,,,
295519,2022-10-03_13h14.10.935,vts_reward_expectancy,2022.2.4,MacIntel,60.0024001,Chrome,1680,1050,,,,,0,684,,,,,,,,,,,,,,,,,Y,174,star,1,0,,4,,,,,,,,,,,,,,switch,number,numSwt,k,0.5482,vtsPrac,9,0,9,0,1,,,,,,,,,,,,,,,,,,,,,,,
295519,2022-10-03_13h14.10.935,vts_reward_expectancy,2022.2.4,MacIntel,60.0024001,Chrome,1680,1050,,,,,0,684,,,,,,,,,,,,,,,,,H,181,circle,0,0,,4,,,,,,,,,,,,,,switch,letter,NA,f,0.5154,vtsPrac,10,0,10,0,1,,,,,,,,,,,,,,,,,,,,,,,
295519,2022-10-03_13h14.10.935,vts_reward_expectancy,2022.2.4,MacIntel,60.0024001,Chrome,1680,1050,,,,,0,684,,,,,,,,,,,,,,,,,S,167,star,1,1,,4,,,,,,,,,,,,,,switch,number,numSwt,k,1.0669,vtsPrac,11,0,11,0,1,,,,,,,,,,,,,,,,,,,,,,,
295519,2022-10-03_13h14.10.935,vts_reward_expectancy,2022.2.4,MacIntel,60.0024001,Chrome,1680,1050,,,,,0,684,,,,,,,,,,,,,,,,,D,167,triangle,1,0,,4,,,,,,,,,,,,,,switch,letter,lettSwt,d,0.4349,vtsPrac,12,0,12,0,1,,,,,,,,,,,,,,,,,,,,,,,
295519,2022-10-03_13h14.10.935,vts_reward_expectancy,2022.2.4,MacIntel,60.0024001,Chrome,1680,1050,,,,,0,684,,,,,,,,,,,,,,,,,F,160,hexagon,1,0,,4,,,,,,,,,,,,,,switch,number,numSwt,k,1.466,vtsPrac,13,0,13,0,1,,,,,,,,,,,,,,,,,,,,,,,
295519,2022-10-03_13h14.10.935,vts_reward_expectancy,2022.2.4,MacIntel,60.0024001,Chrome,1680,1050,,,,,0,684,,,,,,,,,,,,,,,,,S,132,circle,1,0,,4,,,,,,,,,,,,,,switch,letter,lettSwt,f,0.6831,vtsPrac,14,0,14,0,1,,,,,,,,,,,,,,,,,,,,,,,
295519,2022-10-03_13h14.10.935,vts_reward_expectancy,2022.2.4,MacIntel,60.0024001,Chrome,1680,1050,,,,,0,684,,,,,,,,,,,,,,,,,U,125,triangle,1,0,,4,,,,,,,,,,,,,,repeat,letter,lettRpt,f,0.5495,vtsPrac,15,0,15,0,1,,,,,,,,,,,,,,,,,,,,,,,
295519,2022-10-03_13h14.10.935,vts_reward_expectancy,2022.2.4,MacIntel,60.0024001,Chrome,1680,1050,,,,,,,,,,,,,,,,,,,,,,,,,,,,,,,,,,,,,,,,,,,,,,,,,,,,,,,,,,,,,,,,,,,,,,,,,,,,
295519,2022-10-03_13h14.10.935,vts_reward_expectancy,2022.2.4,MacIntel,60.0024001,Chrome,1680,1050,,,,,,,,,,,,,,,,,,,,,,,,,,,,,,,,,,,,,,,,,,,,,,,,,,,,,,,,,,,,,,,,,,,,,,,,,,,,
295519,2022-10-03_13h14.10.935,vts_reward_expectancy,2022.2.4,MacIntel,60.0024001,Chrome,1680,1050,,,,,0,684,,,,,,,,,,,,,,,,,W,174,star,1,0,,,,,,,,,,,,,,,,repeat,letter,lettRpt,f,0.6669,noRew,,,,,,0,0,0,0,0,1,,,,,,,,,,,,,,,,,
295519,2022-10-03_13h14.10.935,vts_reward_expectancy,2022.2.4,MacIntel,60.0024001,Chrome,1680,1050,,,,,0,684,,,,,,,,,,,,,,,,,F,167,circle,1,0,,,,,,,,,,,,,,,,repeat,letter,lettRpt,d,0.6159,noRew,,,,,,0,1,0,1,0,1,,,,,,,,,,,,,,,,,
295519,2022-10-03_13h14.10.935,vts_reward_expectancy,2022.2.4,MacIntel,60.0024001,Chrome,1680,1050,,,,,0,684,,,,,,,,,,,,,,,,,H,146,star,1,0,,,,,,,,,,,,,,,,switch,number,numSwt,j,0.6506,noRew,,,,,,0,2,0,2,0,1,,,,,,,,,,,,,,,,,
295519,2022-10-03_13h14.10.935,vts_reward_expectancy,2022.2.4,MacIntel,60.0024001,Chrome,1680,1050,,,,,0,684,,,,,,,,,,,,,,,,,U,160,circle,1,0,,,,,,,,,,,,,,,,switch,letter,lettSwt,f,0.5175,noRew,,,,,,0,3,0,3,0,1,,,,,,,,,,,,,,,,,
295519,2022-10-03_13h14.10.935,vts_reward_expectancy,2022.2.4,MacIntel,60.0024001,Chrome,1680,1050,,,,,0,684,,,,,,,,,,,,,,,,,W,174,triangle,1,0,,,,,,,,,,,,,,,,switch,number,numSwt,k,1.0491,noRew,,,,,,0,4,0,4,0,1,,,,,,,,,,,,,,,,,
295519,2022-10-03_13h14.10.935,vts_reward_expectancy,2022.2.4,MacIntel,60.0024001,Chrome,1680,1050,,,,,0,684,,,,,,,,,,,,,,,,,F,167,circle,1,0,,,,,,,,,,,,,,,,repeat,number,numRpt,k,0.7161,noRew,,,,,,0,5,0,5,0,1,,,,,,,,,,,,,,,,,
295519,2022-10-03_13h14.10.935,vts_reward_expectancy,2022.2.4,MacIntel,60.0024001,Chrome,1680,1050,,,,,0,684,,,,,,,,,,,,,,,,,H,146,star,1,0,,,,,,,,,,,,,,,,repeat,number,numRpt,j,0.6164,noRew,,,,,,0,6,0,6,0,1,,,,,,,,,,,,,,,,,
295519,2022-10-03_13h14.10.935,vts_reward_expectancy,2022.2.4,MacIntel,60.0024001,Chrome,1680,1050,,,,,0,684,,,,,,,,,,,,,,,,,U,160,triangle,1,0,,,,,,,,,,,,,,,,switch,letter,lettSwt,f,0.5997,noRew,,,,,,0,7,0,7,0,1,,,,,,,,,,,,,,,,,
295519,2022-10-03_13h14.10.935,vts_reward_expectancy,2022.2.4,MacIntel,60.0024001,Chrome,1680,1050,,,,,0,684,,,,,,,,,,,,,,,,,W,160,circle,1,0,,,,,,,,,,,,,,,,repeat,letter,lettRpt,f,0.6006,noRew,,,,,,0,8,0,8,0,1,,,,,,,,,,,,,,,,,
295519,2022-10-03_13h14.10.935,vts_reward_expectancy,2022.2.4,MacIntel,60.0024001,Chrome,1680,1050,,,,,0,684,,,,,,,,,,,,,,,,,Y,132,star,1,0,,,,,,,,,,,,,,,,switch,number,numSwt,j,0.7497,noRew,,,,,,0,9,0,9,0,1,,,,,,,,,,,,,,,,,
295519,2022-10-03_13h14.10.935,vts_reward_expectancy,2022.2.4,MacIntel,60.0024001,Chrome,1680,1050,,,,,0,684,,,,,,,,,,,,,,,,,D,146,circle,1,0,,,,,,,,,,,,,,,,switch,letter,lettSwt,d,0.5651,noRew,,,,,,0,10,0,10,0,1,,,,,,,,,,,,,,,,,
295519,2022-10-03_13h14.10.935,vts_reward_expectancy,2022.2.4,MacIntel,60.0024001,Chrome,1680,1050,,,,,0,684,,,,,,,,,,,,,,,,,H,174,hexagon,1,0,,,,,,,,,,,,,,,,switch,number,numSwt,k,0.6499,noRew,,,,,,0,11,0,11,0,1,,,,,,,,,,,,,,,,,
295519,2022-10-03_13h14.10.935,vts_reward_expectancy,2022.2.4,MacIntel,60.0024001,Chrome,1680,1050,,,,,0,684,,,,,,,,,,,,,,,,,B,160,circle,1,0,,,,,,,,,,,,,,,,switch,letter,lettSwt,d,0.5987,noRew,,,,,,0,12,0,12,0,1,,,,,,,,,,,,,,,,,
295519,2022-10-03_13h14.10.935,vts_reward_expectancy,2022.2.4,MacIntel,60.0024001,Chrome,1680,1050,,,,,0,684,,,,,,,,,,,,,,,,,S,167,hexagon,1,0,,,,,,,,,,,,,,,,switch,number,numSwt,k,0.7527,noRew,,,,,,0,13,0,13,0,1,,,,,,,,,,,,,,,,,
295519,2022-10-03_13h14.10.935,vts_reward_expectancy,2022.2.4,MacIntel,60.0024001,Chrome,1680,1050,,,,,0,684,,,,,,,,,,,,,,,,,H,181,hexagon,1,0,,,,,,,,,,,,,,,,repeat,number,numRpt,k,0.6831,noRew,,,,,,0,14,0,14,0,1,,,,,,,,,,,,,,,,,
295519,2022-10-03_13h14.10.935,vts_reward_expectancy,2022.2.4,MacIntel,60.0024001,Chrome,1680,1050,,,,,0,684,,,,,,,,,,,,,,,,,U,174,triangle,1,0,,,,,,,,,,,,,,,,repeat,number,numRpt,k,0.6825,noRew,,,,,,0,15,0,15,0,1,,,,,,,,,,,,,,,,,
295519,2022-10-03_13h14.10.935,vts_reward_expectancy,2022.2.4,MacIntel,60.0024001,Chrome,1680,1050,,,,,0,684,,,,,,,,,,,,,,,,,S,132,hexagon,1,0,,,,,,,,,,,,,,,,switch,letter,lettSwt,f,0.6508,noRew,,,,,,0,16,0,16,0,1,,,,,,,,,,,,,,,,,
295519,2022-10-03_13h14.10.935,vts_reward_expectancy,2022.2.4,MacIntel,60.0024001,Chrome,1680,1050,,,,,0,684,,,,,,,,,,,,,,,,,F,160,star,1,0,,,,,,,,,,,,,,,,switch,number,numSwt,k,0.7328,noRew,,,,,,0,17,0,17,0,1,,,,,,,,,,,,,,,,,
295519,2022-10-03_13h14.10.935,vts_reward_expectancy,2022.2.4,MacIntel,60.0024001,Chrome,1680,1050,,,,,0,684,,,,,,,,,,,,,,,,,D,174,triangle,1,0,,,,,,,,,,,,,,,,repeat,number,numRpt,k,0.6661,noRew,,,,,,0,18,0,18,0,1,,,,,,,,,,,,,,,,,
295519,2022-10-03_13h14.10.935,vts_reward_expectancy,2022.2.4,MacIntel,60.0024001,Chrome,1680,1050,,,,,0,684,,,,,,,,,,,,,,,,,H,167,circle,1,0,,,,,,,,,,,,,,,,switch,letter,lettSwt,d,0.6165,noRew,,,,,,0,19,0,19,0,1,,,,,,,,,,,,,,,,,
295519,2022-10-03_13h14.10.935,vts_reward_expectancy,2022.2.4,MacIntel,60.0024001,Chrome,1680,1050,,,,,0,684,,,,,,,,,,,,,,,,,F,139,star,1,0,,,,,,,,,,,,,,,,switch,number,numSwt,j,1.0322,noRew,,,,,,0,20,0,20,0,1,,,,,,,,,,,,,,,,,
295519,2022-10-03_13h14.10.935,vts_reward_expectancy,2022.2.4,MacIntel,60.0024001,Chrome,1680,1050,,,,,0,684,,,,,,,,,,,,,,,,,S,160,circle,1,0,,,,,,,,,,,,,,,,switch,letter,lettSwt,f,0.7279,noRew,,,,,,0,21,0,21,0,1,,,,,,,,,,,,,,,,,
295519,2022-10-03_13h14.10.935,vts_reward_expectancy,2022.2.4,MacIntel,60.0024001,Chrome,1680,1050,,,,,0,684,,,,,,,,,,,,,,,,,W,132,star,1,0,,,,,,,,,,,,,,,,switch,number,numSwt,j,0.5826,noRew,,,,,,0,22,0,22,0,1,,,,,,,,,,,,,,,,,
295519,2022-10-03_13h14.10.935,vts_reward_expectancy,2022.2.4,MacIntel,60.0024001,Chrome,1680,1050,,,,,0,684,,,,,,,,,,,,,,,,,U,167,triangle,1,0,,,,,,,,,,,,,,,,switch,letter,lettSwt,f,0.5341,noRew,,,,,,0,23,0,23,0,1,,,,,,,,,,,,,,,,,
295519,2022-10-03_13h14.10.935,vts_reward_expectancy,2022.2.4,MacIntel,60.0024001,Chrome,1680,1050,,,,,0,684,,,,,,,,,,,,,,,,,Y,146,star,1,0,,,,,,,,,,,,,,,,switch,number,numSwt,j,0.7132,noRew,,,,,,0,24,0,24,0,1,,,,,,,,,,,,,,,,,
295519,2022-10-03_13h14.10.935,vts_reward_expectancy,2022.2.4,MacIntel,60.0024001,Chrome,1680,1050,,,,,0,684,,,,,,,,,,,,,,,,,W,167,hexagon,1,0,,,,,,,,,,,,,,,,repeat,number,numRpt,k,0.5477,noRew,,,,,,0,25,0,25,0,1,,,,,,,,,,,,,,,,,
295519,2022-10-03_13h14.10.935,vts_reward_expectancy,2022.2.4,MacIntel,60.0024001,Chrome,1680,1050,,,,,0,684,,,,,,,,,,,,,,,,,H,132,star,1,0,,,,,,,,,,,,,,,,repeat,number,numRpt,j,0.5329,noRew,,,,,,0,26,0,26,0,1,,,,,,,,,,,,,,,,,
295519,2022-10-03_13h14.10.935,vts_reward_expectancy,2022.2.4,MacIntel,60.0024001,Chrome,1680,1050,,,,,0,684,,,,,,,,,,,,,,,,,D,174,triangle,1,0,,,,,,,,,,,,,,,,switch,letter,lettSwt,d,0.5272,noRew,,,,,,0,27,0,27,0,1,,,,,,,,,,,,,,,,,
295519,2022-10-03_13h14.10.935,vts_reward_expectancy,2022.2.4,MacIntel,60.0024001,Chrome,1680,1050,,,,,0,684,,,,,,,,,,,,,,,,,F,125,star,1,0,,,,,,,,,,,,,,,,switch,number,numSwt,j,0.5454,noRew,,,,,,0,28,0,28,0,1,,,,,,,,,,,,,,,,,
295519,2022-10-03_13h14.10.935,vts_reward_expectancy,2022.2.4,MacIntel,60.0024001,Chrome,1680,1050,,,,,0,684,,,,,,,,,,,,,,,,,D,167,triangle,1,0,,,,,,,,,,,,,,,,switch,letter,lettSwt,d,0.5318,noRew,,,,,,0,29,0,29,0,1,,,,,,,,,,,,,,,,,
295519,2022-10-03_13h14.10.935,vts_reward_expectancy,2022.2.4,MacIntel,60.0024001,Chrome,1680,1050,,,,,0,684,,,,,,,,,,,,,,,,,H,139,star,1,0,,,,,,,,,,,,,,,,switch,number,numSwt,j,0.6993,noRew,,,,,,0,30,0,30,0,1,,,,,,,,,,,,,,,,,
295519,2022-10-03_13h14.10.935,vts_reward_expectancy,2022.2.4,MacIntel,60.0024001,Chrome,1680,1050,,,,,0,684,,,,,,,,,,,,,,,,,W,132,triangle,1,0,,,,,,,,,,,,,,,,switch,letter,lettSwt,f,0.4836,noRew,,,,,,0,31,0,31,0,1,,,,,,,,,,,,,,,,,
295519,2022-10-03_13h14.10.935,vts_reward_expectancy,2022.2.4,MacIntel,60.0024001,Chrome,1680,1050,,,,,0,684,,,,,,,,,,,,,,,,,Y,139,circle,1,0,,,,,,,,,,,,,,,,repeat,letter,lettRpt,f,0.5501,noRew,,,,,,0,32,0,32,0,1,,,,,,,,,,,,,,,,,
295519,2022-10-03_13h14.10.935,vts_reward_expectancy,2022.2.4,MacIntel,60.0024001,Chrome,1680,1050,,,,,0,684,,,,,,,,,,,,,,,,,S,146,hexagon,1,0,,,,,,,,,,,,,,,,switch,number,numSwt,j,0.7488,noRew,,,,,,0,33,0,33,0,1,,,,,,,,,,,,,,,,,
295519,2022-10-03_13h14.10.935,vts_reward_expectancy,2022.2.4,MacIntel,60.0024001,Chrome,1680,1050,,,,,0,684,,,,,,,,,,,,,,,,,F,181,hexagon,1,0,,,,,,,,,,,,,,,,repeat,number,numRpt,k,0.7652,noRew,,,,,,0,34,0,34,0,1,,,,,,,,,,,,,,,,,
295519,2022-10-03_13h14.10.935,vts_reward_expectancy,2022.2.4,MacIntel,60.0024001,Chrome,1680,1050,,,,,0,684,,,,,,,,,,,,,,,,,D,160,star,1,0,,,,,,,,,,,,,,,,repeat,number,numRpt,k,0.7684,noRew,,,,,,0,35,0,35,0,1,,,,,,,,,,,,,,,,,
295519,2022-10-03_13h14.10.935,vts_reward_expectancy,2022.2.4,MacIntel,60.0024001,Chrome,1680,1050,,,,,0,684,,,,,,,,,,,,,,,,,B,132,triangle,1,0,,,,,,,,,,,,,,,,switch,letter,lettSwt,d,0.4998,noRew,,,,,,0,36,0,36,0,1,,,,,,,,,,,,,,,,,
295519,2022-10-03_13h14.10.935,vts_reward_expectancy,2022.2.4,MacIntel,60.0024001,Chrome,1680,1050,,,,,0,684,,,,,,,,,,,,,,,,,W,181,circle,1,0,,,,,,,,,,,,,,,,repeat,letter,lettRpt,f,0.5152,noRew,,,,,,0,37,0,37,0,1,,,,,,,,,,,,,,,,,
295519,2022-10-03_13h14.10.935,vts_reward_expectancy,2022.2.4,MacIntel,60.0024001,Chrome,1680,1050,,,,,0,684,,,,,,,,,,,,,,,,,H,146,triangle,1,0,,,,,,,,,,,,,,,,repeat,letter,lettRpt,d,0.7157,noRew,,,,,,0,38,0,38,0,1,,,,,,,,,,,,,,,,,
295519,2022-10-03_13h14.10.935,vts_reward_expectancy,2022.2.4,MacIntel,60.0024001,Chrome,1680,1050,,,,,0,684,,,,,,,,,,,,,,,,,F,160,hexagon,1,0,,,,,,,,,,,,,,,,switch,number,numSwt,k,0.7354,noRew,,,,,,0,39,0,39,0,1,,,,,,,,,,,,,,,,,
295519,2022-10-03_13h14.10.935,vts_reward_expectancy,2022.2.4,MacIntel,60.0024001,Chrome,1680,1050,,,,,0,684,,,,,,,,,,,,,,,,,Y,132,triangle,1,0,,,,,,,,,,,,,,,,switch,letter,lettSwt,f,0.5984,noRew,,,,,,0,40,0,40,0,1,,,,,,,,,,,,,,,,,
295519,2022-10-03_13h14.10.935,vts_reward_expectancy,2022.2.4,MacIntel,60.0024001,Chrome,1680,1050,,,,,0,684,,,,,,,,,,,,,,,,,D,167,hexagon,1,0,,,,,,,,,,,,,,,,switch,number,numSwt,k,0.616,noRew,,,,,,0,41,0,41,0,1,,,,,,,,,,,,,,,,,
295519,2022-10-03_13h14.10.935,vts_reward_expectancy,2022.2.4,MacIntel,60.0024001,Chrome,1680,1050,,,,,0,684,,,,,,,,,,,,,,,,,S,181,star,1,0,,,,,,,,,,,,,,,,repeat,number,numRpt,k,0.5326,noRew,,,,,,0,42,0,42,0,1,,,,,,,,,,,,,,,,,
295519,2022-10-03_13h14.10.935,vts_reward_expectancy,2022.2.4,MacIntel,60.0024001,Chrome,1680,1050,,,,,0,684,,,,,,,,,,,,,,,,,B,125,triangle,1,0,,,,,,,,,,,,,,,,switch,letter,lettSwt,d,0.4992,noRew,,,,,,0,43,0,43,0,1,,,,,,,,,,,,,,,,,
295519,2022-10-03_13h14.10.935,vts_reward_expectancy,2022.2.4,MacIntel,60.0024001,Chrome,1680,1050,,,,,0,684,,,,,,,,,,,,,,,,,W,174,hexagon,1,0,,,,,,,,,,,,,,,,switch,number,numSwt,k,0.6668,noRew,,,,,,0,44,0,44,0,1,,,,,,,,,,,,,,,,,
295519,2022-10-03_13h14.10.935,vts_reward_expectancy,2022.2.4,MacIntel,60.0024001,Chrome,1680,1050,,,,,0,684,,,,,,,,,,,,,,,,,S,167,star,1,0,,,,,,,,,,,,,,,,repeat,number,numRpt,k,0.5329,noRew,,,,,,0,45,0,45,0,1,,,,,,,,,,,,,,,,,
295519,2022-10-03_13h14.10.935,vts_reward_expectancy,2022.2.4,MacIntel,60.0024001,Chrome,1680,1050,,,,,0,684,,,,,,,,,,,,,,,,,U,181,circle,1,0,,,,,,,,,,,,,,,,switch,letter,lettSwt,f,0.6157,noRew,,,,,,0,46,0,46,0,1,,,,,,,,,,,,,,,,,
295519,2022-10-03_13h14.10.935,vts_reward_expectancy,2022.2.4,MacIntel,60.0024001,Chrome,1680,1050,,,,,0,684,,,,,,,,,,,,,,,,,F,125,hexagon,1,0,,,,,,,,,,,,,,,,switch,number,numSwt,j,0.6168,noRew,,,,,,0,47,0,47,0,1,,,,,,,,,,,,,,,,,
295519,2022-10-03_13h14.10.935,vts_reward_expectancy,2022.2.4,MacIntel,60.0024001,Chrome,1680,1050,,,,,0,684,,,,,,,,,,,,,,,,,F,139,star,1,0,,,,,,,,,,,,,,,,repeat,number,numRpt,j,0.6839,noRew,,,,,,0,48,0,48,0,1,,,,,,,,,,,,,,,,,
295519,2022-10-03_13h14.10.935,vts_reward_expectancy,2022.2.4,MacIntel,60.0024001,Chrome,1680,1050,,,,,0,684,,,,,,,,,,,,,,,,,U,167,circle,1,0,,,,,,,,,,,,,,,,switch,letter,lettSwt,f,0.5501,noRew,,,,,,0,49,0,49,0,1,,,,,,,,,,,,,,,,,
295519,2022-10-03_13h14.10.935,vts_reward_expectancy,2022.2.4,MacIntel,60.0024001,Chrome,1680,1050,,,,,0,684,,,,,,,,,,,,,,,,,D,132,circle,1,0,,,,,,,,,,,,,,,,repeat,letter,lettRpt,d,0.5834,noRew,,,,,,0,50,0,50,0,1,,,,,,,,,,,,,,,,,
295519,2022-10-03_13h14.10.935,vts_reward_expectancy,2022.2.4,MacIntel,60.0024001,Chrome,1680,1050,,,,,0,684,,,,,,,,,,,,,,,,,W,125,triangle,1,0,,,,,,,,,,,,,,,,repeat,letter,lettRpt,f,0.4822,noRew,,,,,,0,51,0,51,0,1,,,,,,,,,,,,,,,,,
295519,2022-10-03_13h14.10.935,vts_reward_expectancy,2022.2.4,MacIntel,60.0024001,Chrome,1680,1050,,,,,0,684,,,,,,,,,,,,,,,,,Y,146,circle,1,0,,,,,,,,,,,,,,,,repeat,letter,lettRpt,f,0.5317,noRew,,,,,,0,52,0,52,0,1,,,,,,,,,,,,,,,,,
295519,2022-10-03_13h14.10.935,vts_reward_expectancy,2022.2.4,MacIntel,60.0024001,Chrome,1680,1050,,,,,0,684,,,,,,,,,,,,,,,,,U,174,triangle,1,0,,,,,,,,,,,,,,,,repeat,letter,lettRpt,f,0.5155,noRew,,,,,,0,53,0,53,0,1,,,,,,,,,,,,,,,,,
295519,2022-10-03_13h14.10.935,vts_reward_expectancy,2022.2.4,MacIntel,60.0024001,Chrome,1680,1050,,,,,0,684,,,,,,,,,,,,,,,,,H,160,hexagon,1,0,,,,,,,,,,,,,,,,switch,number,numSwt,k,0.5659,noRew,,,,,,0,54,0,54,0,1,,,,,,,,,,,,,,,,,
295519,2022-10-03_13h14.10.935,vts_reward_expectancy,2022.2.4,MacIntel,60.0024001,Chrome,1680,1050,,,,,0,684,,,,,,,,,,,,,,,,,S,132,star,1,0,,,,,,,,,,,,,,,,repeat,number,numRpt,j,0.533,noRew,,,,,,0,55,0,55,0,1,,,,,,,,,,,,,,,,,
295519,2022-10-03_13h14.10.935,vts_reward_expectancy,2022.2.4,MacIntel,60.0024001,Chrome,1680,1050,,,,,0,684,,,,,,,,,,,,,,,,,B,146,hexagon,1,0,,,,,,,,,,,,,,,,repeat,number,numRpt,j,0.5663,noRew,,,,,,0,56,0,56,0,1,,,,,,,,,,,,,,,,,
295519,2022-10-03_13h14.10.935,vts_reward_expectancy,2022.2.4,MacIntel,60.0024001,Chrome,1680,1050,,,,,0,684,,,,,,,,,,,,,,,,,H,181,star,1,0,,,,,,,,,,,,,,,,repeat,number,numRpt,k,0.5011,noRew,,,,,,0,57,0,57,0,1,,,,,,,,,,,,,,,,,
295519,2022-10-03_13h14.10.935,vts_reward_expectancy,2022.2.4,MacIntel,60.0024001,Chrome,1680,1050,,,,,0,684,,,,,,,,,,,,,,,,,Y,125,hexagon,1,0,,,,,,,,,,,,,,,,repeat,number,numRpt,j,0.5158,noRew,,,,,,0,58,0,58,0,1,,,,,,,,,,,,,,,,,
295519,2022-10-03_13h14.10.935,vts_reward_expectancy,2022.2.4,MacIntel,60.0024001,Chrome,1680,1050,,,,,0,684,,,,,,,,,,,,,,,,,U,139,star,1,0,,,,,,,,,,,,,,,,repeat,number,numRpt,j,0.5166,noRew,,,,,,0,59,0,59,0,1,,,,,,,,,,,,,,,,,
295519,2022-10-03_13h14.10.935,vts_reward_expectancy,2022.2.4,MacIntel,60.0024001,Chrome,1680,1050,,,,,0,684,,,,,,,,,,,,,,,,,S,160,hexagon,1,0,,,,,,,,,,,,,,,,repeat,number,numRpt,k,0.9321,noRew,,,,,,0,60,0,60,0,1,,,,,,,,,,,,,,,,,
295519,2022-10-03_13h14.10.935,vts_reward_expectancy,2022.2.4,MacIntel,60.0024001,Chrome,1680,1050,,,,,0,684,,,,,,,,,,,,,,,,,W,132,triangle,1,0,,,,,,,,,,,,,,,,switch,letter,lettSwt,f,0.6988,noRew,,,,,,0,61,0,61,0,1,,,,,,,,,,,,,,,,,
295519,2022-10-03_13h14.10.935,vts_reward_expectancy,2022.2.4,MacIntel,60.0024001,Chrome,1680,1050,,,,,0,684,,,,,,,,,,,,,,,,,B,174,hexagon,1,0,,,,,,,,,,,,,,,,switch,number,numSwt,k,0.5659,noRew,,,,,,0,62,0,62,0,1,,,,,,,,,,,,,,,,,
295519,2022-10-03_13h14.10.935,vts_reward_expectancy,2022.2.4,MacIntel,60.0024001,Chrome,1680,1050,,,,,0,684,,,,,,,,,,,,,,,,,H,181,circle,1,0,,,,,,,,,,,,,,,,switch,letter,lettSwt,d,0.7158,noRew,,,,,,0,63,0,63,0,1,,,,,,,,,,,,,,,,,
295519,2022-10-03_13h14.10.935,vts_reward_expectancy,2022.2.4,MacIntel,60.0024001,Chrome,1680,1050,,,,,,,,,,,,,,,,,,,,,,,,,,,,,,,,,,,,,,,,,,,,,,,,,,,,,,,,,,,,,,,,,,,,,,,,,,,,
295519,2022-10-03_13h14.10.935,vts_reward_expectancy,2022.2.4,MacIntel,60.0024001,Chrome,1680,1050,,,,,0,684,,,,,,,,,,,,,,,,,H,181,triangle,1,0,,,,,,,,,,,,,,,,repeat,letter,lettRpt,d,0.6629,Hi,,,,,,0,,,,,,space,4.583,high,0,0,0,0,1,,,,,,,,,
295519,2022-10-03_13h14.10.935,vts_reward_expectancy,2022.2.4,MacIntel,60.0024001,Chrome,1680,1050,,,,,1,685,,,,,,,,,,,,,,,,,B,174,hexagon,1,0,,,,,,,,,,,,,,,,switch,number,numSwt,k,0.7662,Lo,,,,,,0,,,,,,,,high,1,0,1,0,1,,,,,,,,,
295519,2022-10-03_13h14.10.935,vts_reward_expectancy,2022.2.4,MacIntel,60.0024001,Chrome,1680,1050,,,,,0,685,,,,,,,,,,,,,,,,,W,125,triangle,1,0,,,,,,,,,,,,,,,,repeat,number,numRpt,j,0.5617,Hi,,,,,,0,,,,,,,,high,2,0,2,0,1,,,,,,,,,
295519,2022-10-03_13h14.10.935,vts_reward_expectancy,2022.2.4,MacIntel,60.0024001,Chrome,1680,1050,,,,,1,686,,,,,,,,,,,,,,,,,F,160,hexagon,1,0,,,,,,,,,,,,,,,,repeat,number,numRpt,k,0.783,Lo,,,,,,0,,,,,,,,high,3,0,3,0,1,,,,,,,,,
295519,2022-10-03_13h14.10.935,vts_reward_expectancy,2022.2.4,MacIntel,60.0024001,Chrome,1680,1050,,,,,1,687,,,,,,,,,,,,,,,,,U,132,hexagon,1,0,,,,,,,,,,,,,,,,repeat,number,numRpt,j,0.5113,Lo,,,,,,0,,,,,,,,high,4,0,4,0,1,,,,,,,,,
295519,2022-10-03_13h14.10.935,vts_reward_expectancy,2022.2.4,MacIntel,60.0024001,Chrome,1680,1050,,,,,0,687,,,,,,,,,,,,,,,,,S,139,triangle,1,0,,,,,,,,,,,,,,,,switch,letter,lettSwt,f,0.55,Hi,,,,,,0,,,,,,,,high,5,0,5,0,1,,,,,,,,,
295519,2022-10-03_13h14.10.935,vts_reward_expectancy,2022.2.4,MacIntel,60.0024001,Chrome,1680,1050,,,,,0,687,,,,,,,,,,,,,,,,,Y,167,triangle,1,0,,,,,,,,,,,,,,,,repeat,letter,lettRpt,f,0.567,Hi,,,,,,0,,,,,,,,high,6,0,6,0,1,,,,,,,,,
295519,2022-10-03_13h14.10.935,vts_reward_expectancy,2022.2.4,MacIntel,60.0024001,Chrome,1680,1050,,,,,10,697,,,,,,,,,,,,,,,,,D,146,hexagon,1,0,,,,,,,,,,,,,,,,switch,number,numSwt,j,0.4694,Lo,,,,,,0,,,,,,,,high,7,0,7,0,1,,,,,,,,,
295519,2022-10-03_13h14.10.935,vts_reward_expectancy,2022.2.4,MacIntel,60.0024001,Chrome,1680,1050,,,,,10,707,,,,,,,,,,,,,,,,,H,181,hexagon,1,0,,,,,,,,,,,,,,,,repeat,number,numRpt,k,0.4662,Lo,,,,,,0,,,,,,,,high,8,0,8,0,1,,,,,,,,,
295519,2022-10-03_13h14.10.935,vts_reward_expectancy,2022.2.4,MacIntel,60.0024001,Chrome,1680,1050,,,,,10,717,,,,,,,,,,,,,,,,,B,174,triangle,1,0,,,,,,,,,,,,,,,,switch,letter,lettSwt,d,0.3837,Hi,,,,,,0,,,,,,,,high,9,0,9,0,1,,,,,,,,,
295519,2022-10-03_13h14.10.935,vts_reward_expectancy,2022.2.4,MacIntel,60.0024001,Chrome,1680,1050,,,,,10,727,,,,,,,,,,,,,,,,,W,125,triangle,1,0,,,,,,,,,,,,,,,,repeat,letter,lettRpt,f,0.4298,Hi,,,,,,0,,,,,,,,high,10,0,10,0,1,,,,,,,,,
295519,2022-10-03_13h14.10.935,vts_reward_expectancy,2022.2.4,MacIntel,60.0024001,Chrome,1680,1050,,,,,1,728,,,,,,,,,,,,,,,,,F,160,hexagon,1,0,,,,,,,,,,,,,,,,switch,number,numSwt,k,0.4497,Lo,,,,,,0,,,,,,,,high,11,0,11,0,1,,,,,,,,,
295519,2022-10-03_13h14.10.935,vts_reward_expectancy,2022.2.4,MacIntel,60.0024001,Chrome,1680,1050,,,,,10,738,,,,,,,,,,,,,,,,,U,132,triangle,1,0,,,,,,,,,,,,,,,,switch,letter,lettSwt,f,0.4169,Hi,,,,,,0,,,,,,,,high,12,0,12,0,1,,,,,,,,,
295519,2022-10-03_13h14.10.935,vts_reward_expectancy,2022.2.4,MacIntel,60.0024001,Chrome,1680,1050,,,,,1,739,,,,,,,,,,,,,,,,,S,139,hexagon,1,0,,,,,,,,,,,,,,,,switch,number,numSwt,j,0.595,Lo,,,,,,0,,,,,,,,high,13,0,13,0,1,,,,,,,,,
295519,2022-10-03_13h14.10.935,vts_reward_expectancy,2022.2.4,MacIntel,60.0024001,Chrome,1680,1050,,,,,10,749,,,,,,,,,,,,,,,,,Y,167,triangle,1,0,,,,,,,,,,,,,,,,switch,letter,lettSwt,f,0.4327,Hi,,,,,,0,,,,,,,,high,14,0,14,0,1,,,,,,,,,
295519,2022-10-03_13h14.10.935,vts_reward_expectancy,2022.2.4,MacIntel,60.0024001,Chrome,1680,1050,,,,,1,750,,,,,,,,,,,,,,,,,D,146,hexagon,1,0,,,,,,,,,,,,,,,,switch,number,numSwt,j,0.5671,Lo,,,,,,0,,,,,,,,high,15,0,15,0,1,,,,,,,,,
295519,2022-10-03_13h14.10.935,vts_reward_expectancy,2022.2.4,MacIntel,60.0024001,Chrome,1680,1050,,,,,10,760,,,,,,,,,,,,,,,,,W,146,triangle,1,0,,,,,,,,,,,,,,,,switch,letter,lettSwt,f,0.4188,Hi,,,,,,0,,,,,,,,high,16,0,16,0,1,,,,,,,,,
295519,2022-10-03_13h14.10.935,vts_reward_expectancy,2022.2.4,MacIntel,60.0024001,Chrome,1680,1050,,,,,1,761,,,,,,,,,,,,,,,,,H,160,hexagon,1,0,,,,,,,,,,,,,,,,switch,number,numSwt,k,0.433,Lo,,,,,,0,,,,,,,,high,17,0,17,0,1,,,,,,,,,
295519,2022-10-03_13h14.10.935,vts_reward_expectancy,2022.2.4,MacIntel,60.0024001,Chrome,1680,1050,,,,,1,762,,,,,,,,,,,,,,,,,F,174,triangle,1,0,,,,,,,,,,,,,,,,switch,letter,lettSwt,d,0.482,Hi,,,,,,0,,,,,,,,high,18,0,18,0,1,,,,,,,,,
295519,2022-10-03_13h14.10.935,vts_reward_expectancy,2022.2.4,MacIntel,60.0024001,Chrome,1680,1050,,,,,1,763,,,,,,,,,,,,,,,,,U,167,hexagon,1,0,,,,,,,,,,,,,,,,switch,number,numSwt,k,0.4156,Lo,,,,,,0,,,,,,,,high,19,0,19,0,1,,,,,,,,,
295519,2022-10-03_13h14.10.935,vts_reward_expectancy,2022.2.4,MacIntel,60.0024001,Chrome,1680,1050,,,,,1,764,,,,,,,,,,,,,,,,,Y,132,hexagon,1,0,,,,,,,,,,,,,,,,repeat,number,numRpt,j,0.4329,Lo,,,,,,0,,,,,,,,high,20,0,20,0,1,,,,,,,,,
295519,2022-10-03_13h14.10.935,vts_reward_expectancy,2022.2.4,MacIntel,60.0024001,Chrome,1680,1050,,,,,10,774,,,,,,,,,,,,,,,,,D,125,triangle,1,0,,,,,,,,,,,,,,,,switch,letter,lettSwt,d,0.53,Hi,,,,,,0,,,,,,,,high,21,0,21,0,1,,,,,,,,,
295519,2022-10-03_13h14.10.935,vts_reward_expectancy,2022.2.4,MacIntel,60.0024001,Chrome,1680,1050,,,,,10,784,,,,,,,,,,,,,,,,,B,139,triangle,1,0,,,,,,,,,,,,,,,,repeat,letter,lettRpt,d,0.4678,Hi,,,,,,0,,,,,,,,high,22,0,22,0,1,,,,,,,,,
295519,2022-10-03_13h14.10.935,vts_reward_expectancy,2022.2.4,MacIntel,60.0024001,Chrome,1680,1050,,,,,1,785,,,,,,,,,,,,,,,,,S,181,hexagon,1,0,,,,,,,,,,,,,,,,switch,number,numSwt,k,0.9993,Lo,,,,,,0,,,,,,,,high,23,0,23,0,1,,,,,,,,,
295519,2022-10-03_13h14.10.935,vts_reward_expectancy,2022.2.4,MacIntel,60.0024001,Chrome,1680,1050,,,,,10,795,,,,,,,,,,,,,,,,,Y,167,triangle,1,0,,,,,,,,,,,,,,,,switch,letter,lettSwt,f,0.4663,Hi,,,,,,0,,,,,,,,high,24,0,24,0,1,,,,,,,,,
295519,2022-10-03_13h14.10.935,vts_reward_expectancy,2022.2.4,MacIntel,60.0024001,Chrome,1680,1050,,,,,1,796,,,,,,,,,,,,,,,,,D,160,hexagon,1,0,,,,,,,,,,,,,,,,switch,number,numSwt,k,0.4487,Lo,,,,,,0,,,,,,,,high,25,0,25,0,1,,,,,,,,,
295519,2022-10-03_13h14.10.935,vts_reward_expectancy,2022.2.4,MacIntel,60.0024001,Chrome,1680,1050,,,,,1,797,,,,,,,,,,,,,,,,,S,132,hexagon,1,0,,,,,,,,,,,,,,,,repeat,number,numRpt,j,0.5169,Lo,,,,,,0,,,,,,,,high,26,0,26,0,1,,,,,,,,,
295519,2022-10-03_13h14.10.935,vts_reward_expectancy,2022.2.4,MacIntel,60.0024001,Chrome,1680,1050,,,,,0,797,,,,,,,,,,,,,,,,,F,181,triangle,0,0,,,,,,,,,,,,,,,,switch,letter,NA,f,0.4328,Lo,,,,,,0,,,,,,,,high,27,0,27,0,1,,,,,,,,,
295519,2022-10-03_13h14.10.935,vts_reward_expectancy,2022.2.4,MacIntel,60.0024001,Chrome,1680,1050,,,,,10,807,,,,,,,,,,,,,,,,,H,139,triangle,1,1,,,,,,,,,,,,,,,,repeat,letter,lettRpt,d,0.4518,Hi,,,,,,0,,,,,,,,high,28,0,28,0,1,,,,,,,,,
295519,2022-10-03_13h14.10.935,vts_reward_expectancy,2022.2.4,MacIntel,60.0024001,Chrome,1680,1050,,,,,1,808,,,,,,,,,,,,,,,,,B,125,hexagon,1,0,,,,,,,,,,,,,,,,repeat,letter,lettRpt,d,0.501,Lo,,,,,,0,,,,,,,,high,29,0,29,0,1,,,,,,,,,
295519,2022-10-03_13h14.10.935,vts_reward_expectancy,2022.2.4,MacIntel,60.0024001,Chrome,1680,1050,,,,,0,808,,,,,,,,,,,,,,,,,U,146,triangle,1,0,,,,,,,,,,,,,,,,repeat,letter,lettRpt,f,0.5324,Hi,,,,,,0,,,,,,,,high,30,0,30,0,1,,,,,,,,,
295519,2022-10-03_13h14.10.935,vts_reward_expectancy,2022.2.4,MacIntel,60.0024001,Chrome,1680,1050,,,,,1,809,,,,,,,,,,,,,,,,,W,174,hexagon,1,0,,,,,,,,,,,,,,,,switch,number,numSwt,k,0.6659,Lo,,,,,,0,,,,,,,,high,31,0,31,0,1,,,,,,,,,
295519,2022-10-03_13h14.10.935,vts_reward_expectancy,2022.2.4,MacIntel,60.0024001,Chrome,1680,1050,,,,,10,819,,,,,,,,,,,,,,,,,D,132,circle,1,0,,,,,,,,,,,,,,,,switch,letter,lettSwt,d,0.4172,Hi,,,,,,1,,,,,,space,1.5216,low,0,0,0,0,1,,,,,,,,,
295519,2022-10-03_13h14.10.935,vts_reward_expectancy,2022.2.4,MacIntel,60.0024001,Chrome,1680,1050,,,,,1,820,,,,,,,,,,,,,,,,,W,160,star,1,0,,,,,,,,,,,,,,,,switch,number,numSwt,k,0.4807,Lo,,,,,,1,,,,,,,,low,1,0,1,0,1,,,,,,,,,
295519,2022-10-03_13h14.10.935,vts_reward_expectancy,2022.2.4,MacIntel,60.0024001,Chrome,1680,1050,,,,,10,830,,,,,,,,,,,,,,,,,Y,167,circle,1,0,,,,,,,,,,,,,,,,switch,letter,lettSwt,f,0.3824,Hi,,,,,,1,,,,,,,,low,2,0,2,0,1,,,,,,,,,
295519,2022-10-03_13h14.10.935,vts_reward_expectancy,2022.2.4,MacIntel,60.0024001,Chrome,1680,1050,,,,,1,831,,,,,,,,,,,,,,,,,F,174,star,1,0,,,,,,,,,,,,,,,,switch,number,numSwt,k,0.4507,Lo,,,,,,1,,,,,,,,low,3,0,3,0,1,,,,,,,,,
295519,2022-10-03_13h14.10.935,vts_reward_expectancy,2022.2.4,MacIntel,60.0024001,Chrome,1680,1050,,,,,1,832,,,,,,,,,,,,,,,,,B,181,circle,1,0,,,,,,,,,,,,,,,,switch,letter,lettSwt,d,0.4153,Hi,,,,,,1,,,,,,,,low,4,0,4,0,1,,,,,,,,,
295519,2022-10-03_13h14.10.935,vts_reward_expectancy,2022.2.4,MacIntel,60.0024001,Chrome,1680,1050,,,,,1,833,,,,,,,,,,,,,,,,,U,139,star,1,0,,,,,,,,,,,,,,,,repeat,letter,lettRpt,f,0.4333,Lo,,,,,,1,,,,,,,,low,5,0,5,0,1,,,,,,,,,
295519,2022-10-03_13h14.10.935,vts_reward_expectancy,2022.2.4,MacIntel,60.0024001,Chrome,1680,1050,,,,,10,843,,,,,,,,,,,,,,,,,S,125,star,1,0,,,,,,,,,,,,,,,,switch,number,numSwt,j,0.449,Lo,,,,,,1,,,,,,,,low,6,0,6,0,1,,,,,,,,,
295519,2022-10-03_13h14.10.935,vts_reward_expectancy,2022.2.4,MacIntel,60.0024001,Chrome,1680,1050,,,,,0,843,,,,,,,,,,,,,,,,,H,146,circle,1,0,,,,,,,,,,,,,,,,switch,letter,lettSwt,d,0.4474,Hi,,,,,,1,,,,,,,,low,7,0,7,0,1,,,,,,,,,
295519,2022-10-03_13h14.10.935,vts_reward_expectancy,2022.2.4,MacIntel,60.0024001,Chrome,1680,1050,,,,,10,853,,,,,,,,,,,,,,,,,D,132,star,1,0,,,,,,,,,,,,,,,,switch,number,numSwt,j,0.5338,Lo,,,,,,1,,,,,,,,low,8,0,8,0,1,,,,,,,,,
295519,2022-10-03_13h14.10.935,vts_reward_expectancy,2022.2.4,MacIntel,60.0024001,Chrome,1680,1050,,,,,10,863,,,,,,,,,,,,,,,,,W,160,circle,1,0,,,,,,,,,,,,,,,,switch,letter,lettSwt,f,0.3955,Hi,,,,,,1,,,,,,,,low,9,0,9,0,1,,,,,,,,,
295519,2022-10-03_13h14.10.935,vts_reward_expectancy,2022.2.4,MacIntel,60.0024001,Chrome,1680,1050,,,,,10,873,,,,,,,,,,,,,,,,,Y,167,circle,1,0,,,,,,,,,,,,,,,,repeat,letter,lettRpt,f,0.449,Hi,,,,,,1,,,,,,,,low,10,0,10,0,1,,,,,,,,,
295519,2022-10-03_13h14.10.935,vts_reward_expectancy,2022.2.4,MacIntel,60.0024001,Chrome,1680,1050,,,,,10,883,,,,,,,,,,,,,,,,,F,174,star,1,0,,,,,,,,,,,,,,,,switch,number,numSwt,k,0.4668,Lo,,,,,,1,,,,,,,,low,11,0,11,0,1,,,,,,,,,
295519,2022-10-03_13h14.10.935,vts_reward_expectancy,2022.2.4,MacIntel,60.0024001,Chrome,1680,1050,,,,,10,893,,,,,,,,,,,,,,,,,B,181,circle,1,0,,,,,,,,,,,,,,,,switch,letter,lettSwt,d,0.3945,Hi,,,,,,1,,,,,,,,low,12,0,12,0,1,,,,,,,,,
295519,2022-10-03_13h14.10.935,vts_reward_expectancy,2022.2.4,MacIntel,60.0024001,Chrome,1680,1050,,,,,1,894,,,,,,,,,,,,,,,,,U,139,star,1,0,,,,,,,,,,,,,,,,switch,number,numSwt,j,0.4152,Lo,,,,,,1,,,,,,,,low,13,0,13,0,1,,,,,,,,,
295519,2022-10-03_13h14.10.935,vts_reward_expectancy,2022.2.4,MacIntel,60.0024001,Chrome,1680,1050,,,,,1,895,,,,,,,,,,,,,,,,,S,125,star,1,0,,,,,,,,,,,,,,,,repeat,number,numRpt,j,0.4325,Lo,,,,,,1,,,,,,,,low,14,0,14,0,1,,,,,,,,,
295519,2022-10-03_13h14.10.935,vts_reward_expectancy,2022.2.4,MacIntel,60.0024001,Chrome,1680,1050,,,,,10,905,,,,,,,,,,,,,,,,,H,146,circle,1,0,,,,,,,,,,,,,,,,switch,letter,lettSwt,d,0.4022,Hi,,,,,,1,,,,,,,,low,15,0,15,0,1,,,,,,,,,
295519,2022-10-03_13h14.10.935,vts_reward_expectancy,2022.2.4,MacIntel,60.0024001,Chrome,1680,1050,,,,,0,905,,,,,,,,,,,,,,,,,S,132,star,0,0,,,,,,,,,,,,,,,,switch,number,NA,k,0.4321,Hi,,,,,,1,,,,,,,,low,16,0,16,0,1,,,,,,,,,
295519,2022-10-03_13h14.10.935,vts_reward_expectancy,2022.2.4,MacIntel,60.0024001,Chrome,1680,1050,,,,,0,905,,,,,,,,,,,,,,,,,F,181,circle,0,1,,,,,,,,,,,,,,,,switch,letter,NA,f,0.3991,Hi,,,,,,1,,,,,,,,low,17,0,17,0,1,,,,,,,,,
295519,2022-10-03_13h14.10.935,vts_reward_expectancy,2022.2.4,MacIntel,60.0024001,Chrome,1680,1050,,,,,10,915,,,,,,,,,,,,,,,,,U,146,star,1,1,,,,,,,,,,,,,,,,switch,number,numSwt,j,0.466,Lo,,,,,,1,,,,,,,,low,18,0,18,0,1,,,,,,,,,
295519,2022-10-03_13h14.10.935,vts_reward_expectancy,2022.2.4,MacIntel,60.0024001,Chrome,1680,1050,,,,,10,925,,,,,,,,,,,,,,,,,D,167,circle,1,0,,,,,,,,,,,,,,,,switch,letter,lettSwt,d,0.4007,Hi,,,,,,1,,,,,,,,low,19,0,19,0,1,,,,,,,,,
295519,2022-10-03_13h14.10.935,vts_reward_expectancy,2022.2.4,MacIntel,60.0024001,Chrome,1680,1050,,,,,1,926,,,,,,,,,,,,,,,,,H,160,star,1,0,,,,,,,,,,,,,,,,switch,number,numSwt,k,0.6667,Lo,,,,,,1,,,,,,,,low,20,0,20,0,1,,,,,,,,,
295519,2022-10-03_13h14.10.935,vts_reward_expectancy,2022.2.4,MacIntel,60.0024001,Chrome,1680,1050,,,,,0,926,,,,,,,,,,,,,,,,,B,139,circle,1,0,,,,,,,,,,,,,,,,switch,letter,lettSwt,d,0.4475,Hi,,,,,,1,,,,,,,,low,21,0,21,0,1,,,,,,,,,
295519,2022-10-03_13h14.10.935,vts_reward_expectancy,2022.2.4,MacIntel,60.0024001,Chrome,1680,1050,,,,,0,926,,,,,,,,,,,,,,,,,W,174,star,0,0,,,,,,,,,,,,,,,,switch,number,NA,j,0.5283,Hi,,,,,,1,,,,,,,,low,22,0,22,0,1,,,,,,,,,
295519,2022-10-03_13h14.10.935,vts_reward_expectancy,2022.2.4,MacIntel,60.0024001,Chrome,1680,1050,,,,,0,926,,,,,,,,,,,,,,,,,Y,125,circle,0,1,,,,,,,,,,,,,,,,switch,letter,NA,d,0.6121,Hi,,,,,,1,,,,,,,,low,23,0,23,0,1,,,,,,,,,
295519,2022-10-03_13h14.10.935,vts_reward_expectancy,2022.2.4,MacIntel,60.0024001,Chrome,1680,1050,,,,,1,927,,,,,,,,,,,,,,,,,F,160,star,1,1,,,,,,,,,,,,,,,,switch,number,numSwt,k,0.5284,Lo,,,,,,1,,,,,,,,low,24,0,24,0,1,,,,,,,,,
295519,2022-10-03_13h14.10.935,vts_reward_expectancy,2022.2.4,MacIntel,60.0024001,Chrome,1680,1050,,,,,0,927,,,,,,,,,,,,,,,,,Y,132,circle,1,0,,,,,,,,,,,,,,,,switch,letter,lettSwt,f,0.499,Hi,,,,,,1,,,,,,,,low,25,0,25,0,1,,,,,,,,,
295519,2022-10-03_13h14.10.935,vts_reward_expectancy,2022.2.4,MacIntel,60.0024001,Chrome,1680,1050,,,,,0,927,,,,,,,,,,,,,,,,,W,174,circle,1,0,,,,,,,,,,,,,,,,repeat,letter,lettRpt,f,0.5156,Hi,,,,,,1,,,,,,,,low,26,0,26,0,1,,,,,,,,,
295519,2022-10-03_13h14.10.935,vts_reward_expectancy,2022.2.4,MacIntel,60.0024001,Chrome,1680,1050,,,,,10,937,,,,,,,,,,,,,,,,,H,139,star,1,0,,,,,,,,,,,,,,,,switch,number,numSwt,j,0.5115,Lo,,,,,,1,,,,,,,,low,27,0,27,0,1,,,,,,,,,
295519,2022-10-03_13h14.10.935,vts_reward_expectancy,2022.2.4,MacIntel,60.0024001,Chrome,1680,1050,,,,,10,947,,,,,,,,,,,,,,,,,U,167,circle,1,0,,,,,,,,,,,,,,,,switch,letter,lettSwt,f,0.3829,Hi,,,,,,1,,,,,,,,low,28,0,28,0,1,,,,,,,,,
295519,2022-10-03_13h14.10.935,vts_reward_expectancy,2022.2.4,MacIntel,60.0024001,Chrome,1680,1050,,,,,1,948,,,,,,,,,,,,,,,,,B,125,star,1,0,,,,,,,,,,,,,,,,switch,number,numSwt,j,0.4479,Lo,,,,,,1,,,,,,,,low,29,0,29,0,1,,,,,,,,,
295519,2022-10-03_13h14.10.935,vts_reward_expectancy,2022.2.4,MacIntel,60.0024001,Chrome,1680,1050,,,,,10,958,,,,,,,,,,,,,,,,,S,181,circle,1,0,,,,,,,,,,,,,,,,switch,letter,lettSwt,f,0.0119,Hi,,,,,,1,,,,,,,,low,30,0,30,0,1,,,,,,,,,
295519,2022-10-03_13h14.10.935,vts_reward_expectancy,2022.2.4,MacIntel,60.0024001,Chrome,1680,1050,,,,,1,959,,,,,,,,,,,,,,,,,D,146,star,1,0,,,,,,,,,,,,,,,,switch,number,numSwt,j,0.5503,Lo,,,,,,1,,,,,,,,low,31,0,31,0,1,,,,,,,,,
295519,2022-10-03_13h14.10.935,vts_reward_expectancy,2022.2.4,MacIntel,60.0024001,Chrome,1680,1050,,,,,1,960,,,,,,,,,,,,,,,,,F,174,hexagon,1,0,,,,,,,,,,,,,,,,switch,letter,lettSwt,d,0.6521,Lo,,,,,,2,,,,,,space,1.5377,high,0,0,0,0,1,,,,,,,,,
295519,2022-10-03_13h14.10.935,vts_reward_expectancy,2022.2.4,MacIntel,60.0024001,Chrome,1680,1050,,,,,0,960,,,,,,,,,,,,,,,,,Y,139,triangle,1,0,,,,,,,,,,,,,,,,repeat,letter,lettRpt,f,0.4455,Hi,,,,,,2,,,,,,,,high,1,0,1,0,1,,,,,,,,,
295519,2022-10-03_13h14.10.935,vts_reward_expectancy,2022.2.4,MacIntel,60.0024001,Chrome,1680,1050,,,,,0,960,,,,,,,,,,,,,,,,,S,167,hexagon,0,0,,,,,,,,,,,,,,,,switch,number,NA,j,0.5285,Hi,,,,,,2,,,,,,,,high,2,0,2,0,1,,,,,,,,,
295519,2022-10-03_13h14.10.935,vts_reward_expectancy,2022.2.4,MacIntel,60.0024001,Chrome,1680,1050,,,,,0,960,,,,,,,,,,,,,,,,,U,146,triangle,1,1,,,,,,,,,,,,,,,,switch,letter,lettSwt,f,0.3962,Hi,,,,,,2,,,,,,,,high,3,0,3,0,1,,,,,,,,,
295519,2022-10-03_13h14.10.935,vts_reward_expectancy,2022.2.4,MacIntel,60.0024001,Chrome,1680,1050,,,,,10,970,,,,,,,,,,,,,,,,,B,132,hexagon,1,0,,,,,,,,,,,,,,,,switch,number,numSwt,j,0.5185,Lo,,,,,,2,,,,,,,,high,4,0,4,0,1,,,,,,,,,
295519,2022-10-03_13h14.10.935,vts_reward_expectancy,2022.2.4,MacIntel,60.0024001,Chrome,1680,1050,,,,,0,970,,,,,,,,,,,,,,,,,H,125,triangle,1,0,,,,,,,,,,,,,,,,repeat,number,numRpt,j,0.4796,Hi,,,,,,2,,,,,,,,high,5,0,5,0,1,,,,,,,,,
295519,2022-10-03_13h14.10.935,vts_reward_expectancy,2022.2.4,MacIntel,60.0024001,Chrome,1680,1050,,,,,10,980,,,,,,,,,,,,,,,,,W,181,hexagon,1,0,,,,,,,,,,,,,,,,repeat,number,numRpt,k,0.4634,Lo,,,,,,2,,,,,,,,high,6,0,6,0,1,,,,,,,,,
295519,2022-10-03_13h14.10.935,vts_reward_expectancy,2022.2.4,MacIntel,60.0024001,Chrome,1680,1050,,,,,0,980,,,,,,,,,,,,,,,,,D,160,triangle,1,0,,,,,,,,,,,,,,,,switch,letter,lettSwt,d,0.413,Hi,,,,,,2,,,,,,,,high,7,0,7,0,1,,,,,,,,,
295519,2022-10-03_13h14.10.935,vts_reward_expectancy,2022.2.4,MacIntel,60.0024001,Chrome,1680,1050,,,,,1,981,,,,,,,,,,,,,,,,,F,174,hexagon,1,0,,,,,,,,,,,,,,,,switch,number,numSwt,k,0.5003,Lo,,,,,,2,,,,,,,,high,8,0,8,0,1,,,,,,,,,
295519,2022-10-03_13h14.10.935,vts_reward_expectancy,2022.2.4,MacIntel,60.0024001,Chrome,1680,1050,,,,,0,981,,,,,,,,,,,,,,,,,Y,139,triangle,1,0,,,,,,,,,,,,,,,,repeat,number,numRpt,j,0.4326,Hi,,,,,,2,,,,,,,,high,9,0,9,0,1,,,,,,,,,
295519,2022-10-03_13h14.10.935,vts_reward_expectancy,2022.2.4,MacIntel,60.0024001,Chrome,1680,1050,,,,,0,981,,,,,,,,,,,,,,,,,S,167,triangle,1,0,,,,,,,,,,,,,,,,repeat,number,numRpt,k,0.4629,Hi,,,,,,2,,,,,,,,high,10,0,10,0,1,,,,,,,,,
295519,2022-10-03_13h14.10.935,vts_reward_expectancy,2022.2.4,MacIntel,60.0024001,Chrome,1680,1050,,,,,1,982,,,,,,,,,,,,,,,,,U,146,hexagon,1,0,,,,,,,,,,,,,,,,repeat,number,numRpt,j,0.4176,Lo,,,,,,2,,,,,,,,high,11,0,11,0,1,,,,,,,,,
295519,2022-10-03_13h14.10.935,vts_reward_expectancy,2022.2.4,MacIntel,60.0024001,Chrome,1680,1050,,,,,0,982,,,,,,,,,,,,,,,,,B,132,triangle,1,0,,,,,,,,,,,,,,,,repeat,number,numRpt,j,0.6488,Hi,,,,,,2,,,,,,,,high,12,0,12,0,1,,,,,,,,,
295519,2022-10-03_13h14.10.935,vts_reward_expectancy,2022.2.4,MacIntel,60.0024001,Chrome,1680,1050,,,,,1,983,,,,,,,,,,,,,,,,,H,125,hexagon,1,0,,,,,,,,,,,,,,,,repeat,number,numRpt,j,0.6136,Lo,,,,,,2,,,,,,,,high,13,0,13,0,1,,,,,,,,,
295519,2022-10-03_13h14.10.935,vts_reward_expectancy,2022.2.4,MacIntel,60.0024001,Chrome,1680,1050,,,,,0,983,,,,,,,,,,,,,,,,,W,181,triangle,1,0,,,,,,,,,,,,,,,,switch,letter,lettSwt,f,0.495,Hi,,,,,,2,,,,,,,,high,14,0,14,0,1,,,,,,,,,
295519,2022-10-03_13h14.10.935,vts_reward_expectancy,2022.2.4,MacIntel,60.0024001,Chrome,1680,1050,,,,,1,984,,,,,,,,,,,,,,,,,D,160,hexagon,1,0,,,,,,,,,,,,,,,,repeat,letter,lettRpt,d,0.4128,Lo,,,,,,2,,,,,,,,high,15,0,15,0,1,,,,,,,,,
295519,2022-10-03_13h14.10.935,vts_reward_expectancy,2022.2.4,MacIntel,60.0024001,Chrome,1680,1050,,,,,10,994,,,,,,,,,,,,,,,,,F,125,hexagon,1,0,,,,,,,,,,,,,,,,switch,number,numSwt,j,0.4336,Lo,,,,,,2,,,,,,,,high,16,0,16,0,1,,,,,,,,,
295519,2022-10-03_13h14.10.935,vts_reward_expectancy,2022.2.4,MacIntel,60.0024001,Chrome,1680,1050,,,,,0,994,,,,,,,,,,,,,,,,,W,146,triangle,1,0,,,,,,,,,,,,,,,,repeat,number,numRpt,j,0.529,Hi,,,,,,2,,,,,,,,high,17,0,17,0,1,,,,,,,,,
295519,2022-10-03_13h14.10.935,vts_reward_expectancy,2022.2.4,MacIntel,60.0024001,Chrome,1680,1050,,,,,10,1004,,,,,,,,,,,,,,,,,U,139,triangle,1,0,,,,,,,,,,,,,,,,repeat,number,numRpt,j,0.3786,Hi,,,,,,2,,,,,,,,high,18,0,18,0,1,,,,,,,,,
295519,2022-10-03_13h14.10.935,vts_reward_expectancy,2022.2.4,MacIntel,60.0024001,Chrome,1680,1050,,,,,1,1005,,,,,,,,,,,,,,,,,H,181,hexagon,1,0,,,,,,,,,,,,,,,,switch,letter,lettSwt,d,0.4,Lo,,,,,,2,,,,,,,,high,19,0,19,0,1,,,,,,,,,
295519,2022-10-03_13h14.10.935,vts_reward_expectancy,2022.2.4,MacIntel,60.0024001,Chrome,1680,1050,,,,,1,1006,,,,,,,,,,,,,,,,,Y,174,triangle,1,0,,,,,,,,,,,,,,,,switch,number,numSwt,k,0.4129,Hi,,,,,,2,,,,,,,,high,20,0,20,0,1,,,,,,,,,
295519,2022-10-03_13h14.10.935,vts_reward_expectancy,2022.2.4,MacIntel,60.0024001,Chrome,1680,1050,,,,,0,1006,,,,,,,,,,,,,,,,,B,167,hexagon,0,0,,,,,,,,,,,,,,,,repeat,number,NA,j,0.5444,Hi,,,,,,2,,,,,,,,high,21,0,21,0,1,,,,,,,,,
295519,2022-10-03_13h14.10.935,vts_reward_expectancy,2022.2.4,MacIntel,60.0024001,Chrome,1680,1050,,,,,1,1007,,,,,,,,,,,,,,,,,S,160,hexagon,1,1,,,,,,,,,,,,,,,,switch,letter,lettSwt,f,0.4512,Lo,,,,,,2,,,,,,,,high,22,0,22,0,1,,,,,,,,,
295519,2022-10-03_13h14.10.935,vts_reward_expectancy,2022.2.4,MacIntel,60.0024001,Chrome,1680,1050,,,,,10,1017,,,,,,,,,,,,,,,,,D,132,triangle,1,0,,,,,,,,,,,,,,,,repeat,letter,lettRpt,d,0.3493,Hi,,,,,,2,,,,,,,,high,23,0,23,0,1,,,,,,,,,
295519,2022-10-03_13h14.10.935,vts_reward_expectancy,2022.2.4,MacIntel,60.0024001,Chrome,1680,1050,,,,,1,1018,,,,,,,,,,,,,,,,,D,139,hexagon,1,0,,,,,,,,,,,,,,,,switch,number,numSwt,j,0.3984,Lo,,,,,,2,,,,,,,,high,24,0,24,0,1,,,,,,,,,
295519,2022-10-03_13h14.10.935,vts_reward_expectancy,2022.2.4,MacIntel,60.0024001,Chrome,1680,1050,,,,,1,1019,,,,,,,,,,,,,,,,,F,125,triangle,1,0,,,,,,,,,,,,,,,,repeat,number,numRpt,j,0.4137,Hi,,,,,,2,,,,,,,,high,25,0,25,0,1,,,,,,,,,
295519,2022-10-03_13h14.10.935,vts_reward_expectancy,2022.2.4,MacIntel,60.0024001,Chrome,1680,1050,,,,,1,1020,,,,,,,,,,,,,,,,,Y,146,hexagon,1,0,,,,,,,,,,,,,,,,repeat,number,numRpt,j,0.4628,Lo,,,,,,2,,,,,,,,high,26,0,26,0,1,,,,,,,,,
295519,2022-10-03_13h14.10.935,vts_reward_expectancy,2022.2.4,MacIntel,60.0024001,Chrome,1680,1050,,,,,0,1020,,,,,,,,,,,,,,,,,U,174,triangle,0,0,,,,,,,,,,,,,,,,switch,letter,NA,d,0.3122,Lo,,,,,,2,,,,,,,,high,27,0,27,0,1,,,,,,,,,
295519,2022-10-03_13h14.10.935,vts_reward_expectancy,2022.2.4,MacIntel,60.0024001,Chrome,1680,1050,,,,,10,1030,,,,,,,,,,,,,,,,,H,167,triangle,1,1,,,,,,,,,,,,,,,,repeat,letter,lettRpt,d,0.3479,Hi,,,,,,2,,,,,,,,high,28,0,28,0,1,,,,,,,,,
295519,2022-10-03_13h14.10.935,vts_reward_expectancy,2022.2.4,MacIntel,60.0024001,Chrome,1680,1050,,,,,1,1031,,,,,,,,,,,,,,,,,W,132,hexagon,1,0,,,,,,,,,,,,,,,,switch,number,numSwt,j,0.4797,Lo,,,,,,2,,,,,,,,high,29,0,29,0,1,,,,,,,,,
295519,2022-10-03_13h14.10.935,vts_reward_expectancy,2022.2.4,MacIntel,60.0024001,Chrome,1680,1050,,,,,1,1032,,,,,,,,,,,,,,,,,B,160,hexagon,1,0,,,,,,,,,,,,,,,,repeat,number,numRpt,k,0.4168,Lo,,,,,,2,,,,,,,,high,30,0,30,0,1,,,,,,,,,
295519,2022-10-03_13h14.10.935,vts_reward_expectancy,2022.2.4,MacIntel,60.0024001,Chrome,1680,1050,,,,,0,1032,,,,,,,,,,,,,,,,,S,181,triangle,0,0,,,,,,,,,,,,,,,,switch,letter,NA,d,0.4501,Lo,,,,,,2,,,,,,,,high,31,0,31,0,1,,,,,,,,,
295519,2022-10-03_13h14.10.935,vts_reward_expectancy,2022.2.4,MacIntel,60.0024001,Chrome,1680,1050,,,,,0,1032,,,,,,,,,,,,,,,,,D,167,circle,1,1,,,,,,,,,,,,,,,,repeat,letter,lettRpt,d,0.5124,Hi,,,,,,3,,,,,,space,0.7696,low,0,0,0,0,1,,,,,,,,,
295519,2022-10-03_13h14.10.935,vts_reward_expectancy,2022.2.4,MacIntel,60.0024001,Chrome,1680,1050,,,,,10,1042,,,,,,,,,,,,,,,,,H,139,star,1,0,,,,,,,,,,,,,,,,repeat,letter,lettRpt,d,0.3921,Lo,,,,,,3,,,,,,,,low,1,0,1,0,1,,,,,,,,,
295519,2022-10-03_13h14.10.935,vts_reward_expectancy,2022.2.4,MacIntel,60.0024001,Chrome,1680,1050,,,,,0,1042,,,,,,,,,,,,,,,,,W,174,circle,1,0,,,,,,,,,,,,,,,,repeat,letter,lettRpt,f,0.4114,Hi,,,,,,3,,,,,,,,low,2,0,2,0,1,,,,,,,,,
295519,2022-10-03_13h14.10.935,vts_reward_expectancy,2022.2.4,MacIntel,60.0024001,Chrome,1680,1050,,,,,0,1042,,,,,,,,,,,,,,,,,Y,181,star,0,0,,,,,,,,,,,,,,,,repeat,letter,NA,d,0.4244,Hi,,,,,,3,,,,,,,,low,3,0,3,0,1,,,,,,,,,
295519,2022-10-03_13h14.10.935,vts_reward_expectancy,2022.2.4,MacIntel,60.0024001,Chrome,1680,1050,,,,,10,1052,,,,,,,,,,,,,,,,,B,125,star,1,1,,,,,,,,,,,,,,,,repeat,letter,lettRpt,d,0.4108,Lo,,,,,,3,,,,,,,,low,4,0,4,0,1,,,,,,,,,
295519,2022-10-03_13h14.10.935,vts_reward_expectancy,2022.2.4,MacIntel,60.0024001,Chrome,1680,1050,,,,,1,1053,,,,,,,,,,,,,,,,,S,132,circle,1,0,,,,,,,,,,,,,,,,switch,number,numSwt,j,0.2981,Hi,,,,,,3,,,,,,,,low,5,0,5,0,1,,,,,,,,,
295519,2022-10-03_13h14.10.935,vts_reward_expectancy,2022.2.4,MacIntel,60.0024001,Chrome,1680,1050,,,,,0,1053,,,,,,,,,,,,,,,,,U,160,circle,0,0,,,,,,,,,,,,,,,,switch,letter,NA,d,0.2256,Hi,,,,,,3,,,,,,,,low,6,0,6,0,1,,,,,,,,,
295519,2022-10-03_13h14.10.935,vts_reward_expectancy,2022.2.4,MacIntel,60.0024001,Chrome,1680,1050,,,,,0,1053,,,,,,,,,,,,,,,,,F,146,star,0,1,,,,,,,,,,,,,,,,repeat,letter,NA,f,0.4096,Hi,,,,,,3,,,,,,,,low,7,0,7,0,1,,,,,,,,,
295519,2022-10-03_13h14.10.935,vts_reward_expectancy,2022.2.4,MacIntel,60.0024001,Chrome,1680,1050,,,,,1,1054,,,,,,,,,,,,,,,,,D,167,star,1,1,,,,,,,,,,,,,,,,repeat,letter,lettRpt,d,0.3915,Lo,,,,,,3,,,,,,,,low,8,0,8,0,1,,,,,,,,,
295519,2022-10-03_13h14.10.935,vts_reward_expectancy,2022.2.4,MacIntel,60.0024001,Chrome,1680,1050,,,,,0,1054,,,,,,,,,,,,,,,,,H,139,circle,1,0,,,,,,,,,,,,,,,,repeat,letter,lettRpt,d,0.5615,Hi,,,,,,3,,,,,,,,low,9,0,9,0,1,,,,,,,,,
295519,2022-10-03_13h14.10.935,vts_reward_expectancy,2022.2.4,MacIntel,60.0024001,Chrome,1680,1050,,,,,0,1054,,,,,,,,,,,,,,,,,W,174,circle,1,0,,,,,,,,,,,,,,,,repeat,letter,lettRpt,f,0.559,Hi,,,,,,3,,,,,,,,low,10,0,10,0,1,,,,,,,,,
295519,2022-10-03_13h14.10.935,vts_reward_expectancy,2022.2.4,MacIntel,60.0024001,Chrome,1680,1050,,,,,0,1054,,,,,,,,,,,,,,,,,Y,181,star,0,0,,,,,,,,,,,,,,,,switch,number,NA,j,0.4112,Hi,,,,,,3,,,,,,,,low,11,0,11,0,1,,,,,,,,,
295519,2022-10-03_13h14.10.935,vts_reward_expectancy,2022.2.4,MacIntel,60.0024001,Chrome,1680,1050,,,,,0,1054,,,,,,,,,,,,,,,,,B,125,circle,1,1,,,,,,,,,,,,,,,,repeat,number,numRpt,j,0.4439,Hi,,,,,,3,,,,,,,,low,12,0,12,0,1,,,,,,,,,
295519,2022-10-03_13h14.10.935,vts_reward_expectancy,2022.2.4,MacIntel,60.0024001,Chrome,1680,1050,,,,,1,1055,,,,,,,,,,,,,,,,,S,132,star,1,0,,,,,,,,,,,,,,,,repeat,number,numRpt,j,0.4303,Lo,,,,,,3,,,,,,,,low,13,0,13,0,1,,,,,,,,,
295519,2022-10-03_13h14.10.935,vts_reward_expectancy,2022.2.4,MacIntel,60.0024001,Chrome,1680,1050,,,,,1,1056,,,,,,,,,,,,,,,,,U,160,star,1,0,,,,,,,,,,,,,,,,repeat,number,numRpt,k,0.1427,Lo,,,,,,3,,,,,,,,low,14,0,14,0,1,,,,,,,,,
295519,2022-10-03_13h14.10.935,vts_reward_expectancy,2022.2.4,MacIntel,60.0024001,Chrome,1680,1050,,,,,0,1056,,,,,,,,,,,,,,,,,F,146,circle,0,0,,,,,,,,,,,,,,,,switch,letter,NA,f,0.093,Lo,,,,,,3,,,,,,,,low,15,0,15,0,1,,,,,,,,,
295519,2022-10-03_13h14.10.935,vts_reward_expectancy,2022.2.4,MacIntel,60.0024001,Chrome,1680,1050,,,,,0,1056,,,,,,,,,,,,,,,,,F,160,star,0,1,,,,,,,,,,,,,,,,repeat,letter,NA,f,0.23,Lo,,,,,,3,,,,,,,,low,16,0,16,0,1,,,,,,,,,
295519,2022-10-03_13h14.10.935,vts_reward_expectancy,2022.2.4,MacIntel,60.0024001,Chrome,1680,1050,,,,,10,1066,,,,,,,,,,,,,,,,,B,139,circle,1,1,,,,,,,,,,,,,,,,repeat,letter,lettRpt,d,0.2128,Hi,,,,,,3,,,,,,,,low,17,0,17,0,1,,,,,,,,,
295519,2022-10-03_13h14.10.935,vts_reward_expectancy,2022.2.4,MacIntel,60.0024001,Chrome,1680,1050,,,,,10,1076,,,,,,,,,,,,,,,,,H,132,circle,1,0,,,,,,,,,,,,,,,,repeat,letter,lettRpt,d,0.1263,Hi,,,,,,3,,,,,,,,low,18,0,18,0,1,,,,,,,,,
295519,2022-10-03_13h14.10.935,vts_reward_expectancy,2022.2.4,MacIntel,60.0024001,Chrome,1680,1050,,,,,1,1077,,,,,,,,,,,,,,,,,W,167,star,1,0,,,,,,,,,,,,,,,,repeat,letter,lettRpt,f,0.3936,Lo,,,,,,3,,,,,,,,low,19,0,19,0,1,,,,,,,,,
295519,2022-10-03_13h14.10.935,vts_reward_expectancy,2022.2.4,MacIntel,60.0024001,Chrome,1680,1050,,,,,1,1078,,,,,,,,,,,,,,,,,Y,146,circle,1,0,,,,,,,,,,,,,,,,repeat,letter,lettRpt,f,0.0133,Hi,,,,,,3,,,,,,,,low,20,0,20,0,1,,,,,,,,,
295519,2022-10-03_13h14.10.935,vts_reward_expectancy,2022.2.4,MacIntel,60.0024001,Chrome,1680,1050,,,,,1,1079,,,,,,,,,,,,,,,,,D,125,star,1,0,,,,,,,,,,,,,,,,repeat,letter,lettRpt,d,0.2296,Lo,,,,,,3,,,,,,,,low,21,0,21,0,1,,,,,,,,,
295519,2022-10-03_13h14.10.935,vts_reward_expectancy,2022.2.4,MacIntel,60.0024001,Chrome,1680,1050,,,,,0,1079,,,,,,,,,,,,,,,,,U,181,star,0,0,,,,,,,,,,,,,,,,switch,number,NA,j,0.0268,Lo,,,,,,3,,,,,,,,low,22,0,22,0,1,,,,,,,,,
295519,2022-10-03_13h14.10.935,vts_reward_expectancy,2022.2.4,MacIntel,60.0024001,Chrome,1680,1050,,,,,0,1079,,,,,,,,,,,,,,,,,S,174,circle,0,1,,,,,,,,,,,,,,,,repeat,number,NA,j,0.0593,Lo,,,,,,3,,,,,,,,low,23,0,23,0,1,,,,,,,,,
295519,2022-10-03_13h14.10.935,vts_reward_expectancy,2022.2.4,MacIntel,60.0024001,Chrome,1680,1050,,,,,1,1080,,,,,,,,,,,,,,,,,W,167,star,1,1,,,,,,,,,,,,,,,,repeat,number,numRpt,k,0.1765,Lo,,,,,,3,,,,,,,,low,24,0,24,0,1,,,,,,,,,
295519,2022-10-03_13h14.10.935,vts_reward_expectancy,2022.2.4,MacIntel,60.0024001,Chrome,1680,1050,,,,,0,1080,,,,,,,,,,,,,,,,,F,132,circle,0,0,,,,,,,,,,,,,,,,switch,letter,NA,f,0.1245,Lo,,,,,,3,,,,,,,,low,25,0,25,0,1,,,,,,,,,
295519,2022-10-03_13h14.10.935,vts_reward_expectancy,2022.2.4,MacIntel,60.0024001,Chrome,1680,1050,,,,,10,1090,,,,,,,,,,,,,,,,,U,125,circle,1,1,,,,,,,,,,,,,,,,switch,number,numSwt,j,0.0594,Hi,,,,,,3,,,,,,,,low,26,0,26,0,1,,,,,,,,,
295519,2022-10-03_13h14.10.935,vts_reward_expectancy,2022.2.4,MacIntel,60.0024001,Chrome,1680,1050,,,,,1,1091,,,,,,,,,,,,,,,,,H,181,star,1,0,,,,,,,,,,,,,,,,repeat,number,numRpt,k,0.2272,Lo,,,,,,3,,,,,,,,low,27,0,27,0,1,,,,,,,,,
295519,2022-10-03_13h14.10.935,vts_reward_expectancy,2022.2.4,MacIntel,60.0024001,Chrome,1680,1050,,,,,0,1091,,,,,,,,,,,,,,,,,B,146,star,0,0,,,,,,,,,,,,,,,,switch,letter,NA,f,0.0278,Lo,,,,,,3,,,,,,,,low,28,0,28,0,1,,,,,,,,,
295519,2022-10-03_13h14.10.935,vts_reward_expectancy,2022.2.4,MacIntel,60.0024001,Chrome,1680,1050,,,,,0,1091,,,,,,,,,,,,,,,,,Y,174,circle,0,1,,,,,,,,,,,,,,,,switch,number,NA,j,0.229,Lo,,,,,,3,,,,,,,,low,29,0,29,0,1,,,,,,,,,
295519,2022-10-03_13h14.10.935,vts_reward_expectancy,2022.2.4,MacIntel,60.0024001,Chrome,1680,1050,,,,,10,1101,,,,,,,,,,,,,,,,,S,139,circle,1,1,,,,,,,,,,,,,,,,switch,letter,lettSwt,f,0.0935,Hi,,,,,,3,,,,,,,,low,30,0,30,0,1,,,,,,,,,
295519,2022-10-03_13h14.10.935,vts_reward_expectancy,2022.2.4,MacIntel,60.0024001,Chrome,1680,1050,,,,,1,1102,,,,,,,,,,,,,,,,,D,160,star,1,0,,,,,,,,,,,,,,,,repeat,letter,lettRpt,d,0.0479,Lo,,,,,,3,,,,,,,,low,31,0,31,0,1,,,,,,,,,
295519,2022-10-03_13h14.10.935,vts_reward_expectancy,2022.2.4,MacIntel,60.0024001,Chrome,1680,1050,,,,,0,1102,,,,,,,,,,,,,,,,,W,174,hexagon,0,0,,,,,,,,,,,,,,,,switch,number,NA,j,0.1769,Lo,,,,,,4,,,,,,space,0.6504,high,0,0,0,0,1,,,,,,,,,
295519,2022-10-03_13h14.10.935,vts_reward_expectancy,2022.2.4,MacIntel,60.0024001,Chrome,1680,1050,,,,,0,1102,,,,,,,,,,,,,,,,,D,160,triangle,0,1,,,,,,,,,,,,,,,,switch,letter,NA,f,0.0122,Lo,,,,,,4,,,,,,,,high,1,0,1,0,1,,,,,,,,,
295519,2022-10-03_13h14.10.935,vts_reward_expectancy,2022.2.4,MacIntel,60.0024001,Chrome,1680,1050,,,,,1,1103,,,,,,,,,,,,,,,,,H,146,hexagon,1,1,,,,,,,,,,,,,,,,repeat,letter,lettRpt,d,0.1424,Lo,,,,,,4,,,,,,,,high,2,0,2,0,1,,,,,,,,,
295519,2022-10-03_13h14.10.935,vts_reward_expectancy,2022.2.4,MacIntel,60.0024001,Chrome,1680,1050,,,,,0,1103,,,,,,,,,,,,,,,,,F,139,triangle,0,0,,,,,,,,,,,,,,,,repeat,letter,NA,f,0.065,Lo,,,,,,4,,,,,,,,high,3,0,3,0,1,,,,,,,,,
295519,2022-10-03_13h14.10.935,vts_reward_expectancy,2022.2.4,MacIntel,60.0024001,Chrome,1680,1050,,,,,1,1104,,,,,,,,,,,,,,,,,S,132,hexagon,1,1,,,,,,,,,,,,,,,,repeat,letter,lettRpt,f,0.4104,Lo,,,,,,4,,,,,,,,high,4,0,4,0,1,,,,,,,,,
295519,2022-10-03_13h14.10.935,vts_reward_expectancy,2022.2.4,MacIntel,60.0024001,Chrome,1680,1050,,,,,10,1114,,,,,,,,,,,,,,,,,B,125,triangle,1,0,,,,,,,,,,,,,,,,switch,number,numSwt,j,0.097,Hi,,,,,,4,,,,,,,,high,5,0,5,0,1,,,,,,,,,
295519,2022-10-03_13h14.10.935,vts_reward_expectancy,2022.2.4,MacIntel,60.0024001,Chrome,1680,1050,,,,,10,1124,,,,,,,,,,,,,,,,,Y,167,hexagon,1,0,,,,,,,,,,,,,,,,switch,letter,lettSwt,f,0.1932,Lo,,,,,,4,,,,,,,,high,6,0,6,0,1,,,,,,,,,
295519,2022-10-03_13h14.10.935,vts_reward_expectancy,2022.2.4,MacIntel,60.0024001,Chrome,1680,1050,,,,,10,1134,,,,,,,,,,,,,,,,,U,181,triangle,1,0,,,,,,,,,,,,,,,,switch,number,numSwt,k,0.1612,Hi,,,,,,4,,,,,,,,high,7,0,7,0,1,,,,,,,,,
295519,2022-10-03_13h14.10.935,vts_reward_expectancy,2022.2.4,MacIntel,60.0024001,Chrome,1680,1050,,,,,0,1134,,,,,,,,,,,,,,,,,W,174,hexagon,0,0,,,,,,,,,,,,,,,,switch,letter,NA,d,0.1436,Hi,,,,,,4,,,,,,,,high,8,0,8,0,1,,,,,,,,,
295519,2022-10-03_13h14.10.935,vts_reward_expectancy,2022.2.4,MacIntel,60.0024001,Chrome,1680,1050,,,,,0,1134,,,,,,,,,,,,,,,,,D,160,triangle,0,1,,,,,,,,,,,,,,,,switch,number,NA,j,0.1933,Hi,,,,,,4,,,,,,,,high,9,0,9,0,1,,,,,,,,,
295519,2022-10-03_13h14.10.935,vts_reward_expectancy,2022.2.4,MacIntel,60.0024001,Chrome,1680,1050,,,,,1,1135,,,,,,,,,,,,,,,,,H,146,hexagon,1,1,,,,,,,,,,,,,,,,switch,letter,lettSwt,d,0.3264,Lo,,,,,,4,,,,,,,,high,10,0,10,0,1,,,,,,,,,
295519,2022-10-03_13h14.10.935,vts_reward_expectancy,2022.2.4,MacIntel,60.0024001,Chrome,1680,1050,,,,,0,1135,,,,,,,,,,,,,,,,,F,139,triangle,0,0,,,,,,,,,,,,,,,,switch,number,NA,k,0.2936,Lo,,,,,,4,,,,,,,,high,11,0,11,0,1,,,,,,,,,
295519,2022-10-03_13h14.10.935,vts_reward_expectancy,2022.2.4,MacIntel,60.0024001,Chrome,1680,1050,,,,,1,1136,,,,,,,,,,,,,,,,,S,132,hexagon,1,1,,,,,,,,,,,,,,,,repeat,number,numRpt,j,0.5102,Lo,,,,,,4,,,,,,,,high,12,0,12,0,1,,,,,,,,,
295519,2022-10-03_13h14.10.935,vts_reward_expectancy,2022.2.4,MacIntel,60.0024001,Chrome,1680,1050,,,,,0,1136,,,,,,,,,,,,,,,,,B,125,triangle,1,0,,,,,,,,,,,,,,,,repeat,number,numRpt,j,0.3989,Hi,,,,,,4,,,,,,,,high,13,0,13,0,1,,,,,,,,,
295519,2022-10-03_13h14.10.935,vts_reward_expectancy,2022.2.4,MacIntel,60.0024001,Chrome,1680,1050,,,,,0,1136,,,,,,,,,,,,,,,,,Y,167,triangle,1,0,,,,,,,,,,,,,,,,repeat,number,numRpt,k,0.1951,Hi,,,,,,4,,,,,,,,high,14,0,14,0,1,,,,,,,,,
295519,2022-10-03_13h14.10.935,vts_reward_expectancy,2022.2.4,MacIntel,60.0024001,Chrome,1680,1050,,,,,1,1137,,,,,,,,,,,,,,,,,U,181,hexagon,1,0,,,,,,,,,,,,,,,,switch,letter,lettSwt,f,0.0162,Lo,,,,,,4,,,,,,,,high,15,0,15,0,1,,,,,,,,,
295519,2022-10-03_13h14.10.935,vts_reward_expectancy,2022.2.4,MacIntel,60.0024001,Chrome,1680,1050,,,,,1,1138,,,,,,,,,,,,,,,,,B,125,hexagon,1,0,,,,,,,,,,,,,,,,repeat,letter,lettRpt,d,0.2447,Lo,,,,,,4,,,,,,,,high,16,0,16,0,1,,,,,,,,,
295519,2022-10-03_13h14.10.935,vts_reward_expectancy,2022.2.4,MacIntel,60.0024001,Chrome,1680,1050,,,,,0,1138,,,,,,,,,,,,,,,,,H,174,triangle,0,0,,,,,,,,,,,,,,,,switch,number,NA,j,0.0125,Lo,,,,,,4,,,,,,,,high,17,0,17,0,1,,,,,,,,,
295519,2022-10-03_13h14.10.935,vts_reward_expectancy,2022.2.4,MacIntel,60.0024001,Chrome,1680,1050,,,,,0,1138,,,,,,,,,,,,,,,,,Y,132,hexagon,0,1,,,,,,,,,,,,,,,,repeat,number,NA,k,0.0435,Lo,,,,,,4,,,,,,,,high,18,0,18,0,1,,,,,,,,,
295519,2022-10-03_13h14.10.935,vts_reward_expectancy,2022.2.4,MacIntel,60.0024001,Chrome,1680,1050,,,,,0,1138,,,,,,,,,,,,,,,,,U,139,triangle,0,1,,,,,,,,,,,,,,,,switch,letter,NA,d,0.048,Lo,,,,,,4,,,,,,,,high,19,0,19,0,1,,,,,,,,,
295519,2022-10-03_13h14.10.935,vts_reward_expectancy,2022.2.4,MacIntel,60.0024001,Chrome,1680,1050,,,,,0,1138,,,,,,,,,,,,,,,,,D,181,hexagon,0,1,,,,,,,,,,,,,,,,repeat,letter,NA,f,0.3793,Lo,,,,,,4,,,,,,,,high,20,0,20,0,1,,,,,,,,,
295519,2022-10-03_13h14.10.935,vts_reward_expectancy,2022.2.4,MacIntel,60.0024001,Chrome,1680,1050,,,,,0,1138,,,,,,,,,,,,,,,,,S,146,triangle,1,1,,,,,,,,,,,,,,,,repeat,letter,lettRpt,f,0.4458,Hi,,,,,,4,,,,,,,,high,21,0,21,0,1,,,,,,,,,
295519,2022-10-03_13h14.10.935,vts_reward_expectancy,2022.2.4,MacIntel,60.0024001,Chrome,1680,1050,,,,,0,1138,,,,,,,,,,,,,,,,,F,167,triangle,0,0,,,,,,,,,,,,,,,,switch,number,NA,j,0.1609,Hi,,,,,,4,,,,,,,,high,22,0,22,0,1,,,,,,,,,
295519,2022-10-03_13h14.10.935,vts_reward_expectancy,2022.2.4,MacIntel,60.0024001,Chrome,1680,1050,,,,,1,1139,,,,,,,,,,,,,,,,,W,160,hexagon,1,1,,,,,,,,,,,,,,,,repeat,number,numRpt,k,0.4634,Lo,,,,,,4,,,,,,,,high,23,0,23,0,1,,,,,,,,,
295519,2022-10-03_13h14.10.935,vts_reward_expectancy,2022.2.4,MacIntel,60.0024001,Chrome,1680,1050,,,,,1,1140,,,,,,,,,,,,,,,,,U,125,hexagon,1,0,,,,,,,,,,,,,,,,repeat,number,numRpt,j,0.278,Lo,,,,,,4,,,,,,,,high,24,0,24,0,1,,,,,,,,,
295519,2022-10-03_13h14.10.935,vts_reward_expectancy,2022.2.4,MacIntel,60.0024001,Chrome,1680,1050,,,,,0,1140,,,,,,,,,,,,,,,,,W,146,triangle,1,0,,,,,,,,,,,,,,,,repeat,number,numRpt,j,0.3948,Hi,,,,,,4,,,,,,,,high,25,0,25,0,1,,,,,,,,,
295519,2022-10-03_13h14.10.935,vts_reward_expectancy,2022.2.4,MacIntel,60.0024001,Chrome,1680,1050,,,,,0,1140,,,,,,,,,,,,,,,,,S,181,hexagon,0,0,,,,,,,,,,,,,,,,switch,letter,NA,d,0.1126,Hi,,,,,,4,,,,,,,,high,26,0,26,0,1,,,,,,,,,
295519,2022-10-03_13h14.10.935,vts_reward_expectancy,2022.2.4,MacIntel,60.0024001,Chrome,1680,1050,,,,,0,1140,,,,,,,,,,,,,,,,,B,160,triangle,1,1,,,,,,,,,,,,,,,,repeat,letter,lettRpt,d,0.3787,Hi,,,,,,4,,,,,,,,high,27,0,27,0,1,,,,,,,,,
295519,2022-10-03_13h14.10.935,vts_reward_expectancy,2022.2.4,MacIntel,60.0024001,Chrome,1680,1050,,,,,10,1150,,,,,,,,,,,,,,,,,D,174,hexagon,1,0,,,,,,,,,,,,,,,,repeat,letter,lettRpt,d,0.3606,Lo,,,,,,4,,,,,,,,high,28,0,28,0,1,,,,,,,,,
295519,2022-10-03_13h14.10.935,vts_reward_expectancy,2022.2.4,MacIntel,60.0024001,Chrome,1680,1050,,,,,0,1150,,,,,,,,,,,,,,,,,H,132,triangle,1,0,,,,,,,,,,,,,,,,repeat,letter,lettRpt,d,0.3336,Hi,,,,,,4,,,,,,,,high,29,0,29,0,1,,,,,,,,,
295519,2022-10-03_13h14.10.935,vts_reward_expectancy,2022.2.4,MacIntel,60.0024001,Chrome,1680,1050,,,,,0,1150,,,,,,,,,,,,,,,,,F,167,hexagon,0,0,,,,,,,,,,,,,,,,repeat,letter,NA,f,0.3498,Hi,,,,,,4,,,,,,,,high,30,0,30,0,1,,,,,,,,,
295519,2022-10-03_13h14.10.935,vts_reward_expectancy,2022.2.4,MacIntel,60.0024001,Chrome,1680,1050,,,,,0,1150,,,,,,,,,,,,,,,,,Y,139,triangle,0,1,,,,,,,,,,,,,,,,switch,number,NA,k,0.2137,Hi,,,,,,4,,,,,,,,high,31,0,31,0,1,,,,,,,,,
295519,2022-10-03_13h14.10.935,vts_reward_expectancy,2022.2.4,MacIntel,60.0024001,Chrome,1680,1050,,,,,0,1150,,,,,,,,,,,,,,,,,W,174,circle,1,1,,,,,,,,,,,,,,,,switch,letter,lettSwt,f,0.2619,Hi,,,,,,5,,,,,,space,0.7233,low,0,0,0,0,1,,,,,,,,,
295519,2022-10-03_13h14.10.935,vts_reward_expectancy,2022.2.4,MacIntel,60.0024001,Chrome,1680,1050,,,,,0,1150,,,,,,,,,,,,,,,,,U,132,star,0,0,,,,,,,,,,,,,,,,repeat,letter,NA,d,0.3628,Hi,,,,,,5,,,,,,,,low,1,0,1,0,1,,,,,,,,,
295519,2022-10-03_13h14.10.935,vts_reward_expectancy,2022.2.4,MacIntel,60.0024001,Chrome,1680,1050,,,,,0,1150,,,,,,,,,,,,,,,,,H,181,circle,1,1,,,,,,,,,,,,,,,,repeat,letter,lettRpt,d,0.4953,Hi,,,,,,5,,,,,,,,low,2,0,2,0,1,,,,,,,,,
295519,2022-10-03_13h14.10.935,vts_reward_expectancy,2022.2.4,MacIntel,60.0024001,Chrome,1680,1050,,,,,1,1151,,,,,,,,,,,,,,,,,B,146,star,1,0,,,,,,,,,,,,,,,,repeat,letter,lettRpt,d,0.3108,Lo,,,,,,5,,,,,,,,low,3,0,3,0,1,,,,,,,,,
295519,2022-10-03_13h14.10.935,vts_reward_expectancy,2022.2.4,MacIntel,60.0024001,Chrome,1680,1050,,,,,0,1151,,,,,,,,,,,,,,,,,S,167,circle,0,0,,,,,,,,,,,,,,,,switch,number,NA,j,0.246,Lo,,,,,,5,,,,,,,,low,4,0,4,0,1,,,,,,,,,
295519,2022-10-03_13h14.10.935,vts_reward_expectancy,2022.2.4,MacIntel,60.0024001,Chrome,1680,1050,,,,,1,1152,,,,,,,,,,,,,,,,,F,139,star,1,1,,,,,,,,,,,,,,,,switch,letter,lettSwt,d,0.3452,Lo,,,,,,5,,,,,,,,low,5,0,5,0,1,,,,,,,,,
295519,2022-10-03_13h14.10.935,vts_reward_expectancy,2022.2.4,MacIntel,60.0024001,Chrome,1680,1050,,,,,0,1152,,,,,,,,,,,,,,,,,D,160,star,0,0,,,,,,,,,,,,,,,,repeat,letter,NA,f,0.2815,Lo,,,,,,5,,,,,,,,low,6,0,6,0,1,,,,,,,,,
295519,2022-10-03_13h14.10.935,vts_reward_expectancy,2022.2.4,MacIntel,60.0024001,Chrome,1680,1050,,,,,0,1152,,,,,,,,,,,,,,,,,Y,125,circle,1,1,,,,,,,,,,,,,,,,switch,number,numSwt,j,0.4305,Hi,,,,,,5,,,,,,,,low,7,0,7,0,1,,,,,,,,,
295519,2022-10-03_13h14.10.935,vts_reward_expectancy,2022.2.4,MacIntel,60.0024001,Chrome,1680,1050,,,,,0,1152,,,,,,,,,,,,,,,,,W,174,circle,1,0,,,,,,,,,,,,,,,,repeat,number,numRpt,k,0.3958,Hi,,,,,,5,,,,,,,,low,8,0,8,0,1,,,,,,,,,
295519,2022-10-03_13h14.10.935,vts_reward_expectancy,2022.2.4,MacIntel,60.0024001,Chrome,1680,1050,,,,,0,1152,,,,,,,,,,,,,,,,,U,132,star,0,0,,,,,,,,,,,,,,,,switch,letter,NA,d,0.011,Hi,,,,,,5,,,,,,,,low,9,0,9,0,1,,,,,,,,,
295519,2022-10-03_13h14.10.935,vts_reward_expectancy,2022.2.4,MacIntel,60.0024001,Chrome,1680,1050,,,,,1,1153,,,,,,,,,,,,,,,,,H,181,circle,1,1,,,,,,,,,,,,,,,,repeat,letter,lettRpt,d,0.2457,Hi,,,,,,5,,,,,,,,low,10,0,10,0,1,,,,,,,,,
295519,2022-10-03_13h14.10.935,vts_reward_expectancy,2022.2.4,MacIntel,60.0024001,Chrome,1680,1050,,,,,1,1154,,,,,,,,,,,,,,,,,B,146,star,1,0,,,,,,,,,,,,,,,,switch,number,numSwt,j,0.1127,Lo,,,,,,5,,,,,,,,low,11,0,11,0,1,,,,,,,,,
295519,2022-10-03_13h14.10.935,vts_reward_expectancy,2022.2.4,MacIntel,60.0024001,Chrome,1680,1050,,,,,1,1155,,,,,,,,,,,,,,,,,S,167,circle,1,0,,,,,,,,,,,,,,,,repeat,number,numRpt,k,0.1652,Hi,,,,,,5,,,,,,,,low,12,0,12,0,1,,,,,,,,,
295519,2022-10-03_13h14.10.935,vts_reward_expectancy,2022.2.4,MacIntel,60.0024001,Chrome,1680,1050,,,,,10,1165,,,,,,,,,,,,,,,,,F,139,star,1,0,,,,,,,,,,,,,,,,switch,letter,lettSwt,d,0.1673,Lo,,,,,,5,,,,,,,,low,13,0,13,0,1,,,,,,,,,
295519,2022-10-03_13h14.10.935,vts_reward_expectancy,2022.2.4,MacIntel,60.0024001,Chrome,1680,1050,,,,,10,1175,,,,,,,,,,,,,,,,,D,160,star,1,0,,,,,,,,,,,,,,,,switch,number,numSwt,k,0.4792,Lo,,,,,,5,,,,,,,,low,14,0,14,0,1,,,,,,,,,
295519,2022-10-03_13h14.10.935,vts_reward_expectancy,2022.2.4,MacIntel,60.0024001,Chrome,1680,1050,,,,,0,1175,,,,,,,,,,,,,,,,,Y,125,circle,1,0,,,,,,,,,,,,,,,,repeat,number,numRpt,j,0.4135,Hi,,,,,,5,,,,,,,,low,15,0,15,0,1,,,,,,,,,
295519,2022-10-03_13h14.10.935,vts_reward_expectancy,2022.2.4,MacIntel,60.0024001,Chrome,1680,1050,,,,,0,1175,,,,,,,,,,,,,,,,,U,160,circle,1,0,,,,,,,,,,,,,,,,switch,letter,lettSwt,f,0.2452,Hi,,,,,,5,,,,,,,,low,16,0,16,0,1,,,,,,,,,
295519,2022-10-03_13h14.10.935,vts_reward_expectancy,2022.2.4,MacIntel,60.0024001,Chrome,1680,1050,,,,,0,1175,,,,,,,,,,,,,,,,,B,167,star,0,0,,,,,,,,,,,,,,,,switch,number,NA,j,0.3317,Hi,,,,,,5,,,,,,,,low,17,0,17,0,1,,,,,,,,,
295519,2022-10-03_13h14.10.935,vts_reward_expectancy,2022.2.4,MacIntel,60.0024001,Chrome,1680,1050,,,,,1,1176,,,,,,,,,,,,,,,,,Y,132,star,1,1,,,,,,,,,,,,,,,,repeat,number,numRpt,j,0.3678,Lo,,,,,,5,,,,,,,,low,18,0,18,0,1,,,,,,,,,
295519,2022-10-03_13h14.10.935,vts_reward_expectancy,2022.2.4,MacIntel,60.0024001,Chrome,1680,1050,,,,,1,1177,,,,,,,,,,,,,,,,,D,146,circle,1,0,,,,,,,,,,,,,,,,repeat,number,numRpt,j,0.2622,Hi,,,,,,5,,,,,,,,low,19,0,19,0,1,,,,,,,,,
295519,2022-10-03_13h14.10.935,vts_reward_expectancy,2022.2.4,MacIntel,60.0024001,Chrome,1680,1050,,,,,1,1178,,,,,,,,,,,,,,,,,S,139,circle,1,0,,,,,,,,,,,,,,,,repeat,number,numRpt,j,0.3508,Hi,,,,,,5,,,,,,,,low,20,0,20,0,1,,,,,,,,,
295519,2022-10-03_13h14.10.935,vts_reward_expectancy,2022.2.4,MacIntel,60.0024001,Chrome,1680,1050,,,,,0,1178,,,,,,,,,,,,,,,,,F,181,star,0,0,,,,,,,,,,,,,,,,switch,letter,NA,f,0.4783,Hi,,,,,,5,,,,,,,,low,21,0,21,0,1,,,,,,,,,
295519,2022-10-03_13h14.10.935,vts_reward_expectancy,2022.2.4,MacIntel,60.0024001,Chrome,1680,1050,,,,,0,1178,,,,,,,,,,,,,,,,,H,125,circle,0,1,,,,,,,,,,,,,,,,repeat,letter,NA,f,0.0959,Hi,,,,,,5,,,,,,,,low,22,0,22,0,1,,,,,,,,,
295519,2022-10-03_13h14.10.935,vts_reward_expectancy,2022.2.4,MacIntel,60.0024001,Chrome,1680,1050,,,,,1,1179,,,,,,,,,,,,,,,,,W,174,star,1,1,,,,,,,,,,,,,,,,repeat,letter,lettRpt,f,0.4165,Lo,,,,,,5,,,,,,,,low,23,0,23,0,1,,,,,,,,,
295519,2022-10-03_13h14.10.935,vts_reward_expectancy,2022.2.4,MacIntel,60.0024001,Chrome,1680,1050,,,,,0,1179,,,,,,,,,,,,,,,,,D,146,circle,0,0,,,,,,,,,,,,,,,,repeat,letter,NA,f,0.2332,Lo,,,,,,5,,,,,,,,low,24,0,24,0,1,,,,,,,,,
295519,2022-10-03_13h14.10.935,vts_reward_expectancy,2022.2.4,MacIntel,60.0024001,Chrome,1680,1050,,,,,0,1179,,,,,,,,,,,,,,,,,W,167,star,0,1,,,,,,,,,,,,,,,,repeat,letter,NA,d,0.3119,Lo,,,,,,5,,,,,,,,low,25,0,25,0,1,,,,,,,,,
295519,2022-10-03_13h14.10.935,vts_reward_expectancy,2022.2.4,MacIntel,60.0024001,Chrome,1680,1050,,,,,1,1180,,,,,,,,,,,,,,,,,H,125,star,1,1,,,,,,,,,,,,,,,,switch,number,numSwt,j,0.2157,Lo,,,,,,5,,,,,,,,low,26,0,26,0,1,,,,,,,,,
295519,2022-10-03_13h14.10.935,vts_reward_expectancy,2022.2.4,MacIntel,60.0024001,Chrome,1680,1050,,,,,0,1180,,,,,,,,,,,,,,,,,S,181,circle,1,0,,,,,,,,,,,,,,,,switch,letter,lettSwt,f,0.4142,Hi,,,,,,5,,,,,,,,low,27,0,27,0,1,,,,,,,,,
295519,2022-10-03_13h14.10.935,vts_reward_expectancy,2022.2.4,MacIntel,60.0024001,Chrome,1680,1050,,,,,0,1180,,,,,,,,,,,,,,,,,U,174,circle,1,0,,,,,,,,,,,,,,,,switch,number,numSwt,k,0.2121,Hi,,,,,,5,,,,,,,,low,28,0,28,0,1,,,,,,,,,
295519,2022-10-03_13h14.10.935,vts_reward_expectancy,2022.2.4,MacIntel,60.0024001,Chrome,1680,1050,,,,,1,1181,,,,,,,,,,,,,,,,,B,139,star,1,0,,,,,,,,,,,,,,,,switch,letter,lettSwt,d,0.3334,Lo,,,,,,5,,,,,,,,low,29,0,29,0,1,,,,,,,,,
295519,2022-10-03_13h14.10.935,vts_reward_expectancy,2022.2.4,MacIntel,60.0024001,Chrome,1680,1050,,,,,0,1181,,,,,,,,,,,,,,,,,F,160,circle,0,0,,,,,,,,,,,,,,,,switch,number,NA,j,0.0004,Lo,,,,,,5,,,,,,,,low,30,0,30,0,1,,,,,,,,,
295519,2022-10-03_13h14.10.935,vts_reward_expectancy,2022.2.4,MacIntel,60.0024001,Chrome,1680,1050,,,,,1,1182,,,,,,,,,,,,,,,,,Y,132,star,1,1,,,,,,,,,,,,,,,,switch,letter,lettSwt,f,0.3616,Lo,,,,,,5,,,,,,,,low,31,0,31,0,1,,,,,,,,,
295519,2022-10-03_13h14.10.935,vts_reward_expectancy,2022.2.4,MacIntel,60.0024001,Chrome,1680,1050,,,,,,,,,,,,,,,,,,,,,,,,,,,,,,,,,,,,,,,,,,,,,,,,,,,,,,6,,,,,,,,,,,,,,I was asked to choose between letters and numbers. Somehow there was a shape coordinated with the letters and numbers I was suppose to pick from. ,1,,4,3,,2,1680,1050
