participant,date,expName,psychopyVersion,OS,frameRate,browser,xResolution,yResolution,key_resp.keys,key_resp.rt,training_resp.keys,training_resp.rt,points_trial,points_cumul,trainBlock,training.thisRepN,training.thisTrialN,training.thisN,training.thisIndex,training.ran,LTriangleOpac,LCircleOpac,LHexagonOpac,LStarOpac,RTriangleOpac,RCircleOpac,RHexagonOpac,RStarOpac,LShape_ID,RShape_ID,curr_topStim,curr_bottStim,curr_shape,acc,E1,target_resp_prac1.keys,target_resp_prac1.rt,pracBlock,task1_prac_trials.thisRepN,task1_prac_trials.thisTrialN,task1_prac_trials.thisN,task1_prac_trials.thisIndex,task1_prac_trials.ran,target_resp_prac2.keys,target_resp_prac2.rt,task2_praac_trials.thisRepN,task2_praac_trials.thisTrialN,task2_praac_trials.thisN,task2_praac_trials.thisIndex,task2_praac_trials.ran,alt,task,condition,target_resp.keys,target_resp.rt,rewCond,vts_practice_trials.thisRepN,vts_practice_trials.thisTrialN,vts_practice_trials.thisN,vts_practice_trials.thisIndex,vts_practice_trials.ran,blockNum,trials_norew.thisRepN,trials_norew.thisTrialN,trials_norew.thisN,trials_norew.thisIndex,trials_norew.ran,key_resp_2.keys,key_resp_2.rt,rewExpect,trials_rew.thisRepN,trials_rew.thisTrialN,trials_rew.thisN,trials_rew.thisIndex,trials_rew.ran,Q1,Q2,Q2_text,Q3,Q4,Q5_text,Q5,xRes,yRes
293197,2022-10-06_19h27.00.846,vts_reward_expectancy,2022.2.4,MacIntel,60.0024001,Chrome,1440,900,,,,,,,,,,,,,,,,,,,,,,,,,,,,,,,,,,,,,,,,,,,,,,,,,,,,,,,,,,,,,,,,,,,,,,,,,,,,
293197,2022-10-06_19h27.00.846,vts_reward_expectancy,2022.2.4,MacIntel,60.0024001,Chrome,1440,900,space,20.7304,,,,,,,,,,,,,,,,,,,,,,,,,,,,,,,,,,,,,,,,,,,,,,,,,,,,,,,,,,,,,,,,,,,,,,,,,,
293197,2022-10-06_19h27.00.846,vts_reward_expectancy,2022.2.4,MacIntel,60.0024001,Chrome,1440,900,,,,,,,,,,,,,,,,,,,,,,,,,,,,,,,,,,,,,,,,,,,,,,,,,,,,,,,,,,,,,,,,,,,,,,,,,,,,
293197,2022-10-06_19h27.00.846,vts_reward_expectancy,2022.2.4,MacIntel,60.0024001,Chrome,1440,900,,,a,2.1418,10,10,0,0,0,0,3,1,0,1,0,0,1,0,0,0,circle,triangle,,,,,,,,,,,,,,,,,,,,,,,,,,,,,,,,,,,,,,,,,,,,,,,,,,,,,,
293197,2022-10-06_19h27.00.846,vts_reward_expectancy,2022.2.4,MacIntel,60.0024001,Chrome,1440,900,,,a,1.0499,10,20,0,0,1,1,4,1,0,1,0,0,0,0,1,0,circle,hexagon,,,,,,,,,,,,,,,,,,,,,,,,,,,,,,,,,,,,,,,,,,,,,,,,,,,,,,
293197,2022-10-06_19h27.00.846,vts_reward_expectancy,2022.2.4,MacIntel,60.0024001,Chrome,1440,900,,,a,0.938,1,21,0,0,2,2,8,1,0,0,1,0,0,0,0,1,hexagon,star,,,,,,,,,,,,,,,,,,,,,,,,,,,,,,,,,,,,,,,,,,,,,,,,,,,,,,
293197,2022-10-06_19h27.00.846,vts_reward_expectancy,2022.2.4,MacIntel,60.0024001,Chrome,1440,900,,,l,0.9438,10,31,0,0,3,3,2,1,1,0,0,0,0,0,0,1,triangle,star,,,,,,,,,,,,,,,,,,,,,,,,,,,,,,,,,,,,,,,,,,,,,,,,,,,,,,
293197,2022-10-06_19h27.00.846,vts_reward_expectancy,2022.2.4,MacIntel,60.0024001,Chrome,1440,900,,,a,0.8517,1,32,0,0,4,4,9,1,0,0,0,1,1,0,0,0,star,triangle,,,,,,,,,,,,,,,,,,,,,,,,,,,,,,,,,,,,,,,,,,,,,,,,,,,,,,
293197,2022-10-06_19h27.00.846,vts_reward_expectancy,2022.2.4,MacIntel,60.0024001,Chrome,1440,900,,,l,0.5439,1,33,0,0,5,5,7,1,0,0,1,0,0,1,0,0,hexagon,circle,,,,,,,,,,,,,,,,,,,,,,,,,,,,,,,,,,,,,,,,,,,,,,,,,,,,,,
293197,2022-10-06_19h27.00.846,vts_reward_expectancy,2022.2.4,MacIntel,60.0024001,Chrome,1440,900,,,l,0.4669,1,34,0,0,6,6,5,1,0,1,0,0,0,0,0,1,circle,star,,,,,,,,,,,,,,,,,,,,,,,,,,,,,,,,,,,,,,,,,,,,,,,,,,,,,,
293197,2022-10-06_19h27.00.846,vts_reward_expectancy,2022.2.4,MacIntel,60.0024001,Chrome,1440,900,,,a,0.8492,1,35,0,0,7,7,10,1,0,0,0,1,0,1,0,0,star ,circle,,,,,,,,,,,,,,,,,,,,,,,,,,,,,,,,,,,,,,,,,,,,,,,,,,,,,,
293197,2022-10-06_19h27.00.846,vts_reward_expectancy,2022.2.4,MacIntel,60.0024001,Chrome,1440,900,,,a,1.0168,1,36,0,0,8,8,1,1,1,0,0,0,0,0,1,0,triangle,hexagon,,,,,,,,,,,,,,,,,,,,,,,,,,,,,,,,,,,,,,,,,,,,,,,,,,,,,,
293197,2022-10-06_19h27.00.846,vts_reward_expectancy,2022.2.4,MacIntel,60.0024001,Chrome,1440,900,,,l,0.6323,10,46,0,0,9,9,0,1,1,0,0,0,0,1,0,0,triangle,circle,,,,,,,,,,,,,,,,,,,,,,,,,,,,,,,,,,,,,,,,,,,,,,,,,,,,,,
293197,2022-10-06_19h27.00.846,vts_reward_expectancy,2022.2.4,MacIntel,60.0024001,Chrome,1440,900,,,a,1.0452,10,56,0,0,10,10,11,1,0,0,0,1,0,0,1,0,star,hexagon,,,,,,,,,,,,,,,,,,,,,,,,,,,,,,,,,,,,,,,,,,,,,,,,,,,,,,
293197,2022-10-06_19h27.00.846,vts_reward_expectancy,2022.2.4,MacIntel,60.0024001,Chrome,1440,900,,,a,0.9343,10,66,0,0,11,11,6,1,0,0,1,0,1,0,0,0,hexagon,triangle,,,,,,,,,,,,,,,,,,,,,,,,,,,,,,,,,,,,,,,,,,,,,,,,,,,,,,
293197,2022-10-06_19h27.00.846,vts_reward_expectancy,2022.2.4,MacIntel,60.0024001,Chrome,1440,900,,,a,0.5384,10,76,0,1,0,12,0,1,1,0,0,0,0,1,0,0,triangle,circle,,,,,,,,,,,,,,,,,,,,,,,,,,,,,,,,,,,,,,,,,,,,,,,,,,,,,,
293197,2022-10-06_19h27.00.846,vts_reward_expectancy,2022.2.4,MacIntel,60.0024001,Chrome,1440,900,,,a,0.439,1,77,0,1,1,13,5,1,0,1,0,0,0,0,0,1,circle,star,,,,,,,,,,,,,,,,,,,,,,,,,,,,,,,,,,,,,,,,,,,,,,,,,,,,,,
293197,2022-10-06_19h27.00.846,vts_reward_expectancy,2022.2.4,MacIntel,60.0024001,Chrome,1440,900,,,l,0.6604,10,87,0,1,2,14,9,1,0,0,0,1,1,0,0,0,star,triangle,,,,,,,,,,,,,,,,,,,,,,,,,,,,,,,,,,,,,,,,,,,,,,,,,,,,,,
293197,2022-10-06_19h27.00.846,vts_reward_expectancy,2022.2.4,MacIntel,60.0024001,Chrome,1440,900,,,l,0.8992,1,88,0,1,3,15,10,1,0,0,0,1,0,1,0,0,star ,circle,,,,,,,,,,,,,,,,,,,,,,,,,,,,,,,,,,,,,,,,,,,,,,,,,,,,,,
293197,2022-10-06_19h27.00.846,vts_reward_expectancy,2022.2.4,MacIntel,60.0024001,Chrome,1440,900,,,l,0.4006,10,98,0,1,4,16,4,1,0,1,0,0,0,0,1,0,circle,hexagon,,,,,,,,,,,,,,,,,,,,,,,,,,,,,,,,,,,,,,,,,,,,,,,,,,,,,,
293197,2022-10-06_19h27.00.846,vts_reward_expectancy,2022.2.4,MacIntel,60.0024001,Chrome,1440,900,,,l,0.4848,10,108,0,1,5,17,11,1,0,0,0,1,0,0,1,0,star,hexagon,,,,,,,,,,,,,,,,,,,,,,,,,,,,,,,,,,,,,,,,,,,,,,,,,,,,,,
293197,2022-10-06_19h27.00.846,vts_reward_expectancy,2022.2.4,MacIntel,60.0024001,Chrome,1440,900,,,l,0.3,10,118,0,1,6,18,7,1,0,0,1,0,0,1,0,0,hexagon,circle,,,,,,,,,,,,,,,,,,,,,,,,,,,,,,,,,,,,,,,,,,,,,,,,,,,,,,
293197,2022-10-06_19h27.00.846,vts_reward_expectancy,2022.2.4,MacIntel,60.0024001,Chrome,1440,900,,,l,0.4662,1,119,0,1,7,19,3,1,0,1,0,0,1,0,0,0,circle,triangle,,,,,,,,,,,,,,,,,,,,,,,,,,,,,,,,,,,,,,,,,,,,,,,,,,,,,,
293197,2022-10-06_19h27.00.846,vts_reward_expectancy,2022.2.4,MacIntel,60.0024001,Chrome,1440,900,,,l,0.4824,1,120,0,1,8,20,8,1,0,0,1,0,0,0,0,1,hexagon,star,,,,,,,,,,,,,,,,,,,,,,,,,,,,,,,,,,,,,,,,,,,,,,,,,,,,,,
293197,2022-10-06_19h27.00.846,vts_reward_expectancy,2022.2.4,MacIntel,60.0024001,Chrome,1440,900,,,a,0.3436,10,130,0,1,9,21,6,1,0,0,1,0,1,0,0,0,hexagon,triangle,,,,,,,,,,,,,,,,,,,,,,,,,,,,,,,,,,,,,,,,,,,,,,,,,,,,,,
293197,2022-10-06_19h27.00.846,vts_reward_expectancy,2022.2.4,MacIntel,60.0024001,Chrome,1440,900,,,l,0.2838,1,131,0,1,10,22,2,1,1,0,0,0,0,0,0,1,triangle,star,,,,,,,,,,,,,,,,,,,,,,,,,,,,,,,,,,,,,,,,,,,,,,,,,,,,,,
293197,2022-10-06_19h27.00.846,vts_reward_expectancy,2022.2.4,MacIntel,60.0024001,Chrome,1440,900,,,a,0.3563,1,132,0,1,11,23,1,1,1,0,0,0,0,0,1,0,triangle,hexagon,,,,,,,,,,,,,,,,,,,,,,,,,,,,,,,,,,,,,,,,,,,,,,,,,,,,,,
293197,2022-10-06_19h27.00.846,vts_reward_expectancy,2022.2.4,MacIntel,60.0024001,Chrome,1440,900,,,l,0.3329,1,133,0,2,0,24,8,1,0,0,1,0,0,0,0,1,hexagon,star,,,,,,,,,,,,,,,,,,,,,,,,,,,,,,,,,,,,,,,,,,,,,,,,,,,,,,
293197,2022-10-06_19h27.00.846,vts_reward_expectancy,2022.2.4,MacIntel,60.0024001,Chrome,1440,900,,,a,0.4173,1,134,0,2,1,25,10,1,0,0,0,1,0,1,0,0,star ,circle,,,,,,,,,,,,,,,,,,,,,,,,,,,,,,,,,,,,,,,,,,,,,,,,,,,,,,
293197,2022-10-06_19h27.00.846,vts_reward_expectancy,2022.2.4,MacIntel,60.0024001,Chrome,1440,900,,,l,0.4001,1,135,0,2,2,26,5,1,0,1,0,0,0,0,0,1,circle,star,,,,,,,,,,,,,,,,,,,,,,,,,,,,,,,,,,,,,,,,,,,,,,,,,,,,,,
293197,2022-10-06_19h27.00.846,vts_reward_expectancy,2022.2.4,MacIntel,60.0024001,Chrome,1440,900,,,l,0.3166,10,145,0,2,3,27,7,1,0,0,1,0,0,1,0,0,hexagon,circle,,,,,,,,,,,,,,,,,,,,,,,,,,,,,,,,,,,,,,,,,,,,,,,,,,,,,,
293197,2022-10-06_19h27.00.846,vts_reward_expectancy,2022.2.4,MacIntel,60.0024001,Chrome,1440,900,,,l,0.4424,10,155,0,2,4,28,0,1,1,0,0,0,0,1,0,0,triangle,circle,,,,,,,,,,,,,,,,,,,,,,,,,,,,,,,,,,,,,,,,,,,,,,,,,,,,,,
293197,2022-10-06_19h27.00.846,vts_reward_expectancy,2022.2.4,MacIntel,60.0024001,Chrome,1440,900,,,l,0.5841,10,165,0,2,5,29,2,1,1,0,0,0,0,0,0,1,triangle,star,,,,,,,,,,,,,,,,,,,,,,,,,,,,,,,,,,,,,,,,,,,,,,,,,,,,,,
293197,2022-10-06_19h27.00.846,vts_reward_expectancy,2022.2.4,MacIntel,60.0024001,Chrome,1440,900,,,l,0.5941,10,175,0,2,6,30,4,1,0,1,0,0,0,0,1,0,circle,hexagon,,,,,,,,,,,,,,,,,,,,,,,,,,,,,,,,,,,,,,,,,,,,,,,,,,,,,,
293197,2022-10-06_19h27.00.846,vts_reward_expectancy,2022.2.4,MacIntel,60.0024001,Chrome,1440,900,,,l,0.2989,10,185,0,2,7,31,1,1,1,0,0,0,0,0,1,0,triangle,hexagon,,,,,,,,,,,,,,,,,,,,,,,,,,,,,,,,,,,,,,,,,,,,,,,,,,,,,,
293197,2022-10-06_19h27.00.846,vts_reward_expectancy,2022.2.4,MacIntel,60.0024001,Chrome,1440,900,,,l,0.3175,10,195,0,2,8,32,9,1,0,0,0,1,1,0,0,0,star,triangle,,,,,,,,,,,,,,,,,,,,,,,,,,,,,,,,,,,,,,,,,,,,,,,,,,,,,,
293197,2022-10-06_19h27.00.846,vts_reward_expectancy,2022.2.4,MacIntel,60.0024001,Chrome,1440,900,,,l,0.3178,1,196,0,2,9,33,6,1,0,0,1,0,1,0,0,0,hexagon,triangle,,,,,,,,,,,,,,,,,,,,,,,,,,,,,,,,,,,,,,,,,,,,,,,,,,,,,,
293197,2022-10-06_19h27.00.846,vts_reward_expectancy,2022.2.4,MacIntel,60.0024001,Chrome,1440,900,,,l,0.3215,1,197,0,2,10,34,3,1,0,1,0,0,1,0,0,0,circle,triangle,,,,,,,,,,,,,,,,,,,,,,,,,,,,,,,,,,,,,,,,,,,,,,,,,,,,,,
293197,2022-10-06_19h27.00.846,vts_reward_expectancy,2022.2.4,MacIntel,60.0024001,Chrome,1440,900,,,l,0.3183,1,198,0,2,11,35,11,1,0,0,0,1,0,0,1,0,star,hexagon,,,,,,,,,,,,,,,,,,,,,,,,,,,,,,,,,,,,,,,,,,,,,,,,,,,,,,
293197,2022-10-06_19h27.00.846,vts_reward_expectancy,2022.2.4,MacIntel,60.0024001,Chrome,1440,900,,,l,1.2759,1,199,1,0,0,0,8,1,0,0,1,0,0,0,0,1,hexagon,star,,,,,,,,,,,,,,,,,,,,,,,,,,,,,,,,,,,,,,,,,,,,,,,,,,,,,,
293197,2022-10-06_19h27.00.846,vts_reward_expectancy,2022.2.4,MacIntel,60.0024001,Chrome,1440,900,,,a,0.3954,1,200,1,0,1,1,5,1,0,1,0,0,0,0,0,1,circle,star,,,,,,,,,,,,,,,,,,,,,,,,,,,,,,,,,,,,,,,,,,,,,,,,,,,,,,
293197,2022-10-06_19h27.00.846,vts_reward_expectancy,2022.2.4,MacIntel,60.0024001,Chrome,1440,900,,,a,0.2999,1,201,1,0,2,2,0,1,1,0,0,0,0,1,0,0,triangle,circle,,,,,,,,,,,,,,,,,,,,,,,,,,,,,,,,,,,,,,,,,,,,,,,,,,,,,,
293197,2022-10-06_19h27.00.846,vts_reward_expectancy,2022.2.4,MacIntel,60.0024001,Chrome,1440,900,,,l,0.3334,10,211,1,0,3,3,10,1,0,0,0,1,0,1,0,0,star ,circle,,,,,,,,,,,,,,,,,,,,,,,,,,,,,,,,,,,,,,,,,,,,,,,,,,,,,,
293197,2022-10-06_19h27.00.846,vts_reward_expectancy,2022.2.4,MacIntel,60.0024001,Chrome,1440,900,,,l,0.4528,10,221,1,0,4,4,7,1,0,0,1,0,0,1,0,0,hexagon,circle,,,,,,,,,,,,,,,,,,,,,,,,,,,,,,,,,,,,,,,,,,,,,,,,,,,,,,
293197,2022-10-06_19h27.00.846,vts_reward_expectancy,2022.2.4,MacIntel,60.0024001,Chrome,1440,900,,,a,0.9172,1,222,1,0,5,5,1,1,1,0,0,0,0,0,1,0,triangle,hexagon,,,,,,,,,,,,,,,,,,,,,,,,,,,,,,,,,,,,,,,,,,,,,,,,,,,,,,
293197,2022-10-06_19h27.00.846,vts_reward_expectancy,2022.2.4,MacIntel,60.0024001,Chrome,1440,900,,,l,0.4145,1,223,1,0,6,6,3,1,0,1,0,0,1,0,0,0,circle,triangle,,,,,,,,,,,,,,,,,,,,,,,,,,,,,,,,,,,,,,,,,,,,,,,,,,,,,,
293197,2022-10-06_19h27.00.846,vts_reward_expectancy,2022.2.4,MacIntel,60.0024001,Chrome,1440,900,,,l,0.326,10,233,1,0,7,7,6,1,0,0,1,0,1,0,0,0,hexagon,triangle,,,,,,,,,,,,,,,,,,,,,,,,,,,,,,,,,,,,,,,,,,,,,,,,,,,,,,
293197,2022-10-06_19h27.00.846,vts_reward_expectancy,2022.2.4,MacIntel,60.0024001,Chrome,1440,900,,,l,0.3112,10,243,1,0,8,8,4,1,0,1,0,0,0,0,1,0,circle,hexagon,,,,,,,,,,,,,,,,,,,,,,,,,,,,,,,,,,,,,,,,,,,,,,,,,,,,,,
293197,2022-10-06_19h27.00.846,vts_reward_expectancy,2022.2.4,MacIntel,60.0024001,Chrome,1440,900,,,l,0.4763,1,244,1,0,9,9,2,1,1,0,0,0,0,0,0,1,triangle,star,,,,,,,,,,,,,,,,,,,,,,,,,,,,,,,,,,,,,,,,,,,,,,,,,,,,,,
293197,2022-10-06_19h27.00.846,vts_reward_expectancy,2022.2.4,MacIntel,60.0024001,Chrome,1440,900,,,l,0.5177,10,254,1,0,10,10,11,1,0,0,0,1,0,0,1,0,star,hexagon,,,,,,,,,,,,,,,,,,,,,,,,,,,,,,,,,,,,,,,,,,,,,,,,,,,,,,
293197,2022-10-06_19h27.00.846,vts_reward_expectancy,2022.2.4,MacIntel,60.0024001,Chrome,1440,900,,,l,0.2969,1,255,1,0,11,11,9,1,0,0,0,1,1,0,0,0,star,triangle,,,,,,,,,,,,,,,,,,,,,,,,,,,,,,,,,,,,,,,,,,,,,,,,,,,,,,
293197,2022-10-06_19h27.00.846,vts_reward_expectancy,2022.2.4,MacIntel,60.0024001,Chrome,1440,900,,,l,0.3345,10,265,1,1,0,12,11,1,0,0,0,1,0,0,1,0,star,hexagon,,,,,,,,,,,,,,,,,,,,,,,,,,,,,,,,,,,,,,,,,,,,,,,,,,,,,,
293197,2022-10-06_19h27.00.846,vts_reward_expectancy,2022.2.4,MacIntel,60.0024001,Chrome,1440,900,,,l,0.3669,1,266,1,1,1,13,9,1,0,0,0,1,1,0,0,0,star,triangle,,,,,,,,,,,,,,,,,,,,,,,,,,,,,,,,,,,,,,,,,,,,,,,,,,,,,,
293197,2022-10-06_19h27.00.846,vts_reward_expectancy,2022.2.4,MacIntel,60.0024001,Chrome,1440,900,,,l,0.0292,1,267,1,1,2,14,0,1,1,0,0,0,0,1,0,0,triangle,circle,,,,,,,,,,,,,,,,,,,,,,,,,,,,,,,,,,,,,,,,,,,,,,,,,,,,,,
293197,2022-10-06_19h27.00.846,vts_reward_expectancy,2022.2.4,MacIntel,60.0024001,Chrome,1440,900,,,a,0.299,1,268,1,1,3,15,1,1,1,0,0,0,0,0,1,0,triangle,hexagon,,,,,,,,,,,,,,,,,,,,,,,,,,,,,,,,,,,,,,,,,,,,,,,,,,,,,,
293197,2022-10-06_19h27.00.846,vts_reward_expectancy,2022.2.4,MacIntel,60.0024001,Chrome,1440,900,,,l,0.4857,1,269,1,1,4,16,5,1,0,1,0,0,0,0,0,1,circle,star,,,,,,,,,,,,,,,,,,,,,,,,,,,,,,,,,,,,,,,,,,,,,,,,,,,,,,
293197,2022-10-06_19h27.00.846,vts_reward_expectancy,2022.2.4,MacIntel,60.0024001,Chrome,1440,900,,,l,0.3662,10,279,1,1,5,17,6,1,0,0,1,0,1,0,0,0,hexagon,triangle,,,,,,,,,,,,,,,,,,,,,,,,,,,,,,,,,,,,,,,,,,,,,,,,,,,,,,
293197,2022-10-06_19h27.00.846,vts_reward_expectancy,2022.2.4,MacIntel,60.0024001,Chrome,1440,900,,,l,0.3502,1,280,1,1,6,18,10,1,0,0,0,1,0,1,0,0,star ,circle,,,,,,,,,,,,,,,,,,,,,,,,,,,,,,,,,,,,,,,,,,,,,,,,,,,,,,
293197,2022-10-06_19h27.00.846,vts_reward_expectancy,2022.2.4,MacIntel,60.0024001,Chrome,1440,900,,,l,0.7934,10,290,1,1,7,19,7,1,0,0,1,0,0,1,0,0,hexagon,circle,,,,,,,,,,,,,,,,,,,,,,,,,,,,,,,,,,,,,,,,,,,,,,,,,,,,,,
293197,2022-10-06_19h27.00.846,vts_reward_expectancy,2022.2.4,MacIntel,60.0024001,Chrome,1440,900,,,l,0.5975,1,291,1,1,8,20,4,1,0,1,0,0,0,0,1,0,circle,hexagon,,,,,,,,,,,,,,,,,,,,,,,,,,,,,,,,,,,,,,,,,,,,,,,,,,,,,,
293197,2022-10-06_19h27.00.846,vts_reward_expectancy,2022.2.4,MacIntel,60.0024001,Chrome,1440,900,,,a,0.574,1,292,1,1,9,21,2,1,1,0,0,0,0,0,0,1,triangle,star,,,,,,,,,,,,,,,,,,,,,,,,,,,,,,,,,,,,,,,,,,,,,,,,,,,,,,
293197,2022-10-06_19h27.00.846,vts_reward_expectancy,2022.2.4,MacIntel,60.0024001,Chrome,1440,900,,,l,0.7002,10,302,1,1,10,22,3,1,0,1,0,0,1,0,0,0,circle,triangle,,,,,,,,,,,,,,,,,,,,,,,,,,,,,,,,,,,,,,,,,,,,,,,,,,,,,,
293197,2022-10-06_19h27.00.846,vts_reward_expectancy,2022.2.4,MacIntel,60.0024001,Chrome,1440,900,,,l,0.3012,10,312,1,1,11,23,8,1,0,0,1,0,0,0,0,1,hexagon,star,,,,,,,,,,,,,,,,,,,,,,,,,,,,,,,,,,,,,,,,,,,,,,,,,,,,,,
293197,2022-10-06_19h27.00.846,vts_reward_expectancy,2022.2.4,MacIntel,60.0024001,Chrome,1440,900,,,a,0.4968,10,322,1,2,0,24,0,1,1,0,0,0,0,1,0,0,triangle,circle,,,,,,,,,,,,,,,,,,,,,,,,,,,,,,,,,,,,,,,,,,,,,,,,,,,,,,
293197,2022-10-06_19h27.00.846,vts_reward_expectancy,2022.2.4,MacIntel,60.0024001,Chrome,1440,900,,,l,0.6602,10,332,1,2,1,25,4,1,0,1,0,0,0,0,1,0,circle,hexagon,,,,,,,,,,,,,,,,,,,,,,,,,,,,,,,,,,,,,,,,,,,,,,,,,,,,,,
293197,2022-10-06_19h27.00.846,vts_reward_expectancy,2022.2.4,MacIntel,60.0024001,Chrome,1440,900,,,l,0.0268,1,333,1,2,2,26,10,1,0,0,0,1,0,1,0,0,star ,circle,,,,,,,,,,,,,,,,,,,,,,,,,,,,,,,,,,,,,,,,,,,,,,,,,,,,,,
293197,2022-10-06_19h27.00.846,vts_reward_expectancy,2022.2.4,MacIntel,60.0024001,Chrome,1440,900,,,a,0.6,10,343,1,2,3,27,11,1,0,0,0,1,0,0,1,0,star,hexagon,,,,,,,,,,,,,,,,,,,,,,,,,,,,,,,,,,,,,,,,,,,,,,,,,,,,,,
293197,2022-10-06_19h27.00.846,vts_reward_expectancy,2022.2.4,MacIntel,60.0024001,Chrome,1440,900,,,a,0.3677,10,353,1,2,4,28,8,1,0,0,1,0,0,0,0,1,hexagon,star,,,,,,,,,,,,,,,,,,,,,,,,,,,,,,,,,,,,,,,,,,,,,,,,,,,,,,
293197,2022-10-06_19h27.00.846,vts_reward_expectancy,2022.2.4,MacIntel,60.0024001,Chrome,1440,900,,,l,0.4749,10,363,1,2,5,29,5,1,0,1,0,0,0,0,0,1,circle,star,,,,,,,,,,,,,,,,,,,,,,,,,,,,,,,,,,,,,,,,,,,,,,,,,,,,,,
293197,2022-10-06_19h27.00.846,vts_reward_expectancy,2022.2.4,MacIntel,60.0024001,Chrome,1440,900,,,l,0.4512,1,364,1,2,6,30,3,1,0,1,0,0,1,0,0,0,circle,triangle,,,,,,,,,,,,,,,,,,,,,,,,,,,,,,,,,,,,,,,,,,,,,,,,,,,,,,
293197,2022-10-06_19h27.00.846,vts_reward_expectancy,2022.2.4,MacIntel,60.0024001,Chrome,1440,900,,,a,0.399,10,374,1,2,7,31,6,1,0,0,1,0,1,0,0,0,hexagon,triangle,,,,,,,,,,,,,,,,,,,,,,,,,,,,,,,,,,,,,,,,,,,,,,,,,,,,,,
293197,2022-10-06_19h27.00.846,vts_reward_expectancy,2022.2.4,MacIntel,60.0024001,Chrome,1440,900,,,a,0.3536,10,384,1,2,8,32,7,1,0,0,1,0,0,1,0,0,hexagon,circle,,,,,,,,,,,,,,,,,,,,,,,,,,,,,,,,,,,,,,,,,,,,,,,,,,,,,,
293197,2022-10-06_19h27.00.846,vts_reward_expectancy,2022.2.4,MacIntel,60.0024001,Chrome,1440,900,,,a,0.4931,10,394,1,2,9,33,1,1,1,0,0,0,0,0,1,0,triangle,hexagon,,,,,,,,,,,,,,,,,,,,,,,,,,,,,,,,,,,,,,,,,,,,,,,,,,,,,,
293197,2022-10-06_19h27.00.846,vts_reward_expectancy,2022.2.4,MacIntel,60.0024001,Chrome,1440,900,,,a,0.3268,1,395,1,2,10,34,9,1,0,0,0,1,1,0,0,0,star,triangle,,,,,,,,,,,,,,,,,,,,,,,,,,,,,,,,,,,,,,,,,,,,,,,,,,,,,,
293197,2022-10-06_19h27.00.846,vts_reward_expectancy,2022.2.4,MacIntel,60.0024001,Chrome,1440,900,,,l,0.2966,1,396,1,2,11,35,2,1,1,0,0,0,0,0,0,1,triangle,star,,,,,,,,,,,,,,,,,,,,,,,,,,,,,,,,,,,,,,,,,,,,,,,,,,,,,,
293197,2022-10-06_19h27.00.846,vts_reward_expectancy,2022.2.4,MacIntel,60.0024001,Chrome,1440,900,,,l,0.8494,10,406,2,0,0,0,0,1,1,0,0,0,0,1,0,0,triangle,circle,,,,,,,,,,,,,,,,,,,,,,,,,,,,,,,,,,,,,,,,,,,,,,,,,,,,,,
293197,2022-10-06_19h27.00.846,vts_reward_expectancy,2022.2.4,MacIntel,60.0024001,Chrome,1440,900,,,l,0.6802,1,407,2,0,1,1,2,1,1,0,0,0,0,0,0,1,triangle,star,,,,,,,,,,,,,,,,,,,,,,,,,,,,,,,,,,,,,,,,,,,,,,,,,,,,,,
293197,2022-10-06_19h27.00.846,vts_reward_expectancy,2022.2.4,MacIntel,60.0024001,Chrome,1440,900,,,a,0.5509,10,417,2,0,2,2,7,1,0,0,1,0,0,1,0,0,hexagon,circle,,,,,,,,,,,,,,,,,,,,,,,,,,,,,,,,,,,,,,,,,,,,,,,,,,,,,,
293197,2022-10-06_19h27.00.846,vts_reward_expectancy,2022.2.4,MacIntel,60.0024001,Chrome,1440,900,,,l,0.8603,10,427,2,0,3,3,3,1,0,1,0,0,1,0,0,0,circle,triangle,,,,,,,,,,,,,,,,,,,,,,,,,,,,,,,,,,,,,,,,,,,,,,,,,,,,,,
293197,2022-10-06_19h27.00.846,vts_reward_expectancy,2022.2.4,MacIntel,60.0024001,Chrome,1440,900,,,a,0.5677,10,437,2,0,4,4,5,1,0,1,0,0,0,0,0,1,circle,star,,,,,,,,,,,,,,,,,,,,,,,,,,,,,,,,,,,,,,,,,,,,,,,,,,,,,,
293197,2022-10-06_19h27.00.846,vts_reward_expectancy,2022.2.4,MacIntel,60.0024001,Chrome,1440,900,,,l,0.4929,1,438,2,0,5,5,9,1,0,0,0,1,1,0,0,0,star,triangle,,,,,,,,,,,,,,,,,,,,,,,,,,,,,,,,,,,,,,,,,,,,,,,,,,,,,,
293197,2022-10-06_19h27.00.846,vts_reward_expectancy,2022.2.4,MacIntel,60.0024001,Chrome,1440,900,,,a,0.4964,1,439,2,0,6,6,6,1,0,0,1,0,1,0,0,0,hexagon,triangle,,,,,,,,,,,,,,,,,,,,,,,,,,,,,,,,,,,,,,,,,,,,,,,,,,,,,,
293197,2022-10-06_19h27.00.846,vts_reward_expectancy,2022.2.4,MacIntel,60.0024001,Chrome,1440,900,,,l,0.451,10,449,2,0,7,7,10,1,0,0,0,1,0,1,0,0,star ,circle,,,,,,,,,,,,,,,,,,,,,,,,,,,,,,,,,,,,,,,,,,,,,,,,,,,,,,
293197,2022-10-06_19h27.00.846,vts_reward_expectancy,2022.2.4,MacIntel,60.0024001,Chrome,1440,900,,,l,0.3634,10,459,2,0,8,8,1,1,1,0,0,0,0,0,1,0,triangle,hexagon,,,,,,,,,,,,,,,,,,,,,,,,,,,,,,,,,,,,,,,,,,,,,,,,,,,,,,
293197,2022-10-06_19h27.00.846,vts_reward_expectancy,2022.2.4,MacIntel,60.0024001,Chrome,1440,900,,,l,0.3541,10,469,2,0,9,9,4,1,0,1,0,0,0,0,1,0,circle,hexagon,,,,,,,,,,,,,,,,,,,,,,,,,,,,,,,,,,,,,,,,,,,,,,,,,,,,,,
293197,2022-10-06_19h27.00.846,vts_reward_expectancy,2022.2.4,MacIntel,60.0024001,Chrome,1440,900,,,l,5.0267,10,479,2,0,10,10,11,1,0,0,0,1,0,0,1,0,star,hexagon,,,,,,,,,,,,,,,,,,,,,,,,,,,,,,,,,,,,,,,,,,,,,,,,,,,,,,
293197,2022-10-06_19h27.00.846,vts_reward_expectancy,2022.2.4,MacIntel,60.0024001,Chrome,1440,900,,,a,1.1015,10,489,2,0,11,11,8,1,0,0,1,0,0,0,0,1,hexagon,star,,,,,,,,,,,,,,,,,,,,,,,,,,,,,,,,,,,,,,,,,,,,,,,,,,,,,,
293197,2022-10-06_19h27.00.846,vts_reward_expectancy,2022.2.4,MacIntel,60.0024001,Chrome,1440,900,,,l,0.4682,10,499,2,1,0,12,8,1,0,0,1,0,0,0,0,1,hexagon,star,,,,,,,,,,,,,,,,,,,,,,,,,,,,,,,,,,,,,,,,,,,,,,,,,,,,,,
293197,2022-10-06_19h27.00.846,vts_reward_expectancy,2022.2.4,MacIntel,60.0024001,Chrome,1440,900,,,l,0.7206,10,509,2,1,1,13,4,1,0,1,0,0,0,0,1,0,circle,hexagon,,,,,,,,,,,,,,,,,,,,,,,,,,,,,,,,,,,,,,,,,,,,,,,,,,,,,,
293197,2022-10-06_19h27.00.846,vts_reward_expectancy,2022.2.4,MacIntel,60.0024001,Chrome,1440,900,,,l,0.6745,10,519,2,1,2,14,0,1,1,0,0,0,0,1,0,0,triangle,circle,,,,,,,,,,,,,,,,,,,,,,,,,,,,,,,,,,,,,,,,,,,,,,,,,,,,,,
293197,2022-10-06_19h27.00.846,vts_reward_expectancy,2022.2.4,MacIntel,60.0024001,Chrome,1440,900,,,l,0.6665,10,529,2,1,3,15,9,1,0,0,0,1,1,0,0,0,star,triangle,,,,,,,,,,,,,,,,,,,,,,,,,,,,,,,,,,,,,,,,,,,,,,,,,,,,,,
293197,2022-10-06_19h27.00.846,vts_reward_expectancy,2022.2.4,MacIntel,60.0024001,Chrome,1440,900,,,l,0.4229,10,539,2,1,4,16,11,1,0,0,0,1,0,0,1,0,star,hexagon,,,,,,,,,,,,,,,,,,,,,,,,,,,,,,,,,,,,,,,,,,,,,,,,,,,,,,
293197,2022-10-06_19h27.00.846,vts_reward_expectancy,2022.2.4,MacIntel,60.0024001,Chrome,1440,900,,,l,0.3843,1,540,2,1,5,17,1,1,1,0,0,0,0,0,1,0,triangle,hexagon,,,,,,,,,,,,,,,,,,,,,,,,,,,,,,,,,,,,,,,,,,,,,,,,,,,,,,
293197,2022-10-06_19h27.00.846,vts_reward_expectancy,2022.2.4,MacIntel,60.0024001,Chrome,1440,900,,,l,0.5127,10,550,2,1,6,18,6,1,0,0,1,0,1,0,0,0,hexagon,triangle,,,,,,,,,,,,,,,,,,,,,,,,,,,,,,,,,,,,,,,,,,,,,,,,,,,,,,
293197,2022-10-06_19h27.00.846,vts_reward_expectancy,2022.2.4,MacIntel,60.0024001,Chrome,1440,900,,,l,0.5333,1,551,2,1,7,19,3,1,0,1,0,0,1,0,0,0,circle,triangle,,,,,,,,,,,,,,,,,,,,,,,,,,,,,,,,,,,,,,,,,,,,,,,,,,,,,,
293197,2022-10-06_19h27.00.846,vts_reward_expectancy,2022.2.4,MacIntel,60.0024001,Chrome,1440,900,,,l,0.4661,1,552,2,1,8,20,10,1,0,0,0,1,0,1,0,0,star ,circle,,,,,,,,,,,,,,,,,,,,,,,,,,,,,,,,,,,,,,,,,,,,,,,,,,,,,,
293197,2022-10-06_19h27.00.846,vts_reward_expectancy,2022.2.4,MacIntel,60.0024001,Chrome,1440,900,,,a,0.4657,10,562,2,1,9,21,7,1,0,0,1,0,0,1,0,0,hexagon,circle,,,,,,,,,,,,,,,,,,,,,,,,,,,,,,,,,,,,,,,,,,,,,,,,,,,,,,
293197,2022-10-06_19h27.00.846,vts_reward_expectancy,2022.2.4,MacIntel,60.0024001,Chrome,1440,900,,,l,0.6513,1,563,2,1,10,22,5,1,0,1,0,0,0,0,0,1,circle,star,,,,,,,,,,,,,,,,,,,,,,,,,,,,,,,,,,,,,,,,,,,,,,,,,,,,,,
293197,2022-10-06_19h27.00.846,vts_reward_expectancy,2022.2.4,MacIntel,60.0024001,Chrome,1440,900,,,l,0.4805,1,564,2,1,11,23,2,1,1,0,0,0,0,0,0,1,triangle,star,,,,,,,,,,,,,,,,,,,,,,,,,,,,,,,,,,,,,,,,,,,,,,,,,,,,,,
293197,2022-10-06_19h27.00.846,vts_reward_expectancy,2022.2.4,MacIntel,60.0024001,Chrome,1440,900,,,l,0.6825,10,574,2,2,0,24,10,1,0,0,0,1,0,1,0,0,star ,circle,,,,,,,,,,,,,,,,,,,,,,,,,,,,,,,,,,,,,,,,,,,,,,,,,,,,,,
293197,2022-10-06_19h27.00.846,vts_reward_expectancy,2022.2.4,MacIntel,60.0024001,Chrome,1440,900,,,l,0.3279,10,584,2,2,1,25,9,1,0,0,0,1,1,0,0,0,star,triangle,,,,,,,,,,,,,,,,,,,,,,,,,,,,,,,,,,,,,,,,,,,,,,,,,,,,,,
293197,2022-10-06_19h27.00.846,vts_reward_expectancy,2022.2.4,MacIntel,60.0024001,Chrome,1440,900,,,l,0.4572,10,594,2,2,2,26,3,1,0,1,0,0,1,0,0,0,circle,triangle,,,,,,,,,,,,,,,,,,,,,,,,,,,,,,,,,,,,,,,,,,,,,,,,,,,,,,
293197,2022-10-06_19h27.00.846,vts_reward_expectancy,2022.2.4,MacIntel,60.0024001,Chrome,1440,900,,,l,0.4468,1,595,2,2,3,27,7,1,0,0,1,0,0,1,0,0,hexagon,circle,,,,,,,,,,,,,,,,,,,,,,,,,,,,,,,,,,,,,,,,,,,,,,,,,,,,,,
293197,2022-10-06_19h27.00.846,vts_reward_expectancy,2022.2.4,MacIntel,60.0024001,Chrome,1440,900,,,l,0.3767,10,605,2,2,4,28,4,1,0,1,0,0,0,0,1,0,circle,hexagon,,,,,,,,,,,,,,,,,,,,,,,,,,,,,,,,,,,,,,,,,,,,,,,,,,,,,,
293197,2022-10-06_19h27.00.846,vts_reward_expectancy,2022.2.4,MacIntel,60.0024001,Chrome,1440,900,,,l,0.3644,1,606,2,2,5,29,5,1,0,1,0,0,0,0,0,1,circle,star,,,,,,,,,,,,,,,,,,,,,,,,,,,,,,,,,,,,,,,,,,,,,,,,,,,,,,
293197,2022-10-06_19h27.00.846,vts_reward_expectancy,2022.2.4,MacIntel,60.0024001,Chrome,1440,900,,,l,0.3647,10,616,2,2,6,30,1,1,1,0,0,0,0,0,1,0,triangle,hexagon,,,,,,,,,,,,,,,,,,,,,,,,,,,,,,,,,,,,,,,,,,,,,,,,,,,,,,
293197,2022-10-06_19h27.00.846,vts_reward_expectancy,2022.2.4,MacIntel,60.0024001,Chrome,1440,900,,,l,0.4659,1,617,2,2,7,31,8,1,0,0,1,0,0,0,0,1,hexagon,star,,,,,,,,,,,,,,,,,,,,,,,,,,,,,,,,,,,,,,,,,,,,,,,,,,,,,,
293197,2022-10-06_19h27.00.846,vts_reward_expectancy,2022.2.4,MacIntel,60.0024001,Chrome,1440,900,,,l,0.4163,1,618,2,2,8,32,0,1,1,0,0,0,0,1,0,0,triangle,circle,,,,,,,,,,,,,,,,,,,,,,,,,,,,,,,,,,,,,,,,,,,,,,,,,,,,,,
293197,2022-10-06_19h27.00.846,vts_reward_expectancy,2022.2.4,MacIntel,60.0024001,Chrome,1440,900,,,l,0.3827,1,619,2,2,9,33,11,1,0,0,0,1,0,0,1,0,star,hexagon,,,,,,,,,,,,,,,,,,,,,,,,,,,,,,,,,,,,,,,,,,,,,,,,,,,,,,
293197,2022-10-06_19h27.00.846,vts_reward_expectancy,2022.2.4,MacIntel,60.0024001,Chrome,1440,900,,,a,0.3495,1,620,2,2,10,34,6,1,0,0,1,0,1,0,0,0,hexagon,triangle,,,,,,,,,,,,,,,,,,,,,,,,,,,,,,,,,,,,,,,,,,,,,,,,,,,,,,
293197,2022-10-06_19h27.00.846,vts_reward_expectancy,2022.2.4,MacIntel,60.0024001,Chrome,1440,900,,,l,0.7336,1,621,2,2,11,35,2,1,1,0,0,0,0,0,0,1,triangle,star,,,,,,,,,,,,,,,,,,,,,,,,,,,,,,,,,,,,,,,,,,,,,,,,,,,,,,
293197,2022-10-06_19h27.00.846,vts_reward_expectancy,2022.2.4,MacIntel,60.0024001,Chrome,1440,900,,,,,,,,,,,,,,,,,,,,,,,D,174,triangle,1,0,d,2.2918,0,0,0,0,0,1,,,,,,,,,,,,,,,,,,,,,,,,,,,,,,,,,,,,,,,,,
293197,2022-10-06_19h27.00.846,vts_reward_expectancy,2022.2.4,MacIntel,60.0024001,Chrome,1440,900,,,,,,,,,,,,,,,,,,,,,,,S,146,hexagon,0,0,d,0.8063,0,1,0,1,0,1,,,,,,,,,,,,,,,,,,,,,,,,,,,,,,,,,,,,,,,,,
293197,2022-10-06_19h27.00.846,vts_reward_expectancy,2022.2.4,MacIntel,60.0024001,Chrome,1440,900,,,,,,,,,,,,,,,,,,,,,,,U,132,circle,0,1,d,0.9312,0,2,0,2,0,1,,,,,,,,,,,,,,,,,,,,,,,,,,,,,,,,,,,,,,,,,
293197,2022-10-06_19h27.00.846,vts_reward_expectancy,2022.2.4,MacIntel,60.0024001,Chrome,1440,900,,,,,,,,,,,,,,,,,,,,,,,H,125,star,0,1,f,0.6235,0,3,0,3,0,1,,,,,,,,,,,,,,,,,,,,,,,,,,,,,,,,,,,,,,,,,
293197,2022-10-06_19h27.00.846,vts_reward_expectancy,2022.2.4,MacIntel,60.0024001,Chrome,1440,900,,,,,,,,,,,,,,,,,,,,,,,B,160,triangle,1,1,d,0.641,0,4,0,4,0,1,,,,,,,,,,,,,,,,,,,,,,,,,,,,,,,,,,,,,,,,,
293197,2022-10-06_19h27.00.846,vts_reward_expectancy,2022.2.4,MacIntel,60.0024001,Chrome,1440,900,,,,,,,,,,,,,,,,,,,,,,,Y,181,hexagon,1,0,f,1.2412,0,5,0,5,0,1,,,,,,,,,,,,,,,,,,,,,,,,,,,,,,,,,,,,,,,,,
293197,2022-10-06_19h27.00.846,vts_reward_expectancy,2022.2.4,MacIntel,60.0024001,Chrome,1440,900,,,,,,,,,,,,,,,,,,,,,,,F,167,circle,1,0,d,0.8693,0,6,0,6,0,1,,,,,,,,,,,,,,,,,,,,,,,,,,,,,,,,,,,,,,,,,
293197,2022-10-06_19h27.00.846,vts_reward_expectancy,2022.2.4,MacIntel,60.0024001,Chrome,1440,900,,,,,,,,,,,,,,,,,,,,,,,W,139,star,1,0,f,1.0014,0,7,0,7,0,1,,,,,,,,,,,,,,,,,,,,,,,,,,,,,,,,,,,,,,,,,
293197,2022-10-06_19h27.00.846,vts_reward_expectancy,2022.2.4,MacIntel,60.0024001,Chrome,1440,900,,,,,,,,,,,,,,,,,,,,,,,D,174,hexagon,1,0,d,1.0358,0,8,0,8,0,1,,,,,,,,,,,,,,,,,,,,,,,,,,,,,,,,,,,,,,,,,
293197,2022-10-06_19h27.00.846,vts_reward_expectancy,2022.2.4,MacIntel,60.0024001,Chrome,1440,900,,,,,,,,,,,,,,,,,,,,,,,S,146,circle,1,0,f,0.8977,0,9,0,9,0,1,,,,,,,,,,,,,,,,,,,,,,,,,,,,,,,,,,,,,,,,,
293197,2022-10-06_19h27.00.846,vts_reward_expectancy,2022.2.4,MacIntel,60.0024001,Chrome,1440,900,,,,,,,,,,,,,,,,,,,,,,,Y,174,triangle,1,0,f,0.6223,1,0,0,0,0,1,,,,,,,,,,,,,,,,,,,,,,,,,,,,,,,,,,,,,,,,,
293197,2022-10-06_19h27.00.846,vts_reward_expectancy,2022.2.4,MacIntel,60.0024001,Chrome,1440,900,,,,,,,,,,,,,,,,,,,,,,,S,139,hexagon,1,0,f,0.9292,1,1,0,1,0,1,,,,,,,,,,,,,,,,,,,,,,,,,,,,,,,,,,,,,,,,,
293197,2022-10-06_19h27.00.846,vts_reward_expectancy,2022.2.4,MacIntel,60.0024001,Chrome,1440,900,,,,,,,,,,,,,,,,,,,,,,,F,125,star,1,0,d,0.7261,1,2,0,2,0,1,,,,,,,,,,,,,,,,,,,,,,,,,,,,,,,,,,,,,,,,,
293197,2022-10-06_19h27.00.846,vts_reward_expectancy,2022.2.4,MacIntel,60.0024001,Chrome,1440,900,,,,,,,,,,,,,,,,,,,,,,,D,132,circle,1,0,d,0.9056,1,3,0,3,0,1,,,,,,,,,,,,,,,,,,,,,,,,,,,,,,,,,,,,,,,,,
293197,2022-10-06_19h27.00.846,vts_reward_expectancy,2022.2.4,MacIntel,60.0024001,Chrome,1440,900,,,,,,,,,,,,,,,,,,,,,,,W,181,triangle,1,0,f,0.6524,1,4,0,4,0,1,,,,,,,,,,,,,,,,,,,,,,,,,,,,,,,,,,,,,,,,,
293197,2022-10-06_19h27.00.846,vts_reward_expectancy,2022.2.4,MacIntel,60.0024001,Chrome,1440,900,,,,,,,,,,,,,,,,,,,,,,,H,160,hexagon,1,0,d,1.1144,1,5,0,5,0,1,,,,,,,,,,,,,,,,,,,,,,,,,,,,,,,,,,,,,,,,,
293197,2022-10-06_19h27.00.846,vts_reward_expectancy,2022.2.4,MacIntel,60.0024001,Chrome,1440,900,,,,,,,,,,,,,,,,,,,,,,,U,146,star,1,0,f,0.6728,1,6,0,6,0,1,,,,,,,,,,,,,,,,,,,,,,,,,,,,,,,,,,,,,,,,,
293197,2022-10-06_19h27.00.846,vts_reward_expectancy,2022.2.4,MacIntel,60.0024001,Chrome,1440,900,,,,,,,,,,,,,,,,,,,,,,,B,167,circle,1,0,d,0.655,1,7,0,7,0,1,,,,,,,,,,,,,,,,,,,,,,,,,,,,,,,,,,,,,,,,,
293197,2022-10-06_19h27.00.846,vts_reward_expectancy,2022.2.4,MacIntel,60.0024001,Chrome,1440,900,,,,,,,,,,,,,,,,,,,,,,,Y,174,hexagon,1,0,f,0.657,1,8,0,8,0,1,,,,,,,,,,,,,,,,,,,,,,,,,,,,,,,,,,,,,,,,,
293197,2022-10-06_19h27.00.846,vts_reward_expectancy,2022.2.4,MacIntel,60.0024001,Chrome,1440,900,,,,,,,,,,,,,,,,,,,,,,,S,139,star,1,0,f,0.7967,1,9,0,9,0,1,,,,,,,,,,,,,,,,,,,,,,,,,,,,,,,,,,,,,,,,,
293197,2022-10-06_19h27.00.846,vts_reward_expectancy,2022.2.4,MacIntel,60.0024001,Chrome,1440,900,,,,,,,,,,,,,,,,,,,,,,,U,139,triangle,1,0,,,2,,,,,,j,0.8567,0,0,0,0,1,,,,,,,,,,,,,,,,,,,,,,,,,,,,,,,,,,
293197,2022-10-06_19h27.00.846,vts_reward_expectancy,2022.2.4,MacIntel,60.0024001,Chrome,1440,900,,,,,,,,,,,,,,,,,,,,,,,S,146,star,1,0,,,2,,,,,,j,1.0588,1,0,1,0,1,,,,,,,,,,,,,,,,,,,,,,,,,,,,,,,,,,
293197,2022-10-06_19h27.00.846,vts_reward_expectancy,2022.2.4,MacIntel,60.0024001,Chrome,1440,900,,,,,,,,,,,,,,,,,,,,,,,F,132,hexagon,1,0,,,2,,,,,,j,0.6368,2,0,2,0,1,,,,,,,,,,,,,,,,,,,,,,,,,,,,,,,,,,
293197,2022-10-06_19h27.00.846,vts_reward_expectancy,2022.2.4,MacIntel,60.0024001,Chrome,1440,900,,,,,,,,,,,,,,,,,,,,,,,W,174,circle,1,0,,,2,,,,,,k,0.6472,3,0,3,0,1,,,,,,,,,,,,,,,,,,,,,,,,,,,,,,,,,,
293197,2022-10-06_19h27.00.846,vts_reward_expectancy,2022.2.4,MacIntel,60.0024001,Chrome,1440,900,,,,,,,,,,,,,,,,,,,,,,,D,181,triangle,1,0,,,2,,,,,,k,0.6251,4,0,4,0,1,,,,,,,,,,,,,,,,,,,,,,,,,,,,,,,,,,
293197,2022-10-06_19h27.00.846,vts_reward_expectancy,2022.2.4,MacIntel,60.0024001,Chrome,1440,900,,,,,,,,,,,,,,,,,,,,,,,Y,160,star,1,0,,,2,,,,,,k,0.831,5,0,5,0,1,,,,,,,,,,,,,,,,,,,,,,,,,,,,,,,,,,
293197,2022-10-06_19h27.00.846,vts_reward_expectancy,2022.2.4,MacIntel,60.0024001,Chrome,1440,900,,,,,,,,,,,,,,,,,,,,,,,H,167,hexagon,1,0,,,2,,,,,,k,0.7627,6,0,6,0,1,,,,,,,,,,,,,,,,,,,,,,,,,,,,,,,,,,
293197,2022-10-06_19h27.00.846,vts_reward_expectancy,2022.2.4,MacIntel,60.0024001,Chrome,1440,900,,,,,,,,,,,,,,,,,,,,,,,B,125,circle,1,0,,,2,,,,,,j,0.6982,7,0,7,0,1,,,,,,,,,,,,,,,,,,,,,,,,,,,,,,,,,,
293197,2022-10-06_19h27.00.846,vts_reward_expectancy,2022.2.4,MacIntel,60.0024001,Chrome,1440,900,,,,,,,,,,,,,,,,,,,,,,,U,139,hexagon,1,0,,,2,,,,,,j,0.8268,8,0,8,0,1,,,,,,,,,,,,,,,,,,,,,,,,,,,,,,,,,,
293197,2022-10-06_19h27.00.846,vts_reward_expectancy,2022.2.4,MacIntel,60.0024001,Chrome,1440,900,,,,,,,,,,,,,,,,,,,,,,,S,146,star,1,0,,,2,,,,,,j,0.7141,9,0,9,0,1,,,,,,,,,,,,,,,,,,,,,,,,,,,,,,,,,,
293197,2022-10-06_19h27.00.846,vts_reward_expectancy,2022.2.4,MacIntel,60.0024001,Chrome,1440,900,,,,,0,621,,,,,,,,,,,,,,,,,F,181,triangle,0,0,,,3,,,,,,,,,,,,,-1,letter,NA,f,1.5978,vtsPrac,0,0,0,0,1,,,,,,,,,,,,,,,,,,,,,,,
293197,2022-10-06_19h27.00.846,vts_reward_expectancy,2022.2.4,MacIntel,60.0024001,Chrome,1440,900,,,,,0,621,,,,,,,,,,,,,,,,,H,167,star,1,1,,,3,,,,,,,,,,,,,switch,number,numSwt,k,2.1409,vtsPrac,1,0,1,0,1,,,,,,,,,,,,,,,,,,,,,,,
293197,2022-10-06_19h27.00.846,vts_reward_expectancy,2022.2.4,MacIntel,60.0024001,Chrome,1440,900,,,,,0,621,,,,,,,,,,,,,,,,,D,132,triangle,1,0,,,3,,,,,,,,,,,,,switch,letter,lettSwt,d,1.0047,vtsPrac,2,0,2,0,1,,,,,,,,,,,,,,,,,,,,,,,
293197,2022-10-06_19h27.00.846,vts_reward_expectancy,2022.2.4,MacIntel,60.0024001,Chrome,1440,900,,,,,0,621,,,,,,,,,,,,,,,,,B,146,star,1,0,,,3,,,,,,,,,,,,,repeat,letter,lettRpt,d,0.8906,vtsPrac,3,0,3,0,1,,,,,,,,,,,,,,,,,,,,,,,
293197,2022-10-06_19h27.00.846,vts_reward_expectancy,2022.2.4,MacIntel,60.0024001,Chrome,1440,900,,,,,0,621,,,,,,,,,,,,,,,,,F,181,triangle,1,0,,,3,,,,,,,,,,,,,repeat,letter,lettRpt,d,0.6818,vtsPrac,4,0,4,0,1,,,,,,,,,,,,,,,,,,,,,,,
293197,2022-10-06_19h27.00.846,vts_reward_expectancy,2022.2.4,MacIntel,60.0024001,Chrome,1440,900,,,,,0,621,,,,,,,,,,,,,,,,,H,167,circle,1,0,,,3,,,,,,,,,,,,,repeat,letter,lettRpt,d,0.6476,vtsPrac,5,0,5,0,1,,,,,,,,,,,,,,,,,,,,,,,
293197,2022-10-06_19h27.00.846,vts_reward_expectancy,2022.2.4,MacIntel,60.0024001,Chrome,1440,900,,,,,0,621,,,,,,,,,,,,,,,,,D,132,circle,1,0,,,3,,,,,,,,,,,,,repeat,letter,lettRpt,d,0.7059,vtsPrac,6,0,6,0,1,,,,,,,,,,,,,,,,,,,,,,,
293197,2022-10-06_19h27.00.846,vts_reward_expectancy,2022.2.4,MacIntel,60.0024001,Chrome,1440,900,,,,,0,621,,,,,,,,,,,,,,,,,B,146,hexagon,1,0,,,3,,,,,,,,,,,,,switch,number,numSwt,j,0.9127,vtsPrac,7,0,7,0,1,,,,,,,,,,,,,,,,,,,,,,,
293197,2022-10-06_19h27.00.846,vts_reward_expectancy,2022.2.4,MacIntel,60.0024001,Chrome,1440,900,,,,,0,621,,,,,,,,,,,,,,,,,Y,146,hexagon,1,0,,,3,,,,,,,,,,,,,repeat,number,numRpt,j,0.6829,vtsPrac,8,0,8,0,1,,,,,,,,,,,,,,,,,,,,,,,
293197,2022-10-06_19h27.00.846,vts_reward_expectancy,2022.2.4,MacIntel,60.0024001,Chrome,1440,900,,,,,0,621,,,,,,,,,,,,,,,,,U,160,triangle,1,0,,,3,,,,,,,,,,,,,repeat,number,numRpt,k,0.5392,vtsPrac,9,0,9,0,1,,,,,,,,,,,,,,,,,,,,,,,
293197,2022-10-06_19h27.00.846,vts_reward_expectancy,2022.2.4,MacIntel,60.0024001,Chrome,1440,900,,,,,0,621,,,,,,,,,,,,,,,,,H,167,circle,1,0,,,3,,,,,,,,,,,,,switch,letter,lettSwt,d,0.7396,vtsPrac,10,0,10,0,1,,,,,,,,,,,,,,,,,,,,,,,
293197,2022-10-06_19h27.00.846,vts_reward_expectancy,2022.2.4,MacIntel,60.0024001,Chrome,1440,900,,,,,0,621,,,,,,,,,,,,,,,,,F,139,hexagon,1,0,,,3,,,,,,,,,,,,,repeat,letter,lettRpt,d,0.645,vtsPrac,11,0,11,0,1,,,,,,,,,,,,,,,,,,,,,,,
293197,2022-10-06_19h27.00.846,vts_reward_expectancy,2022.2.4,MacIntel,60.0024001,Chrome,1440,900,,,,,0,621,,,,,,,,,,,,,,,,,S,181,circle,1,0,,,3,,,,,,,,,,,,,repeat,letter,lettRpt,f,0.6731,vtsPrac,12,0,12,0,1,,,,,,,,,,,,,,,,,,,,,,,
293197,2022-10-06_19h27.00.846,vts_reward_expectancy,2022.2.4,MacIntel,60.0024001,Chrome,1440,900,,,,,0,621,,,,,,,,,,,,,,,,,D,167,triangle,1,0,,,3,,,,,,,,,,,,,switch,number,numSwt,k,1.678,vtsPrac,13,0,13,0,1,,,,,,,,,,,,,,,,,,,,,,,
293197,2022-10-06_19h27.00.846,vts_reward_expectancy,2022.2.4,MacIntel,60.0024001,Chrome,1440,900,,,,,0,621,,,,,,,,,,,,,,,,,U,160,circle,1,0,,,3,,,,,,,,,,,,,repeat,number,numRpt,k,0.6642,vtsPrac,14,0,14,0,1,,,,,,,,,,,,,,,,,,,,,,,
293197,2022-10-06_19h27.00.846,vts_reward_expectancy,2022.2.4,MacIntel,60.0024001,Chrome,1440,900,,,,,0,621,,,,,,,,,,,,,,,,,H,139,hexagon,1,0,,,3,,,,,,,,,,,,,switch,letter,lettSwt,d,0.6287,vtsPrac,15,0,15,0,1,,,,,,,,,,,,,,,,,,,,,,,
293197,2022-10-06_19h27.00.846,vts_reward_expectancy,2022.2.4,MacIntel,60.0024001,Chrome,1440,900,,,,,,,,,,,,,,,,,,,,,,,,,,,,,,,,,,,,,,,,,,,,,,,,,,,,,,,,,,,,,,,,,,,,,,,,,,,,
293197,2022-10-06_19h27.00.846,vts_reward_expectancy,2022.2.4,MacIntel,60.0024001,Chrome,1440,900,,,,,,,,,,,,,,,,,,,,,,,,,,,,,,,,,,,,,,,,,,,,,,,,,,,,,,,,,,,,,,,,,,,,,,,,,,,,
293197,2022-10-06_19h27.00.846,vts_reward_expectancy,2022.2.4,MacIntel,60.0024001,Chrome,1440,900,,,,,0,621,,,,,,,,,,,,,,,,,S,125,triangle,1,0,,,,,,,,,,,,,,,,repeat,letter,lettRpt,f,0.8842,noRew,,,,,,0,0,0,0,0,1,,,,,,,,,,,,,,,,,
293197,2022-10-06_19h27.00.846,vts_reward_expectancy,2022.2.4,MacIntel,60.0024001,Chrome,1440,900,,,,,0,621,,,,,,,,,,,,,,,,,B,174,circle,1,0,,,,,,,,,,,,,,,,repeat,letter,lettRpt,d,0.848,noRew,,,,,,0,1,0,1,0,1,,,,,,,,,,,,,,,,,
293197,2022-10-06_19h27.00.846,vts_reward_expectancy,2022.2.4,MacIntel,60.0024001,Chrome,1440,900,,,,,0,621,,,,,,,,,,,,,,,,,Y,160,triangle,1,0,,,,,,,,,,,,,,,,repeat,letter,lettRpt,f,0.5954,noRew,,,,,,0,2,0,2,0,1,,,,,,,,,,,,,,,,,
293197,2022-10-06_19h27.00.846,vts_reward_expectancy,2022.2.4,MacIntel,60.0024001,Chrome,1440,900,,,,,0,621,,,,,,,,,,,,,,,,,F,181,circle,1,0,,,,,,,,,,,,,,,,repeat,letter,lettRpt,d,0.844,noRew,,,,,,0,3,0,3,0,1,,,,,,,,,,,,,,,,,
293197,2022-10-06_19h27.00.846,vts_reward_expectancy,2022.2.4,MacIntel,60.0024001,Chrome,1440,900,,,,,0,621,,,,,,,,,,,,,,,,,S,125,star,1,0,,,,,,,,,,,,,,,,repeat,letter,lettRpt,f,0.8816,noRew,,,,,,0,4,0,4,0,1,,,,,,,,,,,,,,,,,
293197,2022-10-06_19h27.00.846,vts_reward_expectancy,2022.2.4,MacIntel,60.0024001,Chrome,1440,900,,,,,0,621,,,,,,,,,,,,,,,,,B,174,circle,1,0,,,,,,,,,,,,,,,,switch,number,numSwt,k,0.6736,noRew,,,,,,0,5,0,5,0,1,,,,,,,,,,,,,,,,,
293197,2022-10-06_19h27.00.846,vts_reward_expectancy,2022.2.4,MacIntel,60.0024001,Chrome,1440,900,,,,,0,621,,,,,,,,,,,,,,,,,Y,160,circle,1,0,,,,,,,,,,,,,,,,repeat,number,numRpt,k,0.7147,noRew,,,,,,0,6,0,6,0,1,,,,,,,,,,,,,,,,,
293197,2022-10-06_19h27.00.846,vts_reward_expectancy,2022.2.4,MacIntel,60.0024001,Chrome,1440,900,,,,,0,621,,,,,,,,,,,,,,,,,F,181,triangle,1,0,,,,,,,,,,,,,,,,repeat,number,numRpt,k,0.6631,noRew,,,,,,0,7,0,7,0,1,,,,,,,,,,,,,,,,,
293197,2022-10-06_19h27.00.846,vts_reward_expectancy,2022.2.4,MacIntel,60.0024001,Chrome,1440,900,,,,,0,621,,,,,,,,,,,,,,,,,D,139,hexagon,1,0,,,,,,,,,,,,,,,,repeat,number,numRpt,j,0.8703,noRew,,,,,,0,8,0,8,0,1,,,,,,,,,,,,,,,,,
293197,2022-10-06_19h27.00.846,vts_reward_expectancy,2022.2.4,MacIntel,60.0024001,Chrome,1440,900,,,,,0,621,,,,,,,,,,,,,,,,,F,181,circle,1,0,,,,,,,,,,,,,,,,repeat,number,numRpt,k,0.595,noRew,,,,,,0,9,0,9,0,1,,,,,,,,,,,,,,,,,
293197,2022-10-06_19h27.00.846,vts_reward_expectancy,2022.2.4,MacIntel,60.0024001,Chrome,1440,900,,,,,0,621,,,,,,,,,,,,,,,,,S,146,triangle,1,0,,,,,,,,,,,,,,,,switch,letter,lettSwt,f,0.6805,noRew,,,,,,0,10,0,10,0,1,,,,,,,,,,,,,,,,,
293197,2022-10-06_19h27.00.846,vts_reward_expectancy,2022.2.4,MacIntel,60.0024001,Chrome,1440,900,,,,,0,621,,,,,,,,,,,,,,,,,Y,167,circle,1,0,,,,,,,,,,,,,,,,repeat,letter,lettRpt,f,0.7072,noRew,,,,,,0,11,0,11,0,1,,,,,,,,,,,,,,,,,
293197,2022-10-06_19h27.00.846,vts_reward_expectancy,2022.2.4,MacIntel,60.0024001,Chrome,1440,900,,,,,0,621,,,,,,,,,,,,,,,,,U,132,circle,1,0,,,,,,,,,,,,,,,,repeat,letter,lettRpt,f,1.0064,noRew,,,,,,0,12,0,12,0,1,,,,,,,,,,,,,,,,,
293197,2022-10-06_19h27.00.846,vts_reward_expectancy,2022.2.4,MacIntel,60.0024001,Chrome,1440,900,,,,,0,621,,,,,,,,,,,,,,,,,W,125,star,1,0,,,,,,,,,,,,,,,,repeat,letter,lettRpt,f,0.9916,noRew,,,,,,0,13,0,13,0,1,,,,,,,,,,,,,,,,,
293197,2022-10-06_19h27.00.846,vts_reward_expectancy,2022.2.4,MacIntel,60.0024001,Chrome,1440,900,,,,,0,621,,,,,,,,,,,,,,,,,H,174,star,1,0,,,,,,,,,,,,,,,,repeat,letter,lettRpt,d,0.9156,noRew,,,,,,0,14,0,14,0,1,,,,,,,,,,,,,,,,,
293197,2022-10-06_19h27.00.846,vts_reward_expectancy,2022.2.4,MacIntel,60.0024001,Chrome,1440,900,,,,,0,621,,,,,,,,,,,,,,,,,Y,146,circle,1,0,,,,,,,,,,,,,,,,switch,number,numSwt,j,0.7229,noRew,,,,,,0,15,0,15,0,1,,,,,,,,,,,,,,,,,
293197,2022-10-06_19h27.00.846,vts_reward_expectancy,2022.2.4,MacIntel,60.0024001,Chrome,1440,900,,,,,0,621,,,,,,,,,,,,,,,,,W,160,hexagon,1,0,,,,,,,,,,,,,,,,repeat,number,numRpt,k,0.8243,noRew,,,,,,0,16,0,16,0,1,,,,,,,,,,,,,,,,,
293197,2022-10-06_19h27.00.846,vts_reward_expectancy,2022.2.4,MacIntel,60.0024001,Chrome,1440,900,,,,,0,621,,,,,,,,,,,,,,,,,Y,181,circle,1,0,,,,,,,,,,,,,,,,repeat,number,numRpt,k,0.7206,noRew,,,,,,0,17,0,17,0,1,,,,,,,,,,,,,,,,,
293197,2022-10-06_19h27.00.846,vts_reward_expectancy,2022.2.4,MacIntel,60.0024001,Chrome,1440,900,,,,,0,621,,,,,,,,,,,,,,,,,S,125,circle,1,0,,,,,,,,,,,,,,,,repeat,number,numRpt,j,0.8741,noRew,,,,,,0,18,0,18,0,1,,,,,,,,,,,,,,,,,
293197,2022-10-06_19h27.00.846,vts_reward_expectancy,2022.2.4,MacIntel,60.0024001,Chrome,1440,900,,,,,0,621,,,,,,,,,,,,,,,,,U,174,hexagon,1,0,,,,,,,,,,,,,,,,repeat,number,numRpt,k,1.0952,noRew,,,,,,0,19,0,19,0,1,,,,,,,,,,,,,,,,,
293197,2022-10-06_19h27.00.846,vts_reward_expectancy,2022.2.4,MacIntel,60.0024001,Chrome,1440,900,,,,,0,621,,,,,,,,,,,,,,,,,Y,146,star,1,0,,,,,,,,,,,,,,,,switch,letter,lettSwt,f,0.9809,noRew,,,,,,0,20,0,20,0,1,,,,,,,,,,,,,,,,,
293197,2022-10-06_19h27.00.846,vts_reward_expectancy,2022.2.4,MacIntel,60.0024001,Chrome,1440,900,,,,,0,621,,,,,,,,,,,,,,,,,F,139,hexagon,1,0,,,,,,,,,,,,,,,,repeat,letter,lettRpt,d,1.2425,noRew,,,,,,0,21,0,21,0,1,,,,,,,,,,,,,,,,,
293197,2022-10-06_19h27.00.846,vts_reward_expectancy,2022.2.4,MacIntel,60.0024001,Chrome,1440,900,,,,,0,621,,,,,,,,,,,,,,,,,U,167,star,1,0,,,,,,,,,,,,,,,,repeat,letter,lettRpt,f,1.3309,noRew,,,,,,0,22,0,22,0,1,,,,,,,,,,,,,,,,,
293197,2022-10-06_19h27.00.846,vts_reward_expectancy,2022.2.4,MacIntel,60.0024001,Chrome,1440,900,,,,,0,621,,,,,,,,,,,,,,,,,W,160,circle,1,0,,,,,,,,,,,,,,,,repeat,letter,lettRpt,f,0.8758,noRew,,,,,,0,23,0,23,0,1,,,,,,,,,,,,,,,,,
293197,2022-10-06_19h27.00.846,vts_reward_expectancy,2022.2.4,MacIntel,60.0024001,Chrome,1440,900,,,,,0,621,,,,,,,,,,,,,,,,,W,125,triangle,1,0,,,,,,,,,,,,,,,,repeat,letter,lettRpt,f,0.6467,noRew,,,,,,0,24,0,24,0,1,,,,,,,,,,,,,,,,,
293197,2022-10-06_19h27.00.846,vts_reward_expectancy,2022.2.4,MacIntel,60.0024001,Chrome,1440,900,,,,,0,621,,,,,,,,,,,,,,,,,H,160,circle,1,0,,,,,,,,,,,,,,,,switch,number,numSwt,k,1.4682,noRew,,,,,,0,25,0,25,0,1,,,,,,,,,,,,,,,,,
293197,2022-10-06_19h27.00.846,vts_reward_expectancy,2022.2.4,MacIntel,60.0024001,Chrome,1440,900,,,,,0,621,,,,,,,,,,,,,,,,,Y,132,star,1,0,,,,,,,,,,,,,,,,repeat,number,numRpt,j,1.0023,noRew,,,,,,0,26,0,26,0,1,,,,,,,,,,,,,,,,,
293197,2022-10-06_19h27.00.846,vts_reward_expectancy,2022.2.4,MacIntel,60.0024001,Chrome,1440,900,,,,,0,621,,,,,,,,,,,,,,,,,U,174,hexagon,1,0,,,,,,,,,,,,,,,,repeat,number,numRpt,k,0.8028,noRew,,,,,,0,27,0,27,0,1,,,,,,,,,,,,,,,,,
293197,2022-10-06_19h27.00.846,vts_reward_expectancy,2022.2.4,MacIntel,60.0024001,Chrome,1440,900,,,,,0,621,,,,,,,,,,,,,,,,,S,132,circle,1,0,,,,,,,,,,,,,,,,repeat,number,numRpt,j,1.1269,noRew,,,,,,0,28,0,28,0,1,,,,,,,,,,,,,,,,,
293197,2022-10-06_19h27.00.846,vts_reward_expectancy,2022.2.4,MacIntel,60.0024001,Chrome,1440,900,,,,,0,621,,,,,,,,,,,,,,,,,D,160,triangle,1,0,,,,,,,,,,,,,,,,repeat,number,numRpt,k,1.4423,noRew,,,,,,0,29,0,29,0,1,,,,,,,,,,,,,,,,,
293197,2022-10-06_19h27.00.846,vts_reward_expectancy,2022.2.4,MacIntel,60.0024001,Chrome,1440,900,,,,,0,621,,,,,,,,,,,,,,,,,U,174,star,1,0,,,,,,,,,,,,,,,,switch,letter,lettSwt,f,1.7119,noRew,,,,,,0,30,0,30,0,1,,,,,,,,,,,,,,,,,
293197,2022-10-06_19h27.00.846,vts_reward_expectancy,2022.2.4,MacIntel,60.0024001,Chrome,1440,900,,,,,0,621,,,,,,,,,,,,,,,,,W,181,triangle,-1,0,,,,,,,,,,,,,,,,switch,no_choice,NA,,,noRew,,,,,,0,31,0,31,0,1,,,,,,,,,,,,,,,,,
293197,2022-10-06_19h27.00.846,vts_reward_expectancy,2022.2.4,MacIntel,60.0024001,Chrome,1440,900,,,,,0,621,,,,,,,,,,,,,,,,,B,132,star,1,0,,,,,,,,,,,,,,,,switch,letter,lettSwt,d,1.1359,noRew,,,,,,0,32,0,32,0,1,,,,,,,,,,,,,,,,,
293197,2022-10-06_19h27.00.846,vts_reward_expectancy,2022.2.4,MacIntel,60.0024001,Chrome,1440,900,,,,,0,621,,,,,,,,,,,,,,,,,S,174,triangle,1,0,,,,,,,,,,,,,,,,repeat,letter,lettRpt,f,1.8477,noRew,,,,,,0,33,0,33,0,1,,,,,,,,,,,,,,,,,
293197,2022-10-06_19h27.00.846,vts_reward_expectancy,2022.2.4,MacIntel,60.0024001,Chrome,1440,900,,,,,0,621,,,,,,,,,,,,,,,,,Y,160,circle,1,0,,,,,,,,,,,,,,,,repeat,letter,lettRpt,f,1.1296,noRew,,,,,,0,34,0,34,0,1,,,,,,,,,,,,,,,,,
293197,2022-10-06_19h27.00.846,vts_reward_expectancy,2022.2.4,MacIntel,60.0024001,Chrome,1440,900,,,,,0,621,,,,,,,,,,,,,,,,,D,146,hexagon,-1,0,,,,,,,,,,,,,,,,switch,no_choice,NA,,,noRew,,,,,,0,35,0,35,0,1,,,,,,,,,,,,,,,,,
293197,2022-10-06_19h27.00.846,vts_reward_expectancy,2022.2.4,MacIntel,60.0024001,Chrome,1440,900,,,,,0,621,,,,,,,,,,,,,,,,,W,160,hexagon,1,0,,,,,,,,,,,,,,,,switch,letter,lettSwt,f,0.7184,noRew,,,,,,0,36,0,36,0,1,,,,,,,,,,,,,,,,,
293197,2022-10-06_19h27.00.846,vts_reward_expectancy,2022.2.4,MacIntel,60.0024001,Chrome,1440,900,,,,,0,621,,,,,,,,,,,,,,,,,F,132,star,1,0,,,,,,,,,,,,,,,,repeat,letter,lettRpt,d,1.0476,noRew,,,,,,0,37,0,37,0,1,,,,,,,,,,,,,,,,,
293197,2022-10-06_19h27.00.846,vts_reward_expectancy,2022.2.4,MacIntel,60.0024001,Chrome,1440,900,,,,,0,621,,,,,,,,,,,,,,,,,S,146,triangle,1,0,,,,,,,,,,,,,,,,repeat,letter,lettRpt,f,0.9225,noRew,,,,,,0,38,0,38,0,1,,,,,,,,,,,,,,,,,
293197,2022-10-06_19h27.00.846,vts_reward_expectancy,2022.2.4,MacIntel,60.0024001,Chrome,1440,900,,,,,0,621,,,,,,,,,,,,,,,,,D,181,circle,1,0,,,,,,,,,,,,,,,,repeat,letter,lettRpt,d,1.3751,noRew,,,,,,0,39,0,39,0,1,,,,,,,,,,,,,,,,,
293197,2022-10-06_19h27.00.846,vts_reward_expectancy,2022.2.4,MacIntel,60.0024001,Chrome,1440,900,,,,,0,621,,,,,,,,,,,,,,,,,W,174,circle,1,0,,,,,,,,,,,,,,,,switch,number,numSwt,k,1.2978,noRew,,,,,,0,40,0,40,0,1,,,,,,,,,,,,,,,,,
293197,2022-10-06_19h27.00.846,vts_reward_expectancy,2022.2.4,MacIntel,60.0024001,Chrome,1440,900,,,,,0,621,,,,,,,,,,,,,,,,,D,139,star,1,0,,,,,,,,,,,,,,,,repeat,number,numRpt,j,0.9978,noRew,,,,,,0,41,0,41,0,1,,,,,,,,,,,,,,,,,
293197,2022-10-06_19h27.00.846,vts_reward_expectancy,2022.2.4,MacIntel,60.0024001,Chrome,1440,900,,,,,0,621,,,,,,,,,,,,,,,,,U,181,hexagon,1,0,,,,,,,,,,,,,,,,repeat,number,numRpt,k,0.8285,noRew,,,,,,0,42,0,42,0,1,,,,,,,,,,,,,,,,,
293197,2022-10-06_19h27.00.846,vts_reward_expectancy,2022.2.4,MacIntel,60.0024001,Chrome,1440,900,,,,,0,621,,,,,,,,,,,,,,,,,B,146,star,1,0,,,,,,,,,,,,,,,,repeat,number,numRpt,j,0.9148,noRew,,,,,,0,43,0,43,0,1,,,,,,,,,,,,,,,,,
293197,2022-10-06_19h27.00.846,vts_reward_expectancy,2022.2.4,MacIntel,60.0024001,Chrome,1440,900,,,,,0,621,,,,,,,,,,,,,,,,,W,167,triangle,1,0,,,,,,,,,,,,,,,,switch,letter,lettSwt,f,1.01,noRew,,,,,,0,44,0,44,0,1,,,,,,,,,,,,,,,,,
293197,2022-10-06_19h27.00.846,vts_reward_expectancy,2022.2.4,MacIntel,60.0024001,Chrome,1440,900,,,,,0,621,,,,,,,,,,,,,,,,,B,132,hexagon,1,0,,,,,,,,,,,,,,,,switch,number,numSwt,j,1.0591,noRew,,,,,,0,45,0,45,0,1,,,,,,,,,,,,,,,,,
293197,2022-10-06_19h27.00.846,vts_reward_expectancy,2022.2.4,MacIntel,60.0024001,Chrome,1440,900,,,,,0,621,,,,,,,,,,,,,,,,,F,181,star,1,0,,,,,,,,,,,,,,,,switch,letter,lettSwt,d,1.2476,noRew,,,,,,0,46,0,46,0,1,,,,,,,,,,,,,,,,,
293197,2022-10-06_19h27.00.846,vts_reward_expectancy,2022.2.4,MacIntel,60.0024001,Chrome,1440,900,,,,,0,621,,,,,,,,,,,,,,,,,H,146,triangle,1,0,,,,,,,,,,,,,,,,repeat,letter,lettRpt,d,0.5785,noRew,,,,,,0,47,0,47,0,1,,,,,,,,,,,,,,,,,
293197,2022-10-06_19h27.00.846,vts_reward_expectancy,2022.2.4,MacIntel,60.0024001,Chrome,1440,900,,,,,0,621,,,,,,,,,,,,,,,,,W,167,star,1,0,,,,,,,,,,,,,,,,repeat,letter,lettRpt,f,0.6903,noRew,,,,,,0,48,0,48,0,1,,,,,,,,,,,,,,,,,
293197,2022-10-06_19h27.00.846,vts_reward_expectancy,2022.2.4,MacIntel,60.0024001,Chrome,1440,900,,,,,0,621,,,,,,,,,,,,,,,,,H,160,circle,1,0,,,,,,,,,,,,,,,,repeat,letter,lettRpt,d,0.66,noRew,,,,,,0,49,0,49,0,1,,,,,,,,,,,,,,,,,
293197,2022-10-06_19h27.00.846,vts_reward_expectancy,2022.2.4,MacIntel,60.0024001,Chrome,1440,900,,,,,0,621,,,,,,,,,,,,,,,,,D,125,hexagon,1,0,,,,,,,,,,,,,,,,repeat,letter,lettRpt,d,0.6191,noRew,,,,,,0,50,0,50,0,1,,,,,,,,,,,,,,,,,
293197,2022-10-06_19h27.00.846,vts_reward_expectancy,2022.2.4,MacIntel,60.0024001,Chrome,1440,900,,,,,0,621,,,,,,,,,,,,,,,,,B,139,star,1,0,,,,,,,,,,,,,,,,switch,number,numSwt,j,0.5898,noRew,,,,,,0,51,0,51,0,1,,,,,,,,,,,,,,,,,
293197,2022-10-06_19h27.00.846,vts_reward_expectancy,2022.2.4,MacIntel,60.0024001,Chrome,1440,900,,,,,0,621,,,,,,,,,,,,,,,,,D,167,hexagon,1,0,,,,,,,,,,,,,,,,repeat,number,numRpt,k,1.0532,noRew,,,,,,0,52,0,52,0,1,,,,,,,,,,,,,,,,,
293197,2022-10-06_19h27.00.846,vts_reward_expectancy,2022.2.4,MacIntel,60.0024001,Chrome,1440,900,,,,,0,621,,,,,,,,,,,,,,,,,W,160,triangle,1,0,,,,,,,,,,,,,,,,repeat,number,numRpt,k,0.8811,noRew,,,,,,0,53,0,53,0,1,,,,,,,,,,,,,,,,,
293197,2022-10-06_19h27.00.846,vts_reward_expectancy,2022.2.4,MacIntel,60.0024001,Chrome,1440,900,,,,,0,621,,,,,,,,,,,,,,,,,F,139,triangle,1,0,,,,,,,,,,,,,,,,repeat,number,numRpt,j,0.9051,noRew,,,,,,0,54,0,54,0,1,,,,,,,,,,,,,,,,,
293197,2022-10-06_19h27.00.846,vts_reward_expectancy,2022.2.4,MacIntel,60.0024001,Chrome,1440,900,,,,,0,621,,,,,,,,,,,,,,,,,U,125,hexagon,1,0,,,,,,,,,,,,,,,,repeat,number,numRpt,j,0.677,noRew,,,,,,0,55,0,55,0,1,,,,,,,,,,,,,,,,,
293197,2022-10-06_19h27.00.846,vts_reward_expectancy,2022.2.4,MacIntel,60.0024001,Chrome,1440,900,,,,,0,621,,,,,,,,,,,,,,,,,W,167,triangle,1,0,,,,,,,,,,,,,,,,repeat,number,numRpt,k,0.8712,noRew,,,,,,0,56,0,56,0,1,,,,,,,,,,,,,,,,,
293197,2022-10-06_19h27.00.846,vts_reward_expectancy,2022.2.4,MacIntel,60.0024001,Chrome,1440,900,,,,,0,621,,,,,,,,,,,,,,,,,S,181,hexagon,1,0,,,,,,,,,,,,,,,,repeat,number,numRpt,k,1.6698,noRew,,,,,,0,57,0,57,0,1,,,,,,,,,,,,,,,,,
293197,2022-10-06_19h27.00.846,vts_reward_expectancy,2022.2.4,MacIntel,60.0024001,Chrome,1440,900,,,,,0,621,,,,,,,,,,,,,,,,,B,132,triangle,1,0,,,,,,,,,,,,,,,,repeat,number,numRpt,j,0.7301,noRew,,,,,,0,58,0,58,0,1,,,,,,,,,,,,,,,,,
293197,2022-10-06_19h27.00.846,vts_reward_expectancy,2022.2.4,MacIntel,60.0024001,Chrome,1440,900,,,,,0,621,,,,,,,,,,,,,,,,,F,174,star,1,0,,,,,,,,,,,,,,,,repeat,number,numRpt,k,0.9468,noRew,,,,,,0,59,0,59,0,1,,,,,,,,,,,,,,,,,
293197,2022-10-06_19h27.00.846,vts_reward_expectancy,2022.2.4,MacIntel,60.0024001,Chrome,1440,900,,,,,0,621,,,,,,,,,,,,,,,,,H,139,circle,1,0,,,,,,,,,,,,,,,,switch,letter,lettSwt,d,0.5577,noRew,,,,,,0,60,0,60,0,1,,,,,,,,,,,,,,,,,
293197,2022-10-06_19h27.00.846,vts_reward_expectancy,2022.2.4,MacIntel,60.0024001,Chrome,1440,900,,,,,0,621,,,,,,,,,,,,,,,,,B,167,triangle,1,0,,,,,,,,,,,,,,,,repeat,letter,lettRpt,d,0.8604,noRew,,,,,,0,61,0,61,0,1,,,,,,,,,,,,,,,,,
293197,2022-10-06_19h27.00.846,vts_reward_expectancy,2022.2.4,MacIntel,60.0024001,Chrome,1440,900,,,,,0,621,,,,,,,,,,,,,,,,,U,160,hexagon,1,0,,,,,,,,,,,,,,,,repeat,letter,lettRpt,f,1.1298,noRew,,,,,,0,62,0,62,0,1,,,,,,,,,,,,,,,,,
293197,2022-10-06_19h27.00.846,vts_reward_expectancy,2022.2.4,MacIntel,60.0024001,Chrome,1440,900,,,,,0,621,,,,,,,,,,,,,,,,,D,174,triangle,1,0,,,,,,,,,,,,,,,,repeat,letter,lettRpt,d,0.6437,noRew,,,,,,0,63,0,63,0,1,,,,,,,,,,,,,,,,,
293197,2022-10-06_19h27.00.846,vts_reward_expectancy,2022.2.4,MacIntel,60.0024001,Chrome,1440,900,,,,,,,,,,,,,,,,,,,,,,,,,,,,,,,,,,,,,,,,,,,,,,,,,,,,,,,,,,,,,,,,,,,,,,,,,,,,
293197,2022-10-06_19h27.00.846,vts_reward_expectancy,2022.2.4,MacIntel,60.0024001,Chrome,1440,900,,,,,10,631,,,,,,,,,,,,,,,,,Y,139,triangle,1,0,,,,,,,,,,,,,,,,repeat,letter,lettRpt,f,0.7968,Lo,,,,,,0,,,,,,space,3.6615,low,0,0,0,0,1,,,,,,,,,
293197,2022-10-06_19h27.00.846,vts_reward_expectancy,2022.2.4,MacIntel,60.0024001,Chrome,1440,900,,,,,1,632,,,,,,,,,,,,,,,,,F,181,circle,1,0,,,,,,,,,,,,,,,,switch,number,numSwt,k,0.6018,Hi,,,,,,0,,,,,,,,low,1,0,1,0,1,,,,,,,,,
293197,2022-10-06_19h27.00.846,vts_reward_expectancy,2022.2.4,MacIntel,60.0024001,Chrome,1440,900,,,,,10,642,,,,,,,,,,,,,,,,,H,174,triangle,1,0,,,,,,,,,,,,,,,,switch,letter,lettSwt,d,0.7673,Lo,,,,,,0,,,,,,,,low,2,0,2,0,1,,,,,,,,,
293197,2022-10-06_19h27.00.846,vts_reward_expectancy,2022.2.4,MacIntel,60.0024001,Chrome,1440,900,,,,,1,643,,,,,,,,,,,,,,,,,W,132,circle,1,0,,,,,,,,,,,,,,,,repeat,letter,lettRpt,f,0.7789,Hi,,,,,,0,,,,,,,,low,3,0,3,0,1,,,,,,,,,
293197,2022-10-06_19h27.00.846,vts_reward_expectancy,2022.2.4,MacIntel,60.0024001,Chrome,1440,900,,,,,0,643,,,,,,,,,,,,,,,,,D,146,circle,1,0,,,,,,,,,,,,,,,,repeat,letter,lettRpt,d,0.8805,Hi,,,,,,0,,,,,,,,low,4,0,4,0,1,,,,,,,,,
293197,2022-10-06_19h27.00.846,vts_reward_expectancy,2022.2.4,MacIntel,60.0024001,Chrome,1440,900,,,,,1,644,,,,,,,,,,,,,,,,,S,160,triangle,1,0,,,,,,,,,,,,,,,,repeat,letter,lettRpt,f,0.5295,Lo,,,,,,0,,,,,,,,low,5,0,5,0,1,,,,,,,,,
293197,2022-10-06_19h27.00.846,vts_reward_expectancy,2022.2.4,MacIntel,60.0024001,Chrome,1440,900,,,,,1,645,,,,,,,,,,,,,,,,,U,167,triangle,1,0,,,,,,,,,,,,,,,,switch,number,numSwt,k,0.9448,Lo,,,,,,0,,,,,,,,low,6,0,6,0,1,,,,,,,,,
293197,2022-10-06_19h27.00.846,vts_reward_expectancy,2022.2.4,MacIntel,60.0024001,Chrome,1440,900,,,,,0,645,,,,,,,,,,,,,,,,,B,125,circle,1,0,,,,,,,,,,,,,,,,repeat,number,numRpt,j,1.2114,Hi,,,,,,0,,,,,,,,low,7,0,7,0,1,,,,,,,,,
293197,2022-10-06_19h27.00.846,vts_reward_expectancy,2022.2.4,MacIntel,60.0024001,Chrome,1440,900,,,,,1,646,,,,,,,,,,,,,,,,,Y,139,triangle,1,0,,,,,,,,,,,,,,,,switch,letter,lettSwt,f,0.6548,Lo,,,,,,0,,,,,,,,low,8,0,8,0,1,,,,,,,,,
293197,2022-10-06_19h27.00.846,vts_reward_expectancy,2022.2.4,MacIntel,60.0024001,Chrome,1440,900,,,,,10,656,,,,,,,,,,,,,,,,,F,181,circle,1,0,,,,,,,,,,,,,,,,repeat,letter,lettRpt,d,0.8146,Hi,,,,,,0,,,,,,,,low,9,0,9,0,1,,,,,,,,,
293197,2022-10-06_19h27.00.846,vts_reward_expectancy,2022.2.4,MacIntel,60.0024001,Chrome,1440,900,,,,,1,657,,,,,,,,,,,,,,,,,H,174,triangle,1,0,,,,,,,,,,,,,,,,switch,number,numSwt,k,0.5975,Lo,,,,,,0,,,,,,,,low,10,0,10,0,1,,,,,,,,,
293197,2022-10-06_19h27.00.846,vts_reward_expectancy,2022.2.4,MacIntel,60.0024001,Chrome,1440,900,,,,,10,667,,,,,,,,,,,,,,,,,W,132,circle,1,0,,,,,,,,,,,,,,,,repeat,number,numRpt,j,0.5467,Hi,,,,,,0,,,,,,,,low,11,0,11,0,1,,,,,,,,,
293197,2022-10-06_19h27.00.846,vts_reward_expectancy,2022.2.4,MacIntel,60.0024001,Chrome,1440,900,,,,,1,668,,,,,,,,,,,,,,,,,D,146,circle,1,0,,,,,,,,,,,,,,,,switch,letter,lettSwt,d,0.5315,Hi,,,,,,0,,,,,,,,low,12,0,12,0,1,,,,,,,,,
293197,2022-10-06_19h27.00.846,vts_reward_expectancy,2022.2.4,MacIntel,60.0024001,Chrome,1440,900,,,,,10,678,,,,,,,,,,,,,,,,,S,160,triangle,1,0,,,,,,,,,,,,,,,,repeat,letter,lettRpt,f,0.5962,Lo,,,,,,0,,,,,,,,low,13,0,13,0,1,,,,,,,,,
293197,2022-10-06_19h27.00.846,vts_reward_expectancy,2022.2.4,MacIntel,60.0024001,Chrome,1440,900,,,,,10,688,,,,,,,,,,,,,,,,,U,167,circle,1,0,,,,,,,,,,,,,,,,repeat,letter,lettRpt,f,0.5136,Hi,,,,,,0,,,,,,,,low,14,0,14,0,1,,,,,,,,,
293197,2022-10-06_19h27.00.846,vts_reward_expectancy,2022.2.4,MacIntel,60.0024001,Chrome,1440,900,,,,,1,689,,,,,,,,,,,,,,,,,B,125,triangle,1,0,,,,,,,,,,,,,,,,switch,number,numSwt,j,0.4959,Lo,,,,,,0,,,,,,,,low,15,0,15,0,1,,,,,,,,,
293197,2022-10-06_19h27.00.846,vts_reward_expectancy,2022.2.4,MacIntel,60.0024001,Chrome,1440,900,,,,,10,699,,,,,,,,,,,,,,,,,H,132,triangle,1,0,,,,,,,,,,,,,,,,switch,letter,lettSwt,d,0.8796,Lo,,,,,,0,,,,,,,,low,16,0,16,0,1,,,,,,,,,
293197,2022-10-06_19h27.00.846,vts_reward_expectancy,2022.2.4,MacIntel,60.0024001,Chrome,1440,900,,,,,10,709,,,,,,,,,,,,,,,,,U,167,circle,1,0,,,,,,,,,,,,,,,,repeat,letter,lettRpt,f,0.6644,Hi,,,,,,0,,,,,,,,low,17,0,17,0,1,,,,,,,,,
293197,2022-10-06_19h27.00.846,vts_reward_expectancy,2022.2.4,MacIntel,60.0024001,Chrome,1440,900,,,,,1,710,,,,,,,,,,,,,,,,,D,146,triangle,1,0,,,,,,,,,,,,,,,,repeat,letter,lettRpt,d,0.662,Lo,,,,,,0,,,,,,,,low,18,0,18,0,1,,,,,,,,,
293197,2022-10-06_19h27.00.846,vts_reward_expectancy,2022.2.4,MacIntel,60.0024001,Chrome,1440,900,,,,,10,720,,,,,,,,,,,,,,,,,B,160,circle,1,0,,,,,,,,,,,,,,,,repeat,letter,lettRpt,d,0.8149,Hi,,,,,,0,,,,,,,,low,19,0,19,0,1,,,,,,,,,
293197,2022-10-06_19h27.00.846,vts_reward_expectancy,2022.2.4,MacIntel,60.0024001,Chrome,1440,900,,,,,10,730,,,,,,,,,,,,,,,,,Y,174,triangle,1,0,,,,,,,,,,,,,,,,repeat,letter,lettRpt,f,0.965,Lo,,,,,,0,,,,,,,,low,20,0,20,0,1,,,,,,,,,
293197,2022-10-06_19h27.00.846,vts_reward_expectancy,2022.2.4,MacIntel,60.0024001,Chrome,1440,900,,,,,10,740,,,,,,,,,,,,,,,,,F,125,circle,1,0,,,,,,,,,,,,,,,,repeat,letter,lettRpt,d,0.8288,Hi,,,,,,0,,,,,,,,low,21,0,21,0,1,,,,,,,,,
293197,2022-10-06_19h27.00.846,vts_reward_expectancy,2022.2.4,MacIntel,60.0024001,Chrome,1440,900,,,,,10,750,,,,,,,,,,,,,,,,,W,139,triangle,1,0,,,,,,,,,,,,,,,,repeat,letter,lettRpt,f,0.7472,Lo,,,,,,0,,,,,,,,low,22,0,22,0,1,,,,,,,,,
293197,2022-10-06_19h27.00.846,vts_reward_expectancy,2022.2.4,MacIntel,60.0024001,Chrome,1440,900,,,,,0,750,,,,,,,,,,,,,,,,,S,181,circle,1,0,,,,,,,,,,,,,,,,repeat,letter,lettRpt,f,0.8857,Hi,,,,,,0,,,,,,,,low,23,0,23,0,1,,,,,,,,,
293197,2022-10-06_19h27.00.846,vts_reward_expectancy,2022.2.4,MacIntel,60.0024001,Chrome,1440,900,,,,,0,750,,,,,,,,,,,,,,,,,F,132,circle,1,0,,,,,,,,,,,,,,,,switch,number,numSwt,j,1.0472,Hi,,,,,,0,,,,,,,,low,24,0,24,0,1,,,,,,,,,
293197,2022-10-06_19h27.00.846,vts_reward_expectancy,2022.2.4,MacIntel,60.0024001,Chrome,1440,900,,,,,1,751,,,,,,,,,,,,,,,,,U,181,triangle,1,0,,,,,,,,,,,,,,,,switch,letter,lettSwt,f,0.6897,Lo,,,,,,0,,,,,,,,low,25,0,25,0,1,,,,,,,,,
293197,2022-10-06_19h27.00.846,vts_reward_expectancy,2022.2.4,MacIntel,60.0024001,Chrome,1440,900,,,,,1,752,,,,,,,,,,,,,,,,,D,139,triangle,1,0,,,,,,,,,,,,,,,,repeat,letter,lettRpt,d,0.802,Lo,,,,,,0,,,,,,,,low,26,0,26,0,1,,,,,,,,,
293197,2022-10-06_19h27.00.846,vts_reward_expectancy,2022.2.4,MacIntel,60.0024001,Chrome,1440,900,,,,,0,752,,,,,,,,,,,,,,,,,W,146,circle,1,0,,,,,,,,,,,,,,,,repeat,letter,lettRpt,f,1.0307,Hi,,,,,,0,,,,,,,,low,27,0,27,0,1,,,,,,,,,
293197,2022-10-06_19h27.00.846,vts_reward_expectancy,2022.2.4,MacIntel,60.0024001,Chrome,1440,900,,,,,0,752,,,,,,,,,,,,,,,,,H,167,triangle,0,0,,,,,,,,,,,,,,,,repeat,letter,NA,f,0.9294,Hi,,,,,,0,,,,,,,,low,28,0,28,0,1,,,,,,,,,
293197,2022-10-06_19h27.00.846,vts_reward_expectancy,2022.2.4,MacIntel,60.0024001,Chrome,1440,900,,,,,0,752,,,,,,,,,,,,,,,,,Y,174,circle,0,1,,,,,,,,,,,,,,,,repeat,letter,NA,d,0.4304,Hi,,,,,,0,,,,,,,,low,29,0,29,0,1,,,,,,,,,
293197,2022-10-06_19h27.00.846,vts_reward_expectancy,2022.2.4,MacIntel,60.0024001,Chrome,1440,900,,,,,1,753,,,,,,,,,,,,,,,,,B,125,triangle,1,1,,,,,,,,,,,,,,,,repeat,letter,lettRpt,d,0.5967,Lo,,,,,,0,,,,,,,,low,30,0,30,0,1,,,,,,,,,
293197,2022-10-06_19h27.00.846,vts_reward_expectancy,2022.2.4,MacIntel,60.0024001,Chrome,1440,900,,,,,10,763,,,,,,,,,,,,,,,,,S,160,circle,1,0,,,,,,,,,,,,,,,,repeat,letter,lettRpt,f,0.669,Hi,,,,,,0,,,,,,,,low,31,0,31,0,1,,,,,,,,,
293197,2022-10-06_19h27.00.846,vts_reward_expectancy,2022.2.4,MacIntel,60.0024001,Chrome,1440,900,,,,,0,763,,,,,,,,,,,,,,,,,D,146,hexagon,1,0,,,,,,,,,,,,,,,,repeat,letter,lettRpt,d,0.8308,Hi,,,,,,1,,,,,,space,2.4534,high,0,0,0,0,1,,,,,,,,,
293197,2022-10-06_19h27.00.846,vts_reward_expectancy,2022.2.4,MacIntel,60.0024001,Chrome,1440,900,,,,,0,763,,,,,,,,,,,,,,,,,U,181,star,0,0,,,,,,,,,,,,,,,,repeat,letter,NA,d,0.5406,Hi,,,,,,1,,,,,,,,high,1,0,1,0,1,,,,,,,,,
293197,2022-10-06_19h27.00.846,vts_reward_expectancy,2022.2.4,MacIntel,60.0024001,Chrome,1440,900,,,,,0,763,,,,,,,,,,,,,,,,,Y,125,hexagon,0,1,,,,,,,,,,,,,,,,repeat,letter,NA,d,0.6214,Hi,,,,,,1,,,,,,,,high,2,0,2,0,1,,,,,,,,,
293197,2022-10-06_19h27.00.846,vts_reward_expectancy,2022.2.4,MacIntel,60.0024001,Chrome,1440,900,,,,,1,764,,,,,,,,,,,,,,,,,W,132,star,1,1,,,,,,,,,,,,,,,,repeat,letter,lettRpt,f,0.5734,Lo,,,,,,1,,,,,,,,high,3,0,3,0,1,,,,,,,,,
293197,2022-10-06_19h27.00.846,vts_reward_expectancy,2022.2.4,MacIntel,60.0024001,Chrome,1440,900,,,,,1,765,,,,,,,,,,,,,,,,,S,174,hexagon,1,0,,,,,,,,,,,,,,,,switch,number,numSwt,k,0.5803,Hi,,,,,,1,,,,,,,,high,4,0,4,0,1,,,,,,,,,
293197,2022-10-06_19h27.00.846,vts_reward_expectancy,2022.2.4,MacIntel,60.0024001,Chrome,1440,900,,,,,0,765,,,,,,,,,,,,,,,,,B,167,star,0,0,,,,,,,,,,,,,,,,repeat,number,NA,j,0.9303,Hi,,,,,,1,,,,,,,,high,5,0,5,0,1,,,,,,,,,
293197,2022-10-06_19h27.00.846,vts_reward_expectancy,2022.2.4,MacIntel,60.0024001,Chrome,1440,900,,,,,1,766,,,,,,,,,,,,,,,,,H,139,star,1,1,,,,,,,,,,,,,,,,repeat,number,numRpt,j,0.5476,Lo,,,,,,1,,,,,,,,high,6,0,6,0,1,,,,,,,,,
293197,2022-10-06_19h27.00.846,vts_reward_expectancy,2022.2.4,MacIntel,60.0024001,Chrome,1440,900,,,,,10,776,,,,,,,,,,,,,,,,,F,160,hexagon,1,0,,,,,,,,,,,,,,,,repeat,number,numRpt,k,0.5694,Hi,,,,,,1,,,,,,,,high,7,0,7,0,1,,,,,,,,,
293197,2022-10-06_19h27.00.846,vts_reward_expectancy,2022.2.4,MacIntel,60.0024001,Chrome,1440,900,,,,,0,776,,,,,,,,,,,,,,,,,D,146,star,0,0,,,,,,,,,,,,,,,,repeat,number,NA,k,0.9133,Hi,,,,,,1,,,,,,,,high,8,0,8,0,1,,,,,,,,,
293197,2022-10-06_19h27.00.846,vts_reward_expectancy,2022.2.4,MacIntel,60.0024001,Chrome,1440,900,,,,,10,786,,,,,,,,,,,,,,,,,U,181,hexagon,1,1,,,,,,,,,,,,,,,,repeat,number,numRpt,k,0.9338,Hi,,,,,,1,,,,,,,,high,9,0,9,0,1,,,,,,,,,
293197,2022-10-06_19h27.00.846,vts_reward_expectancy,2022.2.4,MacIntel,60.0024001,Chrome,1440,900,,,,,10,796,,,,,,,,,,,,,,,,,Y,125,hexagon,1,0,,,,,,,,,,,,,,,,repeat,number,numRpt,j,0.7204,Hi,,,,,,1,,,,,,,,high,10,0,10,0,1,,,,,,,,,
293197,2022-10-06_19h27.00.846,vts_reward_expectancy,2022.2.4,MacIntel,60.0024001,Chrome,1440,900,,,,,1,797,,,,,,,,,,,,,,,,,W,132,star,1,0,,,,,,,,,,,,,,,,repeat,number,numRpt,j,0.775,Lo,,,,,,1,,,,,,,,high,11,0,11,0,1,,,,,,,,,
293197,2022-10-06_19h27.00.846,vts_reward_expectancy,2022.2.4,MacIntel,60.0024001,Chrome,1440,900,,,,,0,797,,,,,,,,,,,,,,,,,S,174,star,0,0,,,,,,,,,,,,,,,,repeat,number,NA,j,0.8417,Lo,,,,,,1,,,,,,,,high,12,0,12,0,1,,,,,,,,,
293197,2022-10-06_19h27.00.846,vts_reward_expectancy,2022.2.4,MacIntel,60.0024001,Chrome,1440,900,,,,,10,807,,,,,,,,,,,,,,,,,B,167,hexagon,1,1,,,,,,,,,,,,,,,,switch,letter,lettSwt,d,0.5651,Hi,,,,,,1,,,,,,,,high,13,0,13,0,1,,,,,,,,,
293197,2022-10-06_19h27.00.846,vts_reward_expectancy,2022.2.4,MacIntel,60.0024001,Chrome,1440,900,,,,,1,808,,,,,,,,,,,,,,,,,H,139,star,1,0,,,,,,,,,,,,,,,,repeat,letter,lettRpt,d,0.663,Lo,,,,,,1,,,,,,,,high,14,0,14,0,1,,,,,,,,,
293197,2022-10-06_19h27.00.846,vts_reward_expectancy,2022.2.4,MacIntel,60.0024001,Chrome,1440,900,,,,,0,808,,,,,,,,,,,,,,,,,F,160,hexagon,1,0,,,,,,,,,,,,,,,,repeat,letter,lettRpt,d,0.6907,Hi,,,,,,1,,,,,,,,high,15,0,15,0,1,,,,,,,,,
293197,2022-10-06_19h27.00.846,vts_reward_expectancy,2022.2.4,MacIntel,60.0024001,Chrome,1440,900,,,,,10,818,,,,,,,,,,,,,,,,,B,181,hexagon,1,0,,,,,,,,,,,,,,,,repeat,letter,lettRpt,d,0.5565,Hi,,,,,,1,,,,,,,,high,16,0,16,0,1,,,,,,,,,
293197,2022-10-06_19h27.00.846,vts_reward_expectancy,2022.2.4,MacIntel,60.0024001,Chrome,1440,900,,,,,1,819,,,,,,,,,,,,,,,,,H,125,star,1,0,,,,,,,,,,,,,,,,repeat,letter,lettRpt,d,0.7792,Lo,,,,,,1,,,,,,,,high,17,0,17,0,1,,,,,,,,,
293197,2022-10-06_19h27.00.846,vts_reward_expectancy,2022.2.4,MacIntel,60.0024001,Chrome,1440,900,,,,,10,829,,,,,,,,,,,,,,,,,D,146,hexagon,1,0,,,,,,,,,,,,,,,,repeat,letter,lettRpt,d,0.5311,Hi,,,,,,1,,,,,,,,high,18,0,18,0,1,,,,,,,,,
293197,2022-10-06_19h27.00.846,vts_reward_expectancy,2022.2.4,MacIntel,60.0024001,Chrome,1440,900,,,,,1,830,,,,,,,,,,,,,,,,,Y,139,star,1,0,,,,,,,,,,,,,,,,repeat,letter,lettRpt,f,0.5979,Lo,,,,,,1,,,,,,,,high,19,0,19,0,1,,,,,,,,,
293197,2022-10-06_19h27.00.846,vts_reward_expectancy,2022.2.4,MacIntel,60.0024001,Chrome,1440,900,,,,,0,830,,,,,,,,,,,,,,,,,U,167,hexagon,1,0,,,,,,,,,,,,,,,,repeat,letter,lettRpt,f,0.6915,Hi,,,,,,1,,,,,,,,high,20,0,20,0,1,,,,,,,,,
293197,2022-10-06_19h27.00.846,vts_reward_expectancy,2022.2.4,MacIntel,60.0024001,Chrome,1440,900,,,,,1,831,,,,,,,,,,,,,,,,,W,174,star,1,0,,,,,,,,,,,,,,,,switch,number,numSwt,k,0.9165,Lo,,,,,,1,,,,,,,,high,21,0,21,0,1,,,,,,,,,
293197,2022-10-06_19h27.00.846,vts_reward_expectancy,2022.2.4,MacIntel,60.0024001,Chrome,1440,900,,,,,1,832,,,,,,,,,,,,,,,,,F,160,star,1,0,,,,,,,,,,,,,,,,repeat,number,numRpt,k,0.5576,Lo,,,,,,1,,,,,,,,high,22,0,22,0,1,,,,,,,,,
293197,2022-10-06_19h27.00.846,vts_reward_expectancy,2022.2.4,MacIntel,60.0024001,Chrome,1440,900,,,,,10,842,,,,,,,,,,,,,,,,,S,132,hexagon,1,0,,,,,,,,,,,,,,,,repeat,number,numRpt,j,0.5698,Hi,,,,,,1,,,,,,,,high,23,0,23,0,1,,,,,,,,,
293197,2022-10-06_19h27.00.846,vts_reward_expectancy,2022.2.4,MacIntel,60.0024001,Chrome,1440,900,,,,,10,852,,,,,,,,,,,,,,,,,U,160,star,1,0,,,,,,,,,,,,,,,,repeat,number,numRpt,k,0.5296,Lo,,,,,,1,,,,,,,,high,24,0,24,0,1,,,,,,,,,
293197,2022-10-06_19h27.00.846,vts_reward_expectancy,2022.2.4,MacIntel,60.0024001,Chrome,1440,900,,,,,10,862,,,,,,,,,,,,,,,,,W,167,hexagon,1,0,,,,,,,,,,,,,,,,repeat,number,numRpt,k,0.6202,Hi,,,,,,1,,,,,,,,high,25,0,25,0,1,,,,,,,,,
293197,2022-10-06_19h27.00.846,vts_reward_expectancy,2022.2.4,MacIntel,60.0024001,Chrome,1440,900,,,,,1,863,,,,,,,,,,,,,,,,,H,125,star,1,0,,,,,,,,,,,,,,,,repeat,number,numRpt,j,0.6352,Lo,,,,,,1,,,,,,,,high,26,0,26,0,1,,,,,,,,,
293197,2022-10-06_19h27.00.846,vts_reward_expectancy,2022.2.4,MacIntel,60.0024001,Chrome,1440,900,,,,,10,873,,,,,,,,,,,,,,,,,S,174,hexagon,1,0,,,,,,,,,,,,,,,,repeat,number,numRpt,k,0.5302,Hi,,,,,,1,,,,,,,,high,27,0,27,0,1,,,,,,,,,
293197,2022-10-06_19h27.00.846,vts_reward_expectancy,2022.2.4,MacIntel,60.0024001,Chrome,1440,900,,,,,1,874,,,,,,,,,,,,,,,,,B,146,star,1,0,,,,,,,,,,,,,,,,repeat,number,numRpt,j,1.0811,Lo,,,,,,1,,,,,,,,high,28,0,28,0,1,,,,,,,,,
293197,2022-10-06_19h27.00.846,vts_reward_expectancy,2022.2.4,MacIntel,60.0024001,Chrome,1440,900,,,,,10,884,,,,,,,,,,,,,,,,,F,181,hexagon,1,0,,,,,,,,,,,,,,,,repeat,number,numRpt,k,0.5609,Hi,,,,,,1,,,,,,,,high,29,0,29,0,1,,,,,,,,,
293197,2022-10-06_19h27.00.846,vts_reward_expectancy,2022.2.4,MacIntel,60.0024001,Chrome,1440,900,,,,,10,894,,,,,,,,,,,,,,,,,Y,132,hexagon,1,0,,,,,,,,,,,,,,,,repeat,number,numRpt,j,0.4651,Hi,,,,,,1,,,,,,,,high,30,0,30,0,1,,,,,,,,,
293197,2022-10-06_19h27.00.846,vts_reward_expectancy,2022.2.4,MacIntel,60.0024001,Chrome,1440,900,,,,,1,895,,,,,,,,,,,,,,,,,D,139,star,1,0,,,,,,,,,,,,,,,,repeat,number,numRpt,j,0.6152,Lo,,,,,,1,,,,,,,,high,31,0,31,0,1,,,,,,,,,
293197,2022-10-06_19h27.00.846,vts_reward_expectancy,2022.2.4,MacIntel,60.0024001,Chrome,1440,900,,,,,1,896,,,,,,,,,,,,,,,,,S,181,star,1,0,,,,,,,,,,,,,,,,switch,letter,lettSwt,f,0.5858,Lo,,,,,,2,,,,,,space,4.7047,high,0,0,0,0,1,,,,,,,,,
293197,2022-10-06_19h27.00.846,vts_reward_expectancy,2022.2.4,MacIntel,60.0024001,Chrome,1440,900,,,,,0,896,,,,,,,,,,,,,,,,,D,125,hexagon,1,0,,,,,,,,,,,,,,,,repeat,letter,lettRpt,d,0.7558,Hi,,,,,,2,,,,,,,,high,1,0,1,0,1,,,,,,,,,
293197,2022-10-06_19h27.00.846,vts_reward_expectancy,2022.2.4,MacIntel,60.0024001,Chrome,1440,900,,,,,10,906,,,,,,,,,,,,,,,,,Y,174,star,1,0,,,,,,,,,,,,,,,,repeat,letter,lettRpt,f,0.6647,Lo,,,,,,2,,,,,,,,high,2,0,2,0,1,,,,,,,,,
293197,2022-10-06_19h27.00.846,vts_reward_expectancy,2022.2.4,MacIntel,60.0024001,Chrome,1440,900,,,,,10,916,,,,,,,,,,,,,,,,,H,160,hexagon,1,0,,,,,,,,,,,,,,,,repeat,letter,lettRpt,d,0.5392,Hi,,,,,,2,,,,,,,,high,3,0,3,0,1,,,,,,,,,
293197,2022-10-06_19h27.00.846,vts_reward_expectancy,2022.2.4,MacIntel,60.0024001,Chrome,1440,900,,,,,1,917,,,,,,,,,,,,,,,,,W,146,star,1,0,,,,,,,,,,,,,,,,repeat,letter,lettRpt,f,0.6802,Lo,,,,,,2,,,,,,,,high,4,0,4,0,1,,,,,,,,,
293197,2022-10-06_19h27.00.846,vts_reward_expectancy,2022.2.4,MacIntel,60.0024001,Chrome,1440,900,,,,,0,917,,,,,,,,,,,,,,,,,F,132,hexagon,1,0,,,,,,,,,,,,,,,,repeat,letter,lettRpt,d,0.6822,Hi,,,,,,2,,,,,,,,high,5,0,5,0,1,,,,,,,,,
293197,2022-10-06_19h27.00.846,vts_reward_expectancy,2022.2.4,MacIntel,60.0024001,Chrome,1440,900,,,,,10,927,,,,,,,,,,,,,,,,,B,139,hexagon,1,0,,,,,,,,,,,,,,,,repeat,letter,lettRpt,d,0.5737,Hi,,,,,,2,,,,,,,,high,6,0,6,0,1,,,,,,,,,
293197,2022-10-06_19h27.00.846,vts_reward_expectancy,2022.2.4,MacIntel,60.0024001,Chrome,1440,900,,,,,10,937,,,,,,,,,,,,,,,,,U,167,star,1,0,,,,,,,,,,,,,,,,switch,number,numSwt,k,0.4742,Lo,,,,,,2,,,,,,,,high,7,0,7,0,1,,,,,,,,,
293197,2022-10-06_19h27.00.846,vts_reward_expectancy,2022.2.4,MacIntel,60.0024001,Chrome,1440,900,,,,,10,947,,,,,,,,,,,,,,,,,S,181,hexagon,1,0,,,,,,,,,,,,,,,,repeat,number,numRpt,k,0.5309,Hi,,,,,,2,,,,,,,,high,8,0,8,0,1,,,,,,,,,
293197,2022-10-06_19h27.00.846,vts_reward_expectancy,2022.2.4,MacIntel,60.0024001,Chrome,1440,900,,,,,1,948,,,,,,,,,,,,,,,,,D,125,star,1,0,,,,,,,,,,,,,,,,repeat,number,numRpt,j,0.6325,Lo,,,,,,2,,,,,,,,high,9,0,9,0,1,,,,,,,,,
293197,2022-10-06_19h27.00.846,vts_reward_expectancy,2022.2.4,MacIntel,60.0024001,Chrome,1440,900,,,,,10,958,,,,,,,,,,,,,,,,,Y,174,hexagon,1,0,,,,,,,,,,,,,,,,repeat,number,numRpt,k,0.5292,Hi,,,,,,2,,,,,,,,high,10,0,10,0,1,,,,,,,,,
293197,2022-10-06_19h27.00.846,vts_reward_expectancy,2022.2.4,MacIntel,60.0024001,Chrome,1440,900,,,,,1,959,,,,,,,,,,,,,,,,,H,160,star,1,0,,,,,,,,,,,,,,,,repeat,number,numRpt,k,0.7631,Lo,,,,,,2,,,,,,,,high,11,0,11,0,1,,,,,,,,,
293197,2022-10-06_19h27.00.846,vts_reward_expectancy,2022.2.4,MacIntel,60.0024001,Chrome,1440,900,,,,,1,960,,,,,,,,,,,,,,,,,W,146,hexagon,1,0,,,,,,,,,,,,,,,,repeat,number,numRpt,j,0.5158,Hi,,,,,,2,,,,,,,,high,12,0,12,0,1,,,,,,,,,
293197,2022-10-06_19h27.00.846,vts_reward_expectancy,2022.2.4,MacIntel,60.0024001,Chrome,1440,900,,,,,0,960,,,,,,,,,,,,,,,,,F,132,star,0,0,,,,,,,,,,,,,,,,repeat,number,NA,k,0.6312,Hi,,,,,,2,,,,,,,,high,13,0,13,0,1,,,,,,,,,
293197,2022-10-06_19h27.00.846,vts_reward_expectancy,2022.2.4,MacIntel,60.0024001,Chrome,1440,900,,,,,10,970,,,,,,,,,,,,,,,,,B,139,hexagon,1,1,,,,,,,,,,,,,,,,repeat,number,numRpt,j,0.5057,Hi,,,,,,2,,,,,,,,high,14,0,14,0,1,,,,,,,,,
293197,2022-10-06_19h27.00.846,vts_reward_expectancy,2022.2.4,MacIntel,60.0024001,Chrome,1440,900,,,,,0,970,,,,,,,,,,,,,,,,,U,167,star,0,0,,,,,,,,,,,,,,,,repeat,number,NA,j,0.615,Hi,,,,,,2,,,,,,,,high,15,0,15,0,1,,,,,,,,,
293197,2022-10-06_19h27.00.846,vts_reward_expectancy,2022.2.4,MacIntel,60.0024001,Chrome,1440,900,,,,,0,970,,,,,,,,,,,,,,,,,S,160,hexagon,1,1,,,,,,,,,,,,,,,,repeat,number,numRpt,k,0.7859,Hi,,,,,,2,,,,,,,,high,16,0,16,0,1,,,,,,,,,
293197,2022-10-06_19h27.00.846,vts_reward_expectancy,2022.2.4,MacIntel,60.0024001,Chrome,1440,900,,,,,1,971,,,,,,,,,,,,,,,,,U,146,star,1,0,,,,,,,,,,,,,,,,repeat,number,numRpt,j,0.4986,Lo,,,,,,2,,,,,,,,high,17,0,17,0,1,,,,,,,,,
293197,2022-10-06_19h27.00.846,vts_reward_expectancy,2022.2.4,MacIntel,60.0024001,Chrome,1440,900,,,,,0,971,,,,,,,,,,,,,,,,,D,132,hexagon,1,0,,,,,,,,,,,,,,,,switch,letter,lettSwt,d,0.7972,Hi,,,,,,2,,,,,,,,high,18,0,18,0,1,,,,,,,,,
293197,2022-10-06_19h27.00.846,vts_reward_expectancy,2022.2.4,MacIntel,60.0024001,Chrome,1440,900,,,,,10,981,,,,,,,,,,,,,,,,,Y,174,star,1,0,,,,,,,,,,,,,,,,repeat,letter,lettRpt,f,0.5149,Lo,,,,,,2,,,,,,,,high,19,0,19,0,1,,,,,,,,,
293197,2022-10-06_19h27.00.846,vts_reward_expectancy,2022.2.4,MacIntel,60.0024001,Chrome,1440,900,,,,,1,982,,,,,,,,,,,,,,,,,B,139,star,1,0,,,,,,,,,,,,,,,,repeat,letter,lettRpt,d,0.3937,Lo,,,,,,2,,,,,,,,high,20,0,20,0,1,,,,,,,,,
293197,2022-10-06_19h27.00.846,vts_reward_expectancy,2022.2.4,MacIntel,60.0024001,Chrome,1440,900,,,,,10,992,,,,,,,,,,,,,,,,,F,125,hexagon,1,0,,,,,,,,,,,,,,,,repeat,letter,lettRpt,d,0.5694,Hi,,,,,,2,,,,,,,,high,21,0,21,0,1,,,,,,,,,
293197,2022-10-06_19h27.00.846,vts_reward_expectancy,2022.2.4,MacIntel,60.0024001,Chrome,1440,900,,,,,1,993,,,,,,,,,,,,,,,,,W,167,star,1,0,,,,,,,,,,,,,,,,switch,number,numSwt,k,0.5444,Lo,,,,,,2,,,,,,,,high,22,0,22,0,1,,,,,,,,,
293197,2022-10-06_19h27.00.846,vts_reward_expectancy,2022.2.4,MacIntel,60.0024001,Chrome,1440,900,,,,,10,1003,,,,,,,,,,,,,,,,,H,181,hexagon,1,0,,,,,,,,,,,,,,,,repeat,number,numRpt,k,0.5353,Hi,,,,,,2,,,,,,,,high,23,0,23,0,1,,,,,,,,,
293197,2022-10-06_19h27.00.846,vts_reward_expectancy,2022.2.4,MacIntel,60.0024001,Chrome,1440,900,,,,,10,1013,,,,,,,,,,,,,,,,,U,174,star,1,0,,,,,,,,,,,,,,,,repeat,number,numRpt,k,0.4976,Lo,,,,,,2,,,,,,,,high,24,0,24,0,1,,,,,,,,,
293197,2022-10-06_19h27.00.846,vts_reward_expectancy,2022.2.4,MacIntel,60.0024001,Chrome,1440,900,,,,,10,1023,,,,,,,,,,,,,,,,,S,181,hexagon,1,0,,,,,,,,,,,,,,,,switch,letter,lettSwt,f,0.4652,Hi,,,,,,2,,,,,,,,high,25,0,25,0,1,,,,,,,,,
293197,2022-10-06_19h27.00.846,vts_reward_expectancy,2022.2.4,MacIntel,60.0024001,Chrome,1440,900,,,,,1,1024,,,,,,,,,,,,,,,,,H,139,star,1,0,,,,,,,,,,,,,,,,repeat,letter,lettRpt,d,0.5971,Lo,,,,,,2,,,,,,,,high,26,0,26,0,1,,,,,,,,,
293197,2022-10-06_19h27.00.846,vts_reward_expectancy,2022.2.4,MacIntel,60.0024001,Chrome,1440,900,,,,,10,1034,,,,,,,,,,,,,,,,,B,160,hexagon,1,0,,,,,,,,,,,,,,,,repeat,letter,lettRpt,d,0.4623,Hi,,,,,,2,,,,,,,,high,27,0,27,0,1,,,,,,,,,
293197,2022-10-06_19h27.00.846,vts_reward_expectancy,2022.2.4,MacIntel,60.0024001,Chrome,1440,900,,,,,10,1044,,,,,,,,,,,,,,,,,W,132,hexagon,1,0,,,,,,,,,,,,,,,,repeat,letter,lettRpt,f,0.4533,Hi,,,,,,2,,,,,,,,high,28,0,28,0,1,,,,,,,,,
293197,2022-10-06_19h27.00.846,vts_reward_expectancy,2022.2.4,MacIntel,60.0024001,Chrome,1440,900,,,,,1,1045,,,,,,,,,,,,,,,,,Y,146,star,1,0,,,,,,,,,,,,,,,,repeat,letter,lettRpt,f,0.4978,Lo,,,,,,2,,,,,,,,high,29,0,29,0,1,,,,,,,,,
293197,2022-10-06_19h27.00.846,vts_reward_expectancy,2022.2.4,MacIntel,60.0024001,Chrome,1440,900,,,,,1,1046,,,,,,,,,,,,,,,,,D,125,star,1,0,,,,,,,,,,,,,,,,switch,number,numSwt,j,0.7977,Lo,,,,,,2,,,,,,,,high,30,0,30,0,1,,,,,,,,,
293197,2022-10-06_19h27.00.846,vts_reward_expectancy,2022.2.4,MacIntel,60.0024001,Chrome,1440,900,,,,,1,1047,,,,,,,,,,,,,,,,,F,167,hexagon,1,0,,,,,,,,,,,,,,,,repeat,number,numRpt,k,0.4852,Hi,,,,,,2,,,,,,,,high,31,0,31,0,1,,,,,,,,,
293197,2022-10-06_19h27.00.846,vts_reward_expectancy,2022.2.4,MacIntel,60.0024001,Chrome,1440,900,,,,,10,1057,,,,,,,,,,,,,,,,,W,139,triangle,1,0,,,,,,,,,,,,,,,,switch,letter,lettSwt,f,0.5494,Lo,,,,,,3,,,,,,space,1.7123,low,0,0,0,0,1,,,,,,,,,
293197,2022-10-06_19h27.00.846,vts_reward_expectancy,2022.2.4,MacIntel,60.0024001,Chrome,1440,900,,,,,10,1067,,,,,,,,,,,,,,,,,H,125,circle,1,0,,,,,,,,,,,,,,,,repeat,letter,lettRpt,d,0.414,Hi,,,,,,3,,,,,,,,low,1,0,1,0,1,,,,,,,,,
293197,2022-10-06_19h27.00.846,vts_reward_expectancy,2022.2.4,MacIntel,60.0024001,Chrome,1440,900,,,,,1,1068,,,,,,,,,,,,,,,,,S,146,triangle,1,0,,,,,,,,,,,,,,,,repeat,letter,lettRpt,f,0.6639,Lo,,,,,,3,,,,,,,,low,2,0,2,0,1,,,,,,,,,
293197,2022-10-06_19h27.00.846,vts_reward_expectancy,2022.2.4,MacIntel,60.0024001,Chrome,1440,900,,,,,1,1069,,,,,,,,,,,,,,,,,B,132,circle,1,0,,,,,,,,,,,,,,,,repeat,letter,lettRpt,d,0.4351,Hi,,,,,,3,,,,,,,,low,3,0,3,0,1,,,,,,,,,
293197,2022-10-06_19h27.00.846,vts_reward_expectancy,2022.2.4,MacIntel,60.0024001,Chrome,1440,900,,,,,1,1070,,,,,,,,,,,,,,,,,Y,174,triangle,1,0,,,,,,,,,,,,,,,,switch,number,numSwt,k,0.4241,Lo,,,,,,3,,,,,,,,low,4,0,4,0,1,,,,,,,,,
293197,2022-10-06_19h27.00.846,vts_reward_expectancy,2022.2.4,MacIntel,60.0024001,Chrome,1440,900,,,,,0,1070,,,,,,,,,,,,,,,,,D,181,circle,1,0,,,,,,,,,,,,,,,,repeat,number,numRpt,k,0.7689,Hi,,,,,,3,,,,,,,,low,5,0,5,0,1,,,,,,,,,
293197,2022-10-06_19h27.00.846,vts_reward_expectancy,2022.2.4,MacIntel,60.0024001,Chrome,1440,900,,,,,0,1070,,,,,,,,,,,,,,,,,F,167,circle,1,0,,,,,,,,,,,,,,,,repeat,number,numRpt,k,0.5643,Hi,,,,,,3,,,,,,,,low,6,0,6,0,1,,,,,,,,,
293197,2022-10-06_19h27.00.846,vts_reward_expectancy,2022.2.4,MacIntel,60.0024001,Chrome,1440,900,,,,,10,1080,,,,,,,,,,,,,,,,,U,160,triangle,1,0,,,,,,,,,,,,,,,,repeat,number,numRpt,k,0.4144,Lo,,,,,,3,,,,,,,,low,7,0,7,0,1,,,,,,,,,
293197,2022-10-06_19h27.00.846,vts_reward_expectancy,2022.2.4,MacIntel,60.0024001,Chrome,1440,900,,,,,1,1081,,,,,,,,,,,,,,,,,W,139,circle,1,0,,,,,,,,,,,,,,,,switch,letter,lettSwt,f,0.4293,Hi,,,,,,3,,,,,,,,low,8,0,8,0,1,,,,,,,,,
293197,2022-10-06_19h27.00.846,vts_reward_expectancy,2022.2.4,MacIntel,60.0024001,Chrome,1440,900,,,,,0,1081,,,,,,,,,,,,,,,,,H,125,triangle,0,0,,,,,,,,,,,,,,,,repeat,letter,NA,f,0.42,Hi,,,,,,3,,,,,,,,low,9,0,9,0,1,,,,,,,,,
293197,2022-10-06_19h27.00.846,vts_reward_expectancy,2022.2.4,MacIntel,60.0024001,Chrome,1440,900,,,,,10,1091,,,,,,,,,,,,,,,,,S,146,triangle,1,1,,,,,,,,,,,,,,,,repeat,letter,lettRpt,f,0.4136,Lo,,,,,,3,,,,,,,,low,10,0,10,0,1,,,,,,,,,
293197,2022-10-06_19h27.00.846,vts_reward_expectancy,2022.2.4,MacIntel,60.0024001,Chrome,1440,900,,,,,1,1092,,,,,,,,,,,,,,,,,B,132,circle,1,0,,,,,,,,,,,,,,,,repeat,letter,lettRpt,d,0.3901,Hi,,,,,,3,,,,,,,,low,11,0,11,0,1,,,,,,,,,
293197,2022-10-06_19h27.00.846,vts_reward_expectancy,2022.2.4,MacIntel,60.0024001,Chrome,1440,900,,,,,10,1102,,,,,,,,,,,,,,,,,Y,174,triangle,1,0,,,,,,,,,,,,,,,,repeat,letter,lettRpt,f,0.5958,Lo,,,,,,3,,,,,,,,low,12,0,12,0,1,,,,,,,,,
293197,2022-10-06_19h27.00.846,vts_reward_expectancy,2022.2.4,MacIntel,60.0024001,Chrome,1440,900,,,,,10,1112,,,,,,,,,,,,,,,,,D,181,circle,1,0,,,,,,,,,,,,,,,,switch,number,numSwt,k,0.4507,Hi,,,,,,3,,,,,,,,low,13,0,13,0,1,,,,,,,,,
293197,2022-10-06_19h27.00.846,vts_reward_expectancy,2022.2.4,MacIntel,60.0024001,Chrome,1440,900,,,,,0,1112,,,,,,,,,,,,,,,,,F,167,circle,0,0,,,,,,,,,,,,,,,,repeat,number,NA,j,0.9,Hi,,,,,,3,,,,,,,,low,14,0,14,0,1,,,,,,,,,
293197,2022-10-06_19h27.00.846,vts_reward_expectancy,2022.2.4,MacIntel,60.0024001,Chrome,1440,900,,,,,1,1113,,,,,,,,,,,,,,,,,U,160,triangle,1,1,,,,,,,,,,,,,,,,repeat,number,numRpt,k,0.6299,Lo,,,,,,3,,,,,,,,low,15,0,15,0,1,,,,,,,,,
293197,2022-10-06_19h27.00.846,vts_reward_expectancy,2022.2.4,MacIntel,60.0024001,Chrome,1440,900,,,,,0,1113,,,,,,,,,,,,,,,,,B,181,circle,1,0,,,,,,,,,,,,,,,,switch,letter,lettSwt,d,0.6071,Hi,,,,,,3,,,,,,,,low,16,0,16,0,1,,,,,,,,,
293197,2022-10-06_19h27.00.846,vts_reward_expectancy,2022.2.4,MacIntel,60.0024001,Chrome,1440,900,,,,,10,1123,,,,,,,,,,,,,,,,,H,174,triangle,1,0,,,,,,,,,,,,,,,,repeat,letter,lettRpt,d,0.5386,Lo,,,,,,3,,,,,,,,low,17,0,17,0,1,,,,,,,,,
293197,2022-10-06_19h27.00.846,vts_reward_expectancy,2022.2.4,MacIntel,60.0024001,Chrome,1440,900,,,,,10,1133,,,,,,,,,,,,,,,,,Y,146,triangle,1,0,,,,,,,,,,,,,,,,repeat,letter,lettRpt,f,0.631,Lo,,,,,,3,,,,,,,,low,18,0,18,0,1,,,,,,,,,
293197,2022-10-06_19h27.00.846,vts_reward_expectancy,2022.2.4,MacIntel,60.0024001,Chrome,1440,900,,,,,0,1133,,,,,,,,,,,,,,,,,F,132,circle,1,0,,,,,,,,,,,,,,,,repeat,letter,lettRpt,d,0.539,Hi,,,,,,3,,,,,,,,low,19,0,19,0,1,,,,,,,,,
293197,2022-10-06_19h27.00.846,vts_reward_expectancy,2022.2.4,MacIntel,60.0024001,Chrome,1440,900,,,,,0,1133,,,,,,,,,,,,,,,,,U,139,circle,1,0,,,,,,,,,,,,,,,,repeat,letter,lettRpt,f,0.6086,Hi,,,,,,3,,,,,,,,low,20,0,20,0,1,,,,,,,,,
293197,2022-10-06_19h27.00.846,vts_reward_expectancy,2022.2.4,MacIntel,60.0024001,Chrome,1440,900,,,,,1,1134,,,,,,,,,,,,,,,,,D,160,triangle,1,0,,,,,,,,,,,,,,,,repeat,letter,lettRpt,d,0.4907,Lo,,,,,,3,,,,,,,,low,21,0,21,0,1,,,,,,,,,
293197,2022-10-06_19h27.00.846,vts_reward_expectancy,2022.2.4,MacIntel,60.0024001,Chrome,1440,900,,,,,10,1144,,,,,,,,,,,,,,,,,W,167,triangle,1,0,,,,,,,,,,,,,,,,switch,number,numSwt,k,0.4597,Lo,,,,,,3,,,,,,,,low,22,0,22,0,1,,,,,,,,,
293197,2022-10-06_19h27.00.846,vts_reward_expectancy,2022.2.4,MacIntel,60.0024001,Chrome,1440,900,,,,,0,1144,,,,,,,,,,,,,,,,,S,125,circle,1,0,,,,,,,,,,,,,,,,repeat,number,numRpt,j,0.5227,Hi,,,,,,3,,,,,,,,low,23,0,23,0,1,,,,,,,,,
293197,2022-10-06_19h27.00.846,vts_reward_expectancy,2022.2.4,MacIntel,60.0024001,Chrome,1440,900,,,,,0,1144,,,,,,,,,,,,,,,,,B,181,circle,1,0,,,,,,,,,,,,,,,,repeat,number,numRpt,k,0.5645,Hi,,,,,,3,,,,,,,,low,24,0,24,0,1,,,,,,,,,
293197,2022-10-06_19h27.00.846,vts_reward_expectancy,2022.2.4,MacIntel,60.0024001,Chrome,1440,900,,,,,1,1145,,,,,,,,,,,,,,,,,S,146,triangle,1,0,,,,,,,,,,,,,,,,switch,letter,lettSwt,f,0.5202,Lo,,,,,,3,,,,,,,,low,25,0,25,0,1,,,,,,,,,
293197,2022-10-06_19h27.00.846,vts_reward_expectancy,2022.2.4,MacIntel,60.0024001,Chrome,1440,900,,,,,10,1155,,,,,,,,,,,,,,,,,D,139,triangle,1,0,,,,,,,,,,,,,,,,repeat,letter,lettRpt,d,0.4642,Lo,,,,,,3,,,,,,,,low,26,0,26,0,1,,,,,,,,,
293197,2022-10-06_19h27.00.846,vts_reward_expectancy,2022.2.4,MacIntel,60.0024001,Chrome,1440,900,,,,,10,1165,,,,,,,,,,,,,,,,,U,167,circle,1,0,,,,,,,,,,,,,,,,repeat,letter,lettRpt,f,0.5005,Hi,,,,,,3,,,,,,,,low,27,0,27,0,1,,,,,,,,,
293197,2022-10-06_19h27.00.846,vts_reward_expectancy,2022.2.4,MacIntel,60.0024001,Chrome,1440,900,,,,,0,1165,,,,,,,,,,,,,,,,,Y,160,circle,1,0,,,,,,,,,,,,,,,,repeat,letter,lettRpt,f,0.5786,Hi,,,,,,3,,,,,,,,low,28,0,28,0,1,,,,,,,,,
293197,2022-10-06_19h27.00.846,vts_reward_expectancy,2022.2.4,MacIntel,60.0024001,Chrome,1440,900,,,,,10,1175,,,,,,,,,,,,,,,,,F,132,triangle,1,0,,,,,,,,,,,,,,,,switch,number,numSwt,j,0.5391,Lo,,,,,,3,,,,,,,,low,29,0,29,0,1,,,,,,,,,
293197,2022-10-06_19h27.00.846,vts_reward_expectancy,2022.2.4,MacIntel,60.0024001,Chrome,1440,900,,,,,1,1176,,,,,,,,,,,,,,,,,H,125,triangle,1,0,,,,,,,,,,,,,,,,repeat,number,numRpt,j,0.4677,Lo,,,,,,3,,,,,,,,low,30,0,30,0,1,,,,,,,,,
293197,2022-10-06_19h27.00.846,vts_reward_expectancy,2022.2.4,MacIntel,60.0024001,Chrome,1440,900,,,,,1,1177,,,,,,,,,,,,,,,,,W,174,circle,1,0,,,,,,,,,,,,,,,,repeat,number,numRpt,k,0.4462,Hi,,,,,,3,,,,,,,,low,31,0,31,0,1,,,,,,,,,
293197,2022-10-06_19h27.00.846,vts_reward_expectancy,2022.2.4,MacIntel,60.0024001,Chrome,1440,900,,,,,0,1177,,,,,,,,,,,,,,,,,U,160,hexagon,1,0,,,,,,,,,,,,,,,,switch,letter,lettSwt,f,0.6145,Hi,,,,,,4,,,,,,space,0.7971,high,0,0,0,0,1,,,,,,,,,
293197,2022-10-06_19h27.00.846,vts_reward_expectancy,2022.2.4,MacIntel,60.0024001,Chrome,1440,900,,,,,0,1177,,,,,,,,,,,,,,,,,W,146,star,0,0,,,,,,,,,,,,,,,,switch,number,NA,k,0.4928,Hi,,,,,,4,,,,,,,,high,1,0,1,0,1,,,,,,,,,
293197,2022-10-06_19h27.00.846,vts_reward_expectancy,2022.2.4,MacIntel,60.0024001,Chrome,1440,900,,,,,10,1187,,,,,,,,,,,,,,,,,B,174,hexagon,1,1,,,,,,,,,,,,,,,,repeat,number,numRpt,k,0.4646,Hi,,,,,,4,,,,,,,,high,2,0,2,0,1,,,,,,,,,
293197,2022-10-06_19h27.00.846,vts_reward_expectancy,2022.2.4,MacIntel,60.0024001,Chrome,1440,900,,,,,1,1188,,,,,,,,,,,,,,,,,S,132,star,1,0,,,,,,,,,,,,,,,,repeat,number,numRpt,j,0.441,Lo,,,,,,4,,,,,,,,high,3,0,3,0,1,,,,,,,,,
293197,2022-10-06_19h27.00.846,vts_reward_expectancy,2022.2.4,MacIntel,60.0024001,Chrome,1440,900,,,,,1,1189,,,,,,,,,,,,,,,,,Y,139,star,1,0,,,,,,,,,,,,,,,,repeat,number,numRpt,j,0.4394,Lo,,,,,,4,,,,,,,,high,4,0,4,0,1,,,,,,,,,
293197,2022-10-06_19h27.00.846,vts_reward_expectancy,2022.2.4,MacIntel,60.0024001,Chrome,1440,900,,,,,0,1189,,,,,,,,,,,,,,,,,H,167,hexagon,1,0,,,,,,,,,,,,,,,,repeat,number,numRpt,k,0.522,Hi,,,,,,4,,,,,,,,high,5,0,5,0,1,,,,,,,,,
293197,2022-10-06_19h27.00.846,vts_reward_expectancy,2022.2.4,MacIntel,60.0024001,Chrome,1440,900,,,,,10,1199,,,,,,,,,,,,,,,,,F,125,star,1,0,,,,,,,,,,,,,,,,switch,letter,lettSwt,d,0.6476,Lo,,,,,,4,,,,,,,,high,6,0,6,0,1,,,,,,,,,
293197,2022-10-06_19h27.00.846,vts_reward_expectancy,2022.2.4,MacIntel,60.0024001,Chrome,1440,900,,,,,0,1199,,,,,,,,,,,,,,,,,D,181,hexagon,1,0,,,,,,,,,,,,,,,,repeat,letter,lettRpt,d,0.5342,Hi,,,,,,4,,,,,,,,high,7,0,7,0,1,,,,,,,,,
293197,2022-10-06_19h27.00.846,vts_reward_expectancy,2022.2.4,MacIntel,60.0024001,Chrome,1440,900,,,,,0,1199,,,,,,,,,,,,,,,,,U,160,hexagon,1,0,,,,,,,,,,,,,,,,switch,number,numSwt,k,0.4689,Hi,,,,,,4,,,,,,,,high,8,0,8,0,1,,,,,,,,,
293197,2022-10-06_19h27.00.846,vts_reward_expectancy,2022.2.4,MacIntel,60.0024001,Chrome,1440,900,,,,,1,1200,,,,,,,,,,,,,,,,,W,146,star,1,0,,,,,,,,,,,,,,,,switch,letter,lettSwt,f,0.4509,Lo,,,,,,4,,,,,,,,high,9,0,9,0,1,,,,,,,,,
293197,2022-10-06_19h27.00.846,vts_reward_expectancy,2022.2.4,MacIntel,60.0024001,Chrome,1440,900,,,,,0,1200,,,,,,,,,,,,,,,,,B,174,hexagon,1,0,,,,,,,,,,,,,,,,repeat,letter,lettRpt,d,0.4899,Hi,,,,,,4,,,,,,,,high,10,0,10,0,1,,,,,,,,,
293197,2022-10-06_19h27.00.846,vts_reward_expectancy,2022.2.4,MacIntel,60.0024001,Chrome,1440,900,,,,,0,1200,,,,,,,,,,,,,,,,,S,132,star,0,0,,,,,,,,,,,,,,,,switch,number,NA,k,0.4465,Hi,,,,,,4,,,,,,,,high,11,0,11,0,1,,,,,,,,,
293197,2022-10-06_19h27.00.846,vts_reward_expectancy,2022.2.4,MacIntel,60.0024001,Chrome,1440,900,,,,,0,1200,,,,,,,,,,,,,,,,,Y,139,hexagon,1,1,,,,,,,,,,,,,,,,repeat,number,numRpt,j,0.6584,Hi,,,,,,4,,,,,,,,high,12,0,12,0,1,,,,,,,,,
293197,2022-10-06_19h27.00.846,vts_reward_expectancy,2022.2.4,MacIntel,60.0024001,Chrome,1440,900,,,,,1,1201,,,,,,,,,,,,,,,,,H,167,star,1,0,,,,,,,,,,,,,,,,switch,letter,lettSwt,d,0.5611,Lo,,,,,,4,,,,,,,,high,13,0,13,0,1,,,,,,,,,
293197,2022-10-06_19h27.00.846,vts_reward_expectancy,2022.2.4,MacIntel,60.0024001,Chrome,1440,900,,,,,1,1202,,,,,,,,,,,,,,,,,F,125,star,1,0,,,,,,,,,,,,,,,,repeat,letter,lettRpt,d,0.547,Lo,,,,,,4,,,,,,,,high,14,0,14,0,1,,,,,,,,,
293197,2022-10-06_19h27.00.846,vts_reward_expectancy,2022.2.4,MacIntel,60.0024001,Chrome,1440,900,,,,,10,1212,,,,,,,,,,,,,,,,,D,181,hexagon,1,0,,,,,,,,,,,,,,,,repeat,letter,lettRpt,d,0.4227,Hi,,,,,,4,,,,,,,,high,15,0,15,0,1,,,,,,,,,
293197,2022-10-06_19h27.00.846,vts_reward_expectancy,2022.2.4,MacIntel,60.0024001,Chrome,1440,900,,,,,0,1212,,,,,,,,,,,,,,,,,F,125,hexagon,1,0,,,,,,,,,,,,,,,,repeat,letter,lettRpt,d,0.4934,Hi,,,,,,4,,,,,,,,high,16,0,16,0,1,,,,,,,,,
293197,2022-10-06_19h27.00.846,vts_reward_expectancy,2022.2.4,MacIntel,60.0024001,Chrome,1440,900,,,,,0,1212,,,,,,,,,,,,,,,,,W,146,star,0,0,,,,,,,,,,,,,,,,switch,number,NA,k,0.6006,Hi,,,,,,4,,,,,,,,high,17,0,17,0,1,,,,,,,,,
293197,2022-10-06_19h27.00.846,vts_reward_expectancy,2022.2.4,MacIntel,60.0024001,Chrome,1440,900,,,,,1,1213,,,,,,,,,,,,,,,,,U,174,star,1,1,,,,,,,,,,,,,,,,repeat,number,numRpt,k,0.5248,Lo,,,,,,4,,,,,,,,high,18,0,18,0,1,,,,,,,,,
293197,2022-10-06_19h27.00.846,vts_reward_expectancy,2022.2.4,MacIntel,60.0024001,Chrome,1440,900,,,,,0,1213,,,,,,,,,,,,,,,,,S,181,hexagon,1,0,,,,,,,,,,,,,,,,repeat,number,numRpt,k,0.6127,Hi,,,,,,4,,,,,,,,high,19,0,19,0,1,,,,,,,,,
293197,2022-10-06_19h27.00.846,vts_reward_expectancy,2022.2.4,MacIntel,60.0024001,Chrome,1440,900,,,,,0,1213,,,,,,,,,,,,,,,,,D,139,hexagon,1,0,,,,,,,,,,,,,,,,switch,letter,lettSwt,d,0.6017,Hi,,,,,,4,,,,,,,,high,20,0,20,0,1,,,,,,,,,
293197,2022-10-06_19h27.00.846,vts_reward_expectancy,2022.2.4,MacIntel,60.0024001,Chrome,1440,900,,,,,1,1214,,,,,,,,,,,,,,,,,B,132,star,1,0,,,,,,,,,,,,,,,,repeat,letter,lettRpt,d,0.5808,Lo,,,,,,4,,,,,,,,high,21,0,21,0,1,,,,,,,,,
293197,2022-10-06_19h27.00.846,vts_reward_expectancy,2022.2.4,MacIntel,60.0024001,Chrome,1440,900,,,,,0,1214,,,,,,,,,,,,,,,,,Y,160,star,0,0,,,,,,,,,,,,,,,,repeat,letter,NA,d,0.4491,Lo,,,,,,4,,,,,,,,high,22,0,22,0,1,,,,,,,,,
293197,2022-10-06_19h27.00.846,vts_reward_expectancy,2022.2.4,MacIntel,60.0024001,Chrome,1440,900,,,,,10,1224,,,,,,,,,,,,,,,,,H,167,hexagon,1,1,,,,,,,,,,,,,,,,repeat,letter,lettRpt,d,0.461,Hi,,,,,,4,,,,,,,,high,23,0,23,0,1,,,,,,,,,
293197,2022-10-06_19h27.00.846,vts_reward_expectancy,2022.2.4,MacIntel,60.0024001,Chrome,1440,900,,,,,0,1224,,,,,,,,,,,,,,,,,S,181,hexagon,1,0,,,,,,,,,,,,,,,,switch,number,numSwt,k,0.5157,Hi,,,,,,4,,,,,,,,high,24,0,24,0,1,,,,,,,,,
293197,2022-10-06_19h27.00.846,vts_reward_expectancy,2022.2.4,MacIntel,60.0024001,Chrome,1440,900,,,,,1,1225,,,,,,,,,,,,,,,,,H,174,star,1,0,,,,,,,,,,,,,,,,switch,letter,lettSwt,d,0.3548,Lo,,,,,,4,,,,,,,,high,25,0,25,0,1,,,,,,,,,
293197,2022-10-06_19h27.00.846,vts_reward_expectancy,2022.2.4,MacIntel,60.0024001,Chrome,1440,900,,,,,1,1226,,,,,,,,,,,,,,,,,D,132,star,1,0,,,,,,,,,,,,,,,,repeat,letter,lettRpt,d,0.4463,Lo,,,,,,4,,,,,,,,high,26,0,26,0,1,,,,,,,,,
293197,2022-10-06_19h27.00.846,vts_reward_expectancy,2022.2.4,MacIntel,60.0024001,Chrome,1440,900,,,,,0,1226,,,,,,,,,,,,,,,,,Y,167,hexagon,1,0,,,,,,,,,,,,,,,,repeat,letter,lettRpt,f,0.5139,Hi,,,,,,4,,,,,,,,high,27,0,27,0,1,,,,,,,,,
293197,2022-10-06_19h27.00.846,vts_reward_expectancy,2022.2.4,MacIntel,60.0024001,Chrome,1440,900,,,,,10,1236,,,,,,,,,,,,,,,,,F,139,star,1,0,,,,,,,,,,,,,,,,switch,number,numSwt,j,0.561,Lo,,,,,,4,,,,,,,,high,28,0,28,0,1,,,,,,,,,
293197,2022-10-06_19h27.00.846,vts_reward_expectancy,2022.2.4,MacIntel,60.0024001,Chrome,1440,900,,,,,0,1236,,,,,,,,,,,,,,,,,W,160,hexagon,1,0,,,,,,,,,,,,,,,,repeat,number,numRpt,k,0.5234,Hi,,,,,,4,,,,,,,,high,29,0,29,0,1,,,,,,,,,
293197,2022-10-06_19h27.00.846,vts_reward_expectancy,2022.2.4,MacIntel,60.0024001,Chrome,1440,900,,,,,0,1236,,,,,,,,,,,,,,,,,U,125,hexagon,1,0,,,,,,,,,,,,,,,,switch,letter,lettSwt,f,0.7422,Hi,,,,,,4,,,,,,,,high,30,0,30,0,1,,,,,,,,,
293197,2022-10-06_19h27.00.846,vts_reward_expectancy,2022.2.4,MacIntel,60.0024001,Chrome,1440,900,,,,,1,1237,,,,,,,,,,,,,,,,,B,146,star,1,0,,,,,,,,,,,,,,,,switch,number,numSwt,j,0.5059,Lo,,,,,,4,,,,,,,,high,31,0,31,0,1,,,,,,,,,
293197,2022-10-06_19h27.00.846,vts_reward_expectancy,2022.2.4,MacIntel,60.0024001,Chrome,1440,900,,,,,1,1238,,,,,,,,,,,,,,,,,Y,139,triangle,1,0,,,,,,,,,,,,,,,,switch,letter,lettSwt,f,0.6299,Lo,,,,,,5,,,,,,space,2.2556,low,0,0,0,0,1,,,,,,,,,
293197,2022-10-06_19h27.00.846,vts_reward_expectancy,2022.2.4,MacIntel,60.0024001,Chrome,1440,900,,,,,0,1238,,,,,,,,,,,,,,,,,H,181,circle,1,0,,,,,,,,,,,,,,,,repeat,letter,lettRpt,d,0.6156,Hi,,,,,,5,,,,,,,,low,1,0,1,0,1,,,,,,,,,
293197,2022-10-06_19h27.00.846,vts_reward_expectancy,2022.2.4,MacIntel,60.0024001,Chrome,1440,900,,,,,1,1239,,,,,,,,,,,,,,,,,B,167,triangle,1,0,,,,,,,,,,,,,,,,switch,number,numSwt,k,0.6022,Lo,,,,,,5,,,,,,,,low,2,0,2,0,1,,,,,,,,,
293197,2022-10-06_19h27.00.846,vts_reward_expectancy,2022.2.4,MacIntel,60.0024001,Chrome,1440,900,,,,,0,1239,,,,,,,,,,,,,,,,,W,132,circle,1,0,,,,,,,,,,,,,,,,repeat,number,numRpt,j,0.4982,Hi,,,,,,5,,,,,,,,low,3,0,3,0,1,,,,,,,,,
293197,2022-10-06_19h27.00.846,vts_reward_expectancy,2022.2.4,MacIntel,60.0024001,Chrome,1440,900,,,,,10,1249,,,,,,,,,,,,,,,,,F,160,triangle,1,0,,,,,,,,,,,,,,,,repeat,number,numRpt,k,0.6926,Lo,,,,,,5,,,,,,,,low,4,0,4,0,1,,,,,,,,,
293197,2022-10-06_19h27.00.846,vts_reward_expectancy,2022.2.4,MacIntel,60.0024001,Chrome,1440,900,,,,,1,1250,,,,,,,,,,,,,,,,,S,125,circle,1,0,,,,,,,,,,,,,,,,repeat,number,numRpt,j,0.3992,Hi,,,,,,5,,,,,,,,low,5,0,5,0,1,,,,,,,,,
293197,2022-10-06_19h27.00.846,vts_reward_expectancy,2022.2.4,MacIntel,60.0024001,Chrome,1440,900,,,,,0,1250,,,,,,,,,,,,,,,,,D,146,circle,0,0,,,,,,,,,,,,,,,,repeat,number,NA,k,0.5812,Hi,,,,,,5,,,,,,,,low,6,0,6,0,1,,,,,,,,,
293197,2022-10-06_19h27.00.846,vts_reward_expectancy,2022.2.4,MacIntel,60.0024001,Chrome,1440,900,,,,,0,1250,,,,,,,,,,,,,,,,,U,174,triangle,0,1,,,,,,,,,,,,,,,,repeat,number,NA,j,0.6618,Hi,,,,,,5,,,,,,,,low,7,0,7,0,1,,,,,,,,,
293197,2022-10-06_19h27.00.846,vts_reward_expectancy,2022.2.4,MacIntel,60.0024001,Chrome,1440,900,,,,,10,1260,,,,,,,,,,,,,,,,,Y,139,triangle,1,1,,,,,,,,,,,,,,,,repeat,number,numRpt,j,0.5799,Lo,,,,,,5,,,,,,,,low,8,0,8,0,1,,,,,,,,,
293197,2022-10-06_19h27.00.846,vts_reward_expectancy,2022.2.4,MacIntel,60.0024001,Chrome,1440,900,,,,,0,1260,,,,,,,,,,,,,,,,,H,181,circle,1,0,,,,,,,,,,,,,,,,repeat,number,numRpt,k,0.5747,Hi,,,,,,5,,,,,,,,low,9,0,9,0,1,,,,,,,,,
293197,2022-10-06_19h27.00.846,vts_reward_expectancy,2022.2.4,MacIntel,60.0024001,Chrome,1440,900,,,,,1,1261,,,,,,,,,,,,,,,,,B,167,triangle,1,0,,,,,,,,,,,,,,,,switch,letter,lettSwt,d,0.6741,Lo,,,,,,5,,,,,,,,low,10,0,10,0,1,,,,,,,,,
293197,2022-10-06_19h27.00.846,vts_reward_expectancy,2022.2.4,MacIntel,60.0024001,Chrome,1440,900,,,,,0,1261,,,,,,,,,,,,,,,,,W,132,circle,1,0,,,,,,,,,,,,,,,,repeat,letter,lettRpt,f,0.5207,Hi,,,,,,5,,,,,,,,low,11,0,11,0,1,,,,,,,,,
293197,2022-10-06_19h27.00.846,vts_reward_expectancy,2022.2.4,MacIntel,60.0024001,Chrome,1440,900,,,,,1,1262,,,,,,,,,,,,,,,,,F,160,circle,1,0,,,,,,,,,,,,,,,,switch,number,numSwt,k,0.4554,Hi,,,,,,5,,,,,,,,low,12,0,12,0,1,,,,,,,,,
293197,2022-10-06_19h27.00.846,vts_reward_expectancy,2022.2.4,MacIntel,60.0024001,Chrome,1440,900,,,,,1,1263,,,,,,,,,,,,,,,,,S,125,triangle,1,0,,,,,,,,,,,,,,,,repeat,number,numRpt,j,0.3966,Lo,,,,,,5,,,,,,,,low,13,0,13,0,1,,,,,,,,,
293197,2022-10-06_19h27.00.846,vts_reward_expectancy,2022.2.4,MacIntel,60.0024001,Chrome,1440,900,,,,,0,1263,,,,,,,,,,,,,,,,,D,146,circle,1,0,,,,,,,,,,,,,,,,repeat,number,numRpt,j,0.5443,Hi,,,,,,5,,,,,,,,low,14,0,14,0,1,,,,,,,,,
293197,2022-10-06_19h27.00.846,vts_reward_expectancy,2022.2.4,MacIntel,60.0024001,Chrome,1440,900,,,,,1,1264,,,,,,,,,,,,,,,,,U,174,triangle,1,0,,,,,,,,,,,,,,,,switch,letter,lettSwt,f,0.5191,Lo,,,,,,5,,,,,,,,low,15,0,15,0,1,,,,,,,,,
293197,2022-10-06_19h27.00.846,vts_reward_expectancy,2022.2.4,MacIntel,60.0024001,Chrome,1440,900,,,,,1,1265,,,,,,,,,,,,,,,,,H,146,triangle,1,0,,,,,,,,,,,,,,,,repeat,letter,lettRpt,d,0.4474,Lo,,,,,,5,,,,,,,,low,16,0,16,0,1,,,,,,,,,
293197,2022-10-06_19h27.00.846,vts_reward_expectancy,2022.2.4,MacIntel,60.0024001,Chrome,1440,900,,,,,1,1266,,,,,,,,,,,,,,,,,F,174,circle,1,0,,,,,,,,,,,,,,,,repeat,letter,lettRpt,d,0.4646,Hi,,,,,,5,,,,,,,,low,17,0,17,0,1,,,,,,,,,
293197,2022-10-06_19h27.00.846,vts_reward_expectancy,2022.2.4,MacIntel,60.0024001,Chrome,1440,900,,,,,1,1267,,,,,,,,,,,,,,,,,W,125,triangle,1,0,,,,,,,,,,,,,,,,repeat,letter,lettRpt,f,0.5887,Lo,,,,,,5,,,,,,,,low,18,0,18,0,1,,,,,,,,,
293197,2022-10-06_19h27.00.846,vts_reward_expectancy,2022.2.4,MacIntel,60.0024001,Chrome,1440,900,,,,,0,1267,,,,,,,,,,,,,,,,,Y,139,circle,1,0,,,,,,,,,,,,,,,,repeat,letter,lettRpt,f,0.597,Hi,,,,,,5,,,,,,,,low,19,0,19,0,1,,,,,,,,,
293197,2022-10-06_19h27.00.846,vts_reward_expectancy,2022.2.4,MacIntel,60.0024001,Chrome,1440,900,,,,,1,1268,,,,,,,,,,,,,,,,,B,132,triangle,1,0,,,,,,,,,,,,,,,,switch,number,numSwt,j,0.6473,Lo,,,,,,5,,,,,,,,low,20,0,20,0,1,,,,,,,,,
293197,2022-10-06_19h27.00.846,vts_reward_expectancy,2022.2.4,MacIntel,60.0024001,Chrome,1440,900,,,,,0,1268,,,,,,,,,,,,,,,,,D,181,circle,1,0,,,,,,,,,,,,,,,,repeat,number,numRpt,k,0.8475,Hi,,,,,,5,,,,,,,,low,21,0,21,0,1,,,,,,,,,
293197,2022-10-06_19h27.00.846,vts_reward_expectancy,2022.2.4,MacIntel,60.0024001,Chrome,1440,900,,,,,1,1269,,,,,,,,,,,,,,,,,U,160,circle,1,0,,,,,,,,,,,,,,,,switch,letter,lettSwt,f,0.5052,Hi,,,,,,5,,,,,,,,low,22,0,22,0,1,,,,,,,,,
293197,2022-10-06_19h27.00.846,vts_reward_expectancy,2022.2.4,MacIntel,60.0024001,Chrome,1440,900,,,,,1,1270,,,,,,,,,,,,,,,,,S,167,triangle,1,0,,,,,,,,,,,,,,,,repeat,letter,lettRpt,f,0.6571,Lo,,,,,,5,,,,,,,,low,23,0,23,0,1,,,,,,,,,
293197,2022-10-06_19h27.00.846,vts_reward_expectancy,2022.2.4,MacIntel,60.0024001,Chrome,1440,900,,,,,10,1280,,,,,,,,,,,,,,,,,U,132,triangle,1,0,,,,,,,,,,,,,,,,repeat,letter,lettRpt,f,0.6237,Lo,,,,,,5,,,,,,,,low,24,0,24,0,1,,,,,,,,,
293197,2022-10-06_19h27.00.846,vts_reward_expectancy,2022.2.4,MacIntel,60.0024001,Chrome,1440,900,,,,,0,1280,,,,,,,,,,,,,,,,,B,146,circle,1,0,,,,,,,,,,,,,,,,repeat,letter,lettRpt,d,0.5935,Hi,,,,,,5,,,,,,,,low,25,0,25,0,1,,,,,,,,,
293197,2022-10-06_19h27.00.846,vts_reward_expectancy,2022.2.4,MacIntel,60.0024001,Chrome,1440,900,,,,,10,1290,,,,,,,,,,,,,,,,,S,181,triangle,1,0,,,,,,,,,,,,,,,,switch,number,numSwt,k,0.5128,Lo,,,,,,5,,,,,,,,low,26,0,26,0,1,,,,,,,,,
293197,2022-10-06_19h27.00.846,vts_reward_expectancy,2022.2.4,MacIntel,60.0024001,Chrome,1440,900,,,,,0,1290,,,,,,,,,,,,,,,,,D,174,circle,0,0,,,,,,,,,,,,,,,,repeat,number,NA,j,0.6399,Lo,,,,,,5,,,,,,,,low,27,0,27,0,1,,,,,,,,,
293197,2022-10-06_19h27.00.846,vts_reward_expectancy,2022.2.4,MacIntel,60.0024001,Chrome,1440,900,,,,,10,1300,,,,,,,,,,,,,,,,,Y,125,triangle,1,1,,,,,,,,,,,,,,,,repeat,number,numRpt,j,0.5045,Lo,,,,,,5,,,,,,,,low,28,0,28,0,1,,,,,,,,,
293197,2022-10-06_19h27.00.846,vts_reward_expectancy,2022.2.4,MacIntel,60.0024001,Chrome,1440,900,,,,,10,1310,,,,,,,,,,,,,,,,,H,167,circle,1,0,,,,,,,,,,,,,,,,repeat,number,numRpt,k,0.4736,Hi,,,,,,5,,,,,,,,low,29,0,29,0,1,,,,,,,,,
293197,2022-10-06_19h27.00.846,vts_reward_expectancy,2022.2.4,MacIntel,60.0024001,Chrome,1440,900,,,,,0,1310,,,,,,,,,,,,,,,,,W,139,circle,1,0,,,,,,,,,,,,,,,,repeat,number,numRpt,j,0.548,Hi,,,,,,5,,,,,,,,low,30,0,30,0,1,,,,,,,,,
293197,2022-10-06_19h27.00.846,vts_reward_expectancy,2022.2.4,MacIntel,60.0024001,Chrome,1440,900,,,,,10,1320,,,,,,,,,,,,,,,,,F,160,triangle,1,0,,,,,,,,,,,,,,,,switch,letter,lettSwt,d,0.5356,Lo,,,,,,5,,,,,,,,low,31,0,31,0,1,,,,,,,,,
293197,2022-10-06_19h27.00.846,vts_reward_expectancy,2022.2.4,MacIntel,60.0024001,Chrome,1440,900,,,,,,,,,,,,,,,,,,,,,,,,,,,,,,,,,,,,,,,,,,,,,,,,,,,,,,6,,,,,,,,,,,,,,Click and choose shapes or numbers,2,,3,1,,2,1440,900
