participant,date,expName,psychopyVersion,OS,frameRate,browser,xResolution,yResolution,key_resp.keys,key_resp.rt,training_resp.keys,training_resp.rt,points_trial,points_cumul,trainBlock,training.thisRepN,training.thisTrialN,training.thisN,training.thisIndex,training.ran,LTriangleOpac,LCircleOpac,LHexagonOpac,LStarOpac,RTriangleOpac,RCircleOpac,RHexagonOpac,RStarOpac,LShape_ID,RShape_ID,curr_topStim,curr_bottStim,curr_shape,acc,E1,target_resp_prac1.keys,target_resp_prac1.rt,pracBlock,task1_prac_trials.thisRepN,task1_prac_trials.thisTrialN,task1_prac_trials.thisN,task1_prac_trials.thisIndex,task1_prac_trials.ran,target_resp_prac2.keys,target_resp_prac2.rt,task2_praac_trials.thisRepN,task2_praac_trials.thisTrialN,task2_praac_trials.thisN,task2_praac_trials.thisIndex,task2_praac_trials.ran,alt,task,condition,target_resp.keys,rewCond,vts_practice_trials.thisRepN,vts_practice_trials.thisTrialN,vts_practice_trials.thisN,vts_practice_trials.thisIndex,vts_practice_trials.ran,target_resp.rt,blockNum,trials_norew.thisRepN,trials_norew.thisTrialN,trials_norew.thisN,trials_norew.thisIndex,trials_norew.ran,key_resp_2.keys,key_resp_2.rt,rewExpect,trials_rew.thisRepN,trials_rew.thisTrialN,trials_rew.thisN,trials_rew.thisIndex,trials_rew.ran,Q1,Q2,Q2_text,Q3,Q4,Q5_text,Q5,xRes,yRes
295729,2022-09-23_15h28.15.171,vts_reward_expectancy,2022.2.4,MacIntel,59.99880002,Chrome,1440,900,,,,,,,,,,,,,,,,,,,,,,,,,,,,,,,,,,,,,,,,,,,,,,,,,,,,,,,,,,,,,,,,,,,,,,,,,,,,
295729,2022-09-23_15h28.15.171,vts_reward_expectancy,2022.2.4,MacIntel,59.99880002,Chrome,1440,900,space,2.8214,,,,,,,,,,,,,,,,,,,,,,,,,,,,,,,,,,,,,,,,,,,,,,,,,,,,,,,,,,,,,,,,,,,,,,,,,,
295729,2022-09-23_15h28.15.171,vts_reward_expectancy,2022.2.4,MacIntel,59.99880002,Chrome,1440,900,,,,,,,,,,,,,,,,,,,,,,,,,,,,,,,,,,,,,,,,,,,,,,,,,,,,,,,,,,,,,,,,,,,,,,,,,,,,
295729,2022-09-23_15h28.15.171,vts_reward_expectancy,2022.2.4,MacIntel,59.99880002,Chrome,1440,900,,,l,2.5675,1,1,0,0,0,0,1,1,1,0,0,0,0,0,1,0,triangle,hexagon,,,,,,,,,,,,,,,,,,,,,,,,,,,,,,,,,,,,,,,,,,,,,,,,,,,,,,
295729,2022-09-23_15h28.15.171,vts_reward_expectancy,2022.2.4,MacIntel,59.99880002,Chrome,1440,900,,,l,0.4332,10,11,0,0,1,1,6,1,0,0,1,0,1,0,0,0,hexagon,triangle,,,,,,,,,,,,,,,,,,,,,,,,,,,,,,,,,,,,,,,,,,,,,,,,,,,,,,
295729,2022-09-23_15h28.15.171,vts_reward_expectancy,2022.2.4,MacIntel,59.99880002,Chrome,1440,900,,,a,0.3531,10,21,0,0,2,2,5,1,0,1,0,0,0,0,0,1,circle,star,,,,,,,,,,,,,,,,,,,,,,,,,,,,,,,,,,,,,,,,,,,,,,,,,,,,,,
295729,2022-09-23_15h28.15.171,vts_reward_expectancy,2022.2.4,MacIntel,59.99880002,Chrome,1440,900,,,l,0.2678,1,22,0,0,3,3,9,1,0,0,0,1,1,0,0,0,star,triangle,,,,,,,,,,,,,,,,,,,,,,,,,,,,,,,,,,,,,,,,,,,,,,,,,,,,,,
295729,2022-09-23_15h28.15.171,vts_reward_expectancy,2022.2.4,MacIntel,59.99880002,Chrome,1440,900,,,a,0.3489,1,23,0,0,4,4,0,1,1,0,0,0,0,1,0,0,triangle,circle,,,,,,,,,,,,,,,,,,,,,,,,,,,,,,,,,,,,,,,,,,,,,,,,,,,,,,
295729,2022-09-23_15h28.15.171,vts_reward_expectancy,2022.2.4,MacIntel,59.99880002,Chrome,1440,900,,,a,0.2846,10,33,0,0,5,5,3,1,0,1,0,0,1,0,0,0,circle,triangle,,,,,,,,,,,,,,,,,,,,,,,,,,,,,,,,,,,,,,,,,,,,,,,,,,,,,,
295729,2022-09-23_15h28.15.171,vts_reward_expectancy,2022.2.4,MacIntel,59.99880002,Chrome,1440,900,,,l,0.3169,1,34,0,0,6,6,11,1,0,0,0,1,0,0,1,0,star,hexagon,,,,,,,,,,,,,,,,,,,,,,,,,,,,,,,,,,,,,,,,,,,,,,,,,,,,,,
295729,2022-09-23_15h28.15.171,vts_reward_expectancy,2022.2.4,MacIntel,59.99880002,Chrome,1440,900,,,a,0.4169,10,44,0,0,7,7,4,1,0,1,0,0,0,0,1,0,circle,hexagon,,,,,,,,,,,,,,,,,,,,,,,,,,,,,,,,,,,,,,,,,,,,,,,,,,,,,,
295729,2022-09-23_15h28.15.171,vts_reward_expectancy,2022.2.4,MacIntel,59.99880002,Chrome,1440,900,,,l,0.5324,1,45,0,0,8,8,10,1,0,0,0,1,0,1,0,0,star ,circle,,,,,,,,,,,,,,,,,,,,,,,,,,,,,,,,,,,,,,,,,,,,,,,,,,,,,,
295729,2022-09-23_15h28.15.171,vts_reward_expectancy,2022.2.4,MacIntel,59.99880002,Chrome,1440,900,,,l,0.3523,1,46,0,0,9,9,8,1,0,0,1,0,0,0,0,1,hexagon,star,,,,,,,,,,,,,,,,,,,,,,,,,,,,,,,,,,,,,,,,,,,,,,,,,,,,,,
295729,2022-09-23_15h28.15.171,vts_reward_expectancy,2022.2.4,MacIntel,59.99880002,Chrome,1440,900,,,a,0.3829,1,47,0,0,10,10,7,1,0,0,1,0,0,1,0,0,hexagon,circle,,,,,,,,,,,,,,,,,,,,,,,,,,,,,,,,,,,,,,,,,,,,,,,,,,,,,,
295729,2022-09-23_15h28.15.171,vts_reward_expectancy,2022.2.4,MacIntel,59.99880002,Chrome,1440,900,,,a,0.4165,10,57,0,0,11,11,2,1,1,0,0,0,0,0,0,1,triangle,star,,,,,,,,,,,,,,,,,,,,,,,,,,,,,,,,,,,,,,,,,,,,,,,,,,,,,,
295729,2022-09-23_15h28.15.171,vts_reward_expectancy,2022.2.4,MacIntel,59.99880002,Chrome,1440,900,,,l,0.4391,1,58,0,1,0,12,4,1,0,1,0,0,0,0,1,0,circle,hexagon,,,,,,,,,,,,,,,,,,,,,,,,,,,,,,,,,,,,,,,,,,,,,,,,,,,,,,
295729,2022-09-23_15h28.15.171,vts_reward_expectancy,2022.2.4,MacIntel,59.99880002,Chrome,1440,900,,,a,0.4163,10,68,0,1,1,13,5,1,0,1,0,0,0,0,0,1,circle,star,,,,,,,,,,,,,,,,,,,,,,,,,,,,,,,,,,,,,,,,,,,,,,,,,,,,,,
295729,2022-09-23_15h28.15.171,vts_reward_expectancy,2022.2.4,MacIntel,59.99880002,Chrome,1440,900,,,l,0.3374,10,78,0,1,2,14,2,1,1,0,0,0,0,0,0,1,triangle,star,,,,,,,,,,,,,,,,,,,,,,,,,,,,,,,,,,,,,,,,,,,,,,,,,,,,,,
295729,2022-09-23_15h28.15.171,vts_reward_expectancy,2022.2.4,MacIntel,59.99880002,Chrome,1440,900,,,l,0.4487,10,88,0,1,3,15,9,1,0,0,0,1,1,0,0,0,star,triangle,,,,,,,,,,,,,,,,,,,,,,,,,,,,,,,,,,,,,,,,,,,,,,,,,,,,,,
295729,2022-09-23_15h28.15.171,vts_reward_expectancy,2022.2.4,MacIntel,59.99880002,Chrome,1440,900,,,a,0.3999,1,89,0,1,4,16,11,1,0,0,0,1,0,0,1,0,star,hexagon,,,,,,,,,,,,,,,,,,,,,,,,,,,,,,,,,,,,,,,,,,,,,,,,,,,,,,
295729,2022-09-23_15h28.15.171,vts_reward_expectancy,2022.2.4,MacIntel,59.99880002,Chrome,1440,900,,,l,0.4033,10,99,0,1,5,17,10,1,0,0,0,1,0,1,0,0,star ,circle,,,,,,,,,,,,,,,,,,,,,,,,,,,,,,,,,,,,,,,,,,,,,,,,,,,,,,
295729,2022-09-23_15h28.15.171,vts_reward_expectancy,2022.2.4,MacIntel,59.99880002,Chrome,1440,900,,,l,0.4339,10,109,0,1,6,18,6,1,0,0,1,0,1,0,0,0,hexagon,triangle,,,,,,,,,,,,,,,,,,,,,,,,,,,,,,,,,,,,,,,,,,,,,,,,,,,,,,
295729,2022-09-23_15h28.15.171,vts_reward_expectancy,2022.2.4,MacIntel,59.99880002,Chrome,1440,900,,,a,0.3992,10,119,0,1,7,19,3,1,0,1,0,0,1,0,0,0,circle,triangle,,,,,,,,,,,,,,,,,,,,,,,,,,,,,,,,,,,,,,,,,,,,,,,,,,,,,,
295729,2022-09-23_15h28.15.171,vts_reward_expectancy,2022.2.4,MacIntel,59.99880002,Chrome,1440,900,,,a,0.4074,1,120,0,1,8,20,1,1,1,0,0,0,0,0,1,0,triangle,hexagon,,,,,,,,,,,,,,,,,,,,,,,,,,,,,,,,,,,,,,,,,,,,,,,,,,,,,,
295729,2022-09-23_15h28.15.171,vts_reward_expectancy,2022.2.4,MacIntel,59.99880002,Chrome,1440,900,,,l,0.3228,10,130,0,1,9,21,7,1,0,0,1,0,0,1,0,0,hexagon,circle,,,,,,,,,,,,,,,,,,,,,,,,,,,,,,,,,,,,,,,,,,,,,,,,,,,,,,
295729,2022-09-23_15h28.15.171,vts_reward_expectancy,2022.2.4,MacIntel,59.99880002,Chrome,1440,900,,,l,0.4513,1,131,0,1,10,22,8,1,0,0,1,0,0,0,0,1,hexagon,star,,,,,,,,,,,,,,,,,,,,,,,,,,,,,,,,,,,,,,,,,,,,,,,,,,,,,,
295729,2022-09-23_15h28.15.171,vts_reward_expectancy,2022.2.4,MacIntel,59.99880002,Chrome,1440,900,,,l,0.3156,10,141,0,1,11,23,0,1,1,0,0,0,0,1,0,0,triangle,circle,,,,,,,,,,,,,,,,,,,,,,,,,,,,,,,,,,,,,,,,,,,,,,,,,,,,,,
295729,2022-09-23_15h28.15.171,vts_reward_expectancy,2022.2.4,MacIntel,59.99880002,Chrome,1440,900,,,a,0.4319,10,151,0,2,0,24,5,1,0,1,0,0,0,0,0,1,circle,star,,,,,,,,,,,,,,,,,,,,,,,,,,,,,,,,,,,,,,,,,,,,,,,,,,,,,,
295729,2022-09-23_15h28.15.171,vts_reward_expectancy,2022.2.4,MacIntel,59.99880002,Chrome,1440,900,,,a,0.5658,1,152,0,2,1,25,6,1,0,0,1,0,1,0,0,0,hexagon,triangle,,,,,,,,,,,,,,,,,,,,,,,,,,,,,,,,,,,,,,,,,,,,,,,,,,,,,,
295729,2022-09-23_15h28.15.171,vts_reward_expectancy,2022.2.4,MacIntel,59.99880002,Chrome,1440,900,,,l,0.3502,10,162,0,2,2,26,8,1,0,0,1,0,0,0,0,1,hexagon,star,,,,,,,,,,,,,,,,,,,,,,,,,,,,,,,,,,,,,,,,,,,,,,,,,,,,,,
295729,2022-09-23_15h28.15.171,vts_reward_expectancy,2022.2.4,MacIntel,59.99880002,Chrome,1440,900,,,a,0.5156,10,172,0,2,3,27,4,1,0,1,0,0,0,0,1,0,circle,hexagon,,,,,,,,,,,,,,,,,,,,,,,,,,,,,,,,,,,,,,,,,,,,,,,,,,,,,,
295729,2022-09-23_15h28.15.171,vts_reward_expectancy,2022.2.4,MacIntel,59.99880002,Chrome,1440,900,,,l,0.449,1,173,0,2,4,28,11,1,0,0,0,1,0,0,1,0,star,hexagon,,,,,,,,,,,,,,,,,,,,,,,,,,,,,,,,,,,,,,,,,,,,,,,,,,,,,,
295729,2022-09-23_15h28.15.171,vts_reward_expectancy,2022.2.4,MacIntel,59.99880002,Chrome,1440,900,,,a,0.8823,1,174,0,2,5,29,0,1,1,0,0,0,0,1,0,0,triangle,circle,,,,,,,,,,,,,,,,,,,,,,,,,,,,,,,,,,,,,,,,,,,,,,,,,,,,,,
295729,2022-09-23_15h28.15.171,vts_reward_expectancy,2022.2.4,MacIntel,59.99880002,Chrome,1440,900,,,a,0.3334,10,184,0,2,6,30,3,1,0,1,0,0,1,0,0,0,circle,triangle,,,,,,,,,,,,,,,,,,,,,,,,,,,,,,,,,,,,,,,,,,,,,,,,,,,,,,
295729,2022-09-23_15h28.15.171,vts_reward_expectancy,2022.2.4,MacIntel,59.99880002,Chrome,1440,900,,,l,0.3716,10,194,0,2,7,31,9,1,0,0,0,1,1,0,0,0,star,triangle,,,,,,,,,,,,,,,,,,,,,,,,,,,,,,,,,,,,,,,,,,,,,,,,,,,,,,
295729,2022-09-23_15h28.15.171,vts_reward_expectancy,2022.2.4,MacIntel,59.99880002,Chrome,1440,900,,,a,0.7542,1,195,0,2,8,32,1,1,1,0,0,0,0,0,1,0,triangle,hexagon,,,,,,,,,,,,,,,,,,,,,,,,,,,,,,,,,,,,,,,,,,,,,,,,,,,,,,
295729,2022-09-23_15h28.15.171,vts_reward_expectancy,2022.2.4,MacIntel,59.99880002,Chrome,1440,900,,,l,0.1832,1,196,0,2,9,33,2,1,1,0,0,0,0,0,0,1,triangle,star,,,,,,,,,,,,,,,,,,,,,,,,,,,,,,,,,,,,,,,,,,,,,,,,,,,,,,
295729,2022-09-23_15h28.15.171,vts_reward_expectancy,2022.2.4,MacIntel,59.99880002,Chrome,1440,900,,,a,0.302,1,197,0,2,10,34,7,1,0,0,1,0,0,1,0,0,hexagon,circle,,,,,,,,,,,,,,,,,,,,,,,,,,,,,,,,,,,,,,,,,,,,,,,,,,,,,,
295729,2022-09-23_15h28.15.171,vts_reward_expectancy,2022.2.4,MacIntel,59.99880002,Chrome,1440,900,,,a,0.3711,1,198,0,2,11,35,10,1,0,0,0,1,0,1,0,0,star ,circle,,,,,,,,,,,,,,,,,,,,,,,,,,,,,,,,,,,,,,,,,,,,,,,,,,,,,,
295729,2022-09-23_15h28.15.171,vts_reward_expectancy,2022.2.4,MacIntel,59.99880002,Chrome,1440,900,,,l,0.5495,1,199,1,0,0,0,8,1,0,0,1,0,0,0,0,1,hexagon,star,,,,,,,,,,,,,,,,,,,,,,,,,,,,,,,,,,,,,,,,,,,,,,,,,,,,,,
295729,2022-09-23_15h28.15.171,vts_reward_expectancy,2022.2.4,MacIntel,59.99880002,Chrome,1440,900,,,l,0.3996,1,200,1,0,1,1,11,1,0,0,0,1,0,0,1,0,star,hexagon,,,,,,,,,,,,,,,,,,,,,,,,,,,,,,,,,,,,,,,,,,,,,,,,,,,,,,
295729,2022-09-23_15h28.15.171,vts_reward_expectancy,2022.2.4,MacIntel,59.99880002,Chrome,1440,900,,,a,0.6861,10,210,1,0,2,2,4,1,0,1,0,0,0,0,1,0,circle,hexagon,,,,,,,,,,,,,,,,,,,,,,,,,,,,,,,,,,,,,,,,,,,,,,,,,,,,,,
295729,2022-09-23_15h28.15.171,vts_reward_expectancy,2022.2.4,MacIntel,59.99880002,Chrome,1440,900,,,a,0.4173,10,220,1,0,3,3,10,1,0,0,0,1,0,1,0,0,star ,circle,,,,,,,,,,,,,,,,,,,,,,,,,,,,,,,,,,,,,,,,,,,,,,,,,,,,,,
295729,2022-09-23_15h28.15.171,vts_reward_expectancy,2022.2.4,MacIntel,59.99880002,Chrome,1440,900,,,a,0.4234,10,230,1,0,4,4,1,1,1,0,0,0,0,0,1,0,triangle,hexagon,,,,,,,,,,,,,,,,,,,,,,,,,,,,,,,,,,,,,,,,,,,,,,,,,,,,,,
295729,2022-09-23_15h28.15.171,vts_reward_expectancy,2022.2.4,MacIntel,59.99880002,Chrome,1440,900,,,a,0.3833,1,231,1,0,5,5,3,1,0,1,0,0,1,0,0,0,circle,triangle,,,,,,,,,,,,,,,,,,,,,,,,,,,,,,,,,,,,,,,,,,,,,,,,,,,,,,
295729,2022-09-23_15h28.15.171,vts_reward_expectancy,2022.2.4,MacIntel,59.99880002,Chrome,1440,900,,,l,0.3667,1,232,1,0,6,6,5,1,0,1,0,0,0,0,0,1,circle,star,,,,,,,,,,,,,,,,,,,,,,,,,,,,,,,,,,,,,,,,,,,,,,,,,,,,,,
295729,2022-09-23_15h28.15.171,vts_reward_expectancy,2022.2.4,MacIntel,59.99880002,Chrome,1440,900,,,a,0.4009,1,233,1,0,7,7,7,1,0,0,1,0,0,1,0,0,hexagon,circle,,,,,,,,,,,,,,,,,,,,,,,,,,,,,,,,,,,,,,,,,,,,,,,,,,,,,,
295729,2022-09-23_15h28.15.171,vts_reward_expectancy,2022.2.4,MacIntel,59.99880002,Chrome,1440,900,,,l,0.3827,10,243,1,0,8,8,0,1,1,0,0,0,0,1,0,0,triangle,circle,,,,,,,,,,,,,,,,,,,,,,,,,,,,,,,,,,,,,,,,,,,,,,,,,,,,,,
295729,2022-09-23_15h28.15.171,vts_reward_expectancy,2022.2.4,MacIntel,59.99880002,Chrome,1440,900,,,l,0.4855,10,253,1,0,9,9,6,1,0,0,1,0,1,0,0,0,hexagon,triangle,,,,,,,,,,,,,,,,,,,,,,,,,,,,,,,,,,,,,,,,,,,,,,,,,,,,,,
295729,2022-09-23_15h28.15.171,vts_reward_expectancy,2022.2.4,MacIntel,59.99880002,Chrome,1440,900,,,a,0.4508,10,263,1,0,10,10,9,1,0,0,0,1,1,0,0,0,star,triangle,,,,,,,,,,,,,,,,,,,,,,,,,,,,,,,,,,,,,,,,,,,,,,,,,,,,,,
295729,2022-09-23_15h28.15.171,vts_reward_expectancy,2022.2.4,MacIntel,59.99880002,Chrome,1440,900,,,a,0.3998,10,273,1,0,11,11,2,1,1,0,0,0,0,0,0,1,triangle,star,,,,,,,,,,,,,,,,,,,,,,,,,,,,,,,,,,,,,,,,,,,,,,,,,,,,,,
295729,2022-09-23_15h28.15.171,vts_reward_expectancy,2022.2.4,MacIntel,59.99880002,Chrome,1440,900,,,a,0.4495,1,274,1,1,0,12,1,1,1,0,0,0,0,0,1,0,triangle,hexagon,,,,,,,,,,,,,,,,,,,,,,,,,,,,,,,,,,,,,,,,,,,,,,,,,,,,,,
295729,2022-09-23_15h28.15.171,vts_reward_expectancy,2022.2.4,MacIntel,59.99880002,Chrome,1440,900,,,a,0.4357,1,275,1,1,1,13,11,1,0,0,0,1,0,0,1,0,star,hexagon,,,,,,,,,,,,,,,,,,,,,,,,,,,,,,,,,,,,,,,,,,,,,,,,,,,,,,
295729,2022-09-23_15h28.15.171,vts_reward_expectancy,2022.2.4,MacIntel,59.99880002,Chrome,1440,900,,,l,2.132,10,285,1,1,2,14,2,1,1,0,0,0,0,0,0,1,triangle,star,,,,,,,,,,,,,,,,,,,,,,,,,,,,,,,,,,,,,,,,,,,,,,,,,,,,,,
295729,2022-09-23_15h28.15.171,vts_reward_expectancy,2022.2.4,MacIntel,59.99880002,Chrome,1440,900,,,l,0.4689,10,295,1,1,3,15,8,1,0,0,1,0,0,0,0,1,hexagon,star,,,,,,,,,,,,,,,,,,,,,,,,,,,,,,,,,,,,,,,,,,,,,,,,,,,,,,
295729,2022-09-23_15h28.15.171,vts_reward_expectancy,2022.2.4,MacIntel,59.99880002,Chrome,1440,900,,,a,0.3654,10,305,1,1,4,16,3,1,0,1,0,0,1,0,0,0,circle,triangle,,,,,,,,,,,,,,,,,,,,,,,,,,,,,,,,,,,,,,,,,,,,,,,,,,,,,,
295729,2022-09-23_15h28.15.171,vts_reward_expectancy,2022.2.4,MacIntel,59.99880002,Chrome,1440,900,,,l,0.417,10,315,1,1,5,17,4,1,0,1,0,0,0,0,1,0,circle,hexagon,,,,,,,,,,,,,,,,,,,,,,,,,,,,,,,,,,,,,,,,,,,,,,,,,,,,,,
295729,2022-09-23_15h28.15.171,vts_reward_expectancy,2022.2.4,MacIntel,59.99880002,Chrome,1440,900,,,a,0.4313,1,316,1,1,6,18,6,1,0,0,1,0,1,0,0,0,hexagon,triangle,,,,,,,,,,,,,,,,,,,,,,,,,,,,,,,,,,,,,,,,,,,,,,,,,,,,,,
295729,2022-09-23_15h28.15.171,vts_reward_expectancy,2022.2.4,MacIntel,59.99880002,Chrome,1440,900,,,l,0.3834,10,326,1,1,7,19,0,1,1,0,0,0,0,1,0,0,triangle,circle,,,,,,,,,,,,,,,,,,,,,,,,,,,,,,,,,,,,,,,,,,,,,,,,,,,,,,
295729,2022-09-23_15h28.15.171,vts_reward_expectancy,2022.2.4,MacIntel,59.99880002,Chrome,1440,900,,,l,0.4334,1,327,1,1,8,20,7,1,0,0,1,0,0,1,0,0,hexagon,circle,,,,,,,,,,,,,,,,,,,,,,,,,,,,,,,,,,,,,,,,,,,,,,,,,,,,,,
295729,2022-09-23_15h28.15.171,vts_reward_expectancy,2022.2.4,MacIntel,59.99880002,Chrome,1440,900,,,a,0.532,10,337,1,1,9,21,5,1,0,1,0,0,0,0,0,1,circle,star,,,,,,,,,,,,,,,,,,,,,,,,,,,,,,,,,,,,,,,,,,,,,,,,,,,,,,
295729,2022-09-23_15h28.15.171,vts_reward_expectancy,2022.2.4,MacIntel,59.99880002,Chrome,1440,900,,,l,0.8832,10,347,1,1,10,22,10,1,0,0,0,1,0,1,0,0,star ,circle,,,,,,,,,,,,,,,,,,,,,,,,,,,,,,,,,,,,,,,,,,,,,,,,,,,,,,
295729,2022-09-23_15h28.15.171,vts_reward_expectancy,2022.2.4,MacIntel,59.99880002,Chrome,1440,900,,,l,0.5341,1,348,1,1,11,23,9,1,0,0,0,1,1,0,0,0,star,triangle,,,,,,,,,,,,,,,,,,,,,,,,,,,,,,,,,,,,,,,,,,,,,,,,,,,,,,
295729,2022-09-23_15h28.15.171,vts_reward_expectancy,2022.2.4,MacIntel,59.99880002,Chrome,1440,900,,,a,2.4155,10,358,1,2,0,24,5,1,0,1,0,0,0,0,0,1,circle,star,,,,,,,,,,,,,,,,,,,,,,,,,,,,,,,,,,,,,,,,,,,,,,,,,,,,,,
295729,2022-09-23_15h28.15.171,vts_reward_expectancy,2022.2.4,MacIntel,59.99880002,Chrome,1440,900,,,a,0.6663,1,359,1,2,1,25,2,1,1,0,0,0,0,0,0,1,triangle,star,,,,,,,,,,,,,,,,,,,,,,,,,,,,,,,,,,,,,,,,,,,,,,,,,,,,,,
295729,2022-09-23_15h28.15.171,vts_reward_expectancy,2022.2.4,MacIntel,59.99880002,Chrome,1440,900,,,l,0.4013,10,369,1,2,2,26,6,1,0,0,1,0,1,0,0,0,hexagon,triangle,,,,,,,,,,,,,,,,,,,,,,,,,,,,,,,,,,,,,,,,,,,,,,,,,,,,,,
295729,2022-09-23_15h28.15.171,vts_reward_expectancy,2022.2.4,MacIntel,59.99880002,Chrome,1440,900,,,l,0.4875,10,379,1,2,3,27,9,1,0,0,0,1,1,0,0,0,star,triangle,,,,,,,,,,,,,,,,,,,,,,,,,,,,,,,,,,,,,,,,,,,,,,,,,,,,,,
295729,2022-09-23_15h28.15.171,vts_reward_expectancy,2022.2.4,MacIntel,59.99880002,Chrome,1440,900,,,a,0.3015,10,389,1,2,4,28,0,1,1,0,0,0,0,1,0,0,triangle,circle,,,,,,,,,,,,,,,,,,,,,,,,,,,,,,,,,,,,,,,,,,,,,,,,,,,,,,
295729,2022-09-23_15h28.15.171,vts_reward_expectancy,2022.2.4,MacIntel,59.99880002,Chrome,1440,900,,,l,0.3507,1,390,1,2,5,29,11,1,0,0,0,1,0,0,1,0,star,hexagon,,,,,,,,,,,,,,,,,,,,,,,,,,,,,,,,,,,,,,,,,,,,,,,,,,,,,,
295729,2022-09-23_15h28.15.171,vts_reward_expectancy,2022.2.4,MacIntel,59.99880002,Chrome,1440,900,,,a,0.333,10,400,1,2,6,30,4,1,0,1,0,0,0,0,1,0,circle,hexagon,,,,,,,,,,,,,,,,,,,,,,,,,,,,,,,,,,,,,,,,,,,,,,,,,,,,,,
295729,2022-09-23_15h28.15.171,vts_reward_expectancy,2022.2.4,MacIntel,59.99880002,Chrome,1440,900,,,l,0.4664,10,410,1,2,7,31,3,1,0,1,0,0,1,0,0,0,circle,triangle,,,,,,,,,,,,,,,,,,,,,,,,,,,,,,,,,,,,,,,,,,,,,,,,,,,,,,
295729,2022-09-23_15h28.15.171,vts_reward_expectancy,2022.2.4,MacIntel,59.99880002,Chrome,1440,900,,,l,1.0985,1,411,1,2,8,32,1,1,1,0,0,0,0,0,1,0,triangle,hexagon,,,,,,,,,,,,,,,,,,,,,,,,,,,,,,,,,,,,,,,,,,,,,,,,,,,,,,
295729,2022-09-23_15h28.15.171,vts_reward_expectancy,2022.2.4,MacIntel,59.99880002,Chrome,1440,900,,,a,0.2501,1,412,1,2,9,33,7,1,0,0,1,0,0,1,0,0,hexagon,circle,,,,,,,,,,,,,,,,,,,,,,,,,,,,,,,,,,,,,,,,,,,,,,,,,,,,,,
295729,2022-09-23_15h28.15.171,vts_reward_expectancy,2022.2.4,MacIntel,59.99880002,Chrome,1440,900,,,l,0.101,10,422,1,2,10,34,8,1,0,0,1,0,0,0,0,1,hexagon,star,,,,,,,,,,,,,,,,,,,,,,,,,,,,,,,,,,,,,,,,,,,,,,,,,,,,,,
295729,2022-09-23_15h28.15.171,vts_reward_expectancy,2022.2.4,MacIntel,59.99880002,Chrome,1440,900,,,l,0.5671,10,432,1,2,11,35,10,1,0,0,0,1,0,1,0,0,star ,circle,,,,,,,,,,,,,,,,,,,,,,,,,,,,,,,,,,,,,,,,,,,,,,,,,,,,,,
295729,2022-09-23_15h28.15.171,vts_reward_expectancy,2022.2.4,MacIntel,59.99880002,Chrome,1440,900,,,l,0.5513,10,442,2,0,0,0,2,1,1,0,0,0,0,0,0,1,triangle,star,,,,,,,,,,,,,,,,,,,,,,,,,,,,,,,,,,,,,,,,,,,,,,,,,,,,,,
295729,2022-09-23_15h28.15.171,vts_reward_expectancy,2022.2.4,MacIntel,59.99880002,Chrome,1440,900,,,l,0.2821,10,452,2,0,1,1,0,1,1,0,0,0,0,1,0,0,triangle,circle,,,,,,,,,,,,,,,,,,,,,,,,,,,,,,,,,,,,,,,,,,,,,,,,,,,,,,
295729,2022-09-23_15h28.15.171,vts_reward_expectancy,2022.2.4,MacIntel,59.99880002,Chrome,1440,900,,,a,0.4562,10,462,2,0,2,2,4,1,0,1,0,0,0,0,1,0,circle,hexagon,,,,,,,,,,,,,,,,,,,,,,,,,,,,,,,,,,,,,,,,,,,,,,,,,,,,,,
295729,2022-09-23_15h28.15.171,vts_reward_expectancy,2022.2.4,MacIntel,59.99880002,Chrome,1440,900,,,l,0.3661,10,472,2,0,3,3,6,1,0,0,1,0,1,0,0,0,hexagon,triangle,,,,,,,,,,,,,,,,,,,,,,,,,,,,,,,,,,,,,,,,,,,,,,,,,,,,,,
295729,2022-09-23_15h28.15.171,vts_reward_expectancy,2022.2.4,MacIntel,59.99880002,Chrome,1440,900,,,a,0.0502,1,473,2,0,4,4,8,1,0,0,1,0,0,0,0,1,hexagon,star,,,,,,,,,,,,,,,,,,,,,,,,,,,,,,,,,,,,,,,,,,,,,,,,,,,,,,
295729,2022-09-23_15h28.15.171,vts_reward_expectancy,2022.2.4,MacIntel,59.99880002,Chrome,1440,900,,,l,0.3484,10,483,2,0,5,5,7,1,0,0,1,0,0,1,0,0,hexagon,circle,,,,,,,,,,,,,,,,,,,,,,,,,,,,,,,,,,,,,,,,,,,,,,,,,,,,,,
295729,2022-09-23_15h28.15.171,vts_reward_expectancy,2022.2.4,MacIntel,59.99880002,Chrome,1440,900,,,l,0.3831,1,484,2,0,6,6,5,1,0,1,0,0,0,0,0,1,circle,star,,,,,,,,,,,,,,,,,,,,,,,,,,,,,,,,,,,,,,,,,,,,,,,,,,,,,,
295729,2022-09-23_15h28.15.171,vts_reward_expectancy,2022.2.4,MacIntel,59.99880002,Chrome,1440,900,,,a,0.2679,1,485,2,0,7,7,10,1,0,0,0,1,0,1,0,0,star ,circle,,,,,,,,,,,,,,,,,,,,,,,,,,,,,,,,,,,,,,,,,,,,,,,,,,,,,,
295729,2022-09-23_15h28.15.171,vts_reward_expectancy,2022.2.4,MacIntel,59.99880002,Chrome,1440,900,,,l,0.4829,1,486,2,0,8,8,1,1,1,0,0,0,0,0,1,0,triangle,hexagon,,,,,,,,,,,,,,,,,,,,,,,,,,,,,,,,,,,,,,,,,,,,,,,,,,,,,,
295729,2022-09-23_15h28.15.171,vts_reward_expectancy,2022.2.4,MacIntel,59.99880002,Chrome,1440,900,,,a,0.1175,10,496,2,0,9,9,3,1,0,1,0,0,1,0,0,0,circle,triangle,,,,,,,,,,,,,,,,,,,,,,,,,,,,,,,,,,,,,,,,,,,,,,,,,,,,,,
295729,2022-09-23_15h28.15.171,vts_reward_expectancy,2022.2.4,MacIntel,59.99880002,Chrome,1440,900,,,a,0.4678,10,506,2,0,10,10,9,1,0,0,0,1,1,0,0,0,star,triangle,,,,,,,,,,,,,,,,,,,,,,,,,,,,,,,,,,,,,,,,,,,,,,,,,,,,,,
295729,2022-09-23_15h28.15.171,vts_reward_expectancy,2022.2.4,MacIntel,59.99880002,Chrome,1440,900,,,l,0.2664,1,507,2,0,11,11,11,1,0,0,0,1,0,0,1,0,star,hexagon,,,,,,,,,,,,,,,,,,,,,,,,,,,,,,,,,,,,,,,,,,,,,,,,,,,,,,
295729,2022-09-23_15h28.15.171,vts_reward_expectancy,2022.2.4,MacIntel,59.99880002,Chrome,1440,900,,,a,0.3153,1,508,2,1,0,12,10,1,0,0,0,1,0,1,0,0,star ,circle,,,,,,,,,,,,,,,,,,,,,,,,,,,,,,,,,,,,,,,,,,,,,,,,,,,,,,
295729,2022-09-23_15h28.15.171,vts_reward_expectancy,2022.2.4,MacIntel,59.99880002,Chrome,1440,900,,,a,0.3507,1,509,2,1,1,13,7,1,0,0,1,0,0,1,0,0,hexagon,circle,,,,,,,,,,,,,,,,,,,,,,,,,,,,,,,,,,,,,,,,,,,,,,,,,,,,,,
295729,2022-09-23_15h28.15.171,vts_reward_expectancy,2022.2.4,MacIntel,59.99880002,Chrome,1440,900,,,l,0.1657,10,519,2,1,2,14,6,1,0,0,1,0,1,0,0,0,hexagon,triangle,,,,,,,,,,,,,,,,,,,,,,,,,,,,,,,,,,,,,,,,,,,,,,,,,,,,,,
295729,2022-09-23_15h28.15.171,vts_reward_expectancy,2022.2.4,MacIntel,59.99880002,Chrome,1440,900,,,a,0.432,10,529,2,1,3,15,0,1,1,0,0,0,0,1,0,0,triangle,circle,,,,,,,,,,,,,,,,,,,,,,,,,,,,,,,,,,,,,,,,,,,,,,,,,,,,,,
295729,2022-09-23_15h28.15.171,vts_reward_expectancy,2022.2.4,MacIntel,59.99880002,Chrome,1440,900,,,a,1.4496,10,539,2,1,4,16,2,1,1,0,0,0,0,0,0,1,triangle,star,,,,,,,,,,,,,,,,,,,,,,,,,,,,,,,,,,,,,,,,,,,,,,,,,,,,,,
295729,2022-09-23_15h28.15.171,vts_reward_expectancy,2022.2.4,MacIntel,59.99880002,Chrome,1440,900,,,a,0.2828,10,549,2,1,5,17,4,1,0,1,0,0,0,0,1,0,circle,hexagon,,,,,,,,,,,,,,,,,,,,,,,,,,,,,,,,,,,,,,,,,,,,,,,,,,,,,,
295729,2022-09-23_15h28.15.171,vts_reward_expectancy,2022.2.4,MacIntel,59.99880002,Chrome,1440,900,,,l,0.5171,1,550,2,1,6,18,3,1,0,1,0,0,1,0,0,0,circle,triangle,,,,,,,,,,,,,,,,,,,,,,,,,,,,,,,,,,,,,,,,,,,,,,,,,,,,,,
295729,2022-09-23_15h28.15.171,vts_reward_expectancy,2022.2.4,MacIntel,59.99880002,Chrome,1440,900,,,a,0.3701,1,551,2,1,7,19,5,1,0,1,0,0,0,0,0,1,circle,star,,,,,,,,,,,,,,,,,,,,,,,,,,,,,,,,,,,,,,,,,,,,,,,,,,,,,,
295729,2022-09-23_15h28.15.171,vts_reward_expectancy,2022.2.4,MacIntel,59.99880002,Chrome,1440,900,,,l,0.3818,1,552,2,1,8,20,11,1,0,0,0,1,0,0,1,0,star,hexagon,,,,,,,,,,,,,,,,,,,,,,,,,,,,,,,,,,,,,,,,,,,,,,,,,,,,,,
295729,2022-09-23_15h28.15.171,vts_reward_expectancy,2022.2.4,MacIntel,59.99880002,Chrome,1440,900,,,l,0.4222,10,562,2,1,9,21,9,1,0,0,0,1,1,0,0,0,star,triangle,,,,,,,,,,,,,,,,,,,,,,,,,,,,,,,,,,,,,,,,,,,,,,,,,,,,,,
295729,2022-09-23_15h28.15.171,vts_reward_expectancy,2022.2.4,MacIntel,59.99880002,Chrome,1440,900,,,a,0.6996,10,572,2,1,10,22,1,1,1,0,0,0,0,0,1,0,triangle,hexagon,,,,,,,,,,,,,,,,,,,,,,,,,,,,,,,,,,,,,,,,,,,,,,,,,,,,,,
295729,2022-09-23_15h28.15.171,vts_reward_expectancy,2022.2.4,MacIntel,59.99880002,Chrome,1440,900,,,a,0.558,1,573,2,1,11,23,8,1,0,0,1,0,0,0,0,1,hexagon,star,,,,,,,,,,,,,,,,,,,,,,,,,,,,,,,,,,,,,,,,,,,,,,,,,,,,,,
295729,2022-09-23_15h28.15.171,vts_reward_expectancy,2022.2.4,MacIntel,59.99880002,Chrome,1440,900,,,l,0.5653,10,583,2,2,0,24,0,1,1,0,0,0,0,1,0,0,triangle,circle,,,,,,,,,,,,,,,,,,,,,,,,,,,,,,,,,,,,,,,,,,,,,,,,,,,,,,
295729,2022-09-23_15h28.15.171,vts_reward_expectancy,2022.2.4,MacIntel,59.99880002,Chrome,1440,900,,,a,0.3667,1,584,2,2,1,25,1,1,1,0,0,0,0,0,1,0,triangle,hexagon,,,,,,,,,,,,,,,,,,,,,,,,,,,,,,,,,,,,,,,,,,,,,,,,,,,,,,
295729,2022-09-23_15h28.15.171,vts_reward_expectancy,2022.2.4,MacIntel,59.99880002,Chrome,1440,900,,,l,1.005,10,594,2,2,2,26,7,1,0,0,1,0,0,1,0,0,hexagon,circle,,,,,,,,,,,,,,,,,,,,,,,,,,,,,,,,,,,,,,,,,,,,,,,,,,,,,,
295729,2022-09-23_15h28.15.171,vts_reward_expectancy,2022.2.4,MacIntel,59.99880002,Chrome,1440,900,,,l,0.666,1,595,2,2,3,27,9,1,0,0,0,1,1,0,0,0,star,triangle,,,,,,,,,,,,,,,,,,,,,,,,,,,,,,,,,,,,,,,,,,,,,,,,,,,,,,
295729,2022-09-23_15h28.15.171,vts_reward_expectancy,2022.2.4,MacIntel,59.99880002,Chrome,1440,900,,,l,0.3532,1,596,2,2,4,28,2,1,1,0,0,0,0,0,0,1,triangle,star,,,,,,,,,,,,,,,,,,,,,,,,,,,,,,,,,,,,,,,,,,,,,,,,,,,,,,
295729,2022-09-23_15h28.15.171,vts_reward_expectancy,2022.2.4,MacIntel,59.99880002,Chrome,1440,900,,,a,0.317,1,597,2,2,5,29,11,1,0,0,0,1,0,0,1,0,star,hexagon,,,,,,,,,,,,,,,,,,,,,,,,,,,,,,,,,,,,,,,,,,,,,,,,,,,,,,
295729,2022-09-23_15h28.15.171,vts_reward_expectancy,2022.2.4,MacIntel,59.99880002,Chrome,1440,900,,,l,0.5003,1,598,2,2,6,30,5,1,0,1,0,0,0,0,0,1,circle,star,,,,,,,,,,,,,,,,,,,,,,,,,,,,,,,,,,,,,,,,,,,,,,,,,,,,,,
295729,2022-09-23_15h28.15.171,vts_reward_expectancy,2022.2.4,MacIntel,59.99880002,Chrome,1440,900,,,a,0.4888,1,599,2,2,7,31,10,1,0,0,0,1,0,1,0,0,star ,circle,,,,,,,,,,,,,,,,,,,,,,,,,,,,,,,,,,,,,,,,,,,,,,,,,,,,,,
295729,2022-09-23_15h28.15.171,vts_reward_expectancy,2022.2.4,MacIntel,59.99880002,Chrome,1440,900,,,l,0.2822,10,609,2,2,8,32,6,1,0,0,1,0,1,0,0,0,hexagon,triangle,,,,,,,,,,,,,,,,,,,,,,,,,,,,,,,,,,,,,,,,,,,,,,,,,,,,,,
295729,2022-09-23_15h28.15.171,vts_reward_expectancy,2022.2.4,MacIntel,59.99880002,Chrome,1440,900,,,l,0.5172,1,610,2,2,9,33,8,1,0,0,1,0,0,0,0,1,hexagon,star,,,,,,,,,,,,,,,,,,,,,,,,,,,,,,,,,,,,,,,,,,,,,,,,,,,,,,
295729,2022-09-23_15h28.15.171,vts_reward_expectancy,2022.2.4,MacIntel,59.99880002,Chrome,1440,900,,,a,0.2834,10,620,2,2,10,34,4,1,0,1,0,0,0,0,1,0,circle,hexagon,,,,,,,,,,,,,,,,,,,,,,,,,,,,,,,,,,,,,,,,,,,,,,,,,,,,,,
295729,2022-09-23_15h28.15.171,vts_reward_expectancy,2022.2.4,MacIntel,59.99880002,Chrome,1440,900,,,a,0.3002,1,621,2,2,11,35,3,1,0,1,0,0,1,0,0,0,circle,triangle,,,,,,,,,,,,,,,,,,,,,,,,,,,,,,,,,,,,,,,,,,,,,,,,,,,,,,
295729,2022-09-23_15h28.15.171,vts_reward_expectancy,2022.2.4,MacIntel,59.99880002,Chrome,1440,900,,,,,,,,,,,,,,,,,,,,,,,F,181,hexagon,1,0,d,0.8483,0,0,0,0,0,1,,,,,,,,,,,,,,,,,,,,,,,,,,,,,,,,,,,,,,,,,
295729,2022-09-23_15h28.15.171,vts_reward_expectancy,2022.2.4,MacIntel,59.99880002,Chrome,1440,900,,,,,,,,,,,,,,,,,,,,,,,W,167,triangle,1,0,f,0.5964,0,1,0,1,0,1,,,,,,,,,,,,,,,,,,,,,,,,,,,,,,,,,,,,,,,,,
295729,2022-09-23_15h28.15.171,vts_reward_expectancy,2022.2.4,MacIntel,59.99880002,Chrome,1440,900,,,,,,,,,,,,,,,,,,,,,,,D,125,star,1,0,d,0.497,0,2,0,2,0,1,,,,,,,,,,,,,,,,,,,,,,,,,,,,,,,,,,,,,,,,,
295729,2022-09-23_15h28.15.171,vts_reward_expectancy,2022.2.4,MacIntel,59.99880002,Chrome,1440,900,,,,,,,,,,,,,,,,,,,,,,,Y,174,circle,1,0,f,0.5155,0,3,0,3,0,1,,,,,,,,,,,,,,,,,,,,,,,,,,,,,,,,,,,,,,,,,
295729,2022-09-23_15h28.15.171,vts_reward_expectancy,2022.2.4,MacIntel,59.99880002,Chrome,1440,900,,,,,,,,,,,,,,,,,,,,,,,H,146,hexagon,1,0,d,0.5717,0,4,0,4,0,1,,,,,,,,,,,,,,,,,,,,,,,,,,,,,,,,,,,,,,,,,
295729,2022-09-23_15h28.15.171,vts_reward_expectancy,2022.2.4,MacIntel,59.99880002,Chrome,1440,900,,,,,,,,,,,,,,,,,,,,,,,B,132,triangle,1,0,d,0.5222,0,5,0,5,0,1,,,,,,,,,,,,,,,,,,,,,,,,,,,,,,,,,,,,,,,,,
295729,2022-09-23_15h28.15.171,vts_reward_expectancy,2022.2.4,MacIntel,59.99880002,Chrome,1440,900,,,,,,,,,,,,,,,,,,,,,,,U,139,star,1,0,f,0.4126,0,6,0,6,0,1,,,,,,,,,,,,,,,,,,,,,,,,,,,,,,,,,,,,,,,,,
295729,2022-09-23_15h28.15.171,vts_reward_expectancy,2022.2.4,MacIntel,59.99880002,Chrome,1440,900,,,,,,,,,,,,,,,,,,,,,,,S,160,circle,1,0,f,0.6659,0,7,0,7,0,1,,,,,,,,,,,,,,,,,,,,,,,,,,,,,,,,,,,,,,,,,
295729,2022-09-23_15h28.15.171,vts_reward_expectancy,2022.2.4,MacIntel,59.99880002,Chrome,1440,900,,,,,,,,,,,,,,,,,,,,,,,F,181,circle,1,0,d,0.747,0,8,0,8,0,1,,,,,,,,,,,,,,,,,,,,,,,,,,,,,,,,,,,,,,,,,
295729,2022-09-23_15h28.15.171,vts_reward_expectancy,2022.2.4,MacIntel,59.99880002,Chrome,1440,900,,,,,,,,,,,,,,,,,,,,,,,W,167,star,1,0,f,0.5135,0,9,0,9,0,1,,,,,,,,,,,,,,,,,,,,,,,,,,,,,,,,,,,,,,,,,
295729,2022-09-23_15h28.15.171,vts_reward_expectancy,2022.2.4,MacIntel,59.99880002,Chrome,1440,900,,,,,,,,,,,,,,,,,,,,,,,F,125,star,1,0,,,1,,,,,,j,1.3881,0,0,0,0,1,,,,,,,,,,,,,,,,,,,,,,,,,,,,,,,,,,
295729,2022-09-23_15h28.15.171,vts_reward_expectancy,2022.2.4,MacIntel,59.99880002,Chrome,1440,900,,,,,,,,,,,,,,,,,,,,,,,H,181,circle,1,0,,,1,,,,,,k,0.6473,1,0,1,0,1,,,,,,,,,,,,,,,,,,,,,,,,,,,,,,,,,,
295729,2022-09-23_15h28.15.171,vts_reward_expectancy,2022.2.4,MacIntel,59.99880002,Chrome,1440,900,,,,,,,,,,,,,,,,,,,,,,,W,139,hexagon,0,0,,,1,,,,,,k,1.0016,2,0,2,0,1,,,,,,,,,,,,,,,,,,,,,,,,,,,,,,,,,,
295729,2022-09-23_15h28.15.171,vts_reward_expectancy,2022.2.4,MacIntel,59.99880002,Chrome,1440,900,,,,,,,,,,,,,,,,,,,,,,,B,132,triangle,1,1,,,1,,,,,,j,0.8322,3,0,3,0,1,,,,,,,,,,,,,,,,,,,,,,,,,,,,,,,,,,
295729,2022-09-23_15h28.15.171,vts_reward_expectancy,2022.2.4,MacIntel,59.99880002,Chrome,1440,900,,,,,,,,,,,,,,,,,,,,,,,U,174,star,1,0,,,1,,,,,,k,0.9141,4,0,4,0,1,,,,,,,,,,,,,,,,,,,,,,,,,,,,,,,,,,
295729,2022-09-23_15h28.15.171,vts_reward_expectancy,2022.2.4,MacIntel,59.99880002,Chrome,1440,900,,,,,,,,,,,,,,,,,,,,,,,S,167,circle,1,0,,,1,,,,,,k,0.8809,5,0,5,0,1,,,,,,,,,,,,,,,,,,,,,,,,,,,,,,,,,,
295729,2022-09-23_15h28.15.171,vts_reward_expectancy,2022.2.4,MacIntel,59.99880002,Chrome,1440,900,,,,,,,,,,,,,,,,,,,,,,,Y,146,hexagon,0,0,,,1,,,,,,k,0.831,6,0,6,0,1,,,,,,,,,,,,,,,,,,,,,,,,,,,,,,,,,,
295729,2022-09-23_15h28.15.171,vts_reward_expectancy,2022.2.4,MacIntel,59.99880002,Chrome,1440,900,,,,,,,,,,,,,,,,,,,,,,,D,160,triangle,1,1,,,1,,,,,,k,0.6631,7,0,7,0,1,,,,,,,,,,,,,,,,,,,,,,,,,,,,,,,,,,
295729,2022-09-23_15h28.15.171,vts_reward_expectancy,2022.2.4,MacIntel,59.99880002,Chrome,1440,900,,,,,,,,,,,,,,,,,,,,,,,F,125,hexagon,1,0,,,1,,,,,,j,0.5644,8,0,8,0,1,,,,,,,,,,,,,,,,,,,,,,,,,,,,,,,,,,
295729,2022-09-23_15h28.15.171,vts_reward_expectancy,2022.2.4,MacIntel,59.99880002,Chrome,1440,900,,,,,,,,,,,,,,,,,,,,,,,H,181,circle,1,0,,,1,,,,,,k,0.6984,9,0,9,0,1,,,,,,,,,,,,,,,,,,,,,,,,,,,,,,,,,,
295729,2022-09-23_15h28.15.171,vts_reward_expectancy,2022.2.4,MacIntel,59.99880002,Chrome,1440,900,,,,,,,,,,,,,,,,,,,,,,,B,139,circle,1,0,,,2,,,,,,j,0.6147,0,0,0,0,1,,,,,,,,,,,,,,,,,,,,,,,,,,,,,,,,,,
295729,2022-09-23_15h28.15.171,vts_reward_expectancy,2022.2.4,MacIntel,59.99880002,Chrome,1440,900,,,,,,,,,,,,,,,,,,,,,,,S,146,triangle,1,0,,,2,,,,,,j,0.8547,1,0,1,0,1,,,,,,,,,,,,,,,,,,,,,,,,,,,,,,,,,,
295729,2022-09-23_15h28.15.171,vts_reward_expectancy,2022.2.4,MacIntel,59.99880002,Chrome,1440,900,,,,,,,,,,,,,,,,,,,,,,,W,160,hexagon,1,0,,,2,,,,,,k,0.4478,2,0,2,0,1,,,,,,,,,,,,,,,,,,,,,,,,,,,,,,,,,,
295729,2022-09-23_15h28.15.171,vts_reward_expectancy,2022.2.4,MacIntel,59.99880002,Chrome,1440,900,,,,,,,,,,,,,,,,,,,,,,,F,181,star,1,0,,,2,,,,,,k,0.6641,3,0,3,0,1,,,,,,,,,,,,,,,,,,,,,,,,,,,,,,,,,,
295729,2022-09-23_15h28.15.171,vts_reward_expectancy,2022.2.4,MacIntel,59.99880002,Chrome,1440,900,,,,,,,,,,,,,,,,,,,,,,,U,132,circle,1,0,,,2,,,,,,j,1.0965,4,0,4,0,1,,,,,,,,,,,,,,,,,,,,,,,,,,,,,,,,,,
295729,2022-09-23_15h28.15.171,vts_reward_expectancy,2022.2.4,MacIntel,59.99880002,Chrome,1440,900,,,,,,,,,,,,,,,,,,,,,,,H,125,triangle,1,0,,,2,,,,,,j,0.5475,5,0,5,0,1,,,,,,,,,,,,,,,,,,,,,,,,,,,,,,,,,,
295729,2022-09-23_15h28.15.171,vts_reward_expectancy,2022.2.4,MacIntel,59.99880002,Chrome,1440,900,,,,,,,,,,,,,,,,,,,,,,,Y,167,hexagon,1,0,,,2,,,,,,k,1.1653,6,0,6,0,1,,,,,,,,,,,,,,,,,,,,,,,,,,,,,,,,,,
295729,2022-09-23_15h28.15.171,vts_reward_expectancy,2022.2.4,MacIntel,59.99880002,Chrome,1440,900,,,,,,,,,,,,,,,,,,,,,,,D,174,star,1,0,,,2,,,,,,k,0.6464,7,0,7,0,1,,,,,,,,,,,,,,,,,,,,,,,,,,,,,,,,,,
295729,2022-09-23_15h28.15.171,vts_reward_expectancy,2022.2.4,MacIntel,59.99880002,Chrome,1440,900,,,,,,,,,,,,,,,,,,,,,,,B,139,triangle,1,0,,,2,,,,,,j,0.5673,8,0,8,0,1,,,,,,,,,,,,,,,,,,,,,,,,,,,,,,,,,,
295729,2022-09-23_15h28.15.171,vts_reward_expectancy,2022.2.4,MacIntel,59.99880002,Chrome,1440,900,,,,,,,,,,,,,,,,,,,,,,,S,146,hexagon,1,0,,,2,,,,,,j,0.9144,9,0,9,0,1,,,,,,,,,,,,,,,,,,,,,,,,,,,,,,,,,,
295729,2022-09-23_15h28.15.171,vts_reward_expectancy,2022.2.4,MacIntel,59.99880002,Chrome,1440,900,,,,,0,621,,,,,,,,,,,,,,,,,Y,132,star,-1,0,,,3,,,,,,,,,,,,,-1,no_choice,NA,,vtsPrac,0,0,0,0,1,,,,,,,,,,,,,,,,,,,,,,,,
295729,2022-09-23_15h28.15.171,vts_reward_expectancy,2022.2.4,MacIntel,59.99880002,Chrome,1440,900,,,,,0,621,,,,,,,,,,,,,,,,,S,160,circle,1,0,,,3,,,,,,,,,,,,,switch,number,numSwt,k,vtsPrac,1,0,1,0,1,0.9695,,,,,,,,,,,,,,,,,,,,,,,
295729,2022-09-23_15h28.15.171,vts_reward_expectancy,2022.2.4,MacIntel,59.99880002,Chrome,1440,900,,,,,0,621,,,,,,,,,,,,,,,,,B,146,star,1,0,,,3,,,,,,,,,,,,,switch,letter,lettSwt,d,vtsPrac,2,0,2,0,1,1.8809,,,,,,,,,,,,,,,,,,,,,,,
295729,2022-09-23_15h28.15.171,vts_reward_expectancy,2022.2.4,MacIntel,59.99880002,Chrome,1440,900,,,,,0,621,,,,,,,,,,,,,,,,,U,167,circle,1,0,,,3,,,,,,,,,,,,,repeat,letter,lettRpt,f,vtsPrac,3,0,3,0,1,0.6976,,,,,,,,,,,,,,,,,,,,,,,
295729,2022-09-23_15h28.15.171,vts_reward_expectancy,2022.2.4,MacIntel,59.99880002,Chrome,1440,900,,,,,0,621,,,,,,,,,,,,,,,,,Y,132,hexagon,1,0,,,3,,,,,,,,,,,,,switch,number,numSwt,j,vtsPrac,4,0,4,0,1,0.6475,,,,,,,,,,,,,,,,,,,,,,,
295729,2022-09-23_15h28.15.171,vts_reward_expectancy,2022.2.4,MacIntel,59.99880002,Chrome,1440,900,,,,,0,621,,,,,,,,,,,,,,,,,S,160,triangle,1,0,,,3,,,,,,,,,,,,,repeat,number,numRpt,k,vtsPrac,5,0,5,0,1,0.6967,,,,,,,,,,,,,,,,,,,,,,,
295729,2022-09-23_15h28.15.171,vts_reward_expectancy,2022.2.4,MacIntel,59.99880002,Chrome,1440,900,,,,,0,621,,,,,,,,,,,,,,,,,B,146,triangle,1,0,,,3,,,,,,,,,,,,,repeat,number,numRpt,j,vtsPrac,6,0,6,0,1,0.5303,,,,,,,,,,,,,,,,,,,,,,,
295729,2022-09-23_15h28.15.171,vts_reward_expectancy,2022.2.4,MacIntel,59.99880002,Chrome,1440,900,,,,,0,621,,,,,,,,,,,,,,,,,U,167,hexagon,1,0,,,3,,,,,,,,,,,,,switch,letter,lettSwt,f,vtsPrac,7,0,7,0,1,0.5796,,,,,,,,,,,,,,,,,,,,,,,
295729,2022-09-23_15h28.15.171,vts_reward_expectancy,2022.2.4,MacIntel,59.99880002,Chrome,1440,900,,,,,0,621,,,,,,,,,,,,,,,,,F,125,star,1,0,,,3,,,,,,,,,,,,,repeat,letter,lettRpt,d,vtsPrac,8,0,8,0,1,1.1309,,,,,,,,,,,,,,,,,,,,,,,
295729,2022-09-23_15h28.15.171,vts_reward_expectancy,2022.2.4,MacIntel,59.99880002,Chrome,1440,900,,,,,0,621,,,,,,,,,,,,,,,,,S,174,triangle,1,0,,,3,,,,,,,,,,,,,switch,number,numSwt,k,vtsPrac,9,0,9,0,1,0.5192,,,,,,,,,,,,,,,,,,,,,,,
295729,2022-09-23_15h28.15.171,vts_reward_expectancy,2022.2.4,MacIntel,59.99880002,Chrome,1440,900,,,,,0,621,,,,,,,,,,,,,,,,,W,181,circle,1,0,,,3,,,,,,,,,,,,,switch,letter,lettSwt,f,vtsPrac,10,0,10,0,1,0.6468,,,,,,,,,,,,,,,,,,,,,,,
295729,2022-09-23_15h28.15.171,vts_reward_expectancy,2022.2.4,MacIntel,59.99880002,Chrome,1440,900,,,,,0,621,,,,,,,,,,,,,,,,,H,132,triangle,1,0,,,3,,,,,,,,,,,,,repeat,letter,lettRpt,d,vtsPrac,11,0,11,0,1,0.6713,,,,,,,,,,,,,,,,,,,,,,,
295729,2022-09-23_15h28.15.171,vts_reward_expectancy,2022.2.4,MacIntel,59.99880002,Chrome,1440,900,,,,,0,621,,,,,,,,,,,,,,,,,W,160,triangle,1,0,,,3,,,,,,,,,,,,,repeat,letter,lettRpt,f,vtsPrac,12,0,12,0,1,0.8467,,,,,,,,,,,,,,,,,,,,,,,
295729,2022-09-23_15h28.15.171,vts_reward_expectancy,2022.2.4,MacIntel,59.99880002,Chrome,1440,900,,,,,0,621,,,,,,,,,,,,,,,,,B,132,circle,1,0,,,3,,,,,,,,,,,,,switch,number,numSwt,j,vtsPrac,13,0,13,0,1,0.581,,,,,,,,,,,,,,,,,,,,,,,
295729,2022-09-23_15h28.15.171,vts_reward_expectancy,2022.2.4,MacIntel,59.99880002,Chrome,1440,900,,,,,0,621,,,,,,,,,,,,,,,,,D,125,star,1,0,,,3,,,,,,,,,,,,,repeat,number,numRpt,j,vtsPrac,14,0,14,0,1,0.5712,,,,,,,,,,,,,,,,,,,,,,,
295729,2022-09-23_15h28.15.171,vts_reward_expectancy,2022.2.4,MacIntel,59.99880002,Chrome,1440,900,,,,,0,621,,,,,,,,,,,,,,,,,S,146,circle,1,0,,,3,,,,,,,,,,,,,switch,letter,lettSwt,f,vtsPrac,15,0,15,0,1,1.42,,,,,,,,,,,,,,,,,,,,,,,
295729,2022-09-23_15h28.15.171,vts_reward_expectancy,2022.2.4,MacIntel,59.99880002,Chrome,1440,900,,,,,,,,,,,,,,,,,,,,,,,,,,,,,,,,,,,,,,,,,,,,,,,,,,,,,,,,,,,,,,,,,,,,,,,,,,,,
295729,2022-09-23_15h28.15.171,vts_reward_expectancy,2022.2.4,MacIntel,59.99880002,Chrome,1440,900,,,,,,,,,,,,,,,,,,,,,,,,,,,,,,,,,,,,,,,,,,,,,,,,,,,,,,,,,,,,,,,,,,,,,,,,,,,,
295729,2022-09-23_15h28.15.171,vts_reward_expectancy,2022.2.4,MacIntel,59.99880002,Chrome,1440,900,,,,,0,621,,,,,,,,,,,,,,,,,S,132,hexagon,1,0,,,,,,,,,,,,,,,,repeat,letter,lettRpt,f,noRew,,,,,,1.3156,0,0,0,0,0,1,,,,,,,,,,,,,,,,,
295729,2022-09-23_15h28.15.171,vts_reward_expectancy,2022.2.4,MacIntel,59.99880002,Chrome,1440,900,,,,,0,621,,,,,,,,,,,,,,,,,B,160,star,1,0,,,,,,,,,,,,,,,,switch,number,numSwt,k,noRew,,,,,,1.8707,0,1,0,1,0,1,,,,,,,,,,,,,,,,,
295729,2022-09-23_15h28.15.171,vts_reward_expectancy,2022.2.4,MacIntel,59.99880002,Chrome,1440,900,,,,,0,621,,,,,,,,,,,,,,,,,U,146,hexagon,1,0,,,,,,,,,,,,,,,,repeat,number,numRpt,j,noRew,,,,,,1.2971,0,2,0,2,0,1,,,,,,,,,,,,,,,,,
295729,2022-09-23_15h28.15.171,vts_reward_expectancy,2022.2.4,MacIntel,59.99880002,Chrome,1440,900,,,,,0,621,,,,,,,,,,,,,,,,,Y,167,star,1,0,,,,,,,,,,,,,,,,switch,letter,lettSwt,f,noRew,,,,,,0.6303,0,3,0,3,0,1,,,,,,,,,,,,,,,,,
295729,2022-09-23_15h28.15.171,vts_reward_expectancy,2022.2.4,MacIntel,59.99880002,Chrome,1440,900,,,,,0,621,,,,,,,,,,,,,,,,,S,132,hexagon,1,0,,,,,,,,,,,,,,,,repeat,letter,lettRpt,f,noRew,,,,,,0.6979,0,4,0,4,0,1,,,,,,,,,,,,,,,,,
295729,2022-09-23_15h28.15.171,vts_reward_expectancy,2022.2.4,MacIntel,59.99880002,Chrome,1440,900,,,,,0,621,,,,,,,,,,,,,,,,,B,160,star,1,0,,,,,,,,,,,,,,,,switch,number,numSwt,k,noRew,,,,,,1.4307,0,5,0,5,0,1,,,,,,,,,,,,,,,,,
295729,2022-09-23_15h28.15.171,vts_reward_expectancy,2022.2.4,MacIntel,59.99880002,Chrome,1440,900,,,,,0,621,,,,,,,,,,,,,,,,,U,146,hexagon,1,0,,,,,,,,,,,,,,,,switch,letter,lettSwt,f,noRew,,,,,,0.7842,0,6,0,6,0,1,,,,,,,,,,,,,,,,,
295729,2022-09-23_15h28.15.171,vts_reward_expectancy,2022.2.4,MacIntel,59.99880002,Chrome,1440,900,,,,,0,621,,,,,,,,,,,,,,,,,Y,167,circle,1,0,,,,,,,,,,,,,,,,repeat,letter,lettRpt,f,noRew,,,,,,0.5969,0,7,0,7,0,1,,,,,,,,,,,,,,,,,
295729,2022-09-23_15h28.15.171,vts_reward_expectancy,2022.2.4,MacIntel,59.99880002,Chrome,1440,900,,,,,0,621,,,,,,,,,,,,,,,,,H,146,triangle,1,0,,,,,,,,,,,,,,,,repeat,letter,lettRpt,d,noRew,,,,,,0.7641,0,8,0,8,0,1,,,,,,,,,,,,,,,,,
295729,2022-09-23_15h28.15.171,vts_reward_expectancy,2022.2.4,MacIntel,59.99880002,Chrome,1440,900,,,,,0,621,,,,,,,,,,,,,,,,,F,132,star,1,0,,,,,,,,,,,,,,,,switch,number,numSwt,j,noRew,,,,,,0.5385,0,9,0,9,0,1,,,,,,,,,,,,,,,,,
295729,2022-09-23_15h28.15.171,vts_reward_expectancy,2022.2.4,MacIntel,59.99880002,Chrome,1440,900,,,,,0,621,,,,,,,,,,,,,,,,,B,160,star,1,0,,,,,,,,,,,,,,,,repeat,number,numRpt,k,noRew,,,,,,1.013,0,10,0,10,0,1,,,,,,,,,,,,,,,,,
295729,2022-09-23_15h28.15.171,vts_reward_expectancy,2022.2.4,MacIntel,59.99880002,Chrome,1440,900,,,,,0,621,,,,,,,,,,,,,,,,,S,167,hexagon,1,0,,,,,,,,,,,,,,,,switch,letter,lettSwt,f,noRew,,,,,,0.5972,0,11,0,11,0,1,,,,,,,,,,,,,,,,,
295729,2022-09-23_15h28.15.171,vts_reward_expectancy,2022.2.4,MacIntel,59.99880002,Chrome,1440,900,,,,,0,621,,,,,,,,,,,,,,,,,Y,132,triangle,1,0,,,,,,,,,,,,,,,,switch,number,numSwt,j,noRew,,,,,,0.8687,0,12,0,12,0,1,,,,,,,,,,,,,,,,,
295729,2022-09-23_15h28.15.171,vts_reward_expectancy,2022.2.4,MacIntel,59.99880002,Chrome,1440,900,,,,,0,621,,,,,,,,,,,,,,,,,D,139,star,1,0,,,,,,,,,,,,,,,,repeat,number,numRpt,j,noRew,,,,,,0.914,0,13,0,13,0,1,,,,,,,,,,,,,,,,,
295729,2022-09-23_15h28.15.171,vts_reward_expectancy,2022.2.4,MacIntel,59.99880002,Chrome,1440,900,,,,,0,621,,,,,,,,,,,,,,,,,F,174,circle,1,0,,,,,,,,,,,,,,,,repeat,number,numRpt,k,noRew,,,,,,0.5843,0,14,0,14,0,1,,,,,,,,,,,,,,,,,
295729,2022-09-23_15h28.15.171,vts_reward_expectancy,2022.2.4,MacIntel,59.99880002,Chrome,1440,900,,,,,0,621,,,,,,,,,,,,,,,,,B,146,triangle,1,0,,,,,,,,,,,,,,,,switch,letter,lettSwt,d,noRew,,,,,,0.5482,0,15,0,15,0,1,,,,,,,,,,,,,,,,,
295729,2022-09-23_15h28.15.171,vts_reward_expectancy,2022.2.4,MacIntel,59.99880002,Chrome,1440,900,,,,,0,621,,,,,,,,,,,,,,,,,U,167,triangle,1,0,,,,,,,,,,,,,,,,switch,number,numSwt,k,noRew,,,,,,0.5641,0,16,0,16,0,1,,,,,,,,,,,,,,,,,
295729,2022-09-23_15h28.15.171,vts_reward_expectancy,2022.2.4,MacIntel,59.99880002,Chrome,1440,900,,,,,0,621,,,,,,,,,,,,,,,,,B,125,circle,1,0,,,,,,,,,,,,,,,,switch,letter,lettSwt,d,noRew,,,,,,0.7648,0,17,0,17,0,1,,,,,,,,,,,,,,,,,
295729,2022-09-23_15h28.15.171,vts_reward_expectancy,2022.2.4,MacIntel,59.99880002,Chrome,1440,900,,,,,0,621,,,,,,,,,,,,,,,,,Y,160,circle,1,0,,,,,,,,,,,,,,,,repeat,letter,lettRpt,f,noRew,,,,,,0.6309,0,18,0,18,0,1,,,,,,,,,,,,,,,,,
295729,2022-09-23_15h28.15.171,vts_reward_expectancy,2022.2.4,MacIntel,59.99880002,Chrome,1440,900,,,,,0,621,,,,,,,,,,,,,,,,,D,181,triangle,1,0,,,,,,,,,,,,,,,,repeat,letter,lettRpt,d,noRew,,,,,,0.7651,0,19,0,19,0,1,,,,,,,,,,,,,,,,,
295729,2022-09-23_15h28.15.171,vts_reward_expectancy,2022.2.4,MacIntel,59.99880002,Chrome,1440,900,,,,,0,621,,,,,,,,,,,,,,,,,W,174,star,1,0,,,,,,,,,,,,,,,,switch,number,numSwt,k,noRew,,,,,,0.5855,0,20,0,20,0,1,,,,,,,,,,,,,,,,,
295729,2022-09-23_15h28.15.171,vts_reward_expectancy,2022.2.4,MacIntel,59.99880002,Chrome,1440,900,,,,,0,621,,,,,,,,,,,,,,,,,Y,181,circle,1,0,,,,,,,,,,,,,,,,repeat,number,numRpt,k,noRew,,,,,,0.5977,0,21,0,21,0,1,,,,,,,,,,,,,,,,,
295729,2022-09-23_15h28.15.171,vts_reward_expectancy,2022.2.4,MacIntel,59.99880002,Chrome,1440,900,,,,,0,621,,,,,,,,,,,,,,,,,F,167,star,1,0,,,,,,,,,,,,,,,,switch,letter,lettSwt,d,noRew,,,,,,0.9212,0,22,0,22,0,1,,,,,,,,,,,,,,,,,
295729,2022-09-23_15h28.15.171,vts_reward_expectancy,2022.2.4,MacIntel,59.99880002,Chrome,1440,900,,,,,0,621,,,,,,,,,,,,,,,,,B,160,triangle,1,0,,,,,,,,,,,,,,,,repeat,letter,lettRpt,d,noRew,,,,,,0.7503,0,23,0,23,0,1,,,,,,,,,,,,,,,,,
295729,2022-09-23_15h28.15.171,vts_reward_expectancy,2022.2.4,MacIntel,59.99880002,Chrome,1440,900,,,,,0,621,,,,,,,,,,,,,,,,,D,139,triangle,1,0,,,,,,,,,,,,,,,,repeat,letter,lettRpt,d,noRew,,,,,,0.6059,0,24,0,24,0,1,,,,,,,,,,,,,,,,,
295729,2022-09-23_15h28.15.171,vts_reward_expectancy,2022.2.4,MacIntel,59.99880002,Chrome,1440,900,,,,,0,621,,,,,,,,,,,,,,,,,H,125,star,1,0,,,,,,,,,,,,,,,,switch,number,numSwt,j,noRew,,,,,,0.6171,0,25,0,25,0,1,,,,,,,,,,,,,,,,,
295729,2022-09-23_15h28.15.171,vts_reward_expectancy,2022.2.4,MacIntel,59.99880002,Chrome,1440,900,,,,,0,621,,,,,,,,,,,,,,,,,Y,174,hexagon,1,0,,,,,,,,,,,,,,,,repeat,number,numRpt,k,noRew,,,,,,0.5473,0,26,0,26,0,1,,,,,,,,,,,,,,,,,
295729,2022-09-23_15h28.15.171,vts_reward_expectancy,2022.2.4,MacIntel,59.99880002,Chrome,1440,900,,,,,0,621,,,,,,,,,,,,,,,,,F,146,triangle,1,0,,,,,,,,,,,,,,,,switch,letter,lettSwt,d,noRew,,,,,,0.9806,0,27,0,27,0,1,,,,,,,,,,,,,,,,,
295729,2022-09-23_15h28.15.171,vts_reward_expectancy,2022.2.4,MacIntel,59.99880002,Chrome,1440,900,,,,,0,621,,,,,,,,,,,,,,,,,U,174,triangle,1,0,,,,,,,,,,,,,,,,repeat,letter,lettRpt,f,noRew,,,,,,0.6807,0,28,0,28,0,1,,,,,,,,,,,,,,,,,
295729,2022-09-23_15h28.15.171,vts_reward_expectancy,2022.2.4,MacIntel,59.99880002,Chrome,1440,900,,,,,0,621,,,,,,,,,,,,,,,,,S,160,hexagon,0,0,,,,,,,,,,,,,,,,switch,number,NA,j,noRew,,,,,,1.8137,0,29,0,29,0,1,,,,,,,,,,,,,,,,,
295729,2022-09-23_15h28.15.171,vts_reward_expectancy,2022.2.4,MacIntel,59.99880002,Chrome,1440,900,,,,,0,621,,,,,,,,,,,,,,,,,Y,167,triangle,1,1,,,,,,,,,,,,,,,,switch,letter,lettSwt,f,noRew,,,,,,0.9158,0,30,0,30,0,1,,,,,,,,,,,,,,,,,
295729,2022-09-23_15h28.15.171,vts_reward_expectancy,2022.2.4,MacIntel,59.99880002,Chrome,1440,900,,,,,0,621,,,,,,,,,,,,,,,,,H,181,star,1,0,,,,,,,,,,,,,,,,switch,number,numSwt,k,noRew,,,,,,0.7975,0,31,0,31,0,1,,,,,,,,,,,,,,,,,
295729,2022-09-23_15h28.15.171,vts_reward_expectancy,2022.2.4,MacIntel,59.99880002,Chrome,1440,900,,,,,0,621,,,,,,,,,,,,,,,,,B,181,star,1,0,,,,,,,,,,,,,,,,repeat,number,numRpt,k,noRew,,,,,,0.5998,0,32,0,32,0,1,,,,,,,,,,,,,,,,,
295729,2022-09-23_15h28.15.171,vts_reward_expectancy,2022.2.4,MacIntel,59.99880002,Chrome,1440,900,,,,,0,621,,,,,,,,,,,,,,,,,W,160,circle,1,0,,,,,,,,,,,,,,,,switch,letter,lettSwt,f,noRew,,,,,,1.6847,0,33,0,33,0,1,,,,,,,,,,,,,,,,,
295729,2022-09-23_15h28.15.171,vts_reward_expectancy,2022.2.4,MacIntel,59.99880002,Chrome,1440,900,,,,,0,621,,,,,,,,,,,,,,,,,D,125,star,1,0,,,,,,,,,,,,,,,,repeat,letter,lettRpt,d,noRew,,,,,,1.1802,0,34,0,34,0,1,,,,,,,,,,,,,,,,,
295729,2022-09-23_15h28.15.171,vts_reward_expectancy,2022.2.4,MacIntel,59.99880002,Chrome,1440,900,,,,,0,621,,,,,,,,,,,,,,,,,U,132,triangle,1,0,,,,,,,,,,,,,,,,switch,number,numSwt,j,noRew,,,,,,1.0802,0,35,0,35,0,1,,,,,,,,,,,,,,,,,
295729,2022-09-23_15h28.15.171,vts_reward_expectancy,2022.2.4,MacIntel,59.99880002,Chrome,1440,900,,,,,0,621,,,,,,,,,,,,,,,,,U,139,circle,1,0,,,,,,,,,,,,,,,,repeat,number,numRpt,j,noRew,,,,,,0.9494,0,36,0,36,0,1,,,,,,,,,,,,,,,,,
295729,2022-09-23_15h28.15.171,vts_reward_expectancy,2022.2.4,MacIntel,59.99880002,Chrome,1440,900,,,,,0,621,,,,,,,,,,,,,,,,,B,160,triangle,1,0,,,,,,,,,,,,,,,,repeat,number,numRpt,k,noRew,,,,,,0.6645,0,37,0,37,0,1,,,,,,,,,,,,,,,,,
295729,2022-09-23_15h28.15.171,vts_reward_expectancy,2022.2.4,MacIntel,59.99880002,Chrome,1440,900,,,,,0,621,,,,,,,,,,,,,,,,,S,125,star,0,0,,,,,,,,,,,,,,,,switch,letter,NA,d,noRew,,,,,,0.6317,0,38,0,38,0,1,,,,,,,,,,,,,,,,,
295729,2022-09-23_15h28.15.171,vts_reward_expectancy,2022.2.4,MacIntel,59.99880002,Chrome,1440,900,,,,,0,621,,,,,,,,,,,,,,,,,W,174,circle,1,1,,,,,,,,,,,,,,,,repeat,letter,lettRpt,f,noRew,,,,,,0.6646,0,39,0,39,0,1,,,,,,,,,,,,,,,,,
295729,2022-09-23_15h28.15.171,vts_reward_expectancy,2022.2.4,MacIntel,59.99880002,Chrome,1440,900,,,,,0,621,,,,,,,,,,,,,,,,,F,167,hexagon,1,0,,,,,,,,,,,,,,,,repeat,letter,lettRpt,d,noRew,,,,,,0.7342,0,40,0,40,0,1,,,,,,,,,,,,,,,,,
295729,2022-09-23_15h28.15.171,vts_reward_expectancy,2022.2.4,MacIntel,59.99880002,Chrome,1440,900,,,,,0,621,,,,,,,,,,,,,,,,,Y,132,triangle,1,0,,,,,,,,,,,,,,,,repeat,letter,lettRpt,f,noRew,,,,,,0.6662,0,41,0,41,0,1,,,,,,,,,,,,,,,,,
295729,2022-09-23_15h28.15.171,vts_reward_expectancy,2022.2.4,MacIntel,59.99880002,Chrome,1440,900,,,,,0,621,,,,,,,,,,,,,,,,,W,139,triangle,1,0,,,,,,,,,,,,,,,,repeat,letter,lettRpt,f,noRew,,,,,,0.7823,0,42,0,42,0,1,,,,,,,,,,,,,,,,,
295729,2022-09-23_15h28.15.171,vts_reward_expectancy,2022.2.4,MacIntel,59.99880002,Chrome,1440,900,,,,,0,621,,,,,,,,,,,,,,,,,D,160,hexagon,1,0,,,,,,,,,,,,,,,,switch,number,numSwt,k,noRew,,,,,,0.8367,0,43,0,43,0,1,,,,,,,,,,,,,,,,,
295729,2022-09-23_15h28.15.171,vts_reward_expectancy,2022.2.4,MacIntel,59.99880002,Chrome,1440,900,,,,,0,621,,,,,,,,,,,,,,,,,S,174,hexagon,1,0,,,,,,,,,,,,,,,,repeat,number,numRpt,k,noRew,,,,,,0.7633,0,44,0,44,0,1,,,,,,,,,,,,,,,,,
295729,2022-09-23_15h28.15.171,vts_reward_expectancy,2022.2.4,MacIntel,59.99880002,Chrome,1440,900,,,,,0,621,,,,,,,,,,,,,,,,,U,132,circle,1,0,,,,,,,,,,,,,,,,repeat,number,numRpt,j,noRew,,,,,,0.8654,0,45,0,45,0,1,,,,,,,,,,,,,,,,,
295729,2022-09-23_15h28.15.171,vts_reward_expectancy,2022.2.4,MacIntel,59.99880002,Chrome,1440,900,,,,,0,621,,,,,,,,,,,,,,,,,W,146,hexagon,1,0,,,,,,,,,,,,,,,,repeat,number,numRpt,j,noRew,,,,,,1.8848,0,46,0,46,0,1,,,,,,,,,,,,,,,,,
295729,2022-09-23_15h28.15.171,vts_reward_expectancy,2022.2.4,MacIntel,59.99880002,Chrome,1440,900,,,,,0,621,,,,,,,,,,,,,,,,,D,125,triangle,1,0,,,,,,,,,,,,,,,,switch,letter,lettSwt,d,noRew,,,,,,0.7813,0,47,0,47,0,1,,,,,,,,,,,,,,,,,
295729,2022-09-23_15h28.15.171,vts_reward_expectancy,2022.2.4,MacIntel,59.99880002,Chrome,1440,900,,,,,0,621,,,,,,,,,,,,,,,,,B,160,circle,1,0,,,,,,,,,,,,,,,,repeat,letter,lettRpt,d,noRew,,,,,,0.7149,0,48,0,48,0,1,,,,,,,,,,,,,,,,,
295729,2022-09-23_15h28.15.171,vts_reward_expectancy,2022.2.4,MacIntel,59.99880002,Chrome,1440,900,,,,,0,621,,,,,,,,,,,,,,,,,W,181,triangle,1,0,,,,,,,,,,,,,,,,repeat,letter,lettRpt,f,noRew,,,,,,0.6307,0,49,0,49,0,1,,,,,,,,,,,,,,,,,
295729,2022-09-23_15h28.15.171,vts_reward_expectancy,2022.2.4,MacIntel,59.99880002,Chrome,1440,900,,,,,0,621,,,,,,,,,,,,,,,,,Y,139,hexagon,1,0,,,,,,,,,,,,,,,,repeat,letter,lettRpt,f,noRew,,,,,,0.6469,0,50,0,50,0,1,,,,,,,,,,,,,,,,,
295729,2022-09-23_15h28.15.171,vts_reward_expectancy,2022.2.4,MacIntel,59.99880002,Chrome,1440,900,,,,,0,621,,,,,,,,,,,,,,,,,S,174,triangle,1,0,,,,,,,,,,,,,,,,switch,number,numSwt,k,noRew,,,,,,0.6315,0,51,0,51,0,1,,,,,,,,,,,,,,,,,
295729,2022-09-23_15h28.15.171,vts_reward_expectancy,2022.2.4,MacIntel,59.99880002,Chrome,1440,900,,,,,0,621,,,,,,,,,,,,,,,,,Y,125,triangle,1,0,,,,,,,,,,,,,,,,repeat,number,numRpt,j,noRew,,,,,,0.8478,0,52,0,52,0,1,,,,,,,,,,,,,,,,,
295729,2022-09-23_15h28.15.171,vts_reward_expectancy,2022.2.4,MacIntel,59.99880002,Chrome,1440,900,,,,,0,621,,,,,,,,,,,,,,,,,S,139,circle,1,0,,,,,,,,,,,,,,,,repeat,number,numRpt,j,noRew,,,,,,1.6503,0,53,0,53,0,1,,,,,,,,,,,,,,,,,
295729,2022-09-23_15h28.15.171,vts_reward_expectancy,2022.2.4,MacIntel,59.99880002,Chrome,1440,900,,,,,0,621,,,,,,,,,,,,,,,,,W,174,triangle,1,0,,,,,,,,,,,,,,,,switch,letter,lettSwt,f,noRew,,,,,,0.6674,0,54,0,54,0,1,,,,,,,,,,,,,,,,,
295729,2022-09-23_15h28.15.171,vts_reward_expectancy,2022.2.4,MacIntel,59.99880002,Chrome,1440,900,,,,,0,621,,,,,,,,,,,,,,,,,U,167,star,1,0,,,,,,,,,,,,,,,,repeat,letter,lettRpt,f,noRew,,,,,,0.8169,0,55,0,55,0,1,,,,,,,,,,,,,,,,,
295729,2022-09-23_15h28.15.171,vts_reward_expectancy,2022.2.4,MacIntel,59.99880002,Chrome,1440,900,,,,,0,621,,,,,,,,,,,,,,,,,S,132,star,1,0,,,,,,,,,,,,,,,,switch,number,numSwt,j,noRew,,,,,,1.4037,0,56,0,56,0,1,,,,,,,,,,,,,,,,,
295729,2022-09-23_15h28.15.171,vts_reward_expectancy,2022.2.4,MacIntel,59.99880002,Chrome,1440,900,,,,,0,621,,,,,,,,,,,,,,,,,Y,160,triangle,1,0,,,,,,,,,,,,,,,,switch,letter,lettSwt,f,noRew,,,,,,0.5799,0,57,0,57,0,1,,,,,,,,,,,,,,,,,
295729,2022-09-23_15h28.15.171,vts_reward_expectancy,2022.2.4,MacIntel,59.99880002,Chrome,1440,900,,,,,0,621,,,,,,,,,,,,,,,,,B,167,circle,1,0,,,,,,,,,,,,,,,,repeat,letter,lettRpt,d,noRew,,,,,,0.6496,0,58,0,58,0,1,,,,,,,,,,,,,,,,,
295729,2022-09-23_15h28.15.171,vts_reward_expectancy,2022.2.4,MacIntel,59.99880002,Chrome,1440,900,,,,,0,621,,,,,,,,,,,,,,,,,U,125,triangle,1,0,,,,,,,,,,,,,,,,repeat,letter,lettRpt,f,noRew,,,,,,0.7678,0,59,0,59,0,1,,,,,,,,,,,,,,,,,
295729,2022-09-23_15h28.15.171,vts_reward_expectancy,2022.2.4,MacIntel,59.99880002,Chrome,1440,900,,,,,0,621,,,,,,,,,,,,,,,,,Y,174,star,1,0,,,,,,,,,,,,,,,,repeat,letter,lettRpt,f,noRew,,,,,,0.6196,0,60,0,60,0,1,,,,,,,,,,,,,,,,,
295729,2022-09-23_15h28.15.171,vts_reward_expectancy,2022.2.4,MacIntel,59.99880002,Chrome,1440,900,,,,,0,621,,,,,,,,,,,,,,,,,D,181,triangle,1,0,,,,,,,,,,,,,,,,switch,number,numSwt,k,noRew,,,,,,0.686,0,61,0,61,0,1,,,,,,,,,,,,,,,,,
295729,2022-09-23_15h28.15.171,vts_reward_expectancy,2022.2.4,MacIntel,59.99880002,Chrome,1440,900,,,,,0,621,,,,,,,,,,,,,,,,,B,146,hexagon,1,0,,,,,,,,,,,,,,,,repeat,number,numRpt,j,noRew,,,,,,0.7141,0,62,0,62,0,1,,,,,,,,,,,,,,,,,
295729,2022-09-23_15h28.15.171,vts_reward_expectancy,2022.2.4,MacIntel,59.99880002,Chrome,1440,900,,,,,0,621,,,,,,,,,,,,,,,,,F,132,star,1,0,,,,,,,,,,,,,,,,switch,letter,lettSwt,d,noRew,,,,,,0.9823,0,63,0,63,0,1,,,,,,,,,,,,,,,,,
295729,2022-09-23_15h28.15.171,vts_reward_expectancy,2022.2.4,MacIntel,59.99880002,Chrome,1440,900,,,,,,,,,,,,,,,,,,,,,,,,,,,,,,,,,,,,,,,,,,,,,,,,,,,,,,,,,,,,,,,,,,,,,,,,,,,,
295729,2022-09-23_15h28.15.171,vts_reward_expectancy,2022.2.4,MacIntel,59.99880002,Chrome,1440,900,,,,,0,621,,,,,,,,,,,,,,,,,B,125,triangle,1,0,,,,,,,,,,,,,,,,repeat,letter,lettRpt,d,Hi,,,,,,0.9301,0,,,,,,space,4.5998,low,0,0,0,0,1,,,,,,,,,
295729,2022-09-23_15h28.15.171,vts_reward_expectancy,2022.2.4,MacIntel,59.99880002,Chrome,1440,900,,,,,0,621,,,,,,,,,,,,,,,,,F,174,star,0,0,,,,,,,,,,,,,,,,repeat,letter,NA,f,Hi,,,,,,0.4805,0,,,,,,,,low,1,0,1,0,1,,,,,,,,,
295729,2022-09-23_15h28.15.171,vts_reward_expectancy,2022.2.4,MacIntel,59.99880002,Chrome,1440,900,,,,,1,622,,,,,,,,,,,,,,,,,D,132,triangle,1,1,,,,,,,,,,,,,,,,repeat,letter,lettRpt,d,Hi,,,,,,0.516,0,,,,,,,,low,2,0,2,0,1,,,,,,,,,
295729,2022-09-23_15h28.15.171,vts_reward_expectancy,2022.2.4,MacIntel,59.99880002,Chrome,1440,900,,,,,0,622,,,,,,,,,,,,,,,,,Y,167,star,0,0,,,,,,,,,,,,,,,,switch,number,NA,j,Hi,,,,,,0.4624,0,,,,,,,,low,3,0,3,0,1,,,,,,,,,
295729,2022-09-23_15h28.15.171,vts_reward_expectancy,2022.2.4,MacIntel,59.99880002,Chrome,1440,900,,,,,10,632,,,,,,,,,,,,,,,,,S,181,star,1,1,,,,,,,,,,,,,,,,repeat,number,numRpt,k,Lo,,,,,,0.4901,0,,,,,,,,low,4,0,4,0,1,,,,,,,,,
295729,2022-09-23_15h28.15.171,vts_reward_expectancy,2022.2.4,MacIntel,59.99880002,Chrome,1440,900,,,,,10,642,,,,,,,,,,,,,,,,,W,146,triangle,1,0,,,,,,,,,,,,,,,,switch,letter,lettSwt,f,Hi,,,,,,0.5803,0,,,,,,,,low,5,0,5,0,1,,,,,,,,,
295729,2022-09-23_15h28.15.171,vts_reward_expectancy,2022.2.4,MacIntel,59.99880002,Chrome,1440,900,,,,,0,642,,,,,,,,,,,,,,,,,U,139,triangle,1,0,,,,,,,,,,,,,,,,repeat,letter,lettRpt,f,Hi,,,,,,0.6643,0,,,,,,,,low,6,0,6,0,1,,,,,,,,,
295729,2022-09-23_15h28.15.171,vts_reward_expectancy,2022.2.4,MacIntel,59.99880002,Chrome,1440,900,,,,,1,643,,,,,,,,,,,,,,,,,H,160,star,1,0,,,,,,,,,,,,,,,,repeat,letter,lettRpt,d,Lo,,,,,,0.4358,0,,,,,,,,low,7,0,7,0,1,,,,,,,,,
295729,2022-09-23_15h28.15.171,vts_reward_expectancy,2022.2.4,MacIntel,59.99880002,Chrome,1440,900,,,,,10,653,,,,,,,,,,,,,,,,,B,125,triangle,1,0,,,,,,,,,,,,,,,,switch,number,numSwt,j,Hi,,,,,,0.4039,0,,,,,,,,low,8,0,8,0,1,,,,,,,,,
295729,2022-09-23_15h28.15.171,vts_reward_expectancy,2022.2.4,MacIntel,59.99880002,Chrome,1440,900,,,,,1,654,,,,,,,,,,,,,,,,,F,174,star,1,0,,,,,,,,,,,,,,,,repeat,number,numRpt,k,Lo,,,,,,0.4498,0,,,,,,,,low,9,0,9,0,1,,,,,,,,,
295729,2022-09-23_15h28.15.171,vts_reward_expectancy,2022.2.4,MacIntel,59.99880002,Chrome,1440,900,,,,,10,664,,,,,,,,,,,,,,,,,D,132,triangle,1,0,,,,,,,,,,,,,,,,switch,letter,lettSwt,d,Hi,,,,,,0.531,0,,,,,,,,low,10,0,10,0,1,,,,,,,,,
295729,2022-09-23_15h28.15.171,vts_reward_expectancy,2022.2.4,MacIntel,59.99880002,Chrome,1440,900,,,,,10,674,,,,,,,,,,,,,,,,,Y,167,star,1,0,,,,,,,,,,,,,,,,repeat,letter,lettRpt,f,Lo,,,,,,0.5165,0,,,,,,,,low,11,0,11,0,1,,,,,,,,,
295729,2022-09-23_15h28.15.171,vts_reward_expectancy,2022.2.4,MacIntel,59.99880002,Chrome,1440,900,,,,,1,675,,,,,,,,,,,,,,,,,S,181,triangle,1,0,,,,,,,,,,,,,,,,switch,number,numSwt,k,Hi,,,,,,0.4802,0,,,,,,,,low,12,0,12,0,1,,,,,,,,,
295729,2022-09-23_15h28.15.171,vts_reward_expectancy,2022.2.4,MacIntel,59.99880002,Chrome,1440,900,,,,,1,676,,,,,,,,,,,,,,,,,W,146,star,1,0,,,,,,,,,,,,,,,,repeat,number,numRpt,j,Lo,,,,,,0.5149,0,,,,,,,,low,13,0,13,0,1,,,,,,,,,
295729,2022-09-23_15h28.15.171,vts_reward_expectancy,2022.2.4,MacIntel,59.99880002,Chrome,1440,900,,,,,10,686,,,,,,,,,,,,,,,,,U,139,star,1,0,,,,,,,,,,,,,,,,switch,letter,lettSwt,f,Lo,,,,,,0.6535,0,,,,,,,,low,14,0,14,0,1,,,,,,,,,
295729,2022-09-23_15h28.15.171,vts_reward_expectancy,2022.2.4,MacIntel,59.99880002,Chrome,1440,900,,,,,1,687,,,,,,,,,,,,,,,,,H,160,triangle,1,0,,,,,,,,,,,,,,,,repeat,letter,lettRpt,d,Hi,,,,,,0.597,0,,,,,,,,low,15,0,15,0,1,,,,,,,,,
295729,2022-09-23_15h28.15.171,vts_reward_expectancy,2022.2.4,MacIntel,59.99880002,Chrome,1440,900,,,,,0,687,,,,,,,,,,,,,,,,,H,146,triangle,0,0,,,,,,,,,,,,,,,,switch,number,NA,k,Hi,,,,,,0.483,0,,,,,,,,low,16,0,16,0,1,,,,,,,,,
295729,2022-09-23_15h28.15.171,vts_reward_expectancy,2022.2.4,MacIntel,59.99880002,Chrome,1440,900,,,,,1,688,,,,,,,,,,,,,,,,,Y,160,star,1,1,,,,,,,,,,,,,,,,repeat,number,numRpt,k,Lo,,,,,,1.1318,0,,,,,,,,low,17,0,17,0,1,,,,,,,,,
295729,2022-09-23_15h28.15.171,vts_reward_expectancy,2022.2.4,MacIntel,59.99880002,Chrome,1440,900,,,,,1,689,,,,,,,,,,,,,,,,,F,174,star,1,0,,,,,,,,,,,,,,,,switch,letter,lettSwt,d,Lo,,,,,,0.7805,0,,,,,,,,low,18,0,18,0,1,,,,,,,,,
295729,2022-09-23_15h28.15.171,vts_reward_expectancy,2022.2.4,MacIntel,59.99880002,Chrome,1440,900,,,,,0,689,,,,,,,,,,,,,,,,,S,167,triangle,1,0,,,,,,,,,,,,,,,,switch,number,numSwt,k,Hi,,,,,,1.0635,0,,,,,,,,low,19,0,19,0,1,,,,,,,,,
295729,2022-09-23_15h28.15.171,vts_reward_expectancy,2022.2.4,MacIntel,59.99880002,Chrome,1440,900,,,,,1,690,,,,,,,,,,,,,,,,,W,125,triangle,1,0,,,,,,,,,,,,,,,,repeat,number,numRpt,j,Hi,,,,,,0.5508,0,,,,,,,,low,20,0,20,0,1,,,,,,,,,
295729,2022-09-23_15h28.15.171,vts_reward_expectancy,2022.2.4,MacIntel,59.99880002,Chrome,1440,900,,,,,10,700,,,,,,,,,,,,,,,,,U,132,star,1,0,,,,,,,,,,,,,,,,switch,letter,lettSwt,f,Lo,,,,,,1.0886,0,,,,,,,,low,21,0,21,0,1,,,,,,,,,
295729,2022-09-23_15h28.15.171,vts_reward_expectancy,2022.2.4,MacIntel,59.99880002,Chrome,1440,900,,,,,0,700,,,,,,,,,,,,,,,,,B,181,triangle,1,0,,,,,,,,,,,,,,,,switch,number,numSwt,k,Hi,,,,,,0.7385,0,,,,,,,,low,22,0,22,0,1,,,,,,,,,
295729,2022-09-23_15h28.15.171,vts_reward_expectancy,2022.2.4,MacIntel,59.99880002,Chrome,1440,900,,,,,10,710,,,,,,,,,,,,,,,,,D,139,star,1,0,,,,,,,,,,,,,,,,repeat,number,numRpt,j,Lo,,,,,,0.833,0,,,,,,,,low,23,0,23,0,1,,,,,,,,,
295729,2022-09-23_15h28.15.171,vts_reward_expectancy,2022.2.4,MacIntel,59.99880002,Chrome,1440,900,,,,,1,711,,,,,,,,,,,,,,,,,S,139,star,1,0,,,,,,,,,,,,,,,,repeat,number,numRpt,j,Lo,,,,,,0.5824,0,,,,,,,,low,24,0,24,0,1,,,,,,,,,
295729,2022-09-23_15h28.15.171,vts_reward_expectancy,2022.2.4,MacIntel,59.99880002,Chrome,1440,900,,,,,0,711,,,,,,,,,,,,,,,,,B,181,triangle,1,0,,,,,,,,,,,,,,,,switch,letter,lettSwt,d,Hi,,,,,,0.6807,0,,,,,,,,low,25,0,25,0,1,,,,,,,,,
295729,2022-09-23_15h28.15.171,vts_reward_expectancy,2022.2.4,MacIntel,59.99880002,Chrome,1440,900,,,,,10,721,,,,,,,,,,,,,,,,,H,125,triangle,1,0,,,,,,,,,,,,,,,,repeat,letter,lettRpt,d,Hi,,,,,,0.6308,0,,,,,,,,low,26,0,26,0,1,,,,,,,,,
295729,2022-09-23_15h28.15.171,vts_reward_expectancy,2022.2.4,MacIntel,59.99880002,Chrome,1440,900,,,,,1,722,,,,,,,,,,,,,,,,,F,167,star,1,0,,,,,,,,,,,,,,,,repeat,letter,lettRpt,d,Lo,,,,,,0.7005,0,,,,,,,,low,27,0,27,0,1,,,,,,,,,
295729,2022-09-23_15h28.15.171,vts_reward_expectancy,2022.2.4,MacIntel,59.99880002,Chrome,1440,900,,,,,10,732,,,,,,,,,,,,,,,,,Y,160,star,1,0,,,,,,,,,,,,,,,,repeat,letter,lettRpt,f,Lo,,,,,,0.482,0,,,,,,,,low,28,0,28,0,1,,,,,,,,,
295729,2022-09-23_15h28.15.171,vts_reward_expectancy,2022.2.4,MacIntel,59.99880002,Chrome,1440,900,,,,,10,742,,,,,,,,,,,,,,,,,U,174,triangle,1,0,,,,,,,,,,,,,,,,switch,number,numSwt,k,Hi,,,,,,0.6143,0,,,,,,,,low,29,0,29,0,1,,,,,,,,,
295729,2022-09-23_15h28.15.171,vts_reward_expectancy,2022.2.4,MacIntel,59.99880002,Chrome,1440,900,,,,,1,743,,,,,,,,,,,,,,,,,W,146,triangle,1,0,,,,,,,,,,,,,,,,switch,letter,lettSwt,f,Hi,,,,,,0.4474,0,,,,,,,,low,30,0,30,0,1,,,,,,,,,
295729,2022-09-23_15h28.15.171,vts_reward_expectancy,2022.2.4,MacIntel,59.99880002,Chrome,1440,900,,,,,1,744,,,,,,,,,,,,,,,,,D,132,star,1,0,,,,,,,,,,,,,,,,switch,number,numSwt,j,Lo,,,,,,0.5314,0,,,,,,,,low,31,0,31,0,1,,,,,,,,,
295729,2022-09-23_15h28.15.171,vts_reward_expectancy,2022.2.4,MacIntel,59.99880002,Chrome,1440,900,,,,,1,745,,,,,,,,,,,,,,,,,B,167,hexagon,1,0,,,,,,,,,,,,,,,,switch,letter,lettSwt,d,Lo,,,,,,0.4478,1,,,,,,space,10.1099,high,0,0,0,0,1,,,,,,,,,
295729,2022-09-23_15h28.15.171,vts_reward_expectancy,2022.2.4,MacIntel,59.99880002,Chrome,1440,900,,,,,0,745,,,,,,,,,,,,,,,,,F,160,circle,1,0,,,,,,,,,,,,,,,,repeat,letter,lettRpt,d,Hi,,,,,,0.7164,1,,,,,,,,high,1,0,1,0,1,,,,,,,,,
295729,2022-09-23_15h28.15.171,vts_reward_expectancy,2022.2.4,MacIntel,59.99880002,Chrome,1440,900,,,,,1,746,,,,,,,,,,,,,,,,,U,174,hexagon,1,0,,,,,,,,,,,,,,,,repeat,letter,lettRpt,f,Lo,,,,,,0.5477,1,,,,,,,,high,2,0,2,0,1,,,,,,,,,
295729,2022-09-23_15h28.15.171,vts_reward_expectancy,2022.2.4,MacIntel,59.99880002,Chrome,1440,900,,,,,10,756,,,,,,,,,,,,,,,,,H,125,circle,1,0,,,,,,,,,,,,,,,,switch,number,numSwt,j,Hi,,,,,,0.4507,1,,,,,,,,high,3,0,3,0,1,,,,,,,,,
295729,2022-09-23_15h28.15.171,vts_reward_expectancy,2022.2.4,MacIntel,59.99880002,Chrome,1440,900,,,,,10,766,,,,,,,,,,,,,,,,,Y,181,circle,1,0,,,,,,,,,,,,,,,,repeat,number,numRpt,k,Hi,,,,,,0.4868,1,,,,,,,,high,4,0,4,0,1,,,,,,,,,
295729,2022-09-23_15h28.15.171,vts_reward_expectancy,2022.2.4,MacIntel,59.99880002,Chrome,1440,900,,,,,0,766,,,,,,,,,,,,,,,,,D,139,hexagon,0,0,,,,,,,,,,,,,,,,repeat,number,NA,k,Hi,,,,,,0.5346,1,,,,,,,,high,5,0,5,0,1,,,,,,,,,
295729,2022-09-23_15h28.15.171,vts_reward_expectancy,2022.2.4,MacIntel,59.99880002,Chrome,1440,900,,,,,0,766,,,,,,,,,,,,,,,,,S,132,circle,1,1,,,,,,,,,,,,,,,,repeat,number,numRpt,j,Hi,,,,,,0.548,1,,,,,,,,high,6,0,6,0,1,,,,,,,,,
295729,2022-09-23_15h28.15.171,vts_reward_expectancy,2022.2.4,MacIntel,59.99880002,Chrome,1440,900,,,,,0,766,,,,,,,,,,,,,,,,,W,146,hexagon,0,0,,,,,,,,,,,,,,,,repeat,number,NA,k,Hi,,,,,,0.5856,1,,,,,,,,high,7,0,7,0,1,,,,,,,,,
295729,2022-09-23_15h28.15.171,vts_reward_expectancy,2022.2.4,MacIntel,59.99880002,Chrome,1440,900,,,,,10,776,,,,,,,,,,,,,,,,,B,167,hexagon,1,1,,,,,,,,,,,,,,,,repeat,number,numRpt,k,Lo,,,,,,0.5029,1,,,,,,,,high,8,0,8,0,1,,,,,,,,,
295729,2022-09-23_15h28.15.171,vts_reward_expectancy,2022.2.4,MacIntel,59.99880002,Chrome,1440,900,,,,,0,776,,,,,,,,,,,,,,,,,F,160,circle,1,0,,,,,,,,,,,,,,,,switch,letter,lettSwt,d,Hi,,,,,,0.7472,1,,,,,,,,high,9,0,9,0,1,,,,,,,,,
295729,2022-09-23_15h28.15.171,vts_reward_expectancy,2022.2.4,MacIntel,59.99880002,Chrome,1440,900,,,,,1,777,,,,,,,,,,,,,,,,,U,174,circle,1,0,,,,,,,,,,,,,,,,repeat,letter,lettRpt,f,Hi,,,,,,0.5151,1,,,,,,,,high,10,0,10,0,1,,,,,,,,,
295729,2022-09-23_15h28.15.171,vts_reward_expectancy,2022.2.4,MacIntel,59.99880002,Chrome,1440,900,,,,,1,778,,,,,,,,,,,,,,,,,H,125,hexagon,1,0,,,,,,,,,,,,,,,,repeat,letter,lettRpt,d,Lo,,,,,,0.6473,1,,,,,,,,high,11,0,11,0,1,,,,,,,,,
295729,2022-09-23_15h28.15.171,vts_reward_expectancy,2022.2.4,MacIntel,59.99880002,Chrome,1440,900,,,,,1,779,,,,,,,,,,,,,,,,,Y,181,hexagon,1,0,,,,,,,,,,,,,,,,repeat,letter,lettRpt,f,Lo,,,,,,0.6333,1,,,,,,,,high,12,0,12,0,1,,,,,,,,,
295729,2022-09-23_15h28.15.171,vts_reward_expectancy,2022.2.4,MacIntel,59.99880002,Chrome,1440,900,,,,,0,779,,,,,,,,,,,,,,,,,D,139,circle,1,0,,,,,,,,,,,,,,,,repeat,letter,lettRpt,d,Hi,,,,,,0.5552,1,,,,,,,,high,13,0,13,0,1,,,,,,,,,
295729,2022-09-23_15h28.15.171,vts_reward_expectancy,2022.2.4,MacIntel,59.99880002,Chrome,1440,900,,,,,0,779,,,,,,,,,,,,,,,,,S,132,circle,1,0,,,,,,,,,,,,,,,,switch,number,numSwt,j,Hi,,,,,,0.5655,1,,,,,,,,high,14,0,14,0,1,,,,,,,,,
295729,2022-09-23_15h28.15.171,vts_reward_expectancy,2022.2.4,MacIntel,59.99880002,Chrome,1440,900,,,,,0,779,,,,,,,,,,,,,,,,,W,146,hexagon,0,0,,,,,,,,,,,,,,,,repeat,number,NA,k,Hi,,,,,,0.4889,1,,,,,,,,high,15,0,15,0,1,,,,,,,,,
295729,2022-09-23_15h28.15.171,vts_reward_expectancy,2022.2.4,MacIntel,59.99880002,Chrome,1440,900,,,,,0,779,,,,,,,,,,,,,,,,,D,181,circle,1,1,,,,,,,,,,,,,,,,repeat,number,numRpt,k,Hi,,,,,,0.5217,1,,,,,,,,high,16,0,16,0,1,,,,,,,,,
295729,2022-09-23_15h28.15.171,vts_reward_expectancy,2022.2.4,MacIntel,59.99880002,Chrome,1440,900,,,,,1,780,,,,,,,,,,,,,,,,,B,160,hexagon,1,0,,,,,,,,,,,,,,,,switch,letter,lettSwt,d,Lo,,,,,,0.4985,1,,,,,,,,high,17,0,17,0,1,,,,,,,,,
295729,2022-09-23_15h28.15.171,vts_reward_expectancy,2022.2.4,MacIntel,59.99880002,Chrome,1440,900,,,,,1,781,,,,,,,,,,,,,,,,,U,146,hexagon,1,0,,,,,,,,,,,,,,,,repeat,letter,lettRpt,f,Lo,,,,,,0.3463,1,,,,,,,,high,18,0,18,0,1,,,,,,,,,
295729,2022-09-23_15h28.15.171,vts_reward_expectancy,2022.2.4,MacIntel,59.99880002,Chrome,1440,900,,,,,0,781,,,,,,,,,,,,,,,,,Y,167,circle,1,0,,,,,,,,,,,,,,,,switch,number,numSwt,k,Hi,,,,,,0.6682,1,,,,,,,,high,19,0,19,0,1,,,,,,,,,
295729,2022-09-23_15h28.15.171,vts_reward_expectancy,2022.2.4,MacIntel,59.99880002,Chrome,1440,900,,,,,0,781,,,,,,,,,,,,,,,,,W,174,circle,0,0,,,,,,,,,,,,,,,,repeat,number,NA,j,Hi,,,,,,0.4961,1,,,,,,,,high,20,0,20,0,1,,,,,,,,,
295729,2022-09-23_15h28.15.171,vts_reward_expectancy,2022.2.4,MacIntel,59.99880002,Chrome,1440,900,,,,,1,782,,,,,,,,,,,,,,,,,F,139,hexagon,1,1,,,,,,,,,,,,,,,,repeat,number,numRpt,j,Lo,,,,,,0.4309,1,,,,,,,,high,21,0,21,0,1,,,,,,,,,
295729,2022-09-23_15h28.15.171,vts_reward_expectancy,2022.2.4,MacIntel,59.99880002,Chrome,1440,900,,,,,1,783,,,,,,,,,,,,,,,,,S,132,hexagon,1,0,,,,,,,,,,,,,,,,switch,letter,lettSwt,f,Lo,,,,,,0.5134,1,,,,,,,,high,22,0,22,0,1,,,,,,,,,
295729,2022-09-23_15h28.15.171,vts_reward_expectancy,2022.2.4,MacIntel,59.99880002,Chrome,1440,900,,,,,10,793,,,,,,,,,,,,,,,,,H,125,circle,1,0,,,,,,,,,,,,,,,,repeat,letter,lettRpt,d,Hi,,,,,,0.4977,1,,,,,,,,high,23,0,23,0,1,,,,,,,,,
295729,2022-09-23_15h28.15.171,vts_reward_expectancy,2022.2.4,MacIntel,59.99880002,Chrome,1440,900,,,,,0,793,,,,,,,,,,,,,,,,,D,125,circle,1,0,,,,,,,,,,,,,,,,switch,number,numSwt,j,Hi,,,,,,0.5296,1,,,,,,,,high,24,0,24,0,1,,,,,,,,,
295729,2022-09-23_15h28.15.171,vts_reward_expectancy,2022.2.4,MacIntel,59.99880002,Chrome,1440,900,,,,,1,794,,,,,,,,,,,,,,,,,W,174,hexagon,1,0,,,,,,,,,,,,,,,,repeat,number,numRpt,k,Lo,,,,,,0.6328,1,,,,,,,,high,25,0,25,0,1,,,,,,,,,
295729,2022-09-23_15h28.15.171,vts_reward_expectancy,2022.2.4,MacIntel,59.99880002,Chrome,1440,900,,,,,0,794,,,,,,,,,,,,,,,,,U,181,circle,1,0,,,,,,,,,,,,,,,,switch,letter,lettSwt,f,Hi,,,,,,0.6465,1,,,,,,,,high,26,0,26,0,1,,,,,,,,,
295729,2022-09-23_15h28.15.171,vts_reward_expectancy,2022.2.4,MacIntel,59.99880002,Chrome,1440,900,,,,,10,804,,,,,,,,,,,,,,,,,B,139,hexagon,1,0,,,,,,,,,,,,,,,,repeat,letter,lettRpt,d,Lo,,,,,,0.8145,1,,,,,,,,high,27,0,27,0,1,,,,,,,,,
295729,2022-09-23_15h28.15.171,vts_reward_expectancy,2022.2.4,MacIntel,59.99880002,Chrome,1440,900,,,,,0,804,,,,,,,,,,,,,,,,,Y,160,hexagon,0,0,,,,,,,,,,,,,,,,repeat,letter,NA,d,Lo,,,,,,0.4141,1,,,,,,,,high,28,0,28,0,1,,,,,,,,,
295729,2022-09-23_15h28.15.171,vts_reward_expectancy,2022.2.4,MacIntel,59.99880002,Chrome,1440,900,,,,,0,804,,,,,,,,,,,,,,,,,F,146,circle,0,1,,,,,,,,,,,,,,,,switch,number,NA,k,Lo,,,,,,0.6715,1,,,,,,,,high,29,0,29,0,1,,,,,,,,,
295729,2022-09-23_15h28.15.171,vts_reward_expectancy,2022.2.4,MacIntel,59.99880002,Chrome,1440,900,,,,,0,804,,,,,,,,,,,,,,,,,S,132,circle,0,1,,,,,,,,,,,,,,,,switch,letter,NA,d,Lo,,,,,,0.3475,1,,,,,,,,high,30,0,30,0,1,,,,,,,,,
295729,2022-09-23_15h28.15.171,vts_reward_expectancy,2022.2.4,MacIntel,59.99880002,Chrome,1440,900,,,,,10,814,,,,,,,,,,,,,,,,,H,167,hexagon,1,1,,,,,,,,,,,,,,,,repeat,letter,lettRpt,d,Lo,,,,,,0.9637,1,,,,,,,,high,31,0,31,0,1,,,,,,,,,
295729,2022-09-23_15h28.15.171,vts_reward_expectancy,2022.2.4,MacIntel,59.99880002,Chrome,1440,900,,,,,10,824,,,,,,,,,,,,,,,,,U,160,star,1,0,,,,,,,,,,,,,,,,repeat,letter,lettRpt,f,Lo,,,,,,0.4319,2,,,,,,space,2.2568,low,0,0,0,0,1,,,,,,,,,
295729,2022-09-23_15h28.15.171,vts_reward_expectancy,2022.2.4,MacIntel,59.99880002,Chrome,1440,900,,,,,0,824,,,,,,,,,,,,,,,,,F,125,triangle,1,0,,,,,,,,,,,,,,,,repeat,letter,lettRpt,d,Hi,,,,,,0.5492,2,,,,,,,,low,1,0,1,0,1,,,,,,,,,
295729,2022-09-23_15h28.15.171,vts_reward_expectancy,2022.2.4,MacIntel,59.99880002,Chrome,1440,900,,,,,1,825,,,,,,,,,,,,,,,,,Y,132,star,1,0,,,,,,,,,,,,,,,,switch,number,numSwt,j,Lo,,,,,,0.8482,2,,,,,,,,low,2,0,2,0,1,,,,,,,,,
295729,2022-09-23_15h28.15.171,vts_reward_expectancy,2022.2.4,MacIntel,59.99880002,Chrome,1440,900,,,,,1,826,,,,,,,,,,,,,,,,,B,167,triangle,1,0,,,,,,,,,,,,,,,,repeat,number,numRpt,k,Hi,,,,,,0.4952,2,,,,,,,,low,3,0,3,0,1,,,,,,,,,
295729,2022-09-23_15h28.15.171,vts_reward_expectancy,2022.2.4,MacIntel,59.99880002,Chrome,1440,900,,,,,1,827,,,,,,,,,,,,,,,,,D,181,star,1,0,,,,,,,,,,,,,,,,switch,letter,lettSwt,d,Lo,,,,,,0.6172,2,,,,,,,,low,4,0,4,0,1,,,,,,,,,
295729,2022-09-23_15h28.15.171,vts_reward_expectancy,2022.2.4,MacIntel,59.99880002,Chrome,1440,900,,,,,0,827,,,,,,,,,,,,,,,,,W,139,triangle,1,0,,,,,,,,,,,,,,,,repeat,letter,lettRpt,f,Hi,,,,,,0.5487,2,,,,,,,,low,5,0,5,0,1,,,,,,,,,
295729,2022-09-23_15h28.15.171,vts_reward_expectancy,2022.2.4,MacIntel,59.99880002,Chrome,1440,900,,,,,0,827,,,,,,,,,,,,,,,,,S,146,triangle,1,0,,,,,,,,,,,,,,,,repeat,letter,lettRpt,f,Hi,,,,,,0.9984,2,,,,,,,,low,6,0,6,0,1,,,,,,,,,
295729,2022-09-23_15h28.15.171,vts_reward_expectancy,2022.2.4,MacIntel,59.99880002,Chrome,1440,900,,,,,1,828,,,,,,,,,,,,,,,,,H,174,star,1,0,,,,,,,,,,,,,,,,switch,number,numSwt,k,Lo,,,,,,0.7462,2,,,,,,,,low,7,0,7,0,1,,,,,,,,,
295729,2022-09-23_15h28.15.171,vts_reward_expectancy,2022.2.4,MacIntel,59.99880002,Chrome,1440,900,,,,,10,838,,,,,,,,,,,,,,,,,U,160,star,1,0,,,,,,,,,,,,,,,,repeat,number,numRpt,k,Lo,,,,,,0.6543,2,,,,,,,,low,8,0,8,0,1,,,,,,,,,
295729,2022-09-23_15h28.15.171,vts_reward_expectancy,2022.2.4,MacIntel,59.99880002,Chrome,1440,900,,,,,1,839,,,,,,,,,,,,,,,,,F,125,triangle,1,0,,,,,,,,,,,,,,,,switch,letter,lettSwt,d,Hi,,,,,,0.4146,2,,,,,,,,low,9,0,9,0,1,,,,,,,,,
295729,2022-09-23_15h28.15.171,vts_reward_expectancy,2022.2.4,MacIntel,59.99880002,Chrome,1440,900,,,,,10,849,,,,,,,,,,,,,,,,,Y,132,star,1,0,,,,,,,,,,,,,,,,switch,number,numSwt,j,Lo,,,,,,0.6512,2,,,,,,,,low,10,0,10,0,1,,,,,,,,,
295729,2022-09-23_15h28.15.171,vts_reward_expectancy,2022.2.4,MacIntel,59.99880002,Chrome,1440,900,,,,,0,849,,,,,,,,,,,,,,,,,B,167,triangle,1,0,,,,,,,,,,,,,,,,switch,letter,lettSwt,d,Hi,,,,,,0.5641,2,,,,,,,,low,11,0,11,0,1,,,,,,,,,
295729,2022-09-23_15h28.15.171,vts_reward_expectancy,2022.2.4,MacIntel,59.99880002,Chrome,1440,900,,,,,0,849,,,,,,,,,,,,,,,,,D,181,triangle,1,0,,,,,,,,,,,,,,,,repeat,letter,lettRpt,d,Hi,,,,,,0.6381,2,,,,,,,,low,12,0,12,0,1,,,,,,,,,
295729,2022-09-23_15h28.15.171,vts_reward_expectancy,2022.2.4,MacIntel,59.99880002,Chrome,1440,900,,,,,1,850,,,,,,,,,,,,,,,,,W,139,star,1,0,,,,,,,,,,,,,,,,repeat,letter,lettRpt,f,Lo,,,,,,0.4008,2,,,,,,,,low,13,0,13,0,1,,,,,,,,,
295729,2022-09-23_15h28.15.171,vts_reward_expectancy,2022.2.4,MacIntel,59.99880002,Chrome,1440,900,,,,,0,850,,,,,,,,,,,,,,,,,S,146,triangle,1,0,,,,,,,,,,,,,,,,repeat,letter,lettRpt,f,Hi,,,,,,0.6147,2,,,,,,,,low,14,0,14,0,1,,,,,,,,,
295729,2022-09-23_15h28.15.171,vts_reward_expectancy,2022.2.4,MacIntel,59.99880002,Chrome,1440,900,,,,,10,860,,,,,,,,,,,,,,,,,H,174,star,1,0,,,,,,,,,,,,,,,,switch,number,numSwt,k,Lo,,,,,,0.6514,2,,,,,,,,low,15,0,15,0,1,,,,,,,,,
295729,2022-09-23_15h28.15.171,vts_reward_expectancy,2022.2.4,MacIntel,59.99880002,Chrome,1440,900,,,,,0,860,,,,,,,,,,,,,,,,,H,125,triangle,1,0,,,,,,,,,,,,,,,,switch,letter,lettSwt,d,Hi,,,,,,0.8081,2,,,,,,,,low,16,0,16,0,1,,,,,,,,,
295729,2022-09-23_15h28.15.171,vts_reward_expectancy,2022.2.4,MacIntel,59.99880002,Chrome,1440,900,,,,,10,870,,,,,,,,,,,,,,,,,U,167,star,1,0,,,,,,,,,,,,,,,,switch,number,numSwt,k,Lo,,,,,,0.6177,2,,,,,,,,low,17,0,17,0,1,,,,,,,,,
295729,2022-09-23_15h28.15.171,vts_reward_expectancy,2022.2.4,MacIntel,59.99880002,Chrome,1440,900,,,,,10,880,,,,,,,,,,,,,,,,,S,174,star,1,0,,,,,,,,,,,,,,,,repeat,number,numRpt,k,Lo,,,,,,0.6123,2,,,,,,,,low,18,0,18,0,1,,,,,,,,,
295729,2022-09-23_15h28.15.171,vts_reward_expectancy,2022.2.4,MacIntel,59.99880002,Chrome,1440,900,,,,,0,880,,,,,,,,,,,,,,,,,B,160,triangle,1,0,,,,,,,,,,,,,,,,switch,letter,lettSwt,d,Hi,,,,,,0.5053,2,,,,,,,,low,19,0,19,0,1,,,,,,,,,
295729,2022-09-23_15h28.15.171,vts_reward_expectancy,2022.2.4,MacIntel,59.99880002,Chrome,1440,900,,,,,10,890,,,,,,,,,,,,,,,,,W,139,triangle,1,0,,,,,,,,,,,,,,,,repeat,letter,lettRpt,f,Hi,,,,,,0.522,2,,,,,,,,low,20,0,20,0,1,,,,,,,,,
295729,2022-09-23_15h28.15.171,vts_reward_expectancy,2022.2.4,MacIntel,59.99880002,Chrome,1440,900,,,,,1,891,,,,,,,,,,,,,,,,,D,146,star,1,0,,,,,,,,,,,,,,,,repeat,letter,lettRpt,d,Lo,,,,,,0.5819,2,,,,,,,,low,21,0,21,0,1,,,,,,,,,
295729,2022-09-23_15h28.15.171,vts_reward_expectancy,2022.2.4,MacIntel,59.99880002,Chrome,1440,900,,,,,0,891,,,,,,,,,,,,,,,,,F,181,triangle,1,0,,,,,,,,,,,,,,,,repeat,letter,lettRpt,d,Hi,,,,,,0.8476,2,,,,,,,,low,22,0,22,0,1,,,,,,,,,
295729,2022-09-23_15h28.15.171,vts_reward_expectancy,2022.2.4,MacIntel,59.99880002,Chrome,1440,900,,,,,1,892,,,,,,,,,,,,,,,,,Y,132,star,1,0,,,,,,,,,,,,,,,,switch,number,numSwt,j,Lo,,,,,,0.6157,2,,,,,,,,low,23,0,23,0,1,,,,,,,,,
295729,2022-09-23_15h28.15.171,vts_reward_expectancy,2022.2.4,MacIntel,59.99880002,Chrome,1440,900,,,,,1,893,,,,,,,,,,,,,,,,,U,174,star,1,0,,,,,,,,,,,,,,,,switch,letter,lettSwt,f,Lo,,,,,,1.0144,2,,,,,,,,low,24,0,24,0,1,,,,,,,,,
295729,2022-09-23_15h28.15.171,vts_reward_expectancy,2022.2.4,MacIntel,59.99880002,Chrome,1440,900,,,,,0,893,,,,,,,,,,,,,,,,,B,167,triangle,1,0,,,,,,,,,,,,,,,,repeat,letter,lettRpt,d,Hi,,,,,,0.6146,2,,,,,,,,low,25,0,25,0,1,,,,,,,,,
295729,2022-09-23_15h28.15.171,vts_reward_expectancy,2022.2.4,MacIntel,59.99880002,Chrome,1440,900,,,,,1,894,,,,,,,,,,,,,,,,,D,181,star,1,0,,,,,,,,,,,,,,,,repeat,letter,lettRpt,d,Lo,,,,,,1.1202,2,,,,,,,,low,26,0,26,0,1,,,,,,,,,
295729,2022-09-23_15h28.15.171,vts_reward_expectancy,2022.2.4,MacIntel,59.99880002,Chrome,1440,900,,,,,0,894,,,,,,,,,,,,,,,,,W,132,triangle,1,0,,,,,,,,,,,,,,,,repeat,letter,lettRpt,f,Hi,,,,,,0.6054,2,,,,,,,,low,27,0,27,0,1,,,,,,,,,
295729,2022-09-23_15h28.15.171,vts_reward_expectancy,2022.2.4,MacIntel,59.99880002,Chrome,1440,900,,,,,1,895,,,,,,,,,,,,,,,,,Y,160,star,1,0,,,,,,,,,,,,,,,,switch,number,numSwt,k,Lo,,,,,,0.6822,2,,,,,,,,low,28,0,28,0,1,,,,,,,,,
295729,2022-09-23_15h28.15.171,vts_reward_expectancy,2022.2.4,MacIntel,59.99880002,Chrome,1440,900,,,,,0,895,,,,,,,,,,,,,,,,,S,125,triangle,1,0,,,,,,,,,,,,,,,,repeat,number,numRpt,j,Hi,,,,,,0.554,2,,,,,,,,low,29,0,29,0,1,,,,,,,,,
295729,2022-09-23_15h28.15.171,vts_reward_expectancy,2022.2.4,MacIntel,59.99880002,Chrome,1440,900,,,,,0,895,,,,,,,,,,,,,,,,,H,146,triangle,0,0,,,,,,,,,,,,,,,,switch,letter,NA,f,Hi,,,,,,0.6352,2,,,,,,,,low,30,0,30,0,1,,,,,,,,,
295729,2022-09-23_15h28.15.171,vts_reward_expectancy,2022.2.4,MacIntel,59.99880002,Chrome,1440,900,,,,,1,896,,,,,,,,,,,,,,,,,F,139,star,1,1,,,,,,,,,,,,,,,,repeat,letter,lettRpt,d,Lo,,,,,,0.6491,2,,,,,,,,low,31,0,31,0,1,,,,,,,,,
295729,2022-09-23_15h28.15.171,vts_reward_expectancy,2022.2.4,MacIntel,59.99880002,Chrome,1440,900,,,,,10,906,,,,,,,,,,,,,,,,,F,160,hexagon,1,0,,,,,,,,,,,,,,,,switch,number,numSwt,k,Lo,,,,,,0.4991,3,,,,,,space,1.6596,high,0,0,0,0,1,,,,,,,,,
295729,2022-09-23_15h28.15.171,vts_reward_expectancy,2022.2.4,MacIntel,59.99880002,Chrome,1440,900,,,,,0,906,,,,,,,,,,,,,,,,,S,125,circle,0,0,,,,,,,,,,,,,,,,switch,letter,NA,d,Lo,,,,,,0.5479,3,,,,,,,,high,1,0,1,0,1,,,,,,,,,
295729,2022-09-23_15h28.15.171,vts_reward_expectancy,2022.2.4,MacIntel,59.99880002,Chrome,1440,900,,,,,1,907,,,,,,,,,,,,,,,,,D,146,hexagon,1,1,,,,,,,,,,,,,,,,repeat,letter,lettRpt,d,Lo,,,,,,0.6135,3,,,,,,,,high,2,0,2,0,1,,,,,,,,,
295729,2022-09-23_15h28.15.171,vts_reward_expectancy,2022.2.4,MacIntel,59.99880002,Chrome,1440,900,,,,,10,917,,,,,,,,,,,,,,,,,Y,132,circle,1,0,,,,,,,,,,,,,,,,repeat,letter,lettRpt,f,Hi,,,,,,0.4471,3,,,,,,,,high,3,0,3,0,1,,,,,,,,,
295729,2022-09-23_15h28.15.171,vts_reward_expectancy,2022.2.4,MacIntel,59.99880002,Chrome,1440,900,,,,,10,927,,,,,,,,,,,,,,,,,H,174,circle,1,0,,,,,,,,,,,,,,,,switch,number,numSwt,k,Hi,,,,,,0.582,3,,,,,,,,high,4,0,4,0,1,,,,,,,,,
295729,2022-09-23_15h28.15.171,vts_reward_expectancy,2022.2.4,MacIntel,59.99880002,Chrome,1440,900,,,,,1,928,,,,,,,,,,,,,,,,,U,139,hexagon,1,0,,,,,,,,,,,,,,,,switch,letter,lettSwt,f,Lo,,,,,,0.5819,3,,,,,,,,high,5,0,5,0,1,,,,,,,,,
295729,2022-09-23_15h28.15.171,vts_reward_expectancy,2022.2.4,MacIntel,59.99880002,Chrome,1440,900,,,,,1,929,,,,,,,,,,,,,,,,,W,167,hexagon,1,0,,,,,,,,,,,,,,,,switch,number,numSwt,k,Lo,,,,,,0.6988,3,,,,,,,,high,6,0,6,0,1,,,,,,,,,
295729,2022-09-23_15h28.15.171,vts_reward_expectancy,2022.2.4,MacIntel,59.99880002,Chrome,1440,900,,,,,0,929,,,,,,,,,,,,,,,,,B,181,circle,1,0,,,,,,,,,,,,,,,,repeat,number,numRpt,k,Hi,,,,,,0.6704,3,,,,,,,,high,7,0,7,0,1,,,,,,,,,
295729,2022-09-23_15h28.15.171,vts_reward_expectancy,2022.2.4,MacIntel,59.99880002,Chrome,1440,900,,,,,0,929,,,,,,,,,,,,,,,,,F,160,circle,1,0,,,,,,,,,,,,,,,,switch,letter,lettSwt,d,Hi,,,,,,0.8653,3,,,,,,,,high,8,0,8,0,1,,,,,,,,,
295729,2022-09-23_15h28.15.171,vts_reward_expectancy,2022.2.4,MacIntel,59.99880002,Chrome,1440,900,,,,,1,930,,,,,,,,,,,,,,,,,S,125,hexagon,1,0,,,,,,,,,,,,,,,,repeat,letter,lettRpt,f,Lo,,,,,,0.4797,3,,,,,,,,high,9,0,9,0,1,,,,,,,,,
295729,2022-09-23_15h28.15.171,vts_reward_expectancy,2022.2.4,MacIntel,59.99880002,Chrome,1440,900,,,,,0,930,,,,,,,,,,,,,,,,,D,146,circle,0,0,,,,,,,,,,,,,,,,repeat,letter,NA,f,Lo,,,,,,0.3984,3,,,,,,,,high,10,0,10,0,1,,,,,,,,,
295729,2022-09-23_15h28.15.171,vts_reward_expectancy,2022.2.4,MacIntel,59.99880002,Chrome,1440,900,,,,,1,931,,,,,,,,,,,,,,,,,Y,132,hexagon,1,1,,,,,,,,,,,,,,,,switch,number,numSwt,j,Lo,,,,,,0.5811,3,,,,,,,,high,11,0,11,0,1,,,,,,,,,
295729,2022-09-23_15h28.15.171,vts_reward_expectancy,2022.2.4,MacIntel,59.99880002,Chrome,1440,900,,,,,1,932,,,,,,,,,,,,,,,,,H,174,circle,1,0,,,,,,,,,,,,,,,,repeat,number,numRpt,k,Hi,,,,,,0.4892,3,,,,,,,,high,12,0,12,0,1,,,,,,,,,
295729,2022-09-23_15h28.15.171,vts_reward_expectancy,2022.2.4,MacIntel,59.99880002,Chrome,1440,900,,,,,0,932,,,,,,,,,,,,,,,,,U,139,hexagon,0,0,,,,,,,,,,,,,,,,repeat,number,NA,k,Hi,,,,,,0.431,3,,,,,,,,high,13,0,13,0,1,,,,,,,,,
295729,2022-09-23_15h28.15.171,vts_reward_expectancy,2022.2.4,MacIntel,59.99880002,Chrome,1440,900,,,,,10,942,,,,,,,,,,,,,,,,,W,167,circle,1,1,,,,,,,,,,,,,,,,switch,letter,lettSwt,f,Hi,,,,,,0.5047,3,,,,,,,,high,14,0,14,0,1,,,,,,,,,
295729,2022-09-23_15h28.15.171,vts_reward_expectancy,2022.2.4,MacIntel,59.99880002,Chrome,1440,900,,,,,1,943,,,,,,,,,,,,,,,,,B,181,hexagon,1,0,,,,,,,,,,,,,,,,repeat,letter,lettRpt,d,Lo,,,,,,0.4494,3,,,,,,,,high,15,0,15,0,1,,,,,,,,,
295729,2022-09-23_15h28.15.171,vts_reward_expectancy,2022.2.4,MacIntel,59.99880002,Chrome,1440,900,,,,,10,953,,,,,,,,,,,,,,,,,Y,167,circle,1,0,,,,,,,,,,,,,,,,switch,number,numSwt,k,Hi,,,,,,0.4039,3,,,,,,,,high,16,0,16,0,1,,,,,,,,,
295729,2022-09-23_15h28.15.171,vts_reward_expectancy,2022.2.4,MacIntel,59.99880002,Chrome,1440,900,,,,,10,963,,,,,,,,,,,,,,,,,W,160,hexagon,1,0,,,,,,,,,,,,,,,,repeat,number,numRpt,k,Lo,,,,,,0.7315,3,,,,,,,,high,17,0,17,0,1,,,,,,,,,
295729,2022-09-23_15h28.15.171,vts_reward_expectancy,2022.2.4,MacIntel,59.99880002,Chrome,1440,900,,,,,10,973,,,,,,,,,,,,,,,,,U,174,hexagon,1,0,,,,,,,,,,,,,,,,switch,letter,lettSwt,f,Lo,,,,,,0.5652,3,,,,,,,,high,18,0,18,0,1,,,,,,,,,
295729,2022-09-23_15h28.15.171,vts_reward_expectancy,2022.2.4,MacIntel,59.99880002,Chrome,1440,900,,,,,10,983,,,,,,,,,,,,,,,,,B,132,circle,1,0,,,,,,,,,,,,,,,,switch,number,numSwt,j,Hi,,,,,,0.6471,3,,,,,,,,high,19,0,19,0,1,,,,,,,,,
295729,2022-09-23_15h28.15.171,vts_reward_expectancy,2022.2.4,MacIntel,59.99880002,Chrome,1440,900,,,,,1,984,,,,,,,,,,,,,,,,,H,146,hexagon,1,0,,,,,,,,,,,,,,,,repeat,number,numRpt,j,Lo,,,,,,0.937,3,,,,,,,,high,20,0,20,0,1,,,,,,,,,
295729,2022-09-23_15h28.15.171,vts_reward_expectancy,2022.2.4,MacIntel,59.99880002,Chrome,1440,900,,,,,10,994,,,,,,,,,,,,,,,,,S,125,circle,1,0,,,,,,,,,,,,,,,,switch,letter,lettSwt,f,Hi,,,,,,0.4807,3,,,,,,,,high,21,0,21,0,1,,,,,,,,,
295729,2022-09-23_15h28.15.171,vts_reward_expectancy,2022.2.4,MacIntel,59.99880002,Chrome,1440,900,,,,,0,994,,,,,,,,,,,,,,,,,F,139,circle,1,0,,,,,,,,,,,,,,,,repeat,letter,lettRpt,d,Hi,,,,,,0.7193,3,,,,,,,,high,22,0,22,0,1,,,,,,,,,
295729,2022-09-23_15h28.15.171,vts_reward_expectancy,2022.2.4,MacIntel,59.99880002,Chrome,1440,900,,,,,10,1004,,,,,,,,,,,,,,,,,D,181,hexagon,1,0,,,,,,,,,,,,,,,,repeat,letter,lettRpt,d,Lo,,,,,,0.648,3,,,,,,,,high,23,0,23,0,1,,,,,,,,,
295729,2022-09-23_15h28.15.171,vts_reward_expectancy,2022.2.4,MacIntel,59.99880002,Chrome,1440,900,,,,,0,1004,,,,,,,,,,,,,,,,,Y,125,circle,1,0,,,,,,,,,,,,,,,,repeat,letter,lettRpt,f,Hi,,,,,,0.7307,3,,,,,,,,high,24,0,24,0,1,,,,,,,,,
295729,2022-09-23_15h28.15.171,vts_reward_expectancy,2022.2.4,MacIntel,59.99880002,Chrome,1440,900,,,,,1,1005,,,,,,,,,,,,,,,,,U,167,hexagon,1,0,,,,,,,,,,,,,,,,switch,number,numSwt,k,Lo,,,,,,0.8181,3,,,,,,,,high,25,0,25,0,1,,,,,,,,,
295729,2022-09-23_15h28.15.171,vts_reward_expectancy,2022.2.4,MacIntel,59.99880002,Chrome,1440,900,,,,,0,1005,,,,,,,,,,,,,,,,,H,181,circle,1,0,,,,,,,,,,,,,,,,switch,letter,lettSwt,d,Hi,,,,,,0.5973,3,,,,,,,,high,26,0,26,0,1,,,,,,,,,
295729,2022-09-23_15h28.15.171,vts_reward_expectancy,2022.2.4,MacIntel,59.99880002,Chrome,1440,900,,,,,1,1006,,,,,,,,,,,,,,,,,S,146,hexagon,1,0,,,,,,,,,,,,,,,,switch,number,numSwt,j,Lo,,,,,,0.5476,3,,,,,,,,high,27,0,27,0,1,,,,,,,,,
295729,2022-09-23_15h28.15.171,vts_reward_expectancy,2022.2.4,MacIntel,59.99880002,Chrome,1440,900,,,,,0,1006,,,,,,,,,,,,,,,,,B,132,circle,1,0,,,,,,,,,,,,,,,,switch,letter,lettSwt,d,Hi,,,,,,0.5653,3,,,,,,,,high,28,0,28,0,1,,,,,,,,,
295729,2022-09-23_15h28.15.171,vts_reward_expectancy,2022.2.4,MacIntel,59.99880002,Chrome,1440,900,,,,,0,1006,,,,,,,,,,,,,,,,,D,160,hexagon,0,0,,,,,,,,,,,,,,,,repeat,letter,NA,f,Hi,,,,,,0.4196,3,,,,,,,,high,29,0,29,0,1,,,,,,,,,
295729,2022-09-23_15h28.15.171,vts_reward_expectancy,2022.2.4,MacIntel,59.99880002,Chrome,1440,900,,,,,1,1007,,,,,,,,,,,,,,,,,F,139,hexagon,1,1,,,,,,,,,,,,,,,,repeat,letter,lettRpt,d,Lo,,,,,,0.6802,3,,,,,,,,high,30,0,30,0,1,,,,,,,,,
295729,2022-09-23_15h28.15.171,vts_reward_expectancy,2022.2.4,MacIntel,59.99880002,Chrome,1440,900,,,,,0,1007,,,,,,,,,,,,,,,,,W,174,circle,0,0,,,,,,,,,,,,,,,,switch,number,NA,j,Lo,,,,,,0.4329,3,,,,,,,,high,31,0,31,0,1,,,,,,,,,
295729,2022-09-23_15h28.15.171,vts_reward_expectancy,2022.2.4,MacIntel,59.99880002,Chrome,1440,900,,,,,1,1008,,,,,,,,,,,,,,,,,B,132,star,1,1,,,,,,,,,,,,,,,,switch,letter,lettSwt,d,Lo,,,,,,0.4986,4,,,,,,space,4.0194,low,0,0,0,0,1,,,,,,,,,
295729,2022-09-23_15h28.15.171,vts_reward_expectancy,2022.2.4,MacIntel,59.99880002,Chrome,1440,900,,,,,10,1018,,,,,,,,,,,,,,,,,D,167,triangle,1,0,,,,,,,,,,,,,,,,repeat,letter,lettRpt,d,Hi,,,,,,0.4696,4,,,,,,,,low,1,0,1,0,1,,,,,,,,,
295729,2022-09-23_15h28.15.171,vts_reward_expectancy,2022.2.4,MacIntel,59.99880002,Chrome,1440,900,,,,,10,1028,,,,,,,,,,,,,,,,,S,160,star,1,0,,,,,,,,,,,,,,,,switch,number,numSwt,k,Lo,,,,,,0.3639,4,,,,,,,,low,2,0,2,0,1,,,,,,,,,
295729,2022-09-23_15h28.15.171,vts_reward_expectancy,2022.2.4,MacIntel,59.99880002,Chrome,1440,900,,,,,1,1029,,,,,,,,,,,,,,,,,H,125,triangle,1,0,,,,,,,,,,,,,,,,repeat,number,numRpt,j,Hi,,,,,,0.5797,4,,,,,,,,low,3,0,3,0,1,,,,,,,,,
295729,2022-09-23_15h28.15.171,vts_reward_expectancy,2022.2.4,MacIntel,59.99880002,Chrome,1440,900,,,,,1,1030,,,,,,,,,,,,,,,,,W,139,star,1,0,,,,,,,,,,,,,,,,repeat,number,numRpt,j,Lo,,,,,,0.5321,4,,,,,,,,low,4,0,4,0,1,,,,,,,,,
295729,2022-09-23_15h28.15.171,vts_reward_expectancy,2022.2.4,MacIntel,59.99880002,Chrome,1440,900,,,,,0,1030,,,,,,,,,,,,,,,,,Y,174,triangle,1,0,,,,,,,,,,,,,,,,switch,letter,lettSwt,f,Hi,,,,,,0.5734,4,,,,,,,,low,5,0,5,0,1,,,,,,,,,
295729,2022-09-23_15h28.15.171,vts_reward_expectancy,2022.2.4,MacIntel,59.99880002,Chrome,1440,900,,,,,0,1030,,,,,,,,,,,,,,,,,F,146,triangle,1,0,,,,,,,,,,,,,,,,repeat,letter,lettRpt,d,Hi,,,,,,0.7147,4,,,,,,,,low,6,0,6,0,1,,,,,,,,,
295729,2022-09-23_15h28.15.171,vts_reward_expectancy,2022.2.4,MacIntel,59.99880002,Chrome,1440,900,,,,,1,1031,,,,,,,,,,,,,,,,,U,181,star,1,0,,,,,,,,,,,,,,,,repeat,letter,lettRpt,f,Lo,,,,,,0.5307,4,,,,,,,,low,7,0,7,0,1,,,,,,,,,
295729,2022-09-23_15h28.15.171,vts_reward_expectancy,2022.2.4,MacIntel,59.99880002,Chrome,1440,900,,,,,1,1032,,,,,,,,,,,,,,,,,B,132,star,1,0,,,,,,,,,,,,,,,,repeat,letter,lettRpt,d,Lo,,,,,,0.3984,4,,,,,,,,low,8,0,8,0,1,,,,,,,,,
295729,2022-09-23_15h28.15.171,vts_reward_expectancy,2022.2.4,MacIntel,59.99880002,Chrome,1440,900,,,,,1,1033,,,,,,,,,,,,,,,,,D,167,triangle,1,0,,,,,,,,,,,,,,,,switch,number,numSwt,k,Hi,,,,,,0.5473,4,,,,,,,,low,9,0,9,0,1,,,,,,,,,
295729,2022-09-23_15h28.15.171,vts_reward_expectancy,2022.2.4,MacIntel,59.99880002,Chrome,1440,900,,,,,10,1043,,,,,,,,,,,,,,,,,S,160,star,1,0,,,,,,,,,,,,,,,,repeat,number,numRpt,k,Lo,,,,,,0.7471,4,,,,,,,,low,10,0,10,0,1,,,,,,,,,
295729,2022-09-23_15h28.15.171,vts_reward_expectancy,2022.2.4,MacIntel,59.99880002,Chrome,1440,900,,,,,0,1043,,,,,,,,,,,,,,,,,H,125,triangle,1,0,,,,,,,,,,,,,,,,switch,letter,lettSwt,d,Hi,,,,,,1.0181,4,,,,,,,,low,11,0,11,0,1,,,,,,,,,
295729,2022-09-23_15h28.15.171,vts_reward_expectancy,2022.2.4,MacIntel,59.99880002,Chrome,1440,900,,,,,0,1043,,,,,,,,,,,,,,,,,W,139,triangle,1,0,,,,,,,,,,,,,,,,switch,number,numSwt,j,Hi,,,,,,0.681,4,,,,,,,,low,12,0,12,0,1,,,,,,,,,
295729,2022-09-23_15h28.15.171,vts_reward_expectancy,2022.2.4,MacIntel,59.99880002,Chrome,1440,900,,,,,10,1053,,,,,,,,,,,,,,,,,Y,174,star,1,0,,,,,,,,,,,,,,,,repeat,number,numRpt,k,Lo,,,,,,0.8028,4,,,,,,,,low,13,0,13,0,1,,,,,,,,,
295729,2022-09-23_15h28.15.171,vts_reward_expectancy,2022.2.4,MacIntel,59.99880002,Chrome,1440,900,,,,,1,1054,,,,,,,,,,,,,,,,,F,146,star,1,0,,,,,,,,,,,,,,,,switch,letter,lettSwt,d,Lo,,,,,,0.8137,4,,,,,,,,low,14,0,14,0,1,,,,,,,,,
295729,2022-09-23_15h28.15.171,vts_reward_expectancy,2022.2.4,MacIntel,59.99880002,Chrome,1440,900,,,,,0,1054,,,,,,,,,,,,,,,,,U,181,triangle,1,0,,,,,,,,,,,,,,,,repeat,letter,lettRpt,f,Hi,,,,,,0.7384,4,,,,,,,,low,15,0,15,0,1,,,,,,,,,
295729,2022-09-23_15h28.15.171,vts_reward_expectancy,2022.2.4,MacIntel,59.99880002,Chrome,1440,900,,,,,0,1054,,,,,,,,,,,,,,,,,F,160,triangle,1,0,,,,,,,,,,,,,,,,repeat,letter,lettRpt,d,Hi,,,,,,0.7301,4,,,,,,,,low,16,0,16,0,1,,,,,,,,,
295729,2022-09-23_15h28.15.171,vts_reward_expectancy,2022.2.4,MacIntel,59.99880002,Chrome,1440,900,,,,,1,1055,,,,,,,,,,,,,,,,,B,125,star,1,0,,,,,,,,,,,,,,,,repeat,letter,lettRpt,d,Lo,,,,,,0.8148,4,,,,,,,,low,17,0,17,0,1,,,,,,,,,
295729,2022-09-23_15h28.15.171,vts_reward_expectancy,2022.2.4,MacIntel,59.99880002,Chrome,1440,900,,,,,1,1056,,,,,,,,,,,,,,,,,S,167,star,1,0,,,,,,,,,,,,,,,,switch,number,numSwt,k,Lo,,,,,,0.4972,4,,,,,,,,low,18,0,18,0,1,,,,,,,,,
295729,2022-09-23_15h28.15.171,vts_reward_expectancy,2022.2.4,MacIntel,59.99880002,Chrome,1440,900,,,,,0,1056,,,,,,,,,,,,,,,,,U,139,triangle,1,0,,,,,,,,,,,,,,,,repeat,number,numRpt,j,Hi,,,,,,0.6971,4,,,,,,,,low,19,0,19,0,1,,,,,,,,,
295729,2022-09-23_15h28.15.171,vts_reward_expectancy,2022.2.4,MacIntel,59.99880002,Chrome,1440,900,,,,,1,1057,,,,,,,,,,,,,,,,,H,132,star,1,0,,,,,,,,,,,,,,,,repeat,number,numRpt,j,Lo,,,,,,0.6632,4,,,,,,,,low,20,0,20,0,1,,,,,,,,,
295729,2022-09-23_15h28.15.171,vts_reward_expectancy,2022.2.4,MacIntel,59.99880002,Chrome,1440,900,,,,,10,1067,,,,,,,,,,,,,,,,,W,181,triangle,1,0,,,,,,,,,,,,,,,,repeat,number,numRpt,k,Hi,,,,,,0.4957,4,,,,,,,,low,21,0,21,0,1,,,,,,,,,
295729,2022-09-23_15h28.15.171,vts_reward_expectancy,2022.2.4,MacIntel,59.99880002,Chrome,1440,900,,,,,0,1067,,,,,,,,,,,,,,,,,D,146,triangle,1,0,,,,,,,,,,,,,,,,switch,letter,lettSwt,d,Hi,,,,,,0.6185,4,,,,,,,,low,22,0,22,0,1,,,,,,,,,
295729,2022-09-23_15h28.15.171,vts_reward_expectancy,2022.2.4,MacIntel,59.99880002,Chrome,1440,900,,,,,1,1068,,,,,,,,,,,,,,,,,Y,174,star,1,0,,,,,,,,,,,,,,,,repeat,letter,lettRpt,f,Lo,,,,,,0.4958,4,,,,,,,,low,23,0,23,0,1,,,,,,,,,
295729,2022-09-23_15h28.15.171,vts_reward_expectancy,2022.2.4,MacIntel,59.99880002,Chrome,1440,900,,,,,0,1068,,,,,,,,,,,,,,,,,S,125,star,0,0,,,,,,,,,,,,,,,,switch,number,NA,k,Lo,,,,,,0.5148,4,,,,,,,,low,24,0,24,0,1,,,,,,,,,
295729,2022-09-23_15h28.15.171,vts_reward_expectancy,2022.2.4,MacIntel,59.99880002,Chrome,1440,900,,,,,0,1068,,,,,,,,,,,,,,,,,Y,167,triangle,1,1,,,,,,,,,,,,,,,,switch,letter,lettSwt,f,Hi,,,,,,0.5674,4,,,,,,,,low,25,0,25,0,1,,,,,,,,,
295729,2022-09-23_15h28.15.171,vts_reward_expectancy,2022.2.4,MacIntel,59.99880002,Chrome,1440,900,,,,,0,1068,,,,,,,,,,,,,,,,,W,139,triangle,1,0,,,,,,,,,,,,,,,,repeat,letter,lettRpt,f,Hi,,,,,,0.5637,4,,,,,,,,low,26,0,26,0,1,,,,,,,,,
295729,2022-09-23_15h28.15.171,vts_reward_expectancy,2022.2.4,MacIntel,59.99880002,Chrome,1440,900,,,,,10,1078,,,,,,,,,,,,,,,,,U,181,star,1,0,,,,,,,,,,,,,,,,repeat,letter,lettRpt,f,Lo,,,,,,0.6304,4,,,,,,,,low,27,0,27,0,1,,,,,,,,,
295729,2022-09-23_15h28.15.171,vts_reward_expectancy,2022.2.4,MacIntel,59.99880002,Chrome,1440,900,,,,,0,1078,,,,,,,,,,,,,,,,,F,146,star,0,0,,,,,,,,,,,,,,,,repeat,letter,NA,f,Lo,,,,,,0.6474,4,,,,,,,,low,28,0,28,0,1,,,,,,,,,
295729,2022-09-23_15h28.15.171,vts_reward_expectancy,2022.2.4,MacIntel,59.99880002,Chrome,1440,900,,,,,0,1078,,,,,,,,,,,,,,,,,D,132,triangle,1,1,,,,,,,,,,,,,,,,repeat,letter,lettRpt,d,Hi,,,,,,0.6651,4,,,,,,,,low,29,0,29,0,1,,,,,,,,,
295729,2022-09-23_15h28.15.171,vts_reward_expectancy,2022.2.4,MacIntel,59.99880002,Chrome,1440,900,,,,,10,1088,,,,,,,,,,,,,,,,,B,174,triangle,1,0,,,,,,,,,,,,,,,,switch,number,numSwt,k,Hi,,,,,,0.473,4,,,,,,,,low,30,0,30,0,1,,,,,,,,,
295729,2022-09-23_15h28.15.171,vts_reward_expectancy,2022.2.4,MacIntel,59.99880002,Chrome,1440,900,,,,,1,1089,,,,,,,,,,,,,,,,,H,160,star,1,0,,,,,,,,,,,,,,,,switch,letter,lettSwt,d,Lo,,,,,,0.7321,4,,,,,,,,low,31,0,31,0,1,,,,,,,,,
295729,2022-09-23_15h28.15.171,vts_reward_expectancy,2022.2.4,MacIntel,59.99880002,Chrome,1440,900,,,,,1,1090,,,,,,,,,,,,,,,,,W,125,hexagon,1,0,,,,,,,,,,,,,,,,repeat,letter,lettRpt,f,Lo,,,,,,0.5651,5,,,,,,space,2.1179,high,0,0,0,0,1,,,,,,,,,
295729,2022-09-23_15h28.15.171,vts_reward_expectancy,2022.2.4,MacIntel,59.99880002,Chrome,1440,900,,,,,10,1100,,,,,,,,,,,,,,,,,H,174,circle,1,0,,,,,,,,,,,,,,,,repeat,letter,lettRpt,d,Hi,,,,,,0.4863,5,,,,,,,,high,1,0,1,0,1,,,,,,,,,
295729,2022-09-23_15h28.15.171,vts_reward_expectancy,2022.2.4,MacIntel,59.99880002,Chrome,1440,900,,,,,10,1110,,,,,,,,,,,,,,,,,B,160,hexagon,1,0,,,,,,,,,,,,,,,,repeat,letter,lettRpt,d,Lo,,,,,,0.548,5,,,,,,,,high,2,0,2,0,1,,,,,,,,,
295729,2022-09-23_15h28.15.171,vts_reward_expectancy,2022.2.4,MacIntel,59.99880002,Chrome,1440,900,,,,,1,1111,,,,,,,,,,,,,,,,,U,181,circle,1,0,,,,,,,,,,,,,,,,switch,number,numSwt,k,Hi,,,,,,0.4473,5,,,,,,,,high,3,0,3,0,1,,,,,,,,,
295729,2022-09-23_15h28.15.171,vts_reward_expectancy,2022.2.4,MacIntel,59.99880002,Chrome,1440,900,,,,,10,1121,,,,,,,,,,,,,,,,,F,132,hexagon,1,0,,,,,,,,,,,,,,,,repeat,number,numRpt,j,Lo,,,,,,0.6133,5,,,,,,,,high,4,0,4,0,1,,,,,,,,,
295729,2022-09-23_15h28.15.171,vts_reward_expectancy,2022.2.4,MacIntel,59.99880002,Chrome,1440,900,,,,,10,1131,,,,,,,,,,,,,,,,,D,139,circle,1,0,,,,,,,,,,,,,,,,repeat,number,numRpt,j,Hi,,,,,,0.5226,5,,,,,,,,high,5,0,5,0,1,,,,,,,,,
295729,2022-09-23_15h28.15.171,vts_reward_expectancy,2022.2.4,MacIntel,59.99880002,Chrome,1440,900,,,,,1,1132,,,,,,,,,,,,,,,,,S,146,hexagon,1,0,,,,,,,,,,,,,,,,switch,letter,lettSwt,f,Lo,,,,,,0.6655,5,,,,,,,,high,6,0,6,0,1,,,,,,,,,
295729,2022-09-23_15h28.15.171,vts_reward_expectancy,2022.2.4,MacIntel,59.99880002,Chrome,1440,900,,,,,10,1142,,,,,,,,,,,,,,,,,Y,167,circle,1,0,,,,,,,,,,,,,,,,repeat,letter,lettRpt,f,Hi,,,,,,0.5298,5,,,,,,,,high,7,0,7,0,1,,,,,,,,,
295729,2022-09-23_15h28.15.171,vts_reward_expectancy,2022.2.4,MacIntel,59.99880002,Chrome,1440,900,,,,,10,1152,,,,,,,,,,,,,,,,,W,125,circle,1,0,,,,,,,,,,,,,,,,repeat,letter,lettRpt,f,Hi,,,,,,0.519,5,,,,,,,,high,8,0,8,0,1,,,,,,,,,
295729,2022-09-23_15h28.15.171,vts_reward_expectancy,2022.2.4,MacIntel,59.99880002,Chrome,1440,900,,,,,1,1153,,,,,,,,,,,,,,,,,H,174,hexagon,1,0,,,,,,,,,,,,,,,,switch,number,numSwt,k,Lo,,,,,,0.5642,5,,,,,,,,high,9,0,9,0,1,,,,,,,,,
295729,2022-09-23_15h28.15.171,vts_reward_expectancy,2022.2.4,MacIntel,59.99880002,Chrome,1440,900,,,,,10,1163,,,,,,,,,,,,,,,,,B,160,circle,1,0,,,,,,,,,,,,,,,,repeat,number,numRpt,k,Hi,,,,,,0.5231,5,,,,,,,,high,10,0,10,0,1,,,,,,,,,
295729,2022-09-23_15h28.15.171,vts_reward_expectancy,2022.2.4,MacIntel,59.99880002,Chrome,1440,900,,,,,1,1164,,,,,,,,,,,,,,,,,U,181,hexagon,1,0,,,,,,,,,,,,,,,,repeat,number,numRpt,k,Lo,,,,,,0.5001,5,,,,,,,,high,11,0,11,0,1,,,,,,,,,
295729,2022-09-23_15h28.15.171,vts_reward_expectancy,2022.2.4,MacIntel,59.99880002,Chrome,1440,900,,,,,1,1165,,,,,,,,,,,,,,,,,F,132,circle,1,0,,,,,,,,,,,,,,,,repeat,number,numRpt,j,Hi,,,,,,0.4155,5,,,,,,,,high,12,0,12,0,1,,,,,,,,,
295729,2022-09-23_15h28.15.171,vts_reward_expectancy,2022.2.4,MacIntel,59.99880002,Chrome,1440,900,,,,,10,1175,,,,,,,,,,,,,,,,,D,139,hexagon,1,0,,,,,,,,,,,,,,,,switch,letter,lettSwt,d,Lo,,,,,,0.5488,5,,,,,,,,high,13,0,13,0,1,,,,,,,,,
295729,2022-09-23_15h28.15.171,vts_reward_expectancy,2022.2.4,MacIntel,59.99880002,Chrome,1440,900,,,,,10,1185,,,,,,,,,,,,,,,,,S,146,hexagon,1,0,,,,,,,,,,,,,,,,repeat,letter,lettRpt,f,Lo,,,,,,0.8529,5,,,,,,,,high,14,0,14,0,1,,,,,,,,,
295729,2022-09-23_15h28.15.171,vts_reward_expectancy,2022.2.4,MacIntel,59.99880002,Chrome,1440,900,,,,,0,1185,,,,,,,,,,,,,,,,,Y,167,circle,1,0,,,,,,,,,,,,,,,,repeat,letter,lettRpt,f,Hi,,,,,,0.5669,5,,,,,,,,high,15,0,15,0,1,,,,,,,,,
295729,2022-09-23_15h28.15.171,vts_reward_expectancy,2022.2.4,MacIntel,59.99880002,Chrome,1440,900,,,,,0,1185,,,,,,,,,,,,,,,,,S,125,circle,1,0,,,,,,,,,,,,,,,,switch,number,numSwt,j,Hi,,,,,,0.5143,5,,,,,,,,high,16,0,16,0,1,,,,,,,,,
295729,2022-09-23_15h28.15.171,vts_reward_expectancy,2022.2.4,MacIntel,59.99880002,Chrome,1440,900,,,,,1,1186,,,,,,,,,,,,,,,,,H,160,hexagon,1,0,,,,,,,,,,,,,,,,repeat,number,numRpt,k,Lo,,,,,,0.6213,5,,,,,,,,high,17,0,17,0,1,,,,,,,,,
295729,2022-09-23_15h28.15.171,vts_reward_expectancy,2022.2.4,MacIntel,59.99880002,Chrome,1440,900,,,,,0,1186,,,,,,,,,,,,,,,,,F,146,circle,0,0,,,,,,,,,,,,,,,,repeat,number,NA,k,Lo,,,,,,0.8515,5,,,,,,,,high,18,0,18,0,1,,,,,,,,,
295729,2022-09-23_15h28.15.171,vts_reward_expectancy,2022.2.4,MacIntel,59.99880002,Chrome,1440,900,,,,,10,1196,,,,,,,,,,,,,,,,,D,174,hexagon,1,1,,,,,,,,,,,,,,,,repeat,number,numRpt,k,Lo,,,,,,0.8699,5,,,,,,,,high,19,0,19,0,1,,,,,,,,,
295729,2022-09-23_15h28.15.171,vts_reward_expectancy,2022.2.4,MacIntel,59.99880002,Chrome,1440,900,,,,,1,1197,,,,,,,,,,,,,,,,,U,139,hexagon,1,0,,,,,,,,,,,,,,,,switch,letter,lettSwt,f,Lo,,,,,,0.7807,5,,,,,,,,high,20,0,20,0,1,,,,,,,,,
295729,2022-09-23_15h28.15.171,vts_reward_expectancy,2022.2.4,MacIntel,59.99880002,Chrome,1440,900,,,,,0,1197,,,,,,,,,,,,,,,,,W,181,circle,1,0,,,,,,,,,,,,,,,,switch,number,numSwt,k,Hi,,,,,,0.6885,5,,,,,,,,high,21,0,21,0,1,,,,,,,,,
295729,2022-09-23_15h28.15.171,vts_reward_expectancy,2022.2.4,MacIntel,59.99880002,Chrome,1440,900,,,,,1,1198,,,,,,,,,,,,,,,,,Y,167,hexagon,1,0,,,,,,,,,,,,,,,,repeat,number,numRpt,k,Lo,,,,,,1.1488,5,,,,,,,,high,22,0,22,0,1,,,,,,,,,
295729,2022-09-23_15h28.15.171,vts_reward_expectancy,2022.2.4,MacIntel,59.99880002,Chrome,1440,900,,,,,0,1198,,,,,,,,,,,,,,,,,B,132,circle,1,0,,,,,,,,,,,,,,,,switch,letter,lettSwt,d,Hi,,,,,,0.7353,5,,,,,,,,high,23,0,23,0,1,,,,,,,,,
295729,2022-09-23_15h28.15.171,vts_reward_expectancy,2022.2.4,MacIntel,59.99880002,Chrome,1440,900,,,,,1,1199,,,,,,,,,,,,,,,,,D,167,hexagon,1,0,,,,,,,,,,,,,,,,repeat,letter,lettRpt,d,Lo,,,,,,0.8147,5,,,,,,,,high,24,0,24,0,1,,,,,,,,,
295729,2022-09-23_15h28.15.171,vts_reward_expectancy,2022.2.4,MacIntel,59.99880002,Chrome,1440,900,,,,,0,1199,,,,,,,,,,,,,,,,,U,139,circle,1,0,,,,,,,,,,,,,,,,repeat,letter,lettRpt,f,Hi,,,,,,0.5675,5,,,,,,,,high,25,0,25,0,1,,,,,,,,,
295729,2022-09-23_15h28.15.171,vts_reward_expectancy,2022.2.4,MacIntel,59.99880002,Chrome,1440,900,,,,,1,1200,,,,,,,,,,,,,,,,,F,174,hexagon,1,0,,,,,,,,,,,,,,,,switch,number,numSwt,k,Lo,,,,,,0.7875,5,,,,,,,,high,26,0,26,0,1,,,,,,,,,
295729,2022-09-23_15h28.15.171,vts_reward_expectancy,2022.2.4,MacIntel,59.99880002,Chrome,1440,900,,,,,0,1200,,,,,,,,,,,,,,,,,H,125,circle,1,0,,,,,,,,,,,,,,,,repeat,number,numRpt,j,Hi,,,,,,0.8981,5,,,,,,,,high,27,0,27,0,1,,,,,,,,,
295729,2022-09-23_15h28.15.171,vts_reward_expectancy,2022.2.4,MacIntel,59.99880002,Chrome,1440,900,,,,,10,1210,,,,,,,,,,,,,,,,,B,160,hexagon,1,0,,,,,,,,,,,,,,,,switch,letter,lettSwt,d,Lo,,,,,,0.5643,5,,,,,,,,high,28,0,28,0,1,,,,,,,,,
295729,2022-09-23_15h28.15.171,vts_reward_expectancy,2022.2.4,MacIntel,59.99880002,Chrome,1440,900,,,,,0,1210,,,,,,,,,,,,,,,,,Y,132,circle,1,0,,,,,,,,,,,,,,,,switch,number,numSwt,j,Hi,,,,,,0.6155,5,,,,,,,,high,29,0,29,0,1,,,,,,,,,
295729,2022-09-23_15h28.15.171,vts_reward_expectancy,2022.2.4,MacIntel,59.99880002,Chrome,1440,900,,,,,0,1210,,,,,,,,,,,,,,,,,W,181,circle,1,0,,,,,,,,,,,,,,,,switch,letter,lettSwt,f,Hi,,,,,,0.6978,5,,,,,,,,high,30,0,30,0,1,,,,,,,,,
295729,2022-09-23_15h28.15.171,vts_reward_expectancy,2022.2.4,MacIntel,59.99880002,Chrome,1440,900,,,,,1,1211,,,,,,,,,,,,,,,,,S,146,hexagon,1,0,,,,,,,,,,,,,,,,repeat,letter,lettRpt,f,Lo,,,,,,0.798,5,,,,,,,,high,31,0,31,0,1,,,,,,,,,
295729,2022-09-23_15h28.15.171,vts_reward_expectancy,2022.2.4,MacIntel,59.99880002,Chrome,1440,900,,,,,,,,,,,,,,,,,,,,,,,,,,,,,,,,,,,,,,,,,,,,,,,,,,,,,,6,,,,,,,,,,,,,,I had to choose between different numbers and letter,1,,5,4,,2,1440,900
