participant,date,expName,psychopyVersion,OS,frameRate,browser,xResolution,yResolution,key_resp.keys,key_resp.rt,training_resp.keys,training_resp.rt,points_trial,points_cumul,trainBlock,training.thisRepN,training.thisTrialN,training.thisN,training.thisIndex,training.ran,LTriangleOpac,LCircleOpac,LHexagonOpac,LStarOpac,RTriangleOpac,RCircleOpac,RHexagonOpac,RStarOpac,LShape_ID,RShape_ID,curr_topStim,curr_bottStim,curr_shape,acc,E1,target_resp_prac1.keys,target_resp_prac1.rt,pracBlock,task1_prac_trials.thisRepN,task1_prac_trials.thisTrialN,task1_prac_trials.thisN,task1_prac_trials.thisIndex,task1_prac_trials.ran,target_resp_prac2.keys,target_resp_prac2.rt,task2_praac_trials.thisRepN,task2_praac_trials.thisTrialN,task2_praac_trials.thisN,task2_praac_trials.thisIndex,task2_praac_trials.ran,alt,task,condition,target_resp.keys,target_resp.rt,rewCond,vts_practice_trials.thisRepN,vts_practice_trials.thisTrialN,vts_practice_trials.thisN,vts_practice_trials.thisIndex,vts_practice_trials.ran,blockNum,trials_norew.thisRepN,trials_norew.thisTrialN,trials_norew.thisN,trials_norew.thisIndex,trials_norew.ran,key_resp_2.keys,key_resp_2.rt,rewExpect,trials_rew.thisRepN,trials_rew.thisTrialN,trials_rew.thisN,trials_rew.thisIndex,trials_rew.ran,Q1,Q2,Q2_text,Q3,Q4,Q5_text,Q5,xRes,yRes
297643,2022-10-05_22h32.34.083,vts_reward_expectancy,2022.2.4,MacIntel,60.04202942,Chrome,1440,900,,,,,,,,,,,,,,,,,,,,,,,,,,,,,,,,,,,,,,,,,,,,,,,,,,,,,,,,,,,,,,,,,,,,,,,,,,,,
297643,2022-10-05_22h32.34.083,vts_reward_expectancy,2022.2.4,MacIntel,60.04202942,Chrome,1440,900,space,20.0957,,,,,,,,,,,,,,,,,,,,,,,,,,,,,,,,,,,,,,,,,,,,,,,,,,,,,,,,,,,,,,,,,,,,,,,,,,
297643,2022-10-05_22h32.34.083,vts_reward_expectancy,2022.2.4,MacIntel,60.04202942,Chrome,1440,900,,,,,,,,,,,,,,,,,,,,,,,,,,,,,,,,,,,,,,,,,,,,,,,,,,,,,,,,,,,,,,,,,,,,,,,,,,,,
297643,2022-10-05_22h32.34.083,vts_reward_expectancy,2022.2.4,MacIntel,60.04202942,Chrome,1440,900,,,l,1.507,1,1,0,0,0,0,1,1,1,0,0,0,0,0,1,0,triangle,hexagon,,,,,,,,,,,,,,,,,,,,,,,,,,,,,,,,,,,,,,,,,,,,,,,,,,,,,,
297643,2022-10-05_22h32.34.083,vts_reward_expectancy,2022.2.4,MacIntel,60.04202942,Chrome,1440,900,,,l,1.8356,1,2,0,0,1,1,4,1,0,1,0,0,0,0,1,0,circle,hexagon,,,,,,,,,,,,,,,,,,,,,,,,,,,,,,,,,,,,,,,,,,,,,,,,,,,,,,
297643,2022-10-05_22h32.34.083,vts_reward_expectancy,2022.2.4,MacIntel,60.04202942,Chrome,1440,900,,,l,1.8133,10,12,0,0,2,2,7,1,0,0,1,0,0,1,0,0,hexagon,circle,,,,,,,,,,,,,,,,,,,,,,,,,,,,,,,,,,,,,,,,,,,,,,,,,,,,,,
297643,2022-10-05_22h32.34.083,vts_reward_expectancy,2022.2.4,MacIntel,60.04202942,Chrome,1440,900,,,l,2.0538,1,13,0,0,3,3,2,1,1,0,0,0,0,0,0,1,triangle,star,,,,,,,,,,,,,,,,,,,,,,,,,,,,,,,,,,,,,,,,,,,,,,,,,,,,,,
297643,2022-10-05_22h32.34.083,vts_reward_expectancy,2022.2.4,MacIntel,60.04202942,Chrome,1440,900,,,l,1.5026,1,14,0,0,4,4,11,1,0,0,0,1,0,0,1,0,star,hexagon,,,,,,,,,,,,,,,,,,,,,,,,,,,,,,,,,,,,,,,,,,,,,,,,,,,,,,
297643,2022-10-05_22h32.34.083,vts_reward_expectancy,2022.2.4,MacIntel,60.04202942,Chrome,1440,900,,,l,3.8548,1,15,0,0,5,5,8,1,0,0,1,0,0,0,0,1,hexagon,star,,,,,,,,,,,,,,,,,,,,,,,,,,,,,,,,,,,,,,,,,,,,,,,,,,,,,,
297643,2022-10-05_22h32.34.083,vts_reward_expectancy,2022.2.4,MacIntel,60.04202942,Chrome,1440,900,,,l,2.3494,10,25,0,0,6,6,6,1,0,0,1,0,1,0,0,0,hexagon,triangle,,,,,,,,,,,,,,,,,,,,,,,,,,,,,,,,,,,,,,,,,,,,,,,,,,,,,,
297643,2022-10-05_22h32.34.083,vts_reward_expectancy,2022.2.4,MacIntel,60.04202942,Chrome,1440,900,,,l,0.5718,10,35,0,0,7,7,9,1,0,0,0,1,1,0,0,0,star,triangle,,,,,,,,,,,,,,,,,,,,,,,,,,,,,,,,,,,,,,,,,,,,,,,,,,,,,,
297643,2022-10-05_22h32.34.083,vts_reward_expectancy,2022.2.4,MacIntel,60.04202942,Chrome,1440,900,,,a,0.4149,10,45,0,0,8,8,5,1,0,1,0,0,0,0,0,1,circle,star,,,,,,,,,,,,,,,,,,,,,,,,,,,,,,,,,,,,,,,,,,,,,,,,,,,,,,
297643,2022-10-05_22h32.34.083,vts_reward_expectancy,2022.2.4,MacIntel,60.04202942,Chrome,1440,900,,,a,0.6308,10,55,0,0,9,9,0,1,1,0,0,0,0,1,0,0,triangle,circle,,,,,,,,,,,,,,,,,,,,,,,,,,,,,,,,,,,,,,,,,,,,,,,,,,,,,,
297643,2022-10-05_22h32.34.083,vts_reward_expectancy,2022.2.4,MacIntel,60.04202942,Chrome,1440,900,,,l,0.483,10,65,0,0,10,10,10,1,0,0,0,1,0,1,0,0,star ,circle,,,,,,,,,,,,,,,,,,,,,,,,,,,,,,,,,,,,,,,,,,,,,,,,,,,,,,
297643,2022-10-05_22h32.34.083,vts_reward_expectancy,2022.2.4,MacIntel,60.04202942,Chrome,1440,900,,,l,1.4257,10,75,0,0,11,11,3,1,0,1,0,0,1,0,0,0,circle,triangle,,,,,,,,,,,,,,,,,,,,,,,,,,,,,,,,,,,,,,,,,,,,,,,,,,,,,,
297643,2022-10-05_22h32.34.083,vts_reward_expectancy,2022.2.4,MacIntel,60.04202942,Chrome,1440,900,,,a,0.5549,10,85,0,1,0,12,4,1,0,1,0,0,0,0,1,0,circle,hexagon,,,,,,,,,,,,,,,,,,,,,,,,,,,,,,,,,,,,,,,,,,,,,,,,,,,,,,
297643,2022-10-05_22h32.34.083,vts_reward_expectancy,2022.2.4,MacIntel,60.04202942,Chrome,1440,900,,,l,0.358,1,86,0,1,1,13,6,1,0,0,1,0,1,0,0,0,hexagon,triangle,,,,,,,,,,,,,,,,,,,,,,,,,,,,,,,,,,,,,,,,,,,,,,,,,,,,,,
297643,2022-10-05_22h32.34.083,vts_reward_expectancy,2022.2.4,MacIntel,60.04202942,Chrome,1440,900,,,l,0.5686,10,96,0,1,2,14,11,1,0,0,0,1,0,0,1,0,star,hexagon,,,,,,,,,,,,,,,,,,,,,,,,,,,,,,,,,,,,,,,,,,,,,,,,,,,,,,
297643,2022-10-05_22h32.34.083,vts_reward_expectancy,2022.2.4,MacIntel,60.04202942,Chrome,1440,900,,,l,1.1198,1,97,0,1,3,15,0,1,1,0,0,0,0,1,0,0,triangle,circle,,,,,,,,,,,,,,,,,,,,,,,,,,,,,,,,,,,,,,,,,,,,,,,,,,,,,,
297643,2022-10-05_22h32.34.083,vts_reward_expectancy,2022.2.4,MacIntel,60.04202942,Chrome,1440,900,,,a,0.9755,1,98,0,1,4,16,8,1,0,0,1,0,0,0,0,1,hexagon,star,,,,,,,,,,,,,,,,,,,,,,,,,,,,,,,,,,,,,,,,,,,,,,,,,,,,,,
297643,2022-10-05_22h32.34.083,vts_reward_expectancy,2022.2.4,MacIntel,60.04202942,Chrome,1440,900,,,l,1.6183,10,108,0,1,5,17,7,1,0,0,1,0,0,1,0,0,hexagon,circle,,,,,,,,,,,,,,,,,,,,,,,,,,,,,,,,,,,,,,,,,,,,,,,,,,,,,,
297643,2022-10-05_22h32.34.083,vts_reward_expectancy,2022.2.4,MacIntel,60.04202942,Chrome,1440,900,,,l,0.5263,1,109,0,1,6,18,10,1,0,0,0,1,0,1,0,0,star ,circle,,,,,,,,,,,,,,,,,,,,,,,,,,,,,,,,,,,,,,,,,,,,,,,,,,,,,,
297643,2022-10-05_22h32.34.083,vts_reward_expectancy,2022.2.4,MacIntel,60.04202942,Chrome,1440,900,,,l,2.1235,10,119,0,1,7,19,3,1,0,1,0,0,1,0,0,0,circle,triangle,,,,,,,,,,,,,,,,,,,,,,,,,,,,,,,,,,,,,,,,,,,,,,,,,,,,,,
297643,2022-10-05_22h32.34.083,vts_reward_expectancy,2022.2.4,MacIntel,60.04202942,Chrome,1440,900,,,l,0.6823,1,120,0,1,8,20,5,1,0,1,0,0,0,0,0,1,circle,star,,,,,,,,,,,,,,,,,,,,,,,,,,,,,,,,,,,,,,,,,,,,,,,,,,,,,,
297643,2022-10-05_22h32.34.083,vts_reward_expectancy,2022.2.4,MacIntel,60.04202942,Chrome,1440,900,,,a,1.6137,1,121,0,1,9,21,9,1,0,0,0,1,1,0,0,0,star,triangle,,,,,,,,,,,,,,,,,,,,,,,,,,,,,,,,,,,,,,,,,,,,,,,,,,,,,,
297643,2022-10-05_22h32.34.083,vts_reward_expectancy,2022.2.4,MacIntel,60.04202942,Chrome,1440,900,,,a,1.202,10,131,0,1,10,22,1,1,1,0,0,0,0,0,1,0,triangle,hexagon,,,,,,,,,,,,,,,,,,,,,,,,,,,,,,,,,,,,,,,,,,,,,,,,,,,,,,
297643,2022-10-05_22h32.34.083,vts_reward_expectancy,2022.2.4,MacIntel,60.04202942,Chrome,1440,900,,,a,1.0833,10,141,0,1,11,23,2,1,1,0,0,0,0,0,0,1,triangle,star,,,,,,,,,,,,,,,,,,,,,,,,,,,,,,,,,,,,,,,,,,,,,,,,,,,,,,
297643,2022-10-05_22h32.34.083,vts_reward_expectancy,2022.2.4,MacIntel,60.04202942,Chrome,1440,900,,,l,0.8184,10,151,0,2,0,24,6,1,0,0,1,0,1,0,0,0,hexagon,triangle,,,,,,,,,,,,,,,,,,,,,,,,,,,,,,,,,,,,,,,,,,,,,,,,,,,,,,
297643,2022-10-05_22h32.34.083,vts_reward_expectancy,2022.2.4,MacIntel,60.04202942,Chrome,1440,900,,,a,0.9445,10,161,0,2,1,25,4,1,0,1,0,0,0,0,1,0,circle,hexagon,,,,,,,,,,,,,,,,,,,,,,,,,,,,,,,,,,,,,,,,,,,,,,,,,,,,,,
297643,2022-10-05_22h32.34.083,vts_reward_expectancy,2022.2.4,MacIntel,60.04202942,Chrome,1440,900,,,a,1.5763,10,171,0,2,2,26,2,1,1,0,0,0,0,0,0,1,triangle,star,,,,,,,,,,,,,,,,,,,,,,,,,,,,,,,,,,,,,,,,,,,,,,,,,,,,,,
297643,2022-10-05_22h32.34.083,vts_reward_expectancy,2022.2.4,MacIntel,60.04202942,Chrome,1440,900,,,l,1.5029,1,172,0,2,3,27,3,1,0,1,0,0,1,0,0,0,circle,triangle,,,,,,,,,,,,,,,,,,,,,,,,,,,,,,,,,,,,,,,,,,,,,,,,,,,,,,
297643,2022-10-05_22h32.34.083,vts_reward_expectancy,2022.2.4,MacIntel,60.04202942,Chrome,1440,900,,,a,0.6562,10,182,0,2,4,28,0,1,1,0,0,0,0,1,0,0,triangle,circle,,,,,,,,,,,,,,,,,,,,,,,,,,,,,,,,,,,,,,,,,,,,,,,,,,,,,,
297643,2022-10-05_22h32.34.083,vts_reward_expectancy,2022.2.4,MacIntel,60.04202942,Chrome,1440,900,,,l,2.8257,10,192,0,2,5,29,9,1,0,0,0,1,1,0,0,0,star,triangle,,,,,,,,,,,,,,,,,,,,,,,,,,,,,,,,,,,,,,,,,,,,,,,,,,,,,,
297643,2022-10-05_22h32.34.083,vts_reward_expectancy,2022.2.4,MacIntel,60.04202942,Chrome,1440,900,,,l,1.9655,10,202,0,2,6,30,8,1,0,0,1,0,0,0,0,1,hexagon,star,,,,,,,,,,,,,,,,,,,,,,,,,,,,,,,,,,,,,,,,,,,,,,,,,,,,,,
297643,2022-10-05_22h32.34.083,vts_reward_expectancy,2022.2.4,MacIntel,60.04202942,Chrome,1440,900,,,l,1.1947,1,203,0,2,7,31,10,1,0,0,0,1,0,1,0,0,star ,circle,,,,,,,,,,,,,,,,,,,,,,,,,,,,,,,,,,,,,,,,,,,,,,,,,,,,,,
297643,2022-10-05_22h32.34.083,vts_reward_expectancy,2022.2.4,MacIntel,60.04202942,Chrome,1440,900,,,a,1.8431,10,213,0,2,8,32,5,1,0,1,0,0,0,0,0,1,circle,star,,,,,,,,,,,,,,,,,,,,,,,,,,,,,,,,,,,,,,,,,,,,,,,,,,,,,,
297643,2022-10-05_22h32.34.083,vts_reward_expectancy,2022.2.4,MacIntel,60.04202942,Chrome,1440,900,,,a,0.9881,10,223,0,2,9,33,1,1,1,0,0,0,0,0,1,0,triangle,hexagon,,,,,,,,,,,,,,,,,,,,,,,,,,,,,,,,,,,,,,,,,,,,,,,,,,,,,,
297643,2022-10-05_22h32.34.083,vts_reward_expectancy,2022.2.4,MacIntel,60.04202942,Chrome,1440,900,,,a,1.4982,1,224,0,2,10,34,11,1,0,0,0,1,0,0,1,0,star,hexagon,,,,,,,,,,,,,,,,,,,,,,,,,,,,,,,,,,,,,,,,,,,,,,,,,,,,,,
297643,2022-10-05_22h32.34.083,vts_reward_expectancy,2022.2.4,MacIntel,60.04202942,Chrome,1440,900,,,l,0.9168,10,234,0,2,11,35,7,1,0,0,1,0,0,1,0,0,hexagon,circle,,,,,,,,,,,,,,,,,,,,,,,,,,,,,,,,,,,,,,,,,,,,,,,,,,,,,,
297643,2022-10-05_22h32.34.083,vts_reward_expectancy,2022.2.4,MacIntel,60.04202942,Chrome,1440,900,,,l,0.7006,10,244,1,0,0,0,7,1,0,0,1,0,0,1,0,0,hexagon,circle,,,,,,,,,,,,,,,,,,,,,,,,,,,,,,,,,,,,,,,,,,,,,,,,,,,,,,
297643,2022-10-05_22h32.34.083,vts_reward_expectancy,2022.2.4,MacIntel,60.04202942,Chrome,1440,900,,,a,0.5578,10,254,1,0,1,1,4,1,0,1,0,0,0,0,1,0,circle,hexagon,,,,,,,,,,,,,,,,,,,,,,,,,,,,,,,,,,,,,,,,,,,,,,,,,,,,,,
297643,2022-10-05_22h32.34.083,vts_reward_expectancy,2022.2.4,MacIntel,60.04202942,Chrome,1440,900,,,a,1.2136,10,264,1,0,2,2,5,1,0,1,0,0,0,0,0,1,circle,star,,,,,,,,,,,,,,,,,,,,,,,,,,,,,,,,,,,,,,,,,,,,,,,,,,,,,,
297643,2022-10-05_22h32.34.083,vts_reward_expectancy,2022.2.4,MacIntel,60.04202942,Chrome,1440,900,,,a,0.6346,10,274,1,0,3,3,1,1,1,0,0,0,0,0,1,0,triangle,hexagon,,,,,,,,,,,,,,,,,,,,,,,,,,,,,,,,,,,,,,,,,,,,,,,,,,,,,,
297643,2022-10-05_22h32.34.083,vts_reward_expectancy,2022.2.4,MacIntel,60.04202942,Chrome,1440,900,,,a,0.454,10,284,1,0,4,4,0,1,1,0,0,0,0,1,0,0,triangle,circle,,,,,,,,,,,,,,,,,,,,,,,,,,,,,,,,,,,,,,,,,,,,,,,,,,,,,,
297643,2022-10-05_22h32.34.083,vts_reward_expectancy,2022.2.4,MacIntel,60.04202942,Chrome,1440,900,,,l,0.4266,10,294,1,0,5,5,9,1,0,0,0,1,1,0,0,0,star,triangle,,,,,,,,,,,,,,,,,,,,,,,,,,,,,,,,,,,,,,,,,,,,,,,,,,,,,,
297643,2022-10-05_22h32.34.083,vts_reward_expectancy,2022.2.4,MacIntel,60.04202942,Chrome,1440,900,,,a,0.3578,10,304,1,0,6,6,2,1,1,0,0,0,0,0,0,1,triangle,star,,,,,,,,,,,,,,,,,,,,,,,,,,,,,,,,,,,,,,,,,,,,,,,,,,,,,,
297643,2022-10-05_22h32.34.083,vts_reward_expectancy,2022.2.4,MacIntel,60.04202942,Chrome,1440,900,,,l,0.3515,1,305,1,0,7,7,3,1,0,1,0,0,1,0,0,0,circle,triangle,,,,,,,,,,,,,,,,,,,,,,,,,,,,,,,,,,,,,,,,,,,,,,,,,,,,,,
297643,2022-10-05_22h32.34.083,vts_reward_expectancy,2022.2.4,MacIntel,60.04202942,Chrome,1440,900,,,l,0.4459,10,315,1,0,8,8,11,1,0,0,0,1,0,0,1,0,star,hexagon,,,,,,,,,,,,,,,,,,,,,,,,,,,,,,,,,,,,,,,,,,,,,,,,,,,,,,
297643,2022-10-05_22h32.34.083,vts_reward_expectancy,2022.2.4,MacIntel,60.04202942,Chrome,1440,900,,,l,0.6086,10,325,1,0,9,9,10,1,0,0,0,1,0,1,0,0,star ,circle,,,,,,,,,,,,,,,,,,,,,,,,,,,,,,,,,,,,,,,,,,,,,,,,,,,,,,
297643,2022-10-05_22h32.34.083,vts_reward_expectancy,2022.2.4,MacIntel,60.04202942,Chrome,1440,900,,,l,0.5834,10,335,1,0,10,10,6,1,0,0,1,0,1,0,0,0,hexagon,triangle,,,,,,,,,,,,,,,,,,,,,,,,,,,,,,,,,,,,,,,,,,,,,,,,,,,,,,
297643,2022-10-05_22h32.34.083,vts_reward_expectancy,2022.2.4,MacIntel,60.04202942,Chrome,1440,900,,,a,0.4114,10,345,1,0,11,11,8,1,0,0,1,0,0,0,0,1,hexagon,star,,,,,,,,,,,,,,,,,,,,,,,,,,,,,,,,,,,,,,,,,,,,,,,,,,,,,,
297643,2022-10-05_22h32.34.083,vts_reward_expectancy,2022.2.4,MacIntel,60.04202942,Chrome,1440,900,,,a,0.4855,10,355,1,1,0,12,1,1,1,0,0,0,0,0,1,0,triangle,hexagon,,,,,,,,,,,,,,,,,,,,,,,,,,,,,,,,,,,,,,,,,,,,,,,,,,,,,,
297643,2022-10-05_22h32.34.083,vts_reward_expectancy,2022.2.4,MacIntel,60.04202942,Chrome,1440,900,,,l,0.7678,10,365,1,1,1,13,3,1,0,1,0,0,1,0,0,0,circle,triangle,,,,,,,,,,,,,,,,,,,,,,,,,,,,,,,,,,,,,,,,,,,,,,,,,,,,,,
297643,2022-10-05_22h32.34.083,vts_reward_expectancy,2022.2.4,MacIntel,60.04202942,Chrome,1440,900,,,l,0.3943,10,375,1,1,2,14,10,1,0,0,0,1,0,1,0,0,star ,circle,,,,,,,,,,,,,,,,,,,,,,,,,,,,,,,,,,,,,,,,,,,,,,,,,,,,,,
297643,2022-10-05_22h32.34.083,vts_reward_expectancy,2022.2.4,MacIntel,60.04202942,Chrome,1440,900,,,l,0.3766,1,376,1,1,3,15,7,1,0,0,1,0,0,1,0,0,hexagon,circle,,,,,,,,,,,,,,,,,,,,,,,,,,,,,,,,,,,,,,,,,,,,,,,,,,,,,,
297643,2022-10-05_22h32.34.083,vts_reward_expectancy,2022.2.4,MacIntel,60.04202942,Chrome,1440,900,,,l,0.5158,10,386,1,1,4,16,6,1,0,0,1,0,1,0,0,0,hexagon,triangle,,,,,,,,,,,,,,,,,,,,,,,,,,,,,,,,,,,,,,,,,,,,,,,,,,,,,,
297643,2022-10-05_22h32.34.083,vts_reward_expectancy,2022.2.4,MacIntel,60.04202942,Chrome,1440,900,,,a,0.8995,1,387,1,1,5,17,8,1,0,0,1,0,0,0,0,1,hexagon,star,,,,,,,,,,,,,,,,,,,,,,,,,,,,,,,,,,,,,,,,,,,,,,,,,,,,,,
297643,2022-10-05_22h32.34.083,vts_reward_expectancy,2022.2.4,MacIntel,60.04202942,Chrome,1440,900,,,a,0.7419,1,388,1,1,6,18,5,1,0,1,0,0,0,0,0,1,circle,star,,,,,,,,,,,,,,,,,,,,,,,,,,,,,,,,,,,,,,,,,,,,,,,,,,,,,,
297643,2022-10-05_22h32.34.083,vts_reward_expectancy,2022.2.4,MacIntel,60.04202942,Chrome,1440,900,,,a,0.6757,10,398,1,1,7,19,2,1,1,0,0,0,0,0,0,1,triangle,star,,,,,,,,,,,,,,,,,,,,,,,,,,,,,,,,,,,,,,,,,,,,,,,,,,,,,,
297643,2022-10-05_22h32.34.083,vts_reward_expectancy,2022.2.4,MacIntel,60.04202942,Chrome,1440,900,,,a,0.7791,10,408,1,1,8,20,4,1,0,1,0,0,0,0,1,0,circle,hexagon,,,,,,,,,,,,,,,,,,,,,,,,,,,,,,,,,,,,,,,,,,,,,,,,,,,,,,
297643,2022-10-05_22h32.34.083,vts_reward_expectancy,2022.2.4,MacIntel,60.04202942,Chrome,1440,900,,,a,0.7265,10,418,1,1,9,21,0,1,1,0,0,0,0,1,0,0,triangle,circle,,,,,,,,,,,,,,,,,,,,,,,,,,,,,,,,,,,,,,,,,,,,,,,,,,,,,,
297643,2022-10-05_22h32.34.083,vts_reward_expectancy,2022.2.4,MacIntel,60.04202942,Chrome,1440,900,,,a,1.0707,1,419,1,1,10,22,9,1,0,0,0,1,1,0,0,0,star,triangle,,,,,,,,,,,,,,,,,,,,,,,,,,,,,,,,,,,,,,,,,,,,,,,,,,,,,,
297643,2022-10-05_22h32.34.083,vts_reward_expectancy,2022.2.4,MacIntel,60.04202942,Chrome,1440,900,,,a,1.9443,1,420,1,1,11,23,11,1,0,0,0,1,0,0,1,0,star,hexagon,,,,,,,,,,,,,,,,,,,,,,,,,,,,,,,,,,,,,,,,,,,,,,,,,,,,,,
297643,2022-10-05_22h32.34.083,vts_reward_expectancy,2022.2.4,MacIntel,60.04202942,Chrome,1440,900,,,a,1.0521,10,430,1,2,0,24,0,1,1,0,0,0,0,1,0,0,triangle,circle,,,,,,,,,,,,,,,,,,,,,,,,,,,,,,,,,,,,,,,,,,,,,,,,,,,,,,
297643,2022-10-05_22h32.34.083,vts_reward_expectancy,2022.2.4,MacIntel,60.04202942,Chrome,1440,900,,,a,2.0341,1,431,1,2,1,25,8,1,0,0,1,0,0,0,0,1,hexagon,star,,,,,,,,,,,,,,,,,,,,,,,,,,,,,,,,,,,,,,,,,,,,,,,,,,,,,,
297643,2022-10-05_22h32.34.083,vts_reward_expectancy,2022.2.4,MacIntel,60.04202942,Chrome,1440,900,,,a,0.6894,10,441,1,2,2,26,4,1,0,1,0,0,0,0,1,0,circle,hexagon,,,,,,,,,,,,,,,,,,,,,,,,,,,,,,,,,,,,,,,,,,,,,,,,,,,,,,
297643,2022-10-05_22h32.34.083,vts_reward_expectancy,2022.2.4,MacIntel,60.04202942,Chrome,1440,900,,,a,1.3943,10,451,1,2,3,27,10,1,0,0,0,1,0,1,0,0,star ,circle,,,,,,,,,,,,,,,,,,,,,,,,,,,,,,,,,,,,,,,,,,,,,,,,,,,,,,
297643,2022-10-05_22h32.34.083,vts_reward_expectancy,2022.2.4,MacIntel,60.04202942,Chrome,1440,900,,,l,1.1331,10,461,1,2,4,28,3,1,0,1,0,0,1,0,0,0,circle,triangle,,,,,,,,,,,,,,,,,,,,,,,,,,,,,,,,,,,,,,,,,,,,,,,,,,,,,,
297643,2022-10-05_22h32.34.083,vts_reward_expectancy,2022.2.4,MacIntel,60.04202942,Chrome,1440,900,,,l,0.928,1,462,1,2,5,29,6,1,0,0,1,0,1,0,0,0,hexagon,triangle,,,,,,,,,,,,,,,,,,,,,,,,,,,,,,,,,,,,,,,,,,,,,,,,,,,,,,
297643,2022-10-05_22h32.34.083,vts_reward_expectancy,2022.2.4,MacIntel,60.04202942,Chrome,1440,900,,,a,1.5387,10,472,1,2,6,30,9,1,0,0,0,1,1,0,0,0,star,triangle,,,,,,,,,,,,,,,,,,,,,,,,,,,,,,,,,,,,,,,,,,,,,,,,,,,,,,
297643,2022-10-05_22h32.34.083,vts_reward_expectancy,2022.2.4,MacIntel,60.04202942,Chrome,1440,900,,,a,1.1423,10,482,1,2,7,31,1,1,1,0,0,0,0,0,1,0,triangle,hexagon,,,,,,,,,,,,,,,,,,,,,,,,,,,,,,,,,,,,,,,,,,,,,,,,,,,,,,
297643,2022-10-05_22h32.34.083,vts_reward_expectancy,2022.2.4,MacIntel,60.04202942,Chrome,1440,900,,,l,1.431,10,492,1,2,8,32,7,1,0,0,1,0,0,1,0,0,hexagon,circle,,,,,,,,,,,,,,,,,,,,,,,,,,,,,,,,,,,,,,,,,,,,,,,,,,,,,,
297643,2022-10-05_22h32.34.083,vts_reward_expectancy,2022.2.4,MacIntel,60.04202942,Chrome,1440,900,,,a,1.0984,1,493,1,2,9,33,11,1,0,0,0,1,0,0,1,0,star,hexagon,,,,,,,,,,,,,,,,,,,,,,,,,,,,,,,,,,,,,,,,,,,,,,,,,,,,,,
297643,2022-10-05_22h32.34.083,vts_reward_expectancy,2022.2.4,MacIntel,60.04202942,Chrome,1440,900,,,a,3.4712,10,503,1,2,10,34,5,1,0,1,0,0,0,0,0,1,circle,star,,,,,,,,,,,,,,,,,,,,,,,,,,,,,,,,,,,,,,,,,,,,,,,,,,,,,,
297643,2022-10-05_22h32.34.083,vts_reward_expectancy,2022.2.4,MacIntel,60.04202942,Chrome,1440,900,,,l,0.9308,1,504,1,2,11,35,2,1,1,0,0,0,0,0,0,1,triangle,star,,,,,,,,,,,,,,,,,,,,,,,,,,,,,,,,,,,,,,,,,,,,,,,,,,,,,,
297643,2022-10-05_22h32.34.083,vts_reward_expectancy,2022.2.4,MacIntel,60.04202942,Chrome,1440,900,,,a,0.9727,10,514,2,0,0,0,11,1,0,0,0,1,0,0,1,0,star,hexagon,,,,,,,,,,,,,,,,,,,,,,,,,,,,,,,,,,,,,,,,,,,,,,,,,,,,,,
297643,2022-10-05_22h32.34.083,vts_reward_expectancy,2022.2.4,MacIntel,60.04202942,Chrome,1440,900,,,l,0.632,1,515,2,0,1,1,1,1,1,0,0,0,0,0,1,0,triangle,hexagon,,,,,,,,,,,,,,,,,,,,,,,,,,,,,,,,,,,,,,,,,,,,,,,,,,,,,,
297643,2022-10-05_22h32.34.083,vts_reward_expectancy,2022.2.4,MacIntel,60.04202942,Chrome,1440,900,,,l,0.9907,10,525,2,0,2,2,3,1,0,1,0,0,1,0,0,0,circle,triangle,,,,,,,,,,,,,,,,,,,,,,,,,,,,,,,,,,,,,,,,,,,,,,,,,,,,,,
297643,2022-10-05_22h32.34.083,vts_reward_expectancy,2022.2.4,MacIntel,60.04202942,Chrome,1440,900,,,l,0.5391,10,535,2,0,3,3,6,1,0,0,1,0,1,0,0,0,hexagon,triangle,,,,,,,,,,,,,,,,,,,,,,,,,,,,,,,,,,,,,,,,,,,,,,,,,,,,,,
297643,2022-10-05_22h32.34.083,vts_reward_expectancy,2022.2.4,MacIntel,60.04202942,Chrome,1440,900,,,l,0.3914,1,536,2,0,4,4,7,1,0,0,1,0,0,1,0,0,hexagon,circle,,,,,,,,,,,,,,,,,,,,,,,,,,,,,,,,,,,,,,,,,,,,,,,,,,,,,,
297643,2022-10-05_22h32.34.083,vts_reward_expectancy,2022.2.4,MacIntel,60.04202942,Chrome,1440,900,,,a,0.755,10,546,2,0,5,5,4,1,0,1,0,0,0,0,1,0,circle,hexagon,,,,,,,,,,,,,,,,,,,,,,,,,,,,,,,,,,,,,,,,,,,,,,,,,,,,,,
297643,2022-10-05_22h32.34.083,vts_reward_expectancy,2022.2.4,MacIntel,60.04202942,Chrome,1440,900,,,a,0.3923,10,556,2,0,6,6,5,1,0,1,0,0,0,0,0,1,circle,star,,,,,,,,,,,,,,,,,,,,,,,,,,,,,,,,,,,,,,,,,,,,,,,,,,,,,,
297643,2022-10-05_22h32.34.083,vts_reward_expectancy,2022.2.4,MacIntel,60.04202942,Chrome,1440,900,,,l,0.4429,10,566,2,0,7,7,0,1,1,0,0,0,0,1,0,0,triangle,circle,,,,,,,,,,,,,,,,,,,,,,,,,,,,,,,,,,,,,,,,,,,,,,,,,,,,,,
297643,2022-10-05_22h32.34.083,vts_reward_expectancy,2022.2.4,MacIntel,60.04202942,Chrome,1440,900,,,l,1.8024,1,567,2,0,8,8,8,1,0,0,1,0,0,0,0,1,hexagon,star,,,,,,,,,,,,,,,,,,,,,,,,,,,,,,,,,,,,,,,,,,,,,,,,,,,,,,
297643,2022-10-05_22h32.34.083,vts_reward_expectancy,2022.2.4,MacIntel,60.04202942,Chrome,1440,900,,,l,0.6423,10,577,2,0,9,9,10,1,0,0,0,1,0,1,0,0,star ,circle,,,,,,,,,,,,,,,,,,,,,,,,,,,,,,,,,,,,,,,,,,,,,,,,,,,,,,
297643,2022-10-05_22h32.34.083,vts_reward_expectancy,2022.2.4,MacIntel,60.04202942,Chrome,1440,900,,,l,0.4706,10,587,2,0,10,10,9,1,0,0,0,1,1,0,0,0,star,triangle,,,,,,,,,,,,,,,,,,,,,,,,,,,,,,,,,,,,,,,,,,,,,,,,,,,,,,
297643,2022-10-05_22h32.34.083,vts_reward_expectancy,2022.2.4,MacIntel,60.04202942,Chrome,1440,900,,,a,0.9615,10,597,2,0,11,11,2,1,1,0,0,0,0,0,0,1,triangle,star,,,,,,,,,,,,,,,,,,,,,,,,,,,,,,,,,,,,,,,,,,,,,,,,,,,,,,
297643,2022-10-05_22h32.34.083,vts_reward_expectancy,2022.2.4,MacIntel,60.04202942,Chrome,1440,900,,,a,1.6946,1,598,2,1,0,12,5,1,0,1,0,0,0,0,0,1,circle,star,,,,,,,,,,,,,,,,,,,,,,,,,,,,,,,,,,,,,,,,,,,,,,,,,,,,,,
297643,2022-10-05_22h32.34.083,vts_reward_expectancy,2022.2.4,MacIntel,60.04202942,Chrome,1440,900,,,a,0.8674,10,608,2,1,1,13,2,1,1,0,0,0,0,0,0,1,triangle,star,,,,,,,,,,,,,,,,,,,,,,,,,,,,,,,,,,,,,,,,,,,,,,,,,,,,,,
297643,2022-10-05_22h32.34.083,vts_reward_expectancy,2022.2.4,MacIntel,60.04202942,Chrome,1440,900,,,a,2.1051,10,618,2,1,2,14,0,1,1,0,0,0,0,1,0,0,triangle,circle,,,,,,,,,,,,,,,,,,,,,,,,,,,,,,,,,,,,,,,,,,,,,,,,,,,,,,
297643,2022-10-05_22h32.34.083,vts_reward_expectancy,2022.2.4,MacIntel,60.04202942,Chrome,1440,900,,,l,1.4914,1,619,2,1,3,15,8,1,0,0,1,0,0,0,0,1,hexagon,star,,,,,,,,,,,,,,,,,,,,,,,,,,,,,,,,,,,,,,,,,,,,,,,,,,,,,,
297643,2022-10-05_22h32.34.083,vts_reward_expectancy,2022.2.4,MacIntel,60.04202942,Chrome,1440,900,,,l,0.8408,10,629,2,1,4,16,9,1,0,0,0,1,1,0,0,0,star,triangle,,,,,,,,,,,,,,,,,,,,,,,,,,,,,,,,,,,,,,,,,,,,,,,,,,,,,,
297643,2022-10-05_22h32.34.083,vts_reward_expectancy,2022.2.4,MacIntel,60.04202942,Chrome,1440,900,,,l,1.7601,1,630,2,1,5,17,3,1,0,1,0,0,1,0,0,0,circle,triangle,,,,,,,,,,,,,,,,,,,,,,,,,,,,,,,,,,,,,,,,,,,,,,,,,,,,,,
297643,2022-10-05_22h32.34.083,vts_reward_expectancy,2022.2.4,MacIntel,60.04202942,Chrome,1440,900,,,a,0.7529,10,640,2,1,6,18,4,1,0,1,0,0,0,0,1,0,circle,hexagon,,,,,,,,,,,,,,,,,,,,,,,,,,,,,,,,,,,,,,,,,,,,,,,,,,,,,,
297643,2022-10-05_22h32.34.083,vts_reward_expectancy,2022.2.4,MacIntel,60.04202942,Chrome,1440,900,,,l,0.7721,1,641,2,1,7,19,7,1,0,0,1,0,0,1,0,0,hexagon,circle,,,,,,,,,,,,,,,,,,,,,,,,,,,,,,,,,,,,,,,,,,,,,,,,,,,,,,
297643,2022-10-05_22h32.34.083,vts_reward_expectancy,2022.2.4,MacIntel,60.04202942,Chrome,1440,900,,,l,0.8442,10,651,2,1,8,20,6,1,0,0,1,0,1,0,0,0,hexagon,triangle,,,,,,,,,,,,,,,,,,,,,,,,,,,,,,,,,,,,,,,,,,,,,,,,,,,,,,
297643,2022-10-05_22h32.34.083,vts_reward_expectancy,2022.2.4,MacIntel,60.04202942,Chrome,1440,900,,,a,2.6822,1,652,2,1,9,21,11,1,0,0,0,1,0,0,1,0,star,hexagon,,,,,,,,,,,,,,,,,,,,,,,,,,,,,,,,,,,,,,,,,,,,,,,,,,,,,,
297643,2022-10-05_22h32.34.083,vts_reward_expectancy,2022.2.4,MacIntel,60.04202942,Chrome,1440,900,,,l,1.0847,10,662,2,1,10,22,10,1,0,0,0,1,0,1,0,0,star ,circle,,,,,,,,,,,,,,,,,,,,,,,,,,,,,,,,,,,,,,,,,,,,,,,,,,,,,,
297643,2022-10-05_22h32.34.083,vts_reward_expectancy,2022.2.4,MacIntel,60.04202942,Chrome,1440,900,,,a,1.0328,10,672,2,1,11,23,1,1,1,0,0,0,0,0,1,0,triangle,hexagon,,,,,,,,,,,,,,,,,,,,,,,,,,,,,,,,,,,,,,,,,,,,,,,,,,,,,,
297643,2022-10-05_22h32.34.083,vts_reward_expectancy,2022.2.4,MacIntel,60.04202942,Chrome,1440,900,,,a,1.925,1,673,2,2,0,24,8,1,0,0,1,0,0,0,0,1,hexagon,star,,,,,,,,,,,,,,,,,,,,,,,,,,,,,,,,,,,,,,,,,,,,,,,,,,,,,,
297643,2022-10-05_22h32.34.083,vts_reward_expectancy,2022.2.4,MacIntel,60.04202942,Chrome,1440,900,,,a,0.9325,10,683,2,2,1,25,1,1,1,0,0,0,0,0,1,0,triangle,hexagon,,,,,,,,,,,,,,,,,,,,,,,,,,,,,,,,,,,,,,,,,,,,,,,,,,,,,,
297643,2022-10-05_22h32.34.083,vts_reward_expectancy,2022.2.4,MacIntel,60.04202942,Chrome,1440,900,,,l,1.4695,1,684,2,2,2,26,10,1,0,0,0,1,0,1,0,0,star ,circle,,,,,,,,,,,,,,,,,,,,,,,,,,,,,,,,,,,,,,,,,,,,,,,,,,,,,,
297643,2022-10-05_22h32.34.083,vts_reward_expectancy,2022.2.4,MacIntel,60.04202942,Chrome,1440,900,,,l,0.8729,10,694,2,2,3,27,9,1,0,0,0,1,1,0,0,0,star,triangle,,,,,,,,,,,,,,,,,,,,,,,,,,,,,,,,,,,,,,,,,,,,,,,,,,,,,,
297643,2022-10-05_22h32.34.083,vts_reward_expectancy,2022.2.4,MacIntel,60.04202942,Chrome,1440,900,,,a,0.9048,10,704,2,2,4,28,2,1,1,0,0,0,0,0,0,1,triangle,star,,,,,,,,,,,,,,,,,,,,,,,,,,,,,,,,,,,,,,,,,,,,,,,,,,,,,,
297643,2022-10-05_22h32.34.083,vts_reward_expectancy,2022.2.4,MacIntel,60.04202942,Chrome,1440,900,,,l,1.568,10,714,2,2,5,29,6,1,0,0,1,0,1,0,0,0,hexagon,triangle,,,,,,,,,,,,,,,,,,,,,,,,,,,,,,,,,,,,,,,,,,,,,,,,,,,,,,
297643,2022-10-05_22h32.34.083,vts_reward_expectancy,2022.2.4,MacIntel,60.04202942,Chrome,1440,900,,,l,0.9092,10,724,2,2,6,30,7,1,0,0,1,0,0,1,0,0,hexagon,circle,,,,,,,,,,,,,,,,,,,,,,,,,,,,,,,,,,,,,,,,,,,,,,,,,,,,,,
297643,2022-10-05_22h32.34.083,vts_reward_expectancy,2022.2.4,MacIntel,60.04202942,Chrome,1440,900,,,a,1.3889,10,734,2,2,7,31,3,1,0,1,0,0,1,0,0,0,circle,triangle,,,,,,,,,,,,,,,,,,,,,,,,,,,,,,,,,,,,,,,,,,,,,,,,,,,,,,
297643,2022-10-05_22h32.34.083,vts_reward_expectancy,2022.2.4,MacIntel,60.04202942,Chrome,1440,900,,,a,0.8245,1,735,2,2,8,32,5,1,0,1,0,0,0,0,0,1,circle,star,,,,,,,,,,,,,,,,,,,,,,,,,,,,,,,,,,,,,,,,,,,,,,,,,,,,,,
297643,2022-10-05_22h32.34.083,vts_reward_expectancy,2022.2.4,MacIntel,60.04202942,Chrome,1440,900,,,a,1.1211,10,745,2,2,9,33,4,1,0,1,0,0,0,0,1,0,circle,hexagon,,,,,,,,,,,,,,,,,,,,,,,,,,,,,,,,,,,,,,,,,,,,,,,,,,,,,,
297643,2022-10-05_22h32.34.083,vts_reward_expectancy,2022.2.4,MacIntel,60.04202942,Chrome,1440,900,,,l,0.7291,1,746,2,2,10,34,11,1,0,0,0,1,0,0,1,0,star,hexagon,,,,,,,,,,,,,,,,,,,,,,,,,,,,,,,,,,,,,,,,,,,,,,,,,,,,,,
297643,2022-10-05_22h32.34.083,vts_reward_expectancy,2022.2.4,MacIntel,60.04202942,Chrome,1440,900,,,a,4.6507,10,756,2,2,11,35,0,1,1,0,0,0,0,1,0,0,triangle,circle,,,,,,,,,,,,,,,,,,,,,,,,,,,,,,,,,,,,,,,,,,,,,,,,,,,,,,
297643,2022-10-05_22h32.34.083,vts_reward_expectancy,2022.2.4,MacIntel,60.04202942,Chrome,1440,900,,,,,,,,,,,,,,,,,,,,,,,B,174,circle,1,0,d,0.8919,0,0,0,0,0,1,,,,,,,,,,,,,,,,,,,,,,,,,,,,,,,,,,,,,,,,,
297643,2022-10-05_22h32.34.083,vts_reward_expectancy,2022.2.4,MacIntel,60.04202942,Chrome,1440,900,,,,,,,,,,,,,,,,,,,,,,,U,125,triangle,1,0,f,0.8032,0,1,0,1,0,1,,,,,,,,,,,,,,,,,,,,,,,,,,,,,,,,,,,,,,,,,
297643,2022-10-05_22h32.34.083,vts_reward_expectancy,2022.2.4,MacIntel,60.04202942,Chrome,1440,900,,,,,,,,,,,,,,,,,,,,,,,F,160,star,1,0,d,0.7394,0,2,0,2,0,1,,,,,,,,,,,,,,,,,,,,,,,,,,,,,,,,,,,,,,,,,
297643,2022-10-05_22h32.34.083,vts_reward_expectancy,2022.2.4,MacIntel,60.04202942,Chrome,1440,900,,,,,,,,,,,,,,,,,,,,,,,S,181,hexagon,1,0,f,0.5247,0,3,0,3,0,1,,,,,,,,,,,,,,,,,,,,,,,,,,,,,,,,,,,,,,,,,
297643,2022-10-05_22h32.34.083,vts_reward_expectancy,2022.2.4,MacIntel,60.04202942,Chrome,1440,900,,,,,,,,,,,,,,,,,,,,,,,Y,132,circle,1,0,f,0.7168,0,4,0,4,0,1,,,,,,,,,,,,,,,,,,,,,,,,,,,,,,,,,,,,,,,,,
297643,2022-10-05_22h32.34.083,vts_reward_expectancy,2022.2.4,MacIntel,60.04202942,Chrome,1440,900,,,,,,,,,,,,,,,,,,,,,,,W,139,triangle,1,0,f,0.6318,0,5,0,5,0,1,,,,,,,,,,,,,,,,,,,,,,,,,,,,,,,,,,,,,,,,,
297643,2022-10-05_22h32.34.083,vts_reward_expectancy,2022.2.4,MacIntel,60.04202942,Chrome,1440,900,,,,,,,,,,,,,,,,,,,,,,,D,167,star,1,0,d,0.6489,0,6,0,6,0,1,,,,,,,,,,,,,,,,,,,,,,,,,,,,,,,,,,,,,,,,,
297643,2022-10-05_22h32.34.083,vts_reward_expectancy,2022.2.4,MacIntel,60.04202942,Chrome,1440,900,,,,,,,,,,,,,,,,,,,,,,,H,146,hexagon,0,0,f,1.1874,0,7,0,7,0,1,,,,,,,,,,,,,,,,,,,,,,,,,,,,,,,,,,,,,,,,,
297643,2022-10-05_22h32.34.083,vts_reward_expectancy,2022.2.4,MacIntel,60.04202942,Chrome,1440,900,,,,,,,,,,,,,,,,,,,,,,,B,174,star,1,1,d,0.5549,0,8,0,8,0,1,,,,,,,,,,,,,,,,,,,,,,,,,,,,,,,,,,,,,,,,,
297643,2022-10-05_22h32.34.083,vts_reward_expectancy,2022.2.4,MacIntel,60.04202942,Chrome,1440,900,,,,,,,,,,,,,,,,,,,,,,,U,125,circle,1,0,f,0.5957,0,9,0,9,0,1,,,,,,,,,,,,,,,,,,,,,,,,,,,,,,,,,,,,,,,,,
297643,2022-10-05_22h32.34.083,vts_reward_expectancy,2022.2.4,MacIntel,60.04202942,Chrome,1440,900,,,,,,,,,,,,,,,,,,,,,,,S,146,hexagon,1,0,,,1,,,,,,j,0.8456,0,0,0,0,1,,,,,,,,,,,,,,,,,,,,,,,,,,,,,,,,,,
297643,2022-10-05_22h32.34.083,vts_reward_expectancy,2022.2.4,MacIntel,60.04202942,Chrome,1440,900,,,,,,,,,,,,,,,,,,,,,,,D,181,star,1,0,,,1,,,,,,k,0.6166,1,0,1,0,1,,,,,,,,,,,,,,,,,,,,,,,,,,,,,,,,,,
297643,2022-10-05_22h32.34.083,vts_reward_expectancy,2022.2.4,MacIntel,60.04202942,Chrome,1440,900,,,,,,,,,,,,,,,,,,,,,,,U,132,circle,1,0,,,1,,,,,,j,0.5529,2,0,2,0,1,,,,,,,,,,,,,,,,,,,,,,,,,,,,,,,,,,
297643,2022-10-05_22h32.34.083,vts_reward_expectancy,2022.2.4,MacIntel,60.04202942,Chrome,1440,900,,,,,,,,,,,,,,,,,,,,,,,H,160,triangle,1,0,,,1,,,,,,k,0.6984,3,0,3,0,1,,,,,,,,,,,,,,,,,,,,,,,,,,,,,,,,,,
297643,2022-10-05_22h32.34.083,vts_reward_expectancy,2022.2.4,MacIntel,60.04202942,Chrome,1440,900,,,,,,,,,,,,,,,,,,,,,,,W,167,hexagon,1,0,,,1,,,,,,k,0.7983,4,0,4,0,1,,,,,,,,,,,,,,,,,,,,,,,,,,,,,,,,,,
297643,2022-10-05_22h32.34.083,vts_reward_expectancy,2022.2.4,MacIntel,60.04202942,Chrome,1440,900,,,,,,,,,,,,,,,,,,,,,,,F,139,star,1,0,,,1,,,,,,j,0.6986,5,0,5,0,1,,,,,,,,,,,,,,,,,,,,,,,,,,,,,,,,,,
297643,2022-10-05_22h32.34.083,vts_reward_expectancy,2022.2.4,MacIntel,60.04202942,Chrome,1440,900,,,,,,,,,,,,,,,,,,,,,,,B,125,circle,1,0,,,1,,,,,,j,0.7381,6,0,6,0,1,,,,,,,,,,,,,,,,,,,,,,,,,,,,,,,,,,
297643,2022-10-05_22h32.34.083,vts_reward_expectancy,2022.2.4,MacIntel,60.04202942,Chrome,1440,900,,,,,,,,,,,,,,,,,,,,,,,Y,174,triangle,1,0,,,1,,,,,,k,0.445,7,0,7,0,1,,,,,,,,,,,,,,,,,,,,,,,,,,,,,,,,,,
297643,2022-10-05_22h32.34.083,vts_reward_expectancy,2022.2.4,MacIntel,60.04202942,Chrome,1440,900,,,,,,,,,,,,,,,,,,,,,,,S,146,star,1,0,,,1,,,,,,j,0.54,8,0,8,0,1,,,,,,,,,,,,,,,,,,,,,,,,,,,,,,,,,,
297643,2022-10-05_22h32.34.083,vts_reward_expectancy,2022.2.4,MacIntel,60.04202942,Chrome,1440,900,,,,,,,,,,,,,,,,,,,,,,,D,181,hexagon,1,0,,,1,,,,,,k,0.6456,9,0,9,0,1,,,,,,,,,,,,,,,,,,,,,,,,,,,,,,,,,,
297643,2022-10-05_22h32.34.083,vts_reward_expectancy,2022.2.4,MacIntel,60.04202942,Chrome,1440,900,,,,,0,756,,,,,,,,,,,,,,,,,F,167,triangle,1,0,,,2,,,,,,,,,,,,,-1,letter,NA,d,2.1369,vtsPrac,0,0,0,0,1,,,,,,,,,,,,,,,,,,,,,,,
297643,2022-10-05_22h32.34.083,vts_reward_expectancy,2022.2.4,MacIntel,60.04202942,Chrome,1440,900,,,,,0,756,,,,,,,,,,,,,,,,,H,160,circle,1,0,,,2,,,,,,,,,,,,,switch,number,numSwt,k,1.1872,vtsPrac,1,0,1,0,1,,,,,,,,,,,,,,,,,,,,,,,
297643,2022-10-05_22h32.34.083,vts_reward_expectancy,2022.2.4,MacIntel,60.04202942,Chrome,1440,900,,,,,0,756,,,,,,,,,,,,,,,,,S,181,triangle,1,0,,,2,,,,,,,,,,,,,switch,letter,lettSwt,f,1.3662,vtsPrac,2,0,2,0,1,,,,,,,,,,,,,,,,,,,,,,,
297643,2022-10-05_22h32.34.083,vts_reward_expectancy,2022.2.4,MacIntel,60.04202942,Chrome,1440,900,,,,,0,756,,,,,,,,,,,,,,,,,W,174,circle,1,0,,,2,,,,,,,,,,,,,switch,number,numSwt,k,0.6731,vtsPrac,3,0,3,0,1,,,,,,,,,,,,,,,,,,,,,,,
297643,2022-10-05_22h32.34.083,vts_reward_expectancy,2022.2.4,MacIntel,60.04202942,Chrome,1440,900,,,,,0,756,,,,,,,,,,,,,,,,,F,167,hexagon,1,0,,,2,,,,,,,,,,,,,switch,letter,lettSwt,d,0.8188,vtsPrac,4,0,4,0,1,,,,,,,,,,,,,,,,,,,,,,,
297643,2022-10-05_22h32.34.083,vts_reward_expectancy,2022.2.4,MacIntel,60.04202942,Chrome,1440,900,,,,,0,756,,,,,,,,,,,,,,,,,H,160,star,1,0,,,2,,,,,,,,,,,,,repeat,letter,lettRpt,d,0.7005,vtsPrac,5,0,5,0,1,,,,,,,,,,,,,,,,,,,,,,,
297643,2022-10-05_22h32.34.083,vts_reward_expectancy,2022.2.4,MacIntel,60.04202942,Chrome,1440,900,,,,,0,756,,,,,,,,,,,,,,,,,S,181,circle,1,0,,,2,,,,,,,,,,,,,switch,number,numSwt,k,0.6013,vtsPrac,6,0,6,0,1,,,,,,,,,,,,,,,,,,,,,,,
297643,2022-10-05_22h32.34.083,vts_reward_expectancy,2022.2.4,MacIntel,60.04202942,Chrome,1440,900,,,,,0,756,,,,,,,,,,,,,,,,,W,174,star,1,0,,,2,,,,,,,,,,,,,repeat,number,numRpt,k,0.7203,vtsPrac,7,0,7,0,1,,,,,,,,,,,,,,,,,,,,,,,
297643,2022-10-05_22h32.34.083,vts_reward_expectancy,2022.2.4,MacIntel,60.04202942,Chrome,1440,900,,,,,0,756,,,,,,,,,,,,,,,,,W,167,star,1,0,,,2,,,,,,,,,,,,,switch,letter,lettSwt,f,0.6891,vtsPrac,8,0,8,0,1,,,,,,,,,,,,,,,,,,,,,,,
297643,2022-10-05_22h32.34.083,vts_reward_expectancy,2022.2.4,MacIntel,60.04202942,Chrome,1440,900,,,,,0,756,,,,,,,,,,,,,,,,,D,160,circle,1,0,,,2,,,,,,,,,,,,,repeat,letter,lettRpt,d,0.6034,vtsPrac,9,0,9,0,1,,,,,,,,,,,,,,,,,,,,,,,
297643,2022-10-05_22h32.34.083,vts_reward_expectancy,2022.2.4,MacIntel,60.04202942,Chrome,1440,900,,,,,0,756,,,,,,,,,,,,,,,,,Y,125,triangle,1,0,,,2,,,,,,,,,,,,,switch,number,numSwt,j,0.6926,vtsPrac,10,0,10,0,1,,,,,,,,,,,,,,,,,,,,,,,
297643,2022-10-05_22h32.34.083,vts_reward_expectancy,2022.2.4,MacIntel,60.04202942,Chrome,1440,900,,,,,0,756,,,,,,,,,,,,,,,,,F,132,hexagon,1,0,,,2,,,,,,,,,,,,,repeat,number,numRpt,j,0.562,vtsPrac,11,0,11,0,1,,,,,,,,,,,,,,,,,,,,,,,
297643,2022-10-05_22h32.34.083,vts_reward_expectancy,2022.2.4,MacIntel,60.04202942,Chrome,1440,900,,,,,0,756,,,,,,,,,,,,,,,,,W,139,hexagon,1,0,,,2,,,,,,,,,,,,,switch,letter,lettSwt,f,0.7262,vtsPrac,12,0,12,0,1,,,,,,,,,,,,,,,,,,,,,,,
297643,2022-10-05_22h32.34.083,vts_reward_expectancy,2022.2.4,MacIntel,60.04202942,Chrome,1440,900,,,,,0,756,,,,,,,,,,,,,,,,,B,167,triangle,1,0,,,2,,,,,,,,,,,,,switch,number,numSwt,k,0.7079,vtsPrac,13,0,13,0,1,,,,,,,,,,,,,,,,,,,,,,,
297643,2022-10-05_22h32.34.083,vts_reward_expectancy,2022.2.4,MacIntel,60.04202942,Chrome,1440,900,,,,,0,756,,,,,,,,,,,,,,,,,S,125,triangle,1,0,,,2,,,,,,,,,,,,,switch,letter,lettSwt,f,0.6425,vtsPrac,14,0,14,0,1,,,,,,,,,,,,,,,,,,,,,,,
297643,2022-10-05_22h32.34.083,vts_reward_expectancy,2022.2.4,MacIntel,60.04202942,Chrome,1440,900,,,,,0,756,,,,,,,,,,,,,,,,,Y,132,circle,1,0,,,2,,,,,,,,,,,,,repeat,letter,lettRpt,f,0.629,vtsPrac,15,0,15,0,1,,,,,,,,,,,,,,,,,,,,,,,
297643,2022-10-05_22h32.34.083,vts_reward_expectancy,2022.2.4,MacIntel,60.04202942,Chrome,1440,900,,,,,,,,,,,,,,,,,,,,,,,,,,,,,,,,,,,,,,,,,,,,,,,,,,,,,,,,,,,,,,,,,,,,,,,,,,,,
297643,2022-10-05_22h32.34.083,vts_reward_expectancy,2022.2.4,MacIntel,60.04202942,Chrome,1440,900,,,,,,,,,,,,,,,,,,,,,,,,,,,,,,,,,,,,,,,,,,,,,,,,,,,,,,,,,,,,,,,,,,,,,,,,,,,,
297643,2022-10-05_22h32.34.083,vts_reward_expectancy,2022.2.4,MacIntel,60.04202942,Chrome,1440,900,,,,,0,756,,,,,,,,,,,,,,,,,H,139,circle,1,0,,,,,,,,,,,,,,,,repeat,letter,lettRpt,d,0.624,noRew,,,,,,0,0,0,0,0,1,,,,,,,,,,,,,,,,,
297643,2022-10-05_22h32.34.083,vts_reward_expectancy,2022.2.4,MacIntel,60.04202942,Chrome,1440,900,,,,,0,756,,,,,,,,,,,,,,,,,S,132,hexagon,1,0,,,,,,,,,,,,,,,,repeat,letter,lettRpt,f,0.6097,noRew,,,,,,0,1,0,1,0,1,,,,,,,,,,,,,,,,,
297643,2022-10-05_22h32.34.083,vts_reward_expectancy,2022.2.4,MacIntel,60.04202942,Chrome,1440,900,,,,,0,756,,,,,,,,,,,,,,,,,U,125,circle,1,0,,,,,,,,,,,,,,,,switch,number,numSwt,j,0.5395,noRew,,,,,,0,2,0,2,0,1,,,,,,,,,,,,,,,,,
297643,2022-10-05_22h32.34.083,vts_reward_expectancy,2022.2.4,MacIntel,60.04202942,Chrome,1440,900,,,,,0,756,,,,,,,,,,,,,,,,,W,174,hexagon,1,0,,,,,,,,,,,,,,,,switch,letter,lettSwt,f,0.5916,noRew,,,,,,0,3,0,3,0,1,,,,,,,,,,,,,,,,,
297643,2022-10-05_22h32.34.083,vts_reward_expectancy,2022.2.4,MacIntel,60.04202942,Chrome,1440,900,,,,,0,756,,,,,,,,,,,,,,,,,H,139,hexagon,1,0,,,,,,,,,,,,,,,,switch,number,numSwt,j,0.6489,noRew,,,,,,0,4,0,4,0,1,,,,,,,,,,,,,,,,,
297643,2022-10-05_22h32.34.083,vts_reward_expectancy,2022.2.4,MacIntel,60.04202942,Chrome,1440,900,,,,,0,756,,,,,,,,,,,,,,,,,S,132,triangle,1,0,,,,,,,,,,,,,,,,switch,letter,lettSwt,f,0.532,noRew,,,,,,0,5,0,5,0,1,,,,,,,,,,,,,,,,,
297643,2022-10-05_22h32.34.083,vts_reward_expectancy,2022.2.4,MacIntel,60.04202942,Chrome,1440,900,,,,,0,756,,,,,,,,,,,,,,,,,U,125,star,1,0,,,,,,,,,,,,,,,,switch,number,numSwt,j,0.6028,noRew,,,,,,0,6,0,6,0,1,,,,,,,,,,,,,,,,,
297643,2022-10-05_22h32.34.083,vts_reward_expectancy,2022.2.4,MacIntel,60.04202942,Chrome,1440,900,,,,,0,756,,,,,,,,,,,,,,,,,W,174,triangle,1,0,,,,,,,,,,,,,,,,repeat,number,numRpt,k,0.8383,noRew,,,,,,0,7,0,7,0,1,,,,,,,,,,,,,,,,,
297643,2022-10-05_22h32.34.083,vts_reward_expectancy,2022.2.4,MacIntel,60.04202942,Chrome,1440,900,,,,,0,756,,,,,,,,,,,,,,,,,D,160,star,1,0,,,,,,,,,,,,,,,,repeat,number,numRpt,k,0.8216,noRew,,,,,,0,8,0,8,0,1,,,,,,,,,,,,,,,,,
297643,2022-10-05_22h32.34.083,vts_reward_expectancy,2022.2.4,MacIntel,60.04202942,Chrome,1440,900,,,,,0,756,,,,,,,,,,,,,,,,,Y,132,triangle,1,0,,,,,,,,,,,,,,,,switch,letter,lettSwt,f,0.7297,noRew,,,,,,0,9,0,9,0,1,,,,,,,,,,,,,,,,,
297643,2022-10-05_22h32.34.083,vts_reward_expectancy,2022.2.4,MacIntel,60.04202942,Chrome,1440,900,,,,,0,756,,,,,,,,,,,,,,,,,F,146,circle,0,0,,,,,,,,,,,,,,,,repeat,letter,NA,f,1.897,noRew,,,,,,0,10,0,10,0,1,,,,,,,,,,,,,,,,,
297643,2022-10-05_22h32.34.083,vts_reward_expectancy,2022.2.4,MacIntel,60.04202942,Chrome,1440,900,,,,,0,756,,,,,,,,,,,,,,,,,W,174,star,1,1,,,,,,,,,,,,,,,,repeat,letter,lettRpt,f,0.5521,noRew,,,,,,0,11,0,11,0,1,,,,,,,,,,,,,,,,,
297643,2022-10-05_22h32.34.083,vts_reward_expectancy,2022.2.4,MacIntel,60.04202942,Chrome,1440,900,,,,,0,756,,,,,,,,,,,,,,,,,H,181,hexagon,1,0,,,,,,,,,,,,,,,,repeat,letter,lettRpt,d,0.9336,noRew,,,,,,0,12,0,12,0,1,,,,,,,,,,,,,,,,,
297643,2022-10-05_22h32.34.083,vts_reward_expectancy,2022.2.4,MacIntel,60.04202942,Chrome,1440,900,,,,,0,756,,,,,,,,,,,,,,,,,Y,125,star,1,0,,,,,,,,,,,,,,,,repeat,letter,lettRpt,f,0.7099,noRew,,,,,,0,13,0,13,0,1,,,,,,,,,,,,,,,,,
297643,2022-10-05_22h32.34.083,vts_reward_expectancy,2022.2.4,MacIntel,60.04202942,Chrome,1440,900,,,,,0,756,,,,,,,,,,,,,,,,,D,132,circle,1,0,,,,,,,,,,,,,,,,repeat,letter,lettRpt,d,0.8437,noRew,,,,,,0,14,0,14,0,1,,,,,,,,,,,,,,,,,
297643,2022-10-05_22h32.34.083,vts_reward_expectancy,2022.2.4,MacIntel,60.04202942,Chrome,1440,900,,,,,0,756,,,,,,,,,,,,,,,,,W,167,hexagon,1,0,,,,,,,,,,,,,,,,repeat,letter,lettRpt,f,0.8522,noRew,,,,,,0,15,0,15,0,1,,,,,,,,,,,,,,,,,
297643,2022-10-05_22h32.34.083,vts_reward_expectancy,2022.2.4,MacIntel,60.04202942,Chrome,1440,900,,,,,0,756,,,,,,,,,,,,,,,,,F,146,circle,1,0,,,,,,,,,,,,,,,,switch,number,numSwt,j,2.116,noRew,,,,,,0,16,0,16,0,1,,,,,,,,,,,,,,,,,
297643,2022-10-05_22h32.34.083,vts_reward_expectancy,2022.2.4,MacIntel,60.04202942,Chrome,1440,900,,,,,0,756,,,,,,,,,,,,,,,,,B,160,hexagon,1,0,,,,,,,,,,,,,,,,repeat,number,numRpt,k,0.8095,noRew,,,,,,0,17,0,17,0,1,,,,,,,,,,,,,,,,,
297643,2022-10-05_22h32.34.083,vts_reward_expectancy,2022.2.4,MacIntel,60.04202942,Chrome,1440,900,,,,,0,756,,,,,,,,,,,,,,,,,U,181,circle,1,0,,,,,,,,,,,,,,,,switch,letter,lettSwt,f,0.6083,noRew,,,,,,0,18,0,18,0,1,,,,,,,,,,,,,,,,,
297643,2022-10-05_22h32.34.083,vts_reward_expectancy,2022.2.4,MacIntel,60.04202942,Chrome,1440,900,,,,,0,756,,,,,,,,,,,,,,,,,Y,174,hexagon,1,0,,,,,,,,,,,,,,,,repeat,letter,lettRpt,f,0.6985,noRew,,,,,,0,19,0,19,0,1,,,,,,,,,,,,,,,,,
297643,2022-10-05_22h32.34.083,vts_reward_expectancy,2022.2.4,MacIntel,60.04202942,Chrome,1440,900,,,,,0,756,,,,,,,,,,,,,,,,,W,139,triangle,1,0,,,,,,,,,,,,,,,,repeat,letter,lettRpt,f,0.7111,noRew,,,,,,0,20,0,20,0,1,,,,,,,,,,,,,,,,,
297643,2022-10-05_22h32.34.083,vts_reward_expectancy,2022.2.4,MacIntel,60.04202942,Chrome,1440,900,,,,,0,756,,,,,,,,,,,,,,,,,B,146,hexagon,1,0,,,,,,,,,,,,,,,,repeat,letter,lettRpt,d,0.6047,noRew,,,,,,0,21,0,21,0,1,,,,,,,,,,,,,,,,,
297643,2022-10-05_22h32.34.083,vts_reward_expectancy,2022.2.4,MacIntel,60.04202942,Chrome,1440,900,,,,,0,756,,,,,,,,,,,,,,,,,F,167,triangle,1,0,,,,,,,,,,,,,,,,switch,number,numSwt,k,0.5681,noRew,,,,,,0,22,0,22,0,1,,,,,,,,,,,,,,,,,
297643,2022-10-05_22h32.34.083,vts_reward_expectancy,2022.2.4,MacIntel,60.04202942,Chrome,1440,900,,,,,0,756,,,,,,,,,,,,,,,,,D,160,circle,1,0,,,,,,,,,,,,,,,,repeat,number,numRpt,k,0.5408,noRew,,,,,,0,23,0,23,0,1,,,,,,,,,,,,,,,,,
297643,2022-10-05_22h32.34.083,vts_reward_expectancy,2022.2.4,MacIntel,60.04202942,Chrome,1440,900,,,,,0,756,,,,,,,,,,,,,,,,,W,146,circle,1,0,,,,,,,,,,,,,,,,repeat,number,numRpt,j,1.0533,noRew,,,,,,0,24,0,24,0,1,,,,,,,,,,,,,,,,,
297643,2022-10-05_22h32.34.083,vts_reward_expectancy,2022.2.4,MacIntel,60.04202942,Chrome,1440,900,,,,,0,756,,,,,,,,,,,,,,,,,B,174,triangle,1,0,,,,,,,,,,,,,,,,switch,letter,lettSwt,d,0.7014,noRew,,,,,,0,25,0,25,0,1,,,,,,,,,,,,,,,,,
297643,2022-10-05_22h32.34.083,vts_reward_expectancy,2022.2.4,MacIntel,60.04202942,Chrome,1440,900,,,,,0,756,,,,,,,,,,,,,,,,,D,181,hexagon,0,0,,,,,,,,,,,,,,,,repeat,letter,NA,f,0.7179,noRew,,,,,,0,26,0,26,0,1,,,,,,,,,,,,,,,,,
297643,2022-10-05_22h32.34.083,vts_reward_expectancy,2022.2.4,MacIntel,60.04202942,Chrome,1440,900,,,,,0,756,,,,,,,,,,,,,,,,,S,132,triangle,1,1,,,,,,,,,,,,,,,,repeat,letter,lettRpt,f,0.6029,noRew,,,,,,0,27,0,27,0,1,,,,,,,,,,,,,,,,,
297643,2022-10-05_22h32.34.083,vts_reward_expectancy,2022.2.4,MacIntel,60.04202942,Chrome,1440,900,,,,,0,756,,,,,,,,,,,,,,,,,Y,125,circle,1,0,,,,,,,,,,,,,,,,repeat,letter,lettRpt,f,0.7735,noRew,,,,,,0,28,0,28,0,1,,,,,,,,,,,,,,,,,
297643,2022-10-05_22h32.34.083,vts_reward_expectancy,2022.2.4,MacIntel,60.04202942,Chrome,1440,900,,,,,0,756,,,,,,,,,,,,,,,,,B,139,star,1,0,,,,,,,,,,,,,,,,switch,number,numSwt,j,0.5193,noRew,,,,,,0,29,0,29,0,1,,,,,,,,,,,,,,,,,
297643,2022-10-05_22h32.34.083,vts_reward_expectancy,2022.2.4,MacIntel,60.04202942,Chrome,1440,900,,,,,0,756,,,,,,,,,,,,,,,,,H,181,star,1,0,,,,,,,,,,,,,,,,repeat,number,numRpt,k,0.6075,noRew,,,,,,0,30,0,30,0,1,,,,,,,,,,,,,,,,,
297643,2022-10-05_22h32.34.083,vts_reward_expectancy,2022.2.4,MacIntel,60.04202942,Chrome,1440,900,,,,,0,756,,,,,,,,,,,,,,,,,F,146,hexagon,1,0,,,,,,,,,,,,,,,,repeat,number,numRpt,j,0.8376,noRew,,,,,,0,31,0,31,0,1,,,,,,,,,,,,,,,,,
297643,2022-10-05_22h32.34.083,vts_reward_expectancy,2022.2.4,MacIntel,60.04202942,Chrome,1440,900,,,,,0,756,,,,,,,,,,,,,,,,,U,167,circle,1,0,,,,,,,,,,,,,,,,switch,letter,lettSwt,f,0.5454,noRew,,,,,,0,32,0,32,0,1,,,,,,,,,,,,,,,,,
297643,2022-10-05_22h32.34.083,vts_reward_expectancy,2022.2.4,MacIntel,60.04202942,Chrome,1440,900,,,,,0,756,,,,,,,,,,,,,,,,,W,146,hexagon,0,0,,,,,,,,,,,,,,,,switch,number,NA,k,0.8942,noRew,,,,,,0,33,0,33,0,1,,,,,,,,,,,,,,,,,
297643,2022-10-05_22h32.34.083,vts_reward_expectancy,2022.2.4,MacIntel,60.04202942,Chrome,1440,900,,,,,0,756,,,,,,,,,,,,,,,,,S,160,circle,1,1,,,,,,,,,,,,,,,,switch,letter,lettSwt,f,1.1143,noRew,,,,,,0,34,0,34,0,1,,,,,,,,,,,,,,,,,
297643,2022-10-05_22h32.34.083,vts_reward_expectancy,2022.2.4,MacIntel,60.04202942,Chrome,1440,900,,,,,0,756,,,,,,,,,,,,,,,,,D,174,star,1,0,,,,,,,,,,,,,,,,repeat,letter,lettRpt,d,0.7615,noRew,,,,,,0,35,0,35,0,1,,,,,,,,,,,,,,,,,
297643,2022-10-05_22h32.34.083,vts_reward_expectancy,2022.2.4,MacIntel,60.04202942,Chrome,1440,900,,,,,0,756,,,,,,,,,,,,,,,,,S,139,star,1,0,,,,,,,,,,,,,,,,repeat,letter,lettRpt,f,1.2394,noRew,,,,,,0,36,0,36,0,1,,,,,,,,,,,,,,,,,
297643,2022-10-05_22h32.34.083,vts_reward_expectancy,2022.2.4,MacIntel,60.04202942,Chrome,1440,900,,,,,0,756,,,,,,,,,,,,,,,,,F,146,hexagon,1,0,,,,,,,,,,,,,,,,switch,number,numSwt,j,1.4995,noRew,,,,,,0,37,0,37,0,1,,,,,,,,,,,,,,,,,
297643,2022-10-05_22h32.34.083,vts_reward_expectancy,2022.2.4,MacIntel,60.04202942,Chrome,1440,900,,,,,0,756,,,,,,,,,,,,,,,,,B,167,hexagon,1,0,,,,,,,,,,,,,,,,switch,letter,lettSwt,d,0.8939,noRew,,,,,,0,38,0,38,0,1,,,,,,,,,,,,,,,,,
297643,2022-10-05_22h32.34.083,vts_reward_expectancy,2022.2.4,MacIntel,60.04202942,Chrome,1440,900,,,,,0,756,,,,,,,,,,,,,,,,,Y,174,triangle,1,0,,,,,,,,,,,,,,,,repeat,letter,lettRpt,f,0.7299,noRew,,,,,,0,39,0,39,0,1,,,,,,,,,,,,,,,,,
297643,2022-10-05_22h32.34.083,vts_reward_expectancy,2022.2.4,MacIntel,60.04202942,Chrome,1440,900,,,,,0,756,,,,,,,,,,,,,,,,,F,132,hexagon,1,0,,,,,,,,,,,,,,,,repeat,letter,lettRpt,d,0.7707,noRew,,,,,,0,40,0,40,0,1,,,,,,,,,,,,,,,,,
297643,2022-10-05_22h32.34.083,vts_reward_expectancy,2022.2.4,MacIntel,60.04202942,Chrome,1440,900,,,,,0,756,,,,,,,,,,,,,,,,,Y,181,triangle,1,0,,,,,,,,,,,,,,,,switch,number,numSwt,k,0.5545,noRew,,,,,,0,41,0,41,0,1,,,,,,,,,,,,,,,,,
297643,2022-10-05_22h32.34.083,vts_reward_expectancy,2022.2.4,MacIntel,60.04202942,Chrome,1440,900,,,,,0,756,,,,,,,,,,,,,,,,,B,160,hexagon,1,0,,,,,,,,,,,,,,,,repeat,number,numRpt,k,0.4958,noRew,,,,,,0,42,0,42,0,1,,,,,,,,,,,,,,,,,
297643,2022-10-05_22h32.34.083,vts_reward_expectancy,2022.2.4,MacIntel,60.04202942,Chrome,1440,900,,,,,0,756,,,,,,,,,,,,,,,,,H,167,circle,1,0,,,,,,,,,,,,,,,,repeat,number,numRpt,k,0.5591,noRew,,,,,,0,43,0,43,0,1,,,,,,,,,,,,,,,,,
297643,2022-10-05_22h32.34.083,vts_reward_expectancy,2022.2.4,MacIntel,60.04202942,Chrome,1440,900,,,,,0,756,,,,,,,,,,,,,,,,,Y,160,circle,1,0,,,,,,,,,,,,,,,,repeat,number,numRpt,k,0.5605,noRew,,,,,,0,44,0,44,0,1,,,,,,,,,,,,,,,,,
297643,2022-10-05_22h32.34.083,vts_reward_expectancy,2022.2.4,MacIntel,60.04202942,Chrome,1440,900,,,,,0,756,,,,,,,,,,,,,,,,,U,167,hexagon,1,0,,,,,,,,,,,,,,,,switch,letter,lettSwt,f,0.6113,noRew,,,,,,0,45,0,45,0,1,,,,,,,,,,,,,,,,,
297643,2022-10-05_22h32.34.083,vts_reward_expectancy,2022.2.4,MacIntel,60.04202942,Chrome,1440,900,,,,,0,756,,,,,,,,,,,,,,,,,F,174,star,1,0,,,,,,,,,,,,,,,,repeat,letter,lettRpt,d,0.7356,noRew,,,,,,0,46,0,46,0,1,,,,,,,,,,,,,,,,,
297643,2022-10-05_22h32.34.083,vts_reward_expectancy,2022.2.4,MacIntel,60.04202942,Chrome,1440,900,,,,,0,756,,,,,,,,,,,,,,,,,B,139,triangle,1,0,,,,,,,,,,,,,,,,switch,number,numSwt,j,0.6218,noRew,,,,,,0,47,0,47,0,1,,,,,,,,,,,,,,,,,
297643,2022-10-05_22h32.34.083,vts_reward_expectancy,2022.2.4,MacIntel,60.04202942,Chrome,1440,900,,,,,0,756,,,,,,,,,,,,,,,,,F,146,star,1,0,,,,,,,,,,,,,,,,switch,letter,lettSwt,d,0.7923,noRew,,,,,,0,48,0,48,0,1,,,,,,,,,,,,,,,,,
297643,2022-10-05_22h32.34.083,vts_reward_expectancy,2022.2.4,MacIntel,60.04202942,Chrome,1440,900,,,,,0,756,,,,,,,,,,,,,,,,,S,174,triangle,1,0,,,,,,,,,,,,,,,,repeat,letter,lettRpt,f,0.6453,noRew,,,,,,0,49,0,49,0,1,,,,,,,,,,,,,,,,,
297643,2022-10-05_22h32.34.083,vts_reward_expectancy,2022.2.4,MacIntel,60.04202942,Chrome,1440,900,,,,,0,756,,,,,,,,,,,,,,,,,U,167,triangle,1,0,,,,,,,,,,,,,,,,switch,number,numSwt,k,1.0904,noRew,,,,,,0,50,0,50,0,1,,,,,,,,,,,,,,,,,
297643,2022-10-05_22h32.34.083,vts_reward_expectancy,2022.2.4,MacIntel,60.04202942,Chrome,1440,900,,,,,0,756,,,,,,,,,,,,,,,,,H,125,circle,1,0,,,,,,,,,,,,,,,,repeat,number,numRpt,j,0.5719,noRew,,,,,,0,51,0,51,0,1,,,,,,,,,,,,,,,,,
297643,2022-10-05_22h32.34.083,vts_reward_expectancy,2022.2.4,MacIntel,60.04202942,Chrome,1440,900,,,,,0,756,,,,,,,,,,,,,,,,,S,139,circle,1,0,,,,,,,,,,,,,,,,repeat,number,numRpt,j,0.4525,noRew,,,,,,0,52,0,52,0,1,,,,,,,,,,,,,,,,,
297643,2022-10-05_22h32.34.083,vts_reward_expectancy,2022.2.4,MacIntel,60.04202942,Chrome,1440,900,,,,,0,756,,,,,,,,,,,,,,,,,W,167,triangle,1,0,,,,,,,,,,,,,,,,repeat,number,numRpt,k,0.5749,noRew,,,,,,0,53,0,53,0,1,,,,,,,,,,,,,,,,,
297643,2022-10-05_22h32.34.083,vts_reward_expectancy,2022.2.4,MacIntel,60.04202942,Chrome,1440,900,,,,,0,756,,,,,,,,,,,,,,,,,U,125,star,1,0,,,,,,,,,,,,,,,,switch,letter,lettSwt,f,0.5754,noRew,,,,,,0,54,0,54,0,1,,,,,,,,,,,,,,,,,
297643,2022-10-05_22h32.34.083,vts_reward_expectancy,2022.2.4,MacIntel,60.04202942,Chrome,1440,900,,,,,0,756,,,,,,,,,,,,,,,,,Y,146,hexagon,1,0,,,,,,,,,,,,,,,,switch,number,numSwt,j,0.5761,noRew,,,,,,0,55,0,55,0,1,,,,,,,,,,,,,,,,,
297643,2022-10-05_22h32.34.083,vts_reward_expectancy,2022.2.4,MacIntel,60.04202942,Chrome,1440,900,,,,,0,756,,,,,,,,,,,,,,,,,D,139,triangle,1,0,,,,,,,,,,,,,,,,switch,letter,lettSwt,d,0.5839,noRew,,,,,,0,56,0,56,0,1,,,,,,,,,,,,,,,,,
297643,2022-10-05_22h32.34.083,vts_reward_expectancy,2022.2.4,MacIntel,60.04202942,Chrome,1440,900,,,,,0,756,,,,,,,,,,,,,,,,,U,174,star,1,0,,,,,,,,,,,,,,,,repeat,letter,lettRpt,f,0.932,noRew,,,,,,0,57,0,57,0,1,,,,,,,,,,,,,,,,,
297643,2022-10-05_22h32.34.083,vts_reward_expectancy,2022.2.4,MacIntel,60.04202942,Chrome,1440,900,,,,,0,756,,,,,,,,,,,,,,,,,F,167,triangle,1,0,,,,,,,,,,,,,,,,repeat,letter,lettRpt,d,0.683,noRew,,,,,,0,58,0,58,0,1,,,,,,,,,,,,,,,,,
297643,2022-10-05_22h32.34.083,vts_reward_expectancy,2022.2.4,MacIntel,60.04202942,Chrome,1440,900,,,,,0,756,,,,,,,,,,,,,,,,,W,146,hexagon,1,0,,,,,,,,,,,,,,,,switch,number,numSwt,j,0.6975,noRew,,,,,,0,59,0,59,0,1,,,,,,,,,,,,,,,,,
297643,2022-10-05_22h32.34.083,vts_reward_expectancy,2022.2.4,MacIntel,60.04202942,Chrome,1440,900,,,,,0,756,,,,,,,,,,,,,,,,,H,160,hexagon,1,0,,,,,,,,,,,,,,,,repeat,number,numRpt,k,0.512,noRew,,,,,,0,60,0,60,0,1,,,,,,,,,,,,,,,,,
297643,2022-10-05_22h32.34.083,vts_reward_expectancy,2022.2.4,MacIntel,60.04202942,Chrome,1440,900,,,,,0,756,,,,,,,,,,,,,,,,,W,139,circle,1,0,,,,,,,,,,,,,,,,switch,letter,lettSwt,f,0.8301,noRew,,,,,,0,61,0,61,0,1,,,,,,,,,,,,,,,,,
297643,2022-10-05_22h32.34.083,vts_reward_expectancy,2022.2.4,MacIntel,60.04202942,Chrome,1440,900,,,,,0,756,,,,,,,,,,,,,,,,,S,125,star,1,0,,,,,,,,,,,,,,,,repeat,letter,lettRpt,f,0.7263,noRew,,,,,,0,62,0,62,0,1,,,,,,,,,,,,,,,,,
297643,2022-10-05_22h32.34.083,vts_reward_expectancy,2022.2.4,MacIntel,60.04202942,Chrome,1440,900,,,,,0,756,,,,,,,,,,,,,,,,,U,146,circle,1,0,,,,,,,,,,,,,,,,switch,number,numSwt,j,0.7177,noRew,,,,,,0,63,0,63,0,1,,,,,,,,,,,,,,,,,
297643,2022-10-05_22h32.34.083,vts_reward_expectancy,2022.2.4,MacIntel,60.04202942,Chrome,1440,900,,,,,,,,,,,,,,,,,,,,,,,,,,,,,,,,,,,,,,,,,,,,,,,,,,,,,,,,,,,,,,,,,,,,,,,,,,,,
297643,2022-10-05_22h32.34.083,vts_reward_expectancy,2022.2.4,MacIntel,60.04202942,Chrome,1440,900,,,,,0,756,,,,,,,,,,,,,,,,,F,132,circle,1,0,,,,,,,,,,,,,,,,switch,letter,lettSwt,d,0.7092,Hi,,,,,,0,,,,,,space,4.1468,low,0,0,0,0,1,,,,,,,,,
297643,2022-10-05_22h32.34.083,vts_reward_expectancy,2022.2.4,MacIntel,60.04202942,Chrome,1440,900,,,,,1,757,,,,,,,,,,,,,,,,,Y,160,hexagon,1,0,,,,,,,,,,,,,,,,repeat,letter,lettRpt,f,0.5965,Lo,,,,,,0,,,,,,,,low,1,0,1,0,1,,,,,,,,,
297643,2022-10-05_22h32.34.083,vts_reward_expectancy,2022.2.4,MacIntel,60.04202942,Chrome,1440,900,,,,,10,767,,,,,,,,,,,,,,,,,D,146,circle,1,0,,,,,,,,,,,,,,,,switch,number,numSwt,j,0.5582,Hi,,,,,,0,,,,,,,,low,2,0,2,0,1,,,,,,,,,
297643,2022-10-05_22h32.34.083,vts_reward_expectancy,2022.2.4,MacIntel,60.04202942,Chrome,1440,900,,,,,1,768,,,,,,,,,,,,,,,,,B,139,hexagon,1,0,,,,,,,,,,,,,,,,switch,letter,lettSwt,d,0.5828,Lo,,,,,,0,,,,,,,,low,3,0,3,0,1,,,,,,,,,
297643,2022-10-05_22h32.34.083,vts_reward_expectancy,2022.2.4,MacIntel,60.04202942,Chrome,1440,900,,,,,1,769,,,,,,,,,,,,,,,,,S,167,hexagon,1,0,,,,,,,,,,,,,,,,repeat,letter,lettRpt,f,0.5004,Lo,,,,,,0,,,,,,,,low,4,0,4,0,1,,,,,,,,,
297643,2022-10-05_22h32.34.083,vts_reward_expectancy,2022.2.4,MacIntel,60.04202942,Chrome,1440,900,,,,,0,769,,,,,,,,,,,,,,,,,H,181,circle,1,0,,,,,,,,,,,,,,,,switch,number,numSwt,k,0.5856,Hi,,,,,,0,,,,,,,,low,5,0,5,0,1,,,,,,,,,
297643,2022-10-05_22h32.34.083,vts_reward_expectancy,2022.2.4,MacIntel,60.04202942,Chrome,1440,900,,,,,1,770,,,,,,,,,,,,,,,,,U,174,hexagon,1,0,,,,,,,,,,,,,,,,switch,letter,lettSwt,f,0.4402,Lo,,,,,,0,,,,,,,,low,6,0,6,0,1,,,,,,,,,
297643,2022-10-05_22h32.34.083,vts_reward_expectancy,2022.2.4,MacIntel,60.04202942,Chrome,1440,900,,,,,0,770,,,,,,,,,,,,,,,,,W,125,circle,1,0,,,,,,,,,,,,,,,,switch,number,numSwt,j,0.6014,Hi,,,,,,0,,,,,,,,low,7,0,7,0,1,,,,,,,,,
297643,2022-10-05_22h32.34.083,vts_reward_expectancy,2022.2.4,MacIntel,60.04202942,Chrome,1440,900,,,,,0,770,,,,,,,,,,,,,,,,,F,132,circle,1,0,,,,,,,,,,,,,,,,switch,letter,lettSwt,d,0.6011,Hi,,,,,,0,,,,,,,,low,8,0,8,0,1,,,,,,,,,
297643,2022-10-05_22h32.34.083,vts_reward_expectancy,2022.2.4,MacIntel,60.04202942,Chrome,1440,900,,,,,10,780,,,,,,,,,,,,,,,,,Y,160,hexagon,1,0,,,,,,,,,,,,,,,,repeat,letter,lettRpt,f,0.4874,Lo,,,,,,0,,,,,,,,low,9,0,9,0,1,,,,,,,,,
297643,2022-10-05_22h32.34.083,vts_reward_expectancy,2022.2.4,MacIntel,60.04202942,Chrome,1440,900,,,,,1,781,,,,,,,,,,,,,,,,,D,146,hexagon,1,0,,,,,,,,,,,,,,,,switch,number,numSwt,j,0.485,Lo,,,,,,0,,,,,,,,low,10,0,10,0,1,,,,,,,,,
297643,2022-10-05_22h32.34.083,vts_reward_expectancy,2022.2.4,MacIntel,60.04202942,Chrome,1440,900,,,,,10,791,,,,,,,,,,,,,,,,,B,139,circle,1,0,,,,,,,,,,,,,,,,switch,letter,lettSwt,d,0.5104,Hi,,,,,,0,,,,,,,,low,11,0,11,0,1,,,,,,,,,
297643,2022-10-05_22h32.34.083,vts_reward_expectancy,2022.2.4,MacIntel,60.04202942,Chrome,1440,900,,,,,10,801,,,,,,,,,,,,,,,,,S,167,circle,1,0,,,,,,,,,,,,,,,,repeat,letter,lettRpt,f,0.5676,Hi,,,,,,0,,,,,,,,low,12,0,12,0,1,,,,,,,,,
297643,2022-10-05_22h32.34.083,vts_reward_expectancy,2022.2.4,MacIntel,60.04202942,Chrome,1440,900,,,,,1,802,,,,,,,,,,,,,,,,,H,181,hexagon,1,0,,,,,,,,,,,,,,,,switch,number,numSwt,k,0.3749,Lo,,,,,,0,,,,,,,,low,13,0,13,0,1,,,,,,,,,
297643,2022-10-05_22h32.34.083,vts_reward_expectancy,2022.2.4,MacIntel,60.04202942,Chrome,1440,900,,,,,1,803,,,,,,,,,,,,,,,,,U,174,hexagon,1,0,,,,,,,,,,,,,,,,switch,letter,lettSwt,f,0.5272,Lo,,,,,,0,,,,,,,,low,14,0,14,0,1,,,,,,,,,
297643,2022-10-05_22h32.34.083,vts_reward_expectancy,2022.2.4,MacIntel,60.04202942,Chrome,1440,900,,,,,1,804,,,,,,,,,,,,,,,,,W,125,circle,1,0,,,,,,,,,,,,,,,,switch,number,numSwt,j,0.4581,Hi,,,,,,0,,,,,,,,low,15,0,15,0,1,,,,,,,,,
297643,2022-10-05_22h32.34.083,vts_reward_expectancy,2022.2.4,MacIntel,60.04202942,Chrome,1440,900,,,,,0,804,,,,,,,,,,,,,,,,,S,174,hexagon,0,0,,,,,,,,,,,,,,,,repeat,number,NA,j,0.5039,Hi,,,,,,0,,,,,,,,low,16,0,16,0,1,,,,,,,,,
297643,2022-10-05_22h32.34.083,vts_reward_expectancy,2022.2.4,MacIntel,60.04202942,Chrome,1440,900,,,,,1,805,,,,,,,,,,,,,,,,,H,139,circle,1,1,,,,,,,,,,,,,,,,switch,letter,lettSwt,d,0.5909,Hi,,,,,,0,,,,,,,,low,17,0,17,0,1,,,,,,,,,
297643,2022-10-05_22h32.34.083,vts_reward_expectancy,2022.2.4,MacIntel,60.04202942,Chrome,1440,900,,,,,10,815,,,,,,,,,,,,,,,,,W,167,hexagon,1,0,,,,,,,,,,,,,,,,switch,number,numSwt,k,0.4463,Lo,,,,,,0,,,,,,,,low,18,0,18,0,1,,,,,,,,,
297643,2022-10-05_22h32.34.083,vts_reward_expectancy,2022.2.4,MacIntel,60.04202942,Chrome,1440,900,,,,,1,816,,,,,,,,,,,,,,,,,Y,181,circle,1,0,,,,,,,,,,,,,,,,switch,letter,lettSwt,f,0.4352,Hi,,,,,,0,,,,,,,,low,19,0,19,0,1,,,,,,,,,
297643,2022-10-05_22h32.34.083,vts_reward_expectancy,2022.2.4,MacIntel,60.04202942,Chrome,1440,900,,,,,10,826,,,,,,,,,,,,,,,,,B,125,hexagon,1,0,,,,,,,,,,,,,,,,switch,number,numSwt,j,0.5421,Lo,,,,,,0,,,,,,,,low,20,0,20,0,1,,,,,,,,,
297643,2022-10-05_22h32.34.083,vts_reward_expectancy,2022.2.4,MacIntel,60.04202942,Chrome,1440,900,,,,,10,836,,,,,,,,,,,,,,,,,D,132,circle,1,0,,,,,,,,,,,,,,,,switch,letter,lettSwt,d,0.4701,Hi,,,,,,0,,,,,,,,low,21,0,21,0,1,,,,,,,,,
297643,2022-10-05_22h32.34.083,vts_reward_expectancy,2022.2.4,MacIntel,60.04202942,Chrome,1440,900,,,,,1,837,,,,,,,,,,,,,,,,,U,146,circle,1,0,,,,,,,,,,,,,,,,repeat,letter,lettRpt,f,0.49,Hi,,,,,,0,,,,,,,,low,22,0,22,0,1,,,,,,,,,
297643,2022-10-05_22h32.34.083,vts_reward_expectancy,2022.2.4,MacIntel,60.04202942,Chrome,1440,900,,,,,1,838,,,,,,,,,,,,,,,,,F,160,hexagon,1,0,,,,,,,,,,,,,,,,switch,number,numSwt,k,0.4954,Lo,,,,,,0,,,,,,,,low,23,0,23,0,1,,,,,,,,,
297643,2022-10-05_22h32.34.083,vts_reward_expectancy,2022.2.4,MacIntel,60.04202942,Chrome,1440,900,,,,,1,839,,,,,,,,,,,,,,,,,F,167,hexagon,1,0,,,,,,,,,,,,,,,,repeat,number,numRpt,k,0.51,Lo,,,,,,0,,,,,,,,low,24,0,24,0,1,,,,,,,,,
297643,2022-10-05_22h32.34.083,vts_reward_expectancy,2022.2.4,MacIntel,60.04202942,Chrome,1440,900,,,,,0,839,,,,,,,,,,,,,,,,,H,146,circle,0,0,,,,,,,,,,,,,,,,switch,letter,NA,f,0.761,Lo,,,,,,0,,,,,,,,low,25,0,25,0,1,,,,,,,,,
297643,2022-10-05_22h32.34.083,vts_reward_expectancy,2022.2.4,MacIntel,60.04202942,Chrome,1440,900,,,,,1,840,,,,,,,,,,,,,,,,,U,132,hexagon,1,1,,,,,,,,,,,,,,,,repeat,letter,lettRpt,f,0.6211,Lo,,,,,,0,,,,,,,,low,26,0,26,0,1,,,,,,,,,
297643,2022-10-05_22h32.34.083,vts_reward_expectancy,2022.2.4,MacIntel,60.04202942,Chrome,1440,900,,,,,10,850,,,,,,,,,,,,,,,,,B,181,circle,1,0,,,,,,,,,,,,,,,,repeat,letter,lettRpt,d,0.5652,Hi,,,,,,0,,,,,,,,low,27,0,27,0,1,,,,,,,,,
297643,2022-10-05_22h32.34.083,vts_reward_expectancy,2022.2.4,MacIntel,60.04202942,Chrome,1440,900,,,,,10,860,,,,,,,,,,,,,,,,,D,139,circle,1,0,,,,,,,,,,,,,,,,switch,number,numSwt,j,0.4829,Hi,,,,,,0,,,,,,,,low,28,0,28,0,1,,,,,,,,,
297643,2022-10-05_22h32.34.083,vts_reward_expectancy,2022.2.4,MacIntel,60.04202942,Chrome,1440,900,,,,,1,861,,,,,,,,,,,,,,,,,Y,125,hexagon,1,0,,,,,,,,,,,,,,,,repeat,number,numRpt,j,0.4401,Lo,,,,,,0,,,,,,,,low,29,0,29,0,1,,,,,,,,,
297643,2022-10-05_22h32.34.083,vts_reward_expectancy,2022.2.4,MacIntel,60.04202942,Chrome,1440,900,,,,,1,862,,,,,,,,,,,,,,,,,S,160,hexagon,1,0,,,,,,,,,,,,,,,,switch,letter,lettSwt,f,0.5642,Lo,,,,,,0,,,,,,,,low,30,0,30,0,1,,,,,,,,,
297643,2022-10-05_22h32.34.083,vts_reward_expectancy,2022.2.4,MacIntel,60.04202942,Chrome,1440,900,,,,,1,863,,,,,,,,,,,,,,,,,W,174,circle,1,0,,,,,,,,,,,,,,,,repeat,letter,lettRpt,f,0.6873,Hi,,,,,,0,,,,,,,,low,31,0,31,0,1,,,,,,,,,
297643,2022-10-05_22h32.34.083,vts_reward_expectancy,2022.2.4,MacIntel,60.04202942,Chrome,1440,900,,,,,0,863,,,,,,,,,,,,,,,,,W,139,circle,1,0,,,,,,,,,,,,,,,,repeat,letter,lettRpt,f,0.6184,Hi,,,,,,1,,,,,,space,4.5068,low,0,0,0,0,1,,,,,,,,,
297643,2022-10-05_22h32.34.083,vts_reward_expectancy,2022.2.4,MacIntel,60.04202942,Chrome,1440,900,,,,,1,864,,,,,,,,,,,,,,,,,D,167,hexagon,1,0,,,,,,,,,,,,,,,,repeat,letter,lettRpt,d,0.5177,Lo,,,,,,1,,,,,,,,low,1,0,1,0,1,,,,,,,,,
297643,2022-10-05_22h32.34.083,vts_reward_expectancy,2022.2.4,MacIntel,60.04202942,Chrome,1440,900,,,,,10,874,,,,,,,,,,,,,,,,,S,181,circle,1,0,,,,,,,,,,,,,,,,repeat,letter,lettRpt,f,0.4737,Hi,,,,,,1,,,,,,,,low,2,0,2,0,1,,,,,,,,,
297643,2022-10-05_22h32.34.083,vts_reward_expectancy,2022.2.4,MacIntel,60.04202942,Chrome,1440,900,,,,,10,884,,,,,,,,,,,,,,,,,U,146,hexagon,1,0,,,,,,,,,,,,,,,,switch,number,numSwt,j,0.4776,Lo,,,,,,1,,,,,,,,low,3,0,3,0,1,,,,,,,,,
297643,2022-10-05_22h32.34.083,vts_reward_expectancy,2022.2.4,MacIntel,60.04202942,Chrome,1440,900,,,,,10,894,,,,,,,,,,,,,,,,,H,174,hexagon,1,0,,,,,,,,,,,,,,,,switch,letter,lettSwt,d,0.6306,Lo,,,,,,1,,,,,,,,low,4,0,4,0,1,,,,,,,,,
297643,2022-10-05_22h32.34.083,vts_reward_expectancy,2022.2.4,MacIntel,60.04202942,Chrome,1440,900,,,,,1,895,,,,,,,,,,,,,,,,,Y,125,circle,1,0,,,,,,,,,,,,,,,,repeat,letter,lettRpt,f,0.501,Hi,,,,,,1,,,,,,,,low,5,0,5,0,1,,,,,,,,,
297643,2022-10-05_22h32.34.083,vts_reward_expectancy,2022.2.4,MacIntel,60.04202942,Chrome,1440,900,,,,,0,895,,,,,,,,,,,,,,,,,B,160,circle,1,0,,,,,,,,,,,,,,,,switch,number,numSwt,k,0.5168,Hi,,,,,,1,,,,,,,,low,6,0,6,0,1,,,,,,,,,
297643,2022-10-05_22h32.34.083,vts_reward_expectancy,2022.2.4,MacIntel,60.04202942,Chrome,1440,900,,,,,0,895,,,,,,,,,,,,,,,,,F,132,hexagon,0,0,,,,,,,,,,,,,,,,switch,letter,NA,f,0.5722,Hi,,,,,,1,,,,,,,,low,7,0,7,0,1,,,,,,,,,
297643,2022-10-05_22h32.34.083,vts_reward_expectancy,2022.2.4,MacIntel,60.04202942,Chrome,1440,900,,,,,0,895,,,,,,,,,,,,,,,,,W,139,circle,1,1,,,,,,,,,,,,,,,,repeat,letter,lettRpt,f,0.5238,Hi,,,,,,1,,,,,,,,low,8,0,8,0,1,,,,,,,,,
297643,2022-10-05_22h32.34.083,vts_reward_expectancy,2022.2.4,MacIntel,60.04202942,Chrome,1440,900,,,,,0,895,,,,,,,,,,,,,,,,,D,167,hexagon,0,0,,,,,,,,,,,,,,,,switch,number,NA,j,0.5779,Hi,,,,,,1,,,,,,,,low,9,0,9,0,1,,,,,,,,,
297643,2022-10-05_22h32.34.083,vts_reward_expectancy,2022.2.4,MacIntel,60.04202942,Chrome,1440,900,,,,,10,905,,,,,,,,,,,,,,,,,S,181,circle,1,1,,,,,,,,,,,,,,,,repeat,number,numRpt,k,0.4395,Hi,,,,,,1,,,,,,,,low,10,0,10,0,1,,,,,,,,,
297643,2022-10-05_22h32.34.083,vts_reward_expectancy,2022.2.4,MacIntel,60.04202942,Chrome,1440,900,,,,,1,906,,,,,,,,,,,,,,,,,U,146,hexagon,1,0,,,,,,,,,,,,,,,,repeat,number,numRpt,j,0.4758,Lo,,,,,,1,,,,,,,,low,11,0,11,0,1,,,,,,,,,
297643,2022-10-05_22h32.34.083,vts_reward_expectancy,2022.2.4,MacIntel,60.04202942,Chrome,1440,900,,,,,10,916,,,,,,,,,,,,,,,,,H,174,hexagon,1,0,,,,,,,,,,,,,,,,switch,letter,lettSwt,d,0.4876,Lo,,,,,,1,,,,,,,,low,12,0,12,0,1,,,,,,,,,
297643,2022-10-05_22h32.34.083,vts_reward_expectancy,2022.2.4,MacIntel,60.04202942,Chrome,1440,900,,,,,0,916,,,,,,,,,,,,,,,,,Y,125,circle,1,0,,,,,,,,,,,,,,,,repeat,letter,lettRpt,f,0.546,Hi,,,,,,1,,,,,,,,low,13,0,13,0,1,,,,,,,,,
297643,2022-10-05_22h32.34.083,vts_reward_expectancy,2022.2.4,MacIntel,60.04202942,Chrome,1440,900,,,,,0,916,,,,,,,,,,,,,,,,,B,160,circle,1,0,,,,,,,,,,,,,,,,repeat,letter,lettRpt,d,0.5219,Hi,,,,,,1,,,,,,,,low,14,0,14,0,1,,,,,,,,,
297643,2022-10-05_22h32.34.083,vts_reward_expectancy,2022.2.4,MacIntel,60.04202942,Chrome,1440,900,,,,,10,926,,,,,,,,,,,,,,,,,F,132,hexagon,1,0,,,,,,,,,,,,,,,,repeat,letter,lettRpt,d,0.7063,Lo,,,,,,1,,,,,,,,low,15,0,15,0,1,,,,,,,,,
297643,2022-10-05_22h32.34.083,vts_reward_expectancy,2022.2.4,MacIntel,60.04202942,Chrome,1440,900,,,,,10,936,,,,,,,,,,,,,,,,,B,139,hexagon,1,0,,,,,,,,,,,,,,,,repeat,letter,lettRpt,d,0.4593,Lo,,,,,,1,,,,,,,,low,16,0,16,0,1,,,,,,,,,
297643,2022-10-05_22h32.34.083,vts_reward_expectancy,2022.2.4,MacIntel,60.04202942,Chrome,1440,900,,,,,1,937,,,,,,,,,,,,,,,,,D,132,circle,1,0,,,,,,,,,,,,,,,,switch,number,numSwt,j,0.4686,Hi,,,,,,1,,,,,,,,low,17,0,17,0,1,,,,,,,,,
297643,2022-10-05_22h32.34.083,vts_reward_expectancy,2022.2.4,MacIntel,60.04202942,Chrome,1440,900,,,,,0,937,,,,,,,,,,,,,,,,,U,146,circle,1,0,,,,,,,,,,,,,,,,repeat,number,numRpt,j,0.6453,Hi,,,,,,1,,,,,,,,low,18,0,18,0,1,,,,,,,,,
297643,2022-10-05_22h32.34.083,vts_reward_expectancy,2022.2.4,MacIntel,60.04202942,Chrome,1440,900,,,,,1,938,,,,,,,,,,,,,,,,,W,174,hexagon,1,0,,,,,,,,,,,,,,,,switch,letter,lettSwt,f,0.5198,Lo,,,,,,1,,,,,,,,low,19,0,19,0,1,,,,,,,,,
297643,2022-10-05_22h32.34.083,vts_reward_expectancy,2022.2.4,MacIntel,60.04202942,Chrome,1440,900,,,,,10,948,,,,,,,,,,,,,,,,,Y,181,circle,1,0,,,,,,,,,,,,,,,,switch,number,numSwt,k,0.3635,Hi,,,,,,1,,,,,,,,low,20,0,20,0,1,,,,,,,,,
297643,2022-10-05_22h32.34.083,vts_reward_expectancy,2022.2.4,MacIntel,60.04202942,Chrome,1440,900,,,,,1,949,,,,,,,,,,,,,,,,,S,125,hexagon,1,0,,,,,,,,,,,,,,,,switch,letter,lettSwt,f,0.5482,Lo,,,,,,1,,,,,,,,low,21,0,21,0,1,,,,,,,,,
297643,2022-10-05_22h32.34.083,vts_reward_expectancy,2022.2.4,MacIntel,60.04202942,Chrome,1440,900,,,,,10,959,,,,,,,,,,,,,,,,,H,160,circle,1,0,,,,,,,,,,,,,,,,switch,number,numSwt,k,0.4227,Hi,,,,,,1,,,,,,,,low,22,0,22,0,1,,,,,,,,,
297643,2022-10-05_22h32.34.083,vts_reward_expectancy,2022.2.4,MacIntel,60.04202942,Chrome,1440,900,,,,,0,959,,,,,,,,,,,,,,,,,F,167,hexagon,0,0,,,,,,,,,,,,,,,,switch,letter,NA,f,0.6319,Hi,,,,,,1,,,,,,,,low,23,0,23,0,1,,,,,,,,,
297643,2022-10-05_22h32.34.083,vts_reward_expectancy,2022.2.4,MacIntel,60.04202942,Chrome,1440,900,,,,,10,969,,,,,,,,,,,,,,,,,S,125,circle,1,1,,,,,,,,,,,,,,,,switch,number,numSwt,j,0.4479,Hi,,,,,,1,,,,,,,,low,24,0,24,0,1,,,,,,,,,
297643,2022-10-05_22h32.34.083,vts_reward_expectancy,2022.2.4,MacIntel,60.04202942,Chrome,1440,900,,,,,1,970,,,,,,,,,,,,,,,,,D,174,hexagon,1,0,,,,,,,,,,,,,,,,switch,letter,lettSwt,d,0.5757,Lo,,,,,,1,,,,,,,,low,25,0,25,0,1,,,,,,,,,
297643,2022-10-05_22h32.34.083,vts_reward_expectancy,2022.2.4,MacIntel,60.04202942,Chrome,1440,900,,,,,0,970,,,,,,,,,,,,,,,,,Y,160,circle,1,0,,,,,,,,,,,,,,,,switch,number,numSwt,k,0.5212,Hi,,,,,,1,,,,,,,,low,26,0,26,0,1,,,,,,,,,
297643,2022-10-05_22h32.34.083,vts_reward_expectancy,2022.2.4,MacIntel,60.04202942,Chrome,1440,900,,,,,1,971,,,,,,,,,,,,,,,,,W,146,hexagon,1,0,,,,,,,,,,,,,,,,switch,letter,lettSwt,f,0.5243,Lo,,,,,,1,,,,,,,,low,27,0,27,0,1,,,,,,,,,
297643,2022-10-05_22h32.34.083,vts_reward_expectancy,2022.2.4,MacIntel,60.04202942,Chrome,1440,900,,,,,0,971,,,,,,,,,,,,,,,,,B,167,hexagon,0,0,,,,,,,,,,,,,,,,switch,number,NA,j,0.6518,Lo,,,,,,1,,,,,,,,low,28,0,28,0,1,,,,,,,,,
297643,2022-10-05_22h32.34.083,vts_reward_expectancy,2022.2.4,MacIntel,60.04202942,Chrome,1440,900,,,,,0,971,,,,,,,,,,,,,,,,,H,181,circle,1,1,,,,,,,,,,,,,,,,repeat,number,numRpt,k,0.5446,Hi,,,,,,1,,,,,,,,low,29,0,29,0,1,,,,,,,,,
297643,2022-10-05_22h32.34.083,vts_reward_expectancy,2022.2.4,MacIntel,60.04202942,Chrome,1440,900,,,,,0,971,,,,,,,,,,,,,,,,,U,139,hexagon,0,0,,,,,,,,,,,,,,,,switch,letter,NA,d,0.3986,Hi,,,,,,1,,,,,,,,low,30,0,30,0,1,,,,,,,,,
297643,2022-10-05_22h32.34.083,vts_reward_expectancy,2022.2.4,MacIntel,60.04202942,Chrome,1440,900,,,,,0,971,,,,,,,,,,,,,,,,,F,132,circle,1,1,,,,,,,,,,,,,,,,switch,number,numSwt,j,0.7023,Hi,,,,,,1,,,,,,,,low,31,0,31,0,1,,,,,,,,,
297643,2022-10-05_22h32.34.083,vts_reward_expectancy,2022.2.4,MacIntel,60.04202942,Chrome,1440,900,,,,,10,981,,,,,,,,,,,,,,,,,W,146,triangle,1,0,,,,,,,,,,,,,,,,switch,letter,lettSwt,f,0.4859,Hi,,,,,,2,,,,,,space,4.764,high,0,0,0,0,1,,,,,,,,,
297643,2022-10-05_22h32.34.083,vts_reward_expectancy,2022.2.4,MacIntel,60.04202942,Chrome,1440,900,,,,,1,982,,,,,,,,,,,,,,,,,F,132,star,1,0,,,,,,,,,,,,,,,,switch,number,numSwt,j,0.5145,Lo,,,,,,2,,,,,,,,high,1,0,1,0,1,,,,,,,,,
297643,2022-10-05_22h32.34.083,vts_reward_expectancy,2022.2.4,MacIntel,60.04202942,Chrome,1440,900,,,,,0,982,,,,,,,,,,,,,,,,,B,181,triangle,1,0,,,,,,,,,,,,,,,,switch,letter,lettSwt,d,0.5852,Hi,,,,,,2,,,,,,,,high,2,0,2,0,1,,,,,,,,,
297643,2022-10-05_22h32.34.083,vts_reward_expectancy,2022.2.4,MacIntel,60.04202942,Chrome,1440,900,,,,,1,983,,,,,,,,,,,,,,,,,Y,139,star,1,0,,,,,,,,,,,,,,,,repeat,letter,lettRpt,f,0.4874,Lo,,,,,,2,,,,,,,,high,3,0,3,0,1,,,,,,,,,
297643,2022-10-05_22h32.34.083,vts_reward_expectancy,2022.2.4,MacIntel,60.04202942,Chrome,1440,900,,,,,0,983,,,,,,,,,,,,,,,,,H,167,triangle,1,0,,,,,,,,,,,,,,,,repeat,letter,lettRpt,d,0.5991,Hi,,,,,,2,,,,,,,,high,4,0,4,0,1,,,,,,,,,
297643,2022-10-05_22h32.34.083,vts_reward_expectancy,2022.2.4,MacIntel,60.04202942,Chrome,1440,900,,,,,10,993,,,,,,,,,,,,,,,,,S,125,star,1,0,,,,,,,,,,,,,,,,repeat,letter,lettRpt,f,0.6797,Lo,,,,,,2,,,,,,,,high,5,0,5,0,1,,,,,,,,,
297643,2022-10-05_22h32.34.083,vts_reward_expectancy,2022.2.4,MacIntel,60.04202942,Chrome,1440,900,,,,,1,994,,,,,,,,,,,,,,,,,U,174,star,1,0,,,,,,,,,,,,,,,,switch,number,numSwt,k,0.5096,Lo,,,,,,2,,,,,,,,high,6,0,6,0,1,,,,,,,,,
297643,2022-10-05_22h32.34.083,vts_reward_expectancy,2022.2.4,MacIntel,60.04202942,Chrome,1440,900,,,,,0,994,,,,,,,,,,,,,,,,,D,160,triangle,1,0,,,,,,,,,,,,,,,,switch,letter,lettSwt,d,0.558,Hi,,,,,,2,,,,,,,,high,7,0,7,0,1,,,,,,,,,
297643,2022-10-05_22h32.34.083,vts_reward_expectancy,2022.2.4,MacIntel,60.04202942,Chrome,1440,900,,,,,10,1004,,,,,,,,,,,,,,,,,W,146,triangle,1,0,,,,,,,,,,,,,,,,repeat,letter,lettRpt,f,0.4636,Hi,,,,,,2,,,,,,,,high,8,0,8,0,1,,,,,,,,,
297643,2022-10-05_22h32.34.083,vts_reward_expectancy,2022.2.4,MacIntel,60.04202942,Chrome,1440,900,,,,,10,1014,,,,,,,,,,,,,,,,,F,132,star,1,0,,,,,,,,,,,,,,,,switch,number,numSwt,j,0.5326,Lo,,,,,,2,,,,,,,,high,9,0,9,0,1,,,,,,,,,
297643,2022-10-05_22h32.34.083,vts_reward_expectancy,2022.2.4,MacIntel,60.04202942,Chrome,1440,900,,,,,0,1014,,,,,,,,,,,,,,,,,B,181,triangle,1,0,,,,,,,,,,,,,,,,repeat,number,numRpt,k,0.5391,Hi,,,,,,2,,,,,,,,high,10,0,10,0,1,,,,,,,,,
297643,2022-10-05_22h32.34.083,vts_reward_expectancy,2022.2.4,MacIntel,60.04202942,Chrome,1440,900,,,,,1,1015,,,,,,,,,,,,,,,,,Y,139,star,1,0,,,,,,,,,,,,,,,,switch,letter,lettSwt,f,0.4744,Lo,,,,,,2,,,,,,,,high,11,0,11,0,1,,,,,,,,,
297643,2022-10-05_22h32.34.083,vts_reward_expectancy,2022.2.4,MacIntel,60.04202942,Chrome,1440,900,,,,,1,1016,,,,,,,,,,,,,,,,,H,167,star,1,0,,,,,,,,,,,,,,,,switch,number,numSwt,k,0.7407,Lo,,,,,,2,,,,,,,,high,12,0,12,0,1,,,,,,,,,
297643,2022-10-05_22h32.34.083,vts_reward_expectancy,2022.2.4,MacIntel,60.04202942,Chrome,1440,900,,,,,10,1026,,,,,,,,,,,,,,,,,S,125,triangle,1,0,,,,,,,,,,,,,,,,repeat,number,numRpt,j,0.3924,Hi,,,,,,2,,,,,,,,high,13,0,13,0,1,,,,,,,,,
297643,2022-10-05_22h32.34.083,vts_reward_expectancy,2022.2.4,MacIntel,60.04202942,Chrome,1440,900,,,,,10,1036,,,,,,,,,,,,,,,,,U,174,star,1,0,,,,,,,,,,,,,,,,switch,letter,lettSwt,f,0.5116,Lo,,,,,,2,,,,,,,,high,14,0,14,0,1,,,,,,,,,
297643,2022-10-05_22h32.34.083,vts_reward_expectancy,2022.2.4,MacIntel,60.04202942,Chrome,1440,900,,,,,10,1046,,,,,,,,,,,,,,,,,D,160,triangle,1,0,,,,,,,,,,,,,,,,repeat,letter,lettRpt,d,0.4413,Hi,,,,,,2,,,,,,,,high,15,0,15,0,1,,,,,,,,,
297643,2022-10-05_22h32.34.083,vts_reward_expectancy,2022.2.4,MacIntel,60.04202942,Chrome,1440,900,,,,,1,1047,,,,,,,,,,,,,,,,,Y,146,star,1,0,,,,,,,,,,,,,,,,switch,number,numSwt,j,0.4421,Lo,,,,,,2,,,,,,,,high,16,0,16,0,1,,,,,,,,,
297643,2022-10-05_22h32.34.083,vts_reward_expectancy,2022.2.4,MacIntel,60.04202942,Chrome,1440,900,,,,,10,1057,,,,,,,,,,,,,,,,,S,167,triangle,1,0,,,,,,,,,,,,,,,,repeat,number,numRpt,k,0.4402,Hi,,,,,,2,,,,,,,,high,17,0,17,0,1,,,,,,,,,
297643,2022-10-05_22h32.34.083,vts_reward_expectancy,2022.2.4,MacIntel,60.04202942,Chrome,1440,900,,,,,10,1067,,,,,,,,,,,,,,,,,B,181,triangle,1,0,,,,,,,,,,,,,,,,switch,letter,lettSwt,d,0.5037,Hi,,,,,,2,,,,,,,,high,18,0,18,0,1,,,,,,,,,
297643,2022-10-05_22h32.34.083,vts_reward_expectancy,2022.2.4,MacIntel,60.04202942,Chrome,1440,900,,,,,1,1068,,,,,,,,,,,,,,,,,W,132,star,1,0,,,,,,,,,,,,,,,,switch,number,numSwt,j,0.5248,Lo,,,,,,2,,,,,,,,high,19,0,19,0,1,,,,,,,,,
297643,2022-10-05_22h32.34.083,vts_reward_expectancy,2022.2.4,MacIntel,60.04202942,Chrome,1440,900,,,,,10,1078,,,,,,,,,,,,,,,,,H,160,star,1,0,,,,,,,,,,,,,,,,switch,letter,lettSwt,d,0.6504,Lo,,,,,,2,,,,,,,,high,20,0,20,0,1,,,,,,,,,
297643,2022-10-05_22h32.34.083,vts_reward_expectancy,2022.2.4,MacIntel,60.04202942,Chrome,1440,900,,,,,0,1078,,,,,,,,,,,,,,,,,U,125,triangle,0,0,,,,,,,,,,,,,,,,repeat,letter,NA,d,0.4531,Lo,,,,,,2,,,,,,,,high,21,0,21,0,1,,,,,,,,,
297643,2022-10-05_22h32.34.083,vts_reward_expectancy,2022.2.4,MacIntel,60.04202942,Chrome,1440,900,,,,,1,1079,,,,,,,,,,,,,,,,,D,139,star,1,1,,,,,,,,,,,,,,,,repeat,letter,lettRpt,d,0.5455,Lo,,,,,,2,,,,,,,,high,22,0,22,0,1,,,,,,,,,
297643,2022-10-05_22h32.34.083,vts_reward_expectancy,2022.2.4,MacIntel,60.04202942,Chrome,1440,900,,,,,0,1079,,,,,,,,,,,,,,,,,F,174,triangle,1,0,,,,,,,,,,,,,,,,switch,number,numSwt,k,0.4669,Hi,,,,,,2,,,,,,,,high,23,0,23,0,1,,,,,,,,,
297643,2022-10-05_22h32.34.083,vts_reward_expectancy,2022.2.4,MacIntel,60.04202942,Chrome,1440,900,,,,,10,1089,,,,,,,,,,,,,,,,,Y,125,triangle,1,0,,,,,,,,,,,,,,,,repeat,number,numRpt,j,0.4643,Hi,,,,,,2,,,,,,,,high,24,0,24,0,1,,,,,,,,,
297643,2022-10-05_22h32.34.083,vts_reward_expectancy,2022.2.4,MacIntel,60.04202942,Chrome,1440,900,,,,,0,1089,,,,,,,,,,,,,,,,,W,167,star,0,0,,,,,,,,,,,,,,,,repeat,number,NA,j,0.6164,Hi,,,,,,2,,,,,,,,high,25,0,25,0,1,,,,,,,,,
297643,2022-10-05_22h32.34.083,vts_reward_expectancy,2022.2.4,MacIntel,60.04202942,Chrome,1440,900,,,,,10,1099,,,,,,,,,,,,,,,,,U,139,triangle,1,1,,,,,,,,,,,,,,,,switch,letter,lettSwt,f,0.5207,Hi,,,,,,2,,,,,,,,high,26,0,26,0,1,,,,,,,,,
297643,2022-10-05_22h32.34.083,vts_reward_expectancy,2022.2.4,MacIntel,60.04202942,Chrome,1440,900,,,,,1,1100,,,,,,,,,,,,,,,,,D,181,star,1,0,,,,,,,,,,,,,,,,repeat,letter,lettRpt,d,0.5876,Lo,,,,,,2,,,,,,,,high,27,0,27,0,1,,,,,,,,,
297643,2022-10-05_22h32.34.083,vts_reward_expectancy,2022.2.4,MacIntel,60.04202942,Chrome,1440,900,,,,,0,1100,,,,,,,,,,,,,,,,,S,174,star,0,0,,,,,,,,,,,,,,,,repeat,letter,NA,d,0.4614,Lo,,,,,,2,,,,,,,,high,28,0,28,0,1,,,,,,,,,
297643,2022-10-05_22h32.34.083,vts_reward_expectancy,2022.2.4,MacIntel,60.04202942,Chrome,1440,900,,,,,0,1100,,,,,,,,,,,,,,,,,H,146,triangle,1,1,,,,,,,,,,,,,,,,repeat,letter,lettRpt,d,0.5778,Hi,,,,,,2,,,,,,,,high,29,0,29,0,1,,,,,,,,,
297643,2022-10-05_22h32.34.083,vts_reward_expectancy,2022.2.4,MacIntel,60.04202942,Chrome,1440,900,,,,,0,1100,,,,,,,,,,,,,,,,,F,132,triangle,0,0,,,,,,,,,,,,,,,,repeat,letter,NA,f,0.5708,Hi,,,,,,2,,,,,,,,high,30,0,30,0,1,,,,,,,,,
297643,2022-10-05_22h32.34.083,vts_reward_expectancy,2022.2.4,MacIntel,60.04202942,Chrome,1440,900,,,,,1,1101,,,,,,,,,,,,,,,,,B,160,star,1,1,,,,,,,,,,,,,,,,switch,number,numSwt,k,0.5413,Lo,,,,,,2,,,,,,,,high,31,0,31,0,1,,,,,,,,,
297643,2022-10-05_22h32.34.083,vts_reward_expectancy,2022.2.4,MacIntel,60.04202942,Chrome,1440,900,,,,,10,1111,,,,,,,,,,,,,,,,,U,139,star,1,0,,,,,,,,,,,,,,,,switch,letter,lettSwt,f,0.5427,Lo,,,,,,3,,,,,,space,2.0042,high,0,0,0,0,1,,,,,,,,,
297643,2022-10-05_22h32.34.083,vts_reward_expectancy,2022.2.4,MacIntel,60.04202942,Chrome,1440,900,,,,,0,1111,,,,,,,,,,,,,,,,,F,174,triangle,1,0,,,,,,,,,,,,,,,,switch,number,numSwt,k,0.5406,Hi,,,,,,3,,,,,,,,high,1,0,1,0,1,,,,,,,,,
297643,2022-10-05_22h32.34.083,vts_reward_expectancy,2022.2.4,MacIntel,60.04202942,Chrome,1440,900,,,,,1,1112,,,,,,,,,,,,,,,,,H,181,star,1,0,,,,,,,,,,,,,,,,repeat,number,numRpt,k,0.5463,Lo,,,,,,3,,,,,,,,high,2,0,2,0,1,,,,,,,,,
297643,2022-10-05_22h32.34.083,vts_reward_expectancy,2022.2.4,MacIntel,60.04202942,Chrome,1440,900,,,,,10,1122,,,,,,,,,,,,,,,,,B,125,triangle,1,0,,,,,,,,,,,,,,,,switch,letter,lettSwt,d,0.46,Hi,,,,,,3,,,,,,,,high,3,0,3,0,1,,,,,,,,,
297643,2022-10-05_22h32.34.083,vts_reward_expectancy,2022.2.4,MacIntel,60.04202942,Chrome,1440,900,,,,,1,1123,,,,,,,,,,,,,,,,,Y,167,star,1,0,,,,,,,,,,,,,,,,switch,number,numSwt,k,0.4568,Lo,,,,,,3,,,,,,,,high,4,0,4,0,1,,,,,,,,,
297643,2022-10-05_22h32.34.083,vts_reward_expectancy,2022.2.4,MacIntel,60.04202942,Chrome,1440,900,,,,,0,1123,,,,,,,,,,,,,,,,,W,146,triangle,1,0,,,,,,,,,,,,,,,,switch,letter,lettSwt,f,0.7451,Hi,,,,,,3,,,,,,,,high,5,0,5,0,1,,,,,,,,,
297643,2022-10-05_22h32.34.083,vts_reward_expectancy,2022.2.4,MacIntel,60.04202942,Chrome,1440,900,,,,,0,1123,,,,,,,,,,,,,,,,,S,160,triangle,1,0,,,,,,,,,,,,,,,,repeat,letter,lettRpt,f,0.749,Hi,,,,,,3,,,,,,,,high,6,0,6,0,1,,,,,,,,,
297643,2022-10-05_22h32.34.083,vts_reward_expectancy,2022.2.4,MacIntel,60.04202942,Chrome,1440,900,,,,,1,1124,,,,,,,,,,,,,,,,,D,132,star,1,0,,,,,,,,,,,,,,,,repeat,letter,lettRpt,d,0.4946,Lo,,,,,,3,,,,,,,,high,7,0,7,0,1,,,,,,,,,
297643,2022-10-05_22h32.34.083,vts_reward_expectancy,2022.2.4,MacIntel,60.04202942,Chrome,1440,900,,,,,10,1134,,,,,,,,,,,,,,,,,U,139,star,1,0,,,,,,,,,,,,,,,,repeat,letter,lettRpt,f,0.602,Lo,,,,,,3,,,,,,,,high,8,0,8,0,1,,,,,,,,,
297643,2022-10-05_22h32.34.083,vts_reward_expectancy,2022.2.4,MacIntel,60.04202942,Chrome,1440,900,,,,,10,1144,,,,,,,,,,,,,,,,,F,174,triangle,1,0,,,,,,,,,,,,,,,,switch,number,numSwt,k,0.4951,Hi,,,,,,3,,,,,,,,high,9,0,9,0,1,,,,,,,,,
297643,2022-10-05_22h32.34.083,vts_reward_expectancy,2022.2.4,MacIntel,60.04202942,Chrome,1440,900,,,,,0,1144,,,,,,,,,,,,,,,,,H,181,triangle,1,0,,,,,,,,,,,,,,,,switch,letter,lettSwt,d,0.6075,Hi,,,,,,3,,,,,,,,high,10,0,10,0,1,,,,,,,,,
297643,2022-10-05_22h32.34.083,vts_reward_expectancy,2022.2.4,MacIntel,60.04202942,Chrome,1440,900,,,,,1,1145,,,,,,,,,,,,,,,,,B,125,star,1,0,,,,,,,,,,,,,,,,switch,number,numSwt,j,0.6723,Lo,,,,,,3,,,,,,,,high,11,0,11,0,1,,,,,,,,,
297643,2022-10-05_22h32.34.083,vts_reward_expectancy,2022.2.4,MacIntel,60.04202942,Chrome,1440,900,,,,,1,1146,,,,,,,,,,,,,,,,,Y,167,star,1,0,,,,,,,,,,,,,,,,switch,letter,lettSwt,f,0.5652,Lo,,,,,,3,,,,,,,,high,12,0,12,0,1,,,,,,,,,
297643,2022-10-05_22h32.34.083,vts_reward_expectancy,2022.2.4,MacIntel,60.04202942,Chrome,1440,900,,,,,0,1146,,,,,,,,,,,,,,,,,W,146,triangle,1,0,,,,,,,,,,,,,,,,switch,number,numSwt,j,0.5505,Hi,,,,,,3,,,,,,,,high,13,0,13,0,1,,,,,,,,,
297643,2022-10-05_22h32.34.083,vts_reward_expectancy,2022.2.4,MacIntel,60.04202942,Chrome,1440,900,,,,,1,1147,,,,,,,,,,,,,,,,,S,160,star,1,0,,,,,,,,,,,,,,,,switch,letter,lettSwt,f,0.4243,Lo,,,,,,3,,,,,,,,high,14,0,14,0,1,,,,,,,,,
297643,2022-10-05_22h32.34.083,vts_reward_expectancy,2022.2.4,MacIntel,60.04202942,Chrome,1440,900,,,,,10,1157,,,,,,,,,,,,,,,,,D,132,triangle,1,0,,,,,,,,,,,,,,,,switch,number,numSwt,j,0.3779,Hi,,,,,,3,,,,,,,,high,15,0,15,0,1,,,,,,,,,
297643,2022-10-05_22h32.34.083,vts_reward_expectancy,2022.2.4,MacIntel,60.04202942,Chrome,1440,900,,,,,1,1158,,,,,,,,,,,,,,,,,F,146,star,1,0,,,,,,,,,,,,,,,,repeat,number,numRpt,j,0.7432,Lo,,,,,,3,,,,,,,,high,16,0,16,0,1,,,,,,,,,
297643,2022-10-05_22h32.34.083,vts_reward_expectancy,2022.2.4,MacIntel,60.04202942,Chrome,1440,900,,,,,0,1158,,,,,,,,,,,,,,,,,U,174,triangle,1,0,,,,,,,,,,,,,,,,repeat,number,numRpt,k,0.715,Hi,,,,,,3,,,,,,,,high,17,0,17,0,1,,,,,,,,,
297643,2022-10-05_22h32.34.083,vts_reward_expectancy,2022.2.4,MacIntel,60.04202942,Chrome,1440,900,,,,,10,1168,,,,,,,,,,,,,,,,,W,181,star,1,0,,,,,,,,,,,,,,,,switch,letter,lettSwt,f,0.4433,Lo,,,,,,3,,,,,,,,high,18,0,18,0,1,,,,,,,,,
297643,2022-10-05_22h32.34.083,vts_reward_expectancy,2022.2.4,MacIntel,60.04202942,Chrome,1440,900,,,,,0,1168,,,,,,,,,,,,,,,,,S,160,triangle,1,0,,,,,,,,,,,,,,,,switch,number,numSwt,k,0.5837,Hi,,,,,,3,,,,,,,,high,19,0,19,0,1,,,,,,,,,
297643,2022-10-05_22h32.34.083,vts_reward_expectancy,2022.2.4,MacIntel,60.04202942,Chrome,1440,900,,,,,0,1168,,,,,,,,,,,,,,,,,Y,125,triangle,1,0,,,,,,,,,,,,,,,,repeat,number,numRpt,j,0.4775,Hi,,,,,,3,,,,,,,,high,20,0,20,0,1,,,,,,,,,
297643,2022-10-05_22h32.34.083,vts_reward_expectancy,2022.2.4,MacIntel,60.04202942,Chrome,1440,900,,,,,10,1178,,,,,,,,,,,,,,,,,D,132,star,1,0,,,,,,,,,,,,,,,,repeat,number,numRpt,j,0.4262,Lo,,,,,,3,,,,,,,,high,21,0,21,0,1,,,,,,,,,
297643,2022-10-05_22h32.34.083,vts_reward_expectancy,2022.2.4,MacIntel,60.04202942,Chrome,1440,900,,,,,1,1179,,,,,,,,,,,,,,,,,B,139,star,1,0,,,,,,,,,,,,,,,,switch,letter,lettSwt,d,0.5133,Lo,,,,,,3,,,,,,,,high,22,0,22,0,1,,,,,,,,,
297643,2022-10-05_22h32.34.083,vts_reward_expectancy,2022.2.4,MacIntel,60.04202942,Chrome,1440,900,,,,,0,1179,,,,,,,,,,,,,,,,,H,167,triangle,0,0,,,,,,,,,,,,,,,,repeat,letter,NA,f,0.4764,Lo,,,,,,3,,,,,,,,high,23,0,23,0,1,,,,,,,,,
297643,2022-10-05_22h32.34.083,vts_reward_expectancy,2022.2.4,MacIntel,60.04202942,Chrome,1440,900,,,,,0,1179,,,,,,,,,,,,,,,,,B,146,triangle,1,1,,,,,,,,,,,,,,,,repeat,letter,lettRpt,d,0.5711,Hi,,,,,,3,,,,,,,,high,24,0,24,0,1,,,,,,,,,
297643,2022-10-05_22h32.34.083,vts_reward_expectancy,2022.2.4,MacIntel,60.04202942,Chrome,1440,900,,,,,1,1180,,,,,,,,,,,,,,,,,D,181,star,1,0,,,,,,,,,,,,,,,,repeat,letter,lettRpt,d,0.4132,Lo,,,,,,3,,,,,,,,high,25,0,25,0,1,,,,,,,,,
297643,2022-10-05_22h32.34.083,vts_reward_expectancy,2022.2.4,MacIntel,60.04202942,Chrome,1440,900,,,,,0,1180,,,,,,,,,,,,,,,,,U,160,triangle,1,0,,,,,,,,,,,,,,,,repeat,letter,lettRpt,f,0.7095,Hi,,,,,,3,,,,,,,,high,26,0,26,0,1,,,,,,,,,
297643,2022-10-05_22h32.34.083,vts_reward_expectancy,2022.2.4,MacIntel,60.04202942,Chrome,1440,900,,,,,0,1180,,,,,,,,,,,,,,,,,S,167,star,0,0,,,,,,,,,,,,,,,,repeat,letter,NA,d,0.4748,Hi,,,,,,3,,,,,,,,high,27,0,27,0,1,,,,,,,,,
297643,2022-10-05_22h32.34.083,vts_reward_expectancy,2022.2.4,MacIntel,60.04202942,Chrome,1440,900,,,,,10,1190,,,,,,,,,,,,,,,,,H,174,triangle,1,1,,,,,,,,,,,,,,,,switch,number,numSwt,k,0.4578,Hi,,,,,,3,,,,,,,,high,28,0,28,0,1,,,,,,,,,
297643,2022-10-05_22h32.34.083,vts_reward_expectancy,2022.2.4,MacIntel,60.04202942,Chrome,1440,900,,,,,10,1200,,,,,,,,,,,,,,,,,Y,125,star,1,0,,,,,,,,,,,,,,,,repeat,number,numRpt,j,0.5253,Lo,,,,,,3,,,,,,,,high,29,0,29,0,1,,,,,,,,,
297643,2022-10-05_22h32.34.083,vts_reward_expectancy,2022.2.4,MacIntel,60.04202942,Chrome,1440,900,,,,,0,1200,,,,,,,,,,,,,,,,,W,132,triangle,1,0,,,,,,,,,,,,,,,,switch,letter,lettSwt,f,0.5929,Hi,,,,,,3,,,,,,,,high,30,0,30,0,1,,,,,,,,,
297643,2022-10-05_22h32.34.083,vts_reward_expectancy,2022.2.4,MacIntel,60.04202942,Chrome,1440,900,,,,,1,1201,,,,,,,,,,,,,,,,,F,139,star,1,0,,,,,,,,,,,,,,,,switch,number,numSwt,j,0.5936,Lo,,,,,,3,,,,,,,,high,31,0,31,0,1,,,,,,,,,
297643,2022-10-05_22h32.34.083,vts_reward_expectancy,2022.2.4,MacIntel,60.04202942,Chrome,1440,900,,,,,0,1201,,,,,,,,,,,,,,,,,W,174,circle,1,0,,,,,,,,,,,,,,,,switch,letter,lettSwt,f,0.841,Hi,,,,,,4,,,,,,space,1.5518,low,0,0,0,0,1,,,,,,,,,
297643,2022-10-05_22h32.34.083,vts_reward_expectancy,2022.2.4,MacIntel,60.04202942,Chrome,1440,900,,,,,10,1211,,,,,,,,,,,,,,,,,D,160,hexagon,1,0,,,,,,,,,,,,,,,,repeat,letter,lettRpt,d,0.5112,Lo,,,,,,4,,,,,,,,low,1,0,1,0,1,,,,,,,,,
297643,2022-10-05_22h32.34.083,vts_reward_expectancy,2022.2.4,MacIntel,60.04202942,Chrome,1440,900,,,,,0,1211,,,,,,,,,,,,,,,,,H,146,circle,1,0,,,,,,,,,,,,,,,,repeat,letter,lettRpt,d,0.6724,Hi,,,,,,4,,,,,,,,low,2,0,2,0,1,,,,,,,,,
297643,2022-10-05_22h32.34.083,vts_reward_expectancy,2022.2.4,MacIntel,60.04202942,Chrome,1440,900,,,,,1,1212,,,,,,,,,,,,,,,,,B,167,hexagon,1,0,,,,,,,,,,,,,,,,switch,number,numSwt,k,0.5666,Lo,,,,,,4,,,,,,,,low,3,0,3,0,1,,,,,,,,,
297643,2022-10-05_22h32.34.083,vts_reward_expectancy,2022.2.4,MacIntel,60.04202942,Chrome,1440,900,,,,,0,1212,,,,,,,,,,,,,,,,,S,139,circle,1,0,,,,,,,,,,,,,,,,repeat,number,numRpt,j,0.5656,Hi,,,,,,4,,,,,,,,low,4,0,4,0,1,,,,,,,,,
297643,2022-10-05_22h32.34.083,vts_reward_expectancy,2022.2.4,MacIntel,60.04202942,Chrome,1440,900,,,,,10,1222,,,,,,,,,,,,,,,,,F,125,hexagon,1,0,,,,,,,,,,,,,,,,switch,letter,lettSwt,d,0.5174,Lo,,,,,,4,,,,,,,,low,5,0,5,0,1,,,,,,,,,
297643,2022-10-05_22h32.34.083,vts_reward_expectancy,2022.2.4,MacIntel,60.04202942,Chrome,1440,900,,,,,0,1222,,,,,,,,,,,,,,,,,U,181,circle,1,0,,,,,,,,,,,,,,,,switch,number,numSwt,k,0.5015,Hi,,,,,,4,,,,,,,,low,6,0,6,0,1,,,,,,,,,
297643,2022-10-05_22h32.34.083,vts_reward_expectancy,2022.2.4,MacIntel,60.04202942,Chrome,1440,900,,,,,10,1232,,,,,,,,,,,,,,,,,Y,132,hexagon,1,0,,,,,,,,,,,,,,,,switch,letter,lettSwt,f,0.5426,Lo,,,,,,4,,,,,,,,low,7,0,7,0,1,,,,,,,,,
297643,2022-10-05_22h32.34.083,vts_reward_expectancy,2022.2.4,MacIntel,60.04202942,Chrome,1440,900,,,,,10,1242,,,,,,,,,,,,,,,,,W,174,circle,1,0,,,,,,,,,,,,,,,,repeat,letter,lettRpt,f,0.4636,Hi,,,,,,4,,,,,,,,low,8,0,8,0,1,,,,,,,,,
297643,2022-10-05_22h32.34.083,vts_reward_expectancy,2022.2.4,MacIntel,60.04202942,Chrome,1440,900,,,,,10,1252,,,,,,,,,,,,,,,,,D,160,hexagon,1,0,,,,,,,,,,,,,,,,switch,number,numSwt,k,0.4665,Lo,,,,,,4,,,,,,,,low,9,0,9,0,1,,,,,,,,,
297643,2022-10-05_22h32.34.083,vts_reward_expectancy,2022.2.4,MacIntel,60.04202942,Chrome,1440,900,,,,,10,1262,,,,,,,,,,,,,,,,,H,146,hexagon,1,0,,,,,,,,,,,,,,,,repeat,number,numRpt,j,0.5948,Lo,,,,,,4,,,,,,,,low,10,0,10,0,1,,,,,,,,,
297643,2022-10-05_22h32.34.083,vts_reward_expectancy,2022.2.4,MacIntel,60.04202942,Chrome,1440,900,,,,,0,1262,,,,,,,,,,,,,,,,,B,167,circle,1,0,,,,,,,,,,,,,,,,switch,letter,lettSwt,d,0.6066,Hi,,,,,,4,,,,,,,,low,11,0,11,0,1,,,,,,,,,
297643,2022-10-05_22h32.34.083,vts_reward_expectancy,2022.2.4,MacIntel,60.04202942,Chrome,1440,900,,,,,1,1263,,,,,,,,,,,,,,,,,S,139,circle,1,0,,,,,,,,,,,,,,,,switch,number,numSwt,j,0.4392,Hi,,,,,,4,,,,,,,,low,12,0,12,0,1,,,,,,,,,
297643,2022-10-05_22h32.34.083,vts_reward_expectancy,2022.2.4,MacIntel,60.04202942,Chrome,1440,900,,,,,1,1264,,,,,,,,,,,,,,,,,F,125,hexagon,1,0,,,,,,,,,,,,,,,,switch,letter,lettSwt,d,0.5171,Lo,,,,,,4,,,,,,,,low,13,0,13,0,1,,,,,,,,,
297643,2022-10-05_22h32.34.083,vts_reward_expectancy,2022.2.4,MacIntel,60.04202942,Chrome,1440,900,,,,,1,1265,,,,,,,,,,,,,,,,,U,181,hexagon,1,0,,,,,,,,,,,,,,,,switch,number,numSwt,k,0.4955,Lo,,,,,,4,,,,,,,,low,14,0,14,0,1,,,,,,,,,
297643,2022-10-05_22h32.34.083,vts_reward_expectancy,2022.2.4,MacIntel,60.04202942,Chrome,1440,900,,,,,10,1275,,,,,,,,,,,,,,,,,Y,132,circle,1,0,,,,,,,,,,,,,,,,repeat,number,numRpt,j,0.4055,Hi,,,,,,4,,,,,,,,low,15,0,15,0,1,,,,,,,,,
297643,2022-10-05_22h32.34.083,vts_reward_expectancy,2022.2.4,MacIntel,60.04202942,Chrome,1440,900,,,,,0,1275,,,,,,,,,,,,,,,,,U,146,circle,1,0,,,,,,,,,,,,,,,,switch,letter,lettSwt,f,0.5635,Hi,,,,,,4,,,,,,,,low,16,0,16,0,1,,,,,,,,,
297643,2022-10-05_22h32.34.083,vts_reward_expectancy,2022.2.4,MacIntel,60.04202942,Chrome,1440,900,,,,,1,1276,,,,,,,,,,,,,,,,,Y,181,hexagon,1,0,,,,,,,,,,,,,,,,repeat,letter,lettRpt,f,0.61,Lo,,,,,,4,,,,,,,,low,17,0,17,0,1,,,,,,,,,
297643,2022-10-05_22h32.34.083,vts_reward_expectancy,2022.2.4,MacIntel,60.04202942,Chrome,1440,900,,,,,10,1286,,,,,,,,,,,,,,,,,D,167,hexagon,1,0,,,,,,,,,,,,,,,,repeat,letter,lettRpt,d,0.6059,Lo,,,,,,4,,,,,,,,low,18,0,18,0,1,,,,,,,,,
297643,2022-10-05_22h32.34.083,vts_reward_expectancy,2022.2.4,MacIntel,60.04202942,Chrome,1440,900,,,,,0,1286,,,,,,,,,,,,,,,,,F,139,circle,0,0,,,,,,,,,,,,,,,,repeat,letter,NA,f,0.6633,Lo,,,,,,4,,,,,,,,low,19,0,19,0,1,,,,,,,,,
297643,2022-10-05_22h32.34.083,vts_reward_expectancy,2022.2.4,MacIntel,60.04202942,Chrome,1440,900,,,,,0,1286,,,,,,,,,,,,,,,,,W,174,circle,1,1,,,,,,,,,,,,,,,,switch,number,numSwt,k,0.5202,Hi,,,,,,4,,,,,,,,low,20,0,20,0,1,,,,,,,,,
297643,2022-10-05_22h32.34.083,vts_reward_expectancy,2022.2.4,MacIntel,60.04202942,Chrome,1440,900,,,,,1,1287,,,,,,,,,,,,,,,,,B,132,hexagon,1,0,,,,,,,,,,,,,,,,repeat,number,numRpt,j,0.5455,Lo,,,,,,4,,,,,,,,low,21,0,21,0,1,,,,,,,,,
297643,2022-10-05_22h32.34.083,vts_reward_expectancy,2022.2.4,MacIntel,60.04202942,Chrome,1440,900,,,,,0,1287,,,,,,,,,,,,,,,,,S,160,circle,1,0,,,,,,,,,,,,,,,,switch,letter,lettSwt,f,0.608,Hi,,,,,,4,,,,,,,,low,22,0,22,0,1,,,,,,,,,
297643,2022-10-05_22h32.34.083,vts_reward_expectancy,2022.2.4,MacIntel,60.04202942,Chrome,1440,900,,,,,1,1288,,,,,,,,,,,,,,,,,H,125,hexagon,1,0,,,,,,,,,,,,,,,,repeat,letter,lettRpt,d,0.6277,Lo,,,,,,4,,,,,,,,low,23,0,23,0,1,,,,,,,,,
297643,2022-10-05_22h32.34.083,vts_reward_expectancy,2022.2.4,MacIntel,60.04202942,Chrome,1440,900,,,,,0,1288,,,,,,,,,,,,,,,,,B,167,circle,1,0,,,,,,,,,,,,,,,,repeat,letter,lettRpt,d,0.6778,Hi,,,,,,4,,,,,,,,low,24,0,24,0,1,,,,,,,,,
297643,2022-10-05_22h32.34.083,vts_reward_expectancy,2022.2.4,MacIntel,60.04202942,Chrome,1440,900,,,,,0,1288,,,,,,,,,,,,,,,,,U,174,hexagon,0,0,,,,,,,,,,,,,,,,repeat,letter,NA,d,1.1825,Hi,,,,,,4,,,,,,,,low,25,0,25,0,1,,,,,,,,,
297643,2022-10-05_22h32.34.083,vts_reward_expectancy,2022.2.4,MacIntel,60.04202942,Chrome,1440,900,,,,,1,1289,,,,,,,,,,,,,,,,,F,125,hexagon,1,1,,,,,,,,,,,,,,,,repeat,letter,lettRpt,d,0.6173,Lo,,,,,,4,,,,,,,,low,26,0,26,0,1,,,,,,,,,
297643,2022-10-05_22h32.34.083,vts_reward_expectancy,2022.2.4,MacIntel,60.04202942,Chrome,1440,900,,,,,0,1289,,,,,,,,,,,,,,,,,W,132,circle,1,0,,,,,,,,,,,,,,,,switch,number,numSwt,j,0.5235,Hi,,,,,,4,,,,,,,,low,27,0,27,0,1,,,,,,,,,
297643,2022-10-05_22h32.34.083,vts_reward_expectancy,2022.2.4,MacIntel,60.04202942,Chrome,1440,900,,,,,10,1299,,,,,,,,,,,,,,,,,S,139,hexagon,1,0,,,,,,,,,,,,,,,,switch,letter,lettSwt,f,0.6452,Lo,,,,,,4,,,,,,,,low,28,0,28,0,1,,,,,,,,,
297643,2022-10-05_22h32.34.083,vts_reward_expectancy,2022.2.4,MacIntel,60.04202942,Chrome,1440,900,,,,,0,1299,,,,,,,,,,,,,,,,,Y,146,circle,0,0,,,,,,,,,,,,,,,,switch,number,NA,k,0.4732,Lo,,,,,,4,,,,,,,,low,29,0,29,0,1,,,,,,,,,
297643,2022-10-05_22h32.34.083,vts_reward_expectancy,2022.2.4,MacIntel,60.04202942,Chrome,1440,900,,,,,0,1299,,,,,,,,,,,,,,,,,H,160,circle,0,1,,,,,,,,,,,,,,,,repeat,number,NA,j,0.4973,Lo,,,,,,4,,,,,,,,low,30,0,30,0,1,,,,,,,,,
297643,2022-10-05_22h32.34.083,vts_reward_expectancy,2022.2.4,MacIntel,60.04202942,Chrome,1440,900,,,,,1,1300,,,,,,,,,,,,,,,,,D,181,hexagon,1,1,,,,,,,,,,,,,,,,repeat,number,numRpt,k,0.4191,Lo,,,,,,4,,,,,,,,low,31,0,31,0,1,,,,,,,,,
297643,2022-10-05_22h32.34.083,vts_reward_expectancy,2022.2.4,MacIntel,60.04202942,Chrome,1440,900,,,,,1,1301,,,,,,,,,,,,,,,,,W,139,star,1,0,,,,,,,,,,,,,,,,switch,letter,lettSwt,f,0.7619,Lo,,,,,,5,,,,,,space,1.6623,high,0,0,0,0,1,,,,,,,,,
297643,2022-10-05_22h32.34.083,vts_reward_expectancy,2022.2.4,MacIntel,60.04202942,Chrome,1440,900,,,,,10,1311,,,,,,,,,,,,,,,,,U,146,triangle,1,0,,,,,,,,,,,,,,,,repeat,letter,lettRpt,f,0.5705,Hi,,,,,,5,,,,,,,,high,1,0,1,0,1,,,,,,,,,
297643,2022-10-05_22h32.34.083,vts_reward_expectancy,2022.2.4,MacIntel,60.04202942,Chrome,1440,900,,,,,10,1321,,,,,,,,,,,,,,,,,F,181,star,1,0,,,,,,,,,,,,,,,,repeat,letter,lettRpt,d,0.6528,Lo,,,,,,5,,,,,,,,high,2,0,2,0,1,,,,,,,,,
297643,2022-10-05_22h32.34.083,vts_reward_expectancy,2022.2.4,MacIntel,60.04202942,Chrome,1440,900,,,,,10,1331,,,,,,,,,,,,,,,,,S,167,triangle,1,0,,,,,,,,,,,,,,,,repeat,letter,lettRpt,f,0.4262,Hi,,,,,,5,,,,,,,,high,3,0,3,0,1,,,,,,,,,
297643,2022-10-05_22h32.34.083,vts_reward_expectancy,2022.2.4,MacIntel,60.04202942,Chrome,1440,900,,,,,10,1341,,,,,,,,,,,,,,,,,D,160,star,1,0,,,,,,,,,,,,,,,,repeat,letter,lettRpt,d,0.5317,Lo,,,,,,5,,,,,,,,high,4,0,4,0,1,,,,,,,,,
297643,2022-10-05_22h32.34.083,vts_reward_expectancy,2022.2.4,MacIntel,60.04202942,Chrome,1440,900,,,,,0,1341,,,,,,,,,,,,,,,,,H,125,triangle,0,0,,,,,,,,,,,,,,,,repeat,letter,NA,f,0.6155,Lo,,,,,,5,,,,,,,,high,5,0,5,0,1,,,,,,,,,
297643,2022-10-05_22h32.34.083,vts_reward_expectancy,2022.2.4,MacIntel,60.04202942,Chrome,1440,900,,,,,1,1342,,,,,,,,,,,,,,,,,B,132,star,1,1,,,,,,,,,,,,,,,,switch,number,numSwt,j,0.5649,Lo,,,,,,5,,,,,,,,high,6,0,6,0,1,,,,,,,,,
297643,2022-10-05_22h32.34.083,vts_reward_expectancy,2022.2.4,MacIntel,60.04202942,Chrome,1440,900,,,,,0,1342,,,,,,,,,,,,,,,,,Y,174,triangle,1,0,,,,,,,,,,,,,,,,repeat,number,numRpt,k,0.6197,Hi,,,,,,5,,,,,,,,high,7,0,7,0,1,,,,,,,,,
297643,2022-10-05_22h32.34.083,vts_reward_expectancy,2022.2.4,MacIntel,60.04202942,Chrome,1440,900,,,,,10,1352,,,,,,,,,,,,,,,,,W,139,star,1,0,,,,,,,,,,,,,,,,repeat,number,numRpt,j,0.5238,Lo,,,,,,5,,,,,,,,high,8,0,8,0,1,,,,,,,,,
297643,2022-10-05_22h32.34.083,vts_reward_expectancy,2022.2.4,MacIntel,60.04202942,Chrome,1440,900,,,,,0,1352,,,,,,,,,,,,,,,,,U,146,triangle,0,0,,,,,,,,,,,,,,,,repeat,number,NA,k,0.4426,Lo,,,,,,5,,,,,,,,high,9,0,9,0,1,,,,,,,,,
297643,2022-10-05_22h32.34.083,vts_reward_expectancy,2022.2.4,MacIntel,60.04202942,Chrome,1440,900,,,,,0,1352,,,,,,,,,,,,,,,,,F,181,triangle,1,1,,,,,,,,,,,,,,,,repeat,number,numRpt,k,0.4928,Hi,,,,,,5,,,,,,,,high,10,0,10,0,1,,,,,,,,,
297643,2022-10-05_22h32.34.083,vts_reward_expectancy,2022.2.4,MacIntel,60.04202942,Chrome,1440,900,,,,,0,1352,,,,,,,,,,,,,,,,,S,167,star,0,0,,,,,,,,,,,,,,,,switch,letter,NA,d,0.4184,Hi,,,,,,5,,,,,,,,high,11,0,11,0,1,,,,,,,,,
297643,2022-10-05_22h32.34.083,vts_reward_expectancy,2022.2.4,MacIntel,60.04202942,Chrome,1440,900,,,,,1,1353,,,,,,,,,,,,,,,,,D,160,star,1,1,,,,,,,,,,,,,,,,repeat,letter,lettRpt,d,0.5663,Lo,,,,,,5,,,,,,,,high,12,0,12,0,1,,,,,,,,,
297643,2022-10-05_22h32.34.083,vts_reward_expectancy,2022.2.4,MacIntel,60.04202942,Chrome,1440,900,,,,,1,1354,,,,,,,,,,,,,,,,,H,125,triangle,1,0,,,,,,,,,,,,,,,,repeat,letter,lettRpt,d,0.5391,Hi,,,,,,5,,,,,,,,high,13,0,13,0,1,,,,,,,,,
297643,2022-10-05_22h32.34.083,vts_reward_expectancy,2022.2.4,MacIntel,60.04202942,Chrome,1440,900,,,,,1,1355,,,,,,,,,,,,,,,,,B,132,star,1,0,,,,,,,,,,,,,,,,switch,number,numSwt,j,0.5042,Lo,,,,,,5,,,,,,,,high,14,0,14,0,1,,,,,,,,,
297643,2022-10-05_22h32.34.083,vts_reward_expectancy,2022.2.4,MacIntel,60.04202942,Chrome,1440,900,,,,,10,1365,,,,,,,,,,,,,,,,,Y,174,triangle,1,0,,,,,,,,,,,,,,,,repeat,number,numRpt,k,0.4344,Hi,,,,,,5,,,,,,,,high,15,0,15,0,1,,,,,,,,,
297643,2022-10-05_22h32.34.083,vts_reward_expectancy,2022.2.4,MacIntel,60.04202942,Chrome,1440,900,,,,,0,1365,,,,,,,,,,,,,,,,,W,181,triangle,1,0,,,,,,,,,,,,,,,,repeat,number,numRpt,k,0.4656,Hi,,,,,,5,,,,,,,,high,16,0,16,0,1,,,,,,,,,
297643,2022-10-05_22h32.34.083,vts_reward_expectancy,2022.2.4,MacIntel,60.04202942,Chrome,1440,900,,,,,10,1375,,,,,,,,,,,,,,,,,S,160,star,1,0,,,,,,,,,,,,,,,,repeat,number,numRpt,k,0.5613,Lo,,,,,,5,,,,,,,,high,17,0,17,0,1,,,,,,,,,
297643,2022-10-05_22h32.34.083,vts_reward_expectancy,2022.2.4,MacIntel,60.04202942,Chrome,1440,900,,,,,1,1376,,,,,,,,,,,,,,,,,D,125,star,1,0,,,,,,,,,,,,,,,,switch,letter,lettSwt,d,0.4659,Lo,,,,,,5,,,,,,,,high,18,0,18,0,1,,,,,,,,,
297643,2022-10-05_22h32.34.083,vts_reward_expectancy,2022.2.4,MacIntel,60.04202942,Chrome,1440,900,,,,,0,1376,,,,,,,,,,,,,,,,,U,167,triangle,1,0,,,,,,,,,,,,,,,,repeat,letter,lettRpt,f,0.6264,Hi,,,,,,5,,,,,,,,high,19,0,19,0,1,,,,,,,,,
297643,2022-10-05_22h32.34.083,vts_reward_expectancy,2022.2.4,MacIntel,60.04202942,Chrome,1440,900,,,,,1,1377,,,,,,,,,,,,,,,,,Y,139,star,1,0,,,,,,,,,,,,,,,,switch,number,numSwt,j,0.6278,Lo,,,,,,5,,,,,,,,high,20,0,20,0,1,,,,,,,,,
297643,2022-10-05_22h32.34.083,vts_reward_expectancy,2022.2.4,MacIntel,60.04202942,Chrome,1440,900,,,,,0,1377,,,,,,,,,,,,,,,,,F,146,triangle,1,0,,,,,,,,,,,,,,,,repeat,number,numRpt,j,0.5283,Hi,,,,,,5,,,,,,,,high,21,0,21,0,1,,,,,,,,,
297643,2022-10-05_22h32.34.083,vts_reward_expectancy,2022.2.4,MacIntel,60.04202942,Chrome,1440,900,,,,,0,1377,,,,,,,,,,,,,,,,,H,132,triangle,1,0,,,,,,,,,,,,,,,,switch,letter,lettSwt,d,0.624,Hi,,,,,,5,,,,,,,,high,22,0,22,0,1,,,,,,,,,
297643,2022-10-05_22h32.34.083,vts_reward_expectancy,2022.2.4,MacIntel,60.04202942,Chrome,1440,900,,,,,10,1387,,,,,,,,,,,,,,,,,B,174,star,1,0,,,,,,,,,,,,,,,,repeat,letter,lettRpt,d,0.7785,Lo,,,,,,5,,,,,,,,high,23,0,23,0,1,,,,,,,,,
297643,2022-10-05_22h32.34.083,vts_reward_expectancy,2022.2.4,MacIntel,60.04202942,Chrome,1440,900,,,,,1,1388,,,,,,,,,,,,,,,,,B,132,star,1,0,,,,,,,,,,,,,,,,repeat,letter,lettRpt,d,0.4509,Lo,,,,,,5,,,,,,,,high,24,0,24,0,1,,,,,,,,,
297643,2022-10-05_22h32.34.083,vts_reward_expectancy,2022.2.4,MacIntel,60.04202942,Chrome,1440,900,,,,,10,1398,,,,,,,,,,,,,,,,,U,146,triangle,1,0,,,,,,,,,,,,,,,,repeat,letter,lettRpt,f,0.4622,Hi,,,,,,5,,,,,,,,high,25,0,25,0,1,,,,,,,,,
297643,2022-10-05_22h32.34.083,vts_reward_expectancy,2022.2.4,MacIntel,60.04202942,Chrome,1440,900,,,,,10,1408,,,,,,,,,,,,,,,,,D,167,triangle,1,0,,,,,,,,,,,,,,,,repeat,letter,lettRpt,d,0.5103,Hi,,,,,,5,,,,,,,,high,26,0,26,0,1,,,,,,,,,
297643,2022-10-05_22h32.34.083,vts_reward_expectancy,2022.2.4,MacIntel,60.04202942,Chrome,1440,900,,,,,1,1409,,,,,,,,,,,,,,,,,Y,139,star,1,0,,,,,,,,,,,,,,,,switch,number,numSwt,j,0.5976,Lo,,,,,,5,,,,,,,,high,27,0,27,0,1,,,,,,,,,
297643,2022-10-05_22h32.34.083,vts_reward_expectancy,2022.2.4,MacIntel,60.04202942,Chrome,1440,900,,,,,10,1419,,,,,,,,,,,,,,,,,F,125,star,1,0,,,,,,,,,,,,,,,,repeat,number,numRpt,j,0.4689,Lo,,,,,,5,,,,,,,,high,28,0,28,0,1,,,,,,,,,
297643,2022-10-05_22h32.34.083,vts_reward_expectancy,2022.2.4,MacIntel,60.04202942,Chrome,1440,900,,,,,10,1429,,,,,,,,,,,,,,,,,W,181,triangle,1,0,,,,,,,,,,,,,,,,switch,letter,lettSwt,f,0.4308,Hi,,,,,,5,,,,,,,,high,29,0,29,0,1,,,,,,,,,
297643,2022-10-05_22h32.34.083,vts_reward_expectancy,2022.2.4,MacIntel,60.04202942,Chrome,1440,900,,,,,10,1439,,,,,,,,,,,,,,,,,S,160,triangle,1,0,,,,,,,,,,,,,,,,repeat,letter,lettRpt,f,0.5261,Hi,,,,,,5,,,,,,,,high,30,0,30,0,1,,,,,,,,,
297643,2022-10-05_22h32.34.083,vts_reward_expectancy,2022.2.4,MacIntel,60.04202942,Chrome,1440,900,,,,,1,1440,,,,,,,,,,,,,,,,,H,174,star,1,0,,,,,,,,,,,,,,,,switch,number,numSwt,k,0.536,Lo,,,,,,5,,,,,,,,high,31,0,31,0,1,,,,,,,,,
297643,2022-10-05_22h32.34.083,vts_reward_expectancy,2022.2.4,MacIntel,60.04202942,Chrome,1440,900,,,,,,,,,,,,,,,,,,,,,,,,,,,,,,,,,,,,,,,,,,,,,,,,,,,,,,6,,,,,,,,,,,,,,"Choose between shapes, letters, and numbers, separatley, then together",1,,5,2,,2,1440,900
