participant,date,expName,psychopyVersion,OS,frameRate,browser,xResolution,yResolution,key_resp.keys,key_resp.rt,training_resp.keys,training_resp.rt,points_trial,points_cumul,trainBlock,training.thisRepN,training.thisTrialN,training.thisN,training.thisIndex,training.ran,LTriangleOpac,LCircleOpac,LHexagonOpac,LStarOpac,RTriangleOpac,RCircleOpac,RHexagonOpac,RStarOpac,LShape_ID,RShape_ID,curr_topStim,curr_bottStim,curr_shape,acc,E1,target_resp_prac1.keys,target_resp_prac1.rt,pracBlock,task1_prac_trials.thisRepN,task1_prac_trials.thisTrialN,task1_prac_trials.thisN,task1_prac_trials.thisIndex,task1_prac_trials.ran,target_resp_prac2.keys,target_resp_prac2.rt,task2_praac_trials.thisRepN,task2_praac_trials.thisTrialN,task2_praac_trials.thisN,task2_praac_trials.thisIndex,task2_praac_trials.ran,alt,task,condition,target_resp.keys,target_resp.rt,rewCond,vts_practice_trials.thisRepN,vts_practice_trials.thisTrialN,vts_practice_trials.thisN,vts_practice_trials.thisIndex,vts_practice_trials.ran,blockNum,trials_norew.thisRepN,trials_norew.thisTrialN,trials_norew.thisN,trials_norew.thisIndex,trials_norew.ran,key_resp_2.keys,key_resp_2.rt,rewExpect,trials_rew.thisRepN,trials_rew.thisTrialN,trials_rew.thisN,trials_rew.thisIndex,trials_rew.ran,Q1,Q2,Q2_text,Q3,Q4,Q5_text,Q5,xRes,yRes
297667,2022-10-06_19h42.00.829,vts_reward_expectancy,2022.2.4,MacIntel,120.0048002,Chrome,1510,806,,,,,,,,,,,,,,,,,,,,,,,,,,,,,,,,,,,,,,,,,,,,,,,,,,,,,,,,,,,,,,,,,,,,,,,,,,,,
297667,2022-10-06_19h42.00.829,vts_reward_expectancy,2022.2.4,MacIntel,120.0048002,Chrome,1510,806,space,16.4854,,,,,,,,,,,,,,,,,,,,,,,,,,,,,,,,,,,,,,,,,,,,,,,,,,,,,,,,,,,,,,,,,,,,,,,,,,
297667,2022-10-06_19h42.00.829,vts_reward_expectancy,2022.2.4,MacIntel,120.0048002,Chrome,1510,806,,,,,,,,,,,,,,,,,,,,,,,,,,,,,,,,,,,,,,,,,,,,,,,,,,,,,,,,,,,,,,,,,,,,,,,,,,,,
297667,2022-10-06_19h42.00.829,vts_reward_expectancy,2022.2.4,MacIntel,120.0048002,Chrome,1510,806,,,a,0.999,10,10,0,0,0,0,9,1,0,0,0,1,1,0,0,0,star,triangle,,,,,,,,,,,,,,,,,,,,,,,,,,,,,,,,,,,,,,,,,,,,,,,,,,,,,,
297667,2022-10-06_19h42.00.829,vts_reward_expectancy,2022.2.4,MacIntel,120.0048002,Chrome,1510,806,,,a,1.1117,1,11,0,0,1,1,7,1,0,0,1,0,0,1,0,0,hexagon,circle,,,,,,,,,,,,,,,,,,,,,,,,,,,,,,,,,,,,,,,,,,,,,,,,,,,,,,
297667,2022-10-06_19h42.00.829,vts_reward_expectancy,2022.2.4,MacIntel,120.0048002,Chrome,1510,806,,,l,0.9339,1,12,0,0,2,2,8,1,0,0,1,0,0,0,0,1,hexagon,star,,,,,,,,,,,,,,,,,,,,,,,,,,,,,,,,,,,,,,,,,,,,,,,,,,,,,,
297667,2022-10-06_19h42.00.829,vts_reward_expectancy,2022.2.4,MacIntel,120.0048002,Chrome,1510,806,,,l,1.2514,10,22,0,0,3,3,5,1,0,1,0,0,0,0,0,1,circle,star,,,,,,,,,,,,,,,,,,,,,,,,,,,,,,,,,,,,,,,,,,,,,,,,,,,,,,
297667,2022-10-06_19h42.00.829,vts_reward_expectancy,2022.2.4,MacIntel,120.0048002,Chrome,1510,806,,,l,1.4284,1,23,0,0,4,4,11,1,0,0,0,1,0,0,1,0,star,hexagon,,,,,,,,,,,,,,,,,,,,,,,,,,,,,,,,,,,,,,,,,,,,,,,,,,,,,,
297667,2022-10-06_19h42.00.829,vts_reward_expectancy,2022.2.4,MacIntel,120.0048002,Chrome,1510,806,,,l,1.6667,10,33,0,0,5,5,3,1,0,1,0,0,1,0,0,0,circle,triangle,,,,,,,,,,,,,,,,,,,,,,,,,,,,,,,,,,,,,,,,,,,,,,,,,,,,,,
297667,2022-10-06_19h42.00.829,vts_reward_expectancy,2022.2.4,MacIntel,120.0048002,Chrome,1510,806,,,a,1.2494,10,43,0,0,6,6,10,1,0,0,0,1,0,1,0,0,star ,circle,,,,,,,,,,,,,,,,,,,,,,,,,,,,,,,,,,,,,,,,,,,,,,,,,,,,,,
297667,2022-10-06_19h42.00.829,vts_reward_expectancy,2022.2.4,MacIntel,120.0048002,Chrome,1510,806,,,a,1.6867,10,53,0,0,7,7,4,1,0,1,0,0,0,0,1,0,circle,hexagon,,,,,,,,,,,,,,,,,,,,,,,,,,,,,,,,,,,,,,,,,,,,,,,,,,,,,,
297667,2022-10-06_19h42.00.829,vts_reward_expectancy,2022.2.4,MacIntel,120.0048002,Chrome,1510,806,,,l,0.8895,1,54,0,0,8,8,1,1,1,0,0,0,0,0,1,0,triangle,hexagon,,,,,,,,,,,,,,,,,,,,,,,,,,,,,,,,,,,,,,,,,,,,,,,,,,,,,,
297667,2022-10-06_19h42.00.829,vts_reward_expectancy,2022.2.4,MacIntel,120.0048002,Chrome,1510,806,,,l,0.9422,1,55,0,0,9,9,0,1,1,0,0,0,0,1,0,0,triangle,circle,,,,,,,,,,,,,,,,,,,,,,,,,,,,,,,,,,,,,,,,,,,,,,,,,,,,,,
297667,2022-10-06_19h42.00.829,vts_reward_expectancy,2022.2.4,MacIntel,120.0048002,Chrome,1510,806,,,l,1.0129,10,65,0,0,10,10,6,1,0,0,1,0,1,0,0,0,hexagon,triangle,,,,,,,,,,,,,,,,,,,,,,,,,,,,,,,,,,,,,,,,,,,,,,,,,,,,,,
297667,2022-10-06_19h42.00.829,vts_reward_expectancy,2022.2.4,MacIntel,120.0048002,Chrome,1510,806,,,l,0.7446,10,75,0,0,11,11,2,1,1,0,0,0,0,0,0,1,triangle,star,,,,,,,,,,,,,,,,,,,,,,,,,,,,,,,,,,,,,,,,,,,,,,,,,,,,,,
297667,2022-10-06_19h42.00.829,vts_reward_expectancy,2022.2.4,MacIntel,120.0048002,Chrome,1510,806,,,a,0.9904,1,76,0,1,0,12,1,1,1,0,0,0,0,0,1,0,triangle,hexagon,,,,,,,,,,,,,,,,,,,,,,,,,,,,,,,,,,,,,,,,,,,,,,,,,,,,,,
297667,2022-10-06_19h42.00.829,vts_reward_expectancy,2022.2.4,MacIntel,120.0048002,Chrome,1510,806,,,l,0.74,10,86,0,1,1,13,3,1,0,1,0,0,1,0,0,0,circle,triangle,,,,,,,,,,,,,,,,,,,,,,,,,,,,,,,,,,,,,,,,,,,,,,,,,,,,,,
297667,2022-10-06_19h42.00.829,vts_reward_expectancy,2022.2.4,MacIntel,120.0048002,Chrome,1510,806,,,a,0.8927,10,96,0,1,2,14,10,1,0,0,0,1,0,1,0,0,star ,circle,,,,,,,,,,,,,,,,,,,,,,,,,,,,,,,,,,,,,,,,,,,,,,,,,,,,,,
297667,2022-10-06_19h42.00.829,vts_reward_expectancy,2022.2.4,MacIntel,120.0048002,Chrome,1510,806,,,a,1.0339,10,106,0,1,3,15,7,1,0,0,1,0,0,1,0,0,hexagon,circle,,,,,,,,,,,,,,,,,,,,,,,,,,,,,,,,,,,,,,,,,,,,,,,,,,,,,,
297667,2022-10-06_19h42.00.829,vts_reward_expectancy,2022.2.4,MacIntel,120.0048002,Chrome,1510,806,,,l,1.3336,1,107,0,1,4,16,6,1,0,0,1,0,1,0,0,0,hexagon,triangle,,,,,,,,,,,,,,,,,,,,,,,,,,,,,,,,,,,,,,,,,,,,,,,,,,,,,,
297667,2022-10-06_19h42.00.829,vts_reward_expectancy,2022.2.4,MacIntel,120.0048002,Chrome,1510,806,,,l,0.6735,1,108,0,1,5,17,8,1,0,0,1,0,0,0,0,1,hexagon,star,,,,,,,,,,,,,,,,,,,,,,,,,,,,,,,,,,,,,,,,,,,,,,,,,,,,,,
297667,2022-10-06_19h42.00.829,vts_reward_expectancy,2022.2.4,MacIntel,120.0048002,Chrome,1510,806,,,l,2.2672,1,109,0,1,6,18,5,1,0,1,0,0,0,0,0,1,circle,star,,,,,,,,,,,,,,,,,,,,,,,,,,,,,,,,,,,,,,,,,,,,,,,,,,,,,,
297667,2022-10-06_19h42.00.829,vts_reward_expectancy,2022.2.4,MacIntel,120.0048002,Chrome,1510,806,,,l,0.7151,10,119,0,1,7,19,2,1,1,0,0,0,0,0,0,1,triangle,star,,,,,,,,,,,,,,,,,,,,,,,,,,,,,,,,,,,,,,,,,,,,,,,,,,,,,,
297667,2022-10-06_19h42.00.829,vts_reward_expectancy,2022.2.4,MacIntel,120.0048002,Chrome,1510,806,,,a,0.8,10,129,0,1,8,20,9,1,0,0,0,1,1,0,0,0,star,triangle,,,,,,,,,,,,,,,,,,,,,,,,,,,,,,,,,,,,,,,,,,,,,,,,,,,,,,
297667,2022-10-06_19h42.00.829,vts_reward_expectancy,2022.2.4,MacIntel,120.0048002,Chrome,1510,806,,,l,0.5412,10,139,0,1,9,21,4,1,0,1,0,0,0,0,1,0,circle,hexagon,,,,,,,,,,,,,,,,,,,,,,,,,,,,,,,,,,,,,,,,,,,,,,,,,,,,,,
297667,2022-10-06_19h42.00.829,vts_reward_expectancy,2022.2.4,MacIntel,120.0048002,Chrome,1510,806,,,a,1.0376,10,149,0,1,10,22,0,1,1,0,0,0,0,1,0,0,triangle,circle,,,,,,,,,,,,,,,,,,,,,,,,,,,,,,,,,,,,,,,,,,,,,,,,,,,,,,
297667,2022-10-06_19h42.00.829,vts_reward_expectancy,2022.2.4,MacIntel,120.0048002,Chrome,1510,806,,,a,0.6797,10,159,0,1,11,23,11,1,0,0,0,1,0,0,1,0,star,hexagon,,,,,,,,,,,,,,,,,,,,,,,,,,,,,,,,,,,,,,,,,,,,,,,,,,,,,,
297667,2022-10-06_19h42.00.829,vts_reward_expectancy,2022.2.4,MacIntel,120.0048002,Chrome,1510,806,,,l,0.8111,10,169,0,2,0,24,0,1,1,0,0,0,0,1,0,0,triangle,circle,,,,,,,,,,,,,,,,,,,,,,,,,,,,,,,,,,,,,,,,,,,,,,,,,,,,,,
297667,2022-10-06_19h42.00.829,vts_reward_expectancy,2022.2.4,MacIntel,120.0048002,Chrome,1510,806,,,l,0.6812,1,170,0,2,1,25,6,1,0,0,1,0,1,0,0,0,hexagon,triangle,,,,,,,,,,,,,,,,,,,,,,,,,,,,,,,,,,,,,,,,,,,,,,,,,,,,,,
297667,2022-10-06_19h42.00.829,vts_reward_expectancy,2022.2.4,MacIntel,120.0048002,Chrome,1510,806,,,a,0.7344,1,171,0,2,2,26,10,1,0,0,0,1,0,1,0,0,star ,circle,,,,,,,,,,,,,,,,,,,,,,,,,,,,,,,,,,,,,,,,,,,,,,,,,,,,,,
297667,2022-10-06_19h42.00.829,vts_reward_expectancy,2022.2.4,MacIntel,120.0048002,Chrome,1510,806,,,l,0.714,10,181,0,2,3,27,5,1,0,1,0,0,0,0,0,1,circle,star,,,,,,,,,,,,,,,,,,,,,,,,,,,,,,,,,,,,,,,,,,,,,,,,,,,,,,
297667,2022-10-06_19h42.00.829,vts_reward_expectancy,2022.2.4,MacIntel,120.0048002,Chrome,1510,806,,,l,2.9426,1,182,0,2,4,28,4,1,0,1,0,0,0,0,1,0,circle,hexagon,,,,,,,,,,,,,,,,,,,,,,,,,,,,,,,,,,,,,,,,,,,,,,,,,,,,,,
297667,2022-10-06_19h42.00.829,vts_reward_expectancy,2022.2.4,MacIntel,120.0048002,Chrome,1510,806,,,l,0.7995,1,183,0,2,5,29,2,1,1,0,0,0,0,0,0,1,triangle,star,,,,,,,,,,,,,,,,,,,,,,,,,,,,,,,,,,,,,,,,,,,,,,,,,,,,,,
297667,2022-10-06_19h42.00.829,vts_reward_expectancy,2022.2.4,MacIntel,120.0048002,Chrome,1510,806,,,a,0.6491,10,193,0,2,6,30,3,1,0,1,0,0,1,0,0,0,circle,triangle,,,,,,,,,,,,,,,,,,,,,,,,,,,,,,,,,,,,,,,,,,,,,,,,,,,,,,
297667,2022-10-06_19h42.00.829,vts_reward_expectancy,2022.2.4,MacIntel,120.0048002,Chrome,1510,806,,,a,2.0846,1,194,0,2,7,31,7,1,0,0,1,0,0,1,0,0,hexagon,circle,,,,,,,,,,,,,,,,,,,,,,,,,,,,,,,,,,,,,,,,,,,,,,,,,,,,,,
297667,2022-10-06_19h42.00.829,vts_reward_expectancy,2022.2.4,MacIntel,120.0048002,Chrome,1510,806,,,l,0.3948,1,195,0,2,8,32,9,1,0,0,0,1,1,0,0,0,star,triangle,,,,,,,,,,,,,,,,,,,,,,,,,,,,,,,,,,,,,,,,,,,,,,,,,,,,,,
297667,2022-10-06_19h42.00.829,vts_reward_expectancy,2022.2.4,MacIntel,120.0048002,Chrome,1510,806,,,l,0.8166,1,196,0,2,9,33,1,1,1,0,0,0,0,0,1,0,triangle,hexagon,,,,,,,,,,,,,,,,,,,,,,,,,,,,,,,,,,,,,,,,,,,,,,,,,,,,,,
297667,2022-10-06_19h42.00.829,vts_reward_expectancy,2022.2.4,MacIntel,120.0048002,Chrome,1510,806,,,l,0.7424,1,197,0,2,10,34,8,1,0,0,1,0,0,0,0,1,hexagon,star,,,,,,,,,,,,,,,,,,,,,,,,,,,,,,,,,,,,,,,,,,,,,,,,,,,,,,
297667,2022-10-06_19h42.00.829,vts_reward_expectancy,2022.2.4,MacIntel,120.0048002,Chrome,1510,806,,,l,0.941,1,198,0,2,11,35,11,1,0,0,0,1,0,0,1,0,star,hexagon,,,,,,,,,,,,,,,,,,,,,,,,,,,,,,,,,,,,,,,,,,,,,,,,,,,,,,
297667,2022-10-06_19h42.00.829,vts_reward_expectancy,2022.2.4,MacIntel,120.0048002,Chrome,1510,806,,,a,1.6165,1,199,1,0,0,0,1,1,1,0,0,0,0,0,1,0,triangle,hexagon,,,,,,,,,,,,,,,,,,,,,,,,,,,,,,,,,,,,,,,,,,,,,,,,,,,,,,
297667,2022-10-06_19h42.00.829,vts_reward_expectancy,2022.2.4,MacIntel,120.0048002,Chrome,1510,806,,,l,0.6042,1,200,1,0,1,1,5,1,0,1,0,0,0,0,0,1,circle,star,,,,,,,,,,,,,,,,,,,,,,,,,,,,,,,,,,,,,,,,,,,,,,,,,,,,,,
297667,2022-10-06_19h42.00.829,vts_reward_expectancy,2022.2.4,MacIntel,120.0048002,Chrome,1510,806,,,l,0.6077,10,210,1,0,2,2,0,1,1,0,0,0,0,1,0,0,triangle,circle,,,,,,,,,,,,,,,,,,,,,,,,,,,,,,,,,,,,,,,,,,,,,,,,,,,,,,
297667,2022-10-06_19h42.00.829,vts_reward_expectancy,2022.2.4,MacIntel,120.0048002,Chrome,1510,806,,,a,1.4662,10,220,1,0,3,3,8,1,0,0,1,0,0,0,0,1,hexagon,star,,,,,,,,,,,,,,,,,,,,,,,,,,,,,,,,,,,,,,,,,,,,,,,,,,,,,,
297667,2022-10-06_19h42.00.829,vts_reward_expectancy,2022.2.4,MacIntel,120.0048002,Chrome,1510,806,,,a,1.3107,1,221,1,0,4,4,7,1,0,0,1,0,0,1,0,0,hexagon,circle,,,,,,,,,,,,,,,,,,,,,,,,,,,,,,,,,,,,,,,,,,,,,,,,,,,,,,
297667,2022-10-06_19h42.00.829,vts_reward_expectancy,2022.2.4,MacIntel,120.0048002,Chrome,1510,806,,,a,0.4924,1,222,1,0,5,5,10,1,0,0,0,1,0,1,0,0,star ,circle,,,,,,,,,,,,,,,,,,,,,,,,,,,,,,,,,,,,,,,,,,,,,,,,,,,,,,
297667,2022-10-06_19h42.00.829,vts_reward_expectancy,2022.2.4,MacIntel,120.0048002,Chrome,1510,806,,,a,0.3732,1,223,1,0,6,6,3,1,0,1,0,0,1,0,0,0,circle,triangle,,,,,,,,,,,,,,,,,,,,,,,,,,,,,,,,,,,,,,,,,,,,,,,,,,,,,,
297667,2022-10-06_19h42.00.829,vts_reward_expectancy,2022.2.4,MacIntel,120.0048002,Chrome,1510,806,,,l,0.4451,1,224,1,0,7,7,2,1,1,0,0,0,0,0,0,1,triangle,star,,,,,,,,,,,,,,,,,,,,,,,,,,,,,,,,,,,,,,,,,,,,,,,,,,,,,,
297667,2022-10-06_19h42.00.829,vts_reward_expectancy,2022.2.4,MacIntel,120.0048002,Chrome,1510,806,,,l,0.7183,10,234,1,0,8,8,6,1,0,0,1,0,1,0,0,0,hexagon,triangle,,,,,,,,,,,,,,,,,,,,,,,,,,,,,,,,,,,,,,,,,,,,,,,,,,,,,,
297667,2022-10-06_19h42.00.829,vts_reward_expectancy,2022.2.4,MacIntel,120.0048002,Chrome,1510,806,,,a,2.0178,10,244,1,0,9,9,4,1,0,1,0,0,0,0,1,0,circle,hexagon,,,,,,,,,,,,,,,,,,,,,,,,,,,,,,,,,,,,,,,,,,,,,,,,,,,,,,
297667,2022-10-06_19h42.00.829,vts_reward_expectancy,2022.2.4,MacIntel,120.0048002,Chrome,1510,806,,,l,1.342,1,245,1,0,10,10,9,1,0,0,0,1,1,0,0,0,star,triangle,,,,,,,,,,,,,,,,,,,,,,,,,,,,,,,,,,,,,,,,,,,,,,,,,,,,,,
297667,2022-10-06_19h42.00.829,vts_reward_expectancy,2022.2.4,MacIntel,120.0048002,Chrome,1510,806,,,a,1.1219,1,246,1,0,11,11,11,1,0,0,0,1,0,0,1,0,star,hexagon,,,,,,,,,,,,,,,,,,,,,,,,,,,,,,,,,,,,,,,,,,,,,,,,,,,,,,
297667,2022-10-06_19h42.00.829,vts_reward_expectancy,2022.2.4,MacIntel,120.0048002,Chrome,1510,806,,,l,0.952,10,256,1,1,0,12,10,1,0,0,0,1,0,1,0,0,star ,circle,,,,,,,,,,,,,,,,,,,,,,,,,,,,,,,,,,,,,,,,,,,,,,,,,,,,,,
297667,2022-10-06_19h42.00.829,vts_reward_expectancy,2022.2.4,MacIntel,120.0048002,Chrome,1510,806,,,l,2.8004,1,257,1,1,1,13,1,1,1,0,0,0,0,0,1,0,triangle,hexagon,,,,,,,,,,,,,,,,,,,,,,,,,,,,,,,,,,,,,,,,,,,,,,,,,,,,,,
297667,2022-10-06_19h42.00.829,vts_reward_expectancy,2022.2.4,MacIntel,120.0048002,Chrome,1510,806,,,a,3.299,10,267,1,1,2,14,3,1,0,1,0,0,1,0,0,0,circle,triangle,,,,,,,,,,,,,,,,,,,,,,,,,,,,,,,,,,,,,,,,,,,,,,,,,,,,,,
297667,2022-10-06_19h42.00.829,vts_reward_expectancy,2022.2.4,MacIntel,120.0048002,Chrome,1510,806,,,l,2.6125,1,268,1,1,3,15,4,1,0,1,0,0,0,0,1,0,circle,hexagon,,,,,,,,,,,,,,,,,,,,,,,,,,,,,,,,,,,,,,,,,,,,,,,,,,,,,,
297667,2022-10-06_19h42.00.829,vts_reward_expectancy,2022.2.4,MacIntel,120.0048002,Chrome,1510,806,,,a,1.507,10,278,1,1,4,16,5,1,0,1,0,0,0,0,0,1,circle,star,,,,,,,,,,,,,,,,,,,,,,,,,,,,,,,,,,,,,,,,,,,,,,,,,,,,,,
297667,2022-10-06_19h42.00.829,vts_reward_expectancy,2022.2.4,MacIntel,120.0048002,Chrome,1510,806,,,l,3.302,10,288,1,1,5,17,9,1,0,0,0,1,1,0,0,0,star,triangle,,,,,,,,,,,,,,,,,,,,,,,,,,,,,,,,,,,,,,,,,,,,,,,,,,,,,,
297667,2022-10-06_19h42.00.829,vts_reward_expectancy,2022.2.4,MacIntel,120.0048002,Chrome,1510,806,,,a,6.6819,10,298,1,1,6,18,11,1,0,0,0,1,0,0,1,0,star,hexagon,,,,,,,,,,,,,,,,,,,,,,,,,,,,,,,,,,,,,,,,,,,,,,,,,,,,,,
297667,2022-10-06_19h42.00.829,vts_reward_expectancy,2022.2.4,MacIntel,120.0048002,Chrome,1510,806,,,l,1.4495,10,308,1,1,7,19,0,1,1,0,0,0,0,1,0,0,triangle,circle,,,,,,,,,,,,,,,,,,,,,,,,,,,,,,,,,,,,,,,,,,,,,,,,,,,,,,
297667,2022-10-06_19h42.00.829,vts_reward_expectancy,2022.2.4,MacIntel,120.0048002,Chrome,1510,806,,,l,2.3291,10,318,1,1,8,20,8,1,0,0,1,0,0,0,0,1,hexagon,star,,,,,,,,,,,,,,,,,,,,,,,,,,,,,,,,,,,,,,,,,,,,,,,,,,,,,,
297667,2022-10-06_19h42.00.829,vts_reward_expectancy,2022.2.4,MacIntel,120.0048002,Chrome,1510,806,,,a,6.1173,1,319,1,1,9,21,6,1,0,0,1,0,1,0,0,0,hexagon,triangle,,,,,,,,,,,,,,,,,,,,,,,,,,,,,,,,,,,,,,,,,,,,,,,,,,,,,,
297667,2022-10-06_19h42.00.829,vts_reward_expectancy,2022.2.4,MacIntel,120.0048002,Chrome,1510,806,,,l,2.127,1,320,1,1,10,22,2,1,1,0,0,0,0,0,0,1,triangle,star,,,,,,,,,,,,,,,,,,,,,,,,,,,,,,,,,,,,,,,,,,,,,,,,,,,,,,
297667,2022-10-06_19h42.00.829,vts_reward_expectancy,2022.2.4,MacIntel,120.0048002,Chrome,1510,806,,,l,1.4448,1,321,1,1,11,23,7,1,0,0,1,0,0,1,0,0,hexagon,circle,,,,,,,,,,,,,,,,,,,,,,,,,,,,,,,,,,,,,,,,,,,,,,,,,,,,,,
297667,2022-10-06_19h42.00.829,vts_reward_expectancy,2022.2.4,MacIntel,120.0048002,Chrome,1510,806,,,a,1.9661,1,322,1,2,0,24,8,1,0,0,1,0,0,0,0,1,hexagon,star,,,,,,,,,,,,,,,,,,,,,,,,,,,,,,,,,,,,,,,,,,,,,,,,,,,,,,
297667,2022-10-06_19h42.00.829,vts_reward_expectancy,2022.2.4,MacIntel,120.0048002,Chrome,1510,806,,,l,0.9293,1,323,1,2,1,25,0,1,1,0,0,0,0,1,0,0,triangle,circle,,,,,,,,,,,,,,,,,,,,,,,,,,,,,,,,,,,,,,,,,,,,,,,,,,,,,,
297667,2022-10-06_19h42.00.829,vts_reward_expectancy,2022.2.4,MacIntel,120.0048002,Chrome,1510,806,,,a,4.1206,1,324,1,2,2,26,10,1,0,0,0,1,0,1,0,0,star ,circle,,,,,,,,,,,,,,,,,,,,,,,,,,,,,,,,,,,,,,,,,,,,,,,,,,,,,,
297667,2022-10-06_19h42.00.829,vts_reward_expectancy,2022.2.4,MacIntel,120.0048002,Chrome,1510,806,,,a,1.1938,10,334,1,2,3,27,1,1,1,0,0,0,0,0,1,0,triangle,hexagon,,,,,,,,,,,,,,,,,,,,,,,,,,,,,,,,,,,,,,,,,,,,,,,,,,,,,,
297667,2022-10-06_19h42.00.829,vts_reward_expectancy,2022.2.4,MacIntel,120.0048002,Chrome,1510,806,,,a,0.8891,1,335,1,2,4,28,2,1,1,0,0,0,0,0,0,1,triangle,star,,,,,,,,,,,,,,,,,,,,,,,,,,,,,,,,,,,,,,,,,,,,,,,,,,,,,,
297667,2022-10-06_19h42.00.829,vts_reward_expectancy,2022.2.4,MacIntel,120.0048002,Chrome,1510,806,,,l,0.9093,1,336,1,2,5,29,6,1,0,0,1,0,1,0,0,0,hexagon,triangle,,,,,,,,,,,,,,,,,,,,,,,,,,,,,,,,,,,,,,,,,,,,,,,,,,,,,,
297667,2022-10-06_19h42.00.829,vts_reward_expectancy,2022.2.4,MacIntel,120.0048002,Chrome,1510,806,,,l,0.9487,10,346,1,2,6,30,11,1,0,0,0,1,0,0,1,0,star,hexagon,,,,,,,,,,,,,,,,,,,,,,,,,,,,,,,,,,,,,,,,,,,,,,,,,,,,,,
297667,2022-10-06_19h42.00.829,vts_reward_expectancy,2022.2.4,MacIntel,120.0048002,Chrome,1510,806,,,l,1.327,10,356,1,2,7,31,7,1,0,0,1,0,0,1,0,0,hexagon,circle,,,,,,,,,,,,,,,,,,,,,,,,,,,,,,,,,,,,,,,,,,,,,,,,,,,,,,
297667,2022-10-06_19h42.00.829,vts_reward_expectancy,2022.2.4,MacIntel,120.0048002,Chrome,1510,806,,,a,1.7014,10,366,1,2,8,32,3,1,0,1,0,0,1,0,0,0,circle,triangle,,,,,,,,,,,,,,,,,,,,,,,,,,,,,,,,,,,,,,,,,,,,,,,,,,,,,,
297667,2022-10-06_19h42.00.829,vts_reward_expectancy,2022.2.4,MacIntel,120.0048002,Chrome,1510,806,,,a,1.8111,1,367,1,2,9,33,9,1,0,0,0,1,1,0,0,0,star,triangle,,,,,,,,,,,,,,,,,,,,,,,,,,,,,,,,,,,,,,,,,,,,,,,,,,,,,,
297667,2022-10-06_19h42.00.829,vts_reward_expectancy,2022.2.4,MacIntel,120.0048002,Chrome,1510,806,,,l,3.4429,10,377,1,2,10,34,5,1,0,1,0,0,0,0,0,1,circle,star,,,,,,,,,,,,,,,,,,,,,,,,,,,,,,,,,,,,,,,,,,,,,,,,,,,,,,
297667,2022-10-06_19h42.00.829,vts_reward_expectancy,2022.2.4,MacIntel,120.0048002,Chrome,1510,806,,,l,3.1445,1,378,1,2,11,35,4,1,0,1,0,0,0,0,1,0,circle,hexagon,,,,,,,,,,,,,,,,,,,,,,,,,,,,,,,,,,,,,,,,,,,,,,,,,,,,,,
297667,2022-10-06_19h42.00.829,vts_reward_expectancy,2022.2.4,MacIntel,120.0048002,Chrome,1510,806,,,l,2.8942,10,388,2,0,0,0,4,1,0,1,0,0,0,0,1,0,circle,hexagon,,,,,,,,,,,,,,,,,,,,,,,,,,,,,,,,,,,,,,,,,,,,,,,,,,,,,,
297667,2022-10-06_19h42.00.829,vts_reward_expectancy,2022.2.4,MacIntel,120.0048002,Chrome,1510,806,,,a,0.969,1,389,2,0,1,1,6,1,0,0,1,0,1,0,0,0,hexagon,triangle,,,,,,,,,,,,,,,,,,,,,,,,,,,,,,,,,,,,,,,,,,,,,,,,,,,,,,
297667,2022-10-06_19h42.00.829,vts_reward_expectancy,2022.2.4,MacIntel,120.0048002,Chrome,1510,806,,,l,0.9094,1,390,2,0,2,2,11,1,0,0,0,1,0,0,1,0,star,hexagon,,,,,,,,,,,,,,,,,,,,,,,,,,,,,,,,,,,,,,,,,,,,,,,,,,,,,,
297667,2022-10-06_19h42.00.829,vts_reward_expectancy,2022.2.4,MacIntel,120.0048002,Chrome,1510,806,,,l,0.6252,10,400,2,0,3,3,5,1,0,1,0,0,0,0,0,1,circle,star,,,,,,,,,,,,,,,,,,,,,,,,,,,,,,,,,,,,,,,,,,,,,,,,,,,,,,
297667,2022-10-06_19h42.00.829,vts_reward_expectancy,2022.2.4,MacIntel,120.0048002,Chrome,1510,806,,,a,0.9546,10,410,2,0,4,4,7,1,0,0,1,0,0,1,0,0,hexagon,circle,,,,,,,,,,,,,,,,,,,,,,,,,,,,,,,,,,,,,,,,,,,,,,,,,,,,,,
297667,2022-10-06_19h42.00.829,vts_reward_expectancy,2022.2.4,MacIntel,120.0048002,Chrome,1510,806,,,l,0.8316,10,420,2,0,5,5,0,1,1,0,0,0,0,1,0,0,triangle,circle,,,,,,,,,,,,,,,,,,,,,,,,,,,,,,,,,,,,,,,,,,,,,,,,,,,,,,
297667,2022-10-06_19h42.00.829,vts_reward_expectancy,2022.2.4,MacIntel,120.0048002,Chrome,1510,806,,,a,1.6496,10,430,2,0,6,6,10,1,0,0,0,1,0,1,0,0,star ,circle,,,,,,,,,,,,,,,,,,,,,,,,,,,,,,,,,,,,,,,,,,,,,,,,,,,,,,
297667,2022-10-06_19h42.00.829,vts_reward_expectancy,2022.2.4,MacIntel,120.0048002,Chrome,1510,806,,,l,2.5548,10,440,2,0,7,7,8,1,0,0,1,0,0,0,0,1,hexagon,star,,,,,,,,,,,,,,,,,,,,,,,,,,,,,,,,,,,,,,,,,,,,,,,,,,,,,,
297667,2022-10-06_19h42.00.829,vts_reward_expectancy,2022.2.4,MacIntel,120.0048002,Chrome,1510,806,,,l,5.5998,1,441,2,0,8,8,1,1,1,0,0,0,0,0,1,0,triangle,hexagon,,,,,,,,,,,,,,,,,,,,,,,,,,,,,,,,,,,,,,,,,,,,,,,,,,,,,,
297667,2022-10-06_19h42.00.829,vts_reward_expectancy,2022.2.4,MacIntel,120.0048002,Chrome,1510,806,,,a,2.2833,10,451,2,0,9,9,9,1,0,0,0,1,1,0,0,0,star,triangle,,,,,,,,,,,,,,,,,,,,,,,,,,,,,,,,,,,,,,,,,,,,,,,,,,,,,,
297667,2022-10-06_19h42.00.829,vts_reward_expectancy,2022.2.4,MacIntel,120.0048002,Chrome,1510,806,,,a,1.1072,10,461,2,0,10,10,3,1,0,1,0,0,1,0,0,0,circle,triangle,,,,,,,,,,,,,,,,,,,,,,,,,,,,,,,,,,,,,,,,,,,,,,,,,,,,,,
297667,2022-10-06_19h42.00.829,vts_reward_expectancy,2022.2.4,MacIntel,120.0048002,Chrome,1510,806,,,l,4.21,10,471,2,0,11,11,2,1,1,0,0,0,0,0,0,1,triangle,star,,,,,,,,,,,,,,,,,,,,,,,,,,,,,,,,,,,,,,,,,,,,,,,,,,,,,,
297667,2022-10-06_19h42.00.829,vts_reward_expectancy,2022.2.4,MacIntel,120.0048002,Chrome,1510,806,,,a,1.8733,10,481,2,1,0,12,9,1,0,0,0,1,1,0,0,0,star,triangle,,,,,,,,,,,,,,,,,,,,,,,,,,,,,,,,,,,,,,,,,,,,,,,,,,,,,,
297667,2022-10-06_19h42.00.829,vts_reward_expectancy,2022.2.4,MacIntel,120.0048002,Chrome,1510,806,,,l,2.0712,1,482,2,1,1,13,1,1,1,0,0,0,0,0,1,0,triangle,hexagon,,,,,,,,,,,,,,,,,,,,,,,,,,,,,,,,,,,,,,,,,,,,,,,,,,,,,,
297667,2022-10-06_19h42.00.829,vts_reward_expectancy,2022.2.4,MacIntel,120.0048002,Chrome,1510,806,,,l,2.8909,1,483,2,1,2,14,6,1,0,0,1,0,1,0,0,0,hexagon,triangle,,,,,,,,,,,,,,,,,,,,,,,,,,,,,,,,,,,,,,,,,,,,,,,,,,,,,,
297667,2022-10-06_19h42.00.829,vts_reward_expectancy,2022.2.4,MacIntel,120.0048002,Chrome,1510,806,,,l,2.341,1,484,2,1,3,15,7,1,0,0,1,0,0,1,0,0,hexagon,circle,,,,,,,,,,,,,,,,,,,,,,,,,,,,,,,,,,,,,,,,,,,,,,,,,,,,,,
297667,2022-10-06_19h42.00.829,vts_reward_expectancy,2022.2.4,MacIntel,120.0048002,Chrome,1510,806,,,a,1.0711,1,485,2,1,4,16,8,1,0,0,1,0,0,0,0,1,hexagon,star,,,,,,,,,,,,,,,,,,,,,,,,,,,,,,,,,,,,,,,,,,,,,,,,,,,,,,
297667,2022-10-06_19h42.00.829,vts_reward_expectancy,2022.2.4,MacIntel,120.0048002,Chrome,1510,806,,,l,1.4648,10,495,2,1,5,17,4,1,0,1,0,0,0,0,1,0,circle,hexagon,,,,,,,,,,,,,,,,,,,,,,,,,,,,,,,,,,,,,,,,,,,,,,,,,,,,,,
297667,2022-10-06_19h42.00.829,vts_reward_expectancy,2022.2.4,MacIntel,120.0048002,Chrome,1510,806,,,a,1.2698,1,496,2,1,6,18,3,1,0,1,0,0,1,0,0,0,circle,triangle,,,,,,,,,,,,,,,,,,,,,,,,,,,,,,,,,,,,,,,,,,,,,,,,,,,,,,
297667,2022-10-06_19h42.00.829,vts_reward_expectancy,2022.2.4,MacIntel,120.0048002,Chrome,1510,806,,,a,2.0918,10,506,2,1,7,19,2,1,1,0,0,0,0,0,0,1,triangle,star,,,,,,,,,,,,,,,,,,,,,,,,,,,,,,,,,,,,,,,,,,,,,,,,,,,,,,
297667,2022-10-06_19h42.00.829,vts_reward_expectancy,2022.2.4,MacIntel,120.0048002,Chrome,1510,806,,,l,1.2528,1,507,2,1,8,20,5,1,0,1,0,0,0,0,0,1,circle,star,,,,,,,,,,,,,,,,,,,,,,,,,,,,,,,,,,,,,,,,,,,,,,,,,,,,,,
297667,2022-10-06_19h42.00.829,vts_reward_expectancy,2022.2.4,MacIntel,120.0048002,Chrome,1510,806,,,a,5.9317,10,517,2,1,9,21,11,1,0,0,0,1,0,0,1,0,star,hexagon,,,,,,,,,,,,,,,,,,,,,,,,,,,,,,,,,,,,,,,,,,,,,,,,,,,,,,
297667,2022-10-06_19h42.00.829,vts_reward_expectancy,2022.2.4,MacIntel,120.0048002,Chrome,1510,806,,,l,1.1125,10,527,2,1,10,22,0,1,1,0,0,0,0,1,0,0,triangle,circle,,,,,,,,,,,,,,,,,,,,,,,,,,,,,,,,,,,,,,,,,,,,,,,,,,,,,,
297667,2022-10-06_19h42.00.829,vts_reward_expectancy,2022.2.4,MacIntel,120.0048002,Chrome,1510,806,,,a,1.1353,10,537,2,1,11,23,10,1,0,0,0,1,0,1,0,0,star ,circle,,,,,,,,,,,,,,,,,,,,,,,,,,,,,,,,,,,,,,,,,,,,,,,,,,,,,,
297667,2022-10-06_19h42.00.829,vts_reward_expectancy,2022.2.4,MacIntel,120.0048002,Chrome,1510,806,,,a,2.0183,1,538,2,2,0,24,3,1,0,1,0,0,1,0,0,0,circle,triangle,,,,,,,,,,,,,,,,,,,,,,,,,,,,,,,,,,,,,,,,,,,,,,,,,,,,,,
297667,2022-10-06_19h42.00.829,vts_reward_expectancy,2022.2.4,MacIntel,120.0048002,Chrome,1510,806,,,a,1.6668,1,539,2,2,1,25,9,1,0,0,0,1,1,0,0,0,star,triangle,,,,,,,,,,,,,,,,,,,,,,,,,,,,,,,,,,,,,,,,,,,,,,,,,,,,,,
297667,2022-10-06_19h42.00.829,vts_reward_expectancy,2022.2.4,MacIntel,120.0048002,Chrome,1510,806,,,l,2.9252,10,549,2,2,2,26,6,1,0,0,1,0,1,0,0,0,hexagon,triangle,,,,,,,,,,,,,,,,,,,,,,,,,,,,,,,,,,,,,,,,,,,,,,,,,,,,,,
297667,2022-10-06_19h42.00.829,vts_reward_expectancy,2022.2.4,MacIntel,120.0048002,Chrome,1510,806,,,a,2.499,10,559,2,2,3,27,10,1,0,0,0,1,0,1,0,0,star ,circle,,,,,,,,,,,,,,,,,,,,,,,,,,,,,,,,,,,,,,,,,,,,,,,,,,,,,,
297667,2022-10-06_19h42.00.829,vts_reward_expectancy,2022.2.4,MacIntel,120.0048002,Chrome,1510,806,,,a,4.6489,10,569,2,2,4,28,7,1,0,0,1,0,0,1,0,0,hexagon,circle,,,,,,,,,,,,,,,,,,,,,,,,,,,,,,,,,,,,,,,,,,,,,,,,,,,,,,
297667,2022-10-06_19h42.00.829,vts_reward_expectancy,2022.2.4,MacIntel,120.0048002,Chrome,1510,806,,,l,1.613,1,570,2,2,5,29,4,1,0,1,0,0,0,0,1,0,circle,hexagon,,,,,,,,,,,,,,,,,,,,,,,,,,,,,,,,,,,,,,,,,,,,,,,,,,,,,,
297667,2022-10-06_19h42.00.829,vts_reward_expectancy,2022.2.4,MacIntel,120.0048002,Chrome,1510,806,,,l,0.911,10,580,2,2,6,30,5,1,0,1,0,0,0,0,0,1,circle,star,,,,,,,,,,,,,,,,,,,,,,,,,,,,,,,,,,,,,,,,,,,,,,,,,,,,,,
297667,2022-10-06_19h42.00.829,vts_reward_expectancy,2022.2.4,MacIntel,120.0048002,Chrome,1510,806,,,a,2.0726,1,581,2,2,7,31,11,1,0,0,0,1,0,0,1,0,star,hexagon,,,,,,,,,,,,,,,,,,,,,,,,,,,,,,,,,,,,,,,,,,,,,,,,,,,,,,
297667,2022-10-06_19h42.00.829,vts_reward_expectancy,2022.2.4,MacIntel,120.0048002,Chrome,1510,806,,,l,1.2692,1,582,2,2,8,32,1,1,1,0,0,0,0,0,1,0,triangle,hexagon,,,,,,,,,,,,,,,,,,,,,,,,,,,,,,,,,,,,,,,,,,,,,,,,,,,,,,
297667,2022-10-06_19h42.00.829,vts_reward_expectancy,2022.2.4,MacIntel,120.0048002,Chrome,1510,806,,,l,0.6652,1,583,2,2,9,33,8,1,0,0,1,0,0,0,0,1,hexagon,star,,,,,,,,,,,,,,,,,,,,,,,,,,,,,,,,,,,,,,,,,,,,,,,,,,,,,,
297667,2022-10-06_19h42.00.829,vts_reward_expectancy,2022.2.4,MacIntel,120.0048002,Chrome,1510,806,,,l,0.6569,10,593,2,2,10,34,0,1,1,0,0,0,0,1,0,0,triangle,circle,,,,,,,,,,,,,,,,,,,,,,,,,,,,,,,,,,,,,,,,,,,,,,,,,,,,,,
297667,2022-10-06_19h42.00.829,vts_reward_expectancy,2022.2.4,MacIntel,120.0048002,Chrome,1510,806,,,l,0.7843,1,594,2,2,11,35,2,1,1,0,0,0,0,0,0,1,triangle,star,,,,,,,,,,,,,,,,,,,,,,,,,,,,,,,,,,,,,,,,,,,,,,,,,,,,,,
297667,2022-10-06_19h42.00.829,vts_reward_expectancy,2022.2.4,MacIntel,120.0048002,Chrome,1510,806,,,,,,,,,,,,,,,,,,,,,,,B,181,triangle,1,0,d,2.3882,0,0,0,0,0,1,,,,,,,,,,,,,,,,,,,,,,,,,,,,,,,,,,,,,,,,,
297667,2022-10-06_19h42.00.829,vts_reward_expectancy,2022.2.4,MacIntel,120.0048002,Chrome,1510,806,,,,,,,,,,,,,,,,,,,,,,,H,167,hexagon,0,0,,,0,1,0,1,0,1,,,,,,,,,,,,,,,,,,,,,,,,,,,,,,,,,,,,,,,,,
297667,2022-10-06_19h42.00.829,vts_reward_expectancy,2022.2.4,MacIntel,120.0048002,Chrome,1510,806,,,,,,,,,,,,,,,,,,,,,,,U,174,circle,1,1,f,0.8439,0,2,0,2,0,1,,,,,,,,,,,,,,,,,,,,,,,,,,,,,,,,,,,,,,,,,
297667,2022-10-06_19h42.00.829,vts_reward_expectancy,2022.2.4,MacIntel,120.0048002,Chrome,1510,806,,,,,,,,,,,,,,,,,,,,,,,D,125,star,1,0,d,0.7965,0,3,0,3,0,1,,,,,,,,,,,,,,,,,,,,,,,,,,,,,,,,,,,,,,,,,
297667,2022-10-06_19h42.00.829,vts_reward_expectancy,2022.2.4,MacIntel,120.0048002,Chrome,1510,806,,,,,,,,,,,,,,,,,,,,,,,S,132,triangle,1,0,f,1.9031,0,4,0,4,0,1,,,,,,,,,,,,,,,,,,,,,,,,,,,,,,,,,,,,,,,,,
297667,2022-10-06_19h42.00.829,vts_reward_expectancy,2022.2.4,MacIntel,120.0048002,Chrome,1510,806,,,,,,,,,,,,,,,,,,,,,,,Y,139,hexagon,1,0,f,0.8706,0,5,0,5,0,1,,,,,,,,,,,,,,,,,,,,,,,,,,,,,,,,,,,,,,,,,
297667,2022-10-06_19h42.00.829,vts_reward_expectancy,2022.2.4,MacIntel,120.0048002,Chrome,1510,806,,,,,,,,,,,,,,,,,,,,,,,W,160,circle,1,0,f,0.7694,0,6,0,6,0,1,,,,,,,,,,,,,,,,,,,,,,,,,,,,,,,,,,,,,,,,,
297667,2022-10-06_19h42.00.829,vts_reward_expectancy,2022.2.4,MacIntel,120.0048002,Chrome,1510,806,,,,,,,,,,,,,,,,,,,,,,,F,146,star,1,0,d,0.8279,0,7,0,7,0,1,,,,,,,,,,,,,,,,,,,,,,,,,,,,,,,,,,,,,,,,,
297667,2022-10-06_19h42.00.829,vts_reward_expectancy,2022.2.4,MacIntel,120.0048002,Chrome,1510,806,,,,,,,,,,,,,,,,,,,,,,,B,181,hexagon,1,0,d,0.6763,0,8,0,8,0,1,,,,,,,,,,,,,,,,,,,,,,,,,,,,,,,,,,,,,,,,,
297667,2022-10-06_19h42.00.829,vts_reward_expectancy,2022.2.4,MacIntel,120.0048002,Chrome,1510,806,,,,,,,,,,,,,,,,,,,,,,,H,167,circle,1,0,d,0.9878,0,9,0,9,0,1,,,,,,,,,,,,,,,,,,,,,,,,,,,,,,,,,,,,,,,,,
297667,2022-10-06_19h42.00.829,vts_reward_expectancy,2022.2.4,MacIntel,120.0048002,Chrome,1510,806,,,,,,,,,,,,,,,,,,,,,,,U,132,hexagon,1,0,,,1,,,,,,j,1.0533,0,0,0,0,1,,,,,,,,,,,,,,,,,,,,,,,,,,,,,,,,,,
297667,2022-10-06_19h42.00.829,vts_reward_expectancy,2022.2.4,MacIntel,120.0048002,Chrome,1510,806,,,,,,,,,,,,,,,,,,,,,,,W,174,circle,1,0,,,1,,,,,,k,0.6805,1,0,1,0,1,,,,,,,,,,,,,,,,,,,,,,,,,,,,,,,,,,
297667,2022-10-06_19h42.00.829,vts_reward_expectancy,2022.2.4,MacIntel,120.0048002,Chrome,1510,806,,,,,,,,,,,,,,,,,,,,,,,B,160,triangle,1,0,,,1,,,,,,k,1.5031,2,0,2,0,1,,,,,,,,,,,,,,,,,,,,,,,,,,,,,,,,,,
297667,2022-10-06_19h42.00.829,vts_reward_expectancy,2022.2.4,MacIntel,120.0048002,Chrome,1510,806,,,,,,,,,,,,,,,,,,,,,,,H,146,star,1,0,,,1,,,,,,j,1.7727,3,0,3,0,1,,,,,,,,,,,,,,,,,,,,,,,,,,,,,,,,,,
297667,2022-10-06_19h42.00.829,vts_reward_expectancy,2022.2.4,MacIntel,120.0048002,Chrome,1510,806,,,,,,,,,,,,,,,,,,,,,,,D,181,hexagon,1,0,,,1,,,,,,k,1.2504,4,0,4,0,1,,,,,,,,,,,,,,,,,,,,,,,,,,,,,,,,,,
297667,2022-10-06_19h42.00.829,vts_reward_expectancy,2022.2.4,MacIntel,120.0048002,Chrome,1510,806,,,,,,,,,,,,,,,,,,,,,,,Y,139,circle,1,0,,,1,,,,,,j,0.9762,5,0,5,0,1,,,,,,,,,,,,,,,,,,,,,,,,,,,,,,,,,,
297667,2022-10-06_19h42.00.829,vts_reward_expectancy,2022.2.4,MacIntel,120.0048002,Chrome,1510,806,,,,,,,,,,,,,,,,,,,,,,,S,167,triangle,1,0,,,1,,,,,,k,0.8268,6,0,6,0,1,,,,,,,,,,,,,,,,,,,,,,,,,,,,,,,,,,
297667,2022-10-06_19h42.00.829,vts_reward_expectancy,2022.2.4,MacIntel,120.0048002,Chrome,1510,806,,,,,,,,,,,,,,,,,,,,,,,F,125,star,1,0,,,1,,,,,,j,0.8227,7,0,7,0,1,,,,,,,,,,,,,,,,,,,,,,,,,,,,,,,,,,
297667,2022-10-06_19h42.00.829,vts_reward_expectancy,2022.2.4,MacIntel,120.0048002,Chrome,1510,806,,,,,,,,,,,,,,,,,,,,,,,U,132,triangle,1,0,,,1,,,,,,j,1.0795,8,0,8,0,1,,,,,,,,,,,,,,,,,,,,,,,,,,,,,,,,,,
297667,2022-10-06_19h42.00.829,vts_reward_expectancy,2022.2.4,MacIntel,120.0048002,Chrome,1510,806,,,,,,,,,,,,,,,,,,,,,,,W,174,star,1,0,,,1,,,,,,k,0.831,9,0,9,0,1,,,,,,,,,,,,,,,,,,,,,,,,,,,,,,,,,,
297667,2022-10-06_19h42.00.829,vts_reward_expectancy,2022.2.4,MacIntel,120.0048002,Chrome,1510,806,,,,,0,594,,,,,,,,,,,,,,,,,F,160,circle,1,0,,,2,,,,,,,,,,,,,-1,letter,NA,d,1.2981,vtsPrac,0,0,0,0,1,,,,,,,,,,,,,,,,,,,,,,,
297667,2022-10-06_19h42.00.829,vts_reward_expectancy,2022.2.4,MacIntel,120.0048002,Chrome,1510,806,,,,,0,594,,,,,,,,,,,,,,,,,B,139,star,1,0,,,2,,,,,,,,,,,,,switch,number,numSwt,j,1.6603,vtsPrac,1,0,1,0,1,,,,,,,,,,,,,,,,,,,,,,,
297667,2022-10-06_19h42.00.829,vts_reward_expectancy,2022.2.4,MacIntel,120.0048002,Chrome,1510,806,,,,,0,594,,,,,,,,,,,,,,,,,S,181,circle,1,0,,,2,,,,,,,,,,,,,repeat,number,numRpt,k,0.7249,vtsPrac,2,0,2,0,1,,,,,,,,,,,,,,,,,,,,,,,
297667,2022-10-06_19h42.00.829,vts_reward_expectancy,2022.2.4,MacIntel,120.0048002,Chrome,1510,806,,,,,0,594,,,,,,,,,,,,,,,,,D,146,star,1,0,,,2,,,,,,,,,,,,,switch,letter,lettSwt,d,0.9519,vtsPrac,3,0,3,0,1,,,,,,,,,,,,,,,,,,,,,,,
297667,2022-10-06_19h42.00.829,vts_reward_expectancy,2022.2.4,MacIntel,120.0048002,Chrome,1510,806,,,,,0,594,,,,,,,,,,,,,,,,,F,160,triangle,1,0,,,2,,,,,,,,,,,,,repeat,letter,lettRpt,d,0.729,vtsPrac,4,0,4,0,1,,,,,,,,,,,,,,,,,,,,,,,
297667,2022-10-06_19h42.00.829,vts_reward_expectancy,2022.2.4,MacIntel,120.0048002,Chrome,1510,806,,,,,0,594,,,,,,,,,,,,,,,,,B,139,star,1,0,,,2,,,,,,,,,,,,,switch,number,numSwt,j,1.2369,vtsPrac,5,0,5,0,1,,,,,,,,,,,,,,,,,,,,,,,
297667,2022-10-06_19h42.00.829,vts_reward_expectancy,2022.2.4,MacIntel,120.0048002,Chrome,1510,806,,,,,0,594,,,,,,,,,,,,,,,,,S,181,triangle,1,0,,,2,,,,,,,,,,,,,repeat,number,numRpt,k,0.7233,vtsPrac,6,0,6,0,1,,,,,,,,,,,,,,,,,,,,,,,
297667,2022-10-06_19h42.00.829,vts_reward_expectancy,2022.2.4,MacIntel,120.0048002,Chrome,1510,806,,,,,0,594,,,,,,,,,,,,,,,,,D,146,circle,1,0,,,2,,,,,,,,,,,,,switch,letter,lettSwt,d,0.8144,vtsPrac,7,0,7,0,1,,,,,,,,,,,,,,,,,,,,,,,
297667,2022-10-06_19h42.00.829,vts_reward_expectancy,2022.2.4,MacIntel,120.0048002,Chrome,1510,806,,,,,0,594,,,,,,,,,,,,,,,,,B,160,triangle,1,0,,,2,,,,,,,,,,,,,repeat,letter,lettRpt,d,0.7466,vtsPrac,8,0,8,0,1,,,,,,,,,,,,,,,,,,,,,,,
297667,2022-10-06_19h42.00.829,vts_reward_expectancy,2022.2.4,MacIntel,120.0048002,Chrome,1510,806,,,,,0,594,,,,,,,,,,,,,,,,,W,181,hexagon,1,0,,,2,,,,,,,,,,,,,switch,number,numSwt,k,0.6862,vtsPrac,9,0,9,0,1,,,,,,,,,,,,,,,,,,,,,,,
297667,2022-10-06_19h42.00.829,vts_reward_expectancy,2022.2.4,MacIntel,120.0048002,Chrome,1510,806,,,,,0,594,,,,,,,,,,,,,,,,,H,174,circle,1,0,,,2,,,,,,,,,,,,,repeat,number,numRpt,k,0.6847,vtsPrac,10,0,10,0,1,,,,,,,,,,,,,,,,,,,,,,,
297667,2022-10-06_19h42.00.829,vts_reward_expectancy,2022.2.4,MacIntel,120.0048002,Chrome,1510,806,,,,,0,594,,,,,,,,,,,,,,,,,D,139,triangle,1,0,,,2,,,,,,,,,,,,,repeat,number,numRpt,j,0.924,vtsPrac,11,0,11,0,1,,,,,,,,,,,,,,,,,,,,,,,
297667,2022-10-06_19h42.00.829,vts_reward_expectancy,2022.2.4,MacIntel,120.0048002,Chrome,1510,806,,,,,0,594,,,,,,,,,,,,,,,,,U,125,star,1,0,,,2,,,,,,,,,,,,,repeat,number,numRpt,j,0.8101,vtsPrac,12,0,12,0,1,,,,,,,,,,,,,,,,,,,,,,,
297667,2022-10-06_19h42.00.829,vts_reward_expectancy,2022.2.4,MacIntel,120.0048002,Chrome,1510,806,,,,,0,594,,,,,,,,,,,,,,,,,B,167,circle,1,0,,,2,,,,,,,,,,,,,repeat,number,numRpt,k,1.1191,vtsPrac,13,0,13,0,1,,,,,,,,,,,,,,,,,,,,,,,
297667,2022-10-06_19h42.00.829,vts_reward_expectancy,2022.2.4,MacIntel,120.0048002,Chrome,1510,806,,,,,0,594,,,,,,,,,,,,,,,,,W,132,circle,1,0,,,2,,,,,,,,,,,,,switch,letter,lettSwt,f,0.8221,vtsPrac,14,0,14,0,1,,,,,,,,,,,,,,,,,,,,,,,
297667,2022-10-06_19h42.00.829,vts_reward_expectancy,2022.2.4,MacIntel,120.0048002,Chrome,1510,806,,,,,0,594,,,,,,,,,,,,,,,,,D,181,star,1,0,,,2,,,,,,,,,,,,,repeat,letter,lettRpt,d,0.8443,vtsPrac,15,0,15,0,1,,,,,,,,,,,,,,,,,,,,,,,
297667,2022-10-06_19h42.00.829,vts_reward_expectancy,2022.2.4,MacIntel,120.0048002,Chrome,1510,806,,,,,,,,,,,,,,,,,,,,,,,,,,,,,,,,,,,,,,,,,,,,,,,,,,,,,,,,,,,,,,,,,,,,,,,,,,,,
297667,2022-10-06_19h42.00.829,vts_reward_expectancy,2022.2.4,MacIntel,120.0048002,Chrome,1510,806,,,,,,,,,,,,,,,,,,,,,,,,,,,,,,,,,,,,,,,,,,,,,,,,,,,,,,,,,,,,,,,,,,,,,,,,,,,,
297667,2022-10-06_19h42.00.829,vts_reward_expectancy,2022.2.4,MacIntel,120.0048002,Chrome,1510,806,,,,,0,594,,,,,,,,,,,,,,,,,B,146,triangle,1,0,,,,,,,,,,,,,,,,repeat,letter,lettRpt,d,0.8876,noRew,,,,,,0,0,0,0,0,1,,,,,,,,,,,,,,,,,
297667,2022-10-06_19h42.00.829,vts_reward_expectancy,2022.2.4,MacIntel,120.0048002,Chrome,1510,806,,,,,0,594,,,,,,,,,,,,,,,,,F,139,star,1,0,,,,,,,,,,,,,,,,switch,number,numSwt,j,2.755,noRew,,,,,,0,1,0,1,0,1,,,,,,,,,,,,,,,,,
297667,2022-10-06_19h42.00.829,vts_reward_expectancy,2022.2.4,MacIntel,120.0048002,Chrome,1510,806,,,,,0,594,,,,,,,,,,,,,,,,,H,160,triangle,1,0,,,,,,,,,,,,,,,,switch,letter,lettSwt,d,1.1996,noRew,,,,,,0,2,0,2,0,1,,,,,,,,,,,,,,,,,
297667,2022-10-06_19h42.00.829,vts_reward_expectancy,2022.2.4,MacIntel,120.0048002,Chrome,1510,806,,,,,0,594,,,,,,,,,,,,,,,,,U,125,star,1,0,,,,,,,,,,,,,,,,switch,number,numSwt,j,1.0425,noRew,,,,,,0,3,0,3,0,1,,,,,,,,,,,,,,,,,
297667,2022-10-06_19h42.00.829,vts_reward_expectancy,2022.2.4,MacIntel,120.0048002,Chrome,1510,806,,,,,0,594,,,,,,,,,,,,,,,,,B,146,hexagon,1,0,,,,,,,,,,,,,,,,switch,letter,lettSwt,d,0.8211,noRew,,,,,,0,4,0,4,0,1,,,,,,,,,,,,,,,,,
297667,2022-10-06_19h42.00.829,vts_reward_expectancy,2022.2.4,MacIntel,120.0048002,Chrome,1510,806,,,,,0,594,,,,,,,,,,,,,,,,,F,139,star,1,0,,,,,,,,,,,,,,,,repeat,letter,lettRpt,d,1.3701,noRew,,,,,,0,5,0,5,0,1,,,,,,,,,,,,,,,,,
297667,2022-10-06_19h42.00.829,vts_reward_expectancy,2022.2.4,MacIntel,120.0048002,Chrome,1510,806,,,,,0,594,,,,,,,,,,,,,,,,,H,160,hexagon,1,0,,,,,,,,,,,,,,,,switch,number,numSwt,k,1.0581,noRew,,,,,,0,6,0,6,0,1,,,,,,,,,,,,,,,,,
297667,2022-10-06_19h42.00.829,vts_reward_expectancy,2022.2.4,MacIntel,120.0048002,Chrome,1510,806,,,,,0,594,,,,,,,,,,,,,,,,,U,125,circle,1,0,,,,,,,,,,,,,,,,switch,letter,lettSwt,f,1.0194,noRew,,,,,,0,7,0,7,0,1,,,,,,,,,,,,,,,,,
297667,2022-10-06_19h42.00.829,vts_reward_expectancy,2022.2.4,MacIntel,120.0048002,Chrome,1510,806,,,,,0,594,,,,,,,,,,,,,,,,,W,132,circle,1,0,,,,,,,,,,,,,,,,switch,number,numSwt,j,1.1162,noRew,,,,,,0,8,0,8,0,1,,,,,,,,,,,,,,,,,
297667,2022-10-06_19h42.00.829,vts_reward_expectancy,2022.2.4,MacIntel,120.0048002,Chrome,1510,806,,,,,0,594,,,,,,,,,,,,,,,,,F,139,triangle,1,0,,,,,,,,,,,,,,,,repeat,number,numRpt,j,0.9117,noRew,,,,,,0,9,0,9,0,1,,,,,,,,,,,,,,,,,
297667,2022-10-06_19h42.00.829,vts_reward_expectancy,2022.2.4,MacIntel,120.0048002,Chrome,1510,806,,,,,0,594,,,,,,,,,,,,,,,,,H,181,circle,1,0,,,,,,,,,,,,,,,,switch,letter,lettSwt,d,0.9722,noRew,,,,,,0,10,0,10,0,1,,,,,,,,,,,,,,,,,
297667,2022-10-06_19h42.00.829,vts_reward_expectancy,2022.2.4,MacIntel,120.0048002,Chrome,1510,806,,,,,0,594,,,,,,,,,,,,,,,,,S,167,hexagon,1,0,,,,,,,,,,,,,,,,switch,number,numSwt,k,2.1537,noRew,,,,,,0,11,0,11,0,1,,,,,,,,,,,,,,,,,
297667,2022-10-06_19h42.00.829,vts_reward_expectancy,2022.2.4,MacIntel,120.0048002,Chrome,1510,806,,,,,0,594,,,,,,,,,,,,,,,,,Y,181,circle,1,0,,,,,,,,,,,,,,,,switch,letter,lettSwt,f,0.9059,noRew,,,,,,0,12,0,12,0,1,,,,,,,,,,,,,,,,,
297667,2022-10-06_19h42.00.829,vts_reward_expectancy,2022.2.4,MacIntel,120.0048002,Chrome,1510,806,,,,,0,594,,,,,,,,,,,,,,,,,B,146,star,1,0,,,,,,,,,,,,,,,,switch,number,numSwt,j,1.2669,noRew,,,,,,0,13,0,13,0,1,,,,,,,,,,,,,,,,,
297667,2022-10-06_19h42.00.829,vts_reward_expectancy,2022.2.4,MacIntel,120.0048002,Chrome,1510,806,,,,,0,594,,,,,,,,,,,,,,,,,F,174,circle,1,0,,,,,,,,,,,,,,,,repeat,number,numRpt,k,1.0089,noRew,,,,,,0,14,0,14,0,1,,,,,,,,,,,,,,,,,
297667,2022-10-06_19h42.00.829,vts_reward_expectancy,2022.2.4,MacIntel,120.0048002,Chrome,1510,806,,,,,0,594,,,,,,,,,,,,,,,,,S,160,hexagon,1,0,,,,,,,,,,,,,,,,switch,letter,lettSwt,f,1.2106,noRew,,,,,,0,15,0,15,0,1,,,,,,,,,,,,,,,,,
297667,2022-10-06_19h42.00.829,vts_reward_expectancy,2022.2.4,MacIntel,120.0048002,Chrome,1510,806,,,,,0,594,,,,,,,,,,,,,,,,,U,132,triangle,1,0,,,,,,,,,,,,,,,,switch,number,numSwt,j,1.0669,noRew,,,,,,0,16,0,16,0,1,,,,,,,,,,,,,,,,,
297667,2022-10-06_19h42.00.829,vts_reward_expectancy,2022.2.4,MacIntel,120.0048002,Chrome,1510,806,,,,,0,594,,,,,,,,,,,,,,,,,D,174,star,1,0,,,,,,,,,,,,,,,,switch,letter,lettSwt,d,1.7424,noRew,,,,,,0,17,0,17,0,1,,,,,,,,,,,,,,,,,
297667,2022-10-06_19h42.00.829,vts_reward_expectancy,2022.2.4,MacIntel,120.0048002,Chrome,1510,806,,,,,0,594,,,,,,,,,,,,,,,,,B,160,triangle,1,0,,,,,,,,,,,,,,,,switch,number,numSwt,k,0.7037,noRew,,,,,,0,18,0,18,0,1,,,,,,,,,,,,,,,,,
297667,2022-10-06_19h42.00.829,vts_reward_expectancy,2022.2.4,MacIntel,120.0048002,Chrome,1510,806,,,,,0,594,,,,,,,,,,,,,,,,,S,146,hexagon,1,0,,,,,,,,,,,,,,,,switch,letter,lettSwt,f,2.212,noRew,,,,,,0,19,0,19,0,1,,,,,,,,,,,,,,,,,
297667,2022-10-06_19h42.00.829,vts_reward_expectancy,2022.2.4,MacIntel,120.0048002,Chrome,1510,806,,,,,0,594,,,,,,,,,,,,,,,,,H,181,triangle,1,0,,,,,,,,,,,,,,,,switch,number,numSwt,k,1.1267,noRew,,,,,,0,20,0,20,0,1,,,,,,,,,,,,,,,,,
297667,2022-10-06_19h42.00.829,vts_reward_expectancy,2022.2.4,MacIntel,120.0048002,Chrome,1510,806,,,,,0,594,,,,,,,,,,,,,,,,,W,174,star,1,0,,,,,,,,,,,,,,,,switch,letter,lettSwt,f,1.4107,noRew,,,,,,0,21,0,21,0,1,,,,,,,,,,,,,,,,,
297667,2022-10-06_19h42.00.829,vts_reward_expectancy,2022.2.4,MacIntel,120.0048002,Chrome,1510,806,,,,,0,594,,,,,,,,,,,,,,,,,U,125,circle,1,0,,,,,,,,,,,,,,,,switch,number,numSwt,j,0.9372,noRew,,,,,,0,22,0,22,0,1,,,,,,,,,,,,,,,,,
297667,2022-10-06_19h42.00.829,vts_reward_expectancy,2022.2.4,MacIntel,120.0048002,Chrome,1510,806,,,,,0,594,,,,,,,,,,,,,,,,,S,167,hexagon,1,0,,,,,,,,,,,,,,,,switch,letter,lettSwt,f,1.1307,noRew,,,,,,0,23,0,23,0,1,,,,,,,,,,,,,,,,,
297667,2022-10-06_19h42.00.829,vts_reward_expectancy,2022.2.4,MacIntel,120.0048002,Chrome,1510,806,,,,,0,594,,,,,,,,,,,,,,,,,D,160,star,1,0,,,,,,,,,,,,,,,,switch,number,numSwt,k,2.4761,noRew,,,,,,0,24,0,24,0,1,,,,,,,,,,,,,,,,,
297667,2022-10-06_19h42.00.829,vts_reward_expectancy,2022.2.4,MacIntel,120.0048002,Chrome,1510,806,,,,,0,594,,,,,,,,,,,,,,,,,U,146,circle,-1,0,,,,,,,,,,,,,,,,switch,no_choice,NA,,,noRew,,,,,,0,25,0,25,0,1,,,,,,,,,,,,,,,,,
297667,2022-10-06_19h42.00.829,vts_reward_expectancy,2022.2.4,MacIntel,120.0048002,Chrome,1510,806,,,,,0,594,,,,,,,,,,,,,,,,,F,125,triangle,1,0,,,,,,,,,,,,,,,,switch,number,numSwt,j,0.8502,noRew,,,,,,0,26,0,26,0,1,,,,,,,,,,,,,,,,,
297667,2022-10-06_19h42.00.829,vts_reward_expectancy,2022.2.4,MacIntel,120.0048002,Chrome,1510,806,,,,,0,594,,,,,,,,,,,,,,,,,S,174,star,1,0,,,,,,,,,,,,,,,,switch,letter,lettSwt,f,0.9178,noRew,,,,,,0,27,0,27,0,1,,,,,,,,,,,,,,,,,
297667,2022-10-06_19h42.00.829,vts_reward_expectancy,2022.2.4,MacIntel,120.0048002,Chrome,1510,806,,,,,0,594,,,,,,,,,,,,,,,,,B,125,star,1,0,,,,,,,,,,,,,,,,switch,number,numSwt,j,0.6926,noRew,,,,,,0,28,0,28,0,1,,,,,,,,,,,,,,,,,
297667,2022-10-06_19h42.00.829,vts_reward_expectancy,2022.2.4,MacIntel,120.0048002,Chrome,1510,806,,,,,0,594,,,,,,,,,,,,,,,,,Y,146,triangle,1,0,,,,,,,,,,,,,,,,switch,letter,lettSwt,f,0.8649,noRew,,,,,,0,29,0,29,0,1,,,,,,,,,,,,,,,,,
297667,2022-10-06_19h42.00.829,vts_reward_expectancy,2022.2.4,MacIntel,120.0048002,Chrome,1510,806,,,,,0,594,,,,,,,,,,,,,,,,,U,174,hexagon,1,0,,,,,,,,,,,,,,,,switch,number,numSwt,k,1.1184,noRew,,,,,,0,30,0,30,0,1,,,,,,,,,,,,,,,,,
297667,2022-10-06_19h42.00.829,vts_reward_expectancy,2022.2.4,MacIntel,120.0048002,Chrome,1510,806,,,,,0,594,,,,,,,,,,,,,,,,,H,132,circle,1,0,,,,,,,,,,,,,,,,repeat,number,numRpt,j,0.8707,noRew,,,,,,0,31,0,31,0,1,,,,,,,,,,,,,,,,,
297667,2022-10-06_19h42.00.829,vts_reward_expectancy,2022.2.4,MacIntel,120.0048002,Chrome,1510,806,,,,,0,594,,,,,,,,,,,,,,,,,W,146,hexagon,1,0,,,,,,,,,,,,,,,,switch,letter,lettSwt,f,0.7348,noRew,,,,,,0,32,0,32,0,1,,,,,,,,,,,,,,,,,
297667,2022-10-06_19h42.00.829,vts_reward_expectancy,2022.2.4,MacIntel,120.0048002,Chrome,1510,806,,,,,0,594,,,,,,,,,,,,,,,,,D,125,triangle,1,0,,,,,,,,,,,,,,,,switch,number,numSwt,j,0.7702,noRew,,,,,,0,33,0,33,0,1,,,,,,,,,,,,,,,,,
297667,2022-10-06_19h42.00.829,vts_reward_expectancy,2022.2.4,MacIntel,120.0048002,Chrome,1510,806,,,,,0,594,,,,,,,,,,,,,,,,,S,132,triangle,1,0,,,,,,,,,,,,,,,,switch,letter,lettSwt,f,1.0531,noRew,,,,,,0,34,0,34,0,1,,,,,,,,,,,,,,,,,
297667,2022-10-06_19h42.00.829,vts_reward_expectancy,2022.2.4,MacIntel,120.0048002,Chrome,1510,806,,,,,0,594,,,,,,,,,,,,,,,,,U,139,circle,1,0,,,,,,,,,,,,,,,,switch,number,numSwt,j,0.8454,noRew,,,,,,0,35,0,35,0,1,,,,,,,,,,,,,,,,,
297667,2022-10-06_19h42.00.829,vts_reward_expectancy,2022.2.4,MacIntel,120.0048002,Chrome,1510,806,,,,,0,594,,,,,,,,,,,,,,,,,Y,167,circle,1,0,,,,,,,,,,,,,,,,switch,letter,lettSwt,f,1.4293,noRew,,,,,,0,36,0,36,0,1,,,,,,,,,,,,,,,,,
297667,2022-10-06_19h42.00.829,vts_reward_expectancy,2022.2.4,MacIntel,120.0048002,Chrome,1510,806,,,,,0,594,,,,,,,,,,,,,,,,,B,132,hexagon,1,0,,,,,,,,,,,,,,,,switch,number,numSwt,j,0.7466,noRew,,,,,,0,37,0,37,0,1,,,,,,,,,,,,,,,,,
297667,2022-10-06_19h42.00.829,vts_reward_expectancy,2022.2.4,MacIntel,120.0048002,Chrome,1510,806,,,,,0,594,,,,,,,,,,,,,,,,,S,181,hexagon,1,0,,,,,,,,,,,,,,,,switch,letter,lettSwt,f,0.972,noRew,,,,,,0,38,0,38,0,1,,,,,,,,,,,,,,,,,
297667,2022-10-06_19h42.00.829,vts_reward_expectancy,2022.2.4,MacIntel,120.0048002,Chrome,1510,806,,,,,0,594,,,,,,,,,,,,,,,,,H,146,triangle,1,0,,,,,,,,,,,,,,,,switch,number,numSwt,j,2.0356,noRew,,,,,,0,39,0,39,0,1,,,,,,,,,,,,,,,,,
297667,2022-10-06_19h42.00.829,vts_reward_expectancy,2022.2.4,MacIntel,120.0048002,Chrome,1510,806,,,,,0,594,,,,,,,,,,,,,,,,,F,125,triangle,1,0,,,,,,,,,,,,,,,,switch,letter,lettSwt,d,0.8326,noRew,,,,,,0,40,0,40,0,1,,,,,,,,,,,,,,,,,
297667,2022-10-06_19h42.00.829,vts_reward_expectancy,2022.2.4,MacIntel,120.0048002,Chrome,1510,806,,,,,0,594,,,,,,,,,,,,,,,,,U,132,circle,1,0,,,,,,,,,,,,,,,,switch,number,numSwt,j,0.7055,noRew,,,,,,0,41,0,41,0,1,,,,,,,,,,,,,,,,,
297667,2022-10-06_19h42.00.829,vts_reward_expectancy,2022.2.4,MacIntel,120.0048002,Chrome,1510,806,,,,,0,594,,,,,,,,,,,,,,,,,D,181,star,1,0,,,,,,,,,,,,,,,,repeat,number,numRpt,k,1.6745,noRew,,,,,,0,42,0,42,0,1,,,,,,,,,,,,,,,,,
297667,2022-10-06_19h42.00.829,vts_reward_expectancy,2022.2.4,MacIntel,120.0048002,Chrome,1510,806,,,,,0,594,,,,,,,,,,,,,,,,,B,167,circle,1,0,,,,,,,,,,,,,,,,switch,letter,lettSwt,d,0.8193,noRew,,,,,,0,43,0,43,0,1,,,,,,,,,,,,,,,,,
297667,2022-10-06_19h42.00.829,vts_reward_expectancy,2022.2.4,MacIntel,120.0048002,Chrome,1510,806,,,,,0,594,,,,,,,,,,,,,,,,,S,146,circle,1,0,,,,,,,,,,,,,,,,switch,number,numSwt,j,1.7237,noRew,,,,,,0,44,0,44,0,1,,,,,,,,,,,,,,,,,
297667,2022-10-06_19h42.00.829,vts_reward_expectancy,2022.2.4,MacIntel,120.0048002,Chrome,1510,806,,,,,0,594,,,,,,,,,,,,,,,,,W,160,hexagon,1,0,,,,,,,,,,,,,,,,switch,letter,lettSwt,f,0.8117,noRew,,,,,,0,45,0,45,0,1,,,,,,,,,,,,,,,,,
297667,2022-10-06_19h42.00.829,vts_reward_expectancy,2022.2.4,MacIntel,120.0048002,Chrome,1510,806,,,,,0,594,,,,,,,,,,,,,,,,,Y,167,circle,1,0,,,,,,,,,,,,,,,,switch,number,numSwt,k,2.041,noRew,,,,,,0,46,0,46,0,1,,,,,,,,,,,,,,,,,
297667,2022-10-06_19h42.00.829,vts_reward_expectancy,2022.2.4,MacIntel,120.0048002,Chrome,1510,806,,,,,0,594,,,,,,,,,,,,,,,,,F,139,hexagon,1,0,,,,,,,,,,,,,,,,repeat,number,numRpt,j,1.2579,noRew,,,,,,0,47,0,47,0,1,,,,,,,,,,,,,,,,,
297667,2022-10-06_19h42.00.829,vts_reward_expectancy,2022.2.4,MacIntel,120.0048002,Chrome,1510,806,,,,,0,594,,,,,,,,,,,,,,,,,H,146,circle,1,0,,,,,,,,,,,,,,,,switch,letter,lettSwt,d,1.9908,noRew,,,,,,0,48,0,48,0,1,,,,,,,,,,,,,,,,,
297667,2022-10-06_19h42.00.829,vts_reward_expectancy,2022.2.4,MacIntel,120.0048002,Chrome,1510,806,,,,,0,594,,,,,,,,,,,,,,,,,D,174,hexagon,1,0,,,,,,,,,,,,,,,,switch,number,numSwt,k,1.2482,noRew,,,,,,0,49,0,49,0,1,,,,,,,,,,,,,,,,,
297667,2022-10-06_19h42.00.829,vts_reward_expectancy,2022.2.4,MacIntel,120.0048002,Chrome,1510,806,,,,,0,594,,,,,,,,,,,,,,,,,U,132,star,1,0,,,,,,,,,,,,,,,,repeat,number,numRpt,j,0.8041,noRew,,,,,,0,50,0,50,0,1,,,,,,,,,,,,,,,,,
297667,2022-10-06_19h42.00.829,vts_reward_expectancy,2022.2.4,MacIntel,120.0048002,Chrome,1510,806,,,,,0,594,,,,,,,,,,,,,,,,,W,139,circle,1,0,,,,,,,,,,,,,,,,switch,letter,lettSwt,f,1.091,noRew,,,,,,0,51,0,51,0,1,,,,,,,,,,,,,,,,,
297667,2022-10-06_19h42.00.829,vts_reward_expectancy,2022.2.4,MacIntel,120.0048002,Chrome,1510,806,,,,,0,594,,,,,,,,,,,,,,,,,H,160,hexagon,1,0,,,,,,,,,,,,,,,,repeat,letter,lettRpt,d,1.1926,noRew,,,,,,0,52,0,52,0,1,,,,,,,,,,,,,,,,,
297667,2022-10-06_19h42.00.829,vts_reward_expectancy,2022.2.4,MacIntel,120.0048002,Chrome,1510,806,,,,,0,594,,,,,,,,,,,,,,,,,F,146,circle,1,0,,,,,,,,,,,,,,,,repeat,letter,lettRpt,d,0.9685,noRew,,,,,,0,53,0,53,0,1,,,,,,,,,,,,,,,,,
297667,2022-10-06_19h42.00.829,vts_reward_expectancy,2022.2.4,MacIntel,120.0048002,Chrome,1510,806,,,,,0,594,,,,,,,,,,,,,,,,,U,174,star,1,0,,,,,,,,,,,,,,,,switch,number,numSwt,k,1.5854,noRew,,,,,,0,54,0,54,0,1,,,,,,,,,,,,,,,,,
297667,2022-10-06_19h42.00.829,vts_reward_expectancy,2022.2.4,MacIntel,120.0048002,Chrome,1510,806,,,,,0,594,,,,,,,,,,,,,,,,,W,125,circle,1,0,,,,,,,,,,,,,,,,repeat,number,numRpt,j,0.914,noRew,,,,,,0,55,0,55,0,1,,,,,,,,,,,,,,,,,
297667,2022-10-06_19h42.00.829,vts_reward_expectancy,2022.2.4,MacIntel,120.0048002,Chrome,1510,806,,,,,0,594,,,,,,,,,,,,,,,,,D,125,star,1,0,,,,,,,,,,,,,,,,repeat,number,numRpt,j,1.16,noRew,,,,,,0,56,0,56,0,1,,,,,,,,,,,,,,,,,
297667,2022-10-06_19h42.00.829,vts_reward_expectancy,2022.2.4,MacIntel,120.0048002,Chrome,1510,806,,,,,0,594,,,,,,,,,,,,,,,,,H,167,triangle,1,0,,,,,,,,,,,,,,,,switch,letter,lettSwt,d,2.5293,noRew,,,,,,0,57,0,57,0,1,,,,,,,,,,,,,,,,,
297667,2022-10-06_19h42.00.829,vts_reward_expectancy,2022.2.4,MacIntel,120.0048002,Chrome,1510,806,,,,,0,594,,,,,,,,,,,,,,,,,W,146,circle,1,0,,,,,,,,,,,,,,,,repeat,letter,lettRpt,f,1.3076,noRew,,,,,,0,58,0,58,0,1,,,,,,,,,,,,,,,,,
297667,2022-10-06_19h42.00.829,vts_reward_expectancy,2022.2.4,MacIntel,120.0048002,Chrome,1510,806,,,,,0,594,,,,,,,,,,,,,,,,,B,139,triangle,1,0,,,,,,,,,,,,,,,,switch,number,numSwt,j,0.6471,noRew,,,,,,0,59,0,59,0,1,,,,,,,,,,,,,,,,,
297667,2022-10-06_19h42.00.829,vts_reward_expectancy,2022.2.4,MacIntel,120.0048002,Chrome,1510,806,,,,,0,594,,,,,,,,,,,,,,,,,U,139,triangle,1,0,,,,,,,,,,,,,,,,repeat,number,numRpt,j,1.725,noRew,,,,,,0,60,0,60,0,1,,,,,,,,,,,,,,,,,
297667,2022-10-06_19h42.00.829,vts_reward_expectancy,2022.2.4,MacIntel,120.0048002,Chrome,1510,806,,,,,0,594,,,,,,,,,,,,,,,,,S,146,circle,1,0,,,,,,,,,,,,,,,,switch,letter,lettSwt,f,0.8652,noRew,,,,,,0,61,0,61,0,1,,,,,,,,,,,,,,,,,
297667,2022-10-06_19h42.00.829,vts_reward_expectancy,2022.2.4,MacIntel,120.0048002,Chrome,1510,806,,,,,0,594,,,,,,,,,,,,,,,,,H,160,hexagon,1,0,,,,,,,,,,,,,,,,switch,number,numSwt,k,1.5606,noRew,,,,,,0,62,0,62,0,1,,,,,,,,,,,,,,,,,
297667,2022-10-06_19h42.00.829,vts_reward_expectancy,2022.2.4,MacIntel,120.0048002,Chrome,1510,806,,,,,0,594,,,,,,,,,,,,,,,,,D,132,star,1,0,,,,,,,,,,,,,,,,switch,letter,lettSwt,d,1.4013,noRew,,,,,,0,63,0,63,0,1,,,,,,,,,,,,,,,,,
297667,2022-10-06_19h42.00.829,vts_reward_expectancy,2022.2.4,MacIntel,120.0048002,Chrome,1510,806,,,,,,,,,,,,,,,,,,,,,,,,,,,,,,,,,,,,,,,,,,,,,,,,,,,,,,,,,,,,,,,,,,,,,,,,,,,,
297667,2022-10-06_19h42.00.829,vts_reward_expectancy,2022.2.4,MacIntel,120.0048002,Chrome,1510,806,,,,,10,604,,,,,,,,,,,,,,,,,H,181,star,1,0,,,,,,,,,,,,,,,,repeat,letter,lettRpt,d,0.753,Hi,,,,,,0,,,,,,space,12.3528,low,0,0,0,0,1,,,,,,,,,
297667,2022-10-06_19h42.00.829,vts_reward_expectancy,2022.2.4,MacIntel,120.0048002,Chrome,1510,806,,,,,1,605,,,,,,,,,,,,,,,,,D,167,triangle,1,0,,,,,,,,,,,,,,,,switch,number,numSwt,k,0.7556,Lo,,,,,,0,,,,,,,,low,1,0,1,0,1,,,,,,,,,
297667,2022-10-06_19h42.00.829,vts_reward_expectancy,2022.2.4,MacIntel,120.0048002,Chrome,1510,806,,,,,1,606,,,,,,,,,,,,,,,,,Y,146,star,1,0,,,,,,,,,,,,,,,,switch,letter,lettSwt,f,0.6266,Hi,,,,,,0,,,,,,,,low,2,0,2,0,1,,,,,,,,,
297667,2022-10-06_19h42.00.829,vts_reward_expectancy,2022.2.4,MacIntel,120.0048002,Chrome,1510,806,,,,,1,607,,,,,,,,,,,,,,,,,W,139,triangle,1,0,,,,,,,,,,,,,,,,repeat,letter,lettRpt,f,0.7012,Lo,,,,,,0,,,,,,,,low,3,0,3,0,1,,,,,,,,,
297667,2022-10-06_19h42.00.829,vts_reward_expectancy,2022.2.4,MacIntel,120.0048002,Chrome,1510,806,,,,,10,617,,,,,,,,,,,,,,,,,B,160,star,1,0,,,,,,,,,,,,,,,,switch,number,numSwt,k,0.5528,Hi,,,,,,0,,,,,,,,low,4,0,4,0,1,,,,,,,,,
297667,2022-10-06_19h42.00.829,vts_reward_expectancy,2022.2.4,MacIntel,120.0048002,Chrome,1510,806,,,,,1,618,,,,,,,,,,,,,,,,,S,125,triangle,1,0,,,,,,,,,,,,,,,,repeat,number,numRpt,j,0.6658,Lo,,,,,,0,,,,,,,,low,5,0,5,0,1,,,,,,,,,
297667,2022-10-06_19h42.00.829,vts_reward_expectancy,2022.2.4,MacIntel,120.0048002,Chrome,1510,806,,,,,10,628,,,,,,,,,,,,,,,,,F,174,triangle,1,0,,,,,,,,,,,,,,,,repeat,number,numRpt,k,1.0369,Lo,,,,,,0,,,,,,,,low,6,0,6,0,1,,,,,,,,,
297667,2022-10-06_19h42.00.829,vts_reward_expectancy,2022.2.4,MacIntel,120.0048002,Chrome,1510,806,,,,,0,628,,,,,,,,,,,,,,,,,U,132,star,1,0,,,,,,,,,,,,,,,,switch,letter,lettSwt,f,0.9978,Hi,,,,,,0,,,,,,,,low,7,0,7,0,1,,,,,,,,,
297667,2022-10-06_19h42.00.829,vts_reward_expectancy,2022.2.4,MacIntel,120.0048002,Chrome,1510,806,,,,,10,638,,,,,,,,,,,,,,,,,H,181,star,1,0,,,,,,,,,,,,,,,,repeat,letter,lettRpt,d,1.0025,Hi,,,,,,0,,,,,,,,low,8,0,8,0,1,,,,,,,,,
297667,2022-10-06_19h42.00.829,vts_reward_expectancy,2022.2.4,MacIntel,120.0048002,Chrome,1510,806,,,,,10,648,,,,,,,,,,,,,,,,,D,167,triangle,1,0,,,,,,,,,,,,,,,,repeat,letter,lettRpt,d,0.6791,Lo,,,,,,0,,,,,,,,low,9,0,9,0,1,,,,,,,,,
297667,2022-10-06_19h42.00.829,vts_reward_expectancy,2022.2.4,MacIntel,120.0048002,Chrome,1510,806,,,,,0,648,,,,,,,,,,,,,,,,,Y,146,star,1,0,,,,,,,,,,,,,,,,switch,number,numSwt,j,1.4911,Hi,,,,,,0,,,,,,,,low,10,0,10,0,1,,,,,,,,,
297667,2022-10-06_19h42.00.829,vts_reward_expectancy,2022.2.4,MacIntel,120.0048002,Chrome,1510,806,,,,,1,649,,,,,,,,,,,,,,,,,W,139,triangle,1,0,,,,,,,,,,,,,,,,switch,letter,lettSwt,f,0.9613,Lo,,,,,,0,,,,,,,,low,11,0,11,0,1,,,,,,,,,
297667,2022-10-06_19h42.00.829,vts_reward_expectancy,2022.2.4,MacIntel,120.0048002,Chrome,1510,806,,,,,1,650,,,,,,,,,,,,,,,,,B,160,star,1,0,,,,,,,,,,,,,,,,switch,number,numSwt,k,0.6611,Hi,,,,,,0,,,,,,,,low,12,0,12,0,1,,,,,,,,,
297667,2022-10-06_19h42.00.829,vts_reward_expectancy,2022.2.4,MacIntel,120.0048002,Chrome,1510,806,,,,,10,660,,,,,,,,,,,,,,,,,S,125,triangle,1,0,,,,,,,,,,,,,,,,switch,letter,lettSwt,f,1.142,Lo,,,,,,0,,,,,,,,low,13,0,13,0,1,,,,,,,,,
297667,2022-10-06_19h42.00.829,vts_reward_expectancy,2022.2.4,MacIntel,120.0048002,Chrome,1510,806,,,,,1,661,,,,,,,,,,,,,,,,,F,174,triangle,1,0,,,,,,,,,,,,,,,,repeat,letter,lettRpt,d,0.7263,Lo,,,,,,0,,,,,,,,low,14,0,14,0,1,,,,,,,,,
297667,2022-10-06_19h42.00.829,vts_reward_expectancy,2022.2.4,MacIntel,120.0048002,Chrome,1510,806,,,,,1,662,,,,,,,,,,,,,,,,,U,132,star,1,0,,,,,,,,,,,,,,,,switch,number,numSwt,j,0.6462,Hi,,,,,,0,,,,,,,,low,15,0,15,0,1,,,,,,,,,
297667,2022-10-06_19h42.00.829,vts_reward_expectancy,2022.2.4,MacIntel,120.0048002,Chrome,1510,806,,,,,10,672,,,,,,,,,,,,,,,,,H,146,triangle,1,0,,,,,,,,,,,,,,,,switch,letter,lettSwt,d,0.9374,Lo,,,,,,0,,,,,,,,low,16,0,16,0,1,,,,,,,,,
297667,2022-10-06_19h42.00.829,vts_reward_expectancy,2022.2.4,MacIntel,120.0048002,Chrome,1510,806,,,,,0,672,,,,,,,,,,,,,,,,,U,160,star,1,0,,,,,,,,,,,,,,,,switch,number,numSwt,k,0.9534,Hi,,,,,,0,,,,,,,,low,17,0,17,0,1,,,,,,,,,
297667,2022-10-06_19h42.00.829,vts_reward_expectancy,2022.2.4,MacIntel,120.0048002,Chrome,1510,806,,,,,1,673,,,,,,,,,,,,,,,,,Y,181,triangle,1,0,,,,,,,,,,,,,,,,repeat,number,numRpt,k,0.8269,Lo,,,,,,0,,,,,,,,low,18,0,18,0,1,,,,,,,,,
297667,2022-10-06_19h42.00.829,vts_reward_expectancy,2022.2.4,MacIntel,120.0048002,Chrome,1510,806,,,,,1,674,,,,,,,,,,,,,,,,,F,167,star,1,0,,,,,,,,,,,,,,,,switch,letter,lettSwt,d,0.9116,Hi,,,,,,0,,,,,,,,low,19,0,19,0,1,,,,,,,,,
297667,2022-10-06_19h42.00.829,vts_reward_expectancy,2022.2.4,MacIntel,120.0048002,Chrome,1510,806,,,,,10,684,,,,,,,,,,,,,,,,,D,174,star,1,0,,,,,,,,,,,,,,,,switch,number,numSwt,k,0.5355,Hi,,,,,,0,,,,,,,,low,20,0,20,0,1,,,,,,,,,
297667,2022-10-06_19h42.00.829,vts_reward_expectancy,2022.2.4,MacIntel,120.0048002,Chrome,1510,806,,,,,1,685,,,,,,,,,,,,,,,,,S,132,triangle,1,0,,,,,,,,,,,,,,,,switch,letter,lettSwt,f,0.6071,Lo,,,,,,0,,,,,,,,low,21,0,21,0,1,,,,,,,,,
297667,2022-10-06_19h42.00.829,vts_reward_expectancy,2022.2.4,MacIntel,120.0048002,Chrome,1510,806,,,,,10,695,,,,,,,,,,,,,,,,,B,139,triangle,1,0,,,,,,,,,,,,,,,,switch,number,numSwt,j,0.9081,Lo,,,,,,0,,,,,,,,low,22,0,22,0,1,,,,,,,,,
297667,2022-10-06_19h42.00.829,vts_reward_expectancy,2022.2.4,MacIntel,120.0048002,Chrome,1510,806,,,,,10,705,,,,,,,,,,,,,,,,,W,125,star,1,0,,,,,,,,,,,,,,,,repeat,number,numRpt,j,0.7302,Hi,,,,,,0,,,,,,,,low,23,0,23,0,1,,,,,,,,,
297667,2022-10-06_19h42.00.829,vts_reward_expectancy,2022.2.4,MacIntel,120.0048002,Chrome,1510,806,,,,,10,715,,,,,,,,,,,,,,,,,Y,146,star,1,0,,,,,,,,,,,,,,,,repeat,number,numRpt,j,0.9027,Hi,,,,,,0,,,,,,,,low,24,0,24,0,1,,,,,,,,,
297667,2022-10-06_19h42.00.829,vts_reward_expectancy,2022.2.4,MacIntel,120.0048002,Chrome,1510,806,,,,,10,725,,,,,,,,,,,,,,,,,W,167,triangle,1,0,,,,,,,,,,,,,,,,repeat,number,numRpt,k,0.9074,Lo,,,,,,0,,,,,,,,low,25,0,25,0,1,,,,,,,,,
297667,2022-10-06_19h42.00.829,vts_reward_expectancy,2022.2.4,MacIntel,120.0048002,Chrome,1510,806,,,,,1,726,,,,,,,,,,,,,,,,,B,125,triangle,1,0,,,,,,,,,,,,,,,,repeat,number,numRpt,j,0.7142,Lo,,,,,,0,,,,,,,,low,26,0,26,0,1,,,,,,,,,
297667,2022-10-06_19h42.00.829,vts_reward_expectancy,2022.2.4,MacIntel,120.0048002,Chrome,1510,806,,,,,10,736,,,,,,,,,,,,,,,,,S,181,star,1,0,,,,,,,,,,,,,,,,switch,letter,lettSwt,f,0.8149,Hi,,,,,,0,,,,,,,,low,27,0,27,0,1,,,,,,,,,
297667,2022-10-06_19h42.00.829,vts_reward_expectancy,2022.2.4,MacIntel,120.0048002,Chrome,1510,806,,,,,10,746,,,,,,,,,,,,,,,,,H,139,star,1,0,,,,,,,,,,,,,,,,repeat,letter,lettRpt,d,0.8694,Hi,,,,,,0,,,,,,,,low,28,0,28,0,1,,,,,,,,,
297667,2022-10-06_19h42.00.829,vts_reward_expectancy,2022.2.4,MacIntel,120.0048002,Chrome,1510,806,,,,,1,747,,,,,,,,,,,,,,,,,U,160,triangle,1,0,,,,,,,,,,,,,,,,repeat,letter,lettRpt,f,0.8208,Lo,,,,,,0,,,,,,,,low,29,0,29,0,1,,,,,,,,,
297667,2022-10-06_19h42.00.829,vts_reward_expectancy,2022.2.4,MacIntel,120.0048002,Chrome,1510,806,,,,,10,757,,,,,,,,,,,,,,,,,F,174,triangle,1,0,,,,,,,,,,,,,,,,switch,number,numSwt,k,0.8544,Lo,,,,,,0,,,,,,,,low,30,0,30,0,1,,,,,,,,,
297667,2022-10-06_19h42.00.829,vts_reward_expectancy,2022.2.4,MacIntel,120.0048002,Chrome,1510,806,,,,,0,757,,,,,,,,,,,,,,,,,D,132,star,1,0,,,,,,,,,,,,,,,,repeat,number,numRpt,j,1.6187,Hi,,,,,,0,,,,,,,,low,31,0,31,0,1,,,,,,,,,
297667,2022-10-06_19h42.00.829,vts_reward_expectancy,2022.2.4,MacIntel,120.0048002,Chrome,1510,806,,,,,10,767,,,,,,,,,,,,,,,,,U,181,star,1,0,,,,,,,,,,,,,,,,switch,letter,lettSwt,f,0.7193,Hi,,,,,,1,,,,,,space,1.6209,low,0,0,0,0,1,,,,,,,,,
297667,2022-10-06_19h42.00.829,vts_reward_expectancy,2022.2.4,MacIntel,120.0048002,Chrome,1510,806,,,,,1,768,,,,,,,,,,,,,,,,,F,167,triangle,1,0,,,,,,,,,,,,,,,,repeat,letter,lettRpt,d,0.8024,Lo,,,,,,1,,,,,,,,low,1,0,1,0,1,,,,,,,,,
297667,2022-10-06_19h42.00.829,vts_reward_expectancy,2022.2.4,MacIntel,120.0048002,Chrome,1510,806,,,,,0,768,,,,,,,,,,,,,,,,,H,132,star,1,0,,,,,,,,,,,,,,,,repeat,letter,lettRpt,d,1.2371,Hi,,,,,,1,,,,,,,,low,2,0,2,0,1,,,,,,,,,
297667,2022-10-06_19h42.00.829,vts_reward_expectancy,2022.2.4,MacIntel,120.0048002,Chrome,1510,806,,,,,10,778,,,,,,,,,,,,,,,,,D,160,triangle,1,0,,,,,,,,,,,,,,,,switch,number,numSwt,k,0.5446,Lo,,,,,,1,,,,,,,,low,3,0,3,0,1,,,,,,,,,
297667,2022-10-06_19h42.00.829,vts_reward_expectancy,2022.2.4,MacIntel,120.0048002,Chrome,1510,806,,,,,10,788,,,,,,,,,,,,,,,,,B,146,triangle,1,0,,,,,,,,,,,,,,,,switch,letter,lettSwt,d,0.4919,Lo,,,,,,1,,,,,,,,low,4,0,4,0,1,,,,,,,,,
297667,2022-10-06_19h42.00.829,vts_reward_expectancy,2022.2.4,MacIntel,120.0048002,Chrome,1510,806,,,,,0,788,,,,,,,,,,,,,,,,,S,125,star,1,0,,,,,,,,,,,,,,,,switch,number,numSwt,j,0.7007,Hi,,,,,,1,,,,,,,,low,5,0,5,0,1,,,,,,,,,
297667,2022-10-06_19h42.00.829,vts_reward_expectancy,2022.2.4,MacIntel,120.0048002,Chrome,1510,806,,,,,10,798,,,,,,,,,,,,,,,,,W,139,star,1,0,,,,,,,,,,,,,,,,repeat,number,numRpt,j,0.6367,Hi,,,,,,1,,,,,,,,low,6,0,6,0,1,,,,,,,,,
297667,2022-10-06_19h42.00.829,vts_reward_expectancy,2022.2.4,MacIntel,120.0048002,Chrome,1510,806,,,,,1,799,,,,,,,,,,,,,,,,,Y,174,triangle,1,0,,,,,,,,,,,,,,,,switch,letter,lettSwt,f,0.6677,Lo,,,,,,1,,,,,,,,low,7,0,7,0,1,,,,,,,,,
297667,2022-10-06_19h42.00.829,vts_reward_expectancy,2022.2.4,MacIntel,120.0048002,Chrome,1510,806,,,,,1,800,,,,,,,,,,,,,,,,,U,181,triangle,1,0,,,,,,,,,,,,,,,,switch,number,numSwt,k,0.7123,Lo,,,,,,1,,,,,,,,low,8,0,8,0,1,,,,,,,,,
297667,2022-10-06_19h42.00.829,vts_reward_expectancy,2022.2.4,MacIntel,120.0048002,Chrome,1510,806,,,,,10,810,,,,,,,,,,,,,,,,,F,167,star,1,0,,,,,,,,,,,,,,,,repeat,number,numRpt,k,0.7291,Hi,,,,,,1,,,,,,,,low,9,0,9,0,1,,,,,,,,,
297667,2022-10-06_19h42.00.829,vts_reward_expectancy,2022.2.4,MacIntel,120.0048002,Chrome,1510,806,,,,,1,811,,,,,,,,,,,,,,,,,H,132,triangle,1,0,,,,,,,,,,,,,,,,repeat,number,numRpt,j,1.1743,Lo,,,,,,1,,,,,,,,low,10,0,10,0,1,,,,,,,,,
297667,2022-10-06_19h42.00.829,vts_reward_expectancy,2022.2.4,MacIntel,120.0048002,Chrome,1510,806,,,,,0,811,,,,,,,,,,,,,,,,,D,160,star,1,0,,,,,,,,,,,,,,,,switch,letter,lettSwt,d,1.1206,Hi,,,,,,1,,,,,,,,low,11,0,11,0,1,,,,,,,,,
297667,2022-10-06_19h42.00.829,vts_reward_expectancy,2022.2.4,MacIntel,120.0048002,Chrome,1510,806,,,,,0,811,,,,,,,,,,,,,,,,,B,146,star,1,0,,,,,,,,,,,,,,,,repeat,letter,lettRpt,d,0.789,Hi,,,,,,1,,,,,,,,low,12,0,12,0,1,,,,,,,,,
297667,2022-10-06_19h42.00.829,vts_reward_expectancy,2022.2.4,MacIntel,120.0048002,Chrome,1510,806,,,,,10,821,,,,,,,,,,,,,,,,,S,125,triangle,1,0,,,,,,,,,,,,,,,,repeat,letter,lettRpt,f,0.5666,Lo,,,,,,1,,,,,,,,low,13,0,13,0,1,,,,,,,,,
297667,2022-10-06_19h42.00.829,vts_reward_expectancy,2022.2.4,MacIntel,120.0048002,Chrome,1510,806,,,,,1,822,,,,,,,,,,,,,,,,,W,139,star,1,0,,,,,,,,,,,,,,,,switch,number,numSwt,j,0.5753,Hi,,,,,,1,,,,,,,,low,14,0,14,0,1,,,,,,,,,
297667,2022-10-06_19h42.00.829,vts_reward_expectancy,2022.2.4,MacIntel,120.0048002,Chrome,1510,806,,,,,10,832,,,,,,,,,,,,,,,,,Y,174,triangle,1,0,,,,,,,,,,,,,,,,switch,letter,lettSwt,f,0.9703,Lo,,,,,,1,,,,,,,,low,15,0,15,0,1,,,,,,,,,
297667,2022-10-06_19h42.00.829,vts_reward_expectancy,2022.2.4,MacIntel,120.0048002,Chrome,1510,806,,,,,10,842,,,,,,,,,,,,,,,,,U,181,triangle,1,0,,,,,,,,,,,,,,,,switch,number,numSwt,k,0.6104,Lo,,,,,,1,,,,,,,,low,16,0,16,0,1,,,,,,,,,
297667,2022-10-06_19h42.00.829,vts_reward_expectancy,2022.2.4,MacIntel,120.0048002,Chrome,1510,806,,,,,1,843,,,,,,,,,,,,,,,,,S,132,star,1,0,,,,,,,,,,,,,,,,switch,letter,lettSwt,f,0.7237,Hi,,,,,,1,,,,,,,,low,17,0,17,0,1,,,,,,,,,
297667,2022-10-06_19h42.00.829,vts_reward_expectancy,2022.2.4,MacIntel,120.0048002,Chrome,1510,806,,,,,0,843,,,,,,,,,,,,,,,,,H,174,star,1,0,,,,,,,,,,,,,,,,switch,number,numSwt,k,0.7197,Hi,,,,,,1,,,,,,,,low,18,0,18,0,1,,,,,,,,,
297667,2022-10-06_19h42.00.829,vts_reward_expectancy,2022.2.4,MacIntel,120.0048002,Chrome,1510,806,,,,,10,853,,,,,,,,,,,,,,,,,F,146,triangle,1,0,,,,,,,,,,,,,,,,repeat,number,numRpt,j,1.0937,Lo,,,,,,1,,,,,,,,low,19,0,19,0,1,,,,,,,,,
297667,2022-10-06_19h42.00.829,vts_reward_expectancy,2022.2.4,MacIntel,120.0048002,Chrome,1510,806,,,,,1,854,,,,,,,,,,,,,,,,,W,125,triangle,1,0,,,,,,,,,,,,,,,,switch,letter,lettSwt,f,0.6999,Lo,,,,,,1,,,,,,,,low,20,0,20,0,1,,,,,,,,,
297667,2022-10-06_19h42.00.829,vts_reward_expectancy,2022.2.4,MacIntel,120.0048002,Chrome,1510,806,,,,,10,864,,,,,,,,,,,,,,,,,Y,139,star,1,0,,,,,,,,,,,,,,,,repeat,letter,lettRpt,f,0.5411,Hi,,,,,,1,,,,,,,,low,21,0,21,0,1,,,,,,,,,
297667,2022-10-06_19h42.00.829,vts_reward_expectancy,2022.2.4,MacIntel,120.0048002,Chrome,1510,806,,,,,1,865,,,,,,,,,,,,,,,,,D,160,star,1,0,,,,,,,,,,,,,,,,repeat,letter,lettRpt,d,0.6028,Hi,,,,,,1,,,,,,,,low,22,0,22,0,1,,,,,,,,,
297667,2022-10-06_19h42.00.829,vts_reward_expectancy,2022.2.4,MacIntel,120.0048002,Chrome,1510,806,,,,,10,875,,,,,,,,,,,,,,,,,B,167,triangle,1,0,,,,,,,,,,,,,,,,switch,number,numSwt,k,0.6411,Lo,,,,,,1,,,,,,,,low,23,0,23,0,1,,,,,,,,,
297667,2022-10-06_19h42.00.829,vts_reward_expectancy,2022.2.4,MacIntel,120.0048002,Chrome,1510,806,,,,,10,885,,,,,,,,,,,,,,,,,U,132,star,1,0,,,,,,,,,,,,,,,,repeat,number,numRpt,j,0.6617,Hi,,,,,,1,,,,,,,,low,24,0,24,0,1,,,,,,,,,
297667,2022-10-06_19h42.00.829,vts_reward_expectancy,2022.2.4,MacIntel,120.0048002,Chrome,1510,806,,,,,1,886,,,,,,,,,,,,,,,,,S,181,triangle,1,0,,,,,,,,,,,,,,,,repeat,number,numRpt,k,1.1671,Lo,,,,,,1,,,,,,,,low,25,0,25,0,1,,,,,,,,,
297667,2022-10-06_19h42.00.829,vts_reward_expectancy,2022.2.4,MacIntel,120.0048002,Chrome,1510,806,,,,,10,896,,,,,,,,,,,,,,,,,D,160,star,1,0,,,,,,,,,,,,,,,,switch,letter,lettSwt,d,0.6653,Hi,,,,,,1,,,,,,,,low,26,0,26,0,1,,,,,,,,,
297667,2022-10-06_19h42.00.829,vts_reward_expectancy,2022.2.4,MacIntel,120.0048002,Chrome,1510,806,,,,,0,896,,,,,,,,,,,,,,,,,W,139,triangle,0,0,,,,,,,,,,,,,,,,switch,number,NA,k,1.2689,Hi,,,,,,1,,,,,,,,low,27,0,27,0,1,,,,,,,,,
297667,2022-10-06_19h42.00.829,vts_reward_expectancy,2022.2.4,MacIntel,120.0048002,Chrome,1510,806,,,,,0,896,,,,,,,,,,,,,,,,,Y,174,star,1,1,,,,,,,,,,,,,,,,switch,letter,lettSwt,f,0.9115,Hi,,,,,,1,,,,,,,,low,28,0,28,0,1,,,,,,,,,
297667,2022-10-06_19h42.00.829,vts_reward_expectancy,2022.2.4,MacIntel,120.0048002,Chrome,1510,806,,,,,1,897,,,,,,,,,,,,,,,,,H,125,triangle,1,0,,,,,,,,,,,,,,,,switch,number,numSwt,j,1.3126,Lo,,,,,,1,,,,,,,,low,29,0,29,0,1,,,,,,,,,
297667,2022-10-06_19h42.00.829,vts_reward_expectancy,2022.2.4,MacIntel,120.0048002,Chrome,1510,806,,,,,0,897,,,,,,,,,,,,,,,,,B,167,star,1,0,,,,,,,,,,,,,,,,switch,letter,lettSwt,d,1.1968,Hi,,,,,,1,,,,,,,,low,30,0,30,0,1,,,,,,,,,
297667,2022-10-06_19h42.00.829,vts_reward_expectancy,2022.2.4,MacIntel,120.0048002,Chrome,1510,806,,,,,1,898,,,,,,,,,,,,,,,,,F,146,triangle,1,0,,,,,,,,,,,,,,,,repeat,letter,lettRpt,d,0.8168,Lo,,,,,,1,,,,,,,,low,31,0,31,0,1,,,,,,,,,
297667,2022-10-06_19h42.00.829,vts_reward_expectancy,2022.2.4,MacIntel,120.0048002,Chrome,1510,806,,,,,1,899,,,,,,,,,,,,,,,,,D,167,hexagon,1,0,,,,,,,,,,,,,,,,repeat,letter,lettRpt,d,0.5274,Lo,,,,,,2,,,,,,space,0.8632,high,0,0,0,0,1,,,,,,,,,
297667,2022-10-06_19h42.00.829,vts_reward_expectancy,2022.2.4,MacIntel,120.0048002,Chrome,1510,806,,,,,1,900,,,,,,,,,,,,,,,,,H,132,circle,1,0,,,,,,,,,,,,,,,,switch,number,numSwt,j,0.5289,Hi,,,,,,2,,,,,,,,high,1,0,1,0,1,,,,,,,,,
297667,2022-10-06_19h42.00.829,vts_reward_expectancy,2022.2.4,MacIntel,120.0048002,Chrome,1510,806,,,,,1,901,,,,,,,,,,,,,,,,,W,125,hexagon,1,0,,,,,,,,,,,,,,,,repeat,number,numRpt,j,0.8377,Lo,,,,,,2,,,,,,,,high,2,0,2,0,1,,,,,,,,,
297667,2022-10-06_19h42.00.829,vts_reward_expectancy,2022.2.4,MacIntel,120.0048002,Chrome,1510,806,,,,,10,911,,,,,,,,,,,,,,,,,U,181,circle,1,0,,,,,,,,,,,,,,,,switch,letter,lettSwt,f,0.6854,Hi,,,,,,2,,,,,,,,high,3,0,3,0,1,,,,,,,,,
297667,2022-10-06_19h42.00.829,vts_reward_expectancy,2022.2.4,MacIntel,120.0048002,Chrome,1510,806,,,,,1,912,,,,,,,,,,,,,,,,,F,160,hexagon,1,0,,,,,,,,,,,,,,,,switch,number,numSwt,k,1.8178,Lo,,,,,,2,,,,,,,,high,4,0,4,0,1,,,,,,,,,
297667,2022-10-06_19h42.00.829,vts_reward_expectancy,2022.2.4,MacIntel,120.0048002,Chrome,1510,806,,,,,0,912,,,,,,,,,,,,,,,,,Y,146,circle,1,0,,,,,,,,,,,,,,,,repeat,number,numRpt,j,1.2222,Hi,,,,,,2,,,,,,,,high,5,0,5,0,1,,,,,,,,,
297667,2022-10-06_19h42.00.829,vts_reward_expectancy,2022.2.4,MacIntel,120.0048002,Chrome,1510,806,,,,,1,913,,,,,,,,,,,,,,,,,B,174,hexagon,1,0,,,,,,,,,,,,,,,,repeat,number,numRpt,k,0.6866,Lo,,,,,,2,,,,,,,,high,6,0,6,0,1,,,,,,,,,
297667,2022-10-06_19h42.00.829,vts_reward_expectancy,2022.2.4,MacIntel,120.0048002,Chrome,1510,806,,,,,10,923,,,,,,,,,,,,,,,,,S,139,circle,1,0,,,,,,,,,,,,,,,,switch,letter,lettSwt,f,0.5856,Hi,,,,,,2,,,,,,,,high,7,0,7,0,1,,,,,,,,,
297667,2022-10-06_19h42.00.829,vts_reward_expectancy,2022.2.4,MacIntel,120.0048002,Chrome,1510,806,,,,,1,924,,,,,,,,,,,,,,,,,D,167,hexagon,1,0,,,,,,,,,,,,,,,,repeat,letter,lettRpt,d,1.22,Lo,,,,,,2,,,,,,,,high,8,0,8,0,1,,,,,,,,,
297667,2022-10-06_19h42.00.829,vts_reward_expectancy,2022.2.4,MacIntel,120.0048002,Chrome,1510,806,,,,,0,924,,,,,,,,,,,,,,,,,H,132,circle,0,0,,,,,,,,,,,,,,,,repeat,letter,NA,f,1.4087,Lo,,,,,,2,,,,,,,,high,9,0,9,0,1,,,,,,,,,
297667,2022-10-06_19h42.00.829,vts_reward_expectancy,2022.2.4,MacIntel,120.0048002,Chrome,1510,806,,,,,0,924,,,,,,,,,,,,,,,,,W,125,circle,1,1,,,,,,,,,,,,,,,,repeat,letter,lettRpt,f,0.7217,Hi,,,,,,2,,,,,,,,high,10,0,10,0,1,,,,,,,,,
297667,2022-10-06_19h42.00.829,vts_reward_expectancy,2022.2.4,MacIntel,120.0048002,Chrome,1510,806,,,,,10,934,,,,,,,,,,,,,,,,,U,181,hexagon,1,0,,,,,,,,,,,,,,,,switch,number,numSwt,k,0.6983,Lo,,,,,,2,,,,,,,,high,11,0,11,0,1,,,,,,,,,
297667,2022-10-06_19h42.00.829,vts_reward_expectancy,2022.2.4,MacIntel,120.0048002,Chrome,1510,806,,,,,10,944,,,,,,,,,,,,,,,,,F,160,circle,1,0,,,,,,,,,,,,,,,,repeat,number,numRpt,k,0.5631,Hi,,,,,,2,,,,,,,,high,12,0,12,0,1,,,,,,,,,
297667,2022-10-06_19h42.00.829,vts_reward_expectancy,2022.2.4,MacIntel,120.0048002,Chrome,1510,806,,,,,1,945,,,,,,,,,,,,,,,,,Y,146,hexagon,1,0,,,,,,,,,,,,,,,,repeat,number,numRpt,j,0.7518,Lo,,,,,,2,,,,,,,,high,13,0,13,0,1,,,,,,,,,
297667,2022-10-06_19h42.00.829,vts_reward_expectancy,2022.2.4,MacIntel,120.0048002,Chrome,1510,806,,,,,10,955,,,,,,,,,,,,,,,,,B,174,hexagon,1,0,,,,,,,,,,,,,,,,switch,letter,lettSwt,d,0.6661,Lo,,,,,,2,,,,,,,,high,14,0,14,0,1,,,,,,,,,
297667,2022-10-06_19h42.00.829,vts_reward_expectancy,2022.2.4,MacIntel,120.0048002,Chrome,1510,806,,,,,0,955,,,,,,,,,,,,,,,,,S,139,circle,1,0,,,,,,,,,,,,,,,,switch,number,numSwt,j,0.735,Hi,,,,,,2,,,,,,,,high,15,0,15,0,1,,,,,,,,,
297667,2022-10-06_19h42.00.829,vts_reward_expectancy,2022.2.4,MacIntel,120.0048002,Chrome,1510,806,,,,,0,955,,,,,,,,,,,,,,,,,U,167,circle,0,0,,,,,,,,,,,,,,,,switch,letter,NA,d,1.2711,Hi,,,,,,2,,,,,,,,high,16,0,16,0,1,,,,,,,,,
297667,2022-10-06_19h42.00.829,vts_reward_expectancy,2022.2.4,MacIntel,120.0048002,Chrome,1510,806,,,,,1,956,,,,,,,,,,,,,,,,,H,174,hexagon,1,1,,,,,,,,,,,,,,,,switch,number,numSwt,k,1.0302,Lo,,,,,,2,,,,,,,,high,17,0,17,0,1,,,,,,,,,
297667,2022-10-06_19h42.00.829,vts_reward_expectancy,2022.2.4,MacIntel,120.0048002,Chrome,1510,806,,,,,0,956,,,,,,,,,,,,,,,,,S,125,circle,1,0,,,,,,,,,,,,,,,,switch,letter,lettSwt,f,1.0368,Hi,,,,,,2,,,,,,,,high,18,0,18,0,1,,,,,,,,,
297667,2022-10-06_19h42.00.829,vts_reward_expectancy,2022.2.4,MacIntel,120.0048002,Chrome,1510,806,,,,,10,966,,,,,,,,,,,,,,,,,B,181,hexagon,1,0,,,,,,,,,,,,,,,,switch,number,numSwt,k,1.0738,Lo,,,,,,2,,,,,,,,high,19,0,19,0,1,,,,,,,,,
297667,2022-10-06_19h42.00.829,vts_reward_expectancy,2022.2.4,MacIntel,120.0048002,Chrome,1510,806,,,,,10,976,,,,,,,,,,,,,,,,,D,132,circle,1,0,,,,,,,,,,,,,,,,switch,letter,lettSwt,d,0.6703,Hi,,,,,,2,,,,,,,,high,20,0,20,0,1,,,,,,,,,
297667,2022-10-06_19h42.00.829,vts_reward_expectancy,2022.2.4,MacIntel,120.0048002,Chrome,1510,806,,,,,1,977,,,,,,,,,,,,,,,,,F,146,hexagon,1,0,,,,,,,,,,,,,,,,repeat,letter,lettRpt,d,0.7626,Lo,,,,,,2,,,,,,,,high,21,0,21,0,1,,,,,,,,,
297667,2022-10-06_19h42.00.829,vts_reward_expectancy,2022.2.4,MacIntel,120.0048002,Chrome,1510,806,,,,,10,987,,,,,,,,,,,,,,,,,Y,139,hexagon,1,0,,,,,,,,,,,,,,,,switch,number,numSwt,j,0.7827,Lo,,,,,,2,,,,,,,,high,22,0,22,0,1,,,,,,,,,
297667,2022-10-06_19h42.00.829,vts_reward_expectancy,2022.2.4,MacIntel,120.0048002,Chrome,1510,806,,,,,1,988,,,,,,,,,,,,,,,,,W,160,circle,1,0,,,,,,,,,,,,,,,,switch,letter,lettSwt,f,0.6946,Hi,,,,,,2,,,,,,,,high,23,0,23,0,1,,,,,,,,,
297667,2022-10-06_19h42.00.829,vts_reward_expectancy,2022.2.4,MacIntel,120.0048002,Chrome,1510,806,,,,,0,988,,,,,,,,,,,,,,,,,H,125,circle,1,0,,,,,,,,,,,,,,,,switch,number,numSwt,j,0.9031,Hi,,,,,,2,,,,,,,,high,24,0,24,0,1,,,,,,,,,
297667,2022-10-06_19h42.00.829,vts_reward_expectancy,2022.2.4,MacIntel,120.0048002,Chrome,1510,806,,,,,1,989,,,,,,,,,,,,,,,,,Y,132,hexagon,1,0,,,,,,,,,,,,,,,,switch,letter,lettSwt,f,0.8319,Lo,,,,,,2,,,,,,,,high,25,0,25,0,1,,,,,,,,,
297667,2022-10-06_19h42.00.829,vts_reward_expectancy,2022.2.4,MacIntel,120.0048002,Chrome,1510,806,,,,,0,989,,,,,,,,,,,,,,,,,F,146,circle,1,0,,,,,,,,,,,,,,,,switch,number,numSwt,j,0.6549,Hi,,,,,,2,,,,,,,,high,26,0,26,0,1,,,,,,,,,
297667,2022-10-06_19h42.00.829,vts_reward_expectancy,2022.2.4,MacIntel,120.0048002,Chrome,1510,806,,,,,1,990,,,,,,,,,,,,,,,,,B,139,hexagon,1,0,,,,,,,,,,,,,,,,repeat,number,numRpt,j,0.7161,Lo,,,,,,2,,,,,,,,high,27,0,27,0,1,,,,,,,,,
297667,2022-10-06_19h42.00.829,vts_reward_expectancy,2022.2.4,MacIntel,120.0048002,Chrome,1510,806,,,,,1,991,,,,,,,,,,,,,,,,,S,160,hexagon,1,0,,,,,,,,,,,,,,,,switch,letter,lettSwt,f,0.7935,Lo,,,,,,2,,,,,,,,high,28,0,28,0,1,,,,,,,,,
297667,2022-10-06_19h42.00.829,vts_reward_expectancy,2022.2.4,MacIntel,120.0048002,Chrome,1510,806,,,,,1,992,,,,,,,,,,,,,,,,,D,181,circle,1,0,,,,,,,,,,,,,,,,repeat,letter,lettRpt,d,0.5594,Hi,,,,,,2,,,,,,,,high,29,0,29,0,1,,,,,,,,,
297667,2022-10-06_19h42.00.829,vts_reward_expectancy,2022.2.4,MacIntel,120.0048002,Chrome,1510,806,,,,,1,993,,,,,,,,,,,,,,,,,W,167,hexagon,1,0,,,,,,,,,,,,,,,,switch,number,numSwt,k,0.6354,Lo,,,,,,2,,,,,,,,high,30,0,30,0,1,,,,,,,,,
297667,2022-10-06_19h42.00.829,vts_reward_expectancy,2022.2.4,MacIntel,120.0048002,Chrome,1510,806,,,,,0,993,,,,,,,,,,,,,,,,,U,174,circle,1,0,,,,,,,,,,,,,,,,switch,letter,lettSwt,f,1.401,Hi,,,,,,2,,,,,,,,high,31,0,31,0,1,,,,,,,,,
297667,2022-10-06_19h42.00.829,vts_reward_expectancy,2022.2.4,MacIntel,120.0048002,Chrome,1510,806,,,,,0,993,,,,,,,,,,,,,,,,,U,132,circle,1,0,,,,,,,,,,,,,,,,repeat,letter,lettRpt,f,0.6551,Hi,,,,,,3,,,,,,space,1.0045,high,0,0,0,0,1,,,,,,,,,
297667,2022-10-06_19h42.00.829,vts_reward_expectancy,2022.2.4,MacIntel,120.0048002,Chrome,1510,806,,,,,10,1003,,,,,,,,,,,,,,,,,Y,146,hexagon,1,0,,,,,,,,,,,,,,,,repeat,letter,lettRpt,f,0.8699,Lo,,,,,,3,,,,,,,,high,1,0,1,0,1,,,,,,,,,
297667,2022-10-06_19h42.00.829,vts_reward_expectancy,2022.2.4,MacIntel,120.0048002,Chrome,1510,806,,,,,0,1003,,,,,,,,,,,,,,,,,H,167,circle,1,0,,,,,,,,,,,,,,,,switch,number,numSwt,k,0.8171,Hi,,,,,,3,,,,,,,,high,2,0,2,0,1,,,,,,,,,
297667,2022-10-06_19h42.00.829,vts_reward_expectancy,2022.2.4,MacIntel,120.0048002,Chrome,1510,806,,,,,1,1004,,,,,,,,,,,,,,,,,W,181,hexagon,1,0,,,,,,,,,,,,,,,,repeat,number,numRpt,k,0.6472,Lo,,,,,,3,,,,,,,,high,3,0,3,0,1,,,,,,,,,
297667,2022-10-06_19h42.00.829,vts_reward_expectancy,2022.2.4,MacIntel,120.0048002,Chrome,1510,806,,,,,1,1005,,,,,,,,,,,,,,,,,F,160,hexagon,1,0,,,,,,,,,,,,,,,,switch,letter,lettSwt,d,0.6948,Lo,,,,,,3,,,,,,,,high,4,0,4,0,1,,,,,,,,,
297667,2022-10-06_19h42.00.829,vts_reward_expectancy,2022.2.4,MacIntel,120.0048002,Chrome,1510,806,,,,,0,1005,,,,,,,,,,,,,,,,,B,125,circle,1,0,,,,,,,,,,,,,,,,switch,number,numSwt,j,1.1638,Hi,,,,,,3,,,,,,,,high,5,0,5,0,1,,,,,,,,,
297667,2022-10-06_19h42.00.829,vts_reward_expectancy,2022.2.4,MacIntel,120.0048002,Chrome,1510,806,,,,,1,1006,,,,,,,,,,,,,,,,,S,139,hexagon,1,0,,,,,,,,,,,,,,,,repeat,number,numRpt,j,0.8774,Lo,,,,,,3,,,,,,,,high,6,0,6,0,1,,,,,,,,,
297667,2022-10-06_19h42.00.829,vts_reward_expectancy,2022.2.4,MacIntel,120.0048002,Chrome,1510,806,,,,,0,1006,,,,,,,,,,,,,,,,,D,174,circle,1,0,,,,,,,,,,,,,,,,switch,letter,lettSwt,d,1.0729,Hi,,,,,,3,,,,,,,,high,7,0,7,0,1,,,,,,,,,
297667,2022-10-06_19h42.00.829,vts_reward_expectancy,2022.2.4,MacIntel,120.0048002,Chrome,1510,806,,,,,0,1006,,,,,,,,,,,,,,,,,U,132,circle,1,0,,,,,,,,,,,,,,,,repeat,letter,lettRpt,f,0.6455,Hi,,,,,,3,,,,,,,,high,8,0,8,0,1,,,,,,,,,
297667,2022-10-06_19h42.00.829,vts_reward_expectancy,2022.2.4,MacIntel,120.0048002,Chrome,1510,806,,,,,10,1016,,,,,,,,,,,,,,,,,Y,146,hexagon,1,0,,,,,,,,,,,,,,,,switch,number,numSwt,j,0.6354,Lo,,,,,,3,,,,,,,,high,9,0,9,0,1,,,,,,,,,
297667,2022-10-06_19h42.00.829,vts_reward_expectancy,2022.2.4,MacIntel,120.0048002,Chrome,1510,806,,,,,0,1016,,,,,,,,,,,,,,,,,H,167,circle,1,0,,,,,,,,,,,,,,,,repeat,number,numRpt,k,0.8669,Hi,,,,,,3,,,,,,,,high,10,0,10,0,1,,,,,,,,,
297667,2022-10-06_19h42.00.829,vts_reward_expectancy,2022.2.4,MacIntel,120.0048002,Chrome,1510,806,,,,,1,1017,,,,,,,,,,,,,,,,,W,181,hexagon,1,0,,,,,,,,,,,,,,,,switch,letter,lettSwt,f,0.9366,Lo,,,,,,3,,,,,,,,high,11,0,11,0,1,,,,,,,,,
297667,2022-10-06_19h42.00.829,vts_reward_expectancy,2022.2.4,MacIntel,120.0048002,Chrome,1510,806,,,,,0,1017,,,,,,,,,,,,,,,,,F,160,circle,1,0,,,,,,,,,,,,,,,,switch,number,numSwt,k,0.7246,Hi,,,,,,3,,,,,,,,high,12,0,12,0,1,,,,,,,,,
297667,2022-10-06_19h42.00.829,vts_reward_expectancy,2022.2.4,MacIntel,120.0048002,Chrome,1510,806,,,,,10,1027,,,,,,,,,,,,,,,,,B,125,hexagon,1,0,,,,,,,,,,,,,,,,repeat,number,numRpt,j,0.5186,Lo,,,,,,3,,,,,,,,high,13,0,13,0,1,,,,,,,,,
297667,2022-10-06_19h42.00.829,vts_reward_expectancy,2022.2.4,MacIntel,120.0048002,Chrome,1510,806,,,,,10,1037,,,,,,,,,,,,,,,,,S,139,circle,1,0,,,,,,,,,,,,,,,,switch,letter,lettSwt,f,0.6292,Hi,,,,,,3,,,,,,,,high,14,0,14,0,1,,,,,,,,,
297667,2022-10-06_19h42.00.829,vts_reward_expectancy,2022.2.4,MacIntel,120.0048002,Chrome,1510,806,,,,,10,1047,,,,,,,,,,,,,,,,,D,174,hexagon,1,0,,,,,,,,,,,,,,,,switch,number,numSwt,k,0.9281,Lo,,,,,,3,,,,,,,,high,15,0,15,0,1,,,,,,,,,
297667,2022-10-06_19h42.00.829,vts_reward_expectancy,2022.2.4,MacIntel,120.0048002,Chrome,1510,806,,,,,0,1047,,,,,,,,,,,,,,,,,D,132,circle,1,0,,,,,,,,,,,,,,,,switch,letter,lettSwt,d,0.7455,Hi,,,,,,3,,,,,,,,high,16,0,16,0,1,,,,,,,,,
297667,2022-10-06_19h42.00.829,vts_reward_expectancy,2022.2.4,MacIntel,120.0048002,Chrome,1510,806,,,,,1,1048,,,,,,,,,,,,,,,,,U,146,hexagon,1,0,,,,,,,,,,,,,,,,repeat,letter,lettRpt,f,0.6108,Lo,,,,,,3,,,,,,,,high,17,0,17,0,1,,,,,,,,,
297667,2022-10-06_19h42.00.829,vts_reward_expectancy,2022.2.4,MacIntel,120.0048002,Chrome,1510,806,,,,,1,1049,,,,,,,,,,,,,,,,,F,125,hexagon,1,0,,,,,,,,,,,,,,,,switch,number,numSwt,j,0.5861,Lo,,,,,,3,,,,,,,,high,18,0,18,0,1,,,,,,,,,
297667,2022-10-06_19h42.00.829,vts_reward_expectancy,2022.2.4,MacIntel,120.0048002,Chrome,1510,806,,,,,0,1049,,,,,,,,,,,,,,,,,Y,139,circle,1,0,,,,,,,,,,,,,,,,repeat,number,numRpt,j,0.8088,Hi,,,,,,3,,,,,,,,high,19,0,19,0,1,,,,,,,,,
297667,2022-10-06_19h42.00.829,vts_reward_expectancy,2022.2.4,MacIntel,120.0048002,Chrome,1510,806,,,,,0,1049,,,,,,,,,,,,,,,,,B,160,circle,1,0,,,,,,,,,,,,,,,,repeat,number,numRpt,k,0.8861,Hi,,,,,,3,,,,,,,,high,20,0,20,0,1,,,,,,,,,
297667,2022-10-06_19h42.00.829,vts_reward_expectancy,2022.2.4,MacIntel,120.0048002,Chrome,1510,806,,,,,10,1059,,,,,,,,,,,,,,,,,H,167,hexagon,1,0,,,,,,,,,,,,,,,,repeat,number,numRpt,k,0.6484,Lo,,,,,,3,,,,,,,,high,21,0,21,0,1,,,,,,,,,
297667,2022-10-06_19h42.00.829,vts_reward_expectancy,2022.2.4,MacIntel,120.0048002,Chrome,1510,806,,,,,10,1069,,,,,,,,,,,,,,,,,S,174,circle,1,0,,,,,,,,,,,,,,,,switch,letter,lettSwt,f,0.6096,Hi,,,,,,3,,,,,,,,high,22,0,22,0,1,,,,,,,,,
297667,2022-10-06_19h42.00.829,vts_reward_expectancy,2022.2.4,MacIntel,120.0048002,Chrome,1510,806,,,,,1,1070,,,,,,,,,,,,,,,,,W,181,hexagon,1,0,,,,,,,,,,,,,,,,switch,number,numSwt,k,0.7084,Lo,,,,,,3,,,,,,,,high,23,0,23,0,1,,,,,,,,,
297667,2022-10-06_19h42.00.829,vts_reward_expectancy,2022.2.4,MacIntel,120.0048002,Chrome,1510,806,,,,,0,1070,,,,,,,,,,,,,,,,,B,174,circle,1,0,,,,,,,,,,,,,,,,repeat,number,numRpt,k,0.7563,Hi,,,,,,3,,,,,,,,high,24,0,24,0,1,,,,,,,,,
297667,2022-10-06_19h42.00.829,vts_reward_expectancy,2022.2.4,MacIntel,120.0048002,Chrome,1510,806,,,,,1,1071,,,,,,,,,,,,,,,,,Y,160,hexagon,1,0,,,,,,,,,,,,,,,,repeat,number,numRpt,k,0.6907,Lo,,,,,,3,,,,,,,,high,25,0,25,0,1,,,,,,,,,
297667,2022-10-06_19h42.00.829,vts_reward_expectancy,2022.2.4,MacIntel,120.0048002,Chrome,1510,806,,,,,0,1071,,,,,,,,,,,,,,,,,F,139,circle,1,0,,,,,,,,,,,,,,,,switch,letter,lettSwt,d,0.9204,Hi,,,,,,3,,,,,,,,high,26,0,26,0,1,,,,,,,,,
297667,2022-10-06_19h42.00.829,vts_reward_expectancy,2022.2.4,MacIntel,120.0048002,Chrome,1510,806,,,,,1,1072,,,,,,,,,,,,,,,,,H,181,hexagon,1,0,,,,,,,,,,,,,,,,switch,number,numSwt,k,0.5627,Lo,,,,,,3,,,,,,,,high,27,0,27,0,1,,,,,,,,,
297667,2022-10-06_19h42.00.829,vts_reward_expectancy,2022.2.4,MacIntel,120.0048002,Chrome,1510,806,,,,,10,1082,,,,,,,,,,,,,,,,,U,125,circle,1,0,,,,,,,,,,,,,,,,switch,letter,lettSwt,f,0.5089,Hi,,,,,,3,,,,,,,,high,28,0,28,0,1,,,,,,,,,
297667,2022-10-06_19h42.00.829,vts_reward_expectancy,2022.2.4,MacIntel,120.0048002,Chrome,1510,806,,,,,0,1082,,,,,,,,,,,,,,,,,S,146,hexagon,0,0,,,,,,,,,,,,,,,,switch,number,NA,k,0.7053,Hi,,,,,,3,,,,,,,,high,29,0,29,0,1,,,,,,,,,
297667,2022-10-06_19h42.00.829,vts_reward_expectancy,2022.2.4,MacIntel,120.0048002,Chrome,1510,806,,,,,0,1082,,,,,,,,,,,,,,,,,W,132,circle,1,1,,,,,,,,,,,,,,,,repeat,number,numRpt,j,0.9524,Hi,,,,,,3,,,,,,,,high,30,0,30,0,1,,,,,,,,,
297667,2022-10-06_19h42.00.829,vts_reward_expectancy,2022.2.4,MacIntel,120.0048002,Chrome,1510,806,,,,,1,1083,,,,,,,,,,,,,,,,,D,167,hexagon,1,0,,,,,,,,,,,,,,,,repeat,number,numRpt,k,0.585,Lo,,,,,,3,,,,,,,,high,31,0,31,0,1,,,,,,,,,
297667,2022-10-06_19h42.00.829,vts_reward_expectancy,2022.2.4,MacIntel,120.0048002,Chrome,1510,806,,,,,1,1084,,,,,,,,,,,,,,,,,F,146,hexagon,1,0,,,,,,,,,,,,,,,,switch,letter,lettSwt,d,0.7881,Lo,,,,,,4,,,,,,space,0.7802,high,0,0,0,0,1,,,,,,,,,
297667,2022-10-06_19h42.00.829,vts_reward_expectancy,2022.2.4,MacIntel,120.0048002,Chrome,1510,806,,,,,10,1094,,,,,,,,,,,,,,,,,B,132,circle,1,0,,,,,,,,,,,,,,,,switch,number,numSwt,j,0.6198,Hi,,,,,,4,,,,,,,,high,1,0,1,0,1,,,,,,,,,
297667,2022-10-06_19h42.00.829,vts_reward_expectancy,2022.2.4,MacIntel,120.0048002,Chrome,1510,806,,,,,1,1095,,,,,,,,,,,,,,,,,W,125,hexagon,1,0,,,,,,,,,,,,,,,,repeat,number,numRpt,j,0.5602,Lo,,,,,,4,,,,,,,,high,2,0,2,0,1,,,,,,,,,
297667,2022-10-06_19h42.00.829,vts_reward_expectancy,2022.2.4,MacIntel,120.0048002,Chrome,1510,806,,,,,0,1095,,,,,,,,,,,,,,,,,S,160,circle,1,0,,,,,,,,,,,,,,,,switch,letter,lettSwt,f,0.9252,Hi,,,,,,4,,,,,,,,high,3,0,3,0,1,,,,,,,,,
297667,2022-10-06_19h42.00.829,vts_reward_expectancy,2022.2.4,MacIntel,120.0048002,Chrome,1510,806,,,,,0,1095,,,,,,,,,,,,,,,,,U,174,circle,1,0,,,,,,,,,,,,,,,,repeat,letter,lettRpt,f,0.6778,Hi,,,,,,4,,,,,,,,high,4,0,4,0,1,,,,,,,,,
297667,2022-10-06_19h42.00.829,vts_reward_expectancy,2022.2.4,MacIntel,120.0048002,Chrome,1510,806,,,,,1,1096,,,,,,,,,,,,,,,,,H,167,hexagon,1,0,,,,,,,,,,,,,,,,switch,number,numSwt,k,0.8445,Lo,,,,,,4,,,,,,,,high,5,0,5,0,1,,,,,,,,,
297667,2022-10-06_19h42.00.829,vts_reward_expectancy,2022.2.4,MacIntel,120.0048002,Chrome,1510,806,,,,,10,1106,,,,,,,,,,,,,,,,,Y,181,circle,1,0,,,,,,,,,,,,,,,,switch,letter,lettSwt,f,0.5445,Hi,,,,,,4,,,,,,,,high,6,0,6,0,1,,,,,,,,,
297667,2022-10-06_19h42.00.829,vts_reward_expectancy,2022.2.4,MacIntel,120.0048002,Chrome,1510,806,,,,,1,1107,,,,,,,,,,,,,,,,,D,139,hexagon,1,0,,,,,,,,,,,,,,,,repeat,letter,lettRpt,d,0.5223,Lo,,,,,,4,,,,,,,,high,7,0,7,0,1,,,,,,,,,
297667,2022-10-06_19h42.00.829,vts_reward_expectancy,2022.2.4,MacIntel,120.0048002,Chrome,1510,806,,,,,1,1108,,,,,,,,,,,,,,,,,F,146,hexagon,1,0,,,,,,,,,,,,,,,,switch,number,numSwt,j,0.6364,Lo,,,,,,4,,,,,,,,high,8,0,8,0,1,,,,,,,,,
297667,2022-10-06_19h42.00.829,vts_reward_expectancy,2022.2.4,MacIntel,120.0048002,Chrome,1510,806,,,,,10,1118,,,,,,,,,,,,,,,,,B,132,circle,1,0,,,,,,,,,,,,,,,,repeat,number,numRpt,j,0.576,Hi,,,,,,4,,,,,,,,high,9,0,9,0,1,,,,,,,,,
297667,2022-10-06_19h42.00.829,vts_reward_expectancy,2022.2.4,MacIntel,120.0048002,Chrome,1510,806,,,,,1,1119,,,,,,,,,,,,,,,,,W,125,hexagon,1,0,,,,,,,,,,,,,,,,repeat,number,numRpt,j,0.5104,Lo,,,,,,4,,,,,,,,high,10,0,10,0,1,,,,,,,,,
297667,2022-10-06_19h42.00.829,vts_reward_expectancy,2022.2.4,MacIntel,120.0048002,Chrome,1510,806,,,,,0,1119,,,,,,,,,,,,,,,,,S,160,circle,1,0,,,,,,,,,,,,,,,,repeat,number,numRpt,k,0.7585,Hi,,,,,,4,,,,,,,,high,11,0,11,0,1,,,,,,,,,
297667,2022-10-06_19h42.00.829,vts_reward_expectancy,2022.2.4,MacIntel,120.0048002,Chrome,1510,806,,,,,0,1119,,,,,,,,,,,,,,,,,U,174,circle,1,0,,,,,,,,,,,,,,,,repeat,number,numRpt,k,0.6739,Hi,,,,,,4,,,,,,,,high,12,0,12,0,1,,,,,,,,,
297667,2022-10-06_19h42.00.829,vts_reward_expectancy,2022.2.4,MacIntel,120.0048002,Chrome,1510,806,,,,,1,1120,,,,,,,,,,,,,,,,,H,167,hexagon,1,0,,,,,,,,,,,,,,,,repeat,number,numRpt,k,0.8247,Lo,,,,,,4,,,,,,,,high,13,0,13,0,1,,,,,,,,,
297667,2022-10-06_19h42.00.829,vts_reward_expectancy,2022.2.4,MacIntel,120.0048002,Chrome,1510,806,,,,,1,1121,,,,,,,,,,,,,,,,,Y,181,hexagon,1,0,,,,,,,,,,,,,,,,switch,letter,lettSwt,f,0.7975,Lo,,,,,,4,,,,,,,,high,14,0,14,0,1,,,,,,,,,
297667,2022-10-06_19h42.00.829,vts_reward_expectancy,2022.2.4,MacIntel,120.0048002,Chrome,1510,806,,,,,0,1121,,,,,,,,,,,,,,,,,D,139,circle,1,0,,,,,,,,,,,,,,,,repeat,letter,lettRpt,d,0.6795,Hi,,,,,,4,,,,,,,,high,15,0,15,0,1,,,,,,,,,
297667,2022-10-06_19h42.00.829,vts_reward_expectancy,2022.2.4,MacIntel,120.0048002,Chrome,1510,806,,,,,1,1122,,,,,,,,,,,,,,,,,Y,139,hexagon,1,0,,,,,,,,,,,,,,,,repeat,letter,lettRpt,f,0.7592,Lo,,,,,,4,,,,,,,,high,16,0,16,0,1,,,,,,,,,
297667,2022-10-06_19h42.00.829,vts_reward_expectancy,2022.2.4,MacIntel,120.0048002,Chrome,1510,806,,,,,10,1132,,,,,,,,,,,,,,,,,H,125,circle,1,0,,,,,,,,,,,,,,,,repeat,letter,lettRpt,d,0.6051,Hi,,,,,,4,,,,,,,,high,17,0,17,0,1,,,,,,,,,
297667,2022-10-06_19h42.00.829,vts_reward_expectancy,2022.2.4,MacIntel,120.0048002,Chrome,1510,806,,,,,1,1133,,,,,,,,,,,,,,,,,W,174,hexagon,1,0,,,,,,,,,,,,,,,,switch,number,numSwt,k,1.2164,Lo,,,,,,4,,,,,,,,high,18,0,18,0,1,,,,,,,,,
297667,2022-10-06_19h42.00.829,vts_reward_expectancy,2022.2.4,MacIntel,120.0048002,Chrome,1510,806,,,,,1,1134,,,,,,,,,,,,,,,,,S,132,circle,1,0,,,,,,,,,,,,,,,,repeat,number,numRpt,j,0.6217,Hi,,,,,,4,,,,,,,,high,19,0,19,0,1,,,,,,,,,
297667,2022-10-06_19h42.00.829,vts_reward_expectancy,2022.2.4,MacIntel,120.0048002,Chrome,1510,806,,,,,10,1144,,,,,,,,,,,,,,,,,D,160,hexagon,1,0,,,,,,,,,,,,,,,,repeat,number,numRpt,k,0.5393,Lo,,,,,,4,,,,,,,,high,20,0,20,0,1,,,,,,,,,
297667,2022-10-06_19h42.00.829,vts_reward_expectancy,2022.2.4,MacIntel,120.0048002,Chrome,1510,806,,,,,0,1144,,,,,,,,,,,,,,,,,U,146,circle,1,0,,,,,,,,,,,,,,,,repeat,number,numRpt,j,0.7229,Hi,,,,,,4,,,,,,,,high,21,0,21,0,1,,,,,,,,,
297667,2022-10-06_19h42.00.829,vts_reward_expectancy,2022.2.4,MacIntel,120.0048002,Chrome,1510,806,,,,,0,1144,,,,,,,,,,,,,,,,,F,181,circle,1,0,,,,,,,,,,,,,,,,repeat,number,numRpt,k,0.6921,Hi,,,,,,4,,,,,,,,high,22,0,22,0,1,,,,,,,,,
297667,2022-10-06_19h42.00.829,vts_reward_expectancy,2022.2.4,MacIntel,120.0048002,Chrome,1510,806,,,,,1,1145,,,,,,,,,,,,,,,,,B,167,hexagon,1,0,,,,,,,,,,,,,,,,repeat,number,numRpt,k,0.715,Lo,,,,,,4,,,,,,,,high,23,0,23,0,1,,,,,,,,,
297667,2022-10-06_19h42.00.829,vts_reward_expectancy,2022.2.4,MacIntel,120.0048002,Chrome,1510,806,,,,,1,1146,,,,,,,,,,,,,,,,,H,174,hexagon,1,0,,,,,,,,,,,,,,,,repeat,number,numRpt,k,0.6539,Lo,,,,,,4,,,,,,,,high,24,0,24,0,1,,,,,,,,,
297667,2022-10-06_19h42.00.829,vts_reward_expectancy,2022.2.4,MacIntel,120.0048002,Chrome,1510,806,,,,,10,1156,,,,,,,,,,,,,,,,,B,146,circle,1,0,,,,,,,,,,,,,,,,repeat,number,numRpt,j,0.6531,Hi,,,,,,4,,,,,,,,high,25,0,25,0,1,,,,,,,,,
297667,2022-10-06_19h42.00.829,vts_reward_expectancy,2022.2.4,MacIntel,120.0048002,Chrome,1510,806,,,,,0,1156,,,,,,,,,,,,,,,,,S,139,circle,1,0,,,,,,,,,,,,,,,,switch,letter,lettSwt,f,0.7774,Hi,,,,,,4,,,,,,,,high,26,0,26,0,1,,,,,,,,,
297667,2022-10-06_19h42.00.829,vts_reward_expectancy,2022.2.4,MacIntel,120.0048002,Chrome,1510,806,,,,,1,1157,,,,,,,,,,,,,,,,,U,181,hexagon,1,0,,,,,,,,,,,,,,,,switch,number,numSwt,k,1.0089,Lo,,,,,,4,,,,,,,,high,27,0,27,0,1,,,,,,,,,
297667,2022-10-06_19h42.00.829,vts_reward_expectancy,2022.2.4,MacIntel,120.0048002,Chrome,1510,806,,,,,10,1167,,,,,,,,,,,,,,,,,F,160,hexagon,1,0,,,,,,,,,,,,,,,,repeat,number,numRpt,k,0.6321,Lo,,,,,,4,,,,,,,,high,28,0,28,0,1,,,,,,,,,
297667,2022-10-06_19h42.00.829,vts_reward_expectancy,2022.2.4,MacIntel,120.0048002,Chrome,1510,806,,,,,10,1177,,,,,,,,,,,,,,,,,D,167,circle,1,0,,,,,,,,,,,,,,,,repeat,number,numRpt,k,0.5516,Hi,,,,,,4,,,,,,,,high,29,0,29,0,1,,,,,,,,,
297667,2022-10-06_19h42.00.829,vts_reward_expectancy,2022.2.4,MacIntel,120.0048002,Chrome,1510,806,,,,,1,1178,,,,,,,,,,,,,,,,,Y,132,circle,1,0,,,,,,,,,,,,,,,,repeat,number,numRpt,j,0.5923,Hi,,,,,,4,,,,,,,,high,30,0,30,0,1,,,,,,,,,
297667,2022-10-06_19h42.00.829,vts_reward_expectancy,2022.2.4,MacIntel,120.0048002,Chrome,1510,806,,,,,10,1188,,,,,,,,,,,,,,,,,W,125,hexagon,1,0,,,,,,,,,,,,,,,,switch,letter,lettSwt,f,0.8286,Lo,,,,,,4,,,,,,,,high,31,0,31,0,1,,,,,,,,,
297667,2022-10-06_19h42.00.829,vts_reward_expectancy,2022.2.4,MacIntel,120.0048002,Chrome,1510,806,,,,,0,1188,,,,,,,,,,,,,,,,,D,139,star,1,0,,,,,,,,,,,,,,,,repeat,letter,lettRpt,d,0.7151,Hi,,,,,,5,,,,,,space,0.6376,low,0,0,0,0,1,,,,,,,,,
297667,2022-10-06_19h42.00.829,vts_reward_expectancy,2022.2.4,MacIntel,120.0048002,Chrome,1510,806,,,,,1,1189,,,,,,,,,,,,,,,,,Y,146,triangle,1,0,,,,,,,,,,,,,,,,switch,number,numSwt,j,0.7,Lo,,,,,,5,,,,,,,,low,1,0,1,0,1,,,,,,,,,
297667,2022-10-06_19h42.00.829,vts_reward_expectancy,2022.2.4,MacIntel,120.0048002,Chrome,1510,806,,,,,1,1190,,,,,,,,,,,,,,,,,B,125,star,1,0,,,,,,,,,,,,,,,,switch,letter,lettSwt,d,0.6871,Hi,,,,,,5,,,,,,,,low,2,0,2,0,1,,,,,,,,,
297667,2022-10-06_19h42.00.829,vts_reward_expectancy,2022.2.4,MacIntel,120.0048002,Chrome,1510,806,,,,,1,1191,,,,,,,,,,,,,,,,,S,167,triangle,1,0,,,,,,,,,,,,,,,,switch,number,numSwt,k,0.8345,Lo,,,,,,5,,,,,,,,low,3,0,3,0,1,,,,,,,,,
297667,2022-10-06_19h42.00.829,vts_reward_expectancy,2022.2.4,MacIntel,120.0048002,Chrome,1510,806,,,,,1,1192,,,,,,,,,,,,,,,,,H,160,triangle,1,0,,,,,,,,,,,,,,,,repeat,number,numRpt,k,0.8778,Lo,,,,,,5,,,,,,,,low,4,0,4,0,1,,,,,,,,,
297667,2022-10-06_19h42.00.829,vts_reward_expectancy,2022.2.4,MacIntel,120.0048002,Chrome,1510,806,,,,,0,1192,,,,,,,,,,,,,,,,,W,174,star,1,0,,,,,,,,,,,,,,,,repeat,number,numRpt,k,0.6274,Hi,,,,,,5,,,,,,,,low,5,0,5,0,1,,,,,,,,,
297667,2022-10-06_19h42.00.829,vts_reward_expectancy,2022.2.4,MacIntel,120.0048002,Chrome,1510,806,,,,,0,1192,,,,,,,,,,,,,,,,,U,181,star,1,0,,,,,,,,,,,,,,,,switch,letter,lettSwt,f,1.2942,Hi,,,,,,5,,,,,,,,low,6,0,6,0,1,,,,,,,,,
297667,2022-10-06_19h42.00.829,vts_reward_expectancy,2022.2.4,MacIntel,120.0048002,Chrome,1510,806,,,,,1,1193,,,,,,,,,,,,,,,,,F,132,triangle,1,0,,,,,,,,,,,,,,,,switch,number,numSwt,j,0.9098,Lo,,,,,,5,,,,,,,,low,7,0,7,0,1,,,,,,,,,
297667,2022-10-06_19h42.00.829,vts_reward_expectancy,2022.2.4,MacIntel,120.0048002,Chrome,1510,806,,,,,10,1203,,,,,,,,,,,,,,,,,D,139,triangle,1,0,,,,,,,,,,,,,,,,repeat,number,numRpt,j,0.7363,Lo,,,,,,5,,,,,,,,low,8,0,8,0,1,,,,,,,,,
297667,2022-10-06_19h42.00.829,vts_reward_expectancy,2022.2.4,MacIntel,120.0048002,Chrome,1510,806,,,,,0,1203,,,,,,,,,,,,,,,,,Y,146,star,1,0,,,,,,,,,,,,,,,,switch,letter,lettSwt,f,0.8461,Hi,,,,,,5,,,,,,,,low,9,0,9,0,1,,,,,,,,,
297667,2022-10-06_19h42.00.829,vts_reward_expectancy,2022.2.4,MacIntel,120.0048002,Chrome,1510,806,,,,,10,1213,,,,,,,,,,,,,,,,,B,125,star,1,0,,,,,,,,,,,,,,,,switch,number,numSwt,j,0.6181,Hi,,,,,,5,,,,,,,,low,10,0,10,0,1,,,,,,,,,
297667,2022-10-06_19h42.00.829,vts_reward_expectancy,2022.2.4,MacIntel,120.0048002,Chrome,1510,806,,,,,10,1223,,,,,,,,,,,,,,,,,S,167,triangle,1,0,,,,,,,,,,,,,,,,switch,letter,lettSwt,f,0.7297,Lo,,,,,,5,,,,,,,,low,11,0,11,0,1,,,,,,,,,
297667,2022-10-06_19h42.00.829,vts_reward_expectancy,2022.2.4,MacIntel,120.0048002,Chrome,1510,806,,,,,1,1224,,,,,,,,,,,,,,,,,H,160,triangle,1,0,,,,,,,,,,,,,,,,switch,number,numSwt,k,0.7039,Lo,,,,,,5,,,,,,,,low,12,0,12,0,1,,,,,,,,,
297667,2022-10-06_19h42.00.829,vts_reward_expectancy,2022.2.4,MacIntel,120.0048002,Chrome,1510,806,,,,,10,1234,,,,,,,,,,,,,,,,,W,174,star,1,0,,,,,,,,,,,,,,,,switch,letter,lettSwt,f,0.7057,Hi,,,,,,5,,,,,,,,low,13,0,13,0,1,,,,,,,,,
297667,2022-10-06_19h42.00.829,vts_reward_expectancy,2022.2.4,MacIntel,120.0048002,Chrome,1510,806,,,,,10,1244,,,,,,,,,,,,,,,,,U,181,triangle,1,0,,,,,,,,,,,,,,,,repeat,letter,lettRpt,f,0.7888,Lo,,,,,,5,,,,,,,,low,14,0,14,0,1,,,,,,,,,
297667,2022-10-06_19h42.00.829,vts_reward_expectancy,2022.2.4,MacIntel,120.0048002,Chrome,1510,806,,,,,0,1244,,,,,,,,,,,,,,,,,F,132,star,1,0,,,,,,,,,,,,,,,,repeat,letter,lettRpt,d,1.2821,Hi,,,,,,5,,,,,,,,low,15,0,15,0,1,,,,,,,,,
297667,2022-10-06_19h42.00.829,vts_reward_expectancy,2022.2.4,MacIntel,120.0048002,Chrome,1510,806,,,,,0,1244,,,,,,,,,,,,,,,,,W,160,star,1,0,,,,,,,,,,,,,,,,switch,number,numSwt,k,0.8928,Hi,,,,,,5,,,,,,,,low,16,0,16,0,1,,,,,,,,,
297667,2022-10-06_19h42.00.829,vts_reward_expectancy,2022.2.4,MacIntel,120.0048002,Chrome,1510,806,,,,,1,1245,,,,,,,,,,,,,,,,,Y,174,triangle,1,0,,,,,,,,,,,,,,,,repeat,number,numRpt,k,0.9968,Lo,,,,,,5,,,,,,,,low,17,0,17,0,1,,,,,,,,,
297667,2022-10-06_19h42.00.829,vts_reward_expectancy,2022.2.4,MacIntel,120.0048002,Chrome,1510,806,,,,,1,1246,,,,,,,,,,,,,,,,,D,139,triangle,1,0,,,,,,,,,,,,,,,,repeat,number,numRpt,j,1.2709,Lo,,,,,,5,,,,,,,,low,18,0,18,0,1,,,,,,,,,
297667,2022-10-06_19h42.00.829,vts_reward_expectancy,2022.2.4,MacIntel,120.0048002,Chrome,1510,806,,,,,0,1246,,,,,,,,,,,,,,,,,U,125,star,1,0,,,,,,,,,,,,,,,,repeat,number,numRpt,j,0.9675,Hi,,,,,,5,,,,,,,,low,19,0,19,0,1,,,,,,,,,
297667,2022-10-06_19h42.00.829,vts_reward_expectancy,2022.2.4,MacIntel,120.0048002,Chrome,1510,806,,,,,10,1256,,,,,,,,,,,,,,,,,B,181,triangle,1,0,,,,,,,,,,,,,,,,repeat,number,numRpt,k,1.1598,Lo,,,,,,5,,,,,,,,low,20,0,20,0,1,,,,,,,,,
297667,2022-10-06_19h42.00.829,vts_reward_expectancy,2022.2.4,MacIntel,120.0048002,Chrome,1510,806,,,,,0,1256,,,,,,,,,,,,,,,,,F,167,star,1,0,,,,,,,,,,,,,,,,repeat,number,numRpt,k,1.7702,Hi,,,,,,5,,,,,,,,low,21,0,21,0,1,,,,,,,,,
297667,2022-10-06_19h42.00.829,vts_reward_expectancy,2022.2.4,MacIntel,120.0048002,Chrome,1510,806,,,,,0,1256,,,,,,,,,,,,,,,,,S,146,star,1,0,,,,,,,,,,,,,,,,repeat,number,numRpt,j,0.884,Hi,,,,,,5,,,,,,,,low,22,0,22,0,1,,,,,,,,,
297667,2022-10-06_19h42.00.829,vts_reward_expectancy,2022.2.4,MacIntel,120.0048002,Chrome,1510,806,,,,,1,1257,,,,,,,,,,,,,,,,,H,132,triangle,1,0,,,,,,,,,,,,,,,,switch,letter,lettSwt,d,1.2275,Lo,,,,,,5,,,,,,,,low,23,0,23,0,1,,,,,,,,,
297667,2022-10-06_19h42.00.829,vts_reward_expectancy,2022.2.4,MacIntel,120.0048002,Chrome,1510,806,,,,,0,1257,,,,,,,,,,,,,,,,,W,181,star,1,0,,,,,,,,,,,,,,,,switch,number,numSwt,k,0.7166,Hi,,,,,,5,,,,,,,,low,24,0,24,0,1,,,,,,,,,
297667,2022-10-06_19h42.00.829,vts_reward_expectancy,2022.2.4,MacIntel,120.0048002,Chrome,1510,806,,,,,1,1258,,,,,,,,,,,,,,,,,S,174,triangle,1,0,,,,,,,,,,,,,,,,repeat,number,numRpt,k,0.888,Lo,,,,,,5,,,,,,,,low,25,0,25,0,1,,,,,,,,,
297667,2022-10-06_19h42.00.829,vts_reward_expectancy,2022.2.4,MacIntel,120.0048002,Chrome,1510,806,,,,,10,1268,,,,,,,,,,,,,,,,,F,167,star,1,0,,,,,,,,,,,,,,,,switch,letter,lettSwt,d,0.733,Hi,,,,,,5,,,,,,,,low,26,0,26,0,1,,,,,,,,,
297667,2022-10-06_19h42.00.829,vts_reward_expectancy,2022.2.4,MacIntel,120.0048002,Chrome,1510,806,,,,,0,1268,,,,,,,,,,,,,,,,,D,146,triangle,0,0,,,,,,,,,,,,,,,,repeat,letter,NA,f,1.4889,Hi,,,,,,5,,,,,,,,low,27,0,27,0,1,,,,,,,,,
297667,2022-10-06_19h42.00.829,vts_reward_expectancy,2022.2.4,MacIntel,120.0048002,Chrome,1510,806,,,,,0,1268,,,,,,,,,,,,,,,,,H,160,star,1,1,,,,,,,,,,,,,,,,repeat,letter,lettRpt,d,1.4275,Hi,,,,,,5,,,,,,,,low,28,0,28,0,1,,,,,,,,,
297667,2022-10-06_19h42.00.829,vts_reward_expectancy,2022.2.4,MacIntel,120.0048002,Chrome,1510,806,,,,,1,1269,,,,,,,,,,,,,,,,,B,125,triangle,1,0,,,,,,,,,,,,,,,,switch,number,numSwt,j,0.7638,Lo,,,,,,5,,,,,,,,low,29,0,29,0,1,,,,,,,,,
297667,2022-10-06_19h42.00.829,vts_reward_expectancy,2022.2.4,MacIntel,120.0048002,Chrome,1510,806,,,,,0,1269,,,,,,,,,,,,,,,,,Y,139,star,1,0,,,,,,,,,,,,,,,,repeat,number,numRpt,j,0.7492,Hi,,,,,,5,,,,,,,,low,30,0,30,0,1,,,,,,,,,
297667,2022-10-06_19h42.00.829,vts_reward_expectancy,2022.2.4,MacIntel,120.0048002,Chrome,1510,806,,,,,10,1279,,,,,,,,,,,,,,,,,U,132,triangle,1,0,,,,,,,,,,,,,,,,repeat,number,numRpt,j,0.6191,Lo,,,,,,5,,,,,,,,low,31,0,31,0,1,,,,,,,,,
297667,2022-10-06_19h42.00.829,vts_reward_expectancy,2022.2.4,MacIntel,120.0048002,Chrome,1510,806,,,,,,,,,,,,,,,,,,,,,,,,,,,,,,,,,,,,,,,,,,,,,,,,,,,,,,6,,,,,,,,,,,,,,Press certain keys on your keyboard for when a certain letter or number popped up on the screen.,2,,5,1,,2,1512,945
