participant,date,expName,psychopyVersion,OS,frameRate,browser,xResolution,yResolution,key_resp.keys,key_resp.rt,training_resp.keys,training_resp.rt,points_trial,points_cumul,trainBlock,training.thisRepN,training.thisTrialN,training.thisN,training.thisIndex,training.ran,LTriangleOpac,LCircleOpac,LHexagonOpac,LStarOpac,RTriangleOpac,RCircleOpac,RHexagonOpac,RStarOpac,LShape_ID,RShape_ID,curr_topStim,curr_bottStim,curr_shape,acc,E1,target_resp_prac1.keys,target_resp_prac1.rt,pracBlock,task1_prac_trials.thisRepN,task1_prac_trials.thisTrialN,task1_prac_trials.thisN,task1_prac_trials.thisIndex,task1_prac_trials.ran,target_resp_prac2.keys,target_resp_prac2.rt,task2_praac_trials.thisRepN,task2_praac_trials.thisTrialN,task2_praac_trials.thisN,task2_praac_trials.thisIndex,task2_praac_trials.ran,alt,task,condition,target_resp.keys,target_resp.rt,rewCond,vts_practice_trials.thisRepN,vts_practice_trials.thisTrialN,vts_practice_trials.thisN,vts_practice_trials.thisIndex,vts_practice_trials.ran,blockNum,trials_norew.thisRepN,trials_norew.thisTrialN,trials_norew.thisN,trials_norew.thisIndex,trials_norew.ran,key_resp_2.keys,key_resp_2.rt,rewExpect,trials_rew.thisRepN,trials_rew.thisTrialN,trials_rew.thisN,trials_rew.thisIndex,trials_rew.ran,Q1,Q2,Q2_text,Q3,Q4,Q5_text,Q5,xRes,yRes
295369,2022-09-20_22h37.49.725,vts_reward_expectancy,2022.2.4,Win32,59.87306909,Chrome,1366,768,,,,,,,,,,,,,,,,,,,,,,,,,,,,,,,,,,,,,,,,,,,,,,,,,,,,,,,,,,,,,,,,,,,,,,,,,,,,
295369,2022-09-20_22h37.49.725,vts_reward_expectancy,2022.2.4,Win32,59.87306909,Chrome,1366,768,space,15.9566,,,,,,,,,,,,,,,,,,,,,,,,,,,,,,,,,,,,,,,,,,,,,,,,,,,,,,,,,,,,,,,,,,,,,,,,,,
295369,2022-09-20_22h37.49.725,vts_reward_expectancy,2022.2.4,Win32,59.87306909,Chrome,1366,768,,,,,,,,,,,,,,,,,,,,,,,,,,,,,,,,,,,,,,,,,,,,,,,,,,,,,,,,,,,,,,,,,,,,,,,,,,,,
295369,2022-09-20_22h37.49.725,vts_reward_expectancy,2022.2.4,Win32,59.87306909,Chrome,1366,768,,,a,3.7856,10,10,0,0,0,0,8,1,0,0,1,0,0,0,0,1,hexagon,star,,,,,,,,,,,,,,,,,,,,,,,,,,,,,,,,,,,,,,,,,,,,,,,,,,,,,,
295369,2022-09-20_22h37.49.725,vts_reward_expectancy,2022.2.4,Win32,59.87306909,Chrome,1366,768,,,a,0.9811,10,20,0,0,1,1,6,1,0,0,1,0,1,0,0,0,hexagon,triangle,,,,,,,,,,,,,,,,,,,,,,,,,,,,,,,,,,,,,,,,,,,,,,,,,,,,,,
295369,2022-09-20_22h37.49.725,vts_reward_expectancy,2022.2.4,Win32,59.87306909,Chrome,1366,768,,,l,0.8844,10,30,0,0,2,2,11,1,0,0,0,1,0,0,1,0,star,hexagon,,,,,,,,,,,,,,,,,,,,,,,,,,,,,,,,,,,,,,,,,,,,,,,,,,,,,,
295369,2022-09-20_22h37.49.725,vts_reward_expectancy,2022.2.4,Win32,59.87306909,Chrome,1366,768,,,l,4.2273,10,40,0,0,3,3,9,1,0,0,0,1,1,0,0,0,star,triangle,,,,,,,,,,,,,,,,,,,,,,,,,,,,,,,,,,,,,,,,,,,,,,,,,,,,,,
295369,2022-09-20_22h37.49.725,vts_reward_expectancy,2022.2.4,Win32,59.87306909,Chrome,1366,768,,,a,0.9972,1,41,0,0,4,4,7,1,0,0,1,0,0,1,0,0,hexagon,circle,,,,,,,,,,,,,,,,,,,,,,,,,,,,,,,,,,,,,,,,,,,,,,,,,,,,,,
295369,2022-09-20_22h37.49.725,vts_reward_expectancy,2022.2.4,Win32,59.87306909,Chrome,1366,768,,,a,2.2105,10,51,0,0,5,5,4,1,0,1,0,0,0,0,1,0,circle,hexagon,,,,,,,,,,,,,,,,,,,,,,,,,,,,,,,,,,,,,,,,,,,,,,,,,,,,,,
295369,2022-09-20_22h37.49.725,vts_reward_expectancy,2022.2.4,Win32,59.87306909,Chrome,1366,768,,,l,2.2507,10,61,0,0,6,6,1,1,1,0,0,0,0,0,1,0,triangle,hexagon,,,,,,,,,,,,,,,,,,,,,,,,,,,,,,,,,,,,,,,,,,,,,,,,,,,,,,
295369,2022-09-20_22h37.49.725,vts_reward_expectancy,2022.2.4,Win32,59.87306909,Chrome,1366,768,,,a,1.436,10,71,0,0,7,7,5,1,0,1,0,0,0,0,0,1,circle,star,,,,,,,,,,,,,,,,,,,,,,,,,,,,,,,,,,,,,,,,,,,,,,,,,,,,,,
295369,2022-09-20_22h37.49.725,vts_reward_expectancy,2022.2.4,Win32,59.87306909,Chrome,1366,768,,,l,1.3103,1,72,0,0,8,8,10,1,0,0,0,1,0,1,0,0,star ,circle,,,,,,,,,,,,,,,,,,,,,,,,,,,,,,,,,,,,,,,,,,,,,,,,,,,,,,
295369,2022-09-20_22h37.49.725,vts_reward_expectancy,2022.2.4,Win32,59.87306909,Chrome,1366,768,,,a,2.4259,1,73,0,0,9,9,3,1,0,1,0,0,1,0,0,0,circle,triangle,,,,,,,,,,,,,,,,,,,,,,,,,,,,,,,,,,,,,,,,,,,,,,,,,,,,,,
295369,2022-09-20_22h37.49.725,vts_reward_expectancy,2022.2.4,Win32,59.87306909,Chrome,1366,768,,,a,2.7328,10,83,0,0,10,10,2,1,1,0,0,0,0,0,0,1,triangle,star,,,,,,,,,,,,,,,,,,,,,,,,,,,,,,,,,,,,,,,,,,,,,,,,,,,,,,
295369,2022-09-20_22h37.49.725,vts_reward_expectancy,2022.2.4,Win32,59.87306909,Chrome,1366,768,,,a,1.7132,1,84,0,0,11,11,0,1,1,0,0,0,0,1,0,0,triangle,circle,,,,,,,,,,,,,,,,,,,,,,,,,,,,,,,,,,,,,,,,,,,,,,,,,,,,,,
295369,2022-09-20_22h37.49.725,vts_reward_expectancy,2022.2.4,Win32,59.87306909,Chrome,1366,768,,,a,1.9774,1,85,0,1,0,12,3,1,0,1,0,0,1,0,0,0,circle,triangle,,,,,,,,,,,,,,,,,,,,,,,,,,,,,,,,,,,,,,,,,,,,,,,,,,,,,,
295369,2022-09-20_22h37.49.725,vts_reward_expectancy,2022.2.4,Win32,59.87306909,Chrome,1366,768,,,l,1.4637,1,86,0,1,1,13,11,1,0,0,0,1,0,0,1,0,star,hexagon,,,,,,,,,,,,,,,,,,,,,,,,,,,,,,,,,,,,,,,,,,,,,,,,,,,,,,
295369,2022-09-20_22h37.49.725,vts_reward_expectancy,2022.2.4,Win32,59.87306909,Chrome,1366,768,,,a,0.9489,1,87,0,1,2,14,10,1,0,0,0,1,0,1,0,0,star ,circle,,,,,,,,,,,,,,,,,,,,,,,,,,,,,,,,,,,,,,,,,,,,,,,,,,,,,,
295369,2022-09-20_22h37.49.725,vts_reward_expectancy,2022.2.4,Win32,59.87306909,Chrome,1366,768,,,a,2.0018,10,97,0,1,3,15,9,1,0,0,0,1,1,0,0,0,star,triangle,,,,,,,,,,,,,,,,,,,,,,,,,,,,,,,,,,,,,,,,,,,,,,,,,,,,,,
295369,2022-09-20_22h37.49.725,vts_reward_expectancy,2022.2.4,Win32,59.87306909,Chrome,1366,768,,,l,1.1988,1,98,0,1,4,16,5,1,0,1,0,0,0,0,0,1,circle,star,,,,,,,,,,,,,,,,,,,,,,,,,,,,,,,,,,,,,,,,,,,,,,,,,,,,,,
295369,2022-09-20_22h37.49.725,vts_reward_expectancy,2022.2.4,Win32,59.87306909,Chrome,1366,768,,,a,2.7978,10,108,0,1,5,17,7,1,0,0,1,0,0,1,0,0,hexagon,circle,,,,,,,,,,,,,,,,,,,,,,,,,,,,,,,,,,,,,,,,,,,,,,,,,,,,,,
295369,2022-09-20_22h37.49.725,vts_reward_expectancy,2022.2.4,Win32,59.87306909,Chrome,1366,768,,,a,2.1699,10,118,0,1,6,18,6,1,0,0,1,0,1,0,0,0,hexagon,triangle,,,,,,,,,,,,,,,,,,,,,,,,,,,,,,,,,,,,,,,,,,,,,,,,,,,,,,
295369,2022-09-20_22h37.49.725,vts_reward_expectancy,2022.2.4,Win32,59.87306909,Chrome,1366,768,,,l,2.4217,10,128,0,1,7,19,0,1,1,0,0,0,0,1,0,0,triangle,circle,,,,,,,,,,,,,,,,,,,,,,,,,,,,,,,,,,,,,,,,,,,,,,,,,,,,,,
295369,2022-09-20_22h37.49.725,vts_reward_expectancy,2022.2.4,Win32,59.87306909,Chrome,1366,768,,,l,2.6129,10,138,0,1,8,20,1,1,1,0,0,0,0,0,1,0,triangle,hexagon,,,,,,,,,,,,,,,,,,,,,,,,,,,,,,,,,,,,,,,,,,,,,,,,,,,,,,
295369,2022-09-20_22h37.49.725,vts_reward_expectancy,2022.2.4,Win32,59.87306909,Chrome,1366,768,,,a,4.1952,1,139,0,1,9,21,4,1,0,1,0,0,0,0,1,0,circle,hexagon,,,,,,,,,,,,,,,,,,,,,,,,,,,,,,,,,,,,,,,,,,,,,,,,,,,,,,
295369,2022-09-20_22h37.49.725,vts_reward_expectancy,2022.2.4,Win32,59.87306909,Chrome,1366,768,,,a,2.0965,10,149,0,1,10,22,8,1,0,0,1,0,0,0,0,1,hexagon,star,,,,,,,,,,,,,,,,,,,,,,,,,,,,,,,,,,,,,,,,,,,,,,,,,,,,,,
295369,2022-09-20_22h37.49.725,vts_reward_expectancy,2022.2.4,Win32,59.87306909,Chrome,1366,768,,,l,2.0954,1,150,0,1,11,23,2,1,1,0,0,0,0,0,0,1,triangle,star,,,,,,,,,,,,,,,,,,,,,,,,,,,,,,,,,,,,,,,,,,,,,,,,,,,,,,
295369,2022-09-20_22h37.49.725,vts_reward_expectancy,2022.2.4,Win32,59.87306909,Chrome,1366,768,,,a,2.4298,10,160,0,2,0,24,1,1,1,0,0,0,0,0,1,0,triangle,hexagon,,,,,,,,,,,,,,,,,,,,,,,,,,,,,,,,,,,,,,,,,,,,,,,,,,,,,,
295369,2022-09-20_22h37.49.725,vts_reward_expectancy,2022.2.4,Win32,59.87306909,Chrome,1366,768,,,l,2.0456,1,161,0,2,1,25,7,1,0,0,1,0,0,1,0,0,hexagon,circle,,,,,,,,,,,,,,,,,,,,,,,,,,,,,,,,,,,,,,,,,,,,,,,,,,,,,,
295369,2022-09-20_22h37.49.725,vts_reward_expectancy,2022.2.4,Win32,59.87306909,Chrome,1366,768,,,a,0.7295,10,171,0,2,2,26,3,1,0,1,0,0,1,0,0,0,circle,triangle,,,,,,,,,,,,,,,,,,,,,,,,,,,,,,,,,,,,,,,,,,,,,,,,,,,,,,
295369,2022-09-20_22h37.49.725,vts_reward_expectancy,2022.2.4,Win32,59.87306909,Chrome,1366,768,,,l,1.0163,1,172,0,2,3,27,0,1,1,0,0,0,0,1,0,0,triangle,circle,,,,,,,,,,,,,,,,,,,,,,,,,,,,,,,,,,,,,,,,,,,,,,,,,,,,,,
295369,2022-09-20_22h37.49.725,vts_reward_expectancy,2022.2.4,Win32,59.87306909,Chrome,1366,768,,,a,0.7365,10,182,0,2,4,28,8,1,0,0,1,0,0,0,0,1,hexagon,star,,,,,,,,,,,,,,,,,,,,,,,,,,,,,,,,,,,,,,,,,,,,,,,,,,,,,,
295369,2022-09-20_22h37.49.725,vts_reward_expectancy,2022.2.4,Win32,59.87306909,Chrome,1366,768,,,a,1.4304,1,183,0,2,5,29,9,1,0,0,0,1,1,0,0,0,star,triangle,,,,,,,,,,,,,,,,,,,,,,,,,,,,,,,,,,,,,,,,,,,,,,,,,,,,,,
295369,2022-09-20_22h37.49.725,vts_reward_expectancy,2022.2.4,Win32,59.87306909,Chrome,1366,768,,,l,0.4554,1,184,0,2,6,30,10,1,0,0,0,1,0,1,0,0,star ,circle,,,,,,,,,,,,,,,,,,,,,,,,,,,,,,,,,,,,,,,,,,,,,,,,,,,,,,
295369,2022-09-20_22h37.49.725,vts_reward_expectancy,2022.2.4,Win32,59.87306909,Chrome,1366,768,,,a,0.4928,1,185,0,2,7,31,2,1,1,0,0,0,0,0,0,1,triangle,star,,,,,,,,,,,,,,,,,,,,,,,,,,,,,,,,,,,,,,,,,,,,,,,,,,,,,,
295369,2022-09-20_22h37.49.725,vts_reward_expectancy,2022.2.4,Win32,59.87306909,Chrome,1366,768,,,l,1.235,1,186,0,2,8,32,5,1,0,1,0,0,0,0,0,1,circle,star,,,,,,,,,,,,,,,,,,,,,,,,,,,,,,,,,,,,,,,,,,,,,,,,,,,,,,
295369,2022-09-20_22h37.49.725,vts_reward_expectancy,2022.2.4,Win32,59.87306909,Chrome,1366,768,,,a,0.7841,1,187,0,2,9,33,11,1,0,0,0,1,0,0,1,0,star,hexagon,,,,,,,,,,,,,,,,,,,,,,,,,,,,,,,,,,,,,,,,,,,,,,,,,,,,,,
295369,2022-09-20_22h37.49.725,vts_reward_expectancy,2022.2.4,Win32,59.87306909,Chrome,1366,768,,,a,1.1084,1,188,0,2,10,34,6,1,0,0,1,0,1,0,0,0,hexagon,triangle,,,,,,,,,,,,,,,,,,,,,,,,,,,,,,,,,,,,,,,,,,,,,,,,,,,,,,
295369,2022-09-20_22h37.49.725,vts_reward_expectancy,2022.2.4,Win32,59.87306909,Chrome,1366,768,,,l,1.5823,10,198,0,2,11,35,4,1,0,1,0,0,0,0,1,0,circle,hexagon,,,,,,,,,,,,,,,,,,,,,,,,,,,,,,,,,,,,,,,,,,,,,,,,,,,,,,
295369,2022-09-20_22h37.49.725,vts_reward_expectancy,2022.2.4,Win32,59.87306909,Chrome,1366,768,,,a,0.9342,10,208,1,0,0,0,3,1,0,1,0,0,1,0,0,0,circle,triangle,,,,,,,,,,,,,,,,,,,,,,,,,,,,,,,,,,,,,,,,,,,,,,,,,,,,,,
295369,2022-09-20_22h37.49.725,vts_reward_expectancy,2022.2.4,Win32,59.87306909,Chrome,1366,768,,,l,2.4875,10,218,1,0,1,1,11,1,0,0,0,1,0,0,1,0,star,hexagon,,,,,,,,,,,,,,,,,,,,,,,,,,,,,,,,,,,,,,,,,,,,,,,,,,,,,,
295369,2022-09-20_22h37.49.725,vts_reward_expectancy,2022.2.4,Win32,59.87306909,Chrome,1366,768,,,l,1.921,10,228,1,0,2,2,10,1,0,0,0,1,0,1,0,0,star ,circle,,,,,,,,,,,,,,,,,,,,,,,,,,,,,,,,,,,,,,,,,,,,,,,,,,,,,,
295369,2022-09-20_22h37.49.725,vts_reward_expectancy,2022.2.4,Win32,59.87306909,Chrome,1366,768,,,a,1.25,10,238,1,0,3,3,8,1,0,0,1,0,0,0,0,1,hexagon,star,,,,,,,,,,,,,,,,,,,,,,,,,,,,,,,,,,,,,,,,,,,,,,,,,,,,,,
295369,2022-09-20_22h37.49.725,vts_reward_expectancy,2022.2.4,Win32,59.87306909,Chrome,1366,768,,,l,1.1002,10,248,1,0,4,4,0,1,1,0,0,0,0,1,0,0,triangle,circle,,,,,,,,,,,,,,,,,,,,,,,,,,,,,,,,,,,,,,,,,,,,,,,,,,,,,,
295369,2022-09-20_22h37.49.725,vts_reward_expectancy,2022.2.4,Win32,59.87306909,Chrome,1366,768,,,l,1.3436,1,249,1,0,5,5,7,1,0,0,1,0,0,1,0,0,hexagon,circle,,,,,,,,,,,,,,,,,,,,,,,,,,,,,,,,,,,,,,,,,,,,,,,,,,,,,,
295369,2022-09-20_22h37.49.725,vts_reward_expectancy,2022.2.4,Win32,59.87306909,Chrome,1366,768,,,a,1.0834,1,250,1,0,6,6,5,1,0,1,0,0,0,0,0,1,circle,star,,,,,,,,,,,,,,,,,,,,,,,,,,,,,,,,,,,,,,,,,,,,,,,,,,,,,,
295369,2022-09-20_22h37.49.725,vts_reward_expectancy,2022.2.4,Win32,59.87306909,Chrome,1366,768,,,l,2.1399,10,260,1,0,7,7,4,1,0,1,0,0,0,0,1,0,circle,hexagon,,,,,,,,,,,,,,,,,,,,,,,,,,,,,,,,,,,,,,,,,,,,,,,,,,,,,,
295369,2022-09-20_22h37.49.725,vts_reward_expectancy,2022.2.4,Win32,59.87306909,Chrome,1366,768,,,a,0.9174,10,270,1,0,8,8,6,1,0,0,1,0,1,0,0,0,hexagon,triangle,,,,,,,,,,,,,,,,,,,,,,,,,,,,,,,,,,,,,,,,,,,,,,,,,,,,,,
295369,2022-09-20_22h37.49.725,vts_reward_expectancy,2022.2.4,Win32,59.87306909,Chrome,1366,768,,,l,0.657,1,271,1,0,9,9,2,1,1,0,0,0,0,0,0,1,triangle,star,,,,,,,,,,,,,,,,,,,,,,,,,,,,,,,,,,,,,,,,,,,,,,,,,,,,,,
295369,2022-09-20_22h37.49.725,vts_reward_expectancy,2022.2.4,Win32,59.87306909,Chrome,1366,768,,,a,1.1264,10,281,1,0,10,10,1,1,1,0,0,0,0,0,1,0,triangle,hexagon,,,,,,,,,,,,,,,,,,,,,,,,,,,,,,,,,,,,,,,,,,,,,,,,,,,,,,
295369,2022-09-20_22h37.49.725,vts_reward_expectancy,2022.2.4,Win32,59.87306909,Chrome,1366,768,,,l,0.7345,10,291,1,0,11,11,9,1,0,0,0,1,1,0,0,0,star,triangle,,,,,,,,,,,,,,,,,,,,,,,,,,,,,,,,,,,,,,,,,,,,,,,,,,,,,,
295369,2022-09-20_22h37.49.725,vts_reward_expectancy,2022.2.4,Win32,59.87306909,Chrome,1366,768,,,l,1.2415,10,301,1,1,0,12,10,1,0,0,0,1,0,1,0,0,star ,circle,,,,,,,,,,,,,,,,,,,,,,,,,,,,,,,,,,,,,,,,,,,,,,,,,,,,,,
295369,2022-09-20_22h37.49.725,vts_reward_expectancy,2022.2.4,Win32,59.87306909,Chrome,1366,768,,,l,1.088,10,311,1,1,1,13,2,1,1,0,0,0,0,0,0,1,triangle,star,,,,,,,,,,,,,,,,,,,,,,,,,,,,,,,,,,,,,,,,,,,,,,,,,,,,,,
295369,2022-09-20_22h37.49.725,vts_reward_expectancy,2022.2.4,Win32,59.87306909,Chrome,1366,768,,,a,0.7449,10,321,1,1,2,14,7,1,0,0,1,0,0,1,0,0,hexagon,circle,,,,,,,,,,,,,,,,,,,,,,,,,,,,,,,,,,,,,,,,,,,,,,,,,,,,,,
295369,2022-09-20_22h37.49.725,vts_reward_expectancy,2022.2.4,Win32,59.87306909,Chrome,1366,768,,,l,0.5268,10,331,1,1,3,15,5,1,0,1,0,0,0,0,0,1,circle,star,,,,,,,,,,,,,,,,,,,,,,,,,,,,,,,,,,,,,,,,,,,,,,,,,,,,,,
295369,2022-09-20_22h37.49.725,vts_reward_expectancy,2022.2.4,Win32,59.87306909,Chrome,1366,768,,,l,0.5838,1,332,1,1,4,16,8,1,0,0,1,0,0,0,0,1,hexagon,star,,,,,,,,,,,,,,,,,,,,,,,,,,,,,,,,,,,,,,,,,,,,,,,,,,,,,,
295369,2022-09-20_22h37.49.725,vts_reward_expectancy,2022.2.4,Win32,59.87306909,Chrome,1366,768,,,a,0.5596,10,342,1,1,5,17,3,1,0,1,0,0,1,0,0,0,circle,triangle,,,,,,,,,,,,,,,,,,,,,,,,,,,,,,,,,,,,,,,,,,,,,,,,,,,,,,
295369,2022-09-20_22h37.49.725,vts_reward_expectancy,2022.2.4,Win32,59.87306909,Chrome,1366,768,,,l,0.7374,1,343,1,1,6,18,11,1,0,0,0,1,0,0,1,0,star,hexagon,,,,,,,,,,,,,,,,,,,,,,,,,,,,,,,,,,,,,,,,,,,,,,,,,,,,,,
295369,2022-09-20_22h37.49.725,vts_reward_expectancy,2022.2.4,Win32,59.87306909,Chrome,1366,768,,,a,0.6191,10,353,1,1,7,19,9,1,0,0,0,1,1,0,0,0,star,triangle,,,,,,,,,,,,,,,,,,,,,,,,,,,,,,,,,,,,,,,,,,,,,,,,,,,,,,
295369,2022-09-20_22h37.49.725,vts_reward_expectancy,2022.2.4,Win32,59.87306909,Chrome,1366,768,,,a,0.6354,1,354,1,1,8,20,6,1,0,0,1,0,1,0,0,0,hexagon,triangle,,,,,,,,,,,,,,,,,,,,,,,,,,,,,,,,,,,,,,,,,,,,,,,,,,,,,,
295369,2022-09-20_22h37.49.725,vts_reward_expectancy,2022.2.4,Win32,59.87306909,Chrome,1366,768,,,a,1.1502,10,364,1,1,9,21,0,1,1,0,0,0,0,1,0,0,triangle,circle,,,,,,,,,,,,,,,,,,,,,,,,,,,,,,,,,,,,,,,,,,,,,,,,,,,,,,
295369,2022-09-20_22h37.49.725,vts_reward_expectancy,2022.2.4,Win32,59.87306909,Chrome,1366,768,,,a,0.9501,10,374,1,1,10,22,1,1,1,0,0,0,0,0,1,0,triangle,hexagon,,,,,,,,,,,,,,,,,,,,,,,,,,,,,,,,,,,,,,,,,,,,,,,,,,,,,,
295369,2022-09-20_22h37.49.725,vts_reward_expectancy,2022.2.4,Win32,59.87306909,Chrome,1366,768,,,a,0.9545,1,375,1,1,11,23,4,1,0,1,0,0,0,0,1,0,circle,hexagon,,,,,,,,,,,,,,,,,,,,,,,,,,,,,,,,,,,,,,,,,,,,,,,,,,,,,,
295369,2022-09-20_22h37.49.725,vts_reward_expectancy,2022.2.4,Win32,59.87306909,Chrome,1366,768,,,l,0.484,10,385,1,2,0,24,8,1,0,0,1,0,0,0,0,1,hexagon,star,,,,,,,,,,,,,,,,,,,,,,,,,,,,,,,,,,,,,,,,,,,,,,,,,,,,,,
295369,2022-09-20_22h37.49.725,vts_reward_expectancy,2022.2.4,Win32,59.87306909,Chrome,1366,768,,,a,0.695,10,395,1,2,1,25,6,1,0,0,1,0,1,0,0,0,hexagon,triangle,,,,,,,,,,,,,,,,,,,,,,,,,,,,,,,,,,,,,,,,,,,,,,,,,,,,,,
295369,2022-09-20_22h37.49.725,vts_reward_expectancy,2022.2.4,Win32,59.87306909,Chrome,1366,768,,,l,1.0333,1,396,1,2,2,26,4,1,0,1,0,0,0,0,1,0,circle,hexagon,,,,,,,,,,,,,,,,,,,,,,,,,,,,,,,,,,,,,,,,,,,,,,,,,,,,,,
295369,2022-09-20_22h37.49.725,vts_reward_expectancy,2022.2.4,Win32,59.87306909,Chrome,1366,768,,,a,1.2999,10,406,1,2,3,27,0,1,1,0,0,0,0,1,0,0,triangle,circle,,,,,,,,,,,,,,,,,,,,,,,,,,,,,,,,,,,,,,,,,,,,,,,,,,,,,,
295369,2022-09-20_22h37.49.725,vts_reward_expectancy,2022.2.4,Win32,59.87306909,Chrome,1366,768,,,l,0.6163,1,407,1,2,4,28,5,1,0,1,0,0,0,0,0,1,circle,star,,,,,,,,,,,,,,,,,,,,,,,,,,,,,,,,,,,,,,,,,,,,,,,,,,,,,,
295369,2022-09-20_22h37.49.725,vts_reward_expectancy,2022.2.4,Win32,59.87306909,Chrome,1366,768,,,a,2.0197,1,408,1,2,5,29,9,1,0,0,0,1,1,0,0,0,star,triangle,,,,,,,,,,,,,,,,,,,,,,,,,,,,,,,,,,,,,,,,,,,,,,,,,,,,,,
295369,2022-09-20_22h37.49.725,vts_reward_expectancy,2022.2.4,Win32,59.87306909,Chrome,1366,768,,,l,0.9178,1,409,1,2,6,30,7,1,0,0,1,0,0,1,0,0,hexagon,circle,,,,,,,,,,,,,,,,,,,,,,,,,,,,,,,,,,,,,,,,,,,,,,,,,,,,,,
295369,2022-09-20_22h37.49.725,vts_reward_expectancy,2022.2.4,Win32,59.87306909,Chrome,1366,768,,,a,2.8642,10,419,1,2,7,31,2,1,1,0,0,0,0,0,0,1,triangle,star,,,,,,,,,,,,,,,,,,,,,,,,,,,,,,,,,,,,,,,,,,,,,,,,,,,,,,
295369,2022-09-20_22h37.49.725,vts_reward_expectancy,2022.2.4,Win32,59.87306909,Chrome,1366,768,,,a,1.3838,10,429,1,2,8,32,3,1,0,1,0,0,1,0,0,0,circle,triangle,,,,,,,,,,,,,,,,,,,,,,,,,,,,,,,,,,,,,,,,,,,,,,,,,,,,,,
295369,2022-09-20_22h37.49.725,vts_reward_expectancy,2022.2.4,Win32,59.87306909,Chrome,1366,768,,,l,1.383,10,439,1,2,9,33,11,1,0,0,0,1,0,0,1,0,star,hexagon,,,,,,,,,,,,,,,,,,,,,,,,,,,,,,,,,,,,,,,,,,,,,,,,,,,,,,
295369,2022-09-20_22h37.49.725,vts_reward_expectancy,2022.2.4,Win32,59.87306909,Chrome,1366,768,,,l,0.7838,10,449,1,2,10,34,10,1,0,0,0,1,0,1,0,0,star ,circle,,,,,,,,,,,,,,,,,,,,,,,,,,,,,,,,,,,,,,,,,,,,,,,,,,,,,,
295369,2022-09-20_22h37.49.725,vts_reward_expectancy,2022.2.4,Win32,59.87306909,Chrome,1366,768,,,a,0.6017,10,459,1,2,11,35,1,1,1,0,0,0,0,0,1,0,triangle,hexagon,,,,,,,,,,,,,,,,,,,,,,,,,,,,,,,,,,,,,,,,,,,,,,,,,,,,,,
295369,2022-09-20_22h37.49.725,vts_reward_expectancy,2022.2.4,Win32,59.87306909,Chrome,1366,768,,,a,1.4675,1,460,2,0,0,0,4,1,0,1,0,0,0,0,1,0,circle,hexagon,,,,,,,,,,,,,,,,,,,,,,,,,,,,,,,,,,,,,,,,,,,,,,,,,,,,,,
295369,2022-09-20_22h37.49.725,vts_reward_expectancy,2022.2.4,Win32,59.87306909,Chrome,1366,768,,,a,0.72,10,470,2,0,1,1,6,1,0,0,1,0,1,0,0,0,hexagon,triangle,,,,,,,,,,,,,,,,,,,,,,,,,,,,,,,,,,,,,,,,,,,,,,,,,,,,,,
295369,2022-09-20_22h37.49.725,vts_reward_expectancy,2022.2.4,Win32,59.87306909,Chrome,1366,768,,,l,0.5594,1,471,2,0,2,2,2,1,1,0,0,0,0,0,0,1,triangle,star,,,,,,,,,,,,,,,,,,,,,,,,,,,,,,,,,,,,,,,,,,,,,,,,,,,,,,
295369,2022-09-20_22h37.49.725,vts_reward_expectancy,2022.2.4,Win32,59.87306909,Chrome,1366,768,,,a,1.2623,1,472,2,0,3,3,8,1,0,0,1,0,0,0,0,1,hexagon,star,,,,,,,,,,,,,,,,,,,,,,,,,,,,,,,,,,,,,,,,,,,,,,,,,,,,,,
295369,2022-09-20_22h37.49.725,vts_reward_expectancy,2022.2.4,Win32,59.87306909,Chrome,1366,768,,,a,2.4991,10,482,2,0,4,4,11,1,0,0,0,1,0,0,1,0,star,hexagon,,,,,,,,,,,,,,,,,,,,,,,,,,,,,,,,,,,,,,,,,,,,,,,,,,,,,,
295369,2022-09-20_22h37.49.725,vts_reward_expectancy,2022.2.4,Win32,59.87306909,Chrome,1366,768,,,a,0.5862,1,483,2,0,5,5,7,1,0,0,1,0,0,1,0,0,hexagon,circle,,,,,,,,,,,,,,,,,,,,,,,,,,,,,,,,,,,,,,,,,,,,,,,,,,,,,,
295369,2022-09-20_22h37.49.725,vts_reward_expectancy,2022.2.4,Win32,59.87306909,Chrome,1366,768,,,l,0.8375,1,484,2,0,6,6,9,1,0,0,0,1,1,0,0,0,star,triangle,,,,,,,,,,,,,,,,,,,,,,,,,,,,,,,,,,,,,,,,,,,,,,,,,,,,,,
295369,2022-09-20_22h37.49.725,vts_reward_expectancy,2022.2.4,Win32,59.87306909,Chrome,1366,768,,,l,0.6909,1,485,2,0,7,7,5,1,0,1,0,0,0,0,0,1,circle,star,,,,,,,,,,,,,,,,,,,,,,,,,,,,,,,,,,,,,,,,,,,,,,,,,,,,,,
295369,2022-09-20_22h37.49.725,vts_reward_expectancy,2022.2.4,Win32,59.87306909,Chrome,1366,768,,,l,1.5883,1,486,2,0,8,8,0,1,1,0,0,0,0,1,0,0,triangle,circle,,,,,,,,,,,,,,,,,,,,,,,,,,,,,,,,,,,,,,,,,,,,,,,,,,,,,,
295369,2022-09-20_22h37.49.725,vts_reward_expectancy,2022.2.4,Win32,59.87306909,Chrome,1366,768,,,a,0.551,1,487,2,0,9,9,10,1,0,0,0,1,0,1,0,0,star ,circle,,,,,,,,,,,,,,,,,,,,,,,,,,,,,,,,,,,,,,,,,,,,,,,,,,,,,,
295369,2022-09-20_22h37.49.725,vts_reward_expectancy,2022.2.4,Win32,59.87306909,Chrome,1366,768,,,l,0.5336,1,488,2,0,10,10,1,1,1,0,0,0,0,0,1,0,triangle,hexagon,,,,,,,,,,,,,,,,,,,,,,,,,,,,,,,,,,,,,,,,,,,,,,,,,,,,,,
295369,2022-09-20_22h37.49.725,vts_reward_expectancy,2022.2.4,Win32,59.87306909,Chrome,1366,768,,,a,0.7446,1,489,2,0,11,11,3,1,0,1,0,0,1,0,0,0,circle,triangle,,,,,,,,,,,,,,,,,,,,,,,,,,,,,,,,,,,,,,,,,,,,,,,,,,,,,,
295369,2022-09-20_22h37.49.725,vts_reward_expectancy,2022.2.4,Win32,59.87306909,Chrome,1366,768,,,a,1.8682,1,490,2,1,0,12,7,1,0,0,1,0,0,1,0,0,hexagon,circle,,,,,,,,,,,,,,,,,,,,,,,,,,,,,,,,,,,,,,,,,,,,,,,,,,,,,,
295369,2022-09-20_22h37.49.725,vts_reward_expectancy,2022.2.4,Win32,59.87306909,Chrome,1366,768,,,l,1.0502,10,500,2,1,1,13,11,1,0,0,0,1,0,0,1,0,star,hexagon,,,,,,,,,,,,,,,,,,,,,,,,,,,,,,,,,,,,,,,,,,,,,,,,,,,,,,
295369,2022-09-20_22h37.49.725,vts_reward_expectancy,2022.2.4,Win32,59.87306909,Chrome,1366,768,,,a,2.2005,1,501,2,1,2,14,2,1,1,0,0,0,0,0,0,1,triangle,star,,,,,,,,,,,,,,,,,,,,,,,,,,,,,,,,,,,,,,,,,,,,,,,,,,,,,,
295369,2022-09-20_22h37.49.725,vts_reward_expectancy,2022.2.4,Win32,59.87306909,Chrome,1366,768,,,a,0.7898,1,502,2,1,3,15,3,1,0,1,0,0,1,0,0,0,circle,triangle,,,,,,,,,,,,,,,,,,,,,,,,,,,,,,,,,,,,,,,,,,,,,,,,,,,,,,
295369,2022-09-20_22h37.49.725,vts_reward_expectancy,2022.2.4,Win32,59.87306909,Chrome,1366,768,,,l,0.604,10,512,2,1,4,16,8,1,0,0,1,0,0,0,0,1,hexagon,star,,,,,,,,,,,,,,,,,,,,,,,,,,,,,,,,,,,,,,,,,,,,,,,,,,,,,,
295369,2022-09-20_22h37.49.725,vts_reward_expectancy,2022.2.4,Win32,59.87306909,Chrome,1366,768,,,l,0.6041,1,513,2,1,5,17,5,1,0,1,0,0,0,0,0,1,circle,star,,,,,,,,,,,,,,,,,,,,,,,,,,,,,,,,,,,,,,,,,,,,,,,,,,,,,,
295369,2022-09-20_22h37.49.725,vts_reward_expectancy,2022.2.4,Win32,59.87306909,Chrome,1366,768,,,a,0.622,10,523,2,1,6,18,1,1,1,0,0,0,0,0,1,0,triangle,hexagon,,,,,,,,,,,,,,,,,,,,,,,,,,,,,,,,,,,,,,,,,,,,,,,,,,,,,,
295369,2022-09-20_22h37.49.725,vts_reward_expectancy,2022.2.4,Win32,59.87306909,Chrome,1366,768,,,l,0.9659,10,533,2,1,7,19,6,1,0,0,1,0,1,0,0,0,hexagon,triangle,,,,,,,,,,,,,,,,,,,,,,,,,,,,,,,,,,,,,,,,,,,,,,,,,,,,,,
295369,2022-09-20_22h37.49.725,vts_reward_expectancy,2022.2.4,Win32,59.87306909,Chrome,1366,768,,,a,0.6012,1,534,2,1,8,20,0,1,1,0,0,0,0,1,0,0,triangle,circle,,,,,,,,,,,,,,,,,,,,,,,,,,,,,,,,,,,,,,,,,,,,,,,,,,,,,,
295369,2022-09-20_22h37.49.725,vts_reward_expectancy,2022.2.4,Win32,59.87306909,Chrome,1366,768,,,a,2.0232,1,535,2,1,9,21,4,1,0,1,0,0,0,0,1,0,circle,hexagon,,,,,,,,,,,,,,,,,,,,,,,,,,,,,,,,,,,,,,,,,,,,,,,,,,,,,,
295369,2022-09-20_22h37.49.725,vts_reward_expectancy,2022.2.4,Win32,59.87306909,Chrome,1366,768,,,a,0.4201,1,536,2,1,10,22,10,1,0,0,0,1,0,1,0,0,star ,circle,,,,,,,,,,,,,,,,,,,,,,,,,,,,,,,,,,,,,,,,,,,,,,,,,,,,,,
295369,2022-09-20_22h37.49.725,vts_reward_expectancy,2022.2.4,Win32,59.87306909,Chrome,1366,768,,,a,1.6187,1,537,2,1,11,23,9,1,0,0,0,1,1,0,0,0,star,triangle,,,,,,,,,,,,,,,,,,,,,,,,,,,,,,,,,,,,,,,,,,,,,,,,,,,,,,
295369,2022-09-20_22h37.49.725,vts_reward_expectancy,2022.2.4,Win32,59.87306909,Chrome,1366,768,,,l,0.3911,10,547,2,2,0,24,2,1,1,0,0,0,0,0,0,1,triangle,star,,,,,,,,,,,,,,,,,,,,,,,,,,,,,,,,,,,,,,,,,,,,,,,,,,,,,,
295369,2022-09-20_22h37.49.725,vts_reward_expectancy,2022.2.4,Win32,59.87306909,Chrome,1366,768,,,a,0.8838,1,548,2,2,1,25,1,1,1,0,0,0,0,0,1,0,triangle,hexagon,,,,,,,,,,,,,,,,,,,,,,,,,,,,,,,,,,,,,,,,,,,,,,,,,,,,,,
295369,2022-09-20_22h37.49.725,vts_reward_expectancy,2022.2.4,Win32,59.87306909,Chrome,1366,768,,,a,2.1918,10,558,2,2,2,26,6,1,0,0,1,0,1,0,0,0,hexagon,triangle,,,,,,,,,,,,,,,,,,,,,,,,,,,,,,,,,,,,,,,,,,,,,,,,,,,,,,
295369,2022-09-20_22h37.49.725,vts_reward_expectancy,2022.2.4,Win32,59.87306909,Chrome,1366,768,,,a,1.9869,1,559,2,2,3,27,9,1,0,0,0,1,1,0,0,0,star,triangle,,,,,,,,,,,,,,,,,,,,,,,,,,,,,,,,,,,,,,,,,,,,,,,,,,,,,,
295369,2022-09-20_22h37.49.725,vts_reward_expectancy,2022.2.4,Win32,59.87306909,Chrome,1366,768,,,a,1.2599,1,560,2,2,4,28,10,1,0,0,0,1,0,1,0,0,star ,circle,,,,,,,,,,,,,,,,,,,,,,,,,,,,,,,,,,,,,,,,,,,,,,,,,,,,,,
295369,2022-09-20_22h37.49.725,vts_reward_expectancy,2022.2.4,Win32,59.87306909,Chrome,1366,768,,,l,1.9997,10,570,2,2,5,29,11,1,0,0,0,1,0,0,1,0,star,hexagon,,,,,,,,,,,,,,,,,,,,,,,,,,,,,,,,,,,,,,,,,,,,,,,,,,,,,,
295369,2022-09-20_22h37.49.725,vts_reward_expectancy,2022.2.4,Win32,59.87306909,Chrome,1366,768,,,l,0.8021,1,571,2,2,6,30,0,1,1,0,0,0,0,1,0,0,triangle,circle,,,,,,,,,,,,,,,,,,,,,,,,,,,,,,,,,,,,,,,,,,,,,,,,,,,,,,
295369,2022-09-20_22h37.49.725,vts_reward_expectancy,2022.2.4,Win32,59.87306909,Chrome,1366,768,,,a,0.7646,1,572,2,2,7,31,4,1,0,1,0,0,0,0,1,0,circle,hexagon,,,,,,,,,,,,,,,,,,,,,,,,,,,,,,,,,,,,,,,,,,,,,,,,,,,,,,
295369,2022-09-20_22h37.49.725,vts_reward_expectancy,2022.2.4,Win32,59.87306909,Chrome,1366,768,,,l,0.4226,1,573,2,2,8,32,7,1,0,0,1,0,0,1,0,0,hexagon,circle,,,,,,,,,,,,,,,,,,,,,,,,,,,,,,,,,,,,,,,,,,,,,,,,,,,,,,
295369,2022-09-20_22h37.49.725,vts_reward_expectancy,2022.2.4,Win32,59.87306909,Chrome,1366,768,,,l,0.3888,1,574,2,2,9,33,8,1,0,0,1,0,0,0,0,1,hexagon,star,,,,,,,,,,,,,,,,,,,,,,,,,,,,,,,,,,,,,,,,,,,,,,,,,,,,,,
295369,2022-09-20_22h37.49.725,vts_reward_expectancy,2022.2.4,Win32,59.87306909,Chrome,1366,768,,,l,0.5653,10,584,2,2,10,34,3,1,0,1,0,0,1,0,0,0,circle,triangle,,,,,,,,,,,,,,,,,,,,,,,,,,,,,,,,,,,,,,,,,,,,,,,,,,,,,,
295369,2022-09-20_22h37.49.725,vts_reward_expectancy,2022.2.4,Win32,59.87306909,Chrome,1366,768,,,a,1.2671,10,594,2,2,11,35,5,1,0,1,0,0,0,0,0,1,circle,star,,,,,,,,,,,,,,,,,,,,,,,,,,,,,,,,,,,,,,,,,,,,,,,,,,,,,,
295369,2022-09-20_22h37.49.725,vts_reward_expectancy,2022.2.4,Win32,59.87306909,Chrome,1366,768,,,,,,,,,,,,,,,,,,,,,,,H,160,hexagon,1,0,d,2.04,0,0,0,0,0,1,,,,,,,,,,,,,,,,,,,,,,,,,,,,,,,,,,,,,,,,,
295369,2022-09-20_22h37.49.725,vts_reward_expectancy,2022.2.4,Win32,59.87306909,Chrome,1366,768,,,,,,,,,,,,,,,,,,,,,,,U,167,triangle,1,0,f,0.869,0,1,0,1,0,1,,,,,,,,,,,,,,,,,,,,,,,,,,,,,,,,,,,,,,,,,
295369,2022-09-20_22h37.49.725,vts_reward_expectancy,2022.2.4,Win32,59.87306909,Chrome,1366,768,,,,,,,,,,,,,,,,,,,,,,,D,146,star,1,0,d,0.5502,0,2,0,2,0,1,,,,,,,,,,,,,,,,,,,,,,,,,,,,,,,,,,,,,,,,,
295369,2022-09-20_22h37.49.725,vts_reward_expectancy,2022.2.4,Win32,59.87306909,Chrome,1366,768,,,,,,,,,,,,,,,,,,,,,,,F,132,circle,1,0,d,1.2023,0,3,0,3,0,1,,,,,,,,,,,,,,,,,,,,,,,,,,,,,,,,,,,,,,,,,
295369,2022-09-20_22h37.49.725,vts_reward_expectancy,2022.2.4,Win32,59.87306909,Chrome,1366,768,,,,,,,,,,,,,,,,,,,,,,,W,174,hexagon,1,0,f,0.8214,0,4,0,4,0,1,,,,,,,,,,,,,,,,,,,,,,,,,,,,,,,,,,,,,,,,,
295369,2022-09-20_22h37.49.725,vts_reward_expectancy,2022.2.4,Win32,59.87306909,Chrome,1366,768,,,,,,,,,,,,,,,,,,,,,,,Y,125,triangle,1,0,f,0.9002,0,5,0,5,0,1,,,,,,,,,,,,,,,,,,,,,,,,,,,,,,,,,,,,,,,,,
295369,2022-09-20_22h37.49.725,vts_reward_expectancy,2022.2.4,Win32,59.87306909,Chrome,1366,768,,,,,,,,,,,,,,,,,,,,,,,S,139,star,1,0,f,1.0164,0,6,0,6,0,1,,,,,,,,,,,,,,,,,,,,,,,,,,,,,,,,,,,,,,,,,
295369,2022-09-20_22h37.49.725,vts_reward_expectancy,2022.2.4,Win32,59.87306909,Chrome,1366,768,,,,,,,,,,,,,,,,,,,,,,,B,181,circle,1,0,d,1.0358,0,7,0,7,0,1,,,,,,,,,,,,,,,,,,,,,,,,,,,,,,,,,,,,,,,,,
295369,2022-09-20_22h37.49.725,vts_reward_expectancy,2022.2.4,Win32,59.87306909,Chrome,1366,768,,,,,,,,,,,,,,,,,,,,,,,H,160,triangle,1,0,d,0.9666,0,8,0,8,0,1,,,,,,,,,,,,,,,,,,,,,,,,,,,,,,,,,,,,,,,,,
295369,2022-09-20_22h37.49.725,vts_reward_expectancy,2022.2.4,Win32,59.87306909,Chrome,1366,768,,,,,,,,,,,,,,,,,,,,,,,U,167,circle,1,0,f,0.8353,0,9,0,9,0,1,,,,,,,,,,,,,,,,,,,,,,,,,,,,,,,,,,,,,,,,,
295369,2022-09-20_22h37.49.725,vts_reward_expectancy,2022.2.4,Win32,59.87306909,Chrome,1366,768,,,,,,,,,,,,,,,,,,,,,,,D,181,star,1,0,,,1,,,,,,k,2.0824,0,0,0,0,1,,,,,,,,,,,,,,,,,,,,,,,,,,,,,,,,,,
295369,2022-09-20_22h37.49.725,vts_reward_expectancy,2022.2.4,Win32,59.87306909,Chrome,1366,768,,,,,,,,,,,,,,,,,,,,,,,B,160,hexagon,1,0,,,1,,,,,,k,1.7162,1,0,1,0,1,,,,,,,,,,,,,,,,,,,,,,,,,,,,,,,,,,
295369,2022-09-20_22h37.49.725,vts_reward_expectancy,2022.2.4,Win32,59.87306909,Chrome,1366,768,,,,,,,,,,,,,,,,,,,,,,,U,125,triangle,1,0,,,1,,,,,,j,2.0489,2,0,2,0,1,,,,,,,,,,,,,,,,,,,,,,,,,,,,,,,,,,
295369,2022-09-20_22h37.49.725,vts_reward_expectancy,2022.2.4,Win32,59.87306909,Chrome,1366,768,,,,,,,,,,,,,,,,,,,,,,,W,167,circle,1,0,,,1,,,,,,k,0.8159,3,0,3,0,1,,,,,,,,,,,,,,,,,,,,,,,,,,,,,,,,,,
295369,2022-09-20_22h37.49.725,vts_reward_expectancy,2022.2.4,Win32,59.87306909,Chrome,1366,768,,,,,,,,,,,,,,,,,,,,,,,F,146,star,1,0,,,1,,,,,,j,0.9022,4,0,4,0,1,,,,,,,,,,,,,,,,,,,,,,,,,,,,,,,,,,
295369,2022-09-20_22h37.49.725,vts_reward_expectancy,2022.2.4,Win32,59.87306909,Chrome,1366,768,,,,,,,,,,,,,,,,,,,,,,,H,132,hexagon,1,0,,,1,,,,,,j,0.8499,5,0,5,0,1,,,,,,,,,,,,,,,,,,,,,,,,,,,,,,,,,,
295369,2022-09-20_22h37.49.725,vts_reward_expectancy,2022.2.4,Win32,59.87306909,Chrome,1366,768,,,,,,,,,,,,,,,,,,,,,,,S,174,triangle,1,0,,,1,,,,,,k,0.6104,6,0,6,0,1,,,,,,,,,,,,,,,,,,,,,,,,,,,,,,,,,,
295369,2022-09-20_22h37.49.725,vts_reward_expectancy,2022.2.4,Win32,59.87306909,Chrome,1366,768,,,,,,,,,,,,,,,,,,,,,,,Y,139,circle,1,0,,,1,,,,,,j,1.2555,7,0,7,0,1,,,,,,,,,,,,,,,,,,,,,,,,,,,,,,,,,,
295369,2022-09-20_22h37.49.725,vts_reward_expectancy,2022.2.4,Win32,59.87306909,Chrome,1366,768,,,,,,,,,,,,,,,,,,,,,,,D,181,star,1,0,,,1,,,,,,k,0.8078,8,0,8,0,1,,,,,,,,,,,,,,,,,,,,,,,,,,,,,,,,,,
295369,2022-09-20_22h37.49.725,vts_reward_expectancy,2022.2.4,Win32,59.87306909,Chrome,1366,768,,,,,,,,,,,,,,,,,,,,,,,B,160,triangle,1,0,,,1,,,,,,k,0.669,9,0,9,0,1,,,,,,,,,,,,,,,,,,,,,,,,,,,,,,,,,,
295369,2022-09-20_22h37.49.725,vts_reward_expectancy,2022.2.4,Win32,59.87306909,Chrome,1366,768,,,,,0,594,,,,,,,,,,,,,,,,,H,139,circle,1,0,,,2,,,,,,,,,,,,,-1,letter,NA,d,2.8718,vtsPrac,0,0,0,0,1,,,,,,,,,,,,,,,,,,,,,,,
295369,2022-09-20_22h37.49.725,vts_reward_expectancy,2022.2.4,Win32,59.87306909,Chrome,1366,768,,,,,0,594,,,,,,,,,,,,,,,,,W,125,triangle,1,0,,,2,,,,,,,,,,,,,repeat,letter,lettRpt,f,1.1576,vtsPrac,1,0,1,0,1,,,,,,,,,,,,,,,,,,,,,,,
295369,2022-09-20_22h37.49.725,vts_reward_expectancy,2022.2.4,Win32,59.87306909,Chrome,1366,768,,,,,0,594,,,,,,,,,,,,,,,,,U,132,circle,1,0,,,2,,,,,,,,,,,,,repeat,letter,lettRpt,f,0.9531,vtsPrac,2,0,2,0,1,,,,,,,,,,,,,,,,,,,,,,,
295369,2022-09-20_22h37.49.725,vts_reward_expectancy,2022.2.4,Win32,59.87306909,Chrome,1366,768,,,,,0,594,,,,,,,,,,,,,,,,,Y,167,triangle,1,0,,,2,,,,,,,,,,,,,repeat,letter,lettRpt,f,0.9016,vtsPrac,3,0,3,0,1,,,,,,,,,,,,,,,,,,,,,,,
295369,2022-09-20_22h37.49.725,vts_reward_expectancy,2022.2.4,Win32,59.87306909,Chrome,1366,768,,,,,0,594,,,,,,,,,,,,,,,,,H,139,star,1,0,,,2,,,,,,,,,,,,,repeat,letter,lettRpt,d,2.1202,vtsPrac,4,0,4,0,1,,,,,,,,,,,,,,,,,,,,,,,
295369,2022-09-20_22h37.49.725,vts_reward_expectancy,2022.2.4,Win32,59.87306909,Chrome,1366,768,,,,,0,594,,,,,,,,,,,,,,,,,W,125,circle,1,0,,,2,,,,,,,,,,,,,switch,number,numSwt,j,1.5202,vtsPrac,5,0,5,0,1,,,,,,,,,,,,,,,,,,,,,,,
295369,2022-09-20_22h37.49.725,vts_reward_expectancy,2022.2.4,Win32,59.87306909,Chrome,1366,768,,,,,0,594,,,,,,,,,,,,,,,,,U,132,triangle,1,0,,,2,,,,,,,,,,,,,repeat,number,numRpt,j,0.9238,vtsPrac,6,0,6,0,1,,,,,,,,,,,,,,,,,,,,,,,
295369,2022-09-20_22h37.49.725,vts_reward_expectancy,2022.2.4,Win32,59.87306909,Chrome,1366,768,,,,,0,594,,,,,,,,,,,,,,,,,Y,167,star,1,0,,,2,,,,,,,,,,,,,repeat,number,numRpt,k,0.5924,vtsPrac,7,0,7,0,1,,,,,,,,,,,,,,,,,,,,,,,
295369,2022-09-20_22h37.49.725,vts_reward_expectancy,2022.2.4,Win32,59.87306909,Chrome,1366,768,,,,,0,594,,,,,,,,,,,,,,,,,U,125,triangle,1,0,,,2,,,,,,,,,,,,,repeat,number,numRpt,j,0.752,vtsPrac,8,0,8,0,1,,,,,,,,,,,,,,,,,,,,,,,
295369,2022-09-20_22h37.49.725,vts_reward_expectancy,2022.2.4,Win32,59.87306909,Chrome,1366,768,,,,,0,594,,,,,,,,,,,,,,,,,H,146,star,1,0,,,2,,,,,,,,,,,,,repeat,number,numRpt,j,0.8777,vtsPrac,9,0,9,0,1,,,,,,,,,,,,,,,,,,,,,,,
295369,2022-09-20_22h37.49.725,vts_reward_expectancy,2022.2.4,Win32,59.87306909,Chrome,1366,768,,,,,0,594,,,,,,,,,,,,,,,,,W,139,hexagon,0,0,,,2,,,,,,,,,,,,,switch,letter,NA,d,1.3599,vtsPrac,10,0,10,0,1,,,,,,,,,,,,,,,,,,,,,,,
295369,2022-09-20_22h37.49.725,vts_reward_expectancy,2022.2.4,Win32,59.87306909,Chrome,1366,768,,,,,0,594,,,,,,,,,,,,,,,,,D,167,star,1,1,,,2,,,,,,,,,,,,,repeat,letter,lettRpt,d,1.7834,vtsPrac,11,0,11,0,1,,,,,,,,,,,,,,,,,,,,,,,
295369,2022-09-20_22h37.49.725,vts_reward_expectancy,2022.2.4,Win32,59.87306909,Chrome,1366,768,,,,,0,594,,,,,,,,,,,,,,,,,Y,125,hexagon,1,0,,,2,,,,,,,,,,,,,repeat,letter,lettRpt,f,1.8818,vtsPrac,12,0,12,0,1,,,,,,,,,,,,,,,,,,,,,,,
295369,2022-09-20_22h37.49.725,vts_reward_expectancy,2022.2.4,Win32,59.87306909,Chrome,1366,768,,,,,0,594,,,,,,,,,,,,,,,,,F,167,triangle,1,0,,,2,,,,,,,,,,,,,repeat,letter,lettRpt,d,1.0099,vtsPrac,13,0,13,0,1,,,,,,,,,,,,,,,,,,,,,,,
295369,2022-09-20_22h37.49.725,vts_reward_expectancy,2022.2.4,Win32,59.87306909,Chrome,1366,768,,,,,0,594,,,,,,,,,,,,,,,,,B,160,triangle,1,0,,,2,,,,,,,,,,,,,switch,number,numSwt,k,0.8546,vtsPrac,14,0,14,0,1,,,,,,,,,,,,,,,,,,,,,,,
295369,2022-09-20_22h37.49.725,vts_reward_expectancy,2022.2.4,Win32,59.87306909,Chrome,1366,768,,,,,0,594,,,,,,,,,,,,,,,,,W,132,star,1,0,,,2,,,,,,,,,,,,,repeat,number,numRpt,j,1.5042,vtsPrac,15,0,15,0,1,,,,,,,,,,,,,,,,,,,,,,,
295369,2022-09-20_22h37.49.725,vts_reward_expectancy,2022.2.4,Win32,59.87306909,Chrome,1366,768,,,,,0,594,,,,,,,,,,,,,,,,,Y,160,star,1,0,,,3,,,,,,,,,,,,,switch,letter,lettSwt,f,1.4829,vtsPrac,0,0,0,0,1,,,,,,,,,,,,,,,,,,,,,,,
295369,2022-09-20_22h37.49.725,vts_reward_expectancy,2022.2.4,Win32,59.87306909,Chrome,1366,768,,,,,0,594,,,,,,,,,,,,,,,,,B,132,circle,1,0,,,3,,,,,,,,,,,,,switch,number,numSwt,j,1.4003,vtsPrac,1,0,1,0,1,,,,,,,,,,,,,,,,,,,,,,,
295369,2022-09-20_22h37.49.725,vts_reward_expectancy,2022.2.4,Win32,59.87306909,Chrome,1366,768,,,,,0,594,,,,,,,,,,,,,,,,,F,174,star,1,0,,,3,,,,,,,,,,,,,switch,letter,lettSwt,d,2.2147,vtsPrac,2,0,2,0,1,,,,,,,,,,,,,,,,,,,,,,,
295369,2022-09-20_22h37.49.725,vts_reward_expectancy,2022.2.4,Win32,59.87306909,Chrome,1366,768,,,,,0,594,,,,,,,,,,,,,,,,,H,139,circle,1,0,,,3,,,,,,,,,,,,,repeat,letter,lettRpt,d,1.4716,vtsPrac,3,0,3,0,1,,,,,,,,,,,,,,,,,,,,,,,
295369,2022-09-20_22h37.49.725,vts_reward_expectancy,2022.2.4,Win32,59.87306909,Chrome,1366,768,,,,,0,594,,,,,,,,,,,,,,,,,Y,160,circle,1,0,,,3,,,,,,,,,,,,,repeat,letter,lettRpt,f,0.9172,vtsPrac,4,0,4,0,1,,,,,,,,,,,,,,,,,,,,,,,
295369,2022-09-20_22h37.49.725,vts_reward_expectancy,2022.2.4,Win32,59.87306909,Chrome,1366,768,,,,,0,594,,,,,,,,,,,,,,,,,B,132,triangle,1,0,,,3,,,,,,,,,,,,,repeat,letter,lettRpt,d,0.6718,vtsPrac,5,0,5,0,1,,,,,,,,,,,,,,,,,,,,,,,
295369,2022-09-20_22h37.49.725,vts_reward_expectancy,2022.2.4,Win32,59.87306909,Chrome,1366,768,,,,,0,594,,,,,,,,,,,,,,,,,F,174,circle,1,0,,,3,,,,,,,,,,,,,switch,number,numSwt,k,0.9432,vtsPrac,6,0,6,0,1,,,,,,,,,,,,,,,,,,,,,,,
295369,2022-09-20_22h37.49.725,vts_reward_expectancy,2022.2.4,Win32,59.87306909,Chrome,1366,768,,,,,0,594,,,,,,,,,,,,,,,,,H,139,star,1,0,,,3,,,,,,,,,,,,,repeat,number,numRpt,j,0.8832,vtsPrac,7,0,7,0,1,,,,,,,,,,,,,,,,,,,,,,,
295369,2022-09-20_22h37.49.725,vts_reward_expectancy,2022.2.4,Win32,59.87306909,Chrome,1366,768,,,,,0,594,,,,,,,,,,,,,,,,,Y,146,circle,1,0,,,3,,,,,,,,,,,,,repeat,number,numRpt,j,0.8274,vtsPrac,8,0,8,0,1,,,,,,,,,,,,,,,,,,,,,,,
295369,2022-09-20_22h37.49.725,vts_reward_expectancy,2022.2.4,Win32,59.87306909,Chrome,1366,768,,,,,0,594,,,,,,,,,,,,,,,,,F,132,star,1,0,,,3,,,,,,,,,,,,,repeat,number,numRpt,j,0.8852,vtsPrac,9,0,9,0,1,,,,,,,,,,,,,,,,,,,,,,,
295369,2022-09-20_22h37.49.725,vts_reward_expectancy,2022.2.4,Win32,59.87306909,Chrome,1366,768,,,,,0,594,,,,,,,,,,,,,,,,,U,174,hexagon,1,0,,,3,,,,,,,,,,,,,switch,letter,lettSwt,f,1.9566,vtsPrac,10,0,10,0,1,,,,,,,,,,,,,,,,,,,,,,,
295369,2022-09-20_22h37.49.725,vts_reward_expectancy,2022.2.4,Win32,59.87306909,Chrome,1366,768,,,,,0,594,,,,,,,,,,,,,,,,,B,139,triangle,1,0,,,3,,,,,,,,,,,,,repeat,letter,lettRpt,d,1.283,vtsPrac,11,0,11,0,1,,,,,,,,,,,,,,,,,,,,,,,
295369,2022-09-20_22h37.49.725,vts_reward_expectancy,2022.2.4,Win32,59.87306909,Chrome,1366,768,,,,,0,594,,,,,,,,,,,,,,,,,H,146,triangle,1,0,,,3,,,,,,,,,,,,,switch,number,numSwt,j,2.3998,vtsPrac,12,0,12,0,1,,,,,,,,,,,,,,,,,,,,,,,
295369,2022-09-20_22h37.49.725,vts_reward_expectancy,2022.2.4,Win32,59.87306909,Chrome,1366,768,,,,,0,594,,,,,,,,,,,,,,,,,D,132,star,1,0,,,3,,,,,,,,,,,,,repeat,number,numRpt,j,1.5105,vtsPrac,13,0,13,0,1,,,,,,,,,,,,,,,,,,,,,,,
295369,2022-09-20_22h37.49.725,vts_reward_expectancy,2022.2.4,Win32,59.87306909,Chrome,1366,768,,,,,0,594,,,,,,,,,,,,,,,,,W,181,circle,1,0,,,3,,,,,,,,,,,,,switch,letter,lettSwt,f,0.9353,vtsPrac,14,0,14,0,1,,,,,,,,,,,,,,,,,,,,,,,
295369,2022-09-20_22h37.49.725,vts_reward_expectancy,2022.2.4,Win32,59.87306909,Chrome,1366,768,,,,,0,594,,,,,,,,,,,,,,,,,Y,167,hexagon,1,0,,,3,,,,,,,,,,,,,switch,number,numSwt,k,1.8774,vtsPrac,15,0,15,0,1,,,,,,,,,,,,,,,,,,,,,,,
295369,2022-09-20_22h37.49.725,vts_reward_expectancy,2022.2.4,Win32,59.87306909,Chrome,1366,768,,,,,,,,,,,,,,,,,,,,,,,,,,,,,,,,,,,,,,,,,,,,,,,,,,,,,,,,,,,,,,,,,,,,,,,,,,,,
295369,2022-09-20_22h37.49.725,vts_reward_expectancy,2022.2.4,Win32,59.87306909,Chrome,1366,768,,,,,,,,,,,,,,,,,,,,,,,,,,,,,,,,,,,,,,,,,,,,,,,,,,,,,,,,,,,,,,,,,,,,,,,,,,,,
295369,2022-09-20_22h37.49.725,vts_reward_expectancy,2022.2.4,Win32,59.87306909,Chrome,1366,768,,,,,0,594,,,,,,,,,,,,,,,,,W,146,star,1,0,,,,,,,,,,,,,,,,switch,letter,lettSwt,f,1.989,noRew,,,,,,0,0,0,0,0,1,,,,,,,,,,,,,,,,,
295369,2022-09-20_22h37.49.725,vts_reward_expectancy,2022.2.4,Win32,59.87306909,Chrome,1366,768,,,,,0,594,,,,,,,,,,,,,,,,,U,167,circle,-1,0,,,,,,,,,,,,,,,,switch,no_choice,NA,,,noRew,,,,,,0,1,0,1,0,1,,,,,,,,,,,,,,,,,
295369,2022-09-20_22h37.49.725,vts_reward_expectancy,2022.2.4,Win32,59.87306909,Chrome,1366,768,,,,,0,594,,,,,,,,,,,,,,,,,F,174,star,1,0,,,,,,,,,,,,,,,,switch,letter,lettSwt,d,1.2265,noRew,,,,,,0,2,0,2,0,1,,,,,,,,,,,,,,,,,
295369,2022-09-20_22h37.49.725,vts_reward_expectancy,2022.2.4,Win32,59.87306909,Chrome,1366,768,,,,,0,594,,,,,,,,,,,,,,,,,Y,125,circle,1,0,,,,,,,,,,,,,,,,repeat,letter,lettRpt,f,0.9756,noRew,,,,,,0,3,0,3,0,1,,,,,,,,,,,,,,,,,
295369,2022-09-20_22h37.49.725,vts_reward_expectancy,2022.2.4,Win32,59.87306909,Chrome,1366,768,,,,,0,594,,,,,,,,,,,,,,,,,W,146,circle,1,0,,,,,,,,,,,,,,,,repeat,letter,lettRpt,f,1.2403,noRew,,,,,,0,4,0,4,0,1,,,,,,,,,,,,,,,,,
295369,2022-09-20_22h37.49.725,vts_reward_expectancy,2022.2.4,Win32,59.87306909,Chrome,1366,768,,,,,0,594,,,,,,,,,,,,,,,,,U,167,triangle,1,0,,,,,,,,,,,,,,,,repeat,letter,lettRpt,f,0.6494,noRew,,,,,,0,5,0,5,0,1,,,,,,,,,,,,,,,,,
295369,2022-09-20_22h37.49.725,vts_reward_expectancy,2022.2.4,Win32,59.87306909,Chrome,1366,768,,,,,0,594,,,,,,,,,,,,,,,,,F,174,triangle,1,0,,,,,,,,,,,,,,,,switch,number,numSwt,k,0.7888,noRew,,,,,,0,6,0,6,0,1,,,,,,,,,,,,,,,,,
295369,2022-09-20_22h37.49.725,vts_reward_expectancy,2022.2.4,Win32,59.87306909,Chrome,1366,768,,,,,0,594,,,,,,,,,,,,,,,,,Y,125,hexagon,1,0,,,,,,,,,,,,,,,,repeat,number,numRpt,j,0.9098,noRew,,,,,,0,7,0,7,0,1,,,,,,,,,,,,,,,,,
295369,2022-09-20_22h37.49.725,vts_reward_expectancy,2022.2.4,Win32,59.87306909,Chrome,1366,768,,,,,0,594,,,,,,,,,,,,,,,,,F,174,hexagon,1,0,,,,,,,,,,,,,,,,repeat,number,numRpt,k,1.1326,noRew,,,,,,0,8,0,8,0,1,,,,,,,,,,,,,,,,,
295369,2022-09-20_22h37.49.725,vts_reward_expectancy,2022.2.4,Win32,59.87306909,Chrome,1366,768,,,,,0,594,,,,,,,,,,,,,,,,,S,146,star,1,0,,,,,,,,,,,,,,,,repeat,number,numRpt,j,0.7671,noRew,,,,,,0,9,0,9,0,1,,,,,,,,,,,,,,,,,
295369,2022-09-20_22h37.49.725,vts_reward_expectancy,2022.2.4,Win32,59.87306909,Chrome,1366,768,,,,,0,594,,,,,,,,,,,,,,,,,Y,160,hexagon,1,0,,,,,,,,,,,,,,,,repeat,number,numRpt,k,0.6872,noRew,,,,,,0,10,0,10,0,1,,,,,,,,,,,,,,,,,
295369,2022-09-20_22h37.49.725,vts_reward_expectancy,2022.2.4,Win32,59.87306909,Chrome,1366,768,,,,,0,594,,,,,,,,,,,,,,,,,H,125,circle,1,0,,,,,,,,,,,,,,,,switch,letter,lettSwt,d,0.851,noRew,,,,,,0,11,0,11,0,1,,,,,,,,,,,,,,,,,
295369,2022-09-20_22h37.49.725,vts_reward_expectancy,2022.2.4,Win32,59.87306909,Chrome,1366,768,,,,,0,594,,,,,,,,,,,,,,,,,Y,167,triangle,1,0,,,,,,,,,,,,,,,,repeat,letter,lettRpt,f,1.1014,noRew,,,,,,0,12,0,12,0,1,,,,,,,,,,,,,,,,,
295369,2022-09-20_22h37.49.725,vts_reward_expectancy,2022.2.4,Win32,59.87306909,Chrome,1366,768,,,,,0,594,,,,,,,,,,,,,,,,,U,181,circle,1,0,,,,,,,,,,,,,,,,repeat,letter,lettRpt,f,0.9678,noRew,,,,,,0,13,0,13,0,1,,,,,,,,,,,,,,,,,
295369,2022-09-20_22h37.49.725,vts_reward_expectancy,2022.2.4,Win32,59.87306909,Chrome,1366,768,,,,,0,594,,,,,,,,,,,,,,,,,W,125,star,1,0,,,,,,,,,,,,,,,,switch,number,numSwt,j,1.2755,noRew,,,,,,0,14,0,14,0,1,,,,,,,,,,,,,,,,,
295369,2022-09-20_22h37.49.725,vts_reward_expectancy,2022.2.4,Win32,59.87306909,Chrome,1366,768,,,,,0,594,,,,,,,,,,,,,,,,,B,174,hexagon,1,0,,,,,,,,,,,,,,,,repeat,number,numRpt,k,1.3747,noRew,,,,,,0,15,0,15,0,1,,,,,,,,,,,,,,,,,
295369,2022-09-20_22h37.49.725,vts_reward_expectancy,2022.2.4,Win32,59.87306909,Chrome,1366,768,,,,,0,594,,,,,,,,,,,,,,,,,W,181,star,1,0,,,,,,,,,,,,,,,,repeat,number,numRpt,k,0.966,noRew,,,,,,0,16,0,16,0,1,,,,,,,,,,,,,,,,,
295369,2022-09-20_22h37.49.725,vts_reward_expectancy,2022.2.4,Win32,59.87306909,Chrome,1366,768,,,,,0,594,,,,,,,,,,,,,,,,,H,146,circle,1,0,,,,,,,,,,,,,,,,repeat,number,numRpt,j,1.0062,noRew,,,,,,0,17,0,17,0,1,,,,,,,,,,,,,,,,,
295369,2022-09-20_22h37.49.725,vts_reward_expectancy,2022.2.4,Win32,59.87306909,Chrome,1366,768,,,,,0,594,,,,,,,,,,,,,,,,,B,139,star,1,0,,,,,,,,,,,,,,,,switch,letter,lettSwt,d,1.8002,noRew,,,,,,0,18,0,18,0,1,,,,,,,,,,,,,,,,,
295369,2022-09-20_22h37.49.725,vts_reward_expectancy,2022.2.4,Win32,59.87306909,Chrome,1366,768,,,,,0,594,,,,,,,,,,,,,,,,,D,132,hexagon,1,0,,,,,,,,,,,,,,,,repeat,letter,lettRpt,d,1.4431,noRew,,,,,,0,19,0,19,0,1,,,,,,,,,,,,,,,,,
295369,2022-09-20_22h37.49.725,vts_reward_expectancy,2022.2.4,Win32,59.87306909,Chrome,1366,768,,,,,0,594,,,,,,,,,,,,,,,,,U,132,star,1,0,,,,,,,,,,,,,,,,repeat,letter,lettRpt,f,0.8766,noRew,,,,,,0,20,0,20,0,1,,,,,,,,,,,,,,,,,
295369,2022-09-20_22h37.49.725,vts_reward_expectancy,2022.2.4,Win32,59.87306909,Chrome,1366,768,,,,,0,594,,,,,,,,,,,,,,,,,F,139,circle,1,0,,,,,,,,,,,,,,,,repeat,letter,lettRpt,d,0.9382,noRew,,,,,,0,21,0,21,0,1,,,,,,,,,,,,,,,,,
295369,2022-09-20_22h37.49.725,vts_reward_expectancy,2022.2.4,Win32,59.87306909,Chrome,1366,768,,,,,0,594,,,,,,,,,,,,,,,,,D,160,hexagon,1,0,,,,,,,,,,,,,,,,switch,number,numSwt,k,1.8873,noRew,,,,,,0,22,0,22,0,1,,,,,,,,,,,,,,,,,
295369,2022-09-20_22h37.49.725,vts_reward_expectancy,2022.2.4,Win32,59.87306909,Chrome,1366,768,,,,,0,594,,,,,,,,,,,,,,,,,W,167,star,1,0,,,,,,,,,,,,,,,,repeat,number,numRpt,k,1.1863,noRew,,,,,,0,23,0,23,0,1,,,,,,,,,,,,,,,,,
295369,2022-09-20_22h37.49.725,vts_reward_expectancy,2022.2.4,Win32,59.87306909,Chrome,1366,768,,,,,0,594,,,,,,,,,,,,,,,,,U,174,triangle,1,0,,,,,,,,,,,,,,,,repeat,number,numRpt,k,0.1679,noRew,,,,,,0,24,0,24,0,1,,,,,,,,,,,,,,,,,
295369,2022-09-20_22h37.49.725,vts_reward_expectancy,2022.2.4,Win32,59.87306909,Chrome,1366,768,,,,,0,594,,,,,,,,,,,,,,,,,H,167,circle,1,0,,,,,,,,,,,,,,,,repeat,number,numRpt,k,0.8172,noRew,,,,,,0,25,0,25,0,1,,,,,,,,,,,,,,,,,
295369,2022-09-20_22h37.49.725,vts_reward_expectancy,2022.2.4,Win32,59.87306909,Chrome,1366,768,,,,,0,594,,,,,,,,,,,,,,,,,S,125,triangle,1,0,,,,,,,,,,,,,,,,repeat,number,numRpt,j,0.9068,noRew,,,,,,0,26,0,26,0,1,,,,,,,,,,,,,,,,,
295369,2022-09-20_22h37.49.725,vts_reward_expectancy,2022.2.4,Win32,59.87306909,Chrome,1366,768,,,,,0,594,,,,,,,,,,,,,,,,,B,132,star,1,0,,,,,,,,,,,,,,,,switch,letter,lettSwt,d,1.0439,noRew,,,,,,0,27,0,27,0,1,,,,,,,,,,,,,,,,,
295369,2022-09-20_22h37.49.725,vts_reward_expectancy,2022.2.4,Win32,59.87306909,Chrome,1366,768,,,,,0,594,,,,,,,,,,,,,,,,,U,146,circle,1,0,,,,,,,,,,,,,,,,repeat,letter,lettRpt,f,1.1497,noRew,,,,,,0,28,0,28,0,1,,,,,,,,,,,,,,,,,
295369,2022-09-20_22h37.49.725,vts_reward_expectancy,2022.2.4,Win32,59.87306909,Chrome,1366,768,,,,,0,594,,,,,,,,,,,,,,,,,S,125,triangle,1,0,,,,,,,,,,,,,,,,repeat,letter,lettRpt,f,1.1829,noRew,,,,,,0,29,0,29,0,1,,,,,,,,,,,,,,,,,
295369,2022-09-20_22h37.49.725,vts_reward_expectancy,2022.2.4,Win32,59.87306909,Chrome,1366,768,,,,,0,594,,,,,,,,,,,,,,,,,Y,181,star,1,0,,,,,,,,,,,,,,,,repeat,letter,lettRpt,f,0.7093,noRew,,,,,,0,30,0,30,0,1,,,,,,,,,,,,,,,,,
295369,2022-09-20_22h37.49.725,vts_reward_expectancy,2022.2.4,Win32,59.87306909,Chrome,1366,768,,,,,0,594,,,,,,,,,,,,,,,,,F,132,triangle,1,0,,,,,,,,,,,,,,,,repeat,letter,lettRpt,d,0.7336,noRew,,,,,,0,31,0,31,0,1,,,,,,,,,,,,,,,,,
295369,2022-09-20_22h37.49.725,vts_reward_expectancy,2022.2.4,Win32,59.87306909,Chrome,1366,768,,,,,0,594,,,,,,,,,,,,,,,,,W,160,hexagon,1,0,,,,,,,,,,,,,,,,switch,number,numSwt,k,1.4881,noRew,,,,,,0,32,0,32,0,1,,,,,,,,,,,,,,,,,
295369,2022-09-20_22h37.49.725,vts_reward_expectancy,2022.2.4,Win32,59.87306909,Chrome,1366,768,,,,,0,594,,,,,,,,,,,,,,,,,U,167,circle,1,0,,,,,,,,,,,,,,,,repeat,number,numRpt,k,1.6841,noRew,,,,,,0,33,0,33,0,1,,,,,,,,,,,,,,,,,
295369,2022-09-20_22h37.49.725,vts_reward_expectancy,2022.2.4,Win32,59.87306909,Chrome,1366,768,,,,,0,594,,,,,,,,,,,,,,,,,S,174,triangle,1,0,,,,,,,,,,,,,,,,repeat,number,numRpt,k,1.1355,noRew,,,,,,0,34,0,34,0,1,,,,,,,,,,,,,,,,,
295369,2022-09-20_22h37.49.725,vts_reward_expectancy,2022.2.4,Win32,59.87306909,Chrome,1366,768,,,,,0,594,,,,,,,,,,,,,,,,,H,146,hexagon,1,0,,,,,,,,,,,,,,,,repeat,number,numRpt,j,0.9087,noRew,,,,,,0,35,0,35,0,1,,,,,,,,,,,,,,,,,
295369,2022-09-20_22h37.49.725,vts_reward_expectancy,2022.2.4,Win32,59.87306909,Chrome,1366,768,,,,,0,594,,,,,,,,,,,,,,,,,S,146,hexagon,1,0,,,,,,,,,,,,,,,,repeat,number,numRpt,j,1.1701,noRew,,,,,,0,36,0,36,0,1,,,,,,,,,,,,,,,,,
295369,2022-09-20_22h37.49.725,vts_reward_expectancy,2022.2.4,Win32,59.87306909,Chrome,1366,768,,,,,0,594,,,,,,,,,,,,,,,,,H,125,triangle,1,0,,,,,,,,,,,,,,,,repeat,number,numRpt,j,1.3358,noRew,,,,,,0,37,0,37,0,1,,,,,,,,,,,,,,,,,
295369,2022-09-20_22h37.49.725,vts_reward_expectancy,2022.2.4,Win32,59.87306909,Chrome,1366,768,,,,,0,594,,,,,,,,,,,,,,,,,Y,174,star,1,0,,,,,,,,,,,,,,,,repeat,number,numRpt,k,0.9351,noRew,,,,,,0,38,0,38,0,1,,,,,,,,,,,,,,,,,
295369,2022-09-20_22h37.49.725,vts_reward_expectancy,2022.2.4,Win32,59.87306909,Chrome,1366,768,,,,,0,594,,,,,,,,,,,,,,,,,U,181,triangle,0,0,,,,,,,,,,,,,,,,switch,letter,NA,d,1.782,noRew,,,,,,0,39,0,39,0,1,,,,,,,,,,,,,,,,,
295369,2022-09-20_22h37.49.725,vts_reward_expectancy,2022.2.4,Win32,59.87306909,Chrome,1366,768,,,,,0,594,,,,,,,,,,,,,,,,,U,132,hexagon,1,1,,,,,,,,,,,,,,,,repeat,letter,lettRpt,f,1.5025,noRew,,,,,,0,40,0,40,0,1,,,,,,,,,,,,,,,,,
295369,2022-09-20_22h37.49.725,vts_reward_expectancy,2022.2.4,Win32,59.87306909,Chrome,1366,768,,,,,0,594,,,,,,,,,,,,,,,,,F,146,triangle,1,0,,,,,,,,,,,,,,,,repeat,letter,lettRpt,d,1.5095,noRew,,,,,,0,41,0,41,0,1,,,,,,,,,,,,,,,,,
295369,2022-09-20_22h37.49.725,vts_reward_expectancy,2022.2.4,Win32,59.87306909,Chrome,1366,768,,,,,0,594,,,,,,,,,,,,,,,,,H,139,hexagon,1,0,,,,,,,,,,,,,,,,repeat,letter,lettRpt,d,1.1097,noRew,,,,,,0,42,0,42,0,1,,,,,,,,,,,,,,,,,
295369,2022-09-20_22h37.49.725,vts_reward_expectancy,2022.2.4,Win32,59.87306909,Chrome,1366,768,,,,,0,594,,,,,,,,,,,,,,,,,D,167,circle,1,0,,,,,,,,,,,,,,,,repeat,letter,lettRpt,d,0.75,noRew,,,,,,0,43,0,43,0,1,,,,,,,,,,,,,,,,,
295369,2022-09-20_22h37.49.725,vts_reward_expectancy,2022.2.4,Win32,59.87306909,Chrome,1366,768,,,,,0,594,,,,,,,,,,,,,,,,,D,125,hexagon,1,0,,,,,,,,,,,,,,,,repeat,letter,lettRpt,d,0.7173,noRew,,,,,,0,44,0,44,0,1,,,,,,,,,,,,,,,,,
295369,2022-09-20_22h37.49.725,vts_reward_expectancy,2022.2.4,Win32,59.87306909,Chrome,1366,768,,,,,0,594,,,,,,,,,,,,,,,,,S,139,star,1,0,,,,,,,,,,,,,,,,repeat,letter,lettRpt,f,0.9684,noRew,,,,,,0,45,0,45,0,1,,,,,,,,,,,,,,,,,
295369,2022-09-20_22h37.49.725,vts_reward_expectancy,2022.2.4,Win32,59.87306909,Chrome,1366,768,,,,,0,594,,,,,,,,,,,,,,,,,W,167,triangle,1,0,,,,,,,,,,,,,,,,switch,number,numSwt,k,1.37,noRew,,,,,,0,46,0,46,0,1,,,,,,,,,,,,,,,,,
295369,2022-09-20_22h37.49.725,vts_reward_expectancy,2022.2.4,Win32,59.87306909,Chrome,1366,768,,,,,0,594,,,,,,,,,,,,,,,,,H,146,hexagon,1,0,,,,,,,,,,,,,,,,repeat,number,numRpt,j,0.791,noRew,,,,,,0,47,0,47,0,1,,,,,,,,,,,,,,,,,
295369,2022-09-20_22h37.49.725,vts_reward_expectancy,2022.2.4,Win32,59.87306909,Chrome,1366,768,,,,,0,594,,,,,,,,,,,,,,,,,B,125,triangle,1,0,,,,,,,,,,,,,,,,repeat,number,numRpt,j,0.9003,noRew,,,,,,0,48,0,48,0,1,,,,,,,,,,,,,,,,,
295369,2022-09-20_22h37.49.725,vts_reward_expectancy,2022.2.4,Win32,59.87306909,Chrome,1366,768,,,,,0,594,,,,,,,,,,,,,,,,,W,174,circle,1,0,,,,,,,,,,,,,,,,repeat,number,numRpt,k,0.6884,noRew,,,,,,0,49,0,49,0,1,,,,,,,,,,,,,,,,,
295369,2022-09-20_22h37.49.725,vts_reward_expectancy,2022.2.4,Win32,59.87306909,Chrome,1366,768,,,,,0,594,,,,,,,,,,,,,,,,,U,167,star,1,0,,,,,,,,,,,,,,,,switch,letter,lettSwt,f,1.4494,noRew,,,,,,0,50,0,50,0,1,,,,,,,,,,,,,,,,,
295369,2022-09-20_22h37.49.725,vts_reward_expectancy,2022.2.4,Win32,59.87306909,Chrome,1366,768,,,,,0,594,,,,,,,,,,,,,,,,,D,132,hexagon,1,0,,,,,,,,,,,,,,,,repeat,letter,lettRpt,d,0.8169,noRew,,,,,,0,51,0,51,0,1,,,,,,,,,,,,,,,,,
295369,2022-09-20_22h37.49.725,vts_reward_expectancy,2022.2.4,Win32,59.87306909,Chrome,1366,768,,,,,0,594,,,,,,,,,,,,,,,,,F,174,star,1,0,,,,,,,,,,,,,,,,repeat,letter,lettRpt,d,0.7006,noRew,,,,,,0,52,0,52,0,1,,,,,,,,,,,,,,,,,
295369,2022-09-20_22h37.49.725,vts_reward_expectancy,2022.2.4,Win32,59.87306909,Chrome,1366,768,,,,,0,594,,,,,,,,,,,,,,,,,B,132,hexagon,1,0,,,,,,,,,,,,,,,,repeat,letter,lettRpt,d,0.5576,noRew,,,,,,0,53,0,53,0,1,,,,,,,,,,,,,,,,,
295369,2022-09-20_22h37.49.725,vts_reward_expectancy,2022.2.4,Win32,59.87306909,Chrome,1366,768,,,,,0,594,,,,,,,,,,,,,,,,,U,139,hexagon,0,0,,,,,,,,,,,,,,,,switch,number,NA,k,1.8176,noRew,,,,,,0,54,0,54,0,1,,,,,,,,,,,,,,,,,
295369,2022-09-20_22h37.49.725,vts_reward_expectancy,2022.2.4,Win32,59.87306909,Chrome,1366,768,,,,,0,594,,,,,,,,,,,,,,,,,D,167,circle,1,1,,,,,,,,,,,,,,,,repeat,number,numRpt,k,1.5728,noRew,,,,,,0,55,0,55,0,1,,,,,,,,,,,,,,,,,
295369,2022-09-20_22h37.49.725,vts_reward_expectancy,2022.2.4,Win32,59.87306909,Chrome,1366,768,,,,,0,594,,,,,,,,,,,,,,,,,S,174,star,1,0,,,,,,,,,,,,,,,,repeat,number,numRpt,k,0.7005,noRew,,,,,,0,56,0,56,0,1,,,,,,,,,,,,,,,,,
295369,2022-09-20_22h37.49.725,vts_reward_expectancy,2022.2.4,Win32,59.87306909,Chrome,1366,768,,,,,0,594,,,,,,,,,,,,,,,,,B,181,hexagon,1,0,,,,,,,,,,,,,,,,repeat,number,numRpt,k,0.7773,noRew,,,,,,0,57,0,57,0,1,,,,,,,,,,,,,,,,,
295369,2022-09-20_22h37.49.725,vts_reward_expectancy,2022.2.4,Win32,59.87306909,Chrome,1366,768,,,,,0,594,,,,,,,,,,,,,,,,,W,146,triangle,1,0,,,,,,,,,,,,,,,,repeat,number,numRpt,j,0.7851,noRew,,,,,,0,58,0,58,0,1,,,,,,,,,,,,,,,,,
295369,2022-09-20_22h37.49.725,vts_reward_expectancy,2022.2.4,Win32,59.87306909,Chrome,1366,768,,,,,0,594,,,,,,,,,,,,,,,,,H,139,star,1,0,,,,,,,,,,,,,,,,repeat,number,numRpt,j,0.885,noRew,,,,,,0,59,0,59,0,1,,,,,,,,,,,,,,,,,
295369,2022-09-20_22h37.49.725,vts_reward_expectancy,2022.2.4,Win32,59.87306909,Chrome,1366,768,,,,,0,594,,,,,,,,,,,,,,,,,U,174,circle,1,0,,,,,,,,,,,,,,,,switch,letter,lettSwt,f,1.3112,noRew,,,,,,0,60,0,60,0,1,,,,,,,,,,,,,,,,,
295369,2022-09-20_22h37.49.725,vts_reward_expectancy,2022.2.4,Win32,59.87306909,Chrome,1366,768,,,,,0,594,,,,,,,,,,,,,,,,,H,132,star,1,0,,,,,,,,,,,,,,,,repeat,letter,lettRpt,d,0.8168,noRew,,,,,,0,61,0,61,0,1,,,,,,,,,,,,,,,,,
295369,2022-09-20_22h37.49.725,vts_reward_expectancy,2022.2.4,Win32,59.87306909,Chrome,1366,768,,,,,0,594,,,,,,,,,,,,,,,,,Y,181,star,1,0,,,,,,,,,,,,,,,,repeat,letter,lettRpt,f,0.735,noRew,,,,,,0,62,0,62,0,1,,,,,,,,,,,,,,,,,
295369,2022-09-20_22h37.49.725,vts_reward_expectancy,2022.2.4,Win32,59.87306909,Chrome,1366,768,,,,,0,594,,,,,,,,,,,,,,,,,F,146,circle,1,0,,,,,,,,,,,,,,,,repeat,letter,lettRpt,d,1.6572,noRew,,,,,,0,63,0,63,0,1,,,,,,,,,,,,,,,,,
295369,2022-09-20_22h37.49.725,vts_reward_expectancy,2022.2.4,Win32,59.87306909,Chrome,1366,768,,,,,,,,,,,,,,,,,,,,,,,,,,,,,,,,,,,,,,,,,,,,,,,,,,,,,,,,,,,,,,,,,,,,,,,,,,,,
295369,2022-09-20_22h37.49.725,vts_reward_expectancy,2022.2.4,Win32,59.87306909,Chrome,1366,768,,,,,0,594,,,,,,,,,,,,,,,,,D,160,hexagon,1,0,,,,,,,,,,,,,,,,repeat,letter,lettRpt,d,1.1168,noRew,,,,,,0,,,,,,space,6.721,high,0,0,0,0,1,,,,,,,,,
295369,2022-09-20_22h37.49.725,vts_reward_expectancy,2022.2.4,Win32,59.87306909,Chrome,1366,768,,,,,0,594,,,,,,,,,,,,,,,,,S,174,star,0,0,,,,,,,,,,,,,,,,repeat,letter,NA,d,0.843,noRew,,,,,,0,,,,,,,,high,1,0,1,0,1,,,,,,,,,
295369,2022-09-20_22h37.49.725,vts_reward_expectancy,2022.2.4,Win32,59.87306909,Chrome,1366,768,,,,,0,594,,,,,,,,,,,,,,,,,U,125,hexagon,1,1,,,,,,,,,,,,,,,,switch,number,numSwt,j,1.3671,noRew,,,,,,0,,,,,,,,high,2,0,2,0,1,,,,,,,,,
295369,2022-09-20_22h37.49.725,vts_reward_expectancy,2022.2.4,Win32,59.87306909,Chrome,1366,768,,,,,1,595,,,,,,,,,,,,,,,,,Y,167,star,1,0,,,,,,,,,,,,,,,,repeat,number,numRpt,k,0.7505,noRew,,,,,,0,,,,,,,,high,3,0,3,0,1,,,,,,,,,
295369,2022-09-20_22h37.49.725,vts_reward_expectancy,2022.2.4,Win32,59.87306909,Chrome,1366,768,,,,,10,605,,,,,,,,,,,,,,,,,B,181,hexagon,1,0,,,,,,,,,,,,,,,,repeat,number,numRpt,k,0.7447,noRew,,,,,,0,,,,,,,,high,4,0,4,0,1,,,,,,,,,
295369,2022-09-20_22h37.49.725,vts_reward_expectancy,2022.2.4,Win32,59.87306909,Chrome,1366,768,,,,,1,606,,,,,,,,,,,,,,,,,F,146,star,1,0,,,,,,,,,,,,,,,,repeat,number,numRpt,j,0.7828,noRew,,,,,,0,,,,,,,,high,5,0,5,0,1,,,,,,,,,
295369,2022-09-20_22h37.49.725,vts_reward_expectancy,2022.2.4,Win32,59.87306909,Chrome,1366,768,,,,,10,616,,,,,,,,,,,,,,,,,H,132,star,1,0,,,,,,,,,,,,,,,,switch,letter,lettSwt,d,0.7342,noRew,,,,,,0,,,,,,,,high,6,0,6,0,1,,,,,,,,,
295369,2022-09-20_22h37.49.725,vts_reward_expectancy,2022.2.4,Win32,59.87306909,Chrome,1366,768,,,,,10,626,,,,,,,,,,,,,,,,,W,139,hexagon,1,0,,,,,,,,,,,,,,,,switch,number,numSwt,j,0.7171,noRew,,,,,,0,,,,,,,,high,7,0,7,0,1,,,,,,,,,
295369,2022-09-20_22h37.49.725,vts_reward_expectancy,2022.2.4,Win32,59.87306909,Chrome,1366,768,,,,,10,636,,,,,,,,,,,,,,,,,D,160,hexagon,1,0,,,,,,,,,,,,,,,,repeat,number,numRpt,k,0.6695,noRew,,,,,,0,,,,,,,,high,8,0,8,0,1,,,,,,,,,
295369,2022-09-20_22h37.49.725,vts_reward_expectancy,2022.2.4,Win32,59.87306909,Chrome,1366,768,,,,,0,636,,,,,,,,,,,,,,,,,S,174,star,0,0,,,,,,,,,,,,,,,,switch,letter,NA,d,1.0169,noRew,,,,,,0,,,,,,,,high,9,0,9,0,1,,,,,,,,,
295369,2022-09-20_22h37.49.725,vts_reward_expectancy,2022.2.4,Win32,59.87306909,Chrome,1366,768,,,,,1,637,,,,,,,,,,,,,,,,,U,125,star,1,1,,,,,,,,,,,,,,,,switch,number,numSwt,j,0.7166,noRew,,,,,,0,,,,,,,,high,10,0,10,0,1,,,,,,,,,
295369,2022-09-20_22h37.49.725,vts_reward_expectancy,2022.2.4,Win32,59.87306909,Chrome,1366,768,,,,,10,647,,,,,,,,,,,,,,,,,Y,167,hexagon,1,0,,,,,,,,,,,,,,,,repeat,number,numRpt,k,0.6179,noRew,,,,,,0,,,,,,,,high,11,0,11,0,1,,,,,,,,,
295369,2022-09-20_22h37.49.725,vts_reward_expectancy,2022.2.4,Win32,59.87306909,Chrome,1366,768,,,,,10,657,,,,,,,,,,,,,,,,,B,181,hexagon,1,0,,,,,,,,,,,,,,,,repeat,number,numRpt,k,0.7006,noRew,,,,,,0,,,,,,,,high,12,0,12,0,1,,,,,,,,,
295369,2022-09-20_22h37.49.725,vts_reward_expectancy,2022.2.4,Win32,59.87306909,Chrome,1366,768,,,,,1,658,,,,,,,,,,,,,,,,,F,146,star,1,0,,,,,,,,,,,,,,,,switch,letter,lettSwt,d,0.5425,noRew,,,,,,0,,,,,,,,high,13,0,13,0,1,,,,,,,,,
295369,2022-09-20_22h37.49.725,vts_reward_expectancy,2022.2.4,Win32,59.87306909,Chrome,1366,768,,,,,10,668,,,,,,,,,,,,,,,,,H,132,hexagon,1,0,,,,,,,,,,,,,,,,switch,number,numSwt,j,0.6713,noRew,,,,,,0,,,,,,,,high,14,0,14,0,1,,,,,,,,,
295369,2022-09-20_22h37.49.725,vts_reward_expectancy,2022.2.4,Win32,59.87306909,Chrome,1366,768,,,,,1,669,,,,,,,,,,,,,,,,,W,139,star,1,0,,,,,,,,,,,,,,,,repeat,number,numRpt,j,0.7334,noRew,,,,,,0,,,,,,,,high,15,0,15,0,1,,,,,,,,,
295369,2022-09-20_22h37.49.725,vts_reward_expectancy,2022.2.4,Win32,59.87306909,Chrome,1366,768,,,,,1,670,,,,,,,,,,,,,,,,,F,125,star,1,0,,,,,,,,,,,,,,,,switch,letter,lettSwt,d,0.517,noRew,,,,,,0,,,,,,,,high,16,0,16,0,1,,,,,,,,,
295369,2022-09-20_22h37.49.725,vts_reward_expectancy,2022.2.4,Win32,59.87306909,Chrome,1366,768,,,,,10,680,,,,,,,,,,,,,,,,,Y,132,hexagon,1,0,,,,,,,,,,,,,,,,switch,number,numSwt,j,1.0348,noRew,,,,,,0,,,,,,,,high,17,0,17,0,1,,,,,,,,,
295369,2022-09-20_22h37.49.725,vts_reward_expectancy,2022.2.4,Win32,59.87306909,Chrome,1366,768,,,,,0,680,,,,,,,,,,,,,,,,,H,160,hexagon,0,0,,,,,,,,,,,,,,,,repeat,number,NA,j,0.5675,noRew,,,,,,0,,,,,,,,high,18,0,18,0,1,,,,,,,,,
295369,2022-09-20_22h37.49.725,vts_reward_expectancy,2022.2.4,Win32,59.87306909,Chrome,1366,768,,,,,10,690,,,,,,,,,,,,,,,,,B,146,star,1,1,,,,,,,,,,,,,,,,switch,letter,lettSwt,d,1.1724,noRew,,,,,,0,,,,,,,,high,19,0,19,0,1,,,,,,,,,
295369,2022-09-20_22h37.49.725,vts_reward_expectancy,2022.2.4,Win32,59.87306909,Chrome,1366,768,,,,,10,700,,,,,,,,,,,,,,,,,U,139,hexagon,1,0,,,,,,,,,,,,,,,,switch,number,numSwt,j,0.9434,noRew,,,,,,0,,,,,,,,high,20,0,20,0,1,,,,,,,,,
295369,2022-09-20_22h37.49.725,vts_reward_expectancy,2022.2.4,Win32,59.87306909,Chrome,1366,768,,,,,1,701,,,,,,,,,,,,,,,,,S,174,star,1,0,,,,,,,,,,,,,,,,switch,letter,lettSwt,f,1.2398,noRew,,,,,,0,,,,,,,,high,21,0,21,0,1,,,,,,,,,
295369,2022-09-20_22h37.49.725,vts_reward_expectancy,2022.2.4,Win32,59.87306909,Chrome,1366,768,,,,,10,711,,,,,,,,,,,,,,,,,D,167,hexagon,1,0,,,,,,,,,,,,,,,,switch,number,numSwt,k,0.6784,noRew,,,,,,0,,,,,,,,high,22,0,22,0,1,,,,,,,,,
295369,2022-09-20_22h37.49.725,vts_reward_expectancy,2022.2.4,Win32,59.87306909,Chrome,1366,768,,,,,0,711,,,,,,,,,,,,,,,,,W,181,star,0,0,,,,,,,,,,,,,,,,switch,letter,NA,d,1.2335,noRew,,,,,,0,,,,,,,,high,23,0,23,0,1,,,,,,,,,
295369,2022-09-20_22h37.49.725,vts_reward_expectancy,2022.2.4,Win32,59.87306909,Chrome,1366,768,,,,,1,712,,,,,,,,,,,,,,,,,B,139,star,1,1,,,,,,,,,,,,,,,,repeat,letter,lettRpt,d,0.6228,noRew,,,,,,0,,,,,,,,high,24,0,24,0,1,,,,,,,,,
295369,2022-09-20_22h37.49.725,vts_reward_expectancy,2022.2.4,Win32,59.87306909,Chrome,1366,768,,,,,1,713,,,,,,,,,,,,,,,,,Y,160,hexagon,1,0,,,,,,,,,,,,,,,,switch,number,numSwt,k,1.1685,noRew,,,,,,0,,,,,,,,high,25,0,25,0,1,,,,,,,,,
295369,2022-09-20_22h37.49.725,vts_reward_expectancy,2022.2.4,Win32,59.87306909,Chrome,1366,768,,,,,1,714,,,,,,,,,,,,,,,,,H,132,star,1,0,,,,,,,,,,,,,,,,switch,letter,lettSwt,d,0.6373,noRew,,,,,,0,,,,,,,,high,26,0,26,0,1,,,,,,,,,
295369,2022-09-20_22h37.49.725,vts_reward_expectancy,2022.2.4,Win32,59.87306909,Chrome,1366,768,,,,,10,724,,,,,,,,,,,,,,,,,W,167,hexagon,1,0,,,,,,,,,,,,,,,,switch,number,numSwt,k,1.1933,noRew,,,,,,0,,,,,,,,high,27,0,27,0,1,,,,,,,,,
295369,2022-09-20_22h37.49.725,vts_reward_expectancy,2022.2.4,Win32,59.87306909,Chrome,1366,768,,,,,0,724,,,,,,,,,,,,,,,,,S,174,hexagon,1,0,,,,,,,,,,,,,,,,repeat,number,numRpt,k,0.8755,noRew,,,,,,0,,,,,,,,high,28,0,28,0,1,,,,,,,,,
295369,2022-09-20_22h37.49.725,vts_reward_expectancy,2022.2.4,Win32,59.87306909,Chrome,1366,768,,,,,1,725,,,,,,,,,,,,,,,,,D,125,star,1,0,,,,,,,,,,,,,,,,switch,letter,lettSwt,d,0.7698,noRew,,,,,,0,,,,,,,,high,29,0,29,0,1,,,,,,,,,
295369,2022-09-20_22h37.49.725,vts_reward_expectancy,2022.2.4,Win32,59.87306909,Chrome,1366,768,,,,,1,726,,,,,,,,,,,,,,,,,U,146,star,1,0,,,,,,,,,,,,,,,,switch,number,numSwt,j,0.9997,noRew,,,,,,0,,,,,,,,high,30,0,30,0,1,,,,,,,,,
295369,2022-09-20_22h37.49.725,vts_reward_expectancy,2022.2.4,Win32,59.87306909,Chrome,1366,768,,,,,10,736,,,,,,,,,,,,,,,,,F,181,hexagon,1,0,,,,,,,,,,,,,,,,repeat,number,numRpt,k,0.5869,noRew,,,,,,0,,,,,,,,high,31,0,31,0,1,,,,,,,,,
295369,2022-09-20_22h37.49.725,vts_reward_expectancy,2022.2.4,Win32,59.87306909,Chrome,1366,768,,,,,0,736,,,,,,,,,,,,,,,,,B,132,triangle,1,0,,,,,,,,,,,,,,,,repeat,number,numRpt,j,0.9086,noRew,,,,,,1,,,,,,space,3.2841,low,0,0,0,0,1,,,,,,,,,
295369,2022-09-20_22h37.49.725,vts_reward_expectancy,2022.2.4,Win32,59.87306909,Chrome,1366,768,,,,,1,737,,,,,,,,,,,,,,,,,Y,160,circle,1,0,,,,,,,,,,,,,,,,repeat,number,numRpt,k,0.7232,noRew,,,,,,1,,,,,,,,low,1,0,1,0,1,,,,,,,,,
295369,2022-09-20_22h37.49.725,vts_reward_expectancy,2022.2.4,Win32,59.87306909,Chrome,1366,768,,,,,0,737,,,,,,,,,,,,,,,,,U,174,triangle,0,0,,,,,,,,,,,,,,,,repeat,number,NA,j,0.4875,noRew,,,,,,1,,,,,,,,low,2,0,2,0,1,,,,,,,,,
295369,2022-09-20_22h37.49.725,vts_reward_expectancy,2022.2.4,Win32,59.87306909,Chrome,1366,768,,,,,1,738,,,,,,,,,,,,,,,,,W,139,circle,1,1,,,,,,,,,,,,,,,,repeat,number,numRpt,j,0.6685,noRew,,,,,,1,,,,,,,,low,3,0,3,0,1,,,,,,,,,
295369,2022-09-20_22h37.49.725,vts_reward_expectancy,2022.2.4,Win32,59.87306909,Chrome,1366,768,,,,,0,738,,,,,,,,,,,,,,,,,S,146,triangle,1,0,,,,,,,,,,,,,,,,repeat,number,numRpt,j,0.8205,noRew,,,,,,1,,,,,,,,low,4,0,4,0,1,,,,,,,,,
295369,2022-09-20_22h37.49.725,vts_reward_expectancy,2022.2.4,Win32,59.87306909,Chrome,1366,768,,,,,1,739,,,,,,,,,,,,,,,,,D,167,circle,1,0,,,,,,,,,,,,,,,,switch,letter,lettSwt,d,0.5064,noRew,,,,,,1,,,,,,,,low,5,0,5,0,1,,,,,,,,,
295369,2022-09-20_22h37.49.725,vts_reward_expectancy,2022.2.4,Win32,59.87306909,Chrome,1366,768,,,,,10,749,,,,,,,,,,,,,,,,,F,181,triangle,1,0,,,,,,,,,,,,,,,,switch,number,numSwt,k,0.6274,noRew,,,,,,1,,,,,,,,low,6,0,6,0,1,,,,,,,,,
295369,2022-09-20_22h37.49.725,vts_reward_expectancy,2022.2.4,Win32,59.87306909,Chrome,1366,768,,,,,10,759,,,,,,,,,,,,,,,,,H,125,circle,1,0,,,,,,,,,,,,,,,,switch,letter,lettSwt,d,0.9933,noRew,,,,,,1,,,,,,,,low,7,0,7,0,1,,,,,,,,,
295369,2022-09-20_22h37.49.725,vts_reward_expectancy,2022.2.4,Win32,59.87306909,Chrome,1366,768,,,,,1,760,,,,,,,,,,,,,,,,,B,132,triangle,1,0,,,,,,,,,,,,,,,,switch,number,numSwt,j,0.6842,noRew,,,,,,1,,,,,,,,low,8,0,8,0,1,,,,,,,,,
295369,2022-09-20_22h37.49.725,vts_reward_expectancy,2022.2.4,Win32,59.87306909,Chrome,1366,768,,,,,1,761,,,,,,,,,,,,,,,,,Y,160,circle,1,0,,,,,,,,,,,,,,,,switch,letter,lettSwt,f,0.7874,noRew,,,,,,1,,,,,,,,low,9,0,9,0,1,,,,,,,,,
295369,2022-09-20_22h37.49.725,vts_reward_expectancy,2022.2.4,Win32,59.87306909,Chrome,1366,768,,,,,1,762,,,,,,,,,,,,,,,,,U,174,circle,1,0,,,,,,,,,,,,,,,,switch,number,numSwt,k,0.7701,noRew,,,,,,1,,,,,,,,low,10,0,10,0,1,,,,,,,,,
295369,2022-09-20_22h37.49.725,vts_reward_expectancy,2022.2.4,Win32,59.87306909,Chrome,1366,768,,,,,10,772,,,,,,,,,,,,,,,,,W,139,triangle,1,0,,,,,,,,,,,,,,,,repeat,number,numRpt,j,0.6558,noRew,,,,,,1,,,,,,,,low,11,0,11,0,1,,,,,,,,,
295369,2022-09-20_22h37.49.725,vts_reward_expectancy,2022.2.4,Win32,59.87306909,Chrome,1366,768,,,,,0,772,,,,,,,,,,,,,,,,,S,146,circle,0,0,,,,,,,,,,,,,,,,switch,letter,NA,d,0.7508,noRew,,,,,,1,,,,,,,,low,12,0,12,0,1,,,,,,,,,
295369,2022-09-20_22h37.49.725,vts_reward_expectancy,2022.2.4,Win32,59.87306909,Chrome,1366,768,,,,,1,773,,,,,,,,,,,,,,,,,D,167,triangle,1,1,,,,,,,,,,,,,,,,switch,number,numSwt,k,0.7099,noRew,,,,,,1,,,,,,,,low,13,0,13,0,1,,,,,,,,,
295369,2022-09-20_22h37.49.725,vts_reward_expectancy,2022.2.4,Win32,59.87306909,Chrome,1366,768,,,,,0,773,,,,,,,,,,,,,,,,,F,181,triangle,1,0,,,,,,,,,,,,,,,,repeat,number,numRpt,k,0.7335,noRew,,,,,,1,,,,,,,,low,14,0,14,0,1,,,,,,,,,
295369,2022-09-20_22h37.49.725,vts_reward_expectancy,2022.2.4,Win32,59.87306909,Chrome,1366,768,,,,,10,783,,,,,,,,,,,,,,,,,H,125,circle,1,0,,,,,,,,,,,,,,,,switch,letter,lettSwt,d,0.6508,noRew,,,,,,1,,,,,,,,low,15,0,15,0,1,,,,,,,,,
295369,2022-09-20_22h37.49.725,vts_reward_expectancy,2022.2.4,Win32,59.87306909,Chrome,1366,768,,,,,1,784,,,,,,,,,,,,,,,,,D,132,circle,1,0,,,,,,,,,,,,,,,,repeat,letter,lettRpt,d,0.7335,noRew,,,,,,1,,,,,,,,low,16,0,16,0,1,,,,,,,,,
295369,2022-09-20_22h37.49.725,vts_reward_expectancy,2022.2.4,Win32,59.87306909,Chrome,1366,768,,,,,1,785,,,,,,,,,,,,,,,,,U,174,triangle,1,0,,,,,,,,,,,,,,,,repeat,letter,lettRpt,f,0.7668,noRew,,,,,,1,,,,,,,,low,17,0,17,0,1,,,,,,,,,
295369,2022-09-20_22h37.49.725,vts_reward_expectancy,2022.2.4,Win32,59.87306909,Chrome,1366,768,,,,,0,785,,,,,,,,,,,,,,,,,Y,139,triangle,1,0,,,,,,,,,,,,,,,,switch,number,numSwt,j,0.7448,noRew,,,,,,1,,,,,,,,low,18,0,18,0,1,,,,,,,,,
295369,2022-09-20_22h37.49.725,vts_reward_expectancy,2022.2.4,Win32,59.87306909,Chrome,1366,768,,,,,10,795,,,,,,,,,,,,,,,,,F,125,circle,1,0,,,,,,,,,,,,,,,,switch,letter,lettSwt,d,1.5737,noRew,,,,,,1,,,,,,,,low,19,0,19,0,1,,,,,,,,,
295369,2022-09-20_22h37.49.725,vts_reward_expectancy,2022.2.4,Win32,59.87306909,Chrome,1366,768,,,,,1,796,,,,,,,,,,,,,,,,,B,167,circle,1,0,,,,,,,,,,,,,,,,switch,number,numSwt,k,0.8003,noRew,,,,,,1,,,,,,,,low,20,0,20,0,1,,,,,,,,,
295369,2022-09-20_22h37.49.725,vts_reward_expectancy,2022.2.4,Win32,59.87306909,Chrome,1366,768,,,,,0,796,,,,,,,,,,,,,,,,,H,146,triangle,1,0,,,,,,,,,,,,,,,,switch,letter,lettSwt,d,1.1715,noRew,,,,,,1,,,,,,,,low,21,0,21,0,1,,,,,,,,,
295369,2022-09-20_22h37.49.725,vts_reward_expectancy,2022.2.4,Win32,59.87306909,Chrome,1366,768,,,,,10,806,,,,,,,,,,,,,,,,,W,160,circle,1,0,,,,,,,,,,,,,,,,switch,number,numSwt,k,1.4994,noRew,,,,,,1,,,,,,,,low,22,0,22,0,1,,,,,,,,,
295369,2022-09-20_22h37.49.725,vts_reward_expectancy,2022.2.4,Win32,59.87306909,Chrome,1366,768,,,,,10,816,,,,,,,,,,,,,,,,,S,181,triangle,1,0,,,,,,,,,,,,,,,,repeat,number,numRpt,k,0.6415,noRew,,,,,,1,,,,,,,,low,23,0,23,0,1,,,,,,,,,
295369,2022-09-20_22h37.49.725,vts_reward_expectancy,2022.2.4,Win32,59.87306909,Chrome,1366,768,,,,,0,816,,,,,,,,,,,,,,,,,D,125,triangle,1,0,,,,,,,,,,,,,,,,switch,letter,lettSwt,d,1.125,noRew,,,,,,1,,,,,,,,low,24,0,24,0,1,,,,,,,,,
295369,2022-09-20_22h37.49.725,vts_reward_expectancy,2022.2.4,Win32,59.87306909,Chrome,1366,768,,,,,10,826,,,,,,,,,,,,,,,,,F,174,circle,1,0,,,,,,,,,,,,,,,,switch,number,numSwt,k,0.7838,noRew,,,,,,1,,,,,,,,low,25,0,25,0,1,,,,,,,,,
295369,2022-09-20_22h37.49.725,vts_reward_expectancy,2022.2.4,Win32,59.87306909,Chrome,1366,768,,,,,10,836,,,,,,,,,,,,,,,,,U,160,circle,1,0,,,,,,,,,,,,,,,,repeat,number,numRpt,k,0.7533,noRew,,,,,,1,,,,,,,,low,26,0,26,0,1,,,,,,,,,
295369,2022-09-20_22h37.49.725,vts_reward_expectancy,2022.2.4,Win32,59.87306909,Chrome,1366,768,,,,,0,836,,,,,,,,,,,,,,,,,Y,139,triangle,0,0,,,,,,,,,,,,,,,,switch,letter,NA,d,0.6062,noRew,,,,,,1,,,,,,,,low,27,0,27,0,1,,,,,,,,,
295369,2022-09-20_22h37.49.725,vts_reward_expectancy,2022.2.4,Win32,59.87306909,Chrome,1366,768,,,,,1,837,,,,,,,,,,,,,,,,,S,167,circle,1,1,,,,,,,,,,,,,,,,switch,number,numSwt,k,0.5951,noRew,,,,,,1,,,,,,,,low,28,0,28,0,1,,,,,,,,,
295369,2022-09-20_22h37.49.725,vts_reward_expectancy,2022.2.4,Win32,59.87306909,Chrome,1366,768,,,,,0,837,,,,,,,,,,,,,,,,,W,146,triangle,0,0,,,,,,,,,,,,,,,,switch,letter,NA,d,1.188,noRew,,,,,,1,,,,,,,,low,29,0,29,0,1,,,,,,,,,
295369,2022-09-20_22h37.49.725,vts_reward_expectancy,2022.2.4,Win32,59.87306909,Chrome,1366,768,,,,,10,847,,,,,,,,,,,,,,,,,H,132,circle,1,1,,,,,,,,,,,,,,,,switch,number,numSwt,j,1.3328,noRew,,,,,,1,,,,,,,,low,30,0,30,0,1,,,,,,,,,
295369,2022-09-20_22h37.49.725,vts_reward_expectancy,2022.2.4,Win32,59.87306909,Chrome,1366,768,,,,,0,847,,,,,,,,,,,,,,,,,B,181,triangle,0,0,,,,,,,,,,,,,,,,switch,letter,NA,f,1.9566,noRew,,,,,,1,,,,,,,,low,31,0,31,0,1,,,,,,,,,
295369,2022-09-20_22h37.49.725,vts_reward_expectancy,2022.2.4,Win32,59.87306909,Chrome,1366,768,,,,,0,847,,,,,,,,,,,,,,,,,H,167,hexagon,1,1,,,,,,,,,,,,,,,,repeat,letter,lettRpt,d,1.6096,noRew,,,,,,2,,,,,,space,1.4563,high,0,0,0,0,1,,,,,,,,,
295369,2022-09-20_22h37.49.725,vts_reward_expectancy,2022.2.4,Win32,59.87306909,Chrome,1366,768,,,,,1,848,,,,,,,,,,,,,,,,,D,174,star,1,0,,,,,,,,,,,,,,,,repeat,letter,lettRpt,d,0.6702,noRew,,,,,,2,,,,,,,,high,1,0,1,0,1,,,,,,,,,
295369,2022-09-20_22h37.49.725,vts_reward_expectancy,2022.2.4,Win32,59.87306909,Chrome,1366,768,,,,,0,848,,,,,,,,,,,,,,,,,S,125,hexagon,1,0,,,,,,,,,,,,,,,,switch,number,numSwt,j,0.9024,noRew,,,,,,2,,,,,,,,high,2,0,2,0,1,,,,,,,,,
295369,2022-09-20_22h37.49.725,vts_reward_expectancy,2022.2.4,Win32,59.87306909,Chrome,1366,768,,,,,10,858,,,,,,,,,,,,,,,,,F,139,star,1,0,,,,,,,,,,,,,,,,repeat,number,numRpt,j,0.9408,noRew,,,,,,2,,,,,,,,high,3,0,3,0,1,,,,,,,,,
295369,2022-09-20_22h37.49.725,vts_reward_expectancy,2022.2.4,Win32,59.87306909,Chrome,1366,768,,,,,0,858,,,,,,,,,,,,,,,,,Y,160,hexagon,1,0,,,,,,,,,,,,,,,,repeat,number,numRpt,k,0.8097,noRew,,,,,,2,,,,,,,,high,4,0,4,0,1,,,,,,,,,
295369,2022-09-20_22h37.49.725,vts_reward_expectancy,2022.2.4,Win32,59.87306909,Chrome,1366,768,,,,,1,859,,,,,,,,,,,,,,,,,W,146,star,1,0,,,,,,,,,,,,,,,,repeat,number,numRpt,j,1.0175,noRew,,,,,,2,,,,,,,,high,5,0,5,0,1,,,,,,,,,
295369,2022-09-20_22h37.49.725,vts_reward_expectancy,2022.2.4,Win32,59.87306909,Chrome,1366,768,,,,,0,859,,,,,,,,,,,,,,,,,B,132,hexagon,1,0,,,,,,,,,,,,,,,,repeat,number,numRpt,j,0.9096,noRew,,,,,,2,,,,,,,,high,6,0,6,0,1,,,,,,,,,
295369,2022-09-20_22h37.49.725,vts_reward_expectancy,2022.2.4,Win32,59.87306909,Chrome,1366,768,,,,,10,869,,,,,,,,,,,,,,,,,U,181,star,1,0,,,,,,,,,,,,,,,,repeat,number,numRpt,k,0.7112,noRew,,,,,,2,,,,,,,,high,7,0,7,0,1,,,,,,,,,
295369,2022-09-20_22h37.49.725,vts_reward_expectancy,2022.2.4,Win32,59.87306909,Chrome,1366,768,,,,,0,869,,,,,,,,,,,,,,,,,H,167,hexagon,1,0,,,,,,,,,,,,,,,,repeat,number,numRpt,k,1.0153,noRew,,,,,,2,,,,,,,,high,8,0,8,0,1,,,,,,,,,
295369,2022-09-20_22h37.49.725,vts_reward_expectancy,2022.2.4,Win32,59.87306909,Chrome,1366,768,,,,,10,879,,,,,,,,,,,,,,,,,D,174,star,1,0,,,,,,,,,,,,,,,,switch,letter,lettSwt,d,0.734,noRew,,,,,,2,,,,,,,,high,9,0,9,0,1,,,,,,,,,
295369,2022-09-20_22h37.49.725,vts_reward_expectancy,2022.2.4,Win32,59.87306909,Chrome,1366,768,,,,,1,880,,,,,,,,,,,,,,,,,S,125,star,1,0,,,,,,,,,,,,,,,,repeat,letter,lettRpt,f,0.7056,noRew,,,,,,2,,,,,,,,high,10,0,10,0,1,,,,,,,,,
295369,2022-09-20_22h37.49.725,vts_reward_expectancy,2022.2.4,Win32,59.87306909,Chrome,1366,768,,,,,0,880,,,,,,,,,,,,,,,,,F,139,hexagon,1,0,,,,,,,,,,,,,,,,switch,number,numSwt,j,0.7173,noRew,,,,,,2,,,,,,,,high,11,0,11,0,1,,,,,,,,,
295369,2022-09-20_22h37.49.725,vts_reward_expectancy,2022.2.4,Win32,59.87306909,Chrome,1366,768,,,,,0,880,,,,,,,,,,,,,,,,,Y,160,hexagon,1,0,,,,,,,,,,,,,,,,repeat,number,numRpt,k,0.7335,noRew,,,,,,2,,,,,,,,high,12,0,12,0,1,,,,,,,,,
295369,2022-09-20_22h37.49.725,vts_reward_expectancy,2022.2.4,Win32,59.87306909,Chrome,1366,768,,,,,1,881,,,,,,,,,,,,,,,,,W,146,star,1,0,,,,,,,,,,,,,,,,switch,letter,lettSwt,f,1.1335,noRew,,,,,,2,,,,,,,,high,13,0,13,0,1,,,,,,,,,
295369,2022-09-20_22h37.49.725,vts_reward_expectancy,2022.2.4,Win32,59.87306909,Chrome,1366,768,,,,,1,882,,,,,,,,,,,,,,,,,B,132,hexagon,1,0,,,,,,,,,,,,,,,,repeat,letter,lettRpt,d,0.5503,noRew,,,,,,2,,,,,,,,high,14,0,14,0,1,,,,,,,,,
295369,2022-09-20_22h37.49.725,vts_reward_expectancy,2022.2.4,Win32,59.87306909,Chrome,1366,768,,,,,10,892,,,,,,,,,,,,,,,,,U,181,star,1,0,,,,,,,,,,,,,,,,repeat,letter,lettRpt,f,1.0269,noRew,,,,,,2,,,,,,,,high,15,0,15,0,1,,,,,,,,,
295369,2022-09-20_22h37.49.725,vts_reward_expectancy,2022.2.4,Win32,59.87306909,Chrome,1366,768,,,,,10,902,,,,,,,,,,,,,,,,,D,181,hexagon,1,0,,,,,,,,,,,,,,,,repeat,letter,lettRpt,d,0.5574,noRew,,,,,,2,,,,,,,,high,16,0,16,0,1,,,,,,,,,
295369,2022-09-20_22h37.49.725,vts_reward_expectancy,2022.2.4,Win32,59.87306909,Chrome,1366,768,,,,,1,903,,,,,,,,,,,,,,,,,W,174,star,1,0,,,,,,,,,,,,,,,,repeat,letter,lettRpt,f,0.6171,noRew,,,,,,2,,,,,,,,high,17,0,17,0,1,,,,,,,,,
295369,2022-09-20_22h37.49.725,vts_reward_expectancy,2022.2.4,Win32,59.87306909,Chrome,1366,768,,,,,1,904,,,,,,,,,,,,,,,,,B,160,star,1,0,,,,,,,,,,,,,,,,repeat,letter,lettRpt,d,0.6584,noRew,,,,,,2,,,,,,,,high,18,0,18,0,1,,,,,,,,,
295369,2022-09-20_22h37.49.725,vts_reward_expectancy,2022.2.4,Win32,59.87306909,Chrome,1366,768,,,,,10,914,,,,,,,,,,,,,,,,,S,139,hexagon,1,0,,,,,,,,,,,,,,,,repeat,letter,lettRpt,f,0.6749,noRew,,,,,,2,,,,,,,,high,19,0,19,0,1,,,,,,,,,
295369,2022-09-20_22h37.49.725,vts_reward_expectancy,2022.2.4,Win32,59.87306909,Chrome,1366,768,,,,,0,914,,,,,,,,,,,,,,,,,U,132,hexagon,1,0,,,,,,,,,,,,,,,,repeat,letter,lettRpt,f,1.2733,noRew,,,,,,2,,,,,,,,high,20,0,20,0,1,,,,,,,,,
295369,2022-09-20_22h37.49.725,vts_reward_expectancy,2022.2.4,Win32,59.87306909,Chrome,1366,768,,,,,0,914,,,,,,,,,,,,,,,,,Y,146,star,0,0,,,,,,,,,,,,,,,,switch,number,NA,k,0.8206,noRew,,,,,,2,,,,,,,,high,21,0,21,0,1,,,,,,,,,
295369,2022-09-20_22h37.49.725,vts_reward_expectancy,2022.2.4,Win32,59.87306909,Chrome,1366,768,,,,,1,915,,,,,,,,,,,,,,,,,F,125,star,1,1,,,,,,,,,,,,,,,,repeat,number,numRpt,j,0.6414,noRew,,,,,,2,,,,,,,,high,22,0,22,0,1,,,,,,,,,
295369,2022-09-20_22h37.49.725,vts_reward_expectancy,2022.2.4,Win32,59.87306909,Chrome,1366,768,,,,,10,925,,,,,,,,,,,,,,,,,H,167,hexagon,1,0,,,,,,,,,,,,,,,,repeat,number,numRpt,k,0.5837,noRew,,,,,,2,,,,,,,,high,23,0,23,0,1,,,,,,,,,
295369,2022-09-20_22h37.49.725,vts_reward_expectancy,2022.2.4,Win32,59.87306909,Chrome,1366,768,,,,,10,935,,,,,,,,,,,,,,,,,S,181,star,1,0,,,,,,,,,,,,,,,,repeat,number,numRpt,k,0.711,noRew,,,,,,2,,,,,,,,high,24,0,24,0,1,,,,,,,,,
295369,2022-09-20_22h37.49.725,vts_reward_expectancy,2022.2.4,Win32,59.87306909,Chrome,1366,768,,,,,0,935,,,,,,,,,,,,,,,,,Y,139,hexagon,1,0,,,,,,,,,,,,,,,,repeat,number,numRpt,j,0.7341,noRew,,,,,,2,,,,,,,,high,25,0,25,0,1,,,,,,,,,
295369,2022-09-20_22h37.49.725,vts_reward_expectancy,2022.2.4,Win32,59.87306909,Chrome,1366,768,,,,,10,945,,,,,,,,,,,,,,,,,D,146,star,1,0,,,,,,,,,,,,,,,,switch,letter,lettSwt,d,0.9695,noRew,,,,,,2,,,,,,,,high,26,0,26,0,1,,,,,,,,,
295369,2022-09-20_22h37.49.725,vts_reward_expectancy,2022.2.4,Win32,59.87306909,Chrome,1366,768,,,,,10,955,,,,,,,,,,,,,,,,,U,132,hexagon,1,0,,,,,,,,,,,,,,,,repeat,letter,lettRpt,f,0.5211,noRew,,,,,,2,,,,,,,,high,27,0,27,0,1,,,,,,,,,
295369,2022-09-20_22h37.49.725,vts_reward_expectancy,2022.2.4,Win32,59.87306909,Chrome,1366,768,,,,,1,956,,,,,,,,,,,,,,,,,B,125,star,1,0,,,,,,,,,,,,,,,,repeat,letter,lettRpt,d,0.5845,noRew,,,,,,2,,,,,,,,high,28,0,28,0,1,,,,,,,,,
295369,2022-09-20_22h37.49.725,vts_reward_expectancy,2022.2.4,Win32,59.87306909,Chrome,1366,768,,,,,0,956,,,,,,,,,,,,,,,,,H,174,hexagon,1,0,,,,,,,,,,,,,,,,repeat,letter,lettRpt,d,0.7577,noRew,,,,,,2,,,,,,,,high,29,0,29,0,1,,,,,,,,,
295369,2022-09-20_22h37.49.725,vts_reward_expectancy,2022.2.4,Win32,59.87306909,Chrome,1366,768,,,,,10,966,,,,,,,,,,,,,,,,,F,167,star,1,0,,,,,,,,,,,,,,,,switch,number,numSwt,k,0.6372,noRew,,,,,,2,,,,,,,,high,30,0,30,0,1,,,,,,,,,
295369,2022-09-20_22h37.49.725,vts_reward_expectancy,2022.2.4,Win32,59.87306909,Chrome,1366,768,,,,,10,976,,,,,,,,,,,,,,,,,W,160,hexagon,1,0,,,,,,,,,,,,,,,,repeat,number,numRpt,k,0.5937,noRew,,,,,,2,,,,,,,,high,31,0,31,0,1,,,,,,,,,
295369,2022-09-20_22h37.49.725,vts_reward_expectancy,2022.2.4,Win32,59.87306909,Chrome,1366,768,,,,,0,976,,,,,,,,,,,,,,,,,W,160,hexagon,1,0,,,,,,,,,,,,,,,,repeat,number,numRpt,k,1.1833,noRew,,,,,,3,,,,,,space,1.8643,high,0,0,0,0,1,,,,,,,,,
295369,2022-09-20_22h37.49.725,vts_reward_expectancy,2022.2.4,Win32,59.87306909,Chrome,1366,768,,,,,1,977,,,,,,,,,,,,,,,,,S,146,star,1,0,,,,,,,,,,,,,,,,switch,letter,lettSwt,f,0.7496,noRew,,,,,,3,,,,,,,,high,1,0,1,0,1,,,,,,,,,
295369,2022-09-20_22h37.49.725,vts_reward_expectancy,2022.2.4,Win32,59.87306909,Chrome,1366,768,,,,,10,987,,,,,,,,,,,,,,,,,Y,181,hexagon,1,0,,,,,,,,,,,,,,,,repeat,letter,lettRpt,f,0.5857,noRew,,,,,,3,,,,,,,,high,2,0,2,0,1,,,,,,,,,
295369,2022-09-20_22h37.49.725,vts_reward_expectancy,2022.2.4,Win32,59.87306909,Chrome,1366,768,,,,,1,988,,,,,,,,,,,,,,,,,H,174,star,1,0,,,,,,,,,,,,,,,,repeat,letter,lettRpt,d,0.6574,noRew,,,,,,3,,,,,,,,high,3,0,3,0,1,,,,,,,,,
295369,2022-09-20_22h37.49.725,vts_reward_expectancy,2022.2.4,Win32,59.87306909,Chrome,1366,768,,,,,1,989,,,,,,,,,,,,,,,,,B,139,star,1,0,,,,,,,,,,,,,,,,repeat,letter,lettRpt,d,0.534,noRew,,,,,,3,,,,,,,,high,4,0,4,0,1,,,,,,,,,
295369,2022-09-20_22h37.49.725,vts_reward_expectancy,2022.2.4,Win32,59.87306909,Chrome,1366,768,,,,,0,989,,,,,,,,,,,,,,,,,F,132,hexagon,1,0,,,,,,,,,,,,,,,,repeat,letter,lettRpt,d,0.6669,noRew,,,,,,3,,,,,,,,high,5,0,5,0,1,,,,,,,,,
295369,2022-09-20_22h37.49.725,vts_reward_expectancy,2022.2.4,Win32,59.87306909,Chrome,1366,768,,,,,0,989,,,,,,,,,,,,,,,,,U,167,hexagon,1,0,,,,,,,,,,,,,,,,switch,number,numSwt,k,0.9512,noRew,,,,,,3,,,,,,,,high,6,0,6,0,1,,,,,,,,,
295369,2022-09-20_22h37.49.725,vts_reward_expectancy,2022.2.4,Win32,59.87306909,Chrome,1366,768,,,,,1,990,,,,,,,,,,,,,,,,,D,125,star,1,0,,,,,,,,,,,,,,,,switch,letter,lettSwt,d,0.5946,noRew,,,,,,3,,,,,,,,high,7,0,7,0,1,,,,,,,,,
295369,2022-09-20_22h37.49.725,vts_reward_expectancy,2022.2.4,Win32,59.87306909,Chrome,1366,768,,,,,10,1000,,,,,,,,,,,,,,,,,W,160,hexagon,1,0,,,,,,,,,,,,,,,,repeat,letter,lettRpt,f,0.5509,noRew,,,,,,3,,,,,,,,high,8,0,8,0,1,,,,,,,,,
295369,2022-09-20_22h37.49.725,vts_reward_expectancy,2022.2.4,Win32,59.87306909,Chrome,1366,768,,,,,1,1001,,,,,,,,,,,,,,,,,S,146,star,1,0,,,,,,,,,,,,,,,,switch,number,numSwt,j,0.5022,noRew,,,,,,3,,,,,,,,high,9,0,9,0,1,,,,,,,,,
295369,2022-09-20_22h37.49.725,vts_reward_expectancy,2022.2.4,Win32,59.87306909,Chrome,1366,768,,,,,1,1002,,,,,,,,,,,,,,,,,Y,181,star,1,0,,,,,,,,,,,,,,,,repeat,number,numRpt,k,0.5251,noRew,,,,,,3,,,,,,,,high,10,0,10,0,1,,,,,,,,,
295369,2022-09-20_22h37.49.725,vts_reward_expectancy,2022.2.4,Win32,59.87306909,Chrome,1366,768,,,,,10,1012,,,,,,,,,,,,,,,,,H,174,hexagon,1,0,,,,,,,,,,,,,,,,repeat,number,numRpt,k,0.6235,noRew,,,,,,3,,,,,,,,high,11,0,11,0,1,,,,,,,,,
295369,2022-09-20_22h37.49.725,vts_reward_expectancy,2022.2.4,Win32,59.87306909,Chrome,1366,768,,,,,1,1013,,,,,,,,,,,,,,,,,B,139,star,1,0,,,,,,,,,,,,,,,,repeat,number,numRpt,j,0.5621,noRew,,,,,,3,,,,,,,,high,12,0,12,0,1,,,,,,,,,
295369,2022-09-20_22h37.49.725,vts_reward_expectancy,2022.2.4,Win32,59.87306909,Chrome,1366,768,,,,,10,1023,,,,,,,,,,,,,,,,,F,132,hexagon,1,0,,,,,,,,,,,,,,,,switch,letter,lettSwt,d,0.5598,noRew,,,,,,3,,,,,,,,high,13,0,13,0,1,,,,,,,,,
295369,2022-09-20_22h37.49.725,vts_reward_expectancy,2022.2.4,Win32,59.87306909,Chrome,1366,768,,,,,1,1024,,,,,,,,,,,,,,,,,U,167,star,1,0,,,,,,,,,,,,,,,,repeat,letter,lettRpt,f,0.519,noRew,,,,,,3,,,,,,,,high,14,0,14,0,1,,,,,,,,,
295369,2022-09-20_22h37.49.725,vts_reward_expectancy,2022.2.4,Win32,59.87306909,Chrome,1366,768,,,,,10,1034,,,,,,,,,,,,,,,,,D,125,hexagon,1,0,,,,,,,,,,,,,,,,repeat,letter,lettRpt,d,0.5778,noRew,,,,,,3,,,,,,,,high,15,0,15,0,1,,,,,,,,,
295369,2022-09-20_22h37.49.725,vts_reward_expectancy,2022.2.4,Win32,59.87306909,Chrome,1366,768,,,,,10,1044,,,,,,,,,,,,,,,,,B,160,star,1,0,,,,,,,,,,,,,,,,switch,number,numSwt,k,0.9774,noRew,,,,,,3,,,,,,,,high,16,0,16,0,1,,,,,,,,,
295369,2022-09-20_22h37.49.725,vts_reward_expectancy,2022.2.4,Win32,59.87306909,Chrome,1366,768,,,,,0,1044,,,,,,,,,,,,,,,,,S,139,hexagon,1,0,,,,,,,,,,,,,,,,repeat,number,numRpt,j,0.7773,noRew,,,,,,3,,,,,,,,high,17,0,17,0,1,,,,,,,,,
295369,2022-09-20_22h37.49.725,vts_reward_expectancy,2022.2.4,Win32,59.87306909,Chrome,1366,768,,,,,0,1044,,,,,,,,,,,,,,,,,D,125,hexagon,1,0,,,,,,,,,,,,,,,,switch,letter,lettSwt,d,1.3905,noRew,,,,,,3,,,,,,,,high,18,0,18,0,1,,,,,,,,,
295369,2022-09-20_22h37.49.725,vts_reward_expectancy,2022.2.4,Win32,59.87306909,Chrome,1366,768,,,,,1,1045,,,,,,,,,,,,,,,,,W,146,star,1,0,,,,,,,,,,,,,,,,repeat,letter,lettRpt,f,0.5354,noRew,,,,,,3,,,,,,,,high,19,0,19,0,1,,,,,,,,,
295369,2022-09-20_22h37.49.725,vts_reward_expectancy,2022.2.4,Win32,59.87306909,Chrome,1366,768,,,,,1,1046,,,,,,,,,,,,,,,,,U,181,star,1,0,,,,,,,,,,,,,,,,repeat,letter,lettRpt,f,0.7672,noRew,,,,,,3,,,,,,,,high,20,0,20,0,1,,,,,,,,,
295369,2022-09-20_22h37.49.725,vts_reward_expectancy,2022.2.4,Win32,59.87306909,Chrome,1366,768,,,,,1,1047,,,,,,,,,,,,,,,,,Y,132,hexagon,1,0,,,,,,,,,,,,,,,,repeat,letter,lettRpt,f,0.5928,noRew,,,,,,3,,,,,,,,high,21,0,21,0,1,,,,,,,,,
295369,2022-09-20_22h37.49.725,vts_reward_expectancy,2022.2.4,Win32,59.87306909,Chrome,1366,768,,,,,1,1048,,,,,,,,,,,,,,,,,H,174,star,1,0,,,,,,,,,,,,,,,,switch,number,numSwt,k,0.5371,noRew,,,,,,3,,,,,,,,high,22,0,22,0,1,,,,,,,,,
295369,2022-09-20_22h37.49.725,vts_reward_expectancy,2022.2.4,Win32,59.87306909,Chrome,1366,768,,,,,10,1058,,,,,,,,,,,,,,,,,F,167,hexagon,1,0,,,,,,,,,,,,,,,,repeat,number,numRpt,k,0.6109,noRew,,,,,,3,,,,,,,,high,23,0,23,0,1,,,,,,,,,
295369,2022-09-20_22h37.49.725,vts_reward_expectancy,2022.2.4,Win32,59.87306909,Chrome,1366,768,,,,,1,1059,,,,,,,,,,,,,,,,,D,174,star,1,0,,,,,,,,,,,,,,,,repeat,number,numRpt,k,0.6508,noRew,,,,,,3,,,,,,,,high,24,0,24,0,1,,,,,,,,,
295369,2022-09-20_22h37.49.725,vts_reward_expectancy,2022.2.4,Win32,59.87306909,Chrome,1366,768,,,,,10,1069,,,,,,,,,,,,,,,,,U,146,hexagon,1,0,,,,,,,,,,,,,,,,switch,letter,lettSwt,f,0.8832,noRew,,,,,,3,,,,,,,,high,25,0,25,0,1,,,,,,,,,
295369,2022-09-20_22h37.49.725,vts_reward_expectancy,2022.2.4,Win32,59.87306909,Chrome,1366,768,,,,,1,1070,,,,,,,,,,,,,,,,,F,125,star,1,0,,,,,,,,,,,,,,,,repeat,letter,lettRpt,d,0.6542,noRew,,,,,,3,,,,,,,,high,26,0,26,0,1,,,,,,,,,
295369,2022-09-20_22h37.49.725,vts_reward_expectancy,2022.2.4,Win32,59.87306909,Chrome,1366,768,,,,,10,1080,,,,,,,,,,,,,,,,,B,132,hexagon,1,0,,,,,,,,,,,,,,,,repeat,letter,lettRpt,d,0.5842,noRew,,,,,,3,,,,,,,,high,27,0,27,0,1,,,,,,,,,
295369,2022-09-20_22h37.49.725,vts_reward_expectancy,2022.2.4,Win32,59.87306909,Chrome,1366,768,,,,,0,1080,,,,,,,,,,,,,,,,,H,181,star,0,0,,,,,,,,,,,,,,,,repeat,letter,NA,f,0.5836,noRew,,,,,,3,,,,,,,,high,28,0,28,0,1,,,,,,,,,
295369,2022-09-20_22h37.49.725,vts_reward_expectancy,2022.2.4,Win32,59.87306909,Chrome,1366,768,,,,,1,1081,,,,,,,,,,,,,,,,,W,167,hexagon,1,1,,,,,,,,,,,,,,,,repeat,letter,lettRpt,f,0.5531,noRew,,,,,,3,,,,,,,,high,29,0,29,0,1,,,,,,,,,
295369,2022-09-20_22h37.49.725,vts_reward_expectancy,2022.2.4,Win32,59.87306909,Chrome,1366,768,,,,,1,1082,,,,,,,,,,,,,,,,,Y,160,star,1,0,,,,,,,,,,,,,,,,repeat,letter,lettRpt,f,0.5776,noRew,,,,,,3,,,,,,,,high,30,0,30,0,1,,,,,,,,,
295369,2022-09-20_22h37.49.725,vts_reward_expectancy,2022.2.4,Win32,59.87306909,Chrome,1366,768,,,,,10,1092,,,,,,,,,,,,,,,,,S,139,hexagon,1,0,,,,,,,,,,,,,,,,switch,number,numSwt,j,0.5512,noRew,,,,,,3,,,,,,,,high,31,0,31,0,1,,,,,,,,,
295369,2022-09-20_22h37.49.725,vts_reward_expectancy,2022.2.4,Win32,59.87306909,Chrome,1366,768,,,,,0,1092,,,,,,,,,,,,,,,,,F,139,triangle,1,0,,,,,,,,,,,,,,,,repeat,number,numRpt,j,1.283,noRew,,,,,,4,,,,,,space,1.4919,low,0,0,0,0,1,,,,,,,,,
295369,2022-09-20_22h37.49.725,vts_reward_expectancy,2022.2.4,Win32,59.87306909,Chrome,1366,768,,,,,10,1102,,,,,,,,,,,,,,,,,B,125,circle,1,0,,,,,,,,,,,,,,,,switch,letter,lettSwt,d,0.7662,noRew,,,,,,4,,,,,,,,low,1,0,1,0,1,,,,,,,,,
295369,2022-09-20_22h37.49.725,vts_reward_expectancy,2022.2.4,Win32,59.87306909,Chrome,1366,768,,,,,0,1102,,,,,,,,,,,,,,,,,D,146,triangle,1,0,,,,,,,,,,,,,,,,switch,number,numSwt,j,0.8329,noRew,,,,,,4,,,,,,,,low,2,0,2,0,1,,,,,,,,,
295369,2022-09-20_22h37.49.725,vts_reward_expectancy,2022.2.4,Win32,59.87306909,Chrome,1366,768,,,,,10,1112,,,,,,,,,,,,,,,,,S,132,circle,1,0,,,,,,,,,,,,,,,,switch,letter,lettSwt,f,0.8567,noRew,,,,,,4,,,,,,,,low,3,0,3,0,1,,,,,,,,,
295369,2022-09-20_22h37.49.725,vts_reward_expectancy,2022.2.4,Win32,59.87306909,Chrome,1366,768,,,,,0,1112,,,,,,,,,,,,,,,,,W,167,triangle,1,0,,,,,,,,,,,,,,,,repeat,letter,lettRpt,f,1.1099,noRew,,,,,,4,,,,,,,,low,4,0,4,0,1,,,,,,,,,
295369,2022-09-20_22h37.49.725,vts_reward_expectancy,2022.2.4,Win32,59.87306909,Chrome,1366,768,,,,,10,1122,,,,,,,,,,,,,,,,,Y,160,circle,1,0,,,,,,,,,,,,,,,,switch,number,numSwt,k,0.6671,noRew,,,,,,4,,,,,,,,low,5,0,5,0,1,,,,,,,,,
295369,2022-09-20_22h37.49.725,vts_reward_expectancy,2022.2.4,Win32,59.87306909,Chrome,1366,768,,,,,0,1122,,,,,,,,,,,,,,,,,H,174,triangle,1,0,,,,,,,,,,,,,,,,switch,letter,lettSwt,d,0.8277,noRew,,,,,,4,,,,,,,,low,6,0,6,0,1,,,,,,,,,
295369,2022-09-20_22h37.49.725,vts_reward_expectancy,2022.2.4,Win32,59.87306909,Chrome,1366,768,,,,,1,1123,,,,,,,,,,,,,,,,,U,181,circle,1,0,,,,,,,,,,,,,,,,switch,number,numSwt,k,0.6783,noRew,,,,,,4,,,,,,,,low,7,0,7,0,1,,,,,,,,,
295369,2022-09-20_22h37.49.725,vts_reward_expectancy,2022.2.4,Win32,59.87306909,Chrome,1366,768,,,,,0,1123,,,,,,,,,,,,,,,,,F,139,triangle,1,0,,,,,,,,,,,,,,,,repeat,number,numRpt,j,0.9501,noRew,,,,,,4,,,,,,,,low,8,0,8,0,1,,,,,,,,,
295369,2022-09-20_22h37.49.725,vts_reward_expectancy,2022.2.4,Win32,59.87306909,Chrome,1366,768,,,,,1,1124,,,,,,,,,,,,,,,,,B,125,circle,1,0,,,,,,,,,,,,,,,,repeat,number,numRpt,j,0.8001,noRew,,,,,,4,,,,,,,,low,9,0,9,0,1,,,,,,,,,
295369,2022-09-20_22h37.49.725,vts_reward_expectancy,2022.2.4,Win32,59.87306909,Chrome,1366,768,,,,,0,1124,,,,,,,,,,,,,,,,,D,146,triangle,1,0,,,,,,,,,,,,,,,,repeat,number,numRpt,j,0.6342,noRew,,,,,,4,,,,,,,,low,10,0,10,0,1,,,,,,,,,
295369,2022-09-20_22h37.49.725,vts_reward_expectancy,2022.2.4,Win32,59.87306909,Chrome,1366,768,,,,,1,1125,,,,,,,,,,,,,,,,,S,132,circle,1,0,,,,,,,,,,,,,,,,switch,letter,lettSwt,f,1.5507,noRew,,,,,,4,,,,,,,,low,11,0,11,0,1,,,,,,,,,
295369,2022-09-20_22h37.49.725,vts_reward_expectancy,2022.2.4,Win32,59.87306909,Chrome,1366,768,,,,,1,1126,,,,,,,,,,,,,,,,,W,167,circle,1,0,,,,,,,,,,,,,,,,repeat,letter,lettRpt,f,1.342,noRew,,,,,,4,,,,,,,,low,12,0,12,0,1,,,,,,,,,
295369,2022-09-20_22h37.49.725,vts_reward_expectancy,2022.2.4,Win32,59.87306909,Chrome,1366,768,,,,,0,1126,,,,,,,,,,,,,,,,,Y,160,triangle,1,0,,,,,,,,,,,,,,,,switch,number,numSwt,k,1.35,noRew,,,,,,4,,,,,,,,low,13,0,13,0,1,,,,,,,,,
295369,2022-09-20_22h37.49.725,vts_reward_expectancy,2022.2.4,Win32,59.87306909,Chrome,1366,768,,,,,0,1126,,,,,,,,,,,,,,,,,H,174,triangle,1,0,,,,,,,,,,,,,,,,repeat,number,numRpt,k,1.1734,noRew,,,,,,4,,,,,,,,low,14,0,14,0,1,,,,,,,,,
295369,2022-09-20_22h37.49.725,vts_reward_expectancy,2022.2.4,Win32,59.87306909,Chrome,1366,768,,,,,1,1127,,,,,,,,,,,,,,,,,U,181,circle,1,0,,,,,,,,,,,,,,,,repeat,number,numRpt,k,0.6835,noRew,,,,,,4,,,,,,,,low,15,0,15,0,1,,,,,,,,,
295369,2022-09-20_22h37.49.725,vts_reward_expectancy,2022.2.4,Win32,59.87306909,Chrome,1366,768,,,,,1,1128,,,,,,,,,,,,,,,,,W,160,circle,1,0,,,,,,,,,,,,,,,,repeat,number,numRpt,k,0.6535,noRew,,,,,,4,,,,,,,,low,16,0,16,0,1,,,,,,,,,
295369,2022-09-20_22h37.49.725,vts_reward_expectancy,2022.2.4,Win32,59.87306909,Chrome,1366,768,,,,,0,1128,,,,,,,,,,,,,,,,,F,146,triangle,1,0,,,,,,,,,,,,,,,,repeat,number,numRpt,j,0.7114,noRew,,,,,,4,,,,,,,,low,17,0,17,0,1,,,,,,,,,
295369,2022-09-20_22h37.49.725,vts_reward_expectancy,2022.2.4,Win32,59.87306909,Chrome,1366,768,,,,,10,1138,,,,,,,,,,,,,,,,,U,125,circle,1,0,,,,,,,,,,,,,,,,switch,letter,lettSwt,f,1.0497,noRew,,,,,,4,,,,,,,,low,18,0,18,0,1,,,,,,,,,
295369,2022-09-20_22h37.49.725,vts_reward_expectancy,2022.2.4,Win32,59.87306909,Chrome,1366,768,,,,,0,1138,,,,,,,,,,,,,,,,,Y,132,triangle,0,0,,,,,,,,,,,,,,,,repeat,letter,NA,d,0.6896,noRew,,,,,,4,,,,,,,,low,19,0,19,0,1,,,,,,,,,
295369,2022-09-20_22h37.49.725,vts_reward_expectancy,2022.2.4,Win32,59.87306909,Chrome,1366,768,,,,,0,1138,,,,,,,,,,,,,,,,,D,139,triangle,1,1,,,,,,,,,,,,,,,,repeat,letter,lettRpt,d,0.8673,noRew,,,,,,4,,,,,,,,low,20,0,20,0,1,,,,,,,,,
295369,2022-09-20_22h37.49.725,vts_reward_expectancy,2022.2.4,Win32,59.87306909,Chrome,1366,768,,,,,1,1139,,,,,,,,,,,,,,,,,H,181,circle,1,0,,,,,,,,,,,,,,,,switch,number,numSwt,k,0.7093,noRew,,,,,,4,,,,,,,,low,21,0,21,0,1,,,,,,,,,
295369,2022-09-20_22h37.49.725,vts_reward_expectancy,2022.2.4,Win32,59.87306909,Chrome,1366,768,,,,,1,1140,,,,,,,,,,,,,,,,,B,167,circle,1,0,,,,,,,,,,,,,,,,repeat,number,numRpt,k,0.8524,noRew,,,,,,4,,,,,,,,low,22,0,22,0,1,,,,,,,,,
295369,2022-09-20_22h37.49.725,vts_reward_expectancy,2022.2.4,Win32,59.87306909,Chrome,1366,768,,,,,10,1150,,,,,,,,,,,,,,,,,S,174,triangle,1,0,,,,,,,,,,,,,,,,repeat,number,numRpt,k,0.6008,noRew,,,,,,4,,,,,,,,low,23,0,23,0,1,,,,,,,,,
295369,2022-09-20_22h37.49.725,vts_reward_expectancy,2022.2.4,Win32,59.87306909,Chrome,1366,768,,,,,1,1151,,,,,,,,,,,,,,,,,U,174,circle,1,0,,,,,,,,,,,,,,,,repeat,number,numRpt,k,0.8499,noRew,,,,,,4,,,,,,,,low,24,0,24,0,1,,,,,,,,,
295369,2022-09-20_22h37.49.725,vts_reward_expectancy,2022.2.4,Win32,59.87306909,Chrome,1366,768,,,,,10,1161,,,,,,,,,,,,,,,,,S,160,triangle,1,0,,,,,,,,,,,,,,,,repeat,number,numRpt,k,0.5086,noRew,,,,,,4,,,,,,,,low,25,0,25,0,1,,,,,,,,,
295369,2022-09-20_22h37.49.725,vts_reward_expectancy,2022.2.4,Win32,59.87306909,Chrome,1366,768,,,,,0,1161,,,,,,,,,,,,,,,,,B,146,triangle,1,0,,,,,,,,,,,,,,,,repeat,number,numRpt,j,0.6739,noRew,,,,,,4,,,,,,,,low,26,0,26,0,1,,,,,,,,,
295369,2022-09-20_22h37.49.725,vts_reward_expectancy,2022.2.4,Win32,59.87306909,Chrome,1366,768,,,,,1,1162,,,,,,,,,,,,,,,,,W,125,circle,1,0,,,,,,,,,,,,,,,,switch,letter,lettSwt,f,0.8733,noRew,,,,,,4,,,,,,,,low,27,0,27,0,1,,,,,,,,,
295369,2022-09-20_22h37.49.725,vts_reward_expectancy,2022.2.4,Win32,59.87306909,Chrome,1366,768,,,,,0,1162,,,,,,,,,,,,,,,,,D,181,triangle,1,0,,,,,,,,,,,,,,,,repeat,letter,lettRpt,d,0.6167,noRew,,,,,,4,,,,,,,,low,28,0,28,0,1,,,,,,,,,
295369,2022-09-20_22h37.49.725,vts_reward_expectancy,2022.2.4,Win32,59.87306909,Chrome,1366,768,,,,,10,1172,,,,,,,,,,,,,,,,,H,139,circle,1,0,,,,,,,,,,,,,,,,switch,number,numSwt,j,0.6226,noRew,,,,,,4,,,,,,,,low,29,0,29,0,1,,,,,,,,,
295369,2022-09-20_22h37.49.725,vts_reward_expectancy,2022.2.4,Win32,59.87306909,Chrome,1366,768,,,,,0,1172,,,,,,,,,,,,,,,,,F,167,triangle,1,0,,,,,,,,,,,,,,,,repeat,number,numRpt,k,0.7053,noRew,,,,,,4,,,,,,,,low,30,0,30,0,1,,,,,,,,,
295369,2022-09-20_22h37.49.725,vts_reward_expectancy,2022.2.4,Win32,59.87306909,Chrome,1366,768,,,,,10,1182,,,,,,,,,,,,,,,,,Y,132,circle,1,0,,,,,,,,,,,,,,,,switch,letter,lettSwt,f,0.9141,noRew,,,,,,4,,,,,,,,low,31,0,31,0,1,,,,,,,,,
295369,2022-09-20_22h37.49.725,vts_reward_expectancy,2022.2.4,Win32,59.87306909,Chrome,1366,768,,,,,1,1183,,,,,,,,,,,,,,,,,S,139,circle,1,0,,,,,,,,,,,,,,,,switch,number,numSwt,j,1.6036,noRew,,,,,,5,,,,,,space,1.3059,low,0,0,0,0,1,,,,,,,,,
295369,2022-09-20_22h37.49.725,vts_reward_expectancy,2022.2.4,Win32,59.87306909,Chrome,1366,768,,,,,0,1183,,,,,,,,,,,,,,,,,B,125,triangle,0,0,,,,,,,,,,,,,,,,repeat,number,NA,k,0.4831,noRew,,,,,,5,,,,,,,,low,1,0,1,0,1,,,,,,,,,
295369,2022-09-20_22h37.49.725,vts_reward_expectancy,2022.2.4,Win32,59.87306909,Chrome,1366,768,,,,,10,1193,,,,,,,,,,,,,,,,,W,132,circle,1,1,,,,,,,,,,,,,,,,repeat,number,numRpt,j,0.7669,noRew,,,,,,5,,,,,,,,low,2,0,2,0,1,,,,,,,,,
295369,2022-09-20_22h37.49.725,vts_reward_expectancy,2022.2.4,Win32,59.87306909,Chrome,1366,768,,,,,10,1203,,,,,,,,,,,,,,,,,D,181,triangle,1,0,,,,,,,,,,,,,,,,repeat,number,numRpt,k,0.5263,noRew,,,,,,5,,,,,,,,low,3,0,3,0,1,,,,,,,,,
295369,2022-09-20_22h37.49.725,vts_reward_expectancy,2022.2.4,Win32,59.87306909,Chrome,1366,768,,,,,1,1204,,,,,,,,,,,,,,,,,H,160,triangle,1,0,,,,,,,,,,,,,,,,repeat,number,numRpt,k,0.5073,noRew,,,,,,5,,,,,,,,low,4,0,4,0,1,,,,,,,,,
295369,2022-09-20_22h37.49.725,vts_reward_expectancy,2022.2.4,Win32,59.87306909,Chrome,1366,768,,,,,10,1214,,,,,,,,,,,,,,,,,F,174,circle,1,0,,,,,,,,,,,,,,,,repeat,number,numRpt,k,0.5672,noRew,,,,,,5,,,,,,,,low,5,0,5,0,1,,,,,,,,,
295369,2022-09-20_22h37.49.725,vts_reward_expectancy,2022.2.4,Win32,59.87306909,Chrome,1366,768,,,,,0,1214,,,,,,,,,,,,,,,,,U,167,triangle,1,0,,,,,,,,,,,,,,,,repeat,number,numRpt,k,0.7607,noRew,,,,,,5,,,,,,,,low,6,0,6,0,1,,,,,,,,,
295369,2022-09-20_22h37.49.725,vts_reward_expectancy,2022.2.4,Win32,59.87306909,Chrome,1366,768,,,,,0,1214,,,,,,,,,,,,,,,,,Y,146,circle,0,0,,,,,,,,,,,,,,,,switch,letter,NA,d,0.8003,noRew,,,,,,5,,,,,,,,low,7,0,7,0,1,,,,,,,,,
295369,2022-09-20_22h37.49.725,vts_reward_expectancy,2022.2.4,Win32,59.87306909,Chrome,1366,768,,,,,0,1214,,,,,,,,,,,,,,,,,S,139,triangle,0,1,,,,,,,,,,,,,,,,repeat,letter,NA,d,0.9998,noRew,,,,,,5,,,,,,,,low,8,0,8,0,1,,,,,,,,,
295369,2022-09-20_22h37.49.725,vts_reward_expectancy,2022.2.4,Win32,59.87306909,Chrome,1366,768,,,,,1,1215,,,,,,,,,,,,,,,,,B,125,circle,1,1,,,,,,,,,,,,,,,,repeat,letter,lettRpt,d,0.8499,noRew,,,,,,5,,,,,,,,low,9,0,9,0,1,,,,,,,,,
295369,2022-09-20_22h37.49.725,vts_reward_expectancy,2022.2.4,Win32,59.87306909,Chrome,1366,768,,,,,10,1225,,,,,,,,,,,,,,,,,W,132,circle,1,0,,,,,,,,,,,,,,,,repeat,letter,lettRpt,f,0.5694,noRew,,,,,,5,,,,,,,,low,10,0,10,0,1,,,,,,,,,
295369,2022-09-20_22h37.49.725,vts_reward_expectancy,2022.2.4,Win32,59.87306909,Chrome,1366,768,,,,,10,1235,,,,,,,,,,,,,,,,,D,181,triangle,1,0,,,,,,,,,,,,,,,,repeat,letter,lettRpt,d,0.5999,noRew,,,,,,5,,,,,,,,low,11,0,11,0,1,,,,,,,,,
295369,2022-09-20_22h37.49.725,vts_reward_expectancy,2022.2.4,Win32,59.87306909,Chrome,1366,768,,,,,10,1245,,,,,,,,,,,,,,,,,H,160,circle,1,0,,,,,,,,,,,,,,,,repeat,letter,lettRpt,d,0.7777,noRew,,,,,,5,,,,,,,,low,12,0,12,0,1,,,,,,,,,
295369,2022-09-20_22h37.49.725,vts_reward_expectancy,2022.2.4,Win32,59.87306909,Chrome,1366,768,,,,,10,1255,,,,,,,,,,,,,,,,,F,174,triangle,1,0,,,,,,,,,,,,,,,,repeat,letter,lettRpt,d,0.7001,noRew,,,,,,5,,,,,,,,low,13,0,13,0,1,,,,,,,,,
295369,2022-09-20_22h37.49.725,vts_reward_expectancy,2022.2.4,Win32,59.87306909,Chrome,1366,768,,,,,1,1256,,,,,,,,,,,,,,,,,U,167,triangle,1,0,,,,,,,,,,,,,,,,repeat,letter,lettRpt,f,0.6363,noRew,,,,,,5,,,,,,,,low,14,0,14,0,1,,,,,,,,,
295369,2022-09-20_22h37.49.725,vts_reward_expectancy,2022.2.4,Win32,59.87306909,Chrome,1366,768,,,,,10,1266,,,,,,,,,,,,,,,,,Y,146,circle,1,0,,,,,,,,,,,,,,,,repeat,letter,lettRpt,f,0.6175,noRew,,,,,,5,,,,,,,,low,15,0,15,0,1,,,,,,,,,
295369,2022-09-20_22h37.49.725,vts_reward_expectancy,2022.2.4,Win32,59.87306909,Chrome,1366,768,,,,,1,1267,,,,,,,,,,,,,,,,,S,139,circle,1,0,,,,,,,,,,,,,,,,repeat,letter,lettRpt,f,0.6424,noRew,,,,,,5,,,,,,,,low,16,0,16,0,1,,,,,,,,,
295369,2022-09-20_22h37.49.725,vts_reward_expectancy,2022.2.4,Win32,59.87306909,Chrome,1366,768,,,,,10,1277,,,,,,,,,,,,,,,,,Y,160,triangle,1,0,,,,,,,,,,,,,,,,repeat,letter,lettRpt,f,0.5745,noRew,,,,,,5,,,,,,,,low,17,0,17,0,1,,,,,,,,,
295369,2022-09-20_22h37.49.725,vts_reward_expectancy,2022.2.4,Win32,59.87306909,Chrome,1366,768,,,,,10,1287,,,,,,,,,,,,,,,,,W,174,circle,1,0,,,,,,,,,,,,,,,,repeat,letter,lettRpt,f,0.6425,noRew,,,,,,5,,,,,,,,low,18,0,18,0,1,,,,,,,,,
295369,2022-09-20_22h37.49.725,vts_reward_expectancy,2022.2.4,Win32,59.87306909,Chrome,1366,768,,,,,10,1297,,,,,,,,,,,,,,,,,U,181,triangle,1,0,,,,,,,,,,,,,,,,repeat,letter,lettRpt,f,0.6509,noRew,,,,,,5,,,,,,,,low,19,0,19,0,1,,,,,,,,,
295369,2022-09-20_22h37.49.725,vts_reward_expectancy,2022.2.4,Win32,59.87306909,Chrome,1366,768,,,,,10,1307,,,,,,,,,,,,,,,,,D,132,triangle,1,0,,,,,,,,,,,,,,,,repeat,letter,lettRpt,d,0.767,noRew,,,,,,5,,,,,,,,low,20,0,20,0,1,,,,,,,,,
295369,2022-09-20_22h37.49.725,vts_reward_expectancy,2022.2.4,Win32,59.87306909,Chrome,1366,768,,,,,1,1308,,,,,,,,,,,,,,,,,H,125,circle,1,0,,,,,,,,,,,,,,,,repeat,letter,lettRpt,d,0.7912,noRew,,,,,,5,,,,,,,,low,21,0,21,0,1,,,,,,,,,
295369,2022-09-20_22h37.49.725,vts_reward_expectancy,2022.2.4,Win32,59.87306909,Chrome,1366,768,,,,,1,1309,,,,,,,,,,,,,,,,,B,167,circle,1,0,,,,,,,,,,,,,,,,repeat,letter,lettRpt,d,0.5894,noRew,,,,,,5,,,,,,,,low,22,0,22,0,1,,,,,,,,,
295369,2022-09-20_22h37.49.725,vts_reward_expectancy,2022.2.4,Win32,59.87306909,Chrome,1366,768,,,,,1,1310,,,,,,,,,,,,,,,,,F,146,triangle,1,0,,,,,,,,,,,,,,,,repeat,letter,lettRpt,d,0.6442,noRew,,,,,,5,,,,,,,,low,23,0,23,0,1,,,,,,,,,
295369,2022-09-20_22h37.49.725,vts_reward_expectancy,2022.2.4,Win32,59.87306909,Chrome,1366,768,,,,,10,1320,,,,,,,,,,,,,,,,,B,125,circle,1,0,,,,,,,,,,,,,,,,repeat,letter,lettRpt,d,0.5757,noRew,,,,,,5,,,,,,,,low,24,0,24,0,1,,,,,,,,,
295369,2022-09-20_22h37.49.725,vts_reward_expectancy,2022.2.4,Win32,59.87306909,Chrome,1366,768,,,,,10,1330,,,,,,,,,,,,,,,,,D,160,triangle,1,0,,,,,,,,,,,,,,,,repeat,letter,lettRpt,d,0.6761,noRew,,,,,,5,,,,,,,,low,25,0,25,0,1,,,,,,,,,
295369,2022-09-20_22h37.49.725,vts_reward_expectancy,2022.2.4,Win32,59.87306909,Chrome,1366,768,,,,,1,1331,,,,,,,,,,,,,,,,,H,174,circle,1,0,,,,,,,,,,,,,,,,switch,number,numSwt,k,1.1338,noRew,,,,,,5,,,,,,,,low,26,0,26,0,1,,,,,,,,,
295369,2022-09-20_22h37.49.725,vts_reward_expectancy,2022.2.4,Win32,59.87306909,Chrome,1366,768,,,,,10,1341,,,,,,,,,,,,,,,,,F,181,triangle,1,0,,,,,,,,,,,,,,,,repeat,number,numRpt,k,0.594,noRew,,,,,,5,,,,,,,,low,27,0,27,0,1,,,,,,,,,
295369,2022-09-20_22h37.49.725,vts_reward_expectancy,2022.2.4,Win32,59.87306909,Chrome,1366,768,,,,,10,1351,,,,,,,,,,,,,,,,,S,167,triangle,1,0,,,,,,,,,,,,,,,,repeat,number,numRpt,k,0.5436,noRew,,,,,,5,,,,,,,,low,28,0,28,0,1,,,,,,,,,
295369,2022-09-20_22h37.49.725,vts_reward_expectancy,2022.2.4,Win32,59.87306909,Chrome,1366,768,,,,,10,1361,,,,,,,,,,,,,,,,,Y,132,circle,1,0,,,,,,,,,,,,,,,,repeat,number,numRpt,j,0.8245,noRew,,,,,,5,,,,,,,,low,29,0,29,0,1,,,,,,,,,
295369,2022-09-20_22h37.49.725,vts_reward_expectancy,2022.2.4,Win32,59.87306909,Chrome,1366,768,,,,,10,1371,,,,,,,,,,,,,,,,,U,139,circle,1,0,,,,,,,,,,,,,,,,repeat,number,numRpt,j,0.6367,noRew,,,,,,5,,,,,,,,low,30,0,30,0,1,,,,,,,,,
295369,2022-09-20_22h37.49.725,vts_reward_expectancy,2022.2.4,Win32,59.87306909,Chrome,1366,768,,,,,0,1371,,,,,,,,,,,,,,,,,W,146,triangle,1,0,,,,,,,,,,,,,,,,repeat,number,numRpt,j,0.8666,noRew,,,,,,5,,,,,,,,low,31,0,31,0,1,,,,,,,,,
295369,2022-09-20_22h37.49.725,vts_reward_expectancy,2022.2.4,Win32,59.87306909,Chrome,1366,768,,,,,,,,,,,,,,,,,,,,,,,,,,,,,,,,,,,,,,,,,,,,,,,,,,,,,,6,,,,,,,,,,,,,,Asked to do a number task and letter task by choosing d if letter closer to a or f if closer to z or j if number was less than 153 or k if number was greater than 153,1,,4,2,,2,1366,768
