participant,date,expName,psychopyVersion,OS,frameRate,browser,xResolution,yResolution,key_resp.keys,key_resp.rt,training_resp.keys,training_resp.rt,points_trial,points_cumul,trainBlock,training.thisRepN,training.thisTrialN,training.thisN,training.thisIndex,training.ran,LTriangleOpac,LCircleOpac,LHexagonOpac,LStarOpac,RTriangleOpac,RCircleOpac,RHexagonOpac,RStarOpac,LShape_ID,RShape_ID,curr_topStim,curr_bottStim,curr_shape,acc,E1,target_resp_prac1.keys,target_resp_prac1.rt,pracBlock,task1_prac_trials.thisRepN,task1_prac_trials.thisTrialN,task1_prac_trials.thisN,task1_prac_trials.thisIndex,task1_prac_trials.ran,target_resp_prac2.keys,target_resp_prac2.rt,task2_praac_trials.thisRepN,task2_praac_trials.thisTrialN,task2_praac_trials.thisN,task2_praac_trials.thisIndex,task2_praac_trials.ran,alt,task,condition,target_resp.keys,target_resp.rt,rewCond,vts_practice_trials.thisRepN,vts_practice_trials.thisTrialN,vts_practice_trials.thisN,vts_practice_trials.thisIndex,vts_practice_trials.ran,blockNum,trials_norew.thisRepN,trials_norew.thisTrialN,trials_norew.thisN,trials_norew.thisIndex,trials_norew.ran,key_resp_2.keys,key_resp_2.rt,rewExpect,trials_rew.thisRepN,trials_rew.thisTrialN,trials_rew.thisN,trials_rew.thisIndex,trials_rew.ran,Q1,Q2,Q2_text,Q3,Q4,Q5_text,Q5,xRes,yRes
295618,2022-10-06_13h01.10.181,vts_reward_expectancy,2022.2.4,Win32,123.1982259,Chrome,1600,1067,,,,,,,,,,,,,,,,,,,,,,,,,,,,,,,,,,,,,,,,,,,,,,,,,,,,,,,,,,,,,,,,,,,,,,,,,,,,
295618,2022-10-06_13h01.10.181,vts_reward_expectancy,2022.2.4,Win32,123.1982259,Chrome,1600,1067,space,14.4694,,,,,,,,,,,,,,,,,,,,,,,,,,,,,,,,,,,,,,,,,,,,,,,,,,,,,,,,,,,,,,,,,,,,,,,,,,
295618,2022-10-06_13h01.10.181,vts_reward_expectancy,2022.2.4,Win32,123.1982259,Chrome,1600,1067,,,,,,,,,,,,,,,,,,,,,,,,,,,,,,,,,,,,,,,,,,,,,,,,,,,,,,,,,,,,,,,,,,,,,,,,,,,,
295618,2022-10-06_13h01.10.181,vts_reward_expectancy,2022.2.4,Win32,123.1982259,Chrome,1600,1067,,,l,1.5884,10,10,0,0,0,0,8,1,0,0,1,0,0,0,0,1,hexagon,star,,,,,,,,,,,,,,,,,,,,,,,,,,,,,,,,,,,,,,,,,,,,,,,,,,,,,,
295618,2022-10-06_13h01.10.181,vts_reward_expectancy,2022.2.4,Win32,123.1982259,Chrome,1600,1067,,,a,0.9343,10,20,0,0,1,1,10,1,0,0,0,1,0,1,0,0,star ,circle,,,,,,,,,,,,,,,,,,,,,,,,,,,,,,,,,,,,,,,,,,,,,,,,,,,,,,
295618,2022-10-06_13h01.10.181,vts_reward_expectancy,2022.2.4,Win32,123.1982259,Chrome,1600,1067,,,l,0.5892,10,30,0,0,2,2,2,1,1,0,0,0,0,0,0,1,triangle,star,,,,,,,,,,,,,,,,,,,,,,,,,,,,,,,,,,,,,,,,,,,,,,,,,,,,,,
295618,2022-10-06_13h01.10.181,vts_reward_expectancy,2022.2.4,Win32,123.1982259,Chrome,1600,1067,,,l,1.3019,10,40,0,0,3,3,1,1,1,0,0,0,0,0,1,0,triangle,hexagon,,,,,,,,,,,,,,,,,,,,,,,,,,,,,,,,,,,,,,,,,,,,,,,,,,,,,,
295618,2022-10-06_13h01.10.181,vts_reward_expectancy,2022.2.4,Win32,123.1982259,Chrome,1600,1067,,,l,0.6762,10,50,0,0,4,4,5,1,0,1,0,0,0,0,0,1,circle,star,,,,,,,,,,,,,,,,,,,,,,,,,,,,,,,,,,,,,,,,,,,,,,,,,,,,,,
295618,2022-10-06_13h01.10.181,vts_reward_expectancy,2022.2.4,Win32,123.1982259,Chrome,1600,1067,,,a,0.491,10,60,0,0,5,5,11,1,0,0,0,1,0,0,1,0,star,hexagon,,,,,,,,,,,,,,,,,,,,,,,,,,,,,,,,,,,,,,,,,,,,,,,,,,,,,,
295618,2022-10-06_13h01.10.181,vts_reward_expectancy,2022.2.4,Win32,123.1982259,Chrome,1600,1067,,,a,1.8585,1,61,0,0,6,6,0,1,1,0,0,0,0,1,0,0,triangle,circle,,,,,,,,,,,,,,,,,,,,,,,,,,,,,,,,,,,,,,,,,,,,,,,,,,,,,,
295618,2022-10-06_13h01.10.181,vts_reward_expectancy,2022.2.4,Win32,123.1982259,Chrome,1600,1067,,,a,1.0498,10,71,0,0,7,7,6,1,0,0,1,0,1,0,0,0,hexagon,triangle,,,,,,,,,,,,,,,,,,,,,,,,,,,,,,,,,,,,,,,,,,,,,,,,,,,,,,
295618,2022-10-06_13h01.10.181,vts_reward_expectancy,2022.2.4,Win32,123.1982259,Chrome,1600,1067,,,a,0.6006,10,81,0,0,8,8,9,1,0,0,0,1,1,0,0,0,star,triangle,,,,,,,,,,,,,,,,,,,,,,,,,,,,,,,,,,,,,,,,,,,,,,,,,,,,,,
295618,2022-10-06_13h01.10.181,vts_reward_expectancy,2022.2.4,Win32,123.1982259,Chrome,1600,1067,,,l,1.5095,1,82,0,0,9,9,4,1,0,1,0,0,0,0,1,0,circle,hexagon,,,,,,,,,,,,,,,,,,,,,,,,,,,,,,,,,,,,,,,,,,,,,,,,,,,,,,
295618,2022-10-06_13h01.10.181,vts_reward_expectancy,2022.2.4,Win32,123.1982259,Chrome,1600,1067,,,a,0.967,1,83,0,0,10,10,3,1,0,1,0,0,1,0,0,0,circle,triangle,,,,,,,,,,,,,,,,,,,,,,,,,,,,,,,,,,,,,,,,,,,,,,,,,,,,,,
295618,2022-10-06_13h01.10.181,vts_reward_expectancy,2022.2.4,Win32,123.1982259,Chrome,1600,1067,,,l,1.2262,1,84,0,0,11,11,7,1,0,0,1,0,0,1,0,0,hexagon,circle,,,,,,,,,,,,,,,,,,,,,,,,,,,,,,,,,,,,,,,,,,,,,,,,,,,,,,
295618,2022-10-06_13h01.10.181,vts_reward_expectancy,2022.2.4,Win32,123.1982259,Chrome,1600,1067,,,a,0.6769,1,85,0,1,0,12,10,1,0,0,0,1,0,1,0,0,star ,circle,,,,,,,,,,,,,,,,,,,,,,,,,,,,,,,,,,,,,,,,,,,,,,,,,,,,,,
295618,2022-10-06_13h01.10.181,vts_reward_expectancy,2022.2.4,Win32,123.1982259,Chrome,1600,1067,,,a,1.6651,10,95,0,1,1,13,1,1,1,0,0,0,0,0,1,0,triangle,hexagon,,,,,,,,,,,,,,,,,,,,,,,,,,,,,,,,,,,,,,,,,,,,,,,,,,,,,,
295618,2022-10-06_13h01.10.181,vts_reward_expectancy,2022.2.4,Win32,123.1982259,Chrome,1600,1067,,,l,1.8418,1,96,0,1,2,14,4,1,0,1,0,0,0,0,1,0,circle,hexagon,,,,,,,,,,,,,,,,,,,,,,,,,,,,,,,,,,,,,,,,,,,,,,,,,,,,,,
295618,2022-10-06_13h01.10.181,vts_reward_expectancy,2022.2.4,Win32,123.1982259,Chrome,1600,1067,,,l,1.265,10,106,0,1,3,15,9,1,0,0,0,1,1,0,0,0,star,triangle,,,,,,,,,,,,,,,,,,,,,,,,,,,,,,,,,,,,,,,,,,,,,,,,,,,,,,
295618,2022-10-06_13h01.10.181,vts_reward_expectancy,2022.2.4,Win32,123.1982259,Chrome,1600,1067,,,a,0.6257,1,107,0,1,4,16,0,1,1,0,0,0,0,1,0,0,triangle,circle,,,,,,,,,,,,,,,,,,,,,,,,,,,,,,,,,,,,,,,,,,,,,,,,,,,,,,
295618,2022-10-06_13h01.10.181,vts_reward_expectancy,2022.2.4,Win32,123.1982259,Chrome,1600,1067,,,a,1.2059,1,108,0,1,5,17,5,1,0,1,0,0,0,0,0,1,circle,star,,,,,,,,,,,,,,,,,,,,,,,,,,,,,,,,,,,,,,,,,,,,,,,,,,,,,,
295618,2022-10-06_13h01.10.181,vts_reward_expectancy,2022.2.4,Win32,123.1982259,Chrome,1600,1067,,,l,1.418,1,109,0,1,6,18,3,1,0,1,0,0,1,0,0,0,circle,triangle,,,,,,,,,,,,,,,,,,,,,,,,,,,,,,,,,,,,,,,,,,,,,,,,,,,,,,
295618,2022-10-06_13h01.10.181,vts_reward_expectancy,2022.2.4,Win32,123.1982259,Chrome,1600,1067,,,l,1.184,1,110,0,1,7,19,6,1,0,0,1,0,1,0,0,0,hexagon,triangle,,,,,,,,,,,,,,,,,,,,,,,,,,,,,,,,,,,,,,,,,,,,,,,,,,,,,,
295618,2022-10-06_13h01.10.181,vts_reward_expectancy,2022.2.4,Win32,123.1982259,Chrome,1600,1067,,,l,0.9737,10,120,0,1,8,20,8,1,0,0,1,0,0,0,0,1,hexagon,star,,,,,,,,,,,,,,,,,,,,,,,,,,,,,,,,,,,,,,,,,,,,,,,,,,,,,,
295618,2022-10-06_13h01.10.181,vts_reward_expectancy,2022.2.4,Win32,123.1982259,Chrome,1600,1067,,,l,0.553,10,130,0,1,9,21,2,1,1,0,0,0,0,0,0,1,triangle,star,,,,,,,,,,,,,,,,,,,,,,,,,,,,,,,,,,,,,,,,,,,,,,,,,,,,,,
295618,2022-10-06_13h01.10.181,vts_reward_expectancy,2022.2.4,Win32,123.1982259,Chrome,1600,1067,,,a,1.132,1,131,0,1,10,22,7,1,0,0,1,0,0,1,0,0,hexagon,circle,,,,,,,,,,,,,,,,,,,,,,,,,,,,,,,,,,,,,,,,,,,,,,,,,,,,,,
295618,2022-10-06_13h01.10.181,vts_reward_expectancy,2022.2.4,Win32,123.1982259,Chrome,1600,1067,,,a,0.8097,1,132,0,1,11,23,11,1,0,0,0,1,0,0,1,0,star,hexagon,,,,,,,,,,,,,,,,,,,,,,,,,,,,,,,,,,,,,,,,,,,,,,,,,,,,,,
295618,2022-10-06_13h01.10.181,vts_reward_expectancy,2022.2.4,Win32,123.1982259,Chrome,1600,1067,,,a,1.0997,1,133,0,2,0,24,1,1,1,0,0,0,0,0,1,0,triangle,hexagon,,,,,,,,,,,,,,,,,,,,,,,,,,,,,,,,,,,,,,,,,,,,,,,,,,,,,,
295618,2022-10-06_13h01.10.181,vts_reward_expectancy,2022.2.4,Win32,123.1982259,Chrome,1600,1067,,,a,0.8342,10,143,0,2,1,25,11,1,0,0,0,1,0,0,1,0,star,hexagon,,,,,,,,,,,,,,,,,,,,,,,,,,,,,,,,,,,,,,,,,,,,,,,,,,,,,,
295618,2022-10-06_13h01.10.181,vts_reward_expectancy,2022.2.4,Win32,123.1982259,Chrome,1600,1067,,,a,1.0596,10,153,0,2,2,26,10,1,0,0,0,1,0,1,0,0,star ,circle,,,,,,,,,,,,,,,,,,,,,,,,,,,,,,,,,,,,,,,,,,,,,,,,,,,,,,
295618,2022-10-06_13h01.10.181,vts_reward_expectancy,2022.2.4,Win32,123.1982259,Chrome,1600,1067,,,l,1.207,10,163,0,2,3,27,4,1,0,1,0,0,0,0,1,0,circle,hexagon,,,,,,,,,,,,,,,,,,,,,,,,,,,,,,,,,,,,,,,,,,,,,,,,,,,,,,
295618,2022-10-06_13h01.10.181,vts_reward_expectancy,2022.2.4,Win32,123.1982259,Chrome,1600,1067,,,l,0.8095,10,173,0,2,4,28,5,1,0,1,0,0,0,0,0,1,circle,star,,,,,,,,,,,,,,,,,,,,,,,,,,,,,,,,,,,,,,,,,,,,,,,,,,,,,,
295618,2022-10-06_13h01.10.181,vts_reward_expectancy,2022.2.4,Win32,123.1982259,Chrome,1600,1067,,,a,0.8673,1,174,0,2,5,29,7,1,0,0,1,0,0,1,0,0,hexagon,circle,,,,,,,,,,,,,,,,,,,,,,,,,,,,,,,,,,,,,,,,,,,,,,,,,,,,,,
295618,2022-10-06_13h01.10.181,vts_reward_expectancy,2022.2.4,Win32,123.1982259,Chrome,1600,1067,,,a,1.341,10,184,0,2,6,30,9,1,0,0,0,1,1,0,0,0,star,triangle,,,,,,,,,,,,,,,,,,,,,,,,,,,,,,,,,,,,,,,,,,,,,,,,,,,,,,
295618,2022-10-06_13h01.10.181,vts_reward_expectancy,2022.2.4,Win32,123.1982259,Chrome,1600,1067,,,l,0.6161,10,194,0,2,7,31,2,1,1,0,0,0,0,0,0,1,triangle,star,,,,,,,,,,,,,,,,,,,,,,,,,,,,,,,,,,,,,,,,,,,,,,,,,,,,,,
295618,2022-10-06_13h01.10.181,vts_reward_expectancy,2022.2.4,Win32,123.1982259,Chrome,1600,1067,,,l,2.2907,10,204,0,2,8,32,0,1,1,0,0,0,0,1,0,0,triangle,circle,,,,,,,,,,,,,,,,,,,,,,,,,,,,,,,,,,,,,,,,,,,,,,,,,,,,,,
295618,2022-10-06_13h01.10.181,vts_reward_expectancy,2022.2.4,Win32,123.1982259,Chrome,1600,1067,,,a,0.7664,10,214,0,2,9,33,3,1,0,1,0,0,1,0,0,0,circle,triangle,,,,,,,,,,,,,,,,,,,,,,,,,,,,,,,,,,,,,,,,,,,,,,,,,,,,,,
295618,2022-10-06_13h01.10.181,vts_reward_expectancy,2022.2.4,Win32,123.1982259,Chrome,1600,1067,,,l,0.7005,1,215,0,2,10,34,8,1,0,0,1,0,0,0,0,1,hexagon,star,,,,,,,,,,,,,,,,,,,,,,,,,,,,,,,,,,,,,,,,,,,,,,,,,,,,,,
295618,2022-10-06_13h01.10.181,vts_reward_expectancy,2022.2.4,Win32,123.1982259,Chrome,1600,1067,,,l,1.1428,10,225,0,2,11,35,6,1,0,0,1,0,1,0,0,0,hexagon,triangle,,,,,,,,,,,,,,,,,,,,,,,,,,,,,,,,,,,,,,,,,,,,,,,,,,,,,,
295618,2022-10-06_13h01.10.181,vts_reward_expectancy,2022.2.4,Win32,123.1982259,Chrome,1600,1067,,,l,1.2256,10,235,1,0,0,0,4,1,0,1,0,0,0,0,1,0,circle,hexagon,,,,,,,,,,,,,,,,,,,,,,,,,,,,,,,,,,,,,,,,,,,,,,,,,,,,,,
295618,2022-10-06_13h01.10.181,vts_reward_expectancy,2022.2.4,Win32,123.1982259,Chrome,1600,1067,,,a,0.5837,10,245,1,0,1,1,11,1,0,0,0,1,0,0,1,0,star,hexagon,,,,,,,,,,,,,,,,,,,,,,,,,,,,,,,,,,,,,,,,,,,,,,,,,,,,,,
295618,2022-10-06_13h01.10.181,vts_reward_expectancy,2022.2.4,Win32,123.1982259,Chrome,1600,1067,,,l,0.9156,1,246,1,0,2,2,3,1,0,1,0,0,1,0,0,0,circle,triangle,,,,,,,,,,,,,,,,,,,,,,,,,,,,,,,,,,,,,,,,,,,,,,,,,,,,,,
295618,2022-10-06_13h01.10.181,vts_reward_expectancy,2022.2.4,Win32,123.1982259,Chrome,1600,1067,,,l,0.6657,10,256,1,0,3,3,8,1,0,0,1,0,0,0,0,1,hexagon,star,,,,,,,,,,,,,,,,,,,,,,,,,,,,,,,,,,,,,,,,,,,,,,,,,,,,,,
295618,2022-10-06_13h01.10.181,vts_reward_expectancy,2022.2.4,Win32,123.1982259,Chrome,1600,1067,,,l,1.0084,1,257,1,0,4,4,5,1,0,1,0,0,0,0,0,1,circle,star,,,,,,,,,,,,,,,,,,,,,,,,,,,,,,,,,,,,,,,,,,,,,,,,,,,,,,
295618,2022-10-06_13h01.10.181,vts_reward_expectancy,2022.2.4,Win32,123.1982259,Chrome,1600,1067,,,a,0.7679,10,267,1,0,5,5,9,1,0,0,0,1,1,0,0,0,star,triangle,,,,,,,,,,,,,,,,,,,,,,,,,,,,,,,,,,,,,,,,,,,,,,,,,,,,,,
295618,2022-10-06_13h01.10.181,vts_reward_expectancy,2022.2.4,Win32,123.1982259,Chrome,1600,1067,,,a,1.8406,1,268,1,0,6,6,1,1,1,0,0,0,0,0,1,0,triangle,hexagon,,,,,,,,,,,,,,,,,,,,,,,,,,,,,,,,,,,,,,,,,,,,,,,,,,,,,,
295618,2022-10-06_13h01.10.181,vts_reward_expectancy,2022.2.4,Win32,123.1982259,Chrome,1600,1067,,,a,1.2919,10,278,1,0,7,7,7,1,0,0,1,0,0,1,0,0,hexagon,circle,,,,,,,,,,,,,,,,,,,,,,,,,,,,,,,,,,,,,,,,,,,,,,,,,,,,,,
295618,2022-10-06_13h01.10.181,vts_reward_expectancy,2022.2.4,Win32,123.1982259,Chrome,1600,1067,,,l,1.2932,10,288,1,0,8,8,0,1,1,0,0,0,0,1,0,0,triangle,circle,,,,,,,,,,,,,,,,,,,,,,,,,,,,,,,,,,,,,,,,,,,,,,,,,,,,,,
295618,2022-10-06_13h01.10.181,vts_reward_expectancy,2022.2.4,Win32,123.1982259,Chrome,1600,1067,,,a,1.3173,1,289,1,0,9,9,6,1,0,0,1,0,1,0,0,0,hexagon,triangle,,,,,,,,,,,,,,,,,,,,,,,,,,,,,,,,,,,,,,,,,,,,,,,,,,,,,,
295618,2022-10-06_13h01.10.181,vts_reward_expectancy,2022.2.4,Win32,123.1982259,Chrome,1600,1067,,,l,0.9099,1,290,1,0,10,10,2,1,1,0,0,0,0,0,0,1,triangle,star,,,,,,,,,,,,,,,,,,,,,,,,,,,,,,,,,,,,,,,,,,,,,,,,,,,,,,
295618,2022-10-06_13h01.10.181,vts_reward_expectancy,2022.2.4,Win32,123.1982259,Chrome,1600,1067,,,a,1.6749,1,291,1,0,11,11,10,1,0,0,0,1,0,1,0,0,star ,circle,,,,,,,,,,,,,,,,,,,,,,,,,,,,,,,,,,,,,,,,,,,,,,,,,,,,,,
295618,2022-10-06_13h01.10.181,vts_reward_expectancy,2022.2.4,Win32,123.1982259,Chrome,1600,1067,,,l,1.0492,10,301,1,1,0,12,10,1,0,0,0,1,0,1,0,0,star ,circle,,,,,,,,,,,,,,,,,,,,,,,,,,,,,,,,,,,,,,,,,,,,,,,,,,,,,,
295618,2022-10-06_13h01.10.181,vts_reward_expectancy,2022.2.4,Win32,123.1982259,Chrome,1600,1067,,,a,0.7658,10,311,1,1,1,13,5,1,0,1,0,0,0,0,0,1,circle,star,,,,,,,,,,,,,,,,,,,,,,,,,,,,,,,,,,,,,,,,,,,,,,,,,,,,,,
295618,2022-10-06_13h01.10.181,vts_reward_expectancy,2022.2.4,Win32,123.1982259,Chrome,1600,1067,,,a,1.9746,10,321,1,1,2,14,9,1,0,0,0,1,1,0,0,0,star,triangle,,,,,,,,,,,,,,,,,,,,,,,,,,,,,,,,,,,,,,,,,,,,,,,,,,,,,,
295618,2022-10-06_13h01.10.181,vts_reward_expectancy,2022.2.4,Win32,123.1982259,Chrome,1600,1067,,,a,2.3589,1,322,1,1,3,15,1,1,1,0,0,0,0,0,1,0,triangle,hexagon,,,,,,,,,,,,,,,,,,,,,,,,,,,,,,,,,,,,,,,,,,,,,,,,,,,,,,
295618,2022-10-06_13h01.10.181,vts_reward_expectancy,2022.2.4,Win32,123.1982259,Chrome,1600,1067,,,a,0.6906,10,332,1,1,4,16,11,1,0,0,0,1,0,0,1,0,star,hexagon,,,,,,,,,,,,,,,,,,,,,,,,,,,,,,,,,,,,,,,,,,,,,,,,,,,,,,
295618,2022-10-06_13h01.10.181,vts_reward_expectancy,2022.2.4,Win32,123.1982259,Chrome,1600,1067,,,l,0.7089,10,342,1,1,5,17,8,1,0,0,1,0,0,0,0,1,hexagon,star,,,,,,,,,,,,,,,,,,,,,,,,,,,,,,,,,,,,,,,,,,,,,,,,,,,,,,
295618,2022-10-06_13h01.10.181,vts_reward_expectancy,2022.2.4,Win32,123.1982259,Chrome,1600,1067,,,l,0.8744,1,343,1,1,6,18,2,1,1,0,0,0,0,0,0,1,triangle,star,,,,,,,,,,,,,,,,,,,,,,,,,,,,,,,,,,,,,,,,,,,,,,,,,,,,,,
295618,2022-10-06_13h01.10.181,vts_reward_expectancy,2022.2.4,Win32,123.1982259,Chrome,1600,1067,,,l,1.1255,10,353,1,1,7,19,6,1,0,0,1,0,1,0,0,0,hexagon,triangle,,,,,,,,,,,,,,,,,,,,,,,,,,,,,,,,,,,,,,,,,,,,,,,,,,,,,,
295618,2022-10-06_13h01.10.181,vts_reward_expectancy,2022.2.4,Win32,123.1982259,Chrome,1600,1067,,,a,1.1013,10,363,1,1,8,20,4,1,0,1,0,0,0,0,1,0,circle,hexagon,,,,,,,,,,,,,,,,,,,,,,,,,,,,,,,,,,,,,,,,,,,,,,,,,,,,,,
295618,2022-10-06_13h01.10.181,vts_reward_expectancy,2022.2.4,Win32,123.1982259,Chrome,1600,1067,,,l,0.9339,10,373,1,1,9,21,7,1,0,0,1,0,0,1,0,0,hexagon,circle,,,,,,,,,,,,,,,,,,,,,,,,,,,,,,,,,,,,,,,,,,,,,,,,,,,,,,
295618,2022-10-06_13h01.10.181,vts_reward_expectancy,2022.2.4,Win32,123.1982259,Chrome,1600,1067,,,a,1.4487,1,374,1,1,10,22,0,1,1,0,0,0,0,1,0,0,triangle,circle,,,,,,,,,,,,,,,,,,,,,,,,,,,,,,,,,,,,,,,,,,,,,,,,,,,,,,
295618,2022-10-06_13h01.10.181,vts_reward_expectancy,2022.2.4,Win32,123.1982259,Chrome,1600,1067,,,a,5.9594,10,384,1,1,11,23,3,1,0,1,0,0,1,0,0,0,circle,triangle,,,,,,,,,,,,,,,,,,,,,,,,,,,,,,,,,,,,,,,,,,,,,,,,,,,,,,
295618,2022-10-06_13h01.10.181,vts_reward_expectancy,2022.2.4,Win32,123.1982259,Chrome,1600,1067,,,a,1.3994,10,394,1,2,0,24,11,1,0,0,0,1,0,0,1,0,star,hexagon,,,,,,,,,,,,,,,,,,,,,,,,,,,,,,,,,,,,,,,,,,,,,,,,,,,,,,
295618,2022-10-06_13h01.10.181,vts_reward_expectancy,2022.2.4,Win32,123.1982259,Chrome,1600,1067,,,l,0.9344,10,404,1,2,1,25,0,1,1,0,0,0,0,1,0,0,triangle,circle,,,,,,,,,,,,,,,,,,,,,,,,,,,,,,,,,,,,,,,,,,,,,,,,,,,,,,
295618,2022-10-06_13h01.10.181,vts_reward_expectancy,2022.2.4,Win32,123.1982259,Chrome,1600,1067,,,a,0.8259,1,405,1,2,2,26,3,1,0,1,0,0,1,0,0,0,circle,triangle,,,,,,,,,,,,,,,,,,,,,,,,,,,,,,,,,,,,,,,,,,,,,,,,,,,,,,
295618,2022-10-06_13h01.10.181,vts_reward_expectancy,2022.2.4,Win32,123.1982259,Chrome,1600,1067,,,a,1.3682,1,406,1,2,3,27,1,1,1,0,0,0,0,0,1,0,triangle,hexagon,,,,,,,,,,,,,,,,,,,,,,,,,,,,,,,,,,,,,,,,,,,,,,,,,,,,,,
295618,2022-10-06_13h01.10.181,vts_reward_expectancy,2022.2.4,Win32,123.1982259,Chrome,1600,1067,,,l,0.7339,10,416,1,2,4,28,2,1,1,0,0,0,0,0,0,1,triangle,star,,,,,,,,,,,,,,,,,,,,,,,,,,,,,,,,,,,,,,,,,,,,,,,,,,,,,,
295618,2022-10-06_13h01.10.181,vts_reward_expectancy,2022.2.4,Win32,123.1982259,Chrome,1600,1067,,,a,2.2601,10,426,1,2,5,29,6,1,0,0,1,0,1,0,0,0,hexagon,triangle,,,,,,,,,,,,,,,,,,,,,,,,,,,,,,,,,,,,,,,,,,,,,,,,,,,,,,
295618,2022-10-06_13h01.10.181,vts_reward_expectancy,2022.2.4,Win32,123.1982259,Chrome,1600,1067,,,l,1.9921,10,436,1,2,6,30,7,1,0,0,1,0,0,1,0,0,hexagon,circle,,,,,,,,,,,,,,,,,,,,,,,,,,,,,,,,,,,,,,,,,,,,,,,,,,,,,,
295618,2022-10-06_13h01.10.181,vts_reward_expectancy,2022.2.4,Win32,123.1982259,Chrome,1600,1067,,,l,0.8166,10,446,1,2,7,31,5,1,0,1,0,0,0,0,0,1,circle,star,,,,,,,,,,,,,,,,,,,,,,,,,,,,,,,,,,,,,,,,,,,,,,,,,,,,,,
295618,2022-10-06_13h01.10.181,vts_reward_expectancy,2022.2.4,Win32,123.1982259,Chrome,1600,1067,,,l,0.8506,10,456,1,2,8,32,8,1,0,0,1,0,0,0,0,1,hexagon,star,,,,,,,,,,,,,,,,,,,,,,,,,,,,,,,,,,,,,,,,,,,,,,,,,,,,,,
295618,2022-10-06_13h01.10.181,vts_reward_expectancy,2022.2.4,Win32,123.1982259,Chrome,1600,1067,,,l,1.0758,10,466,1,2,9,33,4,1,0,1,0,0,0,0,1,0,circle,hexagon,,,,,,,,,,,,,,,,,,,,,,,,,,,,,,,,,,,,,,,,,,,,,,,,,,,,,,
295618,2022-10-06_13h01.10.181,vts_reward_expectancy,2022.2.4,Win32,123.1982259,Chrome,1600,1067,,,a,0.9258,10,476,1,2,10,34,10,1,0,0,0,1,0,1,0,0,star ,circle,,,,,,,,,,,,,,,,,,,,,,,,,,,,,,,,,,,,,,,,,,,,,,,,,,,,,,
295618,2022-10-06_13h01.10.181,vts_reward_expectancy,2022.2.4,Win32,123.1982259,Chrome,1600,1067,,,a,0.5247,10,486,1,2,11,35,9,1,0,0,0,1,1,0,0,0,star,triangle,,,,,,,,,,,,,,,,,,,,,,,,,,,,,,,,,,,,,,,,,,,,,,,,,,,,,,
295618,2022-10-06_13h01.10.181,vts_reward_expectancy,2022.2.4,Win32,123.1982259,Chrome,1600,1067,,,l,1.2145,1,487,2,0,0,0,1,1,1,0,0,0,0,0,1,0,triangle,hexagon,,,,,,,,,,,,,,,,,,,,,,,,,,,,,,,,,,,,,,,,,,,,,,,,,,,,,,
295618,2022-10-06_13h01.10.181,vts_reward_expectancy,2022.2.4,Win32,123.1982259,Chrome,1600,1067,,,l,0.5324,1,488,2,0,1,1,3,1,0,1,0,0,1,0,0,0,circle,triangle,,,,,,,,,,,,,,,,,,,,,,,,,,,,,,,,,,,,,,,,,,,,,,,,,,,,,,
295618,2022-10-06_13h01.10.181,vts_reward_expectancy,2022.2.4,Win32,123.1982259,Chrome,1600,1067,,,l,0.4591,10,498,2,0,2,2,10,1,0,0,0,1,0,1,0,0,star ,circle,,,,,,,,,,,,,,,,,,,,,,,,,,,,,,,,,,,,,,,,,,,,,,,,,,,,,,
295618,2022-10-06_13h01.10.181,vts_reward_expectancy,2022.2.4,Win32,123.1982259,Chrome,1600,1067,,,a,0.5714,1,499,2,0,3,3,8,1,0,0,1,0,0,0,0,1,hexagon,star,,,,,,,,,,,,,,,,,,,,,,,,,,,,,,,,,,,,,,,,,,,,,,,,,,,,,,
295618,2022-10-06_13h01.10.181,vts_reward_expectancy,2022.2.4,Win32,123.1982259,Chrome,1600,1067,,,l,0.5421,10,509,2,0,4,4,4,1,0,1,0,0,0,0,1,0,circle,hexagon,,,,,,,,,,,,,,,,,,,,,,,,,,,,,,,,,,,,,,,,,,,,,,,,,,,,,,
295618,2022-10-06_13h01.10.181,vts_reward_expectancy,2022.2.4,Win32,123.1982259,Chrome,1600,1067,,,l,0.7914,10,519,2,0,5,5,5,1,0,1,0,0,0,0,0,1,circle,star,,,,,,,,,,,,,,,,,,,,,,,,,,,,,,,,,,,,,,,,,,,,,,,,,,,,,,
295618,2022-10-06_13h01.10.181,vts_reward_expectancy,2022.2.4,Win32,123.1982259,Chrome,1600,1067,,,l,0.9971,10,529,2,0,6,6,0,1,1,0,0,0,0,1,0,0,triangle,circle,,,,,,,,,,,,,,,,,,,,,,,,,,,,,,,,,,,,,,,,,,,,,,,,,,,,,,
295618,2022-10-06_13h01.10.181,vts_reward_expectancy,2022.2.4,Win32,123.1982259,Chrome,1600,1067,,,a,0.5083,10,539,2,0,7,7,9,1,0,0,0,1,1,0,0,0,star,triangle,,,,,,,,,,,,,,,,,,,,,,,,,,,,,,,,,,,,,,,,,,,,,,,,,,,,,,
295618,2022-10-06_13h01.10.181,vts_reward_expectancy,2022.2.4,Win32,123.1982259,Chrome,1600,1067,,,l,0.6824,10,549,2,0,8,8,2,1,1,0,0,0,0,0,0,1,triangle,star,,,,,,,,,,,,,,,,,,,,,,,,,,,,,,,,,,,,,,,,,,,,,,,,,,,,,,
295618,2022-10-06_13h01.10.181,vts_reward_expectancy,2022.2.4,Win32,123.1982259,Chrome,1600,1067,,,a,0.6943,1,550,2,0,9,9,6,1,0,0,1,0,1,0,0,0,hexagon,triangle,,,,,,,,,,,,,,,,,,,,,,,,,,,,,,,,,,,,,,,,,,,,,,,,,,,,,,
295618,2022-10-06_13h01.10.181,vts_reward_expectancy,2022.2.4,Win32,123.1982259,Chrome,1600,1067,,,a,0.7101,1,551,2,0,10,10,7,1,0,0,1,0,0,1,0,0,hexagon,circle,,,,,,,,,,,,,,,,,,,,,,,,,,,,,,,,,,,,,,,,,,,,,,,,,,,,,,
295618,2022-10-06_13h01.10.181,vts_reward_expectancy,2022.2.4,Win32,123.1982259,Chrome,1600,1067,,,a,0.6188,10,561,2,0,11,11,11,1,0,0,0,1,0,0,1,0,star,hexagon,,,,,,,,,,,,,,,,,,,,,,,,,,,,,,,,,,,,,,,,,,,,,,,,,,,,,,
295618,2022-10-06_13h01.10.181,vts_reward_expectancy,2022.2.4,Win32,123.1982259,Chrome,1600,1067,,,a,0.4505,10,571,2,1,0,12,9,1,0,0,0,1,1,0,0,0,star,triangle,,,,,,,,,,,,,,,,,,,,,,,,,,,,,,,,,,,,,,,,,,,,,,,,,,,,,,
295618,2022-10-06_13h01.10.181,vts_reward_expectancy,2022.2.4,Win32,123.1982259,Chrome,1600,1067,,,a,0.485,1,572,2,1,1,13,0,1,1,0,0,0,0,1,0,0,triangle,circle,,,,,,,,,,,,,,,,,,,,,,,,,,,,,,,,,,,,,,,,,,,,,,,,,,,,,,
295618,2022-10-06_13h01.10.181,vts_reward_expectancy,2022.2.4,Win32,123.1982259,Chrome,1600,1067,,,a,0.4996,10,582,2,1,2,14,3,1,0,1,0,0,1,0,0,0,circle,triangle,,,,,,,,,,,,,,,,,,,,,,,,,,,,,,,,,,,,,,,,,,,,,,,,,,,,,,
295618,2022-10-06_13h01.10.181,vts_reward_expectancy,2022.2.4,Win32,123.1982259,Chrome,1600,1067,,,l,0.5834,10,592,2,1,3,15,7,1,0,0,1,0,0,1,0,0,hexagon,circle,,,,,,,,,,,,,,,,,,,,,,,,,,,,,,,,,,,,,,,,,,,,,,,,,,,,,,
295618,2022-10-06_13h01.10.181,vts_reward_expectancy,2022.2.4,Win32,123.1982259,Chrome,1600,1067,,,l,0.7155,1,593,2,1,4,16,6,1,0,0,1,0,1,0,0,0,hexagon,triangle,,,,,,,,,,,,,,,,,,,,,,,,,,,,,,,,,,,,,,,,,,,,,,,,,,,,,,
295618,2022-10-06_13h01.10.181,vts_reward_expectancy,2022.2.4,Win32,123.1982259,Chrome,1600,1067,,,l,0.7565,10,603,2,1,5,17,2,1,1,0,0,0,0,0,0,1,triangle,star,,,,,,,,,,,,,,,,,,,,,,,,,,,,,,,,,,,,,,,,,,,,,,,,,,,,,,
295618,2022-10-06_13h01.10.181,vts_reward_expectancy,2022.2.4,Win32,123.1982259,Chrome,1600,1067,,,l,1.1654,10,613,2,1,6,18,8,1,0,0,1,0,0,0,0,1,hexagon,star,,,,,,,,,,,,,,,,,,,,,,,,,,,,,,,,,,,,,,,,,,,,,,,,,,,,,,
295618,2022-10-06_13h01.10.181,vts_reward_expectancy,2022.2.4,Win32,123.1982259,Chrome,1600,1067,,,a,0.8178,10,623,2,1,7,19,5,1,0,1,0,0,0,0,0,1,circle,star,,,,,,,,,,,,,,,,,,,,,,,,,,,,,,,,,,,,,,,,,,,,,,,,,,,,,,
295618,2022-10-06_13h01.10.181,vts_reward_expectancy,2022.2.4,Win32,123.1982259,Chrome,1600,1067,,,l,0.6006,1,624,2,1,8,20,1,1,1,0,0,0,0,0,1,0,triangle,hexagon,,,,,,,,,,,,,,,,,,,,,,,,,,,,,,,,,,,,,,,,,,,,,,,,,,,,,,
295618,2022-10-06_13h01.10.181,vts_reward_expectancy,2022.2.4,Win32,123.1982259,Chrome,1600,1067,,,l,0.4861,1,625,2,1,9,21,10,1,0,0,0,1,0,1,0,0,star ,circle,,,,,,,,,,,,,,,,,,,,,,,,,,,,,,,,,,,,,,,,,,,,,,,,,,,,,,
295618,2022-10-06_13h01.10.181,vts_reward_expectancy,2022.2.4,Win32,123.1982259,Chrome,1600,1067,,,a,0.6431,10,635,2,1,10,22,11,1,0,0,0,1,0,0,1,0,star,hexagon,,,,,,,,,,,,,,,,,,,,,,,,,,,,,,,,,,,,,,,,,,,,,,,,,,,,,,
295618,2022-10-06_13h01.10.181,vts_reward_expectancy,2022.2.4,Win32,123.1982259,Chrome,1600,1067,,,a,0.5822,10,645,2,1,11,23,4,1,0,1,0,0,0,0,1,0,circle,hexagon,,,,,,,,,,,,,,,,,,,,,,,,,,,,,,,,,,,,,,,,,,,,,,,,,,,,,,
295618,2022-10-06_13h01.10.181,vts_reward_expectancy,2022.2.4,Win32,123.1982259,Chrome,1600,1067,,,l,0.8228,10,655,2,2,0,24,8,1,0,0,1,0,0,0,0,1,hexagon,star,,,,,,,,,,,,,,,,,,,,,,,,,,,,,,,,,,,,,,,,,,,,,,,,,,,,,,
295618,2022-10-06_13h01.10.181,vts_reward_expectancy,2022.2.4,Win32,123.1982259,Chrome,1600,1067,,,l,0.5678,1,656,2,2,1,25,2,1,1,0,0,0,0,0,0,1,triangle,star,,,,,,,,,,,,,,,,,,,,,,,,,,,,,,,,,,,,,,,,,,,,,,,,,,,,,,
295618,2022-10-06_13h01.10.181,vts_reward_expectancy,2022.2.4,Win32,123.1982259,Chrome,1600,1067,,,l,0.7516,1,657,2,2,2,26,5,1,0,1,0,0,0,0,0,1,circle,star,,,,,,,,,,,,,,,,,,,,,,,,,,,,,,,,,,,,,,,,,,,,,,,,,,,,,,
295618,2022-10-06_13h01.10.181,vts_reward_expectancy,2022.2.4,Win32,123.1982259,Chrome,1600,1067,,,l,1.0002,10,667,2,2,3,27,10,1,0,0,0,1,0,1,0,0,star ,circle,,,,,,,,,,,,,,,,,,,,,,,,,,,,,,,,,,,,,,,,,,,,,,,,,,,,,,
295618,2022-10-06_13h01.10.181,vts_reward_expectancy,2022.2.4,Win32,123.1982259,Chrome,1600,1067,,,l,0.6489,10,677,2,2,4,28,0,1,1,0,0,0,0,1,0,0,triangle,circle,,,,,,,,,,,,,,,,,,,,,,,,,,,,,,,,,,,,,,,,,,,,,,,,,,,,,,
295618,2022-10-06_13h01.10.181,vts_reward_expectancy,2022.2.4,Win32,123.1982259,Chrome,1600,1067,,,a,1.2754,10,687,2,2,5,29,9,1,0,0,0,1,1,0,0,0,star,triangle,,,,,,,,,,,,,,,,,,,,,,,,,,,,,,,,,,,,,,,,,,,,,,,,,,,,,,
295618,2022-10-06_13h01.10.181,vts_reward_expectancy,2022.2.4,Win32,123.1982259,Chrome,1600,1067,,,a,1.1013,1,688,2,2,6,30,6,1,0,0,1,0,1,0,0,0,hexagon,triangle,,,,,,,,,,,,,,,,,,,,,,,,,,,,,,,,,,,,,,,,,,,,,,,,,,,,,,
295618,2022-10-06_13h01.10.181,vts_reward_expectancy,2022.2.4,Win32,123.1982259,Chrome,1600,1067,,,l,0.9412,10,698,2,2,7,31,7,1,0,0,1,0,0,1,0,0,hexagon,circle,,,,,,,,,,,,,,,,,,,,,,,,,,,,,,,,,,,,,,,,,,,,,,,,,,,,,,
295618,2022-10-06_13h01.10.181,vts_reward_expectancy,2022.2.4,Win32,123.1982259,Chrome,1600,1067,,,l,0.5339,1,699,2,2,8,32,3,1,0,1,0,0,1,0,0,0,circle,triangle,,,,,,,,,,,,,,,,,,,,,,,,,,,,,,,,,,,,,,,,,,,,,,,,,,,,,,
295618,2022-10-06_13h01.10.181,vts_reward_expectancy,2022.2.4,Win32,123.1982259,Chrome,1600,1067,,,a,1.6765,10,709,2,2,9,33,11,1,0,0,0,1,0,0,1,0,star,hexagon,,,,,,,,,,,,,,,,,,,,,,,,,,,,,,,,,,,,,,,,,,,,,,,,,,,,,,
295618,2022-10-06_13h01.10.181,vts_reward_expectancy,2022.2.4,Win32,123.1982259,Chrome,1600,1067,,,a,1.0004,10,719,2,2,10,34,4,1,0,1,0,0,0,0,1,0,circle,hexagon,,,,,,,,,,,,,,,,,,,,,,,,,,,,,,,,,,,,,,,,,,,,,,,,,,,,,,
295618,2022-10-06_13h01.10.181,vts_reward_expectancy,2022.2.4,Win32,123.1982259,Chrome,1600,1067,,,a,0.6169,1,720,2,2,11,35,1,1,1,0,0,0,0,0,1,0,triangle,hexagon,,,,,,,,,,,,,,,,,,,,,,,,,,,,,,,,,,,,,,,,,,,,,,,,,,,,,,
295618,2022-10-06_13h01.10.181,vts_reward_expectancy,2022.2.4,Win32,123.1982259,Chrome,1600,1067,,,,,,,,,,,,,,,,,,,,,,,139,H,star,1,0,d,0.918,0,0,0,0,0,1,,,,,,,,,,,,,,,,,,,,,,,,,,,,,,,,,,,,,,,,,
295618,2022-10-06_13h01.10.181,vts_reward_expectancy,2022.2.4,Win32,123.1982259,Chrome,1600,1067,,,,,,,,,,,,,,,,,,,,,,,181,W,circle,1,0,f,0.542,0,1,0,1,0,1,,,,,,,,,,,,,,,,,,,,,,,,,,,,,,,,,,,,,,,,,
295618,2022-10-06_13h01.10.181,vts_reward_expectancy,2022.2.4,Win32,123.1982259,Chrome,1600,1067,,,,,,,,,,,,,,,,,,,,,,,146,U,triangle,1,0,d,0.8411,0,2,0,2,0,1,,,,,,,,,,,,,,,,,,,,,,,,,,,,,,,,,,,,,,,,,
295618,2022-10-06_13h01.10.181,vts_reward_expectancy,2022.2.4,Win32,123.1982259,Chrome,1600,1067,,,,,,,,,,,,,,,,,,,,,,,174,B,hexagon,1,0,f,0.7085,0,3,0,3,0,1,,,,,,,,,,,,,,,,,,,,,,,,,,,,,,,,,,,,,,,,,
295618,2022-10-06_13h01.10.181,vts_reward_expectancy,2022.2.4,Win32,123.1982259,Chrome,1600,1067,,,,,,,,,,,,,,,,,,,,,,,160,S,star,1,0,f,1.0094,0,4,0,4,0,1,,,,,,,,,,,,,,,,,,,,,,,,,,,,,,,,,,,,,,,,,
295618,2022-10-06_13h01.10.181,vts_reward_expectancy,2022.2.4,Win32,123.1982259,Chrome,1600,1067,,,,,,,,,,,,,,,,,,,,,,,125,Y,circle,1,0,d,0.6276,0,5,0,5,0,1,,,,,,,,,,,,,,,,,,,,,,,,,,,,,,,,,,,,,,,,,
295618,2022-10-06_13h01.10.181,vts_reward_expectancy,2022.2.4,Win32,123.1982259,Chrome,1600,1067,,,,,,,,,,,,,,,,,,,,,,,132,D,triangle,1,0,d,0.8827,0,6,0,6,0,1,,,,,,,,,,,,,,,,,,,,,,,,,,,,,,,,,,,,,,,,,
295618,2022-10-06_13h01.10.181,vts_reward_expectancy,2022.2.4,Win32,123.1982259,Chrome,1600,1067,,,,,,,,,,,,,,,,,,,,,,,167,F,hexagon,1,0,f,0.5997,0,7,0,7,0,1,,,,,,,,,,,,,,,,,,,,,,,,,,,,,,,,,,,,,,,,,
295618,2022-10-06_13h01.10.181,vts_reward_expectancy,2022.2.4,Win32,123.1982259,Chrome,1600,1067,,,,,,,,,,,,,,,,,,,,,,,139,H,circle,1,0,d,0.5667,0,8,0,8,0,1,,,,,,,,,,,,,,,,,,,,,,,,,,,,,,,,,,,,,,,,,
295618,2022-10-06_13h01.10.181,vts_reward_expectancy,2022.2.4,Win32,123.1982259,Chrome,1600,1067,,,,,,,,,,,,,,,,,,,,,,,181,W,star,1,0,f,0.558,0,9,0,9,0,1,,,,,,,,,,,,,,,,,,,,,,,,,,,,,,,,,,,,,,,,,
295618,2022-10-06_13h01.10.181,vts_reward_expectancy,2022.2.4,Win32,123.1982259,Chrome,1600,1067,,,,,,,,,,,,,,,,,,,,,,,167,S,triangle,1,0,,,1,,,,,,k,1.2914,0,0,0,0,1,,,,,,,,,,,,,,,,,,,,,,,,,,,,,,,,,,
295618,2022-10-06_13h01.10.181,vts_reward_expectancy,2022.2.4,Win32,123.1982259,Chrome,1600,1067,,,,,,,,,,,,,,,,,,,,,,,146,H,hexagon,1,0,,,1,,,,,,j,0.8671,1,0,1,0,1,,,,,,,,,,,,,,,,,,,,,,,,,,,,,,,,,,
295618,2022-10-06_13h01.10.181,vts_reward_expectancy,2022.2.4,Win32,123.1982259,Chrome,1600,1067,,,,,,,,,,,,,,,,,,,,,,,174,Y,star,1,0,,,1,,,,,,k,0.648,2,0,2,0,1,,,,,,,,,,,,,,,,,,,,,,,,,,,,,,,,,,
295618,2022-10-06_13h01.10.181,vts_reward_expectancy,2022.2.4,Win32,123.1982259,Chrome,1600,1067,,,,,,,,,,,,,,,,,,,,,,,181,D,circle,1,0,,,1,,,,,,j,0.6833,3,0,3,0,1,,,,,,,,,,,,,,,,,,,,,,,,,,,,,,,,,,
295618,2022-10-06_13h01.10.181,vts_reward_expectancy,2022.2.4,Win32,123.1982259,Chrome,1600,1067,,,,,,,,,,,,,,,,,,,,,,,125,U,triangle,1,0,,,1,,,,,,k,0.5687,4,0,4,0,1,,,,,,,,,,,,,,,,,,,,,,,,,,,,,,,,,,
295618,2022-10-06_13h01.10.181,vts_reward_expectancy,2022.2.4,Win32,123.1982259,Chrome,1600,1067,,,,,,,,,,,,,,,,,,,,,,,160,F,hexagon,1,0,,,1,,,,,,j,0.7254,5,0,5,0,1,,,,,,,,,,,,,,,,,,,,,,,,,,,,,,,,,,
295618,2022-10-06_13h01.10.181,vts_reward_expectancy,2022.2.4,Win32,123.1982259,Chrome,1600,1067,,,,,,,,,,,,,,,,,,,,,,,139,W,star,1,0,,,1,,,,,,k,0.709,6,0,6,0,1,,,,,,,,,,,,,,,,,,,,,,,,,,,,,,,,,,
295618,2022-10-06_13h01.10.181,vts_reward_expectancy,2022.2.4,Win32,123.1982259,Chrome,1600,1067,,,,,,,,,,,,,,,,,,,,,,,132,B,circle,1,0,,,1,,,,,,j,0.5586,7,0,7,0,1,,,,,,,,,,,,,,,,,,,,,,,,,,,,,,,,,,
295618,2022-10-06_13h01.10.181,vts_reward_expectancy,2022.2.4,Win32,123.1982259,Chrome,1600,1067,,,,,,,,,,,,,,,,,,,,,,,167,S,star,1,0,,,1,,,,,,k,0.8005,8,0,8,0,1,,,,,,,,,,,,,,,,,,,,,,,,,,,,,,,,,,
295618,2022-10-06_13h01.10.181,vts_reward_expectancy,2022.2.4,Win32,123.1982259,Chrome,1600,1067,,,,,,,,,,,,,,,,,,,,,,,146,H,triangle,1,0,,,1,,,,,,j,0.6246,9,0,9,0,1,,,,,,,,,,,,,,,,,,,,,,,,,,,,,,,,,,
295618,2022-10-06_13h01.10.181,vts_reward_expectancy,2022.2.4,Win32,123.1982259,Chrome,1600,1067,,,,,0,720,,,,,,,,,,,,,,,,,181,W,hexagon,1,0,,,2,,,,,,,,,,,,,-1,number,NA,f,1.7115,vtsPrac,0,0,0,0,1,,,,,,,,,,,,,,,,,,,,,,,
295618,2022-10-06_13h01.10.181,vts_reward_expectancy,2022.2.4,Win32,123.1982259,Chrome,1600,1067,,,,,0,720,,,,,,,,,,,,,,,,,174,B,star,1,0,,,2,,,,,,,,,,,,,repeat,number,numRpt,f,1.3081,vtsPrac,1,0,1,0,1,,,,,,,,,,,,,,,,,,,,,,,
295618,2022-10-06_13h01.10.181,vts_reward_expectancy,2022.2.4,Win32,123.1982259,Chrome,1600,1067,,,,,0,720,,,,,,,,,,,,,,,,,160,H,hexagon,1,0,,,2,,,,,,,,,,,,,repeat,number,numRpt,f,1.0573,vtsPrac,2,0,2,0,1,,,,,,,,,,,,,,,,,,,,,,,
295618,2022-10-06_13h01.10.181,vts_reward_expectancy,2022.2.4,Win32,123.1982259,Chrome,1600,1067,,,,,0,720,,,,,,,,,,,,,,,,,132,D,star,1,0,,,2,,,,,,,,,,,,,switch,letter,lettSwt,j,0.8582,vtsPrac,3,0,3,0,1,,,,,,,,,,,,,,,,,,,,,,,
295618,2022-10-06_13h01.10.181,vts_reward_expectancy,2022.2.4,Win32,123.1982259,Chrome,1600,1067,,,,,0,720,,,,,,,,,,,,,,,,,181,W,star,1,0,,,2,,,,,,,,,,,,,repeat,letter,lettRpt,k,0.6746,vtsPrac,4,0,4,0,1,,,,,,,,,,,,,,,,,,,,,,,
295618,2022-10-06_13h01.10.181,vts_reward_expectancy,2022.2.4,Win32,123.1982259,Chrome,1600,1067,,,,,0,720,,,,,,,,,,,,,,,,,174,B,hexagon,1,0,,,2,,,,,,,,,,,,,switch,number,numSwt,f,2.5072,vtsPrac,5,0,5,0,1,,,,,,,,,,,,,,,,,,,,,,,
295618,2022-10-06_13h01.10.181,vts_reward_expectancy,2022.2.4,Win32,123.1982259,Chrome,1600,1067,,,,,0,720,,,,,,,,,,,,,,,,,160,H,triangle,1,0,,,2,,,,,,,,,,,,,switch,letter,lettSwt,j,0.6082,vtsPrac,6,0,6,0,1,,,,,,,,,,,,,,,,,,,,,,,
295618,2022-10-06_13h01.10.181,vts_reward_expectancy,2022.2.4,Win32,123.1982259,Chrome,1600,1067,,,,,0,720,,,,,,,,,,,,,,,,,132,D,hexagon,1,0,,,2,,,,,,,,,,,,,repeat,letter,lettRpt,j,0.4851,vtsPrac,7,0,7,0,1,,,,,,,,,,,,,,,,,,,,,,,
295618,2022-10-06_13h01.10.181,vts_reward_expectancy,2022.2.4,Win32,123.1982259,Chrome,1600,1067,,,,,0,720,,,,,,,,,,,,,,,,,139,W,hexagon,1,0,,,2,,,,,,,,,,,,,repeat,letter,lettRpt,k,0.6652,vtsPrac,8,0,8,0,1,,,,,,,,,,,,,,,,,,,,,,,
295618,2022-10-06_13h01.10.181,vts_reward_expectancy,2022.2.4,Win32,123.1982259,Chrome,1600,1067,,,,,0,720,,,,,,,,,,,,,,,,,181,Y,triangle,1,0,,,2,,,,,,,,,,,,,repeat,letter,lettRpt,k,0.7412,vtsPrac,9,0,9,0,1,,,,,,,,,,,,,,,,,,,,,,,
295618,2022-10-06_13h01.10.181,vts_reward_expectancy,2022.2.4,Win32,123.1982259,Chrome,1600,1067,,,,,0,720,,,,,,,,,,,,,,,,,160,F,hexagon,1,0,,,2,,,,,,,,,,,,,switch,number,numSwt,f,1.3756,vtsPrac,10,0,10,0,1,,,,,,,,,,,,,,,,,,,,,,,
295618,2022-10-06_13h01.10.181,vts_reward_expectancy,2022.2.4,Win32,123.1982259,Chrome,1600,1067,,,,,0,720,,,,,,,,,,,,,,,,,167,D,circle,1,0,,,2,,,,,,,,,,,,,repeat,number,numRpt,f,0.6324,vtsPrac,11,0,11,0,1,,,,,,,,,,,,,,,,,,,,,,,
295618,2022-10-06_13h01.10.181,vts_reward_expectancy,2022.2.4,Win32,123.1982259,Chrome,1600,1067,,,,,0,720,,,,,,,,,,,,,,,,,160,Y,circle,1,0,,,2,,,,,,,,,,,,,switch,letter,lettSwt,k,0.6978,vtsPrac,12,0,12,0,1,,,,,,,,,,,,,,,,,,,,,,,
295618,2022-10-06_13h01.10.181,vts_reward_expectancy,2022.2.4,Win32,123.1982259,Chrome,1600,1067,,,,,0,720,,,,,,,,,,,,,,,,,167,S,triangle,1,0,,,2,,,,,,,,,,,,,switch,number,numSwt,f,0.8145,vtsPrac,13,0,13,0,1,,,,,,,,,,,,,,,,,,,,,,,
295618,2022-10-06_13h01.10.181,vts_reward_expectancy,2022.2.4,Win32,123.1982259,Chrome,1600,1067,,,,,0,720,,,,,,,,,,,,,,,,,146,W,circle,1,0,,,2,,,,,,,,,,,,,repeat,number,numRpt,d,0.7008,vtsPrac,14,0,14,0,1,,,,,,,,,,,,,,,,,,,,,,,
295618,2022-10-06_13h01.10.181,vts_reward_expectancy,2022.2.4,Win32,123.1982259,Chrome,1600,1067,,,,,0,720,,,,,,,,,,,,,,,,,181,B,star,1,0,,,2,,,,,,,,,,,,,repeat,number,numRpt,f,1.0929,vtsPrac,15,0,15,0,1,,,,,,,,,,,,,,,,,,,,,,,
295618,2022-10-06_13h01.10.181,vts_reward_expectancy,2022.2.4,Win32,123.1982259,Chrome,1600,1067,,,,,,,,,,,,,,,,,,,,,,,,,,,,,,,,,,,,,,,,,,,,,,,,,,,,,,,,,,,,,,,,,,,,,,,,,,,,
295618,2022-10-06_13h01.10.181,vts_reward_expectancy,2022.2.4,Win32,123.1982259,Chrome,1600,1067,,,,,,,,,,,,,,,,,,,,,,,,,,,,,,,,,,,,,,,,,,,,,,,,,,,,,,,,,,,,,,,,,,,,,,,,,,,,
295618,2022-10-06_13h01.10.181,vts_reward_expectancy,2022.2.4,Win32,123.1982259,Chrome,1600,1067,,,,,0,720,,,,,,,,,,,,,,,,,132,F,star,1,0,,,,,,,,,,,,,,,,repeat,number,numRpt,d,1.0724,noRew,,,,,,0,0,0,0,0,1,,,,,,,,,,,,,,,,,
295618,2022-10-06_13h01.10.181,vts_reward_expectancy,2022.2.4,Win32,123.1982259,Chrome,1600,1067,,,,,0,720,,,,,,,,,,,,,,,,,181,Y,circle,1,0,,,,,,,,,,,,,,,,repeat,number,numRpt,f,0.9168,noRew,,,,,,0,1,0,1,0,1,,,,,,,,,,,,,,,,,
295618,2022-10-06_13h01.10.181,vts_reward_expectancy,2022.2.4,Win32,123.1982259,Chrome,1600,1067,,,,,0,720,,,,,,,,,,,,,,,,,160,U,star,1,0,,,,,,,,,,,,,,,,repeat,number,numRpt,f,0.6111,noRew,,,,,,0,2,0,2,0,1,,,,,,,,,,,,,,,,,
295618,2022-10-06_13h01.10.181,vts_reward_expectancy,2022.2.4,Win32,123.1982259,Chrome,1600,1067,,,,,0,720,,,,,,,,,,,,,,,,,174,D,circle,1,0,,,,,,,,,,,,,,,,switch,letter,lettSwt,j,0.6164,noRew,,,,,,0,3,0,3,0,1,,,,,,,,,,,,,,,,,
295618,2022-10-06_13h01.10.181,vts_reward_expectancy,2022.2.4,Win32,123.1982259,Chrome,1600,1067,,,,,0,720,,,,,,,,,,,,,,,,,132,F,hexagon,1,0,,,,,,,,,,,,,,,,repeat,letter,lettRpt,j,0.5582,noRew,,,,,,0,4,0,4,0,1,,,,,,,,,,,,,,,,,
295618,2022-10-06_13h01.10.181,vts_reward_expectancy,2022.2.4,Win32,123.1982259,Chrome,1600,1067,,,,,0,720,,,,,,,,,,,,,,,,,181,Y,circle,1,0,,,,,,,,,,,,,,,,switch,number,numSwt,f,0.9931,noRew,,,,,,0,5,0,5,0,1,,,,,,,,,,,,,,,,,
295618,2022-10-06_13h01.10.181,vts_reward_expectancy,2022.2.4,Win32,123.1982259,Chrome,1600,1067,,,,,0,720,,,,,,,,,,,,,,,,,160,U,hexagon,1,0,,,,,,,,,,,,,,,,switch,letter,lettSwt,k,0.75,noRew,,,,,,0,6,0,6,0,1,,,,,,,,,,,,,,,,,
295618,2022-10-06_13h01.10.181,vts_reward_expectancy,2022.2.4,Win32,123.1982259,Chrome,1600,1067,,,,,0,720,,,,,,,,,,,,,,,,,174,D,triangle,1,0,,,,,,,,,,,,,,,,repeat,letter,lettRpt,j,0.518,noRew,,,,,,0,7,0,7,0,1,,,,,,,,,,,,,,,,,
295618,2022-10-06_13h01.10.181,vts_reward_expectancy,2022.2.4,Win32,123.1982259,Chrome,1600,1067,,,,,0,720,,,,,,,,,,,,,,,,,139,W,triangle,1,0,,,,,,,,,,,,,,,,repeat,letter,lettRpt,k,0.6335,noRew,,,,,,0,8,0,8,0,1,,,,,,,,,,,,,,,,,
295618,2022-10-06_13h01.10.181,vts_reward_expectancy,2022.2.4,Win32,123.1982259,Chrome,1600,1067,,,,,0,720,,,,,,,,,,,,,,,,,174,H,circle,1,0,,,,,,,,,,,,,,,,switch,number,numSwt,f,0.6993,noRew,,,,,,0,9,0,9,0,1,,,,,,,,,,,,,,,,,
295618,2022-10-06_13h01.10.181,vts_reward_expectancy,2022.2.4,Win32,123.1982259,Chrome,1600,1067,,,,,0,720,,,,,,,,,,,,,,,,,181,Y,triangle,1,0,,,,,,,,,,,,,,,,repeat,number,numRpt,f,0.699,noRew,,,,,,0,10,0,10,0,1,,,,,,,,,,,,,,,,,
295618,2022-10-06_13h01.10.181,vts_reward_expectancy,2022.2.4,Win32,123.1982259,Chrome,1600,1067,,,,,0,720,,,,,,,,,,,,,,,,,125,U,star,1,0,,,,,,,,,,,,,,,,switch,letter,lettSwt,k,0.6691,noRew,,,,,,0,11,0,11,0,1,,,,,,,,,,,,,,,,,
295618,2022-10-06_13h01.10.181,vts_reward_expectancy,2022.2.4,Win32,123.1982259,Chrome,1600,1067,,,,,0,720,,,,,,,,,,,,,,,,,132,Y,hexagon,1,0,,,,,,,,,,,,,,,,switch,number,numSwt,d,0.6415,noRew,,,,,,0,12,0,12,0,1,,,,,,,,,,,,,,,,,
295618,2022-10-06_13h01.10.181,vts_reward_expectancy,2022.2.4,Win32,123.1982259,Chrome,1600,1067,,,,,0,720,,,,,,,,,,,,,,,,,146,D,circle,1,0,,,,,,,,,,,,,,,,repeat,number,numRpt,d,0.7168,noRew,,,,,,0,13,0,13,0,1,,,,,,,,,,,,,,,,,
295618,2022-10-06_13h01.10.181,vts_reward_expectancy,2022.2.4,Win32,123.1982259,Chrome,1600,1067,,,,,0,720,,,,,,,,,,,,,,,,,174,B,circle,1,0,,,,,,,,,,,,,,,,repeat,number,numRpt,f,0.5673,noRew,,,,,,0,14,0,14,0,1,,,,,,,,,,,,,,,,,
295618,2022-10-06_13h01.10.181,vts_reward_expectancy,2022.2.4,Win32,123.1982259,Chrome,1600,1067,,,,,0,720,,,,,,,,,,,,,,,,,139,U,hexagon,1,0,,,,,,,,,,,,,,,,switch,letter,lettSwt,k,0.5405,noRew,,,,,,0,15,0,15,0,1,,,,,,,,,,,,,,,,,
295618,2022-10-06_13h01.10.181,vts_reward_expectancy,2022.2.4,Win32,123.1982259,Chrome,1600,1067,,,,,0,720,,,,,,,,,,,,,,,,,160,D,star,1,0,,,,,,,,,,,,,,,,repeat,letter,lettRpt,j,0.6432,noRew,,,,,,0,16,0,16,0,1,,,,,,,,,,,,,,,,,
295618,2022-10-06_13h01.10.181,vts_reward_expectancy,2022.2.4,Win32,123.1982259,Chrome,1600,1067,,,,,0,720,,,,,,,,,,,,,,,,,167,F,circle,1,0,,,,,,,,,,,,,,,,switch,number,numSwt,f,1.1752,noRew,,,,,,0,17,0,17,0,1,,,,,,,,,,,,,,,,,
295618,2022-10-06_13h01.10.181,vts_reward_expectancy,2022.2.4,Win32,123.1982259,Chrome,1600,1067,,,,,0,720,,,,,,,,,,,,,,,,,146,W,circle,1,0,,,,,,,,,,,,,,,,switch,letter,lettSwt,k,0.7492,noRew,,,,,,0,18,0,18,0,1,,,,,,,,,,,,,,,,,
295618,2022-10-06_13h01.10.181,vts_reward_expectancy,2022.2.4,Win32,123.1982259,Chrome,1600,1067,,,,,0,720,,,,,,,,,,,,,,,,,139,B,hexagon,1,0,,,,,,,,,,,,,,,,repeat,letter,lettRpt,j,0.5828,noRew,,,,,,0,19,0,19,0,1,,,,,,,,,,,,,,,,,
295618,2022-10-06_13h01.10.181,vts_reward_expectancy,2022.2.4,Win32,123.1982259,Chrome,1600,1067,,,,,0,720,,,,,,,,,,,,,,,,,181,W,circle,1,0,,,,,,,,,,,,,,,,switch,number,numSwt,f,1.5586,noRew,,,,,,0,20,0,20,0,1,,,,,,,,,,,,,,,,,
295618,2022-10-06_13h01.10.181,vts_reward_expectancy,2022.2.4,Win32,123.1982259,Chrome,1600,1067,,,,,0,720,,,,,,,,,,,,,,,,,167,F,hexagon,1,0,,,,,,,,,,,,,,,,switch,letter,lettSwt,j,0.5724,noRew,,,,,,0,21,0,21,0,1,,,,,,,,,,,,,,,,,
295618,2022-10-06_13h01.10.181,vts_reward_expectancy,2022.2.4,Win32,123.1982259,Chrome,1600,1067,,,,,0,720,,,,,,,,,,,,,,,,,132,U,circle,1,0,,,,,,,,,,,,,,,,repeat,letter,lettRpt,k,0.5244,noRew,,,,,,0,22,0,22,0,1,,,,,,,,,,,,,,,,,
295618,2022-10-06_13h01.10.181,vts_reward_expectancy,2022.2.4,Win32,123.1982259,Chrome,1600,1067,,,,,0,720,,,,,,,,,,,,,,,,,139,S,hexagon,1,0,,,,,,,,,,,,,,,,repeat,letter,lettRpt,k,0.8419,noRew,,,,,,0,23,0,23,0,1,,,,,,,,,,,,,,,,,
295618,2022-10-06_13h01.10.181,vts_reward_expectancy,2022.2.4,Win32,123.1982259,Chrome,1600,1067,,,,,0,720,,,,,,,,,,,,,,,,,167,H,star,1,0,,,,,,,,,,,,,,,,switch,number,numSwt,f,0.6664,noRew,,,,,,0,24,0,24,0,1,,,,,,,,,,,,,,,,,
295618,2022-10-06_13h01.10.181,vts_reward_expectancy,2022.2.4,Win32,123.1982259,Chrome,1600,1067,,,,,0,720,,,,,,,,,,,,,,,,,132,B,triangle,1,0,,,,,,,,,,,,,,,,repeat,number,numRpt,d,0.6178,noRew,,,,,,0,25,0,25,0,1,,,,,,,,,,,,,,,,,
295618,2022-10-06_13h01.10.181,vts_reward_expectancy,2022.2.4,Win32,123.1982259,Chrome,1600,1067,,,,,0,720,,,,,,,,,,,,,,,,,146,W,circle,1,0,,,,,,,,,,,,,,,,switch,letter,lettSwt,k,0.6585,noRew,,,,,,0,26,0,26,0,1,,,,,,,,,,,,,,,,,
295618,2022-10-06_13h01.10.181,vts_reward_expectancy,2022.2.4,Win32,123.1982259,Chrome,1600,1067,,,,,0,720,,,,,,,,,,,,,,,,,125,S,triangle,1,0,,,,,,,,,,,,,,,,switch,number,numSwt,d,0.6416,noRew,,,,,,0,27,0,27,0,1,,,,,,,,,,,,,,,,,
295618,2022-10-06_13h01.10.181,vts_reward_expectancy,2022.2.4,Win32,123.1982259,Chrome,1600,1067,,,,,0,720,,,,,,,,,,,,,,,,,125,U,triangle,1,0,,,,,,,,,,,,,,,,repeat,number,numRpt,d,0.7591,noRew,,,,,,0,28,0,28,0,1,,,,,,,,,,,,,,,,,
295618,2022-10-06_13h01.10.181,vts_reward_expectancy,2022.2.4,Win32,123.1982259,Chrome,1600,1067,,,,,0,720,,,,,,,,,,,,,,,,,139,D,hexagon,1,0,,,,,,,,,,,,,,,,repeat,number,numRpt,d,0.5795,noRew,,,,,,0,29,0,29,0,1,,,,,,,,,,,,,,,,,
295618,2022-10-06_13h01.10.181,vts_reward_expectancy,2022.2.4,Win32,123.1982259,Chrome,1600,1067,,,,,0,720,,,,,,,,,,,,,,,,,174,F,star,1,0,,,,,,,,,,,,,,,,switch,letter,lettSwt,j,0.6908,noRew,,,,,,0,30,0,30,0,1,,,,,,,,,,,,,,,,,
295618,2022-10-06_13h01.10.181,vts_reward_expectancy,2022.2.4,Win32,123.1982259,Chrome,1600,1067,,,,,0,720,,,,,,,,,,,,,,,,,167,H,circle,1,0,,,,,,,,,,,,,,,,repeat,letter,lettRpt,j,0.609,noRew,,,,,,0,31,0,31,0,1,,,,,,,,,,,,,,,,,
295618,2022-10-06_13h01.10.181,vts_reward_expectancy,2022.2.4,Win32,123.1982259,Chrome,1600,1067,,,,,0,720,,,,,,,,,,,,,,,,,174,S,star,1,0,,,,,,,,,,,,,,,,switch,number,numSwt,f,0.4001,noRew,,,,,,0,32,0,32,0,1,,,,,,,,,,,,,,,,,
295618,2022-10-06_13h01.10.181,vts_reward_expectancy,2022.2.4,Win32,123.1982259,Chrome,1600,1067,,,,,0,720,,,,,,,,,,,,,,,,,160,F,hexagon,1,0,,,,,,,,,,,,,,,,switch,letter,lettSwt,j,0.4626,noRew,,,,,,0,33,0,33,0,1,,,,,,,,,,,,,,,,,
295618,2022-10-06_13h01.10.181,vts_reward_expectancy,2022.2.4,Win32,123.1982259,Chrome,1600,1067,,,,,0,720,,,,,,,,,,,,,,,,,181,Y,star,1,0,,,,,,,,,,,,,,,,repeat,letter,lettRpt,k,0.6251,noRew,,,,,,0,34,0,34,0,1,,,,,,,,,,,,,,,,,
295618,2022-10-06_13h01.10.181,vts_reward_expectancy,2022.2.4,Win32,123.1982259,Chrome,1600,1067,,,,,0,720,,,,,,,,,,,,,,,,,132,U,hexagon,1,0,,,,,,,,,,,,,,,,repeat,letter,lettRpt,k,0.6588,noRew,,,,,,0,35,0,35,0,1,,,,,,,,,,,,,,,,,
295618,2022-10-06_13h01.10.181,vts_reward_expectancy,2022.2.4,Win32,123.1982259,Chrome,1600,1067,,,,,0,720,,,,,,,,,,,,,,,,,146,U,circle,1,0,,,,,,,,,,,,,,,,repeat,letter,lettRpt,k,0.7167,noRew,,,,,,0,36,0,36,0,1,,,,,,,,,,,,,,,,,
295618,2022-10-06_13h01.10.181,vts_reward_expectancy,2022.2.4,Win32,123.1982259,Chrome,1600,1067,,,,,0,720,,,,,,,,,,,,,,,,,139,F,hexagon,1,0,,,,,,,,,,,,,,,,switch,number,numSwt,d,0.5418,noRew,,,,,,0,37,0,37,0,1,,,,,,,,,,,,,,,,,
295618,2022-10-06_13h01.10.181,vts_reward_expectancy,2022.2.4,Win32,123.1982259,Chrome,1600,1067,,,,,0,720,,,,,,,,,,,,,,,,,167,Y,triangle,1,0,,,,,,,,,,,,,,,,repeat,number,numRpt,f,0.8357,noRew,,,,,,0,38,0,38,0,1,,,,,,,,,,,,,,,,,
295618,2022-10-06_13h01.10.181,vts_reward_expectancy,2022.2.4,Win32,123.1982259,Chrome,1600,1067,,,,,0,720,,,,,,,,,,,,,,,,,132,S,hexagon,1,0,,,,,,,,,,,,,,,,switch,letter,lettSwt,k,0.5748,noRew,,,,,,0,39,0,39,0,1,,,,,,,,,,,,,,,,,
295618,2022-10-06_13h01.10.181,vts_reward_expectancy,2022.2.4,Win32,123.1982259,Chrome,1600,1067,,,,,0,720,,,,,,,,,,,,,,,,,125,H,circle,1,0,,,,,,,,,,,,,,,,switch,number,numSwt,d,0.8936,noRew,,,,,,0,40,0,40,0,1,,,,,,,,,,,,,,,,,
295618,2022-10-06_13h01.10.181,vts_reward_expectancy,2022.2.4,Win32,123.1982259,Chrome,1600,1067,,,,,0,720,,,,,,,,,,,,,,,,,139,Y,hexagon,1,0,,,,,,,,,,,,,,,,repeat,number,numRpt,d,0.7685,noRew,,,,,,0,41,0,41,0,1,,,,,,,,,,,,,,,,,
295618,2022-10-06_13h01.10.181,vts_reward_expectancy,2022.2.4,Win32,123.1982259,Chrome,1600,1067,,,,,0,720,,,,,,,,,,,,,,,,,181,F,circle,1,0,,,,,,,,,,,,,,,,repeat,number,numRpt,f,0.7416,noRew,,,,,,0,42,0,42,0,1,,,,,,,,,,,,,,,,,
295618,2022-10-06_13h01.10.181,vts_reward_expectancy,2022.2.4,Win32,123.1982259,Chrome,1600,1067,,,,,0,720,,,,,,,,,,,,,,,,,160,D,triangle,1,0,,,,,,,,,,,,,,,,repeat,number,numRpt,f,0.5096,noRew,,,,,,0,43,0,43,0,1,,,,,,,,,,,,,,,,,
295618,2022-10-06_13h01.10.181,vts_reward_expectancy,2022.2.4,Win32,123.1982259,Chrome,1600,1067,,,,,0,720,,,,,,,,,,,,,,,,,139,U,hexagon,1,0,,,,,,,,,,,,,,,,repeat,number,numRpt,d,0.6421,noRew,,,,,,0,44,0,44,0,1,,,,,,,,,,,,,,,,,
295618,2022-10-06_13h01.10.181,vts_reward_expectancy,2022.2.4,Win32,123.1982259,Chrome,1600,1067,,,,,0,720,,,,,,,,,,,,,,,,,132,W,triangle,1,0,,,,,,,,,,,,,,,,repeat,number,numRpt,d,1.1083,noRew,,,,,,0,45,0,45,0,1,,,,,,,,,,,,,,,,,
295618,2022-10-06_13h01.10.181,vts_reward_expectancy,2022.2.4,Win32,123.1982259,Chrome,1600,1067,,,,,0,720,,,,,,,,,,,,,,,,,146,B,star,1,0,,,,,,,,,,,,,,,,repeat,number,numRpt,d,0.7845,noRew,,,,,,0,46,0,46,0,1,,,,,,,,,,,,,,,,,
295618,2022-10-06_13h01.10.181,vts_reward_expectancy,2022.2.4,Win32,123.1982259,Chrome,1600,1067,,,,,0,720,,,,,,,,,,,,,,,,,174,H,circle,1,0,,,,,,,,,,,,,,,,switch,letter,lettSwt,j,0.4338,noRew,,,,,,0,47,0,47,0,1,,,,,,,,,,,,,,,,,
295618,2022-10-06_13h01.10.181,vts_reward_expectancy,2022.2.4,Win32,123.1982259,Chrome,1600,1067,,,,,0,720,,,,,,,,,,,,,,,,,139,W,star,1,0,,,,,,,,,,,,,,,,repeat,letter,lettRpt,k,0.5819,noRew,,,,,,0,48,0,48,0,1,,,,,,,,,,,,,,,,,
295618,2022-10-06_13h01.10.181,vts_reward_expectancy,2022.2.4,Win32,123.1982259,Chrome,1600,1067,,,,,0,720,,,,,,,,,,,,,,,,,146,B,hexagon,1,0,,,,,,,,,,,,,,,,repeat,letter,lettRpt,j,0.7027,noRew,,,,,,0,49,0,49,0,1,,,,,,,,,,,,,,,,,
295618,2022-10-06_13h01.10.181,vts_reward_expectancy,2022.2.4,Win32,123.1982259,Chrome,1600,1067,,,,,0,720,,,,,,,,,,,,,,,,,160,D,hexagon,1,0,,,,,,,,,,,,,,,,repeat,letter,lettRpt,j,0.5744,noRew,,,,,,0,50,0,50,0,1,,,,,,,,,,,,,,,,,
295618,2022-10-06_13h01.10.181,vts_reward_expectancy,2022.2.4,Win32,123.1982259,Chrome,1600,1067,,,,,0,720,,,,,,,,,,,,,,,,,167,S,star,1,0,,,,,,,,,,,,,,,,repeat,letter,lettRpt,k,0.6095,noRew,,,,,,0,51,0,51,0,1,,,,,,,,,,,,,,,,,
295618,2022-10-06_13h01.10.181,vts_reward_expectancy,2022.2.4,Win32,123.1982259,Chrome,1600,1067,,,,,0,720,,,,,,,,,,,,,,,,,125,H,star,1,0,,,,,,,,,,,,,,,,repeat,letter,lettRpt,j,0.6593,noRew,,,,,,0,52,0,52,0,1,,,,,,,,,,,,,,,,,
295618,2022-10-06_13h01.10.181,vts_reward_expectancy,2022.2.4,Win32,123.1982259,Chrome,1600,1067,,,,,0,720,,,,,,,,,,,,,,,,,139,U,hexagon,1,0,,,,,,,,,,,,,,,,repeat,letter,lettRpt,k,0.617,noRew,,,,,,0,53,0,53,0,1,,,,,,,,,,,,,,,,,
295618,2022-10-06_13h01.10.181,vts_reward_expectancy,2022.2.4,Win32,123.1982259,Chrome,1600,1067,,,,,0,720,,,,,,,,,,,,,,,,,167,S,star,1,0,,,,,,,,,,,,,,,,switch,number,numSwt,f,0.535,noRew,,,,,,0,54,0,54,0,1,,,,,,,,,,,,,,,,,
295618,2022-10-06_13h01.10.181,vts_reward_expectancy,2022.2.4,Win32,123.1982259,Chrome,1600,1067,,,,,0,720,,,,,,,,,,,,,,,,,181,D,triangle,1,0,,,,,,,,,,,,,,,,repeat,number,numRpt,f,0.5754,noRew,,,,,,0,55,0,55,0,1,,,,,,,,,,,,,,,,,
295618,2022-10-06_13h01.10.181,vts_reward_expectancy,2022.2.4,Win32,123.1982259,Chrome,1600,1067,,,,,0,720,,,,,,,,,,,,,,,,,181,U,circle,1,0,,,,,,,,,,,,,,,,repeat,number,numRpt,f,0.5667,noRew,,,,,,0,56,0,56,0,1,,,,,,,,,,,,,,,,,
295618,2022-10-06_13h01.10.181,vts_reward_expectancy,2022.2.4,Win32,123.1982259,Chrome,1600,1067,,,,,0,720,,,,,,,,,,,,,,,,,139,S,hexagon,1,0,,,,,,,,,,,,,,,,switch,letter,lettSwt,k,0.6165,noRew,,,,,,0,57,0,57,0,1,,,,,,,,,,,,,,,,,
295618,2022-10-06_13h01.10.181,vts_reward_expectancy,2022.2.4,Win32,123.1982259,Chrome,1600,1067,,,,,0,720,,,,,,,,,,,,,,,,,160,F,triangle,1,0,,,,,,,,,,,,,,,,repeat,letter,lettRpt,j,0.7313,noRew,,,,,,0,58,0,58,0,1,,,,,,,,,,,,,,,,,
295618,2022-10-06_13h01.10.181,vts_reward_expectancy,2022.2.4,Win32,123.1982259,Chrome,1600,1067,,,,,0,720,,,,,,,,,,,,,,,,,174,Y,star,1,0,,,,,,,,,,,,,,,,repeat,letter,lettRpt,k,0.7924,noRew,,,,,,0,59,0,59,0,1,,,,,,,,,,,,,,,,,
295618,2022-10-06_13h01.10.181,vts_reward_expectancy,2022.2.4,Win32,123.1982259,Chrome,1600,1067,,,,,0,720,,,,,,,,,,,,,,,,,167,H,hexagon,1,0,,,,,,,,,,,,,,,,switch,number,numSwt,f,1.7924,noRew,,,,,,0,60,0,60,0,1,,,,,,,,,,,,,,,,,
295618,2022-10-06_13h01.10.181,vts_reward_expectancy,2022.2.4,Win32,123.1982259,Chrome,1600,1067,,,,,0,720,,,,,,,,,,,,,,,,,181,F,star,1,0,,,,,,,,,,,,,,,,repeat,number,numRpt,f,0.8936,noRew,,,,,,0,61,0,61,0,1,,,,,,,,,,,,,,,,,
295618,2022-10-06_13h01.10.181,vts_reward_expectancy,2022.2.4,Win32,123.1982259,Chrome,1600,1067,,,,,0,720,,,,,,,,,,,,,,,,,132,Y,star,1,0,,,,,,,,,,,,,,,,repeat,number,numRpt,d,0.8259,noRew,,,,,,0,62,0,62,0,1,,,,,,,,,,,,,,,,,
295618,2022-10-06_13h01.10.181,vts_reward_expectancy,2022.2.4,Win32,123.1982259,Chrome,1600,1067,,,,,0,720,,,,,,,,,,,,,,,,,139,S,triangle,1,0,,,,,,,,,,,,,,,,repeat,number,numRpt,d,0.6671,noRew,,,,,,0,63,0,63,0,1,,,,,,,,,,,,,,,,,
295618,2022-10-06_13h01.10.181,vts_reward_expectancy,2022.2.4,Win32,123.1982259,Chrome,1600,1067,,,,,,,,,,,,,,,,,,,,,,,,,,,,,,,,,,,,,,,,,,,,,,,,,,,,,,,,,,,,,,,,,,,,,,,,,,,,
295618,2022-10-06_13h01.10.181,vts_reward_expectancy,2022.2.4,Win32,123.1982259,Chrome,1600,1067,,,,,0,720,,,,,,,,,,,,,,,,,181,U,circle,1,0,,,,,,,,,,,,,,,,repeat,number,numRpt,f,1.3924,Hi,,,,,,0,,,,,,space,4.8016,high,0,0,0,0,1,,,,,,,,,
295618,2022-10-06_13h01.10.181,vts_reward_expectancy,2022.2.4,Win32,123.1982259,Chrome,1600,1067,,,,,1,721,,,,,,,,,,,,,,,,,125,Y,triangle,1,0,,,,,,,,,,,,,,,,repeat,number,numRpt,d,0.5154,Lo,,,,,,0,,,,,,,,high,1,0,1,0,1,,,,,,,,,
295618,2022-10-06_13h01.10.181,vts_reward_expectancy,2022.2.4,Win32,123.1982259,Chrome,1600,1067,,,,,10,731,,,,,,,,,,,,,,,,,174,D,circle,1,0,,,,,,,,,,,,,,,,repeat,number,numRpt,f,0.4747,Hi,,,,,,0,,,,,,,,high,2,0,2,0,1,,,,,,,,,
295618,2022-10-06_13h01.10.181,vts_reward_expectancy,2022.2.4,Win32,123.1982259,Chrome,1600,1067,,,,,1,732,,,,,,,,,,,,,,,,,167,F,triangle,1,0,,,,,,,,,,,,,,,,switch,letter,lettSwt,j,0.3763,Lo,,,,,,0,,,,,,,,high,3,0,3,0,1,,,,,,,,,
295618,2022-10-06_13h01.10.181,vts_reward_expectancy,2022.2.4,Win32,123.1982259,Chrome,1600,1067,,,,,1,733,,,,,,,,,,,,,,,,,139,W,triangle,1,0,,,,,,,,,,,,,,,,repeat,letter,lettRpt,k,0.4248,Lo,,,,,,0,,,,,,,,high,4,0,4,0,1,,,,,,,,,
295618,2022-10-06_13h01.10.181,vts_reward_expectancy,2022.2.4,Win32,123.1982259,Chrome,1600,1067,,,,,0,733,,,,,,,,,,,,,,,,,160,S,circle,0,0,,,,,,,,,,,,,,,,repeat,letter,NA,j,0.4415,Lo,,,,,,0,,,,,,,,high,5,0,5,0,1,,,,,,,,,
295618,2022-10-06_13h01.10.181,vts_reward_expectancy,2022.2.4,Win32,123.1982259,Chrome,1600,1067,,,,,10,743,,,,,,,,,,,,,,,,,132,B,circle,1,1,,,,,,,,,,,,,,,,repeat,letter,lettRpt,j,0.5472,Hi,,,,,,0,,,,,,,,high,6,0,6,0,1,,,,,,,,,
295618,2022-10-06_13h01.10.181,vts_reward_expectancy,2022.2.4,Win32,123.1982259,Chrome,1600,1067,,,,,0,743,,,,,,,,,,,,,,,,,146,H,triangle,0,0,,,,,,,,,,,,,,,,repeat,letter,NA,k,0.4226,Hi,,,,,,0,,,,,,,,high,7,0,7,0,1,,,,,,,,,
295618,2022-10-06_13h01.10.181,vts_reward_expectancy,2022.2.4,Win32,123.1982259,Chrome,1600,1067,,,,,10,753,,,,,,,,,,,,,,,,,181,U,circle,1,1,,,,,,,,,,,,,,,,repeat,letter,lettRpt,k,0.4687,Hi,,,,,,0,,,,,,,,high,8,0,8,0,1,,,,,,,,,
295618,2022-10-06_13h01.10.181,vts_reward_expectancy,2022.2.4,Win32,123.1982259,Chrome,1600,1067,,,,,1,754,,,,,,,,,,,,,,,,,125,Y,triangle,1,0,,,,,,,,,,,,,,,,switch,number,numSwt,d,0.3504,Lo,,,,,,0,,,,,,,,high,9,0,9,0,1,,,,,,,,,
295618,2022-10-06_13h01.10.181,vts_reward_expectancy,2022.2.4,Win32,123.1982259,Chrome,1600,1067,,,,,10,764,,,,,,,,,,,,,,,,,174,D,circle,1,0,,,,,,,,,,,,,,,,repeat,number,numRpt,f,0.327,Hi,,,,,,0,,,,,,,,high,10,0,10,0,1,,,,,,,,,
295618,2022-10-06_13h01.10.181,vts_reward_expectancy,2022.2.4,Win32,123.1982259,Chrome,1600,1067,,,,,1,765,,,,,,,,,,,,,,,,,167,F,triangle,1,0,,,,,,,,,,,,,,,,switch,letter,lettSwt,j,0.359,Lo,,,,,,0,,,,,,,,high,11,0,11,0,1,,,,,,,,,
295618,2022-10-06_13h01.10.181,vts_reward_expectancy,2022.2.4,Win32,123.1982259,Chrome,1600,1067,,,,,10,775,,,,,,,,,,,,,,,,,139,W,circle,1,0,,,,,,,,,,,,,,,,switch,number,numSwt,d,0.4516,Hi,,,,,,0,,,,,,,,high,12,0,12,0,1,,,,,,,,,
295618,2022-10-06_13h01.10.181,vts_reward_expectancy,2022.2.4,Win32,123.1982259,Chrome,1600,1067,,,,,1,776,,,,,,,,,,,,,,,,,160,S,triangle,1,0,,,,,,,,,,,,,,,,repeat,number,numRpt,f,0.4061,Lo,,,,,,0,,,,,,,,high,13,0,13,0,1,,,,,,,,,
295618,2022-10-06_13h01.10.181,vts_reward_expectancy,2022.2.4,Win32,123.1982259,Chrome,1600,1067,,,,,0,776,,,,,,,,,,,,,,,,,132,B,circle,1,0,,,,,,,,,,,,,,,,repeat,number,numRpt,d,0.6771,Hi,,,,,,0,,,,,,,,high,14,0,14,0,1,,,,,,,,,
295618,2022-10-06_13h01.10.181,vts_reward_expectancy,2022.2.4,Win32,123.1982259,Chrome,1600,1067,,,,,1,777,,,,,,,,,,,,,,,,,146,H,triangle,1,0,,,,,,,,,,,,,,,,switch,letter,lettSwt,j,0.4411,Lo,,,,,,0,,,,,,,,high,15,0,15,0,1,,,,,,,,,
295618,2022-10-06_13h01.10.181,vts_reward_expectancy,2022.2.4,Win32,123.1982259,Chrome,1600,1067,,,,,10,787,,,,,,,,,,,,,,,,,160,W,circle,1,0,,,,,,,,,,,,,,,,repeat,letter,lettRpt,k,0.3508,Hi,,,,,,0,,,,,,,,high,16,0,16,0,1,,,,,,,,,
295618,2022-10-06_13h01.10.181,vts_reward_expectancy,2022.2.4,Win32,123.1982259,Chrome,1600,1067,,,,,10,797,,,,,,,,,,,,,,,,,125,H,triangle,1,0,,,,,,,,,,,,,,,,repeat,letter,lettRpt,j,0.2805,Lo,,,,,,0,,,,,,,,high,17,0,17,0,1,,,,,,,,,
295618,2022-10-06_13h01.10.181,vts_reward_expectancy,2022.2.4,Win32,123.1982259,Chrome,1600,1067,,,,,0,797,,,,,,,,,,,,,,,,,167,D,triangle,0,0,,,,,,,,,,,,,,,,repeat,letter,NA,k,0.4089,Lo,,,,,,0,,,,,,,,high,18,0,18,0,1,,,,,,,,,
295618,2022-10-06_13h01.10.181,vts_reward_expectancy,2022.2.4,Win32,123.1982259,Chrome,1600,1067,,,,,10,807,,,,,,,,,,,,,,,,,146,S,circle,1,1,,,,,,,,,,,,,,,,repeat,letter,lettRpt,k,0.4991,Hi,,,,,,0,,,,,,,,high,19,0,19,0,1,,,,,,,,,
295618,2022-10-06_13h01.10.181,vts_reward_expectancy,2022.2.4,Win32,123.1982259,Chrome,1600,1067,,,,,1,808,,,,,,,,,,,,,,,,,181,F,triangle,1,0,,,,,,,,,,,,,,,,switch,number,numSwt,f,0.4173,Lo,,,,,,0,,,,,,,,high,20,0,20,0,1,,,,,,,,,
295618,2022-10-06_13h01.10.181,vts_reward_expectancy,2022.2.4,Win32,123.1982259,Chrome,1600,1067,,,,,10,818,,,,,,,,,,,,,,,,,132,Y,circle,1,0,,,,,,,,,,,,,,,,repeat,number,numRpt,d,0.4003,Hi,,,,,,0,,,,,,,,high,21,0,21,0,1,,,,,,,,,
295618,2022-10-06_13h01.10.181,vts_reward_expectancy,2022.2.4,Win32,123.1982259,Chrome,1600,1067,,,,,10,828,,,,,,,,,,,,,,,,,174,U,triangle,1,0,,,,,,,,,,,,,,,,repeat,number,numRpt,f,0.3091,Lo,,,,,,0,,,,,,,,high,22,0,22,0,1,,,,,,,,,
295618,2022-10-06_13h01.10.181,vts_reward_expectancy,2022.2.4,Win32,123.1982259,Chrome,1600,1067,,,,,1,829,,,,,,,,,,,,,,,,,139,B,circle,1,0,,,,,,,,,,,,,,,,repeat,number,numRpt,d,0.3329,Hi,,,,,,0,,,,,,,,high,23,0,23,0,1,,,,,,,,,
295618,2022-10-06_13h01.10.181,vts_reward_expectancy,2022.2.4,Win32,123.1982259,Chrome,1600,1067,,,,,10,839,,,,,,,,,,,,,,,,,167,W,triangle,1,0,,,,,,,,,,,,,,,,switch,letter,lettSwt,k,0.4244,Lo,,,,,,0,,,,,,,,high,24,0,24,0,1,,,,,,,,,
295618,2022-10-06_13h01.10.181,vts_reward_expectancy,2022.2.4,Win32,123.1982259,Chrome,1600,1067,,,,,10,849,,,,,,,,,,,,,,,,,160,S,circle,1,0,,,,,,,,,,,,,,,,repeat,letter,lettRpt,k,0.4829,Hi,,,,,,0,,,,,,,,high,25,0,25,0,1,,,,,,,,,
295618,2022-10-06_13h01.10.181,vts_reward_expectancy,2022.2.4,Win32,123.1982259,Chrome,1600,1067,,,,,1,850,,,,,,,,,,,,,,,,,125,B,triangle,1,0,,,,,,,,,,,,,,,,repeat,letter,lettRpt,j,0.3281,Lo,,,,,,0,,,,,,,,high,26,0,26,0,1,,,,,,,,,
295618,2022-10-06_13h01.10.181,vts_reward_expectancy,2022.2.4,Win32,123.1982259,Chrome,1600,1067,,,,,10,860,,,,,,,,,,,,,,,,,139,H,circle,1,0,,,,,,,,,,,,,,,,switch,number,numSwt,d,0.4266,Hi,,,,,,0,,,,,,,,high,27,0,27,0,1,,,,,,,,,
295618,2022-10-06_13h01.10.181,vts_reward_expectancy,2022.2.4,Win32,123.1982259,Chrome,1600,1067,,,,,0,860,,,,,,,,,,,,,,,,,146,F,triangle,0,0,,,,,,,,,,,,,,,,repeat,number,NA,f,0.3673,Hi,,,,,,0,,,,,,,,high,28,0,28,0,1,,,,,,,,,
295618,2022-10-06_13h01.10.181,vts_reward_expectancy,2022.2.4,Win32,123.1982259,Chrome,1600,1067,,,,,0,860,,,,,,,,,,,,,,,,,181,D,circle,0,1,,,,,,,,,,,,,,,,repeat,number,NA,d,0.4257,Hi,,,,,,0,,,,,,,,high,29,0,29,0,1,,,,,,,,,
295618,2022-10-06_13h01.10.181,vts_reward_expectancy,2022.2.4,Win32,123.1982259,Chrome,1600,1067,,,,,10,870,,,,,,,,,,,,,,,,,132,U,circle,1,1,,,,,,,,,,,,,,,,repeat,number,numRpt,d,0.3823,Hi,,,,,,0,,,,,,,,high,30,0,30,0,1,,,,,,,,,
295618,2022-10-06_13h01.10.181,vts_reward_expectancy,2022.2.4,Win32,123.1982259,Chrome,1600,1067,,,,,1,871,,,,,,,,,,,,,,,,,174,Y,triangle,1,0,,,,,,,,,,,,,,,,repeat,number,numRpt,f,0.4094,Lo,,,,,,0,,,,,,,,high,31,0,31,0,1,,,,,,,,,
295618,2022-10-06_13h01.10.181,vts_reward_expectancy,2022.2.4,Win32,123.1982259,Chrome,1600,1067,,,,,0,871,,,,,,,,,,,,,,,,,181,Y,circle,1,0,,,,,,,,,,,,,,,,repeat,number,numRpt,f,0.542,Hi,,,,,,1,,,,,,space,5.0102,high,0,0,0,0,1,,,,,,,,,
295618,2022-10-06_13h01.10.181,vts_reward_expectancy,2022.2.4,Win32,123.1982259,Chrome,1600,1067,,,,,1,872,,,,,,,,,,,,,,,,,146,H,triangle,1,0,,,,,,,,,,,,,,,,repeat,number,numRpt,d,0.593,Lo,,,,,,1,,,,,,,,high,1,0,1,0,1,,,,,,,,,
295618,2022-10-06_13h01.10.181,vts_reward_expectancy,2022.2.4,Win32,123.1982259,Chrome,1600,1067,,,,,0,872,,,,,,,,,,,,,,,,,139,B,circle,0,0,,,,,,,,,,,,,,,,repeat,number,NA,f,0.3499,Lo,,,,,,1,,,,,,,,high,2,0,2,0,1,,,,,,,,,
295618,2022-10-06_13h01.10.181,vts_reward_expectancy,2022.2.4,Win32,123.1982259,Chrome,1600,1067,,,,,1,873,,,,,,,,,,,,,,,,,160,W,triangle,1,1,,,,,,,,,,,,,,,,repeat,number,numRpt,f,0.5166,Lo,,,,,,1,,,,,,,,high,3,0,3,0,1,,,,,,,,,
295618,2022-10-06_13h01.10.181,vts_reward_expectancy,2022.2.4,Win32,123.1982259,Chrome,1600,1067,,,,,0,873,,,,,,,,,,,,,,,,,125,S,circle,1,0,,,,,,,,,,,,,,,,repeat,number,numRpt,d,0.3993,Hi,,,,,,1,,,,,,,,high,4,0,4,0,1,,,,,,,,,
295618,2022-10-06_13h01.10.181,vts_reward_expectancy,2022.2.4,Win32,123.1982259,Chrome,1600,1067,,,,,1,874,,,,,,,,,,,,,,,,,174,F,triangle,1,0,,,,,,,,,,,,,,,,repeat,number,numRpt,f,0.425,Lo,,,,,,1,,,,,,,,high,5,0,5,0,1,,,,,,,,,
295618,2022-10-06_13h01.10.181,vts_reward_expectancy,2022.2.4,Win32,123.1982259,Chrome,1600,1067,,,,,0,874,,,,,,,,,,,,,,,,,167,U,circle,0,0,,,,,,,,,,,,,,,,repeat,number,NA,d,0.2861,Lo,,,,,,1,,,,,,,,high,6,0,6,0,1,,,,,,,,,
295618,2022-10-06_13h01.10.181,vts_reward_expectancy,2022.2.4,Win32,123.1982259,Chrome,1600,1067,,,,,10,884,,,,,,,,,,,,,,,,,132,D,triangle,1,1,,,,,,,,,,,,,,,,repeat,number,numRpt,d,0.6083,Lo,,,,,,1,,,,,,,,high,7,0,7,0,1,,,,,,,,,
295618,2022-10-06_13h01.10.181,vts_reward_expectancy,2022.2.4,Win32,123.1982259,Chrome,1600,1067,,,,,0,884,,,,,,,,,,,,,,,,,181,Y,circle,0,0,,,,,,,,,,,,,,,,repeat,number,NA,d,0.3848,Lo,,,,,,1,,,,,,,,high,8,0,8,0,1,,,,,,,,,
295618,2022-10-06_13h01.10.181,vts_reward_expectancy,2022.2.4,Win32,123.1982259,Chrome,1600,1067,,,,,1,885,,,,,,,,,,,,,,,,,146,H,triangle,1,1,,,,,,,,,,,,,,,,repeat,number,numRpt,d,0.675,Lo,,,,,,1,,,,,,,,high,9,0,9,0,1,,,,,,,,,
295618,2022-10-06_13h01.10.181,vts_reward_expectancy,2022.2.4,Win32,123.1982259,Chrome,1600,1067,,,,,1,886,,,,,,,,,,,,,,,,,139,B,triangle,1,0,,,,,,,,,,,,,,,,switch,letter,lettSwt,j,0.4,Lo,,,,,,1,,,,,,,,high,10,0,10,0,1,,,,,,,,,
295618,2022-10-06_13h01.10.181,vts_reward_expectancy,2022.2.4,Win32,123.1982259,Chrome,1600,1067,,,,,0,886,,,,,,,,,,,,,,,,,160,W,circle,1,0,,,,,,,,,,,,,,,,repeat,letter,lettRpt,k,0.4308,Hi,,,,,,1,,,,,,,,high,11,0,11,0,1,,,,,,,,,
295618,2022-10-06_13h01.10.181,vts_reward_expectancy,2022.2.4,Win32,123.1982259,Chrome,1600,1067,,,,,1,887,,,,,,,,,,,,,,,,,125,S,triangle,1,0,,,,,,,,,,,,,,,,repeat,letter,lettRpt,k,0.5268,Lo,,,,,,1,,,,,,,,high,12,0,12,0,1,,,,,,,,,
295618,2022-10-06_13h01.10.181,vts_reward_expectancy,2022.2.4,Win32,123.1982259,Chrome,1600,1067,,,,,10,897,,,,,,,,,,,,,,,,,174,F,circle,1,0,,,,,,,,,,,,,,,,repeat,letter,lettRpt,j,0.2332,Hi,,,,,,1,,,,,,,,high,13,0,13,0,1,,,,,,,,,
295618,2022-10-06_13h01.10.181,vts_reward_expectancy,2022.2.4,Win32,123.1982259,Chrome,1600,1067,,,,,0,897,,,,,,,,,,,,,,,,,167,U,circle,1,0,,,,,,,,,,,,,,,,repeat,letter,lettRpt,k,0.3751,Hi,,,,,,1,,,,,,,,high,14,0,14,0,1,,,,,,,,,
295618,2022-10-06_13h01.10.181,vts_reward_expectancy,2022.2.4,Win32,123.1982259,Chrome,1600,1067,,,,,1,898,,,,,,,,,,,,,,,,,132,D,triangle,1,0,,,,,,,,,,,,,,,,repeat,letter,lettRpt,j,0.4581,Lo,,,,,,1,,,,,,,,high,15,0,15,0,1,,,,,,,,,
295618,2022-10-06_13h01.10.181,vts_reward_expectancy,2022.2.4,Win32,123.1982259,Chrome,1600,1067,,,,,0,898,,,,,,,,,,,,,,,,,174,S,circle,0,0,,,,,,,,,,,,,,,,repeat,letter,NA,j,0.2331,Lo,,,,,,1,,,,,,,,high,16,0,16,0,1,,,,,,,,,
295618,2022-10-06_13h01.10.181,vts_reward_expectancy,2022.2.4,Win32,123.1982259,Chrome,1600,1067,,,,,1,899,,,,,,,,,,,,,,,,,132,F,triangle,1,1,,,,,,,,,,,,,,,,repeat,letter,lettRpt,j,0.3653,Lo,,,,,,1,,,,,,,,high,17,0,17,0,1,,,,,,,,,
295618,2022-10-06_13h01.10.181,vts_reward_expectancy,2022.2.4,Win32,123.1982259,Chrome,1600,1067,,,,,0,899,,,,,,,,,,,,,,,,,146,U,circle,0,0,,,,,,,,,,,,,,,,switch,number,NA,f,0.3487,Lo,,,,,,1,,,,,,,,high,18,0,18,0,1,,,,,,,,,
295618,2022-10-06_13h01.10.181,vts_reward_expectancy,2022.2.4,Win32,123.1982259,Chrome,1600,1067,,,,,10,909,,,,,,,,,,,,,,,,,139,W,triangle,1,1,,,,,,,,,,,,,,,,repeat,number,numRpt,d,0.4251,Lo,,,,,,1,,,,,,,,high,19,0,19,0,1,,,,,,,,,
295618,2022-10-06_13h01.10.181,vts_reward_expectancy,2022.2.4,Win32,123.1982259,Chrome,1600,1067,,,,,1,910,,,,,,,,,,,,,,,,,125,D,triangle,1,0,,,,,,,,,,,,,,,,repeat,number,numRpt,d,0.4385,Lo,,,,,,1,,,,,,,,high,20,0,20,0,1,,,,,,,,,
295618,2022-10-06_13h01.10.181,vts_reward_expectancy,2022.2.4,Win32,123.1982259,Chrome,1600,1067,,,,,10,920,,,,,,,,,,,,,,,,,160,Y,circle,1,0,,,,,,,,,,,,,,,,repeat,number,numRpt,f,0.3409,Hi,,,,,,1,,,,,,,,high,21,0,21,0,1,,,,,,,,,
295618,2022-10-06_13h01.10.181,vts_reward_expectancy,2022.2.4,Win32,123.1982259,Chrome,1600,1067,,,,,1,921,,,,,,,,,,,,,,,,,181,H,triangle,1,0,,,,,,,,,,,,,,,,repeat,number,numRpt,f,0.6258,Lo,,,,,,1,,,,,,,,high,22,0,22,0,1,,,,,,,,,
295618,2022-10-06_13h01.10.181,vts_reward_expectancy,2022.2.4,Win32,123.1982259,Chrome,1600,1067,,,,,1,922,,,,,,,,,,,,,,,,,167,B,circle,1,0,,,,,,,,,,,,,,,,repeat,number,numRpt,f,0.3494,Hi,,,,,,1,,,,,,,,high,23,0,23,0,1,,,,,,,,,
295618,2022-10-06_13h01.10.181,vts_reward_expectancy,2022.2.4,Win32,123.1982259,Chrome,1600,1067,,,,,0,922,,,,,,,,,,,,,,,,,167,U,triangle,0,0,,,,,,,,,,,,,,,,repeat,number,NA,d,0.3002,Hi,,,,,,1,,,,,,,,high,24,0,24,0,1,,,,,,,,,
295618,2022-10-06_13h01.10.181,vts_reward_expectancy,2022.2.4,Win32,123.1982259,Chrome,1600,1067,,,,,0,922,,,,,,,,,,,,,,,,,125,B,circle,1,1,,,,,,,,,,,,,,,,switch,letter,lettSwt,j,0.3911,Hi,,,,,,1,,,,,,,,high,25,0,25,0,1,,,,,,,,,
295618,2022-10-06_13h01.10.181,vts_reward_expectancy,2022.2.4,Win32,123.1982259,Chrome,1600,1067,,,,,10,932,,,,,,,,,,,,,,,,,181,D,circle,1,0,,,,,,,,,,,,,,,,repeat,letter,lettRpt,j,0.3671,Hi,,,,,,1,,,,,,,,high,26,0,26,0,1,,,,,,,,,
295618,2022-10-06_13h01.10.181,vts_reward_expectancy,2022.2.4,Win32,123.1982259,Chrome,1600,1067,,,,,1,933,,,,,,,,,,,,,,,,,146,S,triangle,1,0,,,,,,,,,,,,,,,,repeat,letter,lettRpt,k,0.3996,Lo,,,,,,1,,,,,,,,high,27,0,27,0,1,,,,,,,,,
295618,2022-10-06_13h01.10.181,vts_reward_expectancy,2022.2.4,Win32,123.1982259,Chrome,1600,1067,,,,,0,933,,,,,,,,,,,,,,,,,139,F,circle,1,0,,,,,,,,,,,,,,,,repeat,letter,lettRpt,j,0.3921,Hi,,,,,,1,,,,,,,,high,28,0,28,0,1,,,,,,,,,
295618,2022-10-06_13h01.10.181,vts_reward_expectancy,2022.2.4,Win32,123.1982259,Chrome,1600,1067,,,,,1,934,,,,,,,,,,,,,,,,,132,Y,triangle,1,0,,,,,,,,,,,,,,,,repeat,letter,lettRpt,k,0.6079,Lo,,,,,,1,,,,,,,,high,29,0,29,0,1,,,,,,,,,
295618,2022-10-06_13h01.10.181,vts_reward_expectancy,2022.2.4,Win32,123.1982259,Chrome,1600,1067,,,,,1,935,,,,,,,,,,,,,,,,,160,H,triangle,1,0,,,,,,,,,,,,,,,,repeat,letter,lettRpt,j,0.4493,Lo,,,,,,1,,,,,,,,high,30,0,30,0,1,,,,,,,,,
295618,2022-10-06_13h01.10.181,vts_reward_expectancy,2022.2.4,Win32,123.1982259,Chrome,1600,1067,,,,,10,945,,,,,,,,,,,,,,,,,174,W,circle,1,0,,,,,,,,,,,,,,,,switch,number,numSwt,f,0.3486,Hi,,,,,,1,,,,,,,,high,31,0,31,0,1,,,,,,,,,
295618,2022-10-06_13h01.10.181,vts_reward_expectancy,2022.2.4,Win32,123.1982259,Chrome,1600,1067,,,,,10,955,,,,,,,,,,,,,,,,,167,D,circle,1,0,,,,,,,,,,,,,,,,repeat,number,numRpt,f,0.3567,Hi,,,,,,2,,,,,,space,1.8747,high,0,0,0,0,1,,,,,,,,,
295618,2022-10-06_13h01.10.181,vts_reward_expectancy,2022.2.4,Win32,123.1982259,Chrome,1600,1067,,,,,1,956,,,,,,,,,,,,,,,,,132,F,triangle,1,0,,,,,,,,,,,,,,,,repeat,number,numRpt,d,0.3936,Lo,,,,,,2,,,,,,,,high,1,0,1,0,1,,,,,,,,,
295618,2022-10-06_13h01.10.181,vts_reward_expectancy,2022.2.4,Win32,123.1982259,Chrome,1600,1067,,,,,1,957,,,,,,,,,,,,,,,,,125,Y,circle,1,0,,,,,,,,,,,,,,,,repeat,number,numRpt,d,0.3193,Hi,,,,,,2,,,,,,,,high,2,0,2,0,1,,,,,,,,,
295618,2022-10-06_13h01.10.181,vts_reward_expectancy,2022.2.4,Win32,123.1982259,Chrome,1600,1067,,,,,10,967,,,,,,,,,,,,,,,,,146,H,triangle,1,0,,,,,,,,,,,,,,,,switch,letter,lettSwt,j,0.3929,Lo,,,,,,2,,,,,,,,high,3,0,3,0,1,,,,,,,,,
295618,2022-10-06_13h01.10.181,vts_reward_expectancy,2022.2.4,Win32,123.1982259,Chrome,1600,1067,,,,,0,967,,,,,,,,,,,,,,,,,160,U,circle,0,0,,,,,,,,,,,,,,,,repeat,letter,NA,j,0.4405,Lo,,,,,,2,,,,,,,,high,4,0,4,0,1,,,,,,,,,
295618,2022-10-06_13h01.10.181,vts_reward_expectancy,2022.2.4,Win32,123.1982259,Chrome,1600,1067,,,,,1,968,,,,,,,,,,,,,,,,,174,S,triangle,1,1,,,,,,,,,,,,,,,,repeat,letter,lettRpt,k,0.4935,Lo,,,,,,2,,,,,,,,high,5,0,5,0,1,,,,,,,,,
295618,2022-10-06_13h01.10.181,vts_reward_expectancy,2022.2.4,Win32,123.1982259,Chrome,1600,1067,,,,,0,968,,,,,,,,,,,,,,,,,139,W,circle,1,0,,,,,,,,,,,,,,,,switch,number,numSwt,d,0.4505,Hi,,,,,,2,,,,,,,,high,6,0,6,0,1,,,,,,,,,
295618,2022-10-06_13h01.10.181,vts_reward_expectancy,2022.2.4,Win32,123.1982259,Chrome,1600,1067,,,,,1,969,,,,,,,,,,,,,,,,,181,B,triangle,1,0,,,,,,,,,,,,,,,,repeat,number,numRpt,f,0.367,Lo,,,,,,2,,,,,,,,high,7,0,7,0,1,,,,,,,,,
295618,2022-10-06_13h01.10.181,vts_reward_expectancy,2022.2.4,Win32,123.1982259,Chrome,1600,1067,,,,,1,970,,,,,,,,,,,,,,,,,167,D,triangle,1,0,,,,,,,,,,,,,,,,repeat,number,numRpt,f,0.5096,Lo,,,,,,2,,,,,,,,high,8,0,8,0,1,,,,,,,,,
295618,2022-10-06_13h01.10.181,vts_reward_expectancy,2022.2.4,Win32,123.1982259,Chrome,1600,1067,,,,,1,971,,,,,,,,,,,,,,,,,132,F,circle,1,0,,,,,,,,,,,,,,,,repeat,number,numRpt,d,0.375,Hi,,,,,,2,,,,,,,,high,9,0,9,0,1,,,,,,,,,
295618,2022-10-06_13h01.10.181,vts_reward_expectancy,2022.2.4,Win32,123.1982259,Chrome,1600,1067,,,,,0,971,,,,,,,,,,,,,,,,,125,Y,circle,1,0,,,,,,,,,,,,,,,,switch,letter,lettSwt,k,0.4843,Hi,,,,,,2,,,,,,,,high,10,0,10,0,1,,,,,,,,,
295618,2022-10-06_13h01.10.181,vts_reward_expectancy,2022.2.4,Win32,123.1982259,Chrome,1600,1067,,,,,1,972,,,,,,,,,,,,,,,,,146,H,triangle,1,0,,,,,,,,,,,,,,,,repeat,letter,lettRpt,j,0.3417,Lo,,,,,,2,,,,,,,,high,11,0,11,0,1,,,,,,,,,
295618,2022-10-06_13h01.10.181,vts_reward_expectancy,2022.2.4,Win32,123.1982259,Chrome,1600,1067,,,,,1,973,,,,,,,,,,,,,,,,,160,U,circle,1,0,,,,,,,,,,,,,,,,repeat,letter,lettRpt,k,0.3547,Hi,,,,,,2,,,,,,,,high,12,0,12,0,1,,,,,,,,,
295618,2022-10-06_13h01.10.181,vts_reward_expectancy,2022.2.4,Win32,123.1982259,Chrome,1600,1067,,,,,0,973,,,,,,,,,,,,,,,,,174,S,triangle,0,0,,,,,,,,,,,,,,,,repeat,letter,NA,j,0.3497,Hi,,,,,,2,,,,,,,,high,13,0,13,0,1,,,,,,,,,
295618,2022-10-06_13h01.10.181,vts_reward_expectancy,2022.2.4,Win32,123.1982259,Chrome,1600,1067,,,,,1,974,,,,,,,,,,,,,,,,,139,W,triangle,1,1,,,,,,,,,,,,,,,,repeat,letter,lettRpt,k,0.4311,Lo,,,,,,2,,,,,,,,high,14,0,14,0,1,,,,,,,,,
295618,2022-10-06_13h01.10.181,vts_reward_expectancy,2022.2.4,Win32,123.1982259,Chrome,1600,1067,,,,,10,984,,,,,,,,,,,,,,,,,181,B,circle,1,0,,,,,,,,,,,,,,,,repeat,letter,lettRpt,j,0.3693,Hi,,,,,,2,,,,,,,,high,15,0,15,0,1,,,,,,,,,
295618,2022-10-06_13h01.10.181,vts_reward_expectancy,2022.2.4,Win32,123.1982259,Chrome,1600,1067,,,,,0,984,,,,,,,,,,,,,,,,,167,D,circle,0,0,,,,,,,,,,,,,,,,repeat,letter,NA,k,0.3424,Hi,,,,,,2,,,,,,,,high,16,0,16,0,1,,,,,,,,,
295618,2022-10-06_13h01.10.181,vts_reward_expectancy,2022.2.4,Win32,123.1982259,Chrome,1600,1067,,,,,1,985,,,,,,,,,,,,,,,,,181,Y,triangle,1,1,,,,,,,,,,,,,,,,switch,number,numSwt,f,0.4668,Lo,,,,,,2,,,,,,,,high,17,0,17,0,1,,,,,,,,,
295618,2022-10-06_13h01.10.181,vts_reward_expectancy,2022.2.4,Win32,123.1982259,Chrome,1600,1067,,,,,0,985,,,,,,,,,,,,,,,,,160,H,circle,1,0,,,,,,,,,,,,,,,,repeat,number,numRpt,f,0.4569,Hi,,,,,,2,,,,,,,,high,18,0,18,0,1,,,,,,,,,
295618,2022-10-06_13h01.10.181,vts_reward_expectancy,2022.2.4,Win32,123.1982259,Chrome,1600,1067,,,,,10,995,,,,,,,,,,,,,,,,,146,B,triangle,1,0,,,,,,,,,,,,,,,,repeat,number,numRpt,d,0.5076,Lo,,,,,,2,,,,,,,,high,19,0,19,0,1,,,,,,,,,
295618,2022-10-06_13h01.10.181,vts_reward_expectancy,2022.2.4,Win32,123.1982259,Chrome,1600,1067,,,,,1,996,,,,,,,,,,,,,,,,,132,F,triangle,1,0,,,,,,,,,,,,,,,,repeat,number,numRpt,d,0.3335,Lo,,,,,,2,,,,,,,,high,20,0,20,0,1,,,,,,,,,
295618,2022-10-06_13h01.10.181,vts_reward_expectancy,2022.2.4,Win32,123.1982259,Chrome,1600,1067,,,,,1,997,,,,,,,,,,,,,,,,,174,W,circle,1,0,,,,,,,,,,,,,,,,repeat,number,numRpt,f,0.3441,Hi,,,,,,2,,,,,,,,high,21,0,21,0,1,,,,,,,,,
295618,2022-10-06_13h01.10.181,vts_reward_expectancy,2022.2.4,Win32,123.1982259,Chrome,1600,1067,,,,,1,998,,,,,,,,,,,,,,,,,125,S,triangle,1,0,,,,,,,,,,,,,,,,repeat,number,numRpt,d,0.3922,Lo,,,,,,2,,,,,,,,high,22,0,22,0,1,,,,,,,,,
295618,2022-10-06_13h01.10.181,vts_reward_expectancy,2022.2.4,Win32,123.1982259,Chrome,1600,1067,,,,,0,998,,,,,,,,,,,,,,,,,139,U,circle,1,0,,,,,,,,,,,,,,,,repeat,number,numRpt,d,0.4293,Hi,,,,,,2,,,,,,,,high,23,0,23,0,1,,,,,,,,,
295618,2022-10-06_13h01.10.181,vts_reward_expectancy,2022.2.4,Win32,123.1982259,Chrome,1600,1067,,,,,0,998,,,,,,,,,,,,,,,,,167,Y,circle,1,0,,,,,,,,,,,,,,,,switch,letter,lettSwt,k,0.4439,Hi,,,,,,2,,,,,,,,high,24,0,24,0,1,,,,,,,,,
295618,2022-10-06_13h01.10.181,vts_reward_expectancy,2022.2.4,Win32,123.1982259,Chrome,1600,1067,,,,,0,998,,,,,,,,,,,,,,,,,174,D,triangle,0,0,,,,,,,,,,,,,,,,repeat,letter,NA,k,0.4186,Hi,,,,,,2,,,,,,,,high,25,0,25,0,1,,,,,,,,,
295618,2022-10-06_13h01.10.181,vts_reward_expectancy,2022.2.4,Win32,123.1982259,Chrome,1600,1067,,,,,1,999,,,,,,,,,,,,,,,,,139,U,triangle,1,1,,,,,,,,,,,,,,,,repeat,letter,lettRpt,k,0.5169,Lo,,,,,,2,,,,,,,,high,26,0,26,0,1,,,,,,,,,
295618,2022-10-06_13h01.10.181,vts_reward_expectancy,2022.2.4,Win32,123.1982259,Chrome,1600,1067,,,,,0,999,,,,,,,,,,,,,,,,,160,F,circle,0,0,,,,,,,,,,,,,,,,repeat,letter,NA,k,0.4106,Lo,,,,,,2,,,,,,,,high,27,0,27,0,1,,,,,,,,,
295618,2022-10-06_13h01.10.181,vts_reward_expectancy,2022.2.4,Win32,123.1982259,Chrome,1600,1067,,,,,0,999,,,,,,,,,,,,,,,,,146,H,circle,0,1,,,,,,,,,,,,,,,,switch,number,NA,f,0.3688,Lo,,,,,,2,,,,,,,,high,28,0,28,0,1,,,,,,,,,
295618,2022-10-06_13h01.10.181,vts_reward_expectancy,2022.2.4,Win32,123.1982259,Chrome,1600,1067,,,,,1,1000,,,,,,,,,,,,,,,,,125,W,triangle,1,1,,,,,,,,,,,,,,,,repeat,number,numRpt,d,0.4685,Lo,,,,,,2,,,,,,,,high,29,0,29,0,1,,,,,,,,,
295618,2022-10-06_13h01.10.181,vts_reward_expectancy,2022.2.4,Win32,123.1982259,Chrome,1600,1067,,,,,1,1001,,,,,,,,,,,,,,,,,181,B,triangle,1,0,,,,,,,,,,,,,,,,repeat,number,numRpt,f,0.4486,Lo,,,,,,2,,,,,,,,high,30,0,30,0,1,,,,,,,,,
295618,2022-10-06_13h01.10.181,vts_reward_expectancy,2022.2.4,Win32,123.1982259,Chrome,1600,1067,,,,,0,1001,,,,,,,,,,,,,,,,,132,S,circle,1,0,,,,,,,,,,,,,,,,repeat,number,numRpt,d,0.4681,Hi,,,,,,2,,,,,,,,high,31,0,31,0,1,,,,,,,,,
295618,2022-10-06_13h01.10.181,vts_reward_expectancy,2022.2.4,Win32,123.1982259,Chrome,1600,1067,,,,,0,1001,,,,,,,,,,,,,,,,,174,Y,star,1,0,,,,,,,,,,,,,,,,switch,letter,lettSwt,k,0.4845,Hi,,,,,,3,,,,,,space,2.745,low,0,0,0,0,1,,,,,,,,,
295618,2022-10-06_13h01.10.181,vts_reward_expectancy,2022.2.4,Win32,123.1982259,Chrome,1600,1067,,,,,1,1002,,,,,,,,,,,,,,,,,146,U,hexagon,1,0,,,,,,,,,,,,,,,,repeat,letter,lettRpt,k,0.5247,Lo,,,,,,3,,,,,,,,low,1,0,1,0,1,,,,,,,,,
295618,2022-10-06_13h01.10.181,vts_reward_expectancy,2022.2.4,Win32,123.1982259,Chrome,1600,1067,,,,,0,1002,,,,,,,,,,,,,,,,,132,S,star,1,0,,,,,,,,,,,,,,,,repeat,letter,lettRpt,k,0.4177,Hi,,,,,,3,,,,,,,,low,2,0,2,0,1,,,,,,,,,
295618,2022-10-06_13h01.10.181,vts_reward_expectancy,2022.2.4,Win32,123.1982259,Chrome,1600,1067,,,,,1,1003,,,,,,,,,,,,,,,,,181,B,hexagon,1,0,,,,,,,,,,,,,,,,repeat,letter,lettRpt,j,0.4258,Lo,,,,,,3,,,,,,,,low,3,0,3,0,1,,,,,,,,,
295618,2022-10-06_13h01.10.181,vts_reward_expectancy,2022.2.4,Win32,123.1982259,Chrome,1600,1067,,,,,10,1013,,,,,,,,,,,,,,,,,167,D,star,1,0,,,,,,,,,,,,,,,,switch,number,numSwt,f,0.3577,Hi,,,,,,3,,,,,,,,low,4,0,4,0,1,,,,,,,,,
295618,2022-10-06_13h01.10.181,vts_reward_expectancy,2022.2.4,Win32,123.1982259,Chrome,1600,1067,,,,,1,1014,,,,,,,,,,,,,,,,,139,W,hexagon,1,0,,,,,,,,,,,,,,,,repeat,number,numRpt,d,0.3496,Lo,,,,,,3,,,,,,,,low,5,0,5,0,1,,,,,,,,,
295618,2022-10-06_13h01.10.181,vts_reward_expectancy,2022.2.4,Win32,123.1982259,Chrome,1600,1067,,,,,1,1015,,,,,,,,,,,,,,,,,125,H,hexagon,1,0,,,,,,,,,,,,,,,,repeat,number,numRpt,d,0.35,Lo,,,,,,3,,,,,,,,low,6,0,6,0,1,,,,,,,,,
295618,2022-10-06_13h01.10.181,vts_reward_expectancy,2022.2.4,Win32,123.1982259,Chrome,1600,1067,,,,,1,1016,,,,,,,,,,,,,,,,,160,F,star,1,0,,,,,,,,,,,,,,,,repeat,number,numRpt,f,0.2658,Hi,,,,,,3,,,,,,,,low,7,0,7,0,1,,,,,,,,,
295618,2022-10-06_13h01.10.181,vts_reward_expectancy,2022.2.4,Win32,123.1982259,Chrome,1600,1067,,,,,0,1016,,,,,,,,,,,,,,,,,174,Y,hexagon,0,0,,,,,,,,,,,,,,,,repeat,number,NA,d,0.3307,Hi,,,,,,3,,,,,,,,low,8,0,8,0,1,,,,,,,,,
295618,2022-10-06_13h01.10.181,vts_reward_expectancy,2022.2.4,Win32,123.1982259,Chrome,1600,1067,,,,,0,1016,,,,,,,,,,,,,,,,,146,U,star,0,1,,,,,,,,,,,,,,,,switch,letter,NA,j,0.2505,Hi,,,,,,3,,,,,,,,low,9,0,9,0,1,,,,,,,,,
295618,2022-10-06_13h01.10.181,vts_reward_expectancy,2022.2.4,Win32,123.1982259,Chrome,1600,1067,,,,,0,1016,,,,,,,,,,,,,,,,,132,S,star,0,1,,,,,,,,,,,,,,,,repeat,letter,NA,j,0.3904,Hi,,,,,,3,,,,,,,,low,10,0,10,0,1,,,,,,,,,
295618,2022-10-06_13h01.10.181,vts_reward_expectancy,2022.2.4,Win32,123.1982259,Chrome,1600,1067,,,,,1,1017,,,,,,,,,,,,,,,,,181,B,hexagon,1,1,,,,,,,,,,,,,,,,repeat,letter,lettRpt,j,0.3664,Lo,,,,,,3,,,,,,,,low,11,0,11,0,1,,,,,,,,,
295618,2022-10-06_13h01.10.181,vts_reward_expectancy,2022.2.4,Win32,123.1982259,Chrome,1600,1067,,,,,0,1017,,,,,,,,,,,,,,,,,167,D,star,1,0,,,,,,,,,,,,,,,,repeat,letter,lettRpt,j,0.5011,Hi,,,,,,3,,,,,,,,low,12,0,12,0,1,,,,,,,,,
295618,2022-10-06_13h01.10.181,vts_reward_expectancy,2022.2.4,Win32,123.1982259,Chrome,1600,1067,,,,,0,1017,,,,,,,,,,,,,,,,,139,W,hexagon,0,0,,,,,,,,,,,,,,,,repeat,letter,NA,j,0.3403,Hi,,,,,,3,,,,,,,,low,13,0,13,0,1,,,,,,,,,
295618,2022-10-06_13h01.10.181,vts_reward_expectancy,2022.2.4,Win32,123.1982259,Chrome,1600,1067,,,,,1,1018,,,,,,,,,,,,,,,,,125,H,hexagon,1,1,,,,,,,,,,,,,,,,repeat,letter,lettRpt,j,0.4675,Lo,,,,,,3,,,,,,,,low,14,0,14,0,1,,,,,,,,,
295618,2022-10-06_13h01.10.181,vts_reward_expectancy,2022.2.4,Win32,123.1982259,Chrome,1600,1067,,,,,0,1018,,,,,,,,,,,,,,,,,160,F,star,1,0,,,,,,,,,,,,,,,,switch,number,numSwt,f,0.592,Hi,,,,,,3,,,,,,,,low,15,0,15,0,1,,,,,,,,,
295618,2022-10-06_13h01.10.181,vts_reward_expectancy,2022.2.4,Win32,123.1982259,Chrome,1600,1067,,,,,1,1019,,,,,,,,,,,,,,,,,146,H,hexagon,1,0,,,,,,,,,,,,,,,,repeat,number,numRpt,d,0.5157,Lo,,,,,,3,,,,,,,,low,16,0,16,0,1,,,,,,,,,
295618,2022-10-06_13h01.10.181,vts_reward_expectancy,2022.2.4,Win32,123.1982259,Chrome,1600,1067,,,,,0,1019,,,,,,,,,,,,,,,,,167,W,star,1,0,,,,,,,,,,,,,,,,repeat,number,numRpt,f,0.5673,Hi,,,,,,3,,,,,,,,low,17,0,17,0,1,,,,,,,,,
295618,2022-10-06_13h01.10.181,vts_reward_expectancy,2022.2.4,Win32,123.1982259,Chrome,1600,1067,,,,,10,1029,,,,,,,,,,,,,,,,,132,U,hexagon,1,0,,,,,,,,,,,,,,,,repeat,number,numRpt,d,0.4237,Lo,,,,,,3,,,,,,,,low,18,0,18,0,1,,,,,,,,,
295618,2022-10-06_13h01.10.181,vts_reward_expectancy,2022.2.4,Win32,123.1982259,Chrome,1600,1067,,,,,0,1029,,,,,,,,,,,,,,,,,125,Y,star,1,0,,,,,,,,,,,,,,,,repeat,number,numRpt,d,0.4421,Hi,,,,,,3,,,,,,,,low,19,0,19,0,1,,,,,,,,,
295618,2022-10-06_13h01.10.181,vts_reward_expectancy,2022.2.4,Win32,123.1982259,Chrome,1600,1067,,,,,10,1039,,,,,,,,,,,,,,,,,139,S,star,1,0,,,,,,,,,,,,,,,,repeat,number,numRpt,d,0.3666,Hi,,,,,,3,,,,,,,,low,20,0,20,0,1,,,,,,,,,
295618,2022-10-06_13h01.10.181,vts_reward_expectancy,2022.2.4,Win32,123.1982259,Chrome,1600,1067,,,,,10,1049,,,,,,,,,,,,,,,,,181,B,hexagon,1,0,,,,,,,,,,,,,,,,repeat,number,numRpt,f,0.3902,Lo,,,,,,3,,,,,,,,low,21,0,21,0,1,,,,,,,,,
295618,2022-10-06_13h01.10.181,vts_reward_expectancy,2022.2.4,Win32,123.1982259,Chrome,1600,1067,,,,,0,1049,,,,,,,,,,,,,,,,,174,D,star,0,0,,,,,,,,,,,,,,,,repeat,number,NA,d,0.3184,Lo,,,,,,3,,,,,,,,low,22,0,22,0,1,,,,,,,,,
295618,2022-10-06_13h01.10.181,vts_reward_expectancy,2022.2.4,Win32,123.1982259,Chrome,1600,1067,,,,,0,1049,,,,,,,,,,,,,,,,,160,F,hexagon,0,1,,,,,,,,,,,,,,,,repeat,number,NA,d,0.4305,Lo,,,,,,3,,,,,,,,low,23,0,23,0,1,,,,,,,,,
295618,2022-10-06_13h01.10.181,vts_reward_expectancy,2022.2.4,Win32,123.1982259,Chrome,1600,1067,,,,,1,1050,,,,,,,,,,,,,,,,,125,W,hexagon,1,1,,,,,,,,,,,,,,,,repeat,number,numRpt,d,0.3501,Lo,,,,,,3,,,,,,,,low,24,0,24,0,1,,,,,,,,,
295618,2022-10-06_13h01.10.181,vts_reward_expectancy,2022.2.4,Win32,123.1982259,Chrome,1600,1067,,,,,0,1050,,,,,,,,,,,,,,,,,167,Y,star,1,0,,,,,,,,,,,,,,,,repeat,number,numRpt,f,0.4083,Hi,,,,,,3,,,,,,,,low,25,0,25,0,1,,,,,,,,,
295618,2022-10-06_13h01.10.181,vts_reward_expectancy,2022.2.4,Win32,123.1982259,Chrome,1600,1067,,,,,10,1060,,,,,,,,,,,,,,,,,174,B,hexagon,1,0,,,,,,,,,,,,,,,,repeat,number,numRpt,f,0.392,Lo,,,,,,3,,,,,,,,low,26,0,26,0,1,,,,,,,,,
295618,2022-10-06_13h01.10.181,vts_reward_expectancy,2022.2.4,Win32,123.1982259,Chrome,1600,1067,,,,,0,1060,,,,,,,,,,,,,,,,,160,F,star,1,0,,,,,,,,,,,,,,,,repeat,number,numRpt,f,0.4689,Hi,,,,,,3,,,,,,,,low,27,0,27,0,1,,,,,,,,,
295618,2022-10-06_13h01.10.181,vts_reward_expectancy,2022.2.4,Win32,123.1982259,Chrome,1600,1067,,,,,0,1060,,,,,,,,,,,,,,,,,132,S,star,1,0,,,,,,,,,,,,,,,,repeat,number,numRpt,d,0.5321,Hi,,,,,,3,,,,,,,,low,28,0,28,0,1,,,,,,,,,
295618,2022-10-06_13h01.10.181,vts_reward_expectancy,2022.2.4,Win32,123.1982259,Chrome,1600,1067,,,,,10,1070,,,,,,,,,,,,,,,,,181,U,hexagon,1,0,,,,,,,,,,,,,,,,switch,letter,lettSwt,k,0.3831,Lo,,,,,,3,,,,,,,,low,29,0,29,0,1,,,,,,,,,
295618,2022-10-06_13h01.10.181,vts_reward_expectancy,2022.2.4,Win32,123.1982259,Chrome,1600,1067,,,,,0,1070,,,,,,,,,,,,,,,,,146,H,star,1,0,,,,,,,,,,,,,,,,repeat,letter,lettRpt,j,0.5418,Hi,,,,,,3,,,,,,,,low,30,0,30,0,1,,,,,,,,,
295618,2022-10-06_13h01.10.181,vts_reward_expectancy,2022.2.4,Win32,123.1982259,Chrome,1600,1067,,,,,1,1071,,,,,,,,,,,,,,,,,139,D,hexagon,1,0,,,,,,,,,,,,,,,,switch,number,numSwt,d,0.4239,Lo,,,,,,3,,,,,,,,low,31,0,31,0,1,,,,,,,,,
295618,2022-10-06_13h01.10.181,vts_reward_expectancy,2022.2.4,Win32,123.1982259,Chrome,1600,1067,,,,,0,1071,,,,,,,,,,,,,,,,,125,H,star,1,0,,,,,,,,,,,,,,,,repeat,number,numRpt,d,0.4329,Hi,,,,,,4,,,,,,space,1.1996,low,0,0,0,0,1,,,,,,,,,
295618,2022-10-06_13h01.10.181,vts_reward_expectancy,2022.2.4,Win32,123.1982259,Chrome,1600,1067,,,,,1,1072,,,,,,,,,,,,,,,,,139,U,hexagon,1,0,,,,,,,,,,,,,,,,switch,letter,lettSwt,k,0.5082,Lo,,,,,,4,,,,,,,,low,1,0,1,0,1,,,,,,,,,
295618,2022-10-06_13h01.10.181,vts_reward_expectancy,2022.2.4,Win32,123.1982259,Chrome,1600,1067,,,,,10,1082,,,,,,,,,,,,,,,,,181,Y,star,1,0,,,,,,,,,,,,,,,,repeat,letter,lettRpt,k,0.3982,Hi,,,,,,4,,,,,,,,low,2,0,2,0,1,,,,,,,,,
295618,2022-10-06_13h01.10.181,vts_reward_expectancy,2022.2.4,Win32,123.1982259,Chrome,1600,1067,,,,,10,1092,,,,,,,,,,,,,,,,,174,B,hexagon,1,0,,,,,,,,,,,,,,,,repeat,letter,lettRpt,j,0.4414,Lo,,,,,,4,,,,,,,,low,3,0,3,0,1,,,,,,,,,
295618,2022-10-06_13h01.10.181,vts_reward_expectancy,2022.2.4,Win32,123.1982259,Chrome,1600,1067,,,,,10,1102,,,,,,,,,,,,,,,,,160,S,hexagon,1,0,,,,,,,,,,,,,,,,repeat,letter,lettRpt,k,0.4163,Lo,,,,,,4,,,,,,,,low,4,0,4,0,1,,,,,,,,,
295618,2022-10-06_13h01.10.181,vts_reward_expectancy,2022.2.4,Win32,123.1982259,Chrome,1600,1067,,,,,0,1102,,,,,,,,,,,,,,,,,132,W,star,1,0,,,,,,,,,,,,,,,,repeat,letter,lettRpt,k,0.4327,Hi,,,,,,4,,,,,,,,low,5,0,5,0,1,,,,,,,,,
295618,2022-10-06_13h01.10.181,vts_reward_expectancy,2022.2.4,Win32,123.1982259,Chrome,1600,1067,,,,,0,1102,,,,,,,,,,,,,,,,,146,D,star,1,0,,,,,,,,,,,,,,,,switch,number,numSwt,d,0.6071,Hi,,,,,,4,,,,,,,,low,6,0,6,0,1,,,,,,,,,
295618,2022-10-06_13h01.10.181,vts_reward_expectancy,2022.2.4,Win32,123.1982259,Chrome,1600,1067,,,,,10,1112,,,,,,,,,,,,,,,,,167,F,hexagon,1,0,,,,,,,,,,,,,,,,repeat,number,numRpt,f,0.3755,Lo,,,,,,4,,,,,,,,low,7,0,7,0,1,,,,,,,,,
295618,2022-10-06_13h01.10.181,vts_reward_expectancy,2022.2.4,Win32,123.1982259,Chrome,1600,1067,,,,,0,1112,,,,,,,,,,,,,,,,,125,H,star,1,0,,,,,,,,,,,,,,,,repeat,number,numRpt,d,0.4493,Hi,,,,,,4,,,,,,,,low,8,0,8,0,1,,,,,,,,,
295618,2022-10-06_13h01.10.181,vts_reward_expectancy,2022.2.4,Win32,123.1982259,Chrome,1600,1067,,,,,1,1113,,,,,,,,,,,,,,,,,139,U,hexagon,1,0,,,,,,,,,,,,,,,,repeat,number,numRpt,d,0.433,Lo,,,,,,4,,,,,,,,low,9,0,9,0,1,,,,,,,,,
295618,2022-10-06_13h01.10.181,vts_reward_expectancy,2022.2.4,Win32,123.1982259,Chrome,1600,1067,,,,,1,1114,,,,,,,,,,,,,,,,,181,Y,star,1,0,,,,,,,,,,,,,,,,switch,letter,lettSwt,k,0.3927,Hi,,,,,,4,,,,,,,,low,10,0,10,0,1,,,,,,,,,
295618,2022-10-06_13h01.10.181,vts_reward_expectancy,2022.2.4,Win32,123.1982259,Chrome,1600,1067,,,,,1,1115,,,,,,,,,,,,,,,,,174,B,hexagon,1,0,,,,,,,,,,,,,,,,repeat,letter,lettRpt,j,0.2337,Lo,,,,,,4,,,,,,,,low,11,0,11,0,1,,,,,,,,,
295618,2022-10-06_13h01.10.181,vts_reward_expectancy,2022.2.4,Win32,123.1982259,Chrome,1600,1067,,,,,1,1116,,,,,,,,,,,,,,,,,160,S,star,1,0,,,,,,,,,,,,,,,,repeat,letter,lettRpt,k,0.4006,Hi,,,,,,4,,,,,,,,low,12,0,12,0,1,,,,,,,,,
295618,2022-10-06_13h01.10.181,vts_reward_expectancy,2022.2.4,Win32,123.1982259,Chrome,1600,1067,,,,,10,1126,,,,,,,,,,,,,,,,,132,W,hexagon,1,0,,,,,,,,,,,,,,,,switch,number,numSwt,d,0.3729,Lo,,,,,,4,,,,,,,,low,13,0,13,0,1,,,,,,,,,
295618,2022-10-06_13h01.10.181,vts_reward_expectancy,2022.2.4,Win32,123.1982259,Chrome,1600,1067,,,,,0,1126,,,,,,,,,,,,,,,,,146,D,star,0,0,,,,,,,,,,,,,,,,repeat,number,NA,f,0.3595,Lo,,,,,,4,,,,,,,,low,14,0,14,0,1,,,,,,,,,
295618,2022-10-06_13h01.10.181,vts_reward_expectancy,2022.2.4,Win32,123.1982259,Chrome,1600,1067,,,,,10,1136,,,,,,,,,,,,,,,,,167,F,hexagon,1,1,,,,,,,,,,,,,,,,repeat,number,numRpt,f,0.4337,Lo,,,,,,4,,,,,,,,low,15,0,15,0,1,,,,,,,,,
295618,2022-10-06_13h01.10.181,vts_reward_expectancy,2022.2.4,Win32,123.1982259,Chrome,1600,1067,,,,,10,1146,,,,,,,,,,,,,,,,,132,S,star,1,0,,,,,,,,,,,,,,,,repeat,number,numRpt,d,0.2581,Hi,,,,,,4,,,,,,,,low,16,0,16,0,1,,,,,,,,,
295618,2022-10-06_13h01.10.181,vts_reward_expectancy,2022.2.4,Win32,123.1982259,Chrome,1600,1067,,,,,0,1146,,,,,,,,,,,,,,,,,160,H,hexagon,0,0,,,,,,,,,,,,,,,,switch,letter,NA,k,0.3588,Hi,,,,,,4,,,,,,,,low,17,0,17,0,1,,,,,,,,,
295618,2022-10-06_13h01.10.181,vts_reward_expectancy,2022.2.4,Win32,123.1982259,Chrome,1600,1067,,,,,0,1146,,,,,,,,,,,,,,,,,125,B,star,1,1,,,,,,,,,,,,,,,,switch,number,numSwt,d,0.4163,Hi,,,,,,4,,,,,,,,low,18,0,18,0,1,,,,,,,,,
295618,2022-10-06_13h01.10.181,vts_reward_expectancy,2022.2.4,Win32,123.1982259,Chrome,1600,1067,,,,,1,1147,,,,,,,,,,,,,,,,,139,D,hexagon,1,0,,,,,,,,,,,,,,,,switch,letter,lettSwt,j,0.6083,Lo,,,,,,4,,,,,,,,low,19,0,19,0,1,,,,,,,,,
295618,2022-10-06_13h01.10.181,vts_reward_expectancy,2022.2.4,Win32,123.1982259,Chrome,1600,1067,,,,,1,1148,,,,,,,,,,,,,,,,,181,W,hexagon,1,0,,,,,,,,,,,,,,,,repeat,letter,lettRpt,k,0.5581,Lo,,,,,,4,,,,,,,,low,20,0,20,0,1,,,,,,,,,
295618,2022-10-06_13h01.10.181,vts_reward_expectancy,2022.2.4,Win32,123.1982259,Chrome,1600,1067,,,,,0,1148,,,,,,,,,,,,,,,,,167,F,star,1,0,,,,,,,,,,,,,,,,switch,number,numSwt,f,0.5664,Hi,,,,,,4,,,,,,,,low,21,0,21,0,1,,,,,,,,,
295618,2022-10-06_13h01.10.181,vts_reward_expectancy,2022.2.4,Win32,123.1982259,Chrome,1600,1067,,,,,0,1148,,,,,,,,,,,,,,,,,174,Y,star,1,0,,,,,,,,,,,,,,,,repeat,number,numRpt,f,0.4586,Hi,,,,,,4,,,,,,,,low,22,0,22,0,1,,,,,,,,,
295618,2022-10-06_13h01.10.181,vts_reward_expectancy,2022.2.4,Win32,123.1982259,Chrome,1600,1067,,,,,1,1149,,,,,,,,,,,,,,,,,146,U,hexagon,1,0,,,,,,,,,,,,,,,,repeat,number,numRpt,d,0.3501,Lo,,,,,,4,,,,,,,,low,23,0,23,0,1,,,,,,,,,
295618,2022-10-06_13h01.10.181,vts_reward_expectancy,2022.2.4,Win32,123.1982259,Chrome,1600,1067,,,,,0,1149,,,,,,,,,,,,,,,,,181,U,star,0,0,,,,,,,,,,,,,,,,switch,letter,NA,j,0.3427,Lo,,,,,,4,,,,,,,,low,24,0,24,0,1,,,,,,,,,
295618,2022-10-06_13h01.10.181,vts_reward_expectancy,2022.2.4,Win32,123.1982259,Chrome,1600,1067,,,,,1,1150,,,,,,,,,,,,,,,,,160,B,hexagon,1,1,,,,,,,,,,,,,,,,repeat,letter,lettRpt,j,1.3603,Lo,,,,,,4,,,,,,,,low,25,0,25,0,1,,,,,,,,,
295618,2022-10-06_13h01.10.181,vts_reward_expectancy,2022.2.4,Win32,123.1982259,Chrome,1600,1067,,,,,0,1150,,,,,,,,,,,,,,,,,132,W,star,1,0,,,,,,,,,,,,,,,,repeat,letter,lettRpt,k,0.4432,Hi,,,,,,4,,,,,,,,low,26,0,26,0,1,,,,,,,,,
295618,2022-10-06_13h01.10.181,vts_reward_expectancy,2022.2.4,Win32,123.1982259,Chrome,1600,1067,,,,,10,1160,,,,,,,,,,,,,,,,,146,S,hexagon,1,0,,,,,,,,,,,,,,,,switch,number,numSwt,d,0.3757,Lo,,,,,,4,,,,,,,,low,27,0,27,0,1,,,,,,,,,
295618,2022-10-06_13h01.10.181,vts_reward_expectancy,2022.2.4,Win32,123.1982259,Chrome,1600,1067,,,,,0,1160,,,,,,,,,,,,,,,,,174,Y,star,0,0,,,,,,,,,,,,,,,,repeat,number,NA,d,0.354,Lo,,,,,,4,,,,,,,,low,28,0,28,0,1,,,,,,,,,
295618,2022-10-06_13h01.10.181,vts_reward_expectancy,2022.2.4,Win32,123.1982259,Chrome,1600,1067,,,,,10,1170,,,,,,,,,,,,,,,,,125,F,hexagon,1,1,,,,,,,,,,,,,,,,repeat,number,numRpt,d,0.5834,Lo,,,,,,4,,,,,,,,low,29,0,29,0,1,,,,,,,,,
295618,2022-10-06_13h01.10.181,vts_reward_expectancy,2022.2.4,Win32,123.1982259,Chrome,1600,1067,,,,,10,1180,,,,,,,,,,,,,,,,,167,H,star,1,0,,,,,,,,,,,,,,,,repeat,number,numRpt,f,0.2864,Hi,,,,,,4,,,,,,,,low,30,0,30,0,1,,,,,,,,,
295618,2022-10-06_13h01.10.181,vts_reward_expectancy,2022.2.4,Win32,123.1982259,Chrome,1600,1067,,,,,1,1181,,,,,,,,,,,,,,,,,139,D,hexagon,1,0,,,,,,,,,,,,,,,,repeat,number,numRpt,d,0.2791,Lo,,,,,,4,,,,,,,,low,31,0,31,0,1,,,,,,,,,
295618,2022-10-06_13h01.10.181,vts_reward_expectancy,2022.2.4,Win32,123.1982259,Chrome,1600,1067,,,,,10,1191,,,,,,,,,,,,,,,,,146,B,hexagon,1,0,,,,,,,,,,,,,,,,repeat,number,numRpt,d,0.3754,Lo,,,,,,5,,,,,,space,9.121,low,0,0,0,0,1,,,,,,,,,
295618,2022-10-06_13h01.10.181,vts_reward_expectancy,2022.2.4,Win32,123.1982259,Chrome,1600,1067,,,,,0,1191,,,,,,,,,,,,,,,,,174,S,star,0,0,,,,,,,,,,,,,,,,repeat,number,NA,d,0.3007,Lo,,,,,,5,,,,,,,,low,1,0,1,0,1,,,,,,,,,
295618,2022-10-06_13h01.10.181,vts_reward_expectancy,2022.2.4,Win32,123.1982259,Chrome,1600,1067,,,,,10,1201,,,,,,,,,,,,,,,,,132,U,hexagon,1,1,,,,,,,,,,,,,,,,repeat,number,numRpt,d,0.4187,Lo,,,,,,5,,,,,,,,low,2,0,2,0,1,,,,,,,,,
295618,2022-10-06_13h01.10.181,vts_reward_expectancy,2022.2.4,Win32,123.1982259,Chrome,1600,1067,,,,,1,1202,,,,,,,,,,,,,,,,,181,F,star,1,0,,,,,,,,,,,,,,,,repeat,number,numRpt,f,0.3253,Hi,,,,,,5,,,,,,,,low,3,0,3,0,1,,,,,,,,,
295618,2022-10-06_13h01.10.181,vts_reward_expectancy,2022.2.4,Win32,123.1982259,Chrome,1600,1067,,,,,1,1203,,,,,,,,,,,,,,,,,167,W,hexagon,1,0,,,,,,,,,,,,,,,,switch,letter,lettSwt,k,0.3676,Lo,,,,,,5,,,,,,,,low,4,0,4,0,1,,,,,,,,,
295618,2022-10-06_13h01.10.181,vts_reward_expectancy,2022.2.4,Win32,123.1982259,Chrome,1600,1067,,,,,0,1203,,,,,,,,,,,,,,,,,160,Y,star,0,0,,,,,,,,,,,,,,,,repeat,letter,NA,j,0.3165,Lo,,,,,,5,,,,,,,,low,5,0,5,0,1,,,,,,,,,
295618,2022-10-06_13h01.10.181,vts_reward_expectancy,2022.2.4,Win32,123.1982259,Chrome,1600,1067,,,,,0,1203,,,,,,,,,,,,,,,,,139,D,star,1,1,,,,,,,,,,,,,,,,repeat,letter,lettRpt,j,0.4251,Hi,,,,,,5,,,,,,,,low,6,0,6,0,1,,,,,,,,,
295618,2022-10-06_13h01.10.181,vts_reward_expectancy,2022.2.4,Win32,123.1982259,Chrome,1600,1067,,,,,1,1204,,,,,,,,,,,,,,,,,125,H,hexagon,1,0,,,,,,,,,,,,,,,,repeat,letter,lettRpt,j,0.3577,Lo,,,,,,5,,,,,,,,low,7,0,7,0,1,,,,,,,,,
295618,2022-10-06_13h01.10.181,vts_reward_expectancy,2022.2.4,Win32,123.1982259,Chrome,1600,1067,,,,,10,1214,,,,,,,,,,,,,,,,,146,B,hexagon,1,0,,,,,,,,,,,,,,,,repeat,letter,lettRpt,j,0.3983,Lo,,,,,,5,,,,,,,,low,8,0,8,0,1,,,,,,,,,
295618,2022-10-06_13h01.10.181,vts_reward_expectancy,2022.2.4,Win32,123.1982259,Chrome,1600,1067,,,,,0,1214,,,,,,,,,,,,,,,,,174,S,star,0,0,,,,,,,,,,,,,,,,switch,number,NA,d,0.3754,Lo,,,,,,5,,,,,,,,low,9,0,9,0,1,,,,,,,,,
295618,2022-10-06_13h01.10.181,vts_reward_expectancy,2022.2.4,Win32,123.1982259,Chrome,1600,1067,,,,,1,1215,,,,,,,,,,,,,,,,,132,U,hexagon,1,1,,,,,,,,,,,,,,,,repeat,number,numRpt,d,0.4068,Lo,,,,,,5,,,,,,,,low,10,0,10,0,1,,,,,,,,,
295618,2022-10-06_13h01.10.181,vts_reward_expectancy,2022.2.4,Win32,123.1982259,Chrome,1600,1067,,,,,0,1215,,,,,,,,,,,,,,,,,181,F,star,1,0,,,,,,,,,,,,,,,,repeat,number,numRpt,f,0.3965,Hi,,,,,,5,,,,,,,,low,11,0,11,0,1,,,,,,,,,
295618,2022-10-06_13h01.10.181,vts_reward_expectancy,2022.2.4,Win32,123.1982259,Chrome,1600,1067,,,,,0,1215,,,,,,,,,,,,,,,,,167,W,star,1,0,,,,,,,,,,,,,,,,repeat,number,numRpt,f,0.4502,Hi,,,,,,5,,,,,,,,low,12,0,12,0,1,,,,,,,,,
295618,2022-10-06_13h01.10.181,vts_reward_expectancy,2022.2.4,Win32,123.1982259,Chrome,1600,1067,,,,,10,1225,,,,,,,,,,,,,,,,,160,Y,hexagon,1,0,,,,,,,,,,,,,,,,switch,letter,lettSwt,k,0.4696,Lo,,,,,,5,,,,,,,,low,13,0,13,0,1,,,,,,,,,
295618,2022-10-06_13h01.10.181,vts_reward_expectancy,2022.2.4,Win32,123.1982259,Chrome,1600,1067,,,,,1,1226,,,,,,,,,,,,,,,,,139,D,star,1,0,,,,,,,,,,,,,,,,repeat,letter,lettRpt,j,0.3931,Hi,,,,,,5,,,,,,,,low,14,0,14,0,1,,,,,,,,,
295618,2022-10-06_13h01.10.181,vts_reward_expectancy,2022.2.4,Win32,123.1982259,Chrome,1600,1067,,,,,0,1226,,,,,,,,,,,,,,,,,125,H,hexagon,0,0,,,,,,,,,,,,,,,,repeat,letter,NA,k,0.3761,Hi,,,,,,5,,,,,,,,low,15,0,15,0,1,,,,,,,,,
295618,2022-10-06_13h01.10.181,vts_reward_expectancy,2022.2.4,Win32,123.1982259,Chrome,1600,1067,,,,,0,1226,,,,,,,,,,,,,,,,,146,S,hexagon,0,1,,,,,,,,,,,,,,,,repeat,letter,NA,j,0.3333,Hi,,,,,,5,,,,,,,,low,16,0,16,0,1,,,,,,,,,
295618,2022-10-06_13h01.10.181,vts_reward_expectancy,2022.2.4,Win32,123.1982259,Chrome,1600,1067,,,,,0,1226,,,,,,,,,,,,,,,,,174,Y,star,0,1,,,,,,,,,,,,,,,,repeat,letter,NA,j,0.2785,Hi,,,,,,5,,,,,,,,low,17,0,17,0,1,,,,,,,,,
295618,2022-10-06_13h01.10.181,vts_reward_expectancy,2022.2.4,Win32,123.1982259,Chrome,1600,1067,,,,,1,1227,,,,,,,,,,,,,,,,,132,F,hexagon,1,1,,,,,,,,,,,,,,,,switch,number,numSwt,d,0.4923,Lo,,,,,,5,,,,,,,,low,18,0,18,0,1,,,,,,,,,
295618,2022-10-06_13h01.10.181,vts_reward_expectancy,2022.2.4,Win32,123.1982259,Chrome,1600,1067,,,,,1,1228,,,,,,,,,,,,,,,,,160,W,star,1,0,,,,,,,,,,,,,,,,repeat,number,numRpt,f,0.3357,Hi,,,,,,5,,,,,,,,low,19,0,19,0,1,,,,,,,,,
295618,2022-10-06_13h01.10.181,vts_reward_expectancy,2022.2.4,Win32,123.1982259,Chrome,1600,1067,,,,,0,1228,,,,,,,,,,,,,,,,,167,D,star,1,0,,,,,,,,,,,,,,,,repeat,number,numRpt,f,0.4166,Hi,,,,,,5,,,,,,,,low,20,0,20,0,1,,,,,,,,,
295618,2022-10-06_13h01.10.181,vts_reward_expectancy,2022.2.4,Win32,123.1982259,Chrome,1600,1067,,,,,1,1229,,,,,,,,,,,,,,,,,139,B,hexagon,1,0,,,,,,,,,,,,,,,,switch,letter,lettSwt,j,0.3839,Lo,,,,,,5,,,,,,,,low,21,0,21,0,1,,,,,,,,,
295618,2022-10-06_13h01.10.181,vts_reward_expectancy,2022.2.4,Win32,123.1982259,Chrome,1600,1067,,,,,10,1239,,,,,,,,,,,,,,,,,181,U,star,1,0,,,,,,,,,,,,,,,,switch,number,numSwt,f,0.2575,Hi,,,,,,5,,,,,,,,low,22,0,22,0,1,,,,,,,,,
295618,2022-10-06_13h01.10.181,vts_reward_expectancy,2022.2.4,Win32,123.1982259,Chrome,1600,1067,,,,,10,1249,,,,,,,,,,,,,,,,,125,H,hexagon,1,0,,,,,,,,,,,,,,,,repeat,number,numRpt,d,0.4491,Lo,,,,,,5,,,,,,,,low,23,0,23,0,1,,,,,,,,,
295618,2022-10-06_13h01.10.181,vts_reward_expectancy,2022.2.4,Win32,123.1982259,Chrome,1600,1067,,,,,10,1259,,,,,,,,,,,,,,,,,139,W,hexagon,1,0,,,,,,,,,,,,,,,,repeat,number,numRpt,d,0.3333,Lo,,,,,,5,,,,,,,,low,24,0,24,0,1,,,,,,,,,
295618,2022-10-06_13h01.10.181,vts_reward_expectancy,2022.2.4,Win32,123.1982259,Chrome,1600,1067,,,,,0,1259,,,,,,,,,,,,,,,,,146,D,star,0,0,,,,,,,,,,,,,,,,repeat,number,NA,f,0.3078,Lo,,,,,,5,,,,,,,,low,25,0,25,0,1,,,,,,,,,
295618,2022-10-06_13h01.10.181,vts_reward_expectancy,2022.2.4,Win32,123.1982259,Chrome,1600,1067,,,,,0,1259,,,,,,,,,,,,,,,,,132,B,hexagon,0,1,,,,,,,,,,,,,,,,repeat,number,NA,f,0.3665,Lo,,,,,,5,,,,,,,,low,26,0,26,0,1,,,,,,,,,
295618,2022-10-06_13h01.10.181,vts_reward_expectancy,2022.2.4,Win32,123.1982259,Chrome,1600,1067,,,,,1,1260,,,,,,,,,,,,,,,,,160,S,star,1,1,,,,,,,,,,,,,,,,repeat,number,numRpt,f,0.3497,Hi,,,,,,5,,,,,,,,low,27,0,27,0,1,,,,,,,,,
295618,2022-10-06_13h01.10.181,vts_reward_expectancy,2022.2.4,Win32,123.1982259,Chrome,1600,1067,,,,,1,1261,,,,,,,,,,,,,,,,,174,U,hexagon,1,0,,,,,,,,,,,,,,,,repeat,number,numRpt,f,0.4155,Lo,,,,,,5,,,,,,,,low,28,0,28,0,1,,,,,,,,,
295618,2022-10-06_13h01.10.181,vts_reward_expectancy,2022.2.4,Win32,123.1982259,Chrome,1600,1067,,,,,10,1271,,,,,,,,,,,,,,,,,125,Y,star,1,0,,,,,,,,,,,,,,,,repeat,number,numRpt,d,0.3508,Hi,,,,,,5,,,,,,,,low,29,0,29,0,1,,,,,,,,,
295618,2022-10-06_13h01.10.181,vts_reward_expectancy,2022.2.4,Win32,123.1982259,Chrome,1600,1067,,,,,10,1281,,,,,,,,,,,,,,,,,167,F,hexagon,1,0,,,,,,,,,,,,,,,,repeat,number,numRpt,f,0.3092,Lo,,,,,,5,,,,,,,,low,30,0,30,0,1,,,,,,,,,
295618,2022-10-06_13h01.10.181,vts_reward_expectancy,2022.2.4,Win32,123.1982259,Chrome,1600,1067,,,,,0,1281,,,,,,,,,,,,,,,,,181,H,star,1,0,,,,,,,,,,,,,,,,switch,letter,lettSwt,j,0.5177,Hi,,,,,,5,,,,,,,,low,31,0,31,0,1,,,,,,,,,
295618,2022-10-06_13h01.10.181,vts_reward_expectancy,2022.2.4,Win32,123.1982259,Chrome,1600,1067,,,,,,,,,,,,,,,,,,,,,,,,,,,,,,,,,,,,,,,,,,,,,,,,,,,,,,6,,,,,,,,,,,,,,"hit different keys corresponding to 2 different tasks, hitting d or f for a number lower or greater than 153 respectively, and then hitting j or k for a letter closer to A or Z respectively. The shape shown before corresponded to the speed required to get bonus points.",2,the shapes had no clear pattern,4,3,,2,1600,1067
