participant,date,expName,psychopyVersion,OS,frameRate,browser,xResolution,yResolution,key_resp.keys,key_resp.rt,training_resp.keys,training_resp.rt,points_trial,points_cumul,trainBlock,training.thisRepN,training.thisTrialN,training.thisN,training.thisIndex,training.ran,LTriangleOpac,LCircleOpac,LHexagonOpac,LStarOpac,RTriangleOpac,RCircleOpac,RHexagonOpac,RStarOpac,LShape_ID,RShape_ID,curr_topStim,curr_bottStim,curr_shape,acc,E1,target_resp_prac1.keys,target_resp_prac1.rt,pracBlock,task1_prac_trials.thisRepN,task1_prac_trials.thisTrialN,task1_prac_trials.thisN,task1_prac_trials.thisIndex,task1_prac_trials.ran,target_resp_prac2.keys,target_resp_prac2.rt,task2_praac_trials.thisRepN,task2_praac_trials.thisTrialN,task2_praac_trials.thisN,task2_praac_trials.thisIndex,task2_praac_trials.ran,alt,task,condition,target_resp.keys,rewCond,vts_practice_trials.thisRepN,vts_practice_trials.thisTrialN,vts_practice_trials.thisN,vts_practice_trials.thisIndex,vts_practice_trials.ran,target_resp.rt,blockNum,trials_norew.thisRepN,trials_norew.thisTrialN,trials_norew.thisN,trials_norew.thisIndex,trials_norew.ran,key_resp_2.keys,key_resp_2.rt,rewExpect,trials_rew.thisRepN,trials_rew.thisTrialN,trials_rew.thisN,trials_rew.thisIndex,trials_rew.ran,Q1,Q2,Q2_text,Q3,Q4,Q5_text,Q5,xRes,yRes
293176,2022-09-30_10h07.59.177,vts_reward_expectancy,2022.2.4,MacIntel,60.0024001,Chrome,1470,956,,,,,,,,,,,,,,,,,,,,,,,,,,,,,,,,,,,,,,,,,,,,,,,,,,,,,,,,,,,,,,,,,,,,,,,,,,,,
293176,2022-09-30_10h07.59.177,vts_reward_expectancy,2022.2.4,MacIntel,60.0024001,Chrome,1470,956,space,12.1429,,,,,,,,,,,,,,,,,,,,,,,,,,,,,,,,,,,,,,,,,,,,,,,,,,,,,,,,,,,,,,,,,,,,,,,,,,
293176,2022-09-30_10h07.59.177,vts_reward_expectancy,2022.2.4,MacIntel,60.0024001,Chrome,1470,956,,,,,,,,,,,,,,,,,,,,,,,,,,,,,,,,,,,,,,,,,,,,,,,,,,,,,,,,,,,,,,,,,,,,,,,,,,,,
293176,2022-09-30_10h07.59.177,vts_reward_expectancy,2022.2.4,MacIntel,60.0024001,Chrome,1470,956,,,a,3.6481,1,1,0,0,0,0,1,1,1,0,0,0,0,0,1,0,triangle,hexagon,,,,,,,,,,,,,,,,,,,,,,,,,,,,,,,,,,,,,,,,,,,,,,,,,,,,,,
293176,2022-09-30_10h07.59.177,vts_reward_expectancy,2022.2.4,MacIntel,60.0024001,Chrome,1470,956,,,a,6.8976,10,11,0,0,1,1,8,1,0,0,1,0,0,0,0,1,hexagon,star,,,,,,,,,,,,,,,,,,,,,,,,,,,,,,,,,,,,,,,,,,,,,,,,,,,,,,
293176,2022-09-30_10h07.59.177,vts_reward_expectancy,2022.2.4,MacIntel,60.0024001,Chrome,1470,956,,,a,3.3644,1,12,0,0,2,2,9,1,0,0,0,1,1,0,0,0,star,triangle,,,,,,,,,,,,,,,,,,,,,,,,,,,,,,,,,,,,,,,,,,,,,,,,,,,,,,
293176,2022-09-30_10h07.59.177,vts_reward_expectancy,2022.2.4,MacIntel,60.0024001,Chrome,1470,956,,,l,6.5335,1,13,0,0,3,3,10,1,0,0,0,1,0,1,0,0,star ,circle,,,,,,,,,,,,,,,,,,,,,,,,,,,,,,,,,,,,,,,,,,,,,,,,,,,,,,
293176,2022-09-30_10h07.59.177,vts_reward_expectancy,2022.2.4,MacIntel,60.0024001,Chrome,1470,956,,,a,1.2011,1,14,0,0,4,4,11,1,0,0,0,1,0,0,1,0,star,hexagon,,,,,,,,,,,,,,,,,,,,,,,,,,,,,,,,,,,,,,,,,,,,,,,,,,,,,,
293176,2022-09-30_10h07.59.177,vts_reward_expectancy,2022.2.4,MacIntel,60.0024001,Chrome,1470,956,,,a,5.7608,1,15,0,0,5,5,6,1,0,0,1,0,1,0,0,0,hexagon,triangle,,,,,,,,,,,,,,,,,,,,,,,,,,,,,,,,,,,,,,,,,,,,,,,,,,,,,,
293176,2022-09-30_10h07.59.177,vts_reward_expectancy,2022.2.4,MacIntel,60.0024001,Chrome,1470,956,,,a,11.2503,1,16,0,0,6,6,3,1,0,1,0,0,1,0,0,0,circle,triangle,,,,,,,,,,,,,,,,,,,,,,,,,,,,,,,,,,,,,,,,,,,,,,,,,,,,,,
293176,2022-09-30_10h07.59.177,vts_reward_expectancy,2022.2.4,MacIntel,60.0024001,Chrome,1470,956,,,a,8.6224,10,26,0,0,7,7,0,1,1,0,0,0,0,1,0,0,triangle,circle,,,,,,,,,,,,,,,,,,,,,,,,,,,,,,,,,,,,,,,,,,,,,,,,,,,,,,
293176,2022-09-30_10h07.59.177,vts_reward_expectancy,2022.2.4,MacIntel,60.0024001,Chrome,1470,956,,,l,3.4805,1,27,0,0,8,8,5,1,0,1,0,0,0,0,0,1,circle,star,,,,,,,,,,,,,,,,,,,,,,,,,,,,,,,,,,,,,,,,,,,,,,,,,,,,,,
293176,2022-09-30_10h07.59.177,vts_reward_expectancy,2022.2.4,MacIntel,60.0024001,Chrome,1470,956,,,a,7.3858,10,37,0,0,9,9,4,1,0,1,0,0,0,0,1,0,circle,hexagon,,,,,,,,,,,,,,,,,,,,,,,,,,,,,,,,,,,,,,,,,,,,,,,,,,,,,,
293176,2022-09-30_10h07.59.177,vts_reward_expectancy,2022.2.4,MacIntel,60.0024001,Chrome,1470,956,,,a,12.9577,10,47,0,0,10,10,2,1,1,0,0,0,0,0,0,1,triangle,star,,,,,,,,,,,,,,,,,,,,,,,,,,,,,,,,,,,,,,,,,,,,,,,,,,,,,,
293176,2022-09-30_10h07.59.177,vts_reward_expectancy,2022.2.4,MacIntel,60.0024001,Chrome,1470,956,,,l,3.1751,1,48,0,0,11,11,7,1,0,0,1,0,0,1,0,0,hexagon,circle,,,,,,,,,,,,,,,,,,,,,,,,,,,,,,,,,,,,,,,,,,,,,,,,,,,,,,
293176,2022-09-30_10h07.59.177,vts_reward_expectancy,2022.2.4,MacIntel,60.0024001,Chrome,1470,956,,,a,3.4992,10,58,0,1,0,12,0,1,1,0,0,0,0,1,0,0,triangle,circle,,,,,,,,,,,,,,,,,,,,,,,,,,,,,,,,,,,,,,,,,,,,,,,,,,,,,,
293176,2022-09-30_10h07.59.177,vts_reward_expectancy,2022.2.4,MacIntel,60.0024001,Chrome,1470,956,,,l,3.2834,1,59,0,1,1,13,10,1,0,0,0,1,0,1,0,0,star ,circle,,,,,,,,,,,,,,,,,,,,,,,,,,,,,,,,,,,,,,,,,,,,,,,,,,,,,,
293176,2022-09-30_10h07.59.177,vts_reward_expectancy,2022.2.4,MacIntel,60.0024001,Chrome,1470,956,,,a,6.0796,1,60,0,1,2,14,6,1,0,0,1,0,1,0,0,0,hexagon,triangle,,,,,,,,,,,,,,,,,,,,,,,,,,,,,,,,,,,,,,,,,,,,,,,,,,,,,,
293176,2022-09-30_10h07.59.177,vts_reward_expectancy,2022.2.4,MacIntel,60.0024001,Chrome,1470,956,,,l,2.5245,1,61,0,1,3,15,8,1,0,0,1,0,0,0,0,1,hexagon,star,,,,,,,,,,,,,,,,,,,,,,,,,,,,,,,,,,,,,,,,,,,,,,,,,,,,,,
293176,2022-09-30_10h07.59.177,vts_reward_expectancy,2022.2.4,MacIntel,60.0024001,Chrome,1470,956,,,l,4.0944,10,71,0,1,4,16,9,1,0,0,0,1,1,0,0,0,star,triangle,,,,,,,,,,,,,,,,,,,,,,,,,,,,,,,,,,,,,,,,,,,,,,,,,,,,,,
293176,2022-09-30_10h07.59.177,vts_reward_expectancy,2022.2.4,MacIntel,60.0024001,Chrome,1470,956,,,a,3.5088,1,72,0,1,5,17,5,1,0,1,0,0,0,0,0,1,circle,star,,,,,,,,,,,,,,,,,,,,,,,,,,,,,,,,,,,,,,,,,,,,,,,,,,,,,,
293176,2022-09-30_10h07.59.177,vts_reward_expectancy,2022.2.4,MacIntel,60.0024001,Chrome,1470,956,,,a,2.7646,1,73,0,1,6,18,4,1,0,1,0,0,0,0,1,0,circle,hexagon,,,,,,,,,,,,,,,,,,,,,,,,,,,,,,,,,,,,,,,,,,,,,,,,,,,,,,
293176,2022-09-30_10h07.59.177,vts_reward_expectancy,2022.2.4,MacIntel,60.0024001,Chrome,1470,956,,,a,1.3188,10,83,0,1,7,19,1,1,1,0,0,0,0,0,1,0,triangle,hexagon,,,,,,,,,,,,,,,,,,,,,,,,,,,,,,,,,,,,,,,,,,,,,,,,,,,,,,
293176,2022-09-30_10h07.59.177,vts_reward_expectancy,2022.2.4,MacIntel,60.0024001,Chrome,1470,956,,,l,1.1245,1,84,0,1,8,20,11,1,0,0,0,1,0,0,1,0,star,hexagon,,,,,,,,,,,,,,,,,,,,,,,,,,,,,,,,,,,,,,,,,,,,,,,,,,,,,,
293176,2022-09-30_10h07.59.177,vts_reward_expectancy,2022.2.4,MacIntel,60.0024001,Chrome,1470,956,,,l,3.5033,10,94,0,1,9,21,7,1,0,0,1,0,0,1,0,0,hexagon,circle,,,,,,,,,,,,,,,,,,,,,,,,,,,,,,,,,,,,,,,,,,,,,,,,,,,,,,
293176,2022-09-30_10h07.59.177,vts_reward_expectancy,2022.2.4,MacIntel,60.0024001,Chrome,1470,956,,,l,3.7547,1,95,0,1,10,22,3,1,0,1,0,0,1,0,0,0,circle,triangle,,,,,,,,,,,,,,,,,,,,,,,,,,,,,,,,,,,,,,,,,,,,,,,,,,,,,,
293176,2022-09-30_10h07.59.177,vts_reward_expectancy,2022.2.4,MacIntel,60.0024001,Chrome,1470,956,,,a,8.4553,10,105,0,1,11,23,2,1,1,0,0,0,0,0,0,1,triangle,star,,,,,,,,,,,,,,,,,,,,,,,,,,,,,,,,,,,,,,,,,,,,,,,,,,,,,,
293176,2022-09-30_10h07.59.177,vts_reward_expectancy,2022.2.4,MacIntel,60.0024001,Chrome,1470,956,,,l,3.6206,10,115,0,2,0,24,4,1,0,1,0,0,0,0,1,0,circle,hexagon,,,,,,,,,,,,,,,,,,,,,,,,,,,,,,,,,,,,,,,,,,,,,,,,,,,,,,
293176,2022-09-30_10h07.59.177,vts_reward_expectancy,2022.2.4,MacIntel,60.0024001,Chrome,1470,956,,,l,4.7357,10,125,0,2,1,25,6,1,0,0,1,0,1,0,0,0,hexagon,triangle,,,,,,,,,,,,,,,,,,,,,,,,,,,,,,,,,,,,,,,,,,,,,,,,,,,,,,
293176,2022-09-30_10h07.59.177,vts_reward_expectancy,2022.2.4,MacIntel,60.0024001,Chrome,1470,956,,,a,4.0602,1,126,0,2,2,26,7,1,0,0,1,0,0,1,0,0,hexagon,circle,,,,,,,,,,,,,,,,,,,,,,,,,,,,,,,,,,,,,,,,,,,,,,,,,,,,,,
293176,2022-09-30_10h07.59.177,vts_reward_expectancy,2022.2.4,MacIntel,60.0024001,Chrome,1470,956,,,a,2.5544,1,127,0,2,3,27,8,1,0,0,1,0,0,0,0,1,hexagon,star,,,,,,,,,,,,,,,,,,,,,,,,,,,,,,,,,,,,,,,,,,,,,,,,,,,,,,
293176,2022-09-30_10h07.59.177,vts_reward_expectancy,2022.2.4,MacIntel,60.0024001,Chrome,1470,956,,,a,2.8744,10,137,0,2,4,28,2,1,1,0,0,0,0,0,0,1,triangle,star,,,,,,,,,,,,,,,,,,,,,,,,,,,,,,,,,,,,,,,,,,,,,,,,,,,,,,
293176,2022-09-30_10h07.59.177,vts_reward_expectancy,2022.2.4,MacIntel,60.0024001,Chrome,1470,956,,,l,1.9513,10,147,0,2,5,29,9,1,0,0,0,1,1,0,0,0,star,triangle,,,,,,,,,,,,,,,,,,,,,,,,,,,,,,,,,,,,,,,,,,,,,,,,,,,,,,
293176,2022-09-30_10h07.59.177,vts_reward_expectancy,2022.2.4,MacIntel,60.0024001,Chrome,1470,956,,,a,1.6182,10,157,0,2,6,30,0,1,1,0,0,0,0,1,0,0,triangle,circle,,,,,,,,,,,,,,,,,,,,,,,,,,,,,,,,,,,,,,,,,,,,,,,,,,,,,,
293176,2022-09-30_10h07.59.177,vts_reward_expectancy,2022.2.4,MacIntel,60.0024001,Chrome,1470,956,,,l,3.7169,1,158,0,2,7,31,11,1,0,0,0,1,0,0,1,0,star,hexagon,,,,,,,,,,,,,,,,,,,,,,,,,,,,,,,,,,,,,,,,,,,,,,,,,,,,,,
293176,2022-09-30_10h07.59.177,vts_reward_expectancy,2022.2.4,MacIntel,60.0024001,Chrome,1470,956,,,l,2.2845,1,159,0,2,8,32,3,1,0,1,0,0,1,0,0,0,circle,triangle,,,,,,,,,,,,,,,,,,,,,,,,,,,,,,,,,,,,,,,,,,,,,,,,,,,,,,
293176,2022-09-30_10h07.59.177,vts_reward_expectancy,2022.2.4,MacIntel,60.0024001,Chrome,1470,956,,,l,3.7231,10,169,0,2,9,33,10,1,0,0,0,1,0,1,0,0,star ,circle,,,,,,,,,,,,,,,,,,,,,,,,,,,,,,,,,,,,,,,,,,,,,,,,,,,,,,
293176,2022-09-30_10h07.59.177,vts_reward_expectancy,2022.2.4,MacIntel,60.0024001,Chrome,1470,956,,,a,1.6379,10,179,0,2,10,34,1,1,1,0,0,0,0,0,1,0,triangle,hexagon,,,,,,,,,,,,,,,,,,,,,,,,,,,,,,,,,,,,,,,,,,,,,,,,,,,,,,
293176,2022-09-30_10h07.59.177,vts_reward_expectancy,2022.2.4,MacIntel,60.0024001,Chrome,1470,956,,,a,3.4313,10,189,0,2,11,35,5,1,0,1,0,0,0,0,0,1,circle,star,,,,,,,,,,,,,,,,,,,,,,,,,,,,,,,,,,,,,,,,,,,,,,,,,,,,,,
293176,2022-09-30_10h07.59.177,vts_reward_expectancy,2022.2.4,MacIntel,60.0024001,Chrome,1470,956,,,l,9.1358,10,199,1,0,0,0,6,1,0,0,1,0,1,0,0,0,hexagon,triangle,,,,,,,,,,,,,,,,,,,,,,,,,,,,,,,,,,,,,,,,,,,,,,,,,,,,,,
293176,2022-09-30_10h07.59.177,vts_reward_expectancy,2022.2.4,MacIntel,60.0024001,Chrome,1470,956,,,a,15.3766,10,209,1,0,1,1,1,1,1,0,0,0,0,0,1,0,triangle,hexagon,,,,,,,,,,,,,,,,,,,,,,,,,,,,,,,,,,,,,,,,,,,,,,,,,,,,,,
293176,2022-09-30_10h07.59.177,vts_reward_expectancy,2022.2.4,MacIntel,60.0024001,Chrome,1470,956,,,a,15.4509,10,219,1,0,2,2,0,1,1,0,0,0,0,1,0,0,triangle,circle,,,,,,,,,,,,,,,,,,,,,,,,,,,,,,,,,,,,,,,,,,,,,,,,,,,,,,
293176,2022-09-30_10h07.59.177,vts_reward_expectancy,2022.2.4,MacIntel,60.0024001,Chrome,1470,956,,,a,8.8041,10,229,1,0,3,3,5,1,0,1,0,0,0,0,0,1,circle,star,,,,,,,,,,,,,,,,,,,,,,,,,,,,,,,,,,,,,,,,,,,,,,,,,,,,,,
293176,2022-09-30_10h07.59.177,vts_reward_expectancy,2022.2.4,MacIntel,60.0024001,Chrome,1470,956,,,l,10.5453,10,239,1,0,4,4,3,1,0,1,0,0,1,0,0,0,circle,triangle,,,,,,,,,,,,,,,,,,,,,,,,,,,,,,,,,,,,,,,,,,,,,,,,,,,,,,
293176,2022-09-30_10h07.59.177,vts_reward_expectancy,2022.2.4,MacIntel,60.0024001,Chrome,1470,956,,,a,16.9741,1,240,1,0,5,5,8,1,0,0,1,0,0,0,0,1,hexagon,star,,,,,,,,,,,,,,,,,,,,,,,,,,,,,,,,,,,,,,,,,,,,,,,,,,,,,,
293176,2022-09-30_10h07.59.177,vts_reward_expectancy,2022.2.4,MacIntel,60.0024001,Chrome,1470,956,,,a,19.9605,1,241,1,0,6,6,4,1,0,1,0,0,0,0,1,0,circle,hexagon,,,,,,,,,,,,,,,,,,,,,,,,,,,,,,,,,,,,,,,,,,,,,,,,,,,,,,
293176,2022-09-30_10h07.59.177,vts_reward_expectancy,2022.2.4,MacIntel,60.0024001,Chrome,1470,956,,,a,10.2179,10,251,1,0,7,7,2,1,1,0,0,0,0,0,0,1,triangle,star,,,,,,,,,,,,,,,,,,,,,,,,,,,,,,,,,,,,,,,,,,,,,,,,,,,,,,
293176,2022-09-30_10h07.59.177,vts_reward_expectancy,2022.2.4,MacIntel,60.0024001,Chrome,1470,956,,,l,9.8839,10,261,1,0,8,8,11,1,0,0,0,1,0,0,1,0,star,hexagon,,,,,,,,,,,,,,,,,,,,,,,,,,,,,,,,,,,,,,,,,,,,,,,,,,,,,,
293176,2022-09-30_10h07.59.177,vts_reward_expectancy,2022.2.4,MacIntel,60.0024001,Chrome,1470,956,,,l,7.6219,10,271,1,0,9,9,9,1,0,0,0,1,1,0,0,0,star,triangle,,,,,,,,,,,,,,,,,,,,,,,,,,,,,,,,,,,,,,,,,,,,,,,,,,,,,,
293176,2022-09-30_10h07.59.177,vts_reward_expectancy,2022.2.4,MacIntel,60.0024001,Chrome,1470,956,,,l,13.2033,10,281,1,0,10,10,7,1,0,0,1,0,0,1,0,0,hexagon,circle,,,,,,,,,,,,,,,,,,,,,,,,,,,,,,,,,,,,,,,,,,,,,,,,,,,,,,
293176,2022-09-30_10h07.59.177,vts_reward_expectancy,2022.2.4,MacIntel,60.0024001,Chrome,1470,956,,,l,11.5599,1,282,1,0,11,11,10,1,0,0,0,1,0,1,0,0,star ,circle,,,,,,,,,,,,,,,,,,,,,,,,,,,,,,,,,,,,,,,,,,,,,,,,,,,,,,
293176,2022-09-30_10h07.59.177,vts_reward_expectancy,2022.2.4,MacIntel,60.0024001,Chrome,1470,956,,,l,5.7714,1,283,1,1,0,12,3,1,0,1,0,0,1,0,0,0,circle,triangle,,,,,,,,,,,,,,,,,,,,,,,,,,,,,,,,,,,,,,,,,,,,,,,,,,,,,,
293176,2022-09-30_10h07.59.177,vts_reward_expectancy,2022.2.4,MacIntel,60.0024001,Chrome,1470,956,,,a,4.7557,1,284,1,1,1,13,5,1,0,1,0,0,0,0,0,1,circle,star,,,,,,,,,,,,,,,,,,,,,,,,,,,,,,,,,,,,,,,,,,,,,,,,,,,,,,
293176,2022-09-30_10h07.59.177,vts_reward_expectancy,2022.2.4,MacIntel,60.0024001,Chrome,1470,956,,,l,5.8349,1,285,1,1,2,14,2,1,1,0,0,0,0,0,0,1,triangle,star,,,,,,,,,,,,,,,,,,,,,,,,,,,,,,,,,,,,,,,,,,,,,,,,,,,,,,
293176,2022-09-30_10h07.59.177,vts_reward_expectancy,2022.2.4,MacIntel,60.0024001,Chrome,1470,956,,,l,3.872,10,295,1,1,3,15,6,1,0,0,1,0,1,0,0,0,hexagon,triangle,,,,,,,,,,,,,,,,,,,,,,,,,,,,,,,,,,,,,,,,,,,,,,,,,,,,,,
293176,2022-09-30_10h07.59.177,vts_reward_expectancy,2022.2.4,MacIntel,60.0024001,Chrome,1470,956,,,l,4.3728,1,296,1,1,4,16,11,1,0,0,0,1,0,0,1,0,star,hexagon,,,,,,,,,,,,,,,,,,,,,,,,,,,,,,,,,,,,,,,,,,,,,,,,,,,,,,
293176,2022-09-30_10h07.59.177,vts_reward_expectancy,2022.2.4,MacIntel,60.0024001,Chrome,1470,956,,,l,3.3587,1,297,1,1,5,17,4,1,0,1,0,0,0,0,1,0,circle,hexagon,,,,,,,,,,,,,,,,,,,,,,,,,,,,,,,,,,,,,,,,,,,,,,,,,,,,,,
293176,2022-09-30_10h07.59.177,vts_reward_expectancy,2022.2.4,MacIntel,60.0024001,Chrome,1470,956,,,l,8.2833,10,307,1,1,6,18,7,1,0,0,1,0,0,1,0,0,hexagon,circle,,,,,,,,,,,,,,,,,,,,,,,,,,,,,,,,,,,,,,,,,,,,,,,,,,,,,,
293176,2022-09-30_10h07.59.177,vts_reward_expectancy,2022.2.4,MacIntel,60.0024001,Chrome,1470,956,,,a,3.1944,10,317,1,1,7,19,0,1,1,0,0,0,0,1,0,0,triangle,circle,,,,,,,,,,,,,,,,,,,,,,,,,,,,,,,,,,,,,,,,,,,,,,,,,,,,,,
293176,2022-09-30_10h07.59.177,vts_reward_expectancy,2022.2.4,MacIntel,60.0024001,Chrome,1470,956,,,l,4.8033,10,327,1,1,8,20,9,1,0,0,0,1,1,0,0,0,star,triangle,,,,,,,,,,,,,,,,,,,,,,,,,,,,,,,,,,,,,,,,,,,,,,,,,,,,,,
293176,2022-09-30_10h07.59.177,vts_reward_expectancy,2022.2.4,MacIntel,60.0024001,Chrome,1470,956,,,l,7.1005,1,328,1,1,9,21,8,1,0,0,1,0,0,0,0,1,hexagon,star,,,,,,,,,,,,,,,,,,,,,,,,,,,,,,,,,,,,,,,,,,,,,,,,,,,,,,
293176,2022-09-30_10h07.59.177,vts_reward_expectancy,2022.2.4,MacIntel,60.0024001,Chrome,1470,956,,,a,5.4173,1,329,1,1,10,22,10,1,0,0,0,1,0,1,0,0,star ,circle,,,,,,,,,,,,,,,,,,,,,,,,,,,,,,,,,,,,,,,,,,,,,,,,,,,,,,
293176,2022-09-30_10h07.59.177,vts_reward_expectancy,2022.2.4,MacIntel,60.0024001,Chrome,1470,956,,,a,6.985,10,339,1,1,11,23,1,1,1,0,0,0,0,0,1,0,triangle,hexagon,,,,,,,,,,,,,,,,,,,,,,,,,,,,,,,,,,,,,,,,,,,,,,,,,,,,,,
293176,2022-09-30_10h07.59.177,vts_reward_expectancy,2022.2.4,MacIntel,60.0024001,Chrome,1470,956,,,l,4.9839,10,349,1,2,0,24,10,1,0,0,0,1,0,1,0,0,star ,circle,,,,,,,,,,,,,,,,,,,,,,,,,,,,,,,,,,,,,,,,,,,,,,,,,,,,,,
293176,2022-09-30_10h07.59.177,vts_reward_expectancy,2022.2.4,MacIntel,60.0024001,Chrome,1470,956,,,l,7.4005,10,359,1,2,1,25,7,1,0,0,1,0,0,1,0,0,hexagon,circle,,,,,,,,,,,,,,,,,,,,,,,,,,,,,,,,,,,,,,,,,,,,,,,,,,,,,,
293176,2022-09-30_10h07.59.177,vts_reward_expectancy,2022.2.4,MacIntel,60.0024001,Chrome,1470,956,,,a,6.0359,10,369,1,2,2,26,11,1,0,0,0,1,0,0,1,0,star,hexagon,,,,,,,,,,,,,,,,,,,,,,,,,,,,,,,,,,,,,,,,,,,,,,,,,,,,,,
293176,2022-09-30_10h07.59.177,vts_reward_expectancy,2022.2.4,MacIntel,60.0024001,Chrome,1470,956,,,l,4.1009,10,379,1,2,3,27,5,1,0,1,0,0,0,0,0,1,circle,star,,,,,,,,,,,,,,,,,,,,,,,,,,,,,,,,,,,,,,,,,,,,,,,,,,,,,,
293176,2022-09-30_10h07.59.177,vts_reward_expectancy,2022.2.4,MacIntel,60.0024001,Chrome,1470,956,,,a,3.7197,1,380,1,2,4,28,9,1,0,0,0,1,1,0,0,0,star,triangle,,,,,,,,,,,,,,,,,,,,,,,,,,,,,,,,,,,,,,,,,,,,,,,,,,,,,,
293176,2022-09-30_10h07.59.177,vts_reward_expectancy,2022.2.4,MacIntel,60.0024001,Chrome,1470,956,,,a,4.8861,10,390,1,2,5,29,1,1,1,0,0,0,0,0,1,0,triangle,hexagon,,,,,,,,,,,,,,,,,,,,,,,,,,,,,,,,,,,,,,,,,,,,,,,,,,,,,,
293176,2022-09-30_10h07.59.177,vts_reward_expectancy,2022.2.4,MacIntel,60.0024001,Chrome,1470,956,,,a,4.1325,1,391,1,2,6,30,0,1,1,0,0,0,0,1,0,0,triangle,circle,,,,,,,,,,,,,,,,,,,,,,,,,,,,,,,,,,,,,,,,,,,,,,,,,,,,,,
293176,2022-09-30_10h07.59.177,vts_reward_expectancy,2022.2.4,MacIntel,60.0024001,Chrome,1470,956,,,a,5.5164,1,392,1,2,7,31,2,1,1,0,0,0,0,0,0,1,triangle,star,,,,,,,,,,,,,,,,,,,,,,,,,,,,,,,,,,,,,,,,,,,,,,,,,,,,,,
293176,2022-09-30_10h07.59.177,vts_reward_expectancy,2022.2.4,MacIntel,60.0024001,Chrome,1470,956,,,l,3.5482,1,393,1,2,8,32,8,1,0,0,1,0,0,0,0,1,hexagon,star,,,,,,,,,,,,,,,,,,,,,,,,,,,,,,,,,,,,,,,,,,,,,,,,,,,,,,
293176,2022-09-30_10h07.59.177,vts_reward_expectancy,2022.2.4,MacIntel,60.0024001,Chrome,1470,956,,,l,4.5214,1,394,1,2,9,33,4,1,0,1,0,0,0,0,1,0,circle,hexagon,,,,,,,,,,,,,,,,,,,,,,,,,,,,,,,,,,,,,,,,,,,,,,,,,,,,,,
293176,2022-09-30_10h07.59.177,vts_reward_expectancy,2022.2.4,MacIntel,60.0024001,Chrome,1470,956,,,l,3.7406,10,404,1,2,10,34,3,1,0,1,0,0,1,0,0,0,circle,triangle,,,,,,,,,,,,,,,,,,,,,,,,,,,,,,,,,,,,,,,,,,,,,,,,,,,,,,
293176,2022-09-30_10h07.59.177,vts_reward_expectancy,2022.2.4,MacIntel,60.0024001,Chrome,1470,956,,,l,2.6059,10,414,1,2,11,35,6,1,0,0,1,0,1,0,0,0,hexagon,triangle,,,,,,,,,,,,,,,,,,,,,,,,,,,,,,,,,,,,,,,,,,,,,,,,,,,,,,
293176,2022-09-30_10h07.59.177,vts_reward_expectancy,2022.2.4,MacIntel,60.0024001,Chrome,1470,956,,,a,1.2996,10,424,2,0,0,0,2,1,1,0,0,0,0,0,0,1,triangle,star,,,,,,,,,,,,,,,,,,,,,,,,,,,,,,,,,,,,,,,,,,,,,,,,,,,,,,
293176,2022-09-30_10h07.59.177,vts_reward_expectancy,2022.2.4,MacIntel,60.0024001,Chrome,1470,956,,,l,10.0683,1,425,2,0,1,1,11,1,0,0,0,1,0,0,1,0,star,hexagon,,,,,,,,,,,,,,,,,,,,,,,,,,,,,,,,,,,,,,,,,,,,,,,,,,,,,,
293176,2022-09-30_10h07.59.177,vts_reward_expectancy,2022.2.4,MacIntel,60.0024001,Chrome,1470,956,,,l,8.9922,10,435,2,0,2,2,7,1,0,0,1,0,0,1,0,0,hexagon,circle,,,,,,,,,,,,,,,,,,,,,,,,,,,,,,,,,,,,,,,,,,,,,,,,,,,,,,
293176,2022-09-30_10h07.59.177,vts_reward_expectancy,2022.2.4,MacIntel,60.0024001,Chrome,1470,956,,,a,5.2729,1,436,2,0,3,3,0,1,1,0,0,0,0,1,0,0,triangle,circle,,,,,,,,,,,,,,,,,,,,,,,,,,,,,,,,,,,,,,,,,,,,,,,,,,,,,,
293176,2022-09-30_10h07.59.177,vts_reward_expectancy,2022.2.4,MacIntel,60.0024001,Chrome,1470,956,,,a,1.883,1,437,2,0,4,4,3,1,0,1,0,0,1,0,0,0,circle,triangle,,,,,,,,,,,,,,,,,,,,,,,,,,,,,,,,,,,,,,,,,,,,,,,,,,,,,,
293176,2022-09-30_10h07.59.177,vts_reward_expectancy,2022.2.4,MacIntel,60.0024001,Chrome,1470,956,,,l,10.3494,1,438,2,0,5,5,4,1,0,1,0,0,0,0,1,0,circle,hexagon,,,,,,,,,,,,,,,,,,,,,,,,,,,,,,,,,,,,,,,,,,,,,,,,,,,,,,
293176,2022-09-30_10h07.59.177,vts_reward_expectancy,2022.2.4,MacIntel,60.0024001,Chrome,1470,956,,,l,3.29,10,448,2,0,6,6,6,1,0,0,1,0,1,0,0,0,hexagon,triangle,,,,,,,,,,,,,,,,,,,,,,,,,,,,,,,,,,,,,,,,,,,,,,,,,,,,,,
293176,2022-09-30_10h07.59.177,vts_reward_expectancy,2022.2.4,MacIntel,60.0024001,Chrome,1470,956,,,l,4.8675,1,449,2,0,7,7,10,1,0,0,0,1,0,1,0,0,star ,circle,,,,,,,,,,,,,,,,,,,,,,,,,,,,,,,,,,,,,,,,,,,,,,,,,,,,,,
293176,2022-09-30_10h07.59.177,vts_reward_expectancy,2022.2.4,MacIntel,60.0024001,Chrome,1470,956,,,l,5.1753,1,450,2,0,8,8,9,1,0,0,0,1,1,0,0,0,star,triangle,,,,,,,,,,,,,,,,,,,,,,,,,,,,,,,,,,,,,,,,,,,,,,,,,,,,,,
293176,2022-09-30_10h07.59.177,vts_reward_expectancy,2022.2.4,MacIntel,60.0024001,Chrome,1470,956,,,a,1.9549,10,460,2,0,9,9,5,1,0,1,0,0,0,0,0,1,circle,star,,,,,,,,,,,,,,,,,,,,,,,,,,,,,,,,,,,,,,,,,,,,,,,,,,,,,,
293176,2022-09-30_10h07.59.177,vts_reward_expectancy,2022.2.4,MacIntel,60.0024001,Chrome,1470,956,,,l,4.6355,1,461,2,0,10,10,8,1,0,0,1,0,0,0,0,1,hexagon,star,,,,,,,,,,,,,,,,,,,,,,,,,,,,,,,,,,,,,,,,,,,,,,,,,,,,,,
293176,2022-09-30_10h07.59.177,vts_reward_expectancy,2022.2.4,MacIntel,60.0024001,Chrome,1470,956,,,a,1.4783,10,471,2,0,11,11,1,1,1,0,0,0,0,0,1,0,triangle,hexagon,,,,,,,,,,,,,,,,,,,,,,,,,,,,,,,,,,,,,,,,,,,,,,,,,,,,,,
293176,2022-09-30_10h07.59.177,vts_reward_expectancy,2022.2.4,MacIntel,60.0024001,Chrome,1470,956,,,l,1.432,1,472,2,1,0,12,10,1,0,0,0,1,0,1,0,0,star ,circle,,,,,,,,,,,,,,,,,,,,,,,,,,,,,,,,,,,,,,,,,,,,,,,,,,,,,,
293176,2022-09-30_10h07.59.177,vts_reward_expectancy,2022.2.4,MacIntel,60.0024001,Chrome,1470,956,,,l,1.5747,1,473,2,1,1,13,7,1,0,0,1,0,0,1,0,0,hexagon,circle,,,,,,,,,,,,,,,,,,,,,,,,,,,,,,,,,,,,,,,,,,,,,,,,,,,,,,
293176,2022-09-30_10h07.59.177,vts_reward_expectancy,2022.2.4,MacIntel,60.0024001,Chrome,1470,956,,,l,0.8918,10,483,2,1,2,14,8,1,0,0,1,0,0,0,0,1,hexagon,star,,,,,,,,,,,,,,,,,,,,,,,,,,,,,,,,,,,,,,,,,,,,,,,,,,,,,,
293176,2022-09-30_10h07.59.177,vts_reward_expectancy,2022.2.4,MacIntel,60.0024001,Chrome,1470,956,,,a,1.6009,1,484,2,1,3,15,2,1,1,0,0,0,0,0,0,1,triangle,star,,,,,,,,,,,,,,,,,,,,,,,,,,,,,,,,,,,,,,,,,,,,,,,,,,,,,,
293176,2022-09-30_10h07.59.177,vts_reward_expectancy,2022.2.4,MacIntel,60.0024001,Chrome,1470,956,,,a,0.691,10,494,2,1,4,16,11,1,0,0,0,1,0,0,1,0,star,hexagon,,,,,,,,,,,,,,,,,,,,,,,,,,,,,,,,,,,,,,,,,,,,,,,,,,,,,,
293176,2022-09-30_10h07.59.177,vts_reward_expectancy,2022.2.4,MacIntel,60.0024001,Chrome,1470,956,,,l,2.0494,10,504,2,1,5,17,3,1,0,1,0,0,1,0,0,0,circle,triangle,,,,,,,,,,,,,,,,,,,,,,,,,,,,,,,,,,,,,,,,,,,,,,,,,,,,,,
293176,2022-09-30_10h07.59.177,vts_reward_expectancy,2022.2.4,MacIntel,60.0024001,Chrome,1470,956,,,a,0.8218,1,505,2,1,6,18,9,1,0,0,0,1,1,0,0,0,star,triangle,,,,,,,,,,,,,,,,,,,,,,,,,,,,,,,,,,,,,,,,,,,,,,,,,,,,,,
293176,2022-09-30_10h07.59.177,vts_reward_expectancy,2022.2.4,MacIntel,60.0024001,Chrome,1470,956,,,a,1.8731,10,515,2,1,7,19,1,1,1,0,0,0,0,0,1,0,triangle,hexagon,,,,,,,,,,,,,,,,,,,,,,,,,,,,,,,,,,,,,,,,,,,,,,,,,,,,,,
293176,2022-09-30_10h07.59.177,vts_reward_expectancy,2022.2.4,MacIntel,60.0024001,Chrome,1470,956,,,l,1.8178,1,516,2,1,8,20,4,1,0,1,0,0,0,0,1,0,circle,hexagon,,,,,,,,,,,,,,,,,,,,,,,,,,,,,,,,,,,,,,,,,,,,,,,,,,,,,,
293176,2022-09-30_10h07.59.177,vts_reward_expectancy,2022.2.4,MacIntel,60.0024001,Chrome,1470,956,,,l,1.2863,1,517,2,1,9,21,5,1,0,1,0,0,0,0,0,1,circle,star,,,,,,,,,,,,,,,,,,,,,,,,,,,,,,,,,,,,,,,,,,,,,,,,,,,,,,
293176,2022-09-30_10h07.59.177,vts_reward_expectancy,2022.2.4,MacIntel,60.0024001,Chrome,1470,956,,,l,0.8159,10,527,2,1,10,22,0,1,1,0,0,0,0,1,0,0,triangle,circle,,,,,,,,,,,,,,,,,,,,,,,,,,,,,,,,,,,,,,,,,,,,,,,,,,,,,,
293176,2022-09-30_10h07.59.177,vts_reward_expectancy,2022.2.4,MacIntel,60.0024001,Chrome,1470,956,,,l,1.0998,10,537,2,1,11,23,6,1,0,0,1,0,1,0,0,0,hexagon,triangle,,,,,,,,,,,,,,,,,,,,,,,,,,,,,,,,,,,,,,,,,,,,,,,,,,,,,,
293176,2022-09-30_10h07.59.177,vts_reward_expectancy,2022.2.4,MacIntel,60.0024001,Chrome,1470,956,,,a,1.4755,1,538,2,2,0,24,9,1,0,0,0,1,1,0,0,0,star,triangle,,,,,,,,,,,,,,,,,,,,,,,,,,,,,,,,,,,,,,,,,,,,,,,,,,,,,,
293176,2022-09-30_10h07.59.177,vts_reward_expectancy,2022.2.4,MacIntel,60.0024001,Chrome,1470,956,,,a,1.3413,10,548,2,2,1,25,1,1,1,0,0,0,0,0,1,0,triangle,hexagon,,,,,,,,,,,,,,,,,,,,,,,,,,,,,,,,,,,,,,,,,,,,,,,,,,,,,,
293176,2022-09-30_10h07.59.177,vts_reward_expectancy,2022.2.4,MacIntel,60.0024001,Chrome,1470,956,,,l,0.7408,1,549,2,2,2,26,6,1,0,0,1,0,1,0,0,0,hexagon,triangle,,,,,,,,,,,,,,,,,,,,,,,,,,,,,,,,,,,,,,,,,,,,,,,,,,,,,,
293176,2022-09-30_10h07.59.177,vts_reward_expectancy,2022.2.4,MacIntel,60.0024001,Chrome,1470,956,,,l,2.457,10,559,2,2,3,27,3,1,0,1,0,0,1,0,0,0,circle,triangle,,,,,,,,,,,,,,,,,,,,,,,,,,,,,,,,,,,,,,,,,,,,,,,,,,,,,,
293176,2022-09-30_10h07.59.177,vts_reward_expectancy,2022.2.4,MacIntel,60.0024001,Chrome,1470,956,,,l,1.1322,1,560,2,2,4,28,4,1,0,1,0,0,0,0,1,0,circle,hexagon,,,,,,,,,,,,,,,,,,,,,,,,,,,,,,,,,,,,,,,,,,,,,,,,,,,,,,
293176,2022-09-30_10h07.59.177,vts_reward_expectancy,2022.2.4,MacIntel,60.0024001,Chrome,1470,956,,,a,1.5851,1,561,2,2,5,29,8,1,0,0,1,0,0,0,0,1,hexagon,star,,,,,,,,,,,,,,,,,,,,,,,,,,,,,,,,,,,,,,,,,,,,,,,,,,,,,,
293176,2022-09-30_10h07.59.177,vts_reward_expectancy,2022.2.4,MacIntel,60.0024001,Chrome,1470,956,,,a,1.1432,1,562,2,2,6,30,10,1,0,0,0,1,0,1,0,0,star ,circle,,,,,,,,,,,,,,,,,,,,,,,,,,,,,,,,,,,,,,,,,,,,,,,,,,,,,,
293176,2022-09-30_10h07.59.177,vts_reward_expectancy,2022.2.4,MacIntel,60.0024001,Chrome,1470,956,,,l,1.9026,10,572,2,2,7,31,7,1,0,0,1,0,0,1,0,0,hexagon,circle,,,,,,,,,,,,,,,,,,,,,,,,,,,,,,,,,,,,,,,,,,,,,,,,,,,,,,
293176,2022-09-30_10h07.59.177,vts_reward_expectancy,2022.2.4,MacIntel,60.0024001,Chrome,1470,956,,,a,1.6055,10,582,2,2,8,32,11,1,0,0,0,1,0,0,1,0,star,hexagon,,,,,,,,,,,,,,,,,,,,,,,,,,,,,,,,,,,,,,,,,,,,,,,,,,,,,,
293176,2022-09-30_10h07.59.177,vts_reward_expectancy,2022.2.4,MacIntel,60.0024001,Chrome,1470,956,,,l,1.9583,10,592,2,2,9,33,2,1,1,0,0,0,0,0,0,1,triangle,star,,,,,,,,,,,,,,,,,,,,,,,,,,,,,,,,,,,,,,,,,,,,,,,,,,,,,,
293176,2022-09-30_10h07.59.177,vts_reward_expectancy,2022.2.4,MacIntel,60.0024001,Chrome,1470,956,,,a,1.7665,10,602,2,2,10,34,5,1,0,1,0,0,0,0,0,1,circle,star,,,,,,,,,,,,,,,,,,,,,,,,,,,,,,,,,,,,,,,,,,,,,,,,,,,,,,
293176,2022-09-30_10h07.59.177,vts_reward_expectancy,2022.2.4,MacIntel,60.0024001,Chrome,1470,956,,,l,1.1227,1,603,2,2,11,35,0,1,1,0,0,0,0,1,0,0,triangle,circle,,,,,,,,,,,,,,,,,,,,,,,,,,,,,,,,,,,,,,,,,,,,,,,,,,,,,,
293176,2022-09-30_10h07.59.177,vts_reward_expectancy,2022.2.4,MacIntel,60.0024001,Chrome,1470,956,,,,,,,,,,,,,,,,,,,,,,,167,Y,hexagon,1,0,f,2.3132,0,0,0,0,0,1,,,,,,,,,,,,,,,,,,,,,,,,,,,,,,,,,,,,,,,,,
293176,2022-09-30_10h07.59.177,vts_reward_expectancy,2022.2.4,MacIntel,60.0024001,Chrome,1470,956,,,,,,,,,,,,,,,,,,,,,,,139,D,triangle,1,0,d,0.6224,0,1,0,1,0,1,,,,,,,,,,,,,,,,,,,,,,,,,,,,,,,,,,,,,,,,,
293176,2022-09-30_10h07.59.177,vts_reward_expectancy,2022.2.4,MacIntel,60.0024001,Chrome,1470,956,,,,,,,,,,,,,,,,,,,,,,,132,F,circle,1,0,d,0.6394,0,2,0,2,0,1,,,,,,,,,,,,,,,,,,,,,,,,,,,,,,,,,,,,,,,,,
293176,2022-09-30_10h07.59.177,vts_reward_expectancy,2022.2.4,MacIntel,60.0024001,Chrome,1470,956,,,,,,,,,,,,,,,,,,,,,,,146,U,star,1,0,d,1.7328,0,3,0,3,0,1,,,,,,,,,,,,,,,,,,,,,,,,,,,,,,,,,,,,,,,,,
293176,2022-09-30_10h07.59.177,vts_reward_expectancy,2022.2.4,MacIntel,60.0024001,Chrome,1470,956,,,,,,,,,,,,,,,,,,,,,,,174,W,hexagon,1,0,f,0.5318,0,4,0,4,0,1,,,,,,,,,,,,,,,,,,,,,,,,,,,,,,,,,,,,,,,,,
293176,2022-09-30_10h07.59.177,vts_reward_expectancy,2022.2.4,MacIntel,60.0024001,Chrome,1470,956,,,,,,,,,,,,,,,,,,,,,,,181,H,triangle,1,0,f,0.6453,0,5,0,5,0,1,,,,,,,,,,,,,,,,,,,,,,,,,,,,,,,,,,,,,,,,,
293176,2022-09-30_10h07.59.177,vts_reward_expectancy,2022.2.4,MacIntel,60.0024001,Chrome,1470,956,,,,,,,,,,,,,,,,,,,,,,,125,S,circle,1,0,d,0.831,0,6,0,6,0,1,,,,,,,,,,,,,,,,,,,,,,,,,,,,,,,,,,,,,,,,,
293176,2022-09-30_10h07.59.177,vts_reward_expectancy,2022.2.4,MacIntel,60.0024001,Chrome,1470,956,,,,,,,,,,,,,,,,,,,,,,,160,B,star,1,0,f,0.7857,0,7,0,7,0,1,,,,,,,,,,,,,,,,,,,,,,,,,,,,,,,,,,,,,,,,,
293176,2022-09-30_10h07.59.177,vts_reward_expectancy,2022.2.4,MacIntel,60.0024001,Chrome,1470,956,,,,,,,,,,,,,,,,,,,,,,,167,Y,hexagon,1,0,f,0.6627,0,8,0,8,0,1,,,,,,,,,,,,,,,,,,,,,,,,,,,,,,,,,,,,,,,,,
293176,2022-09-30_10h07.59.177,vts_reward_expectancy,2022.2.4,MacIntel,60.0024001,Chrome,1470,956,,,,,,,,,,,,,,,,,,,,,,,139,D,triangle,1,0,d,0.6058,0,9,0,9,0,1,,,,,,,,,,,,,,,,,,,,,,,,,,,,,,,,,,,,,,,,,
293176,2022-09-30_10h07.59.177,vts_reward_expectancy,2022.2.4,MacIntel,60.0024001,Chrome,1470,956,,,,,,,,,,,,,,,,,,,,,,,174,B,circle,2,0,,,1,,,,,,d,0.6884,0,0,0,0,1,,,,,,,,,,,,,,,,,,,,,,,,,,,,,,,,,,
293176,2022-09-30_10h07.59.177,vts_reward_expectancy,2022.2.4,MacIntel,60.0024001,Chrome,1470,956,,,,,,,,,,,,,,,,,,,,,,,139,S,hexagon,0,0,,,1,,,,,,,,1,0,1,0,1,,,,,,,,,,,,,,,,,,,,,,,,,,,,,,,,,,
293176,2022-09-30_10h07.59.177,vts_reward_expectancy,2022.2.4,MacIntel,60.0024001,Chrome,1470,956,,,,,,,,,,,,,,,,,,,,,,,125,W,star,2,1,,,1,,,,,,f,1.6487,2,0,2,0,1,,,,,,,,,,,,,,,,,,,,,,,,,,,,,,,,,,
293176,2022-09-30_10h07.59.177,vts_reward_expectancy,2022.2.4,MacIntel,60.0024001,Chrome,1470,956,,,,,,,,,,,,,,,,,,,,,,,146,H,triangle,2,0,,,1,,,,,,f,2.2382,3,0,3,0,1,,,,,,,,,,,,,,,,,,,,,,,,,,,,,,,,,,
293176,2022-09-30_10h07.59.177,vts_reward_expectancy,2022.2.4,MacIntel,60.0024001,Chrome,1470,956,,,,,,,,,,,,,,,,,,,,,,,181,D,circle,2,0,,,1,,,,,,d,1.3315,4,0,4,0,1,,,,,,,,,,,,,,,,,,,,,,,,,,,,,,,,,,
293176,2022-09-30_10h07.59.177,vts_reward_expectancy,2022.2.4,MacIntel,60.0024001,Chrome,1470,956,,,,,,,,,,,,,,,,,,,,,,,160,Y,hexagon,2,0,,,1,,,,,,d,0.6613,5,0,5,0,1,,,,,,,,,,,,,,,,,,,,,,,,,,,,,,,,,,
293176,2022-09-30_10h07.59.177,vts_reward_expectancy,2022.2.4,MacIntel,60.0024001,Chrome,1470,956,,,,,,,,,,,,,,,,,,,,,,,167,F,star,2,0,,,1,,,,,,d,1.2119,6,0,6,0,1,,,,,,,,,,,,,,,,,,,,,,,,,,,,,,,,,,
293176,2022-09-30_10h07.59.177,vts_reward_expectancy,2022.2.4,MacIntel,60.0024001,Chrome,1470,956,,,,,,,,,,,,,,,,,,,,,,,132,U,triangle,2,0,,,1,,,,,,d,0.6472,7,0,7,0,1,,,,,,,,,,,,,,,,,,,,,,,,,,,,,,,,,,
293176,2022-09-30_10h07.59.177,vts_reward_expectancy,2022.2.4,MacIntel,60.0024001,Chrome,1470,956,,,,,,,,,,,,,,,,,,,,,,,174,B,circle,2,0,,,1,,,,,,d,0.7873,8,0,8,0,1,,,,,,,,,,,,,,,,,,,,,,,,,,,,,,,,,,
293176,2022-09-30_10h07.59.177,vts_reward_expectancy,2022.2.4,MacIntel,60.0024001,Chrome,1470,956,,,,,,,,,,,,,,,,,,,,,,,139,S,triangle,2,0,,,1,,,,,,f,0.6649,9,0,9,0,1,,,,,,,,,,,,,,,,,,,,,,,,,,,,,,,,,,
293176,2022-09-30_10h07.59.177,vts_reward_expectancy,2022.2.4,MacIntel,60.0024001,Chrome,1470,956,,,,,,,,,,,,,,,,,,,,,,,139,S,triangle,1,0,,,2,,,,,,k,1.2343,0,0,0,0,1,,,,,,,,,,,,,,,,,,,,,,,,,,,,,,,,,,
293176,2022-09-30_10h07.59.177,vts_reward_expectancy,2022.2.4,MacIntel,60.0024001,Chrome,1470,956,,,,,,,,,,,,,,,,,,,,,,,174,B,star,1,0,,,2,,,,,,j,0.7215,1,0,1,0,1,,,,,,,,,,,,,,,,,,,,,,,,,,,,,,,,,,
293176,2022-09-30_10h07.59.177,vts_reward_expectancy,2022.2.4,MacIntel,60.0024001,Chrome,1470,956,,,,,,,,,,,,,,,,,,,,,,,160,Y,hexagon,1,0,,,2,,,,,,k,0.717,2,0,2,0,1,,,,,,,,,,,,,,,,,,,,,,,,,,,,,,,,,,
293176,2022-09-30_10h07.59.177,vts_reward_expectancy,2022.2.4,MacIntel,60.0024001,Chrome,1470,956,,,,,,,,,,,,,,,,,,,,,,,167,F,circle,1,0,,,2,,,,,,j,0.8977,3,0,3,0,1,,,,,,,,,,,,,,,,,,,,,,,,,,,,,,,,,,
293176,2022-09-30_10h07.59.177,vts_reward_expectancy,2022.2.4,MacIntel,60.0024001,Chrome,1470,956,,,,,,,,,,,,,,,,,,,,,,,146,H,triangle,1,0,,,2,,,,,,j,0.9355,4,0,4,0,1,,,,,,,,,,,,,,,,,,,,,,,,,,,,,,,,,,
293176,2022-09-30_10h07.59.177,vts_reward_expectancy,2022.2.4,MacIntel,60.0024001,Chrome,1470,956,,,,,,,,,,,,,,,,,,,,,,,132,U,star,1,0,,,2,,,,,,k,0.6647,5,0,5,0,1,,,,,,,,,,,,,,,,,,,,,,,,,,,,,,,,,,
293176,2022-09-30_10h07.59.177,vts_reward_expectancy,2022.2.4,MacIntel,60.0024001,Chrome,1470,956,,,,,,,,,,,,,,,,,,,,,,,181,D,hexagon,1,0,,,2,,,,,,j,0.5622,6,0,6,0,1,,,,,,,,,,,,,,,,,,,,,,,,,,,,,,,,,,
293176,2022-09-30_10h07.59.177,vts_reward_expectancy,2022.2.4,MacIntel,60.0024001,Chrome,1470,956,,,,,,,,,,,,,,,,,,,,,,,125,W,circle,1,0,,,2,,,,,,k,1.1799,7,0,7,0,1,,,,,,,,,,,,,,,,,,,,,,,,,,,,,,,,,,
293176,2022-09-30_10h07.59.177,vts_reward_expectancy,2022.2.4,MacIntel,60.0024001,Chrome,1470,956,,,,,,,,,,,,,,,,,,,,,,,139,S,hexagon,1,0,,,2,,,,,,k,0.6724,8,0,8,0,1,,,,,,,,,,,,,,,,,,,,,,,,,,,,,,,,,,
293176,2022-09-30_10h07.59.177,vts_reward_expectancy,2022.2.4,MacIntel,60.0024001,Chrome,1470,956,,,,,,,,,,,,,,,,,,,,,,,174,B,circle,1,0,,,2,,,,,,j,0.6773,9,0,9,0,1,,,,,,,,,,,,,,,,,,,,,,,,,,,,,,,,,,
293176,2022-09-30_10h07.59.177,vts_reward_expectancy,2022.2.4,MacIntel,60.0024001,Chrome,1470,956,,,,,0,603,,,,,,,,,,,,,,,,,174,F,hexagon,-1,0,,,3,,,,,,,,,,,,,-1,no_choice,NA,,vtsPrac,0,0,0,0,1,,,,,,,,,,,,,,,,,,,,,,,,
293176,2022-09-30_10h07.59.177,vts_reward_expectancy,2022.2.4,MacIntel,60.0024001,Chrome,1470,956,,,,,0,603,,,,,,,,,,,,,,,,,146,W,circle,-1,0,,,3,,,,,,,,,,,,,repeat,no_choice,NA,,vtsPrac,1,0,1,0,1,,,,,,,,,,,,,,,,,,,,,,,,
293176,2022-09-30_10h07.59.177,vts_reward_expectancy,2022.2.4,MacIntel,60.0024001,Chrome,1470,956,,,,,0,603,,,,,,,,,,,,,,,,,125,Y,hexagon,0,0,,,3,,,,,,,,,,,,,switch,number,NA,f,vtsPrac,2,0,2,0,1,0.136,,,,,,,,,,,,,,,,,,,,,,,
293176,2022-09-30_10h07.59.177,vts_reward_expectancy,2022.2.4,MacIntel,60.0024001,Chrome,1470,956,,,,,0,603,,,,,,,,,,,,,,,,,160,B,circle,0,1,,,3,,,,,,,,,,,,,switch,letter,NA,k,vtsPrac,3,0,3,0,1,1.0852,,,,,,,,,,,,,,,,,,,,,,,
293176,2022-09-30_10h07.59.177,vts_reward_expectancy,2022.2.4,MacIntel,60.0024001,Chrome,1470,956,,,,,0,603,,,,,,,,,,,,,,,,,174,F,star,1,1,,,3,,,,,,,,,,,,,switch,number,numSwt,f,vtsPrac,4,0,4,0,1,0.3728,,,,,,,,,,,,,,,,,,,,,,,
293176,2022-09-30_10h07.59.177,vts_reward_expectancy,2022.2.4,MacIntel,60.0024001,Chrome,1470,956,,,,,0,603,,,,,,,,,,,,,,,,,146,W,circle,0,0,,,3,,,,,,,,,,,,,switch,letter,NA,j,vtsPrac,5,0,5,0,1,1.0804,,,,,,,,,,,,,,,,,,,,,,,
293176,2022-09-30_10h07.59.177,vts_reward_expectancy,2022.2.4,MacIntel,60.0024001,Chrome,1470,956,,,,,0,603,,,,,,,,,,,,,,,,,125,Y,triangle,1,1,,,3,,,,,,,,,,,,,switch,number,numSwt,d,vtsPrac,6,0,6,0,1,0.7903,,,,,,,,,,,,,,,,,,,,,,,
293176,2022-09-30_10h07.59.177,vts_reward_expectancy,2022.2.4,MacIntel,60.0024001,Chrome,1470,956,,,,,0,603,,,,,,,,,,,,,,,,,160,B,star,1,0,,,3,,,,,,,,,,,,,switch,letter,lettSwt,j,vtsPrac,7,0,7,0,1,1.1153,,,,,,,,,,,,,,,,,,,,,,,
293176,2022-09-30_10h07.59.177,vts_reward_expectancy,2022.2.4,MacIntel,60.0024001,Chrome,1470,956,,,,,0,603,,,,,,,,,,,,,,,,,146,F,triangle,1,0,,,3,,,,,,,,,,,,,repeat,letter,lettRpt,j,vtsPrac,8,0,8,0,1,0.7027,,,,,,,,,,,,,,,,,,,,,,,
293176,2022-09-30_10h07.59.177,vts_reward_expectancy,2022.2.4,MacIntel,60.0024001,Chrome,1470,956,,,,,0,603,,,,,,,,,,,,,,,,,125,B,circle,1,0,,,3,,,,,,,,,,,,,repeat,letter,lettRpt,j,vtsPrac,9,0,9,0,1,0.7021,,,,,,,,,,,,,,,,,,,,,,,
293176,2022-09-30_10h07.59.177,vts_reward_expectancy,2022.2.4,MacIntel,60.0024001,Chrome,1470,956,,,,,0,603,,,,,,,,,,,,,,,,,174,Y,circle,1,0,,,3,,,,,,,,,,,,,switch,number,numSwt,f,vtsPrac,10,0,10,0,1,0.6734,,,,,,,,,,,,,,,,,,,,,,,
293176,2022-09-30_10h07.59.177,vts_reward_expectancy,2022.2.4,MacIntel,60.0024001,Chrome,1470,956,,,,,0,603,,,,,,,,,,,,,,,,,132,D,star,1,0,,,3,,,,,,,,,,,,,switch,letter,lettSwt,j,vtsPrac,11,0,11,0,1,1.1302,,,,,,,,,,,,,,,,,,,,,,,
293176,2022-09-30_10h07.59.177,vts_reward_expectancy,2022.2.4,MacIntel,60.0024001,Chrome,1470,956,,,,,0,603,,,,,,,,,,,,,,,,,146,Y,hexagon,1,0,,,3,,,,,,,,,,,,,switch,number,numSwt,d,vtsPrac,12,0,12,0,1,1.0978,,,,,,,,,,,,,,,,,,,,,,,
293176,2022-09-30_10h07.59.177,vts_reward_expectancy,2022.2.4,MacIntel,60.0024001,Chrome,1470,956,,,,,0,603,,,,,,,,,,,,,,,,,125,F,circle,1,0,,,3,,,,,,,,,,,,,repeat,number,numRpt,d,vtsPrac,13,0,13,0,1,0.9843,,,,,,,,,,,,,,,,,,,,,,,
293176,2022-09-30_10h07.59.177,vts_reward_expectancy,2022.2.4,MacIntel,60.0024001,Chrome,1470,956,,,,,0,603,,,,,,,,,,,,,,,,,174,W,star,1,0,,,3,,,,,,,,,,,,,repeat,number,numRpt,f,vtsPrac,14,0,14,0,1,0.7801,,,,,,,,,,,,,,,,,,,,,,,
293176,2022-09-30_10h07.59.177,vts_reward_expectancy,2022.2.4,MacIntel,60.0024001,Chrome,1470,956,,,,,0,603,,,,,,,,,,,,,,,,,181,S,triangle,1,0,,,3,,,,,,,,,,,,,switch,letter,lettSwt,k,vtsPrac,15,0,15,0,1,1.3826,,,,,,,,,,,,,,,,,,,,,,,
293176,2022-09-30_10h07.59.177,vts_reward_expectancy,2022.2.4,MacIntel,60.0024001,Chrome,1470,956,,,,,0,603,,,,,,,,,,,,,,,,,167,F,circle,1,0,,,4,,,,,,,,,,,,,switch,number,numSwt,f,vtsPrac,0,0,0,0,1,1.233,,,,,,,,,,,,,,,,,,,,,,,
293176,2022-09-30_10h07.59.177,vts_reward_expectancy,2022.2.4,MacIntel,60.0024001,Chrome,1470,956,,,,,0,603,,,,,,,,,,,,,,,,,174,Y,star,1,0,,,4,,,,,,,,,,,,,repeat,number,numRpt,f,vtsPrac,1,0,1,0,1,0.7798,,,,,,,,,,,,,,,,,,,,,,,
293176,2022-09-30_10h07.59.177,vts_reward_expectancy,2022.2.4,MacIntel,60.0024001,Chrome,1470,956,,,,,0,603,,,,,,,,,,,,,,,,,160,U,circle,1,0,,,4,,,,,,,,,,,,,repeat,number,numRpt,f,vtsPrac,2,0,2,0,1,1.6849,,,,,,,,,,,,,,,,,,,,,,,
293176,2022-09-30_10h07.59.177,vts_reward_expectancy,2022.2.4,MacIntel,60.0024001,Chrome,1470,956,,,,,0,603,,,,,,,,,,,,,,,,,181,H,star,1,0,,,4,,,,,,,,,,,,,switch,letter,lettSwt,j,vtsPrac,3,0,3,0,1,1.4154,,,,,,,,,,,,,,,,,,,,,,,
293176,2022-09-30_10h07.59.177,vts_reward_expectancy,2022.2.4,MacIntel,60.0024001,Chrome,1470,956,,,,,0,603,,,,,,,,,,,,,,,,,167,F,triangle,1,0,,,4,,,,,,,,,,,,,repeat,letter,lettRpt,j,vtsPrac,4,0,4,0,1,0.6556,,,,,,,,,,,,,,,,,,,,,,,
293176,2022-09-30_10h07.59.177,vts_reward_expectancy,2022.2.4,MacIntel,60.0024001,Chrome,1470,956,,,,,0,603,,,,,,,,,,,,,,,,,174,Y,star,1,0,,,4,,,,,,,,,,,,,switch,number,numSwt,f,vtsPrac,5,0,5,0,1,1.3964,,,,,,,,,,,,,,,,,,,,,,,
293176,2022-09-30_10h07.59.177,vts_reward_expectancy,2022.2.4,MacIntel,60.0024001,Chrome,1470,956,,,,,0,603,,,,,,,,,,,,,,,,,160,U,star,0,0,,,4,,,,,,,,,,,,,switch,letter,NA,j,vtsPrac,6,0,6,0,1,2.4312,,,,,,,,,,,,,,,,,,,,,,,
293176,2022-09-30_10h07.59.177,vts_reward_expectancy,2022.2.4,MacIntel,60.0024001,Chrome,1470,956,,,,,0,603,,,,,,,,,,,,,,,,,181,H,triangle,1,1,,,4,,,,,,,,,,,,,repeat,letter,lettRpt,j,vtsPrac,7,0,7,0,1,0.9273,,,,,,,,,,,,,,,,,,,,,,,
293176,2022-09-30_10h07.59.177,vts_reward_expectancy,2022.2.4,MacIntel,60.0024001,Chrome,1470,956,,,,,0,603,,,,,,,,,,,,,,,,,181,S,star,1,0,,,4,,,,,,,,,,,,,switch,number,numSwt,f,vtsPrac,8,0,8,0,1,1.6255,,,,,,,,,,,,,,,,,,,,,,,
293176,2022-09-30_10h07.59.177,vts_reward_expectancy,2022.2.4,MacIntel,60.0024001,Chrome,1470,956,,,,,0,603,,,,,,,,,,,,,,,,,132,W,hexagon,1,0,,,4,,,,,,,,,,,,,repeat,number,numRpt,d,vtsPrac,9,0,9,0,1,1.2843,,,,,,,,,,,,,,,,,,,,,,,
293176,2022-09-30_10h07.59.177,vts_reward_expectancy,2022.2.4,MacIntel,60.0024001,Chrome,1470,956,,,,,0,603,,,,,,,,,,,,,,,,,160,D,star,1,0,,,4,,,,,,,,,,,,,switch,letter,lettSwt,j,vtsPrac,10,0,10,0,1,0.6147,,,,,,,,,,,,,,,,,,,,,,,
293176,2022-09-30_10h07.59.177,vts_reward_expectancy,2022.2.4,MacIntel,60.0024001,Chrome,1470,956,,,,,0,603,,,,,,,,,,,,,,,,,167,F,triangle,1,0,,,4,,,,,,,,,,,,,repeat,letter,lettRpt,j,vtsPrac,11,0,11,0,1,1.0821,,,,,,,,,,,,,,,,,,,,,,,
293176,2022-09-30_10h07.59.177,vts_reward_expectancy,2022.2.4,MacIntel,60.0024001,Chrome,1470,956,,,,,0,603,,,,,,,,,,,,,,,,,146,B,triangle,1,0,,,4,,,,,,,,,,,,,repeat,letter,lettRpt,j,vtsPrac,12,0,12,0,1,0.5912,,,,,,,,,,,,,,,,,,,,,,,
293176,2022-09-30_10h07.59.177,vts_reward_expectancy,2022.2.4,MacIntel,60.0024001,Chrome,1470,956,,,,,0,603,,,,,,,,,,,,,,,,,139,S,circle,1,0,,,4,,,,,,,,,,,,,repeat,letter,lettRpt,k,vtsPrac,13,0,13,0,1,0.8631,,,,,,,,,,,,,,,,,,,,,,,
293176,2022-09-30_10h07.59.177,vts_reward_expectancy,2022.2.4,MacIntel,60.0024001,Chrome,1470,956,,,,,0,603,,,,,,,,,,,,,,,,,167,W,star,1,0,,,4,,,,,,,,,,,,,switch,number,numSwt,f,vtsPrac,14,0,14,0,1,1.2468,,,,,,,,,,,,,,,,,,,,,,,
293176,2022-09-30_10h07.59.177,vts_reward_expectancy,2022.2.4,MacIntel,60.0024001,Chrome,1470,956,,,,,0,603,,,,,,,,,,,,,,,,,125,Y,triangle,1,0,,,4,,,,,,,,,,,,,repeat,number,numRpt,d,vtsPrac,15,0,15,0,1,1.3986,,,,,,,,,,,,,,,,,,,,,,,
293176,2022-09-30_10h07.59.177,vts_reward_expectancy,2022.2.4,MacIntel,60.0024001,Chrome,1470,956,,,,,,,,,,,,,,,,,,,,,,,,,,,,,,,,,,,,,,,,,,,,,,,,,,,,,,,,,,,,,,,,,,,,,,,,,,,,
293176,2022-09-30_10h07.59.177,vts_reward_expectancy,2022.2.4,MacIntel,60.0024001,Chrome,1470,956,,,,,,,,,,,,,,,,,,,,,,,,,,,,,,,,,,,,,,,,,,,,,,,,,,,,,,,,,,,,,,,,,,,,,,,,,,,,
293176,2022-09-30_10h07.59.177,vts_reward_expectancy,2022.2.4,MacIntel,60.0024001,Chrome,1470,956,,,,,0,603,,,,,,,,,,,,,,,,,160,F,triangle,1,0,,,,,,,,,,,,,,,,repeat,number,numRpt,f,noRew,,,,,,0.9285,0,0,0,0,0,1,,,,,,,,,,,,,,,,,
293176,2022-09-30_10h07.59.177,vts_reward_expectancy,2022.2.4,MacIntel,60.0024001,Chrome,1470,956,,,,,0,603,,,,,,,,,,,,,,,,,139,S,star,1,0,,,,,,,,,,,,,,,,switch,letter,lettSwt,k,noRew,,,,,,1.3686,0,1,0,1,0,1,,,,,,,,,,,,,,,,,
293176,2022-09-30_10h07.59.177,vts_reward_expectancy,2022.2.4,MacIntel,60.0024001,Chrome,1470,956,,,,,0,603,,,,,,,,,,,,,,,,,174,Y,triangle,1,0,,,,,,,,,,,,,,,,repeat,letter,lettRpt,k,noRew,,,,,,1.3874,0,2,0,2,0,1,,,,,,,,,,,,,,,,,
293176,2022-09-30_10h07.59.177,vts_reward_expectancy,2022.2.4,MacIntel,60.0024001,Chrome,1470,956,,,,,0,603,,,,,,,,,,,,,,,,,181,H,star,1,0,,,,,,,,,,,,,,,,switch,number,numSwt,f,noRew,,,,,,1.5791,0,3,0,3,0,1,,,,,,,,,,,,,,,,,
293176,2022-09-30_10h07.59.177,vts_reward_expectancy,2022.2.4,MacIntel,60.0024001,Chrome,1470,956,,,,,0,603,,,,,,,,,,,,,,,,,160,F,triangle,1,0,,,,,,,,,,,,,,,,repeat,number,numRpt,f,noRew,,,,,,0.885,0,4,0,4,0,1,,,,,,,,,,,,,,,,,
293176,2022-09-30_10h07.59.177,vts_reward_expectancy,2022.2.4,MacIntel,60.0024001,Chrome,1470,956,,,,,0,603,,,,,,,,,,,,,,,,,139,S,circle,1,0,,,,,,,,,,,,,,,,repeat,number,numRpt,d,noRew,,,,,,1.4669,0,5,0,5,0,1,,,,,,,,,,,,,,,,,
293176,2022-09-30_10h07.59.177,vts_reward_expectancy,2022.2.4,MacIntel,60.0024001,Chrome,1470,956,,,,,0,603,,,,,,,,,,,,,,,,,174,Y,circle,1,0,,,,,,,,,,,,,,,,switch,letter,lettSwt,k,noRew,,,,,,1.3587,0,6,0,6,0,1,,,,,,,,,,,,,,,,,
293176,2022-09-30_10h07.59.177,vts_reward_expectancy,2022.2.4,MacIntel,60.0024001,Chrome,1470,956,,,,,0,603,,,,,,,,,,,,,,,,,181,H,hexagon,1,0,,,,,,,,,,,,,,,,repeat,letter,lettRpt,j,noRew,,,,,,1.1472,0,7,0,7,0,1,,,,,,,,,,,,,,,,,
293176,2022-09-30_10h07.59.177,vts_reward_expectancy,2022.2.4,MacIntel,60.0024001,Chrome,1470,956,,,,,0,603,,,,,,,,,,,,,,,,,132,H,star,1,0,,,,,,,,,,,,,,,,switch,number,numSwt,d,noRew,,,,,,2.6213,0,8,0,8,0,1,,,,,,,,,,,,,,,,,
293176,2022-09-30_10h07.59.177,vts_reward_expectancy,2022.2.4,MacIntel,60.0024001,Chrome,1470,956,,,,,0,603,,,,,,,,,,,,,,,,,146,F,circle,1,0,,,,,,,,,,,,,,,,switch,letter,lettSwt,j,noRew,,,,,,2.2494,0,9,0,9,0,1,,,,,,,,,,,,,,,,,
293176,2022-09-30_10h07.59.177,vts_reward_expectancy,2022.2.4,MacIntel,60.0024001,Chrome,1470,956,,,,,0,603,,,,,,,,,,,,,,,,,125,U,hexagon,1,0,,,,,,,,,,,,,,,,switch,number,numSwt,d,noRew,,,,,,1.1986,0,10,0,10,0,1,,,,,,,,,,,,,,,,,
293176,2022-09-30_10h07.59.177,vts_reward_expectancy,2022.2.4,MacIntel,60.0024001,Chrome,1470,956,,,,,0,603,,,,,,,,,,,,,,,,,181,B,triangle,1,0,,,,,,,,,,,,,,,,switch,letter,lettSwt,j,noRew,,,,,,1.8801,0,11,0,11,0,1,,,,,,,,,,,,,,,,,
293176,2022-09-30_10h07.59.177,vts_reward_expectancy,2022.2.4,MacIntel,60.0024001,Chrome,1470,956,,,,,0,603,,,,,,,,,,,,,,,,,174,W,triangle,1,0,,,,,,,,,,,,,,,,switch,number,numSwt,f,noRew,,,,,,1.6296,0,12,0,12,0,1,,,,,,,,,,,,,,,,,
293176,2022-09-30_10h07.59.177,vts_reward_expectancy,2022.2.4,MacIntel,60.0024001,Chrome,1470,956,,,,,0,603,,,,,,,,,,,,,,,,,146,U,hexagon,1,0,,,,,,,,,,,,,,,,repeat,number,numRpt,d,noRew,,,,,,1.646,0,13,0,13,0,1,,,,,,,,,,,,,,,,,
293176,2022-09-30_10h07.59.177,vts_reward_expectancy,2022.2.4,MacIntel,60.0024001,Chrome,1470,956,,,,,0,603,,,,,,,,,,,,,,,,,132,Y,star,1,0,,,,,,,,,,,,,,,,switch,letter,lettSwt,k,noRew,,,,,,1.1709,0,14,0,14,0,1,,,,,,,,,,,,,,,,,
293176,2022-09-30_10h07.59.177,vts_reward_expectancy,2022.2.4,MacIntel,60.0024001,Chrome,1470,956,,,,,0,603,,,,,,,,,,,,,,,,,160,D,hexagon,1,0,,,,,,,,,,,,,,,,switch,number,numSwt,f,noRew,,,,,,1.1283,0,15,0,15,0,1,,,,,,,,,,,,,,,,,
293176,2022-09-30_10h07.59.177,vts_reward_expectancy,2022.2.4,MacIntel,60.0024001,Chrome,1470,956,,,,,0,603,,,,,,,,,,,,,,,,,146,F,circle,1,0,,,,,,,,,,,,,,,,switch,letter,lettSwt,j,noRew,,,,,,0.8947,0,16,0,16,0,1,,,,,,,,,,,,,,,,,
293176,2022-09-30_10h07.59.177,vts_reward_expectancy,2022.2.4,MacIntel,60.0024001,Chrome,1470,956,,,,,0,603,,,,,,,,,,,,,,,,,132,B,star,1,0,,,,,,,,,,,,,,,,repeat,letter,lettRpt,j,noRew,,,,,,1.2249,0,17,0,17,0,1,,,,,,,,,,,,,,,,,
293176,2022-09-30_10h07.59.177,vts_reward_expectancy,2022.2.4,MacIntel,60.0024001,Chrome,1470,956,,,,,0,603,,,,,,,,,,,,,,,,,181,W,triangle,1,0,,,,,,,,,,,,,,,,switch,number,numSwt,f,noRew,,,,,,1.412,0,18,0,18,0,1,,,,,,,,,,,,,,,,,
293176,2022-09-30_10h07.59.177,vts_reward_expectancy,2022.2.4,MacIntel,60.0024001,Chrome,1470,956,,,,,0,603,,,,,,,,,,,,,,,,,174,Y,hexagon,1,0,,,,,,,,,,,,,,,,repeat,number,numRpt,f,noRew,,,,,,1.363,0,19,0,19,0,1,,,,,,,,,,,,,,,,,
293176,2022-09-30_10h07.59.177,vts_reward_expectancy,2022.2.4,MacIntel,60.0024001,Chrome,1470,956,,,,,0,603,,,,,,,,,,,,,,,,,174,F,star,1,0,,,,,,,,,,,,,,,,switch,letter,lettSwt,j,noRew,,,,,,0.9919,0,20,0,20,0,1,,,,,,,,,,,,,,,,,
293176,2022-09-30_10h07.59.177,vts_reward_expectancy,2022.2.4,MacIntel,60.0024001,Chrome,1470,956,,,,,0,603,,,,,,,,,,,,,,,,,132,S,triangle,1,0,,,,,,,,,,,,,,,,repeat,letter,lettRpt,k,noRew,,,,,,1.9506,0,21,0,21,0,1,,,,,,,,,,,,,,,,,
293176,2022-09-30_10h07.59.177,vts_reward_expectancy,2022.2.4,MacIntel,60.0024001,Chrome,1470,956,,,,,0,603,,,,,,,,,,,,,,,,,167,B,triangle,1,0,,,,,,,,,,,,,,,,switch,number,numSwt,f,noRew,,,,,,1.2569,0,22,0,22,0,1,,,,,,,,,,,,,,,,,
293176,2022-09-30_10h07.59.177,vts_reward_expectancy,2022.2.4,MacIntel,60.0024001,Chrome,1470,956,,,,,0,603,,,,,,,,,,,,,,,,,160,Y,hexagon,1,0,,,,,,,,,,,,,,,,repeat,number,numRpt,f,noRew,,,,,,1.7388,0,23,0,23,0,1,,,,,,,,,,,,,,,,,
293176,2022-09-30_10h07.59.177,vts_reward_expectancy,2022.2.4,MacIntel,60.0024001,Chrome,1470,956,,,,,0,603,,,,,,,,,,,,,,,,,167,F,star,0,0,,,,,,,,,,,,,,,,switch,letter,NA,k,noRew,,,,,,1.6245,0,24,0,24,0,1,,,,,,,,,,,,,,,,,
293176,2022-09-30_10h07.59.177,vts_reward_expectancy,2022.2.4,MacIntel,60.0024001,Chrome,1470,956,,,,,0,603,,,,,,,,,,,,,,,,,174,S,hexagon,1,1,,,,,,,,,,,,,,,,switch,number,numSwt,f,noRew,,,,,,1.5794,0,25,0,25,0,1,,,,,,,,,,,,,,,,,
293176,2022-09-30_10h07.59.177,vts_reward_expectancy,2022.2.4,MacIntel,60.0024001,Chrome,1470,956,,,,,0,603,,,,,,,,,,,,,,,,,132,B,hexagon,1,0,,,,,,,,,,,,,,,,switch,letter,lettSwt,j,noRew,,,,,,1.6972,0,26,0,26,0,1,,,,,,,,,,,,,,,,,
293176,2022-09-30_10h07.59.177,vts_reward_expectancy,2022.2.4,MacIntel,60.0024001,Chrome,1470,956,,,,,0,603,,,,,,,,,,,,,,,,,181,Y,triangle,1,0,,,,,,,,,,,,,,,,repeat,letter,lettRpt,k,noRew,,,,,,1.1022,0,27,0,27,0,1,,,,,,,,,,,,,,,,,
293176,2022-09-30_10h07.59.177,vts_reward_expectancy,2022.2.4,MacIntel,60.0024001,Chrome,1470,956,,,,,0,603,,,,,,,,,,,,,,,,,167,B,circle,1,0,,,,,,,,,,,,,,,,repeat,letter,lettRpt,j,noRew,,,,,,0.7453,0,28,0,28,0,1,,,,,,,,,,,,,,,,,
293176,2022-09-30_10h07.59.177,vts_reward_expectancy,2022.2.4,MacIntel,60.0024001,Chrome,1470,956,,,,,0,603,,,,,,,,,,,,,,,,,160,W,triangle,1,0,,,,,,,,,,,,,,,,switch,number,numSwt,f,noRew,,,,,,0.8814,0,29,0,29,0,1,,,,,,,,,,,,,,,,,
293176,2022-09-30_10h07.59.177,vts_reward_expectancy,2022.2.4,MacIntel,60.0024001,Chrome,1470,956,,,,,0,603,,,,,,,,,,,,,,,,,125,D,star,1,0,,,,,,,,,,,,,,,,switch,letter,lettSwt,j,noRew,,,,,,0.9118,0,30,0,30,0,1,,,,,,,,,,,,,,,,,
293176,2022-09-30_10h07.59.177,vts_reward_expectancy,2022.2.4,MacIntel,60.0024001,Chrome,1470,956,,,,,0,603,,,,,,,,,,,,,,,,,174,U,hexagon,1,0,,,,,,,,,,,,,,,,switch,number,numSwt,f,noRew,,,,,,1.6042,0,31,0,31,0,1,,,,,,,,,,,,,,,,,
293176,2022-09-30_10h07.59.177,vts_reward_expectancy,2022.2.4,MacIntel,60.0024001,Chrome,1470,956,,,,,0,603,,,,,,,,,,,,,,,,,139,H,hexagon,1,0,,,,,,,,,,,,,,,,repeat,number,numRpt,d,noRew,,,,,,0.9838,0,32,0,32,0,1,,,,,,,,,,,,,,,,,
293176,2022-09-30_10h07.59.177,vts_reward_expectancy,2022.2.4,MacIntel,60.0024001,Chrome,1470,956,,,,,0,603,,,,,,,,,,,,,,,,,174,Y,star,1,0,,,,,,,,,,,,,,,,repeat,number,numRpt,f,noRew,,,,,,1.2316,0,33,0,33,0,1,,,,,,,,,,,,,,,,,
293176,2022-09-30_10h07.59.177,vts_reward_expectancy,2022.2.4,MacIntel,60.0024001,Chrome,1470,956,,,,,0,603,,,,,,,,,,,,,,,,,146,S,star,1,0,,,,,,,,,,,,,,,,switch,letter,lettSwt,k,noRew,,,,,,1.2493,0,34,0,34,0,1,,,,,,,,,,,,,,,,,
293176,2022-09-30_10h07.59.177,vts_reward_expectancy,2022.2.4,MacIntel,60.0024001,Chrome,1470,956,,,,,0,603,,,,,,,,,,,,,,,,,132,D,circle,1,0,,,,,,,,,,,,,,,,repeat,letter,lettRpt,j,noRew,,,,,,0.6114,0,35,0,35,0,1,,,,,,,,,,,,,,,,,
293176,2022-09-30_10h07.59.177,vts_reward_expectancy,2022.2.4,MacIntel,60.0024001,Chrome,1470,956,,,,,0,603,,,,,,,,,,,,,,,,,132,S,triangle,1,0,,,,,,,,,,,,,,,,switch,number,numSwt,d,noRew,,,,,,0.8221,0,36,0,36,0,1,,,,,,,,,,,,,,,,,
293176,2022-09-30_10h07.59.177,vts_reward_expectancy,2022.2.4,MacIntel,60.0024001,Chrome,1470,956,,,,,0,603,,,,,,,,,,,,,,,,,174,H,hexagon,1,0,,,,,,,,,,,,,,,,repeat,number,numRpt,f,noRew,,,,,,1.1678,0,37,0,37,0,1,,,,,,,,,,,,,,,,,
293176,2022-09-30_10h07.59.177,vts_reward_expectancy,2022.2.4,MacIntel,60.0024001,Chrome,1470,956,,,,,0,603,,,,,,,,,,,,,,,,,160,B,circle,1,0,,,,,,,,,,,,,,,,switch,letter,lettSwt,j,noRew,,,,,,1.0609,0,38,0,38,0,1,,,,,,,,,,,,,,,,,
293176,2022-09-30_10h07.59.177,vts_reward_expectancy,2022.2.4,MacIntel,60.0024001,Chrome,1470,956,,,,,0,603,,,,,,,,,,,,,,,,,167,W,triangle,1,0,,,,,,,,,,,,,,,,repeat,letter,lettRpt,k,noRew,,,,,,0.9192,0,39,0,39,0,1,,,,,,,,,,,,,,,,,
293176,2022-09-30_10h07.59.177,vts_reward_expectancy,2022.2.4,MacIntel,60.0024001,Chrome,1470,956,,,,,0,603,,,,,,,,,,,,,,,,,125,U,hexagon,1,0,,,,,,,,,,,,,,,,switch,number,numSwt,d,noRew,,,,,,1.3219,0,40,0,40,0,1,,,,,,,,,,,,,,,,,
293176,2022-09-30_10h07.59.177,vts_reward_expectancy,2022.2.4,MacIntel,60.0024001,Chrome,1470,956,,,,,0,603,,,,,,,,,,,,,,,,,167,W,circle,1,0,,,,,,,,,,,,,,,,switch,letter,lettSwt,k,noRew,,,,,,2.5214,0,41,0,41,0,1,,,,,,,,,,,,,,,,,
293176,2022-09-30_10h07.59.177,vts_reward_expectancy,2022.2.4,MacIntel,60.0024001,Chrome,1470,956,,,,,0,603,,,,,,,,,,,,,,,,,174,H,star,1,0,,,,,,,,,,,,,,,,repeat,letter,lettRpt,j,noRew,,,,,,1.027,0,42,0,42,0,1,,,,,,,,,,,,,,,,,
293176,2022-09-30_10h07.59.177,vts_reward_expectancy,2022.2.4,MacIntel,60.0024001,Chrome,1470,956,,,,,0,603,,,,,,,,,,,,,,,,,146,S,hexagon,1,0,,,,,,,,,,,,,,,,repeat,letter,lettRpt,k,noRew,,,,,,1.3794,0,43,0,43,0,1,,,,,,,,,,,,,,,,,
293176,2022-09-30_10h07.59.177,vts_reward_expectancy,2022.2.4,MacIntel,60.0024001,Chrome,1470,956,,,,,0,603,,,,,,,,,,,,,,,,,160,D,star,1,0,,,,,,,,,,,,,,,,repeat,letter,lettRpt,j,noRew,,,,,,0.8818,0,44,0,44,0,1,,,,,,,,,,,,,,,,,
293176,2022-09-30_10h07.59.177,vts_reward_expectancy,2022.2.4,MacIntel,60.0024001,Chrome,1470,956,,,,,0,603,,,,,,,,,,,,,,,,,174,W,triangle,1,0,,,,,,,,,,,,,,,,switch,number,numSwt,f,noRew,,,,,,0.8824,0,45,0,45,0,1,,,,,,,,,,,,,,,,,
293176,2022-09-30_10h07.59.177,vts_reward_expectancy,2022.2.4,MacIntel,60.0024001,Chrome,1470,956,,,,,0,603,,,,,,,,,,,,,,,,,146,U,hexagon,1,0,,,,,,,,,,,,,,,,switch,letter,lettSwt,k,noRew,,,,,,1.2889,0,46,0,46,0,1,,,,,,,,,,,,,,,,,
293176,2022-09-30_10h07.59.177,vts_reward_expectancy,2022.2.4,MacIntel,60.0024001,Chrome,1470,956,,,,,0,603,,,,,,,,,,,,,,,,,125,F,circle,1,0,,,,,,,,,,,,,,,,switch,number,numSwt,d,noRew,,,,,,0.7324,0,47,0,47,0,1,,,,,,,,,,,,,,,,,
293176,2022-09-30_10h07.59.177,vts_reward_expectancy,2022.2.4,MacIntel,60.0024001,Chrome,1470,956,,,,,0,603,,,,,,,,,,,,,,,,,125,D,hexagon,1,0,,,,,,,,,,,,,,,,repeat,number,numRpt,d,noRew,,,,,,1.3676,0,48,0,48,0,1,,,,,,,,,,,,,,,,,
293176,2022-09-30_10h07.59.177,vts_reward_expectancy,2022.2.4,MacIntel,60.0024001,Chrome,1470,956,,,,,0,603,,,,,,,,,,,,,,,,,132,S,star,1,0,,,,,,,,,,,,,,,,repeat,number,numRpt,d,noRew,,,,,,1.2639,0,49,0,49,0,1,,,,,,,,,,,,,,,,,
293176,2022-09-30_10h07.59.177,vts_reward_expectancy,2022.2.4,MacIntel,60.0024001,Chrome,1470,956,,,,,0,603,,,,,,,,,,,,,,,,,174,U,triangle,1,0,,,,,,,,,,,,,,,,repeat,number,numRpt,f,noRew,,,,,,1.4326,0,50,0,50,0,1,,,,,,,,,,,,,,,,,
293176,2022-09-30_10h07.59.177,vts_reward_expectancy,2022.2.4,MacIntel,60.0024001,Chrome,1470,956,,,,,0,603,,,,,,,,,,,,,,,,,167,W,hexagon,1,0,,,,,,,,,,,,,,,,switch,letter,lettSwt,k,noRew,,,,,,1.1812,0,51,0,51,0,1,,,,,,,,,,,,,,,,,
293176,2022-09-30_10h07.59.177,vts_reward_expectancy,2022.2.4,MacIntel,60.0024001,Chrome,1470,956,,,,,0,603,,,,,,,,,,,,,,,,,181,U,circle,1,0,,,,,,,,,,,,,,,,repeat,letter,lettRpt,k,noRew,,,,,,0.7853,0,52,0,52,0,1,,,,,,,,,,,,,,,,,
293176,2022-09-30_10h07.59.177,vts_reward_expectancy,2022.2.4,MacIntel,60.0024001,Chrome,1470,956,,,,,0,603,,,,,,,,,,,,,,,,,125,F,star,1,0,,,,,,,,,,,,,,,,switch,number,numSwt,d,noRew,,,,,,0.948,0,53,0,53,0,1,,,,,,,,,,,,,,,,,
293176,2022-09-30_10h07.59.177,vts_reward_expectancy,2022.2.4,MacIntel,60.0024001,Chrome,1470,956,,,,,0,603,,,,,,,,,,,,,,,,,139,D,circle,1,0,,,,,,,,,,,,,,,,switch,letter,lettSwt,j,noRew,,,,,,0.6324,0,54,0,54,0,1,,,,,,,,,,,,,,,,,
293176,2022-09-30_10h07.59.177,vts_reward_expectancy,2022.2.4,MacIntel,60.0024001,Chrome,1470,956,,,,,0,603,,,,,,,,,,,,,,,,,146,Y,hexagon,1,0,,,,,,,,,,,,,,,,repeat,letter,lettRpt,k,noRew,,,,,,0.8661,0,55,0,55,0,1,,,,,,,,,,,,,,,,,
293176,2022-09-30_10h07.59.177,vts_reward_expectancy,2022.2.4,MacIntel,60.0024001,Chrome,1470,956,,,,,0,603,,,,,,,,,,,,,,,,,167,D,star,1,0,,,,,,,,,,,,,,,,repeat,letter,lettRpt,j,noRew,,,,,,0.9043,0,56,0,56,0,1,,,,,,,,,,,,,,,,,
293176,2022-09-30_10h07.59.177,vts_reward_expectancy,2022.2.4,MacIntel,60.0024001,Chrome,1470,956,,,,,0,603,,,,,,,,,,,,,,,,,139,S,hexagon,1,0,,,,,,,,,,,,,,,,switch,number,numSwt,d,noRew,,,,,,1.1372,0,57,0,57,0,1,,,,,,,,,,,,,,,,,
293176,2022-09-30_10h07.59.177,vts_reward_expectancy,2022.2.4,MacIntel,60.0024001,Chrome,1470,956,,,,,0,603,,,,,,,,,,,,,,,,,146,F,triangle,1,0,,,,,,,,,,,,,,,,repeat,number,numRpt,d,noRew,,,,,,0.9636,0,58,0,58,0,1,,,,,,,,,,,,,,,,,
293176,2022-09-30_10h07.59.177,vts_reward_expectancy,2022.2.4,MacIntel,60.0024001,Chrome,1470,956,,,,,0,603,,,,,,,,,,,,,,,,,181,Y,circle,1,0,,,,,,,,,,,,,,,,switch,letter,lettSwt,k,noRew,,,,,,1.097,0,59,0,59,0,1,,,,,,,,,,,,,,,,,
293176,2022-09-30_10h07.59.177,vts_reward_expectancy,2022.2.4,MacIntel,60.0024001,Chrome,1470,956,,,,,0,603,,,,,,,,,,,,,,,,,125,S,star,1,0,,,,,,,,,,,,,,,,repeat,letter,lettRpt,k,noRew,,,,,,1.0741,0,60,0,60,0,1,,,,,,,,,,,,,,,,,
293176,2022-09-30_10h07.59.177,vts_reward_expectancy,2022.2.4,MacIntel,60.0024001,Chrome,1470,956,,,,,0,603,,,,,,,,,,,,,,,,,181,H,triangle,1,0,,,,,,,,,,,,,,,,switch,number,numSwt,f,noRew,,,,,,1.0302,0,61,0,61,0,1,,,,,,,,,,,,,,,,,
293176,2022-09-30_10h07.59.177,vts_reward_expectancy,2022.2.4,MacIntel,60.0024001,Chrome,1470,956,,,,,0,603,,,,,,,,,,,,,,,,,146,D,star,1,0,,,,,,,,,,,,,,,,switch,letter,lettSwt,j,noRew,,,,,,1.4187,0,62,0,62,0,1,,,,,,,,,,,,,,,,,
293176,2022-09-30_10h07.59.177,vts_reward_expectancy,2022.2.4,MacIntel,60.0024001,Chrome,1470,956,,,,,0,603,,,,,,,,,,,,,,,,,139,U,hexagon,1,0,,,,,,,,,,,,,,,,repeat,letter,lettRpt,k,noRew,,,,,,1.2663,0,63,0,63,0,1,,,,,,,,,,,,,,,,,
293176,2022-09-30_10h07.59.177,vts_reward_expectancy,2022.2.4,MacIntel,60.0024001,Chrome,1470,956,,,,,,,,,,,,,,,,,,,,,,,,,,,,,,,,,,,,,,,,,,,,,,,,,,,,,,,,,,,,,,,,,,,,,,,,,,,,
293176,2022-09-30_10h07.59.177,vts_reward_expectancy,2022.2.4,MacIntel,60.0024001,Chrome,1470,956,,,,,0,603,,,,,,,,,,,,,,,,,132,Y,circle,1,0,,,,,,,,,,,,,,,,switch,number,numSwt,d,Hi,,,,,,1.3685,0,,,,,,space,5.17,low,0,0,0,0,1,,,,,,,,,
293176,2022-09-30_10h07.59.177,vts_reward_expectancy,2022.2.4,MacIntel,60.0024001,Chrome,1470,956,,,,,1,604,,,,,,,,,,,,,,,,,139,H,star,1,0,,,,,,,,,,,,,,,,repeat,number,numRpt,d,Lo,,,,,,0.632,0,,,,,,,,low,1,0,1,0,1,,,,,,,,,
293176,2022-09-30_10h07.59.177,vts_reward_expectancy,2022.2.4,MacIntel,60.0024001,Chrome,1470,956,,,,,10,614,,,,,,,,,,,,,,,,,181,U,circle,1,0,,,,,,,,,,,,,,,,switch,letter,lettSwt,k,Hi,,,,,,0.6325,0,,,,,,,,low,2,0,2,0,1,,,,,,,,,
293176,2022-09-30_10h07.59.177,vts_reward_expectancy,2022.2.4,MacIntel,60.0024001,Chrome,1470,956,,,,,10,624,,,,,,,,,,,,,,,,,146,D,star,1,0,,,,,,,,,,,,,,,,switch,number,numSwt,d,Lo,,,,,,0.9665,0,,,,,,,,low,3,0,3,0,1,,,,,,,,,
293176,2022-09-30_10h07.59.177,vts_reward_expectancy,2022.2.4,MacIntel,60.0024001,Chrome,1470,956,,,,,10,634,,,,,,,,,,,,,,,,,174,F,circle,1,0,,,,,,,,,,,,,,,,switch,letter,lettSwt,j,Hi,,,,,,0.8971,0,,,,,,,,low,4,0,4,0,1,,,,,,,,,
293176,2022-09-30_10h07.59.177,vts_reward_expectancy,2022.2.4,MacIntel,60.0024001,Chrome,1470,956,,,,,10,644,,,,,,,,,,,,,,,,,160,S,star,1,0,,,,,,,,,,,,,,,,repeat,letter,lettRpt,k,Lo,,,,,,0.7202,0,,,,,,,,low,5,0,5,0,1,,,,,,,,,
293176,2022-09-30_10h07.59.177,vts_reward_expectancy,2022.2.4,MacIntel,60.0024001,Chrome,1470,956,,,,,10,654,,,,,,,,,,,,,,,,,167,B,star,1,0,,,,,,,,,,,,,,,,repeat,letter,lettRpt,j,Lo,,,,,,0.6936,0,,,,,,,,low,6,0,6,0,1,,,,,,,,,
293176,2022-09-30_10h07.59.177,vts_reward_expectancy,2022.2.4,MacIntel,60.0024001,Chrome,1470,956,,,,,1,655,,,,,,,,,,,,,,,,,125,W,circle,1,0,,,,,,,,,,,,,,,,switch,number,numSwt,d,Hi,,,,,,0.9312,0,,,,,,,,low,7,0,7,0,1,,,,,,,,,
293176,2022-09-30_10h07.59.177,vts_reward_expectancy,2022.2.4,MacIntel,60.0024001,Chrome,1470,956,,,,,1,656,,,,,,,,,,,,,,,,,132,Y,star,1,0,,,,,,,,,,,,,,,,switch,letter,lettSwt,k,Lo,,,,,,1.0051,0,,,,,,,,low,8,0,8,0,1,,,,,,,,,
293176,2022-09-30_10h07.59.177,vts_reward_expectancy,2022.2.4,MacIntel,60.0024001,Chrome,1470,956,,,,,10,666,,,,,,,,,,,,,,,,,139,H,circle,1,0,,,,,,,,,,,,,,,,repeat,letter,lettRpt,j,Hi,,,,,,0.7984,0,,,,,,,,low,9,0,9,0,1,,,,,,,,,
293176,2022-09-30_10h07.59.177,vts_reward_expectancy,2022.2.4,MacIntel,60.0024001,Chrome,1470,956,,,,,10,676,,,,,,,,,,,,,,,,,181,U,star,1,0,,,,,,,,,,,,,,,,switch,number,numSwt,f,Lo,,,,,,0.7978,0,,,,,,,,low,10,0,10,0,1,,,,,,,,,
293176,2022-09-30_10h07.59.177,vts_reward_expectancy,2022.2.4,MacIntel,60.0024001,Chrome,1470,956,,,,,10,686,,,,,,,,,,,,,,,,,146,D,circle,1,0,,,,,,,,,,,,,,,,repeat,number,numRpt,d,Hi,,,,,,0.7302,0,,,,,,,,low,11,0,11,0,1,,,,,,,,,
293176,2022-09-30_10h07.59.177,vts_reward_expectancy,2022.2.4,MacIntel,60.0024001,Chrome,1470,956,,,,,1,687,,,,,,,,,,,,,,,,,174,F,star,1,0,,,,,,,,,,,,,,,,repeat,number,numRpt,f,Lo,,,,,,0.6807,0,,,,,,,,low,12,0,12,0,1,,,,,,,,,
293176,2022-09-30_10h07.59.177,vts_reward_expectancy,2022.2.4,MacIntel,60.0024001,Chrome,1470,956,,,,,10,697,,,,,,,,,,,,,,,,,160,S,circle,1,0,,,,,,,,,,,,,,,,switch,letter,lettSwt,k,Hi,,,,,,0.9229,0,,,,,,,,low,13,0,13,0,1,,,,,,,,,
293176,2022-09-30_10h07.59.177,vts_reward_expectancy,2022.2.4,MacIntel,60.0024001,Chrome,1470,956,,,,,0,697,,,,,,,,,,,,,,,,,167,B,circle,1,0,,,,,,,,,,,,,,,,repeat,letter,lettRpt,j,Hi,,,,,,1.0137,0,,,,,,,,low,14,0,14,0,1,,,,,,,,,
293176,2022-09-30_10h07.59.177,vts_reward_expectancy,2022.2.4,MacIntel,60.0024001,Chrome,1470,956,,,,,1,698,,,,,,,,,,,,,,,,,125,W,star,1,0,,,,,,,,,,,,,,,,switch,number,numSwt,d,Lo,,,,,,0.7105,0,,,,,,,,low,15,0,15,0,1,,,,,,,,,
293176,2022-09-30_10h07.59.177,vts_reward_expectancy,2022.2.4,MacIntel,60.0024001,Chrome,1470,956,,,,,1,699,,,,,,,,,,,,,,,,,174,U,star,1,0,,,,,,,,,,,,,,,,repeat,number,numRpt,f,Lo,,,,,,1.4133,0,,,,,,,,low,16,0,16,0,1,,,,,,,,,
293176,2022-09-30_10h07.59.177,vts_reward_expectancy,2022.2.4,MacIntel,60.0024001,Chrome,1470,956,,,,,10,709,,,,,,,,,,,,,,,,,146,D,circle,1,0,,,,,,,,,,,,,,,,switch,letter,lettSwt,j,Hi,,,,,,0.8729,0,,,,,,,,low,17,0,17,0,1,,,,,,,,,
293176,2022-09-30_10h07.59.177,vts_reward_expectancy,2022.2.4,MacIntel,60.0024001,Chrome,1470,956,,,,,10,719,,,,,,,,,,,,,,,,,167,B,circle,1,0,,,,,,,,,,,,,,,,switch,number,numSwt,f,Hi,,,,,,0.7815,0,,,,,,,,low,18,0,18,0,1,,,,,,,,,
293176,2022-09-30_10h07.59.177,vts_reward_expectancy,2022.2.4,MacIntel,60.0024001,Chrome,1470,956,,,,,10,729,,,,,,,,,,,,,,,,,160,W,star,1,0,,,,,,,,,,,,,,,,switch,letter,lettSwt,k,Lo,,,,,,0.478,0,,,,,,,,low,19,0,19,0,1,,,,,,,,,
293176,2022-09-30_10h07.59.177,vts_reward_expectancy,2022.2.4,MacIntel,60.0024001,Chrome,1470,956,,,,,1,730,,,,,,,,,,,,,,,,,139,F,star,1,0,,,,,,,,,,,,,,,,switch,number,numSwt,d,Lo,,,,,,1.1829,0,,,,,,,,low,20,0,20,0,1,,,,,,,,,
293176,2022-09-30_10h07.59.177,vts_reward_expectancy,2022.2.4,MacIntel,60.0024001,Chrome,1470,956,,,,,10,740,,,,,,,,,,,,,,,,,132,H,circle,1,0,,,,,,,,,,,,,,,,repeat,number,numRpt,d,Hi,,,,,,0.6882,0,,,,,,,,low,21,0,21,0,1,,,,,,,,,
293176,2022-09-30_10h07.59.177,vts_reward_expectancy,2022.2.4,MacIntel,60.0024001,Chrome,1470,956,,,,,10,750,,,,,,,,,,,,,,,,,181,S,star,1,0,,,,,,,,,,,,,,,,repeat,number,numRpt,f,Lo,,,,,,1.3325,0,,,,,,,,low,22,0,22,0,1,,,,,,,,,
293176,2022-09-30_10h07.59.177,vts_reward_expectancy,2022.2.4,MacIntel,60.0024001,Chrome,1470,956,,,,,10,760,,,,,,,,,,,,,,,,,125,Y,circle,1,0,,,,,,,,,,,,,,,,switch,letter,lettSwt,k,Hi,,,,,,0.6377,0,,,,,,,,low,23,0,23,0,1,,,,,,,,,
293176,2022-09-30_10h07.59.177,vts_reward_expectancy,2022.2.4,MacIntel,60.0024001,Chrome,1470,956,,,,,1,761,,,,,,,,,,,,,,,,,181,U,star,1,0,,,,,,,,,,,,,,,,repeat,letter,lettRpt,k,Lo,,,,,,1.2214,0,,,,,,,,low,24,0,24,0,1,,,,,,,,,
293176,2022-09-30_10h07.59.177,vts_reward_expectancy,2022.2.4,MacIntel,60.0024001,Chrome,1470,956,,,,,1,762,,,,,,,,,,,,,,,,,174,S,circle,1,0,,,,,,,,,,,,,,,,switch,number,numSwt,f,Hi,,,,,,0.55,0,,,,,,,,low,25,0,25,0,1,,,,,,,,,
293176,2022-09-30_10h07.59.177,vts_reward_expectancy,2022.2.4,MacIntel,60.0024001,Chrome,1470,956,,,,,0,762,,,,,,,,,,,,,,,,,167,D,circle,1,0,,,,,,,,,,,,,,,,repeat,number,numRpt,f,Hi,,,,,,1.1823,0,,,,,,,,low,26,0,26,0,1,,,,,,,,,
293176,2022-09-30_10h07.59.177,vts_reward_expectancy,2022.2.4,MacIntel,60.0024001,Chrome,1470,956,,,,,1,763,,,,,,,,,,,,,,,,,125,H,star,1,0,,,,,,,,,,,,,,,,switch,letter,lettSwt,j,Lo,,,,,,1.4844,0,,,,,,,,low,27,0,27,0,1,,,,,,,,,
293176,2022-09-30_10h07.59.177,vts_reward_expectancy,2022.2.4,MacIntel,60.0024001,Chrome,1470,956,,,,,1,764,,,,,,,,,,,,,,,,,160,W,star,1,0,,,,,,,,,,,,,,,,repeat,letter,lettRpt,k,Lo,,,,,,0.7009,0,,,,,,,,low,28,0,28,0,1,,,,,,,,,
293176,2022-09-30_10h07.59.177,vts_reward_expectancy,2022.2.4,MacIntel,60.0024001,Chrome,1470,956,,,,,0,764,,,,,,,,,,,,,,,,,146,F,circle,1,0,,,,,,,,,,,,,,,,switch,number,numSwt,d,Hi,,,,,,1.1976,0,,,,,,,,low,29,0,29,0,1,,,,,,,,,
293176,2022-09-30_10h07.59.177,vts_reward_expectancy,2022.2.4,MacIntel,60.0024001,Chrome,1470,956,,,,,1,765,,,,,,,,,,,,,,,,,139,B,star,1,0,,,,,,,,,,,,,,,,repeat,number,numRpt,d,Lo,,,,,,0.6159,0,,,,,,,,low,30,0,30,0,1,,,,,,,,,
293176,2022-09-30_10h07.59.177,vts_reward_expectancy,2022.2.4,MacIntel,60.0024001,Chrome,1470,956,,,,,1,766,,,,,,,,,,,,,,,,,132,Y,circle,1,0,,,,,,,,,,,,,,,,repeat,number,numRpt,d,Hi,,,,,,0.6214,0,,,,,,,,low,31,0,31,0,1,,,,,,,,,
293176,2022-09-30_10h07.59.177,vts_reward_expectancy,2022.2.4,MacIntel,60.0024001,Chrome,1470,956,,,,,0,766,,,,,,,,,,,,,,,,,167,H,circle,1,0,,,,,,,,,,,,,,,,repeat,number,numRpt,f,Hi,,,,,,0.6987,1,,,,,,space,2.6638,low,0,0,0,0,1,,,,,,,,,
293176,2022-09-30_10h07.59.177,vts_reward_expectancy,2022.2.4,MacIntel,60.0024001,Chrome,1470,956,,,,,1,767,,,,,,,,,,,,,,,,,132,Y,star,1,0,,,,,,,,,,,,,,,,switch,letter,lettSwt,k,Lo,,,,,,0.5445,1,,,,,,,,low,1,0,1,0,1,,,,,,,,,
293176,2022-09-30_10h07.59.177,vts_reward_expectancy,2022.2.4,MacIntel,60.0024001,Chrome,1470,956,,,,,1,768,,,,,,,,,,,,,,,,,174,W,circle,1,0,,,,,,,,,,,,,,,,switch,number,numSwt,f,Hi,,,,,,0.7403,1,,,,,,,,low,2,0,2,0,1,,,,,,,,,
293176,2022-09-30_10h07.59.177,vts_reward_expectancy,2022.2.4,MacIntel,60.0024001,Chrome,1470,956,,,,,1,769,,,,,,,,,,,,,,,,,125,S,star,1,0,,,,,,,,,,,,,,,,switch,letter,lettSwt,k,Lo,,,,,,0.73,1,,,,,,,,low,3,0,3,0,1,,,,,,,,,
293176,2022-09-30_10h07.59.177,vts_reward_expectancy,2022.2.4,MacIntel,60.0024001,Chrome,1470,956,,,,,1,770,,,,,,,,,,,,,,,,,181,F,circle,1,0,,,,,,,,,,,,,,,,switch,number,numSwt,f,Hi,,,,,,0.6361,1,,,,,,,,low,4,0,4,0,1,,,,,,,,,
293176,2022-09-30_10h07.59.177,vts_reward_expectancy,2022.2.4,MacIntel,60.0024001,Chrome,1470,956,,,,,1,771,,,,,,,,,,,,,,,,,146,D,star,1,0,,,,,,,,,,,,,,,,switch,letter,lettSwt,j,Lo,,,,,,0.9301,1,,,,,,,,low,5,0,5,0,1,,,,,,,,,
293176,2022-09-30_10h07.59.177,vts_reward_expectancy,2022.2.4,MacIntel,60.0024001,Chrome,1470,956,,,,,1,772,,,,,,,,,,,,,,,,,160,B,star,1,0,,,,,,,,,,,,,,,,repeat,letter,lettRpt,j,Lo,,,,,,0.5771,1,,,,,,,,low,6,0,6,0,1,,,,,,,,,
293176,2022-09-30_10h07.59.177,vts_reward_expectancy,2022.2.4,MacIntel,60.0024001,Chrome,1470,956,,,,,1,773,,,,,,,,,,,,,,,,,139,U,circle,1,0,,,,,,,,,,,,,,,,repeat,letter,lettRpt,k,Hi,,,,,,0.6143,1,,,,,,,,low,7,0,7,0,1,,,,,,,,,
293176,2022-09-30_10h07.59.177,vts_reward_expectancy,2022.2.4,MacIntel,60.0024001,Chrome,1470,956,,,,,10,783,,,,,,,,,,,,,,,,,167,H,circle,1,0,,,,,,,,,,,,,,,,switch,number,numSwt,f,Hi,,,,,,0.6892,1,,,,,,,,low,8,0,8,0,1,,,,,,,,,
293176,2022-09-30_10h07.59.177,vts_reward_expectancy,2022.2.4,MacIntel,60.0024001,Chrome,1470,956,,,,,10,793,,,,,,,,,,,,,,,,,132,Y,star,1,0,,,,,,,,,,,,,,,,repeat,number,numRpt,d,Lo,,,,,,0.6621,1,,,,,,,,low,9,0,9,0,1,,,,,,,,,
293176,2022-09-30_10h07.59.177,vts_reward_expectancy,2022.2.4,MacIntel,60.0024001,Chrome,1470,956,,,,,1,794,,,,,,,,,,,,,,,,,174,W,star,1,0,,,,,,,,,,,,,,,,switch,letter,lettSwt,k,Lo,,,,,,0.7046,1,,,,,,,,low,10,0,10,0,1,,,,,,,,,
293176,2022-09-30_10h07.59.177,vts_reward_expectancy,2022.2.4,MacIntel,60.0024001,Chrome,1470,956,,,,,10,804,,,,,,,,,,,,,,,,,125,S,circle,1,0,,,,,,,,,,,,,,,,switch,number,numSwt,d,Hi,,,,,,0.6956,1,,,,,,,,low,11,0,11,0,1,,,,,,,,,
293176,2022-09-30_10h07.59.177,vts_reward_expectancy,2022.2.4,MacIntel,60.0024001,Chrome,1470,956,,,,,0,804,,,,,,,,,,,,,,,,,181,F,circle,0,0,,,,,,,,,,,,,,,,repeat,number,NA,d,Hi,,,,,,0.5137,1,,,,,,,,low,12,0,12,0,1,,,,,,,,,
293176,2022-09-30_10h07.59.177,vts_reward_expectancy,2022.2.4,MacIntel,60.0024001,Chrome,1470,956,,,,,1,805,,,,,,,,,,,,,,,,,146,D,star,1,1,,,,,,,,,,,,,,,,repeat,number,numRpt,d,Lo,,,,,,0.689,1,,,,,,,,low,13,0,13,0,1,,,,,,,,,
293176,2022-09-30_10h07.59.177,vts_reward_expectancy,2022.2.4,MacIntel,60.0024001,Chrome,1470,956,,,,,0,805,,,,,,,,,,,,,,,,,160,B,circle,1,0,,,,,,,,,,,,,,,,repeat,number,numRpt,f,Hi,,,,,,0.7135,1,,,,,,,,low,14,0,14,0,1,,,,,,,,,
293176,2022-09-30_10h07.59.177,vts_reward_expectancy,2022.2.4,MacIntel,60.0024001,Chrome,1470,956,,,,,1,806,,,,,,,,,,,,,,,,,139,U,star,1,0,,,,,,,,,,,,,,,,switch,letter,lettSwt,k,Lo,,,,,,0.5629,1,,,,,,,,low,15,0,15,0,1,,,,,,,,,
293176,2022-09-30_10h07.59.177,vts_reward_expectancy,2022.2.4,MacIntel,60.0024001,Chrome,1470,956,,,,,1,807,,,,,,,,,,,,,,,,,125,F,circle,1,0,,,,,,,,,,,,,,,,repeat,letter,lettRpt,j,Hi,,,,,,0.6705,1,,,,,,,,low,16,0,16,0,1,,,,,,,,,
293176,2022-09-30_10h07.59.177,vts_reward_expectancy,2022.2.4,MacIntel,60.0024001,Chrome,1470,956,,,,,1,808,,,,,,,,,,,,,,,,,139,S,star,1,0,,,,,,,,,,,,,,,,switch,number,numSwt,d,Lo,,,,,,0.7134,1,,,,,,,,low,17,0,17,0,1,,,,,,,,,
293176,2022-09-30_10h07.59.177,vts_reward_expectancy,2022.2.4,MacIntel,60.0024001,Chrome,1470,956,,,,,0,808,,,,,,,,,,,,,,,,,181,W,circle,1,0,,,,,,,,,,,,,,,,switch,letter,lettSwt,k,Hi,,,,,,0.766,1,,,,,,,,low,18,0,18,0,1,,,,,,,,,
293176,2022-09-30_10h07.59.177,vts_reward_expectancy,2022.2.4,MacIntel,60.0024001,Chrome,1470,956,,,,,1,809,,,,,,,,,,,,,,,,,146,H,star,1,0,,,,,,,,,,,,,,,,switch,number,numSwt,d,Lo,,,,,,0.7036,1,,,,,,,,low,19,0,19,0,1,,,,,,,,,
293176,2022-09-30_10h07.59.177,vts_reward_expectancy,2022.2.4,MacIntel,60.0024001,Chrome,1470,956,,,,,0,809,,,,,,,,,,,,,,,,,167,B,star,0,0,,,,,,,,,,,,,,,,repeat,number,NA,d,Lo,,,,,,1.164,1,,,,,,,,low,20,0,20,0,1,,,,,,,,,
293176,2022-09-30_10h07.59.177,vts_reward_expectancy,2022.2.4,MacIntel,60.0024001,Chrome,1470,956,,,,,0,809,,,,,,,,,,,,,,,,,160,D,circle,1,1,,,,,,,,,,,,,,,,switch,letter,lettSwt,j,Hi,,,,,,0.7955,1,,,,,,,,low,21,0,21,0,1,,,,,,,,,
293176,2022-09-30_10h07.59.177,vts_reward_expectancy,2022.2.4,MacIntel,60.0024001,Chrome,1470,956,,,,,10,819,,,,,,,,,,,,,,,,,174,Y,circle,1,0,,,,,,,,,,,,,,,,switch,number,numSwt,f,Hi,,,,,,0.6978,1,,,,,,,,low,22,0,22,0,1,,,,,,,,,
293176,2022-09-30_10h07.59.177,vts_reward_expectancy,2022.2.4,MacIntel,60.0024001,Chrome,1470,956,,,,,10,829,,,,,,,,,,,,,,,,,132,U,star,1,0,,,,,,,,,,,,,,,,switch,letter,lettSwt,k,Lo,,,,,,0.6974,1,,,,,,,,low,23,0,23,0,1,,,,,,,,,
293176,2022-09-30_10h07.59.177,vts_reward_expectancy,2022.2.4,MacIntel,60.0024001,Chrome,1470,956,,,,,1,830,,,,,,,,,,,,,,,,,181,H,circle,1,0,,,,,,,,,,,,,,,,switch,number,numSwt,f,Hi,,,,,,0.6286,1,,,,,,,,low,24,0,24,0,1,,,,,,,,,
293176,2022-09-30_10h07.59.177,vts_reward_expectancy,2022.2.4,MacIntel,60.0024001,Chrome,1470,956,,,,,10,840,,,,,,,,,,,,,,,,,174,B,star,1,0,,,,,,,,,,,,,,,,switch,letter,lettSwt,j,Lo,,,,,,0.7122,1,,,,,,,,low,25,0,25,0,1,,,,,,,,,
293176,2022-09-30_10h07.59.177,vts_reward_expectancy,2022.2.4,MacIntel,60.0024001,Chrome,1470,956,,,,,10,850,,,,,,,,,,,,,,,,,146,D,star,1,0,,,,,,,,,,,,,,,,switch,number,numSwt,d,Lo,,,,,,0.757,1,,,,,,,,low,26,0,26,0,1,,,,,,,,,
293176,2022-09-30_10h07.59.177,vts_reward_expectancy,2022.2.4,MacIntel,60.0024001,Chrome,1470,956,,,,,0,850,,,,,,,,,,,,,,,,,139,U,circle,1,0,,,,,,,,,,,,,,,,repeat,number,numRpt,d,Hi,,,,,,1.061,1,,,,,,,,low,27,0,27,0,1,,,,,,,,,
293176,2022-09-30_10h07.59.177,vts_reward_expectancy,2022.2.4,MacIntel,60.0024001,Chrome,1470,956,,,,,1,851,,,,,,,,,,,,,,,,,167,Y,star,1,0,,,,,,,,,,,,,,,,repeat,number,numRpt,f,Lo,,,,,,1.2633,1,,,,,,,,low,28,0,28,0,1,,,,,,,,,
293176,2022-09-30_10h07.59.177,vts_reward_expectancy,2022.2.4,MacIntel,60.0024001,Chrome,1470,956,,,,,0,851,,,,,,,,,,,,,,,,,125,S,circle,1,0,,,,,,,,,,,,,,,,repeat,number,numRpt,d,Hi,,,,,,0.9665,1,,,,,,,,low,29,0,29,0,1,,,,,,,,,
293176,2022-09-30_10h07.59.177,vts_reward_expectancy,2022.2.4,MacIntel,60.0024001,Chrome,1470,956,,,,,0,851,,,,,,,,,,,,,,,,,132,W,circle,1,0,,,,,,,,,,,,,,,,switch,letter,lettSwt,k,Hi,,,,,,1.0135,1,,,,,,,,low,30,0,30,0,1,,,,,,,,,
293176,2022-09-30_10h07.59.177,vts_reward_expectancy,2022.2.4,MacIntel,60.0024001,Chrome,1470,956,,,,,1,852,,,,,,,,,,,,,,,,,160,F,star,1,0,,,,,,,,,,,,,,,,switch,number,numSwt,f,Lo,,,,,,0.5168,1,,,,,,,,low,31,0,31,0,1,,,,,,,,,
293176,2022-09-30_10h07.59.177,vts_reward_expectancy,2022.2.4,MacIntel,60.0024001,Chrome,1470,956,,,,,1,853,,,,,,,,,,,,,,,,,139,S,hexagon,1,0,,,,,,,,,,,,,,,,repeat,number,numRpt,d,Lo,,,,,,0.7562,2,,,,,,space,4.756,high,0,0,0,0,1,,,,,,,,,
293176,2022-09-30_10h07.59.177,vts_reward_expectancy,2022.2.4,MacIntel,60.0024001,Chrome,1470,956,,,,,0,853,,,,,,,,,,,,,,,,,167,D,triangle,1,0,,,,,,,,,,,,,,,,repeat,number,numRpt,f,Hi,,,,,,0.8442,2,,,,,,,,high,1,0,1,0,1,,,,,,,,,
293176,2022-09-30_10h07.59.177,vts_reward_expectancy,2022.2.4,MacIntel,60.0024001,Chrome,1470,956,,,,,1,854,,,,,,,,,,,,,,,,,132,W,hexagon,1,0,,,,,,,,,,,,,,,,switch,letter,lettSwt,k,Lo,,,,,,0.678,2,,,,,,,,high,2,0,2,0,1,,,,,,,,,
293176,2022-09-30_10h07.59.177,vts_reward_expectancy,2022.2.4,MacIntel,60.0024001,Chrome,1470,956,,,,,10,864,,,,,,,,,,,,,,,,,160,F,triangle,1,0,,,,,,,,,,,,,,,,switch,number,numSwt,f,Hi,,,,,,0.6203,2,,,,,,,,high,3,0,3,0,1,,,,,,,,,
293176,2022-09-30_10h07.59.177,vts_reward_expectancy,2022.2.4,MacIntel,60.0024001,Chrome,1470,956,,,,,1,865,,,,,,,,,,,,,,,,,181,U,hexagon,1,0,,,,,,,,,,,,,,,,switch,letter,lettSwt,k,Lo,,,,,,0.7459,2,,,,,,,,high,4,0,4,0,1,,,,,,,,,
293176,2022-09-30_10h07.59.177,vts_reward_expectancy,2022.2.4,MacIntel,60.0024001,Chrome,1470,956,,,,,0,865,,,,,,,,,,,,,,,,,174,H,triangle,0,0,,,,,,,,,,,,,,,,repeat,letter,NA,k,Lo,,,,,,0.4674,2,,,,,,,,high,5,0,5,0,1,,,,,,,,,
293176,2022-09-30_10h07.59.177,vts_reward_expectancy,2022.2.4,MacIntel,60.0024001,Chrome,1470,956,,,,,10,875,,,,,,,,,,,,,,,,,146,B,triangle,1,1,,,,,,,,,,,,,,,,repeat,letter,lettRpt,j,Hi,,,,,,0.5354,2,,,,,,,,high,6,0,6,0,1,,,,,,,,,
293176,2022-09-30_10h07.59.177,vts_reward_expectancy,2022.2.4,MacIntel,60.0024001,Chrome,1470,956,,,,,10,885,,,,,,,,,,,,,,,,,125,Y,hexagon,1,0,,,,,,,,,,,,,,,,switch,number,numSwt,d,Lo,,,,,,0.68,2,,,,,,,,high,7,0,7,0,1,,,,,,,,,
293176,2022-09-30_10h07.59.177,vts_reward_expectancy,2022.2.4,MacIntel,60.0024001,Chrome,1470,956,,,,,1,886,,,,,,,,,,,,,,,,,139,S,hexagon,1,0,,,,,,,,,,,,,,,,switch,letter,lettSwt,k,Lo,,,,,,0.6504,2,,,,,,,,high,8,0,8,0,1,,,,,,,,,
293176,2022-09-30_10h07.59.177,vts_reward_expectancy,2022.2.4,MacIntel,60.0024001,Chrome,1470,956,,,,,0,886,,,,,,,,,,,,,,,,,167,D,triangle,1,0,,,,,,,,,,,,,,,,repeat,letter,lettRpt,j,Hi,,,,,,0.6141,2,,,,,,,,high,9,0,9,0,1,,,,,,,,,
293176,2022-09-30_10h07.59.177,vts_reward_expectancy,2022.2.4,MacIntel,60.0024001,Chrome,1470,956,,,,,1,887,,,,,,,,,,,,,,,,,132,W,hexagon,1,0,,,,,,,,,,,,,,,,switch,number,numSwt,d,Lo,,,,,,0.7465,2,,,,,,,,high,10,0,10,0,1,,,,,,,,,
293176,2022-09-30_10h07.59.177,vts_reward_expectancy,2022.2.4,MacIntel,60.0024001,Chrome,1470,956,,,,,10,897,,,,,,,,,,,,,,,,,160,F,triangle,1,0,,,,,,,,,,,,,,,,repeat,number,numRpt,f,Hi,,,,,,0.5147,2,,,,,,,,high,11,0,11,0,1,,,,,,,,,
293176,2022-09-30_10h07.59.177,vts_reward_expectancy,2022.2.4,MacIntel,60.0024001,Chrome,1470,956,,,,,1,898,,,,,,,,,,,,,,,,,181,U,hexagon,1,0,,,,,,,,,,,,,,,,repeat,number,numRpt,f,Lo,,,,,,0.5803,2,,,,,,,,high,12,0,12,0,1,,,,,,,,,
293176,2022-09-30_10h07.59.177,vts_reward_expectancy,2022.2.4,MacIntel,60.0024001,Chrome,1470,956,,,,,0,898,,,,,,,,,,,,,,,,,174,H,triangle,1,0,,,,,,,,,,,,,,,,switch,letter,lettSwt,j,Hi,,,,,,0.7979,2,,,,,,,,high,13,0,13,0,1,,,,,,,,,
293176,2022-09-30_10h07.59.177,vts_reward_expectancy,2022.2.4,MacIntel,60.0024001,Chrome,1470,956,,,,,1,899,,,,,,,,,,,,,,,,,146,B,hexagon,1,0,,,,,,,,,,,,,,,,switch,number,numSwt,d,Lo,,,,,,0.4813,2,,,,,,,,high,14,0,14,0,1,,,,,,,,,
293176,2022-09-30_10h07.59.177,vts_reward_expectancy,2022.2.4,MacIntel,60.0024001,Chrome,1470,956,,,,,10,909,,,,,,,,,,,,,,,,,125,Y,triangle,1,0,,,,,,,,,,,,,,,,repeat,number,numRpt,d,Hi,,,,,,0.5643,2,,,,,,,,high,15,0,15,0,1,,,,,,,,,
293176,2022-09-30_10h07.59.177,vts_reward_expectancy,2022.2.4,MacIntel,60.0024001,Chrome,1470,956,,,,,10,919,,,,,,,,,,,,,,,,,167,D,hexagon,1,0,,,,,,,,,,,,,,,,switch,letter,lettSwt,j,Lo,,,,,,0.5839,2,,,,,,,,high,16,0,16,0,1,,,,,,,,,
293176,2022-09-30_10h07.59.177,vts_reward_expectancy,2022.2.4,MacIntel,60.0024001,Chrome,1470,956,,,,,10,929,,,,,,,,,,,,,,,,,174,W,triangle,1,0,,,,,,,,,,,,,,,,repeat,letter,lettRpt,k,Hi,,,,,,0.467,2,,,,,,,,high,17,0,17,0,1,,,,,,,,,
293176,2022-09-30_10h07.59.177,vts_reward_expectancy,2022.2.4,MacIntel,60.0024001,Chrome,1470,956,,,,,1,930,,,,,,,,,,,,,,,,,160,F,hexagon,1,0,,,,,,,,,,,,,,,,repeat,letter,lettRpt,j,Lo,,,,,,0.6059,2,,,,,,,,high,18,0,18,0,1,,,,,,,,,
293176,2022-09-30_10h07.59.177,vts_reward_expectancy,2022.2.4,MacIntel,60.0024001,Chrome,1470,956,,,,,1,931,,,,,,,,,,,,,,,,,125,Y,triangle,1,0,,,,,,,,,,,,,,,,switch,number,numSwt,d,Hi,,,,,,0.639,2,,,,,,,,high,19,0,19,0,1,,,,,,,,,
293176,2022-09-30_10h07.59.177,vts_reward_expectancy,2022.2.4,MacIntel,60.0024001,Chrome,1470,956,,,,,1,932,,,,,,,,,,,,,,,,,139,B,hexagon,1,0,,,,,,,,,,,,,,,,switch,letter,lettSwt,j,Lo,,,,,,0.5571,2,,,,,,,,high,20,0,20,0,1,,,,,,,,,
293176,2022-09-30_10h07.59.177,vts_reward_expectancy,2022.2.4,MacIntel,60.0024001,Chrome,1470,956,,,,,1,933,,,,,,,,,,,,,,,,,181,U,triangle,1,0,,,,,,,,,,,,,,,,switch,number,numSwt,f,Hi,,,,,,0.5359,2,,,,,,,,high,21,0,21,0,1,,,,,,,,,
293176,2022-09-30_10h07.59.177,vts_reward_expectancy,2022.2.4,MacIntel,60.0024001,Chrome,1470,956,,,,,10,943,,,,,,,,,,,,,,,,,146,H,hexagon,1,0,,,,,,,,,,,,,,,,repeat,number,numRpt,d,Lo,,,,,,0.6788,2,,,,,,,,high,22,0,22,0,1,,,,,,,,,
293176,2022-09-30_10h07.59.177,vts_reward_expectancy,2022.2.4,MacIntel,60.0024001,Chrome,1470,956,,,,,1,944,,,,,,,,,,,,,,,,,132,S,triangle,1,0,,,,,,,,,,,,,,,,repeat,number,numRpt,d,Hi,,,,,,0.5223,2,,,,,,,,high,23,0,23,0,1,,,,,,,,,
293176,2022-09-30_10h07.59.177,vts_reward_expectancy,2022.2.4,MacIntel,60.0024001,Chrome,1470,956,,,,,1,945,,,,,,,,,,,,,,,,,160,D,hexagon,1,0,,,,,,,,,,,,,,,,switch,letter,lettSwt,j,Lo,,,,,,0.5895,2,,,,,,,,high,24,0,24,0,1,,,,,,,,,
293176,2022-09-30_10h07.59.177,vts_reward_expectancy,2022.2.4,MacIntel,60.0024001,Chrome,1470,956,,,,,0,945,,,,,,,,,,,,,,,,,139,W,triangle,1,0,,,,,,,,,,,,,,,,repeat,letter,lettRpt,k,Hi,,,,,,0.9065,2,,,,,,,,high,25,0,25,0,1,,,,,,,,,
293176,2022-09-30_10h07.59.177,vts_reward_expectancy,2022.2.4,MacIntel,60.0024001,Chrome,1470,956,,,,,1,946,,,,,,,,,,,,,,,,,181,U,hexagon,1,0,,,,,,,,,,,,,,,,switch,number,numSwt,f,Lo,,,,,,0.874,2,,,,,,,,high,26,0,26,0,1,,,,,,,,,
293176,2022-09-30_10h07.59.177,vts_reward_expectancy,2022.2.4,MacIntel,60.0024001,Chrome,1470,956,,,,,10,956,,,,,,,,,,,,,,,,,174,H,triangle,1,0,,,,,,,,,,,,,,,,switch,letter,lettSwt,j,Hi,,,,,,0.6006,2,,,,,,,,high,27,0,27,0,1,,,,,,,,,
293176,2022-09-30_10h07.59.177,vts_reward_expectancy,2022.2.4,MacIntel,60.0024001,Chrome,1470,956,,,,,10,966,,,,,,,,,,,,,,,,,146,S,triangle,1,0,,,,,,,,,,,,,,,,switch,number,numSwt,d,Hi,,,,,,0.4823,2,,,,,,,,high,28,0,28,0,1,,,,,,,,,
293176,2022-09-30_10h07.59.177,vts_reward_expectancy,2022.2.4,MacIntel,60.0024001,Chrome,1470,956,,,,,1,967,,,,,,,,,,,,,,,,,167,F,hexagon,1,0,,,,,,,,,,,,,,,,repeat,number,numRpt,f,Lo,,,,,,0.645,2,,,,,,,,high,29,0,29,0,1,,,,,,,,,
293176,2022-09-30_10h07.59.177,vts_reward_expectancy,2022.2.4,MacIntel,60.0024001,Chrome,1470,956,,,,,1,968,,,,,,,,,,,,,,,,,125,Y,hexagon,1,0,,,,,,,,,,,,,,,,switch,letter,lettSwt,k,Lo,,,,,,0.6307,2,,,,,,,,high,30,0,30,0,1,,,,,,,,,
293176,2022-09-30_10h07.59.177,vts_reward_expectancy,2022.2.4,MacIntel,60.0024001,Chrome,1470,956,,,,,0,968,,,,,,,,,,,,,,,,,132,B,triangle,1,0,,,,,,,,,,,,,,,,switch,number,numSwt,d,Hi,,,,,,0.8435,2,,,,,,,,high,31,0,31,0,1,,,,,,,,,
293176,2022-09-30_10h07.59.177,vts_reward_expectancy,2022.2.4,MacIntel,60.0024001,Chrome,1470,956,,,,,1,969,,,,,,,,,,,,,,,,,167,H,hexagon,1,0,,,,,,,,,,,,,,,,repeat,number,numRpt,f,Lo,,,,,,0.6999,3,,,,,,space,1.9857,high,0,0,0,0,1,,,,,,,,,
293176,2022-09-30_10h07.59.177,vts_reward_expectancy,2022.2.4,MacIntel,60.0024001,Chrome,1470,956,,,,,0,969,,,,,,,,,,,,,,,,,160,S,triangle,1,0,,,,,,,,,,,,,,,,switch,letter,lettSwt,k,Hi,,,,,,0.6136,3,,,,,,,,high,1,0,1,0,1,,,,,,,,,
293176,2022-09-30_10h07.59.177,vts_reward_expectancy,2022.2.4,MacIntel,60.0024001,Chrome,1470,956,,,,,1,970,,,,,,,,,,,,,,,,,146,Y,hexagon,1,0,,,,,,,,,,,,,,,,repeat,letter,lettRpt,k,Lo,,,,,,0.9782,3,,,,,,,,high,2,0,2,0,1,,,,,,,,,
293176,2022-09-30_10h07.59.177,vts_reward_expectancy,2022.2.4,MacIntel,60.0024001,Chrome,1470,956,,,,,0,970,,,,,,,,,,,,,,,,,139,D,triangle,0,0,,,,,,,,,,,,,,,,repeat,letter,NA,k,Lo,,,,,,0.454,3,,,,,,,,high,3,0,3,0,1,,,,,,,,,
293176,2022-09-30_10h07.59.177,vts_reward_expectancy,2022.2.4,MacIntel,60.0024001,Chrome,1470,956,,,,,0,970,,,,,,,,,,,,,,,,,174,U,triangle,1,1,,,,,,,,,,,,,,,,repeat,letter,lettRpt,k,Hi,,,,,,0.5806,3,,,,,,,,high,4,0,4,0,1,,,,,,,,,
293176,2022-09-30_10h07.59.177,vts_reward_expectancy,2022.2.4,MacIntel,60.0024001,Chrome,1470,956,,,,,10,980,,,,,,,,,,,,,,,,,181,B,hexagon,1,0,,,,,,,,,,,,,,,,switch,number,numSwt,f,Lo,,,,,,0.5885,3,,,,,,,,high,5,0,5,0,1,,,,,,,,,
293176,2022-09-30_10h07.59.177,vts_reward_expectancy,2022.2.4,MacIntel,60.0024001,Chrome,1470,956,,,,,0,980,,,,,,,,,,,,,,,,,125,W,triangle,1,0,,,,,,,,,,,,,,,,repeat,number,numRpt,d,Hi,,,,,,0.6158,3,,,,,,,,high,6,0,6,0,1,,,,,,,,,
293176,2022-09-30_10h07.59.177,vts_reward_expectancy,2022.2.4,MacIntel,60.0024001,Chrome,1470,956,,,,,1,981,,,,,,,,,,,,,,,,,132,F,hexagon,1,0,,,,,,,,,,,,,,,,repeat,number,numRpt,d,Lo,,,,,,0.7114,3,,,,,,,,high,7,0,7,0,1,,,,,,,,,
293176,2022-09-30_10h07.59.177,vts_reward_expectancy,2022.2.4,MacIntel,60.0024001,Chrome,1470,956,,,,,0,981,,,,,,,,,,,,,,,,,167,H,triangle,1,0,,,,,,,,,,,,,,,,switch,letter,lettSwt,j,Hi,,,,,,0.7376,3,,,,,,,,high,8,0,8,0,1,,,,,,,,,
293176,2022-09-30_10h07.59.177,vts_reward_expectancy,2022.2.4,MacIntel,60.0024001,Chrome,1470,956,,,,,1,982,,,,,,,,,,,,,,,,,160,S,hexagon,1,0,,,,,,,,,,,,,,,,repeat,letter,lettRpt,k,Lo,,,,,,0.5315,3,,,,,,,,high,9,0,9,0,1,,,,,,,,,
293176,2022-09-30_10h07.59.177,vts_reward_expectancy,2022.2.4,MacIntel,60.0024001,Chrome,1470,956,,,,,1,983,,,,,,,,,,,,,,,,,146,Y,hexagon,1,0,,,,,,,,,,,,,,,,repeat,letter,lettRpt,k,Lo,,,,,,0.4983,3,,,,,,,,high,10,0,10,0,1,,,,,,,,,
293176,2022-09-30_10h07.59.177,vts_reward_expectancy,2022.2.4,MacIntel,60.0024001,Chrome,1470,956,,,,,0,983,,,,,,,,,,,,,,,,,139,D,triangle,1,0,,,,,,,,,,,,,,,,switch,number,numSwt,d,Hi,,,,,,0.8392,3,,,,,,,,high,11,0,11,0,1,,,,,,,,,
293176,2022-09-30_10h07.59.177,vts_reward_expectancy,2022.2.4,MacIntel,60.0024001,Chrome,1470,956,,,,,1,984,,,,,,,,,,,,,,,,,174,U,hexagon,1,0,,,,,,,,,,,,,,,,repeat,number,numRpt,f,Lo,,,,,,0.8811,3,,,,,,,,high,12,0,12,0,1,,,,,,,,,
293176,2022-09-30_10h07.59.177,vts_reward_expectancy,2022.2.4,MacIntel,60.0024001,Chrome,1470,956,,,,,0,984,,,,,,,,,,,,,,,,,181,B,triangle,0,0,,,,,,,,,,,,,,,,switch,letter,NA,k,Lo,,,,,,0.4658,3,,,,,,,,high,13,0,13,0,1,,,,,,,,,
293176,2022-09-30_10h07.59.177,vts_reward_expectancy,2022.2.4,MacIntel,60.0024001,Chrome,1470,956,,,,,1,985,,,,,,,,,,,,,,,,,125,W,triangle,1,1,,,,,,,,,,,,,,,,switch,number,numSwt,d,Hi,,,,,,0.5198,3,,,,,,,,high,14,0,14,0,1,,,,,,,,,
293176,2022-09-30_10h07.59.177,vts_reward_expectancy,2022.2.4,MacIntel,60.0024001,Chrome,1470,956,,,,,1,986,,,,,,,,,,,,,,,,,132,F,hexagon,1,0,,,,,,,,,,,,,,,,repeat,number,numRpt,d,Lo,,,,,,0.5573,3,,,,,,,,high,15,0,15,0,1,,,,,,,,,
293176,2022-09-30_10h07.59.177,vts_reward_expectancy,2022.2.4,MacIntel,60.0024001,Chrome,1470,956,,,,,1,987,,,,,,,,,,,,,,,,,139,S,hexagon,1,0,,,,,,,,,,,,,,,,switch,letter,lettSwt,k,Lo,,,,,,0.7026,3,,,,,,,,high,16,0,16,0,1,,,,,,,,,
293176,2022-09-30_10h07.59.177,vts_reward_expectancy,2022.2.4,MacIntel,60.0024001,Chrome,1470,956,,,,,10,997,,,,,,,,,,,,,,,,,167,D,triangle,1,0,,,,,,,,,,,,,,,,repeat,letter,lettRpt,j,Hi,,,,,,0.4071,3,,,,,,,,high,17,0,17,0,1,,,,,,,,,
293176,2022-09-30_10h07.59.177,vts_reward_expectancy,2022.2.4,MacIntel,60.0024001,Chrome,1470,956,,,,,1,998,,,,,,,,,,,,,,,,,181,W,hexagon,1,0,,,,,,,,,,,,,,,,repeat,letter,lettRpt,k,Lo,,,,,,0.5384,3,,,,,,,,high,18,0,18,0,1,,,,,,,,,
293176,2022-09-30_10h07.59.177,vts_reward_expectancy,2022.2.4,MacIntel,60.0024001,Chrome,1470,956,,,,,1,999,,,,,,,,,,,,,,,,,146,B,triangle,1,0,,,,,,,,,,,,,,,,repeat,letter,lettRpt,j,Hi,,,,,,0.4487,3,,,,,,,,high,19,0,19,0,1,,,,,,,,,
293176,2022-09-30_10h07.59.177,vts_reward_expectancy,2022.2.4,MacIntel,60.0024001,Chrome,1470,956,,,,,0,999,,,,,,,,,,,,,,,,,132,F,triangle,1,0,,,,,,,,,,,,,,,,switch,number,numSwt,d,Hi,,,,,,0.7481,3,,,,,,,,high,20,0,20,0,1,,,,,,,,,
293176,2022-09-30_10h07.59.177,vts_reward_expectancy,2022.2.4,MacIntel,60.0024001,Chrome,1470,956,,,,,1,1000,,,,,,,,,,,,,,,,,125,U,hexagon,1,0,,,,,,,,,,,,,,,,repeat,number,numRpt,d,Lo,,,,,,0.57,3,,,,,,,,high,21,0,21,0,1,,,,,,,,,
293176,2022-09-30_10h07.59.177,vts_reward_expectancy,2022.2.4,MacIntel,60.0024001,Chrome,1470,956,,,,,1,1001,,,,,,,,,,,,,,,,,160,Y,hexagon,1,0,,,,,,,,,,,,,,,,repeat,number,numRpt,f,Lo,,,,,,0.6518,3,,,,,,,,high,22,0,22,0,1,,,,,,,,,
293176,2022-09-30_10h07.59.177,vts_reward_expectancy,2022.2.4,MacIntel,60.0024001,Chrome,1470,956,,,,,0,1001,,,,,,,,,,,,,,,,,174,H,triangle,0,0,,,,,,,,,,,,,,,,switch,letter,NA,k,Lo,,,,,,0.332,3,,,,,,,,high,23,0,23,0,1,,,,,,,,,
293176,2022-09-30_10h07.59.177,vts_reward_expectancy,2022.2.4,MacIntel,60.0024001,Chrome,1470,956,,,,,10,1011,,,,,,,,,,,,,,,,,167,H,triangle,1,1,,,,,,,,,,,,,,,,repeat,letter,lettRpt,j,Hi,,,,,,0.3653,3,,,,,,,,high,24,0,24,0,1,,,,,,,,,
293176,2022-09-30_10h07.59.177,vts_reward_expectancy,2022.2.4,MacIntel,60.0024001,Chrome,1470,956,,,,,10,1021,,,,,,,,,,,,,,,,,146,U,hexagon,1,0,,,,,,,,,,,,,,,,repeat,letter,lettRpt,k,Lo,,,,,,0.4298,3,,,,,,,,high,25,0,25,0,1,,,,,,,,,
293176,2022-09-30_10h07.59.177,vts_reward_expectancy,2022.2.4,MacIntel,60.0024001,Chrome,1470,956,,,,,0,1021,,,,,,,,,,,,,,,,,160,Y,hexagon,0,0,,,,,,,,,,,,,,,,repeat,letter,NA,j,Lo,,,,,,0.2635,3,,,,,,,,high,26,0,26,0,1,,,,,,,,,
293176,2022-09-30_10h07.59.177,vts_reward_expectancy,2022.2.4,MacIntel,60.0024001,Chrome,1470,956,,,,,10,1031,,,,,,,,,,,,,,,,,139,F,triangle,1,1,,,,,,,,,,,,,,,,switch,number,numSwt,d,Hi,,,,,,0.5473,3,,,,,,,,high,27,0,27,0,1,,,,,,,,,
293176,2022-09-30_10h07.59.177,vts_reward_expectancy,2022.2.4,MacIntel,60.0024001,Chrome,1470,956,,,,,1,1032,,,,,,,,,,,,,,,,,132,D,triangle,1,0,,,,,,,,,,,,,,,,repeat,number,numRpt,d,Hi,,,,,,0.5555,3,,,,,,,,high,28,0,28,0,1,,,,,,,,,
293176,2022-09-30_10h07.59.177,vts_reward_expectancy,2022.2.4,MacIntel,60.0024001,Chrome,1470,956,,,,,1,1033,,,,,,,,,,,,,,,,,181,W,hexagon,1,0,,,,,,,,,,,,,,,,switch,letter,lettSwt,k,Lo,,,,,,0.3833,3,,,,,,,,high,29,0,29,0,1,,,,,,,,,
293176,2022-09-30_10h07.59.177,vts_reward_expectancy,2022.2.4,MacIntel,60.0024001,Chrome,1470,956,,,,,0,1033,,,,,,,,,,,,,,,,,125,S,hexagon,0,0,,,,,,,,,,,,,,,,repeat,letter,NA,j,Lo,,,,,,0.2889,3,,,,,,,,high,30,0,30,0,1,,,,,,,,,
293176,2022-09-30_10h07.59.177,vts_reward_expectancy,2022.2.4,MacIntel,60.0024001,Chrome,1470,956,,,,,10,1043,,,,,,,,,,,,,,,,,174,B,triangle,1,1,,,,,,,,,,,,,,,,switch,number,numSwt,f,Hi,,,,,,0.5537,3,,,,,,,,high,31,0,31,0,1,,,,,,,,,
293176,2022-09-30_10h07.59.177,vts_reward_expectancy,2022.2.4,MacIntel,60.0024001,Chrome,1470,956,,,,,0,1043,,,,,,,,,,,,,,,,,132,D,circle,1,0,,,,,,,,,,,,,,,,repeat,number,numRpt,d,Hi,,,,,,0.6294,4,,,,,,space,2.3389,low,0,0,0,0,1,,,,,,,,,
293176,2022-09-30_10h07.59.177,vts_reward_expectancy,2022.2.4,MacIntel,60.0024001,Chrome,1470,956,,,,,1,1044,,,,,,,,,,,,,,,,,125,Y,star,1,0,,,,,,,,,,,,,,,,repeat,number,numRpt,d,Lo,,,,,,0.7116,4,,,,,,,,low,1,0,1,0,1,,,,,,,,,
293176,2022-09-30_10h07.59.177,vts_reward_expectancy,2022.2.4,MacIntel,60.0024001,Chrome,1470,956,,,,,1,1045,,,,,,,,,,,,,,,,,181,S,circle,1,0,,,,,,,,,,,,,,,,repeat,number,numRpt,f,Hi,,,,,,0.4304,4,,,,,,,,low,2,0,2,0,1,,,,,,,,,
293176,2022-09-30_10h07.59.177,vts_reward_expectancy,2022.2.4,MacIntel,60.0024001,Chrome,1470,956,,,,,10,1055,,,,,,,,,,,,,,,,,167,B,star,1,0,,,,,,,,,,,,,,,,repeat,number,numRpt,f,Lo,,,,,,0.4617,4,,,,,,,,low,3,0,3,0,1,,,,,,,,,
293176,2022-09-30_10h07.59.177,vts_reward_expectancy,2022.2.4,MacIntel,60.0024001,Chrome,1470,956,,,,,0,1055,,,,,,,,,,,,,,,,,139,F,star,0,0,,,,,,,,,,,,,,,,switch,letter,NA,k,Lo,,,,,,0.6029,4,,,,,,,,low,4,0,4,0,1,,,,,,,,,
293176,2022-09-30_10h07.59.177,vts_reward_expectancy,2022.2.4,MacIntel,60.0024001,Chrome,1470,956,,,,,10,1065,,,,,,,,,,,,,,,,,146,W,circle,1,1,,,,,,,,,,,,,,,,repeat,letter,lettRpt,k,Hi,,,,,,0.4346,4,,,,,,,,low,5,0,5,0,1,,,,,,,,,
293176,2022-09-30_10h07.59.177,vts_reward_expectancy,2022.2.4,MacIntel,60.0024001,Chrome,1470,956,,,,,1,1066,,,,,,,,,,,,,,,,,174,U,star,1,0,,,,,,,,,,,,,,,,switch,number,numSwt,f,Lo,,,,,,0.5574,4,,,,,,,,low,6,0,6,0,1,,,,,,,,,
293176,2022-09-30_10h07.59.177,vts_reward_expectancy,2022.2.4,MacIntel,60.0024001,Chrome,1470,956,,,,,0,1066,,,,,,,,,,,,,,,,,160,H,circle,0,0,,,,,,,,,,,,,,,,repeat,number,NA,d,Lo,,,,,,0.4368,4,,,,,,,,low,7,0,7,0,1,,,,,,,,,
293176,2022-09-30_10h07.59.177,vts_reward_expectancy,2022.2.4,MacIntel,60.0024001,Chrome,1470,956,,,,,1,1067,,,,,,,,,,,,,,,,,132,D,star,1,1,,,,,,,,,,,,,,,,repeat,number,numRpt,d,Lo,,,,,,0.5664,4,,,,,,,,low,8,0,8,0,1,,,,,,,,,
293176,2022-09-30_10h07.59.177,vts_reward_expectancy,2022.2.4,MacIntel,60.0024001,Chrome,1470,956,,,,,0,1067,,,,,,,,,,,,,,,,,125,Y,circle,1,0,,,,,,,,,,,,,,,,repeat,number,numRpt,d,Hi,,,,,,0.6477,4,,,,,,,,low,9,0,9,0,1,,,,,,,,,
293176,2022-09-30_10h07.59.177,vts_reward_expectancy,2022.2.4,MacIntel,60.0024001,Chrome,1470,956,,,,,0,1067,,,,,,,,,,,,,,,,,181,S,circle,1,0,,,,,,,,,,,,,,,,switch,letter,lettSwt,k,Hi,,,,,,0.6267,4,,,,,,,,low,10,0,10,0,1,,,,,,,,,
293176,2022-09-30_10h07.59.177,vts_reward_expectancy,2022.2.4,MacIntel,60.0024001,Chrome,1470,956,,,,,1,1068,,,,,,,,,,,,,,,,,167,B,star,1,0,,,,,,,,,,,,,,,,switch,number,numSwt,f,Lo,,,,,,0.488,4,,,,,,,,low,11,0,11,0,1,,,,,,,,,
293176,2022-09-30_10h07.59.177,vts_reward_expectancy,2022.2.4,MacIntel,60.0024001,Chrome,1470,956,,,,,10,1078,,,,,,,,,,,,,,,,,139,F,circle,1,0,,,,,,,,,,,,,,,,repeat,number,numRpt,d,Hi,,,,,,0.5461,4,,,,,,,,low,12,0,12,0,1,,,,,,,,,
293176,2022-09-30_10h07.59.177,vts_reward_expectancy,2022.2.4,MacIntel,60.0024001,Chrome,1470,956,,,,,1,1079,,,,,,,,,,,,,,,,,146,W,star,1,0,,,,,,,,,,,,,,,,switch,letter,lettSwt,k,Lo,,,,,,0.5813,4,,,,,,,,low,13,0,13,0,1,,,,,,,,,
293176,2022-09-30_10h07.59.177,vts_reward_expectancy,2022.2.4,MacIntel,60.0024001,Chrome,1470,956,,,,,0,1079,,,,,,,,,,,,,,,,,174,U,star,0,0,,,,,,,,,,,,,,,,repeat,letter,NA,j,Lo,,,,,,0.4637,4,,,,,,,,low,14,0,14,0,1,,,,,,,,,
293176,2022-09-30_10h07.59.177,vts_reward_expectancy,2022.2.4,MacIntel,60.0024001,Chrome,1470,956,,,,,10,1089,,,,,,,,,,,,,,,,,160,H,circle,1,1,,,,,,,,,,,,,,,,switch,number,numSwt,f,Hi,,,,,,0.4727,4,,,,,,,,low,15,0,15,0,1,,,,,,,,,
293176,2022-09-30_10h07.59.177,vts_reward_expectancy,2022.2.4,MacIntel,60.0024001,Chrome,1470,956,,,,,0,1089,,,,,,,,,,,,,,,,,132,B,circle,1,0,,,,,,,,,,,,,,,,switch,letter,lettSwt,j,Hi,,,,,,0.7705,4,,,,,,,,low,16,0,16,0,1,,,,,,,,,
293176,2022-09-30_10h07.59.177,vts_reward_expectancy,2022.2.4,MacIntel,60.0024001,Chrome,1470,956,,,,,1,1090,,,,,,,,,,,,,,,,,139,Y,star,1,0,,,,,,,,,,,,,,,,switch,number,numSwt,d,Lo,,,,,,0.598,4,,,,,,,,low,17,0,17,0,1,,,,,,,,,
293176,2022-09-30_10h07.59.177,vts_reward_expectancy,2022.2.4,MacIntel,60.0024001,Chrome,1470,956,,,,,10,1100,,,,,,,,,,,,,,,,,125,W,circle,1,0,,,,,,,,,,,,,,,,repeat,number,numRpt,d,Hi,,,,,,0.5312,4,,,,,,,,low,18,0,18,0,1,,,,,,,,,
293176,2022-09-30_10h07.59.177,vts_reward_expectancy,2022.2.4,MacIntel,60.0024001,Chrome,1470,956,,,,,10,1110,,,,,,,,,,,,,,,,,146,D,star,1,0,,,,,,,,,,,,,,,,switch,letter,lettSwt,j,Lo,,,,,,0.6788,4,,,,,,,,low,19,0,19,0,1,,,,,,,,,
293176,2022-09-30_10h07.59.177,vts_reward_expectancy,2022.2.4,MacIntel,60.0024001,Chrome,1470,956,,,,,10,1120,,,,,,,,,,,,,,,,,174,F,circle,1,0,,,,,,,,,,,,,,,,switch,number,numSwt,f,Hi,,,,,,0.5175,4,,,,,,,,low,20,0,20,0,1,,,,,,,,,
293176,2022-09-30_10h07.59.177,vts_reward_expectancy,2022.2.4,MacIntel,60.0024001,Chrome,1470,956,,,,,1,1121,,,,,,,,,,,,,,,,,160,S,star,1,0,,,,,,,,,,,,,,,,switch,letter,lettSwt,k,Lo,,,,,,0.5507,4,,,,,,,,low,21,0,21,0,1,,,,,,,,,
293176,2022-09-30_10h07.59.177,vts_reward_expectancy,2022.2.4,MacIntel,60.0024001,Chrome,1470,956,,,,,0,1121,,,,,,,,,,,,,,,,,181,U,star,0,0,,,,,,,,,,,,,,,,repeat,letter,NA,j,Lo,,,,,,0.4067,4,,,,,,,,low,22,0,22,0,1,,,,,,,,,
293176,2022-09-30_10h07.59.177,vts_reward_expectancy,2022.2.4,MacIntel,60.0024001,Chrome,1470,956,,,,,0,1121,,,,,,,,,,,,,,,,,167,H,circle,0,1,,,,,,,,,,,,,,,,switch,number,NA,d,Lo,,,,,,0.4998,4,,,,,,,,low,23,0,23,0,1,,,,,,,,,
293176,2022-09-30_10h07.59.177,vts_reward_expectancy,2022.2.4,MacIntel,60.0024001,Chrome,1470,956,,,,,0,1121,,,,,,,,,,,,,,,,,174,U,circle,1,1,,,,,,,,,,,,,,,,switch,letter,lettSwt,k,Hi,,,,,,0.6816,4,,,,,,,,low,24,0,24,0,1,,,,,,,,,
293176,2022-09-30_10h07.59.177,vts_reward_expectancy,2022.2.4,MacIntel,60.0024001,Chrome,1470,956,,,,,1,1122,,,,,,,,,,,,,,,,,132,B,star,1,0,,,,,,,,,,,,,,,,switch,number,numSwt,d,Lo,,,,,,0.5463,4,,,,,,,,low,25,0,25,0,1,,,,,,,,,
293176,2022-09-30_10h07.59.177,vts_reward_expectancy,2022.2.4,MacIntel,60.0024001,Chrome,1470,956,,,,,10,1132,,,,,,,,,,,,,,,,,125,Y,star,1,0,,,,,,,,,,,,,,,,repeat,number,numRpt,d,Lo,,,,,,0.5142,4,,,,,,,,low,26,0,26,0,1,,,,,,,,,
293176,2022-09-30_10h07.59.177,vts_reward_expectancy,2022.2.4,MacIntel,60.0024001,Chrome,1470,956,,,,,0,1132,,,,,,,,,,,,,,,,,139,W,circle,1,0,,,,,,,,,,,,,,,,switch,letter,lettSwt,k,Hi,,,,,,1.0411,4,,,,,,,,low,27,0,27,0,1,,,,,,,,,
293176,2022-09-30_10h07.59.177,vts_reward_expectancy,2022.2.4,MacIntel,60.0024001,Chrome,1470,956,,,,,1,1133,,,,,,,,,,,,,,,,,146,S,star,1,0,,,,,,,,,,,,,,,,switch,number,numSwt,d,Lo,,,,,,0.8163,4,,,,,,,,low,28,0,28,0,1,,,,,,,,,
293176,2022-09-30_10h07.59.177,vts_reward_expectancy,2022.2.4,MacIntel,60.0024001,Chrome,1470,956,,,,,0,1133,,,,,,,,,,,,,,,,,167,F,circle,1,0,,,,,,,,,,,,,,,,repeat,number,numRpt,f,Hi,,,,,,0.7303,4,,,,,,,,low,29,0,29,0,1,,,,,,,,,
293176,2022-09-30_10h07.59.177,vts_reward_expectancy,2022.2.4,MacIntel,60.0024001,Chrome,1470,956,,,,,0,1133,,,,,,,,,,,,,,,,,160,D,circle,1,0,,,,,,,,,,,,,,,,switch,letter,lettSwt,j,Hi,,,,,,0.6288,4,,,,,,,,low,30,0,30,0,1,,,,,,,,,
293176,2022-09-30_10h07.59.177,vts_reward_expectancy,2022.2.4,MacIntel,60.0024001,Chrome,1470,956,,,,,1,1134,,,,,,,,,,,,,,,,,181,H,star,1,0,,,,,,,,,,,,,,,,switch,number,numSwt,f,Lo,,,,,,0.6783,4,,,,,,,,low,31,0,31,0,1,,,,,,,,,
293176,2022-09-30_10h07.59.177,vts_reward_expectancy,2022.2.4,MacIntel,60.0024001,Chrome,1470,956,,,,,10,1144,,,,,,,,,,,,,,,,,160,B,triangle,1,0,,,,,,,,,,,,,,,,switch,letter,lettSwt,j,Hi,,,,,,0.6043,5,,,,,,space,0.8107,high,0,0,0,0,1,,,,,,,,,
293176,2022-09-30_10h07.59.177,vts_reward_expectancy,2022.2.4,MacIntel,60.0024001,Chrome,1470,956,,,,,1,1145,,,,,,,,,,,,,,,,,181,F,hexagon,1,0,,,,,,,,,,,,,,,,switch,number,numSwt,f,Lo,,,,,,0.6723,5,,,,,,,,high,1,0,1,0,1,,,,,,,,,
293176,2022-09-30_10h07.59.177,vts_reward_expectancy,2022.2.4,MacIntel,60.0024001,Chrome,1470,956,,,,,1,1146,,,,,,,,,,,,,,,,,167,H,triangle,1,0,,,,,,,,,,,,,,,,repeat,number,numRpt,f,Hi,,,,,,0.4635,5,,,,,,,,high,2,0,2,0,1,,,,,,,,,
293176,2022-09-30_10h07.59.177,vts_reward_expectancy,2022.2.4,MacIntel,60.0024001,Chrome,1470,956,,,,,1,1147,,,,,,,,,,,,,,,,,174,S,hexagon,1,0,,,,,,,,,,,,,,,,repeat,number,numRpt,f,Lo,,,,,,0.5834,5,,,,,,,,high,3,0,3,0,1,,,,,,,,,
293176,2022-09-30_10h07.59.177,vts_reward_expectancy,2022.2.4,MacIntel,60.0024001,Chrome,1470,956,,,,,10,1157,,,,,,,,,,,,,,,,,125,D,triangle,1,0,,,,,,,,,,,,,,,,repeat,number,numRpt,d,Hi,,,,,,0.4288,5,,,,,,,,high,4,0,4,0,1,,,,,,,,,
293176,2022-09-30_10h07.59.177,vts_reward_expectancy,2022.2.4,MacIntel,60.0024001,Chrome,1470,956,,,,,1,1158,,,,,,,,,,,,,,,,,132,W,hexagon,1,0,,,,,,,,,,,,,,,,switch,letter,lettSwt,k,Lo,,,,,,0.5049,5,,,,,,,,high,5,0,5,0,1,,,,,,,,,
293176,2022-09-30_10h07.59.177,vts_reward_expectancy,2022.2.4,MacIntel,60.0024001,Chrome,1470,956,,,,,1,1159,,,,,,,,,,,,,,,,,139,Y,hexagon,1,0,,,,,,,,,,,,,,,,repeat,letter,lettRpt,k,Lo,,,,,,0.6512,5,,,,,,,,high,6,0,6,0,1,,,,,,,,,
293176,2022-09-30_10h07.59.177,vts_reward_expectancy,2022.2.4,MacIntel,60.0024001,Chrome,1470,956,,,,,0,1159,,,,,,,,,,,,,,,,,146,U,triangle,1,0,,,,,,,,,,,,,,,,repeat,letter,lettRpt,k,Hi,,,,,,0.4631,5,,,,,,,,high,7,0,7,0,1,,,,,,,,,
293176,2022-09-30_10h07.59.177,vts_reward_expectancy,2022.2.4,MacIntel,60.0024001,Chrome,1470,956,,,,,1,1160,,,,,,,,,,,,,,,,,160,B,hexagon,1,0,,,,,,,,,,,,,,,,switch,number,numSwt,f,Lo,,,,,,0.7962,5,,,,,,,,high,8,0,8,0,1,,,,,,,,,
293176,2022-09-30_10h07.59.177,vts_reward_expectancy,2022.2.4,MacIntel,60.0024001,Chrome,1470,956,,,,,10,1170,,,,,,,,,,,,,,,,,181,F,triangle,1,0,,,,,,,,,,,,,,,,repeat,number,numRpt,f,Hi,,,,,,0.5147,5,,,,,,,,high,9,0,9,0,1,,,,,,,,,
293176,2022-09-30_10h07.59.177,vts_reward_expectancy,2022.2.4,MacIntel,60.0024001,Chrome,1470,956,,,,,10,1180,,,,,,,,,,,,,,,,,167,H,triangle,1,0,,,,,,,,,,,,,,,,switch,letter,lettSwt,j,Hi,,,,,,0.5726,5,,,,,,,,high,10,0,10,0,1,,,,,,,,,
293176,2022-09-30_10h07.59.177,vts_reward_expectancy,2022.2.4,MacIntel,60.0024001,Chrome,1470,956,,,,,1,1181,,,,,,,,,,,,,,,,,174,S,hexagon,1,0,,,,,,,,,,,,,,,,switch,number,numSwt,f,Lo,,,,,,0.4962,5,,,,,,,,high,11,0,11,0,1,,,,,,,,,
293176,2022-09-30_10h07.59.177,vts_reward_expectancy,2022.2.4,MacIntel,60.0024001,Chrome,1470,956,,,,,0,1181,,,,,,,,,,,,,,,,,125,D,triangle,1,0,,,,,,,,,,,,,,,,repeat,number,numRpt,d,Hi,,,,,,0.6469,5,,,,,,,,high,12,0,12,0,1,,,,,,,,,
293176,2022-09-30_10h07.59.177,vts_reward_expectancy,2022.2.4,MacIntel,60.0024001,Chrome,1470,956,,,,,1,1182,,,,,,,,,,,,,,,,,132,W,hexagon,1,0,,,,,,,,,,,,,,,,switch,letter,lettSwt,k,Lo,,,,,,0.5915,5,,,,,,,,high,13,0,13,0,1,,,,,,,,,
293176,2022-09-30_10h07.59.177,vts_reward_expectancy,2022.2.4,MacIntel,60.0024001,Chrome,1470,956,,,,,0,1182,,,,,,,,,,,,,,,,,139,Y,triangle,1,0,,,,,,,,,,,,,,,,repeat,letter,lettRpt,k,Hi,,,,,,0.5065,5,,,,,,,,high,14,0,14,0,1,,,,,,,,,
293176,2022-09-30_10h07.59.177,vts_reward_expectancy,2022.2.4,MacIntel,60.0024001,Chrome,1470,956,,,,,10,1192,,,,,,,,,,,,,,,,,146,U,hexagon,1,0,,,,,,,,,,,,,,,,switch,number,numSwt,d,Lo,,,,,,0.5324,5,,,,,,,,high,15,0,15,0,1,,,,,,,,,
293176,2022-09-30_10h07.59.177,vts_reward_expectancy,2022.2.4,MacIntel,60.0024001,Chrome,1470,956,,,,,1,1193,,,,,,,,,,,,,,,,,125,W,hexagon,1,0,,,,,,,,,,,,,,,,switch,letter,lettSwt,k,Lo,,,,,,0.5541,5,,,,,,,,high,16,0,16,0,1,,,,,,,,,
293176,2022-09-30_10h07.59.177,vts_reward_expectancy,2022.2.4,MacIntel,60.0024001,Chrome,1470,956,,,,,0,1193,,,,,,,,,,,,,,,,,160,H,triangle,1,0,,,,,,,,,,,,,,,,repeat,letter,lettRpt,j,Hi,,,,,,0.8618,5,,,,,,,,high,17,0,17,0,1,,,,,,,,,
293176,2022-09-30_10h07.59.177,vts_reward_expectancy,2022.2.4,MacIntel,60.0024001,Chrome,1470,956,,,,,0,1193,,,,,,,,,,,,,,,,,132,B,triangle,1,0,,,,,,,,,,,,,,,,switch,number,numSwt,d,Hi,,,,,,0.574,5,,,,,,,,high,18,0,18,0,1,,,,,,,,,
293176,2022-09-30_10h07.59.177,vts_reward_expectancy,2022.2.4,MacIntel,60.0024001,Chrome,1470,956,,,,,0,1193,,,,,,,,,,,,,,,,,174,F,hexagon,0,0,,,,,,,,,,,,,,,,switch,letter,NA,k,Hi,,,,,,0.5036,5,,,,,,,,high,19,0,19,0,1,,,,,,,,,
293176,2022-09-30_10h07.59.177,vts_reward_expectancy,2022.2.4,MacIntel,60.0024001,Chrome,1470,956,,,,,0,1193,,,,,,,,,,,,,,,,,181,S,triangle,1,1,,,,,,,,,,,,,,,,switch,number,numSwt,f,Hi,,,,,,0.5736,5,,,,,,,,high,20,0,20,0,1,,,,,,,,,
293176,2022-09-30_10h07.59.177,vts_reward_expectancy,2022.2.4,MacIntel,60.0024001,Chrome,1470,956,,,,,1,1194,,,,,,,,,,,,,,,,,146,U,hexagon,1,0,,,,,,,,,,,,,,,,switch,letter,lettSwt,k,Lo,,,,,,0.5314,5,,,,,,,,high,21,0,21,0,1,,,,,,,,,
293176,2022-09-30_10h07.59.177,vts_reward_expectancy,2022.2.4,MacIntel,60.0024001,Chrome,1470,956,,,,,0,1194,,,,,,,,,,,,,,,,,139,Y,triangle,1,0,,,,,,,,,,,,,,,,repeat,letter,lettRpt,k,Hi,,,,,,0.744,5,,,,,,,,high,22,0,22,0,1,,,,,,,,,
293176,2022-09-30_10h07.59.177,vts_reward_expectancy,2022.2.4,MacIntel,60.0024001,Chrome,1470,956,,,,,1,1195,,,,,,,,,,,,,,,,,167,D,hexagon,1,0,,,,,,,,,,,,,,,,repeat,letter,lettRpt,j,Lo,,,,,,0.849,5,,,,,,,,high,23,0,23,0,1,,,,,,,,,
293176,2022-09-30_10h07.59.177,vts_reward_expectancy,2022.2.4,MacIntel,60.0024001,Chrome,1470,956,,,,,0,1195,,,,,,,,,,,,,,,,,160,D,triangle,1,0,,,,,,,,,,,,,,,,repeat,letter,lettRpt,j,Hi,,,,,,0.5015,5,,,,,,,,high,24,0,24,0,1,,,,,,,,,
293176,2022-09-30_10h07.59.177,vts_reward_expectancy,2022.2.4,MacIntel,60.0024001,Chrome,1470,956,,,,,1,1196,,,,,,,,,,,,,,,,,146,W,hexagon,1,0,,,,,,,,,,,,,,,,switch,number,numSwt,d,Lo,,,,,,0.485,5,,,,,,,,high,25,0,25,0,1,,,,,,,,,
293176,2022-09-30_10h07.59.177,vts_reward_expectancy,2022.2.4,MacIntel,60.0024001,Chrome,1470,956,,,,,1,1197,,,,,,,,,,,,,,,,,174,Y,hexagon,1,0,,,,,,,,,,,,,,,,repeat,number,numRpt,f,Lo,,,,,,0.6786,5,,,,,,,,high,26,0,26,0,1,,,,,,,,,
293176,2022-09-30_10h07.59.177,vts_reward_expectancy,2022.2.4,MacIntel,60.0024001,Chrome,1470,956,,,,,0,1197,,,,,,,,,,,,,,,,,167,U,triangle,1,0,,,,,,,,,,,,,,,,repeat,number,numRpt,f,Hi,,,,,,0.757,5,,,,,,,,high,27,0,27,0,1,,,,,,,,,
293176,2022-09-30_10h07.59.177,vts_reward_expectancy,2022.2.4,MacIntel,60.0024001,Chrome,1470,956,,,,,10,1207,,,,,,,,,,,,,,,,,139,S,triangle,1,0,,,,,,,,,,,,,,,,switch,letter,lettSwt,k,Hi,,,,,,0.5642,5,,,,,,,,high,28,0,28,0,1,,,,,,,,,
293176,2022-09-30_10h07.59.177,vts_reward_expectancy,2022.2.4,MacIntel,60.0024001,Chrome,1470,956,,,,,1,1208,,,,,,,,,,,,,,,,,132,B,hexagon,1,0,,,,,,,,,,,,,,,,repeat,letter,lettRpt,j,Lo,,,,,,0.7149,5,,,,,,,,high,29,0,29,0,1,,,,,,,,,
293176,2022-09-30_10h07.59.177,vts_reward_expectancy,2022.2.4,MacIntel,60.0024001,Chrome,1470,956,,,,,0,1208,,,,,,,,,,,,,,,,,125,F,hexagon,0,0,,,,,,,,,,,,,,,,repeat,letter,NA,k,Lo,,,,,,0.4381,5,,,,,,,,high,30,0,30,0,1,,,,,,,,,
293176,2022-09-30_10h07.59.177,vts_reward_expectancy,2022.2.4,MacIntel,60.0024001,Chrome,1470,956,,,,,0,1208,,,,,,,,,,,,,,,,,181,H,triangle,1,1,,,,,,,,,,,,,,,,switch,number,numSwt,f,Hi,,,,,,1.0355,5,,,,,,,,high,31,0,31,0,1,,,,,,,,,
293176,2022-09-30_10h07.59.177,vts_reward_expectancy,2022.2.4,MacIntel,60.0024001,Chrome,1470,956,,,,,,,,,,,,,,,,,,,,,,,,,,,,,,,,,,,,,,,,,,,,,,,,,,,,,,6,,,,,,,,,,,,,,"I had to type d if i was answering the question of whether the number on the screen was greater than or less than 153, or click j or k based off whether the letter was closer to a or b while answering both questions equal amounts",1,,5,5,,2,1470,956
