participant,date,expName,psychopyVersion,OS,frameRate,browser,xResolution,yResolution,key_resp.keys,key_resp.rt,training_resp.keys,training_resp.rt,points_trial,points_cumul,trainBlock,training.thisRepN,training.thisTrialN,training.thisN,training.thisIndex,training.ran,LTriangleOpac,LCircleOpac,LHexagonOpac,LStarOpac,RTriangleOpac,RCircleOpac,RHexagonOpac,RStarOpac,LShape_ID,RShape_ID,curr_topStim,curr_bottStim,curr_shape,acc,E1,target_resp_prac1.keys,target_resp_prac1.rt,pracBlock,task1_prac_trials.thisRepN,task1_prac_trials.thisTrialN,task1_prac_trials.thisN,task1_prac_trials.thisIndex,task1_prac_trials.ran,target_resp_prac2.keys,target_resp_prac2.rt,task2_praac_trials.thisRepN,task2_praac_trials.thisTrialN,task2_praac_trials.thisN,task2_praac_trials.thisIndex,task2_praac_trials.ran,alt,task,condition,target_resp.keys,target_resp.rt,rewCond,vts_practice_trials.thisRepN,vts_practice_trials.thisTrialN,vts_practice_trials.thisN,vts_practice_trials.thisIndex,vts_practice_trials.ran,blockNum,trials_norew.thisRepN,trials_norew.thisTrialN,trials_norew.thisN,trials_norew.thisIndex,trials_norew.ran,key_resp_2.keys,key_resp_2.rt,rewExpect,trials_rew.thisRepN,trials_rew.thisTrialN,trials_rew.thisN,trials_rew.thisIndex,trials_rew.ran,Q1,Q2,Q2_text,Q3,Q4,Q5_text,Q5,xRes,yRes
296530,2022-10-05_23h36.36.836,vts_reward_expectancy,2022.2.4,Win32,60.08893162,Chrome,1280,800,,,,,,,,,,,,,,,,,,,,,,,,,,,,,,,,,,,,,,,,,,,,,,,,,,,,,,,,,,,,,,,,,,,,,,,,,,,,
296530,2022-10-05_23h36.36.836,vts_reward_expectancy,2022.2.4,Win32,60.08893162,Chrome,1280,800,space,99.4222,,,,,,,,,,,,,,,,,,,,,,,,,,,,,,,,,,,,,,,,,,,,,,,,,,,,,,,,,,,,,,,,,,,,,,,,,,
296530,2022-10-05_23h36.36.836,vts_reward_expectancy,2022.2.4,Win32,60.08893162,Chrome,1280,800,,,,,,,,,,,,,,,,,,,,,,,,,,,,,,,,,,,,,,,,,,,,,,,,,,,,,,,,,,,,,,,,,,,,,,,,,,,,
296530,2022-10-05_23h36.36.836,vts_reward_expectancy,2022.2.4,Win32,60.08893162,Chrome,1280,800,,,a,3.0506,1,1,0,0,0,0,4,1,0,1,0,0,0,0,1,0,circle,hexagon,,,,,,,,,,,,,,,,,,,,,,,,,,,,,,,,,,,,,,,,,,,,,,,,,,,,,,
296530,2022-10-05_23h36.36.836,vts_reward_expectancy,2022.2.4,Win32,60.08893162,Chrome,1280,800,,,a,1.4267,1,2,0,0,1,1,9,1,0,0,0,1,1,0,0,0,star,triangle,,,,,,,,,,,,,,,,,,,,,,,,,,,,,,,,,,,,,,,,,,,,,,,,,,,,,,
296530,2022-10-05_23h36.36.836,vts_reward_expectancy,2022.2.4,Win32,60.08893162,Chrome,1280,800,,,l,3.0166,1,3,0,0,2,2,10,1,0,0,0,1,0,1,0,0,star ,circle,,,,,,,,,,,,,,,,,,,,,,,,,,,,,,,,,,,,,,,,,,,,,,,,,,,,,,
296530,2022-10-05_23h36.36.836,vts_reward_expectancy,2022.2.4,Win32,60.08893162,Chrome,1280,800,,,l,0.9185,1,4,0,0,3,3,3,1,0,1,0,0,1,0,0,0,circle,triangle,,,,,,,,,,,,,,,,,,,,,,,,,,,,,,,,,,,,,,,,,,,,,,,,,,,,,,
296530,2022-10-05_23h36.36.836,vts_reward_expectancy,2022.2.4,Win32,60.08893162,Chrome,1280,800,,,l,1.9468,1,5,0,0,4,4,11,1,0,0,0,1,0,0,1,0,star,hexagon,,,,,,,,,,,,,,,,,,,,,,,,,,,,,,,,,,,,,,,,,,,,,,,,,,,,,,
296530,2022-10-05_23h36.36.836,vts_reward_expectancy,2022.2.4,Win32,60.08893162,Chrome,1280,800,,,a,1.4172,10,15,0,0,5,5,6,1,0,0,1,0,1,0,0,0,hexagon,triangle,,,,,,,,,,,,,,,,,,,,,,,,,,,,,,,,,,,,,,,,,,,,,,,,,,,,,,
296530,2022-10-05_23h36.36.836,vts_reward_expectancy,2022.2.4,Win32,60.08893162,Chrome,1280,800,,,l,4.9733,1,16,0,0,6,6,5,1,0,1,0,0,0,0,0,1,circle,star,,,,,,,,,,,,,,,,,,,,,,,,,,,,,,,,,,,,,,,,,,,,,,,,,,,,,,
296530,2022-10-05_23h36.36.836,vts_reward_expectancy,2022.2.4,Win32,60.08893162,Chrome,1280,800,,,a,1.1118,1,17,0,0,7,7,2,1,1,0,0,0,0,0,0,1,triangle,star,,,,,,,,,,,,,,,,,,,,,,,,,,,,,,,,,,,,,,,,,,,,,,,,,,,,,,
296530,2022-10-05_23h36.36.836,vts_reward_expectancy,2022.2.4,Win32,60.08893162,Chrome,1280,800,,,l,0.92,10,27,0,0,8,8,1,1,1,0,0,0,0,0,1,0,triangle,hexagon,,,,,,,,,,,,,,,,,,,,,,,,,,,,,,,,,,,,,,,,,,,,,,,,,,,,,,
296530,2022-10-05_23h36.36.836,vts_reward_expectancy,2022.2.4,Win32,60.08893162,Chrome,1280,800,,,a,0.6373,10,37,0,0,9,9,7,1,0,0,1,0,0,1,0,0,hexagon,circle,,,,,,,,,,,,,,,,,,,,,,,,,,,,,,,,,,,,,,,,,,,,,,,,,,,,,,
296530,2022-10-05_23h36.36.836,vts_reward_expectancy,2022.2.4,Win32,60.08893162,Chrome,1280,800,,,l,1.1337,10,47,0,0,10,10,0,1,1,0,0,0,0,1,0,0,triangle,circle,,,,,,,,,,,,,,,,,,,,,,,,,,,,,,,,,,,,,,,,,,,,,,,,,,,,,,
296530,2022-10-05_23h36.36.836,vts_reward_expectancy,2022.2.4,Win32,60.08893162,Chrome,1280,800,,,a,0.6838,10,57,0,0,11,11,8,1,0,0,1,0,0,0,0,1,hexagon,star,,,,,,,,,,,,,,,,,,,,,,,,,,,,,,,,,,,,,,,,,,,,,,,,,,,,,,
296530,2022-10-05_23h36.36.836,vts_reward_expectancy,2022.2.4,Win32,60.08893162,Chrome,1280,800,,,a,1.0218,10,67,0,1,0,12,8,1,0,0,1,0,0,0,0,1,hexagon,star,,,,,,,,,,,,,,,,,,,,,,,,,,,,,,,,,,,,,,,,,,,,,,,,,,,,,,
296530,2022-10-05_23h36.36.836,vts_reward_expectancy,2022.2.4,Win32,60.08893162,Chrome,1280,800,,,l,0.6618,10,77,0,1,1,13,10,1,0,0,0,1,0,1,0,0,star ,circle,,,,,,,,,,,,,,,,,,,,,,,,,,,,,,,,,,,,,,,,,,,,,,,,,,,,,,
296530,2022-10-05_23h36.36.836,vts_reward_expectancy,2022.2.4,Win32,60.08893162,Chrome,1280,800,,,l,1.32,10,87,0,1,2,14,1,1,1,0,0,0,0,0,1,0,triangle,hexagon,,,,,,,,,,,,,,,,,,,,,,,,,,,,,,,,,,,,,,,,,,,,,,,,,,,,,,
296530,2022-10-05_23h36.36.836,vts_reward_expectancy,2022.2.4,Win32,60.08893162,Chrome,1280,800,,,a,1.7945,1,88,0,1,3,15,5,1,0,1,0,0,0,0,0,1,circle,star,,,,,,,,,,,,,,,,,,,,,,,,,,,,,,,,,,,,,,,,,,,,,,,,,,,,,,
296530,2022-10-05_23h36.36.836,vts_reward_expectancy,2022.2.4,Win32,60.08893162,Chrome,1280,800,,,l,2.6552,1,89,0,1,4,16,9,1,0,0,0,1,1,0,0,0,star,triangle,,,,,,,,,,,,,,,,,,,,,,,,,,,,,,,,,,,,,,,,,,,,,,,,,,,,,,
296530,2022-10-05_23h36.36.836,vts_reward_expectancy,2022.2.4,Win32,60.08893162,Chrome,1280,800,,,a,1.8659,10,99,0,1,5,17,7,1,0,0,1,0,0,1,0,0,hexagon,circle,,,,,,,,,,,,,,,,,,,,,,,,,,,,,,,,,,,,,,,,,,,,,,,,,,,,,,
296530,2022-10-05_23h36.36.836,vts_reward_expectancy,2022.2.4,Win32,60.08893162,Chrome,1280,800,,,l,0.907,10,109,0,1,6,18,0,1,1,0,0,0,0,1,0,0,triangle,circle,,,,,,,,,,,,,,,,,,,,,,,,,,,,,,,,,,,,,,,,,,,,,,,,,,,,,,
296530,2022-10-05_23h36.36.836,vts_reward_expectancy,2022.2.4,Win32,60.08893162,Chrome,1280,800,,,a,0.8361,10,119,0,1,7,19,6,1,0,0,1,0,1,0,0,0,hexagon,triangle,,,,,,,,,,,,,,,,,,,,,,,,,,,,,,,,,,,,,,,,,,,,,,,,,,,,,,
296530,2022-10-05_23h36.36.836,vts_reward_expectancy,2022.2.4,Win32,60.08893162,Chrome,1280,800,,,l,1.7205,10,129,0,1,8,20,11,1,0,0,0,1,0,0,1,0,star,hexagon,,,,,,,,,,,,,,,,,,,,,,,,,,,,,,,,,,,,,,,,,,,,,,,,,,,,,,
296530,2022-10-05_23h36.36.836,vts_reward_expectancy,2022.2.4,Win32,60.08893162,Chrome,1280,800,,,l,1.2102,10,139,0,1,9,21,4,1,0,1,0,0,0,0,1,0,circle,hexagon,,,,,,,,,,,,,,,,,,,,,,,,,,,,,,,,,,,,,,,,,,,,,,,,,,,,,,
296530,2022-10-05_23h36.36.836,vts_reward_expectancy,2022.2.4,Win32,60.08893162,Chrome,1280,800,,,l,1.538,10,149,0,1,10,22,2,1,1,0,0,0,0,0,0,1,triangle,star,,,,,,,,,,,,,,,,,,,,,,,,,,,,,,,,,,,,,,,,,,,,,,,,,,,,,,
296530,2022-10-05_23h36.36.836,vts_reward_expectancy,2022.2.4,Win32,60.08893162,Chrome,1280,800,,,a,1.1675,1,150,0,1,11,23,3,1,0,1,0,0,1,0,0,0,circle,triangle,,,,,,,,,,,,,,,,,,,,,,,,,,,,,,,,,,,,,,,,,,,,,,,,,,,,,,
296530,2022-10-05_23h36.36.836,vts_reward_expectancy,2022.2.4,Win32,60.08893162,Chrome,1280,800,,,l,0.8438,10,160,0,2,0,24,2,1,1,0,0,0,0,0,0,1,triangle,star,,,,,,,,,,,,,,,,,,,,,,,,,,,,,,,,,,,,,,,,,,,,,,,,,,,,,,
296530,2022-10-05_23h36.36.836,vts_reward_expectancy,2022.2.4,Win32,60.08893162,Chrome,1280,800,,,a,0.8994,10,170,0,2,1,25,11,1,0,0,0,1,0,0,1,0,star,hexagon,,,,,,,,,,,,,,,,,,,,,,,,,,,,,,,,,,,,,,,,,,,,,,,,,,,,,,
296530,2022-10-05_23h36.36.836,vts_reward_expectancy,2022.2.4,Win32,60.08893162,Chrome,1280,800,,,a,1.2342,10,180,0,2,2,26,4,1,0,1,0,0,0,0,1,0,circle,hexagon,,,,,,,,,,,,,,,,,,,,,,,,,,,,,,,,,,,,,,,,,,,,,,,,,,,,,,
296530,2022-10-05_23h36.36.836,vts_reward_expectancy,2022.2.4,Win32,60.08893162,Chrome,1280,800,,,a,1.3349,10,190,0,2,3,27,10,1,0,0,0,1,0,1,0,0,star ,circle,,,,,,,,,,,,,,,,,,,,,,,,,,,,,,,,,,,,,,,,,,,,,,,,,,,,,,
296530,2022-10-05_23h36.36.836,vts_reward_expectancy,2022.2.4,Win32,60.08893162,Chrome,1280,800,,,l,1.0274,10,200,0,2,4,28,5,1,0,1,0,0,0,0,0,1,circle,star,,,,,,,,,,,,,,,,,,,,,,,,,,,,,,,,,,,,,,,,,,,,,,,,,,,,,,
296530,2022-10-05_23h36.36.836,vts_reward_expectancy,2022.2.4,Win32,60.08893162,Chrome,1280,800,,,l,1.4337,1,201,0,2,5,29,8,1,0,0,1,0,0,0,0,1,hexagon,star,,,,,,,,,,,,,,,,,,,,,,,,,,,,,,,,,,,,,,,,,,,,,,,,,,,,,,
296530,2022-10-05_23h36.36.836,vts_reward_expectancy,2022.2.4,Win32,60.08893162,Chrome,1280,800,,,a,0.9105,1,202,0,2,6,30,6,1,0,0,1,0,1,0,0,0,hexagon,triangle,,,,,,,,,,,,,,,,,,,,,,,,,,,,,,,,,,,,,,,,,,,,,,,,,,,,,,
296530,2022-10-05_23h36.36.836,vts_reward_expectancy,2022.2.4,Win32,60.08893162,Chrome,1280,800,,,l,1.3154,1,203,0,2,7,31,7,1,0,0,1,0,0,1,0,0,hexagon,circle,,,,,,,,,,,,,,,,,,,,,,,,,,,,,,,,,,,,,,,,,,,,,,,,,,,,,,
296530,2022-10-05_23h36.36.836,vts_reward_expectancy,2022.2.4,Win32,60.08893162,Chrome,1280,800,,,a,1.1593,1,204,0,2,8,32,0,1,1,0,0,0,0,1,0,0,triangle,circle,,,,,,,,,,,,,,,,,,,,,,,,,,,,,,,,,,,,,,,,,,,,,,,,,,,,,,
296530,2022-10-05_23h36.36.836,vts_reward_expectancy,2022.2.4,Win32,60.08893162,Chrome,1280,800,,,a,0.8339,10,214,0,2,9,33,9,1,0,0,0,1,1,0,0,0,star,triangle,,,,,,,,,,,,,,,,,,,,,,,,,,,,,,,,,,,,,,,,,,,,,,,,,,,,,,
296530,2022-10-05_23h36.36.836,vts_reward_expectancy,2022.2.4,Win32,60.08893162,Chrome,1280,800,,,l,1.1325,10,224,0,2,10,34,1,1,1,0,0,0,0,0,1,0,triangle,hexagon,,,,,,,,,,,,,,,,,,,,,,,,,,,,,,,,,,,,,,,,,,,,,,,,,,,,,,
296530,2022-10-05_23h36.36.836,vts_reward_expectancy,2022.2.4,Win32,60.08893162,Chrome,1280,800,,,l,0.8833,1,225,0,2,11,35,3,1,0,1,0,0,1,0,0,0,circle,triangle,,,,,,,,,,,,,,,,,,,,,,,,,,,,,,,,,,,,,,,,,,,,,,,,,,,,,,
296530,2022-10-05_23h36.36.836,vts_reward_expectancy,2022.2.4,Win32,60.08893162,Chrome,1280,800,,,l,1.0846,1,226,1,0,0,0,2,1,1,0,0,0,0,0,0,1,triangle,star,,,,,,,,,,,,,,,,,,,,,,,,,,,,,,,,,,,,,,,,,,,,,,,,,,,,,,
296530,2022-10-05_23h36.36.836,vts_reward_expectancy,2022.2.4,Win32,60.08893162,Chrome,1280,800,,,l,1.7512,1,227,1,0,1,1,6,1,0,0,1,0,1,0,0,0,hexagon,triangle,,,,,,,,,,,,,,,,,,,,,,,,,,,,,,,,,,,,,,,,,,,,,,,,,,,,,,
296530,2022-10-05_23h36.36.836,vts_reward_expectancy,2022.2.4,Win32,60.08893162,Chrome,1280,800,,,a,2.501,10,237,1,0,2,2,9,1,0,0,0,1,1,0,0,0,star,triangle,,,,,,,,,,,,,,,,,,,,,,,,,,,,,,,,,,,,,,,,,,,,,,,,,,,,,,
296530,2022-10-05_23h36.36.836,vts_reward_expectancy,2022.2.4,Win32,60.08893162,Chrome,1280,800,,,l,0.7332,10,247,1,0,3,3,5,1,0,1,0,0,0,0,0,1,circle,star,,,,,,,,,,,,,,,,,,,,,,,,,,,,,,,,,,,,,,,,,,,,,,,,,,,,,,
296530,2022-10-05_23h36.36.836,vts_reward_expectancy,2022.2.4,Win32,60.08893162,Chrome,1280,800,,,a,0.5557,10,257,1,0,4,4,11,1,0,0,0,1,0,0,1,0,star,hexagon,,,,,,,,,,,,,,,,,,,,,,,,,,,,,,,,,,,,,,,,,,,,,,,,,,,,,,
296530,2022-10-05_23h36.36.836,vts_reward_expectancy,2022.2.4,Win32,60.08893162,Chrome,1280,800,,,l,0.8254,1,258,1,0,5,5,3,1,0,1,0,0,1,0,0,0,circle,triangle,,,,,,,,,,,,,,,,,,,,,,,,,,,,,,,,,,,,,,,,,,,,,,,,,,,,,,
296530,2022-10-05_23h36.36.836,vts_reward_expectancy,2022.2.4,Win32,60.08893162,Chrome,1280,800,,,l,1.1693,1,259,1,0,6,6,7,1,0,0,1,0,0,1,0,0,hexagon,circle,,,,,,,,,,,,,,,,,,,,,,,,,,,,,,,,,,,,,,,,,,,,,,,,,,,,,,
296530,2022-10-05_23h36.36.836,vts_reward_expectancy,2022.2.4,Win32,60.08893162,Chrome,1280,800,,,l,1.2585,10,269,1,0,7,7,8,1,0,0,1,0,0,0,0,1,hexagon,star,,,,,,,,,,,,,,,,,,,,,,,,,,,,,,,,,,,,,,,,,,,,,,,,,,,,,,
296530,2022-10-05_23h36.36.836,vts_reward_expectancy,2022.2.4,Win32,60.08893162,Chrome,1280,800,,,l,1.4976,10,279,1,0,8,8,4,1,0,1,0,0,0,0,1,0,circle,hexagon,,,,,,,,,,,,,,,,,,,,,,,,,,,,,,,,,,,,,,,,,,,,,,,,,,,,,,
296530,2022-10-05_23h36.36.836,vts_reward_expectancy,2022.2.4,Win32,60.08893162,Chrome,1280,800,,,l,1.5328,1,280,1,0,9,9,0,1,1,0,0,0,0,1,0,0,triangle,circle,,,,,,,,,,,,,,,,,,,,,,,,,,,,,,,,,,,,,,,,,,,,,,,,,,,,,,
296530,2022-10-05_23h36.36.836,vts_reward_expectancy,2022.2.4,Win32,60.08893162,Chrome,1280,800,,,a,0.7961,1,281,1,0,10,10,1,1,1,0,0,0,0,0,1,0,triangle,hexagon,,,,,,,,,,,,,,,,,,,,,,,,,,,,,,,,,,,,,,,,,,,,,,,,,,,,,,
296530,2022-10-05_23h36.36.836,vts_reward_expectancy,2022.2.4,Win32,60.08893162,Chrome,1280,800,,,a,0.8691,1,282,1,0,11,11,10,1,0,0,0,1,0,1,0,0,star ,circle,,,,,,,,,,,,,,,,,,,,,,,,,,,,,,,,,,,,,,,,,,,,,,,,,,,,,,
296530,2022-10-05_23h36.36.836,vts_reward_expectancy,2022.2.4,Win32,60.08893162,Chrome,1280,800,,,a,0.4046,1,283,1,1,0,12,1,1,1,0,0,0,0,0,1,0,triangle,hexagon,,,,,,,,,,,,,,,,,,,,,,,,,,,,,,,,,,,,,,,,,,,,,,,,,,,,,,
296530,2022-10-05_23h36.36.836,vts_reward_expectancy,2022.2.4,Win32,60.08893162,Chrome,1280,800,,,l,0.7022,10,293,1,1,1,13,0,1,1,0,0,0,0,1,0,0,triangle,circle,,,,,,,,,,,,,,,,,,,,,,,,,,,,,,,,,,,,,,,,,,,,,,,,,,,,,,
296530,2022-10-05_23h36.36.836,vts_reward_expectancy,2022.2.4,Win32,60.08893162,Chrome,1280,800,,,l,0.6952,10,303,1,1,2,14,10,1,0,0,0,1,0,1,0,0,star ,circle,,,,,,,,,,,,,,,,,,,,,,,,,,,,,,,,,,,,,,,,,,,,,,,,,,,,,,
296530,2022-10-05_23h36.36.836,vts_reward_expectancy,2022.2.4,Win32,60.08893162,Chrome,1280,800,,,a,0.6276,10,313,1,1,3,15,4,1,0,1,0,0,0,0,1,0,circle,hexagon,,,,,,,,,,,,,,,,,,,,,,,,,,,,,,,,,,,,,,,,,,,,,,,,,,,,,,
296530,2022-10-05_23h36.36.836,vts_reward_expectancy,2022.2.4,Win32,60.08893162,Chrome,1280,800,,,l,2.7918,1,314,1,1,4,16,9,1,0,0,0,1,1,0,0,0,star,triangle,,,,,,,,,,,,,,,,,,,,,,,,,,,,,,,,,,,,,,,,,,,,,,,,,,,,,,
296530,2022-10-05_23h36.36.836,vts_reward_expectancy,2022.2.4,Win32,60.08893162,Chrome,1280,800,,,a,1.633,10,324,1,1,5,17,3,1,0,1,0,0,1,0,0,0,circle,triangle,,,,,,,,,,,,,,,,,,,,,,,,,,,,,,,,,,,,,,,,,,,,,,,,,,,,,,
296530,2022-10-05_23h36.36.836,vts_reward_expectancy,2022.2.4,Win32,60.08893162,Chrome,1280,800,,,a,0.9264,1,325,1,1,6,18,2,1,1,0,0,0,0,0,0,1,triangle,star,,,,,,,,,,,,,,,,,,,,,,,,,,,,,,,,,,,,,,,,,,,,,,,,,,,,,,
296530,2022-10-05_23h36.36.836,vts_reward_expectancy,2022.2.4,Win32,60.08893162,Chrome,1280,800,,,l,0.5528,1,326,1,1,7,19,8,1,0,0,1,0,0,0,0,1,hexagon,star,,,,,,,,,,,,,,,,,,,,,,,,,,,,,,,,,,,,,,,,,,,,,,,,,,,,,,
296530,2022-10-05_23h36.36.836,vts_reward_expectancy,2022.2.4,Win32,60.08893162,Chrome,1280,800,,,a,1.045,10,336,1,1,8,20,6,1,0,0,1,0,1,0,0,0,hexagon,triangle,,,,,,,,,,,,,,,,,,,,,,,,,,,,,,,,,,,,,,,,,,,,,,,,,,,,,,
296530,2022-10-05_23h36.36.836,vts_reward_expectancy,2022.2.4,Win32,60.08893162,Chrome,1280,800,,,a,0.7793,10,346,1,1,9,21,7,1,0,0,1,0,0,1,0,0,hexagon,circle,,,,,,,,,,,,,,,,,,,,,,,,,,,,,,,,,,,,,,,,,,,,,,,,,,,,,,
296530,2022-10-05_23h36.36.836,vts_reward_expectancy,2022.2.4,Win32,60.08893162,Chrome,1280,800,,,a,1.2851,10,356,1,1,10,22,5,1,0,1,0,0,0,0,0,1,circle,star,,,,,,,,,,,,,,,,,,,,,,,,,,,,,,,,,,,,,,,,,,,,,,,,,,,,,,
296530,2022-10-05_23h36.36.836,vts_reward_expectancy,2022.2.4,Win32,60.08893162,Chrome,1280,800,,,l,0.6523,10,366,1,1,11,23,11,1,0,0,0,1,0,0,1,0,star,hexagon,,,,,,,,,,,,,,,,,,,,,,,,,,,,,,,,,,,,,,,,,,,,,,,,,,,,,,
296530,2022-10-05_23h36.36.836,vts_reward_expectancy,2022.2.4,Win32,60.08893162,Chrome,1280,800,,,l,0.5203,1,367,1,2,0,24,10,1,0,0,0,1,0,1,0,0,star ,circle,,,,,,,,,,,,,,,,,,,,,,,,,,,,,,,,,,,,,,,,,,,,,,,,,,,,,,
296530,2022-10-05_23h36.36.836,vts_reward_expectancy,2022.2.4,Win32,60.08893162,Chrome,1280,800,,,l,0.5003,1,368,1,2,1,25,9,1,0,0,0,1,1,0,0,0,star,triangle,,,,,,,,,,,,,,,,,,,,,,,,,,,,,,,,,,,,,,,,,,,,,,,,,,,,,,
296530,2022-10-05_23h36.36.836,vts_reward_expectancy,2022.2.4,Win32,60.08893162,Chrome,1280,800,,,a,1.0099,10,378,1,2,2,26,3,1,0,1,0,0,1,0,0,0,circle,triangle,,,,,,,,,,,,,,,,,,,,,,,,,,,,,,,,,,,,,,,,,,,,,,,,,,,,,,
296530,2022-10-05_23h36.36.836,vts_reward_expectancy,2022.2.4,Win32,60.08893162,Chrome,1280,800,,,l,0.5766,1,379,1,2,3,27,8,1,0,0,1,0,0,0,0,1,hexagon,star,,,,,,,,,,,,,,,,,,,,,,,,,,,,,,,,,,,,,,,,,,,,,,,,,,,,,,
296530,2022-10-05_23h36.36.836,vts_reward_expectancy,2022.2.4,Win32,60.08893162,Chrome,1280,800,,,l,2.3557,1,380,1,2,4,28,2,1,1,0,0,0,0,0,0,1,triangle,star,,,,,,,,,,,,,,,,,,,,,,,,,,,,,,,,,,,,,,,,,,,,,,,,,,,,,,
296530,2022-10-05_23h36.36.836,vts_reward_expectancy,2022.2.4,Win32,60.08893162,Chrome,1280,800,,,l,0.8166,10,390,1,2,5,29,11,1,0,0,0,1,0,0,1,0,star,hexagon,,,,,,,,,,,,,,,,,,,,,,,,,,,,,,,,,,,,,,,,,,,,,,,,,,,,,,
296530,2022-10-05_23h36.36.836,vts_reward_expectancy,2022.2.4,Win32,60.08893162,Chrome,1280,800,,,a,0.5647,1,391,1,2,6,30,5,1,0,1,0,0,0,0,0,1,circle,star,,,,,,,,,,,,,,,,,,,,,,,,,,,,,,,,,,,,,,,,,,,,,,,,,,,,,,
296530,2022-10-05_23h36.36.836,vts_reward_expectancy,2022.2.4,Win32,60.08893162,Chrome,1280,800,,,a,3.0839,10,401,1,2,7,31,6,1,0,0,1,0,1,0,0,0,hexagon,triangle,,,,,,,,,,,,,,,,,,,,,,,,,,,,,,,,,,,,,,,,,,,,,,,,,,,,,,
296530,2022-10-05_23h36.36.836,vts_reward_expectancy,2022.2.4,Win32,60.08893162,Chrome,1280,800,,,a,0.9002,10,411,1,2,8,32,7,1,0,0,1,0,0,1,0,0,hexagon,circle,,,,,,,,,,,,,,,,,,,,,,,,,,,,,,,,,,,,,,,,,,,,,,,,,,,,,,
296530,2022-10-05_23h36.36.836,vts_reward_expectancy,2022.2.4,Win32,60.08893162,Chrome,1280,800,,,a,0.66,10,421,1,2,9,33,1,1,1,0,0,0,0,0,1,0,triangle,hexagon,,,,,,,,,,,,,,,,,,,,,,,,,,,,,,,,,,,,,,,,,,,,,,,,,,,,,,
296530,2022-10-05_23h36.36.836,vts_reward_expectancy,2022.2.4,Win32,60.08893162,Chrome,1280,800,,,a,0.5218,1,422,1,2,10,34,0,1,1,0,0,0,0,1,0,0,triangle,circle,,,,,,,,,,,,,,,,,,,,,,,,,,,,,,,,,,,,,,,,,,,,,,,,,,,,,,
296530,2022-10-05_23h36.36.836,vts_reward_expectancy,2022.2.4,Win32,60.08893162,Chrome,1280,800,,,a,0.3522,10,432,1,2,11,35,4,1,0,1,0,0,0,0,1,0,circle,hexagon,,,,,,,,,,,,,,,,,,,,,,,,,,,,,,,,,,,,,,,,,,,,,,,,,,,,,,
296530,2022-10-05_23h36.36.836,vts_reward_expectancy,2022.2.4,Win32,60.08893162,Chrome,1280,800,,,l,0.6198,1,433,2,0,0,0,3,1,0,1,0,0,1,0,0,0,circle,triangle,,,,,,,,,,,,,,,,,,,,,,,,,,,,,,,,,,,,,,,,,,,,,,,,,,,,,,
296530,2022-10-05_23h36.36.836,vts_reward_expectancy,2022.2.4,Win32,60.08893162,Chrome,1280,800,,,l,0.7708,10,443,2,0,1,1,5,1,0,1,0,0,0,0,0,1,circle,star,,,,,,,,,,,,,,,,,,,,,,,,,,,,,,,,,,,,,,,,,,,,,,,,,,,,,,
296530,2022-10-05_23h36.36.836,vts_reward_expectancy,2022.2.4,Win32,60.08893162,Chrome,1280,800,,,a,0.5275,1,444,2,0,2,2,0,1,1,0,0,0,0,1,0,0,triangle,circle,,,,,,,,,,,,,,,,,,,,,,,,,,,,,,,,,,,,,,,,,,,,,,,,,,,,,,
296530,2022-10-05_23h36.36.836,vts_reward_expectancy,2022.2.4,Win32,60.08893162,Chrome,1280,800,,,l,0.593,10,454,2,0,3,3,2,1,1,0,0,0,0,0,0,1,triangle,star,,,,,,,,,,,,,,,,,,,,,,,,,,,,,,,,,,,,,,,,,,,,,,,,,,,,,,
296530,2022-10-05_23h36.36.836,vts_reward_expectancy,2022.2.4,Win32,60.08893162,Chrome,1280,800,,,l,0.5615,10,464,2,0,4,4,7,1,0,0,1,0,0,1,0,0,hexagon,circle,,,,,,,,,,,,,,,,,,,,,,,,,,,,,,,,,,,,,,,,,,,,,,,,,,,,,,
296530,2022-10-05_23h36.36.836,vts_reward_expectancy,2022.2.4,Win32,60.08893162,Chrome,1280,800,,,a,0.609,1,465,2,0,5,5,11,1,0,0,0,1,0,0,1,0,star,hexagon,,,,,,,,,,,,,,,,,,,,,,,,,,,,,,,,,,,,,,,,,,,,,,,,,,,,,,
296530,2022-10-05_23h36.36.836,vts_reward_expectancy,2022.2.4,Win32,60.08893162,Chrome,1280,800,,,l,0.7916,10,475,2,0,6,6,10,1,0,0,0,1,0,1,0,0,star ,circle,,,,,,,,,,,,,,,,,,,,,,,,,,,,,,,,,,,,,,,,,,,,,,,,,,,,,,
296530,2022-10-05_23h36.36.836,vts_reward_expectancy,2022.2.4,Win32,60.08893162,Chrome,1280,800,,,l,0.8708,1,476,2,0,7,7,1,1,1,0,0,0,0,0,1,0,triangle,hexagon,,,,,,,,,,,,,,,,,,,,,,,,,,,,,,,,,,,,,,,,,,,,,,,,,,,,,,
296530,2022-10-05_23h36.36.836,vts_reward_expectancy,2022.2.4,Win32,60.08893162,Chrome,1280,800,,,l,0.5884,1,477,2,0,8,8,6,1,0,0,1,0,1,0,0,0,hexagon,triangle,,,,,,,,,,,,,,,,,,,,,,,,,,,,,,,,,,,,,,,,,,,,,,,,,,,,,,
296530,2022-10-05_23h36.36.836,vts_reward_expectancy,2022.2.4,Win32,60.08893162,Chrome,1280,800,,,a,1.3388,1,478,2,0,9,9,9,1,0,0,0,1,1,0,0,0,star,triangle,,,,,,,,,,,,,,,,,,,,,,,,,,,,,,,,,,,,,,,,,,,,,,,,,,,,,,
296530,2022-10-05_23h36.36.836,vts_reward_expectancy,2022.2.4,Win32,60.08893162,Chrome,1280,800,,,l,0.6184,10,488,2,0,10,10,4,1,0,1,0,0,0,0,1,0,circle,hexagon,,,,,,,,,,,,,,,,,,,,,,,,,,,,,,,,,,,,,,,,,,,,,,,,,,,,,,
296530,2022-10-05_23h36.36.836,vts_reward_expectancy,2022.2.4,Win32,60.08893162,Chrome,1280,800,,,l,0.4837,1,489,2,0,11,11,8,1,0,0,1,0,0,0,0,1,hexagon,star,,,,,,,,,,,,,,,,,,,,,,,,,,,,,,,,,,,,,,,,,,,,,,,,,,,,,,
296530,2022-10-05_23h36.36.836,vts_reward_expectancy,2022.2.4,Win32,60.08893162,Chrome,1280,800,,,a,0.8193,10,499,2,1,0,12,4,1,0,1,0,0,0,0,1,0,circle,hexagon,,,,,,,,,,,,,,,,,,,,,,,,,,,,,,,,,,,,,,,,,,,,,,,,,,,,,,
296530,2022-10-05_23h36.36.836,vts_reward_expectancy,2022.2.4,Win32,60.08893162,Chrome,1280,800,,,a,0.5268,10,509,2,1,1,13,8,1,0,0,1,0,0,0,0,1,hexagon,star,,,,,,,,,,,,,,,,,,,,,,,,,,,,,,,,,,,,,,,,,,,,,,,,,,,,,,
296530,2022-10-05_23h36.36.836,vts_reward_expectancy,2022.2.4,Win32,60.08893162,Chrome,1280,800,,,l,0.6012,10,519,2,1,2,14,11,1,0,0,0,1,0,0,1,0,star,hexagon,,,,,,,,,,,,,,,,,,,,,,,,,,,,,,,,,,,,,,,,,,,,,,,,,,,,,,
296530,2022-10-05_23h36.36.836,vts_reward_expectancy,2022.2.4,Win32,60.08893162,Chrome,1280,800,,,a,0.5517,10,529,2,1,3,15,2,1,1,0,0,0,0,0,0,1,triangle,star,,,,,,,,,,,,,,,,,,,,,,,,,,,,,,,,,,,,,,,,,,,,,,,,,,,,,,
296530,2022-10-05_23h36.36.836,vts_reward_expectancy,2022.2.4,Win32,60.08893162,Chrome,1280,800,,,l,0.8378,1,530,2,1,4,16,6,1,0,0,1,0,1,0,0,0,hexagon,triangle,,,,,,,,,,,,,,,,,,,,,,,,,,,,,,,,,,,,,,,,,,,,,,,,,,,,,,
296530,2022-10-05_23h36.36.836,vts_reward_expectancy,2022.2.4,Win32,60.08893162,Chrome,1280,800,,,l,1.0823,1,531,2,1,5,17,10,1,0,0,0,1,0,1,0,0,star ,circle,,,,,,,,,,,,,,,,,,,,,,,,,,,,,,,,,,,,,,,,,,,,,,,,,,,,,,
296530,2022-10-05_23h36.36.836,vts_reward_expectancy,2022.2.4,Win32,60.08893162,Chrome,1280,800,,,a,0.9765,1,532,2,1,6,18,9,1,0,0,0,1,1,0,0,0,star,triangle,,,,,,,,,,,,,,,,,,,,,,,,,,,,,,,,,,,,,,,,,,,,,,,,,,,,,,
296530,2022-10-05_23h36.36.836,vts_reward_expectancy,2022.2.4,Win32,60.08893162,Chrome,1280,800,,,l,0.9949,1,533,2,1,7,19,0,1,1,0,0,0,0,1,0,0,triangle,circle,,,,,,,,,,,,,,,,,,,,,,,,,,,,,,,,,,,,,,,,,,,,,,,,,,,,,,
296530,2022-10-05_23h36.36.836,vts_reward_expectancy,2022.2.4,Win32,60.08893162,Chrome,1280,800,,,a,0.6215,1,534,2,1,8,20,1,1,1,0,0,0,0,0,1,0,triangle,hexagon,,,,,,,,,,,,,,,,,,,,,,,,,,,,,,,,,,,,,,,,,,,,,,,,,,,,,,
296530,2022-10-05_23h36.36.836,vts_reward_expectancy,2022.2.4,Win32,60.08893162,Chrome,1280,800,,,a,1.0749,10,544,2,1,9,21,5,1,0,1,0,0,0,0,0,1,circle,star,,,,,,,,,,,,,,,,,,,,,,,,,,,,,,,,,,,,,,,,,,,,,,,,,,,,,,
296530,2022-10-05_23h36.36.836,vts_reward_expectancy,2022.2.4,Win32,60.08893162,Chrome,1280,800,,,a,0.4783,10,554,2,1,10,22,3,1,0,1,0,0,1,0,0,0,circle,triangle,,,,,,,,,,,,,,,,,,,,,,,,,,,,,,,,,,,,,,,,,,,,,,,,,,,,,,
296530,2022-10-05_23h36.36.836,vts_reward_expectancy,2022.2.4,Win32,60.08893162,Chrome,1280,800,,,l,0.9446,10,564,2,1,11,23,7,1,0,0,1,0,0,1,0,0,hexagon,circle,,,,,,,,,,,,,,,,,,,,,,,,,,,,,,,,,,,,,,,,,,,,,,,,,,,,,,
296530,2022-10-05_23h36.36.836,vts_reward_expectancy,2022.2.4,Win32,60.08893162,Chrome,1280,800,,,l,1.5582,10,574,2,2,0,24,7,1,0,0,1,0,0,1,0,0,hexagon,circle,,,,,,,,,,,,,,,,,,,,,,,,,,,,,,,,,,,,,,,,,,,,,,,,,,,,,,
296530,2022-10-05_23h36.36.836,vts_reward_expectancy,2022.2.4,Win32,60.08893162,Chrome,1280,800,,,l,0.9174,10,584,2,2,1,25,11,1,0,0,0,1,0,0,1,0,star,hexagon,,,,,,,,,,,,,,,,,,,,,,,,,,,,,,,,,,,,,,,,,,,,,,,,,,,,,,
296530,2022-10-05_23h36.36.836,vts_reward_expectancy,2022.2.4,Win32,60.08893162,Chrome,1280,800,,,a,1.4327,1,585,2,2,2,26,9,1,0,0,0,1,1,0,0,0,star,triangle,,,,,,,,,,,,,,,,,,,,,,,,,,,,,,,,,,,,,,,,,,,,,,,,,,,,,,
296530,2022-10-05_23h36.36.836,vts_reward_expectancy,2022.2.4,Win32,60.08893162,Chrome,1280,800,,,a,1.3399,1,586,2,2,3,27,6,1,0,0,1,0,1,0,0,0,hexagon,triangle,,,,,,,,,,,,,,,,,,,,,,,,,,,,,,,,,,,,,,,,,,,,,,,,,,,,,,
296530,2022-10-05_23h36.36.836,vts_reward_expectancy,2022.2.4,Win32,60.08893162,Chrome,1280,800,,,l,4.5581,10,596,2,2,4,28,4,1,0,1,0,0,0,0,1,0,circle,hexagon,,,,,,,,,,,,,,,,,,,,,,,,,,,,,,,,,,,,,,,,,,,,,,,,,,,,,,
296530,2022-10-05_23h36.36.836,vts_reward_expectancy,2022.2.4,Win32,60.08893162,Chrome,1280,800,,,a,1.4754,1,597,2,2,5,29,2,1,1,0,0,0,0,0,0,1,triangle,star,,,,,,,,,,,,,,,,,,,,,,,,,,,,,,,,,,,,,,,,,,,,,,,,,,,,,,
296530,2022-10-05_23h36.36.836,vts_reward_expectancy,2022.2.4,Win32,60.08893162,Chrome,1280,800,,,a,2.4202,10,607,2,2,6,30,0,1,1,0,0,0,0,1,0,0,triangle,circle,,,,,,,,,,,,,,,,,,,,,,,,,,,,,,,,,,,,,,,,,,,,,,,,,,,,,,
296530,2022-10-05_23h36.36.836,vts_reward_expectancy,2022.2.4,Win32,60.08893162,Chrome,1280,800,,,l,2.2785,10,617,2,2,7,31,8,1,0,0,1,0,0,0,0,1,hexagon,star,,,,,,,,,,,,,,,,,,,,,,,,,,,,,,,,,,,,,,,,,,,,,,,,,,,,,,
296530,2022-10-05_23h36.36.836,vts_reward_expectancy,2022.2.4,Win32,60.08893162,Chrome,1280,800,,,a,1.4594,10,627,2,2,8,32,10,1,0,0,0,1,0,1,0,0,star ,circle,,,,,,,,,,,,,,,,,,,,,,,,,,,,,,,,,,,,,,,,,,,,,,,,,,,,,,
296530,2022-10-05_23h36.36.836,vts_reward_expectancy,2022.2.4,Win32,60.08893162,Chrome,1280,800,,,l,1.0861,10,637,2,2,9,33,3,1,0,1,0,0,1,0,0,0,circle,triangle,,,,,,,,,,,,,,,,,,,,,,,,,,,,,,,,,,,,,,,,,,,,,,,,,,,,,,
296530,2022-10-05_23h36.36.836,vts_reward_expectancy,2022.2.4,Win32,60.08893162,Chrome,1280,800,,,a,1.2338,1,638,2,2,10,34,1,1,1,0,0,0,0,0,1,0,triangle,hexagon,,,,,,,,,,,,,,,,,,,,,,,,,,,,,,,,,,,,,,,,,,,,,,,,,,,,,,
296530,2022-10-05_23h36.36.836,vts_reward_expectancy,2022.2.4,Win32,60.08893162,Chrome,1280,800,,,l,0.8233,10,648,2,2,11,35,5,1,0,1,0,0,0,0,0,1,circle,star,,,,,,,,,,,,,,,,,,,,,,,,,,,,,,,,,,,,,,,,,,,,,,,,,,,,,,
296530,2022-10-05_23h36.36.836,vts_reward_expectancy,2022.2.4,Win32,60.08893162,Chrome,1280,800,,,,,,,,,,,,,,,,,,,,,,,132,F,triangle,1,0,d,2.1648,0,0,0,0,0,1,,,,,,,,,,,,,,,,,,,,,,,,,,,,,,,,,,,,,,,,,
296530,2022-10-05_23h36.36.836,vts_reward_expectancy,2022.2.4,Win32,60.08893162,Chrome,1280,800,,,,,,,,,,,,,,,,,,,,,,,174,S,star,1,0,f,0.9055,0,1,0,1,0,1,,,,,,,,,,,,,,,,,,,,,,,,,,,,,,,,,,,,,,,,,
296530,2022-10-05_23h36.36.836,vts_reward_expectancy,2022.2.4,Win32,60.08893162,Chrome,1280,800,,,,,,,,,,,,,,,,,,,,,,,160,U,circle,0,0,,,0,2,0,2,0,1,,,,,,,,,,,,,,,,,,,,,,,,,,,,,,,,,,,,,,,,,
296530,2022-10-05_23h36.36.836,vts_reward_expectancy,2022.2.4,Win32,60.08893162,Chrome,1280,800,,,,,,,,,,,,,,,,,,,,,,,167,D,hexagon,1,1,f,0.6711,0,3,0,3,0,1,,,,,,,,,,,,,,,,,,,,,,,,,,,,,,,,,,,,,,,,,
296530,2022-10-05_23h36.36.836,vts_reward_expectancy,2022.2.4,Win32,60.08893162,Chrome,1280,800,,,,,,,,,,,,,,,,,,,,,,,139,B,triangle,1,0,d,0.8617,0,4,0,4,0,1,,,,,,,,,,,,,,,,,,,,,,,,,,,,,,,,,,,,,,,,,
296530,2022-10-05_23h36.36.836,vts_reward_expectancy,2022.2.4,Win32,60.08893162,Chrome,1280,800,,,,,,,,,,,,,,,,,,,,,,,125,Y,star,1,0,d,0.697,0,5,0,5,0,1,,,,,,,,,,,,,,,,,,,,,,,,,,,,,,,,,,,,,,,,,
296530,2022-10-05_23h36.36.836,vts_reward_expectancy,2022.2.4,Win32,60.08893162,Chrome,1280,800,,,,,,,,,,,,,,,,,,,,,,,146,H,circle,1,0,d,0.767,0,6,0,6,0,1,,,,,,,,,,,,,,,,,,,,,,,,,,,,,,,,,,,,,,,,,
296530,2022-10-05_23h36.36.836,vts_reward_expectancy,2022.2.4,Win32,60.08893162,Chrome,1280,800,,,,,,,,,,,,,,,,,,,,,,,181,W,hexagon,1,0,f,0.4516,0,7,0,7,0,1,,,,,,,,,,,,,,,,,,,,,,,,,,,,,,,,,,,,,,,,,
296530,2022-10-05_23h36.36.836,vts_reward_expectancy,2022.2.4,Win32,60.08893162,Chrome,1280,800,,,,,,,,,,,,,,,,,,,,,,,132,F,circle,1,0,d,0.4435,0,8,0,8,0,1,,,,,,,,,,,,,,,,,,,,,,,,,,,,,,,,,,,,,,,,,
296530,2022-10-05_23h36.36.836,vts_reward_expectancy,2022.2.4,Win32,60.08893162,Chrome,1280,800,,,,,,,,,,,,,,,,,,,,,,,174,S,hexagon,1,0,f,0.7379,0,9,0,9,0,1,,,,,,,,,,,,,,,,,,,,,,,,,,,,,,,,,,,,,,,,,
296530,2022-10-05_23h36.36.836,vts_reward_expectancy,2022.2.4,Win32,60.08893162,Chrome,1280,800,,,,,,,,,,,,,,,,,,,,,,,125,Y,hexagon,1,0,,,1,,,,,,k,1.3504,0,0,0,0,1,,,,,,,,,,,,,,,,,,,,,,,,,,,,,,,,,,
296530,2022-10-05_23h36.36.836,vts_reward_expectancy,2022.2.4,Win32,60.08893162,Chrome,1280,800,,,,,,,,,,,,,,,,,,,,,,,146,H,triangle,1,0,,,1,,,,,,j,0.7287,1,0,1,0,1,,,,,,,,,,,,,,,,,,,,,,,,,,,,,,,,,,
296530,2022-10-05_23h36.36.836,vts_reward_expectancy,2022.2.4,Win32,60.08893162,Chrome,1280,800,,,,,,,,,,,,,,,,,,,,,,,174,W,circle,1,0,,,1,,,,,,k,0.7068,2,0,2,0,1,,,,,,,,,,,,,,,,,,,,,,,,,,,,,,,,,,
296530,2022-10-05_23h36.36.836,vts_reward_expectancy,2022.2.4,Win32,60.08893162,Chrome,1280,800,,,,,,,,,,,,,,,,,,,,,,,132,U,star,1,0,,,1,,,,,,k,0.9991,3,0,3,0,1,,,,,,,,,,,,,,,,,,,,,,,,,,,,,,,,,,
296530,2022-10-05_23h36.36.836,vts_reward_expectancy,2022.2.4,Win32,60.08893162,Chrome,1280,800,,,,,,,,,,,,,,,,,,,,,,,160,B,hexagon,1,0,,,1,,,,,,j,0.6815,4,0,4,0,1,,,,,,,,,,,,,,,,,,,,,,,,,,,,,,,,,,
296530,2022-10-05_23h36.36.836,vts_reward_expectancy,2022.2.4,Win32,60.08893162,Chrome,1280,800,,,,,,,,,,,,,,,,,,,,,,,181,F,triangle,1,0,,,1,,,,,,j,0.5477,5,0,5,0,1,,,,,,,,,,,,,,,,,,,,,,,,,,,,,,,,,,
296530,2022-10-05_23h36.36.836,vts_reward_expectancy,2022.2.4,Win32,60.08893162,Chrome,1280,800,,,,,,,,,,,,,,,,,,,,,,,139,S,circle,1,0,,,1,,,,,,k,0.5924,6,0,6,0,1,,,,,,,,,,,,,,,,,,,,,,,,,,,,,,,,,,
296530,2022-10-05_23h36.36.836,vts_reward_expectancy,2022.2.4,Win32,60.08893162,Chrome,1280,800,,,,,,,,,,,,,,,,,,,,,,,167,D,star,1,0,,,1,,,,,,j,0.5406,7,0,7,0,1,,,,,,,,,,,,,,,,,,,,,,,,,,,,,,,,,,
296530,2022-10-05_23h36.36.836,vts_reward_expectancy,2022.2.4,Win32,60.08893162,Chrome,1280,800,,,,,,,,,,,,,,,,,,,,,,,125,Y,hexagon,1,0,,,1,,,,,,k,0.5156,8,0,8,0,1,,,,,,,,,,,,,,,,,,,,,,,,,,,,,,,,,,
296530,2022-10-05_23h36.36.836,vts_reward_expectancy,2022.2.4,Win32,60.08893162,Chrome,1280,800,,,,,,,,,,,,,,,,,,,,,,,146,H,star,1,0,,,1,,,,,,j,0.7384,9,0,9,0,1,,,,,,,,,,,,,,,,,,,,,,,,,,,,,,,,,,
296530,2022-10-05_23h36.36.836,vts_reward_expectancy,2022.2.4,Win32,60.08893162,Chrome,1280,800,,,,,0,648,,,,,,,,,,,,,,,,,146,W,star,1,0,,,2,,,,,,,,,,,,,-1,letter,NA,k,1.3876,vtsPrac,0,0,0,0,1,,,,,,,,,,,,,,,,,,,,,,,
296530,2022-10-05_23h36.36.836,vts_reward_expectancy,2022.2.4,Win32,60.08893162,Chrome,1280,800,,,,,0,648,,,,,,,,,,,,,,,,,181,F,circle,1,0,,,2,,,,,,,,,,,,,repeat,letter,lettRpt,j,1.0235,vtsPrac,1,0,1,0,1,,,,,,,,,,,,,,,,,,,,,,,
296530,2022-10-05_23h36.36.836,vts_reward_expectancy,2022.2.4,Win32,60.08893162,Chrome,1280,800,,,,,0,648,,,,,,,,,,,,,,,,,125,U,star,1,0,,,2,,,,,,,,,,,,,switch,number,numSwt,d,0.7914,vtsPrac,2,0,2,0,1,,,,,,,,,,,,,,,,,,,,,,,
296530,2022-10-05_23h36.36.836,vts_reward_expectancy,2022.2.4,Win32,60.08893162,Chrome,1280,800,,,,,0,648,,,,,,,,,,,,,,,,,160,H,circle,0,0,,,2,,,,,,,,,,,,,repeat,number,NA,d,1.3558,vtsPrac,3,0,3,0,1,,,,,,,,,,,,,,,,,,,,,,,
296530,2022-10-05_23h36.36.836,vts_reward_expectancy,2022.2.4,Win32,60.08893162,Chrome,1280,800,,,,,0,648,,,,,,,,,,,,,,,,,146,W,circle,1,1,,,2,,,,,,,,,,,,,repeat,number,numRpt,d,1.18,vtsPrac,4,0,4,0,1,,,,,,,,,,,,,,,,,,,,,,,
296530,2022-10-05_23h36.36.836,vts_reward_expectancy,2022.2.4,Win32,60.08893162,Chrome,1280,800,,,,,0,648,,,,,,,,,,,,,,,,,181,F,star,1,0,,,2,,,,,,,,,,,,,switch,letter,lettSwt,j,0.598,vtsPrac,5,0,5,0,1,,,,,,,,,,,,,,,,,,,,,,,
296530,2022-10-05_23h36.36.836,vts_reward_expectancy,2022.2.4,Win32,60.08893162,Chrome,1280,800,,,,,0,648,,,,,,,,,,,,,,,,,125,U,star,1,0,,,2,,,,,,,,,,,,,repeat,letter,lettRpt,k,0.9507,vtsPrac,6,0,6,0,1,,,,,,,,,,,,,,,,,,,,,,,
296530,2022-10-05_23h36.36.836,vts_reward_expectancy,2022.2.4,Win32,60.08893162,Chrome,1280,800,,,,,0,648,,,,,,,,,,,,,,,,,160,H,circle,1,0,,,2,,,,,,,,,,,,,repeat,letter,lettRpt,j,0.6687,vtsPrac,7,0,7,0,1,,,,,,,,,,,,,,,,,,,,,,,
296530,2022-10-05_23h36.36.836,vts_reward_expectancy,2022.2.4,Win32,60.08893162,Chrome,1280,800,,,,,0,648,,,,,,,,,,,,,,,,,125,Y,hexagon,1,0,,,2,,,,,,,,,,,,,switch,number,numSwt,d,1.2422,vtsPrac,8,0,8,0,1,,,,,,,,,,,,,,,,,,,,,,,
296530,2022-10-05_23h36.36.836,vts_reward_expectancy,2022.2.4,Win32,60.08893162,Chrome,1280,800,,,,,0,648,,,,,,,,,,,,,,,,,146,S,star,1,0,,,2,,,,,,,,,,,,,repeat,number,numRpt,d,1.7539,vtsPrac,9,0,9,0,1,,,,,,,,,,,,,,,,,,,,,,,
296530,2022-10-05_23h36.36.836,vts_reward_expectancy,2022.2.4,Win32,60.08893162,Chrome,1280,800,,,,,0,648,,,,,,,,,,,,,,,,,132,U,star,1,0,,,2,,,,,,,,,,,,,switch,letter,lettSwt,k,0.7989,vtsPrac,10,0,10,0,1,,,,,,,,,,,,,,,,,,,,,,,
296530,2022-10-05_23h36.36.836,vts_reward_expectancy,2022.2.4,Win32,60.08893162,Chrome,1280,800,,,,,0,648,,,,,,,,,,,,,,,,,174,H,triangle,0,0,,,2,,,,,,,,,,,,,switch,number,NA,d,0.6691,vtsPrac,11,0,11,0,1,,,,,,,,,,,,,,,,,,,,,,,
296530,2022-10-05_23h36.36.836,vts_reward_expectancy,2022.2.4,Win32,60.08893162,Chrome,1280,800,,,,,0,648,,,,,,,,,,,,,,,,,160,S,star,1,1,,,2,,,,,,,,,,,,,switch,letter,lettSwt,k,0.8051,vtsPrac,12,0,12,0,1,,,,,,,,,,,,,,,,,,,,,,,
296530,2022-10-05_23h36.36.836,vts_reward_expectancy,2022.2.4,Win32,60.08893162,Chrome,1280,800,,,,,0,648,,,,,,,,,,,,,,,,,132,U,hexagon,1,0,,,2,,,,,,,,,,,,,repeat,letter,lettRpt,k,1.0181,vtsPrac,13,0,13,0,1,,,,,,,,,,,,,,,,,,,,,,,
296530,2022-10-05_23h36.36.836,vts_reward_expectancy,2022.2.4,Win32,60.08893162,Chrome,1280,800,,,,,0,648,,,,,,,,,,,,,,,,,167,F,circle,1,0,,,2,,,,,,,,,,,,,repeat,letter,lettRpt,j,0.7752,vtsPrac,14,0,14,0,1,,,,,,,,,,,,,,,,,,,,,,,
296530,2022-10-05_23h36.36.836,vts_reward_expectancy,2022.2.4,Win32,60.08893162,Chrome,1280,800,,,,,0,648,,,,,,,,,,,,,,,,,181,W,triangle,1,0,,,2,,,,,,,,,,,,,switch,number,numSwt,f,0.7089,vtsPrac,15,0,15,0,1,,,,,,,,,,,,,,,,,,,,,,,
296530,2022-10-05_23h36.36.836,vts_reward_expectancy,2022.2.4,Win32,60.08893162,Chrome,1280,800,,,,,,,,,,,,,,,,,,,,,,,,,,,,,,,,,,,,,,,,,,,,,,,,,,,,,,,,,,,,,,,,,,,,,,,,,,,,
296530,2022-10-05_23h36.36.836,vts_reward_expectancy,2022.2.4,Win32,60.08893162,Chrome,1280,800,,,,,,,,,,,,,,,,,,,,,,,,,,,,,,,,,,,,,,,,,,,,,,,,,,,,,,,,,,,,,,,,,,,,,,,,,,,,
296530,2022-10-05_23h36.36.836,vts_reward_expectancy,2022.2.4,Win32,60.08893162,Chrome,1280,800,,,,,0,648,,,,,,,,,,,,,,,,,125,D,triangle,1,0,,,,,,,,,,,,,,,,repeat,number,numRpt,d,1.1908,noRew,,,,,,0,0,0,0,0,1,,,,,,,,,,,,,,,,,
296530,2022-10-05_23h36.36.836,vts_reward_expectancy,2022.2.4,Win32,60.08893162,Chrome,1280,800,,,,,0,648,,,,,,,,,,,,,,,,,160,B,circle,1,0,,,,,,,,,,,,,,,,repeat,number,numRpt,f,0.4976,noRew,,,,,,0,1,0,1,0,1,,,,,,,,,,,,,,,,,
296530,2022-10-05_23h36.36.836,vts_reward_expectancy,2022.2.4,Win32,60.08893162,Chrome,1280,800,,,,,0,648,,,,,,,,,,,,,,,,,139,S,triangle,1,0,,,,,,,,,,,,,,,,switch,letter,lettSwt,k,0.4514,noRew,,,,,,0,2,0,2,0,1,,,,,,,,,,,,,,,,,
296530,2022-10-05_23h36.36.836,vts_reward_expectancy,2022.2.4,Win32,60.08893162,Chrome,1280,800,,,,,0,648,,,,,,,,,,,,,,,,,132,Y,circle,1,0,,,,,,,,,,,,,,,,repeat,letter,lettRpt,k,0.5743,noRew,,,,,,0,3,0,3,0,1,,,,,,,,,,,,,,,,,
296530,2022-10-05_23h36.36.836,vts_reward_expectancy,2022.2.4,Win32,60.08893162,Chrome,1280,800,,,,,0,648,,,,,,,,,,,,,,,,,125,D,star,1,0,,,,,,,,,,,,,,,,switch,number,numSwt,d,0.8359,noRew,,,,,,0,4,0,4,0,1,,,,,,,,,,,,,,,,,
296530,2022-10-05_23h36.36.836,vts_reward_expectancy,2022.2.4,Win32,60.08893162,Chrome,1280,800,,,,,0,648,,,,,,,,,,,,,,,,,160,B,circle,1,0,,,,,,,,,,,,,,,,repeat,number,numRpt,f,0.8877,noRew,,,,,,0,5,0,5,0,1,,,,,,,,,,,,,,,,,
296530,2022-10-05_23h36.36.836,vts_reward_expectancy,2022.2.4,Win32,60.08893162,Chrome,1280,800,,,,,0,648,,,,,,,,,,,,,,,,,139,S,triangle,1,0,,,,,,,,,,,,,,,,repeat,number,numRpt,d,0.5645,noRew,,,,,,0,6,0,6,0,1,,,,,,,,,,,,,,,,,
296530,2022-10-05_23h36.36.836,vts_reward_expectancy,2022.2.4,Win32,60.08893162,Chrome,1280,800,,,,,0,648,,,,,,,,,,,,,,,,,132,Y,hexagon,1,0,,,,,,,,,,,,,,,,switch,letter,lettSwt,k,0.6586,noRew,,,,,,0,7,0,7,0,1,,,,,,,,,,,,,,,,,
296530,2022-10-05_23h36.36.836,vts_reward_expectancy,2022.2.4,Win32,60.08893162,Chrome,1280,800,,,,,0,648,,,,,,,,,,,,,,,,,160,W,star,1,0,,,,,,,,,,,,,,,,repeat,letter,lettRpt,k,0.5539,noRew,,,,,,0,8,0,8,0,1,,,,,,,,,,,,,,,,,
296530,2022-10-05_23h36.36.836,vts_reward_expectancy,2022.2.4,Win32,60.08893162,Chrome,1280,800,,,,,0,648,,,,,,,,,,,,,,,,,125,D,triangle,1,0,,,,,,,,,,,,,,,,switch,number,numSwt,d,0.5988,noRew,,,,,,0,9,0,9,0,1,,,,,,,,,,,,,,,,,
296530,2022-10-05_23h36.36.836,vts_reward_expectancy,2022.2.4,Win32,60.08893162,Chrome,1280,800,,,,,0,648,,,,,,,,,,,,,,,,,181,H,hexagon,1,0,,,,,,,,,,,,,,,,switch,letter,lettSwt,j,0.9316,noRew,,,,,,0,10,0,10,0,1,,,,,,,,,,,,,,,,,
296530,2022-10-05_23h36.36.836,vts_reward_expectancy,2022.2.4,Win32,60.08893162,Chrome,1280,800,,,,,0,648,,,,,,,,,,,,,,,,,139,Y,triangle,1,0,,,,,,,,,,,,,,,,switch,number,numSwt,d,0.8651,noRew,,,,,,0,11,0,11,0,1,,,,,,,,,,,,,,,,,
296530,2022-10-05_23h36.36.836,vts_reward_expectancy,2022.2.4,Win32,60.08893162,Chrome,1280,800,,,,,0,648,,,,,,,,,,,,,,,,,125,H,star,1,0,,,,,,,,,,,,,,,,repeat,number,numRpt,d,0.6959,noRew,,,,,,0,12,0,12,0,1,,,,,,,,,,,,,,,,,
296530,2022-10-05_23h36.36.836,vts_reward_expectancy,2022.2.4,Win32,60.08893162,Chrome,1280,800,,,,,0,648,,,,,,,,,,,,,,,,,167,D,circle,1,0,,,,,,,,,,,,,,,,repeat,number,numRpt,f,0.8844,noRew,,,,,,0,13,0,13,0,1,,,,,,,,,,,,,,,,,
296530,2022-10-05_23h36.36.836,vts_reward_expectancy,2022.2.4,Win32,60.08893162,Chrome,1280,800,,,,,0,648,,,,,,,,,,,,,,,,,139,S,star,1,0,,,,,,,,,,,,,,,,repeat,number,numRpt,d,0.4531,noRew,,,,,,0,14,0,14,0,1,,,,,,,,,,,,,,,,,
296530,2022-10-05_23h36.36.836,vts_reward_expectancy,2022.2.4,Win32,60.08893162,Chrome,1280,800,,,,,0,648,,,,,,,,,,,,,,,,,132,U,triangle,1,0,,,,,,,,,,,,,,,,switch,letter,lettSwt,k,0.9654,noRew,,,,,,0,15,0,15,0,1,,,,,,,,,,,,,,,,,
296530,2022-10-05_23h36.36.836,vts_reward_expectancy,2022.2.4,Win32,60.08893162,Chrome,1280,800,,,,,0,648,,,,,,,,,,,,,,,,,146,B,star,1,0,,,,,,,,,,,,,,,,switch,number,numSwt,d,1.2142,noRew,,,,,,0,16,0,16,0,1,,,,,,,,,,,,,,,,,
296530,2022-10-05_23h36.36.836,vts_reward_expectancy,2022.2.4,Win32,60.08893162,Chrome,1280,800,,,,,0,648,,,,,,,,,,,,,,,,,174,H,triangle,1,0,,,,,,,,,,,,,,,,repeat,number,numRpt,f,0.822,noRew,,,,,,0,17,0,17,0,1,,,,,,,,,,,,,,,,,
296530,2022-10-05_23h36.36.836,vts_reward_expectancy,2022.2.4,Win32,60.08893162,Chrome,1280,800,,,,,0,648,,,,,,,,,,,,,,,,,160,F,hexagon,1,0,,,,,,,,,,,,,,,,repeat,number,numRpt,f,0.7235,noRew,,,,,,0,18,0,18,0,1,,,,,,,,,,,,,,,,,
296530,2022-10-05_23h36.36.836,vts_reward_expectancy,2022.2.4,Win32,60.08893162,Chrome,1280,800,,,,,0,648,,,,,,,,,,,,,,,,,132,W,triangle,1,0,,,,,,,,,,,,,,,,switch,letter,lettSwt,k,0.7288,noRew,,,,,,0,19,0,19,0,1,,,,,,,,,,,,,,,,,
296530,2022-10-05_23h36.36.836,vts_reward_expectancy,2022.2.4,Win32,60.08893162,Chrome,1280,800,,,,,0,648,,,,,,,,,,,,,,,,,132,H,star,1,0,,,,,,,,,,,,,,,,repeat,letter,lettRpt,j,0.8312,noRew,,,,,,0,20,0,20,0,1,,,,,,,,,,,,,,,,,
296530,2022-10-05_23h36.36.836,vts_reward_expectancy,2022.2.4,Win32,60.08893162,Chrome,1280,800,,,,,0,648,,,,,,,,,,,,,,,,,181,F,hexagon,1,0,,,,,,,,,,,,,,,,repeat,letter,lettRpt,j,0.6749,noRew,,,,,,0,21,0,21,0,1,,,,,,,,,,,,,,,,,
296530,2022-10-05_23h36.36.836,vts_reward_expectancy,2022.2.4,Win32,60.08893162,Chrome,1280,800,,,,,0,648,,,,,,,,,,,,,,,,,160,W,triangle,1,0,,,,,,,,,,,,,,,,switch,number,numSwt,f,0.7001,noRew,,,,,,0,22,0,22,0,1,,,,,,,,,,,,,,,,,
296530,2022-10-05_23h36.36.836,vts_reward_expectancy,2022.2.4,Win32,60.08893162,Chrome,1280,800,,,,,0,648,,,,,,,,,,,,,,,,,174,S,circle,1,0,,,,,,,,,,,,,,,,repeat,number,numRpt,f,0.9696,noRew,,,,,,0,23,0,23,0,1,,,,,,,,,,,,,,,,,
296530,2022-10-05_23h36.36.836,vts_reward_expectancy,2022.2.4,Win32,60.08893162,Chrome,1280,800,,,,,0,648,,,,,,,,,,,,,,,,,125,H,hexagon,1,0,,,,,,,,,,,,,,,,repeat,number,numRpt,d,0.7245,noRew,,,,,,0,24,0,24,0,1,,,,,,,,,,,,,,,,,
296530,2022-10-05_23h36.36.836,vts_reward_expectancy,2022.2.4,Win32,60.08893162,Chrome,1280,800,,,,,0,648,,,,,,,,,,,,,,,,,132,U,triangle,1,0,,,,,,,,,,,,,,,,repeat,number,numRpt,d,0.7023,noRew,,,,,,0,25,0,25,0,1,,,,,,,,,,,,,,,,,
296530,2022-10-05_23h36.36.836,vts_reward_expectancy,2022.2.4,Win32,60.08893162,Chrome,1280,800,,,,,0,648,,,,,,,,,,,,,,,,,174,S,circle,1,0,,,,,,,,,,,,,,,,repeat,number,numRpt,f,0.5858,noRew,,,,,,0,26,0,26,0,1,,,,,,,,,,,,,,,,,
296530,2022-10-05_23h36.36.836,vts_reward_expectancy,2022.2.4,Win32,60.08893162,Chrome,1280,800,,,,,0,648,,,,,,,,,,,,,,,,,167,B,star,1,0,,,,,,,,,,,,,,,,switch,letter,lettSwt,j,1.2741,noRew,,,,,,0,27,0,27,0,1,,,,,,,,,,,,,,,,,
296530,2022-10-05_23h36.36.836,vts_reward_expectancy,2022.2.4,Win32,60.08893162,Chrome,1280,800,,,,,0,648,,,,,,,,,,,,,,,,,132,F,triangle,1,0,,,,,,,,,,,,,,,,repeat,letter,lettRpt,j,0.7801,noRew,,,,,,0,28,0,28,0,1,,,,,,,,,,,,,,,,,
296530,2022-10-05_23h36.36.836,vts_reward_expectancy,2022.2.4,Win32,60.08893162,Chrome,1280,800,,,,,0,648,,,,,,,,,,,,,,,,,160,B,circle,1,0,,,,,,,,,,,,,,,,repeat,letter,lettRpt,j,0.7404,noRew,,,,,,0,29,0,29,0,1,,,,,,,,,,,,,,,,,
296530,2022-10-05_23h36.36.836,vts_reward_expectancy,2022.2.4,Win32,60.08893162,Chrome,1280,800,,,,,0,648,,,,,,,,,,,,,,,,,181,U,star,0,0,,,,,,,,,,,,,,,,repeat,letter,NA,j,1.1389,noRew,,,,,,0,30,0,30,0,1,,,,,,,,,,,,,,,,,
296530,2022-10-05_23h36.36.836,vts_reward_expectancy,2022.2.4,Win32,60.08893162,Chrome,1280,800,,,,,0,648,,,,,,,,,,,,,,,,,139,H,triangle,1,1,,,,,,,,,,,,,,,,repeat,letter,lettRpt,j,0.8962,noRew,,,,,,0,31,0,31,0,1,,,,,,,,,,,,,,,,,
296530,2022-10-05_23h36.36.836,vts_reward_expectancy,2022.2.4,Win32,60.08893162,Chrome,1280,800,,,,,0,648,,,,,,,,,,,,,,,,,181,Y,circle,1,0,,,,,,,,,,,,,,,,repeat,letter,lettRpt,k,0.608,noRew,,,,,,0,32,0,32,0,1,,,,,,,,,,,,,,,,,
296530,2022-10-05_23h36.36.836,vts_reward_expectancy,2022.2.4,Win32,60.08893162,Chrome,1280,800,,,,,0,648,,,,,,,,,,,,,,,,,146,U,star,1,0,,,,,,,,,,,,,,,,repeat,letter,lettRpt,k,0.6995,noRew,,,,,,0,33,0,33,0,1,,,,,,,,,,,,,,,,,
296530,2022-10-05_23h36.36.836,vts_reward_expectancy,2022.2.4,Win32,60.08893162,Chrome,1280,800,,,,,0,648,,,,,,,,,,,,,,,,,160,S,circle,1,0,,,,,,,,,,,,,,,,repeat,letter,lettRpt,k,0.9238,noRew,,,,,,0,34,0,34,0,1,,,,,,,,,,,,,,,,,
296530,2022-10-05_23h36.36.836,vts_reward_expectancy,2022.2.4,Win32,60.08893162,Chrome,1280,800,,,,,0,648,,,,,,,,,,,,,,,,,174,W,star,1,0,,,,,,,,,,,,,,,,repeat,letter,lettRpt,k,0.625,noRew,,,,,,0,35,0,35,0,1,,,,,,,,,,,,,,,,,
296530,2022-10-05_23h36.36.836,vts_reward_expectancy,2022.2.4,Win32,60.08893162,Chrome,1280,800,,,,,0,648,,,,,,,,,,,,,,,,,181,W,star,1,0,,,,,,,,,,,,,,,,repeat,letter,lettRpt,k,0.6037,noRew,,,,,,0,36,0,36,0,1,,,,,,,,,,,,,,,,,
296530,2022-10-05_23h36.36.836,vts_reward_expectancy,2022.2.4,Win32,60.08893162,Chrome,1280,800,,,,,0,648,,,,,,,,,,,,,,,,,174,Y,triangle,1,0,,,,,,,,,,,,,,,,switch,number,numSwt,f,0.6528,noRew,,,,,,0,37,0,37,0,1,,,,,,,,,,,,,,,,,
296530,2022-10-05_23h36.36.836,vts_reward_expectancy,2022.2.4,Win32,60.08893162,Chrome,1280,800,,,,,0,648,,,,,,,,,,,,,,,,,139,F,circle,1,0,,,,,,,,,,,,,,,,switch,letter,lettSwt,j,0.688,noRew,,,,,,0,38,0,38,0,1,,,,,,,,,,,,,,,,,
296530,2022-10-05_23h36.36.836,vts_reward_expectancy,2022.2.4,Win32,60.08893162,Chrome,1280,800,,,,,0,648,,,,,,,,,,,,,,,,,167,S,triangle,1,0,,,,,,,,,,,,,,,,repeat,letter,lettRpt,k,0.698,noRew,,,,,,0,39,0,39,0,1,,,,,,,,,,,,,,,,,
296530,2022-10-05_23h36.36.836,vts_reward_expectancy,2022.2.4,Win32,60.08893162,Chrome,1280,800,,,,,0,648,,,,,,,,,,,,,,,,,174,W,star,1,0,,,,,,,,,,,,,,,,repeat,letter,lettRpt,k,0.7824,noRew,,,,,,0,40,0,40,0,1,,,,,,,,,,,,,,,,,
296530,2022-10-05_23h36.36.836,vts_reward_expectancy,2022.2.4,Win32,60.08893162,Chrome,1280,800,,,,,0,648,,,,,,,,,,,,,,,,,146,U,triangle,1,0,,,,,,,,,,,,,,,,repeat,letter,lettRpt,k,0.6501,noRew,,,,,,0,41,0,41,0,1,,,,,,,,,,,,,,,,,
296530,2022-10-05_23h36.36.836,vts_reward_expectancy,2022.2.4,Win32,60.08893162,Chrome,1280,800,,,,,0,648,,,,,,,,,,,,,,,,,167,F,triangle,1,0,,,,,,,,,,,,,,,,repeat,letter,lettRpt,j,1.4357,noRew,,,,,,0,42,0,42,0,1,,,,,,,,,,,,,,,,,
296530,2022-10-05_23h36.36.836,vts_reward_expectancy,2022.2.4,Win32,60.08893162,Chrome,1280,800,,,,,0,648,,,,,,,,,,,,,,,,,132,S,star,1,0,,,,,,,,,,,,,,,,switch,number,numSwt,d,1.071,noRew,,,,,,0,43,0,43,0,1,,,,,,,,,,,,,,,,,
296530,2022-10-05_23h36.36.836,vts_reward_expectancy,2022.2.4,Win32,60.08893162,Chrome,1280,800,,,,,0,648,,,,,,,,,,,,,,,,,181,S,hexagon,1,0,,,,,,,,,,,,,,,,repeat,number,numRpt,f,0.7147,noRew,,,,,,0,44,0,44,0,1,,,,,,,,,,,,,,,,,
296530,2022-10-05_23h36.36.836,vts_reward_expectancy,2022.2.4,Win32,60.08893162,Chrome,1280,800,,,,,0,648,,,,,,,,,,,,,,,,,146,B,star,0,0,,,,,,,,,,,,,,,,repeat,number,NA,f,1.0722,noRew,,,,,,0,45,0,45,0,1,,,,,,,,,,,,,,,,,
296530,2022-10-05_23h36.36.836,vts_reward_expectancy,2022.2.4,Win32,60.08893162,Chrome,1280,800,,,,,0,648,,,,,,,,,,,,,,,,,125,H,triangle,1,1,,,,,,,,,,,,,,,,repeat,number,numRpt,d,0.7203,noRew,,,,,,0,46,0,46,0,1,,,,,,,,,,,,,,,,,
296530,2022-10-05_23h36.36.836,vts_reward_expectancy,2022.2.4,Win32,60.08893162,Chrome,1280,800,,,,,0,648,,,,,,,,,,,,,,,,,132,Y,star,1,0,,,,,,,,,,,,,,,,repeat,number,numRpt,d,1.0581,noRew,,,,,,0,47,0,47,0,1,,,,,,,,,,,,,,,,,
296530,2022-10-05_23h36.36.836,vts_reward_expectancy,2022.2.4,Win32,60.08893162,Chrome,1280,800,,,,,0,648,,,,,,,,,,,,,,,,,139,U,triangle,1,0,,,,,,,,,,,,,,,,repeat,number,numRpt,d,0.8693,noRew,,,,,,0,48,0,48,0,1,,,,,,,,,,,,,,,,,
296530,2022-10-05_23h36.36.836,vts_reward_expectancy,2022.2.4,Win32,60.08893162,Chrome,1280,800,,,,,0,648,,,,,,,,,,,,,,,,,167,F,circle,1,0,,,,,,,,,,,,,,,,repeat,number,numRpt,f,0.6916,noRew,,,,,,0,49,0,49,0,1,,,,,,,,,,,,,,,,,
296530,2022-10-05_23h36.36.836,vts_reward_expectancy,2022.2.4,Win32,60.08893162,Chrome,1280,800,,,,,0,648,,,,,,,,,,,,,,,,,132,D,triangle,1,0,,,,,,,,,,,,,,,,switch,letter,lettSwt,j,0.8363,noRew,,,,,,0,50,0,50,0,1,,,,,,,,,,,,,,,,,
296530,2022-10-05_23h36.36.836,vts_reward_expectancy,2022.2.4,Win32,60.08893162,Chrome,1280,800,,,,,0,648,,,,,,,,,,,,,,,,,125,B,star,1,0,,,,,,,,,,,,,,,,repeat,letter,lettRpt,j,0.5796,noRew,,,,,,0,51,0,51,0,1,,,,,,,,,,,,,,,,,
296530,2022-10-05_23h36.36.836,vts_reward_expectancy,2022.2.4,Win32,60.08893162,Chrome,1280,800,,,,,0,648,,,,,,,,,,,,,,,,,139,Y,star,1,0,,,,,,,,,,,,,,,,repeat,letter,lettRpt,k,0.7959,noRew,,,,,,0,52,0,52,0,1,,,,,,,,,,,,,,,,,
296530,2022-10-05_23h36.36.836,vts_reward_expectancy,2022.2.4,Win32,60.08893162,Chrome,1280,800,,,,,0,648,,,,,,,,,,,,,,,,,174,W,circle,1,0,,,,,,,,,,,,,,,,switch,number,numSwt,f,0.7971,noRew,,,,,,0,53,0,53,0,1,,,,,,,,,,,,,,,,,
296530,2022-10-05_23h36.36.836,vts_reward_expectancy,2022.2.4,Win32,60.08893162,Chrome,1280,800,,,,,0,648,,,,,,,,,,,,,,,,,167,U,triangle,1,0,,,,,,,,,,,,,,,,repeat,number,numRpt,f,0.8643,noRew,,,,,,0,54,0,54,0,1,,,,,,,,,,,,,,,,,
296530,2022-10-05_23h36.36.836,vts_reward_expectancy,2022.2.4,Win32,60.08893162,Chrome,1280,800,,,,,0,648,,,,,,,,,,,,,,,,,125,F,circle,1,0,,,,,,,,,,,,,,,,switch,letter,lettSwt,j,0.6677,noRew,,,,,,0,55,0,55,0,1,,,,,,,,,,,,,,,,,
296530,2022-10-05_23h36.36.836,vts_reward_expectancy,2022.2.4,Win32,60.08893162,Chrome,1280,800,,,,,0,648,,,,,,,,,,,,,,,,,160,D,star,1,0,,,,,,,,,,,,,,,,repeat,letter,lettRpt,j,0.6579,noRew,,,,,,0,56,0,56,0,1,,,,,,,,,,,,,,,,,
296530,2022-10-05_23h36.36.836,vts_reward_expectancy,2022.2.4,Win32,60.08893162,Chrome,1280,800,,,,,0,648,,,,,,,,,,,,,,,,,167,U,triangle,1,0,,,,,,,,,,,,,,,,repeat,letter,lettRpt,k,0.532,noRew,,,,,,0,57,0,57,0,1,,,,,,,,,,,,,,,,,
296530,2022-10-05_23h36.36.836,vts_reward_expectancy,2022.2.4,Win32,60.08893162,Chrome,1280,800,,,,,0,648,,,,,,,,,,,,,,,,,132,F,star,1,0,,,,,,,,,,,,,,,,repeat,letter,lettRpt,j,0.6879,noRew,,,,,,0,58,0,58,0,1,,,,,,,,,,,,,,,,,
296530,2022-10-05_23h36.36.836,vts_reward_expectancy,2022.2.4,Win32,60.08893162,Chrome,1280,800,,,,,0,648,,,,,,,,,,,,,,,,,181,S,triangle,1,0,,,,,,,,,,,,,,,,repeat,letter,lettRpt,k,0.5795,noRew,,,,,,0,59,0,59,0,1,,,,,,,,,,,,,,,,,
296530,2022-10-05_23h36.36.836,vts_reward_expectancy,2022.2.4,Win32,60.08893162,Chrome,1280,800,,,,,0,648,,,,,,,,,,,,,,,,,167,Y,circle,1,0,,,,,,,,,,,,,,,,switch,number,numSwt,f,0.7867,noRew,,,,,,0,60,0,60,0,1,,,,,,,,,,,,,,,,,
296530,2022-10-05_23h36.36.836,vts_reward_expectancy,2022.2.4,Win32,60.08893162,Chrome,1280,800,,,,,0,648,,,,,,,,,,,,,,,,,132,S,triangle,1,0,,,,,,,,,,,,,,,,repeat,number,numRpt,d,1.0075,noRew,,,,,,0,61,0,61,0,1,,,,,,,,,,,,,,,,,
296530,2022-10-05_23h36.36.836,vts_reward_expectancy,2022.2.4,Win32,60.08893162,Chrome,1280,800,,,,,0,648,,,,,,,,,,,,,,,,,160,U,circle,1,0,,,,,,,,,,,,,,,,repeat,number,numRpt,f,0.6888,noRew,,,,,,0,62,0,62,0,1,,,,,,,,,,,,,,,,,
296530,2022-10-05_23h36.36.836,vts_reward_expectancy,2022.2.4,Win32,60.08893162,Chrome,1280,800,,,,,0,648,,,,,,,,,,,,,,,,,139,W,star,1,0,,,,,,,,,,,,,,,,repeat,number,numRpt,d,0.7184,noRew,,,,,,0,63,0,63,0,1,,,,,,,,,,,,,,,,,
296530,2022-10-05_23h36.36.836,vts_reward_expectancy,2022.2.4,Win32,60.08893162,Chrome,1280,800,,,,,,,,,,,,,,,,,,,,,,,,,,,,,,,,,,,,,,,,,,,,,,,,,,,,,,,,,,,,,,,,,,,,,,,,,,,,
296530,2022-10-05_23h36.36.836,vts_reward_expectancy,2022.2.4,Win32,60.08893162,Chrome,1280,800,,,,,0,648,,,,,,,,,,,,,,,,,132,F,circle,1,0,,,,,,,,,,,,,,,,repeat,number,numRpt,d,1.0957,Hi,,,,,,0,,,,,,space,6.3305,low,0,0,0,0,1,,,,,,,,,
296530,2022-10-05_23h36.36.836,vts_reward_expectancy,2022.2.4,Win32,60.08893162,Chrome,1280,800,,,,,1,649,,,,,,,,,,,,,,,,,174,Y,star,1,0,,,,,,,,,,,,,,,,repeat,number,numRpt,f,0.4999,Lo,,,,,,0,,,,,,,,low,1,0,1,0,1,,,,,,,,,
296530,2022-10-05_23h36.36.836,vts_reward_expectancy,2022.2.4,Win32,60.08893162,Chrome,1280,800,,,,,10,659,,,,,,,,,,,,,,,,,139,B,circle,1,0,,,,,,,,,,,,,,,,repeat,number,numRpt,d,0.3903,Hi,,,,,,0,,,,,,,,low,2,0,2,0,1,,,,,,,,,
296530,2022-10-05_23h36.36.836,vts_reward_expectancy,2022.2.4,Win32,60.08893162,Chrome,1280,800,,,,,10,669,,,,,,,,,,,,,,,,,146,W,star,1,0,,,,,,,,,,,,,,,,repeat,number,numRpt,d,0.5309,Lo,,,,,,0,,,,,,,,low,3,0,3,0,1,,,,,,,,,
296530,2022-10-05_23h36.36.836,vts_reward_expectancy,2022.2.4,Win32,60.08893162,Chrome,1280,800,,,,,1,670,,,,,,,,,,,,,,,,,160,S,star,1,0,,,,,,,,,,,,,,,,repeat,number,numRpt,f,0.3745,Lo,,,,,,0,,,,,,,,low,4,0,4,0,1,,,,,,,,,
296530,2022-10-05_23h36.36.836,vts_reward_expectancy,2022.2.4,Win32,60.08893162,Chrome,1280,800,,,,,10,680,,,,,,,,,,,,,,,,,181,D,circle,1,0,,,,,,,,,,,,,,,,switch,letter,lettSwt,j,0.6552,Hi,,,,,,0,,,,,,,,low,5,0,5,0,1,,,,,,,,,
296530,2022-10-05_23h36.36.836,vts_reward_expectancy,2022.2.4,Win32,60.08893162,Chrome,1280,800,,,,,10,690,,,,,,,,,,,,,,,,,125,U,circle,1,0,,,,,,,,,,,,,,,,repeat,letter,lettRpt,k,0.5536,Hi,,,,,,0,,,,,,,,low,6,0,6,0,1,,,,,,,,,
296530,2022-10-05_23h36.36.836,vts_reward_expectancy,2022.2.4,Win32,60.08893162,Chrome,1280,800,,,,,10,700,,,,,,,,,,,,,,,,,167,H,star,1,0,,,,,,,,,,,,,,,,repeat,letter,lettRpt,j,0.6452,Lo,,,,,,0,,,,,,,,low,7,0,7,0,1,,,,,,,,,
296530,2022-10-05_23h36.36.836,vts_reward_expectancy,2022.2.4,Win32,60.08893162,Chrome,1280,800,,,,,1,701,,,,,,,,,,,,,,,,,132,F,star,1,0,,,,,,,,,,,,,,,,switch,number,numSwt,d,0.6664,Lo,,,,,,0,,,,,,,,low,8,0,8,0,1,,,,,,,,,
296530,2022-10-05_23h36.36.836,vts_reward_expectancy,2022.2.4,Win32,60.08893162,Chrome,1280,800,,,,,0,701,,,,,,,,,,,,,,,,,174,Y,circle,1,0,,,,,,,,,,,,,,,,switch,letter,lettSwt,k,1.2765,Hi,,,,,,0,,,,,,,,low,9,0,9,0,1,,,,,,,,,
296530,2022-10-05_23h36.36.836,vts_reward_expectancy,2022.2.4,Win32,60.08893162,Chrome,1280,800,,,,,10,711,,,,,,,,,,,,,,,,,139,B,star,1,0,,,,,,,,,,,,,,,,switch,number,numSwt,d,0.4684,Lo,,,,,,0,,,,,,,,low,10,0,10,0,1,,,,,,,,,
296530,2022-10-05_23h36.36.836,vts_reward_expectancy,2022.2.4,Win32,60.08893162,Chrome,1280,800,,,,,0,711,,,,,,,,,,,,,,,,,146,W,circle,1,0,,,,,,,,,,,,,,,,repeat,number,numRpt,d,0.7951,Hi,,,,,,0,,,,,,,,low,11,0,11,0,1,,,,,,,,,
296530,2022-10-05_23h36.36.836,vts_reward_expectancy,2022.2.4,Win32,60.08893162,Chrome,1280,800,,,,,10,721,,,,,,,,,,,,,,,,,160,S,star,1,0,,,,,,,,,,,,,,,,repeat,number,numRpt,f,0.5157,Lo,,,,,,0,,,,,,,,low,12,0,12,0,1,,,,,,,,,
296530,2022-10-05_23h36.36.836,vts_reward_expectancy,2022.2.4,Win32,60.08893162,Chrome,1280,800,,,,,10,731,,,,,,,,,,,,,,,,,181,D,circle,1,0,,,,,,,,,,,,,,,,repeat,number,numRpt,f,0.3749,Hi,,,,,,0,,,,,,,,low,13,0,13,0,1,,,,,,,,,
296530,2022-10-05_23h36.36.836,vts_reward_expectancy,2022.2.4,Win32,60.08893162,Chrome,1280,800,,,,,1,732,,,,,,,,,,,,,,,,,125,U,star,1,0,,,,,,,,,,,,,,,,switch,letter,lettSwt,k,0.3971,Lo,,,,,,0,,,,,,,,low,14,0,14,0,1,,,,,,,,,
296530,2022-10-05_23h36.36.836,vts_reward_expectancy,2022.2.4,Win32,60.08893162,Chrome,1280,800,,,,,10,742,,,,,,,,,,,,,,,,,167,H,circle,1,0,,,,,,,,,,,,,,,,switch,number,numSwt,f,0.3499,Hi,,,,,,0,,,,,,,,low,15,0,15,0,1,,,,,,,,,
296530,2022-10-05_23h36.36.836,vts_reward_expectancy,2022.2.4,Win32,60.08893162,Chrome,1280,800,,,,,0,742,,,,,,,,,,,,,,,,,174,S,circle,0,0,,,,,,,,,,,,,,,,switch,letter,NA,j,0.4588,Hi,,,,,,0,,,,,,,,low,16,0,16,0,1,,,,,,,,,
296530,2022-10-05_23h36.36.836,vts_reward_expectancy,2022.2.4,Win32,60.08893162,Chrome,1280,800,,,,,1,743,,,,,,,,,,,,,,,,,125,W,star,1,1,,,,,,,,,,,,,,,,switch,number,numSwt,d,0.5256,Lo,,,,,,0,,,,,,,,low,17,0,17,0,1,,,,,,,,,
296530,2022-10-05_23h36.36.836,vts_reward_expectancy,2022.2.4,Win32,60.08893162,Chrome,1280,800,,,,,10,753,,,,,,,,,,,,,,,,,132,B,circle,1,0,,,,,,,,,,,,,,,,repeat,number,numRpt,d,0.357,Hi,,,,,,0,,,,,,,,low,18,0,18,0,1,,,,,,,,,
296530,2022-10-05_23h36.36.836,vts_reward_expectancy,2022.2.4,Win32,60.08893162,Chrome,1280,800,,,,,0,753,,,,,,,,,,,,,,,,,146,U,star,0,0,,,,,,,,,,,,,,,,repeat,number,NA,f,0.4874,Hi,,,,,,0,,,,,,,,low,19,0,19,0,1,,,,,,,,,
296530,2022-10-05_23h36.36.836,vts_reward_expectancy,2022.2.4,Win32,60.08893162,Chrome,1280,800,,,,,10,763,,,,,,,,,,,,,,,,,167,F,star,1,1,,,,,,,,,,,,,,,,repeat,number,numRpt,f,0.8333,Lo,,,,,,0,,,,,,,,low,20,0,20,0,1,,,,,,,,,
296530,2022-10-05_23h36.36.836,vts_reward_expectancy,2022.2.4,Win32,60.08893162,Chrome,1280,800,,,,,1,764,,,,,,,,,,,,,,,,,181,D,circle,1,0,,,,,,,,,,,,,,,,repeat,number,numRpt,f,0.5346,Hi,,,,,,0,,,,,,,,low,21,0,21,0,1,,,,,,,,,
296530,2022-10-05_23h36.36.836,vts_reward_expectancy,2022.2.4,Win32,60.08893162,Chrome,1280,800,,,,,1,765,,,,,,,,,,,,,,,,,139,Y,star,1,0,,,,,,,,,,,,,,,,repeat,number,numRpt,d,0.5267,Lo,,,,,,0,,,,,,,,low,22,0,22,0,1,,,,,,,,,
296530,2022-10-05_23h36.36.836,vts_reward_expectancy,2022.2.4,Win32,60.08893162,Chrome,1280,800,,,,,1,766,,,,,,,,,,,,,,,,,160,H,circle,1,0,,,,,,,,,,,,,,,,repeat,number,numRpt,f,0.5962,Hi,,,,,,0,,,,,,,,low,23,0,23,0,1,,,,,,,,,
296530,2022-10-05_23h36.36.836,vts_reward_expectancy,2022.2.4,Win32,60.08893162,Chrome,1280,800,,,,,10,776,,,,,,,,,,,,,,,,,160,Y,circle,1,0,,,,,,,,,,,,,,,,repeat,number,numRpt,f,0.6341,Hi,,,,,,0,,,,,,,,low,24,0,24,0,1,,,,,,,,,
296530,2022-10-05_23h36.36.836,vts_reward_expectancy,2022.2.4,Win32,60.08893162,Chrome,1280,800,,,,,1,777,,,,,,,,,,,,,,,,,167,S,star,1,0,,,,,,,,,,,,,,,,repeat,number,numRpt,f,0.3899,Lo,,,,,,0,,,,,,,,low,25,0,25,0,1,,,,,,,,,
296530,2022-10-05_23h36.36.836,vts_reward_expectancy,2022.2.4,Win32,60.08893162,Chrome,1280,800,,,,,1,778,,,,,,,,,,,,,,,,,174,F,star,1,0,,,,,,,,,,,,,,,,repeat,number,numRpt,f,0.3339,Lo,,,,,,0,,,,,,,,low,26,0,26,0,1,,,,,,,,,
296530,2022-10-05_23h36.36.836,vts_reward_expectancy,2022.2.4,Win32,60.08893162,Chrome,1280,800,,,,,0,778,,,,,,,,,,,,,,,,,139,W,circle,1,0,,,,,,,,,,,,,,,,repeat,number,numRpt,d,0.7669,Hi,,,,,,0,,,,,,,,low,27,0,27,0,1,,,,,,,,,
296530,2022-10-05_23h36.36.836,vts_reward_expectancy,2022.2.4,Win32,60.08893162,Chrome,1280,800,,,,,1,779,,,,,,,,,,,,,,,,,132,H,circle,1,0,,,,,,,,,,,,,,,,repeat,number,numRpt,d,0.6003,Hi,,,,,,0,,,,,,,,low,28,0,28,0,1,,,,,,,,,
296530,2022-10-05_23h36.36.836,vts_reward_expectancy,2022.2.4,Win32,60.08893162,Chrome,1280,800,,,,,1,780,,,,,,,,,,,,,,,,,181,D,star,1,0,,,,,,,,,,,,,,,,repeat,number,numRpt,f,0.6688,Lo,,,,,,0,,,,,,,,low,29,0,29,0,1,,,,,,,,,
296530,2022-10-05_23h36.36.836,vts_reward_expectancy,2022.2.4,Win32,60.08893162,Chrome,1280,800,,,,,1,781,,,,,,,,,,,,,,,,,146,B,star,1,0,,,,,,,,,,,,,,,,repeat,number,numRpt,d,0.784,Lo,,,,,,0,,,,,,,,low,30,0,30,0,1,,,,,,,,,
296530,2022-10-05_23h36.36.836,vts_reward_expectancy,2022.2.4,Win32,60.08893162,Chrome,1280,800,,,,,10,791,,,,,,,,,,,,,,,,,125,U,circle,1,0,,,,,,,,,,,,,,,,repeat,number,numRpt,d,0.5525,Hi,,,,,,0,,,,,,,,low,31,0,31,0,1,,,,,,,,,
296530,2022-10-05_23h36.36.836,vts_reward_expectancy,2022.2.4,Win32,60.08893162,Chrome,1280,800,,,,,0,791,,,,,,,,,,,,,,,,,167,D,hexagon,1,0,,,,,,,,,,,,,,,,repeat,number,numRpt,f,0.6006,Hi,,,,,,1,,,,,,space,1.5834,high,0,0,0,0,1,,,,,,,,,
296530,2022-10-05_23h36.36.836,vts_reward_expectancy,2022.2.4,Win32,60.08893162,Chrome,1280,800,,,,,1,792,,,,,,,,,,,,,,,,,125,B,triangle,1,0,,,,,,,,,,,,,,,,repeat,number,numRpt,d,0.5461,Lo,,,,,,1,,,,,,,,high,1,0,1,0,1,,,,,,,,,
296530,2022-10-05_23h36.36.836,vts_reward_expectancy,2022.2.4,Win32,60.08893162,Chrome,1280,800,,,,,10,802,,,,,,,,,,,,,,,,,174,H,hexagon,1,0,,,,,,,,,,,,,,,,repeat,number,numRpt,f,0.3435,Hi,,,,,,1,,,,,,,,high,2,0,2,0,1,,,,,,,,,
296530,2022-10-05_23h36.36.836,vts_reward_expectancy,2022.2.4,Win32,60.08893162,Chrome,1280,800,,,,,1,803,,,,,,,,,,,,,,,,,181,S,triangle,1,0,,,,,,,,,,,,,,,,repeat,number,numRpt,f,0.4602,Lo,,,,,,1,,,,,,,,high,3,0,3,0,1,,,,,,,,,
296530,2022-10-05_23h36.36.836,vts_reward_expectancy,2022.2.4,Win32,60.08893162,Chrome,1280,800,,,,,0,803,,,,,,,,,,,,,,,,,139,W,hexagon,1,0,,,,,,,,,,,,,,,,repeat,number,numRpt,d,0.5519,Hi,,,,,,1,,,,,,,,high,4,0,4,0,1,,,,,,,,,
296530,2022-10-05_23h36.36.836,vts_reward_expectancy,2022.2.4,Win32,60.08893162,Chrome,1280,800,,,,,0,803,,,,,,,,,,,,,,,,,146,Y,triangle,0,0,,,,,,,,,,,,,,,,repeat,number,NA,f,0.6671,Hi,,,,,,1,,,,,,,,high,5,0,5,0,1,,,,,,,,,
296530,2022-10-05_23h36.36.836,vts_reward_expectancy,2022.2.4,Win32,60.08893162,Chrome,1280,800,,,,,0,803,,,,,,,,,,,,,,,,,160,F,hexagon,1,1,,,,,,,,,,,,,,,,repeat,number,numRpt,f,0.56,Hi,,,,,,1,,,,,,,,high,6,0,6,0,1,,,,,,,,,
296530,2022-10-05_23h36.36.836,vts_reward_expectancy,2022.2.4,Win32,60.08893162,Chrome,1280,800,,,,,1,804,,,,,,,,,,,,,,,,,132,U,triangle,1,0,,,,,,,,,,,,,,,,repeat,number,numRpt,d,0.3176,Lo,,,,,,1,,,,,,,,high,7,0,7,0,1,,,,,,,,,
296530,2022-10-05_23h36.36.836,vts_reward_expectancy,2022.2.4,Win32,60.08893162,Chrome,1280,800,,,,,10,814,,,,,,,,,,,,,,,,,167,D,hexagon,1,0,,,,,,,,,,,,,,,,repeat,number,numRpt,f,0.4493,Hi,,,,,,1,,,,,,,,high,8,0,8,0,1,,,,,,,,,
296530,2022-10-05_23h36.36.836,vts_reward_expectancy,2022.2.4,Win32,60.08893162,Chrome,1280,800,,,,,1,815,,,,,,,,,,,,,,,,,125,B,triangle,1,0,,,,,,,,,,,,,,,,repeat,number,numRpt,d,0.4339,Lo,,,,,,1,,,,,,,,high,9,0,9,0,1,,,,,,,,,
296530,2022-10-05_23h36.36.836,vts_reward_expectancy,2022.2.4,Win32,60.08893162,Chrome,1280,800,,,,,0,815,,,,,,,,,,,,,,,,,174,H,hexagon,1,0,,,,,,,,,,,,,,,,repeat,number,numRpt,f,0.5359,Hi,,,,,,1,,,,,,,,high,10,0,10,0,1,,,,,,,,,
296530,2022-10-05_23h36.36.836,vts_reward_expectancy,2022.2.4,Win32,60.08893162,Chrome,1280,800,,,,,1,816,,,,,,,,,,,,,,,,,181,S,triangle,1,0,,,,,,,,,,,,,,,,repeat,number,numRpt,f,0.6348,Lo,,,,,,1,,,,,,,,high,11,0,11,0,1,,,,,,,,,
296530,2022-10-05_23h36.36.836,vts_reward_expectancy,2022.2.4,Win32,60.08893162,Chrome,1280,800,,,,,1,817,,,,,,,,,,,,,,,,,139,W,triangle,1,0,,,,,,,,,,,,,,,,repeat,number,numRpt,d,0.5081,Lo,,,,,,1,,,,,,,,high,12,0,12,0,1,,,,,,,,,
296530,2022-10-05_23h36.36.836,vts_reward_expectancy,2022.2.4,Win32,60.08893162,Chrome,1280,800,,,,,10,827,,,,,,,,,,,,,,,,,146,Y,hexagon,1,0,,,,,,,,,,,,,,,,repeat,number,numRpt,d,0.4304,Hi,,,,,,1,,,,,,,,high,13,0,13,0,1,,,,,,,,,
296530,2022-10-05_23h36.36.836,vts_reward_expectancy,2022.2.4,Win32,60.08893162,Chrome,1280,800,,,,,10,837,,,,,,,,,,,,,,,,,160,F,hexagon,1,0,,,,,,,,,,,,,,,,repeat,number,numRpt,f,0.4444,Hi,,,,,,1,,,,,,,,high,14,0,14,0,1,,,,,,,,,
296530,2022-10-05_23h36.36.836,vts_reward_expectancy,2022.2.4,Win32,60.08893162,Chrome,1280,800,,,,,1,838,,,,,,,,,,,,,,,,,132,U,triangle,1,0,,,,,,,,,,,,,,,,repeat,number,numRpt,d,0.3036,Lo,,,,,,1,,,,,,,,high,15,0,15,0,1,,,,,,,,,
296530,2022-10-05_23h36.36.836,vts_reward_expectancy,2022.2.4,Win32,60.08893162,Chrome,1280,800,,,,,1,839,,,,,,,,,,,,,,,,,181,B,triangle,1,0,,,,,,,,,,,,,,,,repeat,number,numRpt,f,0.5431,Lo,,,,,,1,,,,,,,,high,16,0,16,0,1,,,,,,,,,
296530,2022-10-05_23h36.36.836,vts_reward_expectancy,2022.2.4,Win32,60.08893162,Chrome,1280,800,,,,,0,839,,,,,,,,,,,,,,,,,146,U,hexagon,1,0,,,,,,,,,,,,,,,,repeat,number,numRpt,d,0.5373,Hi,,,,,,1,,,,,,,,high,17,0,17,0,1,,,,,,,,,
296530,2022-10-05_23h36.36.836,vts_reward_expectancy,2022.2.4,Win32,60.08893162,Chrome,1280,800,,,,,1,840,,,,,,,,,,,,,,,,,139,H,triangle,1,0,,,,,,,,,,,,,,,,switch,letter,lettSwt,j,0.6942,Lo,,,,,,1,,,,,,,,high,18,0,18,0,1,,,,,,,,,
296530,2022-10-05_23h36.36.836,vts_reward_expectancy,2022.2.4,Win32,60.08893162,Chrome,1280,800,,,,,0,840,,,,,,,,,,,,,,,,,132,F,hexagon,1,0,,,,,,,,,,,,,,,,repeat,letter,lettRpt,j,0.5552,Hi,,,,,,1,,,,,,,,high,19,0,19,0,1,,,,,,,,,
296530,2022-10-05_23h36.36.836,vts_reward_expectancy,2022.2.4,Win32,60.08893162,Chrome,1280,800,,,,,0,840,,,,,,,,,,,,,,,,,167,S,hexagon,0,0,,,,,,,,,,,,,,,,switch,number,NA,d,0.0621,Hi,,,,,,1,,,,,,,,high,20,0,20,0,1,,,,,,,,,
296530,2022-10-05_23h36.36.836,vts_reward_expectancy,2022.2.4,Win32,60.08893162,Chrome,1280,800,,,,,0,840,,,,,,,,,,,,,,,,,160,Y,triangle,0,1,,,,,,,,,,,,,,,,repeat,number,NA,d,0.0104,Hi,,,,,,1,,,,,,,,high,21,0,21,0,1,,,,,,,,,
296530,2022-10-05_23h36.36.836,vts_reward_expectancy,2022.2.4,Win32,60.08893162,Chrome,1280,800,,,,,0,840,,,,,,,,,,,,,,,,,174,W,triangle,0,1,,,,,,,,,,,,,,,,repeat,number,NA,d,0.0333,Hi,,,,,,1,,,,,,,,high,22,0,22,0,1,,,,,,,,,
296530,2022-10-05_23h36.36.836,vts_reward_expectancy,2022.2.4,Win32,60.08893162,Chrome,1280,800,,,,,10,850,,,,,,,,,,,,,,,,,125,D,hexagon,1,1,,,,,,,,,,,,,,,,repeat,number,numRpt,d,0.0631,Hi,,,,,,1,,,,,,,,high,23,0,23,0,1,,,,,,,,,
296530,2022-10-05_23h36.36.836,vts_reward_expectancy,2022.2.4,Win32,60.08893162,Chrome,1280,800,,,,,0,850,,,,,,,,,,,,,,,,,160,D,hexagon,1,0,,,,,,,,,,,,,,,,repeat,number,numRpt,f,0.9386,Hi,,,,,,1,,,,,,,,high,24,0,24,0,1,,,,,,,,,
296530,2022-10-05_23h36.36.836,vts_reward_expectancy,2022.2.4,Win32,60.08893162,Chrome,1280,800,,,,,1,851,,,,,,,,,,,,,,,,,146,F,triangle,1,0,,,,,,,,,,,,,,,,repeat,number,numRpt,d,0.5517,Lo,,,,,,1,,,,,,,,high,25,0,25,0,1,,,,,,,,,
296530,2022-10-05_23h36.36.836,vts_reward_expectancy,2022.2.4,Win32,60.08893162,Chrome,1280,800,,,,,0,851,,,,,,,,,,,,,,,,,167,W,hexagon,1,0,,,,,,,,,,,,,,,,repeat,number,numRpt,f,0.7945,Hi,,,,,,1,,,,,,,,high,26,0,26,0,1,,,,,,,,,
296530,2022-10-05_23h36.36.836,vts_reward_expectancy,2022.2.4,Win32,60.08893162,Chrome,1280,800,,,,,0,851,,,,,,,,,,,,,,,,,125,S,triangle,0,0,,,,,,,,,,,,,,,,repeat,number,NA,f,0.0502,Hi,,,,,,1,,,,,,,,high,27,0,27,0,1,,,,,,,,,
296530,2022-10-05_23h36.36.836,vts_reward_expectancy,2022.2.4,Win32,60.08893162,Chrome,1280,800,,,,,10,861,,,,,,,,,,,,,,,,,181,B,hexagon,1,1,,,,,,,,,,,,,,,,repeat,number,numRpt,f,0.0168,Hi,,,,,,1,,,,,,,,high,28,0,28,0,1,,,,,,,,,
296530,2022-10-05_23h36.36.836,vts_reward_expectancy,2022.2.4,Win32,60.08893162,Chrome,1280,800,,,,,0,861,,,,,,,,,,,,,,,,,132,Y,triangle,0,0,,,,,,,,,,,,,,,,repeat,number,NA,f,0.1058,Hi,,,,,,1,,,,,,,,high,29,0,29,0,1,,,,,,,,,
296530,2022-10-05_23h36.36.836,vts_reward_expectancy,2022.2.4,Win32,60.08893162,Chrome,1280,800,,,,,1,862,,,,,,,,,,,,,,,,,174,U,triangle,1,1,,,,,,,,,,,,,,,,repeat,number,numRpt,f,0.127,Lo,,,,,,1,,,,,,,,high,30,0,30,0,1,,,,,,,,,
296530,2022-10-05_23h36.36.836,vts_reward_expectancy,2022.2.4,Win32,60.08893162,Chrome,1280,800,,,,,10,872,,,,,,,,,,,,,,,,,139,H,hexagon,1,0,,,,,,,,,,,,,,,,repeat,number,numRpt,d,0.4664,Hi,,,,,,1,,,,,,,,high,31,0,31,0,1,,,,,,,,,
296530,2022-10-05_23h36.36.836,vts_reward_expectancy,2022.2.4,Win32,60.08893162,Chrome,1280,800,,,,,1,873,,,,,,,,,,,,,,,,,160,Y,star,1,0,,,,,,,,,,,,,,,,repeat,number,numRpt,f,0.6904,Lo,,,,,,2,,,,,,space,2.4613,low,0,0,0,0,1,,,,,,,,,
296530,2022-10-05_23h36.36.836,vts_reward_expectancy,2022.2.4,Win32,60.08893162,Chrome,1280,800,,,,,0,873,,,,,,,,,,,,,,,,,139,U,circle,1,0,,,,,,,,,,,,,,,,repeat,number,numRpt,d,0.7237,Hi,,,,,,2,,,,,,,,low,1,0,1,0,1,,,,,,,,,
296530,2022-10-05_23h36.36.836,vts_reward_expectancy,2022.2.4,Win32,60.08893162,Chrome,1280,800,,,,,10,883,,,,,,,,,,,,,,,,,181,D,star,1,0,,,,,,,,,,,,,,,,repeat,number,numRpt,f,0.4675,Lo,,,,,,2,,,,,,,,low,2,0,2,0,1,,,,,,,,,
296530,2022-10-05_23h36.36.836,vts_reward_expectancy,2022.2.4,Win32,60.08893162,Chrome,1280,800,,,,,1,884,,,,,,,,,,,,,,,,,125,W,circle,1,0,,,,,,,,,,,,,,,,switch,letter,lettSwt,k,0.467,Hi,,,,,,2,,,,,,,,low,3,0,3,0,1,,,,,,,,,
296530,2022-10-05_23h36.36.836,vts_reward_expectancy,2022.2.4,Win32,60.08893162,Chrome,1280,800,,,,,1,885,,,,,,,,,,,,,,,,,146,F,star,1,0,,,,,,,,,,,,,,,,repeat,letter,lettRpt,j,0.4249,Lo,,,,,,2,,,,,,,,low,4,0,4,0,1,,,,,,,,,
296530,2022-10-05_23h36.36.836,vts_reward_expectancy,2022.2.4,Win32,60.08893162,Chrome,1280,800,,,,,0,885,,,,,,,,,,,,,,,,,132,S,circle,1,0,,,,,,,,,,,,,,,,repeat,letter,lettRpt,k,0.5621,Hi,,,,,,2,,,,,,,,low,5,0,5,0,1,,,,,,,,,
296530,2022-10-05_23h36.36.836,vts_reward_expectancy,2022.2.4,Win32,60.08893162,Chrome,1280,800,,,,,1,886,,,,,,,,,,,,,,,,,174,H,star,1,0,,,,,,,,,,,,,,,,switch,number,numSwt,f,0.3508,Lo,,,,,,2,,,,,,,,low,6,0,6,0,1,,,,,,,,,
296530,2022-10-05_23h36.36.836,vts_reward_expectancy,2022.2.4,Win32,60.08893162,Chrome,1280,800,,,,,10,896,,,,,,,,,,,,,,,,,167,B,circle,1,0,,,,,,,,,,,,,,,,repeat,number,numRpt,f,0.3845,Hi,,,,,,2,,,,,,,,low,7,0,7,0,1,,,,,,,,,
296530,2022-10-05_23h36.36.836,vts_reward_expectancy,2022.2.4,Win32,60.08893162,Chrome,1280,800,,,,,0,896,,,,,,,,,,,,,,,,,160,Y,circle,1,0,,,,,,,,,,,,,,,,repeat,number,numRpt,f,0.4508,Hi,,,,,,2,,,,,,,,low,8,0,8,0,1,,,,,,,,,
296530,2022-10-05_23h36.36.836,vts_reward_expectancy,2022.2.4,Win32,60.08893162,Chrome,1280,800,,,,,1,897,,,,,,,,,,,,,,,,,139,U,star,1,0,,,,,,,,,,,,,,,,repeat,number,numRpt,d,0.8003,Lo,,,,,,2,,,,,,,,low,9,0,9,0,1,,,,,,,,,
296530,2022-10-05_23h36.36.836,vts_reward_expectancy,2022.2.4,Win32,60.08893162,Chrome,1280,800,,,,,1,898,,,,,,,,,,,,,,,,,181,D,circle,1,0,,,,,,,,,,,,,,,,switch,letter,lettSwt,j,0.533,Hi,,,,,,2,,,,,,,,low,10,0,10,0,1,,,,,,,,,
296530,2022-10-05_23h36.36.836,vts_reward_expectancy,2022.2.4,Win32,60.08893162,Chrome,1280,800,,,,,10,908,,,,,,,,,,,,,,,,,125,W,star,1,0,,,,,,,,,,,,,,,,repeat,letter,lettRpt,k,0.3716,Lo,,,,,,2,,,,,,,,low,11,0,11,0,1,,,,,,,,,
296530,2022-10-05_23h36.36.836,vts_reward_expectancy,2022.2.4,Win32,60.08893162,Chrome,1280,800,,,,,10,918,,,,,,,,,,,,,,,,,146,F,circle,1,0,,,,,,,,,,,,,,,,switch,number,numSwt,d,0.8443,Hi,,,,,,2,,,,,,,,low,12,0,12,0,1,,,,,,,,,
296530,2022-10-05_23h36.36.836,vts_reward_expectancy,2022.2.4,Win32,60.08893162,Chrome,1280,800,,,,,1,919,,,,,,,,,,,,,,,,,132,S,star,1,0,,,,,,,,,,,,,,,,repeat,number,numRpt,d,0.4781,Lo,,,,,,2,,,,,,,,low,13,0,13,0,1,,,,,,,,,
296530,2022-10-05_23h36.36.836,vts_reward_expectancy,2022.2.4,Win32,60.08893162,Chrome,1280,800,,,,,1,920,,,,,,,,,,,,,,,,,174,H,star,1,0,,,,,,,,,,,,,,,,switch,letter,lettSwt,j,0.6169,Lo,,,,,,2,,,,,,,,low,14,0,14,0,1,,,,,,,,,
296530,2022-10-05_23h36.36.836,vts_reward_expectancy,2022.2.4,Win32,60.08893162,Chrome,1280,800,,,,,10,930,,,,,,,,,,,,,,,,,167,B,circle,1,0,,,,,,,,,,,,,,,,repeat,letter,lettRpt,j,0.5172,Hi,,,,,,2,,,,,,,,low,15,0,15,0,1,,,,,,,,,
296530,2022-10-05_23h36.36.836,vts_reward_expectancy,2022.2.4,Win32,60.08893162,Chrome,1280,800,,,,,10,940,,,,,,,,,,,,,,,,,167,H,circle,1,0,,,,,,,,,,,,,,,,switch,number,numSwt,f,0.8235,Hi,,,,,,2,,,,,,,,low,16,0,16,0,1,,,,,,,,,
296530,2022-10-05_23h36.36.836,vts_reward_expectancy,2022.2.4,Win32,60.08893162,Chrome,1280,800,,,,,1,941,,,,,,,,,,,,,,,,,146,F,star,1,0,,,,,,,,,,,,,,,,repeat,number,numRpt,d,1.1172,Lo,,,,,,2,,,,,,,,low,17,0,17,0,1,,,,,,,,,
296530,2022-10-05_23h36.36.836,vts_reward_expectancy,2022.2.4,Win32,60.08893162,Chrome,1280,800,,,,,0,941,,,,,,,,,,,,,,,,,139,U,circle,1,0,,,,,,,,,,,,,,,,repeat,number,numRpt,d,0.5251,Hi,,,,,,2,,,,,,,,low,18,0,18,0,1,,,,,,,,,
296530,2022-10-05_23h36.36.836,vts_reward_expectancy,2022.2.4,Win32,60.08893162,Chrome,1280,800,,,,,1,942,,,,,,,,,,,,,,,,,160,S,star,1,0,,,,,,,,,,,,,,,,repeat,number,numRpt,f,0.4866,Lo,,,,,,2,,,,,,,,low,19,0,19,0,1,,,,,,,,,
296530,2022-10-05_23h36.36.836,vts_reward_expectancy,2022.2.4,Win32,60.08893162,Chrome,1280,800,,,,,0,942,,,,,,,,,,,,,,,,,181,W,circle,1,0,,,,,,,,,,,,,,,,repeat,number,numRpt,f,0.6654,Hi,,,,,,2,,,,,,,,low,20,0,20,0,1,,,,,,,,,
296530,2022-10-05_23h36.36.836,vts_reward_expectancy,2022.2.4,Win32,60.08893162,Chrome,1280,800,,,,,1,943,,,,,,,,,,,,,,,,,125,D,star,1,0,,,,,,,,,,,,,,,,switch,letter,lettSwt,j,0.658,Lo,,,,,,2,,,,,,,,low,21,0,21,0,1,,,,,,,,,
296530,2022-10-05_23h36.36.836,vts_reward_expectancy,2022.2.4,Win32,60.08893162,Chrome,1280,800,,,,,1,944,,,,,,,,,,,,,,,,,174,B,circle,1,0,,,,,,,,,,,,,,,,repeat,letter,lettRpt,j,0.5019,Hi,,,,,,2,,,,,,,,low,22,0,22,0,1,,,,,,,,,
296530,2022-10-05_23h36.36.836,vts_reward_expectancy,2022.2.4,Win32,60.08893162,Chrome,1280,800,,,,,1,945,,,,,,,,,,,,,,,,,132,Y,star,1,0,,,,,,,,,,,,,,,,repeat,letter,lettRpt,k,0.4039,Lo,,,,,,2,,,,,,,,low,23,0,23,0,1,,,,,,,,,
296530,2022-10-05_23h36.36.836,vts_reward_expectancy,2022.2.4,Win32,60.08893162,Chrome,1280,800,,,,,10,955,,,,,,,,,,,,,,,,,132,B,circle,1,0,,,,,,,,,,,,,,,,switch,number,numSwt,d,0.4715,Hi,,,,,,2,,,,,,,,low,24,0,24,0,1,,,,,,,,,
296530,2022-10-05_23h36.36.836,vts_reward_expectancy,2022.2.4,Win32,60.08893162,Chrome,1280,800,,,,,10,965,,,,,,,,,,,,,,,,,181,W,star,1,0,,,,,,,,,,,,,,,,repeat,number,numRpt,f,0.6588,Lo,,,,,,2,,,,,,,,low,25,0,25,0,1,,,,,,,,,
296530,2022-10-05_23h36.36.836,vts_reward_expectancy,2022.2.4,Win32,60.08893162,Chrome,1280,800,,,,,0,965,,,,,,,,,,,,,,,,,146,U,circle,1,0,,,,,,,,,,,,,,,,repeat,number,numRpt,d,0.6836,Hi,,,,,,2,,,,,,,,low,26,0,26,0,1,,,,,,,,,
296530,2022-10-05_23h36.36.836,vts_reward_expectancy,2022.2.4,Win32,60.08893162,Chrome,1280,800,,,,,1,966,,,,,,,,,,,,,,,,,167,F,star,1,0,,,,,,,,,,,,,,,,repeat,number,numRpt,f,0.4563,Lo,,,,,,2,,,,,,,,low,27,0,27,0,1,,,,,,,,,
296530,2022-10-05_23h36.36.836,vts_reward_expectancy,2022.2.4,Win32,60.08893162,Chrome,1280,800,,,,,1,967,,,,,,,,,,,,,,,,,125,Y,star,1,0,,,,,,,,,,,,,,,,repeat,number,numRpt,d,0.8345,Lo,,,,,,2,,,,,,,,low,28,0,28,0,1,,,,,,,,,
296530,2022-10-05_23h36.36.836,vts_reward_expectancy,2022.2.4,Win32,60.08893162,Chrome,1280,800,,,,,0,967,,,,,,,,,,,,,,,,,139,D,circle,1,0,,,,,,,,,,,,,,,,repeat,number,numRpt,d,0.6519,Hi,,,,,,2,,,,,,,,low,29,0,29,0,1,,,,,,,,,
296530,2022-10-05_23h36.36.836,vts_reward_expectancy,2022.2.4,Win32,60.08893162,Chrome,1280,800,,,,,1,968,,,,,,,,,,,,,,,,,160,H,star,1,0,,,,,,,,,,,,,,,,repeat,number,numRpt,f,0.4905,Lo,,,,,,2,,,,,,,,low,30,0,30,0,1,,,,,,,,,
296530,2022-10-05_23h36.36.836,vts_reward_expectancy,2022.2.4,Win32,60.08893162,Chrome,1280,800,,,,,0,968,,,,,,,,,,,,,,,,,174,S,circle,1,0,,,,,,,,,,,,,,,,repeat,number,numRpt,f,0.7078,Hi,,,,,,2,,,,,,,,low,31,0,31,0,1,,,,,,,,,
296530,2022-10-05_23h36.36.836,vts_reward_expectancy,2022.2.4,Win32,60.08893162,Chrome,1280,800,,,,,1,969,,,,,,,,,,,,,,,,,167,U,triangle,1,0,,,,,,,,,,,,,,,,repeat,number,numRpt,f,0.5172,Lo,,,,,,3,,,,,,space,2.6258,high,0,0,0,0,1,,,,,,,,,
296530,2022-10-05_23h36.36.836,vts_reward_expectancy,2022.2.4,Win32,60.08893162,Chrome,1280,800,,,,,0,969,,,,,,,,,,,,,,,,,146,H,hexagon,0,0,,,,,,,,,,,,,,,,repeat,number,NA,f,0.7664,Lo,,,,,,3,,,,,,,,high,1,0,1,0,1,,,,,,,,,
296530,2022-10-05_23h36.36.836,vts_reward_expectancy,2022.2.4,Win32,60.08893162,Chrome,1280,800,,,,,1,970,,,,,,,,,,,,,,,,,174,B,triangle,1,1,,,,,,,,,,,,,,,,repeat,number,numRpt,f,0.5507,Lo,,,,,,3,,,,,,,,high,2,0,2,0,1,,,,,,,,,
296530,2022-10-05_23h36.36.836,vts_reward_expectancy,2022.2.4,Win32,60.08893162,Chrome,1280,800,,,,,0,970,,,,,,,,,,,,,,,,,139,F,hexagon,1,0,,,,,,,,,,,,,,,,repeat,number,numRpt,d,0.8945,Hi,,,,,,3,,,,,,,,high,3,0,3,0,1,,,,,,,,,
296530,2022-10-05_23h36.36.836,vts_reward_expectancy,2022.2.4,Win32,60.08893162,Chrome,1280,800,,,,,0,970,,,,,,,,,,,,,,,,,125,Y,hexagon,1,0,,,,,,,,,,,,,,,,repeat,number,numRpt,d,0.6747,Hi,,,,,,3,,,,,,,,high,4,0,4,0,1,,,,,,,,,
296530,2022-10-05_23h36.36.836,vts_reward_expectancy,2022.2.4,Win32,60.08893162,Chrome,1280,800,,,,,1,971,,,,,,,,,,,,,,,,,160,W,triangle,1,0,,,,,,,,,,,,,,,,switch,letter,lettSwt,k,0.4868,Lo,,,,,,3,,,,,,,,high,5,0,5,0,1,,,,,,,,,
296530,2022-10-05_23h36.36.836,vts_reward_expectancy,2022.2.4,Win32,60.08893162,Chrome,1280,800,,,,,1,972,,,,,,,,,,,,,,,,,181,S,triangle,1,0,,,,,,,,,,,,,,,,switch,number,numSwt,f,0.457,Lo,,,,,,3,,,,,,,,high,6,0,6,0,1,,,,,,,,,
296530,2022-10-05_23h36.36.836,vts_reward_expectancy,2022.2.4,Win32,60.08893162,Chrome,1280,800,,,,,0,972,,,,,,,,,,,,,,,,,132,D,hexagon,1,0,,,,,,,,,,,,,,,,switch,letter,lettSwt,j,0.9852,Hi,,,,,,3,,,,,,,,high,7,0,7,0,1,,,,,,,,,
296530,2022-10-05_23h36.36.836,vts_reward_expectancy,2022.2.4,Win32,60.08893162,Chrome,1280,800,,,,,10,982,,,,,,,,,,,,,,,,,167,U,hexagon,1,0,,,,,,,,,,,,,,,,repeat,letter,lettRpt,k,0.4117,Hi,,,,,,3,,,,,,,,high,8,0,8,0,1,,,,,,,,,
296530,2022-10-05_23h36.36.836,vts_reward_expectancy,2022.2.4,Win32,60.08893162,Chrome,1280,800,,,,,1,983,,,,,,,,,,,,,,,,,146,H,triangle,1,0,,,,,,,,,,,,,,,,repeat,letter,lettRpt,j,0.5551,Lo,,,,,,3,,,,,,,,high,9,0,9,0,1,,,,,,,,,
296530,2022-10-05_23h36.36.836,vts_reward_expectancy,2022.2.4,Win32,60.08893162,Chrome,1280,800,,,,,1,984,,,,,,,,,,,,,,,,,174,B,triangle,1,0,,,,,,,,,,,,,,,,switch,number,numSwt,f,0.7889,Lo,,,,,,3,,,,,,,,high,10,0,10,0,1,,,,,,,,,
296530,2022-10-05_23h36.36.836,vts_reward_expectancy,2022.2.4,Win32,60.08893162,Chrome,1280,800,,,,,0,984,,,,,,,,,,,,,,,,,139,F,hexagon,1,0,,,,,,,,,,,,,,,,repeat,number,numRpt,d,0.4976,Hi,,,,,,3,,,,,,,,high,11,0,11,0,1,,,,,,,,,
296530,2022-10-05_23h36.36.836,vts_reward_expectancy,2022.2.4,Win32,60.08893162,Chrome,1280,800,,,,,1,985,,,,,,,,,,,,,,,,,125,Y,triangle,1,0,,,,,,,,,,,,,,,,repeat,number,numRpt,d,0.6019,Lo,,,,,,3,,,,,,,,high,12,0,12,0,1,,,,,,,,,
296530,2022-10-05_23h36.36.836,vts_reward_expectancy,2022.2.4,Win32,60.08893162,Chrome,1280,800,,,,,1,986,,,,,,,,,,,,,,,,,160,W,hexagon,1,0,,,,,,,,,,,,,,,,repeat,number,numRpt,f,0.4174,Hi,,,,,,3,,,,,,,,high,13,0,13,0,1,,,,,,,,,
296530,2022-10-05_23h36.36.836,vts_reward_expectancy,2022.2.4,Win32,60.08893162,Chrome,1280,800,,,,,1,987,,,,,,,,,,,,,,,,,181,S,triangle,1,0,,,,,,,,,,,,,,,,repeat,number,numRpt,f,0.472,Lo,,,,,,3,,,,,,,,high,14,0,14,0,1,,,,,,,,,
296530,2022-10-05_23h36.36.836,vts_reward_expectancy,2022.2.4,Win32,60.08893162,Chrome,1280,800,,,,,10,997,,,,,,,,,,,,,,,,,132,D,hexagon,1,0,,,,,,,,,,,,,,,,switch,letter,lettSwt,j,0.4672,Hi,,,,,,3,,,,,,,,high,15,0,15,0,1,,,,,,,,,
296530,2022-10-05_23h36.36.836,vts_reward_expectancy,2022.2.4,Win32,60.08893162,Chrome,1280,800,,,,,0,997,,,,,,,,,,,,,,,,,125,W,hexagon,1,0,,,,,,,,,,,,,,,,repeat,letter,lettRpt,k,0.767,Hi,,,,,,3,,,,,,,,high,16,0,16,0,1,,,,,,,,,
296530,2022-10-05_23h36.36.836,vts_reward_expectancy,2022.2.4,Win32,60.08893162,Chrome,1280,800,,,,,1,998,,,,,,,,,,,,,,,,,132,B,triangle,1,0,,,,,,,,,,,,,,,,repeat,letter,lettRpt,j,0.6531,Lo,,,,,,3,,,,,,,,high,17,0,17,0,1,,,,,,,,,
296530,2022-10-05_23h36.36.836,vts_reward_expectancy,2022.2.4,Win32,60.08893162,Chrome,1280,800,,,,,0,998,,,,,,,,,,,,,,,,,174,F,hexagon,1,0,,,,,,,,,,,,,,,,repeat,letter,lettRpt,j,0.9605,Hi,,,,,,3,,,,,,,,high,18,0,18,0,1,,,,,,,,,
296530,2022-10-05_23h36.36.836,vts_reward_expectancy,2022.2.4,Win32,60.08893162,Chrome,1280,800,,,,,1,999,,,,,,,,,,,,,,,,,160,Y,triangle,1,0,,,,,,,,,,,,,,,,repeat,letter,lettRpt,k,0.6372,Lo,,,,,,3,,,,,,,,high,19,0,19,0,1,,,,,,,,,
296530,2022-10-05_23h36.36.836,vts_reward_expectancy,2022.2.4,Win32,60.08893162,Chrome,1280,800,,,,,0,999,,,,,,,,,,,,,,,,,167,H,hexagon,1,0,,,,,,,,,,,,,,,,repeat,letter,lettRpt,j,0.6005,Hi,,,,,,3,,,,,,,,high,20,0,20,0,1,,,,,,,,,
296530,2022-10-05_23h36.36.836,vts_reward_expectancy,2022.2.4,Win32,60.08893162,Chrome,1280,800,,,,,1,1000,,,,,,,,,,,,,,,,,139,S,triangle,1,0,,,,,,,,,,,,,,,,repeat,letter,lettRpt,k,0.5997,Lo,,,,,,3,,,,,,,,high,21,0,21,0,1,,,,,,,,,
296530,2022-10-05_23h36.36.836,vts_reward_expectancy,2022.2.4,Win32,60.08893162,Chrome,1280,800,,,,,1,1001,,,,,,,,,,,,,,,,,181,U,triangle,1,0,,,,,,,,,,,,,,,,repeat,letter,lettRpt,k,0.5367,Lo,,,,,,3,,,,,,,,high,22,0,22,0,1,,,,,,,,,
296530,2022-10-05_23h36.36.836,vts_reward_expectancy,2022.2.4,Win32,60.08893162,Chrome,1280,800,,,,,0,1001,,,,,,,,,,,,,,,,,146,D,hexagon,1,0,,,,,,,,,,,,,,,,repeat,letter,lettRpt,j,0.7856,Hi,,,,,,3,,,,,,,,high,23,0,23,0,1,,,,,,,,,
296530,2022-10-05_23h36.36.836,vts_reward_expectancy,2022.2.4,Win32,60.08893162,Chrome,1280,800,,,,,0,1001,,,,,,,,,,,,,,,,,174,U,hexagon,1,0,,,,,,,,,,,,,,,,repeat,letter,lettRpt,k,0.5012,Hi,,,,,,3,,,,,,,,high,24,0,24,0,1,,,,,,,,,
296530,2022-10-05_23h36.36.836,vts_reward_expectancy,2022.2.4,Win32,60.08893162,Chrome,1280,800,,,,,1,1002,,,,,,,,,,,,,,,,,139,H,triangle,1,0,,,,,,,,,,,,,,,,repeat,letter,lettRpt,j,0.567,Lo,,,,,,3,,,,,,,,high,25,0,25,0,1,,,,,,,,,
296530,2022-10-05_23h36.36.836,vts_reward_expectancy,2022.2.4,Win32,60.08893162,Chrome,1280,800,,,,,1,1003,,,,,,,,,,,,,,,,,167,B,triangle,1,0,,,,,,,,,,,,,,,,repeat,letter,lettRpt,j,0.7498,Lo,,,,,,3,,,,,,,,high,26,0,26,0,1,,,,,,,,,
296530,2022-10-05_23h36.36.836,vts_reward_expectancy,2022.2.4,Win32,60.08893162,Chrome,1280,800,,,,,0,1003,,,,,,,,,,,,,,,,,146,Y,hexagon,1,0,,,,,,,,,,,,,,,,repeat,letter,lettRpt,k,0.7721,Hi,,,,,,3,,,,,,,,high,27,0,27,0,1,,,,,,,,,
296530,2022-10-05_23h36.36.836,vts_reward_expectancy,2022.2.4,Win32,60.08893162,Chrome,1280,800,,,,,1,1004,,,,,,,,,,,,,,,,,132,W,triangle,1,0,,,,,,,,,,,,,,,,repeat,letter,lettRpt,k,0.5191,Lo,,,,,,3,,,,,,,,high,28,0,28,0,1,,,,,,,,,
296530,2022-10-05_23h36.36.836,vts_reward_expectancy,2022.2.4,Win32,60.08893162,Chrome,1280,800,,,,,0,1004,,,,,,,,,,,,,,,,,181,D,hexagon,1,0,,,,,,,,,,,,,,,,switch,number,numSwt,f,0.5843,Hi,,,,,,3,,,,,,,,high,29,0,29,0,1,,,,,,,,,
296530,2022-10-05_23h36.36.836,vts_reward_expectancy,2022.2.4,Win32,60.08893162,Chrome,1280,800,,,,,0,1004,,,,,,,,,,,,,,,,,125,S,hexagon,1,0,,,,,,,,,,,,,,,,repeat,number,numRpt,d,0.6279,Hi,,,,,,3,,,,,,,,high,30,0,30,0,1,,,,,,,,,
296530,2022-10-05_23h36.36.836,vts_reward_expectancy,2022.2.4,Win32,60.08893162,Chrome,1280,800,,,,,1,1005,,,,,,,,,,,,,,,,,160,F,triangle,1,0,,,,,,,,,,,,,,,,repeat,number,numRpt,f,0.4009,Lo,,,,,,3,,,,,,,,high,31,0,31,0,1,,,,,,,,,
296530,2022-10-05_23h36.36.836,vts_reward_expectancy,2022.2.4,Win32,60.08893162,Chrome,1280,800,,,,,0,1005,,,,,,,,,,,,,,,,,125,D,circle,1,0,,,,,,,,,,,,,,,,repeat,number,numRpt,d,0.7386,Hi,,,,,,4,,,,,,space,1.6108,low,0,0,0,0,1,,,,,,,,,
296530,2022-10-05_23h36.36.836,vts_reward_expectancy,2022.2.4,Win32,60.08893162,Chrome,1280,800,,,,,10,1015,,,,,,,,,,,,,,,,,181,Y,star,1,0,,,,,,,,,,,,,,,,repeat,number,numRpt,f,0.5504,Lo,,,,,,4,,,,,,,,low,1,0,1,0,1,,,,,,,,,
296530,2022-10-05_23h36.36.836,vts_reward_expectancy,2022.2.4,Win32,60.08893162,Chrome,1280,800,,,,,0,1015,,,,,,,,,,,,,,,,,139,F,circle,1,0,,,,,,,,,,,,,,,,switch,letter,lettSwt,j,0.5672,Hi,,,,,,4,,,,,,,,low,2,0,2,0,1,,,,,,,,,
296530,2022-10-05_23h36.36.836,vts_reward_expectancy,2022.2.4,Win32,60.08893162,Chrome,1280,800,,,,,1,1016,,,,,,,,,,,,,,,,,174,W,star,1,0,,,,,,,,,,,,,,,,repeat,letter,lettRpt,k,0.55,Lo,,,,,,4,,,,,,,,low,3,0,3,0,1,,,,,,,,,
296530,2022-10-05_23h36.36.836,vts_reward_expectancy,2022.2.4,Win32,60.08893162,Chrome,1280,800,,,,,1,1017,,,,,,,,,,,,,,,,,160,B,star,1,0,,,,,,,,,,,,,,,,switch,number,numSwt,f,0.567,Lo,,,,,,4,,,,,,,,low,4,0,4,0,1,,,,,,,,,
296530,2022-10-05_23h36.36.836,vts_reward_expectancy,2022.2.4,Win32,60.08893162,Chrome,1280,800,,,,,0,1017,,,,,,,,,,,,,,,,,132,H,circle,1,0,,,,,,,,,,,,,,,,repeat,number,numRpt,d,0.6486,Hi,,,,,,4,,,,,,,,low,5,0,5,0,1,,,,,,,,,
296530,2022-10-05_23h36.36.836,vts_reward_expectancy,2022.2.4,Win32,60.08893162,Chrome,1280,800,,,,,10,1027,,,,,,,,,,,,,,,,,167,U,star,1,0,,,,,,,,,,,,,,,,repeat,number,numRpt,f,0.5116,Lo,,,,,,4,,,,,,,,low,6,0,6,0,1,,,,,,,,,
296530,2022-10-05_23h36.36.836,vts_reward_expectancy,2022.2.4,Win32,60.08893162,Chrome,1280,800,,,,,0,1027,,,,,,,,,,,,,,,,,146,S,circle,1,0,,,,,,,,,,,,,,,,repeat,number,numRpt,d,0.5959,Hi,,,,,,4,,,,,,,,low,7,0,7,0,1,,,,,,,,,
296530,2022-10-05_23h36.36.836,vts_reward_expectancy,2022.2.4,Win32,60.08893162,Chrome,1280,800,,,,,1,1028,,,,,,,,,,,,,,,,,125,D,star,1,0,,,,,,,,,,,,,,,,repeat,number,numRpt,d,0.4169,Lo,,,,,,4,,,,,,,,low,8,0,8,0,1,,,,,,,,,
296530,2022-10-05_23h36.36.836,vts_reward_expectancy,2022.2.4,Win32,60.08893162,Chrome,1280,800,,,,,10,1038,,,,,,,,,,,,,,,,,181,Y,circle,1,0,,,,,,,,,,,,,,,,repeat,number,numRpt,f,0.4348,Hi,,,,,,4,,,,,,,,low,9,0,9,0,1,,,,,,,,,
296530,2022-10-05_23h36.36.836,vts_reward_expectancy,2022.2.4,Win32,60.08893162,Chrome,1280,800,,,,,1,1039,,,,,,,,,,,,,,,,,139,F,star,1,0,,,,,,,,,,,,,,,,repeat,number,numRpt,d,0.6032,Lo,,,,,,4,,,,,,,,low,10,0,10,0,1,,,,,,,,,
296530,2022-10-05_23h36.36.836,vts_reward_expectancy,2022.2.4,Win32,60.08893162,Chrome,1280,800,,,,,1,1040,,,,,,,,,,,,,,,,,174,W,circle,1,0,,,,,,,,,,,,,,,,repeat,number,numRpt,f,0.4094,Hi,,,,,,4,,,,,,,,low,11,0,11,0,1,,,,,,,,,
296530,2022-10-05_23h36.36.836,vts_reward_expectancy,2022.2.4,Win32,60.08893162,Chrome,1280,800,,,,,0,1040,,,,,,,,,,,,,,,,,160,B,circle,1,0,,,,,,,,,,,,,,,,switch,letter,lettSwt,j,0.6284,Hi,,,,,,4,,,,,,,,low,12,0,12,0,1,,,,,,,,,
296530,2022-10-05_23h36.36.836,vts_reward_expectancy,2022.2.4,Win32,60.08893162,Chrome,1280,800,,,,,1,1041,,,,,,,,,,,,,,,,,132,H,star,1,0,,,,,,,,,,,,,,,,switch,number,numSwt,d,0.5194,Lo,,,,,,4,,,,,,,,low,13,0,13,0,1,,,,,,,,,
296530,2022-10-05_23h36.36.836,vts_reward_expectancy,2022.2.4,Win32,60.08893162,Chrome,1280,800,,,,,0,1041,,,,,,,,,,,,,,,,,167,U,circle,1,0,,,,,,,,,,,,,,,,repeat,number,numRpt,f,0.6845,Hi,,,,,,4,,,,,,,,low,14,0,14,0,1,,,,,,,,,
296530,2022-10-05_23h36.36.836,vts_reward_expectancy,2022.2.4,Win32,60.08893162,Chrome,1280,800,,,,,1,1042,,,,,,,,,,,,,,,,,146,S,star,1,0,,,,,,,,,,,,,,,,repeat,number,numRpt,d,0.7337,Lo,,,,,,4,,,,,,,,low,15,0,15,0,1,,,,,,,,,
296530,2022-10-05_23h36.36.836,vts_reward_expectancy,2022.2.4,Win32,60.08893162,Chrome,1280,800,,,,,1,1043,,,,,,,,,,,,,,,,,139,F,star,1,0,,,,,,,,,,,,,,,,repeat,number,numRpt,d,0.7996,Lo,,,,,,4,,,,,,,,low,16,0,16,0,1,,,,,,,,,
296530,2022-10-05_23h36.36.836,vts_reward_expectancy,2022.2.4,Win32,60.08893162,Chrome,1280,800,,,,,0,1043,,,,,,,,,,,,,,,,,167,Y,circle,1,0,,,,,,,,,,,,,,,,repeat,number,numRpt,f,0.6711,Hi,,,,,,4,,,,,,,,low,17,0,17,0,1,,,,,,,,,
296530,2022-10-05_23h36.36.836,vts_reward_expectancy,2022.2.4,Win32,60.08893162,Chrome,1280,800,,,,,0,1043,,,,,,,,,,,,,,,,,160,W,circle,0,0,,,,,,,,,,,,,,,,repeat,number,NA,d,0.7329,Hi,,,,,,4,,,,,,,,low,18,0,18,0,1,,,,,,,,,
296530,2022-10-05_23h36.36.836,vts_reward_expectancy,2022.2.4,Win32,60.08893162,Chrome,1280,800,,,,,1,1044,,,,,,,,,,,,,,,,,125,U,star,1,1,,,,,,,,,,,,,,,,switch,letter,lettSwt,k,0.6016,Lo,,,,,,4,,,,,,,,low,19,0,19,0,1,,,,,,,,,
296530,2022-10-05_23h36.36.836,vts_reward_expectancy,2022.2.4,Win32,60.08893162,Chrome,1280,800,,,,,0,1044,,,,,,,,,,,,,,,,,146,S,circle,1,0,,,,,,,,,,,,,,,,repeat,letter,lettRpt,k,0.6184,Hi,,,,,,4,,,,,,,,low,20,0,20,0,1,,,,,,,,,
296530,2022-10-05_23h36.36.836,vts_reward_expectancy,2022.2.4,Win32,60.08893162,Chrome,1280,800,,,,,1,1045,,,,,,,,,,,,,,,,,181,B,star,1,0,,,,,,,,,,,,,,,,repeat,letter,lettRpt,j,0.5846,Lo,,,,,,4,,,,,,,,low,21,0,21,0,1,,,,,,,,,
296530,2022-10-05_23h36.36.836,vts_reward_expectancy,2022.2.4,Win32,60.08893162,Chrome,1280,800,,,,,1,1046,,,,,,,,,,,,,,,,,174,H,star,1,0,,,,,,,,,,,,,,,,repeat,letter,lettRpt,j,0.6405,Lo,,,,,,4,,,,,,,,low,22,0,22,0,1,,,,,,,,,
296530,2022-10-05_23h36.36.836,vts_reward_expectancy,2022.2.4,Win32,60.08893162,Chrome,1280,800,,,,,10,1056,,,,,,,,,,,,,,,,,132,D,circle,1,0,,,,,,,,,,,,,,,,repeat,letter,lettRpt,j,0.5498,Hi,,,,,,4,,,,,,,,low,23,0,23,0,1,,,,,,,,,
296530,2022-10-05_23h36.36.836,vts_reward_expectancy,2022.2.4,Win32,60.08893162,Chrome,1280,800,,,,,10,1066,,,,,,,,,,,,,,,,,132,Y,star,1,0,,,,,,,,,,,,,,,,repeat,letter,lettRpt,k,0.6849,Lo,,,,,,4,,,,,,,,low,24,0,24,0,1,,,,,,,,,
296530,2022-10-05_23h36.36.836,vts_reward_expectancy,2022.2.4,Win32,60.08893162,Chrome,1280,800,,,,,0,1066,,,,,,,,,,,,,,,,,139,D,circle,1,0,,,,,,,,,,,,,,,,repeat,letter,lettRpt,j,0.8333,Hi,,,,,,4,,,,,,,,low,25,0,25,0,1,,,,,,,,,
296530,2022-10-05_23h36.36.836,vts_reward_expectancy,2022.2.4,Win32,60.08893162,Chrome,1280,800,,,,,1,1067,,,,,,,,,,,,,,,,,146,W,star,1,0,,,,,,,,,,,,,,,,repeat,letter,lettRpt,k,0.5582,Lo,,,,,,4,,,,,,,,low,26,0,26,0,1,,,,,,,,,
296530,2022-10-05_23h36.36.836,vts_reward_expectancy,2022.2.4,Win32,60.08893162,Chrome,1280,800,,,,,0,1067,,,,,,,,,,,,,,,,,160,S,circle,1,0,,,,,,,,,,,,,,,,repeat,letter,lettRpt,k,1.5156,Hi,,,,,,4,,,,,,,,low,27,0,27,0,1,,,,,,,,,
296530,2022-10-05_23h36.36.836,vts_reward_expectancy,2022.2.4,Win32,60.08893162,Chrome,1280,800,,,,,0,1067,,,,,,,,,,,,,,,,,181,F,circle,1,0,,,,,,,,,,,,,,,,repeat,letter,lettRpt,j,0.9496,Hi,,,,,,4,,,,,,,,low,28,0,28,0,1,,,,,,,,,
296530,2022-10-05_23h36.36.836,vts_reward_expectancy,2022.2.4,Win32,60.08893162,Chrome,1280,800,,,,,0,1067,,,,,,,,,,,,,,,,,174,H,star,0,0,,,,,,,,,,,,,,,,switch,number,NA,d,1.1525,Hi,,,,,,4,,,,,,,,low,29,0,29,0,1,,,,,,,,,
296530,2022-10-05_23h36.36.836,vts_reward_expectancy,2022.2.4,Win32,60.08893162,Chrome,1280,800,,,,,10,1077,,,,,,,,,,,,,,,,,167,B,star,1,1,,,,,,,,,,,,,,,,repeat,number,numRpt,f,0.5177,Lo,,,,,,4,,,,,,,,low,30,0,30,0,1,,,,,,,,,
296530,2022-10-05_23h36.36.836,vts_reward_expectancy,2022.2.4,Win32,60.08893162,Chrome,1280,800,,,,,10,1087,,,,,,,,,,,,,,,,,125,U,circle,1,0,,,,,,,,,,,,,,,,repeat,number,numRpt,d,0.3956,Hi,,,,,,4,,,,,,,,low,31,0,31,0,1,,,,,,,,,
296530,2022-10-05_23h36.36.836,vts_reward_expectancy,2022.2.4,Win32,60.08893162,Chrome,1280,800,,,,,10,1097,,,,,,,,,,,,,,,,,139,U,triangle,1,0,,,,,,,,,,,,,,,,repeat,number,numRpt,d,0.5576,Lo,,,,,,5,,,,,,space,1.1252,high,0,0,0,0,1,,,,,,,,,
296530,2022-10-05_23h36.36.836,vts_reward_expectancy,2022.2.4,Win32,60.08893162,Chrome,1280,800,,,,,0,1097,,,,,,,,,,,,,,,,,146,D,hexagon,0,0,,,,,,,,,,,,,,,,repeat,number,NA,f,0.9757,Lo,,,,,,5,,,,,,,,high,1,0,1,0,1,,,,,,,,,
296530,2022-10-05_23h36.36.836,vts_reward_expectancy,2022.2.4,Win32,60.08893162,Chrome,1280,800,,,,,1,1098,,,,,,,,,,,,,,,,,160,F,triangle,1,1,,,,,,,,,,,,,,,,repeat,number,numRpt,f,0.5005,Lo,,,,,,5,,,,,,,,high,2,0,2,0,1,,,,,,,,,
296530,2022-10-05_23h36.36.836,vts_reward_expectancy,2022.2.4,Win32,60.08893162,Chrome,1280,800,,,,,0,1098,,,,,,,,,,,,,,,,,132,H,hexagon,1,0,,,,,,,,,,,,,,,,repeat,number,numRpt,d,0.618,Hi,,,,,,5,,,,,,,,high,3,0,3,0,1,,,,,,,,,
296530,2022-10-05_23h36.36.836,vts_reward_expectancy,2022.2.4,Win32,60.08893162,Chrome,1280,800,,,,,0,1098,,,,,,,,,,,,,,,,,125,B,hexagon,1,0,,,,,,,,,,,,,,,,repeat,number,numRpt,d,0.5601,Hi,,,,,,5,,,,,,,,high,4,0,4,0,1,,,,,,,,,
296530,2022-10-05_23h36.36.836,vts_reward_expectancy,2022.2.4,Win32,60.08893162,Chrome,1280,800,,,,,1,1099,,,,,,,,,,,,,,,,,174,Y,triangle,1,0,,,,,,,,,,,,,,,,repeat,number,numRpt,f,0.674,Lo,,,,,,5,,,,,,,,high,5,0,5,0,1,,,,,,,,,
296530,2022-10-05_23h36.36.836,vts_reward_expectancy,2022.2.4,Win32,60.08893162,Chrome,1280,800,,,,,0,1099,,,,,,,,,,,,,,,,,181,W,triangle,0,0,,,,,,,,,,,,,,,,repeat,number,NA,d,0.9117,Lo,,,,,,5,,,,,,,,high,6,0,6,0,1,,,,,,,,,
296530,2022-10-05_23h36.36.836,vts_reward_expectancy,2022.2.4,Win32,60.08893162,Chrome,1280,800,,,,,0,1099,,,,,,,,,,,,,,,,,167,S,hexagon,1,1,,,,,,,,,,,,,,,,repeat,number,numRpt,f,0.5336,Hi,,,,,,5,,,,,,,,high,7,0,7,0,1,,,,,,,,,
296530,2022-10-05_23h36.36.836,vts_reward_expectancy,2022.2.4,Win32,60.08893162,Chrome,1280,800,,,,,10,1109,,,,,,,,,,,,,,,,,139,U,hexagon,1,0,,,,,,,,,,,,,,,,repeat,number,numRpt,d,0.4254,Hi,,,,,,5,,,,,,,,high,8,0,8,0,1,,,,,,,,,
296530,2022-10-05_23h36.36.836,vts_reward_expectancy,2022.2.4,Win32,60.08893162,Chrome,1280,800,,,,,1,1110,,,,,,,,,,,,,,,,,146,D,triangle,1,0,,,,,,,,,,,,,,,,repeat,number,numRpt,d,0.8184,Lo,,,,,,5,,,,,,,,high,9,0,9,0,1,,,,,,,,,
296530,2022-10-05_23h36.36.836,vts_reward_expectancy,2022.2.4,Win32,60.08893162,Chrome,1280,800,,,,,0,1110,,,,,,,,,,,,,,,,,160,F,hexagon,1,0,,,,,,,,,,,,,,,,repeat,number,numRpt,f,0.6529,Hi,,,,,,5,,,,,,,,high,10,0,10,0,1,,,,,,,,,
296530,2022-10-05_23h36.36.836,vts_reward_expectancy,2022.2.4,Win32,60.08893162,Chrome,1280,800,,,,,1,1111,,,,,,,,,,,,,,,,,132,H,triangle,1,0,,,,,,,,,,,,,,,,repeat,number,numRpt,d,0.5394,Lo,,,,,,5,,,,,,,,high,11,0,11,0,1,,,,,,,,,
296530,2022-10-05_23h36.36.836,vts_reward_expectancy,2022.2.4,Win32,60.08893162,Chrome,1280,800,,,,,1,1112,,,,,,,,,,,,,,,,,125,B,triangle,1,0,,,,,,,,,,,,,,,,switch,letter,lettSwt,j,0.4203,Lo,,,,,,5,,,,,,,,high,12,0,12,0,1,,,,,,,,,
296530,2022-10-05_23h36.36.836,vts_reward_expectancy,2022.2.4,Win32,60.08893162,Chrome,1280,800,,,,,10,1122,,,,,,,,,,,,,,,,,174,Y,hexagon,1,0,,,,,,,,,,,,,,,,switch,number,numSwt,f,0.4958,Hi,,,,,,5,,,,,,,,high,13,0,13,0,1,,,,,,,,,
296530,2022-10-05_23h36.36.836,vts_reward_expectancy,2022.2.4,Win32,60.08893162,Chrome,1280,800,,,,,0,1122,,,,,,,,,,,,,,,,,181,W,hexagon,1,0,,,,,,,,,,,,,,,,repeat,number,numRpt,f,0.5675,Hi,,,,,,5,,,,,,,,high,14,0,14,0,1,,,,,,,,,
296530,2022-10-05_23h36.36.836,vts_reward_expectancy,2022.2.4,Win32,60.08893162,Chrome,1280,800,,,,,0,1122,,,,,,,,,,,,,,,,,167,S,triangle,0,0,,,,,,,,,,,,,,,,repeat,number,NA,d,0.5213,Hi,,,,,,5,,,,,,,,high,15,0,15,0,1,,,,,,,,,
296530,2022-10-05_23h36.36.836,vts_reward_expectancy,2022.2.4,Win32,60.08893162,Chrome,1280,800,,,,,0,1122,,,,,,,,,,,,,,,,,160,Y,hexagon,0,1,,,,,,,,,,,,,,,,repeat,number,NA,d,0.4688,Hi,,,,,,5,,,,,,,,high,16,0,16,0,1,,,,,,,,,
296530,2022-10-05_23h36.36.836,vts_reward_expectancy,2022.2.4,Win32,60.08893162,Chrome,1280,800,,,,,1,1123,,,,,,,,,,,,,,,,,132,B,triangle,1,1,,,,,,,,,,,,,,,,repeat,number,numRpt,d,2.6275,Lo,,,,,,5,,,,,,,,high,17,0,17,0,1,,,,,,,,,
296530,2022-10-05_23h36.36.836,vts_reward_expectancy,2022.2.4,Win32,60.08893162,Chrome,1280,800,,,,,1,1124,,,,,,,,,,,,,,,,,167,D,triangle,1,0,,,,,,,,,,,,,,,,switch,letter,lettSwt,j,0.4934,Lo,,,,,,5,,,,,,,,high,18,0,18,0,1,,,,,,,,,
296530,2022-10-05_23h36.36.836,vts_reward_expectancy,2022.2.4,Win32,60.08893162,Chrome,1280,800,,,,,10,1134,,,,,,,,,,,,,,,,,125,S,hexagon,1,0,,,,,,,,,,,,,,,,repeat,letter,lettRpt,k,0.5774,Hi,,,,,,5,,,,,,,,high,19,0,19,0,1,,,,,,,,,
296530,2022-10-05_23h36.36.836,vts_reward_expectancy,2022.2.4,Win32,60.08893162,Chrome,1280,800,,,,,0,1134,,,,,,,,,,,,,,,,,181,H,hexagon,1,0,,,,,,,,,,,,,,,,switch,number,numSwt,f,0.8409,Hi,,,,,,5,,,,,,,,high,20,0,20,0,1,,,,,,,,,
296530,2022-10-05_23h36.36.836,vts_reward_expectancy,2022.2.4,Win32,60.08893162,Chrome,1280,800,,,,,10,1144,,,,,,,,,,,,,,,,,146,F,triangle,1,0,,,,,,,,,,,,,,,,repeat,number,numRpt,d,1.0231,Lo,,,,,,5,,,,,,,,high,21,0,21,0,1,,,,,,,,,
296530,2022-10-05_23h36.36.836,vts_reward_expectancy,2022.2.4,Win32,60.08893162,Chrome,1280,800,,,,,10,1154,,,,,,,,,,,,,,,,,174,W,triangle,1,0,,,,,,,,,,,,,,,,repeat,number,numRpt,f,0.7833,Lo,,,,,,5,,,,,,,,high,22,0,22,0,1,,,,,,,,,
296530,2022-10-05_23h36.36.836,vts_reward_expectancy,2022.2.4,Win32,60.08893162,Chrome,1280,800,,,,,0,1154,,,,,,,,,,,,,,,,,139,U,hexagon,1,0,,,,,,,,,,,,,,,,repeat,number,numRpt,d,0.838,Hi,,,,,,5,,,,,,,,high,23,0,23,0,1,,,,,,,,,
296530,2022-10-05_23h36.36.836,vts_reward_expectancy,2022.2.4,Win32,60.08893162,Chrome,1280,800,,,,,1,1155,,,,,,,,,,,,,,,,,139,B,triangle,1,0,,,,,,,,,,,,,,,,repeat,number,numRpt,d,0.0554,Lo,,,,,,5,,,,,,,,high,24,0,24,0,1,,,,,,,,,
296530,2022-10-05_23h36.36.836,vts_reward_expectancy,2022.2.4,Win32,60.08893162,Chrome,1280,800,,,,,0,1155,,,,,,,,,,,,,,,,,146,H,hexagon,1,0,,,,,,,,,,,,,,,,repeat,number,numRpt,d,0.801,Hi,,,,,,5,,,,,,,,high,25,0,25,0,1,,,,,,,,,
296530,2022-10-05_23h36.36.836,vts_reward_expectancy,2022.2.4,Win32,60.08893162,Chrome,1280,800,,,,,0,1155,,,,,,,,,,,,,,,,,160,S,hexagon,1,0,,,,,,,,,,,,,,,,repeat,number,numRpt,f,0.5421,Hi,,,,,,5,,,,,,,,high,26,0,26,0,1,,,,,,,,,
296530,2022-10-05_23h36.36.836,vts_reward_expectancy,2022.2.4,Win32,60.08893162,Chrome,1280,800,,,,,1,1156,,,,,,,,,,,,,,,,,174,F,triangle,1,0,,,,,,,,,,,,,,,,repeat,number,numRpt,f,0.5506,Lo,,,,,,5,,,,,,,,high,27,0,27,0,1,,,,,,,,,
296530,2022-10-05_23h36.36.836,vts_reward_expectancy,2022.2.4,Win32,60.08893162,Chrome,1280,800,,,,,1,1157,,,,,,,,,,,,,,,,,125,D,triangle,1,0,,,,,,,,,,,,,,,,repeat,number,numRpt,d,0.6047,Lo,,,,,,5,,,,,,,,high,28,0,28,0,1,,,,,,,,,
296530,2022-10-05_23h36.36.836,vts_reward_expectancy,2022.2.4,Win32,60.08893162,Chrome,1280,800,,,,,0,1157,,,,,,,,,,,,,,,,,181,Y,hexagon,1,0,,,,,,,,,,,,,,,,repeat,number,numRpt,f,0.7329,Hi,,,,,,5,,,,,,,,high,29,0,29,0,1,,,,,,,,,
296530,2022-10-05_23h36.36.836,vts_reward_expectancy,2022.2.4,Win32,60.08893162,Chrome,1280,800,,,,,0,1157,,,,,,,,,,,,,,,,,167,W,hexagon,0,0,,,,,,,,,,,,,,,,repeat,number,NA,d,0.8902,Hi,,,,,,5,,,,,,,,high,30,0,30,0,1,,,,,,,,,
296530,2022-10-05_23h36.36.836,vts_reward_expectancy,2022.2.4,Win32,60.08893162,Chrome,1280,800,,,,,1,1158,,,,,,,,,,,,,,,,,132,U,triangle,1,1,,,,,,,,,,,,,,,,repeat,number,numRpt,d,0.717,Lo,,,,,,5,,,,,,,,high,31,0,31,0,1,,,,,,,,,
296530,2022-10-05_23h36.36.836,vts_reward_expectancy,2022.2.4,Win32,60.08893162,Chrome,1280,800,,,,,,,,,,,,,,,,,,,,,,,,,,,,,,,,,,,,,,,,,,,,,,,,,,,,,,6,,,,,,,,,,,,,,"Press D if the the number was less than 153, and F if i was greater. Press J if the Letter was closer to A, K if it was closer to Z. Also, pick between to shapes for points.",1,,5,2,,2,1280,800
