participant,date,expName,psychopyVersion,OS,frameRate,browser,xResolution,yResolution,key_resp.keys,key_resp.rt,training_resp.keys,training_resp.rt,points_trial,points_cumul,trainBlock,training.thisRepN,training.thisTrialN,training.thisN,training.thisIndex,training.ran,LTriangleOpac,LCircleOpac,LHexagonOpac,LStarOpac,RTriangleOpac,RCircleOpac,RHexagonOpac,RStarOpac,LShape_ID,RShape_ID,curr_topStim,curr_bottStim,curr_shape,acc,E1,target_resp_prac1.keys,pracBlock,task1_prac_trials.thisRepN,task1_prac_trials.thisTrialN,task1_prac_trials.thisN,task1_prac_trials.thisIndex,task1_prac_trials.ran,target_resp_prac1.rt,target_resp_prac2.keys,target_resp_prac2.rt,task2_praac_trials.thisRepN,task2_praac_trials.thisTrialN,task2_praac_trials.thisN,task2_praac_trials.thisIndex,task2_praac_trials.ran,alt,task,condition,target_resp.keys,target_resp.rt,rewCond,vts_practice_trials.thisRepN,vts_practice_trials.thisTrialN,vts_practice_trials.thisN,vts_practice_trials.thisIndex,vts_practice_trials.ran,blockNum,trials_norew.thisRepN,trials_norew.thisTrialN,trials_norew.thisN,trials_norew.thisIndex,trials_norew.ran,key_resp_2.keys,key_resp_2.rt,rewExpect,trials_rew.thisRepN,trials_rew.thisTrialN,trials_rew.thisN,trials_rew.thisIndex,trials_rew.ran,Q1,Q2,Q2_text,Q3,Q4,Q5_text,Q5,xRes,yRes
293209,2022-09-21_16h52.24.952,vts_reward_expectancy,2022.2.4,Win32,61.08362348,Chrome,1536,864,,,,,,,,,,,,,,,,,,,,,,,,,,,,,,,,,,,,,,,,,,,,,,,,,,,,,,,,,,,,,,,,,,,,,,,,,,,,
293209,2022-09-21_16h52.24.952,vts_reward_expectancy,2022.2.4,Win32,61.08362348,Chrome,1536,864,space,22.1829,,,,,,,,,,,,,,,,,,,,,,,,,,,,,,,,,,,,,,,,,,,,,,,,,,,,,,,,,,,,,,,,,,,,,,,,,,
293209,2022-09-21_16h52.24.952,vts_reward_expectancy,2022.2.4,Win32,61.08362348,Chrome,1536,864,,,,,,,,,,,,,,,,,,,,,,,,,,,,,,,,,,,,,,,,,,,,,,,,,,,,,,,,,,,,,,,,,,,,,,,,,,,,
293209,2022-09-21_16h52.24.952,vts_reward_expectancy,2022.2.4,Win32,61.08362348,Chrome,1536,864,,,a,1.9962,10,10,0,0,0,0,4,1,0,1,0,0,0,0,1,0,circle,hexagon,,,,,,,,,,,,,,,,,,,,,,,,,,,,,,,,,,,,,,,,,,,,,,,,,,,,,,
293209,2022-09-21_16h52.24.952,vts_reward_expectancy,2022.2.4,Win32,61.08362348,Chrome,1536,864,,,l,1.2785,1,11,0,0,1,1,0,1,1,0,0,0,0,1,0,0,triangle,circle,,,,,,,,,,,,,,,,,,,,,,,,,,,,,,,,,,,,,,,,,,,,,,,,,,,,,,
293209,2022-09-21_16h52.24.952,vts_reward_expectancy,2022.2.4,Win32,61.08362348,Chrome,1536,864,,,a,1.3168,1,12,0,0,2,2,11,1,0,0,0,1,0,0,1,0,star,hexagon,,,,,,,,,,,,,,,,,,,,,,,,,,,,,,,,,,,,,,,,,,,,,,,,,,,,,,
293209,2022-09-21_16h52.24.952,vts_reward_expectancy,2022.2.4,Win32,61.08362348,Chrome,1536,864,,,l,1.1478,10,22,0,0,3,3,6,1,0,0,1,0,1,0,0,0,hexagon,triangle,,,,,,,,,,,,,,,,,,,,,,,,,,,,,,,,,,,,,,,,,,,,,,,,,,,,,,
293209,2022-09-21_16h52.24.952,vts_reward_expectancy,2022.2.4,Win32,61.08362348,Chrome,1536,864,,,a,1.3019,1,23,0,0,4,4,8,1,0,0,1,0,0,0,0,1,hexagon,star,,,,,,,,,,,,,,,,,,,,,,,,,,,,,,,,,,,,,,,,,,,,,,,,,,,,,,
293209,2022-09-21_16h52.24.952,vts_reward_expectancy,2022.2.4,Win32,61.08362348,Chrome,1536,864,,,a,1.1477,1,24,0,0,5,5,1,1,1,0,0,0,0,0,1,0,triangle,hexagon,,,,,,,,,,,,,,,,,,,,,,,,,,,,,,,,,,,,,,,,,,,,,,,,,,,,,,
293209,2022-09-21_16h52.24.952,vts_reward_expectancy,2022.2.4,Win32,61.08362348,Chrome,1536,864,,,l,0.9331,1,25,0,0,6,6,7,1,0,0,1,0,0,1,0,0,hexagon,circle,,,,,,,,,,,,,,,,,,,,,,,,,,,,,,,,,,,,,,,,,,,,,,,,,,,,,,
293209,2022-09-21_16h52.24.952,vts_reward_expectancy,2022.2.4,Win32,61.08362348,Chrome,1536,864,,,l,0.7761,1,26,0,0,7,7,10,1,0,0,0,1,0,1,0,0,star ,circle,,,,,,,,,,,,,,,,,,,,,,,,,,,,,,,,,,,,,,,,,,,,,,,,,,,,,,
293209,2022-09-21_16h52.24.952,vts_reward_expectancy,2022.2.4,Win32,61.08362348,Chrome,1536,864,,,l,1.1073,10,36,0,0,8,8,3,1,0,1,0,0,1,0,0,0,circle,triangle,,,,,,,,,,,,,,,,,,,,,,,,,,,,,,,,,,,,,,,,,,,,,,,,,,,,,,
293209,2022-09-21_16h52.24.952,vts_reward_expectancy,2022.2.4,Win32,61.08362348,Chrome,1536,864,,,a,1.3806,1,37,0,0,9,9,9,1,0,0,0,1,1,0,0,0,star,triangle,,,,,,,,,,,,,,,,,,,,,,,,,,,,,,,,,,,,,,,,,,,,,,,,,,,,,,
293209,2022-09-21_16h52.24.952,vts_reward_expectancy,2022.2.4,Win32,61.08362348,Chrome,1536,864,,,a,0.9429,10,47,0,0,10,10,2,1,1,0,0,0,0,0,0,1,triangle,star,,,,,,,,,,,,,,,,,,,,,,,,,,,,,,,,,,,,,,,,,,,,,,,,,,,,,,
293209,2022-09-21_16h52.24.952,vts_reward_expectancy,2022.2.4,Win32,61.08362348,Chrome,1536,864,,,a,1.3247,1,48,0,0,11,11,5,1,0,1,0,0,0,0,0,1,circle,star,,,,,,,,,,,,,,,,,,,,,,,,,,,,,,,,,,,,,,,,,,,,,,,,,,,,,,
293209,2022-09-21_16h52.24.952,vts_reward_expectancy,2022.2.4,Win32,61.08362348,Chrome,1536,864,,,a,2.1821,1,49,0,1,0,12,1,1,1,0,0,0,0,0,1,0,triangle,hexagon,,,,,,,,,,,,,,,,,,,,,,,,,,,,,,,,,,,,,,,,,,,,,,,,,,,,,,
293209,2022-09-21_16h52.24.952,vts_reward_expectancy,2022.2.4,Win32,61.08362348,Chrome,1536,864,,,a,2.7695,1,50,0,1,1,13,3,1,0,1,0,0,1,0,0,0,circle,triangle,,,,,,,,,,,,,,,,,,,,,,,,,,,,,,,,,,,,,,,,,,,,,,,,,,,,,,
293209,2022-09-21_16h52.24.952,vts_reward_expectancy,2022.2.4,Win32,61.08362348,Chrome,1536,864,,,a,1.2645,10,60,0,1,2,14,11,1,0,0,0,1,0,0,1,0,star,hexagon,,,,,,,,,,,,,,,,,,,,,,,,,,,,,,,,,,,,,,,,,,,,,,,,,,,,,,
293209,2022-09-21_16h52.24.952,vts_reward_expectancy,2022.2.4,Win32,61.08362348,Chrome,1536,864,,,l,1.0428,1,61,0,1,3,15,6,1,0,0,1,0,1,0,0,0,hexagon,triangle,,,,,,,,,,,,,,,,,,,,,,,,,,,,,,,,,,,,,,,,,,,,,,,,,,,,,,
293209,2022-09-21_16h52.24.952,vts_reward_expectancy,2022.2.4,Win32,61.08362348,Chrome,1536,864,,,l,0.914,10,71,0,1,4,16,5,1,0,1,0,0,0,0,0,1,circle,star,,,,,,,,,,,,,,,,,,,,,,,,,,,,,,,,,,,,,,,,,,,,,,,,,,,,,,
293209,2022-09-21_16h52.24.952,vts_reward_expectancy,2022.2.4,Win32,61.08362348,Chrome,1536,864,,,a,0.4969,10,81,0,1,5,17,10,1,0,0,0,1,0,1,0,0,star ,circle,,,,,,,,,,,,,,,,,,,,,,,,,,,,,,,,,,,,,,,,,,,,,,,,,,,,,,
293209,2022-09-21_16h52.24.952,vts_reward_expectancy,2022.2.4,Win32,61.08362348,Chrome,1536,864,,,a,2.1855,1,82,0,1,6,18,0,1,1,0,0,0,0,1,0,0,triangle,circle,,,,,,,,,,,,,,,,,,,,,,,,,,,,,,,,,,,,,,,,,,,,,,,,,,,,,,
293209,2022-09-21_16h52.24.952,vts_reward_expectancy,2022.2.4,Win32,61.08362348,Chrome,1536,864,,,l,0.4089,1,83,0,1,7,19,8,1,0,0,1,0,0,0,0,1,hexagon,star,,,,,,,,,,,,,,,,,,,,,,,,,,,,,,,,,,,,,,,,,,,,,,,,,,,,,,
293209,2022-09-21_16h52.24.952,vts_reward_expectancy,2022.2.4,Win32,61.08362348,Chrome,1536,864,,,l,0.915,1,84,0,1,8,20,2,1,1,0,0,0,0,0,0,1,triangle,star,,,,,,,,,,,,,,,,,,,,,,,,,,,,,,,,,,,,,,,,,,,,,,,,,,,,,,
293209,2022-09-21_16h52.24.952,vts_reward_expectancy,2022.2.4,Win32,61.08362348,Chrome,1536,864,,,a,1.6196,10,94,0,1,9,21,7,1,0,0,1,0,0,1,0,0,hexagon,circle,,,,,,,,,,,,,,,,,,,,,,,,,,,,,,,,,,,,,,,,,,,,,,,,,,,,,,
293209,2022-09-21_16h52.24.952,vts_reward_expectancy,2022.2.4,Win32,61.08362348,Chrome,1536,864,,,a,1.3588,1,95,0,1,10,22,9,1,0,0,0,1,1,0,0,0,star,triangle,,,,,,,,,,,,,,,,,,,,,,,,,,,,,,,,,,,,,,,,,,,,,,,,,,,,,,
293209,2022-09-21_16h52.24.952,vts_reward_expectancy,2022.2.4,Win32,61.08362348,Chrome,1536,864,,,l,1.0897,10,105,0,1,11,23,4,1,0,1,0,0,0,0,1,0,circle,hexagon,,,,,,,,,,,,,,,,,,,,,,,,,,,,,,,,,,,,,,,,,,,,,,,,,,,,,,
293209,2022-09-21_16h52.24.952,vts_reward_expectancy,2022.2.4,Win32,61.08362348,Chrome,1536,864,,,l,1.8012,10,115,0,2,0,24,11,1,0,0,0,1,0,0,1,0,star,hexagon,,,,,,,,,,,,,,,,,,,,,,,,,,,,,,,,,,,,,,,,,,,,,,,,,,,,,,
293209,2022-09-21_16h52.24.952,vts_reward_expectancy,2022.2.4,Win32,61.08362348,Chrome,1536,864,,,a,1.5541,10,125,0,2,1,25,6,1,0,0,1,0,1,0,0,0,hexagon,triangle,,,,,,,,,,,,,,,,,,,,,,,,,,,,,,,,,,,,,,,,,,,,,,,,,,,,,,
293209,2022-09-21_16h52.24.952,vts_reward_expectancy,2022.2.4,Win32,61.08362348,Chrome,1536,864,,,a,1.0849,10,135,0,2,2,26,7,1,0,0,1,0,0,1,0,0,hexagon,circle,,,,,,,,,,,,,,,,,,,,,,,,,,,,,,,,,,,,,,,,,,,,,,,,,,,,,,
293209,2022-09-21_16h52.24.952,vts_reward_expectancy,2022.2.4,Win32,61.08362348,Chrome,1536,864,,,l,0.4846,1,136,0,2,3,27,1,1,1,0,0,0,0,0,1,0,triangle,hexagon,,,,,,,,,,,,,,,,,,,,,,,,,,,,,,,,,,,,,,,,,,,,,,,,,,,,,,
293209,2022-09-21_16h52.24.952,vts_reward_expectancy,2022.2.4,Win32,61.08362348,Chrome,1536,864,,,l,0.9358,1,137,0,2,4,28,3,1,0,1,0,0,1,0,0,0,circle,triangle,,,,,,,,,,,,,,,,,,,,,,,,,,,,,,,,,,,,,,,,,,,,,,,,,,,,,,
293209,2022-09-21_16h52.24.952,vts_reward_expectancy,2022.2.4,Win32,61.08362348,Chrome,1536,864,,,a,0.8701,1,138,0,2,5,29,10,1,0,0,0,1,0,1,0,0,star ,circle,,,,,,,,,,,,,,,,,,,,,,,,,,,,,,,,,,,,,,,,,,,,,,,,,,,,,,
293209,2022-09-21_16h52.24.952,vts_reward_expectancy,2022.2.4,Win32,61.08362348,Chrome,1536,864,,,l,1.6209,10,148,0,2,6,30,2,1,1,0,0,0,0,0,0,1,triangle,star,,,,,,,,,,,,,,,,,,,,,,,,,,,,,,,,,,,,,,,,,,,,,,,,,,,,,,
293209,2022-09-21_16h52.24.952,vts_reward_expectancy,2022.2.4,Win32,61.08362348,Chrome,1536,864,,,l,0.7092,10,158,0,2,7,31,5,1,0,1,0,0,0,0,0,1,circle,star,,,,,,,,,,,,,,,,,,,,,,,,,,,,,,,,,,,,,,,,,,,,,,,,,,,,,,
293209,2022-09-21_16h52.24.952,vts_reward_expectancy,2022.2.4,Win32,61.08362348,Chrome,1536,864,,,a,1.0409,10,168,0,2,8,32,4,1,0,1,0,0,0,0,1,0,circle,hexagon,,,,,,,,,,,,,,,,,,,,,,,,,,,,,,,,,,,,,,,,,,,,,,,,,,,,,,
293209,2022-09-21_16h52.24.952,vts_reward_expectancy,2022.2.4,Win32,61.08362348,Chrome,1536,864,,,l,1.0505,1,169,0,2,9,33,9,1,0,0,0,1,1,0,0,0,star,triangle,,,,,,,,,,,,,,,,,,,,,,,,,,,,,,,,,,,,,,,,,,,,,,,,,,,,,,
293209,2022-09-21_16h52.24.952,vts_reward_expectancy,2022.2.4,Win32,61.08362348,Chrome,1536,864,,,l,0.9488,1,170,0,2,10,34,8,1,0,0,1,0,0,0,0,1,hexagon,star,,,,,,,,,,,,,,,,,,,,,,,,,,,,,,,,,,,,,,,,,,,,,,,,,,,,,,
293209,2022-09-21_16h52.24.952,vts_reward_expectancy,2022.2.4,Win32,61.08362348,Chrome,1536,864,,,a,1.2812,1,171,0,2,11,35,0,1,1,0,0,0,0,1,0,0,triangle,circle,,,,,,,,,,,,,,,,,,,,,,,,,,,,,,,,,,,,,,,,,,,,,,,,,,,,,,
293209,2022-09-21_16h52.24.952,vts_reward_expectancy,2022.2.4,Win32,61.08362348,Chrome,1536,864,,,a,2.022,10,181,1,0,0,0,2,1,1,0,0,0,0,0,0,1,triangle,star,,,,,,,,,,,,,,,,,,,,,,,,,,,,,,,,,,,,,,,,,,,,,,,,,,,,,,
293209,2022-09-21_16h52.24.952,vts_reward_expectancy,2022.2.4,Win32,61.08362348,Chrome,1536,864,,,l,1.7387,10,191,1,0,1,1,0,1,1,0,0,0,0,1,0,0,triangle,circle,,,,,,,,,,,,,,,,,,,,,,,,,,,,,,,,,,,,,,,,,,,,,,,,,,,,,,
293209,2022-09-21_16h52.24.952,vts_reward_expectancy,2022.2.4,Win32,61.08362348,Chrome,1536,864,,,a,0.6882,1,192,1,0,2,2,3,1,0,1,0,0,1,0,0,0,circle,triangle,,,,,,,,,,,,,,,,,,,,,,,,,,,,,,,,,,,,,,,,,,,,,,,,,,,,,,
293209,2022-09-21_16h52.24.952,vts_reward_expectancy,2022.2.4,Win32,61.08362348,Chrome,1536,864,,,a,0.7659,10,202,1,0,3,3,7,1,0,0,1,0,0,1,0,0,hexagon,circle,,,,,,,,,,,,,,,,,,,,,,,,,,,,,,,,,,,,,,,,,,,,,,,,,,,,,,
293209,2022-09-21_16h52.24.952,vts_reward_expectancy,2022.2.4,Win32,61.08362348,Chrome,1536,864,,,l,0.9647,10,212,1,0,4,4,9,1,0,0,0,1,1,0,0,0,star,triangle,,,,,,,,,,,,,,,,,,,,,,,,,,,,,,,,,,,,,,,,,,,,,,,,,,,,,,
293209,2022-09-21_16h52.24.952,vts_reward_expectancy,2022.2.4,Win32,61.08362348,Chrome,1536,864,,,a,0.6146,10,222,1,0,5,5,10,1,0,0,0,1,0,1,0,0,star ,circle,,,,,,,,,,,,,,,,,,,,,,,,,,,,,,,,,,,,,,,,,,,,,,,,,,,,,,
293209,2022-09-21_16h52.24.952,vts_reward_expectancy,2022.2.4,Win32,61.08362348,Chrome,1536,864,,,a,0.5537,1,223,1,0,6,6,11,1,0,0,0,1,0,0,1,0,star,hexagon,,,,,,,,,,,,,,,,,,,,,,,,,,,,,,,,,,,,,,,,,,,,,,,,,,,,,,
293209,2022-09-21_16h52.24.952,vts_reward_expectancy,2022.2.4,Win32,61.08362348,Chrome,1536,864,,,l,0.4741,10,233,1,0,7,7,1,1,1,0,0,0,0,0,1,0,triangle,hexagon,,,,,,,,,,,,,,,,,,,,,,,,,,,,,,,,,,,,,,,,,,,,,,,,,,,,,,
293209,2022-09-21_16h52.24.952,vts_reward_expectancy,2022.2.4,Win32,61.08362348,Chrome,1536,864,,,l,0.7981,10,243,1,0,8,8,4,1,0,1,0,0,0,0,1,0,circle,hexagon,,,,,,,,,,,,,,,,,,,,,,,,,,,,,,,,,,,,,,,,,,,,,,,,,,,,,,
293209,2022-09-21_16h52.24.952,vts_reward_expectancy,2022.2.4,Win32,61.08362348,Chrome,1536,864,,,a,0.5408,10,253,1,0,9,9,8,1,0,0,1,0,0,0,0,1,hexagon,star,,,,,,,,,,,,,,,,,,,,,,,,,,,,,,,,,,,,,,,,,,,,,,,,,,,,,,
293209,2022-09-21_16h52.24.952,vts_reward_expectancy,2022.2.4,Win32,61.08362348,Chrome,1536,864,,,l,1.1983,1,254,1,0,10,10,5,1,0,1,0,0,0,0,0,1,circle,star,,,,,,,,,,,,,,,,,,,,,,,,,,,,,,,,,,,,,,,,,,,,,,,,,,,,,,
293209,2022-09-21_16h52.24.952,vts_reward_expectancy,2022.2.4,Win32,61.08362348,Chrome,1536,864,,,a,0.5852,10,264,1,0,11,11,6,1,0,0,1,0,1,0,0,0,hexagon,triangle,,,,,,,,,,,,,,,,,,,,,,,,,,,,,,,,,,,,,,,,,,,,,,,,,,,,,,
293209,2022-09-21_16h52.24.952,vts_reward_expectancy,2022.2.4,Win32,61.08362348,Chrome,1536,864,,,a,1.0651,10,274,1,1,0,12,5,1,0,1,0,0,0,0,0,1,circle,star,,,,,,,,,,,,,,,,,,,,,,,,,,,,,,,,,,,,,,,,,,,,,,,,,,,,,,
293209,2022-09-21_16h52.24.952,vts_reward_expectancy,2022.2.4,Win32,61.08362348,Chrome,1536,864,,,a,0.8183,1,275,1,1,1,13,3,1,0,1,0,0,1,0,0,0,circle,triangle,,,,,,,,,,,,,,,,,,,,,,,,,,,,,,,,,,,,,,,,,,,,,,,,,,,,,,
293209,2022-09-21_16h52.24.952,vts_reward_expectancy,2022.2.4,Win32,61.08362348,Chrome,1536,864,,,a,0.8183,1,276,1,1,2,14,0,1,1,0,0,0,0,1,0,0,triangle,circle,,,,,,,,,,,,,,,,,,,,,,,,,,,,,,,,,,,,,,,,,,,,,,,,,,,,,,
293209,2022-09-21_16h52.24.952,vts_reward_expectancy,2022.2.4,Win32,61.08362348,Chrome,1536,864,,,l,0.7528,10,286,1,1,3,15,4,1,0,1,0,0,0,0,1,0,circle,hexagon,,,,,,,,,,,,,,,,,,,,,,,,,,,,,,,,,,,,,,,,,,,,,,,,,,,,,,
293209,2022-09-21_16h52.24.952,vts_reward_expectancy,2022.2.4,Win32,61.08362348,Chrome,1536,864,,,l,1.5825,10,296,1,1,4,16,11,1,0,0,0,1,0,0,1,0,star,hexagon,,,,,,,,,,,,,,,,,,,,,,,,,,,,,,,,,,,,,,,,,,,,,,,,,,,,,,
293209,2022-09-21_16h52.24.952,vts_reward_expectancy,2022.2.4,Win32,61.08362348,Chrome,1536,864,,,l,1.0562,10,306,1,1,5,17,10,1,0,0,0,1,0,1,0,0,star ,circle,,,,,,,,,,,,,,,,,,,,,,,,,,,,,,,,,,,,,,,,,,,,,,,,,,,,,,
293209,2022-09-21_16h52.24.952,vts_reward_expectancy,2022.2.4,Win32,61.08362348,Chrome,1536,864,,,l,1.4814,1,307,1,1,6,18,2,1,1,0,0,0,0,0,0,1,triangle,star,,,,,,,,,,,,,,,,,,,,,,,,,,,,,,,,,,,,,,,,,,,,,,,,,,,,,,
293209,2022-09-21_16h52.24.952,vts_reward_expectancy,2022.2.4,Win32,61.08362348,Chrome,1536,864,,,a,1.531,1,308,1,1,7,19,9,1,0,0,0,1,1,0,0,0,star,triangle,,,,,,,,,,,,,,,,,,,,,,,,,,,,,,,,,,,,,,,,,,,,,,,,,,,,,,
293209,2022-09-21_16h52.24.952,vts_reward_expectancy,2022.2.4,Win32,61.08362348,Chrome,1536,864,,,l,0.8527,10,318,1,1,8,20,1,1,1,0,0,0,0,0,1,0,triangle,hexagon,,,,,,,,,,,,,,,,,,,,,,,,,,,,,,,,,,,,,,,,,,,,,,,,,,,,,,
293209,2022-09-21_16h52.24.952,vts_reward_expectancy,2022.2.4,Win32,61.08362348,Chrome,1536,864,,,a,0.4711,10,328,1,1,9,21,8,1,0,0,1,0,0,0,0,1,hexagon,star,,,,,,,,,,,,,,,,,,,,,,,,,,,,,,,,,,,,,,,,,,,,,,,,,,,,,,
293209,2022-09-21_16h52.24.952,vts_reward_expectancy,2022.2.4,Win32,61.08362348,Chrome,1536,864,,,a,0.3976,10,338,1,1,10,22,7,1,0,0,1,0,0,1,0,0,hexagon,circle,,,,,,,,,,,,,,,,,,,,,,,,,,,,,,,,,,,,,,,,,,,,,,,,,,,,,,
293209,2022-09-21_16h52.24.952,vts_reward_expectancy,2022.2.4,Win32,61.08362348,Chrome,1536,864,,,a,0.3811,10,348,1,1,11,23,6,1,0,0,1,0,1,0,0,0,hexagon,triangle,,,,,,,,,,,,,,,,,,,,,,,,,,,,,,,,,,,,,,,,,,,,,,,,,,,,,,
293209,2022-09-21_16h52.24.952,vts_reward_expectancy,2022.2.4,Win32,61.08362348,Chrome,1536,864,,,l,0.3478,10,358,1,2,0,24,1,1,1,0,0,0,0,0,1,0,triangle,hexagon,,,,,,,,,,,,,,,,,,,,,,,,,,,,,,,,,,,,,,,,,,,,,,,,,,,,,,
293209,2022-09-21_16h52.24.952,vts_reward_expectancy,2022.2.4,Win32,61.08362348,Chrome,1536,864,,,a,0.3811,10,368,1,2,1,25,7,1,0,0,1,0,0,1,0,0,hexagon,circle,,,,,,,,,,,,,,,,,,,,,,,,,,,,,,,,,,,,,,,,,,,,,,,,,,,,,,
293209,2022-09-21_16h52.24.952,vts_reward_expectancy,2022.2.4,Win32,61.08362348,Chrome,1536,864,,,l,0.4489,10,378,1,2,2,26,4,1,0,1,0,0,0,0,1,0,circle,hexagon,,,,,,,,,,,,,,,,,,,,,,,,,,,,,,,,,,,,,,,,,,,,,,,,,,,,,,
293209,2022-09-21_16h52.24.952,vts_reward_expectancy,2022.2.4,Win32,61.08362348,Chrome,1536,864,,,a,1.2818,10,388,1,2,3,27,5,1,0,1,0,0,0,0,0,1,circle,star,,,,,,,,,,,,,,,,,,,,,,,,,,,,,,,,,,,,,,,,,,,,,,,,,,,,,,
293209,2022-09-21_16h52.24.952,vts_reward_expectancy,2022.2.4,Win32,61.08362348,Chrome,1536,864,,,l,0.8991,10,398,1,2,4,28,9,1,0,0,0,1,1,0,0,0,star,triangle,,,,,,,,,,,,,,,,,,,,,,,,,,,,,,,,,,,,,,,,,,,,,,,,,,,,,,
293209,2022-09-21_16h52.24.952,vts_reward_expectancy,2022.2.4,Win32,61.08362348,Chrome,1536,864,,,a,1.0705,1,399,1,2,5,29,0,1,1,0,0,0,0,1,0,0,triangle,circle,,,,,,,,,,,,,,,,,,,,,,,,,,,,,,,,,,,,,,,,,,,,,,,,,,,,,,
293209,2022-09-21_16h52.24.952,vts_reward_expectancy,2022.2.4,Win32,61.08362348,Chrome,1536,864,,,a,0.4151,10,409,1,2,6,30,6,1,0,0,1,0,1,0,0,0,hexagon,triangle,,,,,,,,,,,,,,,,,,,,,,,,,,,,,,,,,,,,,,,,,,,,,,,,,,,,,,
293209,2022-09-21_16h52.24.952,vts_reward_expectancy,2022.2.4,Win32,61.08362348,Chrome,1536,864,,,l,1.0202,1,410,1,2,7,31,2,1,1,0,0,0,0,0,0,1,triangle,star,,,,,,,,,,,,,,,,,,,,,,,,,,,,,,,,,,,,,,,,,,,,,,,,,,,,,,
293209,2022-09-21_16h52.24.952,vts_reward_expectancy,2022.2.4,Win32,61.08362348,Chrome,1536,864,,,l,0.8553,10,420,1,2,8,32,11,1,0,0,0,1,0,0,1,0,star,hexagon,,,,,,,,,,,,,,,,,,,,,,,,,,,,,,,,,,,,,,,,,,,,,,,,,,,,,,
293209,2022-09-21_16h52.24.952,vts_reward_expectancy,2022.2.4,Win32,61.08362348,Chrome,1536,864,,,a,0.4317,10,430,1,2,9,33,8,1,0,0,1,0,0,0,0,1,hexagon,star,,,,,,,,,,,,,,,,,,,,,,,,,,,,,,,,,,,,,,,,,,,,,,,,,,,,,,
293209,2022-09-21_16h52.24.952,vts_reward_expectancy,2022.2.4,Win32,61.08362348,Chrome,1536,864,,,a,0.8387,10,440,1,2,10,34,10,1,0,0,0,1,0,1,0,0,star ,circle,,,,,,,,,,,,,,,,,,,,,,,,,,,,,,,,,,,,,,,,,,,,,,,,,,,,,,
293209,2022-09-21_16h52.24.952,vts_reward_expectancy,2022.2.4,Win32,61.08362348,Chrome,1536,864,,,a,1.0484,10,450,1,2,11,35,3,1,0,1,0,0,1,0,0,0,circle,triangle,,,,,,,,,,,,,,,,,,,,,,,,,,,,,,,,,,,,,,,,,,,,,,,,,,,,,,
293209,2022-09-21_16h52.24.952,vts_reward_expectancy,2022.2.4,Win32,61.08362348,Chrome,1536,864,,,a,0.8151,10,460,2,0,0,0,6,1,0,0,1,0,1,0,0,0,hexagon,triangle,,,,,,,,,,,,,,,,,,,,,,,,,,,,,,,,,,,,,,,,,,,,,,,,,,,,,,
293209,2022-09-21_16h52.24.952,vts_reward_expectancy,2022.2.4,Win32,61.08362348,Chrome,1536,864,,,l,0.3645,10,470,2,0,1,1,1,1,1,0,0,0,0,0,1,0,triangle,hexagon,,,,,,,,,,,,,,,,,,,,,,,,,,,,,,,,,,,,,,,,,,,,,,,,,,,,,,
293209,2022-09-21_16h52.24.952,vts_reward_expectancy,2022.2.4,Win32,61.08362348,Chrome,1536,864,,,l,0.8491,1,471,2,0,2,2,3,1,0,1,0,0,1,0,0,0,circle,triangle,,,,,,,,,,,,,,,,,,,,,,,,,,,,,,,,,,,,,,,,,,,,,,,,,,,,,,
293209,2022-09-21_16h52.24.952,vts_reward_expectancy,2022.2.4,Win32,61.08362348,Chrome,1536,864,,,l,1.542,10,481,2,0,3,3,0,1,1,0,0,0,0,1,0,0,triangle,circle,,,,,,,,,,,,,,,,,,,,,,,,,,,,,,,,,,,,,,,,,,,,,,,,,,,,,,
293209,2022-09-21_16h52.24.952,vts_reward_expectancy,2022.2.4,Win32,61.08362348,Chrome,1536,864,,,a,0.9743,1,482,2,0,4,4,2,1,1,0,0,0,0,0,0,1,triangle,star,,,,,,,,,,,,,,,,,,,,,,,,,,,,,,,,,,,,,,,,,,,,,,,,,,,,,,
293209,2022-09-21_16h52.24.952,vts_reward_expectancy,2022.2.4,Win32,61.08362348,Chrome,1536,864,,,a,0.8551,1,483,2,0,5,5,10,1,0,0,0,1,0,1,0,0,star ,circle,,,,,,,,,,,,,,,,,,,,,,,,,,,,,,,,,,,,,,,,,,,,,,,,,,,,,,
293209,2022-09-21_16h52.24.952,vts_reward_expectancy,2022.2.4,Win32,61.08362348,Chrome,1536,864,,,l,0.836,1,484,2,0,6,6,4,1,0,1,0,0,0,0,1,0,circle,hexagon,,,,,,,,,,,,,,,,,,,,,,,,,,,,,,,,,,,,,,,,,,,,,,,,,,,,,,
293209,2022-09-21_16h52.24.952,vts_reward_expectancy,2022.2.4,Win32,61.08362348,Chrome,1536,864,,,a,0.7899,10,494,2,0,7,7,5,1,0,1,0,0,0,0,0,1,circle,star,,,,,,,,,,,,,,,,,,,,,,,,,,,,,,,,,,,,,,,,,,,,,,,,,,,,,,
293209,2022-09-21_16h52.24.952,vts_reward_expectancy,2022.2.4,Win32,61.08362348,Chrome,1536,864,,,l,0.6187,10,504,2,0,8,8,11,1,0,0,0,1,0,0,1,0,star,hexagon,,,,,,,,,,,,,,,,,,,,,,,,,,,,,,,,,,,,,,,,,,,,,,,,,,,,,,
293209,2022-09-21_16h52.24.952,vts_reward_expectancy,2022.2.4,Win32,61.08362348,Chrome,1536,864,,,l,0.7813,1,505,2,0,9,9,9,1,0,0,0,1,1,0,0,0,star,triangle,,,,,,,,,,,,,,,,,,,,,,,,,,,,,,,,,,,,,,,,,,,,,,,,,,,,,,
293209,2022-09-21_16h52.24.952,vts_reward_expectancy,2022.2.4,Win32,61.08362348,Chrome,1536,864,,,a,0.7681,10,515,2,0,10,10,7,1,0,0,1,0,0,1,0,0,hexagon,circle,,,,,,,,,,,,,,,,,,,,,,,,,,,,,,,,,,,,,,,,,,,,,,,,,,,,,,
293209,2022-09-21_16h52.24.952,vts_reward_expectancy,2022.2.4,Win32,61.08362348,Chrome,1536,864,,,a,0.7055,10,525,2,0,11,11,8,1,0,0,1,0,0,0,0,1,hexagon,star,,,,,,,,,,,,,,,,,,,,,,,,,,,,,,,,,,,,,,,,,,,,,,,,,,,,,,
293209,2022-09-21_16h52.24.952,vts_reward_expectancy,2022.2.4,Win32,61.08362348,Chrome,1536,864,,,a,0.5817,10,535,2,1,0,12,8,1,0,0,1,0,0,0,0,1,hexagon,star,,,,,,,,,,,,,,,,,,,,,,,,,,,,,,,,,,,,,,,,,,,,,,,,,,,,,,
293209,2022-09-21_16h52.24.952,vts_reward_expectancy,2022.2.4,Win32,61.08362348,Chrome,1536,864,,,a,0.8974,1,536,2,1,1,13,2,1,1,0,0,0,0,0,0,1,triangle,star,,,,,,,,,,,,,,,,,,,,,,,,,,,,,,,,,,,,,,,,,,,,,,,,,,,,,,
293209,2022-09-21_16h52.24.952,vts_reward_expectancy,2022.2.4,Win32,61.08362348,Chrome,1536,864,,,a,0.869,1,537,2,1,2,14,9,1,0,0,0,1,1,0,0,0,star,triangle,,,,,,,,,,,,,,,,,,,,,,,,,,,,,,,,,,,,,,,,,,,,,,,,,,,,,,
293209,2022-09-21_16h52.24.952,vts_reward_expectancy,2022.2.4,Win32,61.08362348,Chrome,1536,864,,,a,0.9708,10,547,2,1,3,15,5,1,0,1,0,0,0,0,0,1,circle,star,,,,,,,,,,,,,,,,,,,,,,,,,,,,,,,,,,,,,,,,,,,,,,,,,,,,,,
293209,2022-09-21_16h52.24.952,vts_reward_expectancy,2022.2.4,Win32,61.08362348,Chrome,1536,864,,,l,0.8826,10,557,2,1,4,16,10,1,0,0,0,1,0,1,0,0,star ,circle,,,,,,,,,,,,,,,,,,,,,,,,,,,,,,,,,,,,,,,,,,,,,,,,,,,,,,
293209,2022-09-21_16h52.24.952,vts_reward_expectancy,2022.2.4,Win32,61.08362348,Chrome,1536,864,,,l,0.7555,10,567,2,1,5,17,4,1,0,1,0,0,0,0,1,0,circle,hexagon,,,,,,,,,,,,,,,,,,,,,,,,,,,,,,,,,,,,,,,,,,,,,,,,,,,,,,
293209,2022-09-21_16h52.24.952,vts_reward_expectancy,2022.2.4,Win32,61.08362348,Chrome,1536,864,,,l,0.6578,1,568,2,1,6,18,11,1,0,0,0,1,0,0,1,0,star,hexagon,,,,,,,,,,,,,,,,,,,,,,,,,,,,,,,,,,,,,,,,,,,,,,,,,,,,,,
293209,2022-09-21_16h52.24.952,vts_reward_expectancy,2022.2.4,Win32,61.08362348,Chrome,1536,864,,,a,0.5573,10,578,2,1,7,19,7,1,0,0,1,0,0,1,0,0,hexagon,circle,,,,,,,,,,,,,,,,,,,,,,,,,,,,,,,,,,,,,,,,,,,,,,,,,,,,,,
293209,2022-09-21_16h52.24.952,vts_reward_expectancy,2022.2.4,Win32,61.08362348,Chrome,1536,864,,,a,1.4143,1,579,2,1,8,20,3,1,0,1,0,0,1,0,0,0,circle,triangle,,,,,,,,,,,,,,,,,,,,,,,,,,,,,,,,,,,,,,,,,,,,,,,,,,,,,,
293209,2022-09-21_16h52.24.952,vts_reward_expectancy,2022.2.4,Win32,61.08362348,Chrome,1536,864,,,a,0.8372,1,580,2,1,9,21,0,1,1,0,0,0,0,1,0,0,triangle,circle,,,,,,,,,,,,,,,,,,,,,,,,,,,,,,,,,,,,,,,,,,,,,,,,,,,,,,
293209,2022-09-21_16h52.24.952,vts_reward_expectancy,2022.2.4,Win32,61.08362348,Chrome,1536,864,,,l,0.673,10,590,2,1,10,22,1,1,1,0,0,0,0,0,1,0,triangle,hexagon,,,,,,,,,,,,,,,,,,,,,,,,,,,,,,,,,,,,,,,,,,,,,,,,,,,,,,
293209,2022-09-21_16h52.24.952,vts_reward_expectancy,2022.2.4,Win32,61.08362348,Chrome,1536,864,,,a,0.3819,10,600,2,1,11,23,6,1,0,0,1,0,1,0,0,0,hexagon,triangle,,,,,,,,,,,,,,,,,,,,,,,,,,,,,,,,,,,,,,,,,,,,,,,,,,,,,,
293209,2022-09-21_16h52.24.952,vts_reward_expectancy,2022.2.4,Win32,61.08362348,Chrome,1536,864,,,a,0.6875,1,601,2,2,0,24,9,1,0,0,0,1,1,0,0,0,star,triangle,,,,,,,,,,,,,,,,,,,,,,,,,,,,,,,,,,,,,,,,,,,,,,,,,,,,,,
293209,2022-09-21_16h52.24.952,vts_reward_expectancy,2022.2.4,Win32,61.08362348,Chrome,1536,864,,,a,0.7746,1,602,2,2,1,25,6,1,0,0,1,0,1,0,0,0,hexagon,triangle,,,,,,,,,,,,,,,,,,,,,,,,,,,,,,,,,,,,,,,,,,,,,,,,,,,,,,
293209,2022-09-21_16h52.24.952,vts_reward_expectancy,2022.2.4,Win32,61.08362348,Chrome,1536,864,,,l,0.5819,10,612,2,2,2,26,1,1,1,0,0,0,0,0,1,0,triangle,hexagon,,,,,,,,,,,,,,,,,,,,,,,,,,,,,,,,,,,,,,,,,,,,,,,,,,,,,,
293209,2022-09-21_16h52.24.952,vts_reward_expectancy,2022.2.4,Win32,61.08362348,Chrome,1536,864,,,l,0.4234,10,622,2,2,3,27,11,1,0,0,0,1,0,0,1,0,star,hexagon,,,,,,,,,,,,,,,,,,,,,,,,,,,,,,,,,,,,,,,,,,,,,,,,,,,,,,
293209,2022-09-21_16h52.24.952,vts_reward_expectancy,2022.2.4,Win32,61.08362348,Chrome,1536,864,,,a,0.5189,10,632,2,2,4,28,7,1,0,0,1,0,0,1,0,0,hexagon,circle,,,,,,,,,,,,,,,,,,,,,,,,,,,,,,,,,,,,,,,,,,,,,,,,,,,,,,
293209,2022-09-21_16h52.24.952,vts_reward_expectancy,2022.2.4,Win32,61.08362348,Chrome,1536,864,,,a,1.1761,10,642,2,2,5,29,2,1,1,0,0,0,0,0,0,1,triangle,star,,,,,,,,,,,,,,,,,,,,,,,,,,,,,,,,,,,,,,,,,,,,,,,,,,,,,,
293209,2022-09-21_16h52.24.952,vts_reward_expectancy,2022.2.4,Win32,61.08362348,Chrome,1536,864,,,l,0.9645,10,652,2,2,6,30,10,1,0,0,0,1,0,1,0,0,star ,circle,,,,,,,,,,,,,,,,,,,,,,,,,,,,,,,,,,,,,,,,,,,,,,,,,,,,,,
293209,2022-09-21_16h52.24.952,vts_reward_expectancy,2022.2.4,Win32,61.08362348,Chrome,1536,864,,,a,0.8731,10,662,2,2,7,31,0,1,1,0,0,0,0,1,0,0,triangle,circle,,,,,,,,,,,,,,,,,,,,,,,,,,,,,,,,,,,,,,,,,,,,,,,,,,,,,,
293209,2022-09-21_16h52.24.952,vts_reward_expectancy,2022.2.4,Win32,61.08362348,Chrome,1536,864,,,l,0.3679,10,672,2,2,8,32,4,1,0,1,0,0,0,0,1,0,circle,hexagon,,,,,,,,,,,,,,,,,,,,,,,,,,,,,,,,,,,,,,,,,,,,,,,,,,,,,,
293209,2022-09-21_16h52.24.952,vts_reward_expectancy,2022.2.4,Win32,61.08362348,Chrome,1536,864,,,a,0.4217,1,673,2,2,9,33,8,1,0,0,1,0,0,0,0,1,hexagon,star,,,,,,,,,,,,,,,,,,,,,,,,,,,,,,,,,,,,,,,,,,,,,,,,,,,,,,
293209,2022-09-21_16h52.24.952,vts_reward_expectancy,2022.2.4,Win32,61.08362348,Chrome,1536,864,,,l,0.8186,1,674,2,2,10,34,5,1,0,1,0,0,0,0,0,1,circle,star,,,,,,,,,,,,,,,,,,,,,,,,,,,,,,,,,,,,,,,,,,,,,,,,,,,,,,
293209,2022-09-21_16h52.24.952,vts_reward_expectancy,2022.2.4,Win32,61.08362348,Chrome,1536,864,,,l,1.0659,10,684,2,2,11,35,3,1,0,1,0,0,1,0,0,0,circle,triangle,,,,,,,,,,,,,,,,,,,,,,,,,,,,,,,,,,,,,,,,,,,,,,,,,,,,,,
293209,2022-09-21_16h52.24.952,vts_reward_expectancy,2022.2.4,Win32,61.08362348,Chrome,1536,864,,,,,,,,,,,,,,,,,,,,,,,W,167,circle,0,0,,0,0,0,0,0,1,,,,,,,,,,,,,,,,,,,,,,,,,,,,,,,,,,,,,,,,,,
293209,2022-09-21_16h52.24.952,vts_reward_expectancy,2022.2.4,Win32,61.08362348,Chrome,1536,864,,,,,,,,,,,,,,,,,,,,,,,B,160,triangle,1,1,d,0,1,0,1,0,1,0.6498,,,,,,,,,,,,,,,,,,,,,,,,,,,,,,,,,,,,,,,,,
293209,2022-09-21_16h52.24.952,vts_reward_expectancy,2022.2.4,Win32,61.08362348,Chrome,1536,864,,,,,,,,,,,,,,,,,,,,,,,S,181,star,0,0,d,0,2,0,2,0,1,0.4635,,,,,,,,,,,,,,,,,,,,,,,,,,,,,,,,,,,,,,,,,
293209,2022-09-21_16h52.24.952,vts_reward_expectancy,2022.2.4,Win32,61.08362348,Chrome,1536,864,,,,,,,,,,,,,,,,,,,,,,,D,146,hexagon,1,1,d,0,3,0,3,0,1,0.8454,,,,,,,,,,,,,,,,,,,,,,,,,,,,,,,,,,,,,,,,,
293209,2022-09-21_16h52.24.952,vts_reward_expectancy,2022.2.4,Win32,61.08362348,Chrome,1536,864,,,,,,,,,,,,,,,,,,,,,,,F,125,circle,0,0,f,0,4,0,4,0,1,1.2933,,,,,,,,,,,,,,,,,,,,,,,,,,,,,,,,,,,,,,,,,
293209,2022-09-21_16h52.24.952,vts_reward_expectancy,2022.2.4,Win32,61.08362348,Chrome,1536,864,,,,,,,,,,,,,,,,,,,,,,,H,139,triangle,1,1,d,0,5,0,5,0,1,1.4366,,,,,,,,,,,,,,,,,,,,,,,,,,,,,,,,,,,,,,,,,
293209,2022-09-21_16h52.24.952,vts_reward_expectancy,2022.2.4,Win32,61.08362348,Chrome,1536,864,,,,,,,,,,,,,,,,,,,,,,,U,132,star,0,0,d,0,6,0,6,0,1,0.4976,,,,,,,,,,,,,,,,,,,,,,,,,,,,,,,,,,,,,,,,,
293209,2022-09-21_16h52.24.952,vts_reward_expectancy,2022.2.4,Win32,61.08362348,Chrome,1536,864,,,,,,,,,,,,,,,,,,,,,,,Y,174,hexagon,1,1,f,0,7,0,7,0,1,0.8314,,,,,,,,,,,,,,,,,,,,,,,,,,,,,,,,,,,,,,,,,
293209,2022-09-21_16h52.24.952,vts_reward_expectancy,2022.2.4,Win32,61.08362348,Chrome,1536,864,,,,,,,,,,,,,,,,,,,,,,,W,167,circle,1,0,f,0,8,0,8,0,1,0.5715,,,,,,,,,,,,,,,,,,,,,,,,,,,,,,,,,,,,,,,,,
293209,2022-09-21_16h52.24.952,vts_reward_expectancy,2022.2.4,Win32,61.08362348,Chrome,1536,864,,,,,,,,,,,,,,,,,,,,,,,B,160,hexagon,1,0,d,0,9,0,9,0,1,0.4505,,,,,,,,,,,,,,,,,,,,,,,,,,,,,,,,,,,,,,,,,
293209,2022-09-21_16h52.24.952,vts_reward_expectancy,2022.2.4,Win32,61.08362348,Chrome,1536,864,,,,,,,,,,,,,,,,,,,,,,,B,132,circle,1,0,d,1,0,0,0,0,1,0.4696,,,,,,,,,,,,,,,,,,,,,,,,,,,,,,,,,,,,,,,,,
293209,2022-09-21_16h52.24.952,vts_reward_expectancy,2022.2.4,Win32,61.08362348,Chrome,1536,864,,,,,,,,,,,,,,,,,,,,,,,Y,146,triangle,1,0,f,1,1,0,1,0,1,0.3995,,,,,,,,,,,,,,,,,,,,,,,,,,,,,,,,,,,,,,,,,
293209,2022-09-21_16h52.24.952,vts_reward_expectancy,2022.2.4,Win32,61.08362348,Chrome,1536,864,,,,,,,,,,,,,,,,,,,,,,,F,167,hexagon,1,0,d,1,2,0,2,0,1,0.5225,,,,,,,,,,,,,,,,,,,,,,,,,,,,,,,,,,,,,,,,,
293209,2022-09-21_16h52.24.952,vts_reward_expectancy,2022.2.4,Win32,61.08362348,Chrome,1536,864,,,,,,,,,,,,,,,,,,,,,,,H,174,star,1,0,d,1,3,0,3,0,1,0.4822,,,,,,,,,,,,,,,,,,,,,,,,,,,,,,,,,,,,,,,,,
293209,2022-09-21_16h52.24.952,vts_reward_expectancy,2022.2.4,Win32,61.08362348,Chrome,1536,864,,,,,,,,,,,,,,,,,,,,,,,S,181,circle,1,0,f,1,4,0,4,0,1,0.3977,,,,,,,,,,,,,,,,,,,,,,,,,,,,,,,,,,,,,,,,,
293209,2022-09-21_16h52.24.952,vts_reward_expectancy,2022.2.4,Win32,61.08362348,Chrome,1536,864,,,,,,,,,,,,,,,,,,,,,,,D,139,triangle,1,0,d,1,5,0,5,0,1,0.4973,,,,,,,,,,,,,,,,,,,,,,,,,,,,,,,,,,,,,,,,,
293209,2022-09-21_16h52.24.952,vts_reward_expectancy,2022.2.4,Win32,61.08362348,Chrome,1536,864,,,,,,,,,,,,,,,,,,,,,,,W,125,hexagon,1,0,f,1,6,0,6,0,1,0.5279,,,,,,,,,,,,,,,,,,,,,,,,,,,,,,,,,,,,,,,,,
293209,2022-09-21_16h52.24.952,vts_reward_expectancy,2022.2.4,Win32,61.08362348,Chrome,1536,864,,,,,,,,,,,,,,,,,,,,,,,U,160,star,1,0,f,1,7,0,7,0,1,0.4866,,,,,,,,,,,,,,,,,,,,,,,,,,,,,,,,,,,,,,,,,
293209,2022-09-21_16h52.24.952,vts_reward_expectancy,2022.2.4,Win32,61.08362348,Chrome,1536,864,,,,,,,,,,,,,,,,,,,,,,,B,132,star,1,0,d,1,8,0,8,0,1,0.4469,,,,,,,,,,,,,,,,,,,,,,,,,,,,,,,,,,,,,,,,,
293209,2022-09-21_16h52.24.952,vts_reward_expectancy,2022.2.4,Win32,61.08362348,Chrome,1536,864,,,,,,,,,,,,,,,,,,,,,,,Y,146,circle,1,0,f,1,9,0,9,0,1,0.4269,,,,,,,,,,,,,,,,,,,,,,,,,,,,,,,,,,,,,,,,,
293209,2022-09-21_16h52.24.952,vts_reward_expectancy,2022.2.4,Win32,61.08362348,Chrome,1536,864,,,,,,,,,,,,,,,,,,,,,,,D,125,star,1,0,,2,,,,,,,j,0.8278,0,0,0,0,1,,,,,,,,,,,,,,,,,,,,,,,,,,,,,,,,,,
293209,2022-09-21_16h52.24.952,vts_reward_expectancy,2022.2.4,Win32,61.08362348,Chrome,1536,864,,,,,,,,,,,,,,,,,,,,,,,S,146,triangle,1,0,,2,,,,,,,j,0.7181,1,0,1,0,1,,,,,,,,,,,,,,,,,,,,,,,,,,,,,,,,,,
293209,2022-09-21_16h52.24.952,vts_reward_expectancy,2022.2.4,Win32,61.08362348,Chrome,1536,864,,,,,,,,,,,,,,,,,,,,,,,Y,174,circle,1,0,,2,,,,,,,k,0.611,2,0,2,0,1,,,,,,,,,,,,,,,,,,,,,,,,,,,,,,,,,,
293209,2022-09-21_16h52.24.952,vts_reward_expectancy,2022.2.4,Win32,61.08362348,Chrome,1536,864,,,,,,,,,,,,,,,,,,,,,,,H,139,hexagon,1,0,,2,,,,,,,j,0.5886,3,0,3,0,1,,,,,,,,,,,,,,,,,,,,,,,,,,,,,,,,,,
293209,2022-09-21_16h52.24.952,vts_reward_expectancy,2022.2.4,Win32,61.08362348,Chrome,1536,864,,,,,,,,,,,,,,,,,,,,,,,B,132,star,0,0,,2,,,,,,,k,0.3942,4,0,4,0,1,,,,,,,,,,,,,,,,,,,,,,,,,,,,,,,,,,
293209,2022-09-21_16h52.24.952,vts_reward_expectancy,2022.2.4,Win32,61.08362348,Chrome,1536,864,,,,,,,,,,,,,,,,,,,,,,,F,181,triangle,1,1,,2,,,,,,,k,0.5126,5,0,5,0,1,,,,,,,,,,,,,,,,,,,,,,,,,,,,,,,,,,
293209,2022-09-21_16h52.24.952,vts_reward_expectancy,2022.2.4,Win32,61.08362348,Chrome,1536,864,,,,,,,,,,,,,,,,,,,,,,,W,167,circle,1,0,,2,,,,,,,k,0.6863,6,0,6,0,1,,,,,,,,,,,,,,,,,,,,,,,,,,,,,,,,,,
293209,2022-09-21_16h52.24.952,vts_reward_expectancy,2022.2.4,Win32,61.08362348,Chrome,1536,864,,,,,,,,,,,,,,,,,,,,,,,U,160,hexagon,1,0,,2,,,,,,,k,0.5777,7,0,7,0,1,,,,,,,,,,,,,,,,,,,,,,,,,,,,,,,,,,
293209,2022-09-21_16h52.24.952,vts_reward_expectancy,2022.2.4,Win32,61.08362348,Chrome,1536,864,,,,,,,,,,,,,,,,,,,,,,,D,125,hexagon,1,0,,2,,,,,,,j,0.5687,8,0,8,0,1,,,,,,,,,,,,,,,,,,,,,,,,,,,,,,,,,,
293209,2022-09-21_16h52.24.952,vts_reward_expectancy,2022.2.4,Win32,61.08362348,Chrome,1536,864,,,,,,,,,,,,,,,,,,,,,,,S,146,star,1,0,,2,,,,,,,j,0.688,9,0,9,0,1,,,,,,,,,,,,,,,,,,,,,,,,,,,,,,,,,,
293209,2022-09-21_16h52.24.952,vts_reward_expectancy,2022.2.4,Win32,61.08362348,Chrome,1536,864,,,,,0,684,,,,,,,,,,,,,,,,,F,139,star,1,0,,3,,,,,,,,,,,,,,-1,letter,NA,d,1.2859,vtsPrac,0,0,0,0,1,,,,,,,,,,,,,,,,,,,,,,,
293209,2022-09-21_16h52.24.952,vts_reward_expectancy,2022.2.4,Win32,61.08362348,Chrome,1536,864,,,,,0,684,,,,,,,,,,,,,,,,,H,181,hexagon,1,0,,3,,,,,,,,,,,,,,repeat,letter,lettRpt,d,1.0552,vtsPrac,1,0,1,0,1,,,,,,,,,,,,,,,,,,,,,,,
293209,2022-09-21_16h52.24.952,vts_reward_expectancy,2022.2.4,Win32,61.08362348,Chrome,1536,864,,,,,0,684,,,,,,,,,,,,,,,,,S,125,star,1,0,,3,,,,,,,,,,,,,,switch,number,numSwt,j,0.5948,vtsPrac,2,0,2,0,1,,,,,,,,,,,,,,,,,,,,,,,
293209,2022-09-21_16h52.24.952,vts_reward_expectancy,2022.2.4,Win32,61.08362348,Chrome,1536,864,,,,,0,684,,,,,,,,,,,,,,,,,U,167,hexagon,1,0,,3,,,,,,,,,,,,,,repeat,number,numRpt,k,0.898,vtsPrac,3,0,3,0,1,,,,,,,,,,,,,,,,,,,,,,,
293209,2022-09-21_16h52.24.952,vts_reward_expectancy,2022.2.4,Win32,61.08362348,Chrome,1536,864,,,,,0,684,,,,,,,,,,,,,,,,,F,139,hexagon,1,0,,3,,,,,,,,,,,,,,switch,letter,lettSwt,d,0.6336,vtsPrac,4,0,4,0,1,,,,,,,,,,,,,,,,,,,,,,,
293209,2022-09-21_16h52.24.952,vts_reward_expectancy,2022.2.4,Win32,61.08362348,Chrome,1536,864,,,,,0,684,,,,,,,,,,,,,,,,,H,181,circle,1,0,,3,,,,,,,,,,,,,,switch,number,numSwt,k,0.7878,vtsPrac,5,0,5,0,1,,,,,,,,,,,,,,,,,,,,,,,
293209,2022-09-21_16h52.24.952,vts_reward_expectancy,2022.2.4,Win32,61.08362348,Chrome,1536,864,,,,,0,684,,,,,,,,,,,,,,,,,S,125,triangle,1,0,,3,,,,,,,,,,,,,,switch,letter,lettSwt,f,1.1853,vtsPrac,6,0,6,0,1,,,,,,,,,,,,,,,,,,,,,,,
293209,2022-09-21_16h52.24.952,vts_reward_expectancy,2022.2.4,Win32,61.08362348,Chrome,1536,864,,,,,0,684,,,,,,,,,,,,,,,,,U,167,star,1,0,,3,,,,,,,,,,,,,,repeat,letter,lettRpt,f,0.7045,vtsPrac,7,0,7,0,1,,,,,,,,,,,,,,,,,,,,,,,
293209,2022-09-21_16h52.24.952,vts_reward_expectancy,2022.2.4,Win32,61.08362348,Chrome,1536,864,,,,,0,684,,,,,,,,,,,,,,,,,D,146,circle,1,0,,3,,,,,,,,,,,,,,switch,number,numSwt,j,0.9482,vtsPrac,8,0,8,0,1,,,,,,,,,,,,,,,,,,,,,,,
293209,2022-09-21_16h52.24.952,vts_reward_expectancy,2022.2.4,Win32,61.08362348,Chrome,1536,864,,,,,0,684,,,,,,,,,,,,,,,,,S,181,triangle,1,0,,3,,,,,,,,,,,,,,switch,letter,lettSwt,f,0.651,vtsPrac,9,0,9,0,1,,,,,,,,,,,,,,,,,,,,,,,
293209,2022-09-21_16h52.24.952,vts_reward_expectancy,2022.2.4,Win32,61.08362348,Chrome,1536,864,,,,,0,684,,,,,,,,,,,,,,,,,B,125,star,1,0,,3,,,,,,,,,,,,,,repeat,letter,lettRpt,d,0.4199,vtsPrac,10,0,10,0,1,,,,,,,,,,,,,,,,,,,,,,,
293209,2022-09-21_16h52.24.952,vts_reward_expectancy,2022.2.4,Win32,61.08362348,Chrome,1536,864,,,,,0,684,,,,,,,,,,,,,,,,,H,174,hexagon,1,0,,3,,,,,,,,,,,,,,switch,number,numSwt,k,0.6638,vtsPrac,11,0,11,0,1,,,,,,,,,,,,,,,,,,,,,,,
293209,2022-09-21_16h52.24.952,vts_reward_expectancy,2022.2.4,Win32,61.08362348,Chrome,1536,864,,,,,0,684,,,,,,,,,,,,,,,,,S,160,triangle,1,0,,3,,,,,,,,,,,,,,switch,letter,lettSwt,f,0.6454,vtsPrac,12,0,12,0,1,,,,,,,,,,,,,,,,,,,,,,,
293209,2022-09-21_16h52.24.952,vts_reward_expectancy,2022.2.4,Win32,61.08362348,Chrome,1536,864,,,,,0,684,,,,,,,,,,,,,,,,,W,167,circle,1,0,,3,,,,,,,,,,,,,,repeat,letter,lettRpt,f,0.6379,vtsPrac,13,0,13,0,1,,,,,,,,,,,,,,,,,,,,,,,
293209,2022-09-21_16h52.24.952,vts_reward_expectancy,2022.2.4,Win32,61.08362348,Chrome,1536,864,,,,,0,684,,,,,,,,,,,,,,,,,D,125,triangle,1,0,,3,,,,,,,,,,,,,,switch,number,numSwt,j,0.604,vtsPrac,14,0,14,0,1,,,,,,,,,,,,,,,,,,,,,,,
293209,2022-09-21_16h52.24.952,vts_reward_expectancy,2022.2.4,Win32,61.08362348,Chrome,1536,864,,,,,0,684,,,,,,,,,,,,,,,,,H,139,hexagon,1,0,,3,,,,,,,,,,,,,,switch,letter,lettSwt,d,0.7569,vtsPrac,15,0,15,0,1,,,,,,,,,,,,,,,,,,,,,,,
293209,2022-09-21_16h52.24.952,vts_reward_expectancy,2022.2.4,Win32,61.08362348,Chrome,1536,864,,,,,,,,,,,,,,,,,,,,,,,,,,,,,,,,,,,,,,,,,,,,,,,,,,,,,,,,,,,,,,,,,,,,,,,,,,,,
293209,2022-09-21_16h52.24.952,vts_reward_expectancy,2022.2.4,Win32,61.08362348,Chrome,1536,864,,,,,,,,,,,,,,,,,,,,,,,,,,,,,,,,,,,,,,,,,,,,,,,,,,,,,,,,,,,,,,,,,,,,,,,,,,,,
293209,2022-09-21_16h52.24.952,vts_reward_expectancy,2022.2.4,Win32,61.08362348,Chrome,1536,864,,,,,0,684,,,,,,,,,,,,,,,,,B,146,star,1,0,,,,,,,,,,,,,,,,switch,number,numSwt,j,0.4977,noRew,,,,,,0,0,0,0,0,1,,,,,,,,,,,,,,,,,
293209,2022-09-21_16h52.24.952,vts_reward_expectancy,2022.2.4,Win32,61.08362348,Chrome,1536,864,,,,,0,684,,,,,,,,,,,,,,,,,H,139,triangle,1,0,,,,,,,,,,,,,,,,switch,letter,lettSwt,d,0.7131,noRew,,,,,,0,1,0,1,0,1,,,,,,,,,,,,,,,,,
293209,2022-09-21_16h52.24.952,vts_reward_expectancy,2022.2.4,Win32,61.08362348,Chrome,1536,864,,,,,0,684,,,,,,,,,,,,,,,,,S,125,star,1,0,,,,,,,,,,,,,,,,switch,number,numSwt,j,0.578,noRew,,,,,,0,2,0,2,0,1,,,,,,,,,,,,,,,,,
293209,2022-09-21_16h52.24.952,vts_reward_expectancy,2022.2.4,Win32,61.08362348,Chrome,1536,864,,,,,0,684,,,,,,,,,,,,,,,,,Y,181,triangle,1,0,,,,,,,,,,,,,,,,switch,letter,lettSwt,f,0.5968,noRew,,,,,,0,3,0,3,0,1,,,,,,,,,,,,,,,,,
293209,2022-09-21_16h52.24.952,vts_reward_expectancy,2022.2.4,Win32,61.08362348,Chrome,1536,864,,,,,0,684,,,,,,,,,,,,,,,,,B,146,star,1,0,,,,,,,,,,,,,,,,switch,number,numSwt,j,0.7665,noRew,,,,,,0,4,0,4,0,1,,,,,,,,,,,,,,,,,
293209,2022-09-21_16h52.24.952,vts_reward_expectancy,2022.2.4,Win32,61.08362348,Chrome,1536,864,,,,,0,684,,,,,,,,,,,,,,,,,H,139,triangle,1,0,,,,,,,,,,,,,,,,repeat,number,numRpt,j,0.4304,noRew,,,,,,0,5,0,5,0,1,,,,,,,,,,,,,,,,,
293209,2022-09-21_16h52.24.952,vts_reward_expectancy,2022.2.4,Win32,61.08362348,Chrome,1536,864,,,,,0,684,,,,,,,,,,,,,,,,,S,125,triangle,1,0,,,,,,,,,,,,,,,,repeat,number,numRpt,j,0.4509,noRew,,,,,,0,6,0,6,0,1,,,,,,,,,,,,,,,,,
293209,2022-09-21_16h52.24.952,vts_reward_expectancy,2022.2.4,Win32,61.08362348,Chrome,1536,864,,,,,0,684,,,,,,,,,,,,,,,,,Y,181,hexagon,1,0,,,,,,,,,,,,,,,,switch,letter,lettSwt,f,0.5177,noRew,,,,,,0,7,0,7,0,1,,,,,,,,,,,,,,,,,
293209,2022-09-21_16h52.24.952,vts_reward_expectancy,2022.2.4,Win32,61.08362348,Chrome,1536,864,,,,,0,684,,,,,,,,,,,,,,,,,F,167,circle,0,0,,,,,,,,,,,,,,,,repeat,letter,NA,f,0.6606,noRew,,,,,,0,8,0,8,0,1,,,,,,,,,,,,,,,,,
293209,2022-09-21_16h52.24.952,vts_reward_expectancy,2022.2.4,Win32,61.08362348,Chrome,1536,864,,,,,0,684,,,,,,,,,,,,,,,,,H,181,triangle,1,1,,,,,,,,,,,,,,,,repeat,letter,lettRpt,d,0.5994,noRew,,,,,,0,9,0,9,0,1,,,,,,,,,,,,,,,,,
293209,2022-09-21_16h52.24.952,vts_reward_expectancy,2022.2.4,Win32,61.08362348,Chrome,1536,864,,,,,0,684,,,,,,,,,,,,,,,,,U,125,hexagon,1,0,,,,,,,,,,,,,,,,repeat,letter,lettRpt,f,0.4644,noRew,,,,,,0,10,0,10,0,1,,,,,,,,,,,,,,,,,
293209,2022-09-21_16h52.24.952,vts_reward_expectancy,2022.2.4,Win32,61.08362348,Chrome,1536,864,,,,,0,684,,,,,,,,,,,,,,,,,S,174,circle,1,0,,,,,,,,,,,,,,,,switch,number,numSwt,k,0.6953,noRew,,,,,,0,11,0,11,0,1,,,,,,,,,,,,,,,,,
293209,2022-09-21_16h52.24.952,vts_reward_expectancy,2022.2.4,Win32,61.08362348,Chrome,1536,864,,,,,0,684,,,,,,,,,,,,,,,,,U,132,circle,1,0,,,,,,,,,,,,,,,,repeat,number,numRpt,j,0.5951,noRew,,,,,,0,12,0,12,0,1,,,,,,,,,,,,,,,,,
293209,2022-09-21_16h52.24.952,vts_reward_expectancy,2022.2.4,Win32,61.08362348,Chrome,1536,864,,,,,0,684,,,,,,,,,,,,,,,,,B,181,star,1,0,,,,,,,,,,,,,,,,switch,letter,lettSwt,d,0.6383,noRew,,,,,,0,13,0,13,0,1,,,,,,,,,,,,,,,,,
293209,2022-09-21_16h52.24.952,vts_reward_expectancy,2022.2.4,Win32,61.08362348,Chrome,1536,864,,,,,0,684,,,,,,,,,,,,,,,,,W,167,star,1,0,,,,,,,,,,,,,,,,repeat,letter,lettRpt,f,0.6108,noRew,,,,,,0,14,0,14,0,1,,,,,,,,,,,,,,,,,
293209,2022-09-21_16h52.24.952,vts_reward_expectancy,2022.2.4,Win32,61.08362348,Chrome,1536,864,,,,,0,684,,,,,,,,,,,,,,,,,Y,125,triangle,1,0,,,,,,,,,,,,,,,,switch,number,numSwt,j,0.6045,noRew,,,,,,0,15,0,15,0,1,,,,,,,,,,,,,,,,,
293209,2022-09-21_16h52.24.952,vts_reward_expectancy,2022.2.4,Win32,61.08362348,Chrome,1536,864,,,,,0,684,,,,,,,,,,,,,,,,,Y,146,star,1,0,,,,,,,,,,,,,,,,repeat,number,numRpt,j,0.7481,noRew,,,,,,0,16,0,16,0,1,,,,,,,,,,,,,,,,,
293209,2022-09-21_16h52.24.952,vts_reward_expectancy,2022.2.4,Win32,61.08362348,Chrome,1536,864,,,,,0,684,,,,,,,,,,,,,,,,,U,132,hexagon,1,0,,,,,,,,,,,,,,,,repeat,number,numRpt,j,0.6443,noRew,,,,,,0,17,0,17,0,1,,,,,,,,,,,,,,,,,
293209,2022-09-21_16h52.24.952,vts_reward_expectancy,2022.2.4,Win32,61.08362348,Chrome,1536,864,,,,,0,684,,,,,,,,,,,,,,,,,B,160,hexagon,1,0,,,,,,,,,,,,,,,,switch,letter,lettSwt,d,0.6451,noRew,,,,,,0,18,0,18,0,1,,,,,,,,,,,,,,,,,
293209,2022-09-21_16h52.24.952,vts_reward_expectancy,2022.2.4,Win32,61.08362348,Chrome,1536,864,,,,,0,684,,,,,,,,,,,,,,,,,W,167,triangle,1,0,,,,,,,,,,,,,,,,repeat,letter,lettRpt,f,0.5871,noRew,,,,,,0,19,0,19,0,1,,,,,,,,,,,,,,,,,
293209,2022-09-21_16h52.24.952,vts_reward_expectancy,2022.2.4,Win32,61.08362348,Chrome,1536,864,,,,,0,684,,,,,,,,,,,,,,,,,U,132,star,1,0,,,,,,,,,,,,,,,,repeat,letter,lettRpt,f,0.5878,noRew,,,,,,0,20,0,20,0,1,,,,,,,,,,,,,,,,,
293209,2022-09-21_16h52.24.952,vts_reward_expectancy,2022.2.4,Win32,61.08362348,Chrome,1536,864,,,,,0,684,,,,,,,,,,,,,,,,,B,167,circle,1,0,,,,,,,,,,,,,,,,repeat,letter,lettRpt,d,0.5679,noRew,,,,,,0,21,0,21,0,1,,,,,,,,,,,,,,,,,
293209,2022-09-21_16h52.24.952,vts_reward_expectancy,2022.2.4,Win32,61.08362348,Chrome,1536,864,,,,,0,684,,,,,,,,,,,,,,,,,S,139,hexagon,1,0,,,,,,,,,,,,,,,,switch,number,numSwt,j,0.4518,noRew,,,,,,0,22,0,22,0,1,,,,,,,,,,,,,,,,,
293209,2022-09-21_16h52.24.952,vts_reward_expectancy,2022.2.4,Win32,61.08362348,Chrome,1536,864,,,,,0,684,,,,,,,,,,,,,,,,,D,146,triangle,1,0,,,,,,,,,,,,,,,,repeat,number,numRpt,j,0.6672,noRew,,,,,,0,23,0,23,0,1,,,,,,,,,,,,,,,,,
293209,2022-09-21_16h52.24.952,vts_reward_expectancy,2022.2.4,Win32,61.08362348,Chrome,1536,864,,,,,0,684,,,,,,,,,,,,,,,,,W,160,circle,1,0,,,,,,,,,,,,,,,,repeat,number,numRpt,k,0.5615,noRew,,,,,,0,24,0,24,0,1,,,,,,,,,,,,,,,,,
293209,2022-09-21_16h52.24.952,vts_reward_expectancy,2022.2.4,Win32,61.08362348,Chrome,1536,864,,,,,0,684,,,,,,,,,,,,,,,,,B,181,triangle,1,0,,,,,,,,,,,,,,,,switch,letter,lettSwt,d,0.4691,noRew,,,,,,0,25,0,25,0,1,,,,,,,,,,,,,,,,,
293209,2022-09-21_16h52.24.952,vts_reward_expectancy,2022.2.4,Win32,61.08362348,Chrome,1536,864,,,,,0,684,,,,,,,,,,,,,,,,,D,125,circle,1,0,,,,,,,,,,,,,,,,repeat,letter,lettRpt,d,0.628,noRew,,,,,,0,26,0,26,0,1,,,,,,,,,,,,,,,,,
293209,2022-09-21_16h52.24.952,vts_reward_expectancy,2022.2.4,Win32,61.08362348,Chrome,1536,864,,,,,0,684,,,,,,,,,,,,,,,,,S,132,hexagon,1,0,,,,,,,,,,,,,,,,switch,number,numSwt,j,0.7108,noRew,,,,,,0,27,0,27,0,1,,,,,,,,,,,,,,,,,
293209,2022-09-21_16h52.24.952,vts_reward_expectancy,2022.2.4,Win32,61.08362348,Chrome,1536,864,,,,,0,684,,,,,,,,,,,,,,,,,W,139,triangle,1,0,,,,,,,,,,,,,,,,switch,letter,lettSwt,f,0.5135,noRew,,,,,,0,28,0,28,0,1,,,,,,,,,,,,,,,,,
293209,2022-09-21_16h52.24.952,vts_reward_expectancy,2022.2.4,Win32,61.08362348,Chrome,1536,864,,,,,0,684,,,,,,,,,,,,,,,,,F,146,circle,1,0,,,,,,,,,,,,,,,,switch,number,numSwt,j,0.5441,noRew,,,,,,0,29,0,29,0,1,,,,,,,,,,,,,,,,,
293209,2022-09-21_16h52.24.952,vts_reward_expectancy,2022.2.4,Win32,61.08362348,Chrome,1536,864,,,,,0,684,,,,,,,,,,,,,,,,,S,174,triangle,1,0,,,,,,,,,,,,,,,,repeat,number,numRpt,k,0.5483,noRew,,,,,,0,30,0,30,0,1,,,,,,,,,,,,,,,,,
293209,2022-09-21_16h52.24.952,vts_reward_expectancy,2022.2.4,Win32,61.08362348,Chrome,1536,864,,,,,0,684,,,,,,,,,,,,,,,,,Y,160,star,1,0,,,,,,,,,,,,,,,,repeat,number,numRpt,k,0.579,noRew,,,,,,0,31,0,31,0,1,,,,,,,,,,,,,,,,,
293209,2022-09-21_16h52.24.952,vts_reward_expectancy,2022.2.4,Win32,61.08362348,Chrome,1536,864,,,,,0,684,,,,,,,,,,,,,,,,,W,132,star,1,0,,,,,,,,,,,,,,,,switch,letter,lettSwt,f,0.7038,noRew,,,,,,0,32,0,32,0,1,,,,,,,,,,,,,,,,,
293209,2022-09-21_16h52.24.952,vts_reward_expectancy,2022.2.4,Win32,61.08362348,Chrome,1536,864,,,,,0,684,,,,,,,,,,,,,,,,,U,146,circle,1,0,,,,,,,,,,,,,,,,repeat,letter,lettRpt,f,0.5793,noRew,,,,,,0,33,0,33,0,1,,,,,,,,,,,,,,,,,
293209,2022-09-21_16h52.24.952,vts_reward_expectancy,2022.2.4,Win32,61.08362348,Chrome,1536,864,,,,,0,684,,,,,,,,,,,,,,,,,D,174,hexagon,1,0,,,,,,,,,,,,,,,,repeat,letter,lettRpt,d,0.5379,noRew,,,,,,0,34,0,34,0,1,,,,,,,,,,,,,,,,,
293209,2022-09-21_16h52.24.952,vts_reward_expectancy,2022.2.4,Win32,61.08362348,Chrome,1536,864,,,,,0,684,,,,,,,,,,,,,,,,,Y,160,triangle,1,0,,,,,,,,,,,,,,,,switch,number,numSwt,k,0.4348,noRew,,,,,,0,35,0,35,0,1,,,,,,,,,,,,,,,,,
293209,2022-09-21_16h52.24.952,vts_reward_expectancy,2022.2.4,Win32,61.08362348,Chrome,1536,864,,,,,0,684,,,,,,,,,,,,,,,,,Y,139,star,1,0,,,,,,,,,,,,,,,,repeat,number,numRpt,j,0.3824,noRew,,,,,,0,36,0,36,0,1,,,,,,,,,,,,,,,,,
293209,2022-09-21_16h52.24.952,vts_reward_expectancy,2022.2.4,Win32,61.08362348,Chrome,1536,864,,,,,0,684,,,,,,,,,,,,,,,,,U,160,circle,1,0,,,,,,,,,,,,,,,,repeat,number,numRpt,k,0.5221,noRew,,,,,,0,37,0,37,0,1,,,,,,,,,,,,,,,,,
293209,2022-09-21_16h52.24.952,vts_reward_expectancy,2022.2.4,Win32,61.08362348,Chrome,1536,864,,,,,0,684,,,,,,,,,,,,,,,,,S,125,star,1,0,,,,,,,,,,,,,,,,switch,letter,lettSwt,f,0.5658,noRew,,,,,,0,38,0,38,0,1,,,,,,,,,,,,,,,,,
293209,2022-09-21_16h52.24.952,vts_reward_expectancy,2022.2.4,Win32,61.08362348,Chrome,1536,864,,,,,0,684,,,,,,,,,,,,,,,,,D,146,circle,1,0,,,,,,,,,,,,,,,,repeat,letter,lettRpt,d,0.6048,noRew,,,,,,0,39,0,39,0,1,,,,,,,,,,,,,,,,,
293209,2022-09-21_16h52.24.952,vts_reward_expectancy,2022.2.4,Win32,61.08362348,Chrome,1536,864,,,,,0,684,,,,,,,,,,,,,,,,,B,125,triangle,1,0,,,,,,,,,,,,,,,,switch,number,numSwt,j,0.4785,noRew,,,,,,0,40,0,40,0,1,,,,,,,,,,,,,,,,,
293209,2022-09-21_16h52.24.952,vts_reward_expectancy,2022.2.4,Win32,61.08362348,Chrome,1536,864,,,,,0,684,,,,,,,,,,,,,,,,,H,139,star,1,0,,,,,,,,,,,,,,,,repeat,number,numRpt,j,0.4892,noRew,,,,,,0,41,0,41,0,1,,,,,,,,,,,,,,,,,
293209,2022-09-21_16h52.24.952,vts_reward_expectancy,2022.2.4,Win32,61.08362348,Chrome,1536,864,,,,,0,684,,,,,,,,,,,,,,,,,D,174,triangle,1,0,,,,,,,,,,,,,,,,switch,letter,lettSwt,d,0.5068,noRew,,,,,,0,42,0,42,0,1,,,,,,,,,,,,,,,,,
293209,2022-09-21_16h52.24.952,vts_reward_expectancy,2022.2.4,Win32,61.08362348,Chrome,1536,864,,,,,0,684,,,,,,,,,,,,,,,,,U,167,circle,1,0,,,,,,,,,,,,,,,,repeat,letter,lettRpt,f,0.6483,noRew,,,,,,0,43,0,43,0,1,,,,,,,,,,,,,,,,,
293209,2022-09-21_16h52.24.952,vts_reward_expectancy,2022.2.4,Win32,61.08362348,Chrome,1536,864,,,,,0,684,,,,,,,,,,,,,,,,,F,181,star,1,0,,,,,,,,,,,,,,,,repeat,letter,lettRpt,d,0.7137,noRew,,,,,,0,44,0,44,0,1,,,,,,,,,,,,,,,,,
293209,2022-09-21_16h52.24.952,vts_reward_expectancy,2022.2.4,Win32,61.08362348,Chrome,1536,864,,,,,0,684,,,,,,,,,,,,,,,,,U,160,circle,0,0,,,,,,,,,,,,,,,,switch,number,NA,j,0.8619,noRew,,,,,,0,45,0,45,0,1,,,,,,,,,,,,,,,,,
293209,2022-09-21_16h52.24.952,vts_reward_expectancy,2022.2.4,Win32,61.08362348,Chrome,1536,864,,,,,0,684,,,,,,,,,,,,,,,,,S,167,triangle,1,1,,,,,,,,,,,,,,,,repeat,number,numRpt,k,0.568,noRew,,,,,,0,46,0,46,0,1,,,,,,,,,,,,,,,,,
293209,2022-09-21_16h52.24.952,vts_reward_expectancy,2022.2.4,Win32,61.08362348,Chrome,1536,864,,,,,0,684,,,,,,,,,,,,,,,,,B,174,hexagon,1,0,,,,,,,,,,,,,,,,repeat,number,numRpt,k,0.7106,noRew,,,,,,0,47,0,47,0,1,,,,,,,,,,,,,,,,,
293209,2022-09-21_16h52.24.952,vts_reward_expectancy,2022.2.4,Win32,61.08362348,Chrome,1536,864,,,,,0,684,,,,,,,,,,,,,,,,,Y,146,circle,1,0,,,,,,,,,,,,,,,,repeat,number,numRpt,j,0.6197,noRew,,,,,,0,48,0,48,0,1,,,,,,,,,,,,,,,,,
293209,2022-09-21_16h52.24.952,vts_reward_expectancy,2022.2.4,Win32,61.08362348,Chrome,1536,864,,,,,0,684,,,,,,,,,,,,,,,,,F,167,triangle,1,0,,,,,,,,,,,,,,,,switch,letter,lettSwt,d,0.5473,noRew,,,,,,0,49,0,49,0,1,,,,,,,,,,,,,,,,,
293209,2022-09-21_16h52.24.952,vts_reward_expectancy,2022.2.4,Win32,61.08362348,Chrome,1536,864,,,,,0,684,,,,,,,,,,,,,,,,,W,139,hexagon,1,0,,,,,,,,,,,,,,,,repeat,letter,lettRpt,f,0.6447,noRew,,,,,,0,50,0,50,0,1,,,,,,,,,,,,,,,,,
293209,2022-09-21_16h52.24.952,vts_reward_expectancy,2022.2.4,Win32,61.08362348,Chrome,1536,864,,,,,0,684,,,,,,,,,,,,,,,,,U,174,star,1,0,,,,,,,,,,,,,,,,repeat,letter,lettRpt,f,0.6642,noRew,,,,,,0,51,0,51,0,1,,,,,,,,,,,,,,,,,
293209,2022-09-21_16h52.24.952,vts_reward_expectancy,2022.2.4,Win32,61.08362348,Chrome,1536,864,,,,,0,684,,,,,,,,,,,,,,,,,B,146,hexagon,1,0,,,,,,,,,,,,,,,,switch,number,numSwt,j,0.6818,noRew,,,,,,0,52,0,52,0,1,,,,,,,,,,,,,,,,,
293209,2022-09-21_16h52.24.952,vts_reward_expectancy,2022.2.4,Win32,61.08362348,Chrome,1536,864,,,,,0,684,,,,,,,,,,,,,,,,,D,181,star,1,0,,,,,,,,,,,,,,,,repeat,number,numRpt,k,0.612,noRew,,,,,,0,53,0,53,0,1,,,,,,,,,,,,,,,,,
293209,2022-09-21_16h52.24.952,vts_reward_expectancy,2022.2.4,Win32,61.08362348,Chrome,1536,864,,,,,0,684,,,,,,,,,,,,,,,,,H,132,hexagon,1,0,,,,,,,,,,,,,,,,switch,letter,lettSwt,d,0.7013,noRew,,,,,,0,54,0,54,0,1,,,,,,,,,,,,,,,,,
293209,2022-09-21_16h52.24.952,vts_reward_expectancy,2022.2.4,Win32,61.08362348,Chrome,1536,864,,,,,0,684,,,,,,,,,,,,,,,,,F,160,triangle,1,0,,,,,,,,,,,,,,,,repeat,letter,lettRpt,d,0.4615,noRew,,,,,,0,55,0,55,0,1,,,,,,,,,,,,,,,,,
293209,2022-09-21_16h52.24.952,vts_reward_expectancy,2022.2.4,Win32,61.08362348,Chrome,1536,864,,,,,0,684,,,,,,,,,,,,,,,,,U,181,star,1,0,,,,,,,,,,,,,,,,repeat,letter,lettRpt,f,0.5108,noRew,,,,,,0,56,0,56,0,1,,,,,,,,,,,,,,,,,
293209,2022-09-21_16h52.24.952,vts_reward_expectancy,2022.2.4,Win32,61.08362348,Chrome,1536,864,,,,,0,684,,,,,,,,,,,,,,,,,H,167,hexagon,1,0,,,,,,,,,,,,,,,,switch,number,numSwt,k,0.5119,noRew,,,,,,0,57,0,57,0,1,,,,,,,,,,,,,,,,,
293209,2022-09-21_16h52.24.952,vts_reward_expectancy,2022.2.4,Win32,61.08362348,Chrome,1536,864,,,,,0,684,,,,,,,,,,,,,,,,,W,139,circle,1,0,,,,,,,,,,,,,,,,repeat,number,numRpt,j,0.5117,noRew,,,,,,0,58,0,58,0,1,,,,,,,,,,,,,,,,,
293209,2022-09-21_16h52.24.952,vts_reward_expectancy,2022.2.4,Win32,61.08362348,Chrome,1536,864,,,,,0,684,,,,,,,,,,,,,,,,,Y,160,star,1,0,,,,,,,,,,,,,,,,repeat,number,numRpt,k,1.2867,noRew,,,,,,0,59,0,59,0,1,,,,,,,,,,,,,,,,,
293209,2022-09-21_16h52.24.952,vts_reward_expectancy,2022.2.4,Win32,61.08362348,Chrome,1536,864,,,,,0,684,,,,,,,,,,,,,,,,,Y,181,triangle,1,0,,,,,,,,,,,,,,,,repeat,number,numRpt,k,0.6148,noRew,,,,,,0,60,0,60,0,1,,,,,,,,,,,,,,,,,
293209,2022-09-21_16h52.24.952,vts_reward_expectancy,2022.2.4,Win32,61.08362348,Chrome,1536,864,,,,,0,684,,,,,,,,,,,,,,,,,B,160,circle,1,0,,,,,,,,,,,,,,,,switch,letter,lettSwt,d,0.5186,noRew,,,,,,0,61,0,61,0,1,,,,,,,,,,,,,,,,,
293209,2022-09-21_16h52.24.952,vts_reward_expectancy,2022.2.4,Win32,61.08362348,Chrome,1536,864,,,,,0,684,,,,,,,,,,,,,,,,,H,125,star,1,0,,,,,,,,,,,,,,,,repeat,letter,lettRpt,d,0.7046,noRew,,,,,,0,62,0,62,0,1,,,,,,,,,,,,,,,,,
293209,2022-09-21_16h52.24.952,vts_reward_expectancy,2022.2.4,Win32,61.08362348,Chrome,1536,864,,,,,0,684,,,,,,,,,,,,,,,,,F,139,hexagon,1,0,,,,,,,,,,,,,,,,repeat,letter,lettRpt,d,0.7202,noRew,,,,,,0,63,0,63,0,1,,,,,,,,,,,,,,,,,
293209,2022-09-21_16h52.24.952,vts_reward_expectancy,2022.2.4,Win32,61.08362348,Chrome,1536,864,,,,,,,,,,,,,,,,,,,,,,,,,,,,,,,,,,,,,,,,,,,,,,,,,,,,,,,,,,,,,,,,,,,,,,,,,,,,
293209,2022-09-21_16h52.24.952,vts_reward_expectancy,2022.2.4,Win32,61.08362348,Chrome,1536,864,,,,,10,694,,,,,,,,,,,,,,,,,B,132,circle,1,0,,,,,,,,,,,,,,,,repeat,letter,lettRpt,d,0.4518,Hi,,,,,,0,,,,,,space,3.4229,low,0,0,0,0,1,,,,,,,,,
293209,2022-09-21_16h52.24.952,vts_reward_expectancy,2022.2.4,Win32,61.08362348,Chrome,1536,864,,,,,1,695,,,,,,,,,,,,,,,,,S,181,triangle,1,0,,,,,,,,,,,,,,,,repeat,letter,lettRpt,f,0.5517,Lo,,,,,,0,,,,,,,,low,1,0,1,0,1,,,,,,,,,
293209,2022-09-21_16h52.24.952,vts_reward_expectancy,2022.2.4,Win32,61.08362348,Chrome,1536,864,,,,,10,705,,,,,,,,,,,,,,,,,H,174,circle,1,0,,,,,,,,,,,,,,,,repeat,letter,lettRpt,d,0.4719,Hi,,,,,,0,,,,,,,,low,2,0,2,0,1,,,,,,,,,
293209,2022-09-21_16h52.24.952,vts_reward_expectancy,2022.2.4,Win32,61.08362348,Chrome,1536,864,,,,,1,706,,,,,,,,,,,,,,,,,Y,146,triangle,1,0,,,,,,,,,,,,,,,,repeat,letter,lettRpt,f,0.5803,Lo,,,,,,0,,,,,,,,low,3,0,3,0,1,,,,,,,,,
293209,2022-09-21_16h52.24.952,vts_reward_expectancy,2022.2.4,Win32,61.08362348,Chrome,1536,864,,,,,1,707,,,,,,,,,,,,,,,,,D,125,triangle,1,0,,,,,,,,,,,,,,,,switch,number,numSwt,j,0.5104,Lo,,,,,,0,,,,,,,,low,4,0,4,0,1,,,,,,,,,
293209,2022-09-21_16h52.24.952,vts_reward_expectancy,2022.2.4,Win32,61.08362348,Chrome,1536,864,,,,,0,707,,,,,,,,,,,,,,,,,W,160,circle,1,0,,,,,,,,,,,,,,,,repeat,number,numRpt,k,1.6112,Hi,,,,,,0,,,,,,,,low,5,0,5,0,1,,,,,,,,,
293209,2022-09-21_16h52.24.952,vts_reward_expectancy,2022.2.4,Win32,61.08362348,Chrome,1536,864,,,,,1,708,,,,,,,,,,,,,,,,,U,139,circle,1,0,,,,,,,,,,,,,,,,switch,letter,lettSwt,f,0.4459,Hi,,,,,,0,,,,,,,,low,6,0,6,0,1,,,,,,,,,
293209,2022-09-21_16h52.24.952,vts_reward_expectancy,2022.2.4,Win32,61.08362348,Chrome,1536,864,,,,,1,709,,,,,,,,,,,,,,,,,F,167,triangle,1,0,,,,,,,,,,,,,,,,repeat,letter,lettRpt,d,0.688,Lo,,,,,,0,,,,,,,,low,7,0,7,0,1,,,,,,,,,
293209,2022-09-21_16h52.24.952,vts_reward_expectancy,2022.2.4,Win32,61.08362348,Chrome,1536,864,,,,,1,710,,,,,,,,,,,,,,,,,B,132,triangle,1,0,,,,,,,,,,,,,,,,repeat,letter,lettRpt,d,0.2954,Lo,,,,,,0,,,,,,,,low,8,0,8,0,1,,,,,,,,,
293209,2022-09-21_16h52.24.952,vts_reward_expectancy,2022.2.4,Win32,61.08362348,Chrome,1536,864,,,,,1,711,,,,,,,,,,,,,,,,,S,181,circle,1,0,,,,,,,,,,,,,,,,repeat,letter,lettRpt,f,0.3614,Hi,,,,,,0,,,,,,,,low,9,0,9,0,1,,,,,,,,,
293209,2022-09-21_16h52.24.952,vts_reward_expectancy,2022.2.4,Win32,61.08362348,Chrome,1536,864,,,,,10,721,,,,,,,,,,,,,,,,,H,174,circle,1,0,,,,,,,,,,,,,,,,repeat,letter,lettRpt,d,0.5527,Hi,,,,,,0,,,,,,,,low,10,0,10,0,1,,,,,,,,,
293209,2022-09-21_16h52.24.952,vts_reward_expectancy,2022.2.4,Win32,61.08362348,Chrome,1536,864,,,,,0,721,,,,,,,,,,,,,,,,,Y,146,triangle,0,0,,,,,,,,,,,,,,,,repeat,letter,NA,d,0.3386,Hi,,,,,,0,,,,,,,,low,11,0,11,0,1,,,,,,,,,
293209,2022-09-21_16h52.24.952,vts_reward_expectancy,2022.2.4,Win32,61.08362348,Chrome,1536,864,,,,,10,731,,,,,,,,,,,,,,,,,D,125,triangle,1,1,,,,,,,,,,,,,,,,repeat,letter,lettRpt,d,0.7638,Lo,,,,,,0,,,,,,,,low,12,0,12,0,1,,,,,,,,,
293209,2022-09-21_16h52.24.952,vts_reward_expectancy,2022.2.4,Win32,61.08362348,Chrome,1536,864,,,,,1,732,,,,,,,,,,,,,,,,,W,160,circle,1,0,,,,,,,,,,,,,,,,switch,number,numSwt,k,0.4488,Hi,,,,,,0,,,,,,,,low,13,0,13,0,1,,,,,,,,,
293209,2022-09-21_16h52.24.952,vts_reward_expectancy,2022.2.4,Win32,61.08362348,Chrome,1536,864,,,,,1,733,,,,,,,,,,,,,,,,,U,139,triangle,1,0,,,,,,,,,,,,,,,,repeat,number,numRpt,j,0.6177,Lo,,,,,,0,,,,,,,,low,14,0,14,0,1,,,,,,,,,
293209,2022-09-21_16h52.24.952,vts_reward_expectancy,2022.2.4,Win32,61.08362348,Chrome,1536,864,,,,,0,733,,,,,,,,,,,,,,,,,F,167,circle,1,0,,,,,,,,,,,,,,,,repeat,number,numRpt,k,0.5498,Hi,,,,,,0,,,,,,,,low,15,0,15,0,1,,,,,,,,,
293209,2022-09-21_16h52.24.952,vts_reward_expectancy,2022.2.4,Win32,61.08362348,Chrome,1536,864,,,,,1,734,,,,,,,,,,,,,,,,,W,160,circle,1,0,,,,,,,,,,,,,,,,switch,letter,lettSwt,f,0.4609,Hi,,,,,,0,,,,,,,,low,16,0,16,0,1,,,,,,,,,
293209,2022-09-21_16h52.24.952,vts_reward_expectancy,2022.2.4,Win32,61.08362348,Chrome,1536,864,,,,,1,735,,,,,,,,,,,,,,,,,D,181,triangle,1,0,,,,,,,,,,,,,,,,repeat,letter,lettRpt,d,0.3344,Lo,,,,,,0,,,,,,,,low,17,0,17,0,1,,,,,,,,,
293209,2022-09-21_16h52.24.952,vts_reward_expectancy,2022.2.4,Win32,61.08362348,Chrome,1536,864,,,,,10,745,,,,,,,,,,,,,,,,,B,174,circle,1,0,,,,,,,,,,,,,,,,repeat,letter,lettRpt,d,0.4242,Hi,,,,,,0,,,,,,,,low,18,0,18,0,1,,,,,,,,,
293209,2022-09-21_16h52.24.952,vts_reward_expectancy,2022.2.4,Win32,61.08362348,Chrome,1536,864,,,,,0,745,,,,,,,,,,,,,,,,,F,132,triangle,0,0,,,,,,,,,,,,,,,,repeat,letter,NA,f,0.4119,Hi,,,,,,0,,,,,,,,low,19,0,19,0,1,,,,,,,,,
293209,2022-09-21_16h52.24.952,vts_reward_expectancy,2022.2.4,Win32,61.08362348,Chrome,1536,864,,,,,0,745,,,,,,,,,,,,,,,,,Y,125,triangle,0,1,,,,,,,,,,,,,,,,repeat,letter,NA,d,0.5436,Hi,,,,,,0,,,,,,,,low,20,0,20,0,1,,,,,,,,,
293209,2022-09-21_16h52.24.952,vts_reward_expectancy,2022.2.4,Win32,61.08362348,Chrome,1536,864,,,,,0,745,,,,,,,,,,,,,,,,,U,167,circle,1,1,,,,,,,,,,,,,,,,repeat,letter,lettRpt,f,0.6263,Hi,,,,,,0,,,,,,,,low,21,0,21,0,1,,,,,,,,,
293209,2022-09-21_16h52.24.952,vts_reward_expectancy,2022.2.4,Win32,61.08362348,Chrome,1536,864,,,,,0,745,,,,,,,,,,,,,,,,,H,139,circle,0,0,,,,,,,,,,,,,,,,repeat,letter,NA,f,0.4766,Hi,,,,,,0,,,,,,,,low,22,0,22,0,1,,,,,,,,,
293209,2022-09-21_16h52.24.952,vts_reward_expectancy,2022.2.4,Win32,61.08362348,Chrome,1536,864,,,,,1,746,,,,,,,,,,,,,,,,,S,146,triangle,1,1,,,,,,,,,,,,,,,,repeat,letter,lettRpt,f,0.3614,Lo,,,,,,0,,,,,,,,low,23,0,23,0,1,,,,,,,,,
293209,2022-09-21_16h52.24.952,vts_reward_expectancy,2022.2.4,Win32,61.08362348,Chrome,1536,864,,,,,0,746,,,,,,,,,,,,,,,,,H,181,circle,0,0,,,,,,,,,,,,,,,,repeat,letter,NA,f,0.4336,Lo,,,,,,0,,,,,,,,low,24,0,24,0,1,,,,,,,,,
293209,2022-09-21_16h52.24.952,vts_reward_expectancy,2022.2.4,Win32,61.08362348,Chrome,1536,864,,,,,10,756,,,,,,,,,,,,,,,,,Y,174,triangle,1,1,,,,,,,,,,,,,,,,repeat,letter,lettRpt,f,0.4621,Lo,,,,,,0,,,,,,,,low,25,0,25,0,1,,,,,,,,,
293209,2022-09-21_16h52.24.952,vts_reward_expectancy,2022.2.4,Win32,61.08362348,Chrome,1536,864,,,,,10,766,,,,,,,,,,,,,,,,,B,167,circle,1,0,,,,,,,,,,,,,,,,repeat,letter,lettRpt,d,0.3866,Hi,,,,,,0,,,,,,,,low,26,0,26,0,1,,,,,,,,,
293209,2022-09-21_16h52.24.952,vts_reward_expectancy,2022.2.4,Win32,61.08362348,Chrome,1536,864,,,,,10,776,,,,,,,,,,,,,,,,,W,146,triangle,1,0,,,,,,,,,,,,,,,,repeat,letter,lettRpt,f,0.4171,Lo,,,,,,0,,,,,,,,low,27,0,27,0,1,,,,,,,,,
293209,2022-09-21_16h52.24.952,vts_reward_expectancy,2022.2.4,Win32,61.08362348,Chrome,1536,864,,,,,10,786,,,,,,,,,,,,,,,,,F,160,circle,1,0,,,,,,,,,,,,,,,,repeat,letter,lettRpt,d,0.4238,Hi,,,,,,0,,,,,,,,low,28,0,28,0,1,,,,,,,,,
293209,2022-09-21_16h52.24.952,vts_reward_expectancy,2022.2.4,Win32,61.08362348,Chrome,1536,864,,,,,10,796,,,,,,,,,,,,,,,,,D,139,triangle,1,0,,,,,,,,,,,,,,,,repeat,letter,lettRpt,d,0.4175,Lo,,,,,,0,,,,,,,,low,29,0,29,0,1,,,,,,,,,
293209,2022-09-21_16h52.24.952,vts_reward_expectancy,2022.2.4,Win32,61.08362348,Chrome,1536,864,,,,,1,797,,,,,,,,,,,,,,,,,S,125,circle,1,0,,,,,,,,,,,,,,,,repeat,letter,lettRpt,f,0.3671,Hi,,,,,,0,,,,,,,,low,30,0,30,0,1,,,,,,,,,
293209,2022-09-21_16h52.24.952,vts_reward_expectancy,2022.2.4,Win32,61.08362348,Chrome,1536,864,,,,,1,798,,,,,,,,,,,,,,,,,U,132,triangle,1,0,,,,,,,,,,,,,,,,repeat,letter,lettRpt,f,0.5047,Lo,,,,,,0,,,,,,,,low,31,0,31,0,1,,,,,,,,,
293209,2022-09-21_16h52.24.952,vts_reward_expectancy,2022.2.4,Win32,61.08362348,Chrome,1536,864,,,,,0,798,,,,,,,,,,,,,,,,,D,181,hexagon,1,0,,,,,,,,,,,,,,,,repeat,letter,lettRpt,d,0.4531,Hi,,,,,,1,,,,,,space,3.5339,high,0,0,0,0,1,,,,,,,,,
293209,2022-09-21_16h52.24.952,vts_reward_expectancy,2022.2.4,Win32,61.08362348,Chrome,1536,864,,,,,1,799,,,,,,,,,,,,,,,,,F,132,star,1,0,,,,,,,,,,,,,,,,repeat,letter,lettRpt,d,0.3399,Lo,,,,,,1,,,,,,,,high,1,0,1,0,1,,,,,,,,,
293209,2022-09-21_16h52.24.952,vts_reward_expectancy,2022.2.4,Win32,61.08362348,Chrome,1536,864,,,,,0,799,,,,,,,,,,,,,,,,,U,160,hexagon,0,0,,,,,,,,,,,,,,,,repeat,letter,NA,d,0.2769,Lo,,,,,,1,,,,,,,,high,2,0,2,0,1,,,,,,,,,
293209,2022-09-21_16h52.24.952,vts_reward_expectancy,2022.2.4,Win32,61.08362348,Chrome,1536,864,,,,,0,799,,,,,,,,,,,,,,,,,S,167,star,0,1,,,,,,,,,,,,,,,,repeat,letter,NA,d,0.3527,Lo,,,,,,1,,,,,,,,high,3,0,3,0,1,,,,,,,,,
293209,2022-09-21_16h52.24.952,vts_reward_expectancy,2022.2.4,Win32,61.08362348,Chrome,1536,864,,,,,10,809,,,,,,,,,,,,,,,,,H,139,hexagon,1,1,,,,,,,,,,,,,,,,repeat,letter,lettRpt,d,0.4088,Hi,,,,,,1,,,,,,,,high,4,0,4,0,1,,,,,,,,,
293209,2022-09-21_16h52.24.952,vts_reward_expectancy,2022.2.4,Win32,61.08362348,Chrome,1536,864,,,,,1,810,,,,,,,,,,,,,,,,,Y,174,star,1,0,,,,,,,,,,,,,,,,repeat,letter,lettRpt,f,0.3747,Lo,,,,,,1,,,,,,,,high,5,0,5,0,1,,,,,,,,,
293209,2022-09-21_16h52.24.952,vts_reward_expectancy,2022.2.4,Win32,61.08362348,Chrome,1536,864,,,,,1,811,,,,,,,,,,,,,,,,,W,146,star,1,0,,,,,,,,,,,,,,,,repeat,letter,lettRpt,f,0.353,Lo,,,,,,1,,,,,,,,high,6,0,6,0,1,,,,,,,,,
293209,2022-09-21_16h52.24.952,vts_reward_expectancy,2022.2.4,Win32,61.08362348,Chrome,1536,864,,,,,10,821,,,,,,,,,,,,,,,,,B,125,hexagon,1,0,,,,,,,,,,,,,,,,repeat,letter,lettRpt,d,0.3686,Hi,,,,,,1,,,,,,,,high,7,0,7,0,1,,,,,,,,,
293209,2022-09-21_16h52.24.952,vts_reward_expectancy,2022.2.4,Win32,61.08362348,Chrome,1536,864,,,,,0,821,,,,,,,,,,,,,,,,,D,181,hexagon,0,0,,,,,,,,,,,,,,,,repeat,letter,NA,f,0.3344,Hi,,,,,,1,,,,,,,,high,8,0,8,0,1,,,,,,,,,
293209,2022-09-21_16h52.24.952,vts_reward_expectancy,2022.2.4,Win32,61.08362348,Chrome,1536,864,,,,,1,822,,,,,,,,,,,,,,,,,F,132,star,1,1,,,,,,,,,,,,,,,,repeat,letter,lettRpt,d,0.3929,Lo,,,,,,1,,,,,,,,high,9,0,9,0,1,,,,,,,,,
293209,2022-09-21_16h52.24.952,vts_reward_expectancy,2022.2.4,Win32,61.08362348,Chrome,1536,864,,,,,1,823,,,,,,,,,,,,,,,,,U,160,star,1,0,,,,,,,,,,,,,,,,repeat,letter,lettRpt,f,0.3677,Lo,,,,,,1,,,,,,,,high,10,0,10,0,1,,,,,,,,,
293209,2022-09-21_16h52.24.952,vts_reward_expectancy,2022.2.4,Win32,61.08362348,Chrome,1536,864,,,,,0,823,,,,,,,,,,,,,,,,,S,167,hexagon,0,0,,,,,,,,,,,,,,,,repeat,letter,NA,d,0.343,Lo,,,,,,1,,,,,,,,high,11,0,11,0,1,,,,,,,,,
293209,2022-09-21_16h52.24.952,vts_reward_expectancy,2022.2.4,Win32,61.08362348,Chrome,1536,864,,,,,0,823,,,,,,,,,,,,,,,,,H,139,hexagon,0,1,,,,,,,,,,,,,,,,repeat,letter,NA,f,0.3718,Lo,,,,,,1,,,,,,,,high,12,0,12,0,1,,,,,,,,,
293209,2022-09-21_16h52.24.952,vts_reward_expectancy,2022.2.4,Win32,61.08362348,Chrome,1536,864,,,,,1,824,,,,,,,,,,,,,,,,,Y,174,star,1,1,,,,,,,,,,,,,,,,repeat,letter,lettRpt,f,0.4507,Lo,,,,,,1,,,,,,,,high,13,0,13,0,1,,,,,,,,,
293209,2022-09-21_16h52.24.952,vts_reward_expectancy,2022.2.4,Win32,61.08362348,Chrome,1536,864,,,,,1,825,,,,,,,,,,,,,,,,,W,146,star,1,0,,,,,,,,,,,,,,,,repeat,letter,lettRpt,f,0.4247,Lo,,,,,,1,,,,,,,,high,14,0,14,0,1,,,,,,,,,
293209,2022-09-21_16h52.24.952,vts_reward_expectancy,2022.2.4,Win32,61.08362348,Chrome,1536,864,,,,,1,826,,,,,,,,,,,,,,,,,B,125,hexagon,1,0,,,,,,,,,,,,,,,,repeat,letter,lettRpt,d,0.334,Hi,,,,,,1,,,,,,,,high,15,0,15,0,1,,,,,,,,,
293209,2022-09-21_16h52.24.952,vts_reward_expectancy,2022.2.4,Win32,61.08362348,Chrome,1536,864,,,,,10,836,,,,,,,,,,,,,,,,,F,125,hexagon,1,0,,,,,,,,,,,,,,,,repeat,letter,lettRpt,d,0.3681,Hi,,,,,,1,,,,,,,,high,16,0,16,0,1,,,,,,,,,
293209,2022-09-21_16h52.24.952,vts_reward_expectancy,2022.2.4,Win32,61.08362348,Chrome,1536,864,,,,,1,837,,,,,,,,,,,,,,,,,W,181,star,1,0,,,,,,,,,,,,,,,,repeat,letter,lettRpt,f,0.5046,Lo,,,,,,1,,,,,,,,high,17,0,17,0,1,,,,,,,,,
293209,2022-09-21_16h52.24.952,vts_reward_expectancy,2022.2.4,Win32,61.08362348,Chrome,1536,864,,,,,10,847,,,,,,,,,,,,,,,,,Y,132,hexagon,1,0,,,,,,,,,,,,,,,,repeat,letter,lettRpt,f,0.309,Hi,,,,,,1,,,,,,,,high,18,0,18,0,1,,,,,,,,,
293209,2022-09-21_16h52.24.952,vts_reward_expectancy,2022.2.4,Win32,61.08362348,Chrome,1536,864,,,,,10,857,,,,,,,,,,,,,,,,,D,139,star,1,0,,,,,,,,,,,,,,,,repeat,letter,lettRpt,d,0.3228,Lo,,,,,,1,,,,,,,,high,19,0,19,0,1,,,,,,,,,
293209,2022-09-21_16h52.24.952,vts_reward_expectancy,2022.2.4,Win32,61.08362348,Chrome,1536,864,,,,,1,858,,,,,,,,,,,,,,,,,S,167,star,1,0,,,,,,,,,,,,,,,,repeat,letter,lettRpt,f,0.2859,Lo,,,,,,1,,,,,,,,high,20,0,20,0,1,,,,,,,,,
293209,2022-09-21_16h52.24.952,vts_reward_expectancy,2022.2.4,Win32,61.08362348,Chrome,1536,864,,,,,10,868,,,,,,,,,,,,,,,,,U,174,hexagon,1,0,,,,,,,,,,,,,,,,repeat,letter,lettRpt,f,0.3679,Hi,,,,,,1,,,,,,,,high,21,0,21,0,1,,,,,,,,,
293209,2022-09-21_16h52.24.952,vts_reward_expectancy,2022.2.4,Win32,61.08362348,Chrome,1536,864,,,,,1,869,,,,,,,,,,,,,,,,,B,160,hexagon,1,0,,,,,,,,,,,,,,,,repeat,letter,lettRpt,d,0.3756,Hi,,,,,,1,,,,,,,,high,22,0,22,0,1,,,,,,,,,
293209,2022-09-21_16h52.24.952,vts_reward_expectancy,2022.2.4,Win32,61.08362348,Chrome,1536,864,,,,,1,870,,,,,,,,,,,,,,,,,H,146,star,1,0,,,,,,,,,,,,,,,,repeat,letter,lettRpt,d,0.3888,Lo,,,,,,1,,,,,,,,high,23,0,23,0,1,,,,,,,,,
293209,2022-09-21_16h52.24.952,vts_reward_expectancy,2022.2.4,Win32,61.08362348,Chrome,1536,864,,,,,0,870,,,,,,,,,,,,,,,,,D,132,star,0,0,,,,,,,,,,,,,,,,repeat,letter,NA,f,0.4675,Lo,,,,,,1,,,,,,,,high,24,0,24,0,1,,,,,,,,,
293209,2022-09-21_16h52.24.952,vts_reward_expectancy,2022.2.4,Win32,61.08362348,Chrome,1536,864,,,,,0,870,,,,,,,,,,,,,,,,,Y,160,hexagon,1,1,,,,,,,,,,,,,,,,repeat,letter,lettRpt,f,0.4175,Hi,,,,,,1,,,,,,,,high,25,0,25,0,1,,,,,,,,,
293209,2022-09-21_16h52.24.952,vts_reward_expectancy,2022.2.4,Win32,61.08362348,Chrome,1536,864,,,,,0,870,,,,,,,,,,,,,,,,,S,174,hexagon,0,0,,,,,,,,,,,,,,,,repeat,letter,NA,d,0.3172,Hi,,,,,,1,,,,,,,,high,26,0,26,0,1,,,,,,,,,
293209,2022-09-21_16h52.24.952,vts_reward_expectancy,2022.2.4,Win32,61.08362348,Chrome,1536,864,,,,,0,870,,,,,,,,,,,,,,,,,F,167,star,0,1,,,,,,,,,,,,,,,,repeat,letter,NA,f,0.3093,Hi,,,,,,1,,,,,,,,high,27,0,27,0,1,,,,,,,,,
293209,2022-09-21_16h52.24.952,vts_reward_expectancy,2022.2.4,Win32,61.08362348,Chrome,1536,864,,,,,1,871,,,,,,,,,,,,,,,,,U,146,star,1,1,,,,,,,,,,,,,,,,repeat,letter,lettRpt,f,0.3193,Lo,,,,,,1,,,,,,,,high,28,0,28,0,1,,,,,,,,,
293209,2022-09-21_16h52.24.952,vts_reward_expectancy,2022.2.4,Win32,61.08362348,Chrome,1536,864,,,,,10,881,,,,,,,,,,,,,,,,,B,181,hexagon,1,0,,,,,,,,,,,,,,,,repeat,letter,lettRpt,d,0.3529,Hi,,,,,,1,,,,,,,,high,29,0,29,0,1,,,,,,,,,
293209,2022-09-21_16h52.24.952,vts_reward_expectancy,2022.2.4,Win32,61.08362348,Chrome,1536,864,,,,,10,891,,,,,,,,,,,,,,,,,W,139,hexagon,1,0,,,,,,,,,,,,,,,,repeat,letter,lettRpt,f,0.35,Hi,,,,,,1,,,,,,,,high,30,0,30,0,1,,,,,,,,,
293209,2022-09-21_16h52.24.952,vts_reward_expectancy,2022.2.4,Win32,61.08362348,Chrome,1536,864,,,,,0,891,,,,,,,,,,,,,,,,,H,125,star,0,0,,,,,,,,,,,,,,,,repeat,letter,NA,f,0.3183,Hi,,,,,,1,,,,,,,,high,31,0,31,0,1,,,,,,,,,
293209,2022-09-21_16h52.24.952,vts_reward_expectancy,2022.2.4,Win32,61.08362348,Chrome,1536,864,,,,,0,891,,,,,,,,,,,,,,,,,U,146,circle,1,1,,,,,,,,,,,,,,,,repeat,letter,lettRpt,f,0.4009,Hi,,,,,,2,,,,,,space,1.8495,low,0,0,0,0,1,,,,,,,,,
293209,2022-09-21_16h52.24.952,vts_reward_expectancy,2022.2.4,Win32,61.08362348,Chrome,1536,864,,,,,10,901,,,,,,,,,,,,,,,,,F,167,triangle,1,0,,,,,,,,,,,,,,,,repeat,letter,lettRpt,d,0.2343,Lo,,,,,,2,,,,,,,,low,1,0,1,0,1,,,,,,,,,
293209,2022-09-21_16h52.24.952,vts_reward_expectancy,2022.2.4,Win32,61.08362348,Chrome,1536,864,,,,,10,911,,,,,,,,,,,,,,,,,Y,125,circle,1,0,,,,,,,,,,,,,,,,repeat,letter,lettRpt,f,0.2546,Hi,,,,,,2,,,,,,,,low,2,0,2,0,1,,,,,,,,,
293209,2022-09-21_16h52.24.952,vts_reward_expectancy,2022.2.4,Win32,61.08362348,Chrome,1536,864,,,,,1,912,,,,,,,,,,,,,,,,,D,181,triangle,1,0,,,,,,,,,,,,,,,,repeat,letter,lettRpt,d,0.3444,Lo,,,,,,2,,,,,,,,low,3,0,3,0,1,,,,,,,,,
293209,2022-09-21_16h52.24.952,vts_reward_expectancy,2022.2.4,Win32,61.08362348,Chrome,1536,864,,,,,1,913,,,,,,,,,,,,,,,,,S,139,triangle,1,0,,,,,,,,,,,,,,,,repeat,letter,lettRpt,f,0.3052,Lo,,,,,,2,,,,,,,,low,4,0,4,0,1,,,,,,,,,
293209,2022-09-21_16h52.24.952,vts_reward_expectancy,2022.2.4,Win32,61.08362348,Chrome,1536,864,,,,,10,923,,,,,,,,,,,,,,,,,B,174,circle,1,0,,,,,,,,,,,,,,,,repeat,letter,lettRpt,d,0.2855,Hi,,,,,,2,,,,,,,,low,5,0,5,0,1,,,,,,,,,
293209,2022-09-21_16h52.24.952,vts_reward_expectancy,2022.2.4,Win32,61.08362348,Chrome,1536,864,,,,,1,924,,,,,,,,,,,,,,,,,W,132,circle,1,0,,,,,,,,,,,,,,,,repeat,letter,lettRpt,f,0.3048,Hi,,,,,,2,,,,,,,,low,6,0,6,0,1,,,,,,,,,
293209,2022-09-21_16h52.24.952,vts_reward_expectancy,2022.2.4,Win32,61.08362348,Chrome,1536,864,,,,,1,925,,,,,,,,,,,,,,,,,H,160,triangle,1,0,,,,,,,,,,,,,,,,repeat,letter,lettRpt,d,0.2603,Lo,,,,,,2,,,,,,,,low,7,0,7,0,1,,,,,,,,,
293209,2022-09-21_16h52.24.952,vts_reward_expectancy,2022.2.4,Win32,61.08362348,Chrome,1536,864,,,,,1,926,,,,,,,,,,,,,,,,,U,146,triangle,1,0,,,,,,,,,,,,,,,,repeat,letter,lettRpt,f,0.2547,Lo,,,,,,2,,,,,,,,low,8,0,8,0,1,,,,,,,,,
293209,2022-09-21_16h52.24.952,vts_reward_expectancy,2022.2.4,Win32,61.08362348,Chrome,1536,864,,,,,10,936,,,,,,,,,,,,,,,,,F,167,circle,1,0,,,,,,,,,,,,,,,,repeat,letter,lettRpt,d,0.3012,Hi,,,,,,2,,,,,,,,low,9,0,9,0,1,,,,,,,,,
293209,2022-09-21_16h52.24.952,vts_reward_expectancy,2022.2.4,Win32,61.08362348,Chrome,1536,864,,,,,0,936,,,,,,,,,,,,,,,,,Y,125,circle,0,0,,,,,,,,,,,,,,,,repeat,letter,NA,d,0.361,Hi,,,,,,2,,,,,,,,low,10,0,10,0,1,,,,,,,,,
293209,2022-09-21_16h52.24.952,vts_reward_expectancy,2022.2.4,Win32,61.08362348,Chrome,1536,864,,,,,10,946,,,,,,,,,,,,,,,,,D,181,triangle,1,1,,,,,,,,,,,,,,,,repeat,letter,lettRpt,d,0.3879,Lo,,,,,,2,,,,,,,,low,11,0,11,0,1,,,,,,,,,
293209,2022-09-21_16h52.24.952,vts_reward_expectancy,2022.2.4,Win32,61.08362348,Chrome,1536,864,,,,,1,947,,,,,,,,,,,,,,,,,S,139,triangle,1,0,,,,,,,,,,,,,,,,repeat,letter,lettRpt,f,0.4087,Lo,,,,,,2,,,,,,,,low,12,0,12,0,1,,,,,,,,,
293209,2022-09-21_16h52.24.952,vts_reward_expectancy,2022.2.4,Win32,61.08362348,Chrome,1536,864,,,,,10,957,,,,,,,,,,,,,,,,,B,174,circle,1,0,,,,,,,,,,,,,,,,repeat,letter,lettRpt,d,0.3003,Hi,,,,,,2,,,,,,,,low,13,0,13,0,1,,,,,,,,,
293209,2022-09-21_16h52.24.952,vts_reward_expectancy,2022.2.4,Win32,61.08362348,Chrome,1536,864,,,,,1,958,,,,,,,,,,,,,,,,,W,132,triangle,1,0,,,,,,,,,,,,,,,,repeat,letter,lettRpt,f,0.3343,Lo,,,,,,2,,,,,,,,low,14,0,14,0,1,,,,,,,,,
293209,2022-09-21_16h52.24.952,vts_reward_expectancy,2022.2.4,Win32,61.08362348,Chrome,1536,864,,,,,0,958,,,,,,,,,,,,,,,,,H,160,circle,0,0,,,,,,,,,,,,,,,,repeat,letter,NA,f,0.3914,Lo,,,,,,2,,,,,,,,low,15,0,15,0,1,,,,,,,,,
293209,2022-09-21_16h52.24.952,vts_reward_expectancy,2022.2.4,Win32,61.08362348,Chrome,1536,864,,,,,10,968,,,,,,,,,,,,,,,,,U,146,triangle,1,1,,,,,,,,,,,,,,,,repeat,letter,lettRpt,f,0.4009,Lo,,,,,,2,,,,,,,,low,16,0,16,0,1,,,,,,,,,
293209,2022-09-21_16h52.24.952,vts_reward_expectancy,2022.2.4,Win32,61.08362348,Chrome,1536,864,,,,,10,978,,,,,,,,,,,,,,,,,D,139,circle,1,0,,,,,,,,,,,,,,,,repeat,letter,lettRpt,d,0.2759,Hi,,,,,,2,,,,,,,,low,17,0,17,0,1,,,,,,,,,
293209,2022-09-21_16h52.24.952,vts_reward_expectancy,2022.2.4,Win32,61.08362348,Chrome,1536,864,,,,,0,978,,,,,,,,,,,,,,,,,H,132,circle,0,0,,,,,,,,,,,,,,,,repeat,letter,NA,f,0.3336,Hi,,,,,,2,,,,,,,,low,18,0,18,0,1,,,,,,,,,
293209,2022-09-21_16h52.24.952,vts_reward_expectancy,2022.2.4,Win32,61.08362348,Chrome,1536,864,,,,,1,979,,,,,,,,,,,,,,,,,B,181,triangle,1,1,,,,,,,,,,,,,,,,repeat,letter,lettRpt,d,0.3783,Lo,,,,,,2,,,,,,,,low,19,0,19,0,1,,,,,,,,,
293209,2022-09-21_16h52.24.952,vts_reward_expectancy,2022.2.4,Win32,61.08362348,Chrome,1536,864,,,,,0,979,,,,,,,,,,,,,,,,,Y,125,circle,1,0,,,,,,,,,,,,,,,,repeat,letter,lettRpt,f,0.3732,Hi,,,,,,2,,,,,,,,low,20,0,20,0,1,,,,,,,,,
293209,2022-09-21_16h52.24.952,vts_reward_expectancy,2022.2.4,Win32,61.08362348,Chrome,1536,864,,,,,0,979,,,,,,,,,,,,,,,,,W,174,triangle,0,0,,,,,,,,,,,,,,,,repeat,letter,NA,d,0.3096,Hi,,,,,,2,,,,,,,,low,21,0,21,0,1,,,,,,,,,
293209,2022-09-21_16h52.24.952,vts_reward_expectancy,2022.2.4,Win32,61.08362348,Chrome,1536,864,,,,,0,979,,,,,,,,,,,,,,,,,F,167,triangle,0,1,,,,,,,,,,,,,,,,repeat,letter,NA,f,0.3399,Hi,,,,,,2,,,,,,,,low,22,0,22,0,1,,,,,,,,,
293209,2022-09-21_16h52.24.952,vts_reward_expectancy,2022.2.4,Win32,61.08362348,Chrome,1536,864,,,,,10,989,,,,,,,,,,,,,,,,,S,160,circle,1,1,,,,,,,,,,,,,,,,repeat,letter,lettRpt,f,0.3503,Hi,,,,,,2,,,,,,,,low,23,0,23,0,1,,,,,,,,,
293209,2022-09-21_16h52.24.952,vts_reward_expectancy,2022.2.4,Win32,61.08362348,Chrome,1536,864,,,,,10,999,,,,,,,,,,,,,,,,,F,174,triangle,1,0,,,,,,,,,,,,,,,,repeat,letter,lettRpt,d,0.301,Lo,,,,,,2,,,,,,,,low,24,0,24,0,1,,,,,,,,,
293209,2022-09-21_16h52.24.952,vts_reward_expectancy,2022.2.4,Win32,61.08362348,Chrome,1536,864,,,,,0,999,,,,,,,,,,,,,,,,,H,181,circle,0,0,,,,,,,,,,,,,,,,repeat,letter,NA,f,0.3504,Lo,,,,,,2,,,,,,,,low,25,0,25,0,1,,,,,,,,,
293209,2022-09-21_16h52.24.952,vts_reward_expectancy,2022.2.4,Win32,61.08362348,Chrome,1536,864,,,,,10,1009,,,,,,,,,,,,,,,,,B,167,triangle,1,1,,,,,,,,,,,,,,,,repeat,letter,lettRpt,d,0.3838,Lo,,,,,,2,,,,,,,,low,26,0,26,0,1,,,,,,,,,
293209,2022-09-21_16h52.24.952,vts_reward_expectancy,2022.2.4,Win32,61.08362348,Chrome,1536,864,,,,,10,1019,,,,,,,,,,,,,,,,,S,139,circle,1,0,,,,,,,,,,,,,,,,repeat,letter,lettRpt,f,0.3006,Hi,,,,,,2,,,,,,,,low,27,0,27,0,1,,,,,,,,,
293209,2022-09-21_16h52.24.952,vts_reward_expectancy,2022.2.4,Win32,61.08362348,Chrome,1536,864,,,,,0,1019,,,,,,,,,,,,,,,,,D,132,circle,1,0,,,,,,,,,,,,,,,,repeat,letter,lettRpt,d,0.4339,Hi,,,,,,2,,,,,,,,low,28,0,28,0,1,,,,,,,,,
293209,2022-09-21_16h52.24.952,vts_reward_expectancy,2022.2.4,Win32,61.08362348,Chrome,1536,864,,,,,0,1019,,,,,,,,,,,,,,,,,W,146,triangle,0,0,,,,,,,,,,,,,,,,repeat,letter,NA,d,0.3739,Hi,,,,,,2,,,,,,,,low,29,0,29,0,1,,,,,,,,,
293209,2022-09-21_16h52.24.952,vts_reward_expectancy,2022.2.4,Win32,61.08362348,Chrome,1536,864,,,,,1,1020,,,,,,,,,,,,,,,,,U,125,triangle,1,1,,,,,,,,,,,,,,,,repeat,letter,lettRpt,f,0.3449,Lo,,,,,,2,,,,,,,,low,30,0,30,0,1,,,,,,,,,
293209,2022-09-21_16h52.24.952,vts_reward_expectancy,2022.2.4,Win32,61.08362348,Chrome,1536,864,,,,,0,1020,,,,,,,,,,,,,,,,,Y,160,circle,1,0,,,,,,,,,,,,,,,,repeat,letter,lettRpt,f,0.5003,Hi,,,,,,2,,,,,,,,low,31,0,31,0,1,,,,,,,,,
293209,2022-09-21_16h52.24.952,vts_reward_expectancy,2022.2.4,Win32,61.08362348,Chrome,1536,864,,,,,10,1030,,,,,,,,,,,,,,,,,W,181,hexagon,1,0,,,,,,,,,,,,,,,,switch,number,numSwt,k,0.3559,Hi,,,,,,3,,,,,,space,2.6499,high,0,0,0,0,1,,,,,,,,,
293209,2022-09-21_16h52.24.952,vts_reward_expectancy,2022.2.4,Win32,61.08362348,Chrome,1536,864,,,,,0,1030,,,,,,,,,,,,,,,,,F,139,star,0,0,,,,,,,,,,,,,,,,repeat,number,NA,k,0.3583,Hi,,,,,,3,,,,,,,,high,1,0,1,0,1,,,,,,,,,
293209,2022-09-21_16h52.24.952,vts_reward_expectancy,2022.2.4,Win32,61.08362348,Chrome,1536,864,,,,,10,1040,,,,,,,,,,,,,,,,,U,146,hexagon,1,1,,,,,,,,,,,,,,,,repeat,number,numRpt,j,0.3509,Hi,,,,,,3,,,,,,,,high,2,0,2,0,1,,,,,,,,,
293209,2022-09-21_16h52.24.952,vts_reward_expectancy,2022.2.4,Win32,61.08362348,Chrome,1536,864,,,,,0,1040,,,,,,,,,,,,,,,,,D,174,star,0,0,,,,,,,,,,,,,,,,repeat,number,NA,j,0.3676,Hi,,,,,,3,,,,,,,,high,3,0,3,0,1,,,,,,,,,
293209,2022-09-21_16h52.24.952,vts_reward_expectancy,2022.2.4,Win32,61.08362348,Chrome,1536,864,,,,,0,1040,,,,,,,,,,,,,,,,,Y,132,hexagon,0,1,,,,,,,,,,,,,,,,repeat,number,NA,k,0.3559,Hi,,,,,,3,,,,,,,,high,4,0,4,0,1,,,,,,,,,
293209,2022-09-21_16h52.24.952,vts_reward_expectancy,2022.2.4,Win32,61.08362348,Chrome,1536,864,,,,,1,1041,,,,,,,,,,,,,,,,,H,160,star,1,1,,,,,,,,,,,,,,,,repeat,number,numRpt,k,0.3223,Lo,,,,,,3,,,,,,,,high,5,0,5,0,1,,,,,,,,,
293209,2022-09-21_16h52.24.952,vts_reward_expectancy,2022.2.4,Win32,61.08362348,Chrome,1536,864,,,,,10,1051,,,,,,,,,,,,,,,,,S,125,hexagon,1,0,,,,,,,,,,,,,,,,repeat,number,numRpt,j,0.2674,Hi,,,,,,3,,,,,,,,high,6,0,6,0,1,,,,,,,,,
293209,2022-09-21_16h52.24.952,vts_reward_expectancy,2022.2.4,Win32,61.08362348,Chrome,1536,864,,,,,0,1051,,,,,,,,,,,,,,,,,B,167,star,0,0,,,,,,,,,,,,,,,,repeat,number,NA,j,0.4093,Hi,,,,,,3,,,,,,,,high,7,0,7,0,1,,,,,,,,,
293209,2022-09-21_16h52.24.952,vts_reward_expectancy,2022.2.4,Win32,61.08362348,Chrome,1536,864,,,,,10,1061,,,,,,,,,,,,,,,,,W,181,hexagon,1,1,,,,,,,,,,,,,,,,repeat,number,numRpt,k,0.354,Hi,,,,,,3,,,,,,,,high,8,0,8,0,1,,,,,,,,,
293209,2022-09-21_16h52.24.952,vts_reward_expectancy,2022.2.4,Win32,61.08362348,Chrome,1536,864,,,,,1,1062,,,,,,,,,,,,,,,,,F,139,star,1,0,,,,,,,,,,,,,,,,repeat,number,numRpt,j,0.2891,Lo,,,,,,3,,,,,,,,high,9,0,9,0,1,,,,,,,,,
293209,2022-09-21_16h52.24.952,vts_reward_expectancy,2022.2.4,Win32,61.08362348,Chrome,1536,864,,,,,0,1062,,,,,,,,,,,,,,,,,U,146,star,0,0,,,,,,,,,,,,,,,,repeat,number,NA,k,0.334,Lo,,,,,,3,,,,,,,,high,10,0,10,0,1,,,,,,,,,
293209,2022-09-21_16h52.24.952,vts_reward_expectancy,2022.2.4,Win32,61.08362348,Chrome,1536,864,,,,,10,1072,,,,,,,,,,,,,,,,,D,174,hexagon,1,1,,,,,,,,,,,,,,,,repeat,number,numRpt,k,0.3891,Hi,,,,,,3,,,,,,,,high,11,0,11,0,1,,,,,,,,,
293209,2022-09-21_16h52.24.952,vts_reward_expectancy,2022.2.4,Win32,61.08362348,Chrome,1536,864,,,,,10,1082,,,,,,,,,,,,,,,,,Y,132,hexagon,1,0,,,,,,,,,,,,,,,,repeat,number,numRpt,j,0.4007,Hi,,,,,,3,,,,,,,,high,12,0,12,0,1,,,,,,,,,
293209,2022-09-21_16h52.24.952,vts_reward_expectancy,2022.2.4,Win32,61.08362348,Chrome,1536,864,,,,,1,1083,,,,,,,,,,,,,,,,,H,160,star,1,0,,,,,,,,,,,,,,,,repeat,number,numRpt,k,0.3524,Lo,,,,,,3,,,,,,,,high,13,0,13,0,1,,,,,,,,,
293209,2022-09-21_16h52.24.952,vts_reward_expectancy,2022.2.4,Win32,61.08362348,Chrome,1536,864,,,,,10,1093,,,,,,,,,,,,,,,,,S,125,hexagon,1,0,,,,,,,,,,,,,,,,repeat,number,numRpt,j,0.3719,Hi,,,,,,3,,,,,,,,high,14,0,14,0,1,,,,,,,,,
293209,2022-09-21_16h52.24.952,vts_reward_expectancy,2022.2.4,Win32,61.08362348,Chrome,1536,864,,,,,1,1094,,,,,,,,,,,,,,,,,B,167,star,1,0,,,,,,,,,,,,,,,,repeat,number,numRpt,k,0.4258,Lo,,,,,,3,,,,,,,,high,15,0,15,0,1,,,,,,,,,
293209,2022-09-21_16h52.24.952,vts_reward_expectancy,2022.2.4,Win32,61.08362348,Chrome,1536,864,,,,,0,1094,,,,,,,,,,,,,,,,,B,160,star,0,0,,,,,,,,,,,,,,,,repeat,number,NA,j,0.2679,Lo,,,,,,3,,,,,,,,high,16,0,16,0,1,,,,,,,,,
293209,2022-09-21_16h52.24.952,vts_reward_expectancy,2022.2.4,Win32,61.08362348,Chrome,1536,864,,,,,1,1095,,,,,,,,,,,,,,,,,D,139,hexagon,1,1,,,,,,,,,,,,,,,,repeat,number,numRpt,j,0.4359,Hi,,,,,,3,,,,,,,,high,17,0,17,0,1,,,,,,,,,
293209,2022-09-21_16h52.24.952,vts_reward_expectancy,2022.2.4,Win32,61.08362348,Chrome,1536,864,,,,,1,1096,,,,,,,,,,,,,,,,,W,125,star,1,0,,,,,,,,,,,,,,,,repeat,number,numRpt,j,0.5095,Lo,,,,,,3,,,,,,,,high,18,0,18,0,1,,,,,,,,,
293209,2022-09-21_16h52.24.952,vts_reward_expectancy,2022.2.4,Win32,61.08362348,Chrome,1536,864,,,,,10,1106,,,,,,,,,,,,,,,,,Y,181,hexagon,1,0,,,,,,,,,,,,,,,,repeat,number,numRpt,k,0.3734,Hi,,,,,,3,,,,,,,,high,19,0,19,0,1,,,,,,,,,
293209,2022-09-21_16h52.24.952,vts_reward_expectancy,2022.2.4,Win32,61.08362348,Chrome,1536,864,,,,,1,1107,,,,,,,,,,,,,,,,,U,132,star,1,0,,,,,,,,,,,,,,,,repeat,number,numRpt,j,0.3777,Lo,,,,,,3,,,,,,,,high,20,0,20,0,1,,,,,,,,,
293209,2022-09-21_16h52.24.952,vts_reward_expectancy,2022.2.4,Win32,61.08362348,Chrome,1536,864,,,,,10,1117,,,,,,,,,,,,,,,,,F,174,hexagon,1,0,,,,,,,,,,,,,,,,repeat,number,numRpt,k,0.3539,Hi,,,,,,3,,,,,,,,high,21,0,21,0,1,,,,,,,,,
293209,2022-09-21_16h52.24.952,vts_reward_expectancy,2022.2.4,Win32,61.08362348,Chrome,1536,864,,,,,1,1118,,,,,,,,,,,,,,,,,H,167,star,1,0,,,,,,,,,,,,,,,,repeat,number,numRpt,k,0.384,Lo,,,,,,3,,,,,,,,high,22,0,22,0,1,,,,,,,,,
293209,2022-09-21_16h52.24.952,vts_reward_expectancy,2022.2.4,Win32,61.08362348,Chrome,1536,864,,,,,10,1128,,,,,,,,,,,,,,,,,S,146,hexagon,1,0,,,,,,,,,,,,,,,,repeat,number,numRpt,j,0.3683,Hi,,,,,,3,,,,,,,,high,23,0,23,0,1,,,,,,,,,
293209,2022-09-21_16h52.24.952,vts_reward_expectancy,2022.2.4,Win32,61.08362348,Chrome,1536,864,,,,,1,1129,,,,,,,,,,,,,,,,,U,132,star,1,0,,,,,,,,,,,,,,,,repeat,number,numRpt,j,0.3849,Lo,,,,,,3,,,,,,,,high,24,0,24,0,1,,,,,,,,,
293209,2022-09-21_16h52.24.952,vts_reward_expectancy,2022.2.4,Win32,61.08362348,Chrome,1536,864,,,,,10,1139,,,,,,,,,,,,,,,,,D,181,hexagon,1,0,,,,,,,,,,,,,,,,repeat,number,numRpt,k,0.3844,Hi,,,,,,3,,,,,,,,high,25,0,25,0,1,,,,,,,,,
293209,2022-09-21_16h52.24.952,vts_reward_expectancy,2022.2.4,Win32,61.08362348,Chrome,1536,864,,,,,1,1140,,,,,,,,,,,,,,,,,S,139,star,1,0,,,,,,,,,,,,,,,,repeat,number,numRpt,j,0.2895,Lo,,,,,,3,,,,,,,,high,26,0,26,0,1,,,,,,,,,
293209,2022-09-21_16h52.24.952,vts_reward_expectancy,2022.2.4,Win32,61.08362348,Chrome,1536,864,,,,,10,1150,,,,,,,,,,,,,,,,,Y,160,hexagon,1,0,,,,,,,,,,,,,,,,repeat,number,numRpt,k,0.37,Hi,,,,,,3,,,,,,,,high,27,0,27,0,1,,,,,,,,,
293209,2022-09-21_16h52.24.952,vts_reward_expectancy,2022.2.4,Win32,61.08362348,Chrome,1536,864,,,,,10,1160,,,,,,,,,,,,,,,,,W,174,star,1,0,,,,,,,,,,,,,,,,repeat,number,numRpt,k,0.3214,Lo,,,,,,3,,,,,,,,high,28,0,28,0,1,,,,,,,,,
293209,2022-09-21_16h52.24.952,vts_reward_expectancy,2022.2.4,Win32,61.08362348,Chrome,1536,864,,,,,1,1161,,,,,,,,,,,,,,,,,H,167,hexagon,1,0,,,,,,,,,,,,,,,,repeat,number,numRpt,k,0.3507,Hi,,,,,,3,,,,,,,,high,29,0,29,0,1,,,,,,,,,
293209,2022-09-21_16h52.24.952,vts_reward_expectancy,2022.2.4,Win32,61.08362348,Chrome,1536,864,,,,,1,1162,,,,,,,,,,,,,,,,,B,125,hexagon,1,0,,,,,,,,,,,,,,,,repeat,number,numRpt,j,0.2933,Hi,,,,,,3,,,,,,,,high,30,0,30,0,1,,,,,,,,,
293209,2022-09-21_16h52.24.952,vts_reward_expectancy,2022.2.4,Win32,61.08362348,Chrome,1536,864,,,,,1,1163,,,,,,,,,,,,,,,,,F,146,star,1,0,,,,,,,,,,,,,,,,repeat,number,numRpt,j,0.5234,Lo,,,,,,3,,,,,,,,high,31,0,31,0,1,,,,,,,,,
293209,2022-09-21_16h52.24.952,vts_reward_expectancy,2022.2.4,Win32,61.08362348,Chrome,1536,864,,,,,0,1163,,,,,,,,,,,,,,,,,W,125,hexagon,1,0,,,,,,,,,,,,,,,,repeat,number,numRpt,j,0.3674,Hi,,,,,,4,,,,,,space,1.4912,high,0,0,0,0,1,,,,,,,,,
293209,2022-09-21_16h52.24.952,vts_reward_expectancy,2022.2.4,Win32,61.08362348,Chrome,1536,864,,,,,1,1164,,,,,,,,,,,,,,,,,F,181,star,1,0,,,,,,,,,,,,,,,,repeat,number,numRpt,k,0.3519,Lo,,,,,,4,,,,,,,,high,1,0,1,0,1,,,,,,,,,
293209,2022-09-21_16h52.24.952,vts_reward_expectancy,2022.2.4,Win32,61.08362348,Chrome,1536,864,,,,,10,1174,,,,,,,,,,,,,,,,,S,139,hexagon,1,0,,,,,,,,,,,,,,,,repeat,number,numRpt,j,0.2393,Hi,,,,,,4,,,,,,,,high,2,0,2,0,1,,,,,,,,,
293209,2022-09-21_16h52.24.952,vts_reward_expectancy,2022.2.4,Win32,61.08362348,Chrome,1536,864,,,,,0,1174,,,,,,,,,,,,,,,,,Y,132,star,0,0,,,,,,,,,,,,,,,,repeat,number,NA,k,0.2677,Hi,,,,,,4,,,,,,,,high,3,0,3,0,1,,,,,,,,,
293209,2022-09-21_16h52.24.952,vts_reward_expectancy,2022.2.4,Win32,61.08362348,Chrome,1536,864,,,,,1,1175,,,,,,,,,,,,,,,,,B,174,star,1,1,,,,,,,,,,,,,,,,repeat,number,numRpt,k,0.2949,Lo,,,,,,4,,,,,,,,high,4,0,4,0,1,,,,,,,,,
293209,2022-09-21_16h52.24.952,vts_reward_expectancy,2022.2.4,Win32,61.08362348,Chrome,1536,864,,,,,0,1175,,,,,,,,,,,,,,,,,H,146,hexagon,1,0,,,,,,,,,,,,,,,,repeat,number,numRpt,j,0.408,Hi,,,,,,4,,,,,,,,high,5,0,5,0,1,,,,,,,,,
293209,2022-09-21_16h52.24.952,vts_reward_expectancy,2022.2.4,Win32,61.08362348,Chrome,1536,864,,,,,0,1175,,,,,,,,,,,,,,,,,U,160,star,0,0,,,,,,,,,,,,,,,,repeat,number,NA,j,0.2424,Hi,,,,,,4,,,,,,,,high,6,0,6,0,1,,,,,,,,,
293209,2022-09-21_16h52.24.952,vts_reward_expectancy,2022.2.4,Win32,61.08362348,Chrome,1536,864,,,,,0,1175,,,,,,,,,,,,,,,,,D,167,hexagon,0,1,,,,,,,,,,,,,,,,repeat,number,NA,j,0.2674,Hi,,,,,,4,,,,,,,,high,7,0,7,0,1,,,,,,,,,
293209,2022-09-21_16h52.24.952,vts_reward_expectancy,2022.2.4,Win32,61.08362348,Chrome,1536,864,,,,,1,1176,,,,,,,,,,,,,,,,,W,125,star,1,1,,,,,,,,,,,,,,,,repeat,number,numRpt,j,0.3713,Lo,,,,,,4,,,,,,,,high,8,0,8,0,1,,,,,,,,,
293209,2022-09-21_16h52.24.952,vts_reward_expectancy,2022.2.4,Win32,61.08362348,Chrome,1536,864,,,,,0,1176,,,,,,,,,,,,,,,,,F,181,hexagon,0,0,,,,,,,,,,,,,,,,repeat,number,NA,j,0.3342,Lo,,,,,,4,,,,,,,,high,9,0,9,0,1,,,,,,,,,
293209,2022-09-21_16h52.24.952,vts_reward_expectancy,2022.2.4,Win32,61.08362348,Chrome,1536,864,,,,,0,1176,,,,,,,,,,,,,,,,,S,139,hexagon,1,1,,,,,,,,,,,,,,,,repeat,number,numRpt,j,0.3718,Hi,,,,,,4,,,,,,,,high,10,0,10,0,1,,,,,,,,,
293209,2022-09-21_16h52.24.952,vts_reward_expectancy,2022.2.4,Win32,61.08362348,Chrome,1536,864,,,,,1,1177,,,,,,,,,,,,,,,,,Y,132,star,1,0,,,,,,,,,,,,,,,,repeat,number,numRpt,j,0.3702,Lo,,,,,,4,,,,,,,,high,11,0,11,0,1,,,,,,,,,
293209,2022-09-21_16h52.24.952,vts_reward_expectancy,2022.2.4,Win32,61.08362348,Chrome,1536,864,,,,,10,1187,,,,,,,,,,,,,,,,,B,174,hexagon,1,0,,,,,,,,,,,,,,,,repeat,number,numRpt,k,0.3106,Hi,,,,,,4,,,,,,,,high,12,0,12,0,1,,,,,,,,,
293209,2022-09-21_16h52.24.952,vts_reward_expectancy,2022.2.4,Win32,61.08362348,Chrome,1536,864,,,,,0,1187,,,,,,,,,,,,,,,,,H,146,star,0,0,,,,,,,,,,,,,,,,repeat,number,NA,k,0.252,Hi,,,,,,4,,,,,,,,high,13,0,13,0,1,,,,,,,,,
293209,2022-09-21_16h52.24.952,vts_reward_expectancy,2022.2.4,Win32,61.08362348,Chrome,1536,864,,,,,0,1187,,,,,,,,,,,,,,,,,U,160,hexagon,1,1,,,,,,,,,,,,,,,,repeat,number,numRpt,k,0.3558,Hi,,,,,,4,,,,,,,,high,14,0,14,0,1,,,,,,,,,
293209,2022-09-21_16h52.24.952,vts_reward_expectancy,2022.2.4,Win32,61.08362348,Chrome,1536,864,,,,,1,1188,,,,,,,,,,,,,,,,,D,167,star,1,0,,,,,,,,,,,,,,,,repeat,number,numRpt,k,0.2757,Lo,,,,,,4,,,,,,,,high,15,0,15,0,1,,,,,,,,,
293209,2022-09-21_16h52.24.952,vts_reward_expectancy,2022.2.4,Win32,61.08362348,Chrome,1536,864,,,,,10,1198,,,,,,,,,,,,,,,,,S,146,hexagon,1,0,,,,,,,,,,,,,,,,repeat,number,numRpt,j,0.2247,Hi,,,,,,4,,,,,,,,high,16,0,16,0,1,,,,,,,,,
293209,2022-09-21_16h52.24.952,vts_reward_expectancy,2022.2.4,Win32,61.08362348,Chrome,1536,864,,,,,1,1199,,,,,,,,,,,,,,,,,Y,139,star,1,0,,,,,,,,,,,,,,,,repeat,number,numRpt,j,0.3688,Lo,,,,,,4,,,,,,,,high,17,0,17,0,1,,,,,,,,,
293209,2022-09-21_16h52.24.952,vts_reward_expectancy,2022.2.4,Win32,61.08362348,Chrome,1536,864,,,,,10,1209,,,,,,,,,,,,,,,,,U,174,hexagon,1,0,,,,,,,,,,,,,,,,repeat,number,numRpt,k,0.2445,Hi,,,,,,4,,,,,,,,high,18,0,18,0,1,,,,,,,,,
293209,2022-09-21_16h52.24.952,vts_reward_expectancy,2022.2.4,Win32,61.08362348,Chrome,1536,864,,,,,1,1210,,,,,,,,,,,,,,,,,H,167,star,1,0,,,,,,,,,,,,,,,,repeat,number,numRpt,k,0.2758,Lo,,,,,,4,,,,,,,,high,19,0,19,0,1,,,,,,,,,
293209,2022-09-21_16h52.24.952,vts_reward_expectancy,2022.2.4,Win32,61.08362348,Chrome,1536,864,,,,,0,1210,,,,,,,,,,,,,,,,,W,181,star,0,0,,,,,,,,,,,,,,,,repeat,number,NA,j,0.2664,Lo,,,,,,4,,,,,,,,high,20,0,20,0,1,,,,,,,,,
293209,2022-09-21_16h52.24.952,vts_reward_expectancy,2022.2.4,Win32,61.08362348,Chrome,1536,864,,,,,0,1210,,,,,,,,,,,,,,,,,F,160,hexagon,1,1,,,,,,,,,,,,,,,,repeat,number,numRpt,k,0.3693,Hi,,,,,,4,,,,,,,,high,21,0,21,0,1,,,,,,,,,
293209,2022-09-21_16h52.24.952,vts_reward_expectancy,2022.2.4,Win32,61.08362348,Chrome,1536,864,,,,,0,1210,,,,,,,,,,,,,,,,,D,125,hexagon,0,0,,,,,,,,,,,,,,,,repeat,number,NA,k,0.3844,Hi,,,,,,4,,,,,,,,high,22,0,22,0,1,,,,,,,,,
293209,2022-09-21_16h52.24.952,vts_reward_expectancy,2022.2.4,Win32,61.08362348,Chrome,1536,864,,,,,1,1211,,,,,,,,,,,,,,,,,B,132,star,1,1,,,,,,,,,,,,,,,,repeat,number,numRpt,j,0.4506,Lo,,,,,,4,,,,,,,,high,23,0,23,0,1,,,,,,,,,
293209,2022-09-21_16h52.24.952,vts_reward_expectancy,2022.2.4,Win32,61.08362348,Chrome,1536,864,,,,,0,1211,,,,,,,,,,,,,,,,,Y,146,hexagon,1,0,,,,,,,,,,,,,,,,repeat,number,numRpt,j,0.3876,Hi,,,,,,4,,,,,,,,high,24,0,24,0,1,,,,,,,,,
293209,2022-09-21_16h52.24.952,vts_reward_expectancy,2022.2.4,Win32,61.08362348,Chrome,1536,864,,,,,10,1221,,,,,,,,,,,,,,,,,H,174,star,1,0,,,,,,,,,,,,,,,,repeat,number,numRpt,k,0.3572,Lo,,,,,,4,,,,,,,,high,25,0,25,0,1,,,,,,,,,
293209,2022-09-21_16h52.24.952,vts_reward_expectancy,2022.2.4,Win32,61.08362348,Chrome,1536,864,,,,,0,1221,,,,,,,,,,,,,,,,,B,167,star,0,0,,,,,,,,,,,,,,,,repeat,number,NA,j,0.3734,Lo,,,,,,4,,,,,,,,high,26,0,26,0,1,,,,,,,,,
293209,2022-09-21_16h52.24.952,vts_reward_expectancy,2022.2.4,Win32,61.08362348,Chrome,1536,864,,,,,10,1231,,,,,,,,,,,,,,,,,S,125,hexagon,1,1,,,,,,,,,,,,,,,,repeat,number,numRpt,j,0.3016,Hi,,,,,,4,,,,,,,,high,27,0,27,0,1,,,,,,,,,
293209,2022-09-21_16h52.24.952,vts_reward_expectancy,2022.2.4,Win32,61.08362348,Chrome,1536,864,,,,,0,1231,,,,,,,,,,,,,,,,,F,132,hexagon,0,0,,,,,,,,,,,,,,,,repeat,number,NA,k,0.3193,Hi,,,,,,4,,,,,,,,high,28,0,28,0,1,,,,,,,,,
293209,2022-09-21_16h52.24.952,vts_reward_expectancy,2022.2.4,Win32,61.08362348,Chrome,1536,864,,,,,1,1232,,,,,,,,,,,,,,,,,W,139,star,1,1,,,,,,,,,,,,,,,,repeat,number,numRpt,j,0.3505,Lo,,,,,,4,,,,,,,,high,29,0,29,0,1,,,,,,,,,
293209,2022-09-21_16h52.24.952,vts_reward_expectancy,2022.2.4,Win32,61.08362348,Chrome,1536,864,,,,,10,1242,,,,,,,,,,,,,,,,,U,160,hexagon,1,0,,,,,,,,,,,,,,,,repeat,number,numRpt,k,0.2948,Hi,,,,,,4,,,,,,,,high,30,0,30,0,1,,,,,,,,,
293209,2022-09-21_16h52.24.952,vts_reward_expectancy,2022.2.4,Win32,61.08362348,Chrome,1536,864,,,,,0,1242,,,,,,,,,,,,,,,,,D,181,star,0,0,,,,,,,,,,,,,,,,repeat,number,NA,j,0.422,Hi,,,,,,4,,,,,,,,high,31,0,31,0,1,,,,,,,,,
293209,2022-09-21_16h52.24.952,vts_reward_expectancy,2022.2.4,Win32,61.08362348,Chrome,1536,864,,,,,0,1242,,,,,,,,,,,,,,,,,Y,167,circle,1,1,,,,,,,,,,,,,,,,repeat,number,numRpt,k,0.3516,Hi,,,,,,5,,,,,,space,2.1002,low,0,0,0,0,1,,,,,,,,,
293209,2022-09-21_16h52.24.952,vts_reward_expectancy,2022.2.4,Win32,61.08362348,Chrome,1536,864,,,,,10,1252,,,,,,,,,,,,,,,,,F,181,triangle,1,0,,,,,,,,,,,,,,,,repeat,number,numRpt,k,0.3996,Lo,,,,,,5,,,,,,,,low,1,0,1,0,1,,,,,,,,,
293209,2022-09-21_16h52.24.952,vts_reward_expectancy,2022.2.4,Win32,61.08362348,Chrome,1536,864,,,,,0,1252,,,,,,,,,,,,,,,,,D,160,circle,0,0,,,,,,,,,,,,,,,,repeat,number,NA,j,0.2616,Lo,,,,,,5,,,,,,,,low,2,0,2,0,1,,,,,,,,,
293209,2022-09-21_16h52.24.952,vts_reward_expectancy,2022.2.4,Win32,61.08362348,Chrome,1536,864,,,,,1,1253,,,,,,,,,,,,,,,,,H,139,triangle,1,1,,,,,,,,,,,,,,,,repeat,number,numRpt,j,0.3065,Lo,,,,,,5,,,,,,,,low,3,0,3,0,1,,,,,,,,,
293209,2022-09-21_16h52.24.952,vts_reward_expectancy,2022.2.4,Win32,61.08362348,Chrome,1536,864,,,,,10,1263,,,,,,,,,,,,,,,,,W,174,circle,1,0,,,,,,,,,,,,,,,,repeat,number,numRpt,k,0.2609,Hi,,,,,,5,,,,,,,,low,4,0,4,0,1,,,,,,,,,
293209,2022-09-21_16h52.24.952,vts_reward_expectancy,2022.2.4,Win32,61.08362348,Chrome,1536,864,,,,,0,1263,,,,,,,,,,,,,,,,,B,125,triangle,0,0,,,,,,,,,,,,,,,,repeat,number,NA,k,0.3193,Hi,,,,,,5,,,,,,,,low,5,0,5,0,1,,,,,,,,,
293209,2022-09-21_16h52.24.952,vts_reward_expectancy,2022.2.4,Win32,61.08362348,Chrome,1536,864,,,,,0,1263,,,,,,,,,,,,,,,,,S,132,circle,1,1,,,,,,,,,,,,,,,,repeat,number,numRpt,j,0.3839,Hi,,,,,,5,,,,,,,,low,6,0,6,0,1,,,,,,,,,
293209,2022-09-21_16h52.24.952,vts_reward_expectancy,2022.2.4,Win32,61.08362348,Chrome,1536,864,,,,,1,1264,,,,,,,,,,,,,,,,,U,146,triangle,1,0,,,,,,,,,,,,,,,,repeat,number,numRpt,j,0.338,Lo,,,,,,5,,,,,,,,low,7,0,7,0,1,,,,,,,,,
293209,2022-09-21_16h52.24.952,vts_reward_expectancy,2022.2.4,Win32,61.08362348,Chrome,1536,864,,,,,1,1265,,,,,,,,,,,,,,,,,Y,167,triangle,1,0,,,,,,,,,,,,,,,,repeat,number,numRpt,k,0.3837,Lo,,,,,,5,,,,,,,,low,8,0,8,0,1,,,,,,,,,
293209,2022-09-21_16h52.24.952,vts_reward_expectancy,2022.2.4,Win32,61.08362348,Chrome,1536,864,,,,,0,1265,,,,,,,,,,,,,,,,,F,181,circle,1,0,,,,,,,,,,,,,,,,repeat,number,numRpt,k,0.4194,Hi,,,,,,5,,,,,,,,low,9,0,9,0,1,,,,,,,,,
293209,2022-09-21_16h52.24.952,vts_reward_expectancy,2022.2.4,Win32,61.08362348,Chrome,1536,864,,,,,1,1266,,,,,,,,,,,,,,,,,D,160,triangle,1,0,,,,,,,,,,,,,,,,repeat,number,numRpt,k,0.371,Lo,,,,,,5,,,,,,,,low,10,0,10,0,1,,,,,,,,,
293209,2022-09-21_16h52.24.952,vts_reward_expectancy,2022.2.4,Win32,61.08362348,Chrome,1536,864,,,,,10,1276,,,,,,,,,,,,,,,,,H,139,circle,1,0,,,,,,,,,,,,,,,,repeat,number,numRpt,j,0.2428,Hi,,,,,,5,,,,,,,,low,11,0,11,0,1,,,,,,,,,
293209,2022-09-21_16h52.24.952,vts_reward_expectancy,2022.2.4,Win32,61.08362348,Chrome,1536,864,,,,,1,1277,,,,,,,,,,,,,,,,,W,174,triangle,1,0,,,,,,,,,,,,,,,,repeat,number,numRpt,k,0.3175,Lo,,,,,,5,,,,,,,,low,12,0,12,0,1,,,,,,,,,
293209,2022-09-21_16h52.24.952,vts_reward_expectancy,2022.2.4,Win32,61.08362348,Chrome,1536,864,,,,,0,1277,,,,,,,,,,,,,,,,,B,125,circle,0,0,,,,,,,,,,,,,,,,repeat,number,NA,k,0.3174,Lo,,,,,,5,,,,,,,,low,13,0,13,0,1,,,,,,,,,
293209,2022-09-21_16h52.24.952,vts_reward_expectancy,2022.2.4,Win32,61.08362348,Chrome,1536,864,,,,,10,1287,,,,,,,,,,,,,,,,,S,132,triangle,1,1,,,,,,,,,,,,,,,,repeat,number,numRpt,j,0.3369,Lo,,,,,,5,,,,,,,,low,14,0,14,0,1,,,,,,,,,
293209,2022-09-21_16h52.24.952,vts_reward_expectancy,2022.2.4,Win32,61.08362348,Chrome,1536,864,,,,,0,1287,,,,,,,,,,,,,,,,,U,146,circle,0,0,,,,,,,,,,,,,,,,repeat,number,NA,k,0.3349,Lo,,,,,,5,,,,,,,,low,15,0,15,0,1,,,,,,,,,
293209,2022-09-21_16h52.24.952,vts_reward_expectancy,2022.2.4,Win32,61.08362348,Chrome,1536,864,,,,,0,1287,,,,,,,,,,,,,,,,,Y,167,circle,1,1,,,,,,,,,,,,,,,,repeat,number,numRpt,k,0.3181,Hi,,,,,,5,,,,,,,,low,16,0,16,0,1,,,,,,,,,
293209,2022-09-21_16h52.24.952,vts_reward_expectancy,2022.2.4,Win32,61.08362348,Chrome,1536,864,,,,,1,1288,,,,,,,,,,,,,,,,,H,132,triangle,1,0,,,,,,,,,,,,,,,,repeat,number,numRpt,j,0.2287,Lo,,,,,,5,,,,,,,,low,17,0,17,0,1,,,,,,,,,
293209,2022-09-21_16h52.24.952,vts_reward_expectancy,2022.2.4,Win32,61.08362348,Chrome,1536,864,,,,,1,1289,,,,,,,,,,,,,,,,,B,139,triangle,1,0,,,,,,,,,,,,,,,,repeat,number,numRpt,j,0.3285,Lo,,,,,,5,,,,,,,,low,18,0,18,0,1,,,,,,,,,
293209,2022-09-21_16h52.24.952,vts_reward_expectancy,2022.2.4,Win32,61.08362348,Chrome,1536,864,,,,,10,1299,,,,,,,,,,,,,,,,,U,181,circle,1,0,,,,,,,,,,,,,,,,repeat,number,numRpt,k,0.2531,Hi,,,,,,5,,,,,,,,low,19,0,19,0,1,,,,,,,,,
293209,2022-09-21_16h52.24.952,vts_reward_expectancy,2022.2.4,Win32,61.08362348,Chrome,1536,864,,,,,0,1299,,,,,,,,,,,,,,,,,F,160,circle,1,0,,,,,,,,,,,,,,,,repeat,number,numRpt,k,0.3857,Hi,,,,,,5,,,,,,,,low,20,0,20,0,1,,,,,,,,,
293209,2022-09-21_16h52.24.952,vts_reward_expectancy,2022.2.4,Win32,61.08362348,Chrome,1536,864,,,,,0,1299,,,,,,,,,,,,,,,,,D,174,triangle,0,0,,,,,,,,,,,,,,,,repeat,number,NA,j,0.3183,Hi,,,,,,5,,,,,,,,low,21,0,21,0,1,,,,,,,,,
293209,2022-09-21_16h52.24.952,vts_reward_expectancy,2022.2.4,Win32,61.08362348,Chrome,1536,864,,,,,0,1299,,,,,,,,,,,,,,,,,W,125,circle,0,1,,,,,,,,,,,,,,,,repeat,number,NA,k,0.2386,Hi,,,,,,5,,,,,,,,low,22,0,22,0,1,,,,,,,,,
293209,2022-09-21_16h52.24.952,vts_reward_expectancy,2022.2.4,Win32,61.08362348,Chrome,1536,864,,,,,0,1299,,,,,,,,,,,,,,,,,S,146,triangle,0,1,,,,,,,,,,,,,,,,repeat,number,NA,k,0.3499,Hi,,,,,,5,,,,,,,,low,23,0,23,0,1,,,,,,,,,
293209,2022-09-21_16h52.24.952,vts_reward_expectancy,2022.2.4,Win32,61.08362348,Chrome,1536,864,,,,,10,1309,,,,,,,,,,,,,,,,,F,146,triangle,1,1,,,,,,,,,,,,,,,,repeat,number,numRpt,j,0.4008,Lo,,,,,,5,,,,,,,,low,24,0,24,0,1,,,,,,,,,
293209,2022-09-21_16h52.24.952,vts_reward_expectancy,2022.2.4,Win32,61.08362348,Chrome,1536,864,,,,,1,1310,,,,,,,,,,,,,,,,,W,181,circle,1,0,,,,,,,,,,,,,,,,repeat,number,numRpt,k,0.2669,Hi,,,,,,5,,,,,,,,low,25,0,25,0,1,,,,,,,,,
293209,2022-09-21_16h52.24.952,vts_reward_expectancy,2022.2.4,Win32,61.08362348,Chrome,1536,864,,,,,0,1310,,,,,,,,,,,,,,,,,U,139,triangle,0,0,,,,,,,,,,,,,,,,repeat,number,NA,k,0.3388,Hi,,,,,,5,,,,,,,,low,26,0,26,0,1,,,,,,,,,
293209,2022-09-21_16h52.24.952,vts_reward_expectancy,2022.2.4,Win32,61.08362348,Chrome,1536,864,,,,,0,1310,,,,,,,,,,,,,,,,,D,132,circle,1,1,,,,,,,,,,,,,,,,repeat,number,numRpt,j,0.4186,Hi,,,,,,5,,,,,,,,low,27,0,27,0,1,,,,,,,,,
293209,2022-09-21_16h52.24.952,vts_reward_expectancy,2022.2.4,Win32,61.08362348,Chrome,1536,864,,,,,0,1310,,,,,,,,,,,,,,,,,B,174,circle,1,0,,,,,,,,,,,,,,,,repeat,number,numRpt,k,0.404,Hi,,,,,,5,,,,,,,,low,28,0,28,0,1,,,,,,,,,
293209,2022-09-21_16h52.24.952,vts_reward_expectancy,2022.2.4,Win32,61.08362348,Chrome,1536,864,,,,,1,1311,,,,,,,,,,,,,,,,,S,167,triangle,1,0,,,,,,,,,,,,,,,,repeat,number,numRpt,k,0.3678,Lo,,,,,,5,,,,,,,,low,29,0,29,0,1,,,,,,,,,
293209,2022-09-21_16h52.24.952,vts_reward_expectancy,2022.2.4,Win32,61.08362348,Chrome,1536,864,,,,,1,1312,,,,,,,,,,,,,,,,,H,160,triangle,1,0,,,,,,,,,,,,,,,,repeat,number,numRpt,k,0.284,Lo,,,,,,5,,,,,,,,low,30,0,30,0,1,,,,,,,,,
293209,2022-09-21_16h52.24.952,vts_reward_expectancy,2022.2.4,Win32,61.08362348,Chrome,1536,864,,,,,10,1322,,,,,,,,,,,,,,,,,Y,125,circle,1,0,,,,,,,,,,,,,,,,repeat,number,numRpt,j,0.274,Hi,,,,,,5,,,,,,,,low,31,0,31,0,1,,,,,,,,,
293209,2022-09-21_16h52.24.952,vts_reward_expectancy,2022.2.4,Win32,61.08362348,Chrome,1536,864,,,,,,,,,,,,,,,,,,,,,,,,,,,,,,,,,,,,,,,,,,,,,,,,,,,,,,6,,,,,,,,,,,,,,use the keyboard to pick which letter was closer to a or z and which numbers were above or below 153,1,,4,2,,2,1536,864
