participant,date,expName,psychopyVersion,OS,frameRate,browser,xResolution,yResolution,key_resp.keys,key_resp.rt,training_resp.keys,training_resp.rt,points_trial,points_cumul,trainBlock,training.thisRepN,training.thisTrialN,training.thisN,training.thisIndex,training.ran,LTriangleOpac,LCircleOpac,LHexagonOpac,LStarOpac,RTriangleOpac,RCircleOpac,RHexagonOpac,RStarOpac,LShape_ID,RShape_ID,curr_topStim,curr_bottStim,curr_shape,acc,E1,target_resp_prac1.keys,target_resp_prac1.rt,pracBlock,task1_prac_trials.thisRepN,task1_prac_trials.thisTrialN,task1_prac_trials.thisN,task1_prac_trials.thisIndex,task1_prac_trials.ran,target_resp_prac2.keys,target_resp_prac2.rt,task2_praac_trials.thisRepN,task2_praac_trials.thisTrialN,task2_praac_trials.thisN,task2_praac_trials.thisIndex,task2_praac_trials.ran,alt,task,condition,target_resp.keys,target_resp.rt,rewCond,vts_practice_trials.thisRepN,vts_practice_trials.thisTrialN,vts_practice_trials.thisN,vts_practice_trials.thisIndex,vts_practice_trials.ran,blockNum,trials_norew.thisRepN,trials_norew.thisTrialN,trials_norew.thisN,trials_norew.thisIndex,trials_norew.ran,key_resp_2.keys,key_resp_2.rt,rewExpect,trials_rew.thisRepN,trials_rew.thisTrialN,trials_rew.thisN,trials_rew.thisIndex,trials_rew.ran,Q1,Q2,Q2_text,Q3,Q4,Q5_text,Q5,xRes,yRes
296938,2022-10-02_13h53.13.310,vts_reward_expectancy,2022.2.4,MacIntel,120.0048002,Chrome,1471,945,,,,,,,,,,,,,,,,,,,,,,,,,,,,,,,,,,,,,,,,,,,,,,,,,,,,,,,,,,,,,,,,,,,,,,,,,,,,
296938,2022-10-02_13h53.13.310,vts_reward_expectancy,2022.2.4,MacIntel,120.0048002,Chrome,1471,945,space,1.6719,,,,,,,,,,,,,,,,,,,,,,,,,,,,,,,,,,,,,,,,,,,,,,,,,,,,,,,,,,,,,,,,,,,,,,,,,,
296938,2022-10-02_13h53.13.310,vts_reward_expectancy,2022.2.4,MacIntel,120.0048002,Chrome,1471,945,,,,,,,,,,,,,,,,,,,,,,,,,,,,,,,,,,,,,,,,,,,,,,,,,,,,,,,,,,,,,,,,,,,,,,,,,,,,
296938,2022-10-02_13h53.13.310,vts_reward_expectancy,2022.2.4,MacIntel,120.0048002,Chrome,1471,945,,,l,2.0393,10,10,0,0,0,0,10,1,0,0,0,1,0,1,0,0,star ,circle,,,,,,,,,,,,,,,,,,,,,,,,,,,,,,,,,,,,,,,,,,,,,,,,,,,,,,
296938,2022-10-02_13h53.13.310,vts_reward_expectancy,2022.2.4,MacIntel,120.0048002,Chrome,1471,945,,,a,1.3307,1,11,0,0,1,1,6,1,0,0,1,0,1,0,0,0,hexagon,triangle,,,,,,,,,,,,,,,,,,,,,,,,,,,,,,,,,,,,,,,,,,,,,,,,,,,,,,
296938,2022-10-02_13h53.13.310,vts_reward_expectancy,2022.2.4,MacIntel,120.0048002,Chrome,1471,945,,,a,0.9657,10,21,0,0,2,2,3,1,0,1,0,0,1,0,0,0,circle,triangle,,,,,,,,,,,,,,,,,,,,,,,,,,,,,,,,,,,,,,,,,,,,,,,,,,,,,,
296938,2022-10-02_13h53.13.310,vts_reward_expectancy,2022.2.4,MacIntel,120.0048002,Chrome,1471,945,,,a,0.4843,1,22,0,0,3,3,5,1,0,1,0,0,0,0,0,1,circle,star,,,,,,,,,,,,,,,,,,,,,,,,,,,,,,,,,,,,,,,,,,,,,,,,,,,,,,
296938,2022-10-02_13h53.13.310,vts_reward_expectancy,2022.2.4,MacIntel,120.0048002,Chrome,1471,945,,,l,0.6973,10,32,0,0,4,4,1,1,1,0,0,0,0,0,1,0,triangle,hexagon,,,,,,,,,,,,,,,,,,,,,,,,,,,,,,,,,,,,,,,,,,,,,,,,,,,,,,
296938,2022-10-02_13h53.13.310,vts_reward_expectancy,2022.2.4,MacIntel,120.0048002,Chrome,1471,945,,,a,0.438,10,42,0,0,5,5,4,1,0,1,0,0,0,0,1,0,circle,hexagon,,,,,,,,,,,,,,,,,,,,,,,,,,,,,,,,,,,,,,,,,,,,,,,,,,,,,,
296938,2022-10-02_13h53.13.310,vts_reward_expectancy,2022.2.4,MacIntel,120.0048002,Chrome,1471,945,,,a,0.9456,1,43,0,0,6,6,11,1,0,0,0,1,0,0,1,0,star,hexagon,,,,,,,,,,,,,,,,,,,,,,,,,,,,,,,,,,,,,,,,,,,,,,,,,,,,,,
296938,2022-10-02_13h53.13.310,vts_reward_expectancy,2022.2.4,MacIntel,120.0048002,Chrome,1471,945,,,l,0.3853,1,44,0,0,7,7,7,1,0,0,1,0,0,1,0,0,hexagon,circle,,,,,,,,,,,,,,,,,,,,,,,,,,,,,,,,,,,,,,,,,,,,,,,,,,,,,,
296938,2022-10-02_13h53.13.310,vts_reward_expectancy,2022.2.4,MacIntel,120.0048002,Chrome,1471,945,,,l,1.1302,1,45,0,0,8,8,2,1,1,0,0,0,0,0,0,1,triangle,star,,,,,,,,,,,,,,,,,,,,,,,,,,,,,,,,,,,,,,,,,,,,,,,,,,,,,,
296938,2022-10-02_13h53.13.310,vts_reward_expectancy,2022.2.4,MacIntel,120.0048002,Chrome,1471,945,,,l,0.4306,1,46,0,0,9,9,0,1,1,0,0,0,0,1,0,0,triangle,circle,,,,,,,,,,,,,,,,,,,,,,,,,,,,,,,,,,,,,,,,,,,,,,,,,,,,,,
296938,2022-10-02_13h53.13.310,vts_reward_expectancy,2022.2.4,MacIntel,120.0048002,Chrome,1471,945,,,a,0.8313,10,56,0,0,10,10,9,1,0,0,0,1,1,0,0,0,star,triangle,,,,,,,,,,,,,,,,,,,,,,,,,,,,,,,,,,,,,,,,,,,,,,,,,,,,,,
296938,2022-10-02_13h53.13.310,vts_reward_expectancy,2022.2.4,MacIntel,120.0048002,Chrome,1471,945,,,l,0.942,1,57,0,0,11,11,8,1,0,0,1,0,0,0,0,1,hexagon,star,,,,,,,,,,,,,,,,,,,,,,,,,,,,,,,,,,,,,,,,,,,,,,,,,,,,,,
296938,2022-10-02_13h53.13.310,vts_reward_expectancy,2022.2.4,MacIntel,120.0048002,Chrome,1471,945,,,l,0.9007,1,58,0,1,0,12,0,1,1,0,0,0,0,1,0,0,triangle,circle,,,,,,,,,,,,,,,,,,,,,,,,,,,,,,,,,,,,,,,,,,,,,,,,,,,,,,
296938,2022-10-02_13h53.13.310,vts_reward_expectancy,2022.2.4,MacIntel,120.0048002,Chrome,1471,945,,,a,0.3741,1,59,0,1,1,13,5,1,0,1,0,0,0,0,0,1,circle,star,,,,,,,,,,,,,,,,,,,,,,,,,,,,,,,,,,,,,,,,,,,,,,,,,,,,,,
296938,2022-10-02_13h53.13.310,vts_reward_expectancy,2022.2.4,MacIntel,120.0048002,Chrome,1471,945,,,a,0.4045,1,60,0,1,2,14,4,1,0,1,0,0,0,0,1,0,circle,hexagon,,,,,,,,,,,,,,,,,,,,,,,,,,,,,,,,,,,,,,,,,,,,,,,,,,,,,,
296938,2022-10-02_13h53.13.310,vts_reward_expectancy,2022.2.4,MacIntel,120.0048002,Chrome,1471,945,,,a,0.7759,10,70,0,1,3,15,9,1,0,0,0,1,1,0,0,0,star,triangle,,,,,,,,,,,,,,,,,,,,,,,,,,,,,,,,,,,,,,,,,,,,,,,,,,,,,,
296938,2022-10-02_13h53.13.310,vts_reward_expectancy,2022.2.4,MacIntel,120.0048002,Chrome,1471,945,,,a,0.9178,10,80,0,1,4,16,11,1,0,0,0,1,0,0,1,0,star,hexagon,,,,,,,,,,,,,,,,,,,,,,,,,,,,,,,,,,,,,,,,,,,,,,,,,,,,,,
296938,2022-10-02_13h53.13.310,vts_reward_expectancy,2022.2.4,MacIntel,120.0048002,Chrome,1471,945,,,l,0.7884,1,81,0,1,5,17,2,1,1,0,0,0,0,0,0,1,triangle,star,,,,,,,,,,,,,,,,,,,,,,,,,,,,,,,,,,,,,,,,,,,,,,,,,,,,,,
296938,2022-10-02_13h53.13.310,vts_reward_expectancy,2022.2.4,MacIntel,120.0048002,Chrome,1471,945,,,l,0.9405,1,82,0,1,6,18,7,1,0,0,1,0,0,1,0,0,hexagon,circle,,,,,,,,,,,,,,,,,,,,,,,,,,,,,,,,,,,,,,,,,,,,,,,,,,,,,,
296938,2022-10-02_13h53.13.310,vts_reward_expectancy,2022.2.4,MacIntel,120.0048002,Chrome,1471,945,,,a,0.9121,10,92,0,1,7,19,6,1,0,0,1,0,1,0,0,0,hexagon,triangle,,,,,,,,,,,,,,,,,,,,,,,,,,,,,,,,,,,,,,,,,,,,,,,,,,,,,,
296938,2022-10-02_13h53.13.310,vts_reward_expectancy,2022.2.4,MacIntel,120.0048002,Chrome,1471,945,,,l,1.2282,1,93,0,1,8,20,1,1,1,0,0,0,0,0,1,0,triangle,hexagon,,,,,,,,,,,,,,,,,,,,,,,,,,,,,,,,,,,,,,,,,,,,,,,,,,,,,,
296938,2022-10-02_13h53.13.310,vts_reward_expectancy,2022.2.4,MacIntel,120.0048002,Chrome,1471,945,,,l,0.6548,1,94,0,1,9,21,10,1,0,0,0,1,0,1,0,0,star ,circle,,,,,,,,,,,,,,,,,,,,,,,,,,,,,,,,,,,,,,,,,,,,,,,,,,,,,,
296938,2022-10-02_13h53.13.310,vts_reward_expectancy,2022.2.4,MacIntel,120.0048002,Chrome,1471,945,,,a,10.0712,10,104,0,1,10,22,8,1,0,0,1,0,0,0,0,1,hexagon,star,,,,,,,,,,,,,,,,,,,,,,,,,,,,,,,,,,,,,,,,,,,,,,,,,,,,,,
296938,2022-10-02_13h53.13.310,vts_reward_expectancy,2022.2.4,MacIntel,120.0048002,Chrome,1471,945,,,a,0.9015,1,105,0,1,11,23,3,1,0,1,0,0,1,0,0,0,circle,triangle,,,,,,,,,,,,,,,,,,,,,,,,,,,,,,,,,,,,,,,,,,,,,,,,,,,,,,
296938,2022-10-02_13h53.13.310,vts_reward_expectancy,2022.2.4,MacIntel,120.0048002,Chrome,1471,945,,,l,0.497,1,106,0,2,0,24,0,1,1,0,0,0,0,1,0,0,triangle,circle,,,,,,,,,,,,,,,,,,,,,,,,,,,,,,,,,,,,,,,,,,,,,,,,,,,,,,
296938,2022-10-02_13h53.13.310,vts_reward_expectancy,2022.2.4,MacIntel,120.0048002,Chrome,1471,945,,,l,0.8437,10,116,0,2,1,25,5,1,0,1,0,0,0,0,0,1,circle,star,,,,,,,,,,,,,,,,,,,,,,,,,,,,,,,,,,,,,,,,,,,,,,,,,,,,,,
296938,2022-10-02_13h53.13.310,vts_reward_expectancy,2022.2.4,MacIntel,120.0048002,Chrome,1471,945,,,a,1.5208,10,126,0,2,2,26,1,1,1,0,0,0,0,0,1,0,triangle,hexagon,,,,,,,,,,,,,,,,,,,,,,,,,,,,,,,,,,,,,,,,,,,,,,,,,,,,,,
296938,2022-10-02_13h53.13.310,vts_reward_expectancy,2022.2.4,MacIntel,120.0048002,Chrome,1471,945,,,l,0.942,10,136,0,2,3,27,6,1,0,0,1,0,1,0,0,0,hexagon,triangle,,,,,,,,,,,,,,,,,,,,,,,,,,,,,,,,,,,,,,,,,,,,,,,,,,,,,,
296938,2022-10-02_13h53.13.310,vts_reward_expectancy,2022.2.4,MacIntel,120.0048002,Chrome,1471,945,,,a,0.844,10,146,0,2,4,28,10,1,0,0,0,1,0,1,0,0,star ,circle,,,,,,,,,,,,,,,,,,,,,,,,,,,,,,,,,,,,,,,,,,,,,,,,,,,,,,
296938,2022-10-02_13h53.13.310,vts_reward_expectancy,2022.2.4,MacIntel,120.0048002,Chrome,1471,945,,,l,1.1226,10,156,0,2,5,29,9,1,0,0,0,1,1,0,0,0,star,triangle,,,,,,,,,,,,,,,,,,,,,,,,,,,,,,,,,,,,,,,,,,,,,,,,,,,,,,
296938,2022-10-02_13h53.13.310,vts_reward_expectancy,2022.2.4,MacIntel,120.0048002,Chrome,1471,945,,,l,0.9174,10,166,0,2,6,30,4,1,0,1,0,0,0,0,1,0,circle,hexagon,,,,,,,,,,,,,,,,,,,,,,,,,,,,,,,,,,,,,,,,,,,,,,,,,,,,,,
296938,2022-10-02_13h53.13.310,vts_reward_expectancy,2022.2.4,MacIntel,120.0048002,Chrome,1471,945,,,a,1.4334,1,167,0,2,7,31,8,1,0,0,1,0,0,0,0,1,hexagon,star,,,,,,,,,,,,,,,,,,,,,,,,,,,,,,,,,,,,,,,,,,,,,,,,,,,,,,
296938,2022-10-02_13h53.13.310,vts_reward_expectancy,2022.2.4,MacIntel,120.0048002,Chrome,1471,945,,,l,0.939,10,177,0,2,8,32,3,1,0,1,0,0,1,0,0,0,circle,triangle,,,,,,,,,,,,,,,,,,,,,,,,,,,,,,,,,,,,,,,,,,,,,,,,,,,,,,
296938,2022-10-02_13h53.13.310,vts_reward_expectancy,2022.2.4,MacIntel,120.0048002,Chrome,1471,945,,,l,0.9548,1,178,0,2,9,33,2,1,1,0,0,0,0,0,0,1,triangle,star,,,,,,,,,,,,,,,,,,,,,,,,,,,,,,,,,,,,,,,,,,,,,,,,,,,,,,
296938,2022-10-02_13h53.13.310,vts_reward_expectancy,2022.2.4,MacIntel,120.0048002,Chrome,1471,945,,,a,0.8757,10,188,0,2,10,34,11,1,0,0,0,1,0,0,1,0,star,hexagon,,,,,,,,,,,,,,,,,,,,,,,,,,,,,,,,,,,,,,,,,,,,,,,,,,,,,,
296938,2022-10-02_13h53.13.310,vts_reward_expectancy,2022.2.4,MacIntel,120.0048002,Chrome,1471,945,,,a,1.0332,10,198,0,2,11,35,7,1,0,0,1,0,0,1,0,0,hexagon,circle,,,,,,,,,,,,,,,,,,,,,,,,,,,,,,,,,,,,,,,,,,,,,,,,,,,,,,
296938,2022-10-02_13h53.13.310,vts_reward_expectancy,2022.2.4,MacIntel,120.0048002,Chrome,1471,945,,,a,1.2173,10,208,1,0,0,0,9,1,0,0,0,1,1,0,0,0,star,triangle,,,,,,,,,,,,,,,,,,,,,,,,,,,,,,,,,,,,,,,,,,,,,,,,,,,,,,
296938,2022-10-02_13h53.13.310,vts_reward_expectancy,2022.2.4,MacIntel,120.0048002,Chrome,1471,945,,,l,1.5971,1,209,1,0,1,1,5,1,0,1,0,0,0,0,0,1,circle,star,,,,,,,,,,,,,,,,,,,,,,,,,,,,,,,,,,,,,,,,,,,,,,,,,,,,,,
296938,2022-10-02_13h53.13.310,vts_reward_expectancy,2022.2.4,MacIntel,120.0048002,Chrome,1471,945,,,a,0.9537,10,219,1,0,2,2,0,1,1,0,0,0,0,1,0,0,triangle,circle,,,,,,,,,,,,,,,,,,,,,,,,,,,,,,,,,,,,,,,,,,,,,,,,,,,,,,
296938,2022-10-02_13h53.13.310,vts_reward_expectancy,2022.2.4,MacIntel,120.0048002,Chrome,1471,945,,,a,0.8597,10,229,1,0,3,3,1,1,1,0,0,0,0,0,1,0,triangle,hexagon,,,,,,,,,,,,,,,,,,,,,,,,,,,,,,,,,,,,,,,,,,,,,,,,,,,,,,
296938,2022-10-02_13h53.13.310,vts_reward_expectancy,2022.2.4,MacIntel,120.0048002,Chrome,1471,945,,,a,0.5325,10,239,1,0,4,4,10,1,0,0,0,1,0,1,0,0,star ,circle,,,,,,,,,,,,,,,,,,,,,,,,,,,,,,,,,,,,,,,,,,,,,,,,,,,,,,
296938,2022-10-02_13h53.13.310,vts_reward_expectancy,2022.2.4,MacIntel,120.0048002,Chrome,1471,945,,,l,0.4016,10,249,1,0,5,5,2,1,1,0,0,0,0,0,0,1,triangle,star,,,,,,,,,,,,,,,,,,,,,,,,,,,,,,,,,,,,,,,,,,,,,,,,,,,,,,
296938,2022-10-02_13h53.13.310,vts_reward_expectancy,2022.2.4,MacIntel,120.0048002,Chrome,1471,945,,,l,0.4368,10,259,1,0,6,6,8,1,0,0,1,0,0,0,0,1,hexagon,star,,,,,,,,,,,,,,,,,,,,,,,,,,,,,,,,,,,,,,,,,,,,,,,,,,,,,,
296938,2022-10-02_13h53.13.310,vts_reward_expectancy,2022.2.4,MacIntel,120.0048002,Chrome,1471,945,,,l,0.6005,1,260,1,0,7,7,4,1,0,1,0,0,0,0,1,0,circle,hexagon,,,,,,,,,,,,,,,,,,,,,,,,,,,,,,,,,,,,,,,,,,,,,,,,,,,,,,
296938,2022-10-02_13h53.13.310,vts_reward_expectancy,2022.2.4,MacIntel,120.0048002,Chrome,1471,945,,,l,0.6249,1,261,1,0,8,8,6,1,0,0,1,0,1,0,0,0,hexagon,triangle,,,,,,,,,,,,,,,,,,,,,,,,,,,,,,,,,,,,,,,,,,,,,,,,,,,,,,
296938,2022-10-02_13h53.13.310,vts_reward_expectancy,2022.2.4,MacIntel,120.0048002,Chrome,1471,945,,,l,1.0964,10,271,1,0,9,9,3,1,0,1,0,0,1,0,0,0,circle,triangle,,,,,,,,,,,,,,,,,,,,,,,,,,,,,,,,,,,,,,,,,,,,,,,,,,,,,,
296938,2022-10-02_13h53.13.310,vts_reward_expectancy,2022.2.4,MacIntel,120.0048002,Chrome,1471,945,,,l,0.9282,1,272,1,0,10,10,7,1,0,0,1,0,0,1,0,0,hexagon,circle,,,,,,,,,,,,,,,,,,,,,,,,,,,,,,,,,,,,,,,,,,,,,,,,,,,,,,
296938,2022-10-02_13h53.13.310,vts_reward_expectancy,2022.2.4,MacIntel,120.0048002,Chrome,1471,945,,,a,1.153,1,273,1,0,11,11,11,1,0,0,0,1,0,0,1,0,star,hexagon,,,,,,,,,,,,,,,,,,,,,,,,,,,,,,,,,,,,,,,,,,,,,,,,,,,,,,
296938,2022-10-02_13h53.13.310,vts_reward_expectancy,2022.2.4,MacIntel,120.0048002,Chrome,1471,945,,,l,0.7264,1,274,1,1,0,12,5,1,0,1,0,0,0,0,0,1,circle,star,,,,,,,,,,,,,,,,,,,,,,,,,,,,,,,,,,,,,,,,,,,,,,,,,,,,,,
296938,2022-10-02_13h53.13.310,vts_reward_expectancy,2022.2.4,MacIntel,120.0048002,Chrome,1471,945,,,a,1.0004,1,275,1,1,1,13,1,1,1,0,0,0,0,0,1,0,triangle,hexagon,,,,,,,,,,,,,,,,,,,,,,,,,,,,,,,,,,,,,,,,,,,,,,,,,,,,,,
296938,2022-10-02_13h53.13.310,vts_reward_expectancy,2022.2.4,MacIntel,120.0048002,Chrome,1471,945,,,a,1.4926,10,285,1,1,2,14,6,1,0,0,1,0,1,0,0,0,hexagon,triangle,,,,,,,,,,,,,,,,,,,,,,,,,,,,,,,,,,,,,,,,,,,,,,,,,,,,,,
296938,2022-10-02_13h53.13.310,vts_reward_expectancy,2022.2.4,MacIntel,120.0048002,Chrome,1471,945,,,a,0.8447,10,295,1,1,3,15,10,1,0,0,0,1,0,1,0,0,star ,circle,,,,,,,,,,,,,,,,,,,,,,,,,,,,,,,,,,,,,,,,,,,,,,,,,,,,,,
296938,2022-10-02_13h53.13.310,vts_reward_expectancy,2022.2.4,MacIntel,120.0048002,Chrome,1471,945,,,a,0.6005,1,296,1,1,4,16,11,1,0,0,0,1,0,0,1,0,star,hexagon,,,,,,,,,,,,,,,,,,,,,,,,,,,,,,,,,,,,,,,,,,,,,,,,,,,,,,
296938,2022-10-02_13h53.13.310,vts_reward_expectancy,2022.2.4,MacIntel,120.0048002,Chrome,1471,945,,,a,1.1374,10,306,1,1,5,17,2,1,1,0,0,0,0,0,0,1,triangle,star,,,,,,,,,,,,,,,,,,,,,,,,,,,,,,,,,,,,,,,,,,,,,,,,,,,,,,
296938,2022-10-02_13h53.13.310,vts_reward_expectancy,2022.2.4,MacIntel,120.0048002,Chrome,1471,945,,,a,0.641,1,307,1,1,6,18,7,1,0,0,1,0,0,1,0,0,hexagon,circle,,,,,,,,,,,,,,,,,,,,,,,,,,,,,,,,,,,,,,,,,,,,,,,,,,,,,,
296938,2022-10-02_13h53.13.310,vts_reward_expectancy,2022.2.4,MacIntel,120.0048002,Chrome,1471,945,,,a,0.5757,1,308,1,1,7,19,9,1,0,0,0,1,1,0,0,0,star,triangle,,,,,,,,,,,,,,,,,,,,,,,,,,,,,,,,,,,,,,,,,,,,,,,,,,,,,,
296938,2022-10-02_13h53.13.310,vts_reward_expectancy,2022.2.4,MacIntel,120.0048002,Chrome,1471,945,,,l,1.0842,10,318,1,1,8,20,8,1,0,0,1,0,0,0,0,1,hexagon,star,,,,,,,,,,,,,,,,,,,,,,,,,,,,,,,,,,,,,,,,,,,,,,,,,,,,,,
296938,2022-10-02_13h53.13.310,vts_reward_expectancy,2022.2.4,MacIntel,120.0048002,Chrome,1471,945,,,a,0.7841,1,319,1,1,9,21,4,1,0,1,0,0,0,0,1,0,circle,hexagon,,,,,,,,,,,,,,,,,,,,,,,,,,,,,,,,,,,,,,,,,,,,,,,,,,,,,,
296938,2022-10-02_13h53.13.310,vts_reward_expectancy,2022.2.4,MacIntel,120.0048002,Chrome,1471,945,,,l,0.4255,10,329,1,1,10,22,3,1,0,1,0,0,1,0,0,0,circle,triangle,,,,,,,,,,,,,,,,,,,,,,,,,,,,,,,,,,,,,,,,,,,,,,,,,,,,,,
296938,2022-10-02_13h53.13.310,vts_reward_expectancy,2022.2.4,MacIntel,120.0048002,Chrome,1471,945,,,a,0.8755,10,339,1,1,11,23,0,1,1,0,0,0,0,1,0,0,triangle,circle,,,,,,,,,,,,,,,,,,,,,,,,,,,,,,,,,,,,,,,,,,,,,,,,,,,,,,
296938,2022-10-02_13h53.13.310,vts_reward_expectancy,2022.2.4,MacIntel,120.0048002,Chrome,1471,945,,,l,0.9811,1,340,1,2,0,24,8,1,0,0,1,0,0,0,0,1,hexagon,star,,,,,,,,,,,,,,,,,,,,,,,,,,,,,,,,,,,,,,,,,,,,,,,,,,,,,,
296938,2022-10-02_13h53.13.310,vts_reward_expectancy,2022.2.4,MacIntel,120.0048002,Chrome,1471,945,,,l,0.7108,1,341,1,2,1,25,1,1,1,0,0,0,0,0,1,0,triangle,hexagon,,,,,,,,,,,,,,,,,,,,,,,,,,,,,,,,,,,,,,,,,,,,,,,,,,,,,,
296938,2022-10-02_13h53.13.310,vts_reward_expectancy,2022.2.4,MacIntel,120.0048002,Chrome,1471,945,,,l,1.0255,10,351,1,2,2,26,3,1,0,1,0,0,1,0,0,0,circle,triangle,,,,,,,,,,,,,,,,,,,,,,,,,,,,,,,,,,,,,,,,,,,,,,,,,,,,,,
296938,2022-10-02_13h53.13.310,vts_reward_expectancy,2022.2.4,MacIntel,120.0048002,Chrome,1471,945,,,l,0.4044,1,352,1,2,3,27,11,1,0,0,0,1,0,0,1,0,star,hexagon,,,,,,,,,,,,,,,,,,,,,,,,,,,,,,,,,,,,,,,,,,,,,,,,,,,,,,
296938,2022-10-02_13h53.13.310,vts_reward_expectancy,2022.2.4,MacIntel,120.0048002,Chrome,1471,945,,,a,0.3038,1,353,1,2,4,28,10,1,0,0,0,1,0,1,0,0,star ,circle,,,,,,,,,,,,,,,,,,,,,,,,,,,,,,,,,,,,,,,,,,,,,,,,,,,,,,
296938,2022-10-02_13h53.13.310,vts_reward_expectancy,2022.2.4,MacIntel,120.0048002,Chrome,1471,945,,,l,0.4108,1,354,1,2,5,29,4,1,0,1,0,0,0,0,1,0,circle,hexagon,,,,,,,,,,,,,,,,,,,,,,,,,,,,,,,,,,,,,,,,,,,,,,,,,,,,,,
296938,2022-10-02_13h53.13.310,vts_reward_expectancy,2022.2.4,MacIntel,120.0048002,Chrome,1471,945,,,a,0.325,10,364,1,2,6,30,0,1,1,0,0,0,0,1,0,0,triangle,circle,,,,,,,,,,,,,,,,,,,,,,,,,,,,,,,,,,,,,,,,,,,,,,,,,,,,,,
296938,2022-10-02_13h53.13.310,vts_reward_expectancy,2022.2.4,MacIntel,120.0048002,Chrome,1471,945,,,l,0.5362,10,374,1,2,7,31,5,1,0,1,0,0,0,0,0,1,circle,star,,,,,,,,,,,,,,,,,,,,,,,,,,,,,,,,,,,,,,,,,,,,,,,,,,,,,,
296938,2022-10-02_13h53.13.310,vts_reward_expectancy,2022.2.4,MacIntel,120.0048002,Chrome,1471,945,,,a,1.5882,1,375,1,2,8,32,9,1,0,0,0,1,1,0,0,0,star,triangle,,,,,,,,,,,,,,,,,,,,,,,,,,,,,,,,,,,,,,,,,,,,,,,,,,,,,,
296938,2022-10-02_13h53.13.310,vts_reward_expectancy,2022.2.4,MacIntel,120.0048002,Chrome,1471,945,,,a,0.5363,10,385,1,2,9,33,6,1,0,0,1,0,1,0,0,0,hexagon,triangle,,,,,,,,,,,,,,,,,,,,,,,,,,,,,,,,,,,,,,,,,,,,,,,,,,,,,,
296938,2022-10-02_13h53.13.310,vts_reward_expectancy,2022.2.4,MacIntel,120.0048002,Chrome,1471,945,,,l,0.4766,1,386,1,2,10,34,2,1,1,0,0,0,0,0,0,1,triangle,star,,,,,,,,,,,,,,,,,,,,,,,,,,,,,,,,,,,,,,,,,,,,,,,,,,,,,,
296938,2022-10-02_13h53.13.310,vts_reward_expectancy,2022.2.4,MacIntel,120.0048002,Chrome,1471,945,,,a,0.5759,1,387,1,2,11,35,7,1,0,0,1,0,0,1,0,0,hexagon,circle,,,,,,,,,,,,,,,,,,,,,,,,,,,,,,,,,,,,,,,,,,,,,,,,,,,,,,
296938,2022-10-02_13h53.13.310,vts_reward_expectancy,2022.2.4,MacIntel,120.0048002,Chrome,1471,945,,,a,0.6202,1,388,2,0,0,0,10,1,0,0,0,1,0,1,0,0,star ,circle,,,,,,,,,,,,,,,,,,,,,,,,,,,,,,,,,,,,,,,,,,,,,,,,,,,,,,
296938,2022-10-02_13h53.13.310,vts_reward_expectancy,2022.2.4,MacIntel,120.0048002,Chrome,1471,945,,,a,0.4002,1,389,2,0,1,1,6,1,0,0,1,0,1,0,0,0,hexagon,triangle,,,,,,,,,,,,,,,,,,,,,,,,,,,,,,,,,,,,,,,,,,,,,,,,,,,,,,
296938,2022-10-02_13h53.13.310,vts_reward_expectancy,2022.2.4,MacIntel,120.0048002,Chrome,1471,945,,,a,1.8699,10,399,2,0,2,2,1,1,1,0,0,0,0,0,1,0,triangle,hexagon,,,,,,,,,,,,,,,,,,,,,,,,,,,,,,,,,,,,,,,,,,,,,,,,,,,,,,
296938,2022-10-02_13h53.13.310,vts_reward_expectancy,2022.2.4,MacIntel,120.0048002,Chrome,1471,945,,,l,0.793,1,400,2,0,3,3,2,1,1,0,0,0,0,0,0,1,triangle,star,,,,,,,,,,,,,,,,,,,,,,,,,,,,,,,,,,,,,,,,,,,,,,,,,,,,,,
296938,2022-10-02_13h53.13.310,vts_reward_expectancy,2022.2.4,MacIntel,120.0048002,Chrome,1471,945,,,a,0.6187,10,410,2,0,4,4,9,1,0,0,0,1,1,0,0,0,star,triangle,,,,,,,,,,,,,,,,,,,,,,,,,,,,,,,,,,,,,,,,,,,,,,,,,,,,,,
296938,2022-10-02_13h53.13.310,vts_reward_expectancy,2022.2.4,MacIntel,120.0048002,Chrome,1471,945,,,l,0.5325,10,420,2,0,5,5,3,1,0,1,0,0,1,0,0,0,circle,triangle,,,,,,,,,,,,,,,,,,,,,,,,,,,,,,,,,,,,,,,,,,,,,,,,,,,,,,
296938,2022-10-02_13h53.13.310,vts_reward_expectancy,2022.2.4,MacIntel,120.0048002,Chrome,1471,945,,,a,47.7501,10,430,2,0,6,6,0,1,1,0,0,0,0,1,0,0,triangle,circle,,,,,,,,,,,,,,,,,,,,,,,,,,,,,,,,,,,,,,,,,,,,,,,,,,,,,,
296938,2022-10-02_13h53.13.310,vts_reward_expectancy,2022.2.4,MacIntel,120.0048002,Chrome,1471,945,,,l,0.2122,10,440,2,0,7,7,8,1,0,0,1,0,0,0,0,1,hexagon,star,,,,,,,,,,,,,,,,,,,,,,,,,,,,,,,,,,,,,,,,,,,,,,,,,,,,,,
296938,2022-10-02_13h53.13.310,vts_reward_expectancy,2022.2.4,MacIntel,120.0048002,Chrome,1471,945,,,a,0.5508,1,441,2,0,8,8,7,1,0,0,1,0,0,1,0,0,hexagon,circle,,,,,,,,,,,,,,,,,,,,,,,,,,,,,,,,,,,,,,,,,,,,,,,,,,,,,,
296938,2022-10-02_13h53.13.310,vts_reward_expectancy,2022.2.4,MacIntel,120.0048002,Chrome,1471,945,,,a,0.6432,1,442,2,0,9,9,11,1,0,0,0,1,0,0,1,0,star,hexagon,,,,,,,,,,,,,,,,,,,,,,,,,,,,,,,,,,,,,,,,,,,,,,,,,,,,,,
296938,2022-10-02_13h53.13.310,vts_reward_expectancy,2022.2.4,MacIntel,120.0048002,Chrome,1471,945,,,l,0.4016,1,443,2,0,10,10,4,1,0,1,0,0,0,0,1,0,circle,hexagon,,,,,,,,,,,,,,,,,,,,,,,,,,,,,,,,,,,,,,,,,,,,,,,,,,,,,,
296938,2022-10-02_13h53.13.310,vts_reward_expectancy,2022.2.4,MacIntel,120.0048002,Chrome,1471,945,,,l,0.4293,1,444,2,0,11,11,5,1,0,1,0,0,0,0,0,1,circle,star,,,,,,,,,,,,,,,,,,,,,,,,,,,,,,,,,,,,,,,,,,,,,,,,,,,,,,
296938,2022-10-02_13h53.13.310,vts_reward_expectancy,2022.2.4,MacIntel,120.0048002,Chrome,1471,945,,,l,0.827,10,454,2,1,0,12,3,1,0,1,0,0,1,0,0,0,circle,triangle,,,,,,,,,,,,,,,,,,,,,,,,,,,,,,,,,,,,,,,,,,,,,,,,,,,,,,
296938,2022-10-02_13h53.13.310,vts_reward_expectancy,2022.2.4,MacIntel,120.0048002,Chrome,1471,945,,,a,3.4147,10,464,2,1,1,13,4,1,0,1,0,0,0,0,1,0,circle,hexagon,,,,,,,,,,,,,,,,,,,,,,,,,,,,,,,,,,,,,,,,,,,,,,,,,,,,,,
296938,2022-10-02_13h53.13.310,vts_reward_expectancy,2022.2.4,MacIntel,120.0048002,Chrome,1471,945,,,l,0.9276,1,465,2,1,2,14,8,1,0,0,1,0,0,0,0,1,hexagon,star,,,,,,,,,,,,,,,,,,,,,,,,,,,,,,,,,,,,,,,,,,,,,,,,,,,,,,
296938,2022-10-02_13h53.13.310,vts_reward_expectancy,2022.2.4,MacIntel,120.0048002,Chrome,1471,945,,,l,1.2581,10,475,2,1,3,15,2,1,1,0,0,0,0,0,0,1,triangle,star,,,,,,,,,,,,,,,,,,,,,,,,,,,,,,,,,,,,,,,,,,,,,,,,,,,,,,
296938,2022-10-02_13h53.13.310,vts_reward_expectancy,2022.2.4,MacIntel,120.0048002,Chrome,1471,945,,,a,1.1601,1,476,2,1,4,16,6,1,0,0,1,0,1,0,0,0,hexagon,triangle,,,,,,,,,,,,,,,,,,,,,,,,,,,,,,,,,,,,,,,,,,,,,,,,,,,,,,
296938,2022-10-02_13h53.13.310,vts_reward_expectancy,2022.2.4,MacIntel,120.0048002,Chrome,1471,945,,,a,0.7101,1,477,2,1,5,17,10,1,0,0,0,1,0,1,0,0,star ,circle,,,,,,,,,,,,,,,,,,,,,,,,,,,,,,,,,,,,,,,,,,,,,,,,,,,,,,
296938,2022-10-02_13h53.13.310,vts_reward_expectancy,2022.2.4,MacIntel,120.0048002,Chrome,1471,945,,,a,1.0606,10,487,2,1,6,18,1,1,1,0,0,0,0,0,1,0,triangle,hexagon,,,,,,,,,,,,,,,,,,,,,,,,,,,,,,,,,,,,,,,,,,,,,,,,,,,,,,
296938,2022-10-02_13h53.13.310,vts_reward_expectancy,2022.2.4,MacIntel,120.0048002,Chrome,1471,945,,,l,0.885,10,497,2,1,7,19,7,1,0,0,1,0,0,1,0,0,hexagon,circle,,,,,,,,,,,,,,,,,,,,,,,,,,,,,,,,,,,,,,,,,,,,,,,,,,,,,,
296938,2022-10-02_13h53.13.310,vts_reward_expectancy,2022.2.4,MacIntel,120.0048002,Chrome,1471,945,,,a,0.7663,10,507,2,1,8,20,0,1,1,0,0,0,0,1,0,0,triangle,circle,,,,,,,,,,,,,,,,,,,,,,,,,,,,,,,,,,,,,,,,,,,,,,,,,,,,,,
296938,2022-10-02_13h53.13.310,vts_reward_expectancy,2022.2.4,MacIntel,120.0048002,Chrome,1471,945,,,l,0.6706,10,517,2,1,9,21,9,1,0,0,0,1,1,0,0,0,star,triangle,,,,,,,,,,,,,,,,,,,,,,,,,,,,,,,,,,,,,,,,,,,,,,,,,,,,,,
296938,2022-10-02_13h53.13.310,vts_reward_expectancy,2022.2.4,MacIntel,120.0048002,Chrome,1471,945,,,a,0.684,10,527,2,1,10,22,11,1,0,0,0,1,0,0,1,0,star,hexagon,,,,,,,,,,,,,,,,,,,,,,,,,,,,,,,,,,,,,,,,,,,,,,,,,,,,,,
296938,2022-10-02_13h53.13.310,vts_reward_expectancy,2022.2.4,MacIntel,120.0048002,Chrome,1471,945,,,l,1.8914,1,528,2,1,11,23,5,1,0,1,0,0,0,0,0,1,circle,star,,,,,,,,,,,,,,,,,,,,,,,,,,,,,,,,,,,,,,,,,,,,,,,,,,,,,,
296938,2022-10-02_13h53.13.310,vts_reward_expectancy,2022.2.4,MacIntel,120.0048002,Chrome,1471,945,,,l,0.5291,10,538,2,2,0,24,10,1,0,0,0,1,0,1,0,0,star ,circle,,,,,,,,,,,,,,,,,,,,,,,,,,,,,,,,,,,,,,,,,,,,,,,,,,,,,,
296938,2022-10-02_13h53.13.310,vts_reward_expectancy,2022.2.4,MacIntel,120.0048002,Chrome,1471,945,,,l,0.1471,10,548,2,2,1,25,5,1,0,1,0,0,0,0,0,1,circle,star,,,,,,,,,,,,,,,,,,,,,,,,,,,,,,,,,,,,,,,,,,,,,,,,,,,,,,
296938,2022-10-02_13h53.13.310,vts_reward_expectancy,2022.2.4,MacIntel,120.0048002,Chrome,1471,945,,,a,0.0022,10,558,2,2,2,26,2,1,1,0,0,0,0,0,0,1,triangle,star,,,,,,,,,,,,,,,,,,,,,,,,,,,,,,,,,,,,,,,,,,,,,,,,,,,,,,
296938,2022-10-02_13h53.13.310,vts_reward_expectancy,2022.2.4,MacIntel,120.0048002,Chrome,1471,945,,,l,0.1764,1,559,2,2,3,27,8,1,0,0,1,0,0,0,0,1,hexagon,star,,,,,,,,,,,,,,,,,,,,,,,,,,,,,,,,,,,,,,,,,,,,,,,,,,,,,,
296938,2022-10-02_13h53.13.310,vts_reward_expectancy,2022.2.4,MacIntel,120.0048002,Chrome,1471,945,,,l,0.2695,10,569,2,2,4,28,1,1,1,0,0,0,0,0,1,0,triangle,hexagon,,,,,,,,,,,,,,,,,,,,,,,,,,,,,,,,,,,,,,,,,,,,,,,,,,,,,,
296938,2022-10-02_13h53.13.310,vts_reward_expectancy,2022.2.4,MacIntel,120.0048002,Chrome,1471,945,,,l,0.5238,10,579,2,2,5,29,3,1,0,1,0,0,1,0,0,0,circle,triangle,,,,,,,,,,,,,,,,,,,,,,,,,,,,,,,,,,,,,,,,,,,,,,,,,,,,,,
296938,2022-10-02_13h53.13.310,vts_reward_expectancy,2022.2.4,MacIntel,120.0048002,Chrome,1471,945,,,l,1.1719,10,589,2,2,6,30,9,1,0,0,0,1,1,0,0,0,star,triangle,,,,,,,,,,,,,,,,,,,,,,,,,,,,,,,,,,,,,,,,,,,,,,,,,,,,,,
296938,2022-10-02_13h53.13.310,vts_reward_expectancy,2022.2.4,MacIntel,120.0048002,Chrome,1471,945,,,a,0.4961,10,599,2,2,7,31,0,1,1,0,0,0,0,1,0,0,triangle,circle,,,,,,,,,,,,,,,,,,,,,,,,,,,,,,,,,,,,,,,,,,,,,,,,,,,,,,
296938,2022-10-02_13h53.13.310,vts_reward_expectancy,2022.2.4,MacIntel,120.0048002,Chrome,1471,945,,,l,0.2441,1,600,2,2,8,32,7,1,0,0,1,0,0,1,0,0,hexagon,circle,,,,,,,,,,,,,,,,,,,,,,,,,,,,,,,,,,,,,,,,,,,,,,,,,,,,,,
296938,2022-10-02_13h53.13.310,vts_reward_expectancy,2022.2.4,MacIntel,120.0048002,Chrome,1471,945,,,l,0.6657,10,610,2,2,9,33,6,1,0,0,1,0,1,0,0,0,hexagon,triangle,,,,,,,,,,,,,,,,,,,,,,,,,,,,,,,,,,,,,,,,,,,,,,,,,,,,,,
296938,2022-10-02_13h53.13.310,vts_reward_expectancy,2022.2.4,MacIntel,120.0048002,Chrome,1471,945,,,l,0.4237,10,620,2,2,10,34,11,1,0,0,0,1,0,0,1,0,star,hexagon,,,,,,,,,,,,,,,,,,,,,,,,,,,,,,,,,,,,,,,,,,,,,,,,,,,,,,
296938,2022-10-02_13h53.13.310,vts_reward_expectancy,2022.2.4,MacIntel,120.0048002,Chrome,1471,945,,,l,0.9854,10,630,2,2,11,35,4,1,0,1,0,0,0,0,1,0,circle,hexagon,,,,,,,,,,,,,,,,,,,,,,,,,,,,,,,,,,,,,,,,,,,,,,,,,,,,,,
296938,2022-10-02_13h53.13.310,vts_reward_expectancy,2022.2.4,MacIntel,120.0048002,Chrome,1471,945,,,,,,,,,,,,,,,,,,,,,,,132,F,triangle,0,0,f,2.3842,0,0,0,0,0,1,,,,,,,,,,,,,,,,,,,,,,,,,,,,,,,,,,,,,,,,,
296938,2022-10-02_13h53.13.310,vts_reward_expectancy,2022.2.4,MacIntel,120.0048002,Chrome,1471,945,,,,,,,,,,,,,,,,,,,,,,,174,B,hexagon,0,1,,,0,1,0,1,0,1,,,,,,,,,,,,,,,,,,,,,,,,,,,,,,,,,,,,,,,,,
296938,2022-10-02_13h53.13.310,vts_reward_expectancy,2022.2.4,MacIntel,120.0048002,Chrome,1471,945,,,,,,,,,,,,,,,,,,,,,,,167,H,star,0,1,,,0,2,0,2,0,1,,,,,,,,,,,,,,,,,,,,,,,,,,,,,,,,,,,,,,,,,
296938,2022-10-02_13h53.13.310,vts_reward_expectancy,2022.2.4,MacIntel,120.0048002,Chrome,1471,945,,,,,,,,,,,,,,,,,,,,,,,160,S,circle,0,1,,,0,3,0,3,0,1,,,,,,,,,,,,,,,,,,,,,,,,,,,,,,,,,,,,,,,,,
296938,2022-10-02_13h53.13.310,vts_reward_expectancy,2022.2.4,MacIntel,120.0048002,Chrome,1471,945,,,,,,,,,,,,,,,,,,,,,,,125,D,triangle,0,1,,,0,4,0,4,0,1,,,,,,,,,,,,,,,,,,,,,,,,,,,,,,,,,,,,,,,,,
296938,2022-10-02_13h53.13.310,vts_reward_expectancy,2022.2.4,MacIntel,120.0048002,Chrome,1471,945,,,,,,,,,,,,,,,,,,,,,,,139,U,hexagon,0,1,,,0,5,0,5,0,1,,,,,,,,,,,,,,,,,,,,,,,,,,,,,,,,,,,,,,,,,
296938,2022-10-02_13h53.13.310,vts_reward_expectancy,2022.2.4,MacIntel,120.0048002,Chrome,1471,945,,,,,,,,,,,,,,,,,,,,,,,181,Y,star,0,1,,,0,6,0,6,0,1,,,,,,,,,,,,,,,,,,,,,,,,,,,,,,,,,,,,,,,,,
296938,2022-10-02_13h53.13.310,vts_reward_expectancy,2022.2.4,MacIntel,120.0048002,Chrome,1471,945,,,,,,,,,,,,,,,,,,,,,,,146,W,circle,0,1,,,0,7,0,7,0,1,,,,,,,,,,,,,,,,,,,,,,,,,,,,,,,,,,,,,,,,,
296938,2022-10-02_13h53.13.310,vts_reward_expectancy,2022.2.4,MacIntel,120.0048002,Chrome,1471,945,,,,,,,,,,,,,,,,,,,,,,,132,F,circle,0,1,,,0,8,0,8,0,1,,,,,,,,,,,,,,,,,,,,,,,,,,,,,,,,,,,,,,,,,
296938,2022-10-02_13h53.13.310,vts_reward_expectancy,2022.2.4,MacIntel,120.0048002,Chrome,1471,945,,,,,,,,,,,,,,,,,,,,,,,174,B,hexagon,0,1,,,0,9,0,9,0,1,,,,,,,,,,,,,,,,,,,,,,,,,,,,,,,,,,,,,,,,,
296938,2022-10-02_13h53.13.310,vts_reward_expectancy,2022.2.4,MacIntel,120.0048002,Chrome,1471,945,,,,,,,,,,,,,,,,,,,,,,,160,F,circle,0,1,d,0.5432,1,0,0,0,0,1,,,,,,,,,,,,,,,,,,,,,,,,,,,,,,,,,,,,,,,,,
296938,2022-10-02_13h53.13.310,vts_reward_expectancy,2022.2.4,MacIntel,120.0048002,Chrome,1471,945,,,,,,,,,,,,,,,,,,,,,,,174,H,triangle,1,1,f,0.7232,1,1,0,1,0,1,,,,,,,,,,,,,,,,,,,,,,,,,,,,,,,,,,,,,,,,,
296938,2022-10-02_13h53.13.310,vts_reward_expectancy,2022.2.4,MacIntel,120.0048002,Chrome,1471,945,,,,,,,,,,,,,,,,,,,,,,,167,D,hexagon,1,0,f,1.2342,1,2,0,2,0,1,,,,,,,,,,,,,,,,,,,,,,,,,,,,,,,,,,,,,,,,,
296938,2022-10-02_13h53.13.310,vts_reward_expectancy,2022.2.4,MacIntel,120.0048002,Chrome,1471,945,,,,,,,,,,,,,,,,,,,,,,,181,U,star,1,0,f,2.8468,1,3,0,3,0,1,,,,,,,,,,,,,,,,,,,,,,,,,,,,,,,,,,,,,,,,,
296938,2022-10-02_13h53.13.310,vts_reward_expectancy,2022.2.4,MacIntel,120.0048002,Chrome,1471,945,,,,,,,,,,,,,,,,,,,,,,,125,B,circle,1,0,d,0.7475,1,4,0,4,0,1,,,,,,,,,,,,,,,,,,,,,,,,,,,,,,,,,,,,,,,,,
296938,2022-10-02_13h53.13.310,vts_reward_expectancy,2022.2.4,MacIntel,120.0048002,Chrome,1471,945,,,,,,,,,,,,,,,,,,,,,,,132,Y,triangle,1,0,d,0.5591,1,5,0,5,0,1,,,,,,,,,,,,,,,,,,,,,,,,,,,,,,,,,,,,,,,,,
296938,2022-10-02_13h53.13.310,vts_reward_expectancy,2022.2.4,MacIntel,120.0048002,Chrome,1471,945,,,,,,,,,,,,,,,,,,,,,,,139,S,hexagon,1,0,d,0.7721,1,6,0,6,0,1,,,,,,,,,,,,,,,,,,,,,,,,,,,,,,,,,,,,,,,,,
296938,2022-10-02_13h53.13.310,vts_reward_expectancy,2022.2.4,MacIntel,120.0048002,Chrome,1471,945,,,,,,,,,,,,,,,,,,,,,,,146,W,star,1,0,d,0.7875,1,7,0,7,0,1,,,,,,,,,,,,,,,,,,,,,,,,,,,,,,,,,,,,,,,,,
296938,2022-10-02_13h53.13.310,vts_reward_expectancy,2022.2.4,MacIntel,120.0048002,Chrome,1471,945,,,,,,,,,,,,,,,,,,,,,,,160,F,triangle,0,0,d,0.8066,1,8,0,8,0,1,,,,,,,,,,,,,,,,,,,,,,,,,,,,,,,,,,,,,,,,,
296938,2022-10-02_13h53.13.310,vts_reward_expectancy,2022.2.4,MacIntel,120.0048002,Chrome,1471,945,,,,,,,,,,,,,,,,,,,,,,,174,H,hexagon,1,1,f,1.3354,1,9,0,9,0,1,,,,,,,,,,,,,,,,,,,,,,,,,,,,,,,,,,,,,,,,,
296938,2022-10-02_13h53.13.310,vts_reward_expectancy,2022.2.4,MacIntel,120.0048002,Chrome,1471,945,,,,,,,,,,,,,,,,,,,,,,,181,F,triangle,1,0,f,0.6408,2,0,0,0,0,1,,,,,,,,,,,,,,,,,,,,,,,,,,,,,,,,,,,,,,,,,
296938,2022-10-02_13h53.13.310,vts_reward_expectancy,2022.2.4,MacIntel,120.0048002,Chrome,1471,945,,,,,,,,,,,,,,,,,,,,,,,132,Y,hexagon,1,0,d,0.5703,2,1,0,1,0,1,,,,,,,,,,,,,,,,,,,,,,,,,,,,,,,,,,,,,,,,,
296938,2022-10-02_13h53.13.310,vts_reward_expectancy,2022.2.4,MacIntel,120.0048002,Chrome,1471,945,,,,,,,,,,,,,,,,,,,,,,,174,S,star,1,0,f,0.5371,2,2,0,2,0,1,,,,,,,,,,,,,,,,,,,,,,,,,,,,,,,,,,,,,,,,,
296938,2022-10-02_13h53.13.310,vts_reward_expectancy,2022.2.4,MacIntel,120.0048002,Chrome,1471,945,,,,,,,,,,,,,,,,,,,,,,,125,H,circle,1,0,d,0.5191,2,3,0,3,0,1,,,,,,,,,,,,,,,,,,,,,,,,,,,,,,,,,,,,,,,,,
296938,2022-10-02_13h53.13.310,vts_reward_expectancy,2022.2.4,MacIntel,120.0048002,Chrome,1471,945,,,,,,,,,,,,,,,,,,,,,,,167,D,triangle,1,0,f,0.712,2,4,0,4,0,1,,,,,,,,,,,,,,,,,,,,,,,,,,,,,,,,,,,,,,,,,
296938,2022-10-02_13h53.13.310,vts_reward_expectancy,2022.2.4,MacIntel,120.0048002,Chrome,1471,945,,,,,,,,,,,,,,,,,,,,,,,160,W,hexagon,0,0,,,2,5,0,5,0,1,,,,,,,,,,,,,,,,,,,,,,,,,,,,,,,,,,,,,,,,,
296938,2022-10-02_13h53.13.310,vts_reward_expectancy,2022.2.4,MacIntel,120.0048002,Chrome,1471,945,,,,,,,,,,,,,,,,,,,,,,,139,B,star,0,1,,,2,6,0,6,0,1,,,,,,,,,,,,,,,,,,,,,,,,,,,,,,,,,,,,,,,,,
296938,2022-10-02_13h53.13.310,vts_reward_expectancy,2022.2.4,MacIntel,120.0048002,Chrome,1471,945,,,,,,,,,,,,,,,,,,,,,,,146,U,circle,0,1,,,2,7,0,7,0,1,,,,,,,,,,,,,,,,,,,,,,,,,,,,,,,,,,,,,,,,,
296938,2022-10-02_13h53.13.310,vts_reward_expectancy,2022.2.4,MacIntel,120.0048002,Chrome,1471,945,,,,,,,,,,,,,,,,,,,,,,,181,F,hexagon,1,1,f,2.023,2,8,0,8,0,1,,,,,,,,,,,,,,,,,,,,,,,,,,,,,,,,,,,,,,,,,
296938,2022-10-02_13h53.13.310,vts_reward_expectancy,2022.2.4,MacIntel,120.0048002,Chrome,1471,945,,,,,,,,,,,,,,,,,,,,,,,132,Y,circle,1,0,d,2.0004,2,9,0,9,0,1,,,,,,,,,,,,,,,,,,,,,,,,,,,,,,,,,,,,,,,,,
296938,2022-10-02_13h53.13.310,vts_reward_expectancy,2022.2.4,MacIntel,120.0048002,Chrome,1471,945,,,,,,,,,,,,,,,,,,,,,,,125,F,hexagon,1,0,,,3,,,,,,j,1.7198,0,0,0,0,1,,,,,,,,,,,,,,,,,,,,,,,,,,,,,,,,,,
296938,2022-10-02_13h53.13.310,vts_reward_expectancy,2022.2.4,MacIntel,120.0048002,Chrome,1471,945,,,,,,,,,,,,,,,,,,,,,,,132,W,triangle,1,0,,,3,,,,,,k,0.6659,1,0,1,0,1,,,,,,,,,,,,,,,,,,,,,,,,,,,,,,,,,,
296938,2022-10-02_13h53.13.310,vts_reward_expectancy,2022.2.4,MacIntel,120.0048002,Chrome,1471,945,,,,,,,,,,,,,,,,,,,,,,,181,S,star,1,0,,,3,,,,,,k,1.1253,2,0,2,0,1,,,,,,,,,,,,,,,,,,,,,,,,,,,,,,,,,,
296938,2022-10-02_13h53.13.310,vts_reward_expectancy,2022.2.4,MacIntel,120.0048002,Chrome,1471,945,,,,,,,,,,,,,,,,,,,,,,,167,B,circle,1,0,,,3,,,,,,j,0.6506,3,0,3,0,1,,,,,,,,,,,,,,,,,,,,,,,,,,,,,,,,,,
296938,2022-10-02_13h53.13.310,vts_reward_expectancy,2022.2.4,MacIntel,120.0048002,Chrome,1471,945,,,,,,,,,,,,,,,,,,,,,,,174,D,hexagon,0,0,,,3,,,,,,k,0.8472,4,0,4,0,1,,,,,,,,,,,,,,,,,,,,,,,,,,,,,,,,,,
296938,2022-10-02_13h53.13.310,vts_reward_expectancy,2022.2.4,MacIntel,120.0048002,Chrome,1471,945,,,,,,,,,,,,,,,,,,,,,,,146,U,triangle,1,1,,,3,,,,,,k,1.6938,5,0,5,0,1,,,,,,,,,,,,,,,,,,,,,,,,,,,,,,,,,,
296938,2022-10-02_13h53.13.310,vts_reward_expectancy,2022.2.4,MacIntel,120.0048002,Chrome,1471,945,,,,,,,,,,,,,,,,,,,,,,,160,Y,star,1,0,,,3,,,,,,k,1.1406,6,0,6,0,1,,,,,,,,,,,,,,,,,,,,,,,,,,,,,,,,,,
296938,2022-10-02_13h53.13.310,vts_reward_expectancy,2022.2.4,MacIntel,120.0048002,Chrome,1471,945,,,,,,,,,,,,,,,,,,,,,,,139,H,circle,1,0,,,3,,,,,,j,0.8321,7,0,7,0,1,,,,,,,,,,,,,,,,,,,,,,,,,,,,,,,,,,
296938,2022-10-02_13h53.13.310,vts_reward_expectancy,2022.2.4,MacIntel,120.0048002,Chrome,1471,945,,,,,,,,,,,,,,,,,,,,,,,125,F,star,1,0,,,3,,,,,,j,0.8053,8,0,8,0,1,,,,,,,,,,,,,,,,,,,,,,,,,,,,,,,,,,
296938,2022-10-02_13h53.13.310,vts_reward_expectancy,2022.2.4,MacIntel,120.0048002,Chrome,1471,945,,,,,,,,,,,,,,,,,,,,,,,132,W,triangle,0,0,,,3,,,,,,,,9,0,9,0,1,,,,,,,,,,,,,,,,,,,,,,,,,,,,,,,,,,
296938,2022-10-02_13h53.13.310,vts_reward_expectancy,2022.2.4,MacIntel,120.0048002,Chrome,1471,945,,,,,,,,,,,,,,,,,,,,,,,146,W,hexagon,1,1,,,4,,,,,,k,0.6403,0,0,0,0,1,,,,,,,,,,,,,,,,,,,,,,,,,,,,,,,,,,
296938,2022-10-02_13h53.13.310,vts_reward_expectancy,2022.2.4,MacIntel,120.0048002,Chrome,1471,945,,,,,,,,,,,,,,,,,,,,,,,132,H,star,1,0,,,4,,,,,,j,1.4736,1,0,1,0,1,,,,,,,,,,,,,,,,,,,,,,,,,,,,,,,,,,
296938,2022-10-02_13h53.13.310,vts_reward_expectancy,2022.2.4,MacIntel,120.0048002,Chrome,1471,945,,,,,,,,,,,,,,,,,,,,,,,174,D,circle,0,0,,,4,,,,,,k,0.5901,2,0,2,0,1,,,,,,,,,,,,,,,,,,,,,,,,,,,,,,,,,,
296938,2022-10-02_13h53.13.310,vts_reward_expectancy,2022.2.4,MacIntel,120.0048002,Chrome,1471,945,,,,,,,,,,,,,,,,,,,,,,,125,Y,triangle,1,1,,,4,,,,,,k,0.9577,3,0,3,0,1,,,,,,,,,,,,,,,,,,,,,,,,,,,,,,,,,,
296938,2022-10-02_13h53.13.310,vts_reward_expectancy,2022.2.4,MacIntel,120.0048002,Chrome,1471,945,,,,,,,,,,,,,,,,,,,,,,,160,B,hexagon,1,0,,,4,,,,,,j,0.4645,4,0,4,0,1,,,,,,,,,,,,,,,,,,,,,,,,,,,,,,,,,,
296938,2022-10-02_13h53.13.310,vts_reward_expectancy,2022.2.4,MacIntel,120.0048002,Chrome,1471,945,,,,,,,,,,,,,,,,,,,,,,,181,F,star,1,0,,,4,,,,,,j,0.6643,5,0,5,0,1,,,,,,,,,,,,,,,,,,,,,,,,,,,,,,,,,,
296938,2022-10-02_13h53.13.310,vts_reward_expectancy,2022.2.4,MacIntel,120.0048002,Chrome,1471,945,,,,,,,,,,,,,,,,,,,,,,,139,S,circle,1,0,,,4,,,,,,k,0.8783,6,0,6,0,1,,,,,,,,,,,,,,,,,,,,,,,,,,,,,,,,,,
296938,2022-10-02_13h53.13.310,vts_reward_expectancy,2022.2.4,MacIntel,120.0048002,Chrome,1471,945,,,,,,,,,,,,,,,,,,,,,,,167,U,triangle,1,0,,,4,,,,,,k,2.7416,7,0,7,0,1,,,,,,,,,,,,,,,,,,,,,,,,,,,,,,,,,,
296938,2022-10-02_13h53.13.310,vts_reward_expectancy,2022.2.4,MacIntel,120.0048002,Chrome,1471,945,,,,,,,,,,,,,,,,,,,,,,,146,W,star,0,0,,,4,,,,,,,,8,0,8,0,1,,,,,,,,,,,,,,,,,,,,,,,,,,,,,,,,,,
296938,2022-10-02_13h53.13.310,vts_reward_expectancy,2022.2.4,MacIntel,120.0048002,Chrome,1471,945,,,,,,,,,,,,,,,,,,,,,,,132,H,triangle,1,1,,,4,,,,,,j,0.6037,9,0,9,0,1,,,,,,,,,,,,,,,,,,,,,,,,,,,,,,,,,,
296938,2022-10-02_13h53.13.310,vts_reward_expectancy,2022.2.4,MacIntel,120.0048002,Chrome,1471,945,,,,,,,,,,,,,,,,,,,,,,,160,F,triangle,0,0,,,5,,,,,,k,0.5968,0,0,0,0,1,,,,,,,,,,,,,,,,,,,,,,,,,,,,,,,,,,
296938,2022-10-02_13h53.13.310,vts_reward_expectancy,2022.2.4,MacIntel,120.0048002,Chrome,1471,945,,,,,,,,,,,,,,,,,,,,,,,167,Y,hexagon,1,1,,,5,,,,,,k,1.1064,1,0,1,0,1,,,,,,,,,,,,,,,,,,,,,,,,,,,,,,,,,,
296938,2022-10-02_13h53.13.310,vts_reward_expectancy,2022.2.4,MacIntel,120.0048002,Chrome,1471,945,,,,,,,,,,,,,,,,,,,,,,,146,U,star,1,0,,,5,,,,,,k,2.0849,2,0,2,0,1,,,,,,,,,,,,,,,,,,,,,,,,,,,,,,,,,,
296938,2022-10-02_13h53.13.310,vts_reward_expectancy,2022.2.4,MacIntel,120.0048002,Chrome,1471,945,,,,,,,,,,,,,,,,,,,,,,,181,S,circle,1,0,,,5,,,,,,k,0.7264,3,0,3,0,1,,,,,,,,,,,,,,,,,,,,,,,,,,,,,,,,,,
296938,2022-10-02_13h53.13.310,vts_reward_expectancy,2022.2.4,MacIntel,120.0048002,Chrome,1471,945,,,,,,,,,,,,,,,,,,,,,,,132,B,triangle,1,0,,,5,,,,,,j,0.5827,4,0,4,0,1,,,,,,,,,,,,,,,,,,,,,,,,,,,,,,,,,,
296938,2022-10-02_13h53.13.310,vts_reward_expectancy,2022.2.4,MacIntel,120.0048002,Chrome,1471,945,,,,,,,,,,,,,,,,,,,,,,,125,W,hexagon,1,0,,,5,,,,,,k,0.4927,5,0,5,0,1,,,,,,,,,,,,,,,,,,,,,,,,,,,,,,,,,,
296938,2022-10-02_13h53.13.310,vts_reward_expectancy,2022.2.4,MacIntel,120.0048002,Chrome,1471,945,,,,,,,,,,,,,,,,,,,,,,,174,D,star,1,0,,,5,,,,,,j,0.5557,6,0,6,0,1,,,,,,,,,,,,,,,,,,,,,,,,,,,,,,,,,,
296938,2022-10-02_13h53.13.310,vts_reward_expectancy,2022.2.4,MacIntel,120.0048002,Chrome,1471,945,,,,,,,,,,,,,,,,,,,,,,,139,H,circle,1,0,,,5,,,,,,j,1.0234,7,0,7,0,1,,,,,,,,,,,,,,,,,,,,,,,,,,,,,,,,,,
296938,2022-10-02_13h53.13.310,vts_reward_expectancy,2022.2.4,MacIntel,120.0048002,Chrome,1471,945,,,,,,,,,,,,,,,,,,,,,,,160,F,hexagon,1,0,,,5,,,,,,j,0.8481,8,0,8,0,1,,,,,,,,,,,,,,,,,,,,,,,,,,,,,,,,,,
296938,2022-10-02_13h53.13.310,vts_reward_expectancy,2022.2.4,MacIntel,120.0048002,Chrome,1471,945,,,,,,,,,,,,,,,,,,,,,,,167,Y,circle,1,0,,,5,,,,,,k,0.8501,9,0,9,0,1,,,,,,,,,,,,,,,,,,,,,,,,,,,,,,,,,,
296938,2022-10-02_13h53.13.310,vts_reward_expectancy,2022.2.4,MacIntel,120.0048002,Chrome,1471,945,,,,,0,630,,,,,,,,,,,,,,,,,146,Y,triangle,1,0,,,6,,,,,,,,,,,,,-1,letter,NA,k,2.2643,vtsPrac,0,0,0,0,1,,,,,,,,,,,,,,,,,,,,,,,
296938,2022-10-02_13h53.13.310,vts_reward_expectancy,2022.2.4,MacIntel,120.0048002,Chrome,1471,945,,,,,0,630,,,,,,,,,,,,,,,,,181,U,circle,-1,0,,,6,,,,,,,,,,,,,switch,no_choice,NA,,,vtsPrac,1,0,1,0,1,,,,,,,,,,,,,,,,,,,,,,,
296938,2022-10-02_13h53.13.310,vts_reward_expectancy,2022.2.4,MacIntel,120.0048002,Chrome,1471,945,,,,,0,630,,,,,,,,,,,,,,,,,139,H,triangle,1,0,,,6,,,,,,,,,,,,,switch,number,numSwt,d,1.0398,vtsPrac,2,0,2,0,1,,,,,,,,,,,,,,,,,,,,,,,
296938,2022-10-02_13h53.13.310,vts_reward_expectancy,2022.2.4,MacIntel,120.0048002,Chrome,1471,945,,,,,0,630,,,,,,,,,,,,,,,,,160,F,circle,0,0,,,6,,,,,,,,,,,,,repeat,number,NA,d,0.6849,vtsPrac,3,0,3,0,1,,,,,,,,,,,,,,,,,,,,,,,
296938,2022-10-02_13h53.13.310,vts_reward_expectancy,2022.2.4,MacIntel,120.0048002,Chrome,1471,945,,,,,0,630,,,,,,,,,,,,,,,,,146,Y,star,1,1,,,6,,,,,,,,,,,,,repeat,number,numRpt,d,0.7678,vtsPrac,4,0,4,0,1,,,,,,,,,,,,,,,,,,,,,,,
296938,2022-10-02_13h53.13.310,vts_reward_expectancy,2022.2.4,MacIntel,120.0048002,Chrome,1471,945,,,,,0,630,,,,,,,,,,,,,,,,,181,U,triangle,1,0,,,6,,,,,,,,,,,,,switch,letter,lettSwt,k,0.6001,vtsPrac,5,0,5,0,1,,,,,,,,,,,,,,,,,,,,,,,
296938,2022-10-02_13h53.13.310,vts_reward_expectancy,2022.2.4,MacIntel,120.0048002,Chrome,1471,945,,,,,0,630,,,,,,,,,,,,,,,,,139,H,triangle,1,0,,,6,,,,,,,,,,,,,switch,number,numSwt,d,0.3723,vtsPrac,6,0,6,0,1,,,,,,,,,,,,,,,,,,,,,,,
296938,2022-10-02_13h53.13.310,vts_reward_expectancy,2022.2.4,MacIntel,120.0048002,Chrome,1471,945,,,,,0,630,,,,,,,,,,,,,,,,,160,F,star,0,0,,,6,,,,,,,,,,,,,switch,letter,NA,k,0.7075,vtsPrac,7,0,7,0,1,,,,,,,,,,,,,,,,,,,,,,,
296938,2022-10-02_13h53.13.310,vts_reward_expectancy,2022.2.4,MacIntel,120.0048002,Chrome,1471,945,,,,,0,630,,,,,,,,,,,,,,,,,167,S,circle,1,1,,,6,,,,,,,,,,,,,repeat,letter,lettRpt,k,0.6247,vtsPrac,8,0,8,0,1,,,,,,,,,,,,,,,,,,,,,,,
296938,2022-10-02_13h53.13.310,vts_reward_expectancy,2022.2.4,MacIntel,120.0048002,Chrome,1471,945,,,,,0,630,,,,,,,,,,,,,,,,,139,H,triangle,1,0,,,6,,,,,,,,,,,,,switch,number,numSwt,d,1.1157,vtsPrac,9,0,9,0,1,,,,,,,,,,,,,,,,,,,,,,,
296938,2022-10-02_13h53.13.310,vts_reward_expectancy,2022.2.4,MacIntel,120.0048002,Chrome,1471,945,,,,,0,630,,,,,,,,,,,,,,,,,181,Y,star,1,0,,,6,,,,,,,,,,,,,repeat,number,numRpt,f,0.9145,vtsPrac,10,0,10,0,1,,,,,,,,,,,,,,,,,,,,,,,
296938,2022-10-02_13h53.13.310,vts_reward_expectancy,2022.2.4,MacIntel,120.0048002,Chrome,1471,945,,,,,0,630,,,,,,,,,,,,,,,,,132,W,hexagon,1,0,,,6,,,,,,,,,,,,,switch,letter,lettSwt,k,0.7856,vtsPrac,11,0,11,0,1,,,,,,,,,,,,,,,,,,,,,,,
296938,2022-10-02_13h53.13.310,vts_reward_expectancy,2022.2.4,MacIntel,120.0048002,Chrome,1471,945,,,,,0,630,,,,,,,,,,,,,,,,,139,S,circle,1,0,,,6,,,,,,,,,,,,,repeat,letter,lettRpt,k,0.6787,vtsPrac,12,0,12,0,1,,,,,,,,,,,,,,,,,,,,,,,
296938,2022-10-02_13h53.13.310,vts_reward_expectancy,2022.2.4,MacIntel,120.0048002,Chrome,1471,945,,,,,0,630,,,,,,,,,,,,,,,,,125,H,triangle,1,0,,,6,,,,,,,,,,,,,switch,number,numSwt,d,1.3844,vtsPrac,13,0,13,0,1,,,,,,,,,,,,,,,,,,,,,,,
296938,2022-10-02_13h53.13.310,vts_reward_expectancy,2022.2.4,MacIntel,120.0048002,Chrome,1471,945,,,,,0,630,,,,,,,,,,,,,,,,,160,B,star,0,0,,,6,,,,,,,,,,,,,switch,letter,NA,k,1.484,vtsPrac,14,0,14,0,1,,,,,,,,,,,,,,,,,,,,,,,
296938,2022-10-02_13h53.13.310,vts_reward_expectancy,2022.2.4,MacIntel,120.0048002,Chrome,1471,945,,,,,0,630,,,,,,,,,,,,,,,,,181,U,hexagon,0,1,,,6,,,,,,,,,,,,,switch,number,NA,d,2.824,vtsPrac,15,0,15,0,1,,,,,,,,,,,,,,,,,,,,,,,
296938,2022-10-02_13h53.13.310,vts_reward_expectancy,2022.2.4,MacIntel,120.0048002,Chrome,1471,945,,,,,0,630,,,,,,,,,,,,,,,,,160,U,hexagon,1,1,,,7,,,,,,,,,,,,,switch,letter,lettSwt,k,1.2226,vtsPrac,0,0,0,0,1,,,,,,,,,,,,,,,,,,,,,,,
296938,2022-10-02_13h53.13.310,vts_reward_expectancy,2022.2.4,MacIntel,120.0048002,Chrome,1471,945,,,,,0,630,,,,,,,,,,,,,,,,,146,H,circle,1,0,,,7,,,,,,,,,,,,,switch,number,numSwt,d,1.2999,vtsPrac,1,0,1,0,1,,,,,,,,,,,,,,,,,,,,,,,
296938,2022-10-02_13h53.13.310,vts_reward_expectancy,2022.2.4,MacIntel,120.0048002,Chrome,1471,945,,,,,0,630,,,,,,,,,,,,,,,,,132,B,hexagon,-1,0,,,7,,,,,,,,,,,,,switch,no_choice,NA,,,vtsPrac,2,0,2,0,1,,,,,,,,,,,,,,,,,,,,,,,
296938,2022-10-02_13h53.13.310,vts_reward_expectancy,2022.2.4,MacIntel,120.0048002,Chrome,1471,945,,,,,0,630,,,,,,,,,,,,,,,,,174,F,circle,1,0,,,7,,,,,,,,,,,,,switch,number,numSwt,f,0.981,vtsPrac,3,0,3,0,1,,,,,,,,,,,,,,,,,,,,,,,
296938,2022-10-02_13h53.13.310,vts_reward_expectancy,2022.2.4,MacIntel,120.0048002,Chrome,1471,945,,,,,0,630,,,,,,,,,,,,,,,,,160,U,hexagon,1,0,,,7,,,,,,,,,,,,,switch,letter,lettSwt,k,0.4697,vtsPrac,4,0,4,0,1,,,,,,,,,,,,,,,,,,,,,,,
296938,2022-10-02_13h53.13.310,vts_reward_expectancy,2022.2.4,MacIntel,120.0048002,Chrome,1471,945,,,,,0,630,,,,,,,,,,,,,,,,,146,H,circle,1,0,,,7,,,,,,,,,,,,,switch,number,numSwt,d,0.6809,vtsPrac,5,0,5,0,1,,,,,,,,,,,,,,,,,,,,,,,
296938,2022-10-02_13h53.13.310,vts_reward_expectancy,2022.2.4,MacIntel,120.0048002,Chrome,1471,945,,,,,0,630,,,,,,,,,,,,,,,,,132,B,circle,1,0,,,7,,,,,,,,,,,,,switch,letter,lettSwt,j,0.6477,vtsPrac,6,0,6,0,1,,,,,,,,,,,,,,,,,,,,,,,
296938,2022-10-02_13h53.13.310,vts_reward_expectancy,2022.2.4,MacIntel,120.0048002,Chrome,1471,945,,,,,0,630,,,,,,,,,,,,,,,,,174,F,star,0,0,,,7,,,,,,,,,,,,,repeat,letter,NA,k,0.6817,vtsPrac,7,0,7,0,1,,,,,,,,,,,,,,,,,,,,,,,
296938,2022-10-02_13h53.13.310,vts_reward_expectancy,2022.2.4,MacIntel,120.0048002,Chrome,1471,945,,,,,0,630,,,,,,,,,,,,,,,,,146,W,star,1,1,,,7,,,,,,,,,,,,,repeat,letter,lettRpt,k,1.2275,vtsPrac,8,0,8,0,1,,,,,,,,,,,,,,,,,,,,,,,
296938,2022-10-02_13h53.13.310,vts_reward_expectancy,2022.2.4,MacIntel,120.0048002,Chrome,1471,945,,,,,0,630,,,,,,,,,,,,,,,,,160,F,circle,1,0,,,7,,,,,,,,,,,,,switch,number,numSwt,f,1.2621,vtsPrac,9,0,9,0,1,,,,,,,,,,,,,,,,,,,,,,,
296938,2022-10-02_13h53.13.310,vts_reward_expectancy,2022.2.4,MacIntel,120.0048002,Chrome,1471,945,,,,,0,630,,,,,,,,,,,,,,,,,167,H,circle,0,0,,,7,,,,,,,,,,,,,switch,letter,NA,k,0.5361,vtsPrac,10,0,10,0,1,,,,,,,,,,,,,,,,,,,,,,,
296938,2022-10-02_13h53.13.310,vts_reward_expectancy,2022.2.4,MacIntel,120.0048002,Chrome,1471,945,,,,,0,630,,,,,,,,,,,,,,,,,181,S,triangle,1,1,,,7,,,,,,,,,,,,,switch,number,numSwt,f,0.831,vtsPrac,11,0,11,0,1,,,,,,,,,,,,,,,,,,,,,,,
296938,2022-10-02_13h53.13.310,vts_reward_expectancy,2022.2.4,MacIntel,120.0048002,Chrome,1471,945,,,,,0,630,,,,,,,,,,,,,,,,,146,W,star,1,0,,,7,,,,,,,,,,,,,repeat,number,numRpt,d,0.8236,vtsPrac,12,0,12,0,1,,,,,,,,,,,,,,,,,,,,,,,
296938,2022-10-02_13h53.13.310,vts_reward_expectancy,2022.2.4,MacIntel,120.0048002,Chrome,1471,945,,,,,0,630,,,,,,,,,,,,,,,,,174,D,circle,0,0,,,7,,,,,,,,,,,,,switch,letter,NA,k,1.6267,vtsPrac,13,0,13,0,1,,,,,,,,,,,,,,,,,,,,,,,
296938,2022-10-02_13h53.13.310,vts_reward_expectancy,2022.2.4,MacIntel,120.0048002,Chrome,1471,945,,,,,0,630,,,,,,,,,,,,,,,,,167,B,triangle,1,1,,,7,,,,,,,,,,,,,switch,number,numSwt,f,1.5016,vtsPrac,14,0,14,0,1,,,,,,,,,,,,,,,,,,,,,,,
296938,2022-10-02_13h53.13.310,vts_reward_expectancy,2022.2.4,MacIntel,120.0048002,Chrome,1471,945,,,,,0,630,,,,,,,,,,,,,,,,,125,U,hexagon,1,0,,,7,,,,,,,,,,,,,switch,letter,lettSwt,k,0.6578,vtsPrac,15,0,15,0,1,,,,,,,,,,,,,,,,,,,,,,,
296938,2022-10-02_13h53.13.310,vts_reward_expectancy,2022.2.4,MacIntel,120.0048002,Chrome,1471,945,,,,,0,630,,,,,,,,,,,,,,,,,139,U,star,1,0,,,8,,,,,,,,,,,,,switch,number,numSwt,d,0.7274,vtsPrac,0,0,0,0,1,,,,,,,,,,,,,,,,,,,,,,,
296938,2022-10-02_13h53.13.310,vts_reward_expectancy,2022.2.4,MacIntel,120.0048002,Chrome,1471,945,,,,,0,630,,,,,,,,,,,,,,,,,160,B,hexagon,1,0,,,8,,,,,,,,,,,,,switch,letter,lettSwt,j,1.2357,vtsPrac,1,0,1,0,1,,,,,,,,,,,,,,,,,,,,,,,
296938,2022-10-02_13h53.13.310,vts_reward_expectancy,2022.2.4,MacIntel,120.0048002,Chrome,1471,945,,,,,0,630,,,,,,,,,,,,,,,,,167,F,star,1,0,,,8,,,,,,,,,,,,,repeat,letter,lettRpt,j,0.8831,vtsPrac,2,0,2,0,1,,,,,,,,,,,,,,,,,,,,,,,
296938,2022-10-02_13h53.13.310,vts_reward_expectancy,2022.2.4,MacIntel,120.0048002,Chrome,1471,945,,,,,0,630,,,,,,,,,,,,,,,,,181,Y,hexagon,1,0,,,8,,,,,,,,,,,,,switch,number,numSwt,f,1.0225,vtsPrac,3,0,3,0,1,,,,,,,,,,,,,,,,,,,,,,,
296938,2022-10-02_13h53.13.310,vts_reward_expectancy,2022.2.4,MacIntel,120.0048002,Chrome,1471,945,,,,,0,630,,,,,,,,,,,,,,,,,139,U,hexagon,1,0,,,8,,,,,,,,,,,,,switch,letter,lettSwt,k,0.7205,vtsPrac,4,0,4,0,1,,,,,,,,,,,,,,,,,,,,,,,
296938,2022-10-02_13h53.13.310,vts_reward_expectancy,2022.2.4,MacIntel,120.0048002,Chrome,1471,945,,,,,0,630,,,,,,,,,,,,,,,,,160,B,star,1,0,,,8,,,,,,,,,,,,,switch,number,numSwt,f,0.5579,vtsPrac,5,0,5,0,1,,,,,,,,,,,,,,,,,,,,,,,
296938,2022-10-02_13h53.13.310,vts_reward_expectancy,2022.2.4,MacIntel,120.0048002,Chrome,1471,945,,,,,0,630,,,,,,,,,,,,,,,,,167,F,triangle,1,0,,,8,,,,,,,,,,,,,repeat,number,numRpt,f,1.0645,vtsPrac,6,0,6,0,1,,,,,,,,,,,,,,,,,,,,,,,
296938,2022-10-02_13h53.13.310,vts_reward_expectancy,2022.2.4,MacIntel,120.0048002,Chrome,1471,945,,,,,0,630,,,,,,,,,,,,,,,,,181,Y,hexagon,1,0,,,8,,,,,,,,,,,,,switch,letter,lettSwt,k,0.5902,vtsPrac,7,0,7,0,1,,,,,,,,,,,,,,,,,,,,,,,
296938,2022-10-02_13h53.13.310,vts_reward_expectancy,2022.2.4,MacIntel,120.0048002,Chrome,1471,945,,,,,0,630,,,,,,,,,,,,,,,,,167,F,triangle,1,0,,,8,,,,,,,,,,,,,switch,number,numSwt,f,0.7,vtsPrac,8,0,8,0,1,,,,,,,,,,,,,,,,,,,,,,,
296938,2022-10-02_13h53.13.310,vts_reward_expectancy,2022.2.4,MacIntel,120.0048002,Chrome,1471,945,,,,,0,630,,,,,,,,,,,,,,,,,174,Y,star,1,0,,,8,,,,,,,,,,,,,switch,letter,lettSwt,k,0.5237,vtsPrac,9,0,9,0,1,,,,,,,,,,,,,,,,,,,,,,,
296938,2022-10-02_13h53.13.310,vts_reward_expectancy,2022.2.4,MacIntel,120.0048002,Chrome,1471,945,,,,,0,630,,,,,,,,,,,,,,,,,139,U,hexagon,1,0,,,8,,,,,,,,,,,,,repeat,letter,lettRpt,k,0.5218,vtsPrac,10,0,10,0,1,,,,,,,,,,,,,,,,,,,,,,,
296938,2022-10-02_13h53.13.310,vts_reward_expectancy,2022.2.4,MacIntel,120.0048002,Chrome,1471,945,,,,,0,630,,,,,,,,,,,,,,,,,132,D,triangle,1,0,,,8,,,,,,,,,,,,,switch,number,numSwt,d,0.498,vtsPrac,11,0,11,0,1,,,,,,,,,,,,,,,,,,,,,,,
296938,2022-10-02_13h53.13.310,vts_reward_expectancy,2022.2.4,MacIntel,120.0048002,Chrome,1471,945,,,,,0,630,,,,,,,,,,,,,,,,,139,Y,hexagon,1,0,,,8,,,,,,,,,,,,,switch,letter,lettSwt,k,1.3135,vtsPrac,12,0,12,0,1,,,,,,,,,,,,,,,,,,,,,,,
296938,2022-10-02_13h53.13.310,vts_reward_expectancy,2022.2.4,MacIntel,120.0048002,Chrome,1471,945,,,,,0,630,,,,,,,,,,,,,,,,,181,H,star,1,0,,,8,,,,,,,,,,,,,switch,number,numSwt,f,0.4914,vtsPrac,13,0,13,0,1,,,,,,,,,,,,,,,,,,,,,,,
296938,2022-10-02_13h53.13.310,vts_reward_expectancy,2022.2.4,MacIntel,120.0048002,Chrome,1471,945,,,,,0,630,,,,,,,,,,,,,,,,,174,D,star,1,0,,,8,,,,,,,,,,,,,switch,letter,lettSwt,j,1.0439,vtsPrac,14,0,14,0,1,,,,,,,,,,,,,,,,,,,,,,,
296938,2022-10-02_13h53.13.310,vts_reward_expectancy,2022.2.4,MacIntel,120.0048002,Chrome,1471,945,,,,,0,630,,,,,,,,,,,,,,,,,132,U,circle,1,0,,,8,,,,,,,,,,,,,repeat,letter,lettRpt,k,0.6119,vtsPrac,15,0,15,0,1,,,,,,,,,,,,,,,,,,,,,,,
296938,2022-10-02_13h53.13.310,vts_reward_expectancy,2022.2.4,MacIntel,120.0048002,Chrome,1471,945,,,,,,,,,,,,,,,,,,,,,,,,,,,,,,,,,,,,,,,,,,,,,,,,,,,,,,,,,,,,,,,,,,,,,,,,,,,,
296938,2022-10-02_13h53.13.310,vts_reward_expectancy,2022.2.4,MacIntel,120.0048002,Chrome,1471,945,,,,,,,,,,,,,,,,,,,,,,,,,,,,,,,,,,,,,,,,,,,,,,,,,,,,,,,,,,,,,,,,,,,,,,,,,,,,
296938,2022-10-02_13h53.13.310,vts_reward_expectancy,2022.2.4,MacIntel,120.0048002,Chrome,1471,945,,,,,0,630,,,,,,,,,,,,,,,,,181,D,triangle,1,0,,,,,,,,,,,,,,,,repeat,letter,lettRpt,j,1.1332,noRew,,,,,,0,0,0,0,0,1,,,,,,,,,,,,,,,,,
296938,2022-10-02_13h53.13.310,vts_reward_expectancy,2022.2.4,MacIntel,120.0048002,Chrome,1471,945,,,,,0,630,,,,,,,,,,,,,,,,,132,Y,star,1,0,,,,,,,,,,,,,,,,switch,number,numSwt,d,0.6034,noRew,,,,,,0,1,0,1,0,1,,,,,,,,,,,,,,,,,
296938,2022-10-02_13h53.13.310,vts_reward_expectancy,2022.2.4,MacIntel,120.0048002,Chrome,1471,945,,,,,0,630,,,,,,,,,,,,,,,,,174,S,triangle,1,0,,,,,,,,,,,,,,,,switch,letter,lettSwt,k,0.7655,noRew,,,,,,0,2,0,2,0,1,,,,,,,,,,,,,,,,,
296938,2022-10-02_13h53.13.310,vts_reward_expectancy,2022.2.4,MacIntel,120.0048002,Chrome,1471,945,,,,,0,630,,,,,,,,,,,,,,,,,125,U,star,1,0,,,,,,,,,,,,,,,,switch,number,numSwt,d,0.7921,noRew,,,,,,0,3,0,3,0,1,,,,,,,,,,,,,,,,,
296938,2022-10-02_13h53.13.310,vts_reward_expectancy,2022.2.4,MacIntel,120.0048002,Chrome,1471,945,,,,,0,630,,,,,,,,,,,,,,,,,181,D,star,1,0,,,,,,,,,,,,,,,,repeat,number,numRpt,f,0.5588,noRew,,,,,,0,4,0,4,0,1,,,,,,,,,,,,,,,,,
296938,2022-10-02_13h53.13.310,vts_reward_expectancy,2022.2.4,MacIntel,120.0048002,Chrome,1471,945,,,,,0,630,,,,,,,,,,,,,,,,,132,Y,hexagon,1,0,,,,,,,,,,,,,,,,repeat,number,numRpt,d,0.5108,noRew,,,,,,0,5,0,5,0,1,,,,,,,,,,,,,,,,,
296938,2022-10-02_13h53.13.310,vts_reward_expectancy,2022.2.4,MacIntel,120.0048002,Chrome,1471,945,,,,,0,630,,,,,,,,,,,,,,,,,174,S,circle,1,0,,,,,,,,,,,,,,,,switch,letter,lettSwt,k,0.8689,noRew,,,,,,0,6,0,6,0,1,,,,,,,,,,,,,,,,,
296938,2022-10-02_13h53.13.310,vts_reward_expectancy,2022.2.4,MacIntel,120.0048002,Chrome,1471,945,,,,,0,630,,,,,,,,,,,,,,,,,125,U,triangle,1,0,,,,,,,,,,,,,,,,switch,number,numSwt,d,0.6563,noRew,,,,,,0,7,0,7,0,1,,,,,,,,,,,,,,,,,
296938,2022-10-02_13h53.13.310,vts_reward_expectancy,2022.2.4,MacIntel,120.0048002,Chrome,1471,945,,,,,0,630,,,,,,,,,,,,,,,,,125,D,hexagon,1,0,,,,,,,,,,,,,,,,switch,letter,lettSwt,j,1.066,noRew,,,,,,0,8,0,8,0,1,,,,,,,,,,,,,,,,,
296938,2022-10-02_13h53.13.310,vts_reward_expectancy,2022.2.4,MacIntel,120.0048002,Chrome,1471,945,,,,,0,630,,,,,,,,,,,,,,,,,160,H,star,1,0,,,,,,,,,,,,,,,,repeat,letter,lettRpt,j,0.9527,noRew,,,,,,0,9,0,9,0,1,,,,,,,,,,,,,,,,,
296938,2022-10-02_13h53.13.310,vts_reward_expectancy,2022.2.4,MacIntel,120.0048002,Chrome,1471,945,,,,,0,630,,,,,,,,,,,,,,,,,146,Y,hexagon,1,0,,,,,,,,,,,,,,,,switch,number,numSwt,d,1.5409,noRew,,,,,,0,10,0,10,0,1,,,,,,,,,,,,,,,,,
296938,2022-10-02_13h53.13.310,vts_reward_expectancy,2022.2.4,MacIntel,120.0048002,Chrome,1471,945,,,,,0,630,,,,,,,,,,,,,,,,,181,U,circle,1,0,,,,,,,,,,,,,,,,switch,letter,lettSwt,k,0.8407,noRew,,,,,,0,11,0,11,0,1,,,,,,,,,,,,,,,,,
296938,2022-10-02_13h53.13.310,vts_reward_expectancy,2022.2.4,MacIntel,120.0048002,Chrome,1471,945,,,,,0,630,,,,,,,,,,,,,,,,,139,H,triangle,1,0,,,,,,,,,,,,,,,,switch,number,numSwt,d,0.5572,noRew,,,,,,0,12,0,12,0,1,,,,,,,,,,,,,,,,,
296938,2022-10-02_13h53.13.310,vts_reward_expectancy,2022.2.4,MacIntel,120.0048002,Chrome,1471,945,,,,,0,630,,,,,,,,,,,,,,,,,160,D,hexagon,1,0,,,,,,,,,,,,,,,,repeat,number,numRpt,f,0.5168,noRew,,,,,,0,13,0,13,0,1,,,,,,,,,,,,,,,,,
296938,2022-10-02_13h53.13.310,vts_reward_expectancy,2022.2.4,MacIntel,120.0048002,Chrome,1471,945,,,,,0,630,,,,,,,,,,,,,,,,,181,S,star,1,0,,,,,,,,,,,,,,,,switch,letter,lettSwt,k,0.514,noRew,,,,,,0,14,0,14,0,1,,,,,,,,,,,,,,,,,
296938,2022-10-02_13h53.13.310,vts_reward_expectancy,2022.2.4,MacIntel,120.0048002,Chrome,1471,945,,,,,0,630,,,,,,,,,,,,,,,,,125,B,triangle,1,0,,,,,,,,,,,,,,,,switch,number,numSwt,d,0.5867,noRew,,,,,,0,15,0,15,0,1,,,,,,,,,,,,,,,,,
296938,2022-10-02_13h53.13.310,vts_reward_expectancy,2022.2.4,MacIntel,120.0048002,Chrome,1471,945,,,,,0,630,,,,,,,,,,,,,,,,,132,F,circle,1,0,,,,,,,,,,,,,,,,switch,letter,lettSwt,j,1.0005,noRew,,,,,,0,16,0,16,0,1,,,,,,,,,,,,,,,,,
296938,2022-10-02_13h53.13.310,vts_reward_expectancy,2022.2.4,MacIntel,120.0048002,Chrome,1471,945,,,,,0,630,,,,,,,,,,,,,,,,,160,B,star,1,0,,,,,,,,,,,,,,,,repeat,letter,lettRpt,j,0.6768,noRew,,,,,,0,17,0,17,0,1,,,,,,,,,,,,,,,,,
296938,2022-10-02_13h53.13.310,vts_reward_expectancy,2022.2.4,MacIntel,120.0048002,Chrome,1471,945,,,,,0,630,,,,,,,,,,,,,,,,,181,U,circle,1,0,,,,,,,,,,,,,,,,switch,number,numSwt,f,1.3413,noRew,,,,,,0,18,0,18,0,1,,,,,,,,,,,,,,,,,
296938,2022-10-02_13h53.13.310,vts_reward_expectancy,2022.2.4,MacIntel,120.0048002,Chrome,1471,945,,,,,0,630,,,,,,,,,,,,,,,,,167,W,star,1,0,,,,,,,,,,,,,,,,repeat,number,numRpt,f,0.861,noRew,,,,,,0,19,0,19,0,1,,,,,,,,,,,,,,,,,
296938,2022-10-02_13h53.13.310,vts_reward_expectancy,2022.2.4,MacIntel,120.0048002,Chrome,1471,945,,,,,0,630,,,,,,,,,,,,,,,,,160,B,circle,1,0,,,,,,,,,,,,,,,,switch,letter,lettSwt,j,0.5353,noRew,,,,,,0,20,0,20,0,1,,,,,,,,,,,,,,,,,
296938,2022-10-02_13h53.13.310,vts_reward_expectancy,2022.2.4,MacIntel,120.0048002,Chrome,1471,945,,,,,0,630,,,,,,,,,,,,,,,,,167,F,star,1,0,,,,,,,,,,,,,,,,switch,number,numSwt,f,0.4942,noRew,,,,,,0,21,0,21,0,1,,,,,,,,,,,,,,,,,
296938,2022-10-02_13h53.13.310,vts_reward_expectancy,2022.2.4,MacIntel,120.0048002,Chrome,1471,945,,,,,0,630,,,,,,,,,,,,,,,,,132,W,star,1,0,,,,,,,,,,,,,,,,switch,letter,lettSwt,k,0.504,noRew,,,,,,0,22,0,22,0,1,,,,,,,,,,,,,,,,,
296938,2022-10-02_13h53.13.310,vts_reward_expectancy,2022.2.4,MacIntel,120.0048002,Chrome,1471,945,,,,,0,630,,,,,,,,,,,,,,,,,125,U,triangle,1,0,,,,,,,,,,,,,,,,repeat,letter,lettRpt,k,0.5498,noRew,,,,,,0,23,0,23,0,1,,,,,,,,,,,,,,,,,
296938,2022-10-02_13h53.13.310,vts_reward_expectancy,2022.2.4,MacIntel,120.0048002,Chrome,1471,945,,,,,0,630,,,,,,,,,,,,,,,,,174,F,star,1,0,,,,,,,,,,,,,,,,switch,number,numSwt,f,0.9322,noRew,,,,,,0,24,0,24,0,1,,,,,,,,,,,,,,,,,
296938,2022-10-02_13h53.13.310,vts_reward_expectancy,2022.2.4,MacIntel,120.0048002,Chrome,1471,945,,,,,0,630,,,,,,,,,,,,,,,,,160,D,circle,1,0,,,,,,,,,,,,,,,,repeat,number,numRpt,f,0.5308,noRew,,,,,,0,25,0,25,0,1,,,,,,,,,,,,,,,,,
296938,2022-10-02_13h53.13.310,vts_reward_expectancy,2022.2.4,MacIntel,120.0048002,Chrome,1471,945,,,,,0,630,,,,,,,,,,,,,,,,,167,Y,hexagon,1,0,,,,,,,,,,,,,,,,repeat,number,numRpt,f,0.5118,noRew,,,,,,0,26,0,26,0,1,,,,,,,,,,,,,,,,,
296938,2022-10-02_13h53.13.310,vts_reward_expectancy,2022.2.4,MacIntel,120.0048002,Chrome,1471,945,,,,,0,630,,,,,,,,,,,,,,,,,181,W,triangle,1,0,,,,,,,,,,,,,,,,repeat,number,numRpt,f,0.6331,noRew,,,,,,0,27,0,27,0,1,,,,,,,,,,,,,,,,,
296938,2022-10-02_13h53.13.310,vts_reward_expectancy,2022.2.4,MacIntel,120.0048002,Chrome,1471,945,,,,,0,630,,,,,,,,,,,,,,,,,181,B,triangle,1,0,,,,,,,,,,,,,,,,switch,letter,lettSwt,j,1.3357,noRew,,,,,,0,28,0,28,0,1,,,,,,,,,,,,,,,,,
296938,2022-10-02_13h53.13.310,vts_reward_expectancy,2022.2.4,MacIntel,120.0048002,Chrome,1471,945,,,,,0,630,,,,,,,,,,,,,,,,,160,U,hexagon,1,0,,,,,,,,,,,,,,,,switch,number,numSwt,f,0.6559,noRew,,,,,,0,29,0,29,0,1,,,,,,,,,,,,,,,,,
296938,2022-10-02_13h53.13.310,vts_reward_expectancy,2022.2.4,MacIntel,120.0048002,Chrome,1471,945,,,,,0,630,,,,,,,,,,,,,,,,,132,D,circle,1,0,,,,,,,,,,,,,,,,repeat,number,numRpt,d,0.5395,noRew,,,,,,0,30,0,30,0,1,,,,,,,,,,,,,,,,,
296938,2022-10-02_13h53.13.310,vts_reward_expectancy,2022.2.4,MacIntel,120.0048002,Chrome,1471,945,,,,,0,630,,,,,,,,,,,,,,,,,174,F,star,0,0,,,,,,,,,,,,,,,,switch,letter,NA,k,0.5926,noRew,,,,,,0,31,0,31,0,1,,,,,,,,,,,,,,,,,
296938,2022-10-02_13h53.13.310,vts_reward_expectancy,2022.2.4,MacIntel,120.0048002,Chrome,1471,945,,,,,0,630,,,,,,,,,,,,,,,,,125,H,hexagon,1,1,,,,,,,,,,,,,,,,repeat,letter,lettRpt,j,1.6056,noRew,,,,,,0,32,0,32,0,1,,,,,,,,,,,,,,,,,
296938,2022-10-02_13h53.13.310,vts_reward_expectancy,2022.2.4,MacIntel,120.0048002,Chrome,1471,945,,,,,0,630,,,,,,,,,,,,,,,,,132,B,circle,1,0,,,,,,,,,,,,,,,,repeat,letter,lettRpt,j,0.6355,noRew,,,,,,0,33,0,33,0,1,,,,,,,,,,,,,,,,,
296938,2022-10-02_13h53.13.310,vts_reward_expectancy,2022.2.4,MacIntel,120.0048002,Chrome,1471,945,,,,,0,630,,,,,,,,,,,,,,,,,139,W,circle,1,0,,,,,,,,,,,,,,,,switch,number,numSwt,d,0.7506,noRew,,,,,,0,34,0,34,0,1,,,,,,,,,,,,,,,,,
296938,2022-10-02_13h53.13.310,vts_reward_expectancy,2022.2.4,MacIntel,120.0048002,Chrome,1471,945,,,,,0,630,,,,,,,,,,,,,,,,,167,S,hexagon,1,0,,,,,,,,,,,,,,,,switch,letter,lettSwt,k,0.835,noRew,,,,,,0,35,0,35,0,1,,,,,,,,,,,,,,,,,
296938,2022-10-02_13h53.13.310,vts_reward_expectancy,2022.2.4,MacIntel,120.0048002,Chrome,1471,945,,,,,0,630,,,,,,,,,,,,,,,,,146,Y,circle,1,0,,,,,,,,,,,,,,,,switch,number,numSwt,d,0.7833,noRew,,,,,,0,36,0,36,0,1,,,,,,,,,,,,,,,,,
296938,2022-10-02_13h53.13.310,vts_reward_expectancy,2022.2.4,MacIntel,120.0048002,Chrome,1471,945,,,,,0,630,,,,,,,,,,,,,,,,,174,D,hexagon,0,0,,,,,,,,,,,,,,,,repeat,number,NA,d,0.2178,noRew,,,,,,0,37,0,37,0,1,,,,,,,,,,,,,,,,,
296938,2022-10-02_13h53.13.310,vts_reward_expectancy,2022.2.4,MacIntel,120.0048002,Chrome,1471,945,,,,,0,630,,,,,,,,,,,,,,,,,160,B,circle,1,1,,,,,,,,,,,,,,,,repeat,number,numRpt,f,0.5788,noRew,,,,,,0,38,0,38,0,1,,,,,,,,,,,,,,,,,
296938,2022-10-02_13h53.13.310,vts_reward_expectancy,2022.2.4,MacIntel,120.0048002,Chrome,1471,945,,,,,0,630,,,,,,,,,,,,,,,,,181,S,star,1,0,,,,,,,,,,,,,,,,switch,letter,lettSwt,k,0.8562,noRew,,,,,,0,39,0,39,0,1,,,,,,,,,,,,,,,,,
296938,2022-10-02_13h53.13.310,vts_reward_expectancy,2022.2.4,MacIntel,120.0048002,Chrome,1471,945,,,,,0,630,,,,,,,,,,,,,,,,,132,D,triangle,1,0,,,,,,,,,,,,,,,,repeat,letter,lettRpt,j,1.256,noRew,,,,,,0,40,0,40,0,1,,,,,,,,,,,,,,,,,
296938,2022-10-02_13h53.13.310,vts_reward_expectancy,2022.2.4,MacIntel,120.0048002,Chrome,1471,945,,,,,0,630,,,,,,,,,,,,,,,,,181,B,circle,1,0,,,,,,,,,,,,,,,,repeat,letter,lettRpt,j,1.6184,noRew,,,,,,0,41,0,41,0,1,,,,,,,,,,,,,,,,,
296938,2022-10-02_13h53.13.310,vts_reward_expectancy,2022.2.4,MacIntel,120.0048002,Chrome,1471,945,,,,,0,630,,,,,,,,,,,,,,,,,160,S,star,-1,0,,,,,,,,,,,,,,,,switch,no_choice,NA,,,noRew,,,,,,0,42,0,42,0,1,,,,,,,,,,,,,,,,,
296938,2022-10-02_13h53.13.310,vts_reward_expectancy,2022.2.4,MacIntel,120.0048002,Chrome,1471,945,,,,,0,630,,,,,,,,,,,,,,,,,125,F,triangle,1,0,,,,,,,,,,,,,,,,switch,number,numSwt,d,0.5791,noRew,,,,,,0,43,0,43,0,1,,,,,,,,,,,,,,,,,
296938,2022-10-02_13h53.13.310,vts_reward_expectancy,2022.2.4,MacIntel,120.0048002,Chrome,1471,945,,,,,0,630,,,,,,,,,,,,,,,,,146,B,star,1,0,,,,,,,,,,,,,,,,repeat,number,numRpt,d,1.0807,noRew,,,,,,0,44,0,44,0,1,,,,,,,,,,,,,,,,,
296938,2022-10-02_13h53.13.310,vts_reward_expectancy,2022.2.4,MacIntel,120.0048002,Chrome,1471,945,,,,,0,630,,,,,,,,,,,,,,,,,125,H,hexagon,1,0,,,,,,,,,,,,,,,,switch,letter,lettSwt,j,1.9512,noRew,,,,,,0,45,0,45,0,1,,,,,,,,,,,,,,,,,
296938,2022-10-02_13h53.13.310,vts_reward_expectancy,2022.2.4,MacIntel,120.0048002,Chrome,1471,945,,,,,0,630,,,,,,,,,,,,,,,,,167,U,triangle,1,0,,,,,,,,,,,,,,,,switch,number,numSwt,f,1.6148,noRew,,,,,,0,46,0,46,0,1,,,,,,,,,,,,,,,,,
296938,2022-10-02_13h53.13.310,vts_reward_expectancy,2022.2.4,MacIntel,120.0048002,Chrome,1471,945,,,,,0,630,,,,,,,,,,,,,,,,,132,Y,star,1,0,,,,,,,,,,,,,,,,repeat,number,numRpt,d,0.9662,noRew,,,,,,0,47,0,47,0,1,,,,,,,,,,,,,,,,,
296938,2022-10-02_13h53.13.310,vts_reward_expectancy,2022.2.4,MacIntel,120.0048002,Chrome,1471,945,,,,,0,630,,,,,,,,,,,,,,,,,146,Y,hexagon,1,0,,,,,,,,,,,,,,,,switch,letter,lettSwt,k,1.4122,noRew,,,,,,0,48,0,48,0,1,,,,,,,,,,,,,,,,,
296938,2022-10-02_13h53.13.310,vts_reward_expectancy,2022.2.4,MacIntel,120.0048002,Chrome,1471,945,,,,,0,630,,,,,,,,,,,,,,,,,132,B,star,1,0,,,,,,,,,,,,,,,,switch,number,numSwt,d,2.1784,noRew,,,,,,0,49,0,49,0,1,,,,,,,,,,,,,,,,,
296938,2022-10-02_13h53.13.310,vts_reward_expectancy,2022.2.4,MacIntel,120.0048002,Chrome,1471,945,,,,,0,630,,,,,,,,,,,,,,,,,125,U,hexagon,1,0,,,,,,,,,,,,,,,,switch,letter,lettSwt,k,0.8647,noRew,,,,,,0,50,0,50,0,1,,,,,,,,,,,,,,,,,
296938,2022-10-02_13h53.13.310,vts_reward_expectancy,2022.2.4,MacIntel,120.0048002,Chrome,1471,945,,,,,0,630,,,,,,,,,,,,,,,,,167,W,circle,1,0,,,,,,,,,,,,,,,,repeat,letter,lettRpt,k,2.0626,noRew,,,,,,0,51,0,51,0,1,,,,,,,,,,,,,,,,,
296938,2022-10-02_13h53.13.310,vts_reward_expectancy,2022.2.4,MacIntel,120.0048002,Chrome,1471,945,,,,,0,630,,,,,,,,,,,,,,,,,146,U,triangle,1,0,,,,,,,,,,,,,,,,switch,number,numSwt,d,0.8489,noRew,,,,,,0,52,0,52,0,1,,,,,,,,,,,,,,,,,
296938,2022-10-02_13h53.13.310,vts_reward_expectancy,2022.2.4,MacIntel,120.0048002,Chrome,1471,945,,,,,0,630,,,,,,,,,,,,,,,,,181,Y,circle,1,0,,,,,,,,,,,,,,,,repeat,number,numRpt,f,1.5178,noRew,,,,,,0,53,0,53,0,1,,,,,,,,,,,,,,,,,
296938,2022-10-02_13h53.13.310,vts_reward_expectancy,2022.2.4,MacIntel,120.0048002,Chrome,1471,945,,,,,0,630,,,,,,,,,,,,,,,,,160,S,circle,1,0,,,,,,,,,,,,,,,,repeat,number,numRpt,f,1.8702,noRew,,,,,,0,54,0,54,0,1,,,,,,,,,,,,,,,,,
296938,2022-10-02_13h53.13.310,vts_reward_expectancy,2022.2.4,MacIntel,120.0048002,Chrome,1471,945,,,,,0,630,,,,,,,,,,,,,,,,,174,F,star,1,0,,,,,,,,,,,,,,,,switch,letter,lettSwt,j,2.9164,noRew,,,,,,0,55,0,55,0,1,,,,,,,,,,,,,,,,,
296938,2022-10-02_13h53.13.310,vts_reward_expectancy,2022.2.4,MacIntel,120.0048002,Chrome,1471,945,,,,,0,630,,,,,,,,,,,,,,,,,132,U,hexagon,1,0,,,,,,,,,,,,,,,,repeat,letter,lettRpt,k,0.7611,noRew,,,,,,0,56,0,56,0,1,,,,,,,,,,,,,,,,,
296938,2022-10-02_13h53.13.310,vts_reward_expectancy,2022.2.4,MacIntel,120.0048002,Chrome,1471,945,,,,,0,630,,,,,,,,,,,,,,,,,139,Y,circle,1,0,,,,,,,,,,,,,,,,repeat,letter,lettRpt,k,1.229,noRew,,,,,,0,57,0,57,0,1,,,,,,,,,,,,,,,,,
296938,2022-10-02_13h53.13.310,vts_reward_expectancy,2022.2.4,MacIntel,120.0048002,Chrome,1471,945,,,,,0,630,,,,,,,,,,,,,,,,,181,W,hexagon,1,0,,,,,,,,,,,,,,,,repeat,letter,lettRpt,k,0.7885,noRew,,,,,,0,58,0,58,0,1,,,,,,,,,,,,,,,,,
296938,2022-10-02_13h53.13.310,vts_reward_expectancy,2022.2.4,MacIntel,120.0048002,Chrome,1471,945,,,,,0,630,,,,,,,,,,,,,,,,,160,S,star,1,0,,,,,,,,,,,,,,,,switch,number,numSwt,f,1.8969,noRew,,,,,,0,59,0,59,0,1,,,,,,,,,,,,,,,,,
296938,2022-10-02_13h53.13.310,vts_reward_expectancy,2022.2.4,MacIntel,120.0048002,Chrome,1471,945,,,,,0,630,,,,,,,,,,,,,,,,,174,U,triangle,1,0,,,,,,,,,,,,,,,,repeat,number,numRpt,f,1.0925,noRew,,,,,,0,60,0,60,0,1,,,,,,,,,,,,,,,,,
296938,2022-10-02_13h53.13.310,vts_reward_expectancy,2022.2.4,MacIntel,120.0048002,Chrome,1471,945,,,,,0,630,,,,,,,,,,,,,,,,,146,W,hexagon,1,0,,,,,,,,,,,,,,,,switch,letter,lettSwt,k,0.4579,noRew,,,,,,0,61,0,61,0,1,,,,,,,,,,,,,,,,,
296938,2022-10-02_13h53.13.310,vts_reward_expectancy,2022.2.4,MacIntel,120.0048002,Chrome,1471,945,,,,,0,630,,,,,,,,,,,,,,,,,139,H,triangle,1,0,,,,,,,,,,,,,,,,repeat,letter,lettRpt,j,0.9265,noRew,,,,,,0,62,0,62,0,1,,,,,,,,,,,,,,,,,
296938,2022-10-02_13h53.13.310,vts_reward_expectancy,2022.2.4,MacIntel,120.0048002,Chrome,1471,945,,,,,0,630,,,,,,,,,,,,,,,,,160,B,circle,0,0,,,,,,,,,,,,,,,,switch,number,NA,d,2.085,noRew,,,,,,0,63,0,63,0,1,,,,,,,,,,,,,,,,,
296938,2022-10-02_13h53.13.310,vts_reward_expectancy,2022.2.4,MacIntel,120.0048002,Chrome,1471,945,,,,,,,,,,,,,,,,,,,,,,,,,,,,,,,,,,,,,,,,,,,,,,,,,,,,,,,,,,,,,,,,,,,,,,,,,,,,
296938,2022-10-02_13h53.13.310,vts_reward_expectancy,2022.2.4,MacIntel,120.0048002,Chrome,1471,945,,,,,1,631,,,,,,,,,,,,,,,,,167,U,circle,1,1,,,,,,,,,,,,,,,,switch,letter,lettSwt,k,0.9686,Lo,,,,,,0,,,,,,space,4.7367,high,0,0,0,0,1,,,,,,,,,
296938,2022-10-02_13h53.13.310,vts_reward_expectancy,2022.2.4,MacIntel,120.0048002,Chrome,1471,945,,,,,0,631,,,,,,,,,,,,,,,,,174,B,triangle,0,0,,,,,,,,,,,,,,,,repeat,letter,NA,k,0.5458,Lo,,,,,,0,,,,,,,,high,1,0,1,0,1,,,,,,,,,
296938,2022-10-02_13h53.13.310,vts_reward_expectancy,2022.2.4,MacIntel,120.0048002,Chrome,1471,945,,,,,10,641,,,,,,,,,,,,,,,,,139,Y,circle,1,1,,,,,,,,,,,,,,,,repeat,letter,lettRpt,k,0.6335,Lo,,,,,,0,,,,,,,,high,2,0,2,0,1,,,,,,,,,
296938,2022-10-02_13h53.13.310,vts_reward_expectancy,2022.2.4,MacIntel,120.0048002,Chrome,1471,945,,,,,1,642,,,,,,,,,,,,,,,,,160,H,triangle,1,0,,,,,,,,,,,,,,,,repeat,letter,lettRpt,j,0.4179,Hi,,,,,,0,,,,,,,,high,3,0,3,0,1,,,,,,,,,
296938,2022-10-02_13h53.13.310,vts_reward_expectancy,2022.2.4,MacIntel,120.0048002,Chrome,1471,945,,,,,10,652,,,,,,,,,,,,,,,,,132,W,triangle,1,0,,,,,,,,,,,,,,,,repeat,letter,lettRpt,k,0.7563,Hi,,,,,,0,,,,,,,,high,4,0,4,0,1,,,,,,,,,
296938,2022-10-02_13h53.13.310,vts_reward_expectancy,2022.2.4,MacIntel,120.0048002,Chrome,1471,945,,,,,0,652,,,,,,,,,,,,,,,,,125,D,circle,0,0,,,,,,,,,,,,,,,,switch,number,NA,f,1.2863,Hi,,,,,,0,,,,,,,,high,5,0,5,0,1,,,,,,,,,
296938,2022-10-02_13h53.13.310,vts_reward_expectancy,2022.2.4,MacIntel,120.0048002,Chrome,1471,945,,,,,1,653,,,,,,,,,,,,,,,,,146,F,circle,1,1,,,,,,,,,,,,,,,,switch,letter,lettSwt,j,0.8275,Lo,,,,,,0,,,,,,,,high,6,0,6,0,1,,,,,,,,,
296938,2022-10-02_13h53.13.310,vts_reward_expectancy,2022.2.4,MacIntel,120.0048002,Chrome,1471,945,,,,,10,663,,,,,,,,,,,,,,,,,181,S,triangle,1,0,,,,,,,,,,,,,,,,repeat,letter,lettRpt,k,0.5484,Hi,,,,,,0,,,,,,,,high,7,0,7,0,1,,,,,,,,,
296938,2022-10-02_13h53.13.310,vts_reward_expectancy,2022.2.4,MacIntel,120.0048002,Chrome,1471,945,,,,,1,664,,,,,,,,,,,,,,,,,167,U,circle,1,0,,,,,,,,,,,,,,,,switch,number,numSwt,f,0.6698,Lo,,,,,,0,,,,,,,,high,8,0,8,0,1,,,,,,,,,
296938,2022-10-02_13h53.13.310,vts_reward_expectancy,2022.2.4,MacIntel,120.0048002,Chrome,1471,945,,,,,0,664,,,,,,,,,,,,,,,,,174,B,triangle,1,0,,,,,,,,,,,,,,,,repeat,number,numRpt,f,0.6453,Hi,,,,,,0,,,,,,,,high,9,0,9,0,1,,,,,,,,,
296938,2022-10-02_13h53.13.310,vts_reward_expectancy,2022.2.4,MacIntel,120.0048002,Chrome,1471,945,,,,,10,674,,,,,,,,,,,,,,,,,139,Y,triangle,1,0,,,,,,,,,,,,,,,,repeat,number,numRpt,d,0.4883,Hi,,,,,,0,,,,,,,,high,10,0,10,0,1,,,,,,,,,
296938,2022-10-02_13h53.13.310,vts_reward_expectancy,2022.2.4,MacIntel,120.0048002,Chrome,1471,945,,,,,10,684,,,,,,,,,,,,,,,,,160,H,circle,1,0,,,,,,,,,,,,,,,,repeat,number,numRpt,f,1.0903,Lo,,,,,,0,,,,,,,,high,11,0,11,0,1,,,,,,,,,
296938,2022-10-02_13h53.13.310,vts_reward_expectancy,2022.2.4,MacIntel,120.0048002,Chrome,1471,945,,,,,1,685,,,,,,,,,,,,,,,,,132,W,circle,1,0,,,,,,,,,,,,,,,,repeat,number,numRpt,d,0.6402,Lo,,,,,,0,,,,,,,,high,12,0,12,0,1,,,,,,,,,
296938,2022-10-02_13h53.13.310,vts_reward_expectancy,2022.2.4,MacIntel,120.0048002,Chrome,1471,945,,,,,0,685,,,,,,,,,,,,,,,,,125,D,triangle,0,0,,,,,,,,,,,,,,,,switch,letter,NA,k,0.5988,Lo,,,,,,0,,,,,,,,high,13,0,13,0,1,,,,,,,,,
296938,2022-10-02_13h53.13.310,vts_reward_expectancy,2022.2.4,MacIntel,120.0048002,Chrome,1471,945,,,,,0,685,,,,,,,,,,,,,,,,,146,F,circle,0,1,,,,,,,,,,,,,,,,repeat,letter,NA,k,0.6349,Lo,,,,,,0,,,,,,,,high,14,0,14,0,1,,,,,,,,,
296938,2022-10-02_13h53.13.310,vts_reward_expectancy,2022.2.4,MacIntel,120.0048002,Chrome,1471,945,,,,,10,695,,,,,,,,,,,,,,,,,181,S,triangle,1,1,,,,,,,,,,,,,,,,repeat,letter,lettRpt,k,0.5976,Hi,,,,,,0,,,,,,,,high,15,0,15,0,1,,,,,,,,,
296938,2022-10-02_13h53.13.310,vts_reward_expectancy,2022.2.4,MacIntel,120.0048002,Chrome,1471,945,,,,,1,696,,,,,,,,,,,,,,,,,160,B,circle,1,0,,,,,,,,,,,,,,,,repeat,letter,lettRpt,j,0.5604,Lo,,,,,,0,,,,,,,,high,16,0,16,0,1,,,,,,,,,
296938,2022-10-02_13h53.13.310,vts_reward_expectancy,2022.2.4,MacIntel,120.0048002,Chrome,1471,945,,,,,10,706,,,,,,,,,,,,,,,,,174,H,triangle,1,0,,,,,,,,,,,,,,,,repeat,letter,lettRpt,j,0.6831,Hi,,,,,,0,,,,,,,,high,17,0,17,0,1,,,,,,,,,
296938,2022-10-02_13h53.13.310,vts_reward_expectancy,2022.2.4,MacIntel,120.0048002,Chrome,1471,945,,,,,0,706,,,,,,,,,,,,,,,,,146,S,triangle,0,0,,,,,,,,,,,,,,,,repeat,letter,NA,j,1.2246,Hi,,,,,,0,,,,,,,,high,18,0,18,0,1,,,,,,,,,
296938,2022-10-02_13h53.13.310,vts_reward_expectancy,2022.2.4,MacIntel,120.0048002,Chrome,1471,945,,,,,1,707,,,,,,,,,,,,,,,,,125,U,circle,1,1,,,,,,,,,,,,,,,,repeat,letter,lettRpt,k,1.0376,Lo,,,,,,0,,,,,,,,high,19,0,19,0,1,,,,,,,,,
296938,2022-10-02_13h53.13.310,vts_reward_expectancy,2022.2.4,MacIntel,120.0048002,Chrome,1471,945,,,,,1,708,,,,,,,,,,,,,,,,,167,F,circle,1,0,,,,,,,,,,,,,,,,repeat,letter,lettRpt,j,0.7602,Lo,,,,,,0,,,,,,,,high,20,0,20,0,1,,,,,,,,,
296938,2022-10-02_13h53.13.310,vts_reward_expectancy,2022.2.4,MacIntel,120.0048002,Chrome,1471,945,,,,,10,718,,,,,,,,,,,,,,,,,132,D,triangle,1,0,,,,,,,,,,,,,,,,repeat,letter,lettRpt,j,0.6773,Hi,,,,,,0,,,,,,,,high,21,0,21,0,1,,,,,,,,,
296938,2022-10-02_13h53.13.310,vts_reward_expectancy,2022.2.4,MacIntel,120.0048002,Chrome,1471,945,,,,,1,719,,,,,,,,,,,,,,,,,181,Y,circle,1,0,,,,,,,,,,,,,,,,repeat,letter,lettRpt,k,0.7084,Lo,,,,,,0,,,,,,,,high,22,0,22,0,1,,,,,,,,,
296938,2022-10-02_13h53.13.310,vts_reward_expectancy,2022.2.4,MacIntel,120.0048002,Chrome,1471,945,,,,,0,719,,,,,,,,,,,,,,,,,139,W,triangle,0,0,,,,,,,,,,,,,,,,switch,number,NA,f,0.988,Lo,,,,,,0,,,,,,,,high,23,0,23,0,1,,,,,,,,,
296938,2022-10-02_13h53.13.310,vts_reward_expectancy,2022.2.4,MacIntel,120.0048002,Chrome,1471,945,,,,,0,719,,,,,,,,,,,,,,,,,125,S,triangle,1,1,,,,,,,,,,,,,,,,switch,letter,lettSwt,k,1.899,Hi,,,,,,0,,,,,,,,high,24,0,24,0,1,,,,,,,,,
296938,2022-10-02_13h53.13.310,vts_reward_expectancy,2022.2.4,MacIntel,120.0048002,Chrome,1471,945,,,,,1,720,,,,,,,,,,,,,,,,,181,Y,circle,1,0,,,,,,,,,,,,,,,,repeat,letter,lettRpt,k,0.6438,Lo,,,,,,0,,,,,,,,high,25,0,25,0,1,,,,,,,,,
296938,2022-10-02_13h53.13.310,vts_reward_expectancy,2022.2.4,MacIntel,120.0048002,Chrome,1471,945,,,,,10,730,,,,,,,,,,,,,,,,,146,H,circle,1,0,,,,,,,,,,,,,,,,repeat,letter,lettRpt,j,0.8547,Lo,,,,,,0,,,,,,,,high,26,0,26,0,1,,,,,,,,,
296938,2022-10-02_13h53.13.310,vts_reward_expectancy,2022.2.4,MacIntel,120.0048002,Chrome,1471,945,,,,,10,740,,,,,,,,,,,,,,,,,132,U,triangle,1,0,,,,,,,,,,,,,,,,switch,number,numSwt,d,0.6542,Hi,,,,,,0,,,,,,,,high,27,0,27,0,1,,,,,,,,,
296938,2022-10-02_13h53.13.310,vts_reward_expectancy,2022.2.4,MacIntel,120.0048002,Chrome,1471,945,,,,,1,741,,,,,,,,,,,,,,,,,174,W,circle,1,0,,,,,,,,,,,,,,,,switch,letter,lettSwt,k,0.7162,Lo,,,,,,0,,,,,,,,high,28,0,28,0,1,,,,,,,,,
296938,2022-10-02_13h53.13.310,vts_reward_expectancy,2022.2.4,MacIntel,120.0048002,Chrome,1471,945,,,,,10,751,,,,,,,,,,,,,,,,,167,D,triangle,1,0,,,,,,,,,,,,,,,,repeat,letter,lettRpt,j,0.5276,Hi,,,,,,0,,,,,,,,high,29,0,29,0,1,,,,,,,,,
296938,2022-10-02_13h53.13.310,vts_reward_expectancy,2022.2.4,MacIntel,120.0048002,Chrome,1471,945,,,,,10,761,,,,,,,,,,,,,,,,,160,B,triangle,1,0,,,,,,,,,,,,,,,,switch,number,numSwt,f,0.6055,Hi,,,,,,0,,,,,,,,high,30,0,30,0,1,,,,,,,,,
296938,2022-10-02_13h53.13.310,vts_reward_expectancy,2022.2.4,MacIntel,120.0048002,Chrome,1471,945,,,,,1,762,,,,,,,,,,,,,,,,,139,F,circle,1,0,,,,,,,,,,,,,,,,switch,letter,lettSwt,j,0.623,Lo,,,,,,0,,,,,,,,high,31,0,31,0,1,,,,,,,,,
296938,2022-10-02_13h53.13.310,vts_reward_expectancy,2022.2.4,MacIntel,120.0048002,Chrome,1471,945,,,,,10,772,,,,,,,,,,,,,,,,,160,U,triangle,1,0,,,,,,,,,,,,,,,,repeat,letter,lettRpt,k,0.4729,Hi,,,,,,1,,,,,,space,2.7449,high,0,0,0,0,1,,,,,,,,,
296938,2022-10-02_13h53.13.310,vts_reward_expectancy,2022.2.4,MacIntel,120.0048002,Chrome,1471,945,,,,,1,773,,,,,,,,,,,,,,,,,132,D,circle,1,0,,,,,,,,,,,,,,,,switch,number,numSwt,d,0.3901,Lo,,,,,,1,,,,,,,,high,1,0,1,0,1,,,,,,,,,
296938,2022-10-02_13h53.13.310,vts_reward_expectancy,2022.2.4,MacIntel,120.0048002,Chrome,1471,945,,,,,10,783,,,,,,,,,,,,,,,,,181,F,triangle,1,0,,,,,,,,,,,,,,,,repeat,number,numRpt,f,0.3897,Hi,,,,,,1,,,,,,,,high,2,0,2,0,1,,,,,,,,,
296938,2022-10-02_13h53.13.310,vts_reward_expectancy,2022.2.4,MacIntel,120.0048002,Chrome,1471,945,,,,,1,784,,,,,,,,,,,,,,,,,139,Y,circle,1,0,,,,,,,,,,,,,,,,repeat,number,numRpt,d,0.5586,Lo,,,,,,1,,,,,,,,high,3,0,3,0,1,,,,,,,,,
296938,2022-10-02_13h53.13.310,vts_reward_expectancy,2022.2.4,MacIntel,120.0048002,Chrome,1471,945,,,,,10,794,,,,,,,,,,,,,,,,,167,B,triangle,1,0,,,,,,,,,,,,,,,,repeat,number,numRpt,f,0.3809,Hi,,,,,,1,,,,,,,,high,4,0,4,0,1,,,,,,,,,
296938,2022-10-02_13h53.13.310,vts_reward_expectancy,2022.2.4,MacIntel,120.0048002,Chrome,1471,945,,,,,0,794,,,,,,,,,,,,,,,,,174,H,circle,0,0,,,,,,,,,,,,,,,,switch,letter,NA,k,0.4192,Hi,,,,,,1,,,,,,,,high,5,0,5,0,1,,,,,,,,,
296938,2022-10-02_13h53.13.310,vts_reward_expectancy,2022.2.4,MacIntel,120.0048002,Chrome,1471,945,,,,,10,804,,,,,,,,,,,,,,,,,125,S,triangle,1,1,,,,,,,,,,,,,,,,repeat,letter,lettRpt,k,0.4447,Hi,,,,,,1,,,,,,,,high,6,0,6,0,1,,,,,,,,,
296938,2022-10-02_13h53.13.310,vts_reward_expectancy,2022.2.4,MacIntel,120.0048002,Chrome,1471,945,,,,,1,805,,,,,,,,,,,,,,,,,146,W,circle,1,0,,,,,,,,,,,,,,,,repeat,letter,lettRpt,k,0.5085,Lo,,,,,,1,,,,,,,,high,7,0,7,0,1,,,,,,,,,
296938,2022-10-02_13h53.13.310,vts_reward_expectancy,2022.2.4,MacIntel,120.0048002,Chrome,1471,945,,,,,10,815,,,,,,,,,,,,,,,,,160,U,triangle,1,0,,,,,,,,,,,,,,,,repeat,letter,lettRpt,k,0.3875,Hi,,,,,,1,,,,,,,,high,8,0,8,0,1,,,,,,,,,
296938,2022-10-02_13h53.13.310,vts_reward_expectancy,2022.2.4,MacIntel,120.0048002,Chrome,1471,945,,,,,1,816,,,,,,,,,,,,,,,,,132,D,circle,1,0,,,,,,,,,,,,,,,,repeat,letter,lettRpt,j,1.2002,Lo,,,,,,1,,,,,,,,high,9,0,9,0,1,,,,,,,,,
296938,2022-10-02_13h53.13.310,vts_reward_expectancy,2022.2.4,MacIntel,120.0048002,Chrome,1471,945,,,,,0,816,,,,,,,,,,,,,,,,,181,F,circle,0,0,,,,,,,,,,,,,,,,repeat,letter,NA,k,0.5314,Lo,,,,,,1,,,,,,,,high,10,0,10,0,1,,,,,,,,,
296938,2022-10-02_13h53.13.310,vts_reward_expectancy,2022.2.4,MacIntel,120.0048002,Chrome,1471,945,,,,,0,816,,,,,,,,,,,,,,,,,139,Y,triangle,1,1,,,,,,,,,,,,,,,,repeat,letter,lettRpt,k,0.6338,Hi,,,,,,1,,,,,,,,high,11,0,11,0,1,,,,,,,,,
296938,2022-10-02_13h53.13.310,vts_reward_expectancy,2022.2.4,MacIntel,120.0048002,Chrome,1471,945,,,,,0,816,,,,,,,,,,,,,,,,,167,B,circle,0,0,,,,,,,,,,,,,,,,switch,number,NA,d,0.5977,Hi,,,,,,1,,,,,,,,high,12,0,12,0,1,,,,,,,,,
296938,2022-10-02_13h53.13.310,vts_reward_expectancy,2022.2.4,MacIntel,120.0048002,Chrome,1471,945,,,,,1,817,,,,,,,,,,,,,,,,,174,H,triangle,1,1,,,,,,,,,,,,,,,,repeat,number,numRpt,f,0.4493,Hi,,,,,,1,,,,,,,,high,13,0,13,0,1,,,,,,,,,
296938,2022-10-02_13h53.13.310,vts_reward_expectancy,2022.2.4,MacIntel,120.0048002,Chrome,1471,945,,,,,1,818,,,,,,,,,,,,,,,,,125,S,circle,1,0,,,,,,,,,,,,,,,,repeat,number,numRpt,d,0.4281,Lo,,,,,,1,,,,,,,,high,14,0,14,0,1,,,,,,,,,
296938,2022-10-02_13h53.13.310,vts_reward_expectancy,2022.2.4,MacIntel,120.0048002,Chrome,1471,945,,,,,0,818,,,,,,,,,,,,,,,,,146,W,triangle,1,0,,,,,,,,,,,,,,,,repeat,number,numRpt,d,1.0008,Hi,,,,,,1,,,,,,,,high,15,0,15,0,1,,,,,,,,,
296938,2022-10-02_13h53.13.310,vts_reward_expectancy,2022.2.4,MacIntel,120.0048002,Chrome,1471,945,,,,,1,819,,,,,,,,,,,,,,,,,181,D,circle,1,0,,,,,,,,,,,,,,,,repeat,number,numRpt,f,0.4613,Lo,,,,,,1,,,,,,,,high,16,0,16,0,1,,,,,,,,,
296938,2022-10-02_13h53.13.310,vts_reward_expectancy,2022.2.4,MacIntel,120.0048002,Chrome,1471,945,,,,,10,829,,,,,,,,,,,,,,,,,139,S,triangle,1,0,,,,,,,,,,,,,,,,repeat,number,numRpt,d,0.358,Hi,,,,,,1,,,,,,,,high,17,0,17,0,1,,,,,,,,,
296938,2022-10-02_13h53.13.310,vts_reward_expectancy,2022.2.4,MacIntel,120.0048002,Chrome,1471,945,,,,,1,830,,,,,,,,,,,,,,,,,167,Y,circle,1,0,,,,,,,,,,,,,,,,repeat,number,numRpt,f,0.4375,Lo,,,,,,1,,,,,,,,high,18,0,18,0,1,,,,,,,,,
296938,2022-10-02_13h53.13.310,vts_reward_expectancy,2022.2.4,MacIntel,120.0048002,Chrome,1471,945,,,,,10,840,,,,,,,,,,,,,,,,,160,U,triangle,1,0,,,,,,,,,,,,,,,,switch,letter,lettSwt,k,0.4739,Hi,,,,,,1,,,,,,,,high,19,0,19,0,1,,,,,,,,,
296938,2022-10-02_13h53.13.310,vts_reward_expectancy,2022.2.4,MacIntel,120.0048002,Chrome,1471,945,,,,,0,840,,,,,,,,,,,,,,,,,132,W,triangle,0,0,,,,,,,,,,,,,,,,repeat,letter,NA,j,0.4825,Hi,,,,,,1,,,,,,,,high,20,0,20,0,1,,,,,,,,,
296938,2022-10-02_13h53.13.310,vts_reward_expectancy,2022.2.4,MacIntel,120.0048002,Chrome,1471,945,,,,,10,850,,,,,,,,,,,,,,,,,146,B,circle,1,1,,,,,,,,,,,,,,,,repeat,letter,lettRpt,j,0.9614,Lo,,,,,,1,,,,,,,,high,21,0,21,0,1,,,,,,,,,
296938,2022-10-02_13h53.13.310,vts_reward_expectancy,2022.2.4,MacIntel,120.0048002,Chrome,1471,945,,,,,0,850,,,,,,,,,,,,,,,,,174,F,triangle,1,0,,,,,,,,,,,,,,,,repeat,letter,lettRpt,j,1.1954,Hi,,,,,,1,,,,,,,,high,22,0,22,0,1,,,,,,,,,
296938,2022-10-02_13h53.13.310,vts_reward_expectancy,2022.2.4,MacIntel,120.0048002,Chrome,1471,945,,,,,1,851,,,,,,,,,,,,,,,,,125,H,circle,1,0,,,,,,,,,,,,,,,,switch,number,numSwt,d,0.8236,Lo,,,,,,1,,,,,,,,high,23,0,23,0,1,,,,,,,,,
296938,2022-10-02_13h53.13.310,vts_reward_expectancy,2022.2.4,MacIntel,120.0048002,Chrome,1471,945,,,,,0,851,,,,,,,,,,,,,,,,,139,W,triangle,1,0,,,,,,,,,,,,,,,,repeat,number,numRpt,d,0.8399,Hi,,,,,,1,,,,,,,,high,24,0,24,0,1,,,,,,,,,
296938,2022-10-02_13h53.13.310,vts_reward_expectancy,2022.2.4,MacIntel,120.0048002,Chrome,1471,945,,,,,1,852,,,,,,,,,,,,,,,,,181,D,circle,1,0,,,,,,,,,,,,,,,,repeat,number,numRpt,f,0.6966,Lo,,,,,,1,,,,,,,,high,25,0,25,0,1,,,,,,,,,
296938,2022-10-02_13h53.13.310,vts_reward_expectancy,2022.2.4,MacIntel,120.0048002,Chrome,1471,945,,,,,0,852,,,,,,,,,,,,,,,,,125,S,triangle,1,0,,,,,,,,,,,,,,,,repeat,number,numRpt,d,0.7819,Hi,,,,,,1,,,,,,,,high,26,0,26,0,1,,,,,,,,,
296938,2022-10-02_13h53.13.310,vts_reward_expectancy,2022.2.4,MacIntel,120.0048002,Chrome,1471,945,,,,,0,852,,,,,,,,,,,,,,,,,160,Y,circle,0,0,,,,,,,,,,,,,,,,repeat,number,NA,d,0.3942,Hi,,,,,,1,,,,,,,,high,27,0,27,0,1,,,,,,,,,
296938,2022-10-02_13h53.13.310,vts_reward_expectancy,2022.2.4,MacIntel,120.0048002,Chrome,1471,945,,,,,0,852,,,,,,,,,,,,,,,,,146,H,circle,0,1,,,,,,,,,,,,,,,,repeat,number,NA,f,0.5208,Hi,,,,,,1,,,,,,,,high,28,0,28,0,1,,,,,,,,,
296938,2022-10-02_13h53.13.310,vts_reward_expectancy,2022.2.4,MacIntel,120.0048002,Chrome,1471,945,,,,,0,852,,,,,,,,,,,,,,,,,167,U,triangle,1,1,,,,,,,,,,,,,,,,repeat,number,numRpt,f,0.9152,Hi,,,,,,1,,,,,,,,high,29,0,29,0,1,,,,,,,,,
296938,2022-10-02_13h53.13.310,vts_reward_expectancy,2022.2.4,MacIntel,120.0048002,Chrome,1471,945,,,,,0,852,,,,,,,,,,,,,,,,,174,B,triangle,0,0,,,,,,,,,,,,,,,,repeat,number,NA,d,0.2802,Hi,,,,,,1,,,,,,,,high,30,0,30,0,1,,,,,,,,,
296938,2022-10-02_13h53.13.310,vts_reward_expectancy,2022.2.4,MacIntel,120.0048002,Chrome,1471,945,,,,,1,853,,,,,,,,,,,,,,,,,132,F,circle,1,1,,,,,,,,,,,,,,,,repeat,number,numRpt,d,0.774,Lo,,,,,,1,,,,,,,,high,31,0,31,0,1,,,,,,,,,
296938,2022-10-02_13h53.13.310,vts_reward_expectancy,2022.2.4,MacIntel,120.0048002,Chrome,1471,945,,,,,10,863,,,,,,,,,,,,,,,,,174,U,star,1,0,,,,,,,,,,,,,,,,repeat,number,numRpt,f,0.6641,Lo,,,,,,2,,,,,,space,1.2115,low,0,0,0,0,1,,,,,,,,,
296938,2022-10-02_13h53.13.310,vts_reward_expectancy,2022.2.4,MacIntel,120.0048002,Chrome,1471,945,,,,,10,873,,,,,,,,,,,,,,,,,139,H,hexagon,1,0,,,,,,,,,,,,,,,,repeat,number,numRpt,d,0.3205,Hi,,,,,,2,,,,,,,,low,1,0,1,0,1,,,,,,,,,
296938,2022-10-02_13h53.13.310,vts_reward_expectancy,2022.2.4,MacIntel,120.0048002,Chrome,1471,945,,,,,1,874,,,,,,,,,,,,,,,,,146,B,star,1,0,,,,,,,,,,,,,,,,repeat,number,numRpt,d,0.4687,Lo,,,,,,2,,,,,,,,low,2,0,2,0,1,,,,,,,,,
296938,2022-10-02_13h53.13.310,vts_reward_expectancy,2022.2.4,MacIntel,120.0048002,Chrome,1471,945,,,,,1,875,,,,,,,,,,,,,,,,,167,S,hexagon,1,0,,,,,,,,,,,,,,,,repeat,number,numRpt,f,0.34,Hi,,,,,,2,,,,,,,,low,3,0,3,0,1,,,,,,,,,
296938,2022-10-02_13h53.13.310,vts_reward_expectancy,2022.2.4,MacIntel,120.0048002,Chrome,1471,945,,,,,10,885,,,,,,,,,,,,,,,,,125,W,hexagon,1,0,,,,,,,,,,,,,,,,switch,letter,lettSwt,k,0.4085,Hi,,,,,,2,,,,,,,,low,4,0,4,0,1,,,,,,,,,
296938,2022-10-02_13h53.13.310,vts_reward_expectancy,2022.2.4,MacIntel,120.0048002,Chrome,1471,945,,,,,1,886,,,,,,,,,,,,,,,,,181,Y,star,1,0,,,,,,,,,,,,,,,,repeat,letter,lettRpt,k,0.995,Lo,,,,,,2,,,,,,,,low,5,0,5,0,1,,,,,,,,,
296938,2022-10-02_13h53.13.310,vts_reward_expectancy,2022.2.4,MacIntel,120.0048002,Chrome,1471,945,,,,,0,886,,,,,,,,,,,,,,,,,132,F,star,0,0,,,,,,,,,,,,,,,,switch,number,NA,f,0.3744,Lo,,,,,,2,,,,,,,,low,6,0,6,0,1,,,,,,,,,
296938,2022-10-02_13h53.13.310,vts_reward_expectancy,2022.2.4,MacIntel,120.0048002,Chrome,1471,945,,,,,0,886,,,,,,,,,,,,,,,,,160,D,hexagon,1,1,,,,,,,,,,,,,,,,switch,letter,lettSwt,j,0.5904,Hi,,,,,,2,,,,,,,,low,7,0,7,0,1,,,,,,,,,
296938,2022-10-02_13h53.13.310,vts_reward_expectancy,2022.2.4,MacIntel,120.0048002,Chrome,1471,945,,,,,1,887,,,,,,,,,,,,,,,,,174,U,star,1,0,,,,,,,,,,,,,,,,repeat,letter,lettRpt,k,0.6843,Lo,,,,,,2,,,,,,,,low,8,0,8,0,1,,,,,,,,,
296938,2022-10-02_13h53.13.310,vts_reward_expectancy,2022.2.4,MacIntel,120.0048002,Chrome,1471,945,,,,,0,887,,,,,,,,,,,,,,,,,139,H,hexagon,1,0,,,,,,,,,,,,,,,,repeat,letter,lettRpt,j,0.5646,Hi,,,,,,2,,,,,,,,low,9,0,9,0,1,,,,,,,,,
296938,2022-10-02_13h53.13.310,vts_reward_expectancy,2022.2.4,MacIntel,120.0048002,Chrome,1471,945,,,,,10,897,,,,,,,,,,,,,,,,,146,B,hexagon,1,0,,,,,,,,,,,,,,,,repeat,letter,lettRpt,j,0.4417,Hi,,,,,,2,,,,,,,,low,10,0,10,0,1,,,,,,,,,
296938,2022-10-02_13h53.13.310,vts_reward_expectancy,2022.2.4,MacIntel,120.0048002,Chrome,1471,945,,,,,1,898,,,,,,,,,,,,,,,,,167,S,star,1,0,,,,,,,,,,,,,,,,repeat,letter,lettRpt,k,0.4983,Lo,,,,,,2,,,,,,,,low,11,0,11,0,1,,,,,,,,,
296938,2022-10-02_13h53.13.310,vts_reward_expectancy,2022.2.4,MacIntel,120.0048002,Chrome,1471,945,,,,,0,898,,,,,,,,,,,,,,,,,125,W,hexagon,1,0,,,,,,,,,,,,,,,,switch,number,numSwt,d,0.4774,Hi,,,,,,2,,,,,,,,low,12,0,12,0,1,,,,,,,,,
296938,2022-10-02_13h53.13.310,vts_reward_expectancy,2022.2.4,MacIntel,120.0048002,Chrome,1471,945,,,,,10,908,,,,,,,,,,,,,,,,,181,Y,star,1,0,,,,,,,,,,,,,,,,repeat,number,numRpt,f,0.665,Lo,,,,,,2,,,,,,,,low,13,0,13,0,1,,,,,,,,,
296938,2022-10-02_13h53.13.310,vts_reward_expectancy,2022.2.4,MacIntel,120.0048002,Chrome,1471,945,,,,,10,918,,,,,,,,,,,,,,,,,132,F,hexagon,1,0,,,,,,,,,,,,,,,,repeat,number,numRpt,d,0.2694,Hi,,,,,,2,,,,,,,,low,14,0,14,0,1,,,,,,,,,
296938,2022-10-02_13h53.13.310,vts_reward_expectancy,2022.2.4,MacIntel,120.0048002,Chrome,1471,945,,,,,1,919,,,,,,,,,,,,,,,,,160,D,star,1,0,,,,,,,,,,,,,,,,repeat,number,numRpt,f,0.2984,Lo,,,,,,2,,,,,,,,low,15,0,15,0,1,,,,,,,,,
296938,2022-10-02_13h53.13.310,vts_reward_expectancy,2022.2.4,MacIntel,120.0048002,Chrome,1471,945,,,,,0,919,,,,,,,,,,,,,,,,,160,S,hexagon,-1,0,,,,,,,,,,,,,,,,switch,no_choice,NA,,,Lo,,,,,,2,,,,,,,,low,16,0,16,0,1,,,,,,,,,
296938,2022-10-02_13h53.13.310,vts_reward_expectancy,2022.2.4,MacIntel,120.0048002,Chrome,1471,945,,,,,10,929,,,,,,,,,,,,,,,,,181,W,star,1,0,,,,,,,,,,,,,,,,switch,number,numSwt,f,1.0383,Lo,,,,,,2,,,,,,,,low,17,0,17,0,1,,,,,,,,,
296938,2022-10-02_13h53.13.310,vts_reward_expectancy,2022.2.4,MacIntel,120.0048002,Chrome,1471,945,,,,,0,929,,,,,,,,,,,,,,,,,125,F,hexagon,1,0,,,,,,,,,,,,,,,,repeat,number,numRpt,d,0.5082,Hi,,,,,,2,,,,,,,,low,18,0,18,0,1,,,,,,,,,
296938,2022-10-02_13h53.13.310,vts_reward_expectancy,2022.2.4,MacIntel,120.0048002,Chrome,1471,945,,,,,1,930,,,,,,,,,,,,,,,,,174,D,star,1,0,,,,,,,,,,,,,,,,repeat,number,numRpt,f,0.8219,Lo,,,,,,2,,,,,,,,low,19,0,19,0,1,,,,,,,,,
296938,2022-10-02_13h53.13.310,vts_reward_expectancy,2022.2.4,MacIntel,120.0048002,Chrome,1471,945,,,,,0,930,,,,,,,,,,,,,,,,,146,Y,hexagon,0,0,,,,,,,,,,,,,,,,repeat,number,NA,f,1.1848,Lo,,,,,,2,,,,,,,,low,20,0,20,0,1,,,,,,,,,
296938,2022-10-02_13h53.13.310,vts_reward_expectancy,2022.2.4,MacIntel,120.0048002,Chrome,1471,945,,,,,1,931,,,,,,,,,,,,,,,,,139,B,star,1,1,,,,,,,,,,,,,,,,repeat,number,numRpt,d,0.6573,Lo,,,,,,2,,,,,,,,low,21,0,21,0,1,,,,,,,,,
296938,2022-10-02_13h53.13.310,vts_reward_expectancy,2022.2.4,MacIntel,120.0048002,Chrome,1471,945,,,,,10,941,,,,,,,,,,,,,,,,,167,U,star,1,0,,,,,,,,,,,,,,,,repeat,number,numRpt,f,0.4911,Lo,,,,,,2,,,,,,,,low,22,0,22,0,1,,,,,,,,,
296938,2022-10-02_13h53.13.310,vts_reward_expectancy,2022.2.4,MacIntel,120.0048002,Chrome,1471,945,,,,,1,942,,,,,,,,,,,,,,,,,132,H,hexagon,1,0,,,,,,,,,,,,,,,,repeat,number,numRpt,d,0.4182,Hi,,,,,,2,,,,,,,,low,23,0,23,0,1,,,,,,,,,
296938,2022-10-02_13h53.13.310,vts_reward_expectancy,2022.2.4,MacIntel,120.0048002,Chrome,1471,945,,,,,0,942,,,,,,,,,,,,,,,,,181,Y,hexagon,1,0,,,,,,,,,,,,,,,,repeat,number,numRpt,f,0.6622,Hi,,,,,,2,,,,,,,,low,24,0,24,0,1,,,,,,,,,
296938,2022-10-02_13h53.13.310,vts_reward_expectancy,2022.2.4,MacIntel,120.0048002,Chrome,1471,945,,,,,10,952,,,,,,,,,,,,,,,,,139,B,star,1,0,,,,,,,,,,,,,,,,repeat,number,numRpt,d,0.6025,Lo,,,,,,2,,,,,,,,low,25,0,25,0,1,,,,,,,,,
296938,2022-10-02_13h53.13.310,vts_reward_expectancy,2022.2.4,MacIntel,120.0048002,Chrome,1471,945,,,,,10,962,,,,,,,,,,,,,,,,,160,U,star,1,0,,,,,,,,,,,,,,,,repeat,number,numRpt,f,0.5013,Lo,,,,,,2,,,,,,,,low,26,0,26,0,1,,,,,,,,,
296938,2022-10-02_13h53.13.310,vts_reward_expectancy,2022.2.4,MacIntel,120.0048002,Chrome,1471,945,,,,,0,962,,,,,,,,,,,,,,,,,167,S,hexagon,1,0,,,,,,,,,,,,,,,,repeat,number,numRpt,f,0.4936,Hi,,,,,,2,,,,,,,,low,27,0,27,0,1,,,,,,,,,
296938,2022-10-02_13h53.13.310,vts_reward_expectancy,2022.2.4,MacIntel,120.0048002,Chrome,1471,945,,,,,0,962,,,,,,,,,,,,,,,,,174,D,hexagon,1,0,,,,,,,,,,,,,,,,repeat,number,numRpt,f,0.5744,Hi,,,,,,2,,,,,,,,low,28,0,28,0,1,,,,,,,,,
296938,2022-10-02_13h53.13.310,vts_reward_expectancy,2022.2.4,MacIntel,120.0048002,Chrome,1471,945,,,,,1,963,,,,,,,,,,,,,,,,,125,W,star,1,0,,,,,,,,,,,,,,,,repeat,number,numRpt,d,0.3406,Lo,,,,,,2,,,,,,,,low,29,0,29,0,1,,,,,,,,,
296938,2022-10-02_13h53.13.310,vts_reward_expectancy,2022.2.4,MacIntel,120.0048002,Chrome,1471,945,,,,,1,964,,,,,,,,,,,,,,,,,132,H,star,1,0,,,,,,,,,,,,,,,,repeat,number,numRpt,d,0.8681,Lo,,,,,,2,,,,,,,,low,30,0,30,0,1,,,,,,,,,
296938,2022-10-02_13h53.13.310,vts_reward_expectancy,2022.2.4,MacIntel,120.0048002,Chrome,1471,945,,,,,0,964,,,,,,,,,,,,,,,,,146,F,hexagon,0,0,,,,,,,,,,,,,,,,repeat,number,NA,f,0.4235,Lo,,,,,,2,,,,,,,,low,31,0,31,0,1,,,,,,,,,
296938,2022-10-02_13h53.13.310,vts_reward_expectancy,2022.2.4,MacIntel,120.0048002,Chrome,1471,945,,,,,10,974,,,,,,,,,,,,,,,,,167,F,circle,1,1,,,,,,,,,,,,,,,,switch,letter,lettSwt,j,1.3946,Lo,,,,,,3,,,,,,space,1.133,high,0,0,0,0,1,,,,,,,,,
296938,2022-10-02_13h53.13.310,vts_reward_expectancy,2022.2.4,MacIntel,120.0048002,Chrome,1471,945,,,,,0,974,,,,,,,,,,,,,,,,,132,B,triangle,1,0,,,,,,,,,,,,,,,,switch,number,numSwt,d,0.5779,Hi,,,,,,3,,,,,,,,high,1,0,1,0,1,,,,,,,,,
296938,2022-10-02_13h53.13.310,vts_reward_expectancy,2022.2.4,MacIntel,120.0048002,Chrome,1471,945,,,,,0,974,,,,,,,,,,,,,,,,,181,Y,circle,0,0,,,,,,,,,,,,,,,,repeat,number,NA,d,0.0431,Hi,,,,,,3,,,,,,,,high,2,0,2,0,1,,,,,,,,,
296938,2022-10-02_13h53.13.310,vts_reward_expectancy,2022.2.4,MacIntel,120.0048002,Chrome,1471,945,,,,,0,974,,,,,,,,,,,,,,,,,146,U,triangle,1,1,,,,,,,,,,,,,,,,switch,letter,lettSwt,k,0.524,Hi,,,,,,3,,,,,,,,high,3,0,3,0,1,,,,,,,,,
296938,2022-10-02_13h53.13.310,vts_reward_expectancy,2022.2.4,MacIntel,120.0048002,Chrome,1471,945,,,,,10,984,,,,,,,,,,,,,,,,,139,W,triangle,1,0,,,,,,,,,,,,,,,,repeat,letter,lettRpt,k,0.3939,Hi,,,,,,3,,,,,,,,high,4,0,4,0,1,,,,,,,,,
296938,2022-10-02_13h53.13.310,vts_reward_expectancy,2022.2.4,MacIntel,120.0048002,Chrome,1471,945,,,,,1,985,,,,,,,,,,,,,,,,,174,H,circle,1,0,,,,,,,,,,,,,,,,switch,number,numSwt,f,0.286,Lo,,,,,,3,,,,,,,,high,5,0,5,0,1,,,,,,,,,
296938,2022-10-02_13h53.13.310,vts_reward_expectancy,2022.2.4,MacIntel,120.0048002,Chrome,1471,945,,,,,1,986,,,,,,,,,,,,,,,,,160,S,circle,1,0,,,,,,,,,,,,,,,,switch,letter,lettSwt,k,0.2882,Lo,,,,,,3,,,,,,,,high,6,0,6,0,1,,,,,,,,,
296938,2022-10-02_13h53.13.310,vts_reward_expectancy,2022.2.4,MacIntel,120.0048002,Chrome,1471,945,,,,,0,986,,,,,,,,,,,,,,,,,125,D,triangle,1,0,,,,,,,,,,,,,,,,switch,number,numSwt,d,0.4824,Hi,,,,,,3,,,,,,,,high,7,0,7,0,1,,,,,,,,,
296938,2022-10-02_13h53.13.310,vts_reward_expectancy,2022.2.4,MacIntel,120.0048002,Chrome,1471,945,,,,,0,986,,,,,,,,,,,,,,,,,167,F,triangle,0,0,,,,,,,,,,,,,,,,repeat,number,NA,d,0.3123,Hi,,,,,,3,,,,,,,,high,8,0,8,0,1,,,,,,,,,
296938,2022-10-02_13h53.13.310,vts_reward_expectancy,2022.2.4,MacIntel,120.0048002,Chrome,1471,945,,,,,0,986,,,,,,,,,,,,,,,,,132,B,circle,0,1,,,,,,,,,,,,,,,,switch,letter,NA,k,0.3112,Hi,,,,,,3,,,,,,,,high,9,0,9,0,1,,,,,,,,,
296938,2022-10-02_13h53.13.310,vts_reward_expectancy,2022.2.4,MacIntel,120.0048002,Chrome,1471,945,,,,,1,987,,,,,,,,,,,,,,,,,181,Y,circle,1,1,,,,,,,,,,,,,,,,switch,number,numSwt,f,0.5189,Lo,,,,,,3,,,,,,,,high,10,0,10,0,1,,,,,,,,,
296938,2022-10-02_13h53.13.310,vts_reward_expectancy,2022.2.4,MacIntel,120.0048002,Chrome,1471,945,,,,,0,987,,,,,,,,,,,,,,,,,146,U,triangle,1,0,,,,,,,,,,,,,,,,switch,letter,lettSwt,k,0.636,Hi,,,,,,3,,,,,,,,high,11,0,11,0,1,,,,,,,,,
296938,2022-10-02_13h53.13.310,vts_reward_expectancy,2022.2.4,MacIntel,120.0048002,Chrome,1471,945,,,,,0,987,,,,,,,,,,,,,,,,,139,W,triangle,1,0,,,,,,,,,,,,,,,,switch,number,numSwt,d,0.8555,Hi,,,,,,3,,,,,,,,high,12,0,12,0,1,,,,,,,,,
296938,2022-10-02_13h53.13.310,vts_reward_expectancy,2022.2.4,MacIntel,120.0048002,Chrome,1471,945,,,,,10,997,,,,,,,,,,,,,,,,,174,H,circle,1,0,,,,,,,,,,,,,,,,switch,letter,lettSwt,j,0.7196,Lo,,,,,,3,,,,,,,,high,13,0,13,0,1,,,,,,,,,
296938,2022-10-02_13h53.13.310,vts_reward_expectancy,2022.2.4,MacIntel,120.0048002,Chrome,1471,945,,,,,1,998,,,,,,,,,,,,,,,,,160,S,circle,1,0,,,,,,,,,,,,,,,,switch,number,numSwt,f,0.1269,Lo,,,,,,3,,,,,,,,high,14,0,14,0,1,,,,,,,,,
296938,2022-10-02_13h53.13.310,vts_reward_expectancy,2022.2.4,MacIntel,120.0048002,Chrome,1471,945,,,,,10,1008,,,,,,,,,,,,,,,,,125,D,triangle,1,0,,,,,,,,,,,,,,,,repeat,number,numRpt,d,0.2858,Hi,,,,,,3,,,,,,,,high,15,0,15,0,1,,,,,,,,,
296938,2022-10-02_13h53.13.310,vts_reward_expectancy,2022.2.4,MacIntel,120.0048002,Chrome,1471,945,,,,,0,1008,,,,,,,,,,,,,,,,,174,F,circle,0,0,,,,,,,,,,,,,,,,switch,letter,NA,k,0.492,Hi,,,,,,3,,,,,,,,high,16,0,16,0,1,,,,,,,,,
296938,2022-10-02_13h53.13.310,vts_reward_expectancy,2022.2.4,MacIntel,120.0048002,Chrome,1471,945,,,,,1,1009,,,,,,,,,,,,,,,,,160,B,triangle,1,1,,,,,,,,,,,,,,,,repeat,letter,lettRpt,j,0.4033,Hi,,,,,,3,,,,,,,,high,17,0,17,0,1,,,,,,,,,
296938,2022-10-02_13h53.13.310,vts_reward_expectancy,2022.2.4,MacIntel,120.0048002,Chrome,1471,945,,,,,1,1010,,,,,,,,,,,,,,,,,139,Y,circle,1,0,,,,,,,,,,,,,,,,switch,number,numSwt,d,0.5004,Lo,,,,,,3,,,,,,,,high,18,0,18,0,1,,,,,,,,,
296938,2022-10-02_13h53.13.310,vts_reward_expectancy,2022.2.4,MacIntel,120.0048002,Chrome,1471,945,,,,,10,1020,,,,,,,,,,,,,,,,,167,U,triangle,1,0,,,,,,,,,,,,,,,,switch,letter,lettSwt,k,0.3907,Hi,,,,,,3,,,,,,,,high,19,0,19,0,1,,,,,,,,,
296938,2022-10-02_13h53.13.310,vts_reward_expectancy,2022.2.4,MacIntel,120.0048002,Chrome,1471,945,,,,,1,1021,,,,,,,,,,,,,,,,,125,W,circle,1,0,,,,,,,,,,,,,,,,repeat,letter,lettRpt,k,0.4361,Lo,,,,,,3,,,,,,,,high,20,0,20,0,1,,,,,,,,,
296938,2022-10-02_13h53.13.310,vts_reward_expectancy,2022.2.4,MacIntel,120.0048002,Chrome,1471,945,,,,,0,1021,,,,,,,,,,,,,,,,,146,S,triangle,0,0,,,,,,,,,,,,,,,,repeat,letter,NA,j,0.4276,Lo,,,,,,3,,,,,,,,high,21,0,21,0,1,,,,,,,,,
296938,2022-10-02_13h53.13.310,vts_reward_expectancy,2022.2.4,MacIntel,120.0048002,Chrome,1471,945,,,,,0,1021,,,,,,,,,,,,,,,,,132,H,triangle,1,1,,,,,,,,,,,,,,,,switch,number,numSwt,d,0.4836,Hi,,,,,,3,,,,,,,,high,22,0,22,0,1,,,,,,,,,
296938,2022-10-02_13h53.13.310,vts_reward_expectancy,2022.2.4,MacIntel,120.0048002,Chrome,1471,945,,,,,1,1022,,,,,,,,,,,,,,,,,181,D,circle,1,0,,,,,,,,,,,,,,,,switch,letter,lettSwt,j,1.6596,Lo,,,,,,3,,,,,,,,high,23,0,23,0,1,,,,,,,,,
296938,2022-10-02_13h53.13.310,vts_reward_expectancy,2022.2.4,MacIntel,120.0048002,Chrome,1471,945,,,,,0,1022,,,,,,,,,,,,,,,,,167,W,triangle,1,0,,,,,,,,,,,,,,,,repeat,letter,lettRpt,k,0.6029,Hi,,,,,,3,,,,,,,,high,24,0,24,0,1,,,,,,,,,
296938,2022-10-02_13h53.13.310,vts_reward_expectancy,2022.2.4,MacIntel,120.0048002,Chrome,1471,945,,,,,10,1032,,,,,,,,,,,,,,,,,160,F,circle,1,0,,,,,,,,,,,,,,,,repeat,letter,lettRpt,j,0.6344,Lo,,,,,,3,,,,,,,,high,25,0,25,0,1,,,,,,,,,
296938,2022-10-02_13h53.13.310,vts_reward_expectancy,2022.2.4,MacIntel,120.0048002,Chrome,1471,945,,,,,1,1033,,,,,,,,,,,,,,,,,146,B,circle,1,0,,,,,,,,,,,,,,,,repeat,letter,lettRpt,j,0.4685,Lo,,,,,,3,,,,,,,,high,26,0,26,0,1,,,,,,,,,
296938,2022-10-02_13h53.13.310,vts_reward_expectancy,2022.2.4,MacIntel,120.0048002,Chrome,1471,945,,,,,0,1033,,,,,,,,,,,,,,,,,139,S,triangle,0,0,,,,,,,,,,,,,,,,repeat,letter,NA,j,0.5362,Lo,,,,,,3,,,,,,,,high,27,0,27,0,1,,,,,,,,,
296938,2022-10-02_13h53.13.310,vts_reward_expectancy,2022.2.4,MacIntel,120.0048002,Chrome,1471,945,,,,,0,1033,,,,,,,,,,,,,,,,,125,D,triangle,1,1,,,,,,,,,,,,,,,,repeat,letter,lettRpt,j,0.5759,Hi,,,,,,3,,,,,,,,high,28,0,28,0,1,,,,,,,,,
296938,2022-10-02_13h53.13.310,vts_reward_expectancy,2022.2.4,MacIntel,120.0048002,Chrome,1471,945,,,,,1,1034,,,,,,,,,,,,,,,,,132,U,circle,1,0,,,,,,,,,,,,,,,,repeat,letter,lettRpt,k,0.5013,Lo,,,,,,3,,,,,,,,high,29,0,29,0,1,,,,,,,,,
296938,2022-10-02_13h53.13.310,vts_reward_expectancy,2022.2.4,MacIntel,120.0048002,Chrome,1471,945,,,,,1,1035,,,,,,,,,,,,,,,,,174,Y,circle,1,0,,,,,,,,,,,,,,,,repeat,letter,lettRpt,k,0.5327,Lo,,,,,,3,,,,,,,,high,30,0,30,0,1,,,,,,,,,
296938,2022-10-02_13h53.13.310,vts_reward_expectancy,2022.2.4,MacIntel,120.0048002,Chrome,1471,945,,,,,0,1035,,,,,,,,,,,,,,,,,181,H,triangle,1,0,,,,,,,,,,,,,,,,switch,number,numSwt,f,0.5336,Hi,,,,,,3,,,,,,,,high,31,0,31,0,1,,,,,,,,,
296938,2022-10-02_13h53.13.310,vts_reward_expectancy,2022.2.4,MacIntel,120.0048002,Chrome,1471,945,,,,,10,1045,,,,,,,,,,,,,,,,,174,F,star,1,0,,,,,,,,,,,,,,,,repeat,number,numRpt,f,0.658,Lo,,,,,,4,,,,,,space,0.5308,low,0,0,0,0,1,,,,,,,,,
296938,2022-10-02_13h53.13.310,vts_reward_expectancy,2022.2.4,MacIntel,120.0048002,Chrome,1471,945,,,,,0,1045,,,,,,,,,,,,,,,,,181,W,hexagon,1,0,,,,,,,,,,,,,,,,switch,letter,lettSwt,k,0.622,Hi,,,,,,4,,,,,,,,low,1,0,1,0,1,,,,,,,,,
296938,2022-10-02_13h53.13.310,vts_reward_expectancy,2022.2.4,MacIntel,120.0048002,Chrome,1471,945,,,,,1,1046,,,,,,,,,,,,,,,,,139,D,star,1,0,,,,,,,,,,,,,,,,switch,number,numSwt,d,0.4989,Lo,,,,,,4,,,,,,,,low,2,0,2,0,1,,,,,,,,,
296938,2022-10-02_13h53.13.310,vts_reward_expectancy,2022.2.4,MacIntel,120.0048002,Chrome,1471,945,,,,,0,1046,,,,,,,,,,,,,,,,,160,H,hexagon,1,0,,,,,,,,,,,,,,,,repeat,number,numRpt,f,0.4065,Hi,,,,,,4,,,,,,,,low,3,0,3,0,1,,,,,,,,,
296938,2022-10-02_13h53.13.310,vts_reward_expectancy,2022.2.4,MacIntel,120.0048002,Chrome,1471,945,,,,,0,1046,,,,,,,,,,,,,,,,,132,S,star,0,0,,,,,,,,,,,,,,,,switch,letter,NA,j,0.4958,Hi,,,,,,4,,,,,,,,low,4,0,4,0,1,,,,,,,,,
296938,2022-10-02_13h53.13.310,vts_reward_expectancy,2022.2.4,MacIntel,120.0048002,Chrome,1471,945,,,,,0,1046,,,,,,,,,,,,,,,,,167,U,hexagon,1,1,,,,,,,,,,,,,,,,repeat,letter,lettRpt,k,0.6594,Hi,,,,,,4,,,,,,,,low,5,0,5,0,1,,,,,,,,,
296938,2022-10-02_13h53.13.310,vts_reward_expectancy,2022.2.4,MacIntel,120.0048002,Chrome,1471,945,,,,,10,1056,,,,,,,,,,,,,,,,,125,B,star,1,0,,,,,,,,,,,,,,,,switch,number,numSwt,d,0.076,Lo,,,,,,4,,,,,,,,low,6,0,6,0,1,,,,,,,,,
296938,2022-10-02_13h53.13.310,vts_reward_expectancy,2022.2.4,MacIntel,120.0048002,Chrome,1471,945,,,,,0,1056,,,,,,,,,,,,,,,,,146,Y,hexagon,0,0,,,,,,,,,,,,,,,,switch,letter,NA,j,0.036,Lo,,,,,,4,,,,,,,,low,7,0,7,0,1,,,,,,,,,
296938,2022-10-02_13h53.13.310,vts_reward_expectancy,2022.2.4,MacIntel,120.0048002,Chrome,1471,945,,,,,10,1066,,,,,,,,,,,,,,,,,174,F,star,1,1,,,,,,,,,,,,,,,,repeat,letter,lettRpt,j,0.6047,Lo,,,,,,4,,,,,,,,low,8,0,8,0,1,,,,,,,,,
296938,2022-10-02_13h53.13.310,vts_reward_expectancy,2022.2.4,MacIntel,120.0048002,Chrome,1471,945,,,,,1,1067,,,,,,,,,,,,,,,,,181,W,hexagon,1,0,,,,,,,,,,,,,,,,repeat,letter,lettRpt,k,0.4138,Hi,,,,,,4,,,,,,,,low,9,0,9,0,1,,,,,,,,,
296938,2022-10-02_13h53.13.310,vts_reward_expectancy,2022.2.4,MacIntel,120.0048002,Chrome,1471,945,,,,,10,1077,,,,,,,,,,,,,,,,,139,D,hexagon,1,0,,,,,,,,,,,,,,,,repeat,letter,lettRpt,j,0.4341,Hi,,,,,,4,,,,,,,,low,10,0,10,0,1,,,,,,,,,
296938,2022-10-02_13h53.13.310,vts_reward_expectancy,2022.2.4,MacIntel,120.0048002,Chrome,1471,945,,,,,10,1087,,,,,,,,,,,,,,,,,160,H,star,1,0,,,,,,,,,,,,,,,,repeat,letter,lettRpt,j,0.5323,Lo,,,,,,4,,,,,,,,low,11,0,11,0,1,,,,,,,,,
296938,2022-10-02_13h53.13.310,vts_reward_expectancy,2022.2.4,MacIntel,120.0048002,Chrome,1471,945,,,,,0,1087,,,,,,,,,,,,,,,,,132,S,hexagon,1,0,,,,,,,,,,,,,,,,repeat,letter,lettRpt,k,0.5928,Hi,,,,,,4,,,,,,,,low,12,0,12,0,1,,,,,,,,,
296938,2022-10-02_13h53.13.310,vts_reward_expectancy,2022.2.4,MacIntel,120.0048002,Chrome,1471,945,,,,,1,1088,,,,,,,,,,,,,,,,,167,U,star,1,0,,,,,,,,,,,,,,,,repeat,letter,lettRpt,k,0.4185,Lo,,,,,,4,,,,,,,,low,13,0,13,0,1,,,,,,,,,
296938,2022-10-02_13h53.13.310,vts_reward_expectancy,2022.2.4,MacIntel,120.0048002,Chrome,1471,945,,,,,1,1089,,,,,,,,,,,,,,,,,125,B,star,1,0,,,,,,,,,,,,,,,,repeat,letter,lettRpt,j,0.5187,Lo,,,,,,4,,,,,,,,low,14,0,14,0,1,,,,,,,,,
296938,2022-10-02_13h53.13.310,vts_reward_expectancy,2022.2.4,MacIntel,120.0048002,Chrome,1471,945,,,,,0,1089,,,,,,,,,,,,,,,,,146,Y,hexagon,0,0,,,,,,,,,,,,,,,,switch,number,NA,f,0.482,Lo,,,,,,4,,,,,,,,low,15,0,15,0,1,,,,,,,,,
296938,2022-10-02_13h53.13.310,vts_reward_expectancy,2022.2.4,MacIntel,120.0048002,Chrome,1471,945,,,,,1,1090,,,,,,,,,,,,,,,,,181,D,star,1,1,,,,,,,,,,,,,,,,repeat,number,numRpt,f,0.5024,Lo,,,,,,4,,,,,,,,low,16,0,16,0,1,,,,,,,,,
296938,2022-10-02_13h53.13.310,vts_reward_expectancy,2022.2.4,MacIntel,120.0048002,Chrome,1471,945,,,,,0,1090,,,,,,,,,,,,,,,,,125,Y,hexagon,1,0,,,,,,,,,,,,,,,,switch,letter,lettSwt,k,0.9082,Hi,,,,,,4,,,,,,,,low,17,0,17,0,1,,,,,,,,,
296938,2022-10-02_13h53.13.310,vts_reward_expectancy,2022.2.4,MacIntel,120.0048002,Chrome,1471,945,,,,,10,1100,,,,,,,,,,,,,,,,,167,U,star,1,0,,,,,,,,,,,,,,,,repeat,letter,lettRpt,k,0.5243,Lo,,,,,,4,,,,,,,,low,18,0,18,0,1,,,,,,,,,
296938,2022-10-02_13h53.13.310,vts_reward_expectancy,2022.2.4,MacIntel,120.0048002,Chrome,1471,945,,,,,0,1100,,,,,,,,,,,,,,,,,174,H,hexagon,1,0,,,,,,,,,,,,,,,,switch,number,numSwt,f,1.1003,Hi,,,,,,4,,,,,,,,low,19,0,19,0,1,,,,,,,,,
296938,2022-10-02_13h53.13.310,vts_reward_expectancy,2022.2.4,MacIntel,120.0048002,Chrome,1471,945,,,,,0,1100,,,,,,,,,,,,,,,,,132,B,hexagon,1,0,,,,,,,,,,,,,,,,repeat,number,numRpt,d,0.3776,Hi,,,,,,4,,,,,,,,low,20,0,20,0,1,,,,,,,,,
296938,2022-10-02_13h53.13.310,vts_reward_expectancy,2022.2.4,MacIntel,120.0048002,Chrome,1471,945,,,,,0,1100,,,,,,,,,,,,,,,,,160,S,star,0,0,,,,,,,,,,,,,,,,repeat,number,NA,d,0.0006,Hi,,,,,,4,,,,,,,,low,21,0,21,0,1,,,,,,,,,
296938,2022-10-02_13h53.13.310,vts_reward_expectancy,2022.2.4,MacIntel,120.0048002,Chrome,1471,945,,,,,1,1101,,,,,,,,,,,,,,,,,146,W,hexagon,1,1,,,,,,,,,,,,,,,,repeat,number,numRpt,d,0.1096,Hi,,,,,,4,,,,,,,,low,22,0,22,0,1,,,,,,,,,
296938,2022-10-02_13h53.13.310,vts_reward_expectancy,2022.2.4,MacIntel,120.0048002,Chrome,1471,945,,,,,1,1102,,,,,,,,,,,,,,,,,139,F,star,1,0,,,,,,,,,,,,,,,,repeat,number,numRpt,d,0.0142,Lo,,,,,,4,,,,,,,,low,23,0,23,0,1,,,,,,,,,
296938,2022-10-02_13h53.13.310,vts_reward_expectancy,2022.2.4,MacIntel,120.0048002,Chrome,1471,945,,,,,0,1102,,,,,,,,,,,,,,,,,146,W,hexagon,0,0,,,,,,,,,,,,,,,,repeat,number,NA,f,0.0499,Lo,,,,,,4,,,,,,,,low,24,0,24,0,1,,,,,,,,,
296938,2022-10-02_13h53.13.310,vts_reward_expectancy,2022.2.4,MacIntel,120.0048002,Chrome,1471,945,,,,,1,1103,,,,,,,,,,,,,,,,,181,Y,star,1,1,,,,,,,,,,,,,,,,repeat,number,numRpt,f,0.3401,Lo,,,,,,4,,,,,,,,low,25,0,25,0,1,,,,,,,,,
296938,2022-10-02_13h53.13.310,vts_reward_expectancy,2022.2.4,MacIntel,120.0048002,Chrome,1471,945,,,,,0,1103,,,,,,,,,,,,,,,,,174,U,hexagon,1,0,,,,,,,,,,,,,,,,repeat,number,numRpt,f,0.5526,Hi,,,,,,4,,,,,,,,low,26,0,26,0,1,,,,,,,,,
296938,2022-10-02_13h53.13.310,vts_reward_expectancy,2022.2.4,MacIntel,120.0048002,Chrome,1471,945,,,,,0,1103,,,,,,,,,,,,,,,,,139,B,star,0,0,,,,,,,,,,,,,,,,repeat,number,NA,f,0.3826,Hi,,,,,,4,,,,,,,,low,27,0,27,0,1,,,,,,,,,
296938,2022-10-02_13h53.13.310,vts_reward_expectancy,2022.2.4,MacIntel,120.0048002,Chrome,1471,945,,,,,10,1113,,,,,,,,,,,,,,,,,132,D,star,1,1,,,,,,,,,,,,,,,,repeat,number,numRpt,d,0.4937,Lo,,,,,,4,,,,,,,,low,28,0,28,0,1,,,,,,,,,
296938,2022-10-02_13h53.13.310,vts_reward_expectancy,2022.2.4,MacIntel,120.0048002,Chrome,1471,945,,,,,0,1113,,,,,,,,,,,,,,,,,167,S,hexagon,1,0,,,,,,,,,,,,,,,,repeat,number,numRpt,f,0.3625,Hi,,,,,,4,,,,,,,,low,29,0,29,0,1,,,,,,,,,
296938,2022-10-02_13h53.13.310,vts_reward_expectancy,2022.2.4,MacIntel,120.0048002,Chrome,1471,945,,,,,0,1113,,,,,,,,,,,,,,,,,125,H,hexagon,0,0,,,,,,,,,,,,,,,,repeat,number,NA,f,0.0004,Hi,,,,,,4,,,,,,,,low,30,0,30,0,1,,,,,,,,,
