participant,date,expName,psychopyVersion,OS,frameRate,browser,xResolution,yResolution,key_resp.keys,key_resp.rt,training_resp.keys,training_resp.rt,points_trial,points_cumul,trainBlock,training.thisRepN,training.thisTrialN,training.thisN,training.thisIndex,training.ran,LTriangleOpac,LCircleOpac,LHexagonOpac,LStarOpac,RTriangleOpac,RCircleOpac,RHexagonOpac,RStarOpac,LShape_ID,RShape_ID,curr_topStim,curr_bottStim,curr_shape,acc,E1,target_resp_prac1.keys,target_resp_prac1.rt,pracBlock,task1_prac_trials.thisRepN,task1_prac_trials.thisTrialN,task1_prac_trials.thisN,task1_prac_trials.thisIndex,task1_prac_trials.ran,target_resp_prac2.keys,target_resp_prac2.rt,task2_praac_trials.thisRepN,task2_praac_trials.thisTrialN,task2_praac_trials.thisN,task2_praac_trials.thisIndex,task2_praac_trials.ran,alt,task,condition,target_resp.keys,target_resp.rt,rewCond,vts_practice_trials.thisRepN,vts_practice_trials.thisTrialN,vts_practice_trials.thisN,vts_practice_trials.thisIndex,vts_practice_trials.ran,blockNum,trials_norew.thisRepN,trials_norew.thisTrialN,trials_norew.thisN,trials_norew.thisIndex,trials_norew.ran,key_resp_2.keys,key_resp_2.rt,rewExpect,trials_rew.thisRepN,trials_rew.thisTrialN,trials_rew.thisN,trials_rew.thisIndex,trials_rew.ran,Q1,Q2,Q2_text,Q3,Q4,Q5_text,Q5,xRes,yRes
293413,2022-09-25_14h51.06.336,vts_reward_expectancy,2022.2.4,Win32,119.8897015,Chrome,1600,1067,,,,,,,,,,,,,,,,,,,,,,,,,,,,,,,,,,,,,,,,,,,,,,,,,,,,,,,,,,,,,,,,,,,,,,,,,,,,
293413,2022-09-25_14h51.06.336,vts_reward_expectancy,2022.2.4,Win32,119.8897015,Chrome,1600,1067,space,41.095,,,,,,,,,,,,,,,,,,,,,,,,,,,,,,,,,,,,,,,,,,,,,,,,,,,,,,,,,,,,,,,,,,,,,,,,,,
293413,2022-09-25_14h51.06.336,vts_reward_expectancy,2022.2.4,Win32,119.8897015,Chrome,1600,1067,,,,,,,,,,,,,,,,,,,,,,,,,,,,,,,,,,,,,,,,,,,,,,,,,,,,,,,,,,,,,,,,,,,,,,,,,,,,
293413,2022-09-25_14h51.06.336,vts_reward_expectancy,2022.2.4,Win32,119.8897015,Chrome,1600,1067,,,a,1.7167,10,10,0,0,0,0,4,1,0,1,0,0,0,0,1,0,circle,hexagon,,,,,,,,,,,,,,,,,,,,,,,,,,,,,,,,,,,,,,,,,,,,,,,,,,,,,,
293413,2022-09-25_14h51.06.336,vts_reward_expectancy,2022.2.4,Win32,119.8897015,Chrome,1600,1067,,,a,2.0758,10,20,0,0,1,1,11,1,0,0,0,1,0,0,1,0,star,hexagon,,,,,,,,,,,,,,,,,,,,,,,,,,,,,,,,,,,,,,,,,,,,,,,,,,,,,,
293413,2022-09-25_14h51.06.336,vts_reward_expectancy,2022.2.4,Win32,119.8897015,Chrome,1600,1067,,,l,1.1555,10,30,0,0,2,2,0,1,1,0,0,0,0,1,0,0,triangle,circle,,,,,,,,,,,,,,,,,,,,,,,,,,,,,,,,,,,,,,,,,,,,,,,,,,,,,,
293413,2022-09-25_14h51.06.336,vts_reward_expectancy,2022.2.4,Win32,119.8897015,Chrome,1600,1067,,,a,1.1178,10,40,0,0,3,3,1,1,1,0,0,0,0,0,1,0,triangle,hexagon,,,,,,,,,,,,,,,,,,,,,,,,,,,,,,,,,,,,,,,,,,,,,,,,,,,,,,
293413,2022-09-25_14h51.06.336,vts_reward_expectancy,2022.2.4,Win32,119.8897015,Chrome,1600,1067,,,l,1.7705,1,41,0,0,4,4,9,1,0,0,0,1,1,0,0,0,star,triangle,,,,,,,,,,,,,,,,,,,,,,,,,,,,,,,,,,,,,,,,,,,,,,,,,,,,,,
293413,2022-09-25_14h51.06.336,vts_reward_expectancy,2022.2.4,Win32,119.8897015,Chrome,1600,1067,,,l,1.3943,1,42,0,0,5,5,2,1,1,0,0,0,0,0,0,1,triangle,star,,,,,,,,,,,,,,,,,,,,,,,,,,,,,,,,,,,,,,,,,,,,,,,,,,,,,,
293413,2022-09-25_14h51.06.336,vts_reward_expectancy,2022.2.4,Win32,119.8897015,Chrome,1600,1067,,,l,1.4512,10,52,0,0,6,6,7,1,0,0,1,0,0,1,0,0,hexagon,circle,,,,,,,,,,,,,,,,,,,,,,,,,,,,,,,,,,,,,,,,,,,,,,,,,,,,,,
293413,2022-09-25_14h51.06.336,vts_reward_expectancy,2022.2.4,Win32,119.8897015,Chrome,1600,1067,,,l,2.5171,1,53,0,0,7,7,6,1,0,0,1,0,1,0,0,0,hexagon,triangle,,,,,,,,,,,,,,,,,,,,,,,,,,,,,,,,,,,,,,,,,,,,,,,,,,,,,,
293413,2022-09-25_14h51.06.336,vts_reward_expectancy,2022.2.4,Win32,119.8897015,Chrome,1600,1067,,,a,1.4603,10,63,0,0,8,8,5,1,0,1,0,0,0,0,0,1,circle,star,,,,,,,,,,,,,,,,,,,,,,,,,,,,,,,,,,,,,,,,,,,,,,,,,,,,,,
293413,2022-09-25_14h51.06.336,vts_reward_expectancy,2022.2.4,Win32,119.8897015,Chrome,1600,1067,,,l,1.3217,1,64,0,0,9,9,10,1,0,0,0,1,0,1,0,0,star ,circle,,,,,,,,,,,,,,,,,,,,,,,,,,,,,,,,,,,,,,,,,,,,,,,,,,,,,,
293413,2022-09-25_14h51.06.336,vts_reward_expectancy,2022.2.4,Win32,119.8897015,Chrome,1600,1067,,,a,2.5287,1,65,0,0,10,10,8,1,0,0,1,0,0,0,0,1,hexagon,star,,,,,,,,,,,,,,,,,,,,,,,,,,,,,,,,,,,,,,,,,,,,,,,,,,,,,,
293413,2022-09-25_14h51.06.336,vts_reward_expectancy,2022.2.4,Win32,119.8897015,Chrome,1600,1067,,,a,0.8836,10,75,0,0,11,11,3,1,0,1,0,0,1,0,0,0,circle,triangle,,,,,,,,,,,,,,,,,,,,,,,,,,,,,,,,,,,,,,,,,,,,,,,,,,,,,,
293413,2022-09-25_14h51.06.336,vts_reward_expectancy,2022.2.4,Win32,119.8897015,Chrome,1600,1067,,,l,1.2679,1,76,0,1,0,12,9,1,0,0,0,1,1,0,0,0,star,triangle,,,,,,,,,,,,,,,,,,,,,,,,,,,,,,,,,,,,,,,,,,,,,,,,,,,,,,
293413,2022-09-25_14h51.06.336,vts_reward_expectancy,2022.2.4,Win32,119.8897015,Chrome,1600,1067,,,a,0.8432,10,86,0,1,1,13,5,1,0,1,0,0,0,0,0,1,circle,star,,,,,,,,,,,,,,,,,,,,,,,,,,,,,,,,,,,,,,,,,,,,,,,,,,,,,,
293413,2022-09-25_14h51.06.336,vts_reward_expectancy,2022.2.4,Win32,119.8897015,Chrome,1600,1067,,,a,1.4436,1,87,0,1,2,14,8,1,0,0,1,0,0,0,0,1,hexagon,star,,,,,,,,,,,,,,,,,,,,,,,,,,,,,,,,,,,,,,,,,,,,,,,,,,,,,,
293413,2022-09-25_14h51.06.336,vts_reward_expectancy,2022.2.4,Win32,119.8897015,Chrome,1600,1067,,,l,0.9278,10,97,0,1,3,15,7,1,0,0,1,0,0,1,0,0,hexagon,circle,,,,,,,,,,,,,,,,,,,,,,,,,,,,,,,,,,,,,,,,,,,,,,,,,,,,,,
293413,2022-09-25_14h51.06.336,vts_reward_expectancy,2022.2.4,Win32,119.8897015,Chrome,1600,1067,,,l,3.0661,1,98,0,1,4,16,1,1,1,0,0,0,0,0,1,0,triangle,hexagon,,,,,,,,,,,,,,,,,,,,,,,,,,,,,,,,,,,,,,,,,,,,,,,,,,,,,,
293413,2022-09-25_14h51.06.336,vts_reward_expectancy,2022.2.4,Win32,119.8897015,Chrome,1600,1067,,,l,6.7415,10,108,0,1,5,17,10,1,0,0,0,1,0,1,0,0,star ,circle,,,,,,,,,,,,,,,,,,,,,,,,,,,,,,,,,,,,,,,,,,,,,,,,,,,,,,
293413,2022-09-25_14h51.06.336,vts_reward_expectancy,2022.2.4,Win32,119.8897015,Chrome,1600,1067,,,a,2.1164,10,118,0,1,6,18,2,1,1,0,0,0,0,0,0,1,triangle,star,,,,,,,,,,,,,,,,,,,,,,,,,,,,,,,,,,,,,,,,,,,,,,,,,,,,,,
293413,2022-09-25_14h51.06.336,vts_reward_expectancy,2022.2.4,Win32,119.8897015,Chrome,1600,1067,,,l,0.6756,1,119,0,1,7,19,11,1,0,0,0,1,0,0,1,0,star,hexagon,,,,,,,,,,,,,,,,,,,,,,,,,,,,,,,,,,,,,,,,,,,,,,,,,,,,,,
293413,2022-09-25_14h51.06.336,vts_reward_expectancy,2022.2.4,Win32,119.8897015,Chrome,1600,1067,,,l,0.5256,1,120,0,1,8,20,0,1,1,0,0,0,0,1,0,0,triangle,circle,,,,,,,,,,,,,,,,,,,,,,,,,,,,,,,,,,,,,,,,,,,,,,,,,,,,,,
293413,2022-09-25_14h51.06.336,vts_reward_expectancy,2022.2.4,Win32,119.8897015,Chrome,1600,1067,,,a,0.9598,1,121,0,1,9,21,6,1,0,0,1,0,1,0,0,0,hexagon,triangle,,,,,,,,,,,,,,,,,,,,,,,,,,,,,,,,,,,,,,,,,,,,,,,,,,,,,,
293413,2022-09-25_14h51.06.336,vts_reward_expectancy,2022.2.4,Win32,119.8897015,Chrome,1600,1067,,,a,0.6212,10,131,0,1,10,22,4,1,0,1,0,0,0,0,1,0,circle,hexagon,,,,,,,,,,,,,,,,,,,,,,,,,,,,,,,,,,,,,,,,,,,,,,,,,,,,,,
293413,2022-09-25_14h51.06.336,vts_reward_expectancy,2022.2.4,Win32,119.8897015,Chrome,1600,1067,,,l,0.5931,10,141,0,1,11,23,3,1,0,1,0,0,1,0,0,0,circle,triangle,,,,,,,,,,,,,,,,,,,,,,,,,,,,,,,,,,,,,,,,,,,,,,,,,,,,,,
293413,2022-09-25_14h51.06.336,vts_reward_expectancy,2022.2.4,Win32,119.8897015,Chrome,1600,1067,,,a,0.7947,10,151,0,2,0,24,4,1,0,1,0,0,0,0,1,0,circle,hexagon,,,,,,,,,,,,,,,,,,,,,,,,,,,,,,,,,,,,,,,,,,,,,,,,,,,,,,
293413,2022-09-25_14h51.06.336,vts_reward_expectancy,2022.2.4,Win32,119.8897015,Chrome,1600,1067,,,l,0.7333,10,161,0,2,1,25,0,1,1,0,0,0,0,1,0,0,triangle,circle,,,,,,,,,,,,,,,,,,,,,,,,,,,,,,,,,,,,,,,,,,,,,,,,,,,,,,
293413,2022-09-25_14h51.06.336,vts_reward_expectancy,2022.2.4,Win32,119.8897015,Chrome,1600,1067,,,a,0.8357,10,171,0,2,2,26,3,1,0,1,0,0,1,0,0,0,circle,triangle,,,,,,,,,,,,,,,,,,,,,,,,,,,,,,,,,,,,,,,,,,,,,,,,,,,,,,
293413,2022-09-25_14h51.06.336,vts_reward_expectancy,2022.2.4,Win32,119.8897015,Chrome,1600,1067,,,a,1.1686,1,172,0,2,3,27,9,1,0,0,0,1,1,0,0,0,star,triangle,,,,,,,,,,,,,,,,,,,,,,,,,,,,,,,,,,,,,,,,,,,,,,,,,,,,,,
293413,2022-09-25_14h51.06.336,vts_reward_expectancy,2022.2.4,Win32,119.8897015,Chrome,1600,1067,,,a,0.7867,1,173,0,2,4,28,5,1,0,1,0,0,0,0,0,1,circle,star,,,,,,,,,,,,,,,,,,,,,,,,,,,,,,,,,,,,,,,,,,,,,,,,,,,,,,
293413,2022-09-25_14h51.06.336,vts_reward_expectancy,2022.2.4,Win32,119.8897015,Chrome,1600,1067,,,a,0.9505,1,174,0,2,5,29,8,1,0,0,1,0,0,0,0,1,hexagon,star,,,,,,,,,,,,,,,,,,,,,,,,,,,,,,,,,,,,,,,,,,,,,,,,,,,,,,
293413,2022-09-25_14h51.06.336,vts_reward_expectancy,2022.2.4,Win32,119.8897015,Chrome,1600,1067,,,l,0.7107,10,184,0,2,6,30,11,1,0,0,0,1,0,0,1,0,star,hexagon,,,,,,,,,,,,,,,,,,,,,,,,,,,,,,,,,,,,,,,,,,,,,,,,,,,,,,
293413,2022-09-25_14h51.06.336,vts_reward_expectancy,2022.2.4,Win32,119.8897015,Chrome,1600,1067,,,l,1.0176,1,185,0,2,7,31,1,1,1,0,0,0,0,0,1,0,triangle,hexagon,,,,,,,,,,,,,,,,,,,,,,,,,,,,,,,,,,,,,,,,,,,,,,,,,,,,,,
293413,2022-09-25_14h51.06.336,vts_reward_expectancy,2022.2.4,Win32,119.8897015,Chrome,1600,1067,,,l,0.8595,1,186,0,2,8,32,2,1,1,0,0,0,0,0,0,1,triangle,star,,,,,,,,,,,,,,,,,,,,,,,,,,,,,,,,,,,,,,,,,,,,,,,,,,,,,,
293413,2022-09-25_14h51.06.336,vts_reward_expectancy,2022.2.4,Win32,119.8897015,Chrome,1600,1067,,,a,0.5007,1,187,0,2,9,33,7,1,0,0,1,0,0,1,0,0,hexagon,circle,,,,,,,,,,,,,,,,,,,,,,,,,,,,,,,,,,,,,,,,,,,,,,,,,,,,,,
293413,2022-09-25_14h51.06.336,vts_reward_expectancy,2022.2.4,Win32,119.8897015,Chrome,1600,1067,,,a,0.678,1,188,0,2,10,34,6,1,0,0,1,0,1,0,0,0,hexagon,triangle,,,,,,,,,,,,,,,,,,,,,,,,,,,,,,,,,,,,,,,,,,,,,,,,,,,,,,
293413,2022-09-25_14h51.06.336,vts_reward_expectancy,2022.2.4,Win32,119.8897015,Chrome,1600,1067,,,l,0.6598,1,189,0,2,11,35,10,1,0,0,0,1,0,1,0,0,star ,circle,,,,,,,,,,,,,,,,,,,,,,,,,,,,,,,,,,,,,,,,,,,,,,,,,,,,,,
293413,2022-09-25_14h51.06.336,vts_reward_expectancy,2022.2.4,Win32,119.8897015,Chrome,1600,1067,,,a,0.749,1,190,1,0,0,0,1,1,1,0,0,0,0,0,1,0,triangle,hexagon,,,,,,,,,,,,,,,,,,,,,,,,,,,,,,,,,,,,,,,,,,,,,,,,,,,,,,
293413,2022-09-25_14h51.06.336,vts_reward_expectancy,2022.2.4,Win32,119.8897015,Chrome,1600,1067,,,a,0.6254,10,200,1,0,1,1,5,1,0,1,0,0,0,0,0,1,circle,star,,,,,,,,,,,,,,,,,,,,,,,,,,,,,,,,,,,,,,,,,,,,,,,,,,,,,,
293413,2022-09-25_14h51.06.336,vts_reward_expectancy,2022.2.4,Win32,119.8897015,Chrome,1600,1067,,,l,0.6574,10,210,1,0,2,2,0,1,1,0,0,0,0,1,0,0,triangle,circle,,,,,,,,,,,,,,,,,,,,,,,,,,,,,,,,,,,,,,,,,,,,,,,,,,,,,,
293413,2022-09-25_14h51.06.336,vts_reward_expectancy,2022.2.4,Win32,119.8897015,Chrome,1600,1067,,,l,1.7334,1,211,1,0,3,3,11,1,0,0,0,1,0,0,1,0,star,hexagon,,,,,,,,,,,,,,,,,,,,,,,,,,,,,,,,,,,,,,,,,,,,,,,,,,,,,,
293413,2022-09-25_14h51.06.336,vts_reward_expectancy,2022.2.4,Win32,119.8897015,Chrome,1600,1067,,,a,0.8027,1,212,1,0,4,4,3,1,0,1,0,0,1,0,0,0,circle,triangle,,,,,,,,,,,,,,,,,,,,,,,,,,,,,,,,,,,,,,,,,,,,,,,,,,,,,,
293413,2022-09-25_14h51.06.336,vts_reward_expectancy,2022.2.4,Win32,119.8897015,Chrome,1600,1067,,,a,2.4861,10,222,1,0,5,5,6,1,0,0,1,0,1,0,0,0,hexagon,triangle,,,,,,,,,,,,,,,,,,,,,,,,,,,,,,,,,,,,,,,,,,,,,,,,,,,,,,
293413,2022-09-25_14h51.06.336,vts_reward_expectancy,2022.2.4,Win32,119.8897015,Chrome,1600,1067,,,l,1.5035,1,223,1,0,6,6,9,1,0,0,0,1,1,0,0,0,star,triangle,,,,,,,,,,,,,,,,,,,,,,,,,,,,,,,,,,,,,,,,,,,,,,,,,,,,,,
293413,2022-09-25_14h51.06.336,vts_reward_expectancy,2022.2.4,Win32,119.8897015,Chrome,1600,1067,,,l,2.4758,1,224,1,0,7,7,2,1,1,0,0,0,0,0,0,1,triangle,star,,,,,,,,,,,,,,,,,,,,,,,,,,,,,,,,,,,,,,,,,,,,,,,,,,,,,,
293413,2022-09-25_14h51.06.336,vts_reward_expectancy,2022.2.4,Win32,119.8897015,Chrome,1600,1067,,,l,6.0733,10,234,1,0,8,8,10,1,0,0,0,1,0,1,0,0,star ,circle,,,,,,,,,,,,,,,,,,,,,,,,,,,,,,,,,,,,,,,,,,,,,,,,,,,,,,
293413,2022-09-25_14h51.06.336,vts_reward_expectancy,2022.2.4,Win32,119.8897015,Chrome,1600,1067,,,a,4.0091,10,244,1,0,9,9,8,1,0,0,1,0,0,0,0,1,hexagon,star,,,,,,,,,,,,,,,,,,,,,,,,,,,,,,,,,,,,,,,,,,,,,,,,,,,,,,
293413,2022-09-25_14h51.06.336,vts_reward_expectancy,2022.2.4,Win32,119.8897015,Chrome,1600,1067,,,l,3.2013,1,245,1,0,10,10,7,1,0,0,1,0,0,1,0,0,hexagon,circle,,,,,,,,,,,,,,,,,,,,,,,,,,,,,,,,,,,,,,,,,,,,,,,,,,,,,,
293413,2022-09-25_14h51.06.336,vts_reward_expectancy,2022.2.4,Win32,119.8897015,Chrome,1600,1067,,,a,1.243,10,255,1,0,11,11,4,1,0,1,0,0,0,0,1,0,circle,hexagon,,,,,,,,,,,,,,,,,,,,,,,,,,,,,,,,,,,,,,,,,,,,,,,,,,,,,,
293413,2022-09-25_14h51.06.336,vts_reward_expectancy,2022.2.4,Win32,119.8897015,Chrome,1600,1067,,,l,1.1471,1,256,1,1,0,12,11,1,0,0,0,1,0,0,1,0,star,hexagon,,,,,,,,,,,,,,,,,,,,,,,,,,,,,,,,,,,,,,,,,,,,,,,,,,,,,,
293413,2022-09-25_14h51.06.336,vts_reward_expectancy,2022.2.4,Win32,119.8897015,Chrome,1600,1067,,,a,0.7423,10,266,1,1,1,13,1,1,1,0,0,0,0,0,1,0,triangle,hexagon,,,,,,,,,,,,,,,,,,,,,,,,,,,,,,,,,,,,,,,,,,,,,,,,,,,,,,
293413,2022-09-25_14h51.06.336,vts_reward_expectancy,2022.2.4,Win32,119.8897015,Chrome,1600,1067,,,l,2.7091,1,267,1,1,2,14,10,1,0,0,0,1,0,1,0,0,star ,circle,,,,,,,,,,,,,,,,,,,,,,,,,,,,,,,,,,,,,,,,,,,,,,,,,,,,,,
293413,2022-09-25_14h51.06.336,vts_reward_expectancy,2022.2.4,Win32,119.8897015,Chrome,1600,1067,,,a,0.8012,10,277,1,1,3,15,5,1,0,1,0,0,0,0,0,1,circle,star,,,,,,,,,,,,,,,,,,,,,,,,,,,,,,,,,,,,,,,,,,,,,,,,,,,,,,
293413,2022-09-25_14h51.06.336,vts_reward_expectancy,2022.2.4,Win32,119.8897015,Chrome,1600,1067,,,l,1.2428,1,278,1,1,4,16,2,1,1,0,0,0,0,0,0,1,triangle,star,,,,,,,,,,,,,,,,,,,,,,,,,,,,,,,,,,,,,,,,,,,,,,,,,,,,,,
293413,2022-09-25_14h51.06.336,vts_reward_expectancy,2022.2.4,Win32,119.8897015,Chrome,1600,1067,,,a,0.6182,10,288,1,1,5,17,3,1,0,1,0,0,1,0,0,0,circle,triangle,,,,,,,,,,,,,,,,,,,,,,,,,,,,,,,,,,,,,,,,,,,,,,,,,,,,,,
293413,2022-09-25_14h51.06.336,vts_reward_expectancy,2022.2.4,Win32,119.8897015,Chrome,1600,1067,,,a,1.1598,10,298,1,1,6,18,4,1,0,1,0,0,0,0,1,0,circle,hexagon,,,,,,,,,,,,,,,,,,,,,,,,,,,,,,,,,,,,,,,,,,,,,,,,,,,,,,
293413,2022-09-25_14h51.06.336,vts_reward_expectancy,2022.2.4,Win32,119.8897015,Chrome,1600,1067,,,l,0.8164,1,299,1,1,7,19,9,1,0,0,0,1,1,0,0,0,star,triangle,,,,,,,,,,,,,,,,,,,,,,,,,,,,,,,,,,,,,,,,,,,,,,,,,,,,,,
293413,2022-09-25_14h51.06.336,vts_reward_expectancy,2022.2.4,Win32,119.8897015,Chrome,1600,1067,,,l,1.1845,1,300,1,1,8,20,6,1,0,0,1,0,1,0,0,0,hexagon,triangle,,,,,,,,,,,,,,,,,,,,,,,,,,,,,,,,,,,,,,,,,,,,,,,,,,,,,,
293413,2022-09-25_14h51.06.336,vts_reward_expectancy,2022.2.4,Win32,119.8897015,Chrome,1600,1067,,,a,0.6254,1,301,1,1,9,21,0,1,1,0,0,0,0,1,0,0,triangle,circle,,,,,,,,,,,,,,,,,,,,,,,,,,,,,,,,,,,,,,,,,,,,,,,,,,,,,,
293413,2022-09-25_14h51.06.336,vts_reward_expectancy,2022.2.4,Win32,119.8897015,Chrome,1600,1067,,,a,0.0845,1,302,1,1,10,22,8,1,0,0,1,0,0,0,0,1,hexagon,star,,,,,,,,,,,,,,,,,,,,,,,,,,,,,,,,,,,,,,,,,,,,,,,,,,,,,,
293413,2022-09-25_14h51.06.336,vts_reward_expectancy,2022.2.4,Win32,119.8897015,Chrome,1600,1067,,,l,0.5924,1,303,1,1,11,23,7,1,0,0,1,0,0,1,0,0,hexagon,circle,,,,,,,,,,,,,,,,,,,,,,,,,,,,,,,,,,,,,,,,,,,,,,,,,,,,,,
293413,2022-09-25_14h51.06.336,vts_reward_expectancy,2022.2.4,Win32,119.8897015,Chrome,1600,1067,,,l,0.9916,10,313,1,2,0,24,4,1,0,1,0,0,0,0,1,0,circle,hexagon,,,,,,,,,,,,,,,,,,,,,,,,,,,,,,,,,,,,,,,,,,,,,,,,,,,,,,
293413,2022-09-25_14h51.06.336,vts_reward_expectancy,2022.2.4,Win32,119.8897015,Chrome,1600,1067,,,l,0.5829,1,314,1,2,1,25,0,1,1,0,0,0,0,1,0,0,triangle,circle,,,,,,,,,,,,,,,,,,,,,,,,,,,,,,,,,,,,,,,,,,,,,,,,,,,,,,
293413,2022-09-25_14h51.06.336,vts_reward_expectancy,2022.2.4,Win32,119.8897015,Chrome,1600,1067,,,a,0.9678,10,324,1,2,2,26,3,1,0,1,0,0,1,0,0,0,circle,triangle,,,,,,,,,,,,,,,,,,,,,,,,,,,,,,,,,,,,,,,,,,,,,,,,,,,,,,
293413,2022-09-25_14h51.06.336,vts_reward_expectancy,2022.2.4,Win32,119.8897015,Chrome,1600,1067,,,a,1.5926,1,325,1,2,3,27,9,1,0,0,0,1,1,0,0,0,star,triangle,,,,,,,,,,,,,,,,,,,,,,,,,,,,,,,,,,,,,,,,,,,,,,,,,,,,,,
293413,2022-09-25_14h51.06.336,vts_reward_expectancy,2022.2.4,Win32,119.8897015,Chrome,1600,1067,,,l,1.0749,10,335,1,2,4,28,7,1,0,0,1,0,0,1,0,0,hexagon,circle,,,,,,,,,,,,,,,,,,,,,,,,,,,,,,,,,,,,,,,,,,,,,,,,,,,,,,
293413,2022-09-25_14h51.06.336,vts_reward_expectancy,2022.2.4,Win32,119.8897015,Chrome,1600,1067,,,l,0.9517,10,345,1,2,5,29,2,1,1,0,0,0,0,0,0,1,triangle,star,,,,,,,,,,,,,,,,,,,,,,,,,,,,,,,,,,,,,,,,,,,,,,,,,,,,,,
293413,2022-09-25_14h51.06.336,vts_reward_expectancy,2022.2.4,Win32,119.8897015,Chrome,1600,1067,,,l,1.1898,10,355,1,2,6,30,1,1,1,0,0,0,0,0,1,0,triangle,hexagon,,,,,,,,,,,,,,,,,,,,,,,,,,,,,,,,,,,,,,,,,,,,,,,,,,,,,,
293413,2022-09-25_14h51.06.336,vts_reward_expectancy,2022.2.4,Win32,119.8897015,Chrome,1600,1067,,,l,2.4425,10,365,1,2,7,31,10,1,0,0,0,1,0,1,0,0,star ,circle,,,,,,,,,,,,,,,,,,,,,,,,,,,,,,,,,,,,,,,,,,,,,,,,,,,,,,
293413,2022-09-25_14h51.06.336,vts_reward_expectancy,2022.2.4,Win32,119.8897015,Chrome,1600,1067,,,l,2.376,10,375,1,2,8,32,6,1,0,0,1,0,1,0,0,0,hexagon,triangle,,,,,,,,,,,,,,,,,,,,,,,,,,,,,,,,,,,,,,,,,,,,,,,,,,,,,,
293413,2022-09-25_14h51.06.336,vts_reward_expectancy,2022.2.4,Win32,119.8897015,Chrome,1600,1067,,,a,11.3358,1,376,1,2,9,33,8,1,0,0,1,0,0,0,0,1,hexagon,star,,,,,,,,,,,,,,,,,,,,,,,,,,,,,,,,,,,,,,,,,,,,,,,,,,,,,,
293413,2022-09-25_14h51.06.336,vts_reward_expectancy,2022.2.4,Win32,119.8897015,Chrome,1600,1067,,,l,2.1529,1,377,1,2,10,34,11,1,0,0,0,1,0,0,1,0,star,hexagon,,,,,,,,,,,,,,,,,,,,,,,,,,,,,,,,,,,,,,,,,,,,,,,,,,,,,,
293413,2022-09-25_14h51.06.336,vts_reward_expectancy,2022.2.4,Win32,119.8897015,Chrome,1600,1067,,,a,0.8761,10,387,1,2,11,35,5,1,0,1,0,0,0,0,0,1,circle,star,,,,,,,,,,,,,,,,,,,,,,,,,,,,,,,,,,,,,,,,,,,,,,,,,,,,,,
293413,2022-09-25_14h51.06.336,vts_reward_expectancy,2022.2.4,Win32,119.8897015,Chrome,1600,1067,,,l,0.5091,10,397,2,0,0,0,0,1,1,0,0,0,0,1,0,0,triangle,circle,,,,,,,,,,,,,,,,,,,,,,,,,,,,,,,,,,,,,,,,,,,,,,,,,,,,,,
293413,2022-09-25_14h51.06.336,vts_reward_expectancy,2022.2.4,Win32,119.8897015,Chrome,1600,1067,,,a,0.7996,10,407,2,0,1,1,3,1,0,1,0,0,1,0,0,0,circle,triangle,,,,,,,,,,,,,,,,,,,,,,,,,,,,,,,,,,,,,,,,,,,,,,,,,,,,,,
293413,2022-09-25_14h51.06.336,vts_reward_expectancy,2022.2.4,Win32,119.8897015,Chrome,1600,1067,,,l,0.7346,10,417,2,0,2,2,10,1,0,0,0,1,0,1,0,0,star ,circle,,,,,,,,,,,,,,,,,,,,,,,,,,,,,,,,,,,,,,,,,,,,,,,,,,,,,,
293413,2022-09-25_14h51.06.336,vts_reward_expectancy,2022.2.4,Win32,119.8897015,Chrome,1600,1067,,,l,1.0271,1,418,2,0,3,3,6,1,0,0,1,0,1,0,0,0,hexagon,triangle,,,,,,,,,,,,,,,,,,,,,,,,,,,,,,,,,,,,,,,,,,,,,,,,,,,,,,
293413,2022-09-25_14h51.06.336,vts_reward_expectancy,2022.2.4,Win32,119.8897015,Chrome,1600,1067,,,l,0.558,10,428,2,0,4,4,7,1,0,0,1,0,0,1,0,0,hexagon,circle,,,,,,,,,,,,,,,,,,,,,,,,,,,,,,,,,,,,,,,,,,,,,,,,,,,,,,
293413,2022-09-25_14h51.06.336,vts_reward_expectancy,2022.2.4,Win32,119.8897015,Chrome,1600,1067,,,a,0.9859,10,438,2,0,5,5,5,1,0,1,0,0,0,0,0,1,circle,star,,,,,,,,,,,,,,,,,,,,,,,,,,,,,,,,,,,,,,,,,,,,,,,,,,,,,,
293413,2022-09-25_14h51.06.336,vts_reward_expectancy,2022.2.4,Win32,119.8897015,Chrome,1600,1067,,,l,0.7497,1,439,2,0,6,6,8,1,0,0,1,0,0,0,0,1,hexagon,star,,,,,,,,,,,,,,,,,,,,,,,,,,,,,,,,,,,,,,,,,,,,,,,,,,,,,,
293413,2022-09-25_14h51.06.336,vts_reward_expectancy,2022.2.4,Win32,119.8897015,Chrome,1600,1067,,,l,1.0007,10,449,2,0,7,7,1,1,1,0,0,0,0,0,1,0,triangle,hexagon,,,,,,,,,,,,,,,,,,,,,,,,,,,,,,,,,,,,,,,,,,,,,,,,,,,,,,
293413,2022-09-25_14h51.06.336,vts_reward_expectancy,2022.2.4,Win32,119.8897015,Chrome,1600,1067,,,a,0.7005,1,450,2,0,8,8,2,1,1,0,0,0,0,0,0,1,triangle,star,,,,,,,,,,,,,,,,,,,,,,,,,,,,,,,,,,,,,,,,,,,,,,,,,,,,,,
293413,2022-09-25_14h51.06.336,vts_reward_expectancy,2022.2.4,Win32,119.8897015,Chrome,1600,1067,,,l,1.143,1,451,2,0,9,9,4,1,0,1,0,0,0,0,1,0,circle,hexagon,,,,,,,,,,,,,,,,,,,,,,,,,,,,,,,,,,,,,,,,,,,,,,,,,,,,,,
293413,2022-09-25_14h51.06.336,vts_reward_expectancy,2022.2.4,Win32,119.8897015,Chrome,1600,1067,,,l,1.6003,10,461,2,0,10,10,9,1,0,0,0,1,1,0,0,0,star,triangle,,,,,,,,,,,,,,,,,,,,,,,,,,,,,,,,,,,,,,,,,,,,,,,,,,,,,,
293413,2022-09-25_14h51.06.336,vts_reward_expectancy,2022.2.4,Win32,119.8897015,Chrome,1600,1067,,,l,1.9838,10,471,2,0,11,11,11,1,0,0,0,1,0,0,1,0,star,hexagon,,,,,,,,,,,,,,,,,,,,,,,,,,,,,,,,,,,,,,,,,,,,,,,,,,,,,,
293413,2022-09-25_14h51.06.336,vts_reward_expectancy,2022.2.4,Win32,119.8897015,Chrome,1600,1067,,,a,1.7608,1,472,2,1,0,12,3,1,0,1,0,0,1,0,0,0,circle,triangle,,,,,,,,,,,,,,,,,,,,,,,,,,,,,,,,,,,,,,,,,,,,,,,,,,,,,,
293413,2022-09-25_14h51.06.336,vts_reward_expectancy,2022.2.4,Win32,119.8897015,Chrome,1600,1067,,,l,1.1435,10,482,2,1,1,13,11,1,0,0,0,1,0,0,1,0,star,hexagon,,,,,,,,,,,,,,,,,,,,,,,,,,,,,,,,,,,,,,,,,,,,,,,,,,,,,,
293413,2022-09-25_14h51.06.336,vts_reward_expectancy,2022.2.4,Win32,119.8897015,Chrome,1600,1067,,,l,0.7012,1,483,2,1,2,14,5,1,0,1,0,0,0,0,0,1,circle,star,,,,,,,,,,,,,,,,,,,,,,,,,,,,,,,,,,,,,,,,,,,,,,,,,,,,,,
293413,2022-09-25_14h51.06.336,vts_reward_expectancy,2022.2.4,Win32,119.8897015,Chrome,1600,1067,,,l,0.6276,10,493,2,1,3,15,0,1,1,0,0,0,0,1,0,0,triangle,circle,,,,,,,,,,,,,,,,,,,,,,,,,,,,,,,,,,,,,,,,,,,,,,,,,,,,,,
293413,2022-09-25_14h51.06.336,vts_reward_expectancy,2022.2.4,Win32,119.8897015,Chrome,1600,1067,,,l,0.5259,10,503,2,1,4,16,7,1,0,0,1,0,0,1,0,0,hexagon,circle,,,,,,,,,,,,,,,,,,,,,,,,,,,,,,,,,,,,,,,,,,,,,,,,,,,,,,
293413,2022-09-25_14h51.06.336,vts_reward_expectancy,2022.2.4,Win32,119.8897015,Chrome,1600,1067,,,a,0.6701,10,513,2,1,5,17,4,1,0,1,0,0,0,0,1,0,circle,hexagon,,,,,,,,,,,,,,,,,,,,,,,,,,,,,,,,,,,,,,,,,,,,,,,,,,,,,,
293413,2022-09-25_14h51.06.336,vts_reward_expectancy,2022.2.4,Win32,119.8897015,Chrome,1600,1067,,,l,1.0084,10,523,2,1,6,18,8,1,0,0,1,0,0,0,0,1,hexagon,star,,,,,,,,,,,,,,,,,,,,,,,,,,,,,,,,,,,,,,,,,,,,,,,,,,,,,,
293413,2022-09-25_14h51.06.336,vts_reward_expectancy,2022.2.4,Win32,119.8897015,Chrome,1600,1067,,,l,1.0595,1,524,2,1,7,19,1,1,1,0,0,0,0,0,1,0,triangle,hexagon,,,,,,,,,,,,,,,,,,,,,,,,,,,,,,,,,,,,,,,,,,,,,,,,,,,,,,
293413,2022-09-25_14h51.06.336,vts_reward_expectancy,2022.2.4,Win32,119.8897015,Chrome,1600,1067,,,l,0.6498,10,534,2,1,8,20,10,1,0,0,0,1,0,1,0,0,star ,circle,,,,,,,,,,,,,,,,,,,,,,,,,,,,,,,,,,,,,,,,,,,,,,,,,,,,,,
293413,2022-09-25_14h51.06.336,vts_reward_expectancy,2022.2.4,Win32,119.8897015,Chrome,1600,1067,,,l,2.2506,10,544,2,1,9,21,9,1,0,0,0,1,1,0,0,0,star,triangle,,,,,,,,,,,,,,,,,,,,,,,,,,,,,,,,,,,,,,,,,,,,,,,,,,,,,,
293413,2022-09-25_14h51.06.336,vts_reward_expectancy,2022.2.4,Win32,119.8897015,Chrome,1600,1067,,,l,4.927,10,554,2,1,10,22,2,1,1,0,0,0,0,0,0,1,triangle,star,,,,,,,,,,,,,,,,,,,,,,,,,,,,,,,,,,,,,,,,,,,,,,,,,,,,,,
293413,2022-09-25_14h51.06.336,vts_reward_expectancy,2022.2.4,Win32,119.8897015,Chrome,1600,1067,,,l,1.1506,10,564,2,1,11,23,6,1,0,0,1,0,1,0,0,0,hexagon,triangle,,,,,,,,,,,,,,,,,,,,,,,,,,,,,,,,,,,,,,,,,,,,,,,,,,,,,,
293413,2022-09-25_14h51.06.336,vts_reward_expectancy,2022.2.4,Win32,119.8897015,Chrome,1600,1067,,,l,1.9844,10,574,2,2,0,24,2,1,1,0,0,0,0,0,0,1,triangle,star,,,,,,,,,,,,,,,,,,,,,,,,,,,,,,,,,,,,,,,,,,,,,,,,,,,,,,
293413,2022-09-25_14h51.06.336,vts_reward_expectancy,2022.2.4,Win32,119.8897015,Chrome,1600,1067,,,l,1.4183,10,584,2,2,1,25,9,1,0,0,0,1,1,0,0,0,star,triangle,,,,,,,,,,,,,,,,,,,,,,,,,,,,,,,,,,,,,,,,,,,,,,,,,,,,,,
293413,2022-09-25_14h51.06.336,vts_reward_expectancy,2022.2.4,Win32,119.8897015,Chrome,1600,1067,,,a,1.3326,1,585,2,2,2,26,5,1,0,1,0,0,0,0,0,1,circle,star,,,,,,,,,,,,,,,,,,,,,,,,,,,,,,,,,,,,,,,,,,,,,,,,,,,,,,
293413,2022-09-25_14h51.06.336,vts_reward_expectancy,2022.2.4,Win32,119.8897015,Chrome,1600,1067,,,l,0.7189,10,595,2,2,3,27,7,1,0,0,1,0,0,1,0,0,hexagon,circle,,,,,,,,,,,,,,,,,,,,,,,,,,,,,,,,,,,,,,,,,,,,,,,,,,,,,,
293413,2022-09-25_14h51.06.336,vts_reward_expectancy,2022.2.4,Win32,119.8897015,Chrome,1600,1067,,,l,3.7684,10,605,2,2,4,28,1,1,1,0,0,0,0,0,1,0,triangle,hexagon,,,,,,,,,,,,,,,,,,,,,,,,,,,,,,,,,,,,,,,,,,,,,,,,,,,,,,
293413,2022-09-25_14h51.06.336,vts_reward_expectancy,2022.2.4,Win32,119.8897015,Chrome,1600,1067,,,l,1.1594,1,606,2,2,5,29,8,1,0,0,1,0,0,0,0,1,hexagon,star,,,,,,,,,,,,,,,,,,,,,,,,,,,,,,,,,,,,,,,,,,,,,,,,,,,,,,
293413,2022-09-25_14h51.06.336,vts_reward_expectancy,2022.2.4,Win32,119.8897015,Chrome,1600,1067,,,l,0.8086,10,616,2,2,6,30,10,1,0,0,0,1,0,1,0,0,star ,circle,,,,,,,,,,,,,,,,,,,,,,,,,,,,,,,,,,,,,,,,,,,,,,,,,,,,,,
293413,2022-09-25_14h51.06.336,vts_reward_expectancy,2022.2.4,Win32,119.8897015,Chrome,1600,1067,,,l,1.776,10,626,2,2,7,31,3,1,0,1,0,0,1,0,0,0,circle,triangle,,,,,,,,,,,,,,,,,,,,,,,,,,,,,,,,,,,,,,,,,,,,,,,,,,,,,,
293413,2022-09-25_14h51.06.336,vts_reward_expectancy,2022.2.4,Win32,119.8897015,Chrome,1600,1067,,,a,3.767,10,636,2,2,8,32,4,1,0,1,0,0,0,0,1,0,circle,hexagon,,,,,,,,,,,,,,,,,,,,,,,,,,,,,,,,,,,,,,,,,,,,,,,,,,,,,,
293413,2022-09-25_14h51.06.336,vts_reward_expectancy,2022.2.4,Win32,119.8897015,Chrome,1600,1067,,,l,0.5432,1,637,2,2,9,33,11,1,0,0,0,1,0,0,1,0,star,hexagon,,,,,,,,,,,,,,,,,,,,,,,,,,,,,,,,,,,,,,,,,,,,,,,,,,,,,,
293413,2022-09-25_14h51.06.336,vts_reward_expectancy,2022.2.4,Win32,119.8897015,Chrome,1600,1067,,,l,0.5572,1,638,2,2,10,34,6,1,0,0,1,0,1,0,0,0,hexagon,triangle,,,,,,,,,,,,,,,,,,,,,,,,,,,,,,,,,,,,,,,,,,,,,,,,,,,,,,
293413,2022-09-25_14h51.06.336,vts_reward_expectancy,2022.2.4,Win32,119.8897015,Chrome,1600,1067,,,a,0.9261,10,648,2,2,11,35,0,1,1,0,0,0,0,1,0,0,triangle,circle,,,,,,,,,,,,,,,,,,,,,,,,,,,,,,,,,,,,,,,,,,,,,,,,,,,,,,
293413,2022-09-25_14h51.06.336,vts_reward_expectancy,2022.2.4,Win32,119.8897015,Chrome,1600,1067,,,,,,,,,,,,,,,,,,,,,,,D,132,circle,1,0,d,2.1399,0,0,0,0,0,1,,,,,,,,,,,,,,,,,,,,,,,,,,,,,,,,,,,,,,,,,
293413,2022-09-25_14h51.06.336,vts_reward_expectancy,2022.2.4,Win32,119.8897015,Chrome,1600,1067,,,,,,,,,,,,,,,,,,,,,,,Y,139,hexagon,1,0,f,1.7423,0,1,0,1,0,1,,,,,,,,,,,,,,,,,,,,,,,,,,,,,,,,,,,,,,,,,
293413,2022-09-25_14h51.06.336,vts_reward_expectancy,2022.2.4,Win32,119.8897015,Chrome,1600,1067,,,,,,,,,,,,,,,,,,,,,,,B,174,triangle,1,0,d,0.9015,0,2,0,2,0,1,,,,,,,,,,,,,,,,,,,,,,,,,,,,,,,,,,,,,,,,,
293413,2022-09-25_14h51.06.336,vts_reward_expectancy,2022.2.4,Win32,119.8897015,Chrome,1600,1067,,,,,,,,,,,,,,,,,,,,,,,W,181,star,1,0,f,0.5768,0,3,0,3,0,1,,,,,,,,,,,,,,,,,,,,,,,,,,,,,,,,,,,,,,,,,
293413,2022-09-25_14h51.06.336,vts_reward_expectancy,2022.2.4,Win32,119.8897015,Chrome,1600,1067,,,,,,,,,,,,,,,,,,,,,,,F,146,circle,1,0,d,0.7526,0,4,0,4,0,1,,,,,,,,,,,,,,,,,,,,,,,,,,,,,,,,,,,,,,,,,
293413,2022-09-25_14h51.06.336,vts_reward_expectancy,2022.2.4,Win32,119.8897015,Chrome,1600,1067,,,,,,,,,,,,,,,,,,,,,,,U,167,hexagon,1,0,f,0.8096,0,5,0,5,0,1,,,,,,,,,,,,,,,,,,,,,,,,,,,,,,,,,,,,,,,,,
293413,2022-09-25_14h51.06.336,vts_reward_expectancy,2022.2.4,Win32,119.8897015,Chrome,1600,1067,,,,,,,,,,,,,,,,,,,,,,,S,125,triangle,1,0,f,0.618,0,6,0,6,0,1,,,,,,,,,,,,,,,,,,,,,,,,,,,,,,,,,,,,,,,,,
293413,2022-09-25_14h51.06.336,vts_reward_expectancy,2022.2.4,Win32,119.8897015,Chrome,1600,1067,,,,,,,,,,,,,,,,,,,,,,,H,160,star,1,0,d,1.3672,0,7,0,7,0,1,,,,,,,,,,,,,,,,,,,,,,,,,,,,,,,,,,,,,,,,,
293413,2022-09-25_14h51.06.336,vts_reward_expectancy,2022.2.4,Win32,119.8897015,Chrome,1600,1067,,,,,,,,,,,,,,,,,,,,,,,D,132,star,1,0,d,0.8198,0,8,0,8,0,1,,,,,,,,,,,,,,,,,,,,,,,,,,,,,,,,,,,,,,,,,
293413,2022-09-25_14h51.06.336,vts_reward_expectancy,2022.2.4,Win32,119.8897015,Chrome,1600,1067,,,,,,,,,,,,,,,,,,,,,,,Y,139,triangle,1,0,f,0.5817,0,9,0,9,0,1,,,,,,,,,,,,,,,,,,,,,,,,,,,,,,,,,,,,,,,,,
293413,2022-09-25_14h51.06.336,vts_reward_expectancy,2022.2.4,Win32,119.8897015,Chrome,1600,1067,,,,,,,,,,,,,,,,,,,,,,,W,181,circle,1,0,,,1,,,,,,k,0.6663,0,0,0,0,1,,,,,,,,,,,,,,,,,,,,,,,,,,,,,,,,,,
293413,2022-09-25_14h51.06.336,vts_reward_expectancy,2022.2.4,Win32,119.8897015,Chrome,1600,1067,,,,,,,,,,,,,,,,,,,,,,,S,174,star,1,0,,,1,,,,,,k,1.2921,1,0,1,0,1,,,,,,,,,,,,,,,,,,,,,,,,,,,,,,,,,,
293413,2022-09-25_14h51.06.336,vts_reward_expectancy,2022.2.4,Win32,119.8897015,Chrome,1600,1067,,,,,,,,,,,,,,,,,,,,,,,H,167,hexagon,1,0,,,1,,,,,,k,1.7166,2,0,2,0,1,,,,,,,,,,,,,,,,,,,,,,,,,,,,,,,,,,
293413,2022-09-25_14h51.06.336,vts_reward_expectancy,2022.2.4,Win32,119.8897015,Chrome,1600,1067,,,,,,,,,,,,,,,,,,,,,,,Y,139,triangle,1,0,,,1,,,,,,j,0.8898,3,0,3,0,1,,,,,,,,,,,,,,,,,,,,,,,,,,,,,,,,,,
293413,2022-09-25_14h51.06.336,vts_reward_expectancy,2022.2.4,Win32,119.8897015,Chrome,1600,1067,,,,,,,,,,,,,,,,,,,,,,,B,132,circle,1,0,,,1,,,,,,j,0.8414,4,0,4,0,1,,,,,,,,,,,,,,,,,,,,,,,,,,,,,,,,,,
293413,2022-09-25_14h51.06.336,vts_reward_expectancy,2022.2.4,Win32,119.8897015,Chrome,1600,1067,,,,,,,,,,,,,,,,,,,,,,,F,146,star,1,0,,,1,,,,,,j,1.0519,5,0,5,0,1,,,,,,,,,,,,,,,,,,,,,,,,,,,,,,,,,,
293413,2022-09-25_14h51.06.336,vts_reward_expectancy,2022.2.4,Win32,119.8897015,Chrome,1600,1067,,,,,,,,,,,,,,,,,,,,,,,D,160,hexagon,1,0,,,1,,,,,,k,0.8081,6,0,6,0,1,,,,,,,,,,,,,,,,,,,,,,,,,,,,,,,,,,
293413,2022-09-25_14h51.06.336,vts_reward_expectancy,2022.2.4,Win32,119.8897015,Chrome,1600,1067,,,,,,,,,,,,,,,,,,,,,,,U,125,triangle,1,0,,,1,,,,,,j,1.0171,7,0,7,0,1,,,,,,,,,,,,,,,,,,,,,,,,,,,,,,,,,,
293413,2022-09-25_14h51.06.336,vts_reward_expectancy,2022.2.4,Win32,119.8897015,Chrome,1600,1067,,,,,,,,,,,,,,,,,,,,,,,W,181,circle,1,0,,,1,,,,,,k,0.5671,8,0,8,0,1,,,,,,,,,,,,,,,,,,,,,,,,,,,,,,,,,,
293413,2022-09-25_14h51.06.336,vts_reward_expectancy,2022.2.4,Win32,119.8897015,Chrome,1600,1067,,,,,,,,,,,,,,,,,,,,,,,S,174,hexagon,1,0,,,1,,,,,,k,0.7545,9,0,9,0,1,,,,,,,,,,,,,,,,,,,,,,,,,,,,,,,,,,
293413,2022-09-25_14h51.06.336,vts_reward_expectancy,2022.2.4,Win32,119.8897015,Chrome,1600,1067,,,,,0,648,,,,,,,,,,,,,,,,,U,181,circle,0,0,,,2,,,,,,,,,,,,,-1,letter,NA,d,2.2617,vtsPrac,0,0,0,0,1,,,,,,,,,,,,,,,,,,,,,,,
293413,2022-09-25_14h51.06.336,vts_reward_expectancy,2022.2.4,Win32,119.8897015,Chrome,1600,1067,,,,,0,648,,,,,,,,,,,,,,,,,B,139,star,0,1,,,2,,,,,,,,,,,,,switch,number,NA,k,1.4865,vtsPrac,1,0,1,0,1,,,,,,,,,,,,,,,,,,,,,,,
293413,2022-09-25_14h51.06.336,vts_reward_expectancy,2022.2.4,Win32,119.8897015,Chrome,1600,1067,,,,,0,648,,,,,,,,,,,,,,,,,W,167,circle,1,1,,,2,,,,,,,,,,,,,repeat,number,numRpt,k,1.2085,vtsPrac,2,0,2,0,1,,,,,,,,,,,,,,,,,,,,,,,
293413,2022-09-25_14h51.06.336,vts_reward_expectancy,2022.2.4,Win32,119.8897015,Chrome,1600,1067,,,,,0,648,,,,,,,,,,,,,,,,,D,132,star,-1,0,,,2,,,,,,,,,,,,,switch,no_choice,NA,,,vtsPrac,3,0,3,0,1,,,,,,,,,,,,,,,,,,,,,,,
293413,2022-09-25_14h51.06.336,vts_reward_expectancy,2022.2.4,Win32,119.8897015,Chrome,1600,1067,,,,,0,648,,,,,,,,,,,,,,,,,U,181,triangle,0,0,,,2,,,,,,,,,,,,,switch,letter,NA,d,1.6513,vtsPrac,4,0,4,0,1,,,,,,,,,,,,,,,,,,,,,,,
293413,2022-09-25_14h51.06.336,vts_reward_expectancy,2022.2.4,Win32,119.8897015,Chrome,1600,1067,,,,,0,648,,,,,,,,,,,,,,,,,B,139,hexagon,1,1,,,2,,,,,,,,,,,,,switch,number,numSwt,j,1.5675,vtsPrac,5,0,5,0,1,,,,,,,,,,,,,,,,,,,,,,,
293413,2022-09-25_14h51.06.336,vts_reward_expectancy,2022.2.4,Win32,119.8897015,Chrome,1600,1067,,,,,0,648,,,,,,,,,,,,,,,,,W,167,hexagon,0,0,,,2,,,,,,,,,,,,,switch,letter,NA,d,1.8305,vtsPrac,6,0,6,0,1,,,,,,,,,,,,,,,,,,,,,,,
293413,2022-09-25_14h51.06.336,vts_reward_expectancy,2022.2.4,Win32,119.8897015,Chrome,1600,1067,,,,,0,648,,,,,,,,,,,,,,,,,D,132,triangle,1,1,,,2,,,,,,,,,,,,,switch,number,numSwt,j,1.393,vtsPrac,7,0,7,0,1,,,,,,,,,,,,,,,,,,,,,,,
293413,2022-09-25_14h51.06.336,vts_reward_expectancy,2022.2.4,Win32,119.8897015,Chrome,1600,1067,,,,,0,648,,,,,,,,,,,,,,,,,Y,174,star,1,0,,,2,,,,,,,,,,,,,repeat,number,numRpt,k,0.9505,vtsPrac,8,0,8,0,1,,,,,,,,,,,,,,,,,,,,,,,
293413,2022-09-25_14h51.06.336,vts_reward_expectancy,2022.2.4,Win32,119.8897015,Chrome,1600,1067,,,,,0,648,,,,,,,,,,,,,,,,,S,167,hexagon,0,0,,,2,,,,,,,,,,,,,switch,letter,NA,d,0.9931,vtsPrac,9,0,9,0,1,,,,,,,,,,,,,,,,,,,,,,,
293413,2022-09-25_14h51.06.336,vts_reward_expectancy,2022.2.4,Win32,119.8897015,Chrome,1600,1067,,,,,0,648,,,,,,,,,,,,,,,,,F,181,hexagon,1,1,,,2,,,,,,,,,,,,,switch,number,numSwt,k,2.3591,vtsPrac,10,0,10,0,1,,,,,,,,,,,,,,,,,,,,,,,
293413,2022-09-25_14h51.06.336,vts_reward_expectancy,2022.2.4,Win32,119.8897015,Chrome,1600,1067,,,,,0,648,,,,,,,,,,,,,,,,,W,160,circle,0,0,,,2,,,,,,,,,,,,,switch,letter,NA,d,1.4183,vtsPrac,11,0,11,0,1,,,,,,,,,,,,,,,,,,,,,,,
293413,2022-09-25_14h51.06.336,vts_reward_expectancy,2022.2.4,Win32,119.8897015,Chrome,1600,1067,,,,,0,648,,,,,,,,,,,,,,,,,Y,132,circle,1,1,,,2,,,,,,,,,,,,,switch,number,numSwt,j,1.5609,vtsPrac,12,0,12,0,1,,,,,,,,,,,,,,,,,,,,,,,
293413,2022-09-25_14h51.06.336,vts_reward_expectancy,2022.2.4,Win32,119.8897015,Chrome,1600,1067,,,,,0,648,,,,,,,,,,,,,,,,,W,181,hexagon,1,0,,,2,,,,,,,,,,,,,repeat,number,numRpt,k,1.1456,vtsPrac,13,0,13,0,1,,,,,,,,,,,,,,,,,,,,,,,
293413,2022-09-25_14h51.06.336,vts_reward_expectancy,2022.2.4,Win32,119.8897015,Chrome,1600,1067,,,,,0,648,,,,,,,,,,,,,,,,,F,174,circle,1,0,,,2,,,,,,,,,,,,,repeat,number,numRpt,k,1.1962,vtsPrac,14,0,14,0,1,,,,,,,,,,,,,,,,,,,,,,,
293413,2022-09-25_14h51.06.336,vts_reward_expectancy,2022.2.4,Win32,119.8897015,Chrome,1600,1067,,,,,0,648,,,,,,,,,,,,,,,,,U,160,triangle,1,0,,,2,,,,,,,,,,,,,repeat,number,numRpt,k,1.0262,vtsPrac,15,0,15,0,1,,,,,,,,,,,,,,,,,,,,,,,
293413,2022-09-25_14h51.06.336,vts_reward_expectancy,2022.2.4,Win32,119.8897015,Chrome,1600,1067,,,,,0,648,,,,,,,,,,,,,,,,,Y,181,circle,-1,0,,,3,,,,,,,,,,,,,switch,no_choice,NA,,,vtsPrac,0,0,0,0,1,,,,,,,,,,,,,,,,,,,,,,,
293413,2022-09-25_14h51.06.336,vts_reward_expectancy,2022.2.4,Win32,119.8897015,Chrome,1600,1067,,,,,0,648,,,,,,,,,,,,,,,,,B,132,triangle,0,0,,,3,,,,,,,,,,,,,switch,letter,NA,f,0.8178,vtsPrac,1,0,1,0,1,,,,,,,,,,,,,,,,,,,,,,,
293413,2022-09-25_14h51.06.336,vts_reward_expectancy,2022.2.4,Win32,119.8897015,Chrome,1600,1067,,,,,0,648,,,,,,,,,,,,,,,,,S,174,circle,1,1,,,3,,,,,,,,,,,,,repeat,letter,lettRpt,f,1.4348,vtsPrac,2,0,2,0,1,,,,,,,,,,,,,,,,,,,,,,,
293413,2022-09-25_14h51.06.336,vts_reward_expectancy,2022.2.4,Win32,119.8897015,Chrome,1600,1067,,,,,0,648,,,,,,,,,,,,,,,,,W,139,triangle,1,0,,,3,,,,,,,,,,,,,repeat,letter,lettRpt,f,0.8842,vtsPrac,3,0,3,0,1,,,,,,,,,,,,,,,,,,,,,,,
293413,2022-09-25_14h51.06.336,vts_reward_expectancy,2022.2.4,Win32,119.8897015,Chrome,1600,1067,,,,,0,648,,,,,,,,,,,,,,,,,Y,181,triangle,1,0,,,3,,,,,,,,,,,,,repeat,letter,lettRpt,f,0.5932,vtsPrac,4,0,4,0,1,,,,,,,,,,,,,,,,,,,,,,,
293413,2022-09-25_14h51.06.336,vts_reward_expectancy,2022.2.4,Win32,119.8897015,Chrome,1600,1067,,,,,0,648,,,,,,,,,,,,,,,,,B,132,circle,1,0,,,3,,,,,,,,,,,,,repeat,letter,lettRpt,d,0.7924,vtsPrac,5,0,5,0,1,,,,,,,,,,,,,,,,,,,,,,,
293413,2022-09-25_14h51.06.336,vts_reward_expectancy,2022.2.4,Win32,119.8897015,Chrome,1600,1067,,,,,0,648,,,,,,,,,,,,,,,,,S,174,triangle,1,0,,,3,,,,,,,,,,,,,repeat,letter,lettRpt,f,0.5341,vtsPrac,6,0,6,0,1,,,,,,,,,,,,,,,,,,,,,,,
293413,2022-09-25_14h51.06.336,vts_reward_expectancy,2022.2.4,Win32,119.8897015,Chrome,1600,1067,,,,,0,648,,,,,,,,,,,,,,,,,W,139,hexagon,1,0,,,3,,,,,,,,,,,,,switch,number,numSwt,j,0.8091,vtsPrac,7,0,7,0,1,,,,,,,,,,,,,,,,,,,,,,,
293413,2022-09-25_14h51.06.336,vts_reward_expectancy,2022.2.4,Win32,119.8897015,Chrome,1600,1067,,,,,0,648,,,,,,,,,,,,,,,,,S,174,circle,1,0,,,3,,,,,,,,,,,,,repeat,number,numRpt,k,0.6844,vtsPrac,8,0,8,0,1,,,,,,,,,,,,,,,,,,,,,,,
293413,2022-09-25_14h51.06.336,vts_reward_expectancy,2022.2.4,Win32,119.8897015,Chrome,1600,1067,,,,,0,648,,,,,,,,,,,,,,,,,W,181,star,1,0,,,3,,,,,,,,,,,,,repeat,number,numRpt,k,0.7591,vtsPrac,9,0,9,0,1,,,,,,,,,,,,,,,,,,,,,,,
293413,2022-09-25_14h51.06.336,vts_reward_expectancy,2022.2.4,Win32,119.8897015,Chrome,1600,1067,,,,,0,648,,,,,,,,,,,,,,,,,B,139,circle,1,0,,,3,,,,,,,,,,,,,repeat,number,numRpt,j,0.7014,vtsPrac,10,0,10,0,1,,,,,,,,,,,,,,,,,,,,,,,
293413,2022-09-25_14h51.06.336,vts_reward_expectancy,2022.2.4,Win32,119.8897015,Chrome,1600,1067,,,,,0,648,,,,,,,,,,,,,,,,,Y,160,star,1,0,,,3,,,,,,,,,,,,,repeat,number,numRpt,k,1.2312,vtsPrac,11,0,11,0,1,,,,,,,,,,,,,,,,,,,,,,,
293413,2022-09-25_14h51.06.336,vts_reward_expectancy,2022.2.4,Win32,119.8897015,Chrome,1600,1067,,,,,0,648,,,,,,,,,,,,,,,,,W,160,circle,1,0,,,3,,,,,,,,,,,,,repeat,number,numRpt,k,0.629,vtsPrac,12,0,12,0,1,,,,,,,,,,,,,,,,,,,,,,,
293413,2022-09-25_14h51.06.336,vts_reward_expectancy,2022.2.4,Win32,119.8897015,Chrome,1600,1067,,,,,0,648,,,,,,,,,,,,,,,,,S,146,hexagon,1,0,,,3,,,,,,,,,,,,,repeat,number,numRpt,j,2.1531,vtsPrac,13,0,13,0,1,,,,,,,,,,,,,,,,,,,,,,,
293413,2022-09-25_14h51.06.336,vts_reward_expectancy,2022.2.4,Win32,119.8897015,Chrome,1600,1067,,,,,0,648,,,,,,,,,,,,,,,,,D,174,hexagon,1,0,,,3,,,,,,,,,,,,,repeat,number,numRpt,k,0.7404,vtsPrac,14,0,14,0,1,,,,,,,,,,,,,,,,,,,,,,,
293413,2022-09-25_14h51.06.336,vts_reward_expectancy,2022.2.4,Win32,119.8897015,Chrome,1600,1067,,,,,0,648,,,,,,,,,,,,,,,,,U,132,triangle,1,0,,,3,,,,,,,,,,,,,repeat,number,numRpt,j,0.7604,vtsPrac,15,0,15,0,1,,,,,,,,,,,,,,,,,,,,,,,
293413,2022-09-25_14h51.06.336,vts_reward_expectancy,2022.2.4,Win32,119.8897015,Chrome,1600,1067,,,,,0,648,,,,,,,,,,,,,,,,,H,139,circle,0,0,,,4,,,,,,,,,,,,,switch,letter,NA,f,0.7133,vtsPrac,0,0,0,0,1,,,,,,,,,,,,,,,,,,,,,,,
293413,2022-09-25_14h51.06.336,vts_reward_expectancy,2022.2.4,Win32,119.8897015,Chrome,1600,1067,,,,,0,648,,,,,,,,,,,,,,,,,Y,181,star,1,1,,,4,,,,,,,,,,,,,repeat,letter,lettRpt,f,1.5152,vtsPrac,1,0,1,0,1,,,,,,,,,,,,,,,,,,,,,,,
293413,2022-09-25_14h51.06.336,vts_reward_expectancy,2022.2.4,Win32,119.8897015,Chrome,1600,1067,,,,,0,648,,,,,,,,,,,,,,,,,W,160,circle,1,0,,,4,,,,,,,,,,,,,switch,number,numSwt,k,0.9338,vtsPrac,2,0,2,0,1,,,,,,,,,,,,,,,,,,,,,,,
293413,2022-09-25_14h51.06.336,vts_reward_expectancy,2022.2.4,Win32,119.8897015,Chrome,1600,1067,,,,,0,648,,,,,,,,,,,,,,,,,S,132,star,1,0,,,4,,,,,,,,,,,,,repeat,number,numRpt,j,0.6835,vtsPrac,3,0,3,0,1,,,,,,,,,,,,,,,,,,,,,,,
293413,2022-09-25_14h51.06.336,vts_reward_expectancy,2022.2.4,Win32,119.8897015,Chrome,1600,1067,,,,,0,648,,,,,,,,,,,,,,,,,H,139,star,1,0,,,4,,,,,,,,,,,,,repeat,number,numRpt,j,0.6247,vtsPrac,4,0,4,0,1,,,,,,,,,,,,,,,,,,,,,,,
293413,2022-09-25_14h51.06.336,vts_reward_expectancy,2022.2.4,Win32,119.8897015,Chrome,1600,1067,,,,,0,648,,,,,,,,,,,,,,,,,Y,181,triangle,1,0,,,4,,,,,,,,,,,,,repeat,number,numRpt,k,0.7366,vtsPrac,5,0,5,0,1,,,,,,,,,,,,,,,,,,,,,,,
293413,2022-09-25_14h51.06.336,vts_reward_expectancy,2022.2.4,Win32,119.8897015,Chrome,1600,1067,,,,,0,648,,,,,,,,,,,,,,,,,W,160,hexagon,1,0,,,4,,,,,,,,,,,,,switch,letter,lettSwt,f,0.5967,vtsPrac,6,0,6,0,1,,,,,,,,,,,,,,,,,,,,,,,
293413,2022-09-25_14h51.06.336,vts_reward_expectancy,2022.2.4,Win32,119.8897015,Chrome,1600,1067,,,,,0,648,,,,,,,,,,,,,,,,,S,132,star,1,0,,,4,,,,,,,,,,,,,switch,number,numSwt,j,0.9198,vtsPrac,7,0,7,0,1,,,,,,,,,,,,,,,,,,,,,,,
293413,2022-09-25_14h51.06.336,vts_reward_expectancy,2022.2.4,Win32,119.8897015,Chrome,1600,1067,,,,,0,648,,,,,,,,,,,,,,,,,S,125,star,1,0,,,4,,,,,,,,,,,,,switch,letter,lettSwt,f,0.6676,vtsPrac,8,0,8,0,1,,,,,,,,,,,,,,,,,,,,,,,
293413,2022-09-25_14h51.06.336,vts_reward_expectancy,2022.2.4,Win32,119.8897015,Chrome,1600,1067,,,,,0,648,,,,,,,,,,,,,,,,,U,146,circle,1,0,,,4,,,,,,,,,,,,,repeat,letter,lettRpt,f,0.7088,vtsPrac,9,0,9,0,1,,,,,,,,,,,,,,,,,,,,,,,
293413,2022-09-25_14h51.06.336,vts_reward_expectancy,2022.2.4,Win32,119.8897015,Chrome,1600,1067,,,,,0,648,,,,,,,,,,,,,,,,,Y,132,circle,1,0,,,4,,,,,,,,,,,,,switch,number,numSwt,j,0.7889,vtsPrac,10,0,10,0,1,,,,,,,,,,,,,,,,,,,,,,,
293413,2022-09-25_14h51.06.336,vts_reward_expectancy,2022.2.4,Win32,119.8897015,Chrome,1600,1067,,,,,0,648,,,,,,,,,,,,,,,,,H,174,triangle,0,0,,,4,,,,,,,,,,,,,switch,letter,NA,f,0.7924,vtsPrac,11,0,11,0,1,,,,,,,,,,,,,,,,,,,,,,,
293413,2022-09-25_14h51.06.336,vts_reward_expectancy,2022.2.4,Win32,119.8897015,Chrome,1600,1067,,,,,0,648,,,,,,,,,,,,,,,,,W,125,circle,1,1,,,4,,,,,,,,,,,,,repeat,letter,lettRpt,f,0.6571,vtsPrac,12,0,12,0,1,,,,,,,,,,,,,,,,,,,,,,,
293413,2022-09-25_14h51.06.336,vts_reward_expectancy,2022.2.4,Win32,119.8897015,Chrome,1600,1067,,,,,0,648,,,,,,,,,,,,,,,,,B,160,star,1,0,,,4,,,,,,,,,,,,,switch,number,numSwt,k,0.6928,vtsPrac,13,0,13,0,1,,,,,,,,,,,,,,,,,,,,,,,
293413,2022-09-25_14h51.06.336,vts_reward_expectancy,2022.2.4,Win32,119.8897015,Chrome,1600,1067,,,,,0,648,,,,,,,,,,,,,,,,,F,139,triangle,1,0,,,4,,,,,,,,,,,,,repeat,number,numRpt,j,0.701,vtsPrac,14,0,14,0,1,,,,,,,,,,,,,,,,,,,,,,,
293413,2022-09-25_14h51.06.336,vts_reward_expectancy,2022.2.4,Win32,119.8897015,Chrome,1600,1067,,,,,0,648,,,,,,,,,,,,,,,,,H,174,circle,1,0,,,4,,,,,,,,,,,,,switch,letter,lettSwt,d,1.0515,vtsPrac,15,0,15,0,1,,,,,,,,,,,,,,,,,,,,,,,
293413,2022-09-25_14h51.06.336,vts_reward_expectancy,2022.2.4,Win32,119.8897015,Chrome,1600,1067,,,,,,,,,,,,,,,,,,,,,,,,,,,,,,,,,,,,,,,,,,,,,,,,,,,,,,,,,,,,,,,,,,,,,,,,,,,,
293413,2022-09-25_14h51.06.336,vts_reward_expectancy,2022.2.4,Win32,119.8897015,Chrome,1600,1067,,,,,,,,,,,,,,,,,,,,,,,,,,,,,,,,,,,,,,,,,,,,,,,,,,,,,,,,,,,,,,,,,,,,,,,,,,,,
293413,2022-09-25_14h51.06.336,vts_reward_expectancy,2022.2.4,Win32,119.8897015,Chrome,1600,1067,,,,,0,648,,,,,,,,,,,,,,,,,Y,167,triangle,1,0,,,,,,,,,,,,,,,,repeat,letter,lettRpt,f,0.6696,noRew,,,,,,0,0,0,0,0,1,,,,,,,,,,,,,,,,,
293413,2022-09-25_14h51.06.336,vts_reward_expectancy,2022.2.4,Win32,119.8897015,Chrome,1600,1067,,,,,0,648,,,,,,,,,,,,,,,,,U,146,circle,1,0,,,,,,,,,,,,,,,,switch,number,numSwt,j,0.7495,noRew,,,,,,0,1,0,1,0,1,,,,,,,,,,,,,,,,,
293413,2022-09-25_14h51.06.336,vts_reward_expectancy,2022.2.4,Win32,119.8897015,Chrome,1600,1067,,,,,0,648,,,,,,,,,,,,,,,,,H,139,triangle,1,0,,,,,,,,,,,,,,,,repeat,number,numRpt,j,0.8905,noRew,,,,,,0,2,0,2,0,1,,,,,,,,,,,,,,,,,
293413,2022-09-25_14h51.06.336,vts_reward_expectancy,2022.2.4,Win32,119.8897015,Chrome,1600,1067,,,,,0,648,,,,,,,,,,,,,,,,,S,174,circle,1,0,,,,,,,,,,,,,,,,repeat,number,numRpt,k,0.6261,noRew,,,,,,0,3,0,3,0,1,,,,,,,,,,,,,,,,,
293413,2022-09-25_14h51.06.336,vts_reward_expectancy,2022.2.4,Win32,119.8897015,Chrome,1600,1067,,,,,0,648,,,,,,,,,,,,,,,,,Y,167,star,1,0,,,,,,,,,,,,,,,,switch,letter,lettSwt,f,0.6596,noRew,,,,,,0,4,0,4,0,1,,,,,,,,,,,,,,,,,
293413,2022-09-25_14h51.06.336,vts_reward_expectancy,2022.2.4,Win32,119.8897015,Chrome,1600,1067,,,,,0,648,,,,,,,,,,,,,,,,,U,146,circle,1,0,,,,,,,,,,,,,,,,repeat,letter,lettRpt,f,1.0662,noRew,,,,,,0,5,0,5,0,1,,,,,,,,,,,,,,,,,
293413,2022-09-25_14h51.06.336,vts_reward_expectancy,2022.2.4,Win32,119.8897015,Chrome,1600,1067,,,,,0,648,,,,,,,,,,,,,,,,,H,139,hexagon,1,0,,,,,,,,,,,,,,,,switch,number,numSwt,j,0.6181,noRew,,,,,,0,6,0,6,0,1,,,,,,,,,,,,,,,,,
293413,2022-09-25_14h51.06.336,vts_reward_expectancy,2022.2.4,Win32,119.8897015,Chrome,1600,1067,,,,,0,648,,,,,,,,,,,,,,,,,S,174,triangle,1,0,,,,,,,,,,,,,,,,switch,letter,lettSwt,f,1.3551,noRew,,,,,,0,7,0,7,0,1,,,,,,,,,,,,,,,,,
293413,2022-09-25_14h51.06.336,vts_reward_expectancy,2022.2.4,Win32,119.8897015,Chrome,1600,1067,,,,,0,648,,,,,,,,,,,,,,,,,Y,167,circle,1,0,,,,,,,,,,,,,,,,switch,number,numSwt,k,0.7678,noRew,,,,,,0,8,0,8,0,1,,,,,,,,,,,,,,,,,
293413,2022-09-25_14h51.06.336,vts_reward_expectancy,2022.2.4,Win32,119.8897015,Chrome,1600,1067,,,,,0,648,,,,,,,,,,,,,,,,,W,125,triangle,1,0,,,,,,,,,,,,,,,,switch,letter,lettSwt,f,0.9994,noRew,,,,,,0,9,0,9,0,1,,,,,,,,,,,,,,,,,
293413,2022-09-25_14h51.06.336,vts_reward_expectancy,2022.2.4,Win32,119.8897015,Chrome,1600,1067,,,,,0,648,,,,,,,,,,,,,,,,,F,174,triangle,1,0,,,,,,,,,,,,,,,,switch,number,numSwt,k,1.0793,noRew,,,,,,0,10,0,10,0,1,,,,,,,,,,,,,,,,,
293413,2022-09-25_14h51.06.336,vts_reward_expectancy,2022.2.4,Win32,119.8897015,Chrome,1600,1067,,,,,0,648,,,,,,,,,,,,,,,,,U,132,star,0,0,,,,,,,,,,,,,,,,switch,letter,NA,d,1.2092,noRew,,,,,,0,11,0,11,0,1,,,,,,,,,,,,,,,,,
293413,2022-09-25_14h51.06.336,vts_reward_expectancy,2022.2.4,Win32,119.8897015,Chrome,1600,1067,,,,,0,648,,,,,,,,,,,,,,,,,F,174,hexagon,1,1,,,,,,,,,,,,,,,,repeat,letter,lettRpt,d,0.8669,noRew,,,,,,0,12,0,12,0,1,,,,,,,,,,,,,,,,,
293413,2022-09-25_14h51.06.336,vts_reward_expectancy,2022.2.4,Win32,119.8897015,Chrome,1600,1067,,,,,0,648,,,,,,,,,,,,,,,,,Y,160,triangle,1,0,,,,,,,,,,,,,,,,switch,number,numSwt,k,1.0314,noRew,,,,,,0,13,0,13,0,1,,,,,,,,,,,,,,,,,
293413,2022-09-25_14h51.06.336,vts_reward_expectancy,2022.2.4,Win32,119.8897015,Chrome,1600,1067,,,,,0,648,,,,,,,,,,,,,,,,,H,132,triangle,1,0,,,,,,,,,,,,,,,,switch,letter,lettSwt,d,1.1431,noRew,,,,,,0,14,0,14,0,1,,,,,,,,,,,,,,,,,
293413,2022-09-25_14h51.06.336,vts_reward_expectancy,2022.2.4,Win32,119.8897015,Chrome,1600,1067,,,,,0,648,,,,,,,,,,,,,,,,,D,146,circle,0,0,,,,,,,,,,,,,,,,switch,number,NA,k,1.1662,noRew,,,,,,0,15,0,15,0,1,,,,,,,,,,,,,,,,,
293413,2022-09-25_14h51.06.336,vts_reward_expectancy,2022.2.4,Win32,119.8897015,Chrome,1600,1067,,,,,0,648,,,,,,,,,,,,,,,,,H,181,hexagon,1,1,,,,,,,,,,,,,,,,repeat,number,numRpt,k,1.4008,noRew,,,,,,0,16,0,16,0,1,,,,,,,,,,,,,,,,,
293413,2022-09-25_14h51.06.336,vts_reward_expectancy,2022.2.4,Win32,119.8897015,Chrome,1600,1067,,,,,0,648,,,,,,,,,,,,,,,,,D,125,circle,1,0,,,,,,,,,,,,,,,,repeat,number,numRpt,j,0.9693,noRew,,,,,,0,17,0,17,0,1,,,,,,,,,,,,,,,,,
293413,2022-09-25_14h51.06.336,vts_reward_expectancy,2022.2.4,Win32,119.8897015,Chrome,1600,1067,,,,,0,648,,,,,,,,,,,,,,,,,F,146,star,1,0,,,,,,,,,,,,,,,,switch,letter,lettSwt,d,1.0337,noRew,,,,,,0,18,0,18,0,1,,,,,,,,,,,,,,,,,
293413,2022-09-25_14h51.06.336,vts_reward_expectancy,2022.2.4,Win32,119.8897015,Chrome,1600,1067,,,,,0,648,,,,,,,,,,,,,,,,,Y,167,triangle,1,0,,,,,,,,,,,,,,,,repeat,letter,lettRpt,f,0.7021,noRew,,,,,,0,19,0,19,0,1,,,,,,,,,,,,,,,,,
293413,2022-09-25_14h51.06.336,vts_reward_expectancy,2022.2.4,Win32,119.8897015,Chrome,1600,1067,,,,,0,648,,,,,,,,,,,,,,,,,H,160,hexagon,1,0,,,,,,,,,,,,,,,,repeat,letter,lettRpt,d,1.0677,noRew,,,,,,0,20,0,20,0,1,,,,,,,,,,,,,,,,,
293413,2022-09-25_14h51.06.336,vts_reward_expectancy,2022.2.4,Win32,119.8897015,Chrome,1600,1067,,,,,0,648,,,,,,,,,,,,,,,,,Y,139,circle,1,0,,,,,,,,,,,,,,,,repeat,letter,lettRpt,f,0.6594,noRew,,,,,,0,21,0,21,0,1,,,,,,,,,,,,,,,,,
293413,2022-09-25_14h51.06.336,vts_reward_expectancy,2022.2.4,Win32,119.8897015,Chrome,1600,1067,,,,,0,648,,,,,,,,,,,,,,,,,U,146,star,1,0,,,,,,,,,,,,,,,,repeat,letter,lettRpt,f,0.5827,noRew,,,,,,0,22,0,22,0,1,,,,,,,,,,,,,,,,,
293413,2022-09-25_14h51.06.336,vts_reward_expectancy,2022.2.4,Win32,119.8897015,Chrome,1600,1067,,,,,0,648,,,,,,,,,,,,,,,,,B,167,triangle,1,0,,,,,,,,,,,,,,,,repeat,letter,lettRpt,d,0.6758,noRew,,,,,,0,23,0,23,0,1,,,,,,,,,,,,,,,,,
293413,2022-09-25_14h51.06.336,vts_reward_expectancy,2022.2.4,Win32,119.8897015,Chrome,1600,1067,,,,,0,648,,,,,,,,,,,,,,,,,S,132,star,1,0,,,,,,,,,,,,,,,,switch,number,numSwt,j,0.5622,noRew,,,,,,0,24,0,24,0,1,,,,,,,,,,,,,,,,,
293413,2022-09-25_14h51.06.336,vts_reward_expectancy,2022.2.4,Win32,119.8897015,Chrome,1600,1067,,,,,0,648,,,,,,,,,,,,,,,,,H,167,hexagon,1,0,,,,,,,,,,,,,,,,repeat,number,numRpt,k,0.6589,noRew,,,,,,0,25,0,25,0,1,,,,,,,,,,,,,,,,,
293413,2022-09-25_14h51.06.336,vts_reward_expectancy,2022.2.4,Win32,119.8897015,Chrome,1600,1067,,,,,0,648,,,,,,,,,,,,,,,,,W,125,triangle,1,0,,,,,,,,,,,,,,,,repeat,number,numRpt,j,0.7231,noRew,,,,,,0,26,0,26,0,1,,,,,,,,,,,,,,,,,
293413,2022-09-25_14h51.06.336,vts_reward_expectancy,2022.2.4,Win32,119.8897015,Chrome,1600,1067,,,,,0,648,,,,,,,,,,,,,,,,,Y,174,star,1,0,,,,,,,,,,,,,,,,switch,letter,lettSwt,f,0.5918,noRew,,,,,,0,27,0,27,0,1,,,,,,,,,,,,,,,,,
293413,2022-09-25_14h51.06.336,vts_reward_expectancy,2022.2.4,Win32,119.8897015,Chrome,1600,1067,,,,,0,648,,,,,,,,,,,,,,,,,S,139,star,1,0,,,,,,,,,,,,,,,,switch,number,numSwt,j,0.9031,noRew,,,,,,0,28,0,28,0,1,,,,,,,,,,,,,,,,,
293413,2022-09-25_14h51.06.336,vts_reward_expectancy,2022.2.4,Win32,119.8897015,Chrome,1600,1067,,,,,0,648,,,,,,,,,,,,,,,,,U,167,hexagon,1,0,,,,,,,,,,,,,,,,switch,letter,lettSwt,f,0.7511,noRew,,,,,,0,29,0,29,0,1,,,,,,,,,,,,,,,,,
293413,2022-09-25_14h51.06.336,vts_reward_expectancy,2022.2.4,Win32,119.8897015,Chrome,1600,1067,,,,,0,648,,,,,,,,,,,,,,,,,H,160,hexagon,1,0,,,,,,,,,,,,,,,,repeat,letter,lettRpt,d,1.5844,noRew,,,,,,0,30,0,30,0,1,,,,,,,,,,,,,,,,,
293413,2022-09-25_14h51.06.336,vts_reward_expectancy,2022.2.4,Win32,119.8897015,Chrome,1600,1067,,,,,0,648,,,,,,,,,,,,,,,,,W,132,star,1,0,,,,,,,,,,,,,,,,switch,number,numSwt,j,0.9091,noRew,,,,,,0,31,0,31,0,1,,,,,,,,,,,,,,,,,
293413,2022-09-25_14h51.06.336,vts_reward_expectancy,2022.2.4,Win32,119.8897015,Chrome,1600,1067,,,,,0,648,,,,,,,,,,,,,,,,,Y,160,hexagon,1,0,,,,,,,,,,,,,,,,repeat,number,numRpt,k,0.5672,noRew,,,,,,0,32,0,32,0,1,,,,,,,,,,,,,,,,,
293413,2022-09-25_14h51.06.336,vts_reward_expectancy,2022.2.4,Win32,119.8897015,Chrome,1600,1067,,,,,0,648,,,,,,,,,,,,,,,,,H,125,star,1,0,,,,,,,,,,,,,,,,repeat,number,numRpt,j,2.0914,noRew,,,,,,0,33,0,33,0,1,,,,,,,,,,,,,,,,,
293413,2022-09-25_14h51.06.336,vts_reward_expectancy,2022.2.4,Win32,119.8897015,Chrome,1600,1067,,,,,0,648,,,,,,,,,,,,,,,,,S,181,circle,1,0,,,,,,,,,,,,,,,,switch,letter,lettSwt,f,0.9424,noRew,,,,,,0,34,0,34,0,1,,,,,,,,,,,,,,,,,
293413,2022-09-25_14h51.06.336,vts_reward_expectancy,2022.2.4,Win32,119.8897015,Chrome,1600,1067,,,,,0,648,,,,,,,,,,,,,,,,,B,174,triangle,1,0,,,,,,,,,,,,,,,,switch,number,numSwt,k,0.984,noRew,,,,,,0,35,0,35,0,1,,,,,,,,,,,,,,,,,
293413,2022-09-25_14h51.06.336,vts_reward_expectancy,2022.2.4,Win32,119.8897015,Chrome,1600,1067,,,,,0,648,,,,,,,,,,,,,,,,,S,167,star,1,0,,,,,,,,,,,,,,,,switch,letter,lettSwt,f,2.2433,noRew,,,,,,0,36,0,36,0,1,,,,,,,,,,,,,,,,,
293413,2022-09-25_14h51.06.336,vts_reward_expectancy,2022.2.4,Win32,119.8897015,Chrome,1600,1067,,,,,0,648,,,,,,,,,,,,,,,,,F,160,triangle,1,0,,,,,,,,,,,,,,,,switch,number,numSwt,k,0.8086,noRew,,,,,,0,37,0,37,0,1,,,,,,,,,,,,,,,,,
293413,2022-09-25_14h51.06.336,vts_reward_expectancy,2022.2.4,Win32,119.8897015,Chrome,1600,1067,,,,,0,648,,,,,,,,,,,,,,,,,B,139,hexagon,1,0,,,,,,,,,,,,,,,,switch,letter,lettSwt,d,0.664,noRew,,,,,,0,38,0,38,0,1,,,,,,,,,,,,,,,,,
293413,2022-09-25_14h51.06.336,vts_reward_expectancy,2022.2.4,Win32,119.8897015,Chrome,1600,1067,,,,,0,648,,,,,,,,,,,,,,,,,D,146,triangle,1,0,,,,,,,,,,,,,,,,repeat,letter,lettRpt,d,0.784,noRew,,,,,,0,39,0,39,0,1,,,,,,,,,,,,,,,,,
293413,2022-09-25_14h51.06.336,vts_reward_expectancy,2022.2.4,Win32,119.8897015,Chrome,1600,1067,,,,,0,648,,,,,,,,,,,,,,,,,Y,181,circle,1,0,,,,,,,,,,,,,,,,repeat,letter,lettRpt,f,0.8801,noRew,,,,,,0,40,0,40,0,1,,,,,,,,,,,,,,,,,
293413,2022-09-25_14h51.06.336,vts_reward_expectancy,2022.2.4,Win32,119.8897015,Chrome,1600,1067,,,,,0,648,,,,,,,,,,,,,,,,,W,146,hexagon,1,0,,,,,,,,,,,,,,,,repeat,letter,lettRpt,f,0.5855,noRew,,,,,,0,41,0,41,0,1,,,,,,,,,,,,,,,,,
293413,2022-09-25_14h51.06.336,vts_reward_expectancy,2022.2.4,Win32,119.8897015,Chrome,1600,1067,,,,,0,648,,,,,,,,,,,,,,,,,F,139,star,1,0,,,,,,,,,,,,,,,,switch,number,numSwt,j,0.699,noRew,,,,,,0,42,0,42,0,1,,,,,,,,,,,,,,,,,
293413,2022-09-25_14h51.06.336,vts_reward_expectancy,2022.2.4,Win32,119.8897015,Chrome,1600,1067,,,,,0,648,,,,,,,,,,,,,,,,,U,167,circle,1,0,,,,,,,,,,,,,,,,repeat,number,numRpt,k,1.2555,noRew,,,,,,0,43,0,43,0,1,,,,,,,,,,,,,,,,,
293413,2022-09-25_14h51.06.336,vts_reward_expectancy,2022.2.4,Win32,119.8897015,Chrome,1600,1067,,,,,0,648,,,,,,,,,,,,,,,,,U,174,circle,1,0,,,,,,,,,,,,,,,,repeat,number,numRpt,k,0.7834,noRew,,,,,,0,44,0,44,0,1,,,,,,,,,,,,,,,,,
293413,2022-09-25_14h51.06.336,vts_reward_expectancy,2022.2.4,Win32,119.8897015,Chrome,1600,1067,,,,,0,648,,,,,,,,,,,,,,,,,B,139,star,1,0,,,,,,,,,,,,,,,,switch,letter,lettSwt,d,0.6174,noRew,,,,,,0,45,0,45,0,1,,,,,,,,,,,,,,,,,
293413,2022-09-25_14h51.06.336,vts_reward_expectancy,2022.2.4,Win32,119.8897015,Chrome,1600,1067,,,,,0,648,,,,,,,,,,,,,,,,,F,125,circle,1,0,,,,,,,,,,,,,,,,repeat,letter,lettRpt,d,0.959,noRew,,,,,,0,46,0,46,0,1,,,,,,,,,,,,,,,,,
293413,2022-09-25_14h51.06.336,vts_reward_expectancy,2022.2.4,Win32,119.8897015,Chrome,1600,1067,,,,,0,648,,,,,,,,,,,,,,,,,D,167,star,1,0,,,,,,,,,,,,,,,,repeat,letter,lettRpt,d,0.8926,noRew,,,,,,0,47,0,47,0,1,,,,,,,,,,,,,,,,,
293413,2022-09-25_14h51.06.336,vts_reward_expectancy,2022.2.4,Win32,119.8897015,Chrome,1600,1067,,,,,0,648,,,,,,,,,,,,,,,,,F,146,star,1,0,,,,,,,,,,,,,,,,repeat,letter,lettRpt,d,0.696,noRew,,,,,,0,48,0,48,0,1,,,,,,,,,,,,,,,,,
293413,2022-09-25_14h51.06.336,vts_reward_expectancy,2022.2.4,Win32,119.8897015,Chrome,1600,1067,,,,,0,648,,,,,,,,,,,,,,,,,S,125,triangle,1,0,,,,,,,,,,,,,,,,switch,number,numSwt,j,1.3002,noRew,,,,,,0,49,0,49,0,1,,,,,,,,,,,,,,,,,
293413,2022-09-25_14h51.06.336,vts_reward_expectancy,2022.2.4,Win32,119.8897015,Chrome,1600,1067,,,,,0,648,,,,,,,,,,,,,,,,,W,132,star,1,0,,,,,,,,,,,,,,,,switch,letter,lettSwt,f,0.7756,noRew,,,,,,0,50,0,50,0,1,,,,,,,,,,,,,,,,,
293413,2022-09-25_14h51.06.336,vts_reward_expectancy,2022.2.4,Win32,119.8897015,Chrome,1600,1067,,,,,0,648,,,,,,,,,,,,,,,,,H,167,circle,0,0,,,,,,,,,,,,,,,,repeat,letter,NA,f,0.6919,noRew,,,,,,0,51,0,51,0,1,,,,,,,,,,,,,,,,,
293413,2022-09-25_14h51.06.336,vts_reward_expectancy,2022.2.4,Win32,119.8897015,Chrome,1600,1067,,,,,0,648,,,,,,,,,,,,,,,,,H,125,triangle,1,1,,,,,,,,,,,,,,,,repeat,letter,lettRpt,d,1.1864,noRew,,,,,,0,52,0,52,0,1,,,,,,,,,,,,,,,,,
293413,2022-09-25_14h51.06.336,vts_reward_expectancy,2022.2.4,Win32,119.8897015,Chrome,1600,1067,,,,,0,648,,,,,,,,,,,,,,,,,F,139,hexagon,1,0,,,,,,,,,,,,,,,,repeat,letter,lettRpt,d,1.9508,noRew,,,,,,0,53,0,53,0,1,,,,,,,,,,,,,,,,,
293413,2022-09-25_14h51.06.336,vts_reward_expectancy,2022.2.4,Win32,119.8897015,Chrome,1600,1067,,,,,0,648,,,,,,,,,,,,,,,,,Y,146,star,1,0,,,,,,,,,,,,,,,,switch,number,numSwt,j,2.9196,noRew,,,,,,0,54,0,54,0,1,,,,,,,,,,,,,,,,,
293413,2022-09-25_14h51.06.336,vts_reward_expectancy,2022.2.4,Win32,119.8897015,Chrome,1600,1067,,,,,0,648,,,,,,,,,,,,,,,,,B,174,triangle,1,0,,,,,,,,,,,,,,,,repeat,number,numRpt,k,1.0914,noRew,,,,,,0,55,0,55,0,1,,,,,,,,,,,,,,,,,
293413,2022-09-25_14h51.06.336,vts_reward_expectancy,2022.2.4,Win32,119.8897015,Chrome,1600,1067,,,,,0,648,,,,,,,,,,,,,,,,,S,125,circle,1,0,,,,,,,,,,,,,,,,repeat,number,numRpt,j,0.7841,noRew,,,,,,0,56,0,56,0,1,,,,,,,,,,,,,,,,,
293413,2022-09-25_14h51.06.336,vts_reward_expectancy,2022.2.4,Win32,119.8897015,Chrome,1600,1067,,,,,0,648,,,,,,,,,,,,,,,,,F,174,hexagon,1,0,,,,,,,,,,,,,,,,repeat,number,numRpt,k,0.8587,noRew,,,,,,0,57,0,57,0,1,,,,,,,,,,,,,,,,,
293413,2022-09-25_14h51.06.336,vts_reward_expectancy,2022.2.4,Win32,119.8897015,Chrome,1600,1067,,,,,0,648,,,,,,,,,,,,,,,,,H,132,circle,1,0,,,,,,,,,,,,,,,,switch,letter,lettSwt,d,0.9299,noRew,,,,,,0,58,0,58,0,1,,,,,,,,,,,,,,,,,
293413,2022-09-25_14h51.06.336,vts_reward_expectancy,2022.2.4,Win32,119.8897015,Chrome,1600,1067,,,,,0,648,,,,,,,,,,,,,,,,,D,181,star,1,0,,,,,,,,,,,,,,,,switch,number,numSwt,k,0.8003,noRew,,,,,,0,59,0,59,0,1,,,,,,,,,,,,,,,,,
293413,2022-09-25_14h51.06.336,vts_reward_expectancy,2022.2.4,Win32,119.8897015,Chrome,1600,1067,,,,,0,648,,,,,,,,,,,,,,,,,W,160,circle,-1,0,,,,,,,,,,,,,,,,switch,no_choice,NA,,,noRew,,,,,,0,60,0,60,0,1,,,,,,,,,,,,,,,,,
293413,2022-09-25_14h51.06.336,vts_reward_expectancy,2022.2.4,Win32,119.8897015,Chrome,1600,1067,,,,,0,648,,,,,,,,,,,,,,,,,S,132,hexagon,1,0,,,,,,,,,,,,,,,,switch,letter,lettSwt,f,1.3099,noRew,,,,,,0,61,0,61,0,1,,,,,,,,,,,,,,,,,
293413,2022-09-25_14h51.06.336,vts_reward_expectancy,2022.2.4,Win32,119.8897015,Chrome,1600,1067,,,,,0,648,,,,,,,,,,,,,,,,,B,181,hexagon,1,0,,,,,,,,,,,,,,,,repeat,letter,lettRpt,d,1.8509,noRew,,,,,,0,62,0,62,0,1,,,,,,,,,,,,,,,,,
293413,2022-09-25_14h51.06.336,vts_reward_expectancy,2022.2.4,Win32,119.8897015,Chrome,1600,1067,,,,,0,648,,,,,,,,,,,,,,,,,H,146,star,0,0,,,,,,,,,,,,,,,,switch,number,NA,k,1.287,noRew,,,,,,0,63,0,63,0,1,,,,,,,,,,,,,,,,,
293413,2022-09-25_14h51.06.336,vts_reward_expectancy,2022.2.4,Win32,119.8897015,Chrome,1600,1067,,,,,,,,,,,,,,,,,,,,,,,,,,,,,,,,,,,,,,,,,,,,,,,,,,,,,,,,,,,,,,,,,,,,,,,,,,,,
293413,2022-09-25_14h51.06.336,vts_reward_expectancy,2022.2.4,Win32,119.8897015,Chrome,1600,1067,,,,,0,648,,,,,,,,,,,,,,,,,B,146,triangle,0,1,,,,,,,,,,,,,,,,repeat,number,NA,k,0.9918,noRew,,,,,,0,,,,,,space,4.4306,low,0,0,0,0,1,,,,,,,,,
293413,2022-09-25_14h51.06.336,vts_reward_expectancy,2022.2.4,Win32,119.8897015,Chrome,1600,1067,,,,,10,658,,,,,,,,,,,,,,,,,U,132,star,1,1,,,,,,,,,,,,,,,,switch,letter,lettSwt,f,0.7175,Lo,,,,,,0,,,,,,,,low,1,0,1,0,1,,,,,,,,,
293413,2022-09-25_14h51.06.336,vts_reward_expectancy,2022.2.4,Win32,119.8897015,Chrome,1600,1067,,,,,10,668,,,,,,,,,,,,,,,,,H,174,triangle,1,0,,,,,,,,,,,,,,,,switch,number,numSwt,k,0.7626,Hi,,,,,,0,,,,,,,,low,2,0,2,0,1,,,,,,,,,
293413,2022-09-25_14h51.06.336,vts_reward_expectancy,2022.2.4,Win32,119.8897015,Chrome,1600,1067,,,,,1,669,,,,,,,,,,,,,,,,,S,160,star,1,0,,,,,,,,,,,,,,,,repeat,number,numRpt,k,0.8531,Lo,,,,,,0,,,,,,,,low,3,0,3,0,1,,,,,,,,,
293413,2022-09-25_14h51.06.336,vts_reward_expectancy,2022.2.4,Win32,119.8897015,Chrome,1600,1067,,,,,0,669,,,,,,,,,,,,,,,,,D,125,triangle,1,0,,,,,,,,,,,,,,,,switch,letter,lettSwt,d,1.0782,Hi,,,,,,0,,,,,,,,low,4,0,4,0,1,,,,,,,,,
293413,2022-09-25_14h51.06.336,vts_reward_expectancy,2022.2.4,Win32,119.8897015,Chrome,1600,1067,,,,,1,670,,,,,,,,,,,,,,,,,Y,181,star,1,0,,,,,,,,,,,,,,,,switch,number,numSwt,k,0.7381,Lo,,,,,,0,,,,,,,,low,5,0,5,0,1,,,,,,,,,
293413,2022-09-25_14h51.06.336,vts_reward_expectancy,2022.2.4,Win32,119.8897015,Chrome,1600,1067,,,,,0,670,,,,,,,,,,,,,,,,,F,139,triangle,1,0,,,,,,,,,,,,,,,,repeat,number,numRpt,j,1.1214,Hi,,,,,,0,,,,,,,,low,6,0,6,0,1,,,,,,,,,
293413,2022-09-25_14h51.06.336,vts_reward_expectancy,2022.2.4,Win32,119.8897015,Chrome,1600,1067,,,,,10,680,,,,,,,,,,,,,,,,,W,167,star,1,0,,,,,,,,,,,,,,,,switch,letter,lettSwt,f,0.5603,Lo,,,,,,0,,,,,,,,low,7,0,7,0,1,,,,,,,,,
293413,2022-09-25_14h51.06.336,vts_reward_expectancy,2022.2.4,Win32,119.8897015,Chrome,1600,1067,,,,,0,680,,,,,,,,,,,,,,,,,B,146,triangle,0,0,,,,,,,,,,,,,,,,switch,number,NA,k,0.6837,Lo,,,,,,0,,,,,,,,low,8,0,8,0,1,,,,,,,,,
293413,2022-09-25_14h51.06.336,vts_reward_expectancy,2022.2.4,Win32,119.8897015,Chrome,1600,1067,,,,,1,681,,,,,,,,,,,,,,,,,U,132,star,1,1,,,,,,,,,,,,,,,,switch,letter,lettSwt,f,0.6845,Lo,,,,,,0,,,,,,,,low,9,0,9,0,1,,,,,,,,,
293413,2022-09-25_14h51.06.336,vts_reward_expectancy,2022.2.4,Win32,119.8897015,Chrome,1600,1067,,,,,10,691,,,,,,,,,,,,,,,,,H,174,triangle,1,0,,,,,,,,,,,,,,,,switch,number,numSwt,k,0.5524,Hi,,,,,,0,,,,,,,,low,10,0,10,0,1,,,,,,,,,
293413,2022-09-25_14h51.06.336,vts_reward_expectancy,2022.2.4,Win32,119.8897015,Chrome,1600,1067,,,,,1,692,,,,,,,,,,,,,,,,,S,160,star,1,0,,,,,,,,,,,,,,,,repeat,number,numRpt,k,0.5839,Lo,,,,,,0,,,,,,,,low,11,0,11,0,1,,,,,,,,,
293413,2022-09-25_14h51.06.336,vts_reward_expectancy,2022.2.4,Win32,119.8897015,Chrome,1600,1067,,,,,0,692,,,,,,,,,,,,,,,,,D,125,triangle,1,0,,,,,,,,,,,,,,,,switch,letter,lettSwt,d,0.8095,Hi,,,,,,0,,,,,,,,low,12,0,12,0,1,,,,,,,,,
293413,2022-09-25_14h51.06.336,vts_reward_expectancy,2022.2.4,Win32,119.8897015,Chrome,1600,1067,,,,,0,692,,,,,,,,,,,,,,,,,Y,181,star,0,0,,,,,,,,,,,,,,,,repeat,letter,NA,d,0.3424,Hi,,,,,,0,,,,,,,,low,13,0,13,0,1,,,,,,,,,
293413,2022-09-25_14h51.06.336,vts_reward_expectancy,2022.2.4,Win32,119.8897015,Chrome,1600,1067,,,,,0,692,,,,,,,,,,,,,,,,,F,139,star,0,1,,,,,,,,,,,,,,,,repeat,letter,NA,f,0.9091,Hi,,,,,,0,,,,,,,,low,14,0,14,0,1,,,,,,,,,
293413,2022-09-25_14h51.06.336,vts_reward_expectancy,2022.2.4,Win32,119.8897015,Chrome,1600,1067,,,,,0,692,,,,,,,,,,,,,,,,,W,167,triangle,1,1,,,,,,,,,,,,,,,,switch,number,numSwt,k,1.0603,Hi,,,,,,0,,,,,,,,low,15,0,15,0,1,,,,,,,,,
293413,2022-09-25_14h51.06.336,vts_reward_expectancy,2022.2.4,Win32,119.8897015,Chrome,1600,1067,,,,,0,692,,,,,,,,,,,,,,,,,H,181,triangle,1,0,,,,,,,,,,,,,,,,repeat,number,numRpt,k,1.0259,Hi,,,,,,0,,,,,,,,low,16,0,16,0,1,,,,,,,,,
293413,2022-09-25_14h51.06.336,vts_reward_expectancy,2022.2.4,Win32,119.8897015,Chrome,1600,1067,,,,,1,693,,,,,,,,,,,,,,,,,Y,146,star,1,0,,,,,,,,,,,,,,,,switch,letter,lettSwt,f,0.8994,Lo,,,,,,0,,,,,,,,low,17,0,17,0,1,,,,,,,,,
293413,2022-09-25_14h51.06.336,vts_reward_expectancy,2022.2.4,Win32,119.8897015,Chrome,1600,1067,,,,,10,703,,,,,,,,,,,,,,,,,W,125,star,1,0,,,,,,,,,,,,,,,,switch,number,numSwt,j,1.4521,Lo,,,,,,0,,,,,,,,low,18,0,18,0,1,,,,,,,,,
293413,2022-09-25_14h51.06.336,vts_reward_expectancy,2022.2.4,Win32,119.8897015,Chrome,1600,1067,,,,,10,713,,,,,,,,,,,,,,,,,U,139,triangle,1,0,,,,,,,,,,,,,,,,repeat,number,numRpt,j,0.7679,Hi,,,,,,0,,,,,,,,low,19,0,19,0,1,,,,,,,,,
293413,2022-09-25_14h51.06.336,vts_reward_expectancy,2022.2.4,Win32,119.8897015,Chrome,1600,1067,,,,,0,713,,,,,,,,,,,,,,,,,F,132,star,0,0,,,,,,,,,,,,,,,,repeat,number,NA,k,1.4676,Hi,,,,,,0,,,,,,,,low,20,0,20,0,1,,,,,,,,,
293413,2022-09-25_14h51.06.336,vts_reward_expectancy,2022.2.4,Win32,119.8897015,Chrome,1600,1067,,,,,0,713,,,,,,,,,,,,,,,,,S,160,triangle,1,1,,,,,,,,,,,,,,,,switch,letter,lettSwt,f,1.0337,Hi,,,,,,0,,,,,,,,low,21,0,21,0,1,,,,,,,,,
293413,2022-09-25_14h51.06.336,vts_reward_expectancy,2022.2.4,Win32,119.8897015,Chrome,1600,1067,,,,,1,714,,,,,,,,,,,,,,,,,D,174,star,1,0,,,,,,,,,,,,,,,,switch,number,numSwt,k,1.0942,Lo,,,,,,0,,,,,,,,low,22,0,22,0,1,,,,,,,,,
293413,2022-09-25_14h51.06.336,vts_reward_expectancy,2022.2.4,Win32,119.8897015,Chrome,1600,1067,,,,,0,714,,,,,,,,,,,,,,,,,B,167,triangle,0,0,,,,,,,,,,,,,,,,repeat,number,NA,j,1.1177,Lo,,,,,,0,,,,,,,,low,23,0,23,0,1,,,,,,,,,
293413,2022-09-25_14h51.06.336,vts_reward_expectancy,2022.2.4,Win32,119.8897015,Chrome,1600,1067,,,,,1,715,,,,,,,,,,,,,,,,,Y,125,triangle,1,1,,,,,,,,,,,,,,,,switch,letter,lettSwt,f,0.74,Hi,,,,,,0,,,,,,,,low,24,0,24,0,1,,,,,,,,,
293413,2022-09-25_14h51.06.336,vts_reward_expectancy,2022.2.4,Win32,119.8897015,Chrome,1600,1067,,,,,1,716,,,,,,,,,,,,,,,,,S,139,star,1,0,,,,,,,,,,,,,,,,repeat,letter,lettRpt,f,0.9227,Lo,,,,,,0,,,,,,,,low,25,0,25,0,1,,,,,,,,,
293413,2022-09-25_14h51.06.336,vts_reward_expectancy,2022.2.4,Win32,119.8897015,Chrome,1600,1067,,,,,0,716,,,,,,,,,,,,,,,,,D,160,triangle,1,0,,,,,,,,,,,,,,,,repeat,letter,lettRpt,d,0.9033,Hi,,,,,,0,,,,,,,,low,26,0,26,0,1,,,,,,,,,
293413,2022-09-25_14h51.06.336,vts_reward_expectancy,2022.2.4,Win32,119.8897015,Chrome,1600,1067,,,,,1,717,,,,,,,,,,,,,,,,,W,167,star,1,0,,,,,,,,,,,,,,,,repeat,letter,lettRpt,f,0.6331,Lo,,,,,,0,,,,,,,,low,27,0,27,0,1,,,,,,,,,
293413,2022-09-25_14h51.06.336,vts_reward_expectancy,2022.2.4,Win32,119.8897015,Chrome,1600,1067,,,,,0,717,,,,,,,,,,,,,,,,,U,132,star,0,0,,,,,,,,,,,,,,,,repeat,letter,NA,d,1.0812,Lo,,,,,,0,,,,,,,,low,28,0,28,0,1,,,,,,,,,
293413,2022-09-25_14h51.06.336,vts_reward_expectancy,2022.2.4,Win32,119.8897015,Chrome,1600,1067,,,,,0,717,,,,,,,,,,,,,,,,,H,181,triangle,1,1,,,,,,,,,,,,,,,,repeat,letter,lettRpt,d,0.9387,Hi,,,,,,0,,,,,,,,low,29,0,29,0,1,,,,,,,,,
293413,2022-09-25_14h51.06.336,vts_reward_expectancy,2022.2.4,Win32,119.8897015,Chrome,1600,1067,,,,,0,717,,,,,,,,,,,,,,,,,B,146,triangle,1,0,,,,,,,,,,,,,,,,repeat,letter,lettRpt,d,1.2224,Hi,,,,,,0,,,,,,,,low,30,0,30,0,1,,,,,,,,,
293413,2022-09-25_14h51.06.336,vts_reward_expectancy,2022.2.4,Win32,119.8897015,Chrome,1600,1067,,,,,10,727,,,,,,,,,,,,,,,,,F,174,star,1,0,,,,,,,,,,,,,,,,switch,number,numSwt,k,0.714,Lo,,,,,,0,,,,,,,,low,31,0,31,0,1,,,,,,,,,
293413,2022-09-25_14h51.06.336,vts_reward_expectancy,2022.2.4,Win32,119.8897015,Chrome,1600,1067,,,,,0,727,,,,,,,,,,,,,,,,,U,139,hexagon,0,0,,,,,,,,,,,,,,,,repeat,number,NA,k,1.7758,Lo,,,,,,1,,,,,,space,12.0585,high,0,0,0,0,1,,,,,,,,,
293413,2022-09-25_14h51.06.336,vts_reward_expectancy,2022.2.4,Win32,119.8897015,Chrome,1600,1067,,,,,10,737,,,,,,,,,,,,,,,,,Y,174,circle,1,1,,,,,,,,,,,,,,,,switch,letter,lettSwt,f,0.6092,Hi,,,,,,1,,,,,,,,high,1,0,1,0,1,,,,,,,,,
293413,2022-09-25_14h51.06.336,vts_reward_expectancy,2022.2.4,Win32,119.8897015,Chrome,1600,1067,,,,,1,738,,,,,,,,,,,,,,,,,W,132,hexagon,1,0,,,,,,,,,,,,,,,,repeat,letter,lettRpt,f,0.7265,Lo,,,,,,1,,,,,,,,high,2,0,2,0,1,,,,,,,,,
293413,2022-09-25_14h51.06.336,vts_reward_expectancy,2022.2.4,Win32,119.8897015,Chrome,1600,1067,,,,,10,748,,,,,,,,,,,,,,,,,B,167,circle,1,0,,,,,,,,,,,,,,,,repeat,letter,lettRpt,d,0.6367,Hi,,,,,,1,,,,,,,,high,3,0,3,0,1,,,,,,,,,
293413,2022-09-25_14h51.06.336,vts_reward_expectancy,2022.2.4,Win32,119.8897015,Chrome,1600,1067,,,,,1,749,,,,,,,,,,,,,,,,,H,181,hexagon,1,0,,,,,,,,,,,,,,,,switch,number,numSwt,k,1.0175,Lo,,,,,,1,,,,,,,,high,4,0,4,0,1,,,,,,,,,
293413,2022-09-25_14h51.06.336,vts_reward_expectancy,2022.2.4,Win32,119.8897015,Chrome,1600,1067,,,,,10,759,,,,,,,,,,,,,,,,,F,146,circle,1,0,,,,,,,,,,,,,,,,switch,letter,lettSwt,d,0.4925,Hi,,,,,,1,,,,,,,,high,5,0,5,0,1,,,,,,,,,
293413,2022-09-25_14h51.06.336,vts_reward_expectancy,2022.2.4,Win32,119.8897015,Chrome,1600,1067,,,,,1,760,,,,,,,,,,,,,,,,,D,160,hexagon,1,0,,,,,,,,,,,,,,,,repeat,letter,lettRpt,d,0.5888,Lo,,,,,,1,,,,,,,,high,6,0,6,0,1,,,,,,,,,
293413,2022-09-25_14h51.06.336,vts_reward_expectancy,2022.2.4,Win32,119.8897015,Chrome,1600,1067,,,,,1,761,,,,,,,,,,,,,,,,,S,125,circle,1,0,,,,,,,,,,,,,,,,repeat,letter,lettRpt,f,0.8347,Hi,,,,,,1,,,,,,,,high,7,0,7,0,1,,,,,,,,,
293413,2022-09-25_14h51.06.336,vts_reward_expectancy,2022.2.4,Win32,119.8897015,Chrome,1600,1067,,,,,10,771,,,,,,,,,,,,,,,,,U,139,circle,1,0,,,,,,,,,,,,,,,,repeat,letter,lettRpt,f,0.6114,Hi,,,,,,1,,,,,,,,high,8,0,8,0,1,,,,,,,,,
293413,2022-09-25_14h51.06.336,vts_reward_expectancy,2022.2.4,Win32,119.8897015,Chrome,1600,1067,,,,,1,772,,,,,,,,,,,,,,,,,Y,174,hexagon,1,0,,,,,,,,,,,,,,,,switch,number,numSwt,k,0.5005,Lo,,,,,,1,,,,,,,,high,9,0,9,0,1,,,,,,,,,
293413,2022-09-25_14h51.06.336,vts_reward_expectancy,2022.2.4,Win32,119.8897015,Chrome,1600,1067,,,,,0,772,,,,,,,,,,,,,,,,,W,132,circle,1,0,,,,,,,,,,,,,,,,repeat,number,numRpt,j,0.8925,Hi,,,,,,1,,,,,,,,high,10,0,10,0,1,,,,,,,,,
293413,2022-09-25_14h51.06.336,vts_reward_expectancy,2022.2.4,Win32,119.8897015,Chrome,1600,1067,,,,,1,773,,,,,,,,,,,,,,,,,B,167,hexagon,1,0,,,,,,,,,,,,,,,,switch,letter,lettSwt,d,0.792,Lo,,,,,,1,,,,,,,,high,11,0,11,0,1,,,,,,,,,
293413,2022-09-25_14h51.06.336,vts_reward_expectancy,2022.2.4,Win32,119.8897015,Chrome,1600,1067,,,,,1,774,,,,,,,,,,,,,,,,,H,181,hexagon,1,0,,,,,,,,,,,,,,,,repeat,letter,lettRpt,d,1.1428,Lo,,,,,,1,,,,,,,,high,12,0,12,0,1,,,,,,,,,
293413,2022-09-25_14h51.06.336,vts_reward_expectancy,2022.2.4,Win32,119.8897015,Chrome,1600,1067,,,,,1,775,,,,,,,,,,,,,,,,,F,146,circle,1,0,,,,,,,,,,,,,,,,repeat,letter,lettRpt,d,0.8694,Hi,,,,,,1,,,,,,,,high,13,0,13,0,1,,,,,,,,,
293413,2022-09-25_14h51.06.336,vts_reward_expectancy,2022.2.4,Win32,119.8897015,Chrome,1600,1067,,,,,1,776,,,,,,,,,,,,,,,,,D,160,circle,1,0,,,,,,,,,,,,,,,,repeat,letter,lettRpt,d,0.8254,Hi,,,,,,1,,,,,,,,high,14,0,14,0,1,,,,,,,,,
293413,2022-09-25_14h51.06.336,vts_reward_expectancy,2022.2.4,Win32,119.8897015,Chrome,1600,1067,,,,,1,777,,,,,,,,,,,,,,,,,S,125,hexagon,1,0,,,,,,,,,,,,,,,,repeat,letter,lettRpt,f,0.676,Lo,,,,,,1,,,,,,,,high,15,0,15,0,1,,,,,,,,,
293413,2022-09-25_14h51.06.336,vts_reward_expectancy,2022.2.4,Win32,119.8897015,Chrome,1600,1067,,,,,0,777,,,,,,,,,,,,,,,,,Y,160,circle,1,0,,,,,,,,,,,,,,,,switch,number,numSwt,k,0.7661,Hi,,,,,,1,,,,,,,,high,16,0,16,0,1,,,,,,,,,
293413,2022-09-25_14h51.06.336,vts_reward_expectancy,2022.2.4,Win32,119.8897015,Chrome,1600,1067,,,,,10,787,,,,,,,,,,,,,,,,,F,139,hexagon,1,0,,,,,,,,,,,,,,,,repeat,number,numRpt,j,0.6002,Lo,,,,,,1,,,,,,,,high,17,0,17,0,1,,,,,,,,,
293413,2022-09-25_14h51.06.336,vts_reward_expectancy,2022.2.4,Win32,119.8897015,Chrome,1600,1067,,,,,0,787,,,,,,,,,,,,,,,,,D,146,hexagon,0,0,,,,,,,,,,,,,,,,repeat,number,NA,k,0.6191,Lo,,,,,,1,,,,,,,,high,18,0,18,0,1,,,,,,,,,
293413,2022-09-25_14h51.06.336,vts_reward_expectancy,2022.2.4,Win32,119.8897015,Chrome,1600,1067,,,,,10,797,,,,,,,,,,,,,,,,,W,181,circle,1,1,,,,,,,,,,,,,,,,repeat,number,numRpt,k,0.4926,Hi,,,,,,1,,,,,,,,high,19,0,19,0,1,,,,,,,,,
293413,2022-09-25_14h51.06.336,vts_reward_expectancy,2022.2.4,Win32,119.8897015,Chrome,1600,1067,,,,,1,798,,,,,,,,,,,,,,,,,B,125,hexagon,1,0,,,,,,,,,,,,,,,,switch,letter,lettSwt,d,0.7197,Lo,,,,,,1,,,,,,,,high,20,0,20,0,1,,,,,,,,,
293413,2022-09-25_14h51.06.336,vts_reward_expectancy,2022.2.4,Win32,119.8897015,Chrome,1600,1067,,,,,10,808,,,,,,,,,,,,,,,,,S,167,circle,1,0,,,,,,,,,,,,,,,,switch,number,numSwt,k,0.6429,Hi,,,,,,1,,,,,,,,high,21,0,21,0,1,,,,,,,,,
293413,2022-09-25_14h51.06.336,vts_reward_expectancy,2022.2.4,Win32,119.8897015,Chrome,1600,1067,,,,,10,818,,,,,,,,,,,,,,,,,H,174,hexagon,1,0,,,,,,,,,,,,,,,,repeat,number,numRpt,k,0.5918,Lo,,,,,,1,,,,,,,,high,22,0,22,0,1,,,,,,,,,
293413,2022-09-25_14h51.06.336,vts_reward_expectancy,2022.2.4,Win32,119.8897015,Chrome,1600,1067,,,,,10,828,,,,,,,,,,,,,,,,,U,132,circle,1,0,,,,,,,,,,,,,,,,repeat,number,numRpt,j,0.6156,Hi,,,,,,1,,,,,,,,high,23,0,23,0,1,,,,,,,,,
293413,2022-09-25_14h51.06.336,vts_reward_expectancy,2022.2.4,Win32,119.8897015,Chrome,1600,1067,,,,,0,828,,,,,,,,,,,,,,,,,S,125,circle,0,0,,,,,,,,,,,,,,,,repeat,number,NA,k,0.7177,Hi,,,,,,1,,,,,,,,high,24,0,24,0,1,,,,,,,,,
293413,2022-09-25_14h51.06.336,vts_reward_expectancy,2022.2.4,Win32,119.8897015,Chrome,1600,1067,,,,,1,829,,,,,,,,,,,,,,,,,B,146,hexagon,1,1,,,,,,,,,,,,,,,,repeat,number,numRpt,j,0.96,Lo,,,,,,1,,,,,,,,high,25,0,25,0,1,,,,,,,,,
293413,2022-09-25_14h51.06.336,vts_reward_expectancy,2022.2.4,Win32,119.8897015,Chrome,1600,1067,,,,,0,829,,,,,,,,,,,,,,,,,F,181,circle,1,0,,,,,,,,,,,,,,,,repeat,number,numRpt,k,1.4257,Hi,,,,,,1,,,,,,,,high,26,0,26,0,1,,,,,,,,,
293413,2022-09-25_14h51.06.336,vts_reward_expectancy,2022.2.4,Win32,119.8897015,Chrome,1600,1067,,,,,1,830,,,,,,,,,,,,,,,,,Y,174,hexagon,1,0,,,,,,,,,,,,,,,,repeat,number,numRpt,k,0.8994,Lo,,,,,,1,,,,,,,,high,27,0,27,0,1,,,,,,,,,
293413,2022-09-25_14h51.06.336,vts_reward_expectancy,2022.2.4,Win32,119.8897015,Chrome,1600,1067,,,,,0,830,,,,,,,,,,,,,,,,,D,160,circle,1,0,,,,,,,,,,,,,,,,repeat,number,numRpt,k,0.8229,Hi,,,,,,1,,,,,,,,high,28,0,28,0,1,,,,,,,,,
293413,2022-09-25_14h51.06.336,vts_reward_expectancy,2022.2.4,Win32,119.8897015,Chrome,1600,1067,,,,,1,831,,,,,,,,,,,,,,,,,W,132,hexagon,1,0,,,,,,,,,,,,,,,,switch,letter,lettSwt,f,0.7163,Lo,,,,,,1,,,,,,,,high,29,0,29,0,1,,,,,,,,,
293413,2022-09-25_14h51.06.336,vts_reward_expectancy,2022.2.4,Win32,119.8897015,Chrome,1600,1067,,,,,0,831,,,,,,,,,,,,,,,,,H,139,circle,1,0,,,,,,,,,,,,,,,,repeat,letter,lettRpt,d,0.9836,Hi,,,,,,1,,,,,,,,high,30,0,30,0,1,,,,,,,,,
293413,2022-09-25_14h51.06.336,vts_reward_expectancy,2022.2.4,Win32,119.8897015,Chrome,1600,1067,,,,,1,832,,,,,,,,,,,,,,,,,U,167,hexagon,1,0,,,,,,,,,,,,,,,,repeat,letter,lettRpt,f,0.7673,Lo,,,,,,1,,,,,,,,high,31,0,31,0,1,,,,,,,,,
293413,2022-09-25_14h51.06.336,vts_reward_expectancy,2022.2.4,Win32,119.8897015,Chrome,1600,1067,,,,,10,842,,,,,,,,,,,,,,,,,B,132,circle,1,0,,,,,,,,,,,,,,,,repeat,letter,lettRpt,d,0.4076,Hi,,,,,,2,,,,,,space,5.6157,high,0,0,0,0,1,,,,,,,,,
293413,2022-09-25_14h51.06.336,vts_reward_expectancy,2022.2.4,Win32,119.8897015,Chrome,1600,1067,,,,,1,843,,,,,,,,,,,,,,,,,S,174,hexagon,1,0,,,,,,,,,,,,,,,,repeat,letter,lettRpt,f,0.5442,Lo,,,,,,2,,,,,,,,high,1,0,1,0,1,,,,,,,,,
293413,2022-09-25_14h51.06.336,vts_reward_expectancy,2022.2.4,Win32,119.8897015,Chrome,1600,1067,,,,,0,843,,,,,,,,,,,,,,,,,D,181,circle,1,0,,,,,,,,,,,,,,,,repeat,letter,lettRpt,d,0.7817,Hi,,,,,,2,,,,,,,,high,2,0,2,0,1,,,,,,,,,
293413,2022-09-25_14h51.06.336,vts_reward_expectancy,2022.2.4,Win32,119.8897015,Chrome,1600,1067,,,,,1,844,,,,,,,,,,,,,,,,,H,167,hexagon,1,0,,,,,,,,,,,,,,,,repeat,letter,lettRpt,d,0.7007,Lo,,,,,,2,,,,,,,,high,3,0,3,0,1,,,,,,,,,
293413,2022-09-25_14h51.06.336,vts_reward_expectancy,2022.2.4,Win32,119.8897015,Chrome,1600,1067,,,,,0,844,,,,,,,,,,,,,,,,,Y,146,hexagon,0,0,,,,,,,,,,,,,,,,switch,number,NA,k,0.5014,Lo,,,,,,2,,,,,,,,high,4,0,4,0,1,,,,,,,,,
293413,2022-09-25_14h51.06.336,vts_reward_expectancy,2022.2.4,Win32,119.8897015,Chrome,1600,1067,,,,,10,854,,,,,,,,,,,,,,,,,W,125,circle,1,1,,,,,,,,,,,,,,,,switch,letter,lettSwt,f,0.6009,Hi,,,,,,2,,,,,,,,high,5,0,5,0,1,,,,,,,,,
293413,2022-09-25_14h51.06.336,vts_reward_expectancy,2022.2.4,Win32,119.8897015,Chrome,1600,1067,,,,,10,864,,,,,,,,,,,,,,,,,U,139,circle,1,0,,,,,,,,,,,,,,,,repeat,letter,lettRpt,f,0.6003,Hi,,,,,,2,,,,,,,,high,6,0,6,0,1,,,,,,,,,
293413,2022-09-25_14h51.06.336,vts_reward_expectancy,2022.2.4,Win32,119.8897015,Chrome,1600,1067,,,,,1,865,,,,,,,,,,,,,,,,,F,160,hexagon,1,0,,,,,,,,,,,,,,,,repeat,letter,lettRpt,d,0.726,Lo,,,,,,2,,,,,,,,high,7,0,7,0,1,,,,,,,,,
293413,2022-09-25_14h51.06.336,vts_reward_expectancy,2022.2.4,Win32,119.8897015,Chrome,1600,1067,,,,,1,866,,,,,,,,,,,,,,,,,B,132,hexagon,1,0,,,,,,,,,,,,,,,,switch,number,numSwt,j,0.7437,Lo,,,,,,2,,,,,,,,high,8,0,8,0,1,,,,,,,,,
293413,2022-09-25_14h51.06.336,vts_reward_expectancy,2022.2.4,Win32,119.8897015,Chrome,1600,1067,,,,,1,867,,,,,,,,,,,,,,,,,S,174,circle,1,0,,,,,,,,,,,,,,,,repeat,number,numRpt,k,0.0193,Hi,,,,,,2,,,,,,,,high,9,0,9,0,1,,,,,,,,,
293413,2022-09-25_14h51.06.336,vts_reward_expectancy,2022.2.4,Win32,119.8897015,Chrome,1600,1067,,,,,1,868,,,,,,,,,,,,,,,,,D,181,hexagon,1,0,,,,,,,,,,,,,,,,switch,letter,lettSwt,d,0.3181,Lo,,,,,,2,,,,,,,,high,10,0,10,0,1,,,,,,,,,
293413,2022-09-25_14h51.06.336,vts_reward_expectancy,2022.2.4,Win32,119.8897015,Chrome,1600,1067,,,,,10,878,,,,,,,,,,,,,,,,,H,167,circle,1,0,,,,,,,,,,,,,,,,repeat,letter,lettRpt,d,0.6755,Hi,,,,,,2,,,,,,,,high,11,0,11,0,1,,,,,,,,,
293413,2022-09-25_14h51.06.336,vts_reward_expectancy,2022.2.4,Win32,119.8897015,Chrome,1600,1067,,,,,10,888,,,,,,,,,,,,,,,,,Y,146,circle,1,0,,,,,,,,,,,,,,,,switch,number,numSwt,j,0.566,Hi,,,,,,2,,,,,,,,high,12,0,12,0,1,,,,,,,,,
293413,2022-09-25_14h51.06.336,vts_reward_expectancy,2022.2.4,Win32,119.8897015,Chrome,1600,1067,,,,,1,889,,,,,,,,,,,,,,,,,W,125,hexagon,1,0,,,,,,,,,,,,,,,,repeat,number,numRpt,j,0.8927,Lo,,,,,,2,,,,,,,,high,13,0,13,0,1,,,,,,,,,
293413,2022-09-25_14h51.06.336,vts_reward_expectancy,2022.2.4,Win32,119.8897015,Chrome,1600,1067,,,,,1,890,,,,,,,,,,,,,,,,,U,139,hexagon,1,0,,,,,,,,,,,,,,,,switch,letter,lettSwt,f,0.8246,Lo,,,,,,2,,,,,,,,high,14,0,14,0,1,,,,,,,,,
293413,2022-09-25_14h51.06.336,vts_reward_expectancy,2022.2.4,Win32,119.8897015,Chrome,1600,1067,,,,,0,890,,,,,,,,,,,,,,,,,F,160,circle,1,0,,,,,,,,,,,,,,,,repeat,letter,lettRpt,d,0.6962,Hi,,,,,,2,,,,,,,,high,15,0,15,0,1,,,,,,,,,
293413,2022-09-25_14h51.06.336,vts_reward_expectancy,2022.2.4,Win32,119.8897015,Chrome,1600,1067,,,,,10,900,,,,,,,,,,,,,,,,,S,181,circle,1,0,,,,,,,,,,,,,,,,repeat,letter,lettRpt,f,0.6631,Hi,,,,,,2,,,,,,,,high,16,0,16,0,1,,,,,,,,,
293413,2022-09-25_14h51.06.336,vts_reward_expectancy,2022.2.4,Win32,119.8897015,Chrome,1600,1067,,,,,1,901,,,,,,,,,,,,,,,,,F,139,hexagon,1,0,,,,,,,,,,,,,,,,repeat,letter,lettRpt,d,0.6756,Lo,,,,,,2,,,,,,,,high,17,0,17,0,1,,,,,,,,,
293413,2022-09-25_14h51.06.336,vts_reward_expectancy,2022.2.4,Win32,119.8897015,Chrome,1600,1067,,,,,10,911,,,,,,,,,,,,,,,,,B,167,circle,1,0,,,,,,,,,,,,,,,,repeat,letter,lettRpt,d,0.5525,Hi,,,,,,2,,,,,,,,high,18,0,18,0,1,,,,,,,,,
293413,2022-09-25_14h51.06.336,vts_reward_expectancy,2022.2.4,Win32,119.8897015,Chrome,1600,1067,,,,,1,912,,,,,,,,,,,,,,,,,W,132,hexagon,1,0,,,,,,,,,,,,,,,,repeat,letter,lettRpt,f,0.5593,Lo,,,,,,2,,,,,,,,high,19,0,19,0,1,,,,,,,,,
293413,2022-09-25_14h51.06.336,vts_reward_expectancy,2022.2.4,Win32,119.8897015,Chrome,1600,1067,,,,,0,912,,,,,,,,,,,,,,,,,Y,174,circle,1,0,,,,,,,,,,,,,,,,repeat,letter,lettRpt,f,0.8925,Hi,,,,,,2,,,,,,,,high,20,0,20,0,1,,,,,,,,,
293413,2022-09-25_14h51.06.336,vts_reward_expectancy,2022.2.4,Win32,119.8897015,Chrome,1600,1067,,,,,1,913,,,,,,,,,,,,,,,,,H,125,hexagon,1,0,,,,,,,,,,,,,,,,switch,number,numSwt,j,1.2174,Lo,,,,,,2,,,,,,,,high,21,0,21,0,1,,,,,,,,,
293413,2022-09-25_14h51.06.336,vts_reward_expectancy,2022.2.4,Win32,119.8897015,Chrome,1600,1067,,,,,0,913,,,,,,,,,,,,,,,,,U,160,circle,1,0,,,,,,,,,,,,,,,,switch,letter,lettSwt,f,1.0676,Hi,,,,,,2,,,,,,,,high,22,0,22,0,1,,,,,,,,,
293413,2022-09-25_14h51.06.336,vts_reward_expectancy,2022.2.4,Win32,119.8897015,Chrome,1600,1067,,,,,1,914,,,,,,,,,,,,,,,,,D,146,hexagon,1,0,,,,,,,,,,,,,,,,repeat,letter,lettRpt,d,1.3339,Lo,,,,,,2,,,,,,,,high,23,0,23,0,1,,,,,,,,,
293413,2022-09-25_14h51.06.336,vts_reward_expectancy,2022.2.4,Win32,119.8897015,Chrome,1600,1067,,,,,0,914,,,,,,,,,,,,,,,,,F,167,circle,1,0,,,,,,,,,,,,,,,,switch,number,numSwt,k,0.9184,Hi,,,,,,2,,,,,,,,high,24,0,24,0,1,,,,,,,,,
293413,2022-09-25_14h51.06.336,vts_reward_expectancy,2022.2.4,Win32,119.8897015,Chrome,1600,1067,,,,,1,915,,,,,,,,,,,,,,,,,W,132,hexagon,1,0,,,,,,,,,,,,,,,,repeat,number,numRpt,j,0.6426,Lo,,,,,,2,,,,,,,,high,25,0,25,0,1,,,,,,,,,
293413,2022-09-25_14h51.06.336,vts_reward_expectancy,2022.2.4,Win32,119.8897015,Chrome,1600,1067,,,,,0,915,,,,,,,,,,,,,,,,,S,139,circle,1,0,,,,,,,,,,,,,,,,switch,letter,lettSwt,f,0.7096,Hi,,,,,,2,,,,,,,,high,26,0,26,0,1,,,,,,,,,
293413,2022-09-25_14h51.06.336,vts_reward_expectancy,2022.2.4,Win32,119.8897015,Chrome,1600,1067,,,,,1,916,,,,,,,,,,,,,,,,,H,160,hexagon,1,0,,,,,,,,,,,,,,,,repeat,letter,lettRpt,d,1.0517,Lo,,,,,,2,,,,,,,,high,27,0,27,0,1,,,,,,,,,
293413,2022-09-25_14h51.06.336,vts_reward_expectancy,2022.2.4,Win32,119.8897015,Chrome,1600,1067,,,,,10,926,,,,,,,,,,,,,,,,,Y,174,hexagon,1,0,,,,,,,,,,,,,,,,repeat,letter,lettRpt,f,0.7559,Lo,,,,,,2,,,,,,,,high,28,0,28,0,1,,,,,,,,,
293413,2022-09-25_14h51.06.336,vts_reward_expectancy,2022.2.4,Win32,119.8897015,Chrome,1600,1067,,,,,10,936,,,,,,,,,,,,,,,,,D,146,circle,1,0,,,,,,,,,,,,,,,,repeat,letter,lettRpt,d,0.6428,Hi,,,,,,2,,,,,,,,high,29,0,29,0,1,,,,,,,,,
293413,2022-09-25_14h51.06.336,vts_reward_expectancy,2022.2.4,Win32,119.8897015,Chrome,1600,1067,,,,,0,936,,,,,,,,,,,,,,,,,U,181,hexagon,0,0,,,,,,,,,,,,,,,,repeat,letter,NA,d,0.9849,Hi,,,,,,2,,,,,,,,high,30,0,30,0,1,,,,,,,,,
293413,2022-09-25_14h51.06.336,vts_reward_expectancy,2022.2.4,Win32,119.8897015,Chrome,1600,1067,,,,,0,936,,,,,,,,,,,,,,,,,B,125,circle,1,1,,,,,,,,,,,,,,,,repeat,letter,lettRpt,d,1.334,Hi,,,,,,2,,,,,,,,high,31,0,31,0,1,,,,,,,,,
293413,2022-09-25_14h51.06.336,vts_reward_expectancy,2022.2.4,Win32,119.8897015,Chrome,1600,1067,,,,,10,946,,,,,,,,,,,,,,,,,D,125,star,1,0,,,,,,,,,,,,,,,,switch,number,numSwt,j,0.7607,Lo,,,,,,3,,,,,,space,6.3494,low,0,0,0,0,1,,,,,,,,,
293413,2022-09-25_14h51.06.336,vts_reward_expectancy,2022.2.4,Win32,119.8897015,Chrome,1600,1067,,,,,0,946,,,,,,,,,,,,,,,,,W,174,triangle,1,0,,,,,,,,,,,,,,,,repeat,number,numRpt,k,0.6341,Hi,,,,,,3,,,,,,,,low,1,0,1,0,1,,,,,,,,,
293413,2022-09-25_14h51.06.336,vts_reward_expectancy,2022.2.4,Win32,119.8897015,Chrome,1600,1067,,,,,1,947,,,,,,,,,,,,,,,,,Y,132,star,1,0,,,,,,,,,,,,,,,,switch,letter,lettSwt,f,0.6516,Lo,,,,,,3,,,,,,,,low,2,0,2,0,1,,,,,,,,,
293413,2022-09-25_14h51.06.336,vts_reward_expectancy,2022.2.4,Win32,119.8897015,Chrome,1600,1067,,,,,0,947,,,,,,,,,,,,,,,,,F,167,triangle,1,0,,,,,,,,,,,,,,,,repeat,letter,lettRpt,d,0.7601,Hi,,,,,,3,,,,,,,,low,3,0,3,0,1,,,,,,,,,
293413,2022-09-25_14h51.06.336,vts_reward_expectancy,2022.2.4,Win32,119.8897015,Chrome,1600,1067,,,,,0,947,,,,,,,,,,,,,,,,,B,139,star,0,0,,,,,,,,,,,,,,,,switch,number,NA,k,0.9605,Hi,,,,,,3,,,,,,,,low,4,0,4,0,1,,,,,,,,,
293413,2022-09-25_14h51.06.336,vts_reward_expectancy,2022.2.4,Win32,119.8897015,Chrome,1600,1067,,,,,0,947,,,,,,,,,,,,,,,,,S,160,triangle,1,1,,,,,,,,,,,,,,,,repeat,number,numRpt,k,0.8097,Hi,,,,,,3,,,,,,,,low,5,0,5,0,1,,,,,,,,,
293413,2022-09-25_14h51.06.336,vts_reward_expectancy,2022.2.4,Win32,119.8897015,Chrome,1600,1067,,,,,1,948,,,,,,,,,,,,,,,,,U,181,star,1,0,,,,,,,,,,,,,,,,repeat,number,numRpt,k,1.1645,Lo,,,,,,3,,,,,,,,low,6,0,6,0,1,,,,,,,,,
293413,2022-09-25_14h51.06.336,vts_reward_expectancy,2022.2.4,Win32,119.8897015,Chrome,1600,1067,,,,,0,948,,,,,,,,,,,,,,,,,H,146,triangle,1,0,,,,,,,,,,,,,,,,repeat,number,numRpt,j,1.0089,Hi,,,,,,3,,,,,,,,low,7,0,7,0,1,,,,,,,,,
293413,2022-09-25_14h51.06.336,vts_reward_expectancy,2022.2.4,Win32,119.8897015,Chrome,1600,1067,,,,,1,949,,,,,,,,,,,,,,,,,D,125,star,1,0,,,,,,,,,,,,,,,,repeat,number,numRpt,j,0.5847,Lo,,,,,,3,,,,,,,,low,8,0,8,0,1,,,,,,,,,
293413,2022-09-25_14h51.06.336,vts_reward_expectancy,2022.2.4,Win32,119.8897015,Chrome,1600,1067,,,,,0,949,,,,,,,,,,,,,,,,,W,174,triangle,1,0,,,,,,,,,,,,,,,,switch,letter,lettSwt,f,0.6694,Hi,,,,,,3,,,,,,,,low,9,0,9,0,1,,,,,,,,,
293413,2022-09-25_14h51.06.336,vts_reward_expectancy,2022.2.4,Win32,119.8897015,Chrome,1600,1067,,,,,10,959,,,,,,,,,,,,,,,,,Y,132,triangle,1,0,,,,,,,,,,,,,,,,repeat,letter,lettRpt,f,0.5527,Hi,,,,,,3,,,,,,,,low,10,0,10,0,1,,,,,,,,,
293413,2022-09-25_14h51.06.336,vts_reward_expectancy,2022.2.4,Win32,119.8897015,Chrome,1600,1067,,,,,10,969,,,,,,,,,,,,,,,,,F,167,star,1,0,,,,,,,,,,,,,,,,repeat,letter,lettRpt,d,0.618,Lo,,,,,,3,,,,,,,,low,11,0,11,0,1,,,,,,,,,
293413,2022-09-25_14h51.06.336,vts_reward_expectancy,2022.2.4,Win32,119.8897015,Chrome,1600,1067,,,,,0,969,,,,,,,,,,,,,,,,,B,139,triangle,1,0,,,,,,,,,,,,,,,,switch,number,numSwt,j,0.7863,Hi,,,,,,3,,,,,,,,low,12,0,12,0,1,,,,,,,,,
293413,2022-09-25_14h51.06.336,vts_reward_expectancy,2022.2.4,Win32,119.8897015,Chrome,1600,1067,,,,,10,979,,,,,,,,,,,,,,,,,S,160,star,1,0,,,,,,,,,,,,,,,,switch,letter,lettSwt,f,0.5674,Lo,,,,,,3,,,,,,,,low,13,0,13,0,1,,,,,,,,,
293413,2022-09-25_14h51.06.336,vts_reward_expectancy,2022.2.4,Win32,119.8897015,Chrome,1600,1067,,,,,1,980,,,,,,,,,,,,,,,,,U,181,star,1,0,,,,,,,,,,,,,,,,repeat,letter,lettRpt,f,0.6598,Lo,,,,,,3,,,,,,,,low,14,0,14,0,1,,,,,,,,,
293413,2022-09-25_14h51.06.336,vts_reward_expectancy,2022.2.4,Win32,119.8897015,Chrome,1600,1067,,,,,0,980,,,,,,,,,,,,,,,,,H,146,triangle,1,0,,,,,,,,,,,,,,,,repeat,letter,lettRpt,d,0.7023,Hi,,,,,,3,,,,,,,,low,15,0,15,0,1,,,,,,,,,
293413,2022-09-25_14h51.06.336,vts_reward_expectancy,2022.2.4,Win32,119.8897015,Chrome,1600,1067,,,,,0,980,,,,,,,,,,,,,,,,,F,174,triangle,1,0,,,,,,,,,,,,,,,,repeat,letter,lettRpt,d,0.6944,Hi,,,,,,3,,,,,,,,low,16,0,16,0,1,,,,,,,,,
293413,2022-09-25_14h51.06.336,vts_reward_expectancy,2022.2.4,Win32,119.8897015,Chrome,1600,1067,,,,,1,981,,,,,,,,,,,,,,,,,U,132,star,1,0,,,,,,,,,,,,,,,,repeat,letter,lettRpt,f,0.8417,Lo,,,,,,3,,,,,,,,low,17,0,17,0,1,,,,,,,,,
293413,2022-09-25_14h51.06.336,vts_reward_expectancy,2022.2.4,Win32,119.8897015,Chrome,1600,1067,,,,,1,982,,,,,,,,,,,,,,,,,H,160,triangle,1,0,,,,,,,,,,,,,,,,switch,number,numSwt,k,0.6761,Hi,,,,,,3,,,,,,,,low,18,0,18,0,1,,,,,,,,,
293413,2022-09-25_14h51.06.336,vts_reward_expectancy,2022.2.4,Win32,119.8897015,Chrome,1600,1067,,,,,0,982,,,,,,,,,,,,,,,,,B,125,star,0,0,,,,,,,,,,,,,,,,repeat,number,NA,k,1.8834,Hi,,,,,,3,,,,,,,,low,19,0,19,0,1,,,,,,,,,
293413,2022-09-25_14h51.06.336,vts_reward_expectancy,2022.2.4,Win32,119.8897015,Chrome,1600,1067,,,,,0,982,,,,,,,,,,,,,,,,,Y,181,triangle,1,1,,,,,,,,,,,,,,,,repeat,number,numRpt,k,0.5592,Hi,,,,,,3,,,,,,,,low,20,0,20,0,1,,,,,,,,,
293413,2022-09-25_14h51.06.336,vts_reward_expectancy,2022.2.4,Win32,119.8897015,Chrome,1600,1067,,,,,1,983,,,,,,,,,,,,,,,,,S,146,star,1,0,,,,,,,,,,,,,,,,repeat,number,numRpt,j,0.9599,Lo,,,,,,3,,,,,,,,low,21,0,21,0,1,,,,,,,,,
293413,2022-09-25_14h51.06.336,vts_reward_expectancy,2022.2.4,Win32,119.8897015,Chrome,1600,1067,,,,,0,983,,,,,,,,,,,,,,,,,W,139,star,0,0,,,,,,,,,,,,,,,,repeat,number,NA,k,1.2283,Lo,,,,,,3,,,,,,,,low,22,0,22,0,1,,,,,,,,,
293413,2022-09-25_14h51.06.336,vts_reward_expectancy,2022.2.4,Win32,119.8897015,Chrome,1600,1067,,,,,0,983,,,,,,,,,,,,,,,,,D,167,triangle,1,1,,,,,,,,,,,,,,,,repeat,number,numRpt,k,0.7444,Hi,,,,,,3,,,,,,,,low,23,0,23,0,1,,,,,,,,,
293413,2022-09-25_14h51.06.336,vts_reward_expectancy,2022.2.4,Win32,119.8897015,Chrome,1600,1067,,,,,0,983,,,,,,,,,,,,,,,,,Y,125,star,0,0,,,,,,,,,,,,,,,,repeat,number,NA,k,0.7699,Hi,,,,,,3,,,,,,,,low,24,0,24,0,1,,,,,,,,,
293413,2022-09-25_14h51.06.336,vts_reward_expectancy,2022.2.4,Win32,119.8897015,Chrome,1600,1067,,,,,0,983,,,,,,,,,,,,,,,,,D,132,triangle,1,1,,,,,,,,,,,,,,,,repeat,number,numRpt,j,0.5285,Hi,,,,,,3,,,,,,,,low,25,0,25,0,1,,,,,,,,,
293413,2022-09-25_14h51.06.336,vts_reward_expectancy,2022.2.4,Win32,119.8897015,Chrome,1600,1067,,,,,0,983,,,,,,,,,,,,,,,,,H,181,triangle,1,0,,,,,,,,,,,,,,,,switch,letter,lettSwt,d,0.9175,Hi,,,,,,3,,,,,,,,low,26,0,26,0,1,,,,,,,,,
293413,2022-09-25_14h51.06.336,vts_reward_expectancy,2022.2.4,Win32,119.8897015,Chrome,1600,1067,,,,,10,993,,,,,,,,,,,,,,,,,F,160,star,1,0,,,,,,,,,,,,,,,,repeat,letter,lettRpt,d,0.5964,Lo,,,,,,3,,,,,,,,low,27,0,27,0,1,,,,,,,,,
293413,2022-09-25_14h51.06.336,vts_reward_expectancy,2022.2.4,Win32,119.8897015,Chrome,1600,1067,,,,,1,994,,,,,,,,,,,,,,,,,S,139,star,1,0,,,,,,,,,,,,,,,,repeat,letter,lettRpt,f,0.663,Lo,,,,,,3,,,,,,,,low,28,0,28,0,1,,,,,,,,,
293413,2022-09-25_14h51.06.336,vts_reward_expectancy,2022.2.4,Win32,119.8897015,Chrome,1600,1067,,,,,0,994,,,,,,,,,,,,,,,,,U,146,triangle,1,0,,,,,,,,,,,,,,,,repeat,letter,lettRpt,f,0.9462,Hi,,,,,,3,,,,,,,,low,29,0,29,0,1,,,,,,,,,
293413,2022-09-25_14h51.06.336,vts_reward_expectancy,2022.2.4,Win32,119.8897015,Chrome,1600,1067,,,,,1,995,,,,,,,,,,,,,,,,,W,174,star,1,0,,,,,,,,,,,,,,,,repeat,letter,lettRpt,f,0.8179,Lo,,,,,,3,,,,,,,,low,30,0,30,0,1,,,,,,,,,
293413,2022-09-25_14h51.06.336,vts_reward_expectancy,2022.2.4,Win32,119.8897015,Chrome,1600,1067,,,,,10,1005,,,,,,,,,,,,,,,,,B,167,triangle,1,0,,,,,,,,,,,,,,,,repeat,letter,lettRpt,d,0.5757,Hi,,,,,,3,,,,,,,,low,31,0,31,0,1,,,,,,,,,
293413,2022-09-25_14h51.06.336,vts_reward_expectancy,2022.2.4,Win32,119.8897015,Chrome,1600,1067,,,,,0,1005,,,,,,,,,,,,,,,,,W,146,hexagon,0,0,,,,,,,,,,,,,,,,switch,number,NA,k,0.7772,Hi,,,,,,4,,,,,,space,1.105,high,0,0,0,0,1,,,,,,,,,
293413,2022-09-25_14h51.06.336,vts_reward_expectancy,2022.2.4,Win32,119.8897015,Chrome,1600,1067,,,,,0,1005,,,,,,,,,,,,,,,,,B,139,circle,1,1,,,,,,,,,,,,,,,,repeat,number,numRpt,j,0.767,Hi,,,,,,4,,,,,,,,high,1,0,1,0,1,,,,,,,,,
293413,2022-09-25_14h51.06.336,vts_reward_expectancy,2022.2.4,Win32,119.8897015,Chrome,1600,1067,,,,,1,1006,,,,,,,,,,,,,,,,,Y,167,hexagon,1,0,,,,,,,,,,,,,,,,repeat,number,numRpt,k,0.5765,Lo,,,,,,4,,,,,,,,high,2,0,2,0,1,,,,,,,,,
293413,2022-09-25_14h51.06.336,vts_reward_expectancy,2022.2.4,Win32,119.8897015,Chrome,1600,1067,,,,,10,1016,,,,,,,,,,,,,,,,,S,174,circle,1,0,,,,,,,,,,,,,,,,switch,letter,lettSwt,f,0.5095,Hi,,,,,,4,,,,,,,,high,3,0,3,0,1,,,,,,,,,
293413,2022-09-25_14h51.06.336,vts_reward_expectancy,2022.2.4,Win32,119.8897015,Chrome,1600,1067,,,,,0,1016,,,,,,,,,,,,,,,,,U,132,circle,1,0,,,,,,,,,,,,,,,,switch,number,numSwt,j,0.9108,Hi,,,,,,4,,,,,,,,high,4,0,4,0,1,,,,,,,,,
293413,2022-09-25_14h51.06.336,vts_reward_expectancy,2022.2.4,Win32,119.8897015,Chrome,1600,1067,,,,,10,1026,,,,,,,,,,,,,,,,,F,181,hexagon,1,0,,,,,,,,,,,,,,,,repeat,number,numRpt,k,0.4881,Lo,,,,,,4,,,,,,,,high,5,0,5,0,1,,,,,,,,,
293413,2022-09-25_14h51.06.336,vts_reward_expectancy,2022.2.4,Win32,119.8897015,Chrome,1600,1067,,,,,1,1027,,,,,,,,,,,,,,,,,H,125,hexagon,1,0,,,,,,,,,,,,,,,,repeat,number,numRpt,j,0.5105,Lo,,,,,,4,,,,,,,,high,6,0,6,0,1,,,,,,,,,
293413,2022-09-25_14h51.06.336,vts_reward_expectancy,2022.2.4,Win32,119.8897015,Chrome,1600,1067,,,,,0,1027,,,,,,,,,,,,,,,,,D,160,circle,1,0,,,,,,,,,,,,,,,,repeat,number,numRpt,k,0.6216,Hi,,,,,,4,,,,,,,,high,7,0,7,0,1,,,,,,,,,
293413,2022-09-25_14h51.06.336,vts_reward_expectancy,2022.2.4,Win32,119.8897015,Chrome,1600,1067,,,,,1,1028,,,,,,,,,,,,,,,,,W,146,circle,1,0,,,,,,,,,,,,,,,,switch,letter,lettSwt,f,0.5669,Hi,,,,,,4,,,,,,,,high,8,0,8,0,1,,,,,,,,,
293413,2022-09-25_14h51.06.336,vts_reward_expectancy,2022.2.4,Win32,119.8897015,Chrome,1600,1067,,,,,1,1029,,,,,,,,,,,,,,,,,B,139,hexagon,1,0,,,,,,,,,,,,,,,,repeat,letter,lettRpt,d,0.6424,Lo,,,,,,4,,,,,,,,high,9,0,9,0,1,,,,,,,,,
293413,2022-09-25_14h51.06.336,vts_reward_expectancy,2022.2.4,Win32,119.8897015,Chrome,1600,1067,,,,,1,1030,,,,,,,,,,,,,,,,,Y,167,hexagon,1,0,,,,,,,,,,,,,,,,repeat,letter,lettRpt,f,0.6115,Lo,,,,,,4,,,,,,,,high,10,0,10,0,1,,,,,,,,,
293413,2022-09-25_14h51.06.336,vts_reward_expectancy,2022.2.4,Win32,119.8897015,Chrome,1600,1067,,,,,0,1030,,,,,,,,,,,,,,,,,S,174,circle,1,0,,,,,,,,,,,,,,,,repeat,letter,lettRpt,f,1.4099,Hi,,,,,,4,,,,,,,,high,11,0,11,0,1,,,,,,,,,
293413,2022-09-25_14h51.06.336,vts_reward_expectancy,2022.2.4,Win32,119.8897015,Chrome,1600,1067,,,,,0,1030,,,,,,,,,,,,,,,,,U,132,hexagon,0,0,,,,,,,,,,,,,,,,switch,number,NA,k,0.535,Hi,,,,,,4,,,,,,,,high,12,0,12,0,1,,,,,,,,,
293413,2022-09-25_14h51.06.336,vts_reward_expectancy,2022.2.4,Win32,119.8897015,Chrome,1600,1067,,,,,0,1030,,,,,,,,,,,,,,,,,F,181,circle,1,1,,,,,,,,,,,,,,,,switch,letter,lettSwt,d,1.3431,Hi,,,,,,4,,,,,,,,high,13,0,13,0,1,,,,,,,,,
293413,2022-09-25_14h51.06.336,vts_reward_expectancy,2022.2.4,Win32,119.8897015,Chrome,1600,1067,,,,,0,1030,,,,,,,,,,,,,,,,,H,125,circle,0,0,,,,,,,,,,,,,,,,repeat,letter,NA,f,0.537,Hi,,,,,,4,,,,,,,,high,14,0,14,0,1,,,,,,,,,
293413,2022-09-25_14h51.06.336,vts_reward_expectancy,2022.2.4,Win32,119.8897015,Chrome,1600,1067,,,,,1,1031,,,,,,,,,,,,,,,,,D,160,hexagon,1,1,,,,,,,,,,,,,,,,repeat,letter,lettRpt,d,0.7999,Lo,,,,,,4,,,,,,,,high,15,0,15,0,1,,,,,,,,,
293413,2022-09-25_14h51.06.336,vts_reward_expectancy,2022.2.4,Win32,119.8897015,Chrome,1600,1067,,,,,10,1041,,,,,,,,,,,,,,,,,B,139,hexagon,1,0,,,,,,,,,,,,,,,,repeat,letter,lettRpt,d,0.3777,Lo,,,,,,4,,,,,,,,high,16,0,16,0,1,,,,,,,,,
293413,2022-09-25_14h51.06.336,vts_reward_expectancy,2022.2.4,Win32,119.8897015,Chrome,1600,1067,,,,,10,1051,,,,,,,,,,,,,,,,,U,181,circle,1,0,,,,,,,,,,,,,,,,switch,number,numSwt,k,0.4258,Hi,,,,,,4,,,,,,,,high,17,0,17,0,1,,,,,,,,,
293413,2022-09-25_14h51.06.336,vts_reward_expectancy,2022.2.4,Win32,119.8897015,Chrome,1600,1067,,,,,1,1052,,,,,,,,,,,,,,,,,Y,174,circle,1,0,,,,,,,,,,,,,,,,repeat,number,numRpt,k,0.5336,Hi,,,,,,4,,,,,,,,high,18,0,18,0,1,,,,,,,,,
293413,2022-09-25_14h51.06.336,vts_reward_expectancy,2022.2.4,Win32,119.8897015,Chrome,1600,1067,,,,,1,1053,,,,,,,,,,,,,,,,,D,160,hexagon,1,0,,,,,,,,,,,,,,,,switch,letter,lettSwt,d,0.5845,Lo,,,,,,4,,,,,,,,high,19,0,19,0,1,,,,,,,,,
293413,2022-09-25_14h51.06.336,vts_reward_expectancy,2022.2.4,Win32,119.8897015,Chrome,1600,1067,,,,,1,1054,,,,,,,,,,,,,,,,,S,125,hexagon,1,0,,,,,,,,,,,,,,,,repeat,letter,lettRpt,f,0.5947,Lo,,,,,,4,,,,,,,,high,20,0,20,0,1,,,,,,,,,
293413,2022-09-25_14h51.06.336,vts_reward_expectancy,2022.2.4,Win32,119.8897015,Chrome,1600,1067,,,,,0,1054,,,,,,,,,,,,,,,,,F,167,circle,1,0,,,,,,,,,,,,,,,,repeat,letter,lettRpt,d,0.7007,Hi,,,,,,4,,,,,,,,high,21,0,21,0,1,,,,,,,,,
293413,2022-09-25_14h51.06.336,vts_reward_expectancy,2022.2.4,Win32,119.8897015,Chrome,1600,1067,,,,,0,1054,,,,,,,,,,,,,,,,,H,132,circle,0,0,,,,,,,,,,,,,,,,repeat,letter,NA,f,0.5759,Hi,,,,,,4,,,,,,,,high,22,0,22,0,1,,,,,,,,,
293413,2022-09-25_14h51.06.336,vts_reward_expectancy,2022.2.4,Win32,119.8897015,Chrome,1600,1067,,,,,0,1054,,,,,,,,,,,,,,,,,W,146,hexagon,0,1,,,,,,,,,,,,,,,,repeat,letter,NA,d,0.6174,Hi,,,,,,4,,,,,,,,high,23,0,23,0,1,,,,,,,,,
293413,2022-09-25_14h51.06.336,vts_reward_expectancy,2022.2.4,Win32,119.8897015,Chrome,1600,1067,,,,,1,1055,,,,,,,,,,,,,,,,,W,132,hexagon,1,1,,,,,,,,,,,,,,,,repeat,letter,lettRpt,f,0.6006,Lo,,,,,,4,,,,,,,,high,24,0,24,0,1,,,,,,,,,
293413,2022-09-25_14h51.06.336,vts_reward_expectancy,2022.2.4,Win32,119.8897015,Chrome,1600,1067,,,,,10,1065,,,,,,,,,,,,,,,,,D,181,circle,1,0,,,,,,,,,,,,,,,,repeat,letter,lettRpt,d,0.5504,Hi,,,,,,4,,,,,,,,high,25,0,25,0,1,,,,,,,,,
293413,2022-09-25_14h51.06.336,vts_reward_expectancy,2022.2.4,Win32,119.8897015,Chrome,1600,1067,,,,,1,1066,,,,,,,,,,,,,,,,,F,167,hexagon,1,0,,,,,,,,,,,,,,,,repeat,letter,lettRpt,d,0.6675,Lo,,,,,,4,,,,,,,,high,26,0,26,0,1,,,,,,,,,
293413,2022-09-25_14h51.06.336,vts_reward_expectancy,2022.2.4,Win32,119.8897015,Chrome,1600,1067,,,,,0,1066,,,,,,,,,,,,,,,,,Y,139,circle,1,0,,,,,,,,,,,,,,,,repeat,letter,lettRpt,f,0.8505,Hi,,,,,,4,,,,,,,,high,27,0,27,0,1,,,,,,,,,
293413,2022-09-25_14h51.06.336,vts_reward_expectancy,2022.2.4,Win32,119.8897015,Chrome,1600,1067,,,,,0,1066,,,,,,,,,,,,,,,,,U,160,hexagon,0,0,,,,,,,,,,,,,,,,repeat,letter,NA,d,1.0176,Hi,,,,,,4,,,,,,,,high,28,0,28,0,1,,,,,,,,,
293413,2022-09-25_14h51.06.336,vts_reward_expectancy,2022.2.4,Win32,119.8897015,Chrome,1600,1067,,,,,10,1076,,,,,,,,,,,,,,,,,S,125,circle,1,1,,,,,,,,,,,,,,,,repeat,letter,lettRpt,f,0.6002,Hi,,,,,,4,,,,,,,,high,29,0,29,0,1,,,,,,,,,
293413,2022-09-25_14h51.06.336,vts_reward_expectancy,2022.2.4,Win32,119.8897015,Chrome,1600,1067,,,,,1,1077,,,,,,,,,,,,,,,,,H,174,hexagon,1,0,,,,,,,,,,,,,,,,repeat,letter,lettRpt,d,0.9585,Lo,,,,,,4,,,,,,,,high,30,0,30,0,1,,,,,,,,,
293413,2022-09-25_14h51.06.336,vts_reward_expectancy,2022.2.4,Win32,119.8897015,Chrome,1600,1067,,,,,0,1077,,,,,,,,,,,,,,,,,B,146,circle,1,0,,,,,,,,,,,,,,,,repeat,letter,lettRpt,d,0.834,Hi,,,,,,4,,,,,,,,high,31,0,31,0,1,,,,,,,,,
293413,2022-09-25_14h51.06.336,vts_reward_expectancy,2022.2.4,Win32,119.8897015,Chrome,1600,1067,,,,,0,1077,,,,,,,,,,,,,,,,,S,167,triangle,1,0,,,,,,,,,,,,,,,,repeat,letter,lettRpt,f,0.634,Hi,,,,,,5,,,,,,space,1.0243,low,0,0,0,0,1,,,,,,,,,
293413,2022-09-25_14h51.06.336,vts_reward_expectancy,2022.2.4,Win32,119.8897015,Chrome,1600,1067,,,,,10,1087,,,,,,,,,,,,,,,,,Y,125,star,1,0,,,,,,,,,,,,,,,,switch,number,numSwt,j,0.5609,Lo,,,,,,5,,,,,,,,low,1,0,1,0,1,,,,,,,,,
293413,2022-09-25_14h51.06.336,vts_reward_expectancy,2022.2.4,Win32,119.8897015,Chrome,1600,1067,,,,,0,1087,,,,,,,,,,,,,,,,,H,139,triangle,0,0,,,,,,,,,,,,,,,,repeat,number,NA,k,0.7535,Lo,,,,,,5,,,,,,,,low,2,0,2,0,1,,,,,,,,,
293413,2022-09-25_14h51.06.336,vts_reward_expectancy,2022.2.4,Win32,119.8897015,Chrome,1600,1067,,,,,1,1088,,,,,,,,,,,,,,,,,D,160,star,1,1,,,,,,,,,,,,,,,,switch,letter,lettSwt,d,0.8506,Lo,,,,,,5,,,,,,,,low,3,0,3,0,1,,,,,,,,,
293413,2022-09-25_14h51.06.336,vts_reward_expectancy,2022.2.4,Win32,119.8897015,Chrome,1600,1067,,,,,10,1098,,,,,,,,,,,,,,,,,W,146,star,1,0,,,,,,,,,,,,,,,,repeat,letter,lettRpt,f,0.7848,Lo,,,,,,5,,,,,,,,low,4,0,4,0,1,,,,,,,,,
293413,2022-09-25_14h51.06.336,vts_reward_expectancy,2022.2.4,Win32,119.8897015,Chrome,1600,1067,,,,,0,1098,,,,,,,,,,,,,,,,,B,181,triangle,1,0,,,,,,,,,,,,,,,,repeat,letter,lettRpt,d,0.6436,Hi,,,,,,5,,,,,,,,low,5,0,5,0,1,,,,,,,,,
293413,2022-09-25_14h51.06.336,vts_reward_expectancy,2022.2.4,Win32,119.8897015,Chrome,1600,1067,,,,,1,1099,,,,,,,,,,,,,,,,,U,174,star,1,0,,,,,,,,,,,,,,,,repeat,letter,lettRpt,f,0.6859,Lo,,,,,,5,,,,,,,,low,6,0,6,0,1,,,,,,,,,
293413,2022-09-25_14h51.06.336,vts_reward_expectancy,2022.2.4,Win32,119.8897015,Chrome,1600,1067,,,,,0,1099,,,,,,,,,,,,,,,,,F,132,triangle,1,0,,,,,,,,,,,,,,,,repeat,letter,lettRpt,d,0.7327,Hi,,,,,,5,,,,,,,,low,7,0,7,0,1,,,,,,,,,
293413,2022-09-25_14h51.06.336,vts_reward_expectancy,2022.2.4,Win32,119.8897015,Chrome,1600,1067,,,,,1,1100,,,,,,,,,,,,,,,,,S,167,star,1,0,,,,,,,,,,,,,,,,repeat,letter,lettRpt,f,0.7174,Lo,,,,,,5,,,,,,,,low,8,0,8,0,1,,,,,,,,,
293413,2022-09-25_14h51.06.336,vts_reward_expectancy,2022.2.4,Win32,119.8897015,Chrome,1600,1067,,,,,0,1100,,,,,,,,,,,,,,,,,Y,125,triangle,1,0,,,,,,,,,,,,,,,,repeat,letter,lettRpt,f,0.8635,Hi,,,,,,5,,,,,,,,low,9,0,9,0,1,,,,,,,,,
293413,2022-09-25_14h51.06.336,vts_reward_expectancy,2022.2.4,Win32,119.8897015,Chrome,1600,1067,,,,,1,1101,,,,,,,,,,,,,,,,,H,139,star,1,0,,,,,,,,,,,,,,,,repeat,letter,lettRpt,d,1.0129,Lo,,,,,,5,,,,,,,,low,10,0,10,0,1,,,,,,,,,
293413,2022-09-25_14h51.06.336,vts_reward_expectancy,2022.2.4,Win32,119.8897015,Chrome,1600,1067,,,,,0,1101,,,,,,,,,,,,,,,,,D,160,triangle,1,0,,,,,,,,,,,,,,,,repeat,letter,lettRpt,d,0.7664,Hi,,,,,,5,,,,,,,,low,11,0,11,0,1,,,,,,,,,
293413,2022-09-25_14h51.06.336,vts_reward_expectancy,2022.2.4,Win32,119.8897015,Chrome,1600,1067,,,,,0,1101,,,,,,,,,,,,,,,,,W,146,triangle,1,0,,,,,,,,,,,,,,,,repeat,letter,lettRpt,f,0.6917,Hi,,,,,,5,,,,,,,,low,12,0,12,0,1,,,,,,,,,
293413,2022-09-25_14h51.06.336,vts_reward_expectancy,2022.2.4,Win32,119.8897015,Chrome,1600,1067,,,,,1,1102,,,,,,,,,,,,,,,,,B,181,star,1,0,,,,,,,,,,,,,,,,repeat,letter,lettRpt,d,0.6506,Lo,,,,,,5,,,,,,,,low,13,0,13,0,1,,,,,,,,,
293413,2022-09-25_14h51.06.336,vts_reward_expectancy,2022.2.4,Win32,119.8897015,Chrome,1600,1067,,,,,0,1102,,,,,,,,,,,,,,,,,U,174,triangle,1,0,,,,,,,,,,,,,,,,repeat,letter,lettRpt,f,0.7854,Hi,,,,,,5,,,,,,,,low,14,0,14,0,1,,,,,,,,,
293413,2022-09-25_14h51.06.336,vts_reward_expectancy,2022.2.4,Win32,119.8897015,Chrome,1600,1067,,,,,1,1103,,,,,,,,,,,,,,,,,F,132,star,1,0,,,,,,,,,,,,,,,,repeat,letter,lettRpt,d,0.6755,Lo,,,,,,5,,,,,,,,low,15,0,15,0,1,,,,,,,,,
293413,2022-09-25_14h51.06.336,vts_reward_expectancy,2022.2.4,Win32,119.8897015,Chrome,1600,1067,,,,,10,1113,,,,,,,,,,,,,,,,,B,139,star,1,0,,,,,,,,,,,,,,,,repeat,letter,lettRpt,d,0.7257,Lo,,,,,,5,,,,,,,,low,16,0,16,0,1,,,,,,,,,
293413,2022-09-25_14h51.06.336,vts_reward_expectancy,2022.2.4,Win32,119.8897015,Chrome,1600,1067,,,,,0,1113,,,,,,,,,,,,,,,,,F,174,triangle,1,0,,,,,,,,,,,,,,,,repeat,letter,lettRpt,d,0.7675,Hi,,,,,,5,,,,,,,,low,17,0,17,0,1,,,,,,,,,
293413,2022-09-25_14h51.06.336,vts_reward_expectancy,2022.2.4,Win32,119.8897015,Chrome,1600,1067,,,,,1,1114,,,,,,,,,,,,,,,,,U,132,triangle,1,0,,,,,,,,,,,,,,,,switch,number,numSwt,j,0.5361,Hi,,,,,,5,,,,,,,,low,18,0,18,0,1,,,,,,,,,
293413,2022-09-25_14h51.06.336,vts_reward_expectancy,2022.2.4,Win32,119.8897015,Chrome,1600,1067,,,,,10,1124,,,,,,,,,,,,,,,,,S,167,star,1,0,,,,,,,,,,,,,,,,switch,letter,lettSwt,f,0.6396,Lo,,,,,,5,,,,,,,,low,19,0,19,0,1,,,,,,,,,
293413,2022-09-25_14h51.06.336,vts_reward_expectancy,2022.2.4,Win32,119.8897015,Chrome,1600,1067,,,,,1,1125,,,,,,,,,,,,,,,,,H,146,star,1,0,,,,,,,,,,,,,,,,repeat,letter,lettRpt,d,0.6838,Lo,,,,,,5,,,,,,,,low,20,0,20,0,1,,,,,,,,,
293413,2022-09-25_14h51.06.336,vts_reward_expectancy,2022.2.4,Win32,119.8897015,Chrome,1600,1067,,,,,0,1125,,,,,,,,,,,,,,,,,Y,160,triangle,1,0,,,,,,,,,,,,,,,,repeat,letter,lettRpt,f,0.7783,Hi,,,,,,5,,,,,,,,low,21,0,21,0,1,,,,,,,,,
293413,2022-09-25_14h51.06.336,vts_reward_expectancy,2022.2.4,Win32,119.8897015,Chrome,1600,1067,,,,,1,1126,,,,,,,,,,,,,,,,,W,181,star,1,0,,,,,,,,,,,,,,,,repeat,letter,lettRpt,f,0.6335,Lo,,,,,,5,,,,,,,,low,22,0,22,0,1,,,,,,,,,
293413,2022-09-25_14h51.06.336,vts_reward_expectancy,2022.2.4,Win32,119.8897015,Chrome,1600,1067,,,,,0,1126,,,,,,,,,,,,,,,,,D,125,triangle,0,0,,,,,,,,,,,,,,,,repeat,letter,NA,f,0.6927,Lo,,,,,,5,,,,,,,,low,23,0,23,0,1,,,,,,,,,
293413,2022-09-25_14h51.06.336,vts_reward_expectancy,2022.2.4,Win32,119.8897015,Chrome,1600,1067,,,,,1,1127,,,,,,,,,,,,,,,,,S,139,triangle,1,1,,,,,,,,,,,,,,,,repeat,letter,lettRpt,f,0.5787,Hi,,,,,,5,,,,,,,,low,24,0,24,0,1,,,,,,,,,
293413,2022-09-25_14h51.06.336,vts_reward_expectancy,2022.2.4,Win32,119.8897015,Chrome,1600,1067,,,,,0,1127,,,,,,,,,,,,,,,,,D,146,star,0,0,,,,,,,,,,,,,,,,switch,number,NA,k,0.7834,Hi,,,,,,5,,,,,,,,low,25,0,25,0,1,,,,,,,,,
293413,2022-09-25_14h51.06.336,vts_reward_expectancy,2022.2.4,Win32,119.8897015,Chrome,1600,1067,,,,,10,1137,,,,,,,,,,,,,,,,,Y,181,star,1,1,,,,,,,,,,,,,,,,switch,letter,lettSwt,f,0.6036,Lo,,,,,,5,,,,,,,,low,26,0,26,0,1,,,,,,,,,
293413,2022-09-25_14h51.06.336,vts_reward_expectancy,2022.2.4,Win32,119.8897015,Chrome,1600,1067,,,,,0,1137,,,,,,,,,,,,,,,,,H,132,triangle,1,0,,,,,,,,,,,,,,,,repeat,letter,lettRpt,d,0.8214,Hi,,,,,,5,,,,,,,,low,27,0,27,0,1,,,,,,,,,
293413,2022-09-25_14h51.06.336,vts_reward_expectancy,2022.2.4,Win32,119.8897015,Chrome,1600,1067,,,,,10,1147,,,,,,,,,,,,,,,,,B,167,star,1,0,,,,,,,,,,,,,,,,repeat,letter,lettRpt,d,0.6295,Lo,,,,,,5,,,,,,,,low,28,0,28,0,1,,,,,,,,,
293413,2022-09-25_14h51.06.336,vts_reward_expectancy,2022.2.4,Win32,119.8897015,Chrome,1600,1067,,,,,10,1157,,,,,,,,,,,,,,,,,W,174,triangle,1,0,,,,,,,,,,,,,,,,switch,number,numSwt,k,0.5466,Hi,,,,,,5,,,,,,,,low,29,0,29,0,1,,,,,,,,,
293413,2022-09-25_14h51.06.336,vts_reward_expectancy,2022.2.4,Win32,119.8897015,Chrome,1600,1067,,,,,10,1167,,,,,,,,,,,,,,,,,F,160,triangle,1,0,,,,,,,,,,,,,,,,switch,letter,lettSwt,d,0.4338,Hi,,,,,,5,,,,,,,,low,30,0,30,0,1,,,,,,,,,
293413,2022-09-25_14h51.06.336,vts_reward_expectancy,2022.2.4,Win32,119.8897015,Chrome,1600,1067,,,,,1,1168,,,,,,,,,,,,,,,,,U,125,star,1,0,,,,,,,,,,,,,,,,switch,number,numSwt,j,0.5508,Lo,,,,,,5,,,,,,,,low,31,0,31,0,1,,,,,,,,,
293413,2022-09-25_14h51.06.336,vts_reward_expectancy,2022.2.4,Win32,119.8897015,Chrome,1600,1067,,,,,,,,,,,,,,,,,,,,,,,,,,,,,,,,,,,,,,,,,,,,,,,,,,,,,,6,,,,,,,,,,,,,,"I was asked to click d if the letter was closer to A and press F if the letter was closer to Z. Also, asked to press J if the num was <153 and K if the number >153.",2,Why sometimes did it say pick faster if I went fast,3,2,,2,1600,1067
