participant,date,expName,psychopyVersion,OS,frameRate,browser,xResolution,yResolution,key_resp.keys,key_resp.rt,training_resp.keys,training_resp.rt,points_trial,points_cumul,trainBlock,training.thisRepN,training.thisTrialN,training.thisN,training.thisIndex,training.ran,LTriangleOpac,LCircleOpac,LHexagonOpac,LStarOpac,RTriangleOpac,RCircleOpac,RHexagonOpac,RStarOpac,LShape_ID,RShape_ID,curr_topStim,curr_bottStim,curr_shape,acc,E1,target_resp_prac1.keys,pracBlock,task1_prac_trials.thisRepN,task1_prac_trials.thisTrialN,task1_prac_trials.thisN,task1_prac_trials.thisIndex,task1_prac_trials.ran,target_resp_prac1.rt,target_resp_prac2.keys,target_resp_prac2.rt,task2_praac_trials.thisRepN,task2_praac_trials.thisTrialN,task2_praac_trials.thisN,task2_praac_trials.thisIndex,task2_praac_trials.ran,alt,task,condition,target_resp.keys,target_resp.rt,rewCond,vts_practice_trials.thisRepN,vts_practice_trials.thisTrialN,vts_practice_trials.thisN,vts_practice_trials.thisIndex,vts_practice_trials.ran,blockNum,trials_norew.thisRepN,trials_norew.thisTrialN,trials_norew.thisN,trials_norew.thisIndex,trials_norew.ran,key_resp_2.keys,key_resp_2.rt,rewExpect,trials_rew.thisRepN,trials_rew.thisTrialN,trials_rew.thisN,trials_rew.thisIndex,trials_rew.ran,Q1,Q2,Q2_text,Q3,Q4,Q5_text,Q5,xRes,yRes
292942,2022-09-27_22h10.27.052,vts_reward_expectancy,2022.2.4,MacIntel,60.0024001,Chrome,1440,900,,,,,,,,,,,,,,,,,,,,,,,,,,,,,,,,,,,,,,,,,,,,,,,,,,,,,,,,,,,,,,,,,,,,,,,,,,,,
292942,2022-09-27_22h10.27.052,vts_reward_expectancy,2022.2.4,MacIntel,60.0024001,Chrome,1440,900,space,18.9686,,,,,,,,,,,,,,,,,,,,,,,,,,,,,,,,,,,,,,,,,,,,,,,,,,,,,,,,,,,,,,,,,,,,,,,,,,
292942,2022-09-27_22h10.27.052,vts_reward_expectancy,2022.2.4,MacIntel,60.0024001,Chrome,1440,900,,,,,,,,,,,,,,,,,,,,,,,,,,,,,,,,,,,,,,,,,,,,,,,,,,,,,,,,,,,,,,,,,,,,,,,,,,,,
292942,2022-09-27_22h10.27.052,vts_reward_expectancy,2022.2.4,MacIntel,60.0024001,Chrome,1440,900,,,l,2.5098,1,1,0,0,0,0,8,1,0,0,1,0,0,0,0,1,hexagon,star,,,,,,,,,,,,,,,,,,,,,,,,,,,,,,,,,,,,,,,,,,,,,,,,,,,,,,
292942,2022-09-27_22h10.27.052,vts_reward_expectancy,2022.2.4,MacIntel,60.0024001,Chrome,1440,900,,,l,2.4421,10,11,0,0,1,1,9,1,0,0,0,1,1,0,0,0,star,triangle,,,,,,,,,,,,,,,,,,,,,,,,,,,,,,,,,,,,,,,,,,,,,,,,,,,,,,
292942,2022-09-27_22h10.27.052,vts_reward_expectancy,2022.2.4,MacIntel,60.0024001,Chrome,1440,900,,,l,1.5554,10,21,0,0,2,2,6,1,0,0,1,0,1,0,0,0,hexagon,triangle,,,,,,,,,,,,,,,,,,,,,,,,,,,,,,,,,,,,,,,,,,,,,,,,,,,,,,
292942,2022-09-27_22h10.27.052,vts_reward_expectancy,2022.2.4,MacIntel,60.0024001,Chrome,1440,900,,,l,1.2977,1,22,0,0,3,3,4,1,0,1,0,0,0,0,1,0,circle,hexagon,,,,,,,,,,,,,,,,,,,,,,,,,,,,,,,,,,,,,,,,,,,,,,,,,,,,,,
292942,2022-09-27_22h10.27.052,vts_reward_expectancy,2022.2.4,MacIntel,60.0024001,Chrome,1440,900,,,l,1.0664,1,23,0,0,4,4,7,1,0,0,1,0,0,1,0,0,hexagon,circle,,,,,,,,,,,,,,,,,,,,,,,,,,,,,,,,,,,,,,,,,,,,,,,,,,,,,,
292942,2022-09-27_22h10.27.052,vts_reward_expectancy,2022.2.4,MacIntel,60.0024001,Chrome,1440,900,,,l,1.6019,10,33,0,0,5,5,1,1,1,0,0,0,0,0,1,0,triangle,hexagon,,,,,,,,,,,,,,,,,,,,,,,,,,,,,,,,,,,,,,,,,,,,,,,,,,,,,,
292942,2022-09-27_22h10.27.052,vts_reward_expectancy,2022.2.4,MacIntel,60.0024001,Chrome,1440,900,,,a,1.5013,10,43,0,0,6,6,2,1,1,0,0,0,0,0,0,1,triangle,star,,,,,,,,,,,,,,,,,,,,,,,,,,,,,,,,,,,,,,,,,,,,,,,,,,,,,,
292942,2022-09-27_22h10.27.052,vts_reward_expectancy,2022.2.4,MacIntel,60.0024001,Chrome,1440,900,,,l,1.2831,1,44,0,0,7,7,11,1,0,0,0,1,0,0,1,0,star,hexagon,,,,,,,,,,,,,,,,,,,,,,,,,,,,,,,,,,,,,,,,,,,,,,,,,,,,,,
292942,2022-09-27_22h10.27.052,vts_reward_expectancy,2022.2.4,MacIntel,60.0024001,Chrome,1440,900,,,a,2.2346,10,54,0,0,8,8,3,1,0,1,0,0,1,0,0,0,circle,triangle,,,,,,,,,,,,,,,,,,,,,,,,,,,,,,,,,,,,,,,,,,,,,,,,,,,,,,
292942,2022-09-27_22h10.27.052,vts_reward_expectancy,2022.2.4,MacIntel,60.0024001,Chrome,1440,900,,,l,1.3674,1,55,0,0,9,9,10,1,0,0,0,1,0,1,0,0,star ,circle,,,,,,,,,,,,,,,,,,,,,,,,,,,,,,,,,,,,,,,,,,,,,,,,,,,,,,
292942,2022-09-27_22h10.27.052,vts_reward_expectancy,2022.2.4,MacIntel,60.0024001,Chrome,1440,900,,,l,0.698,10,65,0,0,10,10,5,1,0,1,0,0,0,0,0,1,circle,star,,,,,,,,,,,,,,,,,,,,,,,,,,,,,,,,,,,,,,,,,,,,,,,,,,,,,,
292942,2022-09-27_22h10.27.052,vts_reward_expectancy,2022.2.4,MacIntel,60.0024001,Chrome,1440,900,,,a,2.7385,10,75,0,0,11,11,0,1,1,0,0,0,0,1,0,0,triangle,circle,,,,,,,,,,,,,,,,,,,,,,,,,,,,,,,,,,,,,,,,,,,,,,,,,,,,,,
292942,2022-09-27_22h10.27.052,vts_reward_expectancy,2022.2.4,MacIntel,60.0024001,Chrome,1440,900,,,a,1.2065,1,76,0,1,0,12,4,1,0,1,0,0,0,0,1,0,circle,hexagon,,,,,,,,,,,,,,,,,,,,,,,,,,,,,,,,,,,,,,,,,,,,,,,,,,,,,,
292942,2022-09-27_22h10.27.052,vts_reward_expectancy,2022.2.4,MacIntel,60.0024001,Chrome,1440,900,,,a,1.599,1,77,0,1,1,13,10,1,0,0,0,1,0,1,0,0,star ,circle,,,,,,,,,,,,,,,,,,,,,,,,,,,,,,,,,,,,,,,,,,,,,,,,,,,,,,
292942,2022-09-27_22h10.27.052,vts_reward_expectancy,2022.2.4,MacIntel,60.0024001,Chrome,1440,900,,,a,1.3999,10,87,0,1,2,14,0,1,1,0,0,0,0,1,0,0,triangle,circle,,,,,,,,,,,,,,,,,,,,,,,,,,,,,,,,,,,,,,,,,,,,,,,,,,,,,,
292942,2022-09-27_22h10.27.052,vts_reward_expectancy,2022.2.4,MacIntel,60.0024001,Chrome,1440,900,,,a,1.3036,1,88,0,1,3,15,7,1,0,0,1,0,0,1,0,0,hexagon,circle,,,,,,,,,,,,,,,,,,,,,,,,,,,,,,,,,,,,,,,,,,,,,,,,,,,,,,
292942,2022-09-27_22h10.27.052,vts_reward_expectancy,2022.2.4,MacIntel,60.0024001,Chrome,1440,900,,,l,1.3329,10,98,0,1,4,16,8,1,0,0,1,0,0,0,0,1,hexagon,star,,,,,,,,,,,,,,,,,,,,,,,,,,,,,,,,,,,,,,,,,,,,,,,,,,,,,,
292942,2022-09-27_22h10.27.052,vts_reward_expectancy,2022.2.4,MacIntel,60.0024001,Chrome,1440,900,,,l,1.1822,1,99,0,1,5,17,5,1,0,1,0,0,0,0,0,1,circle,star,,,,,,,,,,,,,,,,,,,,,,,,,,,,,,,,,,,,,,,,,,,,,,,,,,,,,,
292942,2022-09-27_22h10.27.052,vts_reward_expectancy,2022.2.4,MacIntel,60.0024001,Chrome,1440,900,,,a,0.982,1,100,0,1,6,18,11,1,0,0,0,1,0,0,1,0,star,hexagon,,,,,,,,,,,,,,,,,,,,,,,,,,,,,,,,,,,,,,,,,,,,,,,,,,,,,,
292942,2022-09-27_22h10.27.052,vts_reward_expectancy,2022.2.4,MacIntel,60.0024001,Chrome,1440,900,,,a,2.1668,10,110,0,1,7,19,1,1,1,0,0,0,0,0,1,0,triangle,hexagon,,,,,,,,,,,,,,,,,,,,,,,,,,,,,,,,,,,,,,,,,,,,,,,,,,,,,,
292942,2022-09-27_22h10.27.052,vts_reward_expectancy,2022.2.4,MacIntel,60.0024001,Chrome,1440,900,,,a,1.9514,1,111,0,1,8,20,3,1,0,1,0,0,1,0,0,0,circle,triangle,,,,,,,,,,,,,,,,,,,,,,,,,,,,,,,,,,,,,,,,,,,,,,,,,,,,,,
292942,2022-09-27_22h10.27.052,vts_reward_expectancy,2022.2.4,MacIntel,60.0024001,Chrome,1440,900,,,l,0.7688,10,121,0,1,9,21,2,1,1,0,0,0,0,0,0,1,triangle,star,,,,,,,,,,,,,,,,,,,,,,,,,,,,,,,,,,,,,,,,,,,,,,,,,,,,,,
292942,2022-09-27_22h10.27.052,vts_reward_expectancy,2022.2.4,MacIntel,60.0024001,Chrome,1440,900,,,l,0.6669,10,131,0,1,10,22,6,1,0,0,1,0,1,0,0,0,hexagon,triangle,,,,,,,,,,,,,,,,,,,,,,,,,,,,,,,,,,,,,,,,,,,,,,,,,,,,,,
292942,2022-09-27_22h10.27.052,vts_reward_expectancy,2022.2.4,MacIntel,60.0024001,Chrome,1440,900,,,l,0.6824,10,141,0,1,11,23,9,1,0,0,0,1,1,0,0,0,star,triangle,,,,,,,,,,,,,,,,,,,,,,,,,,,,,,,,,,,,,,,,,,,,,,,,,,,,,,
292942,2022-09-27_22h10.27.052,vts_reward_expectancy,2022.2.4,MacIntel,60.0024001,Chrome,1440,900,,,l,0.6191,10,151,0,2,0,24,11,1,0,0,0,1,0,0,1,0,star,hexagon,,,,,,,,,,,,,,,,,,,,,,,,,,,,,,,,,,,,,,,,,,,,,,,,,,,,,,
292942,2022-09-27_22h10.27.052,vts_reward_expectancy,2022.2.4,MacIntel,60.0024001,Chrome,1440,900,,,l,0.4038,10,161,0,2,1,25,7,1,0,0,1,0,0,1,0,0,hexagon,circle,,,,,,,,,,,,,,,,,,,,,,,,,,,,,,,,,,,,,,,,,,,,,,,,,,,,,,
292942,2022-09-27_22h10.27.052,vts_reward_expectancy,2022.2.4,MacIntel,60.0024001,Chrome,1440,900,,,l,0.2821,1,162,0,2,2,26,8,1,0,0,1,0,0,0,0,1,hexagon,star,,,,,,,,,,,,,,,,,,,,,,,,,,,,,,,,,,,,,,,,,,,,,,,,,,,,,,
292942,2022-09-27_22h10.27.052,vts_reward_expectancy,2022.2.4,MacIntel,60.0024001,Chrome,1440,900,,,l,0.502,1,163,0,2,3,27,4,1,0,1,0,0,0,0,1,0,circle,hexagon,,,,,,,,,,,,,,,,,,,,,,,,,,,,,,,,,,,,,,,,,,,,,,,,,,,,,,
292942,2022-09-27_22h10.27.052,vts_reward_expectancy,2022.2.4,MacIntel,60.0024001,Chrome,1440,900,,,a,1.806,10,173,0,2,4,28,6,1,0,0,1,0,1,0,0,0,hexagon,triangle,,,,,,,,,,,,,,,,,,,,,,,,,,,,,,,,,,,,,,,,,,,,,,,,,,,,,,
292942,2022-09-27_22h10.27.052,vts_reward_expectancy,2022.2.4,MacIntel,60.0024001,Chrome,1440,900,,,a,0.9824,10,183,0,2,5,29,5,1,0,1,0,0,0,0,0,1,circle,star,,,,,,,,,,,,,,,,,,,,,,,,,,,,,,,,,,,,,,,,,,,,,,,,,,,,,,
292942,2022-09-27_22h10.27.052,vts_reward_expectancy,2022.2.4,MacIntel,60.0024001,Chrome,1440,900,,,a,0.3041,1,184,0,2,6,30,3,1,0,1,0,0,1,0,0,0,circle,triangle,,,,,,,,,,,,,,,,,,,,,,,,,,,,,,,,,,,,,,,,,,,,,,,,,,,,,,
292942,2022-09-27_22h10.27.052,vts_reward_expectancy,2022.2.4,MacIntel,60.0024001,Chrome,1440,900,,,l,0.3227,1,185,0,2,7,31,10,1,0,0,0,1,0,1,0,0,star ,circle,,,,,,,,,,,,,,,,,,,,,,,,,,,,,,,,,,,,,,,,,,,,,,,,,,,,,,
292942,2022-09-27_22h10.27.052,vts_reward_expectancy,2022.2.4,MacIntel,60.0024001,Chrome,1440,900,,,l,0.8541,1,186,0,2,8,32,1,1,1,0,0,0,0,0,1,0,triangle,hexagon,,,,,,,,,,,,,,,,,,,,,,,,,,,,,,,,,,,,,,,,,,,,,,,,,,,,,,
292942,2022-09-27_22h10.27.052,vts_reward_expectancy,2022.2.4,MacIntel,60.0024001,Chrome,1440,900,,,l,0.7158,1,187,0,2,9,33,2,1,1,0,0,0,0,0,0,1,triangle,star,,,,,,,,,,,,,,,,,,,,,,,,,,,,,,,,,,,,,,,,,,,,,,,,,,,,,,
292942,2022-09-27_22h10.27.052,vts_reward_expectancy,2022.2.4,MacIntel,60.0024001,Chrome,1440,900,,,a,0.6327,10,197,0,2,10,34,0,1,1,0,0,0,0,1,0,0,triangle,circle,,,,,,,,,,,,,,,,,,,,,,,,,,,,,,,,,,,,,,,,,,,,,,,,,,,,,,
292942,2022-09-27_22h10.27.052,vts_reward_expectancy,2022.2.4,MacIntel,60.0024001,Chrome,1440,900,,,l,0.6253,10,207,0,2,11,35,9,1,0,0,0,1,1,0,0,0,star,triangle,,,,,,,,,,,,,,,,,,,,,,,,,,,,,,,,,,,,,,,,,,,,,,,,,,,,,,
292942,2022-09-27_22h10.27.052,vts_reward_expectancy,2022.2.4,MacIntel,60.0024001,Chrome,1440,900,,,l,1.7336,10,217,1,0,0,0,11,1,0,0,0,1,0,0,1,0,star,hexagon,,,,,,,,,,,,,,,,,,,,,,,,,,,,,,,,,,,,,,,,,,,,,,,,,,,,,,
292942,2022-09-27_22h10.27.052,vts_reward_expectancy,2022.2.4,MacIntel,60.0024001,Chrome,1440,900,,,l,3.0358,10,227,1,0,1,1,5,1,0,1,0,0,0,0,0,1,circle,star,,,,,,,,,,,,,,,,,,,,,,,,,,,,,,,,,,,,,,,,,,,,,,,,,,,,,,
292942,2022-09-27_22h10.27.052,vts_reward_expectancy,2022.2.4,MacIntel,60.0024001,Chrome,1440,900,,,l,2.7431,1,228,1,0,2,2,7,1,0,0,1,0,0,1,0,0,hexagon,circle,,,,,,,,,,,,,,,,,,,,,,,,,,,,,,,,,,,,,,,,,,,,,,,,,,,,,,
292942,2022-09-27_22h10.27.052,vts_reward_expectancy,2022.2.4,MacIntel,60.0024001,Chrome,1440,900,,,l,3.0245,10,238,1,0,3,3,0,1,1,0,0,0,0,1,0,0,triangle,circle,,,,,,,,,,,,,,,,,,,,,,,,,,,,,,,,,,,,,,,,,,,,,,,,,,,,,,
292942,2022-09-27_22h10.27.052,vts_reward_expectancy,2022.2.4,MacIntel,60.0024001,Chrome,1440,900,,,l,0.6745,10,248,1,0,4,4,3,1,0,1,0,0,1,0,0,0,circle,triangle,,,,,,,,,,,,,,,,,,,,,,,,,,,,,,,,,,,,,,,,,,,,,,,,,,,,,,
292942,2022-09-27_22h10.27.052,vts_reward_expectancy,2022.2.4,MacIntel,60.0024001,Chrome,1440,900,,,l,1.0985,10,258,1,0,5,5,9,1,0,0,0,1,1,0,0,0,star,triangle,,,,,,,,,,,,,,,,,,,,,,,,,,,,,,,,,,,,,,,,,,,,,,,,,,,,,,
292942,2022-09-27_22h10.27.052,vts_reward_expectancy,2022.2.4,MacIntel,60.0024001,Chrome,1440,900,,,a,1.6318,1,259,1,0,6,6,4,1,0,1,0,0,0,0,1,0,circle,hexagon,,,,,,,,,,,,,,,,,,,,,,,,,,,,,,,,,,,,,,,,,,,,,,,,,,,,,,
292942,2022-09-27_22h10.27.052,vts_reward_expectancy,2022.2.4,MacIntel,60.0024001,Chrome,1440,900,,,l,0.6352,1,260,1,0,7,7,1,1,1,0,0,0,0,0,1,0,triangle,hexagon,,,,,,,,,,,,,,,,,,,,,,,,,,,,,,,,,,,,,,,,,,,,,,,,,,,,,,
292942,2022-09-27_22h10.27.052,vts_reward_expectancy,2022.2.4,MacIntel,60.0024001,Chrome,1440,900,,,l,0.699,10,270,1,0,8,8,10,1,0,0,0,1,0,1,0,0,star ,circle,,,,,,,,,,,,,,,,,,,,,,,,,,,,,,,,,,,,,,,,,,,,,,,,,,,,,,
292942,2022-09-27_22h10.27.052,vts_reward_expectancy,2022.2.4,MacIntel,60.0024001,Chrome,1440,900,,,l,0.6324,1,271,1,0,9,9,2,1,1,0,0,0,0,0,0,1,triangle,star,,,,,,,,,,,,,,,,,,,,,,,,,,,,,,,,,,,,,,,,,,,,,,,,,,,,,,
292942,2022-09-27_22h10.27.052,vts_reward_expectancy,2022.2.4,MacIntel,60.0024001,Chrome,1440,900,,,l,1.0839,1,272,1,0,10,10,8,1,0,0,1,0,0,0,0,1,hexagon,star,,,,,,,,,,,,,,,,,,,,,,,,,,,,,,,,,,,,,,,,,,,,,,,,,,,,,,
292942,2022-09-27_22h10.27.052,vts_reward_expectancy,2022.2.4,MacIntel,60.0024001,Chrome,1440,900,,,l,0.6668,10,282,1,0,11,11,6,1,0,0,1,0,1,0,0,0,hexagon,triangle,,,,,,,,,,,,,,,,,,,,,,,,,,,,,,,,,,,,,,,,,,,,,,,,,,,,,,
292942,2022-09-27_22h10.27.052,vts_reward_expectancy,2022.2.4,MacIntel,60.0024001,Chrome,1440,900,,,a,0.6152,1,283,1,1,0,12,4,1,0,1,0,0,0,0,1,0,circle,hexagon,,,,,,,,,,,,,,,,,,,,,,,,,,,,,,,,,,,,,,,,,,,,,,,,,,,,,,
292942,2022-09-27_22h10.27.052,vts_reward_expectancy,2022.2.4,MacIntel,60.0024001,Chrome,1440,900,,,l,0.9747,1,284,1,1,1,13,0,1,1,0,0,0,0,1,0,0,triangle,circle,,,,,,,,,,,,,,,,,,,,,,,,,,,,,,,,,,,,,,,,,,,,,,,,,,,,,,
292942,2022-09-27_22h10.27.052,vts_reward_expectancy,2022.2.4,MacIntel,60.0024001,Chrome,1440,900,,,a,1.2159,10,294,1,1,2,14,6,1,0,0,1,0,1,0,0,0,hexagon,triangle,,,,,,,,,,,,,,,,,,,,,,,,,,,,,,,,,,,,,,,,,,,,,,,,,,,,,,
292942,2022-09-27_22h10.27.052,vts_reward_expectancy,2022.2.4,MacIntel,60.0024001,Chrome,1440,900,,,a,1.0199,10,304,1,1,3,15,8,1,0,0,1,0,0,0,0,1,hexagon,star,,,,,,,,,,,,,,,,,,,,,,,,,,,,,,,,,,,,,,,,,,,,,,,,,,,,,,
292942,2022-09-27_22h10.27.052,vts_reward_expectancy,2022.2.4,MacIntel,60.0024001,Chrome,1440,900,,,a,1.2853,10,314,1,1,4,16,2,1,1,0,0,0,0,0,0,1,triangle,star,,,,,,,,,,,,,,,,,,,,,,,,,,,,,,,,,,,,,,,,,,,,,,,,,,,,,,
292942,2022-09-27_22h10.27.052,vts_reward_expectancy,2022.2.4,MacIntel,60.0024001,Chrome,1440,900,,,a,0.7853,1,315,1,1,5,17,7,1,0,0,1,0,0,1,0,0,hexagon,circle,,,,,,,,,,,,,,,,,,,,,,,,,,,,,,,,,,,,,,,,,,,,,,,,,,,,,,
292942,2022-09-27_22h10.27.052,vts_reward_expectancy,2022.2.4,MacIntel,60.0024001,Chrome,1440,900,,,l,2.7502,10,325,1,1,6,18,3,1,0,1,0,0,1,0,0,0,circle,triangle,,,,,,,,,,,,,,,,,,,,,,,,,,,,,,,,,,,,,,,,,,,,,,,,,,,,,,
292942,2022-09-27_22h10.27.052,vts_reward_expectancy,2022.2.4,MacIntel,60.0024001,Chrome,1440,900,,,l,1.2403,1,326,1,1,7,19,5,1,0,1,0,0,0,0,0,1,circle,star,,,,,,,,,,,,,,,,,,,,,,,,,,,,,,,,,,,,,,,,,,,,,,,,,,,,,,
292942,2022-09-27_22h10.27.052,vts_reward_expectancy,2022.2.4,MacIntel,60.0024001,Chrome,1440,900,,,a,4.417,10,336,1,1,8,20,11,1,0,0,0,1,0,0,1,0,star,hexagon,,,,,,,,,,,,,,,,,,,,,,,,,,,,,,,,,,,,,,,,,,,,,,,,,,,,,,
292942,2022-09-27_22h10.27.052,vts_reward_expectancy,2022.2.4,MacIntel,60.0024001,Chrome,1440,900,,,a,1.1654,1,337,1,1,9,21,9,1,0,0,0,1,1,0,0,0,star,triangle,,,,,,,,,,,,,,,,,,,,,,,,,,,,,,,,,,,,,,,,,,,,,,,,,,,,,,
292942,2022-09-27_22h10.27.052,vts_reward_expectancy,2022.2.4,MacIntel,60.0024001,Chrome,1440,900,,,a,0.9709,10,347,1,1,10,22,1,1,1,0,0,0,0,0,1,0,triangle,hexagon,,,,,,,,,,,,,,,,,,,,,,,,,,,,,,,,,,,,,,,,,,,,,,,,,,,,,,
292942,2022-09-27_22h10.27.052,vts_reward_expectancy,2022.2.4,MacIntel,60.0024001,Chrome,1440,900,,,a,6.6025,10,357,1,1,11,23,10,1,0,0,0,1,0,1,0,0,star ,circle,,,,,,,,,,,,,,,,,,,,,,,,,,,,,,,,,,,,,,,,,,,,,,,,,,,,,,
292942,2022-09-27_22h10.27.052,vts_reward_expectancy,2022.2.4,MacIntel,60.0024001,Chrome,1440,900,,,l,2.1228,1,358,1,2,0,24,8,1,0,0,1,0,0,0,0,1,hexagon,star,,,,,,,,,,,,,,,,,,,,,,,,,,,,,,,,,,,,,,,,,,,,,,,,,,,,,,
292942,2022-09-27_22h10.27.052,vts_reward_expectancy,2022.2.4,MacIntel,60.0024001,Chrome,1440,900,,,a,11.6689,10,368,1,2,1,25,9,1,0,0,0,1,1,0,0,0,star,triangle,,,,,,,,,,,,,,,,,,,,,,,,,,,,,,,,,,,,,,,,,,,,,,,,,,,,,,
292942,2022-09-27_22h10.27.052,vts_reward_expectancy,2022.2.4,MacIntel,60.0024001,Chrome,1440,900,,,a,0.9219,1,369,1,2,2,26,11,1,0,0,0,1,0,0,1,0,star,hexagon,,,,,,,,,,,,,,,,,,,,,,,,,,,,,,,,,,,,,,,,,,,,,,,,,,,,,,
292942,2022-09-27_22h10.27.052,vts_reward_expectancy,2022.2.4,MacIntel,60.0024001,Chrome,1440,900,,,l,4.1333,10,379,1,2,3,27,4,1,0,1,0,0,0,0,1,0,circle,hexagon,,,,,,,,,,,,,,,,,,,,,,,,,,,,,,,,,,,,,,,,,,,,,,,,,,,,,,
292942,2022-09-27_22h10.27.052,vts_reward_expectancy,2022.2.4,MacIntel,60.0024001,Chrome,1440,900,,,l,2.0355,10,389,1,2,4,28,3,1,0,1,0,0,1,0,0,0,circle,triangle,,,,,,,,,,,,,,,,,,,,,,,,,,,,,,,,,,,,,,,,,,,,,,,,,,,,,,
292942,2022-09-27_22h10.27.052,vts_reward_expectancy,2022.2.4,MacIntel,60.0024001,Chrome,1440,900,,,l,2.2317,1,390,1,2,5,29,7,1,0,0,1,0,0,1,0,0,hexagon,circle,,,,,,,,,,,,,,,,,,,,,,,,,,,,,,,,,,,,,,,,,,,,,,,,,,,,,,
292942,2022-09-27_22h10.27.052,vts_reward_expectancy,2022.2.4,MacIntel,60.0024001,Chrome,1440,900,,,a,0.5985,1,391,1,2,6,30,6,1,0,0,1,0,1,0,0,0,hexagon,triangle,,,,,,,,,,,,,,,,,,,,,,,,,,,,,,,,,,,,,,,,,,,,,,,,,,,,,,
292942,2022-09-27_22h10.27.052,vts_reward_expectancy,2022.2.4,MacIntel,60.0024001,Chrome,1440,900,,,a,1.0678,1,392,1,2,7,31,5,1,0,1,0,0,0,0,0,1,circle,star,,,,,,,,,,,,,,,,,,,,,,,,,,,,,,,,,,,,,,,,,,,,,,,,,,,,,,
292942,2022-09-27_22h10.27.052,vts_reward_expectancy,2022.2.4,MacIntel,60.0024001,Chrome,1440,900,,,a,0.5378,1,393,1,2,8,32,10,1,0,0,0,1,0,1,0,0,star ,circle,,,,,,,,,,,,,,,,,,,,,,,,,,,,,,,,,,,,,,,,,,,,,,,,,,,,,,
292942,2022-09-27_22h10.27.052,vts_reward_expectancy,2022.2.4,MacIntel,60.0024001,Chrome,1440,900,,,l,1.6864,1,394,1,2,9,33,2,1,1,0,0,0,0,0,0,1,triangle,star,,,,,,,,,,,,,,,,,,,,,,,,,,,,,,,,,,,,,,,,,,,,,,,,,,,,,,
292942,2022-09-27_22h10.27.052,vts_reward_expectancy,2022.2.4,MacIntel,60.0024001,Chrome,1440,900,,,a,0.2645,10,404,1,2,10,34,0,1,1,0,0,0,0,1,0,0,triangle,circle,,,,,,,,,,,,,,,,,,,,,,,,,,,,,,,,,,,,,,,,,,,,,,,,,,,,,,
292942,2022-09-27_22h10.27.052,vts_reward_expectancy,2022.2.4,MacIntel,60.0024001,Chrome,1440,900,,,a,1.1084,10,414,1,2,11,35,1,1,1,0,0,0,0,0,1,0,triangle,hexagon,,,,,,,,,,,,,,,,,,,,,,,,,,,,,,,,,,,,,,,,,,,,,,,,,,,,,,
292942,2022-09-27_22h10.27.052,vts_reward_expectancy,2022.2.4,MacIntel,60.0024001,Chrome,1440,900,,,a,1.3008,10,424,2,0,0,0,7,1,0,0,1,0,0,1,0,0,hexagon,circle,,,,,,,,,,,,,,,,,,,,,,,,,,,,,,,,,,,,,,,,,,,,,,,,,,,,,,
292942,2022-09-27_22h10.27.052,vts_reward_expectancy,2022.2.4,MacIntel,60.0024001,Chrome,1440,900,,,a,1.1841,10,434,2,0,1,1,0,1,1,0,0,0,0,1,0,0,triangle,circle,,,,,,,,,,,,,,,,,,,,,,,,,,,,,,,,,,,,,,,,,,,,,,,,,,,,,,
292942,2022-09-27_22h10.27.052,vts_reward_expectancy,2022.2.4,MacIntel,60.0024001,Chrome,1440,900,,,a,1.7004,1,435,2,0,2,2,3,1,0,1,0,0,1,0,0,0,circle,triangle,,,,,,,,,,,,,,,,,,,,,,,,,,,,,,,,,,,,,,,,,,,,,,,,,,,,,,
292942,2022-09-27_22h10.27.052,vts_reward_expectancy,2022.2.4,MacIntel,60.0024001,Chrome,1440,900,,,l,0.3843,1,436,2,0,3,3,5,1,0,1,0,0,0,0,0,1,circle,star,,,,,,,,,,,,,,,,,,,,,,,,,,,,,,,,,,,,,,,,,,,,,,,,,,,,,,
292942,2022-09-27_22h10.27.052,vts_reward_expectancy,2022.2.4,MacIntel,60.0024001,Chrome,1440,900,,,l,0.3717,10,446,2,0,4,4,8,1,0,0,1,0,0,0,0,1,hexagon,star,,,,,,,,,,,,,,,,,,,,,,,,,,,,,,,,,,,,,,,,,,,,,,,,,,,,,,
292942,2022-09-27_22h10.27.052,vts_reward_expectancy,2022.2.4,MacIntel,60.0024001,Chrome,1440,900,,,l,1.3245,1,447,2,0,5,5,6,1,0,0,1,0,1,0,0,0,hexagon,triangle,,,,,,,,,,,,,,,,,,,,,,,,,,,,,,,,,,,,,,,,,,,,,,,,,,,,,,
292942,2022-09-27_22h10.27.052,vts_reward_expectancy,2022.2.4,MacIntel,60.0024001,Chrome,1440,900,,,a,1.0998,10,457,2,0,6,6,1,1,1,0,0,0,0,0,1,0,triangle,hexagon,,,,,,,,,,,,,,,,,,,,,,,,,,,,,,,,,,,,,,,,,,,,,,,,,,,,,,
292942,2022-09-27_22h10.27.052,vts_reward_expectancy,2022.2.4,MacIntel,60.0024001,Chrome,1440,900,,,a,1.5028,10,467,2,0,7,7,2,1,1,0,0,0,0,0,0,1,triangle,star,,,,,,,,,,,,,,,,,,,,,,,,,,,,,,,,,,,,,,,,,,,,,,,,,,,,,,
292942,2022-09-27_22h10.27.052,vts_reward_expectancy,2022.2.4,MacIntel,60.0024001,Chrome,1440,900,,,l,0.9181,1,468,2,0,8,8,10,1,0,0,0,1,0,1,0,0,star ,circle,,,,,,,,,,,,,,,,,,,,,,,,,,,,,,,,,,,,,,,,,,,,,,,,,,,,,,
292942,2022-09-27_22h10.27.052,vts_reward_expectancy,2022.2.4,MacIntel,60.0024001,Chrome,1440,900,,,l,2.2998,10,478,2,0,9,9,4,1,0,1,0,0,0,0,1,0,circle,hexagon,,,,,,,,,,,,,,,,,,,,,,,,,,,,,,,,,,,,,,,,,,,,,,,,,,,,,,
292942,2022-09-27_22h10.27.052,vts_reward_expectancy,2022.2.4,MacIntel,60.0024001,Chrome,1440,900,,,l,1.8676,10,488,2,0,10,10,9,1,0,0,0,1,1,0,0,0,star,triangle,,,,,,,,,,,,,,,,,,,,,,,,,,,,,,,,,,,,,,,,,,,,,,,,,,,,,,
292942,2022-09-27_22h10.27.052,vts_reward_expectancy,2022.2.4,MacIntel,60.0024001,Chrome,1440,900,,,l,11.4673,1,489,2,0,11,11,11,1,0,0,0,1,0,0,1,0,star,hexagon,,,,,,,,,,,,,,,,,,,,,,,,,,,,,,,,,,,,,,,,,,,,,,,,,,,,,,
292942,2022-09-27_22h10.27.052,vts_reward_expectancy,2022.2.4,MacIntel,60.0024001,Chrome,1440,900,,,l,5.2838,10,499,2,1,0,12,8,1,0,0,1,0,0,0,0,1,hexagon,star,,,,,,,,,,,,,,,,,,,,,,,,,,,,,,,,,,,,,,,,,,,,,,,,,,,,,,
292942,2022-09-27_22h10.27.052,vts_reward_expectancy,2022.2.4,MacIntel,60.0024001,Chrome,1440,900,,,l,1.1015,10,509,2,1,1,13,2,1,1,0,0,0,0,0,0,1,triangle,star,,,,,,,,,,,,,,,,,,,,,,,,,,,,,,,,,,,,,,,,,,,,,,,,,,,,,,
292942,2022-09-27_22h10.27.052,vts_reward_expectancy,2022.2.4,MacIntel,60.0024001,Chrome,1440,900,,,l,1.5999,1,510,2,1,2,14,5,1,0,1,0,0,0,0,0,1,circle,star,,,,,,,,,,,,,,,,,,,,,,,,,,,,,,,,,,,,,,,,,,,,,,,,,,,,,,
292942,2022-09-27_22h10.27.052,vts_reward_expectancy,2022.2.4,MacIntel,60.0024001,Chrome,1440,900,,,l,2.0192,1,511,2,1,3,15,4,1,0,1,0,0,0,0,1,0,circle,hexagon,,,,,,,,,,,,,,,,,,,,,,,,,,,,,,,,,,,,,,,,,,,,,,,,,,,,,,
292942,2022-09-27_22h10.27.052,vts_reward_expectancy,2022.2.4,MacIntel,60.0024001,Chrome,1440,900,,,l,1.6559,1,512,2,1,4,16,0,1,1,0,0,0,0,1,0,0,triangle,circle,,,,,,,,,,,,,,,,,,,,,,,,,,,,,,,,,,,,,,,,,,,,,,,,,,,,,,
292942,2022-09-27_22h10.27.052,vts_reward_expectancy,2022.2.4,MacIntel,60.0024001,Chrome,1440,900,,,a,4.3172,10,522,2,1,5,17,6,1,0,0,1,0,1,0,0,0,hexagon,triangle,,,,,,,,,,,,,,,,,,,,,,,,,,,,,,,,,,,,,,,,,,,,,,,,,,,,,,
292942,2022-09-27_22h10.27.052,vts_reward_expectancy,2022.2.4,MacIntel,60.0024001,Chrome,1440,900,,,a,2.891,1,523,2,1,6,18,1,1,1,0,0,0,0,0,1,0,triangle,hexagon,,,,,,,,,,,,,,,,,,,,,,,,,,,,,,,,,,,,,,,,,,,,,,,,,,,,,,
292942,2022-09-27_22h10.27.052,vts_reward_expectancy,2022.2.4,MacIntel,60.0024001,Chrome,1440,900,,,a,2.9163,1,524,2,1,7,19,9,1,0,0,0,1,1,0,0,0,star,triangle,,,,,,,,,,,,,,,,,,,,,,,,,,,,,,,,,,,,,,,,,,,,,,,,,,,,,,
292942,2022-09-27_22h10.27.052,vts_reward_expectancy,2022.2.4,MacIntel,60.0024001,Chrome,1440,900,,,a,1.42,10,534,2,1,8,20,11,1,0,0,0,1,0,0,1,0,star,hexagon,,,,,,,,,,,,,,,,,,,,,,,,,,,,,,,,,,,,,,,,,,,,,,,,,,,,,,
292942,2022-09-27_22h10.27.052,vts_reward_expectancy,2022.2.4,MacIntel,60.0024001,Chrome,1440,900,,,a,1.8872,10,544,2,1,9,21,10,1,0,0,0,1,0,1,0,0,star ,circle,,,,,,,,,,,,,,,,,,,,,,,,,,,,,,,,,,,,,,,,,,,,,,,,,,,,,,
292942,2022-09-27_22h10.27.052,vts_reward_expectancy,2022.2.4,MacIntel,60.0024001,Chrome,1440,900,,,l,0.8705,1,545,2,1,10,22,7,1,0,0,1,0,0,1,0,0,hexagon,circle,,,,,,,,,,,,,,,,,,,,,,,,,,,,,,,,,,,,,,,,,,,,,,,,,,,,,,
292942,2022-09-27_22h10.27.052,vts_reward_expectancy,2022.2.4,MacIntel,60.0024001,Chrome,1440,900,,,l,3.5378,10,555,2,1,11,23,3,1,0,1,0,0,1,0,0,0,circle,triangle,,,,,,,,,,,,,,,,,,,,,,,,,,,,,,,,,,,,,,,,,,,,,,,,,,,,,,
292942,2022-09-27_22h10.27.052,vts_reward_expectancy,2022.2.4,MacIntel,60.0024001,Chrome,1440,900,,,l,0.4182,10,565,2,2,0,24,3,1,0,1,0,0,1,0,0,0,circle,triangle,,,,,,,,,,,,,,,,,,,,,,,,,,,,,,,,,,,,,,,,,,,,,,,,,,,,,,
292942,2022-09-27_22h10.27.052,vts_reward_expectancy,2022.2.4,MacIntel,60.0024001,Chrome,1440,900,,,l,0.7681,1,566,2,2,1,25,11,1,0,0,0,1,0,0,1,0,star,hexagon,,,,,,,,,,,,,,,,,,,,,,,,,,,,,,,,,,,,,,,,,,,,,,,,,,,,,,
292942,2022-09-27_22h10.27.052,vts_reward_expectancy,2022.2.4,MacIntel,60.0024001,Chrome,1440,900,,,l,2.0344,1,567,2,2,2,26,8,1,0,0,1,0,0,0,0,1,hexagon,star,,,,,,,,,,,,,,,,,,,,,,,,,,,,,,,,,,,,,,,,,,,,,,,,,,,,,,
292942,2022-09-27_22h10.27.052,vts_reward_expectancy,2022.2.4,MacIntel,60.0024001,Chrome,1440,900,,,l,2.215,1,568,2,2,3,27,5,1,0,1,0,0,0,0,0,1,circle,star,,,,,,,,,,,,,,,,,,,,,,,,,,,,,,,,,,,,,,,,,,,,,,,,,,,,,,
292942,2022-09-27_22h10.27.052,vts_reward_expectancy,2022.2.4,MacIntel,60.0024001,Chrome,1440,900,,,a,1.8414,1,569,2,2,4,28,10,1,0,0,0,1,0,1,0,0,star ,circle,,,,,,,,,,,,,,,,,,,,,,,,,,,,,,,,,,,,,,,,,,,,,,,,,,,,,,
292942,2022-09-27_22h10.27.052,vts_reward_expectancy,2022.2.4,MacIntel,60.0024001,Chrome,1440,900,,,a,0.6235,10,579,2,2,5,29,1,1,1,0,0,0,0,0,1,0,triangle,hexagon,,,,,,,,,,,,,,,,,,,,,,,,,,,,,,,,,,,,,,,,,,,,,,,,,,,,,,
292942,2022-09-27_22h10.27.052,vts_reward_expectancy,2022.2.4,MacIntel,60.0024001,Chrome,1440,900,,,a,1.3201,10,589,2,2,6,30,0,1,1,0,0,0,0,1,0,0,triangle,circle,,,,,,,,,,,,,,,,,,,,,,,,,,,,,,,,,,,,,,,,,,,,,,,,,,,,,,
292942,2022-09-27_22h10.27.052,vts_reward_expectancy,2022.2.4,MacIntel,60.0024001,Chrome,1440,900,,,a,8.5431,10,599,2,2,7,31,9,1,0,0,0,1,1,0,0,0,star,triangle,,,,,,,,,,,,,,,,,,,,,,,,,,,,,,,,,,,,,,,,,,,,,,,,,,,,,,
292942,2022-09-27_22h10.27.052,vts_reward_expectancy,2022.2.4,MacIntel,60.0024001,Chrome,1440,900,,,l,12.953,1,600,2,2,8,32,4,1,0,1,0,0,0,0,1,0,circle,hexagon,,,,,,,,,,,,,,,,,,,,,,,,,,,,,,,,,,,,,,,,,,,,,,,,,,,,,,
292942,2022-09-27_22h10.27.052,vts_reward_expectancy,2022.2.4,MacIntel,60.0024001,Chrome,1440,900,,,l,0.9931,1,601,2,2,9,33,2,1,1,0,0,0,0,0,0,1,triangle,star,,,,,,,,,,,,,,,,,,,,,,,,,,,,,,,,,,,,,,,,,,,,,,,,,,,,,,
292942,2022-09-27_22h10.27.052,vts_reward_expectancy,2022.2.4,MacIntel,60.0024001,Chrome,1440,900,,,l,0.8537,10,611,2,2,10,34,6,1,0,0,1,0,1,0,0,0,hexagon,triangle,,,,,,,,,,,,,,,,,,,,,,,,,,,,,,,,,,,,,,,,,,,,,,,,,,,,,,
292942,2022-09-27_22h10.27.052,vts_reward_expectancy,2022.2.4,MacIntel,60.0024001,Chrome,1440,900,,,l,3.6002,10,621,2,2,11,35,7,1,0,0,1,0,0,1,0,0,hexagon,circle,,,,,,,,,,,,,,,,,,,,,,,,,,,,,,,,,,,,,,,,,,,,,,,,,,,,,,
292942,2022-09-27_22h10.27.052,vts_reward_expectancy,2022.2.4,MacIntel,60.0024001,Chrome,1440,900,,,,,,,,,,,,,,,,,,,,,,,125,B,circle,0,0,,0,0,0,0,0,1,,,,,,,,,,,,,,,,,,,,,,,,,,,,,,,,,,,,,,,,,,
292942,2022-09-27_22h10.27.052,vts_reward_expectancy,2022.2.4,MacIntel,60.0024001,Chrome,1440,900,,,,,,,,,,,,,,,,,,,,,,,167,Y,star,0,1,d,0,1,0,1,0,1,1.5634,,,,,,,,,,,,,,,,,,,,,,,,,,,,,,,,,,,,,,,,,
292942,2022-09-27_22h10.27.052,vts_reward_expectancy,2022.2.4,MacIntel,60.0024001,Chrome,1440,900,,,,,,,,,,,,,,,,,,,,,,,139,S,hexagon,1,1,d,0,2,0,2,0,1,0.8778,,,,,,,,,,,,,,,,,,,,,,,,,,,,,,,,,,,,,,,,,
292942,2022-09-27_22h10.27.052,vts_reward_expectancy,2022.2.4,MacIntel,60.0024001,Chrome,1440,900,,,,,,,,,,,,,,,,,,,,,,,132,H,triangle,1,0,d,0,3,0,3,0,1,0.5312,,,,,,,,,,,,,,,,,,,,,,,,,,,,,,,,,,,,,,,,,
292942,2022-09-27_22h10.27.052,vts_reward_expectancy,2022.2.4,MacIntel,60.0024001,Chrome,1440,900,,,,,,,,,,,,,,,,,,,,,,,146,F,circle,1,0,d,0,4,0,4,0,1,0.9632,,,,,,,,,,,,,,,,,,,,,,,,,,,,,,,,,,,,,,,,,
292942,2022-09-27_22h10.27.052,vts_reward_expectancy,2022.2.4,MacIntel,60.0024001,Chrome,1440,900,,,,,,,,,,,,,,,,,,,,,,,160,W,star,1,0,f,0,5,0,5,0,1,0.6166,,,,,,,,,,,,,,,,,,,,,,,,,,,,,,,,,,,,,,,,,
292942,2022-09-27_22h10.27.052,vts_reward_expectancy,2022.2.4,MacIntel,60.0024001,Chrome,1440,900,,,,,,,,,,,,,,,,,,,,,,,181,U,hexagon,1,0,f,0,6,0,6,0,1,0.5939,,,,,,,,,,,,,,,,,,,,,,,,,,,,,,,,,,,,,,,,,
292942,2022-09-27_22h10.27.052,vts_reward_expectancy,2022.2.4,MacIntel,60.0024001,Chrome,1440,900,,,,,,,,,,,,,,,,,,,,,,,174,D,triangle,1,0,f,0,7,0,7,0,1,0.7146,,,,,,,,,,,,,,,,,,,,,,,,,,,,,,,,,,,,,,,,,
292942,2022-09-27_22h10.27.052,vts_reward_expectancy,2022.2.4,MacIntel,60.0024001,Chrome,1440,900,,,,,,,,,,,,,,,,,,,,,,,125,B,triangle,1,0,d,0,8,0,8,0,1,0.9807,,,,,,,,,,,,,,,,,,,,,,,,,,,,,,,,,,,,,,,,,
292942,2022-09-27_22h10.27.052,vts_reward_expectancy,2022.2.4,MacIntel,60.0024001,Chrome,1440,900,,,,,,,,,,,,,,,,,,,,,,,167,Y,hexagon,1,0,f,0,9,0,9,0,1,0.8649,,,,,,,,,,,,,,,,,,,,,,,,,,,,,,,,,,,,,,,,,
292942,2022-09-27_22h10.27.052,vts_reward_expectancy,2022.2.4,MacIntel,60.0024001,Chrome,1440,900,,,,,,,,,,,,,,,,,,,,,,,181,U,hexagon,1,0,f,1,0,0,0,0,1,1.3121,,,,,,,,,,,,,,,,,,,,,,,,,,,,,,,,,,,,,,,,,
292942,2022-09-27_22h10.27.052,vts_reward_expectancy,2022.2.4,MacIntel,60.0024001,Chrome,1440,900,,,,,,,,,,,,,,,,,,,,,,,146,Y,circle,1,0,d,1,1,0,1,0,1,1.333,,,,,,,,,,,,,,,,,,,,,,,,,,,,,,,,,,,,,,,,,
292942,2022-09-27_22h10.27.052,vts_reward_expectancy,2022.2.4,MacIntel,60.0024001,Chrome,1440,900,,,,,,,,,,,,,,,,,,,,,,,174,F,triangle,1,0,f,1,2,0,2,0,1,1.4791,,,,,,,,,,,,,,,,,,,,,,,,,,,,,,,,,,,,,,,,,
292942,2022-09-27_22h10.27.052,vts_reward_expectancy,2022.2.4,MacIntel,60.0024001,Chrome,1440,900,,,,,,,,,,,,,,,,,,,,,,,139,B,star,1,0,d,1,3,0,3,0,1,0.7943,,,,,,,,,,,,,,,,,,,,,,,,,,,,,,,,,,,,,,,,,
292942,2022-09-27_22h10.27.052,vts_reward_expectancy,2022.2.4,MacIntel,60.0024001,Chrome,1440,900,,,,,,,,,,,,,,,,,,,,,,,160,H,hexagon,1,0,f,1,4,0,4,0,1,1.1201,,,,,,,,,,,,,,,,,,,,,,,,,,,,,,,,,,,,,,,,,
292942,2022-09-27_22h10.27.052,vts_reward_expectancy,2022.2.4,MacIntel,60.0024001,Chrome,1440,900,,,,,,,,,,,,,,,,,,,,,,,132,W,circle,1,0,d,1,5,0,5,0,1,0.8982,,,,,,,,,,,,,,,,,,,,,,,,,,,,,,,,,,,,,,,,,
292942,2022-09-27_22h10.27.052,vts_reward_expectancy,2022.2.4,MacIntel,60.0024001,Chrome,1440,900,,,,,,,,,,,,,,,,,,,,,,,167,S,triangle,1,0,f,1,6,0,6,0,1,1.0674,,,,,,,,,,,,,,,,,,,,,,,,,,,,,,,,,,,,,,,,,
292942,2022-09-27_22h10.27.052,vts_reward_expectancy,2022.2.4,MacIntel,60.0024001,Chrome,1440,900,,,,,,,,,,,,,,,,,,,,,,,125,D,star,1,0,d,1,7,0,7,0,1,0.7644,,,,,,,,,,,,,,,,,,,,,,,,,,,,,,,,,,,,,,,,,
292942,2022-09-27_22h10.27.052,vts_reward_expectancy,2022.2.4,MacIntel,60.0024001,Chrome,1440,900,,,,,,,,,,,,,,,,,,,,,,,181,U,star,1,0,f,1,8,0,8,0,1,0.9809,,,,,,,,,,,,,,,,,,,,,,,,,,,,,,,,,,,,,,,,,
292942,2022-09-27_22h10.27.052,vts_reward_expectancy,2022.2.4,MacIntel,60.0024001,Chrome,1440,900,,,,,,,,,,,,,,,,,,,,,,,146,Y,triangle,1,0,d,1,9,0,9,0,1,0.7155,,,,,,,,,,,,,,,,,,,,,,,,,,,,,,,,,,,,,,,,,
292942,2022-09-27_22h10.27.052,vts_reward_expectancy,2022.2.4,MacIntel,60.0024001,Chrome,1440,900,,,,,,,,,,,,,,,,,,,,,,,146,D,star,1,0,,2,,,,,,,j,0.8953,0,0,0,0,1,,,,,,,,,,,,,,,,,,,,,,,,,,,,,,,,,,
292942,2022-09-27_22h10.27.052,vts_reward_expectancy,2022.2.4,MacIntel,60.0024001,Chrome,1440,900,,,,,,,,,,,,,,,,,,,,,,,139,U,hexagon,1,0,,2,,,,,,,k,0.5644,1,0,1,0,1,,,,,,,,,,,,,,,,,,,,,,,,,,,,,,,,,,
292942,2022-09-27_22h10.27.052,vts_reward_expectancy,2022.2.4,MacIntel,60.0024001,Chrome,1440,900,,,,,,,,,,,,,,,,,,,,,,,125,H,triangle,1,0,,2,,,,,,,j,0.5305,2,0,2,0,1,,,,,,,,,,,,,,,,,,,,,,,,,,,,,,,,,,
292942,2022-09-27_22h10.27.052,vts_reward_expectancy,2022.2.4,MacIntel,60.0024001,Chrome,1440,900,,,,,,,,,,,,,,,,,,,,,,,160,B,circle,1,0,,2,,,,,,,j,0.6127,3,0,3,0,1,,,,,,,,,,,,,,,,,,,,,,,,,,,,,,,,,,
292942,2022-09-27_22h10.27.052,vts_reward_expectancy,2022.2.4,MacIntel,60.0024001,Chrome,1440,900,,,,,,,,,,,,,,,,,,,,,,,132,W,star,1,0,,2,,,,,,,k,0.7291,4,0,4,0,1,,,,,,,,,,,,,,,,,,,,,,,,,,,,,,,,,,
292942,2022-09-27_22h10.27.052,vts_reward_expectancy,2022.2.4,MacIntel,60.0024001,Chrome,1440,900,,,,,,,,,,,,,,,,,,,,,,,181,S,hexagon,1,0,,2,,,,,,,k,1.0807,5,0,5,0,1,,,,,,,,,,,,,,,,,,,,,,,,,,,,,,,,,,
292942,2022-09-27_22h10.27.052,vts_reward_expectancy,2022.2.4,MacIntel,60.0024001,Chrome,1440,900,,,,,,,,,,,,,,,,,,,,,,,167,Y,triangle,1,0,,2,,,,,,,k,0.8881,6,0,6,0,1,,,,,,,,,,,,,,,,,,,,,,,,,,,,,,,,,,
292942,2022-09-27_22h10.27.052,vts_reward_expectancy,2022.2.4,MacIntel,60.0024001,Chrome,1440,900,,,,,,,,,,,,,,,,,,,,,,,174,F,circle,1,0,,2,,,,,,,j,1.183,7,0,7,0,1,,,,,,,,,,,,,,,,,,,,,,,,,,,,,,,,,,
292942,2022-09-27_22h10.27.052,vts_reward_expectancy,2022.2.4,MacIntel,60.0024001,Chrome,1440,900,,,,,,,,,,,,,,,,,,,,,,,146,D,hexagon,1,0,,2,,,,,,,j,0.4812,8,0,8,0,1,,,,,,,,,,,,,,,,,,,,,,,,,,,,,,,,,,
292942,2022-09-27_22h10.27.052,vts_reward_expectancy,2022.2.4,MacIntel,60.0024001,Chrome,1440,900,,,,,,,,,,,,,,,,,,,,,,,139,U,circle,1,0,,2,,,,,,,k,0.7646,9,0,9,0,1,,,,,,,,,,,,,,,,,,,,,,,,,,,,,,,,,,
292942,2022-09-27_22h10.27.052,vts_reward_expectancy,2022.2.4,MacIntel,60.0024001,Chrome,1440,900,,,,,0,621,,,,,,,,,,,,,,,,,160,F,star,1,0,,3,,,,,,,,,,,,,,-1,letter,NA,j,1.9457,vtsPrac,0,0,0,0,1,,,,,,,,,,,,,,,,,,,,,,,
292942,2022-09-27_22h10.27.052,vts_reward_expectancy,2022.2.4,MacIntel,60.0024001,Chrome,1440,900,,,,,0,621,,,,,,,,,,,,,,,,,132,U,circle,1,0,,3,,,,,,,,,,,,,,repeat,letter,lettRpt,k,0.9321,vtsPrac,1,0,1,0,1,,,,,,,,,,,,,,,,,,,,,,,
292942,2022-09-27_22h10.27.052,vts_reward_expectancy,2022.2.4,MacIntel,60.0024001,Chrome,1440,900,,,,,0,621,,,,,,,,,,,,,,,,,167,H,star,1,0,,3,,,,,,,,,,,,,,repeat,letter,lettRpt,j,0.7979,vtsPrac,2,0,2,0,1,,,,,,,,,,,,,,,,,,,,,,,
292942,2022-09-27_22h10.27.052,vts_reward_expectancy,2022.2.4,MacIntel,60.0024001,Chrome,1440,900,,,,,0,621,,,,,,,,,,,,,,,,,146,D,circle,1,0,,3,,,,,,,,,,,,,,repeat,letter,lettRpt,j,0.5831,vtsPrac,3,0,3,0,1,,,,,,,,,,,,,,,,,,,,,,,
292942,2022-09-27_22h10.27.052,vts_reward_expectancy,2022.2.4,MacIntel,60.0024001,Chrome,1440,900,,,,,0,621,,,,,,,,,,,,,,,,,160,F,hexagon,1,0,,3,,,,,,,,,,,,,,repeat,letter,lettRpt,j,0.9477,vtsPrac,4,0,4,0,1,,,,,,,,,,,,,,,,,,,,,,,
292942,2022-09-27_22h10.27.052,vts_reward_expectancy,2022.2.4,MacIntel,60.0024001,Chrome,1440,900,,,,,0,621,,,,,,,,,,,,,,,,,132,U,triangle,1,0,,3,,,,,,,,,,,,,,repeat,letter,lettRpt,k,0.7894,vtsPrac,5,0,5,0,1,,,,,,,,,,,,,,,,,,,,,,,
292942,2022-09-27_22h10.27.052,vts_reward_expectancy,2022.2.4,MacIntel,60.0024001,Chrome,1440,900,,,,,0,621,,,,,,,,,,,,,,,,,167,H,hexagon,1,0,,3,,,,,,,,,,,,,,repeat,letter,lettRpt,j,1.0466,vtsPrac,6,0,6,0,1,,,,,,,,,,,,,,,,,,,,,,,
292942,2022-09-27_22h10.27.052,vts_reward_expectancy,2022.2.4,MacIntel,60.0024001,Chrome,1440,900,,,,,0,621,,,,,,,,,,,,,,,,,146,D,triangle,1,0,,3,,,,,,,,,,,,,,repeat,letter,lettRpt,j,0.6991,vtsPrac,7,0,7,0,1,,,,,,,,,,,,,,,,,,,,,,,
292942,2022-09-27_22h10.27.052,vts_reward_expectancy,2022.2.4,MacIntel,60.0024001,Chrome,1440,900,,,,,0,621,,,,,,,,,,,,,,,,,174,S,triangle,1,0,,3,,,,,,,,,,,,,,repeat,letter,lettRpt,k,0.9073,vtsPrac,8,0,8,0,1,,,,,,,,,,,,,,,,,,,,,,,
292942,2022-09-27_22h10.27.052,vts_reward_expectancy,2022.2.4,MacIntel,60.0024001,Chrome,1440,900,,,,,0,621,,,,,,,,,,,,,,,,,125,F,circle,1,0,,3,,,,,,,,,,,,,,repeat,letter,lettRpt,j,0.634,vtsPrac,9,0,9,0,1,,,,,,,,,,,,,,,,,,,,,,,
292942,2022-09-27_22h10.27.052,vts_reward_expectancy,2022.2.4,MacIntel,60.0024001,Chrome,1440,900,,,,,0,621,,,,,,,,,,,,,,,,,139,Y,circle,1,0,,3,,,,,,,,,,,,,,repeat,letter,lettRpt,k,0.9142,vtsPrac,10,0,10,0,1,,,,,,,,,,,,,,,,,,,,,,,
292942,2022-09-27_22h10.27.052,vts_reward_expectancy,2022.2.4,MacIntel,60.0024001,Chrome,1440,900,,,,,0,621,,,,,,,,,,,,,,,,,181,D,hexagon,1,0,,3,,,,,,,,,,,,,,repeat,letter,lettRpt,j,0.5587,vtsPrac,11,0,11,0,1,,,,,,,,,,,,,,,,,,,,,,,
292942,2022-09-27_22h10.27.052,vts_reward_expectancy,2022.2.4,MacIntel,60.0024001,Chrome,1440,900,,,,,0,621,,,,,,,,,,,,,,,,,132,U,circle,1,0,,3,,,,,,,,,,,,,,repeat,letter,lettRpt,k,0.7784,vtsPrac,12,0,12,0,1,,,,,,,,,,,,,,,,,,,,,,,
292942,2022-09-27_22h10.27.052,vts_reward_expectancy,2022.2.4,MacIntel,60.0024001,Chrome,1440,900,,,,,0,621,,,,,,,,,,,,,,,,,174,B,star,1,0,,3,,,,,,,,,,,,,,repeat,letter,lettRpt,j,1.2163,vtsPrac,13,0,13,0,1,,,,,,,,,,,,,,,,,,,,,,,
292942,2022-09-27_22h10.27.052,vts_reward_expectancy,2022.2.4,MacIntel,60.0024001,Chrome,1440,900,,,,,0,621,,,,,,,,,,,,,,,,,160,W,star,1,0,,3,,,,,,,,,,,,,,repeat,letter,lettRpt,k,0.9797,vtsPrac,14,0,14,0,1,,,,,,,,,,,,,,,,,,,,,,,
292942,2022-09-27_22h10.27.052,vts_reward_expectancy,2022.2.4,MacIntel,60.0024001,Chrome,1440,900,,,,,0,621,,,,,,,,,,,,,,,,,167,Y,circle,1,0,,3,,,,,,,,,,,,,,repeat,letter,lettRpt,k,1.2977,vtsPrac,15,0,15,0,1,,,,,,,,,,,,,,,,,,,,,,,
292942,2022-09-27_22h10.27.052,vts_reward_expectancy,2022.2.4,MacIntel,60.0024001,Chrome,1440,900,,,,,0,621,,,,,,,,,,,,,,,,,125,F,circle,1,0,,4,,,,,,,,,,,,,,repeat,letter,lettRpt,j,0.997,vtsPrac,0,0,0,0,1,,,,,,,,,,,,,,,,,,,,,,,
292942,2022-09-27_22h10.27.052,vts_reward_expectancy,2022.2.4,MacIntel,60.0024001,Chrome,1440,900,,,,,0,621,,,,,,,,,,,,,,,,,132,W,triangle,1,0,,4,,,,,,,,,,,,,,repeat,letter,lettRpt,k,1.5781,vtsPrac,1,0,1,0,1,,,,,,,,,,,,,,,,,,,,,,,
292942,2022-09-27_22h10.27.052,vts_reward_expectancy,2022.2.4,MacIntel,60.0024001,Chrome,1440,900,,,,,0,621,,,,,,,,,,,,,,,,,160,S,circle,1,0,,4,,,,,,,,,,,,,,switch,number,numSwt,f,0.995,vtsPrac,2,0,2,0,1,,,,,,,,,,,,,,,,,,,,,,,
292942,2022-09-27_22h10.27.052,vts_reward_expectancy,2022.2.4,MacIntel,60.0024001,Chrome,1440,900,,,,,0,621,,,,,,,,,,,,,,,,,167,B,triangle,1,0,,4,,,,,,,,,,,,,,switch,letter,lettSwt,j,0.7643,vtsPrac,3,0,3,0,1,,,,,,,,,,,,,,,,,,,,,,,
292942,2022-09-27_22h10.27.052,vts_reward_expectancy,2022.2.4,MacIntel,60.0024001,Chrome,1440,900,,,,,0,621,,,,,,,,,,,,,,,,,125,F,triangle,1,0,,4,,,,,,,,,,,,,,switch,number,numSwt,d,1.4378,vtsPrac,4,0,4,0,1,,,,,,,,,,,,,,,,,,,,,,,
292942,2022-09-27_22h10.27.052,vts_reward_expectancy,2022.2.4,MacIntel,60.0024001,Chrome,1440,900,,,,,0,621,,,,,,,,,,,,,,,,,132,W,circle,1,0,,4,,,,,,,,,,,,,,repeat,number,numRpt,d,0.929,vtsPrac,5,0,5,0,1,,,,,,,,,,,,,,,,,,,,,,,
292942,2022-09-27_22h10.27.052,vts_reward_expectancy,2022.2.4,MacIntel,60.0024001,Chrome,1440,900,,,,,0,621,,,,,,,,,,,,,,,,,160,S,circle,1,0,,4,,,,,,,,,,,,,,switch,letter,lettSwt,k,1.6309,vtsPrac,6,0,6,0,1,,,,,,,,,,,,,,,,,,,,,,,
292942,2022-09-27_22h10.27.052,vts_reward_expectancy,2022.2.4,MacIntel,60.0024001,Chrome,1440,900,,,,,0,621,,,,,,,,,,,,,,,,,167,B,hexagon,1,0,,4,,,,,,,,,,,,,,switch,number,numSwt,f,1.5477,vtsPrac,7,0,7,0,1,,,,,,,,,,,,,,,,,,,,,,,
292942,2022-09-27_22h10.27.052,vts_reward_expectancy,2022.2.4,MacIntel,60.0024001,Chrome,1440,900,,,,,0,621,,,,,,,,,,,,,,,,,139,Y,triangle,1,0,,4,,,,,,,,,,,,,,switch,letter,lettSwt,k,1.4294,vtsPrac,8,0,8,0,1,,,,,,,,,,,,,,,,,,,,,,,
292942,2022-09-27_22h10.27.052,vts_reward_expectancy,2022.2.4,MacIntel,60.0024001,Chrome,1440,900,,,,,0,621,,,,,,,,,,,,,,,,,181,F,star,1,0,,4,,,,,,,,,,,,,,repeat,letter,lettRpt,j,2.0125,vtsPrac,9,0,9,0,1,,,,,,,,,,,,,,,,,,,,,,,
292942,2022-09-27_22h10.27.052,vts_reward_expectancy,2022.2.4,MacIntel,60.0024001,Chrome,1440,900,,,,,0,621,,,,,,,,,,,,,,,,,174,B,hexagon,1,0,,4,,,,,,,,,,,,,,repeat,letter,lettRpt,j,1.5078,vtsPrac,10,0,10,0,1,,,,,,,,,,,,,,,,,,,,,,,
292942,2022-09-27_22h10.27.052,vts_reward_expectancy,2022.2.4,MacIntel,60.0024001,Chrome,1440,900,,,,,0,621,,,,,,,,,,,,,,,,,167,H,triangle,1,0,,4,,,,,,,,,,,,,,switch,number,numSwt,f,1.0764,vtsPrac,11,0,11,0,1,,,,,,,,,,,,,,,,,,,,,,,
292942,2022-09-27_22h10.27.052,vts_reward_expectancy,2022.2.4,MacIntel,60.0024001,Chrome,1440,900,,,,,0,621,,,,,,,,,,,,,,,,,181,D,hexagon,1,0,,4,,,,,,,,,,,,,,repeat,number,numRpt,f,1.115,vtsPrac,12,0,12,0,1,,,,,,,,,,,,,,,,,,,,,,,
292942,2022-09-27_22h10.27.052,vts_reward_expectancy,2022.2.4,MacIntel,60.0024001,Chrome,1440,900,,,,,0,621,,,,,,,,,,,,,,,,,160,W,circle,1,0,,4,,,,,,,,,,,,,,repeat,number,numRpt,f,0.7802,vtsPrac,13,0,13,0,1,,,,,,,,,,,,,,,,,,,,,,,
292942,2022-09-27_22h10.27.052,vts_reward_expectancy,2022.2.4,MacIntel,60.0024001,Chrome,1440,900,,,,,0,621,,,,,,,,,,,,,,,,,125,F,triangle,1,0,,4,,,,,,,,,,,,,,switch,letter,lettSwt,j,1.3378,vtsPrac,14,0,14,0,1,,,,,,,,,,,,,,,,,,,,,,,
292942,2022-09-27_22h10.27.052,vts_reward_expectancy,2022.2.4,MacIntel,60.0024001,Chrome,1440,900,,,,,0,621,,,,,,,,,,,,,,,,,167,Y,hexagon,1,0,,4,,,,,,,,,,,,,,repeat,letter,lettRpt,k,1.3819,vtsPrac,15,0,15,0,1,,,,,,,,,,,,,,,,,,,,,,,
292942,2022-09-27_22h10.27.052,vts_reward_expectancy,2022.2.4,MacIntel,60.0024001,Chrome,1440,900,,,,,,,,,,,,,,,,,,,,,,,,,,,,,,,,,,,,,,,,,,,,,,,,,,,,,,,,,,,,,,,,,,,,,,,,,,,,
292942,2022-09-27_22h10.27.052,vts_reward_expectancy,2022.2.4,MacIntel,60.0024001,Chrome,1440,900,,,,,,,,,,,,,,,,,,,,,,,,,,,,,,,,,,,,,,,,,,,,,,,,,,,,,,,,,,,,,,,,,,,,,,,,,,,,
292942,2022-09-27_22h10.27.052,vts_reward_expectancy,2022.2.4,MacIntel,60.0024001,Chrome,1440,900,,,,,0,621,,,,,,,,,,,,,,,,,160,D,star,1,0,,,,,,,,,,,,,,,,switch,number,numSwt,f,1.8453,noRew,,,,,,0,0,0,0,0,1,,,,,,,,,,,,,,,,,
292942,2022-09-27_22h10.27.052,vts_reward_expectancy,2022.2.4,MacIntel,60.0024001,Chrome,1440,900,,,,,0,621,,,,,,,,,,,,,,,,,167,W,triangle,1,0,,,,,,,,,,,,,,,,switch,letter,lettSwt,k,0.9086,noRew,,,,,,0,1,0,1,0,1,,,,,,,,,,,,,,,,,
292942,2022-09-27_22h10.27.052,vts_reward_expectancy,2022.2.4,MacIntel,60.0024001,Chrome,1440,900,,,,,0,621,,,,,,,,,,,,,,,,,181,S,star,1,0,,,,,,,,,,,,,,,,repeat,letter,lettRpt,k,0.6799,noRew,,,,,,0,2,0,2,0,1,,,,,,,,,,,,,,,,,
292942,2022-09-27_22h10.27.052,vts_reward_expectancy,2022.2.4,MacIntel,60.0024001,Chrome,1440,900,,,,,0,621,,,,,,,,,,,,,,,,,132,U,triangle,1,0,,,,,,,,,,,,,,,,repeat,letter,lettRpt,k,1.1812,noRew,,,,,,0,3,0,3,0,1,,,,,,,,,,,,,,,,,
292942,2022-09-27_22h10.27.052,vts_reward_expectancy,2022.2.4,MacIntel,60.0024001,Chrome,1440,900,,,,,0,621,,,,,,,,,,,,,,,,,160,D,star,1,0,,,,,,,,,,,,,,,,switch,number,numSwt,f,1.2631,noRew,,,,,,0,4,0,4,0,1,,,,,,,,,,,,,,,,,
292942,2022-09-27_22h10.27.052,vts_reward_expectancy,2022.2.4,MacIntel,60.0024001,Chrome,1440,900,,,,,0,621,,,,,,,,,,,,,,,,,167,W,hexagon,1,0,,,,,,,,,,,,,,,,repeat,number,numRpt,f,1.2471,noRew,,,,,,0,5,0,5,0,1,,,,,,,,,,,,,,,,,
292942,2022-09-27_22h10.27.052,vts_reward_expectancy,2022.2.4,MacIntel,60.0024001,Chrome,1440,900,,,,,0,621,,,,,,,,,,,,,,,,,181,S,hexagon,1,0,,,,,,,,,,,,,,,,switch,letter,lettSwt,k,1.7477,noRew,,,,,,0,6,0,6,0,1,,,,,,,,,,,,,,,,,
292942,2022-09-27_22h10.27.052,vts_reward_expectancy,2022.2.4,MacIntel,60.0024001,Chrome,1440,900,,,,,0,621,,,,,,,,,,,,,,,,,132,U,triangle,1,0,,,,,,,,,,,,,,,,switch,number,numSwt,d,1.6877,noRew,,,,,,0,7,0,7,0,1,,,,,,,,,,,,,,,,,
292942,2022-09-27_22h10.27.052,vts_reward_expectancy,2022.2.4,MacIntel,60.0024001,Chrome,1440,900,,,,,0,621,,,,,,,,,,,,,,,,,125,F,circle,1,0,,,,,,,,,,,,,,,,repeat,number,numRpt,d,1.0142,noRew,,,,,,0,8,0,8,0,1,,,,,,,,,,,,,,,,,
292942,2022-09-27_22h10.27.052,vts_reward_expectancy,2022.2.4,MacIntel,60.0024001,Chrome,1440,900,,,,,0,621,,,,,,,,,,,,,,,,,174,U,triangle,1,0,,,,,,,,,,,,,,,,switch,letter,lettSwt,k,1.0688,noRew,,,,,,0,9,0,9,0,1,,,,,,,,,,,,,,,,,
292942,2022-09-27_22h10.27.052,vts_reward_expectancy,2022.2.4,MacIntel,60.0024001,Chrome,1440,900,,,,,0,621,,,,,,,,,,,,,,,,,167,H,triangle,1,0,,,,,,,,,,,,,,,,repeat,letter,lettRpt,j,1.5797,noRew,,,,,,0,10,0,10,0,1,,,,,,,,,,,,,,,,,
292942,2022-09-27_22h10.27.052,vts_reward_expectancy,2022.2.4,MacIntel,60.0024001,Chrome,1440,900,,,,,0,621,,,,,,,,,,,,,,,,,139,B,hexagon,1,0,,,,,,,,,,,,,,,,repeat,letter,lettRpt,j,1.6956,noRew,,,,,,0,11,0,11,0,1,,,,,,,,,,,,,,,,,
292942,2022-09-27_22h10.27.052,vts_reward_expectancy,2022.2.4,MacIntel,60.0024001,Chrome,1440,900,,,,,0,621,,,,,,,,,,,,,,,,,167,H,circle,1,0,,,,,,,,,,,,,,,,switch,number,numSwt,f,1.6119,noRew,,,,,,0,12,0,12,0,1,,,,,,,,,,,,,,,,,
292942,2022-09-27_22h10.27.052,vts_reward_expectancy,2022.2.4,MacIntel,60.0024001,Chrome,1440,900,,,,,0,621,,,,,,,,,,,,,,,,,181,B,star,1,0,,,,,,,,,,,,,,,,repeat,number,numRpt,f,1.7607,noRew,,,,,,0,13,0,13,0,1,,,,,,,,,,,,,,,,,
292942,2022-09-27_22h10.27.052,vts_reward_expectancy,2022.2.4,MacIntel,60.0024001,Chrome,1440,900,,,,,0,621,,,,,,,,,,,,,,,,,132,D,star,1,0,,,,,,,,,,,,,,,,repeat,number,numRpt,d,1.5802,noRew,,,,,,0,14,0,14,0,1,,,,,,,,,,,,,,,,,
292942,2022-09-27_22h10.27.052,vts_reward_expectancy,2022.2.4,MacIntel,60.0024001,Chrome,1440,900,,,,,0,621,,,,,,,,,,,,,,,,,125,Y,triangle,1,0,,,,,,,,,,,,,,,,repeat,number,numRpt,d,1.5639,noRew,,,,,,0,15,0,15,0,1,,,,,,,,,,,,,,,,,
292942,2022-09-27_22h10.27.052,vts_reward_expectancy,2022.2.4,MacIntel,60.0024001,Chrome,1440,900,,,,,0,621,,,,,,,,,,,,,,,,,181,D,triangle,1,0,,,,,,,,,,,,,,,,switch,letter,lettSwt,j,1.281,noRew,,,,,,0,16,0,16,0,1,,,,,,,,,,,,,,,,,
292942,2022-09-27_22h10.27.052,vts_reward_expectancy,2022.2.4,MacIntel,60.0024001,Chrome,1440,900,,,,,0,621,,,,,,,,,,,,,,,,,167,U,hexagon,1,0,,,,,,,,,,,,,,,,repeat,letter,lettRpt,k,1.9659,noRew,,,,,,0,17,0,17,0,1,,,,,,,,,,,,,,,,,
292942,2022-09-27_22h10.27.052,vts_reward_expectancy,2022.2.4,MacIntel,60.0024001,Chrome,1440,900,,,,,0,621,,,,,,,,,,,,,,,,,132,S,circle,1,0,,,,,,,,,,,,,,,,switch,number,numSwt,d,0.7447,noRew,,,,,,0,18,0,18,0,1,,,,,,,,,,,,,,,,,
292942,2022-09-27_22h10.27.052,vts_reward_expectancy,2022.2.4,MacIntel,60.0024001,Chrome,1440,900,,,,,0,621,,,,,,,,,,,,,,,,,146,B,star,1,0,,,,,,,,,,,,,,,,repeat,number,numRpt,d,2.1052,noRew,,,,,,0,19,0,19,0,1,,,,,,,,,,,,,,,,,
292942,2022-09-27_22h10.27.052,vts_reward_expectancy,2022.2.4,MacIntel,60.0024001,Chrome,1440,900,,,,,0,621,,,,,,,,,,,,,,,,,167,D,hexagon,1,0,,,,,,,,,,,,,,,,repeat,number,numRpt,f,1.2839,noRew,,,,,,0,20,0,20,0,1,,,,,,,,,,,,,,,,,
292942,2022-09-27_22h10.27.052,vts_reward_expectancy,2022.2.4,MacIntel,60.0024001,Chrome,1440,900,,,,,0,621,,,,,,,,,,,,,,,,,174,F,star,1,0,,,,,,,,,,,,,,,,switch,letter,lettSwt,j,2.1792,noRew,,,,,,0,21,0,21,0,1,,,,,,,,,,,,,,,,,
292942,2022-09-27_22h10.27.052,vts_reward_expectancy,2022.2.4,MacIntel,60.0024001,Chrome,1440,900,,,,,0,621,,,,,,,,,,,,,,,,,139,W,star,1,0,,,,,,,,,,,,,,,,repeat,letter,lettRpt,k,1.3798,noRew,,,,,,0,22,0,22,0,1,,,,,,,,,,,,,,,,,
292942,2022-09-27_22h10.27.052,vts_reward_expectancy,2022.2.4,MacIntel,60.0024001,Chrome,1440,900,,,,,0,621,,,,,,,,,,,,,,,,,132,B,hexagon,1,0,,,,,,,,,,,,,,,,repeat,letter,lettRpt,j,2.0467,noRew,,,,,,0,23,0,23,0,1,,,,,,,,,,,,,,,,,
292942,2022-09-27_22h10.27.052,vts_reward_expectancy,2022.2.4,MacIntel,60.0024001,Chrome,1440,900,,,,,0,621,,,,,,,,,,,,,,,,,160,Y,circle,1,0,,,,,,,,,,,,,,,,repeat,letter,lettRpt,k,1.7989,noRew,,,,,,0,24,0,24,0,1,,,,,,,,,,,,,,,,,
292942,2022-09-27_22h10.27.052,vts_reward_expectancy,2022.2.4,MacIntel,60.0024001,Chrome,1440,900,,,,,0,621,,,,,,,,,,,,,,,,,181,H,star,1,0,,,,,,,,,,,,,,,,switch,number,numSwt,f,1.9465,noRew,,,,,,0,25,0,25,0,1,,,,,,,,,,,,,,,,,
292942,2022-09-27_22h10.27.052,vts_reward_expectancy,2022.2.4,MacIntel,60.0024001,Chrome,1440,900,,,,,0,621,,,,,,,,,,,,,,,,,139,D,triangle,1,0,,,,,,,,,,,,,,,,switch,letter,lettSwt,j,1.6211,noRew,,,,,,0,26,0,26,0,1,,,,,,,,,,,,,,,,,
292942,2022-09-27_22h10.27.052,vts_reward_expectancy,2022.2.4,MacIntel,60.0024001,Chrome,1440,900,,,,,0,621,,,,,,,,,,,,,,,,,125,B,star,1,0,,,,,,,,,,,,,,,,switch,number,numSwt,d,2.8452,noRew,,,,,,0,27,0,27,0,1,,,,,,,,,,,,,,,,,
292942,2022-09-27_22h10.27.052,vts_reward_expectancy,2022.2.4,MacIntel,60.0024001,Chrome,1440,900,,,,,0,621,,,,,,,,,,,,,,,,,181,B,circle,-1,0,,,,,,,,,,,,,,,,switch,no_choice,NA,,,noRew,,,,,,0,28,0,28,0,1,,,,,,,,,,,,,,,,,
292942,2022-09-27_22h10.27.052,vts_reward_expectancy,2022.2.4,MacIntel,60.0024001,Chrome,1440,900,,,,,0,621,,,,,,,,,,,,,,,,,146,U,star,1,0,,,,,,,,,,,,,,,,switch,number,numSwt,d,1.0628,noRew,,,,,,0,29,0,29,0,1,,,,,,,,,,,,,,,,,
292942,2022-09-27_22h10.27.052,vts_reward_expectancy,2022.2.4,MacIntel,60.0024001,Chrome,1440,900,,,,,0,621,,,,,,,,,,,,,,,,,132,F,star,1,0,,,,,,,,,,,,,,,,repeat,number,numRpt,d,0.8516,noRew,,,,,,0,30,0,30,0,1,,,,,,,,,,,,,,,,,
292942,2022-09-27_22h10.27.052,vts_reward_expectancy,2022.2.4,MacIntel,60.0024001,Chrome,1440,900,,,,,0,621,,,,,,,,,,,,,,,,,174,D,hexagon,1,0,,,,,,,,,,,,,,,,switch,letter,lettSwt,j,1.5523,noRew,,,,,,0,31,0,31,0,1,,,,,,,,,,,,,,,,,
292942,2022-09-27_22h10.27.052,vts_reward_expectancy,2022.2.4,MacIntel,60.0024001,Chrome,1440,900,,,,,0,621,,,,,,,,,,,,,,,,,167,F,triangle,1,0,,,,,,,,,,,,,,,,repeat,letter,lettRpt,j,1.0304,noRew,,,,,,0,32,0,32,0,1,,,,,,,,,,,,,,,,,
292942,2022-09-27_22h10.27.052,vts_reward_expectancy,2022.2.4,MacIntel,60.0024001,Chrome,1440,900,,,,,0,621,,,,,,,,,,,,,,,,,132,Y,hexagon,1,0,,,,,,,,,,,,,,,,repeat,letter,lettRpt,k,1.3282,noRew,,,,,,0,33,0,33,0,1,,,,,,,,,,,,,,,,,
292942,2022-09-27_22h10.27.052,vts_reward_expectancy,2022.2.4,MacIntel,60.0024001,Chrome,1440,900,,,,,0,621,,,,,,,,,,,,,,,,,160,B,star,1,0,,,,,,,,,,,,,,,,switch,number,numSwt,f,1.8823,noRew,,,,,,0,34,0,34,0,1,,,,,,,,,,,,,,,,,
292942,2022-09-27_22h10.27.052,vts_reward_expectancy,2022.2.4,MacIntel,60.0024001,Chrome,1440,900,,,,,0,621,,,,,,,,,,,,,,,,,139,U,triangle,1,0,,,,,,,,,,,,,,,,switch,letter,lettSwt,k,1.3963,noRew,,,,,,0,35,0,35,0,1,,,,,,,,,,,,,,,,,
292942,2022-09-27_22h10.27.052,vts_reward_expectancy,2022.2.4,MacIntel,60.0024001,Chrome,1440,900,,,,,0,621,,,,,,,,,,,,,,,,,167,W,star,1,0,,,,,,,,,,,,,,,,repeat,letter,lettRpt,k,1.4482,noRew,,,,,,0,36,0,36,0,1,,,,,,,,,,,,,,,,,
292942,2022-09-27_22h10.27.052,vts_reward_expectancy,2022.2.4,MacIntel,60.0024001,Chrome,1440,900,,,,,0,621,,,,,,,,,,,,,,,,,160,Y,circle,1,0,,,,,,,,,,,,,,,,switch,number,numSwt,f,1.7723,noRew,,,,,,0,37,0,37,0,1,,,,,,,,,,,,,,,,,
292942,2022-09-27_22h10.27.052,vts_reward_expectancy,2022.2.4,MacIntel,60.0024001,Chrome,1440,900,,,,,0,621,,,,,,,,,,,,,,,,,125,S,triangle,1,0,,,,,,,,,,,,,,,,repeat,number,numRpt,d,1.882,noRew,,,,,,0,38,0,38,0,1,,,,,,,,,,,,,,,,,
292942,2022-09-27_22h10.27.052,vts_reward_expectancy,2022.2.4,MacIntel,60.0024001,Chrome,1440,900,,,,,0,621,,,,,,,,,,,,,,,,,139,D,hexagon,1,0,,,,,,,,,,,,,,,,repeat,number,numRpt,d,1.2013,noRew,,,,,,0,39,0,39,0,1,,,,,,,,,,,,,,,,,
292942,2022-09-27_22h10.27.052,vts_reward_expectancy,2022.2.4,MacIntel,60.0024001,Chrome,1440,900,,,,,0,621,,,,,,,,,,,,,,,,,174,D,circle,1,0,,,,,,,,,,,,,,,,repeat,number,numRpt,f,1.9186,noRew,,,,,,0,40,0,40,0,1,,,,,,,,,,,,,,,,,
292942,2022-09-27_22h10.27.052,vts_reward_expectancy,2022.2.4,MacIntel,60.0024001,Chrome,1440,900,,,,,0,621,,,,,,,,,,,,,,,,,125,W,star,1,0,,,,,,,,,,,,,,,,repeat,number,numRpt,d,1.2444,noRew,,,,,,0,41,0,41,0,1,,,,,,,,,,,,,,,,,
292942,2022-09-27_22h10.27.052,vts_reward_expectancy,2022.2.4,MacIntel,60.0024001,Chrome,1440,900,,,,,0,621,,,,,,,,,,,,,,,,,181,S,hexagon,1,0,,,,,,,,,,,,,,,,repeat,number,numRpt,f,1.6291,noRew,,,,,,0,42,0,42,0,1,,,,,,,,,,,,,,,,,
292942,2022-09-27_22h10.27.052,vts_reward_expectancy,2022.2.4,MacIntel,60.0024001,Chrome,1440,900,,,,,0,621,,,,,,,,,,,,,,,,,146,Y,circle,0,0,,,,,,,,,,,,,,,,switch,letter,NA,j,1.9295,noRew,,,,,,0,43,0,43,0,1,,,,,,,,,,,,,,,,,
292942,2022-09-27_22h10.27.052,vts_reward_expectancy,2022.2.4,MacIntel,60.0024001,Chrome,1440,900,,,,,0,621,,,,,,,,,,,,,,,,,167,B,circle,1,1,,,,,,,,,,,,,,,,switch,number,numSwt,f,1.7623,noRew,,,,,,0,44,0,44,0,1,,,,,,,,,,,,,,,,,
292942,2022-09-27_22h10.27.052,vts_reward_expectancy,2022.2.4,MacIntel,60.0024001,Chrome,1440,900,,,,,0,621,,,,,,,,,,,,,,,,,125,S,triangle,1,0,,,,,,,,,,,,,,,,repeat,number,numRpt,d,1.3139,noRew,,,,,,0,45,0,45,0,1,,,,,,,,,,,,,,,,,
292942,2022-09-27_22h10.27.052,vts_reward_expectancy,2022.2.4,MacIntel,60.0024001,Chrome,1440,900,,,,,0,621,,,,,,,,,,,,,,,,,174,D,hexagon,1,0,,,,,,,,,,,,,,,,repeat,number,numRpt,f,1.7124,noRew,,,,,,0,46,0,46,0,1,,,,,,,,,,,,,,,,,
292942,2022-09-27_22h10.27.052,vts_reward_expectancy,2022.2.4,MacIntel,60.0024001,Chrome,1440,900,,,,,0,621,,,,,,,,,,,,,,,,,146,F,triangle,1,0,,,,,,,,,,,,,,,,repeat,number,numRpt,d,1.0787,noRew,,,,,,0,47,0,47,0,1,,,,,,,,,,,,,,,,,
292942,2022-09-27_22h10.27.052,vts_reward_expectancy,2022.2.4,MacIntel,60.0024001,Chrome,1440,900,,,,,0,621,,,,,,,,,,,,,,,,,132,W,hexagon,1,0,,,,,,,,,,,,,,,,repeat,number,numRpt,d,1.0963,noRew,,,,,,0,48,0,48,0,1,,,,,,,,,,,,,,,,,
292942,2022-09-27_22h10.27.052,vts_reward_expectancy,2022.2.4,MacIntel,60.0024001,Chrome,1440,900,,,,,0,621,,,,,,,,,,,,,,,,,125,H,circle,1,0,,,,,,,,,,,,,,,,repeat,number,numRpt,d,1.3164,noRew,,,,,,0,49,0,49,0,1,,,,,,,,,,,,,,,,,
292942,2022-09-27_22h10.27.052,vts_reward_expectancy,2022.2.4,MacIntel,60.0024001,Chrome,1440,900,,,,,0,621,,,,,,,,,,,,,,,,,167,F,triangle,1,0,,,,,,,,,,,,,,,,repeat,number,numRpt,f,1.7011,noRew,,,,,,0,50,0,50,0,1,,,,,,,,,,,,,,,,,
292942,2022-09-27_22h10.27.052,vts_reward_expectancy,2022.2.4,MacIntel,60.0024001,Chrome,1440,900,,,,,0,621,,,,,,,,,,,,,,,,,139,D,hexagon,1,0,,,,,,,,,,,,,,,,repeat,number,numRpt,d,1.0796,noRew,,,,,,0,51,0,51,0,1,,,,,,,,,,,,,,,,,
292942,2022-09-27_22h10.27.052,vts_reward_expectancy,2022.2.4,MacIntel,60.0024001,Chrome,1440,900,,,,,0,621,,,,,,,,,,,,,,,,,125,S,circle,1,0,,,,,,,,,,,,,,,,repeat,number,numRpt,d,0.8631,noRew,,,,,,0,52,0,52,0,1,,,,,,,,,,,,,,,,,
292942,2022-09-27_22h10.27.052,vts_reward_expectancy,2022.2.4,MacIntel,60.0024001,Chrome,1440,900,,,,,0,621,,,,,,,,,,,,,,,,,181,U,triangle,1,0,,,,,,,,,,,,,,,,repeat,number,numRpt,f,1.1846,noRew,,,,,,0,53,0,53,0,1,,,,,,,,,,,,,,,,,
292942,2022-09-27_22h10.27.052,vts_reward_expectancy,2022.2.4,MacIntel,60.0024001,Chrome,1440,900,,,,,0,621,,,,,,,,,,,,,,,,,174,W,star,1,0,,,,,,,,,,,,,,,,repeat,number,numRpt,f,1.3037,noRew,,,,,,0,54,0,54,0,1,,,,,,,,,,,,,,,,,
292942,2022-09-27_22h10.27.052,vts_reward_expectancy,2022.2.4,MacIntel,60.0024001,Chrome,1440,900,,,,,0,621,,,,,,,,,,,,,,,,,160,F,hexagon,1,0,,,,,,,,,,,,,,,,repeat,number,numRpt,f,1.6613,noRew,,,,,,0,55,0,55,0,1,,,,,,,,,,,,,,,,,
292942,2022-09-27_22h10.27.052,vts_reward_expectancy,2022.2.4,MacIntel,60.0024001,Chrome,1440,900,,,,,0,621,,,,,,,,,,,,,,,,,139,W,triangle,1,0,,,,,,,,,,,,,,,,repeat,number,numRpt,d,1.2313,noRew,,,,,,0,56,0,56,0,1,,,,,,,,,,,,,,,,,
292942,2022-09-27_22h10.27.052,vts_reward_expectancy,2022.2.4,MacIntel,60.0024001,Chrome,1440,900,,,,,0,621,,,,,,,,,,,,,,,,,174,U,hexagon,1,0,,,,,,,,,,,,,,,,switch,letter,lettSwt,k,1.438,noRew,,,,,,0,57,0,57,0,1,,,,,,,,,,,,,,,,,
292942,2022-09-27_22h10.27.052,vts_reward_expectancy,2022.2.4,MacIntel,60.0024001,Chrome,1440,900,,,,,0,621,,,,,,,,,,,,,,,,,146,B,hexagon,1,0,,,,,,,,,,,,,,,,repeat,letter,lettRpt,j,0.9043,noRew,,,,,,0,58,0,58,0,1,,,,,,,,,,,,,,,,,
292942,2022-09-27_22h10.27.052,vts_reward_expectancy,2022.2.4,MacIntel,60.0024001,Chrome,1440,900,,,,,0,621,,,,,,,,,,,,,,,,,132,H,circle,1,0,,,,,,,,,,,,,,,,repeat,letter,lettRpt,j,1.0468,noRew,,,,,,0,59,0,59,0,1,,,,,,,,,,,,,,,,,
292942,2022-09-27_22h10.27.052,vts_reward_expectancy,2022.2.4,MacIntel,60.0024001,Chrome,1440,900,,,,,0,621,,,,,,,,,,,,,,,,,174,Y,triangle,1,0,,,,,,,,,,,,,,,,switch,number,numSwt,f,1.1457,noRew,,,,,,0,60,0,60,0,1,,,,,,,,,,,,,,,,,
292942,2022-09-27_22h10.27.052,vts_reward_expectancy,2022.2.4,MacIntel,60.0024001,Chrome,1440,900,,,,,0,621,,,,,,,,,,,,,,,,,139,S,star,1,0,,,,,,,,,,,,,,,,repeat,number,numRpt,d,0.5458,noRew,,,,,,0,61,0,61,0,1,,,,,,,,,,,,,,,,,
292942,2022-09-27_22h10.27.052,vts_reward_expectancy,2022.2.4,MacIntel,60.0024001,Chrome,1440,900,,,,,0,621,,,,,,,,,,,,,,,,,167,H,hexagon,1,0,,,,,,,,,,,,,,,,switch,letter,lettSwt,j,1.2819,noRew,,,,,,0,62,0,62,0,1,,,,,,,,,,,,,,,,,
292942,2022-09-27_22h10.27.052,vts_reward_expectancy,2022.2.4,MacIntel,60.0024001,Chrome,1440,900,,,,,0,621,,,,,,,,,,,,,,,,,132,B,star,1,0,,,,,,,,,,,,,,,,switch,number,numSwt,d,1.5141,noRew,,,,,,0,63,0,63,0,1,,,,,,,,,,,,,,,,,
292942,2022-09-27_22h10.27.052,vts_reward_expectancy,2022.2.4,MacIntel,60.0024001,Chrome,1440,900,,,,,,,,,,,,,,,,,,,,,,,,,,,,,,,,,,,,,,,,,,,,,,,,,,,,,,,,,,,,,,,,,,,,,,,,,,,,
292942,2022-09-27_22h10.27.052,vts_reward_expectancy,2022.2.4,MacIntel,60.0024001,Chrome,1440,900,,,,,1,622,,,,,,,,,,,,,,,,,125,S,circle,1,0,,,,,,,,,,,,,,,,switch,letter,lettSwt,k,1.321,Lo,,,,,,0,,,,,,space,2.8321,high,0,0,0,0,1,,,,,,,,,
292942,2022-09-27_22h10.27.052,vts_reward_expectancy,2022.2.4,MacIntel,60.0024001,Chrome,1440,900,,,,,10,632,,,,,,,,,,,,,,,,,160,W,triangle,1,0,,,,,,,,,,,,,,,,repeat,letter,lettRpt,k,0.9456,Hi,,,,,,0,,,,,,,,high,1,0,1,0,1,,,,,,,,,
292942,2022-09-27_22h10.27.052,vts_reward_expectancy,2022.2.4,MacIntel,60.0024001,Chrome,1440,900,,,,,1,633,,,,,,,,,,,,,,,,,181,Y,circle,1,0,,,,,,,,,,,,,,,,switch,number,numSwt,f,0.7461,Lo,,,,,,0,,,,,,,,high,2,0,2,0,1,,,,,,,,,
292942,2022-09-27_22h10.27.052,vts_reward_expectancy,2022.2.4,MacIntel,60.0024001,Chrome,1440,900,,,,,1,634,,,,,,,,,,,,,,,,,132,U,triangle,1,0,,,,,,,,,,,,,,,,switch,letter,lettSwt,k,1.2633,Hi,,,,,,0,,,,,,,,high,3,0,3,0,1,,,,,,,,,
292942,2022-09-27_22h10.27.052,vts_reward_expectancy,2022.2.4,MacIntel,60.0024001,Chrome,1440,900,,,,,1,635,,,,,,,,,,,,,,,,,146,F,circle,1,0,,,,,,,,,,,,,,,,repeat,letter,lettRpt,j,0.9314,Lo,,,,,,0,,,,,,,,high,4,0,4,0,1,,,,,,,,,
292942,2022-09-27_22h10.27.052,vts_reward_expectancy,2022.2.4,MacIntel,60.0024001,Chrome,1440,900,,,,,10,645,,,,,,,,,,,,,,,,,167,B,triangle,1,0,,,,,,,,,,,,,,,,switch,number,numSwt,f,1.3311,Hi,,,,,,0,,,,,,,,high,5,0,5,0,1,,,,,,,,,
292942,2022-09-27_22h10.27.052,vts_reward_expectancy,2022.2.4,MacIntel,60.0024001,Chrome,1440,900,,,,,10,655,,,,,,,,,,,,,,,,,174,H,triangle,1,0,,,,,,,,,,,,,,,,repeat,number,numRpt,f,0.6478,Hi,,,,,,0,,,,,,,,high,6,0,6,0,1,,,,,,,,,
292942,2022-09-27_22h10.27.052,vts_reward_expectancy,2022.2.4,MacIntel,60.0024001,Chrome,1440,900,,,,,1,656,,,,,,,,,,,,,,,,,139,D,circle,1,0,,,,,,,,,,,,,,,,repeat,number,numRpt,d,0.8838,Lo,,,,,,0,,,,,,,,high,7,0,7,0,1,,,,,,,,,
292942,2022-09-27_22h10.27.052,vts_reward_expectancy,2022.2.4,MacIntel,60.0024001,Chrome,1440,900,,,,,0,656,,,,,,,,,,,,,,,,,125,S,triangle,1,0,,,,,,,,,,,,,,,,repeat,number,numRpt,d,1.7276,Hi,,,,,,0,,,,,,,,high,8,0,8,0,1,,,,,,,,,
292942,2022-09-27_22h10.27.052,vts_reward_expectancy,2022.2.4,MacIntel,60.0024001,Chrome,1440,900,,,,,10,666,,,,,,,,,,,,,,,,,160,W,circle,1,0,,,,,,,,,,,,,,,,repeat,number,numRpt,f,1.1806,Lo,,,,,,0,,,,,,,,high,9,0,9,0,1,,,,,,,,,
292942,2022-09-27_22h10.27.052,vts_reward_expectancy,2022.2.4,MacIntel,60.0024001,Chrome,1440,900,,,,,1,667,,,,,,,,,,,,,,,,,181,Y,triangle,1,0,,,,,,,,,,,,,,,,repeat,number,numRpt,f,0.7627,Hi,,,,,,0,,,,,,,,high,10,0,10,0,1,,,,,,,,,
292942,2022-09-27_22h10.27.052,vts_reward_expectancy,2022.2.4,MacIntel,60.0024001,Chrome,1440,900,,,,,10,677,,,,,,,,,,,,,,,,,132,U,circle,1,0,,,,,,,,,,,,,,,,repeat,number,numRpt,d,0.5811,Lo,,,,,,0,,,,,,,,high,11,0,11,0,1,,,,,,,,,
292942,2022-09-27_22h10.27.052,vts_reward_expectancy,2022.2.4,MacIntel,60.0024001,Chrome,1440,900,,,,,10,687,,,,,,,,,,,,,,,,,146,F,triangle,1,0,,,,,,,,,,,,,,,,repeat,number,numRpt,d,1.1807,Hi,,,,,,0,,,,,,,,high,12,0,12,0,1,,,,,,,,,
292942,2022-09-27_22h10.27.052,vts_reward_expectancy,2022.2.4,MacIntel,60.0024001,Chrome,1440,900,,,,,1,688,,,,,,,,,,,,,,,,,167,B,circle,1,0,,,,,,,,,,,,,,,,repeat,number,numRpt,f,1.6958,Lo,,,,,,0,,,,,,,,high,13,0,13,0,1,,,,,,,,,
292942,2022-09-27_22h10.27.052,vts_reward_expectancy,2022.2.4,MacIntel,60.0024001,Chrome,1440,900,,,,,1,689,,,,,,,,,,,,,,,,,174,H,circle,1,0,,,,,,,,,,,,,,,,switch,letter,lettSwt,j,0.8959,Lo,,,,,,0,,,,,,,,high,14,0,14,0,1,,,,,,,,,
292942,2022-09-27_22h10.27.052,vts_reward_expectancy,2022.2.4,MacIntel,60.0024001,Chrome,1440,900,,,,,0,689,,,,,,,,,,,,,,,,,139,D,triangle,1,0,,,,,,,,,,,,,,,,repeat,letter,lettRpt,j,2.0618,Hi,,,,,,0,,,,,,,,high,15,0,15,0,1,,,,,,,,,
292942,2022-09-27_22h10.27.052,vts_reward_expectancy,2022.2.4,MacIntel,60.0024001,Chrome,1440,900,,,,,1,690,,,,,,,,,,,,,,,,,132,F,circle,1,0,,,,,,,,,,,,,,,,repeat,letter,lettRpt,j,0.9138,Lo,,,,,,0,,,,,,,,high,16,0,16,0,1,,,,,,,,,
292942,2022-09-27_22h10.27.052,vts_reward_expectancy,2022.2.4,MacIntel,60.0024001,Chrome,1440,900,,,,,1,691,,,,,,,,,,,,,,,,,167,D,triangle,1,0,,,,,,,,,,,,,,,,repeat,letter,lettRpt,j,0.6178,Hi,,,,,,0,,,,,,,,high,17,0,17,0,1,,,,,,,,,
292942,2022-09-27_22h10.27.052,vts_reward_expectancy,2022.2.4,MacIntel,60.0024001,Chrome,1440,900,,,,,10,701,,,,,,,,,,,,,,,,,160,S,circle,1,0,,,,,,,,,,,,,,,,repeat,letter,lettRpt,k,1.1294,Lo,,,,,,0,,,,,,,,high,18,0,18,0,1,,,,,,,,,
292942,2022-09-27_22h10.27.052,vts_reward_expectancy,2022.2.4,MacIntel,60.0024001,Chrome,1440,900,,,,,10,711,,,,,,,,,,,,,,,,,181,H,triangle,1,0,,,,,,,,,,,,,,,,repeat,letter,lettRpt,j,0.9967,Hi,,,,,,0,,,,,,,,high,19,0,19,0,1,,,,,,,,,
292942,2022-09-27_22h10.27.052,vts_reward_expectancy,2022.2.4,MacIntel,60.0024001,Chrome,1440,900,,,,,10,721,,,,,,,,,,,,,,,,,139,W,triangle,1,0,,,,,,,,,,,,,,,,repeat,letter,lettRpt,k,0.8134,Hi,,,,,,0,,,,,,,,high,20,0,20,0,1,,,,,,,,,
292942,2022-09-27_22h10.27.052,vts_reward_expectancy,2022.2.4,MacIntel,60.0024001,Chrome,1440,900,,,,,1,722,,,,,,,,,,,,,,,,,125,U,circle,1,0,,,,,,,,,,,,,,,,repeat,letter,lettRpt,k,0.9973,Lo,,,,,,0,,,,,,,,high,21,0,21,0,1,,,,,,,,,
292942,2022-09-27_22h10.27.052,vts_reward_expectancy,2022.2.4,MacIntel,60.0024001,Chrome,1440,900,,,,,10,732,,,,,,,,,,,,,,,,,146,B,triangle,1,0,,,,,,,,,,,,,,,,switch,number,numSwt,d,0.8531,Hi,,,,,,0,,,,,,,,high,22,0,22,0,1,,,,,,,,,
292942,2022-09-27_22h10.27.052,vts_reward_expectancy,2022.2.4,MacIntel,60.0024001,Chrome,1440,900,,,,,1,733,,,,,,,,,,,,,,,,,174,Y,circle,1,0,,,,,,,,,,,,,,,,repeat,number,numRpt,f,0.5335,Lo,,,,,,0,,,,,,,,high,23,0,23,0,1,,,,,,,,,
292942,2022-09-27_22h10.27.052,vts_reward_expectancy,2022.2.4,MacIntel,60.0024001,Chrome,1440,900,,,,,10,743,,,,,,,,,,,,,,,,,139,B,triangle,1,0,,,,,,,,,,,,,,,,switch,letter,lettSwt,j,0.7118,Hi,,,,,,0,,,,,,,,high,24,0,24,0,1,,,,,,,,,
292942,2022-09-27_22h10.27.052,vts_reward_expectancy,2022.2.4,MacIntel,60.0024001,Chrome,1440,900,,,,,1,744,,,,,,,,,,,,,,,,,125,D,circle,1,0,,,,,,,,,,,,,,,,repeat,letter,lettRpt,j,1.2446,Lo,,,,,,0,,,,,,,,high,25,0,25,0,1,,,,,,,,,
292942,2022-09-27_22h10.27.052,vts_reward_expectancy,2022.2.4,MacIntel,60.0024001,Chrome,1440,900,,,,,1,745,,,,,,,,,,,,,,,,,181,U,circle,1,0,,,,,,,,,,,,,,,,repeat,letter,lettRpt,k,0.9116,Lo,,,,,,0,,,,,,,,high,26,0,26,0,1,,,,,,,,,
292942,2022-09-27_22h10.27.052,vts_reward_expectancy,2022.2.4,MacIntel,60.0024001,Chrome,1440,900,,,,,10,755,,,,,,,,,,,,,,,,,167,S,triangle,1,0,,,,,,,,,,,,,,,,switch,number,numSwt,f,0.9457,Hi,,,,,,0,,,,,,,,high,27,0,27,0,1,,,,,,,,,
292942,2022-09-27_22h10.27.052,vts_reward_expectancy,2022.2.4,MacIntel,60.0024001,Chrome,1440,900,,,,,1,756,,,,,,,,,,,,,,,,,146,F,circle,1,0,,,,,,,,,,,,,,,,switch,letter,lettSwt,j,1.0478,Lo,,,,,,0,,,,,,,,high,28,0,28,0,1,,,,,,,,,
292942,2022-09-27_22h10.27.052,vts_reward_expectancy,2022.2.4,MacIntel,60.0024001,Chrome,1440,900,,,,,1,757,,,,,,,,,,,,,,,,,160,Y,triangle,1,0,,,,,,,,,,,,,,,,repeat,letter,lettRpt,k,0.881,Hi,,,,,,0,,,,,,,,high,29,0,29,0,1,,,,,,,,,
292942,2022-09-27_22h10.27.052,vts_reward_expectancy,2022.2.4,MacIntel,60.0024001,Chrome,1440,900,,,,,1,758,,,,,,,,,,,,,,,,,174,H,circle,1,0,,,,,,,,,,,,,,,,repeat,letter,lettRpt,j,1.3505,Lo,,,,,,0,,,,,,,,high,30,0,30,0,1,,,,,,,,,
292942,2022-09-27_22h10.27.052,vts_reward_expectancy,2022.2.4,MacIntel,60.0024001,Chrome,1440,900,,,,,10,768,,,,,,,,,,,,,,,,,132,W,triangle,1,0,,,,,,,,,,,,,,,,switch,number,numSwt,d,0.8159,Hi,,,,,,0,,,,,,,,high,31,0,31,0,1,,,,,,,,,
292942,2022-09-27_22h10.27.052,vts_reward_expectancy,2022.2.4,MacIntel,60.0024001,Chrome,1440,900,,,,,1,769,,,,,,,,,,,,,,,,,174,Y,star,1,0,,,,,,,,,,,,,,,,repeat,number,numRpt,f,1.5001,Lo,,,,,,1,,,,,,space,2.5902,low,0,0,0,0,1,,,,,,,,,
292942,2022-09-27_22h10.27.052,vts_reward_expectancy,2022.2.4,MacIntel,60.0024001,Chrome,1440,900,,,,,0,769,,,,,,,,,,,,,,,,,132,S,hexagon,0,0,,,,,,,,,,,,,,,,repeat,number,NA,f,0.9282,Lo,,,,,,1,,,,,,,,low,1,0,1,0,1,,,,,,,,,
292942,2022-09-27_22h10.27.052,vts_reward_expectancy,2022.2.4,MacIntel,60.0024001,Chrome,1440,900,,,,,10,779,,,,,,,,,,,,,,,,,160,H,star,1,1,,,,,,,,,,,,,,,,repeat,number,numRpt,f,1.6715,Lo,,,,,,1,,,,,,,,low,2,0,2,0,1,,,,,,,,,
292942,2022-09-27_22h10.27.052,vts_reward_expectancy,2022.2.4,MacIntel,60.0024001,Chrome,1440,900,,,,,0,779,,,,,,,,,,,,,,,,,146,F,hexagon,1,0,,,,,,,,,,,,,,,,repeat,number,numRpt,d,1.0164,Hi,,,,,,1,,,,,,,,low,3,0,3,0,1,,,,,,,,,
292942,2022-09-27_22h10.27.052,vts_reward_expectancy,2022.2.4,MacIntel,60.0024001,Chrome,1440,900,,,,,1,780,,,,,,,,,,,,,,,,,167,D,star,1,0,,,,,,,,,,,,,,,,switch,letter,lettSwt,j,0.466,Lo,,,,,,1,,,,,,,,low,4,0,4,0,1,,,,,,,,,
292942,2022-09-27_22h10.27.052,vts_reward_expectancy,2022.2.4,MacIntel,60.0024001,Chrome,1440,900,,,,,1,781,,,,,,,,,,,,,,,,,125,U,hexagon,1,0,,,,,,,,,,,,,,,,repeat,letter,lettRpt,k,0.4471,Hi,,,,,,1,,,,,,,,low,5,0,5,0,1,,,,,,,,,
292942,2022-09-27_22h10.27.052,vts_reward_expectancy,2022.2.4,MacIntel,60.0024001,Chrome,1440,900,,,,,10,791,,,,,,,,,,,,,,,,,181,B,hexagon,1,0,,,,,,,,,,,,,,,,switch,number,numSwt,f,0.7789,Hi,,,,,,1,,,,,,,,low,6,0,6,0,1,,,,,,,,,
292942,2022-09-27_22h10.27.052,vts_reward_expectancy,2022.2.4,MacIntel,60.0024001,Chrome,1440,900,,,,,1,792,,,,,,,,,,,,,,,,,139,W,star,1,0,,,,,,,,,,,,,,,,repeat,number,numRpt,d,0.5215,Lo,,,,,,1,,,,,,,,low,7,0,7,0,1,,,,,,,,,
292942,2022-09-27_22h10.27.052,vts_reward_expectancy,2022.2.4,MacIntel,60.0024001,Chrome,1440,900,,,,,1,793,,,,,,,,,,,,,,,,,174,Y,star,1,0,,,,,,,,,,,,,,,,switch,letter,lettSwt,k,0.9475,Lo,,,,,,1,,,,,,,,low,8,0,8,0,1,,,,,,,,,
292942,2022-09-27_22h10.27.052,vts_reward_expectancy,2022.2.4,MacIntel,60.0024001,Chrome,1440,900,,,,,10,803,,,,,,,,,,,,,,,,,132,S,hexagon,1,0,,,,,,,,,,,,,,,,repeat,letter,lettRpt,k,0.7678,Hi,,,,,,1,,,,,,,,low,9,0,9,0,1,,,,,,,,,
292942,2022-09-27_22h10.27.052,vts_reward_expectancy,2022.2.4,MacIntel,60.0024001,Chrome,1440,900,,,,,10,813,,,,,,,,,,,,,,,,,160,H,hexagon,1,0,,,,,,,,,,,,,,,,repeat,letter,lettRpt,j,0.7466,Hi,,,,,,1,,,,,,,,low,10,0,10,0,1,,,,,,,,,
292942,2022-09-27_22h10.27.052,vts_reward_expectancy,2022.2.4,MacIntel,60.0024001,Chrome,1440,900,,,,,1,814,,,,,,,,,,,,,,,,,146,F,star,1,0,,,,,,,,,,,,,,,,repeat,letter,lettRpt,j,0.7462,Lo,,,,,,1,,,,,,,,low,11,0,11,0,1,,,,,,,,,
292942,2022-09-27_22h10.27.052,vts_reward_expectancy,2022.2.4,MacIntel,60.0024001,Chrome,1440,900,,,,,10,824,,,,,,,,,,,,,,,,,167,D,hexagon,1,0,,,,,,,,,,,,,,,,repeat,letter,lettRpt,j,0.7193,Hi,,,,,,1,,,,,,,,low,12,0,12,0,1,,,,,,,,,
292942,2022-09-27_22h10.27.052,vts_reward_expectancy,2022.2.4,MacIntel,60.0024001,Chrome,1440,900,,,,,10,834,,,,,,,,,,,,,,,,,125,U,star,1,0,,,,,,,,,,,,,,,,repeat,letter,lettRpt,k,0.7962,Lo,,,,,,1,,,,,,,,low,13,0,13,0,1,,,,,,,,,
292942,2022-09-27_22h10.27.052,vts_reward_expectancy,2022.2.4,MacIntel,60.0024001,Chrome,1440,900,,,,,1,835,,,,,,,,,,,,,,,,,181,B,star,1,0,,,,,,,,,,,,,,,,repeat,letter,lettRpt,j,0.8987,Lo,,,,,,1,,,,,,,,low,14,0,14,0,1,,,,,,,,,
292942,2022-09-27_22h10.27.052,vts_reward_expectancy,2022.2.4,MacIntel,60.0024001,Chrome,1440,900,,,,,0,835,,,,,,,,,,,,,,,,,139,W,hexagon,1,0,,,,,,,,,,,,,,,,switch,number,numSwt,d,0.8666,Hi,,,,,,1,,,,,,,,low,15,0,15,0,1,,,,,,,,,
292942,2022-09-27_22h10.27.052,vts_reward_expectancy,2022.2.4,MacIntel,60.0024001,Chrome,1440,900,,,,,10,845,,,,,,,,,,,,,,,,,174,F,star,1,0,,,,,,,,,,,,,,,,repeat,number,numRpt,f,1.315,Lo,,,,,,1,,,,,,,,low,16,0,16,0,1,,,,,,,,,
292942,2022-09-27_22h10.27.052,vts_reward_expectancy,2022.2.4,MacIntel,60.0024001,Chrome,1440,900,,,,,0,845,,,,,,,,,,,,,,,,,181,S,hexagon,1,0,,,,,,,,,,,,,,,,repeat,number,numRpt,f,0.8042,Hi,,,,,,1,,,,,,,,low,17,0,17,0,1,,,,,,,,,
292942,2022-09-27_22h10.27.052,vts_reward_expectancy,2022.2.4,MacIntel,60.0024001,Chrome,1440,900,,,,,1,846,,,,,,,,,,,,,,,,,125,B,star,1,0,,,,,,,,,,,,,,,,repeat,number,numRpt,d,0.714,Lo,,,,,,1,,,,,,,,low,18,0,18,0,1,,,,,,,,,
292942,2022-09-27_22h10.27.052,vts_reward_expectancy,2022.2.4,MacIntel,60.0024001,Chrome,1440,900,,,,,10,856,,,,,,,,,,,,,,,,,139,U,hexagon,1,0,,,,,,,,,,,,,,,,repeat,number,numRpt,d,0.5879,Hi,,,,,,1,,,,,,,,low,19,0,19,0,1,,,,,,,,,
292942,2022-09-27_22h10.27.052,vts_reward_expectancy,2022.2.4,MacIntel,60.0024001,Chrome,1440,900,,,,,10,866,,,,,,,,,,,,,,,,,132,Y,star,1,0,,,,,,,,,,,,,,,,repeat,number,numRpt,d,0.5613,Lo,,,,,,1,,,,,,,,low,20,0,20,0,1,,,,,,,,,
292942,2022-09-27_22h10.27.052,vts_reward_expectancy,2022.2.4,MacIntel,60.0024001,Chrome,1440,900,,,,,10,876,,,,,,,,,,,,,,,,,167,H,hexagon,1,0,,,,,,,,,,,,,,,,switch,letter,lettSwt,j,0.6114,Hi,,,,,,1,,,,,,,,low,21,0,21,0,1,,,,,,,,,
292942,2022-09-27_22h10.27.052,vts_reward_expectancy,2022.2.4,MacIntel,60.0024001,Chrome,1440,900,,,,,10,886,,,,,,,,,,,,,,,,,160,W,hexagon,1,0,,,,,,,,,,,,,,,,repeat,letter,lettRpt,k,0.6475,Hi,,,,,,1,,,,,,,,low,22,0,22,0,1,,,,,,,,,
292942,2022-09-27_22h10.27.052,vts_reward_expectancy,2022.2.4,MacIntel,60.0024001,Chrome,1440,900,,,,,10,896,,,,,,,,,,,,,,,,,146,D,star,1,0,,,,,,,,,,,,,,,,repeat,letter,lettRpt,j,0.995,Lo,,,,,,1,,,,,,,,low,23,0,23,0,1,,,,,,,,,
292942,2022-09-27_22h10.27.052,vts_reward_expectancy,2022.2.4,MacIntel,60.0024001,Chrome,1440,900,,,,,1,897,,,,,,,,,,,,,,,,,167,B,star,1,0,,,,,,,,,,,,,,,,switch,number,numSwt,f,1.0119,Lo,,,,,,1,,,,,,,,low,24,0,24,0,1,,,,,,,,,
292942,2022-09-27_22h10.27.052,vts_reward_expectancy,2022.2.4,MacIntel,60.0024001,Chrome,1440,900,,,,,10,907,,,,,,,,,,,,,,,,,132,W,hexagon,1,0,,,,,,,,,,,,,,,,switch,letter,lettSwt,k,0.5622,Hi,,,,,,1,,,,,,,,low,25,0,25,0,1,,,,,,,,,
292942,2022-09-27_22h10.27.052,vts_reward_expectancy,2022.2.4,MacIntel,60.0024001,Chrome,1440,900,,,,,1,908,,,,,,,,,,,,,,,,,181,S,star,1,0,,,,,,,,,,,,,,,,repeat,letter,lettRpt,k,0.6308,Lo,,,,,,1,,,,,,,,low,26,0,26,0,1,,,,,,,,,
292942,2022-09-27_22h10.27.052,vts_reward_expectancy,2022.2.4,MacIntel,60.0024001,Chrome,1440,900,,,,,1,909,,,,,,,,,,,,,,,,,139,Y,hexagon,1,0,,,,,,,,,,,,,,,,switch,number,numSwt,d,0.7645,Hi,,,,,,1,,,,,,,,low,27,0,27,0,1,,,,,,,,,
292942,2022-09-27_22h10.27.052,vts_reward_expectancy,2022.2.4,MacIntel,60.0024001,Chrome,1440,900,,,,,1,910,,,,,,,,,,,,,,,,,146,D,hexagon,1,0,,,,,,,,,,,,,,,,switch,letter,lettSwt,j,0.855,Hi,,,,,,1,,,,,,,,low,28,0,28,0,1,,,,,,,,,
292942,2022-09-27_22h10.27.052,vts_reward_expectancy,2022.2.4,MacIntel,60.0024001,Chrome,1440,900,,,,,0,910,,,,,,,,,,,,,,,,,125,U,star,0,0,,,,,,,,,,,,,,,,repeat,letter,NA,j,0.8993,Hi,,,,,,1,,,,,,,,low,29,0,29,0,1,,,,,,,,,
292942,2022-09-27_22h10.27.052,vts_reward_expectancy,2022.2.4,MacIntel,60.0024001,Chrome,1440,900,,,,,0,910,,,,,,,,,,,,,,,,,160,F,star,0,1,,,,,,,,,,,,,,,,repeat,letter,NA,k,1.0712,Hi,,,,,,1,,,,,,,,low,30,0,30,0,1,,,,,,,,,
292942,2022-09-27_22h10.27.052,vts_reward_expectancy,2022.2.4,MacIntel,60.0024001,Chrome,1440,900,,,,,1,911,,,,,,,,,,,,,,,,,174,H,hexagon,1,1,,,,,,,,,,,,,,,,repeat,letter,lettRpt,j,0.8805,Hi,,,,,,1,,,,,,,,low,31,0,31,0,1,,,,,,,,,
292942,2022-09-27_22h10.27.052,vts_reward_expectancy,2022.2.4,MacIntel,60.0024001,Chrome,1440,900,,,,,1,912,,,,,,,,,,,,,,,,,181,S,circle,1,0,,,,,,,,,,,,,,,,repeat,letter,lettRpt,k,1.2204,Lo,,,,,,2,,,,,,space,1.1877,high,0,0,0,0,1,,,,,,,,,
292942,2022-09-27_22h10.27.052,vts_reward_expectancy,2022.2.4,MacIntel,60.0024001,Chrome,1440,900,,,,,0,912,,,,,,,,,,,,,,,,,146,B,triangle,1,0,,,,,,,,,,,,,,,,repeat,letter,lettRpt,j,0.7952,Hi,,,,,,2,,,,,,,,high,1,0,1,0,1,,,,,,,,,
292942,2022-09-27_22h10.27.052,vts_reward_expectancy,2022.2.4,MacIntel,60.0024001,Chrome,1440,900,,,,,10,922,,,,,,,,,,,,,,,,,132,W,circle,1,0,,,,,,,,,,,,,,,,repeat,letter,lettRpt,k,0.7647,Lo,,,,,,2,,,,,,,,high,2,0,2,0,1,,,,,,,,,
292942,2022-09-27_22h10.27.052,vts_reward_expectancy,2022.2.4,MacIntel,60.0024001,Chrome,1440,900,,,,,0,922,,,,,,,,,,,,,,,,,160,Y,triangle,1,0,,,,,,,,,,,,,,,,repeat,letter,lettRpt,k,0.7322,Hi,,,,,,2,,,,,,,,high,3,0,3,0,1,,,,,,,,,
292942,2022-09-27_22h10.27.052,vts_reward_expectancy,2022.2.4,MacIntel,60.0024001,Chrome,1440,900,,,,,1,923,,,,,,,,,,,,,,,,,167,F,circle,1,0,,,,,,,,,,,,,,,,repeat,letter,lettRpt,j,0.7476,Lo,,,,,,2,,,,,,,,high,4,0,4,0,1,,,,,,,,,
292942,2022-09-27_22h10.27.052,vts_reward_expectancy,2022.2.4,MacIntel,60.0024001,Chrome,1440,900,,,,,10,933,,,,,,,,,,,,,,,,,139,H,triangle,1,0,,,,,,,,,,,,,,,,repeat,letter,lettRpt,j,0.5135,Hi,,,,,,2,,,,,,,,high,5,0,5,0,1,,,,,,,,,
292942,2022-09-27_22h10.27.052,vts_reward_expectancy,2022.2.4,MacIntel,60.0024001,Chrome,1440,900,,,,,1,934,,,,,,,,,,,,,,,,,174,U,circle,1,0,,,,,,,,,,,,,,,,switch,number,numSwt,f,0.5635,Lo,,,,,,2,,,,,,,,high,6,0,6,0,1,,,,,,,,,
292942,2022-09-27_22h10.27.052,vts_reward_expectancy,2022.2.4,MacIntel,60.0024001,Chrome,1440,900,,,,,10,944,,,,,,,,,,,,,,,,,125,D,triangle,1,0,,,,,,,,,,,,,,,,repeat,number,numRpt,d,0.4967,Hi,,,,,,2,,,,,,,,high,7,0,7,0,1,,,,,,,,,
292942,2022-09-27_22h10.27.052,vts_reward_expectancy,2022.2.4,MacIntel,60.0024001,Chrome,1440,900,,,,,0,944,,,,,,,,,,,,,,,,,181,S,triangle,1,0,,,,,,,,,,,,,,,,switch,letter,lettSwt,k,0.6851,Hi,,,,,,2,,,,,,,,high,8,0,8,0,1,,,,,,,,,
292942,2022-09-27_22h10.27.052,vts_reward_expectancy,2022.2.4,MacIntel,60.0024001,Chrome,1440,900,,,,,1,945,,,,,,,,,,,,,,,,,146,B,circle,1,0,,,,,,,,,,,,,,,,repeat,letter,lettRpt,j,0.4869,Lo,,,,,,2,,,,,,,,high,9,0,9,0,1,,,,,,,,,
292942,2022-09-27_22h10.27.052,vts_reward_expectancy,2022.2.4,MacIntel,60.0024001,Chrome,1440,900,,,,,10,955,,,,,,,,,,,,,,,,,132,W,triangle,1,0,,,,,,,,,,,,,,,,repeat,letter,lettRpt,k,0.5683,Hi,,,,,,2,,,,,,,,high,10,0,10,0,1,,,,,,,,,
292942,2022-09-27_22h10.27.052,vts_reward_expectancy,2022.2.4,MacIntel,60.0024001,Chrome,1440,900,,,,,10,965,,,,,,,,,,,,,,,,,160,Y,circle,1,0,,,,,,,,,,,,,,,,repeat,letter,lettRpt,k,0.7172,Lo,,,,,,2,,,,,,,,high,11,0,11,0,1,,,,,,,,,
292942,2022-09-27_22h10.27.052,vts_reward_expectancy,2022.2.4,MacIntel,60.0024001,Chrome,1440,900,,,,,1,966,,,,,,,,,,,,,,,,,167,F,circle,1,0,,,,,,,,,,,,,,,,repeat,letter,lettRpt,j,0.7621,Lo,,,,,,2,,,,,,,,high,12,0,12,0,1,,,,,,,,,
292942,2022-09-27_22h10.27.052,vts_reward_expectancy,2022.2.4,MacIntel,60.0024001,Chrome,1440,900,,,,,10,976,,,,,,,,,,,,,,,,,139,H,triangle,1,0,,,,,,,,,,,,,,,,switch,number,numSwt,d,0.6707,Hi,,,,,,2,,,,,,,,high,13,0,13,0,1,,,,,,,,,
292942,2022-09-27_22h10.27.052,vts_reward_expectancy,2022.2.4,MacIntel,60.0024001,Chrome,1440,900,,,,,0,976,,,,,,,,,,,,,,,,,174,U,triangle,0,0,,,,,,,,,,,,,,,,switch,letter,NA,j,0.8543,Hi,,,,,,2,,,,,,,,high,14,0,14,0,1,,,,,,,,,
292942,2022-09-27_22h10.27.052,vts_reward_expectancy,2022.2.4,MacIntel,60.0024001,Chrome,1440,900,,,,,1,977,,,,,,,,,,,,,,,,,125,D,circle,1,1,,,,,,,,,,,,,,,,switch,number,numSwt,d,0.6287,Lo,,,,,,2,,,,,,,,high,15,0,15,0,1,,,,,,,,,
292942,2022-09-27_22h10.27.052,vts_reward_expectancy,2022.2.4,MacIntel,60.0024001,Chrome,1440,900,,,,,0,977,,,,,,,,,,,,,,,,,160,U,triangle,1,0,,,,,,,,,,,,,,,,repeat,number,numRpt,f,1.422,Hi,,,,,,2,,,,,,,,high,16,0,16,0,1,,,,,,,,,
292942,2022-09-27_22h10.27.052,vts_reward_expectancy,2022.2.4,MacIntel,60.0024001,Chrome,1440,900,,,,,1,978,,,,,,,,,,,,,,,,,181,H,circle,1,0,,,,,,,,,,,,,,,,repeat,number,numRpt,f,0.779,Lo,,,,,,2,,,,,,,,high,17,0,17,0,1,,,,,,,,,
292942,2022-09-27_22h10.27.052,vts_reward_expectancy,2022.2.4,MacIntel,60.0024001,Chrome,1440,900,,,,,1,979,,,,,,,,,,,,,,,,,139,D,circle,1,0,,,,,,,,,,,,,,,,switch,letter,lettSwt,j,1.0886,Lo,,,,,,2,,,,,,,,high,18,0,18,0,1,,,,,,,,,
292942,2022-09-27_22h10.27.052,vts_reward_expectancy,2022.2.4,MacIntel,60.0024001,Chrome,1440,900,,,,,0,979,,,,,,,,,,,,,,,,,167,W,triangle,1,0,,,,,,,,,,,,,,,,repeat,letter,lettRpt,k,0.9605,Hi,,,,,,2,,,,,,,,high,19,0,19,0,1,,,,,,,,,
292942,2022-09-27_22h10.27.052,vts_reward_expectancy,2022.2.4,MacIntel,60.0024001,Chrome,1440,900,,,,,0,979,,,,,,,,,,,,,,,,,132,F,triangle,1,0,,,,,,,,,,,,,,,,repeat,letter,lettRpt,j,0.7825,Hi,,,,,,2,,,,,,,,high,20,0,20,0,1,,,,,,,,,
292942,2022-09-27_22h10.27.052,vts_reward_expectancy,2022.2.4,MacIntel,60.0024001,Chrome,1440,900,,,,,10,989,,,,,,,,,,,,,,,,,125,S,circle,1,0,,,,,,,,,,,,,,,,repeat,letter,lettRpt,k,0.5547,Lo,,,,,,2,,,,,,,,high,21,0,21,0,1,,,,,,,,,
292942,2022-09-27_22h10.27.052,vts_reward_expectancy,2022.2.4,MacIntel,60.0024001,Chrome,1440,900,,,,,10,999,,,,,,,,,,,,,,,,,174,Y,triangle,1,0,,,,,,,,,,,,,,,,switch,number,numSwt,f,0.5445,Hi,,,,,,2,,,,,,,,high,22,0,22,0,1,,,,,,,,,
292942,2022-09-27_22h10.27.052,vts_reward_expectancy,2022.2.4,MacIntel,60.0024001,Chrome,1440,900,,,,,10,1009,,,,,,,,,,,,,,,,,146,B,circle,1,0,,,,,,,,,,,,,,,,repeat,number,numRpt,d,0.6851,Lo,,,,,,2,,,,,,,,high,23,0,23,0,1,,,,,,,,,
292942,2022-09-27_22h10.27.052,vts_reward_expectancy,2022.2.4,MacIntel,60.0024001,Chrome,1440,900,,,,,0,1009,,,,,,,,,,,,,,,,,146,U,triangle,0,0,,,,,,,,,,,,,,,,switch,letter,NA,j,1.0406,Lo,,,,,,2,,,,,,,,high,24,0,24,0,1,,,,,,,,,
292942,2022-09-27_22h10.27.052,vts_reward_expectancy,2022.2.4,MacIntel,60.0024001,Chrome,1440,900,,,,,10,1019,,,,,,,,,,,,,,,,,139,H,circle,1,1,,,,,,,,,,,,,,,,switch,number,numSwt,d,0.7882,Lo,,,,,,2,,,,,,,,high,25,0,25,0,1,,,,,,,,,
292942,2022-09-27_22h10.27.052,vts_reward_expectancy,2022.2.4,MacIntel,60.0024001,Chrome,1440,900,,,,,10,1029,,,,,,,,,,,,,,,,,132,S,triangle,1,0,,,,,,,,,,,,,,,,repeat,number,numRpt,d,0.516,Hi,,,,,,2,,,,,,,,high,26,0,26,0,1,,,,,,,,,
292942,2022-09-27_22h10.27.052,vts_reward_expectancy,2022.2.4,MacIntel,60.0024001,Chrome,1440,900,,,,,1,1030,,,,,,,,,,,,,,,,,181,D,circle,1,0,,,,,,,,,,,,,,,,repeat,number,numRpt,f,0.5542,Lo,,,,,,2,,,,,,,,high,27,0,27,0,1,,,,,,,,,
292942,2022-09-27_22h10.27.052,vts_reward_expectancy,2022.2.4,MacIntel,60.0024001,Chrome,1440,900,,,,,10,1040,,,,,,,,,,,,,,,,,174,W,triangle,1,0,,,,,,,,,,,,,,,,repeat,number,numRpt,f,0.6115,Hi,,,,,,2,,,,,,,,high,28,0,28,0,1,,,,,,,,,
292942,2022-09-27_22h10.27.052,vts_reward_expectancy,2022.2.4,MacIntel,60.0024001,Chrome,1440,900,,,,,1,1041,,,,,,,,,,,,,,,,,125,Y,circle,1,0,,,,,,,,,,,,,,,,repeat,number,numRpt,d,0.5972,Lo,,,,,,2,,,,,,,,high,29,0,29,0,1,,,,,,,,,
292942,2022-09-27_22h10.27.052,vts_reward_expectancy,2022.2.4,MacIntel,60.0024001,Chrome,1440,900,,,,,10,1051,,,,,,,,,,,,,,,,,160,F,circle,1,0,,,,,,,,,,,,,,,,switch,letter,lettSwt,j,0.5363,Lo,,,,,,2,,,,,,,,high,30,0,30,0,1,,,,,,,,,
292942,2022-09-27_22h10.27.052,vts_reward_expectancy,2022.2.4,MacIntel,60.0024001,Chrome,1440,900,,,,,10,1061,,,,,,,,,,,,,,,,,167,B,triangle,1,0,,,,,,,,,,,,,,,,repeat,letter,lettRpt,j,0.5814,Hi,,,,,,2,,,,,,,,high,31,0,31,0,1,,,,,,,,,
292942,2022-09-27_22h10.27.052,vts_reward_expectancy,2022.2.4,MacIntel,60.0024001,Chrome,1440,900,,,,,1,1062,,,,,,,,,,,,,,,,,139,W,star,1,0,,,,,,,,,,,,,,,,repeat,letter,lettRpt,k,0.5946,Lo,,,,,,3,,,,,,space,84.5729,low,0,0,0,0,1,,,,,,,,,
292942,2022-09-27_22h10.27.052,vts_reward_expectancy,2022.2.4,MacIntel,60.0024001,Chrome,1440,900,,,,,10,1072,,,,,,,,,,,,,,,,,167,H,hexagon,1,0,,,,,,,,,,,,,,,,repeat,letter,lettRpt,j,0.5668,Hi,,,,,,3,,,,,,,,low,1,0,1,0,1,,,,,,,,,
292942,2022-09-27_22h10.27.052,vts_reward_expectancy,2022.2.4,MacIntel,60.0024001,Chrome,1440,900,,,,,1,1073,,,,,,,,,,,,,,,,,132,U,star,1,0,,,,,,,,,,,,,,,,repeat,letter,lettRpt,k,0.8891,Lo,,,,,,3,,,,,,,,low,2,0,2,0,1,,,,,,,,,
292942,2022-09-27_22h10.27.052,vts_reward_expectancy,2022.2.4,MacIntel,60.0024001,Chrome,1440,900,,,,,0,1073,,,,,,,,,,,,,,,,,160,S,hexagon,1,0,,,,,,,,,,,,,,,,switch,number,numSwt,f,0.6681,Hi,,,,,,3,,,,,,,,low,3,0,3,0,1,,,,,,,,,
292942,2022-09-27_22h10.27.052,vts_reward_expectancy,2022.2.4,MacIntel,60.0024001,Chrome,1440,900,,,,,10,1083,,,,,,,,,,,,,,,,,174,F,star,1,0,,,,,,,,,,,,,,,,switch,letter,lettSwt,j,0.6326,Lo,,,,,,3,,,,,,,,low,4,0,4,0,1,,,,,,,,,
292942,2022-09-27_22h10.27.052,vts_reward_expectancy,2022.2.4,MacIntel,60.0024001,Chrome,1440,900,,,,,10,1093,,,,,,,,,,,,,,,,,125,Y,hexagon,1,0,,,,,,,,,,,,,,,,switch,number,numSwt,d,0.502,Hi,,,,,,3,,,,,,,,low,5,0,5,0,1,,,,,,,,,
292942,2022-09-27_22h10.27.052,vts_reward_expectancy,2022.2.4,MacIntel,60.0024001,Chrome,1440,900,,,,,10,1103,,,,,,,,,,,,,,,,,181,B,star,1,0,,,,,,,,,,,,,,,,repeat,number,numRpt,f,0.865,Lo,,,,,,3,,,,,,,,low,6,0,6,0,1,,,,,,,,,
292942,2022-09-27_22h10.27.052,vts_reward_expectancy,2022.2.4,MacIntel,60.0024001,Chrome,1440,900,,,,,0,1103,,,,,,,,,,,,,,,,,146,D,hexagon,1,0,,,,,,,,,,,,,,,,repeat,number,numRpt,d,0.9186,Hi,,,,,,3,,,,,,,,low,7,0,7,0,1,,,,,,,,,
292942,2022-09-27_22h10.27.052,vts_reward_expectancy,2022.2.4,MacIntel,60.0024001,Chrome,1440,900,,,,,1,1104,,,,,,,,,,,,,,,,,139,W,star,1,0,,,,,,,,,,,,,,,,repeat,number,numRpt,d,0.5952,Lo,,,,,,3,,,,,,,,low,8,0,8,0,1,,,,,,,,,
292942,2022-09-27_22h10.27.052,vts_reward_expectancy,2022.2.4,MacIntel,60.0024001,Chrome,1440,900,,,,,0,1104,,,,,,,,,,,,,,,,,167,H,hexagon,1,0,,,,,,,,,,,,,,,,repeat,number,numRpt,f,0.7647,Hi,,,,,,3,,,,,,,,low,9,0,9,0,1,,,,,,,,,
292942,2022-09-27_22h10.27.052,vts_reward_expectancy,2022.2.4,MacIntel,60.0024001,Chrome,1440,900,,,,,1,1105,,,,,,,,,,,,,,,,,132,U,star,1,0,,,,,,,,,,,,,,,,repeat,number,numRpt,d,0.7641,Lo,,,,,,3,,,,,,,,low,10,0,10,0,1,,,,,,,,,
292942,2022-09-27_22h10.27.052,vts_reward_expectancy,2022.2.4,MacIntel,60.0024001,Chrome,1440,900,,,,,10,1115,,,,,,,,,,,,,,,,,160,S,hexagon,1,0,,,,,,,,,,,,,,,,repeat,number,numRpt,f,0.4456,Hi,,,,,,3,,,,,,,,low,11,0,11,0,1,,,,,,,,,
292942,2022-09-27_22h10.27.052,vts_reward_expectancy,2022.2.4,MacIntel,60.0024001,Chrome,1440,900,,,,,10,1125,,,,,,,,,,,,,,,,,174,F,hexagon,1,0,,,,,,,,,,,,,,,,switch,letter,lettSwt,j,0.5153,Hi,,,,,,3,,,,,,,,low,12,0,12,0,1,,,,,,,,,
292942,2022-09-27_22h10.27.052,vts_reward_expectancy,2022.2.4,MacIntel,60.0024001,Chrome,1440,900,,,,,10,1135,,,,,,,,,,,,,,,,,125,Y,star,1,0,,,,,,,,,,,,,,,,repeat,letter,lettRpt,k,0.5966,Lo,,,,,,3,,,,,,,,low,13,0,13,0,1,,,,,,,,,
292942,2022-09-27_22h10.27.052,vts_reward_expectancy,2022.2.4,MacIntel,60.0024001,Chrome,1440,900,,,,,10,1145,,,,,,,,,,,,,,,,,181,B,star,1,0,,,,,,,,,,,,,,,,repeat,letter,lettRpt,j,0.5467,Lo,,,,,,3,,,,,,,,low,14,0,14,0,1,,,,,,,,,
292942,2022-09-27_22h10.27.052,vts_reward_expectancy,2022.2.4,MacIntel,60.0024001,Chrome,1440,900,,,,,10,1155,,,,,,,,,,,,,,,,,146,D,hexagon,1,0,,,,,,,,,,,,,,,,repeat,letter,lettRpt,j,0.6048,Hi,,,,,,3,,,,,,,,low,15,0,15,0,1,,,,,,,,,
292942,2022-09-27_22h10.27.052,vts_reward_expectancy,2022.2.4,MacIntel,60.0024001,Chrome,1440,900,,,,,0,1155,,,,,,,,,,,,,,,,,146,D,hexagon,1,0,,,,,,,,,,,,,,,,repeat,letter,lettRpt,j,0.6672,Hi,,,,,,3,,,,,,,,low,16,0,16,0,1,,,,,,,,,
292942,2022-09-27_22h10.27.052,vts_reward_expectancy,2022.2.4,MacIntel,60.0024001,Chrome,1440,900,,,,,1,1156,,,,,,,,,,,,,,,,,160,U,star,1,0,,,,,,,,,,,,,,,,switch,number,numSwt,f,0.6303,Lo,,,,,,3,,,,,,,,low,17,0,17,0,1,,,,,,,,,
292942,2022-09-27_22h10.27.052,vts_reward_expectancy,2022.2.4,MacIntel,60.0024001,Chrome,1440,900,,,,,10,1166,,,,,,,,,,,,,,,,,139,W,star,1,0,,,,,,,,,,,,,,,,repeat,number,numRpt,d,0.4457,Lo,,,,,,3,,,,,,,,low,18,0,18,0,1,,,,,,,,,
292942,2022-09-27_22h10.27.052,vts_reward_expectancy,2022.2.4,MacIntel,60.0024001,Chrome,1440,900,,,,,0,1166,,,,,,,,,,,,,,,,,132,Y,hexagon,1,0,,,,,,,,,,,,,,,,repeat,number,numRpt,d,0.6289,Hi,,,,,,3,,,,,,,,low,19,0,19,0,1,,,,,,,,,
292942,2022-09-27_22h10.27.052,vts_reward_expectancy,2022.2.4,MacIntel,60.0024001,Chrome,1440,900,,,,,0,1166,,,,,,,,,,,,,,,,,167,S,hexagon,0,0,,,,,,,,,,,,,,,,repeat,number,NA,d,0.6781,Hi,,,,,,3,,,,,,,,low,20,0,20,0,1,,,,,,,,,
292942,2022-09-27_22h10.27.052,vts_reward_expectancy,2022.2.4,MacIntel,60.0024001,Chrome,1440,900,,,,,10,1176,,,,,,,,,,,,,,,,,125,F,star,1,1,,,,,,,,,,,,,,,,repeat,number,numRpt,d,0.5308,Lo,,,,,,3,,,,,,,,low,21,0,21,0,1,,,,,,,,,
292942,2022-09-27_22h10.27.052,vts_reward_expectancy,2022.2.4,MacIntel,60.0024001,Chrome,1440,900,,,,,1,1177,,,,,,,,,,,,,,,,,174,B,star,1,0,,,,,,,,,,,,,,,,repeat,number,numRpt,f,0.5139,Lo,,,,,,3,,,,,,,,low,22,0,22,0,1,,,,,,,,,
292942,2022-09-27_22h10.27.052,vts_reward_expectancy,2022.2.4,MacIntel,60.0024001,Chrome,1440,900,,,,,0,1177,,,,,,,,,,,,,,,,,181,H,hexagon,1,0,,,,,,,,,,,,,,,,repeat,number,numRpt,f,0.6129,Hi,,,,,,3,,,,,,,,low,23,0,23,0,1,,,,,,,,,
292942,2022-09-27_22h10.27.052,vts_reward_expectancy,2022.2.4,MacIntel,60.0024001,Chrome,1440,900,,,,,0,1177,,,,,,,,,,,,,,,,,160,H,hexagon,1,0,,,,,,,,,,,,,,,,repeat,number,numRpt,f,0.5676,Hi,,,,,,3,,,,,,,,low,24,0,24,0,1,,,,,,,,,
292942,2022-09-27_22h10.27.052,vts_reward_expectancy,2022.2.4,MacIntel,60.0024001,Chrome,1440,900,,,,,1,1178,,,,,,,,,,,,,,,,,139,F,star,1,0,,,,,,,,,,,,,,,,repeat,number,numRpt,d,0.4288,Lo,,,,,,3,,,,,,,,low,25,0,25,0,1,,,,,,,,,
292942,2022-09-27_22h10.27.052,vts_reward_expectancy,2022.2.4,MacIntel,60.0024001,Chrome,1440,900,,,,,0,1178,,,,,,,,,,,,,,,,,181,W,hexagon,1,0,,,,,,,,,,,,,,,,repeat,number,numRpt,f,0.5809,Hi,,,,,,3,,,,,,,,low,26,0,26,0,1,,,,,,,,,
292942,2022-09-27_22h10.27.052,vts_reward_expectancy,2022.2.4,MacIntel,60.0024001,Chrome,1440,900,,,,,10,1188,,,,,,,,,,,,,,,,,174,B,star,1,0,,,,,,,,,,,,,,,,switch,letter,lettSwt,j,0.646,Lo,,,,,,3,,,,,,,,low,27,0,27,0,1,,,,,,,,,
292942,2022-09-27_22h10.27.052,vts_reward_expectancy,2022.2.4,MacIntel,60.0024001,Chrome,1440,900,,,,,10,1198,,,,,,,,,,,,,,,,,167,U,hexagon,1,0,,,,,,,,,,,,,,,,repeat,letter,lettRpt,k,0.433,Hi,,,,,,3,,,,,,,,low,28,0,28,0,1,,,,,,,,,
292942,2022-09-27_22h10.27.052,vts_reward_expectancy,2022.2.4,MacIntel,60.0024001,Chrome,1440,900,,,,,0,1198,,,,,,,,,,,,,,,,,146,S,star,0,0,,,,,,,,,,,,,,,,repeat,letter,NA,j,0.6222,Hi,,,,,,3,,,,,,,,low,29,0,29,0,1,,,,,,,,,
292942,2022-09-27_22h10.27.052,vts_reward_expectancy,2022.2.4,MacIntel,60.0024001,Chrome,1440,900,,,,,0,1198,,,,,,,,,,,,,,,,,125,D,hexagon,1,1,,,,,,,,,,,,,,,,repeat,letter,lettRpt,j,0.6709,Hi,,,,,,3,,,,,,,,low,30,0,30,0,1,,,,,,,,,
292942,2022-09-27_22h10.27.052,vts_reward_expectancy,2022.2.4,MacIntel,60.0024001,Chrome,1440,900,,,,,10,1208,,,,,,,,,,,,,,,,,132,Y,star,1,0,,,,,,,,,,,,,,,,repeat,letter,lettRpt,k,0.5838,Lo,,,,,,3,,,,,,,,low,31,0,31,0,1,,,,,,,,,
292942,2022-09-27_22h10.27.052,vts_reward_expectancy,2022.2.4,MacIntel,60.0024001,Chrome,1440,900,,,,,1,1209,,,,,,,,,,,,,,,,,167,H,circle,1,0,,,,,,,,,,,,,,,,repeat,letter,lettRpt,j,0.5951,Lo,,,,,,4,,,,,,space,1.088,high,0,0,0,0,1,,,,,,,,,
292942,2022-09-27_22h10.27.052,vts_reward_expectancy,2022.2.4,MacIntel,60.0024001,Chrome,1440,900,,,,,0,1209,,,,,,,,,,,,,,,,,181,S,triangle,1,0,,,,,,,,,,,,,,,,repeat,letter,lettRpt,k,0.68,Hi,,,,,,4,,,,,,,,high,1,0,1,0,1,,,,,,,,,
292942,2022-09-27_22h10.27.052,vts_reward_expectancy,2022.2.4,MacIntel,60.0024001,Chrome,1440,900,,,,,10,1219,,,,,,,,,,,,,,,,,125,F,circle,1,0,,,,,,,,,,,,,,,,repeat,letter,lettRpt,j,0.5184,Lo,,,,,,4,,,,,,,,high,2,0,2,0,1,,,,,,,,,
292942,2022-09-27_22h10.27.052,vts_reward_expectancy,2022.2.4,MacIntel,60.0024001,Chrome,1440,900,,,,,10,1229,,,,,,,,,,,,,,,,,174,D,triangle,1,0,,,,,,,,,,,,,,,,repeat,letter,lettRpt,j,0.5461,Hi,,,,,,4,,,,,,,,high,3,0,3,0,1,,,,,,,,,
292942,2022-09-27_22h10.27.052,vts_reward_expectancy,2022.2.4,MacIntel,60.0024001,Chrome,1440,900,,,,,1,1230,,,,,,,,,,,,,,,,,139,W,circle,1,0,,,,,,,,,,,,,,,,repeat,letter,lettRpt,k,0.5846,Lo,,,,,,4,,,,,,,,high,4,0,4,0,1,,,,,,,,,
292942,2022-09-27_22h10.27.052,vts_reward_expectancy,2022.2.4,MacIntel,60.0024001,Chrome,1440,900,,,,,10,1240,,,,,,,,,,,,,,,,,146,Y,triangle,1,0,,,,,,,,,,,,,,,,repeat,letter,lettRpt,k,0.5144,Hi,,,,,,4,,,,,,,,high,5,0,5,0,1,,,,,,,,,
292942,2022-09-27_22h10.27.052,vts_reward_expectancy,2022.2.4,MacIntel,60.0024001,Chrome,1440,900,,,,,1,1241,,,,,,,,,,,,,,,,,160,U,circle,1,0,,,,,,,,,,,,,,,,repeat,letter,lettRpt,k,0.4824,Lo,,,,,,4,,,,,,,,high,6,0,6,0,1,,,,,,,,,
292942,2022-09-27_22h10.27.052,vts_reward_expectancy,2022.2.4,MacIntel,60.0024001,Chrome,1440,900,,,,,10,1251,,,,,,,,,,,,,,,,,132,B,triangle,1,0,,,,,,,,,,,,,,,,repeat,letter,lettRpt,j,0.4686,Hi,,,,,,4,,,,,,,,high,7,0,7,0,1,,,,,,,,,
292942,2022-09-27_22h10.27.052,vts_reward_expectancy,2022.2.4,MacIntel,60.0024001,Chrome,1440,900,,,,,1,1252,,,,,,,,,,,,,,,,,167,H,circle,1,0,,,,,,,,,,,,,,,,repeat,letter,lettRpt,j,0.6315,Lo,,,,,,4,,,,,,,,high,8,0,8,0,1,,,,,,,,,
292942,2022-09-27_22h10.27.052,vts_reward_expectancy,2022.2.4,MacIntel,60.0024001,Chrome,1440,900,,,,,0,1252,,,,,,,,,,,,,,,,,181,S,triangle,1,0,,,,,,,,,,,,,,,,repeat,letter,lettRpt,k,0.6808,Hi,,,,,,4,,,,,,,,high,9,0,9,0,1,,,,,,,,,
292942,2022-09-27_22h10.27.052,vts_reward_expectancy,2022.2.4,MacIntel,60.0024001,Chrome,1440,900,,,,,1,1253,,,,,,,,,,,,,,,,,125,F,triangle,1,0,,,,,,,,,,,,,,,,repeat,letter,lettRpt,j,0.5222,Hi,,,,,,4,,,,,,,,high,10,0,10,0,1,,,,,,,,,
292942,2022-09-27_22h10.27.052,vts_reward_expectancy,2022.2.4,MacIntel,60.0024001,Chrome,1440,900,,,,,1,1254,,,,,,,,,,,,,,,,,174,D,circle,1,0,,,,,,,,,,,,,,,,repeat,letter,lettRpt,j,0.4995,Lo,,,,,,4,,,,,,,,high,11,0,11,0,1,,,,,,,,,
292942,2022-09-27_22h10.27.052,vts_reward_expectancy,2022.2.4,MacIntel,60.0024001,Chrome,1440,900,,,,,1,1255,,,,,,,,,,,,,,,,,139,W,circle,1,0,,,,,,,,,,,,,,,,repeat,letter,lettRpt,k,0.5485,Lo,,,,,,4,,,,,,,,high,12,0,12,0,1,,,,,,,,,
292942,2022-09-27_22h10.27.052,vts_reward_expectancy,2022.2.4,MacIntel,60.0024001,Chrome,1440,900,,,,,0,1255,,,,,,,,,,,,,,,,,146,Y,triangle,0,0,,,,,,,,,,,,,,,,repeat,letter,NA,j,0.5728,Lo,,,,,,4,,,,,,,,high,13,0,13,0,1,,,,,,,,,
292942,2022-09-27_22h10.27.052,vts_reward_expectancy,2022.2.4,MacIntel,60.0024001,Chrome,1440,900,,,,,0,1255,,,,,,,,,,,,,,,,,160,U,triangle,0,1,,,,,,,,,,,,,,,,switch,number,NA,d,0.5943,Lo,,,,,,4,,,,,,,,high,14,0,14,0,1,,,,,,,,,
292942,2022-09-27_22h10.27.052,vts_reward_expectancy,2022.2.4,MacIntel,60.0024001,Chrome,1440,900,,,,,1,1256,,,,,,,,,,,,,,,,,132,B,circle,1,1,,,,,,,,,,,,,,,,repeat,number,numRpt,d,0.4949,Lo,,,,,,4,,,,,,,,high,15,0,15,0,1,,,,,,,,,
292942,2022-09-27_22h10.27.052,vts_reward_expectancy,2022.2.4,MacIntel,60.0024001,Chrome,1440,900,,,,,0,1256,,,,,,,,,,,,,,,,,146,U,triangle,1,0,,,,,,,,,,,,,,,,repeat,number,numRpt,d,0.5663,Hi,,,,,,4,,,,,,,,high,16,0,16,0,1,,,,,,,,,
292942,2022-09-27_22h10.27.052,vts_reward_expectancy,2022.2.4,MacIntel,60.0024001,Chrome,1440,900,,,,,1,1257,,,,,,,,,,,,,,,,,125,H,circle,1,0,,,,,,,,,,,,,,,,repeat,number,numRpt,d,0.5639,Lo,,,,,,4,,,,,,,,high,17,0,17,0,1,,,,,,,,,
292942,2022-09-27_22h10.27.052,vts_reward_expectancy,2022.2.4,MacIntel,60.0024001,Chrome,1440,900,,,,,10,1267,,,,,,,,,,,,,,,,,139,Y,circle,1,0,,,,,,,,,,,,,,,,repeat,number,numRpt,d,0.4795,Lo,,,,,,4,,,,,,,,high,18,0,18,0,1,,,,,,,,,
292942,2022-09-27_22h10.27.052,vts_reward_expectancy,2022.2.4,MacIntel,60.0024001,Chrome,1440,900,,,,,0,1267,,,,,,,,,,,,,,,,,167,D,triangle,1,0,,,,,,,,,,,,,,,,repeat,number,numRpt,f,0.6008,Hi,,,,,,4,,,,,,,,high,19,0,19,0,1,,,,,,,,,
292942,2022-09-27_22h10.27.052,vts_reward_expectancy,2022.2.4,MacIntel,60.0024001,Chrome,1440,900,,,,,1,1268,,,,,,,,,,,,,,,,,160,F,circle,1,0,,,,,,,,,,,,,,,,switch,letter,lettSwt,j,0.6331,Lo,,,,,,4,,,,,,,,high,20,0,20,0,1,,,,,,,,,
292942,2022-09-27_22h10.27.052,vts_reward_expectancy,2022.2.4,MacIntel,60.0024001,Chrome,1440,900,,,,,1,1269,,,,,,,,,,,,,,,,,174,B,triangle,1,0,,,,,,,,,,,,,,,,repeat,letter,lettRpt,j,0.4777,Hi,,,,,,4,,,,,,,,high,21,0,21,0,1,,,,,,,,,
292942,2022-09-27_22h10.27.052,vts_reward_expectancy,2022.2.4,MacIntel,60.0024001,Chrome,1440,900,,,,,1,1270,,,,,,,,,,,,,,,,,181,W,circle,1,0,,,,,,,,,,,,,,,,repeat,letter,lettRpt,k,0.4696,Lo,,,,,,4,,,,,,,,high,22,0,22,0,1,,,,,,,,,
292942,2022-09-27_22h10.27.052,vts_reward_expectancy,2022.2.4,MacIntel,60.0024001,Chrome,1440,900,,,,,0,1270,,,,,,,,,,,,,,,,,132,S,triangle,1,0,,,,,,,,,,,,,,,,repeat,letter,lettRpt,k,0.5844,Hi,,,,,,4,,,,,,,,high,23,0,23,0,1,,,,,,,,,
292942,2022-09-27_22h10.27.052,vts_reward_expectancy,2022.2.4,MacIntel,60.0024001,Chrome,1440,900,,,,,1,1271,,,,,,,,,,,,,,,,,167,Y,circle,1,0,,,,,,,,,,,,,,,,repeat,letter,lettRpt,k,0.4484,Lo,,,,,,4,,,,,,,,high,24,0,24,0,1,,,,,,,,,
292942,2022-09-27_22h10.27.052,vts_reward_expectancy,2022.2.4,MacIntel,60.0024001,Chrome,1440,900,,,,,10,1281,,,,,,,,,,,,,,,,,174,F,triangle,1,0,,,,,,,,,,,,,,,,repeat,letter,lettRpt,j,0.5434,Hi,,,,,,4,,,,,,,,high,25,0,25,0,1,,,,,,,,,
292942,2022-09-27_22h10.27.052,vts_reward_expectancy,2022.2.4,MacIntel,60.0024001,Chrome,1440,900,,,,,0,1281,,,,,,,,,,,,,,,,,139,H,triangle,1,0,,,,,,,,,,,,,,,,repeat,letter,lettRpt,j,0.7289,Hi,,,,,,4,,,,,,,,high,26,0,26,0,1,,,,,,,,,
292942,2022-09-27_22h10.27.052,vts_reward_expectancy,2022.2.4,MacIntel,60.0024001,Chrome,1440,900,,,,,0,1281,,,,,,,,,,,,,,,,,125,W,circle,0,0,,,,,,,,,,,,,,,,switch,number,NA,f,0.8997,Hi,,,,,,4,,,,,,,,high,27,0,27,0,1,,,,,,,,,
292942,2022-09-27_22h10.27.052,vts_reward_expectancy,2022.2.4,MacIntel,60.0024001,Chrome,1440,900,,,,,10,1291,,,,,,,,,,,,,,,,,160,S,triangle,1,1,,,,,,,,,,,,,,,,repeat,number,numRpt,f,0.5327,Hi,,,,,,4,,,,,,,,high,28,0,28,0,1,,,,,,,,,
292942,2022-09-27_22h10.27.052,vts_reward_expectancy,2022.2.4,MacIntel,60.0024001,Chrome,1440,900,,,,,1,1292,,,,,,,,,,,,,,,,,132,B,circle,1,0,,,,,,,,,,,,,,,,repeat,number,numRpt,d,0.5298,Lo,,,,,,4,,,,,,,,high,29,0,29,0,1,,,,,,,,,
292942,2022-09-27_22h10.27.052,vts_reward_expectancy,2022.2.4,MacIntel,60.0024001,Chrome,1440,900,,,,,1,1293,,,,,,,,,,,,,,,,,181,D,circle,1,0,,,,,,,,,,,,,,,,repeat,number,numRpt,f,0.5991,Lo,,,,,,4,,,,,,,,high,30,0,30,0,1,,,,,,,,,
292942,2022-09-27_22h10.27.052,vts_reward_expectancy,2022.2.4,MacIntel,60.0024001,Chrome,1440,900,,,,,0,1293,,,,,,,,,,,,,,,,,146,U,triangle,1,0,,,,,,,,,,,,,,,,repeat,number,numRpt,d,0.5492,Hi,,,,,,4,,,,,,,,high,31,0,31,0,1,,,,,,,,,
292942,2022-09-27_22h10.27.052,vts_reward_expectancy,2022.2.4,MacIntel,60.0024001,Chrome,1440,900,,,,,10,1303,,,,,,,,,,,,,,,,,174,B,star,1,0,,,,,,,,,,,,,,,,switch,letter,lettSwt,j,0.66,Lo,,,,,,5,,,,,,space,0.671,low,0,0,0,0,1,,,,,,,,,
292942,2022-09-27_22h10.27.052,vts_reward_expectancy,2022.2.4,MacIntel,60.0024001,Chrome,1440,900,,,,,1,1304,,,,,,,,,,,,,,,,,125,U,hexagon,1,0,,,,,,,,,,,,,,,,repeat,letter,lettRpt,k,0.4175,Hi,,,,,,5,,,,,,,,low,1,0,1,0,1,,,,,,,,,
292942,2022-09-27_22h10.27.052,vts_reward_expectancy,2022.2.4,MacIntel,60.0024001,Chrome,1440,900,,,,,10,1314,,,,,,,,,,,,,,,,,132,F,star,1,0,,,,,,,,,,,,,,,,repeat,letter,lettRpt,j,0.5831,Lo,,,,,,5,,,,,,,,low,2,0,2,0,1,,,,,,,,,
292942,2022-09-27_22h10.27.052,vts_reward_expectancy,2022.2.4,MacIntel,60.0024001,Chrome,1440,900,,,,,0,1314,,,,,,,,,,,,,,,,,139,H,hexagon,1,0,,,,,,,,,,,,,,,,repeat,letter,lettRpt,j,0.6669,Hi,,,,,,5,,,,,,,,low,3,0,3,0,1,,,,,,,,,
292942,2022-09-27_22h10.27.052,vts_reward_expectancy,2022.2.4,MacIntel,60.0024001,Chrome,1440,900,,,,,0,1314,,,,,,,,,,,,,,,,,167,D,hexagon,1,0,,,,,,,,,,,,,,,,repeat,letter,lettRpt,j,0.563,Hi,,,,,,5,,,,,,,,low,4,0,4,0,1,,,,,,,,,
292942,2022-09-27_22h10.27.052,vts_reward_expectancy,2022.2.4,MacIntel,60.0024001,Chrome,1440,900,,,,,10,1324,,,,,,,,,,,,,,,,,160,Y,star,1,0,,,,,,,,,,,,,,,,repeat,letter,lettRpt,k,0.5394,Lo,,,,,,5,,,,,,,,low,5,0,5,0,1,,,,,,,,,
292942,2022-09-27_22h10.27.052,vts_reward_expectancy,2022.2.4,MacIntel,60.0024001,Chrome,1440,900,,,,,10,1334,,,,,,,,,,,,,,,,,146,S,star,1,0,,,,,,,,,,,,,,,,repeat,letter,lettRpt,k,0.4706,Lo,,,,,,5,,,,,,,,low,6,0,6,0,1,,,,,,,,,
292942,2022-09-27_22h10.27.052,vts_reward_expectancy,2022.2.4,MacIntel,60.0024001,Chrome,1440,900,,,,,0,1334,,,,,,,,,,,,,,,,,181,W,hexagon,1,0,,,,,,,,,,,,,,,,repeat,letter,lettRpt,k,0.5504,Hi,,,,,,5,,,,,,,,low,7,0,7,0,1,,,,,,,,,
292942,2022-09-27_22h10.27.052,vts_reward_expectancy,2022.2.4,MacIntel,60.0024001,Chrome,1440,900,,,,,10,1344,,,,,,,,,,,,,,,,,174,B,hexagon,1,0,,,,,,,,,,,,,,,,switch,number,numSwt,f,0.5713,Hi,,,,,,5,,,,,,,,low,8,0,8,0,1,,,,,,,,,
292942,2022-09-27_22h10.27.052,vts_reward_expectancy,2022.2.4,MacIntel,60.0024001,Chrome,1440,900,,,,,10,1354,,,,,,,,,,,,,,,,,125,U,star,1,0,,,,,,,,,,,,,,,,repeat,number,numRpt,d,0.4186,Lo,,,,,,5,,,,,,,,low,9,0,9,0,1,,,,,,,,,
292942,2022-09-27_22h10.27.052,vts_reward_expectancy,2022.2.4,MacIntel,60.0024001,Chrome,1440,900,,,,,1,1355,,,,,,,,,,,,,,,,,132,F,star,1,0,,,,,,,,,,,,,,,,repeat,number,numRpt,d,0.5298,Lo,,,,,,5,,,,,,,,low,10,0,10,0,1,,,,,,,,,
292942,2022-09-27_22h10.27.052,vts_reward_expectancy,2022.2.4,MacIntel,60.0024001,Chrome,1440,900,,,,,0,1355,,,,,,,,,,,,,,,,,139,H,hexagon,1,0,,,,,,,,,,,,,,,,repeat,number,numRpt,d,0.6535,Hi,,,,,,5,,,,,,,,low,11,0,11,0,1,,,,,,,,,
292942,2022-09-27_22h10.27.052,vts_reward_expectancy,2022.2.4,MacIntel,60.0024001,Chrome,1440,900,,,,,1,1356,,,,,,,,,,,,,,,,,167,D,star,1,0,,,,,,,,,,,,,,,,repeat,number,numRpt,f,0.6279,Lo,,,,,,5,,,,,,,,low,12,0,12,0,1,,,,,,,,,
292942,2022-09-27_22h10.27.052,vts_reward_expectancy,2022.2.4,MacIntel,60.0024001,Chrome,1440,900,,,,,10,1366,,,,,,,,,,,,,,,,,160,Y,hexagon,1,0,,,,,,,,,,,,,,,,repeat,number,numRpt,f,0.4785,Hi,,,,,,5,,,,,,,,low,13,0,13,0,1,,,,,,,,,
292942,2022-09-27_22h10.27.052,vts_reward_expectancy,2022.2.4,MacIntel,60.0024001,Chrome,1440,900,,,,,0,1366,,,,,,,,,,,,,,,,,146,S,hexagon,1,0,,,,,,,,,,,,,,,,repeat,number,numRpt,d,0.6527,Hi,,,,,,5,,,,,,,,low,14,0,14,0,1,,,,,,,,,
292942,2022-09-27_22h10.27.052,vts_reward_expectancy,2022.2.4,MacIntel,60.0024001,Chrome,1440,900,,,,,1,1367,,,,,,,,,,,,,,,,,181,W,star,1,0,,,,,,,,,,,,,,,,repeat,number,numRpt,f,0.7709,Lo,,,,,,5,,,,,,,,low,15,0,15,0,1,,,,,,,,,
292942,2022-09-27_22h10.27.052,vts_reward_expectancy,2022.2.4,MacIntel,60.0024001,Chrome,1440,900,,,,,1,1368,,,,,,,,,,,,,,,,,160,B,star,1,0,,,,,,,,,,,,,,,,repeat,number,numRpt,f,0.6996,Lo,,,,,,5,,,,,,,,low,16,0,16,0,1,,,,,,,,,
292942,2022-09-27_22h10.27.052,vts_reward_expectancy,2022.2.4,MacIntel,60.0024001,Chrome,1440,900,,,,,0,1368,,,,,,,,,,,,,,,,,139,H,hexagon,1,0,,,,,,,,,,,,,,,,repeat,number,numRpt,d,1.145,Hi,,,,,,5,,,,,,,,low,17,0,17,0,1,,,,,,,,,
292942,2022-09-27_22h10.27.052,vts_reward_expectancy,2022.2.4,MacIntel,60.0024001,Chrome,1440,900,,,,,10,1378,,,,,,,,,,,,,,,,,181,U,star,1,0,,,,,,,,,,,,,,,,switch,letter,lettSwt,k,1.2319,Lo,,,,,,5,,,,,,,,low,18,0,18,0,1,,,,,,,,,
292942,2022-09-27_22h10.27.052,vts_reward_expectancy,2022.2.4,MacIntel,60.0024001,Chrome,1440,900,,,,,0,1378,,,,,,,,,,,,,,,,,167,D,hexagon,1,0,,,,,,,,,,,,,,,,repeat,letter,lettRpt,j,0.6477,Hi,,,,,,5,,,,,,,,low,19,0,19,0,1,,,,,,,,,
292942,2022-09-27_22h10.27.052,vts_reward_expectancy,2022.2.4,MacIntel,60.0024001,Chrome,1440,900,,,,,1,1379,,,,,,,,,,,,,,,,,146,S,star,1,0,,,,,,,,,,,,,,,,repeat,letter,lettRpt,k,0.7405,Lo,,,,,,5,,,,,,,,low,20,0,20,0,1,,,,,,,,,
292942,2022-09-27_22h10.27.052,vts_reward_expectancy,2022.2.4,MacIntel,60.0024001,Chrome,1440,900,,,,,0,1379,,,,,,,,,,,,,,,,,132,Y,hexagon,0,0,,,,,,,,,,,,,,,,repeat,letter,NA,j,0.0364,Lo,,,,,,5,,,,,,,,low,21,0,21,0,1,,,,,,,,,
292942,2022-09-27_22h10.27.052,vts_reward_expectancy,2022.2.4,MacIntel,60.0024001,Chrome,1440,900,,,,,0,1379,,,,,,,,,,,,,,,,,125,F,hexagon,1,1,,,,,,,,,,,,,,,,repeat,letter,lettRpt,j,0.6131,Hi,,,,,,5,,,,,,,,low,22,0,22,0,1,,,,,,,,,
292942,2022-09-27_22h10.27.052,vts_reward_expectancy,2022.2.4,MacIntel,60.0024001,Chrome,1440,900,,,,,1,1380,,,,,,,,,,,,,,,,,174,W,star,1,0,,,,,,,,,,,,,,,,repeat,letter,lettRpt,k,0.8716,Lo,,,,,,5,,,,,,,,low,23,0,23,0,1,,,,,,,,,
292942,2022-09-27_22h10.27.052,vts_reward_expectancy,2022.2.4,MacIntel,60.0024001,Chrome,1440,900,,,,,10,1390,,,,,,,,,,,,,,,,,174,F,hexagon,1,0,,,,,,,,,,,,,,,,switch,number,numSwt,f,0.6817,Hi,,,,,,5,,,,,,,,low,24,0,24,0,1,,,,,,,,,
292942,2022-09-27_22h10.27.052,vts_reward_expectancy,2022.2.4,MacIntel,60.0024001,Chrome,1440,900,,,,,1,1391,,,,,,,,,,,,,,,,,139,U,star,1,0,,,,,,,,,,,,,,,,repeat,number,numRpt,d,0.6818,Lo,,,,,,5,,,,,,,,low,25,0,25,0,1,,,,,,,,,
292942,2022-09-27_22h10.27.052,vts_reward_expectancy,2022.2.4,MacIntel,60.0024001,Chrome,1440,900,,,,,10,1401,,,,,,,,,,,,,,,,,125,Y,star,1,0,,,,,,,,,,,,,,,,repeat,number,numRpt,d,0.713,Lo,,,,,,5,,,,,,,,low,26,0,26,0,1,,,,,,,,,
292942,2022-09-27_22h10.27.052,vts_reward_expectancy,2022.2.4,MacIntel,60.0024001,Chrome,1440,900,,,,,0,1401,,,,,,,,,,,,,,,,,167,B,hexagon,1,0,,,,,,,,,,,,,,,,repeat,number,numRpt,f,0.8975,Hi,,,,,,5,,,,,,,,low,27,0,27,0,1,,,,,,,,,
292942,2022-09-27_22h10.27.052,vts_reward_expectancy,2022.2.4,MacIntel,60.0024001,Chrome,1440,900,,,,,0,1401,,,,,,,,,,,,,,,,,160,W,star,-1,0,,,,,,,,,,,,,,,,switch,no_choice,NA,,,Hi,,,,,,5,,,,,,,,low,28,0,28,0,1,,,,,,,,,
292942,2022-09-27_22h10.27.052,vts_reward_expectancy,2022.2.4,MacIntel,60.0024001,Chrome,1440,900,,,,,10,1411,,,,,,,,,,,,,,,,,181,D,hexagon,1,0,,,,,,,,,,,,,,,,switch,letter,lettSwt,j,0.5635,Hi,,,,,,5,,,,,,,,low,29,0,29,0,1,,,,,,,,,
292942,2022-09-27_22h10.27.052,vts_reward_expectancy,2022.2.4,MacIntel,60.0024001,Chrome,1440,900,,,,,1,1412,,,,,,,,,,,,,,,,,132,H,star,1,0,,,,,,,,,,,,,,,,repeat,letter,lettRpt,j,0.5167,Lo,,,,,,5,,,,,,,,low,30,0,30,0,1,,,,,,,,,
292942,2022-09-27_22h10.27.052,vts_reward_expectancy,2022.2.4,MacIntel,60.0024001,Chrome,1440,900,,,,,0,1412,,,,,,,,,,,,,,,,,146,S,hexagon,1,0,,,,,,,,,,,,,,,,repeat,letter,lettRpt,k,0.8279,Hi,,,,,,5,,,,,,,,low,31,0,31,0,1,,,,,,,,,
292942,2022-09-27_22h10.27.052,vts_reward_expectancy,2022.2.4,MacIntel,60.0024001,Chrome,1440,900,,,,,,,,,,,,,,,,,,,,,,,,,,,,,,,,,,,,,,,,,,,,,,,,,,,,,,6,,,,,,,,,,,,,,"Recognize patterns, react quickly to presented stimuli",1,,4,1,,2,1440,900
