participant,date,expName,psychopyVersion,OS,frameRate,browser,xResolution,yResolution,key_resp.keys,key_resp.rt,training_resp.keys,training_resp.rt,points_trial,points_cumul,trainBlock,training.thisRepN,training.thisTrialN,training.thisN,training.thisIndex,training.ran,LTriangleOpac,LCircleOpac,LHexagonOpac,LStarOpac,RTriangleOpac,RCircleOpac,RHexagonOpac,RStarOpac,LShape_ID,RShape_ID,curr_topStim,curr_bottStim,curr_shape,acc,E1,target_resp_prac1.keys,target_resp_prac1.rt,pracBlock,task1_prac_trials.thisRepN,task1_prac_trials.thisTrialN,task1_prac_trials.thisN,task1_prac_trials.thisIndex,task1_prac_trials.ran,target_resp_prac2.keys,target_resp_prac2.rt,task2_praac_trials.thisRepN,task2_praac_trials.thisTrialN,task2_praac_trials.thisN,task2_praac_trials.thisIndex,task2_praac_trials.ran,alt,task,condition,target_resp.keys,target_resp.rt,rewCond,vts_practice_trials.thisRepN,vts_practice_trials.thisTrialN,vts_practice_trials.thisN,vts_practice_trials.thisIndex,vts_practice_trials.ran,blockNum,trials_norew.thisRepN,trials_norew.thisTrialN,trials_norew.thisN,trials_norew.thisIndex,trials_norew.ran,key_resp_2.keys,key_resp_2.rt,rewExpect,trials_rew.thisRepN,trials_rew.thisTrialN,trials_rew.thisN,trials_rew.thisIndex,trials_rew.ran,Q1,Q2,Q2_text,Q3,Q4,Q5_text,Q5,xRes,yRes
294952,2022-10-05_22h39.33.206,vts_reward_expectancy,2022.2.4,MacIntel,60.0024001,Chrome,1440,900,,,,,,,,,,,,,,,,,,,,,,,,,,,,,,,,,,,,,,,,,,,,,,,,,,,,,,,,,,,,,,,,,,,,,,,,,,,,
294952,2022-10-05_22h39.33.206,vts_reward_expectancy,2022.2.4,MacIntel,60.0024001,Chrome,1440,900,space,27.1107,,,,,,,,,,,,,,,,,,,,,,,,,,,,,,,,,,,,,,,,,,,,,,,,,,,,,,,,,,,,,,,,,,,,,,,,,,
294952,2022-10-05_22h39.33.206,vts_reward_expectancy,2022.2.4,MacIntel,60.0024001,Chrome,1440,900,,,,,,,,,,,,,,,,,,,,,,,,,,,,,,,,,,,,,,,,,,,,,,,,,,,,,,,,,,,,,,,,,,,,,,,,,,,,
294952,2022-10-05_22h39.33.206,vts_reward_expectancy,2022.2.4,MacIntel,60.0024001,Chrome,1440,900,,,l,1.88,10,10,0,0,0,0,7,1,0,0,1,0,0,1,0,0,hexagon,circle,,,,,,,,,,,,,,,,,,,,,,,,,,,,,,,,,,,,,,,,,,,,,,,,,,,,,,
294952,2022-10-05_22h39.33.206,vts_reward_expectancy,2022.2.4,MacIntel,60.0024001,Chrome,1440,900,,,l,1.3829,10,20,0,0,1,1,2,1,1,0,0,0,0,0,0,1,triangle,star,,,,,,,,,,,,,,,,,,,,,,,,,,,,,,,,,,,,,,,,,,,,,,,,,,,,,,
294952,2022-10-05_22h39.33.206,vts_reward_expectancy,2022.2.4,MacIntel,60.0024001,Chrome,1440,900,,,a,1.1946,10,30,0,0,2,2,11,1,0,0,0,1,0,0,1,0,star,hexagon,,,,,,,,,,,,,,,,,,,,,,,,,,,,,,,,,,,,,,,,,,,,,,,,,,,,,,
294952,2022-10-05_22h39.33.206,vts_reward_expectancy,2022.2.4,MacIntel,60.0024001,Chrome,1440,900,,,l,1.6518,10,40,0,0,3,3,10,1,0,0,0,1,0,1,0,0,star ,circle,,,,,,,,,,,,,,,,,,,,,,,,,,,,,,,,,,,,,,,,,,,,,,,,,,,,,,
294952,2022-10-05_22h39.33.206,vts_reward_expectancy,2022.2.4,MacIntel,60.0024001,Chrome,1440,900,,,l,1.6798,10,50,0,0,4,4,1,1,1,0,0,0,0,0,1,0,triangle,hexagon,,,,,,,,,,,,,,,,,,,,,,,,,,,,,,,,,,,,,,,,,,,,,,,,,,,,,,
294952,2022-10-05_22h39.33.206,vts_reward_expectancy,2022.2.4,MacIntel,60.0024001,Chrome,1440,900,,,l,1.1346,10,60,0,0,5,5,8,1,0,0,1,0,0,0,0,1,hexagon,star,,,,,,,,,,,,,,,,,,,,,,,,,,,,,,,,,,,,,,,,,,,,,,,,,,,,,,
294952,2022-10-05_22h39.33.206,vts_reward_expectancy,2022.2.4,MacIntel,60.0024001,Chrome,1440,900,,,l,0.9855,1,61,0,0,6,6,4,1,0,1,0,0,0,0,1,0,circle,hexagon,,,,,,,,,,,,,,,,,,,,,,,,,,,,,,,,,,,,,,,,,,,,,,,,,,,,,,
294952,2022-10-05_22h39.33.206,vts_reward_expectancy,2022.2.4,MacIntel,60.0024001,Chrome,1440,900,,,a,0.9843,10,71,0,0,7,7,9,1,0,0,0,1,1,0,0,0,star,triangle,,,,,,,,,,,,,,,,,,,,,,,,,,,,,,,,,,,,,,,,,,,,,,,,,,,,,,
294952,2022-10-05_22h39.33.206,vts_reward_expectancy,2022.2.4,MacIntel,60.0024001,Chrome,1440,900,,,l,0.7656,10,81,0,0,8,8,5,1,0,1,0,0,0,0,0,1,circle,star,,,,,,,,,,,,,,,,,,,,,,,,,,,,,,,,,,,,,,,,,,,,,,,,,,,,,,
294952,2022-10-05_22h39.33.206,vts_reward_expectancy,2022.2.4,MacIntel,60.0024001,Chrome,1440,900,,,a,2.3665,1,82,0,0,9,9,3,1,0,1,0,0,1,0,0,0,circle,triangle,,,,,,,,,,,,,,,,,,,,,,,,,,,,,,,,,,,,,,,,,,,,,,,,,,,,,,
294952,2022-10-05_22h39.33.206,vts_reward_expectancy,2022.2.4,MacIntel,60.0024001,Chrome,1440,900,,,a,2.05,1,83,0,0,10,10,0,1,1,0,0,0,0,1,0,0,triangle,circle,,,,,,,,,,,,,,,,,,,,,,,,,,,,,,,,,,,,,,,,,,,,,,,,,,,,,,
294952,2022-10-05_22h39.33.206,vts_reward_expectancy,2022.2.4,MacIntel,60.0024001,Chrome,1440,900,,,a,1.0664,1,84,0,0,11,11,6,1,0,0,1,0,1,0,0,0,hexagon,triangle,,,,,,,,,,,,,,,,,,,,,,,,,,,,,,,,,,,,,,,,,,,,,,,,,,,,,,
294952,2022-10-05_22h39.33.206,vts_reward_expectancy,2022.2.4,MacIntel,60.0024001,Chrome,1440,900,,,l,0.4197,10,94,0,1,0,12,5,1,0,1,0,0,0,0,0,1,circle,star,,,,,,,,,,,,,,,,,,,,,,,,,,,,,,,,,,,,,,,,,,,,,,,,,,,,,,
294952,2022-10-05_22h39.33.206,vts_reward_expectancy,2022.2.4,MacIntel,60.0024001,Chrome,1440,900,,,l,0.5687,10,104,0,1,1,13,2,1,1,0,0,0,0,0,0,1,triangle,star,,,,,,,,,,,,,,,,,,,,,,,,,,,,,,,,,,,,,,,,,,,,,,,,,,,,,,
294952,2022-10-05_22h39.33.206,vts_reward_expectancy,2022.2.4,MacIntel,60.0024001,Chrome,1440,900,,,l,0.6349,1,105,0,1,2,14,6,1,0,0,1,0,1,0,0,0,hexagon,triangle,,,,,,,,,,,,,,,,,,,,,,,,,,,,,,,,,,,,,,,,,,,,,,,,,,,,,,
294952,2022-10-05_22h39.33.206,vts_reward_expectancy,2022.2.4,MacIntel,60.0024001,Chrome,1440,900,,,a,1.5335,10,115,0,1,3,15,11,1,0,0,0,1,0,0,1,0,star,hexagon,,,,,,,,,,,,,,,,,,,,,,,,,,,,,,,,,,,,,,,,,,,,,,,,,,,,,,
294952,2022-10-05_22h39.33.206,vts_reward_expectancy,2022.2.4,MacIntel,60.0024001,Chrome,1440,900,,,l,0.7006,1,116,0,1,4,16,1,1,1,0,0,0,0,0,1,0,triangle,hexagon,,,,,,,,,,,,,,,,,,,,,,,,,,,,,,,,,,,,,,,,,,,,,,,,,,,,,,
294952,2022-10-05_22h39.33.206,vts_reward_expectancy,2022.2.4,MacIntel,60.0024001,Chrome,1440,900,,,l,1.4816,10,126,0,1,5,17,3,1,0,1,0,0,1,0,0,0,circle,triangle,,,,,,,,,,,,,,,,,,,,,,,,,,,,,,,,,,,,,,,,,,,,,,,,,,,,,,
294952,2022-10-05_22h39.33.206,vts_reward_expectancy,2022.2.4,MacIntel,60.0024001,Chrome,1440,900,,,l,0.4845,10,136,0,1,6,18,8,1,0,0,1,0,0,0,0,1,hexagon,star,,,,,,,,,,,,,,,,,,,,,,,,,,,,,,,,,,,,,,,,,,,,,,,,,,,,,,
294952,2022-10-05_22h39.33.206,vts_reward_expectancy,2022.2.4,MacIntel,60.0024001,Chrome,1440,900,,,a,0.6521,1,137,0,1,7,19,0,1,1,0,0,0,0,1,0,0,triangle,circle,,,,,,,,,,,,,,,,,,,,,,,,,,,,,,,,,,,,,,,,,,,,,,,,,,,,,,
294952,2022-10-05_22h39.33.206,vts_reward_expectancy,2022.2.4,MacIntel,60.0024001,Chrome,1440,900,,,l,0.6155,1,138,0,1,8,20,4,1,0,1,0,0,0,0,1,0,circle,hexagon,,,,,,,,,,,,,,,,,,,,,,,,,,,,,,,,,,,,,,,,,,,,,,,,,,,,,,
294952,2022-10-05_22h39.33.206,vts_reward_expectancy,2022.2.4,MacIntel,60.0024001,Chrome,1440,900,,,a,0.6175,1,139,0,1,9,21,10,1,0,0,0,1,0,1,0,0,star ,circle,,,,,,,,,,,,,,,,,,,,,,,,,,,,,,,,,,,,,,,,,,,,,,,,,,,,,,
294952,2022-10-05_22h39.33.206,vts_reward_expectancy,2022.2.4,MacIntel,60.0024001,Chrome,1440,900,,,a,0.6345,10,149,0,1,10,22,9,1,0,0,0,1,1,0,0,0,star,triangle,,,,,,,,,,,,,,,,,,,,,,,,,,,,,,,,,,,,,,,,,,,,,,,,,,,,,,
294952,2022-10-05_22h39.33.206,vts_reward_expectancy,2022.2.4,MacIntel,60.0024001,Chrome,1440,900,,,l,1.1996,1,150,0,1,11,23,7,1,0,0,1,0,0,1,0,0,hexagon,circle,,,,,,,,,,,,,,,,,,,,,,,,,,,,,,,,,,,,,,,,,,,,,,,,,,,,,,
294952,2022-10-05_22h39.33.206,vts_reward_expectancy,2022.2.4,MacIntel,60.0024001,Chrome,1440,900,,,a,0.6495,1,151,0,2,0,24,7,1,0,0,1,0,0,1,0,0,hexagon,circle,,,,,,,,,,,,,,,,,,,,,,,,,,,,,,,,,,,,,,,,,,,,,,,,,,,,,,
294952,2022-10-05_22h39.33.206,vts_reward_expectancy,2022.2.4,MacIntel,60.0024001,Chrome,1440,900,,,l,0.6818,10,161,0,2,1,25,5,1,0,1,0,0,0,0,0,1,circle,star,,,,,,,,,,,,,,,,,,,,,,,,,,,,,,,,,,,,,,,,,,,,,,,,,,,,,,
294952,2022-10-05_22h39.33.206,vts_reward_expectancy,2022.2.4,MacIntel,60.0024001,Chrome,1440,900,,,l,2.2489,1,162,0,2,2,26,1,1,1,0,0,0,0,0,1,0,triangle,hexagon,,,,,,,,,,,,,,,,,,,,,,,,,,,,,,,,,,,,,,,,,,,,,,,,,,,,,,
294952,2022-10-05_22h39.33.206,vts_reward_expectancy,2022.2.4,MacIntel,60.0024001,Chrome,1440,900,,,a,0.9929,1,163,0,2,3,27,2,1,1,0,0,0,0,0,0,1,triangle,star,,,,,,,,,,,,,,,,,,,,,,,,,,,,,,,,,,,,,,,,,,,,,,,,,,,,,,
294952,2022-10-05_22h39.33.206,vts_reward_expectancy,2022.2.4,MacIntel,60.0024001,Chrome,1440,900,,,l,1.067,1,164,0,2,4,28,4,1,0,1,0,0,0,0,1,0,circle,hexagon,,,,,,,,,,,,,,,,,,,,,,,,,,,,,,,,,,,,,,,,,,,,,,,,,,,,,,
294952,2022-10-05_22h39.33.206,vts_reward_expectancy,2022.2.4,MacIntel,60.0024001,Chrome,1440,900,,,a,0.734,1,165,0,2,5,29,10,1,0,0,0,1,0,1,0,0,star ,circle,,,,,,,,,,,,,,,,,,,,,,,,,,,,,,,,,,,,,,,,,,,,,,,,,,,,,,
294952,2022-10-05_22h39.33.206,vts_reward_expectancy,2022.2.4,MacIntel,60.0024001,Chrome,1440,900,,,l,0.968,10,175,0,2,6,30,8,1,0,0,1,0,0,0,0,1,hexagon,star,,,,,,,,,,,,,,,,,,,,,,,,,,,,,,,,,,,,,,,,,,,,,,,,,,,,,,
294952,2022-10-05_22h39.33.206,vts_reward_expectancy,2022.2.4,MacIntel,60.0024001,Chrome,1440,900,,,a,0.8827,10,185,0,2,7,31,11,1,0,0,0,1,0,0,1,0,star,hexagon,,,,,,,,,,,,,,,,,,,,,,,,,,,,,,,,,,,,,,,,,,,,,,,,,,,,,,
294952,2022-10-05_22h39.33.206,vts_reward_expectancy,2022.2.4,MacIntel,60.0024001,Chrome,1440,900,,,l,1.7834,1,186,0,2,8,32,3,1,0,1,0,0,1,0,0,0,circle,triangle,,,,,,,,,,,,,,,,,,,,,,,,,,,,,,,,,,,,,,,,,,,,,,,,,,,,,,
294952,2022-10-05_22h39.33.206,vts_reward_expectancy,2022.2.4,MacIntel,60.0024001,Chrome,1440,900,,,l,1.0153,1,187,0,2,9,33,0,1,1,0,0,0,0,1,0,0,triangle,circle,,,,,,,,,,,,,,,,,,,,,,,,,,,,,,,,,,,,,,,,,,,,,,,,,,,,,,
294952,2022-10-05_22h39.33.206,vts_reward_expectancy,2022.2.4,MacIntel,60.0024001,Chrome,1440,900,,,a,1.1611,10,197,0,2,10,34,6,1,0,0,1,0,1,0,0,0,hexagon,triangle,,,,,,,,,,,,,,,,,,,,,,,,,,,,,,,,,,,,,,,,,,,,,,,,,,,,,,
294952,2022-10-05_22h39.33.206,vts_reward_expectancy,2022.2.4,MacIntel,60.0024001,Chrome,1440,900,,,a,0.7171,10,207,0,2,11,35,9,1,0,0,0,1,1,0,0,0,star,triangle,,,,,,,,,,,,,,,,,,,,,,,,,,,,,,,,,,,,,,,,,,,,,,,,,,,,,,
294952,2022-10-05_22h39.33.206,vts_reward_expectancy,2022.2.4,MacIntel,60.0024001,Chrome,1440,900,,,a,2.5669,10,217,1,0,0,0,9,1,0,0,0,1,1,0,0,0,star,triangle,,,,,,,,,,,,,,,,,,,,,,,,,,,,,,,,,,,,,,,,,,,,,,,,,,,,,,
294952,2022-10-05_22h39.33.206,vts_reward_expectancy,2022.2.4,MacIntel,60.0024001,Chrome,1440,900,,,a,1.6996,1,218,1,0,1,1,1,1,1,0,0,0,0,0,1,0,triangle,hexagon,,,,,,,,,,,,,,,,,,,,,,,,,,,,,,,,,,,,,,,,,,,,,,,,,,,,,,
294952,2022-10-05_22h39.33.206,vts_reward_expectancy,2022.2.4,MacIntel,60.0024001,Chrome,1440,900,,,l,0.5066,10,228,1,0,2,2,2,1,1,0,0,0,0,0,0,1,triangle,star,,,,,,,,,,,,,,,,,,,,,,,,,,,,,,,,,,,,,,,,,,,,,,,,,,,,,,
294952,2022-10-05_22h39.33.206,vts_reward_expectancy,2022.2.4,MacIntel,60.0024001,Chrome,1440,900,,,l,0.615,10,238,1,0,3,3,5,1,0,1,0,0,0,0,0,1,circle,star,,,,,,,,,,,,,,,,,,,,,,,,,,,,,,,,,,,,,,,,,,,,,,,,,,,,,,
294952,2022-10-05_22h39.33.206,vts_reward_expectancy,2022.2.4,MacIntel,60.0024001,Chrome,1440,900,,,l,1.3609,10,248,1,0,4,4,8,1,0,0,1,0,0,0,0,1,hexagon,star,,,,,,,,,,,,,,,,,,,,,,,,,,,,,,,,,,,,,,,,,,,,,,,,,,,,,,
294952,2022-10-05_22h39.33.206,vts_reward_expectancy,2022.2.4,MacIntel,60.0024001,Chrome,1440,900,,,a,0.5835,1,249,1,0,5,5,0,1,1,0,0,0,0,1,0,0,triangle,circle,,,,,,,,,,,,,,,,,,,,,,,,,,,,,,,,,,,,,,,,,,,,,,,,,,,,,,
294952,2022-10-05_22h39.33.206,vts_reward_expectancy,2022.2.4,MacIntel,60.0024001,Chrome,1440,900,,,l,0.5508,10,259,1,0,6,6,4,1,0,1,0,0,0,0,1,0,circle,hexagon,,,,,,,,,,,,,,,,,,,,,,,,,,,,,,,,,,,,,,,,,,,,,,,,,,,,,,
294952,2022-10-05_22h39.33.206,vts_reward_expectancy,2022.2.4,MacIntel,60.0024001,Chrome,1440,900,,,a,0.6226,10,269,1,0,7,7,11,1,0,0,0,1,0,0,1,0,star,hexagon,,,,,,,,,,,,,,,,,,,,,,,,,,,,,,,,,,,,,,,,,,,,,,,,,,,,,,
294952,2022-10-05_22h39.33.206,vts_reward_expectancy,2022.2.4,MacIntel,60.0024001,Chrome,1440,900,,,a,0.7997,1,270,1,0,8,8,7,1,0,0,1,0,0,1,0,0,hexagon,circle,,,,,,,,,,,,,,,,,,,,,,,,,,,,,,,,,,,,,,,,,,,,,,,,,,,,,,
294952,2022-10-05_22h39.33.206,vts_reward_expectancy,2022.2.4,MacIntel,60.0024001,Chrome,1440,900,,,a,0.7744,1,271,1,0,9,9,10,1,0,0,0,1,0,1,0,0,star ,circle,,,,,,,,,,,,,,,,,,,,,,,,,,,,,,,,,,,,,,,,,,,,,,,,,,,,,,
294952,2022-10-05_22h39.33.206,vts_reward_expectancy,2022.2.4,MacIntel,60.0024001,Chrome,1440,900,,,l,0.5655,1,272,1,0,10,10,3,1,0,1,0,0,1,0,0,0,circle,triangle,,,,,,,,,,,,,,,,,,,,,,,,,,,,,,,,,,,,,,,,,,,,,,,,,,,,,,
294952,2022-10-05_22h39.33.206,vts_reward_expectancy,2022.2.4,MacIntel,60.0024001,Chrome,1440,900,,,a,0.7616,1,273,1,0,11,11,6,1,0,0,1,0,1,0,0,0,hexagon,triangle,,,,,,,,,,,,,,,,,,,,,,,,,,,,,,,,,,,,,,,,,,,,,,,,,,,,,,
294952,2022-10-05_22h39.33.206,vts_reward_expectancy,2022.2.4,MacIntel,60.0024001,Chrome,1440,900,,,l,0.7,1,274,1,1,0,12,6,1,0,0,1,0,1,0,0,0,hexagon,triangle,,,,,,,,,,,,,,,,,,,,,,,,,,,,,,,,,,,,,,,,,,,,,,,,,,,,,,
294952,2022-10-05_22h39.33.206,vts_reward_expectancy,2022.2.4,MacIntel,60.0024001,Chrome,1440,900,,,a,0.5171,10,284,1,1,1,13,9,1,0,0,0,1,1,0,0,0,star,triangle,,,,,,,,,,,,,,,,,,,,,,,,,,,,,,,,,,,,,,,,,,,,,,,,,,,,,,
294952,2022-10-05_22h39.33.206,vts_reward_expectancy,2022.2.4,MacIntel,60.0024001,Chrome,1440,900,,,l,1.2377,1,285,1,1,2,14,3,1,0,1,0,0,1,0,0,0,circle,triangle,,,,,,,,,,,,,,,,,,,,,,,,,,,,,,,,,,,,,,,,,,,,,,,,,,,,,,
294952,2022-10-05_22h39.33.206,vts_reward_expectancy,2022.2.4,MacIntel,60.0024001,Chrome,1440,900,,,a,0.6673,10,295,1,1,3,15,7,1,0,0,1,0,0,1,0,0,hexagon,circle,,,,,,,,,,,,,,,,,,,,,,,,,,,,,,,,,,,,,,,,,,,,,,,,,,,,,,
294952,2022-10-05_22h39.33.206,vts_reward_expectancy,2022.2.4,MacIntel,60.0024001,Chrome,1440,900,,,a,0.6509,1,296,1,1,4,16,0,1,1,0,0,0,0,1,0,0,triangle,circle,,,,,,,,,,,,,,,,,,,,,,,,,,,,,,,,,,,,,,,,,,,,,,,,,,,,,,
294952,2022-10-05_22h39.33.206,vts_reward_expectancy,2022.2.4,MacIntel,60.0024001,Chrome,1440,900,,,l,0.5176,1,297,1,1,5,17,2,1,1,0,0,0,0,0,0,1,triangle,star,,,,,,,,,,,,,,,,,,,,,,,,,,,,,,,,,,,,,,,,,,,,,,,,,,,,,,
294952,2022-10-05_22h39.33.206,vts_reward_expectancy,2022.2.4,MacIntel,60.0024001,Chrome,1440,900,,,l,0.6512,10,307,1,1,6,18,5,1,0,1,0,0,0,0,0,1,circle,star,,,,,,,,,,,,,,,,,,,,,,,,,,,,,,,,,,,,,,,,,,,,,,,,,,,,,,
294952,2022-10-05_22h39.33.206,vts_reward_expectancy,2022.2.4,MacIntel,60.0024001,Chrome,1440,900,,,l,0.85,1,308,1,1,7,19,4,1,0,1,0,0,0,0,1,0,circle,hexagon,,,,,,,,,,,,,,,,,,,,,,,,,,,,,,,,,,,,,,,,,,,,,,,,,,,,,,
294952,2022-10-05_22h39.33.206,vts_reward_expectancy,2022.2.4,MacIntel,60.0024001,Chrome,1440,900,,,l,0.7004,1,309,1,1,8,20,1,1,1,0,0,0,0,0,1,0,triangle,hexagon,,,,,,,,,,,,,,,,,,,,,,,,,,,,,,,,,,,,,,,,,,,,,,,,,,,,,,
294952,2022-10-05_22h39.33.206,vts_reward_expectancy,2022.2.4,MacIntel,60.0024001,Chrome,1440,900,,,a,0.4497,1,310,1,1,9,21,11,1,0,0,0,1,0,0,1,0,star,hexagon,,,,,,,,,,,,,,,,,,,,,,,,,,,,,,,,,,,,,,,,,,,,,,,,,,,,,,
294952,2022-10-05_22h39.33.206,vts_reward_expectancy,2022.2.4,MacIntel,60.0024001,Chrome,1440,900,,,l,0.4768,1,311,1,1,10,22,8,1,0,0,1,0,0,0,0,1,hexagon,star,,,,,,,,,,,,,,,,,,,,,,,,,,,,,,,,,,,,,,,,,,,,,,,,,,,,,,
294952,2022-10-05_22h39.33.206,vts_reward_expectancy,2022.2.4,MacIntel,60.0024001,Chrome,1440,900,,,a,0.4374,1,312,1,1,11,23,10,1,0,0,0,1,0,1,0,0,star ,circle,,,,,,,,,,,,,,,,,,,,,,,,,,,,,,,,,,,,,,,,,,,,,,,,,,,,,,
294952,2022-10-05_22h39.33.206,vts_reward_expectancy,2022.2.4,MacIntel,60.0024001,Chrome,1440,900,,,a,0.6693,1,313,1,2,0,24,10,1,0,0,0,1,0,1,0,0,star ,circle,,,,,,,,,,,,,,,,,,,,,,,,,,,,,,,,,,,,,,,,,,,,,,,,,,,,,,
294952,2022-10-05_22h39.33.206,vts_reward_expectancy,2022.2.4,MacIntel,60.0024001,Chrome,1440,900,,,l,0.6098,10,323,1,2,1,25,8,1,0,0,1,0,0,0,0,1,hexagon,star,,,,,,,,,,,,,,,,,,,,,,,,,,,,,,,,,,,,,,,,,,,,,,,,,,,,,,
294952,2022-10-05_22h39.33.206,vts_reward_expectancy,2022.2.4,MacIntel,60.0024001,Chrome,1440,900,,,a,0.8488,1,324,1,2,2,26,0,1,1,0,0,0,0,1,0,0,triangle,circle,,,,,,,,,,,,,,,,,,,,,,,,,,,,,,,,,,,,,,,,,,,,,,,,,,,,,,
294952,2022-10-05_22h39.33.206,vts_reward_expectancy,2022.2.4,MacIntel,60.0024001,Chrome,1440,900,,,l,0.5879,1,325,1,2,3,27,2,1,1,0,0,0,0,0,0,1,triangle,star,,,,,,,,,,,,,,,,,,,,,,,,,,,,,,,,,,,,,,,,,,,,,,,,,,,,,,
294952,2022-10-05_22h39.33.206,vts_reward_expectancy,2022.2.4,MacIntel,60.0024001,Chrome,1440,900,,,l,0.6648,1,326,1,2,4,28,4,1,0,1,0,0,0,0,1,0,circle,hexagon,,,,,,,,,,,,,,,,,,,,,,,,,,,,,,,,,,,,,,,,,,,,,,,,,,,,,,
294952,2022-10-05_22h39.33.206,vts_reward_expectancy,2022.2.4,MacIntel,60.0024001,Chrome,1440,900,,,l,0.6649,1,327,1,2,5,29,3,1,0,1,0,0,1,0,0,0,circle,triangle,,,,,,,,,,,,,,,,,,,,,,,,,,,,,,,,,,,,,,,,,,,,,,,,,,,,,,
294952,2022-10-05_22h39.33.206,vts_reward_expectancy,2022.2.4,MacIntel,60.0024001,Chrome,1440,900,,,a,0.8345,1,328,1,2,6,30,9,1,0,0,0,1,1,0,0,0,star,triangle,,,,,,,,,,,,,,,,,,,,,,,,,,,,,,,,,,,,,,,,,,,,,,,,,,,,,,
294952,2022-10-05_22h39.33.206,vts_reward_expectancy,2022.2.4,MacIntel,60.0024001,Chrome,1440,900,,,l,0.6347,10,338,1,2,7,31,5,1,0,1,0,0,0,0,0,1,circle,star,,,,,,,,,,,,,,,,,,,,,,,,,,,,,,,,,,,,,,,,,,,,,,,,,,,,,,
294952,2022-10-05_22h39.33.206,vts_reward_expectancy,2022.2.4,MacIntel,60.0024001,Chrome,1440,900,,,a,0.5284,10,348,1,2,8,32,11,1,0,0,0,1,0,0,1,0,star,hexagon,,,,,,,,,,,,,,,,,,,,,,,,,,,,,,,,,,,,,,,,,,,,,,,,,,,,,,
294952,2022-10-05_22h39.33.206,vts_reward_expectancy,2022.2.4,MacIntel,60.0024001,Chrome,1440,900,,,a,0.8506,10,358,1,2,9,33,6,1,0,0,1,0,1,0,0,0,hexagon,triangle,,,,,,,,,,,,,,,,,,,,,,,,,,,,,,,,,,,,,,,,,,,,,,,,,,,,,,
294952,2022-10-05_22h39.33.206,vts_reward_expectancy,2022.2.4,MacIntel,60.0024001,Chrome,1440,900,,,a,0.9819,1,359,1,2,10,34,7,1,0,0,1,0,0,1,0,0,hexagon,circle,,,,,,,,,,,,,,,,,,,,,,,,,,,,,,,,,,,,,,,,,,,,,,,,,,,,,,
294952,2022-10-05_22h39.33.206,vts_reward_expectancy,2022.2.4,MacIntel,60.0024001,Chrome,1440,900,,,l,0.5993,10,369,1,2,11,35,1,1,1,0,0,0,0,0,1,0,triangle,hexagon,,,,,,,,,,,,,,,,,,,,,,,,,,,,,,,,,,,,,,,,,,,,,,,,,,,,,,
294952,2022-10-05_22h39.33.206,vts_reward_expectancy,2022.2.4,MacIntel,60.0024001,Chrome,1440,900,,,a,0.5502,10,379,2,0,0,0,9,1,0,0,0,1,1,0,0,0,star,triangle,,,,,,,,,,,,,,,,,,,,,,,,,,,,,,,,,,,,,,,,,,,,,,,,,,,,,,
294952,2022-10-05_22h39.33.206,vts_reward_expectancy,2022.2.4,MacIntel,60.0024001,Chrome,1440,900,,,l,0.4312,1,380,2,0,1,1,5,1,0,1,0,0,0,0,0,1,circle,star,,,,,,,,,,,,,,,,,,,,,,,,,,,,,,,,,,,,,,,,,,,,,,,,,,,,,,
294952,2022-10-05_22h39.33.206,vts_reward_expectancy,2022.2.4,MacIntel,60.0024001,Chrome,1440,900,,,l,4.5876,10,390,2,0,2,2,8,1,0,0,1,0,0,0,0,1,hexagon,star,,,,,,,,,,,,,,,,,,,,,,,,,,,,,,,,,,,,,,,,,,,,,,,,,,,,,,
294952,2022-10-05_22h39.33.206,vts_reward_expectancy,2022.2.4,MacIntel,60.0024001,Chrome,1440,900,,,a,0.6992,10,400,2,0,3,3,10,1,0,0,0,1,0,1,0,0,star ,circle,,,,,,,,,,,,,,,,,,,,,,,,,,,,,,,,,,,,,,,,,,,,,,,,,,,,,,
294952,2022-10-05_22h39.33.206,vts_reward_expectancy,2022.2.4,MacIntel,60.0024001,Chrome,1440,900,,,a,0.9015,1,401,2,0,4,4,7,1,0,0,1,0,0,1,0,0,hexagon,circle,,,,,,,,,,,,,,,,,,,,,,,,,,,,,,,,,,,,,,,,,,,,,,,,,,,,,,
294952,2022-10-05_22h39.33.206,vts_reward_expectancy,2022.2.4,MacIntel,60.0024001,Chrome,1440,900,,,l,0.5662,1,402,2,0,5,5,1,1,1,0,0,0,0,0,1,0,triangle,hexagon,,,,,,,,,,,,,,,,,,,,,,,,,,,,,,,,,,,,,,,,,,,,,,,,,,,,,,
294952,2022-10-05_22h39.33.206,vts_reward_expectancy,2022.2.4,MacIntel,60.0024001,Chrome,1440,900,,,a,0.6051,10,412,2,0,6,6,11,1,0,0,0,1,0,0,1,0,star,hexagon,,,,,,,,,,,,,,,,,,,,,,,,,,,,,,,,,,,,,,,,,,,,,,,,,,,,,,
294952,2022-10-05_22h39.33.206,vts_reward_expectancy,2022.2.4,MacIntel,60.0024001,Chrome,1440,900,,,a,0.649,1,413,2,0,7,7,0,1,1,0,0,0,0,1,0,0,triangle,circle,,,,,,,,,,,,,,,,,,,,,,,,,,,,,,,,,,,,,,,,,,,,,,,,,,,,,,
294952,2022-10-05_22h39.33.206,vts_reward_expectancy,2022.2.4,MacIntel,60.0024001,Chrome,1440,900,,,a,1.0141,1,414,2,0,8,8,6,1,0,0,1,0,1,0,0,0,hexagon,triangle,,,,,,,,,,,,,,,,,,,,,,,,,,,,,,,,,,,,,,,,,,,,,,,,,,,,,,
294952,2022-10-05_22h39.33.206,vts_reward_expectancy,2022.2.4,MacIntel,60.0024001,Chrome,1440,900,,,l,0.6502,1,415,2,0,9,9,3,1,0,1,0,0,1,0,0,0,circle,triangle,,,,,,,,,,,,,,,,,,,,,,,,,,,,,,,,,,,,,,,,,,,,,,,,,,,,,,
294952,2022-10-05_22h39.33.206,vts_reward_expectancy,2022.2.4,MacIntel,60.0024001,Chrome,1440,900,,,l,0.6274,1,416,2,0,10,10,2,1,1,0,0,0,0,0,0,1,triangle,star,,,,,,,,,,,,,,,,,,,,,,,,,,,,,,,,,,,,,,,,,,,,,,,,,,,,,,
294952,2022-10-05_22h39.33.206,vts_reward_expectancy,2022.2.4,MacIntel,60.0024001,Chrome,1440,900,,,a,1.8849,1,417,2,0,11,11,4,1,0,1,0,0,0,0,1,0,circle,hexagon,,,,,,,,,,,,,,,,,,,,,,,,,,,,,,,,,,,,,,,,,,,,,,,,,,,,,,
294952,2022-10-05_22h39.33.206,vts_reward_expectancy,2022.2.4,MacIntel,60.0024001,Chrome,1440,900,,,l,0.4834,10,427,2,1,0,12,4,1,0,1,0,0,0,0,1,0,circle,hexagon,,,,,,,,,,,,,,,,,,,,,,,,,,,,,,,,,,,,,,,,,,,,,,,,,,,,,,
294952,2022-10-05_22h39.33.206,vts_reward_expectancy,2022.2.4,MacIntel,60.0024001,Chrome,1440,900,,,l,0.5328,10,437,2,1,1,13,5,1,0,1,0,0,0,0,0,1,circle,star,,,,,,,,,,,,,,,,,,,,,,,,,,,,,,,,,,,,,,,,,,,,,,,,,,,,,,
294952,2022-10-05_22h39.33.206,vts_reward_expectancy,2022.2.4,MacIntel,60.0024001,Chrome,1440,900,,,l,0.5799,1,438,2,1,2,14,1,1,1,0,0,0,0,0,1,0,triangle,hexagon,,,,,,,,,,,,,,,,,,,,,,,,,,,,,,,,,,,,,,,,,,,,,,,,,,,,,,
294952,2022-10-05_22h39.33.206,vts_reward_expectancy,2022.2.4,MacIntel,60.0024001,Chrome,1440,900,,,a,0.4451,10,448,2,1,3,15,9,1,0,0,0,1,1,0,0,0,star,triangle,,,,,,,,,,,,,,,,,,,,,,,,,,,,,,,,,,,,,,,,,,,,,,,,,,,,,,
294952,2022-10-05_22h39.33.206,vts_reward_expectancy,2022.2.4,MacIntel,60.0024001,Chrome,1440,900,,,l,1.0993,10,458,2,1,4,16,8,1,0,0,1,0,0,0,0,1,hexagon,star,,,,,,,,,,,,,,,,,,,,,,,,,,,,,,,,,,,,,,,,,,,,,,,,,,,,,,
294952,2022-10-05_22h39.33.206,vts_reward_expectancy,2022.2.4,MacIntel,60.0024001,Chrome,1440,900,,,a,0.7838,1,459,2,1,5,17,0,1,1,0,0,0,0,1,0,0,triangle,circle,,,,,,,,,,,,,,,,,,,,,,,,,,,,,,,,,,,,,,,,,,,,,,,,,,,,,,
294952,2022-10-05_22h39.33.206,vts_reward_expectancy,2022.2.4,MacIntel,60.0024001,Chrome,1440,900,,,a,0.8391,10,469,2,1,6,18,3,1,0,1,0,0,1,0,0,0,circle,triangle,,,,,,,,,,,,,,,,,,,,,,,,,,,,,,,,,,,,,,,,,,,,,,,,,,,,,,
294952,2022-10-05_22h39.33.206,vts_reward_expectancy,2022.2.4,MacIntel,60.0024001,Chrome,1440,900,,,l,0.899,10,479,2,1,7,19,10,1,0,0,0,1,0,1,0,0,star ,circle,,,,,,,,,,,,,,,,,,,,,,,,,,,,,,,,,,,,,,,,,,,,,,,,,,,,,,
294952,2022-10-05_22h39.33.206,vts_reward_expectancy,2022.2.4,MacIntel,60.0024001,Chrome,1440,900,,,a,1.6299,10,489,2,1,8,20,11,1,0,0,0,1,0,0,1,0,star,hexagon,,,,,,,,,,,,,,,,,,,,,,,,,,,,,,,,,,,,,,,,,,,,,,,,,,,,,,
294952,2022-10-05_22h39.33.206,vts_reward_expectancy,2022.2.4,MacIntel,60.0024001,Chrome,1440,900,,,l,0.4495,10,499,2,1,9,21,7,1,0,0,1,0,0,1,0,0,hexagon,circle,,,,,,,,,,,,,,,,,,,,,,,,,,,,,,,,,,,,,,,,,,,,,,,,,,,,,,
294952,2022-10-05_22h39.33.206,vts_reward_expectancy,2022.2.4,MacIntel,60.0024001,Chrome,1440,900,,,a,0.7675,1,500,2,1,10,22,6,1,0,0,1,0,1,0,0,0,hexagon,triangle,,,,,,,,,,,,,,,,,,,,,,,,,,,,,,,,,,,,,,,,,,,,,,,,,,,,,,
294952,2022-10-05_22h39.33.206,vts_reward_expectancy,2022.2.4,MacIntel,60.0024001,Chrome,1440,900,,,l,0.8512,10,510,2,1,11,23,2,1,1,0,0,0,0,0,0,1,triangle,star,,,,,,,,,,,,,,,,,,,,,,,,,,,,,,,,,,,,,,,,,,,,,,,,,,,,,,
294952,2022-10-05_22h39.33.206,vts_reward_expectancy,2022.2.4,MacIntel,60.0024001,Chrome,1440,900,,,a,0.9104,1,511,2,2,0,24,4,1,0,1,0,0,0,0,1,0,circle,hexagon,,,,,,,,,,,,,,,,,,,,,,,,,,,,,,,,,,,,,,,,,,,,,,,,,,,,,,
294952,2022-10-05_22h39.33.206,vts_reward_expectancy,2022.2.4,MacIntel,60.0024001,Chrome,1440,900,,,l,1.3671,10,521,2,2,1,25,0,1,1,0,0,0,0,1,0,0,triangle,circle,,,,,,,,,,,,,,,,,,,,,,,,,,,,,,,,,,,,,,,,,,,,,,,,,,,,,,
294952,2022-10-05_22h39.33.206,vts_reward_expectancy,2022.2.4,MacIntel,60.0024001,Chrome,1440,900,,,a,0.9145,1,522,2,2,2,26,3,1,0,1,0,0,1,0,0,0,circle,triangle,,,,,,,,,,,,,,,,,,,,,,,,,,,,,,,,,,,,,,,,,,,,,,,,,,,,,,
294952,2022-10-05_22h39.33.206,vts_reward_expectancy,2022.2.4,MacIntel,60.0024001,Chrome,1440,900,,,l,1.128,10,532,2,2,3,27,8,1,0,0,1,0,0,0,0,1,hexagon,star,,,,,,,,,,,,,,,,,,,,,,,,,,,,,,,,,,,,,,,,,,,,,,,,,,,,,,
294952,2022-10-05_22h39.33.206,vts_reward_expectancy,2022.2.4,MacIntel,60.0024001,Chrome,1440,900,,,a,0.9844,10,542,2,2,4,28,9,1,0,0,0,1,1,0,0,0,star,triangle,,,,,,,,,,,,,,,,,,,,,,,,,,,,,,,,,,,,,,,,,,,,,,,,,,,,,,
294952,2022-10-05_22h39.33.206,vts_reward_expectancy,2022.2.4,MacIntel,60.0024001,Chrome,1440,900,,,l,2.1455,10,552,2,2,5,29,5,1,0,1,0,0,0,0,0,1,circle,star,,,,,,,,,,,,,,,,,,,,,,,,,,,,,,,,,,,,,,,,,,,,,,,,,,,,,,
294952,2022-10-05_22h39.33.206,vts_reward_expectancy,2022.2.4,MacIntel,60.0024001,Chrome,1440,900,,,l,1.0704,1,553,2,2,6,30,7,1,0,0,1,0,0,1,0,0,hexagon,circle,,,,,,,,,,,,,,,,,,,,,,,,,,,,,,,,,,,,,,,,,,,,,,,,,,,,,,
294952,2022-10-05_22h39.33.206,vts_reward_expectancy,2022.2.4,MacIntel,60.0024001,Chrome,1440,900,,,l,2.747,10,563,2,2,7,31,2,1,1,0,0,0,0,0,0,1,triangle,star,,,,,,,,,,,,,,,,,,,,,,,,,,,,,,,,,,,,,,,,,,,,,,,,,,,,,,
294952,2022-10-05_22h39.33.206,vts_reward_expectancy,2022.2.4,MacIntel,60.0024001,Chrome,1440,900,,,a,0.8354,10,573,2,2,8,32,11,1,0,0,0,1,0,0,1,0,star,hexagon,,,,,,,,,,,,,,,,,,,,,,,,,,,,,,,,,,,,,,,,,,,,,,,,,,,,,,
294952,2022-10-05_22h39.33.206,vts_reward_expectancy,2022.2.4,MacIntel,60.0024001,Chrome,1440,900,,,a,1.0101,10,583,2,2,9,33,10,1,0,0,0,1,0,1,0,0,star ,circle,,,,,,,,,,,,,,,,,,,,,,,,,,,,,,,,,,,,,,,,,,,,,,,,,,,,,,
294952,2022-10-05_22h39.33.206,vts_reward_expectancy,2022.2.4,MacIntel,60.0024001,Chrome,1440,900,,,a,1.4615,1,584,2,2,10,34,1,1,1,0,0,0,0,0,1,0,triangle,hexagon,,,,,,,,,,,,,,,,,,,,,,,,,,,,,,,,,,,,,,,,,,,,,,,,,,,,,,
294952,2022-10-05_22h39.33.206,vts_reward_expectancy,2022.2.4,MacIntel,60.0024001,Chrome,1440,900,,,a,0.7796,1,585,2,2,11,35,6,1,0,0,1,0,1,0,0,0,hexagon,triangle,,,,,,,,,,,,,,,,,,,,,,,,,,,,,,,,,,,,,,,,,,,,,,,,,,,,,,
294952,2022-10-05_22h39.33.206,vts_reward_expectancy,2022.2.4,MacIntel,60.0024001,Chrome,1440,900,,,,,,,,,,,,,,,,,,,,,,,125,F,star,1,0,d,1.2026,0,0,0,0,0,1,,,,,,,,,,,,,,,,,,,,,,,,,,,,,,,,,,,,,,,,,
294952,2022-10-05_22h39.33.206,vts_reward_expectancy,2022.2.4,MacIntel,60.0024001,Chrome,1440,900,,,,,,,,,,,,,,,,,,,,,,,146,S,hexagon,1,0,d,1.3282,0,1,0,1,0,1,,,,,,,,,,,,,,,,,,,,,,,,,,,,,,,,,,,,,,,,,
294952,2022-10-05_22h39.33.206,vts_reward_expectancy,2022.2.4,MacIntel,60.0024001,Chrome,1440,900,,,,,,,,,,,,,,,,,,,,,,,174,B,circle,1,0,f,0.51,0,2,0,2,0,1,,,,,,,,,,,,,,,,,,,,,,,,,,,,,,,,,,,,,,,,,
294952,2022-10-05_22h39.33.206,vts_reward_expectancy,2022.2.4,MacIntel,60.0024001,Chrome,1440,900,,,,,,,,,,,,,,,,,,,,,,,167,D,triangle,1,0,f,1.0606,0,3,0,3,0,1,,,,,,,,,,,,,,,,,,,,,,,,,,,,,,,,,,,,,,,,,
294952,2022-10-05_22h39.33.206,vts_reward_expectancy,2022.2.4,MacIntel,60.0024001,Chrome,1440,900,,,,,,,,,,,,,,,,,,,,,,,160,W,star,1,0,f,0.6213,0,4,0,4,0,1,,,,,,,,,,,,,,,,,,,,,,,,,,,,,,,,,,,,,,,,,
294952,2022-10-05_22h39.33.206,vts_reward_expectancy,2022.2.4,MacIntel,60.0024001,Chrome,1440,900,,,,,,,,,,,,,,,,,,,,,,,181,U,hexagon,1,0,f,0.4921,0,5,0,5,0,1,,,,,,,,,,,,,,,,,,,,,,,,,,,,,,,,,,,,,,,,,
294952,2022-10-05_22h39.33.206,vts_reward_expectancy,2022.2.4,MacIntel,60.0024001,Chrome,1440,900,,,,,,,,,,,,,,,,,,,,,,,139,Y,circle,1,0,d,0.91,0,6,0,6,0,1,,,,,,,,,,,,,,,,,,,,,,,,,,,,,,,,,,,,,,,,,
294952,2022-10-05_22h39.33.206,vts_reward_expectancy,2022.2.4,MacIntel,60.0024001,Chrome,1440,900,,,,,,,,,,,,,,,,,,,,,,,132,H,triangle,1,0,d,0.6787,0,7,0,7,0,1,,,,,,,,,,,,,,,,,,,,,,,,,,,,,,,,,,,,,,,,,
294952,2022-10-05_22h39.33.206,vts_reward_expectancy,2022.2.4,MacIntel,60.0024001,Chrome,1440,900,,,,,,,,,,,,,,,,,,,,,,,125,F,circle,1,0,d,0.6071,0,8,0,8,0,1,,,,,,,,,,,,,,,,,,,,,,,,,,,,,,,,,,,,,,,,,
294952,2022-10-05_22h39.33.206,vts_reward_expectancy,2022.2.4,MacIntel,60.0024001,Chrome,1440,900,,,,,,,,,,,,,,,,,,,,,,,146,S,star,1,0,d,0.612,0,9,0,9,0,1,,,,,,,,,,,,,,,,,,,,,,,,,,,,,,,,,,,,,,,,,
294952,2022-10-05_22h39.33.206,vts_reward_expectancy,2022.2.4,MacIntel,60.0024001,Chrome,1440,900,,,,,,,,,,,,,,,,,,,,,,,174,U,triangle,1,0,,,1,,,,,,k,1.9545,0,0,0,0,1,,,,,,,,,,,,,,,,,,,,,,,,,,,,,,,,,,
294952,2022-10-05_22h39.33.206,vts_reward_expectancy,2022.2.4,MacIntel,60.0024001,Chrome,1440,900,,,,,,,,,,,,,,,,,,,,,,,139,H,circle,1,0,,,1,,,,,,j,0.6454,1,0,1,0,1,,,,,,,,,,,,,,,,,,,,,,,,,,,,,,,,,,
294952,2022-10-05_22h39.33.206,vts_reward_expectancy,2022.2.4,MacIntel,60.0024001,Chrome,1440,900,,,,,,,,,,,,,,,,,,,,,,,160,W,star,1,0,,,1,,,,,,k,0.5939,2,0,2,0,1,,,,,,,,,,,,,,,,,,,,,,,,,,,,,,,,,,
294952,2022-10-05_22h39.33.206,vts_reward_expectancy,2022.2.4,MacIntel,60.0024001,Chrome,1440,900,,,,,,,,,,,,,,,,,,,,,,,181,F,hexagon,1,0,,,1,,,,,,j,0.6781,3,0,3,0,1,,,,,,,,,,,,,,,,,,,,,,,,,,,,,,,,,,
294952,2022-10-05_22h39.33.206,vts_reward_expectancy,2022.2.4,MacIntel,60.0024001,Chrome,1440,900,,,,,,,,,,,,,,,,,,,,,,,146,S,triangle,1,0,,,1,,,,,,k,0.7123,4,0,4,0,1,,,,,,,,,,,,,,,,,,,,,,,,,,,,,,,,,,
294952,2022-10-05_22h39.33.206,vts_reward_expectancy,2022.2.4,MacIntel,60.0024001,Chrome,1440,900,,,,,,,,,,,,,,,,,,,,,,,132,B,circle,1,0,,,1,,,,,,j,0.7455,5,0,5,0,1,,,,,,,,,,,,,,,,,,,,,,,,,,,,,,,,,,
294952,2022-10-05_22h39.33.206,vts_reward_expectancy,2022.2.4,MacIntel,60.0024001,Chrome,1440,900,,,,,,,,,,,,,,,,,,,,,,,125,Y,star,1,0,,,1,,,,,,k,0.6627,6,0,6,0,1,,,,,,,,,,,,,,,,,,,,,,,,,,,,,,,,,,
294952,2022-10-05_22h39.33.206,vts_reward_expectancy,2022.2.4,MacIntel,60.0024001,Chrome,1440,900,,,,,,,,,,,,,,,,,,,,,,,167,D,hexagon,1,0,,,1,,,,,,j,0.5785,7,0,7,0,1,,,,,,,,,,,,,,,,,,,,,,,,,,,,,,,,,,
294952,2022-10-05_22h39.33.206,vts_reward_expectancy,2022.2.4,MacIntel,60.0024001,Chrome,1440,900,,,,,,,,,,,,,,,,,,,,,,,174,U,triangle,1,0,,,1,,,,,,k,0.6973,8,0,8,0,1,,,,,,,,,,,,,,,,,,,,,,,,,,,,,,,,,,
294952,2022-10-05_22h39.33.206,vts_reward_expectancy,2022.2.4,MacIntel,60.0024001,Chrome,1440,900,,,,,,,,,,,,,,,,,,,,,,,139,H,circle,1,0,,,1,,,,,,j,0.4721,9,0,9,0,1,,,,,,,,,,,,,,,,,,,,,,,,,,,,,,,,,,
294952,2022-10-05_22h39.33.206,vts_reward_expectancy,2022.2.4,MacIntel,60.0024001,Chrome,1440,900,,,,,0,585,,,,,,,,,,,,,,,,,174,Y,star,1,0,,,2,,,,,,,,,,,,,-1,letter,NA,k,1.3901,vtsPrac,0,0,0,0,1,,,,,,,,,,,,,,,,,,,,,,,
294952,2022-10-05_22h39.33.206,vts_reward_expectancy,2022.2.4,MacIntel,60.0024001,Chrome,1440,900,,,,,0,585,,,,,,,,,,,,,,,,,167,B,circle,1,0,,,2,,,,,,,,,,,,,repeat,letter,lettRpt,j,0.8494,vtsPrac,1,0,1,0,1,,,,,,,,,,,,,,,,,,,,,,,
294952,2022-10-05_22h39.33.206,vts_reward_expectancy,2022.2.4,MacIntel,60.0024001,Chrome,1440,900,,,,,0,585,,,,,,,,,,,,,,,,,160,F,star,1,0,,,2,,,,,,,,,,,,,switch,number,numSwt,f,1.58,vtsPrac,2,0,2,0,1,,,,,,,,,,,,,,,,,,,,,,,
294952,2022-10-05_22h39.33.206,vts_reward_expectancy,2022.2.4,MacIntel,60.0024001,Chrome,1440,900,,,,,0,585,,,,,,,,,,,,,,,,,139,W,circle,1,0,,,2,,,,,,,,,,,,,repeat,number,numRpt,d,0.9291,vtsPrac,3,0,3,0,1,,,,,,,,,,,,,,,,,,,,,,,
294952,2022-10-05_22h39.33.206,vts_reward_expectancy,2022.2.4,MacIntel,60.0024001,Chrome,1440,900,,,,,0,585,,,,,,,,,,,,,,,,,174,Y,circle,1,0,,,2,,,,,,,,,,,,,repeat,number,numRpt,f,1.2969,vtsPrac,4,0,4,0,1,,,,,,,,,,,,,,,,,,,,,,,
294952,2022-10-05_22h39.33.206,vts_reward_expectancy,2022.2.4,MacIntel,60.0024001,Chrome,1440,900,,,,,0,585,,,,,,,,,,,,,,,,,167,B,star,1,0,,,2,,,,,,,,,,,,,switch,letter,lettSwt,j,1.1799,vtsPrac,5,0,5,0,1,,,,,,,,,,,,,,,,,,,,,,,
294952,2022-10-05_22h39.33.206,vts_reward_expectancy,2022.2.4,MacIntel,60.0024001,Chrome,1440,900,,,,,0,585,,,,,,,,,,,,,,,,,160,F,circle,1,0,,,2,,,,,,,,,,,,,switch,number,numSwt,f,1.2946,vtsPrac,6,0,6,0,1,,,,,,,,,,,,,,,,,,,,,,,
294952,2022-10-05_22h39.33.206,vts_reward_expectancy,2022.2.4,MacIntel,60.0024001,Chrome,1440,900,,,,,0,585,,,,,,,,,,,,,,,,,139,W,triangle,1,0,,,2,,,,,,,,,,,,,switch,letter,lettSwt,k,0.9773,vtsPrac,7,0,7,0,1,,,,,,,,,,,,,,,,,,,,,,,
294952,2022-10-05_22h39.33.206,vts_reward_expectancy,2022.2.4,MacIntel,60.0024001,Chrome,1440,900,,,,,0,585,,,,,,,,,,,,,,,,,139,H,circle,1,0,,,2,,,,,,,,,,,,,repeat,letter,lettRpt,j,1.7164,vtsPrac,8,0,8,0,1,,,,,,,,,,,,,,,,,,,,,,,
294952,2022-10-05_22h39.33.206,vts_reward_expectancy,2022.2.4,MacIntel,60.0024001,Chrome,1440,900,,,,,0,585,,,,,,,,,,,,,,,,,160,U,triangle,1,0,,,2,,,,,,,,,,,,,repeat,letter,lettRpt,k,0.9289,vtsPrac,9,0,9,0,1,,,,,,,,,,,,,,,,,,,,,,,
294952,2022-10-05_22h39.33.206,vts_reward_expectancy,2022.2.4,MacIntel,60.0024001,Chrome,1440,900,,,,,0,585,,,,,,,,,,,,,,,,,174,Y,hexagon,1,0,,,2,,,,,,,,,,,,,repeat,letter,lettRpt,k,0.7306,vtsPrac,10,0,10,0,1,,,,,,,,,,,,,,,,,,,,,,,
294952,2022-10-05_22h39.33.206,vts_reward_expectancy,2022.2.4,MacIntel,60.0024001,Chrome,1440,900,,,,,0,585,,,,,,,,,,,,,,,,,167,W,star,1,0,,,2,,,,,,,,,,,,,switch,number,numSwt,f,0.7118,vtsPrac,11,0,11,0,1,,,,,,,,,,,,,,,,,,,,,,,
294952,2022-10-05_22h39.33.206,vts_reward_expectancy,2022.2.4,MacIntel,60.0024001,Chrome,1440,900,,,,,0,585,,,,,,,,,,,,,,,,,132,D,star,1,0,,,2,,,,,,,,,,,,,repeat,number,numRpt,d,0.5806,vtsPrac,12,0,12,0,1,,,,,,,,,,,,,,,,,,,,,,,
294952,2022-10-05_22h39.33.206,vts_reward_expectancy,2022.2.4,MacIntel,60.0024001,Chrome,1440,900,,,,,0,585,,,,,,,,,,,,,,,,,125,Y,hexagon,1,0,,,2,,,,,,,,,,,,,repeat,number,numRpt,d,0.7108,vtsPrac,13,0,13,0,1,,,,,,,,,,,,,,,,,,,,,,,
294952,2022-10-05_22h39.33.206,vts_reward_expectancy,2022.2.4,MacIntel,60.0024001,Chrome,1440,900,,,,,0,585,,,,,,,,,,,,,,,,,174,H,hexagon,1,0,,,2,,,,,,,,,,,,,repeat,number,numRpt,f,0.6896,vtsPrac,14,0,14,0,1,,,,,,,,,,,,,,,,,,,,,,,
294952,2022-10-05_22h39.33.206,vts_reward_expectancy,2022.2.4,MacIntel,60.0024001,Chrome,1440,900,,,,,0,585,,,,,,,,,,,,,,,,,167,U,star,1,0,,,2,,,,,,,,,,,,,repeat,number,numRpt,f,0.6127,vtsPrac,15,0,15,0,1,,,,,,,,,,,,,,,,,,,,,,,
294952,2022-10-05_22h39.33.206,vts_reward_expectancy,2022.2.4,MacIntel,60.0024001,Chrome,1440,900,,,,,,,,,,,,,,,,,,,,,,,,,,,,,,,,,,,,,,,,,,,,,,,,,,,,,,,,,,,,,,,,,,,,,,,,,,,,
294952,2022-10-05_22h39.33.206,vts_reward_expectancy,2022.2.4,MacIntel,60.0024001,Chrome,1440,900,,,,,,,,,,,,,,,,,,,,,,,,,,,,,,,,,,,,,,,,,,,,,,,,,,,,,,,,,,,,,,,,,,,,,,,,,,,,
294952,2022-10-05_22h39.33.206,vts_reward_expectancy,2022.2.4,MacIntel,60.0024001,Chrome,1440,900,,,,,0,585,,,,,,,,,,,,,,,,,132,S,triangle,1,0,,,,,,,,,,,,,,,,repeat,number,numRpt,d,0.5635,noRew,,,,,,0,0,0,0,0,1,,,,,,,,,,,,,,,,,
294952,2022-10-05_22h39.33.206,vts_reward_expectancy,2022.2.4,MacIntel,60.0024001,Chrome,1440,900,,,,,0,585,,,,,,,,,,,,,,,,,139,H,star,1,0,,,,,,,,,,,,,,,,repeat,number,numRpt,d,0.5802,noRew,,,,,,0,1,0,1,0,1,,,,,,,,,,,,,,,,,
294952,2022-10-05_22h39.33.206,vts_reward_expectancy,2022.2.4,MacIntel,60.0024001,Chrome,1440,900,,,,,0,585,,,,,,,,,,,,,,,,,181,B,triangle,1,0,,,,,,,,,,,,,,,,repeat,number,numRpt,f,0.7686,noRew,,,,,,0,2,0,2,0,1,,,,,,,,,,,,,,,,,
294952,2022-10-05_22h39.33.206,vts_reward_expectancy,2022.2.4,MacIntel,60.0024001,Chrome,1440,900,,,,,0,585,,,,,,,,,,,,,,,,,160,Y,star,1,0,,,,,,,,,,,,,,,,repeat,number,numRpt,f,0.6804,noRew,,,,,,0,3,0,3,0,1,,,,,,,,,,,,,,,,,
294952,2022-10-05_22h39.33.206,vts_reward_expectancy,2022.2.4,MacIntel,60.0024001,Chrome,1440,900,,,,,0,585,,,,,,,,,,,,,,,,,132,S,hexagon,1,0,,,,,,,,,,,,,,,,switch,letter,lettSwt,k,0.9469,noRew,,,,,,0,4,0,4,0,1,,,,,,,,,,,,,,,,,
294952,2022-10-05_22h39.33.206,vts_reward_expectancy,2022.2.4,MacIntel,60.0024001,Chrome,1440,900,,,,,0,585,,,,,,,,,,,,,,,,,139,H,star,1,0,,,,,,,,,,,,,,,,switch,number,numSwt,d,0.5467,noRew,,,,,,0,5,0,5,0,1,,,,,,,,,,,,,,,,,
294952,2022-10-05_22h39.33.206,vts_reward_expectancy,2022.2.4,MacIntel,60.0024001,Chrome,1440,900,,,,,0,585,,,,,,,,,,,,,,,,,181,B,star,1,0,,,,,,,,,,,,,,,,switch,letter,lettSwt,j,0.7457,noRew,,,,,,0,6,0,6,0,1,,,,,,,,,,,,,,,,,
294952,2022-10-05_22h39.33.206,vts_reward_expectancy,2022.2.4,MacIntel,60.0024001,Chrome,1440,900,,,,,0,585,,,,,,,,,,,,,,,,,160,Y,triangle,1,0,,,,,,,,,,,,,,,,repeat,letter,lettRpt,k,0.7326,noRew,,,,,,0,7,0,7,0,1,,,,,,,,,,,,,,,,,
294952,2022-10-05_22h39.33.206,vts_reward_expectancy,2022.2.4,MacIntel,60.0024001,Chrome,1440,900,,,,,0,585,,,,,,,,,,,,,,,,,167,W,hexagon,1,0,,,,,,,,,,,,,,,,repeat,letter,lettRpt,k,0.7978,noRew,,,,,,0,8,0,8,0,1,,,,,,,,,,,,,,,,,
294952,2022-10-05_22h39.33.206,vts_reward_expectancy,2022.2.4,MacIntel,60.0024001,Chrome,1440,900,,,,,0,585,,,,,,,,,,,,,,,,,125,S,triangle,1,0,,,,,,,,,,,,,,,,repeat,letter,lettRpt,k,0.6681,noRew,,,,,,0,9,0,9,0,1,,,,,,,,,,,,,,,,,
294952,2022-10-05_22h39.33.206,vts_reward_expectancy,2022.2.4,MacIntel,60.0024001,Chrome,1440,900,,,,,0,585,,,,,,,,,,,,,,,,,139,U,hexagon,1,0,,,,,,,,,,,,,,,,repeat,letter,lettRpt,k,0.8974,noRew,,,,,,0,10,0,10,0,1,,,,,,,,,,,,,,,,,
294952,2022-10-05_22h39.33.206,vts_reward_expectancy,2022.2.4,MacIntel,60.0024001,Chrome,1440,900,,,,,0,585,,,,,,,,,,,,,,,,,132,F,triangle,1,0,,,,,,,,,,,,,,,,repeat,letter,lettRpt,j,0.7814,noRew,,,,,,0,11,0,11,0,1,,,,,,,,,,,,,,,,,
294952,2022-10-05_22h39.33.206,vts_reward_expectancy,2022.2.4,MacIntel,60.0024001,Chrome,1440,900,,,,,0,585,,,,,,,,,,,,,,,,,160,F,hexagon,1,0,,,,,,,,,,,,,,,,switch,number,numSwt,f,0.5833,noRew,,,,,,0,12,0,12,0,1,,,,,,,,,,,,,,,,,
294952,2022-10-05_22h39.33.206,vts_reward_expectancy,2022.2.4,MacIntel,60.0024001,Chrome,1440,900,,,,,0,585,,,,,,,,,,,,,,,,,181,B,circle,1,0,,,,,,,,,,,,,,,,repeat,number,numRpt,f,0.5817,noRew,,,,,,0,13,0,13,0,1,,,,,,,,,,,,,,,,,
294952,2022-10-05_22h39.33.206,vts_reward_expectancy,2022.2.4,MacIntel,60.0024001,Chrome,1440,900,,,,,0,585,,,,,,,,,,,,,,,,,167,D,circle,1,0,,,,,,,,,,,,,,,,repeat,number,numRpt,f,0.6478,noRew,,,,,,0,14,0,14,0,1,,,,,,,,,,,,,,,,,
294952,2022-10-05_22h39.33.206,vts_reward_expectancy,2022.2.4,MacIntel,60.0024001,Chrome,1440,900,,,,,0,585,,,,,,,,,,,,,,,,,139,S,hexagon,1,0,,,,,,,,,,,,,,,,switch,letter,lettSwt,k,0.6646,noRew,,,,,,0,15,0,15,0,1,,,,,,,,,,,,,,,,,
294952,2022-10-05_22h39.33.206,vts_reward_expectancy,2022.2.4,MacIntel,60.0024001,Chrome,1440,900,,,,,0,585,,,,,,,,,,,,,,,,,167,F,hexagon,1,0,,,,,,,,,,,,,,,,repeat,letter,lettRpt,j,0.8669,noRew,,,,,,0,16,0,16,0,1,,,,,,,,,,,,,,,,,
294952,2022-10-05_22h39.33.206,vts_reward_expectancy,2022.2.4,MacIntel,60.0024001,Chrome,1440,900,,,,,0,585,,,,,,,,,,,,,,,,,160,U,star,1,0,,,,,,,,,,,,,,,,switch,number,numSwt,f,0.6812,noRew,,,,,,0,17,0,17,0,1,,,,,,,,,,,,,,,,,
294952,2022-10-05_22h39.33.206,vts_reward_expectancy,2022.2.4,MacIntel,60.0024001,Chrome,1440,900,,,,,0,585,,,,,,,,,,,,,,,,,139,S,circle,1,0,,,,,,,,,,,,,,,,repeat,number,numRpt,d,0.6013,noRew,,,,,,0,18,0,18,0,1,,,,,,,,,,,,,,,,,
294952,2022-10-05_22h39.33.206,vts_reward_expectancy,2022.2.4,MacIntel,60.0024001,Chrome,1440,900,,,,,0,585,,,,,,,,,,,,,,,,,174,D,triangle,1,0,,,,,,,,,,,,,,,,repeat,number,numRpt,f,1.0972,noRew,,,,,,0,19,0,19,0,1,,,,,,,,,,,,,,,,,
294952,2022-10-05_22h39.33.206,vts_reward_expectancy,2022.2.4,MacIntel,60.0024001,Chrome,1440,900,,,,,0,585,,,,,,,,,,,,,,,,,181,F,circle,1,0,,,,,,,,,,,,,,,,repeat,number,numRpt,f,0.8138,noRew,,,,,,0,20,0,20,0,1,,,,,,,,,,,,,,,,,
294952,2022-10-05_22h39.33.206,vts_reward_expectancy,2022.2.4,MacIntel,60.0024001,Chrome,1440,900,,,,,0,585,,,,,,,,,,,,,,,,,125,D,hexagon,1,0,,,,,,,,,,,,,,,,repeat,number,numRpt,d,0.927,noRew,,,,,,0,21,0,21,0,1,,,,,,,,,,,,,,,,,
294952,2022-10-05_22h39.33.206,vts_reward_expectancy,2022.2.4,MacIntel,60.0024001,Chrome,1440,900,,,,,0,585,,,,,,,,,,,,,,,,,167,U,triangle,1,0,,,,,,,,,,,,,,,,repeat,number,numRpt,f,0.5737,noRew,,,,,,0,22,0,22,0,1,,,,,,,,,,,,,,,,,
294952,2022-10-05_22h39.33.206,vts_reward_expectancy,2022.2.4,MacIntel,60.0024001,Chrome,1440,900,,,,,0,585,,,,,,,,,,,,,,,,,146,Y,hexagon,1,0,,,,,,,,,,,,,,,,switch,letter,lettSwt,k,0.8244,noRew,,,,,,0,23,0,23,0,1,,,,,,,,,,,,,,,,,
294952,2022-10-05_22h39.33.206,vts_reward_expectancy,2022.2.4,MacIntel,60.0024001,Chrome,1440,900,,,,,0,585,,,,,,,,,,,,,,,,,174,U,circle,1,0,,,,,,,,,,,,,,,,repeat,letter,lettRpt,k,0.6993,noRew,,,,,,0,24,0,24,0,1,,,,,,,,,,,,,,,,,
294952,2022-10-05_22h39.33.206,vts_reward_expectancy,2022.2.4,MacIntel,60.0024001,Chrome,1440,900,,,,,0,585,,,,,,,,,,,,,,,,,139,H,star,1,0,,,,,,,,,,,,,,,,repeat,letter,lettRpt,j,0.9633,noRew,,,,,,0,25,0,25,0,1,,,,,,,,,,,,,,,,,
294952,2022-10-05_22h39.33.206,vts_reward_expectancy,2022.2.4,MacIntel,60.0024001,Chrome,1440,900,,,,,0,585,,,,,,,,,,,,,,,,,167,Y,hexagon,1,0,,,,,,,,,,,,,,,,repeat,letter,lettRpt,k,0.614,noRew,,,,,,0,26,0,26,0,1,,,,,,,,,,,,,,,,,
294952,2022-10-05_22h39.33.206,vts_reward_expectancy,2022.2.4,MacIntel,60.0024001,Chrome,1440,900,,,,,0,585,,,,,,,,,,,,,,,,,160,D,triangle,1,0,,,,,,,,,,,,,,,,switch,number,numSwt,f,0.6469,noRew,,,,,,0,27,0,27,0,1,,,,,,,,,,,,,,,,,
294952,2022-10-05_22h39.33.206,vts_reward_expectancy,2022.2.4,MacIntel,60.0024001,Chrome,1440,900,,,,,0,585,,,,,,,,,,,,,,,,,132,W,star,1,0,,,,,,,,,,,,,,,,repeat,number,numRpt,d,1.1313,noRew,,,,,,0,28,0,28,0,1,,,,,,,,,,,,,,,,,
294952,2022-10-05_22h39.33.206,vts_reward_expectancy,2022.2.4,MacIntel,60.0024001,Chrome,1440,900,,,,,0,585,,,,,,,,,,,,,,,,,174,Y,circle,1,0,,,,,,,,,,,,,,,,repeat,number,numRpt,f,0.7971,noRew,,,,,,0,29,0,29,0,1,,,,,,,,,,,,,,,,,
294952,2022-10-05_22h39.33.206,vts_reward_expectancy,2022.2.4,MacIntel,60.0024001,Chrome,1440,900,,,,,0,585,,,,,,,,,,,,,,,,,181,F,star,1,0,,,,,,,,,,,,,,,,repeat,number,numRpt,f,0.879,noRew,,,,,,0,30,0,30,0,1,,,,,,,,,,,,,,,,,
294952,2022-10-05_22h39.33.206,vts_reward_expectancy,2022.2.4,MacIntel,60.0024001,Chrome,1440,900,,,,,0,585,,,,,,,,,,,,,,,,,125,H,triangle,1,0,,,,,,,,,,,,,,,,repeat,number,numRpt,d,0.7783,noRew,,,,,,0,31,0,31,0,1,,,,,,,,,,,,,,,,,
294952,2022-10-05_22h39.33.206,vts_reward_expectancy,2022.2.4,MacIntel,60.0024001,Chrome,1440,900,,,,,0,585,,,,,,,,,,,,,,,,,146,H,triangle,1,0,,,,,,,,,,,,,,,,repeat,number,numRpt,d,1.6176,noRew,,,,,,0,32,0,32,0,1,,,,,,,,,,,,,,,,,
294952,2022-10-05_22h39.33.206,vts_reward_expectancy,2022.2.4,MacIntel,60.0024001,Chrome,1440,900,,,,,0,585,,,,,,,,,,,,,,,,,139,F,circle,1,0,,,,,,,,,,,,,,,,repeat,number,numRpt,d,2.5588,noRew,,,,,,0,33,0,33,0,1,,,,,,,,,,,,,,,,,
294952,2022-10-05_22h39.33.206,vts_reward_expectancy,2022.2.4,MacIntel,60.0024001,Chrome,1440,900,,,,,0,585,,,,,,,,,,,,,,,,,132,S,star,1,0,,,,,,,,,,,,,,,,switch,letter,lettSwt,k,1.1471,noRew,,,,,,0,34,0,34,0,1,,,,,,,,,,,,,,,,,
294952,2022-10-05_22h39.33.206,vts_reward_expectancy,2022.2.4,MacIntel,60.0024001,Chrome,1440,900,,,,,0,585,,,,,,,,,,,,,,,,,181,B,triangle,1,0,,,,,,,,,,,,,,,,repeat,letter,lettRpt,j,0.682,noRew,,,,,,0,35,0,35,0,1,,,,,,,,,,,,,,,,,
294952,2022-10-05_22h39.33.206,vts_reward_expectancy,2022.2.4,MacIntel,60.0024001,Chrome,1440,900,,,,,0,585,,,,,,,,,,,,,,,,,125,U,hexagon,1,0,,,,,,,,,,,,,,,,repeat,letter,lettRpt,k,0.6447,noRew,,,,,,0,36,0,36,0,1,,,,,,,,,,,,,,,,,
294952,2022-10-05_22h39.33.206,vts_reward_expectancy,2022.2.4,MacIntel,60.0024001,Chrome,1440,900,,,,,0,585,,,,,,,,,,,,,,,,,160,W,triangle,1,0,,,,,,,,,,,,,,,,repeat,letter,lettRpt,k,0.6986,noRew,,,,,,0,37,0,37,0,1,,,,,,,,,,,,,,,,,
294952,2022-10-05_22h39.33.206,vts_reward_expectancy,2022.2.4,MacIntel,60.0024001,Chrome,1440,900,,,,,0,585,,,,,,,,,,,,,,,,,139,S,circle,1,0,,,,,,,,,,,,,,,,switch,number,numSwt,d,0.9338,noRew,,,,,,0,38,0,38,0,1,,,,,,,,,,,,,,,,,
294952,2022-10-05_22h39.33.206,vts_reward_expectancy,2022.2.4,MacIntel,60.0024001,Chrome,1440,900,,,,,0,585,,,,,,,,,,,,,,,,,181,H,star,1,0,,,,,,,,,,,,,,,,repeat,number,numRpt,f,1.1828,noRew,,,,,,0,39,0,39,0,1,,,,,,,,,,,,,,,,,
294952,2022-10-05_22h39.33.206,vts_reward_expectancy,2022.2.4,MacIntel,60.0024001,Chrome,1440,900,,,,,0,585,,,,,,,,,,,,,,,,,139,S,hexagon,1,0,,,,,,,,,,,,,,,,repeat,number,numRpt,d,0.5971,noRew,,,,,,0,40,0,40,0,1,,,,,,,,,,,,,,,,,
294952,2022-10-05_22h39.33.206,vts_reward_expectancy,2022.2.4,MacIntel,60.0024001,Chrome,1440,900,,,,,0,585,,,,,,,,,,,,,,,,,174,Y,triangle,1,0,,,,,,,,,,,,,,,,repeat,number,numRpt,f,0.7148,noRew,,,,,,0,41,0,41,0,1,,,,,,,,,,,,,,,,,
294952,2022-10-05_22h39.33.206,vts_reward_expectancy,2022.2.4,MacIntel,60.0024001,Chrome,1440,900,,,,,0,585,,,,,,,,,,,,,,,,,167,W,hexagon,1,0,,,,,,,,,,,,,,,,switch,letter,lettSwt,k,0.5825,noRew,,,,,,0,42,0,42,0,1,,,,,,,,,,,,,,,,,
294952,2022-10-05_22h39.33.206,vts_reward_expectancy,2022.2.4,MacIntel,60.0024001,Chrome,1440,900,,,,,0,585,,,,,,,,,,,,,,,,,132,U,triangle,1,0,,,,,,,,,,,,,,,,switch,number,numSwt,d,0.5932,noRew,,,,,,0,43,0,43,0,1,,,,,,,,,,,,,,,,,
294952,2022-10-05_22h39.33.206,vts_reward_expectancy,2022.2.4,MacIntel,60.0024001,Chrome,1440,900,,,,,0,585,,,,,,,,,,,,,,,,,167,F,hexagon,1,0,,,,,,,,,,,,,,,,repeat,number,numRpt,f,0.5917,noRew,,,,,,0,44,0,44,0,1,,,,,,,,,,,,,,,,,
294952,2022-10-05_22h39.33.206,vts_reward_expectancy,2022.2.4,MacIntel,60.0024001,Chrome,1440,900,,,,,0,585,,,,,,,,,,,,,,,,,181,U,triangle,1,0,,,,,,,,,,,,,,,,switch,letter,lettSwt,k,0.681,noRew,,,,,,0,45,0,45,0,1,,,,,,,,,,,,,,,,,
294952,2022-10-05_22h39.33.206,vts_reward_expectancy,2022.2.4,MacIntel,60.0024001,Chrome,1440,900,,,,,0,585,,,,,,,,,,,,,,,,,174,B,triangle,1,0,,,,,,,,,,,,,,,,repeat,letter,lettRpt,j,0.6825,noRew,,,,,,0,46,0,46,0,1,,,,,,,,,,,,,,,,,
294952,2022-10-05_22h39.33.206,vts_reward_expectancy,2022.2.4,MacIntel,60.0024001,Chrome,1440,900,,,,,0,585,,,,,,,,,,,,,,,,,160,Y,hexagon,1,0,,,,,,,,,,,,,,,,repeat,letter,lettRpt,k,0.5449,noRew,,,,,,0,47,0,47,0,1,,,,,,,,,,,,,,,,,
294952,2022-10-05_22h39.33.206,vts_reward_expectancy,2022.2.4,MacIntel,60.0024001,Chrome,1440,900,,,,,0,585,,,,,,,,,,,,,,,,,139,D,circle,1,0,,,,,,,,,,,,,,,,repeat,letter,lettRpt,j,0.8314,noRew,,,,,,0,48,0,48,0,1,,,,,,,,,,,,,,,,,
294952,2022-10-05_22h39.33.206,vts_reward_expectancy,2022.2.4,MacIntel,60.0024001,Chrome,1440,900,,,,,0,585,,,,,,,,,,,,,,,,,125,H,triangle,1,0,,,,,,,,,,,,,,,,switch,number,numSwt,d,1.0817,noRew,,,,,,0,49,0,49,0,1,,,,,,,,,,,,,,,,,
294952,2022-10-05_22h39.33.206,vts_reward_expectancy,2022.2.4,MacIntel,60.0024001,Chrome,1440,900,,,,,0,585,,,,,,,,,,,,,,,,,146,F,star,1,0,,,,,,,,,,,,,,,,repeat,number,numRpt,d,1.0658,noRew,,,,,,0,50,0,50,0,1,,,,,,,,,,,,,,,,,
294952,2022-10-05_22h39.33.206,vts_reward_expectancy,2022.2.4,MacIntel,60.0024001,Chrome,1440,900,,,,,0,585,,,,,,,,,,,,,,,,,174,U,hexagon,1,0,,,,,,,,,,,,,,,,repeat,number,numRpt,f,0.7318,noRew,,,,,,0,51,0,51,0,1,,,,,,,,,,,,,,,,,
294952,2022-10-05_22h39.33.206,vts_reward_expectancy,2022.2.4,MacIntel,60.0024001,Chrome,1440,900,,,,,0,585,,,,,,,,,,,,,,,,,139,U,circle,1,0,,,,,,,,,,,,,,,,switch,letter,lettSwt,k,0.9111,noRew,,,,,,0,52,0,52,0,1,,,,,,,,,,,,,,,,,
294952,2022-10-05_22h39.33.206,vts_reward_expectancy,2022.2.4,MacIntel,60.0024001,Chrome,1440,900,,,,,0,585,,,,,,,,,,,,,,,,,181,Y,triangle,1,0,,,,,,,,,,,,,,,,switch,number,numSwt,f,0.9136,noRew,,,,,,0,53,0,53,0,1,,,,,,,,,,,,,,,,,
294952,2022-10-05_22h39.33.206,vts_reward_expectancy,2022.2.4,MacIntel,60.0024001,Chrome,1440,900,,,,,0,585,,,,,,,,,,,,,,,,,125,S,star,1,0,,,,,,,,,,,,,,,,switch,letter,lettSwt,k,0.6464,noRew,,,,,,0,54,0,54,0,1,,,,,,,,,,,,,,,,,
294952,2022-10-05_22h39.33.206,vts_reward_expectancy,2022.2.4,MacIntel,60.0024001,Chrome,1440,900,,,,,0,585,,,,,,,,,,,,,,,,,146,D,triangle,1,0,,,,,,,,,,,,,,,,repeat,letter,lettRpt,j,1.299,noRew,,,,,,0,55,0,55,0,1,,,,,,,,,,,,,,,,,
294952,2022-10-05_22h39.33.206,vts_reward_expectancy,2022.2.4,MacIntel,60.0024001,Chrome,1440,900,,,,,0,585,,,,,,,,,,,,,,,,,160,Y,triangle,1,0,,,,,,,,,,,,,,,,repeat,letter,lettRpt,k,0.5651,noRew,,,,,,0,56,0,56,0,1,,,,,,,,,,,,,,,,,
294952,2022-10-05_22h39.33.206,vts_reward_expectancy,2022.2.4,MacIntel,60.0024001,Chrome,1440,900,,,,,0,585,,,,,,,,,,,,,,,,,139,F,hexagon,1,0,,,,,,,,,,,,,,,,repeat,letter,lettRpt,j,0.8094,noRew,,,,,,0,57,0,57,0,1,,,,,,,,,,,,,,,,,
294952,2022-10-05_22h39.33.206,vts_reward_expectancy,2022.2.4,MacIntel,60.0024001,Chrome,1440,900,,,,,0,585,,,,,,,,,,,,,,,,,125,H,hexagon,1,0,,,,,,,,,,,,,,,,repeat,letter,lettRpt,j,0.7286,noRew,,,,,,0,58,0,58,0,1,,,,,,,,,,,,,,,,,
294952,2022-10-05_22h39.33.206,vts_reward_expectancy,2022.2.4,MacIntel,60.0024001,Chrome,1440,900,,,,,0,585,,,,,,,,,,,,,,,,,181,U,star,1,0,,,,,,,,,,,,,,,,repeat,letter,lettRpt,k,0.9822,noRew,,,,,,0,59,0,59,0,1,,,,,,,,,,,,,,,,,
294952,2022-10-05_22h39.33.206,vts_reward_expectancy,2022.2.4,MacIntel,60.0024001,Chrome,1440,900,,,,,0,585,,,,,,,,,,,,,,,,,167,F,triangle,1,0,,,,,,,,,,,,,,,,switch,number,numSwt,f,1.0629,noRew,,,,,,0,60,0,60,0,1,,,,,,,,,,,,,,,,,
294952,2022-10-05_22h39.33.206,vts_reward_expectancy,2022.2.4,MacIntel,60.0024001,Chrome,1440,900,,,,,0,585,,,,,,,,,,,,,,,,,174,U,circle,1,0,,,,,,,,,,,,,,,,repeat,number,numRpt,f,0.8657,noRew,,,,,,0,61,0,61,0,1,,,,,,,,,,,,,,,,,
294952,2022-10-05_22h39.33.206,vts_reward_expectancy,2022.2.4,MacIntel,60.0024001,Chrome,1440,900,,,,,0,585,,,,,,,,,,,,,,,,,125,W,hexagon,1,0,,,,,,,,,,,,,,,,repeat,number,numRpt,d,1.1262,noRew,,,,,,0,62,0,62,0,1,,,,,,,,,,,,,,,,,
294952,2022-10-05_22h39.33.206,vts_reward_expectancy,2022.2.4,MacIntel,60.0024001,Chrome,1440,900,,,,,0,585,,,,,,,,,,,,,,,,,160,B,star,1,0,,,,,,,,,,,,,,,,switch,letter,lettSwt,j,0.6457,noRew,,,,,,0,63,0,63,0,1,,,,,,,,,,,,,,,,,
294952,2022-10-05_22h39.33.206,vts_reward_expectancy,2022.2.4,MacIntel,60.0024001,Chrome,1440,900,,,,,,,,,,,,,,,,,,,,,,,,,,,,,,,,,,,,,,,,,,,,,,,,,,,,,,,,,,,,,,,,,,,,,,,,,,,,
294952,2022-10-05_22h39.33.206,vts_reward_expectancy,2022.2.4,MacIntel,60.0024001,Chrome,1440,900,,,,,0,585,,,,,,,,,,,,,,,,,181,W,hexagon,0,0,,,,,,,,,,,,,,,,switch,number,NA,d,0.6827,noRew,,,,,,0,,,,,,space,6.2315,low,0,0,0,0,1,,,,,,,,,
294952,2022-10-05_22h39.33.206,vts_reward_expectancy,2022.2.4,MacIntel,60.0024001,Chrome,1440,900,,,,,10,595,,,,,,,,,,,,,,,,,160,Y,circle,1,1,,,,,,,,,,,,,,,,repeat,number,numRpt,f,0.6317,Hi,,,,,,0,,,,,,,,low,1,0,1,0,1,,,,,,,,,
294952,2022-10-05_22h39.33.206,vts_reward_expectancy,2022.2.4,MacIntel,60.0024001,Chrome,1440,900,,,,,10,605,,,,,,,,,,,,,,,,,125,D,hexagon,1,0,,,,,,,,,,,,,,,,repeat,number,numRpt,d,0.4659,Lo,,,,,,0,,,,,,,,low,2,0,2,0,1,,,,,,,,,
294952,2022-10-05_22h39.33.206,vts_reward_expectancy,2022.2.4,MacIntel,60.0024001,Chrome,1440,900,,,,,0,605,,,,,,,,,,,,,,,,,139,U,circle,1,0,,,,,,,,,,,,,,,,switch,letter,lettSwt,k,1.0148,Hi,,,,,,0,,,,,,,,low,3,0,3,0,1,,,,,,,,,
294952,2022-10-05_22h39.33.206,vts_reward_expectancy,2022.2.4,MacIntel,60.0024001,Chrome,1440,900,,,,,1,606,,,,,,,,,,,,,,,,,146,H,hexagon,1,0,,,,,,,,,,,,,,,,switch,number,numSwt,d,0.5821,Lo,,,,,,0,,,,,,,,low,4,0,4,0,1,,,,,,,,,
294952,2022-10-05_22h39.33.206,vts_reward_expectancy,2022.2.4,MacIntel,60.0024001,Chrome,1440,900,,,,,0,606,,,,,,,,,,,,,,,,,132,F,circle,1,0,,,,,,,,,,,,,,,,switch,letter,lettSwt,j,0.9324,Hi,,,,,,0,,,,,,,,low,5,0,5,0,1,,,,,,,,,
294952,2022-10-05_22h39.33.206,vts_reward_expectancy,2022.2.4,MacIntel,60.0024001,Chrome,1440,900,,,,,10,616,,,,,,,,,,,,,,,,,167,S,circle,1,0,,,,,,,,,,,,,,,,repeat,letter,lettRpt,k,0.5357,Hi,,,,,,0,,,,,,,,low,6,0,6,0,1,,,,,,,,,
294952,2022-10-05_22h39.33.206,vts_reward_expectancy,2022.2.4,MacIntel,60.0024001,Chrome,1440,900,,,,,10,626,,,,,,,,,,,,,,,,,174,B,hexagon,1,0,,,,,,,,,,,,,,,,repeat,letter,lettRpt,j,0.564,Lo,,,,,,0,,,,,,,,low,7,0,7,0,1,,,,,,,,,
294952,2022-10-05_22h39.33.206,vts_reward_expectancy,2022.2.4,MacIntel,60.0024001,Chrome,1440,900,,,,,10,636,,,,,,,,,,,,,,,,,181,W,circle,1,0,,,,,,,,,,,,,,,,repeat,letter,lettRpt,k,0.4939,Hi,,,,,,0,,,,,,,,low,8,0,8,0,1,,,,,,,,,
294952,2022-10-05_22h39.33.206,vts_reward_expectancy,2022.2.4,MacIntel,60.0024001,Chrome,1440,900,,,,,1,637,,,,,,,,,,,,,,,,,160,Y,hexagon,1,0,,,,,,,,,,,,,,,,switch,number,numSwt,f,0.7965,Lo,,,,,,0,,,,,,,,low,9,0,9,0,1,,,,,,,,,
294952,2022-10-05_22h39.33.206,vts_reward_expectancy,2022.2.4,MacIntel,60.0024001,Chrome,1440,900,,,,,0,637,,,,,,,,,,,,,,,,,125,D,circle,1,0,,,,,,,,,,,,,,,,repeat,number,numRpt,d,0.7317,Hi,,,,,,0,,,,,,,,low,10,0,10,0,1,,,,,,,,,
294952,2022-10-05_22h39.33.206,vts_reward_expectancy,2022.2.4,MacIntel,60.0024001,Chrome,1440,900,,,,,10,647,,,,,,,,,,,,,,,,,139,U,hexagon,1,0,,,,,,,,,,,,,,,,repeat,number,numRpt,d,0.9106,Lo,,,,,,0,,,,,,,,low,11,0,11,0,1,,,,,,,,,
294952,2022-10-05_22h39.33.206,vts_reward_expectancy,2022.2.4,MacIntel,60.0024001,Chrome,1440,900,,,,,10,657,,,,,,,,,,,,,,,,,146,H,circle,1,0,,,,,,,,,,,,,,,,repeat,number,numRpt,d,0.5834,Hi,,,,,,0,,,,,,,,low,12,0,12,0,1,,,,,,,,,
294952,2022-10-05_22h39.33.206,vts_reward_expectancy,2022.2.4,MacIntel,60.0024001,Chrome,1440,900,,,,,10,667,,,,,,,,,,,,,,,,,132,F,hexagon,1,0,,,,,,,,,,,,,,,,switch,letter,lettSwt,j,0.5941,Lo,,,,,,0,,,,,,,,low,13,0,13,0,1,,,,,,,,,
294952,2022-10-05_22h39.33.206,vts_reward_expectancy,2022.2.4,MacIntel,60.0024001,Chrome,1440,900,,,,,10,677,,,,,,,,,,,,,,,,,167,S,hexagon,1,0,,,,,,,,,,,,,,,,switch,number,numSwt,f,1.0777,Lo,,,,,,0,,,,,,,,low,14,0,14,0,1,,,,,,,,,
294952,2022-10-05_22h39.33.206,vts_reward_expectancy,2022.2.4,MacIntel,60.0024001,Chrome,1440,900,,,,,10,687,,,,,,,,,,,,,,,,,174,B,circle,1,0,,,,,,,,,,,,,,,,switch,letter,lettSwt,j,0.5275,Hi,,,,,,0,,,,,,,,low,15,0,15,0,1,,,,,,,,,
294952,2022-10-05_22h39.33.206,vts_reward_expectancy,2022.2.4,MacIntel,60.0024001,Chrome,1440,900,,,,,10,697,,,,,,,,,,,,,,,,,132,S,circle,1,0,,,,,,,,,,,,,,,,repeat,letter,lettRpt,k,0.5268,Hi,,,,,,0,,,,,,,,low,16,0,16,0,1,,,,,,,,,
294952,2022-10-05_22h39.33.206,vts_reward_expectancy,2022.2.4,MacIntel,60.0024001,Chrome,1440,900,,,,,10,707,,,,,,,,,,,,,,,,,139,Y,hexagon,1,0,,,,,,,,,,,,,,,,switch,number,numSwt,d,0.7269,Lo,,,,,,0,,,,,,,,low,17,0,17,0,1,,,,,,,,,
294952,2022-10-05_22h39.33.206,vts_reward_expectancy,2022.2.4,MacIntel,60.0024001,Chrome,1440,900,,,,,1,708,,,,,,,,,,,,,,,,,167,D,circle,1,0,,,,,,,,,,,,,,,,repeat,number,numRpt,f,0.6429,Hi,,,,,,0,,,,,,,,low,18,0,18,0,1,,,,,,,,,
294952,2022-10-05_22h39.33.206,vts_reward_expectancy,2022.2.4,MacIntel,60.0024001,Chrome,1440,900,,,,,1,709,,,,,,,,,,,,,,,,,174,H,hexagon,1,0,,,,,,,,,,,,,,,,switch,letter,lettSwt,j,0.564,Lo,,,,,,0,,,,,,,,low,19,0,19,0,1,,,,,,,,,
294952,2022-10-05_22h39.33.206,vts_reward_expectancy,2022.2.4,MacIntel,60.0024001,Chrome,1440,900,,,,,10,719,,,,,,,,,,,,,,,,,146,U,hexagon,1,0,,,,,,,,,,,,,,,,repeat,letter,lettRpt,k,0.6145,Lo,,,,,,0,,,,,,,,low,20,0,20,0,1,,,,,,,,,
294952,2022-10-05_22h39.33.206,vts_reward_expectancy,2022.2.4,MacIntel,60.0024001,Chrome,1440,900,,,,,1,720,,,,,,,,,,,,,,,,,160,W,circle,1,0,,,,,,,,,,,,,,,,repeat,letter,lettRpt,k,0.5656,Hi,,,,,,0,,,,,,,,low,21,0,21,0,1,,,,,,,,,
294952,2022-10-05_22h39.33.206,vts_reward_expectancy,2022.2.4,MacIntel,60.0024001,Chrome,1440,900,,,,,10,730,,,,,,,,,,,,,,,,,181,B,circle,1,0,,,,,,,,,,,,,,,,repeat,letter,lettRpt,j,0.6222,Hi,,,,,,0,,,,,,,,low,22,0,22,0,1,,,,,,,,,
294952,2022-10-05_22h39.33.206,vts_reward_expectancy,2022.2.4,MacIntel,60.0024001,Chrome,1440,900,,,,,10,740,,,,,,,,,,,,,,,,,125,F,hexagon,1,0,,,,,,,,,,,,,,,,switch,number,numSwt,d,0.7643,Lo,,,,,,0,,,,,,,,low,23,0,23,0,1,,,,,,,,,
294952,2022-10-05_22h39.33.206,vts_reward_expectancy,2022.2.4,MacIntel,60.0024001,Chrome,1440,900,,,,,0,740,,,,,,,,,,,,,,,,,146,F,circle,1,0,,,,,,,,,,,,,,,,switch,letter,lettSwt,j,0.6659,Hi,,,,,,0,,,,,,,,low,24,0,24,0,1,,,,,,,,,
294952,2022-10-05_22h39.33.206,vts_reward_expectancy,2022.2.4,MacIntel,60.0024001,Chrome,1440,900,,,,,10,750,,,,,,,,,,,,,,,,,181,Y,hexagon,1,0,,,,,,,,,,,,,,,,repeat,letter,lettRpt,k,0.5601,Lo,,,,,,0,,,,,,,,low,25,0,25,0,1,,,,,,,,,
294952,2022-10-05_22h39.33.206,vts_reward_expectancy,2022.2.4,MacIntel,60.0024001,Chrome,1440,900,,,,,10,760,,,,,,,,,,,,,,,,,174,S,hexagon,1,0,,,,,,,,,,,,,,,,repeat,letter,lettRpt,k,0.6441,Lo,,,,,,0,,,,,,,,low,26,0,26,0,1,,,,,,,,,
294952,2022-10-05_22h39.33.206,vts_reward_expectancy,2022.2.4,MacIntel,60.0024001,Chrome,1440,900,,,,,10,770,,,,,,,,,,,,,,,,,160,H,circle,1,0,,,,,,,,,,,,,,,,repeat,letter,lettRpt,j,0.5253,Hi,,,,,,0,,,,,,,,low,27,0,27,0,1,,,,,,,,,
294952,2022-10-05_22h39.33.206,vts_reward_expectancy,2022.2.4,MacIntel,60.0024001,Chrome,1440,900,,,,,0,770,,,,,,,,,,,,,,,,,132,W,circle,1,0,,,,,,,,,,,,,,,,switch,number,numSwt,d,0.6776,Hi,,,,,,0,,,,,,,,low,28,0,28,0,1,,,,,,,,,
294952,2022-10-05_22h39.33.206,vts_reward_expectancy,2022.2.4,MacIntel,60.0024001,Chrome,1440,900,,,,,1,771,,,,,,,,,,,,,,,,,139,D,hexagon,1,0,,,,,,,,,,,,,,,,switch,letter,lettSwt,j,0.5152,Lo,,,,,,0,,,,,,,,low,29,0,29,0,1,,,,,,,,,
294952,2022-10-05_22h39.33.206,vts_reward_expectancy,2022.2.4,MacIntel,60.0024001,Chrome,1440,900,,,,,1,772,,,,,,,,,,,,,,,,,167,B,hexagon,1,0,,,,,,,,,,,,,,,,repeat,letter,lettRpt,j,0.5309,Lo,,,,,,0,,,,,,,,low,30,0,30,0,1,,,,,,,,,
294952,2022-10-05_22h39.33.206,vts_reward_expectancy,2022.2.4,MacIntel,60.0024001,Chrome,1440,900,,,,,10,782,,,,,,,,,,,,,,,,,125,U,circle,1,0,,,,,,,,,,,,,,,,repeat,letter,lettRpt,k,0.527,Hi,,,,,,0,,,,,,,,low,31,0,31,0,1,,,,,,,,,
294952,2022-10-05_22h39.33.206,vts_reward_expectancy,2022.2.4,MacIntel,60.0024001,Chrome,1440,900,,,,,1,783,,,,,,,,,,,,,,,,,167,Y,triangle,1,0,,,,,,,,,,,,,,,,repeat,letter,lettRpt,k,1.033,Lo,,,,,,1,,,,,,space,1.3288,high,0,0,0,0,1,,,,,,,,,
294952,2022-10-05_22h39.33.206,vts_reward_expectancy,2022.2.4,MacIntel,60.0024001,Chrome,1440,900,,,,,0,783,,,,,,,,,,,,,,,,,181,S,star,1,0,,,,,,,,,,,,,,,,repeat,letter,lettRpt,k,0.5342,Hi,,,,,,1,,,,,,,,high,1,0,1,0,1,,,,,,,,,
294952,2022-10-05_22h39.33.206,vts_reward_expectancy,2022.2.4,MacIntel,60.0024001,Chrome,1440,900,,,,,1,784,,,,,,,,,,,,,,,,,174,B,triangle,1,0,,,,,,,,,,,,,,,,repeat,letter,lettRpt,j,0.5307,Lo,,,,,,1,,,,,,,,high,2,0,2,0,1,,,,,,,,,
294952,2022-10-05_22h39.33.206,vts_reward_expectancy,2022.2.4,MacIntel,60.0024001,Chrome,1440,900,,,,,0,784,,,,,,,,,,,,,,,,,125,W,star,1,0,,,,,,,,,,,,,,,,repeat,letter,lettRpt,k,0.6143,Hi,,,,,,1,,,,,,,,high,3,0,3,0,1,,,,,,,,,
294952,2022-10-05_22h39.33.206,vts_reward_expectancy,2022.2.4,MacIntel,60.0024001,Chrome,1440,900,,,,,0,784,,,,,,,,,,,,,,,,,160,D,star,1,0,,,,,,,,,,,,,,,,repeat,letter,lettRpt,j,0.5612,Hi,,,,,,1,,,,,,,,high,4,0,4,0,1,,,,,,,,,
294952,2022-10-05_22h39.33.206,vts_reward_expectancy,2022.2.4,MacIntel,60.0024001,Chrome,1440,900,,,,,1,785,,,,,,,,,,,,,,,,,146,H,triangle,1,0,,,,,,,,,,,,,,,,switch,number,numSwt,d,0.7112,Lo,,,,,,1,,,,,,,,high,5,0,5,0,1,,,,,,,,,
294952,2022-10-05_22h39.33.206,vts_reward_expectancy,2022.2.4,MacIntel,60.0024001,Chrome,1440,900,,,,,1,786,,,,,,,,,,,,,,,,,139,U,triangle,1,0,,,,,,,,,,,,,,,,repeat,number,numRpt,d,0.8294,Lo,,,,,,1,,,,,,,,high,6,0,6,0,1,,,,,,,,,
294952,2022-10-05_22h39.33.206,vts_reward_expectancy,2022.2.4,MacIntel,60.0024001,Chrome,1440,900,,,,,0,786,,,,,,,,,,,,,,,,,132,F,star,1,0,,,,,,,,,,,,,,,,repeat,number,numRpt,d,0.6804,Hi,,,,,,1,,,,,,,,high,7,0,7,0,1,,,,,,,,,
294952,2022-10-05_22h39.33.206,vts_reward_expectancy,2022.2.4,MacIntel,60.0024001,Chrome,1440,900,,,,,1,787,,,,,,,,,,,,,,,,,167,Y,triangle,1,0,,,,,,,,,,,,,,,,switch,letter,lettSwt,k,0.6628,Lo,,,,,,1,,,,,,,,high,8,0,8,0,1,,,,,,,,,
294952,2022-10-05_22h39.33.206,vts_reward_expectancy,2022.2.4,MacIntel,60.0024001,Chrome,1440,900,,,,,0,787,,,,,,,,,,,,,,,,,181,S,star,1,0,,,,,,,,,,,,,,,,repeat,letter,lettRpt,k,0.6334,Hi,,,,,,1,,,,,,,,high,9,0,9,0,1,,,,,,,,,
294952,2022-10-05_22h39.33.206,vts_reward_expectancy,2022.2.4,MacIntel,60.0024001,Chrome,1440,900,,,,,1,788,,,,,,,,,,,,,,,,,174,B,triangle,1,0,,,,,,,,,,,,,,,,repeat,letter,lettRpt,j,0.4816,Lo,,,,,,1,,,,,,,,high,10,0,10,0,1,,,,,,,,,
294952,2022-10-05_22h39.33.206,vts_reward_expectancy,2022.2.4,MacIntel,60.0024001,Chrome,1440,900,,,,,0,788,,,,,,,,,,,,,,,,,125,W,star,1,0,,,,,,,,,,,,,,,,repeat,letter,lettRpt,k,0.8149,Hi,,,,,,1,,,,,,,,high,11,0,11,0,1,,,,,,,,,
294952,2022-10-05_22h39.33.206,vts_reward_expectancy,2022.2.4,MacIntel,60.0024001,Chrome,1440,900,,,,,10,798,,,,,,,,,,,,,,,,,160,D,triangle,1,0,,,,,,,,,,,,,,,,repeat,letter,lettRpt,j,0.5485,Lo,,,,,,1,,,,,,,,high,12,0,12,0,1,,,,,,,,,
294952,2022-10-05_22h39.33.206,vts_reward_expectancy,2022.2.4,MacIntel,60.0024001,Chrome,1440,900,,,,,10,808,,,,,,,,,,,,,,,,,146,H,star,1,0,,,,,,,,,,,,,,,,switch,number,numSwt,d,0.3819,Hi,,,,,,1,,,,,,,,high,13,0,13,0,1,,,,,,,,,
294952,2022-10-05_22h39.33.206,vts_reward_expectancy,2022.2.4,MacIntel,60.0024001,Chrome,1440,900,,,,,10,818,,,,,,,,,,,,,,,,,139,U,star,1,0,,,,,,,,,,,,,,,,repeat,number,numRpt,d,0.559,Hi,,,,,,1,,,,,,,,high,14,0,14,0,1,,,,,,,,,
294952,2022-10-05_22h39.33.206,vts_reward_expectancy,2022.2.4,MacIntel,60.0024001,Chrome,1440,900,,,,,10,828,,,,,,,,,,,,,,,,,132,F,triangle,1,0,,,,,,,,,,,,,,,,repeat,number,numRpt,d,0.5767,Lo,,,,,,1,,,,,,,,high,15,0,15,0,1,,,,,,,,,
294952,2022-10-05_22h39.33.206,vts_reward_expectancy,2022.2.4,MacIntel,60.0024001,Chrome,1440,900,,,,,1,829,,,,,,,,,,,,,,,,,146,H,star,1,0,,,,,,,,,,,,,,,,repeat,number,numRpt,d,0.5811,Hi,,,,,,1,,,,,,,,high,16,0,16,0,1,,,,,,,,,
294952,2022-10-05_22h39.33.206,vts_reward_expectancy,2022.2.4,MacIntel,60.0024001,Chrome,1440,900,,,,,1,830,,,,,,,,,,,,,,,,,139,W,triangle,1,0,,,,,,,,,,,,,,,,switch,letter,lettSwt,k,0.6082,Lo,,,,,,1,,,,,,,,high,17,0,17,0,1,,,,,,,,,
294952,2022-10-05_22h39.33.206,vts_reward_expectancy,2022.2.4,MacIntel,60.0024001,Chrome,1440,900,,,,,1,831,,,,,,,,,,,,,,,,,174,D,triangle,1,0,,,,,,,,,,,,,,,,repeat,letter,lettRpt,j,0.6429,Lo,,,,,,1,,,,,,,,high,18,0,18,0,1,,,,,,,,,
294952,2022-10-05_22h39.33.206,vts_reward_expectancy,2022.2.4,MacIntel,60.0024001,Chrome,1440,900,,,,,10,841,,,,,,,,,,,,,,,,,132,B,star,1,0,,,,,,,,,,,,,,,,switch,number,numSwt,d,0.4772,Hi,,,,,,1,,,,,,,,high,19,0,19,0,1,,,,,,,,,
294952,2022-10-05_22h39.33.206,vts_reward_expectancy,2022.2.4,MacIntel,60.0024001,Chrome,1440,900,,,,,0,841,,,,,,,,,,,,,,,,,181,S,triangle,0,0,,,,,,,,,,,,,,,,repeat,number,NA,d,0.4935,Hi,,,,,,1,,,,,,,,high,20,0,20,0,1,,,,,,,,,
294952,2022-10-05_22h39.33.206,vts_reward_expectancy,2022.2.4,MacIntel,60.0024001,Chrome,1440,900,,,,,0,841,,,,,,,,,,,,,,,,,167,F,star,1,1,,,,,,,,,,,,,,,,repeat,number,numRpt,f,0.8639,Hi,,,,,,1,,,,,,,,high,21,0,21,0,1,,,,,,,,,
294952,2022-10-05_22h39.33.206,vts_reward_expectancy,2022.2.4,MacIntel,60.0024001,Chrome,1440,900,,,,,10,851,,,,,,,,,,,,,,,,,125,U,star,1,0,,,,,,,,,,,,,,,,switch,letter,lettSwt,k,0.5625,Hi,,,,,,1,,,,,,,,high,22,0,22,0,1,,,,,,,,,
294952,2022-10-05_22h39.33.206,vts_reward_expectancy,2022.2.4,MacIntel,60.0024001,Chrome,1440,900,,,,,10,861,,,,,,,,,,,,,,,,,160,Y,triangle,1,0,,,,,,,,,,,,,,,,repeat,letter,lettRpt,k,0.8731,Lo,,,,,,1,,,,,,,,high,23,0,23,0,1,,,,,,,,,
294952,2022-10-05_22h39.33.206,vts_reward_expectancy,2022.2.4,MacIntel,60.0024001,Chrome,1440,900,,,,,1,862,,,,,,,,,,,,,,,,,125,B,triangle,1,0,,,,,,,,,,,,,,,,switch,number,numSwt,d,0.7283,Lo,,,,,,1,,,,,,,,high,24,0,24,0,1,,,,,,,,,
294952,2022-10-05_22h39.33.206,vts_reward_expectancy,2022.2.4,MacIntel,60.0024001,Chrome,1440,900,,,,,0,862,,,,,,,,,,,,,,,,,167,D,star,1,0,,,,,,,,,,,,,,,,repeat,number,numRpt,f,0.6935,Hi,,,,,,1,,,,,,,,high,25,0,25,0,1,,,,,,,,,
294952,2022-10-05_22h39.33.206,vts_reward_expectancy,2022.2.4,MacIntel,60.0024001,Chrome,1440,900,,,,,1,863,,,,,,,,,,,,,,,,,132,U,triangle,1,0,,,,,,,,,,,,,,,,repeat,number,numRpt,d,0.539,Lo,,,,,,1,,,,,,,,high,26,0,26,0,1,,,,,,,,,
294952,2022-10-05_22h39.33.206,vts_reward_expectancy,2022.2.4,MacIntel,60.0024001,Chrome,1440,900,,,,,10,873,,,,,,,,,,,,,,,,,181,S,star,1,0,,,,,,,,,,,,,,,,switch,letter,lettSwt,k,0.5607,Hi,,,,,,1,,,,,,,,high,27,0,27,0,1,,,,,,,,,
294952,2022-10-05_22h39.33.206,vts_reward_expectancy,2022.2.4,MacIntel,60.0024001,Chrome,1440,900,,,,,1,874,,,,,,,,,,,,,,,,,160,Y,triangle,1,0,,,,,,,,,,,,,,,,repeat,letter,lettRpt,k,0.6465,Lo,,,,,,1,,,,,,,,high,28,0,28,0,1,,,,,,,,,
294952,2022-10-05_22h39.33.206,vts_reward_expectancy,2022.2.4,MacIntel,60.0024001,Chrome,1440,900,,,,,0,874,,,,,,,,,,,,,,,,,139,F,star,0,0,,,,,,,,,,,,,,,,repeat,letter,NA,k,0.6122,Lo,,,,,,1,,,,,,,,high,29,0,29,0,1,,,,,,,,,
294952,2022-10-05_22h39.33.206,vts_reward_expectancy,2022.2.4,MacIntel,60.0024001,Chrome,1440,900,,,,,0,874,,,,,,,,,,,,,,,,,174,W,star,1,1,,,,,,,,,,,,,,,,repeat,letter,lettRpt,k,0.5449,Hi,,,,,,1,,,,,,,,high,30,0,30,0,1,,,,,,,,,
294952,2022-10-05_22h39.33.206,vts_reward_expectancy,2022.2.4,MacIntel,60.0024001,Chrome,1440,900,,,,,1,875,,,,,,,,,,,,,,,,,146,H,triangle,1,0,,,,,,,,,,,,,,,,switch,number,numSwt,d,0.7621,Lo,,,,,,1,,,,,,,,high,31,0,31,0,1,,,,,,,,,
294952,2022-10-05_22h39.33.206,vts_reward_expectancy,2022.2.4,MacIntel,60.0024001,Chrome,1440,900,,,,,0,875,,,,,,,,,,,,,,,,,167,F,star,1,0,,,,,,,,,,,,,,,,repeat,number,numRpt,f,0.8112,Hi,,,,,,2,,,,,,space,1.1069,high,0,0,0,0,1,,,,,,,,,
294952,2022-10-05_22h39.33.206,vts_reward_expectancy,2022.2.4,MacIntel,60.0024001,Chrome,1440,900,,,,,1,876,,,,,,,,,,,,,,,,,160,D,triangle,1,0,,,,,,,,,,,,,,,,repeat,number,numRpt,f,0.7866,Lo,,,,,,2,,,,,,,,high,1,0,1,0,1,,,,,,,,,
294952,2022-10-05_22h39.33.206,vts_reward_expectancy,2022.2.4,MacIntel,60.0024001,Chrome,1440,900,,,,,10,886,,,,,,,,,,,,,,,,,125,U,star,1,0,,,,,,,,,,,,,,,,repeat,number,numRpt,d,0.4933,Hi,,,,,,2,,,,,,,,high,2,0,2,0,1,,,,,,,,,
294952,2022-10-05_22h39.33.206,vts_reward_expectancy,2022.2.4,MacIntel,60.0024001,Chrome,1440,900,,,,,1,887,,,,,,,,,,,,,,,,,146,Y,triangle,1,0,,,,,,,,,,,,,,,,repeat,number,numRpt,d,0.7545,Lo,,,,,,2,,,,,,,,high,3,0,3,0,1,,,,,,,,,
294952,2022-10-05_22h39.33.206,vts_reward_expectancy,2022.2.4,MacIntel,60.0024001,Chrome,1440,900,,,,,10,897,,,,,,,,,,,,,,,,,181,H,triangle,1,0,,,,,,,,,,,,,,,,switch,letter,lettSwt,j,0.8637,Lo,,,,,,2,,,,,,,,high,4,0,4,0,1,,,,,,,,,
294952,2022-10-05_22h39.33.206,vts_reward_expectancy,2022.2.4,MacIntel,60.0024001,Chrome,1440,900,,,,,10,907,,,,,,,,,,,,,,,,,174,S,star,1,0,,,,,,,,,,,,,,,,repeat,letter,lettRpt,k,0.4893,Hi,,,,,,2,,,,,,,,high,5,0,5,0,1,,,,,,,,,
294952,2022-10-05_22h39.33.206,vts_reward_expectancy,2022.2.4,MacIntel,60.0024001,Chrome,1440,900,,,,,1,908,,,,,,,,,,,,,,,,,139,W,triangle,1,0,,,,,,,,,,,,,,,,repeat,letter,lettRpt,k,0.5822,Lo,,,,,,2,,,,,,,,high,6,0,6,0,1,,,,,,,,,
294952,2022-10-05_22h39.33.206,vts_reward_expectancy,2022.2.4,MacIntel,60.0024001,Chrome,1440,900,,,,,10,918,,,,,,,,,,,,,,,,,132,B,star,1,0,,,,,,,,,,,,,,,,repeat,letter,lettRpt,j,0.5406,Hi,,,,,,2,,,,,,,,high,7,0,7,0,1,,,,,,,,,
294952,2022-10-05_22h39.33.206,vts_reward_expectancy,2022.2.4,MacIntel,60.0024001,Chrome,1440,900,,,,,1,919,,,,,,,,,,,,,,,,,167,F,triangle,1,0,,,,,,,,,,,,,,,,repeat,letter,lettRpt,j,0.6102,Lo,,,,,,2,,,,,,,,high,8,0,8,0,1,,,,,,,,,
294952,2022-10-05_22h39.33.206,vts_reward_expectancy,2022.2.4,MacIntel,60.0024001,Chrome,1440,900,,,,,0,919,,,,,,,,,,,,,,,,,160,D,star,0,0,,,,,,,,,,,,,,,,switch,number,NA,d,0.6924,Lo,,,,,,2,,,,,,,,high,9,0,9,0,1,,,,,,,,,
294952,2022-10-05_22h39.33.206,vts_reward_expectancy,2022.2.4,MacIntel,60.0024001,Chrome,1440,900,,,,,1,920,,,,,,,,,,,,,,,,,125,U,triangle,1,1,,,,,,,,,,,,,,,,repeat,number,numRpt,d,0.4069,Lo,,,,,,2,,,,,,,,high,10,0,10,0,1,,,,,,,,,
294952,2022-10-05_22h39.33.206,vts_reward_expectancy,2022.2.4,MacIntel,60.0024001,Chrome,1440,900,,,,,0,920,,,,,,,,,,,,,,,,,146,Y,star,1,0,,,,,,,,,,,,,,,,repeat,number,numRpt,d,0.5795,Hi,,,,,,2,,,,,,,,high,11,0,11,0,1,,,,,,,,,
294952,2022-10-05_22h39.33.206,vts_reward_expectancy,2022.2.4,MacIntel,60.0024001,Chrome,1440,900,,,,,1,921,,,,,,,,,,,,,,,,,181,H,triangle,1,0,,,,,,,,,,,,,,,,repeat,number,numRpt,f,0.6944,Lo,,,,,,2,,,,,,,,high,12,0,12,0,1,,,,,,,,,
294952,2022-10-05_22h39.33.206,vts_reward_expectancy,2022.2.4,MacIntel,60.0024001,Chrome,1440,900,,,,,0,921,,,,,,,,,,,,,,,,,174,S,star,1,0,,,,,,,,,,,,,,,,repeat,number,numRpt,f,0.6583,Hi,,,,,,2,,,,,,,,high,13,0,13,0,1,,,,,,,,,
294952,2022-10-05_22h39.33.206,vts_reward_expectancy,2022.2.4,MacIntel,60.0024001,Chrome,1440,900,,,,,10,931,,,,,,,,,,,,,,,,,139,W,triangle,1,0,,,,,,,,,,,,,,,,repeat,number,numRpt,d,0.6957,Lo,,,,,,2,,,,,,,,high,14,0,14,0,1,,,,,,,,,
294952,2022-10-05_22h39.33.206,vts_reward_expectancy,2022.2.4,MacIntel,60.0024001,Chrome,1440,900,,,,,10,941,,,,,,,,,,,,,,,,,132,B,star,1,0,,,,,,,,,,,,,,,,repeat,number,numRpt,d,0.5639,Hi,,,,,,2,,,,,,,,high,15,0,15,0,1,,,,,,,,,
294952,2022-10-05_22h39.33.206,vts_reward_expectancy,2022.2.4,MacIntel,60.0024001,Chrome,1440,900,,,,,0,941,,,,,,,,,,,,,,,,,181,B,star,1,0,,,,,,,,,,,,,,,,repeat,number,numRpt,f,0.7916,Hi,,,,,,2,,,,,,,,high,16,0,16,0,1,,,,,,,,,
294952,2022-10-05_22h39.33.206,vts_reward_expectancy,2022.2.4,MacIntel,60.0024001,Chrome,1440,900,,,,,1,942,,,,,,,,,,,,,,,,,132,D,triangle,1,0,,,,,,,,,,,,,,,,repeat,number,numRpt,d,0.7421,Lo,,,,,,2,,,,,,,,high,17,0,17,0,1,,,,,,,,,
294952,2022-10-05_22h39.33.206,vts_reward_expectancy,2022.2.4,MacIntel,60.0024001,Chrome,1440,900,,,,,0,942,,,,,,,,,,,,,,,,,160,F,star,0,0,,,,,,,,,,,,,,,,repeat,number,NA,d,0.8331,Lo,,,,,,2,,,,,,,,high,18,0,18,0,1,,,,,,,,,
294952,2022-10-05_22h39.33.206,vts_reward_expectancy,2022.2.4,MacIntel,60.0024001,Chrome,1440,900,,,,,10,952,,,,,,,,,,,,,,,,,139,Y,triangle,1,1,,,,,,,,,,,,,,,,switch,letter,lettSwt,k,0.5288,Lo,,,,,,2,,,,,,,,high,19,0,19,0,1,,,,,,,,,
294952,2022-10-05_22h39.33.206,vts_reward_expectancy,2022.2.4,MacIntel,60.0024001,Chrome,1440,900,,,,,1,953,,,,,,,,,,,,,,,,,167,H,triangle,1,0,,,,,,,,,,,,,,,,repeat,letter,lettRpt,j,0.6164,Lo,,,,,,2,,,,,,,,high,20,0,20,0,1,,,,,,,,,
294952,2022-10-05_22h39.33.206,vts_reward_expectancy,2022.2.4,MacIntel,60.0024001,Chrome,1440,900,,,,,0,953,,,,,,,,,,,,,,,,,174,U,star,1,0,,,,,,,,,,,,,,,,repeat,letter,lettRpt,k,0.5968,Hi,,,,,,2,,,,,,,,high,21,0,21,0,1,,,,,,,,,
294952,2022-10-05_22h39.33.206,vts_reward_expectancy,2022.2.4,MacIntel,60.0024001,Chrome,1440,900,,,,,10,963,,,,,,,,,,,,,,,,,125,W,star,1,0,,,,,,,,,,,,,,,,repeat,letter,lettRpt,k,0.5324,Hi,,,,,,2,,,,,,,,high,22,0,22,0,1,,,,,,,,,
294952,2022-10-05_22h39.33.206,vts_reward_expectancy,2022.2.4,MacIntel,60.0024001,Chrome,1440,900,,,,,1,964,,,,,,,,,,,,,,,,,146,S,triangle,1,0,,,,,,,,,,,,,,,,repeat,letter,lettRpt,k,0.5316,Lo,,,,,,2,,,,,,,,high,23,0,23,0,1,,,,,,,,,
294952,2022-10-05_22h39.33.206,vts_reward_expectancy,2022.2.4,MacIntel,60.0024001,Chrome,1440,900,,,,,0,964,,,,,,,,,,,,,,,,,174,U,star,1,0,,,,,,,,,,,,,,,,repeat,letter,lettRpt,k,0.5848,Hi,,,,,,2,,,,,,,,high,24,0,24,0,1,,,,,,,,,
294952,2022-10-05_22h39.33.206,vts_reward_expectancy,2022.2.4,MacIntel,60.0024001,Chrome,1440,900,,,,,1,965,,,,,,,,,,,,,,,,,125,H,triangle,1,0,,,,,,,,,,,,,,,,repeat,letter,lettRpt,j,0.7154,Lo,,,,,,2,,,,,,,,high,25,0,25,0,1,,,,,,,,,
294952,2022-10-05_22h39.33.206,vts_reward_expectancy,2022.2.4,MacIntel,60.0024001,Chrome,1440,900,,,,,0,965,,,,,,,,,,,,,,,,,160,F,star,1,0,,,,,,,,,,,,,,,,repeat,letter,lettRpt,j,0.6077,Hi,,,,,,2,,,,,,,,high,26,0,26,0,1,,,,,,,,,
294952,2022-10-05_22h39.33.206,vts_reward_expectancy,2022.2.4,MacIntel,60.0024001,Chrome,1440,900,,,,,1,966,,,,,,,,,,,,,,,,,146,B,triangle,1,0,,,,,,,,,,,,,,,,repeat,letter,lettRpt,j,0.4615,Lo,,,,,,2,,,,,,,,high,27,0,27,0,1,,,,,,,,,
294952,2022-10-05_22h39.33.206,vts_reward_expectancy,2022.2.4,MacIntel,60.0024001,Chrome,1440,900,,,,,0,966,,,,,,,,,,,,,,,,,181,W,star,1,0,,,,,,,,,,,,,,,,repeat,letter,lettRpt,k,0.5838,Hi,,,,,,2,,,,,,,,high,28,0,28,0,1,,,,,,,,,
294952,2022-10-05_22h39.33.206,vts_reward_expectancy,2022.2.4,MacIntel,60.0024001,Chrome,1440,900,,,,,1,967,,,,,,,,,,,,,,,,,167,Y,triangle,1,0,,,,,,,,,,,,,,,,repeat,letter,lettRpt,k,0.7571,Lo,,,,,,2,,,,,,,,high,29,0,29,0,1,,,,,,,,,
294952,2022-10-05_22h39.33.206,vts_reward_expectancy,2022.2.4,MacIntel,60.0024001,Chrome,1440,900,,,,,0,967,,,,,,,,,,,,,,,,,132,D,star,0,0,,,,,,,,,,,,,,,,repeat,letter,NA,k,0.3284,Lo,,,,,,2,,,,,,,,high,30,0,30,0,1,,,,,,,,,
294952,2022-10-05_22h39.33.206,vts_reward_expectancy,2022.2.4,MacIntel,60.0024001,Chrome,1440,900,,,,,1,968,,,,,,,,,,,,,,,,,139,S,triangle,1,1,,,,,,,,,,,,,,,,switch,number,numSwt,d,0.4455,Lo,,,,,,2,,,,,,,,high,31,0,31,0,1,,,,,,,,,
294952,2022-10-05_22h39.33.206,vts_reward_expectancy,2022.2.4,MacIntel,60.0024001,Chrome,1440,900,,,,,0,968,,,,,,,,,,,,,,,,,174,B,star,1,0,,,,,,,,,,,,,,,,repeat,number,numRpt,f,0.7746,Hi,,,,,,3,,,,,,space,0.5949,high,0,0,0,0,1,,,,,,,,,
294952,2022-10-05_22h39.33.206,vts_reward_expectancy,2022.2.4,MacIntel,60.0024001,Chrome,1440,900,,,,,10,978,,,,,,,,,,,,,,,,,181,Y,triangle,1,0,,,,,,,,,,,,,,,,switch,letter,lettSwt,k,0.5572,Lo,,,,,,3,,,,,,,,high,1,0,1,0,1,,,,,,,,,
294952,2022-10-05_22h39.33.206,vts_reward_expectancy,2022.2.4,MacIntel,60.0024001,Chrome,1440,900,,,,,0,978,,,,,,,,,,,,,,,,,160,S,star,1,0,,,,,,,,,,,,,,,,switch,number,numSwt,f,0.5645,Hi,,,,,,3,,,,,,,,high,2,0,2,0,1,,,,,,,,,
294952,2022-10-05_22h39.33.206,vts_reward_expectancy,2022.2.4,MacIntel,60.0024001,Chrome,1440,900,,,,,1,979,,,,,,,,,,,,,,,,,146,U,triangle,1,0,,,,,,,,,,,,,,,,repeat,number,numRpt,d,0.591,Lo,,,,,,3,,,,,,,,high,3,0,3,0,1,,,,,,,,,
294952,2022-10-05_22h39.33.206,vts_reward_expectancy,2022.2.4,MacIntel,60.0024001,Chrome,1440,900,,,,,10,989,,,,,,,,,,,,,,,,,132,W,star,1,0,,,,,,,,,,,,,,,,switch,letter,lettSwt,k,0.5495,Hi,,,,,,3,,,,,,,,high,4,0,4,0,1,,,,,,,,,
294952,2022-10-05_22h39.33.206,vts_reward_expectancy,2022.2.4,MacIntel,60.0024001,Chrome,1440,900,,,,,1,990,,,,,,,,,,,,,,,,,167,H,triangle,1,0,,,,,,,,,,,,,,,,repeat,letter,lettRpt,j,0.6954,Lo,,,,,,3,,,,,,,,high,5,0,5,0,1,,,,,,,,,
294952,2022-10-05_22h39.33.206,vts_reward_expectancy,2022.2.4,MacIntel,60.0024001,Chrome,1440,900,,,,,1,991,,,,,,,,,,,,,,,,,125,D,star,1,0,,,,,,,,,,,,,,,,repeat,letter,lettRpt,j,0.4612,Hi,,,,,,3,,,,,,,,high,6,0,6,0,1,,,,,,,,,
294952,2022-10-05_22h39.33.206,vts_reward_expectancy,2022.2.4,MacIntel,60.0024001,Chrome,1440,900,,,,,1,992,,,,,,,,,,,,,,,,,139,F,triangle,1,0,,,,,,,,,,,,,,,,repeat,letter,lettRpt,j,0.5473,Lo,,,,,,3,,,,,,,,high,7,0,7,0,1,,,,,,,,,
294952,2022-10-05_22h39.33.206,vts_reward_expectancy,2022.2.4,MacIntel,60.0024001,Chrome,1440,900,,,,,0,992,,,,,,,,,,,,,,,,,174,B,star,1,0,,,,,,,,,,,,,,,,switch,number,numSwt,f,0.5618,Hi,,,,,,3,,,,,,,,high,8,0,8,0,1,,,,,,,,,
294952,2022-10-05_22h39.33.206,vts_reward_expectancy,2022.2.4,MacIntel,60.0024001,Chrome,1440,900,,,,,1,993,,,,,,,,,,,,,,,,,181,Y,triangle,1,0,,,,,,,,,,,,,,,,repeat,number,numRpt,f,0.6631,Lo,,,,,,3,,,,,,,,high,9,0,9,0,1,,,,,,,,,
294952,2022-10-05_22h39.33.206,vts_reward_expectancy,2022.2.4,MacIntel,60.0024001,Chrome,1440,900,,,,,0,993,,,,,,,,,,,,,,,,,160,S,star,0,0,,,,,,,,,,,,,,,,repeat,number,NA,d,0.4485,Lo,,,,,,3,,,,,,,,high,10,0,10,0,1,,,,,,,,,
294952,2022-10-05_22h39.33.206,vts_reward_expectancy,2022.2.4,MacIntel,60.0024001,Chrome,1440,900,,,,,1,994,,,,,,,,,,,,,,,,,146,U,triangle,1,1,,,,,,,,,,,,,,,,repeat,number,numRpt,d,0.662,Lo,,,,,,3,,,,,,,,high,11,0,11,0,1,,,,,,,,,
294952,2022-10-05_22h39.33.206,vts_reward_expectancy,2022.2.4,MacIntel,60.0024001,Chrome,1440,900,,,,,10,1004,,,,,,,,,,,,,,,,,132,W,star,1,0,,,,,,,,,,,,,,,,switch,letter,lettSwt,k,0.4988,Hi,,,,,,3,,,,,,,,high,12,0,12,0,1,,,,,,,,,
294952,2022-10-05_22h39.33.206,vts_reward_expectancy,2022.2.4,MacIntel,60.0024001,Chrome,1440,900,,,,,1,1005,,,,,,,,,,,,,,,,,167,H,triangle,1,0,,,,,,,,,,,,,,,,switch,number,numSwt,f,0.5583,Lo,,,,,,3,,,,,,,,high,13,0,13,0,1,,,,,,,,,
294952,2022-10-05_22h39.33.206,vts_reward_expectancy,2022.2.4,MacIntel,60.0024001,Chrome,1440,900,,,,,10,1015,,,,,,,,,,,,,,,,,125,D,star,1,0,,,,,,,,,,,,,,,,repeat,number,numRpt,d,0.5991,Hi,,,,,,3,,,,,,,,high,14,0,14,0,1,,,,,,,,,
294952,2022-10-05_22h39.33.206,vts_reward_expectancy,2022.2.4,MacIntel,60.0024001,Chrome,1440,900,,,,,1,1016,,,,,,,,,,,,,,,,,139,F,triangle,1,0,,,,,,,,,,,,,,,,repeat,number,numRpt,d,0.5341,Lo,,,,,,3,,,,,,,,high,15,0,15,0,1,,,,,,,,,
294952,2022-10-05_22h39.33.206,vts_reward_expectancy,2022.2.4,MacIntel,60.0024001,Chrome,1440,900,,,,,10,1026,,,,,,,,,,,,,,,,,146,Y,triangle,1,0,,,,,,,,,,,,,,,,repeat,number,numRpt,d,0.5093,Lo,,,,,,3,,,,,,,,high,16,0,16,0,1,,,,,,,,,
294952,2022-10-05_22h39.33.206,vts_reward_expectancy,2022.2.4,MacIntel,60.0024001,Chrome,1440,900,,,,,0,1026,,,,,,,,,,,,,,,,,125,D,star,1,0,,,,,,,,,,,,,,,,repeat,number,numRpt,d,0.6312,Hi,,,,,,3,,,,,,,,high,17,0,17,0,1,,,,,,,,,
294952,2022-10-05_22h39.33.206,vts_reward_expectancy,2022.2.4,MacIntel,60.0024001,Chrome,1440,900,,,,,1,1027,,,,,,,,,,,,,,,,,132,F,triangle,1,0,,,,,,,,,,,,,,,,switch,letter,lettSwt,j,0.5909,Lo,,,,,,3,,,,,,,,high,18,0,18,0,1,,,,,,,,,
294952,2022-10-05_22h39.33.206,vts_reward_expectancy,2022.2.4,MacIntel,60.0024001,Chrome,1440,900,,,,,0,1027,,,,,,,,,,,,,,,,,181,U,star,1,0,,,,,,,,,,,,,,,,repeat,letter,lettRpt,k,0.5723,Hi,,,,,,3,,,,,,,,high,19,0,19,0,1,,,,,,,,,
294952,2022-10-05_22h39.33.206,vts_reward_expectancy,2022.2.4,MacIntel,60.0024001,Chrome,1440,900,,,,,1,1028,,,,,,,,,,,,,,,,,139,W,triangle,1,0,,,,,,,,,,,,,,,,repeat,letter,lettRpt,k,0.5286,Lo,,,,,,3,,,,,,,,high,20,0,20,0,1,,,,,,,,,
294952,2022-10-05_22h39.33.206,vts_reward_expectancy,2022.2.4,MacIntel,60.0024001,Chrome,1440,900,,,,,10,1038,,,,,,,,,,,,,,,,,160,B,star,1,0,,,,,,,,,,,,,,,,repeat,letter,lettRpt,j,0.5226,Hi,,,,,,3,,,,,,,,high,21,0,21,0,1,,,,,,,,,
294952,2022-10-05_22h39.33.206,vts_reward_expectancy,2022.2.4,MacIntel,60.0024001,Chrome,1440,900,,,,,0,1038,,,,,,,,,,,,,,,,,174,S,star,1,0,,,,,,,,,,,,,,,,switch,number,numSwt,f,0.7889,Hi,,,,,,3,,,,,,,,high,22,0,22,0,1,,,,,,,,,
294952,2022-10-05_22h39.33.206,vts_reward_expectancy,2022.2.4,MacIntel,60.0024001,Chrome,1440,900,,,,,10,1048,,,,,,,,,,,,,,,,,167,H,triangle,1,0,,,,,,,,,,,,,,,,repeat,number,numRpt,f,0.7272,Lo,,,,,,3,,,,,,,,high,23,0,23,0,1,,,,,,,,,
294952,2022-10-05_22h39.33.206,vts_reward_expectancy,2022.2.4,MacIntel,60.0024001,Chrome,1440,900,,,,,0,1048,,,,,,,,,,,,,,,,,160,D,star,1,0,,,,,,,,,,,,,,,,repeat,number,numRpt,f,0.7024,Hi,,,,,,3,,,,,,,,high,24,0,24,0,1,,,,,,,,,
294952,2022-10-05_22h39.33.206,vts_reward_expectancy,2022.2.4,MacIntel,60.0024001,Chrome,1440,900,,,,,1,1049,,,,,,,,,,,,,,,,,132,H,triangle,1,0,,,,,,,,,,,,,,,,repeat,number,numRpt,d,0.5137,Lo,,,,,,3,,,,,,,,high,25,0,25,0,1,,,,,,,,,
294952,2022-10-05_22h39.33.206,vts_reward_expectancy,2022.2.4,MacIntel,60.0024001,Chrome,1440,900,,,,,1,1050,,,,,,,,,,,,,,,,,167,S,triangle,1,0,,,,,,,,,,,,,,,,switch,letter,lettSwt,k,0.5694,Lo,,,,,,3,,,,,,,,high,26,0,26,0,1,,,,,,,,,
294952,2022-10-05_22h39.33.206,vts_reward_expectancy,2022.2.4,MacIntel,60.0024001,Chrome,1440,900,,,,,10,1060,,,,,,,,,,,,,,,,,139,U,star,1,0,,,,,,,,,,,,,,,,repeat,letter,lettRpt,k,0.4969,Hi,,,,,,3,,,,,,,,high,27,0,27,0,1,,,,,,,,,
294952,2022-10-05_22h39.33.206,vts_reward_expectancy,2022.2.4,MacIntel,60.0024001,Chrome,1440,900,,,,,10,1070,,,,,,,,,,,,,,,,,146,W,star,1,0,,,,,,,,,,,,,,,,repeat,letter,lettRpt,k,0.5312,Hi,,,,,,3,,,,,,,,high,28,0,28,0,1,,,,,,,,,
294952,2022-10-05_22h39.33.206,vts_reward_expectancy,2022.2.4,MacIntel,60.0024001,Chrome,1440,900,,,,,10,1080,,,,,,,,,,,,,,,,,125,B,triangle,1,0,,,,,,,,,,,,,,,,repeat,letter,lettRpt,j,0.611,Lo,,,,,,3,,,,,,,,high,29,0,29,0,1,,,,,,,,,
294952,2022-10-05_22h39.33.206,vts_reward_expectancy,2022.2.4,MacIntel,60.0024001,Chrome,1440,900,,,,,1,1081,,,,,,,,,,,,,,,,,174,Y,triangle,1,0,,,,,,,,,,,,,,,,switch,number,numSwt,f,0.682,Lo,,,,,,3,,,,,,,,high,30,0,30,0,1,,,,,,,,,
294952,2022-10-05_22h39.33.206,vts_reward_expectancy,2022.2.4,MacIntel,60.0024001,Chrome,1440,900,,,,,10,1091,,,,,,,,,,,,,,,,,181,F,star,1,0,,,,,,,,,,,,,,,,repeat,number,numRpt,f,0.5469,Hi,,,,,,3,,,,,,,,high,31,0,31,0,1,,,,,,,,,
294952,2022-10-05_22h39.33.206,vts_reward_expectancy,2022.2.4,MacIntel,60.0024001,Chrome,1440,900,,,,,0,1091,,,,,,,,,,,,,,,,,167,W,circle,1,0,,,,,,,,,,,,,,,,repeat,number,numRpt,f,1.0082,Hi,,,,,,4,,,,,,space,1.1166,low,0,0,0,0,1,,,,,,,,,
294952,2022-10-05_22h39.33.206,vts_reward_expectancy,2022.2.4,MacIntel,60.0024001,Chrome,1440,900,,,,,10,1101,,,,,,,,,,,,,,,,,174,B,hexagon,1,0,,,,,,,,,,,,,,,,switch,letter,lettSwt,j,0.6637,Lo,,,,,,4,,,,,,,,low,1,0,1,0,1,,,,,,,,,
294952,2022-10-05_22h39.33.206,vts_reward_expectancy,2022.2.4,MacIntel,60.0024001,Chrome,1440,900,,,,,0,1101,,,,,,,,,,,,,,,,,146,D,circle,1,0,,,,,,,,,,,,,,,,switch,number,numSwt,d,0.6081,Hi,,,,,,4,,,,,,,,low,2,0,2,0,1,,,,,,,,,
294952,2022-10-05_22h39.33.206,vts_reward_expectancy,2022.2.4,MacIntel,60.0024001,Chrome,1440,900,,,,,10,1111,,,,,,,,,,,,,,,,,139,Y,hexagon,1,0,,,,,,,,,,,,,,,,repeat,number,numRpt,d,0.5471,Lo,,,,,,4,,,,,,,,low,3,0,3,0,1,,,,,,,,,
294952,2022-10-05_22h39.33.206,vts_reward_expectancy,2022.2.4,MacIntel,60.0024001,Chrome,1440,900,,,,,0,1111,,,,,,,,,,,,,,,,,160,U,hexagon,0,0,,,,,,,,,,,,,,,,switch,letter,NA,j,0.4958,Lo,,,,,,4,,,,,,,,low,4,0,4,0,1,,,,,,,,,
294952,2022-10-05_22h39.33.206,vts_reward_expectancy,2022.2.4,MacIntel,60.0024001,Chrome,1440,900,,,,,1,1112,,,,,,,,,,,,,,,,,132,S,circle,1,1,,,,,,,,,,,,,,,,repeat,letter,lettRpt,k,0.4811,Hi,,,,,,4,,,,,,,,low,5,0,5,0,1,,,,,,,,,
294952,2022-10-05_22h39.33.206,vts_reward_expectancy,2022.2.4,MacIntel,60.0024001,Chrome,1440,900,,,,,10,1122,,,,,,,,,,,,,,,,,181,F,circle,1,0,,,,,,,,,,,,,,,,repeat,letter,lettRpt,j,0.4827,Hi,,,,,,4,,,,,,,,low,6,0,6,0,1,,,,,,,,,
294952,2022-10-05_22h39.33.206,vts_reward_expectancy,2022.2.4,MacIntel,60.0024001,Chrome,1440,900,,,,,1,1123,,,,,,,,,,,,,,,,,125,H,hexagon,1,0,,,,,,,,,,,,,,,,repeat,letter,lettRpt,j,0.603,Lo,,,,,,4,,,,,,,,low,7,0,7,0,1,,,,,,,,,
294952,2022-10-05_22h39.33.206,vts_reward_expectancy,2022.2.4,MacIntel,60.0024001,Chrome,1440,900,,,,,10,1133,,,,,,,,,,,,,,,,,167,W,hexagon,1,0,,,,,,,,,,,,,,,,repeat,letter,lettRpt,k,0.5333,Lo,,,,,,4,,,,,,,,low,8,0,8,0,1,,,,,,,,,
294952,2022-10-05_22h39.33.206,vts_reward_expectancy,2022.2.4,MacIntel,60.0024001,Chrome,1440,900,,,,,0,1133,,,,,,,,,,,,,,,,,174,B,circle,1,0,,,,,,,,,,,,,,,,switch,number,numSwt,f,0.6159,Hi,,,,,,4,,,,,,,,low,9,0,9,0,1,,,,,,,,,
294952,2022-10-05_22h39.33.206,vts_reward_expectancy,2022.2.4,MacIntel,60.0024001,Chrome,1440,900,,,,,0,1133,,,,,,,,,,,,,,,,,146,D,circle,1,0,,,,,,,,,,,,,,,,repeat,number,numRpt,d,0.5809,Hi,,,,,,4,,,,,,,,low,10,0,10,0,1,,,,,,,,,
294952,2022-10-05_22h39.33.206,vts_reward_expectancy,2022.2.4,MacIntel,60.0024001,Chrome,1440,900,,,,,10,1143,,,,,,,,,,,,,,,,,139,Y,hexagon,1,0,,,,,,,,,,,,,,,,repeat,number,numRpt,d,0.5937,Lo,,,,,,4,,,,,,,,low,11,0,11,0,1,,,,,,,,,
294952,2022-10-05_22h39.33.206,vts_reward_expectancy,2022.2.4,MacIntel,60.0024001,Chrome,1440,900,,,,,0,1143,,,,,,,,,,,,,,,,,160,U,circle,1,0,,,,,,,,,,,,,,,,switch,letter,lettSwt,k,0.5633,Hi,,,,,,4,,,,,,,,low,12,0,12,0,1,,,,,,,,,
294952,2022-10-05_22h39.33.206,vts_reward_expectancy,2022.2.4,MacIntel,60.0024001,Chrome,1440,900,,,,,1,1144,,,,,,,,,,,,,,,,,132,S,hexagon,1,0,,,,,,,,,,,,,,,,repeat,letter,lettRpt,k,0.7137,Lo,,,,,,4,,,,,,,,low,13,0,13,0,1,,,,,,,,,
294952,2022-10-05_22h39.33.206,vts_reward_expectancy,2022.2.4,MacIntel,60.0024001,Chrome,1440,900,,,,,0,1144,,,,,,,,,,,,,,,,,181,F,circle,1,0,,,,,,,,,,,,,,,,repeat,letter,lettRpt,j,0.6981,Hi,,,,,,4,,,,,,,,low,14,0,14,0,1,,,,,,,,,
294952,2022-10-05_22h39.33.206,vts_reward_expectancy,2022.2.4,MacIntel,60.0024001,Chrome,1440,900,,,,,10,1154,,,,,,,,,,,,,,,,,125,H,hexagon,1,0,,,,,,,,,,,,,,,,switch,number,numSwt,d,0.4943,Lo,,,,,,4,,,,,,,,low,15,0,15,0,1,,,,,,,,,
294952,2022-10-05_22h39.33.206,vts_reward_expectancy,2022.2.4,MacIntel,60.0024001,Chrome,1440,900,,,,,1,1155,,,,,,,,,,,,,,,,,167,S,circle,1,0,,,,,,,,,,,,,,,,switch,letter,lettSwt,k,0.5248,Hi,,,,,,4,,,,,,,,low,16,0,16,0,1,,,,,,,,,
294952,2022-10-05_22h39.33.206,vts_reward_expectancy,2022.2.4,MacIntel,60.0024001,Chrome,1440,900,,,,,1,1156,,,,,,,,,,,,,,,,,160,H,hexagon,1,0,,,,,,,,,,,,,,,,switch,number,numSwt,f,0.4776,Lo,,,,,,4,,,,,,,,low,17,0,17,0,1,,,,,,,,,
294952,2022-10-05_22h39.33.206,vts_reward_expectancy,2022.2.4,MacIntel,60.0024001,Chrome,1440,900,,,,,10,1166,,,,,,,,,,,,,,,,,174,B,hexagon,1,0,,,,,,,,,,,,,,,,switch,letter,lettSwt,j,0.6816,Lo,,,,,,4,,,,,,,,low,18,0,18,0,1,,,,,,,,,
294952,2022-10-05_22h39.33.206,vts_reward_expectancy,2022.2.4,MacIntel,60.0024001,Chrome,1440,900,,,,,0,1166,,,,,,,,,,,,,,,,,132,F,circle,1,0,,,,,,,,,,,,,,,,switch,number,numSwt,d,0.5988,Hi,,,,,,4,,,,,,,,low,19,0,19,0,1,,,,,,,,,
294952,2022-10-05_22h39.33.206,vts_reward_expectancy,2022.2.4,MacIntel,60.0024001,Chrome,1440,900,,,,,1,1167,,,,,,,,,,,,,,,,,181,Y,hexagon,1,0,,,,,,,,,,,,,,,,repeat,number,numRpt,f,0.6646,Lo,,,,,,4,,,,,,,,low,20,0,20,0,1,,,,,,,,,
294952,2022-10-05_22h39.33.206,vts_reward_expectancy,2022.2.4,MacIntel,60.0024001,Chrome,1440,900,,,,,10,1177,,,,,,,,,,,,,,,,,125,D,circle,1,0,,,,,,,,,,,,,,,,switch,letter,lettSwt,j,0.5327,Hi,,,,,,4,,,,,,,,low,21,0,21,0,1,,,,,,,,,
294952,2022-10-05_22h39.33.206,vts_reward_expectancy,2022.2.4,MacIntel,60.0024001,Chrome,1440,900,,,,,0,1177,,,,,,,,,,,,,,,,,146,W,circle,1,0,,,,,,,,,,,,,,,,switch,number,numSwt,d,0.6325,Hi,,,,,,4,,,,,,,,low,22,0,22,0,1,,,,,,,,,
294952,2022-10-05_22h39.33.206,vts_reward_expectancy,2022.2.4,MacIntel,60.0024001,Chrome,1440,900,,,,,1,1178,,,,,,,,,,,,,,,,,139,U,hexagon,1,0,,,,,,,,,,,,,,,,repeat,number,numRpt,d,0.6301,Lo,,,,,,4,,,,,,,,low,23,0,23,0,1,,,,,,,,,
294952,2022-10-05_22h39.33.206,vts_reward_expectancy,2022.2.4,MacIntel,60.0024001,Chrome,1440,900,,,,,10,1188,,,,,,,,,,,,,,,,,132,S,circle,1,0,,,,,,,,,,,,,,,,repeat,number,numRpt,d,0.5619,Hi,,,,,,4,,,,,,,,low,24,0,24,0,1,,,,,,,,,
294952,2022-10-05_22h39.33.206,vts_reward_expectancy,2022.2.4,MacIntel,60.0024001,Chrome,1440,900,,,,,10,1198,,,,,,,,,,,,,,,,,167,H,hexagon,1,0,,,,,,,,,,,,,,,,repeat,number,numRpt,f,0.6455,Lo,,,,,,4,,,,,,,,low,25,0,25,0,1,,,,,,,,,
294952,2022-10-05_22h39.33.206,vts_reward_expectancy,2022.2.4,MacIntel,60.0024001,Chrome,1440,900,,,,,1,1199,,,,,,,,,,,,,,,,,139,D,hexagon,1,0,,,,,,,,,,,,,,,,switch,letter,lettSwt,j,0.625,Lo,,,,,,4,,,,,,,,low,26,0,26,0,1,,,,,,,,,
294952,2022-10-05_22h39.33.206,vts_reward_expectancy,2022.2.4,MacIntel,60.0024001,Chrome,1440,900,,,,,0,1199,,,,,,,,,,,,,,,,,160,U,circle,1,0,,,,,,,,,,,,,,,,switch,number,numSwt,f,0.8817,Hi,,,,,,4,,,,,,,,low,27,0,27,0,1,,,,,,,,,
294952,2022-10-05_22h39.33.206,vts_reward_expectancy,2022.2.4,MacIntel,60.0024001,Chrome,1440,900,,,,,10,1209,,,,,,,,,,,,,,,,,181,B,hexagon,1,0,,,,,,,,,,,,,,,,repeat,number,numRpt,f,1.2429,Lo,,,,,,4,,,,,,,,low,28,0,28,0,1,,,,,,,,,
294952,2022-10-05_22h39.33.206,vts_reward_expectancy,2022.2.4,MacIntel,60.0024001,Chrome,1440,900,,,,,0,1209,,,,,,,,,,,,,,,,,146,F,circle,1,0,,,,,,,,,,,,,,,,switch,letter,lettSwt,j,2.1127,Hi,,,,,,4,,,,,,,,low,29,0,29,0,1,,,,,,,,,
294952,2022-10-05_22h39.33.206,vts_reward_expectancy,2022.2.4,MacIntel,60.0024001,Chrome,1440,900,,,,,0,1209,,,,,,,,,,,,,,,,,174,Y,circle,1,0,,,,,,,,,,,,,,,,repeat,letter,lettRpt,k,0.8298,Hi,,,,,,4,,,,,,,,low,30,0,30,0,1,,,,,,,,,
294952,2022-10-05_22h39.33.206,vts_reward_expectancy,2022.2.4,MacIntel,60.0024001,Chrome,1440,900,,,,,10,1219,,,,,,,,,,,,,,,,,125,W,hexagon,1,0,,,,,,,,,,,,,,,,repeat,letter,lettRpt,k,0.5129,Lo,,,,,,4,,,,,,,,low,31,0,31,0,1,,,,,,,,,
294952,2022-10-05_22h39.33.206,vts_reward_expectancy,2022.2.4,MacIntel,60.0024001,Chrome,1440,900,,,,,0,1219,,,,,,,,,,,,,,,,,160,D,circle,0,0,,,,,,,,,,,,,,,,switch,number,NA,d,0.8147,Lo,,,,,,5,,,,,,space,0.9786,low,0,0,0,0,1,,,,,,,,,
294952,2022-10-05_22h39.33.206,vts_reward_expectancy,2022.2.4,MacIntel,60.0024001,Chrome,1440,900,,,,,1,1220,,,,,,,,,,,,,,,,,139,U,hexagon,1,1,,,,,,,,,,,,,,,,repeat,number,numRpt,d,0.3488,Lo,,,,,,5,,,,,,,,low,1,0,1,0,1,,,,,,,,,
294952,2022-10-05_22h39.33.206,vts_reward_expectancy,2022.2.4,MacIntel,60.0024001,Chrome,1440,900,,,,,10,1230,,,,,,,,,,,,,,,,,146,F,circle,1,0,,,,,,,,,,,,,,,,switch,letter,lettSwt,j,0.4642,Hi,,,,,,5,,,,,,,,low,2,0,2,0,1,,,,,,,,,
294952,2022-10-05_22h39.33.206,vts_reward_expectancy,2022.2.4,MacIntel,60.0024001,Chrome,1440,900,,,,,10,1240,,,,,,,,,,,,,,,,,181,Y,hexagon,1,0,,,,,,,,,,,,,,,,repeat,letter,lettRpt,k,0.4823,Lo,,,,,,5,,,,,,,,low,3,0,3,0,1,,,,,,,,,
294952,2022-10-05_22h39.33.206,vts_reward_expectancy,2022.2.4,MacIntel,60.0024001,Chrome,1440,900,,,,,10,1250,,,,,,,,,,,,,,,,,125,H,circle,1,0,,,,,,,,,,,,,,,,repeat,letter,lettRpt,j,0.4835,Hi,,,,,,5,,,,,,,,low,4,0,4,0,1,,,,,,,,,
294952,2022-10-05_22h39.33.206,vts_reward_expectancy,2022.2.4,MacIntel,60.0024001,Chrome,1440,900,,,,,1,1251,,,,,,,,,,,,,,,,,167,B,hexagon,1,0,,,,,,,,,,,,,,,,repeat,letter,lettRpt,j,0.4825,Lo,,,,,,5,,,,,,,,low,5,0,5,0,1,,,,,,,,,
294952,2022-10-05_22h39.33.206,vts_reward_expectancy,2022.2.4,MacIntel,60.0024001,Chrome,1440,900,,,,,0,1251,,,,,,,,,,,,,,,,,132,S,circle,1,0,,,,,,,,,,,,,,,,repeat,letter,lettRpt,k,0.6778,Hi,,,,,,5,,,,,,,,low,6,0,6,0,1,,,,,,,,,
294952,2022-10-05_22h39.33.206,vts_reward_expectancy,2022.2.4,MacIntel,60.0024001,Chrome,1440,900,,,,,0,1251,,,,,,,,,,,,,,,,,174,W,hexagon,0,0,,,,,,,,,,,,,,,,switch,number,NA,d,0.6646,Hi,,,,,,5,,,,,,,,low,7,0,7,0,1,,,,,,,,,
294952,2022-10-05_22h39.33.206,vts_reward_expectancy,2022.2.4,MacIntel,60.0024001,Chrome,1440,900,,,,,1,1252,,,,,,,,,,,,,,,,,160,D,hexagon,1,1,,,,,,,,,,,,,,,,repeat,number,numRpt,f,0.5312,Lo,,,,,,5,,,,,,,,low,8,0,8,0,1,,,,,,,,,
294952,2022-10-05_22h39.33.206,vts_reward_expectancy,2022.2.4,MacIntel,60.0024001,Chrome,1440,900,,,,,0,1252,,,,,,,,,,,,,,,,,139,U,circle,1,0,,,,,,,,,,,,,,,,switch,letter,lettSwt,k,0.631,Hi,,,,,,5,,,,,,,,low,9,0,9,0,1,,,,,,,,,
294952,2022-10-05_22h39.33.206,vts_reward_expectancy,2022.2.4,MacIntel,60.0024001,Chrome,1440,900,,,,,0,1252,,,,,,,,,,,,,,,,,146,F,circle,1,0,,,,,,,,,,,,,,,,switch,number,numSwt,d,0.7475,Hi,,,,,,5,,,,,,,,low,10,0,10,0,1,,,,,,,,,
294952,2022-10-05_22h39.33.206,vts_reward_expectancy,2022.2.4,MacIntel,60.0024001,Chrome,1440,900,,,,,1,1253,,,,,,,,,,,,,,,,,181,Y,hexagon,1,0,,,,,,,,,,,,,,,,switch,letter,lettSwt,k,0.7148,Lo,,,,,,5,,,,,,,,low,11,0,11,0,1,,,,,,,,,
294952,2022-10-05_22h39.33.206,vts_reward_expectancy,2022.2.4,MacIntel,60.0024001,Chrome,1440,900,,,,,10,1263,,,,,,,,,,,,,,,,,125,H,circle,1,0,,,,,,,,,,,,,,,,repeat,letter,lettRpt,j,0.4824,Hi,,,,,,5,,,,,,,,low,12,0,12,0,1,,,,,,,,,
294952,2022-10-05_22h39.33.206,vts_reward_expectancy,2022.2.4,MacIntel,60.0024001,Chrome,1440,900,,,,,0,1263,,,,,,,,,,,,,,,,,167,B,hexagon,0,0,,,,,,,,,,,,,,,,switch,number,NA,d,0.6342,Hi,,,,,,5,,,,,,,,low,13,0,13,0,1,,,,,,,,,
294952,2022-10-05_22h39.33.206,vts_reward_expectancy,2022.2.4,MacIntel,60.0024001,Chrome,1440,900,,,,,0,1263,,,,,,,,,,,,,,,,,132,S,circle,0,1,,,,,,,,,,,,,,,,repeat,number,NA,f,0.4596,Hi,,,,,,5,,,,,,,,low,14,0,14,0,1,,,,,,,,,
294952,2022-10-05_22h39.33.206,vts_reward_expectancy,2022.2.4,MacIntel,60.0024001,Chrome,1440,900,,,,,1,1264,,,,,,,,,,,,,,,,,174,W,hexagon,1,1,,,,,,,,,,,,,,,,repeat,number,numRpt,f,0.8968,Lo,,,,,,5,,,,,,,,low,15,0,15,0,1,,,,,,,,,
294952,2022-10-05_22h39.33.206,vts_reward_expectancy,2022.2.4,MacIntel,60.0024001,Chrome,1440,900,,,,,10,1274,,,,,,,,,,,,,,,,,181,B,hexagon,1,0,,,,,,,,,,,,,,,,switch,letter,lettSwt,j,0.5317,Lo,,,,,,5,,,,,,,,low,16,0,16,0,1,,,,,,,,,
294952,2022-10-05_22h39.33.206,vts_reward_expectancy,2022.2.4,MacIntel,60.0024001,Chrome,1440,900,,,,,0,1274,,,,,,,,,,,,,,,,,146,U,circle,1,0,,,,,,,,,,,,,,,,switch,number,numSwt,d,1.1827,Hi,,,,,,5,,,,,,,,low,17,0,17,0,1,,,,,,,,,
294952,2022-10-05_22h39.33.206,vts_reward_expectancy,2022.2.4,MacIntel,60.0024001,Chrome,1440,900,,,,,0,1274,,,,,,,,,,,,,,,,,174,W,circle,1,0,,,,,,,,,,,,,,,,repeat,number,numRpt,f,0.7855,Hi,,,,,,5,,,,,,,,low,18,0,18,0,1,,,,,,,,,
294952,2022-10-05_22h39.33.206,vts_reward_expectancy,2022.2.4,MacIntel,60.0024001,Chrome,1440,900,,,,,10,1284,,,,,,,,,,,,,,,,,139,H,hexagon,1,0,,,,,,,,,,,,,,,,repeat,number,numRpt,d,1.2315,Lo,,,,,,5,,,,,,,,low,19,0,19,0,1,,,,,,,,,
294952,2022-10-05_22h39.33.206,vts_reward_expectancy,2022.2.4,MacIntel,60.0024001,Chrome,1440,900,,,,,1,1285,,,,,,,,,,,,,,,,,167,Y,hexagon,1,0,,,,,,,,,,,,,,,,repeat,number,numRpt,f,1.2261,Lo,,,,,,5,,,,,,,,low,20,0,20,0,1,,,,,,,,,
294952,2022-10-05_22h39.33.206,vts_reward_expectancy,2022.2.4,MacIntel,60.0024001,Chrome,1440,900,,,,,0,1285,,,,,,,,,,,,,,,,,132,D,circle,1,0,,,,,,,,,,,,,,,,repeat,number,numRpt,d,0.6285,Hi,,,,,,5,,,,,,,,low,21,0,21,0,1,,,,,,,,,
294952,2022-10-05_22h39.33.206,vts_reward_expectancy,2022.2.4,MacIntel,60.0024001,Chrome,1440,900,,,,,0,1285,,,,,,,,,,,,,,,,,160,F,circle,1,0,,,,,,,,,,,,,,,,repeat,number,numRpt,f,0.8922,Hi,,,,,,5,,,,,,,,low,22,0,22,0,1,,,,,,,,,
294952,2022-10-05_22h39.33.206,vts_reward_expectancy,2022.2.4,MacIntel,60.0024001,Chrome,1440,900,,,,,1,1286,,,,,,,,,,,,,,,,,125,S,hexagon,1,0,,,,,,,,,,,,,,,,repeat,number,numRpt,d,0.7789,Lo,,,,,,5,,,,,,,,low,23,0,23,0,1,,,,,,,,,
294952,2022-10-05_22h39.33.206,vts_reward_expectancy,2022.2.4,MacIntel,60.0024001,Chrome,1440,900,,,,,1,1287,,,,,,,,,,,,,,,,,139,B,hexagon,1,0,,,,,,,,,,,,,,,,repeat,number,numRpt,d,0.5487,Lo,,,,,,5,,,,,,,,low,24,0,24,0,1,,,,,,,,,
294952,2022-10-05_22h39.33.206,vts_reward_expectancy,2022.2.4,MacIntel,60.0024001,Chrome,1440,900,,,,,0,1287,,,,,,,,,,,,,,,,,125,Y,circle,1,0,,,,,,,,,,,,,,,,repeat,number,numRpt,d,0.6303,Hi,,,,,,5,,,,,,,,low,25,0,25,0,1,,,,,,,,,
294952,2022-10-05_22h39.33.206,vts_reward_expectancy,2022.2.4,MacIntel,60.0024001,Chrome,1440,900,,,,,10,1297,,,,,,,,,,,,,,,,,146,H,hexagon,1,0,,,,,,,,,,,,,,,,repeat,number,numRpt,d,0.7534,Lo,,,,,,5,,,,,,,,low,26,0,26,0,1,,,,,,,,,
294952,2022-10-05_22h39.33.206,vts_reward_expectancy,2022.2.4,MacIntel,60.0024001,Chrome,1440,900,,,,,0,1297,,,,,,,,,,,,,,,,,174,W,circle,1,0,,,,,,,,,,,,,,,,repeat,number,numRpt,f,0.827,Hi,,,,,,5,,,,,,,,low,27,0,27,0,1,,,,,,,,,
294952,2022-10-05_22h39.33.206,vts_reward_expectancy,2022.2.4,MacIntel,60.0024001,Chrome,1440,900,,,,,1,1298,,,,,,,,,,,,,,,,,132,F,hexagon,1,0,,,,,,,,,,,,,,,,repeat,number,numRpt,d,1.7764,Lo,,,,,,5,,,,,,,,low,28,0,28,0,1,,,,,,,,,
294952,2022-10-05_22h39.33.206,vts_reward_expectancy,2022.2.4,MacIntel,60.0024001,Chrome,1440,900,,,,,0,1298,,,,,,,,,,,,,,,,,167,D,circle,1,0,,,,,,,,,,,,,,,,repeat,number,numRpt,f,1.6594,Hi,,,,,,5,,,,,,,,low,29,0,29,0,1,,,,,,,,,
294952,2022-10-05_22h39.33.206,vts_reward_expectancy,2022.2.4,MacIntel,60.0024001,Chrome,1440,900,,,,,10,1308,,,,,,,,,,,,,,,,,160,S,hexagon,1,0,,,,,,,,,,,,,,,,repeat,number,numRpt,f,1.2412,Lo,,,,,,5,,,,,,,,low,30,0,30,0,1,,,,,,,,,
294952,2022-10-05_22h39.33.206,vts_reward_expectancy,2022.2.4,MacIntel,60.0024001,Chrome,1440,900,,,,,0,1308,,,,,,,,,,,,,,,,,181,U,circle,1,0,,,,,,,,,,,,,,,,repeat,number,numRpt,f,0.7305,Hi,,,,,,5,,,,,,,,low,31,0,31,0,1,,,,,,,,,
294952,2022-10-05_22h39.33.206,vts_reward_expectancy,2022.2.4,MacIntel,60.0024001,Chrome,1440,900,,,,,,,,,,,,,,,,,,,,,,,,,,,,,,,,,,,,,,,,,,,,,,,,,,,,,,6,,,,,,,,,,,,,,"Choose between two trials, one involving letters and one involving numbers",2,everything,3,2,,2,1440,900
