participant,date,expName,psychopyVersion,OS,frameRate,browser,xResolution,yResolution,key_resp.keys,key_resp.rt,training_resp.keys,training_resp.rt,points_trial,points_cumul,trainBlock,training.thisRepN,training.thisTrialN,training.thisN,training.thisIndex,training.ran,LTriangleOpac,LCircleOpac,LHexagonOpac,LStarOpac,RTriangleOpac,RCircleOpac,RHexagonOpac,RStarOpac,LShape_ID,RShape_ID,curr_topStim,curr_bottStim,curr_shape,acc,E1,target_resp_prac1.keys,target_resp_prac1.rt,pracBlock,task1_prac_trials.thisRepN,task1_prac_trials.thisTrialN,task1_prac_trials.thisN,task1_prac_trials.thisIndex,task1_prac_trials.ran,target_resp_prac2.keys,target_resp_prac2.rt,task2_praac_trials.thisRepN,task2_praac_trials.thisTrialN,task2_praac_trials.thisN,task2_praac_trials.thisIndex,task2_praac_trials.ran,alt,task,condition,target_resp.keys,target_resp.rt,rewCond,vts_practice_trials.thisRepN,vts_practice_trials.thisTrialN,vts_practice_trials.thisN,vts_practice_trials.thisIndex,vts_practice_trials.ran,blockNum,trials_norew.thisRepN,trials_norew.thisTrialN,trials_norew.thisN,trials_norew.thisIndex,trials_norew.ran,key_resp_2.keys,key_resp_2.rt,rewExpect,trials_rew.thisRepN,trials_rew.thisTrialN,trials_rew.thisN,trials_rew.thisIndex,trials_rew.ran,Q1,Q2,Q2_text,Q3,Q4,Q5_text,Q5,xRes,yRes
293404,2022-09-21_10h22.44.895,vts_reward_expectancy,2022.2.4,Win32,59.67655308,Chrome,1536,1024,,,,,,,,,,,,,,,,,,,,,,,,,,,,,,,,,,,,,,,,,,,,,,,,,,,,,,,,,,,,,,,,,,,,,,,,,,,,
293404,2022-09-21_10h22.44.895,vts_reward_expectancy,2022.2.4,Win32,59.67655308,Chrome,1536,1024,space,18.6893,,,,,,,,,,,,,,,,,,,,,,,,,,,,,,,,,,,,,,,,,,,,,,,,,,,,,,,,,,,,,,,,,,,,,,,,,,
293404,2022-09-21_10h22.44.895,vts_reward_expectancy,2022.2.4,Win32,59.67655308,Chrome,1536,1024,,,,,,,,,,,,,,,,,,,,,,,,,,,,,,,,,,,,,,,,,,,,,,,,,,,,,,,,,,,,,,,,,,,,,,,,,,,,
293404,2022-09-21_10h22.44.895,vts_reward_expectancy,2022.2.4,Win32,59.67655308,Chrome,1536,1024,,,l,3.1101,10,10,0,0,0,0,8,1,0,0,1,0,0,0,0,1,hexagon,star,,,,,,,,,,,,,,,,,,,,,,,,,,,,,,,,,,,,,,,,,,,,,,,,,,,,,,
293404,2022-09-21_10h22.44.895,vts_reward_expectancy,2022.2.4,Win32,59.67655308,Chrome,1536,1024,,,l,1.1266,10,20,0,0,1,1,7,1,0,0,1,0,0,1,0,0,hexagon,circle,,,,,,,,,,,,,,,,,,,,,,,,,,,,,,,,,,,,,,,,,,,,,,,,,,,,,,
293404,2022-09-21_10h22.44.895,vts_reward_expectancy,2022.2.4,Win32,59.67655308,Chrome,1536,1024,,,l,1.7382,10,30,0,0,2,2,5,1,0,1,0,0,0,0,0,1,circle,star,,,,,,,,,,,,,,,,,,,,,,,,,,,,,,,,,,,,,,,,,,,,,,,,,,,,,,
293404,2022-09-21_10h22.44.895,vts_reward_expectancy,2022.2.4,Win32,59.67655308,Chrome,1536,1024,,,a,1.0169,1,31,0,0,3,3,1,1,1,0,0,0,0,0,1,0,triangle,hexagon,,,,,,,,,,,,,,,,,,,,,,,,,,,,,,,,,,,,,,,,,,,,,,,,,,,,,,
293404,2022-09-21_10h22.44.895,vts_reward_expectancy,2022.2.4,Win32,59.67655308,Chrome,1536,1024,,,l,1.3181,10,41,0,0,4,4,2,1,1,0,0,0,0,0,0,1,triangle,star,,,,,,,,,,,,,,,,,,,,,,,,,,,,,,,,,,,,,,,,,,,,,,,,,,,,,,
293404,2022-09-21_10h22.44.895,vts_reward_expectancy,2022.2.4,Win32,59.67655308,Chrome,1536,1024,,,l,1.2146,10,51,0,0,5,5,0,1,1,0,0,0,0,1,0,0,triangle,circle,,,,,,,,,,,,,,,,,,,,,,,,,,,,,,,,,,,,,,,,,,,,,,,,,,,,,,
293404,2022-09-21_10h22.44.895,vts_reward_expectancy,2022.2.4,Win32,59.67655308,Chrome,1536,1024,,,a,1.0659,1,52,0,0,6,6,11,1,0,0,0,1,0,0,1,0,star,hexagon,,,,,,,,,,,,,,,,,,,,,,,,,,,,,,,,,,,,,,,,,,,,,,,,,,,,,,
293404,2022-09-21_10h22.44.895,vts_reward_expectancy,2022.2.4,Win32,59.67655308,Chrome,1536,1024,,,l,13.0196,1,53,0,0,7,7,3,1,0,1,0,0,1,0,0,0,circle,triangle,,,,,,,,,,,,,,,,,,,,,,,,,,,,,,,,,,,,,,,,,,,,,,,,,,,,,,
293404,2022-09-21_10h22.44.895,vts_reward_expectancy,2022.2.4,Win32,59.67655308,Chrome,1536,1024,,,a,1.185,10,63,0,0,8,8,4,1,0,1,0,0,0,0,1,0,circle,hexagon,,,,,,,,,,,,,,,,,,,,,,,,,,,,,,,,,,,,,,,,,,,,,,,,,,,,,,
293404,2022-09-21_10h22.44.895,vts_reward_expectancy,2022.2.4,Win32,59.67655308,Chrome,1536,1024,,,a,1.8346,10,73,0,0,9,9,9,1,0,0,0,1,1,0,0,0,star,triangle,,,,,,,,,,,,,,,,,,,,,,,,,,,,,,,,,,,,,,,,,,,,,,,,,,,,,,
293404,2022-09-21_10h22.44.895,vts_reward_expectancy,2022.2.4,Win32,59.67655308,Chrome,1536,1024,,,l,0.9346,1,74,0,0,10,10,6,1,0,0,1,0,1,0,0,0,hexagon,triangle,,,,,,,,,,,,,,,,,,,,,,,,,,,,,,,,,,,,,,,,,,,,,,,,,,,,,,
293404,2022-09-21_10h22.44.895,vts_reward_expectancy,2022.2.4,Win32,59.67655308,Chrome,1536,1024,,,l,4.7029,10,84,0,0,11,11,10,1,0,0,0,1,0,1,0,0,star ,circle,,,,,,,,,,,,,,,,,,,,,,,,,,,,,,,,,,,,,,,,,,,,,,,,,,,,,,
293404,2022-09-21_10h22.44.895,vts_reward_expectancy,2022.2.4,Win32,59.67655308,Chrome,1536,1024,,,a,0.9868,10,94,0,1,0,12,11,1,0,0,0,1,0,0,1,0,star,hexagon,,,,,,,,,,,,,,,,,,,,,,,,,,,,,,,,,,,,,,,,,,,,,,,,,,,,,,
293404,2022-09-21_10h22.44.895,vts_reward_expectancy,2022.2.4,Win32,59.67655308,Chrome,1536,1024,,,a,2.1333,10,104,0,1,1,13,9,1,0,0,0,1,1,0,0,0,star,triangle,,,,,,,,,,,,,,,,,,,,,,,,,,,,,,,,,,,,,,,,,,,,,,,,,,,,,,
293404,2022-09-21_10h22.44.895,vts_reward_expectancy,2022.2.4,Win32,59.67655308,Chrome,1536,1024,,,l,1.9837,1,105,0,1,2,14,5,1,0,1,0,0,0,0,0,1,circle,star,,,,,,,,,,,,,,,,,,,,,,,,,,,,,,,,,,,,,,,,,,,,,,,,,,,,,,
293404,2022-09-21_10h22.44.895,vts_reward_expectancy,2022.2.4,Win32,59.67655308,Chrome,1536,1024,,,a,0.9177,1,106,0,1,3,15,1,1,1,0,0,0,0,0,1,0,triangle,hexagon,,,,,,,,,,,,,,,,,,,,,,,,,,,,,,,,,,,,,,,,,,,,,,,,,,,,,,
293404,2022-09-21_10h22.44.895,vts_reward_expectancy,2022.2.4,Win32,59.67655308,Chrome,1536,1024,,,l,0.8521,10,116,0,1,4,16,8,1,0,0,1,0,0,0,0,1,hexagon,star,,,,,,,,,,,,,,,,,,,,,,,,,,,,,,,,,,,,,,,,,,,,,,,,,,,,,,
293404,2022-09-21_10h22.44.895,vts_reward_expectancy,2022.2.4,Win32,59.67655308,Chrome,1536,1024,,,l,1.4017,10,126,0,1,5,17,2,1,1,0,0,0,0,0,0,1,triangle,star,,,,,,,,,,,,,,,,,,,,,,,,,,,,,,,,,,,,,,,,,,,,,,,,,,,,,,
293404,2022-09-21_10h22.44.895,vts_reward_expectancy,2022.2.4,Win32,59.67655308,Chrome,1536,1024,,,a,1.352,10,136,0,1,6,18,10,1,0,0,0,1,0,1,0,0,star ,circle,,,,,,,,,,,,,,,,,,,,,,,,,,,,,,,,,,,,,,,,,,,,,,,,,,,,,,
293404,2022-09-21_10h22.44.895,vts_reward_expectancy,2022.2.4,Win32,59.67655308,Chrome,1536,1024,,,l,0.6989,1,137,0,1,7,19,6,1,0,0,1,0,1,0,0,0,hexagon,triangle,,,,,,,,,,,,,,,,,,,,,,,,,,,,,,,,,,,,,,,,,,,,,,,,,,,,,,
293404,2022-09-21_10h22.44.895,vts_reward_expectancy,2022.2.4,Win32,59.67655308,Chrome,1536,1024,,,l,1.0033,10,147,0,1,8,20,7,1,0,0,1,0,0,1,0,0,hexagon,circle,,,,,,,,,,,,,,,,,,,,,,,,,,,,,,,,,,,,,,,,,,,,,,,,,,,,,,
293404,2022-09-21_10h22.44.895,vts_reward_expectancy,2022.2.4,Win32,59.67655308,Chrome,1536,1024,,,l,0.7351,1,148,0,1,9,21,3,1,0,1,0,0,1,0,0,0,circle,triangle,,,,,,,,,,,,,,,,,,,,,,,,,,,,,,,,,,,,,,,,,,,,,,,,,,,,,,
293404,2022-09-21_10h22.44.895,vts_reward_expectancy,2022.2.4,Win32,59.67655308,Chrome,1536,1024,,,a,0.8886,10,158,0,1,10,22,4,1,0,1,0,0,0,0,1,0,circle,hexagon,,,,,,,,,,,,,,,,,,,,,,,,,,,,,,,,,,,,,,,,,,,,,,,,,,,,,,
293404,2022-09-21_10h22.44.895,vts_reward_expectancy,2022.2.4,Win32,59.67655308,Chrome,1536,1024,,,l,1.2368,1,159,0,1,11,23,0,1,1,0,0,0,0,1,0,0,triangle,circle,,,,,,,,,,,,,,,,,,,,,,,,,,,,,,,,,,,,,,,,,,,,,,,,,,,,,,
293404,2022-09-21_10h22.44.895,vts_reward_expectancy,2022.2.4,Win32,59.67655308,Chrome,1536,1024,,,a,1.3052,1,160,0,2,0,24,2,1,1,0,0,0,0,0,0,1,triangle,star,,,,,,,,,,,,,,,,,,,,,,,,,,,,,,,,,,,,,,,,,,,,,,,,,,,,,,
293404,2022-09-21_10h22.44.895,vts_reward_expectancy,2022.2.4,Win32,59.67655308,Chrome,1536,1024,,,l,1.6519,10,170,0,2,1,25,0,1,1,0,0,0,0,1,0,0,triangle,circle,,,,,,,,,,,,,,,,,,,,,,,,,,,,,,,,,,,,,,,,,,,,,,,,,,,,,,
293404,2022-09-21_10h22.44.895,vts_reward_expectancy,2022.2.4,Win32,59.67655308,Chrome,1536,1024,,,a,1.0004,10,180,0,2,2,26,9,1,0,0,0,1,1,0,0,0,star,triangle,,,,,,,,,,,,,,,,,,,,,,,,,,,,,,,,,,,,,,,,,,,,,,,,,,,,,,
293404,2022-09-21_10h22.44.895,vts_reward_expectancy,2022.2.4,Win32,59.67655308,Chrome,1536,1024,,,a,0.7671,10,190,0,2,3,27,4,1,0,1,0,0,0,0,1,0,circle,hexagon,,,,,,,,,,,,,,,,,,,,,,,,,,,,,,,,,,,,,,,,,,,,,,,,,,,,,,
293404,2022-09-21_10h22.44.895,vts_reward_expectancy,2022.2.4,Win32,59.67655308,Chrome,1536,1024,,,l,2.7533,1,191,0,2,4,28,5,1,0,1,0,0,0,0,0,1,circle,star,,,,,,,,,,,,,,,,,,,,,,,,,,,,,,,,,,,,,,,,,,,,,,,,,,,,,,
293404,2022-09-21_10h22.44.895,vts_reward_expectancy,2022.2.4,Win32,59.67655308,Chrome,1536,1024,,,l,0.7349,10,201,0,2,5,29,7,1,0,0,1,0,0,1,0,0,hexagon,circle,,,,,,,,,,,,,,,,,,,,,,,,,,,,,,,,,,,,,,,,,,,,,,,,,,,,,,
293404,2022-09-21_10h22.44.895,vts_reward_expectancy,2022.2.4,Win32,59.67655308,Chrome,1536,1024,,,l,0.8253,10,211,0,2,6,30,8,1,0,0,1,0,0,0,0,1,hexagon,star,,,,,,,,,,,,,,,,,,,,,,,,,,,,,,,,,,,,,,,,,,,,,,,,,,,,,,
293404,2022-09-21_10h22.44.895,vts_reward_expectancy,2022.2.4,Win32,59.67655308,Chrome,1536,1024,,,l,0.6673,1,212,0,2,7,31,6,1,0,0,1,0,1,0,0,0,hexagon,triangle,,,,,,,,,,,,,,,,,,,,,,,,,,,,,,,,,,,,,,,,,,,,,,,,,,,,,,
293404,2022-09-21_10h22.44.895,vts_reward_expectancy,2022.2.4,Win32,59.67655308,Chrome,1536,1024,,,a,1.034,1,213,0,2,8,32,3,1,0,1,0,0,1,0,0,0,circle,triangle,,,,,,,,,,,,,,,,,,,,,,,,,,,,,,,,,,,,,,,,,,,,,,,,,,,,,,
293404,2022-09-21_10h22.44.895,vts_reward_expectancy,2022.2.4,Win32,59.67655308,Chrome,1536,1024,,,a,0.9351,1,214,0,2,9,33,11,1,0,0,0,1,0,0,1,0,star,hexagon,,,,,,,,,,,,,,,,,,,,,,,,,,,,,,,,,,,,,,,,,,,,,,,,,,,,,,
293404,2022-09-21_10h22.44.895,vts_reward_expectancy,2022.2.4,Win32,59.67655308,Chrome,1536,1024,,,l,1.5853,10,224,0,2,10,34,10,1,0,0,0,1,0,1,0,0,star ,circle,,,,,,,,,,,,,,,,,,,,,,,,,,,,,,,,,,,,,,,,,,,,,,,,,,,,,,
293404,2022-09-21_10h22.44.895,vts_reward_expectancy,2022.2.4,Win32,59.67655308,Chrome,1536,1024,,,a,2.0531,1,225,0,2,11,35,1,1,1,0,0,0,0,0,1,0,triangle,hexagon,,,,,,,,,,,,,,,,,,,,,,,,,,,,,,,,,,,,,,,,,,,,,,,,,,,,,,
293404,2022-09-21_10h22.44.895,vts_reward_expectancy,2022.2.4,Win32,59.67655308,Chrome,1536,1024,,,l,1.8675,10,235,1,0,0,0,0,1,1,0,0,0,0,1,0,0,triangle,circle,,,,,,,,,,,,,,,,,,,,,,,,,,,,,,,,,,,,,,,,,,,,,,,,,,,,,,
293404,2022-09-21_10h22.44.895,vts_reward_expectancy,2022.2.4,Win32,59.67655308,Chrome,1536,1024,,,a,1.3517,10,245,1,0,1,1,4,1,0,1,0,0,0,0,1,0,circle,hexagon,,,,,,,,,,,,,,,,,,,,,,,,,,,,,,,,,,,,,,,,,,,,,,,,,,,,,,
293404,2022-09-21_10h22.44.895,vts_reward_expectancy,2022.2.4,Win32,59.67655308,Chrome,1536,1024,,,l,0.6714,1,246,1,0,2,2,6,1,0,0,1,0,1,0,0,0,hexagon,triangle,,,,,,,,,,,,,,,,,,,,,,,,,,,,,,,,,,,,,,,,,,,,,,,,,,,,,,
293404,2022-09-21_10h22.44.895,vts_reward_expectancy,2022.2.4,Win32,59.67655308,Chrome,1536,1024,,,a,0.7605,1,247,1,0,3,3,1,1,1,0,0,0,0,0,1,0,triangle,hexagon,,,,,,,,,,,,,,,,,,,,,,,,,,,,,,,,,,,,,,,,,,,,,,,,,,,,,,
293404,2022-09-21_10h22.44.895,vts_reward_expectancy,2022.2.4,Win32,59.67655308,Chrome,1536,1024,,,a,1.4846,10,257,1,0,4,4,9,1,0,0,0,1,1,0,0,0,star,triangle,,,,,,,,,,,,,,,,,,,,,,,,,,,,,,,,,,,,,,,,,,,,,,,,,,,,,,
293404,2022-09-21_10h22.44.895,vts_reward_expectancy,2022.2.4,Win32,59.67655308,Chrome,1536,1024,,,l,1.9847,1,258,1,0,5,5,3,1,0,1,0,0,1,0,0,0,circle,triangle,,,,,,,,,,,,,,,,,,,,,,,,,,,,,,,,,,,,,,,,,,,,,,,,,,,,,,
293404,2022-09-21_10h22.44.895,vts_reward_expectancy,2022.2.4,Win32,59.67655308,Chrome,1536,1024,,,a,1.025,10,268,1,0,6,6,5,1,0,1,0,0,0,0,0,1,circle,star,,,,,,,,,,,,,,,,,,,,,,,,,,,,,,,,,,,,,,,,,,,,,,,,,,,,,,
293404,2022-09-21_10h22.44.895,vts_reward_expectancy,2022.2.4,Win32,59.67655308,Chrome,1536,1024,,,a,0.8192,1,269,1,0,7,7,11,1,0,0,0,1,0,0,1,0,star,hexagon,,,,,,,,,,,,,,,,,,,,,,,,,,,,,,,,,,,,,,,,,,,,,,,,,,,,,,
293404,2022-09-21_10h22.44.895,vts_reward_expectancy,2022.2.4,Win32,59.67655308,Chrome,1536,1024,,,l,0.6829,10,279,1,0,8,8,7,1,0,0,1,0,0,1,0,0,hexagon,circle,,,,,,,,,,,,,,,,,,,,,,,,,,,,,,,,,,,,,,,,,,,,,,,,,,,,,,
293404,2022-09-21_10h22.44.895,vts_reward_expectancy,2022.2.4,Win32,59.67655308,Chrome,1536,1024,,,l,0.737,10,289,1,0,9,9,8,1,0,0,1,0,0,0,0,1,hexagon,star,,,,,,,,,,,,,,,,,,,,,,,,,,,,,,,,,,,,,,,,,,,,,,,,,,,,,,
293404,2022-09-21_10h22.44.895,vts_reward_expectancy,2022.2.4,Win32,59.67655308,Chrome,1536,1024,,,l,0.8354,10,299,1,0,10,10,2,1,1,0,0,0,0,0,0,1,triangle,star,,,,,,,,,,,,,,,,,,,,,,,,,,,,,,,,,,,,,,,,,,,,,,,,,,,,,,
293404,2022-09-21_10h22.44.895,vts_reward_expectancy,2022.2.4,Win32,59.67655308,Chrome,1536,1024,,,l,1.2521,10,309,1,0,11,11,10,1,0,0,0,1,0,1,0,0,star ,circle,,,,,,,,,,,,,,,,,,,,,,,,,,,,,,,,,,,,,,,,,,,,,,,,,,,,,,
293404,2022-09-21_10h22.44.895,vts_reward_expectancy,2022.2.4,Win32,59.67655308,Chrome,1536,1024,,,a,0.6591,1,310,1,1,0,12,11,1,0,0,0,1,0,0,1,0,star,hexagon,,,,,,,,,,,,,,,,,,,,,,,,,,,,,,,,,,,,,,,,,,,,,,,,,,,,,,
293404,2022-09-21_10h22.44.895,vts_reward_expectancy,2022.2.4,Win32,59.67655308,Chrome,1536,1024,,,a,1.3174,10,320,1,1,1,13,9,1,0,0,0,1,1,0,0,0,star,triangle,,,,,,,,,,,,,,,,,,,,,,,,,,,,,,,,,,,,,,,,,,,,,,,,,,,,,,
293404,2022-09-21_10h22.44.895,vts_reward_expectancy,2022.2.4,Win32,59.67655308,Chrome,1536,1024,,,l,1.2847,10,330,1,1,2,14,5,1,0,1,0,0,0,0,0,1,circle,star,,,,,,,,,,,,,,,,,,,,,,,,,,,,,,,,,,,,,,,,,,,,,,,,,,,,,,
293404,2022-09-21_10h22.44.895,vts_reward_expectancy,2022.2.4,Win32,59.67655308,Chrome,1536,1024,,,l,0.68,10,340,1,1,3,15,8,1,0,0,1,0,0,0,0,1,hexagon,star,,,,,,,,,,,,,,,,,,,,,,,,,,,,,,,,,,,,,,,,,,,,,,,,,,,,,,
293404,2022-09-21_10h22.44.895,vts_reward_expectancy,2022.2.4,Win32,59.67655308,Chrome,1536,1024,,,l,0.6002,10,350,1,1,4,16,2,1,1,0,0,0,0,0,0,1,triangle,star,,,,,,,,,,,,,,,,,,,,,,,,,,,,,,,,,,,,,,,,,,,,,,,,,,,,,,
293404,2022-09-21_10h22.44.895,vts_reward_expectancy,2022.2.4,Win32,59.67655308,Chrome,1536,1024,,,a,0.6087,1,351,1,1,5,17,4,1,0,1,0,0,0,0,1,0,circle,hexagon,,,,,,,,,,,,,,,,,,,,,,,,,,,,,,,,,,,,,,,,,,,,,,,,,,,,,,
293404,2022-09-21_10h22.44.895,vts_reward_expectancy,2022.2.4,Win32,59.67655308,Chrome,1536,1024,,,a,1.4169,1,352,1,1,6,18,3,1,0,1,0,0,1,0,0,0,circle,triangle,,,,,,,,,,,,,,,,,,,,,,,,,,,,,,,,,,,,,,,,,,,,,,,,,,,,,,
293404,2022-09-21_10h22.44.895,vts_reward_expectancy,2022.2.4,Win32,59.67655308,Chrome,1536,1024,,,l,2.0681,10,362,1,1,7,19,0,1,1,0,0,0,0,1,0,0,triangle,circle,,,,,,,,,,,,,,,,,,,,,,,,,,,,,,,,,,,,,,,,,,,,,,,,,,,,,,
293404,2022-09-21_10h22.44.895,vts_reward_expectancy,2022.2.4,Win32,59.67655308,Chrome,1536,1024,,,a,0.8456,10,372,1,1,8,20,10,1,0,0,0,1,0,1,0,0,star ,circle,,,,,,,,,,,,,,,,,,,,,,,,,,,,,,,,,,,,,,,,,,,,,,,,,,,,,,
293404,2022-09-21_10h22.44.895,vts_reward_expectancy,2022.2.4,Win32,59.67655308,Chrome,1536,1024,,,l,0.6335,10,382,1,1,9,21,7,1,0,0,1,0,0,1,0,0,hexagon,circle,,,,,,,,,,,,,,,,,,,,,,,,,,,,,,,,,,,,,,,,,,,,,,,,,,,,,,
293404,2022-09-21_10h22.44.895,vts_reward_expectancy,2022.2.4,Win32,59.67655308,Chrome,1536,1024,,,a,0.7005,1,383,1,1,10,22,1,1,1,0,0,0,0,0,1,0,triangle,hexagon,,,,,,,,,,,,,,,,,,,,,,,,,,,,,,,,,,,,,,,,,,,,,,,,,,,,,,
293404,2022-09-21_10h22.44.895,vts_reward_expectancy,2022.2.4,Win32,59.67655308,Chrome,1536,1024,,,l,0.9032,1,384,1,1,11,23,6,1,0,0,1,0,1,0,0,0,hexagon,triangle,,,,,,,,,,,,,,,,,,,,,,,,,,,,,,,,,,,,,,,,,,,,,,,,,,,,,,
293404,2022-09-21_10h22.44.895,vts_reward_expectancy,2022.2.4,Win32,59.67655308,Chrome,1536,1024,,,a,0.8352,1,385,1,2,0,24,9,1,0,0,0,1,1,0,0,0,star,triangle,,,,,,,,,,,,,,,,,,,,,,,,,,,,,,,,,,,,,,,,,,,,,,,,,,,,,,
293404,2022-09-21_10h22.44.895,vts_reward_expectancy,2022.2.4,Win32,59.67655308,Chrome,1536,1024,,,l,0.7183,1,386,1,2,1,25,8,1,0,0,1,0,0,0,0,1,hexagon,star,,,,,,,,,,,,,,,,,,,,,,,,,,,,,,,,,,,,,,,,,,,,,,,,,,,,,,
293404,2022-09-21_10h22.44.895,vts_reward_expectancy,2022.2.4,Win32,59.67655308,Chrome,1536,1024,,,a,0.7828,1,387,1,2,2,26,10,1,0,0,0,1,0,1,0,0,star ,circle,,,,,,,,,,,,,,,,,,,,,,,,,,,,,,,,,,,,,,,,,,,,,,,,,,,,,,
293404,2022-09-21_10h22.44.895,vts_reward_expectancy,2022.2.4,Win32,59.67655308,Chrome,1536,1024,,,a,0.712,1,388,1,2,3,27,1,1,1,0,0,0,0,0,1,0,triangle,hexagon,,,,,,,,,,,,,,,,,,,,,,,,,,,,,,,,,,,,,,,,,,,,,,,,,,,,,,
293404,2022-09-21_10h22.44.895,vts_reward_expectancy,2022.2.4,Win32,59.67655308,Chrome,1536,1024,,,l,0.6991,10,398,1,2,4,28,0,1,1,0,0,0,0,1,0,0,triangle,circle,,,,,,,,,,,,,,,,,,,,,,,,,,,,,,,,,,,,,,,,,,,,,,,,,,,,,,
293404,2022-09-21_10h22.44.895,vts_reward_expectancy,2022.2.4,Win32,59.67655308,Chrome,1536,1024,,,l,0.792,10,408,1,2,5,29,5,1,0,1,0,0,0,0,0,1,circle,star,,,,,,,,,,,,,,,,,,,,,,,,,,,,,,,,,,,,,,,,,,,,,,,,,,,,,,
293404,2022-09-21_10h22.44.895,vts_reward_expectancy,2022.2.4,Win32,59.67655308,Chrome,1536,1024,,,l,0.5677,1,409,1,2,6,30,3,1,0,1,0,0,1,0,0,0,circle,triangle,,,,,,,,,,,,,,,,,,,,,,,,,,,,,,,,,,,,,,,,,,,,,,,,,,,,,,
293404,2022-09-21_10h22.44.895,vts_reward_expectancy,2022.2.4,Win32,59.67655308,Chrome,1536,1024,,,a,0.685,10,419,1,2,7,31,4,1,0,1,0,0,0,0,1,0,circle,hexagon,,,,,,,,,,,,,,,,,,,,,,,,,,,,,,,,,,,,,,,,,,,,,,,,,,,,,,
293404,2022-09-21_10h22.44.895,vts_reward_expectancy,2022.2.4,Win32,59.67655308,Chrome,1536,1024,,,a,1.3384,1,420,1,2,8,32,2,1,1,0,0,0,0,0,0,1,triangle,star,,,,,,,,,,,,,,,,,,,,,,,,,,,,,,,,,,,,,,,,,,,,,,,,,,,,,,
293404,2022-09-21_10h22.44.895,vts_reward_expectancy,2022.2.4,Win32,59.67655308,Chrome,1536,1024,,,a,0.8112,10,430,1,2,9,33,11,1,0,0,0,1,0,0,1,0,star,hexagon,,,,,,,,,,,,,,,,,,,,,,,,,,,,,,,,,,,,,,,,,,,,,,,,,,,,,,
293404,2022-09-21_10h22.44.895,vts_reward_expectancy,2022.2.4,Win32,59.67655308,Chrome,1536,1024,,,l,0.5771,1,431,1,2,10,34,6,1,0,0,1,0,1,0,0,0,hexagon,triangle,,,,,,,,,,,,,,,,,,,,,,,,,,,,,,,,,,,,,,,,,,,,,,,,,,,,,,
293404,2022-09-21_10h22.44.895,vts_reward_expectancy,2022.2.4,Win32,59.67655308,Chrome,1536,1024,,,l,0.7215,10,441,1,2,11,35,7,1,0,0,1,0,0,1,0,0,hexagon,circle,,,,,,,,,,,,,,,,,,,,,,,,,,,,,,,,,,,,,,,,,,,,,,,,,,,,,,
293404,2022-09-21_10h22.44.895,vts_reward_expectancy,2022.2.4,Win32,59.67655308,Chrome,1536,1024,,,l,3.6253,1,442,2,0,0,0,3,1,0,1,0,0,1,0,0,0,circle,triangle,,,,,,,,,,,,,,,,,,,,,,,,,,,,,,,,,,,,,,,,,,,,,,,,,,,,,,
293404,2022-09-21_10h22.44.895,vts_reward_expectancy,2022.2.4,Win32,59.67655308,Chrome,1536,1024,,,l,0.7927,1,443,2,0,1,1,8,1,0,0,1,0,0,0,0,1,hexagon,star,,,,,,,,,,,,,,,,,,,,,,,,,,,,,,,,,,,,,,,,,,,,,,,,,,,,,,
293404,2022-09-21_10h22.44.895,vts_reward_expectancy,2022.2.4,Win32,59.67655308,Chrome,1536,1024,,,l,0.5785,1,444,2,0,2,2,6,1,0,0,1,0,1,0,0,0,hexagon,triangle,,,,,,,,,,,,,,,,,,,,,,,,,,,,,,,,,,,,,,,,,,,,,,,,,,,,,,
293404,2022-09-21_10h22.44.895,vts_reward_expectancy,2022.2.4,Win32,59.67655308,Chrome,1536,1024,,,a,0.5222,10,454,2,0,3,3,4,1,0,1,0,0,0,0,1,0,circle,hexagon,,,,,,,,,,,,,,,,,,,,,,,,,,,,,,,,,,,,,,,,,,,,,,,,,,,,,,
293404,2022-09-21_10h22.44.895,vts_reward_expectancy,2022.2.4,Win32,59.67655308,Chrome,1536,1024,,,a,0.7501,1,455,2,0,4,4,11,1,0,0,0,1,0,0,1,0,star,hexagon,,,,,,,,,,,,,,,,,,,,,,,,,,,,,,,,,,,,,,,,,,,,,,,,,,,,,,
293404,2022-09-21_10h22.44.895,vts_reward_expectancy,2022.2.4,Win32,59.67655308,Chrome,1536,1024,,,l,1.5232,1,456,2,0,5,5,9,1,0,0,0,1,1,0,0,0,star,triangle,,,,,,,,,,,,,,,,,,,,,,,,,,,,,,,,,,,,,,,,,,,,,,,,,,,,,,
293404,2022-09-21_10h22.44.895,vts_reward_expectancy,2022.2.4,Win32,59.67655308,Chrome,1536,1024,,,l,0.674,1,457,2,0,6,6,7,1,0,0,1,0,0,1,0,0,hexagon,circle,,,,,,,,,,,,,,,,,,,,,,,,,,,,,,,,,,,,,,,,,,,,,,,,,,,,,,
293404,2022-09-21_10h22.44.895,vts_reward_expectancy,2022.2.4,Win32,59.67655308,Chrome,1536,1024,,,l,0.7183,1,458,2,0,7,7,10,1,0,0,0,1,0,1,0,0,star ,circle,,,,,,,,,,,,,,,,,,,,,,,,,,,,,,,,,,,,,,,,,,,,,,,,,,,,,,
293404,2022-09-21_10h22.44.895,vts_reward_expectancy,2022.2.4,Win32,59.67655308,Chrome,1536,1024,,,a,0.6898,1,459,2,0,8,8,1,1,1,0,0,0,0,0,1,0,triangle,hexagon,,,,,,,,,,,,,,,,,,,,,,,,,,,,,,,,,,,,,,,,,,,,,,,,,,,,,,
293404,2022-09-21_10h22.44.895,vts_reward_expectancy,2022.2.4,Win32,59.67655308,Chrome,1536,1024,,,a,1.2841,1,460,2,0,9,9,0,1,1,0,0,0,0,1,0,0,triangle,circle,,,,,,,,,,,,,,,,,,,,,,,,,,,,,,,,,,,,,,,,,,,,,,,,,,,,,,
293404,2022-09-21_10h22.44.895,vts_reward_expectancy,2022.2.4,Win32,59.67655308,Chrome,1536,1024,,,l,0.6925,10,470,2,0,10,10,5,1,0,1,0,0,0,0,0,1,circle,star,,,,,,,,,,,,,,,,,,,,,,,,,,,,,,,,,,,,,,,,,,,,,,,,,,,,,,
293404,2022-09-21_10h22.44.895,vts_reward_expectancy,2022.2.4,Win32,59.67655308,Chrome,1536,1024,,,l,0.8691,10,480,2,0,11,11,2,1,1,0,0,0,0,0,0,1,triangle,star,,,,,,,,,,,,,,,,,,,,,,,,,,,,,,,,,,,,,,,,,,,,,,,,,,,,,,
293404,2022-09-21_10h22.44.895,vts_reward_expectancy,2022.2.4,Win32,59.67655308,Chrome,1536,1024,,,a,0.5721,1,481,2,1,0,12,1,1,1,0,0,0,0,0,1,0,triangle,hexagon,,,,,,,,,,,,,,,,,,,,,,,,,,,,,,,,,,,,,,,,,,,,,,,,,,,,,,
293404,2022-09-21_10h22.44.895,vts_reward_expectancy,2022.2.4,Win32,59.67655308,Chrome,1536,1024,,,a,0.8886,10,491,2,1,1,13,3,1,0,1,0,0,1,0,0,0,circle,triangle,,,,,,,,,,,,,,,,,,,,,,,,,,,,,,,,,,,,,,,,,,,,,,,,,,,,,,
293404,2022-09-21_10h22.44.895,vts_reward_expectancy,2022.2.4,Win32,59.67655308,Chrome,1536,1024,,,l,0.8005,1,492,2,1,2,14,8,1,0,0,1,0,0,0,0,1,hexagon,star,,,,,,,,,,,,,,,,,,,,,,,,,,,,,,,,,,,,,,,,,,,,,,,,,,,,,,
293404,2022-09-21_10h22.44.895,vts_reward_expectancy,2022.2.4,Win32,59.67655308,Chrome,1536,1024,,,a,0.6836,10,502,2,1,3,15,5,1,0,1,0,0,0,0,0,1,circle,star,,,,,,,,,,,,,,,,,,,,,,,,,,,,,,,,,,,,,,,,,,,,,,,,,,,,,,
293404,2022-09-21_10h22.44.895,vts_reward_expectancy,2022.2.4,Win32,59.67655308,Chrome,1536,1024,,,l,0.5721,1,503,2,1,4,16,0,1,1,0,0,0,0,1,0,0,triangle,circle,,,,,,,,,,,,,,,,,,,,,,,,,,,,,,,,,,,,,,,,,,,,,,,,,,,,,,
293404,2022-09-21_10h22.44.895,vts_reward_expectancy,2022.2.4,Win32,59.67655308,Chrome,1536,1024,,,l,0.5555,10,513,2,1,5,17,7,1,0,0,1,0,0,1,0,0,hexagon,circle,,,,,,,,,,,,,,,,,,,,,,,,,,,,,,,,,,,,,,,,,,,,,,,,,,,,,,
293404,2022-09-21_10h22.44.895,vts_reward_expectancy,2022.2.4,Win32,59.67655308,Chrome,1536,1024,,,a,0.5323,10,523,2,1,6,18,4,1,0,1,0,0,0,0,1,0,circle,hexagon,,,,,,,,,,,,,,,,,,,,,,,,,,,,,,,,,,,,,,,,,,,,,,,,,,,,,,
293404,2022-09-21_10h22.44.895,vts_reward_expectancy,2022.2.4,Win32,59.67655308,Chrome,1536,1024,,,l,0.5219,1,524,2,1,7,19,6,1,0,0,1,0,1,0,0,0,hexagon,triangle,,,,,,,,,,,,,,,,,,,,,,,,,,,,,,,,,,,,,,,,,,,,,,,,,,,,,,
293404,2022-09-21_10h22.44.895,vts_reward_expectancy,2022.2.4,Win32,59.67655308,Chrome,1536,1024,,,l,0.9677,1,525,2,1,8,20,9,1,0,0,0,1,1,0,0,0,star,triangle,,,,,,,,,,,,,,,,,,,,,,,,,,,,,,,,,,,,,,,,,,,,,,,,,,,,,,
293404,2022-09-21_10h22.44.895,vts_reward_expectancy,2022.2.4,Win32,59.67655308,Chrome,1536,1024,,,a,0.8076,10,535,2,1,9,21,11,1,0,0,0,1,0,0,1,0,star,hexagon,,,,,,,,,,,,,,,,,,,,,,,,,,,,,,,,,,,,,,,,,,,,,,,,,,,,,,
293404,2022-09-21_10h22.44.895,vts_reward_expectancy,2022.2.4,Win32,59.67655308,Chrome,1536,1024,,,l,0.7836,10,545,2,1,10,22,2,1,1,0,0,0,0,0,0,1,triangle,star,,,,,,,,,,,,,,,,,,,,,,,,,,,,,,,,,,,,,,,,,,,,,,,,,,,,,,
293404,2022-09-21_10h22.44.895,vts_reward_expectancy,2022.2.4,Win32,59.67655308,Chrome,1536,1024,,,a,0.7704,10,555,2,1,11,23,10,1,0,0,0,1,0,1,0,0,star ,circle,,,,,,,,,,,,,,,,,,,,,,,,,,,,,,,,,,,,,,,,,,,,,,,,,,,,,,
293404,2022-09-21_10h22.44.895,vts_reward_expectancy,2022.2.4,Win32,59.67655308,Chrome,1536,1024,,,a,0.8402,10,565,2,2,0,24,9,1,0,0,0,1,1,0,0,0,star,triangle,,,,,,,,,,,,,,,,,,,,,,,,,,,,,,,,,,,,,,,,,,,,,,,,,,,,,,
293404,2022-09-21_10h22.44.895,vts_reward_expectancy,2022.2.4,Win32,59.67655308,Chrome,1536,1024,,,l,1.1851,10,575,2,2,1,25,8,1,0,0,1,0,0,0,0,1,hexagon,star,,,,,,,,,,,,,,,,,,,,,,,,,,,,,,,,,,,,,,,,,,,,,,,,,,,,,,
293404,2022-09-21_10h22.44.895,vts_reward_expectancy,2022.2.4,Win32,59.67655308,Chrome,1536,1024,,,l,0.6685,10,585,2,2,2,26,7,1,0,0,1,0,0,1,0,0,hexagon,circle,,,,,,,,,,,,,,,,,,,,,,,,,,,,,,,,,,,,,,,,,,,,,,,,,,,,,,
293404,2022-09-21_10h22.44.895,vts_reward_expectancy,2022.2.4,Win32,59.67655308,Chrome,1536,1024,,,a,1.4687,10,595,2,2,3,27,5,1,0,1,0,0,0,0,0,1,circle,star,,,,,,,,,,,,,,,,,,,,,,,,,,,,,,,,,,,,,,,,,,,,,,,,,,,,,,
293404,2022-09-21_10h22.44.895,vts_reward_expectancy,2022.2.4,Win32,59.67655308,Chrome,1536,1024,,,a,0.8185,1,596,2,2,4,28,1,1,1,0,0,0,0,0,1,0,triangle,hexagon,,,,,,,,,,,,,,,,,,,,,,,,,,,,,,,,,,,,,,,,,,,,,,,,,,,,,,
293404,2022-09-21_10h22.44.895,vts_reward_expectancy,2022.2.4,Win32,59.67655308,Chrome,1536,1024,,,l,0.7174,10,606,2,2,5,29,0,1,1,0,0,0,0,1,0,0,triangle,circle,,,,,,,,,,,,,,,,,,,,,,,,,,,,,,,,,,,,,,,,,,,,,,,,,,,,,,
293404,2022-09-21_10h22.44.895,vts_reward_expectancy,2022.2.4,Win32,59.67655308,Chrome,1536,1024,,,a,3.2082,10,616,2,2,6,30,3,1,0,1,0,0,1,0,0,0,circle,triangle,,,,,,,,,,,,,,,,,,,,,,,,,,,,,,,,,,,,,,,,,,,,,,,,,,,,,,
293404,2022-09-21_10h22.44.895,vts_reward_expectancy,2022.2.4,Win32,59.67655308,Chrome,1536,1024,,,l,0.7168,1,617,2,2,7,31,6,1,0,0,1,0,1,0,0,0,hexagon,triangle,,,,,,,,,,,,,,,,,,,,,,,,,,,,,,,,,,,,,,,,,,,,,,,,,,,,,,
293404,2022-09-21_10h22.44.895,vts_reward_expectancy,2022.2.4,Win32,59.67655308,Chrome,1536,1024,,,l,1.3505,10,627,2,2,8,32,2,1,1,0,0,0,0,0,0,1,triangle,star,,,,,,,,,,,,,,,,,,,,,,,,,,,,,,,,,,,,,,,,,,,,,,,,,,,,,,
293404,2022-09-21_10h22.44.895,vts_reward_expectancy,2022.2.4,Win32,59.67655308,Chrome,1536,1024,,,l,1.185,10,637,2,2,9,33,10,1,0,0,0,1,0,1,0,0,star ,circle,,,,,,,,,,,,,,,,,,,,,,,,,,,,,,,,,,,,,,,,,,,,,,,,,,,,,,
293404,2022-09-21_10h22.44.895,vts_reward_expectancy,2022.2.4,Win32,59.67655308,Chrome,1536,1024,,,a,0.7618,10,647,2,2,10,34,11,1,0,0,0,1,0,0,1,0,star,hexagon,,,,,,,,,,,,,,,,,,,,,,,,,,,,,,,,,,,,,,,,,,,,,,,,,,,,,,
293404,2022-09-21_10h22.44.895,vts_reward_expectancy,2022.2.4,Win32,59.67655308,Chrome,1536,1024,,,a,0.6232,10,657,2,2,11,35,4,1,0,1,0,0,0,0,1,0,circle,hexagon,,,,,,,,,,,,,,,,,,,,,,,,,,,,,,,,,,,,,,,,,,,,,,,,,,,,,,
293404,2022-09-21_10h22.44.895,vts_reward_expectancy,2022.2.4,Win32,59.67655308,Chrome,1536,1024,,,,,,,,,,,,,,,,,,,,,,,125,S,triangle,1,0,d,2.0198,0,0,0,0,0,1,,,,,,,,,,,,,,,,,,,,,,,,,,,,,,,,,,,,,,,,,
293404,2022-09-21_10h22.44.895,vts_reward_expectancy,2022.2.4,Win32,59.67655308,Chrome,1536,1024,,,,,,,,,,,,,,,,,,,,,,,146,W,star,1,0,d,0.5873,0,1,0,1,0,1,,,,,,,,,,,,,,,,,,,,,,,,,,,,,,,,,,,,,,,,,
293404,2022-09-21_10h22.44.895,vts_reward_expectancy,2022.2.4,Win32,59.67655308,Chrome,1536,1024,,,,,,,,,,,,,,,,,,,,,,,132,H,hexagon,1,0,d,0.6478,0,2,0,2,0,1,,,,,,,,,,,,,,,,,,,,,,,,,,,,,,,,,,,,,,,,,
293404,2022-09-21_10h22.44.895,vts_reward_expectancy,2022.2.4,Win32,59.67655308,Chrome,1536,1024,,,,,,,,,,,,,,,,,,,,,,,181,U,circle,1,0,f,0.6583,0,3,0,3,0,1,,,,,,,,,,,,,,,,,,,,,,,,,,,,,,,,,,,,,,,,,
293404,2022-09-21_10h22.44.895,vts_reward_expectancy,2022.2.4,Win32,59.67655308,Chrome,1536,1024,,,,,,,,,,,,,,,,,,,,,,,139,F,triangle,1,0,d,0.6842,0,4,0,4,0,1,,,,,,,,,,,,,,,,,,,,,,,,,,,,,,,,,,,,,,,,,
293404,2022-09-21_10h22.44.895,vts_reward_expectancy,2022.2.4,Win32,59.67655308,Chrome,1536,1024,,,,,,,,,,,,,,,,,,,,,,,174,Y,star,1,0,f,0.7571,0,5,0,5,0,1,,,,,,,,,,,,,,,,,,,,,,,,,,,,,,,,,,,,,,,,,
293404,2022-09-21_10h22.44.895,vts_reward_expectancy,2022.2.4,Win32,59.67655308,Chrome,1536,1024,,,,,,,,,,,,,,,,,,,,,,,160,B,hexagon,1,0,f,0.8341,0,6,0,6,0,1,,,,,,,,,,,,,,,,,,,,,,,,,,,,,,,,,,,,,,,,,
293404,2022-09-21_10h22.44.895,vts_reward_expectancy,2022.2.4,Win32,59.67655308,Chrome,1536,1024,,,,,,,,,,,,,,,,,,,,,,,167,D,circle,1,0,f,0.7574,0,7,0,7,0,1,,,,,,,,,,,,,,,,,,,,,,,,,,,,,,,,,,,,,,,,,
293404,2022-09-21_10h22.44.895,vts_reward_expectancy,2022.2.4,Win32,59.67655308,Chrome,1536,1024,,,,,,,,,,,,,,,,,,,,,,,125,S,circle,1,0,d,0.5701,0,8,0,8,0,1,,,,,,,,,,,,,,,,,,,,,,,,,,,,,,,,,,,,,,,,,
293404,2022-09-21_10h22.44.895,vts_reward_expectancy,2022.2.4,Win32,59.67655308,Chrome,1536,1024,,,,,,,,,,,,,,,,,,,,,,,146,W,star,1,0,d,0.8038,0,9,0,9,0,1,,,,,,,,,,,,,,,,,,,,,,,,,,,,,,,,,,,,,,,,,
293404,2022-09-21_10h22.44.895,vts_reward_expectancy,2022.2.4,Win32,59.67655308,Chrome,1536,1024,,,,,,,,,,,,,,,,,,,,,,,139,H,star,1,0,,,1,,,,,,j,0.8148,0,0,0,0,1,,,,,,,,,,,,,,,,,,,,,,,,,,,,,,,,,,
293404,2022-09-21_10h22.44.895,vts_reward_expectancy,2022.2.4,Win32,59.67655308,Chrome,1536,1024,,,,,,,,,,,,,,,,,,,,,,,125,W,triangle,1,0,,,1,,,,,,k,0.5883,1,0,1,0,1,,,,,,,,,,,,,,,,,,,,,,,,,,,,,,,,,,
293404,2022-09-21_10h22.44.895,vts_reward_expectancy,2022.2.4,Win32,59.67655308,Chrome,1536,1024,,,,,,,,,,,,,,,,,,,,,,,146,B,circle,1,0,,,1,,,,,,j,0.6488,2,0,2,0,1,,,,,,,,,,,,,,,,,,,,,,,,,,,,,,,,,,
293404,2022-09-21_10h22.44.895,vts_reward_expectancy,2022.2.4,Win32,59.67655308,Chrome,1536,1024,,,,,,,,,,,,,,,,,,,,,,,132,U,hexagon,1,0,,,1,,,,,,k,0.6702,3,0,3,0,1,,,,,,,,,,,,,,,,,,,,,,,,,,,,,,,,,,
293404,2022-09-21_10h22.44.895,vts_reward_expectancy,2022.2.4,Win32,59.67655308,Chrome,1536,1024,,,,,,,,,,,,,,,,,,,,,,,174,D,star,1,0,,,1,,,,,,j,0.6189,4,0,4,0,1,,,,,,,,,,,,,,,,,,,,,,,,,,,,,,,,,,
293404,2022-09-21_10h22.44.895,vts_reward_expectancy,2022.2.4,Win32,59.67655308,Chrome,1536,1024,,,,,,,,,,,,,,,,,,,,,,,160,S,triangle,1,0,,,1,,,,,,k,0.5814,5,0,5,0,1,,,,,,,,,,,,,,,,,,,,,,,,,,,,,,,,,,
293404,2022-09-21_10h22.44.895,vts_reward_expectancy,2022.2.4,Win32,59.67655308,Chrome,1536,1024,,,,,,,,,,,,,,,,,,,,,,,167,F,circle,1,0,,,1,,,,,,j,0.6847,6,0,6,0,1,,,,,,,,,,,,,,,,,,,,,,,,,,,,,,,,,,
293404,2022-09-21_10h22.44.895,vts_reward_expectancy,2022.2.4,Win32,59.67655308,Chrome,1536,1024,,,,,,,,,,,,,,,,,,,,,,,181,Y,hexagon,1,0,,,1,,,,,,k,0.6848,7,0,7,0,1,,,,,,,,,,,,,,,,,,,,,,,,,,,,,,,,,,
293404,2022-09-21_10h22.44.895,vts_reward_expectancy,2022.2.4,Win32,59.67655308,Chrome,1536,1024,,,,,,,,,,,,,,,,,,,,,,,139,H,hexagon,1,0,,,1,,,,,,j,0.9051,8,0,8,0,1,,,,,,,,,,,,,,,,,,,,,,,,,,,,,,,,,,
293404,2022-09-21_10h22.44.895,vts_reward_expectancy,2022.2.4,Win32,59.67655308,Chrome,1536,1024,,,,,,,,,,,,,,,,,,,,,,,125,W,triangle,1,0,,,1,,,,,,k,0.6226,9,0,9,0,1,,,,,,,,,,,,,,,,,,,,,,,,,,,,,,,,,,
293404,2022-09-21_10h22.44.895,vts_reward_expectancy,2022.2.4,Win32,59.67655308,Chrome,1536,1024,,,,,0,657,,,,,,,,,,,,,,,,,125,Y,hexagon,1,0,,,2,,,,,,,,,,,,,-1,letter,NA,k,1.2012,vtsPrac,0,0,0,0,1,,,,,,,,,,,,,,,,,,,,,,,
293404,2022-09-21_10h22.44.895,vts_reward_expectancy,2022.2.4,Win32,59.67655308,Chrome,1536,1024,,,,,0,657,,,,,,,,,,,,,,,,,132,W,circle,1,0,,,2,,,,,,,,,,,,,repeat,letter,lettRpt,k,0.6211,vtsPrac,1,0,1,0,1,,,,,,,,,,,,,,,,,,,,,,,
293404,2022-09-21_10h22.44.895,vts_reward_expectancy,2022.2.4,Win32,59.67655308,Chrome,1536,1024,,,,,0,657,,,,,,,,,,,,,,,,,167,U,hexagon,1,0,,,2,,,,,,,,,,,,,switch,number,numSwt,f,1.3416,vtsPrac,2,0,2,0,1,,,,,,,,,,,,,,,,,,,,,,,
293404,2022-09-21_10h22.44.895,vts_reward_expectancy,2022.2.4,Win32,59.67655308,Chrome,1536,1024,,,,,0,657,,,,,,,,,,,,,,,,,146,D,circle,-1,0,,,2,,,,,,,,,,,,,switch,no_choice,NA,,,vtsPrac,3,0,3,0,1,,,,,,,,,,,,,,,,,,,,,,,
293404,2022-09-21_10h22.44.895,vts_reward_expectancy,2022.2.4,Win32,59.67655308,Chrome,1536,1024,,,,,0,657,,,,,,,,,,,,,,,,,125,Y,triangle,1,0,,,2,,,,,,,,,,,,,switch,letter,lettSwt,k,0.8956,vtsPrac,4,0,4,0,1,,,,,,,,,,,,,,,,,,,,,,,
293404,2022-09-21_10h22.44.895,vts_reward_expectancy,2022.2.4,Win32,59.67655308,Chrome,1536,1024,,,,,0,657,,,,,,,,,,,,,,,,,132,W,star,1,0,,,2,,,,,,,,,,,,,switch,number,numSwt,d,0.4781,vtsPrac,5,0,5,0,1,,,,,,,,,,,,,,,,,,,,,,,
293404,2022-09-21_10h22.44.895,vts_reward_expectancy,2022.2.4,Win32,59.67655308,Chrome,1536,1024,,,,,0,657,,,,,,,,,,,,,,,,,167,U,star,1,0,,,2,,,,,,,,,,,,,repeat,number,numRpt,f,0.4769,vtsPrac,6,0,6,0,1,,,,,,,,,,,,,,,,,,,,,,,
293404,2022-09-21_10h22.44.895,vts_reward_expectancy,2022.2.4,Win32,59.67655308,Chrome,1536,1024,,,,,0,657,,,,,,,,,,,,,,,,,146,D,hexagon,1,0,,,2,,,,,,,,,,,,,repeat,number,numRpt,d,0.985,vtsPrac,7,0,7,0,1,,,,,,,,,,,,,,,,,,,,,,,
293404,2022-09-21_10h22.44.895,vts_reward_expectancy,2022.2.4,Win32,59.67655308,Chrome,1536,1024,,,,,0,657,,,,,,,,,,,,,,,,,181,S,hexagon,1,0,,,2,,,,,,,,,,,,,switch,letter,lettSwt,k,0.5527,vtsPrac,8,0,8,0,1,,,,,,,,,,,,,,,,,,,,,,,
293404,2022-09-21_10h22.44.895,vts_reward_expectancy,2022.2.4,Win32,59.67655308,Chrome,1536,1024,,,,,0,657,,,,,,,,,,,,,,,,,125,D,star,1,0,,,2,,,,,,,,,,,,,switch,number,numSwt,d,0.7959,vtsPrac,9,0,9,0,1,,,,,,,,,,,,,,,,,,,,,,,
293404,2022-09-21_10h22.44.895,vts_reward_expectancy,2022.2.4,Win32,59.67655308,Chrome,1536,1024,,,,,0,657,,,,,,,,,,,,,,,,,146,B,triangle,1,0,,,2,,,,,,,,,,,,,repeat,number,numRpt,d,0.6768,vtsPrac,10,0,10,0,1,,,,,,,,,,,,,,,,,,,,,,,
293404,2022-09-21_10h22.44.895,vts_reward_expectancy,2022.2.4,Win32,59.67655308,Chrome,1536,1024,,,,,0,657,,,,,,,,,,,,,,,,,167,Y,star,1,0,,,2,,,,,,,,,,,,,repeat,number,numRpt,f,0.6979,vtsPrac,11,0,11,0,1,,,,,,,,,,,,,,,,,,,,,,,
293404,2022-09-21_10h22.44.895,vts_reward_expectancy,2022.2.4,Win32,59.67655308,Chrome,1536,1024,,,,,0,657,,,,,,,,,,,,,,,,,139,B,hexagon,1,0,,,2,,,,,,,,,,,,,switch,letter,lettSwt,j,1.5652,vtsPrac,12,0,12,0,1,,,,,,,,,,,,,,,,,,,,,,,
293404,2022-09-21_10h22.44.895,vts_reward_expectancy,2022.2.4,Win32,59.67655308,Chrome,1536,1024,,,,,0,657,,,,,,,,,,,,,,,,,174,Y,circle,1,0,,,2,,,,,,,,,,,,,repeat,letter,lettRpt,k,0.5499,vtsPrac,13,0,13,0,1,,,,,,,,,,,,,,,,,,,,,,,
293404,2022-09-21_10h22.44.895,vts_reward_expectancy,2022.2.4,Win32,59.67655308,Chrome,1536,1024,,,,,0,657,,,,,,,,,,,,,,,,,146,H,star,1,0,,,2,,,,,,,,,,,,,repeat,letter,lettRpt,j,0.637,vtsPrac,14,0,14,0,1,,,,,,,,,,,,,,,,,,,,,,,
293404,2022-09-21_10h22.44.895,vts_reward_expectancy,2022.2.4,Win32,59.67655308,Chrome,1536,1024,,,,,0,657,,,,,,,,,,,,,,,,,132,W,triangle,1,0,,,2,,,,,,,,,,,,,switch,number,numSwt,d,0.4912,vtsPrac,15,0,15,0,1,,,,,,,,,,,,,,,,,,,,,,,
293404,2022-09-21_10h22.44.895,vts_reward_expectancy,2022.2.4,Win32,59.67655308,Chrome,1536,1024,,,,,,,,,,,,,,,,,,,,,,,,,,,,,,,,,,,,,,,,,,,,,,,,,,,,,,,,,,,,,,,,,,,,,,,,,,,,
293404,2022-09-21_10h22.44.895,vts_reward_expectancy,2022.2.4,Win32,59.67655308,Chrome,1536,1024,,,,,,,,,,,,,,,,,,,,,,,,,,,,,,,,,,,,,,,,,,,,,,,,,,,,,,,,,,,,,,,,,,,,,,,,,,,,
293404,2022-09-21_10h22.44.895,vts_reward_expectancy,2022.2.4,Win32,59.67655308,Chrome,1536,1024,,,,,0,657,,,,,,,,,,,,,,,,,125,D,triangle,1,0,,,,,,,,,,,,,,,,repeat,number,numRpt,d,1.1518,noRew,,,,,,0,0,0,0,0,1,,,,,,,,,,,,,,,,,
293404,2022-09-21_10h22.44.895,vts_reward_expectancy,2022.2.4,Win32,59.67655308,Chrome,1536,1024,,,,,0,657,,,,,,,,,,,,,,,,,146,W,star,1,0,,,,,,,,,,,,,,,,repeat,number,numRpt,d,0.9198,noRew,,,,,,0,1,0,1,0,1,,,,,,,,,,,,,,,,,
293404,2022-09-21_10h22.44.895,vts_reward_expectancy,2022.2.4,Win32,59.67655308,Chrome,1536,1024,,,,,0,657,,,,,,,,,,,,,,,,,160,H,triangle,1,0,,,,,,,,,,,,,,,,switch,letter,lettSwt,j,0.9915,noRew,,,,,,0,2,0,2,0,1,,,,,,,,,,,,,,,,,
293404,2022-09-21_10h22.44.895,vts_reward_expectancy,2022.2.4,Win32,59.67655308,Chrome,1536,1024,,,,,0,657,,,,,,,,,,,,,,,,,167,F,star,1,0,,,,,,,,,,,,,,,,repeat,letter,lettRpt,j,0.6688,noRew,,,,,,0,3,0,3,0,1,,,,,,,,,,,,,,,,,
293404,2022-09-21_10h22.44.895,vts_reward_expectancy,2022.2.4,Win32,59.67655308,Chrome,1536,1024,,,,,0,657,,,,,,,,,,,,,,,,,125,D,star,1,0,,,,,,,,,,,,,,,,repeat,letter,lettRpt,j,0.9508,noRew,,,,,,0,4,0,4,0,1,,,,,,,,,,,,,,,,,
293404,2022-09-21_10h22.44.895,vts_reward_expectancy,2022.2.4,Win32,59.67655308,Chrome,1536,1024,,,,,0,657,,,,,,,,,,,,,,,,,146,W,hexagon,1,0,,,,,,,,,,,,,,,,switch,number,numSwt,d,0.7626,noRew,,,,,,0,5,0,5,0,1,,,,,,,,,,,,,,,,,
293404,2022-09-21_10h22.44.895,vts_reward_expectancy,2022.2.4,Win32,59.67655308,Chrome,1536,1024,,,,,0,657,,,,,,,,,,,,,,,,,160,H,star,1,0,,,,,,,,,,,,,,,,repeat,number,numRpt,f,0.8176,noRew,,,,,,0,6,0,6,0,1,,,,,,,,,,,,,,,,,
293404,2022-09-21_10h22.44.895,vts_reward_expectancy,2022.2.4,Win32,59.67655308,Chrome,1536,1024,,,,,0,657,,,,,,,,,,,,,,,,,167,F,circle,1,0,,,,,,,,,,,,,,,,repeat,number,numRpt,f,0.7673,noRew,,,,,,0,7,0,7,0,1,,,,,,,,,,,,,,,,,
293404,2022-09-21_10h22.44.895,vts_reward_expectancy,2022.2.4,Win32,59.67655308,Chrome,1536,1024,,,,,0,657,,,,,,,,,,,,,,,,,132,D,star,1,0,,,,,,,,,,,,,,,,switch,letter,lettSwt,j,0.542,noRew,,,,,,0,8,0,8,0,1,,,,,,,,,,,,,,,,,
293404,2022-09-21_10h22.44.895,vts_reward_expectancy,2022.2.4,Win32,59.67655308,Chrome,1536,1024,,,,,0,657,,,,,,,,,,,,,,,,,160,H,circle,1,0,,,,,,,,,,,,,,,,repeat,letter,lettRpt,j,0.6691,noRew,,,,,,0,9,0,9,0,1,,,,,,,,,,,,,,,,,
293404,2022-09-21_10h22.44.895,vts_reward_expectancy,2022.2.4,Win32,59.67655308,Chrome,1536,1024,,,,,0,657,,,,,,,,,,,,,,,,,146,Y,hexagon,1,0,,,,,,,,,,,,,,,,repeat,letter,lettRpt,k,0.4882,noRew,,,,,,0,10,0,10,0,1,,,,,,,,,,,,,,,,,
293404,2022-09-21_10h22.44.895,vts_reward_expectancy,2022.2.4,Win32,59.67655308,Chrome,1536,1024,,,,,0,657,,,,,,,,,,,,,,,,,139,W,triangle,1,0,,,,,,,,,,,,,,,,switch,number,numSwt,d,0.6444,noRew,,,,,,0,11,0,11,0,1,,,,,,,,,,,,,,,,,
293404,2022-09-21_10h22.44.895,vts_reward_expectancy,2022.2.4,Win32,59.67655308,Chrome,1536,1024,,,,,0,657,,,,,,,,,,,,,,,,,146,H,star,1,0,,,,,,,,,,,,,,,,repeat,number,numRpt,d,1.3186,noRew,,,,,,0,12,0,12,0,1,,,,,,,,,,,,,,,,,
293404,2022-09-21_10h22.44.895,vts_reward_expectancy,2022.2.4,Win32,59.67655308,Chrome,1536,1024,,,,,0,657,,,,,,,,,,,,,,,,,167,B,triangle,1,0,,,,,,,,,,,,,,,,switch,letter,lettSwt,j,0.5998,noRew,,,,,,0,13,0,13,0,1,,,,,,,,,,,,,,,,,
293404,2022-09-21_10h22.44.895,vts_reward_expectancy,2022.2.4,Win32,59.67655308,Chrome,1536,1024,,,,,0,657,,,,,,,,,,,,,,,,,160,U,star,1,0,,,,,,,,,,,,,,,,repeat,letter,lettRpt,k,0.677,noRew,,,,,,0,14,0,14,0,1,,,,,,,,,,,,,,,,,
293404,2022-09-21_10h22.44.895,vts_reward_expectancy,2022.2.4,Win32,59.67655308,Chrome,1536,1024,,,,,0,657,,,,,,,,,,,,,,,,,132,W,circle,1,0,,,,,,,,,,,,,,,,switch,number,numSwt,d,1.2565,noRew,,,,,,0,15,0,15,0,1,,,,,,,,,,,,,,,,,
293404,2022-09-21_10h22.44.895,vts_reward_expectancy,2022.2.4,Win32,59.67655308,Chrome,1536,1024,,,,,0,657,,,,,,,,,,,,,,,,,139,H,star,1,0,,,,,,,,,,,,,,,,repeat,number,numRpt,d,1.0346,noRew,,,,,,0,16,0,16,0,1,,,,,,,,,,,,,,,,,
293404,2022-09-21_10h22.44.895,vts_reward_expectancy,2022.2.4,Win32,59.67655308,Chrome,1536,1024,,,,,0,657,,,,,,,,,,,,,,,,,146,F,hexagon,1,0,,,,,,,,,,,,,,,,repeat,number,numRpt,d,0.7824,noRew,,,,,,0,17,0,17,0,1,,,,,,,,,,,,,,,,,
293404,2022-09-21_10h22.44.895,vts_reward_expectancy,2022.2.4,Win32,59.67655308,Chrome,1536,1024,,,,,0,657,,,,,,,,,,,,,,,,,167,B,hexagon,1,0,,,,,,,,,,,,,,,,switch,letter,lettSwt,j,0.7447,noRew,,,,,,0,18,0,18,0,1,,,,,,,,,,,,,,,,,
293404,2022-09-21_10h22.44.895,vts_reward_expectancy,2022.2.4,Win32,59.67655308,Chrome,1536,1024,,,,,0,657,,,,,,,,,,,,,,,,,174,D,circle,1,0,,,,,,,,,,,,,,,,repeat,letter,lettRpt,j,0.6334,noRew,,,,,,0,19,0,19,0,1,,,,,,,,,,,,,,,,,
293404,2022-09-21_10h22.44.895,vts_reward_expectancy,2022.2.4,Win32,59.67655308,Chrome,1536,1024,,,,,0,657,,,,,,,,,,,,,,,,,167,U,triangle,1,0,,,,,,,,,,,,,,,,repeat,letter,lettRpt,k,0.5548,noRew,,,,,,0,20,0,20,0,1,,,,,,,,,,,,,,,,,
293404,2022-09-21_10h22.44.895,vts_reward_expectancy,2022.2.4,Win32,59.67655308,Chrome,1536,1024,,,,,0,657,,,,,,,,,,,,,,,,,160,F,hexagon,1,0,,,,,,,,,,,,,,,,repeat,letter,lettRpt,j,0.5024,noRew,,,,,,0,21,0,21,0,1,,,,,,,,,,,,,,,,,
293404,2022-09-21_10h22.44.895,vts_reward_expectancy,2022.2.4,Win32,59.67655308,Chrome,1536,1024,,,,,0,657,,,,,,,,,,,,,,,,,132,W,circle,1,0,,,,,,,,,,,,,,,,switch,number,numSwt,d,0.746,noRew,,,,,,0,22,0,22,0,1,,,,,,,,,,,,,,,,,
293404,2022-09-21_10h22.44.895,vts_reward_expectancy,2022.2.4,Win32,59.67655308,Chrome,1536,1024,,,,,0,657,,,,,,,,,,,,,,,,,125,Y,star,1,0,,,,,,,,,,,,,,,,repeat,number,numRpt,d,0.6507,noRew,,,,,,0,23,0,23,0,1,,,,,,,,,,,,,,,,,
293404,2022-09-21_10h22.44.895,vts_reward_expectancy,2022.2.4,Win32,59.67655308,Chrome,1536,1024,,,,,0,657,,,,,,,,,,,,,,,,,139,Y,hexagon,1,0,,,,,,,,,,,,,,,,repeat,number,numRpt,d,0.9058,noRew,,,,,,0,24,0,24,0,1,,,,,,,,,,,,,,,,,
293404,2022-09-21_10h22.44.895,vts_reward_expectancy,2022.2.4,Win32,59.67655308,Chrome,1536,1024,,,,,0,657,,,,,,,,,,,,,,,,,125,B,circle,1,0,,,,,,,,,,,,,,,,switch,letter,lettSwt,j,0.6395,noRew,,,,,,0,25,0,25,0,1,,,,,,,,,,,,,,,,,
293404,2022-09-21_10h22.44.895,vts_reward_expectancy,2022.2.4,Win32,59.67655308,Chrome,1536,1024,,,,,0,657,,,,,,,,,,,,,,,,,160,W,triangle,1,0,,,,,,,,,,,,,,,,repeat,letter,lettRpt,k,1.1902,noRew,,,,,,0,26,0,26,0,1,,,,,,,,,,,,,,,,,
293404,2022-09-21_10h22.44.895,vts_reward_expectancy,2022.2.4,Win32,59.67655308,Chrome,1536,1024,,,,,0,657,,,,,,,,,,,,,,,,,167,H,hexagon,1,0,,,,,,,,,,,,,,,,repeat,letter,lettRpt,j,1.1837,noRew,,,,,,0,27,0,27,0,1,,,,,,,,,,,,,,,,,
293404,2022-09-21_10h22.44.895,vts_reward_expectancy,2022.2.4,Win32,59.67655308,Chrome,1536,1024,,,,,0,657,,,,,,,,,,,,,,,,,146,U,circle,1,0,,,,,,,,,,,,,,,,switch,number,numSwt,d,1.1439,noRew,,,,,,0,28,0,28,0,1,,,,,,,,,,,,,,,,,
293404,2022-09-21_10h22.44.895,vts_reward_expectancy,2022.2.4,Win32,59.67655308,Chrome,1536,1024,,,,,0,657,,,,,,,,,,,,,,,,,125,D,hexagon,1,0,,,,,,,,,,,,,,,,repeat,number,numRpt,d,0.5953,noRew,,,,,,0,29,0,29,0,1,,,,,,,,,,,,,,,,,
293404,2022-09-21_10h22.44.895,vts_reward_expectancy,2022.2.4,Win32,59.67655308,Chrome,1536,1024,,,,,0,657,,,,,,,,,,,,,,,,,132,H,star,1,0,,,,,,,,,,,,,,,,repeat,number,numRpt,d,1.0156,noRew,,,,,,0,30,0,30,0,1,,,,,,,,,,,,,,,,,
293404,2022-09-21_10h22.44.895,vts_reward_expectancy,2022.2.4,Win32,59.67655308,Chrome,1536,1024,,,,,0,657,,,,,,,,,,,,,,,,,181,F,triangle,1,0,,,,,,,,,,,,,,,,repeat,number,numRpt,f,0.6665,noRew,,,,,,0,31,0,31,0,1,,,,,,,,,,,,,,,,,
293404,2022-09-21_10h22.44.895,vts_reward_expectancy,2022.2.4,Win32,59.67655308,Chrome,1536,1024,,,,,0,657,,,,,,,,,,,,,,,,,146,H,triangle,1,0,,,,,,,,,,,,,,,,switch,letter,lettSwt,j,0.8813,noRew,,,,,,0,32,0,32,0,1,,,,,,,,,,,,,,,,,
293404,2022-09-21_10h22.44.895,vts_reward_expectancy,2022.2.4,Win32,59.67655308,Chrome,1536,1024,,,,,0,657,,,,,,,,,,,,,,,,,160,B,star,1,0,,,,,,,,,,,,,,,,repeat,letter,lettRpt,j,0.584,noRew,,,,,,0,33,0,33,0,1,,,,,,,,,,,,,,,,,
293404,2022-09-21_10h22.44.895,vts_reward_expectancy,2022.2.4,Win32,59.67655308,Chrome,1536,1024,,,,,0,657,,,,,,,,,,,,,,,,,132,Y,circle,1,0,,,,,,,,,,,,,,,,switch,number,numSwt,d,0.8851,noRew,,,,,,0,34,0,34,0,1,,,,,,,,,,,,,,,,,
293404,2022-09-21_10h22.44.895,vts_reward_expectancy,2022.2.4,Win32,59.67655308,Chrome,1536,1024,,,,,0,657,,,,,,,,,,,,,,,,,174,U,star,1,0,,,,,,,,,,,,,,,,repeat,number,numRpt,f,0.8909,noRew,,,,,,0,35,0,35,0,1,,,,,,,,,,,,,,,,,
293404,2022-09-21_10h22.44.895,vts_reward_expectancy,2022.2.4,Win32,59.67655308,Chrome,1536,1024,,,,,0,657,,,,,,,,,,,,,,,,,146,B,triangle,1,0,,,,,,,,,,,,,,,,switch,letter,lettSwt,j,0.5662,noRew,,,,,,0,36,0,36,0,1,,,,,,,,,,,,,,,,,
293404,2022-09-21_10h22.44.895,vts_reward_expectancy,2022.2.4,Win32,59.67655308,Chrome,1536,1024,,,,,0,657,,,,,,,,,,,,,,,,,167,S,star,1,0,,,,,,,,,,,,,,,,repeat,letter,lettRpt,k,0.691,noRew,,,,,,0,37,0,37,0,1,,,,,,,,,,,,,,,,,
293404,2022-09-21_10h22.44.895,vts_reward_expectancy,2022.2.4,Win32,59.67655308,Chrome,1536,1024,,,,,0,657,,,,,,,,,,,,,,,,,160,W,triangle,1,0,,,,,,,,,,,,,,,,repeat,letter,lettRpt,k,0.8933,noRew,,,,,,0,38,0,38,0,1,,,,,,,,,,,,,,,,,
293404,2022-09-21_10h22.44.895,vts_reward_expectancy,2022.2.4,Win32,59.67655308,Chrome,1536,1024,,,,,0,657,,,,,,,,,,,,,,,,,174,F,hexagon,1,0,,,,,,,,,,,,,,,,repeat,letter,lettRpt,j,1.6898,noRew,,,,,,0,39,0,39,0,1,,,,,,,,,,,,,,,,,
293404,2022-09-21_10h22.44.895,vts_reward_expectancy,2022.2.4,Win32,59.67655308,Chrome,1536,1024,,,,,0,657,,,,,,,,,,,,,,,,,174,W,star,1,0,,,,,,,,,,,,,,,,switch,number,numSwt,f,0.8519,noRew,,,,,,0,40,0,40,0,1,,,,,,,,,,,,,,,,,
293404,2022-09-21_10h22.44.895,vts_reward_expectancy,2022.2.4,Win32,59.67655308,Chrome,1536,1024,,,,,0,657,,,,,,,,,,,,,,,,,167,D,triangle,1,0,,,,,,,,,,,,,,,,repeat,number,numRpt,f,0.8873,noRew,,,,,,0,41,0,41,0,1,,,,,,,,,,,,,,,,,
293404,2022-09-21_10h22.44.895,vts_reward_expectancy,2022.2.4,Win32,59.67655308,Chrome,1536,1024,,,,,0,657,,,,,,,,,,,,,,,,,132,Y,star,1,0,,,,,,,,,,,,,,,,repeat,number,numRpt,d,0.7547,noRew,,,,,,0,42,0,42,0,1,,,,,,,,,,,,,,,,,
293404,2022-09-21_10h22.44.895,vts_reward_expectancy,2022.2.4,Win32,59.67655308,Chrome,1536,1024,,,,,0,657,,,,,,,,,,,,,,,,,160,S,circle,1,0,,,,,,,,,,,,,,,,repeat,number,numRpt,f,0.7867,noRew,,,,,,0,43,0,43,0,1,,,,,,,,,,,,,,,,,
293404,2022-09-21_10h22.44.895,vts_reward_expectancy,2022.2.4,Win32,59.67655308,Chrome,1536,1024,,,,,0,657,,,,,,,,,,,,,,,,,146,D,star,1,0,,,,,,,,,,,,,,,,repeat,number,numRpt,d,0.9296,noRew,,,,,,0,44,0,44,0,1,,,,,,,,,,,,,,,,,
293404,2022-09-21_10h22.44.895,vts_reward_expectancy,2022.2.4,Win32,59.67655308,Chrome,1536,1024,,,,,0,657,,,,,,,,,,,,,,,,,160,B,hexagon,1,0,,,,,,,,,,,,,,,,switch,letter,lettSwt,j,0.5166,noRew,,,,,,0,45,0,45,0,1,,,,,,,,,,,,,,,,,
293404,2022-09-21_10h22.44.895,vts_reward_expectancy,2022.2.4,Win32,59.67655308,Chrome,1536,1024,,,,,0,657,,,,,,,,,,,,,,,,,132,S,star,1,0,,,,,,,,,,,,,,,,repeat,letter,lettRpt,k,0.6789,noRew,,,,,,0,46,0,46,0,1,,,,,,,,,,,,,,,,,
293404,2022-09-21_10h22.44.895,vts_reward_expectancy,2022.2.4,Win32,59.67655308,Chrome,1536,1024,,,,,0,657,,,,,,,,,,,,,,,,,174,F,hexagon,1,0,,,,,,,,,,,,,,,,repeat,letter,lettRpt,j,0.783,noRew,,,,,,0,47,0,47,0,1,,,,,,,,,,,,,,,,,
293404,2022-09-21_10h22.44.895,vts_reward_expectancy,2022.2.4,Win32,59.67655308,Chrome,1536,1024,,,,,0,657,,,,,,,,,,,,,,,,,139,S,triangle,1,0,,,,,,,,,,,,,,,,switch,number,numSwt,d,1.5689,noRew,,,,,,0,48,0,48,0,1,,,,,,,,,,,,,,,,,
293404,2022-09-21_10h22.44.895,vts_reward_expectancy,2022.2.4,Win32,59.67655308,Chrome,1536,1024,,,,,0,657,,,,,,,,,,,,,,,,,125,F,hexagon,1,0,,,,,,,,,,,,,,,,repeat,number,numRpt,d,0.8487,noRew,,,,,,0,49,0,49,0,1,,,,,,,,,,,,,,,,,
293404,2022-09-21_10h22.44.895,vts_reward_expectancy,2022.2.4,Win32,59.67655308,Chrome,1536,1024,,,,,0,657,,,,,,,,,,,,,,,,,132,W,circle,1,0,,,,,,,,,,,,,,,,repeat,number,numRpt,d,0.6003,noRew,,,,,,0,50,0,50,0,1,,,,,,,,,,,,,,,,,
293404,2022-09-21_10h22.44.895,vts_reward_expectancy,2022.2.4,Win32,59.67655308,Chrome,1536,1024,,,,,0,657,,,,,,,,,,,,,,,,,174,D,star,1,0,,,,,,,,,,,,,,,,switch,letter,lettSwt,j,0.6507,noRew,,,,,,0,51,0,51,0,1,,,,,,,,,,,,,,,,,
293404,2022-09-21_10h22.44.895,vts_reward_expectancy,2022.2.4,Win32,59.67655308,Chrome,1536,1024,,,,,0,657,,,,,,,,,,,,,,,,,146,F,circle,1,0,,,,,,,,,,,,,,,,repeat,letter,lettRpt,j,0.505,noRew,,,,,,0,52,0,52,0,1,,,,,,,,,,,,,,,,,
293404,2022-09-21_10h22.44.895,vts_reward_expectancy,2022.2.4,Win32,59.67655308,Chrome,1536,1024,,,,,0,657,,,,,,,,,,,,,,,,,167,S,star,1,0,,,,,,,,,,,,,,,,switch,number,numSwt,f,0.7948,noRew,,,,,,0,53,0,53,0,1,,,,,,,,,,,,,,,,,
293404,2022-09-21_10h22.44.895,vts_reward_expectancy,2022.2.4,Win32,59.67655308,Chrome,1536,1024,,,,,0,657,,,,,,,,,,,,,,,,,181,D,circle,1,0,,,,,,,,,,,,,,,,repeat,number,numRpt,f,0.8333,noRew,,,,,,0,54,0,54,0,1,,,,,,,,,,,,,,,,,
293404,2022-09-21_10h22.44.895,vts_reward_expectancy,2022.2.4,Win32,59.67655308,Chrome,1536,1024,,,,,0,657,,,,,,,,,,,,,,,,,125,Y,triangle,1,0,,,,,,,,,,,,,,,,repeat,number,numRpt,d,0.7646,noRew,,,,,,0,55,0,55,0,1,,,,,,,,,,,,,,,,,
293404,2022-09-21_10h22.44.895,vts_reward_expectancy,2022.2.4,Win32,59.67655308,Chrome,1536,1024,,,,,0,657,,,,,,,,,,,,,,,,,132,H,star,1,0,,,,,,,,,,,,,,,,switch,letter,lettSwt,j,0.7768,noRew,,,,,,0,56,0,56,0,1,,,,,,,,,,,,,,,,,
293404,2022-09-21_10h22.44.895,vts_reward_expectancy,2022.2.4,Win32,59.67655308,Chrome,1536,1024,,,,,0,657,,,,,,,,,,,,,,,,,167,D,circle,1,0,,,,,,,,,,,,,,,,repeat,letter,lettRpt,j,0.6508,noRew,,,,,,0,57,0,57,0,1,,,,,,,,,,,,,,,,,
293404,2022-09-21_10h22.44.895,vts_reward_expectancy,2022.2.4,Win32,59.67655308,Chrome,1536,1024,,,,,0,657,,,,,,,,,,,,,,,,,160,S,circle,1,0,,,,,,,,,,,,,,,,repeat,letter,lettRpt,k,1.0348,noRew,,,,,,0,58,0,58,0,1,,,,,,,,,,,,,,,,,
293404,2022-09-21_10h22.44.895,vts_reward_expectancy,2022.2.4,Win32,59.67655308,Chrome,1536,1024,,,,,0,657,,,,,,,,,,,,,,,,,146,W,triangle,1,0,,,,,,,,,,,,,,,,repeat,letter,lettRpt,k,0.5943,noRew,,,,,,0,59,0,59,0,1,,,,,,,,,,,,,,,,,
293404,2022-09-21_10h22.44.895,vts_reward_expectancy,2022.2.4,Win32,59.67655308,Chrome,1536,1024,,,,,0,657,,,,,,,,,,,,,,,,,160,Y,star,1,0,,,,,,,,,,,,,,,,switch,number,numSwt,f,1.2309,noRew,,,,,,0,60,0,60,0,1,,,,,,,,,,,,,,,,,
293404,2022-09-21_10h22.44.895,vts_reward_expectancy,2022.2.4,Win32,59.67655308,Chrome,1536,1024,,,,,0,657,,,,,,,,,,,,,,,,,181,F,circle,1,0,,,,,,,,,,,,,,,,repeat,number,numRpt,f,1.0469,noRew,,,,,,0,61,0,61,0,1,,,,,,,,,,,,,,,,,
293404,2022-09-21_10h22.44.895,vts_reward_expectancy,2022.2.4,Win32,59.67655308,Chrome,1536,1024,,,,,0,657,,,,,,,,,,,,,,,,,146,W,triangle,1,0,,,,,,,,,,,,,,,,repeat,number,numRpt,d,0.7183,noRew,,,,,,0,62,0,62,0,1,,,,,,,,,,,,,,,,,
293404,2022-09-21_10h22.44.895,vts_reward_expectancy,2022.2.4,Win32,59.67655308,Chrome,1536,1024,,,,,0,657,,,,,,,,,,,,,,,,,125,D,circle,1,0,,,,,,,,,,,,,,,,repeat,number,numRpt,d,0.681,noRew,,,,,,0,63,0,63,0,1,,,,,,,,,,,,,,,,,
293404,2022-09-21_10h22.44.895,vts_reward_expectancy,2022.2.4,Win32,59.67655308,Chrome,1536,1024,,,,,,,,,,,,,,,,,,,,,,,,,,,,,,,,,,,,,,,,,,,,,,,,,,,,,,,,,,,,,,,,,,,,,,,,,,,,
293404,2022-09-21_10h22.44.895,vts_reward_expectancy,2022.2.4,Win32,59.67655308,Chrome,1536,1024,,,,,0,657,,,,,,,,,,,,,,,,,132,H,circle,1,0,,,,,,,,,,,,,,,,switch,letter,lettSwt,j,0.8899,noRew,,,,,,0,,,,,,space,2.823,high,0,0,0,0,1,,,,,,,,,
293404,2022-09-21_10h22.44.895,vts_reward_expectancy,2022.2.4,Win32,59.67655308,Chrome,1536,1024,,,,,1,658,,,,,,,,,,,,,,,,,146,F,triangle,1,0,,,,,,,,,,,,,,,,repeat,letter,lettRpt,j,0.6987,noRew,,,,,,0,,,,,,,,high,1,0,1,0,1,,,,,,,,,
293404,2022-09-21_10h22.44.895,vts_reward_expectancy,2022.2.4,Win32,59.67655308,Chrome,1536,1024,,,,,10,668,,,,,,,,,,,,,,,,,181,U,circle,1,0,,,,,,,,,,,,,,,,switch,number,numSwt,f,0.6167,noRew,,,,,,0,,,,,,,,high,2,0,2,0,1,,,,,,,,,
293404,2022-09-21_10h22.44.895,vts_reward_expectancy,2022.2.4,Win32,59.67655308,Chrome,1536,1024,,,,,1,669,,,,,,,,,,,,,,,,,160,Y,triangle,1,0,,,,,,,,,,,,,,,,repeat,number,numRpt,f,0.7114,noRew,,,,,,0,,,,,,,,high,3,0,3,0,1,,,,,,,,,
293404,2022-09-21_10h22.44.895,vts_reward_expectancy,2022.2.4,Win32,59.67655308,Chrome,1536,1024,,,,,1,670,,,,,,,,,,,,,,,,,174,D,circle,1,0,,,,,,,,,,,,,,,,repeat,number,numRpt,f,0.6797,noRew,,,,,,0,,,,,,,,high,4,0,4,0,1,,,,,,,,,
293404,2022-09-21_10h22.44.895,vts_reward_expectancy,2022.2.4,Win32,59.67655308,Chrome,1536,1024,,,,,10,680,,,,,,,,,,,,,,,,,167,W,triangle,1,0,,,,,,,,,,,,,,,,switch,letter,lettSwt,k,0.6437,noRew,,,,,,0,,,,,,,,high,5,0,5,0,1,,,,,,,,,
293404,2022-09-21_10h22.44.895,vts_reward_expectancy,2022.2.4,Win32,59.67655308,Chrome,1536,1024,,,,,10,690,,,,,,,,,,,,,,,,,125,B,triangle,1,0,,,,,,,,,,,,,,,,repeat,letter,lettRpt,j,0.5326,noRew,,,,,,0,,,,,,,,high,6,0,6,0,1,,,,,,,,,
293404,2022-09-21_10h22.44.895,vts_reward_expectancy,2022.2.4,Win32,59.67655308,Chrome,1536,1024,,,,,10,700,,,,,,,,,,,,,,,,,139,S,circle,1,0,,,,,,,,,,,,,,,,switch,number,numSwt,d,0.7374,noRew,,,,,,0,,,,,,,,high,7,0,7,0,1,,,,,,,,,
293404,2022-09-21_10h22.44.895,vts_reward_expectancy,2022.2.4,Win32,59.67655308,Chrome,1536,1024,,,,,10,710,,,,,,,,,,,,,,,,,132,H,triangle,1,0,,,,,,,,,,,,,,,,repeat,number,numRpt,d,0.5875,noRew,,,,,,0,,,,,,,,high,8,0,8,0,1,,,,,,,,,
293404,2022-09-21_10h22.44.895,vts_reward_expectancy,2022.2.4,Win32,59.67655308,Chrome,1536,1024,,,,,10,720,,,,,,,,,,,,,,,,,146,F,circle,1,0,,,,,,,,,,,,,,,,switch,letter,lettSwt,j,0.5193,noRew,,,,,,0,,,,,,,,high,9,0,9,0,1,,,,,,,,,
293404,2022-09-21_10h22.44.895,vts_reward_expectancy,2022.2.4,Win32,59.67655308,Chrome,1536,1024,,,,,1,721,,,,,,,,,,,,,,,,,181,U,triangle,1,0,,,,,,,,,,,,,,,,repeat,letter,lettRpt,k,0.6568,noRew,,,,,,0,,,,,,,,high,10,0,10,0,1,,,,,,,,,
293404,2022-09-21_10h22.44.895,vts_reward_expectancy,2022.2.4,Win32,59.67655308,Chrome,1536,1024,,,,,0,721,,,,,,,,,,,,,,,,,160,Y,circle,1,0,,,,,,,,,,,,,,,,repeat,letter,lettRpt,k,1.3002,noRew,,,,,,0,,,,,,,,high,11,0,11,0,1,,,,,,,,,
293404,2022-09-21_10h22.44.895,vts_reward_expectancy,2022.2.4,Win32,59.67655308,Chrome,1536,1024,,,,,1,722,,,,,,,,,,,,,,,,,174,D,triangle,1,0,,,,,,,,,,,,,,,,switch,number,numSwt,f,0.4464,noRew,,,,,,0,,,,,,,,high,12,0,12,0,1,,,,,,,,,
293404,2022-09-21_10h22.44.895,vts_reward_expectancy,2022.2.4,Win32,59.67655308,Chrome,1536,1024,,,,,10,732,,,,,,,,,,,,,,,,,167,W,circle,1,0,,,,,,,,,,,,,,,,repeat,number,numRpt,f,0.495,noRew,,,,,,0,,,,,,,,high,13,0,13,0,1,,,,,,,,,
293404,2022-09-21_10h22.44.895,vts_reward_expectancy,2022.2.4,Win32,59.67655308,Chrome,1536,1024,,,,,10,742,,,,,,,,,,,,,,,,,125,B,circle,1,0,,,,,,,,,,,,,,,,repeat,number,numRpt,d,0.6162,noRew,,,,,,0,,,,,,,,high,14,0,14,0,1,,,,,,,,,
293404,2022-09-21_10h22.44.895,vts_reward_expectancy,2022.2.4,Win32,59.67655308,Chrome,1536,1024,,,,,1,743,,,,,,,,,,,,,,,,,139,S,triangle,1,0,,,,,,,,,,,,,,,,repeat,number,numRpt,d,0.8118,noRew,,,,,,0,,,,,,,,high,15,0,15,0,1,,,,,,,,,
293404,2022-09-21_10h22.44.895,vts_reward_expectancy,2022.2.4,Win32,59.67655308,Chrome,1536,1024,,,,,10,753,,,,,,,,,,,,,,,,,167,U,circle,1,0,,,,,,,,,,,,,,,,switch,letter,lettSwt,k,0.4047,noRew,,,,,,0,,,,,,,,high,16,0,16,0,1,,,,,,,,,
293404,2022-09-21_10h22.44.895,vts_reward_expectancy,2022.2.4,Win32,59.67655308,Chrome,1536,1024,,,,,1,754,,,,,,,,,,,,,,,,,174,H,triangle,1,0,,,,,,,,,,,,,,,,repeat,letter,lettRpt,j,0.6679,noRew,,,,,,0,,,,,,,,high,17,0,17,0,1,,,,,,,,,
293404,2022-09-21_10h22.44.895,vts_reward_expectancy,2022.2.4,Win32,59.67655308,Chrome,1536,1024,,,,,1,755,,,,,,,,,,,,,,,,,181,Y,triangle,1,0,,,,,,,,,,,,,,,,repeat,letter,lettRpt,k,0.5313,noRew,,,,,,0,,,,,,,,high,18,0,18,0,1,,,,,,,,,
293404,2022-09-21_10h22.44.895,vts_reward_expectancy,2022.2.4,Win32,59.67655308,Chrome,1536,1024,,,,,10,765,,,,,,,,,,,,,,,,,125,F,circle,1,0,,,,,,,,,,,,,,,,switch,number,numSwt,d,0.6222,noRew,,,,,,0,,,,,,,,high,19,0,19,0,1,,,,,,,,,
293404,2022-09-21_10h22.44.895,vts_reward_expectancy,2022.2.4,Win32,59.67655308,Chrome,1536,1024,,,,,0,765,,,,,,,,,,,,,,,,,146,S,circle,1,0,,,,,,,,,,,,,,,,repeat,number,numRpt,d,0.8049,noRew,,,,,,0,,,,,,,,high,20,0,20,0,1,,,,,,,,,
293404,2022-09-21_10h22.44.895,vts_reward_expectancy,2022.2.4,Win32,59.67655308,Chrome,1536,1024,,,,,10,775,,,,,,,,,,,,,,,,,160,B,triangle,1,0,,,,,,,,,,,,,,,,switch,letter,lettSwt,j,0.8484,noRew,,,,,,0,,,,,,,,high,21,0,21,0,1,,,,,,,,,
293404,2022-09-21_10h22.44.895,vts_reward_expectancy,2022.2.4,Win32,59.67655308,Chrome,1536,1024,,,,,1,776,,,,,,,,,,,,,,,,,132,D,triangle,1,0,,,,,,,,,,,,,,,,switch,number,numSwt,d,0.5174,noRew,,,,,,0,,,,,,,,high,22,0,22,0,1,,,,,,,,,
293404,2022-09-21_10h22.44.895,vts_reward_expectancy,2022.2.4,Win32,59.67655308,Chrome,1536,1024,,,,,0,776,,,,,,,,,,,,,,,,,139,W,circle,1,0,,,,,,,,,,,,,,,,repeat,number,numRpt,d,0.8463,noRew,,,,,,0,,,,,,,,high,23,0,23,0,1,,,,,,,,,
293404,2022-09-21_10h22.44.895,vts_reward_expectancy,2022.2.4,Win32,59.67655308,Chrome,1536,1024,,,,,10,786,,,,,,,,,,,,,,,,,167,B,circle,1,0,,,,,,,,,,,,,,,,switch,letter,lettSwt,j,0.5371,noRew,,,,,,0,,,,,,,,high,24,0,24,0,1,,,,,,,,,
293404,2022-09-21_10h22.44.895,vts_reward_expectancy,2022.2.4,Win32,59.67655308,Chrome,1536,1024,,,,,1,787,,,,,,,,,,,,,,,,,125,Y,triangle,1,0,,,,,,,,,,,,,,,,repeat,letter,lettRpt,k,0.527,noRew,,,,,,0,,,,,,,,high,25,0,25,0,1,,,,,,,,,
293404,2022-09-21_10h22.44.895,vts_reward_expectancy,2022.2.4,Win32,59.67655308,Chrome,1536,1024,,,,,1,788,,,,,,,,,,,,,,,,,160,U,triangle,1,0,,,,,,,,,,,,,,,,switch,number,numSwt,f,0.7954,noRew,,,,,,0,,,,,,,,high,26,0,26,0,1,,,,,,,,,
293404,2022-09-21_10h22.44.895,vts_reward_expectancy,2022.2.4,Win32,59.67655308,Chrome,1536,1024,,,,,10,798,,,,,,,,,,,,,,,,,146,D,circle,1,0,,,,,,,,,,,,,,,,switch,letter,lettSwt,j,0.4623,noRew,,,,,,0,,,,,,,,high,27,0,27,0,1,,,,,,,,,
293404,2022-09-21_10h22.44.895,vts_reward_expectancy,2022.2.4,Win32,59.67655308,Chrome,1536,1024,,,,,1,799,,,,,,,,,,,,,,,,,174,F,circle,1,0,,,,,,,,,,,,,,,,switch,number,numSwt,f,0.4263,noRew,,,,,,0,,,,,,,,high,28,0,28,0,1,,,,,,,,,
293404,2022-09-21_10h22.44.895,vts_reward_expectancy,2022.2.4,Win32,59.67655308,Chrome,1536,1024,,,,,1,800,,,,,,,,,,,,,,,,,132,S,triangle,1,0,,,,,,,,,,,,,,,,repeat,number,numRpt,d,0.6116,noRew,,,,,,0,,,,,,,,high,29,0,29,0,1,,,,,,,,,
293404,2022-09-21_10h22.44.895,vts_reward_expectancy,2022.2.4,Win32,59.67655308,Chrome,1536,1024,,,,,1,801,,,,,,,,,,,,,,,,,181,H,triangle,1,0,,,,,,,,,,,,,,,,switch,letter,lettSwt,j,0.5512,noRew,,,,,,0,,,,,,,,high,30,0,30,0,1,,,,,,,,,
293404,2022-09-21_10h22.44.895,vts_reward_expectancy,2022.2.4,Win32,59.67655308,Chrome,1536,1024,,,,,10,811,,,,,,,,,,,,,,,,,139,W,circle,1,0,,,,,,,,,,,,,,,,switch,number,numSwt,d,0.5854,noRew,,,,,,0,,,,,,,,high,31,0,31,0,1,,,,,,,,,
293404,2022-09-21_10h22.44.895,vts_reward_expectancy,2022.2.4,Win32,59.67655308,Chrome,1536,1024,,,,,10,821,,,,,,,,,,,,,,,,,174,D,hexagon,1,0,,,,,,,,,,,,,,,,switch,letter,lettSwt,j,0.7751,noRew,,,,,,1,,,,,,space,1.1053,low,0,0,0,0,1,,,,,,,,,
293404,2022-09-21_10h22.44.895,vts_reward_expectancy,2022.2.4,Win32,59.67655308,Chrome,1536,1024,,,,,10,831,,,,,,,,,,,,,,,,,181,W,star,1,0,,,,,,,,,,,,,,,,repeat,letter,lettRpt,k,0.3867,noRew,,,,,,1,,,,,,,,low,1,0,1,0,1,,,,,,,,,
293404,2022-09-21_10h22.44.895,vts_reward_expectancy,2022.2.4,Win32,59.67655308,Chrome,1536,1024,,,,,10,841,,,,,,,,,,,,,,,,,125,U,hexagon,1,0,,,,,,,,,,,,,,,,switch,number,numSwt,d,0.4932,noRew,,,,,,1,,,,,,,,low,2,0,2,0,1,,,,,,,,,
293404,2022-09-21_10h22.44.895,vts_reward_expectancy,2022.2.4,Win32,59.67655308,Chrome,1536,1024,,,,,0,841,,,,,,,,,,,,,,,,,146,B,star,0,0,,,,,,,,,,,,,,,,repeat,number,NA,f,0.6437,noRew,,,,,,1,,,,,,,,low,3,0,3,0,1,,,,,,,,,
293404,2022-09-21_10h22.44.895,vts_reward_expectancy,2022.2.4,Win32,59.67655308,Chrome,1536,1024,,,,,0,841,,,,,,,,,,,,,,,,,167,Y,star,1,1,,,,,,,,,,,,,,,,repeat,number,numRpt,f,0.6529,noRew,,,,,,1,,,,,,,,low,4,0,4,0,1,,,,,,,,,
293404,2022-09-21_10h22.44.895,vts_reward_expectancy,2022.2.4,Win32,59.67655308,Chrome,1536,1024,,,,,10,851,,,,,,,,,,,,,,,,,139,H,hexagon,1,0,,,,,,,,,,,,,,,,switch,letter,lettSwt,j,0.5674,noRew,,,,,,1,,,,,,,,low,5,0,5,0,1,,,,,,,,,
293404,2022-09-21_10h22.44.895,vts_reward_expectancy,2022.2.4,Win32,59.67655308,Chrome,1536,1024,,,,,1,852,,,,,,,,,,,,,,,,,160,F,hexagon,1,0,,,,,,,,,,,,,,,,repeat,letter,lettRpt,j,0.5508,noRew,,,,,,1,,,,,,,,low,6,0,6,0,1,,,,,,,,,
293404,2022-09-21_10h22.44.895,vts_reward_expectancy,2022.2.4,Win32,59.67655308,Chrome,1536,1024,,,,,1,853,,,,,,,,,,,,,,,,,132,S,star,1,0,,,,,,,,,,,,,,,,switch,number,numSwt,d,0.4228,noRew,,,,,,1,,,,,,,,low,7,0,7,0,1,,,,,,,,,
293404,2022-09-21_10h22.44.895,vts_reward_expectancy,2022.2.4,Win32,59.67655308,Chrome,1536,1024,,,,,1,854,,,,,,,,,,,,,,,,,174,D,star,1,0,,,,,,,,,,,,,,,,repeat,number,numRpt,f,0.5833,noRew,,,,,,1,,,,,,,,low,8,0,8,0,1,,,,,,,,,
293404,2022-09-21_10h22.44.895,vts_reward_expectancy,2022.2.4,Win32,59.67655308,Chrome,1536,1024,,,,,10,864,,,,,,,,,,,,,,,,,181,W,hexagon,1,0,,,,,,,,,,,,,,,,repeat,number,numRpt,f,0.5676,noRew,,,,,,1,,,,,,,,low,9,0,9,0,1,,,,,,,,,
293404,2022-09-21_10h22.44.895,vts_reward_expectancy,2022.2.4,Win32,59.67655308,Chrome,1536,1024,,,,,1,865,,,,,,,,,,,,,,,,,125,U,star,1,0,,,,,,,,,,,,,,,,repeat,number,numRpt,d,0.5502,noRew,,,,,,1,,,,,,,,low,10,0,10,0,1,,,,,,,,,
293404,2022-09-21_10h22.44.895,vts_reward_expectancy,2022.2.4,Win32,59.67655308,Chrome,1536,1024,,,,,1,866,,,,,,,,,,,,,,,,,146,B,hexagon,1,0,,,,,,,,,,,,,,,,switch,letter,lettSwt,j,0.5837,noRew,,,,,,1,,,,,,,,low,11,0,11,0,1,,,,,,,,,
293404,2022-09-21_10h22.44.895,vts_reward_expectancy,2022.2.4,Win32,59.67655308,Chrome,1536,1024,,,,,10,876,,,,,,,,,,,,,,,,,167,Y,star,1,0,,,,,,,,,,,,,,,,repeat,letter,lettRpt,k,0.484,noRew,,,,,,1,,,,,,,,low,12,0,12,0,1,,,,,,,,,
293404,2022-09-21_10h22.44.895,vts_reward_expectancy,2022.2.4,Win32,59.67655308,Chrome,1536,1024,,,,,1,877,,,,,,,,,,,,,,,,,139,H,hexagon,1,0,,,,,,,,,,,,,,,,repeat,letter,lettRpt,j,0.8671,noRew,,,,,,1,,,,,,,,low,13,0,13,0,1,,,,,,,,,
293404,2022-09-21_10h22.44.895,vts_reward_expectancy,2022.2.4,Win32,59.67655308,Chrome,1536,1024,,,,,0,877,,,,,,,,,,,,,,,,,160,F,star,1,0,,,,,,,,,,,,,,,,switch,number,numSwt,f,0.5694,noRew,,,,,,1,,,,,,,,low,14,0,14,0,1,,,,,,,,,
293404,2022-09-21_10h22.44.895,vts_reward_expectancy,2022.2.4,Win32,59.67655308,Chrome,1536,1024,,,,,10,887,,,,,,,,,,,,,,,,,132,S,hexagon,1,0,,,,,,,,,,,,,,,,repeat,number,numRpt,d,0.5196,noRew,,,,,,1,,,,,,,,low,15,0,15,0,1,,,,,,,,,
293404,2022-09-21_10h22.44.895,vts_reward_expectancy,2022.2.4,Win32,59.67655308,Chrome,1536,1024,,,,,10,897,,,,,,,,,,,,,,,,,125,U,hexagon,1,0,,,,,,,,,,,,,,,,repeat,number,numRpt,d,0.6716,noRew,,,,,,1,,,,,,,,low,16,0,16,0,1,,,,,,,,,
293404,2022-09-21_10h22.44.895,vts_reward_expectancy,2022.2.4,Win32,59.67655308,Chrome,1536,1024,,,,,0,897,,,,,,,,,,,,,,,,,174,S,star,1,0,,,,,,,,,,,,,,,,repeat,number,numRpt,f,0.6542,noRew,,,,,,1,,,,,,,,low,17,0,17,0,1,,,,,,,,,
293404,2022-09-21_10h22.44.895,vts_reward_expectancy,2022.2.4,Win32,59.67655308,Chrome,1536,1024,,,,,1,898,,,,,,,,,,,,,,,,,146,H,hexagon,1,0,,,,,,,,,,,,,,,,repeat,number,numRpt,d,0.9009,noRew,,,,,,1,,,,,,,,low,18,0,18,0,1,,,,,,,,,
293404,2022-09-21_10h22.44.895,vts_reward_expectancy,2022.2.4,Win32,59.67655308,Chrome,1536,1024,,,,,0,898,,,,,,,,,,,,,,,,,139,Y,star,1,0,,,,,,,,,,,,,,,,switch,letter,lettSwt,k,0.7173,noRew,,,,,,1,,,,,,,,low,19,0,19,0,1,,,,,,,,,
293404,2022-09-21_10h22.44.895,vts_reward_expectancy,2022.2.4,Win32,59.67655308,Chrome,1536,1024,,,,,1,899,,,,,,,,,,,,,,,,,132,F,hexagon,1,0,,,,,,,,,,,,,,,,repeat,letter,lettRpt,j,0.6254,noRew,,,,,,1,,,,,,,,low,20,0,20,0,1,,,,,,,,,
293404,2022-09-21_10h22.44.895,vts_reward_expectancy,2022.2.4,Win32,59.67655308,Chrome,1536,1024,,,,,10,909,,,,,,,,,,,,,,,,,160,B,star,1,0,,,,,,,,,,,,,,,,repeat,letter,lettRpt,j,0.4752,noRew,,,,,,1,,,,,,,,low,21,0,21,0,1,,,,,,,,,
293404,2022-09-21_10h22.44.895,vts_reward_expectancy,2022.2.4,Win32,59.67655308,Chrome,1536,1024,,,,,1,910,,,,,,,,,,,,,,,,,167,D,hexagon,1,0,,,,,,,,,,,,,,,,repeat,letter,lettRpt,j,0.6245,noRew,,,,,,1,,,,,,,,low,22,0,22,0,1,,,,,,,,,
293404,2022-09-21_10h22.44.895,vts_reward_expectancy,2022.2.4,Win32,59.67655308,Chrome,1536,1024,,,,,0,910,,,,,,,,,,,,,,,,,181,W,star,1,0,,,,,,,,,,,,,,,,repeat,letter,lettRpt,k,0.799,noRew,,,,,,1,,,,,,,,low,23,0,23,0,1,,,,,,,,,
293404,2022-09-21_10h22.44.895,vts_reward_expectancy,2022.2.4,Win32,59.67655308,Chrome,1536,1024,,,,,10,920,,,,,,,,,,,,,,,,,125,F,hexagon,1,0,,,,,,,,,,,,,,,,switch,number,numSwt,d,0.5894,noRew,,,,,,1,,,,,,,,low,24,0,24,0,1,,,,,,,,,
293404,2022-09-21_10h22.44.895,vts_reward_expectancy,2022.2.4,Win32,59.67655308,Chrome,1536,1024,,,,,1,921,,,,,,,,,,,,,,,,,160,W,star,1,0,,,,,,,,,,,,,,,,repeat,number,numRpt,f,0.6094,noRew,,,,,,1,,,,,,,,low,25,0,25,0,1,,,,,,,,,
293404,2022-09-21_10h22.44.895,vts_reward_expectancy,2022.2.4,Win32,59.67655308,Chrome,1536,1024,,,,,1,922,,,,,,,,,,,,,,,,,167,B,hexagon,1,0,,,,,,,,,,,,,,,,switch,letter,lettSwt,j,0.6678,noRew,,,,,,1,,,,,,,,low,26,0,26,0,1,,,,,,,,,
293404,2022-09-21_10h22.44.895,vts_reward_expectancy,2022.2.4,Win32,59.67655308,Chrome,1536,1024,,,,,1,923,,,,,,,,,,,,,,,,,174,Y,star,1,0,,,,,,,,,,,,,,,,repeat,letter,lettRpt,k,0.5197,noRew,,,,,,1,,,,,,,,low,27,0,27,0,1,,,,,,,,,
293404,2022-09-21_10h22.44.895,vts_reward_expectancy,2022.2.4,Win32,59.67655308,Chrome,1536,1024,,,,,10,933,,,,,,,,,,,,,,,,,146,D,star,1,0,,,,,,,,,,,,,,,,switch,number,numSwt,d,0.4849,noRew,,,,,,1,,,,,,,,low,28,0,28,0,1,,,,,,,,,
293404,2022-09-21_10h22.44.895,vts_reward_expectancy,2022.2.4,Win32,59.67655308,Chrome,1536,1024,,,,,1,934,,,,,,,,,,,,,,,,,181,U,hexagon,1,0,,,,,,,,,,,,,,,,repeat,number,numRpt,f,0.5332,noRew,,,,,,1,,,,,,,,low,29,0,29,0,1,,,,,,,,,
293404,2022-09-21_10h22.44.895,vts_reward_expectancy,2022.2.4,Win32,59.67655308,Chrome,1536,1024,,,,,1,935,,,,,,,,,,,,,,,,,132,S,star,1,0,,,,,,,,,,,,,,,,repeat,number,numRpt,d,0.5335,noRew,,,,,,1,,,,,,,,low,30,0,30,0,1,,,,,,,,,
293404,2022-09-21_10h22.44.895,vts_reward_expectancy,2022.2.4,Win32,59.67655308,Chrome,1536,1024,,,,,1,936,,,,,,,,,,,,,,,,,139,H,hexagon,1,0,,,,,,,,,,,,,,,,repeat,number,numRpt,d,0.9051,noRew,,,,,,1,,,,,,,,low,31,0,31,0,1,,,,,,,,,
293404,2022-09-21_10h22.44.895,vts_reward_expectancy,2022.2.4,Win32,59.67655308,Chrome,1536,1024,,,,,0,936,,,,,,,,,,,,,,,,,174,S,star,1,0,,,,,,,,,,,,,,,,repeat,number,numRpt,f,0.667,noRew,,,,,,2,,,,,,space,0.7681,low,0,0,0,0,1,,,,,,,,,
293404,2022-09-21_10h22.44.895,vts_reward_expectancy,2022.2.4,Win32,59.67655308,Chrome,1536,1024,,,,,1,937,,,,,,,,,,,,,,,,,160,B,hexagon,1,0,,,,,,,,,,,,,,,,repeat,number,numRpt,f,0.596,noRew,,,,,,2,,,,,,,,low,1,0,1,0,1,,,,,,,,,
293404,2022-09-21_10h22.44.895,vts_reward_expectancy,2022.2.4,Win32,59.67655308,Chrome,1536,1024,,,,,10,947,,,,,,,,,,,,,,,,,132,Y,star,1,0,,,,,,,,,,,,,,,,repeat,number,numRpt,d,0.536,noRew,,,,,,2,,,,,,,,low,2,0,2,0,1,,,,,,,,,
293404,2022-09-21_10h22.44.895,vts_reward_expectancy,2022.2.4,Win32,59.67655308,Chrome,1536,1024,,,,,1,948,,,,,,,,,,,,,,,,,146,H,hexagon,1,0,,,,,,,,,,,,,,,,repeat,number,numRpt,d,0.602,noRew,,,,,,2,,,,,,,,low,3,0,3,0,1,,,,,,,,,
293404,2022-09-21_10h22.44.895,vts_reward_expectancy,2022.2.4,Win32,59.67655308,Chrome,1536,1024,,,,,10,958,,,,,,,,,,,,,,,,,167,U,star,1,0,,,,,,,,,,,,,,,,switch,letter,lettSwt,k,0.4691,noRew,,,,,,2,,,,,,,,low,4,0,4,0,1,,,,,,,,,
293404,2022-09-21_10h22.44.895,vts_reward_expectancy,2022.2.4,Win32,59.67655308,Chrome,1536,1024,,,,,1,959,,,,,,,,,,,,,,,,,125,F,hexagon,1,0,,,,,,,,,,,,,,,,repeat,letter,lettRpt,j,0.4562,noRew,,,,,,2,,,,,,,,low,5,0,5,0,1,,,,,,,,,
293404,2022-09-21_10h22.44.895,vts_reward_expectancy,2022.2.4,Win32,59.67655308,Chrome,1536,1024,,,,,1,960,,,,,,,,,,,,,,,,,181,W,hexagon,1,0,,,,,,,,,,,,,,,,repeat,letter,lettRpt,k,0.3853,noRew,,,,,,2,,,,,,,,low,6,0,6,0,1,,,,,,,,,
293404,2022-09-21_10h22.44.895,vts_reward_expectancy,2022.2.4,Win32,59.67655308,Chrome,1536,1024,,,,,0,960,,,,,,,,,,,,,,,,,139,D,star,1,0,,,,,,,,,,,,,,,,switch,number,numSwt,d,0.9356,noRew,,,,,,2,,,,,,,,low,7,0,7,0,1,,,,,,,,,
293404,2022-09-21_10h22.44.895,vts_reward_expectancy,2022.2.4,Win32,59.67655308,Chrome,1536,1024,,,,,10,970,,,,,,,,,,,,,,,,,174,S,hexagon,1,0,,,,,,,,,,,,,,,,repeat,number,numRpt,f,0.6676,noRew,,,,,,2,,,,,,,,low,8,0,8,0,1,,,,,,,,,
293404,2022-09-21_10h22.44.895,vts_reward_expectancy,2022.2.4,Win32,59.67655308,Chrome,1536,1024,,,,,0,970,,,,,,,,,,,,,,,,,160,B,star,1,0,,,,,,,,,,,,,,,,repeat,number,numRpt,f,0.5788,noRew,,,,,,2,,,,,,,,low,9,0,9,0,1,,,,,,,,,
293404,2022-09-21_10h22.44.895,vts_reward_expectancy,2022.2.4,Win32,59.67655308,Chrome,1536,1024,,,,,1,971,,,,,,,,,,,,,,,,,132,Y,star,1,0,,,,,,,,,,,,,,,,switch,letter,lettSwt,k,0.4831,noRew,,,,,,2,,,,,,,,low,10,0,10,0,1,,,,,,,,,
293404,2022-09-21_10h22.44.895,vts_reward_expectancy,2022.2.4,Win32,59.67655308,Chrome,1536,1024,,,,,1,972,,,,,,,,,,,,,,,,,146,H,hexagon,1,0,,,,,,,,,,,,,,,,repeat,letter,lettRpt,j,0.4667,noRew,,,,,,2,,,,,,,,low,11,0,11,0,1,,,,,,,,,
293404,2022-09-21_10h22.44.895,vts_reward_expectancy,2022.2.4,Win32,59.67655308,Chrome,1536,1024,,,,,1,973,,,,,,,,,,,,,,,,,167,U,hexagon,1,0,,,,,,,,,,,,,,,,repeat,letter,lettRpt,k,0.6052,noRew,,,,,,2,,,,,,,,low,12,0,12,0,1,,,,,,,,,
293404,2022-09-21_10h22.44.895,vts_reward_expectancy,2022.2.4,Win32,59.67655308,Chrome,1536,1024,,,,,10,983,,,,,,,,,,,,,,,,,125,F,star,1,0,,,,,,,,,,,,,,,,switch,number,numSwt,d,0.4505,noRew,,,,,,2,,,,,,,,low,13,0,13,0,1,,,,,,,,,
293404,2022-09-21_10h22.44.895,vts_reward_expectancy,2022.2.4,Win32,59.67655308,Chrome,1536,1024,,,,,10,993,,,,,,,,,,,,,,,,,181,W,star,1,0,,,,,,,,,,,,,,,,repeat,number,numRpt,f,0.4997,noRew,,,,,,2,,,,,,,,low,14,0,14,0,1,,,,,,,,,
293404,2022-09-21_10h22.44.895,vts_reward_expectancy,2022.2.4,Win32,59.67655308,Chrome,1536,1024,,,,,1,994,,,,,,,,,,,,,,,,,139,D,hexagon,1,0,,,,,,,,,,,,,,,,repeat,number,numRpt,d,0.5744,noRew,,,,,,2,,,,,,,,low,15,0,15,0,1,,,,,,,,,
293404,2022-09-21_10h22.44.895,vts_reward_expectancy,2022.2.4,Win32,59.67655308,Chrome,1536,1024,,,,,10,1004,,,,,,,,,,,,,,,,,174,W,star,1,0,,,,,,,,,,,,,,,,repeat,number,numRpt,f,0.5355,noRew,,,,,,2,,,,,,,,low,16,0,16,0,1,,,,,,,,,
293404,2022-09-21_10h22.44.895,vts_reward_expectancy,2022.2.4,Win32,59.67655308,Chrome,1536,1024,,,,,10,1014,,,,,,,,,,,,,,,,,167,F,hexagon,1,0,,,,,,,,,,,,,,,,repeat,number,numRpt,f,0.5337,noRew,,,,,,2,,,,,,,,low,17,0,17,0,1,,,,,,,,,
293404,2022-09-21_10h22.44.895,vts_reward_expectancy,2022.2.4,Win32,59.67655308,Chrome,1536,1024,,,,,0,1014,,,,,,,,,,,,,,,,,132,S,star,1,0,,,,,,,,,,,,,,,,repeat,number,numRpt,d,0.5736,noRew,,,,,,2,,,,,,,,low,18,0,18,0,1,,,,,,,,,
293404,2022-09-21_10h22.44.895,vts_reward_expectancy,2022.2.4,Win32,59.67655308,Chrome,1536,1024,,,,,1,1015,,,,,,,,,,,,,,,,,139,H,hexagon,1,0,,,,,,,,,,,,,,,,switch,letter,lettSwt,j,0.5297,noRew,,,,,,2,,,,,,,,low,19,0,19,0,1,,,,,,,,,
293404,2022-09-21_10h22.44.895,vts_reward_expectancy,2022.2.4,Win32,59.67655308,Chrome,1536,1024,,,,,0,1015,,,,,,,,,,,,,,,,,181,U,star,1,0,,,,,,,,,,,,,,,,repeat,letter,lettRpt,k,0.9678,noRew,,,,,,2,,,,,,,,low,20,0,20,0,1,,,,,,,,,
293404,2022-09-21_10h22.44.895,vts_reward_expectancy,2022.2.4,Win32,59.67655308,Chrome,1536,1024,,,,,10,1025,,,,,,,,,,,,,,,,,160,D,hexagon,1,0,,,,,,,,,,,,,,,,repeat,letter,lettRpt,j,0.6351,noRew,,,,,,2,,,,,,,,low,21,0,21,0,1,,,,,,,,,
293404,2022-09-21_10h22.44.895,vts_reward_expectancy,2022.2.4,Win32,59.67655308,Chrome,1536,1024,,,,,1,1026,,,,,,,,,,,,,,,,,125,Y,star,1,0,,,,,,,,,,,,,,,,repeat,letter,lettRpt,k,0.4336,noRew,,,,,,2,,,,,,,,low,22,0,22,0,1,,,,,,,,,
293404,2022-09-21_10h22.44.895,vts_reward_expectancy,2022.2.4,Win32,59.67655308,Chrome,1536,1024,,,,,1,1027,,,,,,,,,,,,,,,,,146,B,hexagon,1,0,,,,,,,,,,,,,,,,switch,number,numSwt,d,0.5849,noRew,,,,,,2,,,,,,,,low,23,0,23,0,1,,,,,,,,,
293404,2022-09-21_10h22.44.895,vts_reward_expectancy,2022.2.4,Win32,59.67655308,Chrome,1536,1024,,,,,0,1027,,,,,,,,,,,,,,,,,132,S,star,1,0,,,,,,,,,,,,,,,,repeat,number,numRpt,d,0.7003,noRew,,,,,,2,,,,,,,,low,24,0,24,0,1,,,,,,,,,
293404,2022-09-21_10h22.44.895,vts_reward_expectancy,2022.2.4,Win32,59.67655308,Chrome,1536,1024,,,,,10,1037,,,,,,,,,,,,,,,,,125,Y,hexagon,1,0,,,,,,,,,,,,,,,,switch,letter,lettSwt,k,0.9865,noRew,,,,,,2,,,,,,,,low,25,0,25,0,1,,,,,,,,,
293404,2022-09-21_10h22.44.895,vts_reward_expectancy,2022.2.4,Win32,59.67655308,Chrome,1536,1024,,,,,1,1038,,,,,,,,,,,,,,,,,167,U,hexagon,1,0,,,,,,,,,,,,,,,,switch,number,numSwt,f,0.6862,noRew,,,,,,2,,,,,,,,low,26,0,26,0,1,,,,,,,,,
293404,2022-09-21_10h22.44.895,vts_reward_expectancy,2022.2.4,Win32,59.67655308,Chrome,1536,1024,,,,,0,1038,,,,,,,,,,,,,,,,,146,F,star,1,0,,,,,,,,,,,,,,,,repeat,number,numRpt,d,0.8986,noRew,,,,,,2,,,,,,,,low,27,0,27,0,1,,,,,,,,,
293404,2022-09-21_10h22.44.895,vts_reward_expectancy,2022.2.4,Win32,59.67655308,Chrome,1536,1024,,,,,0,1038,,,,,,,,,,,,,,,,,181,W,star,1,0,,,,,,,,,,,,,,,,switch,letter,lettSwt,k,0.6258,noRew,,,,,,2,,,,,,,,low,28,0,28,0,1,,,,,,,,,
293404,2022-09-21_10h22.44.895,vts_reward_expectancy,2022.2.4,Win32,59.67655308,Chrome,1536,1024,,,,,1,1039,,,,,,,,,,,,,,,,,174,D,hexagon,1,0,,,,,,,,,,,,,,,,repeat,letter,lettRpt,j,1.1252,noRew,,,,,,2,,,,,,,,low,29,0,29,0,1,,,,,,,,,
293404,2022-09-21_10h22.44.895,vts_reward_expectancy,2022.2.4,Win32,59.67655308,Chrome,1536,1024,,,,,10,1049,,,,,,,,,,,,,,,,,139,B,hexagon,1,0,,,,,,,,,,,,,,,,repeat,letter,lettRpt,j,0.8666,noRew,,,,,,2,,,,,,,,low,30,0,30,0,1,,,,,,,,,
293404,2022-09-21_10h22.44.895,vts_reward_expectancy,2022.2.4,Win32,59.67655308,Chrome,1536,1024,,,,,0,1049,,,,,,,,,,,,,,,,,160,H,star,1,0,,,,,,,,,,,,,,,,switch,number,numSwt,f,0.7939,noRew,,,,,,2,,,,,,,,low,31,0,31,0,1,,,,,,,,,
293404,2022-09-21_10h22.44.895,vts_reward_expectancy,2022.2.4,Win32,59.67655308,Chrome,1536,1024,,,,,0,1049,,,,,,,,,,,,,,,,,132,D,circle,1,0,,,,,,,,,,,,,,,,repeat,number,numRpt,d,0.9698,noRew,,,,,,3,,,,,,space,0.6174,high,0,0,0,0,1,,,,,,,,,
293404,2022-09-21_10h22.44.895,vts_reward_expectancy,2022.2.4,Win32,59.67655308,Chrome,1536,1024,,,,,1,1050,,,,,,,,,,,,,,,,,146,S,triangle,1,0,,,,,,,,,,,,,,,,switch,letter,lettSwt,k,0.6952,noRew,,,,,,3,,,,,,,,high,1,0,1,0,1,,,,,,,,,
293404,2022-09-21_10h22.44.895,vts_reward_expectancy,2022.2.4,Win32,59.67655308,Chrome,1536,1024,,,,,0,1050,,,,,,,,,,,,,,,,,139,Y,circle,1,0,,,,,,,,,,,,,,,,repeat,letter,lettRpt,k,0.7123,noRew,,,,,,3,,,,,,,,high,2,0,2,0,1,,,,,,,,,
293404,2022-09-21_10h22.44.895,vts_reward_expectancy,2022.2.4,Win32,59.67655308,Chrome,1536,1024,,,,,10,1060,,,,,,,,,,,,,,,,,181,U,triangle,1,0,,,,,,,,,,,,,,,,repeat,letter,lettRpt,k,0.7013,noRew,,,,,,3,,,,,,,,high,3,0,3,0,1,,,,,,,,,
293404,2022-09-21_10h22.44.895,vts_reward_expectancy,2022.2.4,Win32,59.67655308,Chrome,1536,1024,,,,,10,1070,,,,,,,,,,,,,,,,,174,F,circle,1,0,,,,,,,,,,,,,,,,switch,number,numSwt,f,0.5181,noRew,,,,,,3,,,,,,,,high,4,0,4,0,1,,,,,,,,,
293404,2022-09-21_10h22.44.895,vts_reward_expectancy,2022.2.4,Win32,59.67655308,Chrome,1536,1024,,,,,1,1071,,,,,,,,,,,,,,,,,167,H,triangle,1,0,,,,,,,,,,,,,,,,repeat,number,numRpt,f,0.5676,noRew,,,,,,3,,,,,,,,high,5,0,5,0,1,,,,,,,,,
293404,2022-09-21_10h22.44.895,vts_reward_expectancy,2022.2.4,Win32,59.67655308,Chrome,1536,1024,,,,,1,1072,,,,,,,,,,,,,,,,,125,W,triangle,1,0,,,,,,,,,,,,,,,,repeat,number,numRpt,d,0.5998,noRew,,,,,,3,,,,,,,,high,6,0,6,0,1,,,,,,,,,
293404,2022-09-21_10h22.44.895,vts_reward_expectancy,2022.2.4,Win32,59.67655308,Chrome,1536,1024,,,,,0,1072,,,,,,,,,,,,,,,,,160,B,circle,1,0,,,,,,,,,,,,,,,,switch,letter,lettSwt,j,0.501,noRew,,,,,,3,,,,,,,,high,7,0,7,0,1,,,,,,,,,
293404,2022-09-21_10h22.44.895,vts_reward_expectancy,2022.2.4,Win32,59.67655308,Chrome,1536,1024,,,,,1,1073,,,,,,,,,,,,,,,,,132,D,triangle,1,0,,,,,,,,,,,,,,,,switch,number,numSwt,d,0.6349,noRew,,,,,,3,,,,,,,,high,8,0,8,0,1,,,,,,,,,
293404,2022-09-21_10h22.44.895,vts_reward_expectancy,2022.2.4,Win32,59.67655308,Chrome,1536,1024,,,,,0,1073,,,,,,,,,,,,,,,,,146,S,circle,1,0,,,,,,,,,,,,,,,,repeat,number,numRpt,d,0.7111,noRew,,,,,,3,,,,,,,,high,9,0,9,0,1,,,,,,,,,
293404,2022-09-21_10h22.44.895,vts_reward_expectancy,2022.2.4,Win32,59.67655308,Chrome,1536,1024,,,,,10,1083,,,,,,,,,,,,,,,,,139,Y,triangle,1,0,,,,,,,,,,,,,,,,repeat,number,numRpt,d,0.8022,noRew,,,,,,3,,,,,,,,high,10,0,10,0,1,,,,,,,,,
293404,2022-09-21_10h22.44.895,vts_reward_expectancy,2022.2.4,Win32,59.67655308,Chrome,1536,1024,,,,,0,1083,,,,,,,,,,,,,,,,,181,U,circle,1,0,,,,,,,,,,,,,,,,repeat,number,numRpt,f,0.6182,noRew,,,,,,3,,,,,,,,high,11,0,11,0,1,,,,,,,,,
293404,2022-09-21_10h22.44.895,vts_reward_expectancy,2022.2.4,Win32,59.67655308,Chrome,1536,1024,,,,,1,1084,,,,,,,,,,,,,,,,,174,F,triangle,1,0,,,,,,,,,,,,,,,,switch,letter,lettSwt,j,0.5021,noRew,,,,,,3,,,,,,,,high,12,0,12,0,1,,,,,,,,,
293404,2022-09-21_10h22.44.895,vts_reward_expectancy,2022.2.4,Win32,59.67655308,Chrome,1536,1024,,,,,0,1084,,,,,,,,,,,,,,,,,167,H,circle,1,0,,,,,,,,,,,,,,,,repeat,letter,lettRpt,j,0.9011,noRew,,,,,,3,,,,,,,,high,13,0,13,0,1,,,,,,,,,
293404,2022-09-21_10h22.44.895,vts_reward_expectancy,2022.2.4,Win32,59.67655308,Chrome,1536,1024,,,,,10,1094,,,,,,,,,,,,,,,,,125,W,circle,1,0,,,,,,,,,,,,,,,,switch,number,numSwt,d,0.5739,noRew,,,,,,3,,,,,,,,high,14,0,14,0,1,,,,,,,,,
293404,2022-09-21_10h22.44.895,vts_reward_expectancy,2022.2.4,Win32,59.67655308,Chrome,1536,1024,,,,,1,1095,,,,,,,,,,,,,,,,,160,B,triangle,1,0,,,,,,,,,,,,,,,,switch,letter,lettSwt,j,0.8109,noRew,,,,,,3,,,,,,,,high,15,0,15,0,1,,,,,,,,,
293404,2022-09-21_10h22.44.895,vts_reward_expectancy,2022.2.4,Win32,59.67655308,Chrome,1536,1024,,,,,0,1095,,,,,,,,,,,,,,,,,181,Y,circle,1,0,,,,,,,,,,,,,,,,switch,number,numSwt,f,0.9673,noRew,,,,,,3,,,,,,,,high,16,0,16,0,1,,,,,,,,,
293404,2022-09-21_10h22.44.895,vts_reward_expectancy,2022.2.4,Win32,59.67655308,Chrome,1536,1024,,,,,10,1105,,,,,,,,,,,,,,,,,132,B,triangle,1,0,,,,,,,,,,,,,,,,repeat,number,numRpt,d,0.5172,noRew,,,,,,3,,,,,,,,high,17,0,17,0,1,,,,,,,,,
293404,2022-09-21_10h22.44.895,vts_reward_expectancy,2022.2.4,Win32,59.67655308,Chrome,1536,1024,,,,,0,1105,,,,,,,,,,,,,,,,,167,F,circle,1,0,,,,,,,,,,,,,,,,repeat,number,numRpt,f,0.5853,noRew,,,,,,3,,,,,,,,high,18,0,18,0,1,,,,,,,,,
293404,2022-09-21_10h22.44.895,vts_reward_expectancy,2022.2.4,Win32,59.67655308,Chrome,1536,1024,,,,,1,1106,,,,,,,,,,,,,,,,,139,H,triangle,1,0,,,,,,,,,,,,,,,,repeat,number,numRpt,d,0.6873,noRew,,,,,,3,,,,,,,,high,19,0,19,0,1,,,,,,,,,
293404,2022-09-21_10h22.44.895,vts_reward_expectancy,2022.2.4,Win32,59.67655308,Chrome,1536,1024,,,,,10,1116,,,,,,,,,,,,,,,,,125,U,circle,1,0,,,,,,,,,,,,,,,,repeat,number,numRpt,d,0.4855,noRew,,,,,,3,,,,,,,,high,20,0,20,0,1,,,,,,,,,
293404,2022-09-21_10h22.44.895,vts_reward_expectancy,2022.2.4,Win32,59.67655308,Chrome,1536,1024,,,,,1,1117,,,,,,,,,,,,,,,,,160,D,triangle,1,0,,,,,,,,,,,,,,,,switch,letter,lettSwt,j,0.762,noRew,,,,,,3,,,,,,,,high,21,0,21,0,1,,,,,,,,,
293404,2022-09-21_10h22.44.895,vts_reward_expectancy,2022.2.4,Win32,59.67655308,Chrome,1536,1024,,,,,0,1117,,,,,,,,,,,,,,,,,174,S,circle,1,0,,,,,,,,,,,,,,,,repeat,letter,lettRpt,k,0.5229,noRew,,,,,,3,,,,,,,,high,22,0,22,0,1,,,,,,,,,
293404,2022-09-21_10h22.44.895,vts_reward_expectancy,2022.2.4,Win32,59.67655308,Chrome,1536,1024,,,,,1,1118,,,,,,,,,,,,,,,,,146,W,triangle,1,0,,,,,,,,,,,,,,,,repeat,letter,lettRpt,k,0.6556,noRew,,,,,,3,,,,,,,,high,23,0,23,0,1,,,,,,,,,
293404,2022-09-21_10h22.44.895,vts_reward_expectancy,2022.2.4,Win32,59.67655308,Chrome,1536,1024,,,,,10,1128,,,,,,,,,,,,,,,,,160,B,circle,1,0,,,,,,,,,,,,,,,,switch,number,numSwt,f,0.5581,noRew,,,,,,3,,,,,,,,high,24,0,24,0,1,,,,,,,,,
293404,2022-09-21_10h22.44.895,vts_reward_expectancy,2022.2.4,Win32,59.67655308,Chrome,1536,1024,,,,,1,1129,,,,,,,,,,,,,,,,,139,U,triangle,1,0,,,,,,,,,,,,,,,,repeat,number,numRpt,d,0.5194,noRew,,,,,,3,,,,,,,,high,25,0,25,0,1,,,,,,,,,
293404,2022-09-21_10h22.44.895,vts_reward_expectancy,2022.2.4,Win32,59.67655308,Chrome,1536,1024,,,,,0,1129,,,,,,,,,,,,,,,,,132,F,circle,1,0,,,,,,,,,,,,,,,,repeat,number,numRpt,d,0.5833,noRew,,,,,,3,,,,,,,,high,26,0,26,0,1,,,,,,,,,
293404,2022-09-21_10h22.44.895,vts_reward_expectancy,2022.2.4,Win32,59.67655308,Chrome,1536,1024,,,,,1,1130,,,,,,,,,,,,,,,,,174,Y,triangle,1,0,,,,,,,,,,,,,,,,switch,letter,lettSwt,k,1.0609,noRew,,,,,,3,,,,,,,,high,27,0,27,0,1,,,,,,,,,
293404,2022-09-21_10h22.44.895,vts_reward_expectancy,2022.2.4,Win32,59.67655308,Chrome,1536,1024,,,,,1,1131,,,,,,,,,,,,,,,,,146,H,triangle,1,0,,,,,,,,,,,,,,,,repeat,letter,lettRpt,j,0.4924,noRew,,,,,,3,,,,,,,,high,28,0,28,0,1,,,,,,,,,
293404,2022-09-21_10h22.44.895,vts_reward_expectancy,2022.2.4,Win32,59.67655308,Chrome,1536,1024,,,,,0,1131,,,,,,,,,,,,,,,,,167,S,circle,1,0,,,,,,,,,,,,,,,,repeat,letter,lettRpt,k,1.0505,noRew,,,,,,3,,,,,,,,high,29,0,29,0,1,,,,,,,,,
293404,2022-09-21_10h22.44.895,vts_reward_expectancy,2022.2.4,Win32,59.67655308,Chrome,1536,1024,,,,,1,1132,,,,,,,,,,,,,,,,,125,W,triangle,1,0,,,,,,,,,,,,,,,,repeat,letter,lettRpt,k,0.7354,noRew,,,,,,3,,,,,,,,high,30,0,30,0,1,,,,,,,,,
293404,2022-09-21_10h22.44.895,vts_reward_expectancy,2022.2.4,Win32,59.67655308,Chrome,1536,1024,,,,,1,1133,,,,,,,,,,,,,,,,,181,D,circle,1,0,,,,,,,,,,,,,,,,switch,number,numSwt,f,0.52,noRew,,,,,,3,,,,,,,,high,31,0,31,0,1,,,,,,,,,
293404,2022-09-21_10h22.44.895,vts_reward_expectancy,2022.2.4,Win32,59.67655308,Chrome,1536,1024,,,,,0,1133,,,,,,,,,,,,,,,,,167,U,circle,1,0,,,,,,,,,,,,,,,,switch,letter,lettSwt,k,1.343,noRew,,,,,,4,,,,,,space,0.3617,high,0,0,0,0,1,,,,,,,,,
293404,2022-09-21_10h22.44.895,vts_reward_expectancy,2022.2.4,Win32,59.67655308,Chrome,1536,1024,,,,,1,1134,,,,,,,,,,,,,,,,,125,D,triangle,1,0,,,,,,,,,,,,,,,,switch,number,numSwt,d,0.8171,noRew,,,,,,4,,,,,,,,high,1,0,1,0,1,,,,,,,,,
293404,2022-09-21_10h22.44.895,vts_reward_expectancy,2022.2.4,Win32,59.67655308,Chrome,1536,1024,,,,,1,1135,,,,,,,,,,,,,,,,,181,B,circle,1,0,,,,,,,,,,,,,,,,repeat,number,numRpt,f,0.5332,noRew,,,,,,4,,,,,,,,high,2,0,2,0,1,,,,,,,,,
293404,2022-09-21_10h22.44.895,vts_reward_expectancy,2022.2.4,Win32,59.67655308,Chrome,1536,1024,,,,,10,1145,,,,,,,,,,,,,,,,,160,H,triangle,1,0,,,,,,,,,,,,,,,,switch,letter,lettSwt,j,0.501,noRew,,,,,,4,,,,,,,,high,3,0,3,0,1,,,,,,,,,
293404,2022-09-21_10h22.44.895,vts_reward_expectancy,2022.2.4,Win32,59.67655308,Chrome,1536,1024,,,,,1,1146,,,,,,,,,,,,,,,,,146,F,triangle,1,0,,,,,,,,,,,,,,,,switch,number,numSwt,d,0.8431,noRew,,,,,,4,,,,,,,,high,4,0,4,0,1,,,,,,,,,
293404,2022-09-21_10h22.44.895,vts_reward_expectancy,2022.2.4,Win32,59.67655308,Chrome,1536,1024,,,,,10,1156,,,,,,,,,,,,,,,,,132,S,circle,1,0,,,,,,,,,,,,,,,,repeat,number,numRpt,d,0.5244,noRew,,,,,,4,,,,,,,,high,5,0,5,0,1,,,,,,,,,
293404,2022-09-21_10h22.44.895,vts_reward_expectancy,2022.2.4,Win32,59.67655308,Chrome,1536,1024,,,,,10,1166,,,,,,,,,,,,,,,,,174,Y,triangle,1,0,,,,,,,,,,,,,,,,switch,letter,lettSwt,k,0.5673,noRew,,,,,,4,,,,,,,,high,6,0,6,0,1,,,,,,,,,
293404,2022-09-21_10h22.44.895,vts_reward_expectancy,2022.2.4,Win32,59.67655308,Chrome,1536,1024,,,,,0,1166,,,,,,,,,,,,,,,,,139,W,circle,1,0,,,,,,,,,,,,,,,,repeat,letter,lettRpt,k,1.4001,noRew,,,,,,4,,,,,,,,high,7,0,7,0,1,,,,,,,,,
293404,2022-09-21_10h22.44.895,vts_reward_expectancy,2022.2.4,Win32,59.67655308,Chrome,1536,1024,,,,,1,1167,,,,,,,,,,,,,,,,,167,U,triangle,1,0,,,,,,,,,,,,,,,,repeat,letter,lettRpt,k,0.6073,noRew,,,,,,4,,,,,,,,high,8,0,8,0,1,,,,,,,,,
293404,2022-09-21_10h22.44.895,vts_reward_expectancy,2022.2.4,Win32,59.67655308,Chrome,1536,1024,,,,,0,1167,,,,,,,,,,,,,,,,,125,D,circle,1,0,,,,,,,,,,,,,,,,repeat,letter,lettRpt,j,0.924,noRew,,,,,,4,,,,,,,,high,9,0,9,0,1,,,,,,,,,
293404,2022-09-21_10h22.44.895,vts_reward_expectancy,2022.2.4,Win32,59.67655308,Chrome,1536,1024,,,,,0,1167,,,,,,,,,,,,,,,,,181,B,circle,1,0,,,,,,,,,,,,,,,,repeat,letter,lettRpt,j,0.8348,noRew,,,,,,4,,,,,,,,high,10,0,10,0,1,,,,,,,,,
293404,2022-09-21_10h22.44.895,vts_reward_expectancy,2022.2.4,Win32,59.67655308,Chrome,1536,1024,,,,,1,1168,,,,,,,,,,,,,,,,,160,H,triangle,1,0,,,,,,,,,,,,,,,,switch,number,numSwt,f,0.4549,noRew,,,,,,4,,,,,,,,high,11,0,11,0,1,,,,,,,,,
293404,2022-09-21_10h22.44.895,vts_reward_expectancy,2022.2.4,Win32,59.67655308,Chrome,1536,1024,,,,,10,1178,,,,,,,,,,,,,,,,,146,F,circle,1,0,,,,,,,,,,,,,,,,repeat,number,numRpt,d,0.4549,noRew,,,,,,4,,,,,,,,high,12,0,12,0,1,,,,,,,,,
293404,2022-09-21_10h22.44.895,vts_reward_expectancy,2022.2.4,Win32,59.67655308,Chrome,1536,1024,,,,,1,1179,,,,,,,,,,,,,,,,,132,S,triangle,1,0,,,,,,,,,,,,,,,,repeat,number,numRpt,d,0.4668,noRew,,,,,,4,,,,,,,,high,13,0,13,0,1,,,,,,,,,
293404,2022-09-21_10h22.44.895,vts_reward_expectancy,2022.2.4,Win32,59.67655308,Chrome,1536,1024,,,,,1,1180,,,,,,,,,,,,,,,,,174,Y,triangle,1,0,,,,,,,,,,,,,,,,repeat,number,numRpt,f,0.5684,noRew,,,,,,4,,,,,,,,high,14,0,14,0,1,,,,,,,,,
293404,2022-09-21_10h22.44.895,vts_reward_expectancy,2022.2.4,Win32,59.67655308,Chrome,1536,1024,,,,,1,1181,,,,,,,,,,,,,,,,,139,W,circle,1,0,,,,,,,,,,,,,,,,repeat,number,numRpt,d,0.5505,noRew,,,,,,4,,,,,,,,high,15,0,15,0,1,,,,,,,,,
293404,2022-09-21_10h22.44.895,vts_reward_expectancy,2022.2.4,Win32,59.67655308,Chrome,1536,1024,,,,,1,1182,,,,,,,,,,,,,,,,,132,F,triangle,1,0,,,,,,,,,,,,,,,,repeat,number,numRpt,d,0.5841,noRew,,,,,,4,,,,,,,,high,16,0,16,0,1,,,,,,,,,
293404,2022-09-21_10h22.44.895,vts_reward_expectancy,2022.2.4,Win32,59.67655308,Chrome,1536,1024,,,,,1,1183,,,,,,,,,,,,,,,,,181,Y,circle,1,0,,,,,,,,,,,,,,,,switch,letter,lettSwt,k,0.4871,noRew,,,,,,4,,,,,,,,high,17,0,17,0,1,,,,,,,,,
293404,2022-09-21_10h22.44.895,vts_reward_expectancy,2022.2.4,Win32,59.67655308,Chrome,1536,1024,,,,,0,1183,,,,,,,,,,,,,,,,,146,S,circle,1,0,,,,,,,,,,,,,,,,repeat,letter,lettRpt,k,0.876,noRew,,,,,,4,,,,,,,,high,18,0,18,0,1,,,,,,,,,
293404,2022-09-21_10h22.44.895,vts_reward_expectancy,2022.2.4,Win32,59.67655308,Chrome,1536,1024,,,,,10,1193,,,,,,,,,,,,,,,,,125,W,triangle,1,0,,,,,,,,,,,,,,,,repeat,letter,lettRpt,k,0.4346,noRew,,,,,,4,,,,,,,,high,19,0,19,0,1,,,,,,,,,
293404,2022-09-21_10h22.44.895,vts_reward_expectancy,2022.2.4,Win32,59.67655308,Chrome,1536,1024,,,,,1,1194,,,,,,,,,,,,,,,,,160,H,triangle,1,0,,,,,,,,,,,,,,,,switch,number,numSwt,f,0.698,noRew,,,,,,4,,,,,,,,high,20,0,20,0,1,,,,,,,,,
293404,2022-09-21_10h22.44.895,vts_reward_expectancy,2022.2.4,Win32,59.67655308,Chrome,1536,1024,,,,,0,1194,,,,,,,,,,,,,,,,,167,B,circle,1,0,,,,,,,,,,,,,,,,repeat,number,numRpt,f,0.6191,noRew,,,,,,4,,,,,,,,high,21,0,21,0,1,,,,,,,,,
293404,2022-09-21_10h22.44.895,vts_reward_expectancy,2022.2.4,Win32,59.67655308,Chrome,1536,1024,,,,,0,1194,,,,,,,,,,,,,,,,,139,D,circle,1,0,,,,,,,,,,,,,,,,switch,letter,lettSwt,j,0.9415,noRew,,,,,,4,,,,,,,,high,22,0,22,0,1,,,,,,,,,
293404,2022-09-21_10h22.44.895,vts_reward_expectancy,2022.2.4,Win32,59.67655308,Chrome,1536,1024,,,,,1,1195,,,,,,,,,,,,,,,,,174,U,triangle,1,0,,,,,,,,,,,,,,,,repeat,letter,lettRpt,k,0.6345,noRew,,,,,,4,,,,,,,,high,23,0,23,0,1,,,,,,,,,
293404,2022-09-21_10h22.44.895,vts_reward_expectancy,2022.2.4,Win32,59.67655308,Chrome,1536,1024,,,,,1,1196,,,,,,,,,,,,,,,,,132,U,circle,1,0,,,,,,,,,,,,,,,,repeat,letter,lettRpt,k,0.6682,noRew,,,,,,4,,,,,,,,high,24,0,24,0,1,,,,,,,,,
293404,2022-09-21_10h22.44.895,vts_reward_expectancy,2022.2.4,Win32,59.67655308,Chrome,1536,1024,,,,,1,1197,,,,,,,,,,,,,,,,,139,D,triangle,1,0,,,,,,,,,,,,,,,,switch,number,numSwt,d,0.634,noRew,,,,,,4,,,,,,,,high,25,0,25,0,1,,,,,,,,,
293404,2022-09-21_10h22.44.895,vts_reward_expectancy,2022.2.4,Win32,59.67655308,Chrome,1536,1024,,,,,0,1197,,,,,,,,,,,,,,,,,160,H,circle,1,0,,,,,,,,,,,,,,,,repeat,number,numRpt,f,0.7101,noRew,,,,,,4,,,,,,,,high,26,0,26,0,1,,,,,,,,,
293404,2022-09-21_10h22.44.895,vts_reward_expectancy,2022.2.4,Win32,59.67655308,Chrome,1536,1024,,,,,1,1198,,,,,,,,,,,,,,,,,146,F,triangle,1,0,,,,,,,,,,,,,,,,switch,letter,lettSwt,j,0.9167,noRew,,,,,,4,,,,,,,,high,27,0,27,0,1,,,,,,,,,
293404,2022-09-21_10h22.44.895,vts_reward_expectancy,2022.2.4,Win32,59.67655308,Chrome,1536,1024,,,,,10,1208,,,,,,,,,,,,,,,,,174,B,circle,1,0,,,,,,,,,,,,,,,,repeat,letter,lettRpt,j,0.6388,noRew,,,,,,4,,,,,,,,high,28,0,28,0,1,,,,,,,,,
293404,2022-09-21_10h22.44.895,vts_reward_expectancy,2022.2.4,Win32,59.67655308,Chrome,1536,1024,,,,,1,1209,,,,,,,,,,,,,,,,,181,W,triangle,1,0,,,,,,,,,,,,,,,,switch,number,numSwt,f,0.6108,noRew,,,,,,4,,,,,,,,high,29,0,29,0,1,,,,,,,,,
293404,2022-09-21_10h22.44.895,vts_reward_expectancy,2022.2.4,Win32,59.67655308,Chrome,1536,1024,,,,,0,1209,,,,,,,,,,,,,,,,,167,Y,circle,1,0,,,,,,,,,,,,,,,,switch,letter,lettSwt,k,1.0438,noRew,,,,,,4,,,,,,,,high,30,0,30,0,1,,,,,,,,,
293404,2022-09-21_10h22.44.895,vts_reward_expectancy,2022.2.4,Win32,59.67655308,Chrome,1536,1024,,,,,1,1210,,,,,,,,,,,,,,,,,125,S,triangle,1,0,,,,,,,,,,,,,,,,switch,number,numSwt,d,1.0201,noRew,,,,,,4,,,,,,,,high,31,0,31,0,1,,,,,,,,,
293404,2022-09-21_10h22.44.895,vts_reward_expectancy,2022.2.4,Win32,59.67655308,Chrome,1536,1024,,,,,0,1210,,,,,,,,,,,,,,,,,174,W,star,1,0,,,,,,,,,,,,,,,,repeat,number,numRpt,f,0.728,noRew,,,,,,5,,,,,,space,0.9148,low,0,0,0,0,1,,,,,,,,,
293404,2022-09-21_10h22.44.895,vts_reward_expectancy,2022.2.4,Win32,59.67655308,Chrome,1536,1024,,,,,10,1220,,,,,,,,,,,,,,,,,139,U,hexagon,1,0,,,,,,,,,,,,,,,,repeat,number,numRpt,d,0.5339,noRew,,,,,,5,,,,,,,,low,1,0,1,0,1,,,,,,,,,
293404,2022-09-21_10h22.44.895,vts_reward_expectancy,2022.2.4,Win32,59.67655308,Chrome,1536,1024,,,,,0,1220,,,,,,,,,,,,,,,,,146,H,star,1,0,,,,,,,,,,,,,,,,switch,letter,lettSwt,j,0.5667,noRew,,,,,,5,,,,,,,,low,2,0,2,0,1,,,,,,,,,
293404,2022-09-21_10h22.44.895,vts_reward_expectancy,2022.2.4,Win32,59.67655308,Chrome,1536,1024,,,,,1,1221,,,,,,,,,,,,,,,,,125,F,hexagon,1,0,,,,,,,,,,,,,,,,repeat,letter,lettRpt,j,0.5114,noRew,,,,,,5,,,,,,,,low,3,0,3,0,1,,,,,,,,,
293404,2022-09-21_10h22.44.895,vts_reward_expectancy,2022.2.4,Win32,59.67655308,Chrome,1536,1024,,,,,10,1231,,,,,,,,,,,,,,,,,181,S,hexagon,1,0,,,,,,,,,,,,,,,,switch,number,numSwt,f,0.5015,noRew,,,,,,5,,,,,,,,low,4,0,4,0,1,,,,,,,,,
293404,2022-09-21_10h22.44.895,vts_reward_expectancy,2022.2.4,Win32,59.67655308,Chrome,1536,1024,,,,,10,1241,,,,,,,,,,,,,,,,,160,D,star,1,0,,,,,,,,,,,,,,,,repeat,number,numRpt,f,0.3992,noRew,,,,,,5,,,,,,,,low,5,0,5,0,1,,,,,,,,,
293404,2022-09-21_10h22.44.895,vts_reward_expectancy,2022.2.4,Win32,59.67655308,Chrome,1536,1024,,,,,1,1242,,,,,,,,,,,,,,,,,167,Y,hexagon,1,0,,,,,,,,,,,,,,,,switch,letter,lettSwt,k,0.451,noRew,,,,,,5,,,,,,,,low,6,0,6,0,1,,,,,,,,,
293404,2022-09-21_10h22.44.895,vts_reward_expectancy,2022.2.4,Win32,59.67655308,Chrome,1536,1024,,,,,10,1252,,,,,,,,,,,,,,,,,132,B,star,1,0,,,,,,,,,,,,,,,,repeat,letter,lettRpt,j,0.5751,noRew,,,,,,5,,,,,,,,low,7,0,7,0,1,,,,,,,,,
293404,2022-09-21_10h22.44.895,vts_reward_expectancy,2022.2.4,Win32,59.67655308,Chrome,1536,1024,,,,,1,1253,,,,,,,,,,,,,,,,,174,W,star,1,0,,,,,,,,,,,,,,,,switch,number,numSwt,f,0.5125,noRew,,,,,,5,,,,,,,,low,8,0,8,0,1,,,,,,,,,
293404,2022-09-21_10h22.44.895,vts_reward_expectancy,2022.2.4,Win32,59.67655308,Chrome,1536,1024,,,,,10,1263,,,,,,,,,,,,,,,,,139,U,hexagon,1,0,,,,,,,,,,,,,,,,repeat,number,numRpt,d,0.6104,noRew,,,,,,5,,,,,,,,low,9,0,9,0,1,,,,,,,,,
293404,2022-09-21_10h22.44.895,vts_reward_expectancy,2022.2.4,Win32,59.67655308,Chrome,1536,1024,,,,,1,1264,,,,,,,,,,,,,,,,,146,H,hexagon,1,0,,,,,,,,,,,,,,,,switch,letter,lettSwt,j,0.622,noRew,,,,,,5,,,,,,,,low,10,0,10,0,1,,,,,,,,,
293404,2022-09-21_10h22.44.895,vts_reward_expectancy,2022.2.4,Win32,59.67655308,Chrome,1536,1024,,,,,10,1274,,,,,,,,,,,,,,,,,125,F,star,1,0,,,,,,,,,,,,,,,,repeat,letter,lettRpt,j,0.5909,noRew,,,,,,5,,,,,,,,low,11,0,11,0,1,,,,,,,,,
293404,2022-09-21_10h22.44.895,vts_reward_expectancy,2022.2.4,Win32,59.67655308,Chrome,1536,1024,,,,,0,1274,,,,,,,,,,,,,,,,,181,S,star,1,0,,,,,,,,,,,,,,,,repeat,letter,lettRpt,k,1.1677,noRew,,,,,,5,,,,,,,,low,12,0,12,0,1,,,,,,,,,
293404,2022-09-21_10h22.44.895,vts_reward_expectancy,2022.2.4,Win32,59.67655308,Chrome,1536,1024,,,,,1,1275,,,,,,,,,,,,,,,,,160,D,hexagon,1,0,,,,,,,,,,,,,,,,repeat,letter,lettRpt,j,0.6835,noRew,,,,,,5,,,,,,,,low,13,0,13,0,1,,,,,,,,,
293404,2022-09-21_10h22.44.895,vts_reward_expectancy,2022.2.4,Win32,59.67655308,Chrome,1536,1024,,,,,0,1275,,,,,,,,,,,,,,,,,167,Y,star,1,0,,,,,,,,,,,,,,,,switch,number,numSwt,f,1.0943,noRew,,,,,,5,,,,,,,,low,14,0,14,0,1,,,,,,,,,
293404,2022-09-21_10h22.44.895,vts_reward_expectancy,2022.2.4,Win32,59.67655308,Chrome,1536,1024,,,,,10,1285,,,,,,,,,,,,,,,,,132,B,hexagon,1,0,,,,,,,,,,,,,,,,repeat,number,numRpt,d,0.5236,noRew,,,,,,5,,,,,,,,low,15,0,15,0,1,,,,,,,,,
293404,2022-09-21_10h22.44.895,vts_reward_expectancy,2022.2.4,Win32,59.67655308,Chrome,1536,1024,,,,,1,1286,,,,,,,,,,,,,,,,,132,U,hexagon,1,0,,,,,,,,,,,,,,,,repeat,number,numRpt,d,0.7733,noRew,,,,,,5,,,,,,,,low,16,0,16,0,1,,,,,,,,,
293404,2022-09-21_10h22.44.895,vts_reward_expectancy,2022.2.4,Win32,59.67655308,Chrome,1536,1024,,,,,10,1296,,,,,,,,,,,,,,,,,146,W,star,1,0,,,,,,,,,,,,,,,,repeat,number,numRpt,d,0.443,noRew,,,,,,5,,,,,,,,low,17,0,17,0,1,,,,,,,,,
293404,2022-09-21_10h22.44.895,vts_reward_expectancy,2022.2.4,Win32,59.67655308,Chrome,1536,1024,,,,,1,1297,,,,,,,,,,,,,,,,,160,D,hexagon,1,0,,,,,,,,,,,,,,,,switch,letter,lettSwt,j,0.7678,noRew,,,,,,5,,,,,,,,low,18,0,18,0,1,,,,,,,,,
293404,2022-09-21_10h22.44.895,vts_reward_expectancy,2022.2.4,Win32,59.67655308,Chrome,1536,1024,,,,,1,1298,,,,,,,,,,,,,,,,,181,B,star,1,0,,,,,,,,,,,,,,,,repeat,letter,lettRpt,j,0.5516,noRew,,,,,,5,,,,,,,,low,19,0,19,0,1,,,,,,,,,
293404,2022-09-21_10h22.44.895,vts_reward_expectancy,2022.2.4,Win32,59.67655308,Chrome,1536,1024,,,,,10,1308,,,,,,,,,,,,,,,,,139,S,hexagon,1,0,,,,,,,,,,,,,,,,switch,number,numSwt,d,0.5438,noRew,,,,,,5,,,,,,,,low,20,0,20,0,1,,,,,,,,,
293404,2022-09-21_10h22.44.895,vts_reward_expectancy,2022.2.4,Win32,59.67655308,Chrome,1536,1024,,,,,1,1309,,,,,,,,,,,,,,,,,167,F,star,1,0,,,,,,,,,,,,,,,,repeat,number,numRpt,f,0.4111,noRew,,,,,,5,,,,,,,,low,21,0,21,0,1,,,,,,,,,
293404,2022-09-21_10h22.44.895,vts_reward_expectancy,2022.2.4,Win32,59.67655308,Chrome,1536,1024,,,,,0,1309,,,,,,,,,,,,,,,,,174,H,star,1,0,,,,,,,,,,,,,,,,switch,letter,lettSwt,j,0.5754,noRew,,,,,,5,,,,,,,,low,22,0,22,0,1,,,,,,,,,
293404,2022-09-21_10h22.44.895,vts_reward_expectancy,2022.2.4,Win32,59.67655308,Chrome,1536,1024,,,,,10,1319,,,,,,,,,,,,,,,,,125,Y,hexagon,1,0,,,,,,,,,,,,,,,,repeat,letter,lettRpt,k,0.4196,noRew,,,,,,5,,,,,,,,low,23,0,23,0,1,,,,,,,,,
293404,2022-09-21_10h22.44.895,vts_reward_expectancy,2022.2.4,Win32,59.67655308,Chrome,1536,1024,,,,,1,1320,,,,,,,,,,,,,,,,,181,W,hexagon,1,0,,,,,,,,,,,,,,,,switch,number,numSwt,f,0.9875,noRew,,,,,,5,,,,,,,,low,24,0,24,0,1,,,,,,,,,
293404,2022-09-21_10h22.44.895,vts_reward_expectancy,2022.2.4,Win32,59.67655308,Chrome,1536,1024,,,,,0,1320,,,,,,,,,,,,,,,,,167,D,star,1,0,,,,,,,,,,,,,,,,repeat,number,numRpt,f,0.6355,noRew,,,,,,5,,,,,,,,low,25,0,25,0,1,,,,,,,,,
293404,2022-09-21_10h22.44.895,vts_reward_expectancy,2022.2.4,Win32,59.67655308,Chrome,1536,1024,,,,,1,1321,,,,,,,,,,,,,,,,,139,S,hexagon,1,0,,,,,,,,,,,,,,,,switch,letter,lettSwt,k,0.7742,noRew,,,,,,5,,,,,,,,low,26,0,26,0,1,,,,,,,,,
293404,2022-09-21_10h22.44.895,vts_reward_expectancy,2022.2.4,Win32,59.67655308,Chrome,1536,1024,,,,,0,1321,,,,,,,,,,,,,,,,,132,B,star,1,0,,,,,,,,,,,,,,,,repeat,letter,lettRpt,j,0.6868,noRew,,,,,,5,,,,,,,,low,27,0,27,0,1,,,,,,,,,
293404,2022-09-21_10h22.44.895,vts_reward_expectancy,2022.2.4,Win32,59.67655308,Chrome,1536,1024,,,,,10,1331,,,,,,,,,,,,,,,,,174,F,star,1,0,,,,,,,,,,,,,,,,switch,number,numSwt,f,0.6176,noRew,,,,,,5,,,,,,,,low,28,0,28,0,1,,,,,,,,,
293404,2022-09-21_10h22.44.895,vts_reward_expectancy,2022.2.4,Win32,59.67655308,Chrome,1536,1024,,,,,10,1341,,,,,,,,,,,,,,,,,146,Y,hexagon,1,0,,,,,,,,,,,,,,,,repeat,number,numRpt,d,0.8002,noRew,,,,,,5,,,,,,,,low,29,0,29,0,1,,,,,,,,,
293404,2022-09-21_10h22.44.895,vts_reward_expectancy,2022.2.4,Win32,59.67655308,Chrome,1536,1024,,,,,1,1342,,,,,,,,,,,,,,,,,160,H,hexagon,1,0,,,,,,,,,,,,,,,,switch,letter,lettSwt,j,1.2553,noRew,,,,,,5,,,,,,,,low,30,0,30,0,1,,,,,,,,,
293404,2022-09-21_10h22.44.895,vts_reward_expectancy,2022.2.4,Win32,59.67655308,Chrome,1536,1024,,,,,0,1342,,,,,,,,,,,,,,,,,125,U,star,1,0,,,,,,,,,,,,,,,,repeat,letter,lettRpt,k,0.9861,noRew,,,,,,5,,,,,,,,low,31,0,31,0,1,,,,,,,,,
293404,2022-09-21_10h22.44.895,vts_reward_expectancy,2022.2.4,Win32,59.67655308,Chrome,1536,1024,,,,,,,,,,,,,,,,,,,,,,,,,,,,,,,,,,,,,,,,,,,,,,,,,,,,,,6,,,,,,,,,,,,,,"choose between shapes, numbers, and letters",1,,4,2,,2,1536,1024
