participant,date,expName,psychopyVersion,OS,frameRate,browser,xResolution,yResolution,key_resp.keys,key_resp.rt,training_resp.keys,training_resp.rt,points_trial,points_cumul,trainBlock,training.thisRepN,training.thisTrialN,training.thisN,training.thisIndex,training.ran,LTriangleOpac,LCircleOpac,LHexagonOpac,LStarOpac,RTriangleOpac,RCircleOpac,RHexagonOpac,RStarOpac,LShape_ID,RShape_ID,curr_topStim,curr_bottStim,curr_shape,acc,E1,target_resp_prac1.keys,target_resp_prac1.rt,pracBlock,task1_prac_trials.thisRepN,task1_prac_trials.thisTrialN,task1_prac_trials.thisN,task1_prac_trials.thisIndex,task1_prac_trials.ran,target_resp_prac2.keys,target_resp_prac2.rt,task2_praac_trials.thisRepN,task2_praac_trials.thisTrialN,task2_praac_trials.thisN,task2_praac_trials.thisIndex,task2_praac_trials.ran,alt,task,condition,target_resp.keys,rewCond,vts_practice_trials.thisRepN,vts_practice_trials.thisTrialN,vts_practice_trials.thisN,vts_practice_trials.thisIndex,vts_practice_trials.ran,target_resp.rt,blockNum,trials_norew.thisRepN,trials_norew.thisTrialN,trials_norew.thisN,trials_norew.thisIndex,trials_norew.ran,key_resp_2.keys,key_resp_2.rt,rewExpect,trials_rew.thisRepN,trials_rew.thisTrialN,trials_rew.thisN,trials_rew.thisIndex,trials_rew.ran,Q1,Q2,Q2_text,Q3,Q4,Q5_text,Q5,xRes,yRes
296659,2022-09-25_12h45.29.343,vts_reward_expectancy,2022.2.4,Win32,60.2300789,Chrome,1664,1110,,,,,,,,,,,,,,,,,,,,,,,,,,,,,,,,,,,,,,,,,,,,,,,,,,,,,,,,,,,,,,,,,,,,,,,,,,,,
296659,2022-09-25_12h45.29.343,vts_reward_expectancy,2022.2.4,Win32,60.2300789,Chrome,1664,1110,space,32.2313,,,,,,,,,,,,,,,,,,,,,,,,,,,,,,,,,,,,,,,,,,,,,,,,,,,,,,,,,,,,,,,,,,,,,,,,,,
296659,2022-09-25_12h45.29.343,vts_reward_expectancy,2022.2.4,Win32,60.2300789,Chrome,1664,1110,,,,,,,,,,,,,,,,,,,,,,,,,,,,,,,,,,,,,,,,,,,,,,,,,,,,,,,,,,,,,,,,,,,,,,,,,,,,
296659,2022-09-25_12h45.29.343,vts_reward_expectancy,2022.2.4,Win32,60.2300789,Chrome,1664,1110,,,a,1.3849,1,1,0,0,0,0,4,1,0,1,0,0,0,0,1,0,circle,hexagon,,,,,,,,,,,,,,,,,,,,,,,,,,,,,,,,,,,,,,,,,,,,,,,,,,,,,,
296659,2022-09-25_12h45.29.343,vts_reward_expectancy,2022.2.4,Win32,60.2300789,Chrome,1664,1110,,,a,1.2854,10,11,0,0,1,1,2,1,1,0,0,0,0,0,0,1,triangle,star,,,,,,,,,,,,,,,,,,,,,,,,,,,,,,,,,,,,,,,,,,,,,,,,,,,,,,
296659,2022-09-25_12h45.29.343,vts_reward_expectancy,2022.2.4,Win32,60.2300789,Chrome,1664,1110,,,a,1.224,10,21,0,0,2,2,1,1,1,0,0,0,0,0,1,0,triangle,hexagon,,,,,,,,,,,,,,,,,,,,,,,,,,,,,,,,,,,,,,,,,,,,,,,,,,,,,,
296659,2022-09-25_12h45.29.343,vts_reward_expectancy,2022.2.4,Win32,60.2300789,Chrome,1664,1110,,,l,0.8014,10,31,0,0,3,3,6,1,0,0,1,0,1,0,0,0,hexagon,triangle,,,,,,,,,,,,,,,,,,,,,,,,,,,,,,,,,,,,,,,,,,,,,,,,,,,,,,
296659,2022-09-25_12h45.29.343,vts_reward_expectancy,2022.2.4,Win32,60.2300789,Chrome,1664,1110,,,a,0.585,1,32,0,0,4,4,0,1,1,0,0,0,0,1,0,0,triangle,circle,,,,,,,,,,,,,,,,,,,,,,,,,,,,,,,,,,,,,,,,,,,,,,,,,,,,,,
296659,2022-09-25_12h45.29.343,vts_reward_expectancy,2022.2.4,Win32,60.2300789,Chrome,1664,1110,,,l,2.5886,10,42,0,0,5,5,11,1,0,0,0,1,0,0,1,0,star,hexagon,,,,,,,,,,,,,,,,,,,,,,,,,,,,,,,,,,,,,,,,,,,,,,,,,,,,,,
296659,2022-09-25_12h45.29.343,vts_reward_expectancy,2022.2.4,Win32,60.2300789,Chrome,1664,1110,,,l,2.0872,10,52,0,0,6,6,7,1,0,0,1,0,0,1,0,0,hexagon,circle,,,,,,,,,,,,,,,,,,,,,,,,,,,,,,,,,,,,,,,,,,,,,,,,,,,,,,
296659,2022-09-25_12h45.29.343,vts_reward_expectancy,2022.2.4,Win32,60.2300789,Chrome,1664,1110,,,l,0.5841,1,53,0,0,7,7,10,1,0,0,0,1,0,1,0,0,star ,circle,,,,,,,,,,,,,,,,,,,,,,,,,,,,,,,,,,,,,,,,,,,,,,,,,,,,,,
296659,2022-09-25_12h45.29.343,vts_reward_expectancy,2022.2.4,Win32,60.2300789,Chrome,1664,1110,,,a,0.5856,10,63,0,0,8,8,5,1,0,1,0,0,0,0,0,1,circle,star,,,,,,,,,,,,,,,,,,,,,,,,,,,,,,,,,,,,,,,,,,,,,,,,,,,,,,
296659,2022-09-25_12h45.29.343,vts_reward_expectancy,2022.2.4,Win32,60.2300789,Chrome,1664,1110,,,l,0.635,10,73,0,0,9,9,3,1,0,1,0,0,1,0,0,0,circle,triangle,,,,,,,,,,,,,,,,,,,,,,,,,,,,,,,,,,,,,,,,,,,,,,,,,,,,,,
296659,2022-09-25_12h45.29.343,vts_reward_expectancy,2022.2.4,Win32,60.2300789,Chrome,1664,1110,,,a,0.5183,1,74,0,0,10,10,8,1,0,0,1,0,0,0,0,1,hexagon,star,,,,,,,,,,,,,,,,,,,,,,,,,,,,,,,,,,,,,,,,,,,,,,,,,,,,,,
296659,2022-09-25_12h45.29.343,vts_reward_expectancy,2022.2.4,Win32,60.2300789,Chrome,1664,1110,,,l,0.3344,10,84,0,0,11,11,9,1,0,0,0,1,1,0,0,0,star,triangle,,,,,,,,,,,,,,,,,,,,,,,,,,,,,,,,,,,,,,,,,,,,,,,,,,,,,,
296659,2022-09-25_12h45.29.343,vts_reward_expectancy,2022.2.4,Win32,60.2300789,Chrome,1664,1110,,,l,0.5867,10,94,0,1,0,12,9,1,0,0,0,1,1,0,0,0,star,triangle,,,,,,,,,,,,,,,,,,,,,,,,,,,,,,,,,,,,,,,,,,,,,,,,,,,,,,
296659,2022-09-25_12h45.29.343,vts_reward_expectancy,2022.2.4,Win32,60.2300789,Chrome,1664,1110,,,a,0.5347,10,104,0,1,1,13,2,1,1,0,0,0,0,0,0,1,triangle,star,,,,,,,,,,,,,,,,,,,,,,,,,,,,,,,,,,,,,,,,,,,,,,,,,,,,,,
296659,2022-09-25_12h45.29.343,vts_reward_expectancy,2022.2.4,Win32,60.2300789,Chrome,1664,1110,,,l,0.5175,10,114,0,1,2,14,3,1,0,1,0,0,1,0,0,0,circle,triangle,,,,,,,,,,,,,,,,,,,,,,,,,,,,,,,,,,,,,,,,,,,,,,,,,,,,,,
296659,2022-09-25_12h45.29.343,vts_reward_expectancy,2022.2.4,Win32,60.2300789,Chrome,1664,1110,,,a,0.8688,1,115,0,1,3,15,7,1,0,0,1,0,0,1,0,0,hexagon,circle,,,,,,,,,,,,,,,,,,,,,,,,,,,,,,,,,,,,,,,,,,,,,,,,,,,,,,
296659,2022-09-25_12h45.29.343,vts_reward_expectancy,2022.2.4,Win32,60.2300789,Chrome,1664,1110,,,a,2.4198,10,125,0,1,4,16,1,1,1,0,0,0,0,0,1,0,triangle,hexagon,,,,,,,,,,,,,,,,,,,,,,,,,,,,,,,,,,,,,,,,,,,,,,,,,,,,,,
296659,2022-09-25_12h45.29.343,vts_reward_expectancy,2022.2.4,Win32,60.2300789,Chrome,1664,1110,,,l,0.6703,1,126,0,1,5,17,10,1,0,0,0,1,0,1,0,0,star ,circle,,,,,,,,,,,,,,,,,,,,,,,,,,,,,,,,,,,,,,,,,,,,,,,,,,,,,,
296659,2022-09-25_12h45.29.343,vts_reward_expectancy,2022.2.4,Win32,60.2300789,Chrome,1664,1110,,,l,0.7022,10,136,0,1,6,18,6,1,0,0,1,0,1,0,0,0,hexagon,triangle,,,,,,,,,,,,,,,,,,,,,,,,,,,,,,,,,,,,,,,,,,,,,,,,,,,,,,
296659,2022-09-25_12h45.29.343,vts_reward_expectancy,2022.2.4,Win32,60.2300789,Chrome,1664,1110,,,a,0.6067,1,137,0,1,7,19,4,1,0,1,0,0,0,0,1,0,circle,hexagon,,,,,,,,,,,,,,,,,,,,,,,,,,,,,,,,,,,,,,,,,,,,,,,,,,,,,,
296659,2022-09-25_12h45.29.343,vts_reward_expectancy,2022.2.4,Win32,60.2300789,Chrome,1664,1110,,,a,0.5715,10,147,0,1,8,20,0,1,1,0,0,0,0,1,0,0,triangle,circle,,,,,,,,,,,,,,,,,,,,,,,,,,,,,,,,,,,,,,,,,,,,,,,,,,,,,,
296659,2022-09-25_12h45.29.343,vts_reward_expectancy,2022.2.4,Win32,60.2300789,Chrome,1664,1110,,,l,0.9206,1,148,0,1,9,21,5,1,0,1,0,0,0,0,0,1,circle,star,,,,,,,,,,,,,,,,,,,,,,,,,,,,,,,,,,,,,,,,,,,,,,,,,,,,,,
296659,2022-09-25_12h45.29.343,vts_reward_expectancy,2022.2.4,Win32,60.2300789,Chrome,1664,1110,,,l,1.0526,10,158,0,1,10,22,11,1,0,0,0,1,0,0,1,0,star,hexagon,,,,,,,,,,,,,,,,,,,,,,,,,,,,,,,,,,,,,,,,,,,,,,,,,,,,,,
296659,2022-09-25_12h45.29.343,vts_reward_expectancy,2022.2.4,Win32,60.2300789,Chrome,1664,1110,,,a,0.7853,10,168,0,1,11,23,8,1,0,0,1,0,0,0,0,1,hexagon,star,,,,,,,,,,,,,,,,,,,,,,,,,,,,,,,,,,,,,,,,,,,,,,,,,,,,,,
296659,2022-09-25_12h45.29.343,vts_reward_expectancy,2022.2.4,Win32,60.2300789,Chrome,1664,1110,,,a,0.6042,10,178,0,2,0,24,4,1,0,1,0,0,0,0,1,0,circle,hexagon,,,,,,,,,,,,,,,,,,,,,,,,,,,,,,,,,,,,,,,,,,,,,,,,,,,,,,
296659,2022-09-25_12h45.29.343,vts_reward_expectancy,2022.2.4,Win32,60.2300789,Chrome,1664,1110,,,l,0.5085,10,188,0,2,1,25,9,1,0,0,0,1,1,0,0,0,star,triangle,,,,,,,,,,,,,,,,,,,,,,,,,,,,,,,,,,,,,,,,,,,,,,,,,,,,,,
296659,2022-09-25_12h45.29.343,vts_reward_expectancy,2022.2.4,Win32,60.2300789,Chrome,1664,1110,,,l,0.5849,10,198,0,2,2,26,3,1,0,1,0,0,1,0,0,0,circle,triangle,,,,,,,,,,,,,,,,,,,,,,,,,,,,,,,,,,,,,,,,,,,,,,,,,,,,,,
296659,2022-09-25_12h45.29.343,vts_reward_expectancy,2022.2.4,Win32,60.2300789,Chrome,1664,1110,,,a,0.5865,1,199,0,2,3,27,8,1,0,0,1,0,0,0,0,1,hexagon,star,,,,,,,,,,,,,,,,,,,,,,,,,,,,,,,,,,,,,,,,,,,,,,,,,,,,,,
296659,2022-09-25_12h45.29.343,vts_reward_expectancy,2022.2.4,Win32,60.2300789,Chrome,1664,1110,,,a,1.035,1,200,0,2,4,28,7,1,0,0,1,0,0,1,0,0,hexagon,circle,,,,,,,,,,,,,,,,,,,,,,,,,,,,,,,,,,,,,,,,,,,,,,,,,,,,,,
296659,2022-09-25_12h45.29.343,vts_reward_expectancy,2022.2.4,Win32,60.2300789,Chrome,1664,1110,,,l,0.7256,10,210,0,2,5,29,10,1,0,0,0,1,0,1,0,0,star ,circle,,,,,,,,,,,,,,,,,,,,,,,,,,,,,,,,,,,,,,,,,,,,,,,,,,,,,,
296659,2022-09-25_12h45.29.343,vts_reward_expectancy,2022.2.4,Win32,60.2300789,Chrome,1664,1110,,,a,0.725,10,220,0,2,6,30,1,1,1,0,0,0,0,0,1,0,triangle,hexagon,,,,,,,,,,,,,,,,,,,,,,,,,,,,,,,,,,,,,,,,,,,,,,,,,,,,,,
296659,2022-09-25_12h45.29.343,vts_reward_expectancy,2022.2.4,Win32,60.2300789,Chrome,1664,1110,,,a,0.6101,1,221,0,2,7,31,2,1,1,0,0,0,0,0,0,1,triangle,star,,,,,,,,,,,,,,,,,,,,,,,,,,,,,,,,,,,,,,,,,,,,,,,,,,,,,,
296659,2022-09-25_12h45.29.343,vts_reward_expectancy,2022.2.4,Win32,60.2300789,Chrome,1664,1110,,,a,0.5691,1,222,0,2,8,32,5,1,0,1,0,0,0,0,0,1,circle,star,,,,,,,,,,,,,,,,,,,,,,,,,,,,,,,,,,,,,,,,,,,,,,,,,,,,,,
296659,2022-09-25_12h45.29.343,vts_reward_expectancy,2022.2.4,Win32,60.2300789,Chrome,1664,1110,,,l,0.4182,10,232,0,2,9,33,11,1,0,0,0,1,0,0,1,0,star,hexagon,,,,,,,,,,,,,,,,,,,,,,,,,,,,,,,,,,,,,,,,,,,,,,,,,,,,,,
296659,2022-09-25_12h45.29.343,vts_reward_expectancy,2022.2.4,Win32,60.2300789,Chrome,1664,1110,,,a,0.4347,10,242,0,2,10,34,0,1,1,0,0,0,0,1,0,0,triangle,circle,,,,,,,,,,,,,,,,,,,,,,,,,,,,,,,,,,,,,,,,,,,,,,,,,,,,,,
296659,2022-09-25_12h45.29.343,vts_reward_expectancy,2022.2.4,Win32,60.2300789,Chrome,1664,1110,,,l,0.3736,1,243,0,2,11,35,6,1,0,0,1,0,1,0,0,0,hexagon,triangle,,,,,,,,,,,,,,,,,,,,,,,,,,,,,,,,,,,,,,,,,,,,,,,,,,,,,,
296659,2022-09-25_12h45.29.343,vts_reward_expectancy,2022.2.4,Win32,60.2300789,Chrome,1664,1110,,,a,0.6189,10,253,1,0,0,0,1,1,1,0,0,0,0,0,1,0,triangle,hexagon,,,,,,,,,,,,,,,,,,,,,,,,,,,,,,,,,,,,,,,,,,,,,,,,,,,,,,
296659,2022-09-25_12h45.29.343,vts_reward_expectancy,2022.2.4,Win32,60.2300789,Chrome,1664,1110,,,l,0.617,10,263,1,0,1,1,6,1,0,0,1,0,1,0,0,0,hexagon,triangle,,,,,,,,,,,,,,,,,,,,,,,,,,,,,,,,,,,,,,,,,,,,,,,,,,,,,,
296659,2022-09-25_12h45.29.343,vts_reward_expectancy,2022.2.4,Win32,60.2300789,Chrome,1664,1110,,,a,0.4715,1,264,1,0,2,2,0,1,1,0,0,0,0,1,0,0,triangle,circle,,,,,,,,,,,,,,,,,,,,,,,,,,,,,,,,,,,,,,,,,,,,,,,,,,,,,,
296659,2022-09-25_12h45.29.343,vts_reward_expectancy,2022.2.4,Win32,60.2300789,Chrome,1664,1110,,,a,0.5015,10,274,1,0,3,3,8,1,0,0,1,0,0,0,0,1,hexagon,star,,,,,,,,,,,,,,,,,,,,,,,,,,,,,,,,,,,,,,,,,,,,,,,,,,,,,,
296659,2022-09-25_12h45.29.343,vts_reward_expectancy,2022.2.4,Win32,60.2300789,Chrome,1664,1110,,,a,0.5172,1,275,1,0,4,4,5,1,0,1,0,0,0,0,0,1,circle,star,,,,,,,,,,,,,,,,,,,,,,,,,,,,,,,,,,,,,,,,,,,,,,,,,,,,,,
296659,2022-09-25_12h45.29.343,vts_reward_expectancy,2022.2.4,Win32,60.2300789,Chrome,1664,1110,,,l,0.5516,1,276,1,0,5,5,3,1,0,1,0,0,1,0,0,0,circle,triangle,,,,,,,,,,,,,,,,,,,,,,,,,,,,,,,,,,,,,,,,,,,,,,,,,,,,,,
296659,2022-09-25_12h45.29.343,vts_reward_expectancy,2022.2.4,Win32,60.2300789,Chrome,1664,1110,,,a,0.633,10,286,1,0,6,6,4,1,0,1,0,0,0,0,1,0,circle,hexagon,,,,,,,,,,,,,,,,,,,,,,,,,,,,,,,,,,,,,,,,,,,,,,,,,,,,,,
296659,2022-09-25_12h45.29.343,vts_reward_expectancy,2022.2.4,Win32,60.2300789,Chrome,1664,1110,,,l,0.5033,10,296,1,0,7,7,9,1,0,0,0,1,1,0,0,0,star,triangle,,,,,,,,,,,,,,,,,,,,,,,,,,,,,,,,,,,,,,,,,,,,,,,,,,,,,,
296659,2022-09-25_12h45.29.343,vts_reward_expectancy,2022.2.4,Win32,60.2300789,Chrome,1664,1110,,,l,0.6426,1,297,1,0,8,8,7,1,0,0,1,0,0,1,0,0,hexagon,circle,,,,,,,,,,,,,,,,,,,,,,,,,,,,,,,,,,,,,,,,,,,,,,,,,,,,,,
296659,2022-09-25_12h45.29.343,vts_reward_expectancy,2022.2.4,Win32,60.2300789,Chrome,1664,1110,,,a,0.5755,1,298,1,0,9,9,10,1,0,0,0,1,0,1,0,0,star ,circle,,,,,,,,,,,,,,,,,,,,,,,,,,,,,,,,,,,,,,,,,,,,,,,,,,,,,,
296659,2022-09-25_12h45.29.343,vts_reward_expectancy,2022.2.4,Win32,60.2300789,Chrome,1664,1110,,,a,0.4698,10,308,1,0,10,10,2,1,1,0,0,0,0,0,0,1,triangle,star,,,,,,,,,,,,,,,,,,,,,,,,,,,,,,,,,,,,,,,,,,,,,,,,,,,,,,
296659,2022-09-25_12h45.29.343,vts_reward_expectancy,2022.2.4,Win32,60.2300789,Chrome,1664,1110,,,a,0.7874,1,309,1,0,11,11,11,1,0,0,0,1,0,0,1,0,star,hexagon,,,,,,,,,,,,,,,,,,,,,,,,,,,,,,,,,,,,,,,,,,,,,,,,,,,,,,
296659,2022-09-25_12h45.29.343,vts_reward_expectancy,2022.2.4,Win32,60.2300789,Chrome,1664,1110,,,a,0.5735,10,319,1,1,0,12,1,1,1,0,0,0,0,0,1,0,triangle,hexagon,,,,,,,,,,,,,,,,,,,,,,,,,,,,,,,,,,,,,,,,,,,,,,,,,,,,,,
296659,2022-09-25_12h45.29.343,vts_reward_expectancy,2022.2.4,Win32,60.2300789,Chrome,1664,1110,,,l,0.5566,1,320,1,1,1,13,7,1,0,0,1,0,0,1,0,0,hexagon,circle,,,,,,,,,,,,,,,,,,,,,,,,,,,,,,,,,,,,,,,,,,,,,,,,,,,,,,
296659,2022-09-25_12h45.29.343,vts_reward_expectancy,2022.2.4,Win32,60.2300789,Chrome,1664,1110,,,l,2.8535,10,330,1,1,2,14,9,1,0,0,0,1,1,0,0,0,star,triangle,,,,,,,,,,,,,,,,,,,,,,,,,,,,,,,,,,,,,,,,,,,,,,,,,,,,,,
296659,2022-09-25_12h45.29.343,vts_reward_expectancy,2022.2.4,Win32,60.2300789,Chrome,1664,1110,,,l,0.1183,1,331,1,1,3,15,4,1,0,1,0,0,0,0,1,0,circle,hexagon,,,,,,,,,,,,,,,,,,,,,,,,,,,,,,,,,,,,,,,,,,,,,,,,,,,,,,
296659,2022-09-25_12h45.29.343,vts_reward_expectancy,2022.2.4,Win32,60.2300789,Chrome,1664,1110,,,l,0.1245,1,332,1,1,4,16,5,1,0,1,0,0,0,0,0,1,circle,star,,,,,,,,,,,,,,,,,,,,,,,,,,,,,,,,,,,,,,,,,,,,,,,,,,,,,,
296659,2022-09-25_12h45.29.343,vts_reward_expectancy,2022.2.4,Win32,60.2300789,Chrome,1664,1110,,,l,0.1931,1,333,1,1,5,17,8,1,0,0,1,0,0,0,0,1,hexagon,star,,,,,,,,,,,,,,,,,,,,,,,,,,,,,,,,,,,,,,,,,,,,,,,,,,,,,,
296659,2022-09-25_12h45.29.343,vts_reward_expectancy,2022.2.4,Win32,60.2300789,Chrome,1664,1110,,,l,0.7183,10,343,1,1,6,18,11,1,0,0,0,1,0,0,1,0,star,hexagon,,,,,,,,,,,,,,,,,,,,,,,,,,,,,,,,,,,,,,,,,,,,,,,,,,,,,,
296659,2022-09-25_12h45.29.343,vts_reward_expectancy,2022.2.4,Win32,60.2300789,Chrome,1664,1110,,,l,0.6684,1,344,1,1,7,19,10,1,0,0,0,1,0,1,0,0,star ,circle,,,,,,,,,,,,,,,,,,,,,,,,,,,,,,,,,,,,,,,,,,,,,,,,,,,,,,
296659,2022-09-25_12h45.29.343,vts_reward_expectancy,2022.2.4,Win32,60.2300789,Chrome,1664,1110,,,a,0.5307,1,345,1,1,8,20,2,1,1,0,0,0,0,0,0,1,triangle,star,,,,,,,,,,,,,,,,,,,,,,,,,,,,,,,,,,,,,,,,,,,,,,,,,,,,,,
296659,2022-09-25_12h45.29.343,vts_reward_expectancy,2022.2.4,Win32,60.2300789,Chrome,1664,1110,,,l,1.9355,10,355,1,1,9,21,6,1,0,0,1,0,1,0,0,0,hexagon,triangle,,,,,,,,,,,,,,,,,,,,,,,,,,,,,,,,,,,,,,,,,,,,,,,,,,,,,,
296659,2022-09-25_12h45.29.343,vts_reward_expectancy,2022.2.4,Win32,60.2300789,Chrome,1664,1110,,,a,0.7539,10,365,1,1,10,22,0,1,1,0,0,0,0,1,0,0,triangle,circle,,,,,,,,,,,,,,,,,,,,,,,,,,,,,,,,,,,,,,,,,,,,,,,,,,,,,,
296659,2022-09-25_12h45.29.343,vts_reward_expectancy,2022.2.4,Win32,60.2300789,Chrome,1664,1110,,,l,0.458,10,375,1,1,11,23,3,1,0,1,0,0,1,0,0,0,circle,triangle,,,,,,,,,,,,,,,,,,,,,,,,,,,,,,,,,,,,,,,,,,,,,,,,,,,,,,
296659,2022-09-25_12h45.29.343,vts_reward_expectancy,2022.2.4,Win32,60.2300789,Chrome,1664,1110,,,l,0.4576,10,385,1,2,0,24,6,1,0,0,1,0,1,0,0,0,hexagon,triangle,,,,,,,,,,,,,,,,,,,,,,,,,,,,,,,,,,,,,,,,,,,,,,,,,,,,,,
296659,2022-09-25_12h45.29.343,vts_reward_expectancy,2022.2.4,Win32,60.2300789,Chrome,1664,1110,,,a,0.6507,10,395,1,2,1,25,8,1,0,0,1,0,0,0,0,1,hexagon,star,,,,,,,,,,,,,,,,,,,,,,,,,,,,,,,,,,,,,,,,,,,,,,,,,,,,,,
296659,2022-09-25_12h45.29.343,vts_reward_expectancy,2022.2.4,Win32,60.2300789,Chrome,1664,1110,,,l,0.7513,1,396,1,2,2,26,10,1,0,0,0,1,0,1,0,0,star ,circle,,,,,,,,,,,,,,,,,,,,,,,,,,,,,,,,,,,,,,,,,,,,,,,,,,,,,,
296659,2022-09-25_12h45.29.343,vts_reward_expectancy,2022.2.4,Win32,60.2300789,Chrome,1664,1110,,,l,0.484,10,406,1,2,3,27,9,1,0,0,0,1,1,0,0,0,star,triangle,,,,,,,,,,,,,,,,,,,,,,,,,,,,,,,,,,,,,,,,,,,,,,,,,,,,,,
296659,2022-09-25_12h45.29.343,vts_reward_expectancy,2022.2.4,Win32,60.2300789,Chrome,1664,1110,,,a,4.9851,10,416,1,2,4,28,2,1,1,0,0,0,0,0,0,1,triangle,star,,,,,,,,,,,,,,,,,,,,,,,,,,,,,,,,,,,,,,,,,,,,,,,,,,,,,,
296659,2022-09-25_12h45.29.343,vts_reward_expectancy,2022.2.4,Win32,60.2300789,Chrome,1664,1110,,,l,0.7688,10,426,1,2,5,29,3,1,0,1,0,0,1,0,0,0,circle,triangle,,,,,,,,,,,,,,,,,,,,,,,,,,,,,,,,,,,,,,,,,,,,,,,,,,,,,,
296659,2022-09-25_12h45.29.343,vts_reward_expectancy,2022.2.4,Win32,60.2300789,Chrome,1664,1110,,,a,0.7934,1,427,1,2,6,30,4,1,0,1,0,0,0,0,1,0,circle,hexagon,,,,,,,,,,,,,,,,,,,,,,,,,,,,,,,,,,,,,,,,,,,,,,,,,,,,,,
296659,2022-09-25_12h45.29.343,vts_reward_expectancy,2022.2.4,Win32,60.2300789,Chrome,1664,1110,,,a,0.4579,10,437,1,2,7,31,1,1,1,0,0,0,0,0,1,0,triangle,hexagon,,,,,,,,,,,,,,,,,,,,,,,,,,,,,,,,,,,,,,,,,,,,,,,,,,,,,,
296659,2022-09-25_12h45.29.343,vts_reward_expectancy,2022.2.4,Win32,60.2300789,Chrome,1664,1110,,,a,0.5091,10,447,1,2,8,32,0,1,1,0,0,0,0,1,0,0,triangle,circle,,,,,,,,,,,,,,,,,,,,,,,,,,,,,,,,,,,,,,,,,,,,,,,,,,,,,,
296659,2022-09-25_12h45.29.343,vts_reward_expectancy,2022.2.4,Win32,60.2300789,Chrome,1664,1110,,,l,0.7105,1,448,1,2,9,33,7,1,0,0,1,0,0,1,0,0,hexagon,circle,,,,,,,,,,,,,,,,,,,,,,,,,,,,,,,,,,,,,,,,,,,,,,,,,,,,,,
296659,2022-09-25_12h45.29.343,vts_reward_expectancy,2022.2.4,Win32,60.2300789,Chrome,1664,1110,,,l,0.6216,1,449,1,2,10,34,11,1,0,0,0,1,0,0,1,0,star,hexagon,,,,,,,,,,,,,,,,,,,,,,,,,,,,,,,,,,,,,,,,,,,,,,,,,,,,,,
296659,2022-09-25_12h45.29.343,vts_reward_expectancy,2022.2.4,Win32,60.2300789,Chrome,1664,1110,,,a,0.4878,1,450,1,2,11,35,5,1,0,1,0,0,0,0,0,1,circle,star,,,,,,,,,,,,,,,,,,,,,,,,,,,,,,,,,,,,,,,,,,,,,,,,,,,,,,
296659,2022-09-25_12h45.29.343,vts_reward_expectancy,2022.2.4,Win32,60.2300789,Chrome,1664,1110,,,a,0.6357,1,451,2,0,0,0,0,1,1,0,0,0,0,1,0,0,triangle,circle,,,,,,,,,,,,,,,,,,,,,,,,,,,,,,,,,,,,,,,,,,,,,,,,,,,,,,
296659,2022-09-25_12h45.29.343,vts_reward_expectancy,2022.2.4,Win32,60.2300789,Chrome,1664,1110,,,l,0.8011,10,461,2,0,1,1,11,1,0,0,0,1,0,0,1,0,star,hexagon,,,,,,,,,,,,,,,,,,,,,,,,,,,,,,,,,,,,,,,,,,,,,,,,,,,,,,
296659,2022-09-25_12h45.29.343,vts_reward_expectancy,2022.2.4,Win32,60.2300789,Chrome,1664,1110,,,l,0.025,1,462,2,0,2,2,8,1,0,0,1,0,0,0,0,1,hexagon,star,,,,,,,,,,,,,,,,,,,,,,,,,,,,,,,,,,,,,,,,,,,,,,,,,,,,,,
296659,2022-09-25_12h45.29.343,vts_reward_expectancy,2022.2.4,Win32,60.2300789,Chrome,1664,1110,,,l,0.0338,10,472,2,0,3,3,7,1,0,0,1,0,0,1,0,0,hexagon,circle,,,,,,,,,,,,,,,,,,,,,,,,,,,,,,,,,,,,,,,,,,,,,,,,,,,,,,
296659,2022-09-25_12h45.29.343,vts_reward_expectancy,2022.2.4,Win32,60.2300789,Chrome,1664,1110,,,a,0.8924,10,482,2,0,4,4,1,1,1,0,0,0,0,0,1,0,triangle,hexagon,,,,,,,,,,,,,,,,,,,,,,,,,,,,,,,,,,,,,,,,,,,,,,,,,,,,,,
296659,2022-09-25_12h45.29.343,vts_reward_expectancy,2022.2.4,Win32,60.2300789,Chrome,1664,1110,,,l,0.0951,10,492,2,0,5,5,6,1,0,0,1,0,1,0,0,0,hexagon,triangle,,,,,,,,,,,,,,,,,,,,,,,,,,,,,,,,,,,,,,,,,,,,,,,,,,,,,,
296659,2022-09-25_12h45.29.343,vts_reward_expectancy,2022.2.4,Win32,60.2300789,Chrome,1664,1110,,,a,0.2532,10,502,2,0,6,6,2,1,1,0,0,0,0,0,0,1,triangle,star,,,,,,,,,,,,,,,,,,,,,,,,,,,,,,,,,,,,,,,,,,,,,,,,,,,,,,
296659,2022-09-25_12h45.29.343,vts_reward_expectancy,2022.2.4,Win32,60.2300789,Chrome,1664,1110,,,l,0.0331,10,512,2,0,7,7,9,1,0,0,0,1,1,0,0,0,star,triangle,,,,,,,,,,,,,,,,,,,,,,,,,,,,,,,,,,,,,,,,,,,,,,,,,,,,,,
296659,2022-09-25_12h45.29.343,vts_reward_expectancy,2022.2.4,Win32,60.2300789,Chrome,1664,1110,,,a,0.3421,10,522,2,0,8,8,10,1,0,0,0,1,0,1,0,0,star ,circle,,,,,,,,,,,,,,,,,,,,,,,,,,,,,,,,,,,,,,,,,,,,,,,,,,,,,,
296659,2022-09-25_12h45.29.343,vts_reward_expectancy,2022.2.4,Win32,60.2300789,Chrome,1664,1110,,,l,0.2927,10,532,2,0,9,9,4,1,0,1,0,0,0,0,1,0,circle,hexagon,,,,,,,,,,,,,,,,,,,,,,,,,,,,,,,,,,,,,,,,,,,,,,,,,,,,,,
296659,2022-09-25_12h45.29.343,vts_reward_expectancy,2022.2.4,Win32,60.2300789,Chrome,1664,1110,,,a,0.0876,1,533,2,0,10,10,5,1,0,1,0,0,0,0,0,1,circle,star,,,,,,,,,,,,,,,,,,,,,,,,,,,,,,,,,,,,,,,,,,,,,,,,,,,,,,
296659,2022-09-25_12h45.29.343,vts_reward_expectancy,2022.2.4,Win32,60.2300789,Chrome,1664,1110,,,l,0.1061,10,543,2,0,11,11,3,1,0,1,0,0,1,0,0,0,circle,triangle,,,,,,,,,,,,,,,,,,,,,,,,,,,,,,,,,,,,,,,,,,,,,,,,,,,,,,
296659,2022-09-25_12h45.29.343,vts_reward_expectancy,2022.2.4,Win32,60.2300789,Chrome,1664,1110,,,a,0.0209,1,544,2,1,0,12,0,1,1,0,0,0,0,1,0,0,triangle,circle,,,,,,,,,,,,,,,,,,,,,,,,,,,,,,,,,,,,,,,,,,,,,,,,,,,,,,
296659,2022-09-25_12h45.29.343,vts_reward_expectancy,2022.2.4,Win32,60.2300789,Chrome,1664,1110,,,l,0.6346,10,554,2,1,1,13,10,1,0,0,0,1,0,1,0,0,star ,circle,,,,,,,,,,,,,,,,,,,,,,,,,,,,,,,,,,,,,,,,,,,,,,,,,,,,,,
296659,2022-09-25_12h45.29.343,vts_reward_expectancy,2022.2.4,Win32,60.2300789,Chrome,1664,1110,,,l,0.0549,10,564,2,1,2,14,7,1,0,0,1,0,0,1,0,0,hexagon,circle,,,,,,,,,,,,,,,,,,,,,,,,,,,,,,,,,,,,,,,,,,,,,,,,,,,,,,
296659,2022-09-25_12h45.29.343,vts_reward_expectancy,2022.2.4,Win32,60.2300789,Chrome,1664,1110,,,a,0.0233,10,574,2,1,3,15,6,1,0,0,1,0,1,0,0,0,hexagon,triangle,,,,,,,,,,,,,,,,,,,,,,,,,,,,,,,,,,,,,,,,,,,,,,,,,,,,,,
296659,2022-09-25_12h45.29.343,vts_reward_expectancy,2022.2.4,Win32,60.2300789,Chrome,1664,1110,,,a,0.0896,1,575,2,1,4,16,11,1,0,0,0,1,0,0,1,0,star,hexagon,,,,,,,,,,,,,,,,,,,,,,,,,,,,,,,,,,,,,,,,,,,,,,,,,,,,,,
296659,2022-09-25_12h45.29.343,vts_reward_expectancy,2022.2.4,Win32,60.2300789,Chrome,1664,1110,,,l,0.1689,10,585,2,1,5,17,3,1,0,1,0,0,1,0,0,0,circle,triangle,,,,,,,,,,,,,,,,,,,,,,,,,,,,,,,,,,,,,,,,,,,,,,,,,,,,,,
296659,2022-09-25_12h45.29.343,vts_reward_expectancy,2022.2.4,Win32,60.2300789,Chrome,1664,1110,,,a,0.0929,10,595,2,1,6,18,1,1,1,0,0,0,0,0,1,0,triangle,hexagon,,,,,,,,,,,,,,,,,,,,,,,,,,,,,,,,,,,,,,,,,,,,,,,,,,,,,,
296659,2022-09-25_12h45.29.343,vts_reward_expectancy,2022.2.4,Win32,60.2300789,Chrome,1664,1110,,,l,0.0683,10,605,2,1,7,19,5,1,0,1,0,0,0,0,0,1,circle,star,,,,,,,,,,,,,,,,,,,,,,,,,,,,,,,,,,,,,,,,,,,,,,,,,,,,,,
296659,2022-09-25_12h45.29.343,vts_reward_expectancy,2022.2.4,Win32,60.2300789,Chrome,1664,1110,,,l,0.3213,10,615,2,1,8,20,9,1,0,0,0,1,1,0,0,0,star,triangle,,,,,,,,,,,,,,,,,,,,,,,,,,,,,,,,,,,,,,,,,,,,,,,,,,,,,,
296659,2022-09-25_12h45.29.343,vts_reward_expectancy,2022.2.4,Win32,60.2300789,Chrome,1664,1110,,,a,0.1051,1,616,2,1,9,21,4,1,0,1,0,0,0,0,1,0,circle,hexagon,,,,,,,,,,,,,,,,,,,,,,,,,,,,,,,,,,,,,,,,,,,,,,,,,,,,,,
296659,2022-09-25_12h45.29.343,vts_reward_expectancy,2022.2.4,Win32,60.2300789,Chrome,1664,1110,,,l,0.0838,1,617,2,1,10,22,2,1,1,0,0,0,0,0,0,1,triangle,star,,,,,,,,,,,,,,,,,,,,,,,,,,,,,,,,,,,,,,,,,,,,,,,,,,,,,,
296659,2022-09-25_12h45.29.343,vts_reward_expectancy,2022.2.4,Win32,60.2300789,Chrome,1664,1110,,,a,0.7688,1,618,2,1,11,23,8,1,0,0,1,0,0,0,0,1,hexagon,star,,,,,,,,,,,,,,,,,,,,,,,,,,,,,,,,,,,,,,,,,,,,,,,,,,,,,,
296659,2022-09-25_12h45.29.343,vts_reward_expectancy,2022.2.4,Win32,60.2300789,Chrome,1664,1110,,,l,0.3526,10,628,2,2,0,24,5,1,0,1,0,0,0,0,0,1,circle,star,,,,,,,,,,,,,,,,,,,,,,,,,,,,,,,,,,,,,,,,,,,,,,,,,,,,,,
296659,2022-09-25_12h45.29.343,vts_reward_expectancy,2022.2.4,Win32,60.2300789,Chrome,1664,1110,,,a,0.1015,10,638,2,2,1,25,10,1,0,0,0,1,0,1,0,0,star ,circle,,,,,,,,,,,,,,,,,,,,,,,,,,,,,,,,,,,,,,,,,,,,,,,,,,,,,,
296659,2022-09-25_12h45.29.343,vts_reward_expectancy,2022.2.4,Win32,60.2300789,Chrome,1664,1110,,,l,0.7345,1,639,2,2,2,26,7,1,0,0,1,0,0,1,0,0,hexagon,circle,,,,,,,,,,,,,,,,,,,,,,,,,,,,,,,,,,,,,,,,,,,,,,,,,,,,,,
296659,2022-09-25_12h45.29.343,vts_reward_expectancy,2022.2.4,Win32,60.2300789,Chrome,1664,1110,,,l,0.3239,10,649,2,2,3,27,11,1,0,0,0,1,0,0,1,0,star,hexagon,,,,,,,,,,,,,,,,,,,,,,,,,,,,,,,,,,,,,,,,,,,,,,,,,,,,,,
296659,2022-09-25_12h45.29.343,vts_reward_expectancy,2022.2.4,Win32,60.2300789,Chrome,1664,1110,,,l,0.5377,10,659,2,2,4,28,9,1,0,0,0,1,1,0,0,0,star,triangle,,,,,,,,,,,,,,,,,,,,,,,,,,,,,,,,,,,,,,,,,,,,,,,,,,,,,,
296659,2022-09-25_12h45.29.343,vts_reward_expectancy,2022.2.4,Win32,60.2300789,Chrome,1664,1110,,,a,0.078,10,669,2,2,5,29,0,1,1,0,0,0,0,1,0,0,triangle,circle,,,,,,,,,,,,,,,,,,,,,,,,,,,,,,,,,,,,,,,,,,,,,,,,,,,,,,
296659,2022-09-25_12h45.29.343,vts_reward_expectancy,2022.2.4,Win32,60.2300789,Chrome,1664,1110,,,l,0.5403,1,670,2,2,6,30,6,1,0,0,1,0,1,0,0,0,hexagon,triangle,,,,,,,,,,,,,,,,,,,,,,,,,,,,,,,,,,,,,,,,,,,,,,,,,,,,,,
296659,2022-09-25_12h45.29.343,vts_reward_expectancy,2022.2.4,Win32,60.2300789,Chrome,1664,1110,,,a,1.1336,10,680,2,2,7,31,4,1,0,1,0,0,0,0,1,0,circle,hexagon,,,,,,,,,,,,,,,,,,,,,,,,,,,,,,,,,,,,,,,,,,,,,,,,,,,,,,
296659,2022-09-25_12h45.29.343,vts_reward_expectancy,2022.2.4,Win32,60.2300789,Chrome,1664,1110,,,l,1.7195,1,681,2,2,8,32,2,1,1,0,0,0,0,0,0,1,triangle,star,,,,,,,,,,,,,,,,,,,,,,,,,,,,,,,,,,,,,,,,,,,,,,,,,,,,,,
296659,2022-09-25_12h45.29.343,vts_reward_expectancy,2022.2.4,Win32,60.2300789,Chrome,1664,1110,,,a,0.5263,1,682,2,2,9,33,1,1,1,0,0,0,0,0,1,0,triangle,hexagon,,,,,,,,,,,,,,,,,,,,,,,,,,,,,,,,,,,,,,,,,,,,,,,,,,,,,,
296659,2022-09-25_12h45.29.343,vts_reward_expectancy,2022.2.4,Win32,60.2300789,Chrome,1664,1110,,,l,0.2902,10,692,2,2,10,34,3,1,0,1,0,0,1,0,0,0,circle,triangle,,,,,,,,,,,,,,,,,,,,,,,,,,,,,,,,,,,,,,,,,,,,,,,,,,,,,,
296659,2022-09-25_12h45.29.343,vts_reward_expectancy,2022.2.4,Win32,60.2300789,Chrome,1664,1110,,,a,6.552,1,693,2,2,11,35,8,1,0,0,1,0,0,0,0,1,hexagon,star,,,,,,,,,,,,,,,,,,,,,,,,,,,,,,,,,,,,,,,,,,,,,,,,,,,,,,
296659,2022-09-25_12h45.29.343,vts_reward_expectancy,2022.2.4,Win32,60.2300789,Chrome,1664,1110,,,,,,,,,,,,,,,,,,,,,,,Y,160,circle,1,0,f,2.3503,0,0,0,0,0,1,,,,,,,,,,,,,,,,,,,,,,,,,,,,,,,,,,,,,,,,,
296659,2022-09-25_12h45.29.343,vts_reward_expectancy,2022.2.4,Win32,60.2300789,Chrome,1664,1110,,,,,,,,,,,,,,,,,,,,,,,H,125,star,1,0,d,0.7262,0,1,0,1,0,1,,,,,,,,,,,,,,,,,,,,,,,,,,,,,,,,,,,,,,,,,
296659,2022-09-25_12h45.29.343,vts_reward_expectancy,2022.2.4,Win32,60.2300789,Chrome,1664,1110,,,,,,,,,,,,,,,,,,,,,,,W,139,hexagon,1,0,f,0.723,0,2,0,2,0,1,,,,,,,,,,,,,,,,,,,,,,,,,,,,,,,,,,,,,,,,,
296659,2022-09-25_12h45.29.343,vts_reward_expectancy,2022.2.4,Win32,60.2300789,Chrome,1664,1110,,,,,,,,,,,,,,,,,,,,,,,U,167,triangle,1,0,f,0.7203,0,3,0,3,0,1,,,,,,,,,,,,,,,,,,,,,,,,,,,,,,,,,,,,,,,,,
296659,2022-09-25_12h45.29.343,vts_reward_expectancy,2022.2.4,Win32,60.2300789,Chrome,1664,1110,,,,,,,,,,,,,,,,,,,,,,,B,146,circle,1,0,d,0.6016,0,4,0,4,0,1,,,,,,,,,,,,,,,,,,,,,,,,,,,,,,,,,,,,,,,,,
296659,2022-09-25_12h45.29.343,vts_reward_expectancy,2022.2.4,Win32,60.2300789,Chrome,1664,1110,,,,,,,,,,,,,,,,,,,,,,,F,132,star,1,0,d,1.4054,0,5,0,5,0,1,,,,,,,,,,,,,,,,,,,,,,,,,,,,,,,,,,,,,,,,,
296659,2022-09-25_12h45.29.343,vts_reward_expectancy,2022.2.4,Win32,60.2300789,Chrome,1664,1110,,,,,,,,,,,,,,,,,,,,,,,D,174,hexagon,1,0,d,0.6429,0,6,0,6,0,1,,,,,,,,,,,,,,,,,,,,,,,,,,,,,,,,,,,,,,,,,
296659,2022-09-25_12h45.29.343,vts_reward_expectancy,2022.2.4,Win32,60.2300789,Chrome,1664,1110,,,,,,,,,,,,,,,,,,,,,,,S,181,triangle,1,0,f,0.7844,0,7,0,7,0,1,,,,,,,,,,,,,,,,,,,,,,,,,,,,,,,,,,,,,,,,,
296659,2022-09-25_12h45.29.343,vts_reward_expectancy,2022.2.4,Win32,60.2300789,Chrome,1664,1110,,,,,,,,,,,,,,,,,,,,,,,Y,160,triangle,1,0,f,0.6526,0,8,0,8,0,1,,,,,,,,,,,,,,,,,,,,,,,,,,,,,,,,,,,,,,,,,
296659,2022-09-25_12h45.29.343,vts_reward_expectancy,2022.2.4,Win32,60.2300789,Chrome,1664,1110,,,,,,,,,,,,,,,,,,,,,,,H,125,circle,1,0,d,0.8689,0,9,0,9,0,1,,,,,,,,,,,,,,,,,,,,,,,,,,,,,,,,,,,,,,,,,
296659,2022-09-25_12h45.29.343,vts_reward_expectancy,2022.2.4,Win32,60.2300789,Chrome,1664,1110,,,,,,,,,,,,,,,,,,,,,,,B,125,hexagon,1,0,,,1,,,,,,j,1.0215,0,0,0,0,1,,,,,,,,,,,,,,,,,,,,,,,,,,,,,,,,,,
296659,2022-09-25_12h45.29.343,vts_reward_expectancy,2022.2.4,Win32,60.2300789,Chrome,1664,1110,,,,,,,,,,,,,,,,,,,,,,,W,160,circle,1,0,,,1,,,,,,k,0.691,1,0,1,0,1,,,,,,,,,,,,,,,,,,,,,,,,,,,,,,,,,,
296659,2022-09-25_12h45.29.343,vts_reward_expectancy,2022.2.4,Win32,60.2300789,Chrome,1664,1110,,,,,,,,,,,,,,,,,,,,,,,Y,174,triangle,1,0,,,1,,,,,,k,0.9921,2,0,2,0,1,,,,,,,,,,,,,,,,,,,,,,,,,,,,,,,,,,
296659,2022-09-25_12h45.29.343,vts_reward_expectancy,2022.2.4,Win32,60.2300789,Chrome,1664,1110,,,,,,,,,,,,,,,,,,,,,,,U,146,star,1,0,,,1,,,,,,j,1.6859,3,0,3,0,1,,,,,,,,,,,,,,,,,,,,,,,,,,,,,,,,,,
296659,2022-09-25_12h45.29.343,vts_reward_expectancy,2022.2.4,Win32,60.2300789,Chrome,1664,1110,,,,,,,,,,,,,,,,,,,,,,,F,167,hexagon,1,0,,,1,,,,,,k,1.7272,4,0,4,0,1,,,,,,,,,,,,,,,,,,,,,,,,,,,,,,,,,,
296659,2022-09-25_12h45.29.343,vts_reward_expectancy,2022.2.4,Win32,60.2300789,Chrome,1664,1110,,,,,,,,,,,,,,,,,,,,,,,S,181,circle,1,0,,,1,,,,,,k,1.0681,5,0,5,0,1,,,,,,,,,,,,,,,,,,,,,,,,,,,,,,,,,,
296659,2022-09-25_12h45.29.343,vts_reward_expectancy,2022.2.4,Win32,60.2300789,Chrome,1664,1110,,,,,,,,,,,,,,,,,,,,,,,H,132,triangle,1,0,,,1,,,,,,j,1.0842,6,0,6,0,1,,,,,,,,,,,,,,,,,,,,,,,,,,,,,,,,,,
296659,2022-09-25_12h45.29.343,vts_reward_expectancy,2022.2.4,Win32,60.2300789,Chrome,1664,1110,,,,,,,,,,,,,,,,,,,,,,,D,139,star,1,0,,,1,,,,,,j,1.1854,7,0,7,0,1,,,,,,,,,,,,,,,,,,,,,,,,,,,,,,,,,,
296659,2022-09-25_12h45.29.343,vts_reward_expectancy,2022.2.4,Win32,60.2300789,Chrome,1664,1110,,,,,,,,,,,,,,,,,,,,,,,B,125,triangle,1,0,,,1,,,,,,j,0.6351,8,0,8,0,1,,,,,,,,,,,,,,,,,,,,,,,,,,,,,,,,,,
296659,2022-09-25_12h45.29.343,vts_reward_expectancy,2022.2.4,Win32,60.2300789,Chrome,1664,1110,,,,,,,,,,,,,,,,,,,,,,,W,160,hexagon,1,0,,,1,,,,,,k,1.0667,9,0,9,0,1,,,,,,,,,,,,,,,,,,,,,,,,,,,,,,,,,,
296659,2022-09-25_12h45.29.343,vts_reward_expectancy,2022.2.4,Win32,60.2300789,Chrome,1664,1110,,,,,0,693,,,,,,,,,,,,,,,,,Y,160,star,-1,0,,,2,,,,,,,,,,,,,-1,no_choice,NA,,vtsPrac,0,0,0,0,1,,,,,,,,,,,,,,,,,,,,,,,,
296659,2022-09-25_12h45.29.343,vts_reward_expectancy,2022.2.4,Win32,60.2300789,Chrome,1664,1110,,,,,0,693,,,,,,,,,,,,,,,,,W,167,circle,1,0,,,2,,,,,,,,,,,,,switch,letter,lettSwt,f,vtsPrac,1,0,1,0,1,1.2547,,,,,,,,,,,,,,,,,,,,,,,
296659,2022-09-25_12h45.29.343,vts_reward_expectancy,2022.2.4,Win32,60.2300789,Chrome,1664,1110,,,,,0,693,,,,,,,,,,,,,,,,,U,174,star,1,0,,,2,,,,,,,,,,,,,repeat,letter,lettRpt,f,vtsPrac,2,0,2,0,1,1.0369,,,,,,,,,,,,,,,,,,,,,,,
296659,2022-09-25_12h45.29.343,vts_reward_expectancy,2022.2.4,Win32,60.2300789,Chrome,1664,1110,,,,,0,693,,,,,,,,,,,,,,,,,S,132,circle,1,0,,,2,,,,,,,,,,,,,repeat,letter,lettRpt,f,vtsPrac,3,0,3,0,1,1.1426,,,,,,,,,,,,,,,,,,,,,,,
296659,2022-09-25_12h45.29.343,vts_reward_expectancy,2022.2.4,Win32,60.2300789,Chrome,1664,1110,,,,,0,693,,,,,,,,,,,,,,,,,Y,160,triangle,1,0,,,2,,,,,,,,,,,,,repeat,letter,lettRpt,f,vtsPrac,4,0,4,0,1,0.7359,,,,,,,,,,,,,,,,,,,,,,,
296659,2022-09-25_12h45.29.343,vts_reward_expectancy,2022.2.4,Win32,60.2300789,Chrome,1664,1110,,,,,0,693,,,,,,,,,,,,,,,,,W,167,circle,1,0,,,2,,,,,,,,,,,,,repeat,letter,lettRpt,f,vtsPrac,5,0,5,0,1,0.5417,,,,,,,,,,,,,,,,,,,,,,,
296659,2022-09-25_12h45.29.343,vts_reward_expectancy,2022.2.4,Win32,60.2300789,Chrome,1664,1110,,,,,0,693,,,,,,,,,,,,,,,,,U,174,triangle,1,0,,,2,,,,,,,,,,,,,repeat,letter,lettRpt,f,vtsPrac,6,0,6,0,1,0.61,,,,,,,,,,,,,,,,,,,,,,,
296659,2022-09-25_12h45.29.343,vts_reward_expectancy,2022.2.4,Win32,60.2300789,Chrome,1664,1110,,,,,0,693,,,,,,,,,,,,,,,,,S,132,star,1,0,,,2,,,,,,,,,,,,,repeat,letter,lettRpt,f,vtsPrac,7,0,7,0,1,0.509,,,,,,,,,,,,,,,,,,,,,,,
296659,2022-09-25_12h45.29.343,vts_reward_expectancy,2022.2.4,Win32,60.2300789,Chrome,1664,1110,,,,,0,693,,,,,,,,,,,,,,,,,W,167,hexagon,1,0,,,2,,,,,,,,,,,,,repeat,letter,lettRpt,f,vtsPrac,8,0,8,0,1,1.8212,,,,,,,,,,,,,,,,,,,,,,,
296659,2022-09-25_12h45.29.343,vts_reward_expectancy,2022.2.4,Win32,60.2300789,Chrome,1664,1110,,,,,0,693,,,,,,,,,,,,,,,,,S,181,triangle,1,0,,,2,,,,,,,,,,,,,repeat,letter,lettRpt,f,vtsPrac,9,0,9,0,1,0.519,,,,,,,,,,,,,,,,,,,,,,,
296659,2022-09-25_12h45.29.343,vts_reward_expectancy,2022.2.4,Win32,60.2300789,Chrome,1664,1110,,,,,0,693,,,,,,,,,,,,,,,,,Y,125,circle,-1,0,,,2,,,,,,,,,,,,,switch,no_choice,NA,,vtsPrac,10,0,10,0,1,,,,,,,,,,,,,,,,,,,,,,,,
296659,2022-09-25_12h45.29.343,vts_reward_expectancy,2022.2.4,Win32,60.2300789,Chrome,1664,1110,,,,,0,693,,,,,,,,,,,,,,,,,B,174,hexagon,0,0,,,2,,,,,,,,,,,,,switch,letter,NA,f,vtsPrac,11,0,11,0,1,0.5055,,,,,,,,,,,,,,,,,,,,,,,
296659,2022-09-25_12h45.29.343,vts_reward_expectancy,2022.2.4,Win32,60.2300789,Chrome,1664,1110,,,,,0,693,,,,,,,,,,,,,,,,,Y,139,star,1,1,,,2,,,,,,,,,,,,,repeat,letter,lettRpt,f,vtsPrac,12,0,12,0,1,0.6544,,,,,,,,,,,,,,,,,,,,,,,
296659,2022-09-25_12h45.29.343,vts_reward_expectancy,2022.2.4,Win32,60.2300789,Chrome,1664,1110,,,,,0,693,,,,,,,,,,,,,,,,,H,181,triangle,1,0,,,2,,,,,,,,,,,,,repeat,letter,lettRpt,d,vtsPrac,13,0,13,0,1,1.0237,,,,,,,,,,,,,,,,,,,,,,,
296659,2022-09-25_12h45.29.343,vts_reward_expectancy,2022.2.4,Win32,60.2300789,Chrome,1664,1110,,,,,0,693,,,,,,,,,,,,,,,,,F,132,star,1,0,,,2,,,,,,,,,,,,,repeat,letter,lettRpt,d,vtsPrac,14,0,14,0,1,1.2604,,,,,,,,,,,,,,,,,,,,,,,
296659,2022-09-25_12h45.29.343,vts_reward_expectancy,2022.2.4,Win32,60.2300789,Chrome,1664,1110,,,,,0,693,,,,,,,,,,,,,,,,,U,160,triangle,1,0,,,2,,,,,,,,,,,,,repeat,letter,lettRpt,f,vtsPrac,15,0,15,0,1,0.6414,,,,,,,,,,,,,,,,,,,,,,,
296659,2022-09-25_12h45.29.343,vts_reward_expectancy,2022.2.4,Win32,60.2300789,Chrome,1664,1110,,,,,0,693,,,,,,,,,,,,,,,,,W,181,hexagon,1,0,,,3,,,,,,,,,,,,,repeat,letter,lettRpt,f,vtsPrac,0,0,0,0,1,1.1194,,,,,,,,,,,,,,,,,,,,,,,
296659,2022-09-25_12h45.29.343,vts_reward_expectancy,2022.2.4,Win32,60.2300789,Chrome,1664,1110,,,,,0,693,,,,,,,,,,,,,,,,,Y,139,star,1,0,,,3,,,,,,,,,,,,,repeat,letter,lettRpt,f,vtsPrac,1,0,1,0,1,0.8361,,,,,,,,,,,,,,,,,,,,,,,
296659,2022-09-25_12h45.29.343,vts_reward_expectancy,2022.2.4,Win32,60.2300789,Chrome,1664,1110,,,,,0,693,,,,,,,,,,,,,,,,,F,125,hexagon,1,0,,,3,,,,,,,,,,,,,repeat,letter,lettRpt,d,vtsPrac,2,0,2,0,1,0.6864,,,,,,,,,,,,,,,,,,,,,,,
296659,2022-09-25_12h45.29.343,vts_reward_expectancy,2022.2.4,Win32,60.2300789,Chrome,1664,1110,,,,,0,693,,,,,,,,,,,,,,,,,H,160,star,1,0,,,3,,,,,,,,,,,,,repeat,letter,lettRpt,d,vtsPrac,3,0,3,0,1,0.7842,,,,,,,,,,,,,,,,,,,,,,,
296659,2022-09-25_12h45.29.343,vts_reward_expectancy,2022.2.4,Win32,60.2300789,Chrome,1664,1110,,,,,0,693,,,,,,,,,,,,,,,,,W,181,circle,1,0,,,3,,,,,,,,,,,,,repeat,letter,lettRpt,f,vtsPrac,4,0,4,0,1,0.556,,,,,,,,,,,,,,,,,,,,,,,
296659,2022-09-25_12h45.29.343,vts_reward_expectancy,2022.2.4,Win32,60.2300789,Chrome,1664,1110,,,,,0,693,,,,,,,,,,,,,,,,,Y,139,star,1,0,,,3,,,,,,,,,,,,,repeat,letter,lettRpt,f,vtsPrac,5,0,5,0,1,0.701,,,,,,,,,,,,,,,,,,,,,,,
296659,2022-09-25_12h45.29.343,vts_reward_expectancy,2022.2.4,Win32,60.2300789,Chrome,1664,1110,,,,,0,693,,,,,,,,,,,,,,,,,F,125,circle,1,0,,,3,,,,,,,,,,,,,repeat,letter,lettRpt,d,vtsPrac,6,0,6,0,1,1.0014,,,,,,,,,,,,,,,,,,,,,,,
296659,2022-09-25_12h45.29.343,vts_reward_expectancy,2022.2.4,Win32,60.2300789,Chrome,1664,1110,,,,,0,693,,,,,,,,,,,,,,,,,H,160,star,1,0,,,3,,,,,,,,,,,,,repeat,letter,lettRpt,d,vtsPrac,7,0,7,0,1,0.8404,,,,,,,,,,,,,,,,,,,,,,,
296659,2022-09-25_12h45.29.343,vts_reward_expectancy,2022.2.4,Win32,60.2300789,Chrome,1664,1110,,,,,0,693,,,,,,,,,,,,,,,,,Y,174,hexagon,1,0,,,3,,,,,,,,,,,,,repeat,letter,lettRpt,f,vtsPrac,8,0,8,0,1,0.6931,,,,,,,,,,,,,,,,,,,,,,,
296659,2022-09-25_12h45.29.343,vts_reward_expectancy,2022.2.4,Win32,60.2300789,Chrome,1664,1110,,,,,0,693,,,,,,,,,,,,,,,,,B,146,circle,1,0,,,3,,,,,,,,,,,,,repeat,letter,lettRpt,d,vtsPrac,9,0,9,0,1,0.6864,,,,,,,,,,,,,,,,,,,,,,,
296659,2022-09-25_12h45.29.343,vts_reward_expectancy,2022.2.4,Win32,60.2300789,Chrome,1664,1110,,,,,0,693,,,,,,,,,,,,,,,,,F,132,circle,1,0,,,3,,,,,,,,,,,,,repeat,letter,lettRpt,d,vtsPrac,10,0,10,0,1,0.9605,,,,,,,,,,,,,,,,,,,,,,,
296659,2022-09-25_12h45.29.343,vts_reward_expectancy,2022.2.4,Win32,60.2300789,Chrome,1664,1110,,,,,0,693,,,,,,,,,,,,,,,,,U,167,hexagon,1,0,,,3,,,,,,,,,,,,,repeat,letter,lettRpt,f,vtsPrac,11,0,11,0,1,0.7676,,,,,,,,,,,,,,,,,,,,,,,
296659,2022-09-25_12h45.29.343,vts_reward_expectancy,2022.2.4,Win32,60.2300789,Chrome,1664,1110,,,,,0,693,,,,,,,,,,,,,,,,,B,132,triangle,1,0,,,3,,,,,,,,,,,,,repeat,letter,lettRpt,d,vtsPrac,12,0,12,0,1,0.6235,,,,,,,,,,,,,,,,,,,,,,,
296659,2022-09-25_12h45.29.343,vts_reward_expectancy,2022.2.4,Win32,60.2300789,Chrome,1664,1110,,,,,0,693,,,,,,,,,,,,,,,,,U,139,circle,1,0,,,3,,,,,,,,,,,,,repeat,letter,lettRpt,f,vtsPrac,13,0,13,0,1,0.9689,,,,,,,,,,,,,,,,,,,,,,,
296659,2022-09-25_12h45.29.343,vts_reward_expectancy,2022.2.4,Win32,60.2300789,Chrome,1664,1110,,,,,0,693,,,,,,,,,,,,,,,,,Y,160,circle,1,0,,,3,,,,,,,,,,,,,repeat,letter,lettRpt,f,vtsPrac,14,0,14,0,1,0.8709,,,,,,,,,,,,,,,,,,,,,,,
296659,2022-09-25_12h45.29.343,vts_reward_expectancy,2022.2.4,Win32,60.2300789,Chrome,1664,1110,,,,,0,693,,,,,,,,,,,,,,,,,H,174,triangle,1,0,,,3,,,,,,,,,,,,,repeat,letter,lettRpt,d,vtsPrac,15,0,15,0,1,0.8934,,,,,,,,,,,,,,,,,,,,,,,
296659,2022-09-25_12h45.29.343,vts_reward_expectancy,2022.2.4,Win32,60.2300789,Chrome,1664,1110,,,,,0,693,,,,,,,,,,,,,,,,,D,160,circle,1,0,,,4,,,,,,,,,,,,,switch,number,numSwt,k,vtsPrac,0,0,0,0,1,1.2399,,,,,,,,,,,,,,,,,,,,,,,
296659,2022-09-25_12h45.29.343,vts_reward_expectancy,2022.2.4,Win32,60.2300789,Chrome,1664,1110,,,,,0,693,,,,,,,,,,,,,,,,,B,139,triangle,1,0,,,4,,,,,,,,,,,,,switch,letter,lettSwt,d,vtsPrac,1,0,1,0,1,1.1811,,,,,,,,,,,,,,,,,,,,,,,
296659,2022-09-25_12h45.29.343,vts_reward_expectancy,2022.2.4,Win32,60.2300789,Chrome,1664,1110,,,,,0,693,,,,,,,,,,,,,,,,,U,125,circle,1,0,,,4,,,,,,,,,,,,,switch,number,numSwt,j,vtsPrac,2,0,2,0,1,2.1014,,,,,,,,,,,,,,,,,,,,,,,
296659,2022-09-25_12h45.29.343,vts_reward_expectancy,2022.2.4,Win32,60.2300789,Chrome,1664,1110,,,,,0,693,,,,,,,,,,,,,,,,,W,174,triangle,1,0,,,4,,,,,,,,,,,,,switch,letter,lettSwt,f,vtsPrac,3,0,3,0,1,0.8876,,,,,,,,,,,,,,,,,,,,,,,
296659,2022-09-25_12h45.29.343,vts_reward_expectancy,2022.2.4,Win32,60.2300789,Chrome,1664,1110,,,,,0,693,,,,,,,,,,,,,,,,,D,160,star,1,0,,,4,,,,,,,,,,,,,repeat,letter,lettRpt,d,vtsPrac,4,0,4,0,1,1.4625,,,,,,,,,,,,,,,,,,,,,,,
296659,2022-09-25_12h45.29.343,vts_reward_expectancy,2022.2.4,Win32,60.2300789,Chrome,1664,1110,,,,,0,693,,,,,,,,,,,,,,,,,B,139,hexagon,1,0,,,4,,,,,,,,,,,,,switch,number,numSwt,j,vtsPrac,5,0,5,0,1,0.8498,,,,,,,,,,,,,,,,,,,,,,,
296659,2022-09-25_12h45.29.343,vts_reward_expectancy,2022.2.4,Win32,60.2300789,Chrome,1664,1110,,,,,0,693,,,,,,,,,,,,,,,,,U,125,star,1,0,,,4,,,,,,,,,,,,,switch,letter,lettSwt,f,vtsPrac,6,0,6,0,1,0.8926,,,,,,,,,,,,,,,,,,,,,,,
296659,2022-09-25_12h45.29.343,vts_reward_expectancy,2022.2.4,Win32,60.2300789,Chrome,1664,1110,,,,,0,693,,,,,,,,,,,,,,,,,W,174,circle,1,0,,,4,,,,,,,,,,,,,repeat,letter,lettRpt,f,vtsPrac,7,0,7,0,1,0.8628,,,,,,,,,,,,,,,,,,,,,,,
296659,2022-09-25_12h45.29.343,vts_reward_expectancy,2022.2.4,Win32,60.2300789,Chrome,1664,1110,,,,,0,693,,,,,,,,,,,,,,,,,F,132,triangle,1,0,,,4,,,,,,,,,,,,,repeat,letter,lettRpt,d,vtsPrac,8,0,8,0,1,0.6813,,,,,,,,,,,,,,,,,,,,,,,
296659,2022-09-25_12h45.29.343,vts_reward_expectancy,2022.2.4,Win32,60.2300789,Chrome,1664,1110,,,,,0,693,,,,,,,,,,,,,,,,,B,174,circle,1,0,,,4,,,,,,,,,,,,,switch,number,numSwt,k,vtsPrac,9,0,9,0,1,1.5494,,,,,,,,,,,,,,,,,,,,,,,
296659,2022-09-25_12h45.29.343,vts_reward_expectancy,2022.2.4,Win32,60.2300789,Chrome,1664,1110,,,,,0,693,,,,,,,,,,,,,,,,,H,146,star,1,0,,,4,,,,,,,,,,,,,repeat,number,numRpt,j,vtsPrac,10,0,10,0,1,1.638,,,,,,,,,,,,,,,,,,,,,,,
296659,2022-09-25_12h45.29.343,vts_reward_expectancy,2022.2.4,Win32,60.2300789,Chrome,1664,1110,,,,,0,693,,,,,,,,,,,,,,,,,D,181,circle,1,0,,,4,,,,,,,,,,,,,repeat,number,numRpt,k,vtsPrac,11,0,11,0,1,0.9442,,,,,,,,,,,,,,,,,,,,,,,
296659,2022-09-25_12h45.29.343,vts_reward_expectancy,2022.2.4,Win32,60.2300789,Chrome,1664,1110,,,,,0,693,,,,,,,,,,,,,,,,,D,174,triangle,1,0,,,4,,,,,,,,,,,,,switch,letter,lettSwt,d,vtsPrac,12,0,12,0,1,1.2838,,,,,,,,,,,,,,,,,,,,,,,
296659,2022-09-25_12h45.29.343,vts_reward_expectancy,2022.2.4,Win32,60.2300789,Chrome,1664,1110,,,,,0,693,,,,,,,,,,,,,,,,,S,160,star,1,0,,,4,,,,,,,,,,,,,repeat,letter,lettRpt,f,vtsPrac,13,0,13,0,1,0.7673,,,,,,,,,,,,,,,,,,,,,,,
296659,2022-09-25_12h45.29.343,vts_reward_expectancy,2022.2.4,Win32,60.2300789,Chrome,1664,1110,,,,,0,693,,,,,,,,,,,,,,,,,Y,146,circle,1,0,,,4,,,,,,,,,,,,,repeat,letter,lettRpt,f,vtsPrac,14,0,14,0,1,0.9837,,,,,,,,,,,,,,,,,,,,,,,
296659,2022-09-25_12h45.29.343,vts_reward_expectancy,2022.2.4,Win32,60.2300789,Chrome,1664,1110,,,,,0,693,,,,,,,,,,,,,,,,,B,167,star,1,0,,,4,,,,,,,,,,,,,switch,number,numSwt,k,vtsPrac,15,0,15,0,1,1.1115,,,,,,,,,,,,,,,,,,,,,,,
296659,2022-09-25_12h45.29.343,vts_reward_expectancy,2022.2.4,Win32,60.2300789,Chrome,1664,1110,,,,,,,,,,,,,,,,,,,,,,,,,,,,,,,,,,,,,,,,,,,,,,,,,,,,,,,,,,,,,,,,,,,,,,,,,,,,
296659,2022-09-25_12h45.29.343,vts_reward_expectancy,2022.2.4,Win32,60.2300789,Chrome,1664,1110,,,,,,,,,,,,,,,,,,,,,,,,,,,,,,,,,,,,,,,,,,,,,,,,,,,,,,,,,,,,,,,,,,,,,,,,,,,,
296659,2022-09-25_12h45.29.343,vts_reward_expectancy,2022.2.4,Win32,60.2300789,Chrome,1664,1110,,,,,0,693,,,,,,,,,,,,,,,,,H,181,hexagon,1,0,,,,,,,,,,,,,,,,switch,letter,lettSwt,d,noRew,,,,,,1.3057,0,0,0,0,0,1,,,,,,,,,,,,,,,,,
296659,2022-09-25_12h45.29.343,vts_reward_expectancy,2022.2.4,Win32,60.2300789,Chrome,1664,1110,,,,,0,693,,,,,,,,,,,,,,,,,U,125,star,1,0,,,,,,,,,,,,,,,,repeat,letter,lettRpt,f,noRew,,,,,,1.0298,0,1,0,1,0,1,,,,,,,,,,,,,,,,,
296659,2022-09-25_12h45.29.343,vts_reward_expectancy,2022.2.4,Win32,60.2300789,Chrome,1664,1110,,,,,0,693,,,,,,,,,,,,,,,,,F,174,hexagon,1,0,,,,,,,,,,,,,,,,repeat,letter,lettRpt,d,noRew,,,,,,1.0363,0,2,0,2,0,1,,,,,,,,,,,,,,,,,
296659,2022-09-25_12h45.29.343,vts_reward_expectancy,2022.2.4,Win32,60.2300789,Chrome,1664,1110,,,,,0,693,,,,,,,,,,,,,,,,,S,132,star,1,0,,,,,,,,,,,,,,,,switch,number,numSwt,j,noRew,,,,,,1.0174,0,3,0,3,0,1,,,,,,,,,,,,,,,,,
296659,2022-09-25_12h45.29.343,vts_reward_expectancy,2022.2.4,Win32,60.2300789,Chrome,1664,1110,,,,,0,693,,,,,,,,,,,,,,,,,H,181,triangle,1,0,,,,,,,,,,,,,,,,repeat,number,numRpt,k,noRew,,,,,,1.3912,0,4,0,4,0,1,,,,,,,,,,,,,,,,,
296659,2022-09-25_12h45.29.343,vts_reward_expectancy,2022.2.4,Win32,60.2300789,Chrome,1664,1110,,,,,0,693,,,,,,,,,,,,,,,,,U,125,circle,0,0,,,,,,,,,,,,,,,,switch,letter,NA,d,noRew,,,,,,1.1017,0,5,0,5,0,1,,,,,,,,,,,,,,,,,
296659,2022-09-25_12h45.29.343,vts_reward_expectancy,2022.2.4,Win32,60.2300789,Chrome,1664,1110,,,,,0,693,,,,,,,,,,,,,,,,,F,174,triangle,1,1,,,,,,,,,,,,,,,,repeat,letter,lettRpt,d,noRew,,,,,,2.2839,0,6,0,6,0,1,,,,,,,,,,,,,,,,,
296659,2022-09-25_12h45.29.343,vts_reward_expectancy,2022.2.4,Win32,60.2300789,Chrome,1664,1110,,,,,0,693,,,,,,,,,,,,,,,,,S,132,circle,1,0,,,,,,,,,,,,,,,,switch,number,numSwt,j,noRew,,,,,,0.7783,0,7,0,7,0,1,,,,,,,,,,,,,,,,,
296659,2022-09-25_12h45.29.343,vts_reward_expectancy,2022.2.4,Win32,60.2300789,Chrome,1664,1110,,,,,0,693,,,,,,,,,,,,,,,,,B,132,star,1,0,,,,,,,,,,,,,,,,switch,letter,lettSwt,d,noRew,,,,,,0.7735,0,8,0,8,0,1,,,,,,,,,,,,,,,,,
296659,2022-09-25_12h45.29.343,vts_reward_expectancy,2022.2.4,Win32,60.2300789,Chrome,1664,1110,,,,,0,693,,,,,,,,,,,,,,,,,Y,146,circle,0,0,,,,,,,,,,,,,,,,switch,number,NA,k,noRew,,,,,,0.7518,0,9,0,9,0,1,,,,,,,,,,,,,,,,,
296659,2022-09-25_12h45.29.343,vts_reward_expectancy,2022.2.4,Win32,60.2300789,Chrome,1664,1110,,,,,0,693,,,,,,,,,,,,,,,,,U,167,hexagon,1,1,,,,,,,,,,,,,,,,switch,letter,lettSwt,f,noRew,,,,,,0.8593,0,10,0,10,0,1,,,,,,,,,,,,,,,,,
296659,2022-09-25_12h45.29.343,vts_reward_expectancy,2022.2.4,Win32,60.2300789,Chrome,1664,1110,,,,,0,693,,,,,,,,,,,,,,,,,F,174,triangle,1,0,,,,,,,,,,,,,,,,switch,number,numSwt,k,noRew,,,,,,0.7347,0,11,0,11,0,1,,,,,,,,,,,,,,,,,
296659,2022-09-25_12h45.29.343,vts_reward_expectancy,2022.2.4,Win32,60.2300789,Chrome,1664,1110,,,,,0,693,,,,,,,,,,,,,,,,,F,132,circle,1,0,,,,,,,,,,,,,,,,repeat,number,numRpt,j,noRew,,,,,,0.7075,0,12,0,12,0,1,,,,,,,,,,,,,,,,,
296659,2022-09-25_12h45.29.343,vts_reward_expectancy,2022.2.4,Win32,60.2300789,Chrome,1664,1110,,,,,0,693,,,,,,,,,,,,,,,,,H,174,hexagon,1,0,,,,,,,,,,,,,,,,repeat,number,numRpt,k,noRew,,,,,,1.4526,0,13,0,13,0,1,,,,,,,,,,,,,,,,,
296659,2022-09-25_12h45.29.343,vts_reward_expectancy,2022.2.4,Win32,60.2300789,Chrome,1664,1110,,,,,0,693,,,,,,,,,,,,,,,,,Y,181,circle,1,0,,,,,,,,,,,,,,,,switch,letter,lettSwt,f,noRew,,,,,,1.1101,0,14,0,14,0,1,,,,,,,,,,,,,,,,,
296659,2022-09-25_12h45.29.343,vts_reward_expectancy,2022.2.4,Win32,60.2300789,Chrome,1664,1110,,,,,0,693,,,,,,,,,,,,,,,,,W,167,triangle,1,0,,,,,,,,,,,,,,,,repeat,letter,lettRpt,f,noRew,,,,,,1.4676,0,15,0,15,0,1,,,,,,,,,,,,,,,,,
296659,2022-09-25_12h45.29.343,vts_reward_expectancy,2022.2.4,Win32,60.2300789,Chrome,1664,1110,,,,,0,693,,,,,,,,,,,,,,,,,B,125,hexagon,1,0,,,,,,,,,,,,,,,,switch,number,numSwt,j,noRew,,,,,,1.5026,0,16,0,16,0,1,,,,,,,,,,,,,,,,,
296659,2022-09-25_12h45.29.343,vts_reward_expectancy,2022.2.4,Win32,60.2300789,Chrome,1664,1110,,,,,0,693,,,,,,,,,,,,,,,,,H,146,triangle,1,0,,,,,,,,,,,,,,,,repeat,number,numRpt,j,noRew,,,,,,2.3042,0,17,0,17,0,1,,,,,,,,,,,,,,,,,
296659,2022-09-25_12h45.29.343,vts_reward_expectancy,2022.2.4,Win32,60.2300789,Chrome,1664,1110,,,,,0,693,,,,,,,,,,,,,,,,,U,160,triangle,-1,0,,,,,,,,,,,,,,,,switch,no_choice,NA,,noRew,,,,,,,0,18,0,18,0,1,,,,,,,,,,,,,,,,,
296659,2022-09-25_12h45.29.343,vts_reward_expectancy,2022.2.4,Win32,60.2300789,Chrome,1664,1110,,,,,0,693,,,,,,,,,,,,,,,,,S,174,hexagon,1,0,,,,,,,,,,,,,,,,switch,number,numSwt,k,noRew,,,,,,1.5055,0,19,0,19,0,1,,,,,,,,,,,,,,,,,
296659,2022-09-25_12h45.29.343,vts_reward_expectancy,2022.2.4,Win32,60.2300789,Chrome,1664,1110,,,,,0,693,,,,,,,,,,,,,,,,,U,160,circle,1,0,,,,,,,,,,,,,,,,repeat,number,numRpt,k,noRew,,,,,,1.2505,0,20,0,20,0,1,,,,,,,,,,,,,,,,,
296659,2022-09-25_12h45.29.343,vts_reward_expectancy,2022.2.4,Win32,60.2300789,Chrome,1664,1110,,,,,0,693,,,,,,,,,,,,,,,,,D,139,hexagon,0,0,,,,,,,,,,,,,,,,switch,letter,NA,f,noRew,,,,,,0.9181,0,21,0,21,0,1,,,,,,,,,,,,,,,,,
296659,2022-09-25_12h45.29.343,vts_reward_expectancy,2022.2.4,Win32,60.2300789,Chrome,1664,1110,,,,,0,693,,,,,,,,,,,,,,,,,Y,167,triangle,1,1,,,,,,,,,,,,,,,,repeat,letter,lettRpt,f,noRew,,,,,,0.9583,0,22,0,22,0,1,,,,,,,,,,,,,,,,,
296659,2022-09-25_12h45.29.343,vts_reward_expectancy,2022.2.4,Win32,60.2300789,Chrome,1664,1110,,,,,0,693,,,,,,,,,,,,,,,,,B,181,hexagon,1,0,,,,,,,,,,,,,,,,switch,number,numSwt,k,noRew,,,,,,1.6196,0,23,0,23,0,1,,,,,,,,,,,,,,,,,
296659,2022-09-25_12h45.29.343,vts_reward_expectancy,2022.2.4,Win32,60.2300789,Chrome,1664,1110,,,,,0,693,,,,,,,,,,,,,,,,,B,146,circle,1,0,,,,,,,,,,,,,,,,repeat,number,numRpt,j,noRew,,,,,,0.7518,0,24,0,24,0,1,,,,,,,,,,,,,,,,,
296659,2022-09-25_12h45.29.343,vts_reward_expectancy,2022.2.4,Win32,60.2300789,Chrome,1664,1110,,,,,0,693,,,,,,,,,,,,,,,,,F,132,triangle,1,0,,,,,,,,,,,,,,,,switch,letter,lettSwt,d,noRew,,,,,,0.9346,0,25,0,25,0,1,,,,,,,,,,,,,,,,,
296659,2022-09-25_12h45.29.343,vts_reward_expectancy,2022.2.4,Win32,60.2300789,Chrome,1664,1110,,,,,0,693,,,,,,,,,,,,,,,,,W,174,hexagon,1,0,,,,,,,,,,,,,,,,switch,number,numSwt,k,noRew,,,,,,2.1513,0,26,0,26,0,1,,,,,,,,,,,,,,,,,
296659,2022-09-25_12h45.29.343,vts_reward_expectancy,2022.2.4,Win32,60.2300789,Chrome,1664,1110,,,,,0,693,,,,,,,,,,,,,,,,,H,167,circle,1,0,,,,,,,,,,,,,,,,repeat,number,numRpt,k,noRew,,,,,,2.2208,0,27,0,27,0,1,,,,,,,,,,,,,,,,,
296659,2022-09-25_12h45.29.343,vts_reward_expectancy,2022.2.4,Win32,60.2300789,Chrome,1664,1110,,,,,0,693,,,,,,,,,,,,,,,,,B,132,star,1,0,,,,,,,,,,,,,,,,switch,letter,lettSwt,d,noRew,,,,,,0.7584,0,28,0,28,0,1,,,,,,,,,,,,,,,,,
296659,2022-09-25_12h45.29.343,vts_reward_expectancy,2022.2.4,Win32,60.2300789,Chrome,1664,1110,,,,,0,693,,,,,,,,,,,,,,,,,F,167,hexagon,1,0,,,,,,,,,,,,,,,,repeat,letter,lettRpt,d,noRew,,,,,,0.9356,0,29,0,29,0,1,,,,,,,,,,,,,,,,,
296659,2022-09-25_12h45.29.343,vts_reward_expectancy,2022.2.4,Win32,60.2300789,Chrome,1664,1110,,,,,0,693,,,,,,,,,,,,,,,,,S,125,hexagon,1,0,,,,,,,,,,,,,,,,repeat,letter,lettRpt,f,noRew,,,,,,1.6856,0,30,0,30,0,1,,,,,,,,,,,,,,,,,
296659,2022-09-25_12h45.29.343,vts_reward_expectancy,2022.2.4,Win32,60.2300789,Chrome,1664,1110,,,,,0,693,,,,,,,,,,,,,,,,,Y,146,triangle,1,0,,,,,,,,,,,,,,,,switch,number,numSwt,j,noRew,,,,,,1.7267,0,31,0,31,0,1,,,,,,,,,,,,,,,,,
296659,2022-09-25_12h45.29.343,vts_reward_expectancy,2022.2.4,Win32,60.2300789,Chrome,1664,1110,,,,,0,693,,,,,,,,,,,,,,,,,D,146,hexagon,1,0,,,,,,,,,,,,,,,,repeat,number,numRpt,j,noRew,,,,,,0.7171,0,32,0,32,0,1,,,,,,,,,,,,,,,,,
296659,2022-09-25_12h45.29.343,vts_reward_expectancy,2022.2.4,Win32,60.2300789,Chrome,1664,1110,,,,,0,693,,,,,,,,,,,,,,,,,F,125,triangle,1,0,,,,,,,,,,,,,,,,switch,letter,lettSwt,d,noRew,,,,,,0.7845,0,33,0,33,0,1,,,,,,,,,,,,,,,,,
296659,2022-09-25_12h45.29.343,vts_reward_expectancy,2022.2.4,Win32,60.2300789,Chrome,1664,1110,,,,,0,693,,,,,,,,,,,,,,,,,U,181,hexagon,1,0,,,,,,,,,,,,,,,,repeat,letter,lettRpt,f,noRew,,,,,,1.0009,0,34,0,34,0,1,,,,,,,,,,,,,,,,,
296659,2022-09-25_12h45.29.343,vts_reward_expectancy,2022.2.4,Win32,60.2300789,Chrome,1664,1110,,,,,0,693,,,,,,,,,,,,,,,,,S,139,circle,1,0,,,,,,,,,,,,,,,,switch,number,numSwt,j,noRew,,,,,,0.7006,0,35,0,35,0,1,,,,,,,,,,,,,,,,,
296659,2022-09-25_12h45.29.343,vts_reward_expectancy,2022.2.4,Win32,60.2300789,Chrome,1664,1110,,,,,0,693,,,,,,,,,,,,,,,,,F,139,circle,1,0,,,,,,,,,,,,,,,,repeat,number,numRpt,j,noRew,,,,,,1.2068,0,36,0,36,0,1,,,,,,,,,,,,,,,,,
296659,2022-09-25_12h45.29.343,vts_reward_expectancy,2022.2.4,Win32,60.2300789,Chrome,1664,1110,,,,,0,693,,,,,,,,,,,,,,,,,B,167,hexagon,1,0,,,,,,,,,,,,,,,,switch,letter,lettSwt,d,noRew,,,,,,0.637,0,37,0,37,0,1,,,,,,,,,,,,,,,,,
296659,2022-09-25_12h45.29.343,vts_reward_expectancy,2022.2.4,Win32,60.2300789,Chrome,1664,1110,,,,,0,693,,,,,,,,,,,,,,,,,W,125,hexagon,1,0,,,,,,,,,,,,,,,,repeat,letter,lettRpt,f,noRew,,,,,,2.1676,0,38,0,38,0,1,,,,,,,,,,,,,,,,,
296659,2022-09-25_12h45.29.343,vts_reward_expectancy,2022.2.4,Win32,60.2300789,Chrome,1664,1110,,,,,0,693,,,,,,,,,,,,,,,,,Y,146,circle,1,0,,,,,,,,,,,,,,,,switch,number,numSwt,j,noRew,,,,,,0.8678,0,39,0,39,0,1,,,,,,,,,,,,,,,,,
296659,2022-09-25_12h45.29.343,vts_reward_expectancy,2022.2.4,Win32,60.2300789,Chrome,1664,1110,,,,,0,693,,,,,,,,,,,,,,,,,F,146,hexagon,1,0,,,,,,,,,,,,,,,,repeat,number,numRpt,j,noRew,,,,,,0.8024,0,40,0,40,0,1,,,,,,,,,,,,,,,,,
296659,2022-09-25_12h45.29.343,vts_reward_expectancy,2022.2.4,Win32,60.2300789,Chrome,1664,1110,,,,,0,693,,,,,,,,,,,,,,,,,W,160,circle,1,0,,,,,,,,,,,,,,,,repeat,number,numRpt,k,noRew,,,,,,1.0032,0,41,0,41,0,1,,,,,,,,,,,,,,,,,
296659,2022-09-25_12h45.29.343,vts_reward_expectancy,2022.2.4,Win32,60.2300789,Chrome,1664,1110,,,,,0,693,,,,,,,,,,,,,,,,,Y,132,circle,1,0,,,,,,,,,,,,,,,,switch,letter,lettSwt,f,noRew,,,,,,0.7336,0,42,0,42,0,1,,,,,,,,,,,,,,,,,
296659,2022-09-25_12h45.29.343,vts_reward_expectancy,2022.2.4,Win32,60.2300789,Chrome,1664,1110,,,,,0,693,,,,,,,,,,,,,,,,,S,167,triangle,1,0,,,,,,,,,,,,,,,,repeat,letter,lettRpt,f,noRew,,,,,,0.8544,0,43,0,43,0,1,,,,,,,,,,,,,,,,,
296659,2022-09-25_12h45.29.343,vts_reward_expectancy,2022.2.4,Win32,60.2300789,Chrome,1664,1110,,,,,0,693,,,,,,,,,,,,,,,,,W,181,star,1,0,,,,,,,,,,,,,,,,repeat,letter,lettRpt,f,noRew,,,,,,0.8885,0,44,0,44,0,1,,,,,,,,,,,,,,,,,
296659,2022-09-25_12h45.29.343,vts_reward_expectancy,2022.2.4,Win32,60.2300789,Chrome,1664,1110,,,,,0,693,,,,,,,,,,,,,,,,,F,167,triangle,1,0,,,,,,,,,,,,,,,,repeat,letter,lettRpt,d,noRew,,,,,,1.218,0,45,0,45,0,1,,,,,,,,,,,,,,,,,
296659,2022-09-25_12h45.29.343,vts_reward_expectancy,2022.2.4,Win32,60.2300789,Chrome,1664,1110,,,,,0,693,,,,,,,,,,,,,,,,,B,174,hexagon,1,0,,,,,,,,,,,,,,,,repeat,letter,lettRpt,d,noRew,,,,,,0.7341,0,46,0,46,0,1,,,,,,,,,,,,,,,,,
296659,2022-09-25_12h45.29.343,vts_reward_expectancy,2022.2.4,Win32,60.2300789,Chrome,1664,1110,,,,,0,693,,,,,,,,,,,,,,,,,S,160,star,1,0,,,,,,,,,,,,,,,,switch,number,numSwt,k,noRew,,,,,,1.6528,0,47,0,47,0,1,,,,,,,,,,,,,,,,,
296659,2022-09-25_12h45.29.343,vts_reward_expectancy,2022.2.4,Win32,60.2300789,Chrome,1664,1110,,,,,0,693,,,,,,,,,,,,,,,,,D,160,star,1,0,,,,,,,,,,,,,,,,repeat,number,numRpt,k,noRew,,,,,,0.6436,0,48,0,48,0,1,,,,,,,,,,,,,,,,,
296659,2022-09-25_12h45.29.343,vts_reward_expectancy,2022.2.4,Win32,60.2300789,Chrome,1664,1110,,,,,0,693,,,,,,,,,,,,,,,,,H,167,triangle,1,0,,,,,,,,,,,,,,,,repeat,number,numRpt,k,noRew,,,,,,0.6844,0,49,0,49,0,1,,,,,,,,,,,,,,,,,
296659,2022-09-25_12h45.29.343,vts_reward_expectancy,2022.2.4,Win32,60.2300789,Chrome,1664,1110,,,,,0,693,,,,,,,,,,,,,,,,,B,125,triangle,1,0,,,,,,,,,,,,,,,,repeat,number,numRpt,j,noRew,,,,,,1.0528,0,50,0,50,0,1,,,,,,,,,,,,,,,,,
296659,2022-09-25_12h45.29.343,vts_reward_expectancy,2022.2.4,Win32,60.2300789,Chrome,1664,1110,,,,,0,693,,,,,,,,,,,,,,,,,U,132,circle,1,0,,,,,,,,,,,,,,,,switch,letter,lettSwt,f,noRew,,,,,,0.9566,0,51,0,51,0,1,,,,,,,,,,,,,,,,,
296659,2022-09-25_12h45.29.343,vts_reward_expectancy,2022.2.4,Win32,60.2300789,Chrome,1664,1110,,,,,0,693,,,,,,,,,,,,,,,,,F,174,triangle,1,0,,,,,,,,,,,,,,,,repeat,letter,lettRpt,d,noRew,,,,,,1.7888,0,52,0,52,0,1,,,,,,,,,,,,,,,,,
296659,2022-09-25_12h45.29.343,vts_reward_expectancy,2022.2.4,Win32,60.2300789,Chrome,1664,1110,,,,,0,693,,,,,,,,,,,,,,,,,S,125,circle,1,0,,,,,,,,,,,,,,,,repeat,letter,lettRpt,f,noRew,,,,,,1.2388,0,53,0,53,0,1,,,,,,,,,,,,,,,,,
296659,2022-09-25_12h45.29.343,vts_reward_expectancy,2022.2.4,Win32,60.2300789,Chrome,1664,1110,,,,,0,693,,,,,,,,,,,,,,,,,D,139,star,1,0,,,,,,,,,,,,,,,,repeat,letter,lettRpt,d,noRew,,,,,,1.5174,0,54,0,54,0,1,,,,,,,,,,,,,,,,,
296659,2022-09-25_12h45.29.343,vts_reward_expectancy,2022.2.4,Win32,60.2300789,Chrome,1664,1110,,,,,0,693,,,,,,,,,,,,,,,,,B,167,circle,1,0,,,,,,,,,,,,,,,,repeat,letter,lettRpt,d,noRew,,,,,,0.7048,0,55,0,55,0,1,,,,,,,,,,,,,,,,,
296659,2022-09-25_12h45.29.343,vts_reward_expectancy,2022.2.4,Win32,60.2300789,Chrome,1664,1110,,,,,0,693,,,,,,,,,,,,,,,,,B,181,triangle,1,0,,,,,,,,,,,,,,,,switch,number,numSwt,k,noRew,,,,,,0.7727,0,56,0,56,0,1,,,,,,,,,,,,,,,,,
296659,2022-09-25_12h45.29.343,vts_reward_expectancy,2022.2.4,Win32,60.2300789,Chrome,1664,1110,,,,,0,693,,,,,,,,,,,,,,,,,S,167,hexagon,1,0,,,,,,,,,,,,,,,,repeat,number,numRpt,k,noRew,,,,,,1.8388,0,57,0,57,0,1,,,,,,,,,,,,,,,,,
296659,2022-09-25_12h45.29.343,vts_reward_expectancy,2022.2.4,Win32,60.2300789,Chrome,1664,1110,,,,,0,693,,,,,,,,,,,,,,,,,D,139,hexagon,1,0,,,,,,,,,,,,,,,,switch,letter,lettSwt,d,noRew,,,,,,1.3685,0,58,0,58,0,1,,,,,,,,,,,,,,,,,
296659,2022-09-25_12h45.29.343,vts_reward_expectancy,2022.2.4,Win32,60.2300789,Chrome,1664,1110,,,,,0,693,,,,,,,,,,,,,,,,,F,146,triangle,1,0,,,,,,,,,,,,,,,,repeat,letter,lettRpt,d,noRew,,,,,,0.7724,0,59,0,59,0,1,,,,,,,,,,,,,,,,,
296659,2022-09-25_12h45.29.343,vts_reward_expectancy,2022.2.4,Win32,60.2300789,Chrome,1664,1110,,,,,0,693,,,,,,,,,,,,,,,,,B,167,circle,1,0,,,,,,,,,,,,,,,,repeat,letter,lettRpt,d,noRew,,,,,,0.6683,0,60,0,60,0,1,,,,,,,,,,,,,,,,,
296659,2022-09-25_12h45.29.343,vts_reward_expectancy,2022.2.4,Win32,60.2300789,Chrome,1664,1110,,,,,0,693,,,,,,,,,,,,,,,,,W,174,triangle,1,0,,,,,,,,,,,,,,,,repeat,letter,lettRpt,f,noRew,,,,,,0.8014,0,61,0,61,0,1,,,,,,,,,,,,,,,,,
296659,2022-09-25_12h45.29.343,vts_reward_expectancy,2022.2.4,Win32,60.2300789,Chrome,1664,1110,,,,,0,693,,,,,,,,,,,,,,,,,Y,132,star,1,0,,,,,,,,,,,,,,,,switch,number,numSwt,j,noRew,,,,,,1.0846,0,62,0,62,0,1,,,,,,,,,,,,,,,,,
296659,2022-09-25_12h45.29.343,vts_reward_expectancy,2022.2.4,Win32,60.2300789,Chrome,1664,1110,,,,,0,693,,,,,,,,,,,,,,,,,D,139,triangle,1,0,,,,,,,,,,,,,,,,repeat,number,numRpt,j,noRew,,,,,,1.0439,0,63,0,63,0,1,,,,,,,,,,,,,,,,,
296659,2022-09-25_12h45.29.343,vts_reward_expectancy,2022.2.4,Win32,60.2300789,Chrome,1664,1110,,,,,,,,,,,,,,,,,,,,,,,,,,,,,,,,,,,,,,,,,,,,,,,,,,,,,,,,,,,,,,,,,,,,,,,,,,,,
296659,2022-09-25_12h45.29.343,vts_reward_expectancy,2022.2.4,Win32,60.2300789,Chrome,1664,1110,,,,,10,703,,,,,,,,,,,,,,,,,B,160,hexagon,1,0,,,,,,,,,,,,,,,,switch,letter,lettSwt,d,Hi,,,,,,0.6683,0,,,,,,space,2.3074,low,0,0,0,0,1,,,,,,,,,
296659,2022-09-25_12h45.29.343,vts_reward_expectancy,2022.2.4,Win32,60.2300789,Chrome,1664,1110,,,,,10,713,,,,,,,,,,,,,,,,,H,167,circle,1,0,,,,,,,,,,,,,,,,repeat,letter,lettRpt,d,Lo,,,,,,1.0849,0,,,,,,,,low,1,0,1,0,1,,,,,,,,,
296659,2022-09-25_12h45.29.343,vts_reward_expectancy,2022.2.4,Win32,60.2300789,Chrome,1664,1110,,,,,0,713,,,,,,,,,,,,,,,,,S,181,hexagon,1,0,,,,,,,,,,,,,,,,switch,number,numSwt,k,Hi,,,,,,0.9523,0,,,,,,,,low,2,0,2,0,1,,,,,,,,,
296659,2022-09-25_12h45.29.343,vts_reward_expectancy,2022.2.4,Win32,60.2300789,Chrome,1664,1110,,,,,10,723,,,,,,,,,,,,,,,,,W,132,circle,1,0,,,,,,,,,,,,,,,,repeat,number,numRpt,j,Lo,,,,,,0.6516,0,,,,,,,,low,3,0,3,0,1,,,,,,,,,
296659,2022-09-25_12h45.29.343,vts_reward_expectancy,2022.2.4,Win32,60.2300789,Chrome,1664,1110,,,,,1,724,,,,,,,,,,,,,,,,,D,146,hexagon,1,0,,,,,,,,,,,,,,,,switch,letter,lettSwt,d,Hi,,,,,,0.7019,0,,,,,,,,low,4,0,4,0,1,,,,,,,,,
296659,2022-09-25_12h45.29.343,vts_reward_expectancy,2022.2.4,Win32,60.2300789,Chrome,1664,1110,,,,,10,734,,,,,,,,,,,,,,,,,U,174,circle,1,0,,,,,,,,,,,,,,,,switch,number,numSwt,k,Lo,,,,,,0.4674,0,,,,,,,,low,5,0,5,0,1,,,,,,,,,
296659,2022-09-25_12h45.29.343,vts_reward_expectancy,2022.2.4,Win32,60.2300789,Chrome,1664,1110,,,,,0,734,,,,,,,,,,,,,,,,,F,139,hexagon,1,0,,,,,,,,,,,,,,,,switch,letter,lettSwt,d,Hi,,,,,,1.0344,0,,,,,,,,low,6,0,6,0,1,,,,,,,,,
296659,2022-09-25_12h45.29.343,vts_reward_expectancy,2022.2.4,Win32,60.2300789,Chrome,1664,1110,,,,,10,744,,,,,,,,,,,,,,,,,Y,125,circle,1,0,,,,,,,,,,,,,,,,switch,number,numSwt,j,Lo,,,,,,1.1907,0,,,,,,,,low,7,0,7,0,1,,,,,,,,,
296659,2022-09-25_12h45.29.343,vts_reward_expectancy,2022.2.4,Win32,60.2300789,Chrome,1664,1110,,,,,1,745,,,,,,,,,,,,,,,,,B,160,circle,1,0,,,,,,,,,,,,,,,,switch,letter,lettSwt,d,Lo,,,,,,0.6678,0,,,,,,,,low,8,0,8,0,1,,,,,,,,,
296659,2022-09-25_12h45.29.343,vts_reward_expectancy,2022.2.4,Win32,60.2300789,Chrome,1664,1110,,,,,0,745,,,,,,,,,,,,,,,,,H,167,hexagon,1,0,,,,,,,,,,,,,,,,switch,number,numSwt,k,Hi,,,,,,0.9212,0,,,,,,,,low,9,0,9,0,1,,,,,,,,,
296659,2022-09-25_12h45.29.343,vts_reward_expectancy,2022.2.4,Win32,60.2300789,Chrome,1664,1110,,,,,10,755,,,,,,,,,,,,,,,,,S,181,circle,1,0,,,,,,,,,,,,,,,,switch,letter,lettSwt,f,Lo,,,,,,0.8739,0,,,,,,,,low,10,0,10,0,1,,,,,,,,,
296659,2022-09-25_12h45.29.343,vts_reward_expectancy,2022.2.4,Win32,60.2300789,Chrome,1664,1110,,,,,10,765,,,,,,,,,,,,,,,,,W,132,hexagon,1,0,,,,,,,,,,,,,,,,repeat,letter,lettRpt,f,Hi,,,,,,0.8675,0,,,,,,,,low,11,0,11,0,1,,,,,,,,,
296659,2022-09-25_12h45.29.343,vts_reward_expectancy,2022.2.4,Win32,60.2300789,Chrome,1664,1110,,,,,10,775,,,,,,,,,,,,,,,,,D,146,circle,1,0,,,,,,,,,,,,,,,,repeat,letter,lettRpt,d,Lo,,,,,,0.8347,0,,,,,,,,low,12,0,12,0,1,,,,,,,,,
296659,2022-09-25_12h45.29.343,vts_reward_expectancy,2022.2.4,Win32,60.2300789,Chrome,1664,1110,,,,,1,776,,,,,,,,,,,,,,,,,U,174,hexagon,1,0,,,,,,,,,,,,,,,,repeat,letter,lettRpt,f,Hi,,,,,,0.7644,0,,,,,,,,low,13,0,13,0,1,,,,,,,,,
296659,2022-09-25_12h45.29.343,vts_reward_expectancy,2022.2.4,Win32,60.2300789,Chrome,1664,1110,,,,,1,777,,,,,,,,,,,,,,,,,F,139,circle,1,0,,,,,,,,,,,,,,,,switch,number,numSwt,j,Lo,,,,,,1.472,0,,,,,,,,low,14,0,14,0,1,,,,,,,,,
296659,2022-09-25_12h45.29.343,vts_reward_expectancy,2022.2.4,Win32,60.2300789,Chrome,1664,1110,,,,,0,777,,,,,,,,,,,,,,,,,Y,125,hexagon,1,0,,,,,,,,,,,,,,,,repeat,number,numRpt,j,Hi,,,,,,1.6518,0,,,,,,,,low,15,0,15,0,1,,,,,,,,,
296659,2022-09-25_12h45.29.343,vts_reward_expectancy,2022.2.4,Win32,60.2300789,Chrome,1664,1110,,,,,1,778,,,,,,,,,,,,,,,,,S,139,circle,1,0,,,,,,,,,,,,,,,,switch,letter,lettSwt,f,Lo,,,,,,1.0003,0,,,,,,,,low,16,0,16,0,1,,,,,,,,,
296659,2022-09-25_12h45.29.343,vts_reward_expectancy,2022.2.4,Win32,60.2300789,Chrome,1664,1110,,,,,1,779,,,,,,,,,,,,,,,,,D,125,hexagon,1,0,,,,,,,,,,,,,,,,repeat,letter,lettRpt,d,Hi,,,,,,0.6348,0,,,,,,,,low,17,0,17,0,1,,,,,,,,,
296659,2022-09-25_12h45.29.343,vts_reward_expectancy,2022.2.4,Win32,60.2300789,Chrome,1664,1110,,,,,0,779,,,,,,,,,,,,,,,,,U,146,hexagon,0,0,,,,,,,,,,,,,,,,repeat,letter,NA,d,Hi,,,,,,0.9888,0,,,,,,,,low,18,0,18,0,1,,,,,,,,,
296659,2022-09-25_12h45.29.343,vts_reward_expectancy,2022.2.4,Win32,60.2300789,Chrome,1664,1110,,,,,0,779,,,,,,,,,,,,,,,,,F,181,circle,0,1,,,,,,,,,,,,,,,,repeat,letter,NA,f,Hi,,,,,,1.4812,0,,,,,,,,low,19,0,19,0,1,,,,,,,,,
296659,2022-09-25_12h45.29.343,vts_reward_expectancy,2022.2.4,Win32,60.2300789,Chrome,1664,1110,,,,,1,780,,,,,,,,,,,,,,,,,H,174,circle,1,1,,,,,,,,,,,,,,,,repeat,letter,lettRpt,d,Lo,,,,,,0.8671,0,,,,,,,,low,20,0,20,0,1,,,,,,,,,
296659,2022-09-25_12h45.29.343,vts_reward_expectancy,2022.2.4,Win32,60.2300789,Chrome,1664,1110,,,,,0,780,,,,,,,,,,,,,,,,,Y,132,hexagon,1,0,,,,,,,,,,,,,,,,switch,number,numSwt,j,Hi,,,,,,0.9882,0,,,,,,,,low,21,0,21,0,1,,,,,,,,,
296659,2022-09-25_12h45.29.343,vts_reward_expectancy,2022.2.4,Win32,60.2300789,Chrome,1664,1110,,,,,1,781,,,,,,,,,,,,,,,,,W,160,circle,1,0,,,,,,,,,,,,,,,,repeat,number,numRpt,k,Lo,,,,,,0.9783,0,,,,,,,,low,22,0,22,0,1,,,,,,,,,
296659,2022-09-25_12h45.29.343,vts_reward_expectancy,2022.2.4,Win32,60.2300789,Chrome,1664,1110,,,,,0,781,,,,,,,,,,,,,,,,,B,167,hexagon,1,0,,,,,,,,,,,,,,,,repeat,number,numRpt,k,Hi,,,,,,1.2025,0,,,,,,,,low,23,0,23,0,1,,,,,,,,,
296659,2022-09-25_12h45.29.343,vts_reward_expectancy,2022.2.4,Win32,60.2300789,Chrome,1664,1110,,,,,0,781,,,,,,,,,,,,,,,,,W,174,circle,0,0,,,,,,,,,,,,,,,,switch,letter,NA,d,Hi,,,,,,0.9796,0,,,,,,,,low,24,0,24,0,1,,,,,,,,,
296659,2022-09-25_12h45.29.343,vts_reward_expectancy,2022.2.4,Win32,60.2300789,Chrome,1664,1110,,,,,0,781,,,,,,,,,,,,,,,,,D,139,hexagon,1,1,,,,,,,,,,,,,,,,repeat,letter,lettRpt,d,Hi,,,,,,1.1818,0,,,,,,,,low,25,0,25,0,1,,,,,,,,,
296659,2022-09-25_12h45.29.343,vts_reward_expectancy,2022.2.4,Win32,60.2300789,Chrome,1664,1110,,,,,1,782,,,,,,,,,,,,,,,,,Y,160,circle,1,0,,,,,,,,,,,,,,,,repeat,letter,lettRpt,f,Lo,,,,,,0.5012,0,,,,,,,,low,26,0,26,0,1,,,,,,,,,
296659,2022-09-25_12h45.29.343,vts_reward_expectancy,2022.2.4,Win32,60.2300789,Chrome,1664,1110,,,,,10,792,,,,,,,,,,,,,,,,,H,181,hexagon,1,0,,,,,,,,,,,,,,,,switch,number,numSwt,k,Hi,,,,,,0.5376,0,,,,,,,,low,27,0,27,0,1,,,,,,,,,
296659,2022-09-25_12h45.29.343,vts_reward_expectancy,2022.2.4,Win32,60.2300789,Chrome,1664,1110,,,,,10,802,,,,,,,,,,,,,,,,,U,125,hexagon,1,0,,,,,,,,,,,,,,,,repeat,number,numRpt,j,Hi,,,,,,0.6762,0,,,,,,,,low,28,0,28,0,1,,,,,,,,,
296659,2022-09-25_12h45.29.343,vts_reward_expectancy,2022.2.4,Win32,60.2300789,Chrome,1664,1110,,,,,1,803,,,,,,,,,,,,,,,,,B,132,circle,1,0,,,,,,,,,,,,,,,,repeat,number,numRpt,j,Lo,,,,,,0.804,0,,,,,,,,low,29,0,29,0,1,,,,,,,,,
296659,2022-09-25_12h45.29.343,vts_reward_expectancy,2022.2.4,Win32,60.2300789,Chrome,1664,1110,,,,,10,813,,,,,,,,,,,,,,,,,S,146,circle,1,0,,,,,,,,,,,,,,,,switch,letter,lettSwt,f,Lo,,,,,,0.6444,0,,,,,,,,low,30,0,30,0,1,,,,,,,,,
296659,2022-09-25_12h45.29.343,vts_reward_expectancy,2022.2.4,Win32,60.2300789,Chrome,1664,1110,,,,,10,823,,,,,,,,,,,,,,,,,F,167,hexagon,1,0,,,,,,,,,,,,,,,,repeat,letter,lettRpt,d,Hi,,,,,,0.8694,0,,,,,,,,low,31,0,31,0,1,,,,,,,,,
296659,2022-09-25_12h45.29.343,vts_reward_expectancy,2022.2.4,Win32,60.2300789,Chrome,1664,1110,,,,,0,823,,,,,,,,,,,,,,,,,H,181,star,0,0,,,,,,,,,,,,,,,,repeat,letter,NA,f,Hi,,,,,,0.7318,1,,,,,,space,3.5657,high,0,0,0,0,1,,,,,,,,,
296659,2022-09-25_12h45.29.343,vts_reward_expectancy,2022.2.4,Win32,60.2300789,Chrome,1664,1110,,,,,10,833,,,,,,,,,,,,,,,,,Y,146,triangle,1,1,,,,,,,,,,,,,,,,repeat,letter,lettRpt,f,Hi,,,,,,0.6081,1,,,,,,,,high,1,0,1,0,1,,,,,,,,,
296659,2022-09-25_12h45.29.343,vts_reward_expectancy,2022.2.4,Win32,60.2300789,Chrome,1664,1110,,,,,10,843,,,,,,,,,,,,,,,,,F,125,star,1,0,,,,,,,,,,,,,,,,switch,number,numSwt,j,Lo,,,,,,0.5817,1,,,,,,,,high,2,0,2,0,1,,,,,,,,,
296659,2022-09-25_12h45.29.343,vts_reward_expectancy,2022.2.4,Win32,60.2300789,Chrome,1664,1110,,,,,0,843,,,,,,,,,,,,,,,,,B,167,triangle,1,0,,,,,,,,,,,,,,,,switch,letter,lettSwt,d,Hi,,,,,,0.7303,1,,,,,,,,high,3,0,3,0,1,,,,,,,,,
296659,2022-09-25_12h45.29.343,vts_reward_expectancy,2022.2.4,Win32,60.2300789,Chrome,1664,1110,,,,,0,843,,,,,,,,,,,,,,,,,U,174,triangle,1,0,,,,,,,,,,,,,,,,repeat,letter,lettRpt,f,Hi,,,,,,0.8749,1,,,,,,,,high,4,0,4,0,1,,,,,,,,,
296659,2022-09-25_12h45.29.343,vts_reward_expectancy,2022.2.4,Win32,60.2300789,Chrome,1664,1110,,,,,0,843,,,,,,,,,,,,,,,,,W,139,star,0,0,,,,,,,,,,,,,,,,switch,number,NA,k,Hi,,,,,,0.6927,1,,,,,,,,high,5,0,5,0,1,,,,,,,,,
296659,2022-09-25_12h45.29.343,vts_reward_expectancy,2022.2.4,Win32,60.2300789,Chrome,1664,1110,,,,,1,844,,,,,,,,,,,,,,,,,D,160,star,1,1,,,,,,,,,,,,,,,,switch,letter,lettSwt,d,Lo,,,,,,0.6932,1,,,,,,,,high,6,0,6,0,1,,,,,,,,,
296659,2022-09-25_12h45.29.343,vts_reward_expectancy,2022.2.4,Win32,60.2300789,Chrome,1664,1110,,,,,0,844,,,,,,,,,,,,,,,,,S,132,triangle,1,0,,,,,,,,,,,,,,,,repeat,letter,lettRpt,f,Hi,,,,,,1.251,1,,,,,,,,high,7,0,7,0,1,,,,,,,,,
296659,2022-09-25_12h45.29.343,vts_reward_expectancy,2022.2.4,Win32,60.2300789,Chrome,1664,1110,,,,,1,845,,,,,,,,,,,,,,,,,H,181,triangle,1,0,,,,,,,,,,,,,,,,repeat,letter,lettRpt,d,Hi,,,,,,0.7244,1,,,,,,,,high,8,0,8,0,1,,,,,,,,,
296659,2022-09-25_12h45.29.343,vts_reward_expectancy,2022.2.4,Win32,60.2300789,Chrome,1664,1110,,,,,10,855,,,,,,,,,,,,,,,,,Y,146,star,1,0,,,,,,,,,,,,,,,,switch,number,numSwt,j,Lo,,,,,,1.0539,1,,,,,,,,high,9,0,9,0,1,,,,,,,,,
296659,2022-09-25_12h45.29.343,vts_reward_expectancy,2022.2.4,Win32,60.2300789,Chrome,1664,1110,,,,,0,855,,,,,,,,,,,,,,,,,F,125,triangle,1,0,,,,,,,,,,,,,,,,repeat,number,numRpt,j,Hi,,,,,,0.9845,1,,,,,,,,high,10,0,10,0,1,,,,,,,,,
296659,2022-09-25_12h45.29.343,vts_reward_expectancy,2022.2.4,Win32,60.2300789,Chrome,1664,1110,,,,,1,856,,,,,,,,,,,,,,,,,B,167,star,1,0,,,,,,,,,,,,,,,,switch,letter,lettSwt,d,Lo,,,,,,1.5174,1,,,,,,,,high,11,0,11,0,1,,,,,,,,,
296659,2022-09-25_12h45.29.343,vts_reward_expectancy,2022.2.4,Win32,60.2300789,Chrome,1664,1110,,,,,1,857,,,,,,,,,,,,,,,,,U,174,triangle,1,0,,,,,,,,,,,,,,,,repeat,letter,lettRpt,f,Hi,,,,,,0.6789,1,,,,,,,,high,12,0,12,0,1,,,,,,,,,
296659,2022-09-25_12h45.29.343,vts_reward_expectancy,2022.2.4,Win32,60.2300789,Chrome,1664,1110,,,,,10,867,,,,,,,,,,,,,,,,,W,139,star,1,0,,,,,,,,,,,,,,,,repeat,letter,lettRpt,f,Lo,,,,,,0.7526,1,,,,,,,,high,13,0,13,0,1,,,,,,,,,
296659,2022-09-25_12h45.29.343,vts_reward_expectancy,2022.2.4,Win32,60.2300789,Chrome,1664,1110,,,,,10,877,,,,,,,,,,,,,,,,,D,160,triangle,1,0,,,,,,,,,,,,,,,,repeat,letter,lettRpt,d,Hi,,,,,,0.6925,1,,,,,,,,high,14,0,14,0,1,,,,,,,,,
296659,2022-09-25_12h45.29.343,vts_reward_expectancy,2022.2.4,Win32,60.2300789,Chrome,1664,1110,,,,,0,877,,,,,,,,,,,,,,,,,S,132,star,0,0,,,,,,,,,,,,,,,,repeat,letter,NA,d,Hi,,,,,,0.8171,1,,,,,,,,high,15,0,15,0,1,,,,,,,,,
296659,2022-09-25_12h45.29.343,vts_reward_expectancy,2022.2.4,Win32,60.2300789,Chrome,1664,1110,,,,,10,887,,,,,,,,,,,,,,,,,H,125,triangle,1,1,,,,,,,,,,,,,,,,switch,number,numSwt,j,Hi,,,,,,0.6855,1,,,,,,,,high,16,0,16,0,1,,,,,,,,,
296659,2022-09-25_12h45.29.343,vts_reward_expectancy,2022.2.4,Win32,60.2300789,Chrome,1664,1110,,,,,1,888,,,,,,,,,,,,,,,,,Y,181,star,1,0,,,,,,,,,,,,,,,,switch,letter,lettSwt,f,Lo,,,,,,0.7549,1,,,,,,,,high,17,0,17,0,1,,,,,,,,,
296659,2022-09-25_12h45.29.343,vts_reward_expectancy,2022.2.4,Win32,60.2300789,Chrome,1664,1110,,,,,10,898,,,,,,,,,,,,,,,,,F,139,triangle,1,0,,,,,,,,,,,,,,,,switch,number,numSwt,j,Hi,,,,,,0.6686,1,,,,,,,,high,18,0,18,0,1,,,,,,,,,
296659,2022-09-25_12h45.29.343,vts_reward_expectancy,2022.2.4,Win32,60.2300789,Chrome,1664,1110,,,,,1,899,,,,,,,,,,,,,,,,,W,146,star,1,0,,,,,,,,,,,,,,,,switch,letter,lettSwt,f,Lo,,,,,,1.1022,1,,,,,,,,high,19,0,19,0,1,,,,,,,,,
296659,2022-09-25_12h45.29.343,vts_reward_expectancy,2022.2.4,Win32,60.2300789,Chrome,1664,1110,,,,,10,909,,,,,,,,,,,,,,,,,B,167,triangle,1,0,,,,,,,,,,,,,,,,repeat,letter,lettRpt,d,Hi,,,,,,0.6512,1,,,,,,,,high,20,0,20,0,1,,,,,,,,,
296659,2022-09-25_12h45.29.343,vts_reward_expectancy,2022.2.4,Win32,60.2300789,Chrome,1664,1110,,,,,0,909,,,,,,,,,,,,,,,,,D,160,star,0,0,,,,,,,,,,,,,,,,repeat,letter,NA,f,Hi,,,,,,0.8377,1,,,,,,,,high,21,0,21,0,1,,,,,,,,,
296659,2022-09-25_12h45.29.343,vts_reward_expectancy,2022.2.4,Win32,60.2300789,Chrome,1664,1110,,,,,0,909,,,,,,,,,,,,,,,,,S,132,triangle,1,1,,,,,,,,,,,,,,,,repeat,letter,lettRpt,f,Hi,,,,,,0.8166,1,,,,,,,,high,22,0,22,0,1,,,,,,,,,
296659,2022-09-25_12h45.29.343,vts_reward_expectancy,2022.2.4,Win32,60.2300789,Chrome,1664,1110,,,,,1,910,,,,,,,,,,,,,,,,,U,174,star,1,0,,,,,,,,,,,,,,,,switch,number,numSwt,k,Lo,,,,,,0.8115,1,,,,,,,,high,23,0,23,0,1,,,,,,,,,
296659,2022-09-25_12h45.29.343,vts_reward_expectancy,2022.2.4,Win32,60.2300789,Chrome,1664,1110,,,,,0,910,,,,,,,,,,,,,,,,,W,146,triangle,1,0,,,,,,,,,,,,,,,,repeat,number,numRpt,j,Hi,,,,,,0.8646,1,,,,,,,,high,24,0,24,0,1,,,,,,,,,
296659,2022-09-25_12h45.29.343,vts_reward_expectancy,2022.2.4,Win32,60.2300789,Chrome,1664,1110,,,,,10,920,,,,,,,,,,,,,,,,,H,139,star,1,0,,,,,,,,,,,,,,,,repeat,number,numRpt,j,Lo,,,,,,1.6548,1,,,,,,,,high,25,0,25,0,1,,,,,,,,,
296659,2022-09-25_12h45.29.343,vts_reward_expectancy,2022.2.4,Win32,60.2300789,Chrome,1664,1110,,,,,1,921,,,,,,,,,,,,,,,,,F,174,triangle,1,0,,,,,,,,,,,,,,,,repeat,number,numRpt,k,Hi,,,,,,0.6253,1,,,,,,,,high,26,0,26,0,1,,,,,,,,,
296659,2022-09-25_12h45.29.343,vts_reward_expectancy,2022.2.4,Win32,60.2300789,Chrome,1664,1110,,,,,1,922,,,,,,,,,,,,,,,,,U,125,star,1,0,,,,,,,,,,,,,,,,switch,letter,lettSwt,f,Lo,,,,,,0.8798,1,,,,,,,,high,27,0,27,0,1,,,,,,,,,
296659,2022-09-25_12h45.29.343,vts_reward_expectancy,2022.2.4,Win32,60.2300789,Chrome,1664,1110,,,,,10,932,,,,,,,,,,,,,,,,,Y,181,triangle,1,0,,,,,,,,,,,,,,,,repeat,letter,lettRpt,f,Hi,,,,,,0.7185,1,,,,,,,,high,28,0,28,0,1,,,,,,,,,
296659,2022-09-25_12h45.29.343,vts_reward_expectancy,2022.2.4,Win32,60.2300789,Chrome,1664,1110,,,,,10,942,,,,,,,,,,,,,,,,,S,132,star,1,0,,,,,,,,,,,,,,,,switch,number,numSwt,j,Lo,,,,,,0.6566,1,,,,,,,,high,29,0,29,0,1,,,,,,,,,
296659,2022-09-25_12h45.29.343,vts_reward_expectancy,2022.2.4,Win32,60.2300789,Chrome,1664,1110,,,,,0,942,,,,,,,,,,,,,,,,,D,160,star,0,0,,,,,,,,,,,,,,,,switch,letter,NA,f,Lo,,,,,,0.7382,1,,,,,,,,high,30,0,30,0,1,,,,,,,,,
296659,2022-09-25_12h45.29.343,vts_reward_expectancy,2022.2.4,Win32,60.2300789,Chrome,1664,1110,,,,,10,952,,,,,,,,,,,,,,,,,B,167,triangle,1,1,,,,,,,,,,,,,,,,repeat,letter,lettRpt,d,Hi,,,,,,0.5632,1,,,,,,,,high,31,0,31,0,1,,,,,,,,,
296659,2022-09-25_12h45.29.343,vts_reward_expectancy,2022.2.4,Win32,60.2300789,Chrome,1664,1110,,,,,0,952,,,,,,,,,,,,,,,,,U,174,triangle,1,0,,,,,,,,,,,,,,,,repeat,letter,lettRpt,f,Hi,,,,,,0.7614,2,,,,,,space,0.6839,high,0,0,0,0,1,,,,,,,,,
296659,2022-09-25_12h45.29.343,vts_reward_expectancy,2022.2.4,Win32,60.2300789,Chrome,1664,1110,,,,,0,952,,,,,,,,,,,,,,,,,W,146,star,0,0,,,,,,,,,,,,,,,,switch,number,NA,k,Hi,,,,,,1.0453,2,,,,,,,,high,1,0,1,0,1,,,,,,,,,
296659,2022-09-25_12h45.29.343,vts_reward_expectancy,2022.2.4,Win32,60.2300789,Chrome,1664,1110,,,,,0,952,,,,,,,,,,,,,,,,,B,160,triangle,1,1,,,,,,,,,,,,,,,,switch,letter,lettSwt,d,Hi,,,,,,1.0114,2,,,,,,,,high,2,0,2,0,1,,,,,,,,,
296659,2022-09-25_12h45.29.343,vts_reward_expectancy,2022.2.4,Win32,60.2300789,Chrome,1664,1110,,,,,1,953,,,,,,,,,,,,,,,,,F,139,star,1,0,,,,,,,,,,,,,,,,repeat,letter,lettRpt,d,Lo,,,,,,1.0008,2,,,,,,,,high,3,0,3,0,1,,,,,,,,,
296659,2022-09-25_12h45.29.343,vts_reward_expectancy,2022.2.4,Win32,60.2300789,Chrome,1664,1110,,,,,0,953,,,,,,,,,,,,,,,,,S,167,triangle,1,0,,,,,,,,,,,,,,,,switch,number,numSwt,k,Hi,,,,,,1.1302,2,,,,,,,,high,4,0,4,0,1,,,,,,,,,
296659,2022-09-25_12h45.29.343,vts_reward_expectancy,2022.2.4,Win32,60.2300789,Chrome,1664,1110,,,,,1,954,,,,,,,,,,,,,,,,,Y,125,star,1,0,,,,,,,,,,,,,,,,switch,letter,lettSwt,f,Lo,,,,,,0.893,2,,,,,,,,high,5,0,5,0,1,,,,,,,,,
296659,2022-09-25_12h45.29.343,vts_reward_expectancy,2022.2.4,Win32,60.2300789,Chrome,1664,1110,,,,,1,955,,,,,,,,,,,,,,,,,H,132,star,1,0,,,,,,,,,,,,,,,,switch,number,numSwt,j,Lo,,,,,,0.9352,2,,,,,,,,high,6,0,6,0,1,,,,,,,,,
296659,2022-09-25_12h45.29.343,vts_reward_expectancy,2022.2.4,Win32,60.2300789,Chrome,1664,1110,,,,,0,955,,,,,,,,,,,,,,,,,D,181,triangle,1,0,,,,,,,,,,,,,,,,switch,letter,lettSwt,d,Hi,,,,,,0.9906,2,,,,,,,,high,7,0,7,0,1,,,,,,,,,
296659,2022-09-25_12h45.29.343,vts_reward_expectancy,2022.2.4,Win32,60.2300789,Chrome,1664,1110,,,,,1,956,,,,,,,,,,,,,,,,,U,174,triangle,1,0,,,,,,,,,,,,,,,,repeat,letter,lettRpt,f,Hi,,,,,,0.4625,2,,,,,,,,high,8,0,8,0,1,,,,,,,,,
296659,2022-09-25_12h45.29.343,vts_reward_expectancy,2022.2.4,Win32,60.2300789,Chrome,1664,1110,,,,,1,957,,,,,,,,,,,,,,,,,W,146,star,1,0,,,,,,,,,,,,,,,,switch,number,numSwt,j,Lo,,,,,,0.9171,2,,,,,,,,high,9,0,9,0,1,,,,,,,,,
296659,2022-09-25_12h45.29.343,vts_reward_expectancy,2022.2.4,Win32,60.2300789,Chrome,1664,1110,,,,,10,967,,,,,,,,,,,,,,,,,B,160,triangle,1,0,,,,,,,,,,,,,,,,repeat,number,numRpt,k,Hi,,,,,,0.6678,2,,,,,,,,high,10,0,10,0,1,,,,,,,,,
296659,2022-09-25_12h45.29.343,vts_reward_expectancy,2022.2.4,Win32,60.2300789,Chrome,1664,1110,,,,,10,977,,,,,,,,,,,,,,,,,F,139,star,1,0,,,,,,,,,,,,,,,,switch,letter,lettSwt,d,Lo,,,,,,0.9061,2,,,,,,,,high,11,0,11,0,1,,,,,,,,,
296659,2022-09-25_12h45.29.343,vts_reward_expectancy,2022.2.4,Win32,60.2300789,Chrome,1664,1110,,,,,1,978,,,,,,,,,,,,,,,,,S,167,star,1,0,,,,,,,,,,,,,,,,switch,number,numSwt,k,Lo,,,,,,1.0362,2,,,,,,,,high,12,0,12,0,1,,,,,,,,,
296659,2022-09-25_12h45.29.343,vts_reward_expectancy,2022.2.4,Win32,60.2300789,Chrome,1664,1110,,,,,10,988,,,,,,,,,,,,,,,,,Y,125,triangle,1,0,,,,,,,,,,,,,,,,repeat,number,numRpt,j,Hi,,,,,,0.6231,2,,,,,,,,high,13,0,13,0,1,,,,,,,,,
296659,2022-09-25_12h45.29.343,vts_reward_expectancy,2022.2.4,Win32,60.2300789,Chrome,1664,1110,,,,,1,989,,,,,,,,,,,,,,,,,H,132,triangle,1,0,,,,,,,,,,,,,,,,switch,letter,lettSwt,d,Hi,,,,,,0.6191,2,,,,,,,,high,14,0,14,0,1,,,,,,,,,
296659,2022-09-25_12h45.29.343,vts_reward_expectancy,2022.2.4,Win32,60.2300789,Chrome,1664,1110,,,,,1,990,,,,,,,,,,,,,,,,,D,181,star,1,0,,,,,,,,,,,,,,,,repeat,letter,lettRpt,d,Lo,,,,,,0.6024,2,,,,,,,,high,15,0,15,0,1,,,,,,,,,
296659,2022-09-25_12h45.29.343,vts_reward_expectancy,2022.2.4,Win32,60.2300789,Chrome,1664,1110,,,,,0,990,,,,,,,,,,,,,,,,,U,174,triangle,1,0,,,,,,,,,,,,,,,,switch,number,numSwt,k,Hi,,,,,,0.9524,2,,,,,,,,high,16,0,16,0,1,,,,,,,,,
296659,2022-09-25_12h45.29.343,vts_reward_expectancy,2022.2.4,Win32,60.2300789,Chrome,1664,1110,,,,,0,990,,,,,,,,,,,,,,,,,W,167,star,0,0,,,,,,,,,,,,,,,,switch,letter,NA,d,Hi,,,,,,1.0675,2,,,,,,,,high,17,0,17,0,1,,,,,,,,,
296659,2022-09-25_12h45.29.343,vts_reward_expectancy,2022.2.4,Win32,60.2300789,Chrome,1664,1110,,,,,1,991,,,,,,,,,,,,,,,,,Y,132,star,1,1,,,,,,,,,,,,,,,,repeat,letter,lettRpt,f,Lo,,,,,,0.7144,2,,,,,,,,high,18,0,18,0,1,,,,,,,,,
296659,2022-09-25_12h45.29.343,vts_reward_expectancy,2022.2.4,Win32,60.2300789,Chrome,1664,1110,,,,,0,991,,,,,,,,,,,,,,,,,S,125,triangle,1,0,,,,,,,,,,,,,,,,switch,number,numSwt,j,Hi,,,,,,1.4133,2,,,,,,,,high,19,0,19,0,1,,,,,,,,,
296659,2022-09-25_12h45.29.343,vts_reward_expectancy,2022.2.4,Win32,60.2300789,Chrome,1664,1110,,,,,10,1001,,,,,,,,,,,,,,,,,B,139,triangle,1,0,,,,,,,,,,,,,,,,switch,letter,lettSwt,d,Hi,,,,,,0.6112,2,,,,,,,,high,20,0,20,0,1,,,,,,,,,
296659,2022-09-25_12h45.29.343,vts_reward_expectancy,2022.2.4,Win32,60.2300789,Chrome,1664,1110,,,,,1,1002,,,,,,,,,,,,,,,,,H,146,star,1,0,,,,,,,,,,,,,,,,repeat,letter,lettRpt,d,Lo,,,,,,0.7316,2,,,,,,,,high,21,0,21,0,1,,,,,,,,,
296659,2022-09-25_12h45.29.343,vts_reward_expectancy,2022.2.4,Win32,60.2300789,Chrome,1664,1110,,,,,0,1002,,,,,,,,,,,,,,,,,D,160,triangle,1,0,,,,,,,,,,,,,,,,switch,number,numSwt,k,Hi,,,,,,0.9669,2,,,,,,,,high,22,0,22,0,1,,,,,,,,,
296659,2022-09-25_12h45.29.343,vts_reward_expectancy,2022.2.4,Win32,60.2300789,Chrome,1664,1110,,,,,1,1003,,,,,,,,,,,,,,,,,F,181,star,1,0,,,,,,,,,,,,,,,,switch,letter,lettSwt,d,Lo,,,,,,0.7099,2,,,,,,,,high,23,0,23,0,1,,,,,,,,,
296659,2022-09-25_12h45.29.343,vts_reward_expectancy,2022.2.4,Win32,60.2300789,Chrome,1664,1110,,,,,10,1013,,,,,,,,,,,,,,,,,F,174,star,1,0,,,,,,,,,,,,,,,,repeat,letter,lettRpt,d,Lo,,,,,,0.7634,2,,,,,,,,high,24,0,24,0,1,,,,,,,,,
296659,2022-09-25_12h45.29.343,vts_reward_expectancy,2022.2.4,Win32,60.2300789,Chrome,1664,1110,,,,,10,1023,,,,,,,,,,,,,,,,,Y,181,triangle,1,0,,,,,,,,,,,,,,,,repeat,letter,lettRpt,f,Hi,,,,,,0.6307,2,,,,,,,,high,25,0,25,0,1,,,,,,,,,
296659,2022-09-25_12h45.29.343,vts_reward_expectancy,2022.2.4,Win32,60.2300789,Chrome,1664,1110,,,,,1,1024,,,,,,,,,,,,,,,,,D,160,triangle,1,0,,,,,,,,,,,,,,,,switch,number,numSwt,k,Hi,,,,,,0.6198,2,,,,,,,,high,26,0,26,0,1,,,,,,,,,
296659,2022-09-25_12h45.29.343,vts_reward_expectancy,2022.2.4,Win32,60.2300789,Chrome,1664,1110,,,,,1,1025,,,,,,,,,,,,,,,,,B,139,star,1,0,,,,,,,,,,,,,,,,switch,letter,lettSwt,d,Lo,,,,,,0.9533,2,,,,,,,,high,27,0,27,0,1,,,,,,,,,
296659,2022-09-25_12h45.29.343,vts_reward_expectancy,2022.2.4,Win32,60.2300789,Chrome,1664,1110,,,,,0,1025,,,,,,,,,,,,,,,,,S,146,triangle,1,0,,,,,,,,,,,,,,,,repeat,letter,lettRpt,f,Hi,,,,,,1.2394,2,,,,,,,,high,28,0,28,0,1,,,,,,,,,
296659,2022-09-25_12h45.29.343,vts_reward_expectancy,2022.2.4,Win32,60.2300789,Chrome,1664,1110,,,,,0,1025,,,,,,,,,,,,,,,,,W,167,star,0,0,,,,,,,,,,,,,,,,repeat,letter,NA,d,Hi,,,,,,1.4709,2,,,,,,,,high,29,0,29,0,1,,,,,,,,,
296659,2022-09-25_12h45.29.343,vts_reward_expectancy,2022.2.4,Win32,60.2300789,Chrome,1664,1110,,,,,10,1035,,,,,,,,,,,,,,,,,U,125,star,1,1,,,,,,,,,,,,,,,,repeat,letter,lettRpt,f,Lo,,,,,,1.3415,2,,,,,,,,high,30,0,30,0,1,,,,,,,,,
296659,2022-09-25_12h45.29.343,vts_reward_expectancy,2022.2.4,Win32,60.2300789,Chrome,1664,1110,,,,,0,1035,,,,,,,,,,,,,,,,,H,132,triangle,1,0,,,,,,,,,,,,,,,,repeat,letter,lettRpt,d,Hi,,,,,,1.2178,2,,,,,,,,high,31,0,31,0,1,,,,,,,,,
296659,2022-09-25_12h45.29.343,vts_reward_expectancy,2022.2.4,Win32,60.2300789,Chrome,1664,1110,,,,,0,1035,,,,,,,,,,,,,,,,,H,160,hexagon,1,0,,,,,,,,,,,,,,,,repeat,letter,lettRpt,d,Hi,,,,,,0.9184,3,,,,,,space,1.5964,low,0,0,0,0,1,,,,,,,,,
296659,2022-09-25_12h45.29.343,vts_reward_expectancy,2022.2.4,Win32,60.2300789,Chrome,1664,1110,,,,,1,1036,,,,,,,,,,,,,,,,,W,167,circle,1,0,,,,,,,,,,,,,,,,switch,number,numSwt,k,Lo,,,,,,0.5529,3,,,,,,,,low,1,0,1,0,1,,,,,,,,,
296659,2022-09-25_12h45.29.343,vts_reward_expectancy,2022.2.4,Win32,60.2300789,Chrome,1664,1110,,,,,0,1036,,,,,,,,,,,,,,,,,U,132,hexagon,0,0,,,,,,,,,,,,,,,,repeat,number,NA,k,Lo,,,,,,0.7191,3,,,,,,,,low,2,0,2,0,1,,,,,,,,,
296659,2022-09-25_12h45.29.343,vts_reward_expectancy,2022.2.4,Win32,60.2300789,Chrome,1664,1110,,,,,10,1046,,,,,,,,,,,,,,,,,Y,139,circle,1,1,,,,,,,,,,,,,,,,repeat,number,numRpt,j,Lo,,,,,,0.8729,3,,,,,,,,low,3,0,3,0,1,,,,,,,,,
296659,2022-09-25_12h45.29.343,vts_reward_expectancy,2022.2.4,Win32,60.2300789,Chrome,1664,1110,,,,,1,1047,,,,,,,,,,,,,,,,,D,125,circle,1,0,,,,,,,,,,,,,,,,switch,letter,lettSwt,d,Lo,,,,,,0.8176,3,,,,,,,,low,4,0,4,0,1,,,,,,,,,
296659,2022-09-25_12h45.29.343,vts_reward_expectancy,2022.2.4,Win32,60.2300789,Chrome,1664,1110,,,,,0,1047,,,,,,,,,,,,,,,,,S,146,hexagon,1,0,,,,,,,,,,,,,,,,repeat,letter,lettRpt,f,Hi,,,,,,0.8025,3,,,,,,,,low,5,0,5,0,1,,,,,,,,,
296659,2022-09-25_12h45.29.343,vts_reward_expectancy,2022.2.4,Win32,60.2300789,Chrome,1664,1110,,,,,1,1048,,,,,,,,,,,,,,,,,F,181,circle,1,0,,,,,,,,,,,,,,,,repeat,letter,lettRpt,d,Lo,,,,,,0.5349,3,,,,,,,,low,6,0,6,0,1,,,,,,,,,
296659,2022-09-25_12h45.29.343,vts_reward_expectancy,2022.2.4,Win32,60.2300789,Chrome,1664,1110,,,,,10,1058,,,,,,,,,,,,,,,,,B,174,hexagon,1,0,,,,,,,,,,,,,,,,switch,number,numSwt,k,Hi,,,,,,0.6171,3,,,,,,,,low,7,0,7,0,1,,,,,,,,,
296659,2022-09-25_12h45.29.343,vts_reward_expectancy,2022.2.4,Win32,60.2300789,Chrome,1664,1110,,,,,10,1068,,,,,,,,,,,,,,,,,H,160,circle,1,0,,,,,,,,,,,,,,,,repeat,number,numRpt,k,Lo,,,,,,0.6032,3,,,,,,,,low,8,0,8,0,1,,,,,,,,,
296659,2022-09-25_12h45.29.343,vts_reward_expectancy,2022.2.4,Win32,60.2300789,Chrome,1664,1110,,,,,0,1068,,,,,,,,,,,,,,,,,W,167,hexagon,1,0,,,,,,,,,,,,,,,,repeat,number,numRpt,k,Hi,,,,,,0.6694,3,,,,,,,,low,9,0,9,0,1,,,,,,,,,
296659,2022-09-25_12h45.29.343,vts_reward_expectancy,2022.2.4,Win32,60.2300789,Chrome,1664,1110,,,,,1,1069,,,,,,,,,,,,,,,,,U,132,circle,1,0,,,,,,,,,,,,,,,,repeat,number,numRpt,j,Lo,,,,,,0.5595,3,,,,,,,,low,10,0,10,0,1,,,,,,,,,
296659,2022-09-25_12h45.29.343,vts_reward_expectancy,2022.2.4,Win32,60.2300789,Chrome,1664,1110,,,,,0,1069,,,,,,,,,,,,,,,,,Y,139,hexagon,0,0,,,,,,,,,,,,,,,,repeat,number,NA,k,Lo,,,,,,0.7282,3,,,,,,,,low,11,0,11,0,1,,,,,,,,,
296659,2022-09-25_12h45.29.343,vts_reward_expectancy,2022.2.4,Win32,60.2300789,Chrome,1664,1110,,,,,10,1079,,,,,,,,,,,,,,,,,D,125,circle,1,1,,,,,,,,,,,,,,,,repeat,number,numRpt,j,Lo,,,,,,0.7174,3,,,,,,,,low,12,0,12,0,1,,,,,,,,,
296659,2022-09-25_12h45.29.343,vts_reward_expectancy,2022.2.4,Win32,60.2300789,Chrome,1664,1110,,,,,0,1079,,,,,,,,,,,,,,,,,S,146,hexagon,1,0,,,,,,,,,,,,,,,,switch,letter,lettSwt,f,Hi,,,,,,1.1818,3,,,,,,,,low,13,0,13,0,1,,,,,,,,,
296659,2022-09-25_12h45.29.343,vts_reward_expectancy,2022.2.4,Win32,60.2300789,Chrome,1664,1110,,,,,10,1089,,,,,,,,,,,,,,,,,F,181,circle,1,0,,,,,,,,,,,,,,,,repeat,letter,lettRpt,d,Lo,,,,,,0.8605,3,,,,,,,,low,14,0,14,0,1,,,,,,,,,
296659,2022-09-25_12h45.29.343,vts_reward_expectancy,2022.2.4,Win32,60.2300789,Chrome,1664,1110,,,,,10,1099,,,,,,,,,,,,,,,,,B,174,hexagon,1,0,,,,,,,,,,,,,,,,switch,number,numSwt,k,Hi,,,,,,0.7101,3,,,,,,,,low,15,0,15,0,1,,,,,,,,,
296659,2022-09-25_12h45.29.343,vts_reward_expectancy,2022.2.4,Win32,60.2300789,Chrome,1664,1110,,,,,10,1109,,,,,,,,,,,,,,,,,F,174,circle,1,0,,,,,,,,,,,,,,,,repeat,number,numRpt,k,Lo,,,,,,0.7357,3,,,,,,,,low,16,0,16,0,1,,,,,,,,,
296659,2022-09-25_12h45.29.343,vts_reward_expectancy,2022.2.4,Win32,60.2300789,Chrome,1664,1110,,,,,1,1110,,,,,,,,,,,,,,,,,W,167,hexagon,1,0,,,,,,,,,,,,,,,,repeat,number,numRpt,k,Hi,,,,,,0.5742,3,,,,,,,,low,17,0,17,0,1,,,,,,,,,
296659,2022-09-25_12h45.29.343,vts_reward_expectancy,2022.2.4,Win32,60.2300789,Chrome,1664,1110,,,,,10,1120,,,,,,,,,,,,,,,,,B,160,circle,1,0,,,,,,,,,,,,,,,,switch,letter,lettSwt,d,Lo,,,,,,1.018,3,,,,,,,,low,18,0,18,0,1,,,,,,,,,
296659,2022-09-25_12h45.29.343,vts_reward_expectancy,2022.2.4,Win32,60.2300789,Chrome,1664,1110,,,,,1,1121,,,,,,,,,,,,,,,,,U,146,hexagon,1,0,,,,,,,,,,,,,,,,repeat,letter,lettRpt,f,Hi,,,,,,0.6188,3,,,,,,,,low,19,0,19,0,1,,,,,,,,,
296659,2022-09-25_12h45.29.343,vts_reward_expectancy,2022.2.4,Win32,60.2300789,Chrome,1664,1110,,,,,10,1131,,,,,,,,,,,,,,,,,Y,181,circle,1,0,,,,,,,,,,,,,,,,repeat,letter,lettRpt,f,Lo,,,,,,0.6648,3,,,,,,,,low,20,0,20,0,1,,,,,,,,,
296659,2022-09-25_12h45.29.343,vts_reward_expectancy,2022.2.4,Win32,60.2300789,Chrome,1664,1110,,,,,0,1131,,,,,,,,,,,,,,,,,S,132,hexagon,1,0,,,,,,,,,,,,,,,,switch,number,numSwt,j,Hi,,,,,,1.262,3,,,,,,,,low,21,0,21,0,1,,,,,,,,,
296659,2022-09-25_12h45.29.343,vts_reward_expectancy,2022.2.4,Win32,60.2300789,Chrome,1664,1110,,,,,0,1131,,,,,,,,,,,,,,,,,H,125,hexagon,1,0,,,,,,,,,,,,,,,,switch,letter,lettSwt,d,Hi,,,,,,1.1137,3,,,,,,,,low,22,0,22,0,1,,,,,,,,,
296659,2022-09-25_12h45.29.343,vts_reward_expectancy,2022.2.4,Win32,60.2300789,Chrome,1664,1110,,,,,10,1141,,,,,,,,,,,,,,,,,D,139,circle,1,0,,,,,,,,,,,,,,,,repeat,letter,lettRpt,d,Lo,,,,,,0.7516,3,,,,,,,,low,23,0,23,0,1,,,,,,,,,
296659,2022-09-25_12h45.29.343,vts_reward_expectancy,2022.2.4,Win32,60.2300789,Chrome,1664,1110,,,,,10,1151,,,,,,,,,,,,,,,,,U,139,hexagon,1,0,,,,,,,,,,,,,,,,switch,number,numSwt,j,Hi,,,,,,0.7859,3,,,,,,,,low,24,0,24,0,1,,,,,,,,,
296659,2022-09-25_12h45.29.343,vts_reward_expectancy,2022.2.4,Win32,60.2300789,Chrome,1664,1110,,,,,1,1152,,,,,,,,,,,,,,,,,F,146,circle,1,0,,,,,,,,,,,,,,,,switch,letter,lettSwt,d,Lo,,,,,,0.569,3,,,,,,,,low,25,0,25,0,1,,,,,,,,,
296659,2022-09-25_12h45.29.343,vts_reward_expectancy,2022.2.4,Win32,60.2300789,Chrome,1664,1110,,,,,10,1162,,,,,,,,,,,,,,,,,W,160,circle,1,0,,,,,,,,,,,,,,,,repeat,letter,lettRpt,f,Lo,,,,,,0.5437,3,,,,,,,,low,26,0,26,0,1,,,,,,,,,
296659,2022-09-25_12h45.29.343,vts_reward_expectancy,2022.2.4,Win32,60.2300789,Chrome,1664,1110,,,,,0,1162,,,,,,,,,,,,,,,,,S,167,hexagon,1,0,,,,,,,,,,,,,,,,repeat,letter,lettRpt,f,Hi,,,,,,1.0732,3,,,,,,,,low,27,0,27,0,1,,,,,,,,,
296659,2022-09-25_12h45.29.343,vts_reward_expectancy,2022.2.4,Win32,60.2300789,Chrome,1664,1110,,,,,0,1162,,,,,,,,,,,,,,,,,H,181,hexagon,1,0,,,,,,,,,,,,,,,,repeat,letter,lettRpt,d,Hi,,,,,,0.7639,3,,,,,,,,low,28,0,28,0,1,,,,,,,,,
296659,2022-09-25_12h45.29.343,vts_reward_expectancy,2022.2.4,Win32,60.2300789,Chrome,1664,1110,,,,,0,1162,,,,,,,,,,,,,,,,,B,174,circle,0,0,,,,,,,,,,,,,,,,repeat,letter,NA,f,Hi,,,,,,0.7758,3,,,,,,,,low,29,0,29,0,1,,,,,,,,,
296659,2022-09-25_12h45.29.343,vts_reward_expectancy,2022.2.4,Win32,60.2300789,Chrome,1664,1110,,,,,1,1163,,,,,,,,,,,,,,,,,Y,132,circle,1,1,,,,,,,,,,,,,,,,repeat,letter,lettRpt,f,Lo,,,,,,0.7233,3,,,,,,,,low,30,0,30,0,1,,,,,,,,,
296659,2022-09-25_12h45.29.343,vts_reward_expectancy,2022.2.4,Win32,60.2300789,Chrome,1664,1110,,,,,10,1173,,,,,,,,,,,,,,,,,D,125,hexagon,1,0,,,,,,,,,,,,,,,,switch,number,numSwt,j,Hi,,,,,,0.657,3,,,,,,,,low,31,0,31,0,1,,,,,,,,,
296659,2022-09-25_12h45.29.343,vts_reward_expectancy,2022.2.4,Win32,60.2300789,Chrome,1664,1110,,,,,0,1173,,,,,,,,,,,,,,,,,D,160,triangle,1,0,,,,,,,,,,,,,,,,switch,letter,lettSwt,d,Hi,,,,,,1.0472,4,,,,,,space,1.9473,high,0,0,0,0,1,,,,,,,,,
296659,2022-09-25_12h45.29.343,vts_reward_expectancy,2022.2.4,Win32,60.2300789,Chrome,1664,1110,,,,,1,1174,,,,,,,,,,,,,,,,,F,181,star,1,0,,,,,,,,,,,,,,,,repeat,letter,lettRpt,d,Lo,,,,,,0.6797,4,,,,,,,,high,1,0,1,0,1,,,,,,,,,
296659,2022-09-25_12h45.29.343,vts_reward_expectancy,2022.2.4,Win32,60.2300789,Chrome,1664,1110,,,,,0,1174,,,,,,,,,,,,,,,,,S,174,triangle,1,0,,,,,,,,,,,,,,,,switch,number,numSwt,k,Hi,,,,,,0.9409,4,,,,,,,,high,2,0,2,0,1,,,,,,,,,
296659,2022-09-25_12h45.29.343,vts_reward_expectancy,2022.2.4,Win32,60.2300789,Chrome,1664,1110,,,,,10,1184,,,,,,,,,,,,,,,,,U,125,star,1,0,,,,,,,,,,,,,,,,repeat,number,numRpt,j,Lo,,,,,,0.6752,4,,,,,,,,high,3,0,3,0,1,,,,,,,,,
296659,2022-09-25_12h45.29.343,vts_reward_expectancy,2022.2.4,Win32,60.2300789,Chrome,1664,1110,,,,,0,1184,,,,,,,,,,,,,,,,,B,167,triangle,1,0,,,,,,,,,,,,,,,,repeat,number,numRpt,k,Hi,,,,,,1.1797,4,,,,,,,,high,4,0,4,0,1,,,,,,,,,
296659,2022-09-25_12h45.29.343,vts_reward_expectancy,2022.2.4,Win32,60.2300789,Chrome,1664,1110,,,,,1,1185,,,,,,,,,,,,,,,,,H,146,star,1,0,,,,,,,,,,,,,,,,switch,letter,lettSwt,d,Lo,,,,,,0.693,4,,,,,,,,high,5,0,5,0,1,,,,,,,,,
296659,2022-09-25_12h45.29.343,vts_reward_expectancy,2022.2.4,Win32,60.2300789,Chrome,1664,1110,,,,,10,1195,,,,,,,,,,,,,,,,,Y,132,triangle,1,0,,,,,,,,,,,,,,,,switch,number,numSwt,j,Hi,,,,,,0.5495,4,,,,,,,,high,6,0,6,0,1,,,,,,,,,
296659,2022-09-25_12h45.29.343,vts_reward_expectancy,2022.2.4,Win32,60.2300789,Chrome,1664,1110,,,,,1,1196,,,,,,,,,,,,,,,,,W,139,star,1,0,,,,,,,,,,,,,,,,repeat,number,numRpt,j,Lo,,,,,,0.6583,4,,,,,,,,high,7,0,7,0,1,,,,,,,,,
296659,2022-09-25_12h45.29.343,vts_reward_expectancy,2022.2.4,Win32,60.2300789,Chrome,1664,1110,,,,,10,1206,,,,,,,,,,,,,,,,,D,160,triangle,1,0,,,,,,,,,,,,,,,,switch,letter,lettSwt,d,Hi,,,,,,0.6298,4,,,,,,,,high,8,0,8,0,1,,,,,,,,,
296659,2022-09-25_12h45.29.343,vts_reward_expectancy,2022.2.4,Win32,60.2300789,Chrome,1664,1110,,,,,10,1216,,,,,,,,,,,,,,,,,F,181,star,1,0,,,,,,,,,,,,,,,,switch,number,numSwt,k,Lo,,,,,,0.5755,4,,,,,,,,high,9,0,9,0,1,,,,,,,,,
296659,2022-09-25_12h45.29.343,vts_reward_expectancy,2022.2.4,Win32,60.2300789,Chrome,1664,1110,,,,,10,1226,,,,,,,,,,,,,,,,,S,174,triangle,1,0,,,,,,,,,,,,,,,,switch,letter,lettSwt,f,Hi,,,,,,0.6193,4,,,,,,,,high,10,0,10,0,1,,,,,,,,,
296659,2022-09-25_12h45.29.343,vts_reward_expectancy,2022.2.4,Win32,60.2300789,Chrome,1664,1110,,,,,1,1227,,,,,,,,,,,,,,,,,U,125,star,1,0,,,,,,,,,,,,,,,,repeat,letter,lettRpt,f,Lo,,,,,,0.5387,4,,,,,,,,high,11,0,11,0,1,,,,,,,,,
296659,2022-09-25_12h45.29.343,vts_reward_expectancy,2022.2.4,Win32,60.2300789,Chrome,1664,1110,,,,,1,1228,,,,,,,,,,,,,,,,,B,167,star,1,0,,,,,,,,,,,,,,,,repeat,letter,lettRpt,d,Lo,,,,,,0.5816,4,,,,,,,,high,12,0,12,0,1,,,,,,,,,
296659,2022-09-25_12h45.29.343,vts_reward_expectancy,2022.2.4,Win32,60.2300789,Chrome,1664,1110,,,,,0,1228,,,,,,,,,,,,,,,,,H,146,triangle,1,0,,,,,,,,,,,,,,,,repeat,letter,lettRpt,d,Hi,,,,,,0.8901,4,,,,,,,,high,13,0,13,0,1,,,,,,,,,
296659,2022-09-25_12h45.29.343,vts_reward_expectancy,2022.2.4,Win32,60.2300789,Chrome,1664,1110,,,,,0,1228,,,,,,,,,,,,,,,,,Y,132,star,0,0,,,,,,,,,,,,,,,,switch,number,NA,k,Hi,,,,,,0.7111,4,,,,,,,,high,14,0,14,0,1,,,,,,,,,
296659,2022-09-25_12h45.29.343,vts_reward_expectancy,2022.2.4,Win32,60.2300789,Chrome,1664,1110,,,,,10,1238,,,,,,,,,,,,,,,,,W,139,triangle,1,1,,,,,,,,,,,,,,,,repeat,number,numRpt,j,Hi,,,,,,0.5933,4,,,,,,,,high,15,0,15,0,1,,,,,,,,,
296659,2022-09-25_12h45.29.343,vts_reward_expectancy,2022.2.4,Win32,60.2300789,Chrome,1664,1110,,,,,10,1248,,,,,,,,,,,,,,,,,W,125,star,1,0,,,,,,,,,,,,,,,,repeat,number,numRpt,j,Lo,,,,,,0.5648,4,,,,,,,,high,16,0,16,0,1,,,,,,,,,
296659,2022-09-25_12h45.29.343,vts_reward_expectancy,2022.2.4,Win32,60.2300789,Chrome,1664,1110,,,,,0,1248,,,,,,,,,,,,,,,,,U,167,triangle,0,0,,,,,,,,,,,,,,,,repeat,number,NA,j,Lo,,,,,,0.6539,4,,,,,,,,high,17,0,17,0,1,,,,,,,,,
296659,2022-09-25_12h45.29.343,vts_reward_expectancy,2022.2.4,Win32,60.2300789,Chrome,1664,1110,,,,,1,1249,,,,,,,,,,,,,,,,,D,146,star,1,1,,,,,,,,,,,,,,,,repeat,number,numRpt,j,Lo,,,,,,0.7698,4,,,,,,,,high,18,0,18,0,1,,,,,,,,,
296659,2022-09-25_12h45.29.343,vts_reward_expectancy,2022.2.4,Win32,60.2300789,Chrome,1664,1110,,,,,0,1249,,,,,,,,,,,,,,,,,H,160,triangle,0,0,,,,,,,,,,,,,,,,switch,letter,NA,f,Lo,,,,,,0.6868,4,,,,,,,,high,19,0,19,0,1,,,,,,,,,
296659,2022-09-25_12h45.29.343,vts_reward_expectancy,2022.2.4,Win32,60.2300789,Chrome,1664,1110,,,,,0,1249,,,,,,,,,,,,,,,,,S,132,triangle,1,1,,,,,,,,,,,,,,,,repeat,letter,lettRpt,f,Hi,,,,,,0.6892,4,,,,,,,,high,20,0,20,0,1,,,,,,,,,
296659,2022-09-25_12h45.29.343,vts_reward_expectancy,2022.2.4,Win32,60.2300789,Chrome,1664,1110,,,,,1,1250,,,,,,,,,,,,,,,,,B,181,star,1,0,,,,,,,,,,,,,,,,repeat,letter,lettRpt,d,Lo,,,,,,0.6196,4,,,,,,,,high,21,0,21,0,1,,,,,,,,,
296659,2022-09-25_12h45.29.343,vts_reward_expectancy,2022.2.4,Win32,60.2300789,Chrome,1664,1110,,,,,1,1251,,,,,,,,,,,,,,,,,Y,174,star,1,0,,,,,,,,,,,,,,,,switch,number,numSwt,k,Lo,,,,,,0.731,4,,,,,,,,high,22,0,22,0,1,,,,,,,,,
296659,2022-09-25_12h45.29.343,vts_reward_expectancy,2022.2.4,Win32,60.2300789,Chrome,1664,1110,,,,,0,1251,,,,,,,,,,,,,,,,,F,139,triangle,1,0,,,,,,,,,,,,,,,,switch,letter,lettSwt,d,Hi,,,,,,0.8958,4,,,,,,,,high,23,0,23,0,1,,,,,,,,,
296659,2022-09-25_12h45.29.343,vts_reward_expectancy,2022.2.4,Win32,60.2300789,Chrome,1664,1110,,,,,1,1252,,,,,,,,,,,,,,,,,H,160,star,1,0,,,,,,,,,,,,,,,,switch,number,numSwt,k,Lo,,,,,,0.7492,4,,,,,,,,high,24,0,24,0,1,,,,,,,,,
296659,2022-09-25_12h45.29.343,vts_reward_expectancy,2022.2.4,Win32,60.2300789,Chrome,1664,1110,,,,,10,1262,,,,,,,,,,,,,,,,,Y,132,triangle,1,0,,,,,,,,,,,,,,,,repeat,number,numRpt,j,Hi,,,,,,0.4998,4,,,,,,,,high,25,0,25,0,1,,,,,,,,,
296659,2022-09-25_12h45.29.343,vts_reward_expectancy,2022.2.4,Win32,60.2300789,Chrome,1664,1110,,,,,1,1263,,,,,,,,,,,,,,,,,W,181,star,1,0,,,,,,,,,,,,,,,,repeat,number,numRpt,k,Lo,,,,,,0.4628,4,,,,,,,,high,26,0,26,0,1,,,,,,,,,
296659,2022-09-25_12h45.29.343,vts_reward_expectancy,2022.2.4,Win32,60.2300789,Chrome,1664,1110,,,,,1,1264,,,,,,,,,,,,,,,,,D,139,triangle,1,0,,,,,,,,,,,,,,,,switch,letter,lettSwt,d,Hi,,,,,,0.6278,4,,,,,,,,high,27,0,27,0,1,,,,,,,,,
296659,2022-09-25_12h45.29.343,vts_reward_expectancy,2022.2.4,Win32,60.2300789,Chrome,1664,1110,,,,,1,1265,,,,,,,,,,,,,,,,,U,125,star,1,0,,,,,,,,,,,,,,,,repeat,letter,lettRpt,f,Lo,,,,,,0.5364,4,,,,,,,,high,28,0,28,0,1,,,,,,,,,
296659,2022-09-25_12h45.29.343,vts_reward_expectancy,2022.2.4,Win32,60.2300789,Chrome,1664,1110,,,,,1,1266,,,,,,,,,,,,,,,,,F,174,triangle,1,0,,,,,,,,,,,,,,,,switch,number,numSwt,k,Hi,,,,,,0.5582,4,,,,,,,,high,29,0,29,0,1,,,,,,,,,
296659,2022-09-25_12h45.29.343,vts_reward_expectancy,2022.2.4,Win32,60.2300789,Chrome,1664,1110,,,,,0,1266,,,,,,,,,,,,,,,,,S,167,triangle,1,0,,,,,,,,,,,,,,,,repeat,number,numRpt,k,Hi,,,,,,0.6801,4,,,,,,,,high,30,0,30,0,1,,,,,,,,,
296659,2022-09-25_12h45.29.343,vts_reward_expectancy,2022.2.4,Win32,60.2300789,Chrome,1664,1110,,,,,10,1276,,,,,,,,,,,,,,,,,B,146,star,1,0,,,,,,,,,,,,,,,,repeat,number,numRpt,j,Lo,,,,,,0.592,4,,,,,,,,high,31,0,31,0,1,,,,,,,,,
296659,2022-09-25_12h45.29.343,vts_reward_expectancy,2022.2.4,Win32,60.2300789,Chrome,1664,1110,,,,,10,1286,,,,,,,,,,,,,,,,,F,139,hexagon,1,0,,,,,,,,,,,,,,,,switch,letter,lettSwt,d,Hi,,,,,,0.488,5,,,,,,space,0.7646,low,0,0,0,0,1,,,,,,,,,
296659,2022-09-25_12h45.29.343,vts_reward_expectancy,2022.2.4,Win32,60.2300789,Chrome,1664,1110,,,,,1,1287,,,,,,,,,,,,,,,,,W,160,circle,1,0,,,,,,,,,,,,,,,,repeat,letter,lettRpt,f,Lo,,,,,,0.5337,5,,,,,,,,low,1,0,1,0,1,,,,,,,,,
296659,2022-09-25_12h45.29.343,vts_reward_expectancy,2022.2.4,Win32,60.2300789,Chrome,1664,1110,,,,,0,1287,,,,,,,,,,,,,,,,,D,181,hexagon,1,0,,,,,,,,,,,,,,,,switch,number,numSwt,k,Hi,,,,,,0.5935,5,,,,,,,,low,2,0,2,0,1,,,,,,,,,
296659,2022-09-25_12h45.29.343,vts_reward_expectancy,2022.2.4,Win32,60.2300789,Chrome,1664,1110,,,,,1,1288,,,,,,,,,,,,,,,,,Y,167,circle,1,0,,,,,,,,,,,,,,,,repeat,number,numRpt,k,Lo,,,,,,0.489,5,,,,,,,,low,3,0,3,0,1,,,,,,,,,
296659,2022-09-25_12h45.29.343,vts_reward_expectancy,2022.2.4,Win32,60.2300789,Chrome,1664,1110,,,,,0,1288,,,,,,,,,,,,,,,,,H,125,hexagon,1,0,,,,,,,,,,,,,,,,repeat,number,numRpt,j,Hi,,,,,,0.6097,5,,,,,,,,low,4,0,4,0,1,,,,,,,,,
296659,2022-09-25_12h45.29.343,vts_reward_expectancy,2022.2.4,Win32,60.2300789,Chrome,1664,1110,,,,,10,1298,,,,,,,,,,,,,,,,,U,132,circle,1,0,,,,,,,,,,,,,,,,switch,letter,lettSwt,f,Lo,,,,,,0.4839,5,,,,,,,,low,5,0,5,0,1,,,,,,,,,
296659,2022-09-25_12h45.29.343,vts_reward_expectancy,2022.2.4,Win32,60.2300789,Chrome,1664,1110,,,,,1,1299,,,,,,,,,,,,,,,,,B,174,circle,1,0,,,,,,,,,,,,,,,,switch,number,numSwt,k,Lo,,,,,,0.5858,5,,,,,,,,low,6,0,6,0,1,,,,,,,,,
296659,2022-09-25_12h45.29.343,vts_reward_expectancy,2022.2.4,Win32,60.2300789,Chrome,1664,1110,,,,,0,1299,,,,,,,,,,,,,,,,,S,146,hexagon,0,0,,,,,,,,,,,,,,,,switch,letter,NA,d,Lo,,,,,,0.5014,5,,,,,,,,low,7,0,7,0,1,,,,,,,,,
296659,2022-09-25_12h45.29.343,vts_reward_expectancy,2022.2.4,Win32,60.2300789,Chrome,1664,1110,,,,,0,1299,,,,,,,,,,,,,,,,,F,139,hexagon,0,1,,,,,,,,,,,,,,,,repeat,letter,NA,f,Lo,,,,,,0.619,5,,,,,,,,low,8,0,8,0,1,,,,,,,,,
296659,2022-09-25_12h45.29.343,vts_reward_expectancy,2022.2.4,Win32,60.2300789,Chrome,1664,1110,,,,,1,1300,,,,,,,,,,,,,,,,,W,160,circle,1,1,,,,,,,,,,,,,,,,repeat,letter,lettRpt,f,Lo,,,,,,0.4858,5,,,,,,,,low,9,0,9,0,1,,,,,,,,,
296659,2022-09-25_12h45.29.343,vts_reward_expectancy,2022.2.4,Win32,60.2300789,Chrome,1664,1110,,,,,1,1301,,,,,,,,,,,,,,,,,D,181,circle,1,0,,,,,,,,,,,,,,,,switch,number,numSwt,k,Lo,,,,,,0.6108,5,,,,,,,,low,10,0,10,0,1,,,,,,,,,
296659,2022-09-25_12h45.29.343,vts_reward_expectancy,2022.2.4,Win32,60.2300789,Chrome,1664,1110,,,,,10,1311,,,,,,,,,,,,,,,,,Y,167,hexagon,1,0,,,,,,,,,,,,,,,,switch,letter,lettSwt,f,Hi,,,,,,0.6074,5,,,,,,,,low,11,0,11,0,1,,,,,,,,,
296659,2022-09-25_12h45.29.343,vts_reward_expectancy,2022.2.4,Win32,60.2300789,Chrome,1664,1110,,,,,0,1311,,,,,,,,,,,,,,,,,H,125,hexagon,1,0,,,,,,,,,,,,,,,,switch,number,numSwt,j,Hi,,,,,,0.9062,5,,,,,,,,low,12,0,12,0,1,,,,,,,,,
296659,2022-09-25_12h45.29.343,vts_reward_expectancy,2022.2.4,Win32,60.2300789,Chrome,1664,1110,,,,,10,1321,,,,,,,,,,,,,,,,,U,132,circle,1,0,,,,,,,,,,,,,,,,repeat,number,numRpt,j,Lo,,,,,,0.8318,5,,,,,,,,low,13,0,13,0,1,,,,,,,,,
296659,2022-09-25_12h45.29.343,vts_reward_expectancy,2022.2.4,Win32,60.2300789,Chrome,1664,1110,,,,,1,1322,,,,,,,,,,,,,,,,,B,174,circle,1,0,,,,,,,,,,,,,,,,repeat,number,numRpt,k,Lo,,,,,,0.8102,5,,,,,,,,low,14,0,14,0,1,,,,,,,,,
296659,2022-09-25_12h45.29.343,vts_reward_expectancy,2022.2.4,Win32,60.2300789,Chrome,1664,1110,,,,,0,1322,,,,,,,,,,,,,,,,,S,146,hexagon,1,0,,,,,,,,,,,,,,,,repeat,number,numRpt,j,Hi,,,,,,2.0273,5,,,,,,,,low,15,0,15,0,1,,,,,,,,,
296659,2022-09-25_12h45.29.343,vts_reward_expectancy,2022.2.4,Win32,60.2300789,Chrome,1664,1110,,,,,10,1332,,,,,,,,,,,,,,,,,D,139,circle,1,0,,,,,,,,,,,,,,,,switch,letter,lettSwt,d,Lo,,,,,,0.7931,5,,,,,,,,low,16,0,16,0,1,,,,,,,,,
296659,2022-09-25_12h45.29.343,vts_reward_expectancy,2022.2.4,Win32,60.2300789,Chrome,1664,1110,,,,,0,1332,,,,,,,,,,,,,,,,,B,132,hexagon,1,0,,,,,,,,,,,,,,,,repeat,letter,lettRpt,d,Hi,,,,,,0.6212,5,,,,,,,,low,17,0,17,0,1,,,,,,,,,
296659,2022-09-25_12h45.29.343,vts_reward_expectancy,2022.2.4,Win32,60.2300789,Chrome,1664,1110,,,,,1,1333,,,,,,,,,,,,,,,,,Y,181,circle,1,0,,,,,,,,,,,,,,,,repeat,letter,lettRpt,f,Lo,,,,,,0.5604,5,,,,,,,,low,18,0,18,0,1,,,,,,,,,
296659,2022-09-25_12h45.29.343,vts_reward_expectancy,2022.2.4,Win32,60.2300789,Chrome,1664,1110,,,,,0,1333,,,,,,,,,,,,,,,,,S,167,hexagon,0,0,,,,,,,,,,,,,,,,switch,number,NA,j,Lo,,,,,,0.7139,5,,,,,,,,low,19,0,19,0,1,,,,,,,,,
296659,2022-09-25_12h45.29.343,vts_reward_expectancy,2022.2.4,Win32,60.2300789,Chrome,1664,1110,,,,,1,1334,,,,,,,,,,,,,,,,,W,146,circle,1,1,,,,,,,,,,,,,,,,repeat,number,numRpt,j,Lo,,,,,,0.7464,5,,,,,,,,low,20,0,20,0,1,,,,,,,,,
296659,2022-09-25_12h45.29.343,vts_reward_expectancy,2022.2.4,Win32,60.2300789,Chrome,1664,1110,,,,,0,1334,,,,,,,,,,,,,,,,,F,174,hexagon,1,0,,,,,,,,,,,,,,,,switch,letter,lettSwt,d,Hi,,,,,,0.6479,5,,,,,,,,low,21,0,21,0,1,,,,,,,,,
296659,2022-09-25_12h45.29.343,vts_reward_expectancy,2022.2.4,Win32,60.2300789,Chrome,1664,1110,,,,,1,1335,,,,,,,,,,,,,,,,,U,125,circle,1,0,,,,,,,,,,,,,,,,repeat,letter,lettRpt,f,Lo,,,,,,0.6495,5,,,,,,,,low,22,0,22,0,1,,,,,,,,,
296659,2022-09-25_12h45.29.343,vts_reward_expectancy,2022.2.4,Win32,60.2300789,Chrome,1664,1110,,,,,0,1335,,,,,,,,,,,,,,,,,H,160,hexagon,0,0,,,,,,,,,,,,,,,,repeat,letter,NA,f,Lo,,,,,,0.6617,5,,,,,,,,low,23,0,23,0,1,,,,,,,,,
296659,2022-09-25_12h45.29.343,vts_reward_expectancy,2022.2.4,Win32,60.2300789,Chrome,1664,1110,,,,,0,1335,,,,,,,,,,,,,,,,,D,160,hexagon,1,1,,,,,,,,,,,,,,,,repeat,letter,lettRpt,d,Hi,,,,,,0.5974,5,,,,,,,,low,24,0,24,0,1,,,,,,,,,
296659,2022-09-25_12h45.29.343,vts_reward_expectancy,2022.2.4,Win32,60.2300789,Chrome,1664,1110,,,,,0,1335,,,,,,,,,,,,,,,,,S,174,circle,0,0,,,,,,,,,,,,,,,,repeat,letter,NA,d,Hi,,,,,,1.2516,5,,,,,,,,low,25,0,25,0,1,,,,,,,,,
296659,2022-09-25_12h45.29.343,vts_reward_expectancy,2022.2.4,Win32,60.2300789,Chrome,1664,1110,,,,,0,1335,,,,,,,,,,,,,,,,,B,167,hexagon,1,1,,,,,,,,,,,,,,,,switch,number,numSwt,k,Hi,,,,,,0.8661,5,,,,,,,,low,26,0,26,0,1,,,,,,,,,
296659,2022-09-25_12h45.29.343,vts_reward_expectancy,2022.2.4,Win32,60.2300789,Chrome,1664,1110,,,,,10,1345,,,,,,,,,,,,,,,,,H,146,circle,1,0,,,,,,,,,,,,,,,,repeat,number,numRpt,j,Lo,,,,,,1.6617,5,,,,,,,,low,27,0,27,0,1,,,,,,,,,
296659,2022-09-25_12h45.29.343,vts_reward_expectancy,2022.2.4,Win32,60.2300789,Chrome,1664,1110,,,,,10,1355,,,,,,,,,,,,,,,,,F,132,circle,1,0,,,,,,,,,,,,,,,,repeat,number,numRpt,j,Lo,,,,,,0.6732,5,,,,,,,,low,28,0,28,0,1,,,,,,,,,
296659,2022-09-25_12h45.29.343,vts_reward_expectancy,2022.2.4,Win32,60.2300789,Chrome,1664,1110,,,,,0,1355,,,,,,,,,,,,,,,,,Y,181,hexagon,1,0,,,,,,,,,,,,,,,,repeat,number,numRpt,k,Hi,,,,,,0.6345,5,,,,,,,,low,29,0,29,0,1,,,,,,,,,
296659,2022-09-25_12h45.29.343,vts_reward_expectancy,2022.2.4,Win32,60.2300789,Chrome,1664,1110,,,,,10,1365,,,,,,,,,,,,,,,,,W,125,hexagon,1,0,,,,,,,,,,,,,,,,switch,letter,lettSwt,f,Hi,,,,,,0.5857,5,,,,,,,,low,30,0,30,0,1,,,,,,,,,
296659,2022-09-25_12h45.29.343,vts_reward_expectancy,2022.2.4,Win32,60.2300789,Chrome,1664,1110,,,,,10,1375,,,,,,,,,,,,,,,,,U,139,circle,1,0,,,,,,,,,,,,,,,,repeat,letter,lettRpt,f,Lo,,,,,,0.5859,5,,,,,,,,low,31,0,31,0,1,,,,,,,,,
296659,2022-09-25_12h45.29.343,vts_reward_expectancy,2022.2.4,Win32,60.2300789,Chrome,1664,1110,,,,,,,,,,,,,,,,,,,,,,,,,,,,,,,,,,,,,,,,,,,,,,,,,,,,,,6,,,,,,,,,,,,,,Pick between the correct numbers and letters,1,,3,1,,2,1664,1110
