participant,date,expName,psychopyVersion,OS,frameRate,browser,xResolution,yResolution,key_resp.keys,key_resp.rt,training_resp.keys,training_resp.rt,points_trial,points_cumul,trainBlock,training.thisRepN,training.thisTrialN,training.thisN,training.thisIndex,training.ran,LTriangleOpac,LCircleOpac,LHexagonOpac,LStarOpac,RTriangleOpac,RCircleOpac,RHexagonOpac,RStarOpac,LShape_ID,RShape_ID,curr_topStim,curr_bottStim,curr_shape,acc,E1,target_resp_prac1.keys,pracBlock,task1_prac_trials.thisRepN,task1_prac_trials.thisTrialN,task1_prac_trials.thisN,task1_prac_trials.thisIndex,task1_prac_trials.ran,target_resp_prac1.rt,target_resp_prac2.keys,target_resp_prac2.rt,task2_praac_trials.thisRepN,task2_praac_trials.thisTrialN,task2_praac_trials.thisN,task2_praac_trials.thisIndex,task2_praac_trials.ran,alt,task,condition,target_resp.keys,rewCond,vts_practice_trials.thisRepN,vts_practice_trials.thisTrialN,vts_practice_trials.thisN,vts_practice_trials.thisIndex,vts_practice_trials.ran,target_resp.rt,blockNum,trials_norew.thisRepN,trials_norew.thisTrialN,trials_norew.thisN,trials_norew.thisIndex,trials_norew.ran,key_resp_2.keys,key_resp_2.rt,rewExpect,trials_rew.thisRepN,trials_rew.thisTrialN,trials_rew.thisN,trials_rew.thisIndex,trials_rew.ran,Q1,Q2,Q2_text,Q3,Q4,Q5_text,Q5,xRes,yRes
296041,2022-09-23_11h52.57.982,vts_reward_expectancy,2022.2.4,Win32,60.86797736,Chrome,1664,1110,,,,,,,,,,,,,,,,,,,,,,,,,,,,,,,,,,,,,,,,,,,,,,,,,,,,,,,,,,,,,,,,,,,,,,,,,,,,
296041,2022-09-23_11h52.57.982,vts_reward_expectancy,2022.2.4,Win32,60.86797736,Chrome,1664,1110,space,11.8378,,,,,,,,,,,,,,,,,,,,,,,,,,,,,,,,,,,,,,,,,,,,,,,,,,,,,,,,,,,,,,,,,,,,,,,,,,
296041,2022-09-23_11h52.57.982,vts_reward_expectancy,2022.2.4,Win32,60.86797736,Chrome,1664,1110,,,,,,,,,,,,,,,,,,,,,,,,,,,,,,,,,,,,,,,,,,,,,,,,,,,,,,,,,,,,,,,,,,,,,,,,,,,,
296041,2022-09-23_11h52.57.982,vts_reward_expectancy,2022.2.4,Win32,60.86797736,Chrome,1664,1110,,,a,1.2174,10,10,0,0,0,0,6,1,0,0,1,0,1,0,0,0,hexagon,triangle,,,,,,,,,,,,,,,,,,,,,,,,,,,,,,,,,,,,,,,,,,,,,,,,,,,,,,
296041,2022-09-23_11h52.57.982,vts_reward_expectancy,2022.2.4,Win32,60.86797736,Chrome,1664,1110,,,l,2.0508,1,11,0,0,1,1,4,1,0,1,0,0,0,0,1,0,circle,hexagon,,,,,,,,,,,,,,,,,,,,,,,,,,,,,,,,,,,,,,,,,,,,,,,,,,,,,,
296041,2022-09-23_11h52.57.982,vts_reward_expectancy,2022.2.4,Win32,60.86797736,Chrome,1664,1110,,,a,2.3692,10,21,0,0,2,2,9,1,0,0,0,1,1,0,0,0,star,triangle,,,,,,,,,,,,,,,,,,,,,,,,,,,,,,,,,,,,,,,,,,,,,,,,,,,,,,
296041,2022-09-23_11h52.57.982,vts_reward_expectancy,2022.2.4,Win32,60.86797736,Chrome,1664,1110,,,a,3.1695,1,22,0,0,3,3,8,1,0,0,1,0,0,0,0,1,hexagon,star,,,,,,,,,,,,,,,,,,,,,,,,,,,,,,,,,,,,,,,,,,,,,,,,,,,,,,
296041,2022-09-23_11h52.57.982,vts_reward_expectancy,2022.2.4,Win32,60.86797736,Chrome,1664,1110,,,l,0.9406,10,32,0,0,4,4,2,1,1,0,0,0,0,0,0,1,triangle,star,,,,,,,,,,,,,,,,,,,,,,,,,,,,,,,,,,,,,,,,,,,,,,,,,,,,,,
296041,2022-09-23_11h52.57.982,vts_reward_expectancy,2022.2.4,Win32,60.86797736,Chrome,1664,1110,,,a,1.486,1,33,0,0,5,5,11,1,0,0,0,1,0,0,1,0,star,hexagon,,,,,,,,,,,,,,,,,,,,,,,,,,,,,,,,,,,,,,,,,,,,,,,,,,,,,,
296041,2022-09-23_11h52.57.982,vts_reward_expectancy,2022.2.4,Win32,60.86797736,Chrome,1664,1110,,,a,1.6027,10,43,0,0,6,6,7,1,0,0,1,0,0,1,0,0,hexagon,circle,,,,,,,,,,,,,,,,,,,,,,,,,,,,,,,,,,,,,,,,,,,,,,,,,,,,,,
296041,2022-09-23_11h52.57.982,vts_reward_expectancy,2022.2.4,Win32,60.86797736,Chrome,1664,1110,,,a,1.0186,10,53,0,0,7,7,10,1,0,0,0,1,0,1,0,0,star ,circle,,,,,,,,,,,,,,,,,,,,,,,,,,,,,,,,,,,,,,,,,,,,,,,,,,,,,,
296041,2022-09-23_11h52.57.982,vts_reward_expectancy,2022.2.4,Win32,60.86797736,Chrome,1664,1110,,,l,1.4502,1,54,0,0,8,8,5,1,0,1,0,0,0,0,0,1,circle,star,,,,,,,,,,,,,,,,,,,,,,,,,,,,,,,,,,,,,,,,,,,,,,,,,,,,,,
296041,2022-09-23_11h52.57.982,vts_reward_expectancy,2022.2.4,Win32,60.86797736,Chrome,1664,1110,,,l,3.604,1,55,0,0,9,9,0,1,1,0,0,0,0,1,0,0,triangle,circle,,,,,,,,,,,,,,,,,,,,,,,,,,,,,,,,,,,,,,,,,,,,,,,,,,,,,,
296041,2022-09-23_11h52.57.982,vts_reward_expectancy,2022.2.4,Win32,60.86797736,Chrome,1664,1110,,,l,1.1347,10,65,0,0,10,10,1,1,1,0,0,0,0,0,1,0,triangle,hexagon,,,,,,,,,,,,,,,,,,,,,,,,,,,,,,,,,,,,,,,,,,,,,,,,,,,,,,
296041,2022-09-23_11h52.57.982,vts_reward_expectancy,2022.2.4,Win32,60.86797736,Chrome,1664,1110,,,a,1.4849,10,75,0,0,11,11,3,1,0,1,0,0,1,0,0,0,circle,triangle,,,,,,,,,,,,,,,,,,,,,,,,,,,,,,,,,,,,,,,,,,,,,,,,,,,,,,
296041,2022-09-23_11h52.57.982,vts_reward_expectancy,2022.2.4,Win32,60.86797736,Chrome,1664,1110,,,l,1.401,1,76,0,1,0,12,5,1,0,1,0,0,0,0,0,1,circle,star,,,,,,,,,,,,,,,,,,,,,,,,,,,,,,,,,,,,,,,,,,,,,,,,,,,,,,
296041,2022-09-23_11h52.57.982,vts_reward_expectancy,2022.2.4,Win32,60.86797736,Chrome,1664,1110,,,l,1.235,1,77,0,1,1,13,0,1,1,0,0,0,0,1,0,0,triangle,circle,,,,,,,,,,,,,,,,,,,,,,,,,,,,,,,,,,,,,,,,,,,,,,,,,,,,,,
296041,2022-09-23_11h52.57.982,vts_reward_expectancy,2022.2.4,Win32,60.86797736,Chrome,1664,1110,,,l,0.8297,1,78,0,1,2,14,1,1,1,0,0,0,0,0,1,0,triangle,hexagon,,,,,,,,,,,,,,,,,,,,,,,,,,,,,,,,,,,,,,,,,,,,,,,,,,,,,,
296041,2022-09-23_11h52.57.982,vts_reward_expectancy,2022.2.4,Win32,60.86797736,Chrome,1664,1110,,,a,1.002,10,88,0,1,3,15,3,1,0,1,0,0,1,0,0,0,circle,triangle,,,,,,,,,,,,,,,,,,,,,,,,,,,,,,,,,,,,,,,,,,,,,,,,,,,,,,
296041,2022-09-23_11h52.57.982,vts_reward_expectancy,2022.2.4,Win32,60.86797736,Chrome,1664,1110,,,l,1.4853,1,89,0,1,4,16,6,1,0,0,1,0,1,0,0,0,hexagon,triangle,,,,,,,,,,,,,,,,,,,,,,,,,,,,,,,,,,,,,,,,,,,,,,,,,,,,,,
296041,2022-09-23_11h52.57.982,vts_reward_expectancy,2022.2.4,Win32,60.86797736,Chrome,1664,1110,,,a,1.0505,10,99,0,1,5,17,9,1,0,0,0,1,1,0,0,0,star,triangle,,,,,,,,,,,,,,,,,,,,,,,,,,,,,,,,,,,,,,,,,,,,,,,,,,,,,,
296041,2022-09-23_11h52.57.982,vts_reward_expectancy,2022.2.4,Win32,60.86797736,Chrome,1664,1110,,,l,0.7866,1,100,0,1,6,18,2,1,1,0,0,0,0,0,0,1,triangle,star,,,,,,,,,,,,,,,,,,,,,,,,,,,,,,,,,,,,,,,,,,,,,,,,,,,,,,
296041,2022-09-23_11h52.57.982,vts_reward_expectancy,2022.2.4,Win32,60.86797736,Chrome,1664,1110,,,a,2.069,1,101,0,1,7,19,10,1,0,0,0,1,0,1,0,0,star ,circle,,,,,,,,,,,,,,,,,,,,,,,,,,,,,,,,,,,,,,,,,,,,,,,,,,,,,,
296041,2022-09-23_11h52.57.982,vts_reward_expectancy,2022.2.4,Win32,60.86797736,Chrome,1664,1110,,,a,1.4214,10,111,0,1,8,20,4,1,0,1,0,0,0,0,1,0,circle,hexagon,,,,,,,,,,,,,,,,,,,,,,,,,,,,,,,,,,,,,,,,,,,,,,,,,,,,,,
296041,2022-09-23_11h52.57.982,vts_reward_expectancy,2022.2.4,Win32,60.86797736,Chrome,1664,1110,,,l,0.8345,10,121,0,1,9,21,8,1,0,0,1,0,0,0,0,1,hexagon,star,,,,,,,,,,,,,,,,,,,,,,,,,,,,,,,,,,,,,,,,,,,,,,,,,,,,,,
296041,2022-09-23_11h52.57.982,vts_reward_expectancy,2022.2.4,Win32,60.86797736,Chrome,1664,1110,,,a,0.6947,1,122,0,1,10,22,11,1,0,0,0,1,0,0,1,0,star,hexagon,,,,,,,,,,,,,,,,,,,,,,,,,,,,,,,,,,,,,,,,,,,,,,,,,,,,,,
296041,2022-09-23_11h52.57.982,vts_reward_expectancy,2022.2.4,Win32,60.86797736,Chrome,1664,1110,,,l,1.02,10,132,0,1,11,23,7,1,0,0,1,0,0,1,0,0,hexagon,circle,,,,,,,,,,,,,,,,,,,,,,,,,,,,,,,,,,,,,,,,,,,,,,,,,,,,,,
296041,2022-09-23_11h52.57.982,vts_reward_expectancy,2022.2.4,Win32,60.86797736,Chrome,1664,1110,,,a,1.1355,10,142,0,2,0,24,3,1,0,1,0,0,1,0,0,0,circle,triangle,,,,,,,,,,,,,,,,,,,,,,,,,,,,,,,,,,,,,,,,,,,,,,,,,,,,,,
296041,2022-09-23_11h52.57.982,vts_reward_expectancy,2022.2.4,Win32,60.86797736,Chrome,1664,1110,,,l,1.1163,10,152,0,2,1,25,1,1,1,0,0,0,0,0,1,0,triangle,hexagon,,,,,,,,,,,,,,,,,,,,,,,,,,,,,,,,,,,,,,,,,,,,,,,,,,,,,,
296041,2022-09-23_11h52.57.982,vts_reward_expectancy,2022.2.4,Win32,60.86797736,Chrome,1664,1110,,,l,1.5712,10,162,0,2,2,26,4,1,0,1,0,0,0,0,1,0,circle,hexagon,,,,,,,,,,,,,,,,,,,,,,,,,,,,,,,,,,,,,,,,,,,,,,,,,,,,,,
296041,2022-09-23_11h52.57.982,vts_reward_expectancy,2022.2.4,Win32,60.86797736,Chrome,1664,1110,,,a,0.8524,1,163,0,2,3,27,6,1,0,0,1,0,1,0,0,0,hexagon,triangle,,,,,,,,,,,,,,,,,,,,,,,,,,,,,,,,,,,,,,,,,,,,,,,,,,,,,,
296041,2022-09-23_11h52.57.982,vts_reward_expectancy,2022.2.4,Win32,60.86797736,Chrome,1664,1110,,,a,6.0024,10,173,0,2,4,28,0,1,1,0,0,0,0,1,0,0,triangle,circle,,,,,,,,,,,,,,,,,,,,,,,,,,,,,,,,,,,,,,,,,,,,,,,,,,,,,,
296041,2022-09-23_11h52.57.982,vts_reward_expectancy,2022.2.4,Win32,60.86797736,Chrome,1664,1110,,,a,4.2023,10,183,0,2,5,29,11,1,0,0,0,1,0,0,1,0,star,hexagon,,,,,,,,,,,,,,,,,,,,,,,,,,,,,,,,,,,,,,,,,,,,,,,,,,,,,,
296041,2022-09-23_11h52.57.982,vts_reward_expectancy,2022.2.4,Win32,60.86797736,Chrome,1664,1110,,,a,1.985,1,184,0,2,6,30,7,1,0,0,1,0,0,1,0,0,hexagon,circle,,,,,,,,,,,,,,,,,,,,,,,,,,,,,,,,,,,,,,,,,,,,,,,,,,,,,,
296041,2022-09-23_11h52.57.982,vts_reward_expectancy,2022.2.4,Win32,60.86797736,Chrome,1664,1110,,,l,2.3514,10,194,0,2,7,31,2,1,1,0,0,0,0,0,0,1,triangle,star,,,,,,,,,,,,,,,,,,,,,,,,,,,,,,,,,,,,,,,,,,,,,,,,,,,,,,
296041,2022-09-23_11h52.57.982,vts_reward_expectancy,2022.2.4,Win32,60.86797736,Chrome,1664,1110,,,l,1.0698,1,195,0,2,8,32,8,1,0,0,1,0,0,0,0,1,hexagon,star,,,,,,,,,,,,,,,,,,,,,,,,,,,,,,,,,,,,,,,,,,,,,,,,,,,,,,
296041,2022-09-23_11h52.57.982,vts_reward_expectancy,2022.2.4,Win32,60.86797736,Chrome,1664,1110,,,a,1.5366,1,196,0,2,9,33,9,1,0,0,0,1,1,0,0,0,star,triangle,,,,,,,,,,,,,,,,,,,,,,,,,,,,,,,,,,,,,,,,,,,,,,,,,,,,,,
296041,2022-09-23_11h52.57.982,vts_reward_expectancy,2022.2.4,Win32,60.86797736,Chrome,1664,1110,,,a,1.1362,1,197,0,2,10,34,10,1,0,0,0,1,0,1,0,0,star ,circle,,,,,,,,,,,,,,,,,,,,,,,,,,,,,,,,,,,,,,,,,,,,,,,,,,,,,,
296041,2022-09-23_11h52.57.982,vts_reward_expectancy,2022.2.4,Win32,60.86797736,Chrome,1664,1110,,,a,0.7524,10,207,0,2,11,35,5,1,0,1,0,0,0,0,0,1,circle,star,,,,,,,,,,,,,,,,,,,,,,,,,,,,,,,,,,,,,,,,,,,,,,,,,,,,,,
296041,2022-09-23_11h52.57.982,vts_reward_expectancy,2022.2.4,Win32,60.86797736,Chrome,1664,1110,,,a,1.1865,1,208,1,0,0,0,11,1,0,0,0,1,0,0,1,0,star,hexagon,,,,,,,,,,,,,,,,,,,,,,,,,,,,,,,,,,,,,,,,,,,,,,,,,,,,,,
296041,2022-09-23_11h52.57.982,vts_reward_expectancy,2022.2.4,Win32,60.86797736,Chrome,1664,1110,,,a,0.9182,10,218,1,0,1,1,5,1,0,1,0,0,0,0,0,1,circle,star,,,,,,,,,,,,,,,,,,,,,,,,,,,,,,,,,,,,,,,,,,,,,,,,,,,,,,
296041,2022-09-23_11h52.57.982,vts_reward_expectancy,2022.2.4,Win32,60.86797736,Chrome,1664,1110,,,l,0.9345,1,219,1,0,2,2,2,1,1,0,0,0,0,0,0,1,triangle,star,,,,,,,,,,,,,,,,,,,,,,,,,,,,,,,,,,,,,,,,,,,,,,,,,,,,,,
296041,2022-09-23_11h52.57.982,vts_reward_expectancy,2022.2.4,Win32,60.86797736,Chrome,1664,1110,,,a,0.7875,10,229,1,0,3,3,8,1,0,0,1,0,0,0,0,1,hexagon,star,,,,,,,,,,,,,,,,,,,,,,,,,,,,,,,,,,,,,,,,,,,,,,,,,,,,,,
296041,2022-09-23_11h52.57.982,vts_reward_expectancy,2022.2.4,Win32,60.86797736,Chrome,1664,1110,,,a,1.3344,10,239,1,0,4,4,3,1,0,1,0,0,1,0,0,0,circle,triangle,,,,,,,,,,,,,,,,,,,,,,,,,,,,,,,,,,,,,,,,,,,,,,,,,,,,,,
296041,2022-09-23_11h52.57.982,vts_reward_expectancy,2022.2.4,Win32,60.86797736,Chrome,1664,1110,,,a,1.6848,10,249,1,0,5,5,6,1,0,0,1,0,1,0,0,0,hexagon,triangle,,,,,,,,,,,,,,,,,,,,,,,,,,,,,,,,,,,,,,,,,,,,,,,,,,,,,,
296041,2022-09-23_11h52.57.982,vts_reward_expectancy,2022.2.4,Win32,60.86797736,Chrome,1664,1110,,,l,0.969,10,259,1,0,6,6,7,1,0,0,1,0,0,1,0,0,hexagon,circle,,,,,,,,,,,,,,,,,,,,,,,,,,,,,,,,,,,,,,,,,,,,,,,,,,,,,,
296041,2022-09-23_11h52.57.982,vts_reward_expectancy,2022.2.4,Win32,60.86797736,Chrome,1664,1110,,,a,0.6997,10,269,1,0,7,7,4,1,0,1,0,0,0,0,1,0,circle,hexagon,,,,,,,,,,,,,,,,,,,,,,,,,,,,,,,,,,,,,,,,,,,,,,,,,,,,,,
296041,2022-09-23_11h52.57.982,vts_reward_expectancy,2022.2.4,Win32,60.86797736,Chrome,1664,1110,,,l,0.8359,10,279,1,0,8,8,0,1,1,0,0,0,0,1,0,0,triangle,circle,,,,,,,,,,,,,,,,,,,,,,,,,,,,,,,,,,,,,,,,,,,,,,,,,,,,,,
296041,2022-09-23_11h52.57.982,vts_reward_expectancy,2022.2.4,Win32,60.86797736,Chrome,1664,1110,,,l,1.0691,10,289,1,0,9,9,9,1,0,0,0,1,1,0,0,0,star,triangle,,,,,,,,,,,,,,,,,,,,,,,,,,,,,,,,,,,,,,,,,,,,,,,,,,,,,,
296041,2022-09-23_11h52.57.982,vts_reward_expectancy,2022.2.4,Win32,60.86797736,Chrome,1664,1110,,,l,0.5174,10,299,1,0,10,10,10,1,0,0,0,1,0,1,0,0,star ,circle,,,,,,,,,,,,,,,,,,,,,,,,,,,,,,,,,,,,,,,,,,,,,,,,,,,,,,
296041,2022-09-23_11h52.57.982,vts_reward_expectancy,2022.2.4,Win32,60.86797736,Chrome,1664,1110,,,l,1.968,10,309,1,0,11,11,1,1,1,0,0,0,0,0,1,0,triangle,hexagon,,,,,,,,,,,,,,,,,,,,,,,,,,,,,,,,,,,,,,,,,,,,,,,,,,,,,,
296041,2022-09-23_11h52.57.982,vts_reward_expectancy,2022.2.4,Win32,60.86797736,Chrome,1664,1110,,,a,2.0522,1,310,1,1,0,12,1,1,1,0,0,0,0,0,1,0,triangle,hexagon,,,,,,,,,,,,,,,,,,,,,,,,,,,,,,,,,,,,,,,,,,,,,,,,,,,,,,
296041,2022-09-23_11h52.57.982,vts_reward_expectancy,2022.2.4,Win32,60.86797736,Chrome,1664,1110,,,a,2.1352,10,320,1,1,1,13,4,1,0,1,0,0,0,0,1,0,circle,hexagon,,,,,,,,,,,,,,,,,,,,,,,,,,,,,,,,,,,,,,,,,,,,,,,,,,,,,,
296041,2022-09-23_11h52.57.982,vts_reward_expectancy,2022.2.4,Win32,60.86797736,Chrome,1664,1110,,,l,2.6032,1,321,1,1,2,14,9,1,0,0,0,1,1,0,0,0,star,triangle,,,,,,,,,,,,,,,,,,,,,,,,,,,,,,,,,,,,,,,,,,,,,,,,,,,,,,
296041,2022-09-23_11h52.57.982,vts_reward_expectancy,2022.2.4,Win32,60.86797736,Chrome,1664,1110,,,l,0.6355,10,331,1,1,3,15,10,1,0,0,0,1,0,1,0,0,star ,circle,,,,,,,,,,,,,,,,,,,,,,,,,,,,,,,,,,,,,,,,,,,,,,,,,,,,,,
296041,2022-09-23_11h52.57.982,vts_reward_expectancy,2022.2.4,Win32,60.86797736,Chrome,1664,1110,,,l,1.3132,1,332,1,1,4,16,6,1,0,0,1,0,1,0,0,0,hexagon,triangle,,,,,,,,,,,,,,,,,,,,,,,,,,,,,,,,,,,,,,,,,,,,,,,,,,,,,,
296041,2022-09-23_11h52.57.982,vts_reward_expectancy,2022.2.4,Win32,60.86797736,Chrome,1664,1110,,,l,0.5517,10,342,1,1,5,17,11,1,0,0,0,1,0,0,1,0,star,hexagon,,,,,,,,,,,,,,,,,,,,,,,,,,,,,,,,,,,,,,,,,,,,,,,,,,,,,,
296041,2022-09-23_11h52.57.982,vts_reward_expectancy,2022.2.4,Win32,60.86797736,Chrome,1664,1110,,,a,0.6507,1,343,1,1,6,18,2,1,1,0,0,0,0,0,0,1,triangle,star,,,,,,,,,,,,,,,,,,,,,,,,,,,,,,,,,,,,,,,,,,,,,,,,,,,,,,
296041,2022-09-23_11h52.57.982,vts_reward_expectancy,2022.2.4,Win32,60.86797736,Chrome,1664,1110,,,l,0.8182,1,344,1,1,7,19,0,1,1,0,0,0,0,1,0,0,triangle,circle,,,,,,,,,,,,,,,,,,,,,,,,,,,,,,,,,,,,,,,,,,,,,,,,,,,,,,
296041,2022-09-23_11h52.57.982,vts_reward_expectancy,2022.2.4,Win32,60.86797736,Chrome,1664,1110,,,l,0.9021,10,354,1,1,8,20,7,1,0,0,1,0,0,1,0,0,hexagon,circle,,,,,,,,,,,,,,,,,,,,,,,,,,,,,,,,,,,,,,,,,,,,,,,,,,,,,,
296041,2022-09-23_11h52.57.982,vts_reward_expectancy,2022.2.4,Win32,60.86797736,Chrome,1664,1110,,,a,0.6687,10,364,1,1,9,21,8,1,0,0,1,0,0,0,0,1,hexagon,star,,,,,,,,,,,,,,,,,,,,,,,,,,,,,,,,,,,,,,,,,,,,,,,,,,,,,,
296041,2022-09-23_11h52.57.982,vts_reward_expectancy,2022.2.4,Win32,60.86797736,Chrome,1664,1110,,,a,0.9381,10,374,1,1,10,22,5,1,0,1,0,0,0,0,0,1,circle,star,,,,,,,,,,,,,,,,,,,,,,,,,,,,,,,,,,,,,,,,,,,,,,,,,,,,,,
296041,2022-09-23_11h52.57.982,vts_reward_expectancy,2022.2.4,Win32,60.86797736,Chrome,1664,1110,,,a,0.8185,10,384,1,1,11,23,3,1,0,1,0,0,1,0,0,0,circle,triangle,,,,,,,,,,,,,,,,,,,,,,,,,,,,,,,,,,,,,,,,,,,,,,,,,,,,,,
296041,2022-09-23_11h52.57.982,vts_reward_expectancy,2022.2.4,Win32,60.86797736,Chrome,1664,1110,,,l,2.2146,1,385,1,2,0,24,1,1,1,0,0,0,0,0,1,0,triangle,hexagon,,,,,,,,,,,,,,,,,,,,,,,,,,,,,,,,,,,,,,,,,,,,,,,,,,,,,,
296041,2022-09-23_11h52.57.982,vts_reward_expectancy,2022.2.4,Win32,60.86797736,Chrome,1664,1110,,,a,0.9524,10,395,1,2,1,25,5,1,0,1,0,0,0,0,0,1,circle,star,,,,,,,,,,,,,,,,,,,,,,,,,,,,,,,,,,,,,,,,,,,,,,,,,,,,,,
296041,2022-09-23_11h52.57.982,vts_reward_expectancy,2022.2.4,Win32,60.86797736,Chrome,1664,1110,,,a,2.3212,1,396,1,2,2,26,2,1,1,0,0,0,0,0,0,1,triangle,star,,,,,,,,,,,,,,,,,,,,,,,,,,,,,,,,,,,,,,,,,,,,,,,,,,,,,,
296041,2022-09-23_11h52.57.982,vts_reward_expectancy,2022.2.4,Win32,60.86797736,Chrome,1664,1110,,,l,1.0517,1,397,1,2,3,27,10,1,0,0,0,1,0,1,0,0,star ,circle,,,,,,,,,,,,,,,,,,,,,,,,,,,,,,,,,,,,,,,,,,,,,,,,,,,,,,
296041,2022-09-23_11h52.57.982,vts_reward_expectancy,2022.2.4,Win32,60.86797736,Chrome,1664,1110,,,l,0.719,10,407,1,2,4,28,11,1,0,0,0,1,0,0,1,0,star,hexagon,,,,,,,,,,,,,,,,,,,,,,,,,,,,,,,,,,,,,,,,,,,,,,,,,,,,,,
296041,2022-09-23_11h52.57.982,vts_reward_expectancy,2022.2.4,Win32,60.86797736,Chrome,1664,1110,,,a,0.6793,1,408,1,2,5,29,8,1,0,0,1,0,0,0,0,1,hexagon,star,,,,,,,,,,,,,,,,,,,,,,,,,,,,,,,,,,,,,,,,,,,,,,,,,,,,,,
296041,2022-09-23_11h52.57.982,vts_reward_expectancy,2022.2.4,Win32,60.86797736,Chrome,1664,1110,,,l,7.388,1,409,1,2,6,30,7,1,0,0,1,0,0,1,0,0,hexagon,circle,,,,,,,,,,,,,,,,,,,,,,,,,,,,,,,,,,,,,,,,,,,,,,,,,,,,,,
296041,2022-09-23_11h52.57.982,vts_reward_expectancy,2022.2.4,Win32,60.86797736,Chrome,1664,1110,,,a,4.0193,1,410,1,2,7,31,3,1,0,1,0,0,1,0,0,0,circle,triangle,,,,,,,,,,,,,,,,,,,,,,,,,,,,,,,,,,,,,,,,,,,,,,,,,,,,,,
296041,2022-09-23_11h52.57.982,vts_reward_expectancy,2022.2.4,Win32,60.86797736,Chrome,1664,1110,,,a,3.4699,1,411,1,2,8,32,4,1,0,1,0,0,0,0,1,0,circle,hexagon,,,,,,,,,,,,,,,,,,,,,,,,,,,,,,,,,,,,,,,,,,,,,,,,,,,,,,
296041,2022-09-23_11h52.57.982,vts_reward_expectancy,2022.2.4,Win32,60.86797736,Chrome,1664,1110,,,l,1.5182,1,412,1,2,9,33,9,1,0,0,0,1,1,0,0,0,star,triangle,,,,,,,,,,,,,,,,,,,,,,,,,,,,,,,,,,,,,,,,,,,,,,,,,,,,,,
296041,2022-09-23_11h52.57.982,vts_reward_expectancy,2022.2.4,Win32,60.86797736,Chrome,1664,1110,,,l,1.2547,1,413,1,2,10,34,0,1,1,0,0,0,0,1,0,0,triangle,circle,,,,,,,,,,,,,,,,,,,,,,,,,,,,,,,,,,,,,,,,,,,,,,,,,,,,,,
296041,2022-09-23_11h52.57.982,vts_reward_expectancy,2022.2.4,Win32,60.86797736,Chrome,1664,1110,,,l,3.3706,1,414,1,2,11,35,6,1,0,0,1,0,1,0,0,0,hexagon,triangle,,,,,,,,,,,,,,,,,,,,,,,,,,,,,,,,,,,,,,,,,,,,,,,,,,,,,,
296041,2022-09-23_11h52.57.982,vts_reward_expectancy,2022.2.4,Win32,60.86797736,Chrome,1664,1110,,,l,1.1169,1,415,2,0,0,0,7,1,0,0,1,0,0,1,0,0,hexagon,circle,,,,,,,,,,,,,,,,,,,,,,,,,,,,,,,,,,,,,,,,,,,,,,,,,,,,,,
296041,2022-09-23_11h52.57.982,vts_reward_expectancy,2022.2.4,Win32,60.86797736,Chrome,1664,1110,,,l,1.5709,1,416,2,0,1,1,2,1,1,0,0,0,0,0,0,1,triangle,star,,,,,,,,,,,,,,,,,,,,,,,,,,,,,,,,,,,,,,,,,,,,,,,,,,,,,,
296041,2022-09-23_11h52.57.982,vts_reward_expectancy,2022.2.4,Win32,60.86797736,Chrome,1664,1110,,,a,1.7718,10,426,2,0,2,2,4,1,0,1,0,0,0,0,1,0,circle,hexagon,,,,,,,,,,,,,,,,,,,,,,,,,,,,,,,,,,,,,,,,,,,,,,,,,,,,,,
296041,2022-09-23_11h52.57.982,vts_reward_expectancy,2022.2.4,Win32,60.86797736,Chrome,1664,1110,,,a,0.7492,10,436,2,0,3,3,5,1,0,1,0,0,0,0,0,1,circle,star,,,,,,,,,,,,,,,,,,,,,,,,,,,,,,,,,,,,,,,,,,,,,,,,,,,,,,
296041,2022-09-23_11h52.57.982,vts_reward_expectancy,2022.2.4,Win32,60.86797736,Chrome,1664,1110,,,a,0.7186,10,446,2,0,4,4,3,1,0,1,0,0,1,0,0,0,circle,triangle,,,,,,,,,,,,,,,,,,,,,,,,,,,,,,,,,,,,,,,,,,,,,,,,,,,,,,
296041,2022-09-23_11h52.57.982,vts_reward_expectancy,2022.2.4,Win32,60.86797736,Chrome,1664,1110,,,a,1.7644,1,447,2,0,5,5,1,1,1,0,0,0,0,0,1,0,triangle,hexagon,,,,,,,,,,,,,,,,,,,,,,,,,,,,,,,,,,,,,,,,,,,,,,,,,,,,,,
296041,2022-09-23_11h52.57.982,vts_reward_expectancy,2022.2.4,Win32,60.86797736,Chrome,1664,1110,,,l,1.097,1,448,2,0,6,6,0,1,1,0,0,0,0,1,0,0,triangle,circle,,,,,,,,,,,,,,,,,,,,,,,,,,,,,,,,,,,,,,,,,,,,,,,,,,,,,,
296041,2022-09-23_11h52.57.982,vts_reward_expectancy,2022.2.4,Win32,60.86797736,Chrome,1664,1110,,,l,1.3996,1,449,2,0,7,7,9,1,0,0,0,1,1,0,0,0,star,triangle,,,,,,,,,,,,,,,,,,,,,,,,,,,,,,,,,,,,,,,,,,,,,,,,,,,,,,
296041,2022-09-23_11h52.57.982,vts_reward_expectancy,2022.2.4,Win32,60.86797736,Chrome,1664,1110,,,l,0.7854,10,459,2,0,8,8,10,1,0,0,0,1,0,1,0,0,star ,circle,,,,,,,,,,,,,,,,,,,,,,,,,,,,,,,,,,,,,,,,,,,,,,,,,,,,,,
296041,2022-09-23_11h52.57.982,vts_reward_expectancy,2022.2.4,Win32,60.86797736,Chrome,1664,1110,,,a,1.9849,1,460,2,0,9,9,6,1,0,0,1,0,1,0,0,0,hexagon,triangle,,,,,,,,,,,,,,,,,,,,,,,,,,,,,,,,,,,,,,,,,,,,,,,,,,,,,,
296041,2022-09-23_11h52.57.982,vts_reward_expectancy,2022.2.4,Win32,60.86797736,Chrome,1664,1110,,,l,0.6351,1,461,2,0,10,10,11,1,0,0,0,1,0,0,1,0,star,hexagon,,,,,,,,,,,,,,,,,,,,,,,,,,,,,,,,,,,,,,,,,,,,,,,,,,,,,,
296041,2022-09-23_11h52.57.982,vts_reward_expectancy,2022.2.4,Win32,60.86797736,Chrome,1664,1110,,,a,0.7025,10,471,2,0,11,11,8,1,0,0,1,0,0,0,0,1,hexagon,star,,,,,,,,,,,,,,,,,,,,,,,,,,,,,,,,,,,,,,,,,,,,,,,,,,,,,,
296041,2022-09-23_11h52.57.982,vts_reward_expectancy,2022.2.4,Win32,60.86797736,Chrome,1664,1110,,,l,1.7146,10,481,2,1,0,12,1,1,1,0,0,0,0,0,1,0,triangle,hexagon,,,,,,,,,,,,,,,,,,,,,,,,,,,,,,,,,,,,,,,,,,,,,,,,,,,,,,
296041,2022-09-23_11h52.57.982,vts_reward_expectancy,2022.2.4,Win32,60.86797736,Chrome,1664,1110,,,l,0.6849,10,491,2,1,1,13,7,1,0,0,1,0,0,1,0,0,hexagon,circle,,,,,,,,,,,,,,,,,,,,,,,,,,,,,,,,,,,,,,,,,,,,,,,,,,,,,,
296041,2022-09-23_11h52.57.982,vts_reward_expectancy,2022.2.4,Win32,60.86797736,Chrome,1664,1110,,,l,1.1511,1,492,2,1,2,14,2,1,1,0,0,0,0,0,0,1,triangle,star,,,,,,,,,,,,,,,,,,,,,,,,,,,,,,,,,,,,,,,,,,,,,,,,,,,,,,
296041,2022-09-23_11h52.57.982,vts_reward_expectancy,2022.2.4,Win32,60.86797736,Chrome,1664,1110,,,a,1.3199,1,493,2,1,3,15,9,1,0,0,0,1,1,0,0,0,star,triangle,,,,,,,,,,,,,,,,,,,,,,,,,,,,,,,,,,,,,,,,,,,,,,,,,,,,,,
296041,2022-09-23_11h52.57.982,vts_reward_expectancy,2022.2.4,Win32,60.86797736,Chrome,1664,1110,,,a,0.7704,1,494,2,1,4,16,3,1,0,1,0,0,1,0,0,0,circle,triangle,,,,,,,,,,,,,,,,,,,,,,,,,,,,,,,,,,,,,,,,,,,,,,,,,,,,,,
296041,2022-09-23_11h52.57.982,vts_reward_expectancy,2022.2.4,Win32,60.86797736,Chrome,1664,1110,,,a,1.069,10,504,2,1,5,17,8,1,0,0,1,0,0,0,0,1,hexagon,star,,,,,,,,,,,,,,,,,,,,,,,,,,,,,,,,,,,,,,,,,,,,,,,,,,,,,,
296041,2022-09-23_11h52.57.982,vts_reward_expectancy,2022.2.4,Win32,60.86797736,Chrome,1664,1110,,,l,0.4851,10,514,2,1,6,18,10,1,0,0,0,1,0,1,0,0,star ,circle,,,,,,,,,,,,,,,,,,,,,,,,,,,,,,,,,,,,,,,,,,,,,,,,,,,,,,
296041,2022-09-23_11h52.57.982,vts_reward_expectancy,2022.2.4,Win32,60.86797736,Chrome,1664,1110,,,l,1.2894,1,515,2,1,7,19,6,1,0,0,1,0,1,0,0,0,hexagon,triangle,,,,,,,,,,,,,,,,,,,,,,,,,,,,,,,,,,,,,,,,,,,,,,,,,,,,,,
296041,2022-09-23_11h52.57.982,vts_reward_expectancy,2022.2.4,Win32,60.86797736,Chrome,1664,1110,,,l,0.7851,10,525,2,1,8,20,0,1,1,0,0,0,0,1,0,0,triangle,circle,,,,,,,,,,,,,,,,,,,,,,,,,,,,,,,,,,,,,,,,,,,,,,,,,,,,,,
296041,2022-09-23_11h52.57.982,vts_reward_expectancy,2022.2.4,Win32,60.86797736,Chrome,1664,1110,,,a,0.5892,10,535,2,1,9,21,5,1,0,1,0,0,0,0,0,1,circle,star,,,,,,,,,,,,,,,,,,,,,,,,,,,,,,,,,,,,,,,,,,,,,,,,,,,,,,
296041,2022-09-23_11h52.57.982,vts_reward_expectancy,2022.2.4,Win32,60.86797736,Chrome,1664,1110,,,l,0.619,10,545,2,1,10,22,11,1,0,0,0,1,0,0,1,0,star,hexagon,,,,,,,,,,,,,,,,,,,,,,,,,,,,,,,,,,,,,,,,,,,,,,,,,,,,,,
296041,2022-09-23_11h52.57.982,vts_reward_expectancy,2022.2.4,Win32,60.86797736,Chrome,1664,1110,,,a,0.6353,10,555,2,1,11,23,4,1,0,1,0,0,0,0,1,0,circle,hexagon,,,,,,,,,,,,,,,,,,,,,,,,,,,,,,,,,,,,,,,,,,,,,,,,,,,,,,
296041,2022-09-23_11h52.57.982,vts_reward_expectancy,2022.2.4,Win32,60.86797736,Chrome,1664,1110,,,l,0.7691,10,565,2,2,0,24,11,1,0,0,0,1,0,0,1,0,star,hexagon,,,,,,,,,,,,,,,,,,,,,,,,,,,,,,,,,,,,,,,,,,,,,,,,,,,,,,
296041,2022-09-23_11h52.57.982,vts_reward_expectancy,2022.2.4,Win32,60.86797736,Chrome,1664,1110,,,l,0.4352,1,566,2,2,1,25,10,1,0,0,0,1,0,1,0,0,star ,circle,,,,,,,,,,,,,,,,,,,,,,,,,,,,,,,,,,,,,,,,,,,,,,,,,,,,,,
296041,2022-09-23_11h52.57.982,vts_reward_expectancy,2022.2.4,Win32,60.86797736,Chrome,1664,1110,,,a,0.8184,10,576,2,2,2,26,3,1,0,1,0,0,1,0,0,0,circle,triangle,,,,,,,,,,,,,,,,,,,,,,,,,,,,,,,,,,,,,,,,,,,,,,,,,,,,,,
296041,2022-09-23_11h52.57.982,vts_reward_expectancy,2022.2.4,Win32,60.86797736,Chrome,1664,1110,,,l,0.4673,1,577,2,2,3,27,7,1,0,0,1,0,0,1,0,0,hexagon,circle,,,,,,,,,,,,,,,,,,,,,,,,,,,,,,,,,,,,,,,,,,,,,,,,,,,,,,
296041,2022-09-23_11h52.57.982,vts_reward_expectancy,2022.2.4,Win32,60.86797736,Chrome,1664,1110,,,a,0.6002,10,587,2,2,4,28,2,1,1,0,0,0,0,0,0,1,triangle,star,,,,,,,,,,,,,,,,,,,,,,,,,,,,,,,,,,,,,,,,,,,,,,,,,,,,,,
296041,2022-09-23_11h52.57.982,vts_reward_expectancy,2022.2.4,Win32,60.86797736,Chrome,1664,1110,,,l,1.0529,1,588,2,2,5,29,6,1,0,0,1,0,1,0,0,0,hexagon,triangle,,,,,,,,,,,,,,,,,,,,,,,,,,,,,,,,,,,,,,,,,,,,,,,,,,,,,,
296041,2022-09-23_11h52.57.982,vts_reward_expectancy,2022.2.4,Win32,60.86797736,Chrome,1664,1110,,,l,0.6208,10,598,2,2,6,30,0,1,1,0,0,0,0,1,0,0,triangle,circle,,,,,,,,,,,,,,,,,,,,,,,,,,,,,,,,,,,,,,,,,,,,,,,,,,,,,,
296041,2022-09-23_11h52.57.982,vts_reward_expectancy,2022.2.4,Win32,60.86797736,Chrome,1664,1110,,,a,0.9024,1,599,2,2,7,31,9,1,0,0,0,1,1,0,0,0,star,triangle,,,,,,,,,,,,,,,,,,,,,,,,,,,,,,,,,,,,,,,,,,,,,,,,,,,,,,
296041,2022-09-23_11h52.57.982,vts_reward_expectancy,2022.2.4,Win32,60.86797736,Chrome,1664,1110,,,a,0.8292,1,600,2,2,8,32,8,1,0,0,1,0,0,0,0,1,hexagon,star,,,,,,,,,,,,,,,,,,,,,,,,,,,,,,,,,,,,,,,,,,,,,,,,,,,,,,
296041,2022-09-23_11h52.57.982,vts_reward_expectancy,2022.2.4,Win32,60.86797736,Chrome,1664,1110,,,a,0.685,10,610,2,2,9,33,4,1,0,1,0,0,0,0,1,0,circle,hexagon,,,,,,,,,,,,,,,,,,,,,,,,,,,,,,,,,,,,,,,,,,,,,,,,,,,,,,
296041,2022-09-23_11h52.57.982,vts_reward_expectancy,2022.2.4,Win32,60.86797736,Chrome,1664,1110,,,a,0.5016,10,620,2,2,10,34,5,1,0,1,0,0,0,0,0,1,circle,star,,,,,,,,,,,,,,,,,,,,,,,,,,,,,,,,,,,,,,,,,,,,,,,,,,,,,,
296041,2022-09-23_11h52.57.982,vts_reward_expectancy,2022.2.4,Win32,60.86797736,Chrome,1664,1110,,,a,1.1682,10,630,2,2,11,35,1,1,1,0,0,0,0,0,1,0,triangle,hexagon,,,,,,,,,,,,,,,,,,,,,,,,,,,,,,,,,,,,,,,,,,,,,,,,,,,,,,
296041,2022-09-23_11h52.57.982,vts_reward_expectancy,2022.2.4,Win32,60.86797736,Chrome,1664,1110,,,,,,,,,,,,,,,,,,,,,,,W,167,star,0,0,,0,0,0,0,0,1,,,,,,,,,,,,,,,,,,,,,,,,,,,,,,,,,,,,,,,,,,
296041,2022-09-23_11h52.57.982,vts_reward_expectancy,2022.2.4,Win32,60.86797736,Chrome,1664,1110,,,,,,,,,,,,,,,,,,,,,,,S,181,circle,0,1,d,0,1,0,1,0,1,1.3678,,,,,,,,,,,,,,,,,,,,,,,,,,,,,,,,,,,,,,,,,
296041,2022-09-23_11h52.57.982,vts_reward_expectancy,2022.2.4,Win32,60.86797736,Chrome,1664,1110,,,,,,,,,,,,,,,,,,,,,,,Y,160,triangle,0,1,d,0,2,0,2,0,1,1.8471,,,,,,,,,,,,,,,,,,,,,,,,,,,,,,,,,,,,,,,,,
296041,2022-09-23_11h52.57.982,vts_reward_expectancy,2022.2.4,Win32,60.86797736,Chrome,1664,1110,,,,,,,,,,,,,,,,,,,,,,,D,174,hexagon,0,1,f,0,3,0,3,0,1,0.4677,,,,,,,,,,,,,,,,,,,,,,,,,,,,,,,,,,,,,,,,,
296041,2022-09-23_11h52.57.982,vts_reward_expectancy,2022.2.4,Win32,60.86797736,Chrome,1664,1110,,,,,,,,,,,,,,,,,,,,,,,H,146,star,0,1,f,0,4,0,4,0,1,2.5026,,,,,,,,,,,,,,,,,,,,,,,,,,,,,,,,,,,,,,,,,
296041,2022-09-23_11h52.57.982,vts_reward_expectancy,2022.2.4,Win32,60.86797736,Chrome,1664,1110,,,,,,,,,,,,,,,,,,,,,,,U,139,circle,0,1,d,0,5,0,5,0,1,0.4358,,,,,,,,,,,,,,,,,,,,,,,,,,,,,,,,,,,,,,,,,
296041,2022-09-23_11h52.57.982,vts_reward_expectancy,2022.2.4,Win32,60.86797736,Chrome,1664,1110,,,,,,,,,,,,,,,,,,,,,,,B,125,triangle,1,1,d,0,6,0,6,0,1,0.3355,,,,,,,,,,,,,,,,,,,,,,,,,,,,,,,,,,,,,,,,,
296041,2022-09-23_11h52.57.982,vts_reward_expectancy,2022.2.4,Win32,60.86797736,Chrome,1664,1110,,,,,,,,,,,,,,,,,,,,,,,F,132,hexagon,0,0,f,0,7,0,7,0,1,2.5698,,,,,,,,,,,,,,,,,,,,,,,,,,,,,,,,,,,,,,,,,
296041,2022-09-23_11h52.57.982,vts_reward_expectancy,2022.2.4,Win32,60.86797736,Chrome,1664,1110,,,,,,,,,,,,,,,,,,,,,,,W,167,triangle,0,1,d,0,8,0,8,0,1,0.7849,,,,,,,,,,,,,,,,,,,,,,,,,,,,,,,,,,,,,,,,,
296041,2022-09-23_11h52.57.982,vts_reward_expectancy,2022.2.4,Win32,60.86797736,Chrome,1664,1110,,,,,,,,,,,,,,,,,,,,,,,S,181,star,0,1,d,0,9,0,9,0,1,0.5188,,,,,,,,,,,,,,,,,,,,,,,,,,,,,,,,,,,,,,,,,
296041,2022-09-23_11h52.57.982,vts_reward_expectancy,2022.2.4,Win32,60.86797736,Chrome,1664,1110,,,,,,,,,,,,,,,,,,,,,,,F,160,star,1,1,d,1,0,0,0,0,1,0.9689,,,,,,,,,,,,,,,,,,,,,,,,,,,,,,,,,,,,,,,,,
296041,2022-09-23_11h52.57.982,vts_reward_expectancy,2022.2.4,Win32,60.86797736,Chrome,1664,1110,,,,,,,,,,,,,,,,,,,,,,,U,181,triangle,1,0,f,1,1,0,1,0,1,0.669,,,,,,,,,,,,,,,,,,,,,,,,,,,,,,,,,,,,,,,,,
296041,2022-09-23_11h52.57.982,vts_reward_expectancy,2022.2.4,Win32,60.86797736,Chrome,1664,1110,,,,,,,,,,,,,,,,,,,,,,,S,146,hexagon,1,0,f,1,2,0,2,0,1,0.8361,,,,,,,,,,,,,,,,,,,,,,,,,,,,,,,,,,,,,,,,,
296041,2022-09-23_11h52.57.982,vts_reward_expectancy,2022.2.4,Win32,60.86797736,Chrome,1664,1110,,,,,,,,,,,,,,,,,,,,,,,H,139,circle,1,0,d,1,3,0,3,0,1,0.5856,,,,,,,,,,,,,,,,,,,,,,,,,,,,,,,,,,,,,,,,,
296041,2022-09-23_11h52.57.982,vts_reward_expectancy,2022.2.4,Win32,60.86797736,Chrome,1664,1110,,,,,,,,,,,,,,,,,,,,,,,B,167,star,1,0,d,1,4,0,4,0,1,0.6838,,,,,,,,,,,,,,,,,,,,,,,,,,,,,,,,,,,,,,,,,
296041,2022-09-23_11h52.57.982,vts_reward_expectancy,2022.2.4,Win32,60.86797736,Chrome,1664,1110,,,,,,,,,,,,,,,,,,,,,,,D,125,triangle,1,0,d,1,5,0,5,0,1,0.7674,,,,,,,,,,,,,,,,,,,,,,,,,,,,,,,,,,,,,,,,,
296041,2022-09-23_11h52.57.982,vts_reward_expectancy,2022.2.4,Win32,60.86797736,Chrome,1664,1110,,,,,,,,,,,,,,,,,,,,,,,Y,132,hexagon,1,0,f,1,6,0,6,0,1,0.5354,,,,,,,,,,,,,,,,,,,,,,,,,,,,,,,,,,,,,,,,,
296041,2022-09-23_11h52.57.982,vts_reward_expectancy,2022.2.4,Win32,60.86797736,Chrome,1664,1110,,,,,,,,,,,,,,,,,,,,,,,W,174,circle,1,0,f,1,7,0,7,0,1,0.7017,,,,,,,,,,,,,,,,,,,,,,,,,,,,,,,,,,,,,,,,,
296041,2022-09-23_11h52.57.982,vts_reward_expectancy,2022.2.4,Win32,60.86797736,Chrome,1664,1110,,,,,,,,,,,,,,,,,,,,,,,F,160,hexagon,1,0,d,1,8,0,8,0,1,0.9027,,,,,,,,,,,,,,,,,,,,,,,,,,,,,,,,,,,,,,,,,
296041,2022-09-23_11h52.57.982,vts_reward_expectancy,2022.2.4,Win32,60.86797736,Chrome,1664,1110,,,,,,,,,,,,,,,,,,,,,,,U,181,circle,1,0,f,1,9,0,9,0,1,0.7024,,,,,,,,,,,,,,,,,,,,,,,,,,,,,,,,,,,,,,,,,
296041,2022-09-23_11h52.57.982,vts_reward_expectancy,2022.2.4,Win32,60.86797736,Chrome,1664,1110,,,,,,,,,,,,,,,,,,,,,,,B,160,star,1,0,,2,,,,,,,k,1.2193,0,0,0,0,1,,,,,,,,,,,,,,,,,,,,,,,,,,,,,,,,,,
296041,2022-09-23_11h52.57.982,vts_reward_expectancy,2022.2.4,Win32,60.86797736,Chrome,1664,1110,,,,,,,,,,,,,,,,,,,,,,,D,167,hexagon,1,0,,2,,,,,,,k,0.7179,1,0,1,0,1,,,,,,,,,,,,,,,,,,,,,,,,,,,,,,,,,,
296041,2022-09-23_11h52.57.982,vts_reward_expectancy,2022.2.4,Win32,60.86797736,Chrome,1664,1110,,,,,,,,,,,,,,,,,,,,,,,S,125,triangle,1,0,,2,,,,,,,j,0.6019,2,0,2,0,1,,,,,,,,,,,,,,,,,,,,,,,,,,,,,,,,,,
296041,2022-09-23_11h52.57.982,vts_reward_expectancy,2022.2.4,Win32,60.86797736,Chrome,1664,1110,,,,,,,,,,,,,,,,,,,,,,,F,132,circle,1,0,,2,,,,,,,j,0.7357,3,0,3,0,1,,,,,,,,,,,,,,,,,,,,,,,,,,,,,,,,,,
296041,2022-09-23_11h52.57.982,vts_reward_expectancy,2022.2.4,Win32,60.86797736,Chrome,1664,1110,,,,,,,,,,,,,,,,,,,,,,,U,181,star,1,0,,2,,,,,,,k,0.6514,4,0,4,0,1,,,,,,,,,,,,,,,,,,,,,,,,,,,,,,,,,,
296041,2022-09-23_11h52.57.982,vts_reward_expectancy,2022.2.4,Win32,60.86797736,Chrome,1664,1110,,,,,,,,,,,,,,,,,,,,,,,W,139,hexagon,1,0,,2,,,,,,,j,1.219,5,0,5,0,1,,,,,,,,,,,,,,,,,,,,,,,,,,,,,,,,,,
296041,2022-09-23_11h52.57.982,vts_reward_expectancy,2022.2.4,Win32,60.86797736,Chrome,1664,1110,,,,,,,,,,,,,,,,,,,,,,,H,174,triangle,1,0,,2,,,,,,,k,1.0686,6,0,6,0,1,,,,,,,,,,,,,,,,,,,,,,,,,,,,,,,,,,
296041,2022-09-23_11h52.57.982,vts_reward_expectancy,2022.2.4,Win32,60.86797736,Chrome,1664,1110,,,,,,,,,,,,,,,,,,,,,,,Y,146,circle,1,0,,2,,,,,,,j,1.4525,7,0,7,0,1,,,,,,,,,,,,,,,,,,,,,,,,,,,,,,,,,,
296041,2022-09-23_11h52.57.982,vts_reward_expectancy,2022.2.4,Win32,60.86797736,Chrome,1664,1110,,,,,,,,,,,,,,,,,,,,,,,B,160,star,1,0,,2,,,,,,,k,1.336,8,0,8,0,1,,,,,,,,,,,,,,,,,,,,,,,,,,,,,,,,,,
296041,2022-09-23_11h52.57.982,vts_reward_expectancy,2022.2.4,Win32,60.86797736,Chrome,1664,1110,,,,,,,,,,,,,,,,,,,,,,,D,167,triangle,1,0,,2,,,,,,,k,1.0188,9,0,9,0,1,,,,,,,,,,,,,,,,,,,,,,,,,,,,,,,,,,
296041,2022-09-23_11h52.57.982,vts_reward_expectancy,2022.2.4,Win32,60.86797736,Chrome,1664,1110,,,,,0,630,,,,,,,,,,,,,,,,,F,139,triangle,-1,0,,3,,,,,,,,,,,,,,-1,no_choice,NA,,vtsPrac,0,0,0,0,1,,,,,,,,,,,,,,,,,,,,,,,,
296041,2022-09-23_11h52.57.982,vts_reward_expectancy,2022.2.4,Win32,60.86797736,Chrome,1664,1110,,,,,0,630,,,,,,,,,,,,,,,,,S,167,star,1,0,,3,,,,,,,,,,,,,,switch,letter,lettSwt,f,vtsPrac,1,0,1,0,1,1.0498,,,,,,,,,,,,,,,,,,,,,,,
296041,2022-09-23_11h52.57.982,vts_reward_expectancy,2022.2.4,Win32,60.86797736,Chrome,1664,1110,,,,,0,630,,,,,,,,,,,,,,,,,W,146,triangle,1,0,,3,,,,,,,,,,,,,,repeat,letter,lettRpt,f,vtsPrac,2,0,2,0,1,0.7512,,,,,,,,,,,,,,,,,,,,,,,
296041,2022-09-23_11h52.57.982,vts_reward_expectancy,2022.2.4,Win32,60.86797736,Chrome,1664,1110,,,,,0,630,,,,,,,,,,,,,,,,,B,174,star,1,0,,3,,,,,,,,,,,,,,switch,number,numSwt,k,vtsPrac,3,0,3,0,1,0.6021,,,,,,,,,,,,,,,,,,,,,,,
296041,2022-09-23_11h52.57.982,vts_reward_expectancy,2022.2.4,Win32,60.86797736,Chrome,1664,1110,,,,,0,630,,,,,,,,,,,,,,,,,F,139,triangle,1,0,,3,,,,,,,,,,,,,,switch,letter,lettSwt,d,vtsPrac,4,0,4,0,1,0.7182,,,,,,,,,,,,,,,,,,,,,,,
296041,2022-09-23_11h52.57.982,vts_reward_expectancy,2022.2.4,Win32,60.86797736,Chrome,1664,1110,,,,,0,630,,,,,,,,,,,,,,,,,S,167,star,1,0,,3,,,,,,,,,,,,,,switch,number,numSwt,k,vtsPrac,5,0,5,0,1,0.7819,,,,,,,,,,,,,,,,,,,,,,,
296041,2022-09-23_11h52.57.982,vts_reward_expectancy,2022.2.4,Win32,60.86797736,Chrome,1664,1110,,,,,0,630,,,,,,,,,,,,,,,,,W,146,hexagon,1,0,,3,,,,,,,,,,,,,,repeat,number,numRpt,j,vtsPrac,6,0,6,0,1,0.9518,,,,,,,,,,,,,,,,,,,,,,,
296041,2022-09-23_11h52.57.982,vts_reward_expectancy,2022.2.4,Win32,60.86797736,Chrome,1664,1110,,,,,0,630,,,,,,,,,,,,,,,,,B,174,star,1,0,,3,,,,,,,,,,,,,,switch,letter,lettSwt,d,vtsPrac,7,0,7,0,1,0.9194,,,,,,,,,,,,,,,,,,,,,,,
296041,2022-09-23_11h52.57.982,vts_reward_expectancy,2022.2.4,Win32,60.86797736,Chrome,1664,1110,,,,,0,630,,,,,,,,,,,,,,,,,Y,167,circle,1,0,,3,,,,,,,,,,,,,,repeat,letter,lettRpt,f,vtsPrac,8,0,8,0,1,0.8174,,,,,,,,,,,,,,,,,,,,,,,
296041,2022-09-23_11h52.57.982,vts_reward_expectancy,2022.2.4,Win32,60.86797736,Chrome,1664,1110,,,,,0,630,,,,,,,,,,,,,,,,,B,174,triangle,1,0,,3,,,,,,,,,,,,,,repeat,letter,lettRpt,d,vtsPrac,9,0,9,0,1,0.902,,,,,,,,,,,,,,,,,,,,,,,
296041,2022-09-23_11h52.57.982,vts_reward_expectancy,2022.2.4,Win32,60.86797736,Chrome,1664,1110,,,,,0,630,,,,,,,,,,,,,,,,,H,125,star,1,0,,3,,,,,,,,,,,,,,switch,number,numSwt,j,vtsPrac,10,0,10,0,1,0.8185,,,,,,,,,,,,,,,,,,,,,,,
296041,2022-09-23_11h52.57.982,vts_reward_expectancy,2022.2.4,Win32,60.86797736,Chrome,1664,1110,,,,,0,630,,,,,,,,,,,,,,,,,W,160,circle,1,0,,3,,,,,,,,,,,,,,switch,letter,lettSwt,f,vtsPrac,11,0,11,0,1,0.9187,,,,,,,,,,,,,,,,,,,,,,,
296041,2022-09-23_11h52.57.982,vts_reward_expectancy,2022.2.4,Win32,60.86797736,Chrome,1664,1110,,,,,0,630,,,,,,,,,,,,,,,,,H,160,triangle,1,0,,3,,,,,,,,,,,,,,switch,number,numSwt,k,vtsPrac,12,0,12,0,1,0.6505,,,,,,,,,,,,,,,,,,,,,,,
296041,2022-09-23_11h52.57.982,vts_reward_expectancy,2022.2.4,Win32,60.86797736,Chrome,1664,1110,,,,,0,630,,,,,,,,,,,,,,,,,D,139,circle,1,0,,3,,,,,,,,,,,,,,repeat,number,numRpt,j,vtsPrac,13,0,13,0,1,0.8353,,,,,,,,,,,,,,,,,,,,,,,
296041,2022-09-23_11h52.57.982,vts_reward_expectancy,2022.2.4,Win32,60.86797736,Chrome,1664,1110,,,,,0,630,,,,,,,,,,,,,,,,,U,174,circle,1,0,,3,,,,,,,,,,,,,,switch,letter,lettSwt,f,vtsPrac,14,0,14,0,1,0.7499,,,,,,,,,,,,,,,,,,,,,,,
296041,2022-09-23_11h52.57.982,vts_reward_expectancy,2022.2.4,Win32,60.86797736,Chrome,1664,1110,,,,,0,630,,,,,,,,,,,,,,,,,F,167,star,1,0,,3,,,,,,,,,,,,,,switch,number,numSwt,k,vtsPrac,15,0,15,0,1,0.852,,,,,,,,,,,,,,,,,,,,,,,
296041,2022-09-23_11h52.57.982,vts_reward_expectancy,2022.2.4,Win32,60.86797736,Chrome,1664,1110,,,,,,,,,,,,,,,,,,,,,,,,,,,,,,,,,,,,,,,,,,,,,,,,,,,,,,,,,,,,,,,,,,,,,,,,,,,,
296041,2022-09-23_11h52.57.982,vts_reward_expectancy,2022.2.4,Win32,60.86797736,Chrome,1664,1110,,,,,,,,,,,,,,,,,,,,,,,,,,,,,,,,,,,,,,,,,,,,,,,,,,,,,,,,,,,,,,,,,,,,,,,,,,,,
296041,2022-09-23_11h52.57.982,vts_reward_expectancy,2022.2.4,Win32,60.86797736,Chrome,1664,1110,,,,,0,630,,,,,,,,,,,,,,,,,W,174,hexagon,1,0,,,,,,,,,,,,,,,,switch,letter,lettSwt,f,noRew,,,,,,0.8976,0,0,0,0,0,1,,,,,,,,,,,,,,,,,
296041,2022-09-23_11h52.57.982,vts_reward_expectancy,2022.2.4,Win32,60.86797736,Chrome,1664,1110,,,,,0,630,,,,,,,,,,,,,,,,,B,181,star,1,0,,,,,,,,,,,,,,,,repeat,letter,lettRpt,d,noRew,,,,,,1.7191,0,1,0,1,0,1,,,,,,,,,,,,,,,,,
296041,2022-09-23_11h52.57.982,vts_reward_expectancy,2022.2.4,Win32,60.86797736,Chrome,1664,1110,,,,,0,630,,,,,,,,,,,,,,,,,S,139,hexagon,1,0,,,,,,,,,,,,,,,,repeat,letter,lettRpt,f,noRew,,,,,,0.8183,0,2,0,2,0,1,,,,,,,,,,,,,,,,,
296041,2022-09-23_11h52.57.982,vts_reward_expectancy,2022.2.4,Win32,60.86797736,Chrome,1664,1110,,,,,0,630,,,,,,,,,,,,,,,,,Y,132,star,1,0,,,,,,,,,,,,,,,,switch,number,numSwt,j,noRew,,,,,,0.6682,0,3,0,3,0,1,,,,,,,,,,,,,,,,,
296041,2022-09-23_11h52.57.982,vts_reward_expectancy,2022.2.4,Win32,60.86797736,Chrome,1664,1110,,,,,0,630,,,,,,,,,,,,,,,,,W,174,triangle,1,0,,,,,,,,,,,,,,,,repeat,number,numRpt,k,noRew,,,,,,0.6857,0,4,0,4,0,1,,,,,,,,,,,,,,,,,
296041,2022-09-23_11h52.57.982,vts_reward_expectancy,2022.2.4,Win32,60.86797736,Chrome,1664,1110,,,,,0,630,,,,,,,,,,,,,,,,,B,181,star,1,0,,,,,,,,,,,,,,,,repeat,number,numRpt,k,noRew,,,,,,0.7519,0,5,0,5,0,1,,,,,,,,,,,,,,,,,
296041,2022-09-23_11h52.57.982,vts_reward_expectancy,2022.2.4,Win32,60.86797736,Chrome,1664,1110,,,,,0,630,,,,,,,,,,,,,,,,,S,139,triangle,1,0,,,,,,,,,,,,,,,,switch,letter,lettSwt,f,noRew,,,,,,0.7199,0,6,0,6,0,1,,,,,,,,,,,,,,,,,
296041,2022-09-23_11h52.57.982,vts_reward_expectancy,2022.2.4,Win32,60.86797736,Chrome,1664,1110,,,,,0,630,,,,,,,,,,,,,,,,,Y,132,star,1,0,,,,,,,,,,,,,,,,repeat,letter,lettRpt,f,noRew,,,,,,0.5859,0,7,0,7,0,1,,,,,,,,,,,,,,,,,
296041,2022-09-23_11h52.57.982,vts_reward_expectancy,2022.2.4,Win32,60.86797736,Chrome,1664,1110,,,,,0,630,,,,,,,,,,,,,,,,,D,174,triangle,1,0,,,,,,,,,,,,,,,,switch,number,numSwt,k,noRew,,,,,,0.9678,0,8,0,8,0,1,,,,,,,,,,,,,,,,,
296041,2022-09-23_11h52.57.982,vts_reward_expectancy,2022.2.4,Win32,60.86797736,Chrome,1664,1110,,,,,0,630,,,,,,,,,,,,,,,,,Y,167,circle,1,0,,,,,,,,,,,,,,,,repeat,number,numRpt,k,noRew,,,,,,1.503,0,9,0,9,0,1,,,,,,,,,,,,,,,,,
296041,2022-09-23_11h52.57.982,vts_reward_expectancy,2022.2.4,Win32,60.86797736,Chrome,1664,1110,,,,,0,630,,,,,,,,,,,,,,,,,F,139,triangle,1,0,,,,,,,,,,,,,,,,switch,letter,lettSwt,d,noRew,,,,,,1.8682,0,10,0,10,0,1,,,,,,,,,,,,,,,,,
296041,2022-09-23_11h52.57.982,vts_reward_expectancy,2022.2.4,Win32,60.86797736,Chrome,1664,1110,,,,,0,630,,,,,,,,,,,,,,,,,U,181,star,1,0,,,,,,,,,,,,,,,,repeat,letter,lettRpt,f,noRew,,,,,,1.036,0,11,0,11,0,1,,,,,,,,,,,,,,,,,
296041,2022-09-23_11h52.57.982,vts_reward_expectancy,2022.2.4,Win32,60.86797736,Chrome,1664,1110,,,,,0,630,,,,,,,,,,,,,,,,,H,174,hexagon,1,0,,,,,,,,,,,,,,,,switch,number,numSwt,k,noRew,,,,,,0.6347,0,12,0,12,0,1,,,,,,,,,,,,,,,,,
296041,2022-09-23_11h52.57.982,vts_reward_expectancy,2022.2.4,Win32,60.86797736,Chrome,1664,1110,,,,,0,630,,,,,,,,,,,,,,,,,S,125,star,1,0,,,,,,,,,,,,,,,,repeat,number,numRpt,j,noRew,,,,,,0.7872,0,13,0,13,0,1,,,,,,,,,,,,,,,,,
296041,2022-09-23_11h52.57.982,vts_reward_expectancy,2022.2.4,Win32,60.86797736,Chrome,1664,1110,,,,,0,630,,,,,,,,,,,,,,,,,F,146,hexagon,1,0,,,,,,,,,,,,,,,,repeat,number,numRpt,j,noRew,,,,,,1.0028,0,14,0,14,0,1,,,,,,,,,,,,,,,,,
296041,2022-09-23_11h52.57.982,vts_reward_expectancy,2022.2.4,Win32,60.86797736,Chrome,1664,1110,,,,,0,630,,,,,,,,,,,,,,,,,Y,181,star,1,0,,,,,,,,,,,,,,,,switch,letter,lettSwt,f,noRew,,,,,,0.6341,0,15,0,15,0,1,,,,,,,,,,,,,,,,,
296041,2022-09-23_11h52.57.982,vts_reward_expectancy,2022.2.4,Win32,60.86797736,Chrome,1664,1110,,,,,0,630,,,,,,,,,,,,,,,,,D,160,hexagon,1,0,,,,,,,,,,,,,,,,repeat,letter,lettRpt,d,noRew,,,,,,0.6679,0,16,0,16,0,1,,,,,,,,,,,,,,,,,
296041,2022-09-23_11h52.57.982,vts_reward_expectancy,2022.2.4,Win32,60.86797736,Chrome,1664,1110,,,,,0,630,,,,,,,,,,,,,,,,,U,132,triangle,1,0,,,,,,,,,,,,,,,,repeat,letter,lettRpt,f,noRew,,,,,,0.7188,0,17,0,17,0,1,,,,,,,,,,,,,,,,,
296041,2022-09-23_11h52.57.982,vts_reward_expectancy,2022.2.4,Win32,60.86797736,Chrome,1664,1110,,,,,0,630,,,,,,,,,,,,,,,,,W,167,circle,1,0,,,,,,,,,,,,,,,,repeat,letter,lettRpt,f,noRew,,,,,,0.651,0,18,0,18,0,1,,,,,,,,,,,,,,,,,
296041,2022-09-23_11h52.57.982,vts_reward_expectancy,2022.2.4,Win32,60.86797736,Chrome,1664,1110,,,,,0,630,,,,,,,,,,,,,,,,,S,139,triangle,0,0,,,,,,,,,,,,,,,,switch,number,NA,k,noRew,,,,,,0.7527,0,19,0,19,0,1,,,,,,,,,,,,,,,,,
296041,2022-09-23_11h52.57.982,vts_reward_expectancy,2022.2.4,Win32,60.86797736,Chrome,1664,1110,,,,,0,630,,,,,,,,,,,,,,,,,B,160,circle,1,1,,,,,,,,,,,,,,,,repeat,number,numRpt,k,noRew,,,,,,1.785,0,20,0,20,0,1,,,,,,,,,,,,,,,,,
296041,2022-09-23_11h52.57.982,vts_reward_expectancy,2022.2.4,Win32,60.86797736,Chrome,1664,1110,,,,,0,630,,,,,,,,,,,,,,,,,W,181,hexagon,1,0,,,,,,,,,,,,,,,,repeat,number,numRpt,k,noRew,,,,,,0.5512,0,21,0,21,0,1,,,,,,,,,,,,,,,,,
296041,2022-09-23_11h52.57.982,vts_reward_expectancy,2022.2.4,Win32,60.86797736,Chrome,1664,1110,,,,,0,630,,,,,,,,,,,,,,,,,S,132,hexagon,1,0,,,,,,,,,,,,,,,,repeat,number,numRpt,j,noRew,,,,,,0.8525,0,22,0,22,0,1,,,,,,,,,,,,,,,,,
296041,2022-09-23_11h52.57.982,vts_reward_expectancy,2022.2.4,Win32,60.86797736,Chrome,1664,1110,,,,,0,630,,,,,,,,,,,,,,,,,H,146,star,1,0,,,,,,,,,,,,,,,,repeat,number,numRpt,j,noRew,,,,,,0.8696,0,23,0,23,0,1,,,,,,,,,,,,,,,,,
296041,2022-09-23_11h52.57.982,vts_reward_expectancy,2022.2.4,Win32,60.86797736,Chrome,1664,1110,,,,,0,630,,,,,,,,,,,,,,,,,S,181,star,1,0,,,,,,,,,,,,,,,,repeat,number,numRpt,k,noRew,,,,,,0.5828,0,24,0,24,0,1,,,,,,,,,,,,,,,,,
296041,2022-09-23_11h52.57.982,vts_reward_expectancy,2022.2.4,Win32,60.86797736,Chrome,1664,1110,,,,,0,630,,,,,,,,,,,,,,,,,B,139,hexagon,1,0,,,,,,,,,,,,,,,,repeat,number,numRpt,j,noRew,,,,,,0.6294,0,25,0,25,0,1,,,,,,,,,,,,,,,,,
296041,2022-09-23_11h52.57.982,vts_reward_expectancy,2022.2.4,Win32,60.86797736,Chrome,1664,1110,,,,,0,630,,,,,,,,,,,,,,,,,F,132,hexagon,1,0,,,,,,,,,,,,,,,,switch,letter,lettSwt,d,noRew,,,,,,0.7181,0,26,0,26,0,1,,,,,,,,,,,,,,,,,
296041,2022-09-23_11h52.57.982,vts_reward_expectancy,2022.2.4,Win32,60.86797736,Chrome,1664,1110,,,,,0,630,,,,,,,,,,,,,,,,,D,160,star,1,0,,,,,,,,,,,,,,,,repeat,letter,lettRpt,d,noRew,,,,,,0.6854,0,27,0,27,0,1,,,,,,,,,,,,,,,,,
296041,2022-09-23_11h52.57.982,vts_reward_expectancy,2022.2.4,Win32,60.86797736,Chrome,1664,1110,,,,,0,630,,,,,,,,,,,,,,,,,S,132,circle,1,0,,,,,,,,,,,,,,,,repeat,letter,lettRpt,f,noRew,,,,,,0.6185,0,28,0,28,0,1,,,,,,,,,,,,,,,,,
296041,2022-09-23_11h52.57.982,vts_reward_expectancy,2022.2.4,Win32,60.86797736,Chrome,1664,1110,,,,,0,630,,,,,,,,,,,,,,,,,F,139,hexagon,1,0,,,,,,,,,,,,,,,,repeat,letter,lettRpt,d,noRew,,,,,,0.6014,0,29,0,29,0,1,,,,,,,,,,,,,,,,,
296041,2022-09-23_11h52.57.982,vts_reward_expectancy,2022.2.4,Win32,60.86797736,Chrome,1664,1110,,,,,0,630,,,,,,,,,,,,,,,,,D,174,hexagon,1,0,,,,,,,,,,,,,,,,repeat,letter,lettRpt,d,noRew,,,,,,0.7423,0,30,0,30,0,1,,,,,,,,,,,,,,,,,
296041,2022-09-23_11h52.57.982,vts_reward_expectancy,2022.2.4,Win32,60.86797736,Chrome,1664,1110,,,,,0,630,,,,,,,,,,,,,,,,,W,160,circle,1,0,,,,,,,,,,,,,,,,repeat,letter,lettRpt,f,noRew,,,,,,0.6859,0,31,0,31,0,1,,,,,,,,,,,,,,,,,
296041,2022-09-23_11h52.57.982,vts_reward_expectancy,2022.2.4,Win32,60.86797736,Chrome,1664,1110,,,,,0,630,,,,,,,,,,,,,,,,,F,174,circle,1,0,,,,,,,,,,,,,,,,switch,number,numSwt,k,noRew,,,,,,0.6359,0,32,0,32,0,1,,,,,,,,,,,,,,,,,
296041,2022-09-23_11h52.57.982,vts_reward_expectancy,2022.2.4,Win32,60.86797736,Chrome,1664,1110,,,,,0,630,,,,,,,,,,,,,,,,,S,146,triangle,1,0,,,,,,,,,,,,,,,,repeat,number,numRpt,j,noRew,,,,,,0.5516,0,33,0,33,0,1,,,,,,,,,,,,,,,,,
296041,2022-09-23_11h52.57.982,vts_reward_expectancy,2022.2.4,Win32,60.86797736,Chrome,1664,1110,,,,,0,630,,,,,,,,,,,,,,,,,D,125,triangle,1,0,,,,,,,,,,,,,,,,repeat,number,numRpt,j,noRew,,,,,,0.8027,0,34,0,34,0,1,,,,,,,,,,,,,,,,,
296041,2022-09-23_11h52.57.982,vts_reward_expectancy,2022.2.4,Win32,60.86797736,Chrome,1664,1110,,,,,0,630,,,,,,,,,,,,,,,,,Y,139,circle,1,0,,,,,,,,,,,,,,,,repeat,number,numRpt,j,noRew,,,,,,0.8364,0,35,0,35,0,1,,,,,,,,,,,,,,,,,
296041,2022-09-23_11h52.57.982,vts_reward_expectancy,2022.2.4,Win32,60.86797736,Chrome,1664,1110,,,,,0,630,,,,,,,,,,,,,,,,,Y,174,hexagon,1,0,,,,,,,,,,,,,,,,switch,letter,lettSwt,f,noRew,,,,,,0.6354,0,36,0,36,0,1,,,,,,,,,,,,,,,,,
296041,2022-09-23_11h52.57.982,vts_reward_expectancy,2022.2.4,Win32,60.86797736,Chrome,1664,1110,,,,,0,630,,,,,,,,,,,,,,,,,B,167,circle,1,0,,,,,,,,,,,,,,,,repeat,letter,lettRpt,d,noRew,,,,,,0.6024,0,37,0,37,0,1,,,,,,,,,,,,,,,,,
296041,2022-09-23_11h52.57.982,vts_reward_expectancy,2022.2.4,Win32,60.86797736,Chrome,1664,1110,,,,,0,630,,,,,,,,,,,,,,,,,W,146,circle,1,0,,,,,,,,,,,,,,,,switch,number,numSwt,j,noRew,,,,,,0.7521,0,38,0,38,0,1,,,,,,,,,,,,,,,,,
296041,2022-09-23_11h52.57.982,vts_reward_expectancy,2022.2.4,Win32,60.86797736,Chrome,1664,1110,,,,,0,630,,,,,,,,,,,,,,,,,S,160,star,1,0,,,,,,,,,,,,,,,,switch,letter,lettSwt,f,noRew,,,,,,1.1525,0,39,0,39,0,1,,,,,,,,,,,,,,,,,
296041,2022-09-23_11h52.57.982,vts_reward_expectancy,2022.2.4,Win32,60.86797736,Chrome,1664,1110,,,,,0,630,,,,,,,,,,,,,,,,,B,125,star,1,0,,,,,,,,,,,,,,,,repeat,letter,lettRpt,d,noRew,,,,,,0.719,0,40,0,40,0,1,,,,,,,,,,,,,,,,,
296041,2022-09-23_11h52.57.982,vts_reward_expectancy,2022.2.4,Win32,60.86797736,Chrome,1664,1110,,,,,0,630,,,,,,,,,,,,,,,,,S,139,hexagon,1,0,,,,,,,,,,,,,,,,repeat,letter,lettRpt,f,noRew,,,,,,1.0841,0,41,0,41,0,1,,,,,,,,,,,,,,,,,
296041,2022-09-23_11h52.57.982,vts_reward_expectancy,2022.2.4,Win32,60.86797736,Chrome,1664,1110,,,,,0,630,,,,,,,,,,,,,,,,,H,132,star,1,0,,,,,,,,,,,,,,,,repeat,letter,lettRpt,d,noRew,,,,,,0.9012,0,42,0,42,0,1,,,,,,,,,,,,,,,,,
296041,2022-09-23_11h52.57.982,vts_reward_expectancy,2022.2.4,Win32,60.86797736,Chrome,1664,1110,,,,,0,630,,,,,,,,,,,,,,,,,W,174,hexagon,1,0,,,,,,,,,,,,,,,,switch,number,numSwt,k,noRew,,,,,,0.7846,0,43,0,43,0,1,,,,,,,,,,,,,,,,,
296041,2022-09-23_11h52.57.982,vts_reward_expectancy,2022.2.4,Win32,60.86797736,Chrome,1664,1110,,,,,0,630,,,,,,,,,,,,,,,,,B,125,hexagon,1,0,,,,,,,,,,,,,,,,repeat,number,numRpt,j,noRew,,,,,,0.7689,0,44,0,44,0,1,,,,,,,,,,,,,,,,,
296041,2022-09-23_11h52.57.982,vts_reward_expectancy,2022.2.4,Win32,60.86797736,Chrome,1664,1110,,,,,0,630,,,,,,,,,,,,,,,,,W,181,triangle,1,0,,,,,,,,,,,,,,,,repeat,number,numRpt,k,noRew,,,,,,2.9527,0,45,0,45,0,1,,,,,,,,,,,,,,,,,
296041,2022-09-23_11h52.57.982,vts_reward_expectancy,2022.2.4,Win32,60.86797736,Chrome,1664,1110,,,,,0,630,,,,,,,,,,,,,,,,,H,146,circle,1,0,,,,,,,,,,,,,,,,switch,letter,lettSwt,d,noRew,,,,,,1.136,0,46,0,46,0,1,,,,,,,,,,,,,,,,,
296041,2022-09-23_11h52.57.982,vts_reward_expectancy,2022.2.4,Win32,60.86797736,Chrome,1664,1110,,,,,0,630,,,,,,,,,,,,,,,,,Y,174,hexagon,1,0,,,,,,,,,,,,,,,,switch,number,numSwt,k,noRew,,,,,,0.8689,0,47,0,47,0,1,,,,,,,,,,,,,,,,,
296041,2022-09-23_11h52.57.982,vts_reward_expectancy,2022.2.4,Win32,60.86797736,Chrome,1664,1110,,,,,0,630,,,,,,,,,,,,,,,,,S,139,triangle,1,0,,,,,,,,,,,,,,,,repeat,number,numRpt,j,noRew,,,,,,1.0332,0,48,0,48,0,1,,,,,,,,,,,,,,,,,
296041,2022-09-23_11h52.57.982,vts_reward_expectancy,2022.2.4,Win32,60.86797736,Chrome,1664,1110,,,,,0,630,,,,,,,,,,,,,,,,,F,181,star,1,0,,,,,,,,,,,,,,,,repeat,number,numRpt,k,noRew,,,,,,0.9712,0,49,0,49,0,1,,,,,,,,,,,,,,,,,
296041,2022-09-23_11h52.57.982,vts_reward_expectancy,2022.2.4,Win32,60.86797736,Chrome,1664,1110,,,,,0,630,,,,,,,,,,,,,,,,,U,132,star,1,0,,,,,,,,,,,,,,,,switch,letter,lettSwt,f,noRew,,,,,,1.7238,0,50,0,50,0,1,,,,,,,,,,,,,,,,,
296041,2022-09-23_11h52.57.982,vts_reward_expectancy,2022.2.4,Win32,60.86797736,Chrome,1664,1110,,,,,0,630,,,,,,,,,,,,,,,,,Y,160,triangle,1,0,,,,,,,,,,,,,,,,repeat,letter,lettRpt,f,noRew,,,,,,0.9898,0,51,0,51,0,1,,,,,,,,,,,,,,,,,
296041,2022-09-23_11h52.57.982,vts_reward_expectancy,2022.2.4,Win32,60.86797736,Chrome,1664,1110,,,,,0,630,,,,,,,,,,,,,,,,,D,160,circle,1,0,,,,,,,,,,,,,,,,repeat,letter,lettRpt,d,noRew,,,,,,0.7024,0,52,0,52,0,1,,,,,,,,,,,,,,,,,
296041,2022-09-23_11h52.57.982,vts_reward_expectancy,2022.2.4,Win32,60.86797736,Chrome,1664,1110,,,,,0,630,,,,,,,,,,,,,,,,,B,125,triangle,1,0,,,,,,,,,,,,,,,,switch,number,numSwt,j,noRew,,,,,,0.6691,0,53,0,53,0,1,,,,,,,,,,,,,,,,,
296041,2022-09-23_11h52.57.982,vts_reward_expectancy,2022.2.4,Win32,60.86797736,Chrome,1664,1110,,,,,0,630,,,,,,,,,,,,,,,,,F,167,star,1,0,,,,,,,,,,,,,,,,switch,letter,lettSwt,d,noRew,,,,,,0.7846,0,54,0,54,0,1,,,,,,,,,,,,,,,,,
296041,2022-09-23_11h52.57.982,vts_reward_expectancy,2022.2.4,Win32,60.86797736,Chrome,1664,1110,,,,,0,630,,,,,,,,,,,,,,,,,Y,181,triangle,1,0,,,,,,,,,,,,,,,,repeat,letter,lettRpt,f,noRew,,,,,,0.6345,0,55,0,55,0,1,,,,,,,,,,,,,,,,,
296041,2022-09-23_11h52.57.982,vts_reward_expectancy,2022.2.4,Win32,60.86797736,Chrome,1664,1110,,,,,0,630,,,,,,,,,,,,,,,,,F,132,star,1,0,,,,,,,,,,,,,,,,switch,number,numSwt,j,noRew,,,,,,1.37,0,56,0,56,0,1,,,,,,,,,,,,,,,,,
296041,2022-09-23_11h52.57.982,vts_reward_expectancy,2022.2.4,Win32,60.86797736,Chrome,1664,1110,,,,,0,630,,,,,,,,,,,,,,,,,D,174,hexagon,1,0,,,,,,,,,,,,,,,,switch,letter,lettSwt,d,noRew,,,,,,1.0525,0,57,0,57,0,1,,,,,,,,,,,,,,,,,
296041,2022-09-23_11h52.57.982,vts_reward_expectancy,2022.2.4,Win32,60.86797736,Chrome,1664,1110,,,,,0,630,,,,,,,,,,,,,,,,,U,160,circle,1,0,,,,,,,,,,,,,,,,switch,number,numSwt,k,noRew,,,,,,0.6669,0,58,0,58,0,1,,,,,,,,,,,,,,,,,
296041,2022-09-23_11h52.57.982,vts_reward_expectancy,2022.2.4,Win32,60.86797736,Chrome,1664,1110,,,,,0,630,,,,,,,,,,,,,,,,,Y,125,hexagon,0,0,,,,,,,,,,,,,,,,repeat,number,NA,k,noRew,,,,,,0.9511,0,59,0,59,0,1,,,,,,,,,,,,,,,,,
296041,2022-09-23_11h52.57.982,vts_reward_expectancy,2022.2.4,Win32,60.86797736,Chrome,1664,1110,,,,,0,630,,,,,,,,,,,,,,,,,W,181,circle,1,1,,,,,,,,,,,,,,,,switch,letter,lettSwt,f,noRew,,,,,,0.7694,0,60,0,60,0,1,,,,,,,,,,,,,,,,,
296041,2022-09-23_11h52.57.982,vts_reward_expectancy,2022.2.4,Win32,60.86797736,Chrome,1664,1110,,,,,0,630,,,,,,,,,,,,,,,,,U,139,hexagon,1,0,,,,,,,,,,,,,,,,repeat,letter,lettRpt,f,noRew,,,,,,0.6852,0,61,0,61,0,1,,,,,,,,,,,,,,,,,
296041,2022-09-23_11h52.57.982,vts_reward_expectancy,2022.2.4,Win32,60.86797736,Chrome,1664,1110,,,,,0,630,,,,,,,,,,,,,,,,,S,160,triangle,1,0,,,,,,,,,,,,,,,,repeat,letter,lettRpt,f,noRew,,,,,,0.7177,0,62,0,62,0,1,,,,,,,,,,,,,,,,,
296041,2022-09-23_11h52.57.982,vts_reward_expectancy,2022.2.4,Win32,60.86797736,Chrome,1664,1110,,,,,0,630,,,,,,,,,,,,,,,,,B,132,star,1,0,,,,,,,,,,,,,,,,repeat,letter,lettRpt,d,noRew,,,,,,0.7523,0,63,0,63,0,1,,,,,,,,,,,,,,,,,
296041,2022-09-23_11h52.57.982,vts_reward_expectancy,2022.2.4,Win32,60.86797736,Chrome,1664,1110,,,,,,,,,,,,,,,,,,,,,,,,,,,,,,,,,,,,,,,,,,,,,,,,,,,,,,,,,,,,,,,,,,,,,,,,,,,,
296041,2022-09-23_11h52.57.982,vts_reward_expectancy,2022.2.4,Win32,60.86797736,Chrome,1664,1110,,,,,10,640,,,,,,,,,,,,,,,,,S,139,star,1,0,,,,,,,,,,,,,,,,repeat,letter,lettRpt,f,Lo,,,,,,1.1662,0,,,,,,space,6.108,low,0,0,0,0,1,,,,,,,,,
296041,2022-09-23_11h52.57.982,vts_reward_expectancy,2022.2.4,Win32,60.86797736,Chrome,1664,1110,,,,,0,640,,,,,,,,,,,,,,,,,D,181,circle,1,0,,,,,,,,,,,,,,,,switch,number,numSwt,k,Hi,,,,,,0.8691,0,,,,,,,,low,1,0,1,0,1,,,,,,,,,
296041,2022-09-23_11h52.57.982,vts_reward_expectancy,2022.2.4,Win32,60.86797736,Chrome,1664,1110,,,,,10,650,,,,,,,,,,,,,,,,,B,132,star,1,0,,,,,,,,,,,,,,,,switch,letter,lettSwt,d,Lo,,,,,,0.5344,0,,,,,,,,low,2,0,2,0,1,,,,,,,,,
296041,2022-09-23_11h52.57.982,vts_reward_expectancy,2022.2.4,Win32,60.86797736,Chrome,1664,1110,,,,,10,660,,,,,,,,,,,,,,,,,F,146,circle,1,0,,,,,,,,,,,,,,,,switch,number,numSwt,j,Hi,,,,,,0.6528,0,,,,,,,,low,3,0,3,0,1,,,,,,,,,
296041,2022-09-23_11h52.57.982,vts_reward_expectancy,2022.2.4,Win32,60.86797736,Chrome,1664,1110,,,,,1,661,,,,,,,,,,,,,,,,,H,167,star,1,0,,,,,,,,,,,,,,,,repeat,number,numRpt,k,Lo,,,,,,0.5671,0,,,,,,,,low,4,0,4,0,1,,,,,,,,,
296041,2022-09-23_11h52.57.982,vts_reward_expectancy,2022.2.4,Win32,60.86797736,Chrome,1664,1110,,,,,10,671,,,,,,,,,,,,,,,,,U,125,circle,1,0,,,,,,,,,,,,,,,,switch,letter,lettSwt,f,Hi,,,,,,0.4852,0,,,,,,,,low,5,0,5,0,1,,,,,,,,,
296041,2022-09-23_11h52.57.982,vts_reward_expectancy,2022.2.4,Win32,60.86797736,Chrome,1664,1110,,,,,1,672,,,,,,,,,,,,,,,,,Y,160,star,1,0,,,,,,,,,,,,,,,,repeat,letter,lettRpt,f,Lo,,,,,,1.2862,0,,,,,,,,low,6,0,6,0,1,,,,,,,,,
296041,2022-09-23_11h52.57.982,vts_reward_expectancy,2022.2.4,Win32,60.86797736,Chrome,1664,1110,,,,,1,673,,,,,,,,,,,,,,,,,W,174,circle,1,0,,,,,,,,,,,,,,,,switch,number,numSwt,k,Hi,,,,,,0.6338,0,,,,,,,,low,7,0,7,0,1,,,,,,,,,
296041,2022-09-23_11h52.57.982,vts_reward_expectancy,2022.2.4,Win32,60.86797736,Chrome,1664,1110,,,,,0,673,,,,,,,,,,,,,,,,,S,139,circle,1,0,,,,,,,,,,,,,,,,switch,letter,lettSwt,f,Hi,,,,,,0.9509,0,,,,,,,,low,8,0,8,0,1,,,,,,,,,
296041,2022-09-23_11h52.57.982,vts_reward_expectancy,2022.2.4,Win32,60.86797736,Chrome,1664,1110,,,,,1,674,,,,,,,,,,,,,,,,,D,181,star,1,0,,,,,,,,,,,,,,,,repeat,letter,lettRpt,d,Lo,,,,,,0.7511,0,,,,,,,,low,9,0,9,0,1,,,,,,,,,
296041,2022-09-23_11h52.57.982,vts_reward_expectancy,2022.2.4,Win32,60.86797736,Chrome,1664,1110,,,,,0,674,,,,,,,,,,,,,,,,,B,132,circle,1,0,,,,,,,,,,,,,,,,repeat,letter,lettRpt,d,Hi,,,,,,0.7191,0,,,,,,,,low,10,0,10,0,1,,,,,,,,,
296041,2022-09-23_11h52.57.982,vts_reward_expectancy,2022.2.4,Win32,60.86797736,Chrome,1664,1110,,,,,1,675,,,,,,,,,,,,,,,,,F,146,star,1,0,,,,,,,,,,,,,,,,switch,number,numSwt,j,Lo,,,,,,0.6026,0,,,,,,,,low,11,0,11,0,1,,,,,,,,,
296041,2022-09-23_11h52.57.982,vts_reward_expectancy,2022.2.4,Win32,60.86797736,Chrome,1664,1110,,,,,10,685,,,,,,,,,,,,,,,,,H,167,circle,1,0,,,,,,,,,,,,,,,,switch,letter,lettSwt,d,Hi,,,,,,0.5184,0,,,,,,,,low,12,0,12,0,1,,,,,,,,,
296041,2022-09-23_11h52.57.982,vts_reward_expectancy,2022.2.4,Win32,60.86797736,Chrome,1664,1110,,,,,0,685,,,,,,,,,,,,,,,,,U,125,star,0,0,,,,,,,,,,,,,,,,repeat,letter,NA,d,Hi,,,,,,0.5173,0,,,,,,,,low,13,0,13,0,1,,,,,,,,,
296041,2022-09-23_11h52.57.982,vts_reward_expectancy,2022.2.4,Win32,60.86797736,Chrome,1664,1110,,,,,10,695,,,,,,,,,,,,,,,,,Y,160,circle,1,1,,,,,,,,,,,,,,,,repeat,letter,lettRpt,f,Hi,,,,,,0.551,0,,,,,,,,low,14,0,14,0,1,,,,,,,,,
296041,2022-09-23_11h52.57.982,vts_reward_expectancy,2022.2.4,Win32,60.86797736,Chrome,1664,1110,,,,,10,705,,,,,,,,,,,,,,,,,W,174,star,1,0,,,,,,,,,,,,,,,,switch,number,numSwt,k,Lo,,,,,,0.6166,0,,,,,,,,low,15,0,15,0,1,,,,,,,,,
296041,2022-09-23_11h52.57.982,vts_reward_expectancy,2022.2.4,Win32,60.86797736,Chrome,1664,1110,,,,,1,706,,,,,,,,,,,,,,,,,F,167,star,1,0,,,,,,,,,,,,,,,,repeat,number,numRpt,k,Lo,,,,,,0.6706,0,,,,,,,,low,16,0,16,0,1,,,,,,,,,
296041,2022-09-23_11h52.57.982,vts_reward_expectancy,2022.2.4,Win32,60.86797736,Chrome,1664,1110,,,,,1,707,,,,,,,,,,,,,,,,,U,132,circle,1,0,,,,,,,,,,,,,,,,switch,letter,lettSwt,f,Hi,,,,,,0.5734,0,,,,,,,,low,17,0,17,0,1,,,,,,,,,
296041,2022-09-23_11h52.57.982,vts_reward_expectancy,2022.2.4,Win32,60.86797736,Chrome,1664,1110,,,,,10,717,,,,,,,,,,,,,,,,,H,174,star,1,0,,,,,,,,,,,,,,,,repeat,letter,lettRpt,d,Lo,,,,,,0.6678,0,,,,,,,,low,18,0,18,0,1,,,,,,,,,
296041,2022-09-23_11h52.57.982,vts_reward_expectancy,2022.2.4,Win32,60.86797736,Chrome,1664,1110,,,,,0,717,,,,,,,,,,,,,,,,,W,125,circle,1,0,,,,,,,,,,,,,,,,repeat,letter,lettRpt,f,Hi,,,,,,1.0692,0,,,,,,,,low,19,0,19,0,1,,,,,,,,,
296041,2022-09-23_11h52.57.982,vts_reward_expectancy,2022.2.4,Win32,60.86797736,Chrome,1664,1110,,,,,10,727,,,,,,,,,,,,,,,,,D,160,circle,1,0,,,,,,,,,,,,,,,,repeat,letter,lettRpt,d,Hi,,,,,,0.5018,0,,,,,,,,low,20,0,20,0,1,,,,,,,,,
296041,2022-09-23_11h52.57.982,vts_reward_expectancy,2022.2.4,Win32,60.86797736,Chrome,1664,1110,,,,,1,728,,,,,,,,,,,,,,,,,B,139,star,1,0,,,,,,,,,,,,,,,,repeat,letter,lettRpt,d,Lo,,,,,,0.6016,0,,,,,,,,low,21,0,21,0,1,,,,,,,,,
296041,2022-09-23_11h52.57.982,vts_reward_expectancy,2022.2.4,Win32,60.86797736,Chrome,1664,1110,,,,,1,729,,,,,,,,,,,,,,,,,Y,146,circle,1,0,,,,,,,,,,,,,,,,switch,number,numSwt,j,Hi,,,,,,0.5348,0,,,,,,,,low,22,0,22,0,1,,,,,,,,,
296041,2022-09-23_11h52.57.982,vts_reward_expectancy,2022.2.4,Win32,60.86797736,Chrome,1664,1110,,,,,1,730,,,,,,,,,,,,,,,,,S,181,star,1,0,,,,,,,,,,,,,,,,repeat,number,numRpt,k,Lo,,,,,,0.7586,0,,,,,,,,low,23,0,23,0,1,,,,,,,,,
296041,2022-09-23_11h52.57.982,vts_reward_expectancy,2022.2.4,Win32,60.86797736,Chrome,1664,1110,,,,,1,731,,,,,,,,,,,,,,,,,W,174,star,1,0,,,,,,,,,,,,,,,,repeat,number,numRpt,k,Lo,,,,,,0.5355,0,,,,,,,,low,24,0,24,0,1,,,,,,,,,
296041,2022-09-23_11h52.57.982,vts_reward_expectancy,2022.2.4,Win32,60.86797736,Chrome,1664,1110,,,,,0,731,,,,,,,,,,,,,,,,,F,167,circle,1,0,,,,,,,,,,,,,,,,switch,letter,lettSwt,d,Hi,,,,,,0.919,0,,,,,,,,low,25,0,25,0,1,,,,,,,,,
296041,2022-09-23_11h52.57.982,vts_reward_expectancy,2022.2.4,Win32,60.86797736,Chrome,1664,1110,,,,,1,732,,,,,,,,,,,,,,,,,D,125,star,1,0,,,,,,,,,,,,,,,,repeat,letter,lettRpt,d,Lo,,,,,,0.5515,0,,,,,,,,low,26,0,26,0,1,,,,,,,,,
296041,2022-09-23_11h52.57.982,vts_reward_expectancy,2022.2.4,Win32,60.86797736,Chrome,1664,1110,,,,,0,732,,,,,,,,,,,,,,,,,Y,181,circle,1,0,,,,,,,,,,,,,,,,repeat,letter,lettRpt,f,Hi,,,,,,0.7684,0,,,,,,,,low,27,0,27,0,1,,,,,,,,,
296041,2022-09-23_11h52.57.982,vts_reward_expectancy,2022.2.4,Win32,60.86797736,Chrome,1664,1110,,,,,1,733,,,,,,,,,,,,,,,,,B,139,star,1,0,,,,,,,,,,,,,,,,repeat,letter,lettRpt,d,Lo,,,,,,0.5973,0,,,,,,,,low,28,0,28,0,1,,,,,,,,,
296041,2022-09-23_11h52.57.982,vts_reward_expectancy,2022.2.4,Win32,60.86797736,Chrome,1664,1110,,,,,0,733,,,,,,,,,,,,,,,,,U,132,circle,1,0,,,,,,,,,,,,,,,,repeat,letter,lettRpt,f,Hi,,,,,,0.852,0,,,,,,,,low,29,0,29,0,1,,,,,,,,,
296041,2022-09-23_11h52.57.982,vts_reward_expectancy,2022.2.4,Win32,60.86797736,Chrome,1664,1110,,,,,0,733,,,,,,,,,,,,,,,,,S,160,star,0,0,,,,,,,,,,,,,,,,repeat,letter,NA,d,Hi,,,,,,0.5858,0,,,,,,,,low,30,0,30,0,1,,,,,,,,,
296041,2022-09-23_11h52.57.982,vts_reward_expectancy,2022.2.4,Win32,60.86797736,Chrome,1664,1110,,,,,0,733,,,,,,,,,,,,,,,,,H,146,circle,0,1,,,,,,,,,,,,,,,,repeat,letter,NA,f,Hi,,,,,,0.6354,0,,,,,,,,low,31,0,31,0,1,,,,,,,,,
296041,2022-09-23_11h52.57.982,vts_reward_expectancy,2022.2.4,Win32,60.86797736,Chrome,1664,1110,,,,,0,733,,,,,,,,,,,,,,,,,H,167,circle,1,1,,,,,,,,,,,,,,,,repeat,letter,lettRpt,d,Hi,,,,,,0.8356,1,,,,,,space,13.1493,low,0,0,0,0,1,,,,,,,,,
296041,2022-09-23_11h52.57.982,vts_reward_expectancy,2022.2.4,Win32,60.86797736,Chrome,1664,1110,,,,,0,733,,,,,,,,,,,,,,,,,F,125,star,0,0,,,,,,,,,,,,,,,,repeat,letter,NA,f,Hi,,,,,,0.5525,1,,,,,,,,low,1,0,1,0,1,,,,,,,,,
296041,2022-09-23_11h52.57.982,vts_reward_expectancy,2022.2.4,Win32,60.86797736,Chrome,1664,1110,,,,,10,743,,,,,,,,,,,,,,,,,B,146,circle,1,1,,,,,,,,,,,,,,,,repeat,letter,lettRpt,d,Hi,,,,,,0.584,1,,,,,,,,low,2,0,2,0,1,,,,,,,,,
296041,2022-09-23_11h52.57.982,vts_reward_expectancy,2022.2.4,Win32,60.86797736,Chrome,1664,1110,,,,,10,753,,,,,,,,,,,,,,,,,U,139,star,1,0,,,,,,,,,,,,,,,,repeat,letter,lettRpt,f,Lo,,,,,,0.5369,1,,,,,,,,low,3,0,3,0,1,,,,,,,,,
296041,2022-09-23_11h52.57.982,vts_reward_expectancy,2022.2.4,Win32,60.86797736,Chrome,1664,1110,,,,,10,763,,,,,,,,,,,,,,,,,D,160,circle,1,0,,,,,,,,,,,,,,,,repeat,letter,lettRpt,d,Hi,,,,,,0.5013,1,,,,,,,,low,4,0,4,0,1,,,,,,,,,
296041,2022-09-23_11h52.57.982,vts_reward_expectancy,2022.2.4,Win32,60.86797736,Chrome,1664,1110,,,,,10,773,,,,,,,,,,,,,,,,,S,174,star,1,0,,,,,,,,,,,,,,,,repeat,letter,lettRpt,f,Lo,,,,,,0.5358,1,,,,,,,,low,5,0,5,0,1,,,,,,,,,
296041,2022-09-23_11h52.57.982,vts_reward_expectancy,2022.2.4,Win32,60.86797736,Chrome,1664,1110,,,,,10,783,,,,,,,,,,,,,,,,,W,181,circle,1,0,,,,,,,,,,,,,,,,repeat,letter,lettRpt,f,Hi,,,,,,0.5644,1,,,,,,,,low,6,0,6,0,1,,,,,,,,,
296041,2022-09-23_11h52.57.982,vts_reward_expectancy,2022.2.4,Win32,60.86797736,Chrome,1664,1110,,,,,10,793,,,,,,,,,,,,,,,,,Y,132,star,1,0,,,,,,,,,,,,,,,,repeat,letter,lettRpt,f,Lo,,,,,,0.5516,1,,,,,,,,low,7,0,7,0,1,,,,,,,,,
296041,2022-09-23_11h52.57.982,vts_reward_expectancy,2022.2.4,Win32,60.86797736,Chrome,1664,1110,,,,,10,803,,,,,,,,,,,,,,,,,H,167,star,1,0,,,,,,,,,,,,,,,,repeat,letter,lettRpt,d,Lo,,,,,,0.552,1,,,,,,,,low,8,0,8,0,1,,,,,,,,,
296041,2022-09-23_11h52.57.982,vts_reward_expectancy,2022.2.4,Win32,60.86797736,Chrome,1664,1110,,,,,0,803,,,,,,,,,,,,,,,,,F,125,circle,1,0,,,,,,,,,,,,,,,,repeat,letter,lettRpt,d,Hi,,,,,,0.7177,1,,,,,,,,low,9,0,9,0,1,,,,,,,,,
296041,2022-09-23_11h52.57.982,vts_reward_expectancy,2022.2.4,Win32,60.86797736,Chrome,1664,1110,,,,,10,813,,,,,,,,,,,,,,,,,B,146,circle,1,0,,,,,,,,,,,,,,,,repeat,letter,lettRpt,d,Hi,,,,,,0.4672,1,,,,,,,,low,10,0,10,0,1,,,,,,,,,
296041,2022-09-23_11h52.57.982,vts_reward_expectancy,2022.2.4,Win32,60.86797736,Chrome,1664,1110,,,,,1,814,,,,,,,,,,,,,,,,,U,139,star,1,0,,,,,,,,,,,,,,,,repeat,letter,lettRpt,f,Lo,,,,,,0.5758,1,,,,,,,,low,11,0,11,0,1,,,,,,,,,
296041,2022-09-23_11h52.57.982,vts_reward_expectancy,2022.2.4,Win32,60.86797736,Chrome,1664,1110,,,,,1,815,,,,,,,,,,,,,,,,,D,160,star,1,0,,,,,,,,,,,,,,,,repeat,letter,lettRpt,d,Lo,,,,,,0.5029,1,,,,,,,,low,12,0,12,0,1,,,,,,,,,
296041,2022-09-23_11h52.57.982,vts_reward_expectancy,2022.2.4,Win32,60.86797736,Chrome,1664,1110,,,,,10,825,,,,,,,,,,,,,,,,,S,174,circle,1,0,,,,,,,,,,,,,,,,repeat,letter,lettRpt,f,Hi,,,,,,0.5513,1,,,,,,,,low,13,0,13,0,1,,,,,,,,,
296041,2022-09-23_11h52.57.982,vts_reward_expectancy,2022.2.4,Win32,60.86797736,Chrome,1664,1110,,,,,0,825,,,,,,,,,,,,,,,,,W,181,circle,1,0,,,,,,,,,,,,,,,,repeat,letter,lettRpt,f,Hi,,,,,,0.7521,1,,,,,,,,low,14,0,14,0,1,,,,,,,,,
296041,2022-09-23_11h52.57.982,vts_reward_expectancy,2022.2.4,Win32,60.86797736,Chrome,1664,1110,,,,,10,835,,,,,,,,,,,,,,,,,Y,132,star,1,0,,,,,,,,,,,,,,,,repeat,letter,lettRpt,f,Lo,,,,,,0.4853,1,,,,,,,,low,15,0,15,0,1,,,,,,,,,
296041,2022-09-23_11h52.57.982,vts_reward_expectancy,2022.2.4,Win32,60.86797736,Chrome,1664,1110,,,,,0,835,,,,,,,,,,,,,,,,,H,181,circle,1,0,,,,,,,,,,,,,,,,repeat,letter,lettRpt,d,Hi,,,,,,0.7008,1,,,,,,,,low,16,0,16,0,1,,,,,,,,,
296041,2022-09-23_11h52.57.982,vts_reward_expectancy,2022.2.4,Win32,60.86797736,Chrome,1664,1110,,,,,10,845,,,,,,,,,,,,,,,,,F,132,star,1,0,,,,,,,,,,,,,,,,repeat,letter,lettRpt,d,Lo,,,,,,0.5034,1,,,,,,,,low,17,0,17,0,1,,,,,,,,,
296041,2022-09-23_11h52.57.982,vts_reward_expectancy,2022.2.4,Win32,60.86797736,Chrome,1664,1110,,,,,0,845,,,,,,,,,,,,,,,,,W,146,star,0,0,,,,,,,,,,,,,,,,repeat,letter,NA,d,Lo,,,,,,0.5859,1,,,,,,,,low,18,0,18,0,1,,,,,,,,,
296041,2022-09-23_11h52.57.982,vts_reward_expectancy,2022.2.4,Win32,60.86797736,Chrome,1664,1110,,,,,1,846,,,,,,,,,,,,,,,,,U,139,circle,1,1,,,,,,,,,,,,,,,,repeat,letter,lettRpt,f,Hi,,,,,,0.4677,1,,,,,,,,low,19,0,19,0,1,,,,,,,,,
296041,2022-09-23_11h52.57.982,vts_reward_expectancy,2022.2.4,Win32,60.86797736,Chrome,1664,1110,,,,,10,856,,,,,,,,,,,,,,,,,Y,125,star,1,0,,,,,,,,,,,,,,,,repeat,letter,lettRpt,f,Lo,,,,,,0.5677,1,,,,,,,,low,20,0,20,0,1,,,,,,,,,
296041,2022-09-23_11h52.57.982,vts_reward_expectancy,2022.2.4,Win32,60.86797736,Chrome,1664,1110,,,,,0,856,,,,,,,,,,,,,,,,,S,167,circle,1,0,,,,,,,,,,,,,,,,repeat,letter,lettRpt,f,Hi,,,,,,0.6016,1,,,,,,,,low,21,0,21,0,1,,,,,,,,,
296041,2022-09-23_11h52.57.982,vts_reward_expectancy,2022.2.4,Win32,60.86797736,Chrome,1664,1110,,,,,1,857,,,,,,,,,,,,,,,,,B,160,circle,1,0,,,,,,,,,,,,,,,,repeat,letter,lettRpt,d,Hi,,,,,,0.519,1,,,,,,,,low,22,0,22,0,1,,,,,,,,,
296041,2022-09-23_11h52.57.982,vts_reward_expectancy,2022.2.4,Win32,60.86797736,Chrome,1664,1110,,,,,1,858,,,,,,,,,,,,,,,,,D,174,star,1,0,,,,,,,,,,,,,,,,repeat,letter,lettRpt,d,Lo,,,,,,0.5859,1,,,,,,,,low,23,0,23,0,1,,,,,,,,,
296041,2022-09-23_11h52.57.982,vts_reward_expectancy,2022.2.4,Win32,60.86797736,Chrome,1664,1110,,,,,1,859,,,,,,,,,,,,,,,,,H,125,star,1,0,,,,,,,,,,,,,,,,repeat,letter,lettRpt,d,Lo,,,,,,0.5523,1,,,,,,,,low,24,0,24,0,1,,,,,,,,,
296041,2022-09-23_11h52.57.982,vts_reward_expectancy,2022.2.4,Win32,60.86797736,Chrome,1664,1110,,,,,0,859,,,,,,,,,,,,,,,,,Y,167,circle,1,0,,,,,,,,,,,,,,,,repeat,letter,lettRpt,f,Hi,,,,,,0.6859,1,,,,,,,,low,25,0,25,0,1,,,,,,,,,
296041,2022-09-23_11h52.57.982,vts_reward_expectancy,2022.2.4,Win32,60.86797736,Chrome,1664,1110,,,,,10,869,,,,,,,,,,,,,,,,,W,146,star,1,0,,,,,,,,,,,,,,,,repeat,letter,lettRpt,f,Lo,,,,,,0.601,1,,,,,,,,low,26,0,26,0,1,,,,,,,,,
296041,2022-09-23_11h52.57.982,vts_reward_expectancy,2022.2.4,Win32,60.86797736,Chrome,1664,1110,,,,,10,879,,,,,,,,,,,,,,,,,D,139,circle,1,0,,,,,,,,,,,,,,,,repeat,letter,lettRpt,d,Hi,,,,,,0.5868,1,,,,,,,,low,27,0,27,0,1,,,,,,,,,
296041,2022-09-23_11h52.57.982,vts_reward_expectancy,2022.2.4,Win32,60.86797736,Chrome,1664,1110,,,,,10,889,,,,,,,,,,,,,,,,,F,174,star,1,0,,,,,,,,,,,,,,,,repeat,letter,lettRpt,d,Lo,,,,,,0.5028,1,,,,,,,,low,28,0,28,0,1,,,,,,,,,
296041,2022-09-23_11h52.57.982,vts_reward_expectancy,2022.2.4,Win32,60.86797736,Chrome,1664,1110,,,,,10,899,,,,,,,,,,,,,,,,,B,132,circle,1,0,,,,,,,,,,,,,,,,repeat,letter,lettRpt,d,Hi,,,,,,0.4805,1,,,,,,,,low,29,0,29,0,1,,,,,,,,,
296041,2022-09-23_11h52.57.982,vts_reward_expectancy,2022.2.4,Win32,60.86797736,Chrome,1664,1110,,,,,1,900,,,,,,,,,,,,,,,,,S,181,star,1,0,,,,,,,,,,,,,,,,repeat,letter,lettRpt,f,Lo,,,,,,0.4854,1,,,,,,,,low,30,0,30,0,1,,,,,,,,,
296041,2022-09-23_11h52.57.982,vts_reward_expectancy,2022.2.4,Win32,60.86797736,Chrome,1664,1110,,,,,0,900,,,,,,,,,,,,,,,,,U,160,circle,1,0,,,,,,,,,,,,,,,,repeat,letter,lettRpt,f,Hi,,,,,,0.7354,1,,,,,,,,low,31,0,31,0,1,,,,,,,,,
296041,2022-09-23_11h52.57.982,vts_reward_expectancy,2022.2.4,Win32,60.86797736,Chrome,1664,1110,,,,,10,910,,,,,,,,,,,,,,,,,D,181,triangle,1,0,,,,,,,,,,,,,,,,repeat,letter,lettRpt,d,Lo,,,,,,0.5857,2,,,,,,space,1.6698,high,0,0,0,0,1,,,,,,,,,
296041,2022-09-23_11h52.57.982,vts_reward_expectancy,2022.2.4,Win32,60.86797736,Chrome,1664,1110,,,,,0,910,,,,,,,,,,,,,,,,,Y,146,hexagon,1,0,,,,,,,,,,,,,,,,repeat,letter,lettRpt,f,Hi,,,,,,0.6344,2,,,,,,,,high,1,0,1,0,1,,,,,,,,,
296041,2022-09-23_11h52.57.982,vts_reward_expectancy,2022.2.4,Win32,60.86797736,Chrome,1664,1110,,,,,10,920,,,,,,,,,,,,,,,,,U,160,triangle,1,0,,,,,,,,,,,,,,,,repeat,letter,lettRpt,f,Lo,,,,,,0.6851,2,,,,,,,,high,2,0,2,0,1,,,,,,,,,
296041,2022-09-23_11h52.57.982,vts_reward_expectancy,2022.2.4,Win32,60.86797736,Chrome,1664,1110,,,,,10,930,,,,,,,,,,,,,,,,,B,125,hexagon,1,0,,,,,,,,,,,,,,,,repeat,letter,lettRpt,d,Hi,,,,,,0.4863,2,,,,,,,,high,3,0,3,0,1,,,,,,,,,
296041,2022-09-23_11h52.57.982,vts_reward_expectancy,2022.2.4,Win32,60.86797736,Chrome,1664,1110,,,,,0,930,,,,,,,,,,,,,,,,,H,139,hexagon,1,0,,,,,,,,,,,,,,,,repeat,letter,lettRpt,d,Hi,,,,,,0.7201,2,,,,,,,,high,4,0,4,0,1,,,,,,,,,
296041,2022-09-23_11h52.57.982,vts_reward_expectancy,2022.2.4,Win32,60.86797736,Chrome,1664,1110,,,,,1,931,,,,,,,,,,,,,,,,,W,174,triangle,1,0,,,,,,,,,,,,,,,,repeat,letter,lettRpt,f,Lo,,,,,,0.6197,2,,,,,,,,high,5,0,5,0,1,,,,,,,,,
296041,2022-09-23_11h52.57.982,vts_reward_expectancy,2022.2.4,Win32,60.86797736,Chrome,1664,1110,,,,,1,932,,,,,,,,,,,,,,,,,S,132,triangle,1,0,,,,,,,,,,,,,,,,repeat,letter,lettRpt,f,Lo,,,,,,0.6869,2,,,,,,,,high,6,0,6,0,1,,,,,,,,,
296041,2022-09-23_11h52.57.982,vts_reward_expectancy,2022.2.4,Win32,60.86797736,Chrome,1664,1110,,,,,0,932,,,,,,,,,,,,,,,,,F,167,hexagon,1,0,,,,,,,,,,,,,,,,repeat,letter,lettRpt,d,Hi,,,,,,0.7848,2,,,,,,,,high,7,0,7,0,1,,,,,,,,,
296041,2022-09-23_11h52.57.982,vts_reward_expectancy,2022.2.4,Win32,60.86797736,Chrome,1664,1110,,,,,1,933,,,,,,,,,,,,,,,,,D,181,triangle,1,0,,,,,,,,,,,,,,,,repeat,letter,lettRpt,d,Lo,,,,,,0.5996,2,,,,,,,,high,8,0,8,0,1,,,,,,,,,
296041,2022-09-23_11h52.57.982,vts_reward_expectancy,2022.2.4,Win32,60.86797736,Chrome,1664,1110,,,,,1,934,,,,,,,,,,,,,,,,,Y,146,hexagon,1,0,,,,,,,,,,,,,,,,switch,number,numSwt,j,Hi,,,,,,0.5182,2,,,,,,,,high,9,0,9,0,1,,,,,,,,,
296041,2022-09-23_11h52.57.982,vts_reward_expectancy,2022.2.4,Win32,60.86797736,Chrome,1664,1110,,,,,1,935,,,,,,,,,,,,,,,,,U,160,triangle,1,0,,,,,,,,,,,,,,,,repeat,number,numRpt,k,Lo,,,,,,0.4539,2,,,,,,,,high,10,0,10,0,1,,,,,,,,,
296041,2022-09-23_11h52.57.982,vts_reward_expectancy,2022.2.4,Win32,60.86797736,Chrome,1664,1110,,,,,10,945,,,,,,,,,,,,,,,,,B,125,hexagon,1,0,,,,,,,,,,,,,,,,repeat,number,numRpt,j,Hi,,,,,,0.618,2,,,,,,,,high,11,0,11,0,1,,,,,,,,,
296041,2022-09-23_11h52.57.982,vts_reward_expectancy,2022.2.4,Win32,60.86797736,Chrome,1664,1110,,,,,1,946,,,,,,,,,,,,,,,,,H,139,hexagon,1,0,,,,,,,,,,,,,,,,repeat,number,numRpt,j,Hi,,,,,,0.5678,2,,,,,,,,high,12,0,12,0,1,,,,,,,,,
296041,2022-09-23_11h52.57.982,vts_reward_expectancy,2022.2.4,Win32,60.86797736,Chrome,1664,1110,,,,,10,956,,,,,,,,,,,,,,,,,W,174,triangle,1,0,,,,,,,,,,,,,,,,repeat,number,numRpt,k,Lo,,,,,,0.5143,2,,,,,,,,high,13,0,13,0,1,,,,,,,,,
296041,2022-09-23_11h52.57.982,vts_reward_expectancy,2022.2.4,Win32,60.86797736,Chrome,1664,1110,,,,,1,957,,,,,,,,,,,,,,,,,S,132,hexagon,1,0,,,,,,,,,,,,,,,,repeat,number,numRpt,j,Hi,,,,,,0.6845,2,,,,,,,,high,14,0,14,0,1,,,,,,,,,
296041,2022-09-23_11h52.57.982,vts_reward_expectancy,2022.2.4,Win32,60.86797736,Chrome,1664,1110,,,,,1,958,,,,,,,,,,,,,,,,,F,167,triangle,1,0,,,,,,,,,,,,,,,,repeat,number,numRpt,k,Lo,,,,,,0.5182,2,,,,,,,,high,15,0,15,0,1,,,,,,,,,
296041,2022-09-23_11h52.57.982,vts_reward_expectancy,2022.2.4,Win32,60.86797736,Chrome,1664,1110,,,,,1,959,,,,,,,,,,,,,,,,,W,132,triangle,1,0,,,,,,,,,,,,,,,,repeat,number,numRpt,j,Lo,,,,,,0.6377,2,,,,,,,,high,16,0,16,0,1,,,,,,,,,
296041,2022-09-23_11h52.57.982,vts_reward_expectancy,2022.2.4,Win32,60.86797736,Chrome,1664,1110,,,,,1,960,,,,,,,,,,,,,,,,,Y,139,hexagon,1,0,,,,,,,,,,,,,,,,repeat,number,numRpt,j,Hi,,,,,,0.6343,2,,,,,,,,high,17,0,17,0,1,,,,,,,,,
296041,2022-09-23_11h52.57.982,vts_reward_expectancy,2022.2.4,Win32,60.86797736,Chrome,1664,1110,,,,,1,961,,,,,,,,,,,,,,,,,U,125,triangle,1,0,,,,,,,,,,,,,,,,repeat,number,numRpt,j,Lo,,,,,,0.5952,2,,,,,,,,high,18,0,18,0,1,,,,,,,,,
296041,2022-09-23_11h52.57.982,vts_reward_expectancy,2022.2.4,Win32,60.86797736,Chrome,1664,1110,,,,,1,962,,,,,,,,,,,,,,,,,H,146,hexagon,1,0,,,,,,,,,,,,,,,,repeat,number,numRpt,j,Hi,,,,,,0.5677,2,,,,,,,,high,19,0,19,0,1,,,,,,,,,
296041,2022-09-23_11h52.57.982,vts_reward_expectancy,2022.2.4,Win32,60.86797736,Chrome,1664,1110,,,,,10,972,,,,,,,,,,,,,,,,,S,174,hexagon,1,0,,,,,,,,,,,,,,,,switch,letter,lettSwt,f,Hi,,,,,,0.5508,2,,,,,,,,high,20,0,20,0,1,,,,,,,,,
296041,2022-09-23_11h52.57.982,vts_reward_expectancy,2022.2.4,Win32,60.86797736,Chrome,1664,1110,,,,,1,973,,,,,,,,,,,,,,,,,B,181,triangle,1,0,,,,,,,,,,,,,,,,repeat,letter,lettRpt,d,Lo,,,,,,0.7021,2,,,,,,,,high,21,0,21,0,1,,,,,,,,,
296041,2022-09-23_11h52.57.982,vts_reward_expectancy,2022.2.4,Win32,60.86797736,Chrome,1664,1110,,,,,0,973,,,,,,,,,,,,,,,,,F,160,hexagon,1,0,,,,,,,,,,,,,,,,repeat,letter,lettRpt,d,Hi,,,,,,0.8539,2,,,,,,,,high,22,0,22,0,1,,,,,,,,,
296041,2022-09-23_11h52.57.982,vts_reward_expectancy,2022.2.4,Win32,60.86797736,Chrome,1664,1110,,,,,1,974,,,,,,,,,,,,,,,,,D,167,triangle,1,0,,,,,,,,,,,,,,,,repeat,letter,lettRpt,d,Lo,,,,,,0.5338,2,,,,,,,,high,23,0,23,0,1,,,,,,,,,
296041,2022-09-23_11h52.57.982,vts_reward_expectancy,2022.2.4,Win32,60.86797736,Chrome,1664,1110,,,,,0,974,,,,,,,,,,,,,,,,,U,174,hexagon,1,0,,,,,,,,,,,,,,,,repeat,letter,lettRpt,f,Hi,,,,,,0.6504,2,,,,,,,,high,24,0,24,0,1,,,,,,,,,
296041,2022-09-23_11h52.57.982,vts_reward_expectancy,2022.2.4,Win32,60.86797736,Chrome,1664,1110,,,,,10,984,,,,,,,,,,,,,,,,,W,125,triangle,1,0,,,,,,,,,,,,,,,,repeat,letter,lettRpt,f,Lo,,,,,,0.5173,2,,,,,,,,high,25,0,25,0,1,,,,,,,,,
296041,2022-09-23_11h52.57.982,vts_reward_expectancy,2022.2.4,Win32,60.86797736,Chrome,1664,1110,,,,,1,985,,,,,,,,,,,,,,,,,H,139,triangle,1,0,,,,,,,,,,,,,,,,repeat,letter,lettRpt,d,Lo,,,,,,0.6511,2,,,,,,,,high,26,0,26,0,1,,,,,,,,,
296041,2022-09-23_11h52.57.982,vts_reward_expectancy,2022.2.4,Win32,60.86797736,Chrome,1664,1110,,,,,0,985,,,,,,,,,,,,,,,,,D,167,hexagon,1,0,,,,,,,,,,,,,,,,repeat,letter,lettRpt,d,Hi,,,,,,0.5853,2,,,,,,,,high,27,0,27,0,1,,,,,,,,,
296041,2022-09-23_11h52.57.982,vts_reward_expectancy,2022.2.4,Win32,60.86797736,Chrome,1664,1110,,,,,1,986,,,,,,,,,,,,,,,,,S,146,triangle,1,0,,,,,,,,,,,,,,,,repeat,letter,lettRpt,f,Lo,,,,,,0.6163,2,,,,,,,,high,28,0,28,0,1,,,,,,,,,
296041,2022-09-23_11h52.57.982,vts_reward_expectancy,2022.2.4,Win32,60.86797736,Chrome,1664,1110,,,,,0,986,,,,,,,,,,,,,,,,,F,181,hexagon,1,0,,,,,,,,,,,,,,,,repeat,letter,lettRpt,d,Hi,,,,,,0.6356,2,,,,,,,,high,29,0,29,0,1,,,,,,,,,
296041,2022-09-23_11h52.57.982,vts_reward_expectancy,2022.2.4,Win32,60.86797736,Chrome,1664,1110,,,,,0,986,,,,,,,,,,,,,,,,,B,132,hexagon,1,0,,,,,,,,,,,,,,,,repeat,letter,lettRpt,d,Hi,,,,,,0.5358,2,,,,,,,,high,30,0,30,0,1,,,,,,,,,
296041,2022-09-23_11h52.57.982,vts_reward_expectancy,2022.2.4,Win32,60.86797736,Chrome,1664,1110,,,,,1,987,,,,,,,,,,,,,,,,,Y,160,triangle,1,0,,,,,,,,,,,,,,,,repeat,letter,lettRpt,f,Lo,,,,,,0.5342,2,,,,,,,,high,31,0,31,0,1,,,,,,,,,
296041,2022-09-23_11h52.57.982,vts_reward_expectancy,2022.2.4,Win32,60.86797736,Chrome,1664,1110,,,,,0,987,,,,,,,,,,,,,,,,,F,125,hexagon,1,0,,,,,,,,,,,,,,,,repeat,letter,lettRpt,d,Hi,,,,,,0.7854,3,,,,,,space,1.5512,high,0,0,0,0,1,,,,,,,,,
296041,2022-09-23_11h52.57.982,vts_reward_expectancy,2022.2.4,Win32,60.86797736,Chrome,1664,1110,,,,,10,997,,,,,,,,,,,,,,,,,H,146,triangle,1,0,,,,,,,,,,,,,,,,repeat,letter,lettRpt,d,Lo,,,,,,0.6017,3,,,,,,,,high,1,0,1,0,1,,,,,,,,,
296041,2022-09-23_11h52.57.982,vts_reward_expectancy,2022.2.4,Win32,60.86797736,Chrome,1664,1110,,,,,10,1007,,,,,,,,,,,,,,,,,U,167,hexagon,1,0,,,,,,,,,,,,,,,,repeat,letter,lettRpt,f,Hi,,,,,,0.5858,3,,,,,,,,high,2,0,2,0,1,,,,,,,,,
296041,2022-09-23_11h52.57.982,vts_reward_expectancy,2022.2.4,Win32,60.86797736,Chrome,1664,1110,,,,,1,1008,,,,,,,,,,,,,,,,,Y,132,triangle,1,0,,,,,,,,,,,,,,,,repeat,letter,lettRpt,f,Lo,,,,,,0.5299,3,,,,,,,,high,3,0,3,0,1,,,,,,,,,
296041,2022-09-23_11h52.57.982,vts_reward_expectancy,2022.2.4,Win32,60.86797736,Chrome,1664,1110,,,,,1,1009,,,,,,,,,,,,,,,,,D,174,triangle,1,0,,,,,,,,,,,,,,,,repeat,letter,lettRpt,d,Lo,,,,,,0.4019,3,,,,,,,,high,4,0,4,0,1,,,,,,,,,
296041,2022-09-23_11h52.57.982,vts_reward_expectancy,2022.2.4,Win32,60.86797736,Chrome,1664,1110,,,,,10,1019,,,,,,,,,,,,,,,,,B,139,hexagon,1,0,,,,,,,,,,,,,,,,repeat,letter,lettRpt,d,Hi,,,,,,0.4181,3,,,,,,,,high,5,0,5,0,1,,,,,,,,,
296041,2022-09-23_11h52.57.982,vts_reward_expectancy,2022.2.4,Win32,60.86797736,Chrome,1664,1110,,,,,0,1019,,,,,,,,,,,,,,,,,W,181,hexagon,1,0,,,,,,,,,,,,,,,,repeat,letter,lettRpt,f,Hi,,,,,,0.6196,3,,,,,,,,high,6,0,6,0,1,,,,,,,,,
296041,2022-09-23_11h52.57.982,vts_reward_expectancy,2022.2.4,Win32,60.86797736,Chrome,1664,1110,,,,,10,1029,,,,,,,,,,,,,,,,,S,160,triangle,1,0,,,,,,,,,,,,,,,,repeat,letter,lettRpt,f,Lo,,,,,,0.6339,3,,,,,,,,high,7,0,7,0,1,,,,,,,,,
296041,2022-09-23_11h52.57.982,vts_reward_expectancy,2022.2.4,Win32,60.86797736,Chrome,1664,1110,,,,,10,1039,,,,,,,,,,,,,,,,,F,125,hexagon,1,0,,,,,,,,,,,,,,,,repeat,letter,lettRpt,d,Hi,,,,,,0.5013,3,,,,,,,,high,8,0,8,0,1,,,,,,,,,
296041,2022-09-23_11h52.57.982,vts_reward_expectancy,2022.2.4,Win32,60.86797736,Chrome,1664,1110,,,,,1,1040,,,,,,,,,,,,,,,,,H,146,triangle,1,0,,,,,,,,,,,,,,,,repeat,letter,lettRpt,d,Lo,,,,,,0.5855,3,,,,,,,,high,9,0,9,0,1,,,,,,,,,
296041,2022-09-23_11h52.57.982,vts_reward_expectancy,2022.2.4,Win32,60.86797736,Chrome,1664,1110,,,,,1,1041,,,,,,,,,,,,,,,,,U,167,triangle,1,0,,,,,,,,,,,,,,,,repeat,letter,lettRpt,f,Lo,,,,,,0.7026,3,,,,,,,,high,10,0,10,0,1,,,,,,,,,
296041,2022-09-23_11h52.57.982,vts_reward_expectancy,2022.2.4,Win32,60.86797736,Chrome,1664,1110,,,,,0,1041,,,,,,,,,,,,,,,,,Y,132,hexagon,1,0,,,,,,,,,,,,,,,,repeat,letter,lettRpt,f,Hi,,,,,,0.5924,3,,,,,,,,high,11,0,11,0,1,,,,,,,,,
296041,2022-09-23_11h52.57.982,vts_reward_expectancy,2022.2.4,Win32,60.86797736,Chrome,1664,1110,,,,,0,1041,,,,,,,,,,,,,,,,,D,174,hexagon,1,0,,,,,,,,,,,,,,,,repeat,letter,lettRpt,d,Hi,,,,,,0.686,3,,,,,,,,high,12,0,12,0,1,,,,,,,,,
296041,2022-09-23_11h52.57.982,vts_reward_expectancy,2022.2.4,Win32,60.86797736,Chrome,1664,1110,,,,,1,1042,,,,,,,,,,,,,,,,,B,139,triangle,1,0,,,,,,,,,,,,,,,,repeat,letter,lettRpt,d,Lo,,,,,,0.5857,3,,,,,,,,high,13,0,13,0,1,,,,,,,,,
296041,2022-09-23_11h52.57.982,vts_reward_expectancy,2022.2.4,Win32,60.86797736,Chrome,1664,1110,,,,,0,1042,,,,,,,,,,,,,,,,,W,181,hexagon,1,0,,,,,,,,,,,,,,,,repeat,letter,lettRpt,f,Hi,,,,,,0.6004,3,,,,,,,,high,14,0,14,0,1,,,,,,,,,
296041,2022-09-23_11h52.57.982,vts_reward_expectancy,2022.2.4,Win32,60.86797736,Chrome,1664,1110,,,,,1,1043,,,,,,,,,,,,,,,,,S,160,triangle,1,0,,,,,,,,,,,,,,,,repeat,letter,lettRpt,f,Lo,,,,,,0.8024,3,,,,,,,,high,15,0,15,0,1,,,,,,,,,
296041,2022-09-23_11h52.57.982,vts_reward_expectancy,2022.2.4,Win32,60.86797736,Chrome,1664,1110,,,,,0,1043,,,,,,,,,,,,,,,,,H,125,hexagon,1,0,,,,,,,,,,,,,,,,repeat,letter,lettRpt,d,Hi,,,,,,0.6029,3,,,,,,,,high,16,0,16,0,1,,,,,,,,,
296041,2022-09-23_11h52.57.982,vts_reward_expectancy,2022.2.4,Win32,60.86797736,Chrome,1664,1110,,,,,1,1044,,,,,,,,,,,,,,,,,U,167,triangle,1,0,,,,,,,,,,,,,,,,repeat,letter,lettRpt,f,Lo,,,,,,0.5512,3,,,,,,,,high,17,0,17,0,1,,,,,,,,,
296041,2022-09-23_11h52.57.982,vts_reward_expectancy,2022.2.4,Win32,60.86797736,Chrome,1664,1110,,,,,10,1054,,,,,,,,,,,,,,,,,S,160,triangle,1,0,,,,,,,,,,,,,,,,repeat,letter,lettRpt,f,Lo,,,,,,0.6517,3,,,,,,,,high,18,0,18,0,1,,,,,,,,,
296041,2022-09-23_11h52.57.982,vts_reward_expectancy,2022.2.4,Win32,60.86797736,Chrome,1664,1110,,,,,10,1064,,,,,,,,,,,,,,,,,B,132,hexagon,1,0,,,,,,,,,,,,,,,,repeat,letter,lettRpt,d,Hi,,,,,,0.5176,3,,,,,,,,high,19,0,19,0,1,,,,,,,,,
296041,2022-09-23_11h52.57.982,vts_reward_expectancy,2022.2.4,Win32,60.86797736,Chrome,1664,1110,,,,,10,1074,,,,,,,,,,,,,,,,,D,146,hexagon,1,0,,,,,,,,,,,,,,,,repeat,letter,lettRpt,d,Hi,,,,,,0.5014,3,,,,,,,,high,20,0,20,0,1,,,,,,,,,
296041,2022-09-23_11h52.57.982,vts_reward_expectancy,2022.2.4,Win32,60.86797736,Chrome,1664,1110,,,,,1,1075,,,,,,,,,,,,,,,,,Y,174,triangle,1,0,,,,,,,,,,,,,,,,repeat,letter,lettRpt,f,Lo,,,,,,0.419,3,,,,,,,,high,21,0,21,0,1,,,,,,,,,
296041,2022-09-23_11h52.57.982,vts_reward_expectancy,2022.2.4,Win32,60.86797736,Chrome,1664,1110,,,,,1,1076,,,,,,,,,,,,,,,,,F,139,triangle,1,0,,,,,,,,,,,,,,,,repeat,letter,lettRpt,d,Lo,,,,,,0.5359,3,,,,,,,,high,22,0,22,0,1,,,,,,,,,
296041,2022-09-23_11h52.57.982,vts_reward_expectancy,2022.2.4,Win32,60.86797736,Chrome,1664,1110,,,,,10,1086,,,,,,,,,,,,,,,,,W,181,hexagon,1,0,,,,,,,,,,,,,,,,repeat,letter,lettRpt,f,Hi,,,,,,0.5216,3,,,,,,,,high,23,0,23,0,1,,,,,,,,,
296041,2022-09-23_11h52.57.982,vts_reward_expectancy,2022.2.4,Win32,60.86797736,Chrome,1664,1110,,,,,1,1087,,,,,,,,,,,,,,,,,S,160,triangle,1,0,,,,,,,,,,,,,,,,repeat,letter,lettRpt,f,Lo,,,,,,0.6192,3,,,,,,,,high,24,0,24,0,1,,,,,,,,,
296041,2022-09-23_11h52.57.982,vts_reward_expectancy,2022.2.4,Win32,60.86797736,Chrome,1664,1110,,,,,10,1097,,,,,,,,,,,,,,,,,U,139,hexagon,1,0,,,,,,,,,,,,,,,,repeat,letter,lettRpt,f,Hi,,,,,,0.5692,3,,,,,,,,high,25,0,25,0,1,,,,,,,,,
296041,2022-09-23_11h52.57.982,vts_reward_expectancy,2022.2.4,Win32,60.86797736,Chrome,1664,1110,,,,,1,1098,,,,,,,,,,,,,,,,,B,181,triangle,1,0,,,,,,,,,,,,,,,,repeat,letter,lettRpt,d,Lo,,,,,,0.4876,3,,,,,,,,high,26,0,26,0,1,,,,,,,,,
296041,2022-09-23_11h52.57.982,vts_reward_expectancy,2022.2.4,Win32,60.86797736,Chrome,1664,1110,,,,,0,1098,,,,,,,,,,,,,,,,,D,125,hexagon,1,0,,,,,,,,,,,,,,,,repeat,letter,lettRpt,d,Hi,,,,,,0.6351,3,,,,,,,,high,27,0,27,0,1,,,,,,,,,
296041,2022-09-23_11h52.57.982,vts_reward_expectancy,2022.2.4,Win32,60.86797736,Chrome,1664,1110,,,,,0,1098,,,,,,,,,,,,,,,,,W,146,hexagon,1,0,,,,,,,,,,,,,,,,repeat,letter,lettRpt,f,Hi,,,,,,0.6006,3,,,,,,,,high,28,0,28,0,1,,,,,,,,,
296041,2022-09-23_11h52.57.982,vts_reward_expectancy,2022.2.4,Win32,60.86797736,Chrome,1664,1110,,,,,1,1099,,,,,,,,,,,,,,,,,F,132,triangle,1,0,,,,,,,,,,,,,,,,repeat,letter,lettRpt,d,Lo,,,,,,0.505,3,,,,,,,,high,29,0,29,0,1,,,,,,,,,
296041,2022-09-23_11h52.57.982,vts_reward_expectancy,2022.2.4,Win32,60.86797736,Chrome,1664,1110,,,,,1,1100,,,,,,,,,,,,,,,,,H,167,triangle,1,0,,,,,,,,,,,,,,,,repeat,letter,lettRpt,d,Lo,,,,,,0.5534,3,,,,,,,,high,30,0,30,0,1,,,,,,,,,
296041,2022-09-23_11h52.57.982,vts_reward_expectancy,2022.2.4,Win32,60.86797736,Chrome,1664,1110,,,,,0,1100,,,,,,,,,,,,,,,,,Y,174,hexagon,0,0,,,,,,,,,,,,,,,,repeat,letter,NA,d,Lo,,,,,,0.5028,3,,,,,,,,high,31,0,31,0,1,,,,,,,,,
296041,2022-09-23_11h52.57.982,vts_reward_expectancy,2022.2.4,Win32,60.86797736,Chrome,1664,1110,,,,,10,1110,,,,,,,,,,,,,,,,,B,160,star,1,1,,,,,,,,,,,,,,,,switch,number,numSwt,k,Lo,,,,,,0.6519,4,,,,,,space,0.5173,low,0,0,0,0,1,,,,,,,,,
296041,2022-09-23_11h52.57.982,vts_reward_expectancy,2022.2.4,Win32,60.86797736,Chrome,1664,1110,,,,,10,1120,,,,,,,,,,,,,,,,,H,132,circle,1,0,,,,,,,,,,,,,,,,repeat,number,numRpt,j,Hi,,,,,,0.4031,4,,,,,,,,low,1,0,1,0,1,,,,,,,,,
296041,2022-09-23_11h52.57.982,vts_reward_expectancy,2022.2.4,Win32,60.86797736,Chrome,1664,1110,,,,,10,1130,,,,,,,,,,,,,,,,,D,181,star,1,0,,,,,,,,,,,,,,,,repeat,number,numRpt,k,Lo,,,,,,0.4685,4,,,,,,,,low,2,0,2,0,1,,,,,,,,,
296041,2022-09-23_11h52.57.982,vts_reward_expectancy,2022.2.4,Win32,60.86797736,Chrome,1664,1110,,,,,1,1131,,,,,,,,,,,,,,,,,F,167,circle,1,0,,,,,,,,,,,,,,,,repeat,number,numRpt,k,Hi,,,,,,0.5169,4,,,,,,,,low,3,0,3,0,1,,,,,,,,,
296041,2022-09-23_11h52.57.982,vts_reward_expectancy,2022.2.4,Win32,60.86797736,Chrome,1664,1110,,,,,1,1132,,,,,,,,,,,,,,,,,U,125,circle,1,0,,,,,,,,,,,,,,,,repeat,number,numRpt,j,Hi,,,,,,0.5176,4,,,,,,,,low,4,0,4,0,1,,,,,,,,,
296041,2022-09-23_11h52.57.982,vts_reward_expectancy,2022.2.4,Win32,60.86797736,Chrome,1664,1110,,,,,1,1133,,,,,,,,,,,,,,,,,Y,174,star,1,0,,,,,,,,,,,,,,,,repeat,number,numRpt,k,Lo,,,,,,0.6357,4,,,,,,,,low,5,0,5,0,1,,,,,,,,,
296041,2022-09-23_11h52.57.982,vts_reward_expectancy,2022.2.4,Win32,60.86797736,Chrome,1664,1110,,,,,1,1134,,,,,,,,,,,,,,,,,S,146,star,1,0,,,,,,,,,,,,,,,,repeat,number,numRpt,j,Lo,,,,,,0.4675,4,,,,,,,,low,6,0,6,0,1,,,,,,,,,
296041,2022-09-23_11h52.57.982,vts_reward_expectancy,2022.2.4,Win32,60.86797736,Chrome,1664,1110,,,,,10,1144,,,,,,,,,,,,,,,,,W,139,circle,1,0,,,,,,,,,,,,,,,,repeat,number,numRpt,j,Hi,,,,,,0.7346,4,,,,,,,,low,7,0,7,0,1,,,,,,,,,
296041,2022-09-23_11h52.57.982,vts_reward_expectancy,2022.2.4,Win32,60.86797736,Chrome,1664,1110,,,,,1,1145,,,,,,,,,,,,,,,,,B,160,star,1,0,,,,,,,,,,,,,,,,repeat,number,numRpt,k,Lo,,,,,,0.5347,4,,,,,,,,low,8,0,8,0,1,,,,,,,,,
296041,2022-09-23_11h52.57.982,vts_reward_expectancy,2022.2.4,Win32,60.86797736,Chrome,1664,1110,,,,,1,1146,,,,,,,,,,,,,,,,,H,132,circle,1,0,,,,,,,,,,,,,,,,repeat,number,numRpt,j,Hi,,,,,,0.5844,4,,,,,,,,low,9,0,9,0,1,,,,,,,,,
296041,2022-09-23_11h52.57.982,vts_reward_expectancy,2022.2.4,Win32,60.86797736,Chrome,1664,1110,,,,,1,1147,,,,,,,,,,,,,,,,,D,181,star,1,0,,,,,,,,,,,,,,,,repeat,number,numRpt,k,Lo,,,,,,0.5518,4,,,,,,,,low,10,0,10,0,1,,,,,,,,,
296041,2022-09-23_11h52.57.982,vts_reward_expectancy,2022.2.4,Win32,60.86797736,Chrome,1664,1110,,,,,10,1157,,,,,,,,,,,,,,,,,F,167,circle,1,0,,,,,,,,,,,,,,,,repeat,number,numRpt,k,Hi,,,,,,0.6689,4,,,,,,,,low,11,0,11,0,1,,,,,,,,,
296041,2022-09-23_11h52.57.982,vts_reward_expectancy,2022.2.4,Win32,60.86797736,Chrome,1664,1110,,,,,1,1158,,,,,,,,,,,,,,,,,U,125,star,1,0,,,,,,,,,,,,,,,,repeat,number,numRpt,j,Lo,,,,,,0.6025,4,,,,,,,,low,12,0,12,0,1,,,,,,,,,
296041,2022-09-23_11h52.57.982,vts_reward_expectancy,2022.2.4,Win32,60.86797736,Chrome,1664,1110,,,,,1,1159,,,,,,,,,,,,,,,,,Y,174,circle,1,0,,,,,,,,,,,,,,,,repeat,number,numRpt,k,Hi,,,,,,0.6341,4,,,,,,,,low,13,0,13,0,1,,,,,,,,,
296041,2022-09-23_11h52.57.982,vts_reward_expectancy,2022.2.4,Win32,60.86797736,Chrome,1664,1110,,,,,1,1160,,,,,,,,,,,,,,,,,S,146,circle,1,0,,,,,,,,,,,,,,,,repeat,number,numRpt,j,Hi,,,,,,0.6021,4,,,,,,,,low,14,0,14,0,1,,,,,,,,,
296041,2022-09-23_11h52.57.982,vts_reward_expectancy,2022.2.4,Win32,60.86797736,Chrome,1664,1110,,,,,10,1170,,,,,,,,,,,,,,,,,W,139,star,1,0,,,,,,,,,,,,,,,,repeat,number,numRpt,j,Lo,,,,,,0.6344,4,,,,,,,,low,15,0,15,0,1,,,,,,,,,
296041,2022-09-23_11h52.57.982,vts_reward_expectancy,2022.2.4,Win32,60.86797736,Chrome,1664,1110,,,,,10,1180,,,,,,,,,,,,,,,,,Y,139,circle,1,0,,,,,,,,,,,,,,,,repeat,number,numRpt,j,Hi,,,,,,0.6364,4,,,,,,,,low,16,0,16,0,1,,,,,,,,,
296041,2022-09-23_11h52.57.982,vts_reward_expectancy,2022.2.4,Win32,60.86797736,Chrome,1664,1110,,,,,10,1190,,,,,,,,,,,,,,,,,H,146,star,1,0,,,,,,,,,,,,,,,,repeat,number,numRpt,j,Lo,,,,,,0.519,4,,,,,,,,low,17,0,17,0,1,,,,,,,,,
296041,2022-09-23_11h52.57.982,vts_reward_expectancy,2022.2.4,Win32,60.86797736,Chrome,1664,1110,,,,,0,1190,,,,,,,,,,,,,,,,,S,174,star,0,0,,,,,,,,,,,,,,,,switch,letter,NA,d,Lo,,,,,,0.7355,4,,,,,,,,low,18,0,18,0,1,,,,,,,,,
296041,2022-09-23_11h52.57.982,vts_reward_expectancy,2022.2.4,Win32,60.86797736,Chrome,1664,1110,,,,,0,1190,,,,,,,,,,,,,,,,,W,132,circle,1,1,,,,,,,,,,,,,,,,repeat,letter,lettRpt,f,Hi,,,,,,0.7026,4,,,,,,,,low,19,0,19,0,1,,,,,,,,,
296041,2022-09-23_11h52.57.982,vts_reward_expectancy,2022.2.4,Win32,60.86797736,Chrome,1664,1110,,,,,10,1200,,,,,,,,,,,,,,,,,D,125,circle,1,0,,,,,,,,,,,,,,,,repeat,letter,lettRpt,d,Hi,,,,,,0.4917,4,,,,,,,,low,20,0,20,0,1,,,,,,,,,
296041,2022-09-23_11h52.57.982,vts_reward_expectancy,2022.2.4,Win32,60.86797736,Chrome,1664,1110,,,,,1,1201,,,,,,,,,,,,,,,,,F,167,star,1,0,,,,,,,,,,,,,,,,repeat,letter,lettRpt,d,Lo,,,,,,0.7191,4,,,,,,,,low,21,0,21,0,1,,,,,,,,,
296041,2022-09-23_11h52.57.982,vts_reward_expectancy,2022.2.4,Win32,60.86797736,Chrome,1664,1110,,,,,10,1211,,,,,,,,,,,,,,,,,U,181,star,1,0,,,,,,,,,,,,,,,,repeat,letter,lettRpt,f,Lo,,,,,,0.5512,4,,,,,,,,low,22,0,22,0,1,,,,,,,,,
296041,2022-09-23_11h52.57.982,vts_reward_expectancy,2022.2.4,Win32,60.86797736,Chrome,1664,1110,,,,,10,1221,,,,,,,,,,,,,,,,,B,160,circle,1,0,,,,,,,,,,,,,,,,repeat,letter,lettRpt,d,Hi,,,,,,0.5014,4,,,,,,,,low,23,0,23,0,1,,,,,,,,,
296041,2022-09-23_11h52.57.982,vts_reward_expectancy,2022.2.4,Win32,60.86797736,Chrome,1664,1110,,,,,10,1231,,,,,,,,,,,,,,,,,B,174,circle,1,0,,,,,,,,,,,,,,,,repeat,letter,lettRpt,d,Hi,,,,,,0.5187,4,,,,,,,,low,24,0,24,0,1,,,,,,,,,
296041,2022-09-23_11h52.57.982,vts_reward_expectancy,2022.2.4,Win32,60.86797736,Chrome,1664,1110,,,,,1,1232,,,,,,,,,,,,,,,,,F,132,star,1,0,,,,,,,,,,,,,,,,repeat,letter,lettRpt,d,Lo,,,,,,0.6014,4,,,,,,,,low,25,0,25,0,1,,,,,,,,,
296041,2022-09-23_11h52.57.982,vts_reward_expectancy,2022.2.4,Win32,60.86797736,Chrome,1664,1110,,,,,10,1242,,,,,,,,,,,,,,,,,W,146,circle,1,0,,,,,,,,,,,,,,,,repeat,letter,lettRpt,f,Hi,,,,,,0.5337,4,,,,,,,,low,26,0,26,0,1,,,,,,,,,
296041,2022-09-23_11h52.57.982,vts_reward_expectancy,2022.2.4,Win32,60.86797736,Chrome,1664,1110,,,,,1,1243,,,,,,,,,,,,,,,,,Y,167,star,1,0,,,,,,,,,,,,,,,,repeat,letter,lettRpt,f,Lo,,,,,,0.568,4,,,,,,,,low,27,0,27,0,1,,,,,,,,,
296041,2022-09-23_11h52.57.982,vts_reward_expectancy,2022.2.4,Win32,60.86797736,Chrome,1664,1110,,,,,1,1244,,,,,,,,,,,,,,,,,H,139,star,1,0,,,,,,,,,,,,,,,,repeat,letter,lettRpt,d,Lo,,,,,,0.5028,4,,,,,,,,low,28,0,28,0,1,,,,,,,,,
296041,2022-09-23_11h52.57.982,vts_reward_expectancy,2022.2.4,Win32,60.86797736,Chrome,1664,1110,,,,,0,1244,,,,,,,,,,,,,,,,,U,125,circle,1,0,,,,,,,,,,,,,,,,repeat,letter,lettRpt,f,Hi,,,,,,0.5687,4,,,,,,,,low,29,0,29,0,1,,,,,,,,,
296041,2022-09-23_11h52.57.982,vts_reward_expectancy,2022.2.4,Win32,60.86797736,Chrome,1664,1110,,,,,10,1254,,,,,,,,,,,,,,,,,D,181,circle,1,0,,,,,,,,,,,,,,,,switch,number,numSwt,k,Hi,,,,,,0.7019,4,,,,,,,,low,30,0,30,0,1,,,,,,,,,
296041,2022-09-23_11h52.57.982,vts_reward_expectancy,2022.2.4,Win32,60.86797736,Chrome,1664,1110,,,,,1,1255,,,,,,,,,,,,,,,,,S,160,star,1,0,,,,,,,,,,,,,,,,repeat,number,numRpt,k,Lo,,,,,,2.7532,4,,,,,,,,low,31,0,31,0,1,,,,,,,,,
296041,2022-09-23_11h52.57.982,vts_reward_expectancy,2022.2.4,Win32,60.86797736,Chrome,1664,1110,,,,,10,1265,,,,,,,,,,,,,,,,,F,132,hexagon,1,0,,,,,,,,,,,,,,,,switch,letter,lettSwt,d,Hi,,,,,,1.3691,5,,,,,,space,5.949,high,0,0,0,0,1,,,,,,,,,
296041,2022-09-23_11h52.57.982,vts_reward_expectancy,2022.2.4,Win32,60.86797736,Chrome,1664,1110,,,,,1,1266,,,,,,,,,,,,,,,,,H,139,triangle,1,0,,,,,,,,,,,,,,,,repeat,letter,lettRpt,d,Lo,,,,,,1.9859,5,,,,,,,,high,1,0,1,0,1,,,,,,,,,
296041,2022-09-23_11h52.57.982,vts_reward_expectancy,2022.2.4,Win32,60.86797736,Chrome,1664,1110,,,,,0,1266,,,,,,,,,,,,,,,,,W,174,hexagon,1,0,,,,,,,,,,,,,,,,repeat,letter,lettRpt,f,Hi,,,,,,0.9029,5,,,,,,,,high,2,0,2,0,1,,,,,,,,,
296041,2022-09-23_11h52.57.982,vts_reward_expectancy,2022.2.4,Win32,60.86797736,Chrome,1664,1110,,,,,1,1267,,,,,,,,,,,,,,,,,Y,160,triangle,1,0,,,,,,,,,,,,,,,,repeat,letter,lettRpt,f,Lo,,,,,,0.7173,5,,,,,,,,high,3,0,3,0,1,,,,,,,,,
296041,2022-09-23_11h52.57.982,vts_reward_expectancy,2022.2.4,Win32,60.86797736,Chrome,1664,1110,,,,,0,1267,,,,,,,,,,,,,,,,,D,125,hexagon,1,0,,,,,,,,,,,,,,,,repeat,letter,lettRpt,d,Hi,,,,,,0.7865,5,,,,,,,,high,4,0,4,0,1,,,,,,,,,
296041,2022-09-23_11h52.57.982,vts_reward_expectancy,2022.2.4,Win32,60.86797736,Chrome,1664,1110,,,,,1,1268,,,,,,,,,,,,,,,,,U,181,triangle,1,0,,,,,,,,,,,,,,,,repeat,letter,lettRpt,f,Lo,,,,,,0.5675,5,,,,,,,,high,5,0,5,0,1,,,,,,,,,
296041,2022-09-23_11h52.57.982,vts_reward_expectancy,2022.2.4,Win32,60.86797736,Chrome,1664,1110,,,,,0,1268,,,,,,,,,,,,,,,,,B,167,hexagon,1,0,,,,,,,,,,,,,,,,switch,number,numSwt,k,Hi,,,,,,0.6694,5,,,,,,,,high,6,0,6,0,1,,,,,,,,,
296041,2022-09-23_11h52.57.982,vts_reward_expectancy,2022.2.4,Win32,60.86797736,Chrome,1664,1110,,,,,10,1278,,,,,,,,,,,,,,,,,S,146,triangle,1,0,,,,,,,,,,,,,,,,repeat,number,numRpt,j,Lo,,,,,,0.6012,5,,,,,,,,high,7,0,7,0,1,,,,,,,,,
296041,2022-09-23_11h52.57.982,vts_reward_expectancy,2022.2.4,Win32,60.86797736,Chrome,1664,1110,,,,,1,1279,,,,,,,,,,,,,,,,,F,132,triangle,1,0,,,,,,,,,,,,,,,,repeat,number,numRpt,j,Lo,,,,,,0.4856,5,,,,,,,,high,8,0,8,0,1,,,,,,,,,
296041,2022-09-23_11h52.57.982,vts_reward_expectancy,2022.2.4,Win32,60.86797736,Chrome,1664,1110,,,,,0,1279,,,,,,,,,,,,,,,,,H,139,hexagon,1,0,,,,,,,,,,,,,,,,repeat,number,numRpt,j,Hi,,,,,,0.5843,5,,,,,,,,high,9,0,9,0,1,,,,,,,,,
296041,2022-09-23_11h52.57.982,vts_reward_expectancy,2022.2.4,Win32,60.86797736,Chrome,1664,1110,,,,,0,1279,,,,,,,,,,,,,,,,,W,174,hexagon,1,0,,,,,,,,,,,,,,,,repeat,number,numRpt,k,Hi,,,,,,0.7017,5,,,,,,,,high,10,0,10,0,1,,,,,,,,,
296041,2022-09-23_11h52.57.982,vts_reward_expectancy,2022.2.4,Win32,60.86797736,Chrome,1664,1110,,,,,10,1289,,,,,,,,,,,,,,,,,Y,160,triangle,1,0,,,,,,,,,,,,,,,,repeat,number,numRpt,k,Lo,,,,,,0.6523,5,,,,,,,,high,11,0,11,0,1,,,,,,,,,
296041,2022-09-23_11h52.57.982,vts_reward_expectancy,2022.2.4,Win32,60.86797736,Chrome,1664,1110,,,,,0,1289,,,,,,,,,,,,,,,,,D,125,hexagon,1,0,,,,,,,,,,,,,,,,repeat,number,numRpt,j,Hi,,,,,,0.6347,5,,,,,,,,high,12,0,12,0,1,,,,,,,,,
296041,2022-09-23_11h52.57.982,vts_reward_expectancy,2022.2.4,Win32,60.86797736,Chrome,1664,1110,,,,,10,1299,,,,,,,,,,,,,,,,,U,181,triangle,1,0,,,,,,,,,,,,,,,,repeat,number,numRpt,k,Lo,,,,,,0.7188,5,,,,,,,,high,13,0,13,0,1,,,,,,,,,
296041,2022-09-23_11h52.57.982,vts_reward_expectancy,2022.2.4,Win32,60.86797736,Chrome,1664,1110,,,,,1,1300,,,,,,,,,,,,,,,,,B,167,triangle,1,0,,,,,,,,,,,,,,,,repeat,number,numRpt,k,Lo,,,,,,0.8691,5,,,,,,,,high,14,0,14,0,1,,,,,,,,,
296041,2022-09-23_11h52.57.982,vts_reward_expectancy,2022.2.4,Win32,60.86797736,Chrome,1664,1110,,,,,0,1300,,,,,,,,,,,,,,,,,S,146,hexagon,1,0,,,,,,,,,,,,,,,,repeat,number,numRpt,j,Hi,,,,,,0.5747,5,,,,,,,,high,15,0,15,0,1,,,,,,,,,
296041,2022-09-23_11h52.57.982,vts_reward_expectancy,2022.2.4,Win32,60.86797736,Chrome,1664,1110,,,,,10,1310,,,,,,,,,,,,,,,,,D,160,hexagon,1,0,,,,,,,,,,,,,,,,switch,letter,lettSwt,d,Hi,,,,,,0.5856,5,,,,,,,,high,16,0,16,0,1,,,,,,,,,
296041,2022-09-23_11h52.57.982,vts_reward_expectancy,2022.2.4,Win32,60.86797736,Chrome,1664,1110,,,,,10,1320,,,,,,,,,,,,,,,,,U,132,triangle,1,0,,,,,,,,,,,,,,,,repeat,letter,lettRpt,f,Lo,,,,,,0.5506,5,,,,,,,,high,17,0,17,0,1,,,,,,,,,
296041,2022-09-23_11h52.57.982,vts_reward_expectancy,2022.2.4,Win32,60.86797736,Chrome,1664,1110,,,,,1,1321,,,,,,,,,,,,,,,,,Y,181,triangle,1,0,,,,,,,,,,,,,,,,repeat,letter,lettRpt,f,Lo,,,,,,0.5869,5,,,,,,,,high,18,0,18,0,1,,,,,,,,,
296041,2022-09-23_11h52.57.982,vts_reward_expectancy,2022.2.4,Win32,60.86797736,Chrome,1664,1110,,,,,0,1321,,,,,,,,,,,,,,,,,W,139,hexagon,1,0,,,,,,,,,,,,,,,,repeat,letter,lettRpt,f,Hi,,,,,,0.7529,5,,,,,,,,high,19,0,19,0,1,,,,,,,,,
296041,2022-09-23_11h52.57.982,vts_reward_expectancy,2022.2.4,Win32,60.86797736,Chrome,1664,1110,,,,,1,1322,,,,,,,,,,,,,,,,,F,167,triangle,1,0,,,,,,,,,,,,,,,,repeat,letter,lettRpt,d,Lo,,,,,,1.0688,5,,,,,,,,high,20,0,20,0,1,,,,,,,,,
296041,2022-09-23_11h52.57.982,vts_reward_expectancy,2022.2.4,Win32,60.86797736,Chrome,1664,1110,,,,,0,1322,,,,,,,,,,,,,,,,,B,146,hexagon,1,0,,,,,,,,,,,,,,,,repeat,letter,lettRpt,d,Hi,,,,,,0.5847,5,,,,,,,,high,21,0,21,0,1,,,,,,,,,
296041,2022-09-23_11h52.57.982,vts_reward_expectancy,2022.2.4,Win32,60.86797736,Chrome,1664,1110,,,,,1,1323,,,,,,,,,,,,,,,,,S,125,triangle,1,0,,,,,,,,,,,,,,,,repeat,letter,lettRpt,f,Lo,,,,,,0.6193,5,,,,,,,,high,22,0,22,0,1,,,,,,,,,
296041,2022-09-23_11h52.57.982,vts_reward_expectancy,2022.2.4,Win32,60.86797736,Chrome,1664,1110,,,,,0,1323,,,,,,,,,,,,,,,,,H,174,hexagon,1,0,,,,,,,,,,,,,,,,repeat,letter,lettRpt,d,Hi,,,,,,0.619,5,,,,,,,,high,23,0,23,0,1,,,,,,,,,
296041,2022-09-23_11h52.57.982,vts_reward_expectancy,2022.2.4,Win32,60.86797736,Chrome,1664,1110,,,,,0,1323,,,,,,,,,,,,,,,,,W,181,hexagon,1,0,,,,,,,,,,,,,,,,repeat,letter,lettRpt,f,Hi,,,,,,0.6151,5,,,,,,,,high,24,0,24,0,1,,,,,,,,,
296041,2022-09-23_11h52.57.982,vts_reward_expectancy,2022.2.4,Win32,60.86797736,Chrome,1664,1110,,,,,1,1324,,,,,,,,,,,,,,,,,F,167,triangle,1,0,,,,,,,,,,,,,,,,repeat,letter,lettRpt,d,Lo,,,,,,0.7031,5,,,,,,,,high,25,0,25,0,1,,,,,,,,,
296041,2022-09-23_11h52.57.982,vts_reward_expectancy,2022.2.4,Win32,60.86797736,Chrome,1664,1110,,,,,10,1334,,,,,,,,,,,,,,,,,U,174,triangle,1,0,,,,,,,,,,,,,,,,repeat,letter,lettRpt,f,Lo,,,,,,0.6355,5,,,,,,,,high,26,0,26,0,1,,,,,,,,,
296041,2022-09-23_11h52.57.982,vts_reward_expectancy,2022.2.4,Win32,60.86797736,Chrome,1664,1110,,,,,0,1334,,,,,,,,,,,,,,,,,H,139,hexagon,1,0,,,,,,,,,,,,,,,,repeat,letter,lettRpt,d,Hi,,,,,,0.7352,5,,,,,,,,high,27,0,27,0,1,,,,,,,,,
296041,2022-09-23_11h52.57.982,vts_reward_expectancy,2022.2.4,Win32,60.86797736,Chrome,1664,1110,,,,,0,1334,,,,,,,,,,,,,,,,,S,125,hexagon,1,0,,,,,,,,,,,,,,,,repeat,letter,lettRpt,f,Hi,,,,,,0.6021,5,,,,,,,,high,28,0,28,0,1,,,,,,,,,
296041,2022-09-23_11h52.57.982,vts_reward_expectancy,2022.2.4,Win32,60.86797736,Chrome,1664,1110,,,,,1,1335,,,,,,,,,,,,,,,,,Y,160,triangle,1,0,,,,,,,,,,,,,,,,switch,number,numSwt,k,Lo,,,,,,0.6024,5,,,,,,,,high,29,0,29,0,1,,,,,,,,,
296041,2022-09-23_11h52.57.982,vts_reward_expectancy,2022.2.4,Win32,60.86797736,Chrome,1664,1110,,,,,1,1336,,,,,,,,,,,,,,,,,D,146,triangle,1,0,,,,,,,,,,,,,,,,repeat,number,numRpt,j,Lo,,,,,,0.5857,5,,,,,,,,high,30,0,30,0,1,,,,,,,,,
296041,2022-09-23_11h52.57.982,vts_reward_expectancy,2022.2.4,Win32,60.86797736,Chrome,1664,1110,,,,,0,1336,,,,,,,,,,,,,,,,,B,132,hexagon,1,0,,,,,,,,,,,,,,,,repeat,number,numRpt,j,Hi,,,,,,0.7346,5,,,,,,,,high,31,0,31,0,1,,,,,,,,,
296041,2022-09-23_11h52.57.982,vts_reward_expectancy,2022.2.4,Win32,60.86797736,Chrome,1664,1110,,,,,,,,,,,,,,,,,,,,,,,,,,,,,,,,,,,,,,,,,,,,,,,,,,,,,,6,,,,,,,,,,,,,,"I was asked to click a letter based off which number was above or under 153, click a letter based on if the letter on screen was closer to a or z, and identify the points for various shapes",2,the points for the shapes,4,3,,2,1664,1110
