participant,date,expName,psychopyVersion,OS,frameRate,browser,xResolution,yResolution,key_resp.keys,key_resp.rt,training_resp.keys,training_resp.rt,points_trial,points_cumul,trainBlock,training.thisRepN,training.thisTrialN,training.thisN,training.thisIndex,training.ran,LTriangleOpac,LCircleOpac,LHexagonOpac,LStarOpac,RTriangleOpac,RCircleOpac,RHexagonOpac,RStarOpac,LShape_ID,RShape_ID,curr_topStim,curr_bottStim,curr_shape,acc,E1,target_resp_prac1.keys,pracBlock,task1_prac_trials.thisRepN,task1_prac_trials.thisTrialN,task1_prac_trials.thisN,task1_prac_trials.thisIndex,task1_prac_trials.ran,target_resp_prac1.rt,target_resp_prac2.keys,target_resp_prac2.rt,task2_praac_trials.thisRepN,task2_praac_trials.thisTrialN,task2_praac_trials.thisN,task2_praac_trials.thisIndex,task2_praac_trials.ran,alt,task,condition,target_resp.keys,target_resp.rt,rewCond,vts_practice_trials.thisRepN,vts_practice_trials.thisTrialN,vts_practice_trials.thisN,vts_practice_trials.thisIndex,vts_practice_trials.ran,blockNum,trials_norew.thisRepN,trials_norew.thisTrialN,trials_norew.thisN,trials_norew.thisIndex,trials_norew.ran,key_resp_2.keys,key_resp_2.rt,rewExpect,trials_rew.thisRepN,trials_rew.thisTrialN,trials_rew.thisN,trials_rew.thisIndex,trials_rew.ran,Q1,Q2,Q2_text,Q3,Q4,Q5_text,Q5,xRes,yRes
293383,2022-10-03_11h41.12.619,vts_reward_expectancy,2022.2.4,MacIntel,60.0024001,Chrome,1470,956,,,,,,,,,,,,,,,,,,,,,,,,,,,,,,,,,,,,,,,,,,,,,,,,,,,,,,,,,,,,,,,,,,,,,,,,,,,,
293383,2022-10-03_11h41.12.619,vts_reward_expectancy,2022.2.4,MacIntel,60.0024001,Chrome,1470,956,space,6.7984,,,,,,,,,,,,,,,,,,,,,,,,,,,,,,,,,,,,,,,,,,,,,,,,,,,,,,,,,,,,,,,,,,,,,,,,,,
293383,2022-10-03_11h41.12.619,vts_reward_expectancy,2022.2.4,MacIntel,60.0024001,Chrome,1470,956,,,,,,,,,,,,,,,,,,,,,,,,,,,,,,,,,,,,,,,,,,,,,,,,,,,,,,,,,,,,,,,,,,,,,,,,,,,,
293383,2022-10-03_11h41.12.619,vts_reward_expectancy,2022.2.4,MacIntel,60.0024001,Chrome,1470,956,,,a,21.3248,1,1,0,0,0,0,3,1,0,1,0,0,1,0,0,0,circle,triangle,,,,,,,,,,,,,,,,,,,,,,,,,,,,,,,,,,,,,,,,,,,,,,,,,,,,,,
293383,2022-10-03_11h41.12.619,vts_reward_expectancy,2022.2.4,MacIntel,60.0024001,Chrome,1470,956,,,a,2.4175,10,11,0,0,1,1,5,1,0,1,0,0,0,0,0,1,circle,star,,,,,,,,,,,,,,,,,,,,,,,,,,,,,,,,,,,,,,,,,,,,,,,,,,,,,,
293383,2022-10-03_11h41.12.619,vts_reward_expectancy,2022.2.4,MacIntel,60.0024001,Chrome,1470,956,,,a,1.3672,10,21,0,0,2,2,8,1,0,0,1,0,0,0,0,1,hexagon,star,,,,,,,,,,,,,,,,,,,,,,,,,,,,,,,,,,,,,,,,,,,,,,,,,,,,,,
293383,2022-10-03_11h41.12.619,vts_reward_expectancy,2022.2.4,MacIntel,60.0024001,Chrome,1470,956,,,a,0.3752,10,31,0,0,3,3,6,1,0,0,1,0,1,0,0,0,hexagon,triangle,,,,,,,,,,,,,,,,,,,,,,,,,,,,,,,,,,,,,,,,,,,,,,,,,,,,,,
293383,2022-10-03_11h41.12.619,vts_reward_expectancy,2022.2.4,MacIntel,60.0024001,Chrome,1470,956,,,a,0.2838,10,41,0,0,4,4,1,1,1,0,0,0,0,0,1,0,triangle,hexagon,,,,,,,,,,,,,,,,,,,,,,,,,,,,,,,,,,,,,,,,,,,,,,,,,,,,,,
293383,2022-10-03_11h41.12.619,vts_reward_expectancy,2022.2.4,MacIntel,60.0024001,Chrome,1470,956,,,a,0.2828,10,51,0,0,5,5,0,1,1,0,0,0,0,1,0,0,triangle,circle,,,,,,,,,,,,,,,,,,,,,,,,,,,,,,,,,,,,,,,,,,,,,,,,,,,,,,
293383,2022-10-03_11h41.12.619,vts_reward_expectancy,2022.2.4,MacIntel,60.0024001,Chrome,1470,956,,,a,0.2907,1,52,0,0,6,6,7,1,0,0,1,0,0,1,0,0,hexagon,circle,,,,,,,,,,,,,,,,,,,,,,,,,,,,,,,,,,,,,,,,,,,,,,,,,,,,,,
293383,2022-10-03_11h41.12.619,vts_reward_expectancy,2022.2.4,MacIntel,60.0024001,Chrome,1470,956,,,a,0.292,1,53,0,0,7,7,11,1,0,0,0,1,0,0,1,0,star,hexagon,,,,,,,,,,,,,,,,,,,,,,,,,,,,,,,,,,,,,,,,,,,,,,,,,,,,,,
293383,2022-10-03_11h41.12.619,vts_reward_expectancy,2022.2.4,MacIntel,60.0024001,Chrome,1470,956,,,l,4.3583,10,63,0,0,8,8,10,1,0,0,0,1,0,1,0,0,star ,circle,,,,,,,,,,,,,,,,,,,,,,,,,,,,,,,,,,,,,,,,,,,,,,,,,,,,,,
293383,2022-10-03_11h41.12.619,vts_reward_expectancy,2022.2.4,MacIntel,60.0024001,Chrome,1470,956,,,l,1.0491,1,64,0,0,9,9,4,1,0,1,0,0,0,0,1,0,circle,hexagon,,,,,,,,,,,,,,,,,,,,,,,,,,,,,,,,,,,,,,,,,,,,,,,,,,,,,,
293383,2022-10-03_11h41.12.619,vts_reward_expectancy,2022.2.4,MacIntel,60.0024001,Chrome,1470,956,,,l,0.7905,10,74,0,0,10,10,9,1,0,0,0,1,1,0,0,0,star,triangle,,,,,,,,,,,,,,,,,,,,,,,,,,,,,,,,,,,,,,,,,,,,,,,,,,,,,,
293383,2022-10-03_11h41.12.619,vts_reward_expectancy,2022.2.4,MacIntel,60.0024001,Chrome,1470,956,,,a,0.5333,10,84,0,0,11,11,2,1,1,0,0,0,0,0,0,1,triangle,star,,,,,,,,,,,,,,,,,,,,,,,,,,,,,,,,,,,,,,,,,,,,,,,,,,,,,,
293383,2022-10-03_11h41.12.619,vts_reward_expectancy,2022.2.4,MacIntel,60.0024001,Chrome,1470,956,,,l,0.4002,1,85,0,1,0,12,8,1,0,0,1,0,0,0,0,1,hexagon,star,,,,,,,,,,,,,,,,,,,,,,,,,,,,,,,,,,,,,,,,,,,,,,,,,,,,,,
293383,2022-10-03_11h41.12.619,vts_reward_expectancy,2022.2.4,MacIntel,60.0024001,Chrome,1470,956,,,a,0.4682,1,86,0,1,1,13,9,1,0,0,0,1,1,0,0,0,star,triangle,,,,,,,,,,,,,,,,,,,,,,,,,,,,,,,,,,,,,,,,,,,,,,,,,,,,,,
293383,2022-10-03_11h41.12.619,vts_reward_expectancy,2022.2.4,MacIntel,60.0024001,Chrome,1470,956,,,l,0.4022,10,96,0,1,2,14,10,1,0,0,0,1,0,1,0,0,star ,circle,,,,,,,,,,,,,,,,,,,,,,,,,,,,,,,,,,,,,,,,,,,,,,,,,,,,,,
293383,2022-10-03_11h41.12.619,vts_reward_expectancy,2022.2.4,MacIntel,60.0024001,Chrome,1470,956,,,l,0.4673,1,97,0,1,3,15,2,1,1,0,0,0,0,0,0,1,triangle,star,,,,,,,,,,,,,,,,,,,,,,,,,,,,,,,,,,,,,,,,,,,,,,,,,,,,,,
293383,2022-10-03_11h41.12.619,vts_reward_expectancy,2022.2.4,MacIntel,60.0024001,Chrome,1470,956,,,a,0.5913,10,107,0,1,4,16,4,1,0,1,0,0,0,0,1,0,circle,hexagon,,,,,,,,,,,,,,,,,,,,,,,,,,,,,,,,,,,,,,,,,,,,,,,,,,,,,,
293383,2022-10-03_11h41.12.619,vts_reward_expectancy,2022.2.4,MacIntel,60.0024001,Chrome,1470,956,,,a,0.733,1,108,0,1,5,17,6,1,0,0,1,0,1,0,0,0,hexagon,triangle,,,,,,,,,,,,,,,,,,,,,,,,,,,,,,,,,,,,,,,,,,,,,,,,,,,,,,
293383,2022-10-03_11h41.12.619,vts_reward_expectancy,2022.2.4,MacIntel,60.0024001,Chrome,1470,956,,,a,1.5677,1,109,0,1,6,18,11,1,0,0,0,1,0,0,1,0,star,hexagon,,,,,,,,,,,,,,,,,,,,,,,,,,,,,,,,,,,,,,,,,,,,,,,,,,,,,,
293383,2022-10-03_11h41.12.619,vts_reward_expectancy,2022.2.4,MacIntel,60.0024001,Chrome,1470,956,,,a,10.0761,1,110,0,1,7,19,3,1,0,1,0,0,1,0,0,0,circle,triangle,,,,,,,,,,,,,,,,,,,,,,,,,,,,,,,,,,,,,,,,,,,,,,,,,,,,,,
293383,2022-10-03_11h41.12.619,vts_reward_expectancy,2022.2.4,MacIntel,60.0024001,Chrome,1470,956,,,a,2.8172,10,120,0,1,8,20,1,1,1,0,0,0,0,0,1,0,triangle,hexagon,,,,,,,,,,,,,,,,,,,,,,,,,,,,,,,,,,,,,,,,,,,,,,,,,,,,,,
293383,2022-10-03_11h41.12.619,vts_reward_expectancy,2022.2.4,MacIntel,60.0024001,Chrome,1470,956,,,a,7.2997,10,130,0,1,9,21,5,1,0,1,0,0,0,0,0,1,circle,star,,,,,,,,,,,,,,,,,,,,,,,,,,,,,,,,,,,,,,,,,,,,,,,,,,,,,,
293383,2022-10-03_11h41.12.619,vts_reward_expectancy,2022.2.4,MacIntel,60.0024001,Chrome,1470,956,,,l,1.5189,10,140,0,1,10,22,7,1,0,0,1,0,0,1,0,0,hexagon,circle,,,,,,,,,,,,,,,,,,,,,,,,,,,,,,,,,,,,,,,,,,,,,,,,,,,,,,
293383,2022-10-03_11h41.12.619,vts_reward_expectancy,2022.2.4,MacIntel,60.0024001,Chrome,1470,956,,,l,0.7506,1,141,0,1,11,23,0,1,1,0,0,0,0,1,0,0,triangle,circle,,,,,,,,,,,,,,,,,,,,,,,,,,,,,,,,,,,,,,,,,,,,,,,,,,,,,,
293383,2022-10-03_11h41.12.619,vts_reward_expectancy,2022.2.4,MacIntel,60.0024001,Chrome,1470,956,,,a,0.8017,1,142,0,2,0,24,10,1,0,0,0,1,0,1,0,0,star ,circle,,,,,,,,,,,,,,,,,,,,,,,,,,,,,,,,,,,,,,,,,,,,,,,,,,,,,,
293383,2022-10-03_11h41.12.619,vts_reward_expectancy,2022.2.4,MacIntel,60.0024001,Chrome,1470,956,,,l,0.7656,10,152,0,2,1,25,1,1,1,0,0,0,0,0,1,0,triangle,hexagon,,,,,,,,,,,,,,,,,,,,,,,,,,,,,,,,,,,,,,,,,,,,,,,,,,,,,,
293383,2022-10-03_11h41.12.619,vts_reward_expectancy,2022.2.4,MacIntel,60.0024001,Chrome,1470,956,,,a,0.2539,1,153,0,2,2,26,4,1,0,1,0,0,0,0,1,0,circle,hexagon,,,,,,,,,,,,,,,,,,,,,,,,,,,,,,,,,,,,,,,,,,,,,,,,,,,,,,
293383,2022-10-03_11h41.12.619,vts_reward_expectancy,2022.2.4,MacIntel,60.0024001,Chrome,1470,956,,,l,0.5567,10,163,0,2,3,27,6,1,0,0,1,0,1,0,0,0,hexagon,triangle,,,,,,,,,,,,,,,,,,,,,,,,,,,,,,,,,,,,,,,,,,,,,,,,,,,,,,
293383,2022-10-03_11h41.12.619,vts_reward_expectancy,2022.2.4,MacIntel,60.0024001,Chrome,1470,956,,,a,0.8539,1,164,0,2,4,28,7,1,0,0,1,0,0,1,0,0,hexagon,circle,,,,,,,,,,,,,,,,,,,,,,,,,,,,,,,,,,,,,,,,,,,,,,,,,,,,,,
293383,2022-10-03_11h41.12.619,vts_reward_expectancy,2022.2.4,MacIntel,60.0024001,Chrome,1470,956,,,l,0.8843,10,174,0,2,5,29,0,1,1,0,0,0,0,1,0,0,triangle,circle,,,,,,,,,,,,,,,,,,,,,,,,,,,,,,,,,,,,,,,,,,,,,,,,,,,,,,
293383,2022-10-03_11h41.12.619,vts_reward_expectancy,2022.2.4,MacIntel,60.0024001,Chrome,1470,956,,,a,0.6835,10,184,0,2,6,30,11,1,0,0,0,1,0,0,1,0,star,hexagon,,,,,,,,,,,,,,,,,,,,,,,,,,,,,,,,,,,,,,,,,,,,,,,,,,,,,,
293383,2022-10-03_11h41.12.619,vts_reward_expectancy,2022.2.4,MacIntel,60.0024001,Chrome,1470,956,,,a,0.8171,10,194,0,2,7,31,8,1,0,0,1,0,0,0,0,1,hexagon,star,,,,,,,,,,,,,,,,,,,,,,,,,,,,,,,,,,,,,,,,,,,,,,,,,,,,,,
293383,2022-10-03_11h41.12.619,vts_reward_expectancy,2022.2.4,MacIntel,60.0024001,Chrome,1470,956,,,a,1.1535,10,204,0,2,8,32,5,1,0,1,0,0,0,0,0,1,circle,star,,,,,,,,,,,,,,,,,,,,,,,,,,,,,,,,,,,,,,,,,,,,,,,,,,,,,,
293383,2022-10-03_11h41.12.619,vts_reward_expectancy,2022.2.4,MacIntel,60.0024001,Chrome,1470,956,,,a,3.9826,1,205,0,2,9,33,3,1,0,1,0,0,1,0,0,0,circle,triangle,,,,,,,,,,,,,,,,,,,,,,,,,,,,,,,,,,,,,,,,,,,,,,,,,,,,,,
293383,2022-10-03_11h41.12.619,vts_reward_expectancy,2022.2.4,MacIntel,60.0024001,Chrome,1470,956,,,l,1.3174,1,206,0,2,10,34,9,1,0,0,0,1,1,0,0,0,star,triangle,,,,,,,,,,,,,,,,,,,,,,,,,,,,,,,,,,,,,,,,,,,,,,,,,,,,,,
293383,2022-10-03_11h41.12.619,vts_reward_expectancy,2022.2.4,MacIntel,60.0024001,Chrome,1470,956,,,a,2.3008,10,216,0,2,11,35,2,1,1,0,0,0,0,0,0,1,triangle,star,,,,,,,,,,,,,,,,,,,,,,,,,,,,,,,,,,,,,,,,,,,,,,,,,,,,,,
293383,2022-10-03_11h41.12.619,vts_reward_expectancy,2022.2.4,MacIntel,60.0024001,Chrome,1470,956,,,a,0.634,10,226,1,0,0,0,2,1,1,0,0,0,0,0,0,1,triangle,star,,,,,,,,,,,,,,,,,,,,,,,,,,,,,,,,,,,,,,,,,,,,,,,,,,,,,,
293383,2022-10-03_11h41.12.619,vts_reward_expectancy,2022.2.4,MacIntel,60.0024001,Chrome,1470,956,,,l,0.9008,10,236,1,0,1,1,6,1,0,0,1,0,1,0,0,0,hexagon,triangle,,,,,,,,,,,,,,,,,,,,,,,,,,,,,,,,,,,,,,,,,,,,,,,,,,,,,,
293383,2022-10-03_11h41.12.619,vts_reward_expectancy,2022.2.4,MacIntel,60.0024001,Chrome,1470,956,,,l,1.1402,1,237,1,0,2,2,5,1,0,1,0,0,0,0,0,1,circle,star,,,,,,,,,,,,,,,,,,,,,,,,,,,,,,,,,,,,,,,,,,,,,,,,,,,,,,
293383,2022-10-03_11h41.12.619,vts_reward_expectancy,2022.2.4,MacIntel,60.0024001,Chrome,1470,956,,,a,1.3378,1,238,1,0,3,3,3,1,0,1,0,0,1,0,0,0,circle,triangle,,,,,,,,,,,,,,,,,,,,,,,,,,,,,,,,,,,,,,,,,,,,,,,,,,,,,,
293383,2022-10-03_11h41.12.619,vts_reward_expectancy,2022.2.4,MacIntel,60.0024001,Chrome,1470,956,,,l,0.4203,10,248,1,0,4,4,4,1,0,1,0,0,0,0,1,0,circle,hexagon,,,,,,,,,,,,,,,,,,,,,,,,,,,,,,,,,,,,,,,,,,,,,,,,,,,,,,
293383,2022-10-03_11h41.12.619,vts_reward_expectancy,2022.2.4,MacIntel,60.0024001,Chrome,1470,956,,,a,0.7341,10,258,1,0,5,5,10,1,0,0,0,1,0,1,0,0,star ,circle,,,,,,,,,,,,,,,,,,,,,,,,,,,,,,,,,,,,,,,,,,,,,,,,,,,,,,
293383,2022-10-03_11h41.12.619,vts_reward_expectancy,2022.2.4,MacIntel,60.0024001,Chrome,1470,956,,,a,0.6823,1,259,1,0,6,6,7,1,0,0,1,0,0,1,0,0,hexagon,circle,,,,,,,,,,,,,,,,,,,,,,,,,,,,,,,,,,,,,,,,,,,,,,,,,,,,,,
293383,2022-10-03_11h41.12.619,vts_reward_expectancy,2022.2.4,MacIntel,60.0024001,Chrome,1470,956,,,a,0.5022,10,269,1,0,7,7,1,1,1,0,0,0,0,0,1,0,triangle,hexagon,,,,,,,,,,,,,,,,,,,,,,,,,,,,,,,,,,,,,,,,,,,,,,,,,,,,,,
293383,2022-10-03_11h41.12.619,vts_reward_expectancy,2022.2.4,MacIntel,60.0024001,Chrome,1470,956,,,l,0.5584,1,270,1,0,8,8,9,1,0,0,0,1,1,0,0,0,star,triangle,,,,,,,,,,,,,,,,,,,,,,,,,,,,,,,,,,,,,,,,,,,,,,,,,,,,,,
293383,2022-10-03_11h41.12.619,vts_reward_expectancy,2022.2.4,MacIntel,60.0024001,Chrome,1470,956,,,a,0.6578,1,271,1,0,9,9,11,1,0,0,0,1,0,0,1,0,star,hexagon,,,,,,,,,,,,,,,,,,,,,,,,,,,,,,,,,,,,,,,,,,,,,,,,,,,,,,
293383,2022-10-03_11h41.12.619,vts_reward_expectancy,2022.2.4,MacIntel,60.0024001,Chrome,1470,956,,,a,0.8695,10,281,1,0,10,10,0,1,1,0,0,0,0,1,0,0,triangle,circle,,,,,,,,,,,,,,,,,,,,,,,,,,,,,,,,,,,,,,,,,,,,,,,,,,,,,,
293383,2022-10-03_11h41.12.619,vts_reward_expectancy,2022.2.4,MacIntel,60.0024001,Chrome,1470,956,,,l,0.7019,1,282,1,0,11,11,8,1,0,0,1,0,0,0,0,1,hexagon,star,,,,,,,,,,,,,,,,,,,,,,,,,,,,,,,,,,,,,,,,,,,,,,,,,,,,,,
293383,2022-10-03_11h41.12.619,vts_reward_expectancy,2022.2.4,MacIntel,60.0024001,Chrome,1470,956,,,a,0.7888,10,292,1,1,0,12,6,1,0,0,1,0,1,0,0,0,hexagon,triangle,,,,,,,,,,,,,,,,,,,,,,,,,,,,,,,,,,,,,,,,,,,,,,,,,,,,,,
293383,2022-10-03_11h41.12.619,vts_reward_expectancy,2022.2.4,MacIntel,60.0024001,Chrome,1470,956,,,l,0.8241,10,302,1,1,1,13,5,1,0,1,0,0,0,0,0,1,circle,star,,,,,,,,,,,,,,,,,,,,,,,,,,,,,,,,,,,,,,,,,,,,,,,,,,,,,,
293383,2022-10-03_11h41.12.619,vts_reward_expectancy,2022.2.4,MacIntel,60.0024001,Chrome,1470,956,,,l,1.168,1,303,1,1,2,14,2,1,1,0,0,0,0,0,0,1,triangle,star,,,,,,,,,,,,,,,,,,,,,,,,,,,,,,,,,,,,,,,,,,,,,,,,,,,,,,
293383,2022-10-03_11h41.12.619,vts_reward_expectancy,2022.2.4,MacIntel,60.0024001,Chrome,1470,956,,,l,0.6741,10,313,1,1,3,15,3,1,0,1,0,0,1,0,0,0,circle,triangle,,,,,,,,,,,,,,,,,,,,,,,,,,,,,,,,,,,,,,,,,,,,,,,,,,,,,,
293383,2022-10-03_11h41.12.619,vts_reward_expectancy,2022.2.4,MacIntel,60.0024001,Chrome,1470,956,,,a,0.8894,1,314,1,1,4,16,9,1,0,0,0,1,1,0,0,0,star,triangle,,,,,,,,,,,,,,,,,,,,,,,,,,,,,,,,,,,,,,,,,,,,,,,,,,,,,,
293383,2022-10-03_11h41.12.619,vts_reward_expectancy,2022.2.4,MacIntel,60.0024001,Chrome,1470,956,,,l,0.9072,10,324,1,1,5,17,0,1,1,0,0,0,0,1,0,0,triangle,circle,,,,,,,,,,,,,,,,,,,,,,,,,,,,,,,,,,,,,,,,,,,,,,,,,,,,,,
293383,2022-10-03_11h41.12.619,vts_reward_expectancy,2022.2.4,MacIntel,60.0024001,Chrome,1470,956,,,l,1.1758,10,334,1,1,6,18,8,1,0,0,1,0,0,0,0,1,hexagon,star,,,,,,,,,,,,,,,,,,,,,,,,,,,,,,,,,,,,,,,,,,,,,,,,,,,,,,
293383,2022-10-03_11h41.12.619,vts_reward_expectancy,2022.2.4,MacIntel,60.0024001,Chrome,1470,956,,,a,0.6545,1,335,1,1,7,19,11,1,0,0,0,1,0,0,1,0,star,hexagon,,,,,,,,,,,,,,,,,,,,,,,,,,,,,,,,,,,,,,,,,,,,,,,,,,,,,,
293383,2022-10-03_11h41.12.619,vts_reward_expectancy,2022.2.4,MacIntel,60.0024001,Chrome,1470,956,,,a,0.9108,1,336,1,1,8,20,7,1,0,0,1,0,0,1,0,0,hexagon,circle,,,,,,,,,,,,,,,,,,,,,,,,,,,,,,,,,,,,,,,,,,,,,,,,,,,,,,
293383,2022-10-03_11h41.12.619,vts_reward_expectancy,2022.2.4,MacIntel,60.0024001,Chrome,1470,956,,,l,0.7013,1,337,1,1,9,21,1,1,1,0,0,0,0,0,1,0,triangle,hexagon,,,,,,,,,,,,,,,,,,,,,,,,,,,,,,,,,,,,,,,,,,,,,,,,,,,,,,
293383,2022-10-03_11h41.12.619,vts_reward_expectancy,2022.2.4,MacIntel,60.0024001,Chrome,1470,956,,,a,0.6901,1,338,1,1,10,22,10,1,0,0,0,1,0,1,0,0,star ,circle,,,,,,,,,,,,,,,,,,,,,,,,,,,,,,,,,,,,,,,,,,,,,,,,,,,,,,
293383,2022-10-03_11h41.12.619,vts_reward_expectancy,2022.2.4,MacIntel,60.0024001,Chrome,1470,956,,,l,1.4191,1,339,1,1,11,23,4,1,0,1,0,0,0,0,1,0,circle,hexagon,,,,,,,,,,,,,,,,,,,,,,,,,,,,,,,,,,,,,,,,,,,,,,,,,,,,,,
293383,2022-10-03_11h41.12.619,vts_reward_expectancy,2022.2.4,MacIntel,60.0024001,Chrome,1470,956,,,l,0.3696,10,349,1,2,0,24,7,1,0,0,1,0,0,1,0,0,hexagon,circle,,,,,,,,,,,,,,,,,,,,,,,,,,,,,,,,,,,,,,,,,,,,,,,,,,,,,,
293383,2022-10-03_11h41.12.619,vts_reward_expectancy,2022.2.4,MacIntel,60.0024001,Chrome,1470,956,,,l,1.0702,1,350,1,2,1,25,1,1,1,0,0,0,0,0,1,0,triangle,hexagon,,,,,,,,,,,,,,,,,,,,,,,,,,,,,,,,,,,,,,,,,,,,,,,,,,,,,,
293383,2022-10-03_11h41.12.619,vts_reward_expectancy,2022.2.4,MacIntel,60.0024001,Chrome,1470,956,,,l,3.3907,10,360,1,2,2,26,10,1,0,0,0,1,0,1,0,0,star ,circle,,,,,,,,,,,,,,,,,,,,,,,,,,,,,,,,,,,,,,,,,,,,,,,,,,,,,,
293383,2022-10-03_11h41.12.619,vts_reward_expectancy,2022.2.4,MacIntel,60.0024001,Chrome,1470,956,,,a,0.0575,10,370,1,2,3,27,0,1,1,0,0,0,0,1,0,0,triangle,circle,,,,,,,,,,,,,,,,,,,,,,,,,,,,,,,,,,,,,,,,,,,,,,,,,,,,,,
293383,2022-10-03_11h41.12.619,vts_reward_expectancy,2022.2.4,MacIntel,60.0024001,Chrome,1470,956,,,a,0.4658,1,371,1,2,4,28,6,1,0,0,1,0,1,0,0,0,hexagon,triangle,,,,,,,,,,,,,,,,,,,,,,,,,,,,,,,,,,,,,,,,,,,,,,,,,,,,,,
293383,2022-10-03_11h41.12.619,vts_reward_expectancy,2022.2.4,MacIntel,60.0024001,Chrome,1470,956,,,l,3.8331,1,372,1,2,5,29,5,1,0,1,0,0,0,0,0,1,circle,star,,,,,,,,,,,,,,,,,,,,,,,,,,,,,,,,,,,,,,,,,,,,,,,,,,,,,,
293383,2022-10-03_11h41.12.619,vts_reward_expectancy,2022.2.4,MacIntel,60.0024001,Chrome,1470,956,,,l,0.5849,1,373,1,2,6,30,11,1,0,0,0,1,0,0,1,0,star,hexagon,,,,,,,,,,,,,,,,,,,,,,,,,,,,,,,,,,,,,,,,,,,,,,,,,,,,,,
293383,2022-10-03_11h41.12.619,vts_reward_expectancy,2022.2.4,MacIntel,60.0024001,Chrome,1470,956,,,l,2.6665,1,374,1,2,7,31,8,1,0,0,1,0,0,0,0,1,hexagon,star,,,,,,,,,,,,,,,,,,,,,,,,,,,,,,,,,,,,,,,,,,,,,,,,,,,,,,
293383,2022-10-03_11h41.12.619,vts_reward_expectancy,2022.2.4,MacIntel,60.0024001,Chrome,1470,956,,,a,0.3998,1,375,1,2,8,32,4,1,0,1,0,0,0,0,1,0,circle,hexagon,,,,,,,,,,,,,,,,,,,,,,,,,,,,,,,,,,,,,,,,,,,,,,,,,,,,,,
293383,2022-10-03_11h41.12.619,vts_reward_expectancy,2022.2.4,MacIntel,60.0024001,Chrome,1470,956,,,a,0.4832,10,385,1,2,9,33,3,1,0,1,0,0,1,0,0,0,circle,triangle,,,,,,,,,,,,,,,,,,,,,,,,,,,,,,,,,,,,,,,,,,,,,,,,,,,,,,
293383,2022-10-03_11h41.12.619,vts_reward_expectancy,2022.2.4,MacIntel,60.0024001,Chrome,1470,956,,,l,3.9326,10,395,1,2,10,34,9,1,0,0,0,1,1,0,0,0,star,triangle,,,,,,,,,,,,,,,,,,,,,,,,,,,,,,,,,,,,,,,,,,,,,,,,,,,,,,
293383,2022-10-03_11h41.12.619,vts_reward_expectancy,2022.2.4,MacIntel,60.0024001,Chrome,1470,956,,,l,5.4499,10,405,1,2,11,35,2,1,1,0,0,0,0,0,0,1,triangle,star,,,,,,,,,,,,,,,,,,,,,,,,,,,,,,,,,,,,,,,,,,,,,,,,,,,,,,
293383,2022-10-03_11h41.12.619,vts_reward_expectancy,2022.2.4,MacIntel,60.0024001,Chrome,1470,956,,,l,0.6341,10,415,2,0,0,0,7,1,0,0,1,0,0,1,0,0,hexagon,circle,,,,,,,,,,,,,,,,,,,,,,,,,,,,,,,,,,,,,,,,,,,,,,,,,,,,,,
293383,2022-10-03_11h41.12.619,vts_reward_expectancy,2022.2.4,MacIntel,60.0024001,Chrome,1470,956,,,l,0.3508,10,425,2,0,1,1,3,1,0,1,0,0,1,0,0,0,circle,triangle,,,,,,,,,,,,,,,,,,,,,,,,,,,,,,,,,,,,,,,,,,,,,,,,,,,,,,
293383,2022-10-03_11h41.12.619,vts_reward_expectancy,2022.2.4,MacIntel,60.0024001,Chrome,1470,956,,,a,0.7588,10,435,2,0,2,2,2,1,1,0,0,0,0,0,0,1,triangle,star,,,,,,,,,,,,,,,,,,,,,,,,,,,,,,,,,,,,,,,,,,,,,,,,,,,,,,
293383,2022-10-03_11h41.12.619,vts_reward_expectancy,2022.2.4,MacIntel,60.0024001,Chrome,1470,956,,,a,0.326,1,436,2,0,3,3,11,1,0,0,0,1,0,0,1,0,star,hexagon,,,,,,,,,,,,,,,,,,,,,,,,,,,,,,,,,,,,,,,,,,,,,,,,,,,,,,
293383,2022-10-03_11h41.12.619,vts_reward_expectancy,2022.2.4,MacIntel,60.0024001,Chrome,1470,956,,,l,0.2996,1,437,2,0,4,4,8,1,0,0,1,0,0,0,0,1,hexagon,star,,,,,,,,,,,,,,,,,,,,,,,,,,,,,,,,,,,,,,,,,,,,,,,,,,,,,,
293383,2022-10-03_11h41.12.619,vts_reward_expectancy,2022.2.4,MacIntel,60.0024001,Chrome,1470,956,,,l,0.6165,1,438,2,0,5,5,0,1,1,0,0,0,0,1,0,0,triangle,circle,,,,,,,,,,,,,,,,,,,,,,,,,,,,,,,,,,,,,,,,,,,,,,,,,,,,,,
293383,2022-10-03_11h41.12.619,vts_reward_expectancy,2022.2.4,MacIntel,60.0024001,Chrome,1470,956,,,a,0.5235,1,439,2,0,6,6,10,1,0,0,0,1,0,1,0,0,star ,circle,,,,,,,,,,,,,,,,,,,,,,,,,,,,,,,,,,,,,,,,,,,,,,,,,,,,,,
293383,2022-10-03_11h41.12.619,vts_reward_expectancy,2022.2.4,MacIntel,60.0024001,Chrome,1470,956,,,l,0.1575,1,440,2,0,7,7,6,1,0,0,1,0,1,0,0,0,hexagon,triangle,,,,,,,,,,,,,,,,,,,,,,,,,,,,,,,,,,,,,,,,,,,,,,,,,,,,,,
293383,2022-10-03_11h41.12.619,vts_reward_expectancy,2022.2.4,MacIntel,60.0024001,Chrome,1470,956,,,a,0.2269,10,450,2,0,8,8,1,1,1,0,0,0,0,0,1,0,triangle,hexagon,,,,,,,,,,,,,,,,,,,,,,,,,,,,,,,,,,,,,,,,,,,,,,,,,,,,,,
293383,2022-10-03_11h41.12.619,vts_reward_expectancy,2022.2.4,MacIntel,60.0024001,Chrome,1470,956,,,l,0.5101,10,460,2,0,9,9,9,1,0,0,0,1,1,0,0,0,star,triangle,,,,,,,,,,,,,,,,,,,,,,,,,,,,,,,,,,,,,,,,,,,,,,,,,,,,,,
293383,2022-10-03_11h41.12.619,vts_reward_expectancy,2022.2.4,MacIntel,60.0024001,Chrome,1470,956,,,a,0.3506,10,470,2,0,10,10,5,1,0,1,0,0,0,0,0,1,circle,star,,,,,,,,,,,,,,,,,,,,,,,,,,,,,,,,,,,,,,,,,,,,,,,,,,,,,,
293383,2022-10-03_11h41.12.619,vts_reward_expectancy,2022.2.4,MacIntel,60.0024001,Chrome,1470,956,,,l,0.2899,10,480,2,0,11,11,4,1,0,1,0,0,0,0,1,0,circle,hexagon,,,,,,,,,,,,,,,,,,,,,,,,,,,,,,,,,,,,,,,,,,,,,,,,,,,,,,
293383,2022-10-03_11h41.12.619,vts_reward_expectancy,2022.2.4,MacIntel,60.0024001,Chrome,1470,956,,,a,0.8667,10,490,2,1,0,12,10,1,0,0,0,1,0,1,0,0,star ,circle,,,,,,,,,,,,,,,,,,,,,,,,,,,,,,,,,,,,,,,,,,,,,,,,,,,,,,
293383,2022-10-03_11h41.12.619,vts_reward_expectancy,2022.2.4,MacIntel,60.0024001,Chrome,1470,956,,,a,0.7865,10,500,2,1,1,13,3,1,0,1,0,0,1,0,0,0,circle,triangle,,,,,,,,,,,,,,,,,,,,,,,,,,,,,,,,,,,,,,,,,,,,,,,,,,,,,,
293383,2022-10-03_11h41.12.619,vts_reward_expectancy,2022.2.4,MacIntel,60.0024001,Chrome,1470,956,,,a,0.2343,1,501,2,1,2,14,0,1,1,0,0,0,0,1,0,0,triangle,circle,,,,,,,,,,,,,,,,,,,,,,,,,,,,,,,,,,,,,,,,,,,,,,,,,,,,,,
293383,2022-10-03_11h41.12.619,vts_reward_expectancy,2022.2.4,MacIntel,60.0024001,Chrome,1470,956,,,l,0.3068,1,502,2,1,3,15,7,1,0,0,1,0,0,1,0,0,hexagon,circle,,,,,,,,,,,,,,,,,,,,,,,,,,,,,,,,,,,,,,,,,,,,,,,,,,,,,,
293383,2022-10-03_11h41.12.619,vts_reward_expectancy,2022.2.4,MacIntel,60.0024001,Chrome,1470,956,,,a,0.2996,1,503,2,1,4,16,2,1,1,0,0,0,0,0,0,1,triangle,star,,,,,,,,,,,,,,,,,,,,,,,,,,,,,,,,,,,,,,,,,,,,,,,,,,,,,,
293383,2022-10-03_11h41.12.619,vts_reward_expectancy,2022.2.4,MacIntel,60.0024001,Chrome,1470,956,,,l,0.3242,1,504,2,1,5,17,4,1,0,1,0,0,0,0,1,0,circle,hexagon,,,,,,,,,,,,,,,,,,,,,,,,,,,,,,,,,,,,,,,,,,,,,,,,,,,,,,
293383,2022-10-03_11h41.12.619,vts_reward_expectancy,2022.2.4,MacIntel,60.0024001,Chrome,1470,956,,,a,0.1708,1,505,2,1,6,18,5,1,0,1,0,0,0,0,0,1,circle,star,,,,,,,,,,,,,,,,,,,,,,,,,,,,,,,,,,,,,,,,,,,,,,,,,,,,,,
293383,2022-10-03_11h41.12.619,vts_reward_expectancy,2022.2.4,MacIntel,60.0024001,Chrome,1470,956,,,a,0.2998,1,506,2,1,7,19,11,1,0,0,0,1,0,0,1,0,star,hexagon,,,,,,,,,,,,,,,,,,,,,,,,,,,,,,,,,,,,,,,,,,,,,,,,,,,,,,
293383,2022-10-03_11h41.12.619,vts_reward_expectancy,2022.2.4,MacIntel,60.0024001,Chrome,1470,956,,,l,0.2329,1,507,2,1,8,20,1,1,1,0,0,0,0,0,1,0,triangle,hexagon,,,,,,,,,,,,,,,,,,,,,,,,,,,,,,,,,,,,,,,,,,,,,,,,,,,,,,
293383,2022-10-03_11h41.12.619,vts_reward_expectancy,2022.2.4,MacIntel,60.0024001,Chrome,1470,956,,,a,0.366,10,517,2,1,9,21,6,1,0,0,1,0,1,0,0,0,hexagon,triangle,,,,,,,,,,,,,,,,,,,,,,,,,,,,,,,,,,,,,,,,,,,,,,,,,,,,,,
293383,2022-10-03_11h41.12.619,vts_reward_expectancy,2022.2.4,MacIntel,60.0024001,Chrome,1470,956,,,a,1.3995,1,518,2,1,10,22,9,1,0,0,0,1,1,0,0,0,star,triangle,,,,,,,,,,,,,,,,,,,,,,,,,,,,,,,,,,,,,,,,,,,,,,,,,,,,,,
293383,2022-10-03_11h41.12.619,vts_reward_expectancy,2022.2.4,MacIntel,60.0024001,Chrome,1470,956,,,l,0.0169,1,519,2,1,11,23,8,1,0,0,1,0,0,0,0,1,hexagon,star,,,,,,,,,,,,,,,,,,,,,,,,,,,,,,,,,,,,,,,,,,,,,,,,,,,,,,
293383,2022-10-03_11h41.12.619,vts_reward_expectancy,2022.2.4,MacIntel,60.0024001,Chrome,1470,956,,,l,1.6678,10,529,2,2,0,24,6,1,0,0,1,0,1,0,0,0,hexagon,triangle,,,,,,,,,,,,,,,,,,,,,,,,,,,,,,,,,,,,,,,,,,,,,,,,,,,,,,
293383,2022-10-03_11h41.12.619,vts_reward_expectancy,2022.2.4,MacIntel,60.0024001,Chrome,1470,956,,,l,0.6826,10,539,2,2,1,25,10,1,0,0,0,1,0,1,0,0,star ,circle,,,,,,,,,,,,,,,,,,,,,,,,,,,,,,,,,,,,,,,,,,,,,,,,,,,,,,
293383,2022-10-03_11h41.12.619,vts_reward_expectancy,2022.2.4,MacIntel,60.0024001,Chrome,1470,956,,,a,2.987,10,549,2,2,2,26,11,1,0,0,0,1,0,0,1,0,star,hexagon,,,,,,,,,,,,,,,,,,,,,,,,,,,,,,,,,,,,,,,,,,,,,,,,,,,,,,
293383,2022-10-03_11h41.12.619,vts_reward_expectancy,2022.2.4,MacIntel,60.0024001,Chrome,1470,956,,,a,0.0658,10,559,2,2,3,27,9,1,0,0,0,1,1,0,0,0,star,triangle,,,,,,,,,,,,,,,,,,,,,,,,,,,,,,,,,,,,,,,,,,,,,,,,,,,,,,
293383,2022-10-03_11h41.12.619,vts_reward_expectancy,2022.2.4,MacIntel,60.0024001,Chrome,1470,956,,,l,0.985,1,560,2,2,4,28,1,1,1,0,0,0,0,0,1,0,triangle,hexagon,,,,,,,,,,,,,,,,,,,,,,,,,,,,,,,,,,,,,,,,,,,,,,,,,,,,,,
293383,2022-10-03_11h41.12.619,vts_reward_expectancy,2022.2.4,MacIntel,60.0024001,Chrome,1470,956,,,l,0.7845,1,561,2,2,5,29,5,1,0,1,0,0,0,0,0,1,circle,star,,,,,,,,,,,,,,,,,,,,,,,,,,,,,,,,,,,,,,,,,,,,,,,,,,,,,,
293383,2022-10-03_11h41.12.619,vts_reward_expectancy,2022.2.4,MacIntel,60.0024001,Chrome,1470,956,,,a,1.0843,10,571,2,2,6,30,3,1,0,1,0,0,1,0,0,0,circle,triangle,,,,,,,,,,,,,,,,,,,,,,,,,,,,,,,,,,,,,,,,,,,,,,,,,,,,,,
293383,2022-10-03_11h41.12.619,vts_reward_expectancy,2022.2.4,MacIntel,60.0024001,Chrome,1470,956,,,a,1.3671,10,581,2,2,7,31,2,1,1,0,0,0,0,0,0,1,triangle,star,,,,,,,,,,,,,,,,,,,,,,,,,,,,,,,,,,,,,,,,,,,,,,,,,,,,,,
293383,2022-10-03_11h41.12.619,vts_reward_expectancy,2022.2.4,MacIntel,60.0024001,Chrome,1470,956,,,l,0.2664,10,591,2,2,8,32,0,1,1,0,0,0,0,1,0,0,triangle,circle,,,,,,,,,,,,,,,,,,,,,,,,,,,,,,,,,,,,,,,,,,,,,,,,,,,,,,
293383,2022-10-03_11h41.12.619,vts_reward_expectancy,2022.2.4,MacIntel,60.0024001,Chrome,1470,956,,,l,0.8834,1,592,2,2,9,33,4,1,0,1,0,0,0,0,1,0,circle,hexagon,,,,,,,,,,,,,,,,,,,,,,,,,,,,,,,,,,,,,,,,,,,,,,,,,,,,,,
293383,2022-10-03_11h41.12.619,vts_reward_expectancy,2022.2.4,MacIntel,60.0024001,Chrome,1470,956,,,a,0.2906,1,593,2,2,10,34,8,1,0,0,1,0,0,0,0,1,hexagon,star,,,,,,,,,,,,,,,,,,,,,,,,,,,,,,,,,,,,,,,,,,,,,,,,,,,,,,
293383,2022-10-03_11h41.12.619,vts_reward_expectancy,2022.2.4,MacIntel,60.0024001,Chrome,1470,956,,,l,0.5844,1,594,2,2,11,35,7,1,0,0,1,0,0,1,0,0,hexagon,circle,,,,,,,,,,,,,,,,,,,,,,,,,,,,,,,,,,,,,,,,,,,,,,,,,,,,,,
293383,2022-10-03_11h41.12.619,vts_reward_expectancy,2022.2.4,MacIntel,60.0024001,Chrome,1470,956,,,,,,,,,,,,,,,,,,,,,,,W,181,triangle,0,0,,0,0,0,0,0,1,,,,,,,,,,,,,,,,,,,,,,,,,,,,,,,,,,,,,,,,,,
293383,2022-10-03_11h41.12.619,vts_reward_expectancy,2022.2.4,MacIntel,60.0024001,Chrome,1470,956,,,,,,,,,,,,,,,,,,,,,,,D,167,circle,1,1,d,0,1,0,1,0,1,0.7135,,,,,,,,,,,,,,,,,,,,,,,,,,,,,,,,,,,,,,,,,
293383,2022-10-03_11h41.12.619,vts_reward_expectancy,2022.2.4,MacIntel,60.0024001,Chrome,1470,956,,,,,,,,,,,,,,,,,,,,,,,F,146,hexagon,1,0,d,0,2,0,2,0,1,0.9973,,,,,,,,,,,,,,,,,,,,,,,,,,,,,,,,,,,,,,,,,
293383,2022-10-03_11h41.12.619,vts_reward_expectancy,2022.2.4,MacIntel,60.0024001,Chrome,1470,956,,,,,,,,,,,,,,,,,,,,,,,B,139,star,1,0,d,0,3,0,3,0,1,0.5438,,,,,,,,,,,,,,,,,,,,,,,,,,,,,,,,,,,,,,,,,
293383,2022-10-03_11h41.12.619,vts_reward_expectancy,2022.2.4,MacIntel,60.0024001,Chrome,1470,956,,,,,,,,,,,,,,,,,,,,,,,Y,132,triangle,1,0,f,0,4,0,4,0,1,0.7637,,,,,,,,,,,,,,,,,,,,,,,,,,,,,,,,,,,,,,,,,
293383,2022-10-03_11h41.12.619,vts_reward_expectancy,2022.2.4,MacIntel,60.0024001,Chrome,1470,956,,,,,,,,,,,,,,,,,,,,,,,U,160,circle,1,0,f,0,5,0,5,0,1,0.7783,,,,,,,,,,,,,,,,,,,,,,,,,,,,,,,,,,,,,,,,,
293383,2022-10-03_11h41.12.619,vts_reward_expectancy,2022.2.4,MacIntel,60.0024001,Chrome,1470,956,,,,,,,,,,,,,,,,,,,,,,,S,125,hexagon,1,0,f,0,6,0,6,0,1,0.8972,,,,,,,,,,,,,,,,,,,,,,,,,,,,,,,,,,,,,,,,,
293383,2022-10-03_11h41.12.619,vts_reward_expectancy,2022.2.4,MacIntel,60.0024001,Chrome,1470,956,,,,,,,,,,,,,,,,,,,,,,,H,174,star,1,0,d,0,7,0,7,0,1,1.1118,,,,,,,,,,,,,,,,,,,,,,,,,,,,,,,,,,,,,,,,,
293383,2022-10-03_11h41.12.619,vts_reward_expectancy,2022.2.4,MacIntel,60.0024001,Chrome,1470,956,,,,,,,,,,,,,,,,,,,,,,,W,181,star,1,0,f,0,8,0,8,0,1,0.8294,,,,,,,,,,,,,,,,,,,,,,,,,,,,,,,,,,,,,,,,,
293383,2022-10-03_11h41.12.619,vts_reward_expectancy,2022.2.4,MacIntel,60.0024001,Chrome,1470,956,,,,,,,,,,,,,,,,,,,,,,,D,167,hexagon,1,0,d,0,9,0,9,0,1,0.7194,,,,,,,,,,,,,,,,,,,,,,,,,,,,,,,,,,,,,,,,,
293383,2022-10-03_11h41.12.619,vts_reward_expectancy,2022.2.4,MacIntel,60.0024001,Chrome,1470,956,,,,,,,,,,,,,,,,,,,,,,,Y,146,hexagon,1,0,,1,,,,,,,j,1.3983,0,0,0,0,1,,,,,,,,,,,,,,,,,,,,,,,,,,,,,,,,,,
293383,2022-10-03_11h41.12.619,vts_reward_expectancy,2022.2.4,MacIntel,60.0024001,Chrome,1470,956,,,,,,,,,,,,,,,,,,,,,,,S,139,star,1,0,,1,,,,,,,j,1.2675,1,0,1,0,1,,,,,,,,,,,,,,,,,,,,,,,,,,,,,,,,,,
293383,2022-10-03_11h41.12.619,vts_reward_expectancy,2022.2.4,MacIntel,60.0024001,Chrome,1470,956,,,,,,,,,,,,,,,,,,,,,,,D,132,circle,1,0,,1,,,,,,,j,0.7476,2,0,2,0,1,,,,,,,,,,,,,,,,,,,,,,,,,,,,,,,,,,
293383,2022-10-03_11h41.12.619,vts_reward_expectancy,2022.2.4,MacIntel,60.0024001,Chrome,1470,956,,,,,,,,,,,,,,,,,,,,,,,F,125,triangle,1,0,,1,,,,,,,j,0.5674,3,0,3,0,1,,,,,,,,,,,,,,,,,,,,,,,,,,,,,,,,,,
293383,2022-10-03_11h41.12.619,vts_reward_expectancy,2022.2.4,MacIntel,60.0024001,Chrome,1470,956,,,,,,,,,,,,,,,,,,,,,,,B,174,hexagon,1,0,,1,,,,,,,k,0.7525,4,0,4,0,1,,,,,,,,,,,,,,,,,,,,,,,,,,,,,,,,,,
293383,2022-10-03_11h41.12.619,vts_reward_expectancy,2022.2.4,MacIntel,60.0024001,Chrome,1470,956,,,,,,,,,,,,,,,,,,,,,,,W,181,star,1,0,,1,,,,,,,k,0.6979,5,0,5,0,1,,,,,,,,,,,,,,,,,,,,,,,,,,,,,,,,,,
293383,2022-10-03_11h41.12.619,vts_reward_expectancy,2022.2.4,MacIntel,60.0024001,Chrome,1470,956,,,,,,,,,,,,,,,,,,,,,,,H,167,circle,1,0,,1,,,,,,,k,0.5636,6,0,6,0,1,,,,,,,,,,,,,,,,,,,,,,,,,,,,,,,,,,
293383,2022-10-03_11h41.12.619,vts_reward_expectancy,2022.2.4,MacIntel,60.0024001,Chrome,1470,956,,,,,,,,,,,,,,,,,,,,,,,U,160,triangle,1,0,,1,,,,,,,k,0.7488,7,0,7,0,1,,,,,,,,,,,,,,,,,,,,,,,,,,,,,,,,,,
293383,2022-10-03_11h41.12.619,vts_reward_expectancy,2022.2.4,MacIntel,60.0024001,Chrome,1470,956,,,,,,,,,,,,,,,,,,,,,,,Y,146,circle,1,0,,1,,,,,,,j,0.9644,8,0,8,0,1,,,,,,,,,,,,,,,,,,,,,,,,,,,,,,,,,,
293383,2022-10-03_11h41.12.619,vts_reward_expectancy,2022.2.4,MacIntel,60.0024001,Chrome,1470,956,,,,,,,,,,,,,,,,,,,,,,,S,139,triangle,1,0,,1,,,,,,,j,0.6842,9,0,9,0,1,,,,,,,,,,,,,,,,,,,,,,,,,,,,,,,,,,
293383,2022-10-03_11h41.12.619,vts_reward_expectancy,2022.2.4,MacIntel,60.0024001,Chrome,1470,956,,,,,0,594,,,,,,,,,,,,,,,,,W,160,star,1,0,,2,,,,,,,,,,,,,,-1,letter,NA,f,2.6422,vtsPrac,0,0,0,0,1,,,,,,,,,,,,,,,,,,,,,,,
293383,2022-10-03_11h41.12.619,vts_reward_expectancy,2022.2.4,MacIntel,60.0024001,Chrome,1470,956,,,,,0,594,,,,,,,,,,,,,,,,,Y,181,hexagon,1,0,,2,,,,,,,,,,,,,,repeat,letter,lettRpt,f,1.9609,vtsPrac,1,0,1,0,1,,,,,,,,,,,,,,,,,,,,,,,
293383,2022-10-03_11h41.12.619,vts_reward_expectancy,2022.2.4,MacIntel,60.0024001,Chrome,1470,956,,,,,0,594,,,,,,,,,,,,,,,,,D,146,star,1,0,,2,,,,,,,,,,,,,,repeat,letter,lettRpt,d,1.8706,vtsPrac,2,0,2,0,1,,,,,,,,,,,,,,,,,,,,,,,
293383,2022-10-03_11h41.12.619,vts_reward_expectancy,2022.2.4,MacIntel,60.0024001,Chrome,1470,956,,,,,0,594,,,,,,,,,,,,,,,,,F,167,hexagon,1,0,,2,,,,,,,,,,,,,,repeat,letter,lettRpt,d,1.5294,vtsPrac,3,0,3,0,1,,,,,,,,,,,,,,,,,,,,,,,
293383,2022-10-03_11h41.12.619,vts_reward_expectancy,2022.2.4,MacIntel,60.0024001,Chrome,1470,956,,,,,0,594,,,,,,,,,,,,,,,,,W,160,star,1,0,,2,,,,,,,,,,,,,,switch,number,numSwt,k,1.1619,vtsPrac,4,0,4,0,1,,,,,,,,,,,,,,,,,,,,,,,
293383,2022-10-03_11h41.12.619,vts_reward_expectancy,2022.2.4,MacIntel,60.0024001,Chrome,1470,956,,,,,0,594,,,,,,,,,,,,,,,,,Y,181,triangle,1,0,,2,,,,,,,,,,,,,,repeat,number,numRpt,k,0.9798,vtsPrac,5,0,5,0,1,,,,,,,,,,,,,,,,,,,,,,,
293383,2022-10-03_11h41.12.619,vts_reward_expectancy,2022.2.4,MacIntel,60.0024001,Chrome,1470,956,,,,,0,594,,,,,,,,,,,,,,,,,D,146,triangle,1,0,,2,,,,,,,,,,,,,,switch,letter,lettSwt,d,1.0651,vtsPrac,6,0,6,0,1,,,,,,,,,,,,,,,,,,,,,,,
293383,2022-10-03_11h41.12.619,vts_reward_expectancy,2022.2.4,MacIntel,60.0024001,Chrome,1470,956,,,,,0,594,,,,,,,,,,,,,,,,,F,167,star,1,0,,2,,,,,,,,,,,,,,repeat,letter,lettRpt,d,2.8153,vtsPrac,7,0,7,0,1,,,,,,,,,,,,,,,,,,,,,,,
293383,2022-10-03_11h41.12.619,vts_reward_expectancy,2022.2.4,MacIntel,60.0024001,Chrome,1470,956,,,,,0,594,,,,,,,,,,,,,,,,,W,139,triangle,1,0,,2,,,,,,,,,,,,,,repeat,letter,lettRpt,f,2.377,vtsPrac,8,0,8,0,1,,,,,,,,,,,,,,,,,,,,,,,
293383,2022-10-03_11h41.12.619,vts_reward_expectancy,2022.2.4,MacIntel,60.0024001,Chrome,1470,956,,,,,0,594,,,,,,,,,,,,,,,,,Y,174,circle,1,0,,2,,,,,,,,,,,,,,repeat,letter,lettRpt,f,1.1967,vtsPrac,9,0,9,0,1,,,,,,,,,,,,,,,,,,,,,,,
293383,2022-10-03_11h41.12.619,vts_reward_expectancy,2022.2.4,MacIntel,60.0024001,Chrome,1470,956,,,,,0,594,,,,,,,,,,,,,,,,,D,125,star,1,0,,2,,,,,,,,,,,,,,repeat,letter,lettRpt,d,0.8973,vtsPrac,10,0,10,0,1,,,,,,,,,,,,,,,,,,,,,,,
293383,2022-10-03_11h41.12.619,vts_reward_expectancy,2022.2.4,MacIntel,60.0024001,Chrome,1470,956,,,,,0,594,,,,,,,,,,,,,,,,,S,160,circle,1,0,,2,,,,,,,,,,,,,,repeat,letter,lettRpt,f,1.0112,vtsPrac,11,0,11,0,1,,,,,,,,,,,,,,,,,,,,,,,
293383,2022-10-03_11h41.12.619,vts_reward_expectancy,2022.2.4,MacIntel,60.0024001,Chrome,1470,956,,,,,0,594,,,,,,,,,,,,,,,,,Y,174,triangle,0,0,,2,,,,,,,,,,,,,,repeat,letter,NA,d,0.4493,vtsPrac,12,0,12,0,1,,,,,,,,,,,,,,,,,,,,,,,
293383,2022-10-03_11h41.12.619,vts_reward_expectancy,2022.2.4,MacIntel,60.0024001,Chrome,1470,956,,,,,0,594,,,,,,,,,,,,,,,,,D,125,star,1,1,,2,,,,,,,,,,,,,,repeat,letter,lettRpt,d,0.8455,vtsPrac,13,0,13,0,1,,,,,,,,,,,,,,,,,,,,,,,
293383,2022-10-03_11h41.12.619,vts_reward_expectancy,2022.2.4,MacIntel,60.0024001,Chrome,1470,956,,,,,0,594,,,,,,,,,,,,,,,,,W,167,triangle,1,0,,2,,,,,,,,,,,,,,repeat,letter,lettRpt,f,0.679,vtsPrac,14,0,14,0,1,,,,,,,,,,,,,,,,,,,,,,,
293383,2022-10-03_11h41.12.619,vts_reward_expectancy,2022.2.4,MacIntel,60.0024001,Chrome,1470,956,,,,,0,594,,,,,,,,,,,,,,,,,U,160,hexagon,1,0,,2,,,,,,,,,,,,,,repeat,letter,lettRpt,f,0.977,vtsPrac,15,0,15,0,1,,,,,,,,,,,,,,,,,,,,,,,
293383,2022-10-03_11h41.12.619,vts_reward_expectancy,2022.2.4,MacIntel,60.0024001,Chrome,1470,956,,,,,0,594,,,,,,,,,,,,,,,,,B,181,triangle,1,0,,3,,,,,,,,,,,,,,repeat,letter,lettRpt,d,1.3796,vtsPrac,0,0,0,0,1,,,,,,,,,,,,,,,,,,,,,,,
293383,2022-10-03_11h41.12.619,vts_reward_expectancy,2022.2.4,MacIntel,60.0024001,Chrome,1470,956,,,,,0,594,,,,,,,,,,,,,,,,,W,139,star,1,0,,3,,,,,,,,,,,,,,repeat,letter,lettRpt,f,2.6291,vtsPrac,1,0,1,0,1,,,,,,,,,,,,,,,,,,,,,,,
293383,2022-10-03_11h41.12.619,vts_reward_expectancy,2022.2.4,MacIntel,60.0024001,Chrome,1470,956,,,,,0,594,,,,,,,,,,,,,,,,,S,160,triangle,1,0,,3,,,,,,,,,,,,,,repeat,letter,lettRpt,f,1.6629,vtsPrac,2,0,2,0,1,,,,,,,,,,,,,,,,,,,,,,,
293383,2022-10-03_11h41.12.619,vts_reward_expectancy,2022.2.4,MacIntel,60.0024001,Chrome,1470,956,,,,,0,594,,,,,,,,,,,,,,,,,U,125,star,-1,0,,3,,,,,,,,,,,,,,switch,no_choice,NA,,,vtsPrac,3,0,3,0,1,,,,,,,,,,,,,,,,,,,,,,,
293383,2022-10-03_11h41.12.619,vts_reward_expectancy,2022.2.4,MacIntel,60.0024001,Chrome,1470,956,,,,,0,594,,,,,,,,,,,,,,,,,B,181,triangle,1,0,,3,,,,,,,,,,,,,,switch,number,numSwt,k,1.9984,vtsPrac,4,0,4,0,1,,,,,,,,,,,,,,,,,,,,,,,
293383,2022-10-03_11h41.12.619,vts_reward_expectancy,2022.2.4,MacIntel,60.0024001,Chrome,1470,956,,,,,0,594,,,,,,,,,,,,,,,,,W,139,star,1,0,,3,,,,,,,,,,,,,,switch,letter,lettSwt,f,1.7216,vtsPrac,5,0,5,0,1,,,,,,,,,,,,,,,,,,,,,,,
293383,2022-10-03_11h41.12.619,vts_reward_expectancy,2022.2.4,MacIntel,60.0024001,Chrome,1470,956,,,,,0,594,,,,,,,,,,,,,,,,,S,160,star,1,0,,3,,,,,,,,,,,,,,repeat,letter,lettRpt,f,1.4219,vtsPrac,6,0,6,0,1,,,,,,,,,,,,,,,,,,,,,,,
293383,2022-10-03_11h41.12.619,vts_reward_expectancy,2022.2.4,MacIntel,60.0024001,Chrome,1470,956,,,,,0,594,,,,,,,,,,,,,,,,,U,125,circle,1,0,,3,,,,,,,,,,,,,,repeat,letter,lettRpt,f,1.6038,vtsPrac,7,0,7,0,1,,,,,,,,,,,,,,,,,,,,,,,
293383,2022-10-03_11h41.12.619,vts_reward_expectancy,2022.2.4,MacIntel,60.0024001,Chrome,1470,956,,,,,0,594,,,,,,,,,,,,,,,,,B,160,hexagon,1,0,,3,,,,,,,,,,,,,,repeat,letter,lettRpt,d,1.4397,vtsPrac,8,0,8,0,1,,,,,,,,,,,,,,,,,,,,,,,
293383,2022-10-03_11h41.12.619,vts_reward_expectancy,2022.2.4,MacIntel,60.0024001,Chrome,1470,956,,,,,0,594,,,,,,,,,,,,,,,,,S,139,circle,1,0,,3,,,,,,,,,,,,,,repeat,letter,lettRpt,f,1.8391,vtsPrac,9,0,9,0,1,,,,,,,,,,,,,,,,,,,,,,,
293383,2022-10-03_11h41.12.619,vts_reward_expectancy,2022.2.4,MacIntel,60.0024001,Chrome,1470,956,,,,,0,594,,,,,,,,,,,,,,,,,D,132,star,1,0,,3,,,,,,,,,,,,,,repeat,letter,lettRpt,d,1.7367,vtsPrac,10,0,10,0,1,,,,,,,,,,,,,,,,,,,,,,,
293383,2022-10-03_11h41.12.619,vts_reward_expectancy,2022.2.4,MacIntel,60.0024001,Chrome,1470,956,,,,,0,594,,,,,,,,,,,,,,,,,U,146,circle,1,0,,3,,,,,,,,,,,,,,repeat,letter,lettRpt,f,1.3788,vtsPrac,11,0,11,0,1,,,,,,,,,,,,,,,,,,,,,,,
293383,2022-10-03_11h41.12.619,vts_reward_expectancy,2022.2.4,MacIntel,60.0024001,Chrome,1470,956,,,,,0,594,,,,,,,,,,,,,,,,,Y,167,circle,1,0,,3,,,,,,,,,,,,,,switch,number,numSwt,k,1.1656,vtsPrac,12,0,12,0,1,,,,,,,,,,,,,,,,,,,,,,,
293383,2022-10-03_11h41.12.619,vts_reward_expectancy,2022.2.4,MacIntel,60.0024001,Chrome,1470,956,,,,,0,594,,,,,,,,,,,,,,,,,H,132,triangle,1,0,,3,,,,,,,,,,,,,,switch,letter,lettSwt,d,1.8609,vtsPrac,13,0,13,0,1,,,,,,,,,,,,,,,,,,,,,,,
293383,2022-10-03_11h41.12.619,vts_reward_expectancy,2022.2.4,MacIntel,60.0024001,Chrome,1470,956,,,,,0,594,,,,,,,,,,,,,,,,,U,174,triangle,1,0,,3,,,,,,,,,,,,,,repeat,letter,lettRpt,f,1.2133,vtsPrac,14,0,14,0,1,,,,,,,,,,,,,,,,,,,,,,,
293383,2022-10-03_11h41.12.619,vts_reward_expectancy,2022.2.4,MacIntel,60.0024001,Chrome,1470,956,,,,,0,594,,,,,,,,,,,,,,,,,S,125,hexagon,1,0,,3,,,,,,,,,,,,,,repeat,letter,lettRpt,f,1.3785,vtsPrac,15,0,15,0,1,,,,,,,,,,,,,,,,,,,,,,,
293383,2022-10-03_11h41.12.619,vts_reward_expectancy,2022.2.4,MacIntel,60.0024001,Chrome,1470,956,,,,,,,,,,,,,,,,,,,,,,,,,,,,,,,,,,,,,,,,,,,,,,,,,,,,,,,,,,,,,,,,,,,,,,,,,,,,
293383,2022-10-03_11h41.12.619,vts_reward_expectancy,2022.2.4,MacIntel,60.0024001,Chrome,1470,956,,,,,,,,,,,,,,,,,,,,,,,,,,,,,,,,,,,,,,,,,,,,,,,,,,,,,,,,,,,,,,,,,,,,,,,,,,,,
293383,2022-10-03_11h41.12.619,vts_reward_expectancy,2022.2.4,MacIntel,60.0024001,Chrome,1470,956,,,,,0,594,,,,,,,,,,,,,,,,,B,146,circle,1,0,,,,,,,,,,,,,,,,repeat,letter,lettRpt,d,1.5456,noRew,,,,,,0,0,0,0,0,1,,,,,,,,,,,,,,,,,
293383,2022-10-03_11h41.12.619,vts_reward_expectancy,2022.2.4,MacIntel,60.0024001,Chrome,1470,956,,,,,0,594,,,,,,,,,,,,,,,,,W,132,star,1,0,,,,,,,,,,,,,,,,repeat,letter,lettRpt,f,2.4152,noRew,,,,,,0,1,0,1,0,1,,,,,,,,,,,,,,,,,
293383,2022-10-03_11h41.12.619,vts_reward_expectancy,2022.2.4,MacIntel,60.0024001,Chrome,1470,956,,,,,0,594,,,,,,,,,,,,,,,,,F,160,circle,1,0,,,,,,,,,,,,,,,,repeat,letter,lettRpt,d,1.9241,noRew,,,,,,0,2,0,2,0,1,,,,,,,,,,,,,,,,,
293383,2022-10-03_11h41.12.619,vts_reward_expectancy,2022.2.4,MacIntel,60.0024001,Chrome,1470,956,,,,,0,594,,,,,,,,,,,,,,,,,H,181,star,1,0,,,,,,,,,,,,,,,,repeat,letter,lettRpt,d,1.1137,noRew,,,,,,0,3,0,3,0,1,,,,,,,,,,,,,,,,,
293383,2022-10-03_11h41.12.619,vts_reward_expectancy,2022.2.4,MacIntel,60.0024001,Chrome,1470,956,,,,,0,594,,,,,,,,,,,,,,,,,B,146,star,1,0,,,,,,,,,,,,,,,,repeat,letter,lettRpt,d,1.1784,noRew,,,,,,0,4,0,4,0,1,,,,,,,,,,,,,,,,,
293383,2022-10-03_11h41.12.619,vts_reward_expectancy,2022.2.4,MacIntel,60.0024001,Chrome,1470,956,,,,,0,594,,,,,,,,,,,,,,,,,W,132,circle,1,0,,,,,,,,,,,,,,,,repeat,letter,lettRpt,f,1.128,noRew,,,,,,0,5,0,5,0,1,,,,,,,,,,,,,,,,,
293383,2022-10-03_11h41.12.619,vts_reward_expectancy,2022.2.4,MacIntel,60.0024001,Chrome,1470,956,,,,,0,594,,,,,,,,,,,,,,,,,F,160,triangle,1,0,,,,,,,,,,,,,,,,repeat,letter,lettRpt,d,2.1808,noRew,,,,,,0,6,0,6,0,1,,,,,,,,,,,,,,,,,
293383,2022-10-03_11h41.12.619,vts_reward_expectancy,2022.2.4,MacIntel,60.0024001,Chrome,1470,956,,,,,0,594,,,,,,,,,,,,,,,,,H,181,star,1,0,,,,,,,,,,,,,,,,repeat,letter,lettRpt,d,1.6679,noRew,,,,,,0,7,0,7,0,1,,,,,,,,,,,,,,,,,
293383,2022-10-03_11h41.12.619,vts_reward_expectancy,2022.2.4,MacIntel,60.0024001,Chrome,1470,956,,,,,0,594,,,,,,,,,,,,,,,,,F,132,star,1,0,,,,,,,,,,,,,,,,repeat,letter,lettRpt,d,1.8308,noRew,,,,,,0,8,0,8,0,1,,,,,,,,,,,,,,,,,
293383,2022-10-03_11h41.12.619,vts_reward_expectancy,2022.2.4,MacIntel,60.0024001,Chrome,1470,956,,,,,0,594,,,,,,,,,,,,,,,,,H,160,circle,1,0,,,,,,,,,,,,,,,,repeat,letter,lettRpt,d,1.5057,noRew,,,,,,0,9,0,9,0,1,,,,,,,,,,,,,,,,,
293383,2022-10-03_11h41.12.619,vts_reward_expectancy,2022.2.4,MacIntel,60.0024001,Chrome,1470,956,,,,,0,594,,,,,,,,,,,,,,,,,U,146,hexagon,-1,0,,,,,,,,,,,,,,,,switch,no_choice,NA,,,noRew,,,,,,0,10,0,10,0,1,,,,,,,,,,,,,,,,,
293383,2022-10-03_11h41.12.619,vts_reward_expectancy,2022.2.4,MacIntel,60.0024001,Chrome,1470,956,,,,,0,594,,,,,,,,,,,,,,,,,Y,174,circle,1,0,,,,,,,,,,,,,,,,switch,number,numSwt,k,1.3979,noRew,,,,,,0,11,0,11,0,1,,,,,,,,,,,,,,,,,
293383,2022-10-03_11h41.12.619,vts_reward_expectancy,2022.2.4,MacIntel,60.0024001,Chrome,1470,956,,,,,0,594,,,,,,,,,,,,,,,,,Y,160,hexagon,1,0,,,,,,,,,,,,,,,,switch,letter,lettSwt,f,1.2207,noRew,,,,,,0,12,0,12,0,1,,,,,,,,,,,,,,,,,
293383,2022-10-03_11h41.12.619,vts_reward_expectancy,2022.2.4,MacIntel,60.0024001,Chrome,1470,956,,,,,0,594,,,,,,,,,,,,,,,,,B,174,circle,1,0,,,,,,,,,,,,,,,,repeat,letter,lettRpt,d,1.1205,noRew,,,,,,0,13,0,13,0,1,,,,,,,,,,,,,,,,,
293383,2022-10-03_11h41.12.619,vts_reward_expectancy,2022.2.4,MacIntel,60.0024001,Chrome,1470,956,,,,,0,594,,,,,,,,,,,,,,,,,W,132,triangle,1,0,,,,,,,,,,,,,,,,switch,number,numSwt,j,1.1634,noRew,,,,,,0,14,0,14,0,1,,,,,,,,,,,,,,,,,
293383,2022-10-03_11h41.12.619,vts_reward_expectancy,2022.2.4,MacIntel,60.0024001,Chrome,1470,956,,,,,0,594,,,,,,,,,,,,,,,,,S,125,hexagon,1,0,,,,,,,,,,,,,,,,switch,letter,lettSwt,f,1.6147,noRew,,,,,,0,15,0,15,0,1,,,,,,,,,,,,,,,,,
293383,2022-10-03_11h41.12.619,vts_reward_expectancy,2022.2.4,MacIntel,60.0024001,Chrome,1470,956,,,,,0,594,,,,,,,,,,,,,,,,,H,167,circle,1,0,,,,,,,,,,,,,,,,repeat,letter,lettRpt,d,1.6127,noRew,,,,,,0,16,0,16,0,1,,,,,,,,,,,,,,,,,
293383,2022-10-03_11h41.12.619,vts_reward_expectancy,2022.2.4,MacIntel,60.0024001,Chrome,1470,956,,,,,0,594,,,,,,,,,,,,,,,,,S,132,triangle,1,0,,,,,,,,,,,,,,,,repeat,letter,lettRpt,f,1.7165,noRew,,,,,,0,17,0,17,0,1,,,,,,,,,,,,,,,,,
293383,2022-10-03_11h41.12.619,vts_reward_expectancy,2022.2.4,MacIntel,60.0024001,Chrome,1470,956,,,,,0,594,,,,,,,,,,,,,,,,,W,160,star,1,0,,,,,,,,,,,,,,,,switch,number,numSwt,k,1.6054,noRew,,,,,,0,18,0,18,0,1,,,,,,,,,,,,,,,,,
293383,2022-10-03_11h41.12.619,vts_reward_expectancy,2022.2.4,MacIntel,60.0024001,Chrome,1470,956,,,,,0,594,,,,,,,,,,,,,,,,,B,181,triangle,0,0,,,,,,,,,,,,,,,,repeat,number,NA,j,1.3298,noRew,,,,,,0,19,0,19,0,1,,,,,,,,,,,,,,,,,
293383,2022-10-03_11h41.12.619,vts_reward_expectancy,2022.2.4,MacIntel,60.0024001,Chrome,1470,956,,,,,0,594,,,,,,,,,,,,,,,,,D,160,triangle,1,1,,,,,,,,,,,,,,,,switch,letter,lettSwt,d,1.9309,noRew,,,,,,0,20,0,20,0,1,,,,,,,,,,,,,,,,,
293383,2022-10-03_11h41.12.619,vts_reward_expectancy,2022.2.4,MacIntel,60.0024001,Chrome,1470,956,,,,,0,594,,,,,,,,,,,,,,,,,S,167,hexagon,1,0,,,,,,,,,,,,,,,,switch,number,numSwt,k,1.2052,noRew,,,,,,0,21,0,21,0,1,,,,,,,,,,,,,,,,,
293383,2022-10-03_11h41.12.619,vts_reward_expectancy,2022.2.4,MacIntel,60.0024001,Chrome,1470,956,,,,,0,594,,,,,,,,,,,,,,,,,H,125,circle,1,0,,,,,,,,,,,,,,,,switch,letter,lettSwt,d,0.9475,noRew,,,,,,0,22,0,22,0,1,,,,,,,,,,,,,,,,,
293383,2022-10-03_11h41.12.619,vts_reward_expectancy,2022.2.4,MacIntel,60.0024001,Chrome,1470,956,,,,,0,594,,,,,,,,,,,,,,,,,W,174,star,1,0,,,,,,,,,,,,,,,,switch,number,numSwt,k,0.83,noRew,,,,,,0,23,0,23,0,1,,,,,,,,,,,,,,,,,
293383,2022-10-03_11h41.12.619,vts_reward_expectancy,2022.2.4,MacIntel,60.0024001,Chrome,1470,956,,,,,0,594,,,,,,,,,,,,,,,,,S,160,hexagon,1,0,,,,,,,,,,,,,,,,switch,letter,lettSwt,f,0.9817,noRew,,,,,,0,24,0,24,0,1,,,,,,,,,,,,,,,,,
293383,2022-10-03_11h41.12.619,vts_reward_expectancy,2022.2.4,MacIntel,60.0024001,Chrome,1470,956,,,,,0,594,,,,,,,,,,,,,,,,,Y,139,star,1,0,,,,,,,,,,,,,,,,repeat,letter,lettRpt,f,0.9462,noRew,,,,,,0,25,0,25,0,1,,,,,,,,,,,,,,,,,
293383,2022-10-03_11h41.12.619,vts_reward_expectancy,2022.2.4,MacIntel,60.0024001,Chrome,1470,956,,,,,0,594,,,,,,,,,,,,,,,,,W,146,circle,0,0,,,,,,,,,,,,,,,,switch,number,NA,k,1.2971,noRew,,,,,,0,26,0,26,0,1,,,,,,,,,,,,,,,,,
293383,2022-10-03_11h41.12.619,vts_reward_expectancy,2022.2.4,MacIntel,60.0024001,Chrome,1470,956,,,,,0,594,,,,,,,,,,,,,,,,,F,125,triangle,1,1,,,,,,,,,,,,,,,,switch,letter,lettSwt,d,1.1622,noRew,,,,,,0,27,0,27,0,1,,,,,,,,,,,,,,,,,
293383,2022-10-03_11h41.12.619,vts_reward_expectancy,2022.2.4,MacIntel,60.0024001,Chrome,1470,956,,,,,0,594,,,,,,,,,,,,,,,,,F,174,hexagon,1,0,,,,,,,,,,,,,,,,repeat,letter,lettRpt,d,1.3016,noRew,,,,,,0,28,0,28,0,1,,,,,,,,,,,,,,,,,
293383,2022-10-03_11h41.12.619,vts_reward_expectancy,2022.2.4,MacIntel,60.0024001,Chrome,1470,956,,,,,0,594,,,,,,,,,,,,,,,,,H,125,triangle,1,0,,,,,,,,,,,,,,,,repeat,letter,lettRpt,d,1.3199,noRew,,,,,,0,29,0,29,0,1,,,,,,,,,,,,,,,,,
293383,2022-10-03_11h41.12.619,vts_reward_expectancy,2022.2.4,MacIntel,60.0024001,Chrome,1470,956,,,,,0,594,,,,,,,,,,,,,,,,,U,146,triangle,1,0,,,,,,,,,,,,,,,,switch,number,numSwt,j,1.8012,noRew,,,,,,0,30,0,30,0,1,,,,,,,,,,,,,,,,,
293383,2022-10-03_11h41.12.619,vts_reward_expectancy,2022.2.4,MacIntel,60.0024001,Chrome,1470,956,,,,,0,594,,,,,,,,,,,,,,,,,W,132,circle,1,0,,,,,,,,,,,,,,,,switch,letter,lettSwt,f,1.5011,noRew,,,,,,0,31,0,31,0,1,,,,,,,,,,,,,,,,,
293383,2022-10-03_11h41.12.619,vts_reward_expectancy,2022.2.4,MacIntel,60.0024001,Chrome,1470,956,,,,,0,594,,,,,,,,,,,,,,,,,U,139,hexagon,1,0,,,,,,,,,,,,,,,,repeat,letter,lettRpt,f,1.55,noRew,,,,,,0,32,0,32,0,1,,,,,,,,,,,,,,,,,
293383,2022-10-03_11h41.12.619,vts_reward_expectancy,2022.2.4,MacIntel,60.0024001,Chrome,1470,956,,,,,0,594,,,,,,,,,,,,,,,,,D,146,star,1,0,,,,,,,,,,,,,,,,repeat,letter,lettRpt,d,1.5142,noRew,,,,,,0,33,0,33,0,1,,,,,,,,,,,,,,,,,
293383,2022-10-03_11h41.12.619,vts_reward_expectancy,2022.2.4,MacIntel,60.0024001,Chrome,1470,956,,,,,0,594,,,,,,,,,,,,,,,,,H,181,circle,0,0,,,,,,,,,,,,,,,,switch,number,NA,j,1.4627,noRew,,,,,,0,34,0,34,0,1,,,,,,,,,,,,,,,,,
293383,2022-10-03_11h41.12.619,vts_reward_expectancy,2022.2.4,MacIntel,60.0024001,Chrome,1470,956,,,,,0,594,,,,,,,,,,,,,,,,,W,167,triangle,1,1,,,,,,,,,,,,,,,,repeat,number,numRpt,k,1.1458,noRew,,,,,,0,35,0,35,0,1,,,,,,,,,,,,,,,,,
293383,2022-10-03_11h41.12.619,vts_reward_expectancy,2022.2.4,MacIntel,60.0024001,Chrome,1470,956,,,,,0,594,,,,,,,,,,,,,,,,,F,174,circle,1,0,,,,,,,,,,,,,,,,repeat,number,numRpt,k,1.3473,noRew,,,,,,0,36,0,36,0,1,,,,,,,,,,,,,,,,,
293383,2022-10-03_11h41.12.619,vts_reward_expectancy,2022.2.4,MacIntel,60.0024001,Chrome,1470,956,,,,,0,594,,,,,,,,,,,,,,,,,W,181,hexagon,1,0,,,,,,,,,,,,,,,,repeat,number,numRpt,k,1.0789,noRew,,,,,,0,37,0,37,0,1,,,,,,,,,,,,,,,,,
293383,2022-10-03_11h41.12.619,vts_reward_expectancy,2022.2.4,MacIntel,60.0024001,Chrome,1470,956,,,,,0,594,,,,,,,,,,,,,,,,,H,160,hexagon,1,0,,,,,,,,,,,,,,,,switch,letter,lettSwt,d,2.0848,noRew,,,,,,0,38,0,38,0,1,,,,,,,,,,,,,,,,,
293383,2022-10-03_11h41.12.619,vts_reward_expectancy,2022.2.4,MacIntel,60.0024001,Chrome,1470,956,,,,,0,594,,,,,,,,,,,,,,,,,D,167,circle,1,0,,,,,,,,,,,,,,,,repeat,letter,lettRpt,d,1.0523,noRew,,,,,,0,39,0,39,0,1,,,,,,,,,,,,,,,,,
293383,2022-10-03_11h41.12.619,vts_reward_expectancy,2022.2.4,MacIntel,60.0024001,Chrome,1470,956,,,,,0,594,,,,,,,,,,,,,,,,,W,146,hexagon,1,0,,,,,,,,,,,,,,,,repeat,letter,lettRpt,f,1.5189,noRew,,,,,,0,40,0,40,0,1,,,,,,,,,,,,,,,,,
293383,2022-10-03_11h41.12.619,vts_reward_expectancy,2022.2.4,MacIntel,60.0024001,Chrome,1470,956,,,,,0,594,,,,,,,,,,,,,,,,,Y,181,star,1,0,,,,,,,,,,,,,,,,switch,number,numSwt,k,1.0277,noRew,,,,,,0,41,0,41,0,1,,,,,,,,,,,,,,,,,
293383,2022-10-03_11h41.12.619,vts_reward_expectancy,2022.2.4,MacIntel,60.0024001,Chrome,1470,956,,,,,0,594,,,,,,,,,,,,,,,,,S,132,triangle,1,0,,,,,,,,,,,,,,,,switch,letter,lettSwt,f,1.3455,noRew,,,,,,0,42,0,42,0,1,,,,,,,,,,,,,,,,,
293383,2022-10-03_11h41.12.619,vts_reward_expectancy,2022.2.4,MacIntel,60.0024001,Chrome,1470,956,,,,,0,594,,,,,,,,,,,,,,,,,F,139,star,1,0,,,,,,,,,,,,,,,,repeat,letter,lettRpt,d,1.2123,noRew,,,,,,0,43,0,43,0,1,,,,,,,,,,,,,,,,,
293383,2022-10-03_11h41.12.619,vts_reward_expectancy,2022.2.4,MacIntel,60.0024001,Chrome,1470,956,,,,,0,594,,,,,,,,,,,,,,,,,F,146,circle,1,0,,,,,,,,,,,,,,,,repeat,letter,lettRpt,d,0.983,noRew,,,,,,0,44,0,44,0,1,,,,,,,,,,,,,,,,,
293383,2022-10-03_11h41.12.619,vts_reward_expectancy,2022.2.4,MacIntel,60.0024001,Chrome,1470,956,,,,,0,594,,,,,,,,,,,,,,,,,S,174,star,1,0,,,,,,,,,,,,,,,,switch,number,numSwt,k,1.2799,noRew,,,,,,0,45,0,45,0,1,,,,,,,,,,,,,,,,,
293383,2022-10-03_11h41.12.619,vts_reward_expectancy,2022.2.4,MacIntel,60.0024001,Chrome,1470,956,,,,,0,594,,,,,,,,,,,,,,,,,B,125,hexagon,1,0,,,,,,,,,,,,,,,,switch,letter,lettSwt,d,1.313,noRew,,,,,,0,46,0,46,0,1,,,,,,,,,,,,,,,,,
293383,2022-10-03_11h41.12.619,vts_reward_expectancy,2022.2.4,MacIntel,60.0024001,Chrome,1470,956,,,,,0,594,,,,,,,,,,,,,,,,,U,181,circle,1,0,,,,,,,,,,,,,,,,repeat,letter,lettRpt,f,1.0396,noRew,,,,,,0,47,0,47,0,1,,,,,,,,,,,,,,,,,
293383,2022-10-03_11h41.12.619,vts_reward_expectancy,2022.2.4,MacIntel,60.0024001,Chrome,1470,956,,,,,0,594,,,,,,,,,,,,,,,,,S,139,circle,1,0,,,,,,,,,,,,,,,,repeat,letter,lettRpt,f,1.8325,noRew,,,,,,0,48,0,48,0,1,,,,,,,,,,,,,,,,,
293383,2022-10-03_11h41.12.619,vts_reward_expectancy,2022.2.4,MacIntel,60.0024001,Chrome,1470,956,,,,,0,594,,,,,,,,,,,,,,,,,H,174,triangle,1,0,,,,,,,,,,,,,,,,switch,number,numSwt,k,1.1142,noRew,,,,,,0,49,0,49,0,1,,,,,,,,,,,,,,,,,
293383,2022-10-03_11h41.12.619,vts_reward_expectancy,2022.2.4,MacIntel,60.0024001,Chrome,1470,956,,,,,0,594,,,,,,,,,,,,,,,,,U,132,hexagon,1,0,,,,,,,,,,,,,,,,switch,letter,lettSwt,f,1.3451,noRew,,,,,,0,50,0,50,0,1,,,,,,,,,,,,,,,,,
293383,2022-10-03_11h41.12.619,vts_reward_expectancy,2022.2.4,MacIntel,60.0024001,Chrome,1470,956,,,,,0,594,,,,,,,,,,,,,,,,,Y,181,circle,1,0,,,,,,,,,,,,,,,,repeat,letter,lettRpt,f,1.1218,noRew,,,,,,0,51,0,51,0,1,,,,,,,,,,,,,,,,,
293383,2022-10-03_11h41.12.619,vts_reward_expectancy,2022.2.4,MacIntel,60.0024001,Chrome,1470,956,,,,,0,594,,,,,,,,,,,,,,,,,B,181,circle,1,0,,,,,,,,,,,,,,,,switch,number,numSwt,k,1.9154,noRew,,,,,,0,52,0,52,0,1,,,,,,,,,,,,,,,,,
293383,2022-10-03_11h41.12.619,vts_reward_expectancy,2022.2.4,MacIntel,60.0024001,Chrome,1470,956,,,,,0,594,,,,,,,,,,,,,,,,,W,174,hexagon,1,0,,,,,,,,,,,,,,,,repeat,number,numRpt,k,0.8355,noRew,,,,,,0,53,0,53,0,1,,,,,,,,,,,,,,,,,
293383,2022-10-03_11h41.12.619,vts_reward_expectancy,2022.2.4,MacIntel,60.0024001,Chrome,1470,956,,,,,0,594,,,,,,,,,,,,,,,,,D,132,triangle,1,0,,,,,,,,,,,,,,,,switch,letter,lettSwt,d,1.1472,noRew,,,,,,0,54,0,54,0,1,,,,,,,,,,,,,,,,,
293383,2022-10-03_11h41.12.619,vts_reward_expectancy,2022.2.4,MacIntel,60.0024001,Chrome,1470,956,,,,,0,594,,,,,,,,,,,,,,,,,H,139,hexagon,0,0,,,,,,,,,,,,,,,,switch,number,NA,k,1.0128,noRew,,,,,,0,55,0,55,0,1,,,,,,,,,,,,,,,,,
293383,2022-10-03_11h41.12.619,vts_reward_expectancy,2022.2.4,MacIntel,60.0024001,Chrome,1470,956,,,,,0,594,,,,,,,,,,,,,,,,,W,160,triangle,1,1,,,,,,,,,,,,,,,,repeat,number,numRpt,k,1.1993,noRew,,,,,,0,56,0,56,0,1,,,,,,,,,,,,,,,,,
293383,2022-10-03_11h41.12.619,vts_reward_expectancy,2022.2.4,MacIntel,60.0024001,Chrome,1470,956,,,,,0,594,,,,,,,,,,,,,,,,,B,181,circle,1,0,,,,,,,,,,,,,,,,switch,letter,lettSwt,d,1.264,noRew,,,,,,0,57,0,57,0,1,,,,,,,,,,,,,,,,,
293383,2022-10-03_11h41.12.619,vts_reward_expectancy,2022.2.4,MacIntel,60.0024001,Chrome,1470,956,,,,,0,594,,,,,,,,,,,,,,,,,H,167,star,1,0,,,,,,,,,,,,,,,,repeat,letter,lettRpt,d,2.597,noRew,,,,,,0,58,0,58,0,1,,,,,,,,,,,,,,,,,
293383,2022-10-03_11h41.12.619,vts_reward_expectancy,2022.2.4,MacIntel,60.0024001,Chrome,1470,956,,,,,0,594,,,,,,,,,,,,,,,,,S,146,hexagon,1,0,,,,,,,,,,,,,,,,switch,number,numSwt,j,2.3172,noRew,,,,,,0,59,0,59,0,1,,,,,,,,,,,,,,,,,
293383,2022-10-03_11h41.12.619,vts_reward_expectancy,2022.2.4,MacIntel,60.0024001,Chrome,1470,956,,,,,0,594,,,,,,,,,,,,,,,,,F,181,hexagon,1,0,,,,,,,,,,,,,,,,repeat,number,numRpt,k,2.0016,noRew,,,,,,0,60,0,60,0,1,,,,,,,,,,,,,,,,,
293383,2022-10-03_11h41.12.619,vts_reward_expectancy,2022.2.4,MacIntel,60.0024001,Chrome,1470,956,,,,,0,594,,,,,,,,,,,,,,,,,H,139,circle,1,0,,,,,,,,,,,,,,,,switch,letter,lettSwt,d,1.679,noRew,,,,,,0,61,0,61,0,1,,,,,,,,,,,,,,,,,
293383,2022-10-03_11h41.12.619,vts_reward_expectancy,2022.2.4,MacIntel,60.0024001,Chrome,1470,956,,,,,0,594,,,,,,,,,,,,,,,,,B,146,star,1,0,,,,,,,,,,,,,,,,repeat,letter,lettRpt,d,1.4828,noRew,,,,,,0,62,0,62,0,1,,,,,,,,,,,,,,,,,
293383,2022-10-03_11h41.12.619,vts_reward_expectancy,2022.2.4,MacIntel,60.0024001,Chrome,1470,956,,,,,0,594,,,,,,,,,,,,,,,,,W,132,circle,0,0,,,,,,,,,,,,,,,,repeat,letter,NA,d,2.0133,noRew,,,,,,0,63,0,63,0,1,,,,,,,,,,,,,,,,,
293383,2022-10-03_11h41.12.619,vts_reward_expectancy,2022.2.4,MacIntel,60.0024001,Chrome,1470,956,,,,,,,,,,,,,,,,,,,,,,,,,,,,,,,,,,,,,,,,,,,,,,,,,,,,,,,,,,,,,,,,,,,,,,,,,,,,
293383,2022-10-03_11h41.12.619,vts_reward_expectancy,2022.2.4,MacIntel,60.0024001,Chrome,1470,956,,,,,0,594,,,,,,,,,,,,,,,,,W,125,triangle,1,1,,,,,,,,,,,,,,,,repeat,letter,lettRpt,f,1.986,Hi,,,,,,0,,,,,,space,2.5779,high,0,0,0,0,1,,,,,,,,,
293383,2022-10-03_11h41.12.619,vts_reward_expectancy,2022.2.4,MacIntel,60.0024001,Chrome,1470,956,,,,,1,595,,,,,,,,,,,,,,,,,U,181,star,1,0,,,,,,,,,,,,,,,,repeat,letter,lettRpt,f,1.2314,Lo,,,,,,0,,,,,,,,high,1,0,1,0,1,,,,,,,,,
293383,2022-10-03_11h41.12.619,vts_reward_expectancy,2022.2.4,MacIntel,60.0024001,Chrome,1470,956,,,,,0,595,,,,,,,,,,,,,,,,,H,174,triangle,1,0,,,,,,,,,,,,,,,,repeat,letter,lettRpt,d,1.879,Hi,,,,,,0,,,,,,,,high,2,0,2,0,1,,,,,,,,,
293383,2022-10-03_11h41.12.619,vts_reward_expectancy,2022.2.4,MacIntel,60.0024001,Chrome,1470,956,,,,,10,605,,,,,,,,,,,,,,,,,D,139,star,1,0,,,,,,,,,,,,,,,,repeat,letter,lettRpt,d,1.3288,Lo,,,,,,0,,,,,,,,high,3,0,3,0,1,,,,,,,,,
293383,2022-10-03_11h41.12.619,vts_reward_expectancy,2022.2.4,MacIntel,60.0024001,Chrome,1470,956,,,,,0,605,,,,,,,,,,,,,,,,,S,146,triangle,1,0,,,,,,,,,,,,,,,,switch,number,numSwt,j,1.828,Hi,,,,,,0,,,,,,,,high,4,0,4,0,1,,,,,,,,,
293383,2022-10-03_11h41.12.619,vts_reward_expectancy,2022.2.4,MacIntel,60.0024001,Chrome,1470,956,,,,,1,606,,,,,,,,,,,,,,,,,F,167,star,1,0,,,,,,,,,,,,,,,,repeat,number,numRpt,k,1.4307,Lo,,,,,,0,,,,,,,,high,5,0,5,0,1,,,,,,,,,
293383,2022-10-03_11h41.12.619,vts_reward_expectancy,2022.2.4,MacIntel,60.0024001,Chrome,1470,956,,,,,1,607,,,,,,,,,,,,,,,,,Y,160,triangle,1,0,,,,,,,,,,,,,,,,switch,letter,lettSwt,f,0.748,Hi,,,,,,0,,,,,,,,high,6,0,6,0,1,,,,,,,,,
293383,2022-10-03_11h41.12.619,vts_reward_expectancy,2022.2.4,MacIntel,60.0024001,Chrome,1470,956,,,,,1,608,,,,,,,,,,,,,,,,,B,132,star,1,0,,,,,,,,,,,,,,,,repeat,letter,lettRpt,d,0.9986,Lo,,,,,,0,,,,,,,,high,7,0,7,0,1,,,,,,,,,
293383,2022-10-03_11h41.12.619,vts_reward_expectancy,2022.2.4,MacIntel,60.0024001,Chrome,1470,956,,,,,1,609,,,,,,,,,,,,,,,,,W,125,star,1,0,,,,,,,,,,,,,,,,repeat,letter,lettRpt,f,0.6287,Lo,,,,,,0,,,,,,,,high,8,0,8,0,1,,,,,,,,,
293383,2022-10-03_11h41.12.619,vts_reward_expectancy,2022.2.4,MacIntel,60.0024001,Chrome,1470,956,,,,,1,610,,,,,,,,,,,,,,,,,U,181,triangle,1,0,,,,,,,,,,,,,,,,switch,number,numSwt,k,0.7038,Hi,,,,,,0,,,,,,,,high,9,0,9,0,1,,,,,,,,,
293383,2022-10-03_11h41.12.619,vts_reward_expectancy,2022.2.4,MacIntel,60.0024001,Chrome,1470,956,,,,,1,611,,,,,,,,,,,,,,,,,H,174,star,1,0,,,,,,,,,,,,,,,,switch,letter,lettSwt,d,1.2834,Lo,,,,,,0,,,,,,,,high,10,0,10,0,1,,,,,,,,,
293383,2022-10-03_11h41.12.619,vts_reward_expectancy,2022.2.4,MacIntel,60.0024001,Chrome,1470,956,,,,,10,621,,,,,,,,,,,,,,,,,D,139,triangle,1,0,,,,,,,,,,,,,,,,switch,number,numSwt,j,0.7678,Hi,,,,,,0,,,,,,,,high,11,0,11,0,1,,,,,,,,,
293383,2022-10-03_11h41.12.619,vts_reward_expectancy,2022.2.4,MacIntel,60.0024001,Chrome,1470,956,,,,,0,621,,,,,,,,,,,,,,,,,S,146,triangle,0,0,,,,,,,,,,,,,,,,repeat,number,NA,k,0.9968,Hi,,,,,,0,,,,,,,,high,12,0,12,0,1,,,,,,,,,
293383,2022-10-03_11h41.12.619,vts_reward_expectancy,2022.2.4,MacIntel,60.0024001,Chrome,1470,956,,,,,10,631,,,,,,,,,,,,,,,,,F,167,star,1,1,,,,,,,,,,,,,,,,switch,letter,lettSwt,d,1.0629,Lo,,,,,,0,,,,,,,,high,13,0,13,0,1,,,,,,,,,
293383,2022-10-03_11h41.12.619,vts_reward_expectancy,2022.2.4,MacIntel,60.0024001,Chrome,1470,956,,,,,10,641,,,,,,,,,,,,,,,,,Y,160,triangle,1,0,,,,,,,,,,,,,,,,repeat,letter,lettRpt,f,0.7789,Hi,,,,,,0,,,,,,,,high,14,0,14,0,1,,,,,,,,,
293383,2022-10-03_11h41.12.619,vts_reward_expectancy,2022.2.4,MacIntel,60.0024001,Chrome,1470,956,,,,,1,642,,,,,,,,,,,,,,,,,B,132,star,1,0,,,,,,,,,,,,,,,,repeat,letter,lettRpt,d,0.7658,Lo,,,,,,0,,,,,,,,high,15,0,15,0,1,,,,,,,,,
293383,2022-10-03_11h41.12.619,vts_reward_expectancy,2022.2.4,MacIntel,60.0024001,Chrome,1470,956,,,,,1,643,,,,,,,,,,,,,,,,,B,174,star,1,0,,,,,,,,,,,,,,,,repeat,letter,lettRpt,d,0.9314,Lo,,,,,,0,,,,,,,,high,16,0,16,0,1,,,,,,,,,
293383,2022-10-03_11h41.12.619,vts_reward_expectancy,2022.2.4,MacIntel,60.0024001,Chrome,1470,956,,,,,0,643,,,,,,,,,,,,,,,,,U,139,triangle,1,0,,,,,,,,,,,,,,,,repeat,letter,lettRpt,f,1.2987,Hi,,,,,,0,,,,,,,,high,17,0,17,0,1,,,,,,,,,
293383,2022-10-03_11h41.12.619,vts_reward_expectancy,2022.2.4,MacIntel,60.0024001,Chrome,1470,956,,,,,1,644,,,,,,,,,,,,,,,,,F,167,star,1,0,,,,,,,,,,,,,,,,repeat,letter,lettRpt,d,1.0619,Lo,,,,,,0,,,,,,,,high,18,0,18,0,1,,,,,,,,,
293383,2022-10-03_11h41.12.619,vts_reward_expectancy,2022.2.4,MacIntel,60.0024001,Chrome,1470,956,,,,,10,654,,,,,,,,,,,,,,,,,H,146,triangle,1,0,,,,,,,,,,,,,,,,repeat,letter,lettRpt,d,0.8467,Hi,,,,,,0,,,,,,,,high,19,0,19,0,1,,,,,,,,,
293383,2022-10-03_11h41.12.619,vts_reward_expectancy,2022.2.4,MacIntel,60.0024001,Chrome,1470,956,,,,,10,664,,,,,,,,,,,,,,,,,S,181,triangle,1,0,,,,,,,,,,,,,,,,repeat,letter,lettRpt,f,0.7216,Hi,,,,,,0,,,,,,,,high,20,0,20,0,1,,,,,,,,,
293383,2022-10-03_11h41.12.619,vts_reward_expectancy,2022.2.4,MacIntel,60.0024001,Chrome,1470,956,,,,,1,665,,,,,,,,,,,,,,,,,Y,125,star,1,0,,,,,,,,,,,,,,,,switch,number,numSwt,j,1.6958,Lo,,,,,,0,,,,,,,,high,21,0,21,0,1,,,,,,,,,
293383,2022-10-03_11h41.12.619,vts_reward_expectancy,2022.2.4,MacIntel,60.0024001,Chrome,1470,956,,,,,10,675,,,,,,,,,,,,,,,,,W,160,triangle,1,0,,,,,,,,,,,,,,,,repeat,number,numRpt,k,0.8471,Hi,,,,,,0,,,,,,,,high,22,0,22,0,1,,,,,,,,,
293383,2022-10-03_11h41.12.619,vts_reward_expectancy,2022.2.4,MacIntel,60.0024001,Chrome,1470,956,,,,,1,676,,,,,,,,,,,,,,,,,D,132,star,1,0,,,,,,,,,,,,,,,,switch,letter,lettSwt,d,0.686,Lo,,,,,,0,,,,,,,,high,23,0,23,0,1,,,,,,,,,
293383,2022-10-03_11h41.12.619,vts_reward_expectancy,2022.2.4,MacIntel,60.0024001,Chrome,1470,956,,,,,1,677,,,,,,,,,,,,,,,,,W,139,star,1,0,,,,,,,,,,,,,,,,repeat,letter,lettRpt,f,0.9623,Lo,,,,,,0,,,,,,,,high,24,0,24,0,1,,,,,,,,,
293383,2022-10-03_11h41.12.619,vts_reward_expectancy,2022.2.4,MacIntel,60.0024001,Chrome,1470,956,,,,,0,677,,,,,,,,,,,,,,,,,S,132,triangle,1,0,,,,,,,,,,,,,,,,switch,number,numSwt,j,1.331,Hi,,,,,,0,,,,,,,,high,25,0,25,0,1,,,,,,,,,
293383,2022-10-03_11h41.12.619,vts_reward_expectancy,2022.2.4,MacIntel,60.0024001,Chrome,1470,956,,,,,10,687,,,,,,,,,,,,,,,,,F,125,triangle,1,0,,,,,,,,,,,,,,,,switch,letter,lettSwt,d,0.8315,Hi,,,,,,0,,,,,,,,high,26,0,26,0,1,,,,,,,,,
293383,2022-10-03_11h41.12.619,vts_reward_expectancy,2022.2.4,MacIntel,60.0024001,Chrome,1470,956,,,,,1,688,,,,,,,,,,,,,,,,,Y,167,star,1,0,,,,,,,,,,,,,,,,repeat,letter,lettRpt,f,1.133,Lo,,,,,,0,,,,,,,,high,27,0,27,0,1,,,,,,,,,
293383,2022-10-03_11h41.12.619,vts_reward_expectancy,2022.2.4,MacIntel,60.0024001,Chrome,1470,956,,,,,10,698,,,,,,,,,,,,,,,,,U,181,triangle,1,0,,,,,,,,,,,,,,,,switch,number,numSwt,k,0.9351,Hi,,,,,,0,,,,,,,,high,28,0,28,0,1,,,,,,,,,
293383,2022-10-03_11h41.12.619,vts_reward_expectancy,2022.2.4,MacIntel,60.0024001,Chrome,1470,956,,,,,1,699,,,,,,,,,,,,,,,,,B,146,star,1,0,,,,,,,,,,,,,,,,switch,letter,lettSwt,d,1.0466,Lo,,,,,,0,,,,,,,,high,29,0,29,0,1,,,,,,,,,
293383,2022-10-03_11h41.12.619,vts_reward_expectancy,2022.2.4,MacIntel,60.0024001,Chrome,1470,956,,,,,0,699,,,,,,,,,,,,,,,,,H,174,star,0,0,,,,,,,,,,,,,,,,switch,number,NA,j,1.2353,Lo,,,,,,0,,,,,,,,high,30,0,30,0,1,,,,,,,,,
293383,2022-10-03_11h41.12.619,vts_reward_expectancy,2022.2.4,MacIntel,60.0024001,Chrome,1470,956,,,,,10,709,,,,,,,,,,,,,,,,,D,160,triangle,1,1,,,,,,,,,,,,,,,,switch,letter,lettSwt,d,1.0126,Hi,,,,,,0,,,,,,,,high,31,0,31,0,1,,,,,,,,,
293383,2022-10-03_11h41.12.619,vts_reward_expectancy,2022.2.4,MacIntel,60.0024001,Chrome,1470,956,,,,,10,719,,,,,,,,,,,,,,,,,B,125,circle,1,0,,,,,,,,,,,,,,,,repeat,letter,lettRpt,d,0.8119,Hi,,,,,,1,,,,,,space,7.1606,low,0,0,0,0,1,,,,,,,,,
293383,2022-10-03_11h41.12.619,vts_reward_expectancy,2022.2.4,MacIntel,60.0024001,Chrome,1470,956,,,,,1,720,,,,,,,,,,,,,,,,,S,160,hexagon,1,0,,,,,,,,,,,,,,,,repeat,letter,lettRpt,f,0.7473,Lo,,,,,,1,,,,,,,,low,1,0,1,0,1,,,,,,,,,
293383,2022-10-03_11h41.12.619,vts_reward_expectancy,2022.2.4,MacIntel,60.0024001,Chrome,1470,956,,,,,10,730,,,,,,,,,,,,,,,,,U,146,circle,1,0,,,,,,,,,,,,,,,,repeat,letter,lettRpt,f,0.6461,Hi,,,,,,1,,,,,,,,low,2,0,2,0,1,,,,,,,,,
293383,2022-10-03_11h41.12.619,vts_reward_expectancy,2022.2.4,MacIntel,60.0024001,Chrome,1470,956,,,,,10,740,,,,,,,,,,,,,,,,,F,167,hexagon,1,0,,,,,,,,,,,,,,,,repeat,letter,lettRpt,d,1.5464,Lo,,,,,,1,,,,,,,,low,3,0,3,0,1,,,,,,,,,
293383,2022-10-03_11h41.12.619,vts_reward_expectancy,2022.2.4,MacIntel,60.0024001,Chrome,1470,956,,,,,0,740,,,,,,,,,,,,,,,,,H,181,hexagon,0,0,,,,,,,,,,,,,,,,repeat,letter,NA,f,0.7474,Lo,,,,,,1,,,,,,,,low,4,0,4,0,1,,,,,,,,,
293383,2022-10-03_11h41.12.619,vts_reward_expectancy,2022.2.4,MacIntel,60.0024001,Chrome,1470,956,,,,,0,740,,,,,,,,,,,,,,,,,D,174,circle,1,1,,,,,,,,,,,,,,,,repeat,letter,lettRpt,d,1.1345,Hi,,,,,,1,,,,,,,,low,5,0,5,0,1,,,,,,,,,
293383,2022-10-03_11h41.12.619,vts_reward_expectancy,2022.2.4,MacIntel,60.0024001,Chrome,1470,956,,,,,0,740,,,,,,,,,,,,,,,,,Y,139,circle,0,0,,,,,,,,,,,,,,,,repeat,letter,NA,d,1.3061,Hi,,,,,,1,,,,,,,,low,6,0,6,0,1,,,,,,,,,
293383,2022-10-03_11h41.12.619,vts_reward_expectancy,2022.2.4,MacIntel,60.0024001,Chrome,1470,956,,,,,1,741,,,,,,,,,,,,,,,,,W,132,hexagon,1,1,,,,,,,,,,,,,,,,repeat,letter,lettRpt,f,1.9293,Lo,,,,,,1,,,,,,,,low,7,0,7,0,1,,,,,,,,,
293383,2022-10-03_11h41.12.619,vts_reward_expectancy,2022.2.4,MacIntel,60.0024001,Chrome,1470,956,,,,,1,742,,,,,,,,,,,,,,,,,B,125,hexagon,1,0,,,,,,,,,,,,,,,,repeat,letter,lettRpt,d,1.1296,Lo,,,,,,1,,,,,,,,low,8,0,8,0,1,,,,,,,,,
293383,2022-10-03_11h41.12.619,vts_reward_expectancy,2022.2.4,MacIntel,60.0024001,Chrome,1470,956,,,,,0,742,,,,,,,,,,,,,,,,,S,160,circle,1,0,,,,,,,,,,,,,,,,repeat,letter,lettRpt,f,1.0128,Hi,,,,,,1,,,,,,,,low,9,0,9,0,1,,,,,,,,,
293383,2022-10-03_11h41.12.619,vts_reward_expectancy,2022.2.4,MacIntel,60.0024001,Chrome,1470,956,,,,,0,742,,,,,,,,,,,,,,,,,U,146,circle,1,0,,,,,,,,,,,,,,,,repeat,letter,lettRpt,f,0.9858,Hi,,,,,,1,,,,,,,,low,10,0,10,0,1,,,,,,,,,
293383,2022-10-03_11h41.12.619,vts_reward_expectancy,2022.2.4,MacIntel,60.0024001,Chrome,1470,956,,,,,1,743,,,,,,,,,,,,,,,,,F,167,hexagon,1,0,,,,,,,,,,,,,,,,repeat,letter,lettRpt,d,1.0314,Lo,,,,,,1,,,,,,,,low,11,0,11,0,1,,,,,,,,,
293383,2022-10-03_11h41.12.619,vts_reward_expectancy,2022.2.4,MacIntel,60.0024001,Chrome,1470,956,,,,,0,743,,,,,,,,,,,,,,,,,H,181,circle,1,0,,,,,,,,,,,,,,,,repeat,letter,lettRpt,d,1.4663,Hi,,,,,,1,,,,,,,,low,12,0,12,0,1,,,,,,,,,
293383,2022-10-03_11h41.12.619,vts_reward_expectancy,2022.2.4,MacIntel,60.0024001,Chrome,1470,956,,,,,1,744,,,,,,,,,,,,,,,,,D,174,hexagon,1,0,,,,,,,,,,,,,,,,repeat,letter,lettRpt,d,0.4317,Lo,,,,,,1,,,,,,,,low,13,0,13,0,1,,,,,,,,,
293383,2022-10-03_11h41.12.619,vts_reward_expectancy,2022.2.4,MacIntel,60.0024001,Chrome,1470,956,,,,,1,745,,,,,,,,,,,,,,,,,Y,139,hexagon,1,0,,,,,,,,,,,,,,,,switch,number,numSwt,j,1.0316,Lo,,,,,,1,,,,,,,,low,14,0,14,0,1,,,,,,,,,
293383,2022-10-03_11h41.12.619,vts_reward_expectancy,2022.2.4,MacIntel,60.0024001,Chrome,1470,956,,,,,0,745,,,,,,,,,,,,,,,,,W,132,circle,1,0,,,,,,,,,,,,,,,,switch,letter,lettSwt,f,0.915,Hi,,,,,,1,,,,,,,,low,15,0,15,0,1,,,,,,,,,
293383,2022-10-03_11h41.12.619,vts_reward_expectancy,2022.2.4,MacIntel,60.0024001,Chrome,1470,956,,,,,0,745,,,,,,,,,,,,,,,,,W,125,circle,1,0,,,,,,,,,,,,,,,,switch,number,numSwt,j,0.981,Hi,,,,,,1,,,,,,,,low,16,0,16,0,1,,,,,,,,,
293383,2022-10-03_11h41.12.619,vts_reward_expectancy,2022.2.4,MacIntel,60.0024001,Chrome,1470,956,,,,,10,755,,,,,,,,,,,,,,,,,S,174,hexagon,1,0,,,,,,,,,,,,,,,,switch,letter,lettSwt,f,0.6392,Lo,,,,,,1,,,,,,,,low,17,0,17,0,1,,,,,,,,,
293383,2022-10-03_11h41.12.619,vts_reward_expectancy,2022.2.4,MacIntel,60.0024001,Chrome,1470,956,,,,,10,765,,,,,,,,,,,,,,,,,B,132,circle,1,0,,,,,,,,,,,,,,,,repeat,letter,lettRpt,d,0.7795,Hi,,,,,,1,,,,,,,,low,18,0,18,0,1,,,,,,,,,
293383,2022-10-03_11h41.12.619,vts_reward_expectancy,2022.2.4,MacIntel,60.0024001,Chrome,1470,956,,,,,1,766,,,,,,,,,,,,,,,,,D,139,hexagon,1,0,,,,,,,,,,,,,,,,switch,number,numSwt,j,0.7292,Lo,,,,,,1,,,,,,,,low,19,0,19,0,1,,,,,,,,,
293383,2022-10-03_11h41.12.619,vts_reward_expectancy,2022.2.4,MacIntel,60.0024001,Chrome,1470,956,,,,,10,776,,,,,,,,,,,,,,,,,H,167,circle,1,0,,,,,,,,,,,,,,,,switch,letter,lettSwt,d,0.6516,Hi,,,,,,1,,,,,,,,low,20,0,20,0,1,,,,,,,,,
293383,2022-10-03_11h41.12.619,vts_reward_expectancy,2022.2.4,MacIntel,60.0024001,Chrome,1470,956,,,,,1,777,,,,,,,,,,,,,,,,,Y,160,hexagon,1,0,,,,,,,,,,,,,,,,repeat,letter,lettRpt,f,0.9976,Lo,,,,,,1,,,,,,,,low,21,0,21,0,1,,,,,,,,,
293383,2022-10-03_11h41.12.619,vts_reward_expectancy,2022.2.4,MacIntel,60.0024001,Chrome,1470,956,,,,,1,778,,,,,,,,,,,,,,,,,F,181,hexagon,1,0,,,,,,,,,,,,,,,,repeat,letter,lettRpt,d,1.0058,Lo,,,,,,1,,,,,,,,low,22,0,22,0,1,,,,,,,,,
293383,2022-10-03_11h41.12.619,vts_reward_expectancy,2022.2.4,MacIntel,60.0024001,Chrome,1470,956,,,,,0,778,,,,,,,,,,,,,,,,,U,146,circle,1,0,,,,,,,,,,,,,,,,repeat,letter,lettRpt,f,1.0472,Hi,,,,,,1,,,,,,,,low,23,0,23,0,1,,,,,,,,,
293383,2022-10-03_11h41.12.619,vts_reward_expectancy,2022.2.4,MacIntel,60.0024001,Chrome,1470,956,,,,,10,788,,,,,,,,,,,,,,,,,Y,160,circle,1,0,,,,,,,,,,,,,,,,switch,number,numSwt,k,0.8545,Hi,,,,,,1,,,,,,,,low,24,0,24,0,1,,,,,,,,,
293383,2022-10-03_11h41.12.619,vts_reward_expectancy,2022.2.4,MacIntel,60.0024001,Chrome,1470,956,,,,,10,798,,,,,,,,,,,,,,,,,H,132,hexagon,1,0,,,,,,,,,,,,,,,,switch,letter,lettSwt,d,1.3227,Lo,,,,,,1,,,,,,,,low,25,0,25,0,1,,,,,,,,,
293383,2022-10-03_11h41.12.619,vts_reward_expectancy,2022.2.4,MacIntel,60.0024001,Chrome,1470,956,,,,,0,798,,,,,,,,,,,,,,,,,U,125,circle,1,0,,,,,,,,,,,,,,,,switch,number,numSwt,j,1.0646,Hi,,,,,,1,,,,,,,,low,26,0,26,0,1,,,,,,,,,
293383,2022-10-03_11h41.12.619,vts_reward_expectancy,2022.2.4,MacIntel,60.0024001,Chrome,1470,956,,,,,1,799,,,,,,,,,,,,,,,,,B,174,hexagon,1,0,,,,,,,,,,,,,,,,repeat,number,numRpt,k,1.1556,Lo,,,,,,1,,,,,,,,low,27,0,27,0,1,,,,,,,,,
293383,2022-10-03_11h41.12.619,vts_reward_expectancy,2022.2.4,MacIntel,60.0024001,Chrome,1470,956,,,,,0,799,,,,,,,,,,,,,,,,,F,181,circle,1,0,,,,,,,,,,,,,,,,switch,letter,lettSwt,d,0.9021,Hi,,,,,,1,,,,,,,,low,28,0,28,0,1,,,,,,,,,
293383,2022-10-03_11h41.12.619,vts_reward_expectancy,2022.2.4,MacIntel,60.0024001,Chrome,1470,956,,,,,1,800,,,,,,,,,,,,,,,,,D,146,hexagon,1,0,,,,,,,,,,,,,,,,repeat,letter,lettRpt,d,0.8121,Lo,,,,,,1,,,,,,,,low,29,0,29,0,1,,,,,,,,,
293383,2022-10-03_11h41.12.619,vts_reward_expectancy,2022.2.4,MacIntel,60.0024001,Chrome,1470,956,,,,,10,810,,,,,,,,,,,,,,,,,W,167,hexagon,1,0,,,,,,,,,,,,,,,,repeat,letter,lettRpt,f,0.8875,Lo,,,,,,1,,,,,,,,low,30,0,30,0,1,,,,,,,,,
293383,2022-10-03_11h41.12.619,vts_reward_expectancy,2022.2.4,MacIntel,60.0024001,Chrome,1470,956,,,,,0,810,,,,,,,,,,,,,,,,,S,139,circle,1,0,,,,,,,,,,,,,,,,repeat,letter,lettRpt,f,1.1131,Hi,,,,,,1,,,,,,,,low,31,0,31,0,1,,,,,,,,,
293383,2022-10-03_11h41.12.619,vts_reward_expectancy,2022.2.4,MacIntel,60.0024001,Chrome,1470,956,,,,,10,820,,,,,,,,,,,,,,,,,B,167,star,1,0,,,,,,,,,,,,,,,,repeat,letter,lettRpt,d,0.0808,Lo,,,,,,2,,,,,,space,60.3382,high,0,0,0,0,1,,,,,,,,,
293383,2022-10-03_11h41.12.619,vts_reward_expectancy,2022.2.4,MacIntel,60.0024001,Chrome,1470,956,,,,,10,830,,,,,,,,,,,,,,,,,D,125,triangle,1,0,,,,,,,,,,,,,,,,repeat,letter,lettRpt,d,0.2988,Hi,,,,,,2,,,,,,,,high,1,0,1,0,1,,,,,,,,,
293383,2022-10-03_11h41.12.619,vts_reward_expectancy,2022.2.4,MacIntel,60.0024001,Chrome,1470,956,,,,,0,830,,,,,,,,,,,,,,,,,F,146,star,0,0,,,,,,,,,,,,,,,,repeat,letter,NA,f,0.5341,Hi,,,,,,2,,,,,,,,high,2,0,2,0,1,,,,,,,,,
293383,2022-10-03_11h41.12.619,vts_reward_expectancy,2022.2.4,MacIntel,60.0024001,Chrome,1470,956,,,,,0,830,,,,,,,,,,,,,,,,,H,174,triangle,0,1,,,,,,,,,,,,,,,,switch,number,NA,j,1.2003,Hi,,,,,,2,,,,,,,,high,3,0,3,0,1,,,,,,,,,
293383,2022-10-03_11h41.12.619,vts_reward_expectancy,2022.2.4,MacIntel,60.0024001,Chrome,1470,956,,,,,1,831,,,,,,,,,,,,,,,,,U,181,star,1,1,,,,,,,,,,,,,,,,switch,letter,lettSwt,f,0.8366,Lo,,,,,,2,,,,,,,,high,4,0,4,0,1,,,,,,,,,
293383,2022-10-03_11h41.12.619,vts_reward_expectancy,2022.2.4,MacIntel,60.0024001,Chrome,1470,956,,,,,0,831,,,,,,,,,,,,,,,,,S,139,triangle,1,0,,,,,,,,,,,,,,,,repeat,letter,lettRpt,f,1.0466,Hi,,,,,,2,,,,,,,,high,5,0,5,0,1,,,,,,,,,
293383,2022-10-03_11h41.12.619,vts_reward_expectancy,2022.2.4,MacIntel,60.0024001,Chrome,1470,956,,,,,0,831,,,,,,,,,,,,,,,,,W,132,triangle,1,0,,,,,,,,,,,,,,,,repeat,letter,lettRpt,f,1.1124,Hi,,,,,,2,,,,,,,,high,6,0,6,0,1,,,,,,,,,
293383,2022-10-03_11h41.12.619,vts_reward_expectancy,2022.2.4,MacIntel,60.0024001,Chrome,1470,956,,,,,0,831,,,,,,,,,,,,,,,,,Y,160,star,0,0,,,,,,,,,,,,,,,,switch,number,NA,j,0.4136,Hi,,,,,,2,,,,,,,,high,7,0,7,0,1,,,,,,,,,
293383,2022-10-03_11h41.12.619,vts_reward_expectancy,2022.2.4,MacIntel,60.0024001,Chrome,1470,956,,,,,0,831,,,,,,,,,,,,,,,,,B,167,triangle,1,1,,,,,,,,,,,,,,,,switch,letter,lettSwt,d,0.8464,Hi,,,,,,2,,,,,,,,high,8,0,8,0,1,,,,,,,,,
293383,2022-10-03_11h41.12.619,vts_reward_expectancy,2022.2.4,MacIntel,60.0024001,Chrome,1470,956,,,,,1,832,,,,,,,,,,,,,,,,,D,125,star,1,0,,,,,,,,,,,,,,,,repeat,letter,lettRpt,d,0.245,Lo,,,,,,2,,,,,,,,high,9,0,9,0,1,,,,,,,,,
293383,2022-10-03_11h41.12.619,vts_reward_expectancy,2022.2.4,MacIntel,60.0024001,Chrome,1470,956,,,,,0,832,,,,,,,,,,,,,,,,,F,146,star,0,0,,,,,,,,,,,,,,,,repeat,letter,NA,f,0.2633,Lo,,,,,,2,,,,,,,,high,10,0,10,0,1,,,,,,,,,
293383,2022-10-03_11h41.12.619,vts_reward_expectancy,2022.2.4,MacIntel,60.0024001,Chrome,1470,956,,,,,0,832,,,,,,,,,,,,,,,,,H,174,triangle,1,1,,,,,,,,,,,,,,,,switch,number,numSwt,k,1.1509,Hi,,,,,,2,,,,,,,,high,11,0,11,0,1,,,,,,,,,
293383,2022-10-03_11h41.12.619,vts_reward_expectancy,2022.2.4,MacIntel,60.0024001,Chrome,1470,956,,,,,1,833,,,,,,,,,,,,,,,,,U,181,star,1,0,,,,,,,,,,,,,,,,switch,letter,lettSwt,f,0.9553,Lo,,,,,,2,,,,,,,,high,12,0,12,0,1,,,,,,,,,
293383,2022-10-03_11h41.12.619,vts_reward_expectancy,2022.2.4,MacIntel,60.0024001,Chrome,1470,956,,,,,0,833,,,,,,,,,,,,,,,,,S,139,triangle,1,0,,,,,,,,,,,,,,,,repeat,letter,lettRpt,f,0.9149,Hi,,,,,,2,,,,,,,,high,13,0,13,0,1,,,,,,,,,
293383,2022-10-03_11h41.12.619,vts_reward_expectancy,2022.2.4,MacIntel,60.0024001,Chrome,1470,956,,,,,0,833,,,,,,,,,,,,,,,,,W,132,triangle,0,0,,,,,,,,,,,,,,,,switch,number,NA,k,0.8459,Hi,,,,,,2,,,,,,,,high,14,0,14,0,1,,,,,,,,,
293383,2022-10-03_11h41.12.619,vts_reward_expectancy,2022.2.4,MacIntel,60.0024001,Chrome,1470,956,,,,,1,834,,,,,,,,,,,,,,,,,Y,160,star,1,1,,,,,,,,,,,,,,,,repeat,number,numRpt,k,0.9143,Lo,,,,,,2,,,,,,,,high,15,0,15,0,1,,,,,,,,,
293383,2022-10-03_11h41.12.619,vts_reward_expectancy,2022.2.4,MacIntel,60.0024001,Chrome,1470,956,,,,,0,834,,,,,,,,,,,,,,,,,W,132,triangle,1,0,,,,,,,,,,,,,,,,switch,letter,lettSwt,f,0.8802,Hi,,,,,,2,,,,,,,,high,16,0,16,0,1,,,,,,,,,
293383,2022-10-03_11h41.12.619,vts_reward_expectancy,2022.2.4,MacIntel,60.0024001,Chrome,1470,956,,,,,10,844,,,,,,,,,,,,,,,,,D,125,star,1,0,,,,,,,,,,,,,,,,repeat,letter,lettRpt,d,1.0316,Lo,,,,,,2,,,,,,,,high,17,0,17,0,1,,,,,,,,,
293383,2022-10-03_11h41.12.619,vts_reward_expectancy,2022.2.4,MacIntel,60.0024001,Chrome,1470,956,,,,,10,854,,,,,,,,,,,,,,,,,Y,181,triangle,1,0,,,,,,,,,,,,,,,,repeat,letter,lettRpt,f,0.6955,Hi,,,,,,2,,,,,,,,high,18,0,18,0,1,,,,,,,,,
293383,2022-10-03_11h41.12.619,vts_reward_expectancy,2022.2.4,MacIntel,60.0024001,Chrome,1470,956,,,,,1,855,,,,,,,,,,,,,,,,,U,146,star,1,0,,,,,,,,,,,,,,,,switch,number,numSwt,j,0.9968,Lo,,,,,,2,,,,,,,,high,19,0,19,0,1,,,,,,,,,
293383,2022-10-03_11h41.12.619,vts_reward_expectancy,2022.2.4,MacIntel,60.0024001,Chrome,1470,956,,,,,1,856,,,,,,,,,,,,,,,,,S,167,star,1,0,,,,,,,,,,,,,,,,repeat,number,numRpt,k,0.9538,Lo,,,,,,2,,,,,,,,high,20,0,20,0,1,,,,,,,,,
293383,2022-10-03_11h41.12.619,vts_reward_expectancy,2022.2.4,MacIntel,60.0024001,Chrome,1470,956,,,,,0,856,,,,,,,,,,,,,,,,,H,174,triangle,1,0,,,,,,,,,,,,,,,,switch,letter,lettSwt,d,1.0811,Hi,,,,,,2,,,,,,,,high,21,0,21,0,1,,,,,,,,,
293383,2022-10-03_11h41.12.619,vts_reward_expectancy,2022.2.4,MacIntel,60.0024001,Chrome,1470,956,,,,,1,857,,,,,,,,,,,,,,,,,F,160,star,1,0,,,,,,,,,,,,,,,,repeat,letter,lettRpt,d,1.0794,Lo,,,,,,2,,,,,,,,high,22,0,22,0,1,,,,,,,,,
293383,2022-10-03_11h41.12.619,vts_reward_expectancy,2022.2.4,MacIntel,60.0024001,Chrome,1470,956,,,,,0,857,,,,,,,,,,,,,,,,,B,139,triangle,1,0,,,,,,,,,,,,,,,,switch,number,numSwt,j,1.0965,Hi,,,,,,2,,,,,,,,high,23,0,23,0,1,,,,,,,,,
293383,2022-10-03_11h41.12.619,vts_reward_expectancy,2022.2.4,MacIntel,60.0024001,Chrome,1470,956,,,,,1,858,,,,,,,,,,,,,,,,,F,181,star,1,0,,,,,,,,,,,,,,,,switch,letter,lettSwt,d,0.7871,Lo,,,,,,2,,,,,,,,high,24,0,24,0,1,,,,,,,,,
293383,2022-10-03_11h41.12.619,vts_reward_expectancy,2022.2.4,MacIntel,60.0024001,Chrome,1470,956,,,,,0,858,,,,,,,,,,,,,,,,,W,160,triangle,1,0,,,,,,,,,,,,,,,,repeat,letter,lettRpt,f,1.0508,Hi,,,,,,2,,,,,,,,high,25,0,25,0,1,,,,,,,,,
293383,2022-10-03_11h41.12.619,vts_reward_expectancy,2022.2.4,MacIntel,60.0024001,Chrome,1470,956,,,,,1,859,,,,,,,,,,,,,,,,,S,139,star,1,0,,,,,,,,,,,,,,,,repeat,letter,lettRpt,f,1.0374,Lo,,,,,,2,,,,,,,,high,26,0,26,0,1,,,,,,,,,
293383,2022-10-03_11h41.12.619,vts_reward_expectancy,2022.2.4,MacIntel,60.0024001,Chrome,1470,956,,,,,10,869,,,,,,,,,,,,,,,,,H,167,triangle,1,0,,,,,,,,,,,,,,,,repeat,letter,lettRpt,d,0.7451,Hi,,,,,,2,,,,,,,,high,27,0,27,0,1,,,,,,,,,
293383,2022-10-03_11h41.12.619,vts_reward_expectancy,2022.2.4,MacIntel,60.0024001,Chrome,1470,956,,,,,1,870,,,,,,,,,,,,,,,,,B,174,triangle,1,0,,,,,,,,,,,,,,,,repeat,letter,lettRpt,d,0.67,Hi,,,,,,2,,,,,,,,high,28,0,28,0,1,,,,,,,,,
293383,2022-10-03_11h41.12.619,vts_reward_expectancy,2022.2.4,MacIntel,60.0024001,Chrome,1470,956,,,,,0,870,,,,,,,,,,,,,,,,,Y,125,star,0,0,,,,,,,,,,,,,,,,repeat,letter,NA,d,1.1983,Hi,,,,,,2,,,,,,,,high,29,0,29,0,1,,,,,,,,,
293383,2022-10-03_11h41.12.619,vts_reward_expectancy,2022.2.4,MacIntel,60.0024001,Chrome,1470,956,,,,,0,870,,,,,,,,,,,,,,,,,U,146,triangle,0,1,,,,,,,,,,,,,,,,switch,number,NA,k,0.9181,Hi,,,,,,2,,,,,,,,high,30,0,30,0,1,,,,,,,,,
293383,2022-10-03_11h41.12.619,vts_reward_expectancy,2022.2.4,MacIntel,60.0024001,Chrome,1470,956,,,,,1,871,,,,,,,,,,,,,,,,,D,132,star,1,1,,,,,,,,,,,,,,,,repeat,number,numRpt,j,0.7463,Lo,,,,,,2,,,,,,,,high,31,0,31,0,1,,,,,,,,,
293383,2022-10-03_11h41.12.619,vts_reward_expectancy,2022.2.4,MacIntel,60.0024001,Chrome,1470,956,,,,,10,881,,,,,,,,,,,,,,,,,S,160,hexagon,1,0,,,,,,,,,,,,,,,,switch,letter,lettSwt,f,0.8387,Lo,,,,,,3,,,,,,space,2.4584,low,0,0,0,0,1,,,,,,,,,
293383,2022-10-03_11h41.12.619,vts_reward_expectancy,2022.2.4,MacIntel,60.0024001,Chrome,1470,956,,,,,0,881,,,,,,,,,,,,,,,,,F,167,circle,1,0,,,,,,,,,,,,,,,,repeat,letter,lettRpt,d,1.0142,Hi,,,,,,3,,,,,,,,low,1,0,1,0,1,,,,,,,,,
293383,2022-10-03_11h41.12.619,vts_reward_expectancy,2022.2.4,MacIntel,60.0024001,Chrome,1470,956,,,,,10,891,,,,,,,,,,,,,,,,,H,125,hexagon,1,0,,,,,,,,,,,,,,,,repeat,letter,lettRpt,d,0.7477,Lo,,,,,,3,,,,,,,,low,2,0,2,0,1,,,,,,,,,
293383,2022-10-03_11h41.12.619,vts_reward_expectancy,2022.2.4,MacIntel,60.0024001,Chrome,1470,956,,,,,0,891,,,,,,,,,,,,,,,,,U,139,circle,0,0,,,,,,,,,,,,,,,,switch,number,NA,k,0.8552,Lo,,,,,,3,,,,,,,,low,3,0,3,0,1,,,,,,,,,
293383,2022-10-03_11h41.12.619,vts_reward_expectancy,2022.2.4,MacIntel,60.0024001,Chrome,1470,956,,,,,10,901,,,,,,,,,,,,,,,,,Y,181,hexagon,1,1,,,,,,,,,,,,,,,,switch,letter,lettSwt,f,0.5962,Lo,,,,,,3,,,,,,,,low,4,0,4,0,1,,,,,,,,,
293383,2022-10-03_11h41.12.619,vts_reward_expectancy,2022.2.4,MacIntel,60.0024001,Chrome,1470,956,,,,,0,901,,,,,,,,,,,,,,,,,B,174,circle,1,0,,,,,,,,,,,,,,,,repeat,letter,lettRpt,d,1.0715,Hi,,,,,,3,,,,,,,,low,5,0,5,0,1,,,,,,,,,
293383,2022-10-03_11h41.12.619,vts_reward_expectancy,2022.2.4,MacIntel,60.0024001,Chrome,1470,956,,,,,1,902,,,,,,,,,,,,,,,,,D,132,hexagon,1,0,,,,,,,,,,,,,,,,repeat,letter,lettRpt,d,0.6802,Lo,,,,,,3,,,,,,,,low,6,0,6,0,1,,,,,,,,,
293383,2022-10-03_11h41.12.619,vts_reward_expectancy,2022.2.4,MacIntel,60.0024001,Chrome,1470,956,,,,,0,902,,,,,,,,,,,,,,,,,W,146,circle,0,0,,,,,,,,,,,,,,,,repeat,letter,NA,d,0.3287,Lo,,,,,,3,,,,,,,,low,7,0,7,0,1,,,,,,,,,
293383,2022-10-03_11h41.12.619,vts_reward_expectancy,2022.2.4,MacIntel,60.0024001,Chrome,1470,956,,,,,1,903,,,,,,,,,,,,,,,,,S,160,hexagon,1,1,,,,,,,,,,,,,,,,repeat,letter,lettRpt,f,0.9134,Lo,,,,,,3,,,,,,,,low,8,0,8,0,1,,,,,,,,,
293383,2022-10-03_11h41.12.619,vts_reward_expectancy,2022.2.4,MacIntel,60.0024001,Chrome,1470,956,,,,,0,903,,,,,,,,,,,,,,,,,F,167,circle,0,0,,,,,,,,,,,,,,,,switch,number,NA,j,0.8288,Lo,,,,,,3,,,,,,,,low,9,0,9,0,1,,,,,,,,,
293383,2022-10-03_11h41.12.619,vts_reward_expectancy,2022.2.4,MacIntel,60.0024001,Chrome,1470,956,,,,,1,904,,,,,,,,,,,,,,,,,H,125,hexagon,1,1,,,,,,,,,,,,,,,,switch,letter,lettSwt,d,0.6655,Lo,,,,,,3,,,,,,,,low,10,0,10,0,1,,,,,,,,,
293383,2022-10-03_11h41.12.619,vts_reward_expectancy,2022.2.4,MacIntel,60.0024001,Chrome,1470,956,,,,,0,904,,,,,,,,,,,,,,,,,U,139,circle,0,0,,,,,,,,,,,,,,,,switch,number,NA,k,0.715,Lo,,,,,,3,,,,,,,,low,11,0,11,0,1,,,,,,,,,
293383,2022-10-03_11h41.12.619,vts_reward_expectancy,2022.2.4,MacIntel,60.0024001,Chrome,1470,956,,,,,0,904,,,,,,,,,,,,,,,,,Y,181,circle,0,1,,,,,,,,,,,,,,,,switch,letter,NA,d,0.747,Lo,,,,,,3,,,,,,,,low,12,0,12,0,1,,,,,,,,,
293383,2022-10-03_11h41.12.619,vts_reward_expectancy,2022.2.4,MacIntel,60.0024001,Chrome,1470,956,,,,,1,905,,,,,,,,,,,,,,,,,B,174,hexagon,1,1,,,,,,,,,,,,,,,,switch,number,numSwt,k,0.8624,Lo,,,,,,3,,,,,,,,low,13,0,13,0,1,,,,,,,,,
293383,2022-10-03_11h41.12.619,vts_reward_expectancy,2022.2.4,MacIntel,60.0024001,Chrome,1470,956,,,,,1,906,,,,,,,,,,,,,,,,,D,132,hexagon,1,0,,,,,,,,,,,,,,,,switch,letter,lettSwt,d,0.6797,Lo,,,,,,3,,,,,,,,low,14,0,14,0,1,,,,,,,,,
293383,2022-10-03_11h41.12.619,vts_reward_expectancy,2022.2.4,MacIntel,60.0024001,Chrome,1470,956,,,,,0,906,,,,,,,,,,,,,,,,,W,146,circle,1,0,,,,,,,,,,,,,,,,repeat,letter,lettRpt,f,0.8149,Hi,,,,,,3,,,,,,,,low,15,0,15,0,1,,,,,,,,,
293383,2022-10-03_11h41.12.619,vts_reward_expectancy,2022.2.4,MacIntel,60.0024001,Chrome,1470,956,,,,,0,906,,,,,,,,,,,,,,,,,B,181,hexagon,0,0,,,,,,,,,,,,,,,,switch,number,NA,j,1.0619,Hi,,,,,,3,,,,,,,,low,16,0,16,0,1,,,,,,,,,
293383,2022-10-03_11h41.12.619,vts_reward_expectancy,2022.2.4,MacIntel,60.0024001,Chrome,1470,956,,,,,1,907,,,,,,,,,,,,,,,,,Y,174,circle,1,1,,,,,,,,,,,,,,,,switch,letter,lettSwt,f,0.7717,Hi,,,,,,3,,,,,,,,low,17,0,17,0,1,,,,,,,,,
293383,2022-10-03_11h41.12.619,vts_reward_expectancy,2022.2.4,MacIntel,60.0024001,Chrome,1470,956,,,,,1,908,,,,,,,,,,,,,,,,,D,139,circle,1,0,,,,,,,,,,,,,,,,switch,number,numSwt,j,0.7618,Hi,,,,,,3,,,,,,,,low,18,0,18,0,1,,,,,,,,,
293383,2022-10-03_11h41.12.619,vts_reward_expectancy,2022.2.4,MacIntel,60.0024001,Chrome,1470,956,,,,,1,909,,,,,,,,,,,,,,,,,U,146,hexagon,1,0,,,,,,,,,,,,,,,,switch,letter,lettSwt,f,0.7156,Lo,,,,,,3,,,,,,,,low,19,0,19,0,1,,,,,,,,,
293383,2022-10-03_11h41.12.619,vts_reward_expectancy,2022.2.4,MacIntel,60.0024001,Chrome,1470,956,,,,,10,919,,,,,,,,,,,,,,,,,F,125,hexagon,1,0,,,,,,,,,,,,,,,,repeat,letter,lettRpt,d,0.6885,Lo,,,,,,3,,,,,,,,low,20,0,20,0,1,,,,,,,,,
293383,2022-10-03_11h41.12.619,vts_reward_expectancy,2022.2.4,MacIntel,60.0024001,Chrome,1470,956,,,,,0,919,,,,,,,,,,,,,,,,,S,160,circle,1,0,,,,,,,,,,,,,,,,repeat,letter,lettRpt,f,0.7832,Hi,,,,,,3,,,,,,,,low,21,0,21,0,1,,,,,,,,,
293383,2022-10-03_11h41.12.619,vts_reward_expectancy,2022.2.4,MacIntel,60.0024001,Chrome,1470,956,,,,,0,919,,,,,,,,,,,,,,,,,W,132,circle,0,0,,,,,,,,,,,,,,,,switch,number,NA,k,0.6489,Hi,,,,,,3,,,,,,,,low,22,0,22,0,1,,,,,,,,,
293383,2022-10-03_11h41.12.619,vts_reward_expectancy,2022.2.4,MacIntel,60.0024001,Chrome,1470,956,,,,,10,929,,,,,,,,,,,,,,,,,H,167,hexagon,1,1,,,,,,,,,,,,,,,,switch,letter,lettSwt,d,0.8895,Lo,,,,,,3,,,,,,,,low,23,0,23,0,1,,,,,,,,,
293383,2022-10-03_11h41.12.619,vts_reward_expectancy,2022.2.4,MacIntel,60.0024001,Chrome,1470,956,,,,,0,929,,,,,,,,,,,,,,,,,U,181,circle,1,0,,,,,,,,,,,,,,,,switch,number,numSwt,k,1.081,Hi,,,,,,3,,,,,,,,low,24,0,24,0,1,,,,,,,,,
293383,2022-10-03_11h41.12.619,vts_reward_expectancy,2022.2.4,MacIntel,60.0024001,Chrome,1470,956,,,,,1,930,,,,,,,,,,,,,,,,,H,139,hexagon,1,0,,,,,,,,,,,,,,,,repeat,number,numRpt,j,1.3626,Lo,,,,,,3,,,,,,,,low,25,0,25,0,1,,,,,,,,,
293383,2022-10-03_11h41.12.619,vts_reward_expectancy,2022.2.4,MacIntel,60.0024001,Chrome,1470,956,,,,,0,930,,,,,,,,,,,,,,,,,S,132,hexagon,0,0,,,,,,,,,,,,,,,,switch,letter,NA,d,0.6022,Lo,,,,,,3,,,,,,,,low,26,0,26,0,1,,,,,,,,,
293383,2022-10-03_11h41.12.619,vts_reward_expectancy,2022.2.4,MacIntel,60.0024001,Chrome,1470,956,,,,,0,930,,,,,,,,,,,,,,,,,B,167,circle,0,1,,,,,,,,,,,,,,,,switch,number,NA,j,0.8137,Lo,,,,,,3,,,,,,,,low,27,0,27,0,1,,,,,,,,,
293383,2022-10-03_11h41.12.619,vts_reward_expectancy,2022.2.4,MacIntel,60.0024001,Chrome,1470,956,,,,,10,940,,,,,,,,,,,,,,,,,F,174,circle,1,1,,,,,,,,,,,,,,,,repeat,number,numRpt,k,0.5542,Hi,,,,,,3,,,,,,,,low,28,0,28,0,1,,,,,,,,,
293383,2022-10-03_11h41.12.619,vts_reward_expectancy,2022.2.4,MacIntel,60.0024001,Chrome,1470,956,,,,,10,950,,,,,,,,,,,,,,,,,D,160,hexagon,1,0,,,,,,,,,,,,,,,,repeat,number,numRpt,k,0.8794,Lo,,,,,,3,,,,,,,,low,29,0,29,0,1,,,,,,,,,
293383,2022-10-03_11h41.12.619,vts_reward_expectancy,2022.2.4,MacIntel,60.0024001,Chrome,1470,956,,,,,1,951,,,,,,,,,,,,,,,,,W,125,hexagon,1,0,,,,,,,,,,,,,,,,switch,letter,lettSwt,f,0.9399,Lo,,,,,,3,,,,,,,,low,30,0,30,0,1,,,,,,,,,
293383,2022-10-03_11h41.12.619,vts_reward_expectancy,2022.2.4,MacIntel,60.0024001,Chrome,1470,956,,,,,0,951,,,,,,,,,,,,,,,,,Y,146,circle,1,0,,,,,,,,,,,,,,,,repeat,letter,lettRpt,f,0.7008,Hi,,,,,,3,,,,,,,,low,31,0,31,0,1,,,,,,,,,
293383,2022-10-03_11h41.12.619,vts_reward_expectancy,2022.2.4,MacIntel,60.0024001,Chrome,1470,956,,,,,0,951,,,,,,,,,,,,,,,,,F,167,triangle,1,0,,,,,,,,,,,,,,,,repeat,letter,lettRpt,d,0.771,Hi,,,,,,4,,,,,,space,38.9179,high,0,0,0,0,1,,,,,,,,,
293383,2022-10-03_11h41.12.619,vts_reward_expectancy,2022.2.4,MacIntel,60.0024001,Chrome,1470,956,,,,,0,951,,,,,,,,,,,,,,,,,S,132,star,0,0,,,,,,,,,,,,,,,,repeat,letter,NA,d,0.7133,Hi,,,,,,4,,,,,,,,high,1,0,1,0,1,,,,,,,,,
293383,2022-10-03_11h41.12.619,vts_reward_expectancy,2022.2.4,MacIntel,60.0024001,Chrome,1470,956,,,,,0,951,,,,,,,,,,,,,,,,,U,181,triangle,0,1,,,,,,,,,,,,,,,,repeat,letter,NA,d,0.4037,Hi,,,,,,4,,,,,,,,high,2,0,2,0,1,,,,,,,,,
293383,2022-10-03_11h41.12.619,vts_reward_expectancy,2022.2.4,MacIntel,60.0024001,Chrome,1470,956,,,,,10,961,,,,,,,,,,,,,,,,,D,146,star,1,1,,,,,,,,,,,,,,,,repeat,letter,lettRpt,d,0.6786,Lo,,,,,,4,,,,,,,,high,3,0,3,0,1,,,,,,,,,
293383,2022-10-03_11h41.12.619,vts_reward_expectancy,2022.2.4,MacIntel,60.0024001,Chrome,1470,956,,,,,0,961,,,,,,,,,,,,,,,,,H,160,triangle,1,0,,,,,,,,,,,,,,,,repeat,letter,lettRpt,d,0.8287,Hi,,,,,,4,,,,,,,,high,4,0,4,0,1,,,,,,,,,
293383,2022-10-03_11h41.12.619,vts_reward_expectancy,2022.2.4,MacIntel,60.0024001,Chrome,1470,956,,,,,1,962,,,,,,,,,,,,,,,,,B,125,star,1,0,,,,,,,,,,,,,,,,repeat,letter,lettRpt,d,0.9311,Lo,,,,,,4,,,,,,,,high,5,0,5,0,1,,,,,,,,,
293383,2022-10-03_11h41.12.619,vts_reward_expectancy,2022.2.4,MacIntel,60.0024001,Chrome,1470,956,,,,,10,972,,,,,,,,,,,,,,,,,W,139,triangle,1,0,,,,,,,,,,,,,,,,repeat,letter,lettRpt,f,0.6789,Hi,,,,,,4,,,,,,,,high,6,0,6,0,1,,,,,,,,,
293383,2022-10-03_11h41.12.619,vts_reward_expectancy,2022.2.4,MacIntel,60.0024001,Chrome,1470,956,,,,,0,972,,,,,,,,,,,,,,,,,Y,174,star,0,0,,,,,,,,,,,,,,,,switch,number,NA,j,0.4492,Hi,,,,,,4,,,,,,,,high,7,0,7,0,1,,,,,,,,,
293383,2022-10-03_11h41.12.619,vts_reward_expectancy,2022.2.4,MacIntel,60.0024001,Chrome,1470,956,,,,,10,982,,,,,,,,,,,,,,,,,F,167,star,1,1,,,,,,,,,,,,,,,,switch,letter,lettSwt,d,0.8787,Lo,,,,,,4,,,,,,,,high,8,0,8,0,1,,,,,,,,,
293383,2022-10-03_11h41.12.619,vts_reward_expectancy,2022.2.4,MacIntel,60.0024001,Chrome,1470,956,,,,,10,992,,,,,,,,,,,,,,,,,S,132,triangle,1,0,,,,,,,,,,,,,,,,switch,number,numSwt,j,0.7459,Hi,,,,,,4,,,,,,,,high,9,0,9,0,1,,,,,,,,,
293383,2022-10-03_11h41.12.619,vts_reward_expectancy,2022.2.4,MacIntel,60.0024001,Chrome,1470,956,,,,,10,1002,,,,,,,,,,,,,,,,,U,181,triangle,1,0,,,,,,,,,,,,,,,,switch,letter,lettSwt,f,0.6482,Hi,,,,,,4,,,,,,,,high,10,0,10,0,1,,,,,,,,,
293383,2022-10-03_11h41.12.619,vts_reward_expectancy,2022.2.4,MacIntel,60.0024001,Chrome,1470,956,,,,,1,1003,,,,,,,,,,,,,,,,,D,146,star,1,0,,,,,,,,,,,,,,,,repeat,letter,lettRpt,d,0.8723,Lo,,,,,,4,,,,,,,,high,11,0,11,0,1,,,,,,,,,
293383,2022-10-03_11h41.12.619,vts_reward_expectancy,2022.2.4,MacIntel,60.0024001,Chrome,1470,956,,,,,0,1003,,,,,,,,,,,,,,,,,H,160,star,0,0,,,,,,,,,,,,,,,,repeat,letter,NA,f,0.8139,Lo,,,,,,4,,,,,,,,high,12,0,12,0,1,,,,,,,,,
293383,2022-10-03_11h41.12.619,vts_reward_expectancy,2022.2.4,MacIntel,60.0024001,Chrome,1470,956,,,,,0,1003,,,,,,,,,,,,,,,,,B,125,triangle,1,1,,,,,,,,,,,,,,,,switch,number,numSwt,j,0.9645,Hi,,,,,,4,,,,,,,,high,13,0,13,0,1,,,,,,,,,
293383,2022-10-03_11h41.12.619,vts_reward_expectancy,2022.2.4,MacIntel,60.0024001,Chrome,1470,956,,,,,10,1013,,,,,,,,,,,,,,,,,W,139,star,1,0,,,,,,,,,,,,,,,,switch,letter,lettSwt,f,0.8334,Lo,,,,,,4,,,,,,,,high,14,0,14,0,1,,,,,,,,,
293383,2022-10-03_11h41.12.619,vts_reward_expectancy,2022.2.4,MacIntel,60.0024001,Chrome,1470,956,,,,,0,1013,,,,,,,,,,,,,,,,,Y,174,triangle,0,0,,,,,,,,,,,,,,,,switch,number,NA,j,0.8126,Lo,,,,,,4,,,,,,,,high,15,0,15,0,1,,,,,,,,,
293383,2022-10-03_11h41.12.619,vts_reward_expectancy,2022.2.4,MacIntel,60.0024001,Chrome,1470,956,,,,,1,1014,,,,,,,,,,,,,,,,,Y,139,star,1,1,,,,,,,,,,,,,,,,switch,letter,lettSwt,f,1.2532,Lo,,,,,,4,,,,,,,,high,16,0,16,0,1,,,,,,,,,
293383,2022-10-03_11h41.12.619,vts_reward_expectancy,2022.2.4,MacIntel,60.0024001,Chrome,1470,956,,,,,10,1024,,,,,,,,,,,,,,,,,W,174,triangle,1,0,,,,,,,,,,,,,,,,switch,number,numSwt,k,0.7805,Hi,,,,,,4,,,,,,,,high,17,0,17,0,1,,,,,,,,,
293383,2022-10-03_11h41.12.619,vts_reward_expectancy,2022.2.4,MacIntel,60.0024001,Chrome,1470,956,,,,,10,1034,,,,,,,,,,,,,,,,,S,160,star,1,0,,,,,,,,,,,,,,,,switch,letter,lettSwt,f,0.9472,Lo,,,,,,4,,,,,,,,high,18,0,18,0,1,,,,,,,,,
293383,2022-10-03_11h41.12.619,vts_reward_expectancy,2022.2.4,MacIntel,60.0024001,Chrome,1470,956,,,,,0,1034,,,,,,,,,,,,,,,,,U,167,triangle,1,0,,,,,,,,,,,,,,,,repeat,letter,lettRpt,f,0.7972,Hi,,,,,,4,,,,,,,,high,19,0,19,0,1,,,,,,,,,
293383,2022-10-03_11h41.12.619,vts_reward_expectancy,2022.2.4,MacIntel,60.0024001,Chrome,1470,956,,,,,10,1044,,,,,,,,,,,,,,,,,F,132,triangle,1,0,,,,,,,,,,,,,,,,repeat,letter,lettRpt,d,0.7151,Hi,,,,,,4,,,,,,,,high,20,0,20,0,1,,,,,,,,,
293383,2022-10-03_11h41.12.619,vts_reward_expectancy,2022.2.4,MacIntel,60.0024001,Chrome,1470,956,,,,,1,1045,,,,,,,,,,,,,,,,,H,181,star,1,0,,,,,,,,,,,,,,,,repeat,letter,lettRpt,d,0.8404,Lo,,,,,,4,,,,,,,,high,21,0,21,0,1,,,,,,,,,
293383,2022-10-03_11h41.12.619,vts_reward_expectancy,2022.2.4,MacIntel,60.0024001,Chrome,1470,956,,,,,1,1046,,,,,,,,,,,,,,,,,B,146,star,1,0,,,,,,,,,,,,,,,,repeat,letter,lettRpt,d,0.7358,Lo,,,,,,4,,,,,,,,high,22,0,22,0,1,,,,,,,,,
293383,2022-10-03_11h41.12.619,vts_reward_expectancy,2022.2.4,MacIntel,60.0024001,Chrome,1470,956,,,,,10,1056,,,,,,,,,,,,,,,,,D,125,triangle,1,0,,,,,,,,,,,,,,,,repeat,letter,lettRpt,d,0.6794,Hi,,,,,,4,,,,,,,,high,23,0,23,0,1,,,,,,,,,
293383,2022-10-03_11h41.12.619,vts_reward_expectancy,2022.2.4,MacIntel,60.0024001,Chrome,1470,956,,,,,1,1057,,,,,,,,,,,,,,,,,H,125,triangle,1,0,,,,,,,,,,,,,,,,repeat,letter,lettRpt,d,0.6743,Hi,,,,,,4,,,,,,,,high,24,0,24,0,1,,,,,,,,,
293383,2022-10-03_11h41.12.619,vts_reward_expectancy,2022.2.4,MacIntel,60.0024001,Chrome,1470,956,,,,,1,1058,,,,,,,,,,,,,,,,,Y,181,star,1,0,,,,,,,,,,,,,,,,repeat,letter,lettRpt,f,0.9315,Lo,,,,,,4,,,,,,,,high,25,0,25,0,1,,,,,,,,,
293383,2022-10-03_11h41.12.619,vts_reward_expectancy,2022.2.4,MacIntel,60.0024001,Chrome,1470,956,,,,,10,1068,,,,,,,,,,,,,,,,,U,139,triangle,1,0,,,,,,,,,,,,,,,,repeat,letter,lettRpt,f,0.6972,Hi,,,,,,4,,,,,,,,high,26,0,26,0,1,,,,,,,,,
293383,2022-10-03_11h41.12.619,vts_reward_expectancy,2022.2.4,MacIntel,60.0024001,Chrome,1470,956,,,,,1,1069,,,,,,,,,,,,,,,,,D,132,star,1,0,,,,,,,,,,,,,,,,repeat,letter,lettRpt,d,0.8708,Lo,,,,,,4,,,,,,,,high,27,0,27,0,1,,,,,,,,,
293383,2022-10-03_11h41.12.619,vts_reward_expectancy,2022.2.4,MacIntel,60.0024001,Chrome,1470,956,,,,,0,1069,,,,,,,,,,,,,,,,,S,146,triangle,1,0,,,,,,,,,,,,,,,,repeat,letter,lettRpt,f,1.536,Hi,,,,,,4,,,,,,,,high,28,0,28,0,1,,,,,,,,,
293383,2022-10-03_11h41.12.619,vts_reward_expectancy,2022.2.4,MacIntel,60.0024001,Chrome,1470,956,,,,,0,1069,,,,,,,,,,,,,,,,,W,160,star,0,0,,,,,,,,,,,,,,,,switch,number,NA,j,0.8803,Hi,,,,,,4,,,,,,,,high,29,0,29,0,1,,,,,,,,,
293383,2022-10-03_11h41.12.619,vts_reward_expectancy,2022.2.4,MacIntel,60.0024001,Chrome,1470,956,,,,,0,1069,,,,,,,,,,,,,,,,,B,167,triangle,1,1,,,,,,,,,,,,,,,,switch,letter,lettSwt,d,1.2415,Hi,,,,,,4,,,,,,,,high,30,0,30,0,1,,,,,,,,,
293383,2022-10-03_11h41.12.619,vts_reward_expectancy,2022.2.4,MacIntel,60.0024001,Chrome,1470,956,,,,,0,1069,,,,,,,,,,,,,,,,,F,174,star,0,0,,,,,,,,,,,,,,,,switch,number,NA,j,0.2799,Hi,,,,,,4,,,,,,,,high,31,0,31,0,1,,,,,,,,,
293383,2022-10-03_11h41.12.619,vts_reward_expectancy,2022.2.4,MacIntel,60.0024001,Chrome,1470,956,,,,,0,1069,,,,,,,,,,,,,,,,,B,139,circle,1,1,,,,,,,,,,,,,,,,switch,letter,lettSwt,d,0.8638,Hi,,,,,,5,,,,,,space,4.4668,low,0,0,0,0,1,,,,,,,,,
293383,2022-10-03_11h41.12.619,vts_reward_expectancy,2022.2.4,MacIntel,60.0024001,Chrome,1470,956,,,,,1,1070,,,,,,,,,,,,,,,,,H,167,hexagon,1,0,,,,,,,,,,,,,,,,repeat,letter,lettRpt,d,0.8054,Lo,,,,,,5,,,,,,,,low,1,0,1,0,1,,,,,,,,,
293383,2022-10-03_11h41.12.619,vts_reward_expectancy,2022.2.4,MacIntel,60.0024001,Chrome,1470,956,,,,,1,1071,,,,,,,,,,,,,,,,,Y,174,circle,1,0,,,,,,,,,,,,,,,,switch,number,numSwt,k,0.5821,Hi,,,,,,5,,,,,,,,low,2,0,2,0,1,,,,,,,,,
293383,2022-10-03_11h41.12.619,vts_reward_expectancy,2022.2.4,MacIntel,60.0024001,Chrome,1470,956,,,,,1,1072,,,,,,,,,,,,,,,,,U,146,hexagon,1,0,,,,,,,,,,,,,,,,switch,letter,lettSwt,f,0.8526,Lo,,,,,,5,,,,,,,,low,3,0,3,0,1,,,,,,,,,
293383,2022-10-03_11h41.12.619,vts_reward_expectancy,2022.2.4,MacIntel,60.0024001,Chrome,1470,956,,,,,1,1073,,,,,,,,,,,,,,,,,D,125,hexagon,1,0,,,,,,,,,,,,,,,,repeat,letter,lettRpt,d,0.8975,Lo,,,,,,5,,,,,,,,low,4,0,4,0,1,,,,,,,,,
293383,2022-10-03_11h41.12.619,vts_reward_expectancy,2022.2.4,MacIntel,60.0024001,Chrome,1470,956,,,,,0,1073,,,,,,,,,,,,,,,,,W,132,circle,0,0,,,,,,,,,,,,,,,,switch,number,NA,k,0.8166,Lo,,,,,,5,,,,,,,,low,5,0,5,0,1,,,,,,,,,
293383,2022-10-03_11h41.12.619,vts_reward_expectancy,2022.2.4,MacIntel,60.0024001,Chrome,1470,956,,,,,10,1083,,,,,,,,,,,,,,,,,F,181,circle,1,1,,,,,,,,,,,,,,,,switch,letter,lettSwt,d,0.7801,Hi,,,,,,5,,,,,,,,low,6,0,6,0,1,,,,,,,,,
293383,2022-10-03_11h41.12.619,vts_reward_expectancy,2022.2.4,MacIntel,60.0024001,Chrome,1470,956,,,,,1,1084,,,,,,,,,,,,,,,,,S,160,hexagon,1,0,,,,,,,,,,,,,,,,repeat,letter,lettRpt,f,1.0392,Lo,,,,,,5,,,,,,,,low,7,0,7,0,1,,,,,,,,,
293383,2022-10-03_11h41.12.619,vts_reward_expectancy,2022.2.4,MacIntel,60.0024001,Chrome,1470,956,,,,,0,1084,,,,,,,,,,,,,,,,,B,139,circle,1,0,,,,,,,,,,,,,,,,repeat,letter,lettRpt,d,1.1639,Hi,,,,,,5,,,,,,,,low,8,0,8,0,1,,,,,,,,,
293383,2022-10-03_11h41.12.619,vts_reward_expectancy,2022.2.4,MacIntel,60.0024001,Chrome,1470,956,,,,,10,1094,,,,,,,,,,,,,,,,,H,167,hexagon,1,0,,,,,,,,,,,,,,,,repeat,letter,lettRpt,d,0.7032,Lo,,,,,,5,,,,,,,,low,9,0,9,0,1,,,,,,,,,
293383,2022-10-03_11h41.12.619,vts_reward_expectancy,2022.2.4,MacIntel,60.0024001,Chrome,1470,956,,,,,1,1095,,,,,,,,,,,,,,,,,Y,174,hexagon,1,0,,,,,,,,,,,,,,,,repeat,letter,lettRpt,f,0.9649,Lo,,,,,,5,,,,,,,,low,10,0,10,0,1,,,,,,,,,
293383,2022-10-03_11h41.12.619,vts_reward_expectancy,2022.2.4,MacIntel,60.0024001,Chrome,1470,956,,,,,0,1095,,,,,,,,,,,,,,,,,U,146,circle,1,0,,,,,,,,,,,,,,,,switch,number,numSwt,j,0.9336,Hi,,,,,,5,,,,,,,,low,11,0,11,0,1,,,,,,,,,
293383,2022-10-03_11h41.12.619,vts_reward_expectancy,2022.2.4,MacIntel,60.0024001,Chrome,1470,956,,,,,0,1095,,,,,,,,,,,,,,,,,D,125,circle,1,0,,,,,,,,,,,,,,,,switch,letter,lettSwt,d,1.0527,Hi,,,,,,5,,,,,,,,low,12,0,12,0,1,,,,,,,,,
293383,2022-10-03_11h41.12.619,vts_reward_expectancy,2022.2.4,MacIntel,60.0024001,Chrome,1470,956,,,,,10,1105,,,,,,,,,,,,,,,,,W,132,hexagon,1,0,,,,,,,,,,,,,,,,repeat,letter,lettRpt,f,0.9645,Lo,,,,,,5,,,,,,,,low,13,0,13,0,1,,,,,,,,,
293383,2022-10-03_11h41.12.619,vts_reward_expectancy,2022.2.4,MacIntel,60.0024001,Chrome,1470,956,,,,,10,1115,,,,,,,,,,,,,,,,,F,181,hexagon,1,0,,,,,,,,,,,,,,,,repeat,letter,lettRpt,d,0.6964,Lo,,,,,,5,,,,,,,,low,14,0,14,0,1,,,,,,,,,
293383,2022-10-03_11h41.12.619,vts_reward_expectancy,2022.2.4,MacIntel,60.0024001,Chrome,1470,956,,,,,0,1115,,,,,,,,,,,,,,,,,S,160,circle,0,0,,,,,,,,,,,,,,,,switch,number,NA,j,0.7452,Lo,,,,,,5,,,,,,,,low,15,0,15,0,1,,,,,,,,,
293383,2022-10-03_11h41.12.619,vts_reward_expectancy,2022.2.4,MacIntel,60.0024001,Chrome,1470,956,,,,,1,1116,,,,,,,,,,,,,,,,,S,139,circle,1,1,,,,,,,,,,,,,,,,repeat,number,numRpt,j,0.8688,Hi,,,,,,5,,,,,,,,low,16,0,16,0,1,,,,,,,,,
293383,2022-10-03_11h41.12.619,vts_reward_expectancy,2022.2.4,MacIntel,60.0024001,Chrome,1470,956,,,,,1,1117,,,,,,,,,,,,,,,,,U,160,hexagon,1,0,,,,,,,,,,,,,,,,switch,letter,lettSwt,f,0.9649,Lo,,,,,,5,,,,,,,,low,17,0,17,0,1,,,,,,,,,
293383,2022-10-03_11h41.12.619,vts_reward_expectancy,2022.2.4,MacIntel,60.0024001,Chrome,1470,956,,,,,1,1118,,,,,,,,,,,,,,,,,W,167,hexagon,1,0,,,,,,,,,,,,,,,,switch,number,numSwt,k,0.7116,Lo,,,,,,5,,,,,,,,low,18,0,18,0,1,,,,,,,,,
293383,2022-10-03_11h41.12.619,vts_reward_expectancy,2022.2.4,MacIntel,60.0024001,Chrome,1470,956,,,,,0,1118,,,,,,,,,,,,,,,,,B,125,circle,1,0,,,,,,,,,,,,,,,,switch,letter,lettSwt,d,0.9305,Hi,,,,,,5,,,,,,,,low,19,0,19,0,1,,,,,,,,,
293383,2022-10-03_11h41.12.619,vts_reward_expectancy,2022.2.4,MacIntel,60.0024001,Chrome,1470,956,,,,,0,1118,,,,,,,,,,,,,,,,,D,174,circle,1,0,,,,,,,,,,,,,,,,switch,number,numSwt,k,1.1471,Hi,,,,,,5,,,,,,,,low,20,0,20,0,1,,,,,,,,,
293383,2022-10-03_11h41.12.619,vts_reward_expectancy,2022.2.4,MacIntel,60.0024001,Chrome,1470,956,,,,,0,1118,,,,,,,,,,,,,,,,,H,146,hexagon,0,0,,,,,,,,,,,,,,,,switch,letter,NA,f,0.8875,Hi,,,,,,5,,,,,,,,low,21,0,21,0,1,,,,,,,,,
293383,2022-10-03_11h41.12.619,vts_reward_expectancy,2022.2.4,MacIntel,60.0024001,Chrome,1470,956,,,,,0,1118,,,,,,,,,,,,,,,,,Y,132,circle,0,1,,,,,,,,,,,,,,,,switch,number,NA,k,0.8219,Hi,,,,,,5,,,,,,,,low,22,0,22,0,1,,,,,,,,,
293383,2022-10-03_11h41.12.619,vts_reward_expectancy,2022.2.4,MacIntel,60.0024001,Chrome,1470,956,,,,,10,1128,,,,,,,,,,,,,,,,,F,181,hexagon,1,1,,,,,,,,,,,,,,,,repeat,number,numRpt,k,1.0037,Lo,,,,,,5,,,,,,,,low,23,0,23,0,1,,,,,,,,,
293383,2022-10-03_11h41.12.619,vts_reward_expectancy,2022.2.4,MacIntel,60.0024001,Chrome,1470,956,,,,,0,1128,,,,,,,,,,,,,,,,,D,125,circle,1,0,,,,,,,,,,,,,,,,switch,letter,lettSwt,d,1.0649,Hi,,,,,,5,,,,,,,,low,24,0,24,0,1,,,,,,,,,
293383,2022-10-03_11h41.12.619,vts_reward_expectancy,2022.2.4,MacIntel,60.0024001,Chrome,1470,956,,,,,10,1138,,,,,,,,,,,,,,,,,U,167,hexagon,1,0,,,,,,,,,,,,,,,,repeat,letter,lettRpt,f,1.1646,Lo,,,,,,5,,,,,,,,low,25,0,25,0,1,,,,,,,,,
293383,2022-10-03_11h41.12.619,vts_reward_expectancy,2022.2.4,MacIntel,60.0024001,Chrome,1470,956,,,,,0,1138,,,,,,,,,,,,,,,,,F,139,circle,1,0,,,,,,,,,,,,,,,,repeat,letter,lettRpt,d,1.0301,Hi,,,,,,5,,,,,,,,low,26,0,26,0,1,,,,,,,,,
293383,2022-10-03_11h41.12.619,vts_reward_expectancy,2022.2.4,MacIntel,60.0024001,Chrome,1470,956,,,,,10,1148,,,,,,,,,,,,,,,,,H,160,hexagon,1,0,,,,,,,,,,,,,,,,switch,number,numSwt,k,0.8293,Lo,,,,,,5,,,,,,,,low,27,0,27,0,1,,,,,,,,,
293383,2022-10-03_11h41.12.619,vts_reward_expectancy,2022.2.4,MacIntel,60.0024001,Chrome,1470,956,,,,,1,1149,,,,,,,,,,,,,,,,,B,174,hexagon,1,0,,,,,,,,,,,,,,,,switch,letter,lettSwt,d,0.9798,Lo,,,,,,5,,,,,,,,low,28,0,28,0,1,,,,,,,,,
293383,2022-10-03_11h41.12.619,vts_reward_expectancy,2022.2.4,MacIntel,60.0024001,Chrome,1470,956,,,,,0,1149,,,,,,,,,,,,,,,,,Y,181,circle,1,0,,,,,,,,,,,,,,,,switch,number,numSwt,k,1.5816,Hi,,,,,,5,,,,,,,,low,29,0,29,0,1,,,,,,,,,
293383,2022-10-03_11h41.12.619,vts_reward_expectancy,2022.2.4,MacIntel,60.0024001,Chrome,1470,956,,,,,10,1159,,,,,,,,,,,,,,,,,W,146,circle,1,0,,,,,,,,,,,,,,,,switch,letter,lettSwt,f,0.7518,Hi,,,,,,5,,,,,,,,low,30,0,30,0,1,,,,,,,,,
293383,2022-10-03_11h41.12.619,vts_reward_expectancy,2022.2.4,MacIntel,60.0024001,Chrome,1470,956,,,,,0,1159,,,,,,,,,,,,,,,,,S,132,hexagon,0,0,,,,,,,,,,,,,,,,switch,number,NA,k,0.813,Hi,,,,,,5,,,,,,,,low,31,0,31,0,1,,,,,,,,,
293383,2022-10-03_11h41.12.619,vts_reward_expectancy,2022.2.4,MacIntel,60.0024001,Chrome,1470,956,,,,,,,,,,,,,,,,,,,,,,,,,,,,,,,,,,,,,,,,,,,,,,,,,,,,,,6,,,,,,,,,,,,,,I had to press A for a letter closer to A and press D for a letter closer to Z. I also had to press J for a number smaller than 153 and press K for a number bigger than 153.,2,When it said Error 0,5,2,,2,1470,956
