participant,date,expName,psychopyVersion,OS,frameRate,browser,xResolution,yResolution,key_resp.keys,key_resp.rt,training_resp.keys,training_resp.rt,points_trial,points_cumul,trainBlock,training.thisRepN,training.thisTrialN,training.thisN,training.thisIndex,training.ran,LTriangleOpac,LCircleOpac,LHexagonOpac,LStarOpac,RTriangleOpac,RCircleOpac,RHexagonOpac,RStarOpac,LShape_ID,RShape_ID,curr_topStim,curr_bottStim,curr_shape,acc,E1,target_resp_prac1.keys,pracBlock,task1_prac_trials.thisRepN,task1_prac_trials.thisTrialN,task1_prac_trials.thisN,task1_prac_trials.thisIndex,task1_prac_trials.ran,target_resp_prac1.rt,target_resp_prac2.keys,target_resp_prac2.rt,task2_praac_trials.thisRepN,task2_praac_trials.thisTrialN,task2_praac_trials.thisN,task2_praac_trials.thisIndex,task2_praac_trials.ran,alt,task,condition,target_resp.keys,target_resp.rt,rewCond,vts_practice_trials.thisRepN,vts_practice_trials.thisTrialN,vts_practice_trials.thisN,vts_practice_trials.thisIndex,vts_practice_trials.ran,blockNum,trials_norew.thisRepN,trials_norew.thisTrialN,trials_norew.thisN,trials_norew.thisIndex,trials_norew.ran,key_resp_2.keys,key_resp_2.rt,rewExpect,trials_rew.thisRepN,trials_rew.thisTrialN,trials_rew.thisN,trials_rew.thisIndex,trials_rew.ran,Q1,Q2,Q2_text,Q3,Q4,Q5_text,Q5,xRes,yRes
293227,2022-10-04_08h51.41.106,vts_reward_expectancy,2022.2.4,MacIntel,60.0024001,Chrome,1440,900,,,,,,,,,,,,,,,,,,,,,,,,,,,,,,,,,,,,,,,,,,,,,,,,,,,,,,,,,,,,,,,,,,,,,,,,,,,,
293227,2022-10-04_08h51.41.106,vts_reward_expectancy,2022.2.4,MacIntel,60.0024001,Chrome,1440,900,space,13.617,,,,,,,,,,,,,,,,,,,,,,,,,,,,,,,,,,,,,,,,,,,,,,,,,,,,,,,,,,,,,,,,,,,,,,,,,,
293227,2022-10-04_08h51.41.106,vts_reward_expectancy,2022.2.4,MacIntel,60.0024001,Chrome,1440,900,,,,,,,,,,,,,,,,,,,,,,,,,,,,,,,,,,,,,,,,,,,,,,,,,,,,,,,,,,,,,,,,,,,,,,,,,,,,
293227,2022-10-04_08h51.41.106,vts_reward_expectancy,2022.2.4,MacIntel,60.0024001,Chrome,1440,900,,,l,1.1745,1,1,0,0,0,0,3,1,0,1,0,0,1,0,0,0,circle,triangle,,,,,,,,,,,,,,,,,,,,,,,,,,,,,,,,,,,,,,,,,,,,,,,,,,,,,,
293227,2022-10-04_08h51.41.106,vts_reward_expectancy,2022.2.4,MacIntel,60.0024001,Chrome,1440,900,,,a,1.1466,10,11,0,0,1,1,0,1,1,0,0,0,0,1,0,0,triangle,circle,,,,,,,,,,,,,,,,,,,,,,,,,,,,,,,,,,,,,,,,,,,,,,,,,,,,,,
293227,2022-10-04_08h51.41.106,vts_reward_expectancy,2022.2.4,MacIntel,60.0024001,Chrome,1440,900,,,l,0.7494,10,21,0,0,2,2,2,1,1,0,0,0,0,0,0,1,triangle,star,,,,,,,,,,,,,,,,,,,,,,,,,,,,,,,,,,,,,,,,,,,,,,,,,,,,,,
293227,2022-10-04_08h51.41.106,vts_reward_expectancy,2022.2.4,MacIntel,60.0024001,Chrome,1440,900,,,a,0.5908,10,31,0,0,3,3,5,1,0,1,0,0,0,0,0,1,circle,star,,,,,,,,,,,,,,,,,,,,,,,,,,,,,,,,,,,,,,,,,,,,,,,,,,,,,,
293227,2022-10-04_08h51.41.106,vts_reward_expectancy,2022.2.4,MacIntel,60.0024001,Chrome,1440,900,,,a,0.8146,10,41,0,0,4,4,10,1,0,0,0,1,0,1,0,0,star ,circle,,,,,,,,,,,,,,,,,,,,,,,,,,,,,,,,,,,,,,,,,,,,,,,,,,,,,,
293227,2022-10-04_08h51.41.106,vts_reward_expectancy,2022.2.4,MacIntel,60.0024001,Chrome,1440,900,,,a,0.6436,1,42,0,0,5,5,7,1,0,0,1,0,0,1,0,0,hexagon,circle,,,,,,,,,,,,,,,,,,,,,,,,,,,,,,,,,,,,,,,,,,,,,,,,,,,,,,
293227,2022-10-04_08h51.41.106,vts_reward_expectancy,2022.2.4,MacIntel,60.0024001,Chrome,1440,900,,,a,1.0221,10,52,0,0,6,6,4,1,0,1,0,0,0,0,1,0,circle,hexagon,,,,,,,,,,,,,,,,,,,,,,,,,,,,,,,,,,,,,,,,,,,,,,,,,,,,,,
293227,2022-10-04_08h51.41.106,vts_reward_expectancy,2022.2.4,MacIntel,60.0024001,Chrome,1440,900,,,l,0.6806,10,62,0,0,7,7,6,1,0,0,1,0,1,0,0,0,hexagon,triangle,,,,,,,,,,,,,,,,,,,,,,,,,,,,,,,,,,,,,,,,,,,,,,,,,,,,,,
293227,2022-10-04_08h51.41.106,vts_reward_expectancy,2022.2.4,MacIntel,60.0024001,Chrome,1440,900,,,l,0.9339,1,63,0,0,8,8,9,1,0,0,0,1,1,0,0,0,star,triangle,,,,,,,,,,,,,,,,,,,,,,,,,,,,,,,,,,,,,,,,,,,,,,,,,,,,,,
293227,2022-10-04_08h51.41.106,vts_reward_expectancy,2022.2.4,MacIntel,60.0024001,Chrome,1440,900,,,l,0.8763,1,64,0,0,9,9,1,1,1,0,0,0,0,0,1,0,triangle,hexagon,,,,,,,,,,,,,,,,,,,,,,,,,,,,,,,,,,,,,,,,,,,,,,,,,,,,,,
293227,2022-10-04_08h51.41.106,vts_reward_expectancy,2022.2.4,MacIntel,60.0024001,Chrome,1440,900,,,l,0.9424,1,65,0,0,10,10,11,1,0,0,0,1,0,0,1,0,star,hexagon,,,,,,,,,,,,,,,,,,,,,,,,,,,,,,,,,,,,,,,,,,,,,,,,,,,,,,
293227,2022-10-04_08h51.41.106,vts_reward_expectancy,2022.2.4,MacIntel,60.0024001,Chrome,1440,900,,,a,1.3137,10,75,0,0,11,11,8,1,0,0,1,0,0,0,0,1,hexagon,star,,,,,,,,,,,,,,,,,,,,,,,,,,,,,,,,,,,,,,,,,,,,,,,,,,,,,,
293227,2022-10-04_08h51.41.106,vts_reward_expectancy,2022.2.4,MacIntel,60.0024001,Chrome,1440,900,,,a,1.2162,10,85,0,1,0,12,1,1,1,0,0,0,0,0,1,0,triangle,hexagon,,,,,,,,,,,,,,,,,,,,,,,,,,,,,,,,,,,,,,,,,,,,,,,,,,,,,,
293227,2022-10-04_08h51.41.106,vts_reward_expectancy,2022.2.4,MacIntel,60.0024001,Chrome,1440,900,,,l,0.7499,1,86,0,1,1,13,6,1,0,0,1,0,1,0,0,0,hexagon,triangle,,,,,,,,,,,,,,,,,,,,,,,,,,,,,,,,,,,,,,,,,,,,,,,,,,,,,,
293227,2022-10-04_08h51.41.106,vts_reward_expectancy,2022.2.4,MacIntel,60.0024001,Chrome,1440,900,,,a,0.5117,10,96,0,1,2,14,11,1,0,0,0,1,0,0,1,0,star,hexagon,,,,,,,,,,,,,,,,,,,,,,,,,,,,,,,,,,,,,,,,,,,,,,,,,,,,,,
293227,2022-10-04_08h51.41.106,vts_reward_expectancy,2022.2.4,MacIntel,60.0024001,Chrome,1440,900,,,a,0.7183,10,106,0,1,3,15,3,1,0,1,0,0,1,0,0,0,circle,triangle,,,,,,,,,,,,,,,,,,,,,,,,,,,,,,,,,,,,,,,,,,,,,,,,,,,,,,
293227,2022-10-04_08h51.41.106,vts_reward_expectancy,2022.2.4,MacIntel,60.0024001,Chrome,1440,900,,,a,0.6499,10,116,0,1,4,16,5,1,0,1,0,0,0,0,0,1,circle,star,,,,,,,,,,,,,,,,,,,,,,,,,,,,,,,,,,,,,,,,,,,,,,,,,,,,,,
293227,2022-10-04_08h51.41.106,vts_reward_expectancy,2022.2.4,MacIntel,60.0024001,Chrome,1440,900,,,a,0.6395,10,126,0,1,5,17,4,1,0,1,0,0,0,0,1,0,circle,hexagon,,,,,,,,,,,,,,,,,,,,,,,,,,,,,,,,,,,,,,,,,,,,,,,,,,,,,,
293227,2022-10-04_08h51.41.106,vts_reward_expectancy,2022.2.4,MacIntel,60.0024001,Chrome,1440,900,,,a,1.1011,1,127,0,1,6,18,0,1,1,0,0,0,0,1,0,0,triangle,circle,,,,,,,,,,,,,,,,,,,,,,,,,,,,,,,,,,,,,,,,,,,,,,,,,,,,,,
293227,2022-10-04_08h51.41.106,vts_reward_expectancy,2022.2.4,MacIntel,60.0024001,Chrome,1440,900,,,a,1.3529,1,128,0,1,7,19,2,1,1,0,0,0,0,0,0,1,triangle,star,,,,,,,,,,,,,,,,,,,,,,,,,,,,,,,,,,,,,,,,,,,,,,,,,,,,,,
293227,2022-10-04_08h51.41.106,vts_reward_expectancy,2022.2.4,MacIntel,60.0024001,Chrome,1440,900,,,l,0.5232,10,138,0,1,8,20,8,1,0,0,1,0,0,0,0,1,hexagon,star,,,,,,,,,,,,,,,,,,,,,,,,,,,,,,,,,,,,,,,,,,,,,,,,,,,,,,
293227,2022-10-04_08h51.41.106,vts_reward_expectancy,2022.2.4,MacIntel,60.0024001,Chrome,1440,900,,,a,0.5216,1,139,0,1,9,21,9,1,0,0,0,1,1,0,0,0,star,triangle,,,,,,,,,,,,,,,,,,,,,,,,,,,,,,,,,,,,,,,,,,,,,,,,,,,,,,
293227,2022-10-04_08h51.41.106,vts_reward_expectancy,2022.2.4,MacIntel,60.0024001,Chrome,1440,900,,,l,1.6806,10,149,0,1,10,22,7,1,0,0,1,0,0,1,0,0,hexagon,circle,,,,,,,,,,,,,,,,,,,,,,,,,,,,,,,,,,,,,,,,,,,,,,,,,,,,,,
293227,2022-10-04_08h51.41.106,vts_reward_expectancy,2022.2.4,MacIntel,60.0024001,Chrome,1440,900,,,a,0.9,10,159,0,1,11,23,10,1,0,0,0,1,0,1,0,0,star ,circle,,,,,,,,,,,,,,,,,,,,,,,,,,,,,,,,,,,,,,,,,,,,,,,,,,,,,,
293227,2022-10-04_08h51.41.106,vts_reward_expectancy,2022.2.4,MacIntel,60.0024001,Chrome,1440,900,,,l,0.6978,10,169,0,2,0,24,4,1,0,1,0,0,0,0,1,0,circle,hexagon,,,,,,,,,,,,,,,,,,,,,,,,,,,,,,,,,,,,,,,,,,,,,,,,,,,,,,
293227,2022-10-04_08h51.41.106,vts_reward_expectancy,2022.2.4,MacIntel,60.0024001,Chrome,1440,900,,,a,0.6327,1,170,0,2,1,25,2,1,1,0,0,0,0,0,0,1,triangle,star,,,,,,,,,,,,,,,,,,,,,,,,,,,,,,,,,,,,,,,,,,,,,,,,,,,,,,
293227,2022-10-04_08h51.41.106,vts_reward_expectancy,2022.2.4,MacIntel,60.0024001,Chrome,1440,900,,,a,0.9924,1,171,0,2,2,26,1,1,1,0,0,0,0,0,1,0,triangle,hexagon,,,,,,,,,,,,,,,,,,,,,,,,,,,,,,,,,,,,,,,,,,,,,,,,,,,,,,
293227,2022-10-04_08h51.41.106,vts_reward_expectancy,2022.2.4,MacIntel,60.0024001,Chrome,1440,900,,,l,0.5217,1,172,0,2,3,27,8,1,0,0,1,0,0,0,0,1,hexagon,star,,,,,,,,,,,,,,,,,,,,,,,,,,,,,,,,,,,,,,,,,,,,,,,,,,,,,,
293227,2022-10-04_08h51.41.106,vts_reward_expectancy,2022.2.4,MacIntel,60.0024001,Chrome,1440,900,,,a,0.5706,1,173,0,2,4,28,7,1,0,0,1,0,0,1,0,0,hexagon,circle,,,,,,,,,,,,,,,,,,,,,,,,,,,,,,,,,,,,,,,,,,,,,,,,,,,,,,
293227,2022-10-04_08h51.41.106,vts_reward_expectancy,2022.2.4,MacIntel,60.0024001,Chrome,1440,900,,,l,0.759,10,183,0,2,5,29,11,1,0,0,0,1,0,0,1,0,star,hexagon,,,,,,,,,,,,,,,,,,,,,,,,,,,,,,,,,,,,,,,,,,,,,,,,,,,,,,
293227,2022-10-04_08h51.41.106,vts_reward_expectancy,2022.2.4,MacIntel,60.0024001,Chrome,1440,900,,,l,0.7325,1,184,0,2,6,30,5,1,0,1,0,0,0,0,0,1,circle,star,,,,,,,,,,,,,,,,,,,,,,,,,,,,,,,,,,,,,,,,,,,,,,,,,,,,,,
293227,2022-10-04_08h51.41.106,vts_reward_expectancy,2022.2.4,MacIntel,60.0024001,Chrome,1440,900,,,a,0.5133,1,185,0,2,7,31,10,1,0,0,0,1,0,1,0,0,star ,circle,,,,,,,,,,,,,,,,,,,,,,,,,,,,,,,,,,,,,,,,,,,,,,,,,,,,,,
293227,2022-10-04_08h51.41.106,vts_reward_expectancy,2022.2.4,MacIntel,60.0024001,Chrome,1440,900,,,l,0.4099,10,195,0,2,8,32,6,1,0,0,1,0,1,0,0,0,hexagon,triangle,,,,,,,,,,,,,,,,,,,,,,,,,,,,,,,,,,,,,,,,,,,,,,,,,,,,,,
293227,2022-10-04_08h51.41.106,vts_reward_expectancy,2022.2.4,MacIntel,60.0024001,Chrome,1440,900,,,l,0.4019,1,196,0,2,9,33,3,1,0,1,0,0,1,0,0,0,circle,triangle,,,,,,,,,,,,,,,,,,,,,,,,,,,,,,,,,,,,,,,,,,,,,,,,,,,,,,
293227,2022-10-04_08h51.41.106,vts_reward_expectancy,2022.2.4,MacIntel,60.0024001,Chrome,1440,900,,,a,0.6506,1,197,0,2,10,34,9,1,0,0,0,1,1,0,0,0,star,triangle,,,,,,,,,,,,,,,,,,,,,,,,,,,,,,,,,,,,,,,,,,,,,,,,,,,,,,
293227,2022-10-04_08h51.41.106,vts_reward_expectancy,2022.2.4,MacIntel,60.0024001,Chrome,1440,900,,,l,0.5142,10,207,0,2,11,35,0,1,1,0,0,0,0,1,0,0,triangle,circle,,,,,,,,,,,,,,,,,,,,,,,,,,,,,,,,,,,,,,,,,,,,,,,,,,,,,,
293227,2022-10-04_08h51.41.106,vts_reward_expectancy,2022.2.4,MacIntel,60.0024001,Chrome,1440,900,,,l,0.9528,1,208,1,0,0,0,11,1,0,0,0,1,0,0,1,0,star,hexagon,,,,,,,,,,,,,,,,,,,,,,,,,,,,,,,,,,,,,,,,,,,,,,,,,,,,,,
293227,2022-10-04_08h51.41.106,vts_reward_expectancy,2022.2.4,MacIntel,60.0024001,Chrome,1440,900,,,l,1.2521,10,218,1,0,1,1,8,1,0,0,1,0,0,0,0,1,hexagon,star,,,,,,,,,,,,,,,,,,,,,,,,,,,,,,,,,,,,,,,,,,,,,,,,,,,,,,
293227,2022-10-04_08h51.41.106,vts_reward_expectancy,2022.2.4,MacIntel,60.0024001,Chrome,1440,900,,,l,1.0316,10,228,1,0,2,2,6,1,0,0,1,0,1,0,0,0,hexagon,triangle,,,,,,,,,,,,,,,,,,,,,,,,,,,,,,,,,,,,,,,,,,,,,,,,,,,,,,
293227,2022-10-04_08h51.41.106,vts_reward_expectancy,2022.2.4,MacIntel,60.0024001,Chrome,1440,900,,,a,0.4982,10,238,1,0,3,3,4,1,0,1,0,0,0,0,1,0,circle,hexagon,,,,,,,,,,,,,,,,,,,,,,,,,,,,,,,,,,,,,,,,,,,,,,,,,,,,,,
293227,2022-10-04_08h51.41.106,vts_reward_expectancy,2022.2.4,MacIntel,60.0024001,Chrome,1440,900,,,l,0.684,1,239,1,0,4,4,0,1,1,0,0,0,0,1,0,0,triangle,circle,,,,,,,,,,,,,,,,,,,,,,,,,,,,,,,,,,,,,,,,,,,,,,,,,,,,,,
293227,2022-10-04_08h51.41.106,vts_reward_expectancy,2022.2.4,MacIntel,60.0024001,Chrome,1440,900,,,l,0.7997,10,249,1,0,5,5,1,1,1,0,0,0,0,0,1,0,triangle,hexagon,,,,,,,,,,,,,,,,,,,,,,,,,,,,,,,,,,,,,,,,,,,,,,,,,,,,,,
293227,2022-10-04_08h51.41.106,vts_reward_expectancy,2022.2.4,MacIntel,60.0024001,Chrome,1440,900,,,a,0.7185,10,259,1,0,6,6,10,1,0,0,0,1,0,1,0,0,star ,circle,,,,,,,,,,,,,,,,,,,,,,,,,,,,,,,,,,,,,,,,,,,,,,,,,,,,,,
293227,2022-10-04_08h51.41.106,vts_reward_expectancy,2022.2.4,MacIntel,60.0024001,Chrome,1440,900,,,l,0.6331,10,269,1,0,7,7,3,1,0,1,0,0,1,0,0,0,circle,triangle,,,,,,,,,,,,,,,,,,,,,,,,,,,,,,,,,,,,,,,,,,,,,,,,,,,,,,
293227,2022-10-04_08h51.41.106,vts_reward_expectancy,2022.2.4,MacIntel,60.0024001,Chrome,1440,900,,,l,0.6008,10,279,1,0,8,8,5,1,0,1,0,0,0,0,0,1,circle,star,,,,,,,,,,,,,,,,,,,,,,,,,,,,,,,,,,,,,,,,,,,,,,,,,,,,,,
293227,2022-10-04_08h51.41.106,vts_reward_expectancy,2022.2.4,MacIntel,60.0024001,Chrome,1440,900,,,a,0.6322,10,289,1,0,9,9,2,1,1,0,0,0,0,0,0,1,triangle,star,,,,,,,,,,,,,,,,,,,,,,,,,,,,,,,,,,,,,,,,,,,,,,,,,,,,,,
293227,2022-10-04_08h51.41.106,vts_reward_expectancy,2022.2.4,MacIntel,60.0024001,Chrome,1440,900,,,l,0.6496,10,299,1,0,10,10,9,1,0,0,0,1,1,0,0,0,star,triangle,,,,,,,,,,,,,,,,,,,,,,,,,,,,,,,,,,,,,,,,,,,,,,,,,,,,,,
293227,2022-10-04_08h51.41.106,vts_reward_expectancy,2022.2.4,MacIntel,60.0024001,Chrome,1440,900,,,a,0.59,1,300,1,0,11,11,7,1,0,0,1,0,0,1,0,0,hexagon,circle,,,,,,,,,,,,,,,,,,,,,,,,,,,,,,,,,,,,,,,,,,,,,,,,,,,,,,
293227,2022-10-04_08h51.41.106,vts_reward_expectancy,2022.2.4,MacIntel,60.0024001,Chrome,1440,900,,,l,0.6196,1,301,1,1,0,12,1,1,1,0,0,0,0,0,1,0,triangle,hexagon,,,,,,,,,,,,,,,,,,,,,,,,,,,,,,,,,,,,,,,,,,,,,,,,,,,,,,
293227,2022-10-04_08h51.41.106,vts_reward_expectancy,2022.2.4,MacIntel,60.0024001,Chrome,1440,900,,,a,1.0013,1,302,1,1,1,13,9,1,0,0,0,1,1,0,0,0,star,triangle,,,,,,,,,,,,,,,,,,,,,,,,,,,,,,,,,,,,,,,,,,,,,,,,,,,,,,
293227,2022-10-04_08h51.41.106,vts_reward_expectancy,2022.2.4,MacIntel,60.0024001,Chrome,1440,900,,,l,0.451,10,312,1,1,2,14,2,1,1,0,0,0,0,0,0,1,triangle,star,,,,,,,,,,,,,,,,,,,,,,,,,,,,,,,,,,,,,,,,,,,,,,,,,,,,,,
293227,2022-10-04_08h51.41.106,vts_reward_expectancy,2022.2.4,MacIntel,60.0024001,Chrome,1440,900,,,l,0.8646,10,322,1,1,3,15,10,1,0,0,0,1,0,1,0,0,star ,circle,,,,,,,,,,,,,,,,,,,,,,,,,,,,,,,,,,,,,,,,,,,,,,,,,,,,,,
293227,2022-10-04_08h51.41.106,vts_reward_expectancy,2022.2.4,MacIntel,60.0024001,Chrome,1440,900,,,a,0.7239,1,323,1,1,4,16,8,1,0,0,1,0,0,0,0,1,hexagon,star,,,,,,,,,,,,,,,,,,,,,,,,,,,,,,,,,,,,,,,,,,,,,,,,,,,,,,
293227,2022-10-04_08h51.41.106,vts_reward_expectancy,2022.2.4,MacIntel,60.0024001,Chrome,1440,900,,,l,0.7854,1,324,1,1,5,17,3,1,0,1,0,0,1,0,0,0,circle,triangle,,,,,,,,,,,,,,,,,,,,,,,,,,,,,,,,,,,,,,,,,,,,,,,,,,,,,,
293227,2022-10-04_08h51.41.106,vts_reward_expectancy,2022.2.4,MacIntel,60.0024001,Chrome,1440,900,,,a,0.9986,1,325,1,1,6,18,5,1,0,1,0,0,0,0,0,1,circle,star,,,,,,,,,,,,,,,,,,,,,,,,,,,,,,,,,,,,,,,,,,,,,,,,,,,,,,
293227,2022-10-04_08h51.41.106,vts_reward_expectancy,2022.2.4,MacIntel,60.0024001,Chrome,1440,900,,,l,0.6085,10,335,1,1,7,19,0,1,1,0,0,0,0,1,0,0,triangle,circle,,,,,,,,,,,,,,,,,,,,,,,,,,,,,,,,,,,,,,,,,,,,,,,,,,,,,,
293227,2022-10-04_08h51.41.106,vts_reward_expectancy,2022.2.4,MacIntel,60.0024001,Chrome,1440,900,,,a,0.8201,1,336,1,1,8,20,7,1,0,0,1,0,0,1,0,0,hexagon,circle,,,,,,,,,,,,,,,,,,,,,,,,,,,,,,,,,,,,,,,,,,,,,,,,,,,,,,
293227,2022-10-04_08h51.41.106,vts_reward_expectancy,2022.2.4,MacIntel,60.0024001,Chrome,1440,900,,,a,1.1021,1,337,1,1,9,21,11,1,0,0,0,1,0,0,1,0,star,hexagon,,,,,,,,,,,,,,,,,,,,,,,,,,,,,,,,,,,,,,,,,,,,,,,,,,,,,,
293227,2022-10-04_08h51.41.106,vts_reward_expectancy,2022.2.4,MacIntel,60.0024001,Chrome,1440,900,,,l,0.4833,1,338,1,1,10,22,6,1,0,0,1,0,1,0,0,0,hexagon,triangle,,,,,,,,,,,,,,,,,,,,,,,,,,,,,,,,,,,,,,,,,,,,,,,,,,,,,,
293227,2022-10-04_08h51.41.106,vts_reward_expectancy,2022.2.4,MacIntel,60.0024001,Chrome,1440,900,,,l,0.9026,1,339,1,1,11,23,4,1,0,1,0,0,0,0,1,0,circle,hexagon,,,,,,,,,,,,,,,,,,,,,,,,,,,,,,,,,,,,,,,,,,,,,,,,,,,,,,
293227,2022-10-04_08h51.41.106,vts_reward_expectancy,2022.2.4,MacIntel,60.0024001,Chrome,1440,900,,,a,0.5065,1,340,1,2,0,24,10,1,0,0,0,1,0,1,0,0,star ,circle,,,,,,,,,,,,,,,,,,,,,,,,,,,,,,,,,,,,,,,,,,,,,,,,,,,,,,
293227,2022-10-04_08h51.41.106,vts_reward_expectancy,2022.2.4,MacIntel,60.0024001,Chrome,1440,900,,,l,0.5842,1,341,1,2,1,25,9,1,0,0,0,1,1,0,0,0,star,triangle,,,,,,,,,,,,,,,,,,,,,,,,,,,,,,,,,,,,,,,,,,,,,,,,,,,,,,
293227,2022-10-04_08h51.41.106,vts_reward_expectancy,2022.2.4,MacIntel,60.0024001,Chrome,1440,900,,,l,0.668,1,342,1,2,2,26,11,1,0,0,0,1,0,0,1,0,star,hexagon,,,,,,,,,,,,,,,,,,,,,,,,,,,,,,,,,,,,,,,,,,,,,,,,,,,,,,
293227,2022-10-04_08h51.41.106,vts_reward_expectancy,2022.2.4,MacIntel,60.0024001,Chrome,1440,900,,,l,0.5414,1,343,1,2,3,27,6,1,0,0,1,0,1,0,0,0,hexagon,triangle,,,,,,,,,,,,,,,,,,,,,,,,,,,,,,,,,,,,,,,,,,,,,,,,,,,,,,
293227,2022-10-04_08h51.41.106,vts_reward_expectancy,2022.2.4,MacIntel,60.0024001,Chrome,1440,900,,,l,0.534,1,344,1,2,4,28,2,1,1,0,0,0,0,0,0,1,triangle,star,,,,,,,,,,,,,,,,,,,,,,,,,,,,,,,,,,,,,,,,,,,,,,,,,,,,,,
293227,2022-10-04_08h51.41.106,vts_reward_expectancy,2022.2.4,MacIntel,60.0024001,Chrome,1440,900,,,l,0.5187,1,345,1,2,5,29,8,1,0,0,1,0,0,0,0,1,hexagon,star,,,,,,,,,,,,,,,,,,,,,,,,,,,,,,,,,,,,,,,,,,,,,,,,,,,,,,
293227,2022-10-04_08h51.41.106,vts_reward_expectancy,2022.2.4,MacIntel,60.0024001,Chrome,1440,900,,,l,0.5806,1,346,1,2,6,30,5,1,0,1,0,0,0,0,0,1,circle,star,,,,,,,,,,,,,,,,,,,,,,,,,,,,,,,,,,,,,,,,,,,,,,,,,,,,,,
293227,2022-10-04_08h51.41.106,vts_reward_expectancy,2022.2.4,MacIntel,60.0024001,Chrome,1440,900,,,l,0.5675,1,347,1,2,7,31,4,1,0,1,0,0,0,0,1,0,circle,hexagon,,,,,,,,,,,,,,,,,,,,,,,,,,,,,,,,,,,,,,,,,,,,,,,,,,,,,,
293227,2022-10-04_08h51.41.106,vts_reward_expectancy,2022.2.4,MacIntel,60.0024001,Chrome,1440,900,,,l,0.4381,1,348,1,2,8,32,3,1,0,1,0,0,1,0,0,0,circle,triangle,,,,,,,,,,,,,,,,,,,,,,,,,,,,,,,,,,,,,,,,,,,,,,,,,,,,,,
293227,2022-10-04_08h51.41.106,vts_reward_expectancy,2022.2.4,MacIntel,60.0024001,Chrome,1440,900,,,l,0.6677,10,358,1,2,9,33,7,1,0,0,1,0,0,1,0,0,hexagon,circle,,,,,,,,,,,,,,,,,,,,,,,,,,,,,,,,,,,,,,,,,,,,,,,,,,,,,,
293227,2022-10-04_08h51.41.106,vts_reward_expectancy,2022.2.4,MacIntel,60.0024001,Chrome,1440,900,,,l,0.5169,1,359,1,2,10,34,0,1,1,0,0,0,0,1,0,0,triangle,circle,,,,,,,,,,,,,,,,,,,,,,,,,,,,,,,,,,,,,,,,,,,,,,,,,,,,,,
293227,2022-10-04_08h51.41.106,vts_reward_expectancy,2022.2.4,MacIntel,60.0024001,Chrome,1440,900,,,l,1.0375,1,360,1,2,11,35,1,1,1,0,0,0,0,0,1,0,triangle,hexagon,,,,,,,,,,,,,,,,,,,,,,,,,,,,,,,,,,,,,,,,,,,,,,,,,,,,,,
293227,2022-10-04_08h51.41.106,vts_reward_expectancy,2022.2.4,MacIntel,60.0024001,Chrome,1440,900,,,a,0.9161,1,361,2,0,0,0,2,1,1,0,0,0,0,0,0,1,triangle,star,,,,,,,,,,,,,,,,,,,,,,,,,,,,,,,,,,,,,,,,,,,,,,,,,,,,,,
293227,2022-10-04_08h51.41.106,vts_reward_expectancy,2022.2.4,MacIntel,60.0024001,Chrome,1440,900,,,l,0.674,1,362,2,0,1,1,6,1,0,0,1,0,1,0,0,0,hexagon,triangle,,,,,,,,,,,,,,,,,,,,,,,,,,,,,,,,,,,,,,,,,,,,,,,,,,,,,,
293227,2022-10-04_08h51.41.106,vts_reward_expectancy,2022.2.4,MacIntel,60.0024001,Chrome,1440,900,,,a,0.8025,10,372,2,0,2,2,11,1,0,0,0,1,0,0,1,0,star,hexagon,,,,,,,,,,,,,,,,,,,,,,,,,,,,,,,,,,,,,,,,,,,,,,,,,,,,,,
293227,2022-10-04_08h51.41.106,vts_reward_expectancy,2022.2.4,MacIntel,60.0024001,Chrome,1440,900,,,a,0.8913,10,382,2,0,3,3,8,1,0,0,1,0,0,0,0,1,hexagon,star,,,,,,,,,,,,,,,,,,,,,,,,,,,,,,,,,,,,,,,,,,,,,,,,,,,,,,
293227,2022-10-04_08h51.41.106,vts_reward_expectancy,2022.2.4,MacIntel,60.0024001,Chrome,1440,900,,,a,0.7722,1,383,2,0,4,4,3,1,0,1,0,0,1,0,0,0,circle,triangle,,,,,,,,,,,,,,,,,,,,,,,,,,,,,,,,,,,,,,,,,,,,,,,,,,,,,,
293227,2022-10-04_08h51.41.106,vts_reward_expectancy,2022.2.4,MacIntel,60.0024001,Chrome,1440,900,,,a,0.8885,10,393,2,0,5,5,5,1,0,1,0,0,0,0,0,1,circle,star,,,,,,,,,,,,,,,,,,,,,,,,,,,,,,,,,,,,,,,,,,,,,,,,,,,,,,
293227,2022-10-04_08h51.41.106,vts_reward_expectancy,2022.2.4,MacIntel,60.0024001,Chrome,1440,900,,,l,0.9727,10,403,2,0,6,6,1,1,1,0,0,0,0,0,1,0,triangle,hexagon,,,,,,,,,,,,,,,,,,,,,,,,,,,,,,,,,,,,,,,,,,,,,,,,,,,,,,
293227,2022-10-04_08h51.41.106,vts_reward_expectancy,2022.2.4,MacIntel,60.0024001,Chrome,1440,900,,,a,0.883,10,413,2,0,7,7,7,1,0,0,1,0,0,1,0,0,hexagon,circle,,,,,,,,,,,,,,,,,,,,,,,,,,,,,,,,,,,,,,,,,,,,,,,,,,,,,,
293227,2022-10-04_08h51.41.106,vts_reward_expectancy,2022.2.4,MacIntel,60.0024001,Chrome,1440,900,,,l,1.0989,10,423,2,0,8,8,9,1,0,0,0,1,1,0,0,0,star,triangle,,,,,,,,,,,,,,,,,,,,,,,,,,,,,,,,,,,,,,,,,,,,,,,,,,,,,,
293227,2022-10-04_08h51.41.106,vts_reward_expectancy,2022.2.4,MacIntel,60.0024001,Chrome,1440,900,,,l,1.1339,10,433,2,0,9,9,0,1,1,0,0,0,0,1,0,0,triangle,circle,,,,,,,,,,,,,,,,,,,,,,,,,,,,,,,,,,,,,,,,,,,,,,,,,,,,,,
293227,2022-10-04_08h51.41.106,vts_reward_expectancy,2022.2.4,MacIntel,60.0024001,Chrome,1440,900,,,l,0.9505,1,434,2,0,10,10,4,1,0,1,0,0,0,0,1,0,circle,hexagon,,,,,,,,,,,,,,,,,,,,,,,,,,,,,,,,,,,,,,,,,,,,,,,,,,,,,,
293227,2022-10-04_08h51.41.106,vts_reward_expectancy,2022.2.4,MacIntel,60.0024001,Chrome,1440,900,,,a,0.6323,1,435,2,0,11,11,10,1,0,0,0,1,0,1,0,0,star ,circle,,,,,,,,,,,,,,,,,,,,,,,,,,,,,,,,,,,,,,,,,,,,,,,,,,,,,,
293227,2022-10-04_08h51.41.106,vts_reward_expectancy,2022.2.4,MacIntel,60.0024001,Chrome,1440,900,,,a,1.2192,10,445,2,1,0,12,9,1,0,0,0,1,1,0,0,0,star,triangle,,,,,,,,,,,,,,,,,,,,,,,,,,,,,,,,,,,,,,,,,,,,,,,,,,,,,,
293227,2022-10-04_08h51.41.106,vts_reward_expectancy,2022.2.4,MacIntel,60.0024001,Chrome,1440,900,,,l,0.9328,1,446,2,1,1,13,3,1,0,1,0,0,1,0,0,0,circle,triangle,,,,,,,,,,,,,,,,,,,,,,,,,,,,,,,,,,,,,,,,,,,,,,,,,,,,,,
293227,2022-10-04_08h51.41.106,vts_reward_expectancy,2022.2.4,MacIntel,60.0024001,Chrome,1440,900,,,l,0.7325,1,447,2,1,2,14,1,1,1,0,0,0,0,0,1,0,triangle,hexagon,,,,,,,,,,,,,,,,,,,,,,,,,,,,,,,,,,,,,,,,,,,,,,,,,,,,,,
293227,2022-10-04_08h51.41.106,vts_reward_expectancy,2022.2.4,MacIntel,60.0024001,Chrome,1440,900,,,l,0.7529,10,457,2,1,3,15,11,1,0,0,0,1,0,0,1,0,star,hexagon,,,,,,,,,,,,,,,,,,,,,,,,,,,,,,,,,,,,,,,,,,,,,,,,,,,,,,
293227,2022-10-04_08h51.41.106,vts_reward_expectancy,2022.2.4,MacIntel,60.0024001,Chrome,1440,900,,,a,0.7029,1,458,2,1,4,16,7,1,0,0,1,0,0,1,0,0,hexagon,circle,,,,,,,,,,,,,,,,,,,,,,,,,,,,,,,,,,,,,,,,,,,,,,,,,,,,,,
293227,2022-10-04_08h51.41.106,vts_reward_expectancy,2022.2.4,MacIntel,60.0024001,Chrome,1440,900,,,a,1.4538,1,459,2,1,5,17,6,1,0,0,1,0,1,0,0,0,hexagon,triangle,,,,,,,,,,,,,,,,,,,,,,,,,,,,,,,,,,,,,,,,,,,,,,,,,,,,,,
293227,2022-10-04_08h51.41.106,vts_reward_expectancy,2022.2.4,MacIntel,60.0024001,Chrome,1440,900,,,l,1.5927,10,469,2,1,6,18,5,1,0,1,0,0,0,0,0,1,circle,star,,,,,,,,,,,,,,,,,,,,,,,,,,,,,,,,,,,,,,,,,,,,,,,,,,,,,,
293227,2022-10-04_08h51.41.106,vts_reward_expectancy,2022.2.4,MacIntel,60.0024001,Chrome,1440,900,,,l,0.9913,10,479,2,1,7,19,0,1,1,0,0,0,0,1,0,0,triangle,circle,,,,,,,,,,,,,,,,,,,,,,,,,,,,,,,,,,,,,,,,,,,,,,,,,,,,,,
293227,2022-10-04_08h51.41.106,vts_reward_expectancy,2022.2.4,MacIntel,60.0024001,Chrome,1440,900,,,a,0.9351,10,489,2,1,8,20,10,1,0,0,0,1,0,1,0,0,star ,circle,,,,,,,,,,,,,,,,,,,,,,,,,,,,,,,,,,,,,,,,,,,,,,,,,,,,,,
293227,2022-10-04_08h51.41.106,vts_reward_expectancy,2022.2.4,MacIntel,60.0024001,Chrome,1440,900,,,l,0.8163,1,490,2,1,9,21,4,1,0,1,0,0,0,0,1,0,circle,hexagon,,,,,,,,,,,,,,,,,,,,,,,,,,,,,,,,,,,,,,,,,,,,,,,,,,,,,,
293227,2022-10-04_08h51.41.106,vts_reward_expectancy,2022.2.4,MacIntel,60.0024001,Chrome,1440,900,,,l,0.9536,1,491,2,1,10,22,8,1,0,0,1,0,0,0,0,1,hexagon,star,,,,,,,,,,,,,,,,,,,,,,,,,,,,,,,,,,,,,,,,,,,,,,,,,,,,,,
293227,2022-10-04_08h51.41.106,vts_reward_expectancy,2022.2.4,MacIntel,60.0024001,Chrome,1440,900,,,a,0.9715,1,492,2,1,11,23,2,1,1,0,0,0,0,0,0,1,triangle,star,,,,,,,,,,,,,,,,,,,,,,,,,,,,,,,,,,,,,,,,,,,,,,,,,,,,,,
293227,2022-10-04_08h51.41.106,vts_reward_expectancy,2022.2.4,MacIntel,60.0024001,Chrome,1440,900,,,l,0.6978,1,493,2,2,0,24,0,1,1,0,0,0,0,1,0,0,triangle,circle,,,,,,,,,,,,,,,,,,,,,,,,,,,,,,,,,,,,,,,,,,,,,,,,,,,,,,
293227,2022-10-04_08h51.41.106,vts_reward_expectancy,2022.2.4,MacIntel,60.0024001,Chrome,1440,900,,,a,0.7291,1,494,2,2,1,25,1,1,1,0,0,0,0,0,1,0,triangle,hexagon,,,,,,,,,,,,,,,,,,,,,,,,,,,,,,,,,,,,,,,,,,,,,,,,,,,,,,
293227,2022-10-04_08h51.41.106,vts_reward_expectancy,2022.2.4,MacIntel,60.0024001,Chrome,1440,900,,,l,1.4383,10,504,2,2,2,26,3,1,0,1,0,0,1,0,0,0,circle,triangle,,,,,,,,,,,,,,,,,,,,,,,,,,,,,,,,,,,,,,,,,,,,,,,,,,,,,,
293227,2022-10-04_08h51.41.106,vts_reward_expectancy,2022.2.4,MacIntel,60.0024001,Chrome,1440,900,,,a,0.883,10,514,2,2,3,27,10,1,0,0,0,1,0,1,0,0,star ,circle,,,,,,,,,,,,,,,,,,,,,,,,,,,,,,,,,,,,,,,,,,,,,,,,,,,,,,
293227,2022-10-04_08h51.41.106,vts_reward_expectancy,2022.2.4,MacIntel,60.0024001,Chrome,1440,900,,,l,0.8594,1,515,2,2,4,28,11,1,0,0,0,1,0,0,1,0,star,hexagon,,,,,,,,,,,,,,,,,,,,,,,,,,,,,,,,,,,,,,,,,,,,,,,,,,,,,,
293227,2022-10-04_08h51.41.106,vts_reward_expectancy,2022.2.4,MacIntel,60.0024001,Chrome,1440,900,,,l,1.2913,1,516,2,2,5,29,6,1,0,0,1,0,1,0,0,0,hexagon,triangle,,,,,,,,,,,,,,,,,,,,,,,,,,,,,,,,,,,,,,,,,,,,,,,,,,,,,,
293227,2022-10-04_08h51.41.106,vts_reward_expectancy,2022.2.4,MacIntel,60.0024001,Chrome,1440,900,,,l,0.6139,1,517,2,2,6,30,5,1,0,1,0,0,0,0,0,1,circle,star,,,,,,,,,,,,,,,,,,,,,,,,,,,,,,,,,,,,,,,,,,,,,,,,,,,,,,
293227,2022-10-04_08h51.41.106,vts_reward_expectancy,2022.2.4,MacIntel,60.0024001,Chrome,1440,900,,,l,1.2001,10,527,2,2,7,31,8,1,0,0,1,0,0,0,0,1,hexagon,star,,,,,,,,,,,,,,,,,,,,,,,,,,,,,,,,,,,,,,,,,,,,,,,,,,,,,,
293227,2022-10-04_08h51.41.106,vts_reward_expectancy,2022.2.4,MacIntel,60.0024001,Chrome,1440,900,,,a,0.7208,1,528,2,2,8,32,2,1,1,0,0,0,0,0,0,1,triangle,star,,,,,,,,,,,,,,,,,,,,,,,,,,,,,,,,,,,,,,,,,,,,,,,,,,,,,,
293227,2022-10-04_08h51.41.106,vts_reward_expectancy,2022.2.4,MacIntel,60.0024001,Chrome,1440,900,,,l,0.6273,10,538,2,2,9,33,9,1,0,0,0,1,1,0,0,0,star,triangle,,,,,,,,,,,,,,,,,,,,,,,,,,,,,,,,,,,,,,,,,,,,,,,,,,,,,,
293227,2022-10-04_08h51.41.106,vts_reward_expectancy,2022.2.4,MacIntel,60.0024001,Chrome,1440,900,,,a,0.7933,1,539,2,2,10,34,4,1,0,1,0,0,0,0,1,0,circle,hexagon,,,,,,,,,,,,,,,,,,,,,,,,,,,,,,,,,,,,,,,,,,,,,,,,,,,,,,
293227,2022-10-04_08h51.41.106,vts_reward_expectancy,2022.2.4,MacIntel,60.0024001,Chrome,1440,900,,,l,0.6338,10,549,2,2,11,35,7,1,0,0,1,0,0,1,0,0,hexagon,circle,,,,,,,,,,,,,,,,,,,,,,,,,,,,,,,,,,,,,,,,,,,,,,,,,,,,,,
293227,2022-10-04_08h51.41.106,vts_reward_expectancy,2022.2.4,MacIntel,60.0024001,Chrome,1440,900,,,,,,,,,,,,,,,,,,,,,,,Y,181,circle,0,0,,0,0,0,0,0,1,,,,,,,,,,,,,,,,,,,,,,,,,,,,,,,,,,,,,,,,,,
293227,2022-10-04_08h51.41.106,vts_reward_expectancy,2022.2.4,MacIntel,60.0024001,Chrome,1440,900,,,,,,,,,,,,,,,,,,,,,,,W,160,star,1,1,f,0,1,0,1,0,1,0.7704,,,,,,,,,,,,,,,,,,,,,,,,,,,,,,,,,,,,,,,,,
293227,2022-10-04_08h51.41.106,vts_reward_expectancy,2022.2.4,MacIntel,60.0024001,Chrome,1440,900,,,,,,,,,,,,,,,,,,,,,,,D,174,triangle,1,0,d,0,2,0,2,0,1,0.5416,,,,,,,,,,,,,,,,,,,,,,,,,,,,,,,,,,,,,,,,,
293227,2022-10-04_08h51.41.106,vts_reward_expectancy,2022.2.4,MacIntel,60.0024001,Chrome,1440,900,,,,,,,,,,,,,,,,,,,,,,,S,167,hexagon,1,0,f,0,3,0,3,0,1,0.6608,,,,,,,,,,,,,,,,,,,,,,,,,,,,,,,,,,,,,,,,,
293227,2022-10-04_08h51.41.106,vts_reward_expectancy,2022.2.4,MacIntel,60.0024001,Chrome,1440,900,,,,,,,,,,,,,,,,,,,,,,,F,125,circle,1,0,d,0,4,0,4,0,1,0.951,,,,,,,,,,,,,,,,,,,,,,,,,,,,,,,,,,,,,,,,,
293227,2022-10-04_08h51.41.106,vts_reward_expectancy,2022.2.4,MacIntel,60.0024001,Chrome,1440,900,,,,,,,,,,,,,,,,,,,,,,,H,132,star,1,0,d,0,5,0,5,0,1,1.1701,,,,,,,,,,,,,,,,,,,,,,,,,,,,,,,,,,,,,,,,,
293227,2022-10-04_08h51.41.106,vts_reward_expectancy,2022.2.4,MacIntel,60.0024001,Chrome,1440,900,,,,,,,,,,,,,,,,,,,,,,,B,146,triangle,1,0,d,0,6,0,6,0,1,0.6863,,,,,,,,,,,,,,,,,,,,,,,,,,,,,,,,,,,,,,,,,
293227,2022-10-04_08h51.41.106,vts_reward_expectancy,2022.2.4,MacIntel,60.0024001,Chrome,1440,900,,,,,,,,,,,,,,,,,,,,,,,U,139,hexagon,1,0,f,0,7,0,7,0,1,0.768,,,,,,,,,,,,,,,,,,,,,,,,,,,,,,,,,,,,,,,,,
293227,2022-10-04_08h51.41.106,vts_reward_expectancy,2022.2.4,MacIntel,60.0024001,Chrome,1440,900,,,,,,,,,,,,,,,,,,,,,,,Y,181,hexagon,1,0,f,0,8,0,8,0,1,0.6928,,,,,,,,,,,,,,,,,,,,,,,,,,,,,,,,,,,,,,,,,
293227,2022-10-04_08h51.41.106,vts_reward_expectancy,2022.2.4,MacIntel,60.0024001,Chrome,1440,900,,,,,,,,,,,,,,,,,,,,,,,W,160,star,1,0,f,0,9,0,9,0,1,0.6829,,,,,,,,,,,,,,,,,,,,,,,,,,,,,,,,,,,,,,,,,
293227,2022-10-04_08h51.41.106,vts_reward_expectancy,2022.2.4,MacIntel,60.0024001,Chrome,1440,900,,,,,,,,,,,,,,,,,,,,,,,U,160,triangle,1,0,,1,,,,,,,k,0.7815,0,0,0,0,1,,,,,,,,,,,,,,,,,,,,,,,,,,,,,,,,,,
293227,2022-10-04_08h51.41.106,vts_reward_expectancy,2022.2.4,MacIntel,60.0024001,Chrome,1440,900,,,,,,,,,,,,,,,,,,,,,,,W,167,star,1,0,,1,,,,,,,k,0.5302,1,0,1,0,1,,,,,,,,,,,,,,,,,,,,,,,,,,,,,,,,,,
293227,2022-10-04_08h51.41.106,vts_reward_expectancy,2022.2.4,MacIntel,60.0024001,Chrome,1440,900,,,,,,,,,,,,,,,,,,,,,,,F,181,hexagon,1,0,,1,,,,,,,k,0.688,2,0,2,0,1,,,,,,,,,,,,,,,,,,,,,,,,,,,,,,,,,,
293227,2022-10-04_08h51.41.106,vts_reward_expectancy,2022.2.4,MacIntel,60.0024001,Chrome,1440,900,,,,,,,,,,,,,,,,,,,,,,,D,174,circle,1,0,,1,,,,,,,k,0.512,3,0,3,0,1,,,,,,,,,,,,,,,,,,,,,,,,,,,,,,,,,,
293227,2022-10-04_08h51.41.106,vts_reward_expectancy,2022.2.4,MacIntel,60.0024001,Chrome,1440,900,,,,,,,,,,,,,,,,,,,,,,,Y,132,triangle,1,0,,1,,,,,,,j,0.4449,4,0,4,0,1,,,,,,,,,,,,,,,,,,,,,,,,,,,,,,,,,,
293227,2022-10-04_08h51.41.106,vts_reward_expectancy,2022.2.4,MacIntel,60.0024001,Chrome,1440,900,,,,,,,,,,,,,,,,,,,,,,,H,146,star,0,0,,1,,,,,,,k,0.6343,5,0,5,0,1,,,,,,,,,,,,,,,,,,,,,,,,,,,,,,,,,,
293227,2022-10-04_08h51.41.106,vts_reward_expectancy,2022.2.4,MacIntel,60.0024001,Chrome,1440,900,,,,,,,,,,,,,,,,,,,,,,,B,139,hexagon,1,1,,1,,,,,,,j,0.5851,6,0,6,0,1,,,,,,,,,,,,,,,,,,,,,,,,,,,,,,,,,,
293227,2022-10-04_08h51.41.106,vts_reward_expectancy,2022.2.4,MacIntel,60.0024001,Chrome,1440,900,,,,,,,,,,,,,,,,,,,,,,,S,125,circle,1,0,,1,,,,,,,j,0.6646,7,0,7,0,1,,,,,,,,,,,,,,,,,,,,,,,,,,,,,,,,,,
293227,2022-10-04_08h51.41.106,vts_reward_expectancy,2022.2.4,MacIntel,60.0024001,Chrome,1440,900,,,,,,,,,,,,,,,,,,,,,,,U,160,triangle,1,0,,1,,,,,,,k,0.8703,8,0,8,0,1,,,,,,,,,,,,,,,,,,,,,,,,,,,,,,,,,,
293227,2022-10-04_08h51.41.106,vts_reward_expectancy,2022.2.4,MacIntel,60.0024001,Chrome,1440,900,,,,,,,,,,,,,,,,,,,,,,,W,167,star,1,0,,1,,,,,,,k,0.8641,9,0,9,0,1,,,,,,,,,,,,,,,,,,,,,,,,,,,,,,,,,,
293227,2022-10-04_08h51.41.106,vts_reward_expectancy,2022.2.4,MacIntel,60.0024001,Chrome,1440,900,,,,,0,549,,,,,,,,,,,,,,,,,S,174,triangle,0,0,,2,,,,,,,,,,,,,,-1,letter,NA,d,0.9613,vtsPrac,0,0,0,0,1,,,,,,,,,,,,,,,,,,,,,,,
293227,2022-10-04_08h51.41.106,vts_reward_expectancy,2022.2.4,MacIntel,60.0024001,Chrome,1440,900,,,,,0,549,,,,,,,,,,,,,,,,,U,139,hexagon,1,1,,2,,,,,,,,,,,,,,repeat,letter,lettRpt,f,1.3945,vtsPrac,1,0,1,0,1,,,,,,,,,,,,,,,,,,,,,,,
293227,2022-10-04_08h51.41.106,vts_reward_expectancy,2022.2.4,MacIntel,60.0024001,Chrome,1440,900,,,,,0,549,,,,,,,,,,,,,,,,,W,167,triangle,0,0,,2,,,,,,,,,,,,,,repeat,letter,NA,d,0.0447,vtsPrac,2,0,2,0,1,,,,,,,,,,,,,,,,,,,,,,,
293227,2022-10-04_08h51.41.106,vts_reward_expectancy,2022.2.4,MacIntel,60.0024001,Chrome,1440,900,,,,,0,549,,,,,,,,,,,,,,,,,B,181,hexagon,1,1,,2,,,,,,,,,,,,,,repeat,letter,lettRpt,d,1.3301,vtsPrac,3,0,3,0,1,,,,,,,,,,,,,,,,,,,,,,,
293227,2022-10-04_08h51.41.106,vts_reward_expectancy,2022.2.4,MacIntel,60.0024001,Chrome,1440,900,,,,,0,549,,,,,,,,,,,,,,,,,S,174,triangle,1,0,,2,,,,,,,,,,,,,,repeat,letter,lettRpt,f,1.0113,vtsPrac,4,0,4,0,1,,,,,,,,,,,,,,,,,,,,,,,
293227,2022-10-04_08h51.41.106,vts_reward_expectancy,2022.2.4,MacIntel,60.0024001,Chrome,1440,900,,,,,0,549,,,,,,,,,,,,,,,,,U,139,star,1,0,,2,,,,,,,,,,,,,,switch,number,numSwt,j,0.886,vtsPrac,5,0,5,0,1,,,,,,,,,,,,,,,,,,,,,,,
293227,2022-10-04_08h51.41.106,vts_reward_expectancy,2022.2.4,MacIntel,60.0024001,Chrome,1440,900,,,,,0,549,,,,,,,,,,,,,,,,,W,167,star,1,0,,2,,,,,,,,,,,,,,repeat,number,numRpt,k,0.6354,vtsPrac,6,0,6,0,1,,,,,,,,,,,,,,,,,,,,,,,
293227,2022-10-04_08h51.41.106,vts_reward_expectancy,2022.2.4,MacIntel,60.0024001,Chrome,1440,900,,,,,0,549,,,,,,,,,,,,,,,,,B,181,circle,1,0,,2,,,,,,,,,,,,,,repeat,number,numRpt,k,0.8174,vtsPrac,7,0,7,0,1,,,,,,,,,,,,,,,,,,,,,,,
293227,2022-10-04_08h51.41.106,vts_reward_expectancy,2022.2.4,MacIntel,60.0024001,Chrome,1440,900,,,,,0,549,,,,,,,,,,,,,,,,,H,125,hexagon,1,0,,2,,,,,,,,,,,,,,switch,letter,lettSwt,d,0.7789,vtsPrac,8,0,8,0,1,,,,,,,,,,,,,,,,,,,,,,,
293227,2022-10-04_08h51.41.106,vts_reward_expectancy,2022.2.4,MacIntel,60.0024001,Chrome,1440,900,,,,,0,549,,,,,,,,,,,,,,,,,S,167,triangle,1,0,,2,,,,,,,,,,,,,,switch,number,numSwt,k,0.6989,vtsPrac,9,0,9,0,1,,,,,,,,,,,,,,,,,,,,,,,
293227,2022-10-04_08h51.41.106,vts_reward_expectancy,2022.2.4,MacIntel,60.0024001,Chrome,1440,900,,,,,0,549,,,,,,,,,,,,,,,,,U,146,circle,1,0,,2,,,,,,,,,,,,,,switch,letter,lettSwt,f,0.6813,vtsPrac,10,0,10,0,1,,,,,,,,,,,,,,,,,,,,,,,
293227,2022-10-04_08h51.41.106,vts_reward_expectancy,2022.2.4,MacIntel,60.0024001,Chrome,1440,900,,,,,0,549,,,,,,,,,,,,,,,,,D,160,star,1,0,,2,,,,,,,,,,,,,,switch,number,numSwt,k,0.4125,vtsPrac,11,0,11,0,1,,,,,,,,,,,,,,,,,,,,,,,
293227,2022-10-04_08h51.41.106,vts_reward_expectancy,2022.2.4,MacIntel,60.0024001,Chrome,1440,900,,,,,0,549,,,,,,,,,,,,,,,,,U,132,circle,1,0,,2,,,,,,,,,,,,,,switch,letter,lettSwt,f,0.6283,vtsPrac,12,0,12,0,1,,,,,,,,,,,,,,,,,,,,,,,
293227,2022-10-04_08h51.41.106,vts_reward_expectancy,2022.2.4,MacIntel,60.0024001,Chrome,1440,900,,,,,0,549,,,,,,,,,,,,,,,,,S,167,star,1,0,,2,,,,,,,,,,,,,,switch,number,numSwt,k,0.6455,vtsPrac,13,0,13,0,1,,,,,,,,,,,,,,,,,,,,,,,
293227,2022-10-04_08h51.41.106,vts_reward_expectancy,2022.2.4,MacIntel,60.0024001,Chrome,1440,900,,,,,0,549,,,,,,,,,,,,,,,,,W,125,circle,1,0,,2,,,,,,,,,,,,,,switch,letter,lettSwt,f,0.761,vtsPrac,14,0,14,0,1,,,,,,,,,,,,,,,,,,,,,,,
293227,2022-10-04_08h51.41.106,vts_reward_expectancy,2022.2.4,MacIntel,60.0024001,Chrome,1440,900,,,,,0,549,,,,,,,,,,,,,,,,,F,181,hexagon,1,0,,2,,,,,,,,,,,,,,repeat,letter,lettRpt,d,0.7591,vtsPrac,15,0,15,0,1,,,,,,,,,,,,,,,,,,,,,,,
293227,2022-10-04_08h51.41.106,vts_reward_expectancy,2022.2.4,MacIntel,60.0024001,Chrome,1440,900,,,,,,,,,,,,,,,,,,,,,,,,,,,,,,,,,,,,,,,,,,,,,,,,,,,,,,,,,,,,,,,,,,,,,,,,,,,,
293227,2022-10-04_08h51.41.106,vts_reward_expectancy,2022.2.4,MacIntel,60.0024001,Chrome,1440,900,,,,,,,,,,,,,,,,,,,,,,,,,,,,,,,,,,,,,,,,,,,,,,,,,,,,,,,,,,,,,,,,,,,,,,,,,,,,
293227,2022-10-04_08h51.41.106,vts_reward_expectancy,2022.2.4,MacIntel,60.0024001,Chrome,1440,900,,,,,0,549,,,,,,,,,,,,,,,,,F,125,triangle,1,0,,,,,,,,,,,,,,,,repeat,letter,lettRpt,d,0.9133,noRew,,,,,,0,0,0,0,0,1,,,,,,,,,,,,,,,,,
293227,2022-10-04_08h51.41.106,vts_reward_expectancy,2022.2.4,MacIntel,60.0024001,Chrome,1440,900,,,,,0,549,,,,,,,,,,,,,,,,,U,132,star,1,0,,,,,,,,,,,,,,,,repeat,letter,lettRpt,f,0.7523,noRew,,,,,,0,1,0,1,0,1,,,,,,,,,,,,,,,,,
293227,2022-10-04_08h51.41.106,vts_reward_expectancy,2022.2.4,MacIntel,60.0024001,Chrome,1440,900,,,,,0,549,,,,,,,,,,,,,,,,,Y,160,triangle,1,0,,,,,,,,,,,,,,,,switch,number,numSwt,k,0.9445,noRew,,,,,,0,2,0,2,0,1,,,,,,,,,,,,,,,,,
293227,2022-10-04_08h51.41.106,vts_reward_expectancy,2022.2.4,MacIntel,60.0024001,Chrome,1440,900,,,,,0,549,,,,,,,,,,,,,,,,,S,139,star,1,0,,,,,,,,,,,,,,,,repeat,number,numRpt,j,0.609,noRew,,,,,,0,3,0,3,0,1,,,,,,,,,,,,,,,,,
293227,2022-10-04_08h51.41.106,vts_reward_expectancy,2022.2.4,MacIntel,60.0024001,Chrome,1440,900,,,,,0,549,,,,,,,,,,,,,,,,,F,125,circle,1,0,,,,,,,,,,,,,,,,switch,letter,lettSwt,d,0.7011,noRew,,,,,,0,4,0,4,0,1,,,,,,,,,,,,,,,,,
293227,2022-10-04_08h51.41.106,vts_reward_expectancy,2022.2.4,MacIntel,60.0024001,Chrome,1440,900,,,,,0,549,,,,,,,,,,,,,,,,,U,132,hexagon,1,0,,,,,,,,,,,,,,,,switch,number,numSwt,j,0.661,noRew,,,,,,0,5,0,5,0,1,,,,,,,,,,,,,,,,,
293227,2022-10-04_08h51.41.106,vts_reward_expectancy,2022.2.4,MacIntel,60.0024001,Chrome,1440,900,,,,,0,549,,,,,,,,,,,,,,,,,Y,160,triangle,1,0,,,,,,,,,,,,,,,,switch,letter,lettSwt,f,0.7297,noRew,,,,,,0,6,0,6,0,1,,,,,,,,,,,,,,,,,
293227,2022-10-04_08h51.41.106,vts_reward_expectancy,2022.2.4,MacIntel,60.0024001,Chrome,1440,900,,,,,0,549,,,,,,,,,,,,,,,,,S,139,circle,0,0,,,,,,,,,,,,,,,,repeat,letter,NA,d,0.5178,noRew,,,,,,0,7,0,7,0,1,,,,,,,,,,,,,,,,,
293227,2022-10-04_08h51.41.106,vts_reward_expectancy,2022.2.4,MacIntel,60.0024001,Chrome,1440,900,,,,,0,549,,,,,,,,,,,,,,,,,S,181,hexagon,1,1,,,,,,,,,,,,,,,,switch,number,numSwt,k,0.6062,noRew,,,,,,0,8,0,8,0,1,,,,,,,,,,,,,,,,,
293227,2022-10-04_08h51.41.106,vts_reward_expectancy,2022.2.4,MacIntel,60.0024001,Chrome,1440,900,,,,,0,549,,,,,,,,,,,,,,,,,B,167,triangle,1,0,,,,,,,,,,,,,,,,repeat,number,numRpt,k,0.4883,noRew,,,,,,0,9,0,9,0,1,,,,,,,,,,,,,,,,,
293227,2022-10-04_08h51.41.106,vts_reward_expectancy,2022.2.4,MacIntel,60.0024001,Chrome,1440,900,,,,,0,549,,,,,,,,,,,,,,,,,D,174,hexagon,1,0,,,,,,,,,,,,,,,,switch,letter,lettSwt,d,0.7792,noRew,,,,,,0,10,0,10,0,1,,,,,,,,,,,,,,,,,
293227,2022-10-04_08h51.41.106,vts_reward_expectancy,2022.2.4,MacIntel,60.0024001,Chrome,1440,900,,,,,0,549,,,,,,,,,,,,,,,,,U,146,triangle,0,0,,,,,,,,,,,,,,,,repeat,letter,NA,d,0.9457,noRew,,,,,,0,11,0,11,0,1,,,,,,,,,,,,,,,,,
293227,2022-10-04_08h51.41.106,vts_reward_expectancy,2022.2.4,MacIntel,60.0024001,Chrome,1440,900,,,,,0,549,,,,,,,,,,,,,,,,,F,132,circle,1,1,,,,,,,,,,,,,,,,switch,number,numSwt,j,0.6958,noRew,,,,,,0,12,0,12,0,1,,,,,,,,,,,,,,,,,
293227,2022-10-04_08h51.41.106,vts_reward_expectancy,2022.2.4,MacIntel,60.0024001,Chrome,1440,900,,,,,0,549,,,,,,,,,,,,,,,,,B,146,star,1,0,,,,,,,,,,,,,,,,repeat,number,numRpt,j,0.9503,noRew,,,,,,0,13,0,13,0,1,,,,,,,,,,,,,,,,,
293227,2022-10-04_08h51.41.106,vts_reward_expectancy,2022.2.4,MacIntel,60.0024001,Chrome,1440,900,,,,,0,549,,,,,,,,,,,,,,,,,Y,174,circle,1,0,,,,,,,,,,,,,,,,switch,letter,lettSwt,f,0.5089,noRew,,,,,,0,14,0,14,0,1,,,,,,,,,,,,,,,,,
293227,2022-10-04_08h51.41.106,vts_reward_expectancy,2022.2.4,MacIntel,60.0024001,Chrome,1440,900,,,,,0,549,,,,,,,,,,,,,,,,,U,125,star,1,0,,,,,,,,,,,,,,,,repeat,letter,lettRpt,f,0.6773,noRew,,,,,,0,15,0,15,0,1,,,,,,,,,,,,,,,,,
293227,2022-10-04_08h51.41.106,vts_reward_expectancy,2022.2.4,MacIntel,60.0024001,Chrome,1440,900,,,,,0,549,,,,,,,,,,,,,,,,,D,146,hexagon,1,0,,,,,,,,,,,,,,,,repeat,letter,lettRpt,d,0.6879,noRew,,,,,,0,16,0,16,0,1,,,,,,,,,,,,,,,,,
293227,2022-10-04_08h51.41.106,vts_reward_expectancy,2022.2.4,MacIntel,60.0024001,Chrome,1440,900,,,,,0,549,,,,,,,,,,,,,,,,,U,181,triangle,1,0,,,,,,,,,,,,,,,,switch,number,numSwt,k,1.015,noRew,,,,,,0,17,0,17,0,1,,,,,,,,,,,,,,,,,
293227,2022-10-04_08h51.41.106,vts_reward_expectancy,2022.2.4,MacIntel,60.0024001,Chrome,1440,900,,,,,0,549,,,,,,,,,,,,,,,,,Y,139,star,1,0,,,,,,,,,,,,,,,,switch,letter,lettSwt,f,0.6024,noRew,,,,,,0,18,0,18,0,1,,,,,,,,,,,,,,,,,
293227,2022-10-04_08h51.41.106,vts_reward_expectancy,2022.2.4,MacIntel,60.0024001,Chrome,1440,900,,,,,0,549,,,,,,,,,,,,,,,,,B,160,hexagon,1,0,,,,,,,,,,,,,,,,switch,number,numSwt,k,0.9538,noRew,,,,,,0,19,0,19,0,1,,,,,,,,,,,,,,,,,
293227,2022-10-04_08h51.41.106,vts_reward_expectancy,2022.2.4,MacIntel,60.0024001,Chrome,1440,900,,,,,0,549,,,,,,,,,,,,,,,,,Y,146,star,1,0,,,,,,,,,,,,,,,,repeat,number,numRpt,j,0.9028,noRew,,,,,,0,20,0,20,0,1,,,,,,,,,,,,,,,,,
293227,2022-10-04_08h51.41.106,vts_reward_expectancy,2022.2.4,MacIntel,60.0024001,Chrome,1440,900,,,,,0,549,,,,,,,,,,,,,,,,,B,160,circle,1,0,,,,,,,,,,,,,,,,repeat,number,numRpt,k,0.7291,noRew,,,,,,0,21,0,21,0,1,,,,,,,,,,,,,,,,,
293227,2022-10-04_08h51.41.106,vts_reward_expectancy,2022.2.4,MacIntel,60.0024001,Chrome,1440,900,,,,,0,549,,,,,,,,,,,,,,,,,W,174,star,1,0,,,,,,,,,,,,,,,,switch,letter,lettSwt,f,0.597,noRew,,,,,,0,22,0,22,0,1,,,,,,,,,,,,,,,,,
293227,2022-10-04_08h51.41.106,vts_reward_expectancy,2022.2.4,MacIntel,60.0024001,Chrome,1440,900,,,,,0,549,,,,,,,,,,,,,,,,,H,139,triangle,1,0,,,,,,,,,,,,,,,,repeat,letter,lettRpt,d,0.7088,noRew,,,,,,0,23,0,23,0,1,,,,,,,,,,,,,,,,,
293227,2022-10-04_08h51.41.106,vts_reward_expectancy,2022.2.4,MacIntel,60.0024001,Chrome,1440,900,,,,,0,549,,,,,,,,,,,,,,,,,H,160,triangle,1,0,,,,,,,,,,,,,,,,repeat,letter,lettRpt,d,0.7704,noRew,,,,,,0,24,0,24,0,1,,,,,,,,,,,,,,,,,
293227,2022-10-04_08h51.41.106,vts_reward_expectancy,2022.2.4,MacIntel,60.0024001,Chrome,1440,900,,,,,0,549,,,,,,,,,,,,,,,,,B,146,hexagon,1,0,,,,,,,,,,,,,,,,repeat,letter,lettRpt,d,0.663,noRew,,,,,,0,25,0,25,0,1,,,,,,,,,,,,,,,,,
293227,2022-10-04_08h51.41.106,vts_reward_expectancy,2022.2.4,MacIntel,60.0024001,Chrome,1440,900,,,,,0,549,,,,,,,,,,,,,,,,,Y,132,star,1,0,,,,,,,,,,,,,,,,switch,number,numSwt,j,0.8077,noRew,,,,,,0,26,0,26,0,1,,,,,,,,,,,,,,,,,
293227,2022-10-04_08h51.41.106,vts_reward_expectancy,2022.2.4,MacIntel,60.0024001,Chrome,1440,900,,,,,0,549,,,,,,,,,,,,,,,,,W,167,circle,1,0,,,,,,,,,,,,,,,,repeat,number,numRpt,k,0.734,noRew,,,,,,0,27,0,27,0,1,,,,,,,,,,,,,,,,,
293227,2022-10-04_08h51.41.106,vts_reward_expectancy,2022.2.4,MacIntel,60.0024001,Chrome,1440,900,,,,,0,549,,,,,,,,,,,,,,,,,D,181,star,1,0,,,,,,,,,,,,,,,,repeat,number,numRpt,k,0.9644,noRew,,,,,,0,28,0,28,0,1,,,,,,,,,,,,,,,,,
293227,2022-10-04_08h51.41.106,vts_reward_expectancy,2022.2.4,MacIntel,60.0024001,Chrome,1440,900,,,,,0,549,,,,,,,,,,,,,,,,,U,139,hexagon,1,0,,,,,,,,,,,,,,,,repeat,number,numRpt,j,0.8296,noRew,,,,,,0,29,0,29,0,1,,,,,,,,,,,,,,,,,
293227,2022-10-04_08h51.41.106,vts_reward_expectancy,2022.2.4,MacIntel,60.0024001,Chrome,1440,900,,,,,0,549,,,,,,,,,,,,,,,,,B,167,star,1,0,,,,,,,,,,,,,,,,switch,letter,lettSwt,d,0.6619,noRew,,,,,,0,30,0,30,0,1,,,,,,,,,,,,,,,,,
293227,2022-10-04_08h51.41.106,vts_reward_expectancy,2022.2.4,MacIntel,60.0024001,Chrome,1440,900,,,,,0,549,,,,,,,,,,,,,,,,,W,125,hexagon,1,0,,,,,,,,,,,,,,,,repeat,letter,lettRpt,f,0.6894,noRew,,,,,,0,31,0,31,0,1,,,,,,,,,,,,,,,,,
293227,2022-10-04_08h51.41.106,vts_reward_expectancy,2022.2.4,MacIntel,60.0024001,Chrome,1440,900,,,,,0,549,,,,,,,,,,,,,,,,,B,125,triangle,1,0,,,,,,,,,,,,,,,,repeat,letter,lettRpt,d,0.6158,noRew,,,,,,0,32,0,32,0,1,,,,,,,,,,,,,,,,,
293227,2022-10-04_08h51.41.106,vts_reward_expectancy,2022.2.4,MacIntel,60.0024001,Chrome,1440,900,,,,,0,549,,,,,,,,,,,,,,,,,F,139,hexagon,1,0,,,,,,,,,,,,,,,,switch,number,numSwt,j,0.622,noRew,,,,,,0,33,0,33,0,1,,,,,,,,,,,,,,,,,
293227,2022-10-04_08h51.41.106,vts_reward_expectancy,2022.2.4,MacIntel,60.0024001,Chrome,1440,900,,,,,0,549,,,,,,,,,,,,,,,,,D,181,triangle,1,0,,,,,,,,,,,,,,,,repeat,number,numRpt,k,0.723,noRew,,,,,,0,34,0,34,0,1,,,,,,,,,,,,,,,,,
293227,2022-10-04_08h51.41.106,vts_reward_expectancy,2022.2.4,MacIntel,60.0024001,Chrome,1440,900,,,,,0,549,,,,,,,,,,,,,,,,,H,160,hexagon,1,0,,,,,,,,,,,,,,,,repeat,number,numRpt,k,0.6181,noRew,,,,,,0,35,0,35,0,1,,,,,,,,,,,,,,,,,
293227,2022-10-04_08h51.41.106,vts_reward_expectancy,2022.2.4,MacIntel,60.0024001,Chrome,1440,900,,,,,0,549,,,,,,,,,,,,,,,,,D,125,circle,1,0,,,,,,,,,,,,,,,,repeat,number,numRpt,j,0.836,noRew,,,,,,0,36,0,36,0,1,,,,,,,,,,,,,,,,,
293227,2022-10-04_08h51.41.106,vts_reward_expectancy,2022.2.4,MacIntel,60.0024001,Chrome,1440,900,,,,,0,549,,,,,,,,,,,,,,,,,H,139,star,1,0,,,,,,,,,,,,,,,,switch,letter,lettSwt,d,0.8834,noRew,,,,,,0,37,0,37,0,1,,,,,,,,,,,,,,,,,
293227,2022-10-04_08h51.41.106,vts_reward_expectancy,2022.2.4,MacIntel,60.0024001,Chrome,1440,900,,,,,0,549,,,,,,,,,,,,,,,,,F,174,hexagon,1,0,,,,,,,,,,,,,,,,repeat,letter,lettRpt,d,0.9301,noRew,,,,,,0,38,0,38,0,1,,,,,,,,,,,,,,,,,
293227,2022-10-04_08h51.41.106,vts_reward_expectancy,2022.2.4,MacIntel,60.0024001,Chrome,1440,900,,,,,0,549,,,,,,,,,,,,,,,,,U,160,star,1,0,,,,,,,,,,,,,,,,repeat,letter,lettRpt,f,0.7796,noRew,,,,,,0,39,0,39,0,1,,,,,,,,,,,,,,,,,
293227,2022-10-04_08h51.41.106,vts_reward_expectancy,2022.2.4,MacIntel,60.0024001,Chrome,1440,900,,,,,0,549,,,,,,,,,,,,,,,,,B,174,circle,1,0,,,,,,,,,,,,,,,,switch,number,numSwt,k,0.7534,noRew,,,,,,0,40,0,40,0,1,,,,,,,,,,,,,,,,,
293227,2022-10-04_08h51.41.106,vts_reward_expectancy,2022.2.4,MacIntel,60.0024001,Chrome,1440,900,,,,,0,549,,,,,,,,,,,,,,,,,D,146,star,1,0,,,,,,,,,,,,,,,,repeat,number,numRpt,j,0.6705,noRew,,,,,,0,41,0,41,0,1,,,,,,,,,,,,,,,,,
293227,2022-10-04_08h51.41.106,vts_reward_expectancy,2022.2.4,MacIntel,60.0024001,Chrome,1440,900,,,,,0,549,,,,,,,,,,,,,,,,,F,160,triangle,1,0,,,,,,,,,,,,,,,,repeat,number,numRpt,k,0.6984,noRew,,,,,,0,42,0,42,0,1,,,,,,,,,,,,,,,,,
293227,2022-10-04_08h51.41.106,vts_reward_expectancy,2022.2.4,MacIntel,60.0024001,Chrome,1440,900,,,,,0,549,,,,,,,,,,,,,,,,,Y,167,circle,1,0,,,,,,,,,,,,,,,,switch,letter,lettSwt,f,0.4145,noRew,,,,,,0,43,0,43,0,1,,,,,,,,,,,,,,,,,
293227,2022-10-04_08h51.41.106,vts_reward_expectancy,2022.2.4,MacIntel,60.0024001,Chrome,1440,900,,,,,0,549,,,,,,,,,,,,,,,,,W,146,star,1,0,,,,,,,,,,,,,,,,repeat,letter,lettRpt,f,0.5469,noRew,,,,,,0,44,0,44,0,1,,,,,,,,,,,,,,,,,
293227,2022-10-04_08h51.41.106,vts_reward_expectancy,2022.2.4,MacIntel,60.0024001,Chrome,1440,900,,,,,0,549,,,,,,,,,,,,,,,,,U,139,circle,1,0,,,,,,,,,,,,,,,,repeat,letter,lettRpt,f,0.6295,noRew,,,,,,0,45,0,45,0,1,,,,,,,,,,,,,,,,,
293227,2022-10-04_08h51.41.106,vts_reward_expectancy,2022.2.4,MacIntel,60.0024001,Chrome,1440,900,,,,,0,549,,,,,,,,,,,,,,,,,B,167,triangle,0,0,,,,,,,,,,,,,,,,repeat,letter,NA,f,0.4615,noRew,,,,,,0,46,0,46,0,1,,,,,,,,,,,,,,,,,
293227,2022-10-04_08h51.41.106,vts_reward_expectancy,2022.2.4,MacIntel,60.0024001,Chrome,1440,900,,,,,0,549,,,,,,,,,,,,,,,,,S,160,circle,1,1,,,,,,,,,,,,,,,,repeat,letter,lettRpt,f,0.5964,noRew,,,,,,0,47,0,47,0,1,,,,,,,,,,,,,,,,,
293227,2022-10-04_08h51.41.106,vts_reward_expectancy,2022.2.4,MacIntel,60.0024001,Chrome,1440,900,,,,,0,549,,,,,,,,,,,,,,,,,S,174,hexagon,1,0,,,,,,,,,,,,,,,,switch,number,numSwt,k,0.5882,noRew,,,,,,0,48,0,48,0,1,,,,,,,,,,,,,,,,,
293227,2022-10-04_08h51.41.106,vts_reward_expectancy,2022.2.4,MacIntel,60.0024001,Chrome,1440,900,,,,,0,549,,,,,,,,,,,,,,,,,W,146,triangle,0,0,,,,,,,,,,,,,,,,repeat,number,NA,k,0.6113,noRew,,,,,,0,49,0,49,0,1,,,,,,,,,,,,,,,,,
293227,2022-10-04_08h51.41.106,vts_reward_expectancy,2022.2.4,MacIntel,60.0024001,Chrome,1440,900,,,,,0,549,,,,,,,,,,,,,,,,,B,181,star,1,1,,,,,,,,,,,,,,,,repeat,number,numRpt,k,0.6129,noRew,,,,,,0,50,0,50,0,1,,,,,,,,,,,,,,,,,
293227,2022-10-04_08h51.41.106,vts_reward_expectancy,2022.2.4,MacIntel,60.0024001,Chrome,1440,900,,,,,0,549,,,,,,,,,,,,,,,,,U,139,hexagon,1,0,,,,,,,,,,,,,,,,repeat,number,numRpt,j,0.5312,noRew,,,,,,0,51,0,51,0,1,,,,,,,,,,,,,,,,,
293227,2022-10-04_08h51.41.106,vts_reward_expectancy,2022.2.4,MacIntel,60.0024001,Chrome,1440,900,,,,,0,549,,,,,,,,,,,,,,,,,S,132,hexagon,1,0,,,,,,,,,,,,,,,,repeat,number,numRpt,j,0.6109,noRew,,,,,,0,52,0,52,0,1,,,,,,,,,,,,,,,,,
293227,2022-10-04_08h51.41.106,vts_reward_expectancy,2022.2.4,MacIntel,60.0024001,Chrome,1440,900,,,,,0,549,,,,,,,,,,,,,,,,,D,139,star,1,0,,,,,,,,,,,,,,,,repeat,number,numRpt,j,1.3953,noRew,,,,,,0,53,0,53,0,1,,,,,,,,,,,,,,,,,
293227,2022-10-04_08h51.41.106,vts_reward_expectancy,2022.2.4,MacIntel,60.0024001,Chrome,1440,900,,,,,0,549,,,,,,,,,,,,,,,,,U,146,hexagon,1,0,,,,,,,,,,,,,,,,repeat,number,numRpt,j,0.8113,noRew,,,,,,0,54,0,54,0,1,,,,,,,,,,,,,,,,,
293227,2022-10-04_08h51.41.106,vts_reward_expectancy,2022.2.4,MacIntel,60.0024001,Chrome,1440,900,,,,,0,549,,,,,,,,,,,,,,,,,Y,167,star,1,0,,,,,,,,,,,,,,,,repeat,number,numRpt,k,0.7848,noRew,,,,,,0,55,0,55,0,1,,,,,,,,,,,,,,,,,
293227,2022-10-04_08h51.41.106,vts_reward_expectancy,2022.2.4,MacIntel,60.0024001,Chrome,1440,900,,,,,0,549,,,,,,,,,,,,,,,,,S,167,hexagon,1,0,,,,,,,,,,,,,,,,repeat,number,numRpt,k,1.0183,noRew,,,,,,0,56,0,56,0,1,,,,,,,,,,,,,,,,,
293227,2022-10-04_08h51.41.106,vts_reward_expectancy,2022.2.4,MacIntel,60.0024001,Chrome,1440,900,,,,,0,549,,,,,,,,,,,,,,,,,B,181,triangle,1,0,,,,,,,,,,,,,,,,switch,letter,lettSwt,d,0.6144,noRew,,,,,,0,57,0,57,0,1,,,,,,,,,,,,,,,,,
293227,2022-10-04_08h51.41.106,vts_reward_expectancy,2022.2.4,MacIntel,60.0024001,Chrome,1440,900,,,,,0,549,,,,,,,,,,,,,,,,,Y,139,circle,1,0,,,,,,,,,,,,,,,,repeat,letter,lettRpt,f,0.5027,noRew,,,,,,0,58,0,58,0,1,,,,,,,,,,,,,,,,,
293227,2022-10-04_08h51.41.106,vts_reward_expectancy,2022.2.4,MacIntel,60.0024001,Chrome,1440,900,,,,,0,549,,,,,,,,,,,,,,,,,F,160,triangle,1,0,,,,,,,,,,,,,,,,repeat,letter,lettRpt,d,0.827,noRew,,,,,,0,59,0,59,0,1,,,,,,,,,,,,,,,,,
293227,2022-10-04_08h51.41.106,vts_reward_expectancy,2022.2.4,MacIntel,60.0024001,Chrome,1440,900,,,,,0,549,,,,,,,,,,,,,,,,,D,181,hexagon,1,0,,,,,,,,,,,,,,,,repeat,letter,lettRpt,d,0.6874,noRew,,,,,,0,60,0,60,0,1,,,,,,,,,,,,,,,,,
293227,2022-10-04_08h51.41.106,vts_reward_expectancy,2022.2.4,MacIntel,60.0024001,Chrome,1440,900,,,,,0,549,,,,,,,,,,,,,,,,,F,125,triangle,1,0,,,,,,,,,,,,,,,,repeat,letter,lettRpt,d,0.6644,noRew,,,,,,0,61,0,61,0,1,,,,,,,,,,,,,,,,,
293227,2022-10-04_08h51.41.106,vts_reward_expectancy,2022.2.4,MacIntel,60.0024001,Chrome,1440,900,,,,,0,549,,,,,,,,,,,,,,,,,B,132,star,1,0,,,,,,,,,,,,,,,,repeat,letter,lettRpt,d,0.711,noRew,,,,,,0,62,0,62,0,1,,,,,,,,,,,,,,,,,
293227,2022-10-04_08h51.41.106,vts_reward_expectancy,2022.2.4,MacIntel,60.0024001,Chrome,1440,900,,,,,0,549,,,,,,,,,,,,,,,,,Y,174,hexagon,1,0,,,,,,,,,,,,,,,,repeat,letter,lettRpt,f,0.705,noRew,,,,,,0,63,0,63,0,1,,,,,,,,,,,,,,,,,
293227,2022-10-04_08h51.41.106,vts_reward_expectancy,2022.2.4,MacIntel,60.0024001,Chrome,1440,900,,,,,,,,,,,,,,,,,,,,,,,,,,,,,,,,,,,,,,,,,,,,,,,,,,,,,,,,,,,,,,,,,,,,,,,,,,,,
293227,2022-10-04_08h51.41.106,vts_reward_expectancy,2022.2.4,MacIntel,60.0024001,Chrome,1440,900,,,,,0,549,,,,,,,,,,,,,,,,,F,146,circle,1,0,,,,,,,,,,,,,,,,repeat,letter,lettRpt,d,1.4093,Hi,,,,,,0,,,,,,space,11.0646,high,0,0,0,0,1,,,,,,,,,
293227,2022-10-04_08h51.41.106,vts_reward_expectancy,2022.2.4,MacIntel,60.0024001,Chrome,1440,900,,,,,10,559,,,,,,,,,,,,,,,,,H,174,hexagon,1,0,,,,,,,,,,,,,,,,repeat,letter,lettRpt,d,0.4856,Lo,,,,,,0,,,,,,,,high,1,0,1,0,1,,,,,,,,,
293227,2022-10-04_08h51.41.106,vts_reward_expectancy,2022.2.4,MacIntel,60.0024001,Chrome,1440,900,,,,,0,559,,,,,,,,,,,,,,,,,Y,181,circle,1,0,,,,,,,,,,,,,,,,repeat,letter,lettRpt,f,0.669,Hi,,,,,,0,,,,,,,,high,2,0,2,0,1,,,,,,,,,
293227,2022-10-04_08h51.41.106,vts_reward_expectancy,2022.2.4,MacIntel,60.0024001,Chrome,1440,900,,,,,1,560,,,,,,,,,,,,,,,,,W,125,hexagon,1,0,,,,,,,,,,,,,,,,switch,number,numSwt,j,0.3595,Lo,,,,,,0,,,,,,,,high,3,0,3,0,1,,,,,,,,,
293227,2022-10-04_08h51.41.106,vts_reward_expectancy,2022.2.4,MacIntel,60.0024001,Chrome,1440,900,,,,,0,560,,,,,,,,,,,,,,,,,U,132,hexagon,0,0,,,,,,,,,,,,,,,,repeat,number,NA,k,0.6956,Lo,,,,,,0,,,,,,,,high,4,0,4,0,1,,,,,,,,,
293227,2022-10-04_08h51.41.106,vts_reward_expectancy,2022.2.4,MacIntel,60.0024001,Chrome,1440,900,,,,,0,560,,,,,,,,,,,,,,,,,B,160,circle,0,1,,,,,,,,,,,,,,,,repeat,number,NA,j,0.5263,Lo,,,,,,0,,,,,,,,high,5,0,5,0,1,,,,,,,,,
293227,2022-10-04_08h51.41.106,vts_reward_expectancy,2022.2.4,MacIntel,60.0024001,Chrome,1440,900,,,,,1,561,,,,,,,,,,,,,,,,,S,139,hexagon,1,1,,,,,,,,,,,,,,,,repeat,number,numRpt,j,0.6622,Lo,,,,,,0,,,,,,,,high,6,0,6,0,1,,,,,,,,,
293227,2022-10-04_08h51.41.106,vts_reward_expectancy,2022.2.4,MacIntel,60.0024001,Chrome,1440,900,,,,,0,561,,,,,,,,,,,,,,,,,D,167,circle,1,0,,,,,,,,,,,,,,,,switch,letter,lettSwt,d,0.762,Hi,,,,,,0,,,,,,,,high,7,0,7,0,1,,,,,,,,,
293227,2022-10-04_08h51.41.106,vts_reward_expectancy,2022.2.4,MacIntel,60.0024001,Chrome,1440,900,,,,,10,571,,,,,,,,,,,,,,,,,F,146,circle,1,0,,,,,,,,,,,,,,,,repeat,letter,lettRpt,d,0.4013,Hi,,,,,,0,,,,,,,,high,8,0,8,0,1,,,,,,,,,
293227,2022-10-04_08h51.41.106,vts_reward_expectancy,2022.2.4,MacIntel,60.0024001,Chrome,1440,900,,,,,0,571,,,,,,,,,,,,,,,,,H,174,hexagon,0,0,,,,,,,,,,,,,,,,repeat,letter,NA,f,0.4093,Hi,,,,,,0,,,,,,,,high,9,0,9,0,1,,,,,,,,,
293227,2022-10-04_08h51.41.106,vts_reward_expectancy,2022.2.4,MacIntel,60.0024001,Chrome,1440,900,,,,,1,572,,,,,,,,,,,,,,,,,Y,181,hexagon,1,1,,,,,,,,,,,,,,,,repeat,letter,lettRpt,f,0.439,Lo,,,,,,0,,,,,,,,high,10,0,10,0,1,,,,,,,,,
293227,2022-10-04_08h51.41.106,vts_reward_expectancy,2022.2.4,MacIntel,60.0024001,Chrome,1440,900,,,,,0,572,,,,,,,,,,,,,,,,,W,125,circle,0,0,,,,,,,,,,,,,,,,repeat,letter,NA,d,0.428,Lo,,,,,,0,,,,,,,,high,11,0,11,0,1,,,,,,,,,
293227,2022-10-04_08h51.41.106,vts_reward_expectancy,2022.2.4,MacIntel,60.0024001,Chrome,1440,900,,,,,1,573,,,,,,,,,,,,,,,,,U,132,hexagon,1,1,,,,,,,,,,,,,,,,repeat,letter,lettRpt,f,0.5627,Lo,,,,,,0,,,,,,,,high,12,0,12,0,1,,,,,,,,,
293227,2022-10-04_08h51.41.106,vts_reward_expectancy,2022.2.4,MacIntel,60.0024001,Chrome,1440,900,,,,,10,583,,,,,,,,,,,,,,,,,B,160,circle,1,0,,,,,,,,,,,,,,,,repeat,letter,lettRpt,d,0.6435,Hi,,,,,,0,,,,,,,,high,13,0,13,0,1,,,,,,,,,
293227,2022-10-04_08h51.41.106,vts_reward_expectancy,2022.2.4,MacIntel,60.0024001,Chrome,1440,900,,,,,10,593,,,,,,,,,,,,,,,,,S,139,circle,1,0,,,,,,,,,,,,,,,,repeat,letter,lettRpt,f,0.6284,Hi,,,,,,0,,,,,,,,high,14,0,14,0,1,,,,,,,,,
293227,2022-10-04_08h51.41.106,vts_reward_expectancy,2022.2.4,MacIntel,60.0024001,Chrome,1440,900,,,,,1,594,,,,,,,,,,,,,,,,,D,167,hexagon,1,0,,,,,,,,,,,,,,,,repeat,letter,lettRpt,d,1.8269,Lo,,,,,,0,,,,,,,,high,15,0,15,0,1,,,,,,,,,
293227,2022-10-04_08h51.41.106,vts_reward_expectancy,2022.2.4,MacIntel,60.0024001,Chrome,1440,900,,,,,0,594,,,,,,,,,,,,,,,,,D,181,circle,1,0,,,,,,,,,,,,,,,,switch,number,numSwt,k,1.8801,Hi,,,,,,0,,,,,,,,high,16,0,16,0,1,,,,,,,,,
293227,2022-10-04_08h51.41.106,vts_reward_expectancy,2022.2.4,MacIntel,60.0024001,Chrome,1440,900,,,,,0,594,,,,,,,,,,,,,,,,,S,146,hexagon,0,0,,,,,,,,,,,,,,,,repeat,number,NA,k,0.7288,Hi,,,,,,0,,,,,,,,high,17,0,17,0,1,,,,,,,,,
293227,2022-10-04_08h51.41.106,vts_reward_expectancy,2022.2.4,MacIntel,60.0024001,Chrome,1440,900,,,,,10,604,,,,,,,,,,,,,,,,,H,125,hexagon,1,1,,,,,,,,,,,,,,,,repeat,number,numRpt,j,0.7136,Lo,,,,,,0,,,,,,,,high,18,0,18,0,1,,,,,,,,,
293227,2022-10-04_08h51.41.106,vts_reward_expectancy,2022.2.4,MacIntel,60.0024001,Chrome,1440,900,,,,,1,605,,,,,,,,,,,,,,,,,B,160,circle,1,0,,,,,,,,,,,,,,,,repeat,number,numRpt,k,0.6281,Hi,,,,,,0,,,,,,,,high,19,0,19,0,1,,,,,,,,,
293227,2022-10-04_08h51.41.106,vts_reward_expectancy,2022.2.4,MacIntel,60.0024001,Chrome,1440,900,,,,,10,615,,,,,,,,,,,,,,,,,U,139,hexagon,1,0,,,,,,,,,,,,,,,,repeat,number,numRpt,j,0.6043,Lo,,,,,,0,,,,,,,,high,20,0,20,0,1,,,,,,,,,
293227,2022-10-04_08h51.41.106,vts_reward_expectancy,2022.2.4,MacIntel,60.0024001,Chrome,1440,900,,,,,10,625,,,,,,,,,,,,,,,,,F,174,circle,1,0,,,,,,,,,,,,,,,,repeat,number,numRpt,k,0.5324,Hi,,,,,,0,,,,,,,,high,21,0,21,0,1,,,,,,,,,
293227,2022-10-04_08h51.41.106,vts_reward_expectancy,2022.2.4,MacIntel,60.0024001,Chrome,1440,900,,,,,10,635,,,,,,,,,,,,,,,,,Y,132,hexagon,1,0,,,,,,,,,,,,,,,,repeat,number,numRpt,j,0.6546,Lo,,,,,,0,,,,,,,,high,22,0,22,0,1,,,,,,,,,
293227,2022-10-04_08h51.41.106,vts_reward_expectancy,2022.2.4,MacIntel,60.0024001,Chrome,1440,900,,,,,10,645,,,,,,,,,,,,,,,,,W,167,circle,1,0,,,,,,,,,,,,,,,,switch,letter,lettSwt,f,0.5469,Hi,,,,,,0,,,,,,,,high,23,0,23,0,1,,,,,,,,,
293227,2022-10-04_08h51.41.106,vts_reward_expectancy,2022.2.4,MacIntel,60.0024001,Chrome,1440,900,,,,,1,646,,,,,,,,,,,,,,,,,W,125,hexagon,1,0,,,,,,,,,,,,,,,,repeat,letter,lettRpt,f,0.6999,Lo,,,,,,0,,,,,,,,high,24,0,24,0,1,,,,,,,,,
293227,2022-10-04_08h51.41.106,vts_reward_expectancy,2022.2.4,MacIntel,60.0024001,Chrome,1440,900,,,,,10,656,,,,,,,,,,,,,,,,,H,167,circle,1,0,,,,,,,,,,,,,,,,repeat,letter,lettRpt,d,0.5162,Hi,,,,,,0,,,,,,,,high,25,0,25,0,1,,,,,,,,,
293227,2022-10-04_08h51.41.106,vts_reward_expectancy,2022.2.4,MacIntel,60.0024001,Chrome,1440,900,,,,,0,656,,,,,,,,,,,,,,,,,S,146,circle,0,0,,,,,,,,,,,,,,,,switch,number,NA,k,0.5292,Hi,,,,,,0,,,,,,,,high,26,0,26,0,1,,,,,,,,,
293227,2022-10-04_08h51.41.106,vts_reward_expectancy,2022.2.4,MacIntel,60.0024001,Chrome,1440,900,,,,,1,657,,,,,,,,,,,,,,,,,F,132,hexagon,1,1,,,,,,,,,,,,,,,,repeat,number,numRpt,j,0.6051,Lo,,,,,,0,,,,,,,,high,27,0,27,0,1,,,,,,,,,
293227,2022-10-04_08h51.41.106,vts_reward_expectancy,2022.2.4,MacIntel,60.0024001,Chrome,1440,900,,,,,1,658,,,,,,,,,,,,,,,,,B,139,hexagon,1,0,,,,,,,,,,,,,,,,repeat,number,numRpt,j,0.5794,Lo,,,,,,0,,,,,,,,high,28,0,28,0,1,,,,,,,,,
293227,2022-10-04_08h51.41.106,vts_reward_expectancy,2022.2.4,MacIntel,60.0024001,Chrome,1440,900,,,,,10,668,,,,,,,,,,,,,,,,,Y,160,circle,1,0,,,,,,,,,,,,,,,,switch,letter,lettSwt,f,0.5953,Hi,,,,,,0,,,,,,,,high,29,0,29,0,1,,,,,,,,,
293227,2022-10-04_08h51.41.106,vts_reward_expectancy,2022.2.4,MacIntel,60.0024001,Chrome,1440,900,,,,,10,678,,,,,,,,,,,,,,,,,D,174,circle,1,0,,,,,,,,,,,,,,,,repeat,letter,lettRpt,d,0.5474,Hi,,,,,,0,,,,,,,,high,30,0,30,0,1,,,,,,,,,
293227,2022-10-04_08h51.41.106,vts_reward_expectancy,2022.2.4,MacIntel,60.0024001,Chrome,1440,900,,,,,1,679,,,,,,,,,,,,,,,,,U,181,hexagon,1,0,,,,,,,,,,,,,,,,repeat,letter,lettRpt,f,0.6664,Lo,,,,,,0,,,,,,,,high,31,0,31,0,1,,,,,,,,,
293227,2022-10-04_08h51.41.106,vts_reward_expectancy,2022.2.4,MacIntel,60.0024001,Chrome,1440,900,,,,,1,680,,,,,,,,,,,,,,,,,D,174,hexagon,1,0,,,,,,,,,,,,,,,,switch,number,numSwt,k,1.5858,Lo,,,,,,1,,,,,,space,2.638,high,0,0,0,0,1,,,,,,,,,
293227,2022-10-04_08h51.41.106,vts_reward_expectancy,2022.2.4,MacIntel,60.0024001,Chrome,1440,900,,,,,0,680,,,,,,,,,,,,,,,,,W,146,circle,-1,0,,,,,,,,,,,,,,,,switch,no_choice,NA,,,Lo,,,,,,1,,,,,,,,high,1,0,1,0,1,,,,,,,,,
293227,2022-10-04_08h51.41.106,vts_reward_expectancy,2022.2.4,MacIntel,60.0024001,Chrome,1440,900,,,,,0,680,,,,,,,,,,,,,,,,,F,139,hexagon,0,0,,,,,,,,,,,,,,,,switch,number,NA,k,0.779,Lo,,,,,,1,,,,,,,,high,2,0,2,0,1,,,,,,,,,
293227,2022-10-04_08h51.41.106,vts_reward_expectancy,2022.2.4,MacIntel,60.0024001,Chrome,1440,900,,,,,1,681,,,,,,,,,,,,,,,,,U,167,circle,1,1,,,,,,,,,,,,,,,,repeat,number,numRpt,k,0.4882,Hi,,,,,,1,,,,,,,,high,3,0,3,0,1,,,,,,,,,
293227,2022-10-04_08h51.41.106,vts_reward_expectancy,2022.2.4,MacIntel,60.0024001,Chrome,1440,900,,,,,1,682,,,,,,,,,,,,,,,,,Y,125,hexagon,1,0,,,,,,,,,,,,,,,,repeat,number,numRpt,j,0.5821,Lo,,,,,,1,,,,,,,,high,4,0,4,0,1,,,,,,,,,
293227,2022-10-04_08h51.41.106,vts_reward_expectancy,2022.2.4,MacIntel,60.0024001,Chrome,1440,900,,,,,0,682,,,,,,,,,,,,,,,,,B,160,circle,0,0,,,,,,,,,,,,,,,,repeat,number,NA,j,2.2043,Lo,,,,,,1,,,,,,,,high,5,0,5,0,1,,,,,,,,,
293227,2022-10-04_08h51.41.106,vts_reward_expectancy,2022.2.4,MacIntel,60.0024001,Chrome,1440,900,,,,,1,683,,,,,,,,,,,,,,,,,S,181,hexagon,1,1,,,,,,,,,,,,,,,,switch,letter,lettSwt,f,0.9354,Lo,,,,,,1,,,,,,,,high,6,0,6,0,1,,,,,,,,,
293227,2022-10-04_08h51.41.106,vts_reward_expectancy,2022.2.4,MacIntel,60.0024001,Chrome,1440,900,,,,,0,683,,,,,,,,,,,,,,,,,H,132,circle,1,0,,,,,,,,,,,,,,,,repeat,letter,lettRpt,d,0.7024,Hi,,,,,,1,,,,,,,,high,7,0,7,0,1,,,,,,,,,
293227,2022-10-04_08h51.41.106,vts_reward_expectancy,2022.2.4,MacIntel,60.0024001,Chrome,1440,900,,,,,0,683,,,,,,,,,,,,,,,,,D,174,circle,0,0,,,,,,,,,,,,,,,,repeat,letter,NA,f,0.5454,Hi,,,,,,1,,,,,,,,high,8,0,8,0,1,,,,,,,,,
293227,2022-10-04_08h51.41.106,vts_reward_expectancy,2022.2.4,MacIntel,60.0024001,Chrome,1440,900,,,,,1,684,,,,,,,,,,,,,,,,,W,146,hexagon,1,1,,,,,,,,,,,,,,,,repeat,letter,lettRpt,f,0.4211,Lo,,,,,,1,,,,,,,,high,9,0,9,0,1,,,,,,,,,
293227,2022-10-04_08h51.41.106,vts_reward_expectancy,2022.2.4,MacIntel,60.0024001,Chrome,1440,900,,,,,10,694,,,,,,,,,,,,,,,,,F,139,hexagon,1,0,,,,,,,,,,,,,,,,switch,number,numSwt,j,0.7051,Lo,,,,,,1,,,,,,,,high,10,0,10,0,1,,,,,,,,,
293227,2022-10-04_08h51.41.106,vts_reward_expectancy,2022.2.4,MacIntel,60.0024001,Chrome,1440,900,,,,,10,704,,,,,,,,,,,,,,,,,U,167,circle,1,0,,,,,,,,,,,,,,,,repeat,number,numRpt,k,0.3873,Hi,,,,,,1,,,,,,,,high,11,0,11,0,1,,,,,,,,,
293227,2022-10-04_08h51.41.106,vts_reward_expectancy,2022.2.4,MacIntel,60.0024001,Chrome,1440,900,,,,,1,705,,,,,,,,,,,,,,,,,Y,125,circle,1,0,,,,,,,,,,,,,,,,repeat,number,numRpt,j,0.3951,Hi,,,,,,1,,,,,,,,high,12,0,12,0,1,,,,,,,,,
293227,2022-10-04_08h51.41.106,vts_reward_expectancy,2022.2.4,MacIntel,60.0024001,Chrome,1440,900,,,,,1,706,,,,,,,,,,,,,,,,,B,160,hexagon,1,0,,,,,,,,,,,,,,,,repeat,number,numRpt,k,0.614,Lo,,,,,,1,,,,,,,,high,13,0,13,0,1,,,,,,,,,
293227,2022-10-04_08h51.41.106,vts_reward_expectancy,2022.2.4,MacIntel,60.0024001,Chrome,1440,900,,,,,0,706,,,,,,,,,,,,,,,,,S,181,circle,1,0,,,,,,,,,,,,,,,,repeat,number,numRpt,k,0.6762,Hi,,,,,,1,,,,,,,,high,14,0,14,0,1,,,,,,,,,
293227,2022-10-04_08h51.41.106,vts_reward_expectancy,2022.2.4,MacIntel,60.0024001,Chrome,1440,900,,,,,0,706,,,,,,,,,,,,,,,,,H,132,hexagon,0,0,,,,,,,,,,,,,,,,repeat,number,NA,k,0.5134,Hi,,,,,,1,,,,,,,,high,15,0,15,0,1,,,,,,,,,
293227,2022-10-04_08h51.41.106,vts_reward_expectancy,2022.2.4,MacIntel,60.0024001,Chrome,1440,900,,,,,0,706,,,,,,,,,,,,,,,,,D,174,circle,1,1,,,,,,,,,,,,,,,,repeat,number,numRpt,k,0.813,Hi,,,,,,1,,,,,,,,high,16,0,16,0,1,,,,,,,,,
293227,2022-10-04_08h51.41.106,vts_reward_expectancy,2022.2.4,MacIntel,60.0024001,Chrome,1440,900,,,,,10,716,,,,,,,,,,,,,,,,,B,132,hexagon,1,0,,,,,,,,,,,,,,,,repeat,number,numRpt,j,0.6695,Lo,,,,,,1,,,,,,,,high,17,0,17,0,1,,,,,,,,,
293227,2022-10-04_08h51.41.106,vts_reward_expectancy,2022.2.4,MacIntel,60.0024001,Chrome,1440,900,,,,,10,726,,,,,,,,,,,,,,,,,S,167,circle,1,0,,,,,,,,,,,,,,,,switch,letter,lettSwt,f,0.4791,Hi,,,,,,1,,,,,,,,high,18,0,18,0,1,,,,,,,,,
293227,2022-10-04_08h51.41.106,vts_reward_expectancy,2022.2.4,MacIntel,60.0024001,Chrome,1440,900,,,,,1,727,,,,,,,,,,,,,,,,,W,146,hexagon,1,0,,,,,,,,,,,,,,,,repeat,letter,lettRpt,f,0.597,Lo,,,,,,1,,,,,,,,high,19,0,19,0,1,,,,,,,,,
293227,2022-10-04_08h51.41.106,vts_reward_expectancy,2022.2.4,MacIntel,60.0024001,Chrome,1440,900,,,,,0,727,,,,,,,,,,,,,,,,,H,181,circle,1,0,,,,,,,,,,,,,,,,repeat,letter,lettRpt,d,0.6929,Hi,,,,,,1,,,,,,,,high,20,0,20,0,1,,,,,,,,,
293227,2022-10-04_08h51.41.106,vts_reward_expectancy,2022.2.4,MacIntel,60.0024001,Chrome,1440,900,,,,,1,728,,,,,,,,,,,,,,,,,U,139,hexagon,1,0,,,,,,,,,,,,,,,,switch,number,numSwt,j,0.6462,Lo,,,,,,1,,,,,,,,high,21,0,21,0,1,,,,,,,,,
293227,2022-10-04_08h51.41.106,vts_reward_expectancy,2022.2.4,MacIntel,60.0024001,Chrome,1440,900,,,,,1,729,,,,,,,,,,,,,,,,,F,160,hexagon,1,0,,,,,,,,,,,,,,,,repeat,number,numRpt,k,0.6979,Lo,,,,,,1,,,,,,,,high,22,0,22,0,1,,,,,,,,,
293227,2022-10-04_08h51.41.106,vts_reward_expectancy,2022.2.4,MacIntel,60.0024001,Chrome,1440,900,,,,,10,739,,,,,,,,,,,,,,,,,Y,125,circle,1,0,,,,,,,,,,,,,,,,repeat,number,numRpt,j,0.5621,Hi,,,,,,1,,,,,,,,high,23,0,23,0,1,,,,,,,,,
293227,2022-10-04_08h51.41.106,vts_reward_expectancy,2022.2.4,MacIntel,60.0024001,Chrome,1440,900,,,,,10,749,,,,,,,,,,,,,,,,,W,167,hexagon,1,0,,,,,,,,,,,,,,,,repeat,number,numRpt,k,0.7047,Lo,,,,,,1,,,,,,,,high,24,0,24,0,1,,,,,,,,,
293227,2022-10-04_08h51.41.106,vts_reward_expectancy,2022.2.4,MacIntel,60.0024001,Chrome,1440,900,,,,,10,759,,,,,,,,,,,,,,,,,D,160,circle,1,0,,,,,,,,,,,,,,,,repeat,number,numRpt,k,0.5831,Hi,,,,,,1,,,,,,,,high,25,0,25,0,1,,,,,,,,,
293227,2022-10-04_08h51.41.106,vts_reward_expectancy,2022.2.4,MacIntel,60.0024001,Chrome,1440,900,,,,,10,769,,,,,,,,,,,,,,,,,U,146,hexagon,1,0,,,,,,,,,,,,,,,,switch,letter,lettSwt,f,0.5131,Lo,,,,,,1,,,,,,,,high,26,0,26,0,1,,,,,,,,,
293227,2022-10-04_08h51.41.106,vts_reward_expectancy,2022.2.4,MacIntel,60.0024001,Chrome,1440,900,,,,,10,779,,,,,,,,,,,,,,,,,Y,132,circle,1,0,,,,,,,,,,,,,,,,repeat,letter,lettRpt,f,0.4749,Hi,,,,,,1,,,,,,,,high,27,0,27,0,1,,,,,,,,,
293227,2022-10-04_08h51.41.106,vts_reward_expectancy,2022.2.4,MacIntel,60.0024001,Chrome,1440,900,,,,,1,780,,,,,,,,,,,,,,,,,F,181,hexagon,1,0,,,,,,,,,,,,,,,,repeat,letter,lettRpt,d,0.5995,Lo,,,,,,1,,,,,,,,high,28,0,28,0,1,,,,,,,,,
293227,2022-10-04_08h51.41.106,vts_reward_expectancy,2022.2.4,MacIntel,60.0024001,Chrome,1440,900,,,,,10,790,,,,,,,,,,,,,,,,,B,125,circle,1,0,,,,,,,,,,,,,,,,repeat,letter,lettRpt,d,0.4945,Hi,,,,,,1,,,,,,,,high,29,0,29,0,1,,,,,,,,,
293227,2022-10-04_08h51.41.106,vts_reward_expectancy,2022.2.4,MacIntel,60.0024001,Chrome,1440,900,,,,,0,790,,,,,,,,,,,,,,,,,S,174,circle,1,0,,,,,,,,,,,,,,,,switch,number,numSwt,k,0.5661,Hi,,,,,,1,,,,,,,,high,30,0,30,0,1,,,,,,,,,
293227,2022-10-04_08h51.41.106,vts_reward_expectancy,2022.2.4,MacIntel,60.0024001,Chrome,1440,900,,,,,1,791,,,,,,,,,,,,,,,,,H,139,hexagon,1,0,,,,,,,,,,,,,,,,repeat,number,numRpt,j,0.6505,Lo,,,,,,1,,,,,,,,high,31,0,31,0,1,,,,,,,,,
293227,2022-10-04_08h51.41.106,vts_reward_expectancy,2022.2.4,MacIntel,60.0024001,Chrome,1440,900,,,,,10,801,,,,,,,,,,,,,,,,,S,146,triangle,1,0,,,,,,,,,,,,,,,,switch,letter,lettSwt,f,0.8292,Lo,,,,,,2,,,,,,space,6.8189,low,0,0,0,0,1,,,,,,,,,
293227,2022-10-04_08h51.41.106,vts_reward_expectancy,2022.2.4,MacIntel,60.0024001,Chrome,1440,900,,,,,0,801,,,,,,,,,,,,,,,,,D,181,star,1,0,,,,,,,,,,,,,,,,switch,number,numSwt,k,0.7019,Hi,,,,,,2,,,,,,,,low,1,0,1,0,1,,,,,,,,,
293227,2022-10-04_08h51.41.106,vts_reward_expectancy,2022.2.4,MacIntel,60.0024001,Chrome,1440,900,,,,,1,802,,,,,,,,,,,,,,,,,Y,125,triangle,1,0,,,,,,,,,,,,,,,,switch,letter,lettSwt,f,0.6101,Lo,,,,,,2,,,,,,,,low,2,0,2,0,1,,,,,,,,,
293227,2022-10-04_08h51.41.106,vts_reward_expectancy,2022.2.4,MacIntel,60.0024001,Chrome,1440,900,,,,,10,812,,,,,,,,,,,,,,,,,F,132,star,1,0,,,,,,,,,,,,,,,,switch,number,numSwt,j,0.6293,Hi,,,,,,2,,,,,,,,low,3,0,3,0,1,,,,,,,,,
293227,2022-10-04_08h51.41.106,vts_reward_expectancy,2022.2.4,MacIntel,60.0024001,Chrome,1440,900,,,,,0,812,,,,,,,,,,,,,,,,,W,174,star,1,0,,,,,,,,,,,,,,,,switch,letter,lettSwt,f,0.6704,Hi,,,,,,2,,,,,,,,low,4,0,4,0,1,,,,,,,,,
293227,2022-10-04_08h51.41.106,vts_reward_expectancy,2022.2.4,MacIntel,60.0024001,Chrome,1440,900,,,,,0,812,,,,,,,,,,,,,,,,,H,160,triangle,0,0,,,,,,,,,,,,,,,,repeat,letter,NA,f,0.4522,Hi,,,,,,2,,,,,,,,low,5,0,5,0,1,,,,,,,,,
293227,2022-10-04_08h51.41.106,vts_reward_expectancy,2022.2.4,MacIntel,60.0024001,Chrome,1440,900,,,,,0,812,,,,,,,,,,,,,,,,,U,167,star,1,1,,,,,,,,,,,,,,,,switch,number,numSwt,k,0.7623,Hi,,,,,,2,,,,,,,,low,6,0,6,0,1,,,,,,,,,
293227,2022-10-04_08h51.41.106,vts_reward_expectancy,2022.2.4,MacIntel,60.0024001,Chrome,1440,900,,,,,1,813,,,,,,,,,,,,,,,,,B,139,triangle,1,0,,,,,,,,,,,,,,,,repeat,number,numRpt,j,0.5547,Lo,,,,,,2,,,,,,,,low,7,0,7,0,1,,,,,,,,,
293227,2022-10-04_08h51.41.106,vts_reward_expectancy,2022.2.4,MacIntel,60.0024001,Chrome,1440,900,,,,,0,813,,,,,,,,,,,,,,,,,S,146,star,0,0,,,,,,,,,,,,,,,,repeat,number,NA,k,0.7604,Lo,,,,,,2,,,,,,,,low,8,0,8,0,1,,,,,,,,,
293227,2022-10-04_08h51.41.106,vts_reward_expectancy,2022.2.4,MacIntel,60.0024001,Chrome,1440,900,,,,,1,814,,,,,,,,,,,,,,,,,D,181,triangle,1,1,,,,,,,,,,,,,,,,repeat,number,numRpt,k,0.4508,Lo,,,,,,2,,,,,,,,low,9,0,9,0,1,,,,,,,,,
293227,2022-10-04_08h51.41.106,vts_reward_expectancy,2022.2.4,MacIntel,60.0024001,Chrome,1440,900,,,,,10,824,,,,,,,,,,,,,,,,,Y,125,triangle,1,0,,,,,,,,,,,,,,,,repeat,number,numRpt,j,0.7641,Lo,,,,,,2,,,,,,,,low,10,0,10,0,1,,,,,,,,,
293227,2022-10-04_08h51.41.106,vts_reward_expectancy,2022.2.4,MacIntel,60.0024001,Chrome,1440,900,,,,,0,824,,,,,,,,,,,,,,,,,F,132,star,1,0,,,,,,,,,,,,,,,,repeat,number,numRpt,j,0.6117,Hi,,,,,,2,,,,,,,,low,11,0,11,0,1,,,,,,,,,
293227,2022-10-04_08h51.41.106,vts_reward_expectancy,2022.2.4,MacIntel,60.0024001,Chrome,1440,900,,,,,10,834,,,,,,,,,,,,,,,,,W,174,triangle,1,0,,,,,,,,,,,,,,,,repeat,number,numRpt,k,0.6644,Lo,,,,,,2,,,,,,,,low,12,0,12,0,1,,,,,,,,,
293227,2022-10-04_08h51.41.106,vts_reward_expectancy,2022.2.4,MacIntel,60.0024001,Chrome,1440,900,,,,,0,834,,,,,,,,,,,,,,,,,H,160,star,0,0,,,,,,,,,,,,,,,,repeat,number,NA,j,0.5471,Lo,,,,,,2,,,,,,,,low,13,0,13,0,1,,,,,,,,,
293227,2022-10-04_08h51.41.106,vts_reward_expectancy,2022.2.4,MacIntel,60.0024001,Chrome,1440,900,,,,,0,834,,,,,,,,,,,,,,,,,U,167,star,1,1,,,,,,,,,,,,,,,,repeat,number,numRpt,k,0.6138,Hi,,,,,,2,,,,,,,,low,14,0,14,0,1,,,,,,,,,
293227,2022-10-04_08h51.41.106,vts_reward_expectancy,2022.2.4,MacIntel,60.0024001,Chrome,1440,900,,,,,1,835,,,,,,,,,,,,,,,,,B,139,triangle,1,0,,,,,,,,,,,,,,,,switch,letter,lettSwt,d,0.4991,Lo,,,,,,2,,,,,,,,low,15,0,15,0,1,,,,,,,,,
293227,2022-10-04_08h51.41.106,vts_reward_expectancy,2022.2.4,MacIntel,60.0024001,Chrome,1440,900,,,,,1,836,,,,,,,,,,,,,,,,,D,146,triangle,1,0,,,,,,,,,,,,,,,,repeat,letter,lettRpt,d,0.5616,Lo,,,,,,2,,,,,,,,low,16,0,16,0,1,,,,,,,,,
293227,2022-10-04_08h51.41.106,vts_reward_expectancy,2022.2.4,MacIntel,60.0024001,Chrome,1440,900,,,,,10,846,,,,,,,,,,,,,,,,,Y,160,star,1,0,,,,,,,,,,,,,,,,repeat,letter,lettRpt,f,0.369,Hi,,,,,,2,,,,,,,,low,17,0,17,0,1,,,,,,,,,
293227,2022-10-04_08h51.41.106,vts_reward_expectancy,2022.2.4,MacIntel,60.0024001,Chrome,1440,900,,,,,1,847,,,,,,,,,,,,,,,,,U,132,triangle,1,0,,,,,,,,,,,,,,,,repeat,letter,lettRpt,f,0.4981,Lo,,,,,,2,,,,,,,,low,18,0,18,0,1,,,,,,,,,
293227,2022-10-04_08h51.41.106,vts_reward_expectancy,2022.2.4,MacIntel,60.0024001,Chrome,1440,900,,,,,10,857,,,,,,,,,,,,,,,,,H,174,star,1,0,,,,,,,,,,,,,,,,switch,number,numSwt,k,0.4779,Hi,,,,,,2,,,,,,,,low,19,0,19,0,1,,,,,,,,,
293227,2022-10-04_08h51.41.106,vts_reward_expectancy,2022.2.4,MacIntel,60.0024001,Chrome,1440,900,,,,,10,867,,,,,,,,,,,,,,,,,B,125,triangle,1,0,,,,,,,,,,,,,,,,repeat,number,numRpt,j,0.6715,Lo,,,,,,2,,,,,,,,low,20,0,20,0,1,,,,,,,,,
293227,2022-10-04_08h51.41.106,vts_reward_expectancy,2022.2.4,MacIntel,60.0024001,Chrome,1440,900,,,,,0,867,,,,,,,,,,,,,,,,,F,181,star,0,0,,,,,,,,,,,,,,,,switch,letter,NA,f,0.3132,Lo,,,,,,2,,,,,,,,low,21,0,21,0,1,,,,,,,,,
293227,2022-10-04_08h51.41.106,vts_reward_expectancy,2022.2.4,MacIntel,60.0024001,Chrome,1440,900,,,,,0,867,,,,,,,,,,,,,,,,,W,167,triangle,0,1,,,,,,,,,,,,,,,,repeat,letter,NA,d,0.2805,Lo,,,,,,2,,,,,,,,low,22,0,22,0,1,,,,,,,,,
293227,2022-10-04_08h51.41.106,vts_reward_expectancy,2022.2.4,MacIntel,60.0024001,Chrome,1440,900,,,,,10,877,,,,,,,,,,,,,,,,,S,139,star,1,1,,,,,,,,,,,,,,,,switch,number,numSwt,j,0.5786,Hi,,,,,,2,,,,,,,,low,23,0,23,0,1,,,,,,,,,
293227,2022-10-04_08h51.41.106,vts_reward_expectancy,2022.2.4,MacIntel,60.0024001,Chrome,1440,900,,,,,0,877,,,,,,,,,,,,,,,,,W,181,star,1,0,,,,,,,,,,,,,,,,switch,letter,lettSwt,f,0.5119,Hi,,,,,,2,,,,,,,,low,24,0,24,0,1,,,,,,,,,
293227,2022-10-04_08h51.41.106,vts_reward_expectancy,2022.2.4,MacIntel,60.0024001,Chrome,1440,900,,,,,10,887,,,,,,,,,,,,,,,,,B,132,triangle,1,0,,,,,,,,,,,,,,,,repeat,letter,lettRpt,d,0.4462,Lo,,,,,,2,,,,,,,,low,25,0,25,0,1,,,,,,,,,
293227,2022-10-04_08h51.41.106,vts_reward_expectancy,2022.2.4,MacIntel,60.0024001,Chrome,1440,900,,,,,1,888,,,,,,,,,,,,,,,,,Y,174,triangle,1,0,,,,,,,,,,,,,,,,repeat,letter,lettRpt,f,0.4636,Lo,,,,,,2,,,,,,,,low,26,0,26,0,1,,,,,,,,,
293227,2022-10-04_08h51.41.106,vts_reward_expectancy,2022.2.4,MacIntel,60.0024001,Chrome,1440,900,,,,,1,889,,,,,,,,,,,,,,,,,H,139,star,1,0,,,,,,,,,,,,,,,,switch,number,numSwt,j,0.4513,Hi,,,,,,2,,,,,,,,low,27,0,27,0,1,,,,,,,,,
293227,2022-10-04_08h51.41.106,vts_reward_expectancy,2022.2.4,MacIntel,60.0024001,Chrome,1440,900,,,,,0,889,,,,,,,,,,,,,,,,,U,125,star,1,0,,,,,,,,,,,,,,,,repeat,number,numRpt,j,0.6675,Hi,,,,,,2,,,,,,,,low,28,0,28,0,1,,,,,,,,,
293227,2022-10-04_08h51.41.106,vts_reward_expectancy,2022.2.4,MacIntel,60.0024001,Chrome,1440,900,,,,,10,899,,,,,,,,,,,,,,,,,D,160,triangle,1,0,,,,,,,,,,,,,,,,switch,letter,lettSwt,d,0.5297,Lo,,,,,,2,,,,,,,,low,29,0,29,0,1,,,,,,,,,
293227,2022-10-04_08h51.41.106,vts_reward_expectancy,2022.2.4,MacIntel,60.0024001,Chrome,1440,900,,,,,0,899,,,,,,,,,,,,,,,,,S,167,star,0,0,,,,,,,,,,,,,,,,switch,number,NA,j,0.5619,Lo,,,,,,2,,,,,,,,low,30,0,30,0,1,,,,,,,,,
293227,2022-10-04_08h51.41.106,vts_reward_expectancy,2022.2.4,MacIntel,60.0024001,Chrome,1440,900,,,,,1,900,,,,,,,,,,,,,,,,,F,146,triangle,1,1,,,,,,,,,,,,,,,,repeat,number,numRpt,j,0.6626,Lo,,,,,,2,,,,,,,,low,31,0,31,0,1,,,,,,,,,
293227,2022-10-04_08h51.41.106,vts_reward_expectancy,2022.2.4,MacIntel,60.0024001,Chrome,1440,900,,,,,10,910,,,,,,,,,,,,,,,,,S,174,triangle,1,0,,,,,,,,,,,,,,,,repeat,number,numRpt,k,0.4126,Lo,,,,,,3,,,,,,space,8.7918,low,0,0,0,0,1,,,,,,,,,
293227,2022-10-04_08h51.41.106,vts_reward_expectancy,2022.2.4,MacIntel,60.0024001,Chrome,1440,900,,,,,0,910,,,,,,,,,,,,,,,,,D,181,star,1,0,,,,,,,,,,,,,,,,switch,letter,lettSwt,d,0.5372,Hi,,,,,,3,,,,,,,,low,1,0,1,0,1,,,,,,,,,
293227,2022-10-04_08h51.41.106,vts_reward_expectancy,2022.2.4,MacIntel,60.0024001,Chrome,1440,900,,,,,1,911,,,,,,,,,,,,,,,,,W,146,triangle,1,0,,,,,,,,,,,,,,,,switch,number,numSwt,j,0.5182,Lo,,,,,,3,,,,,,,,low,2,0,2,0,1,,,,,,,,,
293227,2022-10-04_08h51.41.106,vts_reward_expectancy,2022.2.4,MacIntel,60.0024001,Chrome,1440,900,,,,,1,912,,,,,,,,,,,,,,,,,Y,160,star,1,0,,,,,,,,,,,,,,,,repeat,number,numRpt,k,0.5296,Hi,,,,,,3,,,,,,,,low,3,0,3,0,1,,,,,,,,,
293227,2022-10-04_08h51.41.106,vts_reward_expectancy,2022.2.4,MacIntel,60.0024001,Chrome,1440,900,,,,,1,913,,,,,,,,,,,,,,,,,B,139,triangle,1,0,,,,,,,,,,,,,,,,repeat,number,numRpt,j,0.7763,Lo,,,,,,3,,,,,,,,low,4,0,4,0,1,,,,,,,,,
293227,2022-10-04_08h51.41.106,vts_reward_expectancy,2022.2.4,MacIntel,60.0024001,Chrome,1440,900,,,,,0,913,,,,,,,,,,,,,,,,,U,125,star,1,0,,,,,,,,,,,,,,,,repeat,number,numRpt,j,0.6597,Hi,,,,,,3,,,,,,,,low,5,0,5,0,1,,,,,,,,,
293227,2022-10-04_08h51.41.106,vts_reward_expectancy,2022.2.4,MacIntel,60.0024001,Chrome,1440,900,,,,,0,913,,,,,,,,,,,,,,,,,F,167,triangle,0,0,,,,,,,,,,,,,,,,switch,letter,NA,f,0.4969,Hi,,,,,,3,,,,,,,,low,6,0,6,0,1,,,,,,,,,
293227,2022-10-04_08h51.41.106,vts_reward_expectancy,2022.2.4,MacIntel,60.0024001,Chrome,1440,900,,,,,0,913,,,,,,,,,,,,,,,,,H,132,star,0,1,,,,,,,,,,,,,,,,repeat,letter,NA,f,0.4267,Hi,,,,,,3,,,,,,,,low,7,0,7,0,1,,,,,,,,,
293227,2022-10-04_08h51.41.106,vts_reward_expectancy,2022.2.4,MacIntel,60.0024001,Chrome,1440,900,,,,,0,913,,,,,,,,,,,,,,,,,S,174,star,1,1,,,,,,,,,,,,,,,,repeat,letter,lettRpt,f,0.5647,Hi,,,,,,3,,,,,,,,low,8,0,8,0,1,,,,,,,,,
293227,2022-10-04_08h51.41.106,vts_reward_expectancy,2022.2.4,MacIntel,60.0024001,Chrome,1440,900,,,,,10,923,,,,,,,,,,,,,,,,,D,181,triangle,1,0,,,,,,,,,,,,,,,,repeat,letter,lettRpt,d,0.6161,Lo,,,,,,3,,,,,,,,low,9,0,9,0,1,,,,,,,,,
293227,2022-10-04_08h51.41.106,vts_reward_expectancy,2022.2.4,MacIntel,60.0024001,Chrome,1440,900,,,,,10,933,,,,,,,,,,,,,,,,,W,146,triangle,1,0,,,,,,,,,,,,,,,,repeat,letter,lettRpt,f,0.4269,Lo,,,,,,3,,,,,,,,low,10,0,10,0,1,,,,,,,,,
293227,2022-10-04_08h51.41.106,vts_reward_expectancy,2022.2.4,MacIntel,60.0024001,Chrome,1440,900,,,,,0,933,,,,,,,,,,,,,,,,,Y,160,star,0,0,,,,,,,,,,,,,,,,switch,number,NA,j,0.6511,Lo,,,,,,3,,,,,,,,low,11,0,11,0,1,,,,,,,,,
293227,2022-10-04_08h51.41.106,vts_reward_expectancy,2022.2.4,MacIntel,60.0024001,Chrome,1440,900,,,,,10,943,,,,,,,,,,,,,,,,,B,139,star,1,1,,,,,,,,,,,,,,,,repeat,number,numRpt,j,0.5657,Hi,,,,,,3,,,,,,,,low,12,0,12,0,1,,,,,,,,,
293227,2022-10-04_08h51.41.106,vts_reward_expectancy,2022.2.4,MacIntel,60.0024001,Chrome,1440,900,,,,,1,944,,,,,,,,,,,,,,,,,U,125,triangle,1,0,,,,,,,,,,,,,,,,repeat,number,numRpt,j,0.6111,Lo,,,,,,3,,,,,,,,low,13,0,13,0,1,,,,,,,,,
293227,2022-10-04_08h51.41.106,vts_reward_expectancy,2022.2.4,MacIntel,60.0024001,Chrome,1440,900,,,,,1,945,,,,,,,,,,,,,,,,,F,167,triangle,1,0,,,,,,,,,,,,,,,,repeat,number,numRpt,k,0.3936,Lo,,,,,,3,,,,,,,,low,14,0,14,0,1,,,,,,,,,
293227,2022-10-04_08h51.41.106,vts_reward_expectancy,2022.2.4,MacIntel,60.0024001,Chrome,1440,900,,,,,0,945,,,,,,,,,,,,,,,,,H,132,star,1,0,,,,,,,,,,,,,,,,repeat,number,numRpt,j,0.6275,Hi,,,,,,3,,,,,,,,low,15,0,15,0,1,,,,,,,,,
293227,2022-10-04_08h51.41.106,vts_reward_expectancy,2022.2.4,MacIntel,60.0024001,Chrome,1440,900,,,,,0,945,,,,,,,,,,,,,,,,,U,174,star,1,0,,,,,,,,,,,,,,,,switch,letter,lettSwt,f,0.7599,Hi,,,,,,3,,,,,,,,low,16,0,16,0,1,,,,,,,,,
293227,2022-10-04_08h51.41.106,vts_reward_expectancy,2022.2.4,MacIntel,60.0024001,Chrome,1440,900,,,,,10,955,,,,,,,,,,,,,,,,,D,167,triangle,1,0,,,,,,,,,,,,,,,,repeat,letter,lettRpt,d,0.6265,Lo,,,,,,3,,,,,,,,low,17,0,17,0,1,,,,,,,,,
293227,2022-10-04_08h51.41.106,vts_reward_expectancy,2022.2.4,MacIntel,60.0024001,Chrome,1440,900,,,,,0,955,,,,,,,,,,,,,,,,,S,139,star,1,0,,,,,,,,,,,,,,,,repeat,letter,lettRpt,f,0.5143,Hi,,,,,,3,,,,,,,,low,18,0,18,0,1,,,,,,,,,
293227,2022-10-04_08h51.41.106,vts_reward_expectancy,2022.2.4,MacIntel,60.0024001,Chrome,1440,900,,,,,10,965,,,,,,,,,,,,,,,,,Y,160,triangle,1,0,,,,,,,,,,,,,,,,repeat,letter,lettRpt,f,0.4636,Lo,,,,,,3,,,,,,,,low,19,0,19,0,1,,,,,,,,,
293227,2022-10-04_08h51.41.106,vts_reward_expectancy,2022.2.4,MacIntel,60.0024001,Chrome,1440,900,,,,,0,965,,,,,,,,,,,,,,,,,W,125,star,1,0,,,,,,,,,,,,,,,,switch,number,numSwt,j,0.581,Hi,,,,,,3,,,,,,,,low,20,0,20,0,1,,,,,,,,,
293227,2022-10-04_08h51.41.106,vts_reward_expectancy,2022.2.4,MacIntel,60.0024001,Chrome,1440,900,,,,,0,965,,,,,,,,,,,,,,,,,B,181,triangle,0,0,,,,,,,,,,,,,,,,repeat,number,NA,j,0.6472,Hi,,,,,,3,,,,,,,,low,21,0,21,0,1,,,,,,,,,
293227,2022-10-04_08h51.41.106,vts_reward_expectancy,2022.2.4,MacIntel,60.0024001,Chrome,1440,900,,,,,0,965,,,,,,,,,,,,,,,,,F,146,triangle,0,1,,,,,,,,,,,,,,,,repeat,number,NA,k,0.5851,Hi,,,,,,3,,,,,,,,low,22,0,22,0,1,,,,,,,,,
293227,2022-10-04_08h51.41.106,vts_reward_expectancy,2022.2.4,MacIntel,60.0024001,Chrome,1440,900,,,,,0,965,,,,,,,,,,,,,,,,,H,132,star,1,1,,,,,,,,,,,,,,,,switch,letter,lettSwt,d,0.5962,Hi,,,,,,3,,,,,,,,low,23,0,23,0,1,,,,,,,,,
293227,2022-10-04_08h51.41.106,vts_reward_expectancy,2022.2.4,MacIntel,60.0024001,Chrome,1440,900,,,,,0,965,,,,,,,,,,,,,,,,,Y,139,star,1,0,,,,,,,,,,,,,,,,switch,number,numSwt,j,0.5793,Hi,,,,,,3,,,,,,,,low,24,0,24,0,1,,,,,,,,,
293227,2022-10-04_08h51.41.106,vts_reward_expectancy,2022.2.4,MacIntel,60.0024001,Chrome,1440,900,,,,,1,966,,,,,,,,,,,,,,,,,B,167,triangle,1,0,,,,,,,,,,,,,,,,repeat,number,numRpt,k,0.6984,Lo,,,,,,3,,,,,,,,low,25,0,25,0,1,,,,,,,,,
293227,2022-10-04_08h51.41.106,vts_reward_expectancy,2022.2.4,MacIntel,60.0024001,Chrome,1440,900,,,,,1,967,,,,,,,,,,,,,,,,,F,181,triangle,1,0,,,,,,,,,,,,,,,,repeat,number,numRpt,k,0.4548,Lo,,,,,,3,,,,,,,,low,26,0,26,0,1,,,,,,,,,
293227,2022-10-04_08h51.41.106,vts_reward_expectancy,2022.2.4,MacIntel,60.0024001,Chrome,1440,900,,,,,10,977,,,,,,,,,,,,,,,,,D,132,star,1,0,,,,,,,,,,,,,,,,repeat,number,numRpt,j,0.5777,Hi,,,,,,3,,,,,,,,low,27,0,27,0,1,,,,,,,,,
293227,2022-10-04_08h51.41.106,vts_reward_expectancy,2022.2.4,MacIntel,60.0024001,Chrome,1440,900,,,,,0,977,,,,,,,,,,,,,,,,,U,125,star,1,0,,,,,,,,,,,,,,,,switch,letter,lettSwt,f,0.6855,Hi,,,,,,3,,,,,,,,low,28,0,28,0,1,,,,,,,,,
293227,2022-10-04_08h51.41.106,vts_reward_expectancy,2022.2.4,MacIntel,60.0024001,Chrome,1440,900,,,,,0,977,,,,,,,,,,,,,,,,,W,146,triangle,0,0,,,,,,,,,,,,,,,,switch,number,NA,k,0.7632,Hi,,,,,,3,,,,,,,,low,29,0,29,0,1,,,,,,,,,
293227,2022-10-04_08h51.41.106,vts_reward_expectancy,2022.2.4,MacIntel,60.0024001,Chrome,1440,900,,,,,0,977,,,,,,,,,,,,,,,,,H,174,star,0,1,,,,,,,,,,,,,,,,repeat,number,NA,j,0.5311,Hi,,,,,,3,,,,,,,,low,30,0,30,0,1,,,,,,,,,
293227,2022-10-04_08h51.41.106,vts_reward_expectancy,2022.2.4,MacIntel,60.0024001,Chrome,1440,900,,,,,0,977,,,,,,,,,,,,,,,,,S,160,triangle,0,1,,,,,,,,,,,,,,,,repeat,number,NA,j,0.529,Hi,,,,,,3,,,,,,,,low,31,0,31,0,1,,,,,,,,,
293227,2022-10-04_08h51.41.106,vts_reward_expectancy,2022.2.4,MacIntel,60.0024001,Chrome,1440,900,,,,,1,978,,,,,,,,,,,,,,,,,Y,174,hexagon,1,1,,,,,,,,,,,,,,,,switch,letter,lettSwt,f,0.5125,Lo,,,,,,4,,,,,,space,6.6032,high,0,0,0,0,1,,,,,,,,,
293227,2022-10-04_08h51.41.106,vts_reward_expectancy,2022.2.4,MacIntel,60.0024001,Chrome,1440,900,,,,,1,979,,,,,,,,,,,,,,,,,F,139,circle,1,0,,,,,,,,,,,,,,,,repeat,letter,lettRpt,d,0.4957,Hi,,,,,,4,,,,,,,,high,1,0,1,0,1,,,,,,,,,
293227,2022-10-04_08h51.41.106,vts_reward_expectancy,2022.2.4,MacIntel,60.0024001,Chrome,1440,900,,,,,1,980,,,,,,,,,,,,,,,,,S,167,hexagon,1,0,,,,,,,,,,,,,,,,repeat,letter,lettRpt,f,0.5873,Lo,,,,,,4,,,,,,,,high,2,0,2,0,1,,,,,,,,,
293227,2022-10-04_08h51.41.106,vts_reward_expectancy,2022.2.4,MacIntel,60.0024001,Chrome,1440,900,,,,,10,990,,,,,,,,,,,,,,,,,W,160,circle,1,0,,,,,,,,,,,,,,,,repeat,letter,lettRpt,f,0.4854,Hi,,,,,,4,,,,,,,,high,3,0,3,0,1,,,,,,,,,
293227,2022-10-04_08h51.41.106,vts_reward_expectancy,2022.2.4,MacIntel,60.0024001,Chrome,1440,900,,,,,0,990,,,,,,,,,,,,,,,,,B,125,circle,1,0,,,,,,,,,,,,,,,,repeat,letter,lettRpt,d,0.5328,Hi,,,,,,4,,,,,,,,high,4,0,4,0,1,,,,,,,,,
293227,2022-10-04_08h51.41.106,vts_reward_expectancy,2022.2.4,MacIntel,60.0024001,Chrome,1440,900,,,,,1,991,,,,,,,,,,,,,,,,,U,181,hexagon,1,0,,,,,,,,,,,,,,,,switch,number,numSwt,k,0.5354,Lo,,,,,,4,,,,,,,,high,5,0,5,0,1,,,,,,,,,
293227,2022-10-04_08h51.41.106,vts_reward_expectancy,2022.2.4,MacIntel,60.0024001,Chrome,1440,900,,,,,0,991,,,,,,,,,,,,,,,,,H,132,circle,1,0,,,,,,,,,,,,,,,,repeat,number,numRpt,j,0.6041,Hi,,,,,,4,,,,,,,,high,6,0,6,0,1,,,,,,,,,
293227,2022-10-04_08h51.41.106,vts_reward_expectancy,2022.2.4,MacIntel,60.0024001,Chrome,1440,900,,,,,1,992,,,,,,,,,,,,,,,,,D,146,hexagon,1,0,,,,,,,,,,,,,,,,repeat,number,numRpt,j,0.4363,Lo,,,,,,4,,,,,,,,high,7,0,7,0,1,,,,,,,,,
293227,2022-10-04_08h51.41.106,vts_reward_expectancy,2022.2.4,MacIntel,60.0024001,Chrome,1440,900,,,,,1,993,,,,,,,,,,,,,,,,,Y,174,hexagon,1,0,,,,,,,,,,,,,,,,repeat,number,numRpt,k,0.6356,Lo,,,,,,4,,,,,,,,high,8,0,8,0,1,,,,,,,,,
293227,2022-10-04_08h51.41.106,vts_reward_expectancy,2022.2.4,MacIntel,60.0024001,Chrome,1440,900,,,,,0,993,,,,,,,,,,,,,,,,,F,139,circle,1,0,,,,,,,,,,,,,,,,repeat,number,numRpt,j,0.6148,Hi,,,,,,4,,,,,,,,high,9,0,9,0,1,,,,,,,,,
293227,2022-10-04_08h51.41.106,vts_reward_expectancy,2022.2.4,MacIntel,60.0024001,Chrome,1440,900,,,,,1,994,,,,,,,,,,,,,,,,,S,167,hexagon,1,0,,,,,,,,,,,,,,,,repeat,number,numRpt,k,0.5306,Lo,,,,,,4,,,,,,,,high,10,0,10,0,1,,,,,,,,,
293227,2022-10-04_08h51.41.106,vts_reward_expectancy,2022.2.4,MacIntel,60.0024001,Chrome,1440,900,,,,,10,1004,,,,,,,,,,,,,,,,,W,160,circle,1,0,,,,,,,,,,,,,,,,switch,letter,lettSwt,f,0.4471,Hi,,,,,,4,,,,,,,,high,11,0,11,0,1,,,,,,,,,
293227,2022-10-04_08h51.41.106,vts_reward_expectancy,2022.2.4,MacIntel,60.0024001,Chrome,1440,900,,,,,1,1005,,,,,,,,,,,,,,,,,B,125,hexagon,1,0,,,,,,,,,,,,,,,,repeat,letter,lettRpt,d,0.6599,Lo,,,,,,4,,,,,,,,high,12,0,12,0,1,,,,,,,,,
293227,2022-10-04_08h51.41.106,vts_reward_expectancy,2022.2.4,MacIntel,60.0024001,Chrome,1440,900,,,,,0,1005,,,,,,,,,,,,,,,,,U,181,circle,1,0,,,,,,,,,,,,,,,,repeat,letter,lettRpt,f,0.55,Hi,,,,,,4,,,,,,,,high,13,0,13,0,1,,,,,,,,,
293227,2022-10-04_08h51.41.106,vts_reward_expectancy,2022.2.4,MacIntel,60.0024001,Chrome,1440,900,,,,,1,1006,,,,,,,,,,,,,,,,,H,132,hexagon,1,0,,,,,,,,,,,,,,,,repeat,letter,lettRpt,d,0.5918,Lo,,,,,,4,,,,,,,,high,14,0,14,0,1,,,,,,,,,
293227,2022-10-04_08h51.41.106,vts_reward_expectancy,2022.2.4,MacIntel,60.0024001,Chrome,1440,900,,,,,0,1006,,,,,,,,,,,,,,,,,D,146,circle,0,0,,,,,,,,,,,,,,,,repeat,letter,NA,f,0.5142,Lo,,,,,,4,,,,,,,,high,15,0,15,0,1,,,,,,,,,
293227,2022-10-04_08h51.41.106,vts_reward_expectancy,2022.2.4,MacIntel,60.0024001,Chrome,1440,900,,,,,1,1007,,,,,,,,,,,,,,,,,S,167,hexagon,1,1,,,,,,,,,,,,,,,,repeat,letter,lettRpt,f,0.6886,Lo,,,,,,4,,,,,,,,high,16,0,16,0,1,,,,,,,,,
293227,2022-10-04_08h51.41.106,vts_reward_expectancy,2022.2.4,MacIntel,60.0024001,Chrome,1440,900,,,,,0,1007,,,,,,,,,,,,,,,,,B,174,circle,1,0,,,,,,,,,,,,,,,,switch,number,numSwt,k,0.5662,Hi,,,,,,4,,,,,,,,high,17,0,17,0,1,,,,,,,,,
293227,2022-10-04_08h51.41.106,vts_reward_expectancy,2022.2.4,MacIntel,60.0024001,Chrome,1440,900,,,,,1,1008,,,,,,,,,,,,,,,,,F,181,hexagon,1,0,,,,,,,,,,,,,,,,repeat,number,numRpt,k,0.464,Lo,,,,,,4,,,,,,,,high,18,0,18,0,1,,,,,,,,,
293227,2022-10-04_08h51.41.106,vts_reward_expectancy,2022.2.4,MacIntel,60.0024001,Chrome,1440,900,,,,,0,1008,,,,,,,,,,,,,,,,,W,132,circle,1,0,,,,,,,,,,,,,,,,repeat,number,numRpt,j,0.6292,Hi,,,,,,4,,,,,,,,high,19,0,19,0,1,,,,,,,,,
293227,2022-10-04_08h51.41.106,vts_reward_expectancy,2022.2.4,MacIntel,60.0024001,Chrome,1440,900,,,,,1,1009,,,,,,,,,,,,,,,,,D,146,hexagon,1,0,,,,,,,,,,,,,,,,repeat,number,numRpt,j,0.3607,Lo,,,,,,4,,,,,,,,high,20,0,20,0,1,,,,,,,,,
293227,2022-10-04_08h51.41.106,vts_reward_expectancy,2022.2.4,MacIntel,60.0024001,Chrome,1440,900,,,,,0,1009,,,,,,,,,,,,,,,,,H,125,circle,0,0,,,,,,,,,,,,,,,,repeat,number,NA,k,0.2636,Lo,,,,,,4,,,,,,,,high,21,0,21,0,1,,,,,,,,,
293227,2022-10-04_08h51.41.106,vts_reward_expectancy,2022.2.4,MacIntel,60.0024001,Chrome,1440,900,,,,,1,1010,,,,,,,,,,,,,,,,,U,160,hexagon,1,1,,,,,,,,,,,,,,,,repeat,number,numRpt,k,0.5921,Lo,,,,,,4,,,,,,,,high,22,0,22,0,1,,,,,,,,,
293227,2022-10-04_08h51.41.106,vts_reward_expectancy,2022.2.4,MacIntel,60.0024001,Chrome,1440,900,,,,,10,1020,,,,,,,,,,,,,,,,,Y,139,circle,1,0,,,,,,,,,,,,,,,,repeat,number,numRpt,j,0.4137,Hi,,,,,,4,,,,,,,,high,23,0,23,0,1,,,,,,,,,
293227,2022-10-04_08h51.41.106,vts_reward_expectancy,2022.2.4,MacIntel,60.0024001,Chrome,1440,900,,,,,1,1021,,,,,,,,,,,,,,,,,H,139,circle,1,0,,,,,,,,,,,,,,,,repeat,number,numRpt,j,0.4303,Hi,,,,,,4,,,,,,,,high,24,0,24,0,1,,,,,,,,,
293227,2022-10-04_08h51.41.106,vts_reward_expectancy,2022.2.4,MacIntel,60.0024001,Chrome,1440,900,,,,,1,1022,,,,,,,,,,,,,,,,,U,160,hexagon,1,0,,,,,,,,,,,,,,,,repeat,number,numRpt,k,0.5266,Lo,,,,,,4,,,,,,,,high,25,0,25,0,1,,,,,,,,,
293227,2022-10-04_08h51.41.106,vts_reward_expectancy,2022.2.4,MacIntel,60.0024001,Chrome,1440,900,,,,,1,1023,,,,,,,,,,,,,,,,,F,174,hexagon,1,0,,,,,,,,,,,,,,,,switch,letter,lettSwt,d,0.5556,Lo,,,,,,4,,,,,,,,high,26,0,26,0,1,,,,,,,,,
293227,2022-10-04_08h51.41.106,vts_reward_expectancy,2022.2.4,MacIntel,60.0024001,Chrome,1440,900,,,,,0,1023,,,,,,,,,,,,,,,,,D,181,circle,1,0,,,,,,,,,,,,,,,,switch,number,numSwt,k,0.5598,Hi,,,,,,4,,,,,,,,high,27,0,27,0,1,,,,,,,,,
293227,2022-10-04_08h51.41.106,vts_reward_expectancy,2022.2.4,MacIntel,60.0024001,Chrome,1440,900,,,,,1,1024,,,,,,,,,,,,,,,,,S,132,circle,1,0,,,,,,,,,,,,,,,,switch,letter,lettSwt,f,0.3663,Hi,,,,,,4,,,,,,,,high,28,0,28,0,1,,,,,,,,,
293227,2022-10-04_08h51.41.106,vts_reward_expectancy,2022.2.4,MacIntel,60.0024001,Chrome,1440,900,,,,,0,1024,,,,,,,,,,,,,,,,,Y,146,hexagon,0,0,,,,,,,,,,,,,,,,repeat,letter,NA,d,0.5369,Hi,,,,,,4,,,,,,,,high,29,0,29,0,1,,,,,,,,,
293227,2022-10-04_08h51.41.106,vts_reward_expectancy,2022.2.4,MacIntel,60.0024001,Chrome,1440,900,,,,,10,1034,,,,,,,,,,,,,,,,,B,167,hexagon,1,1,,,,,,,,,,,,,,,,repeat,letter,lettRpt,d,0.5452,Lo,,,,,,4,,,,,,,,high,30,0,30,0,1,,,,,,,,,
293227,2022-10-04_08h51.41.106,vts_reward_expectancy,2022.2.4,MacIntel,60.0024001,Chrome,1440,900,,,,,0,1034,,,,,,,,,,,,,,,,,W,125,circle,1,0,,,,,,,,,,,,,,,,repeat,letter,lettRpt,f,0.504,Hi,,,,,,4,,,,,,,,high,31,0,31,0,1,,,,,,,,,
293227,2022-10-04_08h51.41.106,vts_reward_expectancy,2022.2.4,MacIntel,60.0024001,Chrome,1440,900,,,,,1,1035,,,,,,,,,,,,,,,,,F,139,triangle,1,0,,,,,,,,,,,,,,,,switch,number,numSwt,j,0.6706,Lo,,,,,,5,,,,,,space,5.1884,low,0,0,0,0,1,,,,,,,,,
293227,2022-10-04_08h51.41.106,vts_reward_expectancy,2022.2.4,MacIntel,60.0024001,Chrome,1440,900,,,,,0,1035,,,,,,,,,,,,,,,,,H,132,star,1,0,,,,,,,,,,,,,,,,repeat,number,numRpt,j,0.5177,Hi,,,,,,5,,,,,,,,low,1,0,1,0,1,,,,,,,,,
293227,2022-10-04_08h51.41.106,vts_reward_expectancy,2022.2.4,MacIntel,60.0024001,Chrome,1440,900,,,,,10,1045,,,,,,,,,,,,,,,,,D,125,triangle,1,0,,,,,,,,,,,,,,,,repeat,number,numRpt,j,0.6124,Lo,,,,,,5,,,,,,,,low,2,0,2,0,1,,,,,,,,,
293227,2022-10-04_08h51.41.106,vts_reward_expectancy,2022.2.4,MacIntel,60.0024001,Chrome,1440,900,,,,,0,1045,,,,,,,,,,,,,,,,,S,146,star,0,0,,,,,,,,,,,,,,,,repeat,number,NA,k,0.5139,Lo,,,,,,5,,,,,,,,low,3,0,3,0,1,,,,,,,,,
293227,2022-10-04_08h51.41.106,vts_reward_expectancy,2022.2.4,MacIntel,60.0024001,Chrome,1440,900,,,,,1,1046,,,,,,,,,,,,,,,,,W,181,triangle,1,1,,,,,,,,,,,,,,,,repeat,number,numRpt,k,0.5104,Lo,,,,,,5,,,,,,,,low,4,0,4,0,1,,,,,,,,,
293227,2022-10-04_08h51.41.106,vts_reward_expectancy,2022.2.4,MacIntel,60.0024001,Chrome,1440,900,,,,,0,1046,,,,,,,,,,,,,,,,,B,174,star,1,0,,,,,,,,,,,,,,,,switch,letter,lettSwt,d,0.5375,Hi,,,,,,5,,,,,,,,low,5,0,5,0,1,,,,,,,,,
293227,2022-10-04_08h51.41.106,vts_reward_expectancy,2022.2.4,MacIntel,60.0024001,Chrome,1440,900,,,,,0,1046,,,,,,,,,,,,,,,,,U,167,star,1,0,,,,,,,,,,,,,,,,repeat,letter,lettRpt,f,0.5811,Hi,,,,,,5,,,,,,,,low,6,0,6,0,1,,,,,,,,,
293227,2022-10-04_08h51.41.106,vts_reward_expectancy,2022.2.4,MacIntel,60.0024001,Chrome,1440,900,,,,,10,1056,,,,,,,,,,,,,,,,,Y,160,triangle,1,0,,,,,,,,,,,,,,,,repeat,letter,lettRpt,f,0.7445,Lo,,,,,,5,,,,,,,,low,7,0,7,0,1,,,,,,,,,
293227,2022-10-04_08h51.41.106,vts_reward_expectancy,2022.2.4,MacIntel,60.0024001,Chrome,1440,900,,,,,0,1056,,,,,,,,,,,,,,,,,F,139,triangle,0,0,,,,,,,,,,,,,,,,repeat,letter,NA,f,0.489,Lo,,,,,,5,,,,,,,,low,8,0,8,0,1,,,,,,,,,
293227,2022-10-04_08h51.41.106,vts_reward_expectancy,2022.2.4,MacIntel,60.0024001,Chrome,1440,900,,,,,10,1066,,,,,,,,,,,,,,,,,H,132,star,1,1,,,,,,,,,,,,,,,,switch,number,numSwt,j,0.4971,Hi,,,,,,5,,,,,,,,low,9,0,9,0,1,,,,,,,,,
293227,2022-10-04_08h51.41.106,vts_reward_expectancy,2022.2.4,MacIntel,60.0024001,Chrome,1440,900,,,,,10,1076,,,,,,,,,,,,,,,,,D,125,triangle,1,0,,,,,,,,,,,,,,,,repeat,number,numRpt,j,0.6102,Lo,,,,,,5,,,,,,,,low,10,0,10,0,1,,,,,,,,,
293227,2022-10-04_08h51.41.106,vts_reward_expectancy,2022.2.4,MacIntel,60.0024001,Chrome,1440,900,,,,,0,1076,,,,,,,,,,,,,,,,,S,146,star,1,0,,,,,,,,,,,,,,,,switch,letter,lettSwt,f,0.5966,Hi,,,,,,5,,,,,,,,low,11,0,11,0,1,,,,,,,,,
293227,2022-10-04_08h51.41.106,vts_reward_expectancy,2022.2.4,MacIntel,60.0024001,Chrome,1440,900,,,,,1,1077,,,,,,,,,,,,,,,,,W,181,triangle,1,0,,,,,,,,,,,,,,,,switch,number,numSwt,k,1.2256,Lo,,,,,,5,,,,,,,,low,12,0,12,0,1,,,,,,,,,
293227,2022-10-04_08h51.41.106,vts_reward_expectancy,2022.2.4,MacIntel,60.0024001,Chrome,1440,900,,,,,0,1077,,,,,,,,,,,,,,,,,B,174,star,0,0,,,,,,,,,,,,,,,,repeat,number,NA,j,0.6043,Lo,,,,,,5,,,,,,,,low,13,0,13,0,1,,,,,,,,,
293227,2022-10-04_08h51.41.106,vts_reward_expectancy,2022.2.4,MacIntel,60.0024001,Chrome,1440,900,,,,,1,1078,,,,,,,,,,,,,,,,,U,167,triangle,1,1,,,,,,,,,,,,,,,,repeat,number,numRpt,k,0.5295,Lo,,,,,,5,,,,,,,,low,14,0,14,0,1,,,,,,,,,
293227,2022-10-04_08h51.41.106,vts_reward_expectancy,2022.2.4,MacIntel,60.0024001,Chrome,1440,900,,,,,0,1078,,,,,,,,,,,,,,,,,Y,160,star,1,0,,,,,,,,,,,,,,,,switch,letter,lettSwt,f,0.5622,Hi,,,,,,5,,,,,,,,low,15,0,15,0,1,,,,,,,,,
293227,2022-10-04_08h51.41.106,vts_reward_expectancy,2022.2.4,MacIntel,60.0024001,Chrome,1440,900,,,,,1,1079,,,,,,,,,,,,,,,,,U,167,triangle,1,0,,,,,,,,,,,,,,,,repeat,letter,lettRpt,f,0.5615,Lo,,,,,,5,,,,,,,,low,16,0,16,0,1,,,,,,,,,
293227,2022-10-04_08h51.41.106,vts_reward_expectancy,2022.2.4,MacIntel,60.0024001,Chrome,1440,900,,,,,10,1089,,,,,,,,,,,,,,,,,Y,125,star,1,0,,,,,,,,,,,,,,,,repeat,letter,lettRpt,f,0.4521,Hi,,,,,,5,,,,,,,,low,17,0,17,0,1,,,,,,,,,
293227,2022-10-04_08h51.41.106,vts_reward_expectancy,2022.2.4,MacIntel,60.0024001,Chrome,1440,900,,,,,0,1089,,,,,,,,,,,,,,,,,D,146,star,1,0,,,,,,,,,,,,,,,,repeat,letter,lettRpt,d,0.5461,Hi,,,,,,5,,,,,,,,low,18,0,18,0,1,,,,,,,,,
293227,2022-10-04_08h51.41.106,vts_reward_expectancy,2022.2.4,MacIntel,60.0024001,Chrome,1440,900,,,,,1,1090,,,,,,,,,,,,,,,,,F,139,triangle,1,0,,,,,,,,,,,,,,,,repeat,letter,lettRpt,d,0.4645,Lo,,,,,,5,,,,,,,,low,19,0,19,0,1,,,,,,,,,
293227,2022-10-04_08h51.41.106,vts_reward_expectancy,2022.2.4,MacIntel,60.0024001,Chrome,1440,900,,,,,1,1091,,,,,,,,,,,,,,,,,W,160,star,1,0,,,,,,,,,,,,,,,,repeat,letter,lettRpt,f,0.4668,Hi,,,,,,5,,,,,,,,low,20,0,20,0,1,,,,,,,,,
293227,2022-10-04_08h51.41.106,vts_reward_expectancy,2022.2.4,MacIntel,60.0024001,Chrome,1440,900,,,,,1,1092,,,,,,,,,,,,,,,,,H,181,triangle,1,0,,,,,,,,,,,,,,,,switch,number,numSwt,k,0.4148,Lo,,,,,,5,,,,,,,,low,21,0,21,0,1,,,,,,,,,
293227,2022-10-04_08h51.41.106,vts_reward_expectancy,2022.2.4,MacIntel,60.0024001,Chrome,1440,900,,,,,0,1092,,,,,,,,,,,,,,,,,B,174,star,0,0,,,,,,,,,,,,,,,,repeat,number,NA,j,0.3977,Lo,,,,,,5,,,,,,,,low,22,0,22,0,1,,,,,,,,,
293227,2022-10-04_08h51.41.106,vts_reward_expectancy,2022.2.4,MacIntel,60.0024001,Chrome,1440,900,,,,,1,1093,,,,,,,,,,,,,,,,,S,132,triangle,1,1,,,,,,,,,,,,,,,,repeat,number,numRpt,j,0.3994,Lo,,,,,,5,,,,,,,,low,23,0,23,0,1,,,,,,,,,
293227,2022-10-04_08h51.41.106,vts_reward_expectancy,2022.2.4,MacIntel,60.0024001,Chrome,1440,900,,,,,1,1094,,,,,,,,,,,,,,,,,W,160,triangle,1,0,,,,,,,,,,,,,,,,switch,letter,lettSwt,f,0.4688,Lo,,,,,,5,,,,,,,,low,24,0,24,0,1,,,,,,,,,
293227,2022-10-04_08h51.41.106,vts_reward_expectancy,2022.2.4,MacIntel,60.0024001,Chrome,1440,900,,,,,10,1104,,,,,,,,,,,,,,,,,D,174,star,1,0,,,,,,,,,,,,,,,,repeat,letter,lettRpt,d,0.4508,Hi,,,,,,5,,,,,,,,low,25,0,25,0,1,,,,,,,,,
293227,2022-10-04_08h51.41.106,vts_reward_expectancy,2022.2.4,MacIntel,60.0024001,Chrome,1440,900,,,,,10,1114,,,,,,,,,,,,,,,,,U,146,triangle,1,0,,,,,,,,,,,,,,,,switch,number,numSwt,j,0.7528,Lo,,,,,,5,,,,,,,,low,26,0,26,0,1,,,,,,,,,
293227,2022-10-04_08h51.41.106,vts_reward_expectancy,2022.2.4,MacIntel,60.0024001,Chrome,1440,900,,,,,10,1124,,,,,,,,,,,,,,,,,S,167,star,1,0,,,,,,,,,,,,,,,,repeat,number,numRpt,k,0.4456,Hi,,,,,,5,,,,,,,,low,27,0,27,0,1,,,,,,,,,
293227,2022-10-04_08h51.41.106,vts_reward_expectancy,2022.2.4,MacIntel,60.0024001,Chrome,1440,900,,,,,0,1124,,,,,,,,,,,,,,,,,Y,181,star,1,0,,,,,,,,,,,,,,,,switch,letter,lettSwt,f,0.6966,Hi,,,,,,5,,,,,,,,low,28,0,28,0,1,,,,,,,,,
293227,2022-10-04_08h51.41.106,vts_reward_expectancy,2022.2.4,MacIntel,60.0024001,Chrome,1440,900,,,,,10,1134,,,,,,,,,,,,,,,,,B,125,triangle,1,0,,,,,,,,,,,,,,,,repeat,letter,lettRpt,d,0.5473,Lo,,,,,,5,,,,,,,,low,29,0,29,0,1,,,,,,,,,
293227,2022-10-04_08h51.41.106,vts_reward_expectancy,2022.2.4,MacIntel,60.0024001,Chrome,1440,900,,,,,0,1134,,,,,,,,,,,,,,,,,H,132,star,1,0,,,,,,,,,,,,,,,,switch,number,numSwt,j,0.5875,Hi,,,,,,5,,,,,,,,low,30,0,30,0,1,,,,,,,,,
293227,2022-10-04_08h51.41.106,vts_reward_expectancy,2022.2.4,MacIntel,60.0024001,Chrome,1440,900,,,,,0,1134,,,,,,,,,,,,,,,,,F,139,triangle,0,0,,,,,,,,,,,,,,,,repeat,number,NA,k,0.4137,Hi,,,,,,5,,,,,,,,low,31,0,31,0,1,,,,,,,,,
293227,2022-10-04_08h51.41.106,vts_reward_expectancy,2022.2.4,MacIntel,60.0024001,Chrome,1440,900,,,,,,,,,,,,,,,,,,,,,,,,,,,,,,,,,,,,,,,,,,,,,,,,,,,,,,6,,,,,,,,,,,,,,I was asked to select j for a number lower than 153 and k for a number higher than 153 and d for a letter in the beginning of the alphabet and f for a letter near the end of the alphabet. I was also trying to get the most points and do each letter and number question an even amount of times.,2,I was confused on whether to do a numbner od letter each turn,5,2,,2,1440,900
