participant,date,expName,psychopyVersion,OS,frameRate,browser,xResolution,yResolution,key_resp.keys,key_resp.rt,training_resp.keys,training_resp.rt,points_trial,points_cumul,trainBlock,training.thisRepN,training.thisTrialN,training.thisN,training.thisIndex,training.ran,LTriangleOpac,LCircleOpac,LHexagonOpac,LStarOpac,RTriangleOpac,RCircleOpac,RHexagonOpac,RStarOpac,LShape_ID,RShape_ID,curr_topStim,curr_bottStim,curr_shape,acc,E1,target_resp_prac1.keys,target_resp_prac1.rt,pracBlock,task1_prac_trials.thisRepN,task1_prac_trials.thisTrialN,task1_prac_trials.thisN,task1_prac_trials.thisIndex,task1_prac_trials.ran,target_resp_prac2.keys,task2_praac_trials.thisRepN,task2_praac_trials.thisTrialN,task2_praac_trials.thisN,task2_praac_trials.thisIndex,task2_praac_trials.ran,target_resp_prac2.rt,alt,task,condition,target_resp.keys,rewCond,vts_practice_trials.thisRepN,vts_practice_trials.thisTrialN,vts_practice_trials.thisN,vts_practice_trials.thisIndex,vts_practice_trials.ran,target_resp.rt,blockNum,trials_norew.thisRepN,trials_norew.thisTrialN,trials_norew.thisN,trials_norew.thisIndex,trials_norew.ran,key_resp_2.keys,key_resp_2.rt,rewExpect,trials_rew.thisRepN,trials_rew.thisTrialN,trials_rew.thisN,trials_rew.thisIndex,trials_rew.ran,Q1,Q2,Q2_text,Q3,Q4,Q5_text,Q5,xRes,yRes
293008,2022-09-26_21h14.26.572,vts_reward_expectancy,2022.2.4,MacIntel,60.0024001,Chrome,1440,900,,,,,,,,,,,,,,,,,,,,,,,,,,,,,,,,,,,,,,,,,,,,,,,,,,,,,,,,,,,,,,,,,,,,,,,,,,,,
293008,2022-09-26_21h14.26.572,vts_reward_expectancy,2022.2.4,MacIntel,60.0024001,Chrome,1440,900,space,22.9416,,,,,,,,,,,,,,,,,,,,,,,,,,,,,,,,,,,,,,,,,,,,,,,,,,,,,,,,,,,,,,,,,,,,,,,,,,
293008,2022-09-26_21h14.26.572,vts_reward_expectancy,2022.2.4,MacIntel,60.0024001,Chrome,1440,900,,,,,,,,,,,,,,,,,,,,,,,,,,,,,,,,,,,,,,,,,,,,,,,,,,,,,,,,,,,,,,,,,,,,,,,,,,,,
293008,2022-09-26_21h14.26.572,vts_reward_expectancy,2022.2.4,MacIntel,60.0024001,Chrome,1440,900,,,l,1.7115,1,1,0,0,0,0,11,1,0,0,0,1,0,0,1,0,star,hexagon,,,,,,,,,,,,,,,,,,,,,,,,,,,,,,,,,,,,,,,,,,,,,,,,,,,,,,
293008,2022-09-26_21h14.26.572,vts_reward_expectancy,2022.2.4,MacIntel,60.0024001,Chrome,1440,900,,,l,1.7477,10,11,0,0,1,1,5,1,0,1,0,0,0,0,0,1,circle,star,,,,,,,,,,,,,,,,,,,,,,,,,,,,,,,,,,,,,,,,,,,,,,,,,,,,,,
293008,2022-09-26_21h14.26.572,vts_reward_expectancy,2022.2.4,MacIntel,60.0024001,Chrome,1440,900,,,a,2.1685,1,12,0,0,2,2,6,1,0,0,1,0,1,0,0,0,hexagon,triangle,,,,,,,,,,,,,,,,,,,,,,,,,,,,,,,,,,,,,,,,,,,,,,,,,,,,,,
293008,2022-09-26_21h14.26.572,vts_reward_expectancy,2022.2.4,MacIntel,60.0024001,Chrome,1440,900,,,l,1.0876,1,13,0,0,3,3,3,1,0,1,0,0,1,0,0,0,circle,triangle,,,,,,,,,,,,,,,,,,,,,,,,,,,,,,,,,,,,,,,,,,,,,,,,,,,,,,
293008,2022-09-26_21h14.26.572,vts_reward_expectancy,2022.2.4,MacIntel,60.0024001,Chrome,1440,900,,,l,2.8399,10,23,0,0,4,4,2,1,1,0,0,0,0,0,0,1,triangle,star,,,,,,,,,,,,,,,,,,,,,,,,,,,,,,,,,,,,,,,,,,,,,,,,,,,,,,
293008,2022-09-26_21h14.26.572,vts_reward_expectancy,2022.2.4,MacIntel,60.0024001,Chrome,1440,900,,,a,2.6022,10,33,0,0,5,5,10,1,0,0,0,1,0,1,0,0,star ,circle,,,,,,,,,,,,,,,,,,,,,,,,,,,,,,,,,,,,,,,,,,,,,,,,,,,,,,
293008,2022-09-26_21h14.26.572,vts_reward_expectancy,2022.2.4,MacIntel,60.0024001,Chrome,1440,900,,,l,2.1844,10,43,0,0,6,6,8,1,0,0,1,0,0,0,0,1,hexagon,star,,,,,,,,,,,,,,,,,,,,,,,,,,,,,,,,,,,,,,,,,,,,,,,,,,,,,,
293008,2022-09-26_21h14.26.572,vts_reward_expectancy,2022.2.4,MacIntel,60.0024001,Chrome,1440,900,,,a,3.536,1,44,0,0,7,7,1,1,1,0,0,0,0,0,1,0,triangle,hexagon,,,,,,,,,,,,,,,,,,,,,,,,,,,,,,,,,,,,,,,,,,,,,,,,,,,,,,
293008,2022-09-26_21h14.26.572,vts_reward_expectancy,2022.2.4,MacIntel,60.0024001,Chrome,1440,900,,,l,8.1354,10,54,0,0,8,8,4,1,0,1,0,0,0,0,1,0,circle,hexagon,,,,,,,,,,,,,,,,,,,,,,,,,,,,,,,,,,,,,,,,,,,,,,,,,,,,,,
293008,2022-09-26_21h14.26.572,vts_reward_expectancy,2022.2.4,MacIntel,60.0024001,Chrome,1440,900,,,a,2.0989,10,64,0,0,9,9,0,1,1,0,0,0,0,1,0,0,triangle,circle,,,,,,,,,,,,,,,,,,,,,,,,,,,,,,,,,,,,,,,,,,,,,,,,,,,,,,
293008,2022-09-26_21h14.26.572,vts_reward_expectancy,2022.2.4,MacIntel,60.0024001,Chrome,1440,900,,,a,0.9911,1,65,0,0,10,10,9,1,0,0,0,1,1,0,0,0,star,triangle,,,,,,,,,,,,,,,,,,,,,,,,,,,,,,,,,,,,,,,,,,,,,,,,,,,,,,
293008,2022-09-26_21h14.26.572,vts_reward_expectancy,2022.2.4,MacIntel,60.0024001,Chrome,1440,900,,,a,1.5235,1,66,0,0,11,11,7,1,0,0,1,0,0,1,0,0,hexagon,circle,,,,,,,,,,,,,,,,,,,,,,,,,,,,,,,,,,,,,,,,,,,,,,,,,,,,,,
293008,2022-09-26_21h14.26.572,vts_reward_expectancy,2022.2.4,MacIntel,60.0024001,Chrome,1440,900,,,l,1.2667,10,76,0,1,0,12,5,1,0,1,0,0,0,0,0,1,circle,star,,,,,,,,,,,,,,,,,,,,,,,,,,,,,,,,,,,,,,,,,,,,,,,,,,,,,,
293008,2022-09-26_21h14.26.572,vts_reward_expectancy,2022.2.4,MacIntel,60.0024001,Chrome,1440,900,,,a,3.0501,10,86,0,1,1,13,10,1,0,0,0,1,0,1,0,0,star ,circle,,,,,,,,,,,,,,,,,,,,,,,,,,,,,,,,,,,,,,,,,,,,,,,,,,,,,,
293008,2022-09-26_21h14.26.572,vts_reward_expectancy,2022.2.4,MacIntel,60.0024001,Chrome,1440,900,,,a,0.5679,10,96,0,1,2,14,11,1,0,0,0,1,0,0,1,0,star,hexagon,,,,,,,,,,,,,,,,,,,,,,,,,,,,,,,,,,,,,,,,,,,,,,,,,,,,,,
293008,2022-09-26_21h14.26.572,vts_reward_expectancy,2022.2.4,MacIntel,60.0024001,Chrome,1440,900,,,l,0.967,10,106,0,1,3,15,2,1,1,0,0,0,0,0,0,1,triangle,star,,,,,,,,,,,,,,,,,,,,,,,,,,,,,,,,,,,,,,,,,,,,,,,,,,,,,,
293008,2022-09-26_21h14.26.572,vts_reward_expectancy,2022.2.4,MacIntel,60.0024001,Chrome,1440,900,,,l,0.7191,10,116,0,1,4,16,8,1,0,0,1,0,0,0,0,1,hexagon,star,,,,,,,,,,,,,,,,,,,,,,,,,,,,,,,,,,,,,,,,,,,,,,,,,,,,,,
293008,2022-09-26_21h14.26.572,vts_reward_expectancy,2022.2.4,MacIntel,60.0024001,Chrome,1440,900,,,l,2.5237,10,126,0,1,5,17,7,1,0,0,1,0,0,1,0,0,hexagon,circle,,,,,,,,,,,,,,,,,,,,,,,,,,,,,,,,,,,,,,,,,,,,,,,,,,,,,,
293008,2022-09-26_21h14.26.572,vts_reward_expectancy,2022.2.4,MacIntel,60.0024001,Chrome,1440,900,,,l,5.5012,1,127,0,1,6,18,3,1,0,1,0,0,1,0,0,0,circle,triangle,,,,,,,,,,,,,,,,,,,,,,,,,,,,,,,,,,,,,,,,,,,,,,,,,,,,,,
293008,2022-09-26_21h14.26.572,vts_reward_expectancy,2022.2.4,MacIntel,60.0024001,Chrome,1440,900,,,a,3.9033,1,128,0,1,7,19,6,1,0,0,1,0,1,0,0,0,hexagon,triangle,,,,,,,,,,,,,,,,,,,,,,,,,,,,,,,,,,,,,,,,,,,,,,,,,,,,,,
293008,2022-09-26_21h14.26.572,vts_reward_expectancy,2022.2.4,MacIntel,60.0024001,Chrome,1440,900,,,l,3.2327,1,129,0,1,8,20,0,1,1,0,0,0,0,1,0,0,triangle,circle,,,,,,,,,,,,,,,,,,,,,,,,,,,,,,,,,,,,,,,,,,,,,,,,,,,,,,
293008,2022-09-26_21h14.26.572,vts_reward_expectancy,2022.2.4,MacIntel,60.0024001,Chrome,1440,900,,,a,1.0416,10,139,0,1,9,21,9,1,0,0,0,1,1,0,0,0,star,triangle,,,,,,,,,,,,,,,,,,,,,,,,,,,,,,,,,,,,,,,,,,,,,,,,,,,,,,
293008,2022-09-26_21h14.26.572,vts_reward_expectancy,2022.2.4,MacIntel,60.0024001,Chrome,1440,900,,,l,1.2593,10,149,0,1,10,22,1,1,1,0,0,0,0,0,1,0,triangle,hexagon,,,,,,,,,,,,,,,,,,,,,,,,,,,,,,,,,,,,,,,,,,,,,,,,,,,,,,
293008,2022-09-26_21h14.26.572,vts_reward_expectancy,2022.2.4,MacIntel,60.0024001,Chrome,1440,900,,,l,2.9518,1,150,0,1,11,23,4,1,0,1,0,0,0,0,1,0,circle,hexagon,,,,,,,,,,,,,,,,,,,,,,,,,,,,,,,,,,,,,,,,,,,,,,,,,,,,,,
293008,2022-09-26_21h14.26.572,vts_reward_expectancy,2022.2.4,MacIntel,60.0024001,Chrome,1440,900,,,l,2.172,10,160,0,2,0,24,4,1,0,1,0,0,0,0,1,0,circle,hexagon,,,,,,,,,,,,,,,,,,,,,,,,,,,,,,,,,,,,,,,,,,,,,,,,,,,,,,
293008,2022-09-26_21h14.26.572,vts_reward_expectancy,2022.2.4,MacIntel,60.0024001,Chrome,1440,900,,,a,0.9675,10,170,0,2,1,25,10,1,0,0,0,1,0,1,0,0,star ,circle,,,,,,,,,,,,,,,,,,,,,,,,,,,,,,,,,,,,,,,,,,,,,,,,,,,,,,
293008,2022-09-26_21h14.26.572,vts_reward_expectancy,2022.2.4,MacIntel,60.0024001,Chrome,1440,900,,,a,3.6015,10,180,0,2,2,26,6,1,0,0,1,0,1,0,0,0,hexagon,triangle,,,,,,,,,,,,,,,,,,,,,,,,,,,,,,,,,,,,,,,,,,,,,,,,,,,,,,
293008,2022-09-26_21h14.26.572,vts_reward_expectancy,2022.2.4,MacIntel,60.0024001,Chrome,1440,900,,,a,2.2501,1,181,0,2,3,27,1,1,1,0,0,0,0,0,1,0,triangle,hexagon,,,,,,,,,,,,,,,,,,,,,,,,,,,,,,,,,,,,,,,,,,,,,,,,,,,,,,
293008,2022-09-26_21h14.26.572,vts_reward_expectancy,2022.2.4,MacIntel,60.0024001,Chrome,1440,900,,,a,0.1992,1,182,0,2,4,28,0,1,1,0,0,0,0,1,0,0,triangle,circle,,,,,,,,,,,,,,,,,,,,,,,,,,,,,,,,,,,,,,,,,,,,,,,,,,,,,,
293008,2022-09-26_21h14.26.572,vts_reward_expectancy,2022.2.4,MacIntel,60.0024001,Chrome,1440,900,,,a,0.8035,10,192,0,2,5,29,11,1,0,0,0,1,0,0,1,0,star,hexagon,,,,,,,,,,,,,,,,,,,,,,,,,,,,,,,,,,,,,,,,,,,,,,,,,,,,,,
293008,2022-09-26_21h14.26.572,vts_reward_expectancy,2022.2.4,MacIntel,60.0024001,Chrome,1440,900,,,a,0.739,10,202,0,2,6,30,9,1,0,0,0,1,1,0,0,0,star,triangle,,,,,,,,,,,,,,,,,,,,,,,,,,,,,,,,,,,,,,,,,,,,,,,,,,,,,,
293008,2022-09-26_21h14.26.572,vts_reward_expectancy,2022.2.4,MacIntel,60.0024001,Chrome,1440,900,,,l,1.0729,10,212,0,2,7,31,2,1,1,0,0,0,0,0,0,1,triangle,star,,,,,,,,,,,,,,,,,,,,,,,,,,,,,,,,,,,,,,,,,,,,,,,,,,,,,,
293008,2022-09-26_21h14.26.572,vts_reward_expectancy,2022.2.4,MacIntel,60.0024001,Chrome,1440,900,,,l,0.969,10,222,0,2,8,32,5,1,0,1,0,0,0,0,0,1,circle,star,,,,,,,,,,,,,,,,,,,,,,,,,,,,,,,,,,,,,,,,,,,,,,,,,,,,,,
293008,2022-09-26_21h14.26.572,vts_reward_expectancy,2022.2.4,MacIntel,60.0024001,Chrome,1440,900,,,l,0.6547,10,232,0,2,9,33,8,1,0,0,1,0,0,0,0,1,hexagon,star,,,,,,,,,,,,,,,,,,,,,,,,,,,,,,,,,,,,,,,,,,,,,,,,,,,,,,
293008,2022-09-26_21h14.26.572,vts_reward_expectancy,2022.2.4,MacIntel,60.0024001,Chrome,1440,900,,,l,1.859,1,233,0,2,10,34,7,1,0,0,1,0,0,1,0,0,hexagon,circle,,,,,,,,,,,,,,,,,,,,,,,,,,,,,,,,,,,,,,,,,,,,,,,,,,,,,,
293008,2022-09-26_21h14.26.572,vts_reward_expectancy,2022.2.4,MacIntel,60.0024001,Chrome,1440,900,,,l,1.1332,1,234,0,2,11,35,3,1,0,1,0,0,1,0,0,0,circle,triangle,,,,,,,,,,,,,,,,,,,,,,,,,,,,,,,,,,,,,,,,,,,,,,,,,,,,,,
293008,2022-09-26_21h14.26.572,vts_reward_expectancy,2022.2.4,MacIntel,60.0024001,Chrome,1440,900,,,a,1.1684,1,235,1,0,0,0,11,1,0,0,0,1,0,0,1,0,star,hexagon,,,,,,,,,,,,,,,,,,,,,,,,,,,,,,,,,,,,,,,,,,,,,,,,,,,,,,
293008,2022-09-26_21h14.26.572,vts_reward_expectancy,2022.2.4,MacIntel,60.0024001,Chrome,1440,900,,,l,2.1843,1,236,1,0,1,1,3,1,0,1,0,0,1,0,0,0,circle,triangle,,,,,,,,,,,,,,,,,,,,,,,,,,,,,,,,,,,,,,,,,,,,,,,,,,,,,,
293008,2022-09-26_21h14.26.572,vts_reward_expectancy,2022.2.4,MacIntel,60.0024001,Chrome,1440,900,,,a,1.5183,1,237,1,0,2,2,8,1,0,0,1,0,0,0,0,1,hexagon,star,,,,,,,,,,,,,,,,,,,,,,,,,,,,,,,,,,,,,,,,,,,,,,,,,,,,,,
293008,2022-09-26_21h14.26.572,vts_reward_expectancy,2022.2.4,MacIntel,60.0024001,Chrome,1440,900,,,l,0.3687,1,238,1,0,3,3,6,1,0,0,1,0,1,0,0,0,hexagon,triangle,,,,,,,,,,,,,,,,,,,,,,,,,,,,,,,,,,,,,,,,,,,,,,,,,,,,,,
293008,2022-09-26_21h14.26.572,vts_reward_expectancy,2022.2.4,MacIntel,60.0024001,Chrome,1440,900,,,a,0.3174,10,248,1,0,4,4,5,1,0,1,0,0,0,0,0,1,circle,star,,,,,,,,,,,,,,,,,,,,,,,,,,,,,,,,,,,,,,,,,,,,,,,,,,,,,,
293008,2022-09-26_21h14.26.572,vts_reward_expectancy,2022.2.4,MacIntel,60.0024001,Chrome,1440,900,,,a,1.6049,1,249,1,0,5,5,2,1,1,0,0,0,0,0,0,1,triangle,star,,,,,,,,,,,,,,,,,,,,,,,,,,,,,,,,,,,,,,,,,,,,,,,,,,,,,,
293008,2022-09-26_21h14.26.572,vts_reward_expectancy,2022.2.4,MacIntel,60.0024001,Chrome,1440,900,,,l,2.3995,1,250,1,0,6,6,4,1,0,1,0,0,0,0,1,0,circle,hexagon,,,,,,,,,,,,,,,,,,,,,,,,,,,,,,,,,,,,,,,,,,,,,,,,,,,,,,
293008,2022-09-26_21h14.26.572,vts_reward_expectancy,2022.2.4,MacIntel,60.0024001,Chrome,1440,900,,,a,0.3174,10,260,1,0,7,7,9,1,0,0,0,1,1,0,0,0,star,triangle,,,,,,,,,,,,,,,,,,,,,,,,,,,,,,,,,,,,,,,,,,,,,,,,,,,,,,
293008,2022-09-26_21h14.26.572,vts_reward_expectancy,2022.2.4,MacIntel,60.0024001,Chrome,1440,900,,,a,0.6497,1,261,1,0,8,8,0,1,1,0,0,0,0,1,0,0,triangle,circle,,,,,,,,,,,,,,,,,,,,,,,,,,,,,,,,,,,,,,,,,,,,,,,,,,,,,,
293008,2022-09-26_21h14.26.572,vts_reward_expectancy,2022.2.4,MacIntel,60.0024001,Chrome,1440,900,,,l,0.9404,10,271,1,0,9,9,1,1,1,0,0,0,0,0,1,0,triangle,hexagon,,,,,,,,,,,,,,,,,,,,,,,,,,,,,,,,,,,,,,,,,,,,,,,,,,,,,,
293008,2022-09-26_21h14.26.572,vts_reward_expectancy,2022.2.4,MacIntel,60.0024001,Chrome,1440,900,,,a,0.2727,10,281,1,0,10,10,10,1,0,0,0,1,0,1,0,0,star ,circle,,,,,,,,,,,,,,,,,,,,,,,,,,,,,,,,,,,,,,,,,,,,,,,,,,,,,,
293008,2022-09-26_21h14.26.572,vts_reward_expectancy,2022.2.4,MacIntel,60.0024001,Chrome,1440,900,,,l,0.0502,10,291,1,0,11,11,7,1,0,0,1,0,0,1,0,0,hexagon,circle,,,,,,,,,,,,,,,,,,,,,,,,,,,,,,,,,,,,,,,,,,,,,,,,,,,,,,
293008,2022-09-26_21h14.26.572,vts_reward_expectancy,2022.2.4,MacIntel,60.0024001,Chrome,1440,900,,,l,0.183,10,301,1,1,0,12,5,1,0,1,0,0,0,0,0,1,circle,star,,,,,,,,,,,,,,,,,,,,,,,,,,,,,,,,,,,,,,,,,,,,,,,,,,,,,,
293008,2022-09-26_21h14.26.572,vts_reward_expectancy,2022.2.4,MacIntel,60.0024001,Chrome,1440,900,,,a,0.4313,10,311,1,1,1,13,3,1,0,1,0,0,1,0,0,0,circle,triangle,,,,,,,,,,,,,,,,,,,,,,,,,,,,,,,,,,,,,,,,,,,,,,,,,,,,,,
293008,2022-09-26_21h14.26.572,vts_reward_expectancy,2022.2.4,MacIntel,60.0024001,Chrome,1440,900,,,l,0.2223,10,321,1,1,2,14,2,1,1,0,0,0,0,0,0,1,triangle,star,,,,,,,,,,,,,,,,,,,,,,,,,,,,,,,,,,,,,,,,,,,,,,,,,,,,,,
293008,2022-09-26_21h14.26.572,vts_reward_expectancy,2022.2.4,MacIntel,60.0024001,Chrome,1440,900,,,l,0.0199,10,331,1,1,3,15,8,1,0,0,1,0,0,0,0,1,hexagon,star,,,,,,,,,,,,,,,,,,,,,,,,,,,,,,,,,,,,,,,,,,,,,,,,,,,,,,
293008,2022-09-26_21h14.26.572,vts_reward_expectancy,2022.2.4,MacIntel,60.0024001,Chrome,1440,900,,,a,0.1358,10,341,1,1,4,16,9,1,0,0,0,1,1,0,0,0,star,triangle,,,,,,,,,,,,,,,,,,,,,,,,,,,,,,,,,,,,,,,,,,,,,,,,,,,,,,
293008,2022-09-26_21h14.26.572,vts_reward_expectancy,2022.2.4,MacIntel,60.0024001,Chrome,1440,900,,,l,0.1665,10,351,1,1,5,17,10,1,0,0,0,1,0,1,0,0,star ,circle,,,,,,,,,,,,,,,,,,,,,,,,,,,,,,,,,,,,,,,,,,,,,,,,,,,,,,
293008,2022-09-26_21h14.26.572,vts_reward_expectancy,2022.2.4,MacIntel,60.0024001,Chrome,1440,900,,,a,0.5485,10,361,1,1,6,18,4,1,0,1,0,0,0,0,1,0,circle,hexagon,,,,,,,,,,,,,,,,,,,,,,,,,,,,,,,,,,,,,,,,,,,,,,,,,,,,,,
293008,2022-09-26_21h14.26.572,vts_reward_expectancy,2022.2.4,MacIntel,60.0024001,Chrome,1440,900,,,a,0.1251,1,362,1,1,7,19,6,1,0,0,1,0,1,0,0,0,hexagon,triangle,,,,,,,,,,,,,,,,,,,,,,,,,,,,,,,,,,,,,,,,,,,,,,,,,,,,,,
293008,2022-09-26_21h14.26.572,vts_reward_expectancy,2022.2.4,MacIntel,60.0024001,Chrome,1440,900,,,a,0.3194,10,372,1,1,8,20,11,1,0,0,0,1,0,0,1,0,star,hexagon,,,,,,,,,,,,,,,,,,,,,,,,,,,,,,,,,,,,,,,,,,,,,,,,,,,,,,
293008,2022-09-26_21h14.26.572,vts_reward_expectancy,2022.2.4,MacIntel,60.0024001,Chrome,1440,900,,,l,0.3909,1,373,1,1,9,21,1,1,1,0,0,0,0,0,1,0,triangle,hexagon,,,,,,,,,,,,,,,,,,,,,,,,,,,,,,,,,,,,,,,,,,,,,,,,,,,,,,
293008,2022-09-26_21h14.26.572,vts_reward_expectancy,2022.2.4,MacIntel,60.0024001,Chrome,1440,900,,,a,0.9221,10,383,1,1,10,22,7,1,0,0,1,0,0,1,0,0,hexagon,circle,,,,,,,,,,,,,,,,,,,,,,,,,,,,,,,,,,,,,,,,,,,,,,,,,,,,,,
293008,2022-09-26_21h14.26.572,vts_reward_expectancy,2022.2.4,MacIntel,60.0024001,Chrome,1440,900,,,a,1.303,1,384,1,1,11,23,0,1,1,0,0,0,0,1,0,0,triangle,circle,,,,,,,,,,,,,,,,,,,,,,,,,,,,,,,,,,,,,,,,,,,,,,,,,,,,,,
293008,2022-09-26_21h14.26.572,vts_reward_expectancy,2022.2.4,MacIntel,60.0024001,Chrome,1440,900,,,l,0.2735,1,385,1,2,0,24,11,1,0,0,0,1,0,0,1,0,star,hexagon,,,,,,,,,,,,,,,,,,,,,,,,,,,,,,,,,,,,,,,,,,,,,,,,,,,,,,
293008,2022-09-26_21h14.26.572,vts_reward_expectancy,2022.2.4,MacIntel,60.0024001,Chrome,1440,900,,,l,0.3182,10,395,1,2,1,25,1,1,1,0,0,0,0,0,1,0,triangle,hexagon,,,,,,,,,,,,,,,,,,,,,,,,,,,,,,,,,,,,,,,,,,,,,,,,,,,,,,
293008,2022-09-26_21h14.26.572,vts_reward_expectancy,2022.2.4,MacIntel,60.0024001,Chrome,1440,900,,,a,2.6019,10,405,1,2,2,26,10,1,0,0,0,1,0,1,0,0,star ,circle,,,,,,,,,,,,,,,,,,,,,,,,,,,,,,,,,,,,,,,,,,,,,,,,,,,,,,
293008,2022-09-26_21h14.26.572,vts_reward_expectancy,2022.2.4,MacIntel,60.0024001,Chrome,1440,900,,,a,4.4864,1,406,1,2,3,27,8,1,0,0,1,0,0,0,0,1,hexagon,star,,,,,,,,,,,,,,,,,,,,,,,,,,,,,,,,,,,,,,,,,,,,,,,,,,,,,,
293008,2022-09-26_21h14.26.572,vts_reward_expectancy,2022.2.4,MacIntel,60.0024001,Chrome,1440,900,,,a,17.4242,1,407,1,2,4,28,2,1,1,0,0,0,0,0,0,1,triangle,star,,,,,,,,,,,,,,,,,,,,,,,,,,,,,,,,,,,,,,,,,,,,,,,,,,,,,,
293008,2022-09-26_21h14.26.572,vts_reward_expectancy,2022.2.4,MacIntel,60.0024001,Chrome,1440,900,,,a,0.8325,10,417,1,2,5,29,4,1,0,1,0,0,0,0,1,0,circle,hexagon,,,,,,,,,,,,,,,,,,,,,,,,,,,,,,,,,,,,,,,,,,,,,,,,,,,,,,
293008,2022-09-26_21h14.26.572,vts_reward_expectancy,2022.2.4,MacIntel,60.0024001,Chrome,1440,900,,,l,0.1323,1,418,1,2,6,30,0,1,1,0,0,0,0,1,0,0,triangle,circle,,,,,,,,,,,,,,,,,,,,,,,,,,,,,,,,,,,,,,,,,,,,,,,,,,,,,,
293008,2022-09-26_21h14.26.572,vts_reward_expectancy,2022.2.4,MacIntel,60.0024001,Chrome,1440,900,,,l,25.5067,1,419,1,2,7,31,9,1,0,0,0,1,1,0,0,0,star,triangle,,,,,,,,,,,,,,,,,,,,,,,,,,,,,,,,,,,,,,,,,,,,,,,,,,,,,,
293008,2022-09-26_21h14.26.572,vts_reward_expectancy,2022.2.4,MacIntel,60.0024001,Chrome,1440,900,,,a,1.0011,1,420,1,2,8,32,5,1,0,1,0,0,0,0,0,1,circle,star,,,,,,,,,,,,,,,,,,,,,,,,,,,,,,,,,,,,,,,,,,,,,,,,,,,,,,
293008,2022-09-26_21h14.26.572,vts_reward_expectancy,2022.2.4,MacIntel,60.0024001,Chrome,1440,900,,,a,5.309,10,430,1,2,9,33,6,1,0,0,1,0,1,0,0,0,hexagon,triangle,,,,,,,,,,,,,,,,,,,,,,,,,,,,,,,,,,,,,,,,,,,,,,,,,,,,,,
293008,2022-09-26_21h14.26.572,vts_reward_expectancy,2022.2.4,MacIntel,60.0024001,Chrome,1440,900,,,l,0.8746,1,431,1,2,10,34,7,1,0,0,1,0,0,1,0,0,hexagon,circle,,,,,,,,,,,,,,,,,,,,,,,,,,,,,,,,,,,,,,,,,,,,,,,,,,,,,,
293008,2022-09-26_21h14.26.572,vts_reward_expectancy,2022.2.4,MacIntel,60.0024001,Chrome,1440,900,,,l,0.1154,1,432,1,2,11,35,3,1,0,1,0,0,1,0,0,0,circle,triangle,,,,,,,,,,,,,,,,,,,,,,,,,,,,,,,,,,,,,,,,,,,,,,,,,,,,,,
293008,2022-09-26_21h14.26.572,vts_reward_expectancy,2022.2.4,MacIntel,60.0024001,Chrome,1440,900,,,a,0.7819,1,433,2,0,0,0,2,1,1,0,0,0,0,0,0,1,triangle,star,,,,,,,,,,,,,,,,,,,,,,,,,,,,,,,,,,,,,,,,,,,,,,,,,,,,,,
293008,2022-09-26_21h14.26.572,vts_reward_expectancy,2022.2.4,MacIntel,60.0024001,Chrome,1440,900,,,l,0.2994,1,434,2,0,1,1,7,1,0,0,1,0,0,1,0,0,hexagon,circle,,,,,,,,,,,,,,,,,,,,,,,,,,,,,,,,,,,,,,,,,,,,,,,,,,,,,,
293008,2022-09-26_21h14.26.572,vts_reward_expectancy,2022.2.4,MacIntel,60.0024001,Chrome,1440,900,,,a,0.0514,1,435,2,0,2,2,11,1,0,0,0,1,0,0,1,0,star,hexagon,,,,,,,,,,,,,,,,,,,,,,,,,,,,,,,,,,,,,,,,,,,,,,,,,,,,,,
293008,2022-09-26_21h14.26.572,vts_reward_expectancy,2022.2.4,MacIntel,60.0024001,Chrome,1440,900,,,l,0.2485,10,445,2,0,3,3,4,1,0,1,0,0,0,0,1,0,circle,hexagon,,,,,,,,,,,,,,,,,,,,,,,,,,,,,,,,,,,,,,,,,,,,,,,,,,,,,,
293008,2022-09-26_21h14.26.572,vts_reward_expectancy,2022.2.4,MacIntel,60.0024001,Chrome,1440,900,,,a,0.1189,1,446,2,0,4,4,1,1,1,0,0,0,0,0,1,0,triangle,hexagon,,,,,,,,,,,,,,,,,,,,,,,,,,,,,,,,,,,,,,,,,,,,,,,,,,,,,,
293008,2022-09-26_21h14.26.572,vts_reward_expectancy,2022.2.4,MacIntel,60.0024001,Chrome,1440,900,,,l,0.3855,1,447,2,0,5,5,3,1,0,1,0,0,1,0,0,0,circle,triangle,,,,,,,,,,,,,,,,,,,,,,,,,,,,,,,,,,,,,,,,,,,,,,,,,,,,,,
293008,2022-09-26_21h14.26.572,vts_reward_expectancy,2022.2.4,MacIntel,60.0024001,Chrome,1440,900,,,l,0.1197,1,448,2,0,6,6,10,1,0,0,0,1,0,1,0,0,star ,circle,,,,,,,,,,,,,,,,,,,,,,,,,,,,,,,,,,,,,,,,,,,,,,,,,,,,,,
293008,2022-09-26_21h14.26.572,vts_reward_expectancy,2022.2.4,MacIntel,60.0024001,Chrome,1440,900,,,a,0.2999,1,449,2,0,7,7,0,1,1,0,0,0,0,1,0,0,triangle,circle,,,,,,,,,,,,,,,,,,,,,,,,,,,,,,,,,,,,,,,,,,,,,,,,,,,,,,
293008,2022-09-26_21h14.26.572,vts_reward_expectancy,2022.2.4,MacIntel,60.0024001,Chrome,1440,900,,,a,0.6193,10,459,2,0,8,8,6,1,0,0,1,0,1,0,0,0,hexagon,triangle,,,,,,,,,,,,,,,,,,,,,,,,,,,,,,,,,,,,,,,,,,,,,,,,,,,,,,
293008,2022-09-26_21h14.26.572,vts_reward_expectancy,2022.2.4,MacIntel,60.0024001,Chrome,1440,900,,,l,0.3551,10,469,2,0,9,9,9,1,0,0,0,1,1,0,0,0,star,triangle,,,,,,,,,,,,,,,,,,,,,,,,,,,,,,,,,,,,,,,,,,,,,,,,,,,,,,
293008,2022-09-26_21h14.26.572,vts_reward_expectancy,2022.2.4,MacIntel,60.0024001,Chrome,1440,900,,,l,0.2975,10,479,2,0,10,10,5,1,0,1,0,0,0,0,0,1,circle,star,,,,,,,,,,,,,,,,,,,,,,,,,,,,,,,,,,,,,,,,,,,,,,,,,,,,,,
293008,2022-09-26_21h14.26.572,vts_reward_expectancy,2022.2.4,MacIntel,60.0024001,Chrome,1440,900,,,a,0.3004,1,480,2,0,11,11,8,1,0,0,1,0,0,0,0,1,hexagon,star,,,,,,,,,,,,,,,,,,,,,,,,,,,,,,,,,,,,,,,,,,,,,,,,,,,,,,
293008,2022-09-26_21h14.26.572,vts_reward_expectancy,2022.2.4,MacIntel,60.0024001,Chrome,1440,900,,,l,5.5201,10,490,2,1,0,12,2,1,1,0,0,0,0,0,0,1,triangle,star,,,,,,,,,,,,,,,,,,,,,,,,,,,,,,,,,,,,,,,,,,,,,,,,,,,,,,
293008,2022-09-26_21h14.26.572,vts_reward_expectancy,2022.2.4,MacIntel,60.0024001,Chrome,1440,900,,,l,0.4648,10,500,2,1,1,13,0,1,1,0,0,0,0,1,0,0,triangle,circle,,,,,,,,,,,,,,,,,,,,,,,,,,,,,,,,,,,,,,,,,,,,,,,,,,,,,,
293008,2022-09-26_21h14.26.572,vts_reward_expectancy,2022.2.4,MacIntel,60.0024001,Chrome,1440,900,,,l,0.0386,1,501,2,1,2,14,4,1,0,1,0,0,0,0,1,0,circle,hexagon,,,,,,,,,,,,,,,,,,,,,,,,,,,,,,,,,,,,,,,,,,,,,,,,,,,,,,
293008,2022-09-26_21h14.26.572,vts_reward_expectancy,2022.2.4,MacIntel,60.0024001,Chrome,1440,900,,,a,0.9478,10,511,2,1,3,15,9,1,0,0,0,1,1,0,0,0,star,triangle,,,,,,,,,,,,,,,,,,,,,,,,,,,,,,,,,,,,,,,,,,,,,,,,,,,,,,
293008,2022-09-26_21h14.26.572,vts_reward_expectancy,2022.2.4,MacIntel,60.0024001,Chrome,1440,900,,,l,0.4181,1,512,2,1,4,16,8,1,0,0,1,0,0,0,0,1,hexagon,star,,,,,,,,,,,,,,,,,,,,,,,,,,,,,,,,,,,,,,,,,,,,,,,,,,,,,,
293008,2022-09-26_21h14.26.572,vts_reward_expectancy,2022.2.4,MacIntel,60.0024001,Chrome,1440,900,,,l,0.3003,1,513,2,1,5,17,10,1,0,0,0,1,0,1,0,0,star ,circle,,,,,,,,,,,,,,,,,,,,,,,,,,,,,,,,,,,,,,,,,,,,,,,,,,,,,,
293008,2022-09-26_21h14.26.572,vts_reward_expectancy,2022.2.4,MacIntel,60.0024001,Chrome,1440,900,,,l,0.0043,1,514,2,1,6,18,6,1,0,0,1,0,1,0,0,0,hexagon,triangle,,,,,,,,,,,,,,,,,,,,,,,,,,,,,,,,,,,,,,,,,,,,,,,,,,,,,,
293008,2022-09-26_21h14.26.572,vts_reward_expectancy,2022.2.4,MacIntel,60.0024001,Chrome,1440,900,,,l,0.0512,1,515,2,1,7,19,5,1,0,1,0,0,0,0,0,1,circle,star,,,,,,,,,,,,,,,,,,,,,,,,,,,,,,,,,,,,,,,,,,,,,,,,,,,,,,
293008,2022-09-26_21h14.26.572,vts_reward_expectancy,2022.2.4,MacIntel,60.0024001,Chrome,1440,900,,,a,0.0182,10,525,2,1,8,20,7,1,0,0,1,0,0,1,0,0,hexagon,circle,,,,,,,,,,,,,,,,,,,,,,,,,,,,,,,,,,,,,,,,,,,,,,,,,,,,,,
293008,2022-09-26_21h14.26.572,vts_reward_expectancy,2022.2.4,MacIntel,60.0024001,Chrome,1440,900,,,l,0.351,1,526,2,1,9,21,11,1,0,0,0,1,0,0,1,0,star,hexagon,,,,,,,,,,,,,,,,,,,,,,,,,,,,,,,,,,,,,,,,,,,,,,,,,,,,,,
293008,2022-09-26_21h14.26.572,vts_reward_expectancy,2022.2.4,MacIntel,60.0024001,Chrome,1440,900,,,a,0.3016,1,527,2,1,10,22,3,1,0,1,0,0,1,0,0,0,circle,triangle,,,,,,,,,,,,,,,,,,,,,,,,,,,,,,,,,,,,,,,,,,,,,,,,,,,,,,
293008,2022-09-26_21h14.26.572,vts_reward_expectancy,2022.2.4,MacIntel,60.0024001,Chrome,1440,900,,,l,0.6839,10,537,2,1,11,23,1,1,1,0,0,0,0,0,1,0,triangle,hexagon,,,,,,,,,,,,,,,,,,,,,,,,,,,,,,,,,,,,,,,,,,,,,,,,,,,,,,
293008,2022-09-26_21h14.26.572,vts_reward_expectancy,2022.2.4,MacIntel,60.0024001,Chrome,1440,900,,,a,0.7195,1,538,2,2,0,24,0,1,1,0,0,0,0,1,0,0,triangle,circle,,,,,,,,,,,,,,,,,,,,,,,,,,,,,,,,,,,,,,,,,,,,,,,,,,,,,,
293008,2022-09-26_21h14.26.572,vts_reward_expectancy,2022.2.4,MacIntel,60.0024001,Chrome,1440,900,,,l,0.6709,1,539,2,2,1,25,2,1,1,0,0,0,0,0,0,1,triangle,star,,,,,,,,,,,,,,,,,,,,,,,,,,,,,,,,,,,,,,,,,,,,,,,,,,,,,,
293008,2022-09-26_21h14.26.572,vts_reward_expectancy,2022.2.4,MacIntel,60.0024001,Chrome,1440,900,,,a,0.0657,1,540,2,2,2,26,4,1,0,1,0,0,0,0,1,0,circle,hexagon,,,,,,,,,,,,,,,,,,,,,,,,,,,,,,,,,,,,,,,,,,,,,,,,,,,,,,
293008,2022-09-26_21h14.26.572,vts_reward_expectancy,2022.2.4,MacIntel,60.0024001,Chrome,1440,900,,,l,0.3715,10,550,2,2,3,27,11,1,0,0,0,1,0,0,1,0,star,hexagon,,,,,,,,,,,,,,,,,,,,,,,,,,,,,,,,,,,,,,,,,,,,,,,,,,,,,,
293008,2022-09-26_21h14.26.572,vts_reward_expectancy,2022.2.4,MacIntel,60.0024001,Chrome,1440,900,,,a,0.5532,1,551,2,2,4,28,7,1,0,0,1,0,0,1,0,0,hexagon,circle,,,,,,,,,,,,,,,,,,,,,,,,,,,,,,,,,,,,,,,,,,,,,,,,,,,,,,
293008,2022-09-26_21h14.26.572,vts_reward_expectancy,2022.2.4,MacIntel,60.0024001,Chrome,1440,900,,,l,0.2249,1,552,2,2,5,29,3,1,0,1,0,0,1,0,0,0,circle,triangle,,,,,,,,,,,,,,,,,,,,,,,,,,,,,,,,,,,,,,,,,,,,,,,,,,,,,,
293008,2022-09-26_21h14.26.572,vts_reward_expectancy,2022.2.4,MacIntel,60.0024001,Chrome,1440,900,,,a,13.6191,10,562,2,2,6,30,9,1,0,0,0,1,1,0,0,0,star,triangle,,,,,,,,,,,,,,,,,,,,,,,,,,,,,,,,,,,,,,,,,,,,,,,,,,,,,,
293008,2022-09-26_21h14.26.572,vts_reward_expectancy,2022.2.4,MacIntel,60.0024001,Chrome,1440,900,,,l,0.5741,1,563,2,2,7,31,5,1,0,1,0,0,0,0,0,1,circle,star,,,,,,,,,,,,,,,,,,,,,,,,,,,,,,,,,,,,,,,,,,,,,,,,,,,,,,
293008,2022-09-26_21h14.26.572,vts_reward_expectancy,2022.2.4,MacIntel,60.0024001,Chrome,1440,900,,,a,0.3338,1,564,2,2,8,32,10,1,0,0,0,1,0,1,0,0,star ,circle,,,,,,,,,,,,,,,,,,,,,,,,,,,,,,,,,,,,,,,,,,,,,,,,,,,,,,
293008,2022-09-26_21h14.26.572,vts_reward_expectancy,2022.2.4,MacIntel,60.0024001,Chrome,1440,900,,,a,0.5031,10,574,2,2,9,33,8,1,0,0,1,0,0,0,0,1,hexagon,star,,,,,,,,,,,,,,,,,,,,,,,,,,,,,,,,,,,,,,,,,,,,,,,,,,,,,,
293008,2022-09-26_21h14.26.572,vts_reward_expectancy,2022.2.4,MacIntel,60.0024001,Chrome,1440,900,,,l,0.3867,10,584,2,2,10,34,6,1,0,0,1,0,1,0,0,0,hexagon,triangle,,,,,,,,,,,,,,,,,,,,,,,,,,,,,,,,,,,,,,,,,,,,,,,,,,,,,,
293008,2022-09-26_21h14.26.572,vts_reward_expectancy,2022.2.4,MacIntel,60.0024001,Chrome,1440,900,,,l,0.269,10,594,2,2,11,35,1,1,1,0,0,0,0,0,1,0,triangle,hexagon,,,,,,,,,,,,,,,,,,,,,,,,,,,,,,,,,,,,,,,,,,,,,,,,,,,,,,
293008,2022-09-26_21h14.26.572,vts_reward_expectancy,2022.2.4,MacIntel,60.0024001,Chrome,1440,900,,,,,,,,,,,,,,,,,,,,,,,125,H,hexagon,1,0,d,1.9132,0,0,0,0,0,1,,,,,,,,,,,,,,,,,,,,,,,,,,,,,,,,,,,,,,,,,
293008,2022-09-26_21h14.26.572,vts_reward_expectancy,2022.2.4,MacIntel,60.0024001,Chrome,1440,900,,,,,,,,,,,,,,,,,,,,,,,139,Y,circle,1,0,d,1.4313,0,1,0,1,0,1,,,,,,,,,,,,,,,,,,,,,,,,,,,,,,,,,,,,,,,,,
293008,2022-09-26_21h14.26.572,vts_reward_expectancy,2022.2.4,MacIntel,60.0024001,Chrome,1440,900,,,,,,,,,,,,,,,,,,,,,,,174,D,star,1,0,f,0.6167,0,2,0,2,0,1,,,,,,,,,,,,,,,,,,,,,,,,,,,,,,,,,,,,,,,,,
293008,2022-09-26_21h14.26.572,vts_reward_expectancy,2022.2.4,MacIntel,60.0024001,Chrome,1440,900,,,,,,,,,,,,,,,,,,,,,,,146,S,triangle,1,0,d,0.7381,0,3,0,3,0,1,,,,,,,,,,,,,,,,,,,,,,,,,,,,,,,,,,,,,,,,,
293008,2022-09-26_21h14.26.572,vts_reward_expectancy,2022.2.4,MacIntel,60.0024001,Chrome,1440,900,,,,,,,,,,,,,,,,,,,,,,,167,W,hexagon,0,0,d,0.954,0,4,0,4,0,1,,,,,,,,,,,,,,,,,,,,,,,,,,,,,,,,,,,,,,,,,
293008,2022-09-26_21h14.26.572,vts_reward_expectancy,2022.2.4,MacIntel,60.0024001,Chrome,1440,900,,,,,,,,,,,,,,,,,,,,,,,160,B,circle,0,1,d,0.7798,0,5,0,5,0,1,,,,,,,,,,,,,,,,,,,,,,,,,,,,,,,,,,,,,,,,,
293008,2022-09-26_21h14.26.572,vts_reward_expectancy,2022.2.4,MacIntel,60.0024001,Chrome,1440,900,,,,,,,,,,,,,,,,,,,,,,,132,F,star,1,1,d,0.9024,0,6,0,6,0,1,,,,,,,,,,,,,,,,,,,,,,,,,,,,,,,,,,,,,,,,,
293008,2022-09-26_21h14.26.572,vts_reward_expectancy,2022.2.4,MacIntel,60.0024001,Chrome,1440,900,,,,,,,,,,,,,,,,,,,,,,,181,U,triangle,1,0,f,0.7214,0,7,0,7,0,1,,,,,,,,,,,,,,,,,,,,,,,,,,,,,,,,,,,,,,,,,
293008,2022-09-26_21h14.26.572,vts_reward_expectancy,2022.2.4,MacIntel,60.0024001,Chrome,1440,900,,,,,,,,,,,,,,,,,,,,,,,125,H,triangle,1,0,d,0.6772,0,8,0,8,0,1,,,,,,,,,,,,,,,,,,,,,,,,,,,,,,,,,,,,,,,,,
293008,2022-09-26_21h14.26.572,vts_reward_expectancy,2022.2.4,MacIntel,60.0024001,Chrome,1440,900,,,,,,,,,,,,,,,,,,,,,,,139,Y,hexagon,1,0,d,0.9788,0,9,0,9,0,1,,,,,,,,,,,,,,,,,,,,,,,,,,,,,,,,,,,,,,,,,
293008,2022-09-26_21h14.26.572,vts_reward_expectancy,2022.2.4,MacIntel,60.0024001,Chrome,1440,900,,,,,,,,,,,,,,,,,,,,,,,139,U,hexagon,1,0,d,0.666,1,0,0,0,0,1,,,,,,,,,,,,,,,,,,,,,,,,,,,,,,,,,,,,,,,,,
293008,2022-09-26_21h14.26.572,vts_reward_expectancy,2022.2.4,MacIntel,60.0024001,Chrome,1440,900,,,,,,,,,,,,,,,,,,,,,,,167,Y,triangle,0,0,d,0.7487,1,1,0,1,0,1,,,,,,,,,,,,,,,,,,,,,,,,,,,,,,,,,,,,,,,,,
293008,2022-09-26_21h14.26.572,vts_reward_expectancy,2022.2.4,MacIntel,60.0024001,Chrome,1440,900,,,,,,,,,,,,,,,,,,,,,,,125,S,circle,1,1,d,0.6469,1,2,0,2,0,1,,,,,,,,,,,,,,,,,,,,,,,,,,,,,,,,,,,,,,,,,
293008,2022-09-26_21h14.26.572,vts_reward_expectancy,2022.2.4,MacIntel,60.0024001,Chrome,1440,900,,,,,,,,,,,,,,,,,,,,,,,146,H,star,1,0,d,2.2529,1,3,0,3,0,1,,,,,,,,,,,,,,,,,,,,,,,,,,,,,,,,,,,,,,,,,
293008,2022-09-26_21h14.26.572,vts_reward_expectancy,2022.2.4,MacIntel,60.0024001,Chrome,1440,900,,,,,,,,,,,,,,,,,,,,,,,174,B,hexagon,1,0,f,1.7259,1,4,0,4,0,1,,,,,,,,,,,,,,,,,,,,,,,,,,,,,,,,,,,,,,,,,
293008,2022-09-26_21h14.26.572,vts_reward_expectancy,2022.2.4,MacIntel,60.0024001,Chrome,1440,900,,,,,,,,,,,,,,,,,,,,,,,160,F,triangle,1,0,f,1.8624,1,5,0,5,0,1,,,,,,,,,,,,,,,,,,,,,,,,,,,,,,,,,,,,,,,,,
293008,2022-09-26_21h14.26.572,vts_reward_expectancy,2022.2.4,MacIntel,60.0024001,Chrome,1440,900,,,,,,,,,,,,,,,,,,,,,,,132,D,circle,1,0,d,1.1165,1,6,0,6,0,1,,,,,,,,,,,,,,,,,,,,,,,,,,,,,,,,,,,,,,,,,
293008,2022-09-26_21h14.26.572,vts_reward_expectancy,2022.2.4,MacIntel,60.0024001,Chrome,1440,900,,,,,,,,,,,,,,,,,,,,,,,181,W,star,1,0,f,0.9474,1,7,0,7,0,1,,,,,,,,,,,,,,,,,,,,,,,,,,,,,,,,,,,,,,,,,
293008,2022-09-26_21h14.26.572,vts_reward_expectancy,2022.2.4,MacIntel,60.0024001,Chrome,1440,900,,,,,,,,,,,,,,,,,,,,,,,139,U,hexagon,1,0,d,0.7931,1,8,0,8,0,1,,,,,,,,,,,,,,,,,,,,,,,,,,,,,,,,,,,,,,,,,
293008,2022-09-26_21h14.26.572,vts_reward_expectancy,2022.2.4,MacIntel,60.0024001,Chrome,1440,900,,,,,,,,,,,,,,,,,,,,,,,167,Y,circle,1,0,f,1.8134,1,9,0,9,0,1,,,,,,,,,,,,,,,,,,,,,,,,,,,,,,,,,,,,,,,,,
293008,2022-09-26_21h14.26.572,vts_reward_expectancy,2022.2.4,MacIntel,60.0024001,Chrome,1440,900,,,,,,,,,,,,,,,,,,,,,,,174,F,hexagon,0,0,,,2,,,,,,,0,0,0,0,1,,,,,,,,,,,,,,,,,,,,,,,,,,,,,,,,,,,
293008,2022-09-26_21h14.26.572,vts_reward_expectancy,2022.2.4,MacIntel,60.0024001,Chrome,1440,900,,,,,,,,,,,,,,,,,,,,,,,146,B,circle,2,1,,,2,,,,,,d,1,0,1,0,1,1.1303,,,,,,,,,,,,,,,,,,,,,,,,,,,,,,,,,,
293008,2022-09-26_21h14.26.572,vts_reward_expectancy,2022.2.4,MacIntel,60.0024001,Chrome,1440,900,,,,,,,,,,,,,,,,,,,,,,,132,Y,triangle,2,0,,,2,,,,,,f,2,0,2,0,1,0.9803,,,,,,,,,,,,,,,,,,,,,,,,,,,,,,,,,,
293008,2022-09-26_21h14.26.572,vts_reward_expectancy,2022.2.4,MacIntel,60.0024001,Chrome,1440,900,,,,,,,,,,,,,,,,,,,,,,,160,S,star,2,0,,,2,,,,,,d,3,0,3,0,1,0.2546,,,,,,,,,,,,,,,,,,,,,,,,,,,,,,,,,,
293008,2022-09-26_21h14.26.572,vts_reward_expectancy,2022.2.4,MacIntel,60.0024001,Chrome,1440,900,,,,,,,,,,,,,,,,,,,,,,,125,H,hexagon,2,0,,,2,,,,,,f,4,0,4,0,1,0.0285,,,,,,,,,,,,,,,,,,,,,,,,,,,,,,,,,,
293008,2022-09-26_21h14.26.572,vts_reward_expectancy,2022.2.4,MacIntel,60.0024001,Chrome,1440,900,,,,,,,,,,,,,,,,,,,,,,,181,W,circle,2,0,,,2,,,,,,f,5,0,5,0,1,0.2449,,,,,,,,,,,,,,,,,,,,,,,,,,,,,,,,,,
293008,2022-09-26_21h14.26.572,vts_reward_expectancy,2022.2.4,MacIntel,60.0024001,Chrome,1440,900,,,,,,,,,,,,,,,,,,,,,,,139,D,triangle,2,0,,,2,,,,,,f,6,0,6,0,1,0.414,,,,,,,,,,,,,,,,,,,,,,,,,,,,,,,,,,
293008,2022-09-26_21h14.26.572,vts_reward_expectancy,2022.2.4,MacIntel,60.0024001,Chrome,1440,900,,,,,,,,,,,,,,,,,,,,,,,167,U,star,0,0,,,2,,,,,,,7,0,7,0,1,,,,,,,,,,,,,,,,,,,,,,,,,,,,,,,,,,,
293008,2022-09-26_21h14.26.572,vts_reward_expectancy,2022.2.4,MacIntel,60.0024001,Chrome,1440,900,,,,,,,,,,,,,,,,,,,,,,,174,F,star,2,1,,,2,,,,,,f,8,0,8,0,1,2.7115,,,,,,,,,,,,,,,,,,,,,,,,,,,,,,,,,,
293008,2022-09-26_21h14.26.572,vts_reward_expectancy,2022.2.4,MacIntel,60.0024001,Chrome,1440,900,,,,,,,,,,,,,,,,,,,,,,,146,B,hexagon,0,0,,,2,,,,,,,9,0,9,0,1,,,,,,,,,,,,,,,,,,,,,,,,,,,,,,,,,,,
293008,2022-09-26_21h14.26.572,vts_reward_expectancy,2022.2.4,MacIntel,60.0024001,Chrome,1440,900,,,,,,,,,,,,,,,,,,,,,,,160,W,circle,1,1,,,3,,,,,,k,0,0,0,0,1,2.4819,,,,,,,,,,,,,,,,,,,,,,,,,,,,,,,,,,
293008,2022-09-26_21h14.26.572,vts_reward_expectancy,2022.2.4,MacIntel,60.0024001,Chrome,1440,900,,,,,,,,,,,,,,,,,,,,,,,132,F,triangle,1,0,,,3,,,,,,j,1,0,1,0,1,0.7003,,,,,,,,,,,,,,,,,,,,,,,,,,,,,,,,,,
293008,2022-09-26_21h14.26.572,vts_reward_expectancy,2022.2.4,MacIntel,60.0024001,Chrome,1440,900,,,,,,,,,,,,,,,,,,,,,,,146,Y,star,1,0,,,3,,,,,,k,2,0,2,0,1,0.813,,,,,,,,,,,,,,,,,,,,,,,,,,,,,,,,,,
293008,2022-09-26_21h14.26.572,vts_reward_expectancy,2022.2.4,MacIntel,60.0024001,Chrome,1440,900,,,,,,,,,,,,,,,,,,,,,,,125,U,hexagon,1,0,,,3,,,,,,k,3,0,3,0,1,0.8149,,,,,,,,,,,,,,,,,,,,,,,,,,,,,,,,,,
293008,2022-09-26_21h14.26.572,vts_reward_expectancy,2022.2.4,MacIntel,60.0024001,Chrome,1440,900,,,,,,,,,,,,,,,,,,,,,,,174,B,circle,1,0,,,3,,,,,,j,4,0,4,0,1,0.6885,,,,,,,,,,,,,,,,,,,,,,,,,,,,,,,,,,
293008,2022-09-26_21h14.26.572,vts_reward_expectancy,2022.2.4,MacIntel,60.0024001,Chrome,1440,900,,,,,,,,,,,,,,,,,,,,,,,139,S,triangle,1,0,,,3,,,,,,k,5,0,5,0,1,0.7974,,,,,,,,,,,,,,,,,,,,,,,,,,,,,,,,,,
293008,2022-09-26_21h14.26.572,vts_reward_expectancy,2022.2.4,MacIntel,60.0024001,Chrome,1440,900,,,,,,,,,,,,,,,,,,,,,,,167,H,star,1,0,,,3,,,,,,j,6,0,6,0,1,0.6962,,,,,,,,,,,,,,,,,,,,,,,,,,,,,,,,,,
293008,2022-09-26_21h14.26.572,vts_reward_expectancy,2022.2.4,MacIntel,60.0024001,Chrome,1440,900,,,,,,,,,,,,,,,,,,,,,,,181,D,hexagon,1,0,,,3,,,,,,j,7,0,7,0,1,0.8489,,,,,,,,,,,,,,,,,,,,,,,,,,,,,,,,,,
293008,2022-09-26_21h14.26.572,vts_reward_expectancy,2022.2.4,MacIntel,60.0024001,Chrome,1440,900,,,,,,,,,,,,,,,,,,,,,,,160,W,star,1,0,,,3,,,,,,k,8,0,8,0,1,0.5916,,,,,,,,,,,,,,,,,,,,,,,,,,,,,,,,,,
293008,2022-09-26_21h14.26.572,vts_reward_expectancy,2022.2.4,MacIntel,60.0024001,Chrome,1440,900,,,,,,,,,,,,,,,,,,,,,,,132,F,hexagon,1,0,,,3,,,,,,j,9,0,9,0,1,0.8339,,,,,,,,,,,,,,,,,,,,,,,,,,,,,,,,,,
293008,2022-09-26_21h14.26.572,vts_reward_expectancy,2022.2.4,MacIntel,60.0024001,Chrome,1440,900,,,,,0,594,,,,,,,,,,,,,,,,,181,B,circle,-1,0,,,4,,,,,,,,,,,,,-1,no_choice,NA,,vtsPrac,0,0,0,0,1,,,,,,,,,,,,,,,,,,,,,,,,
293008,2022-09-26_21h14.26.572,vts_reward_expectancy,2022.2.4,MacIntel,60.0024001,Chrome,1440,900,,,,,0,594,,,,,,,,,,,,,,,,,132,W,triangle,0,0,,,4,,,,,,,,,,,,,switch,letter,NA,j,vtsPrac,1,0,1,0,1,0.0808,,,,,,,,,,,,,,,,,,,,,,,
293008,2022-09-26_21h14.26.572,vts_reward_expectancy,2022.2.4,MacIntel,60.0024001,Chrome,1440,900,,,,,0,594,,,,,,,,,,,,,,,,,167,D,circle,1,1,,,4,,,,,,,,,,,,,repeat,letter,lettRpt,j,vtsPrac,2,0,2,0,1,0.8038,,,,,,,,,,,,,,,,,,,,,,,
293008,2022-09-26_21h14.26.572,vts_reward_expectancy,2022.2.4,MacIntel,60.0024001,Chrome,1440,900,,,,,0,594,,,,,,,,,,,,,,,,,139,U,triangle,0,0,,,4,,,,,,,,,,,,,repeat,letter,NA,j,vtsPrac,3,0,3,0,1,1.2987,,,,,,,,,,,,,,,,,,,,,,,
293008,2022-09-26_21h14.26.572,vts_reward_expectancy,2022.2.4,MacIntel,60.0024001,Chrome,1440,900,,,,,0,594,,,,,,,,,,,,,,,,,181,B,circle,0,1,,,4,,,,,,,,,,,,,repeat,letter,NA,k,vtsPrac,4,0,4,0,1,0.098,,,,,,,,,,,,,,,,,,,,,,,
293008,2022-09-26_21h14.26.572,vts_reward_expectancy,2022.2.4,MacIntel,60.0024001,Chrome,1440,900,,,,,0,594,,,,,,,,,,,,,,,,,132,W,star,1,1,,,4,,,,,,,,,,,,,repeat,letter,lettRpt,k,vtsPrac,5,0,5,0,1,0.0628,,,,,,,,,,,,,,,,,,,,,,,
293008,2022-09-26_21h14.26.572,vts_reward_expectancy,2022.2.4,MacIntel,60.0024001,Chrome,1440,900,,,,,0,594,,,,,,,,,,,,,,,,,167,D,circle,1,0,,,4,,,,,,,,,,,,,repeat,letter,lettRpt,j,vtsPrac,6,0,6,0,1,0.6792,,,,,,,,,,,,,,,,,,,,,,,
293008,2022-09-26_21h14.26.572,vts_reward_expectancy,2022.2.4,MacIntel,60.0024001,Chrome,1440,900,,,,,0,594,,,,,,,,,,,,,,,,,139,U,star,1,0,,,4,,,,,,,,,,,,,repeat,letter,lettRpt,k,vtsPrac,7,0,7,0,1,0.5319,,,,,,,,,,,,,,,,,,,,,,,
293008,2022-09-26_21h14.26.572,vts_reward_expectancy,2022.2.4,MacIntel,60.0024001,Chrome,1440,900,,,,,0,594,,,,,,,,,,,,,,,,,167,S,star,0,0,,,4,,,,,,,,,,,,,repeat,letter,NA,j,vtsPrac,8,0,8,0,1,0.1857,,,,,,,,,,,,,,,,,,,,,,,
293008,2022-09-26_21h14.26.572,vts_reward_expectancy,2022.2.4,MacIntel,60.0024001,Chrome,1440,900,,,,,0,594,,,,,,,,,,,,,,,,,174,W,circle,0,1,,,4,,,,,,,,,,,,,repeat,letter,NA,j,vtsPrac,9,0,9,0,1,0.6325,,,,,,,,,,,,,,,,,,,,,,,
293008,2022-09-26_21h14.26.572,vts_reward_expectancy,2022.2.4,MacIntel,60.0024001,Chrome,1440,900,,,,,0,594,,,,,,,,,,,,,,,,,146,Y,star,0,1,,,4,,,,,,,,,,,,,repeat,letter,NA,j,vtsPrac,10,0,10,0,1,0.0203,,,,,,,,,,,,,,,,,,,,,,,
293008,2022-09-26_21h14.26.572,vts_reward_expectancy,2022.2.4,MacIntel,60.0024001,Chrome,1440,900,,,,,0,594,,,,,,,,,,,,,,,,,125,D,circle,1,1,,,4,,,,,,,,,,,,,repeat,letter,lettRpt,j,vtsPrac,11,0,11,0,1,0.011,,,,,,,,,,,,,,,,,,,,,,,
293008,2022-09-26_21h14.26.572,vts_reward_expectancy,2022.2.4,MacIntel,60.0024001,Chrome,1440,900,,,,,0,594,,,,,,,,,,,,,,,,,146,D,triangle,1,0,,,4,,,,,,,,,,,,,repeat,letter,lettRpt,j,vtsPrac,12,0,12,0,1,2.3328,,,,,,,,,,,,,,,,,,,,,,,
293008,2022-09-26_21h14.26.572,vts_reward_expectancy,2022.2.4,MacIntel,60.0024001,Chrome,1440,900,,,,,0,594,,,,,,,,,,,,,,,,,160,S,hexagon,1,0,,,4,,,,,,,,,,,,,repeat,letter,lettRpt,k,vtsPrac,13,0,13,0,1,0.6702,,,,,,,,,,,,,,,,,,,,,,,
293008,2022-09-26_21h14.26.572,vts_reward_expectancy,2022.2.4,MacIntel,60.0024001,Chrome,1440,900,,,,,0,594,,,,,,,,,,,,,,,,,132,U,triangle,0,0,,,4,,,,,,,,,,,,,repeat,letter,NA,j,vtsPrac,14,0,14,0,1,0.8963,,,,,,,,,,,,,,,,,,,,,,,
293008,2022-09-26_21h14.26.572,vts_reward_expectancy,2022.2.4,MacIntel,60.0024001,Chrome,1440,900,,,,,0,594,,,,,,,,,,,,,,,,,181,W,star,0,1,,,4,,,,,,,,,,,,,repeat,letter,NA,j,vtsPrac,15,0,15,0,1,0.1194,,,,,,,,,,,,,,,,,,,,,,,
293008,2022-09-26_21h14.26.572,vts_reward_expectancy,2022.2.4,MacIntel,60.0024001,Chrome,1440,900,,,,,0,594,,,,,,,,,,,,,,,,,181,W,star,-1,1,,,5,,,,,,,,,,,,,switch,no_choice,NA,,vtsPrac,0,0,0,0,1,,,,,,,,,,,,,,,,,,,,,,,,
293008,2022-09-26_21h14.26.572,vts_reward_expectancy,2022.2.4,MacIntel,60.0024001,Chrome,1440,900,,,,,0,594,,,,,,,,,,,,,,,,,132,H,hexagon,1,0,,,5,,,,,,,,,,,,,switch,letter,lettSwt,j,vtsPrac,1,0,1,0,1,1.3318,,,,,,,,,,,,,,,,,,,,,,,
293008,2022-09-26_21h14.26.572,vts_reward_expectancy,2022.2.4,MacIntel,60.0024001,Chrome,1440,900,,,,,0,594,,,,,,,,,,,,,,,,,146,F,star,0,0,,,5,,,,,,,,,,,,,repeat,letter,NA,k,vtsPrac,2,0,2,0,1,1.0288,,,,,,,,,,,,,,,,,,,,,,,
293008,2022-09-26_21h14.26.572,vts_reward_expectancy,2022.2.4,MacIntel,60.0024001,Chrome,1440,900,,,,,0,594,,,,,,,,,,,,,,,,,125,D,hexagon,1,1,,,5,,,,,,,,,,,,,repeat,letter,lettRpt,j,vtsPrac,3,0,3,0,1,0.6978,,,,,,,,,,,,,,,,,,,,,,,
293008,2022-09-26_21h14.26.572,vts_reward_expectancy,2022.2.4,MacIntel,60.0024001,Chrome,1440,900,,,,,0,594,,,,,,,,,,,,,,,,,181,W,hexagon,1,0,,,5,,,,,,,,,,,,,switch,number,numSwt,f,vtsPrac,4,0,4,0,1,0.5762,,,,,,,,,,,,,,,,,,,,,,,
293008,2022-09-26_21h14.26.572,vts_reward_expectancy,2022.2.4,MacIntel,60.0024001,Chrome,1440,900,,,,,0,594,,,,,,,,,,,,,,,,,132,H,circle,1,0,,,5,,,,,,,,,,,,,repeat,number,numRpt,d,vtsPrac,5,0,5,0,1,0.7009,,,,,,,,,,,,,,,,,,,,,,,
293008,2022-09-26_21h14.26.572,vts_reward_expectancy,2022.2.4,MacIntel,60.0024001,Chrome,1440,900,,,,,0,594,,,,,,,,,,,,,,,,,146,F,triangle,1,0,,,5,,,,,,,,,,,,,switch,letter,lettSwt,j,vtsPrac,6,0,6,0,1,0.7447,,,,,,,,,,,,,,,,,,,,,,,
293008,2022-09-26_21h14.26.572,vts_reward_expectancy,2022.2.4,MacIntel,60.0024001,Chrome,1440,900,,,,,0,594,,,,,,,,,,,,,,,,,125,D,star,1,0,,,5,,,,,,,,,,,,,repeat,letter,lettRpt,j,vtsPrac,7,0,7,0,1,0.6198,,,,,,,,,,,,,,,,,,,,,,,
293008,2022-09-26_21h14.26.572,vts_reward_expectancy,2022.2.4,MacIntel,60.0024001,Chrome,1440,900,,,,,0,594,,,,,,,,,,,,,,,,,132,D,circle,1,0,,,5,,,,,,,,,,,,,repeat,letter,lettRpt,j,vtsPrac,8,0,8,0,1,0.7692,,,,,,,,,,,,,,,,,,,,,,,
293008,2022-09-26_21h14.26.572,vts_reward_expectancy,2022.2.4,MacIntel,60.0024001,Chrome,1440,900,,,,,0,594,,,,,,,,,,,,,,,,,139,S,hexagon,0,0,,,5,,,,,,,,,,,,,repeat,letter,NA,j,vtsPrac,9,0,9,0,1,0.6639,,,,,,,,,,,,,,,,,,,,,,,
293008,2022-09-26_21h14.26.572,vts_reward_expectancy,2022.2.4,MacIntel,60.0024001,Chrome,1440,900,,,,,0,594,,,,,,,,,,,,,,,,,181,Y,hexagon,1,1,,,5,,,,,,,,,,,,,switch,number,numSwt,f,vtsPrac,10,0,10,0,1,1.3542,,,,,,,,,,,,,,,,,,,,,,,
293008,2022-09-26_21h14.26.572,vts_reward_expectancy,2022.2.4,MacIntel,60.0024001,Chrome,1440,900,,,,,0,594,,,,,,,,,,,,,,,,,125,B,star,1,0,,,5,,,,,,,,,,,,,switch,letter,lettSwt,j,vtsPrac,11,0,11,0,1,1.1448,,,,,,,,,,,,,,,,,,,,,,,
293008,2022-09-26_21h14.26.572,vts_reward_expectancy,2022.2.4,MacIntel,60.0024001,Chrome,1440,900,,,,,0,594,,,,,,,,,,,,,,,,,167,U,hexagon,1,0,,,5,,,,,,,,,,,,,repeat,letter,lettRpt,k,vtsPrac,12,0,12,0,1,1.4287,,,,,,,,,,,,,,,,,,,,,,,
293008,2022-09-26_21h14.26.572,vts_reward_expectancy,2022.2.4,MacIntel,60.0024001,Chrome,1440,900,,,,,0,594,,,,,,,,,,,,,,,,,125,S,circle,0,0,,,5,,,,,,,,,,,,,repeat,letter,NA,j,vtsPrac,13,0,13,0,1,0.8315,,,,,,,,,,,,,,,,,,,,,,,
293008,2022-09-26_21h14.26.572,vts_reward_expectancy,2022.2.4,MacIntel,60.0024001,Chrome,1440,900,,,,,0,594,,,,,,,,,,,,,,,,,146,D,hexagon,1,1,,,5,,,,,,,,,,,,,repeat,letter,lettRpt,j,vtsPrac,14,0,14,0,1,1.3831,,,,,,,,,,,,,,,,,,,,,,,
293008,2022-09-26_21h14.26.572,vts_reward_expectancy,2022.2.4,MacIntel,60.0024001,Chrome,1440,900,,,,,0,594,,,,,,,,,,,,,,,,,139,H,star,1,0,,,5,,,,,,,,,,,,,repeat,letter,lettRpt,j,vtsPrac,15,0,15,0,1,1.2882,,,,,,,,,,,,,,,,,,,,,,,
293008,2022-09-26_21h14.26.572,vts_reward_expectancy,2022.2.4,MacIntel,60.0024001,Chrome,1440,900,,,,,0,594,,,,,,,,,,,,,,,,,125,B,hexagon,1,0,,,6,,,,,,,,,,,,,repeat,letter,lettRpt,j,vtsPrac,0,0,0,0,1,0.4633,,,,,,,,,,,,,,,,,,,,,,,
293008,2022-09-26_21h14.26.572,vts_reward_expectancy,2022.2.4,MacIntel,60.0024001,Chrome,1440,900,,,,,0,594,,,,,,,,,,,,,,,,,174,U,triangle,1,0,,,6,,,,,,,,,,,,,repeat,letter,lettRpt,k,vtsPrac,1,0,1,0,1,0.6823,,,,,,,,,,,,,,,,,,,,,,,
293008,2022-09-26_21h14.26.572,vts_reward_expectancy,2022.2.4,MacIntel,60.0024001,Chrome,1440,900,,,,,0,594,,,,,,,,,,,,,,,,,139,D,hexagon,1,0,,,6,,,,,,,,,,,,,repeat,letter,lettRpt,j,vtsPrac,2,0,2,0,1,0.8303,,,,,,,,,,,,,,,,,,,,,,,
293008,2022-09-26_21h14.26.572,vts_reward_expectancy,2022.2.4,MacIntel,60.0024001,Chrome,1440,900,,,,,0,594,,,,,,,,,,,,,,,,,132,H,triangle,0,0,,,6,,,,,,,,,,,,,switch,number,NA,f,vtsPrac,3,0,3,0,1,0.8137,,,,,,,,,,,,,,,,,,,,,,,
293008,2022-09-26_21h14.26.572,vts_reward_expectancy,2022.2.4,MacIntel,60.0024001,Chrome,1440,900,,,,,0,594,,,,,,,,,,,,,,,,,125,B,circle,1,1,,,6,,,,,,,,,,,,,switch,letter,lettSwt,j,vtsPrac,4,0,4,0,1,0.7526,,,,,,,,,,,,,,,,,,,,,,,
293008,2022-09-26_21h14.26.572,vts_reward_expectancy,2022.2.4,MacIntel,60.0024001,Chrome,1440,900,,,,,0,594,,,,,,,,,,,,,,,,,174,U,hexagon,1,0,,,6,,,,,,,,,,,,,switch,number,numSwt,f,vtsPrac,5,0,5,0,1,1.0648,,,,,,,,,,,,,,,,,,,,,,,
293008,2022-09-26_21h14.26.572,vts_reward_expectancy,2022.2.4,MacIntel,60.0024001,Chrome,1440,900,,,,,0,594,,,,,,,,,,,,,,,,,139,D,triangle,1,0,,,6,,,,,,,,,,,,,switch,letter,lettSwt,j,vtsPrac,6,0,6,0,1,0.9994,,,,,,,,,,,,,,,,,,,,,,,
293008,2022-09-26_21h14.26.572,vts_reward_expectancy,2022.2.4,MacIntel,60.0024001,Chrome,1440,900,,,,,0,594,,,,,,,,,,,,,,,,,132,H,hexagon,1,0,,,6,,,,,,,,,,,,,repeat,letter,lettRpt,j,vtsPrac,7,0,7,0,1,0.7807,,,,,,,,,,,,,,,,,,,,,,,
293008,2022-09-26_21h14.26.572,vts_reward_expectancy,2022.2.4,MacIntel,60.0024001,Chrome,1440,900,,,,,0,594,,,,,,,,,,,,,,,,,160,S,triangle,1,0,,,6,,,,,,,,,,,,,switch,number,numSwt,f,vtsPrac,8,0,8,0,1,1.0132,,,,,,,,,,,,,,,,,,,,,,,
293008,2022-09-26_21h14.26.572,vts_reward_expectancy,2022.2.4,MacIntel,60.0024001,Chrome,1440,900,,,,,0,594,,,,,,,,,,,,,,,,,125,B,circle,1,0,,,6,,,,,,,,,,,,,switch,letter,lettSwt,j,vtsPrac,9,0,9,0,1,0.863,,,,,,,,,,,,,,,,,,,,,,,
293008,2022-09-26_21h14.26.572,vts_reward_expectancy,2022.2.4,MacIntel,60.0024001,Chrome,1440,900,,,,,0,594,,,,,,,,,,,,,,,,,174,F,triangle,1,0,,,6,,,,,,,,,,,,,switch,number,numSwt,f,vtsPrac,10,0,10,0,1,2.5613,,,,,,,,,,,,,,,,,,,,,,,
293008,2022-09-26_21h14.26.572,vts_reward_expectancy,2022.2.4,MacIntel,60.0024001,Chrome,1440,900,,,,,0,594,,,,,,,,,,,,,,,,,132,U,star,0,0,,,6,,,,,,,,,,,,,switch,letter,NA,j,vtsPrac,11,0,11,0,1,1.6199,,,,,,,,,,,,,,,,,,,,,,,
293008,2022-09-26_21h14.26.572,vts_reward_expectancy,2022.2.4,MacIntel,60.0024001,Chrome,1440,900,,,,,0,594,,,,,,,,,,,,,,,,,146,F,circle,1,1,,,6,,,,,,,,,,,,,repeat,letter,lettRpt,j,vtsPrac,12,0,12,0,1,2.6467,,,,,,,,,,,,,,,,,,,,,,,
293008,2022-09-26_21h14.26.572,vts_reward_expectancy,2022.2.4,MacIntel,60.0024001,Chrome,1440,900,,,,,0,594,,,,,,,,,,,,,,,,,167,Y,triangle,1,0,,,6,,,,,,,,,,,,,switch,number,numSwt,f,vtsPrac,13,0,13,0,1,1.4292,,,,,,,,,,,,,,,,,,,,,,,
293008,2022-09-26_21h14.26.572,vts_reward_expectancy,2022.2.4,MacIntel,60.0024001,Chrome,1440,900,,,,,0,594,,,,,,,,,,,,,,,,,125,S,triangle,1,0,,,6,,,,,,,,,,,,,switch,letter,lettSwt,k,vtsPrac,14,0,14,0,1,2.4374,,,,,,,,,,,,,,,,,,,,,,,
293008,2022-09-26_21h14.26.572,vts_reward_expectancy,2022.2.4,MacIntel,60.0024001,Chrome,1440,900,,,,,0,594,,,,,,,,,,,,,,,,,160,U,star,1,0,,,6,,,,,,,,,,,,,repeat,letter,lettRpt,k,vtsPrac,15,0,15,0,1,2.6117,,,,,,,,,,,,,,,,,,,,,,,
293008,2022-09-26_21h14.26.572,vts_reward_expectancy,2022.2.4,MacIntel,60.0024001,Chrome,1440,900,,,,,,,,,,,,,,,,,,,,,,,,,,,,,,,,,,,,,,,,,,,,,,,,,,,,,,,,,,,,,,,,,,,,,,,,,,,,
293008,2022-09-26_21h14.26.572,vts_reward_expectancy,2022.2.4,MacIntel,60.0024001,Chrome,1440,900,,,,,,,,,,,,,,,,,,,,,,,,,,,,,,,,,,,,,,,,,,,,,,,,,,,,,,,,,,,,,,,,,,,,,,,,,,,,
293008,2022-09-26_21h14.26.572,vts_reward_expectancy,2022.2.4,MacIntel,60.0024001,Chrome,1440,900,,,,,0,594,,,,,,,,,,,,,,,,,139,W,hexagon,-1,0,,,,,,,,,,,,,,,,switch,no_choice,NA,,noRew,,,,,,,0,0,0,0,0,1,,,,,,,,,,,,,,,,,
293008,2022-09-26_21h14.26.572,vts_reward_expectancy,2022.2.4,MacIntel,60.0024001,Chrome,1440,900,,,,,0,594,,,,,,,,,,,,,,,,,167,D,circle,1,0,,,,,,,,,,,,,,,,switch,letter,lettSwt,j,noRew,,,,,,2.8801,0,1,0,1,0,1,,,,,,,,,,,,,,,,,
293008,2022-09-26_21h14.26.572,vts_reward_expectancy,2022.2.4,MacIntel,60.0024001,Chrome,1440,900,,,,,0,594,,,,,,,,,,,,,,,,,125,B,hexagon,1,0,,,,,,,,,,,,,,,,repeat,letter,lettRpt,j,noRew,,,,,,1.3522,0,2,0,2,0,1,,,,,,,,,,,,,,,,,
293008,2022-09-26_21h14.26.572,vts_reward_expectancy,2022.2.4,MacIntel,60.0024001,Chrome,1440,900,,,,,0,594,,,,,,,,,,,,,,,,,181,F,circle,1,0,,,,,,,,,,,,,,,,switch,number,numSwt,f,noRew,,,,,,2.8141,0,3,0,3,0,1,,,,,,,,,,,,,,,,,
293008,2022-09-26_21h14.26.572,vts_reward_expectancy,2022.2.4,MacIntel,60.0024001,Chrome,1440,900,,,,,0,594,,,,,,,,,,,,,,,,,139,W,triangle,1,0,,,,,,,,,,,,,,,,switch,letter,lettSwt,k,noRew,,,,,,2.4969,0,4,0,4,0,1,,,,,,,,,,,,,,,,,
293008,2022-09-26_21h14.26.572,vts_reward_expectancy,2022.2.4,MacIntel,60.0024001,Chrome,1440,900,,,,,0,594,,,,,,,,,,,,,,,,,167,D,star,-1,0,,,,,,,,,,,,,,,,switch,no_choice,NA,,noRew,,,,,,,0,5,0,5,0,1,,,,,,,,,,,,,,,,,
293008,2022-09-26_21h14.26.572,vts_reward_expectancy,2022.2.4,MacIntel,60.0024001,Chrome,1440,900,,,,,0,594,,,,,,,,,,,,,,,,,125,B,triangle,1,0,,,,,,,,,,,,,,,,switch,letter,lettSwt,j,noRew,,,,,,1.6301,0,6,0,6,0,1,,,,,,,,,,,,,,,,,
293008,2022-09-26_21h14.26.572,vts_reward_expectancy,2022.2.4,MacIntel,60.0024001,Chrome,1440,900,,,,,0,594,,,,,,,,,,,,,,,,,181,F,star,1,0,,,,,,,,,,,,,,,,repeat,letter,lettRpt,j,noRew,,,,,,2.5488,0,7,0,7,0,1,,,,,,,,,,,,,,,,,
293008,2022-09-26_21h14.26.572,vts_reward_expectancy,2022.2.4,MacIntel,60.0024001,Chrome,1440,900,,,,,0,594,,,,,,,,,,,,,,,,,167,F,circle,1,0,,,,,,,,,,,,,,,,switch,number,numSwt,f,noRew,,,,,,0.3003,0,8,0,8,0,1,,,,,,,,,,,,,,,,,
293008,2022-09-26_21h14.26.572,vts_reward_expectancy,2022.2.4,MacIntel,60.0024001,Chrome,1440,900,,,,,0,594,,,,,,,,,,,,,,,,,181,S,star,0,0,,,,,,,,,,,,,,,,repeat,number,NA,d,noRew,,,,,,0.2133,0,9,0,9,0,1,,,,,,,,,,,,,,,,,
293008,2022-09-26_21h14.26.572,vts_reward_expectancy,2022.2.4,MacIntel,60.0024001,Chrome,1440,900,,,,,0,594,,,,,,,,,,,,,,,,,125,W,circle,1,1,,,,,,,,,,,,,,,,switch,letter,lettSwt,k,noRew,,,,,,1.6801,0,10,0,10,0,1,,,,,,,,,,,,,,,,,
293008,2022-09-26_21h14.26.572,vts_reward_expectancy,2022.2.4,MacIntel,60.0024001,Chrome,1440,900,,,,,0,594,,,,,,,,,,,,,,,,,146,Y,triangle,1,0,,,,,,,,,,,,,,,,switch,number,numSwt,d,noRew,,,,,,1.461,0,11,0,11,0,1,,,,,,,,,,,,,,,,,
293008,2022-09-26_21h14.26.572,vts_reward_expectancy,2022.2.4,MacIntel,60.0024001,Chrome,1440,900,,,,,0,594,,,,,,,,,,,,,,,,,146,Y,circle,1,0,,,,,,,,,,,,,,,,repeat,number,numRpt,d,noRew,,,,,,2.486,0,12,0,12,0,1,,,,,,,,,,,,,,,,,
293008,2022-09-26_21h14.26.572,vts_reward_expectancy,2022.2.4,MacIntel,60.0024001,Chrome,1440,900,,,,,0,594,,,,,,,,,,,,,,,,,181,D,hexagon,-1,0,,,,,,,,,,,,,,,,switch,no_choice,NA,,noRew,,,,,,,0,13,0,13,0,1,,,,,,,,,,,,,,,,,
293008,2022-09-26_21h14.26.572,vts_reward_expectancy,2022.2.4,MacIntel,60.0024001,Chrome,1440,900,,,,,0,594,,,,,,,,,,,,,,,,,125,W,triangle,1,0,,,,,,,,,,,,,,,,switch,number,numSwt,d,noRew,,,,,,2.3834,0,14,0,14,0,1,,,,,,,,,,,,,,,,,
293008,2022-09-26_21h14.26.572,vts_reward_expectancy,2022.2.4,MacIntel,60.0024001,Chrome,1440,900,,,,,0,594,,,,,,,,,,,,,,,,,174,U,star,1,0,,,,,,,,,,,,,,,,repeat,number,numRpt,f,noRew,,,,,,2.8979,0,15,0,15,0,1,,,,,,,,,,,,,,,,,
293008,2022-09-26_21h14.26.572,vts_reward_expectancy,2022.2.4,MacIntel,60.0024001,Chrome,1440,900,,,,,0,594,,,,,,,,,,,,,,,,,174,S,star,1,0,,,,,,,,,,,,,,,,switch,letter,lettSwt,k,noRew,,,,,,2.4132,0,16,0,16,0,1,,,,,,,,,,,,,,,,,
293008,2022-09-26_21h14.26.572,vts_reward_expectancy,2022.2.4,MacIntel,60.0024001,Chrome,1440,900,,,,,0,594,,,,,,,,,,,,,,,,,160,F,triangle,1,0,,,,,,,,,,,,,,,,switch,number,numSwt,f,noRew,,,,,,1.5596,0,17,0,17,0,1,,,,,,,,,,,,,,,,,
293008,2022-09-26_21h14.26.572,vts_reward_expectancy,2022.2.4,MacIntel,60.0024001,Chrome,1440,900,,,,,0,594,,,,,,,,,,,,,,,,,167,B,triangle,0,0,,,,,,,,,,,,,,,,repeat,number,NA,d,noRew,,,,,,0.7979,0,18,0,18,0,1,,,,,,,,,,,,,,,,,
293008,2022-09-26_21h14.26.572,vts_reward_expectancy,2022.2.4,MacIntel,60.0024001,Chrome,1440,900,,,,,0,594,,,,,,,,,,,,,,,,,125,H,hexagon,-1,1,,,,,,,,,,,,,,,,switch,no_choice,NA,,noRew,,,,,,,0,19,0,19,0,1,,,,,,,,,,,,,,,,,
293008,2022-09-26_21h14.26.572,vts_reward_expectancy,2022.2.4,MacIntel,60.0024001,Chrome,1440,900,,,,,0,594,,,,,,,,,,,,,,,,,132,D,circle,1,0,,,,,,,,,,,,,,,,switch,number,numSwt,d,noRew,,,,,,0.8471,0,20,0,20,0,1,,,,,,,,,,,,,,,,,
293008,2022-09-26_21h14.26.572,vts_reward_expectancy,2022.2.4,MacIntel,60.0024001,Chrome,1440,900,,,,,0,594,,,,,,,,,,,,,,,,,167,Y,star,1,0,,,,,,,,,,,,,,,,repeat,number,numRpt,f,noRew,,,,,,1.5657,0,21,0,21,0,1,,,,,,,,,,,,,,,,,
293008,2022-09-26_21h14.26.572,vts_reward_expectancy,2022.2.4,MacIntel,60.0024001,Chrome,1440,900,,,,,0,594,,,,,,,,,,,,,,,,,146,B,star,1,0,,,,,,,,,,,,,,,,switch,letter,lettSwt,j,noRew,,,,,,0.8013,0,22,0,22,0,1,,,,,,,,,,,,,,,,,
293008,2022-09-26_21h14.26.572,vts_reward_expectancy,2022.2.4,MacIntel,60.0024001,Chrome,1440,900,,,,,0,594,,,,,,,,,,,,,,,,,139,F,triangle,1,0,,,,,,,,,,,,,,,,switch,number,numSwt,d,noRew,,,,,,1.1464,0,23,0,23,0,1,,,,,,,,,,,,,,,,,
293008,2022-09-26_21h14.26.572,vts_reward_expectancy,2022.2.4,MacIntel,60.0024001,Chrome,1440,900,,,,,0,594,,,,,,,,,,,,,,,,,125,D,triangle,1,0,,,,,,,,,,,,,,,,switch,letter,lettSwt,j,noRew,,,,,,0.7143,0,24,0,24,0,1,,,,,,,,,,,,,,,,,
293008,2022-09-26_21h14.26.572,vts_reward_expectancy,2022.2.4,MacIntel,60.0024001,Chrome,1440,900,,,,,0,594,,,,,,,,,,,,,,,,,167,W,star,1,0,,,,,,,,,,,,,,,,switch,number,numSwt,f,noRew,,,,,,2.1293,0,25,0,25,0,1,,,,,,,,,,,,,,,,,
293008,2022-09-26_21h14.26.572,vts_reward_expectancy,2022.2.4,MacIntel,60.0024001,Chrome,1440,900,,,,,0,594,,,,,,,,,,,,,,,,,160,U,triangle,1,0,,,,,,,,,,,,,,,,switch,letter,lettSwt,k,noRew,,,,,,2.1967,0,26,0,26,0,1,,,,,,,,,,,,,,,,,
293008,2022-09-26_21h14.26.572,vts_reward_expectancy,2022.2.4,MacIntel,60.0024001,Chrome,1440,900,,,,,0,594,,,,,,,,,,,,,,,,,139,Y,circle,1,0,,,,,,,,,,,,,,,,switch,number,numSwt,d,noRew,,,,,,2.4459,0,27,0,27,0,1,,,,,,,,,,,,,,,,,
293008,2022-09-26_21h14.26.572,vts_reward_expectancy,2022.2.4,MacIntel,60.0024001,Chrome,1440,900,,,,,0,594,,,,,,,,,,,,,,,,,160,S,circle,1,0,,,,,,,,,,,,,,,,switch,letter,lettSwt,k,noRew,,,,,,1.7991,0,28,0,28,0,1,,,,,,,,,,,,,,,,,
293008,2022-09-26_21h14.26.572,vts_reward_expectancy,2022.2.4,MacIntel,60.0024001,Chrome,1440,900,,,,,0,594,,,,,,,,,,,,,,,,,132,B,triangle,1,0,,,,,,,,,,,,,,,,repeat,letter,lettRpt,j,noRew,,,,,,1.1199,0,29,0,29,0,1,,,,,,,,,,,,,,,,,
293008,2022-09-26_21h14.26.572,vts_reward_expectancy,2022.2.4,MacIntel,60.0024001,Chrome,1440,900,,,,,0,594,,,,,,,,,,,,,,,,,167,H,circle,1,0,,,,,,,,,,,,,,,,switch,number,numSwt,f,noRew,,,,,,1.9527,0,30,0,30,0,1,,,,,,,,,,,,,,,,,
293008,2022-09-26_21h14.26.572,vts_reward_expectancy,2022.2.4,MacIntel,60.0024001,Chrome,1440,900,,,,,0,594,,,,,,,,,,,,,,,,,181,U,star,1,0,,,,,,,,,,,,,,,,repeat,number,numRpt,f,noRew,,,,,,2.0782,0,31,0,31,0,1,,,,,,,,,,,,,,,,,
293008,2022-09-26_21h14.26.572,vts_reward_expectancy,2022.2.4,MacIntel,60.0024001,Chrome,1440,900,,,,,0,594,,,,,,,,,,,,,,,,,125,U,star,0,0,,,,,,,,,,,,,,,,switch,letter,NA,j,noRew,,,,,,1.547,0,32,0,32,0,1,,,,,,,,,,,,,,,,,
293008,2022-09-26_21h14.26.572,vts_reward_expectancy,2022.2.4,MacIntel,60.0024001,Chrome,1440,900,,,,,0,594,,,,,,,,,,,,,,,,,139,W,hexagon,1,1,,,,,,,,,,,,,,,,repeat,letter,lettRpt,k,noRew,,,,,,1.8509,0,33,0,33,0,1,,,,,,,,,,,,,,,,,
293008,2022-09-26_21h14.26.572,vts_reward_expectancy,2022.2.4,MacIntel,60.0024001,Chrome,1440,900,,,,,0,594,,,,,,,,,,,,,,,,,146,B,circle,1,0,,,,,,,,,,,,,,,,repeat,letter,lettRpt,j,noRew,,,,,,1.6008,0,34,0,34,0,1,,,,,,,,,,,,,,,,,
293008,2022-09-26_21h14.26.572,vts_reward_expectancy,2022.2.4,MacIntel,60.0024001,Chrome,1440,900,,,,,0,594,,,,,,,,,,,,,,,,,160,S,hexagon,1,0,,,,,,,,,,,,,,,,switch,number,numSwt,f,noRew,,,,,,2.0876,0,35,0,35,0,1,,,,,,,,,,,,,,,,,
293008,2022-09-26_21h14.26.572,vts_reward_expectancy,2022.2.4,MacIntel,60.0024001,Chrome,1440,900,,,,,0,594,,,,,,,,,,,,,,,,,146,D,circle,1,0,,,,,,,,,,,,,,,,repeat,number,numRpt,d,noRew,,,,,,1.5986,0,36,0,36,0,1,,,,,,,,,,,,,,,,,
293008,2022-09-26_21h14.26.572,vts_reward_expectancy,2022.2.4,MacIntel,60.0024001,Chrome,1440,900,,,,,0,594,,,,,,,,,,,,,,,,,160,Y,triangle,1,0,,,,,,,,,,,,,,,,switch,letter,lettSwt,k,noRew,,,,,,1.2316,0,37,0,37,0,1,,,,,,,,,,,,,,,,,
293008,2022-09-26_21h14.26.572,vts_reward_expectancy,2022.2.4,MacIntel,60.0024001,Chrome,1440,900,,,,,0,594,,,,,,,,,,,,,,,,,181,F,star,1,0,,,,,,,,,,,,,,,,repeat,letter,lettRpt,j,noRew,,,,,,2.565,0,38,0,38,0,1,,,,,,,,,,,,,,,,,
293008,2022-09-26_21h14.26.572,vts_reward_expectancy,2022.2.4,MacIntel,60.0024001,Chrome,1440,900,,,,,0,594,,,,,,,,,,,,,,,,,139,S,hexagon,-1,0,,,,,,,,,,,,,,,,switch,no_choice,NA,,noRew,,,,,,,0,39,0,39,0,1,,,,,,,,,,,,,,,,,
293008,2022-09-26_21h14.26.572,vts_reward_expectancy,2022.2.4,MacIntel,60.0024001,Chrome,1440,900,,,,,0,594,,,,,,,,,,,,,,,,,146,H,star,1,0,,,,,,,,,,,,,,,,switch,letter,lettSwt,j,noRew,,,,,,1.2577,0,40,0,40,0,1,,,,,,,,,,,,,,,,,
293008,2022-09-26_21h14.26.572,vts_reward_expectancy,2022.2.4,MacIntel,60.0024001,Chrome,1440,900,,,,,0,594,,,,,,,,,,,,,,,,,181,S,hexagon,1,0,,,,,,,,,,,,,,,,repeat,letter,lettRpt,k,noRew,,,,,,1.4001,0,41,0,41,0,1,,,,,,,,,,,,,,,,,
293008,2022-09-26_21h14.26.572,vts_reward_expectancy,2022.2.4,MacIntel,60.0024001,Chrome,1440,900,,,,,0,594,,,,,,,,,,,,,,,,,125,W,circle,1,0,,,,,,,,,,,,,,,,switch,number,numSwt,d,noRew,,,,,,0.7524,0,42,0,42,0,1,,,,,,,,,,,,,,,,,
293008,2022-09-26_21h14.26.572,vts_reward_expectancy,2022.2.4,MacIntel,60.0024001,Chrome,1440,900,,,,,0,594,,,,,,,,,,,,,,,,,167,Y,triangle,0,0,,,,,,,,,,,,,,,,switch,letter,NA,j,noRew,,,,,,1.7764,0,43,0,43,0,1,,,,,,,,,,,,,,,,,
293008,2022-09-26_21h14.26.572,vts_reward_expectancy,2022.2.4,MacIntel,60.0024001,Chrome,1440,900,,,,,0,594,,,,,,,,,,,,,,,,,146,B,triangle,1,1,,,,,,,,,,,,,,,,switch,number,numSwt,d,noRew,,,,,,2.144,0,44,0,44,0,1,,,,,,,,,,,,,,,,,
293008,2022-09-26_21h14.26.572,vts_reward_expectancy,2022.2.4,MacIntel,60.0024001,Chrome,1440,900,,,,,0,594,,,,,,,,,,,,,,,,,125,U,hexagon,0,0,,,,,,,,,,,,,,,,switch,letter,NA,j,noRew,,,,,,1.7381,0,45,0,45,0,1,,,,,,,,,,,,,,,,,
293008,2022-09-26_21h14.26.572,vts_reward_expectancy,2022.2.4,MacIntel,60.0024001,Chrome,1440,900,,,,,0,594,,,,,,,,,,,,,,,,,181,S,triangle,1,1,,,,,,,,,,,,,,,,repeat,letter,lettRpt,k,noRew,,,,,,1.535,0,46,0,46,0,1,,,,,,,,,,,,,,,,,
293008,2022-09-26_21h14.26.572,vts_reward_expectancy,2022.2.4,MacIntel,60.0024001,Chrome,1440,900,,,,,0,594,,,,,,,,,,,,,,,,,174,Y,circle,1,0,,,,,,,,,,,,,,,,repeat,letter,lettRpt,k,noRew,,,,,,1.4315,0,47,0,47,0,1,,,,,,,,,,,,,,,,,
293008,2022-09-26_21h14.26.572,vts_reward_expectancy,2022.2.4,MacIntel,60.0024001,Chrome,1440,900,,,,,0,594,,,,,,,,,,,,,,,,,167,Y,hexagon,1,0,,,,,,,,,,,,,,,,repeat,letter,lettRpt,k,noRew,,,,,,1.0015,0,48,0,48,0,1,,,,,,,,,,,,,,,,,
293008,2022-09-26_21h14.26.572,vts_reward_expectancy,2022.2.4,MacIntel,60.0024001,Chrome,1440,900,,,,,0,594,,,,,,,,,,,,,,,,,139,D,star,1,0,,,,,,,,,,,,,,,,repeat,letter,lettRpt,j,noRew,,,,,,1.1321,0,49,0,49,0,1,,,,,,,,,,,,,,,,,
293008,2022-09-26_21h14.26.572,vts_reward_expectancy,2022.2.4,MacIntel,60.0024001,Chrome,1440,900,,,,,0,594,,,,,,,,,,,,,,,,,146,S,hexagon,1,0,,,,,,,,,,,,,,,,repeat,letter,lettRpt,k,noRew,,,,,,2.3543,0,50,0,50,0,1,,,,,,,,,,,,,,,,,
293008,2022-09-26_21h14.26.572,vts_reward_expectancy,2022.2.4,MacIntel,60.0024001,Chrome,1440,900,,,,,0,594,,,,,,,,,,,,,,,,,160,F,star,1,0,,,,,,,,,,,,,,,,repeat,letter,lettRpt,j,noRew,,,,,,1.8129,0,51,0,51,0,1,,,,,,,,,,,,,,,,,
293008,2022-09-26_21h14.26.572,vts_reward_expectancy,2022.2.4,MacIntel,60.0024001,Chrome,1440,900,,,,,0,594,,,,,,,,,,,,,,,,,160,U,triangle,1,0,,,,,,,,,,,,,,,,repeat,letter,lettRpt,k,noRew,,,,,,1.8152,0,52,0,52,0,1,,,,,,,,,,,,,,,,,
293008,2022-09-26_21h14.26.572,vts_reward_expectancy,2022.2.4,MacIntel,60.0024001,Chrome,1440,900,,,,,0,594,,,,,,,,,,,,,,,,,125,B,hexagon,1,0,,,,,,,,,,,,,,,,switch,number,numSwt,d,noRew,,,,,,0.9952,0,53,0,53,0,1,,,,,,,,,,,,,,,,,
293008,2022-09-26_21h14.26.572,vts_reward_expectancy,2022.2.4,MacIntel,60.0024001,Chrome,1440,900,,,,,0,594,,,,,,,,,,,,,,,,,139,D,triangle,1,0,,,,,,,,,,,,,,,,switch,letter,lettSwt,j,noRew,,,,,,0.8862,0,54,0,54,0,1,,,,,,,,,,,,,,,,,
293008,2022-09-26_21h14.26.572,vts_reward_expectancy,2022.2.4,MacIntel,60.0024001,Chrome,1440,900,,,,,0,594,,,,,,,,,,,,,,,,,174,Y,hexagon,1,0,,,,,,,,,,,,,,,,switch,number,numSwt,f,noRew,,,,,,1.0954,0,55,0,55,0,1,,,,,,,,,,,,,,,,,
293008,2022-09-26_21h14.26.572,vts_reward_expectancy,2022.2.4,MacIntel,60.0024001,Chrome,1440,900,,,,,0,594,,,,,,,,,,,,,,,,,146,Y,hexagon,0,0,,,,,,,,,,,,,,,,switch,letter,NA,j,noRew,,,,,,1.7809,0,56,0,56,0,1,,,,,,,,,,,,,,,,,
293008,2022-09-26_21h14.26.572,vts_reward_expectancy,2022.2.4,MacIntel,60.0024001,Chrome,1440,900,,,,,0,594,,,,,,,,,,,,,,,,,125,U,star,0,1,,,,,,,,,,,,,,,,repeat,letter,NA,j,noRew,,,,,,1.4338,0,57,0,57,0,1,,,,,,,,,,,,,,,,,
293008,2022-09-26_21h14.26.572,vts_reward_expectancy,2022.2.4,MacIntel,60.0024001,Chrome,1440,900,,,,,0,594,,,,,,,,,,,,,,,,,174,S,triangle,1,1,,,,,,,,,,,,,,,,switch,number,numSwt,f,noRew,,,,,,1.2696,0,58,0,58,0,1,,,,,,,,,,,,,,,,,
293008,2022-09-26_21h14.26.572,vts_reward_expectancy,2022.2.4,MacIntel,60.0024001,Chrome,1440,900,,,,,0,594,,,,,,,,,,,,,,,,,181,F,circle,0,0,,,,,,,,,,,,,,,,repeat,number,NA,d,noRew,,,,,,1.3677,0,59,0,59,0,1,,,,,,,,,,,,,,,,,
293008,2022-09-26_21h14.26.572,vts_reward_expectancy,2022.2.4,MacIntel,60.0024001,Chrome,1440,900,,,,,0,594,,,,,,,,,,,,,,,,,181,S,star,1,1,,,,,,,,,,,,,,,,repeat,number,numRpt,f,noRew,,,,,,1.5014,0,60,0,60,0,1,,,,,,,,,,,,,,,,,
293008,2022-09-26_21h14.26.572,vts_reward_expectancy,2022.2.4,MacIntel,60.0024001,Chrome,1440,900,,,,,0,594,,,,,,,,,,,,,,,,,132,B,circle,1,0,,,,,,,,,,,,,,,,switch,letter,lettSwt,j,noRew,,,,,,1.7457,0,61,0,61,0,1,,,,,,,,,,,,,,,,,
293008,2022-09-26_21h14.26.572,vts_reward_expectancy,2022.2.4,MacIntel,60.0024001,Chrome,1440,900,,,,,0,594,,,,,,,,,,,,,,,,,167,H,triangle,0,0,,,,,,,,,,,,,,,,switch,number,NA,d,noRew,,,,,,1.4952,0,62,0,62,0,1,,,,,,,,,,,,,,,,,
293008,2022-09-26_21h14.26.572,vts_reward_expectancy,2022.2.4,MacIntel,60.0024001,Chrome,1440,900,,,,,0,594,,,,,,,,,,,,,,,,,146,Y,hexagon,0,1,,,,,,,,,,,,,,,,repeat,number,NA,f,noRew,,,,,,2.0316,0,63,0,63,0,1,,,,,,,,,,,,,,,,,
293008,2022-09-26_21h14.26.572,vts_reward_expectancy,2022.2.4,MacIntel,60.0024001,Chrome,1440,900,,,,,,,,,,,,,,,,,,,,,,,,,,,,,,,,,,,,,,,,,,,,,,,,,,,,,,,,,,,,,,,,,,,,,,,,,,,,
293008,2022-09-26_21h14.26.572,vts_reward_expectancy,2022.2.4,MacIntel,60.0024001,Chrome,1440,900,,,,,1,595,,,,,,,,,,,,,,,,,125,Y,triangle,1,1,,,,,,,,,,,,,,,,switch,letter,lettSwt,k,Lo,,,,,,1.6652,0,,,,,,space,10.5574,high,0,0,0,0,1,,,,,,,,,
293008,2022-09-26_21h14.26.572,vts_reward_expectancy,2022.2.4,MacIntel,60.0024001,Chrome,1440,900,,,,,0,595,,,,,,,,,,,,,,,,,139,F,star,0,0,,,,,,,,,,,,,,,,switch,number,NA,f,Lo,,,,,,2.1624,0,,,,,,,,high,1,0,1,0,1,,,,,,,,,
293008,2022-09-26_21h14.26.572,vts_reward_expectancy,2022.2.4,MacIntel,60.0024001,Chrome,1440,900,,,,,1,596,,,,,,,,,,,,,,,,,132,B,triangle,1,1,,,,,,,,,,,,,,,,repeat,number,numRpt,d,Lo,,,,,,0.6821,0,,,,,,,,high,2,0,2,0,1,,,,,,,,,
293008,2022-09-26_21h14.26.572,vts_reward_expectancy,2022.2.4,MacIntel,60.0024001,Chrome,1440,900,,,,,0,596,,,,,,,,,,,,,,,,,181,H,star,1,0,,,,,,,,,,,,,,,,repeat,number,numRpt,f,Hi,,,,,,2.0319,0,,,,,,,,high,3,0,3,0,1,,,,,,,,,
293008,2022-09-26_21h14.26.572,vts_reward_expectancy,2022.2.4,MacIntel,60.0024001,Chrome,1440,900,,,,,0,596,,,,,,,,,,,,,,,,,146,U,star,1,0,,,,,,,,,,,,,,,,repeat,number,numRpt,d,Hi,,,,,,2.2293,0,,,,,,,,high,4,0,4,0,1,,,,,,,,,
293008,2022-09-26_21h14.26.572,vts_reward_expectancy,2022.2.4,MacIntel,60.0024001,Chrome,1440,900,,,,,10,606,,,,,,,,,,,,,,,,,160,W,triangle,1,0,,,,,,,,,,,,,,,,repeat,number,numRpt,f,Lo,,,,,,2.7011,0,,,,,,,,high,5,0,5,0,1,,,,,,,,,
293008,2022-09-26_21h14.26.572,vts_reward_expectancy,2022.2.4,MacIntel,60.0024001,Chrome,1440,900,,,,,1,607,,,,,,,,,,,,,,,,,174,D,triangle,1,0,,,,,,,,,,,,,,,,repeat,number,numRpt,f,Lo,,,,,,2.3836,0,,,,,,,,high,6,0,6,0,1,,,,,,,,,
293008,2022-09-26_21h14.26.572,vts_reward_expectancy,2022.2.4,MacIntel,60.0024001,Chrome,1440,900,,,,,0,607,,,,,,,,,,,,,,,,,167,S,star,-1,0,,,,,,,,,,,,,,,,switch,no_choice,NA,,Lo,,,,,,,0,,,,,,,,high,7,0,7,0,1,,,,,,,,,
293008,2022-09-26_21h14.26.572,vts_reward_expectancy,2022.2.4,MacIntel,60.0024001,Chrome,1440,900,,,,,0,607,,,,,,,,,,,,,,,,,125,Y,triangle,-1,0,,,,,,,,,,,,,,,,repeat,no_choice,NA,,Lo,,,,,,,0,,,,,,,,high,8,0,8,0,1,,,,,,,,,
293008,2022-09-26_21h14.26.572,vts_reward_expectancy,2022.2.4,MacIntel,60.0024001,Chrome,1440,900,,,,,10,617,,,,,,,,,,,,,,,,,139,F,star,1,0,,,,,,,,,,,,,,,,switch,letter,lettSwt,j,Hi,,,,,,1.1053,0,,,,,,,,high,9,0,9,0,1,,,,,,,,,
293008,2022-09-26_21h14.26.572,vts_reward_expectancy,2022.2.4,MacIntel,60.0024001,Chrome,1440,900,,,,,1,618,,,,,,,,,,,,,,,,,132,B,triangle,1,0,,,,,,,,,,,,,,,,repeat,letter,lettRpt,j,Lo,,,,,,1.2446,0,,,,,,,,high,10,0,10,0,1,,,,,,,,,
293008,2022-09-26_21h14.26.572,vts_reward_expectancy,2022.2.4,MacIntel,60.0024001,Chrome,1440,900,,,,,0,618,,,,,,,,,,,,,,,,,181,H,star,0,0,,,,,,,,,,,,,,,,repeat,letter,NA,k,Lo,,,,,,1.8454,0,,,,,,,,high,11,0,11,0,1,,,,,,,,,
293008,2022-09-26_21h14.26.572,vts_reward_expectancy,2022.2.4,MacIntel,60.0024001,Chrome,1440,900,,,,,0,618,,,,,,,,,,,,,,,,,146,U,triangle,0,1,,,,,,,,,,,,,,,,repeat,letter,NA,j,Lo,,,,,,1.8619,0,,,,,,,,high,12,0,12,0,1,,,,,,,,,
293008,2022-09-26_21h14.26.572,vts_reward_expectancy,2022.2.4,MacIntel,60.0024001,Chrome,1440,900,,,,,10,628,,,,,,,,,,,,,,,,,160,W,star,1,1,,,,,,,,,,,,,,,,repeat,letter,lettRpt,k,Hi,,,,,,1.0819,0,,,,,,,,high,13,0,13,0,1,,,,,,,,,
293008,2022-09-26_21h14.26.572,vts_reward_expectancy,2022.2.4,MacIntel,60.0024001,Chrome,1440,900,,,,,0,628,,,,,,,,,,,,,,,,,174,D,star,1,0,,,,,,,,,,,,,,,,switch,number,numSwt,f,Hi,,,,,,1.9518,0,,,,,,,,high,14,0,14,0,1,,,,,,,,,
293008,2022-09-26_21h14.26.572,vts_reward_expectancy,2022.2.4,MacIntel,60.0024001,Chrome,1440,900,,,,,10,638,,,,,,,,,,,,,,,,,167,S,triangle,1,0,,,,,,,,,,,,,,,,switch,letter,lettSwt,k,Lo,,,,,,1.637,0,,,,,,,,high,15,0,15,0,1,,,,,,,,,
293008,2022-09-26_21h14.26.572,vts_reward_expectancy,2022.2.4,MacIntel,60.0024001,Chrome,1440,900,,,,,1,639,,,,,,,,,,,,,,,,,167,W,triangle,1,0,,,,,,,,,,,,,,,,switch,number,numSwt,f,Lo,,,,,,1.0204,0,,,,,,,,high,16,0,16,0,1,,,,,,,,,
293008,2022-09-26_21h14.26.572,vts_reward_expectancy,2022.2.4,MacIntel,60.0024001,Chrome,1440,900,,,,,0,639,,,,,,,,,,,,,,,,,125,S,star,0,0,,,,,,,,,,,,,,,,switch,letter,NA,j,Lo,,,,,,0.7438,0,,,,,,,,high,17,0,17,0,1,,,,,,,,,
293008,2022-09-26_21h14.26.572,vts_reward_expectancy,2022.2.4,MacIntel,60.0024001,Chrome,1440,900,,,,,1,640,,,,,,,,,,,,,,,,,181,U,triangle,1,1,,,,,,,,,,,,,,,,repeat,letter,lettRpt,k,Lo,,,,,,0.4957,0,,,,,,,,high,18,0,18,0,1,,,,,,,,,
293008,2022-09-26_21h14.26.572,vts_reward_expectancy,2022.2.4,MacIntel,60.0024001,Chrome,1440,900,,,,,10,650,,,,,,,,,,,,,,,,,139,B,star,1,0,,,,,,,,,,,,,,,,switch,number,numSwt,d,Hi,,,,,,1.1295,0,,,,,,,,high,19,0,19,0,1,,,,,,,,,
293008,2022-09-26_21h14.26.572,vts_reward_expectancy,2022.2.4,MacIntel,60.0024001,Chrome,1440,900,,,,,1,651,,,,,,,,,,,,,,,,,174,F,triangle,1,0,,,,,,,,,,,,,,,,repeat,number,numRpt,f,Lo,,,,,,1.5609,0,,,,,,,,high,20,0,20,0,1,,,,,,,,,
293008,2022-09-26_21h14.26.572,vts_reward_expectancy,2022.2.4,MacIntel,60.0024001,Chrome,1440,900,,,,,0,651,,,,,,,,,,,,,,,,,146,H,star,1,0,,,,,,,,,,,,,,,,repeat,number,numRpt,d,Hi,,,,,,2.0522,0,,,,,,,,high,21,0,21,0,1,,,,,,,,,
293008,2022-09-26_21h14.26.572,vts_reward_expectancy,2022.2.4,MacIntel,60.0024001,Chrome,1440,900,,,,,1,652,,,,,,,,,,,,,,,,,132,D,triangle,1,0,,,,,,,,,,,,,,,,switch,letter,lettSwt,j,Lo,,,,,,0.6312,0,,,,,,,,high,22,0,22,0,1,,,,,,,,,
293008,2022-09-26_21h14.26.572,vts_reward_expectancy,2022.2.4,MacIntel,60.0024001,Chrome,1440,900,,,,,0,652,,,,,,,,,,,,,,,,,160,Y,star,1,0,,,,,,,,,,,,,,,,switch,number,numSwt,f,Hi,,,,,,1.1832,0,,,,,,,,high,23,0,23,0,1,,,,,,,,,
293008,2022-09-26_21h14.26.572,vts_reward_expectancy,2022.2.4,MacIntel,60.0024001,Chrome,1440,900,,,,,0,652,,,,,,,,,,,,,,,,,146,W,triangle,0,0,,,,,,,,,,,,,,,,repeat,number,NA,f,Hi,,,,,,0.9279,0,,,,,,,,high,24,0,24,0,1,,,,,,,,,
293008,2022-09-26_21h14.26.572,vts_reward_expectancy,2022.2.4,MacIntel,60.0024001,Chrome,1440,900,,,,,0,652,,,,,,,,,,,,,,,,,181,F,star,1,1,,,,,,,,,,,,,,,,switch,letter,lettSwt,j,Hi,,,,,,1.6603,0,,,,,,,,high,25,0,25,0,1,,,,,,,,,
293008,2022-09-26_21h14.26.572,vts_reward_expectancy,2022.2.4,MacIntel,60.0024001,Chrome,1440,900,,,,,0,652,,,,,,,,,,,,,,,,,139,H,triangle,0,0,,,,,,,,,,,,,,,,repeat,letter,NA,k,Hi,,,,,,0.2843,0,,,,,,,,high,26,0,26,0,1,,,,,,,,,
293008,2022-09-26_21h14.26.572,vts_reward_expectancy,2022.2.4,MacIntel,60.0024001,Chrome,1440,900,,,,,0,652,,,,,,,,,,,,,,,,,160,B,star,0,1,,,,,,,,,,,,,,,,switch,number,NA,d,Hi,,,,,,0.6133,0,,,,,,,,high,27,0,27,0,1,,,,,,,,,
293008,2022-09-26_21h14.26.572,vts_reward_expectancy,2022.2.4,MacIntel,60.0024001,Chrome,1440,900,,,,,0,652,,,,,,,,,,,,,,,,,167,Y,star,1,1,,,,,,,,,,,,,,,,switch,letter,lettSwt,k,Hi,,,,,,1.6653,0,,,,,,,,high,28,0,28,0,1,,,,,,,,,
293008,2022-09-26_21h14.26.572,vts_reward_expectancy,2022.2.4,MacIntel,60.0024001,Chrome,1440,900,,,,,0,652,,,,,,,,,,,,,,,,,132,S,triangle,0,0,,,,,,,,,,,,,,,,repeat,letter,NA,j,Hi,,,,,,1.0459,0,,,,,,,,high,29,0,29,0,1,,,,,,,,,
293008,2022-09-26_21h14.26.572,vts_reward_expectancy,2022.2.4,MacIntel,60.0024001,Chrome,1440,900,,,,,10,662,,,,,,,,,,,,,,,,,174,D,triangle,1,1,,,,,,,,,,,,,,,,switch,number,numSwt,f,Lo,,,,,,1.3321,0,,,,,,,,high,30,0,30,0,1,,,,,,,,,
293008,2022-09-26_21h14.26.572,vts_reward_expectancy,2022.2.4,MacIntel,60.0024001,Chrome,1440,900,,,,,0,662,,,,,,,,,,,,,,,,,125,U,star,0,0,,,,,,,,,,,,,,,,switch,letter,NA,j,Lo,,,,,,1.4809,0,,,,,,,,high,31,0,31,0,1,,,,,,,,,
293008,2022-09-26_21h14.26.572,vts_reward_expectancy,2022.2.4,MacIntel,60.0024001,Chrome,1440,900,,,,,10,672,,,,,,,,,,,,,,,,,125,F,hexagon,1,1,,,,,,,,,,,,,,,,switch,number,numSwt,d,Hi,,,,,,0.6312,1,,,,,,space,9.0385,low,0,0,0,0,1,,,,,,,,,
293008,2022-09-26_21h14.26.572,vts_reward_expectancy,2022.2.4,MacIntel,60.0024001,Chrome,1440,900,,,,,10,682,,,,,,,,,,,,,,,,,174,B,circle,1,0,,,,,,,,,,,,,,,,repeat,number,numRpt,f,Lo,,,,,,1.3193,1,,,,,,,,low,1,0,1,0,1,,,,,,,,,
293008,2022-09-26_21h14.26.572,vts_reward_expectancy,2022.2.4,MacIntel,60.0024001,Chrome,1440,900,,,,,10,692,,,,,,,,,,,,,,,,,160,W,hexagon,1,0,,,,,,,,,,,,,,,,switch,letter,lettSwt,k,Hi,,,,,,1.3787,1,,,,,,,,low,2,0,2,0,1,,,,,,,,,
293008,2022-09-26_21h14.26.572,vts_reward_expectancy,2022.2.4,MacIntel,60.0024001,Chrome,1440,900,,,,,1,693,,,,,,,,,,,,,,,,,139,D,circle,1,0,,,,,,,,,,,,,,,,switch,number,numSwt,d,Lo,,,,,,0.9503,1,,,,,,,,low,3,0,3,0,1,,,,,,,,,
293008,2022-09-26_21h14.26.572,vts_reward_expectancy,2022.2.4,MacIntel,60.0024001,Chrome,1440,900,,,,,10,703,,,,,,,,,,,,,,,,,181,Y,hexagon,1,0,,,,,,,,,,,,,,,,switch,letter,lettSwt,k,Hi,,,,,,1.1779,1,,,,,,,,low,4,0,4,0,1,,,,,,,,,
293008,2022-09-26_21h14.26.572,vts_reward_expectancy,2022.2.4,MacIntel,60.0024001,Chrome,1440,900,,,,,10,713,,,,,,,,,,,,,,,,,132,S,circle,1,0,,,,,,,,,,,,,,,,switch,number,numSwt,d,Lo,,,,,,1.7978,1,,,,,,,,low,5,0,5,0,1,,,,,,,,,
293008,2022-09-26_21h14.26.572,vts_reward_expectancy,2022.2.4,MacIntel,60.0024001,Chrome,1440,900,,,,,1,714,,,,,,,,,,,,,,,,,167,H,circle,1,0,,,,,,,,,,,,,,,,repeat,number,numRpt,f,Lo,,,,,,1.3982,1,,,,,,,,low,6,0,6,0,1,,,,,,,,,
293008,2022-09-26_21h14.26.572,vts_reward_expectancy,2022.2.4,MacIntel,60.0024001,Chrome,1440,900,,,,,0,714,,,,,,,,,,,,,,,,,146,U,hexagon,0,0,,,,,,,,,,,,,,,,repeat,number,NA,f,Lo,,,,,,1.5983,1,,,,,,,,low,7,0,7,0,1,,,,,,,,,
293008,2022-09-26_21h14.26.572,vts_reward_expectancy,2022.2.4,MacIntel,60.0024001,Chrome,1440,900,,,,,10,724,,,,,,,,,,,,,,,,,125,F,hexagon,1,1,,,,,,,,,,,,,,,,repeat,number,numRpt,d,Hi,,,,,,1.2653,1,,,,,,,,low,8,0,8,0,1,,,,,,,,,
293008,2022-09-26_21h14.26.572,vts_reward_expectancy,2022.2.4,MacIntel,60.0024001,Chrome,1440,900,,,,,10,734,,,,,,,,,,,,,,,,,174,B,circle,1,0,,,,,,,,,,,,,,,,repeat,number,numRpt,f,Lo,,,,,,1.4023,1,,,,,,,,low,9,0,9,0,1,,,,,,,,,
293008,2022-09-26_21h14.26.572,vts_reward_expectancy,2022.2.4,MacIntel,60.0024001,Chrome,1440,900,,,,,0,734,,,,,,,,,,,,,,,,,160,W,hexagon,1,0,,,,,,,,,,,,,,,,switch,letter,lettSwt,k,Hi,,,,,,1.5287,1,,,,,,,,low,10,0,10,0,1,,,,,,,,,
293008,2022-09-26_21h14.26.572,vts_reward_expectancy,2022.2.4,MacIntel,60.0024001,Chrome,1440,900,,,,,10,744,,,,,,,,,,,,,,,,,139,D,circle,1,0,,,,,,,,,,,,,,,,repeat,letter,lettRpt,j,Lo,,,,,,1.0874,1,,,,,,,,low,11,0,11,0,1,,,,,,,,,
293008,2022-09-26_21h14.26.572,vts_reward_expectancy,2022.2.4,MacIntel,60.0024001,Chrome,1440,900,,,,,1,745,,,,,,,,,,,,,,,,,181,Y,circle,1,0,,,,,,,,,,,,,,,,switch,number,numSwt,f,Lo,,,,,,1.4171,1,,,,,,,,low,12,0,12,0,1,,,,,,,,,
293008,2022-09-26_21h14.26.572,vts_reward_expectancy,2022.2.4,MacIntel,60.0024001,Chrome,1440,900,,,,,1,746,,,,,,,,,,,,,,,,,132,S,hexagon,1,0,,,,,,,,,,,,,,,,repeat,number,numRpt,d,Hi,,,,,,1.7296,1,,,,,,,,low,13,0,13,0,1,,,,,,,,,
293008,2022-09-26_21h14.26.572,vts_reward_expectancy,2022.2.4,MacIntel,60.0024001,Chrome,1440,900,,,,,1,747,,,,,,,,,,,,,,,,,167,H,circle,1,0,,,,,,,,,,,,,,,,repeat,number,numRpt,f,Lo,,,,,,1.349,1,,,,,,,,low,14,0,14,0,1,,,,,,,,,
293008,2022-09-26_21h14.26.572,vts_reward_expectancy,2022.2.4,MacIntel,60.0024001,Chrome,1440,900,,,,,0,747,,,,,,,,,,,,,,,,,146,U,hexagon,0,0,,,,,,,,,,,,,,,,switch,letter,NA,j,Lo,,,,,,1.6317,1,,,,,,,,low,15,0,15,0,1,,,,,,,,,
293008,2022-09-26_21h14.26.572,vts_reward_expectancy,2022.2.4,MacIntel,60.0024001,Chrome,1440,900,,,,,10,757,,,,,,,,,,,,,,,,,132,B,circle,1,1,,,,,,,,,,,,,,,,switch,number,numSwt,d,Lo,,,,,,1.7659,1,,,,,,,,low,16,0,16,0,1,,,,,,,,,
293008,2022-09-26_21h14.26.572,vts_reward_expectancy,2022.2.4,MacIntel,60.0024001,Chrome,1440,900,,,,,1,758,,,,,,,,,,,,,,,,,139,S,hexagon,1,0,,,,,,,,,,,,,,,,switch,letter,lettSwt,k,Hi,,,,,,1.379,1,,,,,,,,low,17,0,17,0,1,,,,,,,,,
293008,2022-09-26_21h14.26.572,vts_reward_expectancy,2022.2.4,MacIntel,60.0024001,Chrome,1440,900,,,,,1,759,,,,,,,,,,,,,,,,,167,H,circle,1,0,,,,,,,,,,,,,,,,switch,number,numSwt,f,Lo,,,,,,1.3834,1,,,,,,,,low,18,0,18,0,1,,,,,,,,,
293008,2022-09-26_21h14.26.572,vts_reward_expectancy,2022.2.4,MacIntel,60.0024001,Chrome,1440,900,,,,,10,769,,,,,,,,,,,,,,,,,181,U,hexagon,1,0,,,,,,,,,,,,,,,,switch,letter,lettSwt,k,Hi,,,,,,1.3792,1,,,,,,,,low,19,0,19,0,1,,,,,,,,,
293008,2022-09-26_21h14.26.572,vts_reward_expectancy,2022.2.4,MacIntel,60.0024001,Chrome,1440,900,,,,,10,779,,,,,,,,,,,,,,,,,160,Y,circle,1,0,,,,,,,,,,,,,,,,repeat,letter,lettRpt,k,Lo,,,,,,1.9508,1,,,,,,,,low,20,0,20,0,1,,,,,,,,,
293008,2022-09-26_21h14.26.572,vts_reward_expectancy,2022.2.4,MacIntel,60.0024001,Chrome,1440,900,,,,,0,779,,,,,,,,,,,,,,,,,174,F,hexagon,1,0,,,,,,,,,,,,,,,,switch,number,numSwt,f,Hi,,,,,,1.3456,1,,,,,,,,low,21,0,21,0,1,,,,,,,,,
293008,2022-09-26_21h14.26.572,vts_reward_expectancy,2022.2.4,MacIntel,60.0024001,Chrome,1440,900,,,,,1,780,,,,,,,,,,,,,,,,,146,D,circle,1,0,,,,,,,,,,,,,,,,switch,letter,lettSwt,j,Lo,,,,,,1.4161,1,,,,,,,,low,22,0,22,0,1,,,,,,,,,
293008,2022-09-26_21h14.26.572,vts_reward_expectancy,2022.2.4,MacIntel,60.0024001,Chrome,1440,900,,,,,0,780,,,,,,,,,,,,,,,,,125,W,hexagon,1,0,,,,,,,,,,,,,,,,switch,number,numSwt,d,Hi,,,,,,1.799,1,,,,,,,,low,23,0,23,0,1,,,,,,,,,
293008,2022-09-26_21h14.26.572,vts_reward_expectancy,2022.2.4,MacIntel,60.0024001,Chrome,1440,900,,,,,0,780,,,,,,,,,,,,,,,,,146,S,circle,0,0,,,,,,,,,,,,,,,,switch,letter,NA,j,Hi,,,,,,1.3993,1,,,,,,,,low,24,0,24,0,1,,,,,,,,,
293008,2022-09-26_21h14.26.572,vts_reward_expectancy,2022.2.4,MacIntel,60.0024001,Chrome,1440,900,,,,,0,780,,,,,,,,,,,,,,,,,132,U,hexagon,0,1,,,,,,,,,,,,,,,,switch,number,NA,f,Hi,,,,,,1.4149,1,,,,,,,,low,25,0,25,0,1,,,,,,,,,
293008,2022-09-26_21h14.26.572,vts_reward_expectancy,2022.2.4,MacIntel,60.0024001,Chrome,1440,900,,,,,10,790,,,,,,,,,,,,,,,,,181,Y,hexagon,1,1,,,,,,,,,,,,,,,,repeat,number,numRpt,f,Hi,,,,,,1.5478,1,,,,,,,,low,26,0,26,0,1,,,,,,,,,
293008,2022-09-26_21h14.26.572,vts_reward_expectancy,2022.2.4,MacIntel,60.0024001,Chrome,1440,900,,,,,1,791,,,,,,,,,,,,,,,,,139,H,circle,1,0,,,,,,,,,,,,,,,,repeat,number,numRpt,d,Lo,,,,,,1.3653,1,,,,,,,,low,27,0,27,0,1,,,,,,,,,
293008,2022-09-26_21h14.26.572,vts_reward_expectancy,2022.2.4,MacIntel,60.0024001,Chrome,1440,900,,,,,10,801,,,,,,,,,,,,,,,,,167,D,circle,1,0,,,,,,,,,,,,,,,,repeat,number,numRpt,f,Lo,,,,,,1.7984,1,,,,,,,,low,28,0,28,0,1,,,,,,,,,
293008,2022-09-26_21h14.26.572,vts_reward_expectancy,2022.2.4,MacIntel,60.0024001,Chrome,1440,900,,,,,0,801,,,,,,,,,,,,,,,,,125,B,hexagon,1,0,,,,,,,,,,,,,,,,switch,letter,lettSwt,j,Hi,,,,,,1.4905,1,,,,,,,,low,29,0,29,0,1,,,,,,,,,
293008,2022-09-26_21h14.26.572,vts_reward_expectancy,2022.2.4,MacIntel,60.0024001,Chrome,1440,900,,,,,10,811,,,,,,,,,,,,,,,,,174,F,circle,1,0,,,,,,,,,,,,,,,,switch,number,numSwt,f,Lo,,,,,,1.7997,1,,,,,,,,low,30,0,30,0,1,,,,,,,,,
293008,2022-09-26_21h14.26.572,vts_reward_expectancy,2022.2.4,MacIntel,60.0024001,Chrome,1440,900,,,,,10,821,,,,,,,,,,,,,,,,,160,W,hexagon,1,0,,,,,,,,,,,,,,,,repeat,number,numRpt,f,Hi,,,,,,1.3994,1,,,,,,,,low,31,0,31,0,1,,,,,,,,,
293008,2022-09-26_21h14.26.572,vts_reward_expectancy,2022.2.4,MacIntel,60.0024001,Chrome,1440,900,,,,,0,821,,,,,,,,,,,,,,,,,167,B,circle,0,0,,,,,,,,,,,,,,,,repeat,number,NA,d,Hi,,,,,,1.5285,2,,,,,,space,0.496,low,0,0,0,0,1,,,,,,,,,
293008,2022-09-26_21h14.26.572,vts_reward_expectancy,2022.2.4,MacIntel,60.0024001,Chrome,1440,900,,,,,1,822,,,,,,,,,,,,,,,,,160,H,hexagon,1,1,,,,,,,,,,,,,,,,repeat,number,numRpt,f,Hi,,,,,,1.2343,2,,,,,,,,low,1,0,1,0,1,,,,,,,,,
293008,2022-09-26_21h14.26.572,vts_reward_expectancy,2022.2.4,MacIntel,60.0024001,Chrome,1440,900,,,,,1,823,,,,,,,,,,,,,,,,,125,S,circle,1,0,,,,,,,,,,,,,,,,repeat,number,numRpt,d,Lo,,,,,,2.448,2,,,,,,,,low,2,0,2,0,1,,,,,,,,,
293008,2022-09-26_21h14.26.572,vts_reward_expectancy,2022.2.4,MacIntel,60.0024001,Chrome,1440,900,,,,,0,823,,,,,,,,,,,,,,,,,139,F,hexagon,1,0,,,,,,,,,,,,,,,,repeat,number,numRpt,d,Hi,,,,,,1.4138,2,,,,,,,,low,3,0,3,0,1,,,,,,,,,
293008,2022-09-26_21h14.26.572,vts_reward_expectancy,2022.2.4,MacIntel,60.0024001,Chrome,1440,900,,,,,0,823,,,,,,,,,,,,,,,,,146,W,circle,0,0,,,,,,,,,,,,,,,,repeat,number,NA,f,Hi,,,,,,1.8976,2,,,,,,,,low,4,0,4,0,1,,,,,,,,,
293008,2022-09-26_21h14.26.572,vts_reward_expectancy,2022.2.4,MacIntel,60.0024001,Chrome,1440,900,,,,,0,823,,,,,,,,,,,,,,,,,174,U,hexagon,1,1,,,,,,,,,,,,,,,,repeat,number,numRpt,f,Hi,,,,,,1.73,2,,,,,,,,low,5,0,5,0,1,,,,,,,,,
293008,2022-09-26_21h14.26.572,vts_reward_expectancy,2022.2.4,MacIntel,60.0024001,Chrome,1440,900,,,,,1,824,,,,,,,,,,,,,,,,,181,Y,hexagon,1,0,,,,,,,,,,,,,,,,repeat,number,numRpt,f,Hi,,,,,,0.6981,2,,,,,,,,low,6,0,6,0,1,,,,,,,,,
293008,2022-09-26_21h14.26.572,vts_reward_expectancy,2022.2.4,MacIntel,60.0024001,Chrome,1440,900,,,,,1,825,,,,,,,,,,,,,,,,,132,D,circle,1,0,,,,,,,,,,,,,,,,repeat,number,numRpt,d,Lo,,,,,,0.8959,2,,,,,,,,low,7,0,7,0,1,,,,,,,,,
293008,2022-09-26_21h14.26.572,vts_reward_expectancy,2022.2.4,MacIntel,60.0024001,Chrome,1440,900,,,,,0,825,,,,,,,,,,,,,,,,,167,B,hexagon,1,0,,,,,,,,,,,,,,,,repeat,number,numRpt,f,Hi,,,,,,2.5183,2,,,,,,,,low,8,0,8,0,1,,,,,,,,,
293008,2022-09-26_21h14.26.572,vts_reward_expectancy,2022.2.4,MacIntel,60.0024001,Chrome,1440,900,,,,,1,826,,,,,,,,,,,,,,,,,160,H,circle,1,0,,,,,,,,,,,,,,,,repeat,number,numRpt,f,Lo,,,,,,0.956,2,,,,,,,,low,9,0,9,0,1,,,,,,,,,
293008,2022-09-26_21h14.26.572,vts_reward_expectancy,2022.2.4,MacIntel,60.0024001,Chrome,1440,900,,,,,0,826,,,,,,,,,,,,,,,,,125,S,hexagon,0,0,,,,,,,,,,,,,,,,switch,letter,NA,j,Lo,,,,,,0.8495,2,,,,,,,,low,10,0,10,0,1,,,,,,,,,
293008,2022-09-26_21h14.26.572,vts_reward_expectancy,2022.2.4,MacIntel,60.0024001,Chrome,1440,900,,,,,1,827,,,,,,,,,,,,,,,,,139,F,circle,1,1,,,,,,,,,,,,,,,,repeat,letter,lettRpt,j,Lo,,,,,,1.0655,2,,,,,,,,low,11,0,11,0,1,,,,,,,,,
293008,2022-09-26_21h14.26.572,vts_reward_expectancy,2022.2.4,MacIntel,60.0024001,Chrome,1440,900,,,,,10,837,,,,,,,,,,,,,,,,,146,W,circle,1,0,,,,,,,,,,,,,,,,switch,number,numSwt,d,Lo,,,,,,2.2714,2,,,,,,,,low,12,0,12,0,1,,,,,,,,,
293008,2022-09-26_21h14.26.572,vts_reward_expectancy,2022.2.4,MacIntel,60.0024001,Chrome,1440,900,,,,,0,837,,,,,,,,,,,,,,,,,174,U,hexagon,1,0,,,,,,,,,,,,,,,,switch,letter,lettSwt,k,Hi,,,,,,2.506,2,,,,,,,,low,13,0,13,0,1,,,,,,,,,
293008,2022-09-26_21h14.26.572,vts_reward_expectancy,2022.2.4,MacIntel,60.0024001,Chrome,1440,900,,,,,1,838,,,,,,,,,,,,,,,,,181,Y,circle,1,0,,,,,,,,,,,,,,,,switch,number,numSwt,f,Lo,,,,,,0.7374,2,,,,,,,,low,14,0,14,0,1,,,,,,,,,
293008,2022-09-26_21h14.26.572,vts_reward_expectancy,2022.2.4,MacIntel,60.0024001,Chrome,1440,900,,,,,1,839,,,,,,,,,,,,,,,,,132,D,hexagon,1,0,,,,,,,,,,,,,,,,repeat,number,numRpt,d,Hi,,,,,,0.6145,2,,,,,,,,low,15,0,15,0,1,,,,,,,,,
293008,2022-09-26_21h14.26.572,vts_reward_expectancy,2022.2.4,MacIntel,60.0024001,Chrome,1440,900,,,,,0,839,,,,,,,,,,,,,,,,,167,H,circle,0,0,,,,,,,,,,,,,,,,repeat,number,NA,d,Hi,,,,,,2.9517,2,,,,,,,,low,16,0,16,0,1,,,,,,,,,
293008,2022-09-26_21h14.26.572,vts_reward_expectancy,2022.2.4,MacIntel,60.0024001,Chrome,1440,900,,,,,10,849,,,,,,,,,,,,,,,,,132,B,hexagon,1,1,,,,,,,,,,,,,,,,switch,letter,lettSwt,j,Hi,,,,,,1.3657,2,,,,,,,,low,17,0,17,0,1,,,,,,,,,
293008,2022-09-26_21h14.26.572,vts_reward_expectancy,2022.2.4,MacIntel,60.0024001,Chrome,1440,900,,,,,0,849,,,,,,,,,,,,,,,,,160,Y,hexagon,1,0,,,,,,,,,,,,,,,,repeat,letter,lettRpt,k,Hi,,,,,,1.7792,2,,,,,,,,low,18,0,18,0,1,,,,,,,,,
293008,2022-09-26_21h14.26.572,vts_reward_expectancy,2022.2.4,MacIntel,60.0024001,Chrome,1440,900,,,,,0,849,,,,,,,,,,,,,,,,,125,W,circle,0,0,,,,,,,,,,,,,,,,repeat,letter,NA,j,Hi,,,,,,1.9478,2,,,,,,,,low,19,0,19,0,1,,,,,,,,,
293008,2022-09-26_21h14.26.572,vts_reward_expectancy,2022.2.4,MacIntel,60.0024001,Chrome,1440,900,,,,,0,849,,,,,,,,,,,,,,,,,174,F,hexagon,1,1,,,,,,,,,,,,,,,,switch,number,numSwt,f,Hi,,,,,,1.7112,2,,,,,,,,low,20,0,20,0,1,,,,,,,,,
293008,2022-09-26_21h14.26.572,vts_reward_expectancy,2022.2.4,MacIntel,60.0024001,Chrome,1440,900,,,,,0,849,,,,,,,,,,,,,,,,,181,S,circle,0,0,,,,,,,,,,,,,,,,repeat,number,NA,d,Hi,,,,,,1.8959,2,,,,,,,,low,21,0,21,0,1,,,,,,,,,
293008,2022-09-26_21h14.26.572,vts_reward_expectancy,2022.2.4,MacIntel,60.0024001,Chrome,1440,900,,,,,0,849,,,,,,,,,,,,,,,,,146,U,circle,-1,1,,,,,,,,,,,,,,,,switch,no_choice,NA,,Hi,,,,,,,2,,,,,,,,low,22,0,22,0,1,,,,,,,,,
293008,2022-09-26_21h14.26.572,vts_reward_expectancy,2022.2.4,MacIntel,60.0024001,Chrome,1440,900,,,,,10,859,,,,,,,,,,,,,,,,,139,D,hexagon,1,0,,,,,,,,,,,,,,,,switch,letter,lettSwt,j,Hi,,,,,,0.9524,2,,,,,,,,low,23,0,23,0,1,,,,,,,,,
293008,2022-09-26_21h14.26.572,vts_reward_expectancy,2022.2.4,MacIntel,60.0024001,Chrome,1440,900,,,,,0,859,,,,,,,,,,,,,,,,,132,W,hexagon,1,0,,,,,,,,,,,,,,,,repeat,letter,lettRpt,k,Hi,,,,,,1.9492,2,,,,,,,,low,24,0,24,0,1,,,,,,,,,
293008,2022-09-26_21h14.26.572,vts_reward_expectancy,2022.2.4,MacIntel,60.0024001,Chrome,1440,900,,,,,1,860,,,,,,,,,,,,,,,,,181,Y,circle,1,0,,,,,,,,,,,,,,,,switch,number,numSwt,f,Lo,,,,,,1.4334,2,,,,,,,,low,25,0,25,0,1,,,,,,,,,
293008,2022-09-26_21h14.26.572,vts_reward_expectancy,2022.2.4,MacIntel,60.0024001,Chrome,1440,900,,,,,1,861,,,,,,,,,,,,,,,,,146,F,circle,1,0,,,,,,,,,,,,,,,,repeat,number,numRpt,d,Lo,,,,,,0.8488,2,,,,,,,,low,26,0,26,0,1,,,,,,,,,
293008,2022-09-26_21h14.26.572,vts_reward_expectancy,2022.2.4,MacIntel,60.0024001,Chrome,1440,900,,,,,0,861,,,,,,,,,,,,,,,,,174,D,hexagon,1,0,,,,,,,,,,,,,,,,switch,letter,lettSwt,j,Hi,,,,,,1.9455,2,,,,,,,,low,27,0,27,0,1,,,,,,,,,
293008,2022-09-26_21h14.26.572,vts_reward_expectancy,2022.2.4,MacIntel,60.0024001,Chrome,1440,900,,,,,10,871,,,,,,,,,,,,,,,,,125,S,circle,1,0,,,,,,,,,,,,,,,,repeat,letter,lettRpt,k,Lo,,,,,,1.686,2,,,,,,,,low,28,0,28,0,1,,,,,,,,,
293008,2022-09-26_21h14.26.572,vts_reward_expectancy,2022.2.4,MacIntel,60.0024001,Chrome,1440,900,,,,,0,871,,,,,,,,,,,,,,,,,167,U,hexagon,1,0,,,,,,,,,,,,,,,,switch,number,numSwt,f,Hi,,,,,,1.7364,2,,,,,,,,low,29,0,29,0,1,,,,,,,,,
293008,2022-09-26_21h14.26.572,vts_reward_expectancy,2022.2.4,MacIntel,60.0024001,Chrome,1440,900,,,,,0,871,,,,,,,,,,,,,,,,,160,B,circle,0,0,,,,,,,,,,,,,,,,repeat,number,NA,d,Hi,,,,,,1.3489,2,,,,,,,,low,30,0,30,0,1,,,,,,,,,
293008,2022-09-26_21h14.26.572,vts_reward_expectancy,2022.2.4,MacIntel,60.0024001,Chrome,1440,900,,,,,0,871,,,,,,,,,,,,,,,,,139,H,hexagon,0,1,,,,,,,,,,,,,,,,switch,letter,NA,k,Hi,,,,,,0.8366,2,,,,,,,,low,31,0,31,0,1,,,,,,,,,
293008,2022-09-26_21h14.26.572,vts_reward_expectancy,2022.2.4,MacIntel,60.0024001,Chrome,1440,900,,,,,1,872,,,,,,,,,,,,,,,,,167,U,star,1,1,,,,,,,,,,,,,,,,repeat,letter,lettRpt,k,Hi,,,,,,1.1328,3,,,,,,space,2.9416,high,0,0,0,0,1,,,,,,,,,
293008,2022-09-26_21h14.26.572,vts_reward_expectancy,2022.2.4,MacIntel,60.0024001,Chrome,1440,900,,,,,0,872,,,,,,,,,,,,,,,,,174,S,triangle,0,0,,,,,,,,,,,,,,,,repeat,letter,NA,j,Hi,,,,,,0.552,3,,,,,,,,high,1,0,1,0,1,,,,,,,,,
293008,2022-09-26_21h14.26.572,vts_reward_expectancy,2022.2.4,MacIntel,60.0024001,Chrome,1440,900,,,,,0,872,,,,,,,,,,,,,,,,,125,W,star,1,1,,,,,,,,,,,,,,,,repeat,letter,lettRpt,k,Hi,,,,,,2.1137,3,,,,,,,,high,2,0,2,0,1,,,,,,,,,
293008,2022-09-26_21h14.26.572,vts_reward_expectancy,2022.2.4,MacIntel,60.0024001,Chrome,1440,900,,,,,1,873,,,,,,,,,,,,,,,,,132,F,triangle,1,0,,,,,,,,,,,,,,,,switch,number,numSwt,d,Lo,,,,,,1.0845,3,,,,,,,,high,3,0,3,0,1,,,,,,,,,
293008,2022-09-26_21h14.26.572,vts_reward_expectancy,2022.2.4,MacIntel,60.0024001,Chrome,1440,900,,,,,0,873,,,,,,,,,,,,,,,,,181,B,star,1,0,,,,,,,,,,,,,,,,repeat,number,numRpt,f,Hi,,,,,,2.3015,3,,,,,,,,high,4,0,4,0,1,,,,,,,,,
293008,2022-09-26_21h14.26.572,vts_reward_expectancy,2022.2.4,MacIntel,60.0024001,Chrome,1440,900,,,,,1,874,,,,,,,,,,,,,,,,,146,D,triangle,1,0,,,,,,,,,,,,,,,,switch,letter,lettSwt,j,Lo,,,,,,0.9712,3,,,,,,,,high,5,0,5,0,1,,,,,,,,,
293008,2022-09-26_21h14.26.572,vts_reward_expectancy,2022.2.4,MacIntel,60.0024001,Chrome,1440,900,,,,,10,884,,,,,,,,,,,,,,,,,160,H,star,1,0,,,,,,,,,,,,,,,,repeat,letter,lettRpt,j,Hi,,,,,,1.5837,3,,,,,,,,high,6,0,6,0,1,,,,,,,,,
293008,2022-09-26_21h14.26.572,vts_reward_expectancy,2022.2.4,MacIntel,60.0024001,Chrome,1440,900,,,,,0,884,,,,,,,,,,,,,,,,,139,Y,triangle,0,0,,,,,,,,,,,,,,,,switch,number,NA,f,Hi,,,,,,2.1795,3,,,,,,,,high,7,0,7,0,1,,,,,,,,,
293008,2022-09-26_21h14.26.572,vts_reward_expectancy,2022.2.4,MacIntel,60.0024001,Chrome,1440,900,,,,,0,884,,,,,,,,,,,,,,,,,167,U,star,1,1,,,,,,,,,,,,,,,,repeat,number,numRpt,f,Hi,,,,,,1.7125,3,,,,,,,,high,8,0,8,0,1,,,,,,,,,
293008,2022-09-26_21h14.26.572,vts_reward_expectancy,2022.2.4,MacIntel,60.0024001,Chrome,1440,900,,,,,1,885,,,,,,,,,,,,,,,,,174,S,triangle,1,0,,,,,,,,,,,,,,,,repeat,number,numRpt,f,Lo,,,,,,1.3466,3,,,,,,,,high,9,0,9,0,1,,,,,,,,,
293008,2022-09-26_21h14.26.572,vts_reward_expectancy,2022.2.4,MacIntel,60.0024001,Chrome,1440,900,,,,,1,886,,,,,,,,,,,,,,,,,125,W,triangle,1,0,,,,,,,,,,,,,,,,switch,letter,lettSwt,k,Lo,,,,,,2.4013,3,,,,,,,,high,10,0,10,0,1,,,,,,,,,
293008,2022-09-26_21h14.26.572,vts_reward_expectancy,2022.2.4,MacIntel,60.0024001,Chrome,1440,900,,,,,10,896,,,,,,,,,,,,,,,,,132,F,star,1,0,,,,,,,,,,,,,,,,repeat,letter,lettRpt,j,Hi,,,,,,1.3031,3,,,,,,,,high,11,0,11,0,1,,,,,,,,,
293008,2022-09-26_21h14.26.572,vts_reward_expectancy,2022.2.4,MacIntel,60.0024001,Chrome,1440,900,,,,,1,897,,,,,,,,,,,,,,,,,181,B,star,1,0,,,,,,,,,,,,,,,,repeat,letter,lettRpt,j,Hi,,,,,,1.255,3,,,,,,,,high,12,0,12,0,1,,,,,,,,,
293008,2022-09-26_21h14.26.572,vts_reward_expectancy,2022.2.4,MacIntel,60.0024001,Chrome,1440,900,,,,,1,898,,,,,,,,,,,,,,,,,146,D,triangle,1,0,,,,,,,,,,,,,,,,repeat,letter,lettRpt,j,Lo,,,,,,1.5809,3,,,,,,,,high,13,0,13,0,1,,,,,,,,,
293008,2022-09-26_21h14.26.572,vts_reward_expectancy,2022.2.4,MacIntel,60.0024001,Chrome,1440,900,,,,,1,899,,,,,,,,,,,,,,,,,160,H,triangle,1,0,,,,,,,,,,,,,,,,switch,number,numSwt,f,Lo,,,,,,1.3189,3,,,,,,,,high,14,0,14,0,1,,,,,,,,,
293008,2022-09-26_21h14.26.572,vts_reward_expectancy,2022.2.4,MacIntel,60.0024001,Chrome,1440,900,,,,,0,899,,,,,,,,,,,,,,,,,139,Y,star,1,0,,,,,,,,,,,,,,,,switch,letter,lettSwt,k,Hi,,,,,,1.8477,3,,,,,,,,high,15,0,15,0,1,,,,,,,,,
293008,2022-09-26_21h14.26.572,vts_reward_expectancy,2022.2.4,MacIntel,60.0024001,Chrome,1440,900,,,,,10,909,,,,,,,,,,,,,,,,,146,Y,star,1,0,,,,,,,,,,,,,,,,repeat,letter,lettRpt,k,Hi,,,,,,1.2399,3,,,,,,,,high,16,0,16,0,1,,,,,,,,,
293008,2022-09-26_21h14.26.572,vts_reward_expectancy,2022.2.4,MacIntel,60.0024001,Chrome,1440,900,,,,,1,910,,,,,,,,,,,,,,,,,139,D,triangle,1,0,,,,,,,,,,,,,,,,repeat,letter,lettRpt,j,Lo,,,,,,1.299,3,,,,,,,,high,17,0,17,0,1,,,,,,,,,
293008,2022-09-26_21h14.26.572,vts_reward_expectancy,2022.2.4,MacIntel,60.0024001,Chrome,1440,900,,,,,1,911,,,,,,,,,,,,,,,,,167,H,star,1,0,,,,,,,,,,,,,,,,switch,number,numSwt,f,Hi,,,,,,1.0389,3,,,,,,,,high,18,0,18,0,1,,,,,,,,,
293008,2022-09-26_21h14.26.572,vts_reward_expectancy,2022.2.4,MacIntel,60.0024001,Chrome,1440,900,,,,,1,912,,,,,,,,,,,,,,,,,132,W,triangle,1,0,,,,,,,,,,,,,,,,switch,letter,lettSwt,k,Lo,,,,,,2.1117,3,,,,,,,,high,19,0,19,0,1,,,,,,,,,
293008,2022-09-26_21h14.26.572,vts_reward_expectancy,2022.2.4,MacIntel,60.0024001,Chrome,1440,900,,,,,0,912,,,,,,,,,,,,,,,,,160,S,star,0,0,,,,,,,,,,,,,,,,repeat,letter,NA,j,Lo,,,,,,1.7614,3,,,,,,,,high,20,0,20,0,1,,,,,,,,,
293008,2022-09-26_21h14.26.572,vts_reward_expectancy,2022.2.4,MacIntel,60.0024001,Chrome,1440,900,,,,,1,913,,,,,,,,,,,,,,,,,174,B,triangle,1,1,,,,,,,,,,,,,,,,switch,number,numSwt,f,Lo,,,,,,1.8822,3,,,,,,,,high,21,0,21,0,1,,,,,,,,,
293008,2022-09-26_21h14.26.572,vts_reward_expectancy,2022.2.4,MacIntel,60.0024001,Chrome,1440,900,,,,,0,913,,,,,,,,,,,,,,,,,125,U,star,1,0,,,,,,,,,,,,,,,,switch,letter,lettSwt,k,Hi,,,,,,2.6496,3,,,,,,,,high,22,0,22,0,1,,,,,,,,,
293008,2022-09-26_21h14.26.572,vts_reward_expectancy,2022.2.4,MacIntel,60.0024001,Chrome,1440,900,,,,,1,914,,,,,,,,,,,,,,,,,181,F,triangle,1,0,,,,,,,,,,,,,,,,switch,number,numSwt,f,Lo,,,,,,1.2327,3,,,,,,,,high,23,0,23,0,1,,,,,,,,,
293008,2022-09-26_21h14.26.572,vts_reward_expectancy,2022.2.4,MacIntel,60.0024001,Chrome,1440,900,,,,,1,915,,,,,,,,,,,,,,,,,181,W,triangle,1,0,,,,,,,,,,,,,,,,repeat,number,numRpt,f,Lo,,,,,,1.2249,3,,,,,,,,high,24,0,24,0,1,,,,,,,,,
293008,2022-09-26_21h14.26.572,vts_reward_expectancy,2022.2.4,MacIntel,60.0024001,Chrome,1440,900,,,,,0,915,,,,,,,,,,,,,,,,,174,D,star,1,0,,,,,,,,,,,,,,,,switch,letter,lettSwt,j,Hi,,,,,,1.6418,3,,,,,,,,high,25,0,25,0,1,,,,,,,,,
293008,2022-09-26_21h14.26.572,vts_reward_expectancy,2022.2.4,MacIntel,60.0024001,Chrome,1440,900,,,,,1,916,,,,,,,,,,,,,,,,,139,S,triangle,1,0,,,,,,,,,,,,,,,,switch,number,numSwt,d,Lo,,,,,,2.2822,3,,,,,,,,high,26,0,26,0,1,,,,,,,,,
293008,2022-09-26_21h14.26.572,vts_reward_expectancy,2022.2.4,MacIntel,60.0024001,Chrome,1440,900,,,,,0,916,,,,,,,,,,,,,,,,,167,H,star,1,0,,,,,,,,,,,,,,,,switch,letter,lettSwt,j,Hi,,,,,,1.6669,3,,,,,,,,high,27,0,27,0,1,,,,,,,,,
293008,2022-09-26_21h14.26.572,vts_reward_expectancy,2022.2.4,MacIntel,60.0024001,Chrome,1440,900,,,,,0,916,,,,,,,,,,,,,,,,,146,Y,star,1,0,,,,,,,,,,,,,,,,repeat,letter,lettRpt,k,Hi,,,,,,1.7518,3,,,,,,,,high,28,0,28,0,1,,,,,,,,,
293008,2022-09-26_21h14.26.572,vts_reward_expectancy,2022.2.4,MacIntel,60.0024001,Chrome,1440,900,,,,,1,917,,,,,,,,,,,,,,,,,160,B,triangle,1,0,,,,,,,,,,,,,,,,repeat,letter,lettRpt,j,Lo,,,,,,1.4954,3,,,,,,,,high,29,0,29,0,1,,,,,,,,,
293008,2022-09-26_21h14.26.572,vts_reward_expectancy,2022.2.4,MacIntel,60.0024001,Chrome,1440,900,,,,,0,917,,,,,,,,,,,,,,,,,132,U,star,-1,0,,,,,,,,,,,,,,,,switch,no_choice,NA,,Lo,,,,,,,3,,,,,,,,high,30,0,30,0,1,,,,,,,,,
293008,2022-09-26_21h14.26.572,vts_reward_expectancy,2022.2.4,MacIntel,60.0024001,Chrome,1440,900,,,,,1,918,,,,,,,,,,,,,,,,,125,F,triangle,1,0,,,,,,,,,,,,,,,,switch,letter,lettSwt,j,Lo,,,,,,1.3344,3,,,,,,,,high,31,0,31,0,1,,,,,,,,,
293008,2022-09-26_21h14.26.572,vts_reward_expectancy,2022.2.4,MacIntel,60.0024001,Chrome,1440,900,,,,,1,919,,,,,,,,,,,,,,,,,174,B,triangle,1,0,,,,,,,,,,,,,,,,repeat,letter,lettRpt,j,Lo,,,,,,1.3329,4,,,,,,space,1.1232,high,0,0,0,0,1,,,,,,,,,
293008,2022-09-26_21h14.26.572,vts_reward_expectancy,2022.2.4,MacIntel,60.0024001,Chrome,1440,900,,,,,0,919,,,,,,,,,,,,,,,,,181,S,star,1,0,,,,,,,,,,,,,,,,repeat,letter,lettRpt,k,Hi,,,,,,1.6326,4,,,,,,,,high,1,0,1,0,1,,,,,,,,,
293008,2022-09-26_21h14.26.572,vts_reward_expectancy,2022.2.4,MacIntel,60.0024001,Chrome,1440,900,,,,,0,919,,,,,,,,,,,,,,,,,132,F,triangle,-1,0,,,,,,,,,,,,,,,,switch,no_choice,NA,,Hi,,,,,,,4,,,,,,,,high,2,0,2,0,1,,,,,,,,,
293008,2022-09-26_21h14.26.572,vts_reward_expectancy,2022.2.4,MacIntel,60.0024001,Chrome,1440,900,,,,,0,919,,,,,,,,,,,,,,,,,125,W,star,1,0,,,,,,,,,,,,,,,,switch,number,numSwt,d,Hi,,,,,,1.9445,4,,,,,,,,high,3,0,3,0,1,,,,,,,,,
293008,2022-09-26_21h14.26.572,vts_reward_expectancy,2022.2.4,MacIntel,60.0024001,Chrome,1440,900,,,,,10,929,,,,,,,,,,,,,,,,,146,H,star,1,0,,,,,,,,,,,,,,,,switch,letter,lettSwt,j,Hi,,,,,,1.5823,4,,,,,,,,high,4,0,4,0,1,,,,,,,,,
293008,2022-09-26_21h14.26.572,vts_reward_expectancy,2022.2.4,MacIntel,60.0024001,Chrome,1440,900,,,,,1,930,,,,,,,,,,,,,,,,,160,Y,triangle,1,0,,,,,,,,,,,,,,,,repeat,letter,lettRpt,k,Lo,,,,,,1.5994,4,,,,,,,,high,5,0,5,0,1,,,,,,,,,
293008,2022-09-26_21h14.26.572,vts_reward_expectancy,2022.2.4,MacIntel,60.0024001,Chrome,1440,900,,,,,0,930,,,,,,,,,,,,,,,,,139,U,triangle,0,0,,,,,,,,,,,,,,,,repeat,letter,NA,j,Lo,,,,,,1.6964,4,,,,,,,,high,6,0,6,0,1,,,,,,,,,
293008,2022-09-26_21h14.26.572,vts_reward_expectancy,2022.2.4,MacIntel,60.0024001,Chrome,1440,900,,,,,0,930,,,,,,,,,,,,,,,,,167,D,star,1,1,,,,,,,,,,,,,,,,switch,number,numSwt,f,Hi,,,,,,2.0156,4,,,,,,,,high,7,0,7,0,1,,,,,,,,,
293008,2022-09-26_21h14.26.572,vts_reward_expectancy,2022.2.4,MacIntel,60.0024001,Chrome,1440,900,,,,,1,931,,,,,,,,,,,,,,,,,174,B,triangle,1,0,,,,,,,,,,,,,,,,switch,letter,lettSwt,j,Lo,,,,,,2.2208,4,,,,,,,,high,8,0,8,0,1,,,,,,,,,
293008,2022-09-26_21h14.26.572,vts_reward_expectancy,2022.2.4,MacIntel,60.0024001,Chrome,1440,900,,,,,0,931,,,,,,,,,,,,,,,,,181,S,star,0,0,,,,,,,,,,,,,,,,switch,number,NA,d,Lo,,,,,,2.163,4,,,,,,,,high,9,0,9,0,1,,,,,,,,,
293008,2022-09-26_21h14.26.572,vts_reward_expectancy,2022.2.4,MacIntel,60.0024001,Chrome,1440,900,,,,,1,932,,,,,,,,,,,,,,,,,132,F,triangle,1,1,,,,,,,,,,,,,,,,switch,letter,lettSwt,j,Lo,,,,,,2.1328,4,,,,,,,,high,10,0,10,0,1,,,,,,,,,
293008,2022-09-26_21h14.26.572,vts_reward_expectancy,2022.2.4,MacIntel,60.0024001,Chrome,1440,900,,,,,0,932,,,,,,,,,,,,,,,,,125,W,star,1,0,,,,,,,,,,,,,,,,repeat,letter,lettRpt,k,Hi,,,,,,2.3841,4,,,,,,,,high,11,0,11,0,1,,,,,,,,,
293008,2022-09-26_21h14.26.572,vts_reward_expectancy,2022.2.4,MacIntel,60.0024001,Chrome,1440,900,,,,,0,932,,,,,,,,,,,,,,,,,146,H,star,1,0,,,,,,,,,,,,,,,,repeat,letter,lettRpt,j,Hi,,,,,,1.9159,4,,,,,,,,high,12,0,12,0,1,,,,,,,,,
293008,2022-09-26_21h14.26.572,vts_reward_expectancy,2022.2.4,MacIntel,60.0024001,Chrome,1440,900,,,,,1,933,,,,,,,,,,,,,,,,,160,Y,triangle,1,0,,,,,,,,,,,,,,,,switch,number,numSwt,f,Lo,,,,,,1.7155,4,,,,,,,,high,13,0,13,0,1,,,,,,,,,
293008,2022-09-26_21h14.26.572,vts_reward_expectancy,2022.2.4,MacIntel,60.0024001,Chrome,1440,900,,,,,0,933,,,,,,,,,,,,,,,,,139,U,star,1,0,,,,,,,,,,,,,,,,repeat,number,numRpt,d,Hi,,,,,,1.7659,4,,,,,,,,high,14,0,14,0,1,,,,,,,,,
293008,2022-09-26_21h14.26.572,vts_reward_expectancy,2022.2.4,MacIntel,60.0024001,Chrome,1440,900,,,,,1,934,,,,,,,,,,,,,,,,,167,D,triangle,1,0,,,,,,,,,,,,,,,,repeat,number,numRpt,f,Lo,,,,,,2.1885,4,,,,,,,,high,15,0,15,0,1,,,,,,,,,
293008,2022-09-26_21h14.26.572,vts_reward_expectancy,2022.2.4,MacIntel,60.0024001,Chrome,1440,900,,,,,1,935,,,,,,,,,,,,,,,,,139,F,triangle,1,0,,,,,,,,,,,,,,,,repeat,number,numRpt,d,Lo,,,,,,1.1648,4,,,,,,,,high,16,0,16,0,1,,,,,,,,,
293008,2022-09-26_21h14.26.572,vts_reward_expectancy,2022.2.4,MacIntel,60.0024001,Chrome,1440,900,,,,,10,945,,,,,,,,,,,,,,,,,160,Y,star,1,0,,,,,,,,,,,,,,,,repeat,number,numRpt,f,Hi,,,,,,0.8966,4,,,,,,,,high,17,0,17,0,1,,,,,,,,,
293008,2022-09-26_21h14.26.572,vts_reward_expectancy,2022.2.4,MacIntel,60.0024001,Chrome,1440,900,,,,,10,955,,,,,,,,,,,,,,,,,174,S,star,1,0,,,,,,,,,,,,,,,,repeat,number,numRpt,f,Hi,,,,,,1.1867,4,,,,,,,,high,18,0,18,0,1,,,,,,,,,
293008,2022-09-26_21h14.26.572,vts_reward_expectancy,2022.2.4,MacIntel,60.0024001,Chrome,1440,900,,,,,0,955,,,,,,,,,,,,,,,,,132,U,triangle,0,0,,,,,,,,,,,,,,,,switch,letter,NA,j,Hi,,,,,,1.6378,4,,,,,,,,high,19,0,19,0,1,,,,,,,,,
293008,2022-09-26_21h14.26.572,vts_reward_expectancy,2022.2.4,MacIntel,60.0024001,Chrome,1440,900,,,,,0,955,,,,,,,,,,,,,,,,,146,B,star,1,1,,,,,,,,,,,,,,,,repeat,letter,lettRpt,j,Hi,,,,,,1.8466,4,,,,,,,,high,20,0,20,0,1,,,,,,,,,
293008,2022-09-26_21h14.26.572,vts_reward_expectancy,2022.2.4,MacIntel,60.0024001,Chrome,1440,900,,,,,10,965,,,,,,,,,,,,,,,,,125,D,triangle,1,0,,,,,,,,,,,,,,,,switch,number,numSwt,d,Lo,,,,,,1.1485,4,,,,,,,,high,21,0,21,0,1,,,,,,,,,
293008,2022-09-26_21h14.26.572,vts_reward_expectancy,2022.2.4,MacIntel,60.0024001,Chrome,1440,900,,,,,1,966,,,,,,,,,,,,,,,,,181,H,triangle,1,0,,,,,,,,,,,,,,,,repeat,number,numRpt,f,Lo,,,,,,1.0331,4,,,,,,,,high,22,0,22,0,1,,,,,,,,,
293008,2022-09-26_21h14.26.572,vts_reward_expectancy,2022.2.4,MacIntel,60.0024001,Chrome,1440,900,,,,,0,966,,,,,,,,,,,,,,,,,167,W,star,1,0,,,,,,,,,,,,,,,,repeat,number,numRpt,f,Hi,,,,,,1.7507,4,,,,,,,,high,23,0,23,0,1,,,,,,,,,
293008,2022-09-26_21h14.26.572,vts_reward_expectancy,2022.2.4,MacIntel,60.0024001,Chrome,1440,900,,,,,0,966,,,,,,,,,,,,,,,,,181,W,triangle,0,0,,,,,,,,,,,,,,,,switch,letter,NA,j,Hi,,,,,,0.3558,4,,,,,,,,high,24,0,24,0,1,,,,,,,,,
293008,2022-09-26_21h14.26.572,vts_reward_expectancy,2022.2.4,MacIntel,60.0024001,Chrome,1440,900,,,,,0,966,,,,,,,,,,,,,,,,,167,U,star,0,1,,,,,,,,,,,,,,,,repeat,letter,NA,j,Hi,,,,,,0.2141,4,,,,,,,,high,25,0,25,0,1,,,,,,,,,
293008,2022-09-26_21h14.26.572,vts_reward_expectancy,2022.2.4,MacIntel,60.0024001,Chrome,1440,900,,,,,1,967,,,,,,,,,,,,,,,,,160,F,triangle,1,1,,,,,,,,,,,,,,,,repeat,letter,lettRpt,j,Lo,,,,,,1.1168,4,,,,,,,,high,26,0,26,0,1,,,,,,,,,
293008,2022-09-26_21h14.26.572,vts_reward_expectancy,2022.2.4,MacIntel,60.0024001,Chrome,1440,900,,,,,0,967,,,,,,,,,,,,,,,,,125,H,star,1,0,,,,,,,,,,,,,,,,repeat,letter,lettRpt,j,Hi,,,,,,1.7286,4,,,,,,,,high,27,0,27,0,1,,,,,,,,,
293008,2022-09-26_21h14.26.572,vts_reward_expectancy,2022.2.4,MacIntel,60.0024001,Chrome,1440,900,,,,,0,967,,,,,,,,,,,,,,,,,139,Y,star,0,0,,,,,,,,,,,,,,,,repeat,letter,NA,j,Hi,,,,,,0.8185,4,,,,,,,,high,28,0,28,0,1,,,,,,,,,
293008,2022-09-26_21h14.26.572,vts_reward_expectancy,2022.2.4,MacIntel,60.0024001,Chrome,1440,900,,,,,1,968,,,,,,,,,,,,,,,,,132,B,triangle,1,1,,,,,,,,,,,,,,,,repeat,letter,lettRpt,j,Lo,,,,,,1.5817,4,,,,,,,,high,29,0,29,0,1,,,,,,,,,
293008,2022-09-26_21h14.26.572,vts_reward_expectancy,2022.2.4,MacIntel,60.0024001,Chrome,1440,900,,,,,10,978,,,,,,,,,,,,,,,,,174,S,star,1,0,,,,,,,,,,,,,,,,switch,number,numSwt,f,Hi,,,,,,0.618,4,,,,,,,,high,30,0,30,0,1,,,,,,,,,
293008,2022-09-26_21h14.26.572,vts_reward_expectancy,2022.2.4,MacIntel,60.0024001,Chrome,1440,900,,,,,1,979,,,,,,,,,,,,,,,,,146,D,triangle,1,0,,,,,,,,,,,,,,,,switch,letter,lettSwt,j,Lo,,,,,,0.8179,4,,,,,,,,high,31,0,31,0,1,,,,,,,,,
293008,2022-09-26_21h14.26.572,vts_reward_expectancy,2022.2.4,MacIntel,60.0024001,Chrome,1440,900,,,,,10,989,,,,,,,,,,,,,,,,,181,U,circle,1,0,,,,,,,,,,,,,,,,switch,number,numSwt,f,Lo,,,,,,0.9483,5,,,,,,space,0.8246,low,0,0,0,0,1,,,,,,,,,
293008,2022-09-26_21h14.26.572,vts_reward_expectancy,2022.2.4,MacIntel,60.0024001,Chrome,1440,900,,,,,0,989,,,,,,,,,,,,,,,,,132,Y,hexagon,0,0,,,,,,,,,,,,,,,,switch,letter,NA,j,Lo,,,,,,1.8696,5,,,,,,,,low,1,0,1,0,1,,,,,,,,,
293008,2022-09-26_21h14.26.572,vts_reward_expectancy,2022.2.4,MacIntel,60.0024001,Chrome,1440,900,,,,,10,999,,,,,,,,,,,,,,,,,160,S,circle,1,1,,,,,,,,,,,,,,,,repeat,letter,lettRpt,k,Lo,,,,,,1.495,5,,,,,,,,low,2,0,2,0,1,,,,,,,,,
293008,2022-09-26_21h14.26.572,vts_reward_expectancy,2022.2.4,MacIntel,60.0024001,Chrome,1440,900,,,,,0,999,,,,,,,,,,,,,,,,,125,D,hexagon,1,0,,,,,,,,,,,,,,,,repeat,letter,lettRpt,j,Hi,,,,,,2.0319,5,,,,,,,,low,3,0,3,0,1,,,,,,,,,
293008,2022-09-26_21h14.26.572,vts_reward_expectancy,2022.2.4,MacIntel,60.0024001,Chrome,1440,900,,,,,0,999,,,,,,,,,,,,,,,,,146,B,hexagon,1,0,,,,,,,,,,,,,,,,repeat,letter,lettRpt,j,Hi,,,,,,1.764,5,,,,,,,,low,4,0,4,0,1,,,,,,,,,
293008,2022-09-26_21h14.26.572,vts_reward_expectancy,2022.2.4,MacIntel,60.0024001,Chrome,1440,900,,,,,0,999,,,,,,,,,,,,,,,,,167,H,circle,0,0,,,,,,,,,,,,,,,,repeat,letter,NA,k,Hi,,,,,,1.3992,5,,,,,,,,low,5,0,5,0,1,,,,,,,,,
293008,2022-09-26_21h14.26.572,vts_reward_expectancy,2022.2.4,MacIntel,60.0024001,Chrome,1440,900,,,,,10,1009,,,,,,,,,,,,,,,,,139,F,hexagon,1,1,,,,,,,,,,,,,,,,switch,number,numSwt,d,Hi,,,,,,0.9883,5,,,,,,,,low,6,0,6,0,1,,,,,,,,,
293008,2022-09-26_21h14.26.572,vts_reward_expectancy,2022.2.4,MacIntel,60.0024001,Chrome,1440,900,,,,,1,1010,,,,,,,,,,,,,,,,,174,W,circle,1,0,,,,,,,,,,,,,,,,repeat,number,numRpt,f,Lo,,,,,,1.2969,5,,,,,,,,low,7,0,7,0,1,,,,,,,,,
293008,2022-09-26_21h14.26.572,vts_reward_expectancy,2022.2.4,MacIntel,60.0024001,Chrome,1440,900,,,,,10,1020,,,,,,,,,,,,,,,,,181,U,circle,1,0,,,,,,,,,,,,,,,,switch,letter,lettSwt,k,Lo,,,,,,0.918,5,,,,,,,,low,8,0,8,0,1,,,,,,,,,
293008,2022-09-26_21h14.26.572,vts_reward_expectancy,2022.2.4,MacIntel,60.0024001,Chrome,1440,900,,,,,0,1020,,,,,,,,,,,,,,,,,132,Y,hexagon,1,0,,,,,,,,,,,,,,,,repeat,letter,lettRpt,k,Hi,,,,,,2.6713,5,,,,,,,,low,9,0,9,0,1,,,,,,,,,
293008,2022-09-26_21h14.26.572,vts_reward_expectancy,2022.2.4,MacIntel,60.0024001,Chrome,1440,900,,,,,0,1020,,,,,,,,,,,,,,,,,160,S,hexagon,1,0,,,,,,,,,,,,,,,,repeat,letter,lettRpt,k,Hi,,,,,,2.2642,5,,,,,,,,low,10,0,10,0,1,,,,,,,,,
293008,2022-09-26_21h14.26.572,vts_reward_expectancy,2022.2.4,MacIntel,60.0024001,Chrome,1440,900,,,,,1,1021,,,,,,,,,,,,,,,,,125,D,circle,1,0,,,,,,,,,,,,,,,,repeat,letter,lettRpt,j,Lo,,,,,,0.8388,5,,,,,,,,low,11,0,11,0,1,,,,,,,,,
293008,2022-09-26_21h14.26.572,vts_reward_expectancy,2022.2.4,MacIntel,60.0024001,Chrome,1440,900,,,,,10,1031,,,,,,,,,,,,,,,,,146,B,hexagon,1,0,,,,,,,,,,,,,,,,repeat,letter,lettRpt,j,Hi,,,,,,0.8412,5,,,,,,,,low,12,0,12,0,1,,,,,,,,,
293008,2022-09-26_21h14.26.572,vts_reward_expectancy,2022.2.4,MacIntel,60.0024001,Chrome,1440,900,,,,,0,1031,,,,,,,,,,,,,,,,,167,H,circle,-1,0,,,,,,,,,,,,,,,,switch,no_choice,NA,,Hi,,,,,,,5,,,,,,,,low,13,0,13,0,1,,,,,,,,,
293008,2022-09-26_21h14.26.572,vts_reward_expectancy,2022.2.4,MacIntel,60.0024001,Chrome,1440,900,,,,,1,1032,,,,,,,,,,,,,,,,,139,F,hexagon,1,0,,,,,,,,,,,,,,,,switch,letter,lettSwt,j,Hi,,,,,,1.1304,5,,,,,,,,low,14,0,14,0,1,,,,,,,,,
293008,2022-09-26_21h14.26.572,vts_reward_expectancy,2022.2.4,MacIntel,60.0024001,Chrome,1440,900,,,,,1,1033,,,,,,,,,,,,,,,,,174,W,circle,1,0,,,,,,,,,,,,,,,,repeat,letter,lettRpt,k,Lo,,,,,,0.972,5,,,,,,,,low,15,0,15,0,1,,,,,,,,,
293008,2022-09-26_21h14.26.572,vts_reward_expectancy,2022.2.4,MacIntel,60.0024001,Chrome,1440,900,,,,,1,1034,,,,,,,,,,,,,,,,,139,W,circle,1,0,,,,,,,,,,,,,,,,repeat,letter,lettRpt,k,Lo,,,,,,2.2006,5,,,,,,,,low,16,0,16,0,1,,,,,,,,,
293008,2022-09-26_21h14.26.572,vts_reward_expectancy,2022.2.4,MacIntel,60.0024001,Chrome,1440,900,,,,,1,1035,,,,,,,,,,,,,,,,,132,F,hexagon,1,0,,,,,,,,,,,,,,,,repeat,letter,lettRpt,j,Hi,,,,,,1.0178,5,,,,,,,,low,17,0,17,0,1,,,,,,,,,
