participant,date,expName,psychopyVersion,OS,frameRate,browser,xResolution,yResolution,key_resp.keys,key_resp.rt,training_resp.keys,training_resp.rt,points_trial,points_cumul,trainBlock,training.thisRepN,training.thisTrialN,training.thisN,training.thisIndex,training.ran,LTriangleOpac,LCircleOpac,LHexagonOpac,LStarOpac,RTriangleOpac,RCircleOpac,RHexagonOpac,RStarOpac,LShape_ID,RShape_ID,curr_topStim,curr_bottStim,curr_shape,acc,E1,target_resp_prac1.keys,pracBlock,task1_prac_trials.thisRepN,task1_prac_trials.thisTrialN,task1_prac_trials.thisN,task1_prac_trials.thisIndex,task1_prac_trials.ran,target_resp_prac1.rt,target_resp_prac2.keys,target_resp_prac2.rt,task2_praac_trials.thisRepN,task2_praac_trials.thisTrialN,task2_praac_trials.thisN,task2_praac_trials.thisIndex,task2_praac_trials.ran,alt,task,condition,target_resp.keys,target_resp.rt,rewCond,vts_practice_trials.thisRepN,vts_practice_trials.thisTrialN,vts_practice_trials.thisN,vts_practice_trials.thisIndex,vts_practice_trials.ran,blockNum,trials_norew.thisRepN,trials_norew.thisTrialN,trials_norew.thisN,trials_norew.thisIndex,trials_norew.ran,key_resp_2.keys,key_resp_2.rt,rewExpect,trials_rew.thisRepN,trials_rew.thisTrialN,trials_rew.thisN,trials_rew.thisIndex,trials_rew.ran,Q1,Q2,Q2_text,Q3,Q4,Q5,Q5_text,xRes,yRes
293338,2022-10-03_15h57.26.232,vts_reward_expectancy,2022.2.4,Win32,15.05162708,Chrome,1536,864,,,,,,,,,,,,,,,,,,,,,,,,,,,,,,,,,,,,,,,,,,,,,,,,,,,,,,,,,,,,,,,,,,,,,,,,,,,,
293338,2022-10-03_15h57.26.232,vts_reward_expectancy,2022.2.4,Win32,15.05162708,Chrome,1536,864,space,68.304,,,,,,,,,,,,,,,,,,,,,,,,,,,,,,,,,,,,,,,,,,,,,,,,,,,,,,,,,,,,,,,,,,,,,,,,,,
293338,2022-10-03_15h57.26.232,vts_reward_expectancy,2022.2.4,Win32,15.05162708,Chrome,1536,864,,,,,,,,,,,,,,,,,,,,,,,,,,,,,,,,,,,,,,,,,,,,,,,,,,,,,,,,,,,,,,,,,,,,,,,,,,,,
293338,2022-10-03_15h57.26.232,vts_reward_expectancy,2022.2.4,Win32,15.05162708,Chrome,1536,864,,,l,1.053,1,1,0,0,0,0,9,1,0,0,0,1,1,0,0,0,star,triangle,,,,,,,,,,,,,,,,,,,,,,,,,,,,,,,,,,,,,,,,,,,,,,,,,,,,,,
293338,2022-10-03_15h57.26.232,vts_reward_expectancy,2022.2.4,Win32,15.05162708,Chrome,1536,864,,,a,1.4719,1,2,0,0,1,1,10,1,0,0,0,1,0,1,0,0,star ,circle,,,,,,,,,,,,,,,,,,,,,,,,,,,,,,,,,,,,,,,,,,,,,,,,,,,,,,
293338,2022-10-03_15h57.26.232,vts_reward_expectancy,2022.2.4,Win32,15.05162708,Chrome,1536,864,,,l,2.4534,10,12,0,0,2,2,0,1,1,0,0,0,0,1,0,0,triangle,circle,,,,,,,,,,,,,,,,,,,,,,,,,,,,,,,,,,,,,,,,,,,,,,,,,,,,,,
293338,2022-10-03_15h57.26.232,vts_reward_expectancy,2022.2.4,Win32,15.05162708,Chrome,1536,864,,,a,1.4823,10,22,0,0,3,3,4,1,0,1,0,0,0,0,1,0,circle,hexagon,,,,,,,,,,,,,,,,,,,,,,,,,,,,,,,,,,,,,,,,,,,,,,,,,,,,,,
293338,2022-10-03_15h57.26.232,vts_reward_expectancy,2022.2.4,Win32,15.05162708,Chrome,1536,864,,,a,1.6722,10,32,0,0,4,4,6,1,0,0,1,0,1,0,0,0,hexagon,triangle,,,,,,,,,,,,,,,,,,,,,,,,,,,,,,,,,,,,,,,,,,,,,,,,,,,,,,
293338,2022-10-03_15h57.26.232,vts_reward_expectancy,2022.2.4,Win32,15.05162708,Chrome,1536,864,,,l,1.6749,10,42,0,0,5,5,1,1,1,0,0,0,0,0,1,0,triangle,hexagon,,,,,,,,,,,,,,,,,,,,,,,,,,,,,,,,,,,,,,,,,,,,,,,,,,,,,,
293338,2022-10-03_15h57.26.232,vts_reward_expectancy,2022.2.4,Win32,15.05162708,Chrome,1536,864,,,l,2.2097,1,43,0,0,6,6,2,1,1,0,0,0,0,0,0,1,triangle,star,,,,,,,,,,,,,,,,,,,,,,,,,,,,,,,,,,,,,,,,,,,,,,,,,,,,,,
293338,2022-10-03_15h57.26.232,vts_reward_expectancy,2022.2.4,Win32,15.05162708,Chrome,1536,864,,,a,0.9521,10,53,0,0,7,7,3,1,0,1,0,0,1,0,0,0,circle,triangle,,,,,,,,,,,,,,,,,,,,,,,,,,,,,,,,,,,,,,,,,,,,,,,,,,,,,,
293338,2022-10-03_15h57.26.232,vts_reward_expectancy,2022.2.4,Win32,15.05162708,Chrome,1536,864,,,a,1.1559,10,63,0,0,8,8,8,1,0,0,1,0,0,0,0,1,hexagon,star,,,,,,,,,,,,,,,,,,,,,,,,,,,,,,,,,,,,,,,,,,,,,,,,,,,,,,
293338,2022-10-03_15h57.26.232,vts_reward_expectancy,2022.2.4,Win32,15.05162708,Chrome,1536,864,,,l,0.629,10,73,0,0,9,9,11,1,0,0,0,1,0,0,1,0,star,hexagon,,,,,,,,,,,,,,,,,,,,,,,,,,,,,,,,,,,,,,,,,,,,,,,,,,,,,,
293338,2022-10-03_15h57.26.232,vts_reward_expectancy,2022.2.4,Win32,15.05162708,Chrome,1536,864,,,a,0.6463,10,83,0,0,10,10,5,1,0,1,0,0,0,0,0,1,circle,star,,,,,,,,,,,,,,,,,,,,,,,,,,,,,,,,,,,,,,,,,,,,,,,,,,,,,,
293338,2022-10-03_15h57.26.232,vts_reward_expectancy,2022.2.4,Win32,15.05162708,Chrome,1536,864,,,a,1.2555,1,84,0,0,11,11,7,1,0,0,1,0,0,1,0,0,hexagon,circle,,,,,,,,,,,,,,,,,,,,,,,,,,,,,,,,,,,,,,,,,,,,,,,,,,,,,,
293338,2022-10-03_15h57.26.232,vts_reward_expectancy,2022.2.4,Win32,15.05162708,Chrome,1536,864,,,l,0.7446,10,94,0,1,0,12,7,1,0,0,1,0,0,1,0,0,hexagon,circle,,,,,,,,,,,,,,,,,,,,,,,,,,,,,,,,,,,,,,,,,,,,,,,,,,,,,,
293338,2022-10-03_15h57.26.232,vts_reward_expectancy,2022.2.4,Win32,15.05162708,Chrome,1536,864,,,a,0.7437,10,104,0,1,1,13,3,1,0,1,0,0,1,0,0,0,circle,triangle,,,,,,,,,,,,,,,,,,,,,,,,,,,,,,,,,,,,,,,,,,,,,,,,,,,,,,
293338,2022-10-03_15h57.26.232,vts_reward_expectancy,2022.2.4,Win32,15.05162708,Chrome,1536,864,,,a,1.4901,10,114,0,1,2,14,4,1,0,1,0,0,0,0,1,0,circle,hexagon,,,,,,,,,,,,,,,,,,,,,,,,,,,,,,,,,,,,,,,,,,,,,,,,,,,,,,
293338,2022-10-03_15h57.26.232,vts_reward_expectancy,2022.2.4,Win32,15.05162708,Chrome,1536,864,,,l,0.9459,10,124,0,1,3,15,1,1,1,0,0,0,0,0,1,0,triangle,hexagon,,,,,,,,,,,,,,,,,,,,,,,,,,,,,,,,,,,,,,,,,,,,,,,,,,,,,,
293338,2022-10-03_15h57.26.232,vts_reward_expectancy,2022.2.4,Win32,15.05162708,Chrome,1536,864,,,l,0.8284,1,125,0,1,4,16,11,1,0,0,0,1,0,0,1,0,star,hexagon,,,,,,,,,,,,,,,,,,,,,,,,,,,,,,,,,,,,,,,,,,,,,,,,,,,,,,
293338,2022-10-03_15h57.26.232,vts_reward_expectancy,2022.2.4,Win32,15.05162708,Chrome,1536,864,,,l,1.0554,1,126,0,1,5,17,8,1,0,0,1,0,0,0,0,1,hexagon,star,,,,,,,,,,,,,,,,,,,,,,,,,,,,,,,,,,,,,,,,,,,,,,,,,,,,,,
293338,2022-10-03_15h57.26.232,vts_reward_expectancy,2022.2.4,Win32,15.05162708,Chrome,1536,864,,,l,1.4817,1,127,0,1,6,18,9,1,0,0,0,1,1,0,0,0,star,triangle,,,,,,,,,,,,,,,,,,,,,,,,,,,,,,,,,,,,,,,,,,,,,,,,,,,,,,
293338,2022-10-03_15h57.26.232,vts_reward_expectancy,2022.2.4,Win32,15.05162708,Chrome,1536,864,,,a,0.7421,10,137,0,1,7,19,5,1,0,1,0,0,0,0,0,1,circle,star,,,,,,,,,,,,,,,,,,,,,,,,,,,,,,,,,,,,,,,,,,,,,,,,,,,,,,
293338,2022-10-03_15h57.26.232,vts_reward_expectancy,2022.2.4,Win32,15.05162708,Chrome,1536,864,,,l,0.5302,10,147,0,1,8,20,10,1,0,0,0,1,0,1,0,0,star ,circle,,,,,,,,,,,,,,,,,,,,,,,,,,,,,,,,,,,,,,,,,,,,,,,,,,,,,,
293338,2022-10-03_15h57.26.232,vts_reward_expectancy,2022.2.4,Win32,15.05162708,Chrome,1536,864,,,a,0.7544,10,157,0,1,9,21,6,1,0,0,1,0,1,0,0,0,hexagon,triangle,,,,,,,,,,,,,,,,,,,,,,,,,,,,,,,,,,,,,,,,,,,,,,,,,,,,,,
293338,2022-10-03_15h57.26.232,vts_reward_expectancy,2022.2.4,Win32,15.05162708,Chrome,1536,864,,,l,0.7424,10,167,0,1,10,22,0,1,1,0,0,0,0,1,0,0,triangle,circle,,,,,,,,,,,,,,,,,,,,,,,,,,,,,,,,,,,,,,,,,,,,,,,,,,,,,,
293338,2022-10-03_15h57.26.232,vts_reward_expectancy,2022.2.4,Win32,15.05162708,Chrome,1536,864,,,a,0.9472,1,168,0,1,11,23,2,1,1,0,0,0,0,0,0,1,triangle,star,,,,,,,,,,,,,,,,,,,,,,,,,,,,,,,,,,,,,,,,,,,,,,,,,,,,,,
293338,2022-10-03_15h57.26.232,vts_reward_expectancy,2022.2.4,Win32,15.05162708,Chrome,1536,864,,,l,0.857,10,178,0,2,0,24,10,1,0,0,0,1,0,1,0,0,star ,circle,,,,,,,,,,,,,,,,,,,,,,,,,,,,,,,,,,,,,,,,,,,,,,,,,,,,,,
293338,2022-10-03_15h57.26.232,vts_reward_expectancy,2022.2.4,Win32,15.05162708,Chrome,1536,864,,,a,1.8875,1,179,0,2,1,25,9,1,0,0,0,1,1,0,0,0,star,triangle,,,,,,,,,,,,,,,,,,,,,,,,,,,,,,,,,,,,,,,,,,,,,,,,,,,,,,
293338,2022-10-03_15h57.26.232,vts_reward_expectancy,2022.2.4,Win32,15.05162708,Chrome,1536,864,,,a,0.6378,10,189,0,2,2,26,3,1,0,1,0,0,1,0,0,0,circle,triangle,,,,,,,,,,,,,,,,,,,,,,,,,,,,,,,,,,,,,,,,,,,,,,,,,,,,,,
293338,2022-10-03_15h57.26.232,vts_reward_expectancy,2022.2.4,Win32,15.05162708,Chrome,1536,864,,,l,0.6337,10,199,0,2,3,27,1,1,1,0,0,0,0,0,1,0,triangle,hexagon,,,,,,,,,,,,,,,,,,,,,,,,,,,,,,,,,,,,,,,,,,,,,,,,,,,,,,
293338,2022-10-03_15h57.26.232,vts_reward_expectancy,2022.2.4,Win32,15.05162708,Chrome,1536,864,,,l,0.7381,10,209,0,2,4,28,11,1,0,0,0,1,0,0,1,0,star,hexagon,,,,,,,,,,,,,,,,,,,,,,,,,,,,,,,,,,,,,,,,,,,,,,,,,,,,,,
293338,2022-10-03_15h57.26.232,vts_reward_expectancy,2022.2.4,Win32,15.05162708,Chrome,1536,864,,,l,0.6358,10,219,0,2,5,29,0,1,1,0,0,0,0,1,0,0,triangle,circle,,,,,,,,,,,,,,,,,,,,,,,,,,,,,,,,,,,,,,,,,,,,,,,,,,,,,,
293338,2022-10-03_15h57.26.232,vts_reward_expectancy,2022.2.4,Win32,15.05162708,Chrome,1536,864,,,a,0.4292,1,220,0,2,6,30,4,1,0,1,0,0,0,0,1,0,circle,hexagon,,,,,,,,,,,,,,,,,,,,,,,,,,,,,,,,,,,,,,,,,,,,,,,,,,,,,,
293338,2022-10-03_15h57.26.232,vts_reward_expectancy,2022.2.4,Win32,15.05162708,Chrome,1536,864,,,l,1.1642,10,230,0,2,7,31,7,1,0,0,1,0,0,1,0,0,hexagon,circle,,,,,,,,,,,,,,,,,,,,,,,,,,,,,,,,,,,,,,,,,,,,,,,,,,,,,,
293338,2022-10-03_15h57.26.232,vts_reward_expectancy,2022.2.4,Win32,15.05162708,Chrome,1536,864,,,a,0.6412,10,240,0,2,8,32,6,1,0,0,1,0,1,0,0,0,hexagon,triangle,,,,,,,,,,,,,,,,,,,,,,,,,,,,,,,,,,,,,,,,,,,,,,,,,,,,,,
293338,2022-10-03_15h57.26.232,vts_reward_expectancy,2022.2.4,Win32,15.05162708,Chrome,1536,864,,,a,0.5306,1,241,0,2,9,33,5,1,0,1,0,0,0,0,0,1,circle,star,,,,,,,,,,,,,,,,,,,,,,,,,,,,,,,,,,,,,,,,,,,,,,,,,,,,,,
293338,2022-10-03_15h57.26.232,vts_reward_expectancy,2022.2.4,Win32,15.05162708,Chrome,1536,864,,,l,0.632,1,242,0,2,10,34,2,1,1,0,0,0,0,0,0,1,triangle,star,,,,,,,,,,,,,,,,,,,,,,,,,,,,,,,,,,,,,,,,,,,,,,,,,,,,,,
293338,2022-10-03_15h57.26.232,vts_reward_expectancy,2022.2.4,Win32,15.05162708,Chrome,1536,864,,,l,1.48,10,252,0,2,11,35,8,1,0,0,1,0,0,0,0,1,hexagon,star,,,,,,,,,,,,,,,,,,,,,,,,,,,,,,,,,,,,,,,,,,,,,,,,,,,,,,
293338,2022-10-03_15h57.26.232,vts_reward_expectancy,2022.2.4,Win32,15.05162708,Chrome,1536,864,,,a,0.7503,10,262,1,0,0,0,5,1,0,1,0,0,0,0,0,1,circle,star,,,,,,,,,,,,,,,,,,,,,,,,,,,,,,,,,,,,,,,,,,,,,,,,,,,,,,
293338,2022-10-03_15h57.26.232,vts_reward_expectancy,2022.2.4,Win32,15.05162708,Chrome,1536,864,,,a,1.3753,10,272,1,0,1,1,11,1,0,0,0,1,0,0,1,0,star,hexagon,,,,,,,,,,,,,,,,,,,,,,,,,,,,,,,,,,,,,,,,,,,,,,,,,,,,,,
293338,2022-10-03_15h57.26.232,vts_reward_expectancy,2022.2.4,Win32,15.05162708,Chrome,1536,864,,,a,1.2723,1,273,1,0,2,2,2,1,1,0,0,0,0,0,0,1,triangle,star,,,,,,,,,,,,,,,,,,,,,,,,,,,,,,,,,,,,,,,,,,,,,,,,,,,,,,
293338,2022-10-03_15h57.26.232,vts_reward_expectancy,2022.2.4,Win32,15.05162708,Chrome,1536,864,,,l,0.6402,10,283,1,0,3,3,0,1,1,0,0,0,0,1,0,0,triangle,circle,,,,,,,,,,,,,,,,,,,,,,,,,,,,,,,,,,,,,,,,,,,,,,,,,,,,,,
293338,2022-10-03_15h57.26.232,vts_reward_expectancy,2022.2.4,Win32,15.05162708,Chrome,1536,864,,,a,0.6407,10,293,1,0,4,4,8,1,0,0,1,0,0,0,0,1,hexagon,star,,,,,,,,,,,,,,,,,,,,,,,,,,,,,,,,,,,,,,,,,,,,,,,,,,,,,,
293338,2022-10-03_15h57.26.232,vts_reward_expectancy,2022.2.4,Win32,15.05162708,Chrome,1536,864,,,a,1.0676,1,294,1,0,5,5,3,1,0,1,0,0,1,0,0,0,circle,triangle,,,,,,,,,,,,,,,,,,,,,,,,,,,,,,,,,,,,,,,,,,,,,,,,,,,,,,
293338,2022-10-03_15h57.26.232,vts_reward_expectancy,2022.2.4,Win32,15.05162708,Chrome,1536,864,,,l,0.6413,1,295,1,0,6,6,10,1,0,0,0,1,0,1,0,0,star ,circle,,,,,,,,,,,,,,,,,,,,,,,,,,,,,,,,,,,,,,,,,,,,,,,,,,,,,,
293338,2022-10-03_15h57.26.232,vts_reward_expectancy,2022.2.4,Win32,15.05162708,Chrome,1536,864,,,a,2.7532,10,305,1,0,7,7,9,1,0,0,0,1,1,0,0,0,star,triangle,,,,,,,,,,,,,,,,,,,,,,,,,,,,,,,,,,,,,,,,,,,,,,,,,,,,,,
293338,2022-10-03_15h57.26.232,vts_reward_expectancy,2022.2.4,Win32,15.05162708,Chrome,1536,864,,,l,1.386,1,306,1,0,8,8,7,1,0,0,1,0,0,1,0,0,hexagon,circle,,,,,,,,,,,,,,,,,,,,,,,,,,,,,,,,,,,,,,,,,,,,,,,,,,,,,,
293338,2022-10-03_15h57.26.232,vts_reward_expectancy,2022.2.4,Win32,15.05162708,Chrome,1536,864,,,a,0.9578,10,316,1,0,9,9,6,1,0,0,1,0,1,0,0,0,hexagon,triangle,,,,,,,,,,,,,,,,,,,,,,,,,,,,,,,,,,,,,,,,,,,,,,,,,,,,,,
293338,2022-10-03_15h57.26.232,vts_reward_expectancy,2022.2.4,Win32,15.05162708,Chrome,1536,864,,,l,1.8124,1,317,1,0,10,10,4,1,0,1,0,0,0,0,1,0,circle,hexagon,,,,,,,,,,,,,,,,,,,,,,,,,,,,,,,,,,,,,,,,,,,,,,,,,,,,,,
293338,2022-10-03_15h57.26.232,vts_reward_expectancy,2022.2.4,Win32,15.05162708,Chrome,1536,864,,,l,0.642,10,327,1,0,11,11,1,1,1,0,0,0,0,0,1,0,triangle,hexagon,,,,,,,,,,,,,,,,,,,,,,,,,,,,,,,,,,,,,,,,,,,,,,,,,,,,,,
293338,2022-10-03_15h57.26.232,vts_reward_expectancy,2022.2.4,Win32,15.05162708,Chrome,1536,864,,,l,1.2953,1,328,1,1,0,12,2,1,1,0,0,0,0,0,0,1,triangle,star,,,,,,,,,,,,,,,,,,,,,,,,,,,,,,,,,,,,,,,,,,,,,,,,,,,,,,
293338,2022-10-03_15h57.26.232,vts_reward_expectancy,2022.2.4,Win32,15.05162708,Chrome,1536,864,,,a,0.8569,1,329,1,1,1,13,3,1,0,1,0,0,1,0,0,0,circle,triangle,,,,,,,,,,,,,,,,,,,,,,,,,,,,,,,,,,,,,,,,,,,,,,,,,,,,,,
293338,2022-10-03_15h57.26.232,vts_reward_expectancy,2022.2.4,Win32,15.05162708,Chrome,1536,864,,,a,2.1239,10,339,1,1,2,14,8,1,0,0,1,0,0,0,0,1,hexagon,star,,,,,,,,,,,,,,,,,,,,,,,,,,,,,,,,,,,,,,,,,,,,,,,,,,,,,,
293338,2022-10-03_15h57.26.232,vts_reward_expectancy,2022.2.4,Win32,15.05162708,Chrome,1536,864,,,l,0.7459,10,349,1,1,3,15,11,1,0,0,0,1,0,0,1,0,star,hexagon,,,,,,,,,,,,,,,,,,,,,,,,,,,,,,,,,,,,,,,,,,,,,,,,,,,,,,
293338,2022-10-03_15h57.26.232,vts_reward_expectancy,2022.2.4,Win32,15.05162708,Chrome,1536,864,,,l,0.8577,1,350,1,1,4,16,10,1,0,0,0,1,0,1,0,0,star ,circle,,,,,,,,,,,,,,,,,,,,,,,,,,,,,,,,,,,,,,,,,,,,,,,,,,,,,,
293338,2022-10-03_15h57.26.232,vts_reward_expectancy,2022.2.4,Win32,15.05162708,Chrome,1536,864,,,a,2.1248,10,360,1,1,5,17,7,1,0,0,1,0,0,1,0,0,hexagon,circle,,,,,,,,,,,,,,,,,,,,,,,,,,,,,,,,,,,,,,,,,,,,,,,,,,,,,,
293338,2022-10-03_15h57.26.232,vts_reward_expectancy,2022.2.4,Win32,15.05162708,Chrome,1536,864,,,l,0.7478,10,370,1,1,6,18,0,1,1,0,0,0,0,1,0,0,triangle,circle,,,,,,,,,,,,,,,,,,,,,,,,,,,,,,,,,,,,,,,,,,,,,,,,,,,,,,
293338,2022-10-03_15h57.26.232,vts_reward_expectancy,2022.2.4,Win32,15.05162708,Chrome,1536,864,,,l,1.061,10,380,1,1,7,19,1,1,1,0,0,0,0,0,1,0,triangle,hexagon,,,,,,,,,,,,,,,,,,,,,,,,,,,,,,,,,,,,,,,,,,,,,,,,,,,,,,
293338,2022-10-03_15h57.26.232,vts_reward_expectancy,2022.2.4,Win32,15.05162708,Chrome,1536,864,,,a,0.9469,10,390,1,1,8,20,6,1,0,0,1,0,1,0,0,0,hexagon,triangle,,,,,,,,,,,,,,,,,,,,,,,,,,,,,,,,,,,,,,,,,,,,,,,,,,,,,,
293338,2022-10-03_15h57.26.232,vts_reward_expectancy,2022.2.4,Win32,15.05162708,Chrome,1536,864,,,l,0.5339,10,400,1,1,9,21,4,1,0,1,0,0,0,0,1,0,circle,hexagon,,,,,,,,,,,,,,,,,,,,,,,,,,,,,,,,,,,,,,,,,,,,,,,,,,,,,,
293338,2022-10-03_15h57.26.232,vts_reward_expectancy,2022.2.4,Win32,15.05162708,Chrome,1536,864,,,l,1.7857,10,410,1,1,10,22,9,1,0,0,0,1,1,0,0,0,star,triangle,,,,,,,,,,,,,,,,,,,,,,,,,,,,,,,,,,,,,,,,,,,,,,,,,,,,,,
293338,2022-10-03_15h57.26.232,vts_reward_expectancy,2022.2.4,Win32,15.05162708,Chrome,1536,864,,,a,1.9159,10,420,1,1,11,23,5,1,0,1,0,0,0,0,0,1,circle,star,,,,,,,,,,,,,,,,,,,,,,,,,,,,,,,,,,,,,,,,,,,,,,,,,,,,,,
293338,2022-10-03_15h57.26.232,vts_reward_expectancy,2022.2.4,Win32,15.05162708,Chrome,1536,864,,,l,1.0612,10,430,1,2,0,24,1,1,1,0,0,0,0,0,1,0,triangle,hexagon,,,,,,,,,,,,,,,,,,,,,,,,,,,,,,,,,,,,,,,,,,,,,,,,,,,,,,
293338,2022-10-03_15h57.26.232,vts_reward_expectancy,2022.2.4,Win32,15.05162708,Chrome,1536,864,,,l,0.63,10,440,1,2,1,25,11,1,0,0,0,1,0,0,1,0,star,hexagon,,,,,,,,,,,,,,,,,,,,,,,,,,,,,,,,,,,,,,,,,,,,,,,,,,,,,,
293338,2022-10-03_15h57.26.232,vts_reward_expectancy,2022.2.4,Win32,15.05162708,Chrome,1536,864,,,a,0.6349,10,450,1,2,2,26,6,1,0,0,1,0,1,0,0,0,hexagon,triangle,,,,,,,,,,,,,,,,,,,,,,,,,,,,,,,,,,,,,,,,,,,,,,,,,,,,,,
293338,2022-10-03_15h57.26.232,vts_reward_expectancy,2022.2.4,Win32,15.05162708,Chrome,1536,864,,,l,0.5393,1,451,1,2,3,27,4,1,0,1,0,0,0,0,1,0,circle,hexagon,,,,,,,,,,,,,,,,,,,,,,,,,,,,,,,,,,,,,,,,,,,,,,,,,,,,,,
293338,2022-10-03_15h57.26.232,vts_reward_expectancy,2022.2.4,Win32,15.05162708,Chrome,1536,864,,,a,1.0653,10,461,1,2,4,28,3,1,0,1,0,0,1,0,0,0,circle,triangle,,,,,,,,,,,,,,,,,,,,,,,,,,,,,,,,,,,,,,,,,,,,,,,,,,,,,,
293338,2022-10-03_15h57.26.232,vts_reward_expectancy,2022.2.4,Win32,15.05162708,Chrome,1536,864,,,l,0.5312,1,462,1,2,5,29,10,1,0,0,0,1,0,1,0,0,star ,circle,,,,,,,,,,,,,,,,,,,,,,,,,,,,,,,,,,,,,,,,,,,,,,,,,,,,,,
293338,2022-10-03_15h57.26.232,vts_reward_expectancy,2022.2.4,Win32,15.05162708,Chrome,1536,864,,,a,1.4887,1,463,1,2,6,30,7,1,0,0,1,0,0,1,0,0,hexagon,circle,,,,,,,,,,,,,,,,,,,,,,,,,,,,,,,,,,,,,,,,,,,,,,,,,,,,,,
293338,2022-10-03_15h57.26.232,vts_reward_expectancy,2022.2.4,Win32,15.05162708,Chrome,1536,864,,,l,2.0121,10,473,1,2,7,31,8,1,0,0,1,0,0,0,0,1,hexagon,star,,,,,,,,,,,,,,,,,,,,,,,,,,,,,,,,,,,,,,,,,,,,,,,,,,,,,,
293338,2022-10-03_15h57.26.232,vts_reward_expectancy,2022.2.4,Win32,15.05162708,Chrome,1536,864,,,l,1.5772,10,483,1,2,8,32,2,1,1,0,0,0,0,0,0,1,triangle,star,,,,,,,,,,,,,,,,,,,,,,,,,,,,,,,,,,,,,,,,,,,,,,,,,,,,,,
293338,2022-10-03_15h57.26.232,vts_reward_expectancy,2022.2.4,Win32,15.05162708,Chrome,1536,864,,,l,1.0588,1,484,1,2,9,33,5,1,0,1,0,0,0,0,0,1,circle,star,,,,,,,,,,,,,,,,,,,,,,,,,,,,,,,,,,,,,,,,,,,,,,,,,,,,,,
293338,2022-10-03_15h57.26.232,vts_reward_expectancy,2022.2.4,Win32,15.05162708,Chrome,1536,864,,,a,1.4805,10,494,1,2,10,34,9,1,0,0,0,1,1,0,0,0,star,triangle,,,,,,,,,,,,,,,,,,,,,,,,,,,,,,,,,,,,,,,,,,,,,,,,,,,,,,
293338,2022-10-03_15h57.26.232,vts_reward_expectancy,2022.2.4,Win32,15.05162708,Chrome,1536,864,,,l,2.003,10,504,1,2,11,35,0,1,1,0,0,0,0,1,0,0,triangle,circle,,,,,,,,,,,,,,,,,,,,,,,,,,,,,,,,,,,,,,,,,,,,,,,,,,,,,,
293338,2022-10-03_15h57.26.232,vts_reward_expectancy,2022.2.4,Win32,15.05162708,Chrome,1536,864,,,a,0.745,1,505,2,0,0,0,3,1,0,1,0,0,1,0,0,0,circle,triangle,,,,,,,,,,,,,,,,,,,,,,,,,,,,,,,,,,,,,,,,,,,,,,,,,,,,,,
293338,2022-10-03_15h57.26.232,vts_reward_expectancy,2022.2.4,Win32,15.05162708,Chrome,1536,864,,,a,1.8981,10,515,2,0,1,1,7,1,0,0,1,0,0,1,0,0,hexagon,circle,,,,,,,,,,,,,,,,,,,,,,,,,,,,,,,,,,,,,,,,,,,,,,,,,,,,,,
293338,2022-10-03_15h57.26.232,vts_reward_expectancy,2022.2.4,Win32,15.05162708,Chrome,1536,864,,,l,1.894,1,516,2,0,2,2,2,1,1,0,0,0,0,0,0,1,triangle,star,,,,,,,,,,,,,,,,,,,,,,,,,,,,,,,,,,,,,,,,,,,,,,,,,,,,,,
293338,2022-10-03_15h57.26.232,vts_reward_expectancy,2022.2.4,Win32,15.05162708,Chrome,1536,864,,,l,1.3722,10,526,2,0,3,3,0,1,1,0,0,0,0,1,0,0,triangle,circle,,,,,,,,,,,,,,,,,,,,,,,,,,,,,,,,,,,,,,,,,,,,,,,,,,,,,,
293338,2022-10-03_15h57.26.232,vts_reward_expectancy,2022.2.4,Win32,15.05162708,Chrome,1536,864,,,a,2.215,1,527,2,0,4,4,9,1,0,0,0,1,1,0,0,0,star,triangle,,,,,,,,,,,,,,,,,,,,,,,,,,,,,,,,,,,,,,,,,,,,,,,,,,,,,,
293338,2022-10-03_15h57.26.232,vts_reward_expectancy,2022.2.4,Win32,15.05162708,Chrome,1536,864,,,a,1.2761,1,528,2,0,5,5,5,1,0,1,0,0,0,0,0,1,circle,star,,,,,,,,,,,,,,,,,,,,,,,,,,,,,,,,,,,,,,,,,,,,,,,,,,,,,,
293338,2022-10-03_15h57.26.232,vts_reward_expectancy,2022.2.4,Win32,15.05162708,Chrome,1536,864,,,a,1.0574,10,538,2,0,6,6,8,1,0,0,1,0,0,0,0,1,hexagon,star,,,,,,,,,,,,,,,,,,,,,,,,,,,,,,,,,,,,,,,,,,,,,,,,,,,,,,
293338,2022-10-03_15h57.26.232,vts_reward_expectancy,2022.2.4,Win32,15.05162708,Chrome,1536,864,,,l,0.8512,10,548,2,0,7,7,11,1,0,0,0,1,0,0,1,0,star,hexagon,,,,,,,,,,,,,,,,,,,,,,,,,,,,,,,,,,,,,,,,,,,,,,,,,,,,,,
293338,2022-10-03_15h57.26.232,vts_reward_expectancy,2022.2.4,Win32,15.05162708,Chrome,1536,864,,,a,1.0774,10,558,2,0,8,8,6,1,0,0,1,0,1,0,0,0,hexagon,triangle,,,,,,,,,,,,,,,,,,,,,,,,,,,,,,,,,,,,,,,,,,,,,,,,,,,,,,
293338,2022-10-03_15h57.26.232,vts_reward_expectancy,2022.2.4,Win32,15.05162708,Chrome,1536,864,,,l,0.5316,10,568,2,0,9,9,4,1,0,1,0,0,0,0,1,0,circle,hexagon,,,,,,,,,,,,,,,,,,,,,,,,,,,,,,,,,,,,,,,,,,,,,,,,,,,,,,
293338,2022-10-03_15h57.26.232,vts_reward_expectancy,2022.2.4,Win32,15.05162708,Chrome,1536,864,,,l,0.6368,10,578,2,0,10,10,1,1,1,0,0,0,0,0,1,0,triangle,hexagon,,,,,,,,,,,,,,,,,,,,,,,,,,,,,,,,,,,,,,,,,,,,,,,,,,,,,,
293338,2022-10-03_15h57.26.232,vts_reward_expectancy,2022.2.4,Win32,15.05162708,Chrome,1536,864,,,a,1.1756,10,588,2,0,11,11,10,1,0,0,0,1,0,1,0,0,star ,circle,,,,,,,,,,,,,,,,,,,,,,,,,,,,,,,,,,,,,,,,,,,,,,,,,,,,,,
293338,2022-10-03_15h57.26.232,vts_reward_expectancy,2022.2.4,Win32,15.05162708,Chrome,1536,864,,,a,0.7363,1,589,2,1,0,12,9,1,0,0,0,1,1,0,0,0,star,triangle,,,,,,,,,,,,,,,,,,,,,,,,,,,,,,,,,,,,,,,,,,,,,,,,,,,,,,
293338,2022-10-03_15h57.26.232,vts_reward_expectancy,2022.2.4,Win32,15.05162708,Chrome,1536,864,,,a,1.1692,10,599,2,1,1,13,0,1,1,0,0,0,0,1,0,0,triangle,circle,,,,,,,,,,,,,,,,,,,,,,,,,,,,,,,,,,,,,,,,,,,,,,,,,,,,,,
293338,2022-10-03_15h57.26.232,vts_reward_expectancy,2022.2.4,Win32,15.05162708,Chrome,1536,864,,,a,1.1592,10,609,2,1,2,14,6,1,0,0,1,0,1,0,0,0,hexagon,triangle,,,,,,,,,,,,,,,,,,,,,,,,,,,,,,,,,,,,,,,,,,,,,,,,,,,,,,
293338,2022-10-03_15h57.26.232,vts_reward_expectancy,2022.2.4,Win32,15.05162708,Chrome,1536,864,,,a,1.1664,10,619,2,1,3,15,7,1,0,0,1,0,0,1,0,0,hexagon,circle,,,,,,,,,,,,,,,,,,,,,,,,,,,,,,,,,,,,,,,,,,,,,,,,,,,,,,
293338,2022-10-03_15h57.26.232,vts_reward_expectancy,2022.2.4,Win32,15.05162708,Chrome,1536,864,,,a,0.8464,1,620,2,1,4,16,3,1,0,1,0,0,1,0,0,0,circle,triangle,,,,,,,,,,,,,,,,,,,,,,,,,,,,,,,,,,,,,,,,,,,,,,,,,,,,,,
293338,2022-10-03_15h57.26.232,vts_reward_expectancy,2022.2.4,Win32,15.05162708,Chrome,1536,864,,,a,1.5902,1,621,2,1,5,17,10,1,0,0,0,1,0,1,0,0,star ,circle,,,,,,,,,,,,,,,,,,,,,,,,,,,,,,,,,,,,,,,,,,,,,,,,,,,,,,
293338,2022-10-03_15h57.26.232,vts_reward_expectancy,2022.2.4,Win32,15.05162708,Chrome,1536,864,,,l,2.0108,1,622,2,1,6,18,4,1,0,1,0,0,0,0,1,0,circle,hexagon,,,,,,,,,,,,,,,,,,,,,,,,,,,,,,,,,,,,,,,,,,,,,,,,,,,,,,
293338,2022-10-03_15h57.26.232,vts_reward_expectancy,2022.2.4,Win32,15.05162708,Chrome,1536,864,,,l,0.6373,10,632,2,1,7,19,11,1,0,0,0,1,0,0,1,0,star,hexagon,,,,,,,,,,,,,,,,,,,,,,,,,,,,,,,,,,,,,,,,,,,,,,,,,,,,,,
293338,2022-10-03_15h57.26.232,vts_reward_expectancy,2022.2.4,Win32,15.05162708,Chrome,1536,864,,,l,1.273,10,642,2,1,8,20,2,1,1,0,0,0,0,0,0,1,triangle,star,,,,,,,,,,,,,,,,,,,,,,,,,,,,,,,,,,,,,,,,,,,,,,,,,,,,,,
293338,2022-10-03_15h57.26.232,vts_reward_expectancy,2022.2.4,Win32,15.05162708,Chrome,1536,864,,,a,1.0594,10,652,2,1,9,21,8,1,0,0,1,0,0,0,0,1,hexagon,star,,,,,,,,,,,,,,,,,,,,,,,,,,,,,,,,,,,,,,,,,,,,,,,,,,,,,,
293338,2022-10-03_15h57.26.232,vts_reward_expectancy,2022.2.4,Win32,15.05162708,Chrome,1536,864,,,l,0.6402,1,653,2,1,10,22,5,1,0,1,0,0,0,0,0,1,circle,star,,,,,,,,,,,,,,,,,,,,,,,,,,,,,,,,,,,,,,,,,,,,,,,,,,,,,,
293338,2022-10-03_15h57.26.232,vts_reward_expectancy,2022.2.4,Win32,15.05162708,Chrome,1536,864,,,l,0.8484,10,663,2,1,11,23,1,1,1,0,0,0,0,0,1,0,triangle,hexagon,,,,,,,,,,,,,,,,,,,,,,,,,,,,,,,,,,,,,,,,,,,,,,,,,,,,,,
293338,2022-10-03_15h57.26.232,vts_reward_expectancy,2022.2.4,Win32,15.05162708,Chrome,1536,864,,,l,1.1624,10,673,2,2,0,24,11,1,0,0,0,1,0,0,1,0,star,hexagon,,,,,,,,,,,,,,,,,,,,,,,,,,,,,,,,,,,,,,,,,,,,,,,,,,,,,,
293338,2022-10-03_15h57.26.232,vts_reward_expectancy,2022.2.4,Win32,15.05162708,Chrome,1536,864,,,a,1.2739,1,674,2,2,1,25,5,1,0,1,0,0,0,0,0,1,circle,star,,,,,,,,,,,,,,,,,,,,,,,,,,,,,,,,,,,,,,,,,,,,,,,,,,,,,,
293338,2022-10-03_15h57.26.232,vts_reward_expectancy,2022.2.4,Win32,15.05162708,Chrome,1536,864,,,a,0.7512,10,684,2,2,2,26,6,1,0,0,1,0,1,0,0,0,hexagon,triangle,,,,,,,,,,,,,,,,,,,,,,,,,,,,,,,,,,,,,,,,,,,,,,,,,,,,,,
293338,2022-10-03_15h57.26.232,vts_reward_expectancy,2022.2.4,Win32,15.05162708,Chrome,1536,864,,,l,0.6379,1,685,2,2,3,27,3,1,0,1,0,0,1,0,0,0,circle,triangle,,,,,,,,,,,,,,,,,,,,,,,,,,,,,,,,,,,,,,,,,,,,,,,,,,,,,,
293338,2022-10-03_15h57.26.232,vts_reward_expectancy,2022.2.4,Win32,15.05162708,Chrome,1536,864,,,a,1.2686,10,695,2,2,4,28,9,1,0,0,0,1,1,0,0,0,star,triangle,,,,,,,,,,,,,,,,,,,,,,,,,,,,,,,,,,,,,,,,,,,,,,,,,,,,,,
293338,2022-10-03_15h57.26.232,vts_reward_expectancy,2022.2.4,Win32,15.05162708,Chrome,1536,864,,,a,1.8078,1,696,2,2,5,29,0,1,1,0,0,0,0,1,0,0,triangle,circle,,,,,,,,,,,,,,,,,,,,,,,,,,,,,,,,,,,,,,,,,,,,,,,,,,,,,,
293338,2022-10-03_15h57.26.232,vts_reward_expectancy,2022.2.4,Win32,15.05162708,Chrome,1536,864,,,a,0.9663,10,706,2,2,6,30,8,1,0,0,1,0,0,0,0,1,hexagon,star,,,,,,,,,,,,,,,,,,,,,,,,,,,,,,,,,,,,,,,,,,,,,,,,,,,,,,
293338,2022-10-03_15h57.26.232,vts_reward_expectancy,2022.2.4,Win32,15.05162708,Chrome,1536,864,,,l,0.9551,10,716,2,2,7,31,1,1,1,0,0,0,0,0,1,0,triangle,hexagon,,,,,,,,,,,,,,,,,,,,,,,,,,,,,,,,,,,,,,,,,,,,,,,,,,,,,,
293338,2022-10-03_15h57.26.232,vts_reward_expectancy,2022.2.4,Win32,15.05162708,Chrome,1536,864,,,l,0.638,1,717,2,2,8,32,4,1,0,1,0,0,0,0,1,0,circle,hexagon,,,,,,,,,,,,,,,,,,,,,,,,,,,,,,,,,,,,,,,,,,,,,,,,,,,,,,
293338,2022-10-03_15h57.26.232,vts_reward_expectancy,2022.2.4,Win32,15.05162708,Chrome,1536,864,,,l,0.7437,10,727,2,2,9,33,10,1,0,0,0,1,0,1,0,0,star ,circle,,,,,,,,,,,,,,,,,,,,,,,,,,,,,,,,,,,,,,,,,,,,,,,,,,,,,,
293338,2022-10-03_15h57.26.232,vts_reward_expectancy,2022.2.4,Win32,15.05162708,Chrome,1536,864,,,l,0.6398,10,737,2,2,10,34,7,1,0,0,1,0,0,1,0,0,hexagon,circle,,,,,,,,,,,,,,,,,,,,,,,,,,,,,,,,,,,,,,,,,,,,,,,,,,,,,,
293338,2022-10-03_15h57.26.232,vts_reward_expectancy,2022.2.4,Win32,15.05162708,Chrome,1536,864,,,a,1.5983,10,747,2,2,11,35,2,1,1,0,0,0,0,0,0,1,triangle,star,,,,,,,,,,,,,,,,,,,,,,,,,,,,,,,,,,,,,,,,,,,,,,,,,,,,,,
293338,2022-10-03_15h57.26.232,vts_reward_expectancy,2022.2.4,Win32,15.05162708,Chrome,1536,864,,,,,,,,,,,,,,,,,,,,,,,167,B,circle,0,0,,0,0,0,0,0,1,,,,,,,,,,,,,,,,,,,,,,,,,,,,,,,,,,,,,,,,,,
293338,2022-10-03_15h57.26.232,vts_reward_expectancy,2022.2.4,Win32,15.05162708,Chrome,1536,864,,,,,,,,,,,,,,,,,,,,,,,146,H,star,1,1,d,0,1,0,1,0,1,1.6996,,,,,,,,,,,,,,,,,,,,,,,,,,,,,,,,,,,,,,,,,
293338,2022-10-03_15h57.26.232,vts_reward_expectancy,2022.2.4,Win32,15.05162708,Chrome,1536,864,,,,,,,,,,,,,,,,,,,,,,,160,Y,hexagon,1,0,f,0,2,0,2,0,1,0.8526,,,,,,,,,,,,,,,,,,,,,,,,,,,,,,,,,,,,,,,,,
293338,2022-10-03_15h57.26.232,vts_reward_expectancy,2022.2.4,Win32,15.05162708,Chrome,1536,864,,,,,,,,,,,,,,,,,,,,,,,125,D,triangle,1,0,d,0,3,0,3,0,1,0.8526,,,,,,,,,,,,,,,,,,,,,,,,,,,,,,,,,,,,,,,,,
293338,2022-10-03_15h57.26.232,vts_reward_expectancy,2022.2.4,Win32,15.05162708,Chrome,1536,864,,,,,,,,,,,,,,,,,,,,,,,132,W,circle,1,0,d,0,4,0,4,0,1,1.4863,,,,,,,,,,,,,,,,,,,,,,,,,,,,,,,,,,,,,,,,,
293338,2022-10-03_15h57.26.232,vts_reward_expectancy,2022.2.4,Win32,15.05162708,Chrome,1536,864,,,,,,,,,,,,,,,,,,,,,,,139,S,star,1,0,d,0,5,0,5,0,1,0.7465,,,,,,,,,,,,,,,,,,,,,,,,,,,,,,,,,,,,,,,,,
293338,2022-10-03_15h57.26.232,vts_reward_expectancy,2022.2.4,Win32,15.05162708,Chrome,1536,864,,,,,,,,,,,,,,,,,,,,,,,181,U,hexagon,1,0,f,0,6,0,6,0,1,0.6418,,,,,,,,,,,,,,,,,,,,,,,,,,,,,,,,,,,,,,,,,
293338,2022-10-03_15h57.26.232,vts_reward_expectancy,2022.2.4,Win32,15.05162708,Chrome,1536,864,,,,,,,,,,,,,,,,,,,,,,,174,F,triangle,1,0,f,0,7,0,7,0,1,0.7815,,,,,,,,,,,,,,,,,,,,,,,,,,,,,,,,,,,,,,,,,
293338,2022-10-03_15h57.26.232,vts_reward_expectancy,2022.2.4,Win32,15.05162708,Chrome,1536,864,,,,,,,,,,,,,,,,,,,,,,,167,B,star,1,0,f,0,8,0,8,0,1,0.6502,,,,,,,,,,,,,,,,,,,,,,,,,,,,,,,,,,,,,,,,,
293338,2022-10-03_15h57.26.232,vts_reward_expectancy,2022.2.4,Win32,15.05162708,Chrome,1536,864,,,,,,,,,,,,,,,,,,,,,,,146,H,triangle,1,0,d,0,9,0,9,0,1,0.6422,,,,,,,,,,,,,,,,,,,,,,,,,,,,,,,,,,,,,,,,,
293338,2022-10-03_15h57.26.232,vts_reward_expectancy,2022.2.4,Win32,15.05162708,Chrome,1536,864,,,,,,,,,,,,,,,,,,,,,,,146,D,hexagon,1,0,,1,,,,,,,j,0.7566,0,0,0,0,1,,,,,,,,,,,,,,,,,,,,,,,,,,,,,,,,,,
293338,2022-10-03_15h57.26.232,vts_reward_expectancy,2022.2.4,Win32,15.05162708,Chrome,1536,864,,,,,,,,,,,,,,,,,,,,,,,167,W,star,1,0,,1,,,,,,,k,0.5395,1,0,1,0,1,,,,,,,,,,,,,,,,,,,,,,,,,,,,,,,,,,
293338,2022-10-03_15h57.26.232,vts_reward_expectancy,2022.2.4,Win32,15.05162708,Chrome,1536,864,,,,,,,,,,,,,,,,,,,,,,,160,F,circle,1,0,,1,,,,,,,j,0.654,2,0,2,0,1,,,,,,,,,,,,,,,,,,,,,,,,,,,,,,,,,,
293338,2022-10-03_15h57.26.232,vts_reward_expectancy,2022.2.4,Win32,15.05162708,Chrome,1536,864,,,,,,,,,,,,,,,,,,,,,,,125,U,triangle,1,0,,1,,,,,,,k,0.6451,3,0,3,0,1,,,,,,,,,,,,,,,,,,,,,,,,,,,,,,,,,,
293338,2022-10-03_15h57.26.232,vts_reward_expectancy,2022.2.4,Win32,15.05162708,Chrome,1536,864,,,,,,,,,,,,,,,,,,,,,,,181,S,hexagon,1,0,,1,,,,,,,k,0.7531,4,0,4,0,1,,,,,,,,,,,,,,,,,,,,,,,,,,,,,,,,,,
293338,2022-10-03_15h57.26.232,vts_reward_expectancy,2022.2.4,Win32,15.05162708,Chrome,1536,864,,,,,,,,,,,,,,,,,,,,,,,132,H,star,1,0,,1,,,,,,,j,0.6575,5,0,5,0,1,,,,,,,,,,,,,,,,,,,,,,,,,,,,,,,,,,
293338,2022-10-03_15h57.26.232,vts_reward_expectancy,2022.2.4,Win32,15.05162708,Chrome,1536,864,,,,,,,,,,,,,,,,,,,,,,,139,B,circle,1,0,,1,,,,,,,j,0.7518,6,0,6,0,1,,,,,,,,,,,,,,,,,,,,,,,,,,,,,,,,,,
293338,2022-10-03_15h57.26.232,vts_reward_expectancy,2022.2.4,Win32,15.05162708,Chrome,1536,864,,,,,,,,,,,,,,,,,,,,,,,174,Y,triangle,1,0,,1,,,,,,,k,0.539,7,0,7,0,1,,,,,,,,,,,,,,,,,,,,,,,,,,,,,,,,,,
293338,2022-10-03_15h57.26.232,vts_reward_expectancy,2022.2.4,Win32,15.05162708,Chrome,1536,864,,,,,,,,,,,,,,,,,,,,,,,146,D,star,1,0,,1,,,,,,,j,0.5368,8,0,8,0,1,,,,,,,,,,,,,,,,,,,,,,,,,,,,,,,,,,
293338,2022-10-03_15h57.26.232,vts_reward_expectancy,2022.2.4,Win32,15.05162708,Chrome,1536,864,,,,,,,,,,,,,,,,,,,,,,,167,W,circle,1,0,,1,,,,,,,k,0.6511,9,0,9,0,1,,,,,,,,,,,,,,,,,,,,,,,,,,,,,,,,,,
293338,2022-10-03_15h57.26.232,vts_reward_expectancy,2022.2.4,Win32,15.05162708,Chrome,1536,864,,,,,0,747,,,,,,,,,,,,,,,,,181,U,hexagon,0,0,,2,,,,,,,,,,,,,,-1,number,NA,d,0.007,vtsPrac,0,0,0,0,1,,,,,,,,,,,,,,,,,,,,,,,
293338,2022-10-03_15h57.26.232,vts_reward_expectancy,2022.2.4,Win32,15.05162708,Chrome,1536,864,,,,,0,747,,,,,,,,,,,,,,,,,146,W,star,1,1,,2,,,,,,,,,,,,,,repeat,number,numRpt,d,1.0215,vtsPrac,1,0,1,0,1,,,,,,,,,,,,,,,,,,,,,,,
293338,2022-10-03_15h57.26.232,vts_reward_expectancy,2022.2.4,Win32,15.05162708,Chrome,1536,864,,,,,0,747,,,,,,,,,,,,,,,,,160,B,hexagon,1,0,,2,,,,,,,,,,,,,,repeat,number,numRpt,f,1.0673,vtsPrac,2,0,2,0,1,,,,,,,,,,,,,,,,,,,,,,,
293338,2022-10-03_15h57.26.232,vts_reward_expectancy,2022.2.4,Win32,15.05162708,Chrome,1536,864,,,,,0,747,,,,,,,,,,,,,,,,,125,H,star,1,0,,2,,,,,,,,,,,,,,switch,letter,lettSwt,j,1.722,vtsPrac,3,0,3,0,1,,,,,,,,,,,,,,,,,,,,,,,
293338,2022-10-03_15h57.26.232,vts_reward_expectancy,2022.2.4,Win32,15.05162708,Chrome,1536,864,,,,,0,747,,,,,,,,,,,,,,,,,181,U,star,1,0,,2,,,,,,,,,,,,,,switch,number,numSwt,f,0.7546,vtsPrac,4,0,4,0,1,,,,,,,,,,,,,,,,,,,,,,,
293338,2022-10-03_15h57.26.232,vts_reward_expectancy,2022.2.4,Win32,15.05162708,Chrome,1536,864,,,,,0,747,,,,,,,,,,,,,,,,,146,W,hexagon,1,0,,2,,,,,,,,,,,,,,switch,letter,lettSwt,k,0.6517,vtsPrac,5,0,5,0,1,,,,,,,,,,,,,,,,,,,,,,,
293338,2022-10-03_15h57.26.232,vts_reward_expectancy,2022.2.4,Win32,15.05162708,Chrome,1536,864,,,,,0,747,,,,,,,,,,,,,,,,,160,B,star,0,0,,2,,,,,,,,,,,,,,repeat,letter,NA,k,0.4346,vtsPrac,6,0,6,0,1,,,,,,,,,,,,,,,,,,,,,,,
293338,2022-10-03_15h57.26.232,vts_reward_expectancy,2022.2.4,Win32,15.05162708,Chrome,1536,864,,,,,0,747,,,,,,,,,,,,,,,,,125,H,circle,1,1,,2,,,,,,,,,,,,,,switch,number,numSwt,d,0.8635,vtsPrac,7,0,7,0,1,,,,,,,,,,,,,,,,,,,,,,,
293338,2022-10-03_15h57.26.232,vts_reward_expectancy,2022.2.4,Win32,15.05162708,Chrome,1536,864,,,,,0,747,,,,,,,,,,,,,,,,,139,B,circle,1,0,,2,,,,,,,,,,,,,,switch,letter,lettSwt,j,0.6478,vtsPrac,8,0,8,0,1,,,,,,,,,,,,,,,,,,,,,,,
293338,2022-10-03_15h57.26.232,vts_reward_expectancy,2022.2.4,Win32,15.05162708,Chrome,1536,864,,,,,0,747,,,,,,,,,,,,,,,,,146,U,triangle,1,0,,2,,,,,,,,,,,,,,repeat,letter,lettRpt,k,0.5446,vtsPrac,9,0,9,0,1,,,,,,,,,,,,,,,,,,,,,,,
293338,2022-10-03_15h57.26.232,vts_reward_expectancy,2022.2.4,Win32,15.05162708,Chrome,1536,864,,,,,0,747,,,,,,,,,,,,,,,,,181,D,hexagon,1,0,,2,,,,,,,,,,,,,,repeat,letter,lettRpt,j,0.6455,vtsPrac,10,0,10,0,1,,,,,,,,,,,,,,,,,,,,,,,
293338,2022-10-03_15h57.26.232,vts_reward_expectancy,2022.2.4,Win32,15.05162708,Chrome,1536,864,,,,,0,747,,,,,,,,,,,,,,,,,167,W,triangle,1,0,,2,,,,,,,,,,,,,,switch,number,numSwt,f,0.76,vtsPrac,11,0,11,0,1,,,,,,,,,,,,,,,,,,,,,,,
293338,2022-10-03_15h57.26.232,vts_reward_expectancy,2022.2.4,Win32,15.05162708,Chrome,1536,864,,,,,0,747,,,,,,,,,,,,,,,,,167,S,triangle,1,0,,2,,,,,,,,,,,,,,repeat,number,numRpt,f,0.7583,vtsPrac,12,0,12,0,1,,,,,,,,,,,,,,,,,,,,,,,
293338,2022-10-03_15h57.26.232,vts_reward_expectancy,2022.2.4,Win32,15.05162708,Chrome,1536,864,,,,,0,747,,,,,,,,,,,,,,,,,139,W,circle,1,0,,2,,,,,,,,,,,,,,switch,letter,lettSwt,k,0.7499,vtsPrac,13,0,13,0,1,,,,,,,,,,,,,,,,,,,,,,,
293338,2022-10-03_15h57.26.232,vts_reward_expectancy,2022.2.4,Win32,15.05162708,Chrome,1536,864,,,,,0,747,,,,,,,,,,,,,,,,,174,D,star,1,0,,2,,,,,,,,,,,,,,repeat,letter,lettRpt,j,0.9626,vtsPrac,14,0,14,0,1,,,,,,,,,,,,,,,,,,,,,,,
293338,2022-10-03_15h57.26.232,vts_reward_expectancy,2022.2.4,Win32,15.05162708,Chrome,1536,864,,,,,0,747,,,,,,,,,,,,,,,,,181,Y,hexagon,1,0,,2,,,,,,,,,,,,,,repeat,letter,lettRpt,k,0.9647,vtsPrac,15,0,15,0,1,,,,,,,,,,,,,,,,,,,,,,,
293338,2022-10-03_15h57.26.232,vts_reward_expectancy,2022.2.4,Win32,15.05162708,Chrome,1536,864,,,,,,,,,,,,,,,,,,,,,,,,,,,,,,,,,,,,,,,,,,,,,,,,,,,,,,,,,,,,,,,,,,,,,,,,,,,,
293338,2022-10-03_15h57.26.232,vts_reward_expectancy,2022.2.4,Win32,15.05162708,Chrome,1536,864,,,,,,,,,,,,,,,,,,,,,,,,,,,,,,,,,,,,,,,,,,,,,,,,,,,,,,,,,,,,,,,,,,,,,,,,,,,,
293338,2022-10-03_15h57.26.232,vts_reward_expectancy,2022.2.4,Win32,15.05162708,Chrome,1536,864,,,,,0,747,,,,,,,,,,,,,,,,,125,D,triangle,1,0,,,,,,,,,,,,,,,,switch,number,numSwt,d,0.9659,noRew,,,,,,0,0,0,0,0,1,,,,,,,,,,,,,,,,,
293338,2022-10-03_15h57.26.232,vts_reward_expectancy,2022.2.4,Win32,15.05162708,Chrome,1536,864,,,,,0,747,,,,,,,,,,,,,,,,,181,W,circle,1,0,,,,,,,,,,,,,,,,repeat,number,numRpt,f,0.8599,noRew,,,,,,0,1,0,1,0,1,,,,,,,,,,,,,,,,,
293338,2022-10-03_15h57.26.232,vts_reward_expectancy,2022.2.4,Win32,15.05162708,Chrome,1536,864,,,,,0,747,,,,,,,,,,,,,,,,,174,H,triangle,1,0,,,,,,,,,,,,,,,,switch,letter,lettSwt,j,1.0975,noRew,,,,,,0,2,0,2,0,1,,,,,,,,,,,,,,,,,
293338,2022-10-03_15h57.26.232,vts_reward_expectancy,2022.2.4,Win32,15.05162708,Chrome,1536,864,,,,,0,747,,,,,,,,,,,,,,,,,167,S,circle,1,0,,,,,,,,,,,,,,,,repeat,letter,lettRpt,k,0.6588,noRew,,,,,,0,3,0,3,0,1,,,,,,,,,,,,,,,,,
293338,2022-10-03_15h57.26.232,vts_reward_expectancy,2022.2.4,Win32,15.05162708,Chrome,1536,864,,,,,0,747,,,,,,,,,,,,,,,,,125,D,star,1,0,,,,,,,,,,,,,,,,switch,number,numSwt,d,0.5549,noRew,,,,,,0,4,0,4,0,1,,,,,,,,,,,,,,,,,
293338,2022-10-03_15h57.26.232,vts_reward_expectancy,2022.2.4,Win32,15.05162708,Chrome,1536,864,,,,,0,747,,,,,,,,,,,,,,,,,181,W,triangle,1,0,,,,,,,,,,,,,,,,switch,letter,lettSwt,k,0.6652,noRew,,,,,,0,5,0,5,0,1,,,,,,,,,,,,,,,,,
293338,2022-10-03_15h57.26.232,vts_reward_expectancy,2022.2.4,Win32,15.05162708,Chrome,1536,864,,,,,0,747,,,,,,,,,,,,,,,,,174,H,star,1,0,,,,,,,,,,,,,,,,repeat,letter,lettRpt,j,0.7559,noRew,,,,,,0,6,0,6,0,1,,,,,,,,,,,,,,,,,
293338,2022-10-03_15h57.26.232,vts_reward_expectancy,2022.2.4,Win32,15.05162708,Chrome,1536,864,,,,,0,747,,,,,,,,,,,,,,,,,167,S,circle,1,0,,,,,,,,,,,,,,,,repeat,letter,lettRpt,k,0.7714,noRew,,,,,,0,7,0,7,0,1,,,,,,,,,,,,,,,,,
293338,2022-10-03_15h57.26.232,vts_reward_expectancy,2022.2.4,Win32,15.05162708,Chrome,1536,864,,,,,0,747,,,,,,,,,,,,,,,,,146,D,triangle,1,0,,,,,,,,,,,,,,,,repeat,letter,lettRpt,j,0.6495,noRew,,,,,,0,8,0,8,0,1,,,,,,,,,,,,,,,,,
293338,2022-10-03_15h57.26.232,vts_reward_expectancy,2022.2.4,Win32,15.05162708,Chrome,1536,864,,,,,0,747,,,,,,,,,,,,,,,,,167,S,hexagon,1,0,,,,,,,,,,,,,,,,switch,number,numSwt,f,0.663,noRew,,,,,,0,9,0,9,0,1,,,,,,,,,,,,,,,,,
293338,2022-10-03_15h57.26.232,vts_reward_expectancy,2022.2.4,Win32,15.05162708,Chrome,1536,864,,,,,0,747,,,,,,,,,,,,,,,,,160,H,star,1,0,,,,,,,,,,,,,,,,repeat,number,numRpt,f,0.6798,noRew,,,,,,0,10,0,10,0,1,,,,,,,,,,,,,,,,,
293338,2022-10-03_15h57.26.232,vts_reward_expectancy,2022.2.4,Win32,15.05162708,Chrome,1536,864,,,,,0,747,,,,,,,,,,,,,,,,,174,U,circle,1,0,,,,,,,,,,,,,,,,repeat,number,numRpt,f,0.7558,noRew,,,,,,0,11,0,11,0,1,,,,,,,,,,,,,,,,,
293338,2022-10-03_15h57.26.232,vts_reward_expectancy,2022.2.4,Win32,15.05162708,Chrome,1536,864,,,,,0,747,,,,,,,,,,,,,,,,,132,D,hexagon,1,0,,,,,,,,,,,,,,,,switch,letter,lettSwt,j,0.4357,noRew,,,,,,0,12,0,12,0,1,,,,,,,,,,,,,,,,,
293338,2022-10-03_15h57.26.232,vts_reward_expectancy,2022.2.4,Win32,15.05162708,Chrome,1536,864,,,,,0,747,,,,,,,,,,,,,,,,,167,S,triangle,1,0,,,,,,,,,,,,,,,,switch,number,numSwt,f,0.7526,noRew,,,,,,0,13,0,13,0,1,,,,,,,,,,,,,,,,,
293338,2022-10-03_15h57.26.232,vts_reward_expectancy,2022.2.4,Win32,15.05162708,Chrome,1536,864,,,,,0,747,,,,,,,,,,,,,,,,,160,W,triangle,1,0,,,,,,,,,,,,,,,,switch,letter,lettSwt,k,0.651,noRew,,,,,,0,14,0,14,0,1,,,,,,,,,,,,,,,,,
293338,2022-10-03_15h57.26.232,vts_reward_expectancy,2022.2.4,Win32,15.05162708,Chrome,1536,864,,,,,0,747,,,,,,,,,,,,,,,,,146,B,hexagon,1,0,,,,,,,,,,,,,,,,repeat,letter,lettRpt,j,2.3712,noRew,,,,,,0,15,0,15,0,1,,,,,,,,,,,,,,,,,
293338,2022-10-03_15h57.26.232,vts_reward_expectancy,2022.2.4,Win32,15.05162708,Chrome,1536,864,,,,,0,747,,,,,,,,,,,,,,,,,132,S,triangle,1,0,,,,,,,,,,,,,,,,switch,number,numSwt,d,0.9672,noRew,,,,,,0,16,0,16,0,1,,,,,,,,,,,,,,,,,
293338,2022-10-03_15h57.26.232,vts_reward_expectancy,2022.2.4,Win32,15.05162708,Chrome,1536,864,,,,,0,747,,,,,,,,,,,,,,,,,174,B,star,1,0,,,,,,,,,,,,,,,,repeat,number,numRpt,f,1.5037,noRew,,,,,,0,17,0,17,0,1,,,,,,,,,,,,,,,,,
293338,2022-10-03_15h57.26.232,vts_reward_expectancy,2022.2.4,Win32,15.05162708,Chrome,1536,864,,,,,0,747,,,,,,,,,,,,,,,,,167,Y,star,1,0,,,,,,,,,,,,,,,,switch,letter,lettSwt,k,1.8377,noRew,,,,,,0,18,0,18,0,1,,,,,,,,,,,,,,,,,
293338,2022-10-03_15h57.26.232,vts_reward_expectancy,2022.2.4,Win32,15.05162708,Chrome,1536,864,,,,,0,747,,,,,,,,,,,,,,,,,139,D,circle,1,0,,,,,,,,,,,,,,,,repeat,letter,lettRpt,j,0.8607,noRew,,,,,,0,19,0,19,0,1,,,,,,,,,,,,,,,,,
293338,2022-10-03_15h57.26.232,vts_reward_expectancy,2022.2.4,Win32,15.05162708,Chrome,1536,864,,,,,0,747,,,,,,,,,,,,,,,,,181,Y,triangle,1,0,,,,,,,,,,,,,,,,switch,number,numSwt,f,1.1835,noRew,,,,,,0,20,0,20,0,1,,,,,,,,,,,,,,,,,
293338,2022-10-03_15h57.26.232,vts_reward_expectancy,2022.2.4,Win32,15.05162708,Chrome,1536,864,,,,,0,747,,,,,,,,,,,,,,,,,160,H,star,1,0,,,,,,,,,,,,,,,,repeat,number,numRpt,f,0.8678,noRew,,,,,,0,21,0,21,0,1,,,,,,,,,,,,,,,,,
293338,2022-10-03_15h57.26.232,vts_reward_expectancy,2022.2.4,Win32,15.05162708,Chrome,1536,864,,,,,0,747,,,,,,,,,,,,,,,,,146,F,star,1,0,,,,,,,,,,,,,,,,switch,letter,lettSwt,j,1.2911,noRew,,,,,,0,22,0,22,0,1,,,,,,,,,,,,,,,,,
293338,2022-10-03_15h57.26.232,vts_reward_expectancy,2022.2.4,Win32,15.05162708,Chrome,1536,864,,,,,0,747,,,,,,,,,,,,,,,,,132,S,circle,1,0,,,,,,,,,,,,,,,,repeat,letter,lettRpt,k,0.757,noRew,,,,,,0,23,0,23,0,1,,,,,,,,,,,,,,,,,
293338,2022-10-03_15h57.26.232,vts_reward_expectancy,2022.2.4,Win32,15.05162708,Chrome,1536,864,,,,,0,747,,,,,,,,,,,,,,,,,146,U,circle,1,0,,,,,,,,,,,,,,,,switch,number,numSwt,d,1.0734,noRew,,,,,,0,24,0,24,0,1,,,,,,,,,,,,,,,,,
293338,2022-10-03_15h57.26.232,vts_reward_expectancy,2022.2.4,Win32,15.05162708,Chrome,1536,864,,,,,0,747,,,,,,,,,,,,,,,,,160,S,star,1,0,,,,,,,,,,,,,,,,repeat,number,numRpt,f,0.8605,noRew,,,,,,0,25,0,25,0,1,,,,,,,,,,,,,,,,,
293338,2022-10-03_15h57.26.232,vts_reward_expectancy,2022.2.4,Win32,15.05162708,Chrome,1536,864,,,,,0,747,,,,,,,,,,,,,,,,,132,B,hexagon,1,0,,,,,,,,,,,,,,,,repeat,number,numRpt,d,1.5093,noRew,,,,,,0,26,0,26,0,1,,,,,,,,,,,,,,,,,
293338,2022-10-03_15h57.26.232,vts_reward_expectancy,2022.2.4,Win32,15.05162708,Chrome,1536,864,,,,,0,747,,,,,,,,,,,,,,,,,125,F,star,1,0,,,,,,,,,,,,,,,,switch,letter,lettSwt,j,1.2844,noRew,,,,,,0,27,0,27,0,1,,,,,,,,,,,,,,,,,
293338,2022-10-03_15h57.26.232,vts_reward_expectancy,2022.2.4,Win32,15.05162708,Chrome,1536,864,,,,,0,747,,,,,,,,,,,,,,,,,167,S,circle,1,0,,,,,,,,,,,,,,,,switch,number,numSwt,f,1.0755,noRew,,,,,,0,28,0,28,0,1,,,,,,,,,,,,,,,,,
293338,2022-10-03_15h57.26.232,vts_reward_expectancy,2022.2.4,Win32,15.05162708,Chrome,1536,864,,,,,0,747,,,,,,,,,,,,,,,,,174,W,star,1,0,,,,,,,,,,,,,,,,repeat,number,numRpt,f,0.8607,noRew,,,,,,0,29,0,29,0,1,,,,,,,,,,,,,,,,,
293338,2022-10-03_15h57.26.232,vts_reward_expectancy,2022.2.4,Win32,15.05162708,Chrome,1536,864,,,,,0,747,,,,,,,,,,,,,,,,,181,U,star,1,0,,,,,,,,,,,,,,,,switch,letter,lettSwt,k,2.1625,noRew,,,,,,0,30,0,30,0,1,,,,,,,,,,,,,,,,,
293338,2022-10-03_15h57.26.232,vts_reward_expectancy,2022.2.4,Win32,15.05162708,Chrome,1536,864,,,,,0,747,,,,,,,,,,,,,,,,,125,F,circle,1,0,,,,,,,,,,,,,,,,repeat,letter,lettRpt,j,1.1915,noRew,,,,,,0,31,0,31,0,1,,,,,,,,,,,,,,,,,
293338,2022-10-03_15h57.26.232,vts_reward_expectancy,2022.2.4,Win32,15.05162708,Chrome,1536,864,,,,,0,747,,,,,,,,,,,,,,,,,160,H,circle,0,0,,,,,,,,,,,,,,,,repeat,letter,NA,k,1.0889,noRew,,,,,,0,32,0,32,0,1,,,,,,,,,,,,,,,,,
293338,2022-10-03_15h57.26.232,vts_reward_expectancy,2022.2.4,Win32,15.05162708,Chrome,1536,864,,,,,0,747,,,,,,,,,,,,,,,,,167,F,star,1,1,,,,,,,,,,,,,,,,repeat,letter,lettRpt,j,0.8571,noRew,,,,,,0,33,0,33,0,1,,,,,,,,,,,,,,,,,
293338,2022-10-03_15h57.26.232,vts_reward_expectancy,2022.2.4,Win32,15.05162708,Chrome,1536,864,,,,,0,747,,,,,,,,,,,,,,,,,125,B,hexagon,1,0,,,,,,,,,,,,,,,,switch,number,numSwt,d,0.8714,noRew,,,,,,0,34,0,34,0,1,,,,,,,,,,,,,,,,,
293338,2022-10-03_15h57.26.232,vts_reward_expectancy,2022.2.4,Win32,15.05162708,Chrome,1536,864,,,,,0,747,,,,,,,,,,,,,,,,,146,U,circle,1,0,,,,,,,,,,,,,,,,repeat,number,numRpt,d,1.4169,noRew,,,,,,0,35,0,35,0,1,,,,,,,,,,,,,,,,,
293338,2022-10-03_15h57.26.232,vts_reward_expectancy,2022.2.4,Win32,15.05162708,Chrome,1536,864,,,,,0,747,,,,,,,,,,,,,,,,,167,Y,circle,1,0,,,,,,,,,,,,,,,,repeat,number,numRpt,f,0.9699,noRew,,,,,,0,36,0,36,0,1,,,,,,,,,,,,,,,,,
293338,2022-10-03_15h57.26.232,vts_reward_expectancy,2022.2.4,Win32,15.05162708,Chrome,1536,864,,,,,0,747,,,,,,,,,,,,,,,,,146,B,hexagon,1,0,,,,,,,,,,,,,,,,repeat,number,numRpt,d,0.7856,noRew,,,,,,0,37,0,37,0,1,,,,,,,,,,,,,,,,,
293338,2022-10-03_15h57.26.232,vts_reward_expectancy,2022.2.4,Win32,15.05162708,Chrome,1536,864,,,,,0,747,,,,,,,,,,,,,,,,,139,D,triangle,1,0,,,,,,,,,,,,,,,,repeat,number,numRpt,d,1.8388,noRew,,,,,,0,38,0,38,0,1,,,,,,,,,,,,,,,,,
293338,2022-10-03_15h57.26.232,vts_reward_expectancy,2022.2.4,Win32,15.05162708,Chrome,1536,864,,,,,0,747,,,,,,,,,,,,,,,,,181,U,star,1,0,,,,,,,,,,,,,,,,switch,letter,lettSwt,k,1.308,noRew,,,,,,0,39,0,39,0,1,,,,,,,,,,,,,,,,,
293338,2022-10-03_15h57.26.232,vts_reward_expectancy,2022.2.4,Win32,15.05162708,Chrome,1536,864,,,,,0,747,,,,,,,,,,,,,,,,,132,D,hexagon,1,0,,,,,,,,,,,,,,,,switch,number,numSwt,d,0.9954,noRew,,,,,,0,40,0,40,0,1,,,,,,,,,,,,,,,,,
293338,2022-10-03_15h57.26.232,vts_reward_expectancy,2022.2.4,Win32,15.05162708,Chrome,1536,864,,,,,0,747,,,,,,,,,,,,,,,,,181,H,triangle,0,0,,,,,,,,,,,,,,,,switch,letter,NA,k,0.7938,noRew,,,,,,0,41,0,41,0,1,,,,,,,,,,,,,,,,,
293338,2022-10-03_15h57.26.232,vts_reward_expectancy,2022.2.4,Win32,15.05162708,Chrome,1536,864,,,,,0,747,,,,,,,,,,,,,,,,,146,U,triangle,1,1,,,,,,,,,,,,,,,,repeat,letter,lettRpt,k,1.9282,noRew,,,,,,0,42,0,42,0,1,,,,,,,,,,,,,,,,,
293338,2022-10-03_15h57.26.232,vts_reward_expectancy,2022.2.4,Win32,15.05162708,Chrome,1536,864,,,,,0,747,,,,,,,,,,,,,,,,,160,Y,circle,1,0,,,,,,,,,,,,,,,,switch,number,numSwt,f,0.9961,noRew,,,,,,0,43,0,43,0,1,,,,,,,,,,,,,,,,,
293338,2022-10-03_15h57.26.232,vts_reward_expectancy,2022.2.4,Win32,15.05162708,Chrome,1536,864,,,,,0,747,,,,,,,,,,,,,,,,,181,B,star,1,0,,,,,,,,,,,,,,,,repeat,number,numRpt,f,0.6942,noRew,,,,,,0,44,0,44,0,1,,,,,,,,,,,,,,,,,
293338,2022-10-03_15h57.26.232,vts_reward_expectancy,2022.2.4,Win32,15.05162708,Chrome,1536,864,,,,,0,747,,,,,,,,,,,,,,,,,132,F,circle,1,0,,,,,,,,,,,,,,,,repeat,number,numRpt,d,0.8951,noRew,,,,,,0,45,0,45,0,1,,,,,,,,,,,,,,,,,
293338,2022-10-03_15h57.26.232,vts_reward_expectancy,2022.2.4,Win32,15.05162708,Chrome,1536,864,,,,,0,747,,,,,,,,,,,,,,,,,160,W,triangle,1,0,,,,,,,,,,,,,,,,repeat,number,numRpt,f,0.9986,noRew,,,,,,0,46,0,46,0,1,,,,,,,,,,,,,,,,,
293338,2022-10-03_15h57.26.232,vts_reward_expectancy,2022.2.4,Win32,15.05162708,Chrome,1536,864,,,,,0,747,,,,,,,,,,,,,,,,,139,D,hexagon,1,0,,,,,,,,,,,,,,,,repeat,number,numRpt,d,1.1105,noRew,,,,,,0,47,0,47,0,1,,,,,,,,,,,,,,,,,
293338,2022-10-03_15h57.26.232,vts_reward_expectancy,2022.2.4,Win32,15.05162708,Chrome,1536,864,,,,,0,747,,,,,,,,,,,,,,,,,132,D,circle,1,0,,,,,,,,,,,,,,,,repeat,number,numRpt,d,1.214,noRew,,,,,,0,48,0,48,0,1,,,,,,,,,,,,,,,,,
293338,2022-10-03_15h57.26.232,vts_reward_expectancy,2022.2.4,Win32,15.05162708,Chrome,1536,864,,,,,0,747,,,,,,,,,,,,,,,,,146,S,triangle,-1,0,,,,,,,,,,,,,,,,switch,no_choice,NA,,,noRew,,,,,,0,49,0,49,0,1,,,,,,,,,,,,,,,,,
293338,2022-10-03_15h57.26.232,vts_reward_expectancy,2022.2.4,Win32,15.05162708,Chrome,1536,864,,,,,0,747,,,,,,,,,,,,,,,,,139,H,triangle,1,0,,,,,,,,,,,,,,,,switch,number,numSwt,d,0.9666,noRew,,,,,,0,50,0,50,0,1,,,,,,,,,,,,,,,,,
293338,2022-10-03_15h57.26.232,vts_reward_expectancy,2022.2.4,Win32,15.05162708,Chrome,1536,864,,,,,0,747,,,,,,,,,,,,,,,,,160,W,star,1,0,,,,,,,,,,,,,,,,switch,letter,lettSwt,k,0.8846,noRew,,,,,,0,51,0,51,0,1,,,,,,,,,,,,,,,,,
293338,2022-10-03_15h57.26.232,vts_reward_expectancy,2022.2.4,Win32,15.05162708,Chrome,1536,864,,,,,0,747,,,,,,,,,,,,,,,,,160,D,triangle,1,0,,,,,,,,,,,,,,,,switch,number,numSwt,f,1.744,noRew,,,,,,0,52,0,52,0,1,,,,,,,,,,,,,,,,,
293338,2022-10-03_15h57.26.232,vts_reward_expectancy,2022.2.4,Win32,15.05162708,Chrome,1536,864,,,,,0,747,,,,,,,,,,,,,,,,,167,S,star,1,0,,,,,,,,,,,,,,,,repeat,number,numRpt,f,1.3262,noRew,,,,,,0,53,0,53,0,1,,,,,,,,,,,,,,,,,
293338,2022-10-03_15h57.26.232,vts_reward_expectancy,2022.2.4,Win32,15.05162708,Chrome,1536,864,,,,,0,747,,,,,,,,,,,,,,,,,174,B,circle,1,0,,,,,,,,,,,,,,,,repeat,number,numRpt,f,1.3073,noRew,,,,,,0,54,0,54,0,1,,,,,,,,,,,,,,,,,
293338,2022-10-03_15h57.26.232,vts_reward_expectancy,2022.2.4,Win32,15.05162708,Chrome,1536,864,,,,,0,747,,,,,,,,,,,,,,,,,181,U,triangle,1,0,,,,,,,,,,,,,,,,switch,letter,lettSwt,k,1.1168,noRew,,,,,,0,55,0,55,0,1,,,,,,,,,,,,,,,,,
293338,2022-10-03_15h57.26.232,vts_reward_expectancy,2022.2.4,Win32,15.05162708,Chrome,1536,864,,,,,0,747,,,,,,,,,,,,,,,,,146,U,circle,1,0,,,,,,,,,,,,,,,,repeat,letter,lettRpt,k,1.4029,noRew,,,,,,0,56,0,56,0,1,,,,,,,,,,,,,,,,,
293338,2022-10-03_15h57.26.232,vts_reward_expectancy,2022.2.4,Win32,15.05162708,Chrome,1536,864,,,,,0,747,,,,,,,,,,,,,,,,,132,H,hexagon,1,0,,,,,,,,,,,,,,,,switch,number,numSwt,d,2.1557,noRew,,,,,,0,57,0,57,0,1,,,,,,,,,,,,,,,,,
293338,2022-10-03_15h57.26.232,vts_reward_expectancy,2022.2.4,Win32,15.05162708,Chrome,1536,864,,,,,0,747,,,,,,,,,,,,,,,,,167,F,circle,1,0,,,,,,,,,,,,,,,,switch,letter,lettSwt,j,2.0699,noRew,,,,,,0,58,0,58,0,1,,,,,,,,,,,,,,,,,
293338,2022-10-03_15h57.26.232,vts_reward_expectancy,2022.2.4,Win32,15.05162708,Chrome,1536,864,,,,,0,747,,,,,,,,,,,,,,,,,125,B,star,1,0,,,,,,,,,,,,,,,,switch,number,numSwt,d,1.3683,noRew,,,,,,0,59,0,59,0,1,,,,,,,,,,,,,,,,,
293338,2022-10-03_15h57.26.232,vts_reward_expectancy,2022.2.4,Win32,15.05162708,Chrome,1536,864,,,,,0,747,,,,,,,,,,,,,,,,,125,U,circle,1,0,,,,,,,,,,,,,,,,switch,letter,lettSwt,k,1.2575,noRew,,,,,,0,60,0,60,0,1,,,,,,,,,,,,,,,,,
293338,2022-10-03_15h57.26.232,vts_reward_expectancy,2022.2.4,Win32,15.05162708,Chrome,1536,864,,,,,0,747,,,,,,,,,,,,,,,,,139,H,hexagon,1,0,,,,,,,,,,,,,,,,switch,number,numSwt,d,0.7651,noRew,,,,,,0,61,0,61,0,1,,,,,,,,,,,,,,,,,
293338,2022-10-03_15h57.26.232,vts_reward_expectancy,2022.2.4,Win32,15.05162708,Chrome,1536,864,,,,,0,747,,,,,,,,,,,,,,,,,146,B,triangle,1,0,,,,,,,,,,,,,,,,repeat,number,numRpt,d,0.7582,noRew,,,,,,0,62,0,62,0,1,,,,,,,,,,,,,,,,,
293338,2022-10-03_15h57.26.232,vts_reward_expectancy,2022.2.4,Win32,15.05162708,Chrome,1536,864,,,,,0,747,,,,,,,,,,,,,,,,,167,S,hexagon,1,0,,,,,,,,,,,,,,,,repeat,number,numRpt,f,0.8814,noRew,,,,,,0,63,0,63,0,1,,,,,,,,,,,,,,,,,
293338,2022-10-03_15h57.26.232,vts_reward_expectancy,2022.2.4,Win32,15.05162708,Chrome,1536,864,,,,,,,,,,,,,,,,,,,,,,,,,,,,,,,,,,,,,,,,,,,,,,,,,,,,,,,,,,,,,,,,,,,,,,,,,,,,
293338,2022-10-03_15h57.26.232,vts_reward_expectancy,2022.2.4,Win32,15.05162708,Chrome,1536,864,,,,,0,747,,,,,,,,,,,,,,,,,160,W,circle,1,0,,,,,,,,,,,,,,,,repeat,number,numRpt,f,1.508,Hi,,,,,,0,,,,,,space,5.8105,low,0,0,0,0,1,,,,,,,,,
293338,2022-10-03_15h57.26.232,vts_reward_expectancy,2022.2.4,Win32,15.05162708,Chrome,1536,864,,,,,1,748,,,,,,,,,,,,,,,,,139,S,star,1,0,,,,,,,,,,,,,,,,repeat,number,numRpt,d,0.8703,Lo,,,,,,0,,,,,,,,low,1,0,1,0,1,,,,,,,,,
293338,2022-10-03_15h57.26.232,vts_reward_expectancy,2022.2.4,Win32,15.05162708,Chrome,1536,864,,,,,1,749,,,,,,,,,,,,,,,,,181,D,circle,1,0,,,,,,,,,,,,,,,,repeat,number,numRpt,f,0.6524,Hi,,,,,,0,,,,,,,,low,2,0,2,0,1,,,,,,,,,
293338,2022-10-03_15h57.26.232,vts_reward_expectancy,2022.2.4,Win32,15.05162708,Chrome,1536,864,,,,,1,750,,,,,,,,,,,,,,,,,146,F,star,1,0,,,,,,,,,,,,,,,,switch,letter,lettSwt,j,1.3737,Lo,,,,,,0,,,,,,,,low,3,0,3,0,1,,,,,,,,,
293338,2022-10-03_15h57.26.232,vts_reward_expectancy,2022.2.4,Win32,15.05162708,Chrome,1536,864,,,,,0,750,,,,,,,,,,,,,,,,,167,B,circle,0,0,,,,,,,,,,,,,,,,switch,number,NA,d,0.78,Lo,,,,,,0,,,,,,,,low,4,0,4,0,1,,,,,,,,,
293338,2022-10-03_15h57.26.232,vts_reward_expectancy,2022.2.4,Win32,15.05162708,Chrome,1536,864,,,,,1,751,,,,,,,,,,,,,,,,,132,Y,star,1,1,,,,,,,,,,,,,,,,switch,letter,lettSwt,k,0.6561,Lo,,,,,,0,,,,,,,,low,5,0,5,0,1,,,,,,,,,
293338,2022-10-03_15h57.26.232,vts_reward_expectancy,2022.2.4,Win32,15.05162708,Chrome,1536,864,,,,,0,751,,,,,,,,,,,,,,,,,125,H,circle,1,0,,,,,,,,,,,,,,,,repeat,letter,lettRpt,j,1.1976,Hi,,,,,,0,,,,,,,,low,6,0,6,0,1,,,,,,,,,
293338,2022-10-03_15h57.26.232,vts_reward_expectancy,2022.2.4,Win32,15.05162708,Chrome,1536,864,,,,,1,752,,,,,,,,,,,,,,,,,174,U,star,1,0,,,,,,,,,,,,,,,,switch,number,numSwt,f,1.8419,Lo,,,,,,0,,,,,,,,low,7,0,7,0,1,,,,,,,,,
293338,2022-10-03_15h57.26.232,vts_reward_expectancy,2022.2.4,Win32,15.05162708,Chrome,1536,864,,,,,10,762,,,,,,,,,,,,,,,,,160,W,circle,1,0,,,,,,,,,,,,,,,,repeat,number,numRpt,f,0.5473,Hi,,,,,,0,,,,,,,,low,8,0,8,0,1,,,,,,,,,
293338,2022-10-03_15h57.26.232,vts_reward_expectancy,2022.2.4,Win32,15.05162708,Chrome,1536,864,,,,,0,762,,,,,,,,,,,,,,,,,139,S,star,-1,0,,,,,,,,,,,,,,,,switch,no_choice,NA,,,Hi,,,,,,0,,,,,,,,low,9,0,9,0,1,,,,,,,,,
293338,2022-10-03_15h57.26.232,vts_reward_expectancy,2022.2.4,Win32,15.05162708,Chrome,1536,864,,,,,1,763,,,,,,,,,,,,,,,,,181,D,star,1,0,,,,,,,,,,,,,,,,switch,letter,lettSwt,j,2.2691,Lo,,,,,,0,,,,,,,,low,10,0,10,0,1,,,,,,,,,
293338,2022-10-03_15h57.26.232,vts_reward_expectancy,2022.2.4,Win32,15.05162708,Chrome,1536,864,,,,,1,764,,,,,,,,,,,,,,,,,146,F,circle,1,0,,,,,,,,,,,,,,,,switch,number,numSwt,d,0.6515,Hi,,,,,,0,,,,,,,,low,11,0,11,0,1,,,,,,,,,
293338,2022-10-03_15h57.26.232,vts_reward_expectancy,2022.2.4,Win32,15.05162708,Chrome,1536,864,,,,,10,774,,,,,,,,,,,,,,,,,167,B,star,1,0,,,,,,,,,,,,,,,,repeat,number,numRpt,f,0.7579,Lo,,,,,,0,,,,,,,,low,12,0,12,0,1,,,,,,,,,
293338,2022-10-03_15h57.26.232,vts_reward_expectancy,2022.2.4,Win32,15.05162708,Chrome,1536,864,,,,,1,775,,,,,,,,,,,,,,,,,132,Y,circle,1,0,,,,,,,,,,,,,,,,repeat,number,numRpt,d,0.4382,Hi,,,,,,0,,,,,,,,low,13,0,13,0,1,,,,,,,,,
293338,2022-10-03_15h57.26.232,vts_reward_expectancy,2022.2.4,Win32,15.05162708,Chrome,1536,864,,,,,0,775,,,,,,,,,,,,,,,,,125,H,star,0,0,,,,,,,,,,,,,,,,repeat,number,NA,f,0.6507,Hi,,,,,,0,,,,,,,,low,14,0,14,0,1,,,,,,,,,
293338,2022-10-03_15h57.26.232,vts_reward_expectancy,2022.2.4,Win32,15.05162708,Chrome,1536,864,,,,,10,785,,,,,,,,,,,,,,,,,174,U,circle,1,1,,,,,,,,,,,,,,,,repeat,number,numRpt,f,0.6554,Hi,,,,,,0,,,,,,,,low,15,0,15,0,1,,,,,,,,,
293338,2022-10-03_15h57.26.232,vts_reward_expectancy,2022.2.4,Win32,15.05162708,Chrome,1536,864,,,,,0,785,,,,,,,,,,,,,,,,,146,H,star,0,0,,,,,,,,,,,,,,,,switch,letter,NA,k,0.8755,Hi,,,,,,0,,,,,,,,low,16,0,16,0,1,,,,,,,,,
293338,2022-10-03_15h57.26.232,vts_reward_expectancy,2022.2.4,Win32,15.05162708,Chrome,1536,864,,,,,1,786,,,,,,,,,,,,,,,,,181,F,circle,1,1,,,,,,,,,,,,,,,,repeat,letter,lettRpt,j,0.7597,Hi,,,,,,0,,,,,,,,low,17,0,17,0,1,,,,,,,,,
293338,2022-10-03_15h57.26.232,vts_reward_expectancy,2022.2.4,Win32,15.05162708,Chrome,1536,864,,,,,10,796,,,,,,,,,,,,,,,,,174,U,circle,1,0,,,,,,,,,,,,,,,,repeat,letter,lettRpt,k,0.5422,Hi,,,,,,0,,,,,,,,low,18,0,18,0,1,,,,,,,,,
293338,2022-10-03_15h57.26.232,vts_reward_expectancy,2022.2.4,Win32,15.05162708,Chrome,1536,864,,,,,1,797,,,,,,,,,,,,,,,,,160,Y,star,1,0,,,,,,,,,,,,,,,,repeat,letter,lettRpt,k,0.5479,Lo,,,,,,0,,,,,,,,low,19,0,19,0,1,,,,,,,,,
293338,2022-10-03_15h57.26.232,vts_reward_expectancy,2022.2.4,Win32,15.05162708,Chrome,1536,864,,,,,0,797,,,,,,,,,,,,,,,,,167,S,star,0,0,,,,,,,,,,,,,,,,switch,number,NA,d,0.5449,Lo,,,,,,0,,,,,,,,low,20,0,20,0,1,,,,,,,,,
293338,2022-10-03_15h57.26.232,vts_reward_expectancy,2022.2.4,Win32,15.05162708,Chrome,1536,864,,,,,10,807,,,,,,,,,,,,,,,,,132,B,circle,1,1,,,,,,,,,,,,,,,,repeat,number,numRpt,d,0.7678,Hi,,,,,,0,,,,,,,,low,21,0,21,0,1,,,,,,,,,
293338,2022-10-03_15h57.26.232,vts_reward_expectancy,2022.2.4,Win32,15.05162708,Chrome,1536,864,,,,,0,807,,,,,,,,,,,,,,,,,139,D,circle,1,0,,,,,,,,,,,,,,,,repeat,number,numRpt,d,0.9829,Hi,,,,,,0,,,,,,,,low,22,0,22,0,1,,,,,,,,,
293338,2022-10-03_15h57.26.232,vts_reward_expectancy,2022.2.4,Win32,15.05162708,Chrome,1536,864,,,,,1,808,,,,,,,,,,,,,,,,,125,W,star,1,0,,,,,,,,,,,,,,,,repeat,number,numRpt,d,0.6619,Lo,,,,,,0,,,,,,,,low,23,0,23,0,1,,,,,,,,,
293338,2022-10-03_15h57.26.232,vts_reward_expectancy,2022.2.4,Win32,15.05162708,Chrome,1536,864,,,,,1,809,,,,,,,,,,,,,,,,,146,B,star,1,0,,,,,,,,,,,,,,,,switch,letter,lettSwt,j,0.7563,Lo,,,,,,0,,,,,,,,low,24,0,24,0,1,,,,,,,,,
293338,2022-10-03_15h57.26.232,vts_reward_expectancy,2022.2.4,Win32,15.05162708,Chrome,1536,864,,,,,1,810,,,,,,,,,,,,,,,,,125,W,circle,1,0,,,,,,,,,,,,,,,,repeat,letter,lettRpt,k,0.6495,Hi,,,,,,0,,,,,,,,low,25,0,25,0,1,,,,,,,,,
293338,2022-10-03_15h57.26.232,vts_reward_expectancy,2022.2.4,Win32,15.05162708,Chrome,1536,864,,,,,1,811,,,,,,,,,,,,,,,,,167,U,star,1,0,,,,,,,,,,,,,,,,switch,number,numSwt,f,0.6583,Lo,,,,,,0,,,,,,,,low,26,0,26,0,1,,,,,,,,,
293338,2022-10-03_15h57.26.232,vts_reward_expectancy,2022.2.4,Win32,15.05162708,Chrome,1536,864,,,,,10,821,,,,,,,,,,,,,,,,,174,S,circle,1,0,,,,,,,,,,,,,,,,repeat,number,numRpt,f,0.7635,Hi,,,,,,0,,,,,,,,low,27,0,27,0,1,,,,,,,,,
293338,2022-10-03_15h57.26.232,vts_reward_expectancy,2022.2.4,Win32,15.05162708,Chrome,1536,864,,,,,1,822,,,,,,,,,,,,,,,,,132,Y,circle,1,0,,,,,,,,,,,,,,,,switch,letter,lettSwt,k,0.7576,Hi,,,,,,0,,,,,,,,low,28,0,28,0,1,,,,,,,,,
293338,2022-10-03_15h57.26.232,vts_reward_expectancy,2022.2.4,Win32,15.05162708,Chrome,1536,864,,,,,1,823,,,,,,,,,,,,,,,,,160,F,star,1,0,,,,,,,,,,,,,,,,switch,number,numSwt,f,0.5433,Lo,,,,,,0,,,,,,,,low,29,0,29,0,1,,,,,,,,,
293338,2022-10-03_15h57.26.232,vts_reward_expectancy,2022.2.4,Win32,15.05162708,Chrome,1536,864,,,,,0,823,,,,,,,,,,,,,,,,,181,H,circle,1,0,,,,,,,,,,,,,,,,switch,letter,lettSwt,j,1.8914,Hi,,,,,,0,,,,,,,,low,30,0,30,0,1,,,,,,,,,
293338,2022-10-03_15h57.26.232,vts_reward_expectancy,2022.2.4,Win32,15.05162708,Chrome,1536,864,,,,,10,833,,,,,,,,,,,,,,,,,139,D,star,1,0,,,,,,,,,,,,,,,,switch,number,numSwt,d,1.7822,Lo,,,,,,0,,,,,,,,low,31,0,31,0,1,,,,,,,,,
293338,2022-10-03_15h57.26.232,vts_reward_expectancy,2022.2.4,Win32,15.05162708,Chrome,1536,864,,,,,10,843,,,,,,,,,,,,,,,,,181,D,hexagon,1,0,,,,,,,,,,,,,,,,repeat,number,numRpt,f,0.6399,Hi,,,,,,1,,,,,,space,3.3127,high,0,0,0,0,1,,,,,,,,,
293338,2022-10-03_15h57.26.232,vts_reward_expectancy,2022.2.4,Win32,15.05162708,Chrome,1536,864,,,,,10,853,,,,,,,,,,,,,,,,,125,B,triangle,1,0,,,,,,,,,,,,,,,,switch,letter,lettSwt,j,1.2867,Lo,,,,,,1,,,,,,,,high,1,0,1,0,1,,,,,,,,,
293338,2022-10-03_15h57.26.232,vts_reward_expectancy,2022.2.4,Win32,15.05162708,Chrome,1536,864,,,,,10,863,,,,,,,,,,,,,,,,,174,Y,hexagon,1,0,,,,,,,,,,,,,,,,switch,number,numSwt,f,0.5345,Hi,,,,,,1,,,,,,,,high,2,0,2,0,1,,,,,,,,,
293338,2022-10-03_15h57.26.232,vts_reward_expectancy,2022.2.4,Win32,15.05162708,Chrome,1536,864,,,,,1,864,,,,,,,,,,,,,,,,,132,W,triangle,1,0,,,,,,,,,,,,,,,,switch,letter,lettSwt,k,1.6035,Lo,,,,,,1,,,,,,,,high,3,0,3,0,1,,,,,,,,,
293338,2022-10-03_15h57.26.232,vts_reward_expectancy,2022.2.4,Win32,15.05162708,Chrome,1536,864,,,,,10,874,,,,,,,,,,,,,,,,,139,F,hexagon,1,0,,,,,,,,,,,,,,,,switch,number,numSwt,d,0.4742,Hi,,,,,,1,,,,,,,,high,4,0,4,0,1,,,,,,,,,
293338,2022-10-03_15h57.26.232,vts_reward_expectancy,2022.2.4,Win32,15.05162708,Chrome,1536,864,,,,,10,884,,,,,,,,,,,,,,,,,146,H,triangle,1,0,,,,,,,,,,,,,,,,switch,letter,lettSwt,j,0.6416,Lo,,,,,,1,,,,,,,,high,5,0,5,0,1,,,,,,,,,
293338,2022-10-03_15h57.26.232,vts_reward_expectancy,2022.2.4,Win32,15.05162708,Chrome,1536,864,,,,,10,894,,,,,,,,,,,,,,,,,160,U,hexagon,1,0,,,,,,,,,,,,,,,,switch,number,numSwt,f,0.6433,Hi,,,,,,1,,,,,,,,high,6,0,6,0,1,,,,,,,,,
293338,2022-10-03_15h57.26.232,vts_reward_expectancy,2022.2.4,Win32,15.05162708,Chrome,1536,864,,,,,1,895,,,,,,,,,,,,,,,,,167,S,triangle,1,0,,,,,,,,,,,,,,,,switch,letter,lettSwt,k,0.652,Lo,,,,,,1,,,,,,,,high,7,0,7,0,1,,,,,,,,,
293338,2022-10-03_15h57.26.232,vts_reward_expectancy,2022.2.4,Win32,15.05162708,Chrome,1536,864,,,,,10,905,,,,,,,,,,,,,,,,,181,D,triangle,1,0,,,,,,,,,,,,,,,,switch,number,numSwt,f,0.6368,Lo,,,,,,1,,,,,,,,high,8,0,8,0,1,,,,,,,,,
293338,2022-10-03_15h57.26.232,vts_reward_expectancy,2022.2.4,Win32,15.05162708,Chrome,1536,864,,,,,10,915,,,,,,,,,,,,,,,,,125,B,hexagon,1,0,,,,,,,,,,,,,,,,repeat,number,numRpt,d,0.5383,Hi,,,,,,1,,,,,,,,high,9,0,9,0,1,,,,,,,,,
293338,2022-10-03_15h57.26.232,vts_reward_expectancy,2022.2.4,Win32,15.05162708,Chrome,1536,864,,,,,1,916,,,,,,,,,,,,,,,,,174,Y,triangle,1,0,,,,,,,,,,,,,,,,repeat,number,numRpt,f,0.6379,Lo,,,,,,1,,,,,,,,high,10,0,10,0,1,,,,,,,,,
293338,2022-10-03_15h57.26.232,vts_reward_expectancy,2022.2.4,Win32,15.05162708,Chrome,1536,864,,,,,10,926,,,,,,,,,,,,,,,,,132,W,hexagon,1,0,,,,,,,,,,,,,,,,repeat,number,numRpt,d,0.5345,Hi,,,,,,1,,,,,,,,high,11,0,11,0,1,,,,,,,,,
293338,2022-10-03_15h57.26.232,vts_reward_expectancy,2022.2.4,Win32,15.05162708,Chrome,1536,864,,,,,10,936,,,,,,,,,,,,,,,,,139,F,hexagon,1,0,,,,,,,,,,,,,,,,repeat,number,numRpt,d,0.5343,Hi,,,,,,1,,,,,,,,high,12,0,12,0,1,,,,,,,,,
293338,2022-10-03_15h57.26.232,vts_reward_expectancy,2022.2.4,Win32,15.05162708,Chrome,1536,864,,,,,1,937,,,,,,,,,,,,,,,,,146,H,triangle,1,0,,,,,,,,,,,,,,,,switch,letter,lettSwt,j,0.4375,Lo,,,,,,1,,,,,,,,high,13,0,13,0,1,,,,,,,,,
293338,2022-10-03_15h57.26.232,vts_reward_expectancy,2022.2.4,Win32,15.05162708,Chrome,1536,864,,,,,10,947,,,,,,,,,,,,,,,,,160,U,hexagon,1,0,,,,,,,,,,,,,,,,switch,number,numSwt,f,0.5363,Hi,,,,,,1,,,,,,,,high,14,0,14,0,1,,,,,,,,,
293338,2022-10-03_15h57.26.232,vts_reward_expectancy,2022.2.4,Win32,15.05162708,Chrome,1536,864,,,,,1,948,,,,,,,,,,,,,,,,,167,S,triangle,1,0,,,,,,,,,,,,,,,,switch,letter,lettSwt,k,0.5359,Lo,,,,,,1,,,,,,,,high,15,0,15,0,1,,,,,,,,,
293338,2022-10-03_15h57.26.232,vts_reward_expectancy,2022.2.4,Win32,15.05162708,Chrome,1536,864,,,,,0,948,,,,,,,,,,,,,,,,,167,Y,hexagon,1,0,,,,,,,,,,,,,,,,repeat,letter,lettRpt,k,0.7537,Hi,,,,,,1,,,,,,,,high,16,0,16,0,1,,,,,,,,,
293338,2022-10-03_15h57.26.232,vts_reward_expectancy,2022.2.4,Win32,15.05162708,Chrome,1536,864,,,,,1,949,,,,,,,,,,,,,,,,,146,F,triangle,1,0,,,,,,,,,,,,,,,,repeat,letter,lettRpt,j,0.8558,Lo,,,,,,1,,,,,,,,high,17,0,17,0,1,,,,,,,,,
293338,2022-10-03_15h57.26.232,vts_reward_expectancy,2022.2.4,Win32,15.05162708,Chrome,1536,864,,,,,10,959,,,,,,,,,,,,,,,,,174,H,hexagon,1,0,,,,,,,,,,,,,,,,switch,number,numSwt,f,0.5407,Hi,,,,,,1,,,,,,,,high,18,0,18,0,1,,,,,,,,,
293338,2022-10-03_15h57.26.232,vts_reward_expectancy,2022.2.4,Win32,15.05162708,Chrome,1536,864,,,,,1,960,,,,,,,,,,,,,,,,,139,B,triangle,1,0,,,,,,,,,,,,,,,,repeat,number,numRpt,d,1.0717,Lo,,,,,,1,,,,,,,,high,19,0,19,0,1,,,,,,,,,
293338,2022-10-03_15h57.26.232,vts_reward_expectancy,2022.2.4,Win32,15.05162708,Chrome,1536,864,,,,,1,961,,,,,,,,,,,,,,,,,132,U,triangle,1,0,,,,,,,,,,,,,,,,switch,letter,lettSwt,k,0.5363,Lo,,,,,,1,,,,,,,,high,20,0,20,0,1,,,,,,,,,
293338,2022-10-03_15h57.26.232,vts_reward_expectancy,2022.2.4,Win32,15.05162708,Chrome,1536,864,,,,,10,971,,,,,,,,,,,,,,,,,125,W,hexagon,1,0,,,,,,,,,,,,,,,,switch,number,numSwt,d,0.6434,Hi,,,,,,1,,,,,,,,high,21,0,21,0,1,,,,,,,,,
293338,2022-10-03_15h57.26.232,vts_reward_expectancy,2022.2.4,Win32,15.05162708,Chrome,1536,864,,,,,10,981,,,,,,,,,,,,,,,,,160,S,hexagon,1,0,,,,,,,,,,,,,,,,switch,letter,lettSwt,k,0.7454,Hi,,,,,,1,,,,,,,,high,22,0,22,0,1,,,,,,,,,
293338,2022-10-03_15h57.26.232,vts_reward_expectancy,2022.2.4,Win32,15.05162708,Chrome,1536,864,,,,,10,991,,,,,,,,,,,,,,,,,181,D,triangle,1,0,,,,,,,,,,,,,,,,repeat,letter,lettRpt,j,1.3871,Lo,,,,,,1,,,,,,,,high,23,0,23,0,1,,,,,,,,,
293338,2022-10-03_15h57.26.232,vts_reward_expectancy,2022.2.4,Win32,15.05162708,Chrome,1536,864,,,,,0,991,,,,,,,,,,,,,,,,,160,Y,hexagon,1,0,,,,,,,,,,,,,,,,switch,number,numSwt,f,1.2771,Hi,,,,,,1,,,,,,,,high,24,0,24,0,1,,,,,,,,,
293338,2022-10-03_15h57.26.232,vts_reward_expectancy,2022.2.4,Win32,15.05162708,Chrome,1536,864,,,,,1,992,,,,,,,,,,,,,,,,,174,U,triangle,1,0,,,,,,,,,,,,,,,,switch,letter,lettSwt,k,1.8355,Lo,,,,,,1,,,,,,,,high,25,0,25,0,1,,,,,,,,,
293338,2022-10-03_15h57.26.232,vts_reward_expectancy,2022.2.4,Win32,15.05162708,Chrome,1536,864,,,,,1,993,,,,,,,,,,,,,,,,,167,B,triangle,1,0,,,,,,,,,,,,,,,,switch,number,numSwt,f,1.8154,Lo,,,,,,1,,,,,,,,high,26,0,26,0,1,,,,,,,,,
293338,2022-10-03_15h57.26.232,vts_reward_expectancy,2022.2.4,Win32,15.05162708,Chrome,1536,864,,,,,10,1003,,,,,,,,,,,,,,,,,125,H,hexagon,1,0,,,,,,,,,,,,,,,,repeat,number,numRpt,d,0.4343,Hi,,,,,,1,,,,,,,,high,27,0,27,0,1,,,,,,,,,
293338,2022-10-03_15h57.26.232,vts_reward_expectancy,2022.2.4,Win32,15.05162708,Chrome,1536,864,,,,,1,1004,,,,,,,,,,,,,,,,,181,D,triangle,1,0,,,,,,,,,,,,,,,,switch,letter,lettSwt,j,0.5362,Lo,,,,,,1,,,,,,,,high,28,0,28,0,1,,,,,,,,,
293338,2022-10-03_15h57.26.232,vts_reward_expectancy,2022.2.4,Win32,15.05162708,Chrome,1536,864,,,,,10,1014,,,,,,,,,,,,,,,,,146,W,hexagon,1,0,,,,,,,,,,,,,,,,switch,number,numSwt,d,0.4411,Hi,,,,,,1,,,,,,,,high,29,0,29,0,1,,,,,,,,,
293338,2022-10-03_15h57.26.232,vts_reward_expectancy,2022.2.4,Win32,15.05162708,Chrome,1536,864,,,,,0,1014,,,,,,,,,,,,,,,,,132,S,hexagon,0,0,,,,,,,,,,,,,,,,switch,letter,NA,j,0.536,Hi,,,,,,1,,,,,,,,high,30,0,30,0,1,,,,,,,,,
293338,2022-10-03_15h57.26.232,vts_reward_expectancy,2022.2.4,Win32,15.05162708,Chrome,1536,864,,,,,1,1015,,,,,,,,,,,,,,,,,139,F,triangle,1,1,,,,,,,,,,,,,,,,repeat,letter,lettRpt,j,0.6444,Lo,,,,,,1,,,,,,,,high,31,0,31,0,1,,,,,,,,,
293338,2022-10-03_15h57.26.232,vts_reward_expectancy,2022.2.4,Win32,15.05162708,Chrome,1536,864,,,,,0,1015,,,,,,,,,,,,,,,,,125,F,circle,1,0,,,,,,,,,,,,,,,,switch,number,numSwt,d,0.6584,Hi,,,,,,2,,,,,,space,6.559,low,0,0,0,0,1,,,,,,,,,
293338,2022-10-03_15h57.26.232,vts_reward_expectancy,2022.2.4,Win32,15.05162708,Chrome,1536,864,,,,,1,1016,,,,,,,,,,,,,,,,,181,U,star,1,0,,,,,,,,,,,,,,,,switch,letter,lettSwt,k,1.409,Lo,,,,,,2,,,,,,,,low,1,0,1,0,1,,,,,,,,,
293338,2022-10-03_15h57.26.232,vts_reward_expectancy,2022.2.4,Win32,15.05162708,Chrome,1536,864,,,,,10,1026,,,,,,,,,,,,,,,,,160,S,circle,1,0,,,,,,,,,,,,,,,,repeat,letter,lettRpt,k,0.539,Hi,,,,,,2,,,,,,,,low,2,0,2,0,1,,,,,,,,,
293338,2022-10-03_15h57.26.232,vts_reward_expectancy,2022.2.4,Win32,15.05162708,Chrome,1536,864,,,,,1,1027,,,,,,,,,,,,,,,,,132,D,star,1,0,,,,,,,,,,,,,,,,switch,number,numSwt,d,2.3432,Lo,,,,,,2,,,,,,,,low,3,0,3,0,1,,,,,,,,,
293338,2022-10-03_15h57.26.232,vts_reward_expectancy,2022.2.4,Win32,15.05162708,Chrome,1536,864,,,,,0,1027,,,,,,,,,,,,,,,,,167,Y,circle,1,0,,,,,,,,,,,,,,,,repeat,number,numRpt,f,0.7565,Hi,,,,,,2,,,,,,,,low,4,0,4,0,1,,,,,,,,,
293338,2022-10-03_15h57.26.232,vts_reward_expectancy,2022.2.4,Win32,15.05162708,Chrome,1536,864,,,,,0,1027,,,,,,,,,,,,,,,,,146,H,star,-1,0,,,,,,,,,,,,,,,,switch,no_choice,NA,,,Hi,,,,,,2,,,,,,,,low,5,0,5,0,1,,,,,,,,,
293338,2022-10-03_15h57.26.232,vts_reward_expectancy,2022.2.4,Win32,15.05162708,Chrome,1536,864,,,,,1,1028,,,,,,,,,,,,,,,,,174,W,star,1,0,,,,,,,,,,,,,,,,switch,letter,lettSwt,k,1.3798,Lo,,,,,,2,,,,,,,,low,6,0,6,0,1,,,,,,,,,
293338,2022-10-03_15h57.26.232,vts_reward_expectancy,2022.2.4,Win32,15.05162708,Chrome,1536,864,,,,,0,1028,,,,,,,,,,,,,,,,,139,B,circle,1,0,,,,,,,,,,,,,,,,switch,number,numSwt,d,0.5396,Hi,,,,,,2,,,,,,,,low,7,0,7,0,1,,,,,,,,,
293338,2022-10-03_15h57.26.232,vts_reward_expectancy,2022.2.4,Win32,15.05162708,Chrome,1536,864,,,,,10,1038,,,,,,,,,,,,,,,,,125,F,star,1,0,,,,,,,,,,,,,,,,switch,letter,lettSwt,j,0.5471,Lo,,,,,,2,,,,,,,,low,8,0,8,0,1,,,,,,,,,
293338,2022-10-03_15h57.26.232,vts_reward_expectancy,2022.2.4,Win32,15.05162708,Chrome,1536,864,,,,,0,1038,,,,,,,,,,,,,,,,,181,U,circle,0,0,,,,,,,,,,,,,,,,switch,number,NA,d,0.4312,Lo,,,,,,2,,,,,,,,low,9,0,9,0,1,,,,,,,,,
293338,2022-10-03_15h57.26.232,vts_reward_expectancy,2022.2.4,Win32,15.05162708,Chrome,1536,864,,,,,1,1039,,,,,,,,,,,,,,,,,160,S,star,1,1,,,,,,,,,,,,,,,,switch,letter,lettSwt,k,2.1389,Lo,,,,,,2,,,,,,,,low,10,0,10,0,1,,,,,,,,,
293338,2022-10-03_15h57.26.232,vts_reward_expectancy,2022.2.4,Win32,15.05162708,Chrome,1536,864,,,,,0,1039,,,,,,,,,,,,,,,,,132,D,circle,1,0,,,,,,,,,,,,,,,,switch,number,numSwt,d,0.6449,Hi,,,,,,2,,,,,,,,low,11,0,11,0,1,,,,,,,,,
293338,2022-10-03_15h57.26.232,vts_reward_expectancy,2022.2.4,Win32,15.05162708,Chrome,1536,864,,,,,0,1039,,,,,,,,,,,,,,,,,167,Y,circle,1,0,,,,,,,,,,,,,,,,repeat,number,numRpt,f,0.5365,Hi,,,,,,2,,,,,,,,low,12,0,12,0,1,,,,,,,,,
293338,2022-10-03_15h57.26.232,vts_reward_expectancy,2022.2.4,Win32,15.05162708,Chrome,1536,864,,,,,0,1039,,,,,,,,,,,,,,,,,146,H,star,-1,0,,,,,,,,,,,,,,,,switch,no_choice,NA,,,Hi,,,,,,2,,,,,,,,low,13,0,13,0,1,,,,,,,,,
293338,2022-10-03_15h57.26.232,vts_reward_expectancy,2022.2.4,Win32,15.05162708,Chrome,1536,864,,,,,10,1049,,,,,,,,,,,,,,,,,174,W,star,1,0,,,,,,,,,,,,,,,,switch,number,numSwt,f,2.1553,Lo,,,,,,2,,,,,,,,low,14,0,14,0,1,,,,,,,,,
293338,2022-10-03_15h57.26.232,vts_reward_expectancy,2022.2.4,Win32,15.05162708,Chrome,1536,864,,,,,0,1049,,,,,,,,,,,,,,,,,139,B,circle,1,0,,,,,,,,,,,,,,,,switch,letter,lettSwt,j,0.5389,Hi,,,,,,2,,,,,,,,low,15,0,15,0,1,,,,,,,,,
293338,2022-10-03_15h57.26.232,vts_reward_expectancy,2022.2.4,Win32,15.05162708,Chrome,1536,864,,,,,1,1050,,,,,,,,,,,,,,,,,146,U,star,1,0,,,,,,,,,,,,,,,,switch,number,numSwt,d,1.7169,Lo,,,,,,2,,,,,,,,low,16,0,16,0,1,,,,,,,,,
293338,2022-10-03_15h57.26.232,vts_reward_expectancy,2022.2.4,Win32,15.05162708,Chrome,1536,864,,,,,0,1050,,,,,,,,,,,,,,,,,125,H,circle,1,0,,,,,,,,,,,,,,,,switch,letter,lettSwt,j,0.5388,Hi,,,,,,2,,,,,,,,low,17,0,17,0,1,,,,,,,,,
293338,2022-10-03_15h57.26.232,vts_reward_expectancy,2022.2.4,Win32,15.05162708,Chrome,1536,864,,,,,1,1051,,,,,,,,,,,,,,,,,167,D,star,1,0,,,,,,,,,,,,,,,,switch,number,numSwt,f,1.5624,Lo,,,,,,2,,,,,,,,low,18,0,18,0,1,,,,,,,,,
293338,2022-10-03_15h57.26.232,vts_reward_expectancy,2022.2.4,Win32,15.05162708,Chrome,1536,864,,,,,10,1061,,,,,,,,,,,,,,,,,174,W,circle,1,0,,,,,,,,,,,,,,,,switch,letter,lettSwt,k,0.3369,Hi,,,,,,2,,,,,,,,low,19,0,19,0,1,,,,,,,,,
293338,2022-10-03_15h57.26.232,vts_reward_expectancy,2022.2.4,Win32,15.05162708,Chrome,1536,864,,,,,0,1061,,,,,,,,,,,,,,,,,132,S,circle,0,0,,,,,,,,,,,,,,,,repeat,letter,NA,j,0.3384,Hi,,,,,,2,,,,,,,,low,20,0,20,0,1,,,,,,,,,
293338,2022-10-03_15h57.26.232,vts_reward_expectancy,2022.2.4,Win32,15.05162708,Chrome,1536,864,,,,,10,1071,,,,,,,,,,,,,,,,,160,B,star,1,1,,,,,,,,,,,,,,,,switch,number,numSwt,f,1.5553,Lo,,,,,,2,,,,,,,,low,21,0,21,0,1,,,,,,,,,
293338,2022-10-03_15h57.26.232,vts_reward_expectancy,2022.2.4,Win32,15.05162708,Chrome,1536,864,,,,,10,1081,,,,,,,,,,,,,,,,,139,F,star,1,0,,,,,,,,,,,,,,,,repeat,number,numRpt,d,2.0356,Lo,,,,,,2,,,,,,,,low,22,0,22,0,1,,,,,,,,,
293338,2022-10-03_15h57.26.232,vts_reward_expectancy,2022.2.4,Win32,15.05162708,Chrome,1536,864,,,,,0,1081,,,,,,,,,,,,,,,,,181,Y,circle,0,0,,,,,,,,,,,,,,,,switch,letter,NA,j,0.4335,Lo,,,,,,2,,,,,,,,low,23,0,23,0,1,,,,,,,,,
293338,2022-10-03_15h57.26.232,vts_reward_expectancy,2022.2.4,Win32,15.05162708,Chrome,1536,864,,,,,10,1091,,,,,,,,,,,,,,,,,174,B,circle,1,1,,,,,,,,,,,,,,,,repeat,letter,lettRpt,j,0.3273,Hi,,,,,,2,,,,,,,,low,24,0,24,0,1,,,,,,,,,
293338,2022-10-03_15h57.26.232,vts_reward_expectancy,2022.2.4,Win32,15.05162708,Chrome,1536,864,,,,,10,1101,,,,,,,,,,,,,,,,,146,S,star,1,0,,,,,,,,,,,,,,,,switch,number,numSwt,d,1.8169,Lo,,,,,,2,,,,,,,,low,25,0,25,0,1,,,,,,,,,
293338,2022-10-03_15h57.26.232,vts_reward_expectancy,2022.2.4,Win32,15.05162708,Chrome,1536,864,,,,,0,1101,,,,,,,,,,,,,,,,,181,F,circle,0,0,,,,,,,,,,,,,,,,switch,letter,NA,k,0.4313,Lo,,,,,,2,,,,,,,,low,26,0,26,0,1,,,,,,,,,
293338,2022-10-03_15h57.26.232,vts_reward_expectancy,2022.2.4,Win32,15.05162708,Chrome,1536,864,,,,,1,1102,,,,,,,,,,,,,,,,,132,H,star,1,1,,,,,,,,,,,,,,,,switch,number,numSwt,d,1.6049,Lo,,,,,,2,,,,,,,,low,27,0,27,0,1,,,,,,,,,
293338,2022-10-03_15h57.26.232,vts_reward_expectancy,2022.2.4,Win32,15.05162708,Chrome,1536,864,,,,,1,1103,,,,,,,,,,,,,,,,,125,Y,circle,1,0,,,,,,,,,,,,,,,,switch,letter,lettSwt,k,0.4373,Hi,,,,,,2,,,,,,,,low,28,0,28,0,1,,,,,,,,,
293338,2022-10-03_15h57.26.232,vts_reward_expectancy,2022.2.4,Win32,15.05162708,Chrome,1536,864,,,,,1,1104,,,,,,,,,,,,,,,,,167,W,star,1,0,,,,,,,,,,,,,,,,switch,number,numSwt,f,1.6062,Lo,,,,,,2,,,,,,,,low,29,0,29,0,1,,,,,,,,,
293338,2022-10-03_15h57.26.232,vts_reward_expectancy,2022.2.4,Win32,15.05162708,Chrome,1536,864,,,,,0,1104,,,,,,,,,,,,,,,,,139,U,circle,1,0,,,,,,,,,,,,,,,,switch,letter,lettSwt,k,0.5452,Hi,,,,,,2,,,,,,,,low,30,0,30,0,1,,,,,,,,,
293338,2022-10-03_15h57.26.232,vts_reward_expectancy,2022.2.4,Win32,15.05162708,Chrome,1536,864,,,,,10,1114,,,,,,,,,,,,,,,,,160,D,star,1,0,,,,,,,,,,,,,,,,switch,number,numSwt,f,1.7096,Lo,,,,,,2,,,,,,,,low,31,0,31,0,1,,,,,,,,,
293338,2022-10-03_15h57.26.232,vts_reward_expectancy,2022.2.4,Win32,15.05162708,Chrome,1536,864,,,,,10,1124,,,,,,,,,,,,,,,,,146,B,star,1,0,,,,,,,,,,,,,,,,repeat,number,numRpt,d,1.3995,Lo,,,,,,3,,,,,,space,5.577,low,0,0,0,0,1,,,,,,,,,
293338,2022-10-03_15h57.26.232,vts_reward_expectancy,2022.2.4,Win32,15.05162708,Chrome,1536,864,,,,,0,1124,,,,,,,,,,,,,,,,,139,Y,circle,1,0,,,,,,,,,,,,,,,,switch,letter,lettSwt,k,0.5406,Hi,,,,,,3,,,,,,,,low,1,0,1,0,1,,,,,,,,,
293338,2022-10-03_15h57.26.232,vts_reward_expectancy,2022.2.4,Win32,15.05162708,Chrome,1536,864,,,,,10,1134,,,,,,,,,,,,,,,,,125,D,star,1,0,,,,,,,,,,,,,,,,switch,number,numSwt,d,1.1864,Lo,,,,,,3,,,,,,,,low,2,0,2,0,1,,,,,,,,,
293338,2022-10-03_15h57.26.232,vts_reward_expectancy,2022.2.4,Win32,15.05162708,Chrome,1536,864,,,,,10,1144,,,,,,,,,,,,,,,,,160,S,circle,1,0,,,,,,,,,,,,,,,,switch,letter,lettSwt,k,0.436,Hi,,,,,,3,,,,,,,,low,3,0,3,0,1,,,,,,,,,
293338,2022-10-03_15h57.26.232,vts_reward_expectancy,2022.2.4,Win32,15.05162708,Chrome,1536,864,,,,,10,1154,,,,,,,,,,,,,,,,,181,U,star,1,0,,,,,,,,,,,,,,,,switch,number,numSwt,f,1.7092,Lo,,,,,,3,,,,,,,,low,4,0,4,0,1,,,,,,,,,
293338,2022-10-03_15h57.26.232,vts_reward_expectancy,2022.2.4,Win32,15.05162708,Chrome,1536,864,,,,,10,1164,,,,,,,,,,,,,,,,,132,W,circle,1,0,,,,,,,,,,,,,,,,switch,letter,lettSwt,k,0.4374,Hi,,,,,,3,,,,,,,,low,5,0,5,0,1,,,,,,,,,
293338,2022-10-03_15h57.26.232,vts_reward_expectancy,2022.2.4,Win32,15.05162708,Chrome,1536,864,,,,,10,1174,,,,,,,,,,,,,,,,,174,H,circle,1,0,,,,,,,,,,,,,,,,repeat,letter,lettRpt,j,0.3228,Hi,,,,,,3,,,,,,,,low,6,0,6,0,1,,,,,,,,,
293338,2022-10-03_15h57.26.232,vts_reward_expectancy,2022.2.4,Win32,15.05162708,Chrome,1536,864,,,,,1,1175,,,,,,,,,,,,,,,,,167,F,star,1,0,,,,,,,,,,,,,,,,switch,number,numSwt,f,1.8379,Lo,,,,,,3,,,,,,,,low,7,0,7,0,1,,,,,,,,,
293338,2022-10-03_15h57.26.232,vts_reward_expectancy,2022.2.4,Win32,15.05162708,Chrome,1536,864,,,,,0,1175,,,,,,,,,,,,,,,,,146,B,circle,1,0,,,,,,,,,,,,,,,,switch,letter,lettSwt,j,0.5428,Hi,,,,,,3,,,,,,,,low,8,0,8,0,1,,,,,,,,,
293338,2022-10-03_15h57.26.232,vts_reward_expectancy,2022.2.4,Win32,15.05162708,Chrome,1536,864,,,,,10,1185,,,,,,,,,,,,,,,,,139,Y,star,1,0,,,,,,,,,,,,,,,,switch,number,numSwt,d,1.1923,Lo,,,,,,3,,,,,,,,low,9,0,9,0,1,,,,,,,,,
293338,2022-10-03_15h57.26.232,vts_reward_expectancy,2022.2.4,Win32,15.05162708,Chrome,1536,864,,,,,1,1186,,,,,,,,,,,,,,,,,125,D,star,1,0,,,,,,,,,,,,,,,,repeat,number,numRpt,d,1.8283,Lo,,,,,,3,,,,,,,,low,10,0,10,0,1,,,,,,,,,
293338,2022-10-03_15h57.26.232,vts_reward_expectancy,2022.2.4,Win32,15.05162708,Chrome,1536,864,,,,,0,1186,,,,,,,,,,,,,,,,,160,S,circle,0,0,,,,,,,,,,,,,,,,switch,letter,NA,j,0.6467,Lo,,,,,,3,,,,,,,,low,11,0,11,0,1,,,,,,,,,
293338,2022-10-03_15h57.26.232,vts_reward_expectancy,2022.2.4,Win32,15.05162708,Chrome,1536,864,,,,,0,1186,,,,,,,,,,,,,,,,,181,U,circle,1,1,,,,,,,,,,,,,,,,repeat,letter,lettRpt,k,0.5425,Hi,,,,,,3,,,,,,,,low,12,0,12,0,1,,,,,,,,,
293338,2022-10-03_15h57.26.232,vts_reward_expectancy,2022.2.4,Win32,15.05162708,Chrome,1536,864,,,,,10,1196,,,,,,,,,,,,,,,,,132,W,star,1,0,,,,,,,,,,,,,,,,switch,number,numSwt,d,1.6269,Lo,,,,,,3,,,,,,,,low,13,0,13,0,1,,,,,,,,,
293338,2022-10-03_15h57.26.232,vts_reward_expectancy,2022.2.4,Win32,15.05162708,Chrome,1536,864,,,,,0,1196,,,,,,,,,,,,,,,,,174,H,circle,0,0,,,,,,,,,,,,,,,,switch,letter,NA,k,0.6483,Lo,,,,,,3,,,,,,,,low,14,0,14,0,1,,,,,,,,,
293338,2022-10-03_15h57.26.232,vts_reward_expectancy,2022.2.4,Win32,15.05162708,Chrome,1536,864,,,,,1,1197,,,,,,,,,,,,,,,,,167,F,star,1,1,,,,,,,,,,,,,,,,switch,number,numSwt,f,1.517,Lo,,,,,,3,,,,,,,,low,15,0,15,0,1,,,,,,,,,
293338,2022-10-03_15h57.26.232,vts_reward_expectancy,2022.2.4,Win32,15.05162708,Chrome,1536,864,,,,,1,1198,,,,,,,,,,,,,,,,,160,H,star,1,0,,,,,,,,,,,,,,,,repeat,number,numRpt,f,1.6175,Lo,,,,,,3,,,,,,,,low,16,0,16,0,1,,,,,,,,,
293338,2022-10-03_15h57.26.232,vts_reward_expectancy,2022.2.4,Win32,15.05162708,Chrome,1536,864,,,,,10,1208,,,,,,,,,,,,,,,,,132,Y,circle,1,0,,,,,,,,,,,,,,,,repeat,number,numRpt,d,0.4323,Hi,,,,,,3,,,,,,,,low,17,0,17,0,1,,,,,,,,,
293338,2022-10-03_15h57.26.232,vts_reward_expectancy,2022.2.4,Win32,15.05162708,Chrome,1536,864,,,,,10,1218,,,,,,,,,,,,,,,,,174,W,circle,1,0,,,,,,,,,,,,,,,,repeat,number,numRpt,f,0.434,Hi,,,,,,3,,,,,,,,low,18,0,18,0,1,,,,,,,,,
293338,2022-10-03_15h57.26.232,vts_reward_expectancy,2022.2.4,Win32,15.05162708,Chrome,1536,864,,,,,10,1228,,,,,,,,,,,,,,,,,146,F,star,1,0,,,,,,,,,,,,,,,,switch,letter,lettSwt,j,0.6532,Lo,,,,,,3,,,,,,,,low,19,0,19,0,1,,,,,,,,,
293338,2022-10-03_15h57.26.232,vts_reward_expectancy,2022.2.4,Win32,15.05162708,Chrome,1536,864,,,,,10,1238,,,,,,,,,,,,,,,,,125,D,circle,1,0,,,,,,,,,,,,,,,,switch,number,numSwt,d,0.5518,Hi,,,,,,3,,,,,,,,low,20,0,20,0,1,,,,,,,,,
293338,2022-10-03_15h57.26.232,vts_reward_expectancy,2022.2.4,Win32,15.05162708,Chrome,1536,864,,,,,1,1239,,,,,,,,,,,,,,,,,181,B,star,1,0,,,,,,,,,,,,,,,,switch,letter,lettSwt,j,0.5514,Lo,,,,,,3,,,,,,,,low,21,0,21,0,1,,,,,,,,,
293338,2022-10-03_15h57.26.232,vts_reward_expectancy,2022.2.4,Win32,15.05162708,Chrome,1536,864,,,,,10,1249,,,,,,,,,,,,,,,,,139,U,star,1,0,,,,,,,,,,,,,,,,repeat,letter,lettRpt,k,1.7213,Lo,,,,,,3,,,,,,,,low,22,0,22,0,1,,,,,,,,,
293338,2022-10-03_15h57.26.232,vts_reward_expectancy,2022.2.4,Win32,15.05162708,Chrome,1536,864,,,,,10,1259,,,,,,,,,,,,,,,,,167,S,circle,1,0,,,,,,,,,,,,,,,,switch,number,numSwt,f,0.7583,Hi,,,,,,3,,,,,,,,low,23,0,23,0,1,,,,,,,,,
293338,2022-10-03_15h57.26.232,vts_reward_expectancy,2022.2.4,Win32,15.05162708,Chrome,1536,864,,,,,10,1269,,,,,,,,,,,,,,,,,181,B,circle,1,0,,,,,,,,,,,,,,,,repeat,number,numRpt,f,0.6606,Hi,,,,,,3,,,,,,,,low,24,0,24,0,1,,,,,,,,,
293338,2022-10-03_15h57.26.232,vts_reward_expectancy,2022.2.4,Win32,15.05162708,Chrome,1536,864,,,,,1,1270,,,,,,,,,,,,,,,,,160,W,star,1,0,,,,,,,,,,,,,,,,switch,letter,lettSwt,k,0.6444,Lo,,,,,,3,,,,,,,,low,25,0,25,0,1,,,,,,,,,
293338,2022-10-03_15h57.26.232,vts_reward_expectancy,2022.2.4,Win32,15.05162708,Chrome,1536,864,,,,,10,1280,,,,,,,,,,,,,,,,,125,S,circle,1,0,,,,,,,,,,,,,,,,switch,number,numSwt,d,0.5413,Hi,,,,,,3,,,,,,,,low,26,0,26,0,1,,,,,,,,,
293338,2022-10-03_15h57.26.232,vts_reward_expectancy,2022.2.4,Win32,15.05162708,Chrome,1536,864,,,,,10,1290,,,,,,,,,,,,,,,,,167,D,star,1,0,,,,,,,,,,,,,,,,repeat,number,numRpt,f,0.7547,Lo,,,,,,3,,,,,,,,low,27,0,27,0,1,,,,,,,,,
293338,2022-10-03_15h57.26.232,vts_reward_expectancy,2022.2.4,Win32,15.05162708,Chrome,1536,864,,,,,10,1300,,,,,,,,,,,,,,,,,139,F,circle,1,0,,,,,,,,,,,,,,,,repeat,number,numRpt,d,0.563,Hi,,,,,,3,,,,,,,,low,28,0,28,0,1,,,,,,,,,
293338,2022-10-03_15h57.26.232,vts_reward_expectancy,2022.2.4,Win32,15.05162708,Chrome,1536,864,,,,,1,1301,,,,,,,,,,,,,,,,,146,Y,star,1,0,,,,,,,,,,,,,,,,repeat,number,numRpt,d,0.6546,Lo,,,,,,3,,,,,,,,low,29,0,29,0,1,,,,,,,,,
293338,2022-10-03_15h57.26.232,vts_reward_expectancy,2022.2.4,Win32,15.05162708,Chrome,1536,864,,,,,0,1301,,,,,,,,,,,,,,,,,132,H,circle,0,0,,,,,,,,,,,,,,,,repeat,number,NA,f,0.54,Lo,,,,,,3,,,,,,,,low,30,0,30,0,1,,,,,,,,,
293338,2022-10-03_15h57.26.232,vts_reward_expectancy,2022.2.4,Win32,15.05162708,Chrome,1536,864,,,,,1,1302,,,,,,,,,,,,,,,,,174,U,star,1,1,,,,,,,,,,,,,,,,repeat,number,numRpt,f,1.0732,Lo,,,,,,3,,,,,,,,low,31,0,31,0,1,,,,,,,,,
293338,2022-10-03_15h57.26.232,vts_reward_expectancy,2022.2.4,Win32,15.05162708,Chrome,1536,864,,,,,10,1312,,,,,,,,,,,,,,,,,132,U,hexagon,1,0,,,,,,,,,,,,,,,,repeat,number,numRpt,d,0.6466,Hi,,,,,,4,,,,,,space,3.4486,high,0,0,0,0,1,,,,,,,,,
293338,2022-10-03_15h57.26.232,vts_reward_expectancy,2022.2.4,Win32,15.05162708,Chrome,1536,864,,,,,10,1322,,,,,,,,,,,,,,,,,125,B,triangle,1,0,,,,,,,,,,,,,,,,switch,letter,lettSwt,j,0.5443,Lo,,,,,,4,,,,,,,,high,1,0,1,0,1,,,,,,,,,
293338,2022-10-03_15h57.26.232,vts_reward_expectancy,2022.2.4,Win32,15.05162708,Chrome,1536,864,,,,,10,1332,,,,,,,,,,,,,,,,,160,D,hexagon,1,0,,,,,,,,,,,,,,,,switch,number,numSwt,f,0.8691,Hi,,,,,,4,,,,,,,,high,2,0,2,0,1,,,,,,,,,
293338,2022-10-03_15h57.26.232,vts_reward_expectancy,2022.2.4,Win32,15.05162708,Chrome,1536,864,,,,,10,1342,,,,,,,,,,,,,,,,,146,S,triangle,1,0,,,,,,,,,,,,,,,,switch,letter,lettSwt,k,0.4329,Lo,,,,,,4,,,,,,,,high,3,0,3,0,1,,,,,,,,,
293338,2022-10-03_15h57.26.232,vts_reward_expectancy,2022.2.4,Win32,15.05162708,Chrome,1536,864,,,,,10,1352,,,,,,,,,,,,,,,,,167,Y,hexagon,1,0,,,,,,,,,,,,,,,,switch,number,numSwt,f,0.5402,Hi,,,,,,4,,,,,,,,high,4,0,4,0,1,,,,,,,,,
293338,2022-10-03_15h57.26.232,vts_reward_expectancy,2022.2.4,Win32,15.05162708,Chrome,1536,864,,,,,1,1353,,,,,,,,,,,,,,,,,139,H,triangle,1,0,,,,,,,,,,,,,,,,switch,letter,lettSwt,j,0.6498,Lo,,,,,,4,,,,,,,,high,5,0,5,0,1,,,,,,,,,
293338,2022-10-03_15h57.26.232,vts_reward_expectancy,2022.2.4,Win32,15.05162708,Chrome,1536,864,,,,,1,1354,,,,,,,,,,,,,,,,,181,F,triangle,1,0,,,,,,,,,,,,,,,,repeat,letter,lettRpt,j,1.4016,Lo,,,,,,4,,,,,,,,high,6,0,6,0,1,,,,,,,,,
293338,2022-10-03_15h57.26.232,vts_reward_expectancy,2022.2.4,Win32,15.05162708,Chrome,1536,864,,,,,10,1364,,,,,,,,,,,,,,,,,174,W,hexagon,1,0,,,,,,,,,,,,,,,,switch,number,numSwt,f,0.7555,Hi,,,,,,4,,,,,,,,high,7,0,7,0,1,,,,,,,,,
293338,2022-10-03_15h57.26.232,vts_reward_expectancy,2022.2.4,Win32,15.05162708,Chrome,1536,864,,,,,10,1374,,,,,,,,,,,,,,,,,132,U,triangle,1,0,,,,,,,,,,,,,,,,repeat,number,numRpt,d,0.5431,Lo,,,,,,4,,,,,,,,high,8,0,8,0,1,,,,,,,,,
293338,2022-10-03_15h57.26.232,vts_reward_expectancy,2022.2.4,Win32,15.05162708,Chrome,1536,864,,,,,0,1374,,,,,,,,,,,,,,,,,125,B,hexagon,1,0,,,,,,,,,,,,,,,,switch,letter,lettSwt,j,0.7588,Hi,,,,,,4,,,,,,,,high,9,0,9,0,1,,,,,,,,,
293338,2022-10-03_15h57.26.232,vts_reward_expectancy,2022.2.4,Win32,15.05162708,Chrome,1536,864,,,,,0,1374,,,,,,,,,,,,,,,,,160,D,hexagon,0,0,,,,,,,,,,,,,,,,repeat,letter,NA,k,0.5403,Hi,,,,,,4,,,,,,,,high,10,0,10,0,1,,,,,,,,,
293338,2022-10-03_15h57.26.232,vts_reward_expectancy,2022.2.4,Win32,15.05162708,Chrome,1536,864,,,,,10,1384,,,,,,,,,,,,,,,,,146,S,triangle,1,1,,,,,,,,,,,,,,,,switch,number,numSwt,d,0.7523,Lo,,,,,,4,,,,,,,,high,11,0,11,0,1,,,,,,,,,
293338,2022-10-03_15h57.26.232,vts_reward_expectancy,2022.2.4,Win32,15.05162708,Chrome,1536,864,,,,,0,1384,,,,,,,,,,,,,,,,,167,Y,hexagon,1,0,,,,,,,,,,,,,,,,switch,letter,lettSwt,k,0.5504,Hi,,,,,,4,,,,,,,,high,12,0,12,0,1,,,,,,,,,
293338,2022-10-03_15h57.26.232,vts_reward_expectancy,2022.2.4,Win32,15.05162708,Chrome,1536,864,,,,,1,1385,,,,,,,,,,,,,,,,,139,H,triangle,1,0,,,,,,,,,,,,,,,,switch,number,numSwt,d,0.626,Lo,,,,,,4,,,,,,,,high,13,0,13,0,1,,,,,,,,,
293338,2022-10-03_15h57.26.232,vts_reward_expectancy,2022.2.4,Win32,15.05162708,Chrome,1536,864,,,,,0,1385,,,,,,,,,,,,,,,,,181,F,hexagon,1,0,,,,,,,,,,,,,,,,repeat,number,numRpt,f,1.4074,Hi,,,,,,4,,,,,,,,high,14,0,14,0,1,,,,,,,,,
293338,2022-10-03_15h57.26.232,vts_reward_expectancy,2022.2.4,Win32,15.05162708,Chrome,1536,864,,,,,10,1395,,,,,,,,,,,,,,,,,174,W,triangle,1,0,,,,,,,,,,,,,,,,switch,letter,lettSwt,k,0.8745,Lo,,,,,,4,,,,,,,,high,15,0,15,0,1,,,,,,,,,
293338,2022-10-03_15h57.26.232,vts_reward_expectancy,2022.2.4,Win32,15.05162708,Chrome,1536,864,,,,,10,1405,,,,,,,,,,,,,,,,,167,U,hexagon,1,0,,,,,,,,,,,,,,,,switch,number,numSwt,f,0.6518,Hi,,,,,,4,,,,,,,,high,16,0,16,0,1,,,,,,,,,
293338,2022-10-03_15h57.26.232,vts_reward_expectancy,2022.2.4,Win32,15.05162708,Chrome,1536,864,,,,,10,1415,,,,,,,,,,,,,,,,,139,B,triangle,1,0,,,,,,,,,,,,,,,,switch,letter,lettSwt,j,0.6627,Lo,,,,,,4,,,,,,,,high,17,0,17,0,1,,,,,,,,,
293338,2022-10-03_15h57.26.232,vts_reward_expectancy,2022.2.4,Win32,15.05162708,Chrome,1536,864,,,,,1,1416,,,,,,,,,,,,,,,,,181,D,triangle,1,0,,,,,,,,,,,,,,,,repeat,letter,lettRpt,j,1.2049,Lo,,,,,,4,,,,,,,,high,18,0,18,0,1,,,,,,,,,
293338,2022-10-03_15h57.26.232,vts_reward_expectancy,2022.2.4,Win32,15.05162708,Chrome,1536,864,,,,,10,1426,,,,,,,,,,,,,,,,,132,S,hexagon,1,0,,,,,,,,,,,,,,,,switch,number,numSwt,d,0.5422,Hi,,,,,,4,,,,,,,,high,19,0,19,0,1,,,,,,,,,
293338,2022-10-03_15h57.26.232,vts_reward_expectancy,2022.2.4,Win32,15.05162708,Chrome,1536,864,,,,,10,1436,,,,,,,,,,,,,,,,,125,Y,hexagon,1,0,,,,,,,,,,,,,,,,repeat,number,numRpt,d,0.5432,Hi,,,,,,4,,,,,,,,high,20,0,20,0,1,,,,,,,,,
293338,2022-10-03_15h57.26.232,vts_reward_expectancy,2022.2.4,Win32,15.05162708,Chrome,1536,864,,,,,1,1437,,,,,,,,,,,,,,,,,174,H,triangle,1,0,,,,,,,,,,,,,,,,switch,letter,lettSwt,j,1.0781,Lo,,,,,,4,,,,,,,,high,21,0,21,0,1,,,,,,,,,
293338,2022-10-03_15h57.26.232,vts_reward_expectancy,2022.2.4,Win32,15.05162708,Chrome,1536,864,,,,,10,1447,,,,,,,,,,,,,,,,,160,W,hexagon,1,0,,,,,,,,,,,,,,,,switch,number,numSwt,f,0.5433,Hi,,,,,,4,,,,,,,,high,22,0,22,0,1,,,,,,,,,
293338,2022-10-03_15h57.26.232,vts_reward_expectancy,2022.2.4,Win32,15.05162708,Chrome,1536,864,,,,,1,1448,,,,,,,,,,,,,,,,,146,F,triangle,1,0,,,,,,,,,,,,,,,,switch,letter,lettSwt,j,0.5395,Lo,,,,,,4,,,,,,,,high,23,0,23,0,1,,,,,,,,,
293338,2022-10-03_15h57.26.232,vts_reward_expectancy,2022.2.4,Win32,15.05162708,Chrome,1536,864,,,,,10,1458,,,,,,,,,,,,,,,,,167,S,hexagon,1,0,,,,,,,,,,,,,,,,switch,number,numSwt,f,0.6467,Hi,,,,,,4,,,,,,,,high,24,0,24,0,1,,,,,,,,,
293338,2022-10-03_15h57.26.232,vts_reward_expectancy,2022.2.4,Win32,15.05162708,Chrome,1536,864,,,,,1,1459,,,,,,,,,,,,,,,,,125,H,triangle,1,0,,,,,,,,,,,,,,,,switch,letter,lettSwt,j,1.6178,Lo,,,,,,4,,,,,,,,high,25,0,25,0,1,,,,,,,,,
293338,2022-10-03_15h57.26.232,vts_reward_expectancy,2022.2.4,Win32,15.05162708,Chrome,1536,864,,,,,10,1469,,,,,,,,,,,,,,,,,146,D,triangle,1,0,,,,,,,,,,,,,,,,switch,number,numSwt,d,0.6499,Lo,,,,,,4,,,,,,,,high,26,0,26,0,1,,,,,,,,,
293338,2022-10-03_15h57.26.232,vts_reward_expectancy,2022.2.4,Win32,15.05162708,Chrome,1536,864,,,,,10,1479,,,,,,,,,,,,,,,,,139,F,hexagon,1,0,,,,,,,,,,,,,,,,repeat,number,numRpt,d,0.6499,Hi,,,,,,4,,,,,,,,high,27,0,27,0,1,,,,,,,,,
293338,2022-10-03_15h57.26.232,vts_reward_expectancy,2022.2.4,Win32,15.05162708,Chrome,1536,864,,,,,1,1480,,,,,,,,,,,,,,,,,132,U,triangle,1,0,,,,,,,,,,,,,,,,repeat,number,numRpt,d,0.5387,Lo,,,,,,4,,,,,,,,high,28,0,28,0,1,,,,,,,,,
293338,2022-10-03_15h57.26.232,vts_reward_expectancy,2022.2.4,Win32,15.05162708,Chrome,1536,864,,,,,10,1490,,,,,,,,,,,,,,,,,160,B,hexagon,1,0,,,,,,,,,,,,,,,,repeat,number,numRpt,f,0.5434,Hi,,,,,,4,,,,,,,,high,29,0,29,0,1,,,,,,,,,
293338,2022-10-03_15h57.26.232,vts_reward_expectancy,2022.2.4,Win32,15.05162708,Chrome,1536,864,,,,,1,1491,,,,,,,,,,,,,,,,,181,W,triangle,1,0,,,,,,,,,,,,,,,,switch,letter,lettSwt,k,0.8622,Lo,,,,,,4,,,,,,,,high,30,0,30,0,1,,,,,,,,,
293338,2022-10-03_15h57.26.232,vts_reward_expectancy,2022.2.4,Win32,15.05162708,Chrome,1536,864,,,,,10,1501,,,,,,,,,,,,,,,,,174,Y,hexagon,1,0,,,,,,,,,,,,,,,,switch,number,numSwt,f,0.5448,Hi,,,,,,4,,,,,,,,high,31,0,31,0,1,,,,,,,,,
293338,2022-10-03_15h57.26.232,vts_reward_expectancy,2022.2.4,Win32,15.05162708,Chrome,1536,864,,,,,0,1501,,,,,,,,,,,,,,,,,125,U,hexagon,1,0,,,,,,,,,,,,,,,,repeat,number,numRpt,d,0.5454,Hi,,,,,,5,,,,,,space,2.4706,high,0,0,0,0,1,,,,,,,,,
293338,2022-10-03_15h57.26.232,vts_reward_expectancy,2022.2.4,Win32,15.05162708,Chrome,1536,864,,,,,1,1502,,,,,,,,,,,,,,,,,167,B,triangle,1,0,,,,,,,,,,,,,,,,switch,letter,lettSwt,j,0.6489,Lo,,,,,,5,,,,,,,,high,1,0,1,0,1,,,,,,,,,
293338,2022-10-03_15h57.26.232,vts_reward_expectancy,2022.2.4,Win32,15.05162708,Chrome,1536,864,,,,,10,1512,,,,,,,,,,,,,,,,,174,S,hexagon,1,0,,,,,,,,,,,,,,,,repeat,letter,lettRpt,k,0.6481,Hi,,,,,,5,,,,,,,,high,2,0,2,0,1,,,,,,,,,
293338,2022-10-03_15h57.26.232,vts_reward_expectancy,2022.2.4,Win32,15.05162708,Chrome,1536,864,,,,,1,1513,,,,,,,,,,,,,,,,,132,F,triangle,1,0,,,,,,,,,,,,,,,,switch,number,numSwt,d,0.6533,Lo,,,,,,5,,,,,,,,high,3,0,3,0,1,,,,,,,,,
293338,2022-10-03_15h57.26.232,vts_reward_expectancy,2022.2.4,Win32,15.05162708,Chrome,1536,864,,,,,1,1514,,,,,,,,,,,,,,,,,146,Y,triangle,1,0,,,,,,,,,,,,,,,,switch,letter,lettSwt,k,0.6498,Lo,,,,,,5,,,,,,,,high,4,0,4,0,1,,,,,,,,,
293338,2022-10-03_15h57.26.232,vts_reward_expectancy,2022.2.4,Win32,15.05162708,Chrome,1536,864,,,,,1,1515,,,,,,,,,,,,,,,,,139,W,hexagon,1,0,,,,,,,,,,,,,,,,repeat,letter,lettRpt,k,0.5448,Hi,,,,,,5,,,,,,,,high,5,0,5,0,1,,,,,,,,,
293338,2022-10-03_15h57.26.232,vts_reward_expectancy,2022.2.4,Win32,15.05162708,Chrome,1536,864,,,,,0,1515,,,,,,,,,,,,,,,,,181,D,hexagon,1,0,,,,,,,,,,,,,,,,switch,number,numSwt,f,0.8624,Hi,,,,,,5,,,,,,,,high,6,0,6,0,1,,,,,,,,,
293338,2022-10-03_15h57.26.232,vts_reward_expectancy,2022.2.4,Win32,15.05162708,Chrome,1536,864,,,,,1,1516,,,,,,,,,,,,,,,,,160,H,triangle,1,0,,,,,,,,,,,,,,,,switch,letter,lettSwt,j,1.076,Lo,,,,,,5,,,,,,,,high,7,0,7,0,1,,,,,,,,,
293338,2022-10-03_15h57.26.232,vts_reward_expectancy,2022.2.4,Win32,15.05162708,Chrome,1536,864,,,,,10,1526,,,,,,,,,,,,,,,,,125,U,hexagon,1,0,,,,,,,,,,,,,,,,repeat,letter,lettRpt,k,0.5484,Hi,,,,,,5,,,,,,,,high,8,0,8,0,1,,,,,,,,,
293338,2022-10-03_15h57.26.232,vts_reward_expectancy,2022.2.4,Win32,15.05162708,Chrome,1536,864,,,,,1,1527,,,,,,,,,,,,,,,,,167,B,triangle,1,0,,,,,,,,,,,,,,,,switch,number,numSwt,f,1.0745,Lo,,,,,,5,,,,,,,,high,9,0,9,0,1,,,,,,,,,
293338,2022-10-03_15h57.26.232,vts_reward_expectancy,2022.2.4,Win32,15.05162708,Chrome,1536,864,,,,,1,1528,,,,,,,,,,,,,,,,,174,S,triangle,1,0,,,,,,,,,,,,,,,,switch,letter,lettSwt,k,0.9784,Lo,,,,,,5,,,,,,,,high,10,0,10,0,1,,,,,,,,,
293338,2022-10-03_15h57.26.232,vts_reward_expectancy,2022.2.4,Win32,15.05162708,Chrome,1536,864,,,,,10,1538,,,,,,,,,,,,,,,,,132,F,hexagon,1,0,,,,,,,,,,,,,,,,repeat,letter,lettRpt,j,0.5452,Hi,,,,,,5,,,,,,,,high,11,0,11,0,1,,,,,,,,,
293338,2022-10-03_15h57.26.232,vts_reward_expectancy,2022.2.4,Win32,15.05162708,Chrome,1536,864,,,,,0,1538,,,,,,,,,,,,,,,,,146,Y,hexagon,0,0,,,,,,,,,,,,,,,,repeat,letter,NA,j,0.5447,Hi,,,,,,5,,,,,,,,high,12,0,12,0,1,,,,,,,,,
293338,2022-10-03_15h57.26.232,vts_reward_expectancy,2022.2.4,Win32,15.05162708,Chrome,1536,864,,,,,1,1539,,,,,,,,,,,,,,,,,139,W,triangle,1,1,,,,,,,,,,,,,,,,switch,number,numSwt,d,0.6533,Lo,,,,,,5,,,,,,,,high,13,0,13,0,1,,,,,,,,,
293338,2022-10-03_15h57.26.232,vts_reward_expectancy,2022.2.4,Win32,15.05162708,Chrome,1536,864,,,,,0,1539,,,,,,,,,,,,,,,,,181,D,hexagon,0,0,,,,,,,,,,,,,,,,switch,letter,NA,k,0.4464,Lo,,,,,,5,,,,,,,,high,14,0,14,0,1,,,,,,,,,
293338,2022-10-03_15h57.26.232,vts_reward_expectancy,2022.2.4,Win32,15.05162708,Chrome,1536,864,,,,,1,1540,,,,,,,,,,,,,,,,,160,H,triangle,1,1,,,,,,,,,,,,,,,,repeat,letter,lettRpt,j,1.632,Lo,,,,,,5,,,,,,,,high,15,0,15,0,1,,,,,,,,,
293338,2022-10-03_15h57.26.232,vts_reward_expectancy,2022.2.4,Win32,15.05162708,Chrome,1536,864,,,,,1,1541,,,,,,,,,,,,,,,,,125,W,triangle,1,0,,,,,,,,,,,,,,,,switch,number,numSwt,d,1.4059,Lo,,,,,,5,,,,,,,,high,16,0,16,0,1,,,,,,,,,
293338,2022-10-03_15h57.26.232,vts_reward_expectancy,2022.2.4,Win32,15.05162708,Chrome,1536,864,,,,,0,1541,,,,,,,,,,,,,,,,,146,Y,hexagon,0,0,,,,,,,,,,,,,,,,switch,letter,NA,j,0.6568,Lo,,,,,,5,,,,,,,,high,17,0,17,0,1,,,,,,,,,
293338,2022-10-03_15h57.26.232,vts_reward_expectancy,2022.2.4,Win32,15.05162708,Chrome,1536,864,,,,,10,1551,,,,,,,,,,,,,,,,,132,D,hexagon,1,1,,,,,,,,,,,,,,,,repeat,letter,lettRpt,j,0.9798,Hi,,,,,,5,,,,,,,,high,18,0,18,0,1,,,,,,,,,
293338,2022-10-03_15h57.26.232,vts_reward_expectancy,2022.2.4,Win32,15.05162708,Chrome,1536,864,,,,,1,1552,,,,,,,,,,,,,,,,,167,H,triangle,1,0,,,,,,,,,,,,,,,,switch,number,numSwt,f,0.6517,Lo,,,,,,5,,,,,,,,high,19,0,19,0,1,,,,,,,,,
293338,2022-10-03_15h57.26.232,vts_reward_expectancy,2022.2.4,Win32,15.05162708,Chrome,1536,864,,,,,1,1553,,,,,,,,,,,,,,,,,160,U,triangle,1,0,,,,,,,,,,,,,,,,repeat,number,numRpt,f,2.4621,Lo,,,,,,5,,,,,,,,high,20,0,20,0,1,,,,,,,,,
293338,2022-10-03_15h57.26.232,vts_reward_expectancy,2022.2.4,Win32,15.05162708,Chrome,1536,864,,,,,10,1563,,,,,,,,,,,,,,,,,174,B,hexagon,1,0,,,,,,,,,,,,,,,,switch,letter,lettSwt,j,0.432,Hi,,,,,,5,,,,,,,,high,21,0,21,0,1,,,,,,,,,
293338,2022-10-03_15h57.26.232,vts_reward_expectancy,2022.2.4,Win32,15.05162708,Chrome,1536,864,,,,,10,1573,,,,,,,,,,,,,,,,,139,S,hexagon,1,0,,,,,,,,,,,,,,,,repeat,letter,lettRpt,k,0.5425,Hi,,,,,,5,,,,,,,,high,22,0,22,0,1,,,,,,,,,
293338,2022-10-03_15h57.26.232,vts_reward_expectancy,2022.2.4,Win32,15.05162708,Chrome,1536,864,,,,,1,1574,,,,,,,,,,,,,,,,,181,F,triangle,1,0,,,,,,,,,,,,,,,,repeat,letter,lettRpt,j,0.6443,Lo,,,,,,5,,,,,,,,high,23,0,23,0,1,,,,,,,,,
293338,2022-10-03_15h57.26.232,vts_reward_expectancy,2022.2.4,Win32,15.05162708,Chrome,1536,864,,,,,1,1575,,,,,,,,,,,,,,,,,160,F,triangle,1,0,,,,,,,,,,,,,,,,switch,number,numSwt,f,0.6515,Lo,,,,,,5,,,,,,,,high,24,0,24,0,1,,,,,,,,,
293338,2022-10-03_15h57.26.232,vts_reward_expectancy,2022.2.4,Win32,15.05162708,Chrome,1536,864,,,,,0,1575,,,,,,,,,,,,,,,,,174,D,hexagon,0,0,,,,,,,,,,,,,,,,switch,letter,NA,k,0.4319,Lo,,,,,,5,,,,,,,,high,25,0,25,0,1,,,,,,,,,
293338,2022-10-03_15h57.26.232,vts_reward_expectancy,2022.2.4,Win32,15.05162708,Chrome,1536,864,,,,,10,1585,,,,,,,,,,,,,,,,,167,S,hexagon,1,1,,,,,,,,,,,,,,,,repeat,letter,lettRpt,k,0.6434,Hi,,,,,,5,,,,,,,,high,26,0,26,0,1,,,,,,,,,
293338,2022-10-03_15h57.26.232,vts_reward_expectancy,2022.2.4,Win32,15.05162708,Chrome,1536,864,,,,,1,1586,,,,,,,,,,,,,,,,,139,H,triangle,1,0,,,,,,,,,,,,,,,,switch,number,numSwt,d,0.7512,Lo,,,,,,5,,,,,,,,high,27,0,27,0,1,,,,,,,,,
293338,2022-10-03_15h57.26.232,vts_reward_expectancy,2022.2.4,Win32,15.05162708,Chrome,1536,864,,,,,0,1586,,,,,,,,,,,,,,,,,146,Y,triangle,0,0,,,,,,,,,,,,,,,,repeat,number,NA,f,0.4348,Lo,,,,,,5,,,,,,,,high,28,0,28,0,1,,,,,,,,,
293338,2022-10-03_15h57.26.232,vts_reward_expectancy,2022.2.4,Win32,15.05162708,Chrome,1536,864,,,,,10,1596,,,,,,,,,,,,,,,,,181,B,hexagon,1,1,,,,,,,,,,,,,,,,switch,letter,lettSwt,j,0.5382,Hi,,,,,,5,,,,,,,,high,29,0,29,0,1,,,,,,,,,
293338,2022-10-03_15h57.26.232,vts_reward_expectancy,2022.2.4,Win32,15.05162708,Chrome,1536,864,,,,,1,1597,,,,,,,,,,,,,,,,,132,W,triangle,1,0,,,,,,,,,,,,,,,,switch,number,numSwt,d,0.6465,Lo,,,,,,5,,,,,,,,high,30,0,30,0,1,,,,,,,,,
293338,2022-10-03_15h57.26.232,vts_reward_expectancy,2022.2.4,Win32,15.05162708,Chrome,1536,864,,,,,10,1607,,,,,,,,,,,,,,,,,125,U,hexagon,1,0,,,,,,,,,,,,,,,,switch,letter,lettSwt,k,0.2208,Hi,,,,,,5,,,,,,,,high,31,0,31,0,1,,,,,,,,,
293338,2022-10-03_15h57.26.232,vts_reward_expectancy,2022.2.4,Win32,15.05162708,Chrome,1536,864,,,,,,,,,,,,,,,,,,,,,,,,,,,,,,,,,,,,,,,,,,,,,,,,,,,,,,6,,,,,,,,,,,,,,"Press d-key for numbers less than 153, press f-key for numbers larger than 153. Press j-key for letters closer to A, press k-key for letters closer to Z. Try to figure out which shapes require you to respond fast or not.",2,Too many tasks to complete at once,4,4,1,I wish there was a way for me to know my results in comparison to other people. (And also I want to know what the pattern of the shapes was I couldn't figure it out.),1536,864
