participant,date,expName,psychopyVersion,OS,frameRate,browser,xResolution,yResolution,key_resp.keys,key_resp.rt,training_resp.keys,training_resp.rt,points_trial,points_cumul,trainBlock,training.thisRepN,training.thisTrialN,training.thisN,training.thisIndex,training.ran,LTriangleOpac,LCircleOpac,LHexagonOpac,LStarOpac,RTriangleOpac,RCircleOpac,RHexagonOpac,RStarOpac,LShape_ID,RShape_ID,curr_topStim,curr_bottStim,curr_shape,acc,E1,target_resp_prac1.keys,pracBlock,task1_prac_trials.thisRepN,task1_prac_trials.thisTrialN,task1_prac_trials.thisN,task1_prac_trials.thisIndex,task1_prac_trials.ran,target_resp_prac1.rt,target_resp_prac2.keys,target_resp_prac2.rt,task2_praac_trials.thisRepN,task2_praac_trials.thisTrialN,task2_praac_trials.thisN,task2_praac_trials.thisIndex,task2_praac_trials.ran,alt,task,condition,target_resp.keys,target_resp.rt,rewCond,vts_practice_trials.thisRepN,vts_practice_trials.thisTrialN,vts_practice_trials.thisN,vts_practice_trials.thisIndex,vts_practice_trials.ran,blockNum,trials_norew.thisRepN,trials_norew.thisTrialN,trials_norew.thisN,trials_norew.thisIndex,trials_norew.ran,key_resp_2.keys,key_resp_2.rt,rewExpect,trials_rew.thisRepN,trials_rew.thisTrialN,trials_rew.thisN,trials_rew.thisIndex,trials_rew.ran,Q1,Q2,Q2_text,Q3,Q4,Q5_text,xRes,yRes
294901,2022-09-27_24h12.56.297,vts_reward_expectancy,2022.2.4,MacIntel,60.0024001,Chrome,1440,900,,,,,,,,,,,,,,,,,,,,,,,,,,,,,,,,,,,,,,,,,,,,,,,,,,,,,,,,,,,,,,,,,,,,,,,,,,,
294901,2022-09-27_24h12.56.297,vts_reward_expectancy,2022.2.4,MacIntel,60.0024001,Chrome,1440,900,space,5.8174,,,,,,,,,,,,,,,,,,,,,,,,,,,,,,,,,,,,,,,,,,,,,,,,,,,,,,,,,,,,,,,,,,,,,,,,,
294901,2022-09-27_24h12.56.297,vts_reward_expectancy,2022.2.4,MacIntel,60.0024001,Chrome,1440,900,,,,,,,,,,,,,,,,,,,,,,,,,,,,,,,,,,,,,,,,,,,,,,,,,,,,,,,,,,,,,,,,,,,,,,,,,,,
294901,2022-09-27_24h12.56.297,vts_reward_expectancy,2022.2.4,MacIntel,60.0024001,Chrome,1440,900,,,a,1.7329,1,1,0,0,0,0,2,1,1,0,0,0,0,0,0,1,triangle,star,,,,,,,,,,,,,,,,,,,,,,,,,,,,,,,,,,,,,,,,,,,,,,,,,,,,,
294901,2022-09-27_24h12.56.297,vts_reward_expectancy,2022.2.4,MacIntel,60.0024001,Chrome,1440,900,,,a,2.3502,1,2,0,0,1,1,8,1,0,0,1,0,0,0,0,1,hexagon,star,,,,,,,,,,,,,,,,,,,,,,,,,,,,,,,,,,,,,,,,,,,,,,,,,,,,,
294901,2022-09-27_24h12.56.297,vts_reward_expectancy,2022.2.4,MacIntel,60.0024001,Chrome,1440,900,,,a,1.0483,1,3,0,0,2,2,11,1,0,0,0,1,0,0,1,0,star,hexagon,,,,,,,,,,,,,,,,,,,,,,,,,,,,,,,,,,,,,,,,,,,,,,,,,,,,,
294901,2022-09-27_24h12.56.297,vts_reward_expectancy,2022.2.4,MacIntel,60.0024001,Chrome,1440,900,,,l,0.8627,1,4,0,0,3,3,0,1,1,0,0,0,0,1,0,0,triangle,circle,,,,,,,,,,,,,,,,,,,,,,,,,,,,,,,,,,,,,,,,,,,,,,,,,,,,,
294901,2022-09-27_24h12.56.297,vts_reward_expectancy,2022.2.4,MacIntel,60.0024001,Chrome,1440,900,,,l,0.8743,1,5,0,0,4,4,10,1,0,0,0,1,0,1,0,0,star ,circle,,,,,,,,,,,,,,,,,,,,,,,,,,,,,,,,,,,,,,,,,,,,,,,,,,,,,
294901,2022-09-27_24h12.56.297,vts_reward_expectancy,2022.2.4,MacIntel,60.0024001,Chrome,1440,900,,,l,1.4811,1,6,0,0,5,5,5,1,0,1,0,0,0,0,0,1,circle,star,,,,,,,,,,,,,,,,,,,,,,,,,,,,,,,,,,,,,,,,,,,,,,,,,,,,,
294901,2022-09-27_24h12.56.297,vts_reward_expectancy,2022.2.4,MacIntel,60.0024001,Chrome,1440,900,,,l,2.6706,10,16,0,0,6,6,7,1,0,0,1,0,0,1,0,0,hexagon,circle,,,,,,,,,,,,,,,,,,,,,,,,,,,,,,,,,,,,,,,,,,,,,,,,,,,,,
294901,2022-09-27_24h12.56.297,vts_reward_expectancy,2022.2.4,MacIntel,60.0024001,Chrome,1440,900,,,l,2.2131,1,17,0,0,7,7,4,1,0,1,0,0,0,0,1,0,circle,hexagon,,,,,,,,,,,,,,,,,,,,,,,,,,,,,,,,,,,,,,,,,,,,,,,,,,,,,
294901,2022-09-27_24h12.56.297,vts_reward_expectancy,2022.2.4,MacIntel,60.0024001,Chrome,1440,900,,,a,0.4336,10,27,0,0,8,8,3,1,0,1,0,0,1,0,0,0,circle,triangle,,,,,,,,,,,,,,,,,,,,,,,,,,,,,,,,,,,,,,,,,,,,,,,,,,,,,
294901,2022-09-27_24h12.56.297,vts_reward_expectancy,2022.2.4,MacIntel,60.0024001,Chrome,1440,900,,,l,1.4901,10,37,0,0,9,9,1,1,1,0,0,0,0,0,1,0,triangle,hexagon,,,,,,,,,,,,,,,,,,,,,,,,,,,,,,,,,,,,,,,,,,,,,,,,,,,,,
294901,2022-09-27_24h12.56.297,vts_reward_expectancy,2022.2.4,MacIntel,60.0024001,Chrome,1440,900,,,l,1.5338,10,47,0,0,10,10,9,1,0,0,0,1,1,0,0,0,star,triangle,,,,,,,,,,,,,,,,,,,,,,,,,,,,,,,,,,,,,,,,,,,,,,,,,,,,,
294901,2022-09-27_24h12.56.297,vts_reward_expectancy,2022.2.4,MacIntel,60.0024001,Chrome,1440,900,,,l,0.8752,10,57,0,0,11,11,6,1,0,0,1,0,1,0,0,0,hexagon,triangle,,,,,,,,,,,,,,,,,,,,,,,,,,,,,,,,,,,,,,,,,,,,,,,,,,,,,
294901,2022-09-27_24h12.56.297,vts_reward_expectancy,2022.2.4,MacIntel,60.0024001,Chrome,1440,900,,,l,0.8354,1,58,0,1,0,12,11,1,0,0,0,1,0,0,1,0,star,hexagon,,,,,,,,,,,,,,,,,,,,,,,,,,,,,,,,,,,,,,,,,,,,,,,,,,,,,
294901,2022-09-27_24h12.56.297,vts_reward_expectancy,2022.2.4,MacIntel,60.0024001,Chrome,1440,900,,,a,0.9392,1,59,0,1,1,13,10,1,0,0,0,1,0,1,0,0,star ,circle,,,,,,,,,,,,,,,,,,,,,,,,,,,,,,,,,,,,,,,,,,,,,,,,,,,,,
294901,2022-09-27_24h12.56.297,vts_reward_expectancy,2022.2.4,MacIntel,60.0024001,Chrome,1440,900,,,a,1.9823,1,60,0,1,2,14,9,1,0,0,0,1,1,0,0,0,star,triangle,,,,,,,,,,,,,,,,,,,,,,,,,,,,,,,,,,,,,,,,,,,,,,,,,,,,,
294901,2022-09-27_24h12.56.297,vts_reward_expectancy,2022.2.4,MacIntel,60.0024001,Chrome,1440,900,,,l,0.917,10,70,0,1,3,15,7,1,0,0,1,0,0,1,0,0,hexagon,circle,,,,,,,,,,,,,,,,,,,,,,,,,,,,,,,,,,,,,,,,,,,,,,,,,,,,,
294901,2022-09-27_24h12.56.297,vts_reward_expectancy,2022.2.4,MacIntel,60.0024001,Chrome,1440,900,,,a,1.2007,10,80,0,1,4,16,0,1,1,0,0,0,0,1,0,0,triangle,circle,,,,,,,,,,,,,,,,,,,,,,,,,,,,,,,,,,,,,,,,,,,,,,,,,,,,,
294901,2022-09-27_24h12.56.297,vts_reward_expectancy,2022.2.4,MacIntel,60.0024001,Chrome,1440,900,,,a,0.5831,1,81,0,1,5,17,2,1,1,0,0,0,0,0,0,1,triangle,star,,,,,,,,,,,,,,,,,,,,,,,,,,,,,,,,,,,,,,,,,,,,,,,,,,,,,
294901,2022-09-27_24h12.56.297,vts_reward_expectancy,2022.2.4,MacIntel,60.0024001,Chrome,1440,900,,,l,1.7843,10,91,0,1,6,18,3,1,0,1,0,0,1,0,0,0,circle,triangle,,,,,,,,,,,,,,,,,,,,,,,,,,,,,,,,,,,,,,,,,,,,,,,,,,,,,
294901,2022-09-27_24h12.56.297,vts_reward_expectancy,2022.2.4,MacIntel,60.0024001,Chrome,1440,900,,,l,0.9506,1,92,0,1,7,19,6,1,0,0,1,0,1,0,0,0,hexagon,triangle,,,,,,,,,,,,,,,,,,,,,,,,,,,,,,,,,,,,,,,,,,,,,,,,,,,,,
294901,2022-09-27_24h12.56.297,vts_reward_expectancy,2022.2.4,MacIntel,60.0024001,Chrome,1440,900,,,a,0.7498,10,102,0,1,8,20,4,1,0,1,0,0,0,0,1,0,circle,hexagon,,,,,,,,,,,,,,,,,,,,,,,,,,,,,,,,,,,,,,,,,,,,,,,,,,,,,
294901,2022-09-27_24h12.56.297,vts_reward_expectancy,2022.2.4,MacIntel,60.0024001,Chrome,1440,900,,,a,0.5674,10,112,0,1,9,21,1,1,1,0,0,0,0,0,1,0,triangle,hexagon,,,,,,,,,,,,,,,,,,,,,,,,,,,,,,,,,,,,,,,,,,,,,,,,,,,,,
294901,2022-09-27_24h12.56.297,vts_reward_expectancy,2022.2.4,MacIntel,60.0024001,Chrome,1440,900,,,a,0.5313,10,122,0,1,10,22,5,1,0,1,0,0,0,0,0,1,circle,star,,,,,,,,,,,,,,,,,,,,,,,,,,,,,,,,,,,,,,,,,,,,,,,,,,,,,
294901,2022-09-27_24h12.56.297,vts_reward_expectancy,2022.2.4,MacIntel,60.0024001,Chrome,1440,900,,,a,1.4419,1,123,0,1,11,23,8,1,0,0,1,0,0,0,0,1,hexagon,star,,,,,,,,,,,,,,,,,,,,,,,,,,,,,,,,,,,,,,,,,,,,,,,,,,,,,
294901,2022-09-27_24h12.56.297,vts_reward_expectancy,2022.2.4,MacIntel,60.0024001,Chrome,1440,900,,,a,0.4831,10,133,0,2,0,24,2,1,1,0,0,0,0,0,0,1,triangle,star,,,,,,,,,,,,,,,,,,,,,,,,,,,,,,,,,,,,,,,,,,,,,,,,,,,,,
294901,2022-09-27_24h12.56.297,vts_reward_expectancy,2022.2.4,MacIntel,60.0024001,Chrome,1440,900,,,l,1.1364,1,134,0,2,1,25,7,1,0,0,1,0,0,1,0,0,hexagon,circle,,,,,,,,,,,,,,,,,,,,,,,,,,,,,,,,,,,,,,,,,,,,,,,,,,,,,
294901,2022-09-27_24h12.56.297,vts_reward_expectancy,2022.2.4,MacIntel,60.0024001,Chrome,1440,900,,,l,0.8337,1,135,0,2,2,26,1,1,1,0,0,0,0,0,1,0,triangle,hexagon,,,,,,,,,,,,,,,,,,,,,,,,,,,,,,,,,,,,,,,,,,,,,,,,,,,,,
294901,2022-09-27_24h12.56.297,vts_reward_expectancy,2022.2.4,MacIntel,60.0024001,Chrome,1440,900,,,l,0.6278,1,136,0,2,3,27,11,1,0,0,0,1,0,0,1,0,star,hexagon,,,,,,,,,,,,,,,,,,,,,,,,,,,,,,,,,,,,,,,,,,,,,,,,,,,,,
294901,2022-09-27_24h12.56.297,vts_reward_expectancy,2022.2.4,MacIntel,60.0024001,Chrome,1440,900,,,a,0.9587,1,137,0,2,4,28,8,1,0,0,1,0,0,0,0,1,hexagon,star,,,,,,,,,,,,,,,,,,,,,,,,,,,,,,,,,,,,,,,,,,,,,,,,,,,,,
294901,2022-09-27_24h12.56.297,vts_reward_expectancy,2022.2.4,MacIntel,60.0024001,Chrome,1440,900,,,a,0.8473,10,147,0,2,5,29,5,1,0,1,0,0,0,0,0,1,circle,star,,,,,,,,,,,,,,,,,,,,,,,,,,,,,,,,,,,,,,,,,,,,,,,,,,,,,
294901,2022-09-27_24h12.56.297,vts_reward_expectancy,2022.2.4,MacIntel,60.0024001,Chrome,1440,900,,,l,1.2908,10,157,0,2,6,30,3,1,0,1,0,0,1,0,0,0,circle,triangle,,,,,,,,,,,,,,,,,,,,,,,,,,,,,,,,,,,,,,,,,,,,,,,,,,,,,
294901,2022-09-27_24h12.56.297,vts_reward_expectancy,2022.2.4,MacIntel,60.0024001,Chrome,1440,900,,,l,1.5568,1,158,0,2,7,31,4,1,0,1,0,0,0,0,1,0,circle,hexagon,,,,,,,,,,,,,,,,,,,,,,,,,,,,,,,,,,,,,,,,,,,,,,,,,,,,,
294901,2022-09-27_24h12.56.297,vts_reward_expectancy,2022.2.4,MacIntel,60.0024001,Chrome,1440,900,,,l,0.4812,1,159,0,2,8,32,10,1,0,0,0,1,0,1,0,0,star ,circle,,,,,,,,,,,,,,,,,,,,,,,,,,,,,,,,,,,,,,,,,,,,,,,,,,,,,
294901,2022-09-27_24h12.56.297,vts_reward_expectancy,2022.2.4,MacIntel,60.0024001,Chrome,1440,900,,,l,0.6075,1,160,0,2,9,33,9,1,0,0,0,1,1,0,0,0,star,triangle,,,,,,,,,,,,,,,,,,,,,,,,,,,,,,,,,,,,,,,,,,,,,,,,,,,,,
294901,2022-09-27_24h12.56.297,vts_reward_expectancy,2022.2.4,MacIntel,60.0024001,Chrome,1440,900,,,a,0.8534,10,170,0,2,10,34,0,1,1,0,0,0,0,1,0,0,triangle,circle,,,,,,,,,,,,,,,,,,,,,,,,,,,,,,,,,,,,,,,,,,,,,,,,,,,,,
294901,2022-09-27_24h12.56.297,vts_reward_expectancy,2022.2.4,MacIntel,60.0024001,Chrome,1440,900,,,l,0.831,10,180,0,2,11,35,6,1,0,0,1,0,1,0,0,0,hexagon,triangle,,,,,,,,,,,,,,,,,,,,,,,,,,,,,,,,,,,,,,,,,,,,,,,,,,,,,
294901,2022-09-27_24h12.56.297,vts_reward_expectancy,2022.2.4,MacIntel,60.0024001,Chrome,1440,900,,,l,0.8302,10,190,1,0,0,0,6,1,0,0,1,0,1,0,0,0,hexagon,triangle,,,,,,,,,,,,,,,,,,,,,,,,,,,,,,,,,,,,,,,,,,,,,,,,,,,,,
294901,2022-09-27_24h12.56.297,vts_reward_expectancy,2022.2.4,MacIntel,60.0024001,Chrome,1440,900,,,l,0.5417,10,200,1,0,1,1,10,1,0,0,0,1,0,1,0,0,star ,circle,,,,,,,,,,,,,,,,,,,,,,,,,,,,,,,,,,,,,,,,,,,,,,,,,,,,,
294901,2022-09-27_24h12.56.297,vts_reward_expectancy,2022.2.4,MacIntel,60.0024001,Chrome,1440,900,,,l,0.7628,10,210,1,0,2,2,7,1,0,0,1,0,0,1,0,0,hexagon,circle,,,,,,,,,,,,,,,,,,,,,,,,,,,,,,,,,,,,,,,,,,,,,,,,,,,,,
294901,2022-09-27_24h12.56.297,vts_reward_expectancy,2022.2.4,MacIntel,60.0024001,Chrome,1440,900,,,a,0.5656,1,211,1,0,3,3,8,1,0,0,1,0,0,0,0,1,hexagon,star,,,,,,,,,,,,,,,,,,,,,,,,,,,,,,,,,,,,,,,,,,,,,,,,,,,,,
294901,2022-09-27_24h12.56.297,vts_reward_expectancy,2022.2.4,MacIntel,60.0024001,Chrome,1440,900,,,l,0.6427,10,221,1,0,4,4,9,1,0,0,0,1,1,0,0,0,star,triangle,,,,,,,,,,,,,,,,,,,,,,,,,,,,,,,,,,,,,,,,,,,,,,,,,,,,,
294901,2022-09-27_24h12.56.297,vts_reward_expectancy,2022.2.4,MacIntel,60.0024001,Chrome,1440,900,,,a,0.6173,10,231,1,0,5,5,1,1,1,0,0,0,0,0,1,0,triangle,hexagon,,,,,,,,,,,,,,,,,,,,,,,,,,,,,,,,,,,,,,,,,,,,,,,,,,,,,
294901,2022-09-27_24h12.56.297,vts_reward_expectancy,2022.2.4,MacIntel,60.0024001,Chrome,1440,900,,,a,0.7273,10,241,1,0,6,6,0,1,1,0,0,0,0,1,0,0,triangle,circle,,,,,,,,,,,,,,,,,,,,,,,,,,,,,,,,,,,,,,,,,,,,,,,,,,,,,
294901,2022-09-27_24h12.56.297,vts_reward_expectancy,2022.2.4,MacIntel,60.0024001,Chrome,1440,900,,,a,0.7467,1,242,1,0,7,7,4,1,0,1,0,0,0,0,1,0,circle,hexagon,,,,,,,,,,,,,,,,,,,,,,,,,,,,,,,,,,,,,,,,,,,,,,,,,,,,,
294901,2022-09-27_24h12.56.297,vts_reward_expectancy,2022.2.4,MacIntel,60.0024001,Chrome,1440,900,,,a,0.5,10,252,1,0,8,8,2,1,1,0,0,0,0,0,0,1,triangle,star,,,,,,,,,,,,,,,,,,,,,,,,,,,,,,,,,,,,,,,,,,,,,,,,,,,,,
294901,2022-09-27_24h12.56.297,vts_reward_expectancy,2022.2.4,MacIntel,60.0024001,Chrome,1440,900,,,l,1.2862,10,262,1,0,9,9,3,1,0,1,0,0,1,0,0,0,circle,triangle,,,,,,,,,,,,,,,,,,,,,,,,,,,,,,,,,,,,,,,,,,,,,,,,,,,,,
294901,2022-09-27_24h12.56.297,vts_reward_expectancy,2022.2.4,MacIntel,60.0024001,Chrome,1440,900,,,l,3.9913,1,263,1,0,10,10,11,1,0,0,0,1,0,0,1,0,star,hexagon,,,,,,,,,,,,,,,,,,,,,,,,,,,,,,,,,,,,,,,,,,,,,,,,,,,,,
294901,2022-09-27_24h12.56.297,vts_reward_expectancy,2022.2.4,MacIntel,60.0024001,Chrome,1440,900,,,a,2.6779,1,264,1,0,11,11,5,1,0,1,0,0,0,0,0,1,circle,star,,,,,,,,,,,,,,,,,,,,,,,,,,,,,,,,,,,,,,,,,,,,,,,,,,,,,
294901,2022-09-27_24h12.56.297,vts_reward_expectancy,2022.2.4,MacIntel,60.0024001,Chrome,1440,900,,,a,4.3716,10,274,1,1,0,12,1,1,1,0,0,0,0,0,1,0,triangle,hexagon,,,,,,,,,,,,,,,,,,,,,,,,,,,,,,,,,,,,,,,,,,,,,,,,,,,,,
294901,2022-09-27_24h12.56.297,vts_reward_expectancy,2022.2.4,MacIntel,60.0024001,Chrome,1440,900,,,l,1.4161,10,284,1,1,1,13,9,1,0,0,0,1,1,0,0,0,star,triangle,,,,,,,,,,,,,,,,,,,,,,,,,,,,,,,,,,,,,,,,,,,,,,,,,,,,,
294901,2022-09-27_24h12.56.297,vts_reward_expectancy,2022.2.4,MacIntel,60.0024001,Chrome,1440,900,,,l,0.5386,10,294,1,1,2,14,10,1,0,0,0,1,0,1,0,0,star ,circle,,,,,,,,,,,,,,,,,,,,,,,,,,,,,,,,,,,,,,,,,,,,,,,,,,,,,
294901,2022-09-27_24h12.56.297,vts_reward_expectancy,2022.2.4,MacIntel,60.0024001,Chrome,1440,900,,,l,1.323,1,295,1,1,3,15,11,1,0,0,0,1,0,0,1,0,star,hexagon,,,,,,,,,,,,,,,,,,,,,,,,,,,,,,,,,,,,,,,,,,,,,,,,,,,,,
294901,2022-09-27_24h12.56.297,vts_reward_expectancy,2022.2.4,MacIntel,60.0024001,Chrome,1440,900,,,a,1.0069,1,296,1,1,4,16,4,1,0,1,0,0,0,0,1,0,circle,hexagon,,,,,,,,,,,,,,,,,,,,,,,,,,,,,,,,,,,,,,,,,,,,,,,,,,,,,
294901,2022-09-27_24h12.56.297,vts_reward_expectancy,2022.2.4,MacIntel,60.0024001,Chrome,1440,900,,,a,0.5539,10,306,1,1,5,17,5,1,0,1,0,0,0,0,0,1,circle,star,,,,,,,,,,,,,,,,,,,,,,,,,,,,,,,,,,,,,,,,,,,,,,,,,,,,,
294901,2022-09-27_24h12.56.297,vts_reward_expectancy,2022.2.4,MacIntel,60.0024001,Chrome,1440,900,,,l,3.7485,10,316,1,1,6,18,3,1,0,1,0,0,1,0,0,0,circle,triangle,,,,,,,,,,,,,,,,,,,,,,,,,,,,,,,,,,,,,,,,,,,,,,,,,,,,,
294901,2022-09-27_24h12.56.297,vts_reward_expectancy,2022.2.4,MacIntel,60.0024001,Chrome,1440,900,,,l,0.7564,10,326,1,1,7,19,6,1,0,0,1,0,1,0,0,0,hexagon,triangle,,,,,,,,,,,,,,,,,,,,,,,,,,,,,,,,,,,,,,,,,,,,,,,,,,,,,
294901,2022-09-27_24h12.56.297,vts_reward_expectancy,2022.2.4,MacIntel,60.0024001,Chrome,1440,900,,,l,3.7308,1,327,1,1,8,20,0,1,1,0,0,0,0,1,0,0,triangle,circle,,,,,,,,,,,,,,,,,,,,,,,,,,,,,,,,,,,,,,,,,,,,,,,,,,,,,
294901,2022-09-27_24h12.56.297,vts_reward_expectancy,2022.2.4,MacIntel,60.0024001,Chrome,1440,900,,,a,1.3743,10,337,1,1,9,21,7,1,0,0,1,0,0,1,0,0,hexagon,circle,,,,,,,,,,,,,,,,,,,,,,,,,,,,,,,,,,,,,,,,,,,,,,,,,,,,,
294901,2022-09-27_24h12.56.297,vts_reward_expectancy,2022.2.4,MacIntel,60.0024001,Chrome,1440,900,,,a,1.2623,1,338,1,1,10,22,8,1,0,0,1,0,0,0,0,1,hexagon,star,,,,,,,,,,,,,,,,,,,,,,,,,,,,,,,,,,,,,,,,,,,,,,,,,,,,,
294901,2022-09-27_24h12.56.297,vts_reward_expectancy,2022.2.4,MacIntel,60.0024001,Chrome,1440,900,,,a,0.7097,1,339,1,1,11,23,2,1,1,0,0,0,0,0,0,1,triangle,star,,,,,,,,,,,,,,,,,,,,,,,,,,,,,,,,,,,,,,,,,,,,,,,,,,,,,
294901,2022-09-27_24h12.56.297,vts_reward_expectancy,2022.2.4,MacIntel,60.0024001,Chrome,1440,900,,,l,1.4393,1,340,1,2,0,24,4,1,0,1,0,0,0,0,1,0,circle,hexagon,,,,,,,,,,,,,,,,,,,,,,,,,,,,,,,,,,,,,,,,,,,,,,,,,,,,,
294901,2022-09-27_24h12.56.297,vts_reward_expectancy,2022.2.4,MacIntel,60.0024001,Chrome,1440,900,,,a,0.5938,1,341,1,2,1,25,7,1,0,0,1,0,0,1,0,0,hexagon,circle,,,,,,,,,,,,,,,,,,,,,,,,,,,,,,,,,,,,,,,,,,,,,,,,,,,,,
294901,2022-09-27_24h12.56.297,vts_reward_expectancy,2022.2.4,MacIntel,60.0024001,Chrome,1440,900,,,l,0.732,10,351,1,2,2,26,6,1,0,0,1,0,1,0,0,0,hexagon,triangle,,,,,,,,,,,,,,,,,,,,,,,,,,,,,,,,,,,,,,,,,,,,,,,,,,,,,
294901,2022-09-27_24h12.56.297,vts_reward_expectancy,2022.2.4,MacIntel,60.0024001,Chrome,1440,900,,,l,0.8238,10,361,1,2,3,27,0,1,1,0,0,0,0,1,0,0,triangle,circle,,,,,,,,,,,,,,,,,,,,,,,,,,,,,,,,,,,,,,,,,,,,,,,,,,,,,
294901,2022-09-27_24h12.56.297,vts_reward_expectancy,2022.2.4,MacIntel,60.0024001,Chrome,1440,900,,,l,0.5571,10,371,1,2,4,28,11,1,0,0,0,1,0,0,1,0,star,hexagon,,,,,,,,,,,,,,,,,,,,,,,,,,,,,,,,,,,,,,,,,,,,,,,,,,,,,
294901,2022-09-27_24h12.56.297,vts_reward_expectancy,2022.2.4,MacIntel,60.0024001,Chrome,1440,900,,,a,0.4538,1,372,1,2,5,29,5,1,0,1,0,0,0,0,0,1,circle,star,,,,,,,,,,,,,,,,,,,,,,,,,,,,,,,,,,,,,,,,,,,,,,,,,,,,,
294901,2022-09-27_24h12.56.297,vts_reward_expectancy,2022.2.4,MacIntel,60.0024001,Chrome,1440,900,,,a,0.6993,10,382,1,2,6,30,2,1,1,0,0,0,0,0,0,1,triangle,star,,,,,,,,,,,,,,,,,,,,,,,,,,,,,,,,,,,,,,,,,,,,,,,,,,,,,
294901,2022-09-27_24h12.56.297,vts_reward_expectancy,2022.2.4,MacIntel,60.0024001,Chrome,1440,900,,,l,0.6839,10,392,1,2,7,31,3,1,0,1,0,0,1,0,0,0,circle,triangle,,,,,,,,,,,,,,,,,,,,,,,,,,,,,,,,,,,,,,,,,,,,,,,,,,,,,
294901,2022-09-27_24h12.56.297,vts_reward_expectancy,2022.2.4,MacIntel,60.0024001,Chrome,1440,900,,,l,3.2733,1,393,1,2,8,32,10,1,0,0,0,1,0,1,0,0,star ,circle,,,,,,,,,,,,,,,,,,,,,,,,,,,,,,,,,,,,,,,,,,,,,,,,,,,,,
294901,2022-09-27_24h12.56.297,vts_reward_expectancy,2022.2.4,MacIntel,60.0024001,Chrome,1440,900,,,a,1.348,10,403,1,2,9,33,8,1,0,0,1,0,0,0,0,1,hexagon,star,,,,,,,,,,,,,,,,,,,,,,,,,,,,,,,,,,,,,,,,,,,,,,,,,,,,,
294901,2022-09-27_24h12.56.297,vts_reward_expectancy,2022.2.4,MacIntel,60.0024001,Chrome,1440,900,,,a,0.6751,10,413,1,2,10,34,1,1,1,0,0,0,0,0,1,0,triangle,hexagon,,,,,,,,,,,,,,,,,,,,,,,,,,,,,,,,,,,,,,,,,,,,,,,,,,,,,
294901,2022-09-27_24h12.56.297,vts_reward_expectancy,2022.2.4,MacIntel,60.0024001,Chrome,1440,900,,,l,0.5741,10,423,1,2,11,35,9,1,0,0,0,1,1,0,0,0,star,triangle,,,,,,,,,,,,,,,,,,,,,,,,,,,,,,,,,,,,,,,,,,,,,,,,,,,,,
294901,2022-09-27_24h12.56.297,vts_reward_expectancy,2022.2.4,MacIntel,60.0024001,Chrome,1440,900,,,a,0.6159,1,424,2,0,0,0,8,1,0,0,1,0,0,0,0,1,hexagon,star,,,,,,,,,,,,,,,,,,,,,,,,,,,,,,,,,,,,,,,,,,,,,,,,,,,,,
294901,2022-09-27_24h12.56.297,vts_reward_expectancy,2022.2.4,MacIntel,60.0024001,Chrome,1440,900,,,l,0.4847,1,425,2,0,1,1,9,1,0,0,0,1,1,0,0,0,star,triangle,,,,,,,,,,,,,,,,,,,,,,,,,,,,,,,,,,,,,,,,,,,,,,,,,,,,,
294901,2022-09-27_24h12.56.297,vts_reward_expectancy,2022.2.4,MacIntel,60.0024001,Chrome,1440,900,,,l,1.041,1,426,2,0,2,2,5,1,0,1,0,0,0,0,0,1,circle,star,,,,,,,,,,,,,,,,,,,,,,,,,,,,,,,,,,,,,,,,,,,,,,,,,,,,,
294901,2022-09-27_24h12.56.297,vts_reward_expectancy,2022.2.4,MacIntel,60.0024001,Chrome,1440,900,,,a,0.7077,1,427,2,0,3,3,10,1,0,0,0,1,0,1,0,0,star ,circle,,,,,,,,,,,,,,,,,,,,,,,,,,,,,,,,,,,,,,,,,,,,,,,,,,,,,
294901,2022-09-27_24h12.56.297,vts_reward_expectancy,2022.2.4,MacIntel,60.0024001,Chrome,1440,900,,,l,1.0736,1,428,2,0,4,4,1,1,1,0,0,0,0,0,1,0,triangle,hexagon,,,,,,,,,,,,,,,,,,,,,,,,,,,,,,,,,,,,,,,,,,,,,,,,,,,,,
294901,2022-09-27_24h12.56.297,vts_reward_expectancy,2022.2.4,MacIntel,60.0024001,Chrome,1440,900,,,a,1.0214,10,438,2,0,5,5,0,1,1,0,0,0,0,1,0,0,triangle,circle,,,,,,,,,,,,,,,,,,,,,,,,,,,,,,,,,,,,,,,,,,,,,,,,,,,,,
294901,2022-09-27_24h12.56.297,vts_reward_expectancy,2022.2.4,MacIntel,60.0024001,Chrome,1440,900,,,a,0.7421,10,448,2,0,6,6,2,1,1,0,0,0,0,0,0,1,triangle,star,,,,,,,,,,,,,,,,,,,,,,,,,,,,,,,,,,,,,,,,,,,,,,,,,,,,,
294901,2022-09-27_24h12.56.297,vts_reward_expectancy,2022.2.4,MacIntel,60.0024001,Chrome,1440,900,,,l,0.6546,10,458,2,0,7,7,4,1,0,1,0,0,0,0,1,0,circle,hexagon,,,,,,,,,,,,,,,,,,,,,,,,,,,,,,,,,,,,,,,,,,,,,,,,,,,,,
294901,2022-09-27_24h12.56.297,vts_reward_expectancy,2022.2.4,MacIntel,60.0024001,Chrome,1440,900,,,l,0.8904,10,468,2,0,8,8,7,1,0,0,1,0,0,1,0,0,hexagon,circle,,,,,,,,,,,,,,,,,,,,,,,,,,,,,,,,,,,,,,,,,,,,,,,,,,,,,
294901,2022-09-27_24h12.56.297,vts_reward_expectancy,2022.2.4,MacIntel,60.0024001,Chrome,1440,900,,,l,1.0368,10,478,2,0,9,9,3,1,0,1,0,0,1,0,0,0,circle,triangle,,,,,,,,,,,,,,,,,,,,,,,,,,,,,,,,,,,,,,,,,,,,,,,,,,,,,
294901,2022-09-27_24h12.56.297,vts_reward_expectancy,2022.2.4,MacIntel,60.0024001,Chrome,1440,900,,,l,0.6332,10,488,2,0,10,10,6,1,0,0,1,0,1,0,0,0,hexagon,triangle,,,,,,,,,,,,,,,,,,,,,,,,,,,,,,,,,,,,,,,,,,,,,,,,,,,,,
294901,2022-09-27_24h12.56.297,vts_reward_expectancy,2022.2.4,MacIntel,60.0024001,Chrome,1440,900,,,l,0.4908,1,489,2,0,11,11,11,1,0,0,0,1,0,0,1,0,star,hexagon,,,,,,,,,,,,,,,,,,,,,,,,,,,,,,,,,,,,,,,,,,,,,,,,,,,,,
294901,2022-09-27_24h12.56.297,vts_reward_expectancy,2022.2.4,MacIntel,60.0024001,Chrome,1440,900,,,a,0.99,1,490,2,1,0,12,4,1,0,1,0,0,0,0,1,0,circle,hexagon,,,,,,,,,,,,,,,,,,,,,,,,,,,,,,,,,,,,,,,,,,,,,,,,,,,,,
294901,2022-09-27_24h12.56.297,vts_reward_expectancy,2022.2.4,MacIntel,60.0024001,Chrome,1440,900,,,l,0.5569,1,491,2,1,1,13,10,1,0,0,0,1,0,1,0,0,star ,circle,,,,,,,,,,,,,,,,,,,,,,,,,,,,,,,,,,,,,,,,,,,,,,,,,,,,,
294901,2022-09-27_24h12.56.297,vts_reward_expectancy,2022.2.4,MacIntel,60.0024001,Chrome,1440,900,,,l,0.5259,1,492,2,1,2,14,11,1,0,0,0,1,0,0,1,0,star,hexagon,,,,,,,,,,,,,,,,,,,,,,,,,,,,,,,,,,,,,,,,,,,,,,,,,,,,,
294901,2022-09-27_24h12.56.297,vts_reward_expectancy,2022.2.4,MacIntel,60.0024001,Chrome,1440,900,,,l,0.5255,10,502,2,1,3,15,9,1,0,0,0,1,1,0,0,0,star,triangle,,,,,,,,,,,,,,,,,,,,,,,,,,,,,,,,,,,,,,,,,,,,,,,,,,,,,
294901,2022-09-27_24h12.56.297,vts_reward_expectancy,2022.2.4,MacIntel,60.0024001,Chrome,1440,900,,,l,3.4504,10,512,2,1,4,16,7,1,0,0,1,0,0,1,0,0,hexagon,circle,,,,,,,,,,,,,,,,,,,,,,,,,,,,,,,,,,,,,,,,,,,,,,,,,,,,,
294901,2022-09-27_24h12.56.297,vts_reward_expectancy,2022.2.4,MacIntel,60.0024001,Chrome,1440,900,,,a,0.776,10,522,2,1,5,17,0,1,1,0,0,0,0,1,0,0,triangle,circle,,,,,,,,,,,,,,,,,,,,,,,,,,,,,,,,,,,,,,,,,,,,,,,,,,,,,
294901,2022-09-27_24h12.56.297,vts_reward_expectancy,2022.2.4,MacIntel,60.0024001,Chrome,1440,900,,,a,0.9686,1,523,2,1,6,18,3,1,0,1,0,0,1,0,0,0,circle,triangle,,,,,,,,,,,,,,,,,,,,,,,,,,,,,,,,,,,,,,,,,,,,,,,,,,,,,
294901,2022-09-27_24h12.56.297,vts_reward_expectancy,2022.2.4,MacIntel,60.0024001,Chrome,1440,900,,,a,1.4497,10,533,2,1,7,19,5,1,0,1,0,0,0,0,0,1,circle,star,,,,,,,,,,,,,,,,,,,,,,,,,,,,,,,,,,,,,,,,,,,,,,,,,,,,,
294901,2022-09-27_24h12.56.297,vts_reward_expectancy,2022.2.4,MacIntel,60.0024001,Chrome,1440,900,,,l,0.6416,10,543,2,1,8,20,6,1,0,0,1,0,1,0,0,0,hexagon,triangle,,,,,,,,,,,,,,,,,,,,,,,,,,,,,,,,,,,,,,,,,,,,,,,,,,,,,
294901,2022-09-27_24h12.56.297,vts_reward_expectancy,2022.2.4,MacIntel,60.0024001,Chrome,1440,900,,,l,1.3515,1,544,2,1,9,21,2,1,1,0,0,0,0,0,0,1,triangle,star,,,,,,,,,,,,,,,,,,,,,,,,,,,,,,,,,,,,,,,,,,,,,,,,,,,,,
294901,2022-09-27_24h12.56.297,vts_reward_expectancy,2022.2.4,MacIntel,60.0024001,Chrome,1440,900,,,a,1.1089,1,545,2,1,10,22,8,1,0,0,1,0,0,0,0,1,hexagon,star,,,,,,,,,,,,,,,,,,,,,,,,,,,,,,,,,,,,,,,,,,,,,,,,,,,,,
294901,2022-09-27_24h12.56.297,vts_reward_expectancy,2022.2.4,MacIntel,60.0024001,Chrome,1440,900,,,a,1.0769,10,555,2,1,11,23,1,1,1,0,0,0,0,0,1,0,triangle,hexagon,,,,,,,,,,,,,,,,,,,,,,,,,,,,,,,,,,,,,,,,,,,,,,,,,,,,,
294901,2022-09-27_24h12.56.297,vts_reward_expectancy,2022.2.4,MacIntel,60.0024001,Chrome,1440,900,,,a,1.4094,10,565,2,2,0,24,4,1,0,1,0,0,0,0,1,0,circle,hexagon,,,,,,,,,,,,,,,,,,,,,,,,,,,,,,,,,,,,,,,,,,,,,,,,,,,,,
294901,2022-09-27_24h12.56.297,vts_reward_expectancy,2022.2.4,MacIntel,60.0024001,Chrome,1440,900,,,l,0.5255,10,575,2,2,1,25,9,1,0,0,0,1,1,0,0,0,star,triangle,,,,,,,,,,,,,,,,,,,,,,,,,,,,,,,,,,,,,,,,,,,,,,,,,,,,,
294901,2022-09-27_24h12.56.297,vts_reward_expectancy,2022.2.4,MacIntel,60.0024001,Chrome,1440,900,,,l,0.5763,1,576,2,2,2,26,11,1,0,0,0,1,0,0,1,0,star,hexagon,,,,,,,,,,,,,,,,,,,,,,,,,,,,,,,,,,,,,,,,,,,,,,,,,,,,,
294901,2022-09-27_24h12.56.297,vts_reward_expectancy,2022.2.4,MacIntel,60.0024001,Chrome,1440,900,,,a,1.2563,10,586,2,2,3,27,1,1,1,0,0,0,0,0,1,0,triangle,hexagon,,,,,,,,,,,,,,,,,,,,,,,,,,,,,,,,,,,,,,,,,,,,,,,,,,,,,
294901,2022-09-27_24h12.56.297,vts_reward_expectancy,2022.2.4,MacIntel,60.0024001,Chrome,1440,900,,,l,0.5979,10,596,2,2,4,28,10,1,0,0,0,1,0,1,0,0,star ,circle,,,,,,,,,,,,,,,,,,,,,,,,,,,,,,,,,,,,,,,,,,,,,,,,,,,,,
294901,2022-09-27_24h12.56.297,vts_reward_expectancy,2022.2.4,MacIntel,60.0024001,Chrome,1440,900,,,l,1.2757,10,606,2,2,5,29,7,1,0,0,1,0,0,1,0,0,hexagon,circle,,,,,,,,,,,,,,,,,,,,,,,,,,,,,,,,,,,,,,,,,,,,,,,,,,,,,
294901,2022-09-27_24h12.56.297,vts_reward_expectancy,2022.2.4,MacIntel,60.0024001,Chrome,1440,900,,,a,0.5442,1,607,2,2,6,30,8,1,0,0,1,0,0,0,0,1,hexagon,star,,,,,,,,,,,,,,,,,,,,,,,,,,,,,,,,,,,,,,,,,,,,,,,,,,,,,
294901,2022-09-27_24h12.56.297,vts_reward_expectancy,2022.2.4,MacIntel,60.0024001,Chrome,1440,900,,,a,0.8065,10,617,2,2,7,31,0,1,1,0,0,0,0,1,0,0,triangle,circle,,,,,,,,,,,,,,,,,,,,,,,,,,,,,,,,,,,,,,,,,,,,,,,,,,,,,
294901,2022-09-27_24h12.56.297,vts_reward_expectancy,2022.2.4,MacIntel,60.0024001,Chrome,1440,900,,,a,0.8997,10,627,2,2,8,32,3,1,0,1,0,0,1,0,0,0,circle,triangle,,,,,,,,,,,,,,,,,,,,,,,,,,,,,,,,,,,,,,,,,,,,,,,,,,,,,
294901,2022-09-27_24h12.56.297,vts_reward_expectancy,2022.2.4,MacIntel,60.0024001,Chrome,1440,900,,,a,0.6768,1,628,2,2,9,33,2,1,1,0,0,0,0,0,0,1,triangle,star,,,,,,,,,,,,,,,,,,,,,,,,,,,,,,,,,,,,,,,,,,,,,,,,,,,,,
294901,2022-09-27_24h12.56.297,vts_reward_expectancy,2022.2.4,MacIntel,60.0024001,Chrome,1440,900,,,a,0.7951,1,629,2,2,10,34,5,1,0,1,0,0,0,0,0,1,circle,star,,,,,,,,,,,,,,,,,,,,,,,,,,,,,,,,,,,,,,,,,,,,,,,,,,,,,
294901,2022-09-27_24h12.56.297,vts_reward_expectancy,2022.2.4,MacIntel,60.0024001,Chrome,1440,900,,,l,0.7582,10,639,2,2,11,35,6,1,0,0,1,0,1,0,0,0,hexagon,triangle,,,,,,,,,,,,,,,,,,,,,,,,,,,,,,,,,,,,,,,,,,,,,,,,,,,,,
294901,2022-09-27_24h12.56.297,vts_reward_expectancy,2022.2.4,MacIntel,60.0024001,Chrome,1440,900,,,,,,,,,,,,,,,,,,,,,,,U,139,circle,0,0,,0,0,0,0,0,1,,,,,,,,,,,,,,,,,,,,,,,,,,,,,,,,,,,,,,,,,
294901,2022-09-27_24h12.56.297,vts_reward_expectancy,2022.2.4,MacIntel,60.0024001,Chrome,1440,900,,,,,,,,,,,,,,,,,,,,,,,F,146,triangle,1,1,d,0,1,0,1,0,1,0.8606,,,,,,,,,,,,,,,,,,,,,,,,,,,,,,,,,,,,,,,,
294901,2022-09-27_24h12.56.297,vts_reward_expectancy,2022.2.4,MacIntel,60.0024001,Chrome,1440,900,,,,,,,,,,,,,,,,,,,,,,,S,125,star,1,0,f,0,2,0,2,0,1,1.5624,,,,,,,,,,,,,,,,,,,,,,,,,,,,,,,,,,,,,,,,
294901,2022-09-27_24h12.56.297,vts_reward_expectancy,2022.2.4,MacIntel,60.0024001,Chrome,1440,900,,,,,,,,,,,,,,,,,,,,,,,W,132,hexagon,0,0,d,0,3,0,3,0,1,1.6335,,,,,,,,,,,,,,,,,,,,,,,,,,,,,,,,,,,,,,,,
294901,2022-09-27_24h12.56.297,vts_reward_expectancy,2022.2.4,MacIntel,60.0024001,Chrome,1440,900,,,,,,,,,,,,,,,,,,,,,,,H,174,circle,1,1,d,0,4,0,4,0,1,1.1223,,,,,,,,,,,,,,,,,,,,,,,,,,,,,,,,,,,,,,,,
294901,2022-09-27_24h12.56.297,vts_reward_expectancy,2022.2.4,MacIntel,60.0024001,Chrome,1440,900,,,,,,,,,,,,,,,,,,,,,,,Y,167,triangle,1,0,f,0,5,0,5,0,1,1.7452,,,,,,,,,,,,,,,,,,,,,,,,,,,,,,,,,,,,,,,,
294901,2022-09-27_24h12.56.297,vts_reward_expectancy,2022.2.4,MacIntel,60.0024001,Chrome,1440,900,,,,,,,,,,,,,,,,,,,,,,,D,181,star,1,0,d,0,6,0,6,0,1,1.5751,,,,,,,,,,,,,,,,,,,,,,,,,,,,,,,,,,,,,,,,
294901,2022-09-27_24h12.56.297,vts_reward_expectancy,2022.2.4,MacIntel,60.0024001,Chrome,1440,900,,,,,,,,,,,,,,,,,,,,,,,B,160,hexagon,1,0,d,0,7,0,7,0,1,0.7327,,,,,,,,,,,,,,,,,,,,,,,,,,,,,,,,,,,,,,,,
294901,2022-09-27_24h12.56.297,vts_reward_expectancy,2022.2.4,MacIntel,60.0024001,Chrome,1440,900,,,,,,,,,,,,,,,,,,,,,,,U,139,star,1,0,f,0,8,0,8,0,1,1.8081,,,,,,,,,,,,,,,,,,,,,,,,,,,,,,,,,,,,,,,,
294901,2022-09-27_24h12.56.297,vts_reward_expectancy,2022.2.4,MacIntel,60.0024001,Chrome,1440,900,,,,,,,,,,,,,,,,,,,,,,,F,146,hexagon,1,0,d,0,9,0,9,0,1,1.6724,,,,,,,,,,,,,,,,,,,,,,,,,,,,,,,,,,,,,,,,
294901,2022-09-27_24h12.56.297,vts_reward_expectancy,2022.2.4,MacIntel,60.0024001,Chrome,1440,900,,,,,,,,,,,,,,,,,,,,,,,B,181,hexagon,1,0,d,1,0,0,0,0,1,1.3236,,,,,,,,,,,,,,,,,,,,,,,,,,,,,,,,,,,,,,,,
294901,2022-09-27_24h12.56.297,vts_reward_expectancy,2022.2.4,MacIntel,60.0024001,Chrome,1440,900,,,,,,,,,,,,,,,,,,,,,,,U,125,triangle,1,0,f,1,1,0,1,0,1,0.6861,,,,,,,,,,,,,,,,,,,,,,,,,,,,,,,,,,,,,,,,
294901,2022-09-27_24h12.56.297,vts_reward_expectancy,2022.2.4,MacIntel,60.0024001,Chrome,1440,900,,,,,,,,,,,,,,,,,,,,,,,Y,167,circle,1,0,f,1,2,0,2,0,1,0.8222,,,,,,,,,,,,,,,,,,,,,,,,,,,,,,,,,,,,,,,,
294901,2022-09-27_24h12.56.297,vts_reward_expectancy,2022.2.4,MacIntel,60.0024001,Chrome,1440,900,,,,,,,,,,,,,,,,,,,,,,,W,174,star,1,0,f,1,3,0,3,0,1,0.7189,,,,,,,,,,,,,,,,,,,,,,,,,,,,,,,,,,,,,,,,
294901,2022-09-27_24h12.56.297,vts_reward_expectancy,2022.2.4,MacIntel,60.0024001,Chrome,1440,900,,,,,,,,,,,,,,,,,,,,,,,H,139,hexagon,1,0,d,1,4,0,4,0,1,1.0198,,,,,,,,,,,,,,,,,,,,,,,,,,,,,,,,,,,,,,,,
294901,2022-09-27_24h12.56.297,vts_reward_expectancy,2022.2.4,MacIntel,60.0024001,Chrome,1440,900,,,,,,,,,,,,,,,,,,,,,,,S,132,triangle,1,0,f,1,5,0,5,0,1,0.675,,,,,,,,,,,,,,,,,,,,,,,,,,,,,,,,,,,,,,,,
294901,2022-09-27_24h12.56.297,vts_reward_expectancy,2022.2.4,MacIntel,60.0024001,Chrome,1440,900,,,,,,,,,,,,,,,,,,,,,,,F,160,circle,1,0,d,1,6,0,6,0,1,0.6695,,,,,,,,,,,,,,,,,,,,,,,,,,,,,,,,,,,,,,,,
294901,2022-09-27_24h12.56.297,vts_reward_expectancy,2022.2.4,MacIntel,60.0024001,Chrome,1440,900,,,,,,,,,,,,,,,,,,,,,,,D,146,star,1,0,d,1,7,0,7,0,1,0.6094,,,,,,,,,,,,,,,,,,,,,,,,,,,,,,,,,,,,,,,,
294901,2022-09-27_24h12.56.297,vts_reward_expectancy,2022.2.4,MacIntel,60.0024001,Chrome,1440,900,,,,,,,,,,,,,,,,,,,,,,,B,181,star,1,0,d,1,8,0,8,0,1,0.6392,,,,,,,,,,,,,,,,,,,,,,,,,,,,,,,,,,,,,,,,
294901,2022-09-27_24h12.56.297,vts_reward_expectancy,2022.2.4,MacIntel,60.0024001,Chrome,1440,900,,,,,,,,,,,,,,,,,,,,,,,U,125,circle,1,0,f,1,9,0,9,0,1,0.7908,,,,,,,,,,,,,,,,,,,,,,,,,,,,,,,,,,,,,,,,
294901,2022-09-27_24h12.56.297,vts_reward_expectancy,2022.2.4,MacIntel,60.0024001,Chrome,1440,900,,,,,,,,,,,,,,,,,,,,,,,U,167,circle,1,0,,2,,,,,,,k,1.3907,0,0,0,0,1,,,,,,,,,,,,,,,,,,,,,,,,,,,,,,,,,
294901,2022-09-27_24h12.56.297,vts_reward_expectancy,2022.2.4,MacIntel,60.0024001,Chrome,1440,900,,,,,,,,,,,,,,,,,,,,,,,Y,139,hexagon,1,0,,2,,,,,,,j,0.6801,1,0,1,0,1,,,,,,,,,,,,,,,,,,,,,,,,,,,,,,,,,
294901,2022-09-27_24h12.56.297,vts_reward_expectancy,2022.2.4,MacIntel,60.0024001,Chrome,1440,900,,,,,,,,,,,,,,,,,,,,,,,S,125,star,1,0,,2,,,,,,,j,0.6852,2,0,2,0,1,,,,,,,,,,,,,,,,,,,,,,,,,,,,,,,,,
294901,2022-09-27_24h12.56.297,vts_reward_expectancy,2022.2.4,MacIntel,60.0024001,Chrome,1440,900,,,,,,,,,,,,,,,,,,,,,,,B,146,triangle,1,0,,2,,,,,,,j,1.4289,3,0,3,0,1,,,,,,,,,,,,,,,,,,,,,,,,,,,,,,,,,
294901,2022-09-27_24h12.56.297,vts_reward_expectancy,2022.2.4,MacIntel,60.0024001,Chrome,1440,900,,,,,,,,,,,,,,,,,,,,,,,D,160,circle,1,0,,2,,,,,,,k,0.6197,4,0,4,0,1,,,,,,,,,,,,,,,,,,,,,,,,,,,,,,,,,
294901,2022-09-27_24h12.56.297,vts_reward_expectancy,2022.2.4,MacIntel,60.0024001,Chrome,1440,900,,,,,,,,,,,,,,,,,,,,,,,F,174,hexagon,1,0,,2,,,,,,,k,0.6213,5,0,5,0,1,,,,,,,,,,,,,,,,,,,,,,,,,,,,,,,,,
294901,2022-09-27_24h12.56.297,vts_reward_expectancy,2022.2.4,MacIntel,60.0024001,Chrome,1440,900,,,,,,,,,,,,,,,,,,,,,,,H,181,star,1,0,,2,,,,,,,k,0.673,6,0,6,0,1,,,,,,,,,,,,,,,,,,,,,,,,,,,,,,,,,
294901,2022-09-27_24h12.56.297,vts_reward_expectancy,2022.2.4,MacIntel,60.0024001,Chrome,1440,900,,,,,,,,,,,,,,,,,,,,,,,W,132,triangle,1,0,,2,,,,,,,j,0.7185,7,0,7,0,1,,,,,,,,,,,,,,,,,,,,,,,,,,,,,,,,,
294901,2022-09-27_24h12.56.297,vts_reward_expectancy,2022.2.4,MacIntel,60.0024001,Chrome,1440,900,,,,,,,,,,,,,,,,,,,,,,,U,167,circle,1,0,,2,,,,,,,k,0.9716,8,0,8,0,1,,,,,,,,,,,,,,,,,,,,,,,,,,,,,,,,,
294901,2022-09-27_24h12.56.297,vts_reward_expectancy,2022.2.4,MacIntel,60.0024001,Chrome,1440,900,,,,,,,,,,,,,,,,,,,,,,,Y,139,triangle,1,0,,2,,,,,,,j,0.7746,9,0,9,0,1,,,,,,,,,,,,,,,,,,,,,,,,,,,,,,,,,
294901,2022-09-27_24h12.56.297,vts_reward_expectancy,2022.2.4,MacIntel,60.0024001,Chrome,1440,900,,,,,0,639,,,,,,,,,,,,,,,,,Y,167,star,0,0,,3,,,,,,,,,,,,,,-1,letter,NA,d,2.3514,vtsPrac,0,0,0,0,1,,,,,,,,,,,,,,,,,,,,,,
294901,2022-09-27_24h12.56.297,vts_reward_expectancy,2022.2.4,MacIntel,60.0024001,Chrome,1440,900,,,,,0,639,,,,,,,,,,,,,,,,,W,146,triangle,1,1,,3,,,,,,,,,,,,,,switch,number,numSwt,j,2.7361,vtsPrac,1,0,1,0,1,,,,,,,,,,,,,,,,,,,,,,
294901,2022-09-27_24h12.56.297,vts_reward_expectancy,2022.2.4,MacIntel,60.0024001,Chrome,1440,900,,,,,0,639,,,,,,,,,,,,,,,,,B,181,star,1,0,,3,,,,,,,,,,,,,,switch,letter,lettSwt,d,0.9761,vtsPrac,2,0,2,0,1,,,,,,,,,,,,,,,,,,,,,,
294901,2022-09-27_24h12.56.297,vts_reward_expectancy,2022.2.4,MacIntel,60.0024001,Chrome,1440,900,,,,,0,639,,,,,,,,,,,,,,,,,D,160,triangle,1,0,,3,,,,,,,,,,,,,,repeat,letter,lettRpt,d,1.2513,vtsPrac,3,0,3,0,1,,,,,,,,,,,,,,,,,,,,,,
294901,2022-09-27_24h12.56.297,vts_reward_expectancy,2022.2.4,MacIntel,60.0024001,Chrome,1440,900,,,,,0,639,,,,,,,,,,,,,,,,,Y,167,hexagon,1,0,,3,,,,,,,,,,,,,,repeat,letter,lettRpt,f,0.943,vtsPrac,4,0,4,0,1,,,,,,,,,,,,,,,,,,,,,,
294901,2022-09-27_24h12.56.297,vts_reward_expectancy,2022.2.4,MacIntel,60.0024001,Chrome,1440,900,,,,,0,639,,,,,,,,,,,,,,,,,W,146,triangle,1,0,,3,,,,,,,,,,,,,,switch,number,numSwt,j,1.5041,vtsPrac,5,0,5,0,1,,,,,,,,,,,,,,,,,,,,,,
294901,2022-09-27_24h12.56.297,vts_reward_expectancy,2022.2.4,MacIntel,60.0024001,Chrome,1440,900,,,,,0,639,,,,,,,,,,,,,,,,,B,181,triangle,1,0,,3,,,,,,,,,,,,,,repeat,number,numRpt,k,0.4904,vtsPrac,6,0,6,0,1,,,,,,,,,,,,,,,,,,,,,,
294901,2022-09-27_24h12.56.297,vts_reward_expectancy,2022.2.4,MacIntel,60.0024001,Chrome,1440,900,,,,,0,639,,,,,,,,,,,,,,,,,D,160,circle,1,0,,3,,,,,,,,,,,,,,switch,letter,lettSwt,d,1.3482,vtsPrac,7,0,7,0,1,,,,,,,,,,,,,,,,,,,,,,
294901,2022-09-27_24h12.56.297,vts_reward_expectancy,2022.2.4,MacIntel,60.0024001,Chrome,1440,900,,,,,0,639,,,,,,,,,,,,,,,,,U,160,star,1,0,,3,,,,,,,,,,,,,,repeat,letter,lettRpt,f,0.8428,vtsPrac,8,0,8,0,1,,,,,,,,,,,,,,,,,,,,,,
294901,2022-09-27_24h12.56.297,vts_reward_expectancy,2022.2.4,MacIntel,60.0024001,Chrome,1440,900,,,,,0,639,,,,,,,,,,,,,,,,,H,181,triangle,0,0,,3,,,,,,,,,,,,,,repeat,letter,NA,f,1.505,vtsPrac,9,0,9,0,1,,,,,,,,,,,,,,,,,,,,,,
294901,2022-09-27_24h12.56.297,vts_reward_expectancy,2022.2.4,MacIntel,60.0024001,Chrome,1440,900,,,,,0,639,,,,,,,,,,,,,,,,,W,139,hexagon,1,1,,3,,,,,,,,,,,,,,switch,number,numSwt,j,1.6391,vtsPrac,10,0,10,0,1,,,,,,,,,,,,,,,,,,,,,,
294901,2022-09-27_24h12.56.297,vts_reward_expectancy,2022.2.4,MacIntel,60.0024001,Chrome,1440,900,,,,,0,639,,,,,,,,,,,,,,,,,S,146,triangle,1,0,,3,,,,,,,,,,,,,,repeat,number,numRpt,j,2.7119,vtsPrac,11,0,11,0,1,,,,,,,,,,,,,,,,,,,,,,
294901,2022-09-27_24h12.56.297,vts_reward_expectancy,2022.2.4,MacIntel,60.0024001,Chrome,1440,900,,,,,0,639,,,,,,,,,,,,,,,,,H,132,hexagon,1,0,,3,,,,,,,,,,,,,,repeat,number,numRpt,j,1.1042,vtsPrac,12,0,12,0,1,,,,,,,,,,,,,,,,,,,,,,
294901,2022-09-27_24h12.56.297,vts_reward_expectancy,2022.2.4,MacIntel,60.0024001,Chrome,1440,900,,,,,0,639,,,,,,,,,,,,,,,,,Y,174,star,1,0,,3,,,,,,,,,,,,,,repeat,number,numRpt,k,0.755,vtsPrac,13,0,13,0,1,,,,,,,,,,,,,,,,,,,,,,
294901,2022-09-27_24h12.56.297,vts_reward_expectancy,2022.2.4,MacIntel,60.0024001,Chrome,1440,900,,,,,0,639,,,,,,,,,,,,,,,,,U,160,circle,0,0,,3,,,,,,,,,,,,,,repeat,number,NA,j,1.4583,vtsPrac,14,0,14,0,1,,,,,,,,,,,,,,,,,,,,,,
294901,2022-09-27_24h12.56.297,vts_reward_expectancy,2022.2.4,MacIntel,60.0024001,Chrome,1440,900,,,,,0,639,,,,,,,,,,,,,,,,,W,139,hexagon,1,1,,3,,,,,,,,,,,,,,switch,letter,lettSwt,f,0.5524,vtsPrac,15,0,15,0,1,,,,,,,,,,,,,,,,,,,,,,
294901,2022-09-27_24h12.56.297,vts_reward_expectancy,2022.2.4,MacIntel,60.0024001,Chrome,1440,900,,,,,,,,,,,,,,,,,,,,,,,,,,,,,,,,,,,,,,,,,,,,,,,,,,,,,,,,,,,,,,,,,,,,,,,,,,,
294901,2022-09-27_24h12.56.297,vts_reward_expectancy,2022.2.4,MacIntel,60.0024001,Chrome,1440,900,,,,,,,,,,,,,,,,,,,,,,,,,,,,,,,,,,,,,,,,,,,,,,,,,,,,,,,,,,,,,,,,,,,,,,,,,,,
294901,2022-09-27_24h12.56.297,vts_reward_expectancy,2022.2.4,MacIntel,60.0024001,Chrome,1440,900,,,,,0,639,,,,,,,,,,,,,,,,,B,125,triangle,1,0,,,,,,,,,,,,,,,,repeat,letter,lettRpt,d,0.6023,noRew,,,,,,0,0,0,0,0,1,,,,,,,,,,,,,,,,
294901,2022-09-27_24h12.56.297,vts_reward_expectancy,2022.2.4,MacIntel,60.0024001,Chrome,1440,900,,,,,0,639,,,,,,,,,,,,,,,,,H,181,star,1,0,,,,,,,,,,,,,,,,switch,number,numSwt,k,1.8042,noRew,,,,,,0,1,0,1,0,1,,,,,,,,,,,,,,,,
294901,2022-09-27_24h12.56.297,vts_reward_expectancy,2022.2.4,MacIntel,60.0024001,Chrome,1440,900,,,,,0,639,,,,,,,,,,,,,,,,,U,139,triangle,0,0,,,,,,,,,,,,,,,,repeat,number,NA,k,0.943,noRew,,,,,,0,2,0,2,0,1,,,,,,,,,,,,,,,,
294901,2022-09-27_24h12.56.297,vts_reward_expectancy,2022.2.4,MacIntel,60.0024001,Chrome,1440,900,,,,,0,639,,,,,,,,,,,,,,,,,S,146,star,1,1,,,,,,,,,,,,,,,,switch,letter,lettSwt,f,0.8062,noRew,,,,,,0,3,0,3,0,1,,,,,,,,,,,,,,,,
294901,2022-09-27_24h12.56.297,vts_reward_expectancy,2022.2.4,MacIntel,60.0024001,Chrome,1440,900,,,,,0,639,,,,,,,,,,,,,,,,,B,125,hexagon,1,0,,,,,,,,,,,,,,,,repeat,letter,lettRpt,d,0.8293,noRew,,,,,,0,4,0,4,0,1,,,,,,,,,,,,,,,,
294901,2022-09-27_24h12.56.297,vts_reward_expectancy,2022.2.4,MacIntel,60.0024001,Chrome,1440,900,,,,,0,639,,,,,,,,,,,,,,,,,H,181,star,1,0,,,,,,,,,,,,,,,,switch,number,numSwt,k,2.1066,noRew,,,,,,0,5,0,5,0,1,,,,,,,,,,,,,,,,
294901,2022-09-27_24h12.56.297,vts_reward_expectancy,2022.2.4,MacIntel,60.0024001,Chrome,1440,900,,,,,0,639,,,,,,,,,,,,,,,,,U,139,hexagon,1,0,,,,,,,,,,,,,,,,switch,letter,lettSwt,f,2.0093,noRew,,,,,,0,6,0,6,0,1,,,,,,,,,,,,,,,,
294901,2022-09-27_24h12.56.297,vts_reward_expectancy,2022.2.4,MacIntel,60.0024001,Chrome,1440,900,,,,,0,639,,,,,,,,,,,,,,,,,S,146,circle,1,0,,,,,,,,,,,,,,,,repeat,letter,lettRpt,f,1.6894,noRew,,,,,,0,7,0,7,0,1,,,,,,,,,,,,,,,,
294901,2022-09-27_24h12.56.297,vts_reward_expectancy,2022.2.4,MacIntel,60.0024001,Chrome,1440,900,,,,,0,639,,,,,,,,,,,,,,,,,B,132,triangle,1,0,,,,,,,,,,,,,,,,repeat,letter,lettRpt,d,0.6903,noRew,,,,,,0,8,0,8,0,1,,,,,,,,,,,,,,,,
294901,2022-09-27_24h12.56.297,vts_reward_expectancy,2022.2.4,MacIntel,60.0024001,Chrome,1440,900,,,,,0,639,,,,,,,,,,,,,,,,,D,146,hexagon,1,0,,,,,,,,,,,,,,,,repeat,letter,lettRpt,d,1.0381,noRew,,,,,,0,9,0,9,0,1,,,,,,,,,,,,,,,,
294901,2022-09-27_24h12.56.297,vts_reward_expectancy,2022.2.4,MacIntel,60.0024001,Chrome,1440,900,,,,,0,639,,,,,,,,,,,,,,,,,Y,181,triangle,1,0,,,,,,,,,,,,,,,,repeat,letter,lettRpt,f,0.9355,noRew,,,,,,0,10,0,10,0,1,,,,,,,,,,,,,,,,
294901,2022-09-27_24h12.56.297,vts_reward_expectancy,2022.2.4,MacIntel,60.0024001,Chrome,1440,900,,,,,0,639,,,,,,,,,,,,,,,,,S,160,hexagon,1,0,,,,,,,,,,,,,,,,switch,number,numSwt,k,2.3038,noRew,,,,,,0,11,0,11,0,1,,,,,,,,,,,,,,,,
294901,2022-09-27_24h12.56.297,vts_reward_expectancy,2022.2.4,MacIntel,60.0024001,Chrome,1440,900,,,,,0,639,,,,,,,,,,,,,,,,,D,167,hexagon,1,0,,,,,,,,,,,,,,,,switch,letter,lettSwt,d,0.9212,noRew,,,,,,0,12,0,12,0,1,,,,,,,,,,,,,,,,
294901,2022-09-27_24h12.56.297,vts_reward_expectancy,2022.2.4,MacIntel,60.0024001,Chrome,1440,900,,,,,0,639,,,,,,,,,,,,,,,,,S,146,triangle,1,0,,,,,,,,,,,,,,,,switch,number,numSwt,j,1.5905,noRew,,,,,,0,13,0,13,0,1,,,,,,,,,,,,,,,,
294901,2022-09-27_24h12.56.297,vts_reward_expectancy,2022.2.4,MacIntel,60.0024001,Chrome,1440,900,,,,,0,639,,,,,,,,,,,,,,,,,Y,125,circle,1,0,,,,,,,,,,,,,,,,switch,letter,lettSwt,f,1.9537,noRew,,,,,,0,14,0,14,0,1,,,,,,,,,,,,,,,,
294901,2022-09-27_24h12.56.297,vts_reward_expectancy,2022.2.4,MacIntel,60.0024001,Chrome,1440,900,,,,,0,639,,,,,,,,,,,,,,,,,H,174,hexagon,1,0,,,,,,,,,,,,,,,,switch,number,numSwt,k,2.323,noRew,,,,,,0,15,0,15,0,1,,,,,,,,,,,,,,,,
294901,2022-09-27_24h12.56.297,vts_reward_expectancy,2022.2.4,MacIntel,60.0024001,Chrome,1440,900,,,,,0,639,,,,,,,,,,,,,,,,,U,181,star,1,0,,,,,,,,,,,,,,,,switch,letter,lettSwt,f,1.4546,noRew,,,,,,0,16,0,16,0,1,,,,,,,,,,,,,,,,
294901,2022-09-27_24h12.56.297,vts_reward_expectancy,2022.2.4,MacIntel,60.0024001,Chrome,1440,900,,,,,0,639,,,,,,,,,,,,,,,,,S,132,hexagon,1,0,,,,,,,,,,,,,,,,repeat,letter,lettRpt,f,1.3054,noRew,,,,,,0,17,0,17,0,1,,,,,,,,,,,,,,,,
294901,2022-09-27_24h12.56.297,vts_reward_expectancy,2022.2.4,MacIntel,60.0024001,Chrome,1440,900,,,,,0,639,,,,,,,,,,,,,,,,,F,139,star,1,0,,,,,,,,,,,,,,,,switch,number,numSwt,j,1.8684,noRew,,,,,,0,18,0,18,0,1,,,,,,,,,,,,,,,,
294901,2022-09-27_24h12.56.297,vts_reward_expectancy,2022.2.4,MacIntel,60.0024001,Chrome,1440,900,,,,,0,639,,,,,,,,,,,,,,,,,D,125,circle,1,0,,,,,,,,,,,,,,,,switch,letter,lettSwt,d,0.8885,noRew,,,,,,0,19,0,19,0,1,,,,,,,,,,,,,,,,
294901,2022-09-27_24h12.56.297,vts_reward_expectancy,2022.2.4,MacIntel,60.0024001,Chrome,1440,900,,,,,0,639,,,,,,,,,,,,,,,,,H,181,star,1,0,,,,,,,,,,,,,,,,switch,number,numSwt,k,1.771,noRew,,,,,,0,20,0,20,0,1,,,,,,,,,,,,,,,,
294901,2022-09-27_24h12.56.297,vts_reward_expectancy,2022.2.4,MacIntel,60.0024001,Chrome,1440,900,,,,,0,639,,,,,,,,,,,,,,,,,B,174,hexagon,1,0,,,,,,,,,,,,,,,,switch,letter,lettSwt,d,1.96,noRew,,,,,,0,21,0,21,0,1,,,,,,,,,,,,,,,,
294901,2022-09-27_24h12.56.297,vts_reward_expectancy,2022.2.4,MacIntel,60.0024001,Chrome,1440,900,,,,,0,639,,,,,,,,,,,,,,,,,Y,146,star,1,0,,,,,,,,,,,,,,,,repeat,letter,lettRpt,f,1.8728,noRew,,,,,,0,22,0,22,0,1,,,,,,,,,,,,,,,,
294901,2022-09-27_24h12.56.297,vts_reward_expectancy,2022.2.4,MacIntel,60.0024001,Chrome,1440,900,,,,,0,639,,,,,,,,,,,,,,,,,W,167,hexagon,1,0,,,,,,,,,,,,,,,,repeat,letter,lettRpt,f,0.9886,noRew,,,,,,0,23,0,23,0,1,,,,,,,,,,,,,,,,
294901,2022-09-27_24h12.56.297,vts_reward_expectancy,2022.2.4,MacIntel,60.0024001,Chrome,1440,900,,,,,0,639,,,,,,,,,,,,,,,,,U,174,triangle,1,0,,,,,,,,,,,,,,,,switch,number,numSwt,k,1.9602,noRew,,,,,,0,24,0,24,0,1,,,,,,,,,,,,,,,,
294901,2022-09-27_24h12.56.297,vts_reward_expectancy,2022.2.4,MacIntel,60.0024001,Chrome,1440,900,,,,,0,639,,,,,,,,,,,,,,,,,B,181,circle,1,0,,,,,,,,,,,,,,,,switch,letter,lettSwt,d,0.7695,noRew,,,,,,0,25,0,25,0,1,,,,,,,,,,,,,,,,
294901,2022-09-27_24h12.56.297,vts_reward_expectancy,2022.2.4,MacIntel,60.0024001,Chrome,1440,900,,,,,0,639,,,,,,,,,,,,,,,,,W,167,triangle,1,0,,,,,,,,,,,,,,,,repeat,letter,lettRpt,f,2.2534,noRew,,,,,,0,26,0,26,0,1,,,,,,,,,,,,,,,,
294901,2022-09-27_24h12.56.297,vts_reward_expectancy,2022.2.4,MacIntel,60.0024001,Chrome,1440,900,,,,,0,639,,,,,,,,,,,,,,,,,H,125,hexagon,1,0,,,,,,,,,,,,,,,,switch,number,numSwt,j,2.2187,noRew,,,,,,0,27,0,27,0,1,,,,,,,,,,,,,,,,
294901,2022-09-27_24h12.56.297,vts_reward_expectancy,2022.2.4,MacIntel,60.0024001,Chrome,1440,900,,,,,0,639,,,,,,,,,,,,,,,,,H,174,triangle,1,0,,,,,,,,,,,,,,,,repeat,number,numRpt,k,1.806,noRew,,,,,,0,28,0,28,0,1,,,,,,,,,,,,,,,,
294901,2022-09-27_24h12.56.297,vts_reward_expectancy,2022.2.4,MacIntel,60.0024001,Chrome,1440,900,,,,,0,639,,,,,,,,,,,,,,,,,F,160,star,1,0,,,,,,,,,,,,,,,,switch,letter,lettSwt,d,1.1515,noRew,,,,,,0,29,0,29,0,1,,,,,,,,,,,,,,,,
294901,2022-09-27_24h12.56.297,vts_reward_expectancy,2022.2.4,MacIntel,60.0024001,Chrome,1440,900,,,,,0,639,,,,,,,,,,,,,,,,,U,167,hexagon,1,0,,,,,,,,,,,,,,,,repeat,letter,lettRpt,f,0.8346,noRew,,,,,,0,30,0,30,0,1,,,,,,,,,,,,,,,,
294901,2022-09-27_24h12.56.297,vts_reward_expectancy,2022.2.4,MacIntel,60.0024001,Chrome,1440,900,,,,,0,639,,,,,,,,,,,,,,,,,B,132,circle,1,0,,,,,,,,,,,,,,,,repeat,letter,lettRpt,d,0.6206,noRew,,,,,,0,31,0,31,0,1,,,,,,,,,,,,,,,,
294901,2022-09-27_24h12.56.297,vts_reward_expectancy,2022.2.4,MacIntel,60.0024001,Chrome,1440,900,,,,,0,639,,,,,,,,,,,,,,,,,S,146,circle,1,0,,,,,,,,,,,,,,,,switch,number,numSwt,j,1.5765,noRew,,,,,,0,32,0,32,0,1,,,,,,,,,,,,,,,,
294901,2022-09-27_24h12.56.297,vts_reward_expectancy,2022.2.4,MacIntel,60.0024001,Chrome,1440,900,,,,,0,639,,,,,,,,,,,,,,,,,B,181,star,1,0,,,,,,,,,,,,,,,,switch,letter,lettSwt,d,0.7611,noRew,,,,,,0,33,0,33,0,1,,,,,,,,,,,,,,,,
294901,2022-09-27_24h12.56.297,vts_reward_expectancy,2022.2.4,MacIntel,60.0024001,Chrome,1440,900,,,,,0,639,,,,,,,,,,,,,,,,,H,160,hexagon,1,0,,,,,,,,,,,,,,,,switch,number,numSwt,k,2.8775,noRew,,,,,,0,34,0,34,0,1,,,,,,,,,,,,,,,,
294901,2022-09-27_24h12.56.297,vts_reward_expectancy,2022.2.4,MacIntel,60.0024001,Chrome,1440,900,,,,,0,639,,,,,,,,,,,,,,,,,F,139,triangle,1,0,,,,,,,,,,,,,,,,repeat,number,numRpt,j,1.4468,noRew,,,,,,0,35,0,35,0,1,,,,,,,,,,,,,,,,
294901,2022-09-27_24h12.56.297,vts_reward_expectancy,2022.2.4,MacIntel,60.0024001,Chrome,1440,900,,,,,0,639,,,,,,,,,,,,,,,,,Y,132,hexagon,1,0,,,,,,,,,,,,,,,,switch,letter,lettSwt,f,1.6211,noRew,,,,,,0,36,0,36,0,1,,,,,,,,,,,,,,,,
294901,2022-09-27_24h12.56.297,vts_reward_expectancy,2022.2.4,MacIntel,60.0024001,Chrome,1440,900,,,,,0,639,,,,,,,,,,,,,,,,,W,146,circle,1,0,,,,,,,,,,,,,,,,repeat,letter,lettRpt,f,0.9247,noRew,,,,,,0,37,0,37,0,1,,,,,,,,,,,,,,,,
294901,2022-09-27_24h12.56.297,vts_reward_expectancy,2022.2.4,MacIntel,60.0024001,Chrome,1440,900,,,,,0,639,,,,,,,,,,,,,,,,,U,125,star,-1,0,,,,,,,,,,,,,,,,switch,no_choice,NA,,,noRew,,,,,,0,38,0,38,0,1,,,,,,,,,,,,,,,,
294901,2022-09-27_24h12.56.297,vts_reward_expectancy,2022.2.4,MacIntel,60.0024001,Chrome,1440,900,,,,,0,639,,,,,,,,,,,,,,,,,F,139,triangle,1,0,,,,,,,,,,,,,,,,switch,number,numSwt,j,1.2356,noRew,,,,,,0,39,0,39,0,1,,,,,,,,,,,,,,,,
294901,2022-09-27_24h12.56.297,vts_reward_expectancy,2022.2.4,MacIntel,60.0024001,Chrome,1440,900,,,,,0,639,,,,,,,,,,,,,,,,,F,139,triangle,1,0,,,,,,,,,,,,,,,,repeat,number,numRpt,j,1.0862,noRew,,,,,,0,40,0,40,0,1,,,,,,,,,,,,,,,,
294901,2022-09-27_24h12.56.297,vts_reward_expectancy,2022.2.4,MacIntel,60.0024001,Chrome,1440,900,,,,,0,639,,,,,,,,,,,,,,,,,S,181,circle,1,0,,,,,,,,,,,,,,,,repeat,number,numRpt,k,0.9752,noRew,,,,,,0,41,0,41,0,1,,,,,,,,,,,,,,,,
294901,2022-09-27_24h12.56.297,vts_reward_expectancy,2022.2.4,MacIntel,60.0024001,Chrome,1440,900,,,,,0,639,,,,,,,,,,,,,,,,,Y,146,triangle,1,0,,,,,,,,,,,,,,,,repeat,number,numRpt,j,1.2216,noRew,,,,,,0,42,0,42,0,1,,,,,,,,,,,,,,,,
294901,2022-09-27_24h12.56.297,vts_reward_expectancy,2022.2.4,MacIntel,60.0024001,Chrome,1440,900,,,,,0,639,,,,,,,,,,,,,,,,,U,174,star,1,0,,,,,,,,,,,,,,,,repeat,number,numRpt,k,0.7868,noRew,,,,,,0,43,0,43,0,1,,,,,,,,,,,,,,,,
294901,2022-09-27_24h12.56.297,vts_reward_expectancy,2022.2.4,MacIntel,60.0024001,Chrome,1440,900,,,,,0,639,,,,,,,,,,,,,,,,,Y,132,star,1,0,,,,,,,,,,,,,,,,switch,letter,lettSwt,f,0.7637,noRew,,,,,,0,44,0,44,0,1,,,,,,,,,,,,,,,,
294901,2022-09-27_24h12.56.297,vts_reward_expectancy,2022.2.4,MacIntel,60.0024001,Chrome,1440,900,,,,,0,639,,,,,,,,,,,,,,,,,D,146,triangle,1,0,,,,,,,,,,,,,,,,repeat,letter,lettRpt,d,1.0379,noRew,,,,,,0,45,0,45,0,1,,,,,,,,,,,,,,,,
294901,2022-09-27_24h12.56.297,vts_reward_expectancy,2022.2.4,MacIntel,60.0024001,Chrome,1440,900,,,,,0,639,,,,,,,,,,,,,,,,,W,181,triangle,1,0,,,,,,,,,,,,,,,,repeat,letter,lettRpt,f,0.7259,noRew,,,,,,0,46,0,46,0,1,,,,,,,,,,,,,,,,
294901,2022-09-27_24h12.56.297,vts_reward_expectancy,2022.2.4,MacIntel,60.0024001,Chrome,1440,900,,,,,0,639,,,,,,,,,,,,,,,,,U,167,circle,1,0,,,,,,,,,,,,,,,,switch,number,numSwt,k,0.9376,noRew,,,,,,0,47,0,47,0,1,,,,,,,,,,,,,,,,
294901,2022-09-27_24h12.56.297,vts_reward_expectancy,2022.2.4,MacIntel,60.0024001,Chrome,1440,900,,,,,0,639,,,,,,,,,,,,,,,,,B,146,hexagon,1,0,,,,,,,,,,,,,,,,repeat,number,numRpt,j,1.5208,noRew,,,,,,0,48,0,48,0,1,,,,,,,,,,,,,,,,
294901,2022-09-27_24h12.56.297,vts_reward_expectancy,2022.2.4,MacIntel,60.0024001,Chrome,1440,900,,,,,0,639,,,,,,,,,,,,,,,,,F,181,triangle,1,0,,,,,,,,,,,,,,,,repeat,number,numRpt,k,0.955,noRew,,,,,,0,49,0,49,0,1,,,,,,,,,,,,,,,,
294901,2022-09-27_24h12.56.297,vts_reward_expectancy,2022.2.4,MacIntel,60.0024001,Chrome,1440,900,,,,,0,639,,,,,,,,,,,,,,,,,D,139,star,1,0,,,,,,,,,,,,,,,,repeat,number,numRpt,j,1.7696,noRew,,,,,,0,50,0,50,0,1,,,,,,,,,,,,,,,,
294901,2022-09-27_24h12.56.297,vts_reward_expectancy,2022.2.4,MacIntel,60.0024001,Chrome,1440,900,,,,,0,639,,,,,,,,,,,,,,,,,S,174,circle,1,0,,,,,,,,,,,,,,,,repeat,number,numRpt,k,1.0266,noRew,,,,,,0,51,0,51,0,1,,,,,,,,,,,,,,,,
294901,2022-09-27_24h12.56.297,vts_reward_expectancy,2022.2.4,MacIntel,60.0024001,Chrome,1440,900,,,,,0,639,,,,,,,,,,,,,,,,,D,174,triangle,1,0,,,,,,,,,,,,,,,,repeat,number,numRpt,k,0.7553,noRew,,,,,,0,52,0,52,0,1,,,,,,,,,,,,,,,,
294901,2022-09-27_24h12.56.297,vts_reward_expectancy,2022.2.4,MacIntel,60.0024001,Chrome,1440,900,,,,,0,639,,,,,,,,,,,,,,,,,Y,125,circle,1,0,,,,,,,,,,,,,,,,repeat,number,numRpt,j,0.9853,noRew,,,,,,0,53,0,53,0,1,,,,,,,,,,,,,,,,
294901,2022-09-27_24h12.56.297,vts_reward_expectancy,2022.2.4,MacIntel,60.0024001,Chrome,1440,900,,,,,0,639,,,,,,,,,,,,,,,,,W,160,star,1,0,,,,,,,,,,,,,,,,repeat,number,numRpt,k,0.6291,noRew,,,,,,0,54,0,54,0,1,,,,,,,,,,,,,,,,
294901,2022-09-27_24h12.56.297,vts_reward_expectancy,2022.2.4,MacIntel,60.0024001,Chrome,1440,900,,,,,0,639,,,,,,,,,,,,,,,,,F,132,hexagon,1,0,,,,,,,,,,,,,,,,repeat,number,numRpt,j,0.9066,noRew,,,,,,0,55,0,55,0,1,,,,,,,,,,,,,,,,
294901,2022-09-27_24h12.56.297,vts_reward_expectancy,2022.2.4,MacIntel,60.0024001,Chrome,1440,900,,,,,0,639,,,,,,,,,,,,,,,,,Y,139,hexagon,0,0,,,,,,,,,,,,,,,,repeat,number,NA,k,0.8028,noRew,,,,,,0,56,0,56,0,1,,,,,,,,,,,,,,,,
294901,2022-09-27_24h12.56.297,vts_reward_expectancy,2022.2.4,MacIntel,60.0024001,Chrome,1440,900,,,,,0,639,,,,,,,,,,,,,,,,,B,160,star,1,1,,,,,,,,,,,,,,,,switch,letter,lettSwt,d,0.6703,noRew,,,,,,0,57,0,57,0,1,,,,,,,,,,,,,,,,
294901,2022-09-27_24h12.56.297,vts_reward_expectancy,2022.2.4,MacIntel,60.0024001,Chrome,1440,900,,,,,0,639,,,,,,,,,,,,,,,,,H,167,star,1,0,,,,,,,,,,,,,,,,switch,number,numSwt,k,1.8882,noRew,,,,,,0,58,0,58,0,1,,,,,,,,,,,,,,,,
294901,2022-09-27_24h12.56.297,vts_reward_expectancy,2022.2.4,MacIntel,60.0024001,Chrome,1440,900,,,,,0,639,,,,,,,,,,,,,,,,,F,125,circle,1,0,,,,,,,,,,,,,,,,repeat,number,numRpt,j,1.6374,noRew,,,,,,0,59,0,59,0,1,,,,,,,,,,,,,,,,
294901,2022-09-27_24h12.56.297,vts_reward_expectancy,2022.2.4,MacIntel,60.0024001,Chrome,1440,900,,,,,0,639,,,,,,,,,,,,,,,,,W,167,triangle,1,0,,,,,,,,,,,,,,,,repeat,number,numRpt,k,0.8702,noRew,,,,,,0,60,0,60,0,1,,,,,,,,,,,,,,,,
294901,2022-09-27_24h12.56.297,vts_reward_expectancy,2022.2.4,MacIntel,60.0024001,Chrome,1440,900,,,,,0,639,,,,,,,,,,,,,,,,,Y,174,star,1,0,,,,,,,,,,,,,,,,switch,letter,lettSwt,f,0.9868,noRew,,,,,,0,61,0,61,0,1,,,,,,,,,,,,,,,,
294901,2022-09-27_24h12.56.297,vts_reward_expectancy,2022.2.4,MacIntel,60.0024001,Chrome,1440,900,,,,,0,639,,,,,,,,,,,,,,,,,B,132,circle,1,0,,,,,,,,,,,,,,,,repeat,letter,lettRpt,d,0.8056,noRew,,,,,,0,62,0,62,0,1,,,,,,,,,,,,,,,,
294901,2022-09-27_24h12.56.297,vts_reward_expectancy,2022.2.4,MacIntel,60.0024001,Chrome,1440,900,,,,,0,639,,,,,,,,,,,,,,,,,S,146,triangle,1,0,,,,,,,,,,,,,,,,repeat,letter,lettRpt,f,0.7071,noRew,,,,,,0,63,0,63,0,1,,,,,,,,,,,,,,,,
294901,2022-09-27_24h12.56.297,vts_reward_expectancy,2022.2.4,MacIntel,60.0024001,Chrome,1440,900,,,,,,,,,,,,,,,,,,,,,,,,,,,,,,,,,,,,,,,,,,,,,,,,,,,,,,,,,,,,,,,,,,,,,,,,,,,
294901,2022-09-27_24h12.56.297,vts_reward_expectancy,2022.2.4,MacIntel,60.0024001,Chrome,1440,900,,,,,10,649,,,,,,,,,,,,,,,,,F,132,triangle,1,0,,,,,,,,,,,,,,,,switch,number,numSwt,j,1.155,Hi,,,,,,0,,,,,,space,2.9306,high,0,0,0,0,1,,,,,,,,
294901,2022-09-27_24h12.56.297,vts_reward_expectancy,2022.2.4,MacIntel,60.0024001,Chrome,1440,900,,,,,10,659,,,,,,,,,,,,,,,,,H,139,hexagon,1,0,,,,,,,,,,,,,,,,repeat,number,numRpt,j,1.2714,Lo,,,,,,0,,,,,,,,high,1,0,1,0,1,,,,,,,,
294901,2022-09-27_24h12.56.297,vts_reward_expectancy,2022.2.4,MacIntel,60.0024001,Chrome,1440,900,,,,,10,669,,,,,,,,,,,,,,,,,S,125,triangle,1,0,,,,,,,,,,,,,,,,repeat,number,numRpt,j,0.7907,Hi,,,,,,0,,,,,,,,high,2,0,2,0,1,,,,,,,,
294901,2022-09-27_24h12.56.297,vts_reward_expectancy,2022.2.4,MacIntel,60.0024001,Chrome,1440,900,,,,,1,670,,,,,,,,,,,,,,,,,D,167,hexagon,1,0,,,,,,,,,,,,,,,,switch,letter,lettSwt,d,0.6215,Lo,,,,,,0,,,,,,,,high,3,0,3,0,1,,,,,,,,
294901,2022-09-27_24h12.56.297,vts_reward_expectancy,2022.2.4,MacIntel,60.0024001,Chrome,1440,900,,,,,10,680,,,,,,,,,,,,,,,,,U,146,triangle,1,0,,,,,,,,,,,,,,,,switch,number,numSwt,j,0.8701,Hi,,,,,,0,,,,,,,,high,4,0,4,0,1,,,,,,,,
294901,2022-09-27_24h12.56.297,vts_reward_expectancy,2022.2.4,MacIntel,60.0024001,Chrome,1440,900,,,,,1,681,,,,,,,,,,,,,,,,,Y,181,hexagon,1,0,,,,,,,,,,,,,,,,repeat,number,numRpt,k,1.3793,Lo,,,,,,0,,,,,,,,high,5,0,5,0,1,,,,,,,,
294901,2022-09-27_24h12.56.297,vts_reward_expectancy,2022.2.4,MacIntel,60.0024001,Chrome,1440,900,,,,,1,682,,,,,,,,,,,,,,,,,W,160,hexagon,1,0,,,,,,,,,,,,,,,,repeat,number,numRpt,k,1.3551,Lo,,,,,,0,,,,,,,,high,6,0,6,0,1,,,,,,,,
294901,2022-09-27_24h12.56.297,vts_reward_expectancy,2022.2.4,MacIntel,60.0024001,Chrome,1440,900,,,,,10,692,,,,,,,,,,,,,,,,,B,174,triangle,1,0,,,,,,,,,,,,,,,,switch,letter,lettSwt,d,0.719,Hi,,,,,,0,,,,,,,,high,7,0,7,0,1,,,,,,,,
294901,2022-09-27_24h12.56.297,vts_reward_expectancy,2022.2.4,MacIntel,60.0024001,Chrome,1440,900,,,,,10,702,,,,,,,,,,,,,,,,,F,132,triangle,1,0,,,,,,,,,,,,,,,,repeat,letter,lettRpt,d,0.7041,Hi,,,,,,0,,,,,,,,high,8,0,8,0,1,,,,,,,,
294901,2022-09-27_24h12.56.297,vts_reward_expectancy,2022.2.4,MacIntel,60.0024001,Chrome,1440,900,,,,,1,703,,,,,,,,,,,,,,,,,H,139,hexagon,1,0,,,,,,,,,,,,,,,,switch,number,numSwt,j,1.2368,Lo,,,,,,0,,,,,,,,high,9,0,9,0,1,,,,,,,,
294901,2022-09-27_24h12.56.297,vts_reward_expectancy,2022.2.4,MacIntel,60.0024001,Chrome,1440,900,,,,,10,713,,,,,,,,,,,,,,,,,S,125,hexagon,1,0,,,,,,,,,,,,,,,,repeat,number,numRpt,j,1.4065,Lo,,,,,,0,,,,,,,,high,10,0,10,0,1,,,,,,,,
294901,2022-09-27_24h12.56.297,vts_reward_expectancy,2022.2.4,MacIntel,60.0024001,Chrome,1440,900,,,,,0,713,,,,,,,,,,,,,,,,,D,167,triangle,1,0,,,,,,,,,,,,,,,,switch,letter,lettSwt,d,1.2421,Hi,,,,,,0,,,,,,,,high,11,0,11,0,1,,,,,,,,
294901,2022-09-27_24h12.56.297,vts_reward_expectancy,2022.2.4,MacIntel,60.0024001,Chrome,1440,900,,,,,0,713,,,,,,,,,,,,,,,,,U,146,triangle,1,0,,,,,,,,,,,,,,,,repeat,letter,lettRpt,f,0.9188,Hi,,,,,,0,,,,,,,,high,12,0,12,0,1,,,,,,,,
294901,2022-09-27_24h12.56.297,vts_reward_expectancy,2022.2.4,MacIntel,60.0024001,Chrome,1440,900,,,,,10,723,,,,,,,,,,,,,,,,,Y,181,hexagon,1,0,,,,,,,,,,,,,,,,repeat,letter,lettRpt,f,0.8876,Lo,,,,,,0,,,,,,,,high,13,0,13,0,1,,,,,,,,
294901,2022-09-27_24h12.56.297,vts_reward_expectancy,2022.2.4,MacIntel,60.0024001,Chrome,1440,900,,,,,1,724,,,,,,,,,,,,,,,,,W,160,hexagon,1,0,,,,,,,,,,,,,,,,switch,number,numSwt,k,0.6388,Lo,,,,,,0,,,,,,,,high,14,0,14,0,1,,,,,,,,
294901,2022-09-27_24h12.56.297,vts_reward_expectancy,2022.2.4,MacIntel,60.0024001,Chrome,1440,900,,,,,10,734,,,,,,,,,,,,,,,,,B,174,triangle,1,0,,,,,,,,,,,,,,,,switch,letter,lettSwt,d,0.5109,Hi,,,,,,0,,,,,,,,high,15,0,15,0,1,,,,,,,,
294901,2022-09-27_24h12.56.297,vts_reward_expectancy,2022.2.4,MacIntel,60.0024001,Chrome,1440,900,,,,,10,744,,,,,,,,,,,,,,,,,U,160,triangle,1,0,,,,,,,,,,,,,,,,repeat,letter,lettRpt,f,0.6222,Hi,,,,,,0,,,,,,,,high,16,0,16,0,1,,,,,,,,
294901,2022-09-27_24h12.56.297,vts_reward_expectancy,2022.2.4,MacIntel,60.0024001,Chrome,1440,900,,,,,10,754,,,,,,,,,,,,,,,,,F,146,hexagon,1,0,,,,,,,,,,,,,,,,repeat,letter,lettRpt,d,0.6276,Lo,,,,,,0,,,,,,,,high,17,0,17,0,1,,,,,,,,
294901,2022-09-27_24h12.56.297,vts_reward_expectancy,2022.2.4,MacIntel,60.0024001,Chrome,1440,900,,,,,1,755,,,,,,,,,,,,,,,,,W,181,hexagon,1,0,,,,,,,,,,,,,,,,repeat,letter,lettRpt,f,0.7092,Lo,,,,,,0,,,,,,,,high,18,0,18,0,1,,,,,,,,
294901,2022-09-27_24h12.56.297,vts_reward_expectancy,2022.2.4,MacIntel,60.0024001,Chrome,1440,900,,,,,0,755,,,,,,,,,,,,,,,,,H,125,triangle,1,0,,,,,,,,,,,,,,,,repeat,letter,lettRpt,d,1.0867,Hi,,,,,,0,,,,,,,,high,19,0,19,0,1,,,,,,,,
294901,2022-09-27_24h12.56.297,vts_reward_expectancy,2022.2.4,MacIntel,60.0024001,Chrome,1440,900,,,,,1,756,,,,,,,,,,,,,,,,,Y,167,hexagon,1,0,,,,,,,,,,,,,,,,switch,number,numSwt,k,1.0394,Lo,,,,,,0,,,,,,,,high,20,0,20,0,1,,,,,,,,
294901,2022-09-27_24h12.56.297,vts_reward_expectancy,2022.2.4,MacIntel,60.0024001,Chrome,1440,900,,,,,10,766,,,,,,,,,,,,,,,,,D,132,triangle,1,0,,,,,,,,,,,,,,,,switch,letter,lettSwt,d,0.5878,Hi,,,,,,0,,,,,,,,high,21,0,21,0,1,,,,,,,,
294901,2022-09-27_24h12.56.297,vts_reward_expectancy,2022.2.4,MacIntel,60.0024001,Chrome,1440,900,,,,,1,767,,,,,,,,,,,,,,,,,S,139,hexagon,1,0,,,,,,,,,,,,,,,,switch,number,numSwt,j,1.2474,Lo,,,,,,0,,,,,,,,high,22,0,22,0,1,,,,,,,,
294901,2022-09-27_24h12.56.297,vts_reward_expectancy,2022.2.4,MacIntel,60.0024001,Chrome,1440,900,,,,,10,777,,,,,,,,,,,,,,,,,B,174,triangle,1,0,,,,,,,,,,,,,,,,switch,letter,lettSwt,d,0.6087,Hi,,,,,,0,,,,,,,,high,23,0,23,0,1,,,,,,,,
294901,2022-09-27_24h12.56.297,vts_reward_expectancy,2022.2.4,MacIntel,60.0024001,Chrome,1440,900,,,,,1,778,,,,,,,,,,,,,,,,,D,146,hexagon,1,0,,,,,,,,,,,,,,,,switch,number,numSwt,j,0.7278,Lo,,,,,,0,,,,,,,,high,24,0,24,0,1,,,,,,,,
294901,2022-09-27_24h12.56.297,vts_reward_expectancy,2022.2.4,MacIntel,60.0024001,Chrome,1440,900,,,,,10,788,,,,,,,,,,,,,,,,,W,132,triangle,1,0,,,,,,,,,,,,,,,,switch,letter,lettSwt,f,0.5539,Hi,,,,,,0,,,,,,,,high,25,0,25,0,1,,,,,,,,
294901,2022-09-27_24h12.56.297,vts_reward_expectancy,2022.2.4,MacIntel,60.0024001,Chrome,1440,900,,,,,10,798,,,,,,,,,,,,,,,,,Y,181,triangle,1,0,,,,,,,,,,,,,,,,repeat,letter,lettRpt,f,0.7738,Hi,,,,,,0,,,,,,,,high,26,0,26,0,1,,,,,,,,
294901,2022-09-27_24h12.56.297,vts_reward_expectancy,2022.2.4,MacIntel,60.0024001,Chrome,1440,900,,,,,10,808,,,,,,,,,,,,,,,,,S,174,hexagon,1,0,,,,,,,,,,,,,,,,repeat,letter,lettRpt,f,0.7415,Lo,,,,,,0,,,,,,,,high,27,0,27,0,1,,,,,,,,
294901,2022-09-27_24h12.56.297,vts_reward_expectancy,2022.2.4,MacIntel,60.0024001,Chrome,1440,900,,,,,10,818,,,,,,,,,,,,,,,,,B,125,hexagon,1,0,,,,,,,,,,,,,,,,repeat,letter,lettRpt,d,0.7369,Lo,,,,,,0,,,,,,,,high,28,0,28,0,1,,,,,,,,
294901,2022-09-27_24h12.56.297,vts_reward_expectancy,2022.2.4,MacIntel,60.0024001,Chrome,1440,900,,,,,1,819,,,,,,,,,,,,,,,,,U,139,triangle,1,0,,,,,,,,,,,,,,,,switch,number,numSwt,j,0.8134,Hi,,,,,,0,,,,,,,,high,29,0,29,0,1,,,,,,,,
294901,2022-09-27_24h12.56.297,vts_reward_expectancy,2022.2.4,MacIntel,60.0024001,Chrome,1440,900,,,,,1,820,,,,,,,,,,,,,,,,,H,167,hexagon,1,0,,,,,,,,,,,,,,,,switch,letter,lettSwt,d,1.3679,Lo,,,,,,0,,,,,,,,high,30,0,30,0,1,,,,,,,,
294901,2022-09-27_24h12.56.297,vts_reward_expectancy,2022.2.4,MacIntel,60.0024001,Chrome,1440,900,,,,,1,821,,,,,,,,,,,,,,,,,F,160,triangle,1,0,,,,,,,,,,,,,,,,switch,number,numSwt,k,0.9221,Hi,,,,,,0,,,,,,,,high,31,0,31,0,1,,,,,,,,
294901,2022-09-27_24h12.56.297,vts_reward_expectancy,2022.2.4,MacIntel,60.0024001,Chrome,1440,900,,,,,0,821,,,,,,,,,,,,,,,,,Y,167,circle,0,0,,,,,,,,,,,,,,,,switch,letter,NA,d,0.7115,Hi,,,,,,1,,,,,,space,1.7541,low,0,0,0,0,1,,,,,,,,
294901,2022-09-27_24h12.56.297,vts_reward_expectancy,2022.2.4,MacIntel,60.0024001,Chrome,1440,900,,,,,10,831,,,,,,,,,,,,,,,,,U,174,star,1,1,,,,,,,,,,,,,,,,switch,number,numSwt,k,1.5062,Lo,,,,,,1,,,,,,,,low,1,0,1,0,1,,,,,,,,
294901,2022-09-27_24h12.56.297,vts_reward_expectancy,2022.2.4,MacIntel,60.0024001,Chrome,1440,900,,,,,0,831,,,,,,,,,,,,,,,,,S,139,circle,0,0,,,,,,,,,,,,,,,,repeat,number,NA,k,0.6587,Lo,,,,,,1,,,,,,,,low,2,0,2,0,1,,,,,,,,
294901,2022-09-27_24h12.56.297,vts_reward_expectancy,2022.2.4,MacIntel,60.0024001,Chrome,1440,900,,,,,1,832,,,,,,,,,,,,,,,,,H,132,star,1,1,,,,,,,,,,,,,,,,repeat,number,numRpt,j,1.4997,Lo,,,,,,1,,,,,,,,low,3,0,3,0,1,,,,,,,,
294901,2022-09-27_24h12.56.297,vts_reward_expectancy,2022.2.4,MacIntel,60.0024001,Chrome,1440,900,,,,,1,833,,,,,,,,,,,,,,,,,W,146,star,1,0,,,,,,,,,,,,,,,,switch,letter,lettSwt,f,0.9772,Lo,,,,,,1,,,,,,,,low,4,0,4,0,1,,,,,,,,
294901,2022-09-27_24h12.56.297,vts_reward_expectancy,2022.2.4,MacIntel,60.0024001,Chrome,1440,900,,,,,0,833,,,,,,,,,,,,,,,,,D,160,circle,1,0,,,,,,,,,,,,,,,,repeat,letter,lettRpt,d,0.7104,Hi,,,,,,1,,,,,,,,low,5,0,5,0,1,,,,,,,,
294901,2022-09-27_24h12.56.297,vts_reward_expectancy,2022.2.4,MacIntel,60.0024001,Chrome,1440,900,,,,,10,843,,,,,,,,,,,,,,,,,B,181,star,1,0,,,,,,,,,,,,,,,,switch,number,numSwt,k,0.3348,Lo,,,,,,1,,,,,,,,low,6,0,6,0,1,,,,,,,,
294901,2022-09-27_24h12.56.297,vts_reward_expectancy,2022.2.4,MacIntel,60.0024001,Chrome,1440,900,,,,,1,844,,,,,,,,,,,,,,,,,F,125,circle,1,0,,,,,,,,,,,,,,,,switch,letter,lettSwt,d,0.3368,Hi,,,,,,1,,,,,,,,low,7,0,7,0,1,,,,,,,,
294901,2022-09-27_24h12.56.297,vts_reward_expectancy,2022.2.4,MacIntel,60.0024001,Chrome,1440,900,,,,,10,854,,,,,,,,,,,,,,,,,Y,167,circle,1,0,,,,,,,,,,,,,,,,repeat,letter,lettRpt,f,0.3725,Hi,,,,,,1,,,,,,,,low,8,0,8,0,1,,,,,,,,
294901,2022-09-27_24h12.56.297,vts_reward_expectancy,2022.2.4,MacIntel,60.0024001,Chrome,1440,900,,,,,0,854,,,,,,,,,,,,,,,,,U,174,star,0,0,,,,,,,,,,,,,,,,repeat,letter,NA,d,0.5769,Hi,,,,,,1,,,,,,,,low,9,0,9,0,1,,,,,,,,
294901,2022-09-27_24h12.56.297,vts_reward_expectancy,2022.2.4,MacIntel,60.0024001,Chrome,1440,900,,,,,10,864,,,,,,,,,,,,,,,,,S,139,circle,1,1,,,,,,,,,,,,,,,,repeat,letter,lettRpt,f,0.4902,Hi,,,,,,1,,,,,,,,low,10,0,10,0,1,,,,,,,,
294901,2022-09-27_24h12.56.297,vts_reward_expectancy,2022.2.4,MacIntel,60.0024001,Chrome,1440,900,,,,,10,874,,,,,,,,,,,,,,,,,H,132,star,1,0,,,,,,,,,,,,,,,,switch,number,numSwt,j,0.4952,Lo,,,,,,1,,,,,,,,low,11,0,11,0,1,,,,,,,,
294901,2022-09-27_24h12.56.297,vts_reward_expectancy,2022.2.4,MacIntel,60.0024001,Chrome,1440,900,,,,,1,875,,,,,,,,,,,,,,,,,W,146,star,1,0,,,,,,,,,,,,,,,,repeat,number,numRpt,j,0.5622,Lo,,,,,,1,,,,,,,,low,12,0,12,0,1,,,,,,,,
294901,2022-09-27_24h12.56.297,vts_reward_expectancy,2022.2.4,MacIntel,60.0024001,Chrome,1440,900,,,,,1,876,,,,,,,,,,,,,,,,,D,160,circle,1,0,,,,,,,,,,,,,,,,repeat,number,numRpt,k,0.7566,Hi,,,,,,1,,,,,,,,low,13,0,13,0,1,,,,,,,,
294901,2022-09-27_24h12.56.297,vts_reward_expectancy,2022.2.4,MacIntel,60.0024001,Chrome,1440,900,,,,,1,877,,,,,,,,,,,,,,,,,B,181,star,1,0,,,,,,,,,,,,,,,,switch,letter,lettSwt,d,1.2226,Lo,,,,,,1,,,,,,,,low,14,0,14,0,1,,,,,,,,
294901,2022-09-27_24h12.56.297,vts_reward_expectancy,2022.2.4,MacIntel,60.0024001,Chrome,1440,900,,,,,0,877,,,,,,,,,,,,,,,,,F,125,circle,1,0,,,,,,,,,,,,,,,,repeat,letter,lettRpt,d,0.9865,Hi,,,,,,1,,,,,,,,low,15,0,15,0,1,,,,,,,,
294901,2022-09-27_24h12.56.297,vts_reward_expectancy,2022.2.4,MacIntel,60.0024001,Chrome,1440,900,,,,,1,878,,,,,,,,,,,,,,,,,B,174,star,1,0,,,,,,,,,,,,,,,,repeat,letter,lettRpt,d,0.6546,Lo,,,,,,1,,,,,,,,low,16,0,16,0,1,,,,,,,,
294901,2022-09-27_24h12.56.297,vts_reward_expectancy,2022.2.4,MacIntel,60.0024001,Chrome,1440,900,,,,,0,878,,,,,,,,,,,,,,,,,F,181,circle,1,0,,,,,,,,,,,,,,,,switch,number,numSwt,k,1.1127,Hi,,,,,,1,,,,,,,,low,17,0,17,0,1,,,,,,,,
294901,2022-09-27_24h12.56.297,vts_reward_expectancy,2022.2.4,MacIntel,60.0024001,Chrome,1440,900,,,,,0,878,,,,,,,,,,,,,,,,,Y,167,star,0,0,,,,,,,,,,,,,,,,repeat,number,NA,j,0.3777,Hi,,,,,,1,,,,,,,,low,18,0,18,0,1,,,,,,,,
294901,2022-09-27_24h12.56.297,vts_reward_expectancy,2022.2.4,MacIntel,60.0024001,Chrome,1440,900,,,,,1,879,,,,,,,,,,,,,,,,,W,146,circle,1,1,,,,,,,,,,,,,,,,repeat,number,numRpt,j,0.5403,Hi,,,,,,1,,,,,,,,low,19,0,19,0,1,,,,,,,,
294901,2022-09-27_24h12.56.297,vts_reward_expectancy,2022.2.4,MacIntel,60.0024001,Chrome,1440,900,,,,,10,889,,,,,,,,,,,,,,,,,H,125,star,1,0,,,,,,,,,,,,,,,,switch,letter,lettSwt,d,0.6543,Lo,,,,,,1,,,,,,,,low,20,0,20,0,1,,,,,,,,
294901,2022-09-27_24h12.56.297,vts_reward_expectancy,2022.2.4,MacIntel,60.0024001,Chrome,1440,900,,,,,0,889,,,,,,,,,,,,,,,,,U,139,circle,0,0,,,,,,,,,,,,,,,,switch,number,NA,k,0.7438,Lo,,,,,,1,,,,,,,,low,21,0,21,0,1,,,,,,,,
294901,2022-09-27_24h12.56.297,vts_reward_expectancy,2022.2.4,MacIntel,60.0024001,Chrome,1440,900,,,,,1,890,,,,,,,,,,,,,,,,,D,132,star,1,1,,,,,,,,,,,,,,,,switch,letter,lettSwt,d,0.6516,Lo,,,,,,1,,,,,,,,low,22,0,22,0,1,,,,,,,,
294901,2022-09-27_24h12.56.297,vts_reward_expectancy,2022.2.4,MacIntel,60.0024001,Chrome,1440,900,,,,,0,890,,,,,,,,,,,,,,,,,S,160,circle,1,0,,,,,,,,,,,,,,,,switch,number,numSwt,k,1.152,Hi,,,,,,1,,,,,,,,low,23,0,23,0,1,,,,,,,,
294901,2022-09-27_24h12.56.297,vts_reward_expectancy,2022.2.4,MacIntel,60.0024001,Chrome,1440,900,,,,,0,890,,,,,,,,,,,,,,,,,W,132,circle,1,0,,,,,,,,,,,,,,,,switch,letter,lettSwt,f,0.6884,Hi,,,,,,1,,,,,,,,low,24,0,24,0,1,,,,,,,,
294901,2022-09-27_24h12.56.297,vts_reward_expectancy,2022.2.4,MacIntel,60.0024001,Chrome,1440,900,,,,,1,891,,,,,,,,,,,,,,,,,F,125,star,1,0,,,,,,,,,,,,,,,,repeat,letter,lettRpt,d,0.8383,Lo,,,,,,1,,,,,,,,low,25,0,25,0,1,,,,,,,,
294901,2022-09-27_24h12.56.297,vts_reward_expectancy,2022.2.4,MacIntel,60.0024001,Chrome,1440,900,,,,,0,891,,,,,,,,,,,,,,,,,Y,167,circle,1,0,,,,,,,,,,,,,,,,repeat,letter,lettRpt,f,0.8404,Hi,,,,,,1,,,,,,,,low,26,0,26,0,1,,,,,,,,
294901,2022-09-27_24h12.56.297,vts_reward_expectancy,2022.2.4,MacIntel,60.0024001,Chrome,1440,900,,,,,0,891,,,,,,,,,,,,,,,,,B,174,star,0,0,,,,,,,,,,,,,,,,switch,number,NA,j,0.3654,Hi,,,,,,1,,,,,,,,low,27,0,27,0,1,,,,,,,,
294901,2022-09-27_24h12.56.297,vts_reward_expectancy,2022.2.4,MacIntel,60.0024001,Chrome,1440,900,,,,,0,891,,,,,,,,,,,,,,,,,S,139,star,0,1,,,,,,,,,,,,,,,,switch,letter,NA,d,1.767,Hi,,,,,,1,,,,,,,,low,28,0,28,0,1,,,,,,,,
294901,2022-09-27_24h12.56.297,vts_reward_expectancy,2022.2.4,MacIntel,60.0024001,Chrome,1440,900,,,,,0,891,,,,,,,,,,,,,,,,,D,160,circle,1,1,,,,,,,,,,,,,,,,repeat,letter,lettRpt,d,0.8226,Hi,,,,,,1,,,,,,,,low,29,0,29,0,1,,,,,,,,
294901,2022-09-27_24h12.56.297,vts_reward_expectancy,2022.2.4,MacIntel,60.0024001,Chrome,1440,900,,,,,0,891,,,,,,,,,,,,,,,,,U,146,star,0,0,,,,,,,,,,,,,,,,switch,number,NA,k,0.3109,Hi,,,,,,1,,,,,,,,low,30,0,30,0,1,,,,,,,,
294901,2022-09-27_24h12.56.297,vts_reward_expectancy,2022.2.4,MacIntel,60.0024001,Chrome,1440,900,,,,,10,901,,,,,,,,,,,,,,,,,H,181,circle,1,1,,,,,,,,,,,,,,,,repeat,number,numRpt,k,0.6307,Hi,,,,,,1,,,,,,,,low,31,0,31,0,1,,,,,,,,
294901,2022-09-27_24h12.56.297,vts_reward_expectancy,2022.2.4,MacIntel,60.0024001,Chrome,1440,900,,,,,0,901,,,,,,,,,,,,,,,,,Y,139,star,0,0,,,,,,,,,,,,,,,,repeat,number,NA,k,0.7559,Hi,,,,,,2,,,,,,space,9.1086,low,0,0,0,0,1,,,,,,,,
294901,2022-09-27_24h12.56.297,vts_reward_expectancy,2022.2.4,MacIntel,60.0024001,Chrome,1440,900,,,,,0,901,,,,,,,,,,,,,,,,,B,132,circle,1,1,,,,,,,,,,,,,,,,switch,letter,lettSwt,d,0.6556,Hi,,,,,,2,,,,,,,,low,1,0,1,0,1,,,,,,,,
294901,2022-09-27_24h12.56.297,vts_reward_expectancy,2022.2.4,MacIntel,60.0024001,Chrome,1440,900,,,,,1,902,,,,,,,,,,,,,,,,,H,160,star,1,0,,,,,,,,,,,,,,,,switch,number,numSwt,k,1.6387,Lo,,,,,,2,,,,,,,,low,2,0,2,0,1,,,,,,,,
294901,2022-09-27_24h12.56.297,vts_reward_expectancy,2022.2.4,MacIntel,60.0024001,Chrome,1440,900,,,,,1,903,,,,,,,,,,,,,,,,,F,167,circle,1,0,,,,,,,,,,,,,,,,switch,letter,lettSwt,d,0.5718,Hi,,,,,,2,,,,,,,,low,3,0,3,0,1,,,,,,,,
294901,2022-09-27_24h12.56.297,vts_reward_expectancy,2022.2.4,MacIntel,60.0024001,Chrome,1440,900,,,,,0,903,,,,,,,,,,,,,,,,,U,181,circle,1,0,,,,,,,,,,,,,,,,switch,number,numSwt,k,0.9602,Hi,,,,,,2,,,,,,,,low,4,0,4,0,1,,,,,,,,
294901,2022-09-27_24h12.56.297,vts_reward_expectancy,2022.2.4,MacIntel,60.0024001,Chrome,1440,900,,,,,1,904,,,,,,,,,,,,,,,,,D,146,star,1,0,,,,,,,,,,,,,,,,switch,letter,lettSwt,d,1.1449,Lo,,,,,,2,,,,,,,,low,5,0,5,0,1,,,,,,,,
294901,2022-09-27_24h12.56.297,vts_reward_expectancy,2022.2.4,MacIntel,60.0024001,Chrome,1440,900,,,,,0,904,,,,,,,,,,,,,,,,,S,125,circle,0,0,,,,,,,,,,,,,,,,repeat,letter,NA,d,1.4748,Lo,,,,,,2,,,,,,,,low,6,0,6,0,1,,,,,,,,
294901,2022-09-27_24h12.56.297,vts_reward_expectancy,2022.2.4,MacIntel,60.0024001,Chrome,1440,900,,,,,1,905,,,,,,,,,,,,,,,,,W,174,star,1,1,,,,,,,,,,,,,,,,switch,number,numSwt,k,2.2058,Lo,,,,,,2,,,,,,,,low,7,0,7,0,1,,,,,,,,
294901,2022-09-27_24h12.56.297,vts_reward_expectancy,2022.2.4,MacIntel,60.0024001,Chrome,1440,900,,,,,1,906,,,,,,,,,,,,,,,,,Y,139,star,1,0,,,,,,,,,,,,,,,,switch,letter,lettSwt,f,1.103,Lo,,,,,,2,,,,,,,,low,8,0,8,0,1,,,,,,,,
294901,2022-09-27_24h12.56.297,vts_reward_expectancy,2022.2.4,MacIntel,60.0024001,Chrome,1440,900,,,,,0,906,,,,,,,,,,,,,,,,,B,132,circle,1,0,,,,,,,,,,,,,,,,repeat,letter,lettRpt,d,0.6793,Hi,,,,,,2,,,,,,,,low,9,0,9,0,1,,,,,,,,
294901,2022-09-27_24h12.56.297,vts_reward_expectancy,2022.2.4,MacIntel,60.0024001,Chrome,1440,900,,,,,0,906,,,,,,,,,,,,,,,,,H,160,circle,1,0,,,,,,,,,,,,,,,,repeat,letter,lettRpt,d,0.8881,Hi,,,,,,2,,,,,,,,low,10,0,10,0,1,,,,,,,,
294901,2022-09-27_24h12.56.297,vts_reward_expectancy,2022.2.4,MacIntel,60.0024001,Chrome,1440,900,,,,,1,907,,,,,,,,,,,,,,,,,F,167,star,1,0,,,,,,,,,,,,,,,,repeat,letter,lettRpt,d,1.458,Lo,,,,,,2,,,,,,,,low,11,0,11,0,1,,,,,,,,
294901,2022-09-27_24h12.56.297,vts_reward_expectancy,2022.2.4,MacIntel,60.0024001,Chrome,1440,900,,,,,1,908,,,,,,,,,,,,,,,,,U,181,star,1,0,,,,,,,,,,,,,,,,switch,number,numSwt,k,0.7544,Lo,,,,,,2,,,,,,,,low,12,0,12,0,1,,,,,,,,
294901,2022-09-27_24h12.56.297,vts_reward_expectancy,2022.2.4,MacIntel,60.0024001,Chrome,1440,900,,,,,10,918,,,,,,,,,,,,,,,,,D,146,circle,1,0,,,,,,,,,,,,,,,,switch,letter,lettSwt,d,0.5881,Hi,,,,,,2,,,,,,,,low,13,0,13,0,1,,,,,,,,
294901,2022-09-27_24h12.56.297,vts_reward_expectancy,2022.2.4,MacIntel,60.0024001,Chrome,1440,900,,,,,10,928,,,,,,,,,,,,,,,,,S,125,star,1,0,,,,,,,,,,,,,,,,switch,number,numSwt,j,1.7268,Lo,,,,,,2,,,,,,,,low,14,0,14,0,1,,,,,,,,
294901,2022-09-27_24h12.56.297,vts_reward_expectancy,2022.2.4,MacIntel,60.0024001,Chrome,1440,900,,,,,0,928,,,,,,,,,,,,,,,,,W,174,circle,1,0,,,,,,,,,,,,,,,,repeat,number,numRpt,k,1.5698,Hi,,,,,,2,,,,,,,,low,15,0,15,0,1,,,,,,,,
294901,2022-09-27_24h12.56.297,vts_reward_expectancy,2022.2.4,MacIntel,60.0024001,Chrome,1440,900,,,,,10,938,,,,,,,,,,,,,,,,,B,125,circle,1,0,,,,,,,,,,,,,,,,switch,letter,lettSwt,d,0.6209,Hi,,,,,,2,,,,,,,,low,16,0,16,0,1,,,,,,,,
294901,2022-09-27_24h12.56.297,vts_reward_expectancy,2022.2.4,MacIntel,60.0024001,Chrome,1440,900,,,,,1,939,,,,,,,,,,,,,,,,,S,174,star,1,0,,,,,,,,,,,,,,,,switch,number,numSwt,k,1.1038,Lo,,,,,,2,,,,,,,,low,17,0,17,0,1,,,,,,,,
294901,2022-09-27_24h12.56.297,vts_reward_expectancy,2022.2.4,MacIntel,60.0024001,Chrome,1440,900,,,,,1,940,,,,,,,,,,,,,,,,,W,181,star,1,0,,,,,,,,,,,,,,,,switch,letter,lettSwt,f,2.178,Lo,,,,,,2,,,,,,,,low,18,0,18,0,1,,,,,,,,
294901,2022-09-27_24h12.56.297,vts_reward_expectancy,2022.2.4,MacIntel,60.0024001,Chrome,1440,900,,,,,0,940,,,,,,,,,,,,,,,,,H,146,circle,1,0,,,,,,,,,,,,,,,,repeat,letter,lettRpt,d,1.1866,Hi,,,,,,2,,,,,,,,low,19,0,19,0,1,,,,,,,,
294901,2022-09-27_24h12.56.297,vts_reward_expectancy,2022.2.4,MacIntel,60.0024001,Chrome,1440,900,,,,,10,950,,,,,,,,,,,,,,,,,U,167,star,1,0,,,,,,,,,,,,,,,,switch,number,numSwt,k,0.842,Lo,,,,,,2,,,,,,,,low,20,0,20,0,1,,,,,,,,
294901,2022-09-27_24h12.56.297,vts_reward_expectancy,2022.2.4,MacIntel,60.0024001,Chrome,1440,900,,,,,0,950,,,,,,,,,,,,,,,,,D,139,circle,1,0,,,,,,,,,,,,,,,,switch,letter,lettSwt,d,0.9213,Hi,,,,,,2,,,,,,,,low,21,0,21,0,1,,,,,,,,
294901,2022-09-27_24h12.56.297,vts_reward_expectancy,2022.2.4,MacIntel,60.0024001,Chrome,1440,900,,,,,1,951,,,,,,,,,,,,,,,,,F,132,star,1,0,,,,,,,,,,,,,,,,repeat,letter,lettRpt,d,0.7762,Lo,,,,,,2,,,,,,,,low,22,0,22,0,1,,,,,,,,
294901,2022-09-27_24h12.56.297,vts_reward_expectancy,2022.2.4,MacIntel,60.0024001,Chrome,1440,900,,,,,0,951,,,,,,,,,,,,,,,,,Y,160,circle,0,0,,,,,,,,,,,,,,,,repeat,letter,NA,d,0.7564,Lo,,,,,,2,,,,,,,,low,23,0,23,0,1,,,,,,,,
294901,2022-09-27_24h12.56.297,vts_reward_expectancy,2022.2.4,MacIntel,60.0024001,Chrome,1440,900,,,,,0,951,,,,,,,,,,,,,,,,,B,181,circle,1,1,,,,,,,,,,,,,,,,repeat,letter,lettRpt,d,1.2197,Hi,,,,,,2,,,,,,,,low,24,0,24,0,1,,,,,,,,
294901,2022-09-27_24h12.56.297,vts_reward_expectancy,2022.2.4,MacIntel,60.0024001,Chrome,1440,900,,,,,0,951,,,,,,,,,,,,,,,,,W,146,star,0,0,,,,,,,,,,,,,,,,switch,number,NA,k,0.7305,Hi,,,,,,2,,,,,,,,low,25,0,25,0,1,,,,,,,,
294901,2022-09-27_24h12.56.297,vts_reward_expectancy,2022.2.4,MacIntel,60.0024001,Chrome,1440,900,,,,,0,951,,,,,,,,,,,,,,,,,S,174,star,0,1,,,,,,,,,,,,,,,,switch,letter,NA,d,0.8027,Hi,,,,,,2,,,,,,,,low,26,0,26,0,1,,,,,,,,
294901,2022-09-27_24h12.56.297,vts_reward_expectancy,2022.2.4,MacIntel,60.0024001,Chrome,1440,900,,,,,0,951,,,,,,,,,,,,,,,,,D,125,circle,1,1,,,,,,,,,,,,,,,,repeat,letter,lettRpt,d,1.4404,Hi,,,,,,2,,,,,,,,low,27,0,27,0,1,,,,,,,,
294901,2022-09-27_24h12.56.297,vts_reward_expectancy,2022.2.4,MacIntel,60.0024001,Chrome,1440,900,,,,,0,951,,,,,,,,,,,,,,,,,Y,139,circle,1,0,,,,,,,,,,,,,,,,switch,number,numSwt,j,2.0575,Hi,,,,,,2,,,,,,,,low,28,0,28,0,1,,,,,,,,
294901,2022-09-27_24h12.56.297,vts_reward_expectancy,2022.2.4,MacIntel,60.0024001,Chrome,1440,900,,,,,1,952,,,,,,,,,,,,,,,,,H,167,star,1,0,,,,,,,,,,,,,,,,switch,letter,lettSwt,d,0.8897,Lo,,,,,,2,,,,,,,,low,29,0,29,0,1,,,,,,,,
294901,2022-09-27_24h12.56.297,vts_reward_expectancy,2022.2.4,MacIntel,60.0024001,Chrome,1440,900,,,,,0,952,,,,,,,,,,,,,,,,,U,160,circle,0,0,,,,,,,,,,,,,,,,repeat,letter,NA,d,1.3895,Lo,,,,,,2,,,,,,,,low,30,0,30,0,1,,,,,,,,
294901,2022-09-27_24h12.56.297,vts_reward_expectancy,2022.2.4,MacIntel,60.0024001,Chrome,1440,900,,,,,1,953,,,,,,,,,,,,,,,,,F,132,star,1,1,,,,,,,,,,,,,,,,repeat,letter,lettRpt,d,0.8786,Lo,,,,,,2,,,,,,,,low,31,0,31,0,1,,,,,,,,
294901,2022-09-27_24h12.56.297,vts_reward_expectancy,2022.2.4,MacIntel,60.0024001,Chrome,1440,900,,,,,0,953,,,,,,,,,,,,,,,,,S,125,circle,1,0,,,,,,,,,,,,,,,,switch,number,numSwt,j,1.1688,Hi,,,,,,3,,,,,,space,1.2722,low,0,0,0,0,1,,,,,,,,
294901,2022-09-27_24h12.56.297,vts_reward_expectancy,2022.2.4,MacIntel,60.0024001,Chrome,1440,900,,,,,1,954,,,,,,,,,,,,,,,,,Y,132,star,1,0,,,,,,,,,,,,,,,,switch,letter,lettSwt,f,0.6879,Lo,,,,,,3,,,,,,,,low,1,0,1,0,1,,,,,,,,
294901,2022-09-27_24h12.56.297,vts_reward_expectancy,2022.2.4,MacIntel,60.0024001,Chrome,1440,900,,,,,1,955,,,,,,,,,,,,,,,,,B,139,circle,1,0,,,,,,,,,,,,,,,,repeat,letter,lettRpt,d,0.6201,Hi,,,,,,3,,,,,,,,low,2,0,2,0,1,,,,,,,,
294901,2022-09-27_24h12.56.297,vts_reward_expectancy,2022.2.4,MacIntel,60.0024001,Chrome,1440,900,,,,,0,955,,,,,,,,,,,,,,,,,W,174,star,0,0,,,,,,,,,,,,,,,,repeat,letter,NA,d,0.8205,Hi,,,,,,3,,,,,,,,low,3,0,3,0,1,,,,,,,,
294901,2022-09-27_24h12.56.297,vts_reward_expectancy,2022.2.4,MacIntel,60.0024001,Chrome,1440,900,,,,,0,955,,,,,,,,,,,,,,,,,U,160,star,-1,1,,,,,,,,,,,,,,,,switch,no_choice,NA,,,Hi,,,,,,3,,,,,,,,low,4,0,4,0,1,,,,,,,,
294901,2022-09-27_24h12.56.297,vts_reward_expectancy,2022.2.4,MacIntel,60.0024001,Chrome,1440,900,,,,,10,965,,,,,,,,,,,,,,,,,H,146,circle,1,0,,,,,,,,,,,,,,,,switch,number,numSwt,j,0.3062,Hi,,,,,,3,,,,,,,,low,5,0,5,0,1,,,,,,,,
294901,2022-09-27_24h12.56.297,vts_reward_expectancy,2022.2.4,MacIntel,60.0024001,Chrome,1440,900,,,,,0,965,,,,,,,,,,,,,,,,,D,181,star,0,0,,,,,,,,,,,,,,,,repeat,number,NA,j,0.8038,Hi,,,,,,3,,,,,,,,low,6,0,6,0,1,,,,,,,,
294901,2022-09-27_24h12.56.297,vts_reward_expectancy,2022.2.4,MacIntel,60.0024001,Chrome,1440,900,,,,,0,965,,,,,,,,,,,,,,,,,F,167,circle,0,1,,,,,,,,,,,,,,,,switch,letter,NA,f,0.0549,Hi,,,,,,3,,,,,,,,low,7,0,7,0,1,,,,,,,,
294901,2022-09-27_24h12.56.297,vts_reward_expectancy,2022.2.4,MacIntel,60.0024001,Chrome,1440,900,,,,,0,965,,,,,,,,,,,,,,,,,S,125,star,0,1,,,,,,,,,,,,,,,,repeat,letter,NA,d,0.9856,Hi,,,,,,3,,,,,,,,low,8,0,8,0,1,,,,,,,,
294901,2022-09-27_24h12.56.297,vts_reward_expectancy,2022.2.4,MacIntel,60.0024001,Chrome,1440,900,,,,,10,975,,,,,,,,,,,,,,,,,Y,132,circle,1,1,,,,,,,,,,,,,,,,switch,number,numSwt,j,0.8843,Hi,,,,,,3,,,,,,,,low,9,0,9,0,1,,,,,,,,
294901,2022-09-27_24h12.56.297,vts_reward_expectancy,2022.2.4,MacIntel,60.0024001,Chrome,1440,900,,,,,0,975,,,,,,,,,,,,,,,,,B,139,circle,1,0,,,,,,,,,,,,,,,,switch,letter,lettSwt,d,0.9883,Hi,,,,,,3,,,,,,,,low,10,0,10,0,1,,,,,,,,
294901,2022-09-27_24h12.56.297,vts_reward_expectancy,2022.2.4,MacIntel,60.0024001,Chrome,1440,900,,,,,0,975,,,,,,,,,,,,,,,,,W,174,star,0,0,,,,,,,,,,,,,,,,switch,number,NA,j,0.825,Hi,,,,,,3,,,,,,,,low,11,0,11,0,1,,,,,,,,
294901,2022-09-27_24h12.56.297,vts_reward_expectancy,2022.2.4,MacIntel,60.0024001,Chrome,1440,900,,,,,0,975,,,,,,,,,,,,,,,,,U,160,star,0,1,,,,,,,,,,,,,,,,switch,letter,NA,d,0.7735,Hi,,,,,,3,,,,,,,,low,12,0,12,0,1,,,,,,,,
294901,2022-09-27_24h12.56.297,vts_reward_expectancy,2022.2.4,MacIntel,60.0024001,Chrome,1440,900,,,,,0,975,,,,,,,,,,,,,,,,,H,146,circle,1,1,,,,,,,,,,,,,,,,repeat,letter,lettRpt,d,0.9024,Hi,,,,,,3,,,,,,,,low,13,0,13,0,1,,,,,,,,
294901,2022-09-27_24h12.56.297,vts_reward_expectancy,2022.2.4,MacIntel,60.0024001,Chrome,1440,900,,,,,10,985,,,,,,,,,,,,,,,,,D,181,star,1,0,,,,,,,,,,,,,,,,repeat,letter,lettRpt,d,0.7903,Lo,,,,,,3,,,,,,,,low,14,0,14,0,1,,,,,,,,
294901,2022-09-27_24h12.56.297,vts_reward_expectancy,2022.2.4,MacIntel,60.0024001,Chrome,1440,900,,,,,0,985,,,,,,,,,,,,,,,,,F,167,circle,0,0,,,,,,,,,,,,,,,,switch,number,NA,j,0.9127,Lo,,,,,,3,,,,,,,,low,15,0,15,0,1,,,,,,,,
294901,2022-09-27_24h12.56.297,vts_reward_expectancy,2022.2.4,MacIntel,60.0024001,Chrome,1440,900,,,,,10,995,,,,,,,,,,,,,,,,,S,125,circle,1,1,,,,,,,,,,,,,,,,repeat,number,numRpt,j,0.9288,Hi,,,,,,3,,,,,,,,low,16,0,16,0,1,,,,,,,,
294901,2022-09-27_24h12.56.297,vts_reward_expectancy,2022.2.4,MacIntel,60.0024001,Chrome,1440,900,,,,,0,995,,,,,,,,,,,,,,,,,Y,139,star,0,0,,,,,,,,,,,,,,,,repeat,number,NA,k,1.0541,Hi,,,,,,3,,,,,,,,low,17,0,17,0,1,,,,,,,,
294901,2022-09-27_24h12.56.297,vts_reward_expectancy,2022.2.4,MacIntel,60.0024001,Chrome,1440,900,,,,,1,996,,,,,,,,,,,,,,,,,B,174,star,1,1,,,,,,,,,,,,,,,,switch,letter,lettSwt,d,0.6222,Lo,,,,,,3,,,,,,,,low,18,0,18,0,1,,,,,,,,
294901,2022-09-27_24h12.56.297,vts_reward_expectancy,2022.2.4,MacIntel,60.0024001,Chrome,1440,900,,,,,0,996,,,,,,,,,,,,,,,,,H,132,circle,0,0,,,,,,,,,,,,,,,,switch,number,NA,k,0.5401,Lo,,,,,,3,,,,,,,,low,19,0,19,0,1,,,,,,,,
294901,2022-09-27_24h12.56.297,vts_reward_expectancy,2022.2.4,MacIntel,60.0024001,Chrome,1440,900,,,,,0,996,,,,,,,,,,,,,,,,,W,146,circle,1,1,,,,,,,,,,,,,,,,switch,letter,lettSwt,f,1.1386,Hi,,,,,,3,,,,,,,,low,20,0,20,0,1,,,,,,,,
294901,2022-09-27_24h12.56.297,vts_reward_expectancy,2022.2.4,MacIntel,60.0024001,Chrome,1440,900,,,,,10,1006,,,,,,,,,,,,,,,,,D,160,star,1,0,,,,,,,,,,,,,,,,repeat,letter,lettRpt,d,0.8554,Lo,,,,,,3,,,,,,,,low,21,0,21,0,1,,,,,,,,
294901,2022-09-27_24h12.56.297,vts_reward_expectancy,2022.2.4,MacIntel,60.0024001,Chrome,1440,900,,,,,0,1006,,,,,,,,,,,,,,,,,U,181,circle,1,0,,,,,,,,,,,,,,,,switch,number,numSwt,k,1.4237,Hi,,,,,,3,,,,,,,,low,22,0,22,0,1,,,,,,,,
294901,2022-09-27_24h12.56.297,vts_reward_expectancy,2022.2.4,MacIntel,60.0024001,Chrome,1440,900,,,,,1,1007,,,,,,,,,,,,,,,,,F,167,star,1,0,,,,,,,,,,,,,,,,switch,letter,lettSwt,d,2.1224,Lo,,,,,,3,,,,,,,,low,23,0,23,0,1,,,,,,,,
294901,2022-09-27_24h12.56.297,vts_reward_expectancy,2022.2.4,MacIntel,60.0024001,Chrome,1440,900,,,,,0,1007,,,,,,,,,,,,,,,,,W,174,circle,0,0,,,,,,,,,,,,,,,,switch,number,NA,j,1.055,Lo,,,,,,3,,,,,,,,low,24,0,24,0,1,,,,,,,,
294901,2022-09-27_24h12.56.297,vts_reward_expectancy,2022.2.4,MacIntel,60.0024001,Chrome,1440,900,,,,,1,1008,,,,,,,,,,,,,,,,,B,160,star,1,1,,,,,,,,,,,,,,,,switch,letter,lettSwt,d,0.9946,Lo,,,,,,3,,,,,,,,low,25,0,25,0,1,,,,,,,,
294901,2022-09-27_24h12.56.297,vts_reward_expectancy,2022.2.4,MacIntel,60.0024001,Chrome,1440,900,,,,,0,1008,,,,,,,,,,,,,,,,,S,139,star,0,0,,,,,,,,,,,,,,,,repeat,letter,NA,d,0.738,Lo,,,,,,3,,,,,,,,low,26,0,26,0,1,,,,,,,,
294901,2022-09-27_24h12.56.297,vts_reward_expectancy,2022.2.4,MacIntel,60.0024001,Chrome,1440,900,,,,,0,1008,,,,,,,,,,,,,,,,,H,146,circle,1,1,,,,,,,,,,,,,,,,switch,number,numSwt,j,1.0775,Hi,,,,,,3,,,,,,,,low,27,0,27,0,1,,,,,,,,
294901,2022-09-27_24h12.56.297,vts_reward_expectancy,2022.2.4,MacIntel,60.0024001,Chrome,1440,900,,,,,10,1018,,,,,,,,,,,,,,,,,Y,132,circle,1,0,,,,,,,,,,,,,,,,repeat,number,numRpt,j,0.2557,Hi,,,,,,3,,,,,,,,low,28,0,28,0,1,,,,,,,,
294901,2022-09-27_24h12.56.297,vts_reward_expectancy,2022.2.4,MacIntel,60.0024001,Chrome,1440,900,,,,,1,1019,,,,,,,,,,,,,,,,,F,181,star,1,0,,,,,,,,,,,,,,,,switch,letter,lettSwt,d,0.2441,Lo,,,,,,3,,,,,,,,low,29,0,29,0,1,,,,,,,,
294901,2022-09-27_24h12.56.297,vts_reward_expectancy,2022.2.4,MacIntel,60.0024001,Chrome,1440,900,,,,,10,1029,,,,,,,,,,,,,,,,,U,125,star,1,0,,,,,,,,,,,,,,,,switch,number,numSwt,j,0.5526,Lo,,,,,,3,,,,,,,,low,30,0,30,0,1,,,,,,,,
294901,2022-09-27_24h12.56.297,vts_reward_expectancy,2022.2.4,MacIntel,60.0024001,Chrome,1440,900,,,,,0,1029,,,,,,,,,,,,,,,,,D,167,circle,0,0,,,,,,,,,,,,,,,,repeat,number,NA,j,0.5576,Lo,,,,,,3,,,,,,,,low,31,0,31,0,1,,,,,,,,
294901,2022-09-27_24h12.56.297,vts_reward_expectancy,2022.2.4,MacIntel,60.0024001,Chrome,1440,900,,,,,1,1030,,,,,,,,,,,,,,,,,D,167,hexagon,1,1,,,,,,,,,,,,,,,,switch,letter,lettSwt,d,0.5193,Lo,,,,,,4,,,,,,space,1.2241,high,0,0,0,0,1,,,,,,,,
294901,2022-09-27_24h12.56.297,vts_reward_expectancy,2022.2.4,MacIntel,60.0024001,Chrome,1440,900,,,,,0,1030,,,,,,,,,,,,,,,,,H,160,triangle,0,0,,,,,,,,,,,,,,,,repeat,letter,NA,f,0.843,Lo,,,,,,4,,,,,,,,high,1,0,1,0,1,,,,,,,,
294901,2022-09-27_24h12.56.297,vts_reward_expectancy,2022.2.4,MacIntel,60.0024001,Chrome,1440,900,,,,,1,1031,,,,,,,,,,,,,,,,,B,125,hexagon,1,1,,,,,,,,,,,,,,,,switch,number,numSwt,j,0.6204,Lo,,,,,,4,,,,,,,,high,2,0,2,0,1,,,,,,,,
294901,2022-09-27_24h12.56.297,vts_reward_expectancy,2022.2.4,MacIntel,60.0024001,Chrome,1440,900,,,,,10,1041,,,,,,,,,,,,,,,,,U,132,triangle,1,0,,,,,,,,,,,,,,,,switch,letter,lettSwt,f,0.6259,Hi,,,,,,4,,,,,,,,high,3,0,3,0,1,,,,,,,,
294901,2022-09-27_24h12.56.297,vts_reward_expectancy,2022.2.4,MacIntel,60.0024001,Chrome,1440,900,,,,,1,1042,,,,,,,,,,,,,,,,,S,174,hexagon,1,0,,,,,,,,,,,,,,,,repeat,letter,lettRpt,f,0.6575,Lo,,,,,,4,,,,,,,,high,4,0,4,0,1,,,,,,,,
294901,2022-09-27_24h12.56.297,vts_reward_expectancy,2022.2.4,MacIntel,60.0024001,Chrome,1440,900,,,,,10,1052,,,,,,,,,,,,,,,,,W,146,triangle,1,0,,,,,,,,,,,,,,,,repeat,letter,lettRpt,f,0.6754,Hi,,,,,,4,,,,,,,,high,5,0,5,0,1,,,,,,,,
294901,2022-09-27_24h12.56.297,vts_reward_expectancy,2022.2.4,MacIntel,60.0024001,Chrome,1440,900,,,,,0,1052,,,,,,,,,,,,,,,,,F,139,hexagon,0,0,,,,,,,,,,,,,,,,switch,number,NA,k,1.1577,Hi,,,,,,4,,,,,,,,high,6,0,6,0,1,,,,,,,,
294901,2022-09-27_24h12.56.297,vts_reward_expectancy,2022.2.4,MacIntel,60.0024001,Chrome,1440,900,,,,,0,1052,,,,,,,,,,,,,,,,,Y,181,triangle,1,1,,,,,,,,,,,,,,,,switch,letter,lettSwt,f,0.91,Hi,,,,,,4,,,,,,,,high,7,0,7,0,1,,,,,,,,
294901,2022-09-27_24h12.56.297,vts_reward_expectancy,2022.2.4,MacIntel,60.0024001,Chrome,1440,900,,,,,10,1062,,,,,,,,,,,,,,,,,D,167,hexagon,1,0,,,,,,,,,,,,,,,,repeat,letter,lettRpt,d,0.77,Lo,,,,,,4,,,,,,,,high,8,0,8,0,1,,,,,,,,
294901,2022-09-27_24h12.56.297,vts_reward_expectancy,2022.2.4,MacIntel,60.0024001,Chrome,1440,900,,,,,0,1062,,,,,,,,,,,,,,,,,H,160,triangle,1,0,,,,,,,,,,,,,,,,repeat,letter,lettRpt,d,1.5233,Hi,,,,,,4,,,,,,,,high,9,0,9,0,1,,,,,,,,
294901,2022-09-27_24h12.56.297,vts_reward_expectancy,2022.2.4,MacIntel,60.0024001,Chrome,1440,900,,,,,1,1063,,,,,,,,,,,,,,,,,B,125,hexagon,1,0,,,,,,,,,,,,,,,,repeat,letter,lettRpt,d,0.6725,Lo,,,,,,4,,,,,,,,high,10,0,10,0,1,,,,,,,,
294901,2022-09-27_24h12.56.297,vts_reward_expectancy,2022.2.4,MacIntel,60.0024001,Chrome,1440,900,,,,,0,1063,,,,,,,,,,,,,,,,,U,132,triangle,0,0,,,,,,,,,,,,,,,,switch,number,NA,k,1.1641,Lo,,,,,,4,,,,,,,,high,11,0,11,0,1,,,,,,,,
294901,2022-09-27_24h12.56.297,vts_reward_expectancy,2022.2.4,MacIntel,60.0024001,Chrome,1440,900,,,,,0,1063,,,,,,,,,,,,,,,,,S,174,triangle,0,1,,,,,,,,,,,,,,,,switch,letter,NA,d,0.7435,Lo,,,,,,4,,,,,,,,high,12,0,12,0,1,,,,,,,,
294901,2022-09-27_24h12.56.297,vts_reward_expectancy,2022.2.4,MacIntel,60.0024001,Chrome,1440,900,,,,,1,1064,,,,,,,,,,,,,,,,,W,146,hexagon,1,1,,,,,,,,,,,,,,,,switch,number,numSwt,j,0.8062,Lo,,,,,,4,,,,,,,,high,13,0,13,0,1,,,,,,,,
294901,2022-09-27_24h12.56.297,vts_reward_expectancy,2022.2.4,MacIntel,60.0024001,Chrome,1440,900,,,,,1,1065,,,,,,,,,,,,,,,,,F,139,hexagon,1,0,,,,,,,,,,,,,,,,switch,letter,lettSwt,d,0.659,Lo,,,,,,4,,,,,,,,high,14,0,14,0,1,,,,,,,,
294901,2022-09-27_24h12.56.297,vts_reward_expectancy,2022.2.4,MacIntel,60.0024001,Chrome,1440,900,,,,,0,1065,,,,,,,,,,,,,,,,,Y,181,triangle,1,0,,,,,,,,,,,,,,,,repeat,letter,lettRpt,f,2.1908,Hi,,,,,,4,,,,,,,,high,15,0,15,0,1,,,,,,,,
294901,2022-09-27_24h12.56.297,vts_reward_expectancy,2022.2.4,MacIntel,60.0024001,Chrome,1440,900,,,,,0,1065,,,,,,,,,,,,,,,,,H,174,hexagon,0,0,,,,,,,,,,,,,,,,switch,number,NA,j,0.342,Hi,,,,,,4,,,,,,,,high,16,0,16,0,1,,,,,,,,
294901,2022-09-27_24h12.56.297,vts_reward_expectancy,2022.2.4,MacIntel,60.0024001,Chrome,1440,900,,,,,0,1065,,,,,,,,,,,,,,,,,U,125,triangle,0,1,,,,,,,,,,,,,,,,switch,letter,NA,d,0.5853,Hi,,,,,,4,,,,,,,,high,17,0,17,0,1,,,,,,,,
294901,2022-09-27_24h12.56.297,vts_reward_expectancy,2022.2.4,MacIntel,60.0024001,Chrome,1440,900,,,,,1,1066,,,,,,,,,,,,,,,,,F,146,hexagon,1,1,,,,,,,,,,,,,,,,repeat,letter,lettRpt,d,0.5859,Lo,,,,,,4,,,,,,,,high,18,0,18,0,1,,,,,,,,
294901,2022-09-27_24h12.56.297,vts_reward_expectancy,2022.2.4,MacIntel,60.0024001,Chrome,1440,900,,,,,0,1066,,,,,,,,,,,,,,,,,W,132,triangle,0,0,,,,,,,,,,,,,,,,repeat,letter,NA,d,0.8029,Lo,,,,,,4,,,,,,,,high,19,0,19,0,1,,,,,,,,
294901,2022-09-27_24h12.56.297,vts_reward_expectancy,2022.2.4,MacIntel,60.0024001,Chrome,1440,900,,,,,0,1066,,,,,,,,,,,,,,,,,S,160,triangle,1,1,,,,,,,,,,,,,,,,repeat,letter,lettRpt,f,0.9035,Hi,,,,,,4,,,,,,,,high,20,0,20,0,1,,,,,,,,
294901,2022-09-27_24h12.56.297,vts_reward_expectancy,2022.2.4,MacIntel,60.0024001,Chrome,1440,900,,,,,10,1076,,,,,,,,,,,,,,,,,D,167,hexagon,1,0,,,,,,,,,,,,,,,,repeat,letter,lettRpt,d,1.372,Lo,,,,,,4,,,,,,,,high,21,0,21,0,1,,,,,,,,
294901,2022-09-27_24h12.56.297,vts_reward_expectancy,2022.2.4,MacIntel,60.0024001,Chrome,1440,900,,,,,1,1077,,,,,,,,,,,,,,,,,B,181,hexagon,1,0,,,,,,,,,,,,,,,,repeat,letter,lettRpt,d,0.9693,Lo,,,,,,4,,,,,,,,high,22,0,22,0,1,,,,,,,,
294901,2022-09-27_24h12.56.297,vts_reward_expectancy,2022.2.4,MacIntel,60.0024001,Chrome,1440,900,,,,,0,1077,,,,,,,,,,,,,,,,,Y,139,triangle,1,0,,,,,,,,,,,,,,,,repeat,letter,lettRpt,f,1.2066,Hi,,,,,,4,,,,,,,,high,23,0,23,0,1,,,,,,,,
294901,2022-09-27_24h12.56.297,vts_reward_expectancy,2022.2.4,MacIntel,60.0024001,Chrome,1440,900,,,,,1,1078,,,,,,,,,,,,,,,,,Y,167,hexagon,1,0,,,,,,,,,,,,,,,,repeat,letter,lettRpt,f,1.1078,Lo,,,,,,4,,,,,,,,high,24,0,24,0,1,,,,,,,,
294901,2022-09-27_24h12.56.297,vts_reward_expectancy,2022.2.4,MacIntel,60.0024001,Chrome,1440,900,,,,,0,1078,,,,,,,,,,,,,,,,,S,174,triangle,0,0,,,,,,,,,,,,,,,,repeat,letter,NA,d,0.7922,Lo,,,,,,4,,,,,,,,high,25,0,25,0,1,,,,,,,,
294901,2022-09-27_24h12.56.297,vts_reward_expectancy,2022.2.4,MacIntel,60.0024001,Chrome,1440,900,,,,,1,1079,,,,,,,,,,,,,,,,,F,181,hexagon,1,1,,,,,,,,,,,,,,,,repeat,letter,lettRpt,d,0.9409,Lo,,,,,,4,,,,,,,,high,26,0,26,0,1,,,,,,,,
294901,2022-09-27_24h12.56.297,vts_reward_expectancy,2022.2.4,MacIntel,60.0024001,Chrome,1440,900,,,,,0,1079,,,,,,,,,,,,,,,,,U,132,triangle,0,0,,,,,,,,,,,,,,,,repeat,letter,NA,d,0.8073,Lo,,,,,,4,,,,,,,,high,27,0,27,0,1,,,,,,,,
294901,2022-09-27_24h12.56.297,vts_reward_expectancy,2022.2.4,MacIntel,60.0024001,Chrome,1440,900,,,,,0,1079,,,,,,,,,,,,,,,,,H,125,triangle,1,1,,,,,,,,,,,,,,,,switch,number,numSwt,j,1.2062,Hi,,,,,,4,,,,,,,,high,28,0,28,0,1,,,,,,,,
294901,2022-09-27_24h12.56.297,vts_reward_expectancy,2022.2.4,MacIntel,60.0024001,Chrome,1440,900,,,,,1,1080,,,,,,,,,,,,,,,,,W,160,hexagon,1,0,,,,,,,,,,,,,,,,repeat,number,numRpt,k,0.3269,Lo,,,,,,4,,,,,,,,high,29,0,29,0,1,,,,,,,,
294901,2022-09-27_24h12.56.297,vts_reward_expectancy,2022.2.4,MacIntel,60.0024001,Chrome,1440,900,,,,,10,1090,,,,,,,,,,,,,,,,,B,139,triangle,1,0,,,,,,,,,,,,,,,,repeat,number,numRpt,j,0.6071,Hi,,,,,,4,,,,,,,,high,30,0,30,0,1,,,,,,,,
294901,2022-09-27_24h12.56.297,vts_reward_expectancy,2022.2.4,MacIntel,60.0024001,Chrome,1440,900,,,,,1,1091,,,,,,,,,,,,,,,,,D,146,hexagon,1,0,,,,,,,,,,,,,,,,switch,letter,lettSwt,d,0.6853,Lo,,,,,,4,,,,,,,,high,31,0,31,0,1,,,,,,,,
294901,2022-09-27_24h12.56.297,vts_reward_expectancy,2022.2.4,MacIntel,60.0024001,Chrome,1440,900,,,,,0,1091,,,,,,,,,,,,,,,,,W,181,hexagon,0,0,,,,,,,,,,,,,,,,switch,number,NA,j,0.8555,Lo,,,,,,5,,,,,,space,0.9377,high,0,0,0,0,1,,,,,,,,
294901,2022-09-27_24h12.56.297,vts_reward_expectancy,2022.2.4,MacIntel,60.0024001,Chrome,1440,900,,,,,10,1101,,,,,,,,,,,,,,,,,S,146,triangle,1,1,,,,,,,,,,,,,,,,switch,letter,lettSwt,f,0.5978,Hi,,,,,,5,,,,,,,,high,1,0,1,0,1,,,,,,,,
294901,2022-09-27_24h12.56.297,vts_reward_expectancy,2022.2.4,MacIntel,60.0024001,Chrome,1440,900,,,,,10,1111,,,,,,,,,,,,,,,,,Y,160,hexagon,1,0,,,,,,,,,,,,,,,,repeat,letter,lettRpt,f,0.6208,Lo,,,,,,5,,,,,,,,high,2,0,2,0,1,,,,,,,,
294901,2022-09-27_24h12.56.297,vts_reward_expectancy,2022.2.4,MacIntel,60.0024001,Chrome,1440,900,,,,,10,1121,,,,,,,,,,,,,,,,,H,139,triangle,1,0,,,,,,,,,,,,,,,,repeat,letter,lettRpt,d,0.5078,Hi,,,,,,5,,,,,,,,high,3,0,3,0,1,,,,,,,,
294901,2022-09-27_24h12.56.297,vts_reward_expectancy,2022.2.4,MacIntel,60.0024001,Chrome,1440,900,,,,,10,1131,,,,,,,,,,,,,,,,,B,125,triangle,1,0,,,,,,,,,,,,,,,,repeat,letter,lettRpt,d,0.5603,Hi,,,,,,5,,,,,,,,high,4,0,4,0,1,,,,,,,,
294901,2022-09-27_24h12.56.297,vts_reward_expectancy,2022.2.4,MacIntel,60.0024001,Chrome,1440,900,,,,,1,1132,,,,,,,,,,,,,,,,,D,174,hexagon,1,0,,,,,,,,,,,,,,,,switch,number,numSwt,k,1.4476,Lo,,,,,,5,,,,,,,,high,5,0,5,0,1,,,,,,,,
294901,2022-09-27_24h12.56.297,vts_reward_expectancy,2022.2.4,MacIntel,60.0024001,Chrome,1440,900,,,,,0,1132,,,,,,,,,,,,,,,,,U,132,triangle,1,0,,,,,,,,,,,,,,,,repeat,number,numRpt,j,1.0874,Hi,,,,,,5,,,,,,,,high,6,0,6,0,1,,,,,,,,
294901,2022-09-27_24h12.56.297,vts_reward_expectancy,2022.2.4,MacIntel,60.0024001,Chrome,1440,900,,,,,0,1132,,,,,,,,,,,,,,,,,F,167,hexagon,0,0,,,,,,,,,,,,,,,,switch,letter,NA,f,1.5273,Hi,,,,,,5,,,,,,,,high,7,0,7,0,1,,,,,,,,
294901,2022-09-27_24h12.56.297,vts_reward_expectancy,2022.2.4,MacIntel,60.0024001,Chrome,1440,900,,,,,10,1142,,,,,,,,,,,,,,,,,W,181,triangle,1,1,,,,,,,,,,,,,,,,repeat,letter,lettRpt,f,0.6259,Hi,,,,,,5,,,,,,,,high,8,0,8,0,1,,,,,,,,
294901,2022-09-27_24h12.56.297,vts_reward_expectancy,2022.2.4,MacIntel,60.0024001,Chrome,1440,900,,,,,1,1143,,,,,,,,,,,,,,,,,S,146,hexagon,1,0,,,,,,,,,,,,,,,,switch,number,numSwt,j,1.3976,Lo,,,,,,5,,,,,,,,high,9,0,9,0,1,,,,,,,,
294901,2022-09-27_24h12.56.297,vts_reward_expectancy,2022.2.4,MacIntel,60.0024001,Chrome,1440,900,,,,,0,1143,,,,,,,,,,,,,,,,,Y,160,triangle,1,0,,,,,,,,,,,,,,,,switch,letter,lettSwt,f,0.6869,Hi,,,,,,5,,,,,,,,high,10,0,10,0,1,,,,,,,,
294901,2022-09-27_24h12.56.297,vts_reward_expectancy,2022.2.4,MacIntel,60.0024001,Chrome,1440,900,,,,,1,1144,,,,,,,,,,,,,,,,,H,139,hexagon,1,0,,,,,,,,,,,,,,,,repeat,letter,lettRpt,d,1.0642,Lo,,,,,,5,,,,,,,,high,11,0,11,0,1,,,,,,,,
294901,2022-09-27_24h12.56.297,vts_reward_expectancy,2022.2.4,MacIntel,60.0024001,Chrome,1440,900,,,,,10,1154,,,,,,,,,,,,,,,,,B,125,triangle,1,0,,,,,,,,,,,,,,,,repeat,letter,lettRpt,d,0.509,Hi,,,,,,5,,,,,,,,high,12,0,12,0,1,,,,,,,,
294901,2022-09-27_24h12.56.297,vts_reward_expectancy,2022.2.4,MacIntel,60.0024001,Chrome,1440,900,,,,,1,1155,,,,,,,,,,,,,,,,,D,174,hexagon,1,0,,,,,,,,,,,,,,,,repeat,letter,lettRpt,d,0.6373,Lo,,,,,,5,,,,,,,,high,13,0,13,0,1,,,,,,,,
294901,2022-09-27_24h12.56.297,vts_reward_expectancy,2022.2.4,MacIntel,60.0024001,Chrome,1440,900,,,,,1,1156,,,,,,,,,,,,,,,,,U,132,hexagon,1,0,,,,,,,,,,,,,,,,repeat,letter,lettRpt,f,0.7077,Lo,,,,,,5,,,,,,,,high,14,0,14,0,1,,,,,,,,
294901,2022-09-27_24h12.56.297,vts_reward_expectancy,2022.2.4,MacIntel,60.0024001,Chrome,1440,900,,,,,10,1166,,,,,,,,,,,,,,,,,F,167,triangle,1,0,,,,,,,,,,,,,,,,repeat,letter,lettRpt,d,0.6337,Hi,,,,,,5,,,,,,,,high,15,0,15,0,1,,,,,,,,
294901,2022-09-27_24h12.56.297,vts_reward_expectancy,2022.2.4,MacIntel,60.0024001,Chrome,1440,900,,,,,1,1167,,,,,,,,,,,,,,,,,D,125,hexagon,1,0,,,,,,,,,,,,,,,,repeat,letter,lettRpt,d,0.5873,Lo,,,,,,5,,,,,,,,high,16,0,16,0,1,,,,,,,,
294901,2022-09-27_24h12.56.297,vts_reward_expectancy,2022.2.4,MacIntel,60.0024001,Chrome,1440,900,,,,,10,1177,,,,,,,,,,,,,,,,,Y,146,triangle,1,0,,,,,,,,,,,,,,,,repeat,letter,lettRpt,f,0.7058,Hi,,,,,,5,,,,,,,,high,17,0,17,0,1,,,,,,,,
294901,2022-09-27_24h12.56.297,vts_reward_expectancy,2022.2.4,MacIntel,60.0024001,Chrome,1440,900,,,,,1,1178,,,,,,,,,,,,,,,,,H,139,hexagon,1,0,,,,,,,,,,,,,,,,repeat,letter,lettRpt,d,0.5978,Lo,,,,,,5,,,,,,,,high,18,0,18,0,1,,,,,,,,
294901,2022-09-27_24h12.56.297,vts_reward_expectancy,2022.2.4,MacIntel,60.0024001,Chrome,1440,900,,,,,1,1179,,,,,,,,,,,,,,,,,B,167,triangle,1,0,,,,,,,,,,,,,,,,repeat,letter,lettRpt,d,0.7399,Hi,,,,,,5,,,,,,,,high,19,0,19,0,1,,,,,,,,
294901,2022-09-27_24h12.56.297,vts_reward_expectancy,2022.2.4,MacIntel,60.0024001,Chrome,1440,900,,,,,1,1180,,,,,,,,,,,,,,,,,W,160,hexagon,1,0,,,,,,,,,,,,,,,,repeat,letter,lettRpt,f,0.6385,Lo,,,,,,5,,,,,,,,high,20,0,20,0,1,,,,,,,,
294901,2022-09-27_24h12.56.297,vts_reward_expectancy,2022.2.4,MacIntel,60.0024001,Chrome,1440,900,,,,,10,1190,,,,,,,,,,,,,,,,,U,132,triangle,1,0,,,,,,,,,,,,,,,,repeat,letter,lettRpt,f,0.5467,Hi,,,,,,5,,,,,,,,high,21,0,21,0,1,,,,,,,,
294901,2022-09-27_24h12.56.297,vts_reward_expectancy,2022.2.4,MacIntel,60.0024001,Chrome,1440,900,,,,,1,1191,,,,,,,,,,,,,,,,,F,181,triangle,1,0,,,,,,,,,,,,,,,,repeat,letter,lettRpt,d,0.6417,Hi,,,,,,5,,,,,,,,high,22,0,22,0,1,,,,,,,,
294901,2022-09-27_24h12.56.297,vts_reward_expectancy,2022.2.4,MacIntel,60.0024001,Chrome,1440,900,,,,,0,1191,,,,,,,,,,,,,,,,,S,174,hexagon,0,0,,,,,,,,,,,,,,,,switch,number,NA,j,0.5907,Hi,,,,,,5,,,,,,,,high,23,0,23,0,1,,,,,,,,
294901,2022-09-27_24h12.56.297,vts_reward_expectancy,2022.2.4,MacIntel,60.0024001,Chrome,1440,900,,,,,1,1192,,,,,,,,,,,,,,,,,S,174,hexagon,1,1,,,,,,,,,,,,,,,,switch,letter,lettSwt,f,0.8079,Lo,,,,,,5,,,,,,,,high,24,0,24,0,1,,,,,,,,
294901,2022-09-27_24h12.56.297,vts_reward_expectancy,2022.2.4,MacIntel,60.0024001,Chrome,1440,900,,,,,10,1202,,,,,,,,,,,,,,,,,D,146,triangle,1,0,,,,,,,,,,,,,,,,repeat,letter,lettRpt,d,0.7369,Hi,,,,,,5,,,,,,,,high,25,0,25,0,1,,,,,,,,
294901,2022-09-27_24h12.56.297,vts_reward_expectancy,2022.2.4,MacIntel,60.0024001,Chrome,1440,900,,,,,10,1212,,,,,,,,,,,,,,,,,Y,139,triangle,1,0,,,,,,,,,,,,,,,,repeat,letter,lettRpt,f,0.5395,Hi,,,,,,5,,,,,,,,high,26,0,26,0,1,,,,,,,,
294901,2022-09-27_24h12.56.297,vts_reward_expectancy,2022.2.4,MacIntel,60.0024001,Chrome,1440,900,,,,,1,1213,,,,,,,,,,,,,,,,,U,167,hexagon,1,0,,,,,,,,,,,,,,,,repeat,letter,lettRpt,f,0.6558,Lo,,,,,,5,,,,,,,,high,27,0,27,0,1,,,,,,,,
294901,2022-09-27_24h12.56.297,vts_reward_expectancy,2022.2.4,MacIntel,60.0024001,Chrome,1440,900,,,,,0,1213,,,,,,,,,,,,,,,,,H,132,triangle,0,0,,,,,,,,,,,,,,,,repeat,letter,NA,f,2.0442,Lo,,,,,,5,,,,,,,,high,28,0,28,0,1,,,,,,,,
294901,2022-09-27_24h12.56.297,vts_reward_expectancy,2022.2.4,MacIntel,60.0024001,Chrome,1440,900,,,,,0,1213,,,,,,,,,,,,,,,,,W,125,hexagon,0,1,,,,,,,,,,,,,,,,repeat,letter,NA,d,1.419,Lo,,,,,,5,,,,,,,,high,29,0,29,0,1,,,,,,,,
294901,2022-09-27_24h12.56.297,vts_reward_expectancy,2022.2.4,MacIntel,60.0024001,Chrome,1440,900,,,,,10,1223,,,,,,,,,,,,,,,,,F,160,hexagon,1,1,,,,,,,,,,,,,,,,repeat,letter,lettRpt,d,0.8053,Lo,,,,,,5,,,,,,,,high,30,0,30,0,1,,,,,,,,
294901,2022-09-27_24h12.56.297,vts_reward_expectancy,2022.2.4,MacIntel,60.0024001,Chrome,1440,900,,,,,0,1223,,,,,,,,,,,,,,,,,B,181,triangle,1,0,,,,,,,,,,,,,,,,repeat,letter,lettRpt,d,0.7703,Hi,,,,,,5,,,,,,,,high,31,0,31,0,1,,,,,,,,
294901,2022-09-27_24h12.56.297,vts_reward_expectancy,2022.2.4,MacIntel,60.0024001,Chrome,1440,900,,,,,,,,,,,,,,,,,,,,,,,,,,,,,,,,,,,,,,,,,,,,,,,,,,,,,,6,,,,,,,,,,,,,,look at shapes and numbers,2,,3,1,,1440,900
