participant,date,expName,psychopyVersion,OS,frameRate,browser,xResolution,yResolution,key_resp.keys,key_resp.rt,training_resp.keys,training_resp.rt,points_trial,points_cumul,trainBlock,training.thisRepN,training.thisTrialN,training.thisN,training.thisIndex,training.ran,LTriangleOpac,LCircleOpac,LHexagonOpac,LStarOpac,RTriangleOpac,RCircleOpac,RHexagonOpac,RStarOpac,LShape_ID,RShape_ID,curr_topStim,curr_bottStim,curr_shape,acc,E1,target_resp_prac1.keys,target_resp_prac1.rt,pracBlock,task1_prac_trials.thisRepN,task1_prac_trials.thisTrialN,task1_prac_trials.thisN,task1_prac_trials.thisIndex,task1_prac_trials.ran,target_resp_prac2.keys,target_resp_prac2.rt,task2_praac_trials.thisRepN,task2_praac_trials.thisTrialN,task2_praac_trials.thisN,task2_praac_trials.thisIndex,task2_praac_trials.ran,alt,task,condition,target_resp.keys,target_resp.rt,rewCond,vts_practice_trials.thisRepN,vts_practice_trials.thisTrialN,vts_practice_trials.thisN,vts_practice_trials.thisIndex,vts_practice_trials.ran,blockNum,trials_norew.thisRepN,trials_norew.thisTrialN,trials_norew.thisN,trials_norew.thisIndex,trials_norew.ran,key_resp_2.keys,key_resp_2.rt,rewExpect,trials_rew.thisRepN,trials_rew.thisTrialN,trials_rew.thisN,trials_rew.thisIndex,trials_rew.ran,Q1,Q2,Q2_text,Q3,Q4,Q5_text,Q5,xRes,yRes
296608,2022-10-04_16h35.33.945,vts_reward_expectancy,2022.2.4,MacIntel,59.99880002,Chrome,1440,900,,,,,,,,,,,,,,,,,,,,,,,,,,,,,,,,,,,,,,,,,,,,,,,,,,,,,,,,,,,,,,,,,,,,,,,,,,,,
296608,2022-10-04_16h35.33.945,vts_reward_expectancy,2022.2.4,MacIntel,59.99880002,Chrome,1440,900,space,24.8526,,,,,,,,,,,,,,,,,,,,,,,,,,,,,,,,,,,,,,,,,,,,,,,,,,,,,,,,,,,,,,,,,,,,,,,,,,
296608,2022-10-04_16h35.33.945,vts_reward_expectancy,2022.2.4,MacIntel,59.99880002,Chrome,1440,900,,,,,,,,,,,,,,,,,,,,,,,,,,,,,,,,,,,,,,,,,,,,,,,,,,,,,,,,,,,,,,,,,,,,,,,,,,,,
296608,2022-10-04_16h35.33.945,vts_reward_expectancy,2022.2.4,MacIntel,59.99880002,Chrome,1440,900,,,l,2.4117,1,1,0,0,0,0,1,1,1,0,0,0,0,0,1,0,triangle,hexagon,,,,,,,,,,,,,,,,,,,,,,,,,,,,,,,,,,,,,,,,,,,,,,,,,,,,,,
296608,2022-10-04_16h35.33.945,vts_reward_expectancy,2022.2.4,MacIntel,59.99880002,Chrome,1440,900,,,l,3.0654,10,11,0,0,1,1,7,1,0,0,1,0,0,1,0,0,hexagon,circle,,,,,,,,,,,,,,,,,,,,,,,,,,,,,,,,,,,,,,,,,,,,,,,,,,,,,,
296608,2022-10-04_16h35.33.945,vts_reward_expectancy,2022.2.4,MacIntel,59.99880002,Chrome,1440,900,,,a,2.6669,1,12,0,0,2,2,6,1,0,0,1,0,1,0,0,0,hexagon,triangle,,,,,,,,,,,,,,,,,,,,,,,,,,,,,,,,,,,,,,,,,,,,,,,,,,,,,,
296608,2022-10-04_16h35.33.945,vts_reward_expectancy,2022.2.4,MacIntel,59.99880002,Chrome,1440,900,,,a,3.2675,1,13,0,0,3,3,2,1,1,0,0,0,0,0,0,1,triangle,star,,,,,,,,,,,,,,,,,,,,,,,,,,,,,,,,,,,,,,,,,,,,,,,,,,,,,,
296608,2022-10-04_16h35.33.945,vts_reward_expectancy,2022.2.4,MacIntel,59.99880002,Chrome,1440,900,,,l,4.2152,1,14,0,0,4,4,11,1,0,0,0,1,0,0,1,0,star,hexagon,,,,,,,,,,,,,,,,,,,,,,,,,,,,,,,,,,,,,,,,,,,,,,,,,,,,,,
296608,2022-10-04_16h35.33.945,vts_reward_expectancy,2022.2.4,MacIntel,59.99880002,Chrome,1440,900,,,l,5.7998,10,24,0,0,5,5,10,1,0,0,0,1,0,1,0,0,star ,circle,,,,,,,,,,,,,,,,,,,,,,,,,,,,,,,,,,,,,,,,,,,,,,,,,,,,,,
296608,2022-10-04_16h35.33.945,vts_reward_expectancy,2022.2.4,MacIntel,59.99880002,Chrome,1440,900,,,a,2.2993,10,34,0,0,6,6,4,1,0,1,0,0,0,0,1,0,circle,hexagon,,,,,,,,,,,,,,,,,,,,,,,,,,,,,,,,,,,,,,,,,,,,,,,,,,,,,,
296608,2022-10-04_16h35.33.945,vts_reward_expectancy,2022.2.4,MacIntel,59.99880002,Chrome,1440,900,,,l,8.2995,10,44,0,0,7,7,9,1,0,0,0,1,1,0,0,0,star,triangle,,,,,,,,,,,,,,,,,,,,,,,,,,,,,,,,,,,,,,,,,,,,,,,,,,,,,,
296608,2022-10-04_16h35.33.945,vts_reward_expectancy,2022.2.4,MacIntel,59.99880002,Chrome,1440,900,,,l,4.0001,10,54,0,0,8,8,0,1,1,0,0,0,0,1,0,0,triangle,circle,,,,,,,,,,,,,,,,,,,,,,,,,,,,,,,,,,,,,,,,,,,,,,,,,,,,,,
296608,2022-10-04_16h35.33.945,vts_reward_expectancy,2022.2.4,MacIntel,59.99880002,Chrome,1440,900,,,a,1.3863,10,64,0,0,9,9,5,1,0,1,0,0,0,0,0,1,circle,star,,,,,,,,,,,,,,,,,,,,,,,,,,,,,,,,,,,,,,,,,,,,,,,,,,,,,,
296608,2022-10-04_16h35.33.945,vts_reward_expectancy,2022.2.4,MacIntel,59.99880002,Chrome,1440,900,,,l,3.4001,1,65,0,0,10,10,3,1,0,1,0,0,1,0,0,0,circle,triangle,,,,,,,,,,,,,,,,,,,,,,,,,,,,,,,,,,,,,,,,,,,,,,,,,,,,,,
296608,2022-10-04_16h35.33.945,vts_reward_expectancy,2022.2.4,MacIntel,59.99880002,Chrome,1440,900,,,l,1.7329,1,66,0,0,11,11,8,1,0,0,1,0,0,0,0,1,hexagon,star,,,,,,,,,,,,,,,,,,,,,,,,,,,,,,,,,,,,,,,,,,,,,,,,,,,,,,
296608,2022-10-04_16h35.33.945,vts_reward_expectancy,2022.2.4,MacIntel,59.99880002,Chrome,1440,900,,,a,1.1317,10,76,0,1,0,12,3,1,0,1,0,0,1,0,0,0,circle,triangle,,,,,,,,,,,,,,,,,,,,,,,,,,,,,,,,,,,,,,,,,,,,,,,,,,,,,,
296608,2022-10-04_16h35.33.945,vts_reward_expectancy,2022.2.4,MacIntel,59.99880002,Chrome,1440,900,,,a,1.0544,1,77,0,1,1,13,2,1,1,0,0,0,0,0,0,1,triangle,star,,,,,,,,,,,,,,,,,,,,,,,,,,,,,,,,,,,,,,,,,,,,,,,,,,,,,,
296608,2022-10-04_16h35.33.945,vts_reward_expectancy,2022.2.4,MacIntel,59.99880002,Chrome,1440,900,,,l,1.7001,10,87,0,1,2,14,10,1,0,0,0,1,0,1,0,0,star ,circle,,,,,,,,,,,,,,,,,,,,,,,,,,,,,,,,,,,,,,,,,,,,,,,,,,,,,,
296608,2022-10-04_16h35.33.945,vts_reward_expectancy,2022.2.4,MacIntel,59.99880002,Chrome,1440,900,,,l,1.4833,10,97,0,1,3,15,9,1,0,0,0,1,1,0,0,0,star,triangle,,,,,,,,,,,,,,,,,,,,,,,,,,,,,,,,,,,,,,,,,,,,,,,,,,,,,,
296608,2022-10-04_16h35.33.945,vts_reward_expectancy,2022.2.4,MacIntel,59.99880002,Chrome,1440,900,,,l,1.2396,10,107,0,1,4,16,7,1,0,0,1,0,0,1,0,0,hexagon,circle,,,,,,,,,,,,,,,,,,,,,,,,,,,,,,,,,,,,,,,,,,,,,,,,,,,,,,
296608,2022-10-04_16h35.33.945,vts_reward_expectancy,2022.2.4,MacIntel,59.99880002,Chrome,1440,900,,,l,1.9187,10,117,0,1,5,17,0,1,1,0,0,0,0,1,0,0,triangle,circle,,,,,,,,,,,,,,,,,,,,,,,,,,,,,,,,,,,,,,,,,,,,,,,,,,,,,,
296608,2022-10-04_16h35.33.945,vts_reward_expectancy,2022.2.4,MacIntel,59.99880002,Chrome,1440,900,,,a,1.0655,10,127,0,1,6,18,1,1,1,0,0,0,0,0,1,0,triangle,hexagon,,,,,,,,,,,,,,,,,,,,,,,,,,,,,,,,,,,,,,,,,,,,,,,,,,,,,,
296608,2022-10-04_16h35.33.945,vts_reward_expectancy,2022.2.4,MacIntel,59.99880002,Chrome,1440,900,,,l,2.1167,10,137,0,1,7,19,8,1,0,0,1,0,0,0,0,1,hexagon,star,,,,,,,,,,,,,,,,,,,,,,,,,,,,,,,,,,,,,,,,,,,,,,,,,,,,,,
296608,2022-10-04_16h35.33.945,vts_reward_expectancy,2022.2.4,MacIntel,59.99880002,Chrome,1440,900,,,a,0.9684,1,138,0,1,8,20,4,1,0,1,0,0,0,0,1,0,circle,hexagon,,,,,,,,,,,,,,,,,,,,,,,,,,,,,,,,,,,,,,,,,,,,,,,,,,,,,,
296608,2022-10-04_16h35.33.945,vts_reward_expectancy,2022.2.4,MacIntel,59.99880002,Chrome,1440,900,,,l,1.3407,1,139,0,1,9,21,6,1,0,0,1,0,1,0,0,0,hexagon,triangle,,,,,,,,,,,,,,,,,,,,,,,,,,,,,,,,,,,,,,,,,,,,,,,,,,,,,,
296608,2022-10-04_16h35.33.945,vts_reward_expectancy,2022.2.4,MacIntel,59.99880002,Chrome,1440,900,,,l,0.7025,10,149,0,1,10,22,5,1,0,1,0,0,0,0,0,1,circle,star,,,,,,,,,,,,,,,,,,,,,,,,,,,,,,,,,,,,,,,,,,,,,,,,,,,,,,
296608,2022-10-04_16h35.33.945,vts_reward_expectancy,2022.2.4,MacIntel,59.99880002,Chrome,1440,900,,,a,1.2825,1,150,0,1,11,23,11,1,0,0,0,1,0,0,1,0,star,hexagon,,,,,,,,,,,,,,,,,,,,,,,,,,,,,,,,,,,,,,,,,,,,,,,,,,,,,,
296608,2022-10-04_16h35.33.945,vts_reward_expectancy,2022.2.4,MacIntel,59.99880002,Chrome,1440,900,,,l,0.666,10,160,0,2,0,24,5,1,0,1,0,0,0,0,0,1,circle,star,,,,,,,,,,,,,,,,,,,,,,,,,,,,,,,,,,,,,,,,,,,,,,,,,,,,,,
296608,2022-10-04_16h35.33.945,vts_reward_expectancy,2022.2.4,MacIntel,59.99880002,Chrome,1440,900,,,l,1.4014,10,170,0,2,1,25,4,1,0,1,0,0,0,0,1,0,circle,hexagon,,,,,,,,,,,,,,,,,,,,,,,,,,,,,,,,,,,,,,,,,,,,,,,,,,,,,,
296608,2022-10-04_16h35.33.945,vts_reward_expectancy,2022.2.4,MacIntel,59.99880002,Chrome,1440,900,,,l,1.1993,1,171,0,2,2,26,1,1,1,0,0,0,0,0,1,0,triangle,hexagon,,,,,,,,,,,,,,,,,,,,,,,,,,,,,,,,,,,,,,,,,,,,,,,,,,,,,,
296608,2022-10-04_16h35.33.945,vts_reward_expectancy,2022.2.4,MacIntel,59.99880002,Chrome,1440,900,,,l,1.456,10,181,0,2,3,27,0,1,1,0,0,0,0,1,0,0,triangle,circle,,,,,,,,,,,,,,,,,,,,,,,,,,,,,,,,,,,,,,,,,,,,,,,,,,,,,,
296608,2022-10-04_16h35.33.945,vts_reward_expectancy,2022.2.4,MacIntel,59.99880002,Chrome,1440,900,,,a,1.6824,10,191,0,2,4,28,8,1,0,0,1,0,0,0,0,1,hexagon,star,,,,,,,,,,,,,,,,,,,,,,,,,,,,,,,,,,,,,,,,,,,,,,,,,,,,,,
296608,2022-10-04_16h35.33.945,vts_reward_expectancy,2022.2.4,MacIntel,59.99880002,Chrome,1440,900,,,a,1.382,10,201,0,2,5,29,11,1,0,0,0,1,0,0,1,0,star,hexagon,,,,,,,,,,,,,,,,,,,,,,,,,,,,,,,,,,,,,,,,,,,,,,,,,,,,,,
296608,2022-10-04_16h35.33.945,vts_reward_expectancy,2022.2.4,MacIntel,59.99880002,Chrome,1440,900,,,l,0.8676,1,202,0,2,6,30,9,1,0,0,0,1,1,0,0,0,star,triangle,,,,,,,,,,,,,,,,,,,,,,,,,,,,,,,,,,,,,,,,,,,,,,,,,,,,,,
296608,2022-10-04_16h35.33.945,vts_reward_expectancy,2022.2.4,MacIntel,59.99880002,Chrome,1440,900,,,a,0.782,1,203,0,2,7,31,7,1,0,0,1,0,0,1,0,0,hexagon,circle,,,,,,,,,,,,,,,,,,,,,,,,,,,,,,,,,,,,,,,,,,,,,,,,,,,,,,
296608,2022-10-04_16h35.33.945,vts_reward_expectancy,2022.2.4,MacIntel,59.99880002,Chrome,1440,900,,,a,0.8835,1,204,0,2,8,32,6,1,0,0,1,0,1,0,0,0,hexagon,triangle,,,,,,,,,,,,,,,,,,,,,,,,,,,,,,,,,,,,,,,,,,,,,,,,,,,,,,
296608,2022-10-04_16h35.33.945,vts_reward_expectancy,2022.2.4,MacIntel,59.99880002,Chrome,1440,900,,,a,1.2666,10,214,0,2,9,33,3,1,0,1,0,0,1,0,0,0,circle,triangle,,,,,,,,,,,,,,,,,,,,,,,,,,,,,,,,,,,,,,,,,,,,,,,,,,,,,,
296608,2022-10-04_16h35.33.945,vts_reward_expectancy,2022.2.4,MacIntel,59.99880002,Chrome,1440,900,,,a,1.1002,1,215,0,2,10,34,2,1,1,0,0,0,0,0,0,1,triangle,star,,,,,,,,,,,,,,,,,,,,,,,,,,,,,,,,,,,,,,,,,,,,,,,,,,,,,,
296608,2022-10-04_16h35.33.945,vts_reward_expectancy,2022.2.4,MacIntel,59.99880002,Chrome,1440,900,,,a,1.2177,1,216,0,2,11,35,10,1,0,0,0,1,0,1,0,0,star ,circle,,,,,,,,,,,,,,,,,,,,,,,,,,,,,,,,,,,,,,,,,,,,,,,,,,,,,,
296608,2022-10-04_16h35.33.945,vts_reward_expectancy,2022.2.4,MacIntel,59.99880002,Chrome,1440,900,,,l,1.6671,1,217,1,0,0,0,3,1,0,1,0,0,1,0,0,0,circle,triangle,,,,,,,,,,,,,,,,,,,,,,,,,,,,,,,,,,,,,,,,,,,,,,,,,,,,,,
296608,2022-10-04_16h35.33.945,vts_reward_expectancy,2022.2.4,MacIntel,59.99880002,Chrome,1440,900,,,l,1.6573,10,227,1,0,1,1,11,1,0,0,0,1,0,0,1,0,star,hexagon,,,,,,,,,,,,,,,,,,,,,,,,,,,,,,,,,,,,,,,,,,,,,,,,,,,,,,
296608,2022-10-04_16h35.33.945,vts_reward_expectancy,2022.2.4,MacIntel,59.99880002,Chrome,1440,900,,,a,5.4341,10,237,1,0,2,2,9,1,0,0,0,1,1,0,0,0,star,triangle,,,,,,,,,,,,,,,,,,,,,,,,,,,,,,,,,,,,,,,,,,,,,,,,,,,,,,
296608,2022-10-04_16h35.33.945,vts_reward_expectancy,2022.2.4,MacIntel,59.99880002,Chrome,1440,900,,,l,1.3669,10,247,1,0,3,3,10,1,0,0,0,1,0,1,0,0,star ,circle,,,,,,,,,,,,,,,,,,,,,,,,,,,,,,,,,,,,,,,,,,,,,,,,,,,,,,
296608,2022-10-04_16h35.33.945,vts_reward_expectancy,2022.2.4,MacIntel,59.99880002,Chrome,1440,900,,,l,2.0159,10,257,1,0,4,4,0,1,1,0,0,0,0,1,0,0,triangle,circle,,,,,,,,,,,,,,,,,,,,,,,,,,,,,,,,,,,,,,,,,,,,,,,,,,,,,,
296608,2022-10-04_16h35.33.945,vts_reward_expectancy,2022.2.4,MacIntel,59.99880002,Chrome,1440,900,,,a,0.6722,10,267,1,0,5,5,6,1,0,0,1,0,1,0,0,0,hexagon,triangle,,,,,,,,,,,,,,,,,,,,,,,,,,,,,,,,,,,,,,,,,,,,,,,,,,,,,,
296608,2022-10-04_16h35.33.945,vts_reward_expectancy,2022.2.4,MacIntel,59.99880002,Chrome,1440,900,,,l,1.5746,1,268,1,0,6,6,1,1,1,0,0,0,0,0,1,0,triangle,hexagon,,,,,,,,,,,,,,,,,,,,,,,,,,,,,,,,,,,,,,,,,,,,,,,,,,,,,,
296608,2022-10-04_16h35.33.945,vts_reward_expectancy,2022.2.4,MacIntel,59.99880002,Chrome,1440,900,,,a,1.7407,10,278,1,0,7,7,7,1,0,0,1,0,0,1,0,0,hexagon,circle,,,,,,,,,,,,,,,,,,,,,,,,,,,,,,,,,,,,,,,,,,,,,,,,,,,,,,
296608,2022-10-04_16h35.33.945,vts_reward_expectancy,2022.2.4,MacIntel,59.99880002,Chrome,1440,900,,,l,0.9504,1,279,1,0,8,8,2,1,1,0,0,0,0,0,0,1,triangle,star,,,,,,,,,,,,,,,,,,,,,,,,,,,,,,,,,,,,,,,,,,,,,,,,,,,,,,
296608,2022-10-04_16h35.33.945,vts_reward_expectancy,2022.2.4,MacIntel,59.99880002,Chrome,1440,900,,,l,0.633,1,280,1,0,9,9,4,1,0,1,0,0,0,0,1,0,circle,hexagon,,,,,,,,,,,,,,,,,,,,,,,,,,,,,,,,,,,,,,,,,,,,,,,,,,,,,,
296608,2022-10-04_16h35.33.945,vts_reward_expectancy,2022.2.4,MacIntel,59.99880002,Chrome,1440,900,,,a,0.7832,10,290,1,0,10,10,5,1,0,1,0,0,0,0,0,1,circle,star,,,,,,,,,,,,,,,,,,,,,,,,,,,,,,,,,,,,,,,,,,,,,,,,,,,,,,
296608,2022-10-04_16h35.33.945,vts_reward_expectancy,2022.2.4,MacIntel,59.99880002,Chrome,1440,900,,,l,1.2156,10,300,1,0,11,11,8,1,0,0,1,0,0,0,0,1,hexagon,star,,,,,,,,,,,,,,,,,,,,,,,,,,,,,,,,,,,,,,,,,,,,,,,,,,,,,,
296608,2022-10-04_16h35.33.945,vts_reward_expectancy,2022.2.4,MacIntel,59.99880002,Chrome,1440,900,,,l,1.2331,10,310,1,1,0,12,5,1,0,1,0,0,0,0,0,1,circle,star,,,,,,,,,,,,,,,,,,,,,,,,,,,,,,,,,,,,,,,,,,,,,,,,,,,,,,
296608,2022-10-04_16h35.33.945,vts_reward_expectancy,2022.2.4,MacIntel,59.99880002,Chrome,1440,900,,,a,0.6898,10,320,1,1,1,13,6,1,0,0,1,0,1,0,0,0,hexagon,triangle,,,,,,,,,,,,,,,,,,,,,,,,,,,,,,,,,,,,,,,,,,,,,,,,,,,,,,
296608,2022-10-04_16h35.33.945,vts_reward_expectancy,2022.2.4,MacIntel,59.99880002,Chrome,1440,900,,,a,1.565,1,321,1,1,2,14,11,1,0,0,0,1,0,0,1,0,star,hexagon,,,,,,,,,,,,,,,,,,,,,,,,,,,,,,,,,,,,,,,,,,,,,,,,,,,,,,
296608,2022-10-04_16h35.33.945,vts_reward_expectancy,2022.2.4,MacIntel,59.99880002,Chrome,1440,900,,,a,1.1658,1,322,1,1,3,15,7,1,0,0,1,0,0,1,0,0,hexagon,circle,,,,,,,,,,,,,,,,,,,,,,,,,,,,,,,,,,,,,,,,,,,,,,,,,,,,,,
296608,2022-10-04_16h35.33.945,vts_reward_expectancy,2022.2.4,MacIntel,59.99880002,Chrome,1440,900,,,a,0.6705,1,323,1,1,4,16,3,1,0,1,0,0,1,0,0,0,circle,triangle,,,,,,,,,,,,,,,,,,,,,,,,,,,,,,,,,,,,,,,,,,,,,,,,,,,,,,
296608,2022-10-04_16h35.33.945,vts_reward_expectancy,2022.2.4,MacIntel,59.99880002,Chrome,1440,900,,,a,0.684,1,324,1,1,5,17,10,1,0,0,0,1,0,1,0,0,star ,circle,,,,,,,,,,,,,,,,,,,,,,,,,,,,,,,,,,,,,,,,,,,,,,,,,,,,,,
296608,2022-10-04_16h35.33.945,vts_reward_expectancy,2022.2.4,MacIntel,59.99880002,Chrome,1440,900,,,a,0.803,1,325,1,1,6,18,2,1,1,0,0,0,0,0,0,1,triangle,star,,,,,,,,,,,,,,,,,,,,,,,,,,,,,,,,,,,,,,,,,,,,,,,,,,,,,,
296608,2022-10-04_16h35.33.945,vts_reward_expectancy,2022.2.4,MacIntel,59.99880002,Chrome,1440,900,,,a,0.8001,1,326,1,1,7,19,1,1,1,0,0,0,0,0,1,0,triangle,hexagon,,,,,,,,,,,,,,,,,,,,,,,,,,,,,,,,,,,,,,,,,,,,,,,,,,,,,,
296608,2022-10-04_16h35.33.945,vts_reward_expectancy,2022.2.4,MacIntel,59.99880002,Chrome,1440,900,,,l,0.2845,10,336,1,1,8,20,0,1,1,0,0,0,0,1,0,0,triangle,circle,,,,,,,,,,,,,,,,,,,,,,,,,,,,,,,,,,,,,,,,,,,,,,,,,,,,,,
296608,2022-10-04_16h35.33.945,vts_reward_expectancy,2022.2.4,MacIntel,59.99880002,Chrome,1440,900,,,a,0.3156,1,337,1,1,9,21,9,1,0,0,0,1,1,0,0,0,star,triangle,,,,,,,,,,,,,,,,,,,,,,,,,,,,,,,,,,,,,,,,,,,,,,,,,,,,,,
296608,2022-10-04_16h35.33.945,vts_reward_expectancy,2022.2.4,MacIntel,59.99880002,Chrome,1440,900,,,a,1.1823,10,347,1,1,10,22,4,1,0,1,0,0,0,0,1,0,circle,hexagon,,,,,,,,,,,,,,,,,,,,,,,,,,,,,,,,,,,,,,,,,,,,,,,,,,,,,,
296608,2022-10-04_16h35.33.945,vts_reward_expectancy,2022.2.4,MacIntel,59.99880002,Chrome,1440,900,,,l,0.6577,10,357,1,1,11,23,8,1,0,0,1,0,0,0,0,1,hexagon,star,,,,,,,,,,,,,,,,,,,,,,,,,,,,,,,,,,,,,,,,,,,,,,,,,,,,,,
296608,2022-10-04_16h35.33.945,vts_reward_expectancy,2022.2.4,MacIntel,59.99880002,Chrome,1440,900,,,l,8.2342,1,358,1,2,0,24,3,1,0,1,0,0,1,0,0,0,circle,triangle,,,,,,,,,,,,,,,,,,,,,,,,,,,,,,,,,,,,,,,,,,,,,,,,,,,,,,
296608,2022-10-04_16h35.33.945,vts_reward_expectancy,2022.2.4,MacIntel,59.99880002,Chrome,1440,900,,,l,0.4663,10,368,1,2,1,25,4,1,0,1,0,0,0,0,1,0,circle,hexagon,,,,,,,,,,,,,,,,,,,,,,,,,,,,,,,,,,,,,,,,,,,,,,,,,,,,,,
296608,2022-10-04_16h35.33.945,vts_reward_expectancy,2022.2.4,MacIntel,59.99880002,Chrome,1440,900,,,a,0.6319,1,369,1,2,2,26,8,1,0,0,1,0,0,0,0,1,hexagon,star,,,,,,,,,,,,,,,,,,,,,,,,,,,,,,,,,,,,,,,,,,,,,,,,,,,,,,
296608,2022-10-04_16h35.33.945,vts_reward_expectancy,2022.2.4,MacIntel,59.99880002,Chrome,1440,900,,,a,0.5832,1,370,1,2,3,27,10,1,0,0,0,1,0,1,0,0,star ,circle,,,,,,,,,,,,,,,,,,,,,,,,,,,,,,,,,,,,,,,,,,,,,,,,,,,,,,
296608,2022-10-04_16h35.33.945,vts_reward_expectancy,2022.2.4,MacIntel,59.99880002,Chrome,1440,900,,,l,0.4152,10,380,1,2,4,28,5,1,0,1,0,0,0,0,0,1,circle,star,,,,,,,,,,,,,,,,,,,,,,,,,,,,,,,,,,,,,,,,,,,,,,,,,,,,,,
296608,2022-10-04_16h35.33.945,vts_reward_expectancy,2022.2.4,MacIntel,59.99880002,Chrome,1440,900,,,a,0.3215,10,390,1,2,5,29,11,1,0,0,0,1,0,0,1,0,star,hexagon,,,,,,,,,,,,,,,,,,,,,,,,,,,,,,,,,,,,,,,,,,,,,,,,,,,,,,
296608,2022-10-04_16h35.33.945,vts_reward_expectancy,2022.2.4,MacIntel,59.99880002,Chrome,1440,900,,,a,0.9354,1,391,1,2,6,30,6,1,0,0,1,0,1,0,0,0,hexagon,triangle,,,,,,,,,,,,,,,,,,,,,,,,,,,,,,,,,,,,,,,,,,,,,,,,,,,,,,
296608,2022-10-04_16h35.33.945,vts_reward_expectancy,2022.2.4,MacIntel,59.99880002,Chrome,1440,900,,,l,0.8545,10,401,1,2,7,31,0,1,1,0,0,0,0,1,0,0,triangle,circle,,,,,,,,,,,,,,,,,,,,,,,,,,,,,,,,,,,,,,,,,,,,,,,,,,,,,,
296608,2022-10-04_16h35.33.945,vts_reward_expectancy,2022.2.4,MacIntel,59.99880002,Chrome,1440,900,,,a,6.5182,10,411,1,2,8,32,9,1,0,0,0,1,1,0,0,0,star,triangle,,,,,,,,,,,,,,,,,,,,,,,,,,,,,,,,,,,,,,,,,,,,,,,,,,,,,,
296608,2022-10-04_16h35.33.945,vts_reward_expectancy,2022.2.4,MacIntel,59.99880002,Chrome,1440,900,,,l,0.3892,10,421,1,2,9,33,7,1,0,0,1,0,0,1,0,0,hexagon,circle,,,,,,,,,,,,,,,,,,,,,,,,,,,,,,,,,,,,,,,,,,,,,,,,,,,,,,
296608,2022-10-04_16h35.33.945,vts_reward_expectancy,2022.2.4,MacIntel,59.99880002,Chrome,1440,900,,,a,0.5824,1,422,1,2,10,34,2,1,1,0,0,0,0,0,0,1,triangle,star,,,,,,,,,,,,,,,,,,,,,,,,,,,,,,,,,,,,,,,,,,,,,,,,,,,,,,
296608,2022-10-04_16h35.33.945,vts_reward_expectancy,2022.2.4,MacIntel,59.99880002,Chrome,1440,900,,,a,0.0842,10,432,1,2,11,35,1,1,1,0,0,0,0,0,1,0,triangle,hexagon,,,,,,,,,,,,,,,,,,,,,,,,,,,,,,,,,,,,,,,,,,,,,,,,,,,,,,
296608,2022-10-04_16h35.33.945,vts_reward_expectancy,2022.2.4,MacIntel,59.99880002,Chrome,1440,900,,,l,0.8325,10,442,2,0,0,0,0,1,1,0,0,0,0,1,0,0,triangle,circle,,,,,,,,,,,,,,,,,,,,,,,,,,,,,,,,,,,,,,,,,,,,,,,,,,,,,,
296608,2022-10-04_16h35.33.945,vts_reward_expectancy,2022.2.4,MacIntel,59.99880002,Chrome,1440,900,,,a,0.5817,10,452,2,0,1,1,4,1,0,1,0,0,0,0,1,0,circle,hexagon,,,,,,,,,,,,,,,,,,,,,,,,,,,,,,,,,,,,,,,,,,,,,,,,,,,,,,
296608,2022-10-04_16h35.33.945,vts_reward_expectancy,2022.2.4,MacIntel,59.99880002,Chrome,1440,900,,,a,1.684,10,462,2,0,2,2,2,1,1,0,0,0,0,0,0,1,triangle,star,,,,,,,,,,,,,,,,,,,,,,,,,,,,,,,,,,,,,,,,,,,,,,,,,,,,,,
296608,2022-10-04_16h35.33.945,vts_reward_expectancy,2022.2.4,MacIntel,59.99880002,Chrome,1440,900,,,a,0.9839,1,463,2,0,3,3,5,1,0,1,0,0,0,0,0,1,circle,star,,,,,,,,,,,,,,,,,,,,,,,,,,,,,,,,,,,,,,,,,,,,,,,,,,,,,,
296608,2022-10-04_16h35.33.945,vts_reward_expectancy,2022.2.4,MacIntel,59.99880002,Chrome,1440,900,,,l,1.1183,1,464,2,0,4,4,3,1,0,1,0,0,1,0,0,0,circle,triangle,,,,,,,,,,,,,,,,,,,,,,,,,,,,,,,,,,,,,,,,,,,,,,,,,,,,,,
296608,2022-10-04_16h35.33.945,vts_reward_expectancy,2022.2.4,MacIntel,59.99880002,Chrome,1440,900,,,a,1.8877,1,465,2,0,5,5,1,1,1,0,0,0,0,0,1,0,triangle,hexagon,,,,,,,,,,,,,,,,,,,,,,,,,,,,,,,,,,,,,,,,,,,,,,,,,,,,,,
296608,2022-10-04_16h35.33.945,vts_reward_expectancy,2022.2.4,MacIntel,59.99880002,Chrome,1440,900,,,a,1.1347,1,466,2,0,6,6,11,1,0,0,0,1,0,0,1,0,star,hexagon,,,,,,,,,,,,,,,,,,,,,,,,,,,,,,,,,,,,,,,,,,,,,,,,,,,,,,
296608,2022-10-04_16h35.33.945,vts_reward_expectancy,2022.2.4,MacIntel,59.99880002,Chrome,1440,900,,,l,0.7884,1,467,2,0,7,7,9,1,0,0,0,1,1,0,0,0,star,triangle,,,,,,,,,,,,,,,,,,,,,,,,,,,,,,,,,,,,,,,,,,,,,,,,,,,,,,
296608,2022-10-04_16h35.33.945,vts_reward_expectancy,2022.2.4,MacIntel,59.99880002,Chrome,1440,900,,,l,0.6337,10,477,2,0,8,8,8,1,0,0,1,0,0,0,0,1,hexagon,star,,,,,,,,,,,,,,,,,,,,,,,,,,,,,,,,,,,,,,,,,,,,,,,,,,,,,,
296608,2022-10-04_16h35.33.945,vts_reward_expectancy,2022.2.4,MacIntel,59.99880002,Chrome,1440,900,,,a,0.7671,1,478,2,0,9,9,6,1,0,0,1,0,1,0,0,0,hexagon,triangle,,,,,,,,,,,,,,,,,,,,,,,,,,,,,,,,,,,,,,,,,,,,,,,,,,,,,,
296608,2022-10-04_16h35.33.945,vts_reward_expectancy,2022.2.4,MacIntel,59.99880002,Chrome,1440,900,,,l,1.7726,1,479,2,0,10,10,7,1,0,0,1,0,0,1,0,0,hexagon,circle,,,,,,,,,,,,,,,,,,,,,,,,,,,,,,,,,,,,,,,,,,,,,,,,,,,,,,
296608,2022-10-04_16h35.33.945,vts_reward_expectancy,2022.2.4,MacIntel,59.99880002,Chrome,1440,900,,,a,1.4005,1,480,2,0,11,11,10,1,0,0,0,1,0,1,0,0,star ,circle,,,,,,,,,,,,,,,,,,,,,,,,,,,,,,,,,,,,,,,,,,,,,,,,,,,,,,
296608,2022-10-04_16h35.33.945,vts_reward_expectancy,2022.2.4,MacIntel,59.99880002,Chrome,1440,900,,,a,2.1836,1,481,2,1,0,12,11,1,0,0,0,1,0,0,1,0,star,hexagon,,,,,,,,,,,,,,,,,,,,,,,,,,,,,,,,,,,,,,,,,,,,,,,,,,,,,,
296608,2022-10-04_16h35.33.945,vts_reward_expectancy,2022.2.4,MacIntel,59.99880002,Chrome,1440,900,,,l,1.7168,1,482,2,1,1,13,2,1,1,0,0,0,0,0,0,1,triangle,star,,,,,,,,,,,,,,,,,,,,,,,,,,,,,,,,,,,,,,,,,,,,,,,,,,,,,,
296608,2022-10-04_16h35.33.945,vts_reward_expectancy,2022.2.4,MacIntel,59.99880002,Chrome,1440,900,,,a,0.9508,1,483,2,1,2,14,8,1,0,0,1,0,0,0,0,1,hexagon,star,,,,,,,,,,,,,,,,,,,,,,,,,,,,,,,,,,,,,,,,,,,,,,,,,,,,,,
296608,2022-10-04_16h35.33.945,vts_reward_expectancy,2022.2.4,MacIntel,59.99880002,Chrome,1440,900,,,a,0.9666,10,493,2,1,3,15,5,1,0,1,0,0,0,0,0,1,circle,star,,,,,,,,,,,,,,,,,,,,,,,,,,,,,,,,,,,,,,,,,,,,,,,,,,,,,,
296608,2022-10-04_16h35.33.945,vts_reward_expectancy,2022.2.4,MacIntel,59.99880002,Chrome,1440,900,,,a,2.8323,1,494,2,1,4,16,9,1,0,0,0,1,1,0,0,0,star,triangle,,,,,,,,,,,,,,,,,,,,,,,,,,,,,,,,,,,,,,,,,,,,,,,,,,,,,,
296608,2022-10-04_16h35.33.945,vts_reward_expectancy,2022.2.4,MacIntel,59.99880002,Chrome,1440,900,,,l,1.4829,10,504,2,1,5,17,0,1,1,0,0,0,0,1,0,0,triangle,circle,,,,,,,,,,,,,,,,,,,,,,,,,,,,,,,,,,,,,,,,,,,,,,,,,,,,,,
296608,2022-10-04_16h35.33.945,vts_reward_expectancy,2022.2.4,MacIntel,59.99880002,Chrome,1440,900,,,l,1.6908,10,514,2,1,6,18,10,1,0,0,0,1,0,1,0,0,star ,circle,,,,,,,,,,,,,,,,,,,,,,,,,,,,,,,,,,,,,,,,,,,,,,,,,,,,,,
296608,2022-10-04_16h35.33.945,vts_reward_expectancy,2022.2.4,MacIntel,59.99880002,Chrome,1440,900,,,l,1.3155,10,524,2,1,7,19,4,1,0,1,0,0,0,0,1,0,circle,hexagon,,,,,,,,,,,,,,,,,,,,,,,,,,,,,,,,,,,,,,,,,,,,,,,,,,,,,,
296608,2022-10-04_16h35.33.945,vts_reward_expectancy,2022.2.4,MacIntel,59.99880002,Chrome,1440,900,,,a,1.231,1,525,2,1,8,20,7,1,0,0,1,0,0,1,0,0,hexagon,circle,,,,,,,,,,,,,,,,,,,,,,,,,,,,,,,,,,,,,,,,,,,,,,,,,,,,,,
296608,2022-10-04_16h35.33.945,vts_reward_expectancy,2022.2.4,MacIntel,59.99880002,Chrome,1440,900,,,l,10.7327,1,526,2,1,9,21,6,1,0,0,1,0,1,0,0,0,hexagon,triangle,,,,,,,,,,,,,,,,,,,,,,,,,,,,,,,,,,,,,,,,,,,,,,,,,,,,,,
296608,2022-10-04_16h35.33.945,vts_reward_expectancy,2022.2.4,MacIntel,59.99880002,Chrome,1440,900,,,l,5.6504,1,527,2,1,10,22,1,1,1,0,0,0,0,0,1,0,triangle,hexagon,,,,,,,,,,,,,,,,,,,,,,,,,,,,,,,,,,,,,,,,,,,,,,,,,,,,,,
296608,2022-10-04_16h35.33.945,vts_reward_expectancy,2022.2.4,MacIntel,59.99880002,Chrome,1440,900,,,a,2.1828,1,528,2,1,11,23,3,1,0,1,0,0,1,0,0,0,circle,triangle,,,,,,,,,,,,,,,,,,,,,,,,,,,,,,,,,,,,,,,,,,,,,,,,,,,,,,
296608,2022-10-04_16h35.33.945,vts_reward_expectancy,2022.2.4,MacIntel,59.99880002,Chrome,1440,900,,,a,1.6171,10,538,2,2,0,24,4,1,0,1,0,0,0,0,1,0,circle,hexagon,,,,,,,,,,,,,,,,,,,,,,,,,,,,,,,,,,,,,,,,,,,,,,,,,,,,,,
296608,2022-10-04_16h35.33.945,vts_reward_expectancy,2022.2.4,MacIntel,59.99880002,Chrome,1440,900,,,a,5.2178,10,548,2,2,1,25,7,1,0,0,1,0,0,1,0,0,hexagon,circle,,,,,,,,,,,,,,,,,,,,,,,,,,,,,,,,,,,,,,,,,,,,,,,,,,,,,,
296608,2022-10-04_16h35.33.945,vts_reward_expectancy,2022.2.4,MacIntel,59.99880002,Chrome,1440,900,,,l,0.549,10,558,2,2,2,26,5,1,0,1,0,0,0,0,0,1,circle,star,,,,,,,,,,,,,,,,,,,,,,,,,,,,,,,,,,,,,,,,,,,,,,,,,,,,,,
296608,2022-10-04_16h35.33.945,vts_reward_expectancy,2022.2.4,MacIntel,59.99880002,Chrome,1440,900,,,a,0.2486,10,568,2,2,3,27,0,1,1,0,0,0,0,1,0,0,triangle,circle,,,,,,,,,,,,,,,,,,,,,,,,,,,,,,,,,,,,,,,,,,,,,,,,,,,,,,
296608,2022-10-04_16h35.33.945,vts_reward_expectancy,2022.2.4,MacIntel,59.99880002,Chrome,1440,900,,,a,0.4861,10,578,2,2,4,28,8,1,0,0,1,0,0,0,0,1,hexagon,star,,,,,,,,,,,,,,,,,,,,,,,,,,,,,,,,,,,,,,,,,,,,,,,,,,,,,,
296608,2022-10-04_16h35.33.945,vts_reward_expectancy,2022.2.4,MacIntel,59.99880002,Chrome,1440,900,,,l,0.3371,1,579,2,2,5,29,9,1,0,0,0,1,1,0,0,0,star,triangle,,,,,,,,,,,,,,,,,,,,,,,,,,,,,,,,,,,,,,,,,,,,,,,,,,,,,,
296608,2022-10-04_16h35.33.945,vts_reward_expectancy,2022.2.4,MacIntel,59.99880002,Chrome,1440,900,,,l,0.0693,1,580,2,2,6,30,2,1,1,0,0,0,0,0,0,1,triangle,star,,,,,,,,,,,,,,,,,,,,,,,,,,,,,,,,,,,,,,,,,,,,,,,,,,,,,,
296608,2022-10-04_16h35.33.945,vts_reward_expectancy,2022.2.4,MacIntel,59.99880002,Chrome,1440,900,,,a,0.1336,1,581,2,2,7,31,6,1,0,0,1,0,1,0,0,0,hexagon,triangle,,,,,,,,,,,,,,,,,,,,,,,,,,,,,,,,,,,,,,,,,,,,,,,,,,,,,,
296608,2022-10-04_16h35.33.945,vts_reward_expectancy,2022.2.4,MacIntel,59.99880002,Chrome,1440,900,,,a,1.1564,10,591,2,2,8,32,3,1,0,1,0,0,1,0,0,0,circle,triangle,,,,,,,,,,,,,,,,,,,,,,,,,,,,,,,,,,,,,,,,,,,,,,,,,,,,,,
296608,2022-10-04_16h35.33.945,vts_reward_expectancy,2022.2.4,MacIntel,59.99880002,Chrome,1440,900,,,a,1.2501,10,601,2,2,9,33,11,1,0,0,0,1,0,0,1,0,star,hexagon,,,,,,,,,,,,,,,,,,,,,,,,,,,,,,,,,,,,,,,,,,,,,,,,,,,,,,
296608,2022-10-04_16h35.33.945,vts_reward_expectancy,2022.2.4,MacIntel,59.99880002,Chrome,1440,900,,,l,1.0022,10,611,2,2,10,34,10,1,0,0,0,1,0,1,0,0,star ,circle,,,,,,,,,,,,,,,,,,,,,,,,,,,,,,,,,,,,,,,,,,,,,,,,,,,,,,
296608,2022-10-04_16h35.33.945,vts_reward_expectancy,2022.2.4,MacIntel,59.99880002,Chrome,1440,900,,,l,1.9829,10,621,2,2,11,35,1,1,1,0,0,0,0,0,1,0,triangle,hexagon,,,,,,,,,,,,,,,,,,,,,,,,,,,,,,,,,,,,,,,,,,,,,,,,,,,,,,
296608,2022-10-04_16h35.33.945,vts_reward_expectancy,2022.2.4,MacIntel,59.99880002,Chrome,1440,900,,,,,,,,,,,,,,,,,,,,,,,139,U,star,1,0,d,1.5309,0,0,0,0,0,1,,,,,,,,,,,,,,,,,,,,,,,,,,,,,,,,,,,,,,,,,
296608,2022-10-04_16h35.33.945,vts_reward_expectancy,2022.2.4,MacIntel,59.99880002,Chrome,1440,900,,,,,,,,,,,,,,,,,,,,,,,167,H,circle,1,0,f,2.0141,0,1,0,1,0,1,,,,,,,,,,,,,,,,,,,,,,,,,,,,,,,,,,,,,,,,,
296608,2022-10-04_16h35.33.945,vts_reward_expectancy,2022.2.4,MacIntel,59.99880002,Chrome,1440,900,,,,,,,,,,,,,,,,,,,,,,,174,B,hexagon,1,0,f,1.4369,0,2,0,2,0,1,,,,,,,,,,,,,,,,,,,,,,,,,,,,,,,,,,,,,,,,,
296608,2022-10-04_16h35.33.945,vts_reward_expectancy,2022.2.4,MacIntel,59.99880002,Chrome,1440,900,,,,,,,,,,,,,,,,,,,,,,,146,F,triangle,0,0,,,0,3,0,3,0,1,,,,,,,,,,,,,,,,,,,,,,,,,,,,,,,,,,,,,,,,,
296608,2022-10-04_16h35.33.945,vts_reward_expectancy,2022.2.4,MacIntel,59.99880002,Chrome,1440,900,,,,,,,,,,,,,,,,,,,,,,,125,W,star,1,1,d,2.8976,0,4,0,4,0,1,,,,,,,,,,,,,,,,,,,,,,,,,,,,,,,,,,,,,,,,,
296608,2022-10-04_16h35.33.945,vts_reward_expectancy,2022.2.4,MacIntel,59.99880002,Chrome,1440,900,,,,,,,,,,,,,,,,,,,,,,,160,D,circle,1,0,f,0.7634,0,5,0,5,0,1,,,,,,,,,,,,,,,,,,,,,,,,,,,,,,,,,,,,,,,,,
296608,2022-10-04_16h35.33.945,vts_reward_expectancy,2022.2.4,MacIntel,59.99880002,Chrome,1440,900,,,,,,,,,,,,,,,,,,,,,,,132,S,hexagon,1,0,d,0.5812,0,6,0,6,0,1,,,,,,,,,,,,,,,,,,,,,,,,,,,,,,,,,,,,,,,,,
296608,2022-10-04_16h35.33.945,vts_reward_expectancy,2022.2.4,MacIntel,59.99880002,Chrome,1440,900,,,,,,,,,,,,,,,,,,,,,,,181,Y,triangle,1,0,f,0.7297,0,7,0,7,0,1,,,,,,,,,,,,,,,,,,,,,,,,,,,,,,,,,,,,,,,,,
296608,2022-10-04_16h35.33.945,vts_reward_expectancy,2022.2.4,MacIntel,59.99880002,Chrome,1440,900,,,,,,,,,,,,,,,,,,,,,,,139,U,star,1,0,d,1.0141,0,8,0,8,0,1,,,,,,,,,,,,,,,,,,,,,,,,,,,,,,,,,,,,,,,,,
296608,2022-10-04_16h35.33.945,vts_reward_expectancy,2022.2.4,MacIntel,59.99880002,Chrome,1440,900,,,,,,,,,,,,,,,,,,,,,,,167,H,circle,1,0,f,0.9632,0,9,0,9,0,1,,,,,,,,,,,,,,,,,,,,,,,,,,,,,,,,,,,,,,,,,
296608,2022-10-04_16h35.33.945,vts_reward_expectancy,2022.2.4,MacIntel,59.99880002,Chrome,1440,900,,,,,,,,,,,,,,,,,,,,,,,132,Y,triangle,2,0,,,1,,,,,,d,1.3813,0,0,0,0,1,,,,,,,,,,,,,,,,,,,,,,,,,,,,,,,,,,
296608,2022-10-04_16h35.33.945,vts_reward_expectancy,2022.2.4,MacIntel,59.99880002,Chrome,1440,900,,,,,,,,,,,,,,,,,,,,,,,174,D,circle,1,0,,,1,,,,,,j,1.0146,1,0,1,0,1,,,,,,,,,,,,,,,,,,,,,,,,,,,,,,,,,,
296608,2022-10-04_16h35.33.945,vts_reward_expectancy,2022.2.4,MacIntel,59.99880002,Chrome,1440,900,,,,,,,,,,,,,,,,,,,,,,,146,W,star,1,0,,,1,,,,,,k,0.8521,2,0,2,0,1,,,,,,,,,,,,,,,,,,,,,,,,,,,,,,,,,,
296608,2022-10-04_16h35.33.945,vts_reward_expectancy,2022.2.4,MacIntel,59.99880002,Chrome,1440,900,,,,,,,,,,,,,,,,,,,,,,,167,S,hexagon,1,0,,,1,,,,,,k,0.7816,3,0,3,0,1,,,,,,,,,,,,,,,,,,,,,,,,,,,,,,,,,,
296608,2022-10-04_16h35.33.945,vts_reward_expectancy,2022.2.4,MacIntel,59.99880002,Chrome,1440,900,,,,,,,,,,,,,,,,,,,,,,,125,H,triangle,1,0,,,1,,,,,,j,0.6705,4,0,4,0,1,,,,,,,,,,,,,,,,,,,,,,,,,,,,,,,,,,
296608,2022-10-04_16h35.33.945,vts_reward_expectancy,2022.2.4,MacIntel,59.99880002,Chrome,1440,900,,,,,,,,,,,,,,,,,,,,,,,139,B,circle,1,0,,,1,,,,,,j,0.6524,5,0,5,0,1,,,,,,,,,,,,,,,,,,,,,,,,,,,,,,,,,,
296608,2022-10-04_16h35.33.945,vts_reward_expectancy,2022.2.4,MacIntel,59.99880002,Chrome,1440,900,,,,,,,,,,,,,,,,,,,,,,,181,F,star,1,0,,,1,,,,,,j,0.9279,6,0,6,0,1,,,,,,,,,,,,,,,,,,,,,,,,,,,,,,,,,,
296608,2022-10-04_16h35.33.945,vts_reward_expectancy,2022.2.4,MacIntel,59.99880002,Chrome,1440,900,,,,,,,,,,,,,,,,,,,,,,,160,U,hexagon,1,0,,,1,,,,,,k,0.632,7,0,7,0,1,,,,,,,,,,,,,,,,,,,,,,,,,,,,,,,,,,
296608,2022-10-04_16h35.33.945,vts_reward_expectancy,2022.2.4,MacIntel,59.99880002,Chrome,1440,900,,,,,,,,,,,,,,,,,,,,,,,132,Y,circle,1,0,,,1,,,,,,k,0.7125,8,0,8,0,1,,,,,,,,,,,,,,,,,,,,,,,,,,,,,,,,,,
296608,2022-10-04_16h35.33.945,vts_reward_expectancy,2022.2.4,MacIntel,59.99880002,Chrome,1440,900,,,,,,,,,,,,,,,,,,,,,,,174,D,star,1,0,,,1,,,,,,j,0.5304,9,0,9,0,1,,,,,,,,,,,,,,,,,,,,,,,,,,,,,,,,,,
296608,2022-10-04_16h35.33.945,vts_reward_expectancy,2022.2.4,MacIntel,59.99880002,Chrome,1440,900,,,,,0,621,,,,,,,,,,,,,,,,,174,W,star,1,0,,,2,,,,,,,,,,,,,-1,number,NA,f,1.2914,vtsPrac,0,0,0,0,1,,,,,,,,,,,,,,,,,,,,,,,
296608,2022-10-04_16h35.33.945,vts_reward_expectancy,2022.2.4,MacIntel,59.99880002,Chrome,1440,900,,,,,0,621,,,,,,,,,,,,,,,,,181,B,circle,1,0,,,2,,,,,,,,,,,,,switch,letter,lettSwt,j,0.7193,vtsPrac,1,0,1,0,1,,,,,,,,,,,,,,,,,,,,,,,
296608,2022-10-04_16h35.33.945,vts_reward_expectancy,2022.2.4,MacIntel,59.99880002,Chrome,1440,900,,,,,0,621,,,,,,,,,,,,,,,,,146,F,star,1,0,,,2,,,,,,,,,,,,,switch,number,numSwt,d,1.38,vtsPrac,2,0,2,0,1,,,,,,,,,,,,,,,,,,,,,,,
296608,2022-10-04_16h35.33.945,vts_reward_expectancy,2022.2.4,MacIntel,59.99880002,Chrome,1440,900,,,,,0,621,,,,,,,,,,,,,,,,,167,D,circle,1,0,,,2,,,,,,,,,,,,,repeat,number,numRpt,f,0.7463,vtsPrac,3,0,3,0,1,,,,,,,,,,,,,,,,,,,,,,,
296608,2022-10-04_16h35.33.945,vts_reward_expectancy,2022.2.4,MacIntel,59.99880002,Chrome,1440,900,,,,,0,621,,,,,,,,,,,,,,,,,174,W,hexagon,1,0,,,2,,,,,,,,,,,,,switch,letter,lettSwt,k,0.8309,vtsPrac,4,0,4,0,1,,,,,,,,,,,,,,,,,,,,,,,
296608,2022-10-04_16h35.33.945,vts_reward_expectancy,2022.2.4,MacIntel,59.99880002,Chrome,1440,900,,,,,0,621,,,,,,,,,,,,,,,,,181,B,circle,1,0,,,2,,,,,,,,,,,,,switch,number,numSwt,f,0.598,vtsPrac,5,0,5,0,1,,,,,,,,,,,,,,,,,,,,,,,
296608,2022-10-04_16h35.33.945,vts_reward_expectancy,2022.2.4,MacIntel,59.99880002,Chrome,1440,900,,,,,0,621,,,,,,,,,,,,,,,,,146,F,circle,1,0,,,2,,,,,,,,,,,,,switch,letter,lettSwt,j,0.8312,vtsPrac,6,0,6,0,1,,,,,,,,,,,,,,,,,,,,,,,
296608,2022-10-04_16h35.33.945,vts_reward_expectancy,2022.2.4,MacIntel,59.99880002,Chrome,1440,900,,,,,0,621,,,,,,,,,,,,,,,,,167,D,star,1,0,,,2,,,,,,,,,,,,,repeat,letter,lettRpt,j,1.1494,vtsPrac,7,0,7,0,1,,,,,,,,,,,,,,,,,,,,,,,
296608,2022-10-04_16h35.33.945,vts_reward_expectancy,2022.2.4,MacIntel,59.99880002,Chrome,1440,900,,,,,0,621,,,,,,,,,,,,,,,,,132,D,star,1,0,,,2,,,,,,,,,,,,,switch,number,numSwt,d,0.6046,vtsPrac,8,0,8,0,1,,,,,,,,,,,,,,,,,,,,,,,
296608,2022-10-04_16h35.33.945,vts_reward_expectancy,2022.2.4,MacIntel,59.99880002,Chrome,1440,900,,,,,0,621,,,,,,,,,,,,,,,,,139,U,triangle,1,0,,,2,,,,,,,,,,,,,switch,letter,lettSwt,k,0.7632,vtsPrac,9,0,9,0,1,,,,,,,,,,,,,,,,,,,,,,,
296608,2022-10-04_16h35.33.945,vts_reward_expectancy,2022.2.4,MacIntel,59.99880002,Chrome,1440,900,,,,,0,621,,,,,,,,,,,,,,,,,181,S,triangle,1,0,,,2,,,,,,,,,,,,,switch,number,numSwt,f,0.747,vtsPrac,10,0,10,0,1,,,,,,,,,,,,,,,,,,,,,,,
296608,2022-10-04_16h35.33.945,vts_reward_expectancy,2022.2.4,MacIntel,59.99880002,Chrome,1440,900,,,,,0,621,,,,,,,,,,,,,,,,,174,B,hexagon,1,0,,,2,,,,,,,,,,,,,switch,letter,lettSwt,j,0.5803,vtsPrac,11,0,11,0,1,,,,,,,,,,,,,,,,,,,,,,,
296608,2022-10-04_16h35.33.945,vts_reward_expectancy,2022.2.4,MacIntel,59.99880002,Chrome,1440,900,,,,,0,621,,,,,,,,,,,,,,,,,139,H,circle,1,0,,,2,,,,,,,,,,,,,switch,number,numSwt,d,0.6318,vtsPrac,12,0,12,0,1,,,,,,,,,,,,,,,,,,,,,,,
296608,2022-10-04_16h35.33.945,vts_reward_expectancy,2022.2.4,MacIntel,59.99880002,Chrome,1440,900,,,,,0,621,,,,,,,,,,,,,,,,,125,W,triangle,1,0,,,2,,,,,,,,,,,,,repeat,number,numRpt,d,0.5966,vtsPrac,13,0,13,0,1,,,,,,,,,,,,,,,,,,,,,,,
296608,2022-10-04_16h35.33.945,vts_reward_expectancy,2022.2.4,MacIntel,59.99880002,Chrome,1440,900,,,,,0,621,,,,,,,,,,,,,,,,,132,S,hexagon,1,0,,,2,,,,,,,,,,,,,switch,letter,lettSwt,k,0.7457,vtsPrac,14,0,14,0,1,,,,,,,,,,,,,,,,,,,,,,,
296608,2022-10-04_16h35.33.945,vts_reward_expectancy,2022.2.4,MacIntel,59.99880002,Chrome,1440,900,,,,,0,621,,,,,,,,,,,,,,,,,146,Y,star,1,0,,,2,,,,,,,,,,,,,switch,number,numSwt,d,0.8307,vtsPrac,15,0,15,0,1,,,,,,,,,,,,,,,,,,,,,,,
296608,2022-10-04_16h35.33.945,vts_reward_expectancy,2022.2.4,MacIntel,59.99880002,Chrome,1440,900,,,,,,,,,,,,,,,,,,,,,,,,,,,,,,,,,,,,,,,,,,,,,,,,,,,,,,,,,,,,,,,,,,,,,,,,,,,,
296608,2022-10-04_16h35.33.945,vts_reward_expectancy,2022.2.4,MacIntel,59.99880002,Chrome,1440,900,,,,,,,,,,,,,,,,,,,,,,,,,,,,,,,,,,,,,,,,,,,,,,,,,,,,,,,,,,,,,,,,,,,,,,,,,,,,
296608,2022-10-04_16h35.33.945,vts_reward_expectancy,2022.2.4,MacIntel,59.99880002,Chrome,1440,900,,,,,0,621,,,,,,,,,,,,,,,,,146,S,triangle,1,0,,,,,,,,,,,,,,,,repeat,number,numRpt,d,1.5974,noRew,,,,,,0,0,0,0,0,1,,,,,,,,,,,,,,,,,
296608,2022-10-04_16h35.33.945,vts_reward_expectancy,2022.2.4,MacIntel,59.99880002,Chrome,1440,900,,,,,0,621,,,,,,,,,,,,,,,,,181,W,circle,1,0,,,,,,,,,,,,,,,,repeat,number,numRpt,f,0.9645,noRew,,,,,,0,1,0,1,0,1,,,,,,,,,,,,,,,,,
296608,2022-10-04_16h35.33.945,vts_reward_expectancy,2022.2.4,MacIntel,59.99880002,Chrome,1440,900,,,,,0,621,,,,,,,,,,,,,,,,,174,U,triangle,1,0,,,,,,,,,,,,,,,,switch,letter,lettSwt,k,0.6828,noRew,,,,,,0,2,0,2,0,1,,,,,,,,,,,,,,,,,
296608,2022-10-04_16h35.33.945,vts_reward_expectancy,2022.2.4,MacIntel,59.99880002,Chrome,1440,900,,,,,0,621,,,,,,,,,,,,,,,,,167,B,circle,1,0,,,,,,,,,,,,,,,,switch,number,numSwt,f,0.8531,noRew,,,,,,0,3,0,3,0,1,,,,,,,,,,,,,,,,,
296608,2022-10-04_16h35.33.945,vts_reward_expectancy,2022.2.4,MacIntel,59.99880002,Chrome,1440,900,,,,,0,621,,,,,,,,,,,,,,,,,146,S,hexagon,1,0,,,,,,,,,,,,,,,,repeat,number,numRpt,d,1.2804,noRew,,,,,,0,4,0,4,0,1,,,,,,,,,,,,,,,,,
296608,2022-10-04_16h35.33.945,vts_reward_expectancy,2022.2.4,MacIntel,59.99880002,Chrome,1440,900,,,,,0,621,,,,,,,,,,,,,,,,,181,W,triangle,1,0,,,,,,,,,,,,,,,,repeat,number,numRpt,f,0.7301,noRew,,,,,,0,5,0,5,0,1,,,,,,,,,,,,,,,,,
296608,2022-10-04_16h35.33.945,vts_reward_expectancy,2022.2.4,MacIntel,59.99880002,Chrome,1440,900,,,,,0,621,,,,,,,,,,,,,,,,,174,U,star,1,0,,,,,,,,,,,,,,,,switch,letter,lettSwt,k,0.6482,noRew,,,,,,0,6,0,6,0,1,,,,,,,,,,,,,,,,,
296608,2022-10-04_16h35.33.945,vts_reward_expectancy,2022.2.4,MacIntel,59.99880002,Chrome,1440,900,,,,,0,621,,,,,,,,,,,,,,,,,167,B,circle,1,0,,,,,,,,,,,,,,,,repeat,letter,lettRpt,j,0.931,noRew,,,,,,0,7,0,7,0,1,,,,,,,,,,,,,,,,,
296608,2022-10-04_16h35.33.945,vts_reward_expectancy,2022.2.4,MacIntel,59.99880002,Chrome,1440,900,,,,,0,621,,,,,,,,,,,,,,,,,139,S,star,1,0,,,,,,,,,,,,,,,,switch,number,numSwt,d,0.9318,noRew,,,,,,0,8,0,8,0,1,,,,,,,,,,,,,,,,,
296608,2022-10-04_16h35.33.945,vts_reward_expectancy,2022.2.4,MacIntel,59.99880002,Chrome,1440,900,,,,,0,621,,,,,,,,,,,,,,,,,160,W,circle,1,0,,,,,,,,,,,,,,,,switch,letter,lettSwt,k,1.6983,noRew,,,,,,0,9,0,9,0,1,,,,,,,,,,,,,,,,,
296608,2022-10-04_16h35.33.945,vts_reward_expectancy,2022.2.4,MacIntel,59.99880002,Chrome,1440,900,,,,,0,621,,,,,,,,,,,,,,,,,167,H,star,1,0,,,,,,,,,,,,,,,,switch,number,numSwt,f,0.9052,noRew,,,,,,0,10,0,10,0,1,,,,,,,,,,,,,,,,,
296608,2022-10-04_16h35.33.945,vts_reward_expectancy,2022.2.4,MacIntel,59.99880002,Chrome,1440,900,,,,,0,621,,,,,,,,,,,,,,,,,132,F,triangle,1,0,,,,,,,,,,,,,,,,switch,letter,lettSwt,j,0.8468,noRew,,,,,,0,11,0,11,0,1,,,,,,,,,,,,,,,,,
296608,2022-10-04_16h35.33.945,vts_reward_expectancy,2022.2.4,MacIntel,59.99880002,Chrome,1440,900,,,,,0,621,,,,,,,,,,,,,,,,,174,S,star,1,0,,,,,,,,,,,,,,,,switch,number,numSwt,f,0.838,noRew,,,,,,0,12,0,12,0,1,,,,,,,,,,,,,,,,,
296608,2022-10-04_16h35.33.945,vts_reward_expectancy,2022.2.4,MacIntel,59.99880002,Chrome,1440,900,,,,,0,621,,,,,,,,,,,,,,,,,125,B,hexagon,1,0,,,,,,,,,,,,,,,,repeat,number,numRpt,d,0.8289,noRew,,,,,,0,13,0,13,0,1,,,,,,,,,,,,,,,,,
296608,2022-10-04_16h35.33.945,vts_reward_expectancy,2022.2.4,MacIntel,59.99880002,Chrome,1440,900,,,,,0,621,,,,,,,,,,,,,,,,,181,W,triangle,1,0,,,,,,,,,,,,,,,,repeat,number,numRpt,f,1.088,noRew,,,,,,0,14,0,14,0,1,,,,,,,,,,,,,,,,,
296608,2022-10-04_16h35.33.945,vts_reward_expectancy,2022.2.4,MacIntel,59.99880002,Chrome,1440,900,,,,,0,621,,,,,,,,,,,,,,,,,167,D,circle,1,0,,,,,,,,,,,,,,,,switch,letter,lettSwt,j,0.664,noRew,,,,,,0,15,0,15,0,1,,,,,,,,,,,,,,,,,
296608,2022-10-04_16h35.33.945,vts_reward_expectancy,2022.2.4,MacIntel,59.99880002,Chrome,1440,900,,,,,0,621,,,,,,,,,,,,,,,,,181,H,star,1,0,,,,,,,,,,,,,,,,switch,number,numSwt,f,0.8145,noRew,,,,,,0,16,0,16,0,1,,,,,,,,,,,,,,,,,
296608,2022-10-04_16h35.33.945,vts_reward_expectancy,2022.2.4,MacIntel,59.99880002,Chrome,1440,900,,,,,0,621,,,,,,,,,,,,,,,,,139,F,triangle,1,0,,,,,,,,,,,,,,,,repeat,number,numRpt,d,1.0774,noRew,,,,,,0,17,0,17,0,1,,,,,,,,,,,,,,,,,
296608,2022-10-04_16h35.33.945,vts_reward_expectancy,2022.2.4,MacIntel,59.99880002,Chrome,1440,900,,,,,0,621,,,,,,,,,,,,,,,,,167,B,triangle,1,0,,,,,,,,,,,,,,,,switch,letter,lettSwt,j,0.5367,noRew,,,,,,0,18,0,18,0,1,,,,,,,,,,,,,,,,,
296608,2022-10-04_16h35.33.945,vts_reward_expectancy,2022.2.4,MacIntel,59.99880002,Chrome,1440,900,,,,,0,621,,,,,,,,,,,,,,,,,174,W,hexagon,1,0,,,,,,,,,,,,,,,,repeat,letter,lettRpt,k,0.5795,noRew,,,,,,0,19,0,19,0,1,,,,,,,,,,,,,,,,,
296608,2022-10-04_16h35.33.945,vts_reward_expectancy,2022.2.4,MacIntel,59.99880002,Chrome,1440,900,,,,,0,621,,,,,,,,,,,,,,,,,167,W,star,1,0,,,,,,,,,,,,,,,,repeat,letter,lettRpt,k,0.5988,noRew,,,,,,0,20,0,20,0,1,,,,,,,,,,,,,,,,,
296608,2022-10-04_16h35.33.945,vts_reward_expectancy,2022.2.4,MacIntel,59.99880002,Chrome,1440,900,,,,,0,621,,,,,,,,,,,,,,,,,174,S,hexagon,1,0,,,,,,,,,,,,,,,,repeat,letter,lettRpt,k,0.8195,noRew,,,,,,0,21,0,21,0,1,,,,,,,,,,,,,,,,,
296608,2022-10-04_16h35.33.945,vts_reward_expectancy,2022.2.4,MacIntel,59.99880002,Chrome,1440,900,,,,,0,621,,,,,,,,,,,,,,,,,146,U,triangle,1,0,,,,,,,,,,,,,,,,repeat,letter,lettRpt,k,0.8294,noRew,,,,,,0,22,0,22,0,1,,,,,,,,,,,,,,,,,
296608,2022-10-04_16h35.33.945,vts_reward_expectancy,2022.2.4,MacIntel,59.99880002,Chrome,1440,900,,,,,0,621,,,,,,,,,,,,,,,,,160,D,star,1,0,,,,,,,,,,,,,,,,switch,number,numSwt,f,0.8013,noRew,,,,,,0,23,0,23,0,1,,,,,,,,,,,,,,,,,
296608,2022-10-04_16h35.33.945,vts_reward_expectancy,2022.2.4,MacIntel,59.99880002,Chrome,1440,900,,,,,0,621,,,,,,,,,,,,,,,,,132,W,triangle,1,0,,,,,,,,,,,,,,,,repeat,number,numRpt,d,0.663,noRew,,,,,,0,24,0,24,0,1,,,,,,,,,,,,,,,,,
296608,2022-10-04_16h35.33.945,vts_reward_expectancy,2022.2.4,MacIntel,59.99880002,Chrome,1440,900,,,,,0,621,,,,,,,,,,,,,,,,,125,Y,hexagon,1,0,,,,,,,,,,,,,,,,switch,letter,lettSwt,k,0.7861,noRew,,,,,,0,25,0,25,0,1,,,,,,,,,,,,,,,,,
296608,2022-10-04_16h35.33.945,vts_reward_expectancy,2022.2.4,MacIntel,59.99880002,Chrome,1440,900,,,,,0,621,,,,,,,,,,,,,,,,,167,D,hexagon,1,0,,,,,,,,,,,,,,,,switch,number,numSwt,f,0.8476,noRew,,,,,,0,26,0,26,0,1,,,,,,,,,,,,,,,,,
296608,2022-10-04_16h35.33.945,vts_reward_expectancy,2022.2.4,MacIntel,59.99880002,Chrome,1440,900,,,,,0,621,,,,,,,,,,,,,,,,,146,B,triangle,1,0,,,,,,,,,,,,,,,,switch,letter,lettSwt,j,0.5983,noRew,,,,,,0,27,0,27,0,1,,,,,,,,,,,,,,,,,
296608,2022-10-04_16h35.33.945,vts_reward_expectancy,2022.2.4,MacIntel,59.99880002,Chrome,1440,900,,,,,0,621,,,,,,,,,,,,,,,,,174,W,circle,1,0,,,,,,,,,,,,,,,,switch,number,numSwt,f,1.0471,noRew,,,,,,0,28,0,28,0,1,,,,,,,,,,,,,,,,,
296608,2022-10-04_16h35.33.945,vts_reward_expectancy,2022.2.4,MacIntel,59.99880002,Chrome,1440,900,,,,,0,621,,,,,,,,,,,,,,,,,139,U,triangle,1,0,,,,,,,,,,,,,,,,switch,letter,lettSwt,k,0.8478,noRew,,,,,,0,29,0,29,0,1,,,,,,,,,,,,,,,,,
296608,2022-10-04_16h35.33.945,vts_reward_expectancy,2022.2.4,MacIntel,59.99880002,Chrome,1440,900,,,,,0,621,,,,,,,,,,,,,,,,,160,S,circle,1,0,,,,,,,,,,,,,,,,repeat,letter,lettRpt,k,0.7145,noRew,,,,,,0,30,0,30,0,1,,,,,,,,,,,,,,,,,
296608,2022-10-04_16h35.33.945,vts_reward_expectancy,2022.2.4,MacIntel,59.99880002,Chrome,1440,900,,,,,0,621,,,,,,,,,,,,,,,,,125,H,triangle,1,0,,,,,,,,,,,,,,,,repeat,letter,lettRpt,j,1.4175,noRew,,,,,,0,31,0,31,0,1,,,,,,,,,,,,,,,,,
296608,2022-10-04_16h35.33.945,vts_reward_expectancy,2022.2.4,MacIntel,59.99880002,Chrome,1440,900,,,,,0,621,,,,,,,,,,,,,,,,,160,B,star,0,0,,,,,,,,,,,,,,,,switch,number,NA,d,1.7321,noRew,,,,,,0,32,0,32,0,1,,,,,,,,,,,,,,,,,
296608,2022-10-04_16h35.33.945,vts_reward_expectancy,2022.2.4,MacIntel,59.99880002,Chrome,1440,900,,,,,0,621,,,,,,,,,,,,,,,,,181,F,hexagon,1,1,,,,,,,,,,,,,,,,repeat,number,numRpt,f,0.6822,noRew,,,,,,0,33,0,33,0,1,,,,,,,,,,,,,,,,,
296608,2022-10-04_16h35.33.945,vts_reward_expectancy,2022.2.4,MacIntel,59.99880002,Chrome,1440,900,,,,,0,621,,,,,,,,,,,,,,,,,174,U,hexagon,1,0,,,,,,,,,,,,,,,,switch,letter,lettSwt,k,1.1552,noRew,,,,,,0,34,0,34,0,1,,,,,,,,,,,,,,,,,
296608,2022-10-04_16h35.33.945,vts_reward_expectancy,2022.2.4,MacIntel,59.99880002,Chrome,1440,900,,,,,0,621,,,,,,,,,,,,,,,,,132,H,circle,1,0,,,,,,,,,,,,,,,,repeat,letter,lettRpt,j,0.9964,noRew,,,,,,0,35,0,35,0,1,,,,,,,,,,,,,,,,,
296608,2022-10-04_16h35.33.945,vts_reward_expectancy,2022.2.4,MacIntel,59.99880002,Chrome,1440,900,,,,,0,621,,,,,,,,,,,,,,,,,139,D,star,1,0,,,,,,,,,,,,,,,,switch,number,numSwt,d,2.1132,noRew,,,,,,0,36,0,36,0,1,,,,,,,,,,,,,,,,,
296608,2022-10-04_16h35.33.945,vts_reward_expectancy,2022.2.4,MacIntel,59.99880002,Chrome,1440,900,,,,,0,621,,,,,,,,,,,,,,,,,160,B,hexagon,0,0,,,,,,,,,,,,,,,,repeat,number,NA,d,1.1485,noRew,,,,,,0,37,0,37,0,1,,,,,,,,,,,,,,,,,
296608,2022-10-04_16h35.33.945,vts_reward_expectancy,2022.2.4,MacIntel,59.99880002,Chrome,1440,900,,,,,0,621,,,,,,,,,,,,,,,,,146,U,star,1,1,,,,,,,,,,,,,,,,repeat,number,numRpt,d,1.8673,noRew,,,,,,0,38,0,38,0,1,,,,,,,,,,,,,,,,,
296608,2022-10-04_16h35.33.945,vts_reward_expectancy,2022.2.4,MacIntel,59.99880002,Chrome,1440,900,,,,,0,621,,,,,,,,,,,,,,,,,181,W,hexagon,1,0,,,,,,,,,,,,,,,,repeat,number,numRpt,f,0.8802,noRew,,,,,,0,39,0,39,0,1,,,,,,,,,,,,,,,,,
296608,2022-10-04_16h35.33.945,vts_reward_expectancy,2022.2.4,MacIntel,59.99880002,Chrome,1440,900,,,,,0,621,,,,,,,,,,,,,,,,,181,D,hexagon,1,0,,,,,,,,,,,,,,,,switch,letter,lettSwt,j,0.6828,noRew,,,,,,0,40,0,40,0,1,,,,,,,,,,,,,,,,,
296608,2022-10-04_16h35.33.945,vts_reward_expectancy,2022.2.4,MacIntel,59.99880002,Chrome,1440,900,,,,,0,621,,,,,,,,,,,,,,,,,160,F,triangle,1,0,,,,,,,,,,,,,,,,repeat,letter,lettRpt,j,0.8668,noRew,,,,,,0,41,0,41,0,1,,,,,,,,,,,,,,,,,
296608,2022-10-04_16h35.33.945,vts_reward_expectancy,2022.2.4,MacIntel,59.99880002,Chrome,1440,900,,,,,0,621,,,,,,,,,,,,,,,,,139,S,hexagon,1,0,,,,,,,,,,,,,,,,repeat,letter,lettRpt,k,1.1304,noRew,,,,,,0,42,0,42,0,1,,,,,,,,,,,,,,,,,
296608,2022-10-04_16h35.33.945,vts_reward_expectancy,2022.2.4,MacIntel,59.99880002,Chrome,1440,900,,,,,0,621,,,,,,,,,,,,,,,,,146,B,triangle,1,0,,,,,,,,,,,,,,,,switch,number,numSwt,d,1.5309,noRew,,,,,,0,43,0,43,0,1,,,,,,,,,,,,,,,,,
296608,2022-10-04_16h35.33.945,vts_reward_expectancy,2022.2.4,MacIntel,59.99880002,Chrome,1440,900,,,,,0,621,,,,,,,,,,,,,,,,,167,U,hexagon,1,0,,,,,,,,,,,,,,,,repeat,number,numRpt,f,1.1144,noRew,,,,,,0,44,0,44,0,1,,,,,,,,,,,,,,,,,
296608,2022-10-04_16h35.33.945,vts_reward_expectancy,2022.2.4,MacIntel,59.99880002,Chrome,1440,900,,,,,0,621,,,,,,,,,,,,,,,,,146,F,star,1,0,,,,,,,,,,,,,,,,switch,letter,lettSwt,j,1.9222,noRew,,,,,,0,45,0,45,0,1,,,,,,,,,,,,,,,,,
296608,2022-10-04_16h35.33.945,vts_reward_expectancy,2022.2.4,MacIntel,59.99880002,Chrome,1440,900,,,,,0,621,,,,,,,,,,,,,,,,,132,Y,triangle,1,0,,,,,,,,,,,,,,,,switch,number,numSwt,d,0.8676,noRew,,,,,,0,46,0,46,0,1,,,,,,,,,,,,,,,,,
296608,2022-10-04_16h35.33.945,vts_reward_expectancy,2022.2.4,MacIntel,59.99880002,Chrome,1440,900,,,,,0,621,,,,,,,,,,,,,,,,,174,W,hexagon,1,0,,,,,,,,,,,,,,,,switch,letter,lettSwt,k,0.7634,noRew,,,,,,0,47,0,47,0,1,,,,,,,,,,,,,,,,,
296608,2022-10-04_16h35.33.945,vts_reward_expectancy,2022.2.4,MacIntel,59.99880002,Chrome,1440,900,,,,,0,621,,,,,,,,,,,,,,,,,167,H,triangle,1,0,,,,,,,,,,,,,,,,repeat,letter,lettRpt,j,1.2477,noRew,,,,,,0,48,0,48,0,1,,,,,,,,,,,,,,,,,
296608,2022-10-04_16h35.33.945,vts_reward_expectancy,2022.2.4,MacIntel,59.99880002,Chrome,1440,900,,,,,0,621,,,,,,,,,,,,,,,,,181,F,circle,1,0,,,,,,,,,,,,,,,,switch,number,numSwt,f,1.5176,noRew,,,,,,0,49,0,49,0,1,,,,,,,,,,,,,,,,,
296608,2022-10-04_16h35.33.945,vts_reward_expectancy,2022.2.4,MacIntel,59.99880002,Chrome,1440,900,,,,,0,621,,,,,,,,,,,,,,,,,125,W,circle,1,0,,,,,,,,,,,,,,,,switch,letter,lettSwt,k,1.5854,noRew,,,,,,0,50,0,50,0,1,,,,,,,,,,,,,,,,,
296608,2022-10-04_16h35.33.945,vts_reward_expectancy,2022.2.4,MacIntel,59.99880002,Chrome,1440,900,,,,,0,621,,,,,,,,,,,,,,,,,139,B,triangle,1,0,,,,,,,,,,,,,,,,repeat,letter,lettRpt,j,2.4135,noRew,,,,,,0,51,0,51,0,1,,,,,,,,,,,,,,,,,
296608,2022-10-04_16h35.33.945,vts_reward_expectancy,2022.2.4,MacIntel,59.99880002,Chrome,1440,900,,,,,0,621,,,,,,,,,,,,,,,,,139,S,hexagon,1,0,,,,,,,,,,,,,,,,switch,number,numSwt,d,2.5327,noRew,,,,,,0,52,0,52,0,1,,,,,,,,,,,,,,,,,
296608,2022-10-04_16h35.33.945,vts_reward_expectancy,2022.2.4,MacIntel,59.99880002,Chrome,1440,900,,,,,0,621,,,,,,,,,,,,,,,,,132,W,triangle,1,0,,,,,,,,,,,,,,,,switch,letter,lettSwt,k,1.0972,noRew,,,,,,0,53,0,53,0,1,,,,,,,,,,,,,,,,,
296608,2022-10-04_16h35.33.945,vts_reward_expectancy,2022.2.4,MacIntel,59.99880002,Chrome,1440,900,,,,,0,621,,,,,,,,,,,,,,,,,181,F,hexagon,1,0,,,,,,,,,,,,,,,,repeat,letter,lettRpt,j,1.281,noRew,,,,,,0,54,0,54,0,1,,,,,,,,,,,,,,,,,
296608,2022-10-04_16h35.33.945,vts_reward_expectancy,2022.2.4,MacIntel,59.99880002,Chrome,1440,900,,,,,0,621,,,,,,,,,,,,,,,,,125,U,star,1,0,,,,,,,,,,,,,,,,switch,number,numSwt,d,1.6135,noRew,,,,,,0,55,0,55,0,1,,,,,,,,,,,,,,,,,
296608,2022-10-04_16h35.33.945,vts_reward_expectancy,2022.2.4,MacIntel,59.99880002,Chrome,1440,900,,,,,0,621,,,,,,,,,,,,,,,,,132,Y,circle,1,0,,,,,,,,,,,,,,,,switch,letter,lettSwt,k,0.7671,noRew,,,,,,0,56,0,56,0,1,,,,,,,,,,,,,,,,,
296608,2022-10-04_16h35.33.945,vts_reward_expectancy,2022.2.4,MacIntel,59.99880002,Chrome,1440,900,,,,,0,621,,,,,,,,,,,,,,,,,160,W,star,1,0,,,,,,,,,,,,,,,,repeat,letter,lettRpt,k,1.647,noRew,,,,,,0,57,0,57,0,1,,,,,,,,,,,,,,,,,
296608,2022-10-04_16h35.33.945,vts_reward_expectancy,2022.2.4,MacIntel,59.99880002,Chrome,1440,900,,,,,0,621,,,,,,,,,,,,,,,,,139,D,circle,1,0,,,,,,,,,,,,,,,,switch,number,numSwt,d,0.7466,noRew,,,,,,0,58,0,58,0,1,,,,,,,,,,,,,,,,,
296608,2022-10-04_16h35.33.945,vts_reward_expectancy,2022.2.4,MacIntel,59.99880002,Chrome,1440,900,,,,,0,621,,,,,,,,,,,,,,,,,167,F,star,1,0,,,,,,,,,,,,,,,,repeat,number,numRpt,f,1.0811,noRew,,,,,,0,59,0,59,0,1,,,,,,,,,,,,,,,,,
296608,2022-10-04_16h35.33.945,vts_reward_expectancy,2022.2.4,MacIntel,59.99880002,Chrome,1440,900,,,,,0,621,,,,,,,,,,,,,,,,,146,F,circle,1,0,,,,,,,,,,,,,,,,repeat,number,numRpt,d,0.6994,noRew,,,,,,0,60,0,60,0,1,,,,,,,,,,,,,,,,,
296608,2022-10-04_16h35.33.945,vts_reward_expectancy,2022.2.4,MacIntel,59.99880002,Chrome,1440,900,,,,,0,621,,,,,,,,,,,,,,,,,181,H,hexagon,1,0,,,,,,,,,,,,,,,,repeat,number,numRpt,f,1.3318,noRew,,,,,,0,61,0,61,0,1,,,,,,,,,,,,,,,,,
296608,2022-10-04_16h35.33.945,vts_reward_expectancy,2022.2.4,MacIntel,59.99880002,Chrome,1440,900,,,,,0,621,,,,,,,,,,,,,,,,,125,Y,star,1,0,,,,,,,,,,,,,,,,switch,letter,lettSwt,k,0.6303,noRew,,,,,,0,62,0,62,0,1,,,,,,,,,,,,,,,,,
296608,2022-10-04_16h35.33.945,vts_reward_expectancy,2022.2.4,MacIntel,59.99880002,Chrome,1440,900,,,,,0,621,,,,,,,,,,,,,,,,,160,W,circle,1,0,,,,,,,,,,,,,,,,repeat,letter,lettRpt,k,0.7137,noRew,,,,,,0,63,0,63,0,1,,,,,,,,,,,,,,,,,
296608,2022-10-04_16h35.33.945,vts_reward_expectancy,2022.2.4,MacIntel,59.99880002,Chrome,1440,900,,,,,,,,,,,,,,,,,,,,,,,,,,,,,,,,,,,,,,,,,,,,,,,,,,,,,,,,,,,,,,,,,,,,,,,,,,,,
296608,2022-10-04_16h35.33.945,vts_reward_expectancy,2022.2.4,MacIntel,59.99880002,Chrome,1440,900,,,,,10,631,,,,,,,,,,,,,,,,,160,S,circle,1,0,,,,,,,,,,,,,,,,switch,number,numSwt,f,0.5852,Hi,,,,,,0,,,,,,space,4.8678,high,0,0,0,0,1,,,,,,,,,
296608,2022-10-04_16h35.33.945,vts_reward_expectancy,2022.2.4,MacIntel,59.99880002,Chrome,1440,900,,,,,1,632,,,,,,,,,,,,,,,,,132,F,triangle,1,0,,,,,,,,,,,,,,,,repeat,number,numRpt,d,0.698,Lo,,,,,,0,,,,,,,,high,1,0,1,0,1,,,,,,,,,
296608,2022-10-04_16h35.33.945,vts_reward_expectancy,2022.2.4,MacIntel,59.99880002,Chrome,1440,900,,,,,10,642,,,,,,,,,,,,,,,,,139,U,circle,1,0,,,,,,,,,,,,,,,,repeat,number,numRpt,d,0.5803,Hi,,,,,,0,,,,,,,,high,2,0,2,0,1,,,,,,,,,
296608,2022-10-04_16h35.33.945,vts_reward_expectancy,2022.2.4,MacIntel,59.99880002,Chrome,1440,900,,,,,1,643,,,,,,,,,,,,,,,,,167,B,triangle,1,0,,,,,,,,,,,,,,,,switch,letter,lettSwt,j,0.6151,Lo,,,,,,0,,,,,,,,high,3,0,3,0,1,,,,,,,,,
296608,2022-10-04_16h35.33.945,vts_reward_expectancy,2022.2.4,MacIntel,59.99880002,Chrome,1440,900,,,,,1,644,,,,,,,,,,,,,,,,,125,H,triangle,1,0,,,,,,,,,,,,,,,,repeat,letter,lettRpt,j,1.3989,Lo,,,,,,0,,,,,,,,high,4,0,4,0,1,,,,,,,,,
296608,2022-10-04_16h35.33.945,vts_reward_expectancy,2022.2.4,MacIntel,59.99880002,Chrome,1440,900,,,,,10,654,,,,,,,,,,,,,,,,,181,D,circle,1,0,,,,,,,,,,,,,,,,switch,number,numSwt,f,0.8311,Hi,,,,,,0,,,,,,,,high,5,0,5,0,1,,,,,,,,,
296608,2022-10-04_16h35.33.945,vts_reward_expectancy,2022.2.4,MacIntel,59.99880002,Chrome,1440,900,,,,,0,654,,,,,,,,,,,,,,,,,174,W,circle,1,0,,,,,,,,,,,,,,,,repeat,number,numRpt,f,0.8848,Hi,,,,,,0,,,,,,,,high,6,0,6,0,1,,,,,,,,,
296608,2022-10-04_16h35.33.945,vts_reward_expectancy,2022.2.4,MacIntel,59.99880002,Chrome,1440,900,,,,,1,655,,,,,,,,,,,,,,,,,146,Y,triangle,1,0,,,,,,,,,,,,,,,,repeat,number,numRpt,d,0.4144,Lo,,,,,,0,,,,,,,,high,7,0,7,0,1,,,,,,,,,
296608,2022-10-04_16h35.33.945,vts_reward_expectancy,2022.2.4,MacIntel,59.99880002,Chrome,1440,900,,,,,1,656,,,,,,,,,,,,,,,,,160,S,triangle,1,0,,,,,,,,,,,,,,,,repeat,number,numRpt,f,0.5495,Lo,,,,,,0,,,,,,,,high,8,0,8,0,1,,,,,,,,,
296608,2022-10-04_16h35.33.945,vts_reward_expectancy,2022.2.4,MacIntel,59.99880002,Chrome,1440,900,,,,,10,666,,,,,,,,,,,,,,,,,132,F,circle,1,0,,,,,,,,,,,,,,,,repeat,number,numRpt,d,0.4477,Hi,,,,,,0,,,,,,,,high,9,0,9,0,1,,,,,,,,,
296608,2022-10-04_16h35.33.945,vts_reward_expectancy,2022.2.4,MacIntel,59.99880002,Chrome,1440,900,,,,,1,667,,,,,,,,,,,,,,,,,139,U,triangle,1,0,,,,,,,,,,,,,,,,switch,letter,lettSwt,k,0.4641,Lo,,,,,,0,,,,,,,,high,10,0,10,0,1,,,,,,,,,
296608,2022-10-04_16h35.33.945,vts_reward_expectancy,2022.2.4,MacIntel,59.99880002,Chrome,1440,900,,,,,10,677,,,,,,,,,,,,,,,,,167,B,circle,1,0,,,,,,,,,,,,,,,,repeat,letter,lettRpt,j,0.4974,Hi,,,,,,0,,,,,,,,high,11,0,11,0,1,,,,,,,,,
296608,2022-10-04_16h35.33.945,vts_reward_expectancy,2022.2.4,MacIntel,59.99880002,Chrome,1440,900,,,,,0,677,,,,,,,,,,,,,,,,,125,H,circle,1,0,,,,,,,,,,,,,,,,repeat,letter,lettRpt,j,1.0298,Hi,,,,,,0,,,,,,,,high,12,0,12,0,1,,,,,,,,,
296608,2022-10-04_16h35.33.945,vts_reward_expectancy,2022.2.4,MacIntel,59.99880002,Chrome,1440,900,,,,,1,678,,,,,,,,,,,,,,,,,181,D,triangle,1,0,,,,,,,,,,,,,,,,repeat,letter,lettRpt,j,0.4295,Lo,,,,,,0,,,,,,,,high,13,0,13,0,1,,,,,,,,,
296608,2022-10-04_16h35.33.945,vts_reward_expectancy,2022.2.4,MacIntel,59.99880002,Chrome,1440,900,,,,,1,679,,,,,,,,,,,,,,,,,174,W,triangle,1,0,,,,,,,,,,,,,,,,switch,number,numSwt,f,0.6368,Lo,,,,,,0,,,,,,,,high,14,0,14,0,1,,,,,,,,,
296608,2022-10-04_16h35.33.945,vts_reward_expectancy,2022.2.4,MacIntel,59.99880002,Chrome,1440,900,,,,,1,680,,,,,,,,,,,,,,,,,146,Y,circle,1,0,,,,,,,,,,,,,,,,repeat,number,numRpt,d,0.4822,Hi,,,,,,0,,,,,,,,high,15,0,15,0,1,,,,,,,,,
296608,2022-10-04_16h35.33.945,vts_reward_expectancy,2022.2.4,MacIntel,59.99880002,Chrome,1440,900,,,,,0,680,,,,,,,,,,,,,,,,,146,B,triangle,0,0,,,,,,,,,,,,,,,,repeat,number,NA,f,0.5857,Hi,,,,,,0,,,,,,,,high,16,0,16,0,1,,,,,,,,,
296608,2022-10-04_16h35.33.945,vts_reward_expectancy,2022.2.4,MacIntel,59.99880002,Chrome,1440,900,,,,,10,690,,,,,,,,,,,,,,,,,160,S,circle,1,1,,,,,,,,,,,,,,,,switch,letter,lettSwt,k,0.5465,Hi,,,,,,0,,,,,,,,high,17,0,17,0,1,,,,,,,,,
296608,2022-10-04_16h35.33.945,vts_reward_expectancy,2022.2.4,MacIntel,59.99880002,Chrome,1440,900,,,,,10,700,,,,,,,,,,,,,,,,,167,Y,circle,1,0,,,,,,,,,,,,,,,,repeat,letter,lettRpt,k,0.5476,Hi,,,,,,0,,,,,,,,high,18,0,18,0,1,,,,,,,,,
296608,2022-10-04_16h35.33.945,vts_reward_expectancy,2022.2.4,MacIntel,59.99880002,Chrome,1440,900,,,,,0,700,,,,,,,,,,,,,,,,,139,F,triangle,0,0,,,,,,,,,,,,,,,,repeat,letter,NA,k,0.5638,Hi,,,,,,0,,,,,,,,high,19,0,19,0,1,,,,,,,,,
296608,2022-10-04_16h35.33.945,vts_reward_expectancy,2022.2.4,MacIntel,59.99880002,Chrome,1440,900,,,,,1,701,,,,,,,,,,,,,,,,,174,D,triangle,1,1,,,,,,,,,,,,,,,,switch,number,numSwt,f,0.4664,Lo,,,,,,0,,,,,,,,high,20,0,20,0,1,,,,,,,,,
296608,2022-10-04_16h35.33.945,vts_reward_expectancy,2022.2.4,MacIntel,59.99880002,Chrome,1440,900,,,,,10,711,,,,,,,,,,,,,,,,,181,U,circle,1,0,,,,,,,,,,,,,,,,repeat,number,numRpt,f,0.3977,Hi,,,,,,0,,,,,,,,high,21,0,21,0,1,,,,,,,,,
296608,2022-10-04_16h35.33.945,vts_reward_expectancy,2022.2.4,MacIntel,59.99880002,Chrome,1440,900,,,,,10,721,,,,,,,,,,,,,,,,,132,H,circle,1,0,,,,,,,,,,,,,,,,repeat,number,numRpt,d,0.67,Hi,,,,,,0,,,,,,,,high,22,0,22,0,1,,,,,,,,,
296608,2022-10-04_16h35.33.945,vts_reward_expectancy,2022.2.4,MacIntel,59.99880002,Chrome,1440,900,,,,,1,722,,,,,,,,,,,,,,,,,125,W,triangle,1,0,,,,,,,,,,,,,,,,switch,letter,lettSwt,k,0.5465,Lo,,,,,,0,,,,,,,,high,23,0,23,0,1,,,,,,,,,
296608,2022-10-04_16h35.33.945,vts_reward_expectancy,2022.2.4,MacIntel,59.99880002,Chrome,1440,900,,,,,1,723,,,,,,,,,,,,,,,,,132,W,triangle,1,0,,,,,,,,,,,,,,,,repeat,letter,lettRpt,k,0.6981,Lo,,,,,,0,,,,,,,,high,24,0,24,0,1,,,,,,,,,
296608,2022-10-04_16h35.33.945,vts_reward_expectancy,2022.2.4,MacIntel,59.99880002,Chrome,1440,900,,,,,10,733,,,,,,,,,,,,,,,,,167,S,circle,1,0,,,,,,,,,,,,,,,,switch,number,numSwt,f,0.5139,Hi,,,,,,0,,,,,,,,high,25,0,25,0,1,,,,,,,,,
296608,2022-10-04_16h35.33.945,vts_reward_expectancy,2022.2.4,MacIntel,59.99880002,Chrome,1440,900,,,,,10,743,,,,,,,,,,,,,,,,,146,B,circle,1,0,,,,,,,,,,,,,,,,switch,letter,lettSwt,j,0.6311,Hi,,,,,,0,,,,,,,,high,26,0,26,0,1,,,,,,,,,
296608,2022-10-04_16h35.33.945,vts_reward_expectancy,2022.2.4,MacIntel,59.99880002,Chrome,1440,900,,,,,10,753,,,,,,,,,,,,,,,,,125,U,triangle,1,0,,,,,,,,,,,,,,,,repeat,letter,lettRpt,k,0.5177,Lo,,,,,,0,,,,,,,,high,27,0,27,0,1,,,,,,,,,
296608,2022-10-04_16h35.33.945,vts_reward_expectancy,2022.2.4,MacIntel,59.99880002,Chrome,1440,900,,,,,10,763,,,,,,,,,,,,,,,,,160,F,circle,1,0,,,,,,,,,,,,,,,,switch,number,numSwt,f,0.53,Hi,,,,,,0,,,,,,,,high,28,0,28,0,1,,,,,,,,,
296608,2022-10-04_16h35.33.945,vts_reward_expectancy,2022.2.4,MacIntel,59.99880002,Chrome,1440,900,,,,,1,764,,,,,,,,,,,,,,,,,139,D,triangle,1,0,,,,,,,,,,,,,,,,repeat,number,numRpt,d,0.4343,Lo,,,,,,0,,,,,,,,high,29,0,29,0,1,,,,,,,,,
296608,2022-10-04_16h35.33.945,vts_reward_expectancy,2022.2.4,MacIntel,59.99880002,Chrome,1440,900,,,,,10,774,,,,,,,,,,,,,,,,,181,Y,triangle,1,0,,,,,,,,,,,,,,,,repeat,number,numRpt,f,0.5516,Lo,,,,,,0,,,,,,,,high,30,0,30,0,1,,,,,,,,,
296608,2022-10-04_16h35.33.945,vts_reward_expectancy,2022.2.4,MacIntel,59.99880002,Chrome,1440,900,,,,,10,784,,,,,,,,,,,,,,,,,174,H,circle,1,0,,,,,,,,,,,,,,,,switch,letter,lettSwt,j,0.5536,Hi,,,,,,0,,,,,,,,high,31,0,31,0,1,,,,,,,,,
296608,2022-10-04_16h35.33.945,vts_reward_expectancy,2022.2.4,MacIntel,59.99880002,Chrome,1440,900,,,,,0,784,,,,,,,,,,,,,,,,,160,B,star,1,0,,,,,,,,,,,,,,,,switch,number,numSwt,f,0.5309,Hi,,,,,,1,,,,,,space,1.973,low,0,0,0,0,1,,,,,,,,,
296608,2022-10-04_16h35.33.945,vts_reward_expectancy,2022.2.4,MacIntel,59.99880002,Chrome,1440,900,,,,,1,785,,,,,,,,,,,,,,,,,146,S,hexagon,1,0,,,,,,,,,,,,,,,,switch,letter,lettSwt,k,0.3857,Lo,,,,,,1,,,,,,,,low,1,0,1,0,1,,,,,,,,,
296608,2022-10-04_16h35.33.945,vts_reward_expectancy,2022.2.4,MacIntel,59.99880002,Chrome,1440,900,,,,,0,785,,,,,,,,,,,,,,,,,132,H,star,0,0,,,,,,,,,,,,,,,,repeat,letter,NA,k,0.4143,Lo,,,,,,1,,,,,,,,low,2,0,2,0,1,,,,,,,,,
296608,2022-10-04_16h35.33.945,vts_reward_expectancy,2022.2.4,MacIntel,59.99880002,Chrome,1440,900,,,,,1,786,,,,,,,,,,,,,,,,,139,D,hexagon,1,1,,,,,,,,,,,,,,,,repeat,letter,lettRpt,j,0.548,Lo,,,,,,1,,,,,,,,low,3,0,3,0,1,,,,,,,,,
296608,2022-10-04_16h35.33.945,vts_reward_expectancy,2022.2.4,MacIntel,59.99880002,Chrome,1440,900,,,,,1,787,,,,,,,,,,,,,,,,,167,Y,hexagon,1,0,,,,,,,,,,,,,,,,repeat,letter,lettRpt,k,0.5297,Lo,,,,,,1,,,,,,,,low,4,0,4,0,1,,,,,,,,,
296608,2022-10-04_16h35.33.945,vts_reward_expectancy,2022.2.4,MacIntel,59.99880002,Chrome,1440,900,,,,,1,788,,,,,,,,,,,,,,,,,174,F,star,1,0,,,,,,,,,,,,,,,,switch,number,numSwt,f,0.4017,Hi,,,,,,1,,,,,,,,low,5,0,5,0,1,,,,,,,,,
296608,2022-10-04_16h35.33.945,vts_reward_expectancy,2022.2.4,MacIntel,59.99880002,Chrome,1440,900,,,,,0,788,,,,,,,,,,,,,,,,,181,W,star,1,0,,,,,,,,,,,,,,,,repeat,number,numRpt,f,0.4644,Hi,,,,,,1,,,,,,,,low,6,0,6,0,1,,,,,,,,,
296608,2022-10-04_16h35.33.945,vts_reward_expectancy,2022.2.4,MacIntel,59.99880002,Chrome,1440,900,,,,,0,788,,,,,,,,,,,,,,,,,125,U,hexagon,0,0,,,,,,,,,,,,,,,,repeat,number,NA,f,0.7136,Hi,,,,,,1,,,,,,,,low,7,0,7,0,1,,,,,,,,,
296608,2022-10-04_16h35.33.945,vts_reward_expectancy,2022.2.4,MacIntel,59.99880002,Chrome,1440,900,,,,,1,789,,,,,,,,,,,,,,,,,160,B,hexagon,1,1,,,,,,,,,,,,,,,,repeat,number,numRpt,f,0.4303,Lo,,,,,,1,,,,,,,,low,8,0,8,0,1,,,,,,,,,
296608,2022-10-04_16h35.33.945,vts_reward_expectancy,2022.2.4,MacIntel,59.99880002,Chrome,1440,900,,,,,10,799,,,,,,,,,,,,,,,,,146,S,star,1,0,,,,,,,,,,,,,,,,repeat,number,numRpt,d,0.2668,Hi,,,,,,1,,,,,,,,low,9,0,9,0,1,,,,,,,,,
296608,2022-10-04_16h35.33.945,vts_reward_expectancy,2022.2.4,MacIntel,59.99880002,Chrome,1440,900,,,,,0,799,,,,,,,,,,,,,,,,,132,H,hexagon,0,0,,,,,,,,,,,,,,,,switch,letter,NA,k,0.4646,Hi,,,,,,1,,,,,,,,low,10,0,10,0,1,,,,,,,,,
296608,2022-10-04_16h35.33.945,vts_reward_expectancy,2022.2.4,MacIntel,59.99880002,Chrome,1440,900,,,,,0,799,,,,,,,,,,,,,,,,,139,D,star,0,1,,,,,,,,,,,,,,,,switch,number,NA,f,0.4139,Hi,,,,,,1,,,,,,,,low,11,0,11,0,1,,,,,,,,,
296608,2022-10-04_16h35.33.945,vts_reward_expectancy,2022.2.4,MacIntel,59.99880002,Chrome,1440,900,,,,,1,800,,,,,,,,,,,,,,,,,167,Y,hexagon,1,1,,,,,,,,,,,,,,,,switch,letter,lettSwt,k,0.4469,Lo,,,,,,1,,,,,,,,low,12,0,12,0,1,,,,,,,,,
296608,2022-10-04_16h35.33.945,vts_reward_expectancy,2022.2.4,MacIntel,59.99880002,Chrome,1440,900,,,,,1,801,,,,,,,,,,,,,,,,,174,F,star,1,0,,,,,,,,,,,,,,,,switch,number,numSwt,f,0.4127,Hi,,,,,,1,,,,,,,,low,13,0,13,0,1,,,,,,,,,
296608,2022-10-04_16h35.33.945,vts_reward_expectancy,2022.2.4,MacIntel,59.99880002,Chrome,1440,900,,,,,0,801,,,,,,,,,,,,,,,,,181,W,star,1,0,,,,,,,,,,,,,,,,repeat,number,numRpt,f,0.4792,Hi,,,,,,1,,,,,,,,low,14,0,14,0,1,,,,,,,,,
296608,2022-10-04_16h35.33.945,vts_reward_expectancy,2022.2.4,MacIntel,59.99880002,Chrome,1440,900,,,,,1,802,,,,,,,,,,,,,,,,,125,U,hexagon,1,0,,,,,,,,,,,,,,,,repeat,number,numRpt,d,0.5664,Lo,,,,,,1,,,,,,,,low,15,0,15,0,1,,,,,,,,,
296608,2022-10-04_16h35.33.945,vts_reward_expectancy,2022.2.4,MacIntel,59.99880002,Chrome,1440,900,,,,,0,802,,,,,,,,,,,,,,,,,146,U,star,1,0,,,,,,,,,,,,,,,,repeat,number,numRpt,d,0.5667,Hi,,,,,,1,,,,,,,,low,16,0,16,0,1,,,,,,,,,
296608,2022-10-04_16h35.33.945,vts_reward_expectancy,2022.2.4,MacIntel,59.99880002,Chrome,1440,900,,,,,10,812,,,,,,,,,,,,,,,,,139,Y,hexagon,1,0,,,,,,,,,,,,,,,,repeat,number,numRpt,d,0.6134,Lo,,,,,,1,,,,,,,,low,17,0,17,0,1,,,,,,,,,
296608,2022-10-04_16h35.33.945,vts_reward_expectancy,2022.2.4,MacIntel,59.99880002,Chrome,1440,900,,,,,0,812,,,,,,,,,,,,,,,,,181,S,star,0,0,,,,,,,,,,,,,,,,switch,letter,NA,j,0.3343,Lo,,,,,,1,,,,,,,,low,18,0,18,0,1,,,,,,,,,
296608,2022-10-04_16h35.33.945,vts_reward_expectancy,2022.2.4,MacIntel,59.99880002,Chrome,1440,900,,,,,1,813,,,,,,,,,,,,,,,,,132,W,hexagon,1,1,,,,,,,,,,,,,,,,switch,number,numSwt,d,0.5812,Lo,,,,,,1,,,,,,,,low,19,0,19,0,1,,,,,,,,,
296608,2022-10-04_16h35.33.945,vts_reward_expectancy,2022.2.4,MacIntel,59.99880002,Chrome,1440,900,,,,,10,823,,,,,,,,,,,,,,,,,125,B,star,1,0,,,,,,,,,,,,,,,,switch,letter,lettSwt,j,0.4316,Hi,,,,,,1,,,,,,,,low,20,0,20,0,1,,,,,,,,,
296608,2022-10-04_16h35.33.945,vts_reward_expectancy,2022.2.4,MacIntel,59.99880002,Chrome,1440,900,,,,,1,824,,,,,,,,,,,,,,,,,167,H,hexagon,1,0,,,,,,,,,,,,,,,,repeat,letter,lettRpt,j,0.6801,Lo,,,,,,1,,,,,,,,low,21,0,21,0,1,,,,,,,,,
296608,2022-10-04_16h35.33.945,vts_reward_expectancy,2022.2.4,MacIntel,59.99880002,Chrome,1440,900,,,,,1,825,,,,,,,,,,,,,,,,,174,D,star,1,0,,,,,,,,,,,,,,,,repeat,letter,lettRpt,j,0.4303,Hi,,,,,,1,,,,,,,,low,22,0,22,0,1,,,,,,,,,
296608,2022-10-04_16h35.33.945,vts_reward_expectancy,2022.2.4,MacIntel,59.99880002,Chrome,1440,900,,,,,10,835,,,,,,,,,,,,,,,,,160,F,hexagon,1,0,,,,,,,,,,,,,,,,switch,number,numSwt,f,0.586,Lo,,,,,,1,,,,,,,,low,23,0,23,0,1,,,,,,,,,
296608,2022-10-04_16h35.33.945,vts_reward_expectancy,2022.2.4,MacIntel,59.99880002,Chrome,1440,900,,,,,10,845,,,,,,,,,,,,,,,,,181,F,star,1,0,,,,,,,,,,,,,,,,switch,letter,lettSwt,j,0.4368,Hi,,,,,,1,,,,,,,,low,24,0,24,0,1,,,,,,,,,
296608,2022-10-04_16h35.33.945,vts_reward_expectancy,2022.2.4,MacIntel,59.99880002,Chrome,1440,900,,,,,1,846,,,,,,,,,,,,,,,,,160,U,hexagon,1,0,,,,,,,,,,,,,,,,switch,number,numSwt,f,0.6045,Lo,,,,,,1,,,,,,,,low,25,0,25,0,1,,,,,,,,,
296608,2022-10-04_16h35.33.945,vts_reward_expectancy,2022.2.4,MacIntel,59.99880002,Chrome,1440,900,,,,,10,856,,,,,,,,,,,,,,,,,132,B,star,1,0,,,,,,,,,,,,,,,,repeat,number,numRpt,d,0.4474,Hi,,,,,,1,,,,,,,,low,26,0,26,0,1,,,,,,,,,
296608,2022-10-04_16h35.33.945,vts_reward_expectancy,2022.2.4,MacIntel,59.99880002,Chrome,1440,900,,,,,10,866,,,,,,,,,,,,,,,,,174,Y,hexagon,1,0,,,,,,,,,,,,,,,,repeat,number,numRpt,f,0.446,Lo,,,,,,1,,,,,,,,low,27,0,27,0,1,,,,,,,,,
296608,2022-10-04_16h35.33.945,vts_reward_expectancy,2022.2.4,MacIntel,59.99880002,Chrome,1440,900,,,,,0,866,,,,,,,,,,,,,,,,,139,W,star,1,0,,,,,,,,,,,,,,,,repeat,number,numRpt,d,0.8484,Hi,,,,,,1,,,,,,,,low,28,0,28,0,1,,,,,,,,,
296608,2022-10-04_16h35.33.945,vts_reward_expectancy,2022.2.4,MacIntel,59.99880002,Chrome,1440,900,,,,,1,867,,,,,,,,,,,,,,,,,167,D,hexagon,1,0,,,,,,,,,,,,,,,,repeat,number,numRpt,f,0.5132,Lo,,,,,,1,,,,,,,,low,29,0,29,0,1,,,,,,,,,
296608,2022-10-04_16h35.33.945,vts_reward_expectancy,2022.2.4,MacIntel,59.99880002,Chrome,1440,900,,,,,0,867,,,,,,,,,,,,,,,,,125,S,star,1,0,,,,,,,,,,,,,,,,repeat,number,numRpt,d,0.4674,Hi,,,,,,1,,,,,,,,low,30,0,30,0,1,,,,,,,,,
296608,2022-10-04_16h35.33.945,vts_reward_expectancy,2022.2.4,MacIntel,59.99880002,Chrome,1440,900,,,,,0,867,,,,,,,,,,,,,,,,,146,H,hexagon,0,0,,,,,,,,,,,,,,,,repeat,number,NA,f,0.4351,Hi,,,,,,1,,,,,,,,low,31,0,31,0,1,,,,,,,,,
296608,2022-10-04_16h35.33.945,vts_reward_expectancy,2022.2.4,MacIntel,59.99880002,Chrome,1440,900,,,,,10,877,,,,,,,,,,,,,,,,,181,S,hexagon,1,1,,,,,,,,,,,,,,,,repeat,number,numRpt,f,0.3999,Lo,,,,,,2,,,,,,space,15.6696,low,0,0,0,0,1,,,,,,,,,
296608,2022-10-04_16h35.33.945,vts_reward_expectancy,2022.2.4,MacIntel,59.99880002,Chrome,1440,900,,,,,0,877,,,,,,,,,,,,,,,,,125,D,star,1,0,,,,,,,,,,,,,,,,switch,letter,lettSwt,j,0.4548,Hi,,,,,,2,,,,,,,,low,1,0,1,0,1,,,,,,,,,
296608,2022-10-04_16h35.33.945,vts_reward_expectancy,2022.2.4,MacIntel,59.99880002,Chrome,1440,900,,,,,0,877,,,,,,,,,,,,,,,,,167,W,hexagon,0,0,,,,,,,,,,,,,,,,repeat,letter,NA,j,0.3973,Hi,,,,,,2,,,,,,,,low,2,0,2,0,1,,,,,,,,,
296608,2022-10-04_16h35.33.945,vts_reward_expectancy,2022.2.4,MacIntel,59.99880002,Chrome,1440,900,,,,,1,878,,,,,,,,,,,,,,,,,139,B,star,1,1,,,,,,,,,,,,,,,,repeat,letter,lettRpt,j,0.396,Hi,,,,,,2,,,,,,,,low,3,0,3,0,1,,,,,,,,,
296608,2022-10-04_16h35.33.945,vts_reward_expectancy,2022.2.4,MacIntel,59.99880002,Chrome,1440,900,,,,,1,879,,,,,,,,,,,,,,,,,132,Y,star,1,0,,,,,,,,,,,,,,,,repeat,letter,lettRpt,k,0.3961,Hi,,,,,,2,,,,,,,,low,4,0,4,0,1,,,,,,,,,
296608,2022-10-04_16h35.33.945,vts_reward_expectancy,2022.2.4,MacIntel,59.99880002,Chrome,1440,900,,,,,1,880,,,,,,,,,,,,,,,,,160,F,hexagon,1,0,,,,,,,,,,,,,,,,repeat,letter,lettRpt,j,0.5435,Lo,,,,,,2,,,,,,,,low,5,0,5,0,1,,,,,,,,,
296608,2022-10-04_16h35.33.945,vts_reward_expectancy,2022.2.4,MacIntel,59.99880002,Chrome,1440,900,,,,,0,880,,,,,,,,,,,,,,,,,146,H,star,1,0,,,,,,,,,,,,,,,,switch,number,numSwt,d,0.6047,Hi,,,,,,2,,,,,,,,low,6,0,6,0,1,,,,,,,,,
296608,2022-10-04_16h35.33.945,vts_reward_expectancy,2022.2.4,MacIntel,59.99880002,Chrome,1440,900,,,,,1,881,,,,,,,,,,,,,,,,,174,U,hexagon,1,0,,,,,,,,,,,,,,,,repeat,number,numRpt,f,0.4806,Lo,,,,,,2,,,,,,,,low,7,0,7,0,1,,,,,,,,,
296608,2022-10-04_16h35.33.945,vts_reward_expectancy,2022.2.4,MacIntel,59.99880002,Chrome,1440,900,,,,,10,891,,,,,,,,,,,,,,,,,181,S,star,1,0,,,,,,,,,,,,,,,,repeat,number,numRpt,f,0.4151,Hi,,,,,,2,,,,,,,,low,8,0,8,0,1,,,,,,,,,
296608,2022-10-04_16h35.33.945,vts_reward_expectancy,2022.2.4,MacIntel,59.99880002,Chrome,1440,900,,,,,1,892,,,,,,,,,,,,,,,,,125,D,hexagon,1,0,,,,,,,,,,,,,,,,switch,letter,lettSwt,j,0.4811,Lo,,,,,,2,,,,,,,,low,9,0,9,0,1,,,,,,,,,
296608,2022-10-04_16h35.33.945,vts_reward_expectancy,2022.2.4,MacIntel,59.99880002,Chrome,1440,900,,,,,1,893,,,,,,,,,,,,,,,,,167,W,hexagon,1,0,,,,,,,,,,,,,,,,switch,number,numSwt,f,0.5138,Lo,,,,,,2,,,,,,,,low,10,0,10,0,1,,,,,,,,,
296608,2022-10-04_16h35.33.945,vts_reward_expectancy,2022.2.4,MacIntel,59.99880002,Chrome,1440,900,,,,,1,894,,,,,,,,,,,,,,,,,139,B,star,1,0,,,,,,,,,,,,,,,,repeat,number,numRpt,d,0.4328,Hi,,,,,,2,,,,,,,,low,11,0,11,0,1,,,,,,,,,
296608,2022-10-04_16h35.33.945,vts_reward_expectancy,2022.2.4,MacIntel,59.99880002,Chrome,1440,900,,,,,0,894,,,,,,,,,,,,,,,,,132,Y,star,1,0,,,,,,,,,,,,,,,,repeat,number,numRpt,d,0.4815,Hi,,,,,,2,,,,,,,,low,12,0,12,0,1,,,,,,,,,
296608,2022-10-04_16h35.33.945,vts_reward_expectancy,2022.2.4,MacIntel,59.99880002,Chrome,1440,900,,,,,1,895,,,,,,,,,,,,,,,,,160,F,hexagon,1,0,,,,,,,,,,,,,,,,switch,letter,lettSwt,j,0.4637,Lo,,,,,,2,,,,,,,,low,13,0,13,0,1,,,,,,,,,
296608,2022-10-04_16h35.33.945,vts_reward_expectancy,2022.2.4,MacIntel,59.99880002,Chrome,1440,900,,,,,1,896,,,,,,,,,,,,,,,,,146,H,star,1,0,,,,,,,,,,,,,,,,repeat,letter,lettRpt,j,0.4633,Hi,,,,,,2,,,,,,,,low,14,0,14,0,1,,,,,,,,,
296608,2022-10-04_16h35.33.945,vts_reward_expectancy,2022.2.4,MacIntel,59.99880002,Chrome,1440,900,,,,,0,896,,,,,,,,,,,,,,,,,174,U,hexagon,0,0,,,,,,,,,,,,,,,,repeat,letter,NA,j,0.4488,Hi,,,,,,2,,,,,,,,low,15,0,15,0,1,,,,,,,,,
296608,2022-10-04_16h35.33.945,vts_reward_expectancy,2022.2.4,MacIntel,59.99880002,Chrome,1440,900,,,,,0,896,,,,,,,,,,,,,,,,,146,S,star,1,1,,,,,,,,,,,,,,,,switch,number,numSwt,d,0.5975,Hi,,,,,,2,,,,,,,,low,16,0,16,0,1,,,,,,,,,
296608,2022-10-04_16h35.33.945,vts_reward_expectancy,2022.2.4,MacIntel,59.99880002,Chrome,1440,900,,,,,1,897,,,,,,,,,,,,,,,,,132,F,hexagon,1,0,,,,,,,,,,,,,,,,repeat,number,numRpt,d,0.4976,Lo,,,,,,2,,,,,,,,low,17,0,17,0,1,,,,,,,,,
296608,2022-10-04_16h35.33.945,vts_reward_expectancy,2022.2.4,MacIntel,59.99880002,Chrome,1440,900,,,,,1,898,,,,,,,,,,,,,,,,,174,Y,hexagon,1,0,,,,,,,,,,,,,,,,repeat,number,numRpt,f,0.551,Lo,,,,,,2,,,,,,,,low,18,0,18,0,1,,,,,,,,,
296608,2022-10-04_16h35.33.945,vts_reward_expectancy,2022.2.4,MacIntel,59.99880002,Chrome,1440,900,,,,,10,908,,,,,,,,,,,,,,,,,139,U,star,1,0,,,,,,,,,,,,,,,,repeat,number,numRpt,d,0.4297,Hi,,,,,,2,,,,,,,,low,19,0,19,0,1,,,,,,,,,
296608,2022-10-04_16h35.33.945,vts_reward_expectancy,2022.2.4,MacIntel,59.99880002,Chrome,1440,900,,,,,10,918,,,,,,,,,,,,,,,,,181,D,star,1,0,,,,,,,,,,,,,,,,repeat,number,numRpt,f,0.3493,Hi,,,,,,2,,,,,,,,low,20,0,20,0,1,,,,,,,,,
296608,2022-10-04_16h35.33.945,vts_reward_expectancy,2022.2.4,MacIntel,59.99880002,Chrome,1440,900,,,,,1,919,,,,,,,,,,,,,,,,,125,W,hexagon,1,0,,,,,,,,,,,,,,,,repeat,number,numRpt,d,0.4149,Lo,,,,,,2,,,,,,,,low,21,0,21,0,1,,,,,,,,,
296608,2022-10-04_16h35.33.945,vts_reward_expectancy,2022.2.4,MacIntel,59.99880002,Chrome,1440,900,,,,,10,929,,,,,,,,,,,,,,,,,167,H,star,1,0,,,,,,,,,,,,,,,,switch,letter,lettSwt,j,0.4299,Hi,,,,,,2,,,,,,,,low,22,0,22,0,1,,,,,,,,,
296608,2022-10-04_16h35.33.945,vts_reward_expectancy,2022.2.4,MacIntel,59.99880002,Chrome,1440,900,,,,,1,930,,,,,,,,,,,,,,,,,160,B,hexagon,1,0,,,,,,,,,,,,,,,,switch,number,numSwt,f,0.5163,Lo,,,,,,2,,,,,,,,low,23,0,23,0,1,,,,,,,,,
296608,2022-10-04_16h35.33.945,vts_reward_expectancy,2022.2.4,MacIntel,59.99880002,Chrome,1440,900,,,,,0,930,,,,,,,,,,,,,,,,,139,H,star,1,0,,,,,,,,,,,,,,,,switch,letter,lettSwt,j,0.58,Hi,,,,,,2,,,,,,,,low,24,0,24,0,1,,,,,,,,,
296608,2022-10-04_16h35.33.945,vts_reward_expectancy,2022.2.4,MacIntel,59.99880002,Chrome,1440,900,,,,,10,940,,,,,,,,,,,,,,,,,125,B,hexagon,1,0,,,,,,,,,,,,,,,,repeat,letter,lettRpt,j,0.4178,Lo,,,,,,2,,,,,,,,low,25,0,25,0,1,,,,,,,,,
296608,2022-10-04_16h35.33.945,vts_reward_expectancy,2022.2.4,MacIntel,59.99880002,Chrome,1440,900,,,,,0,940,,,,,,,,,,,,,,,,,160,U,star,0,0,,,,,,,,,,,,,,,,repeat,letter,NA,j,0.4469,Lo,,,,,,2,,,,,,,,low,26,0,26,0,1,,,,,,,,,
296608,2022-10-04_16h35.33.945,vts_reward_expectancy,2022.2.4,MacIntel,59.99880002,Chrome,1440,900,,,,,10,950,,,,,,,,,,,,,,,,,167,S,hexagon,1,1,,,,,,,,,,,,,,,,repeat,letter,lettRpt,k,0.5633,Lo,,,,,,2,,,,,,,,low,27,0,27,0,1,,,,,,,,,
296608,2022-10-04_16h35.33.945,vts_reward_expectancy,2022.2.4,MacIntel,59.99880002,Chrome,1440,900,,,,,10,960,,,,,,,,,,,,,,,,,146,F,hexagon,1,0,,,,,,,,,,,,,,,,repeat,letter,lettRpt,j,0.4136,Lo,,,,,,2,,,,,,,,low,28,0,28,0,1,,,,,,,,,
296608,2022-10-04_16h35.33.945,vts_reward_expectancy,2022.2.4,MacIntel,59.99880002,Chrome,1440,900,,,,,1,961,,,,,,,,,,,,,,,,,174,W,star,1,0,,,,,,,,,,,,,,,,switch,number,numSwt,f,0.4655,Hi,,,,,,2,,,,,,,,low,29,0,29,0,1,,,,,,,,,
296608,2022-10-04_16h35.33.945,vts_reward_expectancy,2022.2.4,MacIntel,59.99880002,Chrome,1440,900,,,,,10,971,,,,,,,,,,,,,,,,,132,Y,star,1,0,,,,,,,,,,,,,,,,repeat,number,numRpt,d,0.4303,Hi,,,,,,2,,,,,,,,low,30,0,30,0,1,,,,,,,,,
296608,2022-10-04_16h35.33.945,vts_reward_expectancy,2022.2.4,MacIntel,59.99880002,Chrome,1440,900,,,,,1,972,,,,,,,,,,,,,,,,,181,D,hexagon,1,0,,,,,,,,,,,,,,,,repeat,number,numRpt,f,0.4642,Lo,,,,,,2,,,,,,,,low,31,0,31,0,1,,,,,,,,,
296608,2022-10-04_16h35.33.945,vts_reward_expectancy,2022.2.4,MacIntel,59.99880002,Chrome,1440,900,,,,,10,982,,,,,,,,,,,,,,,,,125,F,triangle,1,0,,,,,,,,,,,,,,,,repeat,number,numRpt,d,0.3797,Lo,,,,,,3,,,,,,space,1.0031,high,0,0,0,0,1,,,,,,,,,
296608,2022-10-04_16h35.33.945,vts_reward_expectancy,2022.2.4,MacIntel,59.99880002,Chrome,1440,900,,,,,0,982,,,,,,,,,,,,,,,,,181,H,circle,1,0,,,,,,,,,,,,,,,,switch,letter,lettSwt,j,0.5309,Hi,,,,,,3,,,,,,,,high,1,0,1,0,1,,,,,,,,,
296608,2022-10-04_16h35.33.945,vts_reward_expectancy,2022.2.4,MacIntel,59.99880002,Chrome,1440,900,,,,,1,983,,,,,,,,,,,,,,,,,160,D,triangle,1,0,,,,,,,,,,,,,,,,switch,number,numSwt,f,0.4462,Lo,,,,,,3,,,,,,,,high,2,0,2,0,1,,,,,,,,,
296608,2022-10-04_16h35.33.945,vts_reward_expectancy,2022.2.4,MacIntel,59.99880002,Chrome,1440,900,,,,,10,993,,,,,,,,,,,,,,,,,167,S,circle,1,0,,,,,,,,,,,,,,,,switch,letter,lettSwt,k,0.4555,Hi,,,,,,3,,,,,,,,high,3,0,3,0,1,,,,,,,,,
296608,2022-10-04_16h35.33.945,vts_reward_expectancy,2022.2.4,MacIntel,59.99880002,Chrome,1440,900,,,,,1,994,,,,,,,,,,,,,,,,,174,W,triangle,1,0,,,,,,,,,,,,,,,,switch,number,numSwt,f,0.4342,Lo,,,,,,3,,,,,,,,high,4,0,4,0,1,,,,,,,,,
296608,2022-10-04_16h35.33.945,vts_reward_expectancy,2022.2.4,MacIntel,59.99880002,Chrome,1440,900,,,,,0,994,,,,,,,,,,,,,,,,,139,B,circle,1,0,,,,,,,,,,,,,,,,switch,letter,lettSwt,j,0.5644,Hi,,,,,,3,,,,,,,,high,5,0,5,0,1,,,,,,,,,
296608,2022-10-04_16h35.33.945,vts_reward_expectancy,2022.2.4,MacIntel,59.99880002,Chrome,1440,900,,,,,0,994,,,,,,,,,,,,,,,,,146,U,circle,1,0,,,,,,,,,,,,,,,,repeat,letter,lettRpt,k,0.4806,Hi,,,,,,3,,,,,,,,high,6,0,6,0,1,,,,,,,,,
296608,2022-10-04_16h35.33.945,vts_reward_expectancy,2022.2.4,MacIntel,59.99880002,Chrome,1440,900,,,,,1,995,,,,,,,,,,,,,,,,,132,Y,triangle,1,0,,,,,,,,,,,,,,,,switch,number,numSwt,d,0.4143,Lo,,,,,,3,,,,,,,,high,7,0,7,0,1,,,,,,,,,
296608,2022-10-04_16h35.33.945,vts_reward_expectancy,2022.2.4,MacIntel,59.99880002,Chrome,1440,900,,,,,1,996,,,,,,,,,,,,,,,,,125,F,triangle,1,0,,,,,,,,,,,,,,,,switch,letter,lettSwt,j,0.5468,Lo,,,,,,3,,,,,,,,high,8,0,8,0,1,,,,,,,,,
296608,2022-10-04_16h35.33.945,vts_reward_expectancy,2022.2.4,MacIntel,59.99880002,Chrome,1440,900,,,,,0,996,,,,,,,,,,,,,,,,,181,H,circle,0,0,,,,,,,,,,,,,,,,switch,number,NA,d,0.2966,Lo,,,,,,3,,,,,,,,high,9,0,9,0,1,,,,,,,,,
296608,2022-10-04_16h35.33.945,vts_reward_expectancy,2022.2.4,MacIntel,59.99880002,Chrome,1440,900,,,,,1,997,,,,,,,,,,,,,,,,,160,D,triangle,1,1,,,,,,,,,,,,,,,,switch,letter,lettSwt,j,0.4358,Lo,,,,,,3,,,,,,,,high,10,0,10,0,1,,,,,,,,,
296608,2022-10-04_16h35.33.945,vts_reward_expectancy,2022.2.4,MacIntel,59.99880002,Chrome,1440,900,,,,,10,1007,,,,,,,,,,,,,,,,,167,S,circle,1,0,,,,,,,,,,,,,,,,switch,number,numSwt,f,0.3973,Hi,,,,,,3,,,,,,,,high,11,0,11,0,1,,,,,,,,,
296608,2022-10-04_16h35.33.945,vts_reward_expectancy,2022.2.4,MacIntel,59.99880002,Chrome,1440,900,,,,,10,1017,,,,,,,,,,,,,,,,,174,W,circle,1,0,,,,,,,,,,,,,,,,repeat,number,numRpt,f,0.3464,Hi,,,,,,3,,,,,,,,high,12,0,12,0,1,,,,,,,,,
296608,2022-10-04_16h35.33.945,vts_reward_expectancy,2022.2.4,MacIntel,59.99880002,Chrome,1440,900,,,,,10,1027,,,,,,,,,,,,,,,,,139,B,triangle,1,0,,,,,,,,,,,,,,,,repeat,number,numRpt,d,0.4717,Lo,,,,,,3,,,,,,,,high,13,0,13,0,1,,,,,,,,,
296608,2022-10-04_16h35.33.945,vts_reward_expectancy,2022.2.4,MacIntel,59.99880002,Chrome,1440,900,,,,,10,1037,,,,,,,,,,,,,,,,,146,U,circle,1,0,,,,,,,,,,,,,,,,switch,letter,lettSwt,k,0.3302,Hi,,,,,,3,,,,,,,,high,14,0,14,0,1,,,,,,,,,
296608,2022-10-04_16h35.33.945,vts_reward_expectancy,2022.2.4,MacIntel,59.99880002,Chrome,1440,900,,,,,0,1037,,,,,,,,,,,,,,,,,132,Y,triangle,0,0,,,,,,,,,,,,,,,,repeat,letter,NA,j,0.3797,Hi,,,,,,3,,,,,,,,high,15,0,15,0,1,,,,,,,,,
296608,2022-10-04_16h35.33.945,vts_reward_expectancy,2022.2.4,MacIntel,59.99880002,Chrome,1440,900,,,,,10,1047,,,,,,,,,,,,,,,,,181,D,circle,1,1,,,,,,,,,,,,,,,,switch,number,numSwt,f,0.4467,Hi,,,,,,3,,,,,,,,high,16,0,16,0,1,,,,,,,,,
296608,2022-10-04_16h35.33.945,vts_reward_expectancy,2022.2.4,MacIntel,59.99880002,Chrome,1440,900,,,,,0,1047,,,,,,,,,,,,,,,,,132,W,triangle,0,0,,,,,,,,,,,,,,,,switch,letter,NA,j,0.4382,Hi,,,,,,3,,,,,,,,high,17,0,17,0,1,,,,,,,,,
296608,2022-10-04_16h35.33.945,vts_reward_expectancy,2022.2.4,MacIntel,59.99880002,Chrome,1440,900,,,,,0,1047,,,,,,,,,,,,,,,,,125,H,circle,1,1,,,,,,,,,,,,,,,,repeat,letter,lettRpt,j,0.5046,Hi,,,,,,3,,,,,,,,high,18,0,18,0,1,,,,,,,,,
296608,2022-10-04_16h35.33.945,vts_reward_expectancy,2022.2.4,MacIntel,59.99880002,Chrome,1440,900,,,,,0,1047,,,,,,,,,,,,,,,,,174,F,triangle,0,0,,,,,,,,,,,,,,,,repeat,letter,NA,k,0.3808,Hi,,,,,,3,,,,,,,,high,19,0,19,0,1,,,,,,,,,
296608,2022-10-04_16h35.33.945,vts_reward_expectancy,2022.2.4,MacIntel,59.99880002,Chrome,1440,900,,,,,0,1047,,,,,,,,,,,,,,,,,160,B,circle,1,1,,,,,,,,,,,,,,,,switch,number,numSwt,f,0.6959,Hi,,,,,,3,,,,,,,,high,20,0,20,0,1,,,,,,,,,
296608,2022-10-04_16h35.33.945,vts_reward_expectancy,2022.2.4,MacIntel,59.99880002,Chrome,1440,900,,,,,1,1048,,,,,,,,,,,,,,,,,146,S,triangle,1,0,,,,,,,,,,,,,,,,switch,letter,lettSwt,k,1.5973,Lo,,,,,,3,,,,,,,,high,21,0,21,0,1,,,,,,,,,
296608,2022-10-04_16h35.33.945,vts_reward_expectancy,2022.2.4,MacIntel,59.99880002,Chrome,1440,900,,,,,0,1048,,,,,,,,,,,,,,,,,167,Y,circle,0,0,,,,,,,,,,,,,,,,repeat,letter,NA,j,0.4887,Lo,,,,,,3,,,,,,,,high,22,0,22,0,1,,,,,,,,,
296608,2022-10-04_16h35.33.945,vts_reward_expectancy,2022.2.4,MacIntel,59.99880002,Chrome,1440,900,,,,,1,1049,,,,,,,,,,,,,,,,,139,U,triangle,1,1,,,,,,,,,,,,,,,,repeat,letter,lettRpt,k,0.6181,Lo,,,,,,3,,,,,,,,high,23,0,23,0,1,,,,,,,,,
296608,2022-10-04_16h35.33.945,vts_reward_expectancy,2022.2.4,MacIntel,59.99880002,Chrome,1440,900,,,,,1,1050,,,,,,,,,,,,,,,,,125,Y,triangle,1,0,,,,,,,,,,,,,,,,repeat,letter,lettRpt,k,0.5808,Lo,,,,,,3,,,,,,,,high,24,0,24,0,1,,,,,,,,,
296608,2022-10-04_16h35.33.945,vts_reward_expectancy,2022.2.4,MacIntel,59.99880002,Chrome,1440,900,,,,,10,1060,,,,,,,,,,,,,,,,,181,F,circle,1,0,,,,,,,,,,,,,,,,switch,number,numSwt,f,0.4307,Hi,,,,,,3,,,,,,,,high,25,0,25,0,1,,,,,,,,,
296608,2022-10-04_16h35.33.945,vts_reward_expectancy,2022.2.4,MacIntel,59.99880002,Chrome,1440,900,,,,,1,1061,,,,,,,,,,,,,,,,,139,W,triangle,1,0,,,,,,,,,,,,,,,,switch,letter,lettSwt,k,0.5819,Lo,,,,,,3,,,,,,,,high,26,0,26,0,1,,,,,,,,,
296608,2022-10-04_16h35.33.945,vts_reward_expectancy,2022.2.4,MacIntel,59.99880002,Chrome,1440,900,,,,,10,1071,,,,,,,,,,,,,,,,,167,H,circle,1,0,,,,,,,,,,,,,,,,switch,number,numSwt,f,0.4797,Hi,,,,,,3,,,,,,,,high,27,0,27,0,1,,,,,,,,,
296608,2022-10-04_16h35.33.945,vts_reward_expectancy,2022.2.4,MacIntel,59.99880002,Chrome,1440,900,,,,,1,1072,,,,,,,,,,,,,,,,,132,B,triangle,1,0,,,,,,,,,,,,,,,,repeat,number,numRpt,d,0.5131,Lo,,,,,,3,,,,,,,,high,28,0,28,0,1,,,,,,,,,
296608,2022-10-04_16h35.33.945,vts_reward_expectancy,2022.2.4,MacIntel,59.99880002,Chrome,1440,900,,,,,10,1082,,,,,,,,,,,,,,,,,160,U,circle,1,0,,,,,,,,,,,,,,,,switch,letter,lettSwt,k,0.4303,Hi,,,,,,3,,,,,,,,high,29,0,29,0,1,,,,,,,,,
296608,2022-10-04_16h35.33.945,vts_reward_expectancy,2022.2.4,MacIntel,59.99880002,Chrome,1440,900,,,,,1,1083,,,,,,,,,,,,,,,,,146,S,triangle,1,0,,,,,,,,,,,,,,,,repeat,letter,lettRpt,k,0.4509,Lo,,,,,,3,,,,,,,,high,30,0,30,0,1,,,,,,,,,
296608,2022-10-04_16h35.33.945,vts_reward_expectancy,2022.2.4,MacIntel,59.99880002,Chrome,1440,900,,,,,0,1083,,,,,,,,,,,,,,,,,174,D,circle,0,0,,,,,,,,,,,,,,,,repeat,letter,NA,k,0.5707,Lo,,,,,,3,,,,,,,,high,31,0,31,0,1,,,,,,,,,
296608,2022-10-04_16h35.33.945,vts_reward_expectancy,2022.2.4,MacIntel,59.99880002,Chrome,1440,900,,,,,0,1083,,,,,,,,,,,,,,,,,139,H,star,1,1,,,,,,,,,,,,,,,,switch,number,numSwt,d,0.5843,Hi,,,,,,4,,,,,,space,1.6426,low,0,0,0,0,1,,,,,,,,,
296608,2022-10-04_16h35.33.945,vts_reward_expectancy,2022.2.4,MacIntel,59.99880002,Chrome,1440,900,,,,,1,1084,,,,,,,,,,,,,,,,,160,S,hexagon,1,0,,,,,,,,,,,,,,,,repeat,number,numRpt,f,0.5974,Lo,,,,,,4,,,,,,,,low,1,0,1,0,1,,,,,,,,,
296608,2022-10-04_16h35.33.945,vts_reward_expectancy,2022.2.4,MacIntel,59.99880002,Chrome,1440,900,,,,,1,1085,,,,,,,,,,,,,,,,,181,Y,star,1,0,,,,,,,,,,,,,,,,switch,letter,lettSwt,k,0.4307,Hi,,,,,,4,,,,,,,,low,2,0,2,0,1,,,,,,,,,
296608,2022-10-04_16h35.33.945,vts_reward_expectancy,2022.2.4,MacIntel,59.99880002,Chrome,1440,900,,,,,10,1095,,,,,,,,,,,,,,,,,132,U,hexagon,1,0,,,,,,,,,,,,,,,,switch,number,numSwt,d,0.4303,Lo,,,,,,4,,,,,,,,low,3,0,3,0,1,,,,,,,,,
296608,2022-10-04_16h35.33.945,vts_reward_expectancy,2022.2.4,MacIntel,59.99880002,Chrome,1440,900,,,,,0,1095,,,,,,,,,,,,,,,,,167,F,star,1,0,,,,,,,,,,,,,,,,switch,letter,lettSwt,j,0.5188,Hi,,,,,,4,,,,,,,,low,4,0,4,0,1,,,,,,,,,
296608,2022-10-04_16h35.33.945,vts_reward_expectancy,2022.2.4,MacIntel,59.99880002,Chrome,1440,900,,,,,1,1096,,,,,,,,,,,,,,,,,125,B,hexagon,1,0,,,,,,,,,,,,,,,,switch,number,numSwt,d,0.6303,Lo,,,,,,4,,,,,,,,low,5,0,5,0,1,,,,,,,,,
296608,2022-10-04_16h35.33.945,vts_reward_expectancy,2022.2.4,MacIntel,59.99880002,Chrome,1440,900,,,,,10,1106,,,,,,,,,,,,,,,,,174,W,hexagon,1,0,,,,,,,,,,,,,,,,switch,letter,lettSwt,k,0.6468,Lo,,,,,,4,,,,,,,,low,6,0,6,0,1,,,,,,,,,
296608,2022-10-04_16h35.33.945,vts_reward_expectancy,2022.2.4,MacIntel,59.99880002,Chrome,1440,900,,,,,0,1106,,,,,,,,,,,,,,,,,146,D,star,1,0,,,,,,,,,,,,,,,,repeat,letter,lettRpt,j,0.5287,Hi,,,,,,4,,,,,,,,low,7,0,7,0,1,,,,,,,,,
296608,2022-10-04_16h35.33.945,vts_reward_expectancy,2022.2.4,MacIntel,59.99880002,Chrome,1440,900,,,,,0,1106,,,,,,,,,,,,,,,,,139,H,hexagon,0,0,,,,,,,,,,,,,,,,switch,number,NA,f,0.4638,Hi,,,,,,4,,,,,,,,low,8,0,8,0,1,,,,,,,,,
296608,2022-10-04_16h35.33.945,vts_reward_expectancy,2022.2.4,MacIntel,59.99880002,Chrome,1440,900,,,,,0,1106,,,,,,,,,,,,,,,,,160,S,star,1,1,,,,,,,,,,,,,,,,repeat,number,numRpt,f,0.5219,Hi,,,,,,4,,,,,,,,low,9,0,9,0,1,,,,,,,,,
296608,2022-10-04_16h35.33.945,vts_reward_expectancy,2022.2.4,MacIntel,59.99880002,Chrome,1440,900,,,,,0,1106,,,,,,,,,,,,,,,,,181,Y,star,1,0,,,,,,,,,,,,,,,,repeat,number,numRpt,f,0.4812,Hi,,,,,,4,,,,,,,,low,10,0,10,0,1,,,,,,,,,
296608,2022-10-04_16h35.33.945,vts_reward_expectancy,2022.2.4,MacIntel,59.99880002,Chrome,1440,900,,,,,10,1116,,,,,,,,,,,,,,,,,132,U,hexagon,1,0,,,,,,,,,,,,,,,,repeat,number,numRpt,d,0.5322,Lo,,,,,,4,,,,,,,,low,11,0,11,0,1,,,,,,,,,
296608,2022-10-04_16h35.33.945,vts_reward_expectancy,2022.2.4,MacIntel,59.99880002,Chrome,1440,900,,,,,0,1116,,,,,,,,,,,,,,,,,167,F,star,0,0,,,,,,,,,,,,,,,,repeat,number,NA,d,0.6477,Lo,,,,,,4,,,,,,,,low,12,0,12,0,1,,,,,,,,,
296608,2022-10-04_16h35.33.945,vts_reward_expectancy,2022.2.4,MacIntel,59.99880002,Chrome,1440,900,,,,,1,1117,,,,,,,,,,,,,,,,,125,B,hexagon,1,1,,,,,,,,,,,,,,,,switch,letter,lettSwt,j,0.4646,Lo,,,,,,4,,,,,,,,low,13,0,13,0,1,,,,,,,,,
296608,2022-10-04_16h35.33.945,vts_reward_expectancy,2022.2.4,MacIntel,59.99880002,Chrome,1440,900,,,,,10,1127,,,,,,,,,,,,,,,,,174,W,star,1,0,,,,,,,,,,,,,,,,switch,number,numSwt,f,0.4049,Hi,,,,,,4,,,,,,,,low,14,0,14,0,1,,,,,,,,,
296608,2022-10-04_16h35.33.945,vts_reward_expectancy,2022.2.4,MacIntel,59.99880002,Chrome,1440,900,,,,,1,1128,,,,,,,,,,,,,,,,,146,D,hexagon,1,0,,,,,,,,,,,,,,,,switch,letter,lettSwt,j,0.397,Lo,,,,,,4,,,,,,,,low,15,0,15,0,1,,,,,,,,,
296608,2022-10-04_16h35.33.945,vts_reward_expectancy,2022.2.4,MacIntel,59.99880002,Chrome,1440,900,,,,,1,1129,,,,,,,,,,,,,,,,,174,H,star,1,0,,,,,,,,,,,,,,,,repeat,letter,lettRpt,j,0.355,Hi,,,,,,4,,,,,,,,low,16,0,16,0,1,,,,,,,,,
296608,2022-10-04_16h35.33.945,vts_reward_expectancy,2022.2.4,MacIntel,59.99880002,Chrome,1440,900,,,,,0,1129,,,,,,,,,,,,,,,,,125,W,hexagon,0,0,,,,,,,,,,,,,,,,switch,number,NA,f,0.4309,Hi,,,,,,4,,,,,,,,low,17,0,17,0,1,,,,,,,,,
296608,2022-10-04_16h35.33.945,vts_reward_expectancy,2022.2.4,MacIntel,59.99880002,Chrome,1440,900,,,,,0,1129,,,,,,,,,,,,,,,,,139,B,star,0,1,,,,,,,,,,,,,,,,repeat,number,NA,f,0.3837,Hi,,,,,,4,,,,,,,,low,18,0,18,0,1,,,,,,,,,
296608,2022-10-04_16h35.33.945,vts_reward_expectancy,2022.2.4,MacIntel,59.99880002,Chrome,1440,900,,,,,10,1139,,,,,,,,,,,,,,,,,160,Y,hexagon,1,1,,,,,,,,,,,,,,,,repeat,number,numRpt,f,0.4857,Lo,,,,,,4,,,,,,,,low,19,0,19,0,1,,,,,,,,,
296608,2022-10-04_16h35.33.945,vts_reward_expectancy,2022.2.4,MacIntel,59.99880002,Chrome,1440,900,,,,,1,1140,,,,,,,,,,,,,,,,,132,D,star,1,0,,,,,,,,,,,,,,,,repeat,number,numRpt,d,0.3465,Hi,,,,,,4,,,,,,,,low,20,0,20,0,1,,,,,,,,,
296608,2022-10-04_16h35.33.945,vts_reward_expectancy,2022.2.4,MacIntel,59.99880002,Chrome,1440,900,,,,,10,1150,,,,,,,,,,,,,,,,,181,U,hexagon,1,0,,,,,,,,,,,,,,,,repeat,number,numRpt,f,0.4001,Lo,,,,,,4,,,,,,,,low,21,0,21,0,1,,,,,,,,,
296608,2022-10-04_16h35.33.945,vts_reward_expectancy,2022.2.4,MacIntel,59.99880002,Chrome,1440,900,,,,,10,1160,,,,,,,,,,,,,,,,,167,F,star,1,0,,,,,,,,,,,,,,,,switch,letter,lettSwt,j,0.4377,Hi,,,,,,4,,,,,,,,low,22,0,22,0,1,,,,,,,,,
296608,2022-10-04_16h35.33.945,vts_reward_expectancy,2022.2.4,MacIntel,59.99880002,Chrome,1440,900,,,,,1,1161,,,,,,,,,,,,,,,,,146,S,hexagon,1,0,,,,,,,,,,,,,,,,switch,number,numSwt,d,0.5139,Lo,,,,,,4,,,,,,,,low,23,0,23,0,1,,,,,,,,,
296608,2022-10-04_16h35.33.945,vts_reward_expectancy,2022.2.4,MacIntel,59.99880002,Chrome,1440,900,,,,,0,1161,,,,,,,,,,,,,,,,,174,D,star,1,0,,,,,,,,,,,,,,,,repeat,number,numRpt,f,0.3799,Hi,,,,,,4,,,,,,,,low,24,0,24,0,1,,,,,,,,,
296608,2022-10-04_16h35.33.945,vts_reward_expectancy,2022.2.4,MacIntel,59.99880002,Chrome,1440,900,,,,,10,1171,,,,,,,,,,,,,,,,,160,U,hexagon,1,0,,,,,,,,,,,,,,,,switch,letter,lettSwt,k,0.5338,Lo,,,,,,4,,,,,,,,low,25,0,25,0,1,,,,,,,,,
296608,2022-10-04_16h35.33.945,vts_reward_expectancy,2022.2.4,MacIntel,59.99880002,Chrome,1440,900,,,,,10,1181,,,,,,,,,,,,,,,,,167,W,hexagon,1,0,,,,,,,,,,,,,,,,repeat,letter,lettRpt,k,0.4305,Lo,,,,,,4,,,,,,,,low,26,0,26,0,1,,,,,,,,,
296608,2022-10-04_16h35.33.945,vts_reward_expectancy,2022.2.4,MacIntel,59.99880002,Chrome,1440,900,,,,,0,1181,,,,,,,,,,,,,,,,,132,S,star,1,0,,,,,,,,,,,,,,,,switch,number,numSwt,d,0.6471,Hi,,,,,,4,,,,,,,,low,27,0,27,0,1,,,,,,,,,
296608,2022-10-04_16h35.33.945,vts_reward_expectancy,2022.2.4,MacIntel,59.99880002,Chrome,1440,900,,,,,1,1182,,,,,,,,,,,,,,,,,146,Y,hexagon,1,0,,,,,,,,,,,,,,,,switch,letter,lettSwt,k,0.4979,Lo,,,,,,4,,,,,,,,low,28,0,28,0,1,,,,,,,,,
296608,2022-10-04_16h35.33.945,vts_reward_expectancy,2022.2.4,MacIntel,59.99880002,Chrome,1440,900,,,,,10,1192,,,,,,,,,,,,,,,,,139,F,star,1,0,,,,,,,,,,,,,,,,switch,number,numSwt,d,0.3996,Hi,,,,,,4,,,,,,,,low,29,0,29,0,1,,,,,,,,,
296608,2022-10-04_16h35.33.945,vts_reward_expectancy,2022.2.4,MacIntel,59.99880002,Chrome,1440,900,,,,,1,1193,,,,,,,,,,,,,,,,,125,B,hexagon,1,0,,,,,,,,,,,,,,,,switch,letter,lettSwt,j,0.447,Lo,,,,,,4,,,,,,,,low,30,0,30,0,1,,,,,,,,,
296608,2022-10-04_16h35.33.945,vts_reward_expectancy,2022.2.4,MacIntel,59.99880002,Chrome,1440,900,,,,,10,1203,,,,,,,,,,,,,,,,,181,H,star,1,0,,,,,,,,,,,,,,,,switch,number,numSwt,f,0.3973,Hi,,,,,,4,,,,,,,,low,31,0,31,0,1,,,,,,,,,
296608,2022-10-04_16h35.33.945,vts_reward_expectancy,2022.2.4,MacIntel,59.99880002,Chrome,1440,900,,,,,0,1203,,,,,,,,,,,,,,,,,132,F,circle,0,0,,,,,,,,,,,,,,,,repeat,number,NA,f,0.3618,Hi,,,,,,5,,,,,,space,1.1244,high,0,0,0,0,1,,,,,,,,,
296608,2022-10-04_16h35.33.945,vts_reward_expectancy,2022.2.4,MacIntel,59.99880002,Chrome,1440,900,,,,,1,1204,,,,,,,,,,,,,,,,,139,U,triangle,1,1,,,,,,,,,,,,,,,,repeat,number,numRpt,d,0.3717,Lo,,,,,,5,,,,,,,,high,1,0,1,0,1,,,,,,,,,
296608,2022-10-04_16h35.33.945,vts_reward_expectancy,2022.2.4,MacIntel,59.99880002,Chrome,1440,900,,,,,0,1204,,,,,,,,,,,,,,,,,181,S,circle,0,0,,,,,,,,,,,,,,,,switch,letter,NA,j,0.37,Lo,,,,,,5,,,,,,,,high,2,0,2,0,1,,,,,,,,,
296608,2022-10-04_16h35.33.945,vts_reward_expectancy,2022.2.4,MacIntel,59.99880002,Chrome,1440,900,,,,,1,1205,,,,,,,,,,,,,,,,,167,W,triangle,1,1,,,,,,,,,,,,,,,,switch,number,numSwt,f,0.3814,Lo,,,,,,5,,,,,,,,high,3,0,3,0,1,,,,,,,,,
296608,2022-10-04_16h35.33.945,vts_reward_expectancy,2022.2.4,MacIntel,59.99880002,Chrome,1440,900,,,,,10,1215,,,,,,,,,,,,,,,,,125,H,circle,1,0,,,,,,,,,,,,,,,,switch,letter,lettSwt,j,0.4367,Hi,,,,,,5,,,,,,,,high,4,0,4,0,1,,,,,,,,,
296608,2022-10-04_16h35.33.945,vts_reward_expectancy,2022.2.4,MacIntel,59.99880002,Chrome,1440,900,,,,,1,1216,,,,,,,,,,,,,,,,,146,Y,triangle,1,0,,,,,,,,,,,,,,,,repeat,letter,lettRpt,k,0.4209,Lo,,,,,,5,,,,,,,,high,5,0,5,0,1,,,,,,,,,
296608,2022-10-04_16h35.33.945,vts_reward_expectancy,2022.2.4,MacIntel,59.99880002,Chrome,1440,900,,,,,0,1216,,,,,,,,,,,,,,,,,174,B,circle,1,0,,,,,,,,,,,,,,,,switch,number,numSwt,f,0.5134,Hi,,,,,,5,,,,,,,,high,6,0,6,0,1,,,,,,,,,
296608,2022-10-04_16h35.33.945,vts_reward_expectancy,2022.2.4,MacIntel,59.99880002,Chrome,1440,900,,,,,10,1226,,,,,,,,,,,,,,,,,160,D,triangle,1,0,,,,,,,,,,,,,,,,repeat,number,numRpt,f,0.5831,Lo,,,,,,5,,,,,,,,high,7,0,7,0,1,,,,,,,,,
296608,2022-10-04_16h35.33.945,vts_reward_expectancy,2022.2.4,MacIntel,59.99880002,Chrome,1440,900,,,,,1,1227,,,,,,,,,,,,,,,,,132,F,triangle,1,0,,,,,,,,,,,,,,,,switch,letter,lettSwt,j,0.4974,Lo,,,,,,5,,,,,,,,high,8,0,8,0,1,,,,,,,,,
296608,2022-10-04_16h35.33.945,vts_reward_expectancy,2022.2.4,MacIntel,59.99880002,Chrome,1440,900,,,,,0,1227,,,,,,,,,,,,,,,,,139,U,circle,0,0,,,,,,,,,,,,,,,,switch,number,NA,f,0.4819,Lo,,,,,,5,,,,,,,,high,9,0,9,0,1,,,,,,,,,
296608,2022-10-04_16h35.33.945,vts_reward_expectancy,2022.2.4,MacIntel,59.99880002,Chrome,1440,900,,,,,10,1237,,,,,,,,,,,,,,,,,181,S,triangle,1,1,,,,,,,,,,,,,,,,repeat,number,numRpt,f,0.5306,Lo,,,,,,5,,,,,,,,high,10,0,10,0,1,,,,,,,,,
296608,2022-10-04_16h35.33.945,vts_reward_expectancy,2022.2.4,MacIntel,59.99880002,Chrome,1440,900,,,,,0,1237,,,,,,,,,,,,,,,,,167,W,circle,0,0,,,,,,,,,,,,,,,,switch,letter,NA,j,0.4644,Lo,,,,,,5,,,,,,,,high,11,0,11,0,1,,,,,,,,,
296608,2022-10-04_16h35.33.945,vts_reward_expectancy,2022.2.4,MacIntel,59.99880002,Chrome,1440,900,,,,,0,1237,,,,,,,,,,,,,,,,,125,H,circle,0,1,,,,,,,,,,,,,,,,repeat,letter,NA,k,0.6484,Lo,,,,,,5,,,,,,,,high,12,0,12,0,1,,,,,,,,,
296608,2022-10-04_16h35.33.945,vts_reward_expectancy,2022.2.4,MacIntel,59.99880002,Chrome,1440,900,,,,,0,1237,,,,,,,,,,,,,,,,,146,Y,triangle,0,1,,,,,,,,,,,,,,,,switch,number,NA,f,0.4371,Lo,,,,,,5,,,,,,,,high,13,0,13,0,1,,,,,,,,,
296608,2022-10-04_16h35.33.945,vts_reward_expectancy,2022.2.4,MacIntel,59.99880002,Chrome,1440,900,,,,,1,1238,,,,,,,,,,,,,,,,,174,B,triangle,1,1,,,,,,,,,,,,,,,,repeat,number,numRpt,f,0.4668,Lo,,,,,,5,,,,,,,,high,14,0,14,0,1,,,,,,,,,
296608,2022-10-04_16h35.33.945,vts_reward_expectancy,2022.2.4,MacIntel,59.99880002,Chrome,1440,900,,,,,0,1238,,,,,,,,,,,,,,,,,160,D,circle,1,0,,,,,,,,,,,,,,,,switch,letter,lettSwt,j,0.4479,Hi,,,,,,5,,,,,,,,high,15,0,15,0,1,,,,,,,,,
296608,2022-10-04_16h35.33.945,vts_reward_expectancy,2022.2.4,MacIntel,59.99880002,Chrome,1440,900,,,,,0,1238,,,,,,,,,,,,,,,,,132,S,triangle,0,0,,,,,,,,,,,,,,,,repeat,letter,NA,j,0.4146,Hi,,,,,,5,,,,,,,,high,16,0,16,0,1,,,,,,,,,
296608,2022-10-04_16h35.33.945,vts_reward_expectancy,2022.2.4,MacIntel,59.99880002,Chrome,1440,900,,,,,10,1248,,,,,,,,,,,,,,,,,181,Y,circle,1,1,,,,,,,,,,,,,,,,repeat,letter,lettRpt,k,0.3974,Hi,,,,,,5,,,,,,,,high,17,0,17,0,1,,,,,,,,,
296608,2022-10-04_16h35.33.945,vts_reward_expectancy,2022.2.4,MacIntel,59.99880002,Chrome,1440,900,,,,,1,1249,,,,,,,,,,,,,,,,,139,U,triangle,1,0,,,,,,,,,,,,,,,,switch,number,numSwt,d,0.387,Lo,,,,,,5,,,,,,,,high,18,0,18,0,1,,,,,,,,,
296608,2022-10-04_16h35.33.945,vts_reward_expectancy,2022.2.4,MacIntel,59.99880002,Chrome,1440,900,,,,,10,1259,,,,,,,,,,,,,,,,,125,D,circle,1,0,,,,,,,,,,,,,,,,switch,letter,lettSwt,j,0.4204,Hi,,,,,,5,,,,,,,,high,19,0,19,0,1,,,,,,,,,
296608,2022-10-04_16h35.33.945,vts_reward_expectancy,2022.2.4,MacIntel,59.99880002,Chrome,1440,900,,,,,1,1260,,,,,,,,,,,,,,,,,174,F,triangle,1,0,,,,,,,,,,,,,,,,switch,number,numSwt,f,0.4811,Lo,,,,,,5,,,,,,,,high,20,0,20,0,1,,,,,,,,,
296608,2022-10-04_16h35.33.945,vts_reward_expectancy,2022.2.4,MacIntel,59.99880002,Chrome,1440,900,,,,,10,1270,,,,,,,,,,,,,,,,,167,H,circle,1,0,,,,,,,,,,,,,,,,repeat,number,numRpt,f,0.3645,Hi,,,,,,5,,,,,,,,high,21,0,21,0,1,,,,,,,,,
296608,2022-10-04_16h35.33.945,vts_reward_expectancy,2022.2.4,MacIntel,59.99880002,Chrome,1440,900,,,,,10,1280,,,,,,,,,,,,,,,,,160,B,triangle,1,0,,,,,,,,,,,,,,,,switch,letter,lettSwt,j,0.3806,Lo,,,,,,5,,,,,,,,high,22,0,22,0,1,,,,,,,,,
296608,2022-10-04_16h35.33.945,vts_reward_expectancy,2022.2.4,MacIntel,59.99880002,Chrome,1440,900,,,,,0,1280,,,,,,,,,,,,,,,,,146,W,circle,1,0,,,,,,,,,,,,,,,,repeat,letter,lettRpt,k,0.5036,Hi,,,,,,5,,,,,,,,high,23,0,23,0,1,,,,,,,,,
296608,2022-10-04_16h35.33.945,vts_reward_expectancy,2022.2.4,MacIntel,59.99880002,Chrome,1440,900,,,,,0,1280,,,,,,,,,,,,,,,,,160,D,circle,1,0,,,,,,,,,,,,,,,,repeat,letter,lettRpt,j,0.5295,Hi,,,,,,5,,,,,,,,high,24,0,24,0,1,,,,,,,,,
296608,2022-10-04_16h35.33.945,vts_reward_expectancy,2022.2.4,MacIntel,59.99880002,Chrome,1440,900,,,,,1,1281,,,,,,,,,,,,,,,,,174,Y,triangle,1,0,,,,,,,,,,,,,,,,switch,number,numSwt,f,0.4717,Lo,,,,,,5,,,,,,,,high,25,0,25,0,1,,,,,,,,,
296608,2022-10-04_16h35.33.945,vts_reward_expectancy,2022.2.4,MacIntel,59.99880002,Chrome,1440,900,,,,,1,1282,,,,,,,,,,,,,,,,,181,W,triangle,1,0,,,,,,,,,,,,,,,,repeat,number,numRpt,f,0.4301,Lo,,,,,,5,,,,,,,,high,26,0,26,0,1,,,,,,,,,
296608,2022-10-04_16h35.33.945,vts_reward_expectancy,2022.2.4,MacIntel,59.99880002,Chrome,1440,900,,,,,0,1282,,,,,,,,,,,,,,,,,132,H,circle,0,0,,,,,,,,,,,,,,,,switch,letter,NA,k,0.3154,Lo,,,,,,5,,,,,,,,high,27,0,27,0,1,,,,,,,,,
296608,2022-10-04_16h35.33.945,vts_reward_expectancy,2022.2.4,MacIntel,59.99880002,Chrome,1440,900,,,,,0,1282,,,,,,,,,,,,,,,,,125,U,triangle,0,1,,,,,,,,,,,,,,,,switch,number,NA,f,0.5685,Lo,,,,,,5,,,,,,,,high,28,0,28,0,1,,,,,,,,,
296608,2022-10-04_16h35.33.945,vts_reward_expectancy,2022.2.4,MacIntel,59.99880002,Chrome,1440,900,,,,,0,1282,,,,,,,,,,,,,,,,,167,S,circle,0,1,,,,,,,,,,,,,,,,switch,letter,NA,j,0.547,Lo,,,,,,5,,,,,,,,high,29,0,29,0,1,,,,,,,,,
296608,2022-10-04_16h35.33.945,vts_reward_expectancy,2022.2.4,MacIntel,59.99880002,Chrome,1440,900,,,,,0,1282,,,,,,,,,,,,,,,,,139,F,triangle,0,1,,,,,,,,,,,,,,,,switch,number,NA,f,0.4711,Lo,,,,,,5,,,,,,,,high,30,0,30,0,1,,,,,,,,,
296608,2022-10-04_16h35.33.945,vts_reward_expectancy,2022.2.4,MacIntel,59.99880002,Chrome,1440,900,,,,,10,1292,,,,,,,,,,,,,,,,,146,B,circle,1,1,,,,,,,,,,,,,,,,repeat,number,numRpt,d,0.4138,Hi,,,,,,5,,,,,,,,high,31,0,31,0,1,,,,,,,,,
296608,2022-10-04_16h35.33.945,vts_reward_expectancy,2022.2.4,MacIntel,59.99880002,Chrome,1440,900,,,,,,,,,,,,,,,,,,,,,,,,,,,,,,,,,,,,,,,,,,,,,,,,,,,,,,6,,,,,,,,,,,,,,I was asked to evenly choose between choosing the correct number and letter direction and identify a patter using the shape,2,Trying to find a pattern related to the shapes,4,3,,2,1440,900
