participant,date,expName,psychopyVersion,OS,frameRate,browser,xResolution,yResolution,key_resp.keys,key_resp.rt,training_resp.keys,training_resp.rt,points_trial,points_cumul,trainBlock,training.thisRepN,training.thisTrialN,training.thisN,training.thisIndex,training.ran,LTriangleOpac,LCircleOpac,LHexagonOpac,LStarOpac,RTriangleOpac,RCircleOpac,RHexagonOpac,RStarOpac,LShape_ID,RShape_ID,curr_topStim,curr_bottStim,curr_shape,acc,E1,target_resp_prac1.keys,target_resp_prac1.rt,pracBlock,task1_prac_trials.thisRepN,task1_prac_trials.thisTrialN,task1_prac_trials.thisN,task1_prac_trials.thisIndex,task1_prac_trials.ran,target_resp_prac2.keys,target_resp_prac2.rt,task2_praac_trials.thisRepN,task2_praac_trials.thisTrialN,task2_praac_trials.thisN,task2_praac_trials.thisIndex,task2_praac_trials.ran,alt,task,condition,target_resp.keys,target_resp.rt,rewCond,vts_practice_trials.thisRepN,vts_practice_trials.thisTrialN,vts_practice_trials.thisN,vts_practice_trials.thisIndex,vts_practice_trials.ran,blockNum,trials_norew.thisRepN,trials_norew.thisTrialN,trials_norew.thisN,trials_norew.thisIndex,trials_norew.ran,key_resp_2.keys,key_resp_2.rt,rewExpect,trials_rew.thisRepN,trials_rew.thisTrialN,trials_rew.thisN,trials_rew.thisIndex,trials_rew.ran,Q1,Q2,Q2_text,Q3,Q4,Q5_text,Q5,xRes,yRes
294979,2022-10-04_23h37.36.747,vts_reward_expectancy,2022.2.4,Win32,145.3488372,Chrome,1536,864,,,,,,,,,,,,,,,,,,,,,,,,,,,,,,,,,,,,,,,,,,,,,,,,,,,,,,,,,,,,,,,,,,,,,,,,,,,,
294979,2022-10-04_23h37.36.747,vts_reward_expectancy,2022.2.4,Win32,145.3488372,Chrome,1536,864,space,2.8678,,,,,,,,,,,,,,,,,,,,,,,,,,,,,,,,,,,,,,,,,,,,,,,,,,,,,,,,,,,,,,,,,,,,,,,,,,
294979,2022-10-04_23h37.36.747,vts_reward_expectancy,2022.2.4,Win32,145.3488372,Chrome,1536,864,,,,,,,,,,,,,,,,,,,,,,,,,,,,,,,,,,,,,,,,,,,,,,,,,,,,,,,,,,,,,,,,,,,,,,,,,,,,
294979,2022-10-04_23h37.36.747,vts_reward_expectancy,2022.2.4,Win32,145.3488372,Chrome,1536,864,,,a,0.5118,1,1,0,0,0,0,8,1,0,0,1,0,0,0,0,1,hexagon,star,,,,,,,,,,,,,,,,,,,,,,,,,,,,,,,,,,,,,,,,,,,,,,,,,,,,,,
294979,2022-10-04_23h37.36.747,vts_reward_expectancy,2022.2.4,Win32,145.3488372,Chrome,1536,864,,,l,0.4448,1,2,0,0,1,1,2,1,1,0,0,0,0,0,0,1,triangle,star,,,,,,,,,,,,,,,,,,,,,,,,,,,,,,,,,,,,,,,,,,,,,,,,,,,,,,
294979,2022-10-04_23h37.36.747,vts_reward_expectancy,2022.2.4,Win32,145.3488372,Chrome,1536,864,,,a,0.5069,10,12,0,0,2,2,7,1,0,0,1,0,0,1,0,0,hexagon,circle,,,,,,,,,,,,,,,,,,,,,,,,,,,,,,,,,,,,,,,,,,,,,,,,,,,,,,
294979,2022-10-04_23h37.36.747,vts_reward_expectancy,2022.2.4,Win32,145.3488372,Chrome,1536,864,,,l,0.5486,10,22,0,0,3,3,6,1,0,0,1,0,1,0,0,0,hexagon,triangle,,,,,,,,,,,,,,,,,,,,,,,,,,,,,,,,,,,,,,,,,,,,,,,,,,,,,,
294979,2022-10-04_23h37.36.747,vts_reward_expectancy,2022.2.4,Win32,145.3488372,Chrome,1536,864,,,l,0.6455,10,32,0,0,4,4,5,1,0,1,0,0,0,0,0,1,circle,star,,,,,,,,,,,,,,,,,,,,,,,,,,,,,,,,,,,,,,,,,,,,,,,,,,,,,,
294979,2022-10-04_23h37.36.747,vts_reward_expectancy,2022.2.4,Win32,145.3488372,Chrome,1536,864,,,a,0.4927,1,33,0,0,5,5,0,1,1,0,0,0,0,1,0,0,triangle,circle,,,,,,,,,,,,,,,,,,,,,,,,,,,,,,,,,,,,,,,,,,,,,,,,,,,,,,
294979,2022-10-04_23h37.36.747,vts_reward_expectancy,2022.2.4,Win32,145.3488372,Chrome,1536,864,,,a,0.5,1,34,0,0,6,6,10,1,0,0,0,1,0,1,0,0,star ,circle,,,,,,,,,,,,,,,,,,,,,,,,,,,,,,,,,,,,,,,,,,,,,,,,,,,,,,
294979,2022-10-04_23h37.36.747,vts_reward_expectancy,2022.2.4,Win32,145.3488372,Chrome,1536,864,,,l,0.7635,10,44,0,0,7,7,11,1,0,0,0,1,0,0,1,0,star,hexagon,,,,,,,,,,,,,,,,,,,,,,,,,,,,,,,,,,,,,,,,,,,,,,,,,,,,,,
294979,2022-10-04_23h37.36.747,vts_reward_expectancy,2022.2.4,Win32,145.3488372,Chrome,1536,864,,,l,0.5209,10,54,0,0,8,8,3,1,0,1,0,0,1,0,0,0,circle,triangle,,,,,,,,,,,,,,,,,,,,,,,,,,,,,,,,,,,,,,,,,,,,,,,,,,,,,,
294979,2022-10-04_23h37.36.747,vts_reward_expectancy,2022.2.4,Win32,145.3488372,Chrome,1536,864,,,l,0.6828,10,64,0,0,9,9,9,1,0,0,0,1,1,0,0,0,star,triangle,,,,,,,,,,,,,,,,,,,,,,,,,,,,,,,,,,,,,,,,,,,,,,,,,,,,,,
294979,2022-10-04_23h37.36.747,vts_reward_expectancy,2022.2.4,Win32,145.3488372,Chrome,1536,864,,,l,0.7748,10,74,0,0,10,10,4,1,0,1,0,0,0,0,1,0,circle,hexagon,,,,,,,,,,,,,,,,,,,,,,,,,,,,,,,,,,,,,,,,,,,,,,,,,,,,,,
294979,2022-10-04_23h37.36.747,vts_reward_expectancy,2022.2.4,Win32,145.3488372,Chrome,1536,864,,,l,0.6167,1,75,0,0,11,11,1,1,1,0,0,0,0,0,1,0,triangle,hexagon,,,,,,,,,,,,,,,,,,,,,,,,,,,,,,,,,,,,,,,,,,,,,,,,,,,,,,
294979,2022-10-04_23h37.36.747,vts_reward_expectancy,2022.2.4,Win32,145.3488372,Chrome,1536,864,,,l,0.6956,1,76,0,1,0,12,11,1,0,0,0,1,0,0,1,0,star,hexagon,,,,,,,,,,,,,,,,,,,,,,,,,,,,,,,,,,,,,,,,,,,,,,,,,,,,,,
294979,2022-10-04_23h37.36.747,vts_reward_expectancy,2022.2.4,Win32,145.3488372,Chrome,1536,864,,,a,0.684,10,86,0,1,1,13,7,1,0,0,1,0,0,1,0,0,hexagon,circle,,,,,,,,,,,,,,,,,,,,,,,,,,,,,,,,,,,,,,,,,,,,,,,,,,,,,,
294979,2022-10-04_23h37.36.747,vts_reward_expectancy,2022.2.4,Win32,145.3488372,Chrome,1536,864,,,a,0.5833,1,87,0,1,2,14,0,1,1,0,0,0,0,1,0,0,triangle,circle,,,,,,,,,,,,,,,,,,,,,,,,,,,,,,,,,,,,,,,,,,,,,,,,,,,,,,
294979,2022-10-04_23h37.36.747,vts_reward_expectancy,2022.2.4,Win32,145.3488372,Chrome,1536,864,,,a,0.6149,10,97,0,1,3,15,6,1,0,0,1,0,1,0,0,0,hexagon,triangle,,,,,,,,,,,,,,,,,,,,,,,,,,,,,,,,,,,,,,,,,,,,,,,,,,,,,,
294979,2022-10-04_23h37.36.747,vts_reward_expectancy,2022.2.4,Win32,145.3488372,Chrome,1536,864,,,a,0.6805,10,107,0,1,4,16,1,1,1,0,0,0,0,0,1,0,triangle,hexagon,,,,,,,,,,,,,,,,,,,,,,,,,,,,,,,,,,,,,,,,,,,,,,,,,,,,,,
294979,2022-10-04_23h37.36.747,vts_reward_expectancy,2022.2.4,Win32,145.3488372,Chrome,1536,864,,,l,0.3756,10,117,0,1,5,17,9,1,0,0,0,1,1,0,0,0,star,triangle,,,,,,,,,,,,,,,,,,,,,,,,,,,,,,,,,,,,,,,,,,,,,,,,,,,,,,
294979,2022-10-04_23h37.36.747,vts_reward_expectancy,2022.2.4,Win32,145.3488372,Chrome,1536,864,,,a,0.4103,10,127,0,1,6,18,2,1,1,0,0,0,0,0,0,1,triangle,star,,,,,,,,,,,,,,,,,,,,,,,,,,,,,,,,,,,,,,,,,,,,,,,,,,,,,,
294979,2022-10-04_23h37.36.747,vts_reward_expectancy,2022.2.4,Win32,145.3488372,Chrome,1536,864,,,l,0.6495,1,128,0,1,7,19,5,1,0,1,0,0,0,0,0,1,circle,star,,,,,,,,,,,,,,,,,,,,,,,,,,,,,,,,,,,,,,,,,,,,,,,,,,,,,,
294979,2022-10-04_23h37.36.747,vts_reward_expectancy,2022.2.4,Win32,145.3488372,Chrome,1536,864,,,a,0.7984,1,129,0,1,8,20,4,1,0,1,0,0,0,0,1,0,circle,hexagon,,,,,,,,,,,,,,,,,,,,,,,,,,,,,,,,,,,,,,,,,,,,,,,,,,,,,,
294979,2022-10-04_23h37.36.747,vts_reward_expectancy,2022.2.4,Win32,145.3488372,Chrome,1536,864,,,l,0.5458,10,139,0,1,9,21,3,1,0,1,0,0,1,0,0,0,circle,triangle,,,,,,,,,,,,,,,,,,,,,,,,,,,,,,,,,,,,,,,,,,,,,,,,,,,,,,
294979,2022-10-04_23h37.36.747,vts_reward_expectancy,2022.2.4,Win32,145.3488372,Chrome,1536,864,,,l,0.736,1,140,0,1,10,22,8,1,0,0,1,0,0,0,0,1,hexagon,star,,,,,,,,,,,,,,,,,,,,,,,,,,,,,,,,,,,,,,,,,,,,,,,,,,,,,,
294979,2022-10-04_23h37.36.747,vts_reward_expectancy,2022.2.4,Win32,145.3488372,Chrome,1536,864,,,l,1.0344,10,150,0,1,11,23,10,1,0,0,0,1,0,1,0,0,star ,circle,,,,,,,,,,,,,,,,,,,,,,,,,,,,,,,,,,,,,,,,,,,,,,,,,,,,,,
294979,2022-10-04_23h37.36.747,vts_reward_expectancy,2022.2.4,Win32,145.3488372,Chrome,1536,864,,,l,0.7706,1,151,0,2,0,24,5,1,0,1,0,0,0,0,0,1,circle,star,,,,,,,,,,,,,,,,,,,,,,,,,,,,,,,,,,,,,,,,,,,,,,,,,,,,,,
294979,2022-10-04_23h37.36.747,vts_reward_expectancy,2022.2.4,Win32,145.3488372,Chrome,1536,864,,,a,0.633,10,161,0,2,1,25,8,1,0,0,1,0,0,0,0,1,hexagon,star,,,,,,,,,,,,,,,,,,,,,,,,,,,,,,,,,,,,,,,,,,,,,,,,,,,,,,
294979,2022-10-04_23h37.36.747,vts_reward_expectancy,2022.2.4,Win32,145.3488372,Chrome,1536,864,,,l,0.7639,1,162,0,2,2,26,9,1,0,0,0,1,1,0,0,0,star,triangle,,,,,,,,,,,,,,,,,,,,,,,,,,,,,,,,,,,,,,,,,,,,,,,,,,,,,,
294979,2022-10-04_23h37.36.747,vts_reward_expectancy,2022.2.4,Win32,145.3488372,Chrome,1536,864,,,a,0.7777,1,163,0,2,3,27,7,1,0,0,1,0,0,1,0,0,hexagon,circle,,,,,,,,,,,,,,,,,,,,,,,,,,,,,,,,,,,,,,,,,,,,,,,,,,,,,,
294979,2022-10-04_23h37.36.747,vts_reward_expectancy,2022.2.4,Win32,145.3488372,Chrome,1536,864,,,l,0.5619,1,164,0,2,4,28,11,1,0,0,0,1,0,0,1,0,star,hexagon,,,,,,,,,,,,,,,,,,,,,,,,,,,,,,,,,,,,,,,,,,,,,,,,,,,,,,
294979,2022-10-04_23h37.36.747,vts_reward_expectancy,2022.2.4,Win32,145.3488372,Chrome,1536,864,,,a,0.3931,1,165,0,2,5,29,10,1,0,0,0,1,0,1,0,0,star ,circle,,,,,,,,,,,,,,,,,,,,,,,,,,,,,,,,,,,,,,,,,,,,,,,,,,,,,,
294979,2022-10-04_23h37.36.747,vts_reward_expectancy,2022.2.4,Win32,145.3488372,Chrome,1536,864,,,l,0.7012,10,175,0,2,6,30,1,1,1,0,0,0,0,0,1,0,triangle,hexagon,,,,,,,,,,,,,,,,,,,,,,,,,,,,,,,,,,,,,,,,,,,,,,,,,,,,,,
294979,2022-10-04_23h37.36.747,vts_reward_expectancy,2022.2.4,Win32,145.3488372,Chrome,1536,864,,,a,1.0175,10,185,0,2,7,31,2,1,1,0,0,0,0,0,0,1,triangle,star,,,,,,,,,,,,,,,,,,,,,,,,,,,,,,,,,,,,,,,,,,,,,,,,,,,,,,
294979,2022-10-04_23h37.36.747,vts_reward_expectancy,2022.2.4,Win32,145.3488372,Chrome,1536,864,,,l,0.5629,10,195,0,2,8,32,6,1,0,0,1,0,1,0,0,0,hexagon,triangle,,,,,,,,,,,,,,,,,,,,,,,,,,,,,,,,,,,,,,,,,,,,,,,,,,,,,,
294979,2022-10-04_23h37.36.747,vts_reward_expectancy,2022.2.4,Win32,145.3488372,Chrome,1536,864,,,l,0.6457,10,205,0,2,9,33,4,1,0,1,0,0,0,0,1,0,circle,hexagon,,,,,,,,,,,,,,,,,,,,,,,,,,,,,,,,,,,,,,,,,,,,,,,,,,,,,,
294979,2022-10-04_23h37.36.747,vts_reward_expectancy,2022.2.4,Win32,145.3488372,Chrome,1536,864,,,l,0.5554,10,215,0,2,10,34,3,1,0,1,0,0,1,0,0,0,circle,triangle,,,,,,,,,,,,,,,,,,,,,,,,,,,,,,,,,,,,,,,,,,,,,,,,,,,,,,
294979,2022-10-04_23h37.36.747,vts_reward_expectancy,2022.2.4,Win32,145.3488372,Chrome,1536,864,,,a,0.4731,10,225,0,2,11,35,0,1,1,0,0,0,0,1,0,0,triangle,circle,,,,,,,,,,,,,,,,,,,,,,,,,,,,,,,,,,,,,,,,,,,,,,,,,,,,,,
294979,2022-10-04_23h37.36.747,vts_reward_expectancy,2022.2.4,Win32,145.3488372,Chrome,1536,864,,,l,0.7482,10,235,1,0,0,0,6,1,0,0,1,0,1,0,0,0,hexagon,triangle,,,,,,,,,,,,,,,,,,,,,,,,,,,,,,,,,,,,,,,,,,,,,,,,,,,,,,
294979,2022-10-04_23h37.36.747,vts_reward_expectancy,2022.2.4,Win32,145.3488372,Chrome,1536,864,,,l,0.5277,10,245,1,0,1,1,9,1,0,0,0,1,1,0,0,0,star,triangle,,,,,,,,,,,,,,,,,,,,,,,,,,,,,,,,,,,,,,,,,,,,,,,,,,,,,,
294979,2022-10-04_23h37.36.747,vts_reward_expectancy,2022.2.4,Win32,145.3488372,Chrome,1536,864,,,a,0.37,10,255,1,0,2,2,1,1,1,0,0,0,0,0,1,0,triangle,hexagon,,,,,,,,,,,,,,,,,,,,,,,,,,,,,,,,,,,,,,,,,,,,,,,,,,,,,,
294979,2022-10-04_23h37.36.747,vts_reward_expectancy,2022.2.4,Win32,145.3488372,Chrome,1536,864,,,a,0.4738,10,265,1,0,3,3,2,1,1,0,0,0,0,0,0,1,triangle,star,,,,,,,,,,,,,,,,,,,,,,,,,,,,,,,,,,,,,,,,,,,,,,,,,,,,,,
294979,2022-10-04_23h37.36.747,vts_reward_expectancy,2022.2.4,Win32,145.3488372,Chrome,1536,864,,,l,0.4681,10,275,1,0,4,4,3,1,0,1,0,0,1,0,0,0,circle,triangle,,,,,,,,,,,,,,,,,,,,,,,,,,,,,,,,,,,,,,,,,,,,,,,,,,,,,,
294979,2022-10-04_23h37.36.747,vts_reward_expectancy,2022.2.4,Win32,145.3488372,Chrome,1536,864,,,a,0.7849,10,285,1,0,5,5,7,1,0,0,1,0,0,1,0,0,hexagon,circle,,,,,,,,,,,,,,,,,,,,,,,,,,,,,,,,,,,,,,,,,,,,,,,,,,,,,,
294979,2022-10-04_23h37.36.747,vts_reward_expectancy,2022.2.4,Win32,145.3488372,Chrome,1536,864,,,l,0.7311,1,286,1,0,6,6,10,1,0,0,0,1,0,1,0,0,star ,circle,,,,,,,,,,,,,,,,,,,,,,,,,,,,,,,,,,,,,,,,,,,,,,,,,,,,,,
294979,2022-10-04_23h37.36.747,vts_reward_expectancy,2022.2.4,Win32,145.3488372,Chrome,1536,864,,,l,0.4516,1,287,1,0,7,7,5,1,0,1,0,0,0,0,0,1,circle,star,,,,,,,,,,,,,,,,,,,,,,,,,,,,,,,,,,,,,,,,,,,,,,,,,,,,,,
294979,2022-10-04_23h37.36.747,vts_reward_expectancy,2022.2.4,Win32,145.3488372,Chrome,1536,864,,,a,0.4374,1,288,1,0,8,8,11,1,0,0,0,1,0,0,1,0,star,hexagon,,,,,,,,,,,,,,,,,,,,,,,,,,,,,,,,,,,,,,,,,,,,,,,,,,,,,,
294979,2022-10-04_23h37.36.747,vts_reward_expectancy,2022.2.4,Win32,145.3488372,Chrome,1536,864,,,l,0.5648,1,289,1,0,9,9,0,1,1,0,0,0,0,1,0,0,triangle,circle,,,,,,,,,,,,,,,,,,,,,,,,,,,,,,,,,,,,,,,,,,,,,,,,,,,,,,
294979,2022-10-04_23h37.36.747,vts_reward_expectancy,2022.2.4,Win32,145.3488372,Chrome,1536,864,,,l,0.59,10,299,1,0,10,10,4,1,0,1,0,0,0,0,1,0,circle,hexagon,,,,,,,,,,,,,,,,,,,,,,,,,,,,,,,,,,,,,,,,,,,,,,,,,,,,,,
294979,2022-10-04_23h37.36.747,vts_reward_expectancy,2022.2.4,Win32,145.3488372,Chrome,1536,864,,,l,0.986,10,309,1,0,11,11,8,1,0,0,1,0,0,0,0,1,hexagon,star,,,,,,,,,,,,,,,,,,,,,,,,,,,,,,,,,,,,,,,,,,,,,,,,,,,,,,
294979,2022-10-04_23h37.36.747,vts_reward_expectancy,2022.2.4,Win32,145.3488372,Chrome,1536,864,,,l,0.6944,10,319,1,1,0,12,9,1,0,0,0,1,1,0,0,0,star,triangle,,,,,,,,,,,,,,,,,,,,,,,,,,,,,,,,,,,,,,,,,,,,,,,,,,,,,,
294979,2022-10-04_23h37.36.747,vts_reward_expectancy,2022.2.4,Win32,145.3488372,Chrome,1536,864,,,l,0.5595,1,320,1,1,1,13,10,1,0,0,0,1,0,1,0,0,star ,circle,,,,,,,,,,,,,,,,,,,,,,,,,,,,,,,,,,,,,,,,,,,,,,,,,,,,,,
294979,2022-10-04_23h37.36.747,vts_reward_expectancy,2022.2.4,Win32,145.3488372,Chrome,1536,864,,,l,0.7637,10,330,1,1,2,14,4,1,0,1,0,0,0,0,1,0,circle,hexagon,,,,,,,,,,,,,,,,,,,,,,,,,,,,,,,,,,,,,,,,,,,,,,,,,,,,,,
294979,2022-10-04_23h37.36.747,vts_reward_expectancy,2022.2.4,Win32,145.3488372,Chrome,1536,864,,,l,0.5346,10,340,1,1,3,15,3,1,0,1,0,0,1,0,0,0,circle,triangle,,,,,,,,,,,,,,,,,,,,,,,,,,,,,,,,,,,,,,,,,,,,,,,,,,,,,,
294979,2022-10-04_23h37.36.747,vts_reward_expectancy,2022.2.4,Win32,145.3488372,Chrome,1536,864,,,a,1.2219,10,350,1,1,4,16,11,1,0,0,0,1,0,0,1,0,star,hexagon,,,,,,,,,,,,,,,,,,,,,,,,,,,,,,,,,,,,,,,,,,,,,,,,,,,,,,
294979,2022-10-04_23h37.36.747,vts_reward_expectancy,2022.2.4,Win32,145.3488372,Chrome,1536,864,,,a,0.6181,1,351,1,1,5,17,7,1,0,0,1,0,0,1,0,0,hexagon,circle,,,,,,,,,,,,,,,,,,,,,,,,,,,,,,,,,,,,,,,,,,,,,,,,,,,,,,
294979,2022-10-04_23h37.36.747,vts_reward_expectancy,2022.2.4,Win32,145.3488372,Chrome,1536,864,,,l,0.5694,10,361,1,1,6,18,6,1,0,0,1,0,1,0,0,0,hexagon,triangle,,,,,,,,,,,,,,,,,,,,,,,,,,,,,,,,,,,,,,,,,,,,,,,,,,,,,,
294979,2022-10-04_23h37.36.747,vts_reward_expectancy,2022.2.4,Win32,145.3488372,Chrome,1536,864,,,l,0.7882,1,362,1,1,7,19,5,1,0,1,0,0,0,0,0,1,circle,star,,,,,,,,,,,,,,,,,,,,,,,,,,,,,,,,,,,,,,,,,,,,,,,,,,,,,,
294979,2022-10-04_23h37.36.747,vts_reward_expectancy,2022.2.4,Win32,145.3488372,Chrome,1536,864,,,l,0.7782,1,363,1,1,8,20,8,1,0,0,1,0,0,0,0,1,hexagon,star,,,,,,,,,,,,,,,,,,,,,,,,,,,,,,,,,,,,,,,,,,,,,,,,,,,,,,
294979,2022-10-04_23h37.36.747,vts_reward_expectancy,2022.2.4,Win32,145.3488372,Chrome,1536,864,,,l,0.5574,1,364,1,1,9,21,1,1,1,0,0,0,0,0,1,0,triangle,hexagon,,,,,,,,,,,,,,,,,,,,,,,,,,,,,,,,,,,,,,,,,,,,,,,,,,,,,,
294979,2022-10-04_23h37.36.747,vts_reward_expectancy,2022.2.4,Win32,145.3488372,Chrome,1536,864,,,a,2.3779,10,374,1,1,10,22,2,1,1,0,0,0,0,0,0,1,triangle,star,,,,,,,,,,,,,,,,,,,,,,,,,,,,,,,,,,,,,,,,,,,,,,,,,,,,,,
294979,2022-10-04_23h37.36.747,vts_reward_expectancy,2022.2.4,Win32,145.3488372,Chrome,1536,864,,,a,2.5753,10,384,1,1,11,23,0,1,1,0,0,0,0,1,0,0,triangle,circle,,,,,,,,,,,,,,,,,,,,,,,,,,,,,,,,,,,,,,,,,,,,,,,,,,,,,,
294979,2022-10-04_23h37.36.747,vts_reward_expectancy,2022.2.4,Win32,145.3488372,Chrome,1536,864,,,l,0.6686,1,385,1,2,0,24,0,1,1,0,0,0,0,1,0,0,triangle,circle,,,,,,,,,,,,,,,,,,,,,,,,,,,,,,,,,,,,,,,,,,,,,,,,,,,,,,
294979,2022-10-04_23h37.36.747,vts_reward_expectancy,2022.2.4,Win32,145.3488372,Chrome,1536,864,,,l,0.5174,1,386,1,2,1,25,11,1,0,0,0,1,0,0,1,0,star,hexagon,,,,,,,,,,,,,,,,,,,,,,,,,,,,,,,,,,,,,,,,,,,,,,,,,,,,,,
294979,2022-10-04_23h37.36.747,vts_reward_expectancy,2022.2.4,Win32,145.3488372,Chrome,1536,864,,,l,0.59,10,396,1,2,2,26,3,1,0,1,0,0,1,0,0,0,circle,triangle,,,,,,,,,,,,,,,,,,,,,,,,,,,,,,,,,,,,,,,,,,,,,,,,,,,,,,
294979,2022-10-04_23h37.36.747,vts_reward_expectancy,2022.2.4,Win32,145.3488372,Chrome,1536,864,,,l,0.736,1,397,1,2,3,27,4,1,0,1,0,0,0,0,1,0,circle,hexagon,,,,,,,,,,,,,,,,,,,,,,,,,,,,,,,,,,,,,,,,,,,,,,,,,,,,,,
294979,2022-10-04_23h37.36.747,vts_reward_expectancy,2022.2.4,Win32,145.3488372,Chrome,1536,864,,,l,1.3744,10,407,1,2,4,28,6,1,0,0,1,0,1,0,0,0,hexagon,triangle,,,,,,,,,,,,,,,,,,,,,,,,,,,,,,,,,,,,,,,,,,,,,,,,,,,,,,
294979,2022-10-04_23h37.36.747,vts_reward_expectancy,2022.2.4,Win32,145.3488372,Chrome,1536,864,,,a,0.6179,10,417,1,2,5,29,1,1,1,0,0,0,0,0,1,0,triangle,hexagon,,,,,,,,,,,,,,,,,,,,,,,,,,,,,,,,,,,,,,,,,,,,,,,,,,,,,,
294979,2022-10-04_23h37.36.747,vts_reward_expectancy,2022.2.4,Win32,145.3488372,Chrome,1536,864,,,l,0.671,1,418,1,2,6,30,9,1,0,0,0,1,1,0,0,0,star,triangle,,,,,,,,,,,,,,,,,,,,,,,,,,,,,,,,,,,,,,,,,,,,,,,,,,,,,,
294979,2022-10-04_23h37.36.747,vts_reward_expectancy,2022.2.4,Win32,145.3488372,Chrome,1536,864,,,a,0.5497,1,419,1,2,7,31,10,1,0,0,0,1,0,1,0,0,star ,circle,,,,,,,,,,,,,,,,,,,,,,,,,,,,,,,,,,,,,,,,,,,,,,,,,,,,,,
294979,2022-10-04_23h37.36.747,vts_reward_expectancy,2022.2.4,Win32,145.3488372,Chrome,1536,864,,,a,0.7519,1,420,1,2,8,32,5,1,0,1,0,0,0,0,0,1,circle,star,,,,,,,,,,,,,,,,,,,,,,,,,,,,,,,,,,,,,,,,,,,,,,,,,,,,,,
294979,2022-10-04_23h37.36.747,vts_reward_expectancy,2022.2.4,Win32,145.3488372,Chrome,1536,864,,,l,0.7335,10,430,1,2,9,33,8,1,0,0,1,0,0,0,0,1,hexagon,star,,,,,,,,,,,,,,,,,,,,,,,,,,,,,,,,,,,,,,,,,,,,,,,,,,,,,,
294979,2022-10-04_23h37.36.747,vts_reward_expectancy,2022.2.4,Win32,145.3488372,Chrome,1536,864,,,l,0.4898,10,440,1,2,10,34,2,1,1,0,0,0,0,0,0,1,triangle,star,,,,,,,,,,,,,,,,,,,,,,,,,,,,,,,,,,,,,,,,,,,,,,,,,,,,,,
294979,2022-10-04_23h37.36.747,vts_reward_expectancy,2022.2.4,Win32,145.3488372,Chrome,1536,864,,,l,0.5975,10,450,1,2,11,35,7,1,0,0,1,0,0,1,0,0,hexagon,circle,,,,,,,,,,,,,,,,,,,,,,,,,,,,,,,,,,,,,,,,,,,,,,,,,,,,,,
294979,2022-10-04_23h37.36.747,vts_reward_expectancy,2022.2.4,Win32,145.3488372,Chrome,1536,864,,,a,1.0734,1,451,2,0,0,0,0,1,1,0,0,0,0,1,0,0,triangle,circle,,,,,,,,,,,,,,,,,,,,,,,,,,,,,,,,,,,,,,,,,,,,,,,,,,,,,,
294979,2022-10-04_23h37.36.747,vts_reward_expectancy,2022.2.4,Win32,145.3488372,Chrome,1536,864,,,a,0.389,10,461,2,0,1,1,8,1,0,0,1,0,0,0,0,1,hexagon,star,,,,,,,,,,,,,,,,,,,,,,,,,,,,,,,,,,,,,,,,,,,,,,,,,,,,,,
294979,2022-10-04_23h37.36.747,vts_reward_expectancy,2022.2.4,Win32,145.3488372,Chrome,1536,864,,,l,0.3334,10,471,2,0,2,2,1,1,1,0,0,0,0,0,1,0,triangle,hexagon,,,,,,,,,,,,,,,,,,,,,,,,,,,,,,,,,,,,,,,,,,,,,,,,,,,,,,
294979,2022-10-04_23h37.36.747,vts_reward_expectancy,2022.2.4,Win32,145.3488372,Chrome,1536,864,,,a,0.8541,10,481,2,0,3,3,7,1,0,0,1,0,0,1,0,0,hexagon,circle,,,,,,,,,,,,,,,,,,,,,,,,,,,,,,,,,,,,,,,,,,,,,,,,,,,,,,
294979,2022-10-04_23h37.36.747,vts_reward_expectancy,2022.2.4,Win32,145.3488372,Chrome,1536,864,,,l,0.5295,1,482,2,0,4,4,2,1,1,0,0,0,0,0,0,1,triangle,star,,,,,,,,,,,,,,,,,,,,,,,,,,,,,,,,,,,,,,,,,,,,,,,,,,,,,,
294979,2022-10-04_23h37.36.747,vts_reward_expectancy,2022.2.4,Win32,145.3488372,Chrome,1536,864,,,a,0.4168,1,483,2,0,5,5,5,1,0,1,0,0,0,0,0,1,circle,star,,,,,,,,,,,,,,,,,,,,,,,,,,,,,,,,,,,,,,,,,,,,,,,,,,,,,,
294979,2022-10-04_23h37.36.747,vts_reward_expectancy,2022.2.4,Win32,145.3488372,Chrome,1536,864,,,l,0.4585,10,493,2,0,6,6,4,1,0,1,0,0,0,0,1,0,circle,hexagon,,,,,,,,,,,,,,,,,,,,,,,,,,,,,,,,,,,,,,,,,,,,,,,,,,,,,,
294979,2022-10-04_23h37.36.747,vts_reward_expectancy,2022.2.4,Win32,145.3488372,Chrome,1536,864,,,l,0.5207,10,503,2,0,7,7,9,1,0,0,0,1,1,0,0,0,star,triangle,,,,,,,,,,,,,,,,,,,,,,,,,,,,,,,,,,,,,,,,,,,,,,,,,,,,,,
294979,2022-10-04_23h37.36.747,vts_reward_expectancy,2022.2.4,Win32,145.3488372,Chrome,1536,864,,,a,0.5523,1,504,2,0,8,8,3,1,0,1,0,0,1,0,0,0,circle,triangle,,,,,,,,,,,,,,,,,,,,,,,,,,,,,,,,,,,,,,,,,,,,,,,,,,,,,,
294979,2022-10-04_23h37.36.747,vts_reward_expectancy,2022.2.4,Win32,145.3488372,Chrome,1536,864,,,l,0.9304,10,514,2,0,9,9,11,1,0,0,0,1,0,0,1,0,star,hexagon,,,,,,,,,,,,,,,,,,,,,,,,,,,,,,,,,,,,,,,,,,,,,,,,,,,,,,
294979,2022-10-04_23h37.36.747,vts_reward_expectancy,2022.2.4,Win32,145.3488372,Chrome,1536,864,,,l,0.3473,10,524,2,0,10,10,6,1,0,0,1,0,1,0,0,0,hexagon,triangle,,,,,,,,,,,,,,,,,,,,,,,,,,,,,,,,,,,,,,,,,,,,,,,,,,,,,,
294979,2022-10-04_23h37.36.747,vts_reward_expectancy,2022.2.4,Win32,145.3488372,Chrome,1536,864,,,l,0.4846,10,534,2,0,11,11,10,1,0,0,0,1,0,1,0,0,star ,circle,,,,,,,,,,,,,,,,,,,,,,,,,,,,,,,,,,,,,,,,,,,,,,,,,,,,,,
294979,2022-10-04_23h37.36.747,vts_reward_expectancy,2022.2.4,Win32,145.3488372,Chrome,1536,864,,,l,0.4792,1,535,2,1,0,12,8,1,0,0,1,0,0,0,0,1,hexagon,star,,,,,,,,,,,,,,,,,,,,,,,,,,,,,,,,,,,,,,,,,,,,,,,,,,,,,,
294979,2022-10-04_23h37.36.747,vts_reward_expectancy,2022.2.4,Win32,145.3488372,Chrome,1536,864,,,l,0.4029,10,545,2,1,1,13,11,1,0,0,0,1,0,0,1,0,star,hexagon,,,,,,,,,,,,,,,,,,,,,,,,,,,,,,,,,,,,,,,,,,,,,,,,,,,,,,
294979,2022-10-04_23h37.36.747,vts_reward_expectancy,2022.2.4,Win32,145.3488372,Chrome,1536,864,,,l,0.5002,10,555,2,1,2,14,4,1,0,1,0,0,0,0,1,0,circle,hexagon,,,,,,,,,,,,,,,,,,,,,,,,,,,,,,,,,,,,,,,,,,,,,,,,,,,,,,
294979,2022-10-04_23h37.36.747,vts_reward_expectancy,2022.2.4,Win32,145.3488372,Chrome,1536,864,,,a,0.7152,10,565,2,1,3,15,7,1,0,0,1,0,0,1,0,0,hexagon,circle,,,,,,,,,,,,,,,,,,,,,,,,,,,,,,,,,,,,,,,,,,,,,,,,,,,,,,
294979,2022-10-04_23h37.36.747,vts_reward_expectancy,2022.2.4,Win32,145.3488372,Chrome,1536,864,,,a,1.1106,10,575,2,1,4,16,2,1,1,0,0,0,0,0,0,1,triangle,star,,,,,,,,,,,,,,,,,,,,,,,,,,,,,,,,,,,,,,,,,,,,,,,,,,,,,,
294979,2022-10-04_23h37.36.747,vts_reward_expectancy,2022.2.4,Win32,145.3488372,Chrome,1536,864,,,a,0.4166,10,585,2,1,5,17,1,1,1,0,0,0,0,0,1,0,triangle,hexagon,,,,,,,,,,,,,,,,,,,,,,,,,,,,,,,,,,,,,,,,,,,,,,,,,,,,,,
294979,2022-10-04_23h37.36.747,vts_reward_expectancy,2022.2.4,Win32,145.3488372,Chrome,1536,864,,,l,0.5277,1,586,2,1,6,18,3,1,0,1,0,0,1,0,0,0,circle,triangle,,,,,,,,,,,,,,,,,,,,,,,,,,,,,,,,,,,,,,,,,,,,,,,,,,,,,,
294979,2022-10-04_23h37.36.747,vts_reward_expectancy,2022.2.4,Win32,145.3488372,Chrome,1536,864,,,l,1.0898,10,596,2,1,7,19,6,1,0,0,1,0,1,0,0,0,hexagon,triangle,,,,,,,,,,,,,,,,,,,,,,,,,,,,,,,,,,,,,,,,,,,,,,,,,,,,,,
294979,2022-10-04_23h37.36.747,vts_reward_expectancy,2022.2.4,Win32,145.3488372,Chrome,1536,864,,,a,0.5347,10,606,2,1,8,20,0,1,1,0,0,0,0,1,0,0,triangle,circle,,,,,,,,,,,,,,,,,,,,,,,,,,,,,,,,,,,,,,,,,,,,,,,,,,,,,,
294979,2022-10-04_23h37.36.747,vts_reward_expectancy,2022.2.4,Win32,145.3488372,Chrome,1536,864,,,l,0.854,10,616,2,1,9,21,5,1,0,1,0,0,0,0,0,1,circle,star,,,,,,,,,,,,,,,,,,,,,,,,,,,,,,,,,,,,,,,,,,,,,,,,,,,,,,
294979,2022-10-04_23h37.36.747,vts_reward_expectancy,2022.2.4,Win32,145.3488372,Chrome,1536,864,,,a,0.6664,1,617,2,1,10,22,9,1,0,0,0,1,1,0,0,0,star,triangle,,,,,,,,,,,,,,,,,,,,,,,,,,,,,,,,,,,,,,,,,,,,,,,,,,,,,,
294979,2022-10-04_23h37.36.747,vts_reward_expectancy,2022.2.4,Win32,145.3488372,Chrome,1536,864,,,a,1.1398,1,618,2,1,11,23,10,1,0,0,0,1,0,1,0,0,star ,circle,,,,,,,,,,,,,,,,,,,,,,,,,,,,,,,,,,,,,,,,,,,,,,,,,,,,,,
294979,2022-10-04_23h37.36.747,vts_reward_expectancy,2022.2.4,Win32,145.3488372,Chrome,1536,864,,,l,0.4307,10,628,2,2,0,24,11,1,0,0,0,1,0,0,1,0,star,hexagon,,,,,,,,,,,,,,,,,,,,,,,,,,,,,,,,,,,,,,,,,,,,,,,,,,,,,,
294979,2022-10-04_23h37.36.747,vts_reward_expectancy,2022.2.4,Win32,145.3488372,Chrome,1536,864,,,l,0.4939,10,638,2,2,1,25,1,1,1,0,0,0,0,0,1,0,triangle,hexagon,,,,,,,,,,,,,,,,,,,,,,,,,,,,,,,,,,,,,,,,,,,,,,,,,,,,,,
294979,2022-10-04_23h37.36.747,vts_reward_expectancy,2022.2.4,Win32,145.3488372,Chrome,1536,864,,,l,0.4305,10,648,2,2,2,26,4,1,0,1,0,0,0,0,1,0,circle,hexagon,,,,,,,,,,,,,,,,,,,,,,,,,,,,,,,,,,,,,,,,,,,,,,,,,,,,,,
294979,2022-10-04_23h37.36.747,vts_reward_expectancy,2022.2.4,Win32,145.3488372,Chrome,1536,864,,,a,0.5292,10,658,2,2,3,27,2,1,1,0,0,0,0,0,0,1,triangle,star,,,,,,,,,,,,,,,,,,,,,,,,,,,,,,,,,,,,,,,,,,,,,,,,,,,,,,
294979,2022-10-04_23h37.36.747,vts_reward_expectancy,2022.2.4,Win32,145.3488372,Chrome,1536,864,,,a,0.6326,10,668,2,2,4,28,5,1,0,1,0,0,0,0,0,1,circle,star,,,,,,,,,,,,,,,,,,,,,,,,,,,,,,,,,,,,,,,,,,,,,,,,,,,,,,
294979,2022-10-04_23h37.36.747,vts_reward_expectancy,2022.2.4,Win32,145.3488372,Chrome,1536,864,,,l,0.4167,10,678,2,2,5,29,0,1,1,0,0,0,0,1,0,0,triangle,circle,,,,,,,,,,,,,,,,,,,,,,,,,,,,,,,,,,,,,,,,,,,,,,,,,,,,,,
294979,2022-10-04_23h37.36.747,vts_reward_expectancy,2022.2.4,Win32,145.3488372,Chrome,1536,864,,,a,0.6596,10,688,2,2,6,30,6,1,0,0,1,0,1,0,0,0,hexagon,triangle,,,,,,,,,,,,,,,,,,,,,,,,,,,,,,,,,,,,,,,,,,,,,,,,,,,,,,
294979,2022-10-04_23h37.36.747,vts_reward_expectancy,2022.2.4,Win32,145.3488372,Chrome,1536,864,,,l,0.5418,10,698,2,2,7,31,3,1,0,1,0,0,1,0,0,0,circle,triangle,,,,,,,,,,,,,,,,,,,,,,,,,,,,,,,,,,,,,,,,,,,,,,,,,,,,,,
294979,2022-10-04_23h37.36.747,vts_reward_expectancy,2022.2.4,Win32,145.3488372,Chrome,1536,864,,,a,0.4722,1,699,2,2,8,32,8,1,0,0,1,0,0,0,0,1,hexagon,star,,,,,,,,,,,,,,,,,,,,,,,,,,,,,,,,,,,,,,,,,,,,,,,,,,,,,,
294979,2022-10-04_23h37.36.747,vts_reward_expectancy,2022.2.4,Win32,145.3488372,Chrome,1536,864,,,l,0.5903,10,709,2,2,9,33,9,1,0,0,0,1,1,0,0,0,star,triangle,,,,,,,,,,,,,,,,,,,,,,,,,,,,,,,,,,,,,,,,,,,,,,,,,,,,,,
294979,2022-10-04_23h37.36.747,vts_reward_expectancy,2022.2.4,Win32,145.3488372,Chrome,1536,864,,,l,0.6601,1,710,2,2,10,34,10,1,0,0,0,1,0,1,0,0,star ,circle,,,,,,,,,,,,,,,,,,,,,,,,,,,,,,,,,,,,,,,,,,,,,,,,,,,,,,
294979,2022-10-04_23h37.36.747,vts_reward_expectancy,2022.2.4,Win32,145.3488372,Chrome,1536,864,,,a,0.5485,10,720,2,2,11,35,7,1,0,0,1,0,0,1,0,0,hexagon,circle,,,,,,,,,,,,,,,,,,,,,,,,,,,,,,,,,,,,,,,,,,,,,,,,,,,,,,
294979,2022-10-04_23h37.36.747,vts_reward_expectancy,2022.2.4,Win32,145.3488372,Chrome,1536,864,,,,,,,,,,,,,,,,,,,,,,,B,139,hexagon,1,0,d,0.594,0,0,0,0,0,1,,,,,,,,,,,,,,,,,,,,,,,,,,,,,,,,,,,,,,,,,
294979,2022-10-04_23h37.36.747,vts_reward_expectancy,2022.2.4,Win32,145.3488372,Chrome,1536,864,,,,,,,,,,,,,,,,,,,,,,,S,167,triangle,1,0,f,0.4303,0,1,0,1,0,1,,,,,,,,,,,,,,,,,,,,,,,,,,,,,,,,,,,,,,,,,
294979,2022-10-04_23h37.36.747,vts_reward_expectancy,2022.2.4,Win32,145.3488372,Chrome,1536,864,,,,,,,,,,,,,,,,,,,,,,,H,160,circle,1,0,d,0.7081,0,2,0,2,0,1,,,,,,,,,,,,,,,,,,,,,,,,,,,,,,,,,,,,,,,,,
294979,2022-10-04_23h37.36.747,vts_reward_expectancy,2022.2.4,Win32,145.3488372,Chrome,1536,864,,,,,,,,,,,,,,,,,,,,,,,F,125,star,1,0,d,0.6813,0,3,0,3,0,1,,,,,,,,,,,,,,,,,,,,,,,,,,,,,,,,,,,,,,,,,
294979,2022-10-04_23h37.36.747,vts_reward_expectancy,2022.2.4,Win32,145.3488372,Chrome,1536,864,,,,,,,,,,,,,,,,,,,,,,,W,181,hexagon,1,0,f,0.4233,0,4,0,4,0,1,,,,,,,,,,,,,,,,,,,,,,,,,,,,,,,,,,,,,,,,,
294979,2022-10-04_23h37.36.747,vts_reward_expectancy,2022.2.4,Win32,145.3488372,Chrome,1536,864,,,,,,,,,,,,,,,,,,,,,,,Y,132,triangle,1,0,f,0.6543,0,5,0,5,0,1,,,,,,,,,,,,,,,,,,,,,,,,,,,,,,,,,,,,,,,,,
294979,2022-10-04_23h37.36.747,vts_reward_expectancy,2022.2.4,Win32,145.3488372,Chrome,1536,864,,,,,,,,,,,,,,,,,,,,,,,U,174,circle,1,0,f,0.5068,0,6,0,6,0,1,,,,,,,,,,,,,,,,,,,,,,,,,,,,,,,,,,,,,,,,,
294979,2022-10-04_23h37.36.747,vts_reward_expectancy,2022.2.4,Win32,145.3488372,Chrome,1536,864,,,,,,,,,,,,,,,,,,,,,,,D,146,star,1,0,d,0.4696,0,7,0,7,0,1,,,,,,,,,,,,,,,,,,,,,,,,,,,,,,,,,,,,,,,,,
294979,2022-10-04_23h37.36.747,vts_reward_expectancy,2022.2.4,Win32,145.3488372,Chrome,1536,864,,,,,,,,,,,,,,,,,,,,,,,B,139,triangle,1,0,d,0.5622,0,8,0,8,0,1,,,,,,,,,,,,,,,,,,,,,,,,,,,,,,,,,,,,,,,,,
294979,2022-10-04_23h37.36.747,vts_reward_expectancy,2022.2.4,Win32,145.3488372,Chrome,1536,864,,,,,,,,,,,,,,,,,,,,,,,S,167,hexagon,1,0,f,0.6545,0,9,0,9,0,1,,,,,,,,,,,,,,,,,,,,,,,,,,,,,,,,,,,,,,,,,
294979,2022-10-04_23h37.36.747,vts_reward_expectancy,2022.2.4,Win32,145.3488372,Chrome,1536,864,,,,,,,,,,,,,,,,,,,,,,,B,146,star,1,0,,,1,,,,,,j,0.5505,0,0,0,0,1,,,,,,,,,,,,,,,,,,,,,,,,,,,,,,,,,,
294979,2022-10-04_23h37.36.747,vts_reward_expectancy,2022.2.4,Win32,145.3488372,Chrome,1536,864,,,,,,,,,,,,,,,,,,,,,,,H,181,hexagon,1,0,,,1,,,,,,k,0.4228,1,0,1,0,1,,,,,,,,,,,,,,,,,,,,,,,,,,,,,,,,,,
294979,2022-10-04_23h37.36.747,vts_reward_expectancy,2022.2.4,Win32,145.3488372,Chrome,1536,864,,,,,,,,,,,,,,,,,,,,,,,D,132,triangle,1,0,,,1,,,,,,j,0.6423,2,0,2,0,1,,,,,,,,,,,,,,,,,,,,,,,,,,,,,,,,,,
294979,2022-10-04_23h37.36.747,vts_reward_expectancy,2022.2.4,Win32,145.3488372,Chrome,1536,864,,,,,,,,,,,,,,,,,,,,,,,W,160,circle,1,0,,,1,,,,,,k,0.5413,3,0,3,0,1,,,,,,,,,,,,,,,,,,,,,,,,,,,,,,,,,,
294979,2022-10-04_23h37.36.747,vts_reward_expectancy,2022.2.4,Win32,145.3488372,Chrome,1536,864,,,,,,,,,,,,,,,,,,,,,,,Y,174,star,1,0,,,1,,,,,,k,0.5832,4,0,4,0,1,,,,,,,,,,,,,,,,,,,,,,,,,,,,,,,,,,
294979,2022-10-04_23h37.36.747,vts_reward_expectancy,2022.2.4,Win32,145.3488372,Chrome,1536,864,,,,,,,,,,,,,,,,,,,,,,,S,139,hexagon,1,0,,,1,,,,,,j,0.552,5,0,5,0,1,,,,,,,,,,,,,,,,,,,,,,,,,,,,,,,,,,
294979,2022-10-04_23h37.36.747,vts_reward_expectancy,2022.2.4,Win32,145.3488372,Chrome,1536,864,,,,,,,,,,,,,,,,,,,,,,,U,125,triangle,1,0,,,1,,,,,,j,0.8252,6,0,6,0,1,,,,,,,,,,,,,,,,,,,,,,,,,,,,,,,,,,
294979,2022-10-04_23h37.36.747,vts_reward_expectancy,2022.2.4,Win32,145.3488372,Chrome,1536,864,,,,,,,,,,,,,,,,,,,,,,,F,167,circle,1,0,,,1,,,,,,k,0.7706,7,0,7,0,1,,,,,,,,,,,,,,,,,,,,,,,,,,,,,,,,,,
294979,2022-10-04_23h37.36.747,vts_reward_expectancy,2022.2.4,Win32,145.3488372,Chrome,1536,864,,,,,,,,,,,,,,,,,,,,,,,B,146,circle,1,0,,,1,,,,,,j,0.5919,8,0,8,0,1,,,,,,,,,,,,,,,,,,,,,,,,,,,,,,,,,,
294979,2022-10-04_23h37.36.747,vts_reward_expectancy,2022.2.4,Win32,145.3488372,Chrome,1536,864,,,,,,,,,,,,,,,,,,,,,,,H,181,triangle,1,0,,,1,,,,,,k,1.1106,9,0,9,0,1,,,,,,,,,,,,,,,,,,,,,,,,,,,,,,,,,,
294979,2022-10-04_23h37.36.747,vts_reward_expectancy,2022.2.4,Win32,145.3488372,Chrome,1536,864,,,,,0,720,,,,,,,,,,,,,,,,,D,132,star,1,0,,,2,,,,,,,,,,,,,-1,number,NA,j,1.0311,vtsPrac,0,0,0,0,1,,,,,,,,,,,,,,,,,,,,,,,
294979,2022-10-04_23h37.36.747,vts_reward_expectancy,2022.2.4,Win32,145.3488372,Chrome,1536,864,,,,,0,720,,,,,,,,,,,,,,,,,F,146,hexagon,1,0,,,2,,,,,,,,,,,,,repeat,number,numRpt,j,1.0981,vtsPrac,1,0,1,0,1,,,,,,,,,,,,,,,,,,,,,,,
294979,2022-10-04_23h37.36.747,vts_reward_expectancy,2022.2.4,Win32,145.3488372,Chrome,1536,864,,,,,0,720,,,,,,,,,,,,,,,,,B,167,star,1,0,,,2,,,,,,,,,,,,,switch,letter,lettSwt,d,0.7636,vtsPrac,2,0,2,0,1,,,,,,,,,,,,,,,,,,,,,,,
294979,2022-10-04_23h37.36.747,vts_reward_expectancy,2022.2.4,Win32,145.3488372,Chrome,1536,864,,,,,0,720,,,,,,,,,,,,,,,,,W,160,hexagon,1,0,,,2,,,,,,,,,,,,,repeat,letter,lettRpt,f,0.5205,vtsPrac,3,0,3,0,1,,,,,,,,,,,,,,,,,,,,,,,
294979,2022-10-04_23h37.36.747,vts_reward_expectancy,2022.2.4,Win32,145.3488372,Chrome,1536,864,,,,,0,720,,,,,,,,,,,,,,,,,D,132,circle,1,0,,,2,,,,,,,,,,,,,switch,number,numSwt,j,0.5554,vtsPrac,4,0,4,0,1,,,,,,,,,,,,,,,,,,,,,,,
294979,2022-10-04_23h37.36.747,vts_reward_expectancy,2022.2.4,Win32,145.3488372,Chrome,1536,864,,,,,0,720,,,,,,,,,,,,,,,,,F,146,hexagon,1,0,,,2,,,,,,,,,,,,,repeat,number,numRpt,j,0.8552,vtsPrac,5,0,5,0,1,,,,,,,,,,,,,,,,,,,,,,,
294979,2022-10-04_23h37.36.747,vts_reward_expectancy,2022.2.4,Win32,145.3488372,Chrome,1536,864,,,,,0,720,,,,,,,,,,,,,,,,,B,167,circle,1,0,,,2,,,,,,,,,,,,,switch,letter,lettSwt,d,0.3606,vtsPrac,6,0,6,0,1,,,,,,,,,,,,,,,,,,,,,,,
294979,2022-10-04_23h37.36.747,vts_reward_expectancy,2022.2.4,Win32,145.3488372,Chrome,1536,864,,,,,0,720,,,,,,,,,,,,,,,,,W,160,triangle,1,0,,,2,,,,,,,,,,,,,repeat,letter,lettRpt,f,0.5132,vtsPrac,7,0,7,0,1,,,,,,,,,,,,,,,,,,,,,,,
294979,2022-10-04_23h37.36.747,vts_reward_expectancy,2022.2.4,Win32,145.3488372,Chrome,1536,864,,,,,0,720,,,,,,,,,,,,,,,,,H,132,circle,1,0,,,2,,,,,,,,,,,,,repeat,letter,lettRpt,d,0.6793,vtsPrac,8,0,8,0,1,,,,,,,,,,,,,,,,,,,,,,,
294979,2022-10-04_23h37.36.747,vts_reward_expectancy,2022.2.4,Win32,145.3488372,Chrome,1536,864,,,,,0,720,,,,,,,,,,,,,,,,,D,146,triangle,1,0,,,2,,,,,,,,,,,,,switch,number,numSwt,j,0.7006,vtsPrac,9,0,9,0,1,,,,,,,,,,,,,,,,,,,,,,,
294979,2022-10-04_23h37.36.747,vts_reward_expectancy,2022.2.4,Win32,145.3488372,Chrome,1536,864,,,,,0,720,,,,,,,,,,,,,,,,,F,160,star,0,0,,,2,,,,,,,,,,,,,repeat,number,NA,j,0.6519,vtsPrac,10,0,10,0,1,,,,,,,,,,,,,,,,,,,,,,,
294979,2022-10-04_23h37.36.747,vts_reward_expectancy,2022.2.4,Win32,145.3488372,Chrome,1536,864,,,,,0,720,,,,,,,,,,,,,,,,,B,174,circle,1,1,,,2,,,,,,,,,,,,,repeat,number,numRpt,k,0.943,vtsPrac,11,0,11,0,1,,,,,,,,,,,,,,,,,,,,,,,
294979,2022-10-04_23h37.36.747,vts_reward_expectancy,2022.2.4,Win32,145.3488372,Chrome,1536,864,,,,,0,720,,,,,,,,,,,,,,,,,U,125,hexagon,1,0,,,2,,,,,,,,,,,,,repeat,number,numRpt,j,0.5479,vtsPrac,12,0,12,0,1,,,,,,,,,,,,,,,,,,,,,,,
294979,2022-10-04_23h37.36.747,vts_reward_expectancy,2022.2.4,Win32,145.3488372,Chrome,1536,864,,,,,0,720,,,,,,,,,,,,,,,,,D,167,star,1,0,,,2,,,,,,,,,,,,,switch,letter,lettSwt,d,0.542,vtsPrac,13,0,13,0,1,,,,,,,,,,,,,,,,,,,,,,,
294979,2022-10-04_23h37.36.747,vts_reward_expectancy,2022.2.4,Win32,145.3488372,Chrome,1536,864,,,,,0,720,,,,,,,,,,,,,,,,,B,132,star,1,0,,,2,,,,,,,,,,,,,repeat,letter,lettRpt,d,0.6103,vtsPrac,14,0,14,0,1,,,,,,,,,,,,,,,,,,,,,,,
294979,2022-10-04_23h37.36.747,vts_reward_expectancy,2022.2.4,Win32,145.3488372,Chrome,1536,864,,,,,0,720,,,,,,,,,,,,,,,,,F,146,circle,1,0,,,2,,,,,,,,,,,,,repeat,letter,lettRpt,d,0.6659,vtsPrac,15,0,15,0,1,,,,,,,,,,,,,,,,,,,,,,,
294979,2022-10-04_23h37.36.747,vts_reward_expectancy,2022.2.4,Win32,145.3488372,Chrome,1536,864,,,,,,,,,,,,,,,,,,,,,,,,,,,,,,,,,,,,,,,,,,,,,,,,,,,,,,,,,,,,,,,,,,,,,,,,,,,,
294979,2022-10-04_23h37.36.747,vts_reward_expectancy,2022.2.4,Win32,145.3488372,Chrome,1536,864,,,,,,,,,,,,,,,,,,,,,,,,,,,,,,,,,,,,,,,,,,,,,,,,,,,,,,,,,,,,,,,,,,,,,,,,,,,,
294979,2022-10-04_23h37.36.747,vts_reward_expectancy,2022.2.4,Win32,145.3488372,Chrome,1536,864,,,,,0,720,,,,,,,,,,,,,,,,,U,160,star,1,0,,,,,,,,,,,,,,,,switch,number,numSwt,k,1.6657,noRew,,,,,,0,0,0,0,0,1,,,,,,,,,,,,,,,,,
294979,2022-10-04_23h37.36.747,vts_reward_expectancy,2022.2.4,Win32,145.3488372,Chrome,1536,864,,,,,0,720,,,,,,,,,,,,,,,,,B,146,hexagon,1,0,,,,,,,,,,,,,,,,switch,letter,lettSwt,d,0.5114,noRew,,,,,,0,1,0,1,0,1,,,,,,,,,,,,,,,,,
294979,2022-10-04_23h37.36.747,vts_reward_expectancy,2022.2.4,Win32,145.3488372,Chrome,1536,864,,,,,0,720,,,,,,,,,,,,,,,,,W,174,star,1,0,,,,,,,,,,,,,,,,switch,number,numSwt,k,0.5833,noRew,,,,,,0,2,0,2,0,1,,,,,,,,,,,,,,,,,
294979,2022-10-04_23h37.36.747,vts_reward_expectancy,2022.2.4,Win32,145.3488372,Chrome,1536,864,,,,,0,720,,,,,,,,,,,,,,,,,F,139,hexagon,1,0,,,,,,,,,,,,,,,,switch,letter,lettSwt,d,1.0973,noRew,,,,,,0,3,0,3,0,1,,,,,,,,,,,,,,,,,
294979,2022-10-04_23h37.36.747,vts_reward_expectancy,2022.2.4,Win32,145.3488372,Chrome,1536,864,,,,,0,720,,,,,,,,,,,,,,,,,U,160,star,1,0,,,,,,,,,,,,,,,,switch,number,numSwt,k,0.5781,noRew,,,,,,0,4,0,4,0,1,,,,,,,,,,,,,,,,,
294979,2022-10-04_23h37.36.747,vts_reward_expectancy,2022.2.4,Win32,145.3488372,Chrome,1536,864,,,,,0,720,,,,,,,,,,,,,,,,,B,146,hexagon,1,0,,,,,,,,,,,,,,,,repeat,number,numRpt,j,1.9691,noRew,,,,,,0,5,0,5,0,1,,,,,,,,,,,,,,,,,
294979,2022-10-04_23h37.36.747,vts_reward_expectancy,2022.2.4,Win32,145.3488372,Chrome,1536,864,,,,,0,720,,,,,,,,,,,,,,,,,W,174,circle,1,0,,,,,,,,,,,,,,,,switch,letter,lettSwt,f,0.5037,noRew,,,,,,0,6,0,6,0,1,,,,,,,,,,,,,,,,,
294979,2022-10-04_23h37.36.747,vts_reward_expectancy,2022.2.4,Win32,145.3488372,Chrome,1536,864,,,,,0,720,,,,,,,,,,,,,,,,,F,139,star,1,0,,,,,,,,,,,,,,,,repeat,letter,lettRpt,d,0.5621,noRew,,,,,,0,7,0,7,0,1,,,,,,,,,,,,,,,,,
294979,2022-10-04_23h37.36.747,vts_reward_expectancy,2022.2.4,Win32,145.3488372,Chrome,1536,864,,,,,0,720,,,,,,,,,,,,,,,,,D,125,circle,1,0,,,,,,,,,,,,,,,,switch,number,numSwt,j,0.5246,noRew,,,,,,0,8,0,8,0,1,,,,,,,,,,,,,,,,,
294979,2022-10-04_23h37.36.747,vts_reward_expectancy,2022.2.4,Win32,145.3488372,Chrome,1536,864,,,,,0,720,,,,,,,,,,,,,,,,,B,181,triangle,0,0,,,,,,,,,,,,,,,,switch,letter,NA,f,0.9544,noRew,,,,,,0,9,0,9,0,1,,,,,,,,,,,,,,,,,
294979,2022-10-04_23h37.36.747,vts_reward_expectancy,2022.2.4,Win32,145.3488372,Chrome,1536,864,,,,,0,720,,,,,,,,,,,,,,,,,W,132,triangle,1,1,,,,,,,,,,,,,,,,repeat,letter,lettRpt,f,0.6821,noRew,,,,,,0,10,0,10,0,1,,,,,,,,,,,,,,,,,
294979,2022-10-04_23h37.36.747,vts_reward_expectancy,2022.2.4,Win32,145.3488372,Chrome,1536,864,,,,,0,720,,,,,,,,,,,,,,,,,S,174,hexagon,1,0,,,,,,,,,,,,,,,,repeat,letter,lettRpt,f,0.7355,noRew,,,,,,0,11,0,11,0,1,,,,,,,,,,,,,,,,,
294979,2022-10-04_23h37.36.747,vts_reward_expectancy,2022.2.4,Win32,145.3488372,Chrome,1536,864,,,,,0,720,,,,,,,,,,,,,,,,,S,132,triangle,1,0,,,,,,,,,,,,,,,,repeat,letter,lettRpt,f,0.5279,noRew,,,,,,0,12,0,12,0,1,,,,,,,,,,,,,,,,,
294979,2022-10-04_23h37.36.747,vts_reward_expectancy,2022.2.4,Win32,145.3488372,Chrome,1536,864,,,,,0,720,,,,,,,,,,,,,,,,,Y,139,hexagon,1,0,,,,,,,,,,,,,,,,repeat,letter,lettRpt,f,0.5345,noRew,,,,,,0,13,0,13,0,1,,,,,,,,,,,,,,,,,
294979,2022-10-04_23h37.36.747,vts_reward_expectancy,2022.2.4,Win32,145.3488372,Chrome,1536,864,,,,,0,720,,,,,,,,,,,,,,,,,F,146,triangle,1,0,,,,,,,,,,,,,,,,switch,number,numSwt,j,0.5277,noRew,,,,,,0,14,0,14,0,1,,,,,,,,,,,,,,,,,
294979,2022-10-04_23h37.36.747,vts_reward_expectancy,2022.2.4,Win32,145.3488372,Chrome,1536,864,,,,,0,720,,,,,,,,,,,,,,,,,D,167,star,1,0,,,,,,,,,,,,,,,,repeat,number,numRpt,k,0.7151,noRew,,,,,,0,15,0,15,0,1,,,,,,,,,,,,,,,,,
294979,2022-10-04_23h37.36.747,vts_reward_expectancy,2022.2.4,Win32,145.3488372,Chrome,1536,864,,,,,0,720,,,,,,,,,,,,,,,,,H,125,hexagon,1,0,,,,,,,,,,,,,,,,repeat,number,numRpt,j,0.5554,noRew,,,,,,0,16,0,16,0,1,,,,,,,,,,,,,,,,,
294979,2022-10-04_23h37.36.747,vts_reward_expectancy,2022.2.4,Win32,145.3488372,Chrome,1536,864,,,,,0,720,,,,,,,,,,,,,,,,,W,174,circle,1,0,,,,,,,,,,,,,,,,repeat,number,numRpt,k,0.5138,noRew,,,,,,0,17,0,17,0,1,,,,,,,,,,,,,,,,,
294979,2022-10-04_23h37.36.747,vts_reward_expectancy,2022.2.4,Win32,145.3488372,Chrome,1536,864,,,,,0,720,,,,,,,,,,,,,,,,,B,139,hexagon,1,0,,,,,,,,,,,,,,,,repeat,number,numRpt,j,0.6318,noRew,,,,,,0,18,0,18,0,1,,,,,,,,,,,,,,,,,
294979,2022-10-04_23h37.36.747,vts_reward_expectancy,2022.2.4,Win32,145.3488372,Chrome,1536,864,,,,,0,720,,,,,,,,,,,,,,,,,F,132,star,1,0,,,,,,,,,,,,,,,,switch,letter,lettSwt,d,0.5969,noRew,,,,,,0,19,0,19,0,1,,,,,,,,,,,,,,,,,
294979,2022-10-04_23h37.36.747,vts_reward_expectancy,2022.2.4,Win32,145.3488372,Chrome,1536,864,,,,,0,720,,,,,,,,,,,,,,,,,F,132,circle,1,0,,,,,,,,,,,,,,,,repeat,letter,lettRpt,d,0.6806,noRew,,,,,,0,20,0,20,0,1,,,,,,,,,,,,,,,,,
294979,2022-10-04_23h37.36.747,vts_reward_expectancy,2022.2.4,Win32,145.3488372,Chrome,1536,864,,,,,0,720,,,,,,,,,,,,,,,,,U,181,triangle,1,0,,,,,,,,,,,,,,,,repeat,letter,lettRpt,f,0.8329,noRew,,,,,,0,21,0,21,0,1,,,,,,,,,,,,,,,,,
294979,2022-10-04_23h37.36.747,vts_reward_expectancy,2022.2.4,Win32,145.3488372,Chrome,1536,864,,,,,0,720,,,,,,,,,,,,,,,,,Y,174,circle,1,0,,,,,,,,,,,,,,,,repeat,letter,lettRpt,f,0.443,noRew,,,,,,0,22,0,22,0,1,,,,,,,,,,,,,,,,,
294979,2022-10-04_23h37.36.747,vts_reward_expectancy,2022.2.4,Win32,145.3488372,Chrome,1536,864,,,,,0,720,,,,,,,,,,,,,,,,,D,125,hexagon,1,0,,,,,,,,,,,,,,,,repeat,letter,lettRpt,d,0.5347,noRew,,,,,,0,23,0,23,0,1,,,,,,,,,,,,,,,,,
294979,2022-10-04_23h37.36.747,vts_reward_expectancy,2022.2.4,Win32,145.3488372,Chrome,1536,864,,,,,0,720,,,,,,,,,,,,,,,,,H,181,circle,1,0,,,,,,,,,,,,,,,,switch,number,numSwt,k,0.6263,noRew,,,,,,0,24,0,24,0,1,,,,,,,,,,,,,,,,,
294979,2022-10-04_23h37.36.747,vts_reward_expectancy,2022.2.4,Win32,145.3488372,Chrome,1536,864,,,,,0,720,,,,,,,,,,,,,,,,,U,160,triangle,1,0,,,,,,,,,,,,,,,,repeat,number,numRpt,k,0.6578,noRew,,,,,,0,25,0,25,0,1,,,,,,,,,,,,,,,,,
294979,2022-10-04_23h37.36.747,vts_reward_expectancy,2022.2.4,Win32,145.3488372,Chrome,1536,864,,,,,0,720,,,,,,,,,,,,,,,,,W,174,triangle,1,0,,,,,,,,,,,,,,,,repeat,number,numRpt,k,0.5799,noRew,,,,,,0,26,0,26,0,1,,,,,,,,,,,,,,,,,
294979,2022-10-04_23h37.36.747,vts_reward_expectancy,2022.2.4,Win32,145.3488372,Chrome,1536,864,,,,,0,720,,,,,,,,,,,,,,,,,S,167,hexagon,1,0,,,,,,,,,,,,,,,,repeat,number,numRpt,k,1.0272,noRew,,,,,,0,27,0,27,0,1,,,,,,,,,,,,,,,,,
294979,2022-10-04_23h37.36.747,vts_reward_expectancy,2022.2.4,Win32,145.3488372,Chrome,1536,864,,,,,0,720,,,,,,,,,,,,,,,,,W,160,circle,1,0,,,,,,,,,,,,,,,,repeat,number,numRpt,k,0.6458,noRew,,,,,,0,28,0,28,0,1,,,,,,,,,,,,,,,,,
294979,2022-10-04_23h37.36.747,vts_reward_expectancy,2022.2.4,Win32,145.3488372,Chrome,1536,864,,,,,0,720,,,,,,,,,,,,,,,,,H,146,hexagon,1,0,,,,,,,,,,,,,,,,switch,letter,lettSwt,d,1.2912,noRew,,,,,,0,29,0,29,0,1,,,,,,,,,,,,,,,,,
294979,2022-10-04_23h37.36.747,vts_reward_expectancy,2022.2.4,Win32,145.3488372,Chrome,1536,864,,,,,0,720,,,,,,,,,,,,,,,,,S,181,triangle,1,0,,,,,,,,,,,,,,,,repeat,letter,lettRpt,f,0.7847,noRew,,,,,,0,30,0,30,0,1,,,,,,,,,,,,,,,,,
294979,2022-10-04_23h37.36.747,vts_reward_expectancy,2022.2.4,Win32,145.3488372,Chrome,1536,864,,,,,0,720,,,,,,,,,,,,,,,,,Y,167,circle,1,0,,,,,,,,,,,,,,,,repeat,letter,lettRpt,f,0.5732,noRew,,,,,,0,31,0,31,0,1,,,,,,,,,,,,,,,,,
294979,2022-10-04_23h37.36.747,vts_reward_expectancy,2022.2.4,Win32,145.3488372,Chrome,1536,864,,,,,0,720,,,,,,,,,,,,,,,,,H,139,triangle,1,0,,,,,,,,,,,,,,,,repeat,letter,lettRpt,d,1.0343,noRew,,,,,,0,32,0,32,0,1,,,,,,,,,,,,,,,,,
294979,2022-10-04_23h37.36.747,vts_reward_expectancy,2022.2.4,Win32,145.3488372,Chrome,1536,864,,,,,0,720,,,,,,,,,,,,,,,,,D,174,hexagon,1,0,,,,,,,,,,,,,,,,repeat,letter,lettRpt,d,0.4997,noRew,,,,,,0,33,0,33,0,1,,,,,,,,,,,,,,,,,
294979,2022-10-04_23h37.36.747,vts_reward_expectancy,2022.2.4,Win32,145.3488372,Chrome,1536,864,,,,,0,720,,,,,,,,,,,,,,,,,B,125,triangle,1,0,,,,,,,,,,,,,,,,repeat,letter,lettRpt,d,0.5278,noRew,,,,,,0,34,0,34,0,1,,,,,,,,,,,,,,,,,
294979,2022-10-04_23h37.36.747,vts_reward_expectancy,2022.2.4,Win32,145.3488372,Chrome,1536,864,,,,,0,720,,,,,,,,,,,,,,,,,W,160,hexagon,1,0,,,,,,,,,,,,,,,,repeat,letter,lettRpt,f,0.5992,noRew,,,,,,0,35,0,35,0,1,,,,,,,,,,,,,,,,,
294979,2022-10-04_23h37.36.747,vts_reward_expectancy,2022.2.4,Win32,145.3488372,Chrome,1536,864,,,,,0,720,,,,,,,,,,,,,,,,,W,139,circle,1,0,,,,,,,,,,,,,,,,repeat,letter,lettRpt,f,0.4917,noRew,,,,,,0,36,0,36,0,1,,,,,,,,,,,,,,,,,
294979,2022-10-04_23h37.36.747,vts_reward_expectancy,2022.2.4,Win32,145.3488372,Chrome,1536,864,,,,,0,720,,,,,,,,,,,,,,,,,S,174,hexagon,1,0,,,,,,,,,,,,,,,,repeat,letter,lettRpt,f,0.7437,noRew,,,,,,0,37,0,37,0,1,,,,,,,,,,,,,,,,,
294979,2022-10-04_23h37.36.747,vts_reward_expectancy,2022.2.4,Win32,145.3488372,Chrome,1536,864,,,,,0,720,,,,,,,,,,,,,,,,,B,160,star,1,0,,,,,,,,,,,,,,,,repeat,letter,lettRpt,d,0.5432,noRew,,,,,,0,38,0,38,0,1,,,,,,,,,,,,,,,,,
294979,2022-10-04_23h37.36.747,vts_reward_expectancy,2022.2.4,Win32,145.3488372,Chrome,1536,864,,,,,0,720,,,,,,,,,,,,,,,,,H,167,triangle,1,0,,,,,,,,,,,,,,,,repeat,letter,lettRpt,d,0.6603,noRew,,,,,,0,39,0,39,0,1,,,,,,,,,,,,,,,,,
294979,2022-10-04_23h37.36.747,vts_reward_expectancy,2022.2.4,Win32,145.3488372,Chrome,1536,864,,,,,0,720,,,,,,,,,,,,,,,,,S,174,star,1,0,,,,,,,,,,,,,,,,repeat,letter,lettRpt,f,0.5137,noRew,,,,,,0,40,0,40,0,1,,,,,,,,,,,,,,,,,
294979,2022-10-04_23h37.36.747,vts_reward_expectancy,2022.2.4,Win32,145.3488372,Chrome,1536,864,,,,,0,720,,,,,,,,,,,,,,,,,B,132,hexagon,1,0,,,,,,,,,,,,,,,,repeat,letter,lettRpt,d,0.4664,noRew,,,,,,0,41,0,41,0,1,,,,,,,,,,,,,,,,,
294979,2022-10-04_23h37.36.747,vts_reward_expectancy,2022.2.4,Win32,145.3488372,Chrome,1536,864,,,,,0,720,,,,,,,,,,,,,,,,,H,160,circle,1,0,,,,,,,,,,,,,,,,repeat,letter,lettRpt,d,0.5556,noRew,,,,,,0,42,0,42,0,1,,,,,,,,,,,,,,,,,
294979,2022-10-04_23h37.36.747,vts_reward_expectancy,2022.2.4,Win32,145.3488372,Chrome,1536,864,,,,,0,720,,,,,,,,,,,,,,,,,D,181,hexagon,1,0,,,,,,,,,,,,,,,,repeat,letter,lettRpt,d,0.434,noRew,,,,,,0,43,0,43,0,1,,,,,,,,,,,,,,,,,
294979,2022-10-04_23h37.36.747,vts_reward_expectancy,2022.2.4,Win32,145.3488372,Chrome,1536,864,,,,,0,720,,,,,,,,,,,,,,,,,F,146,triangle,1,0,,,,,,,,,,,,,,,,switch,number,numSwt,j,0.3508,noRew,,,,,,0,44,0,44,0,1,,,,,,,,,,,,,,,,,
294979,2022-10-04_23h37.36.747,vts_reward_expectancy,2022.2.4,Win32,145.3488372,Chrome,1536,864,,,,,0,720,,,,,,,,,,,,,,,,,H,181,hexagon,1,0,,,,,,,,,,,,,,,,repeat,number,numRpt,k,0.6566,noRew,,,,,,0,45,0,45,0,1,,,,,,,,,,,,,,,,,
294979,2022-10-04_23h37.36.747,vts_reward_expectancy,2022.2.4,Win32,145.3488372,Chrome,1536,864,,,,,0,720,,,,,,,,,,,,,,,,,D,160,circle,1,0,,,,,,,,,,,,,,,,repeat,number,numRpt,k,0.5276,noRew,,,,,,0,46,0,46,0,1,,,,,,,,,,,,,,,,,
294979,2022-10-04_23h37.36.747,vts_reward_expectancy,2022.2.4,Win32,145.3488372,Chrome,1536,864,,,,,0,720,,,,,,,,,,,,,,,,,W,139,star,1,0,,,,,,,,,,,,,,,,repeat,number,numRpt,j,0.4938,noRew,,,,,,0,47,0,47,0,1,,,,,,,,,,,,,,,,,
294979,2022-10-04_23h37.36.747,vts_reward_expectancy,2022.2.4,Win32,145.3488372,Chrome,1536,864,,,,,0,720,,,,,,,,,,,,,,,,,D,160,triangle,1,0,,,,,,,,,,,,,,,,repeat,number,numRpt,k,0.4808,noRew,,,,,,0,48,0,48,0,1,,,,,,,,,,,,,,,,,
294979,2022-10-04_23h37.36.747,vts_reward_expectancy,2022.2.4,Win32,145.3488372,Chrome,1536,864,,,,,0,720,,,,,,,,,,,,,,,,,F,167,circle,1,0,,,,,,,,,,,,,,,,repeat,number,numRpt,k,1.1492,noRew,,,,,,0,49,0,49,0,1,,,,,,,,,,,,,,,,,
294979,2022-10-04_23h37.36.747,vts_reward_expectancy,2022.2.4,Win32,145.3488372,Chrome,1536,864,,,,,0,720,,,,,,,,,,,,,,,,,Y,125,star,1,0,,,,,,,,,,,,,,,,repeat,number,numRpt,j,1.3368,noRew,,,,,,0,50,0,50,0,1,,,,,,,,,,,,,,,,,
294979,2022-10-04_23h37.36.747,vts_reward_expectancy,2022.2.4,Win32,145.3488372,Chrome,1536,864,,,,,0,720,,,,,,,,,,,,,,,,,W,174,triangle,1,0,,,,,,,,,,,,,,,,switch,letter,lettSwt,f,0.4507,noRew,,,,,,0,51,0,51,0,1,,,,,,,,,,,,,,,,,
294979,2022-10-04_23h37.36.747,vts_reward_expectancy,2022.2.4,Win32,145.3488372,Chrome,1536,864,,,,,0,720,,,,,,,,,,,,,,,,,D,167,star,1,0,,,,,,,,,,,,,,,,repeat,letter,lettRpt,d,0.5415,noRew,,,,,,0,52,0,52,0,1,,,,,,,,,,,,,,,,,
294979,2022-10-04_23h37.36.747,vts_reward_expectancy,2022.2.4,Win32,145.3488372,Chrome,1536,864,,,,,0,720,,,,,,,,,,,,,,,,,F,146,triangle,1,0,,,,,,,,,,,,,,,,repeat,letter,lettRpt,d,0.9859,noRew,,,,,,0,53,0,53,0,1,,,,,,,,,,,,,,,,,
294979,2022-10-04_23h37.36.747,vts_reward_expectancy,2022.2.4,Win32,145.3488372,Chrome,1536,864,,,,,0,720,,,,,,,,,,,,,,,,,S,139,star,1,0,,,,,,,,,,,,,,,,repeat,letter,lettRpt,f,0.6547,noRew,,,,,,0,54,0,54,0,1,,,,,,,,,,,,,,,,,
294979,2022-10-04_23h37.36.747,vts_reward_expectancy,2022.2.4,Win32,145.3488372,Chrome,1536,864,,,,,0,720,,,,,,,,,,,,,,,,,W,174,circle,1,0,,,,,,,,,,,,,,,,repeat,letter,lettRpt,f,0.5833,noRew,,,,,,0,55,0,55,0,1,,,,,,,,,,,,,,,,,
294979,2022-10-04_23h37.36.747,vts_reward_expectancy,2022.2.4,Win32,145.3488372,Chrome,1536,864,,,,,0,720,,,,,,,,,,,,,,,,,U,125,hexagon,1,0,,,,,,,,,,,,,,,,repeat,letter,lettRpt,f,0.4827,noRew,,,,,,0,56,0,56,0,1,,,,,,,,,,,,,,,,,
294979,2022-10-04_23h37.36.747,vts_reward_expectancy,2022.2.4,Win32,145.3488372,Chrome,1536,864,,,,,0,720,,,,,,,,,,,,,,,,,D,181,circle,1,0,,,,,,,,,,,,,,,,repeat,letter,lettRpt,d,0.5431,noRew,,,,,,0,57,0,57,0,1,,,,,,,,,,,,,,,,,
294979,2022-10-04_23h37.36.747,vts_reward_expectancy,2022.2.4,Win32,145.3488372,Chrome,1536,864,,,,,0,720,,,,,,,,,,,,,,,,,B,167,star,1,0,,,,,,,,,,,,,,,,repeat,letter,lettRpt,d,0.4512,noRew,,,,,,0,58,0,58,0,1,,,,,,,,,,,,,,,,,
294979,2022-10-04_23h37.36.747,vts_reward_expectancy,2022.2.4,Win32,145.3488372,Chrome,1536,864,,,,,0,720,,,,,,,,,,,,,,,,,S,139,triangle,1,0,,,,,,,,,,,,,,,,repeat,letter,lettRpt,f,0.4233,noRew,,,,,,0,59,0,59,0,1,,,,,,,,,,,,,,,,,
294979,2022-10-04_23h37.36.747,vts_reward_expectancy,2022.2.4,Win32,145.3488372,Chrome,1536,864,,,,,0,720,,,,,,,,,,,,,,,,,S,132,triangle,1,0,,,,,,,,,,,,,,,,repeat,letter,lettRpt,f,0.7117,noRew,,,,,,0,60,0,60,0,1,,,,,,,,,,,,,,,,,
294979,2022-10-04_23h37.36.747,vts_reward_expectancy,2022.2.4,Win32,145.3488372,Chrome,1536,864,,,,,0,720,,,,,,,,,,,,,,,,,H,146,hexagon,1,0,,,,,,,,,,,,,,,,repeat,letter,lettRpt,d,0.6989,noRew,,,,,,0,61,0,61,0,1,,,,,,,,,,,,,,,,,
294979,2022-10-04_23h37.36.747,vts_reward_expectancy,2022.2.4,Win32,145.3488372,Chrome,1536,864,,,,,0,720,,,,,,,,,,,,,,,,,Y,160,star,1,0,,,,,,,,,,,,,,,,repeat,letter,lettRpt,f,0.5278,noRew,,,,,,0,62,0,62,0,1,,,,,,,,,,,,,,,,,
294979,2022-10-04_23h37.36.747,vts_reward_expectancy,2022.2.4,Win32,145.3488372,Chrome,1536,864,,,,,0,720,,,,,,,,,,,,,,,,,D,174,circle,1,0,,,,,,,,,,,,,,,,repeat,letter,lettRpt,d,0.5642,noRew,,,,,,0,63,0,63,0,1,,,,,,,,,,,,,,,,,
294979,2022-10-04_23h37.36.747,vts_reward_expectancy,2022.2.4,Win32,145.3488372,Chrome,1536,864,,,,,,,,,,,,,,,,,,,,,,,,,,,,,,,,,,,,,,,,,,,,,,,,,,,,,,,,,,,,,,,,,,,,,,,,,,,,
294979,2022-10-04_23h37.36.747,vts_reward_expectancy,2022.2.4,Win32,145.3488372,Chrome,1536,864,,,,,0,720,,,,,,,,,,,,,,,,,B,132,hexagon,1,0,,,,,,,,,,,,,,,,repeat,letter,lettRpt,d,0.7357,Hi,,,,,,0,,,,,,space,9.2864,low,0,0,0,0,1,,,,,,,,,
294979,2022-10-04_23h37.36.747,vts_reward_expectancy,2022.2.4,Win32,145.3488372,Chrome,1536,864,,,,,0,720,,,,,,,,,,,,,,,,,F,125,circle,0,0,,,,,,,,,,,,,,,,repeat,letter,NA,f,0.4165,Hi,,,,,,0,,,,,,,,low,1,0,1,0,1,,,,,,,,,
294979,2022-10-04_23h37.36.747,vts_reward_expectancy,2022.2.4,Win32,145.3488372,Chrome,1536,864,,,,,10,730,,,,,,,,,,,,,,,,,S,160,hexagon,1,1,,,,,,,,,,,,,,,,repeat,letter,lettRpt,f,0.4946,Hi,,,,,,0,,,,,,,,low,2,0,2,0,1,,,,,,,,,
294979,2022-10-04_23h37.36.747,vts_reward_expectancy,2022.2.4,Win32,145.3488372,Chrome,1536,864,,,,,1,731,,,,,,,,,,,,,,,,,Y,174,circle,1,0,,,,,,,,,,,,,,,,repeat,letter,lettRpt,f,0.4304,Lo,,,,,,0,,,,,,,,low,3,0,3,0,1,,,,,,,,,
294979,2022-10-04_23h37.36.747,vts_reward_expectancy,2022.2.4,Win32,145.3488372,Chrome,1536,864,,,,,10,741,,,,,,,,,,,,,,,,,D,139,hexagon,1,0,,,,,,,,,,,,,,,,repeat,letter,lettRpt,d,0.4791,Hi,,,,,,0,,,,,,,,low,4,0,4,0,1,,,,,,,,,
294979,2022-10-04_23h37.36.747,vts_reward_expectancy,2022.2.4,Win32,145.3488372,Chrome,1536,864,,,,,1,742,,,,,,,,,,,,,,,,,W,146,circle,1,0,,,,,,,,,,,,,,,,repeat,letter,lettRpt,f,0.4721,Lo,,,,,,0,,,,,,,,low,5,0,5,0,1,,,,,,,,,
294979,2022-10-04_23h37.36.747,vts_reward_expectancy,2022.2.4,Win32,145.3488372,Chrome,1536,864,,,,,1,743,,,,,,,,,,,,,,,,,U,167,hexagon,1,0,,,,,,,,,,,,,,,,repeat,letter,lettRpt,f,0.4697,Hi,,,,,,0,,,,,,,,low,6,0,6,0,1,,,,,,,,,
294979,2022-10-04_23h37.36.747,vts_reward_expectancy,2022.2.4,Win32,145.3488372,Chrome,1536,864,,,,,1,744,,,,,,,,,,,,,,,,,H,181,circle,1,0,,,,,,,,,,,,,,,,repeat,letter,lettRpt,d,0.421,Lo,,,,,,0,,,,,,,,low,7,0,7,0,1,,,,,,,,,
294979,2022-10-04_23h37.36.747,vts_reward_expectancy,2022.2.4,Win32,145.3488372,Chrome,1536,864,,,,,10,754,,,,,,,,,,,,,,,,,B,132,circle,1,0,,,,,,,,,,,,,,,,repeat,letter,lettRpt,d,0.3244,Lo,,,,,,0,,,,,,,,low,8,0,8,0,1,,,,,,,,,
294979,2022-10-04_23h37.36.747,vts_reward_expectancy,2022.2.4,Win32,145.3488372,Chrome,1536,864,,,,,0,754,,,,,,,,,,,,,,,,,F,125,hexagon,1,0,,,,,,,,,,,,,,,,repeat,letter,lettRpt,d,0.5423,Hi,,,,,,0,,,,,,,,low,9,0,9,0,1,,,,,,,,,
294979,2022-10-04_23h37.36.747,vts_reward_expectancy,2022.2.4,Win32,145.3488372,Chrome,1536,864,,,,,10,764,,,,,,,,,,,,,,,,,S,160,hexagon,1,0,,,,,,,,,,,,,,,,repeat,letter,lettRpt,f,0.5241,Hi,,,,,,0,,,,,,,,low,10,0,10,0,1,,,,,,,,,
294979,2022-10-04_23h37.36.747,vts_reward_expectancy,2022.2.4,Win32,145.3488372,Chrome,1536,864,,,,,1,765,,,,,,,,,,,,,,,,,Y,174,circle,1,0,,,,,,,,,,,,,,,,repeat,letter,lettRpt,f,0.4444,Lo,,,,,,0,,,,,,,,low,11,0,11,0,1,,,,,,,,,
294979,2022-10-04_23h37.36.747,vts_reward_expectancy,2022.2.4,Win32,145.3488372,Chrome,1536,864,,,,,0,765,,,,,,,,,,,,,,,,,D,139,hexagon,1,0,,,,,,,,,,,,,,,,repeat,letter,lettRpt,d,0.5591,Hi,,,,,,0,,,,,,,,low,12,0,12,0,1,,,,,,,,,
294979,2022-10-04_23h37.36.747,vts_reward_expectancy,2022.2.4,Win32,145.3488372,Chrome,1536,864,,,,,0,765,,,,,,,,,,,,,,,,,W,146,circle,0,0,,,,,,,,,,,,,,,,repeat,letter,NA,d,0.4809,Hi,,,,,,0,,,,,,,,low,13,0,13,0,1,,,,,,,,,
294979,2022-10-04_23h37.36.747,vts_reward_expectancy,2022.2.4,Win32,145.3488372,Chrome,1536,864,,,,,10,775,,,,,,,,,,,,,,,,,U,167,hexagon,1,1,,,,,,,,,,,,,,,,repeat,letter,lettRpt,f,0.5,Hi,,,,,,0,,,,,,,,low,14,0,14,0,1,,,,,,,,,
294979,2022-10-04_23h37.36.747,vts_reward_expectancy,2022.2.4,Win32,145.3488372,Chrome,1536,864,,,,,10,785,,,,,,,,,,,,,,,,,H,181,circle,1,0,,,,,,,,,,,,,,,,repeat,letter,lettRpt,d,0.5276,Lo,,,,,,0,,,,,,,,low,15,0,15,0,1,,,,,,,,,
294979,2022-10-04_23h37.36.747,vts_reward_expectancy,2022.2.4,Win32,145.3488372,Chrome,1536,864,,,,,10,795,,,,,,,,,,,,,,,,,F,181,circle,1,0,,,,,,,,,,,,,,,,repeat,letter,lettRpt,d,0.5503,Lo,,,,,,0,,,,,,,,low,16,0,16,0,1,,,,,,,,,
294979,2022-10-04_23h37.36.747,vts_reward_expectancy,2022.2.4,Win32,145.3488372,Chrome,1536,864,,,,,1,796,,,,,,,,,,,,,,,,,S,160,hexagon,1,0,,,,,,,,,,,,,,,,repeat,letter,lettRpt,f,0.5208,Hi,,,,,,0,,,,,,,,low,17,0,17,0,1,,,,,,,,,
294979,2022-10-04_23h37.36.747,vts_reward_expectancy,2022.2.4,Win32,145.3488372,Chrome,1536,864,,,,,1,797,,,,,,,,,,,,,,,,,U,125,circle,1,0,,,,,,,,,,,,,,,,repeat,letter,lettRpt,f,0.622,Lo,,,,,,0,,,,,,,,low,18,0,18,0,1,,,,,,,,,
294979,2022-10-04_23h37.36.747,vts_reward_expectancy,2022.2.4,Win32,145.3488372,Chrome,1536,864,,,,,10,807,,,,,,,,,,,,,,,,,H,174,hexagon,1,0,,,,,,,,,,,,,,,,repeat,letter,lettRpt,d,0.3321,Hi,,,,,,0,,,,,,,,low,19,0,19,0,1,,,,,,,,,
294979,2022-10-04_23h37.36.747,vts_reward_expectancy,2022.2.4,Win32,145.3488372,Chrome,1536,864,,,,,1,808,,,,,,,,,,,,,,,,,D,146,circle,1,0,,,,,,,,,,,,,,,,repeat,letter,lettRpt,d,0.3818,Lo,,,,,,0,,,,,,,,low,20,0,20,0,1,,,,,,,,,
294979,2022-10-04_23h37.36.747,vts_reward_expectancy,2022.2.4,Win32,145.3488372,Chrome,1536,864,,,,,10,818,,,,,,,,,,,,,,,,,B,139,hexagon,1,0,,,,,,,,,,,,,,,,repeat,letter,lettRpt,d,0.4998,Hi,,,,,,0,,,,,,,,low,21,0,21,0,1,,,,,,,,,
294979,2022-10-04_23h37.36.747,vts_reward_expectancy,2022.2.4,Win32,145.3488372,Chrome,1536,864,,,,,1,819,,,,,,,,,,,,,,,,,Y,167,circle,1,0,,,,,,,,,,,,,,,,repeat,letter,lettRpt,f,0.5009,Lo,,,,,,0,,,,,,,,low,22,0,22,0,1,,,,,,,,,
294979,2022-10-04_23h37.36.747,vts_reward_expectancy,2022.2.4,Win32,145.3488372,Chrome,1536,864,,,,,0,819,,,,,,,,,,,,,,,,,W,132,hexagon,1,0,,,,,,,,,,,,,,,,repeat,letter,lettRpt,f,0.6221,Hi,,,,,,0,,,,,,,,low,23,0,23,0,1,,,,,,,,,
294979,2022-10-04_23h37.36.747,vts_reward_expectancy,2022.2.4,Win32,145.3488372,Chrome,1536,864,,,,,10,829,,,,,,,,,,,,,,,,,F,132,circle,1,0,,,,,,,,,,,,,,,,repeat,letter,lettRpt,d,0.507,Lo,,,,,,0,,,,,,,,low,24,0,24,0,1,,,,,,,,,
294979,2022-10-04_23h37.36.747,vts_reward_expectancy,2022.2.4,Win32,145.3488372,Chrome,1536,864,,,,,0,829,,,,,,,,,,,,,,,,,U,125,hexagon,1,0,,,,,,,,,,,,,,,,repeat,letter,lettRpt,f,0.5832,Hi,,,,,,0,,,,,,,,low,25,0,25,0,1,,,,,,,,,
294979,2022-10-04_23h37.36.747,vts_reward_expectancy,2022.2.4,Win32,145.3488372,Chrome,1536,864,,,,,10,839,,,,,,,,,,,,,,,,,D,160,circle,1,0,,,,,,,,,,,,,,,,repeat,letter,lettRpt,d,0.3473,Lo,,,,,,0,,,,,,,,low,26,0,26,0,1,,,,,,,,,
294979,2022-10-04_23h37.36.747,vts_reward_expectancy,2022.2.4,Win32,145.3488372,Chrome,1536,864,,,,,10,849,,,,,,,,,,,,,,,,,S,146,hexagon,1,0,,,,,,,,,,,,,,,,repeat,letter,lettRpt,f,0.4863,Hi,,,,,,0,,,,,,,,low,27,0,27,0,1,,,,,,,,,
294979,2022-10-04_23h37.36.747,vts_reward_expectancy,2022.2.4,Win32,145.3488372,Chrome,1536,864,,,,,10,859,,,,,,,,,,,,,,,,,Y,167,hexagon,1,0,,,,,,,,,,,,,,,,repeat,letter,lettRpt,f,0.4791,Hi,,,,,,0,,,,,,,,low,28,0,28,0,1,,,,,,,,,
294979,2022-10-04_23h37.36.747,vts_reward_expectancy,2022.2.4,Win32,145.3488372,Chrome,1536,864,,,,,1,860,,,,,,,,,,,,,,,,,W,181,circle,1,0,,,,,,,,,,,,,,,,repeat,letter,lettRpt,f,0.4095,Lo,,,,,,0,,,,,,,,low,29,0,29,0,1,,,,,,,,,
294979,2022-10-04_23h37.36.747,vts_reward_expectancy,2022.2.4,Win32,145.3488372,Chrome,1536,864,,,,,0,860,,,,,,,,,,,,,,,,,H,174,hexagon,1,0,,,,,,,,,,,,,,,,repeat,letter,lettRpt,d,0.5763,Hi,,,,,,0,,,,,,,,low,30,0,30,0,1,,,,,,,,,
294979,2022-10-04_23h37.36.747,vts_reward_expectancy,2022.2.4,Win32,145.3488372,Chrome,1536,864,,,,,1,861,,,,,,,,,,,,,,,,,B,139,circle,1,0,,,,,,,,,,,,,,,,repeat,letter,lettRpt,d,0.3905,Lo,,,,,,0,,,,,,,,low,31,0,31,0,1,,,,,,,,,
294979,2022-10-04_23h37.36.747,vts_reward_expectancy,2022.2.4,Win32,145.3488372,Chrome,1536,864,,,,,1,862,,,,,,,,,,,,,,,,,S,132,circle,1,0,,,,,,,,,,,,,,,,switch,number,numSwt,j,0.4107,Lo,,,,,,1,,,,,,space,3.582,low,0,0,0,0,1,,,,,,,,,
294979,2022-10-04_23h37.36.747,vts_reward_expectancy,2022.2.4,Win32,145.3488372,Chrome,1536,864,,,,,1,863,,,,,,,,,,,,,,,,,U,139,hexagon,1,0,,,,,,,,,,,,,,,,repeat,number,numRpt,j,0.4103,Hi,,,,,,1,,,,,,,,low,1,0,1,0,1,,,,,,,,,
294979,2022-10-04_23h37.36.747,vts_reward_expectancy,2022.2.4,Win32,145.3488372,Chrome,1536,864,,,,,10,873,,,,,,,,,,,,,,,,,D,125,circle,1,0,,,,,,,,,,,,,,,,repeat,number,numRpt,j,0.5494,Lo,,,,,,1,,,,,,,,low,2,0,2,0,1,,,,,,,,,
294979,2022-10-04_23h37.36.747,vts_reward_expectancy,2022.2.4,Win32,145.3488372,Chrome,1536,864,,,,,0,873,,,,,,,,,,,,,,,,,Y,146,hexagon,0,0,,,,,,,,,,,,,,,,repeat,number,NA,k,0.5207,Lo,,,,,,1,,,,,,,,low,3,0,3,0,1,,,,,,,,,
294979,2022-10-04_23h37.36.747,vts_reward_expectancy,2022.2.4,Win32,145.3488372,Chrome,1536,864,,,,,10,883,,,,,,,,,,,,,,,,,W,167,hexagon,1,1,,,,,,,,,,,,,,,,repeat,number,numRpt,k,0.677,Hi,,,,,,1,,,,,,,,low,4,0,4,0,1,,,,,,,,,
294979,2022-10-04_23h37.36.747,vts_reward_expectancy,2022.2.4,Win32,145.3488372,Chrome,1536,864,,,,,1,884,,,,,,,,,,,,,,,,,B,160,circle,1,0,,,,,,,,,,,,,,,,repeat,number,numRpt,k,0.7445,Lo,,,,,,1,,,,,,,,low,5,0,5,0,1,,,,,,,,,
294979,2022-10-04_23h37.36.747,vts_reward_expectancy,2022.2.4,Win32,145.3488372,Chrome,1536,864,,,,,1,885,,,,,,,,,,,,,,,,,H,181,circle,1,0,,,,,,,,,,,,,,,,repeat,number,numRpt,k,0.7236,Lo,,,,,,1,,,,,,,,low,6,0,6,0,1,,,,,,,,,
294979,2022-10-04_23h37.36.747,vts_reward_expectancy,2022.2.4,Win32,145.3488372,Chrome,1536,864,,,,,10,895,,,,,,,,,,,,,,,,,F,174,hexagon,1,0,,,,,,,,,,,,,,,,repeat,number,numRpt,k,0.529,Hi,,,,,,1,,,,,,,,low,7,0,7,0,1,,,,,,,,,
294979,2022-10-04_23h37.36.747,vts_reward_expectancy,2022.2.4,Win32,145.3488372,Chrome,1536,864,,,,,1,896,,,,,,,,,,,,,,,,,S,132,circle,1,0,,,,,,,,,,,,,,,,repeat,number,numRpt,j,0.4928,Lo,,,,,,1,,,,,,,,low,8,0,8,0,1,,,,,,,,,
294979,2022-10-04_23h37.36.747,vts_reward_expectancy,2022.2.4,Win32,145.3488372,Chrome,1536,864,,,,,10,906,,,,,,,,,,,,,,,,,U,139,hexagon,1,0,,,,,,,,,,,,,,,,repeat,number,numRpt,j,1.0948,Hi,,,,,,1,,,,,,,,low,9,0,9,0,1,,,,,,,,,
294979,2022-10-04_23h37.36.747,vts_reward_expectancy,2022.2.4,Win32,145.3488372,Chrome,1536,864,,,,,0,906,,,,,,,,,,,,,,,,,D,125,hexagon,0,0,,,,,,,,,,,,,,,,repeat,number,NA,k,0.4724,Hi,,,,,,1,,,,,,,,low,10,0,10,0,1,,,,,,,,,
294979,2022-10-04_23h37.36.747,vts_reward_expectancy,2022.2.4,Win32,145.3488372,Chrome,1536,864,,,,,10,916,,,,,,,,,,,,,,,,,Y,146,circle,1,1,,,,,,,,,,,,,,,,repeat,number,numRpt,j,0.8447,Lo,,,,,,1,,,,,,,,low,11,0,11,0,1,,,,,,,,,
294979,2022-10-04_23h37.36.747,vts_reward_expectancy,2022.2.4,Win32,145.3488372,Chrome,1536,864,,,,,1,917,,,,,,,,,,,,,,,,,W,167,hexagon,1,0,,,,,,,,,,,,,,,,repeat,number,numRpt,k,0.5136,Hi,,,,,,1,,,,,,,,low,12,0,12,0,1,,,,,,,,,
294979,2022-10-04_23h37.36.747,vts_reward_expectancy,2022.2.4,Win32,145.3488372,Chrome,1536,864,,,,,0,917,,,,,,,,,,,,,,,,,B,160,circle,0,0,,,,,,,,,,,,,,,,repeat,number,NA,j,0.6108,Hi,,,,,,1,,,,,,,,low,13,0,13,0,1,,,,,,,,,
294979,2022-10-04_23h37.36.747,vts_reward_expectancy,2022.2.4,Win32,145.3488372,Chrome,1536,864,,,,,10,927,,,,,,,,,,,,,,,,,H,181,hexagon,1,1,,,,,,,,,,,,,,,,repeat,number,numRpt,k,0.5412,Hi,,,,,,1,,,,,,,,low,14,0,14,0,1,,,,,,,,,
294979,2022-10-04_23h37.36.747,vts_reward_expectancy,2022.2.4,Win32,145.3488372,Chrome,1536,864,,,,,10,937,,,,,,,,,,,,,,,,,F,174,circle,1,0,,,,,,,,,,,,,,,,repeat,number,numRpt,k,0.9302,Lo,,,,,,1,,,,,,,,low,15,0,15,0,1,,,,,,,,,
294979,2022-10-04_23h37.36.747,vts_reward_expectancy,2022.2.4,Win32,145.3488372,Chrome,1536,864,,,,,10,947,,,,,,,,,,,,,,,,,F,181,circle,1,0,,,,,,,,,,,,,,,,repeat,number,numRpt,k,0.7569,Lo,,,,,,1,,,,,,,,low,16,0,16,0,1,,,,,,,,,
294979,2022-10-04_23h37.36.747,vts_reward_expectancy,2022.2.4,Win32,145.3488372,Chrome,1536,864,,,,,1,948,,,,,,,,,,,,,,,,,B,139,hexagon,1,0,,,,,,,,,,,,,,,,repeat,number,numRpt,j,0.5077,Hi,,,,,,1,,,,,,,,low,17,0,17,0,1,,,,,,,,,
294979,2022-10-04_23h37.36.747,vts_reward_expectancy,2022.2.4,Win32,145.3488372,Chrome,1536,864,,,,,1,949,,,,,,,,,,,,,,,,,Y,174,circle,1,0,,,,,,,,,,,,,,,,repeat,number,numRpt,k,0.4653,Lo,,,,,,1,,,,,,,,low,18,0,18,0,1,,,,,,,,,
294979,2022-10-04_23h37.36.747,vts_reward_expectancy,2022.2.4,Win32,145.3488372,Chrome,1536,864,,,,,10,959,,,,,,,,,,,,,,,,,W,146,hexagon,1,0,,,,,,,,,,,,,,,,repeat,number,numRpt,j,0.5206,Hi,,,,,,1,,,,,,,,low,19,0,19,0,1,,,,,,,,,
294979,2022-10-04_23h37.36.747,vts_reward_expectancy,2022.2.4,Win32,145.3488372,Chrome,1536,864,,,,,1,960,,,,,,,,,,,,,,,,,D,160,circle,1,0,,,,,,,,,,,,,,,,repeat,number,numRpt,k,0.6318,Lo,,,,,,1,,,,,,,,low,20,0,20,0,1,,,,,,,,,
294979,2022-10-04_23h37.36.747,vts_reward_expectancy,2022.2.4,Win32,145.3488372,Chrome,1536,864,,,,,10,970,,,,,,,,,,,,,,,,,S,167,hexagon,1,0,,,,,,,,,,,,,,,,repeat,number,numRpt,k,0.6947,Hi,,,,,,1,,,,,,,,low,21,0,21,0,1,,,,,,,,,
294979,2022-10-04_23h37.36.747,vts_reward_expectancy,2022.2.4,Win32,145.3488372,Chrome,1536,864,,,,,1,971,,,,,,,,,,,,,,,,,U,132,hexagon,1,0,,,,,,,,,,,,,,,,repeat,number,numRpt,j,0.5964,Hi,,,,,,1,,,,,,,,low,22,0,22,0,1,,,,,,,,,
294979,2022-10-04_23h37.36.747,vts_reward_expectancy,2022.2.4,Win32,145.3488372,Chrome,1536,864,,,,,10,981,,,,,,,,,,,,,,,,,H,125,circle,1,0,,,,,,,,,,,,,,,,repeat,number,numRpt,j,0.5823,Lo,,,,,,1,,,,,,,,low,23,0,23,0,1,,,,,,,,,
294979,2022-10-04_23h37.36.747,vts_reward_expectancy,2022.2.4,Win32,145.3488372,Chrome,1536,864,,,,,1,982,,,,,,,,,,,,,,,,,F,181,circle,1,0,,,,,,,,,,,,,,,,repeat,number,numRpt,k,0.6589,Lo,,,,,,1,,,,,,,,low,24,0,24,0,1,,,,,,,,,
294979,2022-10-04_23h37.36.747,vts_reward_expectancy,2022.2.4,Win32,145.3488372,Chrome,1536,864,,,,,10,992,,,,,,,,,,,,,,,,,H,146,hexagon,1,0,,,,,,,,,,,,,,,,repeat,number,numRpt,j,0.4857,Hi,,,,,,1,,,,,,,,low,25,0,25,0,1,,,,,,,,,
294979,2022-10-04_23h37.36.747,vts_reward_expectancy,2022.2.4,Win32,145.3488372,Chrome,1536,864,,,,,10,1002,,,,,,,,,,,,,,,,,D,174,circle,1,0,,,,,,,,,,,,,,,,repeat,number,numRpt,k,0.5629,Lo,,,,,,1,,,,,,,,low,26,0,26,0,1,,,,,,,,,
294979,2022-10-04_23h37.36.747,vts_reward_expectancy,2022.2.4,Win32,145.3488372,Chrome,1536,864,,,,,1,1003,,,,,,,,,,,,,,,,,Y,167,hexagon,1,0,,,,,,,,,,,,,,,,repeat,number,numRpt,k,1.4366,Hi,,,,,,1,,,,,,,,low,27,0,27,0,1,,,,,,,,,
294979,2022-10-04_23h37.36.747,vts_reward_expectancy,2022.2.4,Win32,145.3488372,Chrome,1536,864,,,,,1,1004,,,,,,,,,,,,,,,,,B,125,circle,1,0,,,,,,,,,,,,,,,,repeat,number,numRpt,j,0.5283,Lo,,,,,,1,,,,,,,,low,28,0,28,0,1,,,,,,,,,
294979,2022-10-04_23h37.36.747,vts_reward_expectancy,2022.2.4,Win32,145.3488372,Chrome,1536,864,,,,,10,1014,,,,,,,,,,,,,,,,,S,139,hexagon,1,0,,,,,,,,,,,,,,,,repeat,number,numRpt,j,0.6728,Hi,,,,,,1,,,,,,,,low,29,0,29,0,1,,,,,,,,,
294979,2022-10-04_23h37.36.747,vts_reward_expectancy,2022.2.4,Win32,145.3488372,Chrome,1536,864,,,,,1,1015,,,,,,,,,,,,,,,,,W,160,hexagon,1,0,,,,,,,,,,,,,,,,repeat,number,numRpt,k,0.75,Hi,,,,,,1,,,,,,,,low,30,0,30,0,1,,,,,,,,,
294979,2022-10-04_23h37.36.747,vts_reward_expectancy,2022.2.4,Win32,145.3488372,Chrome,1536,864,,,,,10,1025,,,,,,,,,,,,,,,,,U,132,circle,1,0,,,,,,,,,,,,,,,,repeat,number,numRpt,j,0.6105,Lo,,,,,,1,,,,,,,,low,31,0,31,0,1,,,,,,,,,
294979,2022-10-04_23h37.36.747,vts_reward_expectancy,2022.2.4,Win32,145.3488372,Chrome,1536,864,,,,,1,1026,,,,,,,,,,,,,,,,,B,139,star,1,0,,,,,,,,,,,,,,,,switch,letter,lettSwt,d,0.3395,Lo,,,,,,2,,,,,,space,1.1264,high,0,0,0,0,1,,,,,,,,,
294979,2022-10-04_23h37.36.747,vts_reward_expectancy,2022.2.4,Win32,145.3488372,Chrome,1536,864,,,,,10,1036,,,,,,,,,,,,,,,,,H,174,triangle,1,0,,,,,,,,,,,,,,,,repeat,letter,lettRpt,d,0.48,Hi,,,,,,2,,,,,,,,high,1,0,1,0,1,,,,,,,,,
294979,2022-10-04_23h37.36.747,vts_reward_expectancy,2022.2.4,Win32,145.3488372,Chrome,1536,864,,,,,1,1037,,,,,,,,,,,,,,,,,F,181,star,1,0,,,,,,,,,,,,,,,,repeat,letter,lettRpt,d,0.5477,Lo,,,,,,2,,,,,,,,high,2,0,2,0,1,,,,,,,,,
294979,2022-10-04_23h37.36.747,vts_reward_expectancy,2022.2.4,Win32,145.3488372,Chrome,1536,864,,,,,0,1037,,,,,,,,,,,,,,,,,W,160,triangle,0,0,,,,,,,,,,,,,,,,repeat,letter,NA,d,0.4991,Lo,,,,,,2,,,,,,,,high,3,0,3,0,1,,,,,,,,,
294979,2022-10-04_23h37.36.747,vts_reward_expectancy,2022.2.4,Win32,145.3488372,Chrome,1536,864,,,,,1,1038,,,,,,,,,,,,,,,,,U,146,star,1,1,,,,,,,,,,,,,,,,repeat,letter,lettRpt,f,0.6103,Lo,,,,,,2,,,,,,,,high,4,0,4,0,1,,,,,,,,,
294979,2022-10-04_23h37.36.747,vts_reward_expectancy,2022.2.4,Win32,145.3488372,Chrome,1536,864,,,,,10,1048,,,,,,,,,,,,,,,,,D,132,triangle,1,0,,,,,,,,,,,,,,,,repeat,letter,lettRpt,d,0.4644,Hi,,,,,,2,,,,,,,,high,5,0,5,0,1,,,,,,,,,
294979,2022-10-04_23h37.36.747,vts_reward_expectancy,2022.2.4,Win32,145.3488372,Chrome,1536,864,,,,,10,1058,,,,,,,,,,,,,,,,,S,167,triangle,1,0,,,,,,,,,,,,,,,,repeat,letter,lettRpt,f,0.548,Hi,,,,,,2,,,,,,,,high,6,0,6,0,1,,,,,,,,,
294979,2022-10-04_23h37.36.747,vts_reward_expectancy,2022.2.4,Win32,145.3488372,Chrome,1536,864,,,,,10,1068,,,,,,,,,,,,,,,,,Y,125,star,1,0,,,,,,,,,,,,,,,,repeat,letter,lettRpt,f,0.6242,Lo,,,,,,2,,,,,,,,high,7,0,7,0,1,,,,,,,,,
294979,2022-10-04_23h37.36.747,vts_reward_expectancy,2022.2.4,Win32,145.3488372,Chrome,1536,864,,,,,10,1078,,,,,,,,,,,,,,,,,B,139,triangle,1,0,,,,,,,,,,,,,,,,repeat,letter,lettRpt,d,0.4992,Hi,,,,,,2,,,,,,,,high,8,0,8,0,1,,,,,,,,,
294979,2022-10-04_23h37.36.747,vts_reward_expectancy,2022.2.4,Win32,145.3488372,Chrome,1536,864,,,,,1,1079,,,,,,,,,,,,,,,,,H,174,star,1,0,,,,,,,,,,,,,,,,repeat,letter,lettRpt,d,0.7632,Lo,,,,,,2,,,,,,,,high,9,0,9,0,1,,,,,,,,,
294979,2022-10-04_23h37.36.747,vts_reward_expectancy,2022.2.4,Win32,145.3488372,Chrome,1536,864,,,,,10,1089,,,,,,,,,,,,,,,,,F,181,triangle,1,0,,,,,,,,,,,,,,,,repeat,letter,lettRpt,d,0.5201,Hi,,,,,,2,,,,,,,,high,10,0,10,0,1,,,,,,,,,
294979,2022-10-04_23h37.36.747,vts_reward_expectancy,2022.2.4,Win32,145.3488372,Chrome,1536,864,,,,,0,1089,,,,,,,,,,,,,,,,,W,160,star,0,0,,,,,,,,,,,,,,,,repeat,letter,NA,d,0.4925,Hi,,,,,,2,,,,,,,,high,11,0,11,0,1,,,,,,,,,
294979,2022-10-04_23h37.36.747,vts_reward_expectancy,2022.2.4,Win32,145.3488372,Chrome,1536,864,,,,,10,1099,,,,,,,,,,,,,,,,,U,146,triangle,1,1,,,,,,,,,,,,,,,,repeat,letter,lettRpt,f,0.6458,Hi,,,,,,2,,,,,,,,high,12,0,12,0,1,,,,,,,,,
294979,2022-10-04_23h37.36.747,vts_reward_expectancy,2022.2.4,Win32,145.3488372,Chrome,1536,864,,,,,1,1100,,,,,,,,,,,,,,,,,D,132,star,1,0,,,,,,,,,,,,,,,,repeat,letter,lettRpt,d,0.4368,Lo,,,,,,2,,,,,,,,high,13,0,13,0,1,,,,,,,,,
294979,2022-10-04_23h37.36.747,vts_reward_expectancy,2022.2.4,Win32,145.3488372,Chrome,1536,864,,,,,1,1101,,,,,,,,,,,,,,,,,S,167,triangle,1,0,,,,,,,,,,,,,,,,repeat,letter,lettRpt,f,0.6175,Hi,,,,,,2,,,,,,,,high,14,0,14,0,1,,,,,,,,,
294979,2022-10-04_23h37.36.747,vts_reward_expectancy,2022.2.4,Win32,145.3488372,Chrome,1536,864,,,,,1,1102,,,,,,,,,,,,,,,,,Y,125,star,1,0,,,,,,,,,,,,,,,,repeat,letter,lettRpt,f,0.4853,Lo,,,,,,2,,,,,,,,high,15,0,15,0,1,,,,,,,,,
294979,2022-10-04_23h37.36.747,vts_reward_expectancy,2022.2.4,Win32,145.3488372,Chrome,1536,864,,,,,1,1103,,,,,,,,,,,,,,,,,D,160,triangle,1,0,,,,,,,,,,,,,,,,repeat,letter,lettRpt,d,0.5751,Hi,,,,,,2,,,,,,,,high,16,0,16,0,1,,,,,,,,,
294979,2022-10-04_23h37.36.747,vts_reward_expectancy,2022.2.4,Win32,145.3488372,Chrome,1536,864,,,,,1,1104,,,,,,,,,,,,,,,,,Y,132,star,1,0,,,,,,,,,,,,,,,,repeat,letter,lettRpt,f,0.4787,Lo,,,,,,2,,,,,,,,high,17,0,17,0,1,,,,,,,,,
294979,2022-10-04_23h37.36.747,vts_reward_expectancy,2022.2.4,Win32,145.3488372,Chrome,1536,864,,,,,10,1114,,,,,,,,,,,,,,,,,S,167,triangle,1,0,,,,,,,,,,,,,,,,repeat,letter,lettRpt,f,0.4725,Hi,,,,,,2,,,,,,,,high,18,0,18,0,1,,,,,,,,,
294979,2022-10-04_23h37.36.747,vts_reward_expectancy,2022.2.4,Win32,145.3488372,Chrome,1536,864,,,,,0,1114,,,,,,,,,,,,,,,,,U,174,star,0,0,,,,,,,,,,,,,,,,repeat,letter,NA,d,0.6243,Hi,,,,,,2,,,,,,,,high,19,0,19,0,1,,,,,,,,,
294979,2022-10-04_23h37.36.747,vts_reward_expectancy,2022.2.4,Win32,145.3488372,Chrome,1536,864,,,,,10,1124,,,,,,,,,,,,,,,,,H,125,triangle,1,1,,,,,,,,,,,,,,,,repeat,letter,lettRpt,d,0.5137,Hi,,,,,,2,,,,,,,,high,20,0,20,0,1,,,,,,,,,
294979,2022-10-04_23h37.36.747,vts_reward_expectancy,2022.2.4,Win32,145.3488372,Chrome,1536,864,,,,,1,1125,,,,,,,,,,,,,,,,,F,181,star,1,0,,,,,,,,,,,,,,,,repeat,letter,lettRpt,d,0.5409,Lo,,,,,,2,,,,,,,,high,21,0,21,0,1,,,,,,,,,
294979,2022-10-04_23h37.36.747,vts_reward_expectancy,2022.2.4,Win32,145.3488372,Chrome,1536,864,,,,,10,1135,,,,,,,,,,,,,,,,,W,139,triangle,1,0,,,,,,,,,,,,,,,,repeat,letter,lettRpt,f,0.4712,Hi,,,,,,2,,,,,,,,high,22,0,22,0,1,,,,,,,,,
294979,2022-10-04_23h37.36.747,vts_reward_expectancy,2022.2.4,Win32,145.3488372,Chrome,1536,864,,,,,1,1136,,,,,,,,,,,,,,,,,B,146,star,1,0,,,,,,,,,,,,,,,,repeat,letter,lettRpt,d,0.5063,Lo,,,,,,2,,,,,,,,high,23,0,23,0,1,,,,,,,,,
294979,2022-10-04_23h37.36.747,vts_reward_expectancy,2022.2.4,Win32,145.3488372,Chrome,1536,864,,,,,1,1137,,,,,,,,,,,,,,,,,U,132,star,1,0,,,,,,,,,,,,,,,,repeat,letter,lettRpt,f,0.6382,Lo,,,,,,2,,,,,,,,high,24,0,24,0,1,,,,,,,,,
294979,2022-10-04_23h37.36.747,vts_reward_expectancy,2022.2.4,Win32,145.3488372,Chrome,1536,864,,,,,1,1138,,,,,,,,,,,,,,,,,B,125,triangle,1,0,,,,,,,,,,,,,,,,repeat,letter,lettRpt,d,0.5074,Hi,,,,,,2,,,,,,,,high,25,0,25,0,1,,,,,,,,,
294979,2022-10-04_23h37.36.747,vts_reward_expectancy,2022.2.4,Win32,145.3488372,Chrome,1536,864,,,,,10,1148,,,,,,,,,,,,,,,,,W,167,triangle,1,0,,,,,,,,,,,,,,,,repeat,letter,lettRpt,f,0.4373,Hi,,,,,,2,,,,,,,,high,26,0,26,0,1,,,,,,,,,
294979,2022-10-04_23h37.36.747,vts_reward_expectancy,2022.2.4,Win32,145.3488372,Chrome,1536,864,,,,,10,1158,,,,,,,,,,,,,,,,,D,139,star,1,0,,,,,,,,,,,,,,,,repeat,letter,lettRpt,d,0.5821,Lo,,,,,,2,,,,,,,,high,27,0,27,0,1,,,,,,,,,
294979,2022-10-04_23h37.36.747,vts_reward_expectancy,2022.2.4,Win32,145.3488372,Chrome,1536,864,,,,,1,1159,,,,,,,,,,,,,,,,,Y,181,triangle,1,0,,,,,,,,,,,,,,,,repeat,letter,lettRpt,f,0.5896,Hi,,,,,,2,,,,,,,,high,28,0,28,0,1,,,,,,,,,
294979,2022-10-04_23h37.36.747,vts_reward_expectancy,2022.2.4,Win32,145.3488372,Chrome,1536,864,,,,,1,1160,,,,,,,,,,,,,,,,,H,146,star,1,0,,,,,,,,,,,,,,,,repeat,letter,lettRpt,d,0.5338,Lo,,,,,,2,,,,,,,,high,29,0,29,0,1,,,,,,,,,
294979,2022-10-04_23h37.36.747,vts_reward_expectancy,2022.2.4,Win32,145.3488372,Chrome,1536,864,,,,,10,1170,,,,,,,,,,,,,,,,,F,160,triangle,1,0,,,,,,,,,,,,,,,,repeat,letter,lettRpt,d,0.5409,Hi,,,,,,2,,,,,,,,high,30,0,30,0,1,,,,,,,,,
294979,2022-10-04_23h37.36.747,vts_reward_expectancy,2022.2.4,Win32,145.3488372,Chrome,1536,864,,,,,1,1171,,,,,,,,,,,,,,,,,S,174,star,1,0,,,,,,,,,,,,,,,,repeat,letter,lettRpt,f,0.5829,Lo,,,,,,2,,,,,,,,high,31,0,31,0,1,,,,,,,,,
294979,2022-10-04_23h37.36.747,vts_reward_expectancy,2022.2.4,Win32,145.3488372,Chrome,1536,864,,,,,1,1172,,,,,,,,,,,,,,,,,B,132,circle,1,0,,,,,,,,,,,,,,,,switch,number,numSwt,j,0.4089,Lo,,,,,,3,,,,,,space,1.029,low,0,0,0,0,1,,,,,,,,,
294979,2022-10-04_23h37.36.747,vts_reward_expectancy,2022.2.4,Win32,145.3488372,Chrome,1536,864,,,,,10,1182,,,,,,,,,,,,,,,,,U,139,hexagon,1,0,,,,,,,,,,,,,,,,repeat,number,numRpt,j,0.5483,Hi,,,,,,3,,,,,,,,low,1,0,1,0,1,,,,,,,,,
294979,2022-10-04_23h37.36.747,vts_reward_expectancy,2022.2.4,Win32,145.3488372,Chrome,1536,864,,,,,10,1192,,,,,,,,,,,,,,,,,D,160,circle,1,0,,,,,,,,,,,,,,,,repeat,number,numRpt,k,0.5619,Lo,,,,,,3,,,,,,,,low,2,0,2,0,1,,,,,,,,,
294979,2022-10-04_23h37.36.747,vts_reward_expectancy,2022.2.4,Win32,145.3488372,Chrome,1536,864,,,,,1,1193,,,,,,,,,,,,,,,,,F,146,hexagon,1,0,,,,,,,,,,,,,,,,repeat,number,numRpt,j,0.4508,Hi,,,,,,3,,,,,,,,low,3,0,3,0,1,,,,,,,,,
294979,2022-10-04_23h37.36.747,vts_reward_expectancy,2022.2.4,Win32,145.3488372,Chrome,1536,864,,,,,10,1203,,,,,,,,,,,,,,,,,W,181,circle,1,0,,,,,,,,,,,,,,,,repeat,number,numRpt,k,0.562,Lo,,,,,,3,,,,,,,,low,4,0,4,0,1,,,,,,,,,
294979,2022-10-04_23h37.36.747,vts_reward_expectancy,2022.2.4,Win32,145.3488372,Chrome,1536,864,,,,,10,1213,,,,,,,,,,,,,,,,,H,125,hexagon,1,0,,,,,,,,,,,,,,,,repeat,number,numRpt,j,0.5831,Hi,,,,,,3,,,,,,,,low,5,0,5,0,1,,,,,,,,,
294979,2022-10-04_23h37.36.747,vts_reward_expectancy,2022.2.4,Win32,145.3488372,Chrome,1536,864,,,,,10,1223,,,,,,,,,,,,,,,,,S,167,hexagon,1,0,,,,,,,,,,,,,,,,repeat,number,numRpt,k,0.645,Hi,,,,,,3,,,,,,,,low,6,0,6,0,1,,,,,,,,,
294979,2022-10-04_23h37.36.747,vts_reward_expectancy,2022.2.4,Win32,145.3488372,Chrome,1536,864,,,,,1,1224,,,,,,,,,,,,,,,,,Y,174,circle,1,0,,,,,,,,,,,,,,,,repeat,number,numRpt,k,0.5338,Lo,,,,,,3,,,,,,,,low,7,0,7,0,1,,,,,,,,,
294979,2022-10-04_23h37.36.747,vts_reward_expectancy,2022.2.4,Win32,145.3488372,Chrome,1536,864,,,,,10,1234,,,,,,,,,,,,,,,,,B,132,hexagon,1,0,,,,,,,,,,,,,,,,repeat,number,numRpt,j,0.5272,Hi,,,,,,3,,,,,,,,low,8,0,8,0,1,,,,,,,,,
294979,2022-10-04_23h37.36.747,vts_reward_expectancy,2022.2.4,Win32,145.3488372,Chrome,1536,864,,,,,1,1235,,,,,,,,,,,,,,,,,U,139,circle,1,0,,,,,,,,,,,,,,,,repeat,number,numRpt,j,0.374,Lo,,,,,,3,,,,,,,,low,9,0,9,0,1,,,,,,,,,
294979,2022-10-04_23h37.36.747,vts_reward_expectancy,2022.2.4,Win32,145.3488372,Chrome,1536,864,,,,,1,1236,,,,,,,,,,,,,,,,,D,160,circle,1,0,,,,,,,,,,,,,,,,repeat,number,numRpt,k,0.4307,Lo,,,,,,3,,,,,,,,low,10,0,10,0,1,,,,,,,,,
294979,2022-10-04_23h37.36.747,vts_reward_expectancy,2022.2.4,Win32,145.3488372,Chrome,1536,864,,,,,10,1246,,,,,,,,,,,,,,,,,F,146,hexagon,1,0,,,,,,,,,,,,,,,,repeat,number,numRpt,j,0.3607,Hi,,,,,,3,,,,,,,,low,11,0,11,0,1,,,,,,,,,
294979,2022-10-04_23h37.36.747,vts_reward_expectancy,2022.2.4,Win32,145.3488372,Chrome,1536,864,,,,,1,1247,,,,,,,,,,,,,,,,,W,181,hexagon,1,0,,,,,,,,,,,,,,,,repeat,number,numRpt,k,0.3744,Hi,,,,,,3,,,,,,,,low,12,0,12,0,1,,,,,,,,,
294979,2022-10-04_23h37.36.747,vts_reward_expectancy,2022.2.4,Win32,145.3488372,Chrome,1536,864,,,,,1,1248,,,,,,,,,,,,,,,,,H,125,circle,1,0,,,,,,,,,,,,,,,,repeat,number,numRpt,j,0.6314,Lo,,,,,,3,,,,,,,,low,13,0,13,0,1,,,,,,,,,
294979,2022-10-04_23h37.36.747,vts_reward_expectancy,2022.2.4,Win32,145.3488372,Chrome,1536,864,,,,,1,1249,,,,,,,,,,,,,,,,,S,167,circle,1,0,,,,,,,,,,,,,,,,repeat,number,numRpt,k,0.5005,Lo,,,,,,3,,,,,,,,low,14,0,14,0,1,,,,,,,,,
294979,2022-10-04_23h37.36.747,vts_reward_expectancy,2022.2.4,Win32,145.3488372,Chrome,1536,864,,,,,10,1259,,,,,,,,,,,,,,,,,Y,174,hexagon,1,0,,,,,,,,,,,,,,,,repeat,number,numRpt,k,0.4925,Hi,,,,,,3,,,,,,,,low,15,0,15,0,1,,,,,,,,,
294979,2022-10-04_23h37.36.747,vts_reward_expectancy,2022.2.4,Win32,145.3488372,Chrome,1536,864,,,,,0,1259,,,,,,,,,,,,,,,,,H,174,circle,0,0,,,,,,,,,,,,,,,,repeat,number,NA,j,0.3958,Hi,,,,,,3,,,,,,,,low,16,0,16,0,1,,,,,,,,,
294979,2022-10-04_23h37.36.747,vts_reward_expectancy,2022.2.4,Win32,145.3488372,Chrome,1536,864,,,,,10,1269,,,,,,,,,,,,,,,,,B,132,hexagon,1,1,,,,,,,,,,,,,,,,repeat,number,numRpt,j,0.6037,Hi,,,,,,3,,,,,,,,low,17,0,17,0,1,,,,,,,,,
294979,2022-10-04_23h37.36.747,vts_reward_expectancy,2022.2.4,Win32,145.3488372,Chrome,1536,864,,,,,0,1269,,,,,,,,,,,,,,,,,F,160,hexagon,0,0,,,,,,,,,,,,,,,,repeat,number,NA,j,0.5964,Hi,,,,,,3,,,,,,,,low,18,0,18,0,1,,,,,,,,,
294979,2022-10-04_23h37.36.747,vts_reward_expectancy,2022.2.4,Win32,145.3488372,Chrome,1536,864,,,,,10,1279,,,,,,,,,,,,,,,,,D,139,circle,1,1,,,,,,,,,,,,,,,,repeat,number,numRpt,j,0.6103,Lo,,,,,,3,,,,,,,,low,19,0,19,0,1,,,,,,,,,
294979,2022-10-04_23h37.36.747,vts_reward_expectancy,2022.2.4,Win32,145.3488372,Chrome,1536,864,,,,,10,1289,,,,,,,,,,,,,,,,,W,146,hexagon,1,0,,,,,,,,,,,,,,,,repeat,number,numRpt,j,0.4999,Hi,,,,,,3,,,,,,,,low,20,0,20,0,1,,,,,,,,,
294979,2022-10-04_23h37.36.747,vts_reward_expectancy,2022.2.4,Win32,145.3488372,Chrome,1536,864,,,,,10,1299,,,,,,,,,,,,,,,,,U,181,circle,1,0,,,,,,,,,,,,,,,,repeat,number,numRpt,k,0.5973,Lo,,,,,,3,,,,,,,,low,21,0,21,0,1,,,,,,,,,
294979,2022-10-04_23h37.36.747,vts_reward_expectancy,2022.2.4,Win32,145.3488372,Chrome,1536,864,,,,,1,1300,,,,,,,,,,,,,,,,,Y,125,hexagon,1,0,,,,,,,,,,,,,,,,repeat,number,numRpt,j,0.4934,Hi,,,,,,3,,,,,,,,low,22,0,22,0,1,,,,,,,,,
294979,2022-10-04_23h37.36.747,vts_reward_expectancy,2022.2.4,Win32,145.3488372,Chrome,1536,864,,,,,10,1310,,,,,,,,,,,,,,,,,S,167,circle,1,0,,,,,,,,,,,,,,,,repeat,number,numRpt,k,0.5916,Lo,,,,,,3,,,,,,,,low,23,0,23,0,1,,,,,,,,,
294979,2022-10-04_23h37.36.747,vts_reward_expectancy,2022.2.4,Win32,145.3488372,Chrome,1536,864,,,,,1,1311,,,,,,,,,,,,,,,,,S,146,circle,1,0,,,,,,,,,,,,,,,,repeat,number,numRpt,j,0.708,Lo,,,,,,3,,,,,,,,low,24,0,24,0,1,,,,,,,,,
294979,2022-10-04_23h37.36.747,vts_reward_expectancy,2022.2.4,Win32,145.3488372,Chrome,1536,864,,,,,10,1321,,,,,,,,,,,,,,,,,W,167,hexagon,1,0,,,,,,,,,,,,,,,,repeat,number,numRpt,k,0.5136,Hi,,,,,,3,,,,,,,,low,25,0,25,0,1,,,,,,,,,
294979,2022-10-04_23h37.36.747,vts_reward_expectancy,2022.2.4,Win32,145.3488372,Chrome,1536,864,,,,,10,1331,,,,,,,,,,,,,,,,,Y,132,hexagon,1,0,,,,,,,,,,,,,,,,repeat,number,numRpt,j,0.4489,Hi,,,,,,3,,,,,,,,low,26,0,26,0,1,,,,,,,,,
294979,2022-10-04_23h37.36.747,vts_reward_expectancy,2022.2.4,Win32,145.3488372,Chrome,1536,864,,,,,0,1331,,,,,,,,,,,,,,,,,U,160,circle,0,0,,,,,,,,,,,,,,,,repeat,number,NA,j,0.6889,Hi,,,,,,3,,,,,,,,low,27,0,27,0,1,,,,,,,,,
294979,2022-10-04_23h37.36.747,vts_reward_expectancy,2022.2.4,Win32,145.3488372,Chrome,1536,864,,,,,10,1341,,,,,,,,,,,,,,,,,H,181,circle,1,1,,,,,,,,,,,,,,,,repeat,number,numRpt,k,0.5482,Lo,,,,,,3,,,,,,,,low,28,0,28,0,1,,,,,,,,,
294979,2022-10-04_23h37.36.747,vts_reward_expectancy,2022.2.4,Win32,145.3488372,Chrome,1536,864,,,,,1,1342,,,,,,,,,,,,,,,,,F,125,hexagon,1,0,,,,,,,,,,,,,,,,repeat,number,numRpt,j,0.373,Hi,,,,,,3,,,,,,,,low,29,0,29,0,1,,,,,,,,,
294979,2022-10-04_23h37.36.747,vts_reward_expectancy,2022.2.4,Win32,145.3488372,Chrome,1536,864,,,,,1,1343,,,,,,,,,,,,,,,,,D,139,circle,1,0,,,,,,,,,,,,,,,,repeat,number,numRpt,j,0.4793,Lo,,,,,,3,,,,,,,,low,30,0,30,0,1,,,,,,,,,
294979,2022-10-04_23h37.36.747,vts_reward_expectancy,2022.2.4,Win32,145.3488372,Chrome,1536,864,,,,,10,1353,,,,,,,,,,,,,,,,,B,174,hexagon,1,0,,,,,,,,,,,,,,,,repeat,number,numRpt,k,0.7913,Hi,,,,,,3,,,,,,,,low,31,0,31,0,1,,,,,,,,,
294979,2022-10-04_23h37.36.747,vts_reward_expectancy,2022.2.4,Win32,145.3488372,Chrome,1536,864,,,,,10,1363,,,,,,,,,,,,,,,,,D,181,triangle,1,0,,,,,,,,,,,,,,,,switch,letter,lettSwt,d,0.5661,Hi,,,,,,4,,,,,,space,1.6454,high,0,0,0,0,1,,,,,,,,,
294979,2022-10-04_23h37.36.747,vts_reward_expectancy,2022.2.4,Win32,145.3488372,Chrome,1536,864,,,,,10,1373,,,,,,,,,,,,,,,,,H,167,star,1,0,,,,,,,,,,,,,,,,repeat,letter,lettRpt,d,0.493,Lo,,,,,,4,,,,,,,,high,1,0,1,0,1,,,,,,,,,
294979,2022-10-04_23h37.36.747,vts_reward_expectancy,2022.2.4,Win32,145.3488372,Chrome,1536,864,,,,,10,1383,,,,,,,,,,,,,,,,,F,146,triangle,1,0,,,,,,,,,,,,,,,,repeat,letter,lettRpt,d,0.4626,Hi,,,,,,4,,,,,,,,high,2,0,2,0,1,,,,,,,,,
294979,2022-10-04_23h37.36.747,vts_reward_expectancy,2022.2.4,Win32,145.3488372,Chrome,1536,864,,,,,1,1384,,,,,,,,,,,,,,,,,S,174,star,1,0,,,,,,,,,,,,,,,,repeat,letter,lettRpt,f,0.3401,Lo,,,,,,4,,,,,,,,high,3,0,3,0,1,,,,,,,,,
294979,2022-10-04_23h37.36.747,vts_reward_expectancy,2022.2.4,Win32,145.3488372,Chrome,1536,864,,,,,0,1384,,,,,,,,,,,,,,,,,Y,139,star,0,0,,,,,,,,,,,,,,,,repeat,letter,NA,d,0.4072,Lo,,,,,,4,,,,,,,,high,4,0,4,0,1,,,,,,,,,
294979,2022-10-04_23h37.36.747,vts_reward_expectancy,2022.2.4,Win32,145.3488372,Chrome,1536,864,,,,,10,1394,,,,,,,,,,,,,,,,,U,160,triangle,1,1,,,,,,,,,,,,,,,,repeat,letter,lettRpt,f,0.5483,Hi,,,,,,4,,,,,,,,high,5,0,5,0,1,,,,,,,,,
294979,2022-10-04_23h37.36.747,vts_reward_expectancy,2022.2.4,Win32,145.3488372,Chrome,1536,864,,,,,10,1404,,,,,,,,,,,,,,,,,W,132,triangle,1,0,,,,,,,,,,,,,,,,repeat,letter,lettRpt,f,1.1284,Hi,,,,,,4,,,,,,,,high,6,0,6,0,1,,,,,,,,,
294979,2022-10-04_23h37.36.747,vts_reward_expectancy,2022.2.4,Win32,145.3488372,Chrome,1536,864,,,,,1,1405,,,,,,,,,,,,,,,,,B,125,star,1,0,,,,,,,,,,,,,,,,repeat,letter,lettRpt,d,0.4929,Lo,,,,,,4,,,,,,,,high,7,0,7,0,1,,,,,,,,,
294979,2022-10-04_23h37.36.747,vts_reward_expectancy,2022.2.4,Win32,145.3488372,Chrome,1536,864,,,,,10,1415,,,,,,,,,,,,,,,,,D,181,triangle,1,0,,,,,,,,,,,,,,,,repeat,letter,lettRpt,d,0.4512,Hi,,,,,,4,,,,,,,,high,8,0,8,0,1,,,,,,,,,
294979,2022-10-04_23h37.36.747,vts_reward_expectancy,2022.2.4,Win32,145.3488372,Chrome,1536,864,,,,,10,1425,,,,,,,,,,,,,,,,,H,167,star,1,0,,,,,,,,,,,,,,,,repeat,letter,lettRpt,d,0.4651,Lo,,,,,,4,,,,,,,,high,9,0,9,0,1,,,,,,,,,
294979,2022-10-04_23h37.36.747,vts_reward_expectancy,2022.2.4,Win32,145.3488372,Chrome,1536,864,,,,,1,1426,,,,,,,,,,,,,,,,,F,146,star,1,0,,,,,,,,,,,,,,,,repeat,letter,lettRpt,d,0.4652,Lo,,,,,,4,,,,,,,,high,10,0,10,0,1,,,,,,,,,
294979,2022-10-04_23h37.36.747,vts_reward_expectancy,2022.2.4,Win32,145.3488372,Chrome,1536,864,,,,,10,1436,,,,,,,,,,,,,,,,,S,174,triangle,1,0,,,,,,,,,,,,,,,,repeat,letter,lettRpt,f,0.4994,Hi,,,,,,4,,,,,,,,high,11,0,11,0,1,,,,,,,,,
294979,2022-10-04_23h37.36.747,vts_reward_expectancy,2022.2.4,Win32,145.3488372,Chrome,1536,864,,,,,1,1437,,,,,,,,,,,,,,,,,Y,139,star,1,0,,,,,,,,,,,,,,,,repeat,letter,lettRpt,f,0.4923,Lo,,,,,,4,,,,,,,,high,12,0,12,0,1,,,,,,,,,
294979,2022-10-04_23h37.36.747,vts_reward_expectancy,2022.2.4,Win32,145.3488372,Chrome,1536,864,,,,,10,1447,,,,,,,,,,,,,,,,,U,160,triangle,1,0,,,,,,,,,,,,,,,,repeat,letter,lettRpt,f,0.4447,Hi,,,,,,4,,,,,,,,high,13,0,13,0,1,,,,,,,,,
294979,2022-10-04_23h37.36.747,vts_reward_expectancy,2022.2.4,Win32,145.3488372,Chrome,1536,864,,,,,10,1457,,,,,,,,,,,,,,,,,W,132,triangle,1,0,,,,,,,,,,,,,,,,repeat,letter,lettRpt,f,0.4717,Hi,,,,,,4,,,,,,,,high,14,0,14,0,1,,,,,,,,,
294979,2022-10-04_23h37.36.747,vts_reward_expectancy,2022.2.4,Win32,145.3488372,Chrome,1536,864,,,,,1,1458,,,,,,,,,,,,,,,,,B,125,star,1,0,,,,,,,,,,,,,,,,repeat,letter,lettRpt,d,0.4715,Lo,,,,,,4,,,,,,,,high,15,0,15,0,1,,,,,,,,,
294979,2022-10-04_23h37.36.747,vts_reward_expectancy,2022.2.4,Win32,145.3488372,Chrome,1536,864,,,,,10,1468,,,,,,,,,,,,,,,,,H,132,triangle,1,0,,,,,,,,,,,,,,,,repeat,letter,lettRpt,d,0.4646,Hi,,,,,,4,,,,,,,,high,16,0,16,0,1,,,,,,,,,
294979,2022-10-04_23h37.36.747,vts_reward_expectancy,2022.2.4,Win32,145.3488372,Chrome,1536,864,,,,,10,1478,,,,,,,,,,,,,,,,,U,174,star,1,0,,,,,,,,,,,,,,,,repeat,letter,lettRpt,f,0.6029,Lo,,,,,,4,,,,,,,,high,17,0,17,0,1,,,,,,,,,
294979,2022-10-04_23h37.36.747,vts_reward_expectancy,2022.2.4,Win32,145.3488372,Chrome,1536,864,,,,,1,1479,,,,,,,,,,,,,,,,,D,125,triangle,1,0,,,,,,,,,,,,,,,,repeat,letter,lettRpt,d,0.5491,Hi,,,,,,4,,,,,,,,high,18,0,18,0,1,,,,,,,,,
294979,2022-10-04_23h37.36.747,vts_reward_expectancy,2022.2.4,Win32,145.3488372,Chrome,1536,864,,,,,10,1489,,,,,,,,,,,,,,,,,B,167,star,1,0,,,,,,,,,,,,,,,,repeat,letter,lettRpt,d,0.4233,Lo,,,,,,4,,,,,,,,high,19,0,19,0,1,,,,,,,,,
294979,2022-10-04_23h37.36.747,vts_reward_expectancy,2022.2.4,Win32,145.3488372,Chrome,1536,864,,,,,1,1490,,,,,,,,,,,,,,,,,S,146,triangle,1,0,,,,,,,,,,,,,,,,repeat,letter,lettRpt,f,0.4159,Hi,,,,,,4,,,,,,,,high,20,0,20,0,1,,,,,,,,,
294979,2022-10-04_23h37.36.747,vts_reward_expectancy,2022.2.4,Win32,145.3488372,Chrome,1536,864,,,,,1,1491,,,,,,,,,,,,,,,,,W,160,star,1,0,,,,,,,,,,,,,,,,repeat,letter,lettRpt,f,0.4993,Lo,,,,,,4,,,,,,,,high,21,0,21,0,1,,,,,,,,,
294979,2022-10-04_23h37.36.747,vts_reward_expectancy,2022.2.4,Win32,145.3488372,Chrome,1536,864,,,,,10,1501,,,,,,,,,,,,,,,,,Y,139,triangle,1,0,,,,,,,,,,,,,,,,repeat,letter,lettRpt,f,0.4435,Hi,,,,,,4,,,,,,,,high,22,0,22,0,1,,,,,,,,,
294979,2022-10-04_23h37.36.747,vts_reward_expectancy,2022.2.4,Win32,145.3488372,Chrome,1536,864,,,,,0,1501,,,,,,,,,,,,,,,,,F,181,star,0,0,,,,,,,,,,,,,,,,repeat,letter,NA,f,0.4437,Hi,,,,,,4,,,,,,,,high,23,0,23,0,1,,,,,,,,,
294979,2022-10-04_23h37.36.747,vts_reward_expectancy,2022.2.4,Win32,145.3488372,Chrome,1536,864,,,,,1,1502,,,,,,,,,,,,,,,,,H,167,star,1,1,,,,,,,,,,,,,,,,repeat,letter,lettRpt,d,0.5477,Lo,,,,,,4,,,,,,,,high,24,0,24,0,1,,,,,,,,,
294979,2022-10-04_23h37.36.747,vts_reward_expectancy,2022.2.4,Win32,145.3488372,Chrome,1536,864,,,,,10,1512,,,,,,,,,,,,,,,,,F,132,triangle,1,0,,,,,,,,,,,,,,,,repeat,letter,lettRpt,d,0.527,Hi,,,,,,4,,,,,,,,high,25,0,25,0,1,,,,,,,,,
294979,2022-10-04_23h37.36.747,vts_reward_expectancy,2022.2.4,Win32,145.3488372,Chrome,1536,864,,,,,10,1522,,,,,,,,,,,,,,,,,U,174,triangle,1,0,,,,,,,,,,,,,,,,repeat,letter,lettRpt,f,0.5619,Hi,,,,,,4,,,,,,,,high,26,0,26,0,1,,,,,,,,,
294979,2022-10-04_23h37.36.747,vts_reward_expectancy,2022.2.4,Win32,145.3488372,Chrome,1536,864,,,,,1,1523,,,,,,,,,,,,,,,,,W,125,star,1,0,,,,,,,,,,,,,,,,repeat,letter,lettRpt,f,0.5193,Lo,,,,,,4,,,,,,,,high,27,0,27,0,1,,,,,,,,,
294979,2022-10-04_23h37.36.747,vts_reward_expectancy,2022.2.4,Win32,145.3488372,Chrome,1536,864,,,,,1,1524,,,,,,,,,,,,,,,,,D,160,star,1,0,,,,,,,,,,,,,,,,repeat,letter,lettRpt,d,0.465,Lo,,,,,,4,,,,,,,,high,28,0,28,0,1,,,,,,,,,
294979,2022-10-04_23h37.36.747,vts_reward_expectancy,2022.2.4,Win32,145.3488372,Chrome,1536,864,,,,,1,1525,,,,,,,,,,,,,,,,,S,181,triangle,1,0,,,,,,,,,,,,,,,,repeat,letter,lettRpt,f,0.5553,Hi,,,,,,4,,,,,,,,high,29,0,29,0,1,,,,,,,,,
294979,2022-10-04_23h37.36.747,vts_reward_expectancy,2022.2.4,Win32,145.3488372,Chrome,1536,864,,,,,10,1535,,,,,,,,,,,,,,,,,Y,139,triangle,1,0,,,,,,,,,,,,,,,,repeat,letter,lettRpt,f,0.4374,Hi,,,,,,4,,,,,,,,high,30,0,30,0,1,,,,,,,,,
294979,2022-10-04_23h37.36.747,vts_reward_expectancy,2022.2.4,Win32,145.3488372,Chrome,1536,864,,,,,1,1536,,,,,,,,,,,,,,,,,B,146,star,1,0,,,,,,,,,,,,,,,,repeat,letter,lettRpt,d,0.4087,Lo,,,,,,4,,,,,,,,high,31,0,31,0,1,,,,,,,,,
294979,2022-10-04_23h37.36.747,vts_reward_expectancy,2022.2.4,Win32,145.3488372,Chrome,1536,864,,,,,1,1537,,,,,,,,,,,,,,,,,D,146,star,1,0,,,,,,,,,,,,,,,,switch,number,numSwt,j,0.5345,Lo,,,,,,5,,,,,,space,1.0724,high,0,0,0,0,1,,,,,,,,,
294979,2022-10-04_23h37.36.747,vts_reward_expectancy,2022.2.4,Win32,145.3488372,Chrome,1536,864,,,,,10,1547,,,,,,,,,,,,,,,,,S,160,triangle,1,0,,,,,,,,,,,,,,,,repeat,number,numRpt,k,0.6426,Hi,,,,,,5,,,,,,,,high,1,0,1,0,1,,,,,,,,,
294979,2022-10-04_23h37.36.747,vts_reward_expectancy,2022.2.4,Win32,145.3488372,Chrome,1536,864,,,,,1,1548,,,,,,,,,,,,,,,,,W,139,star,1,0,,,,,,,,,,,,,,,,repeat,number,numRpt,j,0.585,Lo,,,,,,5,,,,,,,,high,2,0,2,0,1,,,,,,,,,
294979,2022-10-04_23h37.36.747,vts_reward_expectancy,2022.2.4,Win32,145.3488372,Chrome,1536,864,,,,,10,1558,,,,,,,,,,,,,,,,,B,181,triangle,1,0,,,,,,,,,,,,,,,,repeat,number,numRpt,k,0.442,Hi,,,,,,5,,,,,,,,high,3,0,3,0,1,,,,,,,,,
294979,2022-10-04_23h37.36.747,vts_reward_expectancy,2022.2.4,Win32,145.3488372,Chrome,1536,864,,,,,10,1568,,,,,,,,,,,,,,,,,U,167,triangle,1,0,,,,,,,,,,,,,,,,repeat,number,numRpt,k,0.9089,Hi,,,,,,5,,,,,,,,high,4,0,4,0,1,,,,,,,,,
294979,2022-10-04_23h37.36.747,vts_reward_expectancy,2022.2.4,Win32,145.3488372,Chrome,1536,864,,,,,10,1578,,,,,,,,,,,,,,,,,Y,125,star,1,0,,,,,,,,,,,,,,,,repeat,number,numRpt,j,0.4646,Lo,,,,,,5,,,,,,,,high,5,0,5,0,1,,,,,,,,,
294979,2022-10-04_23h37.36.747,vts_reward_expectancy,2022.2.4,Win32,145.3488372,Chrome,1536,864,,,,,1,1579,,,,,,,,,,,,,,,,,H,132,star,1,0,,,,,,,,,,,,,,,,repeat,number,numRpt,j,0.5202,Lo,,,,,,5,,,,,,,,high,6,0,6,0,1,,,,,,,,,
294979,2022-10-04_23h37.36.747,vts_reward_expectancy,2022.2.4,Win32,145.3488372,Chrome,1536,864,,,,,10,1589,,,,,,,,,,,,,,,,,F,174,triangle,1,0,,,,,,,,,,,,,,,,repeat,number,numRpt,k,1.027,Hi,,,,,,5,,,,,,,,high,7,0,7,0,1,,,,,,,,,
294979,2022-10-04_23h37.36.747,vts_reward_expectancy,2022.2.4,Win32,145.3488372,Chrome,1536,864,,,,,1,1590,,,,,,,,,,,,,,,,,D,146,star,1,0,,,,,,,,,,,,,,,,repeat,number,numRpt,j,0.5062,Lo,,,,,,5,,,,,,,,high,8,0,8,0,1,,,,,,,,,
294979,2022-10-04_23h37.36.747,vts_reward_expectancy,2022.2.4,Win32,145.3488372,Chrome,1536,864,,,,,10,1600,,,,,,,,,,,,,,,,,S,160,triangle,1,0,,,,,,,,,,,,,,,,repeat,number,numRpt,k,0.8115,Hi,,,,,,5,,,,,,,,high,9,0,9,0,1,,,,,,,,,
294979,2022-10-04_23h37.36.747,vts_reward_expectancy,2022.2.4,Win32,145.3488372,Chrome,1536,864,,,,,1,1601,,,,,,,,,,,,,,,,,W,139,star,1,0,,,,,,,,,,,,,,,,repeat,number,numRpt,j,0.8604,Lo,,,,,,5,,,,,,,,high,10,0,10,0,1,,,,,,,,,
294979,2022-10-04_23h37.36.747,vts_reward_expectancy,2022.2.4,Win32,145.3488372,Chrome,1536,864,,,,,1,1602,,,,,,,,,,,,,,,,,B,181,triangle,1,0,,,,,,,,,,,,,,,,repeat,number,numRpt,k,0.4507,Hi,,,,,,5,,,,,,,,high,11,0,11,0,1,,,,,,,,,
294979,2022-10-04_23h37.36.747,vts_reward_expectancy,2022.2.4,Win32,145.3488372,Chrome,1536,864,,,,,10,1612,,,,,,,,,,,,,,,,,U,167,triangle,1,0,,,,,,,,,,,,,,,,repeat,number,numRpt,k,0.6658,Hi,,,,,,5,,,,,,,,high,12,0,12,0,1,,,,,,,,,
294979,2022-10-04_23h37.36.747,vts_reward_expectancy,2022.2.4,Win32,145.3488372,Chrome,1536,864,,,,,1,1613,,,,,,,,,,,,,,,,,Y,125,star,1,0,,,,,,,,,,,,,,,,repeat,number,numRpt,j,0.7564,Lo,,,,,,5,,,,,,,,high,13,0,13,0,1,,,,,,,,,
294979,2022-10-04_23h37.36.747,vts_reward_expectancy,2022.2.4,Win32,145.3488372,Chrome,1536,864,,,,,1,1614,,,,,,,,,,,,,,,,,H,132,triangle,1,0,,,,,,,,,,,,,,,,repeat,number,numRpt,j,0.5274,Hi,,,,,,5,,,,,,,,high,14,0,14,0,1,,,,,,,,,
294979,2022-10-04_23h37.36.747,vts_reward_expectancy,2022.2.4,Win32,145.3488372,Chrome,1536,864,,,,,1,1615,,,,,,,,,,,,,,,,,F,174,star,1,0,,,,,,,,,,,,,,,,repeat,number,numRpt,k,0.5341,Lo,,,,,,5,,,,,,,,high,15,0,15,0,1,,,,,,,,,
294979,2022-10-04_23h37.36.747,vts_reward_expectancy,2022.2.4,Win32,145.3488372,Chrome,1536,864,,,,,10,1625,,,,,,,,,,,,,,,,,D,160,triangle,1,0,,,,,,,,,,,,,,,,repeat,number,numRpt,k,0.6105,Hi,,,,,,5,,,,,,,,high,16,0,16,0,1,,,,,,,,,
294979,2022-10-04_23h37.36.747,vts_reward_expectancy,2022.2.4,Win32,145.3488372,Chrome,1536,864,,,,,1,1626,,,,,,,,,,,,,,,,,W,132,star,1,0,,,,,,,,,,,,,,,,repeat,number,numRpt,j,0.5148,Lo,,,,,,5,,,,,,,,high,17,0,17,0,1,,,,,,,,,
294979,2022-10-04_23h37.36.747,vts_reward_expectancy,2022.2.4,Win32,145.3488372,Chrome,1536,864,,,,,10,1636,,,,,,,,,,,,,,,,,U,146,triangle,1,0,,,,,,,,,,,,,,,,repeat,number,numRpt,j,0.6114,Hi,,,,,,5,,,,,,,,high,18,0,18,0,1,,,,,,,,,
294979,2022-10-04_23h37.36.747,vts_reward_expectancy,2022.2.4,Win32,145.3488372,Chrome,1536,864,,,,,1,1637,,,,,,,,,,,,,,,,,B,167,star,1,0,,,,,,,,,,,,,,,,repeat,number,numRpt,k,0.409,Lo,,,,,,5,,,,,,,,high,19,0,19,0,1,,,,,,,,,
294979,2022-10-04_23h37.36.747,vts_reward_expectancy,2022.2.4,Win32,145.3488372,Chrome,1536,864,,,,,10,1647,,,,,,,,,,,,,,,,,F,181,triangle,1,0,,,,,,,,,,,,,,,,repeat,number,numRpt,k,0.6239,Hi,,,,,,5,,,,,,,,high,20,0,20,0,1,,,,,,,,,
294979,2022-10-04_23h37.36.747,vts_reward_expectancy,2022.2.4,Win32,145.3488372,Chrome,1536,864,,,,,0,1647,,,,,,,,,,,,,,,,,Y,174,star,0,0,,,,,,,,,,,,,,,,repeat,number,NA,j,0.6518,Hi,,,,,,5,,,,,,,,high,21,0,21,0,1,,,,,,,,,
294979,2022-10-04_23h37.36.747,vts_reward_expectancy,2022.2.4,Win32,145.3488372,Chrome,1536,864,,,,,1,1648,,,,,,,,,,,,,,,,,S,125,star,1,1,,,,,,,,,,,,,,,,repeat,number,numRpt,j,0.5204,Lo,,,,,,5,,,,,,,,high,22,0,22,0,1,,,,,,,,,
294979,2022-10-04_23h37.36.747,vts_reward_expectancy,2022.2.4,Win32,145.3488372,Chrome,1536,864,,,,,10,1658,,,,,,,,,,,,,,,,,H,139,triangle,1,0,,,,,,,,,,,,,,,,repeat,number,numRpt,j,0.5966,Hi,,,,,,5,,,,,,,,high,23,0,23,0,1,,,,,,,,,
294979,2022-10-04_23h37.36.747,vts_reward_expectancy,2022.2.4,Win32,145.3488372,Chrome,1536,864,,,,,1,1659,,,,,,,,,,,,,,,,,F,181,star,1,0,,,,,,,,,,,,,,,,repeat,number,numRpt,k,0.4507,Lo,,,,,,5,,,,,,,,high,24,0,24,0,1,,,,,,,,,
294979,2022-10-04_23h37.36.747,vts_reward_expectancy,2022.2.4,Win32,145.3488372,Chrome,1536,864,,,,,10,1669,,,,,,,,,,,,,,,,,B,132,triangle,1,0,,,,,,,,,,,,,,,,repeat,number,numRpt,j,0.458,Hi,,,,,,5,,,,,,,,high,25,0,25,0,1,,,,,,,,,
294979,2022-10-04_23h37.36.747,vts_reward_expectancy,2022.2.4,Win32,145.3488372,Chrome,1536,864,,,,,1,1670,,,,,,,,,,,,,,,,,D,174,star,1,0,,,,,,,,,,,,,,,,repeat,number,numRpt,k,0.5131,Lo,,,,,,5,,,,,,,,high,26,0,26,0,1,,,,,,,,,
294979,2022-10-04_23h37.36.747,vts_reward_expectancy,2022.2.4,Win32,145.3488372,Chrome,1536,864,,,,,1,1671,,,,,,,,,,,,,,,,,U,125,triangle,1,0,,,,,,,,,,,,,,,,repeat,number,numRpt,j,0.5565,Hi,,,,,,5,,,,,,,,high,27,0,27,0,1,,,,,,,,,
294979,2022-10-04_23h37.36.747,vts_reward_expectancy,2022.2.4,Win32,145.3488372,Chrome,1536,864,,,,,0,1671,,,,,,,,,,,,,,,,,S,160,triangle,0,0,,,,,,,,,,,,,,,,repeat,number,NA,j,0.5343,Hi,,,,,,5,,,,,,,,high,28,0,28,0,1,,,,,,,,,
294979,2022-10-04_23h37.36.747,vts_reward_expectancy,2022.2.4,Win32,145.3488372,Chrome,1536,864,,,,,1,1672,,,,,,,,,,,,,,,,,W,167,star,1,1,,,,,,,,,,,,,,,,repeat,number,numRpt,k,0.5411,Lo,,,,,,5,,,,,,,,high,29,0,29,0,1,,,,,,,,,
294979,2022-10-04_23h37.36.747,vts_reward_expectancy,2022.2.4,Win32,145.3488372,Chrome,1536,864,,,,,1,1673,,,,,,,,,,,,,,,,,H,139,triangle,1,0,,,,,,,,,,,,,,,,repeat,number,numRpt,j,0.5549,Hi,,,,,,5,,,,,,,,high,30,0,30,0,1,,,,,,,,,
294979,2022-10-04_23h37.36.747,vts_reward_expectancy,2022.2.4,Win32,145.3488372,Chrome,1536,864,,,,,1,1674,,,,,,,,,,,,,,,,,Y,146,star,1,0,,,,,,,,,,,,,,,,repeat,number,numRpt,j,0.4921,Lo,,,,,,5,,,,,,,,high,31,0,31,0,1,,,,,,,,,
294979,2022-10-04_23h37.36.747,vts_reward_expectancy,2022.2.4,Win32,145.3488372,Chrome,1536,864,,,,,,,,,,,,,,,,,,,,,,,,,,,,,,,,,,,,,,,,,,,,,,,,,,,,,,6,,,,,,,,,,,,,,Click keys based on on-screen prompts,1,,2,1,,2,1536,864
