participant,date,expName,psychopyVersion,OS,frameRate,browser,xResolution,yResolution,key_resp.keys,key_resp.rt,training_resp.keys,training_resp.rt,points_trial,points_cumul,trainBlock,training.thisRepN,training.thisTrialN,training.thisN,training.thisIndex,training.ran,LTriangleOpac,LCircleOpac,LHexagonOpac,LStarOpac,RTriangleOpac,RCircleOpac,RHexagonOpac,RStarOpac,LShape_ID,RShape_ID,curr_topStim,curr_bottStim,curr_shape,acc,E1,target_resp_prac1.keys,pracBlock,task1_prac_trials.thisRepN,task1_prac_trials.thisTrialN,task1_prac_trials.thisN,task1_prac_trials.thisIndex,task1_prac_trials.ran,target_resp_prac1.rt,target_resp_prac2.keys,target_resp_prac2.rt,task2_praac_trials.thisRepN,task2_praac_trials.thisTrialN,task2_praac_trials.thisN,task2_praac_trials.thisIndex,task2_praac_trials.ran,alt,task,condition,target_resp.keys,target_resp.rt,rewCond,vts_practice_trials.thisRepN,vts_practice_trials.thisTrialN,vts_practice_trials.thisN,vts_practice_trials.thisIndex,vts_practice_trials.ran,blockNum,trials_norew.thisRepN,trials_norew.thisTrialN,trials_norew.thisN,trials_norew.thisIndex,trials_norew.ran,key_resp_2.keys,key_resp_2.rt,rewExpect,trials_rew.thisRepN,trials_rew.thisTrialN,trials_rew.thisN,trials_rew.thisIndex,trials_rew.ran,Q1,Q2,Q2_text,Q3,Q4,Q5_text,Q5,xRes,yRes
295108,2022-10-06_17h52.18.735,vts_reward_expectancy,2022.2.4,Win32,20.61770649,Chrome,1536,864,,,,,,,,,,,,,,,,,,,,,,,,,,,,,,,,,,,,,,,,,,,,,,,,,,,,,,,,,,,,,,,,,,,,,,,,,,,,
295108,2022-10-06_17h52.18.735,vts_reward_expectancy,2022.2.4,Win32,20.61770649,Chrome,1536,864,space,8.4144,,,,,,,,,,,,,,,,,,,,,,,,,,,,,,,,,,,,,,,,,,,,,,,,,,,,,,,,,,,,,,,,,,,,,,,,,,
295108,2022-10-06_17h52.18.735,vts_reward_expectancy,2022.2.4,Win32,20.61770649,Chrome,1536,864,,,,,,,,,,,,,,,,,,,,,,,,,,,,,,,,,,,,,,,,,,,,,,,,,,,,,,,,,,,,,,,,,,,,,,,,,,,,
295108,2022-10-06_17h52.18.735,vts_reward_expectancy,2022.2.4,Win32,20.61770649,Chrome,1536,864,,,l,1.1388,1,1,0,0,0,0,2,1,1,0,0,0,0,0,0,1,triangle,star,,,,,,,,,,,,,,,,,,,,,,,,,,,,,,,,,,,,,,,,,,,,,,,,,,,,,,
295108,2022-10-06_17h52.18.735,vts_reward_expectancy,2022.2.4,Win32,20.61770649,Chrome,1536,864,,,a,1.1539,1,2,0,0,1,1,10,1,0,0,0,1,0,1,0,0,star ,circle,,,,,,,,,,,,,,,,,,,,,,,,,,,,,,,,,,,,,,,,,,,,,,,,,,,,,,
295108,2022-10-06_17h52.18.735,vts_reward_expectancy,2022.2.4,Win32,20.61770649,Chrome,1536,864,,,l,0.7246,1,3,0,0,2,2,9,1,0,0,0,1,1,0,0,0,star,triangle,,,,,,,,,,,,,,,,,,,,,,,,,,,,,,,,,,,,,,,,,,,,,,,,,,,,,,
295108,2022-10-06_17h52.18.735,vts_reward_expectancy,2022.2.4,Win32,20.61770649,Chrome,1536,864,,,a,1.0538,10,13,0,0,3,3,4,1,0,1,0,0,0,0,1,0,circle,hexagon,,,,,,,,,,,,,,,,,,,,,,,,,,,,,,,,,,,,,,,,,,,,,,,,,,,,,,
295108,2022-10-06_17h52.18.735,vts_reward_expectancy,2022.2.4,Win32,20.61770649,Chrome,1536,864,,,a,1.2268,10,23,0,0,4,4,6,1,0,0,1,0,1,0,0,0,hexagon,triangle,,,,,,,,,,,,,,,,,,,,,,,,,,,,,,,,,,,,,,,,,,,,,,,,,,,,,,
295108,2022-10-06_17h52.18.735,vts_reward_expectancy,2022.2.4,Win32,20.61770649,Chrome,1536,864,,,l,0.9773,1,24,0,0,5,5,3,1,0,1,0,0,1,0,0,0,circle,triangle,,,,,,,,,,,,,,,,,,,,,,,,,,,,,,,,,,,,,,,,,,,,,,,,,,,,,,
295108,2022-10-06_17h52.18.735,vts_reward_expectancy,2022.2.4,Win32,20.61770649,Chrome,1536,864,,,l,1.0488,10,34,0,0,6,6,11,1,0,0,0,1,0,0,1,0,star,hexagon,,,,,,,,,,,,,,,,,,,,,,,,,,,,,,,,,,,,,,,,,,,,,,,,,,,,,,
295108,2022-10-06_17h52.18.735,vts_reward_expectancy,2022.2.4,Win32,20.61770649,Chrome,1536,864,,,a,0.7202,10,44,0,0,7,7,5,1,0,1,0,0,0,0,0,1,circle,star,,,,,,,,,,,,,,,,,,,,,,,,,,,,,,,,,,,,,,,,,,,,,,,,,,,,,,
295108,2022-10-06_17h52.18.735,vts_reward_expectancy,2022.2.4,Win32,20.61770649,Chrome,1536,864,,,a,1.1101,1,45,0,0,8,8,8,1,0,0,1,0,0,0,0,1,hexagon,star,,,,,,,,,,,,,,,,,,,,,,,,,,,,,,,,,,,,,,,,,,,,,,,,,,,,,,
295108,2022-10-06_17h52.18.735,vts_reward_expectancy,2022.2.4,Win32,20.61770649,Chrome,1536,864,,,l,0.7198,1,46,0,0,9,9,1,1,1,0,0,0,0,0,1,0,triangle,hexagon,,,,,,,,,,,,,,,,,,,,,,,,,,,,,,,,,,,,,,,,,,,,,,,,,,,,,,
295108,2022-10-06_17h52.18.735,vts_reward_expectancy,2022.2.4,Win32,20.61770649,Chrome,1536,864,,,l,0.6765,1,47,0,0,10,10,7,1,0,0,1,0,0,1,0,0,hexagon,circle,,,,,,,,,,,,,,,,,,,,,,,,,,,,,,,,,,,,,,,,,,,,,,,,,,,,,,
295108,2022-10-06_17h52.18.735,vts_reward_expectancy,2022.2.4,Win32,20.61770649,Chrome,1536,864,,,l,0.6668,1,48,0,0,11,11,0,1,1,0,0,0,0,1,0,0,triangle,circle,,,,,,,,,,,,,,,,,,,,,,,,,,,,,,,,,,,,,,,,,,,,,,,,,,,,,,
295108,2022-10-06_17h52.18.735,vts_reward_expectancy,2022.2.4,Win32,20.61770649,Chrome,1536,864,,,a,0.3332,1,49,0,1,0,12,3,1,0,1,0,0,1,0,0,0,circle,triangle,,,,,,,,,,,,,,,,,,,,,,,,,,,,,,,,,,,,,,,,,,,,,,,,,,,,,,
295108,2022-10-06_17h52.18.735,vts_reward_expectancy,2022.2.4,Win32,20.61770649,Chrome,1536,864,,,a,0.6671,1,50,0,1,1,13,2,1,1,0,0,0,0,0,0,1,triangle,star,,,,,,,,,,,,,,,,,,,,,,,,,,,,,,,,,,,,,,,,,,,,,,,,,,,,,,
295108,2022-10-06_17h52.18.735,vts_reward_expectancy,2022.2.4,Win32,20.61770649,Chrome,1536,864,,,a,0.6329,10,60,0,1,2,14,4,1,0,1,0,0,0,0,1,0,circle,hexagon,,,,,,,,,,,,,,,,,,,,,,,,,,,,,,,,,,,,,,,,,,,,,,,,,,,,,,
295108,2022-10-06_17h52.18.735,vts_reward_expectancy,2022.2.4,Win32,20.61770649,Chrome,1536,864,,,l,0.35,1,61,0,1,3,15,0,1,1,0,0,0,0,1,0,0,triangle,circle,,,,,,,,,,,,,,,,,,,,,,,,,,,,,,,,,,,,,,,,,,,,,,,,,,,,,,
295108,2022-10-06_17h52.18.735,vts_reward_expectancy,2022.2.4,Win32,20.61770649,Chrome,1536,864,,,a,0.242,1,62,0,1,4,16,7,1,0,0,1,0,0,1,0,0,hexagon,circle,,,,,,,,,,,,,,,,,,,,,,,,,,,,,,,,,,,,,,,,,,,,,,,,,,,,,,
295108,2022-10-06_17h52.18.735,vts_reward_expectancy,2022.2.4,Win32,20.61770649,Chrome,1536,864,,,a,0.6866,1,63,0,1,5,17,8,1,0,0,1,0,0,0,0,1,hexagon,star,,,,,,,,,,,,,,,,,,,,,,,,,,,,,,,,,,,,,,,,,,,,,,,,,,,,,,
295108,2022-10-06_17h52.18.735,vts_reward_expectancy,2022.2.4,Win32,20.61770649,Chrome,1536,864,,,a,0.8023,1,64,0,1,6,18,10,1,0,0,0,1,0,1,0,0,star ,circle,,,,,,,,,,,,,,,,,,,,,,,,,,,,,,,,,,,,,,,,,,,,,,,,,,,,,,
295108,2022-10-06_17h52.18.735,vts_reward_expectancy,2022.2.4,Win32,20.61770649,Chrome,1536,864,,,a,0.549,1,65,0,1,7,19,5,1,0,1,0,0,0,0,0,1,circle,star,,,,,,,,,,,,,,,,,,,,,,,,,,,,,,,,,,,,,,,,,,,,,,,,,,,,,,
295108,2022-10-06_17h52.18.735,vts_reward_expectancy,2022.2.4,Win32,20.61770649,Chrome,1536,864,,,l,0.6098,10,75,0,1,8,20,11,1,0,0,0,1,0,0,1,0,star,hexagon,,,,,,,,,,,,,,,,,,,,,,,,,,,,,,,,,,,,,,,,,,,,,,,,,,,,,,
295108,2022-10-06_17h52.18.735,vts_reward_expectancy,2022.2.4,Win32,20.61770649,Chrome,1536,864,,,l,0.8829,1,76,0,1,9,21,1,1,1,0,0,0,0,0,1,0,triangle,hexagon,,,,,,,,,,,,,,,,,,,,,,,,,,,,,,,,,,,,,,,,,,,,,,,,,,,,,,
295108,2022-10-06_17h52.18.735,vts_reward_expectancy,2022.2.4,Win32,20.61770649,Chrome,1536,864,,,l,0.3371,1,77,0,1,10,22,9,1,0,0,0,1,1,0,0,0,star,triangle,,,,,,,,,,,,,,,,,,,,,,,,,,,,,,,,,,,,,,,,,,,,,,,,,,,,,,
295108,2022-10-06_17h52.18.735,vts_reward_expectancy,2022.2.4,Win32,20.61770649,Chrome,1536,864,,,l,0.3205,1,78,0,1,11,23,6,1,0,0,1,0,1,0,0,0,hexagon,triangle,,,,,,,,,,,,,,,,,,,,,,,,,,,,,,,,,,,,,,,,,,,,,,,,,,,,,,
295108,2022-10-06_17h52.18.735,vts_reward_expectancy,2022.2.4,Win32,20.61770649,Chrome,1536,864,,,l,0.1565,1,79,0,2,0,24,6,1,0,0,1,0,1,0,0,0,hexagon,triangle,,,,,,,,,,,,,,,,,,,,,,,,,,,,,,,,,,,,,,,,,,,,,,,,,,,,,,
295108,2022-10-06_17h52.18.735,vts_reward_expectancy,2022.2.4,Win32,20.61770649,Chrome,1536,864,,,l,0.2367,1,80,0,2,1,25,2,1,1,0,0,0,0,0,0,1,triangle,star,,,,,,,,,,,,,,,,,,,,,,,,,,,,,,,,,,,,,,,,,,,,,,,,,,,,,,
295108,2022-10-06_17h52.18.735,vts_reward_expectancy,2022.2.4,Win32,20.61770649,Chrome,1536,864,,,l,0.3194,10,90,0,2,2,26,5,1,0,1,0,0,0,0,0,1,circle,star,,,,,,,,,,,,,,,,,,,,,,,,,,,,,,,,,,,,,,,,,,,,,,,,,,,,,,
295108,2022-10-06_17h52.18.735,vts_reward_expectancy,2022.2.4,Win32,20.61770649,Chrome,1536,864,,,a,0.1421,1,91,0,2,3,27,0,1,1,0,0,0,0,1,0,0,triangle,circle,,,,,,,,,,,,,,,,,,,,,,,,,,,,,,,,,,,,,,,,,,,,,,,,,,,,,,
295108,2022-10-06_17h52.18.735,vts_reward_expectancy,2022.2.4,Win32,20.61770649,Chrome,1536,864,,,l,0.5155,10,101,0,2,4,28,8,1,0,0,1,0,0,0,0,1,hexagon,star,,,,,,,,,,,,,,,,,,,,,,,,,,,,,,,,,,,,,,,,,,,,,,,,,,,,,,
295108,2022-10-06_17h52.18.735,vts_reward_expectancy,2022.2.4,Win32,20.61770649,Chrome,1536,864,,,a,0.1808,10,111,0,2,5,29,10,1,0,0,0,1,0,1,0,0,star ,circle,,,,,,,,,,,,,,,,,,,,,,,,,,,,,,,,,,,,,,,,,,,,,,,,,,,,,,
295108,2022-10-06_17h52.18.735,vts_reward_expectancy,2022.2.4,Win32,20.61770649,Chrome,1536,864,,,a,0.4743,10,121,0,2,6,30,9,1,0,0,0,1,1,0,0,0,star,triangle,,,,,,,,,,,,,,,,,,,,,,,,,,,,,,,,,,,,,,,,,,,,,,,,,,,,,,
295108,2022-10-06_17h52.18.735,vts_reward_expectancy,2022.2.4,Win32,20.61770649,Chrome,1536,864,,,l,1.0923,1,122,0,2,7,31,7,1,0,0,1,0,0,1,0,0,hexagon,circle,,,,,,,,,,,,,,,,,,,,,,,,,,,,,,,,,,,,,,,,,,,,,,,,,,,,,,
295108,2022-10-06_17h52.18.735,vts_reward_expectancy,2022.2.4,Win32,20.61770649,Chrome,1536,864,,,a,0.31,10,132,0,2,8,32,4,1,0,1,0,0,0,0,1,0,circle,hexagon,,,,,,,,,,,,,,,,,,,,,,,,,,,,,,,,,,,,,,,,,,,,,,,,,,,,,,
295108,2022-10-06_17h52.18.735,vts_reward_expectancy,2022.2.4,Win32,20.61770649,Chrome,1536,864,,,l,1.2083,10,142,0,2,9,33,11,1,0,0,0,1,0,0,1,0,star,hexagon,,,,,,,,,,,,,,,,,,,,,,,,,,,,,,,,,,,,,,,,,,,,,,,,,,,,,,
295108,2022-10-06_17h52.18.735,vts_reward_expectancy,2022.2.4,Win32,20.61770649,Chrome,1536,864,,,a,0.4737,1,143,0,2,10,34,3,1,0,1,0,0,1,0,0,0,circle,triangle,,,,,,,,,,,,,,,,,,,,,,,,,,,,,,,,,,,,,,,,,,,,,,,,,,,,,,
295108,2022-10-06_17h52.18.735,vts_reward_expectancy,2022.2.4,Win32,20.61770649,Chrome,1536,864,,,l,0.3206,1,144,0,2,11,35,1,1,1,0,0,0,0,0,1,0,triangle,hexagon,,,,,,,,,,,,,,,,,,,,,,,,,,,,,,,,,,,,,,,,,,,,,,,,,,,,,,
295108,2022-10-06_17h52.18.735,vts_reward_expectancy,2022.2.4,Win32,20.61770649,Chrome,1536,864,,,a,0.5412,1,145,1,0,0,0,10,1,0,0,0,1,0,1,0,0,star ,circle,,,,,,,,,,,,,,,,,,,,,,,,,,,,,,,,,,,,,,,,,,,,,,,,,,,,,,
295108,2022-10-06_17h52.18.735,vts_reward_expectancy,2022.2.4,Win32,20.61770649,Chrome,1536,864,,,a,0.0004,1,146,1,0,1,1,2,1,1,0,0,0,0,0,0,1,triangle,star,,,,,,,,,,,,,,,,,,,,,,,,,,,,,,,,,,,,,,,,,,,,,,,,,,,,,,
295108,2022-10-06_17h52.18.735,vts_reward_expectancy,2022.2.4,Win32,20.61770649,Chrome,1536,864,,,l,0.0006,1,147,1,0,2,2,4,1,0,1,0,0,0,0,1,0,circle,hexagon,,,,,,,,,,,,,,,,,,,,,,,,,,,,,,,,,,,,,,,,,,,,,,,,,,,,,,
295108,2022-10-06_17h52.18.735,vts_reward_expectancy,2022.2.4,Win32,20.61770649,Chrome,1536,864,,,l,0.0128,10,157,1,0,3,3,5,1,0,1,0,0,0,0,0,1,circle,star,,,,,,,,,,,,,,,,,,,,,,,,,,,,,,,,,,,,,,,,,,,,,,,,,,,,,,
295108,2022-10-06_17h52.18.735,vts_reward_expectancy,2022.2.4,Win32,20.61770649,Chrome,1536,864,,,l,0.1472,1,158,1,0,4,4,9,1,0,0,0,1,1,0,0,0,star,triangle,,,,,,,,,,,,,,,,,,,,,,,,,,,,,,,,,,,,,,,,,,,,,,,,,,,,,,
295108,2022-10-06_17h52.18.735,vts_reward_expectancy,2022.2.4,Win32,20.61770649,Chrome,1536,864,,,l,0.0407,10,168,1,0,5,5,7,1,0,0,1,0,0,1,0,0,hexagon,circle,,,,,,,,,,,,,,,,,,,,,,,,,,,,,,,,,,,,,,,,,,,,,,,,,,,,,,
295108,2022-10-06_17h52.18.735,vts_reward_expectancy,2022.2.4,Win32,20.61770649,Chrome,1536,864,,,a,0.1252,1,169,1,0,6,6,11,1,0,0,0,1,0,0,1,0,star,hexagon,,,,,,,,,,,,,,,,,,,,,,,,,,,,,,,,,,,,,,,,,,,,,,,,,,,,,,
295108,2022-10-06_17h52.18.735,vts_reward_expectancy,2022.2.4,Win32,20.61770649,Chrome,1536,864,,,a,0.0004,1,170,1,0,7,7,8,1,0,0,1,0,0,0,0,1,hexagon,star,,,,,,,,,,,,,,,,,,,,,,,,,,,,,,,,,,,,,,,,,,,,,,,,,,,,,,
295108,2022-10-06_17h52.18.735,vts_reward_expectancy,2022.2.4,Win32,20.61770649,Chrome,1536,864,,,a,0.0003,1,171,1,0,8,8,1,1,1,0,0,0,0,0,1,0,triangle,hexagon,,,,,,,,,,,,,,,,,,,,,,,,,,,,,,,,,,,,,,,,,,,,,,,,,,,,,,
295108,2022-10-06_17h52.18.735,vts_reward_expectancy,2022.2.4,Win32,20.61770649,Chrome,1536,864,,,a,0.0598,10,181,1,0,9,9,0,1,1,0,0,0,0,1,0,0,triangle,circle,,,,,,,,,,,,,,,,,,,,,,,,,,,,,,,,,,,,,,,,,,,,,,,,,,,,,,
295108,2022-10-06_17h52.18.735,vts_reward_expectancy,2022.2.4,Win32,20.61770649,Chrome,1536,864,,,l,0.2779,10,191,1,0,10,10,6,1,0,0,1,0,1,0,0,0,hexagon,triangle,,,,,,,,,,,,,,,,,,,,,,,,,,,,,,,,,,,,,,,,,,,,,,,,,,,,,,
295108,2022-10-06_17h52.18.735,vts_reward_expectancy,2022.2.4,Win32,20.61770649,Chrome,1536,864,,,l,0.3419,1,192,1,0,11,11,3,1,0,1,0,0,1,0,0,0,circle,triangle,,,,,,,,,,,,,,,,,,,,,,,,,,,,,,,,,,,,,,,,,,,,,,,,,,,,,,
295108,2022-10-06_17h52.18.735,vts_reward_expectancy,2022.2.4,Win32,20.61770649,Chrome,1536,864,,,a,0.2842,1,193,1,1,0,12,1,1,1,0,0,0,0,0,1,0,triangle,hexagon,,,,,,,,,,,,,,,,,,,,,,,,,,,,,,,,,,,,,,,,,,,,,,,,,,,,,,
295108,2022-10-06_17h52.18.735,vts_reward_expectancy,2022.2.4,Win32,20.61770649,Chrome,1536,864,,,a,0.0133,1,194,1,1,1,13,4,1,0,1,0,0,0,0,1,0,circle,hexagon,,,,,,,,,,,,,,,,,,,,,,,,,,,,,,,,,,,,,,,,,,,,,,,,,,,,,,
295108,2022-10-06_17h52.18.735,vts_reward_expectancy,2022.2.4,Win32,20.61770649,Chrome,1536,864,,,a,0.0696,1,195,1,1,2,14,2,1,1,0,0,0,0,0,0,1,triangle,star,,,,,,,,,,,,,,,,,,,,,,,,,,,,,,,,,,,,,,,,,,,,,,,,,,,,,,
295108,2022-10-06_17h52.18.735,vts_reward_expectancy,2022.2.4,Win32,20.61770649,Chrome,1536,864,,,a,0.0656,10,205,1,1,3,15,5,1,0,1,0,0,0,0,0,1,circle,star,,,,,,,,,,,,,,,,,,,,,,,,,,,,,,,,,,,,,,,,,,,,,,,,,,,,,,
295108,2022-10-06_17h52.18.735,vts_reward_expectancy,2022.2.4,Win32,20.61770649,Chrome,1536,864,,,a,0.3374,1,206,1,1,4,16,8,1,0,0,1,0,0,0,0,1,hexagon,star,,,,,,,,,,,,,,,,,,,,,,,,,,,,,,,,,,,,,,,,,,,,,,,,,,,,,,
295108,2022-10-06_17h52.18.735,vts_reward_expectancy,2022.2.4,Win32,20.61770649,Chrome,1536,864,,,l,0.2853,10,216,1,1,5,17,6,1,0,0,1,0,1,0,0,0,hexagon,triangle,,,,,,,,,,,,,,,,,,,,,,,,,,,,,,,,,,,,,,,,,,,,,,,,,,,,,,
295108,2022-10-06_17h52.18.735,vts_reward_expectancy,2022.2.4,Win32,20.61770649,Chrome,1536,864,,,a,0.2806,10,226,1,1,6,18,10,1,0,0,0,1,0,1,0,0,star ,circle,,,,,,,,,,,,,,,,,,,,,,,,,,,,,,,,,,,,,,,,,,,,,,,,,,,,,,
295108,2022-10-06_17h52.18.735,vts_reward_expectancy,2022.2.4,Win32,20.61770649,Chrome,1536,864,,,l,0.3267,1,227,1,1,7,19,3,1,0,1,0,0,1,0,0,0,circle,triangle,,,,,,,,,,,,,,,,,,,,,,,,,,,,,,,,,,,,,,,,,,,,,,,,,,,,,,
295108,2022-10-06_17h52.18.735,vts_reward_expectancy,2022.2.4,Win32,20.61770649,Chrome,1536,864,,,a,0.225,10,237,1,1,8,20,7,1,0,0,1,0,0,1,0,0,hexagon,circle,,,,,,,,,,,,,,,,,,,,,,,,,,,,,,,,,,,,,,,,,,,,,,,,,,,,,,
295108,2022-10-06_17h52.18.735,vts_reward_expectancy,2022.2.4,Win32,20.61770649,Chrome,1536,864,,,l,0.2691,1,238,1,1,9,21,0,1,1,0,0,0,0,1,0,0,triangle,circle,,,,,,,,,,,,,,,,,,,,,,,,,,,,,,,,,,,,,,,,,,,,,,,,,,,,,,
295108,2022-10-06_17h52.18.735,vts_reward_expectancy,2022.2.4,Win32,20.61770649,Chrome,1536,864,,,a,0.1278,10,248,1,1,10,22,9,1,0,0,0,1,1,0,0,0,star,triangle,,,,,,,,,,,,,,,,,,,,,,,,,,,,,,,,,,,,,,,,,,,,,,,,,,,,,,
295108,2022-10-06_17h52.18.735,vts_reward_expectancy,2022.2.4,Win32,20.61770649,Chrome,1536,864,,,a,0.1465,10,258,1,1,11,23,11,1,0,0,0,1,0,0,1,0,star,hexagon,,,,,,,,,,,,,,,,,,,,,,,,,,,,,,,,,,,,,,,,,,,,,,,,,,,,,,
295108,2022-10-06_17h52.18.735,vts_reward_expectancy,2022.2.4,Win32,20.61770649,Chrome,1536,864,,,a,0.4984,10,268,1,2,0,24,10,1,0,0,0,1,0,1,0,0,star ,circle,,,,,,,,,,,,,,,,,,,,,,,,,,,,,,,,,,,,,,,,,,,,,,,,,,,,,,
295108,2022-10-06_17h52.18.735,vts_reward_expectancy,2022.2.4,Win32,20.61770649,Chrome,1536,864,,,l,0.3124,10,278,1,2,1,25,5,1,0,1,0,0,0,0,0,1,circle,star,,,,,,,,,,,,,,,,,,,,,,,,,,,,,,,,,,,,,,,,,,,,,,,,,,,,,,
295108,2022-10-06_17h52.18.735,vts_reward_expectancy,2022.2.4,Win32,20.61770649,Chrome,1536,864,,,a,0.2929,10,288,1,2,2,26,11,1,0,0,0,1,0,0,1,0,star,hexagon,,,,,,,,,,,,,,,,,,,,,,,,,,,,,,,,,,,,,,,,,,,,,,,,,,,,,,
295108,2022-10-06_17h52.18.735,vts_reward_expectancy,2022.2.4,Win32,20.61770649,Chrome,1536,864,,,l,0.241,10,298,1,2,3,27,7,1,0,0,1,0,0,1,0,0,hexagon,circle,,,,,,,,,,,,,,,,,,,,,,,,,,,,,,,,,,,,,,,,,,,,,,,,,,,,,,
295108,2022-10-06_17h52.18.735,vts_reward_expectancy,2022.2.4,Win32,20.61770649,Chrome,1536,864,,,a,0.2996,10,308,1,2,4,28,8,1,0,0,1,0,0,0,0,1,hexagon,star,,,,,,,,,,,,,,,,,,,,,,,,,,,,,,,,,,,,,,,,,,,,,,,,,,,,,,
295108,2022-10-06_17h52.18.735,vts_reward_expectancy,2022.2.4,Win32,20.61770649,Chrome,1536,864,,,l,0.3375,1,309,1,2,5,29,3,1,0,1,0,0,1,0,0,0,circle,triangle,,,,,,,,,,,,,,,,,,,,,,,,,,,,,,,,,,,,,,,,,,,,,,,,,,,,,,
295108,2022-10-06_17h52.18.735,vts_reward_expectancy,2022.2.4,Win32,20.61770649,Chrome,1536,864,,,a,0.328,10,319,1,2,6,30,4,1,0,1,0,0,0,0,1,0,circle,hexagon,,,,,,,,,,,,,,,,,,,,,,,,,,,,,,,,,,,,,,,,,,,,,,,,,,,,,,
295108,2022-10-06_17h52.18.735,vts_reward_expectancy,2022.2.4,Win32,20.61770649,Chrome,1536,864,,,a,0.1315,1,320,1,2,7,31,2,1,1,0,0,0,0,0,0,1,triangle,star,,,,,,,,,,,,,,,,,,,,,,,,,,,,,,,,,,,,,,,,,,,,,,,,,,,,,,
295108,2022-10-06_17h52.18.735,vts_reward_expectancy,2022.2.4,Win32,20.61770649,Chrome,1536,864,,,a,0.2559,1,321,1,2,8,32,0,1,1,0,0,0,0,1,0,0,triangle,circle,,,,,,,,,,,,,,,,,,,,,,,,,,,,,,,,,,,,,,,,,,,,,,,,,,,,,,
295108,2022-10-06_17h52.18.735,vts_reward_expectancy,2022.2.4,Win32,20.61770649,Chrome,1536,864,,,l,0.3355,1,322,1,2,9,33,6,1,0,0,1,0,1,0,0,0,hexagon,triangle,,,,,,,,,,,,,,,,,,,,,,,,,,,,,,,,,,,,,,,,,,,,,,,,,,,,,,
295108,2022-10-06_17h52.18.735,vts_reward_expectancy,2022.2.4,Win32,20.61770649,Chrome,1536,864,,,l,0.2948,10,332,1,2,10,34,1,1,1,0,0,0,0,0,1,0,triangle,hexagon,,,,,,,,,,,,,,,,,,,,,,,,,,,,,,,,,,,,,,,,,,,,,,,,,,,,,,
295108,2022-10-06_17h52.18.735,vts_reward_expectancy,2022.2.4,Win32,20.61770649,Chrome,1536,864,,,l,0.3755,1,333,1,2,11,35,9,1,0,0,0,1,1,0,0,0,star,triangle,,,,,,,,,,,,,,,,,,,,,,,,,,,,,,,,,,,,,,,,,,,,,,,,,,,,,,
295108,2022-10-06_17h52.18.735,vts_reward_expectancy,2022.2.4,Win32,20.61770649,Chrome,1536,864,,,a,0.7441,10,343,2,0,0,0,9,1,0,0,0,1,1,0,0,0,star,triangle,,,,,,,,,,,,,,,,,,,,,,,,,,,,,,,,,,,,,,,,,,,,,,,,,,,,,,
295108,2022-10-06_17h52.18.735,vts_reward_expectancy,2022.2.4,Win32,20.61770649,Chrome,1536,864,,,a,0.2943,1,344,2,0,1,1,1,1,1,0,0,0,0,0,1,0,triangle,hexagon,,,,,,,,,,,,,,,,,,,,,,,,,,,,,,,,,,,,,,,,,,,,,,,,,,,,,,
295108,2022-10-06_17h52.18.735,vts_reward_expectancy,2022.2.4,Win32,20.61770649,Chrome,1536,864,,,a,0.0355,1,345,2,0,2,2,10,1,0,0,0,1,0,1,0,0,star ,circle,,,,,,,,,,,,,,,,,,,,,,,,,,,,,,,,,,,,,,,,,,,,,,,,,,,,,,
295108,2022-10-06_17h52.18.735,vts_reward_expectancy,2022.2.4,Win32,20.61770649,Chrome,1536,864,,,l,0.0216,1,346,2,0,3,3,0,1,1,0,0,0,0,1,0,0,triangle,circle,,,,,,,,,,,,,,,,,,,,,,,,,,,,,,,,,,,,,,,,,,,,,,,,,,,,,,
295108,2022-10-06_17h52.18.735,vts_reward_expectancy,2022.2.4,Win32,20.61770649,Chrome,1536,864,,,a,0.0339,10,356,2,0,4,4,5,1,0,1,0,0,0,0,0,1,circle,star,,,,,,,,,,,,,,,,,,,,,,,,,,,,,,,,,,,,,,,,,,,,,,,,,,,,,,
295108,2022-10-06_17h52.18.735,vts_reward_expectancy,2022.2.4,Win32,20.61770649,Chrome,1536,864,,,a,0.1265,1,357,2,0,5,5,8,1,0,0,1,0,0,0,0,1,hexagon,star,,,,,,,,,,,,,,,,,,,,,,,,,,,,,,,,,,,,,,,,,,,,,,,,,,,,,,
295108,2022-10-06_17h52.18.735,vts_reward_expectancy,2022.2.4,Win32,20.61770649,Chrome,1536,864,,,l,0.0002,10,367,2,0,6,6,11,1,0,0,0,1,0,0,1,0,star,hexagon,,,,,,,,,,,,,,,,,,,,,,,,,,,,,,,,,,,,,,,,,,,,,,,,,,,,,,
295108,2022-10-06_17h52.18.735,vts_reward_expectancy,2022.2.4,Win32,20.61770649,Chrome,1536,864,,,l,0.3497,10,377,2,0,7,7,4,1,0,1,0,0,0,0,1,0,circle,hexagon,,,,,,,,,,,,,,,,,,,,,,,,,,,,,,,,,,,,,,,,,,,,,,,,,,,,,,
295108,2022-10-06_17h52.18.735,vts_reward_expectancy,2022.2.4,Win32,20.61770649,Chrome,1536,864,,,l,0.75,1,378,2,0,8,8,3,1,0,1,0,0,1,0,0,0,circle,triangle,,,,,,,,,,,,,,,,,,,,,,,,,,,,,,,,,,,,,,,,,,,,,,,,,,,,,,
295108,2022-10-06_17h52.18.735,vts_reward_expectancy,2022.2.4,Win32,20.61770649,Chrome,1536,864,,,a,0.3335,1,379,2,0,9,9,7,1,0,0,1,0,0,1,0,0,hexagon,circle,,,,,,,,,,,,,,,,,,,,,,,,,,,,,,,,,,,,,,,,,,,,,,,,,,,,,,
295108,2022-10-06_17h52.18.735,vts_reward_expectancy,2022.2.4,Win32,20.61770649,Chrome,1536,864,,,l,0.2954,1,380,2,0,10,10,6,1,0,0,1,0,1,0,0,0,hexagon,triangle,,,,,,,,,,,,,,,,,,,,,,,,,,,,,,,,,,,,,,,,,,,,,,,,,,,,,,
295108,2022-10-06_17h52.18.735,vts_reward_expectancy,2022.2.4,Win32,20.61770649,Chrome,1536,864,,,a,0.0002,1,381,2,0,11,11,2,1,1,0,0,0,0,0,0,1,triangle,star,,,,,,,,,,,,,,,,,,,,,,,,,,,,,,,,,,,,,,,,,,,,,,,,,,,,,,
295108,2022-10-06_17h52.18.735,vts_reward_expectancy,2022.2.4,Win32,20.61770649,Chrome,1536,864,,,l,0.0287,10,391,2,1,0,12,10,1,0,0,0,1,0,1,0,0,star ,circle,,,,,,,,,,,,,,,,,,,,,,,,,,,,,,,,,,,,,,,,,,,,,,,,,,,,,,
295108,2022-10-06_17h52.18.735,vts_reward_expectancy,2022.2.4,Win32,20.61770649,Chrome,1536,864,,,a,1.1386,1,392,2,1,1,13,9,1,0,0,0,1,1,0,0,0,star,triangle,,,,,,,,,,,,,,,,,,,,,,,,,,,,,,,,,,,,,,,,,,,,,,,,,,,,,,
295108,2022-10-06_17h52.18.735,vts_reward_expectancy,2022.2.4,Win32,20.61770649,Chrome,1536,864,,,a,2.4382,1,393,2,1,2,14,2,1,1,0,0,0,0,0,0,1,triangle,star,,,,,,,,,,,,,,,,,,,,,,,,,,,,,,,,,,,,,,,,,,,,,,,,,,,,,,
295108,2022-10-06_17h52.18.735,vts_reward_expectancy,2022.2.4,Win32,20.61770649,Chrome,1536,864,,,l,1.7935,1,394,2,1,3,15,6,1,0,0,1,0,1,0,0,0,hexagon,triangle,,,,,,,,,,,,,,,,,,,,,,,,,,,,,,,,,,,,,,,,,,,,,,,,,,,,,,
295108,2022-10-06_17h52.18.735,vts_reward_expectancy,2022.2.4,Win32,20.61770649,Chrome,1536,864,,,l,1.3346,1,395,2,1,4,16,5,1,0,1,0,0,0,0,0,1,circle,star,,,,,,,,,,,,,,,,,,,,,,,,,,,,,,,,,,,,,,,,,,,,,,,,,,,,,,
295108,2022-10-06_17h52.18.735,vts_reward_expectancy,2022.2.4,Win32,20.61770649,Chrome,1536,864,,,a,1.5297,10,405,2,1,5,17,7,1,0,0,1,0,0,1,0,0,hexagon,circle,,,,,,,,,,,,,,,,,,,,,,,,,,,,,,,,,,,,,,,,,,,,,,,,,,,,,,
295108,2022-10-06_17h52.18.735,vts_reward_expectancy,2022.2.4,Win32,20.61770649,Chrome,1536,864,,,a,1.3315,10,415,2,1,6,18,8,1,0,0,1,0,0,0,0,1,hexagon,star,,,,,,,,,,,,,,,,,,,,,,,,,,,,,,,,,,,,,,,,,,,,,,,,,,,,,,
295108,2022-10-06_17h52.18.735,vts_reward_expectancy,2022.2.4,Win32,20.61770649,Chrome,1536,864,,,l,2.9916,1,416,2,1,7,19,4,1,0,1,0,0,0,0,1,0,circle,hexagon,,,,,,,,,,,,,,,,,,,,,,,,,,,,,,,,,,,,,,,,,,,,,,,,,,,,,,
295108,2022-10-06_17h52.18.735,vts_reward_expectancy,2022.2.4,Win32,20.61770649,Chrome,1536,864,,,l,1.3988,1,417,2,1,8,20,3,1,0,1,0,0,1,0,0,0,circle,triangle,,,,,,,,,,,,,,,,,,,,,,,,,,,,,,,,,,,,,,,,,,,,,,,,,,,,,,
295108,2022-10-06_17h52.18.735,vts_reward_expectancy,2022.2.4,Win32,20.61770649,Chrome,1536,864,,,a,0.866,1,418,2,1,9,21,1,1,1,0,0,0,0,0,1,0,triangle,hexagon,,,,,,,,,,,,,,,,,,,,,,,,,,,,,,,,,,,,,,,,,,,,,,,,,,,,,,
295108,2022-10-06_17h52.18.735,vts_reward_expectancy,2022.2.4,Win32,20.61770649,Chrome,1536,864,,,l,0.4673,1,419,2,1,10,22,11,1,0,0,0,1,0,0,1,0,star,hexagon,,,,,,,,,,,,,,,,,,,,,,,,,,,,,,,,,,,,,,,,,,,,,,,,,,,,,,
295108,2022-10-06_17h52.18.735,vts_reward_expectancy,2022.2.4,Win32,20.61770649,Chrome,1536,864,,,l,1.0005,1,420,2,1,11,23,0,1,1,0,0,0,0,1,0,0,triangle,circle,,,,,,,,,,,,,,,,,,,,,,,,,,,,,,,,,,,,,,,,,,,,,,,,,,,,,,
295108,2022-10-06_17h52.18.735,vts_reward_expectancy,2022.2.4,Win32,20.61770649,Chrome,1536,864,,,a,0.0875,1,421,2,2,0,24,7,1,0,0,1,0,0,1,0,0,hexagon,circle,,,,,,,,,,,,,,,,,,,,,,,,,,,,,,,,,,,,,,,,,,,,,,,,,,,,,,
295108,2022-10-06_17h52.18.735,vts_reward_expectancy,2022.2.4,Win32,20.61770649,Chrome,1536,864,,,a,0.0088,1,422,2,2,1,25,0,1,1,0,0,0,0,1,0,0,triangle,circle,,,,,,,,,,,,,,,,,,,,,,,,,,,,,,,,,,,,,,,,,,,,,,,,,,,,,,
295108,2022-10-06_17h52.18.735,vts_reward_expectancy,2022.2.4,Win32,20.61770649,Chrome,1536,864,,,a,0.093,1,423,2,2,2,26,8,1,0,0,1,0,0,0,0,1,hexagon,star,,,,,,,,,,,,,,,,,,,,,,,,,,,,,,,,,,,,,,,,,,,,,,,,,,,,,,
295108,2022-10-06_17h52.18.735,vts_reward_expectancy,2022.2.4,Win32,20.61770649,Chrome,1536,864,,,l,0.0207,10,433,2,2,3,27,2,1,1,0,0,0,0,0,0,1,triangle,star,,,,,,,,,,,,,,,,,,,,,,,,,,,,,,,,,,,,,,,,,,,,,,,,,,,,,,
295108,2022-10-06_17h52.18.735,vts_reward_expectancy,2022.2.4,Win32,20.61770649,Chrome,1536,864,,,l,0.0437,1,434,2,2,4,28,11,1,0,0,0,1,0,0,1,0,star,hexagon,,,,,,,,,,,,,,,,,,,,,,,,,,,,,,,,,,,,,,,,,,,,,,,,,,,,,,
295108,2022-10-06_17h52.18.735,vts_reward_expectancy,2022.2.4,Win32,20.61770649,Chrome,1536,864,,,l,0.1609,10,444,2,2,5,29,5,1,0,1,0,0,0,0,0,1,circle,star,,,,,,,,,,,,,,,,,,,,,,,,,,,,,,,,,,,,,,,,,,,,,,,,,,,,,,
295108,2022-10-06_17h52.18.735,vts_reward_expectancy,2022.2.4,Win32,20.61770649,Chrome,1536,864,,,l,0.0003,1,445,2,2,6,30,3,1,0,1,0,0,1,0,0,0,circle,triangle,,,,,,,,,,,,,,,,,,,,,,,,,,,,,,,,,,,,,,,,,,,,,,,,,,,,,,
295108,2022-10-06_17h52.18.735,vts_reward_expectancy,2022.2.4,Win32,20.61770649,Chrome,1536,864,,,a,0.0902,1,446,2,2,7,31,9,1,0,0,0,1,1,0,0,0,star,triangle,,,,,,,,,,,,,,,,,,,,,,,,,,,,,,,,,,,,,,,,,,,,,,,,,,,,,,
295108,2022-10-06_17h52.18.735,vts_reward_expectancy,2022.2.4,Win32,20.61770649,Chrome,1536,864,,,a,0.0127,10,456,2,2,8,32,4,1,0,1,0,0,0,0,1,0,circle,hexagon,,,,,,,,,,,,,,,,,,,,,,,,,,,,,,,,,,,,,,,,,,,,,,,,,,,,,,
295108,2022-10-06_17h52.18.735,vts_reward_expectancy,2022.2.4,Win32,20.61770649,Chrome,1536,864,,,l,0.0292,1,457,2,2,9,33,10,1,0,0,0,1,0,1,0,0,star ,circle,,,,,,,,,,,,,,,,,,,,,,,,,,,,,,,,,,,,,,,,,,,,,,,,,,,,,,
295108,2022-10-06_17h52.18.735,vts_reward_expectancy,2022.2.4,Win32,20.61770649,Chrome,1536,864,,,l,0.0281,1,458,2,2,10,34,1,1,1,0,0,0,0,0,1,0,triangle,hexagon,,,,,,,,,,,,,,,,,,,,,,,,,,,,,,,,,,,,,,,,,,,,,,,,,,,,,,
295108,2022-10-06_17h52.18.735,vts_reward_expectancy,2022.2.4,Win32,20.61770649,Chrome,1536,864,,,l,0.0564,1,459,2,2,11,35,6,1,0,0,1,0,1,0,0,0,hexagon,triangle,,,,,,,,,,,,,,,,,,,,,,,,,,,,,,,,,,,,,,,,,,,,,,,,,,,,,,
295108,2022-10-06_17h52.18.735,vts_reward_expectancy,2022.2.4,Win32,20.61770649,Chrome,1536,864,,,,,,,,,,,,,,,,,,,,,,,167,B,star,0,0,,0,0,0,0,0,1,,,,,,,,,,,,,,,,,,,,,,,,,,,,,,,,,,,,,,,,,,
295108,2022-10-06_17h52.18.735,vts_reward_expectancy,2022.2.4,Win32,20.61770649,Chrome,1536,864,,,,,,,,,,,,,,,,,,,,,,,146,Y,hexagon,1,1,d,0,1,0,1,0,1,0.9433,,,,,,,,,,,,,,,,,,,,,,,,,,,,,,,,,,,,,,,,,
295108,2022-10-06_17h52.18.735,vts_reward_expectancy,2022.2.4,Win32,20.61770649,Chrome,1536,864,,,,,,,,,,,,,,,,,,,,,,,132,F,triangle,1,0,d,0,2,0,2,0,1,0.7177,,,,,,,,,,,,,,,,,,,,,,,,,,,,,,,,,,,,,,,,,
295108,2022-10-06_17h52.18.735,vts_reward_expectancy,2022.2.4,Win32,20.61770649,Chrome,1536,864,,,,,,,,,,,,,,,,,,,,,,,139,W,circle,1,0,d,0,3,0,3,0,1,0.849,,,,,,,,,,,,,,,,,,,,,,,,,,,,,,,,,,,,,,,,,
295108,2022-10-06_17h52.18.735,vts_reward_expectancy,2022.2.4,Win32,20.61770649,Chrome,1536,864,,,,,,,,,,,,,,,,,,,,,,,181,H,star,1,0,f,0,4,0,4,0,1,0.9377,,,,,,,,,,,,,,,,,,,,,,,,,,,,,,,,,,,,,,,,,
295108,2022-10-06_17h52.18.735,vts_reward_expectancy,2022.2.4,Win32,20.61770649,Chrome,1536,864,,,,,,,,,,,,,,,,,,,,,,,160,U,hexagon,1,0,f,0,5,0,5,0,1,0.8581,,,,,,,,,,,,,,,,,,,,,,,,,,,,,,,,,,,,,,,,,
295108,2022-10-06_17h52.18.735,vts_reward_expectancy,2022.2.4,Win32,20.61770649,Chrome,1536,864,,,,,,,,,,,,,,,,,,,,,,,125,S,triangle,1,0,d,0,6,0,6,0,1,0.8998,,,,,,,,,,,,,,,,,,,,,,,,,,,,,,,,,,,,,,,,,
295108,2022-10-06_17h52.18.735,vts_reward_expectancy,2022.2.4,Win32,20.61770649,Chrome,1536,864,,,,,,,,,,,,,,,,,,,,,,,174,D,circle,1,0,f,0,7,0,7,0,1,0.924,,,,,,,,,,,,,,,,,,,,,,,,,,,,,,,,,,,,,,,,,
295108,2022-10-06_17h52.18.735,vts_reward_expectancy,2022.2.4,Win32,20.61770649,Chrome,1536,864,,,,,,,,,,,,,,,,,,,,,,,167,B,circle,1,0,f,0,8,0,8,0,1,1.2033,,,,,,,,,,,,,,,,,,,,,,,,,,,,,,,,,,,,,,,,,
295108,2022-10-06_17h52.18.735,vts_reward_expectancy,2022.2.4,Win32,20.61770649,Chrome,1536,864,,,,,,,,,,,,,,,,,,,,,,,146,Y,hexagon,1,0,d,0,9,0,9,0,1,0.5795,,,,,,,,,,,,,,,,,,,,,,,,,,,,,,,,,,,,,,,,,
295108,2022-10-06_17h52.18.735,vts_reward_expectancy,2022.2.4,Win32,20.61770649,Chrome,1536,864,,,,,,,,,,,,,,,,,,,,,,,167,Y,circle,2,0,,1,,,,,,,f,0.9388,0,0,0,0,1,,,,,,,,,,,,,,,,,,,,,,,,,,,,,,,,,,
295108,2022-10-06_17h52.18.735,vts_reward_expectancy,2022.2.4,Win32,20.61770649,Chrome,1536,864,,,,,,,,,,,,,,,,,,,,,,,174,F,star,1,0,,1,,,,,,,j,1.2792,1,0,1,0,1,,,,,,,,,,,,,,,,,,,,,,,,,,,,,,,,,,
295108,2022-10-06_17h52.18.735,vts_reward_expectancy,2022.2.4,Win32,20.61770649,Chrome,1536,864,,,,,,,,,,,,,,,,,,,,,,,139,B,hexagon,0,0,,1,,,,,,,k,1.3278,2,0,2,0,1,,,,,,,,,,,,,,,,,,,,,,,,,,,,,,,,,,
295108,2022-10-06_17h52.18.735,vts_reward_expectancy,2022.2.4,Win32,20.61770649,Chrome,1536,864,,,,,,,,,,,,,,,,,,,,,,,132,U,triangle,1,1,,1,,,,,,,k,0.9363,3,0,3,0,1,,,,,,,,,,,,,,,,,,,,,,,,,,,,,,,,,,
295108,2022-10-06_17h52.18.735,vts_reward_expectancy,2022.2.4,Win32,20.61770649,Chrome,1536,864,,,,,,,,,,,,,,,,,,,,,,,160,H,circle,1,0,,1,,,,,,,j,1.1105,4,0,4,0,1,,,,,,,,,,,,,,,,,,,,,,,,,,,,,,,,,,
295108,2022-10-06_17h52.18.735,vts_reward_expectancy,2022.2.4,Win32,20.61770649,Chrome,1536,864,,,,,,,,,,,,,,,,,,,,,,,146,W,star,1,0,,1,,,,,,,k,0.6317,5,0,5,0,1,,,,,,,,,,,,,,,,,,,,,,,,,,,,,,,,,,
295108,2022-10-06_17h52.18.735,vts_reward_expectancy,2022.2.4,Win32,20.61770649,Chrome,1536,864,,,,,,,,,,,,,,,,,,,,,,,125,D,hexagon,1,0,,1,,,,,,,j,0.7128,6,0,6,0,1,,,,,,,,,,,,,,,,,,,,,,,,,,,,,,,,,,
295108,2022-10-06_17h52.18.735,vts_reward_expectancy,2022.2.4,Win32,20.61770649,Chrome,1536,864,,,,,,,,,,,,,,,,,,,,,,,181,S,triangle,1,0,,1,,,,,,,k,0.8498,7,0,7,0,1,,,,,,,,,,,,,,,,,,,,,,,,,,,,,,,,,,
295108,2022-10-06_17h52.18.735,vts_reward_expectancy,2022.2.4,Win32,20.61770649,Chrome,1536,864,,,,,,,,,,,,,,,,,,,,,,,167,Y,star,1,0,,1,,,,,,,k,0.5915,8,0,8,0,1,,,,,,,,,,,,,,,,,,,,,,,,,,,,,,,,,,
295108,2022-10-06_17h52.18.735,vts_reward_expectancy,2022.2.4,Win32,20.61770649,Chrome,1536,864,,,,,,,,,,,,,,,,,,,,,,,174,F,hexagon,1,0,,1,,,,,,,j,1.0946,9,0,9,0,1,,,,,,,,,,,,,,,,,,,,,,,,,,,,,,,,,,
295108,2022-10-06_17h52.18.735,vts_reward_expectancy,2022.2.4,Win32,20.61770649,Chrome,1536,864,,,,,,,,,,,,,,,,,,,,,,,125,H,hexagon,0,0,,2,,,,,,,k,0.9159,0,0,0,0,1,,,,,,,,,,,,,,,,,,,,,,,,,,,,,,,,,,
295108,2022-10-06_17h52.18.735,vts_reward_expectancy,2022.2.4,Win32,20.61770649,Chrome,1536,864,,,,,,,,,,,,,,,,,,,,,,,167,W,star,1,1,,2,,,,,,,k,0.6656,1,0,1,0,1,,,,,,,,,,,,,,,,,,,,,,,,,,,,,,,,,,
295108,2022-10-06_17h52.18.735,vts_reward_expectancy,2022.2.4,Win32,20.61770649,Chrome,1536,864,,,,,,,,,,,,,,,,,,,,,,,139,Y,circle,1,0,,2,,,,,,,k,0.61,2,0,2,0,1,,,,,,,,,,,,,,,,,,,,,,,,,,,,,,,,,,
295108,2022-10-06_17h52.18.735,vts_reward_expectancy,2022.2.4,Win32,20.61770649,Chrome,1536,864,,,,,,,,,,,,,,,,,,,,,,,174,F,triangle,1,0,,2,,,,,,,j,1.1028,3,0,3,0,1,,,,,,,,,,,,,,,,,,,,,,,,,,,,,,,,,,
295108,2022-10-06_17h52.18.735,vts_reward_expectancy,2022.2.4,Win32,20.61770649,Chrome,1536,864,,,,,,,,,,,,,,,,,,,,,,,146,B,hexagon,1,0,,2,,,,,,,j,0.6157,4,0,4,0,1,,,,,,,,,,,,,,,,,,,,,,,,,,,,,,,,,,
295108,2022-10-06_17h52.18.735,vts_reward_expectancy,2022.2.4,Win32,20.61770649,Chrome,1536,864,,,,,,,,,,,,,,,,,,,,,,,132,S,star,1,0,,2,,,,,,,k,0.9214,5,0,5,0,1,,,,,,,,,,,,,,,,,,,,,,,,,,,,,,,,,,
295108,2022-10-06_17h52.18.735,vts_reward_expectancy,2022.2.4,Win32,20.61770649,Chrome,1536,864,,,,,,,,,,,,,,,,,,,,,,,160,D,circle,1,0,,2,,,,,,,j,0.6661,6,0,6,0,1,,,,,,,,,,,,,,,,,,,,,,,,,,,,,,,,,,
295108,2022-10-06_17h52.18.735,vts_reward_expectancy,2022.2.4,Win32,20.61770649,Chrome,1536,864,,,,,,,,,,,,,,,,,,,,,,,181,U,triangle,1,0,,2,,,,,,,k,0.7674,7,0,7,0,1,,,,,,,,,,,,,,,,,,,,,,,,,,,,,,,,,,
295108,2022-10-06_17h52.18.735,vts_reward_expectancy,2022.2.4,Win32,20.61770649,Chrome,1536,864,,,,,,,,,,,,,,,,,,,,,,,125,H,circle,1,0,,2,,,,,,,j,0.7799,8,0,8,0,1,,,,,,,,,,,,,,,,,,,,,,,,,,,,,,,,,,
295108,2022-10-06_17h52.18.735,vts_reward_expectancy,2022.2.4,Win32,20.61770649,Chrome,1536,864,,,,,,,,,,,,,,,,,,,,,,,167,W,hexagon,1,0,,2,,,,,,,k,0.6045,9,0,9,0,1,,,,,,,,,,,,,,,,,,,,,,,,,,,,,,,,,,
295108,2022-10-06_17h52.18.735,vts_reward_expectancy,2022.2.4,Win32,20.61770649,Chrome,1536,864,,,,,0,459,,,,,,,,,,,,,,,,,139,S,triangle,1,0,,3,,,,,,,,,,,,,,-1,number,NA,d,1.6202,vtsPrac,0,0,0,0,1,,,,,,,,,,,,,,,,,,,,,,,
295108,2022-10-06_17h52.18.735,vts_reward_expectancy,2022.2.4,Win32,20.61770649,Chrome,1536,864,,,,,0,459,,,,,,,,,,,,,,,,,181,W,circle,1,0,,3,,,,,,,,,,,,,,repeat,number,numRpt,f,0.8735,vtsPrac,1,0,1,0,1,,,,,,,,,,,,,,,,,,,,,,,
295108,2022-10-06_17h52.18.735,vts_reward_expectancy,2022.2.4,Win32,20.61770649,Chrome,1536,864,,,,,0,459,,,,,,,,,,,,,,,,,146,Y,triangle,1,0,,3,,,,,,,,,,,,,,repeat,number,numRpt,d,1.0469,vtsPrac,2,0,2,0,1,,,,,,,,,,,,,,,,,,,,,,,
295108,2022-10-06_17h52.18.735,vts_reward_expectancy,2022.2.4,Win32,20.61770649,Chrome,1536,864,,,,,0,459,,,,,,,,,,,,,,,,,174,B,circle,1,0,,3,,,,,,,,,,,,,,repeat,number,numRpt,f,1.3278,vtsPrac,3,0,3,0,1,,,,,,,,,,,,,,,,,,,,,,,
295108,2022-10-06_17h52.18.735,vts_reward_expectancy,2022.2.4,Win32,20.61770649,Chrome,1536,864,,,,,0,459,,,,,,,,,,,,,,,,,139,S,triangle,1,0,,3,,,,,,,,,,,,,,switch,letter,lettSwt,k,1.2341,vtsPrac,4,0,4,0,1,,,,,,,,,,,,,,,,,,,,,,,
295108,2022-10-06_17h52.18.735,vts_reward_expectancy,2022.2.4,Win32,20.61770649,Chrome,1536,864,,,,,0,459,,,,,,,,,,,,,,,,,181,W,hexagon,1,0,,3,,,,,,,,,,,,,,repeat,letter,lettRpt,k,0.7535,vtsPrac,5,0,5,0,1,,,,,,,,,,,,,,,,,,,,,,,
295108,2022-10-06_17h52.18.735,vts_reward_expectancy,2022.2.4,Win32,20.61770649,Chrome,1536,864,,,,,0,459,,,,,,,,,,,,,,,,,146,Y,hexagon,1,0,,3,,,,,,,,,,,,,,switch,number,numSwt,d,0.7012,vtsPrac,6,0,6,0,1,,,,,,,,,,,,,,,,,,,,,,,
295108,2022-10-06_17h52.18.735,vts_reward_expectancy,2022.2.4,Win32,20.61770649,Chrome,1536,864,,,,,0,459,,,,,,,,,,,,,,,,,174,B,circle,1,0,,3,,,,,,,,,,,,,,switch,letter,lettSwt,j,0.7961,vtsPrac,7,0,7,0,1,,,,,,,,,,,,,,,,,,,,,,,
295108,2022-10-06_17h52.18.735,vts_reward_expectancy,2022.2.4,Win32,20.61770649,Chrome,1536,864,,,,,0,459,,,,,,,,,,,,,,,,,167,W,circle,1,0,,3,,,,,,,,,,,,,,repeat,letter,lettRpt,k,0.6397,vtsPrac,8,0,8,0,1,,,,,,,,,,,,,,,,,,,,,,,
295108,2022-10-06_17h52.18.735,vts_reward_expectancy,2022.2.4,Win32,20.61770649,Chrome,1536,864,,,,,0,459,,,,,,,,,,,,,,,,,146,B,triangle,1,0,,3,,,,,,,,,,,,,,switch,number,numSwt,d,0.7979,vtsPrac,9,0,9,0,1,,,,,,,,,,,,,,,,,,,,,,,
295108,2022-10-06_17h52.18.735,vts_reward_expectancy,2022.2.4,Win32,20.61770649,Chrome,1536,864,,,,,0,459,,,,,,,,,,,,,,,,,125,F,hexagon,1,0,,3,,,,,,,,,,,,,,repeat,number,numRpt,d,0.7899,vtsPrac,10,0,10,0,1,,,,,,,,,,,,,,,,,,,,,,,
295108,2022-10-06_17h52.18.735,vts_reward_expectancy,2022.2.4,Win32,20.61770649,Chrome,1536,864,,,,,0,459,,,,,,,,,,,,,,,,,139,S,circle,1,0,,3,,,,,,,,,,,,,,switch,letter,lettSwt,k,0.7772,vtsPrac,11,0,11,0,1,,,,,,,,,,,,,,,,,,,,,,,
295108,2022-10-06_17h52.18.735,vts_reward_expectancy,2022.2.4,Win32,20.61770649,Chrome,1536,864,,,,,0,459,,,,,,,,,,,,,,,,,181,D,hexagon,1,0,,3,,,,,,,,,,,,,,switch,number,numSwt,f,0.6905,vtsPrac,12,0,12,0,1,,,,,,,,,,,,,,,,,,,,,,,
295108,2022-10-06_17h52.18.735,vts_reward_expectancy,2022.2.4,Win32,20.61770649,Chrome,1536,864,,,,,0,459,,,,,,,,,,,,,,,,,174,F,triangle,1,0,,3,,,,,,,,,,,,,,repeat,number,numRpt,f,0.7237,vtsPrac,13,0,13,0,1,,,,,,,,,,,,,,,,,,,,,,,
295108,2022-10-06_17h52.18.735,vts_reward_expectancy,2022.2.4,Win32,20.61770649,Chrome,1536,864,,,,,0,459,,,,,,,,,,,,,,,,,160,S,triangle,1,0,,3,,,,,,,,,,,,,,switch,letter,lettSwt,k,0.686,vtsPrac,14,0,14,0,1,,,,,,,,,,,,,,,,,,,,,,,
295108,2022-10-06_17h52.18.735,vts_reward_expectancy,2022.2.4,Win32,20.61770649,Chrome,1536,864,,,,,0,459,,,,,,,,,,,,,,,,,167,H,hexagon,1,0,,3,,,,,,,,,,,,,,repeat,letter,lettRpt,j,1.2457,vtsPrac,15,0,15,0,1,,,,,,,,,,,,,,,,,,,,,,,
295108,2022-10-06_17h52.18.735,vts_reward_expectancy,2022.2.4,Win32,20.61770649,Chrome,1536,864,,,,,,,,,,,,,,,,,,,,,,,,,,,,,,,,,,,,,,,,,,,,,,,,,,,,,,,,,,,,,,,,,,,,,,,,,,,,
295108,2022-10-06_17h52.18.735,vts_reward_expectancy,2022.2.4,Win32,20.61770649,Chrome,1536,864,,,,,,,,,,,,,,,,,,,,,,,,,,,,,,,,,,,,,,,,,,,,,,,,,,,,,,,,,,,,,,,,,,,,,,,,,,,,
295108,2022-10-06_17h52.18.735,vts_reward_expectancy,2022.2.4,Win32,20.61770649,Chrome,1536,864,,,,,0,459,,,,,,,,,,,,,,,,,139,B,triangle,1,0,,,,,,,,,,,,,,,,switch,number,numSwt,d,1.0969,noRew,,,,,,0,0,0,0,0,1,,,,,,,,,,,,,,,,,
295108,2022-10-06_17h52.18.735,vts_reward_expectancy,2022.2.4,Win32,20.61770649,Chrome,1536,864,,,,,0,459,,,,,,,,,,,,,,,,,132,S,star,1,0,,,,,,,,,,,,,,,,repeat,number,numRpt,d,0.5183,noRew,,,,,,0,1,0,1,0,1,,,,,,,,,,,,,,,,,
295108,2022-10-06_17h52.18.735,vts_reward_expectancy,2022.2.4,Win32,20.61770649,Chrome,1536,864,,,,,0,459,,,,,,,,,,,,,,,,,181,W,triangle,1,0,,,,,,,,,,,,,,,,repeat,number,numRpt,f,0.7018,noRew,,,,,,0,2,0,2,0,1,,,,,,,,,,,,,,,,,
295108,2022-10-06_17h52.18.735,vts_reward_expectancy,2022.2.4,Win32,20.61770649,Chrome,1536,864,,,,,0,459,,,,,,,,,,,,,,,,,167,H,star,1,0,,,,,,,,,,,,,,,,switch,letter,lettSwt,j,1.6317,noRew,,,,,,0,3,0,3,0,1,,,,,,,,,,,,,,,,,
295108,2022-10-06_17h52.18.735,vts_reward_expectancy,2022.2.4,Win32,20.61770649,Chrome,1536,864,,,,,0,459,,,,,,,,,,,,,,,,,139,B,circle,1,0,,,,,,,,,,,,,,,,repeat,letter,lettRpt,j,0.8099,noRew,,,,,,0,4,0,4,0,1,,,,,,,,,,,,,,,,,
295108,2022-10-06_17h52.18.735,vts_reward_expectancy,2022.2.4,Win32,20.61770649,Chrome,1536,864,,,,,0,459,,,,,,,,,,,,,,,,,132,S,triangle,1,0,,,,,,,,,,,,,,,,switch,number,numSwt,d,0.8274,noRew,,,,,,0,5,0,5,0,1,,,,,,,,,,,,,,,,,
295108,2022-10-06_17h52.18.735,vts_reward_expectancy,2022.2.4,Win32,20.61770649,Chrome,1536,864,,,,,0,459,,,,,,,,,,,,,,,,,181,W,hexagon,1,0,,,,,,,,,,,,,,,,repeat,number,numRpt,f,0.7623,noRew,,,,,,0,6,0,6,0,1,,,,,,,,,,,,,,,,,
295108,2022-10-06_17h52.18.735,vts_reward_expectancy,2022.2.4,Win32,20.61770649,Chrome,1536,864,,,,,0,459,,,,,,,,,,,,,,,,,167,H,triangle,1,0,,,,,,,,,,,,,,,,switch,letter,lettSwt,j,0.7699,noRew,,,,,,0,7,0,7,0,1,,,,,,,,,,,,,,,,,
295108,2022-10-06_17h52.18.735,vts_reward_expectancy,2022.2.4,Win32,20.61770649,Chrome,1536,864,,,,,0,459,,,,,,,,,,,,,,,,,174,Y,circle,1,0,,,,,,,,,,,,,,,,repeat,letter,lettRpt,k,0.6644,noRew,,,,,,0,8,0,8,0,1,,,,,,,,,,,,,,,,,
295108,2022-10-06_17h52.18.735,vts_reward_expectancy,2022.2.4,Win32,20.61770649,Chrome,1536,864,,,,,0,459,,,,,,,,,,,,,,,,,146,B,triangle,1,0,,,,,,,,,,,,,,,,repeat,letter,lettRpt,j,1.1806,noRew,,,,,,0,9,0,9,0,1,,,,,,,,,,,,,,,,,
295108,2022-10-06_17h52.18.735,vts_reward_expectancy,2022.2.4,Win32,20.61770649,Chrome,1536,864,,,,,0,459,,,,,,,,,,,,,,,,,181,F,triangle,1,0,,,,,,,,,,,,,,,,repeat,letter,lettRpt,j,0.8976,noRew,,,,,,0,10,0,10,0,1,,,,,,,,,,,,,,,,,
295108,2022-10-06_17h52.18.735,vts_reward_expectancy,2022.2.4,Win32,20.61770649,Chrome,1536,864,,,,,0,459,,,,,,,,,,,,,,,,,139,D,hexagon,1,0,,,,,,,,,,,,,,,,repeat,letter,lettRpt,j,0.634,noRew,,,,,,0,11,0,11,0,1,,,,,,,,,,,,,,,,,
295108,2022-10-06_17h52.18.735,vts_reward_expectancy,2022.2.4,Win32,20.61770649,Chrome,1536,864,,,,,0,459,,,,,,,,,,,,,,,,,174,B,triangle,1,0,,,,,,,,,,,,,,,,switch,number,numSwt,f,1.081,noRew,,,,,,0,12,0,12,0,1,,,,,,,,,,,,,,,,,
295108,2022-10-06_17h52.18.735,vts_reward_expectancy,2022.2.4,Win32,20.61770649,Chrome,1536,864,,,,,0,459,,,,,,,,,,,,,,,,,181,U,circle,1,0,,,,,,,,,,,,,,,,repeat,number,numRpt,f,0.709,noRew,,,,,,0,13,0,13,0,1,,,,,,,,,,,,,,,,,
295108,2022-10-06_17h52.18.735,vts_reward_expectancy,2022.2.4,Win32,20.61770649,Chrome,1536,864,,,,,0,459,,,,,,,,,,,,,,,,,160,D,hexagon,1,0,,,,,,,,,,,,,,,,repeat,number,numRpt,f,0.7755,noRew,,,,,,0,14,0,14,0,1,,,,,,,,,,,,,,,,,
295108,2022-10-06_17h52.18.735,vts_reward_expectancy,2022.2.4,Win32,20.61770649,Chrome,1536,864,,,,,0,459,,,,,,,,,,,,,,,,,146,H,circle,1,0,,,,,,,,,,,,,,,,repeat,number,numRpt,d,1.4131,noRew,,,,,,0,15,0,15,0,1,,,,,,,,,,,,,,,,,
295108,2022-10-06_17h52.18.735,vts_reward_expectancy,2022.2.4,Win32,20.61770649,Chrome,1536,864,,,,,0,459,,,,,,,,,,,,,,,,,139,Y,circle,1,0,,,,,,,,,,,,,,,,switch,letter,lettSwt,k,0.7867,noRew,,,,,,0,16,0,16,0,1,,,,,,,,,,,,,,,,,
295108,2022-10-06_17h52.18.735,vts_reward_expectancy,2022.2.4,Win32,20.61770649,Chrome,1536,864,,,,,0,459,,,,,,,,,,,,,,,,,167,W,hexagon,1,0,,,,,,,,,,,,,,,,repeat,letter,lettRpt,k,0.6824,noRew,,,,,,0,17,0,17,0,1,,,,,,,,,,,,,,,,,
295108,2022-10-06_17h52.18.735,vts_reward_expectancy,2022.2.4,Win32,20.61770649,Chrome,1536,864,,,,,0,459,,,,,,,,,,,,,,,,,132,D,triangle,1,0,,,,,,,,,,,,,,,,repeat,letter,lettRpt,j,1.0213,noRew,,,,,,0,18,0,18,0,1,,,,,,,,,,,,,,,,,
295108,2022-10-06_17h52.18.735,vts_reward_expectancy,2022.2.4,Win32,20.61770649,Chrome,1536,864,,,,,0,459,,,,,,,,,,,,,,,,,174,B,hexagon,1,0,,,,,,,,,,,,,,,,repeat,letter,lettRpt,j,0.7717,noRew,,,,,,0,19,0,19,0,1,,,,,,,,,,,,,,,,,
295108,2022-10-06_17h52.18.735,vts_reward_expectancy,2022.2.4,Win32,20.61770649,Chrome,1536,864,,,,,0,459,,,,,,,,,,,,,,,,,167,H,star,1,0,,,,,,,,,,,,,,,,switch,number,numSwt,f,0.9625,noRew,,,,,,0,20,0,20,0,1,,,,,,,,,,,,,,,,,
295108,2022-10-06_17h52.18.735,vts_reward_expectancy,2022.2.4,Win32,20.61770649,Chrome,1536,864,,,,,0,459,,,,,,,,,,,,,,,,,174,B,triangle,1,0,,,,,,,,,,,,,,,,repeat,number,numRpt,f,1.0662,noRew,,,,,,0,21,0,21,0,1,,,,,,,,,,,,,,,,,
295108,2022-10-06_17h52.18.735,vts_reward_expectancy,2022.2.4,Win32,20.61770649,Chrome,1536,864,,,,,0,459,,,,,,,,,,,,,,,,,160,W,circle,1,0,,,,,,,,,,,,,,,,repeat,number,numRpt,f,1.016,noRew,,,,,,0,22,0,22,0,1,,,,,,,,,,,,,,,,,
295108,2022-10-06_17h52.18.735,vts_reward_expectancy,2022.2.4,Win32,20.61770649,Chrome,1536,864,,,,,0,459,,,,,,,,,,,,,,,,,132,Y,hexagon,1,0,,,,,,,,,,,,,,,,repeat,number,numRpt,d,0.8683,noRew,,,,,,0,23,0,23,0,1,,,,,,,,,,,,,,,,,
295108,2022-10-06_17h52.18.735,vts_reward_expectancy,2022.2.4,Win32,20.61770649,Chrome,1536,864,,,,,0,459,,,,,,,,,,,,,,,,,167,S,circle,1,0,,,,,,,,,,,,,,,,repeat,number,numRpt,f,1.0675,noRew,,,,,,0,24,0,24,0,1,,,,,,,,,,,,,,,,,
295108,2022-10-06_17h52.18.735,vts_reward_expectancy,2022.2.4,Win32,20.61770649,Chrome,1536,864,,,,,0,459,,,,,,,,,,,,,,,,,146,Y,hexagon,1,0,,,,,,,,,,,,,,,,switch,letter,lettSwt,k,2.0825,noRew,,,,,,0,25,0,25,0,1,,,,,,,,,,,,,,,,,
295108,2022-10-06_17h52.18.735,vts_reward_expectancy,2022.2.4,Win32,20.61770649,Chrome,1536,864,,,,,0,459,,,,,,,,,,,,,,,,,174,H,triangle,1,0,,,,,,,,,,,,,,,,repeat,letter,lettRpt,j,1.0662,noRew,,,,,,0,26,0,26,0,1,,,,,,,,,,,,,,,,,
295108,2022-10-06_17h52.18.735,vts_reward_expectancy,2022.2.4,Win32,20.61770649,Chrome,1536,864,,,,,0,459,,,,,,,,,,,,,,,,,132,U,star,1,0,,,,,,,,,,,,,,,,repeat,letter,lettRpt,k,1.139,noRew,,,,,,0,27,0,27,0,1,,,,,,,,,,,,,,,,,
295108,2022-10-06_17h52.18.735,vts_reward_expectancy,2022.2.4,Win32,20.61770649,Chrome,1536,864,,,,,0,459,,,,,,,,,,,,,,,,,181,F,hexagon,1,0,,,,,,,,,,,,,,,,repeat,letter,lettRpt,j,0.7556,noRew,,,,,,0,28,0,28,0,1,,,,,,,,,,,,,,,,,
295108,2022-10-06_17h52.18.735,vts_reward_expectancy,2022.2.4,Win32,20.61770649,Chrome,1536,864,,,,,0,459,,,,,,,,,,,,,,,,,160,D,triangle,1,0,,,,,,,,,,,,,,,,repeat,letter,lettRpt,j,0.6466,noRew,,,,,,0,29,0,29,0,1,,,,,,,,,,,,,,,,,
295108,2022-10-06_17h52.18.735,vts_reward_expectancy,2022.2.4,Win32,20.61770649,Chrome,1536,864,,,,,0,459,,,,,,,,,,,,,,,,,125,B,triangle,1,0,,,,,,,,,,,,,,,,switch,number,numSwt,d,0.9167,noRew,,,,,,0,30,0,30,0,1,,,,,,,,,,,,,,,,,
295108,2022-10-06_17h52.18.735,vts_reward_expectancy,2022.2.4,Win32,20.61770649,Chrome,1536,864,,,,,0,459,,,,,,,,,,,,,,,,,132,S,hexagon,1,0,,,,,,,,,,,,,,,,repeat,number,numRpt,d,1.4986,noRew,,,,,,0,31,0,31,0,1,,,,,,,,,,,,,,,,,
295108,2022-10-06_17h52.18.735,vts_reward_expectancy,2022.2.4,Win32,20.61770649,Chrome,1536,864,,,,,0,459,,,,,,,,,,,,,,,,,146,H,triangle,1,0,,,,,,,,,,,,,,,,repeat,number,numRpt,d,1.5553,noRew,,,,,,0,32,0,32,0,1,,,,,,,,,,,,,,,,,
295108,2022-10-06_17h52.18.735,vts_reward_expectancy,2022.2.4,Win32,20.61770649,Chrome,1536,864,,,,,0,459,,,,,,,,,,,,,,,,,139,B,hexagon,1,0,,,,,,,,,,,,,,,,repeat,number,numRpt,d,0.7581,noRew,,,,,,0,33,0,33,0,1,,,,,,,,,,,,,,,,,
295108,2022-10-06_17h52.18.735,vts_reward_expectancy,2022.2.4,Win32,20.61770649,Chrome,1536,864,,,,,0,459,,,,,,,,,,,,,,,,,160,F,circle,1,0,,,,,,,,,,,,,,,,switch,letter,lettSwt,j,0.7412,noRew,,,,,,0,34,0,34,0,1,,,,,,,,,,,,,,,,,
295108,2022-10-06_17h52.18.735,vts_reward_expectancy,2022.2.4,Win32,20.61770649,Chrome,1536,864,,,,,0,459,,,,,,,,,,,,,,,,,167,U,star,1,0,,,,,,,,,,,,,,,,repeat,letter,lettRpt,k,1.1461,noRew,,,,,,0,35,0,35,0,1,,,,,,,,,,,,,,,,,
295108,2022-10-06_17h52.18.735,vts_reward_expectancy,2022.2.4,Win32,20.61770649,Chrome,1536,864,,,,,0,459,,,,,,,,,,,,,,,,,181,H,hexagon,1,0,,,,,,,,,,,,,,,,repeat,letter,lettRpt,j,1.3516,noRew,,,,,,0,36,0,36,0,1,,,,,,,,,,,,,,,,,
295108,2022-10-06_17h52.18.735,vts_reward_expectancy,2022.2.4,Win32,20.61770649,Chrome,1536,864,,,,,0,459,,,,,,,,,,,,,,,,,146,W,triangle,1,0,,,,,,,,,,,,,,,,repeat,letter,lettRpt,k,0.6155,noRew,,,,,,0,37,0,37,0,1,,,,,,,,,,,,,,,,,
295108,2022-10-06_17h52.18.735,vts_reward_expectancy,2022.2.4,Win32,20.61770649,Chrome,1536,864,,,,,0,459,,,,,,,,,,,,,,,,,132,U,hexagon,1,0,,,,,,,,,,,,,,,,switch,number,numSwt,d,0.6876,noRew,,,,,,0,38,0,38,0,1,,,,,,,,,,,,,,,,,
295108,2022-10-06_17h52.18.735,vts_reward_expectancy,2022.2.4,Win32,20.61770649,Chrome,1536,864,,,,,0,459,,,,,,,,,,,,,,,,,167,S,triangle,1,0,,,,,,,,,,,,,,,,switch,letter,lettSwt,k,0.9584,noRew,,,,,,0,39,0,39,0,1,,,,,,,,,,,,,,,,,
295108,2022-10-06_17h52.18.735,vts_reward_expectancy,2022.2.4,Win32,20.61770649,Chrome,1536,864,,,,,0,459,,,,,,,,,,,,,,,,,160,D,circle,1,0,,,,,,,,,,,,,,,,repeat,letter,lettRpt,j,0.6961,noRew,,,,,,0,40,0,40,0,1,,,,,,,,,,,,,,,,,
295108,2022-10-06_17h52.18.735,vts_reward_expectancy,2022.2.4,Win32,20.61770649,Chrome,1536,864,,,,,0,459,,,,,,,,,,,,,,,,,132,F,star,1,0,,,,,,,,,,,,,,,,repeat,letter,lettRpt,j,0.6346,noRew,,,,,,0,41,0,41,0,1,,,,,,,,,,,,,,,,,
295108,2022-10-06_17h52.18.735,vts_reward_expectancy,2022.2.4,Win32,20.61770649,Chrome,1536,864,,,,,0,459,,,,,,,,,,,,,,,,,174,B,hexagon,1,0,,,,,,,,,,,,,,,,switch,number,numSwt,f,1.599,noRew,,,,,,0,42,0,42,0,1,,,,,,,,,,,,,,,,,
295108,2022-10-06_17h52.18.735,vts_reward_expectancy,2022.2.4,Win32,20.61770649,Chrome,1536,864,,,,,0,459,,,,,,,,,,,,,,,,,167,H,circle,1,0,,,,,,,,,,,,,,,,repeat,number,numRpt,f,0.7412,noRew,,,,,,0,43,0,43,0,1,,,,,,,,,,,,,,,,,
295108,2022-10-06_17h52.18.735,vts_reward_expectancy,2022.2.4,Win32,20.61770649,Chrome,1536,864,,,,,0,459,,,,,,,,,,,,,,,,,167,S,star,1,0,,,,,,,,,,,,,,,,repeat,number,numRpt,f,0.9749,noRew,,,,,,0,44,0,44,0,1,,,,,,,,,,,,,,,,,
295108,2022-10-06_17h52.18.735,vts_reward_expectancy,2022.2.4,Win32,20.61770649,Chrome,1536,864,,,,,0,459,,,,,,,,,,,,,,,,,125,H,triangle,1,0,,,,,,,,,,,,,,,,repeat,number,numRpt,d,0.6762,noRew,,,,,,0,45,0,45,0,1,,,,,,,,,,,,,,,,,
295108,2022-10-06_17h52.18.735,vts_reward_expectancy,2022.2.4,Win32,20.61770649,Chrome,1536,864,,,,,0,459,,,,,,,,,,,,,,,,,160,Y,circle,1,0,,,,,,,,,,,,,,,,repeat,number,numRpt,f,0.7194,noRew,,,,,,0,46,0,46,0,1,,,,,,,,,,,,,,,,,
295108,2022-10-06_17h52.18.735,vts_reward_expectancy,2022.2.4,Win32,20.61770649,Chrome,1536,864,,,,,0,459,,,,,,,,,,,,,,,,,174,W,star,1,0,,,,,,,,,,,,,,,,switch,letter,lettSwt,k,0.9709,noRew,,,,,,0,47,0,47,0,1,,,,,,,,,,,,,,,,,
295108,2022-10-06_17h52.18.735,vts_reward_expectancy,2022.2.4,Win32,20.61770649,Chrome,1536,864,,,,,0,459,,,,,,,,,,,,,,,,,181,W,hexagon,1,0,,,,,,,,,,,,,,,,switch,number,numSwt,f,0.662,noRew,,,,,,0,48,0,48,0,1,,,,,,,,,,,,,,,,,
295108,2022-10-06_17h52.18.735,vts_reward_expectancy,2022.2.4,Win32,20.61770649,Chrome,1536,864,,,,,0,459,,,,,,,,,,,,,,,,,125,U,circle,1,0,,,,,,,,,,,,,,,,repeat,number,numRpt,d,0.5477,noRew,,,,,,0,49,0,49,0,1,,,,,,,,,,,,,,,,,
295108,2022-10-06_17h52.18.735,vts_reward_expectancy,2022.2.4,Win32,20.61770649,Chrome,1536,864,,,,,0,459,,,,,,,,,,,,,,,,,167,Y,hexagon,1,0,,,,,,,,,,,,,,,,switch,letter,lettSwt,k,0.6584,noRew,,,,,,0,50,0,50,0,1,,,,,,,,,,,,,,,,,
295108,2022-10-06_17h52.18.735,vts_reward_expectancy,2022.2.4,Win32,20.61770649,Chrome,1536,864,,,,,0,459,,,,,,,,,,,,,,,,,174,D,triangle,1,0,,,,,,,,,,,,,,,,repeat,letter,lettRpt,j,0.7343,noRew,,,,,,0,51,0,51,0,1,,,,,,,,,,,,,,,,,
295108,2022-10-06_17h52.18.735,vts_reward_expectancy,2022.2.4,Win32,20.61770649,Chrome,1536,864,,,,,0,459,,,,,,,,,,,,,,,,,132,H,circle,1,0,,,,,,,,,,,,,,,,switch,number,numSwt,d,0.6683,noRew,,,,,,0,52,0,52,0,1,,,,,,,,,,,,,,,,,
295108,2022-10-06_17h52.18.735,vts_reward_expectancy,2022.2.4,Win32,20.61770649,Chrome,1536,864,,,,,0,459,,,,,,,,,,,,,,,,,160,F,star,1,0,,,,,,,,,,,,,,,,repeat,number,numRpt,f,0.8054,noRew,,,,,,0,53,0,53,0,1,,,,,,,,,,,,,,,,,
295108,2022-10-06_17h52.18.735,vts_reward_expectancy,2022.2.4,Win32,20.61770649,Chrome,1536,864,,,,,0,459,,,,,,,,,,,,,,,,,139,S,triangle,1,0,,,,,,,,,,,,,,,,switch,letter,lettSwt,k,1.5916,noRew,,,,,,0,54,0,54,0,1,,,,,,,,,,,,,,,,,
295108,2022-10-06_17h52.18.735,vts_reward_expectancy,2022.2.4,Win32,20.61770649,Chrome,1536,864,,,,,0,459,,,,,,,,,,,,,,,,,181,Y,hexagon,1,0,,,,,,,,,,,,,,,,repeat,letter,lettRpt,k,0.771,noRew,,,,,,0,55,0,55,0,1,,,,,,,,,,,,,,,,,
295108,2022-10-06_17h52.18.735,vts_reward_expectancy,2022.2.4,Win32,20.61770649,Chrome,1536,864,,,,,0,459,,,,,,,,,,,,,,,,,139,H,triangle,1,0,,,,,,,,,,,,,,,,repeat,letter,lettRpt,j,0.8101,noRew,,,,,,0,56,0,56,0,1,,,,,,,,,,,,,,,,,
295108,2022-10-06_17h52.18.735,vts_reward_expectancy,2022.2.4,Win32,20.61770649,Chrome,1536,864,,,,,0,459,,,,,,,,,,,,,,,,,181,B,star,1,0,,,,,,,,,,,,,,,,repeat,letter,lettRpt,j,0.7463,noRew,,,,,,0,57,0,57,0,1,,,,,,,,,,,,,,,,,
295108,2022-10-06_17h52.18.735,vts_reward_expectancy,2022.2.4,Win32,20.61770649,Chrome,1536,864,,,,,0,459,,,,,,,,,,,,,,,,,146,D,star,1,0,,,,,,,,,,,,,,,,repeat,letter,lettRpt,j,0.6218,noRew,,,,,,0,58,0,58,0,1,,,,,,,,,,,,,,,,,
295108,2022-10-06_17h52.18.735,vts_reward_expectancy,2022.2.4,Win32,20.61770649,Chrome,1536,864,,,,,0,459,,,,,,,,,,,,,,,,,125,W,triangle,1,0,,,,,,,,,,,,,,,,repeat,letter,lettRpt,k,1.1903,noRew,,,,,,0,59,0,59,0,1,,,,,,,,,,,,,,,,,
295108,2022-10-06_17h52.18.735,vts_reward_expectancy,2022.2.4,Win32,20.61770649,Chrome,1536,864,,,,,0,459,,,,,,,,,,,,,,,,,167,S,hexagon,1,0,,,,,,,,,,,,,,,,repeat,letter,lettRpt,k,0.9547,noRew,,,,,,0,60,0,60,0,1,,,,,,,,,,,,,,,,,
295108,2022-10-06_17h52.18.735,vts_reward_expectancy,2022.2.4,Win32,20.61770649,Chrome,1536,864,,,,,0,459,,,,,,,,,,,,,,,,,174,B,triangle,1,0,,,,,,,,,,,,,,,,repeat,letter,lettRpt,j,0.9486,noRew,,,,,,0,61,0,61,0,1,,,,,,,,,,,,,,,,,
295108,2022-10-06_17h52.18.735,vts_reward_expectancy,2022.2.4,Win32,20.61770649,Chrome,1536,864,,,,,0,459,,,,,,,,,,,,,,,,,139,W,star,1,0,,,,,,,,,,,,,,,,switch,number,numSwt,d,0.7791,noRew,,,,,,0,62,0,62,0,1,,,,,,,,,,,,,,,,,
295108,2022-10-06_17h52.18.735,vts_reward_expectancy,2022.2.4,Win32,20.61770649,Chrome,1536,864,,,,,0,459,,,,,,,,,,,,,,,,,181,D,triangle,1,0,,,,,,,,,,,,,,,,switch,letter,lettSwt,j,1.6316,noRew,,,,,,0,63,0,63,0,1,,,,,,,,,,,,,,,,,
295108,2022-10-06_17h52.18.735,vts_reward_expectancy,2022.2.4,Win32,20.61770649,Chrome,1536,864,,,,,,,,,,,,,,,,,,,,,,,,,,,,,,,,,,,,,,,,,,,,,,,,,,,,,,,,,,,,,,,,,,,,,,,,,,,,
295108,2022-10-06_17h52.18.735,vts_reward_expectancy,2022.2.4,Win32,20.61770649,Chrome,1536,864,,,,,1,460,,,,,,,,,,,,,,,,,167,U,triangle,1,0,,,,,,,,,,,,,,,,repeat,letter,lettRpt,k,1.9316,Lo,,,,,,0,,,,,,space,3.8298,high,0,0,0,0,1,,,,,,,,,
295108,2022-10-06_17h52.18.735,vts_reward_expectancy,2022.2.4,Win32,20.61770649,Chrome,1536,864,,,,,0,460,,,,,,,,,,,,,,,,,132,D,star,1,0,,,,,,,,,,,,,,,,switch,number,numSwt,d,1.3395,Hi,,,,,,0,,,,,,,,high,1,0,1,0,1,,,,,,,,,
295108,2022-10-06_17h52.18.735,vts_reward_expectancy,2022.2.4,Win32,20.61770649,Chrome,1536,864,,,,,1,461,,,,,,,,,,,,,,,,,125,B,triangle,1,0,,,,,,,,,,,,,,,,repeat,number,numRpt,d,0.7229,Lo,,,,,,0,,,,,,,,high,2,0,2,0,1,,,,,,,,,
295108,2022-10-06_17h52.18.735,vts_reward_expectancy,2022.2.4,Win32,20.61770649,Chrome,1536,864,,,,,1,462,,,,,,,,,,,,,,,,,181,F,star,1,0,,,,,,,,,,,,,,,,repeat,number,numRpt,f,0.5951,Hi,,,,,,0,,,,,,,,high,3,0,3,0,1,,,,,,,,,
295108,2022-10-06_17h52.18.735,vts_reward_expectancy,2022.2.4,Win32,20.61770649,Chrome,1536,864,,,,,1,463,,,,,,,,,,,,,,,,,139,Y,triangle,1,0,,,,,,,,,,,,,,,,switch,letter,lettSwt,k,0.7185,Lo,,,,,,0,,,,,,,,high,4,0,4,0,1,,,,,,,,,
295108,2022-10-06_17h52.18.735,vts_reward_expectancy,2022.2.4,Win32,20.61770649,Chrome,1536,864,,,,,1,464,,,,,,,,,,,,,,,,,174,S,star,1,0,,,,,,,,,,,,,,,,switch,number,numSwt,f,0.6744,Hi,,,,,,0,,,,,,,,high,5,0,5,0,1,,,,,,,,,
295108,2022-10-06_17h52.18.735,vts_reward_expectancy,2022.2.4,Win32,20.61770649,Chrome,1536,864,,,,,0,464,,,,,,,,,,,,,,,,,146,H,star,1,0,,,,,,,,,,,,,,,,repeat,number,numRpt,d,0.8218,Hi,,,,,,0,,,,,,,,high,6,0,6,0,1,,,,,,,,,
295108,2022-10-06_17h52.18.735,vts_reward_expectancy,2022.2.4,Win32,20.61770649,Chrome,1536,864,,,,,10,474,,,,,,,,,,,,,,,,,160,W,triangle,1,0,,,,,,,,,,,,,,,,repeat,number,numRpt,f,0.7777,Lo,,,,,,0,,,,,,,,high,7,0,7,0,1,,,,,,,,,
295108,2022-10-06_17h52.18.735,vts_reward_expectancy,2022.2.4,Win32,20.61770649,Chrome,1536,864,,,,,1,475,,,,,,,,,,,,,,,,,167,U,triangle,1,0,,,,,,,,,,,,,,,,repeat,number,numRpt,f,0.3807,Lo,,,,,,0,,,,,,,,high,8,0,8,0,1,,,,,,,,,
295108,2022-10-06_17h52.18.735,vts_reward_expectancy,2022.2.4,Win32,20.61770649,Chrome,1536,864,,,,,10,485,,,,,,,,,,,,,,,,,132,D,star,1,0,,,,,,,,,,,,,,,,repeat,number,numRpt,d,0.4697,Hi,,,,,,0,,,,,,,,high,9,0,9,0,1,,,,,,,,,
295108,2022-10-06_17h52.18.735,vts_reward_expectancy,2022.2.4,Win32,20.61770649,Chrome,1536,864,,,,,10,495,,,,,,,,,,,,,,,,,125,B,star,1,0,,,,,,,,,,,,,,,,repeat,number,numRpt,d,0.57,Hi,,,,,,0,,,,,,,,high,10,0,10,0,1,,,,,,,,,
295108,2022-10-06_17h52.18.735,vts_reward_expectancy,2022.2.4,Win32,20.61770649,Chrome,1536,864,,,,,1,496,,,,,,,,,,,,,,,,,181,F,triangle,1,0,,,,,,,,,,,,,,,,repeat,number,numRpt,f,0.3935,Lo,,,,,,0,,,,,,,,high,11,0,11,0,1,,,,,,,,,
295108,2022-10-06_17h52.18.735,vts_reward_expectancy,2022.2.4,Win32,20.61770649,Chrome,1536,864,,,,,10,506,,,,,,,,,,,,,,,,,139,Y,star,1,0,,,,,,,,,,,,,,,,repeat,number,numRpt,d,0.4318,Hi,,,,,,0,,,,,,,,high,12,0,12,0,1,,,,,,,,,
295108,2022-10-06_17h52.18.735,vts_reward_expectancy,2022.2.4,Win32,20.61770649,Chrome,1536,864,,,,,1,507,,,,,,,,,,,,,,,,,174,S,triangle,1,0,,,,,,,,,,,,,,,,repeat,number,numRpt,f,0.5833,Lo,,,,,,0,,,,,,,,high,13,0,13,0,1,,,,,,,,,
295108,2022-10-06_17h52.18.735,vts_reward_expectancy,2022.2.4,Win32,20.61770649,Chrome,1536,864,,,,,0,507,,,,,,,,,,,,,,,,,146,H,star,1,0,,,,,,,,,,,,,,,,switch,letter,lettSwt,j,1.276,Hi,,,,,,0,,,,,,,,high,14,0,14,0,1,,,,,,,,,
295108,2022-10-06_17h52.18.735,vts_reward_expectancy,2022.2.4,Win32,20.61770649,Chrome,1536,864,,,,,1,508,,,,,,,,,,,,,,,,,160,W,triangle,1,0,,,,,,,,,,,,,,,,repeat,letter,lettRpt,k,0.5527,Lo,,,,,,0,,,,,,,,high,15,0,15,0,1,,,,,,,,,
295108,2022-10-06_17h52.18.735,vts_reward_expectancy,2022.2.4,Win32,20.61770649,Chrome,1536,864,,,,,0,508,,,,,,,,,,,,,,,,,132,B,triangle,0,0,,,,,,,,,,,,,,,,repeat,letter,NA,k,0.6572,Lo,,,,,,0,,,,,,,,high,16,0,16,0,1,,,,,,,,,
295108,2022-10-06_17h52.18.735,vts_reward_expectancy,2022.2.4,Win32,20.61770649,Chrome,1536,864,,,,,1,509,,,,,,,,,,,,,,,,,125,U,star,1,1,,,,,,,,,,,,,,,,repeat,letter,lettRpt,k,0.7114,Hi,,,,,,0,,,,,,,,high,17,0,17,0,1,,,,,,,,,
295108,2022-10-06_17h52.18.735,vts_reward_expectancy,2022.2.4,Win32,20.61770649,Chrome,1536,864,,,,,10,519,,,,,,,,,,,,,,,,,139,W,star,1,0,,,,,,,,,,,,,,,,switch,number,numSwt,d,0.5104,Hi,,,,,,0,,,,,,,,high,18,0,18,0,1,,,,,,,,,
295108,2022-10-06_17h52.18.735,vts_reward_expectancy,2022.2.4,Win32,20.61770649,Chrome,1536,864,,,,,1,520,,,,,,,,,,,,,,,,,174,Y,triangle,1,0,,,,,,,,,,,,,,,,repeat,number,numRpt,f,0.4646,Lo,,,,,,0,,,,,,,,high,19,0,19,0,1,,,,,,,,,
295108,2022-10-06_17h52.18.735,vts_reward_expectancy,2022.2.4,Win32,20.61770649,Chrome,1536,864,,,,,10,530,,,,,,,,,,,,,,,,,181,H,star,1,0,,,,,,,,,,,,,,,,repeat,number,numRpt,f,0.5024,Hi,,,,,,0,,,,,,,,high,20,0,20,0,1,,,,,,,,,
295108,2022-10-06_17h52.18.735,vts_reward_expectancy,2022.2.4,Win32,20.61770649,Chrome,1536,864,,,,,0,530,,,,,,,,,,,,,,,,,160,F,triangle,0,0,,,,,,,,,,,,,,,,repeat,number,NA,d,0.6375,Hi,,,,,,0,,,,,,,,high,21,0,21,0,1,,,,,,,,,
295108,2022-10-06_17h52.18.735,vts_reward_expectancy,2022.2.4,Win32,20.61770649,Chrome,1536,864,,,,,1,531,,,,,,,,,,,,,,,,,146,S,triangle,1,1,,,,,,,,,,,,,,,,repeat,number,numRpt,d,0.9025,Lo,,,,,,0,,,,,,,,high,22,0,22,0,1,,,,,,,,,
295108,2022-10-06_17h52.18.735,vts_reward_expectancy,2022.2.4,Win32,20.61770649,Chrome,1536,864,,,,,0,531,,,,,,,,,,,,,,,,,167,D,star,0,0,,,,,,,,,,,,,,,,repeat,number,NA,d,0.9974,Lo,,,,,,0,,,,,,,,high,23,0,23,0,1,,,,,,,,,
295108,2022-10-06_17h52.18.735,vts_reward_expectancy,2022.2.4,Win32,20.61770649,Chrome,1536,864,,,,,10,541,,,,,,,,,,,,,,,,,146,U,star,1,1,,,,,,,,,,,,,,,,repeat,number,numRpt,d,0.6738,Hi,,,,,,0,,,,,,,,high,24,0,24,0,1,,,,,,,,,
295108,2022-10-06_17h52.18.735,vts_reward_expectancy,2022.2.4,Win32,20.61770649,Chrome,1536,864,,,,,1,542,,,,,,,,,,,,,,,,,160,B,triangle,1,0,,,,,,,,,,,,,,,,repeat,number,numRpt,f,0.6189,Lo,,,,,,0,,,,,,,,high,25,0,25,0,1,,,,,,,,,
295108,2022-10-06_17h52.18.735,vts_reward_expectancy,2022.2.4,Win32,20.61770649,Chrome,1536,864,,,,,10,552,,,,,,,,,,,,,,,,,167,D,triangle,1,0,,,,,,,,,,,,,,,,repeat,number,numRpt,f,0.5537,Lo,,,,,,0,,,,,,,,high,26,0,26,0,1,,,,,,,,,
295108,2022-10-06_17h52.18.735,vts_reward_expectancy,2022.2.4,Win32,20.61770649,Chrome,1536,864,,,,,0,552,,,,,,,,,,,,,,,,,174,Y,star,1,0,,,,,,,,,,,,,,,,repeat,number,numRpt,f,0.9347,Hi,,,,,,0,,,,,,,,high,27,0,27,0,1,,,,,,,,,
295108,2022-10-06_17h52.18.735,vts_reward_expectancy,2022.2.4,Win32,20.61770649,Chrome,1536,864,,,,,10,562,,,,,,,,,,,,,,,,,125,F,star,1,0,,,,,,,,,,,,,,,,repeat,number,numRpt,d,0.5706,Hi,,,,,,0,,,,,,,,high,28,0,28,0,1,,,,,,,,,
295108,2022-10-06_17h52.18.735,vts_reward_expectancy,2022.2.4,Win32,20.61770649,Chrome,1536,864,,,,,1,563,,,,,,,,,,,,,,,,,132,W,triangle,1,0,,,,,,,,,,,,,,,,repeat,number,numRpt,d,0.3893,Lo,,,,,,0,,,,,,,,high,29,0,29,0,1,,,,,,,,,
295108,2022-10-06_17h52.18.735,vts_reward_expectancy,2022.2.4,Win32,20.61770649,Chrome,1536,864,,,,,1,564,,,,,,,,,,,,,,,,,139,S,triangle,1,0,,,,,,,,,,,,,,,,repeat,number,numRpt,d,0.5638,Lo,,,,,,0,,,,,,,,high,30,0,30,0,1,,,,,,,,,
295108,2022-10-06_17h52.18.735,vts_reward_expectancy,2022.2.4,Win32,20.61770649,Chrome,1536,864,,,,,10,574,,,,,,,,,,,,,,,,,181,H,star,1,0,,,,,,,,,,,,,,,,repeat,number,numRpt,f,0.5901,Hi,,,,,,0,,,,,,,,high,31,0,31,0,1,,,,,,,,,
295108,2022-10-06_17h52.18.735,vts_reward_expectancy,2022.2.4,Win32,20.61770649,Chrome,1536,864,,,,,0,574,,,,,,,,,,,,,,,,,132,D,star,1,0,,,,,,,,,,,,,,,,repeat,number,numRpt,d,0.7475,Hi,,,,,,1,,,,,,space,1.1763,high,0,0,0,0,1,,,,,,,,,
295108,2022-10-06_17h52.18.735,vts_reward_expectancy,2022.2.4,Win32,20.61770649,Chrome,1536,864,,,,,1,575,,,,,,,,,,,,,,,,,146,U,triangle,1,0,,,,,,,,,,,,,,,,repeat,number,numRpt,d,0.937,Lo,,,,,,1,,,,,,,,high,1,0,1,0,1,,,,,,,,,
295108,2022-10-06_17h52.18.735,vts_reward_expectancy,2022.2.4,Win32,20.61770649,Chrome,1536,864,,,,,0,575,,,,,,,,,,,,,,,,,125,B,star,1,0,,,,,,,,,,,,,,,,repeat,number,numRpt,d,0.5881,Hi,,,,,,1,,,,,,,,high,2,0,2,0,1,,,,,,,,,
295108,2022-10-06_17h52.18.735,vts_reward_expectancy,2022.2.4,Win32,20.61770649,Chrome,1536,864,,,,,10,585,,,,,,,,,,,,,,,,,139,Y,triangle,1,0,,,,,,,,,,,,,,,,repeat,number,numRpt,d,0.5612,Lo,,,,,,1,,,,,,,,high,3,0,3,0,1,,,,,,,,,
295108,2022-10-06_17h52.18.735,vts_reward_expectancy,2022.2.4,Win32,20.61770649,Chrome,1536,864,,,,,10,595,,,,,,,,,,,,,,,,,167,S,star,1,0,,,,,,,,,,,,,,,,repeat,number,numRpt,f,0.4062,Hi,,,,,,1,,,,,,,,high,4,0,4,0,1,,,,,,,,,
295108,2022-10-06_17h52.18.735,vts_reward_expectancy,2022.2.4,Win32,20.61770649,Chrome,1536,864,,,,,1,596,,,,,,,,,,,,,,,,,160,F,triangle,1,0,,,,,,,,,,,,,,,,repeat,number,numRpt,f,0.5492,Lo,,,,,,1,,,,,,,,high,5,0,5,0,1,,,,,,,,,
295108,2022-10-06_17h52.18.735,vts_reward_expectancy,2022.2.4,Win32,20.61770649,Chrome,1536,864,,,,,0,596,,,,,,,,,,,,,,,,,181,W,star,0,0,,,,,,,,,,,,,,,,repeat,number,NA,d,0.4032,Lo,,,,,,1,,,,,,,,high,6,0,6,0,1,,,,,,,,,
295108,2022-10-06_17h52.18.735,vts_reward_expectancy,2022.2.4,Win32,20.61770649,Chrome,1536,864,,,,,1,597,,,,,,,,,,,,,,,,,174,H,triangle,1,1,,,,,,,,,,,,,,,,repeat,number,numRpt,f,0.508,Lo,,,,,,1,,,,,,,,high,7,0,7,0,1,,,,,,,,,
295108,2022-10-06_17h52.18.735,vts_reward_expectancy,2022.2.4,Win32,20.61770649,Chrome,1536,864,,,,,10,607,,,,,,,,,,,,,,,,,132,D,triangle,1,0,,,,,,,,,,,,,,,,repeat,number,numRpt,d,0.4097,Lo,,,,,,1,,,,,,,,high,8,0,8,0,1,,,,,,,,,
295108,2022-10-06_17h52.18.735,vts_reward_expectancy,2022.2.4,Win32,20.61770649,Chrome,1536,864,,,,,0,607,,,,,,,,,,,,,,,,,146,U,star,1,0,,,,,,,,,,,,,,,,repeat,number,numRpt,d,0.6002,Hi,,,,,,1,,,,,,,,high,9,0,9,0,1,,,,,,,,,
295108,2022-10-06_17h52.18.735,vts_reward_expectancy,2022.2.4,Win32,20.61770649,Chrome,1536,864,,,,,1,608,,,,,,,,,,,,,,,,,125,B,triangle,1,0,,,,,,,,,,,,,,,,repeat,number,numRpt,d,0.512,Lo,,,,,,1,,,,,,,,high,10,0,10,0,1,,,,,,,,,
295108,2022-10-06_17h52.18.735,vts_reward_expectancy,2022.2.4,Win32,20.61770649,Chrome,1536,864,,,,,10,618,,,,,,,,,,,,,,,,,139,Y,star,1,0,,,,,,,,,,,,,,,,repeat,number,numRpt,d,0.5188,Hi,,,,,,1,,,,,,,,high,11,0,11,0,1,,,,,,,,,
295108,2022-10-06_17h52.18.735,vts_reward_expectancy,2022.2.4,Win32,20.61770649,Chrome,1536,864,,,,,1,619,,,,,,,,,,,,,,,,,167,S,triangle,1,0,,,,,,,,,,,,,,,,repeat,number,numRpt,f,0.9323,Lo,,,,,,1,,,,,,,,high,12,0,12,0,1,,,,,,,,,
295108,2022-10-06_17h52.18.735,vts_reward_expectancy,2022.2.4,Win32,20.61770649,Chrome,1536,864,,,,,10,629,,,,,,,,,,,,,,,,,160,F,star,1,0,,,,,,,,,,,,,,,,repeat,number,numRpt,f,0.525,Hi,,,,,,1,,,,,,,,high,13,0,13,0,1,,,,,,,,,
295108,2022-10-06_17h52.18.735,vts_reward_expectancy,2022.2.4,Win32,20.61770649,Chrome,1536,864,,,,,1,630,,,,,,,,,,,,,,,,,181,W,star,1,0,,,,,,,,,,,,,,,,repeat,number,numRpt,f,0.5153,Hi,,,,,,1,,,,,,,,high,14,0,14,0,1,,,,,,,,,
295108,2022-10-06_17h52.18.735,vts_reward_expectancy,2022.2.4,Win32,20.61770649,Chrome,1536,864,,,,,1,631,,,,,,,,,,,,,,,,,174,H,triangle,1,0,,,,,,,,,,,,,,,,repeat,number,numRpt,f,0.4528,Lo,,,,,,1,,,,,,,,high,15,0,15,0,1,,,,,,,,,
295108,2022-10-06_17h52.18.735,vts_reward_expectancy,2022.2.4,Win32,20.61770649,Chrome,1536,864,,,,,0,631,,,,,,,,,,,,,,,,,132,S,star,1,0,,,,,,,,,,,,,,,,repeat,number,numRpt,d,0.6266,Hi,,,,,,1,,,,,,,,high,16,0,16,0,1,,,,,,,,,
295108,2022-10-06_17h52.18.735,vts_reward_expectancy,2022.2.4,Win32,20.61770649,Chrome,1536,864,,,,,1,632,,,,,,,,,,,,,,,,,167,F,triangle,1,0,,,,,,,,,,,,,,,,repeat,number,numRpt,f,0.5081,Lo,,,,,,1,,,,,,,,high,17,0,17,0,1,,,,,,,,,
295108,2022-10-06_17h52.18.735,vts_reward_expectancy,2022.2.4,Win32,20.61770649,Chrome,1536,864,,,,,10,642,,,,,,,,,,,,,,,,,146,Y,triangle,1,0,,,,,,,,,,,,,,,,repeat,number,numRpt,d,0.7612,Lo,,,,,,1,,,,,,,,high,18,0,18,0,1,,,,,,,,,
295108,2022-10-06_17h52.18.735,vts_reward_expectancy,2022.2.4,Win32,20.61770649,Chrome,1536,864,,,,,0,642,,,,,,,,,,,,,,,,,139,D,star,1,0,,,,,,,,,,,,,,,,repeat,number,numRpt,d,0.6255,Hi,,,,,,1,,,,,,,,high,19,0,19,0,1,,,,,,,,,
295108,2022-10-06_17h52.18.735,vts_reward_expectancy,2022.2.4,Win32,20.61770649,Chrome,1536,864,,,,,1,643,,,,,,,,,,,,,,,,,160,H,triangle,1,0,,,,,,,,,,,,,,,,repeat,number,numRpt,f,0.5688,Lo,,,,,,1,,,,,,,,high,20,0,20,0,1,,,,,,,,,
295108,2022-10-06_17h52.18.735,vts_reward_expectancy,2022.2.4,Win32,20.61770649,Chrome,1536,864,,,,,10,653,,,,,,,,,,,,,,,,,181,U,star,1,0,,,,,,,,,,,,,,,,repeat,number,numRpt,f,0.474,Hi,,,,,,1,,,,,,,,high,21,0,21,0,1,,,,,,,,,
295108,2022-10-06_17h52.18.735,vts_reward_expectancy,2022.2.4,Win32,20.61770649,Chrome,1536,864,,,,,1,654,,,,,,,,,,,,,,,,,125,B,star,1,0,,,,,,,,,,,,,,,,repeat,number,numRpt,d,0.5149,Hi,,,,,,1,,,,,,,,high,22,0,22,0,1,,,,,,,,,
295108,2022-10-06_17h52.18.735,vts_reward_expectancy,2022.2.4,Win32,20.61770649,Chrome,1536,864,,,,,10,664,,,,,,,,,,,,,,,,,174,W,triangle,1,0,,,,,,,,,,,,,,,,repeat,number,numRpt,f,0.5715,Lo,,,,,,1,,,,,,,,high,23,0,23,0,1,,,,,,,,,
295108,2022-10-06_17h52.18.735,vts_reward_expectancy,2022.2.4,Win32,20.61770649,Chrome,1536,864,,,,,0,664,,,,,,,,,,,,,,,,,146,H,star,1,0,,,,,,,,,,,,,,,,repeat,number,numRpt,d,0.5698,Hi,,,,,,1,,,,,,,,high,24,0,24,0,1,,,,,,,,,
295108,2022-10-06_17h52.18.735,vts_reward_expectancy,2022.2.4,Win32,20.61770649,Chrome,1536,864,,,,,1,665,,,,,,,,,,,,,,,,,160,Y,triangle,1,0,,,,,,,,,,,,,,,,repeat,number,numRpt,f,0.4268,Lo,,,,,,1,,,,,,,,high,25,0,25,0,1,,,,,,,,,
295108,2022-10-06_17h52.18.735,vts_reward_expectancy,2022.2.4,Win32,20.61770649,Chrome,1536,864,,,,,1,666,,,,,,,,,,,,,,,,,125,S,triangle,1,0,,,,,,,,,,,,,,,,repeat,number,numRpt,d,0.8453,Lo,,,,,,1,,,,,,,,high,26,0,26,0,1,,,,,,,,,
295108,2022-10-06_17h52.18.735,vts_reward_expectancy,2022.2.4,Win32,20.61770649,Chrome,1536,864,,,,,1,667,,,,,,,,,,,,,,,,,181,U,star,1,0,,,,,,,,,,,,,,,,repeat,number,numRpt,f,0.4151,Hi,,,,,,1,,,,,,,,high,27,0,27,0,1,,,,,,,,,
295108,2022-10-06_17h52.18.735,vts_reward_expectancy,2022.2.4,Win32,20.61770649,Chrome,1536,864,,,,,1,668,,,,,,,,,,,,,,,,,132,F,triangle,1,0,,,,,,,,,,,,,,,,repeat,number,numRpt,d,0.4653,Lo,,,,,,1,,,,,,,,high,28,0,28,0,1,,,,,,,,,
295108,2022-10-06_17h52.18.735,vts_reward_expectancy,2022.2.4,Win32,20.61770649,Chrome,1536,864,,,,,10,678,,,,,,,,,,,,,,,,,139,B,star,1,0,,,,,,,,,,,,,,,,repeat,number,numRpt,d,0.5066,Hi,,,,,,1,,,,,,,,high,29,0,29,0,1,,,,,,,,,
295108,2022-10-06_17h52.18.735,vts_reward_expectancy,2022.2.4,Win32,20.61770649,Chrome,1536,864,,,,,1,679,,,,,,,,,,,,,,,,,167,D,star,1,0,,,,,,,,,,,,,,,,repeat,number,numRpt,f,0.4555,Hi,,,,,,1,,,,,,,,high,30,0,30,0,1,,,,,,,,,
295108,2022-10-06_17h52.18.735,vts_reward_expectancy,2022.2.4,Win32,20.61770649,Chrome,1536,864,,,,,0,679,,,,,,,,,,,,,,,,,174,W,triangle,0,0,,,,,,,,,,,,,,,,repeat,number,NA,d,0.4895,Hi,,,,,,1,,,,,,,,high,31,0,31,0,1,,,,,,,,,
295108,2022-10-06_17h52.18.735,vts_reward_expectancy,2022.2.4,Win32,20.61770649,Chrome,1536,864,,,,,1,680,,,,,,,,,,,,,,,,,132,H,circle,1,1,,,,,,,,,,,,,,,,repeat,number,numRpt,d,0.814,Lo,,,,,,2,,,,,,space,4.3813,low,0,0,0,0,1,,,,,,,,,
295108,2022-10-06_17h52.18.735,vts_reward_expectancy,2022.2.4,Win32,20.61770649,Chrome,1536,864,,,,,10,690,,,,,,,,,,,,,,,,,146,U,hexagon,1,0,,,,,,,,,,,,,,,,switch,letter,lettSwt,k,0.6554,Hi,,,,,,2,,,,,,,,low,1,0,1,0,1,,,,,,,,,
295108,2022-10-06_17h52.18.735,vts_reward_expectancy,2022.2.4,Win32,20.61770649,Chrome,1536,864,,,,,1,691,,,,,,,,,,,,,,,,,181,S,circle,1,0,,,,,,,,,,,,,,,,repeat,letter,lettRpt,k,0.6729,Lo,,,,,,2,,,,,,,,low,2,0,2,0,1,,,,,,,,,
295108,2022-10-06_17h52.18.735,vts_reward_expectancy,2022.2.4,Win32,20.61770649,Chrome,1536,864,,,,,10,701,,,,,,,,,,,,,,,,,139,W,hexagon,1,0,,,,,,,,,,,,,,,,repeat,letter,lettRpt,k,0.5827,Hi,,,,,,2,,,,,,,,low,3,0,3,0,1,,,,,,,,,
295108,2022-10-06_17h52.18.735,vts_reward_expectancy,2022.2.4,Win32,20.61770649,Chrome,1536,864,,,,,10,711,,,,,,,,,,,,,,,,,160,B,circle,1,0,,,,,,,,,,,,,,,,repeat,letter,lettRpt,j,0.5254,Lo,,,,,,2,,,,,,,,low,4,0,4,0,1,,,,,,,,,
295108,2022-10-06_17h52.18.735,vts_reward_expectancy,2022.2.4,Win32,20.61770649,Chrome,1536,864,,,,,10,721,,,,,,,,,,,,,,,,,167,Y,hexagon,1,0,,,,,,,,,,,,,,,,repeat,letter,lettRpt,k,0.6026,Hi,,,,,,2,,,,,,,,low,5,0,5,0,1,,,,,,,,,
295108,2022-10-06_17h52.18.735,vts_reward_expectancy,2022.2.4,Win32,20.61770649,Chrome,1536,864,,,,,1,722,,,,,,,,,,,,,,,,,125,D,circle,1,0,,,,,,,,,,,,,,,,repeat,letter,lettRpt,j,0.5879,Lo,,,,,,2,,,,,,,,low,6,0,6,0,1,,,,,,,,,
295108,2022-10-06_17h52.18.735,vts_reward_expectancy,2022.2.4,Win32,20.61770649,Chrome,1536,864,,,,,0,722,,,,,,,,,,,,,,,,,174,F,hexagon,0,0,,,,,,,,,,,,,,,,repeat,letter,NA,k,0.6248,Lo,,,,,,2,,,,,,,,low,7,0,7,0,1,,,,,,,,,
295108,2022-10-06_17h52.18.735,vts_reward_expectancy,2022.2.4,Win32,20.61770649,Chrome,1536,864,,,,,1,723,,,,,,,,,,,,,,,,,132,H,circle,1,1,,,,,,,,,,,,,,,,repeat,letter,lettRpt,j,0.7041,Lo,,,,,,2,,,,,,,,low,8,0,8,0,1,,,,,,,,,
295108,2022-10-06_17h52.18.735,vts_reward_expectancy,2022.2.4,Win32,20.61770649,Chrome,1536,864,,,,,10,733,,,,,,,,,,,,,,,,,146,U,hexagon,1,0,,,,,,,,,,,,,,,,repeat,letter,lettRpt,k,1.2368,Hi,,,,,,2,,,,,,,,low,9,0,9,0,1,,,,,,,,,
295108,2022-10-06_17h52.18.735,vts_reward_expectancy,2022.2.4,Win32,20.61770649,Chrome,1536,864,,,,,10,743,,,,,,,,,,,,,,,,,181,S,hexagon,1,0,,,,,,,,,,,,,,,,repeat,letter,lettRpt,k,0.5826,Hi,,,,,,2,,,,,,,,low,10,0,10,0,1,,,,,,,,,
295108,2022-10-06_17h52.18.735,vts_reward_expectancy,2022.2.4,Win32,20.61770649,Chrome,1536,864,,,,,10,753,,,,,,,,,,,,,,,,,139,W,circle,1,0,,,,,,,,,,,,,,,,repeat,letter,lettRpt,k,0.4938,Lo,,,,,,2,,,,,,,,low,11,0,11,0,1,,,,,,,,,
295108,2022-10-06_17h52.18.735,vts_reward_expectancy,2022.2.4,Win32,20.61770649,Chrome,1536,864,,,,,1,754,,,,,,,,,,,,,,,,,160,B,circle,1,0,,,,,,,,,,,,,,,,repeat,letter,lettRpt,j,0.5,Lo,,,,,,2,,,,,,,,low,12,0,12,0,1,,,,,,,,,
295108,2022-10-06_17h52.18.735,vts_reward_expectancy,2022.2.4,Win32,20.61770649,Chrome,1536,864,,,,,0,754,,,,,,,,,,,,,,,,,167,Y,hexagon,0,0,,,,,,,,,,,,,,,,repeat,letter,NA,j,0.5918,Lo,,,,,,2,,,,,,,,low,13,0,13,0,1,,,,,,,,,
295108,2022-10-06_17h52.18.735,vts_reward_expectancy,2022.2.4,Win32,20.61770649,Chrome,1536,864,,,,,1,755,,,,,,,,,,,,,,,,,125,D,hexagon,1,1,,,,,,,,,,,,,,,,repeat,letter,lettRpt,j,0.6486,Hi,,,,,,2,,,,,,,,low,14,0,14,0,1,,,,,,,,,
295108,2022-10-06_17h52.18.735,vts_reward_expectancy,2022.2.4,Win32,20.61770649,Chrome,1536,864,,,,,10,765,,,,,,,,,,,,,,,,,174,F,circle,1,0,,,,,,,,,,,,,,,,repeat,letter,lettRpt,j,0.7056,Lo,,,,,,2,,,,,,,,low,15,0,15,0,1,,,,,,,,,
295108,2022-10-06_17h52.18.735,vts_reward_expectancy,2022.2.4,Win32,20.61770649,Chrome,1536,864,,,,,10,775,,,,,,,,,,,,,,,,,132,W,hexagon,1,0,,,,,,,,,,,,,,,,repeat,letter,lettRpt,k,0.531,Hi,,,,,,2,,,,,,,,low,16,0,16,0,1,,,,,,,,,
295108,2022-10-06_17h52.18.735,vts_reward_expectancy,2022.2.4,Win32,20.61770649,Chrome,1536,864,,,,,10,785,,,,,,,,,,,,,,,,,181,F,circle,1,0,,,,,,,,,,,,,,,,repeat,letter,lettRpt,j,0.6791,Lo,,,,,,2,,,,,,,,low,17,0,17,0,1,,,,,,,,,
295108,2022-10-06_17h52.18.735,vts_reward_expectancy,2022.2.4,Win32,20.61770649,Chrome,1536,864,,,,,0,785,,,,,,,,,,,,,,,,,174,B,hexagon,0,0,,,,,,,,,,,,,,,,repeat,letter,NA,k,0.464,Lo,,,,,,2,,,,,,,,low,18,0,18,0,1,,,,,,,,,
295108,2022-10-06_17h52.18.735,vts_reward_expectancy,2022.2.4,Win32,20.61770649,Chrome,1536,864,,,,,1,786,,,,,,,,,,,,,,,,,139,U,circle,1,1,,,,,,,,,,,,,,,,repeat,letter,lettRpt,k,0.6872,Lo,,,,,,2,,,,,,,,low,19,0,19,0,1,,,,,,,,,
295108,2022-10-06_17h52.18.735,vts_reward_expectancy,2022.2.4,Win32,20.61770649,Chrome,1536,864,,,,,1,787,,,,,,,,,,,,,,,,,125,H,circle,1,0,,,,,,,,,,,,,,,,repeat,letter,lettRpt,j,0.7011,Lo,,,,,,2,,,,,,,,low,20,0,20,0,1,,,,,,,,,
295108,2022-10-06_17h52.18.735,vts_reward_expectancy,2022.2.4,Win32,20.61770649,Chrome,1536,864,,,,,10,797,,,,,,,,,,,,,,,,,146,Y,hexagon,1,0,,,,,,,,,,,,,,,,repeat,letter,lettRpt,k,0.799,Hi,,,,,,2,,,,,,,,low,21,0,21,0,1,,,,,,,,,
295108,2022-10-06_17h52.18.735,vts_reward_expectancy,2022.2.4,Win32,20.61770649,Chrome,1536,864,,,,,0,797,,,,,,,,,,,,,,,,,160,S,hexagon,0,0,,,,,,,,,,,,,,,,repeat,letter,NA,j,0.5915,Hi,,,,,,2,,,,,,,,low,22,0,22,0,1,,,,,,,,,
295108,2022-10-06_17h52.18.735,vts_reward_expectancy,2022.2.4,Win32,20.61770649,Chrome,1536,864,,,,,1,798,,,,,,,,,,,,,,,,,167,D,circle,1,1,,,,,,,,,,,,,,,,repeat,letter,lettRpt,j,0.9238,Lo,,,,,,2,,,,,,,,low,23,0,23,0,1,,,,,,,,,
295108,2022-10-06_17h52.18.735,vts_reward_expectancy,2022.2.4,Win32,20.61770649,Chrome,1536,864,,,,,10,808,,,,,,,,,,,,,,,,,139,Y,circle,1,0,,,,,,,,,,,,,,,,repeat,letter,lettRpt,k,0.4494,Lo,,,,,,2,,,,,,,,low,24,0,24,0,1,,,,,,,,,
295108,2022-10-06_17h52.18.735,vts_reward_expectancy,2022.2.4,Win32,20.61770649,Chrome,1536,864,,,,,10,818,,,,,,,,,,,,,,,,,132,D,hexagon,1,0,,,,,,,,,,,,,,,,repeat,letter,lettRpt,j,0.8877,Hi,,,,,,2,,,,,,,,low,25,0,25,0,1,,,,,,,,,
295108,2022-10-06_17h52.18.735,vts_reward_expectancy,2022.2.4,Win32,20.61770649,Chrome,1536,864,,,,,10,828,,,,,,,,,,,,,,,,,146,W,hexagon,1,0,,,,,,,,,,,,,,,,repeat,letter,lettRpt,k,0.5434,Hi,,,,,,2,,,,,,,,low,26,0,26,0,1,,,,,,,,,
295108,2022-10-06_17h52.18.735,vts_reward_expectancy,2022.2.4,Win32,20.61770649,Chrome,1536,864,,,,,10,838,,,,,,,,,,,,,,,,,167,S,circle,1,0,,,,,,,,,,,,,,,,repeat,letter,lettRpt,k,0.8189,Lo,,,,,,2,,,,,,,,low,27,0,27,0,1,,,,,,,,,
295108,2022-10-06_17h52.18.735,vts_reward_expectancy,2022.2.4,Win32,20.61770649,Chrome,1536,864,,,,,1,839,,,,,,,,,,,,,,,,,181,U,circle,1,0,,,,,,,,,,,,,,,,repeat,letter,lettRpt,k,1.3064,Lo,,,,,,2,,,,,,,,low,28,0,28,0,1,,,,,,,,,
295108,2022-10-06_17h52.18.735,vts_reward_expectancy,2022.2.4,Win32,20.61770649,Chrome,1536,864,,,,,1,840,,,,,,,,,,,,,,,,,174,F,hexagon,1,0,,,,,,,,,,,,,,,,repeat,letter,lettRpt,j,0.7932,Hi,,,,,,2,,,,,,,,low,29,0,29,0,1,,,,,,,,,
295108,2022-10-06_17h52.18.735,vts_reward_expectancy,2022.2.4,Win32,20.61770649,Chrome,1536,864,,,,,10,850,,,,,,,,,,,,,,,,,160,B,circle,1,0,,,,,,,,,,,,,,,,repeat,letter,lettRpt,j,0.7785,Lo,,,,,,2,,,,,,,,low,30,0,30,0,1,,,,,,,,,
295108,2022-10-06_17h52.18.735,vts_reward_expectancy,2022.2.4,Win32,20.61770649,Chrome,1536,864,,,,,0,850,,,,,,,,,,,,,,,,,125,H,hexagon,0,0,,,,,,,,,,,,,,,,repeat,letter,NA,k,0.6979,Lo,,,,,,2,,,,,,,,low,31,0,31,0,1,,,,,,,,,
295108,2022-10-06_17h52.18.735,vts_reward_expectancy,2022.2.4,Win32,20.61770649,Chrome,1536,864,,,,,0,850,,,,,,,,,,,,,,,,,139,H,hexagon,1,1,,,,,,,,,,,,,,,,repeat,letter,lettRpt,j,0.9563,Hi,,,,,,3,,,,,,space,1.3193,low,0,0,0,0,1,,,,,,,,,
295108,2022-10-06_17h52.18.735,vts_reward_expectancy,2022.2.4,Win32,20.61770649,Chrome,1536,864,,,,,10,860,,,,,,,,,,,,,,,,,167,F,circle,1,0,,,,,,,,,,,,,,,,repeat,letter,lettRpt,j,0.6481,Lo,,,,,,3,,,,,,,,low,1,0,1,0,1,,,,,,,,,
295108,2022-10-06_17h52.18.735,vts_reward_expectancy,2022.2.4,Win32,20.61770649,Chrome,1536,864,,,,,0,860,,,,,,,,,,,,,,,,,132,U,hexagon,1,0,,,,,,,,,,,,,,,,repeat,letter,lettRpt,k,0.8231,Hi,,,,,,3,,,,,,,,low,2,0,2,0,1,,,,,,,,,
295108,2022-10-06_17h52.18.735,vts_reward_expectancy,2022.2.4,Win32,20.61770649,Chrome,1536,864,,,,,1,861,,,,,,,,,,,,,,,,,181,Y,circle,1,0,,,,,,,,,,,,,,,,repeat,letter,lettRpt,k,0.6739,Lo,,,,,,3,,,,,,,,low,3,0,3,0,1,,,,,,,,,
295108,2022-10-06_17h52.18.735,vts_reward_expectancy,2022.2.4,Win32,20.61770649,Chrome,1536,864,,,,,10,871,,,,,,,,,,,,,,,,,146,D,hexagon,1,0,,,,,,,,,,,,,,,,repeat,letter,lettRpt,j,0.5109,Hi,,,,,,3,,,,,,,,low,4,0,4,0,1,,,,,,,,,
295108,2022-10-06_17h52.18.735,vts_reward_expectancy,2022.2.4,Win32,20.61770649,Chrome,1536,864,,,,,1,872,,,,,,,,,,,,,,,,,160,W,circle,1,0,,,,,,,,,,,,,,,,repeat,letter,lettRpt,k,0.5272,Lo,,,,,,3,,,,,,,,low,5,0,5,0,1,,,,,,,,,
295108,2022-10-06_17h52.18.735,vts_reward_expectancy,2022.2.4,Win32,20.61770649,Chrome,1536,864,,,,,1,873,,,,,,,,,,,,,,,,,174,B,hexagon,1,0,,,,,,,,,,,,,,,,repeat,letter,lettRpt,j,0.493,Hi,,,,,,3,,,,,,,,low,6,0,6,0,1,,,,,,,,,
295108,2022-10-06_17h52.18.735,vts_reward_expectancy,2022.2.4,Win32,20.61770649,Chrome,1536,864,,,,,0,873,,,,,,,,,,,,,,,,,125,S,circle,0,0,,,,,,,,,,,,,,,,repeat,letter,NA,j,0.6223,Hi,,,,,,3,,,,,,,,low,7,0,7,0,1,,,,,,,,,
295108,2022-10-06_17h52.18.735,vts_reward_expectancy,2022.2.4,Win32,20.61770649,Chrome,1536,864,,,,,1,874,,,,,,,,,,,,,,,,,139,H,circle,1,1,,,,,,,,,,,,,,,,repeat,letter,lettRpt,j,0.6677,Lo,,,,,,3,,,,,,,,low,8,0,8,0,1,,,,,,,,,
295108,2022-10-06_17h52.18.735,vts_reward_expectancy,2022.2.4,Win32,20.61770649,Chrome,1536,864,,,,,0,874,,,,,,,,,,,,,,,,,167,F,hexagon,1,0,,,,,,,,,,,,,,,,repeat,letter,lettRpt,j,0.745,Hi,,,,,,3,,,,,,,,low,9,0,9,0,1,,,,,,,,,
295108,2022-10-06_17h52.18.735,vts_reward_expectancy,2022.2.4,Win32,20.61770649,Chrome,1536,864,,,,,10,884,,,,,,,,,,,,,,,,,132,U,circle,1,0,,,,,,,,,,,,,,,,repeat,letter,lettRpt,k,0.8439,Lo,,,,,,3,,,,,,,,low,10,0,10,0,1,,,,,,,,,
295108,2022-10-06_17h52.18.735,vts_reward_expectancy,2022.2.4,Win32,20.61770649,Chrome,1536,864,,,,,1,885,,,,,,,,,,,,,,,,,181,Y,hexagon,1,0,,,,,,,,,,,,,,,,repeat,letter,lettRpt,k,0.5497,Hi,,,,,,3,,,,,,,,low,11,0,11,0,1,,,,,,,,,
295108,2022-10-06_17h52.18.735,vts_reward_expectancy,2022.2.4,Win32,20.61770649,Chrome,1536,864,,,,,0,885,,,,,,,,,,,,,,,,,146,D,hexagon,1,0,,,,,,,,,,,,,,,,repeat,letter,lettRpt,j,1.02,Hi,,,,,,3,,,,,,,,low,12,0,12,0,1,,,,,,,,,
295108,2022-10-06_17h52.18.735,vts_reward_expectancy,2022.2.4,Win32,20.61770649,Chrome,1536,864,,,,,10,895,,,,,,,,,,,,,,,,,160,W,circle,1,0,,,,,,,,,,,,,,,,repeat,letter,lettRpt,k,0.9476,Lo,,,,,,3,,,,,,,,low,13,0,13,0,1,,,,,,,,,
295108,2022-10-06_17h52.18.735,vts_reward_expectancy,2022.2.4,Win32,20.61770649,Chrome,1536,864,,,,,0,895,,,,,,,,,,,,,,,,,174,B,hexagon,1,0,,,,,,,,,,,,,,,,repeat,letter,lettRpt,j,0.5924,Hi,,,,,,3,,,,,,,,low,14,0,14,0,1,,,,,,,,,
295108,2022-10-06_17h52.18.735,vts_reward_expectancy,2022.2.4,Win32,20.61770649,Chrome,1536,864,,,,,1,896,,,,,,,,,,,,,,,,,125,S,circle,1,0,,,,,,,,,,,,,,,,repeat,letter,lettRpt,k,1.371,Lo,,,,,,3,,,,,,,,low,15,0,15,0,1,,,,,,,,,
295108,2022-10-06_17h52.18.735,vts_reward_expectancy,2022.2.4,Win32,20.61770649,Chrome,1536,864,,,,,1,897,,,,,,,,,,,,,,,,,174,U,circle,1,0,,,,,,,,,,,,,,,,repeat,letter,lettRpt,k,0.7621,Lo,,,,,,3,,,,,,,,low,16,0,16,0,1,,,,,,,,,
295108,2022-10-06_17h52.18.735,vts_reward_expectancy,2022.2.4,Win32,20.61770649,Chrome,1536,864,,,,,10,907,,,,,,,,,,,,,,,,,132,B,hexagon,1,0,,,,,,,,,,,,,,,,repeat,letter,lettRpt,j,0.5341,Hi,,,,,,3,,,,,,,,low,17,0,17,0,1,,,,,,,,,
295108,2022-10-06_17h52.18.735,vts_reward_expectancy,2022.2.4,Win32,20.61770649,Chrome,1536,864,,,,,1,908,,,,,,,,,,,,,,,,,139,H,circle,1,0,,,,,,,,,,,,,,,,repeat,letter,lettRpt,j,0.6139,Lo,,,,,,3,,,,,,,,low,18,0,18,0,1,,,,,,,,,
295108,2022-10-06_17h52.18.735,vts_reward_expectancy,2022.2.4,Win32,20.61770649,Chrome,1536,864,,,,,10,918,,,,,,,,,,,,,,,,,125,W,hexagon,1,0,,,,,,,,,,,,,,,,repeat,letter,lettRpt,k,0.489,Hi,,,,,,3,,,,,,,,low,19,0,19,0,1,,,,,,,,,
295108,2022-10-06_17h52.18.735,vts_reward_expectancy,2022.2.4,Win32,20.61770649,Chrome,1536,864,,,,,0,918,,,,,,,,,,,,,,,,,160,Y,hexagon,1,0,,,,,,,,,,,,,,,,repeat,letter,lettRpt,k,0.7044,Hi,,,,,,3,,,,,,,,low,20,0,20,0,1,,,,,,,,,
295108,2022-10-06_17h52.18.735,vts_reward_expectancy,2022.2.4,Win32,20.61770649,Chrome,1536,864,,,,,1,919,,,,,,,,,,,,,,,,,181,F,circle,1,0,,,,,,,,,,,,,,,,repeat,letter,lettRpt,j,0.4689,Lo,,,,,,3,,,,,,,,low,21,0,21,0,1,,,,,,,,,
295108,2022-10-06_17h52.18.735,vts_reward_expectancy,2022.2.4,Win32,20.61770649,Chrome,1536,864,,,,,0,919,,,,,,,,,,,,,,,,,146,S,hexagon,1,0,,,,,,,,,,,,,,,,repeat,letter,lettRpt,k,0.6228,Hi,,,,,,3,,,,,,,,low,22,0,22,0,1,,,,,,,,,
295108,2022-10-06_17h52.18.735,vts_reward_expectancy,2022.2.4,Win32,20.61770649,Chrome,1536,864,,,,,1,920,,,,,,,,,,,,,,,,,167,D,circle,1,0,,,,,,,,,,,,,,,,repeat,letter,lettRpt,j,0.6103,Lo,,,,,,3,,,,,,,,low,23,0,23,0,1,,,,,,,,,
295108,2022-10-06_17h52.18.735,vts_reward_expectancy,2022.2.4,Win32,20.61770649,Chrome,1536,864,,,,,0,920,,,,,,,,,,,,,,,,,160,S,hexagon,1,0,,,,,,,,,,,,,,,,repeat,letter,lettRpt,k,0.6393,Hi,,,,,,3,,,,,,,,low,24,0,24,0,1,,,,,,,,,
295108,2022-10-06_17h52.18.735,vts_reward_expectancy,2022.2.4,Win32,20.61770649,Chrome,1536,864,,,,,1,921,,,,,,,,,,,,,,,,,132,B,circle,1,0,,,,,,,,,,,,,,,,repeat,letter,lettRpt,j,0.5295,Lo,,,,,,3,,,,,,,,low,25,0,25,0,1,,,,,,,,,
295108,2022-10-06_17h52.18.735,vts_reward_expectancy,2022.2.4,Win32,20.61770649,Chrome,1536,864,,,,,1,922,,,,,,,,,,,,,,,,,125,W,circle,1,0,,,,,,,,,,,,,,,,repeat,letter,lettRpt,k,0.4484,Lo,,,,,,3,,,,,,,,low,26,0,26,0,1,,,,,,,,,
295108,2022-10-06_17h52.18.735,vts_reward_expectancy,2022.2.4,Win32,20.61770649,Chrome,1536,864,,,,,0,922,,,,,,,,,,,,,,,,,146,D,hexagon,0,0,,,,,,,,,,,,,,,,repeat,letter,NA,k,0.4351,Lo,,,,,,3,,,,,,,,low,27,0,27,0,1,,,,,,,,,
295108,2022-10-06_17h52.18.735,vts_reward_expectancy,2022.2.4,Win32,20.61770649,Chrome,1536,864,,,,,0,922,,,,,,,,,,,,,,,,,139,U,hexagon,1,1,,,,,,,,,,,,,,,,repeat,letter,lettRpt,k,0.6545,Hi,,,,,,3,,,,,,,,low,28,0,28,0,1,,,,,,,,,
295108,2022-10-06_17h52.18.735,vts_reward_expectancy,2022.2.4,Win32,20.61770649,Chrome,1536,864,,,,,1,923,,,,,,,,,,,,,,,,,167,Y,circle,1,0,,,,,,,,,,,,,,,,repeat,letter,lettRpt,k,0.8488,Lo,,,,,,3,,,,,,,,low,29,0,29,0,1,,,,,,,,,
295108,2022-10-06_17h52.18.735,vts_reward_expectancy,2022.2.4,Win32,20.61770649,Chrome,1536,864,,,,,0,923,,,,,,,,,,,,,,,,,174,H,hexagon,1,0,,,,,,,,,,,,,,,,repeat,letter,lettRpt,j,0.8128,Hi,,,,,,3,,,,,,,,low,30,0,30,0,1,,,,,,,,,
295108,2022-10-06_17h52.18.735,vts_reward_expectancy,2022.2.4,Win32,20.61770649,Chrome,1536,864,,,,,1,924,,,,,,,,,,,,,,,,,181,F,circle,1,0,,,,,,,,,,,,,,,,repeat,letter,lettRpt,j,0.5678,Lo,,,,,,3,,,,,,,,low,31,0,31,0,1,,,,,,,,,
295108,2022-10-06_17h52.18.735,vts_reward_expectancy,2022.2.4,Win32,20.61770649,Chrome,1536,864,,,,,10,934,,,,,,,,,,,,,,,,,174,U,circle,1,0,,,,,,,,,,,,,,,,repeat,letter,lettRpt,k,0.8906,Lo,,,,,,4,,,,,,space,1.1322,low,0,0,0,0,1,,,,,,,,,
295108,2022-10-06_17h52.18.735,vts_reward_expectancy,2022.2.4,Win32,20.61770649,Chrome,1536,864,,,,,0,934,,,,,,,,,,,,,,,,,167,H,hexagon,1,0,,,,,,,,,,,,,,,,repeat,letter,lettRpt,j,0.8959,Hi,,,,,,4,,,,,,,,low,1,0,1,0,1,,,,,,,,,
295108,2022-10-06_17h52.18.735,vts_reward_expectancy,2022.2.4,Win32,20.61770649,Chrome,1536,864,,,,,1,935,,,,,,,,,,,,,,,,,160,F,circle,1,0,,,,,,,,,,,,,,,,repeat,letter,lettRpt,j,0.6492,Lo,,,,,,4,,,,,,,,low,2,0,2,0,1,,,,,,,,,
295108,2022-10-06_17h52.18.735,vts_reward_expectancy,2022.2.4,Win32,20.61770649,Chrome,1536,864,,,,,10,945,,,,,,,,,,,,,,,,,146,D,hexagon,1,0,,,,,,,,,,,,,,,,repeat,letter,lettRpt,j,0.5752,Hi,,,,,,4,,,,,,,,low,3,0,3,0,1,,,,,,,,,
295108,2022-10-06_17h52.18.735,vts_reward_expectancy,2022.2.4,Win32,20.61770649,Chrome,1536,864,,,,,0,945,,,,,,,,,,,,,,,,,181,B,hexagon,1,0,,,,,,,,,,,,,,,,repeat,letter,lettRpt,j,0.854,Hi,,,,,,4,,,,,,,,low,4,0,4,0,1,,,,,,,,,
295108,2022-10-06_17h52.18.735,vts_reward_expectancy,2022.2.4,Win32,20.61770649,Chrome,1536,864,,,,,10,955,,,,,,,,,,,,,,,,,132,S,circle,1,0,,,,,,,,,,,,,,,,repeat,letter,lettRpt,k,0.5627,Lo,,,,,,4,,,,,,,,low,5,0,5,0,1,,,,,,,,,
295108,2022-10-06_17h52.18.735,vts_reward_expectancy,2022.2.4,Win32,20.61770649,Chrome,1536,864,,,,,1,956,,,,,,,,,,,,,,,,,139,Y,circle,1,0,,,,,,,,,,,,,,,,repeat,letter,lettRpt,k,0.6867,Lo,,,,,,4,,,,,,,,low,6,0,6,0,1,,,,,,,,,
295108,2022-10-06_17h52.18.735,vts_reward_expectancy,2022.2.4,Win32,20.61770649,Chrome,1536,864,,,,,0,956,,,,,,,,,,,,,,,,,125,W,hexagon,1,0,,,,,,,,,,,,,,,,repeat,letter,lettRpt,k,0.5854,Hi,,,,,,4,,,,,,,,low,7,0,7,0,1,,,,,,,,,
295108,2022-10-06_17h52.18.735,vts_reward_expectancy,2022.2.4,Win32,20.61770649,Chrome,1536,864,,,,,1,957,,,,,,,,,,,,,,,,,174,U,circle,1,0,,,,,,,,,,,,,,,,repeat,letter,lettRpt,k,0.8638,Lo,,,,,,4,,,,,,,,low,8,0,8,0,1,,,,,,,,,
295108,2022-10-06_17h52.18.735,vts_reward_expectancy,2022.2.4,Win32,20.61770649,Chrome,1536,864,,,,,0,957,,,,,,,,,,,,,,,,,167,H,hexagon,1,0,,,,,,,,,,,,,,,,repeat,letter,lettRpt,j,0.718,Hi,,,,,,4,,,,,,,,low,9,0,9,0,1,,,,,,,,,
295108,2022-10-06_17h52.18.735,vts_reward_expectancy,2022.2.4,Win32,20.61770649,Chrome,1536,864,,,,,10,967,,,,,,,,,,,,,,,,,160,F,circle,1,0,,,,,,,,,,,,,,,,repeat,letter,lettRpt,j,0.6556,Lo,,,,,,4,,,,,,,,low,10,0,10,0,1,,,,,,,,,
295108,2022-10-06_17h52.18.735,vts_reward_expectancy,2022.2.4,Win32,20.61770649,Chrome,1536,864,,,,,0,967,,,,,,,,,,,,,,,,,146,D,hexagon,1,0,,,,,,,,,,,,,,,,repeat,letter,lettRpt,j,0.6106,Hi,,,,,,4,,,,,,,,low,11,0,11,0,1,,,,,,,,,
295108,2022-10-06_17h52.18.735,vts_reward_expectancy,2022.2.4,Win32,20.61770649,Chrome,1536,864,,,,,1,968,,,,,,,,,,,,,,,,,181,B,circle,1,0,,,,,,,,,,,,,,,,repeat,letter,lettRpt,j,0.7372,Lo,,,,,,4,,,,,,,,low,12,0,12,0,1,,,,,,,,,
295108,2022-10-06_17h52.18.735,vts_reward_expectancy,2022.2.4,Win32,20.61770649,Chrome,1536,864,,,,,0,968,,,,,,,,,,,,,,,,,132,S,hexagon,1,0,,,,,,,,,,,,,,,,repeat,letter,lettRpt,k,1.2984,Hi,,,,,,4,,,,,,,,low,13,0,13,0,1,,,,,,,,,
295108,2022-10-06_17h52.18.735,vts_reward_expectancy,2022.2.4,Win32,20.61770649,Chrome,1536,864,,,,,10,978,,,,,,,,,,,,,,,,,139,Y,hexagon,1,0,,,,,,,,,,,,,,,,repeat,letter,lettRpt,k,0.5696,Hi,,,,,,4,,,,,,,,low,14,0,14,0,1,,,,,,,,,
295108,2022-10-06_17h52.18.735,vts_reward_expectancy,2022.2.4,Win32,20.61770649,Chrome,1536,864,,,,,1,979,,,,,,,,,,,,,,,,,125,W,circle,1,0,,,,,,,,,,,,,,,,repeat,letter,lettRpt,k,0.4381,Lo,,,,,,4,,,,,,,,low,15,0,15,0,1,,,,,,,,,
295108,2022-10-06_17h52.18.735,vts_reward_expectancy,2022.2.4,Win32,20.61770649,Chrome,1536,864,,,,,10,989,,,,,,,,,,,,,,,,,139,W,circle,1,0,,,,,,,,,,,,,,,,repeat,letter,lettRpt,k,1.1756,Lo,,,,,,4,,,,,,,,low,16,0,16,0,1,,,,,,,,,
295108,2022-10-06_17h52.18.735,vts_reward_expectancy,2022.2.4,Win32,20.61770649,Chrome,1536,864,,,,,0,989,,,,,,,,,,,,,,,,,146,U,hexagon,1,0,,,,,,,,,,,,,,,,repeat,letter,lettRpt,k,0.6217,Hi,,,,,,4,,,,,,,,low,17,0,17,0,1,,,,,,,,,
295108,2022-10-06_17h52.18.735,vts_reward_expectancy,2022.2.4,Win32,20.61770649,Chrome,1536,864,,,,,10,999,,,,,,,,,,,,,,,,,174,S,circle,1,0,,,,,,,,,,,,,,,,repeat,letter,lettRpt,k,0.7339,Lo,,,,,,4,,,,,,,,low,18,0,18,0,1,,,,,,,,,
295108,2022-10-06_17h52.18.735,vts_reward_expectancy,2022.2.4,Win32,20.61770649,Chrome,1536,864,,,,,10,1009,,,,,,,,,,,,,,,,,160,F,hexagon,1,0,,,,,,,,,,,,,,,,switch,number,numSwt,f,0.9665,Hi,,,,,,4,,,,,,,,low,19,0,19,0,1,,,,,,,,,
295108,2022-10-06_17h52.18.735,vts_reward_expectancy,2022.2.4,Win32,20.61770649,Chrome,1536,864,,,,,10,1019,,,,,,,,,,,,,,,,,181,Y,hexagon,1,0,,,,,,,,,,,,,,,,switch,letter,lettSwt,k,0.9677,Hi,,,,,,4,,,,,,,,low,20,0,20,0,1,,,,,,,,,
295108,2022-10-06_17h52.18.735,vts_reward_expectancy,2022.2.4,Win32,20.61770649,Chrome,1536,864,,,,,0,1019,,,,,,,,,,,,,,,,,167,H,circle,0,0,,,,,,,,,,,,,,,,repeat,letter,NA,k,1.2276,Hi,,,,,,4,,,,,,,,low,21,0,21,0,1,,,,,,,,,
295108,2022-10-06_17h52.18.735,vts_reward_expectancy,2022.2.4,Win32,20.61770649,Chrome,1536,864,,,,,1,1020,,,,,,,,,,,,,,,,,125,D,hexagon,1,1,,,,,,,,,,,,,,,,switch,number,numSwt,d,0.7427,Hi,,,,,,4,,,,,,,,low,22,0,22,0,1,,,,,,,,,
295108,2022-10-06_17h52.18.735,vts_reward_expectancy,2022.2.4,Win32,20.61770649,Chrome,1536,864,,,,,10,1030,,,,,,,,,,,,,,,,,132,B,circle,1,0,,,,,,,,,,,,,,,,switch,letter,lettSwt,j,0.6867,Lo,,,,,,4,,,,,,,,low,23,0,23,0,1,,,,,,,,,
295108,2022-10-06_17h52.18.735,vts_reward_expectancy,2022.2.4,Win32,20.61770649,Chrome,1536,864,,,,,10,1040,,,,,,,,,,,,,,,,,125,H,hexagon,1,0,,,,,,,,,,,,,,,,switch,number,numSwt,d,0.9091,Hi,,,,,,4,,,,,,,,low,24,0,24,0,1,,,,,,,,,
295108,2022-10-06_17h52.18.735,vts_reward_expectancy,2022.2.4,Win32,20.61770649,Chrome,1536,864,,,,,0,1040,,,,,,,,,,,,,,,,,174,W,circle,0,0,,,,,,,,,,,,,,,,repeat,number,NA,d,1.0572,Hi,,,,,,4,,,,,,,,low,25,0,25,0,1,,,,,,,,,
295108,2022-10-06_17h52.18.735,vts_reward_expectancy,2022.2.4,Win32,20.61770649,Chrome,1536,864,,,,,1,1041,,,,,,,,,,,,,,,,,146,B,hexagon,1,1,,,,,,,,,,,,,,,,switch,letter,lettSwt,j,0.8328,Hi,,,,,,4,,,,,,,,low,26,0,26,0,1,,,,,,,,,
295108,2022-10-06_17h52.18.735,vts_reward_expectancy,2022.2.4,Win32,20.61770649,Chrome,1536,864,,,,,1,1042,,,,,,,,,,,,,,,,,132,S,circle,1,0,,,,,,,,,,,,,,,,repeat,letter,lettRpt,k,0.703,Lo,,,,,,4,,,,,,,,low,27,0,27,0,1,,,,,,,,,
295108,2022-10-06_17h52.18.735,vts_reward_expectancy,2022.2.4,Win32,20.61770649,Chrome,1536,864,,,,,0,1042,,,,,,,,,,,,,,,,,167,Y,circle,0,0,,,,,,,,,,,,,,,,repeat,letter,NA,j,0.65,Lo,,,,,,4,,,,,,,,low,28,0,28,0,1,,,,,,,,,
295108,2022-10-06_17h52.18.735,vts_reward_expectancy,2022.2.4,Win32,20.61770649,Chrome,1536,864,,,,,1,1043,,,,,,,,,,,,,,,,,139,U,hexagon,1,1,,,,,,,,,,,,,,,,repeat,letter,lettRpt,k,0.5557,Hi,,,,,,4,,,,,,,,low,29,0,29,0,1,,,,,,,,,
295108,2022-10-06_17h52.18.735,vts_reward_expectancy,2022.2.4,Win32,20.61770649,Chrome,1536,864,,,,,0,1043,,,,,,,,,,,,,,,,,160,F,hexagon,0,0,,,,,,,,,,,,,,,,repeat,letter,NA,k,0.5372,Hi,,,,,,4,,,,,,,,low,30,0,30,0,1,,,,,,,,,
295108,2022-10-06_17h52.18.735,vts_reward_expectancy,2022.2.4,Win32,20.61770649,Chrome,1536,864,,,,,1,1044,,,,,,,,,,,,,,,,,181,D,circle,1,1,,,,,,,,,,,,,,,,repeat,letter,lettRpt,j,0.7356,Lo,,,,,,4,,,,,,,,low,31,0,31,0,1,,,,,,,,,
295108,2022-10-06_17h52.18.735,vts_reward_expectancy,2022.2.4,Win32,20.61770649,Chrome,1536,864,,,,,0,1044,,,,,,,,,,,,,,,,,160,B,triangle,0,0,,,,,,,,,,,,,,,,switch,number,NA,d,0.6266,Lo,,,,,,5,,,,,,space,16.7891,high,0,0,0,0,1,,,,,,,,,
295108,2022-10-06_17h52.18.735,vts_reward_expectancy,2022.2.4,Win32,20.61770649,Chrome,1536,864,,,,,10,1054,,,,,,,,,,,,,,,,,174,U,star,1,1,,,,,,,,,,,,,,,,switch,letter,lettSwt,k,0.3919,Hi,,,,,,5,,,,,,,,high,1,0,1,0,1,,,,,,,,,
295108,2022-10-06_17h52.18.735,vts_reward_expectancy,2022.2.4,Win32,20.61770649,Chrome,1536,864,,,,,10,1064,,,,,,,,,,,,,,,,,125,D,triangle,1,0,,,,,,,,,,,,,,,,switch,number,numSwt,d,0.3695,Lo,,,,,,5,,,,,,,,high,2,0,2,0,1,,,,,,,,,
295108,2022-10-06_17h52.18.735,vts_reward_expectancy,2022.2.4,Win32,20.61770649,Chrome,1536,864,,,,,10,1074,,,,,,,,,,,,,,,,,146,F,star,1,0,,,,,,,,,,,,,,,,switch,letter,lettSwt,j,0.3854,Hi,,,,,,5,,,,,,,,high,3,0,3,0,1,,,,,,,,,
295108,2022-10-06_17h52.18.735,vts_reward_expectancy,2022.2.4,Win32,20.61770649,Chrome,1536,864,,,,,10,1084,,,,,,,,,,,,,,,,,181,Y,star,1,0,,,,,,,,,,,,,,,,repeat,letter,lettRpt,k,0.4275,Hi,,,,,,5,,,,,,,,high,4,0,4,0,1,,,,,,,,,
295108,2022-10-06_17h52.18.735,vts_reward_expectancy,2022.2.4,Win32,20.61770649,Chrome,1536,864,,,,,1,1085,,,,,,,,,,,,,,,,,132,W,triangle,1,0,,,,,,,,,,,,,,,,switch,number,numSwt,d,0.3828,Lo,,,,,,5,,,,,,,,high,5,0,5,0,1,,,,,,,,,
295108,2022-10-06_17h52.18.735,vts_reward_expectancy,2022.2.4,Win32,20.61770649,Chrome,1536,864,,,,,10,1095,,,,,,,,,,,,,,,,,139,S,star,1,0,,,,,,,,,,,,,,,,switch,letter,lettSwt,k,0.549,Hi,,,,,,5,,,,,,,,high,6,0,6,0,1,,,,,,,,,
295108,2022-10-06_17h52.18.735,vts_reward_expectancy,2022.2.4,Win32,20.61770649,Chrome,1536,864,,,,,0,1095,,,,,,,,,,,,,,,,,167,H,triangle,0,0,,,,,,,,,,,,,,,,switch,number,NA,d,0.4289,Hi,,,,,,5,,,,,,,,high,7,0,7,0,1,,,,,,,,,
295108,2022-10-06_17h52.18.735,vts_reward_expectancy,2022.2.4,Win32,20.61770649,Chrome,1536,864,,,,,10,1105,,,,,,,,,,,,,,,,,160,B,star,1,1,,,,,,,,,,,,,,,,switch,letter,lettSwt,j,0.5069,Hi,,,,,,5,,,,,,,,high,8,0,8,0,1,,,,,,,,,
295108,2022-10-06_17h52.18.735,vts_reward_expectancy,2022.2.4,Win32,20.61770649,Chrome,1536,864,,,,,1,1106,,,,,,,,,,,,,,,,,174,U,triangle,1,0,,,,,,,,,,,,,,,,switch,number,numSwt,f,0.3922,Lo,,,,,,5,,,,,,,,high,9,0,9,0,1,,,,,,,,,
295108,2022-10-06_17h52.18.735,vts_reward_expectancy,2022.2.4,Win32,20.61770649,Chrome,1536,864,,,,,1,1107,,,,,,,,,,,,,,,,,125,D,triangle,1,0,,,,,,,,,,,,,,,,repeat,number,numRpt,d,0.5481,Lo,,,,,,5,,,,,,,,high,10,0,10,0,1,,,,,,,,,
295108,2022-10-06_17h52.18.735,vts_reward_expectancy,2022.2.4,Win32,20.61770649,Chrome,1536,864,,,,,10,1117,,,,,,,,,,,,,,,,,146,F,star,1,0,,,,,,,,,,,,,,,,switch,letter,lettSwt,j,0.4184,Hi,,,,,,5,,,,,,,,high,11,0,11,0,1,,,,,,,,,
295108,2022-10-06_17h52.18.735,vts_reward_expectancy,2022.2.4,Win32,20.61770649,Chrome,1536,864,,,,,1,1118,,,,,,,,,,,,,,,,,181,Y,triangle,1,0,,,,,,,,,,,,,,,,repeat,letter,lettRpt,k,0.4318,Lo,,,,,,5,,,,,,,,high,12,0,12,0,1,,,,,,,,,
295108,2022-10-06_17h52.18.735,vts_reward_expectancy,2022.2.4,Win32,20.61770649,Chrome,1536,864,,,,,10,1128,,,,,,,,,,,,,,,,,132,W,star,1,0,,,,,,,,,,,,,,,,repeat,letter,lettRpt,k,0.5556,Hi,,,,,,5,,,,,,,,high,13,0,13,0,1,,,,,,,,,
295108,2022-10-06_17h52.18.735,vts_reward_expectancy,2022.2.4,Win32,20.61770649,Chrome,1536,864,,,,,0,1128,,,,,,,,,,,,,,,,,139,S,star,1,0,,,,,,,,,,,,,,,,repeat,letter,lettRpt,k,0.6958,Hi,,,,,,5,,,,,,,,high,14,0,14,0,1,,,,,,,,,
295108,2022-10-06_17h52.18.735,vts_reward_expectancy,2022.2.4,Win32,20.61770649,Chrome,1536,864,,,,,0,1128,,,,,,,,,,,,,,,,,167,H,triangle,0,0,,,,,,,,,,,,,,,,switch,number,NA,d,0.4314,Hi,,,,,,5,,,,,,,,high,15,0,15,0,1,,,,,,,,,
295108,2022-10-06_17h52.18.735,vts_reward_expectancy,2022.2.4,Win32,20.61770649,Chrome,1536,864,,,,,0,1128,,,,,,,,,,,,,,,,,139,S,star,0,1,,,,,,,,,,,,,,,,switch,letter,NA,j,0.4733,Hi,,,,,,5,,,,,,,,high,16,0,16,0,1,,,,,,,,,
295108,2022-10-06_17h52.18.735,vts_reward_expectancy,2022.2.4,Win32,20.61770649,Chrome,1536,864,,,,,1,1129,,,,,,,,,,,,,,,,,160,H,triangle,1,1,,,,,,,,,,,,,,,,switch,number,numSwt,f,0.4163,Lo,,,,,,5,,,,,,,,high,17,0,17,0,1,,,,,,,,,
295108,2022-10-06_17h52.18.735,vts_reward_expectancy,2022.2.4,Win32,20.61770649,Chrome,1536,864,,,,,10,1139,,,,,,,,,,,,,,,,,132,Y,triangle,1,0,,,,,,,,,,,,,,,,repeat,number,numRpt,d,0.5205,Lo,,,,,,5,,,,,,,,high,18,0,18,0,1,,,,,,,,,
295108,2022-10-06_17h52.18.735,vts_reward_expectancy,2022.2.4,Win32,20.61770649,Chrome,1536,864,,,,,0,1139,,,,,,,,,,,,,,,,,174,D,star,0,0,,,,,,,,,,,,,,,,switch,letter,NA,k,0.6496,Lo,,,,,,5,,,,,,,,high,19,0,19,0,1,,,,,,,,,
295108,2022-10-06_17h52.18.735,vts_reward_expectancy,2022.2.4,Win32,20.61770649,Chrome,1536,864,,,,,1,1140,,,,,,,,,,,,,,,,,181,F,triangle,1,1,,,,,,,,,,,,,,,,switch,number,numSwt,f,0.4152,Lo,,,,,,5,,,,,,,,high,20,0,20,0,1,,,,,,,,,
295108,2022-10-06_17h52.18.735,vts_reward_expectancy,2022.2.4,Win32,20.61770649,Chrome,1536,864,,,,,0,1140,,,,,,,,,,,,,,,,,146,W,star,0,0,,,,,,,,,,,,,,,,switch,letter,NA,j,0.3635,Lo,,,,,,5,,,,,,,,high,21,0,21,0,1,,,,,,,,,
295108,2022-10-06_17h52.18.735,vts_reward_expectancy,2022.2.4,Win32,20.61770649,Chrome,1536,864,,,,,10,1150,,,,,,,,,,,,,,,,,167,U,triangle,1,1,,,,,,,,,,,,,,,,repeat,letter,lettRpt,k,0.5043,Lo,,,,,,5,,,,,,,,high,22,0,22,0,1,,,,,,,,,
295108,2022-10-06_17h52.18.735,vts_reward_expectancy,2022.2.4,Win32,20.61770649,Chrome,1536,864,,,,,0,1150,,,,,,,,,,,,,,,,,125,B,star,1,0,,,,,,,,,,,,,,,,repeat,letter,lettRpt,j,0.7583,Hi,,,,,,5,,,,,,,,high,23,0,23,0,1,,,,,,,,,
295108,2022-10-06_17h52.18.735,vts_reward_expectancy,2022.2.4,Win32,20.61770649,Chrome,1536,864,,,,,0,1150,,,,,,,,,,,,,,,,,181,B,star,0,0,,,,,,,,,,,,,,,,repeat,letter,NA,k,0.7086,Hi,,,,,,5,,,,,,,,high,24,0,24,0,1,,,,,,,,,
295108,2022-10-06_17h52.18.735,vts_reward_expectancy,2022.2.4,Win32,20.61770649,Chrome,1536,864,,,,,1,1151,,,,,,,,,,,,,,,,,132,S,triangle,1,1,,,,,,,,,,,,,,,,switch,number,numSwt,d,0.6033,Lo,,,,,,5,,,,,,,,high,25,0,25,0,1,,,,,,,,,
295108,2022-10-06_17h52.18.735,vts_reward_expectancy,2022.2.4,Win32,20.61770649,Chrome,1536,864,,,,,10,1161,,,,,,,,,,,,,,,,,139,U,star,1,0,,,,,,,,,,,,,,,,switch,letter,lettSwt,k,0.4746,Hi,,,,,,5,,,,,,,,high,26,0,26,0,1,,,,,,,,,
295108,2022-10-06_17h52.18.735,vts_reward_expectancy,2022.2.4,Win32,20.61770649,Chrome,1536,864,,,,,1,1162,,,,,,,,,,,,,,,,,125,Y,triangle,1,0,,,,,,,,,,,,,,,,switch,number,numSwt,d,0.465,Lo,,,,,,5,,,,,,,,high,27,0,27,0,1,,,,,,,,,
295108,2022-10-06_17h52.18.735,vts_reward_expectancy,2022.2.4,Win32,20.61770649,Chrome,1536,864,,,,,0,1162,,,,,,,,,,,,,,,,,167,H,triangle,0,0,,,,,,,,,,,,,,,,switch,letter,NA,k,0.5302,Lo,,,,,,5,,,,,,,,high,28,0,28,0,1,,,,,,,,,
295108,2022-10-06_17h52.18.735,vts_reward_expectancy,2022.2.4,Win32,20.61770649,Chrome,1536,864,,,,,1,1163,,,,,,,,,,,,,,,,,146,W,star,1,1,,,,,,,,,,,,,,,,repeat,letter,lettRpt,k,0.4046,Hi,,,,,,5,,,,,,,,high,29,0,29,0,1,,,,,,,,,
295108,2022-10-06_17h52.18.735,vts_reward_expectancy,2022.2.4,Win32,20.61770649,Chrome,1536,864,,,,,1,1164,,,,,,,,,,,,,,,,,160,D,star,1,0,,,,,,,,,,,,,,,,repeat,letter,lettRpt,j,0.4343,Hi,,,,,,5,,,,,,,,high,30,0,30,0,1,,,,,,,,,
295108,2022-10-06_17h52.18.735,vts_reward_expectancy,2022.2.4,Win32,20.61770649,Chrome,1536,864,,,,,10,1174,,,,,,,,,,,,,,,,,174,F,triangle,1,0,,,,,,,,,,,,,,,,repeat,letter,lettRpt,j,0.4767,Lo,,,,,,5,,,,,,,,high,31,0,31,0,1,,,,,,,,,
295108,2022-10-06_17h52.18.735,vts_reward_expectancy,2022.2.4,Win32,20.61770649,Chrome,1536,864,,,,,,,,,,,,,,,,,,,,,,,,,,,,,,,,,,,,,,,,,,,,,,,,,,,,,,6,,,,,,,,,,,,,,select between numbers and shapes and try to get as many points as possible,1,,3,3,,2,1536,864
