participant,date,expName,psychopyVersion,OS,frameRate,browser,xResolution,yResolution,key_resp.keys,key_resp.rt,training_resp.keys,training_resp.rt,points_trial,points_cumul,trainBlock,training.thisRepN,training.thisTrialN,training.thisN,training.thisIndex,training.ran,LTriangleOpac,LCircleOpac,LHexagonOpac,LStarOpac,RTriangleOpac,RCircleOpac,RHexagonOpac,RStarOpac,LShape_ID,RShape_ID,curr_topStim,curr_bottStim,curr_shape,acc,E1,target_resp_prac1.keys,pracBlock,task1_prac_trials.thisRepN,task1_prac_trials.thisTrialN,task1_prac_trials.thisN,task1_prac_trials.thisIndex,task1_prac_trials.ran,target_resp_prac1.rt,target_resp_prac2.keys,target_resp_prac2.rt,task2_praac_trials.thisRepN,task2_praac_trials.thisTrialN,task2_praac_trials.thisN,task2_praac_trials.thisIndex,task2_praac_trials.ran,alt,task,condition,target_resp.keys,rewCond,vts_practice_trials.thisRepN,vts_practice_trials.thisTrialN,vts_practice_trials.thisN,vts_practice_trials.thisIndex,vts_practice_trials.ran,target_resp.rt,blockNum,trials_norew.thisRepN,trials_norew.thisTrialN,trials_norew.thisN,trials_norew.thisIndex,trials_norew.ran,key_resp_2.keys,key_resp_2.rt,rewExpect,trials_rew.thisRepN,trials_rew.thisTrialN,trials_rew.thisN,trials_rew.thisIndex,trials_rew.ran,Q1,Q2,Q2_text,Q3,Q4,Q5_text,Q5,xRes,yRes
292369,2022-10-05_09h05.22.298,vts_reward_expectancy,2022.2.4,Win32,60.0060006,Chrome,1536,864,,,,,,,,,,,,,,,,,,,,,,,,,,,,,,,,,,,,,,,,,,,,,,,,,,,,,,,,,,,,,,,,,,,,,,,,,,,,
292369,2022-10-05_09h05.22.298,vts_reward_expectancy,2022.2.4,Win32,60.0060006,Chrome,1536,864,space,23.785,,,,,,,,,,,,,,,,,,,,,,,,,,,,,,,,,,,,,,,,,,,,,,,,,,,,,,,,,,,,,,,,,,,,,,,,,,
292369,2022-10-05_09h05.22.298,vts_reward_expectancy,2022.2.4,Win32,60.0060006,Chrome,1536,864,,,,,,,,,,,,,,,,,,,,,,,,,,,,,,,,,,,,,,,,,,,,,,,,,,,,,,,,,,,,,,,,,,,,,,,,,,,,
292369,2022-10-05_09h05.22.298,vts_reward_expectancy,2022.2.4,Win32,60.0060006,Chrome,1536,864,,,a,1.909,1,1,0,0,0,0,3,1,0,1,0,0,1,0,0,0,circle,triangle,,,,,,,,,,,,,,,,,,,,,,,,,,,,,,,,,,,,,,,,,,,,,,,,,,,,,,
292369,2022-10-05_09h05.22.298,vts_reward_expectancy,2022.2.4,Win32,60.0060006,Chrome,1536,864,,,a,0.9382,10,11,0,0,1,1,8,1,0,0,1,0,0,0,0,1,hexagon,star,,,,,,,,,,,,,,,,,,,,,,,,,,,,,,,,,,,,,,,,,,,,,,,,,,,,,,
292369,2022-10-05_09h05.22.298,vts_reward_expectancy,2022.2.4,Win32,60.0060006,Chrome,1536,864,,,l,0.7123,10,21,0,0,2,2,0,1,1,0,0,0,0,1,0,0,triangle,circle,,,,,,,,,,,,,,,,,,,,,,,,,,,,,,,,,,,,,,,,,,,,,,,,,,,,,,
292369,2022-10-05_09h05.22.298,vts_reward_expectancy,2022.2.4,Win32,60.0060006,Chrome,1536,864,,,l,1.1929,1,22,0,0,3,3,6,1,0,0,1,0,1,0,0,0,hexagon,triangle,,,,,,,,,,,,,,,,,,,,,,,,,,,,,,,,,,,,,,,,,,,,,,,,,,,,,,
292369,2022-10-05_09h05.22.298,vts_reward_expectancy,2022.2.4,Win32,60.0060006,Chrome,1536,864,,,a,0.9472,1,23,0,0,4,4,5,1,0,1,0,0,0,0,0,1,circle,star,,,,,,,,,,,,,,,,,,,,,,,,,,,,,,,,,,,,,,,,,,,,,,,,,,,,,,
292369,2022-10-05_09h05.22.298,vts_reward_expectancy,2022.2.4,Win32,60.0060006,Chrome,1536,864,,,a,1.3696,10,33,0,0,5,5,2,1,1,0,0,0,0,0,0,1,triangle,star,,,,,,,,,,,,,,,,,,,,,,,,,,,,,,,,,,,,,,,,,,,,,,,,,,,,,,
292369,2022-10-05_09h05.22.298,vts_reward_expectancy,2022.2.4,Win32,60.0060006,Chrome,1536,864,,,l,1.4499,1,34,0,0,6,6,10,1,0,0,0,1,0,1,0,0,star ,circle,,,,,,,,,,,,,,,,,,,,,,,,,,,,,,,,,,,,,,,,,,,,,,,,,,,,,,
292369,2022-10-05_09h05.22.298,vts_reward_expectancy,2022.2.4,Win32,60.0060006,Chrome,1536,864,,,l,1.5574,10,44,0,0,7,7,4,1,0,1,0,0,0,0,1,0,circle,hexagon,,,,,,,,,,,,,,,,,,,,,,,,,,,,,,,,,,,,,,,,,,,,,,,,,,,,,,
292369,2022-10-05_09h05.22.298,vts_reward_expectancy,2022.2.4,Win32,60.0060006,Chrome,1536,864,,,l,0.6703,10,54,0,0,8,8,1,1,1,0,0,0,0,0,1,0,triangle,hexagon,,,,,,,,,,,,,,,,,,,,,,,,,,,,,,,,,,,,,,,,,,,,,,,,,,,,,,
292369,2022-10-05_09h05.22.298,vts_reward_expectancy,2022.2.4,Win32,60.0060006,Chrome,1536,864,,,a,1.0658,10,64,0,0,9,9,7,1,0,0,1,0,0,1,0,0,hexagon,circle,,,,,,,,,,,,,,,,,,,,,,,,,,,,,,,,,,,,,,,,,,,,,,,,,,,,,,
292369,2022-10-05_09h05.22.298,vts_reward_expectancy,2022.2.4,Win32,60.0060006,Chrome,1536,864,,,a,1.103,1,65,0,0,10,10,9,1,0,0,0,1,1,0,0,0,star,triangle,,,,,,,,,,,,,,,,,,,,,,,,,,,,,,,,,,,,,,,,,,,,,,,,,,,,,,
292369,2022-10-05_09h05.22.298,vts_reward_expectancy,2022.2.4,Win32,60.0060006,Chrome,1536,864,,,l,0.7106,10,75,0,0,11,11,11,1,0,0,0,1,0,0,1,0,star,hexagon,,,,,,,,,,,,,,,,,,,,,,,,,,,,,,,,,,,,,,,,,,,,,,,,,,,,,,
292369,2022-10-05_09h05.22.298,vts_reward_expectancy,2022.2.4,Win32,60.0060006,Chrome,1536,864,,,l,1.2339,1,76,0,1,0,12,2,1,1,0,0,0,0,0,0,1,triangle,star,,,,,,,,,,,,,,,,,,,,,,,,,,,,,,,,,,,,,,,,,,,,,,,,,,,,,,
292369,2022-10-05_09h05.22.298,vts_reward_expectancy,2022.2.4,Win32,60.0060006,Chrome,1536,864,,,a,0.7684,1,77,0,1,1,13,5,1,0,1,0,0,0,0,0,1,circle,star,,,,,,,,,,,,,,,,,,,,,,,,,,,,,,,,,,,,,,,,,,,,,,,,,,,,,,
292369,2022-10-05_09h05.22.298,vts_reward_expectancy,2022.2.4,Win32,60.0060006,Chrome,1536,864,,,a,0.7857,10,87,0,1,2,14,11,1,0,0,0,1,0,0,1,0,star,hexagon,,,,,,,,,,,,,,,,,,,,,,,,,,,,,,,,,,,,,,,,,,,,,,,,,,,,,,
292369,2022-10-05_09h05.22.298,vts_reward_expectancy,2022.2.4,Win32,60.0060006,Chrome,1536,864,,,a,0.8747,1,88,0,1,3,15,1,1,1,0,0,0,0,0,1,0,triangle,hexagon,,,,,,,,,,,,,,,,,,,,,,,,,,,,,,,,,,,,,,,,,,,,,,,,,,,,,,
292369,2022-10-05_09h05.22.298,vts_reward_expectancy,2022.2.4,Win32,60.0060006,Chrome,1536,864,,,l,0.3712,10,98,0,1,4,16,4,1,0,1,0,0,0,0,1,0,circle,hexagon,,,,,,,,,,,,,,,,,,,,,,,,,,,,,,,,,,,,,,,,,,,,,,,,,,,,,,
292369,2022-10-05_09h05.22.298,vts_reward_expectancy,2022.2.4,Win32,60.0060006,Chrome,1536,864,,,l,0.3834,10,108,0,1,5,17,3,1,0,1,0,0,1,0,0,0,circle,triangle,,,,,,,,,,,,,,,,,,,,,,,,,,,,,,,,,,,,,,,,,,,,,,,,,,,,,,
292369,2022-10-05_09h05.22.298,vts_reward_expectancy,2022.2.4,Win32,60.0060006,Chrome,1536,864,,,a,0.9222,1,109,0,1,6,18,7,1,0,0,1,0,0,1,0,0,hexagon,circle,,,,,,,,,,,,,,,,,,,,,,,,,,,,,,,,,,,,,,,,,,,,,,,,,,,,,,
292369,2022-10-05_09h05.22.298,vts_reward_expectancy,2022.2.4,Win32,60.0060006,Chrome,1536,864,,,a,0.7341,1,110,0,1,7,19,6,1,0,0,1,0,1,0,0,0,hexagon,triangle,,,,,,,,,,,,,,,,,,,,,,,,,,,,,,,,,,,,,,,,,,,,,,,,,,,,,,
292369,2022-10-05_09h05.22.298,vts_reward_expectancy,2022.2.4,Win32,60.0060006,Chrome,1536,864,,,l,0.4879,10,120,0,1,8,20,8,1,0,0,1,0,0,0,0,1,hexagon,star,,,,,,,,,,,,,,,,,,,,,,,,,,,,,,,,,,,,,,,,,,,,,,,,,,,,,,
292369,2022-10-05_09h05.22.298,vts_reward_expectancy,2022.2.4,Win32,60.0060006,Chrome,1536,864,,,l,0.5296,1,121,0,1,9,21,0,1,1,0,0,0,0,1,0,0,triangle,circle,,,,,,,,,,,,,,,,,,,,,,,,,,,,,,,,,,,,,,,,,,,,,,,,,,,,,,
292369,2022-10-05_09h05.22.298,vts_reward_expectancy,2022.2.4,Win32,60.0060006,Chrome,1536,864,,,a,0.5481,10,131,0,1,10,22,9,1,0,0,0,1,1,0,0,0,star,triangle,,,,,,,,,,,,,,,,,,,,,,,,,,,,,,,,,,,,,,,,,,,,,,,,,,,,,,
292369,2022-10-05_09h05.22.298,vts_reward_expectancy,2022.2.4,Win32,60.0060006,Chrome,1536,864,,,a,0.585,10,141,0,1,11,23,10,1,0,0,0,1,0,1,0,0,star ,circle,,,,,,,,,,,,,,,,,,,,,,,,,,,,,,,,,,,,,,,,,,,,,,,,,,,,,,
292369,2022-10-05_09h05.22.298,vts_reward_expectancy,2022.2.4,Win32,60.0060006,Chrome,1536,864,,,a,0.4417,10,151,0,2,0,24,10,1,0,0,0,1,0,1,0,0,star ,circle,,,,,,,,,,,,,,,,,,,,,,,,,,,,,,,,,,,,,,,,,,,,,,,,,,,,,,
292369,2022-10-05_09h05.22.298,vts_reward_expectancy,2022.2.4,Win32,60.0060006,Chrome,1536,864,,,l,0.9165,1,152,0,2,1,25,11,1,0,0,0,1,0,0,1,0,star,hexagon,,,,,,,,,,,,,,,,,,,,,,,,,,,,,,,,,,,,,,,,,,,,,,,,,,,,,,
292369,2022-10-05_09h05.22.298,vts_reward_expectancy,2022.2.4,Win32,60.0060006,Chrome,1536,864,,,a,0.6063,1,153,0,2,2,26,7,1,0,0,1,0,0,1,0,0,hexagon,circle,,,,,,,,,,,,,,,,,,,,,,,,,,,,,,,,,,,,,,,,,,,,,,,,,,,,,,
292369,2022-10-05_09h05.22.298,vts_reward_expectancy,2022.2.4,Win32,60.0060006,Chrome,1536,864,,,a,0.5511,10,163,0,2,3,27,9,1,0,0,0,1,1,0,0,0,star,triangle,,,,,,,,,,,,,,,,,,,,,,,,,,,,,,,,,,,,,,,,,,,,,,,,,,,,,,
292369,2022-10-05_09h05.22.298,vts_reward_expectancy,2022.2.4,Win32,60.0060006,Chrome,1536,864,,,l,1.2501,10,173,0,2,4,28,5,1,0,1,0,0,0,0,0,1,circle,star,,,,,,,,,,,,,,,,,,,,,,,,,,,,,,,,,,,,,,,,,,,,,,,,,,,,,,
292369,2022-10-05_09h05.22.298,vts_reward_expectancy,2022.2.4,Win32,60.0060006,Chrome,1536,864,,,l,0.7578,1,174,0,2,5,29,4,1,0,1,0,0,0,0,1,0,circle,hexagon,,,,,,,,,,,,,,,,,,,,,,,,,,,,,,,,,,,,,,,,,,,,,,,,,,,,,,
292369,2022-10-05_09h05.22.298,vts_reward_expectancy,2022.2.4,Win32,60.0060006,Chrome,1536,864,,,l,0.4998,10,184,0,2,6,30,8,1,0,0,1,0,0,0,0,1,hexagon,star,,,,,,,,,,,,,,,,,,,,,,,,,,,,,,,,,,,,,,,,,,,,,,,,,,,,,,
292369,2022-10-05_09h05.22.298,vts_reward_expectancy,2022.2.4,Win32,60.0060006,Chrome,1536,864,,,l,0.4668,1,185,0,2,7,31,0,1,1,0,0,0,0,1,0,0,triangle,circle,,,,,,,,,,,,,,,,,,,,,,,,,,,,,,,,,,,,,,,,,,,,,,,,,,,,,,
292369,2022-10-05_09h05.22.298,vts_reward_expectancy,2022.2.4,Win32,60.0060006,Chrome,1536,864,,,a,0.5672,1,186,0,2,8,32,3,1,0,1,0,0,1,0,0,0,circle,triangle,,,,,,,,,,,,,,,,,,,,,,,,,,,,,,,,,,,,,,,,,,,,,,,,,,,,,,
292369,2022-10-05_09h05.22.298,vts_reward_expectancy,2022.2.4,Win32,60.0060006,Chrome,1536,864,,,l,0.2672,10,196,0,2,9,33,6,1,0,0,1,0,1,0,0,0,hexagon,triangle,,,,,,,,,,,,,,,,,,,,,,,,,,,,,,,,,,,,,,,,,,,,,,,,,,,,,,
292369,2022-10-05_09h05.22.298,vts_reward_expectancy,2022.2.4,Win32,60.0060006,Chrome,1536,864,,,l,0.5834,10,206,0,2,10,34,2,1,1,0,0,0,0,0,0,1,triangle,star,,,,,,,,,,,,,,,,,,,,,,,,,,,,,,,,,,,,,,,,,,,,,,,,,,,,,,
292369,2022-10-05_09h05.22.298,vts_reward_expectancy,2022.2.4,Win32,60.0060006,Chrome,1536,864,,,l,0.6036,10,216,0,2,11,35,1,1,1,0,0,0,0,0,1,0,triangle,hexagon,,,,,,,,,,,,,,,,,,,,,,,,,,,,,,,,,,,,,,,,,,,,,,,,,,,,,,
292369,2022-10-05_09h05.22.298,vts_reward_expectancy,2022.2.4,Win32,60.0060006,Chrome,1536,864,,,a,0.9168,1,217,1,0,0,0,2,1,1,0,0,0,0,0,0,1,triangle,star,,,,,,,,,,,,,,,,,,,,,,,,,,,,,,,,,,,,,,,,,,,,,,,,,,,,,,
292369,2022-10-05_09h05.22.298,vts_reward_expectancy,2022.2.4,Win32,60.0060006,Chrome,1536,864,,,l,0.1049,1,218,1,0,1,1,8,1,0,0,1,0,0,0,0,1,hexagon,star,,,,,,,,,,,,,,,,,,,,,,,,,,,,,,,,,,,,,,,,,,,,,,,,,,,,,,
292369,2022-10-05_09h05.22.298,vts_reward_expectancy,2022.2.4,Win32,60.0060006,Chrome,1536,864,,,a,0.0838,10,228,1,0,2,2,11,1,0,0,0,1,0,0,1,0,star,hexagon,,,,,,,,,,,,,,,,,,,,,,,,,,,,,,,,,,,,,,,,,,,,,,,,,,,,,,
292369,2022-10-05_09h05.22.298,vts_reward_expectancy,2022.2.4,Win32,60.0060006,Chrome,1536,864,,,a,0.401,1,229,1,0,3,3,0,1,1,0,0,0,0,1,0,0,triangle,circle,,,,,,,,,,,,,,,,,,,,,,,,,,,,,,,,,,,,,,,,,,,,,,,,,,,,,,
292369,2022-10-05_09h05.22.298,vts_reward_expectancy,2022.2.4,Win32,60.0060006,Chrome,1536,864,,,l,0.5003,1,230,1,0,4,4,10,1,0,0,0,1,0,1,0,0,star ,circle,,,,,,,,,,,,,,,,,,,,,,,,,,,,,,,,,,,,,,,,,,,,,,,,,,,,,,
292369,2022-10-05_09h05.22.298,vts_reward_expectancy,2022.2.4,Win32,60.0060006,Chrome,1536,864,,,a,0.2831,10,240,1,0,5,5,6,1,0,0,1,0,1,0,0,0,hexagon,triangle,,,,,,,,,,,,,,,,,,,,,,,,,,,,,,,,,,,,,,,,,,,,,,,,,,,,,,
292369,2022-10-05_09h05.22.298,vts_reward_expectancy,2022.2.4,Win32,60.0060006,Chrome,1536,864,,,a,0.544,1,241,1,0,6,6,4,1,0,1,0,0,0,0,1,0,circle,hexagon,,,,,,,,,,,,,,,,,,,,,,,,,,,,,,,,,,,,,,,,,,,,,,,,,,,,,,
292369,2022-10-05_09h05.22.298,vts_reward_expectancy,2022.2.4,Win32,60.0060006,Chrome,1536,864,,,l,0.719,1,242,1,0,7,7,1,1,1,0,0,0,0,0,1,0,triangle,hexagon,,,,,,,,,,,,,,,,,,,,,,,,,,,,,,,,,,,,,,,,,,,,,,,,,,,,,,
292369,2022-10-05_09h05.22.298,vts_reward_expectancy,2022.2.4,Win32,60.0060006,Chrome,1536,864,,,l,0.8004,10,252,1,0,8,8,5,1,0,1,0,0,0,0,0,1,circle,star,,,,,,,,,,,,,,,,,,,,,,,,,,,,,,,,,,,,,,,,,,,,,,,,,,,,,,
292369,2022-10-05_09h05.22.298,vts_reward_expectancy,2022.2.4,Win32,60.0060006,Chrome,1536,864,,,a,1.1172,10,262,1,0,9,9,9,1,0,0,0,1,1,0,0,0,star,triangle,,,,,,,,,,,,,,,,,,,,,,,,,,,,,,,,,,,,,,,,,,,,,,,,,,,,,,
292369,2022-10-05_09h05.22.298,vts_reward_expectancy,2022.2.4,Win32,60.0060006,Chrome,1536,864,,,a,0.8835,10,272,1,0,10,10,7,1,0,0,1,0,0,1,0,0,hexagon,circle,,,,,,,,,,,,,,,,,,,,,,,,,,,,,,,,,,,,,,,,,,,,,,,,,,,,,,
292369,2022-10-05_09h05.22.298,vts_reward_expectancy,2022.2.4,Win32,60.0060006,Chrome,1536,864,,,l,1.7839,1,273,1,0,11,11,3,1,0,1,0,0,1,0,0,0,circle,triangle,,,,,,,,,,,,,,,,,,,,,,,,,,,,,,,,,,,,,,,,,,,,,,,,,,,,,,
292369,2022-10-05_09h05.22.298,vts_reward_expectancy,2022.2.4,Win32,60.0060006,Chrome,1536,864,,,a,0.955,1,274,1,1,0,12,3,1,0,1,0,0,1,0,0,0,circle,triangle,,,,,,,,,,,,,,,,,,,,,,,,,,,,,,,,,,,,,,,,,,,,,,,,,,,,,,
292369,2022-10-05_09h05.22.298,vts_reward_expectancy,2022.2.4,Win32,60.0060006,Chrome,1536,864,,,a,1.1341,1,275,1,1,1,13,6,1,0,0,1,0,1,0,0,0,hexagon,triangle,,,,,,,,,,,,,,,,,,,,,,,,,,,,,,,,,,,,,,,,,,,,,,,,,,,,,,
292369,2022-10-05_09h05.22.298,vts_reward_expectancy,2022.2.4,Win32,60.0060006,Chrome,1536,864,,,l,1.5504,1,276,1,1,2,14,8,1,0,0,1,0,0,0,0,1,hexagon,star,,,,,,,,,,,,,,,,,,,,,,,,,,,,,,,,,,,,,,,,,,,,,,,,,,,,,,
292369,2022-10-05_09h05.22.298,vts_reward_expectancy,2022.2.4,Win32,60.0060006,Chrome,1536,864,,,l,1.2885,1,277,1,1,3,15,4,1,0,1,0,0,0,0,1,0,circle,hexagon,,,,,,,,,,,,,,,,,,,,,,,,,,,,,,,,,,,,,,,,,,,,,,,,,,,,,,
292369,2022-10-05_09h05.22.298,vts_reward_expectancy,2022.2.4,Win32,60.0060006,Chrome,1536,864,,,a,0.5918,1,278,1,1,4,16,0,1,1,0,0,0,0,1,0,0,triangle,circle,,,,,,,,,,,,,,,,,,,,,,,,,,,,,,,,,,,,,,,,,,,,,,,,,,,,,,
292369,2022-10-05_09h05.22.298,vts_reward_expectancy,2022.2.4,Win32,60.0060006,Chrome,1536,864,,,a,0.1002,1,279,1,1,5,17,5,1,0,1,0,0,0,0,0,1,circle,star,,,,,,,,,,,,,,,,,,,,,,,,,,,,,,,,,,,,,,,,,,,,,,,,,,,,,,
292369,2022-10-05_09h05.22.298,vts_reward_expectancy,2022.2.4,Win32,60.0060006,Chrome,1536,864,,,a,0.4677,10,289,1,1,6,18,11,1,0,0,0,1,0,0,1,0,star,hexagon,,,,,,,,,,,,,,,,,,,,,,,,,,,,,,,,,,,,,,,,,,,,,,,,,,,,,,
292369,2022-10-05_09h05.22.298,vts_reward_expectancy,2022.2.4,Win32,60.0060006,Chrome,1536,864,,,l,0.7836,1,290,1,1,7,19,1,1,1,0,0,0,0,0,1,0,triangle,hexagon,,,,,,,,,,,,,,,,,,,,,,,,,,,,,,,,,,,,,,,,,,,,,,,,,,,,,,
292369,2022-10-05_09h05.22.298,vts_reward_expectancy,2022.2.4,Win32,60.0060006,Chrome,1536,864,,,a,0.3671,1,291,1,1,8,20,7,1,0,0,1,0,0,1,0,0,hexagon,circle,,,,,,,,,,,,,,,,,,,,,,,,,,,,,,,,,,,,,,,,,,,,,,,,,,,,,,
292369,2022-10-05_09h05.22.298,vts_reward_expectancy,2022.2.4,Win32,60.0060006,Chrome,1536,864,,,l,0.1505,10,301,1,1,9,21,9,1,0,0,0,1,1,0,0,0,star,triangle,,,,,,,,,,,,,,,,,,,,,,,,,,,,,,,,,,,,,,,,,,,,,,,,,,,,,,
292369,2022-10-05_09h05.22.298,vts_reward_expectancy,2022.2.4,Win32,60.0060006,Chrome,1536,864,,,l,0.6353,10,311,1,1,10,22,2,1,1,0,0,0,0,0,0,1,triangle,star,,,,,,,,,,,,,,,,,,,,,,,,,,,,,,,,,,,,,,,,,,,,,,,,,,,,,,
292369,2022-10-05_09h05.22.298,vts_reward_expectancy,2022.2.4,Win32,60.0060006,Chrome,1536,864,,,a,0.5569,10,321,1,1,11,23,10,1,0,0,0,1,0,1,0,0,star ,circle,,,,,,,,,,,,,,,,,,,,,,,,,,,,,,,,,,,,,,,,,,,,,,,,,,,,,,
292369,2022-10-05_09h05.22.298,vts_reward_expectancy,2022.2.4,Win32,60.0060006,Chrome,1536,864,,,l,1.1531,10,331,1,2,0,24,5,1,0,1,0,0,0,0,0,1,circle,star,,,,,,,,,,,,,,,,,,,,,,,,,,,,,,,,,,,,,,,,,,,,,,,,,,,,,,
292369,2022-10-05_09h05.22.298,vts_reward_expectancy,2022.2.4,Win32,60.0060006,Chrome,1536,864,,,l,0.667,10,341,1,2,1,25,8,1,0,0,1,0,0,0,0,1,hexagon,star,,,,,,,,,,,,,,,,,,,,,,,,,,,,,,,,,,,,,,,,,,,,,,,,,,,,,,
292369,2022-10-05_09h05.22.298,vts_reward_expectancy,2022.2.4,Win32,60.0060006,Chrome,1536,864,,,a,0.5093,1,342,1,2,2,26,4,1,0,1,0,0,0,0,1,0,circle,hexagon,,,,,,,,,,,,,,,,,,,,,,,,,,,,,,,,,,,,,,,,,,,,,,,,,,,,,,
292369,2022-10-05_09h05.22.298,vts_reward_expectancy,2022.2.4,Win32,60.0060006,Chrome,1536,864,,,l,1.1648,10,352,1,2,3,27,3,1,0,1,0,0,1,0,0,0,circle,triangle,,,,,,,,,,,,,,,,,,,,,,,,,,,,,,,,,,,,,,,,,,,,,,,,,,,,,,
292369,2022-10-05_09h05.22.298,vts_reward_expectancy,2022.2.4,Win32,60.0060006,Chrome,1536,864,,,l,2.6672,1,353,1,2,4,28,0,1,1,0,0,0,0,1,0,0,triangle,circle,,,,,,,,,,,,,,,,,,,,,,,,,,,,,,,,,,,,,,,,,,,,,,,,,,,,,,
292369,2022-10-05_09h05.22.298,vts_reward_expectancy,2022.2.4,Win32,60.0060006,Chrome,1536,864,,,a,1.1168,1,354,1,2,5,29,1,1,1,0,0,0,0,0,1,0,triangle,hexagon,,,,,,,,,,,,,,,,,,,,,,,,,,,,,,,,,,,,,,,,,,,,,,,,,,,,,,
292369,2022-10-05_09h05.22.298,vts_reward_expectancy,2022.2.4,Win32,60.0060006,Chrome,1536,864,,,l,1.5669,1,355,1,2,6,30,10,1,0,0,0,1,0,1,0,0,star ,circle,,,,,,,,,,,,,,,,,,,,,,,,,,,,,,,,,,,,,,,,,,,,,,,,,,,,,,
292369,2022-10-05_09h05.22.298,vts_reward_expectancy,2022.2.4,Win32,60.0060006,Chrome,1536,864,,,l,0.6651,10,365,1,2,7,31,6,1,0,0,1,0,1,0,0,0,hexagon,triangle,,,,,,,,,,,,,,,,,,,,,,,,,,,,,,,,,,,,,,,,,,,,,,,,,,,,,,
292369,2022-10-05_09h05.22.298,vts_reward_expectancy,2022.2.4,Win32,60.0060006,Chrome,1536,864,,,l,1.6338,10,375,1,2,8,32,2,1,1,0,0,0,0,0,0,1,triangle,star,,,,,,,,,,,,,,,,,,,,,,,,,,,,,,,,,,,,,,,,,,,,,,,,,,,,,,
292369,2022-10-05_09h05.22.298,vts_reward_expectancy,2022.2.4,Win32,60.0060006,Chrome,1536,864,,,l,3.2846,10,385,1,2,9,33,9,1,0,0,0,1,1,0,0,0,star,triangle,,,,,,,,,,,,,,,,,,,,,,,,,,,,,,,,,,,,,,,,,,,,,,,,,,,,,,
292369,2022-10-05_09h05.22.298,vts_reward_expectancy,2022.2.4,Win32,60.0060006,Chrome,1536,864,,,a,1.8728,1,386,1,2,10,34,7,1,0,0,1,0,0,1,0,0,hexagon,circle,,,,,,,,,,,,,,,,,,,,,,,,,,,,,,,,,,,,,,,,,,,,,,,,,,,,,,
292369,2022-10-05_09h05.22.298,vts_reward_expectancy,2022.2.4,Win32,60.0060006,Chrome,1536,864,,,l,0.4318,1,387,1,2,11,35,11,1,0,0,0,1,0,0,1,0,star,hexagon,,,,,,,,,,,,,,,,,,,,,,,,,,,,,,,,,,,,,,,,,,,,,,,,,,,,,,
292369,2022-10-05_09h05.22.298,vts_reward_expectancy,2022.2.4,Win32,60.0060006,Chrome,1536,864,,,l,0.439,10,397,2,0,0,0,8,1,0,0,1,0,0,0,0,1,hexagon,star,,,,,,,,,,,,,,,,,,,,,,,,,,,,,,,,,,,,,,,,,,,,,,,,,,,,,,
292369,2022-10-05_09h05.22.298,vts_reward_expectancy,2022.2.4,Win32,60.0060006,Chrome,1536,864,,,l,0.3003,10,407,2,0,1,1,5,1,0,1,0,0,0,0,0,1,circle,star,,,,,,,,,,,,,,,,,,,,,,,,,,,,,,,,,,,,,,,,,,,,,,,,,,,,,,
292369,2022-10-05_09h05.22.298,vts_reward_expectancy,2022.2.4,Win32,60.0060006,Chrome,1536,864,,,l,0.4499,1,408,2,0,2,2,6,1,0,0,1,0,1,0,0,0,hexagon,triangle,,,,,,,,,,,,,,,,,,,,,,,,,,,,,,,,,,,,,,,,,,,,,,,,,,,,,,
292369,2022-10-05_09h05.22.298,vts_reward_expectancy,2022.2.4,Win32,60.0060006,Chrome,1536,864,,,l,0.2671,10,418,2,0,3,3,9,1,0,0,0,1,1,0,0,0,star,triangle,,,,,,,,,,,,,,,,,,,,,,,,,,,,,,,,,,,,,,,,,,,,,,,,,,,,,,
292369,2022-10-05_09h05.22.298,vts_reward_expectancy,2022.2.4,Win32,60.0060006,Chrome,1536,864,,,l,0.3682,1,419,2,0,4,4,10,1,0,0,0,1,0,1,0,0,star ,circle,,,,,,,,,,,,,,,,,,,,,,,,,,,,,,,,,,,,,,,,,,,,,,,,,,,,,,
292369,2022-10-05_09h05.22.298,vts_reward_expectancy,2022.2.4,Win32,60.0060006,Chrome,1536,864,,,l,0.2335,10,429,2,0,5,5,2,1,1,0,0,0,0,0,0,1,triangle,star,,,,,,,,,,,,,,,,,,,,,,,,,,,,,,,,,,,,,,,,,,,,,,,,,,,,,,
292369,2022-10-05_09h05.22.298,vts_reward_expectancy,2022.2.4,Win32,60.0060006,Chrome,1536,864,,,l,0.2834,1,430,2,0,6,6,3,1,0,1,0,0,1,0,0,0,circle,triangle,,,,,,,,,,,,,,,,,,,,,,,,,,,,,,,,,,,,,,,,,,,,,,,,,,,,,,
292369,2022-10-05_09h05.22.298,vts_reward_expectancy,2022.2.4,Win32,60.0060006,Chrome,1536,864,,,l,0.3337,1,431,2,0,7,7,0,1,1,0,0,0,0,1,0,0,triangle,circle,,,,,,,,,,,,,,,,,,,,,,,,,,,,,,,,,,,,,,,,,,,,,,,,,,,,,,
292369,2022-10-05_09h05.22.298,vts_reward_expectancy,2022.2.4,Win32,60.0060006,Chrome,1536,864,,,a,0.5327,10,441,2,0,8,8,7,1,0,0,1,0,0,1,0,0,hexagon,circle,,,,,,,,,,,,,,,,,,,,,,,,,,,,,,,,,,,,,,,,,,,,,,,,,,,,,,
292369,2022-10-05_09h05.22.298,vts_reward_expectancy,2022.2.4,Win32,60.0060006,Chrome,1536,864,,,a,0.3337,1,442,2,0,9,9,4,1,0,1,0,0,0,0,1,0,circle,hexagon,,,,,,,,,,,,,,,,,,,,,,,,,,,,,,,,,,,,,,,,,,,,,,,,,,,,,,
292369,2022-10-05_09h05.22.298,vts_reward_expectancy,2022.2.4,Win32,60.0060006,Chrome,1536,864,,,a,0.2673,1,443,2,0,10,10,1,1,1,0,0,0,0,0,1,0,triangle,hexagon,,,,,,,,,,,,,,,,,,,,,,,,,,,,,,,,,,,,,,,,,,,,,,,,,,,,,,
292369,2022-10-05_09h05.22.298,vts_reward_expectancy,2022.2.4,Win32,60.0060006,Chrome,1536,864,,,a,0.0671,10,453,2,0,11,11,11,1,0,0,0,1,0,0,1,0,star,hexagon,,,,,,,,,,,,,,,,,,,,,,,,,,,,,,,,,,,,,,,,,,,,,,,,,,,,,,
292369,2022-10-05_09h05.22.298,vts_reward_expectancy,2022.2.4,Win32,60.0060006,Chrome,1536,864,,,a,0.2319,10,463,2,1,0,12,7,1,0,0,1,0,0,1,0,0,hexagon,circle,,,,,,,,,,,,,,,,,,,,,,,,,,,,,,,,,,,,,,,,,,,,,,,,,,,,,,
292369,2022-10-05_09h05.22.298,vts_reward_expectancy,2022.2.4,Win32,60.0060006,Chrome,1536,864,,,a,0.356,10,473,2,1,1,13,8,1,0,0,1,0,0,0,0,1,hexagon,star,,,,,,,,,,,,,,,,,,,,,,,,,,,,,,,,,,,,,,,,,,,,,,,,,,,,,,
292369,2022-10-05_09h05.22.298,vts_reward_expectancy,2022.2.4,Win32,60.0060006,Chrome,1536,864,,,l,1.2349,1,474,2,1,2,14,3,1,0,1,0,0,1,0,0,0,circle,triangle,,,,,,,,,,,,,,,,,,,,,,,,,,,,,,,,,,,,,,,,,,,,,,,,,,,,,,
292369,2022-10-05_09h05.22.298,vts_reward_expectancy,2022.2.4,Win32,60.0060006,Chrome,1536,864,,,l,0.4459,10,484,2,1,3,15,4,1,0,1,0,0,0,0,1,0,circle,hexagon,,,,,,,,,,,,,,,,,,,,,,,,,,,,,,,,,,,,,,,,,,,,,,,,,,,,,,
292369,2022-10-05_09h05.22.298,vts_reward_expectancy,2022.2.4,Win32,60.0060006,Chrome,1536,864,,,l,0.4504,10,494,2,1,4,16,1,1,1,0,0,0,0,0,1,0,triangle,hexagon,,,,,,,,,,,,,,,,,,,,,,,,,,,,,,,,,,,,,,,,,,,,,,,,,,,,,,
292369,2022-10-05_09h05.22.298,vts_reward_expectancy,2022.2.4,Win32,60.0060006,Chrome,1536,864,,,l,0.7836,1,495,2,1,5,17,10,1,0,0,0,1,0,1,0,0,star ,circle,,,,,,,,,,,,,,,,,,,,,,,,,,,,,,,,,,,,,,,,,,,,,,,,,,,,,,
292369,2022-10-05_09h05.22.298,vts_reward_expectancy,2022.2.4,Win32,60.0060006,Chrome,1536,864,,,a,0.2555,1,496,2,1,6,18,6,1,0,0,1,0,1,0,0,0,hexagon,triangle,,,,,,,,,,,,,,,,,,,,,,,,,,,,,,,,,,,,,,,,,,,,,,,,,,,,,,
292369,2022-10-05_09h05.22.298,vts_reward_expectancy,2022.2.4,Win32,60.0060006,Chrome,1536,864,,,l,0.3341,10,506,2,1,7,19,2,1,1,0,0,0,0,0,0,1,triangle,star,,,,,,,,,,,,,,,,,,,,,,,,,,,,,,,,,,,,,,,,,,,,,,,,,,,,,,
292369,2022-10-05_09h05.22.298,vts_reward_expectancy,2022.2.4,Win32,60.0060006,Chrome,1536,864,,,l,0.4676,1,507,2,1,8,20,9,1,0,0,0,1,1,0,0,0,star,triangle,,,,,,,,,,,,,,,,,,,,,,,,,,,,,,,,,,,,,,,,,,,,,,,,,,,,,,
292369,2022-10-05_09h05.22.298,vts_reward_expectancy,2022.2.4,Win32,60.0060006,Chrome,1536,864,,,l,0.1451,10,517,2,1,9,21,0,1,1,0,0,0,0,1,0,0,triangle,circle,,,,,,,,,,,,,,,,,,,,,,,,,,,,,,,,,,,,,,,,,,,,,,,,,,,,,,
292369,2022-10-05_09h05.22.298,vts_reward_expectancy,2022.2.4,Win32,60.0060006,Chrome,1536,864,,,l,0.4171,1,518,2,1,10,22,5,1,0,1,0,0,0,0,0,1,circle,star,,,,,,,,,,,,,,,,,,,,,,,,,,,,,,,,,,,,,,,,,,,,,,,,,,,,,,
292369,2022-10-05_09h05.22.298,vts_reward_expectancy,2022.2.4,Win32,60.0060006,Chrome,1536,864,,,l,0.3505,1,519,2,1,11,23,11,1,0,0,0,1,0,0,1,0,star,hexagon,,,,,,,,,,,,,,,,,,,,,,,,,,,,,,,,,,,,,,,,,,,,,,,,,,,,,,
292369,2022-10-05_09h05.22.298,vts_reward_expectancy,2022.2.4,Win32,60.0060006,Chrome,1536,864,,,l,0.5842,1,520,2,2,0,24,0,1,1,0,0,0,0,1,0,0,triangle,circle,,,,,,,,,,,,,,,,,,,,,,,,,,,,,,,,,,,,,,,,,,,,,,,,,,,,,,
292369,2022-10-05_09h05.22.298,vts_reward_expectancy,2022.2.4,Win32,60.0060006,Chrome,1536,864,,,l,1.0987,10,530,2,2,1,25,8,1,0,0,1,0,0,0,0,1,hexagon,star,,,,,,,,,,,,,,,,,,,,,,,,,,,,,,,,,,,,,,,,,,,,,,,,,,,,,,
292369,2022-10-05_09h05.22.298,vts_reward_expectancy,2022.2.4,Win32,60.0060006,Chrome,1536,864,,,l,0.468,1,531,2,2,2,26,4,1,0,1,0,0,0,0,1,0,circle,hexagon,,,,,,,,,,,,,,,,,,,,,,,,,,,,,,,,,,,,,,,,,,,,,,,,,,,,,,
292369,2022-10-05_09h05.22.298,vts_reward_expectancy,2022.2.4,Win32,60.0060006,Chrome,1536,864,,,l,1.3502,10,541,2,2,3,27,5,1,0,1,0,0,0,0,0,1,circle,star,,,,,,,,,,,,,,,,,,,,,,,,,,,,,,,,,,,,,,,,,,,,,,,,,,,,,,
292369,2022-10-05_09h05.22.298,vts_reward_expectancy,2022.2.4,Win32,60.0060006,Chrome,1536,864,,,l,0.6005,10,551,2,2,4,28,3,1,0,1,0,0,1,0,0,0,circle,triangle,,,,,,,,,,,,,,,,,,,,,,,,,,,,,,,,,,,,,,,,,,,,,,,,,,,,,,
292369,2022-10-05_09h05.22.298,vts_reward_expectancy,2022.2.4,Win32,60.0060006,Chrome,1536,864,,,l,0.4507,1,552,2,2,5,29,9,1,0,0,0,1,1,0,0,0,star,triangle,,,,,,,,,,,,,,,,,,,,,,,,,,,,,,,,,,,,,,,,,,,,,,,,,,,,,,
292369,2022-10-05_09h05.22.298,vts_reward_expectancy,2022.2.4,Win32,60.0060006,Chrome,1536,864,,,l,0.3287,1,553,2,2,6,30,10,1,0,0,0,1,0,1,0,0,star ,circle,,,,,,,,,,,,,,,,,,,,,,,,,,,,,,,,,,,,,,,,,,,,,,,,,,,,,,
292369,2022-10-05_09h05.22.298,vts_reward_expectancy,2022.2.4,Win32,60.0060006,Chrome,1536,864,,,l,1.0761,1,554,2,2,7,31,7,1,0,0,1,0,0,1,0,0,hexagon,circle,,,,,,,,,,,,,,,,,,,,,,,,,,,,,,,,,,,,,,,,,,,,,,,,,,,,,,
292369,2022-10-05_09h05.22.298,vts_reward_expectancy,2022.2.4,Win32,60.0060006,Chrome,1536,864,,,l,0.5157,10,564,2,2,8,32,2,1,1,0,0,0,0,0,0,1,triangle,star,,,,,,,,,,,,,,,,,,,,,,,,,,,,,,,,,,,,,,,,,,,,,,,,,,,,,,
292369,2022-10-05_09h05.22.298,vts_reward_expectancy,2022.2.4,Win32,60.0060006,Chrome,1536,864,,,l,0.5171,1,565,2,2,9,33,1,1,1,0,0,0,0,0,1,0,triangle,hexagon,,,,,,,,,,,,,,,,,,,,,,,,,,,,,,,,,,,,,,,,,,,,,,,,,,,,,,
292369,2022-10-05_09h05.22.298,vts_reward_expectancy,2022.2.4,Win32,60.0060006,Chrome,1536,864,,,l,0.6174,10,575,2,2,10,34,6,1,0,0,1,0,1,0,0,0,hexagon,triangle,,,,,,,,,,,,,,,,,,,,,,,,,,,,,,,,,,,,,,,,,,,,,,,,,,,,,,
292369,2022-10-05_09h05.22.298,vts_reward_expectancy,2022.2.4,Win32,60.0060006,Chrome,1536,864,,,l,0.6827,1,576,2,2,11,35,11,1,0,0,0,1,0,0,1,0,star,hexagon,,,,,,,,,,,,,,,,,,,,,,,,,,,,,,,,,,,,,,,,,,,,,,,,,,,,,,
292369,2022-10-05_09h05.22.298,vts_reward_expectancy,2022.2.4,Win32,60.0060006,Chrome,1536,864,,,,,,,,,,,,,,,,,,,,,,,F,181,triangle,0,0,,0,0,0,0,0,1,,,,,,,,,,,,,,,,,,,,,,,,,,,,,,,,,,,,,,,,,,
292369,2022-10-05_09h05.22.298,vts_reward_expectancy,2022.2.4,Win32,60.0060006,Chrome,1536,864,,,,,,,,,,,,,,,,,,,,,,,W,146,circle,1,1,f,0,1,0,1,0,1,1.8841,,,,,,,,,,,,,,,,,,,,,,,,,,,,,,,,,,,,,,,,,
292369,2022-10-05_09h05.22.298,vts_reward_expectancy,2022.2.4,Win32,60.0060006,Chrome,1536,864,,,,,,,,,,,,,,,,,,,,,,,D,174,hexagon,1,0,d,0,2,0,2,0,1,1.2843,,,,,,,,,,,,,,,,,,,,,,,,,,,,,,,,,,,,,,,,,
292369,2022-10-05_09h05.22.298,vts_reward_expectancy,2022.2.4,Win32,60.0060006,Chrome,1536,864,,,,,,,,,,,,,,,,,,,,,,,B,160,star,1,0,d,0,3,0,3,0,1,0.8505,,,,,,,,,,,,,,,,,,,,,,,,,,,,,,,,,,,,,,,,,
292369,2022-10-05_09h05.22.298,vts_reward_expectancy,2022.2.4,Win32,60.0060006,Chrome,1536,864,,,,,,,,,,,,,,,,,,,,,,,U,132,triangle,1,0,f,0,4,0,4,0,1,1.1675,,,,,,,,,,,,,,,,,,,,,,,,,,,,,,,,,,,,,,,,,
292369,2022-10-05_09h05.22.298,vts_reward_expectancy,2022.2.4,Win32,60.0060006,Chrome,1536,864,,,,,,,,,,,,,,,,,,,,,,,H,167,circle,1,0,d,0,5,0,5,0,1,0.9717,,,,,,,,,,,,,,,,,,,,,,,,,,,,,,,,,,,,,,,,,
292369,2022-10-05_09h05.22.298,vts_reward_expectancy,2022.2.4,Win32,60.0060006,Chrome,1536,864,,,,,,,,,,,,,,,,,,,,,,,Y,125,hexagon,1,0,f,0,6,0,6,0,1,1.0347,,,,,,,,,,,,,,,,,,,,,,,,,,,,,,,,,,,,,,,,,
292369,2022-10-05_09h05.22.298,vts_reward_expectancy,2022.2.4,Win32,60.0060006,Chrome,1536,864,,,,,,,,,,,,,,,,,,,,,,,S,139,star,1,0,f,0,7,0,7,0,1,1.2654,,,,,,,,,,,,,,,,,,,,,,,,,,,,,,,,,,,,,,,,,
292369,2022-10-05_09h05.22.298,vts_reward_expectancy,2022.2.4,Win32,60.0060006,Chrome,1536,864,,,,,,,,,,,,,,,,,,,,,,,F,181,circle,1,0,d,0,8,0,8,0,1,0.7836,,,,,,,,,,,,,,,,,,,,,,,,,,,,,,,,,,,,,,,,,
292369,2022-10-05_09h05.22.298,vts_reward_expectancy,2022.2.4,Win32,60.0060006,Chrome,1536,864,,,,,,,,,,,,,,,,,,,,,,,W,146,hexagon,1,0,f,0,9,0,9,0,1,0.7844,,,,,,,,,,,,,,,,,,,,,,,,,,,,,,,,,,,,,,,,,
292369,2022-10-05_09h05.22.298,vts_reward_expectancy,2022.2.4,Win32,60.0060006,Chrome,1536,864,,,,,,,,,,,,,,,,,,,,,,,B,139,triangle,1,0,,1,,,,,,,j,0.9834,0,0,0,0,1,,,,,,,,,,,,,,,,,,,,,,,,,,,,,,,,,,
292369,2022-10-05_09h05.22.298,vts_reward_expectancy,2022.2.4,Win32,60.0060006,Chrome,1536,864,,,,,,,,,,,,,,,,,,,,,,,Y,167,hexagon,1,0,,1,,,,,,,k,0.6174,1,0,1,0,1,,,,,,,,,,,,,,,,,,,,,,,,,,,,,,,,,,
292369,2022-10-05_09h05.22.298,vts_reward_expectancy,2022.2.4,Win32,60.0060006,Chrome,1536,864,,,,,,,,,,,,,,,,,,,,,,,W,181,star,0,0,,1,,,,,,,j,1.4842,2,0,2,0,1,,,,,,,,,,,,,,,,,,,,,,,,,,,,,,,,,,
292369,2022-10-05_09h05.22.298,vts_reward_expectancy,2022.2.4,Win32,60.0060006,Chrome,1536,864,,,,,,,,,,,,,,,,,,,,,,,D,132,circle,0,1,,1,,,,,,,k,2.3005,3,0,3,0,1,,,,,,,,,,,,,,,,,,,,,,,,,,,,,,,,,,
292369,2022-10-05_09h05.22.298,vts_reward_expectancy,2022.2.4,Win32,60.0060006,Chrome,1536,864,,,,,,,,,,,,,,,,,,,,,,,H,146,triangle,0,1,,1,,,,,,,k,2.4839,4,0,4,0,1,,,,,,,,,,,,,,,,,,,,,,,,,,,,,,,,,,
292369,2022-10-05_09h05.22.298,vts_reward_expectancy,2022.2.4,Win32,60.0060006,Chrome,1536,864,,,,,,,,,,,,,,,,,,,,,,,S,125,hexagon,0,1,,1,,,,,,,,,5,0,5,0,1,,,,,,,,,,,,,,,,,,,,,,,,,,,,,,,,,,
292369,2022-10-05_09h05.22.298,vts_reward_expectancy,2022.2.4,Win32,60.0060006,Chrome,1536,864,,,,,,,,,,,,,,,,,,,,,,,U,174,star,0,1,,1,,,,,,,j,1.4509,6,0,6,0,1,,,,,,,,,,,,,,,,,,,,,,,,,,,,,,,,,,
292369,2022-10-05_09h05.22.298,vts_reward_expectancy,2022.2.4,Win32,60.0060006,Chrome,1536,864,,,,,,,,,,,,,,,,,,,,,,,F,160,circle,1,1,,1,,,,,,,k,1.5325,7,0,7,0,1,,,,,,,,,,,,,,,,,,,,,,,,,,,,,,,,,,
292369,2022-10-05_09h05.22.298,vts_reward_expectancy,2022.2.4,Win32,60.0060006,Chrome,1536,864,,,,,,,,,,,,,,,,,,,,,,,B,139,triangle,1,0,,1,,,,,,,j,1.0674,8,0,8,0,1,,,,,,,,,,,,,,,,,,,,,,,,,,,,,,,,,,
292369,2022-10-05_09h05.22.298,vts_reward_expectancy,2022.2.4,Win32,60.0060006,Chrome,1536,864,,,,,,,,,,,,,,,,,,,,,,,Y,167,star,1,0,,1,,,,,,,k,0.984,9,0,9,0,1,,,,,,,,,,,,,,,,,,,,,,,,,,,,,,,,,,
292369,2022-10-05_09h05.22.298,vts_reward_expectancy,2022.2.4,Win32,60.0060006,Chrome,1536,864,,,,,,,,,,,,,,,,,,,,,,,S,139,hexagon,1,0,,2,,,,,,,j,0.9338,0,0,0,0,1,,,,,,,,,,,,,,,,,,,,,,,,,,,,,,,,,,
292369,2022-10-05_09h05.22.298,vts_reward_expectancy,2022.2.4,Win32,60.0060006,Chrome,1536,864,,,,,,,,,,,,,,,,,,,,,,,F,167,star,1,0,,2,,,,,,,k,1.2377,1,0,1,0,1,,,,,,,,,,,,,,,,,,,,,,,,,,,,,,,,,,
292369,2022-10-05_09h05.22.298,vts_reward_expectancy,2022.2.4,Win32,60.0060006,Chrome,1536,864,,,,,,,,,,,,,,,,,,,,,,,Y,160,triangle,1,0,,2,,,,,,,k,1.4154,2,0,2,0,1,,,,,,,,,,,,,,,,,,,,,,,,,,,,,,,,,,
292369,2022-10-05_09h05.22.298,vts_reward_expectancy,2022.2.4,Win32,60.0060006,Chrome,1536,864,,,,,,,,,,,,,,,,,,,,,,,D,146,circle,1,0,,2,,,,,,,j,0.8739,3,0,3,0,1,,,,,,,,,,,,,,,,,,,,,,,,,,,,,,,,,,
292369,2022-10-05_09h05.22.298,vts_reward_expectancy,2022.2.4,Win32,60.0060006,Chrome,1536,864,,,,,,,,,,,,,,,,,,,,,,,B,174,hexagon,1,0,,2,,,,,,,k,1.4677,4,0,4,0,1,,,,,,,,,,,,,,,,,,,,,,,,,,,,,,,,,,
292369,2022-10-05_09h05.22.298,vts_reward_expectancy,2022.2.4,Win32,60.0060006,Chrome,1536,864,,,,,,,,,,,,,,,,,,,,,,,W,132,star,1,0,,2,,,,,,,j,0.8113,5,0,5,0,1,,,,,,,,,,,,,,,,,,,,,,,,,,,,,,,,,,
292369,2022-10-05_09h05.22.298,vts_reward_expectancy,2022.2.4,Win32,60.0060006,Chrome,1536,864,,,,,,,,,,,,,,,,,,,,,,,H,125,triangle,1,0,,2,,,,,,,j,1.3837,6,0,6,0,1,,,,,,,,,,,,,,,,,,,,,,,,,,,,,,,,,,
292369,2022-10-05_09h05.22.298,vts_reward_expectancy,2022.2.4,Win32,60.0060006,Chrome,1536,864,,,,,,,,,,,,,,,,,,,,,,,U,181,circle,1,0,,2,,,,,,,k,1.0772,7,0,7,0,1,,,,,,,,,,,,,,,,,,,,,,,,,,,,,,,,,,
292369,2022-10-05_09h05.22.298,vts_reward_expectancy,2022.2.4,Win32,60.0060006,Chrome,1536,864,,,,,,,,,,,,,,,,,,,,,,,S,139,star,1,0,,2,,,,,,,j,1.0863,8,0,8,0,1,,,,,,,,,,,,,,,,,,,,,,,,,,,,,,,,,,
292369,2022-10-05_09h05.22.298,vts_reward_expectancy,2022.2.4,Win32,60.0060006,Chrome,1536,864,,,,,,,,,,,,,,,,,,,,,,,F,167,triangle,1,0,,2,,,,,,,k,1.9173,9,0,9,0,1,,,,,,,,,,,,,,,,,,,,,,,,,,,,,,,,,,
292369,2022-10-05_09h05.22.298,vts_reward_expectancy,2022.2.4,Win32,60.0060006,Chrome,1536,864,,,,,0,576,,,,,,,,,,,,,,,,,F,125,star,-1,0,,3,,,,,,,,,,,,,,-1,no_choice,NA,,vtsPrac,0,0,0,0,1,,,,,,,,,,,,,,,,,,,,,,,,
292369,2022-10-05_09h05.22.298,vts_reward_expectancy,2022.2.4,Win32,60.0060006,Chrome,1536,864,,,,,0,576,,,,,,,,,,,,,,,,,W,160,triangle,0,0,,3,,,,,,,,,,,,,,switch,letter,NA,d,vtsPrac,1,0,1,0,1,2.3682,,,,,,,,,,,,,,,,,,,,,,,
292369,2022-10-05_09h05.22.298,vts_reward_expectancy,2022.2.4,Win32,60.0060006,Chrome,1536,864,,,,,0,576,,,,,,,,,,,,,,,,,Y,146,star,1,1,,3,,,,,,,,,,,,,,switch,number,numSwt,j,vtsPrac,2,0,2,0,1,1.8015,,,,,,,,,,,,,,,,,,,,,,,
292369,2022-10-05_09h05.22.298,vts_reward_expectancy,2022.2.4,Win32,60.0060006,Chrome,1536,864,,,,,0,576,,,,,,,,,,,,,,,,,B,132,triangle,1,0,,3,,,,,,,,,,,,,,switch,letter,lettSwt,d,vtsPrac,3,0,3,0,1,0.8342,,,,,,,,,,,,,,,,,,,,,,,
292369,2022-10-05_09h05.22.298,vts_reward_expectancy,2022.2.4,Win32,60.0060006,Chrome,1536,864,,,,,0,576,,,,,,,,,,,,,,,,,F,125,triangle,1,0,,3,,,,,,,,,,,,,,repeat,letter,lettRpt,d,vtsPrac,4,0,4,0,1,0.969,,,,,,,,,,,,,,,,,,,,,,,
292369,2022-10-05_09h05.22.298,vts_reward_expectancy,2022.2.4,Win32,60.0060006,Chrome,1536,864,,,,,0,576,,,,,,,,,,,,,,,,,W,160,circle,1,0,,3,,,,,,,,,,,,,,switch,number,numSwt,k,vtsPrac,5,0,5,0,1,0.9835,,,,,,,,,,,,,,,,,,,,,,,
292369,2022-10-05_09h05.22.298,vts_reward_expectancy,2022.2.4,Win32,60.0060006,Chrome,1536,864,,,,,0,576,,,,,,,,,,,,,,,,,Y,146,hexagon,1,0,,3,,,,,,,,,,,,,,switch,letter,lettSwt,f,vtsPrac,6,0,6,0,1,1.2712,,,,,,,,,,,,,,,,,,,,,,,
292369,2022-10-05_09h05.22.298,vts_reward_expectancy,2022.2.4,Win32,60.0060006,Chrome,1536,864,,,,,0,576,,,,,,,,,,,,,,,,,B,132,star,1,0,,3,,,,,,,,,,,,,,switch,number,numSwt,j,vtsPrac,7,0,7,0,1,1.1541,,,,,,,,,,,,,,,,,,,,,,,
292369,2022-10-05_09h05.22.298,vts_reward_expectancy,2022.2.4,Win32,60.0060006,Chrome,1536,864,,,,,0,576,,,,,,,,,,,,,,,,,B,167,triangle,1,0,,3,,,,,,,,,,,,,,repeat,number,numRpt,k,vtsPrac,8,0,8,0,1,1.5342,,,,,,,,,,,,,,,,,,,,,,,
292369,2022-10-05_09h05.22.298,vts_reward_expectancy,2022.2.4,Win32,60.0060006,Chrome,1536,864,,,,,0,576,,,,,,,,,,,,,,,,,H,160,star,1,0,,3,,,,,,,,,,,,,,switch,letter,lettSwt,d,vtsPrac,9,0,9,0,1,0.6674,,,,,,,,,,,,,,,,,,,,,,,
292369,2022-10-05_09h05.22.298,vts_reward_expectancy,2022.2.4,Win32,60.0060006,Chrome,1536,864,,,,,0,576,,,,,,,,,,,,,,,,,D,181,star,1,0,,3,,,,,,,,,,,,,,repeat,letter,lettRpt,d,vtsPrac,10,0,10,0,1,1.3372,,,,,,,,,,,,,,,,,,,,,,,
292369,2022-10-05_09h05.22.298,vts_reward_expectancy,2022.2.4,Win32,60.0060006,Chrome,1536,864,,,,,0,576,,,,,,,,,,,,,,,,,U,139,hexagon,1,0,,3,,,,,,,,,,,,,,switch,number,numSwt,j,vtsPrac,11,0,11,0,1,0.9614,,,,,,,,,,,,,,,,,,,,,,,
292369,2022-10-05_09h05.22.298,vts_reward_expectancy,2022.2.4,Win32,60.0060006,Chrome,1536,864,,,,,0,576,,,,,,,,,,,,,,,,,B,146,circle,1,0,,3,,,,,,,,,,,,,,repeat,number,numRpt,j,vtsPrac,12,0,12,0,1,1.9999,,,,,,,,,,,,,,,,,,,,,,,
292369,2022-10-05_09h05.22.298,vts_reward_expectancy,2022.2.4,Win32,60.0060006,Chrome,1536,864,,,,,0,576,,,,,,,,,,,,,,,,,D,139,star,1,0,,3,,,,,,,,,,,,,,switch,letter,lettSwt,d,vtsPrac,13,0,13,0,1,1.62,,,,,,,,,,,,,,,,,,,,,,,
292369,2022-10-05_09h05.22.298,vts_reward_expectancy,2022.2.4,Win32,60.0060006,Chrome,1536,864,,,,,0,576,,,,,,,,,,,,,,,,,F,174,circle,1,0,,3,,,,,,,,,,,,,,switch,number,numSwt,k,vtsPrac,14,0,14,0,1,2.0657,,,,,,,,,,,,,,,,,,,,,,,
292369,2022-10-05_09h05.22.298,vts_reward_expectancy,2022.2.4,Win32,60.0060006,Chrome,1536,864,,,,,0,576,,,,,,,,,,,,,,,,,W,167,hexagon,1,0,,3,,,,,,,,,,,,,,switch,letter,lettSwt,f,vtsPrac,15,0,15,0,1,2.2333,,,,,,,,,,,,,,,,,,,,,,,
292369,2022-10-05_09h05.22.298,vts_reward_expectancy,2022.2.4,Win32,60.0060006,Chrome,1536,864,,,,,,,,,,,,,,,,,,,,,,,,,,,,,,,,,,,,,,,,,,,,,,,,,,,,,,,,,,,,,,,,,,,,,,,,,,,,
292369,2022-10-05_09h05.22.298,vts_reward_expectancy,2022.2.4,Win32,60.0060006,Chrome,1536,864,,,,,,,,,,,,,,,,,,,,,,,,,,,,,,,,,,,,,,,,,,,,,,,,,,,,,,,,,,,,,,,,,,,,,,,,,,,,
292369,2022-10-05_09h05.22.298,vts_reward_expectancy,2022.2.4,Win32,60.0060006,Chrome,1536,864,,,,,0,576,,,,,,,,,,,,,,,,,F,181,triangle,1,0,,,,,,,,,,,,,,,,repeat,letter,lettRpt,d,noRew,,,,,,1.5293,0,0,0,0,0,1,,,,,,,,,,,,,,,,,
292369,2022-10-05_09h05.22.298,vts_reward_expectancy,2022.2.4,Win32,60.0060006,Chrome,1536,864,,,,,0,576,,,,,,,,,,,,,,,,,U,167,hexagon,1,0,,,,,,,,,,,,,,,,repeat,letter,lettRpt,f,noRew,,,,,,1.3335,0,1,0,1,0,1,,,,,,,,,,,,,,,,,
292369,2022-10-05_09h05.22.298,vts_reward_expectancy,2022.2.4,Win32,60.0060006,Chrome,1536,864,,,,,0,576,,,,,,,,,,,,,,,,,D,139,triangle,1,0,,,,,,,,,,,,,,,,switch,number,numSwt,j,noRew,,,,,,1.0992,0,2,0,2,0,1,,,,,,,,,,,,,,,,,
292369,2022-10-05_09h05.22.298,vts_reward_expectancy,2022.2.4,Win32,60.0060006,Chrome,1536,864,,,,,0,576,,,,,,,,,,,,,,,,,S,174,hexagon,1,0,,,,,,,,,,,,,,,,repeat,number,numRpt,k,noRew,,,,,,0.8175,0,3,0,3,0,1,,,,,,,,,,,,,,,,,
292369,2022-10-05_09h05.22.298,vts_reward_expectancy,2022.2.4,Win32,60.0060006,Chrome,1536,864,,,,,0,576,,,,,,,,,,,,,,,,,F,181,star,1,0,,,,,,,,,,,,,,,,switch,letter,lettSwt,d,noRew,,,,,,0.7842,0,4,0,4,0,1,,,,,,,,,,,,,,,,,
292369,2022-10-05_09h05.22.298,vts_reward_expectancy,2022.2.4,Win32,60.0060006,Chrome,1536,864,,,,,0,576,,,,,,,,,,,,,,,,,U,167,triangle,1,0,,,,,,,,,,,,,,,,repeat,letter,lettRpt,f,noRew,,,,,,1.663,0,5,0,5,0,1,,,,,,,,,,,,,,,,,
292369,2022-10-05_09h05.22.298,vts_reward_expectancy,2022.2.4,Win32,60.0060006,Chrome,1536,864,,,,,0,576,,,,,,,,,,,,,,,,,D,139,triangle,1,0,,,,,,,,,,,,,,,,switch,number,numSwt,j,noRew,,,,,,1.4686,0,6,0,6,0,1,,,,,,,,,,,,,,,,,
292369,2022-10-05_09h05.22.298,vts_reward_expectancy,2022.2.4,Win32,60.0060006,Chrome,1536,864,,,,,0,576,,,,,,,,,,,,,,,,,S,174,circle,1,0,,,,,,,,,,,,,,,,repeat,number,numRpt,k,noRew,,,,,,1.767,0,7,0,7,0,1,,,,,,,,,,,,,,,,,
292369,2022-10-05_09h05.22.298,vts_reward_expectancy,2022.2.4,Win32,60.0060006,Chrome,1536,864,,,,,0,576,,,,,,,,,,,,,,,,,Y,181,triangle,1,0,,,,,,,,,,,,,,,,repeat,number,numRpt,k,noRew,,,,,,1.449,0,8,0,8,0,1,,,,,,,,,,,,,,,,,
292369,2022-10-05_09h05.22.298,vts_reward_expectancy,2022.2.4,Win32,60.0060006,Chrome,1536,864,,,,,0,576,,,,,,,,,,,,,,,,,S,132,circle,1,0,,,,,,,,,,,,,,,,repeat,number,numRpt,j,noRew,,,,,,1.9,0,9,0,9,0,1,,,,,,,,,,,,,,,,,
292369,2022-10-05_09h05.22.298,vts_reward_expectancy,2022.2.4,Win32,60.0060006,Chrome,1536,864,,,,,0,576,,,,,,,,,,,,,,,,,W,125,star,1,0,,,,,,,,,,,,,,,,switch,letter,lettSwt,f,noRew,,,,,,1.4346,0,10,0,10,0,1,,,,,,,,,,,,,,,,,
292369,2022-10-05_09h05.22.298,vts_reward_expectancy,2022.2.4,Win32,60.0060006,Chrome,1536,864,,,,,0,576,,,,,,,,,,,,,,,,,B,160,circle,1,0,,,,,,,,,,,,,,,,repeat,letter,lettRpt,d,noRew,,,,,,1.0502,0,11,0,11,0,1,,,,,,,,,,,,,,,,,
292369,2022-10-05_09h05.22.298,vts_reward_expectancy,2022.2.4,Win32,60.0060006,Chrome,1536,864,,,,,0,576,,,,,,,,,,,,,,,,,U,146,circle,1,0,,,,,,,,,,,,,,,,repeat,letter,lettRpt,f,noRew,,,,,,0.8511,0,12,0,12,0,1,,,,,,,,,,,,,,,,,
292369,2022-10-05_09h05.22.298,vts_reward_expectancy,2022.2.4,Win32,60.0060006,Chrome,1536,864,,,,,0,576,,,,,,,,,,,,,,,,,D,125,triangle,-1,0,,,,,,,,,,,,,,,,switch,no_choice,NA,,noRew,,,,,,,0,13,0,13,0,1,,,,,,,,,,,,,,,,,
292369,2022-10-05_09h05.22.298,vts_reward_expectancy,2022.2.4,Win32,60.0060006,Chrome,1536,864,,,,,0,576,,,,,,,,,,,,,,,,,F,181,hexagon,1,0,,,,,,,,,,,,,,,,switch,number,numSwt,k,noRew,,,,,,0.6901,0,14,0,14,0,1,,,,,,,,,,,,,,,,,
292369,2022-10-05_09h05.22.298,vts_reward_expectancy,2022.2.4,Win32,60.0060006,Chrome,1536,864,,,,,0,576,,,,,,,,,,,,,,,,,S,167,triangle,1,0,,,,,,,,,,,,,,,,repeat,number,numRpt,k,noRew,,,,,,1.4058,0,15,0,15,0,1,,,,,,,,,,,,,,,,,
292369,2022-10-05_09h05.22.298,vts_reward_expectancy,2022.2.4,Win32,60.0060006,Chrome,1536,864,,,,,0,576,,,,,,,,,,,,,,,,,B,146,star,1,0,,,,,,,,,,,,,,,,repeat,number,numRpt,j,noRew,,,,,,1.4158,0,16,0,16,0,1,,,,,,,,,,,,,,,,,
292369,2022-10-05_09h05.22.298,vts_reward_expectancy,2022.2.4,Win32,60.0060006,Chrome,1536,864,,,,,0,576,,,,,,,,,,,,,,,,,U,174,triangle,1,0,,,,,,,,,,,,,,,,switch,letter,lettSwt,f,noRew,,,,,,1.8839,0,17,0,17,0,1,,,,,,,,,,,,,,,,,
292369,2022-10-05_09h05.22.298,vts_reward_expectancy,2022.2.4,Win32,60.0060006,Chrome,1536,864,,,,,0,576,,,,,,,,,,,,,,,,,Y,160,hexagon,1,0,,,,,,,,,,,,,,,,repeat,letter,lettRpt,f,noRew,,,,,,0.9512,0,18,0,18,0,1,,,,,,,,,,,,,,,,,
292369,2022-10-05_09h05.22.298,vts_reward_expectancy,2022.2.4,Win32,60.0060006,Chrome,1536,864,,,,,0,576,,,,,,,,,,,,,,,,,D,125,circle,1,0,,,,,,,,,,,,,,,,repeat,letter,lettRpt,d,noRew,,,,,,0.9679,0,19,0,19,0,1,,,,,,,,,,,,,,,,,
292369,2022-10-05_09h05.22.298,vts_reward_expectancy,2022.2.4,Win32,60.0060006,Chrome,1536,864,,,,,0,576,,,,,,,,,,,,,,,,,S,160,hexagon,0,0,,,,,,,,,,,,,,,,repeat,letter,NA,d,noRew,,,,,,2.7345,0,20,0,20,0,1,,,,,,,,,,,,,,,,,
292369,2022-10-05_09h05.22.298,vts_reward_expectancy,2022.2.4,Win32,60.0060006,Chrome,1536,864,,,,,0,576,,,,,,,,,,,,,,,,,D,146,star,1,1,,,,,,,,,,,,,,,,repeat,letter,lettRpt,d,noRew,,,,,,0.7171,0,21,0,21,0,1,,,,,,,,,,,,,,,,,
292369,2022-10-05_09h05.22.298,vts_reward_expectancy,2022.2.4,Win32,60.0060006,Chrome,1536,864,,,,,0,576,,,,,,,,,,,,,,,,,Y,139,star,1,0,,,,,,,,,,,,,,,,repeat,letter,lettRpt,f,noRew,,,,,,1.7508,0,22,0,22,0,1,,,,,,,,,,,,,,,,,
292369,2022-10-05_09h05.22.298,vts_reward_expectancy,2022.2.4,Win32,60.0060006,Chrome,1536,864,,,,,0,576,,,,,,,,,,,,,,,,,B,174,circle,1,0,,,,,,,,,,,,,,,,repeat,letter,lettRpt,d,noRew,,,,,,1.363,0,23,0,23,0,1,,,,,,,,,,,,,,,,,
292369,2022-10-05_09h05.22.298,vts_reward_expectancy,2022.2.4,Win32,60.0060006,Chrome,1536,864,,,,,0,576,,,,,,,,,,,,,,,,,W,174,triangle,1,0,,,,,,,,,,,,,,,,repeat,letter,lettRpt,f,noRew,,,,,,0.9338,0,24,0,24,0,1,,,,,,,,,,,,,,,,,
292369,2022-10-05_09h05.22.298,vts_reward_expectancy,2022.2.4,Win32,60.0060006,Chrome,1536,864,,,,,0,576,,,,,,,,,,,,,,,,,D,181,circle,1,0,,,,,,,,,,,,,,,,switch,number,numSwt,k,noRew,,,,,,2.3663,0,25,0,25,0,1,,,,,,,,,,,,,,,,,
292369,2022-10-05_09h05.22.298,vts_reward_expectancy,2022.2.4,Win32,60.0060006,Chrome,1536,864,,,,,0,576,,,,,,,,,,,,,,,,,H,146,triangle,1,0,,,,,,,,,,,,,,,,repeat,number,numRpt,j,noRew,,,,,,1.4069,0,26,0,26,0,1,,,,,,,,,,,,,,,,,
292369,2022-10-05_09h05.22.298,vts_reward_expectancy,2022.2.4,Win32,60.0060006,Chrome,1536,864,,,,,0,576,,,,,,,,,,,,,,,,,F,139,hexagon,1,0,,,,,,,,,,,,,,,,repeat,number,numRpt,j,noRew,,,,,,2.2344,0,27,0,27,0,1,,,,,,,,,,,,,,,,,
292369,2022-10-05_09h05.22.298,vts_reward_expectancy,2022.2.4,Win32,60.0060006,Chrome,1536,864,,,,,0,576,,,,,,,,,,,,,,,,,W,160,star,1,0,,,,,,,,,,,,,,,,switch,letter,lettSwt,f,noRew,,,,,,1.9343,0,28,0,28,0,1,,,,,,,,,,,,,,,,,
292369,2022-10-05_09h05.22.298,vts_reward_expectancy,2022.2.4,Win32,60.0060006,Chrome,1536,864,,,,,0,576,,,,,,,,,,,,,,,,,Y,146,triangle,1,0,,,,,,,,,,,,,,,,repeat,letter,lettRpt,f,noRew,,,,,,1.4012,0,29,0,29,0,1,,,,,,,,,,,,,,,,,
292369,2022-10-05_09h05.22.298,vts_reward_expectancy,2022.2.4,Win32,60.0060006,Chrome,1536,864,,,,,0,576,,,,,,,,,,,,,,,,,F,167,star,0,0,,,,,,,,,,,,,,,,repeat,letter,NA,f,noRew,,,,,,1.6759,0,30,0,30,0,1,,,,,,,,,,,,,,,,,
292369,2022-10-05_09h05.22.298,vts_reward_expectancy,2022.2.4,Win32,60.0060006,Chrome,1536,864,,,,,0,576,,,,,,,,,,,,,,,,,D,174,circle,0,1,,,,,,,,,,,,,,,,switch,number,NA,j,noRew,,,,,,2.6341,0,31,0,31,0,1,,,,,,,,,,,,,,,,,
292369,2022-10-05_09h05.22.298,vts_reward_expectancy,2022.2.4,Win32,60.0060006,Chrome,1536,864,,,,,0,576,,,,,,,,,,,,,,,,,S,167,hexagon,1,1,,,,,,,,,,,,,,,,repeat,number,numRpt,k,noRew,,,,,,1.4347,0,32,0,32,0,1,,,,,,,,,,,,,,,,,
292369,2022-10-05_09h05.22.298,vts_reward_expectancy,2022.2.4,Win32,60.0060006,Chrome,1536,864,,,,,0,576,,,,,,,,,,,,,,,,,W,139,circle,1,0,,,,,,,,,,,,,,,,repeat,number,numRpt,j,noRew,,,,,,1.5345,0,33,0,33,0,1,,,,,,,,,,,,,,,,,
292369,2022-10-05_09h05.22.298,vts_reward_expectancy,2022.2.4,Win32,60.0060006,Chrome,1536,864,,,,,0,576,,,,,,,,,,,,,,,,,F,132,hexagon,1,0,,,,,,,,,,,,,,,,repeat,number,numRpt,j,noRew,,,,,,2.7115,0,34,0,34,0,1,,,,,,,,,,,,,,,,,
292369,2022-10-05_09h05.22.298,vts_reward_expectancy,2022.2.4,Win32,60.0060006,Chrome,1536,864,,,,,0,576,,,,,,,,,,,,,,,,,B,174,triangle,1,0,,,,,,,,,,,,,,,,repeat,number,numRpt,k,noRew,,,,,,1.3795,0,35,0,35,0,1,,,,,,,,,,,,,,,,,
292369,2022-10-05_09h05.22.298,vts_reward_expectancy,2022.2.4,Win32,60.0060006,Chrome,1536,864,,,,,0,576,,,,,,,,,,,,,,,,,U,167,triangle,0,0,,,,,,,,,,,,,,,,repeat,number,NA,j,noRew,,,,,,2.6178,0,36,0,36,0,1,,,,,,,,,,,,,,,,,
292369,2022-10-05_09h05.22.298,vts_reward_expectancy,2022.2.4,Win32,60.0060006,Chrome,1536,864,,,,,0,576,,,,,,,,,,,,,,,,,S,125,hexagon,1,1,,,,,,,,,,,,,,,,repeat,number,numRpt,j,noRew,,,,,,1.623,0,37,0,37,0,1,,,,,,,,,,,,,,,,,
292369,2022-10-05_09h05.22.298,vts_reward_expectancy,2022.2.4,Win32,60.0060006,Chrome,1536,864,,,,,0,576,,,,,,,,,,,,,,,,,H,174,star,0,0,,,,,,,,,,,,,,,,repeat,number,NA,j,noRew,,,,,,2.4672,0,38,0,38,0,1,,,,,,,,,,,,,,,,,
292369,2022-10-05_09h05.22.298,vts_reward_expectancy,2022.2.4,Win32,60.0060006,Chrome,1536,864,,,,,0,576,,,,,,,,,,,,,,,,,W,146,triangle,1,1,,,,,,,,,,,,,,,,repeat,number,numRpt,j,noRew,,,,,,2.7051,0,39,0,39,0,1,,,,,,,,,,,,,,,,,
292369,2022-10-05_09h05.22.298,vts_reward_expectancy,2022.2.4,Win32,60.0060006,Chrome,1536,864,,,,,0,576,,,,,,,,,,,,,,,,,Y,174,circle,1,0,,,,,,,,,,,,,,,,repeat,number,numRpt,k,noRew,,,,,,1.5848,0,40,0,40,0,1,,,,,,,,,,,,,,,,,
292369,2022-10-05_09h05.22.298,vts_reward_expectancy,2022.2.4,Win32,60.0060006,Chrome,1536,864,,,,,0,576,,,,,,,,,,,,,,,,,W,181,hexagon,-1,0,,,,,,,,,,,,,,,,switch,no_choice,NA,,noRew,,,,,,,0,41,0,41,0,1,,,,,,,,,,,,,,,,,
292369,2022-10-05_09h05.22.298,vts_reward_expectancy,2022.2.4,Win32,60.0060006,Chrome,1536,864,,,,,0,576,,,,,,,,,,,,,,,,,D,139,star,-1,0,,,,,,,,,,,,,,,,repeat,no_choice,NA,,noRew,,,,,,,0,42,0,42,0,1,,,,,,,,,,,,,,,,,
292369,2022-10-05_09h05.22.298,vts_reward_expectancy,2022.2.4,Win32,60.0060006,Chrome,1536,864,,,,,0,576,,,,,,,,,,,,,,,,,B,132,circle,1,0,,,,,,,,,,,,,,,,switch,number,numSwt,j,noRew,,,,,,1.2836,0,43,0,43,0,1,,,,,,,,,,,,,,,,,
292369,2022-10-05_09h05.22.298,vts_reward_expectancy,2022.2.4,Win32,60.0060006,Chrome,1536,864,,,,,0,576,,,,,,,,,,,,,,,,,W,160,hexagon,1,0,,,,,,,,,,,,,,,,repeat,number,numRpt,k,noRew,,,,,,1.4181,0,44,0,44,0,1,,,,,,,,,,,,,,,,,
292369,2022-10-05_09h05.22.298,vts_reward_expectancy,2022.2.4,Win32,60.0060006,Chrome,1536,864,,,,,0,576,,,,,,,,,,,,,,,,,D,125,triangle,1,0,,,,,,,,,,,,,,,,repeat,number,numRpt,j,noRew,,,,,,1.8122,0,45,0,45,0,1,,,,,,,,,,,,,,,,,
292369,2022-10-05_09h05.22.298,vts_reward_expectancy,2022.2.4,Win32,60.0060006,Chrome,1536,864,,,,,0,576,,,,,,,,,,,,,,,,,H,146,circle,1,0,,,,,,,,,,,,,,,,repeat,number,numRpt,j,noRew,,,,,,1.4795,0,46,0,46,0,1,,,,,,,,,,,,,,,,,
292369,2022-10-05_09h05.22.298,vts_reward_expectancy,2022.2.4,Win32,60.0060006,Chrome,1536,864,,,,,0,576,,,,,,,,,,,,,,,,,U,139,hexagon,0,0,,,,,,,,,,,,,,,,switch,letter,NA,d,noRew,,,,,,2.3466,0,47,0,47,0,1,,,,,,,,,,,,,,,,,
292369,2022-10-05_09h05.22.298,vts_reward_expectancy,2022.2.4,Win32,60.0060006,Chrome,1536,864,,,,,0,576,,,,,,,,,,,,,,,,,F,181,triangle,1,1,,,,,,,,,,,,,,,,repeat,letter,lettRpt,d,noRew,,,,,,0.8246,0,48,0,48,0,1,,,,,,,,,,,,,,,,,
292369,2022-10-05_09h05.22.298,vts_reward_expectancy,2022.2.4,Win32,60.0060006,Chrome,1536,864,,,,,0,576,,,,,,,,,,,,,,,,,U,160,hexagon,1,0,,,,,,,,,,,,,,,,repeat,letter,lettRpt,f,noRew,,,,,,0.8005,0,49,0,49,0,1,,,,,,,,,,,,,,,,,
292369,2022-10-05_09h05.22.298,vts_reward_expectancy,2022.2.4,Win32,60.0060006,Chrome,1536,864,,,,,0,576,,,,,,,,,,,,,,,,,W,125,triangle,1,0,,,,,,,,,,,,,,,,repeat,letter,lettRpt,f,noRew,,,,,,1.0182,0,50,0,50,0,1,,,,,,,,,,,,,,,,,
292369,2022-10-05_09h05.22.298,vts_reward_expectancy,2022.2.4,Win32,60.0060006,Chrome,1536,864,,,,,0,576,,,,,,,,,,,,,,,,,H,132,circle,1,0,,,,,,,,,,,,,,,,repeat,letter,lettRpt,d,noRew,,,,,,0.8694,0,51,0,51,0,1,,,,,,,,,,,,,,,,,
292369,2022-10-05_09h05.22.298,vts_reward_expectancy,2022.2.4,Win32,60.0060006,Chrome,1536,864,,,,,0,576,,,,,,,,,,,,,,,,,W,132,circle,1,0,,,,,,,,,,,,,,,,repeat,letter,lettRpt,f,noRew,,,,,,1.1815,0,52,0,52,0,1,,,,,,,,,,,,,,,,,
292369,2022-10-05_09h05.22.298,vts_reward_expectancy,2022.2.4,Win32,60.0060006,Chrome,1536,864,,,,,0,576,,,,,,,,,,,,,,,,,H,125,triangle,1,0,,,,,,,,,,,,,,,,repeat,letter,lettRpt,d,noRew,,,,,,0.951,0,53,0,53,0,1,,,,,,,,,,,,,,,,,
292369,2022-10-05_09h05.22.298,vts_reward_expectancy,2022.2.4,Win32,60.0060006,Chrome,1536,864,,,,,0,576,,,,,,,,,,,,,,,,,U,174,hexagon,1,0,,,,,,,,,,,,,,,,repeat,letter,lettRpt,f,noRew,,,,,,0.9954,0,54,0,54,0,1,,,,,,,,,,,,,,,,,
292369,2022-10-05_09h05.22.298,vts_reward_expectancy,2022.2.4,Win32,60.0060006,Chrome,1536,864,,,,,0,576,,,,,,,,,,,,,,,,,S,160,triangle,1,0,,,,,,,,,,,,,,,,repeat,letter,lettRpt,f,noRew,,,,,,1.7804,0,55,0,55,0,1,,,,,,,,,,,,,,,,,
292369,2022-10-05_09h05.22.298,vts_reward_expectancy,2022.2.4,Win32,60.0060006,Chrome,1536,864,,,,,0,576,,,,,,,,,,,,,,,,,D,167,star,1,0,,,,,,,,,,,,,,,,repeat,letter,lettRpt,d,noRew,,,,,,1.3627,0,56,0,56,0,1,,,,,,,,,,,,,,,,,
292369,2022-10-05_09h05.22.298,vts_reward_expectancy,2022.2.4,Win32,60.0060006,Chrome,1536,864,,,,,0,576,,,,,,,,,,,,,,,,,B,181,triangle,1,0,,,,,,,,,,,,,,,,repeat,letter,lettRpt,d,noRew,,,,,,2.6167,0,57,0,57,0,1,,,,,,,,,,,,,,,,,
292369,2022-10-05_09h05.22.298,vts_reward_expectancy,2022.2.4,Win32,60.0060006,Chrome,1536,864,,,,,0,576,,,,,,,,,,,,,,,,,Y,146,hexagon,1,0,,,,,,,,,,,,,,,,repeat,letter,lettRpt,f,noRew,,,,,,0.884,0,58,0,58,0,1,,,,,,,,,,,,,,,,,
292369,2022-10-05_09h05.22.298,vts_reward_expectancy,2022.2.4,Win32,60.0060006,Chrome,1536,864,,,,,0,576,,,,,,,,,,,,,,,,,H,174,circle,1,0,,,,,,,,,,,,,,,,repeat,letter,lettRpt,d,noRew,,,,,,1.6683,0,59,0,59,0,1,,,,,,,,,,,,,,,,,
292369,2022-10-05_09h05.22.298,vts_reward_expectancy,2022.2.4,Win32,60.0060006,Chrome,1536,864,,,,,0,576,,,,,,,,,,,,,,,,,U,146,hexagon,1,0,,,,,,,,,,,,,,,,repeat,letter,lettRpt,f,noRew,,,,,,2.1718,0,60,0,60,0,1,,,,,,,,,,,,,,,,,
292369,2022-10-05_09h05.22.298,vts_reward_expectancy,2022.2.4,Win32,60.0060006,Chrome,1536,864,,,,,0,576,,,,,,,,,,,,,,,,,Y,167,star,1,0,,,,,,,,,,,,,,,,repeat,letter,lettRpt,f,noRew,,,,,,2.6784,0,61,0,61,0,1,,,,,,,,,,,,,,,,,
292369,2022-10-05_09h05.22.298,vts_reward_expectancy,2022.2.4,Win32,60.0060006,Chrome,1536,864,,,,,0,576,,,,,,,,,,,,,,,,,B,139,hexagon,1,0,,,,,,,,,,,,,,,,repeat,letter,lettRpt,d,noRew,,,,,,2.398,0,62,0,62,0,1,,,,,,,,,,,,,,,,,
292369,2022-10-05_09h05.22.298,vts_reward_expectancy,2022.2.4,Win32,60.0060006,Chrome,1536,864,,,,,0,576,,,,,,,,,,,,,,,,,H,181,star,1,0,,,,,,,,,,,,,,,,repeat,letter,lettRpt,d,noRew,,,,,,1.8459,0,63,0,63,0,1,,,,,,,,,,,,,,,,,
292369,2022-10-05_09h05.22.298,vts_reward_expectancy,2022.2.4,Win32,60.0060006,Chrome,1536,864,,,,,,,,,,,,,,,,,,,,,,,,,,,,,,,,,,,,,,,,,,,,,,,,,,,,,,,,,,,,,,,,,,,,,,,,,,,,
292369,2022-10-05_09h05.22.298,vts_reward_expectancy,2022.2.4,Win32,60.0060006,Chrome,1536,864,,,,,0,576,,,,,,,,,,,,,,,,,B,174,hexagon,1,0,,,,,,,,,,,,,,,,repeat,letter,lettRpt,d,Hi,,,,,,1.4933,0,,,,,,space,7.4521,low,0,0,0,0,1,,,,,,,,,
292369,2022-10-05_09h05.22.298,vts_reward_expectancy,2022.2.4,Win32,60.0060006,Chrome,1536,864,,,,,10,586,,,,,,,,,,,,,,,,,W,167,triangle,1,0,,,,,,,,,,,,,,,,repeat,letter,lettRpt,f,Lo,,,,,,0.786,0,,,,,,,,low,1,0,1,0,1,,,,,,,,,
292369,2022-10-05_09h05.22.298,vts_reward_expectancy,2022.2.4,Win32,60.0060006,Chrome,1536,864,,,,,1,587,,,,,,,,,,,,,,,,,Y,181,hexagon,1,0,,,,,,,,,,,,,,,,repeat,letter,lettRpt,f,Hi,,,,,,0.944,0,,,,,,,,low,2,0,2,0,1,,,,,,,,,
292369,2022-10-05_09h05.22.298,vts_reward_expectancy,2022.2.4,Win32,60.0060006,Chrome,1536,864,,,,,1,588,,,,,,,,,,,,,,,,,D,160,triangle,1,0,,,,,,,,,,,,,,,,repeat,letter,lettRpt,d,Lo,,,,,,0.6067,0,,,,,,,,low,3,0,3,0,1,,,,,,,,,
292369,2022-10-05_09h05.22.298,vts_reward_expectancy,2022.2.4,Win32,60.0060006,Chrome,1536,864,,,,,10,598,,,,,,,,,,,,,,,,,H,146,hexagon,1,0,,,,,,,,,,,,,,,,switch,number,numSwt,j,Hi,,,,,,0.577,0,,,,,,,,low,4,0,4,0,1,,,,,,,,,
292369,2022-10-05_09h05.22.298,vts_reward_expectancy,2022.2.4,Win32,60.0060006,Chrome,1536,864,,,,,1,599,,,,,,,,,,,,,,,,,S,125,triangle,1,0,,,,,,,,,,,,,,,,switch,letter,lettSwt,f,Lo,,,,,,0.8317,0,,,,,,,,low,5,0,5,0,1,,,,,,,,,
292369,2022-10-05_09h05.22.298,vts_reward_expectancy,2022.2.4,Win32,60.0060006,Chrome,1536,864,,,,,0,599,,,,,,,,,,,,,,,,,U,139,hexagon,1,0,,,,,,,,,,,,,,,,switch,number,numSwt,j,Hi,,,,,,1.4729,0,,,,,,,,low,6,0,6,0,1,,,,,,,,,
292369,2022-10-05_09h05.22.298,vts_reward_expectancy,2022.2.4,Win32,60.0060006,Chrome,1536,864,,,,,10,609,,,,,,,,,,,,,,,,,F,132,triangle,1,0,,,,,,,,,,,,,,,,repeat,number,numRpt,j,Lo,,,,,,0.6009,0,,,,,,,,low,7,0,7,0,1,,,,,,,,,
292369,2022-10-05_09h05.22.298,vts_reward_expectancy,2022.2.4,Win32,60.0060006,Chrome,1536,864,,,,,10,619,,,,,,,,,,,,,,,,,B,174,triangle,1,0,,,,,,,,,,,,,,,,repeat,number,numRpt,k,Lo,,,,,,0.8156,0,,,,,,,,low,8,0,8,0,1,,,,,,,,,
292369,2022-10-05_09h05.22.298,vts_reward_expectancy,2022.2.4,Win32,60.0060006,Chrome,1536,864,,,,,1,620,,,,,,,,,,,,,,,,,W,167,hexagon,1,0,,,,,,,,,,,,,,,,repeat,number,numRpt,k,Hi,,,,,,0.8457,0,,,,,,,,low,9,0,9,0,1,,,,,,,,,
292369,2022-10-05_09h05.22.298,vts_reward_expectancy,2022.2.4,Win32,60.0060006,Chrome,1536,864,,,,,1,621,,,,,,,,,,,,,,,,,Y,181,triangle,1,0,,,,,,,,,,,,,,,,repeat,number,numRpt,k,Lo,,,,,,0.7303,0,,,,,,,,low,10,0,10,0,1,,,,,,,,,
292369,2022-10-05_09h05.22.298,vts_reward_expectancy,2022.2.4,Win32,60.0060006,Chrome,1536,864,,,,,10,631,,,,,,,,,,,,,,,,,D,160,hexagon,1,0,,,,,,,,,,,,,,,,repeat,number,numRpt,k,Hi,,,,,,0.6539,0,,,,,,,,low,11,0,11,0,1,,,,,,,,,
292369,2022-10-05_09h05.22.298,vts_reward_expectancy,2022.2.4,Win32,60.0060006,Chrome,1536,864,,,,,10,641,,,,,,,,,,,,,,,,,H,146,triangle,1,0,,,,,,,,,,,,,,,,repeat,number,numRpt,j,Lo,,,,,,0.6295,0,,,,,,,,low,12,0,12,0,1,,,,,,,,,
292369,2022-10-05_09h05.22.298,vts_reward_expectancy,2022.2.4,Win32,60.0060006,Chrome,1536,864,,,,,10,651,,,,,,,,,,,,,,,,,S,125,hexagon,1,0,,,,,,,,,,,,,,,,repeat,number,numRpt,j,Hi,,,,,,0.6239,0,,,,,,,,low,13,0,13,0,1,,,,,,,,,
292369,2022-10-05_09h05.22.298,vts_reward_expectancy,2022.2.4,Win32,60.0060006,Chrome,1536,864,,,,,1,652,,,,,,,,,,,,,,,,,U,139,hexagon,1,0,,,,,,,,,,,,,,,,switch,letter,lettSwt,f,Hi,,,,,,0.8162,0,,,,,,,,low,14,0,14,0,1,,,,,,,,,
292369,2022-10-05_09h05.22.298,vts_reward_expectancy,2022.2.4,Win32,60.0060006,Chrome,1536,864,,,,,1,653,,,,,,,,,,,,,,,,,F,132,triangle,1,0,,,,,,,,,,,,,,,,switch,number,numSwt,j,Lo,,,,,,0.5055,0,,,,,,,,low,15,0,15,0,1,,,,,,,,,
292369,2022-10-05_09h05.22.298,vts_reward_expectancy,2022.2.4,Win32,60.0060006,Chrome,1536,864,,,,,1,654,,,,,,,,,,,,,,,,,Y,174,triangle,1,0,,,,,,,,,,,,,,,,repeat,number,numRpt,k,Lo,,,,,,0.5637,0,,,,,,,,low,16,0,16,0,1,,,,,,,,,
292369,2022-10-05_09h05.22.298,vts_reward_expectancy,2022.2.4,Win32,60.0060006,Chrome,1536,864,,,,,10,664,,,,,,,,,,,,,,,,,U,132,hexagon,1,0,,,,,,,,,,,,,,,,switch,letter,lettSwt,f,Hi,,,,,,1.0015,0,,,,,,,,low,17,0,17,0,1,,,,,,,,,
292369,2022-10-05_09h05.22.298,vts_reward_expectancy,2022.2.4,Win32,60.0060006,Chrome,1536,864,,,,,10,674,,,,,,,,,,,,,,,,,D,167,triangle,1,0,,,,,,,,,,,,,,,,switch,number,numSwt,k,Lo,,,,,,1.5639,0,,,,,,,,low,18,0,18,0,1,,,,,,,,,
292369,2022-10-05_09h05.22.298,vts_reward_expectancy,2022.2.4,Win32,60.0060006,Chrome,1536,864,,,,,10,684,,,,,,,,,,,,,,,,,B,181,hexagon,1,0,,,,,,,,,,,,,,,,repeat,number,numRpt,k,Hi,,,,,,0.8562,0,,,,,,,,low,19,0,19,0,1,,,,,,,,,
292369,2022-10-05_09h05.22.298,vts_reward_expectancy,2022.2.4,Win32,60.0060006,Chrome,1536,864,,,,,10,694,,,,,,,,,,,,,,,,,W,125,triangle,1,0,,,,,,,,,,,,,,,,repeat,number,numRpt,j,Lo,,,,,,0.67,0,,,,,,,,low,20,0,20,0,1,,,,,,,,,
292369,2022-10-05_09h05.22.298,vts_reward_expectancy,2022.2.4,Win32,60.0060006,Chrome,1536,864,,,,,10,704,,,,,,,,,,,,,,,,,S,139,hexagon,1,0,,,,,,,,,,,,,,,,repeat,number,numRpt,j,Hi,,,,,,0.6975,0,,,,,,,,low,21,0,21,0,1,,,,,,,,,
292369,2022-10-05_09h05.22.298,vts_reward_expectancy,2022.2.4,Win32,60.0060006,Chrome,1536,864,,,,,10,714,,,,,,,,,,,,,,,,,F,146,hexagon,1,0,,,,,,,,,,,,,,,,repeat,number,numRpt,j,Hi,,,,,,0.5809,0,,,,,,,,low,22,0,22,0,1,,,,,,,,,
292369,2022-10-05_09h05.22.298,vts_reward_expectancy,2022.2.4,Win32,60.0060006,Chrome,1536,864,,,,,1,715,,,,,,,,,,,,,,,,,H,160,triangle,1,0,,,,,,,,,,,,,,,,repeat,number,numRpt,k,Lo,,,,,,0.8369,0,,,,,,,,low,23,0,23,0,1,,,,,,,,,
292369,2022-10-05_09h05.22.298,vts_reward_expectancy,2022.2.4,Win32,60.0060006,Chrome,1536,864,,,,,10,725,,,,,,,,,,,,,,,,,S,146,triangle,1,0,,,,,,,,,,,,,,,,repeat,number,numRpt,j,Lo,,,,,,0.7073,0,,,,,,,,low,24,0,24,0,1,,,,,,,,,
292369,2022-10-05_09h05.22.298,vts_reward_expectancy,2022.2.4,Win32,60.0060006,Chrome,1536,864,,,,,10,735,,,,,,,,,,,,,,,,,F,132,hexagon,1,0,,,,,,,,,,,,,,,,repeat,number,numRpt,j,Hi,,,,,,0.6046,0,,,,,,,,low,25,0,25,0,1,,,,,,,,,
292369,2022-10-05_09h05.22.298,vts_reward_expectancy,2022.2.4,Win32,60.0060006,Chrome,1536,864,,,,,1,736,,,,,,,,,,,,,,,,,U,167,triangle,1,0,,,,,,,,,,,,,,,,repeat,number,numRpt,k,Lo,,,,,,0.82,0,,,,,,,,low,26,0,26,0,1,,,,,,,,,
292369,2022-10-05_09h05.22.298,vts_reward_expectancy,2022.2.4,Win32,60.0060006,Chrome,1536,864,,,,,1,737,,,,,,,,,,,,,,,,,Y,174,hexagon,1,0,,,,,,,,,,,,,,,,repeat,number,numRpt,k,Hi,,,,,,1.2132,0,,,,,,,,low,27,0,27,0,1,,,,,,,,,
292369,2022-10-05_09h05.22.298,vts_reward_expectancy,2022.2.4,Win32,60.0060006,Chrome,1536,864,,,,,0,737,,,,,,,,,,,,,,,,,W,160,hexagon,1,0,,,,,,,,,,,,,,,,repeat,number,numRpt,k,Hi,,,,,,1.5138,0,,,,,,,,low,28,0,28,0,1,,,,,,,,,
292369,2022-10-05_09h05.22.298,vts_reward_expectancy,2022.2.4,Win32,60.0060006,Chrome,1536,864,,,,,1,738,,,,,,,,,,,,,,,,,H,125,triangle,1,0,,,,,,,,,,,,,,,,switch,letter,lettSwt,d,Lo,,,,,,0.3037,0,,,,,,,,low,29,0,29,0,1,,,,,,,,,
292369,2022-10-05_09h05.22.298,vts_reward_expectancy,2022.2.4,Win32,60.0060006,Chrome,1536,864,,,,,1,739,,,,,,,,,,,,,,,,,D,139,hexagon,1,0,,,,,,,,,,,,,,,,switch,number,numSwt,j,Hi,,,,,,0.5948,0,,,,,,,,low,30,0,30,0,1,,,,,,,,,
292369,2022-10-05_09h05.22.298,vts_reward_expectancy,2022.2.4,Win32,60.0060006,Chrome,1536,864,,,,,1,740,,,,,,,,,,,,,,,,,B,181,triangle,1,0,,,,,,,,,,,,,,,,repeat,number,numRpt,k,Lo,,,,,,0.8465,0,,,,,,,,low,31,0,31,0,1,,,,,,,,,
292369,2022-10-05_09h05.22.298,vts_reward_expectancy,2022.2.4,Win32,60.0060006,Chrome,1536,864,,,,,10,750,,,,,,,,,,,,,,,,,Y,167,triangle,1,0,,,,,,,,,,,,,,,,switch,letter,lettSwt,f,Lo,,,,,,1.4497,1,,,,,,space,1.1683,low,0,0,0,0,1,,,,,,,,,
292369,2022-10-05_09h05.22.298,vts_reward_expectancy,2022.2.4,Win32,60.0060006,Chrome,1536,864,,,,,0,750,,,,,,,,,,,,,,,,,U,132,hexagon,1,0,,,,,,,,,,,,,,,,repeat,letter,lettRpt,f,Hi,,,,,,1.1545,1,,,,,,,,low,1,0,1,0,1,,,,,,,,,
292369,2022-10-05_09h05.22.298,vts_reward_expectancy,2022.2.4,Win32,60.0060006,Chrome,1536,864,,,,,1,751,,,,,,,,,,,,,,,,,D,139,triangle,1,0,,,,,,,,,,,,,,,,switch,number,numSwt,j,Lo,,,,,,0.7275,1,,,,,,,,low,2,0,2,0,1,,,,,,,,,
292369,2022-10-05_09h05.22.298,vts_reward_expectancy,2022.2.4,Win32,60.0060006,Chrome,1536,864,,,,,0,751,,,,,,,,,,,,,,,,,B,160,hexagon,1,0,,,,,,,,,,,,,,,,repeat,number,numRpt,k,Hi,,,,,,0.7203,1,,,,,,,,low,3,0,3,0,1,,,,,,,,,
292369,2022-10-05_09h05.22.298,vts_reward_expectancy,2022.2.4,Win32,60.0060006,Chrome,1536,864,,,,,10,761,,,,,,,,,,,,,,,,,F,181,triangle,1,0,,,,,,,,,,,,,,,,repeat,number,numRpt,k,Lo,,,,,,0.5459,1,,,,,,,,low,4,0,4,0,1,,,,,,,,,
292369,2022-10-05_09h05.22.298,vts_reward_expectancy,2022.2.4,Win32,60.0060006,Chrome,1536,864,,,,,10,771,,,,,,,,,,,,,,,,,S,125,hexagon,1,0,,,,,,,,,,,,,,,,repeat,number,numRpt,j,Hi,,,,,,0.6112,1,,,,,,,,low,5,0,5,0,1,,,,,,,,,
292369,2022-10-05_09h05.22.298,vts_reward_expectancy,2022.2.4,Win32,60.0060006,Chrome,1536,864,,,,,10,781,,,,,,,,,,,,,,,,,W,146,hexagon,1,0,,,,,,,,,,,,,,,,repeat,number,numRpt,j,Hi,,,,,,0.5853,1,,,,,,,,low,6,0,6,0,1,,,,,,,,,
292369,2022-10-05_09h05.22.298,vts_reward_expectancy,2022.2.4,Win32,60.0060006,Chrome,1536,864,,,,,10,791,,,,,,,,,,,,,,,,,H,174,triangle,1,0,,,,,,,,,,,,,,,,repeat,number,numRpt,k,Lo,,,,,,0.6468,1,,,,,,,,low,7,0,7,0,1,,,,,,,,,
292369,2022-10-05_09h05.22.298,vts_reward_expectancy,2022.2.4,Win32,60.0060006,Chrome,1536,864,,,,,0,791,,,,,,,,,,,,,,,,,Y,167,hexagon,1,0,,,,,,,,,,,,,,,,repeat,number,numRpt,k,Hi,,,,,,0.6611,1,,,,,,,,low,8,0,8,0,1,,,,,,,,,
292369,2022-10-05_09h05.22.298,vts_reward_expectancy,2022.2.4,Win32,60.0060006,Chrome,1536,864,,,,,1,792,,,,,,,,,,,,,,,,,U,132,triangle,1,0,,,,,,,,,,,,,,,,repeat,number,numRpt,j,Lo,,,,,,0.6797,1,,,,,,,,low,9,0,9,0,1,,,,,,,,,
292369,2022-10-05_09h05.22.298,vts_reward_expectancy,2022.2.4,Win32,60.0060006,Chrome,1536,864,,,,,10,802,,,,,,,,,,,,,,,,,D,139,triangle,1,0,,,,,,,,,,,,,,,,repeat,number,numRpt,j,Lo,,,,,,0.5184,1,,,,,,,,low,10,0,10,0,1,,,,,,,,,
292369,2022-10-05_09h05.22.298,vts_reward_expectancy,2022.2.4,Win32,60.0060006,Chrome,1536,864,,,,,1,803,,,,,,,,,,,,,,,,,B,160,hexagon,1,0,,,,,,,,,,,,,,,,repeat,number,numRpt,k,Hi,,,,,,0.6338,1,,,,,,,,low,11,0,11,0,1,,,,,,,,,
292369,2022-10-05_09h05.22.298,vts_reward_expectancy,2022.2.4,Win32,60.0060006,Chrome,1536,864,,,,,1,804,,,,,,,,,,,,,,,,,F,181,triangle,1,0,,,,,,,,,,,,,,,,repeat,number,numRpt,k,Lo,,,,,,0.655,1,,,,,,,,low,12,0,12,0,1,,,,,,,,,
292369,2022-10-05_09h05.22.298,vts_reward_expectancy,2022.2.4,Win32,60.0060006,Chrome,1536,864,,,,,10,814,,,,,,,,,,,,,,,,,S,125,hexagon,1,0,,,,,,,,,,,,,,,,switch,letter,lettSwt,f,Hi,,,,,,0.6994,1,,,,,,,,low,13,0,13,0,1,,,,,,,,,
292369,2022-10-05_09h05.22.298,vts_reward_expectancy,2022.2.4,Win32,60.0060006,Chrome,1536,864,,,,,10,824,,,,,,,,,,,,,,,,,W,146,triangle,1,0,,,,,,,,,,,,,,,,repeat,letter,lettRpt,f,Lo,,,,,,0.601,1,,,,,,,,low,14,0,14,0,1,,,,,,,,,
292369,2022-10-05_09h05.22.298,vts_reward_expectancy,2022.2.4,Win32,60.0060006,Chrome,1536,864,,,,,1,825,,,,,,,,,,,,,,,,,H,174,hexagon,1,0,,,,,,,,,,,,,,,,repeat,letter,lettRpt,d,Hi,,,,,,0.7122,1,,,,,,,,low,15,0,15,0,1,,,,,,,,,
292369,2022-10-05_09h05.22.298,vts_reward_expectancy,2022.2.4,Win32,60.0060006,Chrome,1536,864,,,,,1,826,,,,,,,,,,,,,,,,,W,132,hexagon,1,0,,,,,,,,,,,,,,,,repeat,letter,lettRpt,f,Hi,,,,,,0.7378,1,,,,,,,,low,16,0,16,0,1,,,,,,,,,
292369,2022-10-05_09h05.22.298,vts_reward_expectancy,2022.2.4,Win32,60.0060006,Chrome,1536,864,,,,,1,827,,,,,,,,,,,,,,,,,D,174,triangle,1,0,,,,,,,,,,,,,,,,repeat,letter,lettRpt,d,Lo,,,,,,0.6803,1,,,,,,,,low,17,0,17,0,1,,,,,,,,,
292369,2022-10-05_09h05.22.298,vts_reward_expectancy,2022.2.4,Win32,60.0060006,Chrome,1536,864,,,,,0,827,,,,,,,,,,,,,,,,,Y,181,hexagon,1,0,,,,,,,,,,,,,,,,repeat,letter,lettRpt,f,Hi,,,,,,1.1795,1,,,,,,,,low,18,0,18,0,1,,,,,,,,,
292369,2022-10-05_09h05.22.298,vts_reward_expectancy,2022.2.4,Win32,60.0060006,Chrome,1536,864,,,,,1,828,,,,,,,,,,,,,,,,,F,139,triangle,1,0,,,,,,,,,,,,,,,,switch,number,numSwt,j,Lo,,,,,,0.4794,1,,,,,,,,low,19,0,19,0,1,,,,,,,,,
292369,2022-10-05_09h05.22.298,vts_reward_expectancy,2022.2.4,Win32,60.0060006,Chrome,1536,864,,,,,1,829,,,,,,,,,,,,,,,,,U,125,hexagon,1,0,,,,,,,,,,,,,,,,repeat,number,numRpt,j,Hi,,,,,,0.5947,1,,,,,,,,low,20,0,20,0,1,,,,,,,,,
292369,2022-10-05_09h05.22.298,vts_reward_expectancy,2022.2.4,Win32,60.0060006,Chrome,1536,864,,,,,10,839,,,,,,,,,,,,,,,,,H,146,triangle,1,0,,,,,,,,,,,,,,,,repeat,number,numRpt,j,Lo,,,,,,0.6509,1,,,,,,,,low,21,0,21,0,1,,,,,,,,,
292369,2022-10-05_09h05.22.298,vts_reward_expectancy,2022.2.4,Win32,60.0060006,Chrome,1536,864,,,,,1,840,,,,,,,,,,,,,,,,,B,167,triangle,1,0,,,,,,,,,,,,,,,,repeat,number,numRpt,k,Lo,,,,,,0.7302,1,,,,,,,,low,22,0,22,0,1,,,,,,,,,
292369,2022-10-05_09h05.22.298,vts_reward_expectancy,2022.2.4,Win32,60.0060006,Chrome,1536,864,,,,,10,850,,,,,,,,,,,,,,,,,S,160,hexagon,1,0,,,,,,,,,,,,,,,,repeat,number,numRpt,k,Hi,,,,,,0.6483,1,,,,,,,,low,23,0,23,0,1,,,,,,,,,
292369,2022-10-05_09h05.22.298,vts_reward_expectancy,2022.2.4,Win32,60.0060006,Chrome,1536,864,,,,,1,851,,,,,,,,,,,,,,,,,F,139,triangle,1,0,,,,,,,,,,,,,,,,repeat,number,numRpt,j,Lo,,,,,,0.73,1,,,,,,,,low,24,0,24,0,1,,,,,,,,,
292369,2022-10-05_09h05.22.298,vts_reward_expectancy,2022.2.4,Win32,60.0060006,Chrome,1536,864,,,,,0,851,,,,,,,,,,,,,,,,,S,132,hexagon,1,0,,,,,,,,,,,,,,,,repeat,number,numRpt,j,Hi,,,,,,0.8723,1,,,,,,,,low,25,0,25,0,1,,,,,,,,,
292369,2022-10-05_09h05.22.298,vts_reward_expectancy,2022.2.4,Win32,60.0060006,Chrome,1536,864,,,,,1,852,,,,,,,,,,,,,,,,,D,174,triangle,1,0,,,,,,,,,,,,,,,,repeat,number,numRpt,k,Lo,,,,,,1.43,1,,,,,,,,low,26,0,26,0,1,,,,,,,,,
292369,2022-10-05_09h05.22.298,vts_reward_expectancy,2022.2.4,Win32,60.0060006,Chrome,1536,864,,,,,1,853,,,,,,,,,,,,,,,,,Y,125,hexagon,1,0,,,,,,,,,,,,,,,,repeat,number,numRpt,j,Hi,,,,,,0.617,1,,,,,,,,low,27,0,27,0,1,,,,,,,,,
292369,2022-10-05_09h05.22.298,vts_reward_expectancy,2022.2.4,Win32,60.0060006,Chrome,1536,864,,,,,0,853,,,,,,,,,,,,,,,,,U,160,hexagon,1,0,,,,,,,,,,,,,,,,repeat,number,numRpt,k,Hi,,,,,,0.9814,1,,,,,,,,low,28,0,28,0,1,,,,,,,,,
292369,2022-10-05_09h05.22.298,vts_reward_expectancy,2022.2.4,Win32,60.0060006,Chrome,1536,864,,,,,1,854,,,,,,,,,,,,,,,,,W,146,triangle,1,0,,,,,,,,,,,,,,,,repeat,number,numRpt,j,Lo,,,,,,0.6942,1,,,,,,,,low,29,0,29,0,1,,,,,,,,,
292369,2022-10-05_09h05.22.298,vts_reward_expectancy,2022.2.4,Win32,60.0060006,Chrome,1536,864,,,,,0,854,,,,,,,,,,,,,,,,,H,167,hexagon,1,0,,,,,,,,,,,,,,,,repeat,number,numRpt,k,Hi,,,,,,0.7678,1,,,,,,,,low,30,0,30,0,1,,,,,,,,,
292369,2022-10-05_09h05.22.298,vts_reward_expectancy,2022.2.4,Win32,60.0060006,Chrome,1536,864,,,,,1,855,,,,,,,,,,,,,,,,,B,181,triangle,1,0,,,,,,,,,,,,,,,,repeat,number,numRpt,k,Lo,,,,,,0.8055,1,,,,,,,,low,31,0,31,0,1,,,,,,,,,
292369,2022-10-05_09h05.22.298,vts_reward_expectancy,2022.2.4,Win32,60.0060006,Chrome,1536,864,,,,,10,865,,,,,,,,,,,,,,,,,F,139,triangle,1,0,,,,,,,,,,,,,,,,repeat,number,numRpt,j,Lo,,,,,,0.6762,2,,,,,,space,1.5838,low,0,0,0,0,1,,,,,,,,,
292369,2022-10-05_09h05.22.298,vts_reward_expectancy,2022.2.4,Win32,60.0060006,Chrome,1536,864,,,,,0,865,,,,,,,,,,,,,,,,,U,174,hexagon,1,0,,,,,,,,,,,,,,,,repeat,number,numRpt,k,Hi,,,,,,0.7008,2,,,,,,,,low,1,0,1,0,1,,,,,,,,,
292369,2022-10-05_09h05.22.298,vts_reward_expectancy,2022.2.4,Win32,60.0060006,Chrome,1536,864,,,,,10,875,,,,,,,,,,,,,,,,,D,125,triangle,1,0,,,,,,,,,,,,,,,,repeat,number,numRpt,j,Lo,,,,,,0.5718,2,,,,,,,,low,2,0,2,0,1,,,,,,,,,
292369,2022-10-05_09h05.22.298,vts_reward_expectancy,2022.2.4,Win32,60.0060006,Chrome,1536,864,,,,,10,885,,,,,,,,,,,,,,,,,B,181,hexagon,1,0,,,,,,,,,,,,,,,,repeat,number,numRpt,k,Hi,,,,,,0.5339,2,,,,,,,,low,3,0,3,0,1,,,,,,,,,
292369,2022-10-05_09h05.22.298,vts_reward_expectancy,2022.2.4,Win32,60.0060006,Chrome,1536,864,,,,,0,885,,,,,,,,,,,,,,,,,H,160,triangle,0,0,,,,,,,,,,,,,,,,repeat,number,NA,j,Hi,,,,,,0.7614,2,,,,,,,,low,4,0,4,0,1,,,,,,,,,
292369,2022-10-05_09h05.22.298,vts_reward_expectancy,2022.2.4,Win32,60.0060006,Chrome,1536,864,,,,,0,885,,,,,,,,,,,,,,,,,Y,146,hexagon,1,1,,,,,,,,,,,,,,,,repeat,number,numRpt,j,Hi,,,,,,0.6672,2,,,,,,,,low,5,0,5,0,1,,,,,,,,,
292369,2022-10-05_09h05.22.298,vts_reward_expectancy,2022.2.4,Win32,60.0060006,Chrome,1536,864,,,,,10,895,,,,,,,,,,,,,,,,,W,167,triangle,1,0,,,,,,,,,,,,,,,,repeat,number,numRpt,k,Lo,,,,,,0.6927,2,,,,,,,,low,6,0,6,0,1,,,,,,,,,
292369,2022-10-05_09h05.22.298,vts_reward_expectancy,2022.2.4,Win32,60.0060006,Chrome,1536,864,,,,,0,895,,,,,,,,,,,,,,,,,S,132,hexagon,1,0,,,,,,,,,,,,,,,,repeat,number,numRpt,j,Hi,,,,,,0.6509,2,,,,,,,,low,7,0,7,0,1,,,,,,,,,
292369,2022-10-05_09h05.22.298,vts_reward_expectancy,2022.2.4,Win32,60.0060006,Chrome,1536,864,,,,,10,905,,,,,,,,,,,,,,,,,F,139,triangle,1,0,,,,,,,,,,,,,,,,repeat,number,numRpt,j,Lo,,,,,,0.6177,2,,,,,,,,low,8,0,8,0,1,,,,,,,,,
292369,2022-10-05_09h05.22.298,vts_reward_expectancy,2022.2.4,Win32,60.0060006,Chrome,1536,864,,,,,1,906,,,,,,,,,,,,,,,,,U,174,hexagon,1,0,,,,,,,,,,,,,,,,repeat,number,numRpt,k,Hi,,,,,,0.4177,2,,,,,,,,low,9,0,9,0,1,,,,,,,,,
292369,2022-10-05_09h05.22.298,vts_reward_expectancy,2022.2.4,Win32,60.0060006,Chrome,1536,864,,,,,1,907,,,,,,,,,,,,,,,,,D,125,triangle,1,0,,,,,,,,,,,,,,,,repeat,number,numRpt,j,Lo,,,,,,0.5843,2,,,,,,,,low,10,0,10,0,1,,,,,,,,,
292369,2022-10-05_09h05.22.298,vts_reward_expectancy,2022.2.4,Win32,60.0060006,Chrome,1536,864,,,,,10,917,,,,,,,,,,,,,,,,,B,181,hexagon,1,0,,,,,,,,,,,,,,,,repeat,number,numRpt,k,Hi,,,,,,0.4188,2,,,,,,,,low,11,0,11,0,1,,,,,,,,,
292369,2022-10-05_09h05.22.298,vts_reward_expectancy,2022.2.4,Win32,60.0060006,Chrome,1536,864,,,,,1,918,,,,,,,,,,,,,,,,,H,160,triangle,1,0,,,,,,,,,,,,,,,,repeat,number,numRpt,k,Lo,,,,,,0.6511,2,,,,,,,,low,12,0,12,0,1,,,,,,,,,
292369,2022-10-05_09h05.22.298,vts_reward_expectancy,2022.2.4,Win32,60.0060006,Chrome,1536,864,,,,,10,928,,,,,,,,,,,,,,,,,Y,146,hexagon,1,0,,,,,,,,,,,,,,,,switch,letter,lettSwt,f,Hi,,,,,,0.5552,2,,,,,,,,low,13,0,13,0,1,,,,,,,,,
292369,2022-10-05_09h05.22.298,vts_reward_expectancy,2022.2.4,Win32,60.0060006,Chrome,1536,864,,,,,10,938,,,,,,,,,,,,,,,,,W,167,hexagon,1,0,,,,,,,,,,,,,,,,repeat,letter,lettRpt,f,Hi,,,,,,0.4632,2,,,,,,,,low,14,0,14,0,1,,,,,,,,,
292369,2022-10-05_09h05.22.298,vts_reward_expectancy,2022.2.4,Win32,60.0060006,Chrome,1536,864,,,,,10,948,,,,,,,,,,,,,,,,,S,132,triangle,1,0,,,,,,,,,,,,,,,,repeat,letter,lettRpt,f,Lo,,,,,,0.5883,2,,,,,,,,low,15,0,15,0,1,,,,,,,,,
292369,2022-10-05_09h05.22.298,vts_reward_expectancy,2022.2.4,Win32,60.0060006,Chrome,1536,864,,,,,1,949,,,,,,,,,,,,,,,,,F,132,triangle,1,0,,,,,,,,,,,,,,,,repeat,letter,lettRpt,d,Lo,,,,,,0.6517,2,,,,,,,,low,16,0,16,0,1,,,,,,,,,
292369,2022-10-05_09h05.22.298,vts_reward_expectancy,2022.2.4,Win32,60.0060006,Chrome,1536,864,,,,,0,949,,,,,,,,,,,,,,,,,U,174,hexagon,1,0,,,,,,,,,,,,,,,,switch,number,numSwt,k,Hi,,,,,,0.9674,2,,,,,,,,low,17,0,17,0,1,,,,,,,,,
292369,2022-10-05_09h05.22.298,vts_reward_expectancy,2022.2.4,Win32,60.0060006,Chrome,1536,864,,,,,1,950,,,,,,,,,,,,,,,,,B,181,triangle,1,0,,,,,,,,,,,,,,,,repeat,number,numRpt,k,Lo,,,,,,0.5008,2,,,,,,,,low,18,0,18,0,1,,,,,,,,,
292369,2022-10-05_09h05.22.298,vts_reward_expectancy,2022.2.4,Win32,60.0060006,Chrome,1536,864,,,,,0,950,,,,,,,,,,,,,,,,,S,160,hexagon,1,0,,,,,,,,,,,,,,,,repeat,number,numRpt,k,Hi,,,,,,0.851,2,,,,,,,,low,19,0,19,0,1,,,,,,,,,
292369,2022-10-05_09h05.22.298,vts_reward_expectancy,2022.2.4,Win32,60.0060006,Chrome,1536,864,,,,,10,960,,,,,,,,,,,,,,,,,W,167,triangle,1,0,,,,,,,,,,,,,,,,repeat,number,numRpt,k,Lo,,,,,,0.6005,2,,,,,,,,low,20,0,20,0,1,,,,,,,,,
292369,2022-10-05_09h05.22.298,vts_reward_expectancy,2022.2.4,Win32,60.0060006,Chrome,1536,864,,,,,0,960,,,,,,,,,,,,,,,,,Y,125,hexagon,1,0,,,,,,,,,,,,,,,,repeat,number,numRpt,j,Hi,,,,,,0.7177,2,,,,,,,,low,21,0,21,0,1,,,,,,,,,
292369,2022-10-05_09h05.22.298,vts_reward_expectancy,2022.2.4,Win32,60.0060006,Chrome,1536,864,,,,,10,970,,,,,,,,,,,,,,,,,H,139,triangle,1,0,,,,,,,,,,,,,,,,repeat,number,numRpt,j,Lo,,,,,,0.65,2,,,,,,,,low,22,0,22,0,1,,,,,,,,,
292369,2022-10-05_09h05.22.298,vts_reward_expectancy,2022.2.4,Win32,60.0060006,Chrome,1536,864,,,,,0,970,,,,,,,,,,,,,,,,,D,146,hexagon,1,0,,,,,,,,,,,,,,,,repeat,number,numRpt,j,Hi,,,,,,0.6998,2,,,,,,,,low,23,0,23,0,1,,,,,,,,,
292369,2022-10-05_09h05.22.298,vts_reward_expectancy,2022.2.4,Win32,60.0060006,Chrome,1536,864,,,,,1,971,,,,,,,,,,,,,,,,,W,125,triangle,1,0,,,,,,,,,,,,,,,,repeat,number,numRpt,j,Lo,,,,,,0.6613,2,,,,,,,,low,24,0,24,0,1,,,,,,,,,
292369,2022-10-05_09h05.22.298,vts_reward_expectancy,2022.2.4,Win32,60.0060006,Chrome,1536,864,,,,,0,971,,,,,,,,,,,,,,,,,Y,132,hexagon,1,0,,,,,,,,,,,,,,,,repeat,number,numRpt,j,Hi,,,,,,0.8677,2,,,,,,,,low,25,0,25,0,1,,,,,,,,,
292369,2022-10-05_09h05.22.298,vts_reward_expectancy,2022.2.4,Win32,60.0060006,Chrome,1536,864,,,,,10,981,,,,,,,,,,,,,,,,,F,174,triangle,1,0,,,,,,,,,,,,,,,,repeat,number,numRpt,k,Lo,,,,,,0.8826,2,,,,,,,,low,26,0,26,0,1,,,,,,,,,
292369,2022-10-05_09h05.22.298,vts_reward_expectancy,2022.2.4,Win32,60.0060006,Chrome,1536,864,,,,,0,981,,,,,,,,,,,,,,,,,D,167,hexagon,1,0,,,,,,,,,,,,,,,,repeat,number,numRpt,k,Hi,,,,,,1.2174,2,,,,,,,,low,27,0,27,0,1,,,,,,,,,
292369,2022-10-05_09h05.22.298,vts_reward_expectancy,2022.2.4,Win32,60.0060006,Chrome,1536,864,,,,,1,982,,,,,,,,,,,,,,,,,H,181,triangle,1,0,,,,,,,,,,,,,,,,repeat,number,numRpt,k,Lo,,,,,,1.1341,2,,,,,,,,low,28,0,28,0,1,,,,,,,,,
292369,2022-10-05_09h05.22.298,vts_reward_expectancy,2022.2.4,Win32,60.0060006,Chrome,1536,864,,,,,0,982,,,,,,,,,,,,,,,,,S,160,hexagon,1,0,,,,,,,,,,,,,,,,repeat,number,numRpt,k,Hi,,,,,,0.6989,2,,,,,,,,low,29,0,29,0,1,,,,,,,,,
292369,2022-10-05_09h05.22.298,vts_reward_expectancy,2022.2.4,Win32,60.0060006,Chrome,1536,864,,,,,10,992,,,,,,,,,,,,,,,,,B,146,triangle,1,0,,,,,,,,,,,,,,,,repeat,number,numRpt,j,Lo,,,,,,0.6674,2,,,,,,,,low,30,0,30,0,1,,,,,,,,,
292369,2022-10-05_09h05.22.298,vts_reward_expectancy,2022.2.4,Win32,60.0060006,Chrome,1536,864,,,,,0,992,,,,,,,,,,,,,,,,,U,139,hexagon,1,0,,,,,,,,,,,,,,,,repeat,number,numRpt,j,Hi,,,,,,0.8567,2,,,,,,,,low,31,0,31,0,1,,,,,,,,,
292369,2022-10-05_09h05.22.298,vts_reward_expectancy,2022.2.4,Win32,60.0060006,Chrome,1536,864,,,,,0,992,,,,,,,,,,,,,,,,,B,181,star,1,0,,,,,,,,,,,,,,,,repeat,number,numRpt,k,Hi,,,,,,0.8505,3,,,,,,space,0.7832,high,0,0,0,0,1,,,,,,,,,
292369,2022-10-05_09h05.22.298,vts_reward_expectancy,2022.2.4,Win32,60.0060006,Chrome,1536,864,,,,,1,993,,,,,,,,,,,,,,,,,H,132,circle,1,0,,,,,,,,,,,,,,,,repeat,number,numRpt,j,Lo,,,,,,0.589,3,,,,,,,,high,1,0,1,0,1,,,,,,,,,
292369,2022-10-05_09h05.22.298,vts_reward_expectancy,2022.2.4,Win32,60.0060006,Chrome,1536,864,,,,,10,1003,,,,,,,,,,,,,,,,,U,174,star,1,0,,,,,,,,,,,,,,,,repeat,number,numRpt,k,Hi,,,,,,0.6338,3,,,,,,,,high,2,0,2,0,1,,,,,,,,,
292369,2022-10-05_09h05.22.298,vts_reward_expectancy,2022.2.4,Win32,60.0060006,Chrome,1536,864,,,,,1,1004,,,,,,,,,,,,,,,,,D,139,circle,1,0,,,,,,,,,,,,,,,,repeat,number,numRpt,j,Lo,,,,,,0.6069,3,,,,,,,,high,3,0,3,0,1,,,,,,,,,
292369,2022-10-05_09h05.22.298,vts_reward_expectancy,2022.2.4,Win32,60.0060006,Chrome,1536,864,,,,,1,1005,,,,,,,,,,,,,,,,,W,125,circle,1,0,,,,,,,,,,,,,,,,repeat,number,numRpt,j,Lo,,,,,,0.5072,3,,,,,,,,high,4,0,4,0,1,,,,,,,,,
292369,2022-10-05_09h05.22.298,vts_reward_expectancy,2022.2.4,Win32,60.0060006,Chrome,1536,864,,,,,0,1005,,,,,,,,,,,,,,,,,S,160,star,1,0,,,,,,,,,,,,,,,,repeat,number,numRpt,k,Hi,,,,,,0.6616,3,,,,,,,,high,5,0,5,0,1,,,,,,,,,
292369,2022-10-05_09h05.22.298,vts_reward_expectancy,2022.2.4,Win32,60.0060006,Chrome,1536,864,,,,,1,1006,,,,,,,,,,,,,,,,,Y,146,circle,1,0,,,,,,,,,,,,,,,,repeat,number,numRpt,j,Lo,,,,,,0.6016,3,,,,,,,,high,6,0,6,0,1,,,,,,,,,
292369,2022-10-05_09h05.22.298,vts_reward_expectancy,2022.2.4,Win32,60.0060006,Chrome,1536,864,,,,,10,1016,,,,,,,,,,,,,,,,,F,167,star,1,0,,,,,,,,,,,,,,,,repeat,number,numRpt,k,Hi,,,,,,0.567,3,,,,,,,,high,7,0,7,0,1,,,,,,,,,
292369,2022-10-05_09h05.22.298,vts_reward_expectancy,2022.2.4,Win32,60.0060006,Chrome,1536,864,,,,,10,1026,,,,,,,,,,,,,,,,,B,181,circle,1,0,,,,,,,,,,,,,,,,repeat,number,numRpt,k,Lo,,,,,,0.5825,3,,,,,,,,high,8,0,8,0,1,,,,,,,,,
292369,2022-10-05_09h05.22.298,vts_reward_expectancy,2022.2.4,Win32,60.0060006,Chrome,1536,864,,,,,0,1026,,,,,,,,,,,,,,,,,H,132,star,1,0,,,,,,,,,,,,,,,,repeat,number,numRpt,j,Hi,,,,,,0.6507,3,,,,,,,,high,9,0,9,0,1,,,,,,,,,
292369,2022-10-05_09h05.22.298,vts_reward_expectancy,2022.2.4,Win32,60.0060006,Chrome,1536,864,,,,,10,1036,,,,,,,,,,,,,,,,,U,174,star,1,0,,,,,,,,,,,,,,,,repeat,number,numRpt,k,Hi,,,,,,0.5881,3,,,,,,,,high,10,0,10,0,1,,,,,,,,,
292369,2022-10-05_09h05.22.298,vts_reward_expectancy,2022.2.4,Win32,60.0060006,Chrome,1536,864,,,,,1,1037,,,,,,,,,,,,,,,,,D,139,circle,1,0,,,,,,,,,,,,,,,,repeat,number,numRpt,j,Lo,,,,,,0.6174,3,,,,,,,,high,11,0,11,0,1,,,,,,,,,
292369,2022-10-05_09h05.22.298,vts_reward_expectancy,2022.2.4,Win32,60.0060006,Chrome,1536,864,,,,,10,1047,,,,,,,,,,,,,,,,,W,125,star,1,0,,,,,,,,,,,,,,,,repeat,number,numRpt,j,Hi,,,,,,0.6008,3,,,,,,,,high,12,0,12,0,1,,,,,,,,,
292369,2022-10-05_09h05.22.298,vts_reward_expectancy,2022.2.4,Win32,60.0060006,Chrome,1536,864,,,,,1,1048,,,,,,,,,,,,,,,,,S,160,circle,1,0,,,,,,,,,,,,,,,,repeat,number,numRpt,k,Lo,,,,,,0.5878,3,,,,,,,,high,13,0,13,0,1,,,,,,,,,
292369,2022-10-05_09h05.22.298,vts_reward_expectancy,2022.2.4,Win32,60.0060006,Chrome,1536,864,,,,,10,1058,,,,,,,,,,,,,,,,,Y,146,star,1,0,,,,,,,,,,,,,,,,repeat,number,numRpt,j,Hi,,,,,,0.5505,3,,,,,,,,high,14,0,14,0,1,,,,,,,,,
292369,2022-10-05_09h05.22.298,vts_reward_expectancy,2022.2.4,Win32,60.0060006,Chrome,1536,864,,,,,10,1068,,,,,,,,,,,,,,,,,F,167,circle,1,0,,,,,,,,,,,,,,,,repeat,number,numRpt,k,Lo,,,,,,0.6652,3,,,,,,,,high,15,0,15,0,1,,,,,,,,,
292369,2022-10-05_09h05.22.298,vts_reward_expectancy,2022.2.4,Win32,60.0060006,Chrome,1536,864,,,,,10,1078,,,,,,,,,,,,,,,,,F,160,circle,1,0,,,,,,,,,,,,,,,,repeat,number,numRpt,k,Lo,,,,,,0.6493,3,,,,,,,,high,16,0,16,0,1,,,,,,,,,
292369,2022-10-05_09h05.22.298,vts_reward_expectancy,2022.2.4,Win32,60.0060006,Chrome,1536,864,,,,,0,1078,,,,,,,,,,,,,,,,,Y,174,star,1,0,,,,,,,,,,,,,,,,repeat,number,numRpt,k,Hi,,,,,,1.0993,3,,,,,,,,high,17,0,17,0,1,,,,,,,,,
292369,2022-10-05_09h05.22.298,vts_reward_expectancy,2022.2.4,Win32,60.0060006,Chrome,1536,864,,,,,1,1079,,,,,,,,,,,,,,,,,W,139,star,1,0,,,,,,,,,,,,,,,,repeat,number,numRpt,j,Hi,,,,,,0.6166,3,,,,,,,,high,18,0,18,0,1,,,,,,,,,
292369,2022-10-05_09h05.22.298,vts_reward_expectancy,2022.2.4,Win32,60.0060006,Chrome,1536,864,,,,,1,1080,,,,,,,,,,,,,,,,,S,132,circle,1,0,,,,,,,,,,,,,,,,repeat,number,numRpt,j,Lo,,,,,,0.6172,3,,,,,,,,high,19,0,19,0,1,,,,,,,,,
292369,2022-10-05_09h05.22.298,vts_reward_expectancy,2022.2.4,Win32,60.0060006,Chrome,1536,864,,,,,1,1081,,,,,,,,,,,,,,,,,H,181,circle,1,0,,,,,,,,,,,,,,,,repeat,number,numRpt,k,Lo,,,,,,0.5928,3,,,,,,,,high,20,0,20,0,1,,,,,,,,,
292369,2022-10-05_09h05.22.298,vts_reward_expectancy,2022.2.4,Win32,60.0060006,Chrome,1536,864,,,,,0,1081,,,,,,,,,,,,,,,,,U,125,star,1,0,,,,,,,,,,,,,,,,repeat,number,numRpt,j,Hi,,,,,,0.695,3,,,,,,,,high,21,0,21,0,1,,,,,,,,,
292369,2022-10-05_09h05.22.298,vts_reward_expectancy,2022.2.4,Win32,60.0060006,Chrome,1536,864,,,,,1,1082,,,,,,,,,,,,,,,,,D,146,circle,1,0,,,,,,,,,,,,,,,,switch,letter,lettSwt,d,Lo,,,,,,0.5613,3,,,,,,,,high,22,0,22,0,1,,,,,,,,,
292369,2022-10-05_09h05.22.298,vts_reward_expectancy,2022.2.4,Win32,60.0060006,Chrome,1536,864,,,,,0,1082,,,,,,,,,,,,,,,,,B,167,star,1,0,,,,,,,,,,,,,,,,repeat,letter,lettRpt,d,Hi,,,,,,0.6841,3,,,,,,,,high,23,0,23,0,1,,,,,,,,,
292369,2022-10-05_09h05.22.298,vts_reward_expectancy,2022.2.4,Win32,60.0060006,Chrome,1536,864,,,,,10,1092,,,,,,,,,,,,,,,,,B,132,circle,1,0,,,,,,,,,,,,,,,,repeat,letter,lettRpt,d,Lo,,,,,,0.5688,3,,,,,,,,high,24,0,24,0,1,,,,,,,,,
292369,2022-10-05_09h05.22.298,vts_reward_expectancy,2022.2.4,Win32,60.0060006,Chrome,1536,864,,,,,0,1092,,,,,,,,,,,,,,,,,F,174,star,1,0,,,,,,,,,,,,,,,,repeat,letter,lettRpt,d,Hi,,,,,,1.3008,3,,,,,,,,high,25,0,25,0,1,,,,,,,,,
292369,2022-10-05_09h05.22.298,vts_reward_expectancy,2022.2.4,Win32,60.0060006,Chrome,1536,864,,,,,0,1092,,,,,,,,,,,,,,,,,H,146,star,1,0,,,,,,,,,,,,,,,,repeat,letter,lettRpt,d,Hi,,,,,,0.6944,3,,,,,,,,high,26,0,26,0,1,,,,,,,,,
292369,2022-10-05_09h05.22.298,vts_reward_expectancy,2022.2.4,Win32,60.0060006,Chrome,1536,864,,,,,1,1093,,,,,,,,,,,,,,,,,U,167,circle,1,0,,,,,,,,,,,,,,,,repeat,letter,lettRpt,f,Lo,,,,,,0.5721,3,,,,,,,,high,27,0,27,0,1,,,,,,,,,
292369,2022-10-05_09h05.22.298,vts_reward_expectancy,2022.2.4,Win32,60.0060006,Chrome,1536,864,,,,,1,1094,,,,,,,,,,,,,,,,,S,160,circle,1,0,,,,,,,,,,,,,,,,repeat,letter,lettRpt,f,Lo,,,,,,0.9507,3,,,,,,,,high,28,0,28,0,1,,,,,,,,,
292369,2022-10-05_09h05.22.298,vts_reward_expectancy,2022.2.4,Win32,60.0060006,Chrome,1536,864,,,,,0,1094,,,,,,,,,,,,,,,,,Y,125,star,1,0,,,,,,,,,,,,,,,,repeat,letter,lettRpt,f,Hi,,,,,,0.6505,3,,,,,,,,high,29,0,29,0,1,,,,,,,,,
292369,2022-10-05_09h05.22.298,vts_reward_expectancy,2022.2.4,Win32,60.0060006,Chrome,1536,864,,,,,1,1095,,,,,,,,,,,,,,,,,W,181,circle,1,0,,,,,,,,,,,,,,,,repeat,letter,lettRpt,f,Lo,,,,,,0.6037,3,,,,,,,,high,30,0,30,0,1,,,,,,,,,
292369,2022-10-05_09h05.22.298,vts_reward_expectancy,2022.2.4,Win32,60.0060006,Chrome,1536,864,,,,,0,1095,,,,,,,,,,,,,,,,,D,139,star,1,0,,,,,,,,,,,,,,,,repeat,letter,lettRpt,d,Hi,,,,,,0.5755,3,,,,,,,,high,31,0,31,0,1,,,,,,,,,
292369,2022-10-05_09h05.22.298,vts_reward_expectancy,2022.2.4,Win32,60.0060006,Chrome,1536,864,,,,,0,1095,,,,,,,,,,,,,,,,,H,174,star,0,0,,,,,,,,,,,,,,,,repeat,letter,NA,f,Hi,,,,,,0.6886,4,,,,,,space,0.8451,high,0,0,0,0,1,,,,,,,,,
292369,2022-10-05_09h05.22.298,vts_reward_expectancy,2022.2.4,Win32,60.0060006,Chrome,1536,864,,,,,0,1095,,,,,,,,,,,,,,,,,D,181,circle,-1,1,,,,,,,,,,,,,,,,switch,no_choice,NA,,Hi,,,,,,,4,,,,,,,,high,1,0,1,0,1,,,,,,,,,
292369,2022-10-05_09h05.22.298,vts_reward_expectancy,2022.2.4,Win32,60.0060006,Chrome,1536,864,,,,,10,1105,,,,,,,,,,,,,,,,,W,125,star,1,0,,,,,,,,,,,,,,,,switch,number,numSwt,j,Hi,,,,,,0.6838,4,,,,,,,,high,2,0,2,0,1,,,,,,,,,
292369,2022-10-05_09h05.22.298,vts_reward_expectancy,2022.2.4,Win32,60.0060006,Chrome,1536,864,,,,,10,1115,,,,,,,,,,,,,,,,,Y,167,circle,1,0,,,,,,,,,,,,,,,,repeat,number,numRpt,k,Lo,,,,,,0.785,4,,,,,,,,high,3,0,3,0,1,,,,,,,,,
292369,2022-10-05_09h05.22.298,vts_reward_expectancy,2022.2.4,Win32,60.0060006,Chrome,1536,864,,,,,1,1116,,,,,,,,,,,,,,,,,S,132,circle,1,0,,,,,,,,,,,,,,,,repeat,number,numRpt,j,Lo,,,,,,0.5675,4,,,,,,,,high,4,0,4,0,1,,,,,,,,,
292369,2022-10-05_09h05.22.298,vts_reward_expectancy,2022.2.4,Win32,60.0060006,Chrome,1536,864,,,,,10,1126,,,,,,,,,,,,,,,,,U,160,star,1,0,,,,,,,,,,,,,,,,repeat,number,numRpt,k,Hi,,,,,,0.5594,4,,,,,,,,high,5,0,5,0,1,,,,,,,,,
292369,2022-10-05_09h05.22.298,vts_reward_expectancy,2022.2.4,Win32,60.0060006,Chrome,1536,864,,,,,0,1126,,,,,,,,,,,,,,,,,B,146,star,1,0,,,,,,,,,,,,,,,,repeat,number,numRpt,j,Hi,,,,,,0.6195,4,,,,,,,,high,6,0,6,0,1,,,,,,,,,
292369,2022-10-05_09h05.22.298,vts_reward_expectancy,2022.2.4,Win32,60.0060006,Chrome,1536,864,,,,,1,1127,,,,,,,,,,,,,,,,,F,139,circle,1,0,,,,,,,,,,,,,,,,repeat,number,numRpt,j,Lo,,,,,,0.6179,4,,,,,,,,high,7,0,7,0,1,,,,,,,,,
292369,2022-10-05_09h05.22.298,vts_reward_expectancy,2022.2.4,Win32,60.0060006,Chrome,1536,864,,,,,10,1137,,,,,,,,,,,,,,,,,H,174,circle,1,0,,,,,,,,,,,,,,,,repeat,number,numRpt,k,Lo,,,,,,0.7168,4,,,,,,,,high,8,0,8,0,1,,,,,,,,,
292369,2022-10-05_09h05.22.298,vts_reward_expectancy,2022.2.4,Win32,60.0060006,Chrome,1536,864,,,,,10,1147,,,,,,,,,,,,,,,,,D,181,star,1,0,,,,,,,,,,,,,,,,repeat,number,numRpt,k,Hi,,,,,,0.5675,4,,,,,,,,high,9,0,9,0,1,,,,,,,,,
292369,2022-10-05_09h05.22.298,vts_reward_expectancy,2022.2.4,Win32,60.0060006,Chrome,1536,864,,,,,1,1148,,,,,,,,,,,,,,,,,W,125,circle,1,0,,,,,,,,,,,,,,,,repeat,number,numRpt,j,Lo,,,,,,0.6215,4,,,,,,,,high,10,0,10,0,1,,,,,,,,,
292369,2022-10-05_09h05.22.298,vts_reward_expectancy,2022.2.4,Win32,60.0060006,Chrome,1536,864,,,,,1,1149,,,,,,,,,,,,,,,,,Y,167,star,1,0,,,,,,,,,,,,,,,,repeat,number,numRpt,k,Hi,,,,,,0.5693,4,,,,,,,,high,11,0,11,0,1,,,,,,,,,
292369,2022-10-05_09h05.22.298,vts_reward_expectancy,2022.2.4,Win32,60.0060006,Chrome,1536,864,,,,,0,1149,,,,,,,,,,,,,,,,,S,132,star,1,0,,,,,,,,,,,,,,,,repeat,number,numRpt,j,Hi,,,,,,0.6559,4,,,,,,,,high,12,0,12,0,1,,,,,,,,,
292369,2022-10-05_09h05.22.298,vts_reward_expectancy,2022.2.4,Win32,60.0060006,Chrome,1536,864,,,,,1,1150,,,,,,,,,,,,,,,,,U,160,circle,1,0,,,,,,,,,,,,,,,,repeat,number,numRpt,k,Lo,,,,,,0.6844,4,,,,,,,,high,13,0,13,0,1,,,,,,,,,
292369,2022-10-05_09h05.22.298,vts_reward_expectancy,2022.2.4,Win32,60.0060006,Chrome,1536,864,,,,,10,1160,,,,,,,,,,,,,,,,,B,146,circle,1,0,,,,,,,,,,,,,,,,repeat,number,numRpt,j,Lo,,,,,,0.9354,4,,,,,,,,high,14,0,14,0,1,,,,,,,,,
292369,2022-10-05_09h05.22.298,vts_reward_expectancy,2022.2.4,Win32,60.0060006,Chrome,1536,864,,,,,0,1160,,,,,,,,,,,,,,,,,F,139,star,0,0,,,,,,,,,,,,,,,,repeat,number,NA,k,Lo,,,,,,0.9905,4,,,,,,,,high,15,0,15,0,1,,,,,,,,,
292369,2022-10-05_09h05.22.298,vts_reward_expectancy,2022.2.4,Win32,60.0060006,Chrome,1536,864,,,,,1,1161,,,,,,,,,,,,,,,,,Y,139,circle,1,1,,,,,,,,,,,,,,,,repeat,number,numRpt,j,Lo,,,,,,0.5834,4,,,,,,,,high,16,0,16,0,1,,,,,,,,,
292369,2022-10-05_09h05.22.298,vts_reward_expectancy,2022.2.4,Win32,60.0060006,Chrome,1536,864,,,,,0,1161,,,,,,,,,,,,,,,,,W,132,star,1,0,,,,,,,,,,,,,,,,repeat,number,numRpt,j,Hi,,,,,,0.7167,4,,,,,,,,high,17,0,17,0,1,,,,,,,,,
292369,2022-10-05_09h05.22.298,vts_reward_expectancy,2022.2.4,Win32,60.0060006,Chrome,1536,864,,,,,1,1162,,,,,,,,,,,,,,,,,F,146,circle,1,0,,,,,,,,,,,,,,,,repeat,number,numRpt,j,Lo,,,,,,1.1326,4,,,,,,,,high,18,0,18,0,1,,,,,,,,,
292369,2022-10-05_09h05.22.298,vts_reward_expectancy,2022.2.4,Win32,60.0060006,Chrome,1536,864,,,,,0,1162,,,,,,,,,,,,,,,,,D,181,star,1,0,,,,,,,,,,,,,,,,repeat,number,numRpt,k,Hi,,,,,,0.6167,4,,,,,,,,high,19,0,19,0,1,,,,,,,,,
292369,2022-10-05_09h05.22.298,vts_reward_expectancy,2022.2.4,Win32,60.0060006,Chrome,1536,864,,,,,0,1162,,,,,,,,,,,,,,,,,U,167,circle,0,0,,,,,,,,,,,,,,,,repeat,number,NA,j,Hi,,,,,,1.2778,4,,,,,,,,high,20,0,20,0,1,,,,,,,,,
292369,2022-10-05_09h05.22.298,vts_reward_expectancy,2022.2.4,Win32,60.0060006,Chrome,1536,864,,,,,0,1162,,,,,,,,,,,,,,,,,S,125,star,1,1,,,,,,,,,,,,,,,,repeat,number,numRpt,j,Hi,,,,,,0.6171,4,,,,,,,,high,21,0,21,0,1,,,,,,,,,
292369,2022-10-05_09h05.22.298,vts_reward_expectancy,2022.2.4,Win32,60.0060006,Chrome,1536,864,,,,,0,1162,,,,,,,,,,,,,,,,,H,174,star,1,0,,,,,,,,,,,,,,,,switch,letter,lettSwt,d,Hi,,,,,,0.6381,4,,,,,,,,high,22,0,22,0,1,,,,,,,,,
292369,2022-10-05_09h05.22.298,vts_reward_expectancy,2022.2.4,Win32,60.0060006,Chrome,1536,864,,,,,10,1172,,,,,,,,,,,,,,,,,B,160,circle,1,0,,,,,,,,,,,,,,,,repeat,letter,lettRpt,d,Lo,,,,,,0.6452,4,,,,,,,,high,23,0,23,0,1,,,,,,,,,
292369,2022-10-05_09h05.22.298,vts_reward_expectancy,2022.2.4,Win32,60.0060006,Chrome,1536,864,,,,,0,1172,,,,,,,,,,,,,,,,,F,146,star,0,0,,,,,,,,,,,,,,,,repeat,letter,NA,f,Lo,,,,,,0.4336,4,,,,,,,,high,24,0,24,0,1,,,,,,,,,
292369,2022-10-05_09h05.22.298,vts_reward_expectancy,2022.2.4,Win32,60.0060006,Chrome,1536,864,,,,,1,1173,,,,,,,,,,,,,,,,,B,132,circle,1,1,,,,,,,,,,,,,,,,repeat,letter,lettRpt,d,Lo,,,,,,0.5736,4,,,,,,,,high,25,0,25,0,1,,,,,,,,,
292369,2022-10-05_09h05.22.298,vts_reward_expectancy,2022.2.4,Win32,60.0060006,Chrome,1536,864,,,,,1,1174,,,,,,,,,,,,,,,,,Y,139,circle,1,0,,,,,,,,,,,,,,,,repeat,letter,lettRpt,f,Lo,,,,,,0.686,4,,,,,,,,high,26,0,26,0,1,,,,,,,,,
292369,2022-10-05_09h05.22.298,vts_reward_expectancy,2022.2.4,Win32,60.0060006,Chrome,1536,864,,,,,0,1174,,,,,,,,,,,,,,,,,S,160,star,0,0,,,,,,,,,,,,,,,,repeat,letter,NA,d,Lo,,,,,,1.0841,4,,,,,,,,high,27,0,27,0,1,,,,,,,,,
292369,2022-10-05_09h05.22.298,vts_reward_expectancy,2022.2.4,Win32,60.0060006,Chrome,1536,864,,,,,10,1184,,,,,,,,,,,,,,,,,U,125,star,1,1,,,,,,,,,,,,,,,,switch,number,numSwt,j,Hi,,,,,,0.6675,4,,,,,,,,high,28,0,28,0,1,,,,,,,,,
292369,2022-10-05_09h05.22.298,vts_reward_expectancy,2022.2.4,Win32,60.0060006,Chrome,1536,864,,,,,1,1185,,,,,,,,,,,,,,,,,H,174,circle,1,0,,,,,,,,,,,,,,,,repeat,number,numRpt,k,Lo,,,,,,0.7508,4,,,,,,,,high,29,0,29,0,1,,,,,,,,,
292369,2022-10-05_09h05.22.298,vts_reward_expectancy,2022.2.4,Win32,60.0060006,Chrome,1536,864,,,,,10,1195,,,,,,,,,,,,,,,,,W,167,circle,1,0,,,,,,,,,,,,,,,,repeat,number,numRpt,k,Lo,,,,,,0.7676,4,,,,,,,,high,30,0,30,0,1,,,,,,,,,
292369,2022-10-05_09h05.22.298,vts_reward_expectancy,2022.2.4,Win32,60.0060006,Chrome,1536,864,,,,,0,1195,,,,,,,,,,,,,,,,,D,181,star,1,0,,,,,,,,,,,,,,,,repeat,number,numRpt,k,Hi,,,,,,0.6381,4,,,,,,,,high,31,0,31,0,1,,,,,,,,,
292369,2022-10-05_09h05.22.298,vts_reward_expectancy,2022.2.4,Win32,60.0060006,Chrome,1536,864,,,,,1,1196,,,,,,,,,,,,,,,,,B,181,circle,1,0,,,,,,,,,,,,,,,,repeat,number,numRpt,k,Lo,,,,,,1.7839,5,,,,,,space,0.5327,high,0,0,0,0,1,,,,,,,,,
292369,2022-10-05_09h05.22.298,vts_reward_expectancy,2022.2.4,Win32,60.0060006,Chrome,1536,864,,,,,0,1196,,,,,,,,,,,,,,,,,U,146,star,1,0,,,,,,,,,,,,,,,,repeat,number,numRpt,j,Hi,,,,,,0.7008,5,,,,,,,,high,1,0,1,0,1,,,,,,,,,
292369,2022-10-05_09h05.22.298,vts_reward_expectancy,2022.2.4,Win32,60.0060006,Chrome,1536,864,,,,,1,1197,,,,,,,,,,,,,,,,,H,139,circle,1,0,,,,,,,,,,,,,,,,repeat,number,numRpt,j,Lo,,,,,,0.6009,5,,,,,,,,high,2,0,2,0,1,,,,,,,,,
292369,2022-10-05_09h05.22.298,vts_reward_expectancy,2022.2.4,Win32,60.0060006,Chrome,1536,864,,,,,0,1197,,,,,,,,,,,,,,,,,W,132,star,1,0,,,,,,,,,,,,,,,,repeat,number,numRpt,j,Hi,,,,,,0.9726,5,,,,,,,,high,3,0,3,0,1,,,,,,,,,
292369,2022-10-05_09h05.22.298,vts_reward_expectancy,2022.2.4,Win32,60.0060006,Chrome,1536,864,,,,,0,1197,,,,,,,,,,,,,,,,,D,160,circle,0,0,,,,,,,,,,,,,,,,repeat,number,NA,j,Hi,,,,,,0.7177,5,,,,,,,,high,4,0,4,0,1,,,,,,,,,
292369,2022-10-05_09h05.22.298,vts_reward_expectancy,2022.2.4,Win32,60.0060006,Chrome,1536,864,,,,,0,1197,,,,,,,,,,,,,,,,,F,125,star,1,1,,,,,,,,,,,,,,,,repeat,number,numRpt,j,Hi,,,,,,0.6847,5,,,,,,,,high,5,0,5,0,1,,,,,,,,,
292369,2022-10-05_09h05.22.298,vts_reward_expectancy,2022.2.4,Win32,60.0060006,Chrome,1536,864,,,,,1,1198,,,,,,,,,,,,,,,,,Y,167,circle,1,0,,,,,,,,,,,,,,,,repeat,number,numRpt,k,Lo,,,,,,0.7512,5,,,,,,,,high,6,0,6,0,1,,,,,,,,,
292369,2022-10-05_09h05.22.298,vts_reward_expectancy,2022.2.4,Win32,60.0060006,Chrome,1536,864,,,,,0,1198,,,,,,,,,,,,,,,,,S,174,star,1,0,,,,,,,,,,,,,,,,repeat,number,numRpt,k,Hi,,,,,,0.6941,5,,,,,,,,high,7,0,7,0,1,,,,,,,,,
292369,2022-10-05_09h05.22.298,vts_reward_expectancy,2022.2.4,Win32,60.0060006,Chrome,1536,864,,,,,0,1198,,,,,,,,,,,,,,,,,B,181,star,1,0,,,,,,,,,,,,,,,,repeat,number,numRpt,k,Hi,,,,,,0.928,5,,,,,,,,high,8,0,8,0,1,,,,,,,,,
292369,2022-10-05_09h05.22.298,vts_reward_expectancy,2022.2.4,Win32,60.0060006,Chrome,1536,864,,,,,10,1208,,,,,,,,,,,,,,,,,U,146,circle,1,0,,,,,,,,,,,,,,,,repeat,number,numRpt,j,Lo,,,,,,0.6401,5,,,,,,,,high,9,0,9,0,1,,,,,,,,,
292369,2022-10-05_09h05.22.298,vts_reward_expectancy,2022.2.4,Win32,60.0060006,Chrome,1536,864,,,,,0,1208,,,,,,,,,,,,,,,,,H,139,star,1,0,,,,,,,,,,,,,,,,repeat,number,numRpt,j,Hi,,,,,,0.6839,5,,,,,,,,high,10,0,10,0,1,,,,,,,,,
292369,2022-10-05_09h05.22.298,vts_reward_expectancy,2022.2.4,Win32,60.0060006,Chrome,1536,864,,,,,1,1209,,,,,,,,,,,,,,,,,W,132,circle,1,0,,,,,,,,,,,,,,,,repeat,number,numRpt,j,Lo,,,,,,0.9339,5,,,,,,,,high,11,0,11,0,1,,,,,,,,,
292369,2022-10-05_09h05.22.298,vts_reward_expectancy,2022.2.4,Win32,60.0060006,Chrome,1536,864,,,,,0,1209,,,,,,,,,,,,,,,,,D,160,star,0,0,,,,,,,,,,,,,,,,repeat,number,NA,j,Lo,,,,,,1.0958,5,,,,,,,,high,12,0,12,0,1,,,,,,,,,
292369,2022-10-05_09h05.22.298,vts_reward_expectancy,2022.2.4,Win32,60.0060006,Chrome,1536,864,,,,,1,1210,,,,,,,,,,,,,,,,,F,125,circle,1,1,,,,,,,,,,,,,,,,repeat,number,numRpt,j,Lo,,,,,,0.6456,5,,,,,,,,high,13,0,13,0,1,,,,,,,,,
292369,2022-10-05_09h05.22.298,vts_reward_expectancy,2022.2.4,Win32,60.0060006,Chrome,1536,864,,,,,10,1220,,,,,,,,,,,,,,,,,Y,167,circle,1,0,,,,,,,,,,,,,,,,repeat,number,numRpt,k,Lo,,,,,,0.7008,5,,,,,,,,high,14,0,14,0,1,,,,,,,,,
292369,2022-10-05_09h05.22.298,vts_reward_expectancy,2022.2.4,Win32,60.0060006,Chrome,1536,864,,,,,0,1220,,,,,,,,,,,,,,,,,S,174,star,1,0,,,,,,,,,,,,,,,,repeat,number,numRpt,k,Hi,,,,,,0.9849,5,,,,,,,,high,15,0,15,0,1,,,,,,,,,
292369,2022-10-05_09h05.22.298,vts_reward_expectancy,2022.2.4,Win32,60.0060006,Chrome,1536,864,,,,,1,1221,,,,,,,,,,,,,,,,,D,132,circle,1,0,,,,,,,,,,,,,,,,repeat,number,numRpt,j,Lo,,,,,,1.5005,5,,,,,,,,high,16,0,16,0,1,,,,,,,,,
292369,2022-10-05_09h05.22.298,vts_reward_expectancy,2022.2.4,Win32,60.0060006,Chrome,1536,864,,,,,0,1221,,,,,,,,,,,,,,,,,F,139,star,1,0,,,,,,,,,,,,,,,,repeat,number,numRpt,j,Hi,,,,,,0.7186,5,,,,,,,,high,17,0,17,0,1,,,,,,,,,
292369,2022-10-05_09h05.22.298,vts_reward_expectancy,2022.2.4,Win32,60.0060006,Chrome,1536,864,,,,,10,1231,,,,,,,,,,,,,,,,,S,181,circle,1,0,,,,,,,,,,,,,,,,repeat,number,numRpt,k,Lo,,,,,,0.7017,5,,,,,,,,high,18,0,18,0,1,,,,,,,,,
292369,2022-10-05_09h05.22.298,vts_reward_expectancy,2022.2.4,Win32,60.0060006,Chrome,1536,864,,,,,0,1231,,,,,,,,,,,,,,,,,W,146,star,1,0,,,,,,,,,,,,,,,,repeat,number,numRpt,j,Hi,,,,,,0.8521,5,,,,,,,,high,19,0,19,0,1,,,,,,,,,
292369,2022-10-05_09h05.22.298,vts_reward_expectancy,2022.2.4,Win32,60.0060006,Chrome,1536,864,,,,,1,1232,,,,,,,,,,,,,,,,,Y,174,circle,1,0,,,,,,,,,,,,,,,,repeat,number,numRpt,k,Lo,,,,,,0.6113,5,,,,,,,,high,20,0,20,0,1,,,,,,,,,
292369,2022-10-05_09h05.22.298,vts_reward_expectancy,2022.2.4,Win32,60.0060006,Chrome,1536,864,,,,,0,1232,,,,,,,,,,,,,,,,,B,125,star,1,0,,,,,,,,,,,,,,,,repeat,number,numRpt,j,Hi,,,,,,0.6678,5,,,,,,,,high,21,0,21,0,1,,,,,,,,,
292369,2022-10-05_09h05.22.298,vts_reward_expectancy,2022.2.4,Win32,60.0060006,Chrome,1536,864,,,,,1,1233,,,,,,,,,,,,,,,,,U,167,circle,1,0,,,,,,,,,,,,,,,,repeat,number,numRpt,k,Lo,,,,,,0.8193,5,,,,,,,,high,22,0,22,0,1,,,,,,,,,
292369,2022-10-05_09h05.22.298,vts_reward_expectancy,2022.2.4,Win32,60.0060006,Chrome,1536,864,,,,,0,1233,,,,,,,,,,,,,,,,,H,160,star,1,0,,,,,,,,,,,,,,,,repeat,number,numRpt,k,Hi,,,,,,1.3383,5,,,,,,,,high,23,0,23,0,1,,,,,,,,,
292369,2022-10-05_09h05.22.298,vts_reward_expectancy,2022.2.4,Win32,60.0060006,Chrome,1536,864,,,,,0,1233,,,,,,,,,,,,,,,,,H,167,star,1,0,,,,,,,,,,,,,,,,repeat,number,numRpt,k,Hi,,,,,,1.201,5,,,,,,,,high,24,0,24,0,1,,,,,,,,,
292369,2022-10-05_09h05.22.298,vts_reward_expectancy,2022.2.4,Win32,60.0060006,Chrome,1536,864,,,,,1,1234,,,,,,,,,,,,,,,,,D,125,circle,1,0,,,,,,,,,,,,,,,,repeat,number,numRpt,j,Lo,,,,,,0.7175,5,,,,,,,,high,25,0,25,0,1,,,,,,,,,
292369,2022-10-05_09h05.22.298,vts_reward_expectancy,2022.2.4,Win32,60.0060006,Chrome,1536,864,,,,,1,1235,,,,,,,,,,,,,,,,,W,132,circle,1,0,,,,,,,,,,,,,,,,repeat,number,numRpt,j,Lo,,,,,,1.1052,5,,,,,,,,high,26,0,26,0,1,,,,,,,,,
292369,2022-10-05_09h05.22.298,vts_reward_expectancy,2022.2.4,Win32,60.0060006,Chrome,1536,864,,,,,0,1235,,,,,,,,,,,,,,,,,U,160,star,1,0,,,,,,,,,,,,,,,,repeat,number,numRpt,k,Hi,,,,,,0.6226,5,,,,,,,,high,27,0,27,0,1,,,,,,,,,
292369,2022-10-05_09h05.22.298,vts_reward_expectancy,2022.2.4,Win32,60.0060006,Chrome,1536,864,,,,,1,1236,,,,,,,,,,,,,,,,,F,146,circle,1,0,,,,,,,,,,,,,,,,repeat,number,numRpt,j,Lo,,,,,,0.8177,5,,,,,,,,high,28,0,28,0,1,,,,,,,,,
292369,2022-10-05_09h05.22.298,vts_reward_expectancy,2022.2.4,Win32,60.0060006,Chrome,1536,864,,,,,0,1236,,,,,,,,,,,,,,,,,B,139,star,1,0,,,,,,,,,,,,,,,,repeat,number,numRpt,j,Hi,,,,,,0.9837,5,,,,,,,,high,29,0,29,0,1,,,,,,,,,
292369,2022-10-05_09h05.22.298,vts_reward_expectancy,2022.2.4,Win32,60.0060006,Chrome,1536,864,,,,,10,1246,,,,,,,,,,,,,,,,,S,181,circle,1,0,,,,,,,,,,,,,,,,repeat,number,numRpt,k,Lo,,,,,,0.7058,5,,,,,,,,high,30,0,30,0,1,,,,,,,,,
292369,2022-10-05_09h05.22.298,vts_reward_expectancy,2022.2.4,Win32,60.0060006,Chrome,1536,864,,,,,0,1246,,,,,,,,,,,,,,,,,Y,174,star,1,0,,,,,,,,,,,,,,,,repeat,number,numRpt,k,Hi,,,,,,0.851,5,,,,,,,,high,31,0,31,0,1,,,,,,,,,
292369,2022-10-05_09h05.22.298,vts_reward_expectancy,2022.2.4,Win32,60.0060006,Chrome,1536,864,,,,,,,,,,,,,,,,,,,,,,,,,,,,,,,,,,,,,,,,,,,,,,,,,,,,,,6,,,,,,,,,,,,,,I was asked to observe if a number was greater or less than 153 and I was also asked to see if a letter was closer to a or y,1,,3,2,,2,1536,864
