participant,date,expName,psychopyVersion,OS,frameRate,browser,xResolution,yResolution,key_resp.keys,key_resp.rt,training_resp.keys,training_resp.rt,points_trial,points_cumul,trainBlock,training.thisRepN,training.thisTrialN,training.thisN,training.thisIndex,training.ran,LTriangleOpac,LCircleOpac,LHexagonOpac,LStarOpac,RTriangleOpac,RCircleOpac,RHexagonOpac,RStarOpac,LShape_ID,RShape_ID,curr_topStim,curr_bottStim,curr_shape,acc,E1,target_resp_prac1.keys,target_resp_prac1.rt,pracBlock,task1_prac_trials.thisRepN,task1_prac_trials.thisTrialN,task1_prac_trials.thisN,task1_prac_trials.thisIndex,task1_prac_trials.ran,target_resp_prac2.keys,target_resp_prac2.rt,task2_praac_trials.thisRepN,task2_praac_trials.thisTrialN,task2_praac_trials.thisN,task2_praac_trials.thisIndex,task2_praac_trials.ran,alt,task,condition,target_resp.keys,rewCond,vts_practice_trials.thisRepN,vts_practice_trials.thisTrialN,vts_practice_trials.thisN,vts_practice_trials.thisIndex,vts_practice_trials.ran,target_resp.rt,blockNum,trials_norew.thisRepN,trials_norew.thisTrialN,trials_norew.thisN,trials_norew.thisIndex,trials_norew.ran,key_resp_2.keys,key_resp_2.rt,rewExpect,trials_rew.thisRepN,trials_rew.thisTrialN,trials_rew.thisN,trials_rew.thisIndex,trials_rew.ran,Q1,Q2,Q2_text,Q3,Q4,Q5_text,Q5,xRes,yRes
294727,2022-10-07_24h33.09.047,vts_reward_expectancy,2022.2.4,MacIntel,120.0048002,Chrome,1512,982,,,,,,,,,,,,,,,,,,,,,,,,,,,,,,,,,,,,,,,,,,,,,,,,,,,,,,,,,,,,,,,,,,,,,,,,,,,,
294727,2022-10-07_24h33.09.047,vts_reward_expectancy,2022.2.4,MacIntel,120.0048002,Chrome,1512,982,space,10.1996,,,,,,,,,,,,,,,,,,,,,,,,,,,,,,,,,,,,,,,,,,,,,,,,,,,,,,,,,,,,,,,,,,,,,,,,,,
294727,2022-10-07_24h33.09.047,vts_reward_expectancy,2022.2.4,MacIntel,120.0048002,Chrome,1512,982,,,,,,,,,,,,,,,,,,,,,,,,,,,,,,,,,,,,,,,,,,,,,,,,,,,,,,,,,,,,,,,,,,,,,,,,,,,,
294727,2022-10-07_24h33.09.047,vts_reward_expectancy,2022.2.4,MacIntel,120.0048002,Chrome,1512,982,,,a,1.519,1,1,0,0,0,0,5,1,0,1,0,0,0,0,0,1,circle,star,,,,,,,,,,,,,,,,,,,,,,,,,,,,,,,,,,,,,,,,,,,,,,,,,,,,,,
294727,2022-10-07_24h33.09.047,vts_reward_expectancy,2022.2.4,MacIntel,120.0048002,Chrome,1512,982,,,a,1.6896,10,11,0,0,1,1,0,1,1,0,0,0,0,1,0,0,triangle,circle,,,,,,,,,,,,,,,,,,,,,,,,,,,,,,,,,,,,,,,,,,,,,,,,,,,,,,
294727,2022-10-07_24h33.09.047,vts_reward_expectancy,2022.2.4,MacIntel,120.0048002,Chrome,1512,982,,,l,0.7601,1,12,0,0,2,2,2,1,1,0,0,0,0,0,0,1,triangle,star,,,,,,,,,,,,,,,,,,,,,,,,,,,,,,,,,,,,,,,,,,,,,,,,,,,,,,
294727,2022-10-07_24h33.09.047,vts_reward_expectancy,2022.2.4,MacIntel,120.0048002,Chrome,1512,982,,,a,1.1606,1,13,0,0,3,3,7,1,0,0,1,0,0,1,0,0,hexagon,circle,,,,,,,,,,,,,,,,,,,,,,,,,,,,,,,,,,,,,,,,,,,,,,,,,,,,,,
294727,2022-10-07_24h33.09.047,vts_reward_expectancy,2022.2.4,MacIntel,120.0048002,Chrome,1512,982,,,a,1.341,10,23,0,0,4,4,9,1,0,0,0,1,1,0,0,0,star,triangle,,,,,,,,,,,,,,,,,,,,,,,,,,,,,,,,,,,,,,,,,,,,,,,,,,,,,,
294727,2022-10-07_24h33.09.047,vts_reward_expectancy,2022.2.4,MacIntel,120.0048002,Chrome,1512,982,,,l,0.6458,10,33,0,0,5,5,1,1,1,0,0,0,0,0,1,0,triangle,hexagon,,,,,,,,,,,,,,,,,,,,,,,,,,,,,,,,,,,,,,,,,,,,,,,,,,,,,,
294727,2022-10-07_24h33.09.047,vts_reward_expectancy,2022.2.4,MacIntel,120.0048002,Chrome,1512,982,,,a,0.4222,10,43,0,0,6,6,6,1,0,0,1,0,1,0,0,0,hexagon,triangle,,,,,,,,,,,,,,,,,,,,,,,,,,,,,,,,,,,,,,,,,,,,,,,,,,,,,,
294727,2022-10-07_24h33.09.047,vts_reward_expectancy,2022.2.4,MacIntel,120.0048002,Chrome,1512,982,,,l,0.7104,10,53,0,0,7,7,4,1,0,1,0,0,0,0,1,0,circle,hexagon,,,,,,,,,,,,,,,,,,,,,,,,,,,,,,,,,,,,,,,,,,,,,,,,,,,,,,
294727,2022-10-07_24h33.09.047,vts_reward_expectancy,2022.2.4,MacIntel,120.0048002,Chrome,1512,982,,,a,1.2127,1,54,0,0,8,8,11,1,0,0,0,1,0,0,1,0,star,hexagon,,,,,,,,,,,,,,,,,,,,,,,,,,,,,,,,,,,,,,,,,,,,,,,,,,,,,,
294727,2022-10-07_24h33.09.047,vts_reward_expectancy,2022.2.4,MacIntel,120.0048002,Chrome,1512,982,,,l,1.5369,1,55,0,0,9,9,3,1,0,1,0,0,1,0,0,0,circle,triangle,,,,,,,,,,,,,,,,,,,,,,,,,,,,,,,,,,,,,,,,,,,,,,,,,,,,,,
294727,2022-10-07_24h33.09.047,vts_reward_expectancy,2022.2.4,MacIntel,120.0048002,Chrome,1512,982,,,l,0.8782,1,56,0,0,10,10,8,1,0,0,1,0,0,0,0,1,hexagon,star,,,,,,,,,,,,,,,,,,,,,,,,,,,,,,,,,,,,,,,,,,,,,,,,,,,,,,
294727,2022-10-07_24h33.09.047,vts_reward_expectancy,2022.2.4,MacIntel,120.0048002,Chrome,1512,982,,,a,0.6247,1,57,0,0,11,11,10,1,0,0,0,1,0,1,0,0,star ,circle,,,,,,,,,,,,,,,,,,,,,,,,,,,,,,,,,,,,,,,,,,,,,,,,,,,,,,
294727,2022-10-07_24h33.09.047,vts_reward_expectancy,2022.2.4,MacIntel,120.0048002,Chrome,1512,982,,,a,1.0983,10,67,0,1,0,12,2,1,1,0,0,0,0,0,0,1,triangle,star,,,,,,,,,,,,,,,,,,,,,,,,,,,,,,,,,,,,,,,,,,,,,,,,,,,,,,
294727,2022-10-07_24h33.09.047,vts_reward_expectancy,2022.2.4,MacIntel,120.0048002,Chrome,1512,982,,,l,0.9293,1,68,0,1,1,13,9,1,0,0,0,1,1,0,0,0,star,triangle,,,,,,,,,,,,,,,,,,,,,,,,,,,,,,,,,,,,,,,,,,,,,,,,,,,,,,
294727,2022-10-07_24h33.09.047,vts_reward_expectancy,2022.2.4,MacIntel,120.0048002,Chrome,1512,982,,,a,0.6887,1,69,0,1,2,14,3,1,0,1,0,0,1,0,0,0,circle,triangle,,,,,,,,,,,,,,,,,,,,,,,,,,,,,,,,,,,,,,,,,,,,,,,,,,,,,,
294727,2022-10-07_24h33.09.047,vts_reward_expectancy,2022.2.4,MacIntel,120.0048002,Chrome,1512,982,,,l,0.9291,10,79,0,1,3,15,1,1,1,0,0,0,0,0,1,0,triangle,hexagon,,,,,,,,,,,,,,,,,,,,,,,,,,,,,,,,,,,,,,,,,,,,,,,,,,,,,,
294727,2022-10-07_24h33.09.047,vts_reward_expectancy,2022.2.4,MacIntel,120.0048002,Chrome,1512,982,,,l,0.6239,1,80,0,1,4,16,11,1,0,0,0,1,0,0,1,0,star,hexagon,,,,,,,,,,,,,,,,,,,,,,,,,,,,,,,,,,,,,,,,,,,,,,,,,,,,,,
294727,2022-10-07_24h33.09.047,vts_reward_expectancy,2022.2.4,MacIntel,120.0048002,Chrome,1512,982,,,a,0.6529,1,81,0,1,5,17,10,1,0,0,0,1,0,1,0,0,star ,circle,,,,,,,,,,,,,,,,,,,,,,,,,,,,,,,,,,,,,,,,,,,,,,,,,,,,,,
294727,2022-10-07_24h33.09.047,vts_reward_expectancy,2022.2.4,MacIntel,120.0048002,Chrome,1512,982,,,l,0.5432,1,82,0,1,6,18,5,1,0,1,0,0,0,0,0,1,circle,star,,,,,,,,,,,,,,,,,,,,,,,,,,,,,,,,,,,,,,,,,,,,,,,,,,,,,,
294727,2022-10-07_24h33.09.047,vts_reward_expectancy,2022.2.4,MacIntel,120.0048002,Chrome,1512,982,,,a,0.3761,10,92,0,1,7,19,7,1,0,0,1,0,0,1,0,0,hexagon,circle,,,,,,,,,,,,,,,,,,,,,,,,,,,,,,,,,,,,,,,,,,,,,,,,,,,,,,
294727,2022-10-07_24h33.09.047,vts_reward_expectancy,2022.2.4,MacIntel,120.0048002,Chrome,1512,982,,,l,0.4864,1,93,0,1,8,20,8,1,0,0,1,0,0,0,0,1,hexagon,star,,,,,,,,,,,,,,,,,,,,,,,,,,,,,,,,,,,,,,,,,,,,,,,,,,,,,,
294727,2022-10-07_24h33.09.047,vts_reward_expectancy,2022.2.4,MacIntel,120.0048002,Chrome,1512,982,,,a,0.7119,1,94,0,1,9,21,0,1,1,0,0,0,0,1,0,0,triangle,circle,,,,,,,,,,,,,,,,,,,,,,,,,,,,,,,,,,,,,,,,,,,,,,,,,,,,,,
294727,2022-10-07_24h33.09.047,vts_reward_expectancy,2022.2.4,MacIntel,120.0048002,Chrome,1512,982,,,l,0.3306,10,104,0,1,10,22,6,1,0,0,1,0,1,0,0,0,hexagon,triangle,,,,,,,,,,,,,,,,,,,,,,,,,,,,,,,,,,,,,,,,,,,,,,,,,,,,,,
294727,2022-10-07_24h33.09.047,vts_reward_expectancy,2022.2.4,MacIntel,120.0048002,Chrome,1512,982,,,a,0.9877,1,105,0,1,11,23,4,1,0,1,0,0,0,0,1,0,circle,hexagon,,,,,,,,,,,,,,,,,,,,,,,,,,,,,,,,,,,,,,,,,,,,,,,,,,,,,,
294727,2022-10-07_24h33.09.047,vts_reward_expectancy,2022.2.4,MacIntel,120.0048002,Chrome,1512,982,,,l,0.6261,1,106,0,2,0,24,0,1,1,0,0,0,0,1,0,0,triangle,circle,,,,,,,,,,,,,,,,,,,,,,,,,,,,,,,,,,,,,,,,,,,,,,,,,,,,,,
294727,2022-10-07_24h33.09.047,vts_reward_expectancy,2022.2.4,MacIntel,120.0048002,Chrome,1512,982,,,a,1.0572,1,107,0,2,1,25,10,1,0,0,0,1,0,1,0,0,star ,circle,,,,,,,,,,,,,,,,,,,,,,,,,,,,,,,,,,,,,,,,,,,,,,,,,,,,,,
294727,2022-10-07_24h33.09.047,vts_reward_expectancy,2022.2.4,MacIntel,120.0048002,Chrome,1512,982,,,l,1.1267,10,117,0,2,2,26,4,1,0,1,0,0,0,0,1,0,circle,hexagon,,,,,,,,,,,,,,,,,,,,,,,,,,,,,,,,,,,,,,,,,,,,,,,,,,,,,,
294727,2022-10-07_24h33.09.047,vts_reward_expectancy,2022.2.4,MacIntel,120.0048002,Chrome,1512,982,,,l,1.0384,10,127,0,2,3,27,9,1,0,0,0,1,1,0,0,0,star,triangle,,,,,,,,,,,,,,,,,,,,,,,,,,,,,,,,,,,,,,,,,,,,,,,,,,,,,,
294727,2022-10-07_24h33.09.047,vts_reward_expectancy,2022.2.4,MacIntel,120.0048002,Chrome,1512,982,,,l,1.1685,10,137,0,2,4,28,2,1,1,0,0,0,0,0,0,1,triangle,star,,,,,,,,,,,,,,,,,,,,,,,,,,,,,,,,,,,,,,,,,,,,,,,,,,,,,,
294727,2022-10-07_24h33.09.047,vts_reward_expectancy,2022.2.4,MacIntel,120.0048002,Chrome,1512,982,,,l,1.1639,1,138,0,2,5,29,8,1,0,0,1,0,0,0,0,1,hexagon,star,,,,,,,,,,,,,,,,,,,,,,,,,,,,,,,,,,,,,,,,,,,,,,,,,,,,,,
294727,2022-10-07_24h33.09.047,vts_reward_expectancy,2022.2.4,MacIntel,120.0048002,Chrome,1512,982,,,l,0.955,10,148,0,2,6,30,1,1,1,0,0,0,0,0,1,0,triangle,hexagon,,,,,,,,,,,,,,,,,,,,,,,,,,,,,,,,,,,,,,,,,,,,,,,,,,,,,,
294727,2022-10-07_24h33.09.047,vts_reward_expectancy,2022.2.4,MacIntel,120.0048002,Chrome,1512,982,,,a,1.119,10,158,0,2,7,31,3,1,0,1,0,0,1,0,0,0,circle,triangle,,,,,,,,,,,,,,,,,,,,,,,,,,,,,,,,,,,,,,,,,,,,,,,,,,,,,,
294727,2022-10-07_24h33.09.047,vts_reward_expectancy,2022.2.4,MacIntel,120.0048002,Chrome,1512,982,,,l,0.4956,10,168,0,2,8,32,11,1,0,0,0,1,0,0,1,0,star,hexagon,,,,,,,,,,,,,,,,,,,,,,,,,,,,,,,,,,,,,,,,,,,,,,,,,,,,,,
294727,2022-10-07_24h33.09.047,vts_reward_expectancy,2022.2.4,MacIntel,120.0048002,Chrome,1512,982,,,l,1.5234,10,178,0,2,9,33,7,1,0,0,1,0,0,1,0,0,hexagon,circle,,,,,,,,,,,,,,,,,,,,,,,,,,,,,,,,,,,,,,,,,,,,,,,,,,,,,,
294727,2022-10-07_24h33.09.047,vts_reward_expectancy,2022.2.4,MacIntel,120.0048002,Chrome,1512,982,,,a,0.5695,10,188,0,2,10,34,6,1,0,0,1,0,1,0,0,0,hexagon,triangle,,,,,,,,,,,,,,,,,,,,,,,,,,,,,,,,,,,,,,,,,,,,,,,,,,,,,,
294727,2022-10-07_24h33.09.047,vts_reward_expectancy,2022.2.4,MacIntel,120.0048002,Chrome,1512,982,,,a,0.8745,10,198,0,2,11,35,5,1,0,1,0,0,0,0,0,1,circle,star,,,,,,,,,,,,,,,,,,,,,,,,,,,,,,,,,,,,,,,,,,,,,,,,,,,,,,
294727,2022-10-07_24h33.09.047,vts_reward_expectancy,2022.2.4,MacIntel,120.0048002,Chrome,1512,982,,,l,0.9961,1,199,1,0,0,0,5,1,0,1,0,0,0,0,0,1,circle,star,,,,,,,,,,,,,,,,,,,,,,,,,,,,,,,,,,,,,,,,,,,,,,,,,,,,,,
294727,2022-10-07_24h33.09.047,vts_reward_expectancy,2022.2.4,MacIntel,120.0048002,Chrome,1512,982,,,l,0.5202,10,209,1,0,1,1,7,1,0,0,1,0,0,1,0,0,hexagon,circle,,,,,,,,,,,,,,,,,,,,,,,,,,,,,,,,,,,,,,,,,,,,,,,,,,,,,,
294727,2022-10-07_24h33.09.047,vts_reward_expectancy,2022.2.4,MacIntel,120.0048002,Chrome,1512,982,,,a,0.159,1,210,1,0,2,2,9,1,0,0,0,1,1,0,0,0,star,triangle,,,,,,,,,,,,,,,,,,,,,,,,,,,,,,,,,,,,,,,,,,,,,,,,,,,,,,
294727,2022-10-07_24h33.09.047,vts_reward_expectancy,2022.2.4,MacIntel,120.0048002,Chrome,1512,982,,,l,0.4965,10,220,1,0,3,3,4,1,0,1,0,0,0,0,1,0,circle,hexagon,,,,,,,,,,,,,,,,,,,,,,,,,,,,,,,,,,,,,,,,,,,,,,,,,,,,,,
294727,2022-10-07_24h33.09.047,vts_reward_expectancy,2022.2.4,MacIntel,120.0048002,Chrome,1512,982,,,a,0.2211,10,230,1,0,4,4,0,1,1,0,0,0,0,1,0,0,triangle,circle,,,,,,,,,,,,,,,,,,,,,,,,,,,,,,,,,,,,,,,,,,,,,,,,,,,,,,
294727,2022-10-07_24h33.09.047,vts_reward_expectancy,2022.2.4,MacIntel,120.0048002,Chrome,1512,982,,,l,0.2684,1,231,1,0,5,5,2,1,1,0,0,0,0,0,0,1,triangle,star,,,,,,,,,,,,,,,,,,,,,,,,,,,,,,,,,,,,,,,,,,,,,,,,,,,,,,
294727,2022-10-07_24h33.09.047,vts_reward_expectancy,2022.2.4,MacIntel,120.0048002,Chrome,1512,982,,,a,0.3039,1,232,1,0,6,6,11,1,0,0,0,1,0,0,1,0,star,hexagon,,,,,,,,,,,,,,,,,,,,,,,,,,,,,,,,,,,,,,,,,,,,,,,,,,,,,,
294727,2022-10-07_24h33.09.047,vts_reward_expectancy,2022.2.4,MacIntel,120.0048002,Chrome,1512,982,,,l,0.3301,10,242,1,0,7,7,3,1,0,1,0,0,1,0,0,0,circle,triangle,,,,,,,,,,,,,,,,,,,,,,,,,,,,,,,,,,,,,,,,,,,,,,,,,,,,,,
294727,2022-10-07_24h33.09.047,vts_reward_expectancy,2022.2.4,MacIntel,120.0048002,Chrome,1512,982,,,a,0.8207,10,252,1,0,8,8,6,1,0,0,1,0,1,0,0,0,hexagon,triangle,,,,,,,,,,,,,,,,,,,,,,,,,,,,,,,,,,,,,,,,,,,,,,,,,,,,,,
294727,2022-10-07_24h33.09.047,vts_reward_expectancy,2022.2.4,MacIntel,120.0048002,Chrome,1512,982,,,l,0.6525,10,262,1,0,9,9,1,1,1,0,0,0,0,0,1,0,triangle,hexagon,,,,,,,,,,,,,,,,,,,,,,,,,,,,,,,,,,,,,,,,,,,,,,,,,,,,,,
294727,2022-10-07_24h33.09.047,vts_reward_expectancy,2022.2.4,MacIntel,120.0048002,Chrome,1512,982,,,a,0.6072,10,272,1,0,10,10,8,1,0,0,1,0,0,0,0,1,hexagon,star,,,,,,,,,,,,,,,,,,,,,,,,,,,,,,,,,,,,,,,,,,,,,,,,,,,,,,
294727,2022-10-07_24h33.09.047,vts_reward_expectancy,2022.2.4,MacIntel,120.0048002,Chrome,1512,982,,,l,0.667,1,273,1,0,11,11,10,1,0,0,0,1,0,1,0,0,star ,circle,,,,,,,,,,,,,,,,,,,,,,,,,,,,,,,,,,,,,,,,,,,,,,,,,,,,,,
294727,2022-10-07_24h33.09.047,vts_reward_expectancy,2022.2.4,MacIntel,120.0048002,Chrome,1512,982,,,a,0.9894,10,283,1,1,0,12,6,1,0,0,1,0,1,0,0,0,hexagon,triangle,,,,,,,,,,,,,,,,,,,,,,,,,,,,,,,,,,,,,,,,,,,,,,,,,,,,,,
294727,2022-10-07_24h33.09.047,vts_reward_expectancy,2022.2.4,MacIntel,120.0048002,Chrome,1512,982,,,l,0.5864,10,293,1,1,1,13,1,1,1,0,0,0,0,0,1,0,triangle,hexagon,,,,,,,,,,,,,,,,,,,,,,,,,,,,,,,,,,,,,,,,,,,,,,,,,,,,,,
294727,2022-10-07_24h33.09.047,vts_reward_expectancy,2022.2.4,MacIntel,120.0048002,Chrome,1512,982,,,l,0.9785,1,294,1,1,2,14,9,1,0,0,0,1,1,0,0,0,star,triangle,,,,,,,,,,,,,,,,,,,,,,,,,,,,,,,,,,,,,,,,,,,,,,,,,,,,,,
294727,2022-10-07_24h33.09.047,vts_reward_expectancy,2022.2.4,MacIntel,120.0048002,Chrome,1512,982,,,a,0.8123,1,295,1,1,3,15,2,1,1,0,0,0,0,0,0,1,triangle,star,,,,,,,,,,,,,,,,,,,,,,,,,,,,,,,,,,,,,,,,,,,,,,,,,,,,,,
294727,2022-10-07_24h33.09.047,vts_reward_expectancy,2022.2.4,MacIntel,120.0048002,Chrome,1512,982,,,a,1.3859,10,305,1,1,4,16,0,1,1,0,0,0,0,1,0,0,triangle,circle,,,,,,,,,,,,,,,,,,,,,,,,,,,,,,,,,,,,,,,,,,,,,,,,,,,,,,
294727,2022-10-07_24h33.09.047,vts_reward_expectancy,2022.2.4,MacIntel,120.0048002,Chrome,1512,982,,,l,1.3621,10,315,1,1,5,17,11,1,0,0,0,1,0,0,1,0,star,hexagon,,,,,,,,,,,,,,,,,,,,,,,,,,,,,,,,,,,,,,,,,,,,,,,,,,,,,,
294727,2022-10-07_24h33.09.047,vts_reward_expectancy,2022.2.4,MacIntel,120.0048002,Chrome,1512,982,,,a,1.0039,10,325,1,1,6,18,8,1,0,0,1,0,0,0,0,1,hexagon,star,,,,,,,,,,,,,,,,,,,,,,,,,,,,,,,,,,,,,,,,,,,,,,,,,,,,,,
294727,2022-10-07_24h33.09.047,vts_reward_expectancy,2022.2.4,MacIntel,120.0048002,Chrome,1512,982,,,l,1.686,1,326,1,1,7,19,10,1,0,0,0,1,0,1,0,0,star ,circle,,,,,,,,,,,,,,,,,,,,,,,,,,,,,,,,,,,,,,,,,,,,,,,,,,,,,,
294727,2022-10-07_24h33.09.047,vts_reward_expectancy,2022.2.4,MacIntel,120.0048002,Chrome,1512,982,,,a,1.6612,10,336,1,1,8,20,5,1,0,1,0,0,0,0,0,1,circle,star,,,,,,,,,,,,,,,,,,,,,,,,,,,,,,,,,,,,,,,,,,,,,,,,,,,,,,
294727,2022-10-07_24h33.09.047,vts_reward_expectancy,2022.2.4,MacIntel,120.0048002,Chrome,1512,982,,,a,1.0333,10,346,1,1,9,21,3,1,0,1,0,0,1,0,0,0,circle,triangle,,,,,,,,,,,,,,,,,,,,,,,,,,,,,,,,,,,,,,,,,,,,,,,,,,,,,,
294727,2022-10-07_24h33.09.047,vts_reward_expectancy,2022.2.4,MacIntel,120.0048002,Chrome,1512,982,,,l,0.962,10,356,1,1,10,22,4,1,0,1,0,0,0,0,1,0,circle,hexagon,,,,,,,,,,,,,,,,,,,,,,,,,,,,,,,,,,,,,,,,,,,,,,,,,,,,,,
294727,2022-10-07_24h33.09.047,vts_reward_expectancy,2022.2.4,MacIntel,120.0048002,Chrome,1512,982,,,a,1.6682,10,366,1,1,11,23,7,1,0,0,1,0,0,1,0,0,hexagon,circle,,,,,,,,,,,,,,,,,,,,,,,,,,,,,,,,,,,,,,,,,,,,,,,,,,,,,,
294727,2022-10-07_24h33.09.047,vts_reward_expectancy,2022.2.4,MacIntel,120.0048002,Chrome,1512,982,,,l,1.2873,10,376,1,2,0,24,11,1,0,0,0,1,0,0,1,0,star,hexagon,,,,,,,,,,,,,,,,,,,,,,,,,,,,,,,,,,,,,,,,,,,,,,,,,,,,,,
294727,2022-10-07_24h33.09.047,vts_reward_expectancy,2022.2.4,MacIntel,120.0048002,Chrome,1512,982,,,l,4.9595,10,386,1,2,1,25,3,1,0,1,0,0,1,0,0,0,circle,triangle,,,,,,,,,,,,,,,,,,,,,,,,,,,,,,,,,,,,,,,,,,,,,,,,,,,,,,
294727,2022-10-07_24h33.09.047,vts_reward_expectancy,2022.2.4,MacIntel,120.0048002,Chrome,1512,982,,,a,1.7865,10,396,1,2,2,26,7,1,0,0,1,0,0,1,0,0,hexagon,circle,,,,,,,,,,,,,,,,,,,,,,,,,,,,,,,,,,,,,,,,,,,,,,,,,,,,,,
294727,2022-10-07_24h33.09.047,vts_reward_expectancy,2022.2.4,MacIntel,120.0048002,Chrome,1512,982,,,a,1.6962,10,406,1,2,3,27,8,1,0,0,1,0,0,0,0,1,hexagon,star,,,,,,,,,,,,,,,,,,,,,,,,,,,,,,,,,,,,,,,,,,,,,,,,,,,,,,
294727,2022-10-07_24h33.09.047,vts_reward_expectancy,2022.2.4,MacIntel,120.0048002,Chrome,1512,982,,,a,1.0462,10,416,1,2,4,28,6,1,0,0,1,0,1,0,0,0,hexagon,triangle,,,,,,,,,,,,,,,,,,,,,,,,,,,,,,,,,,,,,,,,,,,,,,,,,,,,,,
294727,2022-10-07_24h33.09.047,vts_reward_expectancy,2022.2.4,MacIntel,120.0048002,Chrome,1512,982,,,a,1.5787,10,426,1,2,5,29,2,1,1,0,0,0,0,0,0,1,triangle,star,,,,,,,,,,,,,,,,,,,,,,,,,,,,,,,,,,,,,,,,,,,,,,,,,,,,,,
294727,2022-10-07_24h33.09.047,vts_reward_expectancy,2022.2.4,MacIntel,120.0048002,Chrome,1512,982,,,l,0.9763,10,436,1,2,6,30,9,1,0,0,0,1,1,0,0,0,star,triangle,,,,,,,,,,,,,,,,,,,,,,,,,,,,,,,,,,,,,,,,,,,,,,,,,,,,,,
294727,2022-10-07_24h33.09.047,vts_reward_expectancy,2022.2.4,MacIntel,120.0048002,Chrome,1512,982,,,a,0.9323,1,437,1,2,7,31,1,1,1,0,0,0,0,0,1,0,triangle,hexagon,,,,,,,,,,,,,,,,,,,,,,,,,,,,,,,,,,,,,,,,,,,,,,,,,,,,,,
294727,2022-10-07_24h33.09.047,vts_reward_expectancy,2022.2.4,MacIntel,120.0048002,Chrome,1512,982,,,a,1.1035,10,447,1,2,8,32,5,1,0,1,0,0,0,0,0,1,circle,star,,,,,,,,,,,,,,,,,,,,,,,,,,,,,,,,,,,,,,,,,,,,,,,,,,,,,,
294727,2022-10-07_24h33.09.047,vts_reward_expectancy,2022.2.4,MacIntel,120.0048002,Chrome,1512,982,,,l,0.9035,10,457,1,2,9,33,0,1,1,0,0,0,0,1,0,0,triangle,circle,,,,,,,,,,,,,,,,,,,,,,,,,,,,,,,,,,,,,,,,,,,,,,,,,,,,,,
294727,2022-10-07_24h33.09.047,vts_reward_expectancy,2022.2.4,MacIntel,120.0048002,Chrome,1512,982,,,l,3.1352,1,458,1,2,10,34,10,1,0,0,0,1,0,1,0,0,star ,circle,,,,,,,,,,,,,,,,,,,,,,,,,,,,,,,,,,,,,,,,,,,,,,,,,,,,,,
294727,2022-10-07_24h33.09.047,vts_reward_expectancy,2022.2.4,MacIntel,120.0048002,Chrome,1512,982,,,l,1.0344,1,459,1,2,11,35,4,1,0,1,0,0,0,0,1,0,circle,hexagon,,,,,,,,,,,,,,,,,,,,,,,,,,,,,,,,,,,,,,,,,,,,,,,,,,,,,,
294727,2022-10-07_24h33.09.047,vts_reward_expectancy,2022.2.4,MacIntel,120.0048002,Chrome,1512,982,,,l,0.7685,1,460,2,0,0,0,0,1,1,0,0,0,0,1,0,0,triangle,circle,,,,,,,,,,,,,,,,,,,,,,,,,,,,,,,,,,,,,,,,,,,,,,,,,,,,,,
294727,2022-10-07_24h33.09.047,vts_reward_expectancy,2022.2.4,MacIntel,120.0048002,Chrome,1512,982,,,a,0.3114,1,461,2,0,1,1,10,1,0,0,0,1,0,1,0,0,star ,circle,,,,,,,,,,,,,,,,,,,,,,,,,,,,,,,,,,,,,,,,,,,,,,,,,,,,,,
294727,2022-10-07_24h33.09.047,vts_reward_expectancy,2022.2.4,MacIntel,120.0048002,Chrome,1512,982,,,a,1.0238,1,462,2,0,2,2,2,1,1,0,0,0,0,0,0,1,triangle,star,,,,,,,,,,,,,,,,,,,,,,,,,,,,,,,,,,,,,,,,,,,,,,,,,,,,,,
294727,2022-10-07_24h33.09.047,vts_reward_expectancy,2022.2.4,MacIntel,120.0048002,Chrome,1512,982,,,l,0.6462,10,472,2,0,3,3,11,1,0,0,0,1,0,0,1,0,star,hexagon,,,,,,,,,,,,,,,,,,,,,,,,,,,,,,,,,,,,,,,,,,,,,,,,,,,,,,
294727,2022-10-07_24h33.09.047,vts_reward_expectancy,2022.2.4,MacIntel,120.0048002,Chrome,1512,982,,,a,0.6195,10,482,2,0,4,4,8,1,0,0,1,0,0,0,0,1,hexagon,star,,,,,,,,,,,,,,,,,,,,,,,,,,,,,,,,,,,,,,,,,,,,,,,,,,,,,,
294727,2022-10-07_24h33.09.047,vts_reward_expectancy,2022.2.4,MacIntel,120.0048002,Chrome,1512,982,,,l,0.8584,10,492,2,0,5,5,4,1,0,1,0,0,0,0,1,0,circle,hexagon,,,,,,,,,,,,,,,,,,,,,,,,,,,,,,,,,,,,,,,,,,,,,,,,,,,,,,
294727,2022-10-07_24h33.09.047,vts_reward_expectancy,2022.2.4,MacIntel,120.0048002,Chrome,1512,982,,,a,1.2746,10,502,2,0,6,6,5,1,0,1,0,0,0,0,0,1,circle,star,,,,,,,,,,,,,,,,,,,,,,,,,,,,,,,,,,,,,,,,,,,,,,,,,,,,,,
294727,2022-10-07_24h33.09.047,vts_reward_expectancy,2022.2.4,MacIntel,120.0048002,Chrome,1512,982,,,a,1.1696,10,512,2,0,7,7,3,1,0,1,0,0,1,0,0,0,circle,triangle,,,,,,,,,,,,,,,,,,,,,,,,,,,,,,,,,,,,,,,,,,,,,,,,,,,,,,
294727,2022-10-07_24h33.09.047,vts_reward_expectancy,2022.2.4,MacIntel,120.0048002,Chrome,1512,982,,,l,0.8925,10,522,2,0,8,8,1,1,1,0,0,0,0,0,1,0,triangle,hexagon,,,,,,,,,,,,,,,,,,,,,,,,,,,,,,,,,,,,,,,,,,,,,,,,,,,,,,
294727,2022-10-07_24h33.09.047,vts_reward_expectancy,2022.2.4,MacIntel,120.0048002,Chrome,1512,982,,,l,1.0465,1,523,2,0,9,9,9,1,0,0,0,1,1,0,0,0,star,triangle,,,,,,,,,,,,,,,,,,,,,,,,,,,,,,,,,,,,,,,,,,,,,,,,,,,,,,
294727,2022-10-07_24h33.09.047,vts_reward_expectancy,2022.2.4,MacIntel,120.0048002,Chrome,1512,982,,,a,0.7354,10,533,2,0,10,10,6,1,0,0,1,0,1,0,0,0,hexagon,triangle,,,,,,,,,,,,,,,,,,,,,,,,,,,,,,,,,,,,,,,,,,,,,,,,,,,,,,
294727,2022-10-07_24h33.09.047,vts_reward_expectancy,2022.2.4,MacIntel,120.0048002,Chrome,1512,982,,,l,0.8995,10,543,2,0,11,11,7,1,0,0,1,0,0,1,0,0,hexagon,circle,,,,,,,,,,,,,,,,,,,,,,,,,,,,,,,,,,,,,,,,,,,,,,,,,,,,,,
294727,2022-10-07_24h33.09.047,vts_reward_expectancy,2022.2.4,MacIntel,120.0048002,Chrome,1512,982,,,a,0.615,1,544,2,1,0,12,3,1,0,1,0,0,1,0,0,0,circle,triangle,,,,,,,,,,,,,,,,,,,,,,,,,,,,,,,,,,,,,,,,,,,,,,,,,,,,,,
294727,2022-10-07_24h33.09.047,vts_reward_expectancy,2022.2.4,MacIntel,120.0048002,Chrome,1512,982,,,l,0.7204,1,545,2,1,1,13,11,1,0,0,0,1,0,0,1,0,star,hexagon,,,,,,,,,,,,,,,,,,,,,,,,,,,,,,,,,,,,,,,,,,,,,,,,,,,,,,
294727,2022-10-07_24h33.09.047,vts_reward_expectancy,2022.2.4,MacIntel,120.0048002,Chrome,1512,982,,,a,1.4003,1,546,2,1,2,14,1,1,1,0,0,0,0,0,1,0,triangle,hexagon,,,,,,,,,,,,,,,,,,,,,,,,,,,,,,,,,,,,,,,,,,,,,,,,,,,,,,
294727,2022-10-07_24h33.09.047,vts_reward_expectancy,2022.2.4,MacIntel,120.0048002,Chrome,1512,982,,,l,0.244,1,547,2,1,3,15,7,1,0,0,1,0,0,1,0,0,hexagon,circle,,,,,,,,,,,,,,,,,,,,,,,,,,,,,,,,,,,,,,,,,,,,,,,,,,,,,,
294727,2022-10-07_24h33.09.047,vts_reward_expectancy,2022.2.4,MacIntel,120.0048002,Chrome,1512,982,,,l,0.2553,1,548,2,1,4,16,10,1,0,0,0,1,0,1,0,0,star ,circle,,,,,,,,,,,,,,,,,,,,,,,,,,,,,,,,,,,,,,,,,,,,,,,,,,,,,,
294727,2022-10-07_24h33.09.047,vts_reward_expectancy,2022.2.4,MacIntel,120.0048002,Chrome,1512,982,,,l,0.2847,1,549,2,1,5,17,8,1,0,0,1,0,0,0,0,1,hexagon,star,,,,,,,,,,,,,,,,,,,,,,,,,,,,,,,,,,,,,,,,,,,,,,,,,,,,,,
294727,2022-10-07_24h33.09.047,vts_reward_expectancy,2022.2.4,MacIntel,120.0048002,Chrome,1512,982,,,l,0.3899,1,550,2,1,6,18,2,1,1,0,0,0,0,0,0,1,triangle,star,,,,,,,,,,,,,,,,,,,,,,,,,,,,,,,,,,,,,,,,,,,,,,,,,,,,,,
294727,2022-10-07_24h33.09.047,vts_reward_expectancy,2022.2.4,MacIntel,120.0048002,Chrome,1512,982,,,l,0.6428,10,560,2,1,7,19,4,1,0,1,0,0,0,0,1,0,circle,hexagon,,,,,,,,,,,,,,,,,,,,,,,,,,,,,,,,,,,,,,,,,,,,,,,,,,,,,,
294727,2022-10-07_24h33.09.047,vts_reward_expectancy,2022.2.4,MacIntel,120.0048002,Chrome,1512,982,,,l,0.3608,1,561,2,1,8,20,0,1,1,0,0,0,0,1,0,0,triangle,circle,,,,,,,,,,,,,,,,,,,,,,,,,,,,,,,,,,,,,,,,,,,,,,,,,,,,,,
294727,2022-10-07_24h33.09.047,vts_reward_expectancy,2022.2.4,MacIntel,120.0048002,Chrome,1512,982,,,a,0.3328,1,562,2,1,9,21,6,1,0,0,1,0,1,0,0,0,hexagon,triangle,,,,,,,,,,,,,,,,,,,,,,,,,,,,,,,,,,,,,,,,,,,,,,,,,,,,,,
294727,2022-10-07_24h33.09.047,vts_reward_expectancy,2022.2.4,MacIntel,120.0048002,Chrome,1512,982,,,l,0.4351,10,572,2,1,10,22,9,1,0,0,0,1,1,0,0,0,star,triangle,,,,,,,,,,,,,,,,,,,,,,,,,,,,,,,,,,,,,,,,,,,,,,,,,,,,,,
294727,2022-10-07_24h33.09.047,vts_reward_expectancy,2022.2.4,MacIntel,120.0048002,Chrome,1512,982,,,a,0.6419,1,573,2,1,11,23,5,1,0,1,0,0,0,0,0,1,circle,star,,,,,,,,,,,,,,,,,,,,,,,,,,,,,,,,,,,,,,,,,,,,,,,,,,,,,,
294727,2022-10-07_24h33.09.047,vts_reward_expectancy,2022.2.4,MacIntel,120.0048002,Chrome,1512,982,,,l,0.6891,1,574,2,2,0,24,2,1,1,0,0,0,0,0,0,1,triangle,star,,,,,,,,,,,,,,,,,,,,,,,,,,,,,,,,,,,,,,,,,,,,,,,,,,,,,,
294727,2022-10-07_24h33.09.047,vts_reward_expectancy,2022.2.4,MacIntel,120.0048002,Chrome,1512,982,,,l,0.5763,1,575,2,2,1,25,10,1,0,0,0,1,0,1,0,0,star ,circle,,,,,,,,,,,,,,,,,,,,,,,,,,,,,,,,,,,,,,,,,,,,,,,,,,,,,,
294727,2022-10-07_24h33.09.047,vts_reward_expectancy,2022.2.4,MacIntel,120.0048002,Chrome,1512,982,,,a,0.4524,1,576,2,2,2,26,9,1,0,0,0,1,1,0,0,0,star,triangle,,,,,,,,,,,,,,,,,,,,,,,,,,,,,,,,,,,,,,,,,,,,,,,,,,,,,,
294727,2022-10-07_24h33.09.047,vts_reward_expectancy,2022.2.4,MacIntel,120.0048002,Chrome,1512,982,,,l,0.6026,1,577,2,2,3,27,1,1,1,0,0,0,0,0,1,0,triangle,hexagon,,,,,,,,,,,,,,,,,,,,,,,,,,,,,,,,,,,,,,,,,,,,,,,,,,,,,,
294727,2022-10-07_24h33.09.047,vts_reward_expectancy,2022.2.4,MacIntel,120.0048002,Chrome,1512,982,,,a,0.2857,1,578,2,2,4,28,4,1,0,1,0,0,0,0,1,0,circle,hexagon,,,,,,,,,,,,,,,,,,,,,,,,,,,,,,,,,,,,,,,,,,,,,,,,,,,,,,
294727,2022-10-07_24h33.09.047,vts_reward_expectancy,2022.2.4,MacIntel,120.0048002,Chrome,1512,982,,,l,0.138,1,579,2,2,5,29,8,1,0,0,1,0,0,0,0,1,hexagon,star,,,,,,,,,,,,,,,,,,,,,,,,,,,,,,,,,,,,,,,,,,,,,,,,,,,,,,
294727,2022-10-07_24h33.09.047,vts_reward_expectancy,2022.2.4,MacIntel,120.0048002,Chrome,1512,982,,,a,0.9678,1,580,2,2,6,30,0,1,1,0,0,0,0,1,0,0,triangle,circle,,,,,,,,,,,,,,,,,,,,,,,,,,,,,,,,,,,,,,,,,,,,,,,,,,,,,,
294727,2022-10-07_24h33.09.047,vts_reward_expectancy,2022.2.4,MacIntel,120.0048002,Chrome,1512,982,,,l,0.6126,10,590,2,2,7,31,11,1,0,0,0,1,0,0,1,0,star,hexagon,,,,,,,,,,,,,,,,,,,,,,,,,,,,,,,,,,,,,,,,,,,,,,,,,,,,,,
294727,2022-10-07_24h33.09.047,vts_reward_expectancy,2022.2.4,MacIntel,120.0048002,Chrome,1512,982,,,a,0.3473,10,600,2,2,8,32,6,1,0,0,1,0,1,0,0,0,hexagon,triangle,,,,,,,,,,,,,,,,,,,,,,,,,,,,,,,,,,,,,,,,,,,,,,,,,,,,,,
294727,2022-10-07_24h33.09.047,vts_reward_expectancy,2022.2.4,MacIntel,120.0048002,Chrome,1512,982,,,l,0.3447,1,601,2,2,9,33,5,1,0,1,0,0,0,0,0,1,circle,star,,,,,,,,,,,,,,,,,,,,,,,,,,,,,,,,,,,,,,,,,,,,,,,,,,,,,,
294727,2022-10-07_24h33.09.047,vts_reward_expectancy,2022.2.4,MacIntel,120.0048002,Chrome,1512,982,,,a,0.2549,10,611,2,2,10,34,3,1,0,1,0,0,1,0,0,0,circle,triangle,,,,,,,,,,,,,,,,,,,,,,,,,,,,,,,,,,,,,,,,,,,,,,,,,,,,,,
294727,2022-10-07_24h33.09.047,vts_reward_expectancy,2022.2.4,MacIntel,120.0048002,Chrome,1512,982,,,a,0.6824,10,621,2,2,11,35,7,1,0,0,1,0,0,1,0,0,hexagon,circle,,,,,,,,,,,,,,,,,,,,,,,,,,,,,,,,,,,,,,,,,,,,,,,,,,,,,,
294727,2022-10-07_24h33.09.047,vts_reward_expectancy,2022.2.4,MacIntel,120.0048002,Chrome,1512,982,,,,,,,,,,,,,,,,,,,,,,,Y,139,circle,0,0,d,1.495,0,0,0,0,0,1,,,,,,,,,,,,,,,,,,,,,,,,,,,,,,,,,,,,,,,,,
294727,2022-10-07_24h33.09.047,vts_reward_expectancy,2022.2.4,MacIntel,120.0048002,Chrome,1512,982,,,,,,,,,,,,,,,,,,,,,,,F,146,hexagon,1,1,d,1.5477,0,1,0,1,0,1,,,,,,,,,,,,,,,,,,,,,,,,,,,,,,,,,,,,,,,,,
294727,2022-10-07_24h33.09.047,vts_reward_expectancy,2022.2.4,MacIntel,120.0048002,Chrome,1512,982,,,,,,,,,,,,,,,,,,,,,,,U,167,star,0,0,,,0,2,0,2,0,1,,,,,,,,,,,,,,,,,,,,,,,,,,,,,,,,,,,,,,,,,
294727,2022-10-07_24h33.09.047,vts_reward_expectancy,2022.2.4,MacIntel,120.0048002,Chrome,1512,982,,,,,,,,,,,,,,,,,,,,,,,W,132,triangle,1,1,f,0.7028,0,3,0,3,0,1,,,,,,,,,,,,,,,,,,,,,,,,,,,,,,,,,,,,,,,,,
294727,2022-10-07_24h33.09.047,vts_reward_expectancy,2022.2.4,MacIntel,120.0048002,Chrome,1512,982,,,,,,,,,,,,,,,,,,,,,,,D,174,circle,1,0,d,0.7393,0,4,0,4,0,1,,,,,,,,,,,,,,,,,,,,,,,,,,,,,,,,,,,,,,,,,
294727,2022-10-07_24h33.09.047,vts_reward_expectancy,2022.2.4,MacIntel,120.0048002,Chrome,1512,982,,,,,,,,,,,,,,,,,,,,,,,S,181,hexagon,1,0,f,0.9023,0,5,0,5,0,1,,,,,,,,,,,,,,,,,,,,,,,,,,,,,,,,,,,,,,,,,
294727,2022-10-07_24h33.09.047,vts_reward_expectancy,2022.2.4,MacIntel,120.0048002,Chrome,1512,982,,,,,,,,,,,,,,,,,,,,,,,B,125,star,1,0,d,0.8317,0,6,0,6,0,1,,,,,,,,,,,,,,,,,,,,,,,,,,,,,,,,,,,,,,,,,
294727,2022-10-07_24h33.09.047,vts_reward_expectancy,2022.2.4,MacIntel,120.0048002,Chrome,1512,982,,,,,,,,,,,,,,,,,,,,,,,H,160,triangle,1,0,d,0.8934,0,7,0,7,0,1,,,,,,,,,,,,,,,,,,,,,,,,,,,,,,,,,,,,,,,,,
294727,2022-10-07_24h33.09.047,vts_reward_expectancy,2022.2.4,MacIntel,120.0048002,Chrome,1512,982,,,,,,,,,,,,,,,,,,,,,,,Y,139,triangle,1,0,f,0.5735,0,8,0,8,0,1,,,,,,,,,,,,,,,,,,,,,,,,,,,,,,,,,,,,,,,,,
294727,2022-10-07_24h33.09.047,vts_reward_expectancy,2022.2.4,MacIntel,120.0048002,Chrome,1512,982,,,,,,,,,,,,,,,,,,,,,,,F,146,circle,1,0,d,0.7268,0,9,0,9,0,1,,,,,,,,,,,,,,,,,,,,,,,,,,,,,,,,,,,,,,,,,
294727,2022-10-07_24h33.09.047,vts_reward_expectancy,2022.2.4,MacIntel,120.0048002,Chrome,1512,982,,,,,,,,,,,,,,,,,,,,,,,F,132,hexagon,1,0,d,0.7815,1,0,0,0,0,1,,,,,,,,,,,,,,,,,,,,,,,,,,,,,,,,,,,,,,,,,
294727,2022-10-07_24h33.09.047,vts_reward_expectancy,2022.2.4,MacIntel,120.0048002,Chrome,1512,982,,,,,,,,,,,,,,,,,,,,,,,Y,139,star,1,0,f,0.6606,1,1,0,1,0,1,,,,,,,,,,,,,,,,,,,,,,,,,,,,,,,,,,,,,,,,,
294727,2022-10-07_24h33.09.047,vts_reward_expectancy,2022.2.4,MacIntel,120.0048002,Chrome,1512,982,,,,,,,,,,,,,,,,,,,,,,,B,181,circle,1,0,d,0.6125,1,2,0,2,0,1,,,,,,,,,,,,,,,,,,,,,,,,,,,,,,,,,,,,,,,,,
294727,2022-10-07_24h33.09.047,vts_reward_expectancy,2022.2.4,MacIntel,120.0048002,Chrome,1512,982,,,,,,,,,,,,,,,,,,,,,,,U,146,triangle,1,0,f,1.1372,1,3,0,3,0,1,,,,,,,,,,,,,,,,,,,,,,,,,,,,,,,,,,,,,,,,,
294727,2022-10-07_24h33.09.047,vts_reward_expectancy,2022.2.4,MacIntel,120.0048002,Chrome,1512,982,,,,,,,,,,,,,,,,,,,,,,,D,167,hexagon,1,0,d,0.5554,1,4,0,4,0,1,,,,,,,,,,,,,,,,,,,,,,,,,,,,,,,,,,,,,,,,,
294727,2022-10-07_24h33.09.047,vts_reward_expectancy,2022.2.4,MacIntel,120.0048002,Chrome,1512,982,,,,,,,,,,,,,,,,,,,,,,,H,125,star,0,0,f,0.6269,1,5,0,5,0,1,,,,,,,,,,,,,,,,,,,,,,,,,,,,,,,,,,,,,,,,,
294727,2022-10-07_24h33.09.047,vts_reward_expectancy,2022.2.4,MacIntel,120.0048002,Chrome,1512,982,,,,,,,,,,,,,,,,,,,,,,,W,174,circle,1,1,f,0.8084,1,6,0,6,0,1,,,,,,,,,,,,,,,,,,,,,,,,,,,,,,,,,,,,,,,,,
294727,2022-10-07_24h33.09.047,vts_reward_expectancy,2022.2.4,MacIntel,120.0048002,Chrome,1512,982,,,,,,,,,,,,,,,,,,,,,,,S,160,triangle,1,0,f,1.1687,1,7,0,7,0,1,,,,,,,,,,,,,,,,,,,,,,,,,,,,,,,,,,,,,,,,,
294727,2022-10-07_24h33.09.047,vts_reward_expectancy,2022.2.4,MacIntel,120.0048002,Chrome,1512,982,,,,,,,,,,,,,,,,,,,,,,,F,132,circle,1,0,d,0.9059,1,8,0,8,0,1,,,,,,,,,,,,,,,,,,,,,,,,,,,,,,,,,,,,,,,,,
294727,2022-10-07_24h33.09.047,vts_reward_expectancy,2022.2.4,MacIntel,120.0048002,Chrome,1512,982,,,,,,,,,,,,,,,,,,,,,,,Y,139,triangle,1,0,f,0.6675,1,9,0,9,0,1,,,,,,,,,,,,,,,,,,,,,,,,,,,,,,,,,,,,,,,,,
294727,2022-10-07_24h33.09.047,vts_reward_expectancy,2022.2.4,MacIntel,120.0048002,Chrome,1512,982,,,,,,,,,,,,,,,,,,,,,,,F,125,star,1,0,,,2,,,,,,j,1.4654,0,0,0,0,1,,,,,,,,,,,,,,,,,,,,,,,,,,,,,,,,,,
294727,2022-10-07_24h33.09.047,vts_reward_expectancy,2022.2.4,MacIntel,120.0048002,Chrome,1512,982,,,,,,,,,,,,,,,,,,,,,,,D,167,circle,1,0,,,2,,,,,,k,0.749,1,0,1,0,1,,,,,,,,,,,,,,,,,,,,,,,,,,,,,,,,,,
294727,2022-10-07_24h33.09.047,vts_reward_expectancy,2022.2.4,MacIntel,120.0048002,Chrome,1512,982,,,,,,,,,,,,,,,,,,,,,,,U,132,triangle,1,0,,,2,,,,,,j,0.6005,2,0,2,0,1,,,,,,,,,,,,,,,,,,,,,,,,,,,,,,,,,,
294727,2022-10-07_24h33.09.047,vts_reward_expectancy,2022.2.4,MacIntel,120.0048002,Chrome,1512,982,,,,,,,,,,,,,,,,,,,,,,,H,181,hexagon,1,0,,,2,,,,,,k,1.1219,3,0,3,0,1,,,,,,,,,,,,,,,,,,,,,,,,,,,,,,,,,,
294727,2022-10-07_24h33.09.047,vts_reward_expectancy,2022.2.4,MacIntel,120.0048002,Chrome,1512,982,,,,,,,,,,,,,,,,,,,,,,,W,160,star,1,0,,,2,,,,,,k,0.9638,4,0,4,0,1,,,,,,,,,,,,,,,,,,,,,,,,,,,,,,,,,,
294727,2022-10-07_24h33.09.047,vts_reward_expectancy,2022.2.4,MacIntel,120.0048002,Chrome,1512,982,,,,,,,,,,,,,,,,,,,,,,,S,174,circle,1,0,,,2,,,,,,k,0.9347,5,0,5,0,1,,,,,,,,,,,,,,,,,,,,,,,,,,,,,,,,,,
294727,2022-10-07_24h33.09.047,vts_reward_expectancy,2022.2.4,MacIntel,120.0048002,Chrome,1512,982,,,,,,,,,,,,,,,,,,,,,,,B,146,triangle,1,0,,,2,,,,,,j,0.9761,6,0,6,0,1,,,,,,,,,,,,,,,,,,,,,,,,,,,,,,,,,,
294727,2022-10-07_24h33.09.047,vts_reward_expectancy,2022.2.4,MacIntel,120.0048002,Chrome,1512,982,,,,,,,,,,,,,,,,,,,,,,,Y,139,hexagon,1,0,,,2,,,,,,j,1.0512,7,0,7,0,1,,,,,,,,,,,,,,,,,,,,,,,,,,,,,,,,,,
294727,2022-10-07_24h33.09.047,vts_reward_expectancy,2022.2.4,MacIntel,120.0048002,Chrome,1512,982,,,,,,,,,,,,,,,,,,,,,,,F,125,star,1,0,,,2,,,,,,j,0.7331,8,0,8,0,1,,,,,,,,,,,,,,,,,,,,,,,,,,,,,,,,,,
294727,2022-10-07_24h33.09.047,vts_reward_expectancy,2022.2.4,MacIntel,120.0048002,Chrome,1512,982,,,,,,,,,,,,,,,,,,,,,,,D,167,triangle,1,0,,,2,,,,,,k,0.9099,9,0,9,0,1,,,,,,,,,,,,,,,,,,,,,,,,,,,,,,,,,,
294727,2022-10-07_24h33.09.047,vts_reward_expectancy,2022.2.4,MacIntel,120.0048002,Chrome,1512,982,,,,,0,621,,,,,,,,,,,,,,,,,U,139,triangle,-1,0,,,3,,,,,,,,,,,,,-1,no_choice,NA,,vtsPrac,0,0,0,0,1,,,,,,,,,,,,,,,,,,,,,,,,
294727,2022-10-07_24h33.09.047,vts_reward_expectancy,2022.2.4,MacIntel,120.0048002,Chrome,1512,982,,,,,0,621,,,,,,,,,,,,,,,,,F,125,hexagon,1,0,,,3,,,,,,,,,,,,,switch,letter,lettSwt,d,vtsPrac,1,0,1,0,1,1.0673,,,,,,,,,,,,,,,,,,,,,,,
294727,2022-10-07_24h33.09.047,vts_reward_expectancy,2022.2.4,MacIntel,120.0048002,Chrome,1512,982,,,,,0,621,,,,,,,,,,,,,,,,,Y,146,triangle,1,0,,,3,,,,,,,,,,,,,repeat,letter,lettRpt,f,vtsPrac,2,0,2,0,1,0.6847,,,,,,,,,,,,,,,,,,,,,,,
294727,2022-10-07_24h33.09.047,vts_reward_expectancy,2022.2.4,MacIntel,120.0048002,Chrome,1512,982,,,,,0,621,,,,,,,,,,,,,,,,,S,181,hexagon,1,0,,,3,,,,,,,,,,,,,repeat,letter,lettRpt,f,vtsPrac,3,0,3,0,1,0.7938,,,,,,,,,,,,,,,,,,,,,,,
294727,2022-10-07_24h33.09.047,vts_reward_expectancy,2022.2.4,MacIntel,120.0048002,Chrome,1512,982,,,,,0,621,,,,,,,,,,,,,,,,,U,139,hexagon,1,0,,,3,,,,,,,,,,,,,switch,number,numSwt,j,vtsPrac,4,0,4,0,1,0.7679,,,,,,,,,,,,,,,,,,,,,,,
294727,2022-10-07_24h33.09.047,vts_reward_expectancy,2022.2.4,MacIntel,120.0048002,Chrome,1512,982,,,,,0,621,,,,,,,,,,,,,,,,,F,125,star,1,0,,,3,,,,,,,,,,,,,repeat,number,numRpt,j,vtsPrac,5,0,5,0,1,0.5269,,,,,,,,,,,,,,,,,,,,,,,
294727,2022-10-07_24h33.09.047,vts_reward_expectancy,2022.2.4,MacIntel,120.0048002,Chrome,1512,982,,,,,0,621,,,,,,,,,,,,,,,,,Y,146,circle,1,0,,,3,,,,,,,,,,,,,switch,letter,lettSwt,f,vtsPrac,6,0,6,0,1,0.7099,,,,,,,,,,,,,,,,,,,,,,,
294727,2022-10-07_24h33.09.047,vts_reward_expectancy,2022.2.4,MacIntel,120.0048002,Chrome,1512,982,,,,,0,621,,,,,,,,,,,,,,,,,S,181,hexagon,1,0,,,3,,,,,,,,,,,,,switch,number,numSwt,k,vtsPrac,7,0,7,0,1,0.6594,,,,,,,,,,,,,,,,,,,,,,,
294727,2022-10-07_24h33.09.047,vts_reward_expectancy,2022.2.4,MacIntel,120.0048002,Chrome,1512,982,,,,,0,621,,,,,,,,,,,,,,,,,U,174,triangle,1,0,,,3,,,,,,,,,,,,,repeat,number,numRpt,k,vtsPrac,8,0,8,0,1,0.8834,,,,,,,,,,,,,,,,,,,,,,,
294727,2022-10-07_24h33.09.047,vts_reward_expectancy,2022.2.4,MacIntel,120.0048002,Chrome,1512,982,,,,,0,621,,,,,,,,,,,,,,,,,W,125,hexagon,1,0,,,3,,,,,,,,,,,,,switch,letter,lettSwt,f,vtsPrac,9,0,9,0,1,0.624,,,,,,,,,,,,,,,,,,,,,,,
294727,2022-10-07_24h33.09.047,vts_reward_expectancy,2022.2.4,MacIntel,120.0048002,Chrome,1512,982,,,,,0,621,,,,,,,,,,,,,,,,,F,139,triangle,1,0,,,3,,,,,,,,,,,,,repeat,letter,lettRpt,d,vtsPrac,10,0,10,0,1,0.7312,,,,,,,,,,,,,,,,,,,,,,,
294727,2022-10-07_24h33.09.047,vts_reward_expectancy,2022.2.4,MacIntel,120.0048002,Chrome,1512,982,,,,,0,621,,,,,,,,,,,,,,,,,Y,132,star,1,0,,,3,,,,,,,,,,,,,switch,number,numSwt,j,vtsPrac,11,0,11,0,1,0.89,,,,,,,,,,,,,,,,,,,,,,,
294727,2022-10-07_24h33.09.047,vts_reward_expectancy,2022.2.4,MacIntel,120.0048002,Chrome,1512,982,,,,,0,621,,,,,,,,,,,,,,,,,S,125,hexagon,1,0,,,3,,,,,,,,,,,,,switch,letter,lettSwt,f,vtsPrac,12,0,12,0,1,0.8028,,,,,,,,,,,,,,,,,,,,,,,
294727,2022-10-07_24h33.09.047,vts_reward_expectancy,2022.2.4,MacIntel,120.0048002,Chrome,1512,982,,,,,0,621,,,,,,,,,,,,,,,,,D,146,star,1,0,,,3,,,,,,,,,,,,,repeat,letter,lettRpt,d,vtsPrac,13,0,13,0,1,0.9743,,,,,,,,,,,,,,,,,,,,,,,
294727,2022-10-07_24h33.09.047,vts_reward_expectancy,2022.2.4,MacIntel,120.0048002,Chrome,1512,982,,,,,0,621,,,,,,,,,,,,,,,,,U,139,star,1,0,,,3,,,,,,,,,,,,,repeat,letter,lettRpt,f,vtsPrac,14,0,14,0,1,0.6703,,,,,,,,,,,,,,,,,,,,,,,
294727,2022-10-07_24h33.09.047,vts_reward_expectancy,2022.2.4,MacIntel,120.0048002,Chrome,1512,982,,,,,0,621,,,,,,,,,,,,,,,,,W,167,triangle,1,0,,,3,,,,,,,,,,,,,repeat,letter,lettRpt,f,vtsPrac,15,0,15,0,1,0.7182,,,,,,,,,,,,,,,,,,,,,,,
294727,2022-10-07_24h33.09.047,vts_reward_expectancy,2022.2.4,MacIntel,120.0048002,Chrome,1512,982,,,,,,,,,,,,,,,,,,,,,,,,,,,,,,,,,,,,,,,,,,,,,,,,,,,,,,,,,,,,,,,,,,,,,,,,,,,,
294727,2022-10-07_24h33.09.047,vts_reward_expectancy,2022.2.4,MacIntel,120.0048002,Chrome,1512,982,,,,,,,,,,,,,,,,,,,,,,,,,,,,,,,,,,,,,,,,,,,,,,,,,,,,,,,,,,,,,,,,,,,,,,,,,,,,
294727,2022-10-07_24h33.09.047,vts_reward_expectancy,2022.2.4,MacIntel,120.0048002,Chrome,1512,982,,,,,0,621,,,,,,,,,,,,,,,,,W,132,circle,1,0,,,,,,,,,,,,,,,,switch,number,numSwt,j,noRew,,,,,,0.6186,0,0,0,0,0,1,,,,,,,,,,,,,,,,,
294727,2022-10-07_24h33.09.047,vts_reward_expectancy,2022.2.4,MacIntel,120.0048002,Chrome,1512,982,,,,,0,621,,,,,,,,,,,,,,,,,F,160,hexagon,1,0,,,,,,,,,,,,,,,,switch,letter,lettSwt,d,noRew,,,,,,0.6972,0,1,0,1,0,1,,,,,,,,,,,,,,,,,
294727,2022-10-07_24h33.09.047,vts_reward_expectancy,2022.2.4,MacIntel,120.0048002,Chrome,1512,982,,,,,0,621,,,,,,,,,,,,,,,,,U,125,circle,1,0,,,,,,,,,,,,,,,,switch,number,numSwt,j,noRew,,,,,,0.6999,0,2,0,2,0,1,,,,,,,,,,,,,,,,,
294727,2022-10-07_24h33.09.047,vts_reward_expectancy,2022.2.4,MacIntel,120.0048002,Chrome,1512,982,,,,,0,621,,,,,,,,,,,,,,,,,Y,139,hexagon,1,0,,,,,,,,,,,,,,,,switch,letter,lettSwt,f,noRew,,,,,,0.6153,0,3,0,3,0,1,,,,,,,,,,,,,,,,,
294727,2022-10-07_24h33.09.047,vts_reward_expectancy,2022.2.4,MacIntel,120.0048002,Chrome,1512,982,,,,,0,621,,,,,,,,,,,,,,,,,W,132,star,1,0,,,,,,,,,,,,,,,,switch,number,numSwt,j,noRew,,,,,,0.602,0,4,0,4,0,1,,,,,,,,,,,,,,,,,
294727,2022-10-07_24h33.09.047,vts_reward_expectancy,2022.2.4,MacIntel,120.0048002,Chrome,1512,982,,,,,0,621,,,,,,,,,,,,,,,,,F,160,triangle,1,0,,,,,,,,,,,,,,,,switch,letter,lettSwt,d,noRew,,,,,,0.9324,0,5,0,5,0,1,,,,,,,,,,,,,,,,,
294727,2022-10-07_24h33.09.047,vts_reward_expectancy,2022.2.4,MacIntel,120.0048002,Chrome,1512,982,,,,,0,621,,,,,,,,,,,,,,,,,U,125,hexagon,1,0,,,,,,,,,,,,,,,,switch,number,numSwt,j,noRew,,,,,,0.5206,0,6,0,6,0,1,,,,,,,,,,,,,,,,,
294727,2022-10-07_24h33.09.047,vts_reward_expectancy,2022.2.4,MacIntel,120.0048002,Chrome,1512,982,,,,,0,621,,,,,,,,,,,,,,,,,Y,139,star,1,0,,,,,,,,,,,,,,,,repeat,number,numRpt,j,noRew,,,,,,0.4348,0,7,0,7,0,1,,,,,,,,,,,,,,,,,
294727,2022-10-07_24h33.09.047,vts_reward_expectancy,2022.2.4,MacIntel,120.0048002,Chrome,1512,982,,,,,0,621,,,,,,,,,,,,,,,,,D,132,circle,1,0,,,,,,,,,,,,,,,,switch,letter,lettSwt,d,noRew,,,,,,0.524,0,8,0,8,0,1,,,,,,,,,,,,,,,,,
294727,2022-10-07_24h33.09.047,vts_reward_expectancy,2022.2.4,MacIntel,120.0048002,Chrome,1512,982,,,,,0,621,,,,,,,,,,,,,,,,,F,167,triangle,1,0,,,,,,,,,,,,,,,,repeat,letter,lettRpt,d,noRew,,,,,,0.5639,0,9,0,9,0,1,,,,,,,,,,,,,,,,,
294727,2022-10-07_24h33.09.047,vts_reward_expectancy,2022.2.4,MacIntel,120.0048002,Chrome,1512,982,,,,,0,621,,,,,,,,,,,,,,,,,B,146,hexagon,1,0,,,,,,,,,,,,,,,,repeat,letter,lettRpt,d,noRew,,,,,,0.6253,0,10,0,10,0,1,,,,,,,,,,,,,,,,,
294727,2022-10-07_24h33.09.047,vts_reward_expectancy,2022.2.4,MacIntel,120.0048002,Chrome,1512,982,,,,,0,621,,,,,,,,,,,,,,,,,W,125,circle,1,0,,,,,,,,,,,,,,,,switch,number,numSwt,j,noRew,,,,,,0.6166,0,11,0,11,0,1,,,,,,,,,,,,,,,,,
294727,2022-10-07_24h33.09.047,vts_reward_expectancy,2022.2.4,MacIntel,120.0048002,Chrome,1512,982,,,,,0,621,,,,,,,,,,,,,,,,,Y,146,star,1,0,,,,,,,,,,,,,,,,repeat,number,numRpt,j,noRew,,,,,,0.6637,0,12,0,12,0,1,,,,,,,,,,,,,,,,,
294727,2022-10-07_24h33.09.047,vts_reward_expectancy,2022.2.4,MacIntel,120.0048002,Chrome,1512,982,,,,,0,621,,,,,,,,,,,,,,,,,D,139,triangle,1,0,,,,,,,,,,,,,,,,switch,letter,lettSwt,d,noRew,,,,,,0.6383,0,13,0,13,0,1,,,,,,,,,,,,,,,,,
294727,2022-10-07_24h33.09.047,vts_reward_expectancy,2022.2.4,MacIntel,120.0048002,Chrome,1512,982,,,,,0,621,,,,,,,,,,,,,,,,,B,174,circle,1,0,,,,,,,,,,,,,,,,repeat,letter,lettRpt,d,noRew,,,,,,0.847,0,14,0,14,0,1,,,,,,,,,,,,,,,,,
294727,2022-10-07_24h33.09.047,vts_reward_expectancy,2022.2.4,MacIntel,120.0048002,Chrome,1512,982,,,,,0,621,,,,,,,,,,,,,,,,,S,181,hexagon,0,0,,,,,,,,,,,,,,,,repeat,letter,NA,d,noRew,,,,,,0.606,0,15,0,15,0,1,,,,,,,,,,,,,,,,,
294727,2022-10-07_24h33.09.047,vts_reward_expectancy,2022.2.4,MacIntel,120.0048002,Chrome,1512,982,,,,,0,621,,,,,,,,,,,,,,,,,U,132,triangle,1,1,,,,,,,,,,,,,,,,switch,number,numSwt,j,noRew,,,,,,0.6432,0,16,0,16,0,1,,,,,,,,,,,,,,,,,
294727,2022-10-07_24h33.09.047,vts_reward_expectancy,2022.2.4,MacIntel,120.0048002,Chrome,1512,982,,,,,0,621,,,,,,,,,,,,,,,,,H,139,circle,1,0,,,,,,,,,,,,,,,,repeat,number,numRpt,j,noRew,,,,,,0.5759,0,17,0,17,0,1,,,,,,,,,,,,,,,,,
294727,2022-10-07_24h33.09.047,vts_reward_expectancy,2022.2.4,MacIntel,120.0048002,Chrome,1512,982,,,,,0,621,,,,,,,,,,,,,,,,,S,181,star,1,0,,,,,,,,,,,,,,,,repeat,number,numRpt,k,noRew,,,,,,0.9256,0,18,0,18,0,1,,,,,,,,,,,,,,,,,
294727,2022-10-07_24h33.09.047,vts_reward_expectancy,2022.2.4,MacIntel,120.0048002,Chrome,1512,982,,,,,0,621,,,,,,,,,,,,,,,,,D,174,hexagon,1,0,,,,,,,,,,,,,,,,repeat,number,numRpt,k,noRew,,,,,,0.9772,0,19,0,19,0,1,,,,,,,,,,,,,,,,,
294727,2022-10-07_24h33.09.047,vts_reward_expectancy,2022.2.4,MacIntel,120.0048002,Chrome,1512,982,,,,,0,621,,,,,,,,,,,,,,,,,D,160,star,1,0,,,,,,,,,,,,,,,,repeat,number,numRpt,k,noRew,,,,,,0.9593,0,20,0,20,0,1,,,,,,,,,,,,,,,,,
294727,2022-10-07_24h33.09.047,vts_reward_expectancy,2022.2.4,MacIntel,120.0048002,Chrome,1512,982,,,,,0,621,,,,,,,,,,,,,,,,,B,167,triangle,1,0,,,,,,,,,,,,,,,,switch,letter,lettSwt,d,noRew,,,,,,0.6135,0,21,0,21,0,1,,,,,,,,,,,,,,,,,
294727,2022-10-07_24h33.09.047,vts_reward_expectancy,2022.2.4,MacIntel,120.0048002,Chrome,1512,982,,,,,0,621,,,,,,,,,,,,,,,,,S,132,hexagon,1,0,,,,,,,,,,,,,,,,switch,number,numSwt,j,noRew,,,,,,0.9633,0,22,0,22,0,1,,,,,,,,,,,,,,,,,
294727,2022-10-07_24h33.09.047,vts_reward_expectancy,2022.2.4,MacIntel,120.0048002,Chrome,1512,982,,,,,0,621,,,,,,,,,,,,,,,,,U,181,star,1,0,,,,,,,,,,,,,,,,repeat,number,numRpt,k,noRew,,,,,,0.6933,0,23,0,23,0,1,,,,,,,,,,,,,,,,,
294727,2022-10-07_24h33.09.047,vts_reward_expectancy,2022.2.4,MacIntel,120.0048002,Chrome,1512,982,,,,,0,621,,,,,,,,,,,,,,,,,Y,181,circle,1,0,,,,,,,,,,,,,,,,repeat,number,numRpt,k,noRew,,,,,,0.6274,0,24,0,24,0,1,,,,,,,,,,,,,,,,,
294727,2022-10-07_24h33.09.047,vts_reward_expectancy,2022.2.4,MacIntel,120.0048002,Chrome,1512,982,,,,,0,621,,,,,,,,,,,,,,,,,S,174,star,1,0,,,,,,,,,,,,,,,,repeat,number,numRpt,k,noRew,,,,,,1.0514,0,25,0,25,0,1,,,,,,,,,,,,,,,,,
294727,2022-10-07_24h33.09.047,vts_reward_expectancy,2022.2.4,MacIntel,120.0048002,Chrome,1512,982,,,,,0,621,,,,,,,,,,,,,,,,,W,160,circle,1,0,,,,,,,,,,,,,,,,repeat,number,numRpt,k,noRew,,,,,,0.8411,0,26,0,26,0,1,,,,,,,,,,,,,,,,,
294727,2022-10-07_24h33.09.047,vts_reward_expectancy,2022.2.4,MacIntel,120.0048002,Chrome,1512,982,,,,,0,621,,,,,,,,,,,,,,,,,D,146,star,1,0,,,,,,,,,,,,,,,,switch,letter,lettSwt,d,noRew,,,,,,0.8585,0,27,0,27,0,1,,,,,,,,,,,,,,,,,
294727,2022-10-07_24h33.09.047,vts_reward_expectancy,2022.2.4,MacIntel,120.0048002,Chrome,1512,982,,,,,0,621,,,,,,,,,,,,,,,,,Y,167,hexagon,1,0,,,,,,,,,,,,,,,,repeat,letter,lettRpt,f,noRew,,,,,,0.6666,0,28,0,28,0,1,,,,,,,,,,,,,,,,,
294727,2022-10-07_24h33.09.047,vts_reward_expectancy,2022.2.4,MacIntel,120.0048002,Chrome,1512,982,,,,,0,621,,,,,,,,,,,,,,,,,U,181,triangle,1,0,,,,,,,,,,,,,,,,switch,number,numSwt,k,noRew,,,,,,0.8739,0,29,0,29,0,1,,,,,,,,,,,,,,,,,
294727,2022-10-07_24h33.09.047,vts_reward_expectancy,2022.2.4,MacIntel,120.0048002,Chrome,1512,982,,,,,0,621,,,,,,,,,,,,,,,,,D,146,hexagon,1,0,,,,,,,,,,,,,,,,repeat,number,numRpt,j,noRew,,,,,,1.0643,0,30,0,30,0,1,,,,,,,,,,,,,,,,,
294727,2022-10-07_24h33.09.047,vts_reward_expectancy,2022.2.4,MacIntel,120.0048002,Chrome,1512,982,,,,,0,621,,,,,,,,,,,,,,,,,S,160,star,1,0,,,,,,,,,,,,,,,,repeat,number,numRpt,k,noRew,,,,,,1.0101,0,31,0,31,0,1,,,,,,,,,,,,,,,,,
294727,2022-10-07_24h33.09.047,vts_reward_expectancy,2022.2.4,MacIntel,120.0048002,Chrome,1512,982,,,,,0,621,,,,,,,,,,,,,,,,,H,167,circle,1,0,,,,,,,,,,,,,,,,repeat,number,numRpt,k,noRew,,,,,,1.0096,0,32,0,32,0,1,,,,,,,,,,,,,,,,,
294727,2022-10-07_24h33.09.047,vts_reward_expectancy,2022.2.4,MacIntel,120.0048002,Chrome,1512,982,,,,,0,621,,,,,,,,,,,,,,,,,F,181,hexagon,1,0,,,,,,,,,,,,,,,,switch,letter,lettSwt,d,noRew,,,,,,0.8597,0,33,0,33,0,1,,,,,,,,,,,,,,,,,
294727,2022-10-07_24h33.09.047,vts_reward_expectancy,2022.2.4,MacIntel,120.0048002,Chrome,1512,982,,,,,0,621,,,,,,,,,,,,,,,,,D,174,hexagon,1,0,,,,,,,,,,,,,,,,repeat,letter,lettRpt,d,noRew,,,,,,0.6992,0,34,0,34,0,1,,,,,,,,,,,,,,,,,
294727,2022-10-07_24h33.09.047,vts_reward_expectancy,2022.2.4,MacIntel,120.0048002,Chrome,1512,982,,,,,0,621,,,,,,,,,,,,,,,,,B,132,star,1,0,,,,,,,,,,,,,,,,repeat,letter,lettRpt,d,noRew,,,,,,0.7605,0,35,0,35,0,1,,,,,,,,,,,,,,,,,
294727,2022-10-07_24h33.09.047,vts_reward_expectancy,2022.2.4,MacIntel,120.0048002,Chrome,1512,982,,,,,0,621,,,,,,,,,,,,,,,,,W,132,hexagon,1,0,,,,,,,,,,,,,,,,repeat,letter,lettRpt,f,noRew,,,,,,0.6333,0,36,0,36,0,1,,,,,,,,,,,,,,,,,
294727,2022-10-07_24h33.09.047,vts_reward_expectancy,2022.2.4,MacIntel,120.0048002,Chrome,1512,982,,,,,0,621,,,,,,,,,,,,,,,,,H,160,circle,1,0,,,,,,,,,,,,,,,,switch,number,numSwt,k,noRew,,,,,,0.7004,0,37,0,37,0,1,,,,,,,,,,,,,,,,,
294727,2022-10-07_24h33.09.047,vts_reward_expectancy,2022.2.4,MacIntel,120.0048002,Chrome,1512,982,,,,,0,621,,,,,,,,,,,,,,,,,D,181,hexagon,1,0,,,,,,,,,,,,,,,,repeat,number,numRpt,k,noRew,,,,,,0.6968,0,38,0,38,0,1,,,,,,,,,,,,,,,,,
294727,2022-10-07_24h33.09.047,vts_reward_expectancy,2022.2.4,MacIntel,120.0048002,Chrome,1512,982,,,,,0,621,,,,,,,,,,,,,,,,,F,125,circle,1,0,,,,,,,,,,,,,,,,repeat,number,numRpt,j,noRew,,,,,,0.5761,0,39,0,39,0,1,,,,,,,,,,,,,,,,,
294727,2022-10-07_24h33.09.047,vts_reward_expectancy,2022.2.4,MacIntel,120.0048002,Chrome,1512,982,,,,,0,621,,,,,,,,,,,,,,,,,U,181,circle,0,0,,,,,,,,,,,,,,,,switch,letter,NA,d,noRew,,,,,,0.911,0,40,0,40,0,1,,,,,,,,,,,,,,,,,
294727,2022-10-07_24h33.09.047,vts_reward_expectancy,2022.2.4,MacIntel,120.0048002,Chrome,1512,982,,,,,0,621,,,,,,,,,,,,,,,,,Y,139,hexagon,1,1,,,,,,,,,,,,,,,,switch,number,numSwt,j,noRew,,,,,,0.6009,0,41,0,41,0,1,,,,,,,,,,,,,,,,,
294727,2022-10-07_24h33.09.047,vts_reward_expectancy,2022.2.4,MacIntel,120.0048002,Chrome,1512,982,,,,,0,621,,,,,,,,,,,,,,,,,S,167,hexagon,0,0,,,,,,,,,,,,,,,,repeat,number,NA,j,noRew,,,,,,0.9552,0,42,0,42,0,1,,,,,,,,,,,,,,,,,
294727,2022-10-07_24h33.09.047,vts_reward_expectancy,2022.2.4,MacIntel,120.0048002,Chrome,1512,982,,,,,0,621,,,,,,,,,,,,,,,,,H,160,star,0,1,,,,,,,,,,,,,,,,repeat,number,NA,j,noRew,,,,,,0.8603,0,43,0,43,0,1,,,,,,,,,,,,,,,,,
294727,2022-10-07_24h33.09.047,vts_reward_expectancy,2022.2.4,MacIntel,120.0048002,Chrome,1512,982,,,,,0,621,,,,,,,,,,,,,,,,,D,160,star,1,1,,,,,,,,,,,,,,,,repeat,number,numRpt,k,noRew,,,,,,0.7944,0,44,0,44,0,1,,,,,,,,,,,,,,,,,
294727,2022-10-07_24h33.09.047,vts_reward_expectancy,2022.2.4,MacIntel,120.0048002,Chrome,1512,982,,,,,0,621,,,,,,,,,,,,,,,,,Y,132,triangle,1,0,,,,,,,,,,,,,,,,repeat,number,numRpt,j,noRew,,,,,,0.8823,0,45,0,45,0,1,,,,,,,,,,,,,,,,,
294727,2022-10-07_24h33.09.047,vts_reward_expectancy,2022.2.4,MacIntel,120.0048002,Chrome,1512,982,,,,,0,621,,,,,,,,,,,,,,,,,S,181,star,1,0,,,,,,,,,,,,,,,,repeat,number,numRpt,k,noRew,,,,,,1.3921,0,46,0,46,0,1,,,,,,,,,,,,,,,,,
294727,2022-10-07_24h33.09.047,vts_reward_expectancy,2022.2.4,MacIntel,120.0048002,Chrome,1512,982,,,,,0,621,,,,,,,,,,,,,,,,,B,146,triangle,1,0,,,,,,,,,,,,,,,,switch,letter,lettSwt,d,noRew,,,,,,0.8218,0,47,0,47,0,1,,,,,,,,,,,,,,,,,
294727,2022-10-07_24h33.09.047,vts_reward_expectancy,2022.2.4,MacIntel,120.0048002,Chrome,1512,982,,,,,0,621,,,,,,,,,,,,,,,,,W,160,triangle,1,0,,,,,,,,,,,,,,,,repeat,letter,lettRpt,f,noRew,,,,,,0.7671,0,48,0,48,0,1,,,,,,,,,,,,,,,,,
294727,2022-10-07_24h33.09.047,vts_reward_expectancy,2022.2.4,MacIntel,120.0048002,Chrome,1512,982,,,,,0,621,,,,,,,,,,,,,,,,,U,181,hexagon,0,0,,,,,,,,,,,,,,,,switch,number,NA,j,noRew,,,,,,1.2721,0,49,0,49,0,1,,,,,,,,,,,,,,,,,
294727,2022-10-07_24h33.09.047,vts_reward_expectancy,2022.2.4,MacIntel,120.0048002,Chrome,1512,982,,,,,0,621,,,,,,,,,,,,,,,,,B,125,triangle,1,1,,,,,,,,,,,,,,,,repeat,number,numRpt,j,noRew,,,,,,0.9729,0,50,0,50,0,1,,,,,,,,,,,,,,,,,
294727,2022-10-07_24h33.09.047,vts_reward_expectancy,2022.2.4,MacIntel,120.0048002,Chrome,1512,982,,,,,0,621,,,,,,,,,,,,,,,,,F,132,hexagon,1,0,,,,,,,,,,,,,,,,repeat,number,numRpt,j,noRew,,,,,,1.1327,0,51,0,51,0,1,,,,,,,,,,,,,,,,,
294727,2022-10-07_24h33.09.047,vts_reward_expectancy,2022.2.4,MacIntel,120.0048002,Chrome,1512,982,,,,,0,621,,,,,,,,,,,,,,,,,B,167,circle,1,0,,,,,,,,,,,,,,,,switch,letter,lettSwt,d,noRew,,,,,,0.6771,0,52,0,52,0,1,,,,,,,,,,,,,,,,,
294727,2022-10-07_24h33.09.047,vts_reward_expectancy,2022.2.4,MacIntel,120.0048002,Chrome,1512,982,,,,,0,621,,,,,,,,,,,,,,,,,D,139,hexagon,1,0,,,,,,,,,,,,,,,,repeat,letter,lettRpt,d,noRew,,,,,,0.6325,0,53,0,53,0,1,,,,,,,,,,,,,,,,,
294727,2022-10-07_24h33.09.047,vts_reward_expectancy,2022.2.4,MacIntel,120.0048002,Chrome,1512,982,,,,,0,621,,,,,,,,,,,,,,,,,H,181,triangle,1,0,,,,,,,,,,,,,,,,repeat,letter,lettRpt,d,noRew,,,,,,1.5359,0,54,0,54,0,1,,,,,,,,,,,,,,,,,
294727,2022-10-07_24h33.09.047,vts_reward_expectancy,2022.2.4,MacIntel,120.0048002,Chrome,1512,982,,,,,0,621,,,,,,,,,,,,,,,,,F,132,hexagon,1,0,,,,,,,,,,,,,,,,repeat,letter,lettRpt,d,noRew,,,,,,1.1689,0,55,0,55,0,1,,,,,,,,,,,,,,,,,
294727,2022-10-07_24h33.09.047,vts_reward_expectancy,2022.2.4,MacIntel,120.0048002,Chrome,1512,982,,,,,0,621,,,,,,,,,,,,,,,,,F,167,hexagon,1,0,,,,,,,,,,,,,,,,repeat,letter,lettRpt,d,noRew,,,,,,1.1434,0,56,0,56,0,1,,,,,,,,,,,,,,,,,
294727,2022-10-07_24h33.09.047,vts_reward_expectancy,2022.2.4,MacIntel,120.0048002,Chrome,1512,982,,,,,0,621,,,,,,,,,,,,,,,,,B,125,star,1,0,,,,,,,,,,,,,,,,switch,number,numSwt,j,noRew,,,,,,1.2635,0,57,0,57,0,1,,,,,,,,,,,,,,,,,
294727,2022-10-07_24h33.09.047,vts_reward_expectancy,2022.2.4,MacIntel,120.0048002,Chrome,1512,982,,,,,0,621,,,,,,,,,,,,,,,,,U,160,hexagon,0,0,,,,,,,,,,,,,,,,repeat,number,NA,j,noRew,,,,,,1.0014,0,58,0,58,0,1,,,,,,,,,,,,,,,,,
294727,2022-10-07_24h33.09.047,vts_reward_expectancy,2022.2.4,MacIntel,120.0048002,Chrome,1512,982,,,,,0,621,,,,,,,,,,,,,,,,,S,146,circle,1,1,,,,,,,,,,,,,,,,repeat,number,numRpt,j,noRew,,,,,,1.5812,0,59,0,59,0,1,,,,,,,,,,,,,,,,,
294727,2022-10-07_24h33.09.047,vts_reward_expectancy,2022.2.4,MacIntel,120.0048002,Chrome,1512,982,,,,,0,621,,,,,,,,,,,,,,,,,Y,125,star,1,0,,,,,,,,,,,,,,,,repeat,number,numRpt,j,noRew,,,,,,1.4457,0,60,0,60,0,1,,,,,,,,,,,,,,,,,
294727,2022-10-07_24h33.09.047,vts_reward_expectancy,2022.2.4,MacIntel,120.0048002,Chrome,1512,982,,,,,0,621,,,,,,,,,,,,,,,,,D,132,circle,1,0,,,,,,,,,,,,,,,,switch,letter,lettSwt,d,noRew,,,,,,1.1973,0,61,0,61,0,1,,,,,,,,,,,,,,,,,
294727,2022-10-07_24h33.09.047,vts_reward_expectancy,2022.2.4,MacIntel,120.0048002,Chrome,1512,982,,,,,0,621,,,,,,,,,,,,,,,,,H,160,triangle,1,0,,,,,,,,,,,,,,,,repeat,letter,lettRpt,d,noRew,,,,,,0.8541,0,62,0,62,0,1,,,,,,,,,,,,,,,,,
294727,2022-10-07_24h33.09.047,vts_reward_expectancy,2022.2.4,MacIntel,120.0048002,Chrome,1512,982,,,,,0,621,,,,,,,,,,,,,,,,,W,181,star,1,0,,,,,,,,,,,,,,,,repeat,letter,lettRpt,f,noRew,,,,,,0.8421,0,63,0,63,0,1,,,,,,,,,,,,,,,,,
294727,2022-10-07_24h33.09.047,vts_reward_expectancy,2022.2.4,MacIntel,120.0048002,Chrome,1512,982,,,,,,,,,,,,,,,,,,,,,,,,,,,,,,,,,,,,,,,,,,,,,,,,,,,,,,,,,,,,,,,,,,,,,,,,,,,,
294727,2022-10-07_24h33.09.047,vts_reward_expectancy,2022.2.4,MacIntel,120.0048002,Chrome,1512,982,,,,,0,621,,,,,,,,,,,,,,,,,W,174,hexagon,1,0,,,,,,,,,,,,,,,,repeat,letter,lettRpt,f,Hi,,,,,,0.8582,0,,,,,,space,5.7734,high,0,0,0,0,1,,,,,,,,,
294727,2022-10-07_24h33.09.047,vts_reward_expectancy,2022.2.4,MacIntel,120.0048002,Chrome,1512,982,,,,,1,622,,,,,,,,,,,,,,,,,B,125,star,1,0,,,,,,,,,,,,,,,,repeat,letter,lettRpt,d,Lo,,,,,,0.6646,0,,,,,,,,high,1,0,1,0,1,,,,,,,,,
294727,2022-10-07_24h33.09.047,vts_reward_expectancy,2022.2.4,MacIntel,120.0048002,Chrome,1512,982,,,,,0,622,,,,,,,,,,,,,,,,,H,160,hexagon,1,0,,,,,,,,,,,,,,,,repeat,letter,lettRpt,d,Hi,,,,,,0.7178,0,,,,,,,,high,2,0,2,0,1,,,,,,,,,
294727,2022-10-07_24h33.09.047,vts_reward_expectancy,2022.2.4,MacIntel,120.0048002,Chrome,1512,982,,,,,10,632,,,,,,,,,,,,,,,,,U,181,star,1,0,,,,,,,,,,,,,,,,switch,number,numSwt,k,Lo,,,,,,0.3062,0,,,,,,,,high,3,0,3,0,1,,,,,,,,,
294727,2022-10-07_24h33.09.047,vts_reward_expectancy,2022.2.4,MacIntel,120.0048002,Chrome,1512,982,,,,,0,632,,,,,,,,,,,,,,,,,Y,132,star,0,0,,,,,,,,,,,,,,,,repeat,number,NA,k,Lo,,,,,,0.3684,0,,,,,,,,high,4,0,4,0,1,,,,,,,,,
294727,2022-10-07_24h33.09.047,vts_reward_expectancy,2022.2.4,MacIntel,120.0048002,Chrome,1512,982,,,,,1,633,,,,,,,,,,,,,,,,,F,139,hexagon,1,1,,,,,,,,,,,,,,,,repeat,number,numRpt,j,Hi,,,,,,0.7643,0,,,,,,,,high,5,0,5,0,1,,,,,,,,,
294727,2022-10-07_24h33.09.047,vts_reward_expectancy,2022.2.4,MacIntel,120.0048002,Chrome,1512,982,,,,,0,633,,,,,,,,,,,,,,,,,S,167,hexagon,0,0,,,,,,,,,,,,,,,,switch,letter,NA,d,Hi,,,,,,0.3889,0,,,,,,,,high,6,0,6,0,1,,,,,,,,,
294727,2022-10-07_24h33.09.047,vts_reward_expectancy,2022.2.4,MacIntel,120.0048002,Chrome,1512,982,,,,,1,634,,,,,,,,,,,,,,,,,D,146,star,1,1,,,,,,,,,,,,,,,,switch,number,numSwt,j,Lo,,,,,,0.5082,0,,,,,,,,high,7,0,7,0,1,,,,,,,,,
294727,2022-10-07_24h33.09.047,vts_reward_expectancy,2022.2.4,MacIntel,120.0048002,Chrome,1512,982,,,,,1,635,,,,,,,,,,,,,,,,,W,174,star,1,0,,,,,,,,,,,,,,,,switch,letter,lettSwt,f,Lo,,,,,,0.5851,0,,,,,,,,high,8,0,8,0,1,,,,,,,,,
294727,2022-10-07_24h33.09.047,vts_reward_expectancy,2022.2.4,MacIntel,120.0048002,Chrome,1512,982,,,,,10,645,,,,,,,,,,,,,,,,,B,125,hexagon,1,0,,,,,,,,,,,,,,,,switch,number,numSwt,j,Hi,,,,,,0.4215,0,,,,,,,,high,9,0,9,0,1,,,,,,,,,
294727,2022-10-07_24h33.09.047,vts_reward_expectancy,2022.2.4,MacIntel,120.0048002,Chrome,1512,982,,,,,0,645,,,,,,,,,,,,,,,,,H,160,star,0,0,,,,,,,,,,,,,,,,repeat,number,NA,j,Hi,,,,,,0.556,0,,,,,,,,high,10,0,10,0,1,,,,,,,,,
294727,2022-10-07_24h33.09.047,vts_reward_expectancy,2022.2.4,MacIntel,120.0048002,Chrome,1512,982,,,,,0,645,,,,,,,,,,,,,,,,,U,181,hexagon,1,1,,,,,,,,,,,,,,,,switch,letter,lettSwt,f,Hi,,,,,,0.7359,0,,,,,,,,high,11,0,11,0,1,,,,,,,,,
294727,2022-10-07_24h33.09.047,vts_reward_expectancy,2022.2.4,MacIntel,120.0048002,Chrome,1512,982,,,,,1,646,,,,,,,,,,,,,,,,,Y,132,star,1,0,,,,,,,,,,,,,,,,switch,number,numSwt,j,Lo,,,,,,0.391,0,,,,,,,,high,12,0,12,0,1,,,,,,,,,
294727,2022-10-07_24h33.09.047,vts_reward_expectancy,2022.2.4,MacIntel,120.0048002,Chrome,1512,982,,,,,0,646,,,,,,,,,,,,,,,,,F,139,hexagon,1,0,,,,,,,,,,,,,,,,switch,letter,lettSwt,d,Hi,,,,,,0.6972,0,,,,,,,,high,13,0,13,0,1,,,,,,,,,
294727,2022-10-07_24h33.09.047,vts_reward_expectancy,2022.2.4,MacIntel,120.0048002,Chrome,1512,982,,,,,1,647,,,,,,,,,,,,,,,,,S,167,star,1,0,,,,,,,,,,,,,,,,repeat,letter,lettRpt,f,Lo,,,,,,0.7185,0,,,,,,,,high,14,0,14,0,1,,,,,,,,,
294727,2022-10-07_24h33.09.047,vts_reward_expectancy,2022.2.4,MacIntel,120.0048002,Chrome,1512,982,,,,,10,657,,,,,,,,,,,,,,,,,D,146,hexagon,1,0,,,,,,,,,,,,,,,,switch,number,numSwt,j,Hi,,,,,,0.5851,0,,,,,,,,high,15,0,15,0,1,,,,,,,,,
294727,2022-10-07_24h33.09.047,vts_reward_expectancy,2022.2.4,MacIntel,120.0048002,Chrome,1512,982,,,,,0,657,,,,,,,,,,,,,,,,,D,167,hexagon,0,0,,,,,,,,,,,,,,,,repeat,number,NA,j,Hi,,,,,,0.6938,0,,,,,,,,high,16,0,16,0,1,,,,,,,,,
294727,2022-10-07_24h33.09.047,vts_reward_expectancy,2022.2.4,MacIntel,120.0048002,Chrome,1512,982,,,,,1,658,,,,,,,,,,,,,,,,,U,174,star,1,1,,,,,,,,,,,,,,,,switch,letter,lettSwt,f,Lo,,,,,,0.7005,0,,,,,,,,high,17,0,17,0,1,,,,,,,,,
294727,2022-10-07_24h33.09.047,vts_reward_expectancy,2022.2.4,MacIntel,120.0048002,Chrome,1512,982,,,,,0,658,,,,,,,,,,,,,,,,,B,132,hexagon,1,0,,,,,,,,,,,,,,,,repeat,letter,lettRpt,d,Hi,,,,,,0.8139,0,,,,,,,,high,18,0,18,0,1,,,,,,,,,
294727,2022-10-07_24h33.09.047,vts_reward_expectancy,2022.2.4,MacIntel,120.0048002,Chrome,1512,982,,,,,1,659,,,,,,,,,,,,,,,,,W,125,star,1,0,,,,,,,,,,,,,,,,repeat,letter,lettRpt,f,Lo,,,,,,0.5767,0,,,,,,,,high,19,0,19,0,1,,,,,,,,,
294727,2022-10-07_24h33.09.047,vts_reward_expectancy,2022.2.4,MacIntel,120.0048002,Chrome,1512,982,,,,,0,659,,,,,,,,,,,,,,,,,F,146,hexagon,1,0,,,,,,,,,,,,,,,,repeat,letter,lettRpt,d,Hi,,,,,,0.9048,0,,,,,,,,high,20,0,20,0,1,,,,,,,,,
294727,2022-10-07_24h33.09.047,vts_reward_expectancy,2022.2.4,MacIntel,120.0048002,Chrome,1512,982,,,,,0,659,,,,,,,,,,,,,,,,,S,160,star,0,0,,,,,,,,,,,,,,,,switch,number,NA,j,Hi,,,,,,0.8905,0,,,,,,,,high,21,0,21,0,1,,,,,,,,,
294727,2022-10-07_24h33.09.047,vts_reward_expectancy,2022.2.4,MacIntel,120.0048002,Chrome,1512,982,,,,,1,660,,,,,,,,,,,,,,,,,Y,139,star,1,1,,,,,,,,,,,,,,,,repeat,number,numRpt,j,Lo,,,,,,0.9418,0,,,,,,,,high,22,0,22,0,1,,,,,,,,,
294727,2022-10-07_24h33.09.047,vts_reward_expectancy,2022.2.4,MacIntel,120.0048002,Chrome,1512,982,,,,,0,660,,,,,,,,,,,,,,,,,H,181,hexagon,1,0,,,,,,,,,,,,,,,,switch,letter,lettSwt,d,Hi,,,,,,0.6585,0,,,,,,,,high,23,0,23,0,1,,,,,,,,,
294727,2022-10-07_24h33.09.047,vts_reward_expectancy,2022.2.4,MacIntel,120.0048002,Chrome,1512,982,,,,,1,661,,,,,,,,,,,,,,,,,H,174,star,1,0,,,,,,,,,,,,,,,,switch,number,numSwt,k,Lo,,,,,,1.046,0,,,,,,,,high,24,0,24,0,1,,,,,,,,,
294727,2022-10-07_24h33.09.047,vts_reward_expectancy,2022.2.4,MacIntel,120.0048002,Chrome,1512,982,,,,,0,661,,,,,,,,,,,,,,,,,D,132,hexagon,1,0,,,,,,,,,,,,,,,,repeat,number,numRpt,j,Hi,,,,,,1.1598,0,,,,,,,,high,25,0,25,0,1,,,,,,,,,
294727,2022-10-07_24h33.09.047,vts_reward_expectancy,2022.2.4,MacIntel,120.0048002,Chrome,1512,982,,,,,10,671,,,,,,,,,,,,,,,,,W,125,star,1,0,,,,,,,,,,,,,,,,switch,letter,lettSwt,f,Lo,,,,,,0.8413,0,,,,,,,,high,26,0,26,0,1,,,,,,,,,
294727,2022-10-07_24h33.09.047,vts_reward_expectancy,2022.2.4,MacIntel,120.0048002,Chrome,1512,982,,,,,0,671,,,,,,,,,,,,,,,,,U,146,hexagon,1,0,,,,,,,,,,,,,,,,repeat,letter,lettRpt,f,Hi,,,,,,0.751,0,,,,,,,,high,27,0,27,0,1,,,,,,,,,
294727,2022-10-07_24h33.09.047,vts_reward_expectancy,2022.2.4,MacIntel,120.0048002,Chrome,1512,982,,,,,0,671,,,,,,,,,,,,,,,,,S,139,hexagon,0,0,,,,,,,,,,,,,,,,switch,number,NA,k,Hi,,,,,,0.7505,0,,,,,,,,high,28,0,28,0,1,,,,,,,,,
294727,2022-10-07_24h33.09.047,vts_reward_expectancy,2022.2.4,MacIntel,120.0048002,Chrome,1512,982,,,,,1,672,,,,,,,,,,,,,,,,,Y,167,star,1,1,,,,,,,,,,,,,,,,repeat,number,numRpt,k,Lo,,,,,,0.7216,0,,,,,,,,high,29,0,29,0,1,,,,,,,,,
294727,2022-10-07_24h33.09.047,vts_reward_expectancy,2022.2.4,MacIntel,120.0048002,Chrome,1512,982,,,,,0,672,,,,,,,,,,,,,,,,,F,160,hexagon,1,0,,,,,,,,,,,,,,,,switch,letter,lettSwt,d,Hi,,,,,,0.8761,0,,,,,,,,high,30,0,30,0,1,,,,,,,,,
294727,2022-10-07_24h33.09.047,vts_reward_expectancy,2022.2.4,MacIntel,120.0048002,Chrome,1512,982,,,,,1,673,,,,,,,,,,,,,,,,,B,181,star,1,0,,,,,,,,,,,,,,,,repeat,letter,lettRpt,d,Lo,,,,,,0.8016,0,,,,,,,,high,31,0,31,0,1,,,,,,,,,
294727,2022-10-07_24h33.09.047,vts_reward_expectancy,2022.2.4,MacIntel,120.0048002,Chrome,1512,982,,,,,0,673,,,,,,,,,,,,,,,,,W,174,circle,1,0,,,,,,,,,,,,,,,,repeat,letter,lettRpt,f,Hi,,,,,,1.2405,1,,,,,,space,1.298,low,0,0,0,0,1,,,,,,,,,
294727,2022-10-07_24h33.09.047,vts_reward_expectancy,2022.2.4,MacIntel,120.0048002,Chrome,1512,982,,,,,10,683,,,,,,,,,,,,,,,,,F,167,triangle,1,0,,,,,,,,,,,,,,,,repeat,letter,lettRpt,d,Lo,,,,,,0.8276,1,,,,,,,,low,1,0,1,0,1,,,,,,,,,
294727,2022-10-07_24h33.09.047,vts_reward_expectancy,2022.2.4,MacIntel,120.0048002,Chrome,1512,982,,,,,0,683,,,,,,,,,,,,,,,,,U,139,circle,1,0,,,,,,,,,,,,,,,,switch,number,numSwt,j,Hi,,,,,,1.1079,1,,,,,,,,low,2,0,2,0,1,,,,,,,,,
294727,2022-10-07_24h33.09.047,vts_reward_expectancy,2022.2.4,MacIntel,120.0048002,Chrome,1512,982,,,,,1,684,,,,,,,,,,,,,,,,,H,125,triangle,1,0,,,,,,,,,,,,,,,,switch,letter,lettSwt,d,Lo,,,,,,0.8962,1,,,,,,,,low,3,0,3,0,1,,,,,,,,,
294727,2022-10-07_24h33.09.047,vts_reward_expectancy,2022.2.4,MacIntel,120.0048002,Chrome,1512,982,,,,,1,685,,,,,,,,,,,,,,,,,B,146,triangle,1,0,,,,,,,,,,,,,,,,repeat,letter,lettRpt,d,Lo,,,,,,1.107,1,,,,,,,,low,4,0,4,0,1,,,,,,,,,
294727,2022-10-07_24h33.09.047,vts_reward_expectancy,2022.2.4,MacIntel,120.0048002,Chrome,1512,982,,,,,0,685,,,,,,,,,,,,,,,,,S,132,circle,1,0,,,,,,,,,,,,,,,,switch,number,numSwt,j,Hi,,,,,,0.7261,1,,,,,,,,low,5,0,5,0,1,,,,,,,,,
294727,2022-10-07_24h33.09.047,vts_reward_expectancy,2022.2.4,MacIntel,120.0048002,Chrome,1512,982,,,,,1,686,,,,,,,,,,,,,,,,,D,160,triangle,1,0,,,,,,,,,,,,,,,,switch,letter,lettSwt,d,Lo,,,,,,0.6629,1,,,,,,,,low,6,0,6,0,1,,,,,,,,,
294727,2022-10-07_24h33.09.047,vts_reward_expectancy,2022.2.4,MacIntel,120.0048002,Chrome,1512,982,,,,,0,686,,,,,,,,,,,,,,,,,Y,181,circle,0,0,,,,,,,,,,,,,,,,switch,number,NA,j,Lo,,,,,,0.5101,1,,,,,,,,low,7,0,7,0,1,,,,,,,,,
294727,2022-10-07_24h33.09.047,vts_reward_expectancy,2022.2.4,MacIntel,120.0048002,Chrome,1512,982,,,,,0,686,,,,,,,,,,,,,,,,,W,174,circle,1,1,,,,,,,,,,,,,,,,switch,letter,lettSwt,f,Hi,,,,,,0.9387,1,,,,,,,,low,8,0,8,0,1,,,,,,,,,
294727,2022-10-07_24h33.09.047,vts_reward_expectancy,2022.2.4,MacIntel,120.0048002,Chrome,1512,982,,,,,0,686,,,,,,,,,,,,,,,,,F,167,triangle,0,0,,,,,,,,,,,,,,,,switch,number,NA,j,Hi,,,,,,0.0273,1,,,,,,,,low,9,0,9,0,1,,,,,,,,,
294727,2022-10-07_24h33.09.047,vts_reward_expectancy,2022.2.4,MacIntel,120.0048002,Chrome,1512,982,,,,,10,696,,,,,,,,,,,,,,,,,U,139,triangle,1,1,,,,,,,,,,,,,,,,switch,letter,lettSwt,f,Lo,,,,,,0.6818,1,,,,,,,,low,10,0,10,0,1,,,,,,,,,
294727,2022-10-07_24h33.09.047,vts_reward_expectancy,2022.2.4,MacIntel,120.0048002,Chrome,1512,982,,,,,1,697,,,,,,,,,,,,,,,,,H,125,circle,1,0,,,,,,,,,,,,,,,,repeat,letter,lettRpt,d,Hi,,,,,,0.5799,1,,,,,,,,low,11,0,11,0,1,,,,,,,,,
294727,2022-10-07_24h33.09.047,vts_reward_expectancy,2022.2.4,MacIntel,120.0048002,Chrome,1512,982,,,,,0,697,,,,,,,,,,,,,,,,,B,146,circle,1,0,,,,,,,,,,,,,,,,switch,number,numSwt,j,Hi,,,,,,0.4701,1,,,,,,,,low,12,0,12,0,1,,,,,,,,,
294727,2022-10-07_24h33.09.047,vts_reward_expectancy,2022.2.4,MacIntel,120.0048002,Chrome,1512,982,,,,,10,707,,,,,,,,,,,,,,,,,S,132,triangle,1,0,,,,,,,,,,,,,,,,repeat,number,numRpt,j,Lo,,,,,,0.4541,1,,,,,,,,low,13,0,13,0,1,,,,,,,,,
294727,2022-10-07_24h33.09.047,vts_reward_expectancy,2022.2.4,MacIntel,120.0048002,Chrome,1512,982,,,,,0,707,,,,,,,,,,,,,,,,,D,160,circle,0,0,,,,,,,,,,,,,,,,switch,letter,NA,f,Lo,,,,,,0.5348,1,,,,,,,,low,14,0,14,0,1,,,,,,,,,
294727,2022-10-07_24h33.09.047,vts_reward_expectancy,2022.2.4,MacIntel,120.0048002,Chrome,1512,982,,,,,0,707,,,,,,,,,,,,,,,,,Y,181,triangle,0,1,,,,,,,,,,,,,,,,switch,number,NA,j,Lo,,,,,,0.729,1,,,,,,,,low,15,0,15,0,1,,,,,,,,,
294727,2022-10-07_24h33.09.047,vts_reward_expectancy,2022.2.4,MacIntel,120.0048002,Chrome,1512,982,,,,,0,707,,,,,,,,,,,,,,,,,S,174,circle,1,1,,,,,,,,,,,,,,,,repeat,number,numRpt,k,Hi,,,,,,0.8349,1,,,,,,,,low,16,0,16,0,1,,,,,,,,,
294727,2022-10-07_24h33.09.047,vts_reward_expectancy,2022.2.4,MacIntel,120.0048002,Chrome,1512,982,,,,,1,708,,,,,,,,,,,,,,,,,H,160,triangle,1,0,,,,,,,,,,,,,,,,switch,letter,lettSwt,d,Lo,,,,,,0.7097,1,,,,,,,,low,17,0,17,0,1,,,,,,,,,
294727,2022-10-07_24h33.09.047,vts_reward_expectancy,2022.2.4,MacIntel,120.0048002,Chrome,1512,982,,,,,1,709,,,,,,,,,,,,,,,,,Y,132,triangle,1,0,,,,,,,,,,,,,,,,repeat,letter,lettRpt,f,Lo,,,,,,0.6348,1,,,,,,,,low,18,0,18,0,1,,,,,,,,,
294727,2022-10-07_24h33.09.047,vts_reward_expectancy,2022.2.4,MacIntel,120.0048002,Chrome,1512,982,,,,,1,710,,,,,,,,,,,,,,,,,D,125,circle,1,0,,,,,,,,,,,,,,,,switch,number,numSwt,j,Hi,,,,,,0.3891,1,,,,,,,,low,19,0,19,0,1,,,,,,,,,
294727,2022-10-07_24h33.09.047,vts_reward_expectancy,2022.2.4,MacIntel,120.0048002,Chrome,1512,982,,,,,10,720,,,,,,,,,,,,,,,,,U,167,circle,1,0,,,,,,,,,,,,,,,,switch,letter,lettSwt,f,Hi,,,,,,0.6811,1,,,,,,,,low,20,0,20,0,1,,,,,,,,,
294727,2022-10-07_24h33.09.047,vts_reward_expectancy,2022.2.4,MacIntel,120.0048002,Chrome,1512,982,,,,,1,721,,,,,,,,,,,,,,,,,W,146,triangle,1,0,,,,,,,,,,,,,,,,repeat,letter,lettRpt,f,Lo,,,,,,0.5165,1,,,,,,,,low,21,0,21,0,1,,,,,,,,,
294727,2022-10-07_24h33.09.047,vts_reward_expectancy,2022.2.4,MacIntel,120.0048002,Chrome,1512,982,,,,,1,722,,,,,,,,,,,,,,,,,B,181,triangle,1,0,,,,,,,,,,,,,,,,switch,number,numSwt,k,Lo,,,,,,0.4699,1,,,,,,,,low,22,0,22,0,1,,,,,,,,,
294727,2022-10-07_24h33.09.047,vts_reward_expectancy,2022.2.4,MacIntel,120.0048002,Chrome,1512,982,,,,,0,722,,,,,,,,,,,,,,,,,F,139,circle,0,0,,,,,,,,,,,,,,,,repeat,number,NA,k,Lo,,,,,,0.4197,1,,,,,,,,low,23,0,23,0,1,,,,,,,,,
294727,2022-10-07_24h33.09.047,vts_reward_expectancy,2022.2.4,MacIntel,120.0048002,Chrome,1512,982,,,,,10,732,,,,,,,,,,,,,,,,,B,139,circle,1,1,,,,,,,,,,,,,,,,repeat,number,numRpt,j,Hi,,,,,,0.6352,1,,,,,,,,low,24,0,24,0,1,,,,,,,,,
294727,2022-10-07_24h33.09.047,vts_reward_expectancy,2022.2.4,MacIntel,120.0048002,Chrome,1512,982,,,,,10,742,,,,,,,,,,,,,,,,,D,167,triangle,1,0,,,,,,,,,,,,,,,,switch,letter,lettSwt,d,Lo,,,,,,0.662,1,,,,,,,,low,25,0,25,0,1,,,,,,,,,
294727,2022-10-07_24h33.09.047,vts_reward_expectancy,2022.2.4,MacIntel,120.0048002,Chrome,1512,982,,,,,10,752,,,,,,,,,,,,,,,,,Y,132,circle,1,0,,,,,,,,,,,,,,,,repeat,letter,lettRpt,f,Hi,,,,,,0.6918,1,,,,,,,,low,26,0,26,0,1,,,,,,,,,
294727,2022-10-07_24h33.09.047,vts_reward_expectancy,2022.2.4,MacIntel,120.0048002,Chrome,1512,982,,,,,10,762,,,,,,,,,,,,,,,,,W,174,triangle,1,0,,,,,,,,,,,,,,,,repeat,letter,lettRpt,f,Lo,,,,,,0.5587,1,,,,,,,,low,27,0,27,0,1,,,,,,,,,
294727,2022-10-07_24h33.09.047,vts_reward_expectancy,2022.2.4,MacIntel,120.0048002,Chrome,1512,982,,,,,10,772,,,,,,,,,,,,,,,,,S,181,triangle,1,0,,,,,,,,,,,,,,,,switch,number,numSwt,k,Lo,,,,,,0.5441,1,,,,,,,,low,28,0,28,0,1,,,,,,,,,
294727,2022-10-07_24h33.09.047,vts_reward_expectancy,2022.2.4,MacIntel,120.0048002,Chrome,1512,982,,,,,10,782,,,,,,,,,,,,,,,,,F,125,circle,1,0,,,,,,,,,,,,,,,,repeat,number,numRpt,j,Hi,,,,,,0.6153,1,,,,,,,,low,29,0,29,0,1,,,,,,,,,
294727,2022-10-07_24h33.09.047,vts_reward_expectancy,2022.2.4,MacIntel,120.0048002,Chrome,1512,982,,,,,1,783,,,,,,,,,,,,,,,,,U,160,triangle,1,0,,,,,,,,,,,,,,,,switch,letter,lettSwt,f,Lo,,,,,,0.6511,1,,,,,,,,low,30,0,30,0,1,,,,,,,,,
294727,2022-10-07_24h33.09.047,vts_reward_expectancy,2022.2.4,MacIntel,120.0048002,Chrome,1512,982,,,,,1,784,,,,,,,,,,,,,,,,,H,146,circle,1,0,,,,,,,,,,,,,,,,repeat,letter,lettRpt,d,Hi,,,,,,0.6976,1,,,,,,,,low,31,0,31,0,1,,,,,,,,,
294727,2022-10-07_24h33.09.047,vts_reward_expectancy,2022.2.4,MacIntel,120.0048002,Chrome,1512,982,,,,,0,784,,,,,,,,,,,,,,,,,H,181,circle,1,0,,,,,,,,,,,,,,,,repeat,letter,lettRpt,d,Hi,,,,,,0.8105,2,,,,,,space,0.5563,low,0,0,0,0,1,,,,,,,,,
294727,2022-10-07_24h33.09.047,vts_reward_expectancy,2022.2.4,MacIntel,120.0048002,Chrome,1512,982,,,,,10,794,,,,,,,,,,,,,,,,,W,146,triangle,1,0,,,,,,,,,,,,,,,,switch,number,numSwt,j,Lo,,,,,,0.7557,2,,,,,,,,low,1,0,1,0,1,,,,,,,,,
294727,2022-10-07_24h33.09.047,vts_reward_expectancy,2022.2.4,MacIntel,120.0048002,Chrome,1512,982,,,,,1,795,,,,,,,,,,,,,,,,,S,167,circle,1,0,,,,,,,,,,,,,,,,switch,letter,lettSwt,f,Hi,,,,,,0.6254,2,,,,,,,,low,2,0,2,0,1,,,,,,,,,
294727,2022-10-07_24h33.09.047,vts_reward_expectancy,2022.2.4,MacIntel,120.0048002,Chrome,1512,982,,,,,1,796,,,,,,,,,,,,,,,,,B,125,triangle,1,0,,,,,,,,,,,,,,,,switch,number,numSwt,j,Lo,,,,,,0.5187,2,,,,,,,,low,3,0,3,0,1,,,,,,,,,
294727,2022-10-07_24h33.09.047,vts_reward_expectancy,2022.2.4,MacIntel,120.0048002,Chrome,1512,982,,,,,1,797,,,,,,,,,,,,,,,,,F,174,circle,1,0,,,,,,,,,,,,,,,,switch,letter,lettSwt,d,Hi,,,,,,0.5746,2,,,,,,,,low,4,0,4,0,1,,,,,,,,,
294727,2022-10-07_24h33.09.047,vts_reward_expectancy,2022.2.4,MacIntel,120.0048002,Chrome,1512,982,,,,,10,807,,,,,,,,,,,,,,,,,D,132,triangle,1,0,,,,,,,,,,,,,,,,switch,number,numSwt,j,Lo,,,,,,0.4062,2,,,,,,,,low,5,0,5,0,1,,,,,,,,,
294727,2022-10-07_24h33.09.047,vts_reward_expectancy,2022.2.4,MacIntel,120.0048002,Chrome,1512,982,,,,,1,808,,,,,,,,,,,,,,,,,Y,160,triangle,1,0,,,,,,,,,,,,,,,,repeat,number,numRpt,k,Lo,,,,,,0.9347,2,,,,,,,,low,6,0,6,0,1,,,,,,,,,
294727,2022-10-07_24h33.09.047,vts_reward_expectancy,2022.2.4,MacIntel,120.0048002,Chrome,1512,982,,,,,0,808,,,,,,,,,,,,,,,,,U,139,circle,1,0,,,,,,,,,,,,,,,,repeat,number,numRpt,j,Hi,,,,,,0.684,2,,,,,,,,low,7,0,7,0,1,,,,,,,,,
294727,2022-10-07_24h33.09.047,vts_reward_expectancy,2022.2.4,MacIntel,120.0048002,Chrome,1512,982,,,,,0,808,,,,,,,,,,,,,,,,,H,181,circle,0,0,,,,,,,,,,,,,,,,switch,letter,NA,f,Hi,,,,,,0.0773,2,,,,,,,,low,8,0,8,0,1,,,,,,,,,
294727,2022-10-07_24h33.09.047,vts_reward_expectancy,2022.2.4,MacIntel,120.0048002,Chrome,1512,982,,,,,0,808,,,,,,,,,,,,,,,,,W,146,triangle,0,1,,,,,,,,,,,,,,,,repeat,letter,NA,d,Hi,,,,,,0.1631,2,,,,,,,,low,9,0,9,0,1,,,,,,,,,
294727,2022-10-07_24h33.09.047,vts_reward_expectancy,2022.2.4,MacIntel,120.0048002,Chrome,1512,982,,,,,1,809,,,,,,,,,,,,,,,,,S,167,triangle,1,1,,,,,,,,,,,,,,,,switch,number,numSwt,k,Lo,,,,,,0.6245,2,,,,,,,,low,10,0,10,0,1,,,,,,,,,
294727,2022-10-07_24h33.09.047,vts_reward_expectancy,2022.2.4,MacIntel,120.0048002,Chrome,1512,982,,,,,10,819,,,,,,,,,,,,,,,,,B,125,circle,1,0,,,,,,,,,,,,,,,,repeat,number,numRpt,j,Hi,,,,,,0.5828,2,,,,,,,,low,11,0,11,0,1,,,,,,,,,
294727,2022-10-07_24h33.09.047,vts_reward_expectancy,2022.2.4,MacIntel,120.0048002,Chrome,1512,982,,,,,10,829,,,,,,,,,,,,,,,,,F,174,circle,1,0,,,,,,,,,,,,,,,,repeat,number,numRpt,k,Hi,,,,,,0.5088,2,,,,,,,,low,12,0,12,0,1,,,,,,,,,
294727,2022-10-07_24h33.09.047,vts_reward_expectancy,2022.2.4,MacIntel,120.0048002,Chrome,1512,982,,,,,1,830,,,,,,,,,,,,,,,,,D,132,triangle,1,0,,,,,,,,,,,,,,,,switch,letter,lettSwt,d,Lo,,,,,,2.9766,2,,,,,,,,low,13,0,13,0,1,,,,,,,,,
294727,2022-10-07_24h33.09.047,vts_reward_expectancy,2022.2.4,MacIntel,120.0048002,Chrome,1512,982,,,,,0,830,,,,,,,,,,,,,,,,,Y,160,circle,1,0,,,,,,,,,,,,,,,,repeat,letter,lettRpt,f,Hi,,,,,,0.8765,2,,,,,,,,low,14,0,14,0,1,,,,,,,,,
294727,2022-10-07_24h33.09.047,vts_reward_expectancy,2022.2.4,MacIntel,120.0048002,Chrome,1512,982,,,,,1,831,,,,,,,,,,,,,,,,,U,139,triangle,1,0,,,,,,,,,,,,,,,,switch,number,numSwt,j,Lo,,,,,,0.5472,2,,,,,,,,low,15,0,15,0,1,,,,,,,,,
294727,2022-10-07_24h33.09.047,vts_reward_expectancy,2022.2.4,MacIntel,120.0048002,Chrome,1512,982,,,,,10,841,,,,,,,,,,,,,,,,,Y,125,triangle,1,0,,,,,,,,,,,,,,,,switch,letter,lettSwt,f,Lo,,,,,,0.6237,2,,,,,,,,low,16,0,16,0,1,,,,,,,,,
294727,2022-10-07_24h33.09.047,vts_reward_expectancy,2022.2.4,MacIntel,120.0048002,Chrome,1512,982,,,,,0,841,,,,,,,,,,,,,,,,,H,132,circle,1,0,,,,,,,,,,,,,,,,repeat,letter,lettRpt,d,Hi,,,,,,0.7017,2,,,,,,,,low,17,0,17,0,1,,,,,,,,,
294727,2022-10-07_24h33.09.047,vts_reward_expectancy,2022.2.4,MacIntel,120.0048002,Chrome,1512,982,,,,,0,841,,,,,,,,,,,,,,,,,D,139,circle,1,0,,,,,,,,,,,,,,,,switch,number,numSwt,j,Hi,,,,,,0.6571,2,,,,,,,,low,18,0,18,0,1,,,,,,,,,
294727,2022-10-07_24h33.09.047,vts_reward_expectancy,2022.2.4,MacIntel,120.0048002,Chrome,1512,982,,,,,1,842,,,,,,,,,,,,,,,,,W,146,triangle,1,0,,,,,,,,,,,,,,,,switch,letter,lettSwt,f,Lo,,,,,,0.5178,2,,,,,,,,low,19,0,19,0,1,,,,,,,,,
294727,2022-10-07_24h33.09.047,vts_reward_expectancy,2022.2.4,MacIntel,120.0048002,Chrome,1512,982,,,,,0,842,,,,,,,,,,,,,,,,,U,160,circle,1,0,,,,,,,,,,,,,,,,switch,number,numSwt,k,Hi,,,,,,0.5978,2,,,,,,,,low,20,0,20,0,1,,,,,,,,,
294727,2022-10-07_24h33.09.047,vts_reward_expectancy,2022.2.4,MacIntel,120.0048002,Chrome,1512,982,,,,,10,852,,,,,,,,,,,,,,,,,S,167,triangle,1,0,,,,,,,,,,,,,,,,repeat,number,numRpt,k,Lo,,,,,,0.5478,2,,,,,,,,low,21,0,21,0,1,,,,,,,,,
294727,2022-10-07_24h33.09.047,vts_reward_expectancy,2022.2.4,MacIntel,120.0048002,Chrome,1512,982,,,,,1,853,,,,,,,,,,,,,,,,,F,174,triangle,1,0,,,,,,,,,,,,,,,,repeat,number,numRpt,k,Lo,,,,,,0.567,2,,,,,,,,low,22,0,22,0,1,,,,,,,,,
294727,2022-10-07_24h33.09.047,vts_reward_expectancy,2022.2.4,MacIntel,120.0048002,Chrome,1512,982,,,,,1,854,,,,,,,,,,,,,,,,,B,181,circle,1,0,,,,,,,,,,,,,,,,switch,letter,lettSwt,d,Hi,,,,,,0.3848,2,,,,,,,,low,23,0,23,0,1,,,,,,,,,
294727,2022-10-07_24h33.09.047,vts_reward_expectancy,2022.2.4,MacIntel,120.0048002,Chrome,1512,982,,,,,10,864,,,,,,,,,,,,,,,,,U,125,triangle,1,0,,,,,,,,,,,,,,,,switch,number,numSwt,j,Lo,,,,,,0.5806,2,,,,,,,,low,24,0,24,0,1,,,,,,,,,
294727,2022-10-07_24h33.09.047,vts_reward_expectancy,2022.2.4,MacIntel,120.0048002,Chrome,1512,982,,,,,0,864,,,,,,,,,,,,,,,,,D,160,circle,0,0,,,,,,,,,,,,,,,,repeat,number,NA,j,Lo,,,,,,0.6418,2,,,,,,,,low,25,0,25,0,1,,,,,,,,,
294727,2022-10-07_24h33.09.047,vts_reward_expectancy,2022.2.4,MacIntel,120.0048002,Chrome,1512,982,,,,,0,864,,,,,,,,,,,,,,,,,S,132,circle,1,1,,,,,,,,,,,,,,,,repeat,number,numRpt,j,Hi,,,,,,0.7748,2,,,,,,,,low,26,0,26,0,1,,,,,,,,,
294727,2022-10-07_24h33.09.047,vts_reward_expectancy,2022.2.4,MacIntel,120.0048002,Chrome,1512,982,,,,,10,874,,,,,,,,,,,,,,,,,H,174,triangle,1,0,,,,,,,,,,,,,,,,switch,letter,lettSwt,d,Lo,,,,,,0.5492,2,,,,,,,,low,27,0,27,0,1,,,,,,,,,
294727,2022-10-07_24h33.09.047,vts_reward_expectancy,2022.2.4,MacIntel,120.0048002,Chrome,1512,982,,,,,1,875,,,,,,,,,,,,,,,,,Y,139,circle,1,0,,,,,,,,,,,,,,,,repeat,letter,lettRpt,f,Hi,,,,,,0.6067,2,,,,,,,,low,28,0,28,0,1,,,,,,,,,
294727,2022-10-07_24h33.09.047,vts_reward_expectancy,2022.2.4,MacIntel,120.0048002,Chrome,1512,982,,,,,1,876,,,,,,,,,,,,,,,,,W,167,triangle,1,0,,,,,,,,,,,,,,,,switch,number,numSwt,k,Lo,,,,,,0.7664,2,,,,,,,,low,29,0,29,0,1,,,,,,,,,
294727,2022-10-07_24h33.09.047,vts_reward_expectancy,2022.2.4,MacIntel,120.0048002,Chrome,1512,982,,,,,0,876,,,,,,,,,,,,,,,,,F,181,triangle,0,0,,,,,,,,,,,,,,,,repeat,number,NA,j,Lo,,,,,,0.7129,2,,,,,,,,low,30,0,30,0,1,,,,,,,,,
294727,2022-10-07_24h33.09.047,vts_reward_expectancy,2022.2.4,MacIntel,120.0048002,Chrome,1512,982,,,,,0,876,,,,,,,,,,,,,,,,,B,146,circle,1,1,,,,,,,,,,,,,,,,repeat,number,numRpt,j,Hi,,,,,,0.8319,2,,,,,,,,low,31,0,31,0,1,,,,,,,,,
294727,2022-10-07_24h33.09.047,vts_reward_expectancy,2022.2.4,MacIntel,120.0048002,Chrome,1512,982,,,,,0,876,,,,,,,,,,,,,,,,,Y,132,hexagon,1,0,,,,,,,,,,,,,,,,repeat,number,numRpt,j,Hi,,,,,,0.7399,3,,,,,,space,0.6103,high,0,0,0,0,1,,,,,,,,,
294727,2022-10-07_24h33.09.047,vts_reward_expectancy,2022.2.4,MacIntel,120.0048002,Chrome,1512,982,,,,,10,886,,,,,,,,,,,,,,,,,H,160,star,1,0,,,,,,,,,,,,,,,,repeat,number,numRpt,k,Lo,,,,,,0.7184,3,,,,,,,,high,1,0,1,0,1,,,,,,,,,
294727,2022-10-07_24h33.09.047,vts_reward_expectancy,2022.2.4,MacIntel,120.0048002,Chrome,1512,982,,,,,0,886,,,,,,,,,,,,,,,,,S,125,hexagon,1,0,,,,,,,,,,,,,,,,repeat,number,numRpt,j,Hi,,,,,,0.785,3,,,,,,,,high,2,0,2,0,1,,,,,,,,,
294727,2022-10-07_24h33.09.047,vts_reward_expectancy,2022.2.4,MacIntel,120.0048002,Chrome,1512,982,,,,,1,887,,,,,,,,,,,,,,,,,W,167,star,1,0,,,,,,,,,,,,,,,,switch,letter,lettSwt,f,Lo,,,,,,0.9019,3,,,,,,,,high,3,0,3,0,1,,,,,,,,,
294727,2022-10-07_24h33.09.047,vts_reward_expectancy,2022.2.4,MacIntel,120.0048002,Chrome,1512,982,,,,,10,897,,,,,,,,,,,,,,,,,D,139,hexagon,1,0,,,,,,,,,,,,,,,,switch,number,numSwt,j,Hi,,,,,,0.5431,3,,,,,,,,high,4,0,4,0,1,,,,,,,,,
294727,2022-10-07_24h33.09.047,vts_reward_expectancy,2022.2.4,MacIntel,120.0048002,Chrome,1512,982,,,,,1,898,,,,,,,,,,,,,,,,,F,181,star,1,0,,,,,,,,,,,,,,,,repeat,number,numRpt,k,Lo,,,,,,0.5916,3,,,,,,,,high,5,0,5,0,1,,,,,,,,,
294727,2022-10-07_24h33.09.047,vts_reward_expectancy,2022.2.4,MacIntel,120.0048002,Chrome,1512,982,,,,,10,908,,,,,,,,,,,,,,,,,B,146,hexagon,1,0,,,,,,,,,,,,,,,,switch,letter,lettSwt,d,Hi,,,,,,0.5479,3,,,,,,,,high,6,0,6,0,1,,,,,,,,,
294727,2022-10-07_24h33.09.047,vts_reward_expectancy,2022.2.4,MacIntel,120.0048002,Chrome,1512,982,,,,,1,909,,,,,,,,,,,,,,,,,U,174,star,1,0,,,,,,,,,,,,,,,,repeat,letter,lettRpt,f,Lo,,,,,,0.6328,3,,,,,,,,high,7,0,7,0,1,,,,,,,,,
294727,2022-10-07_24h33.09.047,vts_reward_expectancy,2022.2.4,MacIntel,120.0048002,Chrome,1512,982,,,,,1,910,,,,,,,,,,,,,,,,,Y,132,hexagon,1,0,,,,,,,,,,,,,,,,switch,number,numSwt,j,Hi,,,,,,0.5454,3,,,,,,,,high,8,0,8,0,1,,,,,,,,,
294727,2022-10-07_24h33.09.047,vts_reward_expectancy,2022.2.4,MacIntel,120.0048002,Chrome,1512,982,,,,,10,920,,,,,,,,,,,,,,,,,H,160,star,1,0,,,,,,,,,,,,,,,,switch,letter,lettSwt,d,Lo,,,,,,0.6192,3,,,,,,,,high,9,0,9,0,1,,,,,,,,,
294727,2022-10-07_24h33.09.047,vts_reward_expectancy,2022.2.4,MacIntel,120.0048002,Chrome,1512,982,,,,,10,930,,,,,,,,,,,,,,,,,S,125,star,1,0,,,,,,,,,,,,,,,,switch,number,numSwt,j,Lo,,,,,,0.5385,3,,,,,,,,high,10,0,10,0,1,,,,,,,,,
294727,2022-10-07_24h33.09.047,vts_reward_expectancy,2022.2.4,MacIntel,120.0048002,Chrome,1512,982,,,,,10,940,,,,,,,,,,,,,,,,,W,167,hexagon,1,0,,,,,,,,,,,,,,,,switch,letter,lettSwt,f,Hi,,,,,,0.5365,3,,,,,,,,high,11,0,11,0,1,,,,,,,,,
294727,2022-10-07_24h33.09.047,vts_reward_expectancy,2022.2.4,MacIntel,120.0048002,Chrome,1512,982,,,,,10,950,,,,,,,,,,,,,,,,,D,139,hexagon,1,0,,,,,,,,,,,,,,,,switch,number,numSwt,j,Hi,,,,,,0.5109,3,,,,,,,,high,12,0,12,0,1,,,,,,,,,
294727,2022-10-07_24h33.09.047,vts_reward_expectancy,2022.2.4,MacIntel,120.0048002,Chrome,1512,982,,,,,1,951,,,,,,,,,,,,,,,,,F,181,star,1,0,,,,,,,,,,,,,,,,switch,letter,lettSwt,d,Lo,,,,,,0.5642,3,,,,,,,,high,13,0,13,0,1,,,,,,,,,
294727,2022-10-07_24h33.09.047,vts_reward_expectancy,2022.2.4,MacIntel,120.0048002,Chrome,1512,982,,,,,1,952,,,,,,,,,,,,,,,,,B,146,star,1,0,,,,,,,,,,,,,,,,switch,number,numSwt,j,Lo,,,,,,0.5281,3,,,,,,,,high,14,0,14,0,1,,,,,,,,,
294727,2022-10-07_24h33.09.047,vts_reward_expectancy,2022.2.4,MacIntel,120.0048002,Chrome,1512,982,,,,,0,952,,,,,,,,,,,,,,,,,U,174,hexagon,0,0,,,,,,,,,,,,,,,,repeat,number,NA,j,Lo,,,,,,0.6394,3,,,,,,,,high,15,0,15,0,1,,,,,,,,,
294727,2022-10-07_24h33.09.047,vts_reward_expectancy,2022.2.4,MacIntel,120.0048002,Chrome,1512,982,,,,,1,953,,,,,,,,,,,,,,,,,F,174,star,1,1,,,,,,,,,,,,,,,,repeat,number,numRpt,k,Lo,,,,,,0.5856,3,,,,,,,,high,16,0,16,0,1,,,,,,,,,
294727,2022-10-07_24h33.09.047,vts_reward_expectancy,2022.2.4,MacIntel,120.0048002,Chrome,1512,982,,,,,0,953,,,,,,,,,,,,,,,,,U,181,hexagon,1,0,,,,,,,,,,,,,,,,switch,letter,lettSwt,f,Hi,,,,,,0.6791,3,,,,,,,,high,17,0,17,0,1,,,,,,,,,
294727,2022-10-07_24h33.09.047,vts_reward_expectancy,2022.2.4,MacIntel,120.0048002,Chrome,1512,982,,,,,10,963,,,,,,,,,,,,,,,,,H,139,hexagon,1,0,,,,,,,,,,,,,,,,switch,number,numSwt,j,Hi,,,,,,0.5577,3,,,,,,,,high,18,0,18,0,1,,,,,,,,,
294727,2022-10-07_24h33.09.047,vts_reward_expectancy,2022.2.4,MacIntel,120.0048002,Chrome,1512,982,,,,,10,973,,,,,,,,,,,,,,,,,D,125,star,1,0,,,,,,,,,,,,,,,,repeat,number,numRpt,j,Lo,,,,,,0.501,3,,,,,,,,high,19,0,19,0,1,,,,,,,,,
294727,2022-10-07_24h33.09.047,vts_reward_expectancy,2022.2.4,MacIntel,120.0048002,Chrome,1512,982,,,,,0,973,,,,,,,,,,,,,,,,,S,132,hexagon,1,0,,,,,,,,,,,,,,,,repeat,number,numRpt,j,Hi,,,,,,0.7737,3,,,,,,,,high,20,0,20,0,1,,,,,,,,,
294727,2022-10-07_24h33.09.047,vts_reward_expectancy,2022.2.4,MacIntel,120.0048002,Chrome,1512,982,,,,,1,974,,,,,,,,,,,,,,,,,W,146,star,1,0,,,,,,,,,,,,,,,,switch,letter,lettSwt,f,Lo,,,,,,0.6859,3,,,,,,,,high,21,0,21,0,1,,,,,,,,,
294727,2022-10-07_24h33.09.047,vts_reward_expectancy,2022.2.4,MacIntel,120.0048002,Chrome,1512,982,,,,,1,975,,,,,,,,,,,,,,,,,Y,160,star,1,0,,,,,,,,,,,,,,,,switch,number,numSwt,k,Lo,,,,,,0.9336,3,,,,,,,,high,22,0,22,0,1,,,,,,,,,
294727,2022-10-07_24h33.09.047,vts_reward_expectancy,2022.2.4,MacIntel,120.0048002,Chrome,1512,982,,,,,0,975,,,,,,,,,,,,,,,,,B,167,hexagon,0,0,,,,,,,,,,,,,,,,switch,letter,NA,f,Lo,,,,,,0.4982,3,,,,,,,,high,23,0,23,0,1,,,,,,,,,
294727,2022-10-07_24h33.09.047,vts_reward_expectancy,2022.2.4,MacIntel,120.0048002,Chrome,1512,982,,,,,1,976,,,,,,,,,,,,,,,,,F,181,hexagon,1,1,,,,,,,,,,,,,,,,repeat,letter,lettRpt,d,Hi,,,,,,0.6014,3,,,,,,,,high,24,0,24,0,1,,,,,,,,,
294727,2022-10-07_24h33.09.047,vts_reward_expectancy,2022.2.4,MacIntel,120.0048002,Chrome,1512,982,,,,,1,977,,,,,,,,,,,,,,,,,U,125,star,1,0,,,,,,,,,,,,,,,,repeat,letter,lettRpt,f,Lo,,,,,,0.5904,3,,,,,,,,high,25,0,25,0,1,,,,,,,,,
294727,2022-10-07_24h33.09.047,vts_reward_expectancy,2022.2.4,MacIntel,120.0048002,Chrome,1512,982,,,,,0,977,,,,,,,,,,,,,,,,,Y,139,hexagon,0,0,,,,,,,,,,,,,,,,repeat,letter,NA,d,Lo,,,,,,0.6628,3,,,,,,,,high,26,0,26,0,1,,,,,,,,,
294727,2022-10-07_24h33.09.047,vts_reward_expectancy,2022.2.4,MacIntel,120.0048002,Chrome,1512,982,,,,,1,978,,,,,,,,,,,,,,,,,H,174,star,1,1,,,,,,,,,,,,,,,,repeat,letter,lettRpt,d,Lo,,,,,,0.6831,3,,,,,,,,high,27,0,27,0,1,,,,,,,,,
294727,2022-10-07_24h33.09.047,vts_reward_expectancy,2022.2.4,MacIntel,120.0048002,Chrome,1512,982,,,,,1,979,,,,,,,,,,,,,,,,,W,132,star,1,0,,,,,,,,,,,,,,,,repeat,letter,lettRpt,f,Lo,,,,,,0.6407,3,,,,,,,,high,28,0,28,0,1,,,,,,,,,
294727,2022-10-07_24h33.09.047,vts_reward_expectancy,2022.2.4,MacIntel,120.0048002,Chrome,1512,982,,,,,0,979,,,,,,,,,,,,,,,,,B,146,hexagon,0,0,,,,,,,,,,,,,,,,repeat,letter,NA,f,Lo,,,,,,0.6145,3,,,,,,,,high,29,0,29,0,1,,,,,,,,,
294727,2022-10-07_24h33.09.047,vts_reward_expectancy,2022.2.4,MacIntel,120.0048002,Chrome,1512,982,,,,,0,979,,,,,,,,,,,,,,,,,S,160,hexagon,1,1,,,,,,,,,,,,,,,,repeat,letter,lettRpt,f,Hi,,,,,,0.7276,3,,,,,,,,high,30,0,30,0,1,,,,,,,,,
294727,2022-10-07_24h33.09.047,vts_reward_expectancy,2022.2.4,MacIntel,120.0048002,Chrome,1512,982,,,,,0,979,,,,,,,,,,,,,,,,,D,167,star,0,0,,,,,,,,,,,,,,,,repeat,letter,NA,f,Hi,,,,,,0.7637,3,,,,,,,,high,31,0,31,0,1,,,,,,,,,
294727,2022-10-07_24h33.09.047,vts_reward_expectancy,2022.2.4,MacIntel,120.0048002,Chrome,1512,982,,,,,0,979,,,,,,,,,,,,,,,,,Y,181,circle,1,1,,,,,,,,,,,,,,,,repeat,letter,lettRpt,f,Hi,,,,,,0.7774,4,,,,,,space,0.9942,low,0,0,0,0,1,,,,,,,,,
294727,2022-10-07_24h33.09.047,vts_reward_expectancy,2022.2.4,MacIntel,120.0048002,Chrome,1512,982,,,,,1,980,,,,,,,,,,,,,,,,,H,125,triangle,1,0,,,,,,,,,,,,,,,,repeat,letter,lettRpt,d,Lo,,,,,,0.5757,4,,,,,,,,low,1,0,1,0,1,,,,,,,,,
294727,2022-10-07_24h33.09.047,vts_reward_expectancy,2022.2.4,MacIntel,120.0048002,Chrome,1512,982,,,,,0,980,,,,,,,,,,,,,,,,,D,160,circle,1,0,,,,,,,,,,,,,,,,switch,number,numSwt,k,Hi,,,,,,0.7261,4,,,,,,,,low,2,0,2,0,1,,,,,,,,,
294727,2022-10-07_24h33.09.047,vts_reward_expectancy,2022.2.4,MacIntel,120.0048002,Chrome,1512,982,,,,,1,981,,,,,,,,,,,,,,,,,F,132,triangle,1,0,,,,,,,,,,,,,,,,repeat,number,numRpt,j,Lo,,,,,,0.5777,4,,,,,,,,low,3,0,3,0,1,,,,,,,,,
294727,2022-10-07_24h33.09.047,vts_reward_expectancy,2022.2.4,MacIntel,120.0048002,Chrome,1512,982,,,,,0,981,,,,,,,,,,,,,,,,,U,139,circle,1,0,,,,,,,,,,,,,,,,switch,letter,lettSwt,f,Hi,,,,,,0.6152,4,,,,,,,,low,4,0,4,0,1,,,,,,,,,
294727,2022-10-07_24h33.09.047,vts_reward_expectancy,2022.2.4,MacIntel,120.0048002,Chrome,1512,982,,,,,1,982,,,,,,,,,,,,,,,,,S,146,triangle,1,0,,,,,,,,,,,,,,,,switch,number,numSwt,j,Lo,,,,,,0.6105,4,,,,,,,,low,5,0,5,0,1,,,,,,,,,
294727,2022-10-07_24h33.09.047,vts_reward_expectancy,2022.2.4,MacIntel,120.0048002,Chrome,1512,982,,,,,0,982,,,,,,,,,,,,,,,,,B,167,circle,1,0,,,,,,,,,,,,,,,,switch,letter,lettSwt,d,Hi,,,,,,0.658,4,,,,,,,,low,6,0,6,0,1,,,,,,,,,
294727,2022-10-07_24h33.09.047,vts_reward_expectancy,2022.2.4,MacIntel,120.0048002,Chrome,1512,982,,,,,0,982,,,,,,,,,,,,,,,,,W,174,triangle,0,0,,,,,,,,,,,,,,,,switch,number,NA,j,Hi,,,,,,0.5073,4,,,,,,,,low,7,0,7,0,1,,,,,,,,,
294727,2022-10-07_24h33.09.047,vts_reward_expectancy,2022.2.4,MacIntel,120.0048002,Chrome,1512,982,,,,,1,983,,,,,,,,,,,,,,,,,Y,181,triangle,1,1,,,,,,,,,,,,,,,,repeat,number,numRpt,k,Lo,,,,,,1.0468,4,,,,,,,,low,8,0,8,0,1,,,,,,,,,
294727,2022-10-07_24h33.09.047,vts_reward_expectancy,2022.2.4,MacIntel,120.0048002,Chrome,1512,982,,,,,0,983,,,,,,,,,,,,,,,,,H,125,circle,1,0,,,,,,,,,,,,,,,,repeat,number,numRpt,j,Hi,,,,,,0.827,4,,,,,,,,low,9,0,9,0,1,,,,,,,,,
294727,2022-10-07_24h33.09.047,vts_reward_expectancy,2022.2.4,MacIntel,120.0048002,Chrome,1512,982,,,,,1,984,,,,,,,,,,,,,,,,,D,160,triangle,1,0,,,,,,,,,,,,,,,,repeat,number,numRpt,k,Lo,,,,,,0.7901,4,,,,,,,,low,10,0,10,0,1,,,,,,,,,
294727,2022-10-07_24h33.09.047,vts_reward_expectancy,2022.2.4,MacIntel,120.0048002,Chrome,1512,982,,,,,0,984,,,,,,,,,,,,,,,,,F,132,circle,1,0,,,,,,,,,,,,,,,,repeat,number,numRpt,j,Hi,,,,,,0.7278,4,,,,,,,,low,11,0,11,0,1,,,,,,,,,
294727,2022-10-07_24h33.09.047,vts_reward_expectancy,2022.2.4,MacIntel,120.0048002,Chrome,1512,982,,,,,0,984,,,,,,,,,,,,,,,,,U,139,circle,1,0,,,,,,,,,,,,,,,,repeat,number,numRpt,j,Hi,,,,,,0.8225,4,,,,,,,,low,12,0,12,0,1,,,,,,,,,
294727,2022-10-07_24h33.09.047,vts_reward_expectancy,2022.2.4,MacIntel,120.0048002,Chrome,1512,982,,,,,10,994,,,,,,,,,,,,,,,,,S,146,triangle,1,0,,,,,,,,,,,,,,,,repeat,number,numRpt,j,Lo,,,,,,0.6999,4,,,,,,,,low,13,0,13,0,1,,,,,,,,,
294727,2022-10-07_24h33.09.047,vts_reward_expectancy,2022.2.4,MacIntel,120.0048002,Chrome,1512,982,,,,,1,995,,,,,,,,,,,,,,,,,B,167,triangle,1,0,,,,,,,,,,,,,,,,repeat,number,numRpt,k,Lo,,,,,,0.9348,4,,,,,,,,low,14,0,14,0,1,,,,,,,,,
294727,2022-10-07_24h33.09.047,vts_reward_expectancy,2022.2.4,MacIntel,120.0048002,Chrome,1512,982,,,,,0,995,,,,,,,,,,,,,,,,,W,174,circle,1,0,,,,,,,,,,,,,,,,repeat,number,numRpt,k,Hi,,,,,,0.8729,4,,,,,,,,low,15,0,15,0,1,,,,,,,,,
294727,2022-10-07_24h33.09.047,vts_reward_expectancy,2022.2.4,MacIntel,120.0048002,Chrome,1512,982,,,,,10,1005,,,,,,,,,,,,,,,,,D,174,circle,1,0,,,,,,,,,,,,,,,,repeat,number,numRpt,k,Hi,,,,,,0.564,4,,,,,,,,low,16,0,16,0,1,,,,,,,,,
294727,2022-10-07_24h33.09.047,vts_reward_expectancy,2022.2.4,MacIntel,120.0048002,Chrome,1512,982,,,,,1,1006,,,,,,,,,,,,,,,,,W,160,triangle,1,0,,,,,,,,,,,,,,,,switch,letter,lettSwt,f,Lo,,,,,,0.641,4,,,,,,,,low,17,0,17,0,1,,,,,,,,,
294727,2022-10-07_24h33.09.047,vts_reward_expectancy,2022.2.4,MacIntel,120.0048002,Chrome,1512,982,,,,,0,1006,,,,,,,,,,,,,,,,,U,181,circle,1,0,,,,,,,,,,,,,,,,repeat,letter,lettRpt,f,Hi,,,,,,0.8118,4,,,,,,,,low,18,0,18,0,1,,,,,,,,,
294727,2022-10-07_24h33.09.047,vts_reward_expectancy,2022.2.4,MacIntel,120.0048002,Chrome,1512,982,,,,,1,1007,,,,,,,,,,,,,,,,,F,167,triangle,1,0,,,,,,,,,,,,,,,,switch,number,numSwt,k,Lo,,,,,,0.795,4,,,,,,,,low,19,0,19,0,1,,,,,,,,,
294727,2022-10-07_24h33.09.047,vts_reward_expectancy,2022.2.4,MacIntel,120.0048002,Chrome,1512,982,,,,,0,1007,,,,,,,,,,,,,,,,,B,125,circle,0,0,,,,,,,,,,,,,,,,switch,letter,NA,f,Lo,,,,,,0.4905,4,,,,,,,,low,20,0,20,0,1,,,,,,,,,
294727,2022-10-07_24h33.09.047,vts_reward_expectancy,2022.2.4,MacIntel,120.0048002,Chrome,1512,982,,,,,10,1017,,,,,,,,,,,,,,,,,Y,132,triangle,1,1,,,,,,,,,,,,,,,,repeat,letter,lettRpt,f,Lo,,,,,,0.9968,4,,,,,,,,low,21,0,21,0,1,,,,,,,,,
294727,2022-10-07_24h33.09.047,vts_reward_expectancy,2022.2.4,MacIntel,120.0048002,Chrome,1512,982,,,,,0,1017,,,,,,,,,,,,,,,,,H,146,circle,1,0,,,,,,,,,,,,,,,,repeat,letter,lettRpt,d,Hi,,,,,,0.6962,4,,,,,,,,low,22,0,22,0,1,,,,,,,,,
294727,2022-10-07_24h33.09.047,vts_reward_expectancy,2022.2.4,MacIntel,120.0048002,Chrome,1512,982,,,,,10,1027,,,,,,,,,,,,,,,,,S,139,triangle,1,0,,,,,,,,,,,,,,,,switch,number,numSwt,j,Lo,,,,,,0.4758,4,,,,,,,,low,23,0,23,0,1,,,,,,,,,
294727,2022-10-07_24h33.09.047,vts_reward_expectancy,2022.2.4,MacIntel,120.0048002,Chrome,1512,982,,,,,0,1027,,,,,,,,,,,,,,,,,W,167,circle,1,0,,,,,,,,,,,,,,,,repeat,number,numRpt,k,Hi,,,,,,1.1338,4,,,,,,,,low,24,0,24,0,1,,,,,,,,,
294727,2022-10-07_24h33.09.047,vts_reward_expectancy,2022.2.4,MacIntel,120.0048002,Chrome,1512,982,,,,,1,1028,,,,,,,,,,,,,,,,,F,174,triangle,1,0,,,,,,,,,,,,,,,,repeat,number,numRpt,k,Lo,,,,,,0.6314,4,,,,,,,,low,25,0,25,0,1,,,,,,,,,
294727,2022-10-07_24h33.09.047,vts_reward_expectancy,2022.2.4,MacIntel,120.0048002,Chrome,1512,982,,,,,0,1028,,,,,,,,,,,,,,,,,Y,132,triangle,0,0,,,,,,,,,,,,,,,,repeat,number,NA,k,Lo,,,,,,0.906,4,,,,,,,,low,26,0,26,0,1,,,,,,,,,
294727,2022-10-07_24h33.09.047,vts_reward_expectancy,2022.2.4,MacIntel,120.0048002,Chrome,1512,982,,,,,0,1028,,,,,,,,,,,,,,,,,D,139,circle,1,1,,,,,,,,,,,,,,,,repeat,number,numRpt,j,Hi,,,,,,0.6822,4,,,,,,,,low,27,0,27,0,1,,,,,,,,,
294727,2022-10-07_24h33.09.047,vts_reward_expectancy,2022.2.4,MacIntel,120.0048002,Chrome,1512,982,,,,,1,1029,,,,,,,,,,,,,,,,,S,160,triangle,1,0,,,,,,,,,,,,,,,,repeat,number,numRpt,k,Lo,,,,,,1.0242,4,,,,,,,,low,28,0,28,0,1,,,,,,,,,
294727,2022-10-07_24h33.09.047,vts_reward_expectancy,2022.2.4,MacIntel,120.0048002,Chrome,1512,982,,,,,0,1029,,,,,,,,,,,,,,,,,B,181,circle,1,0,,,,,,,,,,,,,,,,repeat,number,numRpt,k,Hi,,,,,,0.8473,4,,,,,,,,low,29,0,29,0,1,,,,,,,,,
294727,2022-10-07_24h33.09.047,vts_reward_expectancy,2022.2.4,MacIntel,120.0048002,Chrome,1512,982,,,,,10,1039,,,,,,,,,,,,,,,,,U,146,triangle,1,0,,,,,,,,,,,,,,,,switch,letter,lettSwt,f,Lo,,,,,,0.5933,4,,,,,,,,low,30,0,30,0,1,,,,,,,,,
294727,2022-10-07_24h33.09.047,vts_reward_expectancy,2022.2.4,MacIntel,120.0048002,Chrome,1512,982,,,,,0,1039,,,,,,,,,,,,,,,,,H,125,circle,1,0,,,,,,,,,,,,,,,,repeat,letter,lettRpt,d,Hi,,,,,,0.8835,4,,,,,,,,low,31,0,31,0,1,,,,,,,,,
294727,2022-10-07_24h33.09.047,vts_reward_expectancy,2022.2.4,MacIntel,120.0048002,Chrome,1512,982,,,,,0,1039,,,,,,,,,,,,,,,,,Y,132,hexagon,1,0,,,,,,,,,,,,,,,,repeat,letter,lettRpt,f,Hi,,,,,,0.8179,5,,,,,,space,0.546,high,0,0,0,0,1,,,,,,,,,
294727,2022-10-07_24h33.09.047,vts_reward_expectancy,2022.2.4,MacIntel,120.0048002,Chrome,1512,982,,,,,1,1040,,,,,,,,,,,,,,,,,D,125,star,1,0,,,,,,,,,,,,,,,,switch,number,numSwt,j,Lo,,,,,,0.7349,5,,,,,,,,high,1,0,1,0,1,,,,,,,,,
294727,2022-10-07_24h33.09.047,vts_reward_expectancy,2022.2.4,MacIntel,120.0048002,Chrome,1512,982,,,,,0,1040,,,,,,,,,,,,,,,,,S,174,hexagon,1,0,,,,,,,,,,,,,,,,repeat,number,numRpt,k,Hi,,,,,,0.7635,5,,,,,,,,high,2,0,2,0,1,,,,,,,,,
294727,2022-10-07_24h33.09.047,vts_reward_expectancy,2022.2.4,MacIntel,120.0048002,Chrome,1512,982,,,,,1,1041,,,,,,,,,,,,,,,,,H,139,star,1,0,,,,,,,,,,,,,,,,repeat,number,numRpt,j,Lo,,,,,,0.6087,5,,,,,,,,high,3,0,3,0,1,,,,,,,,,
294727,2022-10-07_24h33.09.047,vts_reward_expectancy,2022.2.4,MacIntel,120.0048002,Chrome,1512,982,,,,,10,1051,,,,,,,,,,,,,,,,,U,160,hexagon,1,0,,,,,,,,,,,,,,,,repeat,number,numRpt,k,Hi,,,,,,0.6601,5,,,,,,,,high,4,0,4,0,1,,,,,,,,,
294727,2022-10-07_24h33.09.047,vts_reward_expectancy,2022.2.4,MacIntel,120.0048002,Chrome,1512,982,,,,,1,1052,,,,,,,,,,,,,,,,,F,167,star,1,0,,,,,,,,,,,,,,,,repeat,number,numRpt,k,Lo,,,,,,0.7546,5,,,,,,,,high,5,0,5,0,1,,,,,,,,,
294727,2022-10-07_24h33.09.047,vts_reward_expectancy,2022.2.4,MacIntel,120.0048002,Chrome,1512,982,,,,,10,1062,,,,,,,,,,,,,,,,,W,146,star,1,0,,,,,,,,,,,,,,,,repeat,number,numRpt,j,Lo,,,,,,0.6246,5,,,,,,,,high,6,0,6,0,1,,,,,,,,,
294727,2022-10-07_24h33.09.047,vts_reward_expectancy,2022.2.4,MacIntel,120.0048002,Chrome,1512,982,,,,,10,1072,,,,,,,,,,,,,,,,,B,181,hexagon,1,0,,,,,,,,,,,,,,,,switch,letter,lettSwt,d,Hi,,,,,,0.4443,5,,,,,,,,high,7,0,7,0,1,,,,,,,,,
294727,2022-10-07_24h33.09.047,vts_reward_expectancy,2022.2.4,MacIntel,120.0048002,Chrome,1512,982,,,,,1,1073,,,,,,,,,,,,,,,,,Y,132,star,1,0,,,,,,,,,,,,,,,,repeat,letter,lettRpt,f,Lo,,,,,,0.5497,5,,,,,,,,high,8,0,8,0,1,,,,,,,,,
294727,2022-10-07_24h33.09.047,vts_reward_expectancy,2022.2.4,MacIntel,120.0048002,Chrome,1512,982,,,,,0,1073,,,,,,,,,,,,,,,,,D,125,hexagon,1,0,,,,,,,,,,,,,,,,switch,number,numSwt,j,Hi,,,,,,0.8895,5,,,,,,,,high,9,0,9,0,1,,,,,,,,,
294727,2022-10-07_24h33.09.047,vts_reward_expectancy,2022.2.4,MacIntel,120.0048002,Chrome,1512,982,,,,,10,1083,,,,,,,,,,,,,,,,,S,174,hexagon,1,0,,,,,,,,,,,,,,,,switch,letter,lettSwt,f,Hi,,,,,,0.5099,5,,,,,,,,high,10,0,10,0,1,,,,,,,,,
294727,2022-10-07_24h33.09.047,vts_reward_expectancy,2022.2.4,MacIntel,120.0048002,Chrome,1512,982,,,,,1,1084,,,,,,,,,,,,,,,,,H,139,star,1,0,,,,,,,,,,,,,,,,switch,number,numSwt,j,Lo,,,,,,0.5586,5,,,,,,,,high,11,0,11,0,1,,,,,,,,,
294727,2022-10-07_24h33.09.047,vts_reward_expectancy,2022.2.4,MacIntel,120.0048002,Chrome,1512,982,,,,,0,1084,,,,,,,,,,,,,,,,,U,160,hexagon,1,0,,,,,,,,,,,,,,,,switch,letter,lettSwt,f,Hi,,,,,,0.722,5,,,,,,,,high,12,0,12,0,1,,,,,,,,,
294727,2022-10-07_24h33.09.047,vts_reward_expectancy,2022.2.4,MacIntel,120.0048002,Chrome,1512,982,,,,,0,1084,,,,,,,,,,,,,,,,,F,167,star,0,0,,,,,,,,,,,,,,,,switch,number,NA,j,Hi,,,,,,0.5207,5,,,,,,,,high,13,0,13,0,1,,,,,,,,,
294727,2022-10-07_24h33.09.047,vts_reward_expectancy,2022.2.4,MacIntel,120.0048002,Chrome,1512,982,,,,,10,1094,,,,,,,,,,,,,,,,,W,146,star,1,1,,,,,,,,,,,,,,,,switch,letter,lettSwt,f,Lo,,,,,,0.7361,5,,,,,,,,high,14,0,14,0,1,,,,,,,,,
294727,2022-10-07_24h33.09.047,vts_reward_expectancy,2022.2.4,MacIntel,120.0048002,Chrome,1512,982,,,,,0,1094,,,,,,,,,,,,,,,,,B,181,hexagon,1,0,,,,,,,,,,,,,,,,switch,number,numSwt,k,Hi,,,,,,0.7328,5,,,,,,,,high,15,0,15,0,1,,,,,,,,,
294727,2022-10-07_24h33.09.047,vts_reward_expectancy,2022.2.4,MacIntel,120.0048002,Chrome,1512,982,,,,,0,1094,,,,,,,,,,,,,,,,,H,160,hexagon,0,0,,,,,,,,,,,,,,,,switch,letter,NA,f,Hi,,,,,,0.893,5,,,,,,,,high,16,0,16,0,1,,,,,,,,,
294727,2022-10-07_24h33.09.047,vts_reward_expectancy,2022.2.4,MacIntel,120.0048002,Chrome,1512,982,,,,,1,1095,,,,,,,,,,,,,,,,,F,125,star,1,1,,,,,,,,,,,,,,,,repeat,letter,lettRpt,d,Lo,,,,,,0.6857,5,,,,,,,,high,17,0,17,0,1,,,,,,,,,
294727,2022-10-07_24h33.09.047,vts_reward_expectancy,2022.2.4,MacIntel,120.0048002,Chrome,1512,982,,,,,0,1095,,,,,,,,,,,,,,,,,U,174,hexagon,0,0,,,,,,,,,,,,,,,,repeat,letter,NA,d,Lo,,,,,,0.5696,5,,,,,,,,high,18,0,18,0,1,,,,,,,,,
294727,2022-10-07_24h33.09.047,vts_reward_expectancy,2022.2.4,MacIntel,120.0048002,Chrome,1512,982,,,,,1,1096,,,,,,,,,,,,,,,,,S,181,star,1,1,,,,,,,,,,,,,,,,switch,number,numSwt,k,Lo,,,,,,0.9471,5,,,,,,,,high,19,0,19,0,1,,,,,,,,,
294727,2022-10-07_24h33.09.047,vts_reward_expectancy,2022.2.4,MacIntel,120.0048002,Chrome,1512,982,,,,,1,1097,,,,,,,,,,,,,,,,,W,167,star,1,0,,,,,,,,,,,,,,,,repeat,number,numRpt,k,Lo,,,,,,0.9762,5,,,,,,,,high,20,0,20,0,1,,,,,,,,,
294727,2022-10-07_24h33.09.047,vts_reward_expectancy,2022.2.4,MacIntel,120.0048002,Chrome,1512,982,,,,,0,1097,,,,,,,,,,,,,,,,,D,139,hexagon,1,0,,,,,,,,,,,,,,,,repeat,number,numRpt,j,Hi,,,,,,1.0378,5,,,,,,,,high,21,0,21,0,1,,,,,,,,,
294727,2022-10-07_24h33.09.047,vts_reward_expectancy,2022.2.4,MacIntel,120.0048002,Chrome,1512,982,,,,,1,1098,,,,,,,,,,,,,,,,,Y,146,star,1,0,,,,,,,,,,,,,,,,repeat,number,numRpt,j,Lo,,,,,,0.8162,5,,,,,,,,high,22,0,22,0,1,,,,,,,,,
294727,2022-10-07_24h33.09.047,vts_reward_expectancy,2022.2.4,MacIntel,120.0048002,Chrome,1512,982,,,,,1,1099,,,,,,,,,,,,,,,,,B,132,hexagon,1,0,,,,,,,,,,,,,,,,switch,letter,lettSwt,d,Hi,,,,,,0.5489,5,,,,,,,,high,23,0,23,0,1,,,,,,,,,
294727,2022-10-07_24h33.09.047,vts_reward_expectancy,2022.2.4,MacIntel,120.0048002,Chrome,1512,982,,,,,1,1100,,,,,,,,,,,,,,,,,W,132,star,1,0,,,,,,,,,,,,,,,,repeat,letter,lettRpt,f,Lo,,,,,,0.623,5,,,,,,,,high,24,0,24,0,1,,,,,,,,,
294727,2022-10-07_24h33.09.047,vts_reward_expectancy,2022.2.4,MacIntel,120.0048002,Chrome,1512,982,,,,,0,1100,,,,,,,,,,,,,,,,,B,160,hexagon,1,0,,,,,,,,,,,,,,,,repeat,letter,lettRpt,d,Hi,,,,,,0.9007,5,,,,,,,,high,25,0,25,0,1,,,,,,,,,
294727,2022-10-07_24h33.09.047,vts_reward_expectancy,2022.2.4,MacIntel,120.0048002,Chrome,1512,982,,,,,0,1100,,,,,,,,,,,,,,,,,F,167,hexagon,1,0,,,,,,,,,,,,,,,,repeat,letter,lettRpt,d,Hi,,,,,,0.7693,5,,,,,,,,high,26,0,26,0,1,,,,,,,,,
294727,2022-10-07_24h33.09.047,vts_reward_expectancy,2022.2.4,MacIntel,120.0048002,Chrome,1512,982,,,,,1,1101,,,,,,,,,,,,,,,,,D,146,star,1,0,,,,,,,,,,,,,,,,repeat,letter,lettRpt,d,Lo,,,,,,0.7587,5,,,,,,,,high,27,0,27,0,1,,,,,,,,,
294727,2022-10-07_24h33.09.047,vts_reward_expectancy,2022.2.4,MacIntel,120.0048002,Chrome,1512,982,,,,,1,1102,,,,,,,,,,,,,,,,,Y,139,star,1,0,,,,,,,,,,,,,,,,switch,number,numSwt,j,Lo,,,,,,0.7487,5,,,,,,,,high,28,0,28,0,1,,,,,,,,,
294727,2022-10-07_24h33.09.047,vts_reward_expectancy,2022.2.4,MacIntel,120.0048002,Chrome,1512,982,,,,,0,1102,,,,,,,,,,,,,,,,,U,125,hexagon,1,0,,,,,,,,,,,,,,,,repeat,number,numRpt,j,Hi,,,,,,1.1119,5,,,,,,,,high,29,0,29,0,1,,,,,,,,,
294727,2022-10-07_24h33.09.047,vts_reward_expectancy,2022.2.4,MacIntel,120.0048002,Chrome,1512,982,,,,,1,1103,,,,,,,,,,,,,,,,,H,181,star,1,0,,,,,,,,,,,,,,,,repeat,number,numRpt,k,Lo,,,,,,1.0002,5,,,,,,,,high,30,0,30,0,1,,,,,,,,,
294727,2022-10-07_24h33.09.047,vts_reward_expectancy,2022.2.4,MacIntel,120.0048002,Chrome,1512,982,,,,,0,1103,,,,,,,,,,,,,,,,,S,174,hexagon,1,0,,,,,,,,,,,,,,,,repeat,number,numRpt,k,Hi,,,,,,1.0785,5,,,,,,,,high,31,0,31,0,1,,,,,,,,,
294727,2022-10-07_24h33.09.047,vts_reward_expectancy,2022.2.4,MacIntel,120.0048002,Chrome,1512,982,,,,,,,,,,,,,,,,,,,,,,,,,,,,,,,,,,,,,,,,,,,,,,,,,,,,,,6,,,,,,,,,,,,,,pick D for letter closer A. Pick F for letters closer to Z. Pick J for numbers less than 153. Pick K for numbers greater than 153,1,,3,2,,2,813,945
