participant,date,expName,psychopyVersion,OS,frameRate,browser,xResolution,yResolution,key_resp.keys,key_resp.rt,training_resp.keys,training_resp.rt,points_trial,points_cumul,trainBlock,training.thisRepN,training.thisTrialN,training.thisN,training.thisIndex,training.ran,LTriangleOpac,LCircleOpac,LHexagonOpac,LStarOpac,RTriangleOpac,RCircleOpac,RHexagonOpac,RStarOpac,LShape_ID,RShape_ID,curr_topStim,curr_bottStim,curr_shape,acc,E1,target_resp_prac1.keys,target_resp_prac1.rt,pracBlock,task1_prac_trials.thisRepN,task1_prac_trials.thisTrialN,task1_prac_trials.thisN,task1_prac_trials.thisIndex,task1_prac_trials.ran,target_resp_prac2.keys,target_resp_prac2.rt,task2_praac_trials.thisRepN,task2_praac_trials.thisTrialN,task2_praac_trials.thisN,task2_praac_trials.thisIndex,task2_praac_trials.ran,alt,task,condition,target_resp.keys,target_resp.rt,rewCond,vts_practice_trials.thisRepN,vts_practice_trials.thisTrialN,vts_practice_trials.thisN,vts_practice_trials.thisIndex,vts_practice_trials.ran,blockNum,trials_norew.thisRepN,trials_norew.thisTrialN,trials_norew.thisN,trials_norew.thisIndex,trials_norew.ran,key_resp_2.keys,key_resp_2.rt,rewExpect,trials_rew.thisRepN,trials_rew.thisTrialN,trials_rew.thisN,trials_rew.thisIndex,trials_rew.ran,Q1,Q2,Q2_text,Q3,Q4,Q5_text,Q5,xRes,yRes
297208,2022-10-07_12h50.19.165,vts_reward_expectancy,2022.2.4,MacIntel,60.0024001,Chrome,1440,900,,,,,,,,,,,,,,,,,,,,,,,,,,,,,,,,,,,,,,,,,,,,,,,,,,,,,,,,,,,,,,,,,,,,,,,,,,,,
297208,2022-10-07_12h50.19.165,vts_reward_expectancy,2022.2.4,MacIntel,60.0024001,Chrome,1440,900,space,1.8068,,,,,,,,,,,,,,,,,,,,,,,,,,,,,,,,,,,,,,,,,,,,,,,,,,,,,,,,,,,,,,,,,,,,,,,,,,
297208,2022-10-07_12h50.19.165,vts_reward_expectancy,2022.2.4,MacIntel,60.0024001,Chrome,1440,900,,,,,,,,,,,,,,,,,,,,,,,,,,,,,,,,,,,,,,,,,,,,,,,,,,,,,,,,,,,,,,,,,,,,,,,,,,,,
297208,2022-10-07_12h50.19.165,vts_reward_expectancy,2022.2.4,MacIntel,60.0024001,Chrome,1440,900,,,l,3.1088,1,1,0,0,0,0,1,1,1,0,0,0,0,0,1,0,triangle,hexagon,,,,,,,,,,,,,,,,,,,,,,,,,,,,,,,,,,,,,,,,,,,,,,,,,,,,,,
297208,2022-10-07_12h50.19.165,vts_reward_expectancy,2022.2.4,MacIntel,60.0024001,Chrome,1440,900,,,l,0.7731,1,2,0,0,1,1,9,1,0,0,0,1,1,0,0,0,star,triangle,,,,,,,,,,,,,,,,,,,,,,,,,,,,,,,,,,,,,,,,,,,,,,,,,,,,,,
297208,2022-10-07_12h50.19.165,vts_reward_expectancy,2022.2.4,MacIntel,60.0024001,Chrome,1440,900,,,a,0.8018,10,12,0,0,2,2,8,1,0,0,1,0,0,0,0,1,hexagon,star,,,,,,,,,,,,,,,,,,,,,,,,,,,,,,,,,,,,,,,,,,,,,,,,,,,,,,
297208,2022-10-07_12h50.19.165,vts_reward_expectancy,2022.2.4,MacIntel,60.0024001,Chrome,1440,900,,,l,1.1253,10,22,0,0,3,3,2,1,1,0,0,0,0,0,0,1,triangle,star,,,,,,,,,,,,,,,,,,,,,,,,,,,,,,,,,,,,,,,,,,,,,,,,,,,,,,
297208,2022-10-07_12h50.19.165,vts_reward_expectancy,2022.2.4,MacIntel,60.0024001,Chrome,1440,900,,,a,1.7844,10,32,0,0,4,4,11,1,0,0,0,1,0,0,1,0,star,hexagon,,,,,,,,,,,,,,,,,,,,,,,,,,,,,,,,,,,,,,,,,,,,,,,,,,,,,,
297208,2022-10-07_12h50.19.165,vts_reward_expectancy,2022.2.4,MacIntel,60.0024001,Chrome,1440,900,,,a,1.0899,1,33,0,0,5,5,7,1,0,0,1,0,0,1,0,0,hexagon,circle,,,,,,,,,,,,,,,,,,,,,,,,,,,,,,,,,,,,,,,,,,,,,,,,,,,,,,
297208,2022-10-07_12h50.19.165,vts_reward_expectancy,2022.2.4,MacIntel,60.0024001,Chrome,1440,900,,,l,1.8205,10,43,0,0,6,6,6,1,0,0,1,0,1,0,0,0,hexagon,triangle,,,,,,,,,,,,,,,,,,,,,,,,,,,,,,,,,,,,,,,,,,,,,,,,,,,,,,
297208,2022-10-07_12h50.19.165,vts_reward_expectancy,2022.2.4,MacIntel,60.0024001,Chrome,1440,900,,,l,0.9475,10,53,0,0,7,7,4,1,0,1,0,0,0,0,1,0,circle,hexagon,,,,,,,,,,,,,,,,,,,,,,,,,,,,,,,,,,,,,,,,,,,,,,,,,,,,,,
297208,2022-10-07_12h50.19.165,vts_reward_expectancy,2022.2.4,MacIntel,60.0024001,Chrome,1440,900,,,l,0.82,10,63,0,0,8,8,5,1,0,1,0,0,0,0,0,1,circle,star,,,,,,,,,,,,,,,,,,,,,,,,,,,,,,,,,,,,,,,,,,,,,,,,,,,,,,
297208,2022-10-07_12h50.19.165,vts_reward_expectancy,2022.2.4,MacIntel,60.0024001,Chrome,1440,900,,,l,1.8318,10,73,0,0,9,9,10,1,0,0,0,1,0,1,0,0,star ,circle,,,,,,,,,,,,,,,,,,,,,,,,,,,,,,,,,,,,,,,,,,,,,,,,,,,,,,
297208,2022-10-07_12h50.19.165,vts_reward_expectancy,2022.2.4,MacIntel,60.0024001,Chrome,1440,900,,,a,0.9831,10,83,0,0,10,10,0,1,1,0,0,0,0,1,0,0,triangle,circle,,,,,,,,,,,,,,,,,,,,,,,,,,,,,,,,,,,,,,,,,,,,,,,,,,,,,,
297208,2022-10-07_12h50.19.165,vts_reward_expectancy,2022.2.4,MacIntel,60.0024001,Chrome,1440,900,,,l,1.7251,1,84,0,0,11,11,3,1,0,1,0,0,1,0,0,0,circle,triangle,,,,,,,,,,,,,,,,,,,,,,,,,,,,,,,,,,,,,,,,,,,,,,,,,,,,,,
297208,2022-10-07_12h50.19.165,vts_reward_expectancy,2022.2.4,MacIntel,60.0024001,Chrome,1440,900,,,a,0.8642,1,85,0,1,0,12,6,1,0,0,1,0,1,0,0,0,hexagon,triangle,,,,,,,,,,,,,,,,,,,,,,,,,,,,,,,,,,,,,,,,,,,,,,,,,,,,,,
297208,2022-10-07_12h50.19.165,vts_reward_expectancy,2022.2.4,MacIntel,60.0024001,Chrome,1440,900,,,a,0.9019,10,95,0,1,1,13,9,1,0,0,0,1,1,0,0,0,star,triangle,,,,,,,,,,,,,,,,,,,,,,,,,,,,,,,,,,,,,,,,,,,,,,,,,,,,,,
297208,2022-10-07_12h50.19.165,vts_reward_expectancy,2022.2.4,MacIntel,60.0024001,Chrome,1440,900,,,a,1.0687,10,105,0,1,2,14,10,1,0,0,0,1,0,1,0,0,star ,circle,,,,,,,,,,,,,,,,,,,,,,,,,,,,,,,,,,,,,,,,,,,,,,,,,,,,,,
297208,2022-10-07_12h50.19.165,vts_reward_expectancy,2022.2.4,MacIntel,60.0024001,Chrome,1440,900,,,l,0.7716,10,115,0,1,3,15,0,1,1,0,0,0,0,1,0,0,triangle,circle,,,,,,,,,,,,,,,,,,,,,,,,,,,,,,,,,,,,,,,,,,,,,,,,,,,,,,
297208,2022-10-07_12h50.19.165,vts_reward_expectancy,2022.2.4,MacIntel,60.0024001,Chrome,1440,900,,,l,1.4846,1,116,0,1,4,16,3,1,0,1,0,0,1,0,0,0,circle,triangle,,,,,,,,,,,,,,,,,,,,,,,,,,,,,,,,,,,,,,,,,,,,,,,,,,,,,,
297208,2022-10-07_12h50.19.165,vts_reward_expectancy,2022.2.4,MacIntel,60.0024001,Chrome,1440,900,,,l,0.8282,10,126,0,1,5,17,8,1,0,0,1,0,0,0,0,1,hexagon,star,,,,,,,,,,,,,,,,,,,,,,,,,,,,,,,,,,,,,,,,,,,,,,,,,,,,,,
297208,2022-10-07_12h50.19.165,vts_reward_expectancy,2022.2.4,MacIntel,60.0024001,Chrome,1440,900,,,l,3.5105,10,136,0,1,6,18,2,1,1,0,0,0,0,0,0,1,triangle,star,,,,,,,,,,,,,,,,,,,,,,,,,,,,,,,,,,,,,,,,,,,,,,,,,,,,,,
297208,2022-10-07_12h50.19.165,vts_reward_expectancy,2022.2.4,MacIntel,60.0024001,Chrome,1440,900,,,a,0.9502,1,137,0,1,7,19,11,1,0,0,0,1,0,0,1,0,star,hexagon,,,,,,,,,,,,,,,,,,,,,,,,,,,,,,,,,,,,,,,,,,,,,,,,,,,,,,
297208,2022-10-07_12h50.19.165,vts_reward_expectancy,2022.2.4,MacIntel,60.0024001,Chrome,1440,900,,,l,2.3442,1,138,0,1,8,20,5,1,0,1,0,0,0,0,0,1,circle,star,,,,,,,,,,,,,,,,,,,,,,,,,,,,,,,,,,,,,,,,,,,,,,,,,,,,,,
297208,2022-10-07_12h50.19.165,vts_reward_expectancy,2022.2.4,MacIntel,60.0024001,Chrome,1440,900,,,a,1.8636,1,139,0,1,9,21,7,1,0,0,1,0,0,1,0,0,hexagon,circle,,,,,,,,,,,,,,,,,,,,,,,,,,,,,,,,,,,,,,,,,,,,,,,,,,,,,,
297208,2022-10-07_12h50.19.165,vts_reward_expectancy,2022.2.4,MacIntel,60.0024001,Chrome,1440,900,,,l,0.5565,1,140,0,1,10,22,1,1,1,0,0,0,0,0,1,0,triangle,hexagon,,,,,,,,,,,,,,,,,,,,,,,,,,,,,,,,,,,,,,,,,,,,,,,,,,,,,,
297208,2022-10-07_12h50.19.165,vts_reward_expectancy,2022.2.4,MacIntel,60.0024001,Chrome,1440,900,,,a,0.5902,10,150,0,1,11,23,4,1,0,1,0,0,0,0,1,0,circle,hexagon,,,,,,,,,,,,,,,,,,,,,,,,,,,,,,,,,,,,,,,,,,,,,,,,,,,,,,
297208,2022-10-07_12h50.19.165,vts_reward_expectancy,2022.2.4,MacIntel,60.0024001,Chrome,1440,900,,,l,0.5021,1,151,0,2,0,24,6,1,0,0,1,0,1,0,0,0,hexagon,triangle,,,,,,,,,,,,,,,,,,,,,,,,,,,,,,,,,,,,,,,,,,,,,,,,,,,,,,
297208,2022-10-07_12h50.19.165,vts_reward_expectancy,2022.2.4,MacIntel,60.0024001,Chrome,1440,900,,,a,0.5294,10,161,0,2,1,25,3,1,0,1,0,0,1,0,0,0,circle,triangle,,,,,,,,,,,,,,,,,,,,,,,,,,,,,,,,,,,,,,,,,,,,,,,,,,,,,,
297208,2022-10-07_12h50.19.165,vts_reward_expectancy,2022.2.4,MacIntel,60.0024001,Chrome,1440,900,,,l,0.7093,10,171,0,2,2,26,2,1,1,0,0,0,0,0,0,1,triangle,star,,,,,,,,,,,,,,,,,,,,,,,,,,,,,,,,,,,,,,,,,,,,,,,,,,,,,,
297208,2022-10-07_12h50.19.165,vts_reward_expectancy,2022.2.4,MacIntel,60.0024001,Chrome,1440,900,,,l,0.8696,1,172,0,2,3,27,4,1,0,1,0,0,0,0,1,0,circle,hexagon,,,,,,,,,,,,,,,,,,,,,,,,,,,,,,,,,,,,,,,,,,,,,,,,,,,,,,
297208,2022-10-07_12h50.19.165,vts_reward_expectancy,2022.2.4,MacIntel,60.0024001,Chrome,1440,900,,,a,0.882,1,173,0,2,4,28,10,1,0,0,0,1,0,1,0,0,star ,circle,,,,,,,,,,,,,,,,,,,,,,,,,,,,,,,,,,,,,,,,,,,,,,,,,,,,,,
297208,2022-10-07_12h50.19.165,vts_reward_expectancy,2022.2.4,MacIntel,60.0024001,Chrome,1440,900,,,l,1.0225,10,183,0,2,5,29,8,1,0,0,1,0,0,0,0,1,hexagon,star,,,,,,,,,,,,,,,,,,,,,,,,,,,,,,,,,,,,,,,,,,,,,,,,,,,,,,
297208,2022-10-07_12h50.19.165,vts_reward_expectancy,2022.2.4,MacIntel,60.0024001,Chrome,1440,900,,,l,1.1773,1,184,0,2,6,30,1,1,1,0,0,0,0,0,1,0,triangle,hexagon,,,,,,,,,,,,,,,,,,,,,,,,,,,,,,,,,,,,,,,,,,,,,,,,,,,,,,
297208,2022-10-07_12h50.19.165,vts_reward_expectancy,2022.2.4,MacIntel,60.0024001,Chrome,1440,900,,,l,1.3181,1,185,0,2,7,31,5,1,0,1,0,0,0,0,0,1,circle,star,,,,,,,,,,,,,,,,,,,,,,,,,,,,,,,,,,,,,,,,,,,,,,,,,,,,,,
297208,2022-10-07_12h50.19.165,vts_reward_expectancy,2022.2.4,MacIntel,60.0024001,Chrome,1440,900,,,a,2.7012,1,186,0,2,8,32,0,1,1,0,0,0,0,1,0,0,triangle,circle,,,,,,,,,,,,,,,,,,,,,,,,,,,,,,,,,,,,,,,,,,,,,,,,,,,,,,
297208,2022-10-07_12h50.19.165,vts_reward_expectancy,2022.2.4,MacIntel,60.0024001,Chrome,1440,900,,,a,79.3284,1,187,0,2,9,33,11,1,0,0,0,1,0,0,1,0,star,hexagon,,,,,,,,,,,,,,,,,,,,,,,,,,,,,,,,,,,,,,,,,,,,,,,,,,,,,,
297208,2022-10-07_12h50.19.165,vts_reward_expectancy,2022.2.4,MacIntel,60.0024001,Chrome,1440,900,,,a,0.7524,1,188,0,2,10,34,9,1,0,0,0,1,1,0,0,0,star,triangle,,,,,,,,,,,,,,,,,,,,,,,,,,,,,,,,,,,,,,,,,,,,,,,,,,,,,,
297208,2022-10-07_12h50.19.165,vts_reward_expectancy,2022.2.4,MacIntel,60.0024001,Chrome,1440,900,,,l,0.9805,10,198,0,2,11,35,7,1,0,0,1,0,0,1,0,0,hexagon,circle,,,,,,,,,,,,,,,,,,,,,,,,,,,,,,,,,,,,,,,,,,,,,,,,,,,,,,
297208,2022-10-07_12h50.19.165,vts_reward_expectancy,2022.2.4,MacIntel,60.0024001,Chrome,1440,900,,,l,1.1228,10,208,1,0,0,0,5,1,0,1,0,0,0,0,0,1,circle,star,,,,,,,,,,,,,,,,,,,,,,,,,,,,,,,,,,,,,,,,,,,,,,,,,,,,,,
297208,2022-10-07_12h50.19.165,vts_reward_expectancy,2022.2.4,MacIntel,60.0024001,Chrome,1440,900,,,a,1.0579,10,218,1,0,1,1,10,1,0,0,0,1,0,1,0,0,star ,circle,,,,,,,,,,,,,,,,,,,,,,,,,,,,,,,,,,,,,,,,,,,,,,,,,,,,,,
297208,2022-10-07_12h50.19.165,vts_reward_expectancy,2022.2.4,MacIntel,60.0024001,Chrome,1440,900,,,l,1.0228,10,228,1,0,2,2,0,1,1,0,0,0,0,1,0,0,triangle,circle,,,,,,,,,,,,,,,,,,,,,,,,,,,,,,,,,,,,,,,,,,,,,,,,,,,,,,
297208,2022-10-07_12h50.19.165,vts_reward_expectancy,2022.2.4,MacIntel,60.0024001,Chrome,1440,900,,,l,2.1436,1,229,1,0,3,3,8,1,0,0,1,0,0,0,0,1,hexagon,star,,,,,,,,,,,,,,,,,,,,,,,,,,,,,,,,,,,,,,,,,,,,,,,,,,,,,,
297208,2022-10-07_12h50.19.165,vts_reward_expectancy,2022.2.4,MacIntel,60.0024001,Chrome,1440,900,,,l,1.2942,1,230,1,0,4,4,1,1,1,0,0,0,0,0,1,0,triangle,hexagon,,,,,,,,,,,,,,,,,,,,,,,,,,,,,,,,,,,,,,,,,,,,,,,,,,,,,,
297208,2022-10-07_12h50.19.165,vts_reward_expectancy,2022.2.4,MacIntel,60.0024001,Chrome,1440,900,,,a,0.541,1,231,1,0,5,5,7,1,0,0,1,0,0,1,0,0,hexagon,circle,,,,,,,,,,,,,,,,,,,,,,,,,,,,,,,,,,,,,,,,,,,,,,,,,,,,,,
297208,2022-10-07_12h50.19.165,vts_reward_expectancy,2022.2.4,MacIntel,60.0024001,Chrome,1440,900,,,l,0.9133,10,241,1,0,6,6,2,1,1,0,0,0,0,0,0,1,triangle,star,,,,,,,,,,,,,,,,,,,,,,,,,,,,,,,,,,,,,,,,,,,,,,,,,,,,,,
297208,2022-10-07_12h50.19.165,vts_reward_expectancy,2022.2.4,MacIntel,60.0024001,Chrome,1440,900,,,a,0.9487,1,242,1,0,7,7,9,1,0,0,0,1,1,0,0,0,star,triangle,,,,,,,,,,,,,,,,,,,,,,,,,,,,,,,,,,,,,,,,,,,,,,,,,,,,,,
297208,2022-10-07_12h50.19.165,vts_reward_expectancy,2022.2.4,MacIntel,60.0024001,Chrome,1440,900,,,l,1.3866,1,243,1,0,8,8,4,1,0,1,0,0,0,0,1,0,circle,hexagon,,,,,,,,,,,,,,,,,,,,,,,,,,,,,,,,,,,,,,,,,,,,,,,,,,,,,,
297208,2022-10-07_12h50.19.165,vts_reward_expectancy,2022.2.4,MacIntel,60.0024001,Chrome,1440,900,,,l,0.9555,10,253,1,0,9,9,6,1,0,0,1,0,1,0,0,0,hexagon,triangle,,,,,,,,,,,,,,,,,,,,,,,,,,,,,,,,,,,,,,,,,,,,,,,,,,,,,,
297208,2022-10-07_12h50.19.165,vts_reward_expectancy,2022.2.4,MacIntel,60.0024001,Chrome,1440,900,,,a,0.8215,1,254,1,0,10,10,11,1,0,0,0,1,0,0,1,0,star,hexagon,,,,,,,,,,,,,,,,,,,,,,,,,,,,,,,,,,,,,,,,,,,,,,,,,,,,,,
297208,2022-10-07_12h50.19.165,vts_reward_expectancy,2022.2.4,MacIntel,60.0024001,Chrome,1440,900,,,l,1.5372,10,264,1,0,11,11,3,1,0,1,0,0,1,0,0,0,circle,triangle,,,,,,,,,,,,,,,,,,,,,,,,,,,,,,,,,,,,,,,,,,,,,,,,,,,,,,
297208,2022-10-07_12h50.19.165,vts_reward_expectancy,2022.2.4,MacIntel,60.0024001,Chrome,1440,900,,,l,0.79,10,274,1,1,0,12,6,1,0,0,1,0,1,0,0,0,hexagon,triangle,,,,,,,,,,,,,,,,,,,,,,,,,,,,,,,,,,,,,,,,,,,,,,,,,,,,,,
297208,2022-10-07_12h50.19.165,vts_reward_expectancy,2022.2.4,MacIntel,60.0024001,Chrome,1440,900,,,a,0.6895,1,275,1,1,1,13,9,1,0,0,0,1,1,0,0,0,star,triangle,,,,,,,,,,,,,,,,,,,,,,,,,,,,,,,,,,,,,,,,,,,,,,,,,,,,,,
297208,2022-10-07_12h50.19.165,vts_reward_expectancy,2022.2.4,MacIntel,60.0024001,Chrome,1440,900,,,l,0.4505,1,276,1,1,2,14,1,1,1,0,0,0,0,0,1,0,triangle,hexagon,,,,,,,,,,,,,,,,,,,,,,,,,,,,,,,,,,,,,,,,,,,,,,,,,,,,,,
297208,2022-10-07_12h50.19.165,vts_reward_expectancy,2022.2.4,MacIntel,60.0024001,Chrome,1440,900,,,l,0.5352,10,286,1,1,3,15,2,1,1,0,0,0,0,0,0,1,triangle,star,,,,,,,,,,,,,,,,,,,,,,,,,,,,,,,,,,,,,,,,,,,,,,,,,,,,,,
297208,2022-10-07_12h50.19.165,vts_reward_expectancy,2022.2.4,MacIntel,60.0024001,Chrome,1440,900,,,l,0.7699,10,296,1,1,4,16,8,1,0,0,1,0,0,0,0,1,hexagon,star,,,,,,,,,,,,,,,,,,,,,,,,,,,,,,,,,,,,,,,,,,,,,,,,,,,,,,
297208,2022-10-07_12h50.19.165,vts_reward_expectancy,2022.2.4,MacIntel,60.0024001,Chrome,1440,900,,,l,1.0781,10,306,1,1,5,17,10,1,0,0,0,1,0,1,0,0,star ,circle,,,,,,,,,,,,,,,,,,,,,,,,,,,,,,,,,,,,,,,,,,,,,,,,,,,,,,
297208,2022-10-07_12h50.19.165,vts_reward_expectancy,2022.2.4,MacIntel,60.0024001,Chrome,1440,900,,,a,1.3042,10,316,1,1,6,18,3,1,0,1,0,0,1,0,0,0,circle,triangle,,,,,,,,,,,,,,,,,,,,,,,,,,,,,,,,,,,,,,,,,,,,,,,,,,,,,,
297208,2022-10-07_12h50.19.165,vts_reward_expectancy,2022.2.4,MacIntel,60.0024001,Chrome,1440,900,,,l,1.077,10,326,1,1,7,19,7,1,0,0,1,0,0,1,0,0,hexagon,circle,,,,,,,,,,,,,,,,,,,,,,,,,,,,,,,,,,,,,,,,,,,,,,,,,,,,,,
297208,2022-10-07_12h50.19.165,vts_reward_expectancy,2022.2.4,MacIntel,60.0024001,Chrome,1440,900,,,l,2.104,10,336,1,1,8,20,0,1,1,0,0,0,0,1,0,0,triangle,circle,,,,,,,,,,,,,,,,,,,,,,,,,,,,,,,,,,,,,,,,,,,,,,,,,,,,,,
297208,2022-10-07_12h50.19.165,vts_reward_expectancy,2022.2.4,MacIntel,60.0024001,Chrome,1440,900,,,a,1.0393,10,346,1,1,9,21,5,1,0,1,0,0,0,0,0,1,circle,star,,,,,,,,,,,,,,,,,,,,,,,,,,,,,,,,,,,,,,,,,,,,,,,,,,,,,,
297208,2022-10-07_12h50.19.165,vts_reward_expectancy,2022.2.4,MacIntel,60.0024001,Chrome,1440,900,,,a,1.9633,1,347,1,1,10,22,11,1,0,0,0,1,0,0,1,0,star,hexagon,,,,,,,,,,,,,,,,,,,,,,,,,,,,,,,,,,,,,,,,,,,,,,,,,,,,,,
297208,2022-10-07_12h50.19.165,vts_reward_expectancy,2022.2.4,MacIntel,60.0024001,Chrome,1440,900,,,a,1.0244,1,348,1,1,11,23,4,1,0,1,0,0,0,0,1,0,circle,hexagon,,,,,,,,,,,,,,,,,,,,,,,,,,,,,,,,,,,,,,,,,,,,,,,,,,,,,,
297208,2022-10-07_12h50.19.165,vts_reward_expectancy,2022.2.4,MacIntel,60.0024001,Chrome,1440,900,,,l,12.7479,10,358,1,2,0,24,2,1,1,0,0,0,0,0,0,1,triangle,star,,,,,,,,,,,,,,,,,,,,,,,,,,,,,,,,,,,,,,,,,,,,,,,,,,,,,,
297208,2022-10-07_12h50.19.165,vts_reward_expectancy,2022.2.4,MacIntel,60.0024001,Chrome,1440,900,,,l,1.1455,10,368,1,2,1,25,0,1,1,0,0,0,0,1,0,0,triangle,circle,,,,,,,,,,,,,,,,,,,,,,,,,,,,,,,,,,,,,,,,,,,,,,,,,,,,,,
297208,2022-10-07_12h50.19.165,vts_reward_expectancy,2022.2.4,MacIntel,60.0024001,Chrome,1440,900,,,a,0.703,10,378,1,2,2,26,10,1,0,0,0,1,0,1,0,0,star ,circle,,,,,,,,,,,,,,,,,,,,,,,,,,,,,,,,,,,,,,,,,,,,,,,,,,,,,,
297208,2022-10-07_12h50.19.165,vts_reward_expectancy,2022.2.4,MacIntel,60.0024001,Chrome,1440,900,,,a,1.0894,10,388,1,2,3,27,1,1,1,0,0,0,0,0,1,0,triangle,hexagon,,,,,,,,,,,,,,,,,,,,,,,,,,,,,,,,,,,,,,,,,,,,,,,,,,,,,,
297208,2022-10-07_12h50.19.165,vts_reward_expectancy,2022.2.4,MacIntel,60.0024001,Chrome,1440,900,,,l,1.0734,10,398,1,2,4,28,7,1,0,0,1,0,0,1,0,0,hexagon,circle,,,,,,,,,,,,,,,,,,,,,,,,,,,,,,,,,,,,,,,,,,,,,,,,,,,,,,
297208,2022-10-07_12h50.19.165,vts_reward_expectancy,2022.2.4,MacIntel,60.0024001,Chrome,1440,900,,,a,1.5776,1,399,1,2,5,29,8,1,0,0,1,0,0,0,0,1,hexagon,star,,,,,,,,,,,,,,,,,,,,,,,,,,,,,,,,,,,,,,,,,,,,,,,,,,,,,,
297208,2022-10-07_12h50.19.165,vts_reward_expectancy,2022.2.4,MacIntel,60.0024001,Chrome,1440,900,,,l,0.997,1,400,1,2,6,30,6,1,0,0,1,0,1,0,0,0,hexagon,triangle,,,,,,,,,,,,,,,,,,,,,,,,,,,,,,,,,,,,,,,,,,,,,,,,,,,,,,
297208,2022-10-07_12h50.19.165,vts_reward_expectancy,2022.2.4,MacIntel,60.0024001,Chrome,1440,900,,,a,4.626,10,410,1,2,7,31,4,1,0,1,0,0,0,0,1,0,circle,hexagon,,,,,,,,,,,,,,,,,,,,,,,,,,,,,,,,,,,,,,,,,,,,,,,,,,,,,,
297208,2022-10-07_12h50.19.165,vts_reward_expectancy,2022.2.4,MacIntel,60.0024001,Chrome,1440,900,,,l,1.3196,1,411,1,2,8,32,11,1,0,0,0,1,0,0,1,0,star,hexagon,,,,,,,,,,,,,,,,,,,,,,,,,,,,,,,,,,,,,,,,,,,,,,,,,,,,,,
297208,2022-10-07_12h50.19.165,vts_reward_expectancy,2022.2.4,MacIntel,60.0024001,Chrome,1440,900,,,a,0.5848,1,412,1,2,9,33,9,1,0,0,0,1,1,0,0,0,star,triangle,,,,,,,,,,,,,,,,,,,,,,,,,,,,,,,,,,,,,,,,,,,,,,,,,,,,,,
297208,2022-10-07_12h50.19.165,vts_reward_expectancy,2022.2.4,MacIntel,60.0024001,Chrome,1440,900,,,l,0.6461,10,422,1,2,10,34,5,1,0,1,0,0,0,0,0,1,circle,star,,,,,,,,,,,,,,,,,,,,,,,,,,,,,,,,,,,,,,,,,,,,,,,,,,,,,,
297208,2022-10-07_12h50.19.165,vts_reward_expectancy,2022.2.4,MacIntel,60.0024001,Chrome,1440,900,,,a,0.915,10,432,1,2,11,35,3,1,0,1,0,0,1,0,0,0,circle,triangle,,,,,,,,,,,,,,,,,,,,,,,,,,,,,,,,,,,,,,,,,,,,,,,,,,,,,,
297208,2022-10-07_12h50.19.165,vts_reward_expectancy,2022.2.4,MacIntel,60.0024001,Chrome,1440,900,,,a,1.1516,10,442,2,0,0,0,9,1,0,0,0,1,1,0,0,0,star,triangle,,,,,,,,,,,,,,,,,,,,,,,,,,,,,,,,,,,,,,,,,,,,,,,,,,,,,,
297208,2022-10-07_12h50.19.165,vts_reward_expectancy,2022.2.4,MacIntel,60.0024001,Chrome,1440,900,,,l,1.0695,1,443,2,0,1,1,11,1,0,0,0,1,0,0,1,0,star,hexagon,,,,,,,,,,,,,,,,,,,,,,,,,,,,,,,,,,,,,,,,,,,,,,,,,,,,,,
297208,2022-10-07_12h50.19.165,vts_reward_expectancy,2022.2.4,MacIntel,60.0024001,Chrome,1440,900,,,l,0.8238,10,453,2,0,2,2,1,1,1,0,0,0,0,0,1,0,triangle,hexagon,,,,,,,,,,,,,,,,,,,,,,,,,,,,,,,,,,,,,,,,,,,,,,,,,,,,,,
297208,2022-10-07_12h50.19.165,vts_reward_expectancy,2022.2.4,MacIntel,60.0024001,Chrome,1440,900,,,l,0.8074,10,463,2,0,3,3,8,1,0,0,1,0,0,0,0,1,hexagon,star,,,,,,,,,,,,,,,,,,,,,,,,,,,,,,,,,,,,,,,,,,,,,,,,,,,,,,
297208,2022-10-07_12h50.19.165,vts_reward_expectancy,2022.2.4,MacIntel,60.0024001,Chrome,1440,900,,,a,0.9613,10,473,2,0,4,4,3,1,0,1,0,0,1,0,0,0,circle,triangle,,,,,,,,,,,,,,,,,,,,,,,,,,,,,,,,,,,,,,,,,,,,,,,,,,,,,,
297208,2022-10-07_12h50.19.165,vts_reward_expectancy,2022.2.4,MacIntel,60.0024001,Chrome,1440,900,,,l,0.703,10,483,2,0,5,5,2,1,1,0,0,0,0,0,0,1,triangle,star,,,,,,,,,,,,,,,,,,,,,,,,,,,,,,,,,,,,,,,,,,,,,,,,,,,,,,
297208,2022-10-07_12h50.19.165,vts_reward_expectancy,2022.2.4,MacIntel,60.0024001,Chrome,1440,900,,,a,0.5233,10,493,2,0,6,6,0,1,1,0,0,0,0,1,0,0,triangle,circle,,,,,,,,,,,,,,,,,,,,,,,,,,,,,,,,,,,,,,,,,,,,,,,,,,,,,,
297208,2022-10-07_12h50.19.165,vts_reward_expectancy,2022.2.4,MacIntel,60.0024001,Chrome,1440,900,,,l,1.4679,1,494,2,0,7,7,10,1,0,0,0,1,0,1,0,0,star ,circle,,,,,,,,,,,,,,,,,,,,,,,,,,,,,,,,,,,,,,,,,,,,,,,,,,,,,,
297208,2022-10-07_12h50.19.165,vts_reward_expectancy,2022.2.4,MacIntel,60.0024001,Chrome,1440,900,,,l,0.6182,10,504,2,0,8,8,5,1,0,1,0,0,0,0,0,1,circle,star,,,,,,,,,,,,,,,,,,,,,,,,,,,,,,,,,,,,,,,,,,,,,,,,,,,,,,
297208,2022-10-07_12h50.19.165,vts_reward_expectancy,2022.2.4,MacIntel,60.0024001,Chrome,1440,900,,,a,0.8228,1,505,2,0,9,9,4,1,0,1,0,0,0,0,1,0,circle,hexagon,,,,,,,,,,,,,,,,,,,,,,,,,,,,,,,,,,,,,,,,,,,,,,,,,,,,,,
297208,2022-10-07_12h50.19.165,vts_reward_expectancy,2022.2.4,MacIntel,60.0024001,Chrome,1440,900,,,l,0.8442,10,515,2,0,10,10,7,1,0,0,1,0,0,1,0,0,hexagon,circle,,,,,,,,,,,,,,,,,,,,,,,,,,,,,,,,,,,,,,,,,,,,,,,,,,,,,,
297208,2022-10-07_12h50.19.165,vts_reward_expectancy,2022.2.4,MacIntel,60.0024001,Chrome,1440,900,,,a,0.8211,1,516,2,0,11,11,6,1,0,0,1,0,1,0,0,0,hexagon,triangle,,,,,,,,,,,,,,,,,,,,,,,,,,,,,,,,,,,,,,,,,,,,,,,,,,,,,,
297208,2022-10-07_12h50.19.165,vts_reward_expectancy,2022.2.4,MacIntel,60.0024001,Chrome,1440,900,,,a,0.7164,10,526,2,1,0,12,9,1,0,0,0,1,1,0,0,0,star,triangle,,,,,,,,,,,,,,,,,,,,,,,,,,,,,,,,,,,,,,,,,,,,,,,,,,,,,,
297208,2022-10-07_12h50.19.165,vts_reward_expectancy,2022.2.4,MacIntel,60.0024001,Chrome,1440,900,,,l,0.9308,1,527,2,1,1,13,6,1,0,0,1,0,1,0,0,0,hexagon,triangle,,,,,,,,,,,,,,,,,,,,,,,,,,,,,,,,,,,,,,,,,,,,,,,,,,,,,,
297208,2022-10-07_12h50.19.165,vts_reward_expectancy,2022.2.4,MacIntel,60.0024001,Chrome,1440,900,,,l,0.6393,1,528,2,1,2,14,4,1,0,1,0,0,0,0,1,0,circle,hexagon,,,,,,,,,,,,,,,,,,,,,,,,,,,,,,,,,,,,,,,,,,,,,,,,,,,,,,
297208,2022-10-07_12h50.19.165,vts_reward_expectancy,2022.2.4,MacIntel,60.0024001,Chrome,1440,900,,,l,0.5687,1,529,2,1,3,15,3,1,0,1,0,0,1,0,0,0,circle,triangle,,,,,,,,,,,,,,,,,,,,,,,,,,,,,,,,,,,,,,,,,,,,,,,,,,,,,,
297208,2022-10-07_12h50.19.165,vts_reward_expectancy,2022.2.4,MacIntel,60.0024001,Chrome,1440,900,,,l,0.6405,1,530,2,1,4,16,2,1,1,0,0,0,0,0,0,1,triangle,star,,,,,,,,,,,,,,,,,,,,,,,,,,,,,,,,,,,,,,,,,,,,,,,,,,,,,,
297208,2022-10-07_12h50.19.165,vts_reward_expectancy,2022.2.4,MacIntel,60.0024001,Chrome,1440,900,,,l,0.735,10,540,2,1,5,17,0,1,1,0,0,0,0,1,0,0,triangle,circle,,,,,,,,,,,,,,,,,,,,,,,,,,,,,,,,,,,,,,,,,,,,,,,,,,,,,,
297208,2022-10-07_12h50.19.165,vts_reward_expectancy,2022.2.4,MacIntel,60.0024001,Chrome,1440,900,,,a,0.5745,10,550,2,1,6,18,10,1,0,0,0,1,0,1,0,0,star ,circle,,,,,,,,,,,,,,,,,,,,,,,,,,,,,,,,,,,,,,,,,,,,,,,,,,,,,,
297208,2022-10-07_12h50.19.165,vts_reward_expectancy,2022.2.4,MacIntel,60.0024001,Chrome,1440,900,,,l,0.5483,10,560,2,1,7,19,5,1,0,1,0,0,0,0,0,1,circle,star,,,,,,,,,,,,,,,,,,,,,,,,,,,,,,,,,,,,,,,,,,,,,,,,,,,,,,
297208,2022-10-07_12h50.19.165,vts_reward_expectancy,2022.2.4,MacIntel,60.0024001,Chrome,1440,900,,,a,1.732,1,561,2,1,8,20,7,1,0,0,1,0,0,1,0,0,hexagon,circle,,,,,,,,,,,,,,,,,,,,,,,,,,,,,,,,,,,,,,,,,,,,,,,,,,,,,,
297208,2022-10-07_12h50.19.165,vts_reward_expectancy,2022.2.4,MacIntel,60.0024001,Chrome,1440,900,,,a,0.662,1,562,2,1,9,21,11,1,0,0,0,1,0,0,1,0,star,hexagon,,,,,,,,,,,,,,,,,,,,,,,,,,,,,,,,,,,,,,,,,,,,,,,,,,,,,,
297208,2022-10-07_12h50.19.165,vts_reward_expectancy,2022.2.4,MacIntel,60.0024001,Chrome,1440,900,,,l,7.796,10,572,2,1,10,22,8,1,0,0,1,0,0,0,0,1,hexagon,star,,,,,,,,,,,,,,,,,,,,,,,,,,,,,,,,,,,,,,,,,,,,,,,,,,,,,,
297208,2022-10-07_12h50.19.165,vts_reward_expectancy,2022.2.4,MacIntel,60.0024001,Chrome,1440,900,,,l,1.1425,10,582,2,1,11,23,1,1,1,0,0,0,0,0,1,0,triangle,hexagon,,,,,,,,,,,,,,,,,,,,,,,,,,,,,,,,,,,,,,,,,,,,,,,,,,,,,,
297208,2022-10-07_12h50.19.165,vts_reward_expectancy,2022.2.4,MacIntel,60.0024001,Chrome,1440,900,,,a,0.5525,1,583,2,2,0,24,9,1,0,0,0,1,1,0,0,0,star,triangle,,,,,,,,,,,,,,,,,,,,,,,,,,,,,,,,,,,,,,,,,,,,,,,,,,,,,,
297208,2022-10-07_12h50.19.165,vts_reward_expectancy,2022.2.4,MacIntel,60.0024001,Chrome,1440,900,,,l,0.5875,10,593,2,2,1,25,5,1,0,1,0,0,0,0,0,1,circle,star,,,,,,,,,,,,,,,,,,,,,,,,,,,,,,,,,,,,,,,,,,,,,,,,,,,,,,
297208,2022-10-07_12h50.19.165,vts_reward_expectancy,2022.2.4,MacIntel,60.0024001,Chrome,1440,900,,,a,0.5101,1,594,2,2,2,26,3,1,0,1,0,0,1,0,0,0,circle,triangle,,,,,,,,,,,,,,,,,,,,,,,,,,,,,,,,,,,,,,,,,,,,,,,,,,,,,,
297208,2022-10-07_12h50.19.165,vts_reward_expectancy,2022.2.4,MacIntel,60.0024001,Chrome,1440,900,,,l,0.3939,10,604,2,2,3,27,8,1,0,0,1,0,0,0,0,1,hexagon,star,,,,,,,,,,,,,,,,,,,,,,,,,,,,,,,,,,,,,,,,,,,,,,,,,,,,,,
297208,2022-10-07_12h50.19.165,vts_reward_expectancy,2022.2.4,MacIntel,60.0024001,Chrome,1440,900,,,a,0.417,10,614,2,2,4,28,10,1,0,0,0,1,0,1,0,0,star ,circle,,,,,,,,,,,,,,,,,,,,,,,,,,,,,,,,,,,,,,,,,,,,,,,,,,,,,,
297208,2022-10-07_12h50.19.165,vts_reward_expectancy,2022.2.4,MacIntel,60.0024001,Chrome,1440,900,,,a,0.5361,1,615,2,2,5,29,11,1,0,0,0,1,0,0,1,0,star,hexagon,,,,,,,,,,,,,,,,,,,,,,,,,,,,,,,,,,,,,,,,,,,,,,,,,,,,,,
297208,2022-10-07_12h50.19.165,vts_reward_expectancy,2022.2.4,MacIntel,60.0024001,Chrome,1440,900,,,l,0.3928,1,616,2,2,6,30,4,1,0,1,0,0,0,0,1,0,circle,hexagon,,,,,,,,,,,,,,,,,,,,,,,,,,,,,,,,,,,,,,,,,,,,,,,,,,,,,,
297208,2022-10-07_12h50.19.165,vts_reward_expectancy,2022.2.4,MacIntel,60.0024001,Chrome,1440,900,,,a,0.3591,1,617,2,2,7,31,7,1,0,0,1,0,0,1,0,0,hexagon,circle,,,,,,,,,,,,,,,,,,,,,,,,,,,,,,,,,,,,,,,,,,,,,,,,,,,,,,
297208,2022-10-07_12h50.19.165,vts_reward_expectancy,2022.2.4,MacIntel,60.0024001,Chrome,1440,900,,,l,0.7443,1,618,2,2,8,32,0,1,1,0,0,0,0,1,0,0,triangle,circle,,,,,,,,,,,,,,,,,,,,,,,,,,,,,,,,,,,,,,,,,,,,,,,,,,,,,,
297208,2022-10-07_12h50.19.165,vts_reward_expectancy,2022.2.4,MacIntel,60.0024001,Chrome,1440,900,,,a,0.492,10,628,2,2,9,33,1,1,1,0,0,0,0,0,1,0,triangle,hexagon,,,,,,,,,,,,,,,,,,,,,,,,,,,,,,,,,,,,,,,,,,,,,,,,,,,,,,
297208,2022-10-07_12h50.19.165,vts_reward_expectancy,2022.2.4,MacIntel,60.0024001,Chrome,1440,900,,,l,0.5043,1,629,2,2,10,34,6,1,0,0,1,0,1,0,0,0,hexagon,triangle,,,,,,,,,,,,,,,,,,,,,,,,,,,,,,,,,,,,,,,,,,,,,,,,,,,,,,
297208,2022-10-07_12h50.19.165,vts_reward_expectancy,2022.2.4,MacIntel,60.0024001,Chrome,1440,900,,,a,0.3673,1,630,2,2,11,35,2,1,1,0,0,0,0,0,0,1,triangle,star,,,,,,,,,,,,,,,,,,,,,,,,,,,,,,,,,,,,,,,,,,,,,,,,,,,,,,
297208,2022-10-07_12h50.19.165,vts_reward_expectancy,2022.2.4,MacIntel,60.0024001,Chrome,1440,900,,,,,,,,,,,,,,,,,,,,,,,181,B,circle,1,0,f,1.87,0,0,0,0,0,1,,,,,,,,,,,,,,,,,,,,,,,,,,,,,,,,,,,,,,,,,
297208,2022-10-07_12h50.19.165,vts_reward_expectancy,2022.2.4,MacIntel,60.0024001,Chrome,1440,900,,,,,,,,,,,,,,,,,,,,,,,146,S,hexagon,1,0,d,0.6819,0,1,0,1,0,1,,,,,,,,,,,,,,,,,,,,,,,,,,,,,,,,,,,,,,,,,
297208,2022-10-07_12h50.19.165,vts_reward_expectancy,2022.2.4,MacIntel,60.0024001,Chrome,1440,900,,,,,,,,,,,,,,,,,,,,,,,167,F,triangle,1,0,f,0.7286,0,2,0,2,0,1,,,,,,,,,,,,,,,,,,,,,,,,,,,,,,,,,,,,,,,,,
297208,2022-10-07_12h50.19.165,vts_reward_expectancy,2022.2.4,MacIntel,60.0024001,Chrome,1440,900,,,,,,,,,,,,,,,,,,,,,,,174,U,star,1,0,f,0.9781,0,3,0,3,0,1,,,,,,,,,,,,,,,,,,,,,,,,,,,,,,,,,,,,,,,,,
297208,2022-10-07_12h50.19.165,vts_reward_expectancy,2022.2.4,MacIntel,60.0024001,Chrome,1440,900,,,,,,,,,,,,,,,,,,,,,,,160,W,circle,1,0,f,1.3245,0,4,0,4,0,1,,,,,,,,,,,,,,,,,,,,,,,,,,,,,,,,,,,,,,,,,
297208,2022-10-07_12h50.19.165,vts_reward_expectancy,2022.2.4,MacIntel,60.0024001,Chrome,1440,900,,,,,,,,,,,,,,,,,,,,,,,132,H,hexagon,1,0,d,0.7179,0,5,0,5,0,1,,,,,,,,,,,,,,,,,,,,,,,,,,,,,,,,,,,,,,,,,
297208,2022-10-07_12h50.19.165,vts_reward_expectancy,2022.2.4,MacIntel,60.0024001,Chrome,1440,900,,,,,,,,,,,,,,,,,,,,,,,139,Y,triangle,1,0,d,0.6144,0,6,0,6,0,1,,,,,,,,,,,,,,,,,,,,,,,,,,,,,,,,,,,,,,,,,
297208,2022-10-07_12h50.19.165,vts_reward_expectancy,2022.2.4,MacIntel,60.0024001,Chrome,1440,900,,,,,,,,,,,,,,,,,,,,,,,125,D,star,0,0,,,0,7,0,7,0,1,,,,,,,,,,,,,,,,,,,,,,,,,,,,,,,,,,,,,,,,,
297208,2022-10-07_12h50.19.165,vts_reward_expectancy,2022.2.4,MacIntel,60.0024001,Chrome,1440,900,,,,,,,,,,,,,,,,,,,,,,,181,B,circle,0,1,,,0,8,0,8,0,1,,,,,,,,,,,,,,,,,,,,,,,,,,,,,,,,,,,,,,,,,
297208,2022-10-07_12h50.19.165,vts_reward_expectancy,2022.2.4,MacIntel,60.0024001,Chrome,1440,900,,,,,,,,,,,,,,,,,,,,,,,146,S,star,0,1,,,0,9,0,9,0,1,,,,,,,,,,,,,,,,,,,,,,,,,,,,,,,,,,,,,,,,,
297208,2022-10-07_12h50.19.165,vts_reward_expectancy,2022.2.4,MacIntel,60.0024001,Chrome,1440,900,,,,,,,,,,,,,,,,,,,,,,,174,F,star,1,1,f,0.693,1,0,0,0,0,1,,,,,,,,,,,,,,,,,,,,,,,,,,,,,,,,,,,,,,,,,
297208,2022-10-07_12h50.19.165,vts_reward_expectancy,2022.2.4,MacIntel,60.0024001,Chrome,1440,900,,,,,,,,,,,,,,,,,,,,,,,132,B,hexagon,1,0,d,0.6107,1,1,0,1,0,1,,,,,,,,,,,,,,,,,,,,,,,,,,,,,,,,,,,,,,,,,
297208,2022-10-07_12h50.19.165,vts_reward_expectancy,2022.2.4,MacIntel,60.0024001,Chrome,1440,900,,,,,,,,,,,,,,,,,,,,,,,181,D,triangle,1,0,f,0.6537,1,2,0,2,0,1,,,,,,,,,,,,,,,,,,,,,,,,,,,,,,,,,,,,,,,,,
297208,2022-10-07_12h50.19.165,vts_reward_expectancy,2022.2.4,MacIntel,60.0024001,Chrome,1440,900,,,,,,,,,,,,,,,,,,,,,,,160,U,circle,1,0,f,0.7469,1,3,0,3,0,1,,,,,,,,,,,,,,,,,,,,,,,,,,,,,,,,,,,,,,,,,
297208,2022-10-07_12h50.19.165,vts_reward_expectancy,2022.2.4,MacIntel,60.0024001,Chrome,1440,900,,,,,,,,,,,,,,,,,,,,,,,167,W,star,1,0,f,0.6103,1,4,0,4,0,1,,,,,,,,,,,,,,,,,,,,,,,,,,,,,,,,,,,,,,,,,
297208,2022-10-07_12h50.19.165,vts_reward_expectancy,2022.2.4,MacIntel,60.0024001,Chrome,1440,900,,,,,,,,,,,,,,,,,,,,,,,146,Y,hexagon,1,0,d,0.9528,1,5,0,5,0,1,,,,,,,,,,,,,,,,,,,,,,,,,,,,,,,,,,,,,,,,,
297208,2022-10-07_12h50.19.165,vts_reward_expectancy,2022.2.4,MacIntel,60.0024001,Chrome,1440,900,,,,,,,,,,,,,,,,,,,,,,,139,S,triangle,1,0,d,0.7312,1,6,0,6,0,1,,,,,,,,,,,,,,,,,,,,,,,,,,,,,,,,,,,,,,,,,
297208,2022-10-07_12h50.19.165,vts_reward_expectancy,2022.2.4,MacIntel,60.0024001,Chrome,1440,900,,,,,,,,,,,,,,,,,,,,,,,125,H,circle,1,0,d,0.7001,1,7,0,7,0,1,,,,,,,,,,,,,,,,,,,,,,,,,,,,,,,,,,,,,,,,,
297208,2022-10-07_12h50.19.165,vts_reward_expectancy,2022.2.4,MacIntel,60.0024001,Chrome,1440,900,,,,,,,,,,,,,,,,,,,,,,,174,F,triangle,1,0,f,0.6623,1,8,0,8,0,1,,,,,,,,,,,,,,,,,,,,,,,,,,,,,,,,,,,,,,,,,
297208,2022-10-07_12h50.19.165,vts_reward_expectancy,2022.2.4,MacIntel,60.0024001,Chrome,1440,900,,,,,,,,,,,,,,,,,,,,,,,132,B,star,1,0,d,0.7407,1,9,0,9,0,1,,,,,,,,,,,,,,,,,,,,,,,,,,,,,,,,,,,,,,,,,
297208,2022-10-07_12h50.19.165,vts_reward_expectancy,2022.2.4,MacIntel,60.0024001,Chrome,1440,900,,,,,,,,,,,,,,,,,,,,,,,167,F,triangle,1,0,,,2,,,,,,j,1.6852,0,0,0,0,1,,,,,,,,,,,,,,,,,,,,,,,,,,,,,,,,,,
297208,2022-10-07_12h50.19.165,vts_reward_expectancy,2022.2.4,MacIntel,60.0024001,Chrome,1440,900,,,,,,,,,,,,,,,,,,,,,,,125,H,hexagon,1,0,,,2,,,,,,j,0.9518,1,0,1,0,1,,,,,,,,,,,,,,,,,,,,,,,,,,,,,,,,,,
297208,2022-10-07_12h50.19.165,vts_reward_expectancy,2022.2.4,MacIntel,60.0024001,Chrome,1440,900,,,,,,,,,,,,,,,,,,,,,,,174,W,circle,1,0,,,2,,,,,,k,0.7196,2,0,2,0,1,,,,,,,,,,,,,,,,,,,,,,,,,,,,,,,,,,
297208,2022-10-07_12h50.19.165,vts_reward_expectancy,2022.2.4,MacIntel,60.0024001,Chrome,1440,900,,,,,,,,,,,,,,,,,,,,,,,146,U,star,1,0,,,2,,,,,,k,0.8141,3,0,3,0,1,,,,,,,,,,,,,,,,,,,,,,,,,,,,,,,,,,
297208,2022-10-07_12h50.19.165,vts_reward_expectancy,2022.2.4,MacIntel,60.0024001,Chrome,1440,900,,,,,,,,,,,,,,,,,,,,,,,160,D,triangle,1,0,,,2,,,,,,j,1.1261,4,0,4,0,1,,,,,,,,,,,,,,,,,,,,,,,,,,,,,,,,,,
297208,2022-10-07_12h50.19.165,vts_reward_expectancy,2022.2.4,MacIntel,60.0024001,Chrome,1440,900,,,,,,,,,,,,,,,,,,,,,,,139,S,hexagon,1,0,,,2,,,,,,k,0.7854,5,0,5,0,1,,,,,,,,,,,,,,,,,,,,,,,,,,,,,,,,,,
297208,2022-10-07_12h50.19.165,vts_reward_expectancy,2022.2.4,MacIntel,60.0024001,Chrome,1440,900,,,,,,,,,,,,,,,,,,,,,,,132,Y,circle,1,0,,,2,,,,,,k,1.0873,6,0,6,0,1,,,,,,,,,,,,,,,,,,,,,,,,,,,,,,,,,,
297208,2022-10-07_12h50.19.165,vts_reward_expectancy,2022.2.4,MacIntel,60.0024001,Chrome,1440,900,,,,,,,,,,,,,,,,,,,,,,,181,B,star,1,0,,,2,,,,,,j,0.7384,7,0,7,0,1,,,,,,,,,,,,,,,,,,,,,,,,,,,,,,,,,,
297208,2022-10-07_12h50.19.165,vts_reward_expectancy,2022.2.4,MacIntel,60.0024001,Chrome,1440,900,,,,,,,,,,,,,,,,,,,,,,,167,F,circle,1,0,,,2,,,,,,j,1.0631,8,0,8,0,1,,,,,,,,,,,,,,,,,,,,,,,,,,,,,,,,,,
297208,2022-10-07_12h50.19.165,vts_reward_expectancy,2022.2.4,MacIntel,60.0024001,Chrome,1440,900,,,,,,,,,,,,,,,,,,,,,,,125,H,star,1,0,,,2,,,,,,j,0.6773,9,0,9,0,1,,,,,,,,,,,,,,,,,,,,,,,,,,,,,,,,,,
297208,2022-10-07_12h50.19.165,vts_reward_expectancy,2022.2.4,MacIntel,60.0024001,Chrome,1440,900,,,,,0,630,,,,,,,,,,,,,,,,,139,S,hexagon,1,0,,,3,,,,,,,,,,,,,-1,number,NA,d,1.4623,vtsPrac,0,0,0,0,1,,,,,,,,,,,,,,,,,,,,,,,
297208,2022-10-07_12h50.19.165,vts_reward_expectancy,2022.2.4,MacIntel,60.0024001,Chrome,1440,900,,,,,0,630,,,,,,,,,,,,,,,,,174,H,star,1,0,,,3,,,,,,,,,,,,,repeat,number,numRpt,f,1.249,vtsPrac,1,0,1,0,1,,,,,,,,,,,,,,,,,,,,,,,
297208,2022-10-07_12h50.19.165,vts_reward_expectancy,2022.2.4,MacIntel,60.0024001,Chrome,1440,900,,,,,0,630,,,,,,,,,,,,,,,,,146,B,hexagon,1,0,,,3,,,,,,,,,,,,,switch,letter,lettSwt,j,0.6679,vtsPrac,2,0,2,0,1,,,,,,,,,,,,,,,,,,,,,,,
297208,2022-10-07_12h50.19.165,vts_reward_expectancy,2022.2.4,MacIntel,60.0024001,Chrome,1440,900,,,,,0,630,,,,,,,,,,,,,,,,,167,D,star,1,0,,,3,,,,,,,,,,,,,repeat,letter,lettRpt,j,1.9259,vtsPrac,3,0,3,0,1,,,,,,,,,,,,,,,,,,,,,,,
297208,2022-10-07_12h50.19.165,vts_reward_expectancy,2022.2.4,MacIntel,60.0024001,Chrome,1440,900,,,,,0,630,,,,,,,,,,,,,,,,,139,S,hexagon,1,0,,,3,,,,,,,,,,,,,switch,number,numSwt,d,1.2559,vtsPrac,4,0,4,0,1,,,,,,,,,,,,,,,,,,,,,,,
297208,2022-10-07_12h50.19.165,vts_reward_expectancy,2022.2.4,MacIntel,60.0024001,Chrome,1440,900,,,,,0,630,,,,,,,,,,,,,,,,,174,H,star,1,0,,,3,,,,,,,,,,,,,switch,letter,lettSwt,j,0.9265,vtsPrac,5,0,5,0,1,,,,,,,,,,,,,,,,,,,,,,,
297208,2022-10-07_12h50.19.165,vts_reward_expectancy,2022.2.4,MacIntel,60.0024001,Chrome,1440,900,,,,,0,630,,,,,,,,,,,,,,,,,146,B,triangle,1,0,,,3,,,,,,,,,,,,,repeat,letter,lettRpt,j,2.0408,vtsPrac,6,0,6,0,1,,,,,,,,,,,,,,,,,,,,,,,
297208,2022-10-07_12h50.19.165,vts_reward_expectancy,2022.2.4,MacIntel,60.0024001,Chrome,1440,900,,,,,0,630,,,,,,,,,,,,,,,,,167,D,star,1,0,,,3,,,,,,,,,,,,,repeat,letter,lettRpt,j,0.9332,vtsPrac,7,0,7,0,1,,,,,,,,,,,,,,,,,,,,,,,
297208,2022-10-07_12h50.19.165,vts_reward_expectancy,2022.2.4,MacIntel,60.0024001,Chrome,1440,900,,,,,0,630,,,,,,,,,,,,,,,,,174,S,circle,1,0,,,3,,,,,,,,,,,,,switch,number,numSwt,f,1.2334,vtsPrac,8,0,8,0,1,,,,,,,,,,,,,,,,,,,,,,,
297208,2022-10-07_12h50.19.165,vts_reward_expectancy,2022.2.4,MacIntel,60.0024001,Chrome,1440,900,,,,,0,630,,,,,,,,,,,,,,,,,139,Y,star,1,0,,,3,,,,,,,,,,,,,repeat,number,numRpt,d,0.8046,vtsPrac,9,0,9,0,1,,,,,,,,,,,,,,,,,,,,,,,
297208,2022-10-07_12h50.19.165,vts_reward_expectancy,2022.2.4,MacIntel,60.0024001,Chrome,1440,900,,,,,0,630,,,,,,,,,,,,,,,,,181,F,hexagon,1,0,,,3,,,,,,,,,,,,,repeat,number,numRpt,f,1.3519,vtsPrac,10,0,10,0,1,,,,,,,,,,,,,,,,,,,,,,,
297208,2022-10-07_12h50.19.165,vts_reward_expectancy,2022.2.4,MacIntel,60.0024001,Chrome,1440,900,,,,,0,630,,,,,,,,,,,,,,,,,146,B,circle,1,0,,,3,,,,,,,,,,,,,switch,letter,lettSwt,j,1.2624,vtsPrac,11,0,11,0,1,,,,,,,,,,,,,,,,,,,,,,,
297208,2022-10-07_12h50.19.165,vts_reward_expectancy,2022.2.4,MacIntel,60.0024001,Chrome,1440,900,,,,,0,630,,,,,,,,,,,,,,,,,139,S,hexagon,1,0,,,3,,,,,,,,,,,,,repeat,letter,lettRpt,k,2.0234,vtsPrac,12,0,12,0,1,,,,,,,,,,,,,,,,,,,,,,,
297208,2022-10-07_12h50.19.165,vts_reward_expectancy,2022.2.4,MacIntel,60.0024001,Chrome,1440,900,,,,,0,630,,,,,,,,,,,,,,,,,167,U,circle,1,0,,,3,,,,,,,,,,,,,switch,number,numSwt,f,1.779,vtsPrac,13,0,13,0,1,,,,,,,,,,,,,,,,,,,,,,,
297208,2022-10-07_12h50.19.165,vts_reward_expectancy,2022.2.4,MacIntel,60.0024001,Chrome,1440,900,,,,,0,630,,,,,,,,,,,,,,,,,160,W,star,1,0,,,3,,,,,,,,,,,,,switch,letter,lettSwt,k,1.7237,vtsPrac,14,0,14,0,1,,,,,,,,,,,,,,,,,,,,,,,
297208,2022-10-07_12h50.19.165,vts_reward_expectancy,2022.2.4,MacIntel,60.0024001,Chrome,1440,900,,,,,0,630,,,,,,,,,,,,,,,,,146,F,circle,1,0,,,3,,,,,,,,,,,,,repeat,letter,lettRpt,j,1.6853,vtsPrac,15,0,15,0,1,,,,,,,,,,,,,,,,,,,,,,,
297208,2022-10-07_12h50.19.165,vts_reward_expectancy,2022.2.4,MacIntel,60.0024001,Chrome,1440,900,,,,,,,,,,,,,,,,,,,,,,,,,,,,,,,,,,,,,,,,,,,,,,,,,,,,,,,,,,,,,,,,,,,,,,,,,,,,
297208,2022-10-07_12h50.19.165,vts_reward_expectancy,2022.2.4,MacIntel,60.0024001,Chrome,1440,900,,,,,,,,,,,,,,,,,,,,,,,,,,,,,,,,,,,,,,,,,,,,,,,,,,,,,,,,,,,,,,,,,,,,,,,,,,,,
297208,2022-10-07_12h50.19.165,vts_reward_expectancy,2022.2.4,MacIntel,60.0024001,Chrome,1440,900,,,,,0,630,,,,,,,,,,,,,,,,,181,S,circle,1,0,,,,,,,,,,,,,,,,switch,number,numSwt,f,0.76,noRew,,,,,,0,0,0,0,0,1,,,,,,,,,,,,,,,,,
297208,2022-10-07_12h50.19.165,vts_reward_expectancy,2022.2.4,MacIntel,60.0024001,Chrome,1440,900,,,,,0,630,,,,,,,,,,,,,,,,,174,W,star,1,0,,,,,,,,,,,,,,,,switch,letter,lettSwt,k,1.3412,noRew,,,,,,0,1,0,1,0,1,,,,,,,,,,,,,,,,,
297208,2022-10-07_12h50.19.165,vts_reward_expectancy,2022.2.4,MacIntel,60.0024001,Chrome,1440,900,,,,,0,630,,,,,,,,,,,,,,,,,146,U,circle,1,0,,,,,,,,,,,,,,,,repeat,letter,lettRpt,k,1.7487,noRew,,,,,,0,2,0,2,0,1,,,,,,,,,,,,,,,,,
297208,2022-10-07_12h50.19.165,vts_reward_expectancy,2022.2.4,MacIntel,60.0024001,Chrome,1440,900,,,,,0,630,,,,,,,,,,,,,,,,,125,B,star,1,0,,,,,,,,,,,,,,,,repeat,letter,lettRpt,j,0.9579,noRew,,,,,,0,3,0,3,0,1,,,,,,,,,,,,,,,,,
297208,2022-10-07_12h50.19.165,vts_reward_expectancy,2022.2.4,MacIntel,60.0024001,Chrome,1440,900,,,,,0,630,,,,,,,,,,,,,,,,,181,S,circle,1,0,,,,,,,,,,,,,,,,switch,number,numSwt,f,1.699,noRew,,,,,,0,4,0,4,0,1,,,,,,,,,,,,,,,,,
297208,2022-10-07_12h50.19.165,vts_reward_expectancy,2022.2.4,MacIntel,60.0024001,Chrome,1440,900,,,,,0,630,,,,,,,,,,,,,,,,,174,W,hexagon,1,0,,,,,,,,,,,,,,,,repeat,number,numRpt,f,1.1662,noRew,,,,,,0,5,0,5,0,1,,,,,,,,,,,,,,,,,
297208,2022-10-07_12h50.19.165,vts_reward_expectancy,2022.2.4,MacIntel,60.0024001,Chrome,1440,900,,,,,0,630,,,,,,,,,,,,,,,,,146,U,star,1,0,,,,,,,,,,,,,,,,switch,letter,lettSwt,k,2.1248,noRew,,,,,,0,6,0,6,0,1,,,,,,,,,,,,,,,,,
297208,2022-10-07_12h50.19.165,vts_reward_expectancy,2022.2.4,MacIntel,60.0024001,Chrome,1440,900,,,,,0,630,,,,,,,,,,,,,,,,,125,B,hexagon,-1,0,,,,,,,,,,,,,,,,switch,no_choice,NA,,,noRew,,,,,,0,7,0,7,0,1,,,,,,,,,,,,,,,,,
297208,2022-10-07_12h50.19.165,vts_reward_expectancy,2022.2.4,MacIntel,60.0024001,Chrome,1440,900,,,,,0,630,,,,,,,,,,,,,,,,,174,Y,circle,1,0,,,,,,,,,,,,,,,,switch,number,numSwt,f,1.0213,noRew,,,,,,0,8,0,8,0,1,,,,,,,,,,,,,,,,,
297208,2022-10-07_12h50.19.165,vts_reward_expectancy,2022.2.4,MacIntel,60.0024001,Chrome,1440,900,,,,,0,630,,,,,,,,,,,,,,,,,181,W,hexagon,1,0,,,,,,,,,,,,,,,,repeat,number,numRpt,f,0.6031,noRew,,,,,,0,9,0,9,0,1,,,,,,,,,,,,,,,,,
297208,2022-10-07_12h50.19.165,vts_reward_expectancy,2022.2.4,MacIntel,60.0024001,Chrome,1440,900,,,,,0,630,,,,,,,,,,,,,,,,,125,F,circle,1,0,,,,,,,,,,,,,,,,switch,letter,lettSwt,j,0.7106,noRew,,,,,,0,10,0,10,0,1,,,,,,,,,,,,,,,,,
297208,2022-10-07_12h50.19.165,vts_reward_expectancy,2022.2.4,MacIntel,60.0024001,Chrome,1440,900,,,,,0,630,,,,,,,,,,,,,,,,,167,S,hexagon,1,0,,,,,,,,,,,,,,,,repeat,letter,lettRpt,k,1.6698,noRew,,,,,,0,11,0,11,0,1,,,,,,,,,,,,,,,,,
297208,2022-10-07_12h50.19.165,vts_reward_expectancy,2022.2.4,MacIntel,60.0024001,Chrome,1440,900,,,,,0,630,,,,,,,,,,,,,,,,,181,U,circle,1,0,,,,,,,,,,,,,,,,switch,number,numSwt,f,0.8446,noRew,,,,,,0,12,0,12,0,1,,,,,,,,,,,,,,,,,
297208,2022-10-07_12h50.19.165,vts_reward_expectancy,2022.2.4,MacIntel,60.0024001,Chrome,1440,900,,,,,0,630,,,,,,,,,,,,,,,,,139,D,triangle,1,0,,,,,,,,,,,,,,,,repeat,number,numRpt,d,0.8467,noRew,,,,,,0,13,0,13,0,1,,,,,,,,,,,,,,,,,
297208,2022-10-07_12h50.19.165,vts_reward_expectancy,2022.2.4,MacIntel,60.0024001,Chrome,1440,900,,,,,0,630,,,,,,,,,,,,,,,,,167,Y,hexagon,1,0,,,,,,,,,,,,,,,,switch,letter,lettSwt,k,1.581,noRew,,,,,,0,14,0,14,0,1,,,,,,,,,,,,,,,,,
297208,2022-10-07_12h50.19.165,vts_reward_expectancy,2022.2.4,MacIntel,60.0024001,Chrome,1440,900,,,,,0,630,,,,,,,,,,,,,,,,,174,B,circle,0,0,,,,,,,,,,,,,,,,repeat,letter,NA,k,0.522,noRew,,,,,,0,15,0,15,0,1,,,,,,,,,,,,,,,,,
297208,2022-10-07_12h50.19.165,vts_reward_expectancy,2022.2.4,MacIntel,60.0024001,Chrome,1440,900,,,,,0,630,,,,,,,,,,,,,,,,,125,D,circle,1,1,,,,,,,,,,,,,,,,repeat,letter,lettRpt,j,1.3127,noRew,,,,,,0,16,0,16,0,1,,,,,,,,,,,,,,,,,
297208,2022-10-07_12h50.19.165,vts_reward_expectancy,2022.2.4,MacIntel,60.0024001,Chrome,1440,900,,,,,0,630,,,,,,,,,,,,,,,,,174,S,triangle,1,0,,,,,,,,,,,,,,,,repeat,letter,lettRpt,k,1.1969,noRew,,,,,,0,17,0,17,0,1,,,,,,,,,,,,,,,,,
297208,2022-10-07_12h50.19.165,vts_reward_expectancy,2022.2.4,MacIntel,60.0024001,Chrome,1440,900,,,,,0,630,,,,,,,,,,,,,,,,,132,B,star,1,0,,,,,,,,,,,,,,,,switch,number,numSwt,d,0.6806,noRew,,,,,,0,18,0,18,0,1,,,,,,,,,,,,,,,,,
297208,2022-10-07_12h50.19.165,vts_reward_expectancy,2022.2.4,MacIntel,60.0024001,Chrome,1440,900,,,,,0,630,,,,,,,,,,,,,,,,,160,W,circle,1,0,,,,,,,,,,,,,,,,repeat,number,numRpt,f,0.776,noRew,,,,,,0,19,0,19,0,1,,,,,,,,,,,,,,,,,
297208,2022-10-07_12h50.19.165,vts_reward_expectancy,2022.2.4,MacIntel,60.0024001,Chrome,1440,900,,,,,0,630,,,,,,,,,,,,,,,,,132,F,hexagon,1,0,,,,,,,,,,,,,,,,repeat,number,numRpt,d,1.8255,noRew,,,,,,0,20,0,20,0,1,,,,,,,,,,,,,,,,,
297208,2022-10-07_12h50.19.165,vts_reward_expectancy,2022.2.4,MacIntel,60.0024001,Chrome,1440,900,,,,,0,630,,,,,,,,,,,,,,,,,139,D,star,1,0,,,,,,,,,,,,,,,,repeat,number,numRpt,d,1.1076,noRew,,,,,,0,21,0,21,0,1,,,,,,,,,,,,,,,,,
297208,2022-10-07_12h50.19.165,vts_reward_expectancy,2022.2.4,MacIntel,60.0024001,Chrome,1440,900,,,,,0,630,,,,,,,,,,,,,,,,,181,H,star,1,0,,,,,,,,,,,,,,,,switch,letter,lettSwt,j,1.6082,noRew,,,,,,0,22,0,22,0,1,,,,,,,,,,,,,,,,,
297208,2022-10-07_12h50.19.165,vts_reward_expectancy,2022.2.4,MacIntel,60.0024001,Chrome,1440,900,,,,,0,630,,,,,,,,,,,,,,,,,125,Y,circle,1,0,,,,,,,,,,,,,,,,switch,number,numSwt,d,1.2563,noRew,,,,,,0,23,0,23,0,1,,,,,,,,,,,,,,,,,
297208,2022-10-07_12h50.19.165,vts_reward_expectancy,2022.2.4,MacIntel,60.0024001,Chrome,1440,900,,,,,0,630,,,,,,,,,,,,,,,,,146,B,triangle,1,0,,,,,,,,,,,,,,,,switch,letter,lettSwt,j,0.6236,noRew,,,,,,0,24,0,24,0,1,,,,,,,,,,,,,,,,,
297208,2022-10-07_12h50.19.165,vts_reward_expectancy,2022.2.4,MacIntel,60.0024001,Chrome,1440,900,,,,,0,630,,,,,,,,,,,,,,,,,167,F,circle,1,0,,,,,,,,,,,,,,,,repeat,letter,lettRpt,j,1.915,noRew,,,,,,0,25,0,25,0,1,,,,,,,,,,,,,,,,,
297208,2022-10-07_12h50.19.165,vts_reward_expectancy,2022.2.4,MacIntel,60.0024001,Chrome,1440,900,,,,,0,630,,,,,,,,,,,,,,,,,132,S,circle,1,0,,,,,,,,,,,,,,,,switch,number,numSwt,d,1.1965,noRew,,,,,,0,26,0,26,0,1,,,,,,,,,,,,,,,,,
297208,2022-10-07_12h50.19.165,vts_reward_expectancy,2022.2.4,MacIntel,60.0024001,Chrome,1440,900,,,,,0,630,,,,,,,,,,,,,,,,,160,H,hexagon,1,0,,,,,,,,,,,,,,,,switch,letter,lettSwt,j,1.7694,noRew,,,,,,0,27,0,27,0,1,,,,,,,,,,,,,,,,,
297208,2022-10-07_12h50.19.165,vts_reward_expectancy,2022.2.4,MacIntel,60.0024001,Chrome,1440,900,,,,,0,630,,,,,,,,,,,,,,,,,146,B,star,1,0,,,,,,,,,,,,,,,,repeat,letter,lettRpt,j,0.6511,noRew,,,,,,0,28,0,28,0,1,,,,,,,,,,,,,,,,,
297208,2022-10-07_12h50.19.165,vts_reward_expectancy,2022.2.4,MacIntel,60.0024001,Chrome,1440,900,,,,,0,630,,,,,,,,,,,,,,,,,167,W,hexagon,1,0,,,,,,,,,,,,,,,,switch,number,numSwt,f,1.405,noRew,,,,,,0,29,0,29,0,1,,,,,,,,,,,,,,,,,
297208,2022-10-07_12h50.19.165,vts_reward_expectancy,2022.2.4,MacIntel,60.0024001,Chrome,1440,900,,,,,0,630,,,,,,,,,,,,,,,,,125,Y,star,1,0,,,,,,,,,,,,,,,,repeat,number,numRpt,d,0.9243,noRew,,,,,,0,30,0,30,0,1,,,,,,,,,,,,,,,,,
297208,2022-10-07_12h50.19.165,vts_reward_expectancy,2022.2.4,MacIntel,60.0024001,Chrome,1440,900,,,,,0,630,,,,,,,,,,,,,,,,,132,U,circle,1,0,,,,,,,,,,,,,,,,switch,letter,lettSwt,k,1.8788,noRew,,,,,,0,31,0,31,0,1,,,,,,,,,,,,,,,,,
297208,2022-10-07_12h50.19.165,vts_reward_expectancy,2022.2.4,MacIntel,60.0024001,Chrome,1440,900,,,,,0,630,,,,,,,,,,,,,,,,,174,B,hexagon,1,0,,,,,,,,,,,,,,,,switch,number,numSwt,f,1.7428,noRew,,,,,,0,32,0,32,0,1,,,,,,,,,,,,,,,,,
297208,2022-10-07_12h50.19.165,vts_reward_expectancy,2022.2.4,MacIntel,60.0024001,Chrome,1440,900,,,,,0,630,,,,,,,,,,,,,,,,,160,D,circle,1,0,,,,,,,,,,,,,,,,switch,letter,lettSwt,j,1.4487,noRew,,,,,,0,33,0,33,0,1,,,,,,,,,,,,,,,,,
297208,2022-10-07_12h50.19.165,vts_reward_expectancy,2022.2.4,MacIntel,60.0024001,Chrome,1440,900,,,,,0,630,,,,,,,,,,,,,,,,,132,U,star,1,0,,,,,,,,,,,,,,,,repeat,letter,lettRpt,k,1.6024,noRew,,,,,,0,34,0,34,0,1,,,,,,,,,,,,,,,,,
297208,2022-10-07_12h50.19.165,vts_reward_expectancy,2022.2.4,MacIntel,60.0024001,Chrome,1440,900,,,,,0,630,,,,,,,,,,,,,,,,,167,W,hexagon,1,0,,,,,,,,,,,,,,,,switch,number,numSwt,f,0.9632,noRew,,,,,,0,35,0,35,0,1,,,,,,,,,,,,,,,,,
297208,2022-10-07_12h50.19.165,vts_reward_expectancy,2022.2.4,MacIntel,60.0024001,Chrome,1440,900,,,,,0,630,,,,,,,,,,,,,,,,,132,U,star,1,0,,,,,,,,,,,,,,,,repeat,number,numRpt,d,1.3142,noRew,,,,,,0,36,0,36,0,1,,,,,,,,,,,,,,,,,
297208,2022-10-07_12h50.19.165,vts_reward_expectancy,2022.2.4,MacIntel,60.0024001,Chrome,1440,900,,,,,0,630,,,,,,,,,,,,,,,,,125,D,hexagon,1,0,,,,,,,,,,,,,,,,repeat,number,numRpt,d,0.9052,noRew,,,,,,0,37,0,37,0,1,,,,,,,,,,,,,,,,,
297208,2022-10-07_12h50.19.165,vts_reward_expectancy,2022.2.4,MacIntel,60.0024001,Chrome,1440,900,,,,,0,630,,,,,,,,,,,,,,,,,160,S,hexagon,1,0,,,,,,,,,,,,,,,,switch,letter,lettSwt,k,1.8922,noRew,,,,,,0,38,0,38,0,1,,,,,,,,,,,,,,,,,
297208,2022-10-07_12h50.19.165,vts_reward_expectancy,2022.2.4,MacIntel,60.0024001,Chrome,1440,900,,,,,0,630,,,,,,,,,,,,,,,,,167,W,triangle,1,0,,,,,,,,,,,,,,,,switch,number,numSwt,f,1.8891,noRew,,,,,,0,39,0,39,0,1,,,,,,,,,,,,,,,,,
297208,2022-10-07_12h50.19.165,vts_reward_expectancy,2022.2.4,MacIntel,60.0024001,Chrome,1440,900,,,,,0,630,,,,,,,,,,,,,,,,,125,D,star,1,0,,,,,,,,,,,,,,,,repeat,number,numRpt,d,1.0042,noRew,,,,,,0,40,0,40,0,1,,,,,,,,,,,,,,,,,
297208,2022-10-07_12h50.19.165,vts_reward_expectancy,2022.2.4,MacIntel,60.0024001,Chrome,1440,900,,,,,0,630,,,,,,,,,,,,,,,,,174,F,triangle,1,0,,,,,,,,,,,,,,,,repeat,number,numRpt,f,2.0793,noRew,,,,,,0,41,0,41,0,1,,,,,,,,,,,,,,,,,
297208,2022-10-07_12h50.19.165,vts_reward_expectancy,2022.2.4,MacIntel,60.0024001,Chrome,1440,900,,,,,0,630,,,,,,,,,,,,,,,,,167,U,triangle,1,0,,,,,,,,,,,,,,,,switch,letter,lettSwt,k,0.7357,noRew,,,,,,0,42,0,42,0,1,,,,,,,,,,,,,,,,,
297208,2022-10-07_12h50.19.165,vts_reward_expectancy,2022.2.4,MacIntel,60.0024001,Chrome,1440,900,,,,,0,630,,,,,,,,,,,,,,,,,160,H,circle,-1,0,,,,,,,,,,,,,,,,switch,no_choice,NA,,,noRew,,,,,,0,43,0,43,0,1,,,,,,,,,,,,,,,,,
297208,2022-10-07_12h50.19.165,vts_reward_expectancy,2022.2.4,MacIntel,60.0024001,Chrome,1440,900,,,,,0,630,,,,,,,,,,,,,,,,,125,B,star,1,0,,,,,,,,,,,,,,,,switch,letter,lettSwt,j,0.6275,noRew,,,,,,0,44,0,44,0,1,,,,,,,,,,,,,,,,,
297208,2022-10-07_12h50.19.165,vts_reward_expectancy,2022.2.4,MacIntel,60.0024001,Chrome,1440,900,,,,,0,630,,,,,,,,,,,,,,,,,132,S,triangle,1,0,,,,,,,,,,,,,,,,repeat,letter,lettRpt,k,1.1661,noRew,,,,,,0,45,0,45,0,1,,,,,,,,,,,,,,,,,
297208,2022-10-07_12h50.19.165,vts_reward_expectancy,2022.2.4,MacIntel,60.0024001,Chrome,1440,900,,,,,0,630,,,,,,,,,,,,,,,,,139,Y,triangle,1,0,,,,,,,,,,,,,,,,switch,number,numSwt,d,0.9989,noRew,,,,,,0,46,0,46,0,1,,,,,,,,,,,,,,,,,
297208,2022-10-07_12h50.19.165,vts_reward_expectancy,2022.2.4,MacIntel,60.0024001,Chrome,1440,900,,,,,0,630,,,,,,,,,,,,,,,,,167,H,hexagon,1,0,,,,,,,,,,,,,,,,repeat,number,numRpt,f,0.9508,noRew,,,,,,0,47,0,47,0,1,,,,,,,,,,,,,,,,,
297208,2022-10-07_12h50.19.165,vts_reward_expectancy,2022.2.4,MacIntel,60.0024001,Chrome,1440,900,,,,,0,630,,,,,,,,,,,,,,,,,160,H,triangle,1,0,,,,,,,,,,,,,,,,repeat,number,numRpt,f,1.1295,noRew,,,,,,0,48,0,48,0,1,,,,,,,,,,,,,,,,,
297208,2022-10-07_12h50.19.165,vts_reward_expectancy,2022.2.4,MacIntel,60.0024001,Chrome,1440,900,,,,,0,630,,,,,,,,,,,,,,,,,139,B,circle,1,0,,,,,,,,,,,,,,,,repeat,number,numRpt,d,1.4806,noRew,,,,,,0,49,0,49,0,1,,,,,,,,,,,,,,,,,
297208,2022-10-07_12h50.19.165,vts_reward_expectancy,2022.2.4,MacIntel,60.0024001,Chrome,1440,900,,,,,0,630,,,,,,,,,,,,,,,,,125,Y,star,1,0,,,,,,,,,,,,,,,,switch,letter,lettSwt,k,1.5776,noRew,,,,,,0,50,0,50,0,1,,,,,,,,,,,,,,,,,
297208,2022-10-07_12h50.19.165,vts_reward_expectancy,2022.2.4,MacIntel,60.0024001,Chrome,1440,900,,,,,0,630,,,,,,,,,,,,,,,,,181,F,triangle,1,0,,,,,,,,,,,,,,,,switch,number,numSwt,f,0.9302,noRew,,,,,,0,51,0,51,0,1,,,,,,,,,,,,,,,,,
297208,2022-10-07_12h50.19.165,vts_reward_expectancy,2022.2.4,MacIntel,60.0024001,Chrome,1440,900,,,,,0,630,,,,,,,,,,,,,,,,,146,U,hexagon,1,0,,,,,,,,,,,,,,,,repeat,number,numRpt,d,1.5397,noRew,,,,,,0,52,0,52,0,1,,,,,,,,,,,,,,,,,
297208,2022-10-07_12h50.19.165,vts_reward_expectancy,2022.2.4,MacIntel,60.0024001,Chrome,1440,900,,,,,0,630,,,,,,,,,,,,,,,,,181,F,triangle,1,0,,,,,,,,,,,,,,,,switch,letter,lettSwt,j,0.8238,noRew,,,,,,0,53,0,53,0,1,,,,,,,,,,,,,,,,,
297208,2022-10-07_12h50.19.165,vts_reward_expectancy,2022.2.4,MacIntel,60.0024001,Chrome,1440,900,,,,,0,630,,,,,,,,,,,,,,,,,132,S,hexagon,1,0,,,,,,,,,,,,,,,,repeat,letter,lettRpt,k,1.079,noRew,,,,,,0,54,0,54,0,1,,,,,,,,,,,,,,,,,
297208,2022-10-07_12h50.19.165,vts_reward_expectancy,2022.2.4,MacIntel,60.0024001,Chrome,1440,900,,,,,0,630,,,,,,,,,,,,,,,,,125,B,circle,1,0,,,,,,,,,,,,,,,,switch,number,numSwt,d,0.8625,noRew,,,,,,0,55,0,55,0,1,,,,,,,,,,,,,,,,,
297208,2022-10-07_12h50.19.165,vts_reward_expectancy,2022.2.4,MacIntel,60.0024001,Chrome,1440,900,,,,,0,630,,,,,,,,,,,,,,,,,132,D,triangle,1,0,,,,,,,,,,,,,,,,repeat,number,numRpt,d,0.789,noRew,,,,,,0,56,0,56,0,1,,,,,,,,,,,,,,,,,
297208,2022-10-07_12h50.19.165,vts_reward_expectancy,2022.2.4,MacIntel,60.0024001,Chrome,1440,900,,,,,0,630,,,,,,,,,,,,,,,,,174,H,hexagon,1,0,,,,,,,,,,,,,,,,repeat,number,numRpt,f,0.8518,noRew,,,,,,0,57,0,57,0,1,,,,,,,,,,,,,,,,,
297208,2022-10-07_12h50.19.165,vts_reward_expectancy,2022.2.4,MacIntel,60.0024001,Chrome,1440,900,,,,,0,630,,,,,,,,,,,,,,,,,181,F,circle,1,0,,,,,,,,,,,,,,,,switch,letter,lettSwt,j,1.3344,noRew,,,,,,0,58,0,58,0,1,,,,,,,,,,,,,,,,,
297208,2022-10-07_12h50.19.165,vts_reward_expectancy,2022.2.4,MacIntel,60.0024001,Chrome,1440,900,,,,,0,630,,,,,,,,,,,,,,,,,160,Y,hexagon,1,0,,,,,,,,,,,,,,,,repeat,letter,lettRpt,k,0.9346,noRew,,,,,,0,59,0,59,0,1,,,,,,,,,,,,,,,,,
297208,2022-10-07_12h50.19.165,vts_reward_expectancy,2022.2.4,MacIntel,60.0024001,Chrome,1440,900,,,,,0,630,,,,,,,,,,,,,,,,,181,D,circle,1,0,,,,,,,,,,,,,,,,switch,number,numSwt,f,0.8473,noRew,,,,,,0,60,0,60,0,1,,,,,,,,,,,,,,,,,
297208,2022-10-07_12h50.19.165,vts_reward_expectancy,2022.2.4,MacIntel,60.0024001,Chrome,1440,900,,,,,0,630,,,,,,,,,,,,,,,,,146,U,triangle,1,0,,,,,,,,,,,,,,,,repeat,number,numRpt,d,0.8646,noRew,,,,,,0,61,0,61,0,1,,,,,,,,,,,,,,,,,
297208,2022-10-07_12h50.19.165,vts_reward_expectancy,2022.2.4,MacIntel,60.0024001,Chrome,1440,900,,,,,0,630,,,,,,,,,,,,,,,,,174,B,hexagon,1,0,,,,,,,,,,,,,,,,switch,letter,lettSwt,j,0.9786,noRew,,,,,,0,62,0,62,0,1,,,,,,,,,,,,,,,,,
297208,2022-10-07_12h50.19.165,vts_reward_expectancy,2022.2.4,MacIntel,60.0024001,Chrome,1440,900,,,,,0,630,,,,,,,,,,,,,,,,,125,H,triangle,1,0,,,,,,,,,,,,,,,,switch,number,numSwt,d,1.168,noRew,,,,,,0,63,0,63,0,1,,,,,,,,,,,,,,,,,
297208,2022-10-07_12h50.19.165,vts_reward_expectancy,2022.2.4,MacIntel,60.0024001,Chrome,1440,900,,,,,,,,,,,,,,,,,,,,,,,,,,,,,,,,,,,,,,,,,,,,,,,,,,,,,,,,,,,,,,,,,,,,,,,,,,,,
297208,2022-10-07_12h50.19.165,vts_reward_expectancy,2022.2.4,MacIntel,60.0024001,Chrome,1440,900,,,,,1,631,,,,,,,,,,,,,,,,,125,F,hexagon,1,0,,,,,,,,,,,,,,,,repeat,number,numRpt,d,0.6261,Lo,,,,,,0,,,,,,space,11.2195,high,0,0,0,0,1,,,,,,,,,
297208,2022-10-07_12h50.19.165,vts_reward_expectancy,2022.2.4,MacIntel,60.0024001,Chrome,1440,900,,,,,10,641,,,,,,,,,,,,,,,,,146,H,circle,1,0,,,,,,,,,,,,,,,,repeat,number,numRpt,d,0.7869,Hi,,,,,,0,,,,,,,,high,1,0,1,0,1,,,,,,,,,
297208,2022-10-07_12h50.19.165,vts_reward_expectancy,2022.2.4,MacIntel,60.0024001,Chrome,1440,900,,,,,1,642,,,,,,,,,,,,,,,,,167,W,hexagon,1,0,,,,,,,,,,,,,,,,switch,letter,lettSwt,k,0.7682,Lo,,,,,,0,,,,,,,,high,2,0,2,0,1,,,,,,,,,
297208,2022-10-07_12h50.19.165,vts_reward_expectancy,2022.2.4,MacIntel,60.0024001,Chrome,1440,900,,,,,10,652,,,,,,,,,,,,,,,,,139,D,circle,1,0,,,,,,,,,,,,,,,,switch,number,numSwt,d,0.8292,Hi,,,,,,0,,,,,,,,high,3,0,3,0,1,,,,,,,,,
297208,2022-10-07_12h50.19.165,vts_reward_expectancy,2022.2.4,MacIntel,60.0024001,Chrome,1440,900,,,,,0,652,,,,,,,,,,,,,,,,,132,Y,circle,0,0,,,,,,,,,,,,,,,,repeat,number,NA,f,0.6769,Hi,,,,,,0,,,,,,,,high,4,0,4,0,1,,,,,,,,,
297208,2022-10-07_12h50.19.165,vts_reward_expectancy,2022.2.4,MacIntel,60.0024001,Chrome,1440,900,,,,,0,652,,,,,,,,,,,,,,,,,181,B,hexagon,0,1,,,,,,,,,,,,,,,,repeat,number,NA,d,0.5373,Hi,,,,,,0,,,,,,,,high,5,0,5,0,1,,,,,,,,,
297208,2022-10-07_12h50.19.165,vts_reward_expectancy,2022.2.4,MacIntel,60.0024001,Chrome,1440,900,,,,,10,662,,,,,,,,,,,,,,,,,174,U,circle,1,1,,,,,,,,,,,,,,,,repeat,number,numRpt,f,0.7023,Hi,,,,,,0,,,,,,,,high,6,0,6,0,1,,,,,,,,,
297208,2022-10-07_12h50.19.165,vts_reward_expectancy,2022.2.4,MacIntel,60.0024001,Chrome,1440,900,,,,,1,663,,,,,,,,,,,,,,,,,160,S,hexagon,1,0,,,,,,,,,,,,,,,,repeat,number,numRpt,f,0.7453,Lo,,,,,,0,,,,,,,,high,7,0,7,0,1,,,,,,,,,
297208,2022-10-07_12h50.19.165,vts_reward_expectancy,2022.2.4,MacIntel,60.0024001,Chrome,1440,900,,,,,10,673,,,,,,,,,,,,,,,,,125,F,hexagon,1,0,,,,,,,,,,,,,,,,repeat,number,numRpt,d,0.6325,Lo,,,,,,0,,,,,,,,high,8,0,8,0,1,,,,,,,,,
297208,2022-10-07_12h50.19.165,vts_reward_expectancy,2022.2.4,MacIntel,60.0024001,Chrome,1440,900,,,,,10,683,,,,,,,,,,,,,,,,,146,H,circle,1,0,,,,,,,,,,,,,,,,repeat,number,numRpt,d,0.8116,Hi,,,,,,0,,,,,,,,high,9,0,9,0,1,,,,,,,,,
297208,2022-10-07_12h50.19.165,vts_reward_expectancy,2022.2.4,MacIntel,60.0024001,Chrome,1440,900,,,,,10,693,,,,,,,,,,,,,,,,,167,W,circle,1,0,,,,,,,,,,,,,,,,repeat,number,numRpt,f,0.6323,Hi,,,,,,0,,,,,,,,high,10,0,10,0,1,,,,,,,,,
297208,2022-10-07_12h50.19.165,vts_reward_expectancy,2022.2.4,MacIntel,60.0024001,Chrome,1440,900,,,,,1,694,,,,,,,,,,,,,,,,,139,D,hexagon,1,0,,,,,,,,,,,,,,,,switch,letter,lettSwt,j,0.723,Lo,,,,,,0,,,,,,,,high,11,0,11,0,1,,,,,,,,,
297208,2022-10-07_12h50.19.165,vts_reward_expectancy,2022.2.4,MacIntel,60.0024001,Chrome,1440,900,,,,,0,694,,,,,,,,,,,,,,,,,132,Y,circle,1,0,,,,,,,,,,,,,,,,switch,number,numSwt,d,1.1858,Hi,,,,,,0,,,,,,,,high,12,0,12,0,1,,,,,,,,,
297208,2022-10-07_12h50.19.165,vts_reward_expectancy,2022.2.4,MacIntel,60.0024001,Chrome,1440,900,,,,,1,695,,,,,,,,,,,,,,,,,181,B,hexagon,1,0,,,,,,,,,,,,,,,,repeat,number,numRpt,f,0.8118,Lo,,,,,,0,,,,,,,,high,13,0,13,0,1,,,,,,,,,
297208,2022-10-07_12h50.19.165,vts_reward_expectancy,2022.2.4,MacIntel,60.0024001,Chrome,1440,900,,,,,1,696,,,,,,,,,,,,,,,,,174,U,hexagon,1,0,,,,,,,,,,,,,,,,repeat,number,numRpt,f,0.7572,Lo,,,,,,0,,,,,,,,high,14,0,14,0,1,,,,,,,,,
297208,2022-10-07_12h50.19.165,vts_reward_expectancy,2022.2.4,MacIntel,60.0024001,Chrome,1440,900,,,,,0,696,,,,,,,,,,,,,,,,,160,S,circle,1,0,,,,,,,,,,,,,,,,repeat,number,numRpt,f,0.9265,Hi,,,,,,0,,,,,,,,high,15,0,15,0,1,,,,,,,,,
297208,2022-10-07_12h50.19.165,vts_reward_expectancy,2022.2.4,MacIntel,60.0024001,Chrome,1440,900,,,,,10,706,,,,,,,,,,,,,,,,,160,Y,circle,1,0,,,,,,,,,,,,,,,,repeat,number,numRpt,f,0.4856,Hi,,,,,,0,,,,,,,,high,16,0,16,0,1,,,,,,,,,
297208,2022-10-07_12h50.19.165,vts_reward_expectancy,2022.2.4,MacIntel,60.0024001,Chrome,1440,900,,,,,1,707,,,,,,,,,,,,,,,,,181,S,hexagon,1,0,,,,,,,,,,,,,,,,repeat,number,numRpt,f,0.5485,Lo,,,,,,0,,,,,,,,high,17,0,17,0,1,,,,,,,,,
297208,2022-10-07_12h50.19.165,vts_reward_expectancy,2022.2.4,MacIntel,60.0024001,Chrome,1440,900,,,,,10,717,,,,,,,,,,,,,,,,,174,U,hexagon,1,0,,,,,,,,,,,,,,,,switch,letter,lettSwt,k,0.5642,Lo,,,,,,0,,,,,,,,high,18,0,18,0,1,,,,,,,,,
297208,2022-10-07_12h50.19.165,vts_reward_expectancy,2022.2.4,MacIntel,60.0024001,Chrome,1440,900,,,,,10,727,,,,,,,,,,,,,,,,,146,H,circle,1,0,,,,,,,,,,,,,,,,repeat,letter,lettRpt,j,0.6106,Hi,,,,,,0,,,,,,,,high,19,0,19,0,1,,,,,,,,,
297208,2022-10-07_12h50.19.165,vts_reward_expectancy,2022.2.4,MacIntel,60.0024001,Chrome,1440,900,,,,,1,728,,,,,,,,,,,,,,,,,167,B,hexagon,1,0,,,,,,,,,,,,,,,,switch,number,numSwt,f,0.7356,Lo,,,,,,0,,,,,,,,high,20,0,20,0,1,,,,,,,,,
297208,2022-10-07_12h50.19.165,vts_reward_expectancy,2022.2.4,MacIntel,60.0024001,Chrome,1440,900,,,,,10,738,,,,,,,,,,,,,,,,,139,W,circle,1,0,,,,,,,,,,,,,,,,switch,letter,lettSwt,k,0.6606,Hi,,,,,,0,,,,,,,,high,21,0,21,0,1,,,,,,,,,
297208,2022-10-07_12h50.19.165,vts_reward_expectancy,2022.2.4,MacIntel,60.0024001,Chrome,1440,900,,,,,1,739,,,,,,,,,,,,,,,,,132,D,hexagon,1,0,,,,,,,,,,,,,,,,repeat,letter,lettRpt,j,0.6233,Lo,,,,,,0,,,,,,,,high,22,0,22,0,1,,,,,,,,,
297208,2022-10-07_12h50.19.165,vts_reward_expectancy,2022.2.4,MacIntel,60.0024001,Chrome,1440,900,,,,,0,739,,,,,,,,,,,,,,,,,125,F,circle,0,0,,,,,,,,,,,,,,,,switch,number,NA,f,0.7102,Lo,,,,,,0,,,,,,,,high,23,0,23,0,1,,,,,,,,,
297208,2022-10-07_12h50.19.165,vts_reward_expectancy,2022.2.4,MacIntel,60.0024001,Chrome,1440,900,,,,,10,749,,,,,,,,,,,,,,,,,139,H,circle,1,1,,,,,,,,,,,,,,,,repeat,number,numRpt,d,0.8006,Hi,,,,,,0,,,,,,,,high,24,0,24,0,1,,,,,,,,,
297208,2022-10-07_12h50.19.165,vts_reward_expectancy,2022.2.4,MacIntel,60.0024001,Chrome,1440,900,,,,,1,750,,,,,,,,,,,,,,,,,174,S,hexagon,1,0,,,,,,,,,,,,,,,,repeat,number,numRpt,f,1.0036,Lo,,,,,,0,,,,,,,,high,25,0,25,0,1,,,,,,,,,
297208,2022-10-07_12h50.19.165,vts_reward_expectancy,2022.2.4,MacIntel,60.0024001,Chrome,1440,900,,,,,1,751,,,,,,,,,,,,,,,,,132,Y,hexagon,1,0,,,,,,,,,,,,,,,,repeat,number,numRpt,d,0.8871,Lo,,,,,,0,,,,,,,,high,26,0,26,0,1,,,,,,,,,
297208,2022-10-07_12h50.19.165,vts_reward_expectancy,2022.2.4,MacIntel,60.0024001,Chrome,1440,900,,,,,10,761,,,,,,,,,,,,,,,,,181,D,circle,1,0,,,,,,,,,,,,,,,,repeat,number,numRpt,f,0.7167,Hi,,,,,,0,,,,,,,,high,27,0,27,0,1,,,,,,,,,
297208,2022-10-07_12h50.19.165,vts_reward_expectancy,2022.2.4,MacIntel,60.0024001,Chrome,1440,900,,,,,1,762,,,,,,,,,,,,,,,,,146,W,hexagon,1,0,,,,,,,,,,,,,,,,repeat,number,numRpt,d,0.5933,Lo,,,,,,0,,,,,,,,high,28,0,28,0,1,,,,,,,,,
297208,2022-10-07_12h50.19.165,vts_reward_expectancy,2022.2.4,MacIntel,60.0024001,Chrome,1440,900,,,,,10,772,,,,,,,,,,,,,,,,,167,B,circle,1,0,,,,,,,,,,,,,,,,repeat,number,numRpt,f,0.8598,Hi,,,,,,0,,,,,,,,high,29,0,29,0,1,,,,,,,,,
297208,2022-10-07_12h50.19.165,vts_reward_expectancy,2022.2.4,MacIntel,60.0024001,Chrome,1440,900,,,,,10,782,,,,,,,,,,,,,,,,,125,U,circle,1,0,,,,,,,,,,,,,,,,repeat,number,numRpt,d,0.775,Hi,,,,,,0,,,,,,,,high,30,0,30,0,1,,,,,,,,,
297208,2022-10-07_12h50.19.165,vts_reward_expectancy,2022.2.4,MacIntel,60.0024001,Chrome,1440,900,,,,,1,783,,,,,,,,,,,,,,,,,160,F,hexagon,1,0,,,,,,,,,,,,,,,,repeat,number,numRpt,f,1.2616,Lo,,,,,,0,,,,,,,,high,31,0,31,0,1,,,,,,,,,
297208,2022-10-07_12h50.19.165,vts_reward_expectancy,2022.2.4,MacIntel,60.0024001,Chrome,1440,900,,,,,0,783,,,,,,,,,,,,,,,,,167,Y,circle,0,0,,,,,,,,,,,,,,,,repeat,number,NA,d,0.6141,Lo,,,,,,1,,,,,,space,4.1991,high,0,0,0,0,1,,,,,,,,,
297208,2022-10-07_12h50.19.165,vts_reward_expectancy,2022.2.4,MacIntel,60.0024001,Chrome,1440,900,,,,,1,784,,,,,,,,,,,,,,,,,146,D,hexagon,1,1,,,,,,,,,,,,,,,,repeat,number,numRpt,d,0.4981,Lo,,,,,,1,,,,,,,,high,1,0,1,0,1,,,,,,,,,
297208,2022-10-07_12h50.19.165,vts_reward_expectancy,2022.2.4,MacIntel,60.0024001,Chrome,1440,900,,,,,10,794,,,,,,,,,,,,,,,,,132,W,circle,1,0,,,,,,,,,,,,,,,,switch,letter,lettSwt,k,0.5094,Hi,,,,,,1,,,,,,,,high,2,0,2,0,1,,,,,,,,,
297208,2022-10-07_12h50.19.165,vts_reward_expectancy,2022.2.4,MacIntel,60.0024001,Chrome,1440,900,,,,,10,804,,,,,,,,,,,,,,,,,160,B,hexagon,1,0,,,,,,,,,,,,,,,,switch,number,numSwt,f,0.844,Lo,,,,,,1,,,,,,,,high,3,0,3,0,1,,,,,,,,,
297208,2022-10-07_12h50.19.165,vts_reward_expectancy,2022.2.4,MacIntel,60.0024001,Chrome,1440,900,,,,,1,805,,,,,,,,,,,,,,,,,181,U,hexagon,1,0,,,,,,,,,,,,,,,,repeat,number,numRpt,f,0.5097,Lo,,,,,,1,,,,,,,,high,4,0,4,0,1,,,,,,,,,
297208,2022-10-07_12h50.19.165,vts_reward_expectancy,2022.2.4,MacIntel,60.0024001,Chrome,1440,900,,,,,0,805,,,,,,,,,,,,,,,,,139,H,circle,1,0,,,,,,,,,,,,,,,,repeat,number,numRpt,d,0.7113,Hi,,,,,,1,,,,,,,,high,5,0,5,0,1,,,,,,,,,
297208,2022-10-07_12h50.19.165,vts_reward_expectancy,2022.2.4,MacIntel,60.0024001,Chrome,1440,900,,,,,1,806,,,,,,,,,,,,,,,,,125,F,hexagon,1,0,,,,,,,,,,,,,,,,repeat,number,numRpt,d,0.4596,Lo,,,,,,1,,,,,,,,high,6,0,6,0,1,,,,,,,,,
297208,2022-10-07_12h50.19.165,vts_reward_expectancy,2022.2.4,MacIntel,60.0024001,Chrome,1440,900,,,,,1,807,,,,,,,,,,,,,,,,,174,S,circle,1,0,,,,,,,,,,,,,,,,repeat,number,numRpt,f,0.6297,Hi,,,,,,1,,,,,,,,high,7,0,7,0,1,,,,,,,,,
297208,2022-10-07_12h50.19.165,vts_reward_expectancy,2022.2.4,MacIntel,60.0024001,Chrome,1440,900,,,,,10,817,,,,,,,,,,,,,,,,,167,Y,circle,1,0,,,,,,,,,,,,,,,,repeat,number,numRpt,f,0.6225,Hi,,,,,,1,,,,,,,,high,8,0,8,0,1,,,,,,,,,
297208,2022-10-07_12h50.19.165,vts_reward_expectancy,2022.2.4,MacIntel,60.0024001,Chrome,1440,900,,,,,0,817,,,,,,,,,,,,,,,,,146,D,hexagon,0,0,,,,,,,,,,,,,,,,repeat,number,NA,f,0.5804,Hi,,,,,,1,,,,,,,,high,9,0,9,0,1,,,,,,,,,
297208,2022-10-07_12h50.19.165,vts_reward_expectancy,2022.2.4,MacIntel,60.0024001,Chrome,1440,900,,,,,1,818,,,,,,,,,,,,,,,,,132,W,hexagon,1,1,,,,,,,,,,,,,,,,switch,letter,lettSwt,k,0.5473,Lo,,,,,,1,,,,,,,,high,10,0,10,0,1,,,,,,,,,
297208,2022-10-07_12h50.19.165,vts_reward_expectancy,2022.2.4,MacIntel,60.0024001,Chrome,1440,900,,,,,1,819,,,,,,,,,,,,,,,,,160,B,circle,1,0,,,,,,,,,,,,,,,,repeat,letter,lettRpt,j,0.4971,Hi,,,,,,1,,,,,,,,high,11,0,11,0,1,,,,,,,,,
297208,2022-10-07_12h50.19.165,vts_reward_expectancy,2022.2.4,MacIntel,60.0024001,Chrome,1440,900,,,,,10,829,,,,,,,,,,,,,,,,,181,U,circle,1,0,,,,,,,,,,,,,,,,repeat,letter,lettRpt,k,0.4609,Hi,,,,,,1,,,,,,,,high,12,0,12,0,1,,,,,,,,,
297208,2022-10-07_12h50.19.165,vts_reward_expectancy,2022.2.4,MacIntel,60.0024001,Chrome,1440,900,,,,,1,830,,,,,,,,,,,,,,,,,139,H,hexagon,1,0,,,,,,,,,,,,,,,,repeat,letter,lettRpt,j,0.5609,Lo,,,,,,1,,,,,,,,high,13,0,13,0,1,,,,,,,,,
297208,2022-10-07_12h50.19.165,vts_reward_expectancy,2022.2.4,MacIntel,60.0024001,Chrome,1440,900,,,,,10,840,,,,,,,,,,,,,,,,,125,F,hexagon,1,0,,,,,,,,,,,,,,,,switch,number,numSwt,d,0.5475,Lo,,,,,,1,,,,,,,,high,14,0,14,0,1,,,,,,,,,
297208,2022-10-07_12h50.19.165,vts_reward_expectancy,2022.2.4,MacIntel,60.0024001,Chrome,1440,900,,,,,10,850,,,,,,,,,,,,,,,,,174,S,circle,1,0,,,,,,,,,,,,,,,,repeat,number,numRpt,f,0.429,Hi,,,,,,1,,,,,,,,high,15,0,15,0,1,,,,,,,,,
297208,2022-10-07_12h50.19.165,vts_reward_expectancy,2022.2.4,MacIntel,60.0024001,Chrome,1440,900,,,,,0,850,,,,,,,,,,,,,,,,,160,W,circle,1,0,,,,,,,,,,,,,,,,repeat,number,numRpt,f,0.7679,Hi,,,,,,1,,,,,,,,high,16,0,16,0,1,,,,,,,,,
297208,2022-10-07_12h50.19.165,vts_reward_expectancy,2022.2.4,MacIntel,60.0024001,Chrome,1440,900,,,,,1,851,,,,,,,,,,,,,,,,,181,S,hexagon,1,0,,,,,,,,,,,,,,,,repeat,number,numRpt,f,0.5649,Lo,,,,,,1,,,,,,,,high,17,0,17,0,1,,,,,,,,,
297208,2022-10-07_12h50.19.165,vts_reward_expectancy,2022.2.4,MacIntel,60.0024001,Chrome,1440,900,,,,,10,861,,,,,,,,,,,,,,,,,139,Y,circle,1,0,,,,,,,,,,,,,,,,repeat,number,numRpt,d,0.5099,Hi,,,,,,1,,,,,,,,high,18,0,18,0,1,,,,,,,,,
297208,2022-10-07_12h50.19.165,vts_reward_expectancy,2022.2.4,MacIntel,60.0024001,Chrome,1440,900,,,,,10,871,,,,,,,,,,,,,,,,,125,H,hexagon,1,0,,,,,,,,,,,,,,,,switch,letter,lettSwt,j,0.6137,Lo,,,,,,1,,,,,,,,high,19,0,19,0,1,,,,,,,,,
297208,2022-10-07_12h50.19.165,vts_reward_expectancy,2022.2.4,MacIntel,60.0024001,Chrome,1440,900,,,,,0,871,,,,,,,,,,,,,,,,,146,F,circle,0,0,,,,,,,,,,,,,,,,repeat,letter,NA,k,0.5718,Lo,,,,,,1,,,,,,,,high,20,0,20,0,1,,,,,,,,,
297208,2022-10-07_12h50.19.165,vts_reward_expectancy,2022.2.4,MacIntel,60.0024001,Chrome,1440,900,,,,,1,872,,,,,,,,,,,,,,,,,167,B,hexagon,1,1,,,,,,,,,,,,,,,,repeat,letter,lettRpt,j,0.7291,Lo,,,,,,1,,,,,,,,high,21,0,21,0,1,,,,,,,,,
297208,2022-10-07_12h50.19.165,vts_reward_expectancy,2022.2.4,MacIntel,60.0024001,Chrome,1440,900,,,,,1,873,,,,,,,,,,,,,,,,,132,D,hexagon,1,0,,,,,,,,,,,,,,,,repeat,letter,lettRpt,j,0.6135,Lo,,,,,,1,,,,,,,,high,22,0,22,0,1,,,,,,,,,
297208,2022-10-07_12h50.19.165,vts_reward_expectancy,2022.2.4,MacIntel,60.0024001,Chrome,1440,900,,,,,10,883,,,,,,,,,,,,,,,,,174,U,circle,1,0,,,,,,,,,,,,,,,,switch,number,numSwt,f,0.5416,Hi,,,,,,1,,,,,,,,high,23,0,23,0,1,,,,,,,,,
297208,2022-10-07_12h50.19.165,vts_reward_expectancy,2022.2.4,MacIntel,60.0024001,Chrome,1440,900,,,,,1,884,,,,,,,,,,,,,,,,,181,Y,circle,1,0,,,,,,,,,,,,,,,,repeat,number,numRpt,f,0.4749,Hi,,,,,,1,,,,,,,,high,24,0,24,0,1,,,,,,,,,
297208,2022-10-07_12h50.19.165,vts_reward_expectancy,2022.2.4,MacIntel,60.0024001,Chrome,1440,900,,,,,1,885,,,,,,,,,,,,,,,,,139,S,hexagon,1,0,,,,,,,,,,,,,,,,repeat,number,numRpt,d,0.3905,Lo,,,,,,1,,,,,,,,high,25,0,25,0,1,,,,,,,,,
297208,2022-10-07_12h50.19.165,vts_reward_expectancy,2022.2.4,MacIntel,60.0024001,Chrome,1440,900,,,,,10,895,,,,,,,,,,,,,,,,,132,H,circle,1,0,,,,,,,,,,,,,,,,repeat,number,numRpt,d,0.5148,Hi,,,,,,1,,,,,,,,high,26,0,26,0,1,,,,,,,,,
297208,2022-10-07_12h50.19.165,vts_reward_expectancy,2022.2.4,MacIntel,60.0024001,Chrome,1440,900,,,,,1,896,,,,,,,,,,,,,,,,,146,B,hexagon,1,0,,,,,,,,,,,,,,,,repeat,number,numRpt,d,0.5628,Lo,,,,,,1,,,,,,,,high,27,0,27,0,1,,,,,,,,,
297208,2022-10-07_12h50.19.165,vts_reward_expectancy,2022.2.4,MacIntel,60.0024001,Chrome,1440,900,,,,,1,897,,,,,,,,,,,,,,,,,125,W,circle,1,0,,,,,,,,,,,,,,,,repeat,number,numRpt,d,0.596,Hi,,,,,,1,,,,,,,,high,28,0,28,0,1,,,,,,,,,
297208,2022-10-07_12h50.19.165,vts_reward_expectancy,2022.2.4,MacIntel,60.0024001,Chrome,1440,900,,,,,1,898,,,,,,,,,,,,,,,,,174,F,hexagon,1,0,,,,,,,,,,,,,,,,switch,letter,lettSwt,j,0.4119,Lo,,,,,,1,,,,,,,,high,29,0,29,0,1,,,,,,,,,
297208,2022-10-07_12h50.19.165,vts_reward_expectancy,2022.2.4,MacIntel,60.0024001,Chrome,1440,900,,,,,1,899,,,,,,,,,,,,,,,,,167,U,hexagon,1,0,,,,,,,,,,,,,,,,repeat,letter,lettRpt,k,0.7984,Lo,,,,,,1,,,,,,,,high,30,0,30,0,1,,,,,,,,,
297208,2022-10-07_12h50.19.165,vts_reward_expectancy,2022.2.4,MacIntel,60.0024001,Chrome,1440,900,,,,,10,909,,,,,,,,,,,,,,,,,160,D,circle,1,0,,,,,,,,,,,,,,,,repeat,letter,lettRpt,j,0.5288,Hi,,,,,,1,,,,,,,,high,31,0,31,0,1,,,,,,,,,
297208,2022-10-07_12h50.19.165,vts_reward_expectancy,2022.2.4,MacIntel,60.0024001,Chrome,1440,900,,,,,0,909,,,,,,,,,,,,,,,,,132,B,triangle,0,0,,,,,,,,,,,,,,,,switch,number,NA,f,0.5067,Hi,,,,,,2,,,,,,space,1.7727,low,0,0,0,0,1,,,,,,,,,
297208,2022-10-07_12h50.19.165,vts_reward_expectancy,2022.2.4,MacIntel,60.0024001,Chrome,1440,900,,,,,0,909,,,,,,,,,,,,,,,,,125,Y,star,1,1,,,,,,,,,,,,,,,,repeat,number,numRpt,d,0.5409,Hi,,,,,,2,,,,,,,,low,1,0,1,0,1,,,,,,,,,
297208,2022-10-07_12h50.19.165,vts_reward_expectancy,2022.2.4,MacIntel,60.0024001,Chrome,1440,900,,,,,1,910,,,,,,,,,,,,,,,,,181,H,triangle,1,0,,,,,,,,,,,,,,,,repeat,number,numRpt,f,0.5209,Lo,,,,,,2,,,,,,,,low,2,0,2,0,1,,,,,,,,,
297208,2022-10-07_12h50.19.165,vts_reward_expectancy,2022.2.4,MacIntel,60.0024001,Chrome,1440,900,,,,,10,920,,,,,,,,,,,,,,,,,167,W,star,1,0,,,,,,,,,,,,,,,,switch,letter,lettSwt,k,0.4087,Hi,,,,,,2,,,,,,,,low,3,0,3,0,1,,,,,,,,,
297208,2022-10-07_12h50.19.165,vts_reward_expectancy,2022.2.4,MacIntel,60.0024001,Chrome,1440,900,,,,,10,930,,,,,,,,,,,,,,,,,139,F,star,1,0,,,,,,,,,,,,,,,,repeat,letter,lettRpt,j,0.5105,Hi,,,,,,2,,,,,,,,low,4,0,4,0,1,,,,,,,,,
297208,2022-10-07_12h50.19.165,vts_reward_expectancy,2022.2.4,MacIntel,60.0024001,Chrome,1440,900,,,,,10,940,,,,,,,,,,,,,,,,,146,S,triangle,1,0,,,,,,,,,,,,,,,,switch,number,numSwt,d,0.5309,Lo,,,,,,2,,,,,,,,low,5,0,5,0,1,,,,,,,,,
297208,2022-10-07_12h50.19.165,vts_reward_expectancy,2022.2.4,MacIntel,60.0024001,Chrome,1440,900,,,,,1,941,,,,,,,,,,,,,,,,,174,D,triangle,1,0,,,,,,,,,,,,,,,,repeat,number,numRpt,f,0.6624,Lo,,,,,,2,,,,,,,,low,6,0,6,0,1,,,,,,,,,
297208,2022-10-07_12h50.19.165,vts_reward_expectancy,2022.2.4,MacIntel,60.0024001,Chrome,1440,900,,,,,0,941,,,,,,,,,,,,,,,,,160,U,star,0,0,,,,,,,,,,,,,,,,repeat,number,NA,d,0.6406,Lo,,,,,,2,,,,,,,,low,7,0,7,0,1,,,,,,,,,
297208,2022-10-07_12h50.19.165,vts_reward_expectancy,2022.2.4,MacIntel,60.0024001,Chrome,1440,900,,,,,1,942,,,,,,,,,,,,,,,,,132,B,star,1,1,,,,,,,,,,,,,,,,repeat,number,numRpt,d,0.4836,Hi,,,,,,2,,,,,,,,low,8,0,8,0,1,,,,,,,,,
297208,2022-10-07_12h50.19.165,vts_reward_expectancy,2022.2.4,MacIntel,60.0024001,Chrome,1440,900,,,,,10,952,,,,,,,,,,,,,,,,,125,Y,triangle,1,0,,,,,,,,,,,,,,,,switch,letter,lettSwt,k,0.5462,Lo,,,,,,2,,,,,,,,low,9,0,9,0,1,,,,,,,,,
297208,2022-10-07_12h50.19.165,vts_reward_expectancy,2022.2.4,MacIntel,60.0024001,Chrome,1440,900,,,,,0,952,,,,,,,,,,,,,,,,,181,H,star,1,0,,,,,,,,,,,,,,,,repeat,letter,lettRpt,j,0.804,Hi,,,,,,2,,,,,,,,low,10,0,10,0,1,,,,,,,,,
297208,2022-10-07_12h50.19.165,vts_reward_expectancy,2022.2.4,MacIntel,60.0024001,Chrome,1440,900,,,,,1,953,,,,,,,,,,,,,,,,,167,W,triangle,1,0,,,,,,,,,,,,,,,,repeat,letter,lettRpt,k,0.6943,Lo,,,,,,2,,,,,,,,low,11,0,11,0,1,,,,,,,,,
297208,2022-10-07_12h50.19.165,vts_reward_expectancy,2022.2.4,MacIntel,60.0024001,Chrome,1440,900,,,,,1,954,,,,,,,,,,,,,,,,,139,F,triangle,1,0,,,,,,,,,,,,,,,,repeat,letter,lettRpt,j,0.5072,Lo,,,,,,2,,,,,,,,low,12,0,12,0,1,,,,,,,,,
297208,2022-10-07_12h50.19.165,vts_reward_expectancy,2022.2.4,MacIntel,60.0024001,Chrome,1440,900,,,,,0,954,,,,,,,,,,,,,,,,,146,S,star,0,0,,,,,,,,,,,,,,,,switch,number,NA,f,0.6442,Lo,,,,,,2,,,,,,,,low,13,0,13,0,1,,,,,,,,,
297208,2022-10-07_12h50.19.165,vts_reward_expectancy,2022.2.4,MacIntel,60.0024001,Chrome,1440,900,,,,,1,955,,,,,,,,,,,,,,,,,174,D,triangle,1,1,,,,,,,,,,,,,,,,repeat,number,numRpt,f,0.5496,Lo,,,,,,2,,,,,,,,low,14,0,14,0,1,,,,,,,,,
297208,2022-10-07_12h50.19.165,vts_reward_expectancy,2022.2.4,MacIntel,60.0024001,Chrome,1440,900,,,,,10,965,,,,,,,,,,,,,,,,,160,U,star,1,0,,,,,,,,,,,,,,,,repeat,number,numRpt,f,0.4574,Hi,,,,,,2,,,,,,,,low,15,0,15,0,1,,,,,,,,,
297208,2022-10-07_12h50.19.165,vts_reward_expectancy,2022.2.4,MacIntel,60.0024001,Chrome,1440,900,,,,,1,966,,,,,,,,,,,,,,,,,125,U,triangle,1,0,,,,,,,,,,,,,,,,repeat,number,numRpt,d,0.4936,Lo,,,,,,2,,,,,,,,low,16,0,16,0,1,,,,,,,,,
297208,2022-10-07_12h50.19.165,vts_reward_expectancy,2022.2.4,MacIntel,60.0024001,Chrome,1440,900,,,,,0,966,,,,,,,,,,,,,,,,,146,Y,star,1,0,,,,,,,,,,,,,,,,switch,letter,lettSwt,k,0.9383,Hi,,,,,,2,,,,,,,,low,17,0,17,0,1,,,,,,,,,
297208,2022-10-07_12h50.19.165,vts_reward_expectancy,2022.2.4,MacIntel,60.0024001,Chrome,1440,900,,,,,0,966,,,,,,,,,,,,,,,,,160,D,star,1,0,,,,,,,,,,,,,,,,repeat,letter,lettRpt,j,0.5436,Hi,,,,,,2,,,,,,,,low,18,0,18,0,1,,,,,,,,,
297208,2022-10-07_12h50.19.165,vts_reward_expectancy,2022.2.4,MacIntel,60.0024001,Chrome,1440,900,,,,,1,967,,,,,,,,,,,,,,,,,132,W,triangle,1,0,,,,,,,,,,,,,,,,repeat,letter,lettRpt,k,0.5118,Lo,,,,,,2,,,,,,,,low,19,0,19,0,1,,,,,,,,,
297208,2022-10-07_12h50.19.165,vts_reward_expectancy,2022.2.4,MacIntel,60.0024001,Chrome,1440,900,,,,,1,968,,,,,,,,,,,,,,,,,181,B,triangle,1,0,,,,,,,,,,,,,,,,repeat,letter,lettRpt,j,0.5422,Lo,,,,,,2,,,,,,,,low,20,0,20,0,1,,,,,,,,,
297208,2022-10-07_12h50.19.165,vts_reward_expectancy,2022.2.4,MacIntel,60.0024001,Chrome,1440,900,,,,,10,978,,,,,,,,,,,,,,,,,174,S,star,1,0,,,,,,,,,,,,,,,,switch,number,numSwt,f,0.5247,Hi,,,,,,2,,,,,,,,low,21,0,21,0,1,,,,,,,,,
297208,2022-10-07_12h50.19.165,vts_reward_expectancy,2022.2.4,MacIntel,60.0024001,Chrome,1440,900,,,,,10,988,,,,,,,,,,,,,,,,,139,F,triangle,1,0,,,,,,,,,,,,,,,,repeat,number,numRpt,d,0.5923,Lo,,,,,,2,,,,,,,,low,22,0,22,0,1,,,,,,,,,
297208,2022-10-07_12h50.19.165,vts_reward_expectancy,2022.2.4,MacIntel,60.0024001,Chrome,1440,900,,,,,10,998,,,,,,,,,,,,,,,,,167,H,star,1,0,,,,,,,,,,,,,,,,repeat,number,numRpt,f,0.4271,Hi,,,,,,2,,,,,,,,low,23,0,23,0,1,,,,,,,,,
297208,2022-10-07_12h50.19.165,vts_reward_expectancy,2022.2.4,MacIntel,60.0024001,Chrome,1440,900,,,,,10,1008,,,,,,,,,,,,,,,,,125,H,star,1,0,,,,,,,,,,,,,,,,repeat,number,numRpt,d,0.4,Hi,,,,,,2,,,,,,,,low,24,0,24,0,1,,,,,,,,,
297208,2022-10-07_12h50.19.165,vts_reward_expectancy,2022.2.4,MacIntel,60.0024001,Chrome,1440,900,,,,,10,1018,,,,,,,,,,,,,,,,,146,S,triangle,1,0,,,,,,,,,,,,,,,,repeat,number,numRpt,d,0.5474,Lo,,,,,,2,,,,,,,,low,25,0,25,0,1,,,,,,,,,
297208,2022-10-07_12h50.19.165,vts_reward_expectancy,2022.2.4,MacIntel,60.0024001,Chrome,1440,900,,,,,0,1018,,,,,,,,,,,,,,,,,160,W,star,1,0,,,,,,,,,,,,,,,,repeat,number,numRpt,f,0.5156,Hi,,,,,,2,,,,,,,,low,26,0,26,0,1,,,,,,,,,
297208,2022-10-07_12h50.19.165,vts_reward_expectancy,2022.2.4,MacIntel,60.0024001,Chrome,1440,900,,,,,10,1028,,,,,,,,,,,,,,,,,167,Y,triangle,1,0,,,,,,,,,,,,,,,,repeat,number,numRpt,f,0.3894,Lo,,,,,,2,,,,,,,,low,27,0,27,0,1,,,,,,,,,
297208,2022-10-07_12h50.19.165,vts_reward_expectancy,2022.2.4,MacIntel,60.0024001,Chrome,1440,900,,,,,1,1029,,,,,,,,,,,,,,,,,132,U,triangle,1,0,,,,,,,,,,,,,,,,repeat,number,numRpt,d,0.4925,Lo,,,,,,2,,,,,,,,low,28,0,28,0,1,,,,,,,,,
297208,2022-10-07_12h50.19.165,vts_reward_expectancy,2022.2.4,MacIntel,60.0024001,Chrome,1440,900,,,,,1,1030,,,,,,,,,,,,,,,,,139,F,star,1,0,,,,,,,,,,,,,,,,repeat,number,numRpt,d,0.4448,Hi,,,,,,2,,,,,,,,low,29,0,29,0,1,,,,,,,,,
297208,2022-10-07_12h50.19.165,vts_reward_expectancy,2022.2.4,MacIntel,60.0024001,Chrome,1440,900,,,,,10,1040,,,,,,,,,,,,,,,,,174,D,star,1,0,,,,,,,,,,,,,,,,repeat,number,numRpt,f,0.4639,Hi,,,,,,2,,,,,,,,low,30,0,30,0,1,,,,,,,,,
297208,2022-10-07_12h50.19.165,vts_reward_expectancy,2022.2.4,MacIntel,60.0024001,Chrome,1440,900,,,,,1,1041,,,,,,,,,,,,,,,,,181,B,triangle,1,0,,,,,,,,,,,,,,,,repeat,number,numRpt,f,0.5325,Lo,,,,,,2,,,,,,,,low,31,0,31,0,1,,,,,,,,,
297208,2022-10-07_12h50.19.165,vts_reward_expectancy,2022.2.4,MacIntel,60.0024001,Chrome,1440,900,,,,,1,1042,,,,,,,,,,,,,,,,,132,H,triangle,1,0,,,,,,,,,,,,,,,,repeat,number,numRpt,d,0.7575,Lo,,,,,,3,,,,,,space,2.7371,low,0,0,0,0,1,,,,,,,,,
297208,2022-10-07_12h50.19.165,vts_reward_expectancy,2022.2.4,MacIntel,60.0024001,Chrome,1440,900,,,,,10,1052,,,,,,,,,,,,,,,,,167,Y,star,1,0,,,,,,,,,,,,,,,,repeat,number,numRpt,f,0.4404,Hi,,,,,,3,,,,,,,,low,1,0,1,0,1,,,,,,,,,
297208,2022-10-07_12h50.19.165,vts_reward_expectancy,2022.2.4,MacIntel,60.0024001,Chrome,1440,900,,,,,10,1062,,,,,,,,,,,,,,,,,181,S,triangle,1,0,,,,,,,,,,,,,,,,switch,letter,lettSwt,k,0.6407,Lo,,,,,,3,,,,,,,,low,2,0,2,0,1,,,,,,,,,
297208,2022-10-07_12h50.19.165,vts_reward_expectancy,2022.2.4,MacIntel,60.0024001,Chrome,1440,900,,,,,10,1072,,,,,,,,,,,,,,,,,139,W,star,1,0,,,,,,,,,,,,,,,,switch,number,numSwt,d,0.4454,Hi,,,,,,3,,,,,,,,low,3,0,3,0,1,,,,,,,,,
297208,2022-10-07_12h50.19.165,vts_reward_expectancy,2022.2.4,MacIntel,60.0024001,Chrome,1440,900,,,,,0,1072,,,,,,,,,,,,,,,,,146,D,star,1,0,,,,,,,,,,,,,,,,switch,letter,lettSwt,j,0.5601,Hi,,,,,,3,,,,,,,,low,4,0,4,0,1,,,,,,,,,
297208,2022-10-07_12h50.19.165,vts_reward_expectancy,2022.2.4,MacIntel,60.0024001,Chrome,1440,900,,,,,1,1073,,,,,,,,,,,,,,,,,174,B,triangle,1,0,,,,,,,,,,,,,,,,repeat,letter,lettRpt,j,0.4769,Lo,,,,,,3,,,,,,,,low,5,0,5,0,1,,,,,,,,,
297208,2022-10-07_12h50.19.165,vts_reward_expectancy,2022.2.4,MacIntel,60.0024001,Chrome,1440,900,,,,,1,1074,,,,,,,,,,,,,,,,,125,F,star,1,0,,,,,,,,,,,,,,,,switch,number,numSwt,d,0.4737,Hi,,,,,,3,,,,,,,,low,6,0,6,0,1,,,,,,,,,
297208,2022-10-07_12h50.19.165,vts_reward_expectancy,2022.2.4,MacIntel,60.0024001,Chrome,1440,900,,,,,1,1075,,,,,,,,,,,,,,,,,160,U,triangle,1,0,,,,,,,,,,,,,,,,repeat,number,numRpt,f,0.4707,Lo,,,,,,3,,,,,,,,low,7,0,7,0,1,,,,,,,,,
297208,2022-10-07_12h50.19.165,vts_reward_expectancy,2022.2.4,MacIntel,60.0024001,Chrome,1440,900,,,,,10,1085,,,,,,,,,,,,,,,,,132,H,triangle,1,0,,,,,,,,,,,,,,,,repeat,number,numRpt,d,0.4234,Lo,,,,,,3,,,,,,,,low,8,0,8,0,1,,,,,,,,,
297208,2022-10-07_12h50.19.165,vts_reward_expectancy,2022.2.4,MacIntel,60.0024001,Chrome,1440,900,,,,,0,1085,,,,,,,,,,,,,,,,,167,Y,star,1,0,,,,,,,,,,,,,,,,switch,letter,lettSwt,k,0.6654,Hi,,,,,,3,,,,,,,,low,9,0,9,0,1,,,,,,,,,
297208,2022-10-07_12h50.19.165,vts_reward_expectancy,2022.2.4,MacIntel,60.0024001,Chrome,1440,900,,,,,10,1095,,,,,,,,,,,,,,,,,181,S,triangle,1,0,,,,,,,,,,,,,,,,repeat,letter,lettRpt,k,0.6036,Lo,,,,,,3,,,,,,,,low,10,0,10,0,1,,,,,,,,,
297208,2022-10-07_12h50.19.165,vts_reward_expectancy,2022.2.4,MacIntel,60.0024001,Chrome,1440,900,,,,,0,1095,,,,,,,,,,,,,,,,,139,W,star,0,0,,,,,,,,,,,,,,,,repeat,letter,NA,j,0.8522,Lo,,,,,,3,,,,,,,,low,11,0,11,0,1,,,,,,,,,
297208,2022-10-07_12h50.19.165,vts_reward_expectancy,2022.2.4,MacIntel,60.0024001,Chrome,1440,900,,,,,0,1095,,,,,,,,,,,,,,,,,146,D,star,1,1,,,,,,,,,,,,,,,,switch,number,numSwt,d,0.7373,Hi,,,,,,3,,,,,,,,low,12,0,12,0,1,,,,,,,,,
297208,2022-10-07_12h50.19.165,vts_reward_expectancy,2022.2.4,MacIntel,60.0024001,Chrome,1440,900,,,,,1,1096,,,,,,,,,,,,,,,,,174,B,triangle,1,0,,,,,,,,,,,,,,,,repeat,number,numRpt,f,0.5072,Lo,,,,,,3,,,,,,,,low,13,0,13,0,1,,,,,,,,,
297208,2022-10-07_12h50.19.165,vts_reward_expectancy,2022.2.4,MacIntel,60.0024001,Chrome,1440,900,,,,,10,1106,,,,,,,,,,,,,,,,,125,F,triangle,1,0,,,,,,,,,,,,,,,,repeat,number,numRpt,d,0.422,Lo,,,,,,3,,,,,,,,low,14,0,14,0,1,,,,,,,,,
297208,2022-10-07_12h50.19.165,vts_reward_expectancy,2022.2.4,MacIntel,60.0024001,Chrome,1440,900,,,,,0,1106,,,,,,,,,,,,,,,,,160,U,star,1,0,,,,,,,,,,,,,,,,repeat,number,numRpt,f,0.6577,Hi,,,,,,3,,,,,,,,low,15,0,15,0,1,,,,,,,,,
297208,2022-10-07_12h50.19.165,vts_reward_expectancy,2022.2.4,MacIntel,60.0024001,Chrome,1440,900,,,,,0,1106,,,,,,,,,,,,,,,,,167,F,star,1,0,,,,,,,,,,,,,,,,switch,letter,lettSwt,j,0.5744,Hi,,,,,,3,,,,,,,,low,16,0,16,0,1,,,,,,,,,
297208,2022-10-07_12h50.19.165,vts_reward_expectancy,2022.2.4,MacIntel,60.0024001,Chrome,1440,900,,,,,1,1107,,,,,,,,,,,,,,,,,139,S,triangle,1,0,,,,,,,,,,,,,,,,switch,number,numSwt,d,0.6717,Lo,,,,,,3,,,,,,,,low,17,0,17,0,1,,,,,,,,,
297208,2022-10-07_12h50.19.165,vts_reward_expectancy,2022.2.4,MacIntel,60.0024001,Chrome,1440,900,,,,,0,1107,,,,,,,,,,,,,,,,,132,W,star,1,0,,,,,,,,,,,,,,,,repeat,number,numRpt,d,0.4826,Hi,,,,,,3,,,,,,,,low,18,0,18,0,1,,,,,,,,,
297208,2022-10-07_12h50.19.165,vts_reward_expectancy,2022.2.4,MacIntel,60.0024001,Chrome,1440,900,,,,,1,1108,,,,,,,,,,,,,,,,,125,B,triangle,1,0,,,,,,,,,,,,,,,,repeat,number,numRpt,d,0.4859,Lo,,,,,,3,,,,,,,,low,19,0,19,0,1,,,,,,,,,
297208,2022-10-07_12h50.19.165,vts_reward_expectancy,2022.2.4,MacIntel,60.0024001,Chrome,1440,900,,,,,1,1109,,,,,,,,,,,,,,,,,181,U,star,1,0,,,,,,,,,,,,,,,,repeat,number,numRpt,f,0.4411,Hi,,,,,,3,,,,,,,,low,20,0,20,0,1,,,,,,,,,
297208,2022-10-07_12h50.19.165,vts_reward_expectancy,2022.2.4,MacIntel,60.0024001,Chrome,1440,900,,,,,1,1110,,,,,,,,,,,,,,,,,146,H,triangle,1,0,,,,,,,,,,,,,,,,repeat,number,numRpt,d,0.5073,Lo,,,,,,3,,,,,,,,low,21,0,21,0,1,,,,,,,,,
297208,2022-10-07_12h50.19.165,vts_reward_expectancy,2022.2.4,MacIntel,60.0024001,Chrome,1440,900,,,,,1,1111,,,,,,,,,,,,,,,,,160,D,triangle,1,0,,,,,,,,,,,,,,,,switch,letter,lettSwt,j,0.5076,Lo,,,,,,3,,,,,,,,low,22,0,22,0,1,,,,,,,,,
297208,2022-10-07_12h50.19.165,vts_reward_expectancy,2022.2.4,MacIntel,60.0024001,Chrome,1440,900,,,,,10,1121,,,,,,,,,,,,,,,,,174,Y,star,1,0,,,,,,,,,,,,,,,,repeat,letter,lettRpt,k,0.5037,Hi,,,,,,3,,,,,,,,low,23,0,23,0,1,,,,,,,,,
297208,2022-10-07_12h50.19.165,vts_reward_expectancy,2022.2.4,MacIntel,60.0024001,Chrome,1440,900,,,,,1,1122,,,,,,,,,,,,,,,,,160,S,triangle,1,0,,,,,,,,,,,,,,,,repeat,letter,lettRpt,k,0.6241,Lo,,,,,,3,,,,,,,,low,24,0,24,0,1,,,,,,,,,
297208,2022-10-07_12h50.19.165,vts_reward_expectancy,2022.2.4,MacIntel,60.0024001,Chrome,1440,900,,,,,0,1122,,,,,,,,,,,,,,,,,125,B,star,1,0,,,,,,,,,,,,,,,,switch,number,numSwt,d,0.591,Hi,,,,,,3,,,,,,,,low,25,0,25,0,1,,,,,,,,,
297208,2022-10-07_12h50.19.165,vts_reward_expectancy,2022.2.4,MacIntel,60.0024001,Chrome,1440,900,,,,,0,1122,,,,,,,,,,,,,,,,,167,U,star,1,0,,,,,,,,,,,,,,,,repeat,number,numRpt,f,0.5079,Hi,,,,,,3,,,,,,,,low,26,0,26,0,1,,,,,,,,,
297208,2022-10-07_12h50.19.165,vts_reward_expectancy,2022.2.4,MacIntel,60.0024001,Chrome,1440,900,,,,,10,1132,,,,,,,,,,,,,,,,,181,Y,triangle,1,0,,,,,,,,,,,,,,,,repeat,number,numRpt,f,0.5623,Lo,,,,,,3,,,,,,,,low,27,0,27,0,1,,,,,,,,,
297208,2022-10-07_12h50.19.165,vts_reward_expectancy,2022.2.4,MacIntel,60.0024001,Chrome,1440,900,,,,,1,1133,,,,,,,,,,,,,,,,,139,D,triangle,1,0,,,,,,,,,,,,,,,,repeat,number,numRpt,d,0.6234,Lo,,,,,,3,,,,,,,,low,28,0,28,0,1,,,,,,,,,
297208,2022-10-07_12h50.19.165,vts_reward_expectancy,2022.2.4,MacIntel,60.0024001,Chrome,1440,900,,,,,0,1133,,,,,,,,,,,,,,,,,146,F,star,1,0,,,,,,,,,,,,,,,,repeat,number,numRpt,d,0.5495,Hi,,,,,,3,,,,,,,,low,29,0,29,0,1,,,,,,,,,
297208,2022-10-07_12h50.19.165,vts_reward_expectancy,2022.2.4,MacIntel,60.0024001,Chrome,1440,900,,,,,1,1134,,,,,,,,,,,,,,,,,132,W,triangle,1,0,,,,,,,,,,,,,,,,switch,letter,lettSwt,k,0.6912,Lo,,,,,,3,,,,,,,,low,30,0,30,0,1,,,,,,,,,
297208,2022-10-07_12h50.19.165,vts_reward_expectancy,2022.2.4,MacIntel,60.0024001,Chrome,1440,900,,,,,1,1135,,,,,,,,,,,,,,,,,174,H,star,1,0,,,,,,,,,,,,,,,,repeat,letter,lettRpt,j,0.454,Hi,,,,,,3,,,,,,,,low,31,0,31,0,1,,,,,,,,,
297208,2022-10-07_12h50.19.165,vts_reward_expectancy,2022.2.4,MacIntel,60.0024001,Chrome,1440,900,,,,,10,1145,,,,,,,,,,,,,,,,,167,U,triangle,1,0,,,,,,,,,,,,,,,,switch,number,numSwt,f,0.4095,Lo,,,,,,4,,,,,,space,5.1717,low,0,0,0,0,1,,,,,,,,,
297208,2022-10-07_12h50.19.165,vts_reward_expectancy,2022.2.4,MacIntel,60.0024001,Chrome,1440,900,,,,,10,1155,,,,,,,,,,,,,,,,,139,F,star,1,0,,,,,,,,,,,,,,,,repeat,number,numRpt,d,0.4748,Hi,,,,,,4,,,,,,,,low,1,0,1,0,1,,,,,,,,,
297208,2022-10-07_12h50.19.165,vts_reward_expectancy,2022.2.4,MacIntel,60.0024001,Chrome,1440,900,,,,,1,1156,,,,,,,,,,,,,,,,,181,Y,triangle,1,0,,,,,,,,,,,,,,,,repeat,number,numRpt,f,0.4237,Lo,,,,,,4,,,,,,,,low,2,0,2,0,1,,,,,,,,,
297208,2022-10-07_12h50.19.165,vts_reward_expectancy,2022.2.4,MacIntel,60.0024001,Chrome,1440,900,,,,,1,1157,,,,,,,,,,,,,,,,,160,H,star,1,0,,,,,,,,,,,,,,,,switch,letter,lettSwt,j,0.531,Hi,,,,,,4,,,,,,,,low,3,0,3,0,1,,,,,,,,,
297208,2022-10-07_12h50.19.165,vts_reward_expectancy,2022.2.4,MacIntel,60.0024001,Chrome,1440,900,,,,,0,1157,,,,,,,,,,,,,,,,,146,W,star,1,0,,,,,,,,,,,,,,,,repeat,letter,lettRpt,k,0.6012,Hi,,,,,,4,,,,,,,,low,4,0,4,0,1,,,,,,,,,
297208,2022-10-07_12h50.19.165,vts_reward_expectancy,2022.2.4,MacIntel,60.0024001,Chrome,1440,900,,,,,1,1158,,,,,,,,,,,,,,,,,174,B,triangle,1,0,,,,,,,,,,,,,,,,switch,number,numSwt,f,0.4707,Lo,,,,,,4,,,,,,,,low,5,0,5,0,1,,,,,,,,,
297208,2022-10-07_12h50.19.165,vts_reward_expectancy,2022.2.4,MacIntel,60.0024001,Chrome,1440,900,,,,,1,1159,,,,,,,,,,,,,,,,,125,S,star,1,0,,,,,,,,,,,,,,,,repeat,number,numRpt,d,0.3909,Hi,,,,,,4,,,,,,,,low,6,0,6,0,1,,,,,,,,,
297208,2022-10-07_12h50.19.165,vts_reward_expectancy,2022.2.4,MacIntel,60.0024001,Chrome,1440,900,,,,,1,1160,,,,,,,,,,,,,,,,,132,D,triangle,1,0,,,,,,,,,,,,,,,,switch,letter,lettSwt,j,0.4828,Lo,,,,,,4,,,,,,,,low,7,0,7,0,1,,,,,,,,,
297208,2022-10-07_12h50.19.165,vts_reward_expectancy,2022.2.4,MacIntel,60.0024001,Chrome,1440,900,,,,,1,1161,,,,,,,,,,,,,,,,,167,U,triangle,1,0,,,,,,,,,,,,,,,,switch,number,numSwt,f,0.5573,Lo,,,,,,4,,,,,,,,low,8,0,8,0,1,,,,,,,,,
297208,2022-10-07_12h50.19.165,vts_reward_expectancy,2022.2.4,MacIntel,60.0024001,Chrome,1440,900,,,,,0,1161,,,,,,,,,,,,,,,,,139,F,star,0,0,,,,,,,,,,,,,,,,repeat,number,NA,f,0.5105,Lo,,,,,,4,,,,,,,,low,9,0,9,0,1,,,,,,,,,
297208,2022-10-07_12h50.19.165,vts_reward_expectancy,2022.2.4,MacIntel,60.0024001,Chrome,1440,900,,,,,10,1171,,,,,,,,,,,,,,,,,181,Y,triangle,1,1,,,,,,,,,,,,,,,,repeat,number,numRpt,f,0.5627,Lo,,,,,,4,,,,,,,,low,10,0,10,0,1,,,,,,,,,
297208,2022-10-07_12h50.19.165,vts_reward_expectancy,2022.2.4,MacIntel,60.0024001,Chrome,1440,900,,,,,0,1171,,,,,,,,,,,,,,,,,160,H,star,1,0,,,,,,,,,,,,,,,,switch,letter,lettSwt,j,1.4078,Hi,,,,,,4,,,,,,,,low,11,0,11,0,1,,,,,,,,,
297208,2022-10-07_12h50.19.165,vts_reward_expectancy,2022.2.4,MacIntel,60.0024001,Chrome,1440,900,,,,,1,1172,,,,,,,,,,,,,,,,,146,W,triangle,1,0,,,,,,,,,,,,,,,,repeat,letter,lettRpt,k,0.7081,Lo,,,,,,4,,,,,,,,low,12,0,12,0,1,,,,,,,,,
297208,2022-10-07_12h50.19.165,vts_reward_expectancy,2022.2.4,MacIntel,60.0024001,Chrome,1440,900,,,,,0,1172,,,,,,,,,,,,,,,,,174,B,star,1,0,,,,,,,,,,,,,,,,repeat,letter,lettRpt,j,0.5102,Hi,,,,,,4,,,,,,,,low,13,0,13,0,1,,,,,,,,,
297208,2022-10-07_12h50.19.165,vts_reward_expectancy,2022.2.4,MacIntel,60.0024001,Chrome,1440,900,,,,,0,1172,,,,,,,,,,,,,,,,,125,S,triangle,0,0,,,,,,,,,,,,,,,,switch,number,NA,f,1.1421,Hi,,,,,,4,,,,,,,,low,14,0,14,0,1,,,,,,,,,
297208,2022-10-07_12h50.19.165,vts_reward_expectancy,2022.2.4,MacIntel,60.0024001,Chrome,1440,900,,,,,0,1172,,,,,,,,,,,,,,,,,132,D,star,1,1,,,,,,,,,,,,,,,,repeat,number,numRpt,d,0.6572,Hi,,,,,,4,,,,,,,,low,15,0,15,0,1,,,,,,,,,
297208,2022-10-07_12h50.19.165,vts_reward_expectancy,2022.2.4,MacIntel,60.0024001,Chrome,1440,900,,,,,1,1173,,,,,,,,,,,,,,,,,174,S,triangle,1,0,,,,,,,,,,,,,,,,switch,letter,lettSwt,k,0.5417,Lo,,,,,,4,,,,,,,,low,16,0,16,0,1,,,,,,,,,
297208,2022-10-07_12h50.19.165,vts_reward_expectancy,2022.2.4,MacIntel,60.0024001,Chrome,1440,900,,,,,10,1183,,,,,,,,,,,,,,,,,132,Y,star,1,0,,,,,,,,,,,,,,,,switch,number,numSwt,d,0.4251,Hi,,,,,,4,,,,,,,,low,17,0,17,0,1,,,,,,,,,
297208,2022-10-07_12h50.19.165,vts_reward_expectancy,2022.2.4,MacIntel,60.0024001,Chrome,1440,900,,,,,10,1193,,,,,,,,,,,,,,,,,181,F,triangle,1,0,,,,,,,,,,,,,,,,repeat,number,numRpt,f,0.3692,Lo,,,,,,4,,,,,,,,low,18,0,18,0,1,,,,,,,,,
297208,2022-10-07_12h50.19.165,vts_reward_expectancy,2022.2.4,MacIntel,60.0024001,Chrome,1440,900,,,,,0,1193,,,,,,,,,,,,,,,,,167,B,star,1,0,,,,,,,,,,,,,,,,repeat,number,numRpt,f,0.5709,Hi,,,,,,4,,,,,,,,low,19,0,19,0,1,,,,,,,,,
297208,2022-10-07_12h50.19.165,vts_reward_expectancy,2022.2.4,MacIntel,60.0024001,Chrome,1440,900,,,,,0,1193,,,,,,,,,,,,,,,,,146,H,star,1,0,,,,,,,,,,,,,,,,repeat,number,numRpt,d,0.7592,Hi,,,,,,4,,,,,,,,low,20,0,20,0,1,,,,,,,,,
297208,2022-10-07_12h50.19.165,vts_reward_expectancy,2022.2.4,MacIntel,60.0024001,Chrome,1440,900,,,,,1,1194,,,,,,,,,,,,,,,,,125,U,triangle,1,0,,,,,,,,,,,,,,,,repeat,number,numRpt,d,0.6759,Lo,,,,,,4,,,,,,,,low,21,0,21,0,1,,,,,,,,,
297208,2022-10-07_12h50.19.165,vts_reward_expectancy,2022.2.4,MacIntel,60.0024001,Chrome,1440,900,,,,,10,1204,,,,,,,,,,,,,,,,,160,W,triangle,1,0,,,,,,,,,,,,,,,,repeat,number,numRpt,f,0.4884,Lo,,,,,,4,,,,,,,,low,22,0,22,0,1,,,,,,,,,
297208,2022-10-07_12h50.19.165,vts_reward_expectancy,2022.2.4,MacIntel,60.0024001,Chrome,1440,900,,,,,0,1204,,,,,,,,,,,,,,,,,139,D,star,0,0,,,,,,,,,,,,,,,,repeat,number,NA,f,0.3585,Lo,,,,,,4,,,,,,,,low,23,0,23,0,1,,,,,,,,,
297208,2022-10-07_12h50.19.165,vts_reward_expectancy,2022.2.4,MacIntel,60.0024001,Chrome,1440,900,,,,,10,1214,,,,,,,,,,,,,,,,,174,D,triangle,1,1,,,,,,,,,,,,,,,,repeat,number,numRpt,f,0.4327,Lo,,,,,,4,,,,,,,,low,24,0,24,0,1,,,,,,,,,
297208,2022-10-07_12h50.19.165,vts_reward_expectancy,2022.2.4,MacIntel,60.0024001,Chrome,1440,900,,,,,10,1224,,,,,,,,,,,,,,,,,181,H,star,1,0,,,,,,,,,,,,,,,,repeat,number,numRpt,f,0.4352,Hi,,,,,,4,,,,,,,,low,25,0,25,0,1,,,,,,,,,
297208,2022-10-07_12h50.19.165,vts_reward_expectancy,2022.2.4,MacIntel,60.0024001,Chrome,1440,900,,,,,1,1225,,,,,,,,,,,,,,,,,139,Y,triangle,1,0,,,,,,,,,,,,,,,,switch,letter,lettSwt,k,0.5162,Lo,,,,,,4,,,,,,,,low,26,0,26,0,1,,,,,,,,,
297208,2022-10-07_12h50.19.165,vts_reward_expectancy,2022.2.4,MacIntel,60.0024001,Chrome,1440,900,,,,,0,1225,,,,,,,,,,,,,,,,,132,W,star,1,0,,,,,,,,,,,,,,,,repeat,letter,lettRpt,k,0.5217,Hi,,,,,,4,,,,,,,,low,27,0,27,0,1,,,,,,,,,
297208,2022-10-07_12h50.19.165,vts_reward_expectancy,2022.2.4,MacIntel,60.0024001,Chrome,1440,900,,,,,1,1226,,,,,,,,,,,,,,,,,125,B,star,1,0,,,,,,,,,,,,,,,,repeat,letter,lettRpt,j,0.4049,Hi,,,,,,4,,,,,,,,low,28,0,28,0,1,,,,,,,,,
297208,2022-10-07_12h50.19.165,vts_reward_expectancy,2022.2.4,MacIntel,60.0024001,Chrome,1440,900,,,,,10,1236,,,,,,,,,,,,,,,,,167,S,triangle,1,0,,,,,,,,,,,,,,,,repeat,letter,lettRpt,k,0.5408,Lo,,,,,,4,,,,,,,,low,29,0,29,0,1,,,,,,,,,
297208,2022-10-07_12h50.19.165,vts_reward_expectancy,2022.2.4,MacIntel,60.0024001,Chrome,1440,900,,,,,10,1246,,,,,,,,,,,,,,,,,160,F,triangle,1,0,,,,,,,,,,,,,,,,repeat,letter,lettRpt,j,0.5411,Lo,,,,,,4,,,,,,,,low,30,0,30,0,1,,,,,,,,,
297208,2022-10-07_12h50.19.165,vts_reward_expectancy,2022.2.4,MacIntel,60.0024001,Chrome,1440,900,,,,,0,1246,,,,,,,,,,,,,,,,,146,U,star,1,0,,,,,,,,,,,,,,,,repeat,letter,lettRpt,k,0.6657,Hi,,,,,,4,,,,,,,,low,31,0,31,0,1,,,,,,,,,
297208,2022-10-07_12h50.19.165,vts_reward_expectancy,2022.2.4,MacIntel,60.0024001,Chrome,1440,900,,,,,0,1246,,,,,,,,,,,,,,,,,125,B,circle,0,0,,,,,,,,,,,,,,,,switch,number,NA,f,0.4566,Hi,,,,,,5,,,,,,space,2.2887,high,0,0,0,0,1,,,,,,,,,
297208,2022-10-07_12h50.19.165,vts_reward_expectancy,2022.2.4,MacIntel,60.0024001,Chrome,1440,900,,,,,1,1247,,,,,,,,,,,,,,,,,174,U,hexagon,1,1,,,,,,,,,,,,,,,,repeat,number,numRpt,f,0.3964,Lo,,,,,,5,,,,,,,,high,1,0,1,0,1,,,,,,,,,
297208,2022-10-07_12h50.19.165,vts_reward_expectancy,2022.2.4,MacIntel,60.0024001,Chrome,1440,900,,,,,0,1247,,,,,,,,,,,,,,,,,167,Y,circle,1,0,,,,,,,,,,,,,,,,repeat,number,numRpt,f,0.5031,Hi,,,,,,5,,,,,,,,high,2,0,2,0,1,,,,,,,,,
297208,2022-10-07_12h50.19.165,vts_reward_expectancy,2022.2.4,MacIntel,60.0024001,Chrome,1440,900,,,,,1,1248,,,,,,,,,,,,,,,,,132,H,hexagon,1,0,,,,,,,,,,,,,,,,repeat,number,numRpt,d,0.4747,Lo,,,,,,5,,,,,,,,high,3,0,3,0,1,,,,,,,,,
297208,2022-10-07_12h50.19.165,vts_reward_expectancy,2022.2.4,MacIntel,60.0024001,Chrome,1440,900,,,,,10,1258,,,,,,,,,,,,,,,,,139,W,circle,1,0,,,,,,,,,,,,,,,,switch,letter,lettSwt,k,0.4607,Hi,,,,,,5,,,,,,,,high,4,0,4,0,1,,,,,,,,,
297208,2022-10-07_12h50.19.165,vts_reward_expectancy,2022.2.4,MacIntel,60.0024001,Chrome,1440,900,,,,,10,1268,,,,,,,,,,,,,,,,,160,S,hexagon,1,0,,,,,,,,,,,,,,,,repeat,letter,lettRpt,k,0.5789,Lo,,,,,,5,,,,,,,,high,5,0,5,0,1,,,,,,,,,
297208,2022-10-07_12h50.19.165,vts_reward_expectancy,2022.2.4,MacIntel,60.0024001,Chrome,1440,900,,,,,1,1269,,,,,,,,,,,,,,,,,181,D,hexagon,1,0,,,,,,,,,,,,,,,,repeat,letter,lettRpt,j,0.6461,Lo,,,,,,5,,,,,,,,high,6,0,6,0,1,,,,,,,,,
297208,2022-10-07_12h50.19.165,vts_reward_expectancy,2022.2.4,MacIntel,60.0024001,Chrome,1440,900,,,,,0,1269,,,,,,,,,,,,,,,,,146,F,circle,1,0,,,,,,,,,,,,,,,,repeat,letter,lettRpt,j,0.5667,Hi,,,,,,5,,,,,,,,high,7,0,7,0,1,,,,,,,,,
297208,2022-10-07_12h50.19.165,vts_reward_expectancy,2022.2.4,MacIntel,60.0024001,Chrome,1440,900,,,,,0,1269,,,,,,,,,,,,,,,,,125,B,circle,1,0,,,,,,,,,,,,,,,,switch,number,numSwt,d,0.5393,Hi,,,,,,5,,,,,,,,high,8,0,8,0,1,,,,,,,,,
297208,2022-10-07_12h50.19.165,vts_reward_expectancy,2022.2.4,MacIntel,60.0024001,Chrome,1440,900,,,,,1,1270,,,,,,,,,,,,,,,,,174,U,hexagon,1,0,,,,,,,,,,,,,,,,repeat,number,numRpt,f,0.5537,Lo,,,,,,5,,,,,,,,high,9,0,9,0,1,,,,,,,,,
297208,2022-10-07_12h50.19.165,vts_reward_expectancy,2022.2.4,MacIntel,60.0024001,Chrome,1440,900,,,,,10,1280,,,,,,,,,,,,,,,,,167,Y,circle,1,0,,,,,,,,,,,,,,,,repeat,number,numRpt,f,0.4022,Hi,,,,,,5,,,,,,,,high,10,0,10,0,1,,,,,,,,,
297208,2022-10-07_12h50.19.165,vts_reward_expectancy,2022.2.4,MacIntel,60.0024001,Chrome,1440,900,,,,,1,1281,,,,,,,,,,,,,,,,,132,H,hexagon,1,0,,,,,,,,,,,,,,,,switch,letter,lettSwt,j,0.4383,Lo,,,,,,5,,,,,,,,high,11,0,11,0,1,,,,,,,,,
297208,2022-10-07_12h50.19.165,vts_reward_expectancy,2022.2.4,MacIntel,60.0024001,Chrome,1440,900,,,,,1,1282,,,,,,,,,,,,,,,,,139,W,hexagon,1,0,,,,,,,,,,,,,,,,repeat,letter,lettRpt,k,0.4908,Lo,,,,,,5,,,,,,,,high,12,0,12,0,1,,,,,,,,,
297208,2022-10-07_12h50.19.165,vts_reward_expectancy,2022.2.4,MacIntel,60.0024001,Chrome,1440,900,,,,,0,1282,,,,,,,,,,,,,,,,,160,S,circle,0,0,,,,,,,,,,,,,,,,repeat,letter,NA,j,0.4486,Lo,,,,,,5,,,,,,,,high,13,0,13,0,1,,,,,,,,,
297208,2022-10-07_12h50.19.165,vts_reward_expectancy,2022.2.4,MacIntel,60.0024001,Chrome,1440,900,,,,,10,1292,,,,,,,,,,,,,,,,,181,D,hexagon,1,1,,,,,,,,,,,,,,,,repeat,letter,lettRpt,j,0.419,Lo,,,,,,5,,,,,,,,high,14,0,14,0,1,,,,,,,,,
297208,2022-10-07_12h50.19.165,vts_reward_expectancy,2022.2.4,MacIntel,60.0024001,Chrome,1440,900,,,,,0,1292,,,,,,,,,,,,,,,,,146,F,circle,1,0,,,,,,,,,,,,,,,,switch,number,numSwt,d,0.4829,Hi,,,,,,5,,,,,,,,high,15,0,15,0,1,,,,,,,,,
297208,2022-10-07_12h50.19.165,vts_reward_expectancy,2022.2.4,MacIntel,60.0024001,Chrome,1440,900,,,,,10,1302,,,,,,,,,,,,,,,,,181,H,hexagon,1,0,,,,,,,,,,,,,,,,repeat,number,numRpt,f,0.7086,Lo,,,,,,5,,,,,,,,high,16,0,16,0,1,,,,,,,,,
297208,2022-10-07_12h50.19.165,vts_reward_expectancy,2022.2.4,MacIntel,60.0024001,Chrome,1440,900,,,,,0,1302,,,,,,,,,,,,,,,,,174,F,circle,1,0,,,,,,,,,,,,,,,,switch,letter,lettSwt,j,0.6991,Hi,,,,,,5,,,,,,,,high,17,0,17,0,1,,,,,,,,,
297208,2022-10-07_12h50.19.165,vts_reward_expectancy,2022.2.4,MacIntel,60.0024001,Chrome,1440,900,,,,,0,1302,,,,,,,,,,,,,,,,,125,D,circle,1,0,,,,,,,,,,,,,,,,switch,number,numSwt,d,1.0416,Hi,,,,,,5,,,,,,,,high,18,0,18,0,1,,,,,,,,,
297208,2022-10-07_12h50.19.165,vts_reward_expectancy,2022.2.4,MacIntel,60.0024001,Chrome,1440,900,,,,,1,1303,,,,,,,,,,,,,,,,,146,U,hexagon,1,0,,,,,,,,,,,,,,,,switch,letter,lettSwt,k,0.5118,Lo,,,,,,5,,,,,,,,high,19,0,19,0,1,,,,,,,,,
297208,2022-10-07_12h50.19.165,vts_reward_expectancy,2022.2.4,MacIntel,60.0024001,Chrome,1440,900,,,,,0,1303,,,,,,,,,,,,,,,,,132,B,circle,1,0,,,,,,,,,,,,,,,,switch,number,numSwt,d,0.4959,Hi,,,,,,5,,,,,,,,high,20,0,20,0,1,,,,,,,,,
297208,2022-10-07_12h50.19.165,vts_reward_expectancy,2022.2.4,MacIntel,60.0024001,Chrome,1440,900,,,,,1,1304,,,,,,,,,,,,,,,,,160,S,hexagon,1,0,,,,,,,,,,,,,,,,repeat,number,numRpt,f,0.3907,Lo,,,,,,5,,,,,,,,high,21,0,21,0,1,,,,,,,,,
297208,2022-10-07_12h50.19.165,vts_reward_expectancy,2022.2.4,MacIntel,60.0024001,Chrome,1440,900,,,,,0,1304,,,,,,,,,,,,,,,,,139,W,circle,1,0,,,,,,,,,,,,,,,,repeat,number,numRpt,d,0.4577,Hi,,,,,,5,,,,,,,,high,22,0,22,0,1,,,,,,,,,
297208,2022-10-07_12h50.19.165,vts_reward_expectancy,2022.2.4,MacIntel,60.0024001,Chrome,1440,900,,,,,1,1305,,,,,,,,,,,,,,,,,167,Y,hexagon,1,0,,,,,,,,,,,,,,,,switch,letter,lettSwt,k,0.6478,Lo,,,,,,5,,,,,,,,high,23,0,23,0,1,,,,,,,,,
297208,2022-10-07_12h50.19.165,vts_reward_expectancy,2022.2.4,MacIntel,60.0024001,Chrome,1440,900,,,,,10,1315,,,,,,,,,,,,,,,,,125,H,hexagon,1,0,,,,,,,,,,,,,,,,repeat,letter,lettRpt,j,0.4328,Lo,,,,,,5,,,,,,,,high,24,0,24,0,1,,,,,,,,,
297208,2022-10-07_12h50.19.165,vts_reward_expectancy,2022.2.4,MacIntel,60.0024001,Chrome,1440,900,,,,,10,1325,,,,,,,,,,,,,,,,,160,D,circle,1,0,,,,,,,,,,,,,,,,repeat,letter,lettRpt,j,0.4281,Hi,,,,,,5,,,,,,,,high,25,0,25,0,1,,,,,,,,,
297208,2022-10-07_12h50.19.165,vts_reward_expectancy,2022.2.4,MacIntel,60.0024001,Chrome,1440,900,,,,,1,1326,,,,,,,,,,,,,,,,,181,W,hexagon,1,0,,,,,,,,,,,,,,,,repeat,letter,lettRpt,k,0.3748,Lo,,,,,,5,,,,,,,,high,26,0,26,0,1,,,,,,,,,
297208,2022-10-07_12h50.19.165,vts_reward_expectancy,2022.2.4,MacIntel,60.0024001,Chrome,1440,900,,,,,0,1326,,,,,,,,,,,,,,,,,174,B,circle,1,0,,,,,,,,,,,,,,,,repeat,letter,lettRpt,j,0.541,Hi,,,,,,5,,,,,,,,high,27,0,27,0,1,,,,,,,,,
297208,2022-10-07_12h50.19.165,vts_reward_expectancy,2022.2.4,MacIntel,60.0024001,Chrome,1440,900,,,,,0,1326,,,,,,,,,,,,,,,,,146,U,circle,0,0,,,,,,,,,,,,,,,,repeat,letter,NA,j,0.5133,Hi,,,,,,5,,,,,,,,high,28,0,28,0,1,,,,,,,,,
297208,2022-10-07_12h50.19.165,vts_reward_expectancy,2022.2.4,MacIntel,60.0024001,Chrome,1440,900,,,,,10,1336,,,,,,,,,,,,,,,,,132,Y,hexagon,1,1,,,,,,,,,,,,,,,,switch,number,numSwt,d,0.4918,Lo,,,,,,5,,,,,,,,high,29,0,29,0,1,,,,,,,,,
297208,2022-10-07_12h50.19.165,vts_reward_expectancy,2022.2.4,MacIntel,60.0024001,Chrome,1440,900,,,,,0,1336,,,,,,,,,,,,,,,,,167,F,circle,1,0,,,,,,,,,,,,,,,,repeat,number,numRpt,f,0.4582,Hi,,,,,,5,,,,,,,,high,30,0,30,0,1,,,,,,,,,
297208,2022-10-07_12h50.19.165,vts_reward_expectancy,2022.2.4,MacIntel,60.0024001,Chrome,1440,900,,,,,1,1337,,,,,,,,,,,,,,,,,139,S,hexagon,1,0,,,,,,,,,,,,,,,,repeat,number,numRpt,d,0.4289,Lo,,,,,,5,,,,,,,,high,31,0,31,0,1,,,,,,,,,
297208,2022-10-07_12h50.19.165,vts_reward_expectancy,2022.2.4,MacIntel,60.0024001,Chrome,1440,900,,,,,,,,,,,,,,,,,,,,,,,,,,,,,,,,,,,,,,,,,,,,,,,,,,,,,,6,,,,,,,,,,,,,,"I was asked to correspond shapes, letters, and numbers to each other, as well as the speed in which I typed them.",1,,4,2,,2,1440,900
