participant,date,expName,psychopyVersion,OS,frameRate,browser,xResolution,yResolution,key_resp.keys,key_resp.rt,training_resp.keys,training_resp.rt,points_trial,points_cumul,trainBlock,training.thisRepN,training.thisTrialN,training.thisN,training.thisIndex,training.ran,LTriangleOpac,LCircleOpac,LHexagonOpac,LStarOpac,RTriangleOpac,RCircleOpac,RHexagonOpac,RStarOpac,LShape_ID,RShape_ID,curr_topStim,curr_bottStim,curr_shape,acc,E1,target_resp_prac1.keys,pracBlock,task1_prac_trials.thisRepN,task1_prac_trials.thisTrialN,task1_prac_trials.thisN,task1_prac_trials.thisIndex,task1_prac_trials.ran,target_resp_prac1.rt,target_resp_prac2.keys,target_resp_prac2.rt,task2_praac_trials.thisRepN,task2_praac_trials.thisTrialN,task2_praac_trials.thisN,task2_praac_trials.thisIndex,task2_praac_trials.ran,alt,task,condition,target_resp.keys,target_resp.rt,rewCond,vts_practice_trials.thisRepN,vts_practice_trials.thisTrialN,vts_practice_trials.thisN,vts_practice_trials.thisIndex,vts_practice_trials.ran,blockNum,trials_norew.thisRepN,trials_norew.thisTrialN,trials_norew.thisN,trials_norew.thisIndex,trials_norew.ran,key_resp_2.keys,key_resp_2.rt,rewExpect,trials_rew.thisRepN,trials_rew.thisTrialN,trials_rew.thisN,trials_rew.thisIndex,trials_rew.ran,Q1,Q2,Q2_text,Q3,Q4,Q5_text,Q5,xRes,yRes
296491,2022-09-29_15h58.25.240,vts_reward_expectancy,2022.2.4,MacIntel,60.0024001,Chrome,1680,1050,,,,,,,,,,,,,,,,,,,,,,,,,,,,,,,,,,,,,,,,,,,,,,,,,,,,,,,,,,,,,,,,,,,,,,,,,,,,
296491,2022-09-29_15h58.25.240,vts_reward_expectancy,2022.2.4,MacIntel,60.0024001,Chrome,1680,1050,space,185.1333,,,,,,,,,,,,,,,,,,,,,,,,,,,,,,,,,,,,,,,,,,,,,,,,,,,,,,,,,,,,,,,,,,,,,,,,,,
296491,2022-09-29_15h58.25.240,vts_reward_expectancy,2022.2.4,MacIntel,60.0024001,Chrome,1680,1050,,,,,,,,,,,,,,,,,,,,,,,,,,,,,,,,,,,,,,,,,,,,,,,,,,,,,,,,,,,,,,,,,,,,,,,,,,,,
296491,2022-09-29_15h58.25.240,vts_reward_expectancy,2022.2.4,MacIntel,60.0024001,Chrome,1680,1050,,,a,25.8643,1,1,0,0,0,0,6,1,0,0,1,0,1,0,0,0,hexagon,triangle,,,,,,,,,,,,,,,,,,,,,,,,,,,,,,,,,,,,,,,,,,,,,,,,,,,,,,
296491,2022-09-29_15h58.25.240,vts_reward_expectancy,2022.2.4,MacIntel,60.0024001,Chrome,1680,1050,,,l,1.9604,1,2,0,0,1,1,3,1,0,1,0,0,1,0,0,0,circle,triangle,,,,,,,,,,,,,,,,,,,,,,,,,,,,,,,,,,,,,,,,,,,,,,,,,,,,,,
296491,2022-09-29_15h58.25.240,vts_reward_expectancy,2022.2.4,MacIntel,60.0024001,Chrome,1680,1050,,,l,14.9136,1,3,0,0,2,2,0,1,1,0,0,0,0,1,0,0,triangle,circle,,,,,,,,,,,,,,,,,,,,,,,,,,,,,,,,,,,,,,,,,,,,,,,,,,,,,,
296491,2022-09-29_15h58.25.240,vts_reward_expectancy,2022.2.4,MacIntel,60.0024001,Chrome,1680,1050,,,l,7.5161,10,13,0,0,3,3,9,1,0,0,0,1,1,0,0,0,star,triangle,,,,,,,,,,,,,,,,,,,,,,,,,,,,,,,,,,,,,,,,,,,,,,,,,,,,,,
296491,2022-09-29_15h58.25.240,vts_reward_expectancy,2022.2.4,MacIntel,60.0024001,Chrome,1680,1050,,,l,9.0003,1,14,0,0,4,4,4,1,0,1,0,0,0,0,1,0,circle,hexagon,,,,,,,,,,,,,,,,,,,,,,,,,,,,,,,,,,,,,,,,,,,,,,,,,,,,,,
296491,2022-09-29_15h58.25.240,vts_reward_expectancy,2022.2.4,MacIntel,60.0024001,Chrome,1680,1050,,,l,1.814,1,15,0,0,5,5,7,1,0,0,1,0,0,1,0,0,hexagon,circle,,,,,,,,,,,,,,,,,,,,,,,,,,,,,,,,,,,,,,,,,,,,,,,,,,,,,,
296491,2022-09-29_15h58.25.240,vts_reward_expectancy,2022.2.4,MacIntel,60.0024001,Chrome,1680,1050,,,l,1.7631,10,25,0,0,6,6,5,1,0,1,0,0,0,0,0,1,circle,star,,,,,,,,,,,,,,,,,,,,,,,,,,,,,,,,,,,,,,,,,,,,,,,,,,,,,,
296491,2022-09-29_15h58.25.240,vts_reward_expectancy,2022.2.4,MacIntel,60.0024001,Chrome,1680,1050,,,a,5.2416,1,26,0,0,7,7,11,1,0,0,0,1,0,0,1,0,star,hexagon,,,,,,,,,,,,,,,,,,,,,,,,,,,,,,,,,,,,,,,,,,,,,,,,,,,,,,
296491,2022-09-29_15h58.25.240,vts_reward_expectancy,2022.2.4,MacIntel,60.0024001,Chrome,1680,1050,,,l,6.8921,1,27,0,0,8,8,1,1,1,0,0,0,0,0,1,0,triangle,hexagon,,,,,,,,,,,,,,,,,,,,,,,,,,,,,,,,,,,,,,,,,,,,,,,,,,,,,,
296491,2022-09-29_15h58.25.240,vts_reward_expectancy,2022.2.4,MacIntel,60.0024001,Chrome,1680,1050,,,a,3.3178,1,28,0,0,9,9,2,1,1,0,0,0,0,0,0,1,triangle,star,,,,,,,,,,,,,,,,,,,,,,,,,,,,,,,,,,,,,,,,,,,,,,,,,,,,,,
296491,2022-09-29_15h58.25.240,vts_reward_expectancy,2022.2.4,MacIntel,60.0024001,Chrome,1680,1050,,,l,1.2923,10,38,0,0,10,10,8,1,0,0,1,0,0,0,0,1,hexagon,star,,,,,,,,,,,,,,,,,,,,,,,,,,,,,,,,,,,,,,,,,,,,,,,,,,,,,,
296491,2022-09-29_15h58.25.240,vts_reward_expectancy,2022.2.4,MacIntel,60.0024001,Chrome,1680,1050,,,l,4.6492,10,48,0,0,11,11,10,1,0,0,0,1,0,1,0,0,star ,circle,,,,,,,,,,,,,,,,,,,,,,,,,,,,,,,,,,,,,,,,,,,,,,,,,,,,,,
296491,2022-09-29_15h58.25.240,vts_reward_expectancy,2022.2.4,MacIntel,60.0024001,Chrome,1680,1050,,,a,16.2006,10,58,0,1,0,12,4,1,0,1,0,0,0,0,1,0,circle,hexagon,,,,,,,,,,,,,,,,,,,,,,,,,,,,,,,,,,,,,,,,,,,,,,,,,,,,,,
296491,2022-09-29_15h58.25.240,vts_reward_expectancy,2022.2.4,MacIntel,60.0024001,Chrome,1680,1050,,,a,1.6187,1,59,0,1,1,13,2,1,1,0,0,0,0,0,0,1,triangle,star,,,,,,,,,,,,,,,,,,,,,,,,,,,,,,,,,,,,,,,,,,,,,,,,,,,,,,
296491,2022-09-29_15h58.25.240,vts_reward_expectancy,2022.2.4,MacIntel,60.0024001,Chrome,1680,1050,,,a,2.2189,10,69,0,1,2,14,9,1,0,0,0,1,1,0,0,0,star,triangle,,,,,,,,,,,,,,,,,,,,,,,,,,,,,,,,,,,,,,,,,,,,,,,,,,,,,,
296491,2022-09-29_15h58.25.240,vts_reward_expectancy,2022.2.4,MacIntel,60.0024001,Chrome,1680,1050,,,a,5.5655,10,79,0,1,3,15,6,1,0,0,1,0,1,0,0,0,hexagon,triangle,,,,,,,,,,,,,,,,,,,,,,,,,,,,,,,,,,,,,,,,,,,,,,,,,,,,,,
296491,2022-09-29_15h58.25.240,vts_reward_expectancy,2022.2.4,MacIntel,60.0024001,Chrome,1680,1050,,,l,2.1974,10,89,0,1,4,16,0,1,1,0,0,0,0,1,0,0,triangle,circle,,,,,,,,,,,,,,,,,,,,,,,,,,,,,,,,,,,,,,,,,,,,,,,,,,,,,,
296491,2022-09-29_15h58.25.240,vts_reward_expectancy,2022.2.4,MacIntel,60.0024001,Chrome,1680,1050,,,a,2.4666,1,90,0,1,5,17,3,1,0,1,0,0,1,0,0,0,circle,triangle,,,,,,,,,,,,,,,,,,,,,,,,,,,,,,,,,,,,,,,,,,,,,,,,,,,,,,
296491,2022-09-29_15h58.25.240,vts_reward_expectancy,2022.2.4,MacIntel,60.0024001,Chrome,1680,1050,,,l,1.8403,1,91,0,1,6,18,1,1,1,0,0,0,0,0,1,0,triangle,hexagon,,,,,,,,,,,,,,,,,,,,,,,,,,,,,,,,,,,,,,,,,,,,,,,,,,,,,,
296491,2022-09-29_15h58.25.240,vts_reward_expectancy,2022.2.4,MacIntel,60.0024001,Chrome,1680,1050,,,a,10.2511,10,101,0,1,7,19,5,1,0,1,0,0,0,0,0,1,circle,star,,,,,,,,,,,,,,,,,,,,,,,,,,,,,,,,,,,,,,,,,,,,,,,,,,,,,,
296491,2022-09-29_15h58.25.240,vts_reward_expectancy,2022.2.4,MacIntel,60.0024001,Chrome,1680,1050,,,l,4.4688,10,111,0,1,8,20,8,1,0,0,1,0,0,0,0,1,hexagon,star,,,,,,,,,,,,,,,,,,,,,,,,,,,,,,,,,,,,,,,,,,,,,,,,,,,,,,
296491,2022-09-29_15h58.25.240,vts_reward_expectancy,2022.2.4,MacIntel,60.0024001,Chrome,1680,1050,,,a,2.4806,10,121,0,1,9,21,11,1,0,0,0,1,0,0,1,0,star,hexagon,,,,,,,,,,,,,,,,,,,,,,,,,,,,,,,,,,,,,,,,,,,,,,,,,,,,,,
296491,2022-09-29_15h58.25.240,vts_reward_expectancy,2022.2.4,MacIntel,60.0024001,Chrome,1680,1050,,,l,0.8198,1,122,0,1,10,22,10,1,0,0,0,1,0,1,0,0,star ,circle,,,,,,,,,,,,,,,,,,,,,,,,,,,,,,,,,,,,,,,,,,,,,,,,,,,,,,
296491,2022-09-29_15h58.25.240,vts_reward_expectancy,2022.2.4,MacIntel,60.0024001,Chrome,1680,1050,,,l,0.6712,10,132,0,1,11,23,7,1,0,0,1,0,0,1,0,0,hexagon,circle,,,,,,,,,,,,,,,,,,,,,,,,,,,,,,,,,,,,,,,,,,,,,,,,,,,,,,
296491,2022-09-29_15h58.25.240,vts_reward_expectancy,2022.2.4,MacIntel,60.0024001,Chrome,1680,1050,,,a,0.6007,10,142,0,2,0,24,10,1,0,0,0,1,0,1,0,0,star ,circle,,,,,,,,,,,,,,,,,,,,,,,,,,,,,,,,,,,,,,,,,,,,,,,,,,,,,,
296491,2022-09-29_15h58.25.240,vts_reward_expectancy,2022.2.4,MacIntel,60.0024001,Chrome,1680,1050,,,l,0.1132,10,152,0,2,1,25,11,1,0,0,0,1,0,0,1,0,star,hexagon,,,,,,,,,,,,,,,,,,,,,,,,,,,,,,,,,,,,,,,,,,,,,,,,,,,,,,
296491,2022-09-29_15h58.25.240,vts_reward_expectancy,2022.2.4,MacIntel,60.0024001,Chrome,1680,1050,,,l,0.2921,10,162,0,2,2,26,8,1,0,0,1,0,0,0,0,1,hexagon,star,,,,,,,,,,,,,,,,,,,,,,,,,,,,,,,,,,,,,,,,,,,,,,,,,,,,,,
296491,2022-09-29_15h58.25.240,vts_reward_expectancy,2022.2.4,MacIntel,60.0024001,Chrome,1680,1050,,,a,0.2816,10,172,0,2,3,27,0,1,1,0,0,0,0,1,0,0,triangle,circle,,,,,,,,,,,,,,,,,,,,,,,,,,,,,,,,,,,,,,,,,,,,,,,,,,,,,,
296491,2022-09-29_15h58.25.240,vts_reward_expectancy,2022.2.4,MacIntel,60.0024001,Chrome,1680,1050,,,l,0.5367,10,182,0,2,4,28,6,1,0,0,1,0,1,0,0,0,hexagon,triangle,,,,,,,,,,,,,,,,,,,,,,,,,,,,,,,,,,,,,,,,,,,,,,,,,,,,,,
296491,2022-09-29_15h58.25.240,vts_reward_expectancy,2022.2.4,MacIntel,60.0024001,Chrome,1680,1050,,,a,0.2824,10,192,0,2,5,29,3,1,0,1,0,0,1,0,0,0,circle,triangle,,,,,,,,,,,,,,,,,,,,,,,,,,,,,,,,,,,,,,,,,,,,,,,,,,,,,,
296491,2022-09-29_15h58.25.240,vts_reward_expectancy,2022.2.4,MacIntel,60.0024001,Chrome,1680,1050,,,a,0.354,10,202,0,2,6,30,2,1,1,0,0,0,0,0,0,1,triangle,star,,,,,,,,,,,,,,,,,,,,,,,,,,,,,,,,,,,,,,,,,,,,,,,,,,,,,,
296491,2022-09-29_15h58.25.240,vts_reward_expectancy,2022.2.4,MacIntel,60.0024001,Chrome,1680,1050,,,l,1.2975,1,203,0,2,7,31,4,1,0,1,0,0,0,0,1,0,circle,hexagon,,,,,,,,,,,,,,,,,,,,,,,,,,,,,,,,,,,,,,,,,,,,,,,,,,,,,,
296491,2022-09-29_15h58.25.240,vts_reward_expectancy,2022.2.4,MacIntel,60.0024001,Chrome,1680,1050,,,l,0.3158,1,204,0,2,8,32,9,1,0,0,0,1,1,0,0,0,star,triangle,,,,,,,,,,,,,,,,,,,,,,,,,,,,,,,,,,,,,,,,,,,,,,,,,,,,,,
296491,2022-09-29_15h58.25.240,vts_reward_expectancy,2022.2.4,MacIntel,60.0024001,Chrome,1680,1050,,,l,0.6995,10,214,0,2,9,33,7,1,0,0,1,0,0,1,0,0,hexagon,circle,,,,,,,,,,,,,,,,,,,,,,,,,,,,,,,,,,,,,,,,,,,,,,,,,,,,,,
296491,2022-09-29_15h58.25.240,vts_reward_expectancy,2022.2.4,MacIntel,60.0024001,Chrome,1680,1050,,,a,0.467,10,224,0,2,10,34,5,1,0,1,0,0,0,0,0,1,circle,star,,,,,,,,,,,,,,,,,,,,,,,,,,,,,,,,,,,,,,,,,,,,,,,,,,,,,,
296491,2022-09-29_15h58.25.240,vts_reward_expectancy,2022.2.4,MacIntel,60.0024001,Chrome,1680,1050,,,l,0.8167,1,225,0,2,11,35,1,1,1,0,0,0,0,0,1,0,triangle,hexagon,,,,,,,,,,,,,,,,,,,,,,,,,,,,,,,,,,,,,,,,,,,,,,,,,,,,,,
296491,2022-09-29_15h58.25.240,vts_reward_expectancy,2022.2.4,MacIntel,60.0024001,Chrome,1680,1050,,,a,5.9009,1,226,1,0,0,0,0,1,1,0,0,0,0,1,0,0,triangle,circle,,,,,,,,,,,,,,,,,,,,,,,,,,,,,,,,,,,,,,,,,,,,,,,,,,,,,,
296491,2022-09-29_15h58.25.240,vts_reward_expectancy,2022.2.4,MacIntel,60.0024001,Chrome,1680,1050,,,a,2.3529,1,227,1,0,1,1,2,1,1,0,0,0,0,0,0,1,triangle,star,,,,,,,,,,,,,,,,,,,,,,,,,,,,,,,,,,,,,,,,,,,,,,,,,,,,,,
296491,2022-09-29_15h58.25.240,vts_reward_expectancy,2022.2.4,MacIntel,60.0024001,Chrome,1680,1050,,,a,1.9232,1,228,1,0,2,2,8,1,0,0,1,0,0,0,0,1,hexagon,star,,,,,,,,,,,,,,,,,,,,,,,,,,,,,,,,,,,,,,,,,,,,,,,,,,,,,,
296491,2022-09-29_15h58.25.240,vts_reward_expectancy,2022.2.4,MacIntel,60.0024001,Chrome,1680,1050,,,a,1.2309,10,238,1,0,3,3,4,1,0,1,0,0,0,0,1,0,circle,hexagon,,,,,,,,,,,,,,,,,,,,,,,,,,,,,,,,,,,,,,,,,,,,,,,,,,,,,,
296491,2022-09-29_15h58.25.240,vts_reward_expectancy,2022.2.4,MacIntel,60.0024001,Chrome,1680,1050,,,a,38.5052,10,248,1,0,4,4,1,1,1,0,0,0,0,0,1,0,triangle,hexagon,,,,,,,,,,,,,,,,,,,,,,,,,,,,,,,,,,,,,,,,,,,,,,,,,,,,,,
296491,2022-09-29_15h58.25.240,vts_reward_expectancy,2022.2.4,MacIntel,60.0024001,Chrome,1680,1050,,,a,5.6367,1,249,1,0,5,5,6,1,0,0,1,0,1,0,0,0,hexagon,triangle,,,,,,,,,,,,,,,,,,,,,,,,,,,,,,,,,,,,,,,,,,,,,,,,,,,,,,
296491,2022-09-29_15h58.25.240,vts_reward_expectancy,2022.2.4,MacIntel,60.0024001,Chrome,1680,1050,,,a,0.9002,1,250,1,0,6,6,7,1,0,0,1,0,0,1,0,0,hexagon,circle,,,,,,,,,,,,,,,,,,,,,,,,,,,,,,,,,,,,,,,,,,,,,,,,,,,,,,
296491,2022-09-29_15h58.25.240,vts_reward_expectancy,2022.2.4,MacIntel,60.0024001,Chrome,1680,1050,,,a,1.1168,1,251,1,0,7,7,10,1,0,0,0,1,0,1,0,0,star ,circle,,,,,,,,,,,,,,,,,,,,,,,,,,,,,,,,,,,,,,,,,,,,,,,,,,,,,,
296491,2022-09-29_15h58.25.240,vts_reward_expectancy,2022.2.4,MacIntel,60.0024001,Chrome,1680,1050,,,a,0.2003,1,252,1,0,8,8,3,1,0,1,0,0,1,0,0,0,circle,triangle,,,,,,,,,,,,,,,,,,,,,,,,,,,,,,,,,,,,,,,,,,,,,,,,,,,,,,
296491,2022-09-29_15h58.25.240,vts_reward_expectancy,2022.2.4,MacIntel,60.0024001,Chrome,1680,1050,,,l,0.3363,10,262,1,0,9,9,5,1,0,1,0,0,0,0,0,1,circle,star,,,,,,,,,,,,,,,,,,,,,,,,,,,,,,,,,,,,,,,,,,,,,,,,,,,,,,
296491,2022-09-29_15h58.25.240,vts_reward_expectancy,2022.2.4,MacIntel,60.0024001,Chrome,1680,1050,,,a,0.0515,10,272,1,0,10,10,9,1,0,0,0,1,1,0,0,0,star,triangle,,,,,,,,,,,,,,,,,,,,,,,,,,,,,,,,,,,,,,,,,,,,,,,,,,,,,,
296491,2022-09-29_15h58.25.240,vts_reward_expectancy,2022.2.4,MacIntel,60.0024001,Chrome,1680,1050,,,l,0.0504,1,273,1,0,11,11,11,1,0,0,0,1,0,0,1,0,star,hexagon,,,,,,,,,,,,,,,,,,,,,,,,,,,,,,,,,,,,,,,,,,,,,,,,,,,,,,
296491,2022-09-29_15h58.25.240,vts_reward_expectancy,2022.2.4,MacIntel,60.0024001,Chrome,1680,1050,,,l,0.486,10,283,1,1,0,12,10,1,0,0,0,1,0,1,0,0,star ,circle,,,,,,,,,,,,,,,,,,,,,,,,,,,,,,,,,,,,,,,,,,,,,,,,,,,,,,
296491,2022-09-29_15h58.25.240,vts_reward_expectancy,2022.2.4,MacIntel,60.0024001,Chrome,1680,1050,,,l,1.0067,10,293,1,1,1,13,8,1,0,0,1,0,0,0,0,1,hexagon,star,,,,,,,,,,,,,,,,,,,,,,,,,,,,,,,,,,,,,,,,,,,,,,,,,,,,,,
296491,2022-09-29_15h58.25.240,vts_reward_expectancy,2022.2.4,MacIntel,60.0024001,Chrome,1680,1050,,,a,1.7147,1,294,1,1,2,14,11,1,0,0,0,1,0,0,1,0,star,hexagon,,,,,,,,,,,,,,,,,,,,,,,,,,,,,,,,,,,,,,,,,,,,,,,,,,,,,,
296491,2022-09-29_15h58.25.240,vts_reward_expectancy,2022.2.4,MacIntel,60.0024001,Chrome,1680,1050,,,a,1.4833,10,304,1,1,3,15,4,1,0,1,0,0,0,0,1,0,circle,hexagon,,,,,,,,,,,,,,,,,,,,,,,,,,,,,,,,,,,,,,,,,,,,,,,,,,,,,,
296491,2022-09-29_15h58.25.240,vts_reward_expectancy,2022.2.4,MacIntel,60.0024001,Chrome,1680,1050,,,l,1.254,1,305,1,1,4,16,3,1,0,1,0,0,1,0,0,0,circle,triangle,,,,,,,,,,,,,,,,,,,,,,,,,,,,,,,,,,,,,,,,,,,,,,,,,,,,,,
296491,2022-09-29_15h58.25.240,vts_reward_expectancy,2022.2.4,MacIntel,60.0024001,Chrome,1680,1050,,,l,0.8975,1,306,1,1,5,17,0,1,1,0,0,0,0,1,0,0,triangle,circle,,,,,,,,,,,,,,,,,,,,,,,,,,,,,,,,,,,,,,,,,,,,,,,,,,,,,,
296491,2022-09-29_15h58.25.240,vts_reward_expectancy,2022.2.4,MacIntel,60.0024001,Chrome,1680,1050,,,a,1.4363,1,307,1,1,6,18,2,1,1,0,0,0,0,0,0,1,triangle,star,,,,,,,,,,,,,,,,,,,,,,,,,,,,,,,,,,,,,,,,,,,,,,,,,,,,,,
296491,2022-09-29_15h58.25.240,vts_reward_expectancy,2022.2.4,MacIntel,60.0024001,Chrome,1680,1050,,,a,0.5333,1,308,1,1,7,19,5,1,0,1,0,0,0,0,0,1,circle,star,,,,,,,,,,,,,,,,,,,,,,,,,,,,,,,,,,,,,,,,,,,,,,,,,,,,,,
296491,2022-09-29_15h58.25.240,vts_reward_expectancy,2022.2.4,MacIntel,60.0024001,Chrome,1680,1050,,,l,0.1082,10,318,1,1,8,20,7,1,0,0,1,0,0,1,0,0,hexagon,circle,,,,,,,,,,,,,,,,,,,,,,,,,,,,,,,,,,,,,,,,,,,,,,,,,,,,,,
296491,2022-09-29_15h58.25.240,vts_reward_expectancy,2022.2.4,MacIntel,60.0024001,Chrome,1680,1050,,,a,1.2825,1,319,1,1,9,21,1,1,1,0,0,0,0,0,1,0,triangle,hexagon,,,,,,,,,,,,,,,,,,,,,,,,,,,,,,,,,,,,,,,,,,,,,,,,,,,,,,
296491,2022-09-29_15h58.25.240,vts_reward_expectancy,2022.2.4,MacIntel,60.0024001,Chrome,1680,1050,,,l,18.9407,1,320,1,1,10,22,6,1,0,0,1,0,1,0,0,0,hexagon,triangle,,,,,,,,,,,,,,,,,,,,,,,,,,,,,,,,,,,,,,,,,,,,,,,,,,,,,,
296491,2022-09-29_15h58.25.240,vts_reward_expectancy,2022.2.4,MacIntel,60.0024001,Chrome,1680,1050,,,a,9.4877,10,330,1,1,11,23,9,1,0,0,0,1,1,0,0,0,star,triangle,,,,,,,,,,,,,,,,,,,,,,,,,,,,,,,,,,,,,,,,,,,,,,,,,,,,,,
296491,2022-09-29_15h58.25.240,vts_reward_expectancy,2022.2.4,MacIntel,60.0024001,Chrome,1680,1050,,,l,1.5051,10,340,1,2,0,24,7,1,0,0,1,0,0,1,0,0,hexagon,circle,,,,,,,,,,,,,,,,,,,,,,,,,,,,,,,,,,,,,,,,,,,,,,,,,,,,,,
296491,2022-09-29_15h58.25.240,vts_reward_expectancy,2022.2.4,MacIntel,60.0024001,Chrome,1680,1050,,,l,2.1899,10,350,1,2,1,25,10,1,0,0,0,1,0,1,0,0,star ,circle,,,,,,,,,,,,,,,,,,,,,,,,,,,,,,,,,,,,,,,,,,,,,,,,,,,,,,
296491,2022-09-29_15h58.25.240,vts_reward_expectancy,2022.2.4,MacIntel,60.0024001,Chrome,1680,1050,,,a,3.4421,1,351,1,2,2,26,3,1,0,1,0,0,1,0,0,0,circle,triangle,,,,,,,,,,,,,,,,,,,,,,,,,,,,,,,,,,,,,,,,,,,,,,,,,,,,,,
296491,2022-09-29_15h58.25.240,vts_reward_expectancy,2022.2.4,MacIntel,60.0024001,Chrome,1680,1050,,,l,1.4093,10,361,1,2,3,27,5,1,0,1,0,0,0,0,0,1,circle,star,,,,,,,,,,,,,,,,,,,,,,,,,,,,,,,,,,,,,,,,,,,,,,,,,,,,,,
296491,2022-09-29_15h58.25.240,vts_reward_expectancy,2022.2.4,MacIntel,60.0024001,Chrome,1680,1050,,,l,3.9516,1,362,1,2,4,28,11,1,0,0,0,1,0,0,1,0,star,hexagon,,,,,,,,,,,,,,,,,,,,,,,,,,,,,,,,,,,,,,,,,,,,,,,,,,,,,,
296491,2022-09-29_15h58.25.240,vts_reward_expectancy,2022.2.4,MacIntel,60.0024001,Chrome,1680,1050,,,a,6.1027,10,372,1,2,5,29,9,1,0,0,0,1,1,0,0,0,star,triangle,,,,,,,,,,,,,,,,,,,,,,,,,,,,,,,,,,,,,,,,,,,,,,,,,,,,,,
296491,2022-09-29_15h58.25.240,vts_reward_expectancy,2022.2.4,MacIntel,60.0024001,Chrome,1680,1050,,,a,4.7368,10,382,1,2,6,30,2,1,1,0,0,0,0,0,0,1,triangle,star,,,,,,,,,,,,,,,,,,,,,,,,,,,,,,,,,,,,,,,,,,,,,,,,,,,,,,
296491,2022-09-29_15h58.25.240,vts_reward_expectancy,2022.2.4,MacIntel,60.0024001,Chrome,1680,1050,,,l,2.6656,10,392,1,2,7,31,4,1,0,1,0,0,0,0,1,0,circle,hexagon,,,,,,,,,,,,,,,,,,,,,,,,,,,,,,,,,,,,,,,,,,,,,,,,,,,,,,
296491,2022-09-29_15h58.25.240,vts_reward_expectancy,2022.2.4,MacIntel,60.0024001,Chrome,1680,1050,,,l,2.4008,10,402,1,2,8,32,8,1,0,0,1,0,0,0,0,1,hexagon,star,,,,,,,,,,,,,,,,,,,,,,,,,,,,,,,,,,,,,,,,,,,,,,,,,,,,,,
296491,2022-09-29_15h58.25.240,vts_reward_expectancy,2022.2.4,MacIntel,60.0024001,Chrome,1680,1050,,,a,1.4855,10,412,1,2,9,33,1,1,1,0,0,0,0,0,1,0,triangle,hexagon,,,,,,,,,,,,,,,,,,,,,,,,,,,,,,,,,,,,,,,,,,,,,,,,,,,,,,
296491,2022-09-29_15h58.25.240,vts_reward_expectancy,2022.2.4,MacIntel,60.0024001,Chrome,1680,1050,,,a,1.4854,10,422,1,2,10,34,0,1,1,0,0,0,0,1,0,0,triangle,circle,,,,,,,,,,,,,,,,,,,,,,,,,,,,,,,,,,,,,,,,,,,,,,,,,,,,,,
296491,2022-09-29_15h58.25.240,vts_reward_expectancy,2022.2.4,MacIntel,60.0024001,Chrome,1680,1050,,,a,2.0805,10,432,1,2,11,35,6,1,0,0,1,0,1,0,0,0,hexagon,triangle,,,,,,,,,,,,,,,,,,,,,,,,,,,,,,,,,,,,,,,,,,,,,,,,,,,,,,
296491,2022-09-29_15h58.25.240,vts_reward_expectancy,2022.2.4,MacIntel,60.0024001,Chrome,1680,1050,,,l,12.7909,10,442,2,0,0,0,10,1,0,0,0,1,0,1,0,0,star ,circle,,,,,,,,,,,,,,,,,,,,,,,,,,,,,,,,,,,,,,,,,,,,,,,,,,,,,,
296491,2022-09-29_15h58.25.240,vts_reward_expectancy,2022.2.4,MacIntel,60.0024001,Chrome,1680,1050,,,l,1.4331,10,452,2,0,1,1,8,1,0,0,1,0,0,0,0,1,hexagon,star,,,,,,,,,,,,,,,,,,,,,,,,,,,,,,,,,,,,,,,,,,,,,,,,,,,,,,
296491,2022-09-29_15h58.25.240,vts_reward_expectancy,2022.2.4,MacIntel,60.0024001,Chrome,1680,1050,,,l,1.3196,1,453,2,0,2,2,11,1,0,0,0,1,0,0,1,0,star,hexagon,,,,,,,,,,,,,,,,,,,,,,,,,,,,,,,,,,,,,,,,,,,,,,,,,,,,,,
296491,2022-09-29_15h58.25.240,vts_reward_expectancy,2022.2.4,MacIntel,60.0024001,Chrome,1680,1050,,,l,2.7517,1,454,2,0,3,3,4,1,0,1,0,0,0,0,1,0,circle,hexagon,,,,,,,,,,,,,,,,,,,,,,,,,,,,,,,,,,,,,,,,,,,,,,,,,,,,,,
296491,2022-09-29_15h58.25.240,vts_reward_expectancy,2022.2.4,MacIntel,60.0024001,Chrome,1680,1050,,,a,1.2657,10,464,2,0,4,4,9,1,0,0,0,1,1,0,0,0,star,triangle,,,,,,,,,,,,,,,,,,,,,,,,,,,,,,,,,,,,,,,,,,,,,,,,,,,,,,
296491,2022-09-29_15h58.25.240,vts_reward_expectancy,2022.2.4,MacIntel,60.0024001,Chrome,1680,1050,,,a,1.1341,1,465,2,0,5,5,3,1,0,1,0,0,1,0,0,0,circle,triangle,,,,,,,,,,,,,,,,,,,,,,,,,,,,,,,,,,,,,,,,,,,,,,,,,,,,,,
296491,2022-09-29_15h58.25.240,vts_reward_expectancy,2022.2.4,MacIntel,60.0024001,Chrome,1680,1050,,,a,30.7835,10,475,2,0,6,6,0,1,1,0,0,0,0,1,0,0,triangle,circle,,,,,,,,,,,,,,,,,,,,,,,,,,,,,,,,,,,,,,,,,,,,,,,,,,,,,,
296491,2022-09-29_15h58.25.240,vts_reward_expectancy,2022.2.4,MacIntel,60.0024001,Chrome,1680,1050,,,a,16.6269,1,476,2,0,7,7,6,1,0,0,1,0,1,0,0,0,hexagon,triangle,,,,,,,,,,,,,,,,,,,,,,,,,,,,,,,,,,,,,,,,,,,,,,,,,,,,,,
296491,2022-09-29_15h58.25.240,vts_reward_expectancy,2022.2.4,MacIntel,60.0024001,Chrome,1680,1050,,,l,7.7353,1,477,2,0,8,8,7,1,0,0,1,0,0,1,0,0,hexagon,circle,,,,,,,,,,,,,,,,,,,,,,,,,,,,,,,,,,,,,,,,,,,,,,,,,,,,,,
296491,2022-09-29_15h58.25.240,vts_reward_expectancy,2022.2.4,MacIntel,60.0024001,Chrome,1680,1050,,,l,12.1169,10,487,2,0,9,9,5,1,0,1,0,0,0,0,0,1,circle,star,,,,,,,,,,,,,,,,,,,,,,,,,,,,,,,,,,,,,,,,,,,,,,,,,,,,,,
296491,2022-09-29_15h58.25.240,vts_reward_expectancy,2022.2.4,MacIntel,60.0024001,Chrome,1680,1050,,,l,4.7754,1,488,2,0,10,10,2,1,1,0,0,0,0,0,0,1,triangle,star,,,,,,,,,,,,,,,,,,,,,,,,,,,,,,,,,,,,,,,,,,,,,,,,,,,,,,
296491,2022-09-29_15h58.25.240,vts_reward_expectancy,2022.2.4,MacIntel,60.0024001,Chrome,1680,1050,,,a,58.0956,10,498,2,0,11,11,1,1,1,0,0,0,0,0,1,0,triangle,hexagon,,,,,,,,,,,,,,,,,,,,,,,,,,,,,,,,,,,,,,,,,,,,,,,,,,,,,,
296491,2022-09-29_15h58.25.240,vts_reward_expectancy,2022.2.4,MacIntel,60.0024001,Chrome,1680,1050,,,a,54.5412,10,508,2,1,0,12,11,1,0,0,0,1,0,0,1,0,star,hexagon,,,,,,,,,,,,,,,,,,,,,,,,,,,,,,,,,,,,,,,,,,,,,,,,,,,,,,
296491,2022-09-29_15h58.25.240,vts_reward_expectancy,2022.2.4,MacIntel,60.0024001,Chrome,1680,1050,,,a,17.7512,1,509,2,1,1,13,0,1,1,0,0,0,0,1,0,0,triangle,circle,,,,,,,,,,,,,,,,,,,,,,,,,,,,,,,,,,,,,,,,,,,,,,,,,,,,,,
296491,2022-09-29_15h58.25.240,vts_reward_expectancy,2022.2.4,MacIntel,60.0024001,Chrome,1680,1050,,,l,2.5822,10,519,2,1,2,14,5,1,0,1,0,0,0,0,0,1,circle,star,,,,,,,,,,,,,,,,,,,,,,,,,,,,,,,,,,,,,,,,,,,,,,,,,,,,,,
296491,2022-09-29_15h58.25.240,vts_reward_expectancy,2022.2.4,MacIntel,60.0024001,Chrome,1680,1050,,,l,2.765,1,520,2,1,3,15,4,1,0,1,0,0,0,0,1,0,circle,hexagon,,,,,,,,,,,,,,,,,,,,,,,,,,,,,,,,,,,,,,,,,,,,,,,,,,,,,,
296491,2022-09-29_15h58.25.240,vts_reward_expectancy,2022.2.4,MacIntel,60.0024001,Chrome,1680,1050,,,a,3.1488,1,521,2,1,4,16,10,1,0,0,0,1,0,1,0,0,star ,circle,,,,,,,,,,,,,,,,,,,,,,,,,,,,,,,,,,,,,,,,,,,,,,,,,,,,,,
296491,2022-09-29_15h58.25.240,vts_reward_expectancy,2022.2.4,MacIntel,60.0024001,Chrome,1680,1050,,,a,9.17,1,522,2,1,5,17,9,1,0,0,0,1,1,0,0,0,star,triangle,,,,,,,,,,,,,,,,,,,,,,,,,,,,,,,,,,,,,,,,,,,,,,,,,,,,,,
296491,2022-09-29_15h58.25.240,vts_reward_expectancy,2022.2.4,MacIntel,60.0024001,Chrome,1680,1050,,,l,4.1023,10,532,2,1,6,18,6,1,0,0,1,0,1,0,0,0,hexagon,triangle,,,,,,,,,,,,,,,,,,,,,,,,,,,,,,,,,,,,,,,,,,,,,,,,,,,,,,
296491,2022-09-29_15h58.25.240,vts_reward_expectancy,2022.2.4,MacIntel,60.0024001,Chrome,1680,1050,,,l,2.5169,10,542,2,1,7,19,2,1,1,0,0,0,0,0,0,1,triangle,star,,,,,,,,,,,,,,,,,,,,,,,,,,,,,,,,,,,,,,,,,,,,,,,,,,,,,,
296491,2022-09-29_15h58.25.240,vts_reward_expectancy,2022.2.4,MacIntel,60.0024001,Chrome,1680,1050,,,a,1.8693,1,543,2,1,8,20,1,1,1,0,0,0,0,0,1,0,triangle,hexagon,,,,,,,,,,,,,,,,,,,,,,,,,,,,,,,,,,,,,,,,,,,,,,,,,,,,,,
296491,2022-09-29_15h58.25.240,vts_reward_expectancy,2022.2.4,MacIntel,60.0024001,Chrome,1680,1050,,,a,5.6551,10,553,2,1,9,21,7,1,0,0,1,0,0,1,0,0,hexagon,circle,,,,,,,,,,,,,,,,,,,,,,,,,,,,,,,,,,,,,,,,,,,,,,,,,,,,,,
296491,2022-09-29_15h58.25.240,vts_reward_expectancy,2022.2.4,MacIntel,60.0024001,Chrome,1680,1050,,,l,21.4167,10,563,2,1,10,22,3,1,0,1,0,0,1,0,0,0,circle,triangle,,,,,,,,,,,,,,,,,,,,,,,,,,,,,,,,,,,,,,,,,,,,,,,,,,,,,,
296491,2022-09-29_15h58.25.240,vts_reward_expectancy,2022.2.4,MacIntel,60.0024001,Chrome,1680,1050,,,a,8.4685,1,564,2,1,11,23,8,1,0,0,1,0,0,0,0,1,hexagon,star,,,,,,,,,,,,,,,,,,,,,,,,,,,,,,,,,,,,,,,,,,,,,,,,,,,,,,
296491,2022-09-29_15h58.25.240,vts_reward_expectancy,2022.2.4,MacIntel,60.0024001,Chrome,1680,1050,,,a,3.6194,10,574,2,2,0,24,1,1,1,0,0,0,0,0,1,0,triangle,hexagon,,,,,,,,,,,,,,,,,,,,,,,,,,,,,,,,,,,,,,,,,,,,,,,,,,,,,,
296491,2022-09-29_15h58.25.240,vts_reward_expectancy,2022.2.4,MacIntel,60.0024001,Chrome,1680,1050,,,a,0.3227,1,575,2,2,1,25,6,1,0,0,1,0,1,0,0,0,hexagon,triangle,,,,,,,,,,,,,,,,,,,,,,,,,,,,,,,,,,,,,,,,,,,,,,,,,,,,,,
296491,2022-09-29_15h58.25.240,vts_reward_expectancy,2022.2.4,MacIntel,60.0024001,Chrome,1680,1050,,,a,7.5704,10,585,2,2,2,26,11,1,0,0,0,1,0,0,1,0,star,hexagon,,,,,,,,,,,,,,,,,,,,,,,,,,,,,,,,,,,,,,,,,,,,,,,,,,,,,,
296491,2022-09-29_15h58.25.240,vts_reward_expectancy,2022.2.4,MacIntel,60.0024001,Chrome,1680,1050,,,l,4.3527,10,595,2,2,3,27,8,1,0,0,1,0,0,0,0,1,hexagon,star,,,,,,,,,,,,,,,,,,,,,,,,,,,,,,,,,,,,,,,,,,,,,,,,,,,,,,
296491,2022-09-29_15h58.25.240,vts_reward_expectancy,2022.2.4,MacIntel,60.0024001,Chrome,1680,1050,,,a,3.4318,10,605,2,2,4,28,4,1,0,1,0,0,0,0,1,0,circle,hexagon,,,,,,,,,,,,,,,,,,,,,,,,,,,,,,,,,,,,,,,,,,,,,,,,,,,,,,
296491,2022-09-29_15h58.25.240,vts_reward_expectancy,2022.2.4,MacIntel,60.0024001,Chrome,1680,1050,,,l,2.8531,10,615,2,2,5,29,2,1,1,0,0,0,0,0,0,1,triangle,star,,,,,,,,,,,,,,,,,,,,,,,,,,,,,,,,,,,,,,,,,,,,,,,,,,,,,,
296491,2022-09-29_15h58.25.240,vts_reward_expectancy,2022.2.4,MacIntel,60.0024001,Chrome,1680,1050,,,l,2.7702,1,616,2,2,6,30,9,1,0,0,0,1,1,0,0,0,star,triangle,,,,,,,,,,,,,,,,,,,,,,,,,,,,,,,,,,,,,,,,,,,,,,,,,,,,,,
296491,2022-09-29_15h58.25.240,vts_reward_expectancy,2022.2.4,MacIntel,60.0024001,Chrome,1680,1050,,,l,4.0301,1,617,2,2,7,31,3,1,0,1,0,0,1,0,0,0,circle,triangle,,,,,,,,,,,,,,,,,,,,,,,,,,,,,,,,,,,,,,,,,,,,,,,,,,,,,,
296491,2022-09-29_15h58.25.240,vts_reward_expectancy,2022.2.4,MacIntel,60.0024001,Chrome,1680,1050,,,a,3.8153,1,618,2,2,8,32,0,1,1,0,0,0,0,1,0,0,triangle,circle,,,,,,,,,,,,,,,,,,,,,,,,,,,,,,,,,,,,,,,,,,,,,,,,,,,,,,
296491,2022-09-29_15h58.25.240,vts_reward_expectancy,2022.2.4,MacIntel,60.0024001,Chrome,1680,1050,,,a,0.9462,1,619,2,2,9,33,7,1,0,0,1,0,0,1,0,0,hexagon,circle,,,,,,,,,,,,,,,,,,,,,,,,,,,,,,,,,,,,,,,,,,,,,,,,,,,,,,
296491,2022-09-29_15h58.25.240,vts_reward_expectancy,2022.2.4,MacIntel,60.0024001,Chrome,1680,1050,,,l,1.007,10,629,2,2,10,34,10,1,0,0,0,1,0,1,0,0,star ,circle,,,,,,,,,,,,,,,,,,,,,,,,,,,,,,,,,,,,,,,,,,,,,,,,,,,,,,
296491,2022-09-29_15h58.25.240,vts_reward_expectancy,2022.2.4,MacIntel,60.0024001,Chrome,1680,1050,,,a,2.2801,10,639,2,2,11,35,5,1,0,1,0,0,0,0,0,1,circle,star,,,,,,,,,,,,,,,,,,,,,,,,,,,,,,,,,,,,,,,,,,,,,,,,,,,,,,
296491,2022-09-29_15h58.25.240,vts_reward_expectancy,2022.2.4,MacIntel,60.0024001,Chrome,1680,1050,,,,,,,,,,,,,,,,,,,,,,,S,181,star,0,0,,0,0,0,0,0,1,,,,,,,,,,,,,,,,,,,,,,,,,,,,,,,,,,,,,,,,,,
296491,2022-09-29_15h58.25.240,vts_reward_expectancy,2022.2.4,MacIntel,60.0024001,Chrome,1680,1050,,,,,,,,,,,,,,,,,,,,,,,U,160,triangle,1,1,f,0,1,0,1,0,1,2.7625,,,,,,,,,,,,,,,,,,,,,,,,,,,,,,,,,,,,,,,,,
296491,2022-09-29_15h58.25.240,vts_reward_expectancy,2022.2.4,MacIntel,60.0024001,Chrome,1680,1050,,,,,,,,,,,,,,,,,,,,,,,D,125,circle,1,0,d,0,2,0,2,0,1,0.9806,,,,,,,,,,,,,,,,,,,,,,,,,,,,,,,,,,,,,,,,,
296491,2022-09-29_15h58.25.240,vts_reward_expectancy,2022.2.4,MacIntel,60.0024001,Chrome,1680,1050,,,,,,,,,,,,,,,,,,,,,,,Y,139,hexagon,1,0,f,0,3,0,3,0,1,0.9054,,,,,,,,,,,,,,,,,,,,,,,,,,,,,,,,,,,,,,,,,
296491,2022-09-29_15h58.25.240,vts_reward_expectancy,2022.2.4,MacIntel,60.0024001,Chrome,1680,1050,,,,,,,,,,,,,,,,,,,,,,,B,174,star,1,0,d,0,4,0,4,0,1,0.6288,,,,,,,,,,,,,,,,,,,,,,,,,,,,,,,,,,,,,,,,,
296491,2022-09-29_15h58.25.240,vts_reward_expectancy,2022.2.4,MacIntel,60.0024001,Chrome,1680,1050,,,,,,,,,,,,,,,,,,,,,,,H,167,triangle,1,0,d,0,5,0,5,0,1,0.9624,,,,,,,,,,,,,,,,,,,,,,,,,,,,,,,,,,,,,,,,,
296491,2022-09-29_15h58.25.240,vts_reward_expectancy,2022.2.4,MacIntel,60.0024001,Chrome,1680,1050,,,,,,,,,,,,,,,,,,,,,,,W,146,circle,1,0,f,0,6,0,6,0,1,0.928,,,,,,,,,,,,,,,,,,,,,,,,,,,,,,,,,,,,,,,,,
296491,2022-09-29_15h58.25.240,vts_reward_expectancy,2022.2.4,MacIntel,60.0024001,Chrome,1680,1050,,,,,,,,,,,,,,,,,,,,,,,F,132,hexagon,1,0,d,0,7,0,7,0,1,1.0049,,,,,,,,,,,,,,,,,,,,,,,,,,,,,,,,,,,,,,,,,
296491,2022-09-29_15h58.25.240,vts_reward_expectancy,2022.2.4,MacIntel,60.0024001,Chrome,1680,1050,,,,,,,,,,,,,,,,,,,,,,,S,181,circle,1,0,f,0,8,0,8,0,1,0.7878,,,,,,,,,,,,,,,,,,,,,,,,,,,,,,,,,,,,,,,,,
296491,2022-09-29_15h58.25.240,vts_reward_expectancy,2022.2.4,MacIntel,60.0024001,Chrome,1680,1050,,,,,,,,,,,,,,,,,,,,,,,U,160,star,1,0,f,0,9,0,9,0,1,0.765,,,,,,,,,,,,,,,,,,,,,,,,,,,,,,,,,,,,,,,,,
296491,2022-09-29_15h58.25.240,vts_reward_expectancy,2022.2.4,MacIntel,60.0024001,Chrome,1680,1050,,,,,,,,,,,,,,,,,,,,,,,B,174,triangle,1,0,,1,,,,,,,k,1.0821,0,0,0,0,1,,,,,,,,,,,,,,,,,,,,,,,,,,,,,,,,,,
296491,2022-09-29_15h58.25.240,vts_reward_expectancy,2022.2.4,MacIntel,60.0024001,Chrome,1680,1050,,,,,,,,,,,,,,,,,,,,,,,D,132,hexagon,1,0,,1,,,,,,,j,0.8451,1,0,1,0,1,,,,,,,,,,,,,,,,,,,,,,,,,,,,,,,,,,
296491,2022-09-29_15h58.25.240,vts_reward_expectancy,2022.2.4,MacIntel,60.0024001,Chrome,1680,1050,,,,,,,,,,,,,,,,,,,,,,,S,160,circle,1,0,,1,,,,,,,k,0.9255,2,0,2,0,1,,,,,,,,,,,,,,,,,,,,,,,,,,,,,,,,,,
296491,2022-09-29_15h58.25.240,vts_reward_expectancy,2022.2.4,MacIntel,60.0024001,Chrome,1680,1050,,,,,,,,,,,,,,,,,,,,,,,W,146,star,1,0,,1,,,,,,,j,0.8616,3,0,3,0,1,,,,,,,,,,,,,,,,,,,,,,,,,,,,,,,,,,
296491,2022-09-29_15h58.25.240,vts_reward_expectancy,2022.2.4,MacIntel,60.0024001,Chrome,1680,1050,,,,,,,,,,,,,,,,,,,,,,,U,139,triangle,1,0,,1,,,,,,,j,0.6969,4,0,4,0,1,,,,,,,,,,,,,,,,,,,,,,,,,,,,,,,,,,
296491,2022-09-29_15h58.25.240,vts_reward_expectancy,2022.2.4,MacIntel,60.0024001,Chrome,1680,1050,,,,,,,,,,,,,,,,,,,,,,,F,167,hexagon,1,0,,1,,,,,,,k,0.8283,5,0,5,0,1,,,,,,,,,,,,,,,,,,,,,,,,,,,,,,,,,,
296491,2022-09-29_15h58.25.240,vts_reward_expectancy,2022.2.4,MacIntel,60.0024001,Chrome,1680,1050,,,,,,,,,,,,,,,,,,,,,,,H,125,circle,1,0,,1,,,,,,,j,0.8177,6,0,6,0,1,,,,,,,,,,,,,,,,,,,,,,,,,,,,,,,,,,
296491,2022-09-29_15h58.25.240,vts_reward_expectancy,2022.2.4,MacIntel,60.0024001,Chrome,1680,1050,,,,,,,,,,,,,,,,,,,,,,,Y,181,star,1,0,,1,,,,,,,k,0.5818,7,0,7,0,1,,,,,,,,,,,,,,,,,,,,,,,,,,,,,,,,,,
296491,2022-09-29_15h58.25.240,vts_reward_expectancy,2022.2.4,MacIntel,60.0024001,Chrome,1680,1050,,,,,,,,,,,,,,,,,,,,,,,B,174,triangle,1,0,,1,,,,,,,k,1.1639,8,0,8,0,1,,,,,,,,,,,,,,,,,,,,,,,,,,,,,,,,,,
296491,2022-09-29_15h58.25.240,vts_reward_expectancy,2022.2.4,MacIntel,60.0024001,Chrome,1680,1050,,,,,,,,,,,,,,,,,,,,,,,D,132,star,1,0,,1,,,,,,,j,1.4289,9,0,9,0,1,,,,,,,,,,,,,,,,,,,,,,,,,,,,,,,,,,
296491,2022-09-29_15h58.25.240,vts_reward_expectancy,2022.2.4,MacIntel,60.0024001,Chrome,1680,1050,,,,,0,639,,,,,,,,,,,,,,,,,Y,146,circle,1,0,,2,,,,,,,,,,,,,,-1,number,NA,j,1.4693,vtsPrac,0,0,0,0,1,,,,,,,,,,,,,,,,,,,,,,,
296491,2022-09-29_15h58.25.240,vts_reward_expectancy,2022.2.4,MacIntel,60.0024001,Chrome,1680,1050,,,,,0,639,,,,,,,,,,,,,,,,,W,125,hexagon,1,0,,2,,,,,,,,,,,,,,repeat,number,numRpt,j,1.1195,vtsPrac,1,0,1,0,1,,,,,,,,,,,,,,,,,,,,,,,
296491,2022-09-29_15h58.25.240,vts_reward_expectancy,2022.2.4,MacIntel,60.0024001,Chrome,1680,1050,,,,,0,639,,,,,,,,,,,,,,,,,F,139,circle,1,0,,2,,,,,,,,,,,,,,repeat,number,numRpt,j,0.9613,vtsPrac,2,0,2,0,1,,,,,,,,,,,,,,,,,,,,,,,
296491,2022-09-29_15h58.25.240,vts_reward_expectancy,2022.2.4,MacIntel,60.0024001,Chrome,1680,1050,,,,,0,639,,,,,,,,,,,,,,,,,H,160,hexagon,1,0,,2,,,,,,,,,,,,,,repeat,number,numRpt,k,0.9123,vtsPrac,3,0,3,0,1,,,,,,,,,,,,,,,,,,,,,,,
296491,2022-09-29_15h58.25.240,vts_reward_expectancy,2022.2.4,MacIntel,60.0024001,Chrome,1680,1050,,,,,0,639,,,,,,,,,,,,,,,,,Y,146,triangle,1,0,,2,,,,,,,,,,,,,,repeat,number,numRpt,j,0.6974,vtsPrac,4,0,4,0,1,,,,,,,,,,,,,,,,,,,,,,,
296491,2022-09-29_15h58.25.240,vts_reward_expectancy,2022.2.4,MacIntel,60.0024001,Chrome,1680,1050,,,,,0,639,,,,,,,,,,,,,,,,,W,125,circle,1,0,,2,,,,,,,,,,,,,,repeat,number,numRpt,j,0.7292,vtsPrac,5,0,5,0,1,,,,,,,,,,,,,,,,,,,,,,,
296491,2022-09-29_15h58.25.240,vts_reward_expectancy,2022.2.4,MacIntel,60.0024001,Chrome,1680,1050,,,,,0,639,,,,,,,,,,,,,,,,,F,139,star,1,0,,2,,,,,,,,,,,,,,repeat,number,numRpt,j,0.7618,vtsPrac,6,0,6,0,1,,,,,,,,,,,,,,,,,,,,,,,
296491,2022-09-29_15h58.25.240,vts_reward_expectancy,2022.2.4,MacIntel,60.0024001,Chrome,1680,1050,,,,,0,639,,,,,,,,,,,,,,,,,H,160,hexagon,1,0,,2,,,,,,,,,,,,,,repeat,number,numRpt,k,0.9274,vtsPrac,7,0,7,0,1,,,,,,,,,,,,,,,,,,,,,,,
296491,2022-09-29_15h58.25.240,vts_reward_expectancy,2022.2.4,MacIntel,60.0024001,Chrome,1680,1050,,,,,0,639,,,,,,,,,,,,,,,,,W,146,star,1,0,,2,,,,,,,,,,,,,,repeat,number,numRpt,j,0.8302,vtsPrac,8,0,8,0,1,,,,,,,,,,,,,,,,,,,,,,,
296491,2022-09-29_15h58.25.240,vts_reward_expectancy,2022.2.4,MacIntel,60.0024001,Chrome,1680,1050,,,,,0,639,,,,,,,,,,,,,,,,,U,139,circle,1,0,,2,,,,,,,,,,,,,,repeat,number,numRpt,j,1.3167,vtsPrac,9,0,9,0,1,,,,,,,,,,,,,,,,,,,,,,,
296491,2022-09-29_15h58.25.240,vts_reward_expectancy,2022.2.4,MacIntel,60.0024001,Chrome,1680,1050,,,,,0,639,,,,,,,,,,,,,,,,,Y,181,star,1,0,,2,,,,,,,,,,,,,,repeat,number,numRpt,k,1.1319,vtsPrac,10,0,10,0,1,,,,,,,,,,,,,,,,,,,,,,,
296491,2022-09-29_15h58.25.240,vts_reward_expectancy,2022.2.4,MacIntel,60.0024001,Chrome,1680,1050,,,,,0,639,,,,,,,,,,,,,,,,,F,174,triangle,1,0,,2,,,,,,,,,,,,,,repeat,number,numRpt,k,0.8621,vtsPrac,11,0,11,0,1,,,,,,,,,,,,,,,,,,,,,,,
296491,2022-09-29_15h58.25.240,vts_reward_expectancy,2022.2.4,MacIntel,60.0024001,Chrome,1680,1050,,,,,0,639,,,,,,,,,,,,,,,,,H,146,hexagon,1,0,,2,,,,,,,,,,,,,,repeat,number,numRpt,j,0.9503,vtsPrac,12,0,12,0,1,,,,,,,,,,,,,,,,,,,,,,,
296491,2022-09-29_15h58.25.240,vts_reward_expectancy,2022.2.4,MacIntel,60.0024001,Chrome,1680,1050,,,,,0,639,,,,,,,,,,,,,,,,,B,125,triangle,1,0,,2,,,,,,,,,,,,,,repeat,number,numRpt,j,0.7117,vtsPrac,13,0,13,0,1,,,,,,,,,,,,,,,,,,,,,,,
296491,2022-09-29_15h58.25.240,vts_reward_expectancy,2022.2.4,MacIntel,60.0024001,Chrome,1680,1050,,,,,0,639,,,,,,,,,,,,,,,,,U,174,circle,1,0,,2,,,,,,,,,,,,,,repeat,number,numRpt,k,1.0647,vtsPrac,14,0,14,0,1,,,,,,,,,,,,,,,,,,,,,,,
296491,2022-09-29_15h58.25.240,vts_reward_expectancy,2022.2.4,MacIntel,60.0024001,Chrome,1680,1050,,,,,0,639,,,,,,,,,,,,,,,,,Y,167,hexagon,1,0,,2,,,,,,,,,,,,,,repeat,number,numRpt,k,0.9968,vtsPrac,15,0,15,0,1,,,,,,,,,,,,,,,,,,,,,,,
296491,2022-09-29_15h58.25.240,vts_reward_expectancy,2022.2.4,MacIntel,60.0024001,Chrome,1680,1050,,,,,0,639,,,,,,,,,,,,,,,,,F,174,circle,1,0,,3,,,,,,,,,,,,,,switch,letter,lettSwt,d,1.1449,vtsPrac,0,0,0,0,1,,,,,,,,,,,,,,,,,,,,,,,
296491,2022-09-29_15h58.25.240,vts_reward_expectancy,2022.2.4,MacIntel,60.0024001,Chrome,1680,1050,,,,,0,639,,,,,,,,,,,,,,,,,U,132,hexagon,1,0,,3,,,,,,,,,,,,,,switch,number,numSwt,j,0.6489,vtsPrac,1,0,1,0,1,,,,,,,,,,,,,,,,,,,,,,,
296491,2022-09-29_15h58.25.240,vts_reward_expectancy,2022.2.4,MacIntel,60.0024001,Chrome,1680,1050,,,,,0,639,,,,,,,,,,,,,,,,,S,125,circle,1,0,,3,,,,,,,,,,,,,,repeat,number,numRpt,j,0.8528,vtsPrac,2,0,2,0,1,,,,,,,,,,,,,,,,,,,,,,,
296491,2022-09-29_15h58.25.240,vts_reward_expectancy,2022.2.4,MacIntel,60.0024001,Chrome,1680,1050,,,,,0,639,,,,,,,,,,,,,,,,,H,181,hexagon,1,0,,3,,,,,,,,,,,,,,switch,letter,lettSwt,d,0.745,vtsPrac,3,0,3,0,1,,,,,,,,,,,,,,,,,,,,,,,
296491,2022-09-29_15h58.25.240,vts_reward_expectancy,2022.2.4,MacIntel,60.0024001,Chrome,1680,1050,,,,,0,639,,,,,,,,,,,,,,,,,F,174,star,1,0,,3,,,,,,,,,,,,,,repeat,letter,lettRpt,d,0.9823,vtsPrac,4,0,4,0,1,,,,,,,,,,,,,,,,,,,,,,,
296491,2022-09-29_15h58.25.240,vts_reward_expectancy,2022.2.4,MacIntel,60.0024001,Chrome,1680,1050,,,,,0,639,,,,,,,,,,,,,,,,,U,132,triangle,1,0,,3,,,,,,,,,,,,,,switch,number,numSwt,j,0.5825,vtsPrac,5,0,5,0,1,,,,,,,,,,,,,,,,,,,,,,,
296491,2022-09-29_15h58.25.240,vts_reward_expectancy,2022.2.4,MacIntel,60.0024001,Chrome,1680,1050,,,,,0,639,,,,,,,,,,,,,,,,,S,125,triangle,1,0,,3,,,,,,,,,,,,,,repeat,number,numRpt,j,1.3783,vtsPrac,6,0,6,0,1,,,,,,,,,,,,,,,,,,,,,,,
296491,2022-09-29_15h58.25.240,vts_reward_expectancy,2022.2.4,MacIntel,60.0024001,Chrome,1680,1050,,,,,0,639,,,,,,,,,,,,,,,,,H,181,hexagon,1,0,,3,,,,,,,,,,,,,,switch,letter,lettSwt,d,0.7159,vtsPrac,7,0,7,0,1,,,,,,,,,,,,,,,,,,,,,,,
296491,2022-09-29_15h58.25.240,vts_reward_expectancy,2022.2.4,MacIntel,60.0024001,Chrome,1680,1050,,,,,0,639,,,,,,,,,,,,,,,,,Y,132,triangle,0,0,,3,,,,,,,,,,,,,,switch,number,NA,k,0.8464,vtsPrac,8,0,8,0,1,,,,,,,,,,,,,,,,,,,,,,,
296491,2022-09-29_15h58.25.240,vts_reward_expectancy,2022.2.4,MacIntel,60.0024001,Chrome,1680,1050,,,,,0,639,,,,,,,,,,,,,,,,,D,174,hexagon,1,1,,3,,,,,,,,,,,,,,repeat,number,numRpt,k,0.9647,vtsPrac,9,0,9,0,1,,,,,,,,,,,,,,,,,,,,,,,
296491,2022-09-29_15h58.25.240,vts_reward_expectancy,2022.2.4,MacIntel,60.0024001,Chrome,1680,1050,,,,,0,639,,,,,,,,,,,,,,,,,W,181,star,0,0,,3,,,,,,,,,,,,,,switch,letter,NA,d,1.5627,vtsPrac,10,0,10,0,1,,,,,,,,,,,,,,,,,,,,,,,
296491,2022-09-29_15h58.25.240,vts_reward_expectancy,2022.2.4,MacIntel,60.0024001,Chrome,1680,1050,,,,,0,639,,,,,,,,,,,,,,,,,F,125,hexagon,1,1,,3,,,,,,,,,,,,,,repeat,letter,lettRpt,d,0.9892,vtsPrac,11,0,11,0,1,,,,,,,,,,,,,,,,,,,,,,,
296491,2022-09-29_15h58.25.240,vts_reward_expectancy,2022.2.4,MacIntel,60.0024001,Chrome,1680,1050,,,,,0,639,,,,,,,,,,,,,,,,,F,160,star,1,0,,3,,,,,,,,,,,,,,repeat,letter,lettRpt,d,0.5993,vtsPrac,12,0,12,0,1,,,,,,,,,,,,,,,,,,,,,,,
296491,2022-09-29_15h58.25.240,vts_reward_expectancy,2022.2.4,MacIntel,60.0024001,Chrome,1680,1050,,,,,0,639,,,,,,,,,,,,,,,,,S,167,circle,1,0,,3,,,,,,,,,,,,,,switch,number,numSwt,k,0.9344,vtsPrac,13,0,13,0,1,,,,,,,,,,,,,,,,,,,,,,,
296491,2022-09-29_15h58.25.240,vts_reward_expectancy,2022.2.4,MacIntel,60.0024001,Chrome,1680,1050,,,,,0,639,,,,,,,,,,,,,,,,,B,181,hexagon,1,0,,3,,,,,,,,,,,,,,repeat,number,numRpt,k,0.6822,vtsPrac,14,0,14,0,1,,,,,,,,,,,,,,,,,,,,,,,
296491,2022-09-29_15h58.25.240,vts_reward_expectancy,2022.2.4,MacIntel,60.0024001,Chrome,1680,1050,,,,,0,639,,,,,,,,,,,,,,,,,H,146,triangle,1,0,,3,,,,,,,,,,,,,,switch,letter,lettSwt,d,0.6788,vtsPrac,15,0,15,0,1,,,,,,,,,,,,,,,,,,,,,,,
296491,2022-09-29_15h58.25.240,vts_reward_expectancy,2022.2.4,MacIntel,60.0024001,Chrome,1680,1050,,,,,,,,,,,,,,,,,,,,,,,,,,,,,,,,,,,,,,,,,,,,,,,,,,,,,,,,,,,,,,,,,,,,,,,,,,,,
296491,2022-09-29_15h58.25.240,vts_reward_expectancy,2022.2.4,MacIntel,60.0024001,Chrome,1680,1050,,,,,,,,,,,,,,,,,,,,,,,,,,,,,,,,,,,,,,,,,,,,,,,,,,,,,,,,,,,,,,,,,,,,,,,,,,,,
296491,2022-09-29_15h58.25.240,vts_reward_expectancy,2022.2.4,MacIntel,60.0024001,Chrome,1680,1050,,,,,0,639,,,,,,,,,,,,,,,,,S,160,star,0,0,,,,,,,,,,,,,,,,repeat,letter,NA,d,1.2485,noRew,,,,,,0,0,0,0,0,1,,,,,,,,,,,,,,,,,
296491,2022-09-29_15h58.25.240,vts_reward_expectancy,2022.2.4,MacIntel,60.0024001,Chrome,1680,1050,,,,,0,639,,,,,,,,,,,,,,,,,W,174,hexagon,1,1,,,,,,,,,,,,,,,,repeat,letter,lettRpt,f,0.9641,noRew,,,,,,0,1,0,1,0,1,,,,,,,,,,,,,,,,,
296491,2022-09-29_15h58.25.240,vts_reward_expectancy,2022.2.4,MacIntel,60.0024001,Chrome,1680,1050,,,,,0,639,,,,,,,,,,,,,,,,,Y,125,star,1,0,,,,,,,,,,,,,,,,switch,number,numSwt,j,0.7121,noRew,,,,,,0,2,0,2,0,1,,,,,,,,,,,,,,,,,
296491,2022-09-29_15h58.25.240,vts_reward_expectancy,2022.2.4,MacIntel,60.0024001,Chrome,1680,1050,,,,,0,639,,,,,,,,,,,,,,,,,F,132,hexagon,1,0,,,,,,,,,,,,,,,,switch,letter,lettSwt,d,0.8803,noRew,,,,,,0,3,0,3,0,1,,,,,,,,,,,,,,,,,
296491,2022-09-29_15h58.25.240,vts_reward_expectancy,2022.2.4,MacIntel,60.0024001,Chrome,1680,1050,,,,,0,639,,,,,,,,,,,,,,,,,S,160,star,1,0,,,,,,,,,,,,,,,,switch,number,numSwt,k,1.0471,noRew,,,,,,0,4,0,4,0,1,,,,,,,,,,,,,,,,,
296491,2022-09-29_15h58.25.240,vts_reward_expectancy,2022.2.4,MacIntel,60.0024001,Chrome,1680,1050,,,,,0,639,,,,,,,,,,,,,,,,,W,174,circle,1,0,,,,,,,,,,,,,,,,switch,letter,lettSwt,f,0.9322,noRew,,,,,,0,5,0,5,0,1,,,,,,,,,,,,,,,,,
296491,2022-09-29_15h58.25.240,vts_reward_expectancy,2022.2.4,MacIntel,60.0024001,Chrome,1680,1050,,,,,0,639,,,,,,,,,,,,,,,,,Y,125,triangle,1,0,,,,,,,,,,,,,,,,switch,number,numSwt,j,0.7971,noRew,,,,,,0,6,0,6,0,1,,,,,,,,,,,,,,,,,
296491,2022-09-29_15h58.25.240,vts_reward_expectancy,2022.2.4,MacIntel,60.0024001,Chrome,1680,1050,,,,,0,639,,,,,,,,,,,,,,,,,F,132,circle,1,0,,,,,,,,,,,,,,,,switch,letter,lettSwt,d,1.4623,noRew,,,,,,0,7,0,7,0,1,,,,,,,,,,,,,,,,,
296491,2022-09-29_15h58.25.240,vts_reward_expectancy,2022.2.4,MacIntel,60.0024001,Chrome,1680,1050,,,,,0,639,,,,,,,,,,,,,,,,,H,181,circle,1,0,,,,,,,,,,,,,,,,repeat,letter,lettRpt,d,1.1462,noRew,,,,,,0,8,0,8,0,1,,,,,,,,,,,,,,,,,
296491,2022-09-29_15h58.25.240,vts_reward_expectancy,2022.2.4,MacIntel,60.0024001,Chrome,1680,1050,,,,,0,639,,,,,,,,,,,,,,,,,U,146,triangle,0,0,,,,,,,,,,,,,,,,switch,number,NA,k,1.2874,noRew,,,,,,0,9,0,9,0,1,,,,,,,,,,,,,,,,,
296491,2022-09-29_15h58.25.240,vts_reward_expectancy,2022.2.4,MacIntel,60.0024001,Chrome,1680,1050,,,,,0,639,,,,,,,,,,,,,,,,,F,125,hexagon,1,1,,,,,,,,,,,,,,,,repeat,number,numRpt,j,0.8709,noRew,,,,,,0,10,0,10,0,1,,,,,,,,,,,,,,,,,
296491,2022-09-29_15h58.25.240,vts_reward_expectancy,2022.2.4,MacIntel,60.0024001,Chrome,1680,1050,,,,,0,639,,,,,,,,,,,,,,,,,Y,174,star,1,0,,,,,,,,,,,,,,,,switch,letter,lettSwt,f,0.7178,noRew,,,,,,0,11,0,11,0,1,,,,,,,,,,,,,,,,,
296491,2022-09-29_15h58.25.240,vts_reward_expectancy,2022.2.4,MacIntel,60.0024001,Chrome,1680,1050,,,,,0,639,,,,,,,,,,,,,,,,,S,146,circle,1,0,,,,,,,,,,,,,,,,repeat,letter,lettRpt,f,1.4506,noRew,,,,,,0,12,0,12,0,1,,,,,,,,,,,,,,,,,
296491,2022-09-29_15h58.25.240,vts_reward_expectancy,2022.2.4,MacIntel,60.0024001,Chrome,1680,1050,,,,,0,639,,,,,,,,,,,,,,,,,F,160,triangle,1,0,,,,,,,,,,,,,,,,switch,number,numSwt,k,1.1975,noRew,,,,,,0,13,0,13,0,1,,,,,,,,,,,,,,,,,
296491,2022-09-29_15h58.25.240,vts_reward_expectancy,2022.2.4,MacIntel,60.0024001,Chrome,1680,1050,,,,,0,639,,,,,,,,,,,,,,,,,B,174,circle,1,0,,,,,,,,,,,,,,,,switch,letter,lettSwt,d,0.7709,noRew,,,,,,0,14,0,14,0,1,,,,,,,,,,,,,,,,,
296491,2022-09-29_15h58.25.240,vts_reward_expectancy,2022.2.4,MacIntel,60.0024001,Chrome,1680,1050,,,,,0,639,,,,,,,,,,,,,,,,,H,167,triangle,1,0,,,,,,,,,,,,,,,,repeat,letter,lettRpt,d,0.8401,noRew,,,,,,0,15,0,15,0,1,,,,,,,,,,,,,,,,,
296491,2022-09-29_15h58.25.240,vts_reward_expectancy,2022.2.4,MacIntel,60.0024001,Chrome,1680,1050,,,,,0,639,,,,,,,,,,,,,,,,,U,181,hexagon,1,0,,,,,,,,,,,,,,,,switch,number,numSwt,k,0.6359,noRew,,,,,,0,16,0,16,0,1,,,,,,,,,,,,,,,,,
296491,2022-09-29_15h58.25.240,vts_reward_expectancy,2022.2.4,MacIntel,60.0024001,Chrome,1680,1050,,,,,0,639,,,,,,,,,,,,,,,,,D,174,star,1,0,,,,,,,,,,,,,,,,repeat,number,numRpt,k,1.0638,noRew,,,,,,0,17,0,17,0,1,,,,,,,,,,,,,,,,,
296491,2022-09-29_15h58.25.240,vts_reward_expectancy,2022.2.4,MacIntel,60.0024001,Chrome,1680,1050,,,,,0,639,,,,,,,,,,,,,,,,,B,146,triangle,1,0,,,,,,,,,,,,,,,,switch,letter,lettSwt,d,1.5699,noRew,,,,,,0,18,0,18,0,1,,,,,,,,,,,,,,,,,
296491,2022-09-29_15h58.25.240,vts_reward_expectancy,2022.2.4,MacIntel,60.0024001,Chrome,1680,1050,,,,,0,639,,,,,,,,,,,,,,,,,F,125,circle,1,0,,,,,,,,,,,,,,,,switch,number,numSwt,j,0.7297,noRew,,,,,,0,19,0,19,0,1,,,,,,,,,,,,,,,,,
296491,2022-09-29_15h58.25.240,vts_reward_expectancy,2022.2.4,MacIntel,60.0024001,Chrome,1680,1050,,,,,0,639,,,,,,,,,,,,,,,,,D,132,star,1,0,,,,,,,,,,,,,,,,repeat,number,numRpt,j,0.6777,noRew,,,,,,0,20,0,20,0,1,,,,,,,,,,,,,,,,,
296491,2022-09-29_15h58.25.240,vts_reward_expectancy,2022.2.4,MacIntel,60.0024001,Chrome,1680,1050,,,,,0,639,,,,,,,,,,,,,,,,,U,167,hexagon,1,0,,,,,,,,,,,,,,,,switch,letter,lettSwt,f,1.488,noRew,,,,,,0,21,0,21,0,1,,,,,,,,,,,,,,,,,
296491,2022-09-29_15h58.25.240,vts_reward_expectancy,2022.2.4,MacIntel,60.0024001,Chrome,1680,1050,,,,,0,639,,,,,,,,,,,,,,,,,F,181,hexagon,1,0,,,,,,,,,,,,,,,,repeat,letter,lettRpt,d,1.2001,noRew,,,,,,0,22,0,22,0,1,,,,,,,,,,,,,,,,,
296491,2022-09-29_15h58.25.240,vts_reward_expectancy,2022.2.4,MacIntel,60.0024001,Chrome,1680,1050,,,,,0,639,,,,,,,,,,,,,,,,,B,125,circle,1,0,,,,,,,,,,,,,,,,switch,number,numSwt,j,1.3516,noRew,,,,,,0,23,0,23,0,1,,,,,,,,,,,,,,,,,
296491,2022-09-29_15h58.25.240,vts_reward_expectancy,2022.2.4,MacIntel,60.0024001,Chrome,1680,1050,,,,,0,639,,,,,,,,,,,,,,,,,W,125,circle,1,0,,,,,,,,,,,,,,,,switch,letter,lettSwt,f,1.1291,noRew,,,,,,0,24,0,24,0,1,,,,,,,,,,,,,,,,,
296491,2022-09-29_15h58.25.240,vts_reward_expectancy,2022.2.4,MacIntel,60.0024001,Chrome,1680,1050,,,,,0,639,,,,,,,,,,,,,,,,,B,174,hexagon,1,0,,,,,,,,,,,,,,,,repeat,letter,lettRpt,d,0.8819,noRew,,,,,,0,25,0,25,0,1,,,,,,,,,,,,,,,,,
296491,2022-09-29_15h58.25.240,vts_reward_expectancy,2022.2.4,MacIntel,60.0024001,Chrome,1680,1050,,,,,0,639,,,,,,,,,,,,,,,,,H,146,circle,1,0,,,,,,,,,,,,,,,,repeat,letter,lettRpt,d,1.4131,noRew,,,,,,0,26,0,26,0,1,,,,,,,,,,,,,,,,,
296491,2022-09-29_15h58.25.240,vts_reward_expectancy,2022.2.4,MacIntel,60.0024001,Chrome,1680,1050,,,,,0,639,,,,,,,,,,,,,,,,,S,160,star,0,0,,,,,,,,,,,,,,,,switch,number,NA,j,1.0804,noRew,,,,,,0,27,0,27,0,1,,,,,,,,,,,,,,,,,
296491,2022-09-29_15h58.25.240,vts_reward_expectancy,2022.2.4,MacIntel,60.0024001,Chrome,1680,1050,,,,,0,639,,,,,,,,,,,,,,,,,F,160,circle,1,1,,,,,,,,,,,,,,,,repeat,number,numRpt,k,1.3066,noRew,,,,,,0,28,0,28,0,1,,,,,,,,,,,,,,,,,
296491,2022-09-29_15h58.25.240,vts_reward_expectancy,2022.2.4,MacIntel,60.0024001,Chrome,1680,1050,,,,,0,639,,,,,,,,,,,,,,,,,D,146,hexagon,1,0,,,,,,,,,,,,,,,,repeat,number,numRpt,j,1.2955,noRew,,,,,,0,29,0,29,0,1,,,,,,,,,,,,,,,,,
296491,2022-09-29_15h58.25.240,vts_reward_expectancy,2022.2.4,MacIntel,60.0024001,Chrome,1680,1050,,,,,0,639,,,,,,,,,,,,,,,,,Y,167,circle,1,0,,,,,,,,,,,,,,,,switch,letter,lettSwt,f,0.9803,noRew,,,,,,0,30,0,30,0,1,,,,,,,,,,,,,,,,,
296491,2022-09-29_15h58.25.240,vts_reward_expectancy,2022.2.4,MacIntel,60.0024001,Chrome,1680,1050,,,,,0,639,,,,,,,,,,,,,,,,,B,132,star,1,0,,,,,,,,,,,,,,,,switch,number,numSwt,j,0.7991,noRew,,,,,,0,31,0,31,0,1,,,,,,,,,,,,,,,,,
296491,2022-09-29_15h58.25.240,vts_reward_expectancy,2022.2.4,MacIntel,60.0024001,Chrome,1680,1050,,,,,0,639,,,,,,,,,,,,,,,,,H,181,circle,1,0,,,,,,,,,,,,,,,,repeat,number,numRpt,k,1.1184,noRew,,,,,,0,32,0,32,0,1,,,,,,,,,,,,,,,,,
296491,2022-09-29_15h58.25.240,vts_reward_expectancy,2022.2.4,MacIntel,60.0024001,Chrome,1680,1050,,,,,0,639,,,,,,,,,,,,,,,,,D,160,triangle,1,0,,,,,,,,,,,,,,,,switch,letter,lettSwt,d,1.0856,noRew,,,,,,0,33,0,33,0,1,,,,,,,,,,,,,,,,,
296491,2022-09-29_15h58.25.240,vts_reward_expectancy,2022.2.4,MacIntel,60.0024001,Chrome,1680,1050,,,,,0,639,,,,,,,,,,,,,,,,,W,146,hexagon,1,0,,,,,,,,,,,,,,,,switch,number,numSwt,j,0.6949,noRew,,,,,,0,34,0,34,0,1,,,,,,,,,,,,,,,,,
296491,2022-09-29_15h58.25.240,vts_reward_expectancy,2022.2.4,MacIntel,60.0024001,Chrome,1680,1050,,,,,0,639,,,,,,,,,,,,,,,,,S,167,star,1,0,,,,,,,,,,,,,,,,repeat,number,numRpt,k,1.4511,noRew,,,,,,0,35,0,35,0,1,,,,,,,,,,,,,,,,,
296491,2022-09-29_15h58.25.240,vts_reward_expectancy,2022.2.4,MacIntel,60.0024001,Chrome,1680,1050,,,,,0,639,,,,,,,,,,,,,,,,,U,160,hexagon,1,0,,,,,,,,,,,,,,,,switch,letter,lettSwt,f,0.8543,noRew,,,,,,0,36,0,36,0,1,,,,,,,,,,,,,,,,,
296491,2022-09-29_15h58.25.240,vts_reward_expectancy,2022.2.4,MacIntel,60.0024001,Chrome,1680,1050,,,,,0,639,,,,,,,,,,,,,,,,,F,125,star,1,0,,,,,,,,,,,,,,,,switch,number,numSwt,j,0.8209,noRew,,,,,,0,37,0,37,0,1,,,,,,,,,,,,,,,,,
296491,2022-09-29_15h58.25.240,vts_reward_expectancy,2022.2.4,MacIntel,60.0024001,Chrome,1680,1050,,,,,0,639,,,,,,,,,,,,,,,,,W,146,star,1,0,,,,,,,,,,,,,,,,repeat,number,numRpt,j,1.4691,noRew,,,,,,0,38,0,38,0,1,,,,,,,,,,,,,,,,,
296491,2022-09-29_15h58.25.240,vts_reward_expectancy,2022.2.4,MacIntel,60.0024001,Chrome,1680,1050,,,,,0,639,,,,,,,,,,,,,,,,,D,174,triangle,1,0,,,,,,,,,,,,,,,,switch,letter,lettSwt,d,1.3975,noRew,,,,,,0,39,0,39,0,1,,,,,,,,,,,,,,,,,
296491,2022-09-29_15h58.25.240,vts_reward_expectancy,2022.2.4,MacIntel,60.0024001,Chrome,1680,1050,,,,,0,639,,,,,,,,,,,,,,,,,U,139,star,1,0,,,,,,,,,,,,,,,,repeat,letter,lettRpt,f,1.251,noRew,,,,,,0,40,0,40,0,1,,,,,,,,,,,,,,,,,
296491,2022-09-29_15h58.25.240,vts_reward_expectancy,2022.2.4,MacIntel,60.0024001,Chrome,1680,1050,,,,,0,639,,,,,,,,,,,,,,,,,H,181,circle,1,0,,,,,,,,,,,,,,,,switch,number,numSwt,k,1.6763,noRew,,,,,,0,41,0,41,0,1,,,,,,,,,,,,,,,,,
296491,2022-09-29_15h58.25.240,vts_reward_expectancy,2022.2.4,MacIntel,60.0024001,Chrome,1680,1050,,,,,0,639,,,,,,,,,,,,,,,,,Y,125,hexagon,1,0,,,,,,,,,,,,,,,,switch,letter,lettSwt,f,1.1261,noRew,,,,,,0,42,0,42,0,1,,,,,,,,,,,,,,,,,
296491,2022-09-29_15h58.25.240,vts_reward_expectancy,2022.2.4,MacIntel,60.0024001,Chrome,1680,1050,,,,,0,639,,,,,,,,,,,,,,,,,B,146,circle,1,0,,,,,,,,,,,,,,,,switch,number,numSwt,j,0.9023,noRew,,,,,,0,43,0,43,0,1,,,,,,,,,,,,,,,,,
296491,2022-09-29_15h58.25.240,vts_reward_expectancy,2022.2.4,MacIntel,60.0024001,Chrome,1680,1050,,,,,0,639,,,,,,,,,,,,,,,,,F,125,circle,1,0,,,,,,,,,,,,,,,,repeat,number,numRpt,j,1.0475,noRew,,,,,,0,44,0,44,0,1,,,,,,,,,,,,,,,,,
296491,2022-09-29_15h58.25.240,vts_reward_expectancy,2022.2.4,MacIntel,60.0024001,Chrome,1680,1050,,,,,0,639,,,,,,,,,,,,,,,,,B,160,star,1,0,,,,,,,,,,,,,,,,switch,letter,lettSwt,d,0.6495,noRew,,,,,,0,45,0,45,0,1,,,,,,,,,,,,,,,,,
296491,2022-09-29_15h58.25.240,vts_reward_expectancy,2022.2.4,MacIntel,60.0024001,Chrome,1680,1050,,,,,0,639,,,,,,,,,,,,,,,,,D,146,triangle,1,0,,,,,,,,,,,,,,,,switch,number,numSwt,j,0.7514,noRew,,,,,,0,46,0,46,0,1,,,,,,,,,,,,,,,,,
296491,2022-09-29_15h58.25.240,vts_reward_expectancy,2022.2.4,MacIntel,60.0024001,Chrome,1680,1050,,,,,0,639,,,,,,,,,,,,,,,,,W,174,star,1,0,,,,,,,,,,,,,,,,switch,letter,lettSwt,f,1.1979,noRew,,,,,,0,47,0,47,0,1,,,,,,,,,,,,,,,,,
296491,2022-09-29_15h58.25.240,vts_reward_expectancy,2022.2.4,MacIntel,60.0024001,Chrome,1680,1050,,,,,0,639,,,,,,,,,,,,,,,,,B,181,triangle,1,0,,,,,,,,,,,,,,,,repeat,letter,lettRpt,d,0.9138,noRew,,,,,,0,48,0,48,0,1,,,,,,,,,,,,,,,,,
296491,2022-09-29_15h58.25.240,vts_reward_expectancy,2022.2.4,MacIntel,60.0024001,Chrome,1680,1050,,,,,0,639,,,,,,,,,,,,,,,,,H,139,circle,1,0,,,,,,,,,,,,,,,,switch,number,numSwt,j,1.2794,noRew,,,,,,0,49,0,49,0,1,,,,,,,,,,,,,,,,,
296491,2022-09-29_15h58.25.240,vts_reward_expectancy,2022.2.4,MacIntel,60.0024001,Chrome,1680,1050,,,,,0,639,,,,,,,,,,,,,,,,,D,174,triangle,1,0,,,,,,,,,,,,,,,,repeat,number,numRpt,k,1.0617,noRew,,,,,,0,50,0,50,0,1,,,,,,,,,,,,,,,,,
296491,2022-09-29_15h58.25.240,vts_reward_expectancy,2022.2.4,MacIntel,60.0024001,Chrome,1680,1050,,,,,0,639,,,,,,,,,,,,,,,,,U,146,circle,1,0,,,,,,,,,,,,,,,,switch,letter,lettSwt,f,1.209,noRew,,,,,,0,51,0,51,0,1,,,,,,,,,,,,,,,,,
296491,2022-09-29_15h58.25.240,vts_reward_expectancy,2022.2.4,MacIntel,60.0024001,Chrome,1680,1050,,,,,0,639,,,,,,,,,,,,,,,,,B,125,circle,1,0,,,,,,,,,,,,,,,,repeat,letter,lettRpt,d,1.1794,noRew,,,,,,0,52,0,52,0,1,,,,,,,,,,,,,,,,,
296491,2022-09-29_15h58.25.240,vts_reward_expectancy,2022.2.4,MacIntel,60.0024001,Chrome,1680,1050,,,,,0,639,,,,,,,,,,,,,,,,,S,139,triangle,1,0,,,,,,,,,,,,,,,,switch,number,numSwt,j,1.6287,noRew,,,,,,0,53,0,53,0,1,,,,,,,,,,,,,,,,,
296491,2022-09-29_15h58.25.240,vts_reward_expectancy,2022.2.4,MacIntel,60.0024001,Chrome,1680,1050,,,,,0,639,,,,,,,,,,,,,,,,,W,181,triangle,1,0,,,,,,,,,,,,,,,,repeat,number,numRpt,k,1.0878,noRew,,,,,,0,54,0,54,0,1,,,,,,,,,,,,,,,,,
296491,2022-09-29_15h58.25.240,vts_reward_expectancy,2022.2.4,MacIntel,60.0024001,Chrome,1680,1050,,,,,0,639,,,,,,,,,,,,,,,,,Y,160,star,1,0,,,,,,,,,,,,,,,,switch,letter,lettSwt,f,1.0749,noRew,,,,,,0,55,0,55,0,1,,,,,,,,,,,,,,,,,
296491,2022-09-29_15h58.25.240,vts_reward_expectancy,2022.2.4,MacIntel,60.0024001,Chrome,1680,1050,,,,,0,639,,,,,,,,,,,,,,,,,S,181,circle,1,0,,,,,,,,,,,,,,,,switch,number,numSwt,k,1.598,noRew,,,,,,0,56,0,56,0,1,,,,,,,,,,,,,,,,,
296491,2022-09-29_15h58.25.240,vts_reward_expectancy,2022.2.4,MacIntel,60.0024001,Chrome,1680,1050,,,,,0,639,,,,,,,,,,,,,,,,,W,132,hexagon,1,0,,,,,,,,,,,,,,,,repeat,number,numRpt,j,1.1111,noRew,,,,,,0,57,0,57,0,1,,,,,,,,,,,,,,,,,
296491,2022-09-29_15h58.25.240,vts_reward_expectancy,2022.2.4,MacIntel,60.0024001,Chrome,1680,1050,,,,,0,639,,,,,,,,,,,,,,,,,U,174,triangle,1,0,,,,,,,,,,,,,,,,switch,letter,lettSwt,f,1.0641,noRew,,,,,,0,58,0,58,0,1,,,,,,,,,,,,,,,,,
296491,2022-09-29_15h58.25.240,vts_reward_expectancy,2022.2.4,MacIntel,60.0024001,Chrome,1680,1050,,,,,0,639,,,,,,,,,,,,,,,,,D,167,star,1,0,,,,,,,,,,,,,,,,repeat,letter,lettRpt,d,0.7451,noRew,,,,,,0,59,0,59,0,1,,,,,,,,,,,,,,,,,
296491,2022-09-29_15h58.25.240,vts_reward_expectancy,2022.2.4,MacIntel,60.0024001,Chrome,1680,1050,,,,,0,639,,,,,,,,,,,,,,,,,D,125,triangle,1,0,,,,,,,,,,,,,,,,repeat,letter,lettRpt,d,1.5373,noRew,,,,,,0,60,0,60,0,1,,,,,,,,,,,,,,,,,
296491,2022-09-29_15h58.25.240,vts_reward_expectancy,2022.2.4,MacIntel,60.0024001,Chrome,1680,1050,,,,,0,639,,,,,,,,,,,,,,,,,B,181,hexagon,1,0,,,,,,,,,,,,,,,,switch,number,numSwt,k,0.9445,noRew,,,,,,0,61,0,61,0,1,,,,,,,,,,,,,,,,,
296491,2022-09-29_15h58.25.240,vts_reward_expectancy,2022.2.4,MacIntel,60.0024001,Chrome,1680,1050,,,,,0,639,,,,,,,,,,,,,,,,,W,132,triangle,1,0,,,,,,,,,,,,,,,,repeat,number,numRpt,j,0.8947,noRew,,,,,,0,62,0,62,0,1,,,,,,,,,,,,,,,,,
296491,2022-09-29_15h58.25.240,vts_reward_expectancy,2022.2.4,MacIntel,60.0024001,Chrome,1680,1050,,,,,0,639,,,,,,,,,,,,,,,,,U,167,circle,1,0,,,,,,,,,,,,,,,,switch,letter,lettSwt,f,1.7126,noRew,,,,,,0,63,0,63,0,1,,,,,,,,,,,,,,,,,
296491,2022-09-29_15h58.25.240,vts_reward_expectancy,2022.2.4,MacIntel,60.0024001,Chrome,1680,1050,,,,,,,,,,,,,,,,,,,,,,,,,,,,,,,,,,,,,,,,,,,,,,,,,,,,,,,,,,,,,,,,,,,,,,,,,,,,
296491,2022-09-29_15h58.25.240,vts_reward_expectancy,2022.2.4,MacIntel,60.0024001,Chrome,1680,1050,,,,,0,639,,,,,,,,,,,,,,,,,S,160,hexagon,0,0,,,,,,,,,,,,,,,,switch,number,NA,j,1.2287,noRew,,,,,,0,,,,,,space,11.7171,high,0,0,0,0,1,,,,,,,,,
296491,2022-09-29_15h58.25.240,vts_reward_expectancy,2022.2.4,MacIntel,60.0024001,Chrome,1680,1050,,,,,10,649,,,,,,,,,,,,,,,,,B,132,star,1,1,,,,,,,,,,,,,,,,repeat,number,numRpt,j,0.9269,Hi,,,,,,0,,,,,,,,high,1,0,1,0,1,,,,,,,,,
296491,2022-09-29_15h58.25.240,vts_reward_expectancy,2022.2.4,MacIntel,60.0024001,Chrome,1680,1050,,,,,1,650,,,,,,,,,,,,,,,,,U,139,hexagon,1,0,,,,,,,,,,,,,,,,switch,letter,lettSwt,f,1.4806,Lo,,,,,,0,,,,,,,,high,2,0,2,0,1,,,,,,,,,
296491,2022-09-29_15h58.25.240,vts_reward_expectancy,2022.2.4,MacIntel,60.0024001,Chrome,1680,1050,,,,,0,650,,,,,,,,,,,,,,,,,Y,146,star,1,0,,,,,,,,,,,,,,,,switch,number,numSwt,j,1.3473,Hi,,,,,,0,,,,,,,,high,3,0,3,0,1,,,,,,,,,
296491,2022-09-29_15h58.25.240,vts_reward_expectancy,2022.2.4,MacIntel,60.0024001,Chrome,1680,1050,,,,,0,650,,,,,,,,,,,,,,,,,F,167,hexagon,0,0,,,,,,,,,,,,,,,,switch,letter,NA,f,0.8474,Hi,,,,,,0,,,,,,,,high,4,0,4,0,1,,,,,,,,,
296491,2022-09-29_15h58.25.240,vts_reward_expectancy,2022.2.4,MacIntel,60.0024001,Chrome,1680,1050,,,,,0,650,,,,,,,,,,,,,,,,,H,181,star,1,1,,,,,,,,,,,,,,,,repeat,letter,lettRpt,d,0.9756,Hi,,,,,,0,,,,,,,,high,5,0,5,0,1,,,,,,,,,
296491,2022-09-29_15h58.25.240,vts_reward_expectancy,2022.2.4,MacIntel,60.0024001,Chrome,1680,1050,,,,,1,651,,,,,,,,,,,,,,,,,W,125,hexagon,1,0,,,,,,,,,,,,,,,,switch,number,numSwt,j,0.7797,Lo,,,,,,0,,,,,,,,high,6,0,6,0,1,,,,,,,,,
296491,2022-09-29_15h58.25.240,vts_reward_expectancy,2022.2.4,MacIntel,60.0024001,Chrome,1680,1050,,,,,0,651,,,,,,,,,,,,,,,,,D,174,star,1,0,,,,,,,,,,,,,,,,repeat,number,numRpt,k,1.3888,Hi,,,,,,0,,,,,,,,high,7,0,7,0,1,,,,,,,,,
296491,2022-09-29_15h58.25.240,vts_reward_expectancy,2022.2.4,MacIntel,60.0024001,Chrome,1680,1050,,,,,1,652,,,,,,,,,,,,,,,,,S,160,hexagon,1,0,,,,,,,,,,,,,,,,switch,letter,lettSwt,f,1.346,Lo,,,,,,0,,,,,,,,high,8,0,8,0,1,,,,,,,,,
296491,2022-09-29_15h58.25.240,vts_reward_expectancy,2022.2.4,MacIntel,60.0024001,Chrome,1680,1050,,,,,1,653,,,,,,,,,,,,,,,,,B,132,star,1,0,,,,,,,,,,,,,,,,switch,number,numSwt,j,0.6805,Hi,,,,,,0,,,,,,,,high,9,0,9,0,1,,,,,,,,,
296491,2022-09-29_15h58.25.240,vts_reward_expectancy,2022.2.4,MacIntel,60.0024001,Chrome,1680,1050,,,,,1,654,,,,,,,,,,,,,,,,,U,139,hexagon,1,0,,,,,,,,,,,,,,,,repeat,number,numRpt,j,1.011,Lo,,,,,,0,,,,,,,,high,10,0,10,0,1,,,,,,,,,
296491,2022-09-29_15h58.25.240,vts_reward_expectancy,2022.2.4,MacIntel,60.0024001,Chrome,1680,1050,,,,,0,654,,,,,,,,,,,,,,,,,Y,146,star,1,0,,,,,,,,,,,,,,,,switch,letter,lettSwt,f,1.2538,Hi,,,,,,0,,,,,,,,high,11,0,11,0,1,,,,,,,,,
296491,2022-09-29_15h58.25.240,vts_reward_expectancy,2022.2.4,MacIntel,60.0024001,Chrome,1680,1050,,,,,10,664,,,,,,,,,,,,,,,,,F,167,star,1,0,,,,,,,,,,,,,,,,repeat,letter,lettRpt,d,0.8753,Hi,,,,,,0,,,,,,,,high,12,0,12,0,1,,,,,,,,,
296491,2022-09-29_15h58.25.240,vts_reward_expectancy,2022.2.4,MacIntel,60.0024001,Chrome,1680,1050,,,,,1,665,,,,,,,,,,,,,,,,,H,181,hexagon,1,0,,,,,,,,,,,,,,,,repeat,letter,lettRpt,d,0.781,Lo,,,,,,0,,,,,,,,high,13,0,13,0,1,,,,,,,,,
296491,2022-09-29_15h58.25.240,vts_reward_expectancy,2022.2.4,MacIntel,60.0024001,Chrome,1680,1050,,,,,0,665,,,,,,,,,,,,,,,,,W,125,star,1,0,,,,,,,,,,,,,,,,repeat,letter,lettRpt,f,1.1619,Hi,,,,,,0,,,,,,,,high,14,0,14,0,1,,,,,,,,,
296491,2022-09-29_15h58.25.240,vts_reward_expectancy,2022.2.4,MacIntel,60.0024001,Chrome,1680,1050,,,,,1,666,,,,,,,,,,,,,,,,,D,174,hexagon,1,0,,,,,,,,,,,,,,,,switch,number,numSwt,k,0.6804,Lo,,,,,,0,,,,,,,,high,15,0,15,0,1,,,,,,,,,
296491,2022-09-29_15h58.25.240,vts_reward_expectancy,2022.2.4,MacIntel,60.0024001,Chrome,1680,1050,,,,,1,667,,,,,,,,,,,,,,,,,W,132,hexagon,1,0,,,,,,,,,,,,,,,,switch,letter,lettSwt,f,0.5964,Lo,,,,,,0,,,,,,,,high,16,0,16,0,1,,,,,,,,,
296491,2022-09-29_15h58.25.240,vts_reward_expectancy,2022.2.4,MacIntel,60.0024001,Chrome,1680,1050,,,,,10,677,,,,,,,,,,,,,,,,,D,125,star,1,0,,,,,,,,,,,,,,,,repeat,letter,lettRpt,d,0.7632,Hi,,,,,,0,,,,,,,,high,17,0,17,0,1,,,,,,,,,
296491,2022-09-29_15h58.25.240,vts_reward_expectancy,2022.2.4,MacIntel,60.0024001,Chrome,1680,1050,,,,,10,687,,,,,,,,,,,,,,,,,Y,167,star,1,0,,,,,,,,,,,,,,,,repeat,letter,lettRpt,f,0.5985,Hi,,,,,,0,,,,,,,,high,18,0,18,0,1,,,,,,,,,
296491,2022-09-29_15h58.25.240,vts_reward_expectancy,2022.2.4,MacIntel,60.0024001,Chrome,1680,1050,,,,,1,688,,,,,,,,,,,,,,,,,S,181,hexagon,1,0,,,,,,,,,,,,,,,,repeat,letter,lettRpt,f,0.8785,Lo,,,,,,0,,,,,,,,high,19,0,19,0,1,,,,,,,,,
296491,2022-09-29_15h58.25.240,vts_reward_expectancy,2022.2.4,MacIntel,60.0024001,Chrome,1680,1050,,,,,10,698,,,,,,,,,,,,,,,,,F,160,star,1,0,,,,,,,,,,,,,,,,repeat,letter,lettRpt,d,0.7968,Hi,,,,,,0,,,,,,,,high,20,0,20,0,1,,,,,,,,,
296491,2022-09-29_15h58.25.240,vts_reward_expectancy,2022.2.4,MacIntel,60.0024001,Chrome,1680,1050,,,,,0,698,,,,,,,,,,,,,,,,,H,174,hexagon,0,0,,,,,,,,,,,,,,,,switch,number,NA,j,0.815,Hi,,,,,,0,,,,,,,,high,21,0,21,0,1,,,,,,,,,
296491,2022-09-29_15h58.25.240,vts_reward_expectancy,2022.2.4,MacIntel,60.0024001,Chrome,1680,1050,,,,,1,699,,,,,,,,,,,,,,,,,U,139,hexagon,1,1,,,,,,,,,,,,,,,,repeat,number,numRpt,j,0.5462,Lo,,,,,,0,,,,,,,,high,22,0,22,0,1,,,,,,,,,
296491,2022-09-29_15h58.25.240,vts_reward_expectancy,2022.2.4,MacIntel,60.0024001,Chrome,1680,1050,,,,,0,699,,,,,,,,,,,,,,,,,B,146,star,1,0,,,,,,,,,,,,,,,,switch,letter,lettSwt,d,1.3536,Hi,,,,,,0,,,,,,,,high,23,0,23,0,1,,,,,,,,,
296491,2022-09-29_15h58.25.240,vts_reward_expectancy,2022.2.4,MacIntel,60.0024001,Chrome,1680,1050,,,,,10,709,,,,,,,,,,,,,,,,,F,167,star,1,0,,,,,,,,,,,,,,,,repeat,letter,lettRpt,d,0.7464,Hi,,,,,,0,,,,,,,,high,24,0,24,0,1,,,,,,,,,
296491,2022-09-29_15h58.25.240,vts_reward_expectancy,2022.2.4,MacIntel,60.0024001,Chrome,1680,1050,,,,,1,710,,,,,,,,,,,,,,,,,B,174,hexagon,1,0,,,,,,,,,,,,,,,,switch,number,numSwt,k,1.0143,Lo,,,,,,0,,,,,,,,high,25,0,25,0,1,,,,,,,,,
296491,2022-09-29_15h58.25.240,vts_reward_expectancy,2022.2.4,MacIntel,60.0024001,Chrome,1680,1050,,,,,1,711,,,,,,,,,,,,,,,,,W,125,hexagon,1,0,,,,,,,,,,,,,,,,repeat,number,numRpt,j,0.9476,Lo,,,,,,0,,,,,,,,high,26,0,26,0,1,,,,,,,,,
296491,2022-09-29_15h58.25.240,vts_reward_expectancy,2022.2.4,MacIntel,60.0024001,Chrome,1680,1050,,,,,1,712,,,,,,,,,,,,,,,,,Y,146,star,1,0,,,,,,,,,,,,,,,,switch,letter,lettSwt,f,0.6213,Hi,,,,,,0,,,,,,,,high,27,0,27,0,1,,,,,,,,,
296491,2022-09-29_15h58.25.240,vts_reward_expectancy,2022.2.4,MacIntel,60.0024001,Chrome,1680,1050,,,,,1,713,,,,,,,,,,,,,,,,,D,139,hexagon,1,0,,,,,,,,,,,,,,,,repeat,letter,lettRpt,d,0.896,Lo,,,,,,0,,,,,,,,high,28,0,28,0,1,,,,,,,,,
296491,2022-09-29_15h58.25.240,vts_reward_expectancy,2022.2.4,MacIntel,60.0024001,Chrome,1680,1050,,,,,10,723,,,,,,,,,,,,,,,,,S,132,star,1,0,,,,,,,,,,,,,,,,repeat,letter,lettRpt,f,0.7858,Hi,,,,,,0,,,,,,,,high,29,0,29,0,1,,,,,,,,,
296491,2022-09-29_15h58.25.240,vts_reward_expectancy,2022.2.4,MacIntel,60.0024001,Chrome,1680,1050,,,,,0,723,,,,,,,,,,,,,,,,,U,160,star,1,0,,,,,,,,,,,,,,,,switch,number,numSwt,k,1.2827,Hi,,,,,,0,,,,,,,,high,30,0,30,0,1,,,,,,,,,
296491,2022-09-29_15h58.25.240,vts_reward_expectancy,2022.2.4,MacIntel,60.0024001,Chrome,1680,1050,,,,,1,724,,,,,,,,,,,,,,,,,H,181,hexagon,1,0,,,,,,,,,,,,,,,,switch,letter,lettSwt,d,0.8656,Lo,,,,,,0,,,,,,,,high,31,0,31,0,1,,,,,,,,,
296491,2022-09-29_15h58.25.240,vts_reward_expectancy,2022.2.4,MacIntel,60.0024001,Chrome,1680,1050,,,,,10,734,,,,,,,,,,,,,,,,,B,174,triangle,1,0,,,,,,,,,,,,,,,,repeat,letter,lettRpt,d,0.6462,Lo,,,,,,1,,,,,,space,1.0407,low,0,0,0,0,1,,,,,,,,,
296491,2022-09-29_15h58.25.240,vts_reward_expectancy,2022.2.4,MacIntel,60.0024001,Chrome,1680,1050,,,,,0,734,,,,,,,,,,,,,,,,,D,181,circle,1,0,,,,,,,,,,,,,,,,switch,number,numSwt,k,1.197,Hi,,,,,,1,,,,,,,,low,1,0,1,0,1,,,,,,,,,
296491,2022-09-29_15h58.25.240,vts_reward_expectancy,2022.2.4,MacIntel,60.0024001,Chrome,1680,1050,,,,,10,744,,,,,,,,,,,,,,,,,Y,160,triangle,1,0,,,,,,,,,,,,,,,,switch,letter,lettSwt,f,0.6481,Lo,,,,,,1,,,,,,,,low,2,0,2,0,1,,,,,,,,,
296491,2022-09-29_15h58.25.240,vts_reward_expectancy,2022.2.4,MacIntel,60.0024001,Chrome,1680,1050,,,,,0,744,,,,,,,,,,,,,,,,,S,146,circle,1,0,,,,,,,,,,,,,,,,switch,number,numSwt,j,1.0945,Hi,,,,,,1,,,,,,,,low,3,0,3,0,1,,,,,,,,,
296491,2022-09-29_15h58.25.240,vts_reward_expectancy,2022.2.4,MacIntel,60.0024001,Chrome,1680,1050,,,,,10,754,,,,,,,,,,,,,,,,,U,125,circle,1,0,,,,,,,,,,,,,,,,repeat,number,numRpt,j,0.6628,Hi,,,,,,1,,,,,,,,low,4,0,4,0,1,,,,,,,,,
296491,2022-09-29_15h58.25.240,vts_reward_expectancy,2022.2.4,MacIntel,60.0024001,Chrome,1680,1050,,,,,1,755,,,,,,,,,,,,,,,,,H,132,triangle,1,0,,,,,,,,,,,,,,,,switch,letter,lettSwt,d,0.6293,Lo,,,,,,1,,,,,,,,low,5,0,5,0,1,,,,,,,,,
296491,2022-09-29_15h58.25.240,vts_reward_expectancy,2022.2.4,MacIntel,60.0024001,Chrome,1680,1050,,,,,0,755,,,,,,,,,,,,,,,,,F,139,circle,1,0,,,,,,,,,,,,,,,,switch,number,numSwt,j,1.2699,Hi,,,,,,1,,,,,,,,low,6,0,6,0,1,,,,,,,,,
296491,2022-09-29_15h58.25.240,vts_reward_expectancy,2022.2.4,MacIntel,60.0024001,Chrome,1680,1050,,,,,1,756,,,,,,,,,,,,,,,,,W,167,triangle,1,0,,,,,,,,,,,,,,,,switch,letter,lettSwt,f,0.6305,Lo,,,,,,1,,,,,,,,low,7,0,7,0,1,,,,,,,,,
296491,2022-09-29_15h58.25.240,vts_reward_expectancy,2022.2.4,MacIntel,60.0024001,Chrome,1680,1050,,,,,1,757,,,,,,,,,,,,,,,,,B,174,circle,1,0,,,,,,,,,,,,,,,,switch,number,numSwt,k,0.6782,Hi,,,,,,1,,,,,,,,low,8,0,8,0,1,,,,,,,,,
296491,2022-09-29_15h58.25.240,vts_reward_expectancy,2022.2.4,MacIntel,60.0024001,Chrome,1680,1050,,,,,10,767,,,,,,,,,,,,,,,,,D,181,triangle,1,0,,,,,,,,,,,,,,,,switch,letter,lettSwt,d,0.7842,Lo,,,,,,1,,,,,,,,low,9,0,9,0,1,,,,,,,,,
296491,2022-09-29_15h58.25.240,vts_reward_expectancy,2022.2.4,MacIntel,60.0024001,Chrome,1680,1050,,,,,1,768,,,,,,,,,,,,,,,,,Y,160,triangle,1,0,,,,,,,,,,,,,,,,repeat,letter,lettRpt,f,1.1076,Lo,,,,,,1,,,,,,,,low,10,0,10,0,1,,,,,,,,,
296491,2022-09-29_15h58.25.240,vts_reward_expectancy,2022.2.4,MacIntel,60.0024001,Chrome,1680,1050,,,,,0,768,,,,,,,,,,,,,,,,,S,146,circle,1,0,,,,,,,,,,,,,,,,switch,number,numSwt,j,1.1535,Hi,,,,,,1,,,,,,,,low,11,0,11,0,1,,,,,,,,,
296491,2022-09-29_15h58.25.240,vts_reward_expectancy,2022.2.4,MacIntel,60.0024001,Chrome,1680,1050,,,,,0,768,,,,,,,,,,,,,,,,,U,125,circle,1,0,,,,,,,,,,,,,,,,switch,letter,lettSwt,f,1.2693,Hi,,,,,,1,,,,,,,,low,12,0,12,0,1,,,,,,,,,
296491,2022-09-29_15h58.25.240,vts_reward_expectancy,2022.2.4,MacIntel,60.0024001,Chrome,1680,1050,,,,,1,769,,,,,,,,,,,,,,,,,H,132,triangle,1,0,,,,,,,,,,,,,,,,repeat,letter,lettRpt,d,0.6163,Lo,,,,,,1,,,,,,,,low,13,0,13,0,1,,,,,,,,,
296491,2022-09-29_15h58.25.240,vts_reward_expectancy,2022.2.4,MacIntel,60.0024001,Chrome,1680,1050,,,,,0,769,,,,,,,,,,,,,,,,,F,139,circle,1,0,,,,,,,,,,,,,,,,switch,number,numSwt,j,1.0115,Hi,,,,,,1,,,,,,,,low,14,0,14,0,1,,,,,,,,,
296491,2022-09-29_15h58.25.240,vts_reward_expectancy,2022.2.4,MacIntel,60.0024001,Chrome,1680,1050,,,,,1,770,,,,,,,,,,,,,,,,,W,167,triangle,1,0,,,,,,,,,,,,,,,,repeat,number,numRpt,k,0.8132,Lo,,,,,,1,,,,,,,,low,15,0,15,0,1,,,,,,,,,
296491,2022-09-29_15h58.25.240,vts_reward_expectancy,2022.2.4,MacIntel,60.0024001,Chrome,1680,1050,,,,,1,771,,,,,,,,,,,,,,,,,U,132,circle,1,0,,,,,,,,,,,,,,,,repeat,number,numRpt,j,0.7794,Hi,,,,,,1,,,,,,,,low,16,0,16,0,1,,,,,,,,,
296491,2022-09-29_15h58.25.240,vts_reward_expectancy,2022.2.4,MacIntel,60.0024001,Chrome,1680,1050,,,,,10,781,,,,,,,,,,,,,,,,,W,146,triangle,1,0,,,,,,,,,,,,,,,,repeat,number,numRpt,j,0.8956,Lo,,,,,,1,,,,,,,,low,17,0,17,0,1,,,,,,,,,
296491,2022-09-29_15h58.25.240,vts_reward_expectancy,2022.2.4,MacIntel,60.0024001,Chrome,1680,1050,,,,,0,781,,,,,,,,,,,,,,,,,D,125,triangle,0,0,,,,,,,,,,,,,,,,switch,letter,NA,f,0.9767,Lo,,,,,,1,,,,,,,,low,18,0,18,0,1,,,,,,,,,
296491,2022-09-29_15h58.25.240,vts_reward_expectancy,2022.2.4,MacIntel,60.0024001,Chrome,1680,1050,,,,,0,781,,,,,,,,,,,,,,,,,Y,174,circle,1,1,,,,,,,,,,,,,,,,switch,number,numSwt,k,0.8603,Hi,,,,,,1,,,,,,,,low,19,0,19,0,1,,,,,,,,,
296491,2022-09-29_15h58.25.240,vts_reward_expectancy,2022.2.4,MacIntel,60.0024001,Chrome,1680,1050,,,,,10,791,,,,,,,,,,,,,,,,,B,139,triangle,1,0,,,,,,,,,,,,,,,,switch,letter,lettSwt,d,0.9527,Lo,,,,,,1,,,,,,,,low,20,0,20,0,1,,,,,,,,,
296491,2022-09-29_15h58.25.240,vts_reward_expectancy,2022.2.4,MacIntel,60.0024001,Chrome,1680,1050,,,,,1,792,,,,,,,,,,,,,,,,,S,160,circle,1,0,,,,,,,,,,,,,,,,switch,number,numSwt,k,0.596,Hi,,,,,,1,,,,,,,,low,21,0,21,0,1,,,,,,,,,
296491,2022-09-29_15h58.25.240,vts_reward_expectancy,2022.2.4,MacIntel,60.0024001,Chrome,1680,1050,,,,,10,802,,,,,,,,,,,,,,,,,F,181,circle,1,0,,,,,,,,,,,,,,,,repeat,number,numRpt,k,0.6433,Hi,,,,,,1,,,,,,,,low,22,0,22,0,1,,,,,,,,,
296491,2022-09-29_15h58.25.240,vts_reward_expectancy,2022.2.4,MacIntel,60.0024001,Chrome,1680,1050,,,,,0,802,,,,,,,,,,,,,,,,,H,167,triangle,0,0,,,,,,,,,,,,,,,,repeat,number,NA,j,1.1782,Hi,,,,,,1,,,,,,,,low,23,0,23,0,1,,,,,,,,,
296491,2022-09-29_15h58.25.240,vts_reward_expectancy,2022.2.4,MacIntel,60.0024001,Chrome,1680,1050,,,,,10,812,,,,,,,,,,,,,,,,,Y,146,triangle,1,1,,,,,,,,,,,,,,,,switch,letter,lettSwt,f,0.92,Lo,,,,,,1,,,,,,,,low,24,0,24,0,1,,,,,,,,,
296491,2022-09-29_15h58.25.240,vts_reward_expectancy,2022.2.4,MacIntel,60.0024001,Chrome,1680,1050,,,,,0,812,,,,,,,,,,,,,,,,,W,160,circle,1,0,,,,,,,,,,,,,,,,switch,number,numSwt,k,0.9463,Hi,,,,,,1,,,,,,,,low,25,0,25,0,1,,,,,,,,,
296491,2022-09-29_15h58.25.240,vts_reward_expectancy,2022.2.4,MacIntel,60.0024001,Chrome,1680,1050,,,,,1,813,,,,,,,,,,,,,,,,,U,139,circle,1,0,,,,,,,,,,,,,,,,repeat,number,numRpt,j,0.5988,Hi,,,,,,1,,,,,,,,low,26,0,26,0,1,,,,,,,,,
296491,2022-09-29_15h58.25.240,vts_reward_expectancy,2022.2.4,MacIntel,60.0024001,Chrome,1680,1050,,,,,1,814,,,,,,,,,,,,,,,,,S,181,triangle,1,0,,,,,,,,,,,,,,,,switch,letter,lettSwt,f,0.7586,Lo,,,,,,1,,,,,,,,low,27,0,27,0,1,,,,,,,,,
296491,2022-09-29_15h58.25.240,vts_reward_expectancy,2022.2.4,MacIntel,60.0024001,Chrome,1680,1050,,,,,10,824,,,,,,,,,,,,,,,,,D,132,triangle,1,0,,,,,,,,,,,,,,,,switch,number,numSwt,j,0.6456,Lo,,,,,,1,,,,,,,,low,28,0,28,0,1,,,,,,,,,
296491,2022-09-29_15h58.25.240,vts_reward_expectancy,2022.2.4,MacIntel,60.0024001,Chrome,1680,1050,,,,,1,825,,,,,,,,,,,,,,,,,B,174,circle,1,0,,,,,,,,,,,,,,,,repeat,number,numRpt,k,0.7344,Hi,,,,,,1,,,,,,,,low,29,0,29,0,1,,,,,,,,,
296491,2022-09-29_15h58.25.240,vts_reward_expectancy,2022.2.4,MacIntel,60.0024001,Chrome,1680,1050,,,,,10,835,,,,,,,,,,,,,,,,,H,167,triangle,1,0,,,,,,,,,,,,,,,,switch,letter,lettSwt,d,0.8794,Lo,,,,,,1,,,,,,,,low,30,0,30,0,1,,,,,,,,,
296491,2022-09-29_15h58.25.240,vts_reward_expectancy,2022.2.4,MacIntel,60.0024001,Chrome,1680,1050,,,,,0,835,,,,,,,,,,,,,,,,,F,125,circle,0,0,,,,,,,,,,,,,,,,repeat,letter,NA,f,0.9471,Lo,,,,,,1,,,,,,,,low,31,0,31,0,1,,,,,,,,,
296491,2022-09-29_15h58.25.240,vts_reward_expectancy,2022.2.4,MacIntel,60.0024001,Chrome,1680,1050,,,,,1,836,,,,,,,,,,,,,,,,,H,125,triangle,1,1,,,,,,,,,,,,,,,,repeat,letter,lettRpt,d,0.7986,Lo,,,,,,2,,,,,,space,2.1507,low,0,0,0,0,1,,,,,,,,,
296491,2022-09-29_15h58.25.240,vts_reward_expectancy,2022.2.4,MacIntel,60.0024001,Chrome,1680,1050,,,,,0,836,,,,,,,,,,,,,,,,,Y,181,circle,1,0,,,,,,,,,,,,,,,,switch,number,numSwt,k,0.9667,Hi,,,,,,2,,,,,,,,low,1,0,1,0,1,,,,,,,,,
296491,2022-09-29_15h58.25.240,vts_reward_expectancy,2022.2.4,MacIntel,60.0024001,Chrome,1680,1050,,,,,1,837,,,,,,,,,,,,,,,,,B,146,triangle,1,0,,,,,,,,,,,,,,,,switch,letter,lettSwt,d,0.7107,Lo,,,,,,2,,,,,,,,low,2,0,2,0,1,,,,,,,,,
296491,2022-09-29_15h58.25.240,vts_reward_expectancy,2022.2.4,MacIntel,60.0024001,Chrome,1680,1050,,,,,1,838,,,,,,,,,,,,,,,,,W,160,circle,1,0,,,,,,,,,,,,,,,,switch,number,numSwt,k,0.78,Hi,,,,,,2,,,,,,,,low,3,0,3,0,1,,,,,,,,,
296491,2022-09-29_15h58.25.240,vts_reward_expectancy,2022.2.4,MacIntel,60.0024001,Chrome,1680,1050,,,,,10,848,,,,,,,,,,,,,,,,,D,174,circle,1,0,,,,,,,,,,,,,,,,switch,letter,lettSwt,d,0.6627,Hi,,,,,,2,,,,,,,,low,4,0,4,0,1,,,,,,,,,
296491,2022-09-29_15h58.25.240,vts_reward_expectancy,2022.2.4,MacIntel,60.0024001,Chrome,1680,1050,,,,,10,858,,,,,,,,,,,,,,,,,U,132,triangle,1,0,,,,,,,,,,,,,,,,repeat,letter,lettRpt,f,0.8783,Lo,,,,,,2,,,,,,,,low,5,0,5,0,1,,,,,,,,,
296491,2022-09-29_15h58.25.240,vts_reward_expectancy,2022.2.4,MacIntel,60.0024001,Chrome,1680,1050,,,,,1,859,,,,,,,,,,,,,,,,,S,139,circle,1,0,,,,,,,,,,,,,,,,switch,number,numSwt,j,0.8456,Hi,,,,,,2,,,,,,,,low,6,0,6,0,1,,,,,,,,,
296491,2022-09-29_15h58.25.240,vts_reward_expectancy,2022.2.4,MacIntel,60.0024001,Chrome,1680,1050,,,,,0,859,,,,,,,,,,,,,,,,,F,167,triangle,0,0,,,,,,,,,,,,,,,,switch,letter,NA,f,1.0336,Hi,,,,,,2,,,,,,,,low,7,0,7,0,1,,,,,,,,,
296491,2022-09-29_15h58.25.240,vts_reward_expectancy,2022.2.4,MacIntel,60.0024001,Chrome,1680,1050,,,,,0,859,,,,,,,,,,,,,,,,,H,125,circle,1,1,,,,,,,,,,,,,,,,repeat,letter,lettRpt,d,0.8645,Hi,,,,,,2,,,,,,,,low,8,0,8,0,1,,,,,,,,,
296491,2022-09-29_15h58.25.240,vts_reward_expectancy,2022.2.4,MacIntel,60.0024001,Chrome,1680,1050,,,,,10,869,,,,,,,,,,,,,,,,,Y,181,triangle,1,0,,,,,,,,,,,,,,,,switch,number,numSwt,k,0.5488,Lo,,,,,,2,,,,,,,,low,9,0,9,0,1,,,,,,,,,
296491,2022-09-29_15h58.25.240,vts_reward_expectancy,2022.2.4,MacIntel,60.0024001,Chrome,1680,1050,,,,,1,870,,,,,,,,,,,,,,,,,B,146,circle,1,0,,,,,,,,,,,,,,,,switch,letter,lettSwt,d,0.5296,Hi,,,,,,2,,,,,,,,low,10,0,10,0,1,,,,,,,,,
296491,2022-09-29_15h58.25.240,vts_reward_expectancy,2022.2.4,MacIntel,60.0024001,Chrome,1680,1050,,,,,10,880,,,,,,,,,,,,,,,,,W,160,triangle,1,0,,,,,,,,,,,,,,,,switch,number,numSwt,k,1.1363,Lo,,,,,,2,,,,,,,,low,11,0,11,0,1,,,,,,,,,
296491,2022-09-29_15h58.25.240,vts_reward_expectancy,2022.2.4,MacIntel,60.0024001,Chrome,1680,1050,,,,,0,880,,,,,,,,,,,,,,,,,D,174,circle,1,0,,,,,,,,,,,,,,,,repeat,number,numRpt,k,0.7124,Hi,,,,,,2,,,,,,,,low,12,0,12,0,1,,,,,,,,,
296491,2022-09-29_15h58.25.240,vts_reward_expectancy,2022.2.4,MacIntel,60.0024001,Chrome,1680,1050,,,,,1,881,,,,,,,,,,,,,,,,,U,132,triangle,1,0,,,,,,,,,,,,,,,,switch,letter,lettSwt,f,0.855,Lo,,,,,,2,,,,,,,,low,13,0,13,0,1,,,,,,,,,
296491,2022-09-29_15h58.25.240,vts_reward_expectancy,2022.2.4,MacIntel,60.0024001,Chrome,1680,1050,,,,,10,891,,,,,,,,,,,,,,,,,S,139,circle,1,0,,,,,,,,,,,,,,,,switch,number,numSwt,j,0.75,Hi,,,,,,2,,,,,,,,low,14,0,14,0,1,,,,,,,,,
296491,2022-09-29_15h58.25.240,vts_reward_expectancy,2022.2.4,MacIntel,60.0024001,Chrome,1680,1050,,,,,0,891,,,,,,,,,,,,,,,,,F,167,triangle,0,0,,,,,,,,,,,,,,,,switch,letter,NA,f,0.6603,Hi,,,,,,2,,,,,,,,low,15,0,15,0,1,,,,,,,,,
296491,2022-09-29_15h58.25.240,vts_reward_expectancy,2022.2.4,MacIntel,60.0024001,Chrome,1680,1050,,,,,10,901,,,,,,,,,,,,,,,,,F,160,triangle,1,1,,,,,,,,,,,,,,,,repeat,letter,lettRpt,d,1.0534,Lo,,,,,,2,,,,,,,,low,16,0,16,0,1,,,,,,,,,
296491,2022-09-29_15h58.25.240,vts_reward_expectancy,2022.2.4,MacIntel,60.0024001,Chrome,1680,1050,,,,,0,901,,,,,,,,,,,,,,,,,B,139,circle,1,0,,,,,,,,,,,,,,,,switch,number,numSwt,j,1.0798,Hi,,,,,,2,,,,,,,,low,17,0,17,0,1,,,,,,,,,
296491,2022-09-29_15h58.25.240,vts_reward_expectancy,2022.2.4,MacIntel,60.0024001,Chrome,1680,1050,,,,,1,902,,,,,,,,,,,,,,,,,Y,167,triangle,1,0,,,,,,,,,,,,,,,,switch,letter,lettSwt,f,0.7535,Lo,,,,,,2,,,,,,,,low,18,0,18,0,1,,,,,,,,,
296491,2022-09-29_15h58.25.240,vts_reward_expectancy,2022.2.4,MacIntel,60.0024001,Chrome,1680,1050,,,,,10,912,,,,,,,,,,,,,,,,,D,132,circle,1,0,,,,,,,,,,,,,,,,repeat,letter,lettRpt,d,0.5426,Hi,,,,,,2,,,,,,,,low,19,0,19,0,1,,,,,,,,,
296491,2022-09-29_15h58.25.240,vts_reward_expectancy,2022.2.4,MacIntel,60.0024001,Chrome,1680,1050,,,,,10,922,,,,,,,,,,,,,,,,,U,125,circle,1,0,,,,,,,,,,,,,,,,switch,number,numSwt,j,0.5815,Hi,,,,,,2,,,,,,,,low,20,0,20,0,1,,,,,,,,,
296491,2022-09-29_15h58.25.240,vts_reward_expectancy,2022.2.4,MacIntel,60.0024001,Chrome,1680,1050,,,,,0,922,,,,,,,,,,,,,,,,,S,181,triangle,0,0,,,,,,,,,,,,,,,,switch,letter,NA,d,1.0313,Hi,,,,,,2,,,,,,,,low,21,0,21,0,1,,,,,,,,,
296491,2022-09-29_15h58.25.240,vts_reward_expectancy,2022.2.4,MacIntel,60.0024001,Chrome,1680,1050,,,,,0,922,,,,,,,,,,,,,,,,,W,174,circle,1,1,,,,,,,,,,,,,,,,repeat,letter,lettRpt,f,0.73,Hi,,,,,,2,,,,,,,,low,22,0,22,0,1,,,,,,,,,
296491,2022-09-29_15h58.25.240,vts_reward_expectancy,2022.2.4,MacIntel,60.0024001,Chrome,1680,1050,,,,,0,922,,,,,,,,,,,,,,,,,H,146,triangle,0,0,,,,,,,,,,,,,,,,repeat,letter,NA,f,0.6959,Hi,,,,,,2,,,,,,,,low,23,0,23,0,1,,,,,,,,,
296491,2022-09-29_15h58.25.240,vts_reward_expectancy,2022.2.4,MacIntel,60.0024001,Chrome,1680,1050,,,,,0,922,,,,,,,,,,,,,,,,,F,174,circle,1,1,,,,,,,,,,,,,,,,switch,number,numSwt,k,0.9178,Hi,,,,,,2,,,,,,,,low,24,0,24,0,1,,,,,,,,,
296491,2022-09-29_15h58.25.240,vts_reward_expectancy,2022.2.4,MacIntel,60.0024001,Chrome,1680,1050,,,,,1,923,,,,,,,,,,,,,,,,,Y,167,triangle,1,0,,,,,,,,,,,,,,,,repeat,number,numRpt,k,0.6452,Lo,,,,,,2,,,,,,,,low,25,0,25,0,1,,,,,,,,,
296491,2022-09-29_15h58.25.240,vts_reward_expectancy,2022.2.4,MacIntel,60.0024001,Chrome,1680,1050,,,,,1,924,,,,,,,,,,,,,,,,,B,181,triangle,1,0,,,,,,,,,,,,,,,,repeat,number,numRpt,k,0.813,Lo,,,,,,2,,,,,,,,low,26,0,26,0,1,,,,,,,,,
296491,2022-09-29_15h58.25.240,vts_reward_expectancy,2022.2.4,MacIntel,60.0024001,Chrome,1680,1050,,,,,1,925,,,,,,,,,,,,,,,,,W,132,circle,1,0,,,,,,,,,,,,,,,,switch,letter,lettSwt,f,0.5132,Hi,,,,,,2,,,,,,,,low,27,0,27,0,1,,,,,,,,,
296491,2022-09-29_15h58.25.240,vts_reward_expectancy,2022.2.4,MacIntel,60.0024001,Chrome,1680,1050,,,,,1,926,,,,,,,,,,,,,,,,,U,160,triangle,1,0,,,,,,,,,,,,,,,,switch,number,numSwt,k,0.7524,Lo,,,,,,2,,,,,,,,low,28,0,28,0,1,,,,,,,,,
296491,2022-09-29_15h58.25.240,vts_reward_expectancy,2022.2.4,MacIntel,60.0024001,Chrome,1680,1050,,,,,0,926,,,,,,,,,,,,,,,,,D,125,circle,1,0,,,,,,,,,,,,,,,,repeat,number,numRpt,j,1.0947,Hi,,,,,,2,,,,,,,,low,29,0,29,0,1,,,,,,,,,
296491,2022-09-29_15h58.25.240,vts_reward_expectancy,2022.2.4,MacIntel,60.0024001,Chrome,1680,1050,,,,,0,926,,,,,,,,,,,,,,,,,S,146,circle,0,0,,,,,,,,,,,,,,,,switch,letter,NA,d,0.7952,Hi,,,,,,2,,,,,,,,low,30,0,30,0,1,,,,,,,,,
296491,2022-09-29_15h58.25.240,vts_reward_expectancy,2022.2.4,MacIntel,60.0024001,Chrome,1680,1050,,,,,1,927,,,,,,,,,,,,,,,,,H,139,triangle,1,1,,,,,,,,,,,,,,,,repeat,letter,lettRpt,d,0.5378,Lo,,,,,,2,,,,,,,,low,31,0,31,0,1,,,,,,,,,
296491,2022-09-29_15h58.25.240,vts_reward_expectancy,2022.2.4,MacIntel,60.0024001,Chrome,1680,1050,,,,,1,928,,,,,,,,,,,,,,,,,S,160,hexagon,1,0,,,,,,,,,,,,,,,,repeat,letter,lettRpt,f,1.1826,Lo,,,,,,3,,,,,,space,0.5238,high,0,0,0,0,1,,,,,,,,,
296491,2022-09-29_15h58.25.240,vts_reward_expectancy,2022.2.4,MacIntel,60.0024001,Chrome,1680,1050,,,,,1,929,,,,,,,,,,,,,,,,,Y,125,star,1,0,,,,,,,,,,,,,,,,repeat,letter,lettRpt,f,0.564,Hi,,,,,,3,,,,,,,,high,1,0,1,0,1,,,,,,,,,
296491,2022-09-29_15h58.25.240,vts_reward_expectancy,2022.2.4,MacIntel,60.0024001,Chrome,1680,1050,,,,,1,930,,,,,,,,,,,,,,,,,W,139,hexagon,1,0,,,,,,,,,,,,,,,,repeat,letter,lettRpt,f,0.7103,Lo,,,,,,3,,,,,,,,high,2,0,2,0,1,,,,,,,,,
296491,2022-09-29_15h58.25.240,vts_reward_expectancy,2022.2.4,MacIntel,60.0024001,Chrome,1680,1050,,,,,10,940,,,,,,,,,,,,,,,,,H,181,star,1,0,,,,,,,,,,,,,,,,switch,number,numSwt,k,0.5797,Hi,,,,,,3,,,,,,,,high,3,0,3,0,1,,,,,,,,,
296491,2022-09-29_15h58.25.240,vts_reward_expectancy,2022.2.4,MacIntel,60.0024001,Chrome,1680,1050,,,,,1,941,,,,,,,,,,,,,,,,,B,174,hexagon,1,0,,,,,,,,,,,,,,,,switch,letter,lettSwt,d,0.6346,Lo,,,,,,3,,,,,,,,high,4,0,4,0,1,,,,,,,,,
296491,2022-09-29_15h58.25.240,vts_reward_expectancy,2022.2.4,MacIntel,60.0024001,Chrome,1680,1050,,,,,0,941,,,,,,,,,,,,,,,,,U,146,star,1,0,,,,,,,,,,,,,,,,switch,number,numSwt,j,0.7806,Hi,,,,,,3,,,,,,,,high,5,0,5,0,1,,,,,,,,,
296491,2022-09-29_15h58.25.240,vts_reward_expectancy,2022.2.4,MacIntel,60.0024001,Chrome,1680,1050,,,,,10,951,,,,,,,,,,,,,,,,,F,167,star,1,0,,,,,,,,,,,,,,,,repeat,number,numRpt,k,0.6993,Hi,,,,,,3,,,,,,,,high,6,0,6,0,1,,,,,,,,,
296491,2022-09-29_15h58.25.240,vts_reward_expectancy,2022.2.4,MacIntel,60.0024001,Chrome,1680,1050,,,,,1,952,,,,,,,,,,,,,,,,,D,132,hexagon,1,0,,,,,,,,,,,,,,,,repeat,number,numRpt,j,0.6801,Lo,,,,,,3,,,,,,,,high,7,0,7,0,1,,,,,,,,,
296491,2022-09-29_15h58.25.240,vts_reward_expectancy,2022.2.4,MacIntel,60.0024001,Chrome,1680,1050,,,,,0,952,,,,,,,,,,,,,,,,,S,160,star,0,0,,,,,,,,,,,,,,,,repeat,number,NA,j,0.7813,Lo,,,,,,3,,,,,,,,high,8,0,8,0,1,,,,,,,,,
296491,2022-09-29_15h58.25.240,vts_reward_expectancy,2022.2.4,MacIntel,60.0024001,Chrome,1680,1050,,,,,1,953,,,,,,,,,,,,,,,,,Y,125,hexagon,1,1,,,,,,,,,,,,,,,,repeat,number,numRpt,j,0.6633,Lo,,,,,,3,,,,,,,,high,9,0,9,0,1,,,,,,,,,
296491,2022-09-29_15h58.25.240,vts_reward_expectancy,2022.2.4,MacIntel,60.0024001,Chrome,1680,1050,,,,,0,953,,,,,,,,,,,,,,,,,W,139,star,1,0,,,,,,,,,,,,,,,,repeat,number,numRpt,j,1.1801,Hi,,,,,,3,,,,,,,,high,10,0,10,0,1,,,,,,,,,
296491,2022-09-29_15h58.25.240,vts_reward_expectancy,2022.2.4,MacIntel,60.0024001,Chrome,1680,1050,,,,,1,954,,,,,,,,,,,,,,,,,H,181,hexagon,1,0,,,,,,,,,,,,,,,,switch,letter,lettSwt,d,0.5858,Lo,,,,,,3,,,,,,,,high,11,0,11,0,1,,,,,,,,,
296491,2022-09-29_15h58.25.240,vts_reward_expectancy,2022.2.4,MacIntel,60.0024001,Chrome,1680,1050,,,,,1,955,,,,,,,,,,,,,,,,,B,174,hexagon,1,0,,,,,,,,,,,,,,,,repeat,letter,lettRpt,d,0.8103,Lo,,,,,,3,,,,,,,,high,12,0,12,0,1,,,,,,,,,
296491,2022-09-29_15h58.25.240,vts_reward_expectancy,2022.2.4,MacIntel,60.0024001,Chrome,1680,1050,,,,,0,955,,,,,,,,,,,,,,,,,U,146,star,1,0,,,,,,,,,,,,,,,,switch,number,numSwt,j,0.8117,Hi,,,,,,3,,,,,,,,high,13,0,13,0,1,,,,,,,,,
296491,2022-09-29_15h58.25.240,vts_reward_expectancy,2022.2.4,MacIntel,60.0024001,Chrome,1680,1050,,,,,10,965,,,,,,,,,,,,,,,,,F,167,hexagon,1,0,,,,,,,,,,,,,,,,repeat,number,numRpt,k,0.6975,Lo,,,,,,3,,,,,,,,high,14,0,14,0,1,,,,,,,,,
296491,2022-09-29_15h58.25.240,vts_reward_expectancy,2022.2.4,MacIntel,60.0024001,Chrome,1680,1050,,,,,10,975,,,,,,,,,,,,,,,,,D,132,star,1,0,,,,,,,,,,,,,,,,repeat,number,numRpt,j,0.5654,Hi,,,,,,3,,,,,,,,high,15,0,15,0,1,,,,,,,,,
296491,2022-09-29_15h58.25.240,vts_reward_expectancy,2022.2.4,MacIntel,60.0024001,Chrome,1680,1050,,,,,1,976,,,,,,,,,,,,,,,,,B,139,hexagon,1,0,,,,,,,,,,,,,,,,repeat,number,numRpt,j,0.6118,Lo,,,,,,3,,,,,,,,high,16,0,16,0,1,,,,,,,,,
296491,2022-09-29_15h58.25.240,vts_reward_expectancy,2022.2.4,MacIntel,60.0024001,Chrome,1680,1050,,,,,0,976,,,,,,,,,,,,,,,,,S,174,star,1,0,,,,,,,,,,,,,,,,repeat,number,numRpt,k,0.8242,Hi,,,,,,3,,,,,,,,high,17,0,17,0,1,,,,,,,,,
296491,2022-09-29_15h58.25.240,vts_reward_expectancy,2022.2.4,MacIntel,60.0024001,Chrome,1680,1050,,,,,10,986,,,,,,,,,,,,,,,,,U,146,star,1,0,,,,,,,,,,,,,,,,repeat,number,numRpt,j,0.511,Hi,,,,,,3,,,,,,,,high,18,0,18,0,1,,,,,,,,,
296491,2022-09-29_15h58.25.240,vts_reward_expectancy,2022.2.4,MacIntel,60.0024001,Chrome,1680,1050,,,,,10,996,,,,,,,,,,,,,,,,,W,132,hexagon,1,0,,,,,,,,,,,,,,,,switch,letter,lettSwt,f,0.5543,Lo,,,,,,3,,,,,,,,high,19,0,19,0,1,,,,,,,,,
296491,2022-09-29_15h58.25.240,vts_reward_expectancy,2022.2.4,MacIntel,60.0024001,Chrome,1680,1050,,,,,0,996,,,,,,,,,,,,,,,,,Y,160,star,1,0,,,,,,,,,,,,,,,,switch,number,numSwt,k,0.8113,Hi,,,,,,3,,,,,,,,high,20,0,20,0,1,,,,,,,,,
296491,2022-09-29_15h58.25.240,vts_reward_expectancy,2022.2.4,MacIntel,60.0024001,Chrome,1680,1050,,,,,10,1006,,,,,,,,,,,,,,,,,H,125,hexagon,1,0,,,,,,,,,,,,,,,,switch,letter,lettSwt,d,0.6285,Lo,,,,,,3,,,,,,,,high,21,0,21,0,1,,,,,,,,,
296491,2022-09-29_15h58.25.240,vts_reward_expectancy,2022.2.4,MacIntel,60.0024001,Chrome,1680,1050,,,,,0,1006,,,,,,,,,,,,,,,,,D,167,star,1,0,,,,,,,,,,,,,,,,switch,number,numSwt,k,0.8329,Hi,,,,,,3,,,,,,,,high,22,0,22,0,1,,,,,,,,,
296491,2022-09-29_15h58.25.240,vts_reward_expectancy,2022.2.4,MacIntel,60.0024001,Chrome,1680,1050,,,,,1,1007,,,,,,,,,,,,,,,,,F,181,hexagon,1,0,,,,,,,,,,,,,,,,switch,letter,lettSwt,d,0.713,Lo,,,,,,3,,,,,,,,high,23,0,23,0,1,,,,,,,,,
296491,2022-09-29_15h58.25.240,vts_reward_expectancy,2022.2.4,MacIntel,60.0024001,Chrome,1680,1050,,,,,1,1008,,,,,,,,,,,,,,,,,B,181,hexagon,1,0,,,,,,,,,,,,,,,,repeat,letter,lettRpt,d,0.607,Lo,,,,,,3,,,,,,,,high,24,0,24,0,1,,,,,,,,,
296491,2022-09-29_15h58.25.240,vts_reward_expectancy,2022.2.4,MacIntel,60.0024001,Chrome,1680,1050,,,,,10,1018,,,,,,,,,,,,,,,,,Y,125,star,1,0,,,,,,,,,,,,,,,,repeat,letter,lettRpt,f,0.5633,Hi,,,,,,3,,,,,,,,high,25,0,25,0,1,,,,,,,,,
296491,2022-09-29_15h58.25.240,vts_reward_expectancy,2022.2.4,MacIntel,60.0024001,Chrome,1680,1050,,,,,1,1019,,,,,,,,,,,,,,,,,W,132,star,1,0,,,,,,,,,,,,,,,,repeat,letter,lettRpt,f,0.5114,Hi,,,,,,3,,,,,,,,high,26,0,26,0,1,,,,,,,,,
296491,2022-09-29_15h58.25.240,vts_reward_expectancy,2022.2.4,MacIntel,60.0024001,Chrome,1680,1050,,,,,10,1029,,,,,,,,,,,,,,,,,U,167,hexagon,1,0,,,,,,,,,,,,,,,,repeat,letter,lettRpt,f,0.8448,Lo,,,,,,3,,,,,,,,high,27,0,27,0,1,,,,,,,,,
296491,2022-09-29_15h58.25.240,vts_reward_expectancy,2022.2.4,MacIntel,60.0024001,Chrome,1680,1050,,,,,10,1039,,,,,,,,,,,,,,,,,D,174,star,1,0,,,,,,,,,,,,,,,,switch,number,numSwt,k,0.4794,Hi,,,,,,3,,,,,,,,high,28,0,28,0,1,,,,,,,,,
296491,2022-09-29_15h58.25.240,vts_reward_expectancy,2022.2.4,MacIntel,60.0024001,Chrome,1680,1050,,,,,0,1039,,,,,,,,,,,,,,,,,F,146,hexagon,0,0,,,,,,,,,,,,,,,,switch,letter,NA,f,0.8125,Hi,,,,,,3,,,,,,,,high,29,0,29,0,1,,,,,,,,,
296491,2022-09-29_15h58.25.240,vts_reward_expectancy,2022.2.4,MacIntel,60.0024001,Chrome,1680,1050,,,,,1,1040,,,,,,,,,,,,,,,,,S,139,hexagon,1,1,,,,,,,,,,,,,,,,repeat,letter,lettRpt,f,0.5788,Lo,,,,,,3,,,,,,,,high,30,0,30,0,1,,,,,,,,,
296491,2022-09-29_15h58.25.240,vts_reward_expectancy,2022.2.4,MacIntel,60.0024001,Chrome,1680,1050,,,,,1,1041,,,,,,,,,,,,,,,,,H,160,star,1,0,,,,,,,,,,,,,,,,switch,number,numSwt,k,0.6704,Hi,,,,,,3,,,,,,,,high,31,0,31,0,1,,,,,,,,,
296491,2022-09-29_15h58.25.240,vts_reward_expectancy,2022.2.4,MacIntel,60.0024001,Chrome,1680,1050,,,,,1,1042,,,,,,,,,,,,,,,,,Y,167,hexagon,1,0,,,,,,,,,,,,,,,,switch,letter,lettSwt,f,0.549,Lo,,,,,,4,,,,,,space,0.7204,high,0,0,0,0,1,,,,,,,,,
296491,2022-09-29_15h58.25.240,vts_reward_expectancy,2022.2.4,MacIntel,60.0024001,Chrome,1680,1050,,,,,0,1042,,,,,,,,,,,,,,,,,D,160,star,1,0,,,,,,,,,,,,,,,,repeat,letter,lettRpt,d,0.7797,Hi,,,,,,4,,,,,,,,high,1,0,1,0,1,,,,,,,,,
296491,2022-09-29_15h58.25.240,vts_reward_expectancy,2022.2.4,MacIntel,60.0024001,Chrome,1680,1050,,,,,1,1043,,,,,,,,,,,,,,,,,S,181,hexagon,1,0,,,,,,,,,,,,,,,,repeat,letter,lettRpt,f,0.6063,Lo,,,,,,4,,,,,,,,high,2,0,2,0,1,,,,,,,,,
296491,2022-09-29_15h58.25.240,vts_reward_expectancy,2022.2.4,MacIntel,60.0024001,Chrome,1680,1050,,,,,10,1053,,,,,,,,,,,,,,,,,B,132,star,1,0,,,,,,,,,,,,,,,,repeat,letter,lettRpt,d,0.5556,Hi,,,,,,4,,,,,,,,high,3,0,3,0,1,,,,,,,,,
296491,2022-09-29_15h58.25.240,vts_reward_expectancy,2022.2.4,MacIntel,60.0024001,Chrome,1680,1050,,,,,1,1054,,,,,,,,,,,,,,,,,W,139,hexagon,1,0,,,,,,,,,,,,,,,,switch,number,numSwt,j,0.6123,Lo,,,,,,4,,,,,,,,high,4,0,4,0,1,,,,,,,,,
296491,2022-09-29_15h58.25.240,vts_reward_expectancy,2022.2.4,MacIntel,60.0024001,Chrome,1680,1050,,,,,0,1054,,,,,,,,,,,,,,,,,H,174,star,1,0,,,,,,,,,,,,,,,,switch,letter,lettSwt,d,0.6787,Hi,,,,,,4,,,,,,,,high,5,0,5,0,1,,,,,,,,,
296491,2022-09-29_15h58.25.240,vts_reward_expectancy,2022.2.4,MacIntel,60.0024001,Chrome,1680,1050,,,,,0,1054,,,,,,,,,,,,,,,,,F,146,hexagon,0,0,,,,,,,,,,,,,,,,repeat,letter,NA,f,0.6449,Hi,,,,,,4,,,,,,,,high,6,0,6,0,1,,,,,,,,,
296491,2022-09-29_15h58.25.240,vts_reward_expectancy,2022.2.4,MacIntel,60.0024001,Chrome,1680,1050,,,,,0,1054,,,,,,,,,,,,,,,,,U,125,star,1,1,,,,,,,,,,,,,,,,switch,number,numSwt,j,0.6714,Hi,,,,,,4,,,,,,,,high,7,0,7,0,1,,,,,,,,,
296491,2022-09-29_15h58.25.240,vts_reward_expectancy,2022.2.4,MacIntel,60.0024001,Chrome,1680,1050,,,,,10,1064,,,,,,,,,,,,,,,,,Y,167,star,1,0,,,,,,,,,,,,,,,,repeat,number,numRpt,k,0.5322,Hi,,,,,,4,,,,,,,,high,8,0,8,0,1,,,,,,,,,
296491,2022-09-29_15h58.25.240,vts_reward_expectancy,2022.2.4,MacIntel,60.0024001,Chrome,1680,1050,,,,,10,1074,,,,,,,,,,,,,,,,,D,160,hexagon,1,0,,,,,,,,,,,,,,,,switch,letter,lettSwt,d,0.7807,Lo,,,,,,4,,,,,,,,high,9,0,9,0,1,,,,,,,,,
296491,2022-09-29_15h58.25.240,vts_reward_expectancy,2022.2.4,MacIntel,60.0024001,Chrome,1680,1050,,,,,10,1084,,,,,,,,,,,,,,,,,S,181,star,1,0,,,,,,,,,,,,,,,,switch,number,numSwt,k,0.6552,Hi,,,,,,4,,,,,,,,high,10,0,10,0,1,,,,,,,,,
296491,2022-09-29_15h58.25.240,vts_reward_expectancy,2022.2.4,MacIntel,60.0024001,Chrome,1680,1050,,,,,1,1085,,,,,,,,,,,,,,,,,B,132,hexagon,1,0,,,,,,,,,,,,,,,,switch,letter,lettSwt,d,0.5634,Lo,,,,,,4,,,,,,,,high,11,0,11,0,1,,,,,,,,,
296491,2022-09-29_15h58.25.240,vts_reward_expectancy,2022.2.4,MacIntel,60.0024001,Chrome,1680,1050,,,,,1,1086,,,,,,,,,,,,,,,,,W,139,hexagon,1,0,,,,,,,,,,,,,,,,repeat,letter,lettRpt,f,0.6932,Lo,,,,,,4,,,,,,,,high,12,0,12,0,1,,,,,,,,,
296491,2022-09-29_15h58.25.240,vts_reward_expectancy,2022.2.4,MacIntel,60.0024001,Chrome,1680,1050,,,,,0,1086,,,,,,,,,,,,,,,,,H,174,star,1,0,,,,,,,,,,,,,,,,switch,number,numSwt,k,0.763,Hi,,,,,,4,,,,,,,,high,13,0,13,0,1,,,,,,,,,
296491,2022-09-29_15h58.25.240,vts_reward_expectancy,2022.2.4,MacIntel,60.0024001,Chrome,1680,1050,,,,,10,1096,,,,,,,,,,,,,,,,,F,146,star,1,0,,,,,,,,,,,,,,,,repeat,number,numRpt,j,0.5553,Hi,,,,,,4,,,,,,,,high,14,0,14,0,1,,,,,,,,,
296491,2022-09-29_15h58.25.240,vts_reward_expectancy,2022.2.4,MacIntel,60.0024001,Chrome,1680,1050,,,,,10,1106,,,,,,,,,,,,,,,,,U,125,hexagon,1,0,,,,,,,,,,,,,,,,switch,letter,lettSwt,f,0.6002,Lo,,,,,,4,,,,,,,,high,15,0,15,0,1,,,,,,,,,
296491,2022-09-29_15h58.25.240,vts_reward_expectancy,2022.2.4,MacIntel,60.0024001,Chrome,1680,1050,,,,,1,1107,,,,,,,,,,,,,,,,,D,125,hexagon,1,0,,,,,,,,,,,,,,,,switch,number,numSwt,j,0.6039,Lo,,,,,,4,,,,,,,,high,16,0,16,0,1,,,,,,,,,
296491,2022-09-29_15h58.25.240,vts_reward_expectancy,2022.2.4,MacIntel,60.0024001,Chrome,1680,1050,,,,,0,1107,,,,,,,,,,,,,,,,,U,167,star,1,0,,,,,,,,,,,,,,,,repeat,number,numRpt,k,0.7218,Hi,,,,,,4,,,,,,,,high,17,0,17,0,1,,,,,,,,,
296491,2022-09-29_15h58.25.240,vts_reward_expectancy,2022.2.4,MacIntel,60.0024001,Chrome,1680,1050,,,,,1,1108,,,,,,,,,,,,,,,,,B,146,star,1,0,,,,,,,,,,,,,,,,repeat,number,numRpt,j,0.5625,Hi,,,,,,4,,,,,,,,high,18,0,18,0,1,,,,,,,,,
296491,2022-09-29_15h58.25.240,vts_reward_expectancy,2022.2.4,MacIntel,60.0024001,Chrome,1680,1050,,,,,10,1118,,,,,,,,,,,,,,,,,W,132,hexagon,1,0,,,,,,,,,,,,,,,,switch,letter,lettSwt,f,0.6112,Lo,,,,,,4,,,,,,,,high,19,0,19,0,1,,,,,,,,,
296491,2022-09-29_15h58.25.240,vts_reward_expectancy,2022.2.4,MacIntel,60.0024001,Chrome,1680,1050,,,,,0,1118,,,,,,,,,,,,,,,,,F,160,star,0,0,,,,,,,,,,,,,,,,repeat,letter,NA,f,0.7113,Lo,,,,,,4,,,,,,,,high,20,0,20,0,1,,,,,,,,,
296491,2022-09-29_15h58.25.240,vts_reward_expectancy,2022.2.4,MacIntel,60.0024001,Chrome,1680,1050,,,,,1,1119,,,,,,,,,,,,,,,,,Y,181,hexagon,1,1,,,,,,,,,,,,,,,,repeat,letter,lettRpt,f,0.6297,Lo,,,,,,4,,,,,,,,high,21,0,21,0,1,,,,,,,,,
296491,2022-09-29_15h58.25.240,vts_reward_expectancy,2022.2.4,MacIntel,60.0024001,Chrome,1680,1050,,,,,1,1120,,,,,,,,,,,,,,,,,S,174,hexagon,1,0,,,,,,,,,,,,,,,,repeat,letter,lettRpt,f,0.6286,Lo,,,,,,4,,,,,,,,high,22,0,22,0,1,,,,,,,,,
296491,2022-09-29_15h58.25.240,vts_reward_expectancy,2022.2.4,MacIntel,60.0024001,Chrome,1680,1050,,,,,10,1130,,,,,,,,,,,,,,,,,H,139,star,1,0,,,,,,,,,,,,,,,,switch,number,numSwt,j,0.6293,Hi,,,,,,4,,,,,,,,high,23,0,23,0,1,,,,,,,,,
296491,2022-09-29_15h58.25.240,vts_reward_expectancy,2022.2.4,MacIntel,60.0024001,Chrome,1680,1050,,,,,10,1140,,,,,,,,,,,,,,,,,Y,181,star,1,0,,,,,,,,,,,,,,,,repeat,number,numRpt,k,0.5791,Hi,,,,,,4,,,,,,,,high,24,0,24,0,1,,,,,,,,,
296491,2022-09-29_15h58.25.240,vts_reward_expectancy,2022.2.4,MacIntel,60.0024001,Chrome,1680,1050,,,,,0,1140,,,,,,,,,,,,,,,,,B,174,hexagon,0,0,,,,,,,,,,,,,,,,switch,letter,NA,f,0.5828,Hi,,,,,,4,,,,,,,,high,25,0,25,0,1,,,,,,,,,
296491,2022-09-29_15h58.25.240,vts_reward_expectancy,2022.2.4,MacIntel,60.0024001,Chrome,1680,1050,,,,,1,1141,,,,,,,,,,,,,,,,,D,167,hexagon,1,1,,,,,,,,,,,,,,,,repeat,letter,lettRpt,d,0.7364,Lo,,,,,,4,,,,,,,,high,26,0,26,0,1,,,,,,,,,
296491,2022-09-29_15h58.25.240,vts_reward_expectancy,2022.2.4,MacIntel,60.0024001,Chrome,1680,1050,,,,,0,1141,,,,,,,,,,,,,,,,,H,146,star,1,0,,,,,,,,,,,,,,,,switch,number,numSwt,j,0.9306,Hi,,,,,,4,,,,,,,,high,27,0,27,0,1,,,,,,,,,
296491,2022-09-29_15h58.25.240,vts_reward_expectancy,2022.2.4,MacIntel,60.0024001,Chrome,1680,1050,,,,,0,1141,,,,,,,,,,,,,,,,,W,160,star,1,0,,,,,,,,,,,,,,,,repeat,number,numRpt,k,0.7512,Hi,,,,,,4,,,,,,,,high,28,0,28,0,1,,,,,,,,,
296491,2022-09-29_15h58.25.240,vts_reward_expectancy,2022.2.4,MacIntel,60.0024001,Chrome,1680,1050,,,,,1,1142,,,,,,,,,,,,,,,,,F,132,hexagon,1,0,,,,,,,,,,,,,,,,switch,letter,lettSwt,d,0.8181,Lo,,,,,,4,,,,,,,,high,29,0,29,0,1,,,,,,,,,
296491,2022-09-29_15h58.25.240,vts_reward_expectancy,2022.2.4,MacIntel,60.0024001,Chrome,1680,1050,,,,,0,1142,,,,,,,,,,,,,,,,,U,125,star,1,0,,,,,,,,,,,,,,,,repeat,letter,lettRpt,f,0.619,Hi,,,,,,4,,,,,,,,high,30,0,30,0,1,,,,,,,,,
296491,2022-09-29_15h58.25.240,vts_reward_expectancy,2022.2.4,MacIntel,60.0024001,Chrome,1680,1050,,,,,10,1152,,,,,,,,,,,,,,,,,S,139,hexagon,1,0,,,,,,,,,,,,,,,,switch,number,numSwt,j,0.6329,Lo,,,,,,4,,,,,,,,high,31,0,31,0,1,,,,,,,,,
296491,2022-09-29_15h58.25.240,vts_reward_expectancy,2022.2.4,MacIntel,60.0024001,Chrome,1680,1050,,,,,10,1162,,,,,,,,,,,,,,,,,U,167,triangle,1,0,,,,,,,,,,,,,,,,switch,letter,lettSwt,f,0.9316,Lo,,,,,,5,,,,,,space,1.3528,low,0,0,0,0,1,,,,,,,,,
296491,2022-09-29_15h58.25.240,vts_reward_expectancy,2022.2.4,MacIntel,60.0024001,Chrome,1680,1050,,,,,0,1162,,,,,,,,,,,,,,,,,F,139,circle,1,0,,,,,,,,,,,,,,,,switch,number,numSwt,j,0.6925,Hi,,,,,,5,,,,,,,,low,1,0,1,0,1,,,,,,,,,
296491,2022-09-29_15h58.25.240,vts_reward_expectancy,2022.2.4,MacIntel,60.0024001,Chrome,1680,1050,,,,,1,1163,,,,,,,,,,,,,,,,,Y,160,triangle,1,0,,,,,,,,,,,,,,,,switch,letter,lettSwt,f,0.5802,Lo,,,,,,5,,,,,,,,low,2,0,2,0,1,,,,,,,,,
296491,2022-09-29_15h58.25.240,vts_reward_expectancy,2022.2.4,MacIntel,60.0024001,Chrome,1680,1050,,,,,10,1173,,,,,,,,,,,,,,,,,B,132,circle,1,0,,,,,,,,,,,,,,,,switch,number,numSwt,j,0.5633,Hi,,,,,,5,,,,,,,,low,3,0,3,0,1,,,,,,,,,
296491,2022-09-29_15h58.25.240,vts_reward_expectancy,2022.2.4,MacIntel,60.0024001,Chrome,1680,1050,,,,,1,1174,,,,,,,,,,,,,,,,,H,181,triangle,1,0,,,,,,,,,,,,,,,,switch,letter,lettSwt,d,0.8825,Lo,,,,,,5,,,,,,,,low,4,0,4,0,1,,,,,,,,,
296491,2022-09-29_15h58.25.240,vts_reward_expectancy,2022.2.4,MacIntel,60.0024001,Chrome,1680,1050,,,,,1,1175,,,,,,,,,,,,,,,,,D,146,circle,1,0,,,,,,,,,,,,,,,,switch,number,numSwt,j,0.5685,Hi,,,,,,5,,,,,,,,low,5,0,5,0,1,,,,,,,,,
296491,2022-09-29_15h58.25.240,vts_reward_expectancy,2022.2.4,MacIntel,60.0024001,Chrome,1680,1050,,,,,0,1175,,,,,,,,,,,,,,,,,W,125,circle,1,0,,,,,,,,,,,,,,,,switch,letter,lettSwt,f,0.736,Hi,,,,,,5,,,,,,,,low,6,0,6,0,1,,,,,,,,,
296491,2022-09-29_15h58.25.240,vts_reward_expectancy,2022.2.4,MacIntel,60.0024001,Chrome,1680,1050,,,,,10,1185,,,,,,,,,,,,,,,,,S,174,triangle,1,0,,,,,,,,,,,,,,,,repeat,letter,lettRpt,f,0.878,Lo,,,,,,5,,,,,,,,low,7,0,7,0,1,,,,,,,,,
296491,2022-09-29_15h58.25.240,vts_reward_expectancy,2022.2.4,MacIntel,60.0024001,Chrome,1680,1050,,,,,0,1185,,,,,,,,,,,,,,,,,U,167,circle,1,0,,,,,,,,,,,,,,,,switch,number,numSwt,k,0.7613,Hi,,,,,,5,,,,,,,,low,8,0,8,0,1,,,,,,,,,
296491,2022-09-29_15h58.25.240,vts_reward_expectancy,2022.2.4,MacIntel,60.0024001,Chrome,1680,1050,,,,,1,1186,,,,,,,,,,,,,,,,,F,139,triangle,1,0,,,,,,,,,,,,,,,,repeat,number,numRpt,j,0.8455,Lo,,,,,,5,,,,,,,,low,9,0,9,0,1,,,,,,,,,
296491,2022-09-29_15h58.25.240,vts_reward_expectancy,2022.2.4,MacIntel,60.0024001,Chrome,1680,1050,,,,,1,1187,,,,,,,,,,,,,,,,,Y,160,triangle,1,0,,,,,,,,,,,,,,,,switch,letter,lettSwt,f,0.5768,Lo,,,,,,5,,,,,,,,low,10,0,10,0,1,,,,,,,,,
296491,2022-09-29_15h58.25.240,vts_reward_expectancy,2022.2.4,MacIntel,60.0024001,Chrome,1680,1050,,,,,10,1197,,,,,,,,,,,,,,,,,B,132,circle,1,0,,,,,,,,,,,,,,,,repeat,letter,lettRpt,d,0.5472,Hi,,,,,,5,,,,,,,,low,11,0,11,0,1,,,,,,,,,
296491,2022-09-29_15h58.25.240,vts_reward_expectancy,2022.2.4,MacIntel,60.0024001,Chrome,1680,1050,,,,,10,1207,,,,,,,,,,,,,,,,,H,181,triangle,1,0,,,,,,,,,,,,,,,,switch,number,numSwt,k,0.5164,Lo,,,,,,5,,,,,,,,low,12,0,12,0,1,,,,,,,,,
296491,2022-09-29_15h58.25.240,vts_reward_expectancy,2022.2.4,MacIntel,60.0024001,Chrome,1680,1050,,,,,0,1207,,,,,,,,,,,,,,,,,D,146,circle,1,0,,,,,,,,,,,,,,,,switch,letter,lettSwt,d,0.7827,Hi,,,,,,5,,,,,,,,low,13,0,13,0,1,,,,,,,,,
296491,2022-09-29_15h58.25.240,vts_reward_expectancy,2022.2.4,MacIntel,60.0024001,Chrome,1680,1050,,,,,1,1208,,,,,,,,,,,,,,,,,W,125,circle,1,0,,,,,,,,,,,,,,,,switch,number,numSwt,j,0.5138,Hi,,,,,,5,,,,,,,,low,14,0,14,0,1,,,,,,,,,
296491,2022-09-29_15h58.25.240,vts_reward_expectancy,2022.2.4,MacIntel,60.0024001,Chrome,1680,1050,,,,,1,1209,,,,,,,,,,,,,,,,,S,174,triangle,1,0,,,,,,,,,,,,,,,,switch,letter,lettSwt,f,0.6801,Lo,,,,,,5,,,,,,,,low,15,0,15,0,1,,,,,,,,,
296491,2022-09-29_15h58.25.240,vts_reward_expectancy,2022.2.4,MacIntel,60.0024001,Chrome,1680,1050,,,,,0,1209,,,,,,,,,,,,,,,,,F,139,circle,0,0,,,,,,,,,,,,,,,,switch,number,NA,k,0.4311,Lo,,,,,,5,,,,,,,,low,16,0,16,0,1,,,,,,,,,
296491,2022-09-29_15h58.25.240,vts_reward_expectancy,2022.2.4,MacIntel,60.0024001,Chrome,1680,1050,,,,,1,1210,,,,,,,,,,,,,,,,,H,125,triangle,1,1,,,,,,,,,,,,,,,,repeat,number,numRpt,j,0.5691,Lo,,,,,,5,,,,,,,,low,17,0,17,0,1,,,,,,,,,
296491,2022-09-29_15h58.25.240,vts_reward_expectancy,2022.2.4,MacIntel,60.0024001,Chrome,1680,1050,,,,,0,1210,,,,,,,,,,,,,,,,,U,132,circle,1,0,,,,,,,,,,,,,,,,repeat,number,numRpt,j,0.6112,Hi,,,,,,5,,,,,,,,low,18,0,18,0,1,,,,,,,,,
296491,2022-09-29_15h58.25.240,vts_reward_expectancy,2022.2.4,MacIntel,60.0024001,Chrome,1680,1050,,,,,1,1211,,,,,,,,,,,,,,,,,Y,160,triangle,1,0,,,,,,,,,,,,,,,,repeat,number,numRpt,k,0.7277,Lo,,,,,,5,,,,,,,,low,19,0,19,0,1,,,,,,,,,
296491,2022-09-29_15h58.25.240,vts_reward_expectancy,2022.2.4,MacIntel,60.0024001,Chrome,1680,1050,,,,,0,1211,,,,,,,,,,,,,,,,,W,146,circle,1,0,,,,,,,,,,,,,,,,repeat,number,numRpt,j,0.6626,Hi,,,,,,5,,,,,,,,low,20,0,20,0,1,,,,,,,,,
296491,2022-09-29_15h58.25.240,vts_reward_expectancy,2022.2.4,MacIntel,60.0024001,Chrome,1680,1050,,,,,10,1221,,,,,,,,,,,,,,,,,S,174,triangle,1,0,,,,,,,,,,,,,,,,switch,letter,lettSwt,f,0.5216,Lo,,,,,,5,,,,,,,,low,21,0,21,0,1,,,,,,,,,
296491,2022-09-29_15h58.25.240,vts_reward_expectancy,2022.2.4,MacIntel,60.0024001,Chrome,1680,1050,,,,,0,1221,,,,,,,,,,,,,,,,,B,167,circle,1,0,,,,,,,,,,,,,,,,switch,number,numSwt,k,0.7141,Hi,,,,,,5,,,,,,,,low,22,0,22,0,1,,,,,,,,,
296491,2022-09-29_15h58.25.240,vts_reward_expectancy,2022.2.4,MacIntel,60.0024001,Chrome,1680,1050,,,,,1,1222,,,,,,,,,,,,,,,,,D,181,triangle,1,0,,,,,,,,,,,,,,,,repeat,number,numRpt,k,0.5641,Lo,,,,,,5,,,,,,,,low,23,0,23,0,1,,,,,,,,,
296491,2022-09-29_15h58.25.240,vts_reward_expectancy,2022.2.4,MacIntel,60.0024001,Chrome,1680,1050,,,,,1,1223,,,,,,,,,,,,,,,,,W,181,triangle,1,0,,,,,,,,,,,,,,,,switch,letter,lettSwt,f,0.6163,Lo,,,,,,5,,,,,,,,low,24,0,24,0,1,,,,,,,,,
296491,2022-09-29_15h58.25.240,vts_reward_expectancy,2022.2.4,MacIntel,60.0024001,Chrome,1680,1050,,,,,10,1233,,,,,,,,,,,,,,,,,D,174,circle,1,0,,,,,,,,,,,,,,,,switch,number,numSwt,k,0.5954,Hi,,,,,,5,,,,,,,,low,25,0,25,0,1,,,,,,,,,
296491,2022-09-29_15h58.25.240,vts_reward_expectancy,2022.2.4,MacIntel,60.0024001,Chrome,1680,1050,,,,,10,1243,,,,,,,,,,,,,,,,,U,139,circle,1,0,,,,,,,,,,,,,,,,repeat,number,numRpt,j,0.5359,Hi,,,,,,5,,,,,,,,low,26,0,26,0,1,,,,,,,,,
296491,2022-09-29_15h58.25.240,vts_reward_expectancy,2022.2.4,MacIntel,60.0024001,Chrome,1680,1050,,,,,10,1253,,,,,,,,,,,,,,,,,Y,146,triangle,1,0,,,,,,,,,,,,,,,,switch,letter,lettSwt,f,0.6322,Lo,,,,,,5,,,,,,,,low,27,0,27,0,1,,,,,,,,,
296491,2022-09-29_15h58.25.240,vts_reward_expectancy,2022.2.4,MacIntel,60.0024001,Chrome,1680,1050,,,,,1,1254,,,,,,,,,,,,,,,,,B,132,triangle,1,0,,,,,,,,,,,,,,,,switch,number,numSwt,j,0.6957,Lo,,,,,,5,,,,,,,,low,28,0,28,0,1,,,,,,,,,
296491,2022-09-29_15h58.25.240,vts_reward_expectancy,2022.2.4,MacIntel,60.0024001,Chrome,1680,1050,,,,,10,1264,,,,,,,,,,,,,,,,,S,160,circle,1,0,,,,,,,,,,,,,,,,switch,letter,lettSwt,f,0.536,Hi,,,,,,5,,,,,,,,low,29,0,29,0,1,,,,,,,,,
296491,2022-09-29_15h58.25.240,vts_reward_expectancy,2022.2.4,MacIntel,60.0024001,Chrome,1680,1050,,,,,10,1274,,,,,,,,,,,,,,,,,H,167,triangle,1,0,,,,,,,,,,,,,,,,switch,number,numSwt,k,0.7387,Lo,,,,,,5,,,,,,,,low,30,0,30,0,1,,,,,,,,,
296491,2022-09-29_15h58.25.240,vts_reward_expectancy,2022.2.4,MacIntel,60.0024001,Chrome,1680,1050,,,,,10,1284,,,,,,,,,,,,,,,,,F,125,circle,1,0,,,,,,,,,,,,,,,,switch,letter,lettSwt,d,0.5483,Hi,,,,,,5,,,,,,,,low,31,0,31,0,1,,,,,,,,,
296491,2022-09-29_15h58.25.240,vts_reward_expectancy,2022.2.4,MacIntel,60.0024001,Chrome,1680,1050,,,,,,,,,,,,,,,,,,,,,,,,,,,,,,,,,,,,,,,,,,,,,,,,,,,,,,6,,,,,,,,,,,,,,Pick one between two options,2,I couldn't find the pattern ,4,4,,2,1680,1050
