participant,date,expName,psychopyVersion,OS,frameRate,browser,xResolution,yResolution,key_resp.keys,key_resp.rt,training_resp.keys,training_resp.rt,points_trial,points_cumul,trainBlock,training.thisRepN,training.thisTrialN,training.thisN,training.thisIndex,training.ran,LTriangleOpac,LCircleOpac,LHexagonOpac,LStarOpac,RTriangleOpac,RCircleOpac,RHexagonOpac,RStarOpac,LShape_ID,RShape_ID,curr_topStim,curr_bottStim,curr_shape,acc,E1,target_resp_prac1.keys,pracBlock,task1_prac_trials.thisRepN,task1_prac_trials.thisTrialN,task1_prac_trials.thisN,task1_prac_trials.thisIndex,task1_prac_trials.ran,target_resp_prac1.rt,target_resp_prac2.keys,target_resp_prac2.rt,task2_praac_trials.thisRepN,task2_praac_trials.thisTrialN,task2_praac_trials.thisN,task2_praac_trials.thisIndex,task2_praac_trials.ran,alt,task,condition,target_resp.keys,rewCond,vts_practice_trials.thisRepN,vts_practice_trials.thisTrialN,vts_practice_trials.thisN,vts_practice_trials.thisIndex,vts_practice_trials.ran,target_resp.rt,blockNum,trials_norew.thisRepN,trials_norew.thisTrialN,trials_norew.thisN,trials_norew.thisIndex,trials_norew.ran,key_resp_2.keys,key_resp_2.rt,rewExpect,trials_rew.thisRepN,trials_rew.thisTrialN,trials_rew.thisN,trials_rew.thisIndex,trials_rew.ran,Q1,Q2_text,Q5_text,xRes,yRes
293053,2022-10-05_19h48.49.254,vts_reward_expectancy,2022.2.4,Win32,168.2368775,Chrome,1536,864,,,,,,,,,,,,,,,,,,,,,,,,,,,,,,,,,,,,,,,,,,,,,,,,,,,,,,,,,,,,,,,,,,,,,,,,
293053,2022-10-05_19h48.49.254,vts_reward_expectancy,2022.2.4,Win32,168.2368775,Chrome,1536,864,space,3.1084,,,,,,,,,,,,,,,,,,,,,,,,,,,,,,,,,,,,,,,,,,,,,,,,,,,,,,,,,,,,,,,,,,,,,,
293053,2022-10-05_19h48.49.254,vts_reward_expectancy,2022.2.4,Win32,168.2368775,Chrome,1536,864,,,,,,,,,,,,,,,,,,,,,,,,,,,,,,,,,,,,,,,,,,,,,,,,,,,,,,,,,,,,,,,,,,,,,,,,
293053,2022-10-05_19h48.49.254,vts_reward_expectancy,2022.2.4,Win32,168.2368775,Chrome,1536,864,,,a,1.7047,10,10,0,0,0,0,0,1,1,0,0,0,0,1,0,0,triangle,circle,,,,,,,,,,,,,,,,,,,,,,,,,,,,,,,,,,,,,,,,,,,,,,,,,,
293053,2022-10-05_19h48.49.254,vts_reward_expectancy,2022.2.4,Win32,168.2368775,Chrome,1536,864,,,l,1.6253,1,11,0,0,1,1,11,1,0,0,0,1,0,0,1,0,star,hexagon,,,,,,,,,,,,,,,,,,,,,,,,,,,,,,,,,,,,,,,,,,,,,,,,,,
293053,2022-10-05_19h48.49.254,vts_reward_expectancy,2022.2.4,Win32,168.2368775,Chrome,1536,864,,,a,0.433,1,12,0,0,2,2,1,1,1,0,0,0,0,0,1,0,triangle,hexagon,,,,,,,,,,,,,,,,,,,,,,,,,,,,,,,,,,,,,,,,,,,,,,,,,,
293053,2022-10-05_19h48.49.254,vts_reward_expectancy,2022.2.4,Win32,168.2368775,Chrome,1536,864,,,a,0.303,10,22,0,0,3,3,7,1,0,0,1,0,0,1,0,0,hexagon,circle,,,,,,,,,,,,,,,,,,,,,,,,,,,,,,,,,,,,,,,,,,,,,,,,,,
293053,2022-10-05_19h48.49.254,vts_reward_expectancy,2022.2.4,Win32,168.2368775,Chrome,1536,864,,,a,0.5877,1,23,0,0,4,4,6,1,0,0,1,0,1,0,0,0,hexagon,triangle,,,,,,,,,,,,,,,,,,,,,,,,,,,,,,,,,,,,,,,,,,,,,,,,,,
293053,2022-10-05_19h48.49.254,vts_reward_expectancy,2022.2.4,Win32,168.2368775,Chrome,1536,864,,,a,0.6423,1,24,0,0,5,5,5,1,0,1,0,0,0,0,0,1,circle,star,,,,,,,,,,,,,,,,,,,,,,,,,,,,,,,,,,,,,,,,,,,,,,,,,,
293053,2022-10-05_19h48.49.254,vts_reward_expectancy,2022.2.4,Win32,168.2368775,Chrome,1536,864,,,l,0.487,10,34,0,0,6,6,2,1,1,0,0,0,0,0,0,1,triangle,star,,,,,,,,,,,,,,,,,,,,,,,,,,,,,,,,,,,,,,,,,,,,,,,,,,
293053,2022-10-05_19h48.49.254,vts_reward_expectancy,2022.2.4,Win32,168.2368775,Chrome,1536,864,,,a,0.6057,10,44,0,0,7,7,3,1,0,1,0,0,1,0,0,0,circle,triangle,,,,,,,,,,,,,,,,,,,,,,,,,,,,,,,,,,,,,,,,,,,,,,,,,,
293053,2022-10-05_19h48.49.254,vts_reward_expectancy,2022.2.4,Win32,168.2368775,Chrome,1536,864,,,l,0.3389,10,54,0,0,8,8,10,1,0,0,0,1,0,1,0,0,star ,circle,,,,,,,,,,,,,,,,,,,,,,,,,,,,,,,,,,,,,,,,,,,,,,,,,,
293053,2022-10-05_19h48.49.254,vts_reward_expectancy,2022.2.4,Win32,168.2368775,Chrome,1536,864,,,a,0.3161,1,55,0,0,9,9,8,1,0,0,1,0,0,0,0,1,hexagon,star,,,,,,,,,,,,,,,,,,,,,,,,,,,,,,,,,,,,,,,,,,,,,,,,,,
293053,2022-10-05_19h48.49.254,vts_reward_expectancy,2022.2.4,Win32,168.2368775,Chrome,1536,864,,,a,1.1023,1,56,0,0,10,10,9,1,0,0,0,1,1,0,0,0,star,triangle,,,,,,,,,,,,,,,,,,,,,,,,,,,,,,,,,,,,,,,,,,,,,,,,,,
293053,2022-10-05_19h48.49.254,vts_reward_expectancy,2022.2.4,Win32,168.2368775,Chrome,1536,864,,,l,0.8316,1,57,0,0,11,11,4,1,0,1,0,0,0,0,1,0,circle,hexagon,,,,,,,,,,,,,,,,,,,,,,,,,,,,,,,,,,,,,,,,,,,,,,,,,,
293053,2022-10-05_19h48.49.254,vts_reward_expectancy,2022.2.4,Win32,168.2368775,Chrome,1536,864,,,l,0.4427,1,58,0,1,0,12,2,1,1,0,0,0,0,0,0,1,triangle,star,,,,,,,,,,,,,,,,,,,,,,,,,,,,,,,,,,,,,,,,,,,,,,,,,,
293053,2022-10-05_19h48.49.254,vts_reward_expectancy,2022.2.4,Win32,168.2368775,Chrome,1536,864,,,a,0.8245,1,59,0,1,1,13,11,1,0,0,0,1,0,0,1,0,star,hexagon,,,,,,,,,,,,,,,,,,,,,,,,,,,,,,,,,,,,,,,,,,,,,,,,,,
293053,2022-10-05_19h48.49.254,vts_reward_expectancy,2022.2.4,Win32,168.2368775,Chrome,1536,864,,,a,3.0427,1,60,0,1,2,14,4,1,0,1,0,0,0,0,1,0,circle,hexagon,,,,,,,,,,,,,,,,,,,,,,,,,,,,,,,,,,,,,,,,,,,,,,,,,,
293053,2022-10-05_19h48.49.254,vts_reward_expectancy,2022.2.4,Win32,168.2368775,Chrome,1536,864,,,l,2.0238,1,61,0,1,3,15,8,1,0,0,1,0,0,0,0,1,hexagon,star,,,,,,,,,,,,,,,,,,,,,,,,,,,,,,,,,,,,,,,,,,,,,,,,,,
293053,2022-10-05_19h48.49.254,vts_reward_expectancy,2022.2.4,Win32,168.2368775,Chrome,1536,864,,,a,1.1939,1,62,0,1,4,16,1,1,1,0,0,0,0,0,1,0,triangle,hexagon,,,,,,,,,,,,,,,,,,,,,,,,,,,,,,,,,,,,,,,,,,,,,,,,,,
293053,2022-10-05_19h48.49.254,vts_reward_expectancy,2022.2.4,Win32,168.2368775,Chrome,1536,864,,,a,1.6061,1,63,0,1,5,17,5,1,0,1,0,0,0,0,0,1,circle,star,,,,,,,,,,,,,,,,,,,,,,,,,,,,,,,,,,,,,,,,,,,,,,,,,,
293053,2022-10-05_19h48.49.254,vts_reward_expectancy,2022.2.4,Win32,168.2368775,Chrome,1536,864,,,a,1.0684,1,64,0,1,6,18,10,1,0,0,0,1,0,1,0,0,star ,circle,,,,,,,,,,,,,,,,,,,,,,,,,,,,,,,,,,,,,,,,,,,,,,,,,,
293053,2022-10-05_19h48.49.254,vts_reward_expectancy,2022.2.4,Win32,168.2368775,Chrome,1536,864,,,l,1.2265,10,74,0,1,7,19,7,1,0,0,1,0,0,1,0,0,hexagon,circle,,,,,,,,,,,,,,,,,,,,,,,,,,,,,,,,,,,,,,,,,,,,,,,,,,
293053,2022-10-05_19h48.49.254,vts_reward_expectancy,2022.2.4,Win32,168.2368775,Chrome,1536,864,,,l,0.8125,10,84,0,1,8,20,0,1,1,0,0,0,0,1,0,0,triangle,circle,,,,,,,,,,,,,,,,,,,,,,,,,,,,,,,,,,,,,,,,,,,,,,,,,,
293053,2022-10-05_19h48.49.254,vts_reward_expectancy,2022.2.4,Win32,168.2368775,Chrome,1536,864,,,a,1.6491,10,94,0,1,9,21,9,1,0,0,0,1,1,0,0,0,star,triangle,,,,,,,,,,,,,,,,,,,,,,,,,,,,,,,,,,,,,,,,,,,,,,,,,,
293053,2022-10-05_19h48.49.254,vts_reward_expectancy,2022.2.4,Win32,168.2368775,Chrome,1536,864,,,l,1.3962,1,95,0,1,10,22,3,1,0,1,0,0,1,0,0,0,circle,triangle,,,,,,,,,,,,,,,,,,,,,,,,,,,,,,,,,,,,,,,,,,,,,,,,,,
293053,2022-10-05_19h48.49.254,vts_reward_expectancy,2022.2.4,Win32,168.2368775,Chrome,1536,864,,,a,0.9414,1,96,0,1,11,23,6,1,0,0,1,0,1,0,0,0,hexagon,triangle,,,,,,,,,,,,,,,,,,,,,,,,,,,,,,,,,,,,,,,,,,,,,,,,,,
293053,2022-10-05_19h48.49.254,vts_reward_expectancy,2022.2.4,Win32,168.2368775,Chrome,1536,864,,,l,1.1717,1,97,0,2,0,24,11,1,0,0,0,1,0,0,1,0,star,hexagon,,,,,,,,,,,,,,,,,,,,,,,,,,,,,,,,,,,,,,,,,,,,,,,,,,
293053,2022-10-05_19h48.49.254,vts_reward_expectancy,2022.2.4,Win32,168.2368775,Chrome,1536,864,,,l,0.8726,10,107,0,2,1,25,10,1,0,0,0,1,0,1,0,0,star ,circle,,,,,,,,,,,,,,,,,,,,,,,,,,,,,,,,,,,,,,,,,,,,,,,,,,
293053,2022-10-05_19h48.49.254,vts_reward_expectancy,2022.2.4,Win32,168.2368775,Chrome,1536,864,,,a,0.5646,10,117,0,2,2,26,3,1,0,1,0,0,1,0,0,0,circle,triangle,,,,,,,,,,,,,,,,,,,,,,,,,,,,,,,,,,,,,,,,,,,,,,,,,,
293053,2022-10-05_19h48.49.254,vts_reward_expectancy,2022.2.4,Win32,168.2368775,Chrome,1536,864,,,l,1.2316,1,118,0,2,3,27,0,1,1,0,0,0,0,1,0,0,triangle,circle,,,,,,,,,,,,,,,,,,,,,,,,,,,,,,,,,,,,,,,,,,,,,,,,,,
293053,2022-10-05_19h48.49.254,vts_reward_expectancy,2022.2.4,Win32,168.2368775,Chrome,1536,864,,,a,1.056,10,128,0,2,4,28,5,1,0,1,0,0,0,0,0,1,circle,star,,,,,,,,,,,,,,,,,,,,,,,,,,,,,,,,,,,,,,,,,,,,,,,,,,
293053,2022-10-05_19h48.49.254,vts_reward_expectancy,2022.2.4,Win32,168.2368775,Chrome,1536,864,,,a,1.5842,10,138,0,2,5,29,8,1,0,0,1,0,0,0,0,1,hexagon,star,,,,,,,,,,,,,,,,,,,,,,,,,,,,,,,,,,,,,,,,,,,,,,,,,,
293053,2022-10-05_19h48.49.254,vts_reward_expectancy,2022.2.4,Win32,168.2368775,Chrome,1536,864,,,l,1.2504,10,148,0,2,6,30,7,1,0,0,1,0,0,1,0,0,hexagon,circle,,,,,,,,,,,,,,,,,,,,,,,,,,,,,,,,,,,,,,,,,,,,,,,,,,
293053,2022-10-05_19h48.49.254,vts_reward_expectancy,2022.2.4,Win32,168.2368775,Chrome,1536,864,,,l,0.4736,10,158,0,2,7,31,6,1,0,0,1,0,1,0,0,0,hexagon,triangle,,,,,,,,,,,,,,,,,,,,,,,,,,,,,,,,,,,,,,,,,,,,,,,,,,
293053,2022-10-05_19h48.49.254,vts_reward_expectancy,2022.2.4,Win32,168.2368775,Chrome,1536,864,,,a,2.227,10,168,0,2,8,32,2,1,1,0,0,0,0,0,0,1,triangle,star,,,,,,,,,,,,,,,,,,,,,,,,,,,,,,,,,,,,,,,,,,,,,,,,,,
293053,2022-10-05_19h48.49.254,vts_reward_expectancy,2022.2.4,Win32,168.2368775,Chrome,1536,864,,,a,0.9572,10,178,0,2,9,33,1,1,1,0,0,0,0,0,1,0,triangle,hexagon,,,,,,,,,,,,,,,,,,,,,,,,,,,,,,,,,,,,,,,,,,,,,,,,,,
293053,2022-10-05_19h48.49.254,vts_reward_expectancy,2022.2.4,Win32,168.2368775,Chrome,1536,864,,,a,0.8974,10,188,0,2,10,34,4,1,0,1,0,0,0,0,1,0,circle,hexagon,,,,,,,,,,,,,,,,,,,,,,,,,,,,,,,,,,,,,,,,,,,,,,,,,,
293053,2022-10-05_19h48.49.254,vts_reward_expectancy,2022.2.4,Win32,168.2368775,Chrome,1536,864,,,l,1.0006,1,189,0,2,11,35,9,1,0,0,0,1,1,0,0,0,star,triangle,,,,,,,,,,,,,,,,,,,,,,,,,,,,,,,,,,,,,,,,,,,,,,,,,,
293053,2022-10-05_19h48.49.254,vts_reward_expectancy,2022.2.4,Win32,168.2368775,Chrome,1536,864,,,l,1.4914,10,199,1,0,0,0,7,1,0,0,1,0,0,1,0,0,hexagon,circle,,,,,,,,,,,,,,,,,,,,,,,,,,,,,,,,,,,,,,,,,,,,,,,,,,
293053,2022-10-05_19h48.49.254,vts_reward_expectancy,2022.2.4,Win32,168.2368775,Chrome,1536,864,,,l,0.8968,10,209,1,0,1,1,10,1,0,0,0,1,0,1,0,0,star ,circle,,,,,,,,,,,,,,,,,,,,,,,,,,,,,,,,,,,,,,,,,,,,,,,,,,
293053,2022-10-05_19h48.49.254,vts_reward_expectancy,2022.2.4,Win32,168.2368775,Chrome,1536,864,,,l,0.7335,1,210,1,0,2,2,5,1,0,1,0,0,0,0,0,1,circle,star,,,,,,,,,,,,,,,,,,,,,,,,,,,,,,,,,,,,,,,,,,,,,,,,,,
293053,2022-10-05_19h48.49.254,vts_reward_expectancy,2022.2.4,Win32,168.2368775,Chrome,1536,864,,,l,1.1237,10,220,1,0,3,3,6,1,0,0,1,0,1,0,0,0,hexagon,triangle,,,,,,,,,,,,,,,,,,,,,,,,,,,,,,,,,,,,,,,,,,,,,,,,,,
293053,2022-10-05_19h48.49.254,vts_reward_expectancy,2022.2.4,Win32,168.2368775,Chrome,1536,864,,,a,1.3753,10,230,1,0,4,4,8,1,0,0,1,0,0,0,0,1,hexagon,star,,,,,,,,,,,,,,,,,,,,,,,,,,,,,,,,,,,,,,,,,,,,,,,,,,
293053,2022-10-05_19h48.49.254,vts_reward_expectancy,2022.2.4,Win32,168.2368775,Chrome,1536,864,,,a,0.8417,10,240,1,0,5,5,4,1,0,1,0,0,0,0,1,0,circle,hexagon,,,,,,,,,,,,,,,,,,,,,,,,,,,,,,,,,,,,,,,,,,,,,,,,,,
293053,2022-10-05_19h48.49.254,vts_reward_expectancy,2022.2.4,Win32,168.2368775,Chrome,1536,864,,,l,1.1448,1,241,1,0,6,6,2,1,1,0,0,0,0,0,0,1,triangle,star,,,,,,,,,,,,,,,,,,,,,,,,,,,,,,,,,,,,,,,,,,,,,,,,,,
293053,2022-10-05_19h48.49.254,vts_reward_expectancy,2022.2.4,Win32,168.2368775,Chrome,1536,864,,,l,1.2119,10,251,1,0,7,7,9,1,0,0,0,1,1,0,0,0,star,triangle,,,,,,,,,,,,,,,,,,,,,,,,,,,,,,,,,,,,,,,,,,,,,,,,,,
293053,2022-10-05_19h48.49.254,vts_reward_expectancy,2022.2.4,Win32,168.2368775,Chrome,1536,864,,,a,1.1938,1,252,1,0,8,8,1,1,1,0,0,0,0,0,1,0,triangle,hexagon,,,,,,,,,,,,,,,,,,,,,,,,,,,,,,,,,,,,,,,,,,,,,,,,,,
293053,2022-10-05_19h48.49.254,vts_reward_expectancy,2022.2.4,Win32,168.2368775,Chrome,1536,864,,,l,1.7057,10,262,1,0,9,9,11,1,0,0,0,1,0,0,1,0,star,hexagon,,,,,,,,,,,,,,,,,,,,,,,,,,,,,,,,,,,,,,,,,,,,,,,,,,
293053,2022-10-05_19h48.49.254,vts_reward_expectancy,2022.2.4,Win32,168.2368775,Chrome,1536,864,,,a,0.8551,10,272,1,0,10,10,3,1,0,1,0,0,1,0,0,0,circle,triangle,,,,,,,,,,,,,,,,,,,,,,,,,,,,,,,,,,,,,,,,,,,,,,,,,,
293053,2022-10-05_19h48.49.254,vts_reward_expectancy,2022.2.4,Win32,168.2368775,Chrome,1536,864,,,l,1.0252,10,282,1,0,11,11,0,1,1,0,0,0,0,1,0,0,triangle,circle,,,,,,,,,,,,,,,,,,,,,,,,,,,,,,,,,,,,,,,,,,,,,,,,,,
293053,2022-10-05_19h48.49.254,vts_reward_expectancy,2022.2.4,Win32,168.2368775,Chrome,1536,864,,,a,1.6118,1,283,1,1,0,12,8,1,0,0,1,0,0,0,0,1,hexagon,star,,,,,,,,,,,,,,,,,,,,,,,,,,,,,,,,,,,,,,,,,,,,,,,,,,
293053,2022-10-05_19h48.49.254,vts_reward_expectancy,2022.2.4,Win32,168.2368775,Chrome,1536,864,,,l,1.2785,1,284,1,1,1,13,7,1,0,0,1,0,0,1,0,0,hexagon,circle,,,,,,,,,,,,,,,,,,,,,,,,,,,,,,,,,,,,,,,,,,,,,,,,,,
293053,2022-10-05_19h48.49.254,vts_reward_expectancy,2022.2.4,Win32,168.2368775,Chrome,1536,864,,,l,1.2634,10,294,1,1,2,14,2,1,1,0,0,0,0,0,0,1,triangle,star,,,,,,,,,,,,,,,,,,,,,,,,,,,,,,,,,,,,,,,,,,,,,,,,,,
293053,2022-10-05_19h48.49.254,vts_reward_expectancy,2022.2.4,Win32,168.2368775,Chrome,1536,864,,,l,1.0794,1,295,1,1,3,15,1,1,1,0,0,0,0,0,1,0,triangle,hexagon,,,,,,,,,,,,,,,,,,,,,,,,,,,,,,,,,,,,,,,,,,,,,,,,,,
293053,2022-10-05_19h48.49.254,vts_reward_expectancy,2022.2.4,Win32,168.2368775,Chrome,1536,864,,,a,1.2189,10,305,1,1,4,16,3,1,0,1,0,0,1,0,0,0,circle,triangle,,,,,,,,,,,,,,,,,,,,,,,,,,,,,,,,,,,,,,,,,,,,,,,,,,
293053,2022-10-05_19h48.49.254,vts_reward_expectancy,2022.2.4,Win32,168.2368775,Chrome,1536,864,,,a,2.2662,1,306,1,1,5,17,11,1,0,0,0,1,0,0,1,0,star,hexagon,,,,,,,,,,,,,,,,,,,,,,,,,,,,,,,,,,,,,,,,,,,,,,,,,,
293053,2022-10-05_19h48.49.254,vts_reward_expectancy,2022.2.4,Win32,168.2368775,Chrome,1536,864,,,l,0.456,1,307,1,1,6,18,5,1,0,1,0,0,0,0,0,1,circle,star,,,,,,,,,,,,,,,,,,,,,,,,,,,,,,,,,,,,,,,,,,,,,,,,,,
293053,2022-10-05_19h48.49.254,vts_reward_expectancy,2022.2.4,Win32,168.2368775,Chrome,1536,864,,,a,0.4882,1,308,1,1,7,19,6,1,0,0,1,0,1,0,0,0,hexagon,triangle,,,,,,,,,,,,,,,,,,,,,,,,,,,,,,,,,,,,,,,,,,,,,,,,,,
293053,2022-10-05_19h48.49.254,vts_reward_expectancy,2022.2.4,Win32,168.2368775,Chrome,1536,864,,,l,0.7462,1,309,1,1,8,20,4,1,0,1,0,0,0,0,1,0,circle,hexagon,,,,,,,,,,,,,,,,,,,,,,,,,,,,,,,,,,,,,,,,,,,,,,,,,,
293053,2022-10-05_19h48.49.254,vts_reward_expectancy,2022.2.4,Win32,168.2368775,Chrome,1536,864,,,a,2.7029,10,319,1,1,9,21,9,1,0,0,0,1,1,0,0,0,star,triangle,,,,,,,,,,,,,,,,,,,,,,,,,,,,,,,,,,,,,,,,,,,,,,,,,,
293053,2022-10-05_19h48.49.254,vts_reward_expectancy,2022.2.4,Win32,168.2368775,Chrome,1536,864,,,a,0.587,10,329,1,1,10,22,10,1,0,0,0,1,0,1,0,0,star ,circle,,,,,,,,,,,,,,,,,,,,,,,,,,,,,,,,,,,,,,,,,,,,,,,,,,
293053,2022-10-05_19h48.49.254,vts_reward_expectancy,2022.2.4,Win32,168.2368775,Chrome,1536,864,,,a,0.6427,10,339,1,1,11,23,0,1,1,0,0,0,0,1,0,0,triangle,circle,,,,,,,,,,,,,,,,,,,,,,,,,,,,,,,,,,,,,,,,,,,,,,,,,,
293053,2022-10-05_19h48.49.254,vts_reward_expectancy,2022.2.4,Win32,168.2368775,Chrome,1536,864,,,a,0.4116,10,349,1,2,0,24,7,1,0,0,1,0,0,1,0,0,hexagon,circle,,,,,,,,,,,,,,,,,,,,,,,,,,,,,,,,,,,,,,,,,,,,,,,,,,
293053,2022-10-05_19h48.49.254,vts_reward_expectancy,2022.2.4,Win32,168.2368775,Chrome,1536,864,,,a,0.3626,10,359,1,2,1,25,3,1,0,1,0,0,1,0,0,0,circle,triangle,,,,,,,,,,,,,,,,,,,,,,,,,,,,,,,,,,,,,,,,,,,,,,,,,,
293053,2022-10-05_19h48.49.254,vts_reward_expectancy,2022.2.4,Win32,168.2368775,Chrome,1536,864,,,a,0.2693,10,369,1,2,2,26,10,1,0,0,0,1,0,1,0,0,star ,circle,,,,,,,,,,,,,,,,,,,,,,,,,,,,,,,,,,,,,,,,,,,,,,,,,,
293053,2022-10-05_19h48.49.254,vts_reward_expectancy,2022.2.4,Win32,168.2368775,Chrome,1536,864,,,a,0.2791,1,370,1,2,3,27,2,1,1,0,0,0,0,0,0,1,triangle,star,,,,,,,,,,,,,,,,,,,,,,,,,,,,,,,,,,,,,,,,,,,,,,,,,,
293053,2022-10-05_19h48.49.254,vts_reward_expectancy,2022.2.4,Win32,168.2368775,Chrome,1536,864,,,l,1.0005,10,380,1,2,4,28,1,1,1,0,0,0,0,0,1,0,triangle,hexagon,,,,,,,,,,,,,,,,,,,,,,,,,,,,,,,,,,,,,,,,,,,,,,,,,,
293053,2022-10-05_19h48.49.254,vts_reward_expectancy,2022.2.4,Win32,168.2368775,Chrome,1536,864,,,l,0.5028,10,390,1,2,5,29,11,1,0,0,0,1,0,0,1,0,star,hexagon,,,,,,,,,,,,,,,,,,,,,,,,,,,,,,,,,,,,,,,,,,,,,,,,,,
293053,2022-10-05_19h48.49.254,vts_reward_expectancy,2022.2.4,Win32,168.2368775,Chrome,1536,864,,,l,0.3242,1,391,1,2,6,30,0,1,1,0,0,0,0,1,0,0,triangle,circle,,,,,,,,,,,,,,,,,,,,,,,,,,,,,,,,,,,,,,,,,,,,,,,,,,
293053,2022-10-05_19h48.49.254,vts_reward_expectancy,2022.2.4,Win32,168.2368775,Chrome,1536,864,,,a,0.2355,1,392,1,2,7,31,9,1,0,0,0,1,1,0,0,0,star,triangle,,,,,,,,,,,,,,,,,,,,,,,,,,,,,,,,,,,,,,,,,,,,,,,,,,
293053,2022-10-05_19h48.49.254,vts_reward_expectancy,2022.2.4,Win32,168.2368775,Chrome,1536,864,,,l,0.3213,10,402,1,2,8,32,4,1,0,1,0,0,0,0,1,0,circle,hexagon,,,,,,,,,,,,,,,,,,,,,,,,,,,,,,,,,,,,,,,,,,,,,,,,,,
293053,2022-10-05_19h48.49.254,vts_reward_expectancy,2022.2.4,Win32,168.2368775,Chrome,1536,864,,,a,0.5173,10,412,1,2,9,33,8,1,0,0,1,0,0,0,0,1,hexagon,star,,,,,,,,,,,,,,,,,,,,,,,,,,,,,,,,,,,,,,,,,,,,,,,,,,
293053,2022-10-05_19h48.49.254,vts_reward_expectancy,2022.2.4,Win32,168.2368775,Chrome,1536,864,,,a,0.3336,10,422,1,2,10,34,5,1,0,1,0,0,0,0,0,1,circle,star,,,,,,,,,,,,,,,,,,,,,,,,,,,,,,,,,,,,,,,,,,,,,,,,,,
293053,2022-10-05_19h48.49.254,vts_reward_expectancy,2022.2.4,Win32,168.2368775,Chrome,1536,864,,,l,0.8237,1,423,1,2,11,35,6,1,0,0,1,0,1,0,0,0,hexagon,triangle,,,,,,,,,,,,,,,,,,,,,,,,,,,,,,,,,,,,,,,,,,,,,,,,,,
293053,2022-10-05_19h48.49.254,vts_reward_expectancy,2022.2.4,Win32,168.2368775,Chrome,1536,864,,,l,1.4123,1,424,2,0,0,0,11,1,0,0,0,1,0,0,1,0,star,hexagon,,,,,,,,,,,,,,,,,,,,,,,,,,,,,,,,,,,,,,,,,,,,,,,,,,
293053,2022-10-05_19h48.49.254,vts_reward_expectancy,2022.2.4,Win32,168.2368775,Chrome,1536,864,,,a,0.3757,10,434,2,0,1,1,4,1,0,1,0,0,0,0,1,0,circle,hexagon,,,,,,,,,,,,,,,,,,,,,,,,,,,,,,,,,,,,,,,,,,,,,,,,,,
293053,2022-10-05_19h48.49.254,vts_reward_expectancy,2022.2.4,Win32,168.2368775,Chrome,1536,864,,,a,0.7775,10,444,2,0,2,2,5,1,0,1,0,0,0,0,0,1,circle,star,,,,,,,,,,,,,,,,,,,,,,,,,,,,,,,,,,,,,,,,,,,,,,,,,,
293053,2022-10-05_19h48.49.254,vts_reward_expectancy,2022.2.4,Win32,168.2368775,Chrome,1536,864,,,a,0.6687,10,454,2,0,3,3,8,1,0,0,1,0,0,0,0,1,hexagon,star,,,,,,,,,,,,,,,,,,,,,,,,,,,,,,,,,,,,,,,,,,,,,,,,,,
293053,2022-10-05_19h48.49.254,vts_reward_expectancy,2022.2.4,Win32,168.2368775,Chrome,1536,864,,,l,1.0303,1,455,2,0,4,4,0,1,1,0,0,0,0,1,0,0,triangle,circle,,,,,,,,,,,,,,,,,,,,,,,,,,,,,,,,,,,,,,,,,,,,,,,,,,
293053,2022-10-05_19h48.49.254,vts_reward_expectancy,2022.2.4,Win32,168.2368775,Chrome,1536,864,,,l,0.9516,10,465,2,0,5,5,9,1,0,0,0,1,1,0,0,0,star,triangle,,,,,,,,,,,,,,,,,,,,,,,,,,,,,,,,,,,,,,,,,,,,,,,,,,
293053,2022-10-05_19h48.49.254,vts_reward_expectancy,2022.2.4,Win32,168.2368775,Chrome,1536,864,,,a,0.8276,1,466,2,0,6,6,6,1,0,0,1,0,1,0,0,0,hexagon,triangle,,,,,,,,,,,,,,,,,,,,,,,,,,,,,,,,,,,,,,,,,,,,,,,,,,
293053,2022-10-05_19h48.49.254,vts_reward_expectancy,2022.2.4,Win32,168.2368775,Chrome,1536,864,,,l,0.8565,10,476,2,0,7,7,10,1,0,0,0,1,0,1,0,0,star ,circle,,,,,,,,,,,,,,,,,,,,,,,,,,,,,,,,,,,,,,,,,,,,,,,,,,
293053,2022-10-05_19h48.49.254,vts_reward_expectancy,2022.2.4,Win32,168.2368775,Chrome,1536,864,,,a,0.4547,1,477,2,0,8,8,2,1,1,0,0,0,0,0,0,1,triangle,star,,,,,,,,,,,,,,,,,,,,,,,,,,,,,,,,,,,,,,,,,,,,,,,,,,
293053,2022-10-05_19h48.49.254,vts_reward_expectancy,2022.2.4,Win32,168.2368775,Chrome,1536,864,,,l,0.5718,10,487,2,0,9,9,7,1,0,0,1,0,0,1,0,0,hexagon,circle,,,,,,,,,,,,,,,,,,,,,,,,,,,,,,,,,,,,,,,,,,,,,,,,,,
293053,2022-10-05_19h48.49.254,vts_reward_expectancy,2022.2.4,Win32,168.2368775,Chrome,1536,864,,,l,0.8664,10,497,2,0,10,10,3,1,0,1,0,0,1,0,0,0,circle,triangle,,,,,,,,,,,,,,,,,,,,,,,,,,,,,,,,,,,,,,,,,,,,,,,,,,
293053,2022-10-05_19h48.49.254,vts_reward_expectancy,2022.2.4,Win32,168.2368775,Chrome,1536,864,,,a,0.576,10,507,2,0,11,11,1,1,1,0,0,0,0,0,1,0,triangle,hexagon,,,,,,,,,,,,,,,,,,,,,,,,,,,,,,,,,,,,,,,,,,,,,,,,,,
293053,2022-10-05_19h48.49.254,vts_reward_expectancy,2022.2.4,Win32,168.2368775,Chrome,1536,864,,,l,0.9152,10,517,2,1,0,12,10,1,0,0,0,1,0,1,0,0,star ,circle,,,,,,,,,,,,,,,,,,,,,,,,,,,,,,,,,,,,,,,,,,,,,,,,,,
293053,2022-10-05_19h48.49.254,vts_reward_expectancy,2022.2.4,Win32,168.2368775,Chrome,1536,864,,,a,1.0183,10,527,2,1,1,13,2,1,1,0,0,0,0,0,0,1,triangle,star,,,,,,,,,,,,,,,,,,,,,,,,,,,,,,,,,,,,,,,,,,,,,,,,,,
293053,2022-10-05_19h48.49.254,vts_reward_expectancy,2022.2.4,Win32,168.2368775,Chrome,1536,864,,,a,0.7524,10,537,2,1,2,14,0,1,1,0,0,0,0,1,0,0,triangle,circle,,,,,,,,,,,,,,,,,,,,,,,,,,,,,,,,,,,,,,,,,,,,,,,,,,
293053,2022-10-05_19h48.49.254,vts_reward_expectancy,2022.2.4,Win32,168.2368775,Chrome,1536,864,,,l,1.2302,10,547,2,1,3,15,6,1,0,0,1,0,1,0,0,0,hexagon,triangle,,,,,,,,,,,,,,,,,,,,,,,,,,,,,,,,,,,,,,,,,,,,,,,,,,
293053,2022-10-05_19h48.49.254,vts_reward_expectancy,2022.2.4,Win32,168.2368775,Chrome,1536,864,,,l,0.8341,10,557,2,1,4,16,7,1,0,0,1,0,0,1,0,0,hexagon,circle,,,,,,,,,,,,,,,,,,,,,,,,,,,,,,,,,,,,,,,,,,,,,,,,,,
293053,2022-10-05_19h48.49.254,vts_reward_expectancy,2022.2.4,Win32,168.2368775,Chrome,1536,864,,,l,0.6424,10,567,2,1,5,17,9,1,0,0,0,1,1,0,0,0,star,triangle,,,,,,,,,,,,,,,,,,,,,,,,,,,,,,,,,,,,,,,,,,,,,,,,,,
293053,2022-10-05_19h48.49.254,vts_reward_expectancy,2022.2.4,Win32,168.2368775,Chrome,1536,864,,,a,0.766,1,568,2,1,6,18,1,1,1,0,0,0,0,0,1,0,triangle,hexagon,,,,,,,,,,,,,,,,,,,,,,,,,,,,,,,,,,,,,,,,,,,,,,,,,,
293053,2022-10-05_19h48.49.254,vts_reward_expectancy,2022.2.4,Win32,168.2368775,Chrome,1536,864,,,l,1.3702,1,569,2,1,7,19,11,1,0,0,0,1,0,0,1,0,star,hexagon,,,,,,,,,,,,,,,,,,,,,,,,,,,,,,,,,,,,,,,,,,,,,,,,,,
293053,2022-10-05_19h48.49.254,vts_reward_expectancy,2022.2.4,Win32,168.2368775,Chrome,1536,864,,,a,0.8457,10,579,2,1,8,20,8,1,0,0,1,0,0,0,0,1,hexagon,star,,,,,,,,,,,,,,,,,,,,,,,,,,,,,,,,,,,,,,,,,,,,,,,,,,
293053,2022-10-05_19h48.49.254,vts_reward_expectancy,2022.2.4,Win32,168.2368775,Chrome,1536,864,,,a,1.1516,10,589,2,1,9,21,4,1,0,1,0,0,0,0,1,0,circle,hexagon,,,,,,,,,,,,,,,,,,,,,,,,,,,,,,,,,,,,,,,,,,,,,,,,,,
293053,2022-10-05_19h48.49.254,vts_reward_expectancy,2022.2.4,Win32,168.2368775,Chrome,1536,864,,,l,0.9396,10,599,2,1,10,22,3,1,0,1,0,0,1,0,0,0,circle,triangle,,,,,,,,,,,,,,,,,,,,,,,,,,,,,,,,,,,,,,,,,,,,,,,,,,
293053,2022-10-05_19h48.49.254,vts_reward_expectancy,2022.2.4,Win32,168.2368775,Chrome,1536,864,,,a,0.8303,1,600,2,1,11,23,5,1,0,1,0,0,0,0,0,1,circle,star,,,,,,,,,,,,,,,,,,,,,,,,,,,,,,,,,,,,,,,,,,,,,,,,,,
293053,2022-10-05_19h48.49.254,vts_reward_expectancy,2022.2.4,Win32,168.2368775,Chrome,1536,864,,,l,1.3934,10,610,2,2,0,24,10,1,0,0,0,1,0,1,0,0,star ,circle,,,,,,,,,,,,,,,,,,,,,,,,,,,,,,,,,,,,,,,,,,,,,,,,,,
293053,2022-10-05_19h48.49.254,vts_reward_expectancy,2022.2.4,Win32,168.2368775,Chrome,1536,864,,,a,0.9338,1,611,2,2,1,25,3,1,0,1,0,0,1,0,0,0,circle,triangle,,,,,,,,,,,,,,,,,,,,,,,,,,,,,,,,,,,,,,,,,,,,,,,,,,
293053,2022-10-05_19h48.49.254,vts_reward_expectancy,2022.2.4,Win32,168.2368775,Chrome,1536,864,,,a,1.3214,10,621,2,2,2,26,11,1,0,0,0,1,0,0,1,0,star,hexagon,,,,,,,,,,,,,,,,,,,,,,,,,,,,,,,,,,,,,,,,,,,,,,,,,,
293053,2022-10-05_19h48.49.254,vts_reward_expectancy,2022.2.4,Win32,168.2368775,Chrome,1536,864,,,a,1.8363,10,631,2,2,3,27,8,1,0,0,1,0,0,0,0,1,hexagon,star,,,,,,,,,,,,,,,,,,,,,,,,,,,,,,,,,,,,,,,,,,,,,,,,,,
293053,2022-10-05_19h48.49.254,vts_reward_expectancy,2022.2.4,Win32,168.2368775,Chrome,1536,864,,,a,1.4365,1,632,2,2,4,28,0,1,1,0,0,0,0,1,0,0,triangle,circle,,,,,,,,,,,,,,,,,,,,,,,,,,,,,,,,,,,,,,,,,,,,,,,,,,
293053,2022-10-05_19h48.49.254,vts_reward_expectancy,2022.2.4,Win32,168.2368775,Chrome,1536,864,,,a,1.5758,1,633,2,2,5,29,9,1,0,0,0,1,1,0,0,0,star,triangle,,,,,,,,,,,,,,,,,,,,,,,,,,,,,,,,,,,,,,,,,,,,,,,,,,
293053,2022-10-05_19h48.49.254,vts_reward_expectancy,2022.2.4,Win32,168.2368775,Chrome,1536,864,,,a,0.9514,10,643,2,2,6,30,5,1,0,1,0,0,0,0,0,1,circle,star,,,,,,,,,,,,,,,,,,,,,,,,,,,,,,,,,,,,,,,,,,,,,,,,,,
293053,2022-10-05_19h48.49.254,vts_reward_expectancy,2022.2.4,Win32,168.2368775,Chrome,1536,864,,,a,1.1213,10,653,2,2,7,31,1,1,1,0,0,0,0,0,1,0,triangle,hexagon,,,,,,,,,,,,,,,,,,,,,,,,,,,,,,,,,,,,,,,,,,,,,,,,,,
293053,2022-10-05_19h48.49.254,vts_reward_expectancy,2022.2.4,Win32,168.2368775,Chrome,1536,864,,,a,1.2665,10,663,2,2,8,32,4,1,0,1,0,0,0,0,1,0,circle,hexagon,,,,,,,,,,,,,,,,,,,,,,,,,,,,,,,,,,,,,,,,,,,,,,,,,,
293053,2022-10-05_19h48.49.254,vts_reward_expectancy,2022.2.4,Win32,168.2368775,Chrome,1536,864,,,l,1.194,10,673,2,2,9,33,6,1,0,0,1,0,1,0,0,0,hexagon,triangle,,,,,,,,,,,,,,,,,,,,,,,,,,,,,,,,,,,,,,,,,,,,,,,,,,
293053,2022-10-05_19h48.49.254,vts_reward_expectancy,2022.2.4,Win32,168.2368775,Chrome,1536,864,,,a,1.994,10,683,2,2,10,34,2,1,1,0,0,0,0,0,0,1,triangle,star,,,,,,,,,,,,,,,,,,,,,,,,,,,,,,,,,,,,,,,,,,,,,,,,,,
293053,2022-10-05_19h48.49.254,vts_reward_expectancy,2022.2.4,Win32,168.2368775,Chrome,1536,864,,,l,1.0178,10,693,2,2,11,35,7,1,0,0,1,0,0,1,0,0,hexagon,circle,,,,,,,,,,,,,,,,,,,,,,,,,,,,,,,,,,,,,,,,,,,,,,,,,,
293053,2022-10-05_19h48.49.254,vts_reward_expectancy,2022.2.4,Win32,168.2368775,Chrome,1536,864,,,,,,,,,,,,,,,,,,,,,,,F,174,star,0,0,,0,0,0,0,0,1,,,,,,,,,,,,,,,,,,,,,,,,,,,,,,,,,,,,,,
293053,2022-10-05_19h48.49.254,vts_reward_expectancy,2022.2.4,Win32,168.2368775,Chrome,1536,864,,,,,,,,,,,,,,,,,,,,,,,W,160,triangle,0,1,,0,1,0,1,0,1,,,,,,,,,,,,,,,,,,,,,,,,,,,,,,,,,,,,,,
293053,2022-10-05_19h48.49.254,vts_reward_expectancy,2022.2.4,Win32,168.2368775,Chrome,1536,864,,,,,,,,,,,,,,,,,,,,,,,U,132,circle,1,1,f,0,2,0,2,0,1,1.5271,,,,,,,,,,,,,,,,,,,,,,,,,,,,,,,,,,,,,
293053,2022-10-05_19h48.49.254,vts_reward_expectancy,2022.2.4,Win32,168.2368775,Chrome,1536,864,,,,,,,,,,,,,,,,,,,,,,,H,146,hexagon,0,0,f,0,3,0,3,0,1,1.2245,,,,,,,,,,,,,,,,,,,,,,,,,,,,,,,,,,,,,
293053,2022-10-05_19h48.49.254,vts_reward_expectancy,2022.2.4,Win32,168.2368775,Chrome,1536,864,,,,,,,,,,,,,,,,,,,,,,,D,125,star,0,1,,0,4,0,4,0,1,,,,,,,,,,,,,,,,,,,,,,,,,,,,,,,,,,,,,,
293053,2022-10-05_19h48.49.254,vts_reward_expectancy,2022.2.4,Win32,168.2368775,Chrome,1536,864,,,,,,,,,,,,,,,,,,,,,,,Y,139,triangle,1,1,f,0,5,0,5,0,1,1.2848,,,,,,,,,,,,,,,,,,,,,,,,,,,,,,,,,,,,,
293053,2022-10-05_19h48.49.254,vts_reward_expectancy,2022.2.4,Win32,168.2368775,Chrome,1536,864,,,,,,,,,,,,,,,,,,,,,,,S,181,circle,0,0,d,0,6,0,6,0,1,0.5765,,,,,,,,,,,,,,,,,,,,,,,,,,,,,,,,,,,,,
293053,2022-10-05_19h48.49.254,vts_reward_expectancy,2022.2.4,Win32,168.2368775,Chrome,1536,864,,,,,,,,,,,,,,,,,,,,,,,B,167,hexagon,0,1,f,0,7,0,7,0,1,2.0251,,,,,,,,,,,,,,,,,,,,,,,,,,,,,,,,,,,,,
293053,2022-10-05_19h48.49.254,vts_reward_expectancy,2022.2.4,Win32,168.2368775,Chrome,1536,864,,,,,,,,,,,,,,,,,,,,,,,F,174,star,0,1,f,0,8,0,8,0,1,1.3665,,,,,,,,,,,,,,,,,,,,,,,,,,,,,,,,,,,,,
293053,2022-10-05_19h48.49.254,vts_reward_expectancy,2022.2.4,Win32,168.2368775,Chrome,1536,864,,,,,,,,,,,,,,,,,,,,,,,W,160,circle,1,1,f,0,9,0,9,0,1,1.1423,,,,,,,,,,,,,,,,,,,,,,,,,,,,,,,,,,,,,
293053,2022-10-05_19h48.49.254,vts_reward_expectancy,2022.2.4,Win32,168.2368775,Chrome,1536,864,,,,,,,,,,,,,,,,,,,,,,,D,132,star,1,0,d,1,0,0,0,0,1,1.0311,,,,,,,,,,,,,,,,,,,,,,,,,,,,,,,,,,,,,
293053,2022-10-05_19h48.49.254,vts_reward_expectancy,2022.2.4,Win32,168.2368775,Chrome,1536,864,,,,,,,,,,,,,,,,,,,,,,,U,167,triangle,1,0,f,1,1,0,1,0,1,0.7754,,,,,,,,,,,,,,,,,,,,,,,,,,,,,,,,,,,,,
293053,2022-10-05_19h48.49.254,vts_reward_expectancy,2022.2.4,Win32,168.2368775,Chrome,1536,864,,,,,,,,,,,,,,,,,,,,,,,Y,139,circle,1,0,f,1,2,0,2,0,1,0.7991,,,,,,,,,,,,,,,,,,,,,,,,,,,,,,,,,,,,,
293053,2022-10-05_19h48.49.254,vts_reward_expectancy,2022.2.4,Win32,168.2368775,Chrome,1536,864,,,,,,,,,,,,,,,,,,,,,,,B,174,hexagon,1,0,d,1,3,0,3,0,1,0.7722,,,,,,,,,,,,,,,,,,,,,,,,,,,,,,,,,,,,,
293053,2022-10-05_19h48.49.254,vts_reward_expectancy,2022.2.4,Win32,168.2368775,Chrome,1536,864,,,,,,,,,,,,,,,,,,,,,,,H,125,star,1,0,d,1,4,0,4,0,1,0.776,,,,,,,,,,,,,,,,,,,,,,,,,,,,,,,,,,,,,
293053,2022-10-05_19h48.49.254,vts_reward_expectancy,2022.2.4,Win32,168.2368775,Chrome,1536,864,,,,,,,,,,,,,,,,,,,,,,,S,181,triangle,1,0,f,1,5,0,5,0,1,0.6849,,,,,,,,,,,,,,,,,,,,,,,,,,,,,,,,,,,,,
293053,2022-10-05_19h48.49.254,vts_reward_expectancy,2022.2.4,Win32,168.2368775,Chrome,1536,864,,,,,,,,,,,,,,,,,,,,,,,W,146,circle,1,0,f,1,6,0,6,0,1,0.5173,,,,,,,,,,,,,,,,,,,,,,,,,,,,,,,,,,,,,
293053,2022-10-05_19h48.49.254,vts_reward_expectancy,2022.2.4,Win32,168.2368775,Chrome,1536,864,,,,,,,,,,,,,,,,,,,,,,,F,160,hexagon,1,0,d,1,7,0,7,0,1,0.8058,,,,,,,,,,,,,,,,,,,,,,,,,,,,,,,,,,,,,
293053,2022-10-05_19h48.49.254,vts_reward_expectancy,2022.2.4,Win32,168.2368775,Chrome,1536,864,,,,,,,,,,,,,,,,,,,,,,,D,132,star,1,0,d,1,8,0,8,0,1,1.1714,,,,,,,,,,,,,,,,,,,,,,,,,,,,,,,,,,,,,
293053,2022-10-05_19h48.49.254,vts_reward_expectancy,2022.2.4,Win32,168.2368775,Chrome,1536,864,,,,,,,,,,,,,,,,,,,,,,,U,167,hexagon,1,0,f,1,9,0,9,0,1,1.0257,,,,,,,,,,,,,,,,,,,,,,,,,,,,,,,,,,,,,
293053,2022-10-05_19h48.49.254,vts_reward_expectancy,2022.2.4,Win32,168.2368775,Chrome,1536,864,,,,,,,,,,,,,,,,,,,,,,,H,160,triangle,2,0,,2,,,,,,,d,2.4484,0,0,0,0,1,,,,,,,,,,,,,,,,,,,,,,,,,,,,,,
293053,2022-10-05_19h48.49.254,vts_reward_expectancy,2022.2.4,Win32,168.2368775,Chrome,1536,864,,,,,,,,,,,,,,,,,,,,,,,W,132,star,1,0,,2,,,,,,,j,0.7154,1,0,1,0,1,,,,,,,,,,,,,,,,,,,,,,,,,,,,,,
293053,2022-10-05_19h48.49.254,vts_reward_expectancy,2022.2.4,Win32,168.2368775,Chrome,1536,864,,,,,,,,,,,,,,,,,,,,,,,Y,125,circle,0,0,,2,,,,,,,k,0.5897,2,0,2,0,1,,,,,,,,,,,,,,,,,,,,,,,,,,,,,,
293053,2022-10-05_19h48.49.254,vts_reward_expectancy,2022.2.4,Win32,168.2368775,Chrome,1536,864,,,,,,,,,,,,,,,,,,,,,,,S,139,hexagon,1,1,,2,,,,,,,j,0.6252,3,0,3,0,1,,,,,,,,,,,,,,,,,,,,,,,,,,,,,,
293053,2022-10-05_19h48.49.254,vts_reward_expectancy,2022.2.4,Win32,168.2368775,Chrome,1536,864,,,,,,,,,,,,,,,,,,,,,,,U,167,triangle,0,0,,2,,,,,,,j,0.4513,4,0,4,0,1,,,,,,,,,,,,,,,,,,,,,,,,,,,,,,
293053,2022-10-05_19h48.49.254,vts_reward_expectancy,2022.2.4,Win32,168.2368775,Chrome,1536,864,,,,,,,,,,,,,,,,,,,,,,,B,181,star,0,1,,2,,,,,,,j,1.7451,5,0,5,0,1,,,,,,,,,,,,,,,,,,,,,,,,,,,,,,
293053,2022-10-05_19h48.49.254,vts_reward_expectancy,2022.2.4,Win32,168.2368775,Chrome,1536,864,,,,,,,,,,,,,,,,,,,,,,,D,174,circle,0,1,,2,,,,,,,j,1.7701,6,0,6,0,1,,,,,,,,,,,,,,,,,,,,,,,,,,,,,,
293053,2022-10-05_19h48.49.254,vts_reward_expectancy,2022.2.4,Win32,168.2368775,Chrome,1536,864,,,,,,,,,,,,,,,,,,,,,,,F,146,hexagon,0,1,,2,,,,,,,,,7,0,7,0,1,,,,,,,,,,,,,,,,,,,,,,,,,,,,,,
293053,2022-10-05_19h48.49.254,vts_reward_expectancy,2022.2.4,Win32,168.2368775,Chrome,1536,864,,,,,,,,,,,,,,,,,,,,,,,H,160,hexagon,0,1,,2,,,,,,,j,0.9331,8,0,8,0,1,,,,,,,,,,,,,,,,,,,,,,,,,,,,,,
293053,2022-10-05_19h48.49.254,vts_reward_expectancy,2022.2.4,Win32,168.2368775,Chrome,1536,864,,,,,,,,,,,,,,,,,,,,,,,W,132,triangle,0,1,,2,,,,,,,k,0.5756,9,0,9,0,1,,,,,,,,,,,,,,,,,,,,,,,,,,,,,,
293053,2022-10-05_19h48.49.254,vts_reward_expectancy,2022.2.4,Win32,168.2368775,Chrome,1536,864,,,,,,,,,,,,,,,,,,,,,,,D,174,circle,1,1,,3,,,,,,,k,1.8426,0,0,0,0,1,,,,,,,,,,,,,,,,,,,,,,,,,,,,,,
293053,2022-10-05_19h48.49.254,vts_reward_expectancy,2022.2.4,Win32,168.2368775,Chrome,1536,864,,,,,,,,,,,,,,,,,,,,,,,F,139,star,1,0,,3,,,,,,,j,1.1758,1,0,1,0,1,,,,,,,,,,,,,,,,,,,,,,,,,,,,,,
293053,2022-10-05_19h48.49.254,vts_reward_expectancy,2022.2.4,Win32,168.2368775,Chrome,1536,864,,,,,,,,,,,,,,,,,,,,,,,B,146,hexagon,1,0,,3,,,,,,,j,0.821,2,0,2,0,1,,,,,,,,,,,,,,,,,,,,,,,,,,,,,,
293053,2022-10-05_19h48.49.254,vts_reward_expectancy,2022.2.4,Win32,168.2368775,Chrome,1536,864,,,,,,,,,,,,,,,,,,,,,,,H,132,triangle,1,0,,3,,,,,,,j,0.7938,3,0,3,0,1,,,,,,,,,,,,,,,,,,,,,,,,,,,,,,
293053,2022-10-05_19h48.49.254,vts_reward_expectancy,2022.2.4,Win32,168.2368775,Chrome,1536,864,,,,,,,,,,,,,,,,,,,,,,,Y,181,circle,1,0,,3,,,,,,,k,0.5997,4,0,4,0,1,,,,,,,,,,,,,,,,,,,,,,,,,,,,,,
293053,2022-10-05_19h48.49.254,vts_reward_expectancy,2022.2.4,Win32,168.2368775,Chrome,1536,864,,,,,,,,,,,,,,,,,,,,,,,S,160,star,1,0,,3,,,,,,,k,0.6151,5,0,5,0,1,,,,,,,,,,,,,,,,,,,,,,,,,,,,,,
293053,2022-10-05_19h48.49.254,vts_reward_expectancy,2022.2.4,Win32,168.2368775,Chrome,1536,864,,,,,,,,,,,,,,,,,,,,,,,U,167,hexagon,1,0,,3,,,,,,,k,0.6301,6,0,6,0,1,,,,,,,,,,,,,,,,,,,,,,,,,,,,,,
293053,2022-10-05_19h48.49.254,vts_reward_expectancy,2022.2.4,Win32,168.2368775,Chrome,1536,864,,,,,,,,,,,,,,,,,,,,,,,W,125,triangle,1,0,,3,,,,,,,j,0.566,7,0,7,0,1,,,,,,,,,,,,,,,,,,,,,,,,,,,,,,
293053,2022-10-05_19h48.49.254,vts_reward_expectancy,2022.2.4,Win32,168.2368775,Chrome,1536,864,,,,,,,,,,,,,,,,,,,,,,,D,174,star,1,0,,3,,,,,,,k,0.6546,8,0,8,0,1,,,,,,,,,,,,,,,,,,,,,,,,,,,,,,
293053,2022-10-05_19h48.49.254,vts_reward_expectancy,2022.2.4,Win32,168.2368775,Chrome,1536,864,,,,,,,,,,,,,,,,,,,,,,,F,139,hexagon,1,0,,3,,,,,,,j,0.6572,9,0,9,0,1,,,,,,,,,,,,,,,,,,,,,,,,,,,,,,
293053,2022-10-05_19h48.49.254,vts_reward_expectancy,2022.2.4,Win32,168.2368775,Chrome,1536,864,,,,,0,693,,,,,,,,,,,,,,,,,Y,160,star,-1,0,,4,,,,,,,,,,,,,,-1,no_choice,NA,,vtsPrac,0,0,0,0,1,,,,,,,,,,,,,,,,,,,,
293053,2022-10-05_19h48.49.254,vts_reward_expectancy,2022.2.4,Win32,168.2368775,Chrome,1536,864,,,,,0,693,,,,,,,,,,,,,,,,,F,167,circle,0,0,,4,,,,,,,,,,,,,,switch,number,NA,j,vtsPrac,1,0,1,0,1,0.8252,,,,,,,,,,,,,,,,,,,
293053,2022-10-05_19h48.49.254,vts_reward_expectancy,2022.2.4,Win32,168.2368775,Chrome,1536,864,,,,,0,693,,,,,,,,,,,,,,,,,U,146,star,0,1,,4,,,,,,,,,,,,,,repeat,number,NA,k,vtsPrac,2,0,2,0,1,0.8862,,,,,,,,,,,,,,,,,,,
293053,2022-10-05_19h48.49.254,vts_reward_expectancy,2022.2.4,Win32,168.2368775,Chrome,1536,864,,,,,0,693,,,,,,,,,,,,,,,,,D,139,circle,1,1,,4,,,,,,,,,,,,,,repeat,number,numRpt,j,vtsPrac,3,0,3,0,1,0.6959,,,,,,,,,,,,,,,,,,,
293053,2022-10-05_19h48.49.254,vts_reward_expectancy,2022.2.4,Win32,168.2368775,Chrome,1536,864,,,,,0,693,,,,,,,,,,,,,,,,,Y,160,hexagon,0,0,,4,,,,,,,,,,,,,,repeat,number,NA,j,vtsPrac,4,0,4,0,1,0.7712,,,,,,,,,,,,,,,,,,,
293053,2022-10-05_19h48.49.254,vts_reward_expectancy,2022.2.4,Win32,168.2368775,Chrome,1536,864,,,,,0,693,,,,,,,,,,,,,,,,,F,167,triangle,0,1,,4,,,,,,,,,,,,,,repeat,number,NA,j,vtsPrac,5,0,5,0,1,1.1151,,,,,,,,,,,,,,,,,,,
293053,2022-10-05_19h48.49.254,vts_reward_expectancy,2022.2.4,Win32,168.2368775,Chrome,1536,864,,,,,0,693,,,,,,,,,,,,,,,,,U,146,star,0,1,,4,,,,,,,,,,,,,,repeat,number,NA,k,vtsPrac,6,0,6,0,1,1.1417,,,,,,,,,,,,,,,,,,,
293053,2022-10-05_19h48.49.254,vts_reward_expectancy,2022.2.4,Win32,168.2368775,Chrome,1536,864,,,,,0,693,,,,,,,,,,,,,,,,,D,139,hexagon,1,1,,4,,,,,,,,,,,,,,repeat,number,numRpt,j,vtsPrac,7,0,7,0,1,1.2076,,,,,,,,,,,,,,,,,,,
293053,2022-10-05_19h48.49.254,vts_reward_expectancy,2022.2.4,Win32,168.2368775,Chrome,1536,864,,,,,0,693,,,,,,,,,,,,,,,,,S,160,star,0,0,,4,,,,,,,,,,,,,,repeat,number,NA,j,vtsPrac,8,0,8,0,1,1.0049,,,,,,,,,,,,,,,,,,,
293053,2022-10-05_19h48.49.254,vts_reward_expectancy,2022.2.4,Win32,168.2368775,Chrome,1536,864,,,,,0,693,,,,,,,,,,,,,,,,,D,132,hexagon,1,1,,4,,,,,,,,,,,,,,switch,letter,lettSwt,d,vtsPrac,9,0,9,0,1,1.0351,,,,,,,,,,,,,,,,,,,
293053,2022-10-05_19h48.49.254,vts_reward_expectancy,2022.2.4,Win32,168.2368775,Chrome,1536,864,,,,,0,693,,,,,,,,,,,,,,,,,F,139,star,1,0,,4,,,,,,,,,,,,,,repeat,letter,lettRpt,d,vtsPrac,10,0,10,0,1,1.0292,,,,,,,,,,,,,,,,,,,
293053,2022-10-05_19h48.49.254,vts_reward_expectancy,2022.2.4,Win32,168.2368775,Chrome,1536,864,,,,,0,693,,,,,,,,,,,,,,,,,H,174,triangle,1,0,,4,,,,,,,,,,,,,,switch,number,numSwt,k,vtsPrac,11,0,11,0,1,1.1326,,,,,,,,,,,,,,,,,,,
293053,2022-10-05_19h48.49.254,vts_reward_expectancy,2022.2.4,Win32,168.2368775,Chrome,1536,864,,,,,0,693,,,,,,,,,,,,,,,,,W,132,star,1,0,,4,,,,,,,,,,,,,,repeat,number,numRpt,j,vtsPrac,12,0,12,0,1,1.4562,,,,,,,,,,,,,,,,,,,
293053,2022-10-05_19h48.49.254,vts_reward_expectancy,2022.2.4,Win32,168.2368775,Chrome,1536,864,,,,,0,693,,,,,,,,,,,,,,,,,B,160,circle,1,0,,4,,,,,,,,,,,,,,repeat,number,numRpt,k,vtsPrac,13,0,13,0,1,0.9745,,,,,,,,,,,,,,,,,,,
293053,2022-10-05_19h48.49.254,vts_reward_expectancy,2022.2.4,Win32,168.2368775,Chrome,1536,864,,,,,0,693,,,,,,,,,,,,,,,,,S,139,star,0,0,,4,,,,,,,,,,,,,,repeat,number,NA,k,vtsPrac,14,0,14,0,1,1.8292,,,,,,,,,,,,,,,,,,,
293053,2022-10-05_19h48.49.254,vts_reward_expectancy,2022.2.4,Win32,168.2368775,Chrome,1536,864,,,,,0,693,,,,,,,,,,,,,,,,,F,167,triangle,0,1,,4,,,,,,,,,,,,,,switch,letter,NA,f,vtsPrac,15,0,15,0,1,0.897,,,,,,,,,,,,,,,,,,,
293053,2022-10-05_19h48.49.254,vts_reward_expectancy,2022.2.4,Win32,168.2368775,Chrome,1536,864,,,,,0,693,,,,,,,,,,,,,,,,,D,125,star,1,1,,5,,,,,,,,,,,,,,switch,number,numSwt,j,vtsPrac,0,0,0,0,1,0.9147,,,,,,,,,,,,,,,,,,,
293053,2022-10-05_19h48.49.254,vts_reward_expectancy,2022.2.4,Win32,168.2368775,Chrome,1536,864,,,,,0,693,,,,,,,,,,,,,,,,,U,146,circle,1,0,,5,,,,,,,,,,,,,,repeat,number,numRpt,j,vtsPrac,1,0,1,0,1,0.9746,,,,,,,,,,,,,,,,,,,
293053,2022-10-05_19h48.49.254,vts_reward_expectancy,2022.2.4,Win32,168.2368775,Chrome,1536,864,,,,,0,693,,,,,,,,,,,,,,,,,S,181,star,1,0,,5,,,,,,,,,,,,,,switch,letter,lettSwt,f,vtsPrac,2,0,2,0,1,1.1206,,,,,,,,,,,,,,,,,,,
293053,2022-10-05_19h48.49.254,vts_reward_expectancy,2022.2.4,Win32,168.2368775,Chrome,1536,864,,,,,0,693,,,,,,,,,,,,,,,,,Y,167,circle,1,0,,5,,,,,,,,,,,,,,switch,number,numSwt,k,vtsPrac,3,0,3,0,1,1.3036,,,,,,,,,,,,,,,,,,,
293053,2022-10-05_19h48.49.254,vts_reward_expectancy,2022.2.4,Win32,168.2368775,Chrome,1536,864,,,,,0,693,,,,,,,,,,,,,,,,,D,125,triangle,1,0,,5,,,,,,,,,,,,,,repeat,number,numRpt,j,vtsPrac,4,0,4,0,1,1.0051,,,,,,,,,,,,,,,,,,,
293053,2022-10-05_19h48.49.254,vts_reward_expectancy,2022.2.4,Win32,168.2368775,Chrome,1536,864,,,,,0,693,,,,,,,,,,,,,,,,,U,146,star,0,0,,5,,,,,,,,,,,,,,repeat,number,NA,k,vtsPrac,5,0,5,0,1,1.1747,,,,,,,,,,,,,,,,,,,
293053,2022-10-05_19h48.49.254,vts_reward_expectancy,2022.2.4,Win32,168.2368775,Chrome,1536,864,,,,,0,693,,,,,,,,,,,,,,,,,S,181,star,1,1,,5,,,,,,,,,,,,,,repeat,number,numRpt,k,vtsPrac,6,0,6,0,1,0.9413,,,,,,,,,,,,,,,,,,,
293053,2022-10-05_19h48.49.254,vts_reward_expectancy,2022.2.4,Win32,168.2368775,Chrome,1536,864,,,,,0,693,,,,,,,,,,,,,,,,,Y,167,hexagon,1,0,,5,,,,,,,,,,,,,,repeat,number,numRpt,k,vtsPrac,7,0,7,0,1,1.0316,,,,,,,,,,,,,,,,,,,
293053,2022-10-05_19h48.49.254,vts_reward_expectancy,2022.2.4,Win32,168.2368775,Chrome,1536,864,,,,,0,693,,,,,,,,,,,,,,,,,U,146,hexagon,1,0,,5,,,,,,,,,,,,,,repeat,number,numRpt,j,vtsPrac,8,0,8,0,1,1.4593,,,,,,,,,,,,,,,,,,,
293053,2022-10-05_19h48.49.254,vts_reward_expectancy,2022.2.4,Win32,168.2368775,Chrome,1536,864,,,,,0,693,,,,,,,,,,,,,,,,,W,174,star,1,0,,5,,,,,,,,,,,,,,repeat,number,numRpt,k,vtsPrac,9,0,9,0,1,0.9715,,,,,,,,,,,,,,,,,,,
293053,2022-10-05_19h48.49.254,vts_reward_expectancy,2022.2.4,Win32,168.2368775,Chrome,1536,864,,,,,0,693,,,,,,,,,,,,,,,,,Y,181,circle,1,0,,5,,,,,,,,,,,,,,repeat,number,numRpt,k,vtsPrac,10,0,10,0,1,1.0372,,,,,,,,,,,,,,,,,,,
293053,2022-10-05_19h48.49.254,vts_reward_expectancy,2022.2.4,Win32,168.2368775,Chrome,1536,864,,,,,0,693,,,,,,,,,,,,,,,,,H,132,star,1,0,,5,,,,,,,,,,,,,,repeat,number,numRpt,j,vtsPrac,11,0,11,0,1,1.0844,,,,,,,,,,,,,,,,,,,
293053,2022-10-05_19h48.49.254,vts_reward_expectancy,2022.2.4,Win32,168.2368775,Chrome,1536,864,,,,,0,693,,,,,,,,,,,,,,,,,H,132,hexagon,1,0,,5,,,,,,,,,,,,,,repeat,number,numRpt,j,vtsPrac,12,0,12,0,1,0.8668,,,,,,,,,,,,,,,,,,,
293053,2022-10-05_19h48.49.254,vts_reward_expectancy,2022.2.4,Win32,168.2368775,Chrome,1536,864,,,,,0,693,,,,,,,,,,,,,,,,,Y,125,star,1,0,,5,,,,,,,,,,,,,,repeat,number,numRpt,j,vtsPrac,13,0,13,0,1,0.8561,,,,,,,,,,,,,,,,,,,
293053,2022-10-05_19h48.49.254,vts_reward_expectancy,2022.2.4,Win32,168.2368775,Chrome,1536,864,,,,,0,693,,,,,,,,,,,,,,,,,D,146,hexagon,1,0,,5,,,,,,,,,,,,,,switch,letter,lettSwt,d,vtsPrac,14,0,14,0,1,0.9216,,,,,,,,,,,,,,,,,,,
293053,2022-10-05_19h48.49.254,vts_reward_expectancy,2022.2.4,Win32,168.2368775,Chrome,1536,864,,,,,0,693,,,,,,,,,,,,,,,,,S,181,star,1,0,,5,,,,,,,,,,,,,,switch,number,numSwt,k,vtsPrac,15,0,15,0,1,1.141,,,,,,,,,,,,,,,,,,,
293053,2022-10-05_19h48.49.254,vts_reward_expectancy,2022.2.4,Win32,168.2368775,Chrome,1536,864,,,,,,,,,,,,,,,,,,,,,,,,,,,,,,,,,,,,,,,,,,,,,,,,,,,,,,,,,,,,,,,,,,,,,,,,
293053,2022-10-05_19h48.49.254,vts_reward_expectancy,2022.2.4,Win32,168.2368775,Chrome,1536,864,,,,,,,,,,,,,,,,,,,,,,,,,,,,,,,,,,,,,,,,,,,,,,,,,,,,,,,,,,,,,,,,,,,,,,,,
293053,2022-10-05_19h48.49.254,vts_reward_expectancy,2022.2.4,Win32,168.2368775,Chrome,1536,864,,,,,0,693,,,,,,,,,,,,,,,,,H,160,triangle,0,0,,,,,,,,,,,,,,,,repeat,number,NA,j,noRew,,,,,,1.0809,0,0,0,0,0,1,,,,,,,,,,,,,
293053,2022-10-05_19h48.49.254,vts_reward_expectancy,2022.2.4,Win32,168.2368775,Chrome,1536,864,,,,,0,693,,,,,,,,,,,,,,,,,U,181,star,1,1,,,,,,,,,,,,,,,,repeat,number,numRpt,k,noRew,,,,,,1.1466,0,1,0,1,0,1,,,,,,,,,,,,,
293053,2022-10-05_19h48.49.254,vts_reward_expectancy,2022.2.4,Win32,168.2368775,Chrome,1536,864,,,,,0,693,,,,,,,,,,,,,,,,,B,125,triangle,1,0,,,,,,,,,,,,,,,,repeat,number,numRpt,j,noRew,,,,,,0.8598,0,2,0,2,0,1,,,,,,,,,,,,,
293053,2022-10-05_19h48.49.254,vts_reward_expectancy,2022.2.4,Win32,168.2368775,Chrome,1536,864,,,,,0,693,,,,,,,,,,,,,,,,,D,139,star,1,0,,,,,,,,,,,,,,,,repeat,number,numRpt,j,noRew,,,,,,0.7501,0,3,0,3,0,1,,,,,,,,,,,,,
293053,2022-10-05_19h48.49.254,vts_reward_expectancy,2022.2.4,Win32,168.2368775,Chrome,1536,864,,,,,0,693,,,,,,,,,,,,,,,,,H,160,circle,0,0,,,,,,,,,,,,,,,,repeat,number,NA,j,noRew,,,,,,1.0537,0,4,0,4,0,1,,,,,,,,,,,,,
293053,2022-10-05_19h48.49.254,vts_reward_expectancy,2022.2.4,Win32,168.2368775,Chrome,1536,864,,,,,0,693,,,,,,,,,,,,,,,,,U,181,triangle,1,1,,,,,,,,,,,,,,,,repeat,number,numRpt,k,noRew,,,,,,1.0055,0,5,0,5,0,1,,,,,,,,,,,,,
293053,2022-10-05_19h48.49.254,vts_reward_expectancy,2022.2.4,Win32,168.2368775,Chrome,1536,864,,,,,0,693,,,,,,,,,,,,,,,,,B,125,triangle,1,0,,,,,,,,,,,,,,,,repeat,number,numRpt,j,noRew,,,,,,0.9989,0,6,0,6,0,1,,,,,,,,,,,,,
293053,2022-10-05_19h48.49.254,vts_reward_expectancy,2022.2.4,Win32,168.2368775,Chrome,1536,864,,,,,0,693,,,,,,,,,,,,,,,,,D,139,star,1,0,,,,,,,,,,,,,,,,repeat,number,numRpt,j,noRew,,,,,,1.0306,0,7,0,7,0,1,,,,,,,,,,,,,
293053,2022-10-05_19h48.49.254,vts_reward_expectancy,2022.2.4,Win32,168.2368775,Chrome,1536,864,,,,,0,693,,,,,,,,,,,,,,,,,U,167,star,1,0,,,,,,,,,,,,,,,,repeat,number,numRpt,k,noRew,,,,,,1.1415,0,8,0,8,0,1,,,,,,,,,,,,,
293053,2022-10-05_19h48.49.254,vts_reward_expectancy,2022.2.4,Win32,168.2368775,Chrome,1536,864,,,,,0,693,,,,,,,,,,,,,,,,,Y,125,triangle,1,0,,,,,,,,,,,,,,,,repeat,number,numRpt,j,noRew,,,,,,0.8909,0,9,0,9,0,1,,,,,,,,,,,,,
293053,2022-10-05_19h48.49.254,vts_reward_expectancy,2022.2.4,Win32,168.2368775,Chrome,1536,864,,,,,0,693,,,,,,,,,,,,,,,,,S,146,hexagon,1,0,,,,,,,,,,,,,,,,switch,letter,lettSwt,f,noRew,,,,,,0.9807,0,10,0,10,0,1,,,,,,,,,,,,,
293053,2022-10-05_19h48.49.254,vts_reward_expectancy,2022.2.4,Win32,168.2368775,Chrome,1536,864,,,,,0,693,,,,,,,,,,,,,,,,,D,132,triangle,1,0,,,,,,,,,,,,,,,,switch,number,numSwt,j,noRew,,,,,,0.8598,0,11,0,11,0,1,,,,,,,,,,,,,
293053,2022-10-05_19h48.49.254,vts_reward_expectancy,2022.2.4,Win32,168.2368775,Chrome,1536,864,,,,,0,693,,,,,,,,,,,,,,,,,D,160,circle,1,0,,,,,,,,,,,,,,,,switch,letter,lettSwt,d,noRew,,,,,,1.4296,0,12,0,12,0,1,,,,,,,,,,,,,
293053,2022-10-05_19h48.49.254,vts_reward_expectancy,2022.2.4,Win32,168.2368775,Chrome,1536,864,,,,,0,693,,,,,,,,,,,,,,,,,B,167,hexagon,1,0,,,,,,,,,,,,,,,,switch,number,numSwt,k,noRew,,,,,,0.9381,0,13,0,13,0,1,,,,,,,,,,,,,
293053,2022-10-05_19h48.49.254,vts_reward_expectancy,2022.2.4,Win32,168.2368775,Chrome,1536,864,,,,,0,693,,,,,,,,,,,,,,,,,Y,132,hexagon,1,0,,,,,,,,,,,,,,,,repeat,number,numRpt,j,noRew,,,,,,1.1449,0,14,0,14,0,1,,,,,,,,,,,,,
293053,2022-10-05_19h48.49.254,vts_reward_expectancy,2022.2.4,Win32,168.2368775,Chrome,1536,864,,,,,0,693,,,,,,,,,,,,,,,,,S,139,circle,1,0,,,,,,,,,,,,,,,,switch,letter,lettSwt,f,noRew,,,,,,0.8916,0,15,0,15,0,1,,,,,,,,,,,,,
293053,2022-10-05_19h48.49.254,vts_reward_expectancy,2022.2.4,Win32,168.2368775,Chrome,1536,864,,,,,0,693,,,,,,,,,,,,,,,,,S,132,circle,1,0,,,,,,,,,,,,,,,,switch,number,numSwt,j,noRew,,,,,,2.135,0,16,0,16,0,1,,,,,,,,,,,,,
293053,2022-10-05_19h48.49.254,vts_reward_expectancy,2022.2.4,Win32,168.2368775,Chrome,1536,864,,,,,0,693,,,,,,,,,,,,,,,,,Y,167,triangle,1,0,,,,,,,,,,,,,,,,repeat,number,numRpt,k,noRew,,,,,,1.0318,0,17,0,17,0,1,,,,,,,,,,,,,
293053,2022-10-05_19h48.49.254,vts_reward_expectancy,2022.2.4,Win32,168.2368775,Chrome,1536,864,,,,,0,693,,,,,,,,,,,,,,,,,U,181,hexagon,1,0,,,,,,,,,,,,,,,,switch,letter,lettSwt,f,noRew,,,,,,0.9805,0,18,0,18,0,1,,,,,,,,,,,,,
293053,2022-10-05_19h48.49.254,vts_reward_expectancy,2022.2.4,Win32,168.2368775,Chrome,1536,864,,,,,0,693,,,,,,,,,,,,,,,,,H,146,triangle,1,0,,,,,,,,,,,,,,,,repeat,letter,lettRpt,d,noRew,,,,,,1.1749,0,19,0,19,0,1,,,,,,,,,,,,,
293053,2022-10-05_19h48.49.254,vts_reward_expectancy,2022.2.4,Win32,168.2368775,Chrome,1536,864,,,,,0,693,,,,,,,,,,,,,,,,,U,167,star,1,0,,,,,,,,,,,,,,,,repeat,letter,lettRpt,f,noRew,,,,,,1.1081,0,20,0,20,0,1,,,,,,,,,,,,,
293053,2022-10-05_19h48.49.254,vts_reward_expectancy,2022.2.4,Win32,168.2368775,Chrome,1536,864,,,,,0,693,,,,,,,,,,,,,,,,,Y,125,triangle,1,0,,,,,,,,,,,,,,,,switch,number,numSwt,j,noRew,,,,,,1.6842,0,21,0,21,0,1,,,,,,,,,,,,,
293053,2022-10-05_19h48.49.254,vts_reward_expectancy,2022.2.4,Win32,168.2368775,Chrome,1536,864,,,,,0,693,,,,,,,,,,,,,,,,,D,160,circle,1,0,,,,,,,,,,,,,,,,repeat,number,numRpt,k,noRew,,,,,,1.1145,0,22,0,22,0,1,,,,,,,,,,,,,
293053,2022-10-05_19h48.49.254,vts_reward_expectancy,2022.2.4,Win32,168.2368775,Chrome,1536,864,,,,,0,693,,,,,,,,,,,,,,,,,F,181,star,1,0,,,,,,,,,,,,,,,,switch,letter,lettSwt,d,noRew,,,,,,1.524,0,23,0,23,0,1,,,,,,,,,,,,,
293053,2022-10-05_19h48.49.254,vts_reward_expectancy,2022.2.4,Win32,168.2368775,Chrome,1536,864,,,,,0,693,,,,,,,,,,,,,,,,,B,174,circle,1,0,,,,,,,,,,,,,,,,switch,number,numSwt,k,noRew,,,,,,1.1145,0,24,0,24,0,1,,,,,,,,,,,,,
293053,2022-10-05_19h48.49.254,vts_reward_expectancy,2022.2.4,Win32,168.2368775,Chrome,1536,864,,,,,0,693,,,,,,,,,,,,,,,,,D,125,hexagon,1,0,,,,,,,,,,,,,,,,repeat,number,numRpt,j,noRew,,,,,,1.2293,0,25,0,25,0,1,,,,,,,,,,,,,
293053,2022-10-05_19h48.49.254,vts_reward_expectancy,2022.2.4,Win32,168.2368775,Chrome,1536,864,,,,,0,693,,,,,,,,,,,,,,,,,S,160,star,1,0,,,,,,,,,,,,,,,,switch,letter,lettSwt,f,noRew,,,,,,1.4841,0,26,0,26,0,1,,,,,,,,,,,,,
293053,2022-10-05_19h48.49.254,vts_reward_expectancy,2022.2.4,Win32,168.2368775,Chrome,1536,864,,,,,0,693,,,,,,,,,,,,,,,,,H,181,triangle,1,0,,,,,,,,,,,,,,,,switch,number,numSwt,k,noRew,,,,,,1.5143,0,27,0,27,0,1,,,,,,,,,,,,,
293053,2022-10-05_19h48.49.254,vts_reward_expectancy,2022.2.4,Win32,168.2368775,Chrome,1536,864,,,,,0,693,,,,,,,,,,,,,,,,,B,132,star,1,0,,,,,,,,,,,,,,,,switch,letter,lettSwt,d,noRew,,,,,,1.2317,0,28,0,28,0,1,,,,,,,,,,,,,
293053,2022-10-05_19h48.49.254,vts_reward_expectancy,2022.2.4,Win32,168.2368775,Chrome,1536,864,,,,,0,693,,,,,,,,,,,,,,,,,U,139,circle,1,0,,,,,,,,,,,,,,,,switch,number,numSwt,j,noRew,,,,,,1.1996,0,29,0,29,0,1,,,,,,,,,,,,,
293053,2022-10-05_19h48.49.254,vts_reward_expectancy,2022.2.4,Win32,168.2368775,Chrome,1536,864,,,,,0,693,,,,,,,,,,,,,,,,,D,167,triangle,1,0,,,,,,,,,,,,,,,,repeat,number,numRpt,k,noRew,,,,,,1.0594,0,30,0,30,0,1,,,,,,,,,,,,,
293053,2022-10-05_19h48.49.254,vts_reward_expectancy,2022.2.4,Win32,168.2368775,Chrome,1536,864,,,,,0,693,,,,,,,,,,,,,,,,,F,160,star,1,0,,,,,,,,,,,,,,,,repeat,number,numRpt,k,noRew,,,,,,1.1996,0,31,0,31,0,1,,,,,,,,,,,,,
293053,2022-10-05_19h48.49.254,vts_reward_expectancy,2022.2.4,Win32,168.2368775,Chrome,1536,864,,,,,0,693,,,,,,,,,,,,,,,,,B,125,star,1,0,,,,,,,,,,,,,,,,repeat,number,numRpt,j,noRew,,,,,,1.0012,0,32,0,32,0,1,,,,,,,,,,,,,
293053,2022-10-05_19h48.49.254,vts_reward_expectancy,2022.2.4,Win32,168.2368775,Chrome,1536,864,,,,,0,693,,,,,,,,,,,,,,,,,U,132,hexagon,1,0,,,,,,,,,,,,,,,,repeat,number,numRpt,j,noRew,,,,,,1.0904,0,33,0,33,0,1,,,,,,,,,,,,,
293053,2022-10-05_19h48.49.254,vts_reward_expectancy,2022.2.4,Win32,168.2368775,Chrome,1536,864,,,,,0,693,,,,,,,,,,,,,,,,,S,139,star,1,0,,,,,,,,,,,,,,,,repeat,number,numRpt,j,noRew,,,,,,1.3141,0,34,0,34,0,1,,,,,,,,,,,,,
293053,2022-10-05_19h48.49.254,vts_reward_expectancy,2022.2.4,Win32,168.2368775,Chrome,1536,864,,,,,0,693,,,,,,,,,,,,,,,,,W,167,circle,1,0,,,,,,,,,,,,,,,,repeat,number,numRpt,k,noRew,,,,,,1.308,0,35,0,35,0,1,,,,,,,,,,,,,
293053,2022-10-05_19h48.49.254,vts_reward_expectancy,2022.2.4,Win32,168.2368775,Chrome,1536,864,,,,,0,693,,,,,,,,,,,,,,,,,W,125,hexagon,1,0,,,,,,,,,,,,,,,,switch,letter,lettSwt,f,noRew,,,,,,1.1508,0,36,0,36,0,1,,,,,,,,,,,,,
293053,2022-10-05_19h48.49.254,vts_reward_expectancy,2022.2.4,Win32,168.2368775,Chrome,1536,864,,,,,0,693,,,,,,,,,,,,,,,,,U,160,circle,1,0,,,,,,,,,,,,,,,,repeat,letter,lettRpt,f,noRew,,,,,,1.087,0,37,0,37,0,1,,,,,,,,,,,,,
293053,2022-10-05_19h48.49.254,vts_reward_expectancy,2022.2.4,Win32,168.2368775,Chrome,1536,864,,,,,0,693,,,,,,,,,,,,,,,,,Y,167,circle,1,0,,,,,,,,,,,,,,,,switch,number,numSwt,k,noRew,,,,,,1.2531,0,38,0,38,0,1,,,,,,,,,,,,,
293053,2022-10-05_19h48.49.254,vts_reward_expectancy,2022.2.4,Win32,168.2368775,Chrome,1536,864,,,,,0,693,,,,,,,,,,,,,,,,,D,174,hexagon,1,0,,,,,,,,,,,,,,,,switch,letter,lettSwt,d,noRew,,,,,,1.0666,0,39,0,39,0,1,,,,,,,,,,,,,
293053,2022-10-05_19h48.49.254,vts_reward_expectancy,2022.2.4,Win32,168.2368775,Chrome,1536,864,,,,,0,693,,,,,,,,,,,,,,,,,H,160,triangle,1,0,,,,,,,,,,,,,,,,repeat,letter,lettRpt,d,noRew,,,,,,1.1412,0,40,0,40,0,1,,,,,,,,,,,,,
293053,2022-10-05_19h48.49.254,vts_reward_expectancy,2022.2.4,Win32,168.2368775,Chrome,1536,864,,,,,0,693,,,,,,,,,,,,,,,,,Y,146,star,1,0,,,,,,,,,,,,,,,,repeat,letter,lettRpt,f,noRew,,,,,,1.0323,0,41,0,41,0,1,,,,,,,,,,,,,
293053,2022-10-05_19h48.49.254,vts_reward_expectancy,2022.2.4,Win32,168.2368775,Chrome,1536,864,,,,,0,693,,,,,,,,,,,,,,,,,U,167,triangle,1,0,,,,,,,,,,,,,,,,repeat,letter,lettRpt,f,noRew,,,,,,1.0017,0,42,0,42,0,1,,,,,,,,,,,,,
293053,2022-10-05_19h48.49.254,vts_reward_expectancy,2022.2.4,Win32,168.2368775,Chrome,1536,864,,,,,0,693,,,,,,,,,,,,,,,,,W,174,star,1,0,,,,,,,,,,,,,,,,repeat,letter,lettRpt,f,noRew,,,,,,0.8605,0,43,0,43,0,1,,,,,,,,,,,,,
293053,2022-10-05_19h48.49.254,vts_reward_expectancy,2022.2.4,Win32,168.2368775,Chrome,1536,864,,,,,0,693,,,,,,,,,,,,,,,,,F,125,star,1,0,,,,,,,,,,,,,,,,repeat,letter,lettRpt,d,noRew,,,,,,1.0056,0,44,0,44,0,1,,,,,,,,,,,,,
293053,2022-10-05_19h48.49.254,vts_reward_expectancy,2022.2.4,Win32,168.2368775,Chrome,1536,864,,,,,0,693,,,,,,,,,,,,,,,,,B,132,circle,1,0,,,,,,,,,,,,,,,,repeat,letter,lettRpt,d,noRew,,,,,,0.8024,0,45,0,45,0,1,,,,,,,,,,,,,
293053,2022-10-05_19h48.49.254,vts_reward_expectancy,2022.2.4,Win32,168.2368775,Chrome,1536,864,,,,,0,693,,,,,,,,,,,,,,,,,H,160,star,1,0,,,,,,,,,,,,,,,,switch,number,numSwt,k,noRew,,,,,,0.999,0,46,0,46,0,1,,,,,,,,,,,,,
293053,2022-10-05_19h48.49.254,vts_reward_expectancy,2022.2.4,Win32,168.2368775,Chrome,1536,864,,,,,0,693,,,,,,,,,,,,,,,,,U,181,triangle,1,0,,,,,,,,,,,,,,,,switch,letter,lettSwt,f,noRew,,,,,,0.9773,0,47,0,47,0,1,,,,,,,,,,,,,
293053,2022-10-05_19h48.49.254,vts_reward_expectancy,2022.2.4,Win32,168.2368775,Chrome,1536,864,,,,,0,693,,,,,,,,,,,,,,,,,B,125,hexagon,1,0,,,,,,,,,,,,,,,,repeat,letter,lettRpt,d,noRew,,,,,,0.8657,0,48,0,48,0,1,,,,,,,,,,,,,
293053,2022-10-05_19h48.49.254,vts_reward_expectancy,2022.2.4,Win32,168.2368775,Chrome,1536,864,,,,,0,693,,,,,,,,,,,,,,,,,H,167,triangle,1,0,,,,,,,,,,,,,,,,switch,number,numSwt,k,noRew,,,,,,0.933,0,49,0,49,0,1,,,,,,,,,,,,,
293053,2022-10-05_19h48.49.254,vts_reward_expectancy,2022.2.4,Win32,168.2368775,Chrome,1536,864,,,,,0,693,,,,,,,,,,,,,,,,,S,181,triangle,1,0,,,,,,,,,,,,,,,,repeat,number,numRpt,k,noRew,,,,,,1.0902,0,50,0,50,0,1,,,,,,,,,,,,,
293053,2022-10-05_19h48.49.254,vts_reward_expectancy,2022.2.4,Win32,168.2368775,Chrome,1536,864,,,,,0,693,,,,,,,,,,,,,,,,,U,174,star,1,0,,,,,,,,,,,,,,,,repeat,number,numRpt,k,noRew,,,,,,0.8602,0,51,0,51,0,1,,,,,,,,,,,,,
293053,2022-10-05_19h48.49.254,vts_reward_expectancy,2022.2.4,Win32,168.2368775,Chrome,1536,864,,,,,0,693,,,,,,,,,,,,,,,,,S,160,hexagon,1,0,,,,,,,,,,,,,,,,repeat,number,numRpt,k,noRew,,,,,,0.8311,0,52,0,52,0,1,,,,,,,,,,,,,
293053,2022-10-05_19h48.49.254,vts_reward_expectancy,2022.2.4,Win32,168.2368775,Chrome,1536,864,,,,,0,693,,,,,,,,,,,,,,,,,W,167,circle,1,0,,,,,,,,,,,,,,,,repeat,number,numRpt,k,noRew,,,,,,0.9464,0,53,0,53,0,1,,,,,,,,,,,,,
293053,2022-10-05_19h48.49.254,vts_reward_expectancy,2022.2.4,Win32,168.2368775,Chrome,1536,864,,,,,0,693,,,,,,,,,,,,,,,,,D,132,star,1,0,,,,,,,,,,,,,,,,repeat,number,numRpt,j,noRew,,,,,,0.8963,0,54,0,54,0,1,,,,,,,,,,,,,
293053,2022-10-05_19h48.49.254,vts_reward_expectancy,2022.2.4,Win32,168.2368775,Chrome,1536,864,,,,,0,693,,,,,,,,,,,,,,,,,B,181,circle,1,0,,,,,,,,,,,,,,,,switch,letter,lettSwt,d,noRew,,,,,,1.0902,0,55,0,55,0,1,,,,,,,,,,,,,
293053,2022-10-05_19h48.49.254,vts_reward_expectancy,2022.2.4,Win32,168.2368775,Chrome,1536,864,,,,,0,693,,,,,,,,,,,,,,,,,H,132,circle,1,0,,,,,,,,,,,,,,,,switch,number,numSwt,j,noRew,,,,,,0.9933,0,56,0,56,0,1,,,,,,,,,,,,,
293053,2022-10-05_19h48.49.254,vts_reward_expectancy,2022.2.4,Win32,168.2368775,Chrome,1536,864,,,,,0,693,,,,,,,,,,,,,,,,,S,146,hexagon,1,0,,,,,,,,,,,,,,,,repeat,number,numRpt,j,noRew,,,,,,2.229,0,57,0,57,0,1,,,,,,,,,,,,,
293053,2022-10-05_19h48.49.254,vts_reward_expectancy,2022.2.4,Win32,168.2368775,Chrome,1536,864,,,,,0,693,,,,,,,,,,,,,,,,,F,167,circle,1,0,,,,,,,,,,,,,,,,switch,letter,lettSwt,d,noRew,,,,,,1.2351,0,58,0,58,0,1,,,,,,,,,,,,,
293053,2022-10-05_19h48.49.254,vts_reward_expectancy,2022.2.4,Win32,168.2368775,Chrome,1536,864,,,,,0,693,,,,,,,,,,,,,,,,,B,125,triangle,1,0,,,,,,,,,,,,,,,,switch,number,numSwt,j,noRew,,,,,,0.824,0,59,0,59,0,1,,,,,,,,,,,,,
293053,2022-10-05_19h48.49.254,vts_reward_expectancy,2022.2.4,Win32,168.2368775,Chrome,1536,864,,,,,0,693,,,,,,,,,,,,,,,,,Y,160,star,1,0,,,,,,,,,,,,,,,,repeat,number,numRpt,k,noRew,,,,,,0.9993,0,60,0,60,0,1,,,,,,,,,,,,,
293053,2022-10-05_19h48.49.254,vts_reward_expectancy,2022.2.4,Win32,168.2368775,Chrome,1536,864,,,,,0,693,,,,,,,,,,,,,,,,,W,139,circle,1,0,,,,,,,,,,,,,,,,repeat,number,numRpt,j,noRew,,,,,,0.946,0,61,0,61,0,1,,,,,,,,,,,,,
293053,2022-10-05_19h48.49.254,vts_reward_expectancy,2022.2.4,Win32,168.2368775,Chrome,1536,864,,,,,0,693,,,,,,,,,,,,,,,,,F,132,hexagon,1,0,,,,,,,,,,,,,,,,switch,letter,lettSwt,d,noRew,,,,,,1.1517,0,62,0,62,0,1,,,,,,,,,,,,,
293053,2022-10-05_19h48.49.254,vts_reward_expectancy,2022.2.4,Win32,168.2368775,Chrome,1536,864,,,,,0,693,,,,,,,,,,,,,,,,,D,181,circle,1,0,,,,,,,,,,,,,,,,repeat,letter,lettRpt,d,noRew,,,,,,0.9694,0,63,0,63,0,1,,,,,,,,,,,,,
293053,2022-10-05_19h48.49.254,vts_reward_expectancy,2022.2.4,Win32,168.2368775,Chrome,1536,864,,,,,,,,,,,,,,,,,,,,,,,,,,,,,,,,,,,,,,,,,,,,,,,,,,,,,,,,,,,,,,,,,,,,,,,,
293053,2022-10-05_19h48.49.254,vts_reward_expectancy,2022.2.4,Win32,168.2368775,Chrome,1536,864,,,,,10,703,,,,,,,,,,,,,,,,,Y,139,star,1,0,,,,,,,,,,,,,,,,switch,number,numSwt,j,Lo,,,,,,1.3083,0,,,,,,space,3.156,high,0,0,0,0,1,,,,,
293053,2022-10-05_19h48.49.254,vts_reward_expectancy,2022.2.4,Win32,168.2368775,Chrome,1536,864,,,,,0,703,,,,,,,,,,,,,,,,,U,132,circle,1,0,,,,,,,,,,,,,,,,repeat,number,numRpt,j,Hi,,,,,,1.3157,0,,,,,,,,high,1,0,1,0,1,,,,,
293053,2022-10-05_19h48.49.254,vts_reward_expectancy,2022.2.4,Win32,168.2368775,Chrome,1536,864,,,,,0,703,,,,,,,,,,,,,,,,,F,160,star,0,0,,,,,,,,,,,,,,,,repeat,number,NA,j,Hi,,,,,,0.7568,0,,,,,,,,high,2,0,2,0,1,,,,,
293053,2022-10-05_19h48.49.254,vts_reward_expectancy,2022.2.4,Win32,168.2368775,Chrome,1536,864,,,,,0,703,,,,,,,,,,,,,,,,,H,167,circle,1,1,,,,,,,,,,,,,,,,repeat,number,numRpt,k,Hi,,,,,,0.9991,0,,,,,,,,high,3,0,3,0,1,,,,,
293053,2022-10-05_19h48.49.254,vts_reward_expectancy,2022.2.4,Win32,168.2368775,Chrome,1536,864,,,,,10,713,,,,,,,,,,,,,,,,,D,181,star,1,0,,,,,,,,,,,,,,,,repeat,number,numRpt,k,Lo,,,,,,0.9705,0,,,,,,,,high,4,0,4,0,1,,,,,
293053,2022-10-05_19h48.49.254,vts_reward_expectancy,2022.2.4,Win32,168.2368775,Chrome,1536,864,,,,,10,723,,,,,,,,,,,,,,,,,B,125,circle,1,0,,,,,,,,,,,,,,,,repeat,number,numRpt,j,Hi,,,,,,0.7766,0,,,,,,,,high,5,0,5,0,1,,,,,
293053,2022-10-05_19h48.49.254,vts_reward_expectancy,2022.2.4,Win32,168.2368775,Chrome,1536,864,,,,,10,733,,,,,,,,,,,,,,,,,S,146,circle,1,0,,,,,,,,,,,,,,,,repeat,number,numRpt,j,Hi,,,,,,0.7498,0,,,,,,,,high,6,0,6,0,1,,,,,
293053,2022-10-05_19h48.49.254,vts_reward_expectancy,2022.2.4,Win32,168.2368775,Chrome,1536,864,,,,,0,733,,,,,,,,,,,,,,,,,W,174,star,0,0,,,,,,,,,,,,,,,,switch,letter,NA,d,Hi,,,,,,0.8072,0,,,,,,,,high,7,0,7,0,1,,,,,
293053,2022-10-05_19h48.49.254,vts_reward_expectancy,2022.2.4,Win32,168.2368775,Chrome,1536,864,,,,,0,733,,,,,,,,,,,,,,,,,Y,139,star,0,1,,,,,,,,,,,,,,,,switch,number,NA,k,Hi,,,,,,0.8804,0,,,,,,,,high,8,0,8,0,1,,,,,
293053,2022-10-05_19h48.49.254,vts_reward_expectancy,2022.2.4,Win32,168.2368775,Chrome,1536,864,,,,,10,743,,,,,,,,,,,,,,,,,U,132,circle,1,1,,,,,,,,,,,,,,,,repeat,number,numRpt,j,Hi,,,,,,0.9218,0,,,,,,,,high,9,0,9,0,1,,,,,
293053,2022-10-05_19h48.49.254,vts_reward_expectancy,2022.2.4,Win32,168.2368775,Chrome,1536,864,,,,,10,753,,,,,,,,,,,,,,,,,F,160,circle,1,0,,,,,,,,,,,,,,,,repeat,number,numRpt,k,Hi,,,,,,0.9137,0,,,,,,,,high,10,0,10,0,1,,,,,
293053,2022-10-05_19h48.49.254,vts_reward_expectancy,2022.2.4,Win32,168.2368775,Chrome,1536,864,,,,,1,754,,,,,,,,,,,,,,,,,H,167,star,1,0,,,,,,,,,,,,,,,,repeat,number,numRpt,k,Lo,,,,,,0.8355,0,,,,,,,,high,11,0,11,0,1,,,,,
293053,2022-10-05_19h48.49.254,vts_reward_expectancy,2022.2.4,Win32,168.2368775,Chrome,1536,864,,,,,1,755,,,,,,,,,,,,,,,,,D,181,star,1,0,,,,,,,,,,,,,,,,repeat,number,numRpt,k,Lo,,,,,,0.7704,0,,,,,,,,high,12,0,12,0,1,,,,,
293053,2022-10-05_19h48.49.254,vts_reward_expectancy,2022.2.4,Win32,168.2368775,Chrome,1536,864,,,,,10,765,,,,,,,,,,,,,,,,,B,125,circle,1,0,,,,,,,,,,,,,,,,repeat,number,numRpt,j,Hi,,,,,,0.7206,0,,,,,,,,high,13,0,13,0,1,,,,,
293053,2022-10-05_19h48.49.254,vts_reward_expectancy,2022.2.4,Win32,168.2368775,Chrome,1536,864,,,,,0,765,,,,,,,,,,,,,,,,,S,146,circle,0,0,,,,,,,,,,,,,,,,repeat,number,NA,k,Hi,,,,,,0.6015,0,,,,,,,,high,14,0,14,0,1,,,,,
293053,2022-10-05_19h48.49.254,vts_reward_expectancy,2022.2.4,Win32,168.2368775,Chrome,1536,864,,,,,10,775,,,,,,,,,,,,,,,,,W,174,star,1,1,,,,,,,,,,,,,,,,repeat,number,numRpt,k,Lo,,,,,,0.6596,0,,,,,,,,high,15,0,15,0,1,,,,,
293053,2022-10-05_19h48.49.254,vts_reward_expectancy,2022.2.4,Win32,168.2368775,Chrome,1536,864,,,,,1,776,,,,,,,,,,,,,,,,,D,160,star,1,0,,,,,,,,,,,,,,,,repeat,number,numRpt,k,Lo,,,,,,0.751,0,,,,,,,,high,16,0,16,0,1,,,,,
293053,2022-10-05_19h48.49.254,vts_reward_expectancy,2022.2.4,Win32,168.2368775,Chrome,1536,864,,,,,10,786,,,,,,,,,,,,,,,,,S,174,circle,1,0,,,,,,,,,,,,,,,,repeat,number,numRpt,k,Hi,,,,,,0.5747,0,,,,,,,,high,17,0,17,0,1,,,,,
293053,2022-10-05_19h48.49.254,vts_reward_expectancy,2022.2.4,Win32,168.2368775,Chrome,1536,864,,,,,0,786,,,,,,,,,,,,,,,,,U,167,circle,0,0,,,,,,,,,,,,,,,,switch,letter,NA,d,Hi,,,,,,0.6674,0,,,,,,,,high,18,0,18,0,1,,,,,
293053,2022-10-05_19h48.49.254,vts_reward_expectancy,2022.2.4,Win32,168.2368775,Chrome,1536,864,,,,,0,786,,,,,,,,,,,,,,,,,Y,132,star,0,1,,,,,,,,,,,,,,,,switch,number,NA,k,Hi,,,,,,0.8301,0,,,,,,,,high,19,0,19,0,1,,,,,
293053,2022-10-05_19h48.49.254,vts_reward_expectancy,2022.2.4,Win32,168.2368775,Chrome,1536,864,,,,,1,787,,,,,,,,,,,,,,,,,H,146,star,1,1,,,,,,,,,,,,,,,,repeat,number,numRpt,j,Lo,,,,,,0.8049,0,,,,,,,,high,20,0,20,0,1,,,,,
293053,2022-10-05_19h48.49.254,vts_reward_expectancy,2022.2.4,Win32,168.2368775,Chrome,1536,864,,,,,1,788,,,,,,,,,,,,,,,,,F,139,circle,1,0,,,,,,,,,,,,,,,,repeat,number,numRpt,j,Hi,,,,,,0.6015,0,,,,,,,,high,21,0,21,0,1,,,,,
293053,2022-10-05_19h48.49.254,vts_reward_expectancy,2022.2.4,Win32,168.2368775,Chrome,1536,864,,,,,1,789,,,,,,,,,,,,,,,,,W,181,circle,1,0,,,,,,,,,,,,,,,,repeat,number,numRpt,k,Hi,,,,,,0.6655,0,,,,,,,,high,22,0,22,0,1,,,,,
293053,2022-10-05_19h48.49.254,vts_reward_expectancy,2022.2.4,Win32,168.2368775,Chrome,1536,864,,,,,1,790,,,,,,,,,,,,,,,,,B,125,star,1,0,,,,,,,,,,,,,,,,repeat,number,numRpt,j,Lo,,,,,,0.6061,0,,,,,,,,high,23,0,23,0,1,,,,,
293053,2022-10-05_19h48.49.254,vts_reward_expectancy,2022.2.4,Win32,168.2368775,Chrome,1536,864,,,,,0,790,,,,,,,,,,,,,,,,,Y,146,circle,0,0,,,,,,,,,,,,,,,,switch,letter,NA,d,Lo,,,,,,0.5281,0,,,,,,,,high,24,0,24,0,1,,,,,
293053,2022-10-05_19h48.49.254,vts_reward_expectancy,2022.2.4,Win32,168.2368775,Chrome,1536,864,,,,,0,790,,,,,,,,,,,,,,,,,U,160,star,0,1,,,,,,,,,,,,,,,,repeat,letter,NA,d,Lo,,,,,,0.8313,0,,,,,,,,high,25,0,25,0,1,,,,,
293053,2022-10-05_19h48.49.254,vts_reward_expectancy,2022.2.4,Win32,168.2368775,Chrome,1536,864,,,,,0,790,,,,,,,,,,,,,,,,,D,174,star,0,1,,,,,,,,,,,,,,,,switch,number,NA,j,Lo,,,,,,0.6113,0,,,,,,,,high,26,0,26,0,1,,,,,
293053,2022-10-05_19h48.49.254,vts_reward_expectancy,2022.2.4,Win32,168.2368775,Chrome,1536,864,,,,,1,791,,,,,,,,,,,,,,,,,F,139,circle,1,1,,,,,,,,,,,,,,,,repeat,number,numRpt,j,Hi,,,,,,0.6855,0,,,,,,,,high,27,0,27,0,1,,,,,
293053,2022-10-05_19h48.49.254,vts_reward_expectancy,2022.2.4,Win32,168.2368775,Chrome,1536,864,,,,,1,792,,,,,,,,,,,,,,,,,H,167,star,1,0,,,,,,,,,,,,,,,,repeat,number,numRpt,k,Lo,,,,,,0.6297,0,,,,,,,,high,28,0,28,0,1,,,,,
293053,2022-10-05_19h48.49.254,vts_reward_expectancy,2022.2.4,Win32,168.2368775,Chrome,1536,864,,,,,0,792,,,,,,,,,,,,,,,,,S,181,circle,0,0,,,,,,,,,,,,,,,,switch,letter,NA,d,Lo,,,,,,0.5522,0,,,,,,,,high,29,0,29,0,1,,,,,
293053,2022-10-05_19h48.49.254,vts_reward_expectancy,2022.2.4,Win32,168.2368775,Chrome,1536,864,,,,,0,792,,,,,,,,,,,,,,,,,W,125,circle,0,1,,,,,,,,,,,,,,,,switch,number,NA,k,Lo,,,,,,0.5542,0,,,,,,,,high,30,0,30,0,1,,,,,
293053,2022-10-05_19h48.49.254,vts_reward_expectancy,2022.2.4,Win32,168.2368775,Chrome,1536,864,,,,,10,802,,,,,,,,,,,,,,,,,B,132,star,1,1,,,,,,,,,,,,,,,,repeat,number,numRpt,j,Lo,,,,,,0.5557,0,,,,,,,,high,31,0,31,0,1,,,,,
293053,2022-10-05_19h48.49.254,vts_reward_expectancy,2022.2.4,Win32,168.2368775,Chrome,1536,864,,,,,0,802,,,,,,,,,,,,,,,,,Y,160,circle,1,0,,,,,,,,,,,,,,,,repeat,number,numRpt,k,Hi,,,,,,0.8536,1,,,,,,space,2.1817,high,0,0,0,0,1,,,,,
293053,2022-10-05_19h48.49.254,vts_reward_expectancy,2022.2.4,Win32,168.2368775,Chrome,1536,864,,,,,1,803,,,,,,,,,,,,,,,,,F,139,star,1,0,,,,,,,,,,,,,,,,repeat,number,numRpt,j,Lo,,,,,,0.6362,1,,,,,,,,high,1,0,1,0,1,,,,,
293053,2022-10-05_19h48.49.254,vts_reward_expectancy,2022.2.4,Win32,168.2368775,Chrome,1536,864,,,,,10,813,,,,,,,,,,,,,,,,,B,132,circle,1,0,,,,,,,,,,,,,,,,repeat,number,numRpt,j,Hi,,,,,,0.5466,1,,,,,,,,high,2,0,2,0,1,,,,,
293053,2022-10-05_19h48.49.254,vts_reward_expectancy,2022.2.4,Win32,168.2368775,Chrome,1536,864,,,,,0,813,,,,,,,,,,,,,,,,,S,125,star,0,0,,,,,,,,,,,,,,,,repeat,number,NA,k,Hi,,,,,,0.4905,1,,,,,,,,high,3,0,3,0,1,,,,,
293053,2022-10-05_19h48.49.254,vts_reward_expectancy,2022.2.4,Win32,168.2368775,Chrome,1536,864,,,,,1,814,,,,,,,,,,,,,,,,,W,146,star,1,1,,,,,,,,,,,,,,,,repeat,number,numRpt,j,Lo,,,,,,0.7209,1,,,,,,,,high,4,0,4,0,1,,,,,
293053,2022-10-05_19h48.49.254,vts_reward_expectancy,2022.2.4,Win32,168.2368775,Chrome,1536,864,,,,,10,824,,,,,,,,,,,,,,,,,H,174,circle,1,0,,,,,,,,,,,,,,,,switch,letter,lettSwt,d,Hi,,,,,,0.6359,1,,,,,,,,high,5,0,5,0,1,,,,,
293053,2022-10-05_19h48.49.254,vts_reward_expectancy,2022.2.4,Win32,168.2368775,Chrome,1536,864,,,,,0,824,,,,,,,,,,,,,,,,,U,181,circle,0,0,,,,,,,,,,,,,,,,repeat,letter,NA,d,Hi,,,,,,0.5171,1,,,,,,,,high,6,0,6,0,1,,,,,
293053,2022-10-05_19h48.49.254,vts_reward_expectancy,2022.2.4,Win32,168.2368775,Chrome,1536,864,,,,,1,825,,,,,,,,,,,,,,,,,D,167,star,1,1,,,,,,,,,,,,,,,,repeat,letter,lettRpt,d,Lo,,,,,,0.565,1,,,,,,,,high,7,0,7,0,1,,,,,
293053,2022-10-05_19h48.49.254,vts_reward_expectancy,2022.2.4,Win32,168.2368775,Chrome,1536,864,,,,,10,835,,,,,,,,,,,,,,,,,Y,160,star,1,0,,,,,,,,,,,,,,,,switch,number,numSwt,k,Lo,,,,,,0.5143,1,,,,,,,,high,8,0,8,0,1,,,,,
293053,2022-10-05_19h48.49.254,vts_reward_expectancy,2022.2.4,Win32,168.2368775,Chrome,1536,864,,,,,0,835,,,,,,,,,,,,,,,,,F,139,circle,1,0,,,,,,,,,,,,,,,,repeat,number,numRpt,j,Hi,,,,,,0.6932,1,,,,,,,,high,9,0,9,0,1,,,,,
293053,2022-10-05_19h48.49.254,vts_reward_expectancy,2022.2.4,Win32,168.2368775,Chrome,1536,864,,,,,10,845,,,,,,,,,,,,,,,,,B,132,circle,1,0,,,,,,,,,,,,,,,,repeat,number,numRpt,j,Hi,,,,,,0.5513,1,,,,,,,,high,10,0,10,0,1,,,,,
293053,2022-10-05_19h48.49.254,vts_reward_expectancy,2022.2.4,Win32,168.2368775,Chrome,1536,864,,,,,10,855,,,,,,,,,,,,,,,,,S,125,star,1,0,,,,,,,,,,,,,,,,repeat,number,numRpt,j,Lo,,,,,,0.5989,1,,,,,,,,high,11,0,11,0,1,,,,,
293053,2022-10-05_19h48.49.254,vts_reward_expectancy,2022.2.4,Win32,168.2368775,Chrome,1536,864,,,,,0,855,,,,,,,,,,,,,,,,,W,146,circle,0,0,,,,,,,,,,,,,,,,switch,letter,NA,d,Lo,,,,,,0.7335,1,,,,,,,,high,12,0,12,0,1,,,,,
293053,2022-10-05_19h48.49.254,vts_reward_expectancy,2022.2.4,Win32,168.2368775,Chrome,1536,864,,,,,0,855,,,,,,,,,,,,,,,,,H,174,star,0,1,,,,,,,,,,,,,,,,switch,number,NA,j,Lo,,,,,,0.8538,1,,,,,,,,high,13,0,13,0,1,,,,,
293053,2022-10-05_19h48.49.254,vts_reward_expectancy,2022.2.4,Win32,168.2368775,Chrome,1536,864,,,,,10,865,,,,,,,,,,,,,,,,,U,181,circle,1,1,,,,,,,,,,,,,,,,repeat,number,numRpt,k,Hi,,,,,,0.6296,1,,,,,,,,high,14,0,14,0,1,,,,,
293053,2022-10-05_19h48.49.254,vts_reward_expectancy,2022.2.4,Win32,168.2368775,Chrome,1536,864,,,,,0,865,,,,,,,,,,,,,,,,,D,167,star,0,0,,,,,,,,,,,,,,,,repeat,number,NA,j,Hi,,,,,,0.6618,1,,,,,,,,high,15,0,15,0,1,,,,,
293053,2022-10-05_19h48.49.254,vts_reward_expectancy,2022.2.4,Win32,168.2368775,Chrome,1536,864,,,,,0,865,,,,,,,,,,,,,,,,,U,146,circle,1,1,,,,,,,,,,,,,,,,repeat,number,numRpt,j,Hi,,,,,,0.7754,1,,,,,,,,high,16,0,16,0,1,,,,,
293053,2022-10-05_19h48.49.254,vts_reward_expectancy,2022.2.4,Win32,168.2368775,Chrome,1536,864,,,,,1,866,,,,,,,,,,,,,,,,,B,139,star,1,0,,,,,,,,,,,,,,,,repeat,number,numRpt,j,Lo,,,,,,0.6358,1,,,,,,,,high,17,0,17,0,1,,,,,
293053,2022-10-05_19h48.49.254,vts_reward_expectancy,2022.2.4,Win32,168.2368775,Chrome,1536,864,,,,,10,876,,,,,,,,,,,,,,,,,H,132,circle,1,0,,,,,,,,,,,,,,,,repeat,number,numRpt,j,Hi,,,,,,0.5746,1,,,,,,,,high,18,0,18,0,1,,,,,
293053,2022-10-05_19h48.49.254,vts_reward_expectancy,2022.2.4,Win32,168.2368775,Chrome,1536,864,,,,,0,876,,,,,,,,,,,,,,,,,D,174,star,0,0,,,,,,,,,,,,,,,,repeat,number,NA,j,Hi,,,,,,0.4871,1,,,,,,,,high,19,0,19,0,1,,,,,
293053,2022-10-05_19h48.49.254,vts_reward_expectancy,2022.2.4,Win32,168.2368775,Chrome,1536,864,,,,,0,876,,,,,,,,,,,,,,,,,Y,167,star,0,1,,,,,,,,,,,,,,,,repeat,number,NA,j,Hi,,,,,,0.7508,1,,,,,,,,high,20,0,20,0,1,,,,,
293053,2022-10-05_19h48.49.254,vts_reward_expectancy,2022.2.4,Win32,168.2368775,Chrome,1536,864,,,,,0,876,,,,,,,,,,,,,,,,,F,160,circle,1,1,,,,,,,,,,,,,,,,repeat,number,numRpt,k,Hi,,,,,,0.7747,1,,,,,,,,high,21,0,21,0,1,,,,,
293053,2022-10-05_19h48.49.254,vts_reward_expectancy,2022.2.4,Win32,168.2368775,Chrome,1536,864,,,,,0,876,,,,,,,,,,,,,,,,,S,125,circle,0,0,,,,,,,,,,,,,,,,repeat,number,NA,k,Hi,,,,,,0.7471,1,,,,,,,,high,22,0,22,0,1,,,,,
293053,2022-10-05_19h48.49.254,vts_reward_expectancy,2022.2.4,Win32,168.2368775,Chrome,1536,864,,,,,0,876,,,,,,,,,,,,,,,,,W,181,star,0,1,,,,,,,,,,,,,,,,switch,letter,NA,d,Hi,,,,,,0.6417,1,,,,,,,,high,23,0,23,0,1,,,,,
293053,2022-10-05_19h48.49.254,vts_reward_expectancy,2022.2.4,Win32,168.2368775,Chrome,1536,864,,,,,1,877,,,,,,,,,,,,,,,,,B,132,circle,1,1,,,,,,,,,,,,,,,,switch,number,numSwt,j,Hi,,,,,,0.5409,1,,,,,,,,high,24,0,24,0,1,,,,,
293053,2022-10-05_19h48.49.254,vts_reward_expectancy,2022.2.4,Win32,168.2368775,Chrome,1536,864,,,,,1,878,,,,,,,,,,,,,,,,,H,125,star,1,0,,,,,,,,,,,,,,,,repeat,number,numRpt,j,Lo,,,,,,0.4962,1,,,,,,,,high,25,0,25,0,1,,,,,
293053,2022-10-05_19h48.49.254,vts_reward_expectancy,2022.2.4,Win32,168.2368775,Chrome,1536,864,,,,,10,888,,,,,,,,,,,,,,,,,D,160,circle,1,0,,,,,,,,,,,,,,,,repeat,number,numRpt,k,Hi,,,,,,0.6556,1,,,,,,,,high,26,0,26,0,1,,,,,
293053,2022-10-05_19h48.49.254,vts_reward_expectancy,2022.2.4,Win32,168.2368775,Chrome,1536,864,,,,,0,888,,,,,,,,,,,,,,,,,U,146,star,0,0,,,,,,,,,,,,,,,,repeat,number,NA,k,Hi,,,,,,0.8363,1,,,,,,,,high,27,0,27,0,1,,,,,
293053,2022-10-05_19h48.49.254,vts_reward_expectancy,2022.2.4,Win32,168.2368775,Chrome,1536,864,,,,,1,889,,,,,,,,,,,,,,,,,W,167,star,1,1,,,,,,,,,,,,,,,,repeat,number,numRpt,k,Lo,,,,,,0.8051,1,,,,,,,,high,28,0,28,0,1,,,,,
293053,2022-10-05_19h48.49.254,vts_reward_expectancy,2022.2.4,Win32,168.2368775,Chrome,1536,864,,,,,0,889,,,,,,,,,,,,,,,,,Y,181,circle,0,0,,,,,,,,,,,,,,,,switch,letter,NA,d,Lo,,,,,,0.6961,1,,,,,,,,high,29,0,29,0,1,,,,,
293053,2022-10-05_19h48.49.254,vts_reward_expectancy,2022.2.4,Win32,168.2368775,Chrome,1536,864,,,,,10,899,,,,,,,,,,,,,,,,,S,139,star,1,1,,,,,,,,,,,,,,,,switch,number,numSwt,j,Lo,,,,,,0.9236,1,,,,,,,,high,30,0,30,0,1,,,,,
293053,2022-10-05_19h48.49.254,vts_reward_expectancy,2022.2.4,Win32,168.2368775,Chrome,1536,864,,,,,0,899,,,,,,,,,,,,,,,,,F,174,circle,1,0,,,,,,,,,,,,,,,,repeat,number,numRpt,k,Hi,,,,,,0.917,1,,,,,,,,high,31,0,31,0,1,,,,,
293053,2022-10-05_19h48.49.254,vts_reward_expectancy,2022.2.4,Win32,168.2368775,Chrome,1536,864,,,,,0,899,,,,,,,,,,,,,,,,,B,167,hexagon,0,0,,,,,,,,,,,,,,,,repeat,number,NA,j,Hi,,,,,,0.6364,2,,,,,,space,5.4501,low,0,0,0,0,1,,,,,
293053,2022-10-05_19h48.49.254,vts_reward_expectancy,2022.2.4,Win32,168.2368775,Chrome,1536,864,,,,,0,899,,,,,,,,,,,,,,,,,S,132,triangle,1,1,,,,,,,,,,,,,,,,repeat,number,numRpt,j,Hi,,,,,,0.679,2,,,,,,,,low,1,0,1,0,1,,,,,
293053,2022-10-05_19h48.49.254,vts_reward_expectancy,2022.2.4,Win32,168.2368775,Chrome,1536,864,,,,,10,909,,,,,,,,,,,,,,,,,Y,174,hexagon,1,0,,,,,,,,,,,,,,,,repeat,number,numRpt,k,Lo,,,,,,0.546,2,,,,,,,,low,2,0,2,0,1,,,,,
293053,2022-10-05_19h48.49.254,vts_reward_expectancy,2022.2.4,Win32,168.2368775,Chrome,1536,864,,,,,1,910,,,,,,,,,,,,,,,,,D,139,triangle,1,0,,,,,,,,,,,,,,,,switch,letter,lettSwt,d,Hi,,,,,,0.6023,2,,,,,,,,low,3,0,3,0,1,,,,,
293053,2022-10-05_19h48.49.254,vts_reward_expectancy,2022.2.4,Win32,168.2368775,Chrome,1536,864,,,,,10,920,,,,,,,,,,,,,,,,,F,146,hexagon,1,0,,,,,,,,,,,,,,,,switch,number,numSwt,j,Lo,,,,,,0.684,2,,,,,,,,low,4,0,4,0,1,,,,,
293053,2022-10-05_19h48.49.254,vts_reward_expectancy,2022.2.4,Win32,168.2368775,Chrome,1536,864,,,,,0,920,,,,,,,,,,,,,,,,,H,181,triangle,1,0,,,,,,,,,,,,,,,,repeat,number,numRpt,k,Hi,,,,,,0.8607,2,,,,,,,,low,5,0,5,0,1,,,,,
293053,2022-10-05_19h48.49.254,vts_reward_expectancy,2022.2.4,Win32,168.2368775,Chrome,1536,864,,,,,0,920,,,,,,,,,,,,,,,,,W,125,hexagon,0,0,,,,,,,,,,,,,,,,repeat,number,NA,k,Hi,,,,,,0.3177,2,,,,,,,,low,6,0,6,0,1,,,,,
293053,2022-10-05_19h48.49.254,vts_reward_expectancy,2022.2.4,Win32,168.2368775,Chrome,1536,864,,,,,10,930,,,,,,,,,,,,,,,,,U,160,triangle,1,1,,,,,,,,,,,,,,,,repeat,number,numRpt,k,Hi,,,,,,0.3239,2,,,,,,,,low,7,0,7,0,1,,,,,
293053,2022-10-05_19h48.49.254,vts_reward_expectancy,2022.2.4,Win32,168.2368775,Chrome,1536,864,,,,,10,940,,,,,,,,,,,,,,,,,B,167,hexagon,1,0,,,,,,,,,,,,,,,,repeat,number,numRpt,k,Lo,,,,,,0.2993,2,,,,,,,,low,8,0,8,0,1,,,,,
293053,2022-10-05_19h48.49.254,vts_reward_expectancy,2022.2.4,Win32,168.2368775,Chrome,1536,864,,,,,0,940,,,,,,,,,,,,,,,,,S,132,triangle,0,0,,,,,,,,,,,,,,,,repeat,number,NA,k,Lo,,,,,,0.2915,2,,,,,,,,low,9,0,9,0,1,,,,,
293053,2022-10-05_19h48.49.254,vts_reward_expectancy,2022.2.4,Win32,168.2368775,Chrome,1536,864,,,,,10,950,,,,,,,,,,,,,,,,,Y,174,hexagon,1,1,,,,,,,,,,,,,,,,repeat,number,numRpt,k,Lo,,,,,,0.2664,2,,,,,,,,low,10,0,10,0,1,,,,,
293053,2022-10-05_19h48.49.254,vts_reward_expectancy,2022.2.4,Win32,168.2368775,Chrome,1536,864,,,,,0,950,,,,,,,,,,,,,,,,,D,139,triangle,0,0,,,,,,,,,,,,,,,,repeat,number,NA,k,Lo,,,,,,0.2564,2,,,,,,,,low,11,0,11,0,1,,,,,
293053,2022-10-05_19h48.49.254,vts_reward_expectancy,2022.2.4,Win32,168.2368775,Chrome,1536,864,,,,,0,950,,,,,,,,,,,,,,,,,F,146,hexagon,0,1,,,,,,,,,,,,,,,,repeat,number,NA,k,Lo,,,,,,0.2667,2,,,,,,,,low,12,0,12,0,1,,,,,
293053,2022-10-05_19h48.49.254,vts_reward_expectancy,2022.2.4,Win32,168.2368775,Chrome,1536,864,,,,,0,950,,,,,,,,,,,,,,,,,H,181,triangle,0,1,,,,,,,,,,,,,,,,repeat,number,NA,j,Lo,,,,,,0.3173,2,,,,,,,,low,13,0,13,0,1,,,,,
293053,2022-10-05_19h48.49.254,vts_reward_expectancy,2022.2.4,Win32,168.2368775,Chrome,1536,864,,,,,0,950,,,,,,,,,,,,,,,,,W,125,hexagon,0,1,,,,,,,,,,,,,,,,repeat,number,NA,k,Lo,,,,,,0.322,2,,,,,,,,low,14,0,14,0,1,,,,,
293053,2022-10-05_19h48.49.254,vts_reward_expectancy,2022.2.4,Win32,168.2368775,Chrome,1536,864,,,,,0,950,,,,,,,,,,,,,,,,,U,160,triangle,0,1,,,,,,,,,,,,,,,,repeat,number,NA,j,Lo,,,,,,0.2338,2,,,,,,,,low,15,0,15,0,1,,,,,
293053,2022-10-05_19h48.49.254,vts_reward_expectancy,2022.2.4,Win32,168.2368775,Chrome,1536,864,,,,,10,960,,,,,,,,,,,,,,,,,Y,167,triangle,1,1,,,,,,,,,,,,,,,,repeat,number,numRpt,k,Hi,,,,,,0.2997,2,,,,,,,,low,16,0,16,0,1,,,,,
293053,2022-10-05_19h48.49.254,vts_reward_expectancy,2022.2.4,Win32,168.2368775,Chrome,1536,864,,,,,0,960,,,,,,,,,,,,,,,,,U,146,hexagon,0,0,,,,,,,,,,,,,,,,repeat,number,NA,k,Hi,,,,,,0.6006,2,,,,,,,,low,17,0,17,0,1,,,,,
293053,2022-10-05_19h48.49.254,vts_reward_expectancy,2022.2.4,Win32,168.2368775,Chrome,1536,864,,,,,1,961,,,,,,,,,,,,,,,,,S,132,triangle,1,1,,,,,,,,,,,,,,,,repeat,number,numRpt,j,Hi,,,,,,0.2493,2,,,,,,,,low,18,0,18,0,1,,,,,
293053,2022-10-05_19h48.49.254,vts_reward_expectancy,2022.2.4,Win32,168.2368775,Chrome,1536,864,,,,,1,962,,,,,,,,,,,,,,,,,D,181,hexagon,1,0,,,,,,,,,,,,,,,,repeat,number,numRpt,k,Lo,,,,,,0.2307,2,,,,,,,,low,19,0,19,0,1,,,,,
293053,2022-10-05_19h48.49.254,vts_reward_expectancy,2022.2.4,Win32,168.2368775,Chrome,1536,864,,,,,1,963,,,,,,,,,,,,,,,,,F,160,hexagon,1,0,,,,,,,,,,,,,,,,repeat,number,numRpt,k,Lo,,,,,,0.4062,2,,,,,,,,low,20,0,20,0,1,,,,,
293053,2022-10-05_19h48.49.254,vts_reward_expectancy,2022.2.4,Win32,168.2368775,Chrome,1536,864,,,,,0,963,,,,,,,,,,,,,,,,,W,139,triangle,0,0,,,,,,,,,,,,,,,,repeat,number,NA,k,Lo,,,,,,0.3725,2,,,,,,,,low,21,0,21,0,1,,,,,
293053,2022-10-05_19h48.49.254,vts_reward_expectancy,2022.2.4,Win32,168.2368775,Chrome,1536,864,,,,,10,973,,,,,,,,,,,,,,,,,B,174,triangle,1,1,,,,,,,,,,,,,,,,repeat,number,numRpt,k,Hi,,,,,,0.2371,2,,,,,,,,low,22,0,22,0,1,,,,,
293053,2022-10-05_19h48.49.254,vts_reward_expectancy,2022.2.4,Win32,168.2368775,Chrome,1536,864,,,,,0,973,,,,,,,,,,,,,,,,,H,125,hexagon,0,0,,,,,,,,,,,,,,,,repeat,number,NA,k,Hi,,,,,,0.3215,2,,,,,,,,low,23,0,23,0,1,,,,,
293053,2022-10-05_19h48.49.254,vts_reward_expectancy,2022.2.4,Win32,168.2368775,Chrome,1536,864,,,,,10,983,,,,,,,,,,,,,,,,,D,174,triangle,1,1,,,,,,,,,,,,,,,,repeat,number,numRpt,k,Hi,,,,,,0.2846,2,,,,,,,,low,24,0,24,0,1,,,,,
293053,2022-10-05_19h48.49.254,vts_reward_expectancy,2022.2.4,Win32,168.2368775,Chrome,1536,864,,,,,10,993,,,,,,,,,,,,,,,,,W,132,hexagon,1,0,,,,,,,,,,,,,,,,repeat,number,numRpt,j,Lo,,,,,,0.297,2,,,,,,,,low,25,0,25,0,1,,,,,
293053,2022-10-05_19h48.49.254,vts_reward_expectancy,2022.2.4,Win32,168.2368775,Chrome,1536,864,,,,,1,994,,,,,,,,,,,,,,,,,S,181,triangle,1,0,,,,,,,,,,,,,,,,repeat,number,numRpt,k,Hi,,,,,,0.2545,2,,,,,,,,low,26,0,26,0,1,,,,,
293053,2022-10-05_19h48.49.254,vts_reward_expectancy,2022.2.4,Win32,168.2368775,Chrome,1536,864,,,,,0,994,,,,,,,,,,,,,,,,,F,146,hexagon,0,0,,,,,,,,,,,,,,,,repeat,number,NA,k,Hi,,,,,,0.2911,2,,,,,,,,low,27,0,27,0,1,,,,,
293053,2022-10-05_19h48.49.254,vts_reward_expectancy,2022.2.4,Win32,168.2368775,Chrome,1536,864,,,,,10,1004,,,,,,,,,,,,,,,,,Y,167,hexagon,1,1,,,,,,,,,,,,,,,,repeat,number,numRpt,k,Lo,,,,,,0.2607,2,,,,,,,,low,28,0,28,0,1,,,,,
293053,2022-10-05_19h48.49.254,vts_reward_expectancy,2022.2.4,Win32,168.2368775,Chrome,1536,864,,,,,0,1004,,,,,,,,,,,,,,,,,H,160,triangle,0,0,,,,,,,,,,,,,,,,repeat,number,NA,j,Lo,,,,,,0.2914,2,,,,,,,,low,29,0,29,0,1,,,,,
293053,2022-10-05_19h48.49.254,vts_reward_expectancy,2022.2.4,Win32,168.2368775,Chrome,1536,864,,,,,10,1014,,,,,,,,,,,,,,,,,B,125,hexagon,1,1,,,,,,,,,,,,,,,,repeat,number,numRpt,j,Lo,,,,,,0.3761,2,,,,,,,,low,30,0,30,0,1,,,,,
293053,2022-10-05_19h48.49.254,vts_reward_expectancy,2022.2.4,Win32,168.2368775,Chrome,1536,864,,,,,0,1014,,,,,,,,,,,,,,,,,U,139,triangle,0,0,,,,,,,,,,,,,,,,repeat,number,NA,k,Lo,,,,,,0.2489,2,,,,,,,,low,31,0,31,0,1,,,,,
293053,2022-10-05_19h48.49.254,vts_reward_expectancy,2022.2.4,Win32,168.2368775,Chrome,1536,864,,,,,1,1015,,,,,,,,,,,,,,,,,W,181,hexagon,1,1,,,,,,,,,,,,,,,,repeat,number,numRpt,k,Lo,,,,,,0.291,3,,,,,,space,1.4916,low,0,0,0,0,1,,,,,
293053,2022-10-05_19h48.49.254,vts_reward_expectancy,2022.2.4,Win32,168.2368775,Chrome,1536,864,,,,,10,1025,,,,,,,,,,,,,,,,,F,174,triangle,1,0,,,,,,,,,,,,,,,,repeat,number,numRpt,k,Hi,,,,,,0.2059,3,,,,,,,,low,1,0,1,0,1,,,,,
293053,2022-10-05_19h48.49.254,vts_reward_expectancy,2022.2.4,Win32,168.2368775,Chrome,1536,864,,,,,0,1025,,,,,,,,,,,,,,,,,Y,139,hexagon,0,0,,,,,,,,,,,,,,,,repeat,number,NA,k,Hi,,,,,,0.2306,3,,,,,,,,low,2,0,2,0,1,,,,,
293053,2022-10-05_19h48.49.254,vts_reward_expectancy,2022.2.4,Win32,168.2368775,Chrome,1536,864,,,,,10,1035,,,,,,,,,,,,,,,,,U,167,triangle,1,1,,,,,,,,,,,,,,,,repeat,number,numRpt,k,Hi,,,,,,0.1967,3,,,,,,,,low,3,0,3,0,1,,,,,
293053,2022-10-05_19h48.49.254,vts_reward_expectancy,2022.2.4,Win32,168.2368775,Chrome,1536,864,,,,,0,1035,,,,,,,,,,,,,,,,,H,125,triangle,0,0,,,,,,,,,,,,,,,,repeat,number,NA,k,Hi,,,,,,0.2028,3,,,,,,,,low,4,0,4,0,1,,,,,
293053,2022-10-05_19h48.49.254,vts_reward_expectancy,2022.2.4,Win32,168.2368775,Chrome,1536,864,,,,,0,1035,,,,,,,,,,,,,,,,,B,132,hexagon,0,1,,,,,,,,,,,,,,,,repeat,number,NA,k,Hi,,,,,,0.2305,3,,,,,,,,low,5,0,5,0,1,,,,,
293053,2022-10-05_19h48.49.254,vts_reward_expectancy,2022.2.4,Win32,168.2368775,Chrome,1536,864,,,,,10,1045,,,,,,,,,,,,,,,,,D,160,hexagon,1,1,,,,,,,,,,,,,,,,repeat,number,numRpt,k,Lo,,,,,,0.261,3,,,,,,,,low,6,0,6,0,1,,,,,
293053,2022-10-05_19h48.49.254,vts_reward_expectancy,2022.2.4,Win32,168.2368775,Chrome,1536,864,,,,,0,1045,,,,,,,,,,,,,,,,,S,146,triangle,0,0,,,,,,,,,,,,,,,,repeat,number,NA,k,Lo,,,,,,0.255,3,,,,,,,,low,7,0,7,0,1,,,,,
293053,2022-10-05_19h48.49.254,vts_reward_expectancy,2022.2.4,Win32,168.2368775,Chrome,1536,864,,,,,0,1045,,,,,,,,,,,,,,,,,W,181,triangle,1,1,,,,,,,,,,,,,,,,repeat,number,numRpt,k,Hi,,,,,,0.4318,3,,,,,,,,low,8,0,8,0,1,,,,,
293053,2022-10-05_19h48.49.254,vts_reward_expectancy,2022.2.4,Win32,168.2368775,Chrome,1536,864,,,,,1,1046,,,,,,,,,,,,,,,,,F,174,hexagon,1,0,,,,,,,,,,,,,,,,repeat,number,numRpt,k,Lo,,,,,,0.1967,3,,,,,,,,low,9,0,9,0,1,,,,,
293053,2022-10-05_19h48.49.254,vts_reward_expectancy,2022.2.4,Win32,168.2368775,Chrome,1536,864,,,,,0,1046,,,,,,,,,,,,,,,,,Y,139,hexagon,0,0,,,,,,,,,,,,,,,,repeat,number,NA,k,Lo,,,,,,0.1762,3,,,,,,,,low,10,0,10,0,1,,,,,
293053,2022-10-05_19h48.49.254,vts_reward_expectancy,2022.2.4,Win32,168.2368775,Chrome,1536,864,,,,,1,1047,,,,,,,,,,,,,,,,,U,167,triangle,1,1,,,,,,,,,,,,,,,,repeat,number,numRpt,k,Hi,,,,,,0.0913,3,,,,,,,,low,11,0,11,0,1,,,,,
293053,2022-10-05_19h48.49.254,vts_reward_expectancy,2022.2.4,Win32,168.2368775,Chrome,1536,864,,,,,0,1047,,,,,,,,,,,,,,,,,H,125,triangle,0,0,,,,,,,,,,,,,,,,repeat,number,NA,k,Hi,,,,,,0.2004,3,,,,,,,,low,12,0,12,0,1,,,,,
293053,2022-10-05_19h48.49.254,vts_reward_expectancy,2022.2.4,Win32,168.2368775,Chrome,1536,864,,,,,0,1047,,,,,,,,,,,,,,,,,B,132,hexagon,0,1,,,,,,,,,,,,,,,,repeat,number,NA,k,Hi,,,,,,0.2387,3,,,,,,,,low,13,0,13,0,1,,,,,
293053,2022-10-05_19h48.49.254,vts_reward_expectancy,2022.2.4,Win32,168.2368775,Chrome,1536,864,,,,,0,1047,,,,,,,,,,,,,,,,,D,160,hexagon,0,1,,,,,,,,,,,,,,,,repeat,number,NA,j,Hi,,,,,,0.3971,3,,,,,,,,low,14,0,14,0,1,,,,,
293053,2022-10-05_19h48.49.254,vts_reward_expectancy,2022.2.4,Win32,168.2368775,Chrome,1536,864,,,,,0,1047,,,,,,,,,,,,,,,,,S,146,triangle,0,1,,,,,,,,,,,,,,,,repeat,number,NA,k,Hi,,,,,,0.2306,3,,,,,,,,low,15,0,15,0,1,,,,,
293053,2022-10-05_19h48.49.254,vts_reward_expectancy,2022.2.4,Win32,168.2368775,Chrome,1536,864,,,,,0,1047,,,,,,,,,,,,,,,,,Y,167,triangle,1,1,,,,,,,,,,,,,,,,repeat,number,numRpt,k,Hi,,,,,,0.3216,3,,,,,,,,low,16,0,16,0,1,,,,,
293053,2022-10-05_19h48.49.254,vts_reward_expectancy,2022.2.4,Win32,168.2368775,Chrome,1536,864,,,,,1,1048,,,,,,,,,,,,,,,,,B,181,hexagon,1,0,,,,,,,,,,,,,,,,switch,letter,lettSwt,d,Lo,,,,,,0.2367,3,,,,,,,,low,17,0,17,0,1,,,,,
293053,2022-10-05_19h48.49.254,vts_reward_expectancy,2022.2.4,Win32,168.2368775,Chrome,1536,864,,,,,1,1049,,,,,,,,,,,,,,,,,D,174,triangle,1,0,,,,,,,,,,,,,,,,repeat,letter,lettRpt,d,Hi,,,,,,0.2061,3,,,,,,,,low,18,0,18,0,1,,,,,
293053,2022-10-05_19h48.49.254,vts_reward_expectancy,2022.2.4,Win32,168.2368775,Chrome,1536,864,,,,,1,1050,,,,,,,,,,,,,,,,,W,160,hexagon,1,0,,,,,,,,,,,,,,,,switch,number,numSwt,k,Lo,,,,,,0.2246,3,,,,,,,,low,19,0,19,0,1,,,,,
293053,2022-10-05_19h48.49.254,vts_reward_expectancy,2022.2.4,Win32,168.2368775,Chrome,1536,864,,,,,0,1050,,,,,,,,,,,,,,,,,S,125,hexagon,0,0,,,,,,,,,,,,,,,,repeat,number,NA,k,Lo,,,,,,0.2308,3,,,,,,,,low,20,0,20,0,1,,,,,
293053,2022-10-05_19h48.49.254,vts_reward_expectancy,2022.2.4,Win32,168.2368775,Chrome,1536,864,,,,,0,1050,,,,,,,,,,,,,,,,,U,132,triangle,0,1,,,,,,,,,,,,,,,,repeat,number,NA,k,Lo,,,,,,0.2251,3,,,,,,,,low,21,0,21,0,1,,,,,
293053,2022-10-05_19h48.49.254,vts_reward_expectancy,2022.2.4,Win32,168.2368775,Chrome,1536,864,,,,,10,1060,,,,,,,,,,,,,,,,,H,146,hexagon,1,1,,,,,,,,,,,,,,,,repeat,number,numRpt,j,Lo,,,,,,0.2856,3,,,,,,,,low,22,0,22,0,1,,,,,
293053,2022-10-05_19h48.49.254,vts_reward_expectancy,2022.2.4,Win32,168.2368775,Chrome,1536,864,,,,,1,1061,,,,,,,,,,,,,,,,,F,139,triangle,1,0,,,,,,,,,,,,,,,,repeat,number,numRpt,j,Hi,,,,,,0.2617,3,,,,,,,,low,23,0,23,0,1,,,,,
293053,2022-10-05_19h48.49.254,vts_reward_expectancy,2022.2.4,Win32,168.2368775,Chrome,1536,864,,,,,0,1061,,,,,,,,,,,,,,,,,Y,125,triangle,0,0,,,,,,,,,,,,,,,,repeat,number,NA,k,Hi,,,,,,0.197,3,,,,,,,,low,24,0,24,0,1,,,,,
293053,2022-10-05_19h48.49.254,vts_reward_expectancy,2022.2.4,Win32,168.2368775,Chrome,1536,864,,,,,0,1061,,,,,,,,,,,,,,,,,S,174,hexagon,0,1,,,,,,,,,,,,,,,,repeat,number,NA,j,Hi,,,,,,0.2609,3,,,,,,,,low,25,0,25,0,1,,,,,
293053,2022-10-05_19h48.49.254,vts_reward_expectancy,2022.2.4,Win32,168.2368775,Chrome,1536,864,,,,,1,1062,,,,,,,,,,,,,,,,,H,167,triangle,1,1,,,,,,,,,,,,,,,,switch,letter,lettSwt,d,Hi,,,,,,0.3276,3,,,,,,,,low,26,0,26,0,1,,,,,
293053,2022-10-05_19h48.49.254,vts_reward_expectancy,2022.2.4,Win32,168.2368775,Chrome,1536,864,,,,,10,1072,,,,,,,,,,,,,,,,,W,160,hexagon,1,0,,,,,,,,,,,,,,,,switch,number,numSwt,k,Lo,,,,,,0.2211,3,,,,,,,,low,27,0,27,0,1,,,,,
293053,2022-10-05_19h48.49.254,vts_reward_expectancy,2022.2.4,Win32,168.2368775,Chrome,1536,864,,,,,0,1072,,,,,,,,,,,,,,,,,U,146,triangle,0,0,,,,,,,,,,,,,,,,repeat,number,NA,k,Lo,,,,,,0.2879,3,,,,,,,,low,28,0,28,0,1,,,,,
293053,2022-10-05_19h48.49.254,vts_reward_expectancy,2022.2.4,Win32,168.2368775,Chrome,1536,864,,,,,1,1073,,,,,,,,,,,,,,,,,D,132,hexagon,1,1,,,,,,,,,,,,,,,,repeat,number,numRpt,j,Lo,,,,,,0.252,3,,,,,,,,low,29,0,29,0,1,,,,,
293053,2022-10-05_19h48.49.254,vts_reward_expectancy,2022.2.4,Win32,168.2368775,Chrome,1536,864,,,,,0,1073,,,,,,,,,,,,,,,,,F,139,hexagon,0,0,,,,,,,,,,,,,,,,repeat,number,NA,k,Lo,,,,,,0.2124,3,,,,,,,,low,30,0,30,0,1,,,,,
293053,2022-10-05_19h48.49.254,vts_reward_expectancy,2022.2.4,Win32,168.2368775,Chrome,1536,864,,,,,10,1083,,,,,,,,,,,,,,,,,B,181,triangle,1,1,,,,,,,,,,,,,,,,repeat,number,numRpt,k,Hi,,,,,,0.1702,3,,,,,,,,low,31,0,31,0,1,,,,,
293053,2022-10-05_19h48.49.254,vts_reward_expectancy,2022.2.4,Win32,168.2368775,Chrome,1536,864,,,,,0,1083,,,,,,,,,,,,,,,,,B,167,star,0,0,,,,,,,,,,,,,,,,repeat,number,NA,j,Hi,,,,,,0.2306,4,,,,,,space,0.4671,high,0,0,0,0,1,,,,,
293053,2022-10-05_19h48.49.254,vts_reward_expectancy,2022.2.4,Win32,168.2368775,Chrome,1536,864,,,,,0,1083,,,,,,,,,,,,,,,,,D,125,circle,0,1,,,,,,,,,,,,,,,,repeat,number,NA,k,Hi,,,,,,0.2267,4,,,,,,,,high,1,0,1,0,1,,,,,
293053,2022-10-05_19h48.49.254,vts_reward_expectancy,2022.2.4,Win32,168.2368775,Chrome,1536,864,,,,,10,1093,,,,,,,,,,,,,,,,,U,139,star,1,1,,,,,,,,,,,,,,,,repeat,number,numRpt,j,Lo,,,,,,0.4329,4,,,,,,,,high,2,0,2,0,1,,,,,
293053,2022-10-05_19h48.49.254,vts_reward_expectancy,2022.2.4,Win32,168.2368775,Chrome,1536,864,,,,,0,1093,,,,,,,,,,,,,,,,,H,160,circle,0,0,,,,,,,,,,,,,,,,repeat,number,NA,j,Lo,,,,,,0.2608,4,,,,,,,,high,3,0,3,0,1,,,,,
293053,2022-10-05_19h48.49.254,vts_reward_expectancy,2022.2.4,Win32,168.2368775,Chrome,1536,864,,,,,0,1093,,,,,,,,,,,,,,,,,W,174,star,0,1,,,,,,,,,,,,,,,,repeat,number,NA,j,Lo,,,,,,0.2547,4,,,,,,,,high,4,0,4,0,1,,,,,
293053,2022-10-05_19h48.49.254,vts_reward_expectancy,2022.2.4,Win32,168.2368775,Chrome,1536,864,,,,,0,1093,,,,,,,,,,,,,,,,,Y,146,circle,0,1,,,,,,,,,,,,,,,,switch,letter,NA,d,Lo,,,,,,0.3762,4,,,,,,,,high,5,0,5,0,1,,,,,
293053,2022-10-05_19h48.49.254,vts_reward_expectancy,2022.2.4,Win32,168.2368775,Chrome,1536,864,,,,,0,1093,,,,,,,,,,,,,,,,,S,181,circle,0,1,,,,,,,,,,,,,,,,repeat,letter,NA,d,Lo,,,,,,0.2271,4,,,,,,,,high,6,0,6,0,1,,,,,
293053,2022-10-05_19h48.49.254,vts_reward_expectancy,2022.2.4,Win32,168.2368775,Chrome,1536,864,,,,,0,1093,,,,,,,,,,,,,,,,,F,132,star,0,1,,,,,,,,,,,,,,,,switch,number,NA,k,Lo,,,,,,0.2554,4,,,,,,,,high,7,0,7,0,1,,,,,
293053,2022-10-05_19h48.49.254,vts_reward_expectancy,2022.2.4,Win32,168.2368775,Chrome,1536,864,,,,,0,1093,,,,,,,,,,,,,,,,,B,167,star,0,1,,,,,,,,,,,,,,,,repeat,number,NA,j,Lo,,,,,,0.3458,4,,,,,,,,high,8,0,8,0,1,,,,,
293053,2022-10-05_19h48.49.254,vts_reward_expectancy,2022.2.4,Win32,168.2368775,Chrome,1536,864,,,,,0,1093,,,,,,,,,,,,,,,,,D,125,circle,0,1,,,,,,,,,,,,,,,,repeat,number,NA,k,Lo,,,,,,0.3655,4,,,,,,,,high,9,0,9,0,1,,,,,
293053,2022-10-05_19h48.49.254,vts_reward_expectancy,2022.2.4,Win32,168.2368775,Chrome,1536,864,,,,,0,1093,,,,,,,,,,,,,,,,,U,139,circle,0,1,,,,,,,,,,,,,,,,repeat,number,NA,k,Lo,,,,,,0.2318,4,,,,,,,,high,10,0,10,0,1,,,,,
293053,2022-10-05_19h48.49.254,vts_reward_expectancy,2022.2.4,Win32,168.2368775,Chrome,1536,864,,,,,1,1094,,,,,,,,,,,,,,,,,H,160,star,1,1,,,,,,,,,,,,,,,,repeat,number,numRpt,k,Lo,,,,,,0.2208,4,,,,,,,,high,11,0,11,0,1,,,,,
293053,2022-10-05_19h48.49.254,vts_reward_expectancy,2022.2.4,Win32,168.2368775,Chrome,1536,864,,,,,0,1094,,,,,,,,,,,,,,,,,W,174,circle,1,0,,,,,,,,,,,,,,,,repeat,number,numRpt,k,Hi,,,,,,0.2365,4,,,,,,,,high,12,0,12,0,1,,,,,
293053,2022-10-05_19h48.49.254,vts_reward_expectancy,2022.2.4,Win32,168.2368775,Chrome,1536,864,,,,,0,1094,,,,,,,,,,,,,,,,,Y,146,star,0,0,,,,,,,,,,,,,,,,repeat,number,NA,k,Hi,,,,,,0.2032,4,,,,,,,,high,13,0,13,0,1,,,,,
293053,2022-10-05_19h48.49.254,vts_reward_expectancy,2022.2.4,Win32,168.2368775,Chrome,1536,864,,,,,10,1104,,,,,,,,,,,,,,,,,S,181,circle,1,1,,,,,,,,,,,,,,,,repeat,number,numRpt,k,Hi,,,,,,0.2,4,,,,,,,,high,14,0,14,0,1,,,,,
293053,2022-10-05_19h48.49.254,vts_reward_expectancy,2022.2.4,Win32,168.2368775,Chrome,1536,864,,,,,0,1104,,,,,,,,,,,,,,,,,F,132,star,0,0,,,,,,,,,,,,,,,,repeat,number,NA,k,Hi,,,,,,0.2303,4,,,,,,,,high,15,0,15,0,1,,,,,
293053,2022-10-05_19h48.49.254,vts_reward_expectancy,2022.2.4,Win32,168.2368775,Chrome,1536,864,,,,,0,1104,,,,,,,,,,,,,,,,,H,125,circle,0,1,,,,,,,,,,,,,,,,repeat,number,NA,k,Hi,,,,,,0.2306,4,,,,,,,,high,16,0,16,0,1,,,,,
293053,2022-10-05_19h48.49.254,vts_reward_expectancy,2022.2.4,Win32,168.2368775,Chrome,1536,864,,,,,0,1104,,,,,,,,,,,,,,,,,F,132,star,0,1,,,,,,,,,,,,,,,,repeat,number,NA,k,Hi,,,,,,0.2313,4,,,,,,,,high,17,0,17,0,1,,,,,
293053,2022-10-05_19h48.49.254,vts_reward_expectancy,2022.2.4,Win32,168.2368775,Chrome,1536,864,,,,,0,1104,,,,,,,,,,,,,,,,,U,146,star,0,1,,,,,,,,,,,,,,,,repeat,number,NA,k,Hi,,,,,,0.1715,4,,,,,,,,high,18,0,18,0,1,,,,,
293053,2022-10-05_19h48.49.254,vts_reward_expectancy,2022.2.4,Win32,168.2368775,Chrome,1536,864,,,,,0,1104,,,,,,,,,,,,,,,,,D,167,circle,0,1,,,,,,,,,,,,,,,,repeat,number,NA,j,Hi,,,,,,0.2325,4,,,,,,,,high,19,0,19,0,1,,,,,
293053,2022-10-05_19h48.49.254,vts_reward_expectancy,2022.2.4,Win32,168.2368775,Chrome,1536,864,,,,,0,1104,,,,,,,,,,,,,,,,,W,174,circle,1,1,,,,,,,,,,,,,,,,repeat,number,numRpt,k,Hi,,,,,,0.2304,4,,,,,,,,high,20,0,20,0,1,,,,,
293053,2022-10-05_19h48.49.254,vts_reward_expectancy,2022.2.4,Win32,168.2368775,Chrome,1536,864,,,,,10,1114,,,,,,,,,,,,,,,,,Y,181,star,1,0,,,,,,,,,,,,,,,,repeat,number,numRpt,k,Lo,,,,,,0.2365,4,,,,,,,,high,21,0,21,0,1,,,,,
293053,2022-10-05_19h48.49.254,vts_reward_expectancy,2022.2.4,Win32,168.2368775,Chrome,1536,864,,,,,0,1114,,,,,,,,,,,,,,,,,S,160,circle,1,0,,,,,,,,,,,,,,,,repeat,number,numRpt,k,Hi,,,,,,0.2306,4,,,,,,,,high,22,0,22,0,1,,,,,
293053,2022-10-05_19h48.49.254,vts_reward_expectancy,2022.2.4,Win32,168.2368775,Chrome,1536,864,,,,,0,1114,,,,,,,,,,,,,,,,,B,139,star,0,0,,,,,,,,,,,,,,,,repeat,number,NA,k,Hi,,,,,,0.2245,4,,,,,,,,high,23,0,23,0,1,,,,,
293053,2022-10-05_19h48.49.254,vts_reward_expectancy,2022.2.4,Win32,168.2368775,Chrome,1536,864,,,,,0,1114,,,,,,,,,,,,,,,,,F,139,circle,0,1,,,,,,,,,,,,,,,,repeat,number,NA,k,Hi,,,,,,0.2873,4,,,,,,,,high,24,0,24,0,1,,,,,
293053,2022-10-05_19h48.49.254,vts_reward_expectancy,2022.2.4,Win32,168.2368775,Chrome,1536,864,,,,,10,1124,,,,,,,,,,,,,,,,,S,181,star,1,1,,,,,,,,,,,,,,,,repeat,number,numRpt,k,Lo,,,,,,0.1214,4,,,,,,,,high,25,0,25,0,1,,,,,
293053,2022-10-05_19h48.49.254,vts_reward_expectancy,2022.2.4,Win32,168.2368775,Chrome,1536,864,,,,,1,1125,,,,,,,,,,,,,,,,,D,167,circle,1,0,,,,,,,,,,,,,,,,repeat,number,numRpt,k,Hi,,,,,,0.1705,4,,,,,,,,high,26,0,26,0,1,,,,,
293053,2022-10-05_19h48.49.254,vts_reward_expectancy,2022.2.4,Win32,168.2368775,Chrome,1536,864,,,,,10,1135,,,,,,,,,,,,,,,,,B,160,star,1,0,,,,,,,,,,,,,,,,repeat,number,numRpt,k,Lo,,,,,,0.1112,4,,,,,,,,high,27,0,27,0,1,,,,,
293053,2022-10-05_19h48.49.254,vts_reward_expectancy,2022.2.4,Win32,168.2368775,Chrome,1536,864,,,,,0,1135,,,,,,,,,,,,,,,,,U,146,star,0,0,,,,,,,,,,,,,,,,repeat,number,NA,k,Lo,,,,,,0.2326,4,,,,,,,,high,28,0,28,0,1,,,,,
293053,2022-10-05_19h48.49.254,vts_reward_expectancy,2022.2.4,Win32,168.2368775,Chrome,1536,864,,,,,0,1135,,,,,,,,,,,,,,,,,W,125,circle,0,1,,,,,,,,,,,,,,,,repeat,number,NA,k,Lo,,,,,,0.2574,4,,,,,,,,high,29,0,29,0,1,,,,,
293053,2022-10-05_19h48.49.254,vts_reward_expectancy,2022.2.4,Win32,168.2368775,Chrome,1536,864,,,,,0,1135,,,,,,,,,,,,,,,,,Y,174,circle,1,1,,,,,,,,,,,,,,,,repeat,number,numRpt,k,Hi,,,,,,0.2896,4,,,,,,,,high,30,0,30,0,1,,,,,
293053,2022-10-05_19h48.49.254,vts_reward_expectancy,2022.2.4,Win32,168.2368775,Chrome,1536,864,,,,,0,1135,,,,,,,,,,,,,,,,,H,132,star,0,0,,,,,,,,,,,,,,,,repeat,number,NA,k,Hi,,,,,,0.1519,4,,,,,,,,high,31,0,31,0,1,,,,,
293053,2022-10-05_19h48.49.254,vts_reward_expectancy,2022.2.4,Win32,168.2368775,Chrome,1536,864,,,,,0,1135,,,,,,,,,,,,,,,,,Y,181,triangle,1,1,,,,,,,,,,,,,,,,repeat,number,numRpt,k,Hi,,,,,,1.4019,5,,,,,,space,0.9031,low,0,0,0,0,1,,,,,
293053,2022-10-05_19h48.49.254,vts_reward_expectancy,2022.2.4,Win32,168.2368775,Chrome,1536,864,,,,,0,1135,,,,,,,,,,,,,,,,,W,125,hexagon,0,0,,,,,,,,,,,,,,,,repeat,number,NA,k,Hi,,,,,,0.2275,5,,,,,,,,low,1,0,1,0,1,,,,,
293053,2022-10-05_19h48.49.254,vts_reward_expectancy,2022.2.4,Win32,168.2368775,Chrome,1536,864,,,,,0,1135,,,,,,,,,,,,,,,,,H,139,triangle,0,1,,,,,,,,,,,,,,,,repeat,number,NA,k,Hi,,,,,,0.261,5,,,,,,,,low,2,0,2,0,1,,,,,
293053,2022-10-05_19h48.49.254,vts_reward_expectancy,2022.2.4,Win32,168.2368775,Chrome,1536,864,,,,,1,1136,,,,,,,,,,,,,,,,,F,160,hexagon,1,1,,,,,,,,,,,,,,,,repeat,number,numRpt,k,Lo,,,,,,0.4858,5,,,,,,,,low,3,0,3,0,1,,,,,
293053,2022-10-05_19h48.49.254,vts_reward_expectancy,2022.2.4,Win32,168.2368775,Chrome,1536,864,,,,,0,1136,,,,,,,,,,,,,,,,,D,146,hexagon,0,0,,,,,,,,,,,,,,,,repeat,number,NA,k,Lo,,,,,,0.1713,5,,,,,,,,low,4,0,4,0,1,,,,,
293053,2022-10-05_19h48.49.254,vts_reward_expectancy,2022.2.4,Win32,168.2368775,Chrome,1536,864,,,,,0,1136,,,,,,,,,,,,,,,,,S,174,triangle,1,1,,,,,,,,,,,,,,,,repeat,number,numRpt,k,Hi,,,,,,0.2302,5,,,,,,,,low,5,0,5,0,1,,,,,
293053,2022-10-05_19h48.49.254,vts_reward_expectancy,2022.2.4,Win32,168.2368775,Chrome,1536,864,,,,,10,1146,,,,,,,,,,,,,,,,,U,167,triangle,1,0,,,,,,,,,,,,,,,,repeat,number,numRpt,k,Hi,,,,,,0.2059,5,,,,,,,,low,6,0,6,0,1,,,,,
293053,2022-10-05_19h48.49.254,vts_reward_expectancy,2022.2.4,Win32,168.2368775,Chrome,1536,864,,,,,0,1146,,,,,,,,,,,,,,,,,B,132,hexagon,0,0,,,,,,,,,,,,,,,,repeat,number,NA,k,Hi,,,,,,0.0939,5,,,,,,,,low,7,0,7,0,1,,,,,
293053,2022-10-05_19h48.49.254,vts_reward_expectancy,2022.2.4,Win32,168.2368775,Chrome,1536,864,,,,,10,1156,,,,,,,,,,,,,,,,,Y,181,triangle,1,1,,,,,,,,,,,,,,,,repeat,number,numRpt,k,Hi,,,,,,0.0028,5,,,,,,,,low,8,0,8,0,1,,,,,
293053,2022-10-05_19h48.49.254,vts_reward_expectancy,2022.2.4,Win32,168.2368775,Chrome,1536,864,,,,,0,1156,,,,,,,,,,,,,,,,,W,125,hexagon,0,0,,,,,,,,,,,,,,,,repeat,number,NA,k,Hi,,,,,,0.0003,5,,,,,,,,low,9,0,9,0,1,,,,,
293053,2022-10-05_19h48.49.254,vts_reward_expectancy,2022.2.4,Win32,168.2368775,Chrome,1536,864,,,,,0,1156,,,,,,,,,,,,,,,,,H,139,hexagon,0,1,,,,,,,,,,,,,,,,repeat,number,NA,k,Hi,,,,,,0.0206,5,,,,,,,,low,10,0,10,0,1,,,,,
293053,2022-10-05_19h48.49.254,vts_reward_expectancy,2022.2.4,Win32,168.2368775,Chrome,1536,864,,,,,1,1157,,,,,,,,,,,,,,,,,F,160,triangle,1,1,,,,,,,,,,,,,,,,repeat,number,numRpt,k,Hi,,,,,,0.1365,5,,,,,,,,low,11,0,11,0,1,,,,,
293053,2022-10-05_19h48.49.254,vts_reward_expectancy,2022.2.4,Win32,168.2368775,Chrome,1536,864,,,,,0,1157,,,,,,,,,,,,,,,,,D,146,hexagon,0,0,,,,,,,,,,,,,,,,repeat,number,NA,k,Hi,,,,,,0.0003,5,,,,,,,,low,12,0,12,0,1,,,,,
293053,2022-10-05_19h48.49.254,vts_reward_expectancy,2022.2.4,Win32,168.2368775,Chrome,1536,864,,,,,1,1158,,,,,,,,,,,,,,,,,S,174,triangle,1,1,,,,,,,,,,,,,,,,repeat,number,numRpt,k,Hi,,,,,,0.0245,5,,,,,,,,low,13,0,13,0,1,,,,,
293053,2022-10-05_19h48.49.254,vts_reward_expectancy,2022.2.4,Win32,168.2368775,Chrome,1536,864,,,,,0,1158,,,,,,,,,,,,,,,,,U,167,triangle,1,0,,,,,,,,,,,,,,,,repeat,number,numRpt,k,Hi,,,,,,0.5274,5,,,,,,,,low,14,0,14,0,1,,,,,
293053,2022-10-05_19h48.49.254,vts_reward_expectancy,2022.2.4,Win32,168.2368775,Chrome,1536,864,,,,,0,1158,,,,,,,,,,,,,,,,,B,132,hexagon,0,0,,,,,,,,,,,,,,,,repeat,number,NA,k,Hi,,,,,,0.2244,5,,,,,,,,low,15,0,15,0,1,,,,,
293053,2022-10-05_19h48.49.254,vts_reward_expectancy,2022.2.4,Win32,168.2368775,Chrome,1536,864,,,,,0,1158,,,,,,,,,,,,,,,,,D,125,hexagon,0,1,,,,,,,,,,,,,,,,repeat,number,NA,k,Hi,,,,,,0.2066,5,,,,,,,,low,16,0,16,0,1,,,,,
293053,2022-10-05_19h48.49.254,vts_reward_expectancy,2022.2.4,Win32,168.2368775,Chrome,1536,864,,,,,10,1168,,,,,,,,,,,,,,,,,B,160,triangle,1,1,,,,,,,,,,,,,,,,repeat,number,numRpt,k,Hi,,,,,,0.0855,5,,,,,,,,low,17,0,17,0,1,,,,,
293053,2022-10-05_19h48.49.254,vts_reward_expectancy,2022.2.4,Win32,168.2368775,Chrome,1536,864,,,,,1,1169,,,,,,,,,,,,,,,,,U,181,hexagon,1,0,,,,,,,,,,,,,,,,repeat,number,numRpt,k,Lo,,,,,,0.2303,5,,,,,,,,low,18,0,18,0,1,,,,,
293053,2022-10-05_19h48.49.254,vts_reward_expectancy,2022.2.4,Win32,168.2368775,Chrome,1536,864,,,,,0,1169,,,,,,,,,,,,,,,,,F,146,triangle,0,0,,,,,,,,,,,,,,,,repeat,number,NA,k,Lo,,,,,,0.2063,5,,,,,,,,low,19,0,19,0,1,,,,,
293053,2022-10-05_19h48.49.254,vts_reward_expectancy,2022.2.4,Win32,168.2368775,Chrome,1536,864,,,,,10,1179,,,,,,,,,,,,,,,,,H,167,hexagon,1,1,,,,,,,,,,,,,,,,repeat,number,numRpt,k,Lo,,,,,,0.1655,5,,,,,,,,low,20,0,20,0,1,,,,,
293053,2022-10-05_19h48.49.254,vts_reward_expectancy,2022.2.4,Win32,168.2368775,Chrome,1536,864,,,,,0,1179,,,,,,,,,,,,,,,,,S,132,triangle,0,0,,,,,,,,,,,,,,,,repeat,number,NA,k,Lo,,,,,,0.2063,5,,,,,,,,low,21,0,21,0,1,,,,,
293053,2022-10-05_19h48.49.254,vts_reward_expectancy,2022.2.4,Win32,168.2368775,Chrome,1536,864,,,,,1,1180,,,,,,,,,,,,,,,,,Y,174,triangle,1,1,,,,,,,,,,,,,,,,repeat,number,numRpt,k,Hi,,,,,,0.141,5,,,,,,,,low,22,0,22,0,1,,,,,
293053,2022-10-05_19h48.49.254,vts_reward_expectancy,2022.2.4,Win32,168.2368775,Chrome,1536,864,,,,,0,1180,,,,,,,,,,,,,,,,,W,139,hexagon,0,0,,,,,,,,,,,,,,,,repeat,number,NA,k,Hi,,,,,,0.0215,5,,,,,,,,low,23,0,23,0,1,,,,,
293053,2022-10-05_19h48.49.254,vts_reward_expectancy,2022.2.4,Win32,168.2368775,Chrome,1536,864,,,,,10,1190,,,,,,,,,,,,,,,,,B,167,triangle,1,1,,,,,,,,,,,,,,,,repeat,number,numRpt,k,Hi,,,,,,0.0677,5,,,,,,,,low,24,0,24,0,1,,,,,
293053,2022-10-05_19h48.49.254,vts_reward_expectancy,2022.2.4,Win32,168.2368775,Chrome,1536,864,,,,,1,1191,,,,,,,,,,,,,,,,,U,181,hexagon,1,0,,,,,,,,,,,,,,,,repeat,number,numRpt,k,Lo,,,,,,0.1335,5,,,,,,,,low,25,0,25,0,1,,,,,
293053,2022-10-05_19h48.49.254,vts_reward_expectancy,2022.2.4,Win32,168.2368775,Chrome,1536,864,,,,,0,1191,,,,,,,,,,,,,,,,,F,132,triangle,0,0,,,,,,,,,,,,,,,,repeat,number,NA,k,Lo,,,,,,0.1589,5,,,,,,,,low,26,0,26,0,1,,,,,
293053,2022-10-05_19h48.49.254,vts_reward_expectancy,2022.2.4,Win32,168.2368775,Chrome,1536,864,,,,,0,1191,,,,,,,,,,,,,,,,,S,139,hexagon,0,1,,,,,,,,,,,,,,,,repeat,number,NA,k,Lo,,,,,,0.1459,5,,,,,,,,low,27,0,27,0,1,,,,,
293053,2022-10-05_19h48.49.254,vts_reward_expectancy,2022.2.4,Win32,168.2368775,Chrome,1536,864,,,,,10,1201,,,,,,,,,,,,,,,,,W,160,triangle,1,1,,,,,,,,,,,,,,,,repeat,number,numRpt,k,Hi,,,,,,0.0928,5,,,,,,,,low,28,0,28,0,1,,,,,
293053,2022-10-05_19h48.49.254,vts_reward_expectancy,2022.2.4,Win32,168.2368775,Chrome,1536,864,,,,,0,1201,,,,,,,,,,,,,,,,,H,125,hexagon,0,0,,,,,,,,,,,,,,,,repeat,number,NA,k,Hi,,,,,,0.0123,5,,,,,,,,low,29,0,29,0,1,,,,,
293053,2022-10-05_19h48.49.254,vts_reward_expectancy,2022.2.4,Win32,168.2368775,Chrome,1536,864,,,,,10,1211,,,,,,,,,,,,,,,,,Y,174,hexagon,1,1,,,,,,,,,,,,,,,,repeat,number,numRpt,k,Lo,,,,,,0.0791,5,,,,,,,,low,30,0,30,0,1,,,,,
293053,2022-10-05_19h48.49.254,vts_reward_expectancy,2022.2.4,Win32,168.2368775,Chrome,1536,864,,,,,0,1211,,,,,,,,,,,,,,,,,D,146,triangle,1,0,,,,,,,,,,,,,,,,repeat,number,numRpt,j,Hi,,,,,,0.2063,5,,,,,,,,low,31,0,31,0,1,,,,,
293053,2022-10-05_19h48.49.254,vts_reward_expectancy,2022.2.4,Win32,168.2368775,Chrome,1536,864,,,,,,,,,,,,,,,,,,,,,,,,,,,,,,,,,,,,,,,,,,,,,,,,,,,,,,6,,,,,,,,,,,,,,I was asked to choose shapes and determine value through trial and error. ,,,1536,864
