participant,date,expName,psychopyVersion,OS,frameRate,browser,xResolution,yResolution,key_resp.keys,key_resp.rt,training_resp.keys,training_resp.rt,points_trial,points_cumul,trainBlock,training.thisRepN,training.thisTrialN,training.thisN,training.thisIndex,training.ran,LTriangleOpac,LCircleOpac,LHexagonOpac,LStarOpac,RTriangleOpac,RCircleOpac,RHexagonOpac,RStarOpac,LShape_ID,RShape_ID,curr_topStim,curr_bottStim,curr_shape,acc,E1,target_resp_prac1.keys,target_resp_prac1.rt,pracBlock,task1_prac_trials.thisRepN,task1_prac_trials.thisTrialN,task1_prac_trials.thisN,task1_prac_trials.thisIndex,task1_prac_trials.ran,target_resp_prac2.keys,target_resp_prac2.rt,task2_praac_trials.thisRepN,task2_praac_trials.thisTrialN,task2_praac_trials.thisN,task2_praac_trials.thisIndex,task2_praac_trials.ran,alt,task,condition,target_resp.keys,target_resp.rt,rewCond,vts_practice_trials.thisRepN,vts_practice_trials.thisTrialN,vts_practice_trials.thisN,vts_practice_trials.thisIndex,vts_practice_trials.ran,blockNum,trials_norew.thisRepN,trials_norew.thisTrialN,trials_norew.thisN,trials_norew.thisIndex,trials_norew.ran,key_resp_2.keys,key_resp_2.rt,rewExpect,trials_rew.thisRepN,trials_rew.thisTrialN,trials_rew.thisN,trials_rew.thisIndex,trials_rew.ran,Q1,Q2,Q2_text,Q3,Q4,Q5_text,Q5,xRes,yRes
296734,2022-09-21_14h45.00.598,vts_reward_expectancy,2022.2.4,Win32,60.0240096,Chrome,1366,768,,,,,,,,,,,,,,,,,,,,,,,,,,,,,,,,,,,,,,,,,,,,,,,,,,,,,,,,,,,,,,,,,,,,,,,,,,,,
296734,2022-09-21_14h45.00.598,vts_reward_expectancy,2022.2.4,Win32,60.0240096,Chrome,1366,768,space,20.9652,,,,,,,,,,,,,,,,,,,,,,,,,,,,,,,,,,,,,,,,,,,,,,,,,,,,,,,,,,,,,,,,,,,,,,,,,,
296734,2022-09-21_14h45.00.598,vts_reward_expectancy,2022.2.4,Win32,60.0240096,Chrome,1366,768,,,,,,,,,,,,,,,,,,,,,,,,,,,,,,,,,,,,,,,,,,,,,,,,,,,,,,,,,,,,,,,,,,,,,,,,,,,,
296734,2022-09-21_14h45.00.598,vts_reward_expectancy,2022.2.4,Win32,60.0240096,Chrome,1366,768,,,a,2.0269,1,1,0,0,0,0,9,1,0,0,0,1,1,0,0,0,star,triangle,,,,,,,,,,,,,,,,,,,,,,,,,,,,,,,,,,,,,,,,,,,,,,,,,,,,,,
296734,2022-09-21_14h45.00.598,vts_reward_expectancy,2022.2.4,Win32,60.0240096,Chrome,1366,768,,,a,2.3353,10,11,0,0,1,1,2,1,1,0,0,0,0,0,0,1,triangle,star,,,,,,,,,,,,,,,,,,,,,,,,,,,,,,,,,,,,,,,,,,,,,,,,,,,,,,
296734,2022-09-21_14h45.00.598,vts_reward_expectancy,2022.2.4,Win32,60.0240096,Chrome,1366,768,,,a,3.0459,10,21,0,0,2,2,11,1,0,0,0,1,0,0,1,0,star,hexagon,,,,,,,,,,,,,,,,,,,,,,,,,,,,,,,,,,,,,,,,,,,,,,,,,,,,,,
296734,2022-09-21_14h45.00.598,vts_reward_expectancy,2022.2.4,Win32,60.0240096,Chrome,1366,768,,,a,0.7144,10,31,0,0,3,3,8,1,0,0,1,0,0,0,0,1,hexagon,star,,,,,,,,,,,,,,,,,,,,,,,,,,,,,,,,,,,,,,,,,,,,,,,,,,,,,,
296734,2022-09-21_14h45.00.598,vts_reward_expectancy,2022.2.4,Win32,60.0240096,Chrome,1366,768,,,a,2.3506,1,32,0,0,4,4,4,1,0,1,0,0,0,0,1,0,circle,hexagon,,,,,,,,,,,,,,,,,,,,,,,,,,,,,,,,,,,,,,,,,,,,,,,,,,,,,,
296734,2022-09-21_14h45.00.598,vts_reward_expectancy,2022.2.4,Win32,60.0240096,Chrome,1366,768,,,a,1.2425,10,42,0,0,5,5,7,1,0,0,1,0,0,1,0,0,hexagon,circle,,,,,,,,,,,,,,,,,,,,,,,,,,,,,,,,,,,,,,,,,,,,,,,,,,,,,,
296734,2022-09-21_14h45.00.598,vts_reward_expectancy,2022.2.4,Win32,60.0240096,Chrome,1366,768,,,a,2.2076,10,52,0,0,6,6,1,1,1,0,0,0,0,0,1,0,triangle,hexagon,,,,,,,,,,,,,,,,,,,,,,,,,,,,,,,,,,,,,,,,,,,,,,,,,,,,,,
296734,2022-09-21_14h45.00.598,vts_reward_expectancy,2022.2.4,Win32,60.0240096,Chrome,1366,768,,,l,1.2254,10,62,0,0,7,7,3,1,0,1,0,0,1,0,0,0,circle,triangle,,,,,,,,,,,,,,,,,,,,,,,,,,,,,,,,,,,,,,,,,,,,,,,,,,,,,,
296734,2022-09-21_14h45.00.598,vts_reward_expectancy,2022.2.4,Win32,60.0240096,Chrome,1366,768,,,a,3.4841,1,63,0,0,8,8,5,1,0,1,0,0,0,0,0,1,circle,star,,,,,,,,,,,,,,,,,,,,,,,,,,,,,,,,,,,,,,,,,,,,,,,,,,,,,,
296734,2022-09-21_14h45.00.598,vts_reward_expectancy,2022.2.4,Win32,60.0240096,Chrome,1366,768,,,a,1.2515,10,73,0,0,9,9,0,1,1,0,0,0,0,1,0,0,triangle,circle,,,,,,,,,,,,,,,,,,,,,,,,,,,,,,,,,,,,,,,,,,,,,,,,,,,,,,
296734,2022-09-21_14h45.00.598,vts_reward_expectancy,2022.2.4,Win32,60.0240096,Chrome,1366,768,,,a,2.0177,10,83,0,0,10,10,10,1,0,0,0,1,0,1,0,0,star ,circle,,,,,,,,,,,,,,,,,,,,,,,,,,,,,,,,,,,,,,,,,,,,,,,,,,,,,,
296734,2022-09-21_14h45.00.598,vts_reward_expectancy,2022.2.4,Win32,60.0240096,Chrome,1366,768,,,l,1.6028,10,93,0,0,11,11,6,1,0,0,1,0,1,0,0,0,hexagon,triangle,,,,,,,,,,,,,,,,,,,,,,,,,,,,,,,,,,,,,,,,,,,,,,,,,,,,,,
296734,2022-09-21_14h45.00.598,vts_reward_expectancy,2022.2.4,Win32,60.0240096,Chrome,1366,768,,,a,1.233,10,103,0,1,0,12,2,1,1,0,0,0,0,0,0,1,triangle,star,,,,,,,,,,,,,,,,,,,,,,,,,,,,,,,,,,,,,,,,,,,,,,,,,,,,,,
296734,2022-09-21_14h45.00.598,vts_reward_expectancy,2022.2.4,Win32,60.0240096,Chrome,1366,768,,,l,1.1639,10,113,0,1,1,13,3,1,0,1,0,0,1,0,0,0,circle,triangle,,,,,,,,,,,,,,,,,,,,,,,,,,,,,,,,,,,,,,,,,,,,,,,,,,,,,,
296734,2022-09-21_14h45.00.598,vts_reward_expectancy,2022.2.4,Win32,60.0240096,Chrome,1366,768,,,a,3.097,1,114,0,1,2,14,7,1,0,0,1,0,0,1,0,0,hexagon,circle,,,,,,,,,,,,,,,,,,,,,,,,,,,,,,,,,,,,,,,,,,,,,,,,,,,,,,
296734,2022-09-21_14h45.00.598,vts_reward_expectancy,2022.2.4,Win32,60.0240096,Chrome,1366,768,,,l,1.0575,10,124,0,1,3,15,6,1,0,0,1,0,1,0,0,0,hexagon,triangle,,,,,,,,,,,,,,,,,,,,,,,,,,,,,,,,,,,,,,,,,,,,,,,,,,,,,,
296734,2022-09-21_14h45.00.598,vts_reward_expectancy,2022.2.4,Win32,60.0240096,Chrome,1366,768,,,l,1.654,1,125,0,1,4,16,11,1,0,0,0,1,0,0,1,0,star,hexagon,,,,,,,,,,,,,,,,,,,,,,,,,,,,,,,,,,,,,,,,,,,,,,,,,,,,,,
296734,2022-09-21_14h45.00.598,vts_reward_expectancy,2022.2.4,Win32,60.0240096,Chrome,1366,768,,,a,2.1511,1,126,0,1,5,17,4,1,0,1,0,0,0,0,1,0,circle,hexagon,,,,,,,,,,,,,,,,,,,,,,,,,,,,,,,,,,,,,,,,,,,,,,,,,,,,,,
296734,2022-09-21_14h45.00.598,vts_reward_expectancy,2022.2.4,Win32,60.0240096,Chrome,1366,768,,,l,0.8346,10,136,0,1,6,18,9,1,0,0,0,1,1,0,0,0,star,triangle,,,,,,,,,,,,,,,,,,,,,,,,,,,,,,,,,,,,,,,,,,,,,,,,,,,,,,
296734,2022-09-21_14h45.00.598,vts_reward_expectancy,2022.2.4,Win32,60.0240096,Chrome,1366,768,,,l,1.1786,1,137,0,1,7,19,5,1,0,1,0,0,0,0,0,1,circle,star,,,,,,,,,,,,,,,,,,,,,,,,,,,,,,,,,,,,,,,,,,,,,,,,,,,,,,
296734,2022-09-21_14h45.00.598,vts_reward_expectancy,2022.2.4,Win32,60.0240096,Chrome,1366,768,,,l,1.2389,1,138,0,1,8,20,8,1,0,0,1,0,0,0,0,1,hexagon,star,,,,,,,,,,,,,,,,,,,,,,,,,,,,,,,,,,,,,,,,,,,,,,,,,,,,,,
296734,2022-09-21_14h45.00.598,vts_reward_expectancy,2022.2.4,Win32,60.0240096,Chrome,1366,768,,,a,1.0852,10,148,0,1,9,21,1,1,1,0,0,0,0,0,1,0,triangle,hexagon,,,,,,,,,,,,,,,,,,,,,,,,,,,,,,,,,,,,,,,,,,,,,,,,,,,,,,
296734,2022-09-21_14h45.00.598,vts_reward_expectancy,2022.2.4,Win32,60.0240096,Chrome,1366,768,,,a,1.5135,1,149,0,1,10,22,0,1,1,0,0,0,0,1,0,0,triangle,circle,,,,,,,,,,,,,,,,,,,,,,,,,,,,,,,,,,,,,,,,,,,,,,,,,,,,,,
296734,2022-09-21_14h45.00.598,vts_reward_expectancy,2022.2.4,Win32,60.0240096,Chrome,1366,768,,,l,1.1561,1,150,0,1,11,23,10,1,0,0,0,1,0,1,0,0,star ,circle,,,,,,,,,,,,,,,,,,,,,,,,,,,,,,,,,,,,,,,,,,,,,,,,,,,,,,
296734,2022-09-21_14h45.00.598,vts_reward_expectancy,2022.2.4,Win32,60.0240096,Chrome,1366,768,,,a,0.8655,10,160,0,2,0,24,8,1,0,0,1,0,0,0,0,1,hexagon,star,,,,,,,,,,,,,,,,,,,,,,,,,,,,,,,,,,,,,,,,,,,,,,,,,,,,,,
296734,2022-09-21_14h45.00.598,vts_reward_expectancy,2022.2.4,Win32,60.0240096,Chrome,1366,768,,,l,2.9651,1,161,0,2,1,25,4,1,0,1,0,0,0,0,1,0,circle,hexagon,,,,,,,,,,,,,,,,,,,,,,,,,,,,,,,,,,,,,,,,,,,,,,,,,,,,,,
296734,2022-09-21_14h45.00.598,vts_reward_expectancy,2022.2.4,Win32,60.0240096,Chrome,1366,768,,,a,2.0569,1,162,0,2,2,26,10,1,0,0,0,1,0,1,0,0,star ,circle,,,,,,,,,,,,,,,,,,,,,,,,,,,,,,,,,,,,,,,,,,,,,,,,,,,,,,
296734,2022-09-21_14h45.00.598,vts_reward_expectancy,2022.2.4,Win32,60.0240096,Chrome,1366,768,,,l,0.9822,10,172,0,2,3,27,7,1,0,0,1,0,0,1,0,0,hexagon,circle,,,,,,,,,,,,,,,,,,,,,,,,,,,,,,,,,,,,,,,,,,,,,,,,,,,,,,
296734,2022-09-21_14h45.00.598,vts_reward_expectancy,2022.2.4,Win32,60.0240096,Chrome,1366,768,,,l,2.3842,1,173,0,2,4,28,1,1,1,0,0,0,0,0,1,0,triangle,hexagon,,,,,,,,,,,,,,,,,,,,,,,,,,,,,,,,,,,,,,,,,,,,,,,,,,,,,,
296734,2022-09-21_14h45.00.598,vts_reward_expectancy,2022.2.4,Win32,60.0240096,Chrome,1366,768,,,l,1.0506,10,183,0,2,5,29,6,1,0,0,1,0,1,0,0,0,hexagon,triangle,,,,,,,,,,,,,,,,,,,,,,,,,,,,,,,,,,,,,,,,,,,,,,,,,,,,,,
296734,2022-09-21_14h45.00.598,vts_reward_expectancy,2022.2.4,Win32,60.0240096,Chrome,1366,768,,,a,1.99,1,184,0,2,6,30,2,1,1,0,0,0,0,0,0,1,triangle,star,,,,,,,,,,,,,,,,,,,,,,,,,,,,,,,,,,,,,,,,,,,,,,,,,,,,,,
296734,2022-09-21_14h45.00.598,vts_reward_expectancy,2022.2.4,Win32,60.0240096,Chrome,1366,768,,,l,1.4843,10,194,0,2,7,31,11,1,0,0,0,1,0,0,1,0,star,hexagon,,,,,,,,,,,,,,,,,,,,,,,,,,,,,,,,,,,,,,,,,,,,,,,,,,,,,,
296734,2022-09-21_14h45.00.598,vts_reward_expectancy,2022.2.4,Win32,60.0240096,Chrome,1366,768,,,a,1.9606,1,195,0,2,8,32,3,1,0,1,0,0,1,0,0,0,circle,triangle,,,,,,,,,,,,,,,,,,,,,,,,,,,,,,,,,,,,,,,,,,,,,,,,,,,,,,
296734,2022-09-21_14h45.00.598,vts_reward_expectancy,2022.2.4,Win32,60.0240096,Chrome,1366,768,,,a,3.1671,1,196,0,2,9,33,9,1,0,0,0,1,1,0,0,0,star,triangle,,,,,,,,,,,,,,,,,,,,,,,,,,,,,,,,,,,,,,,,,,,,,,,,,,,,,,
296734,2022-09-21_14h45.00.598,vts_reward_expectancy,2022.2.4,Win32,60.0240096,Chrome,1366,768,,,l,5.1503,10,206,0,2,10,34,0,1,1,0,0,0,0,1,0,0,triangle,circle,,,,,,,,,,,,,,,,,,,,,,,,,,,,,,,,,,,,,,,,,,,,,,,,,,,,,,
296734,2022-09-21_14h45.00.598,vts_reward_expectancy,2022.2.4,Win32,60.0240096,Chrome,1366,768,,,a,2.8511,10,216,0,2,11,35,5,1,0,1,0,0,0,0,0,1,circle,star,,,,,,,,,,,,,,,,,,,,,,,,,,,,,,,,,,,,,,,,,,,,,,,,,,,,,,
296734,2022-09-21_14h45.00.598,vts_reward_expectancy,2022.2.4,Win32,60.0240096,Chrome,1366,768,,,l,1.9671,1,217,1,0,0,0,4,1,0,1,0,0,0,0,1,0,circle,hexagon,,,,,,,,,,,,,,,,,,,,,,,,,,,,,,,,,,,,,,,,,,,,,,,,,,,,,,
296734,2022-09-21_14h45.00.598,vts_reward_expectancy,2022.2.4,Win32,60.0240096,Chrome,1366,768,,,a,1.3433,10,227,1,0,1,1,2,1,1,0,0,0,0,0,0,1,triangle,star,,,,,,,,,,,,,,,,,,,,,,,,,,,,,,,,,,,,,,,,,,,,,,,,,,,,,,
296734,2022-09-21_14h45.00.598,vts_reward_expectancy,2022.2.4,Win32,60.0240096,Chrome,1366,768,,,a,2.5526,1,228,1,0,2,2,8,1,0,0,1,0,0,0,0,1,hexagon,star,,,,,,,,,,,,,,,,,,,,,,,,,,,,,,,,,,,,,,,,,,,,,,,,,,,,,,
296734,2022-09-21_14h45.00.598,vts_reward_expectancy,2022.2.4,Win32,60.0240096,Chrome,1366,768,,,a,1.5897,1,229,1,0,3,3,11,1,0,0,0,1,0,0,1,0,star,hexagon,,,,,,,,,,,,,,,,,,,,,,,,,,,,,,,,,,,,,,,,,,,,,,,,,,,,,,
296734,2022-09-21_14h45.00.598,vts_reward_expectancy,2022.2.4,Win32,60.0240096,Chrome,1366,768,,,l,1.6631,10,239,1,0,4,4,10,1,0,0,0,1,0,1,0,0,star ,circle,,,,,,,,,,,,,,,,,,,,,,,,,,,,,,,,,,,,,,,,,,,,,,,,,,,,,,
296734,2022-09-21_14h45.00.598,vts_reward_expectancy,2022.2.4,Win32,60.0240096,Chrome,1366,768,,,l,2.8671,10,249,1,0,5,5,0,1,1,0,0,0,0,1,0,0,triangle,circle,,,,,,,,,,,,,,,,,,,,,,,,,,,,,,,,,,,,,,,,,,,,,,,,,,,,,,
296734,2022-09-21_14h45.00.598,vts_reward_expectancy,2022.2.4,Win32,60.0240096,Chrome,1366,768,,,l,4.6112,1,250,1,0,6,6,5,1,0,1,0,0,0,0,0,1,circle,star,,,,,,,,,,,,,,,,,,,,,,,,,,,,,,,,,,,,,,,,,,,,,,,,,,,,,,
296734,2022-09-21_14h45.00.598,vts_reward_expectancy,2022.2.4,Win32,60.0240096,Chrome,1366,768,,,l,1.5674,10,260,1,0,7,7,3,1,0,1,0,0,1,0,0,0,circle,triangle,,,,,,,,,,,,,,,,,,,,,,,,,,,,,,,,,,,,,,,,,,,,,,,,,,,,,,
296734,2022-09-21_14h45.00.598,vts_reward_expectancy,2022.2.4,Win32,60.0240096,Chrome,1366,768,,,a,1.4673,10,270,1,0,8,8,7,1,0,0,1,0,0,1,0,0,hexagon,circle,,,,,,,,,,,,,,,,,,,,,,,,,,,,,,,,,,,,,,,,,,,,,,,,,,,,,,
296734,2022-09-21_14h45.00.598,vts_reward_expectancy,2022.2.4,Win32,60.0240096,Chrome,1366,768,,,l,1.2355,10,280,1,0,9,9,9,1,0,0,0,1,1,0,0,0,star,triangle,,,,,,,,,,,,,,,,,,,,,,,,,,,,,,,,,,,,,,,,,,,,,,,,,,,,,,
296734,2022-09-21_14h45.00.598,vts_reward_expectancy,2022.2.4,Win32,60.0240096,Chrome,1366,768,,,l,1.8059,1,281,1,0,10,10,1,1,1,0,0,0,0,0,1,0,triangle,hexagon,,,,,,,,,,,,,,,,,,,,,,,,,,,,,,,,,,,,,,,,,,,,,,,,,,,,,,
296734,2022-09-21_14h45.00.598,vts_reward_expectancy,2022.2.4,Win32,60.0240096,Chrome,1366,768,,,a,1.2174,1,282,1,0,11,11,6,1,0,0,1,0,1,0,0,0,hexagon,triangle,,,,,,,,,,,,,,,,,,,,,,,,,,,,,,,,,,,,,,,,,,,,,,,,,,,,,,
296734,2022-09-21_14h45.00.598,vts_reward_expectancy,2022.2.4,Win32,60.0240096,Chrome,1366,768,,,l,1.5266,10,292,1,1,0,12,9,1,0,0,0,1,1,0,0,0,star,triangle,,,,,,,,,,,,,,,,,,,,,,,,,,,,,,,,,,,,,,,,,,,,,,,,,,,,,,
296734,2022-09-21_14h45.00.598,vts_reward_expectancy,2022.2.4,Win32,60.0240096,Chrome,1366,768,,,l,3.07,10,302,1,1,1,13,0,1,1,0,0,0,0,1,0,0,triangle,circle,,,,,,,,,,,,,,,,,,,,,,,,,,,,,,,,,,,,,,,,,,,,,,,,,,,,,,
296734,2022-09-21_14h45.00.598,vts_reward_expectancy,2022.2.4,Win32,60.0240096,Chrome,1366,768,,,a,2.5503,1,303,1,1,2,14,6,1,0,0,1,0,1,0,0,0,hexagon,triangle,,,,,,,,,,,,,,,,,,,,,,,,,,,,,,,,,,,,,,,,,,,,,,,,,,,,,,
296734,2022-09-21_14h45.00.598,vts_reward_expectancy,2022.2.4,Win32,60.0240096,Chrome,1366,768,,,a,2.0681,10,313,1,1,3,15,2,1,1,0,0,0,0,0,0,1,triangle,star,,,,,,,,,,,,,,,,,,,,,,,,,,,,,,,,,,,,,,,,,,,,,,,,,,,,,,
296734,2022-09-21_14h45.00.598,vts_reward_expectancy,2022.2.4,Win32,60.0240096,Chrome,1366,768,,,l,4.0176,1,314,1,1,4,16,1,1,1,0,0,0,0,0,1,0,triangle,hexagon,,,,,,,,,,,,,,,,,,,,,,,,,,,,,,,,,,,,,,,,,,,,,,,,,,,,,,
296734,2022-09-21_14h45.00.598,vts_reward_expectancy,2022.2.4,Win32,60.0240096,Chrome,1366,768,,,a,2.0068,10,324,1,1,5,17,4,1,0,1,0,0,0,0,1,0,circle,hexagon,,,,,,,,,,,,,,,,,,,,,,,,,,,,,,,,,,,,,,,,,,,,,,,,,,,,,,
296734,2022-09-21_14h45.00.598,vts_reward_expectancy,2022.2.4,Win32,60.0240096,Chrome,1366,768,,,l,1.5881,1,325,1,1,6,18,11,1,0,0,0,1,0,0,1,0,star,hexagon,,,,,,,,,,,,,,,,,,,,,,,,,,,,,,,,,,,,,,,,,,,,,,,,,,,,,,
296734,2022-09-21_14h45.00.598,vts_reward_expectancy,2022.2.4,Win32,60.0240096,Chrome,1366,768,,,l,1.3345,1,326,1,1,7,19,7,1,0,0,1,0,0,1,0,0,hexagon,circle,,,,,,,,,,,,,,,,,,,,,,,,,,,,,,,,,,,,,,,,,,,,,,,,,,,,,,
296734,2022-09-21_14h45.00.598,vts_reward_expectancy,2022.2.4,Win32,60.0240096,Chrome,1366,768,,,a,1.735,10,336,1,1,8,20,3,1,0,1,0,0,1,0,0,0,circle,triangle,,,,,,,,,,,,,,,,,,,,,,,,,,,,,,,,,,,,,,,,,,,,,,,,,,,,,,
296734,2022-09-21_14h45.00.598,vts_reward_expectancy,2022.2.4,Win32,60.0240096,Chrome,1366,768,,,l,1.201,1,337,1,1,9,21,10,1,0,0,0,1,0,1,0,0,star ,circle,,,,,,,,,,,,,,,,,,,,,,,,,,,,,,,,,,,,,,,,,,,,,,,,,,,,,,
296734,2022-09-21_14h45.00.598,vts_reward_expectancy,2022.2.4,Win32,60.0240096,Chrome,1366,768,,,a,1.4508,1,338,1,1,10,22,8,1,0,0,1,0,0,0,0,1,hexagon,star,,,,,,,,,,,,,,,,,,,,,,,,,,,,,,,,,,,,,,,,,,,,,,,,,,,,,,
296734,2022-09-21_14h45.00.598,vts_reward_expectancy,2022.2.4,Win32,60.0240096,Chrome,1366,768,,,l,1.1176,1,339,1,1,11,23,5,1,0,1,0,0,0,0,0,1,circle,star,,,,,,,,,,,,,,,,,,,,,,,,,,,,,,,,,,,,,,,,,,,,,,,,,,,,,,
296734,2022-09-21_14h45.00.598,vts_reward_expectancy,2022.2.4,Win32,60.0240096,Chrome,1366,768,,,l,1.4745,10,349,1,2,0,24,11,1,0,0,0,1,0,0,1,0,star,hexagon,,,,,,,,,,,,,,,,,,,,,,,,,,,,,,,,,,,,,,,,,,,,,,,,,,,,,,
296734,2022-09-21_14h45.00.598,vts_reward_expectancy,2022.2.4,Win32,60.0240096,Chrome,1366,768,,,l,0.3512,10,359,1,2,1,25,9,1,0,0,0,1,1,0,0,0,star,triangle,,,,,,,,,,,,,,,,,,,,,,,,,,,,,,,,,,,,,,,,,,,,,,,,,,,,,,
296734,2022-09-21_14h45.00.598,vts_reward_expectancy,2022.2.4,Win32,60.0240096,Chrome,1366,768,,,l,0.3411,10,369,1,2,2,26,0,1,1,0,0,0,0,1,0,0,triangle,circle,,,,,,,,,,,,,,,,,,,,,,,,,,,,,,,,,,,,,,,,,,,,,,,,,,,,,,
296734,2022-09-21_14h45.00.598,vts_reward_expectancy,2022.2.4,Win32,60.0240096,Chrome,1366,768,,,l,0.584,10,379,1,2,3,27,6,1,0,0,1,0,1,0,0,0,hexagon,triangle,,,,,,,,,,,,,,,,,,,,,,,,,,,,,,,,,,,,,,,,,,,,,,,,,,,,,,
296734,2022-09-21_14h45.00.598,vts_reward_expectancy,2022.2.4,Win32,60.0240096,Chrome,1366,768,,,l,0.1546,1,380,1,2,4,28,2,1,1,0,0,0,0,0,0,1,triangle,star,,,,,,,,,,,,,,,,,,,,,,,,,,,,,,,,,,,,,,,,,,,,,,,,,,,,,,
296734,2022-09-21_14h45.00.598,vts_reward_expectancy,2022.2.4,Win32,60.0240096,Chrome,1366,768,,,a,0.4838,1,381,1,2,5,29,1,1,1,0,0,0,0,0,1,0,triangle,hexagon,,,,,,,,,,,,,,,,,,,,,,,,,,,,,,,,,,,,,,,,,,,,,,,,,,,,,,
296734,2022-09-21_14h45.00.598,vts_reward_expectancy,2022.2.4,Win32,60.0240096,Chrome,1366,768,,,l,0.3507,1,382,1,2,6,30,5,1,0,1,0,0,0,0,0,1,circle,star,,,,,,,,,,,,,,,,,,,,,,,,,,,,,,,,,,,,,,,,,,,,,,,,,,,,,,
296734,2022-09-21_14h45.00.598,vts_reward_expectancy,2022.2.4,Win32,60.0240096,Chrome,1366,768,,,l,0.3178,10,392,1,2,7,31,3,1,0,1,0,0,1,0,0,0,circle,triangle,,,,,,,,,,,,,,,,,,,,,,,,,,,,,,,,,,,,,,,,,,,,,,,,,,,,,,
296734,2022-09-21_14h45.00.598,vts_reward_expectancy,2022.2.4,Win32,60.0240096,Chrome,1366,768,,,l,0.349,10,402,1,2,8,32,7,1,0,0,1,0,0,1,0,0,hexagon,circle,,,,,,,,,,,,,,,,,,,,,,,,,,,,,,,,,,,,,,,,,,,,,,,,,,,,,,
296734,2022-09-21_14h45.00.598,vts_reward_expectancy,2022.2.4,Win32,60.0240096,Chrome,1366,768,,,l,0.5676,10,412,1,2,9,33,4,1,0,1,0,0,0,0,1,0,circle,hexagon,,,,,,,,,,,,,,,,,,,,,,,,,,,,,,,,,,,,,,,,,,,,,,,,,,,,,,
296734,2022-09-21_14h45.00.598,vts_reward_expectancy,2022.2.4,Win32,60.0240096,Chrome,1366,768,,,l,0.4212,10,422,1,2,10,34,10,1,0,0,0,1,0,1,0,0,star ,circle,,,,,,,,,,,,,,,,,,,,,,,,,,,,,,,,,,,,,,,,,,,,,,,,,,,,,,
296734,2022-09-21_14h45.00.598,vts_reward_expectancy,2022.2.4,Win32,60.0240096,Chrome,1366,768,,,l,1.1071,1,423,1,2,11,35,8,1,0,0,1,0,0,0,0,1,hexagon,star,,,,,,,,,,,,,,,,,,,,,,,,,,,,,,,,,,,,,,,,,,,,,,,,,,,,,,
296734,2022-09-21_14h45.00.598,vts_reward_expectancy,2022.2.4,Win32,60.0240096,Chrome,1366,768,,,l,1.3508,1,424,2,0,0,0,0,1,1,0,0,0,0,1,0,0,triangle,circle,,,,,,,,,,,,,,,,,,,,,,,,,,,,,,,,,,,,,,,,,,,,,,,,,,,,,,
296734,2022-09-21_14h45.00.598,vts_reward_expectancy,2022.2.4,Win32,60.0240096,Chrome,1366,768,,,l,0.271,10,434,2,0,1,1,9,1,0,0,0,1,1,0,0,0,star,triangle,,,,,,,,,,,,,,,,,,,,,,,,,,,,,,,,,,,,,,,,,,,,,,,,,,,,,,
296734,2022-09-21_14h45.00.598,vts_reward_expectancy,2022.2.4,Win32,60.0240096,Chrome,1366,768,,,l,0.3511,1,435,2,0,2,2,11,1,0,0,0,1,0,0,1,0,star,hexagon,,,,,,,,,,,,,,,,,,,,,,,,,,,,,,,,,,,,,,,,,,,,,,,,,,,,,,
296734,2022-09-21_14h45.00.598,vts_reward_expectancy,2022.2.4,Win32,60.0240096,Chrome,1366,768,,,l,2.1119,10,445,2,0,3,3,4,1,0,1,0,0,0,0,1,0,circle,hexagon,,,,,,,,,,,,,,,,,,,,,,,,,,,,,,,,,,,,,,,,,,,,,,,,,,,,,,
296734,2022-09-21_14h45.00.598,vts_reward_expectancy,2022.2.4,Win32,60.0240096,Chrome,1366,768,,,l,1.1247,1,446,2,0,4,4,5,1,0,1,0,0,0,0,0,1,circle,star,,,,,,,,,,,,,,,,,,,,,,,,,,,,,,,,,,,,,,,,,,,,,,,,,,,,,,
296734,2022-09-21_14h45.00.598,vts_reward_expectancy,2022.2.4,Win32,60.0240096,Chrome,1366,768,,,a,2.2508,1,447,2,0,5,5,7,1,0,0,1,0,0,1,0,0,hexagon,circle,,,,,,,,,,,,,,,,,,,,,,,,,,,,,,,,,,,,,,,,,,,,,,,,,,,,,,
296734,2022-09-21_14h45.00.598,vts_reward_expectancy,2022.2.4,Win32,60.0240096,Chrome,1366,768,,,l,1.5741,1,448,2,0,6,6,10,1,0,0,0,1,0,1,0,0,star ,circle,,,,,,,,,,,,,,,,,,,,,,,,,,,,,,,,,,,,,,,,,,,,,,,,,,,,,,
296734,2022-09-21_14h45.00.598,vts_reward_expectancy,2022.2.4,Win32,60.0240096,Chrome,1366,768,,,a,1.8485,1,449,2,0,7,7,8,1,0,0,1,0,0,0,0,1,hexagon,star,,,,,,,,,,,,,,,,,,,,,,,,,,,,,,,,,,,,,,,,,,,,,,,,,,,,,,
296734,2022-09-21_14h45.00.598,vts_reward_expectancy,2022.2.4,Win32,60.0240096,Chrome,1366,768,,,l,0.4424,10,459,2,0,8,8,3,1,0,1,0,0,1,0,0,0,circle,triangle,,,,,,,,,,,,,,,,,,,,,,,,,,,,,,,,,,,,,,,,,,,,,,,,,,,,,,
296734,2022-09-21_14h45.00.598,vts_reward_expectancy,2022.2.4,Win32,60.0240096,Chrome,1366,768,,,a,1.5674,1,460,2,0,9,9,2,1,1,0,0,0,0,0,0,1,triangle,star,,,,,,,,,,,,,,,,,,,,,,,,,,,,,,,,,,,,,,,,,,,,,,,,,,,,,,
296734,2022-09-21_14h45.00.598,vts_reward_expectancy,2022.2.4,Win32,60.0240096,Chrome,1366,768,,,l,1.46,10,470,2,0,10,10,1,1,1,0,0,0,0,0,1,0,triangle,hexagon,,,,,,,,,,,,,,,,,,,,,,,,,,,,,,,,,,,,,,,,,,,,,,,,,,,,,,
296734,2022-09-21_14h45.00.598,vts_reward_expectancy,2022.2.4,Win32,60.0240096,Chrome,1366,768,,,l,0.802,10,480,2,0,11,11,6,1,0,0,1,0,1,0,0,0,hexagon,triangle,,,,,,,,,,,,,,,,,,,,,,,,,,,,,,,,,,,,,,,,,,,,,,,,,,,,,,
296734,2022-09-21_14h45.00.598,vts_reward_expectancy,2022.2.4,Win32,60.0240096,Chrome,1366,768,,,a,3.2684,1,481,2,1,0,12,1,1,1,0,0,0,0,0,1,0,triangle,hexagon,,,,,,,,,,,,,,,,,,,,,,,,,,,,,,,,,,,,,,,,,,,,,,,,,,,,,,
296734,2022-09-21_14h45.00.598,vts_reward_expectancy,2022.2.4,Win32,60.0240096,Chrome,1366,768,,,l,2.684,1,482,2,1,1,13,8,1,0,0,1,0,0,0,0,1,hexagon,star,,,,,,,,,,,,,,,,,,,,,,,,,,,,,,,,,,,,,,,,,,,,,,,,,,,,,,
296734,2022-09-21_14h45.00.598,vts_reward_expectancy,2022.2.4,Win32,60.0240096,Chrome,1366,768,,,a,2.3503,1,483,2,1,2,14,6,1,0,0,1,0,1,0,0,0,hexagon,triangle,,,,,,,,,,,,,,,,,,,,,,,,,,,,,,,,,,,,,,,,,,,,,,,,,,,,,,
296734,2022-09-21_14h45.00.598,vts_reward_expectancy,2022.2.4,Win32,60.0240096,Chrome,1366,768,,,l,0.8074,10,493,2,1,3,15,3,1,0,1,0,0,1,0,0,0,circle,triangle,,,,,,,,,,,,,,,,,,,,,,,,,,,,,,,,,,,,,,,,,,,,,,,,,,,,,,
296734,2022-09-21_14h45.00.598,vts_reward_expectancy,2022.2.4,Win32,60.0240096,Chrome,1366,768,,,a,0.5879,10,503,2,1,4,16,5,1,0,1,0,0,0,0,0,1,circle,star,,,,,,,,,,,,,,,,,,,,,,,,,,,,,,,,,,,,,,,,,,,,,,,,,,,,,,
296734,2022-09-21_14h45.00.598,vts_reward_expectancy,2022.2.4,Win32,60.0240096,Chrome,1366,768,,,l,0.2675,10,513,2,1,5,17,9,1,0,0,0,1,1,0,0,0,star,triangle,,,,,,,,,,,,,,,,,,,,,,,,,,,,,,,,,,,,,,,,,,,,,,,,,,,,,,
296734,2022-09-21_14h45.00.598,vts_reward_expectancy,2022.2.4,Win32,60.0240096,Chrome,1366,768,,,a,0.8486,10,523,2,1,6,18,7,1,0,0,1,0,0,1,0,0,hexagon,circle,,,,,,,,,,,,,,,,,,,,,,,,,,,,,,,,,,,,,,,,,,,,,,,,,,,,,,
296734,2022-09-21_14h45.00.598,vts_reward_expectancy,2022.2.4,Win32,60.0240096,Chrome,1366,768,,,l,0.5519,10,533,2,1,7,19,2,1,1,0,0,0,0,0,0,1,triangle,star,,,,,,,,,,,,,,,,,,,,,,,,,,,,,,,,,,,,,,,,,,,,,,,,,,,,,,
296734,2022-09-21_14h45.00.598,vts_reward_expectancy,2022.2.4,Win32,60.0240096,Chrome,1366,768,,,a,0.3365,10,543,2,1,8,20,10,1,0,0,0,1,0,1,0,0,star ,circle,,,,,,,,,,,,,,,,,,,,,,,,,,,,,,,,,,,,,,,,,,,,,,,,,,,,,,
296734,2022-09-21_14h45.00.598,vts_reward_expectancy,2022.2.4,Win32,60.0240096,Chrome,1366,768,,,l,0.4356,1,544,2,1,9,21,4,1,0,1,0,0,0,0,1,0,circle,hexagon,,,,,,,,,,,,,,,,,,,,,,,,,,,,,,,,,,,,,,,,,,,,,,,,,,,,,,
296734,2022-09-21_14h45.00.598,vts_reward_expectancy,2022.2.4,Win32,60.0240096,Chrome,1366,768,,,l,0.3198,1,545,2,1,10,22,11,1,0,0,0,1,0,0,1,0,star,hexagon,,,,,,,,,,,,,,,,,,,,,,,,,,,,,,,,,,,,,,,,,,,,,,,,,,,,,,
296734,2022-09-21_14h45.00.598,vts_reward_expectancy,2022.2.4,Win32,60.0240096,Chrome,1366,768,,,a,0.334,10,555,2,1,11,23,0,1,1,0,0,0,0,1,0,0,triangle,circle,,,,,,,,,,,,,,,,,,,,,,,,,,,,,,,,,,,,,,,,,,,,,,,,,,,,,,
296734,2022-09-21_14h45.00.598,vts_reward_expectancy,2022.2.4,Win32,60.0240096,Chrome,1366,768,,,l,0.4988,10,565,2,2,0,24,10,1,0,0,0,1,0,1,0,0,star ,circle,,,,,,,,,,,,,,,,,,,,,,,,,,,,,,,,,,,,,,,,,,,,,,,,,,,,,,
296734,2022-09-21_14h45.00.598,vts_reward_expectancy,2022.2.4,Win32,60.0240096,Chrome,1366,768,,,a,0.3672,10,575,2,2,1,25,8,1,0,0,1,0,0,0,0,1,hexagon,star,,,,,,,,,,,,,,,,,,,,,,,,,,,,,,,,,,,,,,,,,,,,,,,,,,,,,,
296734,2022-09-21_14h45.00.598,vts_reward_expectancy,2022.2.4,Win32,60.0240096,Chrome,1366,768,,,l,0.2753,1,576,2,2,2,26,11,1,0,0,0,1,0,0,1,0,star,hexagon,,,,,,,,,,,,,,,,,,,,,,,,,,,,,,,,,,,,,,,,,,,,,,,,,,,,,,
296734,2022-09-21_14h45.00.598,vts_reward_expectancy,2022.2.4,Win32,60.0240096,Chrome,1366,768,,,a,0.9179,10,586,2,2,3,27,1,1,1,0,0,0,0,0,1,0,triangle,hexagon,,,,,,,,,,,,,,,,,,,,,,,,,,,,,,,,,,,,,,,,,,,,,,,,,,,,,,
296734,2022-09-21_14h45.00.598,vts_reward_expectancy,2022.2.4,Win32,60.0240096,Chrome,1366,768,,,l,0.3687,10,596,2,2,4,28,4,1,0,1,0,0,0,0,1,0,circle,hexagon,,,,,,,,,,,,,,,,,,,,,,,,,,,,,,,,,,,,,,,,,,,,,,,,,,,,,,
296734,2022-09-21_14h45.00.598,vts_reward_expectancy,2022.2.4,Win32,60.0240096,Chrome,1366,768,,,a,0.332,1,597,2,2,5,29,6,1,0,0,1,0,1,0,0,0,hexagon,triangle,,,,,,,,,,,,,,,,,,,,,,,,,,,,,,,,,,,,,,,,,,,,,,,,,,,,,,
296734,2022-09-21_14h45.00.598,vts_reward_expectancy,2022.2.4,Win32,60.0240096,Chrome,1366,768,,,l,1.039,1,598,2,2,6,30,9,1,0,0,0,1,1,0,0,0,star,triangle,,,,,,,,,,,,,,,,,,,,,,,,,,,,,,,,,,,,,,,,,,,,,,,,,,,,,,
296734,2022-09-21_14h45.00.598,vts_reward_expectancy,2022.2.4,Win32,60.0240096,Chrome,1366,768,,,l,0.2234,1,599,2,2,7,31,5,1,0,1,0,0,0,0,0,1,circle,star,,,,,,,,,,,,,,,,,,,,,,,,,,,,,,,,,,,,,,,,,,,,,,,,,,,,,,
296734,2022-09-21_14h45.00.598,vts_reward_expectancy,2022.2.4,Win32,60.0240096,Chrome,1366,768,,,a,0.3515,1,600,2,2,8,32,7,1,0,0,1,0,0,1,0,0,hexagon,circle,,,,,,,,,,,,,,,,,,,,,,,,,,,,,,,,,,,,,,,,,,,,,,,,,,,,,,
296734,2022-09-21_14h45.00.598,vts_reward_expectancy,2022.2.4,Win32,60.0240096,Chrome,1366,768,,,a,0.8011,10,610,2,2,9,33,3,1,0,1,0,0,1,0,0,0,circle,triangle,,,,,,,,,,,,,,,,,,,,,,,,,,,,,,,,,,,,,,,,,,,,,,,,,,,,,,
296734,2022-09-21_14h45.00.598,vts_reward_expectancy,2022.2.4,Win32,60.0240096,Chrome,1366,768,,,a,1.2016,10,620,2,2,10,34,2,1,1,0,0,0,0,0,0,1,triangle,star,,,,,,,,,,,,,,,,,,,,,,,,,,,,,,,,,,,,,,,,,,,,,,,,,,,,,,
296734,2022-09-21_14h45.00.598,vts_reward_expectancy,2022.2.4,Win32,60.0240096,Chrome,1366,768,,,l,1.3177,1,621,2,2,11,35,0,1,1,0,0,0,0,1,0,0,triangle,circle,,,,,,,,,,,,,,,,,,,,,,,,,,,,,,,,,,,,,,,,,,,,,,,,,,,,,,
296734,2022-09-21_14h45.00.598,vts_reward_expectancy,2022.2.4,Win32,60.0240096,Chrome,1366,768,,,,,,,,,,,,,,,,,,,,,,,174,H,hexagon,1,0,f,1.2816,0,0,0,0,0,1,,,,,,,,,,,,,,,,,,,,,,,,,,,,,,,,,,,,,,,,,
296734,2022-09-21_14h45.00.598,vts_reward_expectancy,2022.2.4,Win32,60.0240096,Chrome,1366,768,,,,,,,,,,,,,,,,,,,,,,,139,S,circle,1,0,d,0.6667,0,1,0,1,0,1,,,,,,,,,,,,,,,,,,,,,,,,,,,,,,,,,,,,,,,,,
296734,2022-09-21_14h45.00.598,vts_reward_expectancy,2022.2.4,Win32,60.0240096,Chrome,1366,768,,,,,,,,,,,,,,,,,,,,,,,146,F,triangle,1,0,d,0.5907,0,2,0,2,0,1,,,,,,,,,,,,,,,,,,,,,,,,,,,,,,,,,,,,,,,,,
296734,2022-09-21_14h45.00.598,vts_reward_expectancy,2022.2.4,Win32,60.0240096,Chrome,1366,768,,,,,,,,,,,,,,,,,,,,,,,125,Y,star,1,0,d,0.8015,0,3,0,3,0,1,,,,,,,,,,,,,,,,,,,,,,,,,,,,,,,,,,,,,,,,,
296734,2022-09-21_14h45.00.598,vts_reward_expectancy,2022.2.4,Win32,60.0240096,Chrome,1366,768,,,,,,,,,,,,,,,,,,,,,,,181,B,hexagon,1,0,f,0.5768,0,4,0,4,0,1,,,,,,,,,,,,,,,,,,,,,,,,,,,,,,,,,,,,,,,,,
296734,2022-09-21_14h45.00.598,vts_reward_expectancy,2022.2.4,Win32,60.0240096,Chrome,1366,768,,,,,,,,,,,,,,,,,,,,,,,132,D,circle,1,0,d,0.5118,0,5,0,5,0,1,,,,,,,,,,,,,,,,,,,,,,,,,,,,,,,,,,,,,,,,,
296734,2022-09-21_14h45.00.598,vts_reward_expectancy,2022.2.4,Win32,60.0240096,Chrome,1366,768,,,,,,,,,,,,,,,,,,,,,,,160,W,triangle,1,0,f,1.1059,0,6,0,6,0,1,,,,,,,,,,,,,,,,,,,,,,,,,,,,,,,,,,,,,,,,,
296734,2022-09-21_14h45.00.598,vts_reward_expectancy,2022.2.4,Win32,60.0240096,Chrome,1366,768,,,,,,,,,,,,,,,,,,,,,,,167,U,star,1,0,f,0.537,0,7,0,7,0,1,,,,,,,,,,,,,,,,,,,,,,,,,,,,,,,,,,,,,,,,,
296734,2022-09-21_14h45.00.598,vts_reward_expectancy,2022.2.4,Win32,60.0240096,Chrome,1366,768,,,,,,,,,,,,,,,,,,,,,,,174,H,triangle,1,0,f,0.5384,0,8,0,8,0,1,,,,,,,,,,,,,,,,,,,,,,,,,,,,,,,,,,,,,,,,,
296734,2022-09-21_14h45.00.598,vts_reward_expectancy,2022.2.4,Win32,60.0240096,Chrome,1366,768,,,,,,,,,,,,,,,,,,,,,,,139,S,hexagon,1,0,d,0.62,0,9,0,9,0,1,,,,,,,,,,,,,,,,,,,,,,,,,,,,,,,,,,,,,,,,,
296734,2022-09-21_14h45.00.598,vts_reward_expectancy,2022.2.4,Win32,60.0240096,Chrome,1366,768,,,,,,,,,,,,,,,,,,,,,,,174,Y,star,1,0,,,1,,,,,,k,0.5903,0,0,0,0,1,,,,,,,,,,,,,,,,,,,,,,,,,,,,,,,,,,
296734,2022-09-21_14h45.00.598,vts_reward_expectancy,2022.2.4,Win32,60.0240096,Chrome,1366,768,,,,,,,,,,,,,,,,,,,,,,,167,H,triangle,1,0,,,1,,,,,,j,2.1843,1,0,1,0,1,,,,,,,,,,,,,,,,,,,,,,,,,,,,,,,,,,
296734,2022-09-21_14h45.00.598,vts_reward_expectancy,2022.2.4,Win32,60.0240096,Chrome,1366,768,,,,,,,,,,,,,,,,,,,,,,,160,U,circle,1,0,,,1,,,,,,k,0.8016,2,0,2,0,1,,,,,,,,,,,,,,,,,,,,,,,,,,,,,,,,,,
296734,2022-09-21_14h45.00.598,vts_reward_expectancy,2022.2.4,Win32,60.0240096,Chrome,1366,768,,,,,,,,,,,,,,,,,,,,,,,146,B,hexagon,1,0,,,1,,,,,,j,0.6559,3,0,3,0,1,,,,,,,,,,,,,,,,,,,,,,,,,,,,,,,,,,
296734,2022-09-21_14h45.00.598,vts_reward_expectancy,2022.2.4,Win32,60.0240096,Chrome,1366,768,,,,,,,,,,,,,,,,,,,,,,,181,S,star,0,0,,,1,,,,,,j,1.2013,4,0,4,0,1,,,,,,,,,,,,,,,,,,,,,,,,,,,,,,,,,,
296734,2022-09-21_14h45.00.598,vts_reward_expectancy,2022.2.4,Win32,60.0240096,Chrome,1366,768,,,,,,,,,,,,,,,,,,,,,,,132,F,triangle,1,1,,,1,,,,,,j,0.6182,5,0,5,0,1,,,,,,,,,,,,,,,,,,,,,,,,,,,,,,,,,,
296734,2022-09-21_14h45.00.598,vts_reward_expectancy,2022.2.4,Win32,60.0240096,Chrome,1366,768,,,,,,,,,,,,,,,,,,,,,,,139,W,circle,1,0,,,1,,,,,,k,0.6188,6,0,6,0,1,,,,,,,,,,,,,,,,,,,,,,,,,,,,,,,,,,
296734,2022-09-21_14h45.00.598,vts_reward_expectancy,2022.2.4,Win32,60.0240096,Chrome,1366,768,,,,,,,,,,,,,,,,,,,,,,,125,D,hexagon,1,0,,,1,,,,,,j,0.6667,7,0,7,0,1,,,,,,,,,,,,,,,,,,,,,,,,,,,,,,,,,,
296734,2022-09-21_14h45.00.598,vts_reward_expectancy,2022.2.4,Win32,60.0240096,Chrome,1366,768,,,,,,,,,,,,,,,,,,,,,,,174,Y,triangle,1,0,,,1,,,,,,k,0.6088,8,0,8,0,1,,,,,,,,,,,,,,,,,,,,,,,,,,,,,,,,,,
296734,2022-09-21_14h45.00.598,vts_reward_expectancy,2022.2.4,Win32,60.0240096,Chrome,1366,768,,,,,,,,,,,,,,,,,,,,,,,167,H,hexagon,1,0,,,1,,,,,,j,1.4806,9,0,9,0,1,,,,,,,,,,,,,,,,,,,,,,,,,,,,,,,,,,
296734,2022-09-21_14h45.00.598,vts_reward_expectancy,2022.2.4,Win32,60.0240096,Chrome,1366,768,,,,,0,621,,,,,,,,,,,,,,,,,132,U,triangle,1,0,,,2,,,,,,,,,,,,,-1,number,NA,d,1.1558,vtsPrac,0,0,0,0,1,,,,,,,,,,,,,,,,,,,,,,,
296734,2022-09-21_14h45.00.598,vts_reward_expectancy,2022.2.4,Win32,60.0240096,Chrome,1366,768,,,,,0,621,,,,,,,,,,,,,,,,,146,W,circle,1,0,,,2,,,,,,,,,,,,,repeat,number,numRpt,d,1.4023,vtsPrac,1,0,1,0,1,,,,,,,,,,,,,,,,,,,,,,,
296734,2022-09-21_14h45.00.598,vts_reward_expectancy,2022.2.4,Win32,60.0240096,Chrome,1366,768,,,,,0,621,,,,,,,,,,,,,,,,,125,B,triangle,1,0,,,2,,,,,,,,,,,,,switch,letter,lettSwt,j,0.4823,vtsPrac,2,0,2,0,1,,,,,,,,,,,,,,,,,,,,,,,
296734,2022-09-21_14h45.00.598,vts_reward_expectancy,2022.2.4,Win32,60.0240096,Chrome,1366,768,,,,,0,621,,,,,,,,,,,,,,,,,167,S,circle,1,0,,,2,,,,,,,,,,,,,switch,number,numSwt,f,0.7546,vtsPrac,3,0,3,0,1,,,,,,,,,,,,,,,,,,,,,,,
296734,2022-09-21_14h45.00.598,vts_reward_expectancy,2022.2.4,Win32,60.0240096,Chrome,1366,768,,,,,0,621,,,,,,,,,,,,,,,,,132,U,triangle,1,0,,,2,,,,,,,,,,,,,switch,letter,lettSwt,k,0.6511,vtsPrac,4,0,4,0,1,,,,,,,,,,,,,,,,,,,,,,,
296734,2022-09-21_14h45.00.598,vts_reward_expectancy,2022.2.4,Win32,60.0240096,Chrome,1366,768,,,,,0,621,,,,,,,,,,,,,,,,,146,W,circle,1,0,,,2,,,,,,,,,,,,,repeat,letter,lettRpt,k,0.4919,vtsPrac,5,0,5,0,1,,,,,,,,,,,,,,,,,,,,,,,
296734,2022-09-21_14h45.00.598,vts_reward_expectancy,2022.2.4,Win32,60.0240096,Chrome,1366,768,,,,,0,621,,,,,,,,,,,,,,,,,125,B,circle,1,0,,,2,,,,,,,,,,,,,switch,number,numSwt,d,0.5342,vtsPrac,6,0,6,0,1,,,,,,,,,,,,,,,,,,,,,,,
296734,2022-09-21_14h45.00.598,vts_reward_expectancy,2022.2.4,Win32,60.0240096,Chrome,1366,768,,,,,0,621,,,,,,,,,,,,,,,,,167,S,star,1,0,,,2,,,,,,,,,,,,,repeat,number,numRpt,f,1.7451,vtsPrac,7,0,7,0,1,,,,,,,,,,,,,,,,,,,,,,,
296734,2022-09-21_14h45.00.598,vts_reward_expectancy,2022.2.4,Win32,60.0240096,Chrome,1366,768,,,,,0,621,,,,,,,,,,,,,,,,,125,W,star,1,0,,,2,,,,,,,,,,,,,switch,letter,lettSwt,k,0.9169,vtsPrac,8,0,8,0,1,,,,,,,,,,,,,,,,,,,,,,,
296734,2022-09-21_14h45.00.598,vts_reward_expectancy,2022.2.4,Win32,60.0240096,Chrome,1366,768,,,,,0,621,,,,,,,,,,,,,,,,,146,F,hexagon,1,0,,,2,,,,,,,,,,,,,switch,number,numSwt,d,1.0464,vtsPrac,9,0,9,0,1,,,,,,,,,,,,,,,,,,,,,,,
296734,2022-09-21_14h45.00.598,vts_reward_expectancy,2022.2.4,Win32,60.0240096,Chrome,1366,768,,,,,0,621,,,,,,,,,,,,,,,,,167,U,triangle,1,0,,,2,,,,,,,,,,,,,switch,letter,lettSwt,k,1.5221,vtsPrac,10,0,10,0,1,,,,,,,,,,,,,,,,,,,,,,,
296734,2022-09-21_14h45.00.598,vts_reward_expectancy,2022.2.4,Win32,60.0240096,Chrome,1366,768,,,,,0,621,,,,,,,,,,,,,,,,,181,S,star,1,0,,,2,,,,,,,,,,,,,switch,number,numSwt,f,0.8712,vtsPrac,11,0,11,0,1,,,,,,,,,,,,,,,,,,,,,,,
296734,2022-09-21_14h45.00.598,vts_reward_expectancy,2022.2.4,Win32,60.0240096,Chrome,1366,768,,,,,0,621,,,,,,,,,,,,,,,,,146,U,hexagon,1,0,,,2,,,,,,,,,,,,,switch,letter,lettSwt,k,1.2196,vtsPrac,12,0,12,0,1,,,,,,,,,,,,,,,,,,,,,,,
296734,2022-09-21_14h45.00.598,vts_reward_expectancy,2022.2.4,Win32,60.0240096,Chrome,1366,768,,,,,0,621,,,,,,,,,,,,,,,,,181,F,triangle,1,0,,,2,,,,,,,,,,,,,switch,number,numSwt,f,0.9008,vtsPrac,13,0,13,0,1,,,,,,,,,,,,,,,,,,,,,,,
296734,2022-09-21_14h45.00.598,vts_reward_expectancy,2022.2.4,Win32,60.0240096,Chrome,1366,768,,,,,0,621,,,,,,,,,,,,,,,,,174,S,hexagon,1,0,,,2,,,,,,,,,,,,,switch,letter,lettSwt,k,1.6513,vtsPrac,14,0,14,0,1,,,,,,,,,,,,,,,,,,,,,,,
296734,2022-09-21_14h45.00.598,vts_reward_expectancy,2022.2.4,Win32,60.0240096,Chrome,1366,768,,,,,0,621,,,,,,,,,,,,,,,,,167,H,circle,1,0,,,2,,,,,,,,,,,,,switch,number,numSwt,f,0.9509,vtsPrac,15,0,15,0,1,,,,,,,,,,,,,,,,,,,,,,,
296734,2022-09-21_14h45.00.598,vts_reward_expectancy,2022.2.4,Win32,60.0240096,Chrome,1366,768,,,,,,,,,,,,,,,,,,,,,,,,,,,,,,,,,,,,,,,,,,,,,,,,,,,,,,,,,,,,,,,,,,,,,,,,,,,,
296734,2022-09-21_14h45.00.598,vts_reward_expectancy,2022.2.4,Win32,60.0240096,Chrome,1366,768,,,,,,,,,,,,,,,,,,,,,,,,,,,,,,,,,,,,,,,,,,,,,,,,,,,,,,,,,,,,,,,,,,,,,,,,,,,,
296734,2022-09-21_14h45.00.598,vts_reward_expectancy,2022.2.4,Win32,60.0240096,Chrome,1366,768,,,,,0,621,,,,,,,,,,,,,,,,,174,W,triangle,1,0,,,,,,,,,,,,,,,,repeat,number,numRpt,f,0.6986,noRew,,,,,,0,0,0,0,0,1,,,,,,,,,,,,,,,,,
296734,2022-09-21_14h45.00.598,vts_reward_expectancy,2022.2.4,Win32,60.0240096,Chrome,1366,768,,,,,0,621,,,,,,,,,,,,,,,,,167,F,hexagon,1,0,,,,,,,,,,,,,,,,repeat,number,numRpt,f,0.6245,noRew,,,,,,0,1,0,1,0,1,,,,,,,,,,,,,,,,,
296734,2022-09-21_14h45.00.598,vts_reward_expectancy,2022.2.4,Win32,60.0240096,Chrome,1366,768,,,,,0,621,,,,,,,,,,,,,,,,,160,U,triangle,1,0,,,,,,,,,,,,,,,,switch,letter,lettSwt,k,0.518,noRew,,,,,,0,2,0,2,0,1,,,,,,,,,,,,,,,,,
296734,2022-09-21_14h45.00.598,vts_reward_expectancy,2022.2.4,Win32,60.0240096,Chrome,1366,768,,,,,0,621,,,,,,,,,,,,,,,,,181,D,hexagon,1,0,,,,,,,,,,,,,,,,repeat,letter,lettRpt,j,0.5527,noRew,,,,,,0,3,0,3,0,1,,,,,,,,,,,,,,,,,
296734,2022-09-21_14h45.00.598,vts_reward_expectancy,2022.2.4,Win32,60.0240096,Chrome,1366,768,,,,,0,621,,,,,,,,,,,,,,,,,174,W,triangle,1,0,,,,,,,,,,,,,,,,repeat,letter,lettRpt,k,1.4674,noRew,,,,,,0,4,0,4,0,1,,,,,,,,,,,,,,,,,
296734,2022-09-21_14h45.00.598,vts_reward_expectancy,2022.2.4,Win32,60.0240096,Chrome,1366,768,,,,,0,621,,,,,,,,,,,,,,,,,167,F,hexagon,1,0,,,,,,,,,,,,,,,,switch,number,numSwt,f,0.7413,noRew,,,,,,0,5,0,5,0,1,,,,,,,,,,,,,,,,,
296734,2022-09-21_14h45.00.598,vts_reward_expectancy,2022.2.4,Win32,60.0240096,Chrome,1366,768,,,,,0,621,,,,,,,,,,,,,,,,,160,U,star,1,0,,,,,,,,,,,,,,,,repeat,number,numRpt,f,0.5872,noRew,,,,,,0,6,0,6,0,1,,,,,,,,,,,,,,,,,
296734,2022-09-21_14h45.00.598,vts_reward_expectancy,2022.2.4,Win32,60.0240096,Chrome,1366,768,,,,,0,621,,,,,,,,,,,,,,,,,181,D,triangle,1,0,,,,,,,,,,,,,,,,switch,letter,lettSwt,j,1.2342,noRew,,,,,,0,7,0,7,0,1,,,,,,,,,,,,,,,,,
296734,2022-09-21_14h45.00.598,vts_reward_expectancy,2022.2.4,Win32,60.0240096,Chrome,1366,768,,,,,0,621,,,,,,,,,,,,,,,,,167,S,triangle,1,0,,,,,,,,,,,,,,,,switch,number,numSwt,f,0.9329,noRew,,,,,,0,8,0,8,0,1,,,,,,,,,,,,,,,,,
296734,2022-09-21_14h45.00.598,vts_reward_expectancy,2022.2.4,Win32,60.0240096,Chrome,1366,768,,,,,0,621,,,,,,,,,,,,,,,,,160,W,hexagon,1,0,,,,,,,,,,,,,,,,repeat,number,numRpt,f,0.7522,noRew,,,,,,0,9,0,9,0,1,,,,,,,,,,,,,,,,,
296734,2022-09-21_14h45.00.598,vts_reward_expectancy,2022.2.4,Win32,60.0240096,Chrome,1366,768,,,,,0,621,,,,,,,,,,,,,,,,,132,B,hexagon,1,0,,,,,,,,,,,,,,,,repeat,number,numRpt,d,1.0678,noRew,,,,,,0,10,0,10,0,1,,,,,,,,,,,,,,,,,
296734,2022-09-21_14h45.00.598,vts_reward_expectancy,2022.2.4,Win32,60.0240096,Chrome,1366,768,,,,,0,621,,,,,,,,,,,,,,,,,181,F,triangle,1,0,,,,,,,,,,,,,,,,switch,letter,lettSwt,j,1.2013,noRew,,,,,,0,11,0,11,0,1,,,,,,,,,,,,,,,,,
296734,2022-09-21_14h45.00.598,vts_reward_expectancy,2022.2.4,Win32,60.0240096,Chrome,1366,768,,,,,0,621,,,,,,,,,,,,,,,,,146,S,triangle,0,0,,,,,,,,,,,,,,,,switch,number,NA,f,1.4288,noRew,,,,,,0,12,0,12,0,1,,,,,,,,,,,,,,,,,
296734,2022-09-21_14h45.00.598,vts_reward_expectancy,2022.2.4,Win32,60.0240096,Chrome,1366,768,,,,,0,621,,,,,,,,,,,,,,,,,181,U,hexagon,1,1,,,,,,,,,,,,,,,,repeat,number,numRpt,f,0.8008,noRew,,,,,,0,13,0,13,0,1,,,,,,,,,,,,,,,,,
296734,2022-09-21_14h45.00.598,vts_reward_expectancy,2022.2.4,Win32,60.0240096,Chrome,1366,768,,,,,0,621,,,,,,,,,,,,,,,,,125,W,circle,1,0,,,,,,,,,,,,,,,,switch,letter,lettSwt,k,0.7913,noRew,,,,,,0,14,0,14,0,1,,,,,,,,,,,,,,,,,
296734,2022-09-21_14h45.00.598,vts_reward_expectancy,2022.2.4,Win32,60.0240096,Chrome,1366,768,,,,,0,621,,,,,,,,,,,,,,,,,132,H,triangle,1,0,,,,,,,,,,,,,,,,repeat,letter,lettRpt,j,1.1017,noRew,,,,,,0,15,0,15,0,1,,,,,,,,,,,,,,,,,
296734,2022-09-21_14h45.00.598,vts_reward_expectancy,2022.2.4,Win32,60.0240096,Chrome,1366,768,,,,,0,621,,,,,,,,,,,,,,,,,139,S,triangle,1,0,,,,,,,,,,,,,,,,switch,number,numSwt,d,0.7221,noRew,,,,,,0,16,0,16,0,1,,,,,,,,,,,,,,,,,
296734,2022-09-21_14h45.00.598,vts_reward_expectancy,2022.2.4,Win32,60.0240096,Chrome,1366,768,,,,,0,621,,,,,,,,,,,,,,,,,132,Y,circle,1,0,,,,,,,,,,,,,,,,repeat,number,numRpt,d,0.8759,noRew,,,,,,0,17,0,17,0,1,,,,,,,,,,,,,,,,,
296734,2022-09-21_14h45.00.598,vts_reward_expectancy,2022.2.4,Win32,60.0240096,Chrome,1366,768,,,,,0,621,,,,,,,,,,,,,,,,,174,F,circle,1,0,,,,,,,,,,,,,,,,repeat,number,numRpt,f,0.6805,noRew,,,,,,0,18,0,18,0,1,,,,,,,,,,,,,,,,,
296734,2022-09-21_14h45.00.598,vts_reward_expectancy,2022.2.4,Win32,60.0240096,Chrome,1366,768,,,,,0,621,,,,,,,,,,,,,,,,,146,U,hexagon,1,0,,,,,,,,,,,,,,,,switch,letter,lettSwt,k,1.5382,noRew,,,,,,0,19,0,19,0,1,,,,,,,,,,,,,,,,,
296734,2022-09-21_14h45.00.598,vts_reward_expectancy,2022.2.4,Win32,60.0240096,Chrome,1366,768,,,,,0,621,,,,,,,,,,,,,,,,,174,Y,circle,1,0,,,,,,,,,,,,,,,,repeat,letter,lettRpt,k,1.2107,noRew,,,,,,0,20,0,20,0,1,,,,,,,,,,,,,,,,,
296734,2022-09-21_14h45.00.598,vts_reward_expectancy,2022.2.4,Win32,60.0240096,Chrome,1366,768,,,,,0,621,,,,,,,,,,,,,,,,,125,F,triangle,1,0,,,,,,,,,,,,,,,,repeat,letter,lettRpt,j,1.2888,noRew,,,,,,0,21,0,21,0,1,,,,,,,,,,,,,,,,,
296734,2022-09-21_14h45.00.598,vts_reward_expectancy,2022.2.4,Win32,60.0240096,Chrome,1366,768,,,,,0,621,,,,,,,,,,,,,,,,,146,B,hexagon,1,0,,,,,,,,,,,,,,,,switch,number,numSwt,d,0.8169,noRew,,,,,,0,22,0,22,0,1,,,,,,,,,,,,,,,,,
296734,2022-09-21_14h45.00.598,vts_reward_expectancy,2022.2.4,Win32,60.0240096,Chrome,1366,768,,,,,0,621,,,,,,,,,,,,,,,,,167,D,circle,1,0,,,,,,,,,,,,,,,,repeat,number,numRpt,f,1.0094,noRew,,,,,,0,23,0,23,0,1,,,,,,,,,,,,,,,,,
296734,2022-09-21_14h45.00.598,vts_reward_expectancy,2022.2.4,Win32,60.0240096,Chrome,1366,768,,,,,0,621,,,,,,,,,,,,,,,,,146,U,hexagon,1,0,,,,,,,,,,,,,,,,switch,letter,lettSwt,k,1.9347,noRew,,,,,,0,24,0,24,0,1,,,,,,,,,,,,,,,,,
296734,2022-09-21_14h45.00.598,vts_reward_expectancy,2022.2.4,Win32,60.0240096,Chrome,1366,768,,,,,0,621,,,,,,,,,,,,,,,,,125,B,star,1,0,,,,,,,,,,,,,,,,repeat,letter,lettRpt,j,0.7393,noRew,,,,,,0,25,0,25,0,1,,,,,,,,,,,,,,,,,
296734,2022-09-21_14h45.00.598,vts_reward_expectancy,2022.2.4,Win32,60.0240096,Chrome,1366,768,,,,,0,621,,,,,,,,,,,,,,,,,174,D,triangle,1,0,,,,,,,,,,,,,,,,repeat,letter,lettRpt,j,0.6685,noRew,,,,,,0,26,0,26,0,1,,,,,,,,,,,,,,,,,
296734,2022-09-21_14h45.00.598,vts_reward_expectancy,2022.2.4,Win32,60.0240096,Chrome,1366,768,,,,,0,621,,,,,,,,,,,,,,,,,181,S,hexagon,1,0,,,,,,,,,,,,,,,,repeat,letter,lettRpt,k,0.8729,noRew,,,,,,0,27,0,27,0,1,,,,,,,,,,,,,,,,,
296734,2022-09-21_14h45.00.598,vts_reward_expectancy,2022.2.4,Win32,60.0240096,Chrome,1366,768,,,,,0,621,,,,,,,,,,,,,,,,,167,H,circle,1,0,,,,,,,,,,,,,,,,switch,number,numSwt,f,0.5019,noRew,,,,,,0,28,0,28,0,1,,,,,,,,,,,,,,,,,
296734,2022-09-21_14h45.00.598,vts_reward_expectancy,2022.2.4,Win32,60.0240096,Chrome,1366,768,,,,,0,621,,,,,,,,,,,,,,,,,146,U,triangle,1,0,,,,,,,,,,,,,,,,repeat,number,numRpt,d,0.809,noRew,,,,,,0,29,0,29,0,1,,,,,,,,,,,,,,,,,
296734,2022-09-21_14h45.00.598,vts_reward_expectancy,2022.2.4,Win32,60.0240096,Chrome,1366,768,,,,,0,621,,,,,,,,,,,,,,,,,125,Y,circle,1,0,,,,,,,,,,,,,,,,switch,letter,lettSwt,k,1.1204,noRew,,,,,,0,30,0,30,0,1,,,,,,,,,,,,,,,,,
296734,2022-09-21_14h45.00.598,vts_reward_expectancy,2022.2.4,Win32,60.0240096,Chrome,1366,768,,,,,0,621,,,,,,,,,,,,,,,,,132,B,star,1,0,,,,,,,,,,,,,,,,switch,number,numSwt,d,1.2778,noRew,,,,,,0,31,0,31,0,1,,,,,,,,,,,,,,,,,
296734,2022-09-21_14h45.00.598,vts_reward_expectancy,2022.2.4,Win32,60.0240096,Chrome,1366,768,,,,,0,621,,,,,,,,,,,,,,,,,167,H,triangle,1,0,,,,,,,,,,,,,,,,switch,letter,lettSwt,j,1.4603,noRew,,,,,,0,32,0,32,0,1,,,,,,,,,,,,,,,,,
296734,2022-09-21_14h45.00.598,vts_reward_expectancy,2022.2.4,Win32,60.0240096,Chrome,1366,768,,,,,0,621,,,,,,,,,,,,,,,,,125,S,star,1,0,,,,,,,,,,,,,,,,repeat,letter,lettRpt,k,0.7352,noRew,,,,,,0,33,0,33,0,1,,,,,,,,,,,,,,,,,
296734,2022-09-21_14h45.00.598,vts_reward_expectancy,2022.2.4,Win32,60.0240096,Chrome,1366,768,,,,,0,621,,,,,,,,,,,,,,,,,132,U,circle,1,0,,,,,,,,,,,,,,,,switch,number,numSwt,d,1.1383,noRew,,,,,,0,34,0,34,0,1,,,,,,,,,,,,,,,,,
296734,2022-09-21_14h45.00.598,vts_reward_expectancy,2022.2.4,Win32,60.0240096,Chrome,1366,768,,,,,0,621,,,,,,,,,,,,,,,,,160,F,hexagon,1,0,,,,,,,,,,,,,,,,switch,letter,lettSwt,j,1.2347,noRew,,,,,,0,35,0,35,0,1,,,,,,,,,,,,,,,,,
296734,2022-09-21_14h45.00.598,vts_reward_expectancy,2022.2.4,Win32,60.0240096,Chrome,1366,768,,,,,0,621,,,,,,,,,,,,,,,,,146,W,triangle,1,0,,,,,,,,,,,,,,,,switch,number,numSwt,d,0.5901,noRew,,,,,,0,36,0,36,0,1,,,,,,,,,,,,,,,,,
296734,2022-09-21_14h45.00.598,vts_reward_expectancy,2022.2.4,Win32,60.0240096,Chrome,1366,768,,,,,0,621,,,,,,,,,,,,,,,,,132,F,hexagon,1,0,,,,,,,,,,,,,,,,repeat,number,numRpt,d,0.7555,noRew,,,,,,0,37,0,37,0,1,,,,,,,,,,,,,,,,,
296734,2022-09-21_14h45.00.598,vts_reward_expectancy,2022.2.4,Win32,60.0240096,Chrome,1366,768,,,,,0,621,,,,,,,,,,,,,,,,,174,U,star,1,0,,,,,,,,,,,,,,,,switch,letter,lettSwt,k,2.0587,noRew,,,,,,0,38,0,38,0,1,,,,,,,,,,,,,,,,,
296734,2022-09-21_14h45.00.598,vts_reward_expectancy,2022.2.4,Win32,60.0240096,Chrome,1366,768,,,,,0,621,,,,,,,,,,,,,,,,,167,S,triangle,1,0,,,,,,,,,,,,,,,,repeat,letter,lettRpt,k,1.361,noRew,,,,,,0,39,0,39,0,1,,,,,,,,,,,,,,,,,
296734,2022-09-21_14h45.00.598,vts_reward_expectancy,2022.2.4,Win32,60.0240096,Chrome,1366,768,,,,,0,621,,,,,,,,,,,,,,,,,167,D,hexagon,1,0,,,,,,,,,,,,,,,,repeat,letter,lettRpt,j,0.6809,noRew,,,,,,0,40,0,40,0,1,,,,,,,,,,,,,,,,,
296734,2022-09-21_14h45.00.598,vts_reward_expectancy,2022.2.4,Win32,60.0240096,Chrome,1366,768,,,,,0,621,,,,,,,,,,,,,,,,,146,F,star,1,0,,,,,,,,,,,,,,,,switch,number,numSwt,d,0.7287,noRew,,,,,,0,41,0,41,0,1,,,,,,,,,,,,,,,,,
296734,2022-09-21_14h45.00.598,vts_reward_expectancy,2022.2.4,Win32,60.0240096,Chrome,1366,768,,,,,0,621,,,,,,,,,,,,,,,,,139,B,circle,1,0,,,,,,,,,,,,,,,,switch,letter,lettSwt,j,0.8934,noRew,,,,,,0,42,0,42,0,1,,,,,,,,,,,,,,,,,
296734,2022-09-21_14h45.00.598,vts_reward_expectancy,2022.2.4,Win32,60.0240096,Chrome,1366,768,,,,,0,621,,,,,,,,,,,,,,,,,181,H,hexagon,1,0,,,,,,,,,,,,,,,,switch,number,numSwt,f,0.6102,noRew,,,,,,0,43,0,43,0,1,,,,,,,,,,,,,,,,,
296734,2022-09-21_14h45.00.598,vts_reward_expectancy,2022.2.4,Win32,60.0240096,Chrome,1366,768,,,,,0,621,,,,,,,,,,,,,,,,,125,W,circle,1,0,,,,,,,,,,,,,,,,repeat,number,numRpt,d,0.7118,noRew,,,,,,0,44,0,44,0,1,,,,,,,,,,,,,,,,,
296734,2022-09-21_14h45.00.598,vts_reward_expectancy,2022.2.4,Win32,60.0240096,Chrome,1366,768,,,,,0,621,,,,,,,,,,,,,,,,,167,B,hexagon,1,0,,,,,,,,,,,,,,,,repeat,number,numRpt,f,1.3593,noRew,,,,,,0,45,0,45,0,1,,,,,,,,,,,,,,,,,
296734,2022-09-21_14h45.00.598,vts_reward_expectancy,2022.2.4,Win32,60.0240096,Chrome,1366,768,,,,,0,621,,,,,,,,,,,,,,,,,160,U,triangle,1,0,,,,,,,,,,,,,,,,repeat,number,numRpt,f,0.9246,noRew,,,,,,0,46,0,46,0,1,,,,,,,,,,,,,,,,,
296734,2022-09-21_14h45.00.598,vts_reward_expectancy,2022.2.4,Win32,60.0240096,Chrome,1366,768,,,,,0,621,,,,,,,,,,,,,,,,,181,Y,star,1,0,,,,,,,,,,,,,,,,repeat,number,numRpt,f,0.685,noRew,,,,,,0,47,0,47,0,1,,,,,,,,,,,,,,,,,
296734,2022-09-21_14h45.00.598,vts_reward_expectancy,2022.2.4,Win32,60.0240096,Chrome,1366,768,,,,,0,621,,,,,,,,,,,,,,,,,139,F,hexagon,1,0,,,,,,,,,,,,,,,,switch,letter,lettSwt,j,0.655,noRew,,,,,,0,48,0,48,0,1,,,,,,,,,,,,,,,,,
296734,2022-09-21_14h45.00.598,vts_reward_expectancy,2022.2.4,Win32,60.0240096,Chrome,1366,768,,,,,0,621,,,,,,,,,,,,,,,,,160,H,triangle,1,0,,,,,,,,,,,,,,,,repeat,letter,lettRpt,j,0.8582,noRew,,,,,,0,49,0,49,0,1,,,,,,,,,,,,,,,,,
296734,2022-09-21_14h45.00.598,vts_reward_expectancy,2022.2.4,Win32,60.0240096,Chrome,1366,768,,,,,0,621,,,,,,,,,,,,,,,,,132,W,circle,1,0,,,,,,,,,,,,,,,,repeat,letter,lettRpt,k,1.1133,noRew,,,,,,0,50,0,50,0,1,,,,,,,,,,,,,,,,,
296734,2022-09-21_14h45.00.598,vts_reward_expectancy,2022.2.4,Win32,60.0240096,Chrome,1366,768,,,,,0,621,,,,,,,,,,,,,,,,,181,S,star,0,0,,,,,,,,,,,,,,,,repeat,letter,NA,j,1.17,noRew,,,,,,0,51,0,51,0,1,,,,,,,,,,,,,,,,,
296734,2022-09-21_14h45.00.598,vts_reward_expectancy,2022.2.4,Win32,60.0240096,Chrome,1366,768,,,,,0,621,,,,,,,,,,,,,,,,,146,U,circle,1,1,,,,,,,,,,,,,,,,repeat,letter,lettRpt,k,0.9709,noRew,,,,,,0,52,0,52,0,1,,,,,,,,,,,,,,,,,
296734,2022-09-21_14h45.00.598,vts_reward_expectancy,2022.2.4,Win32,60.0240096,Chrome,1366,768,,,,,0,621,,,,,,,,,,,,,,,,,139,S,triangle,1,0,,,,,,,,,,,,,,,,switch,number,numSwt,d,1.0859,noRew,,,,,,0,53,0,53,0,1,,,,,,,,,,,,,,,,,
296734,2022-09-21_14h45.00.598,vts_reward_expectancy,2022.2.4,Win32,60.0240096,Chrome,1366,768,,,,,0,621,,,,,,,,,,,,,,,,,181,Y,hexagon,1,0,,,,,,,,,,,,,,,,repeat,number,numRpt,f,0.6021,noRew,,,,,,0,54,0,54,0,1,,,,,,,,,,,,,,,,,
296734,2022-09-21_14h45.00.598,vts_reward_expectancy,2022.2.4,Win32,60.0240096,Chrome,1366,768,,,,,0,621,,,,,,,,,,,,,,,,,160,D,triangle,1,0,,,,,,,,,,,,,,,,repeat,number,numRpt,f,2.8675,noRew,,,,,,0,55,0,55,0,1,,,,,,,,,,,,,,,,,
296734,2022-09-21_14h45.00.598,vts_reward_expectancy,2022.2.4,Win32,60.0240096,Chrome,1366,768,,,,,0,621,,,,,,,,,,,,,,,,,146,W,triangle,1,0,,,,,,,,,,,,,,,,repeat,number,numRpt,d,1.1367,noRew,,,,,,0,56,0,56,0,1,,,,,,,,,,,,,,,,,
296734,2022-09-21_14h45.00.598,vts_reward_expectancy,2022.2.4,Win32,60.0240096,Chrome,1366,768,,,,,0,621,,,,,,,,,,,,,,,,,139,F,hexagon,1,0,,,,,,,,,,,,,,,,repeat,number,numRpt,d,2.4345,noRew,,,,,,0,57,0,57,0,1,,,,,,,,,,,,,,,,,
296734,2022-09-21_14h45.00.598,vts_reward_expectancy,2022.2.4,Win32,60.0240096,Chrome,1366,768,,,,,0,621,,,,,,,,,,,,,,,,,167,H,hexagon,1,0,,,,,,,,,,,,,,,,switch,letter,lettSwt,j,2.0739,noRew,,,,,,0,58,0,58,0,1,,,,,,,,,,,,,,,,,
296734,2022-09-21_14h45.00.598,vts_reward_expectancy,2022.2.4,Win32,60.0240096,Chrome,1366,768,,,,,0,621,,,,,,,,,,,,,,,,,125,U,circle,1,0,,,,,,,,,,,,,,,,repeat,letter,lettRpt,k,1.5181,noRew,,,,,,0,59,0,59,0,1,,,,,,,,,,,,,,,,,
296734,2022-09-21_14h45.00.598,vts_reward_expectancy,2022.2.4,Win32,60.0240096,Chrome,1366,768,,,,,0,621,,,,,,,,,,,,,,,,,167,H,hexagon,1,0,,,,,,,,,,,,,,,,switch,number,numSwt,f,0.872,noRew,,,,,,0,60,0,60,0,1,,,,,,,,,,,,,,,,,
296734,2022-09-21_14h45.00.598,vts_reward_expectancy,2022.2.4,Win32,60.0240096,Chrome,1366,768,,,,,0,621,,,,,,,,,,,,,,,,,160,F,circle,1,0,,,,,,,,,,,,,,,,repeat,number,numRpt,f,0.7035,noRew,,,,,,0,61,0,61,0,1,,,,,,,,,,,,,,,,,
296734,2022-09-21_14h45.00.598,vts_reward_expectancy,2022.2.4,Win32,60.0240096,Chrome,1366,768,,,,,0,621,,,,,,,,,,,,,,,,,125,U,star,1,0,,,,,,,,,,,,,,,,switch,letter,lettSwt,k,0.7511,noRew,,,,,,0,62,0,62,0,1,,,,,,,,,,,,,,,,,
296734,2022-09-21_14h45.00.598,vts_reward_expectancy,2022.2.4,Win32,60.0240096,Chrome,1366,768,,,,,0,621,,,,,,,,,,,,,,,,,132,S,circle,1,0,,,,,,,,,,,,,,,,switch,number,numSwt,d,0.6554,noRew,,,,,,0,63,0,63,0,1,,,,,,,,,,,,,,,,,
296734,2022-09-21_14h45.00.598,vts_reward_expectancy,2022.2.4,Win32,60.0240096,Chrome,1366,768,,,,,,,,,,,,,,,,,,,,,,,,,,,,,,,,,,,,,,,,,,,,,,,,,,,,,,,,,,,,,,,,,,,,,,,,,,,,
296734,2022-09-21_14h45.00.598,vts_reward_expectancy,2022.2.4,Win32,60.0240096,Chrome,1366,768,,,,,0,621,,,,,,,,,,,,,,,,,174,B,hexagon,0,0,,,,,,,,,,,,,,,,repeat,number,NA,d,1.0558,noRew,,,,,,0,,,,,,space,5.0657,low,0,0,0,0,1,,,,,,,,,
296734,2022-09-21_14h45.00.598,vts_reward_expectancy,2022.2.4,Win32,60.0240096,Chrome,1366,768,,,,,0,621,,,,,,,,,,,,,,,,,139,W,circle,1,1,,,,,,,,,,,,,,,,repeat,number,numRpt,d,1.1282,noRew,,,,,,0,,,,,,,,low,1,0,1,0,1,,,,,,,,,
296734,2022-09-21_14h45.00.598,vts_reward_expectancy,2022.2.4,Win32,60.0240096,Chrome,1366,768,,,,,1,622,,,,,,,,,,,,,,,,,146,D,hexagon,1,0,,,,,,,,,,,,,,,,switch,letter,lettSwt,j,0.4863,noRew,,,,,,0,,,,,,,,low,2,0,2,0,1,,,,,,,,,
296734,2022-09-21_14h45.00.598,vts_reward_expectancy,2022.2.4,Win32,60.0240096,Chrome,1366,768,,,,,1,623,,,,,,,,,,,,,,,,,181,Y,circle,1,0,,,,,,,,,,,,,,,,switch,number,numSwt,f,0.4291,noRew,,,,,,0,,,,,,,,low,3,0,3,0,1,,,,,,,,,
296734,2022-09-21_14h45.00.598,vts_reward_expectancy,2022.2.4,Win32,60.0240096,Chrome,1366,768,,,,,1,624,,,,,,,,,,,,,,,,,160,H,circle,1,0,,,,,,,,,,,,,,,,switch,letter,lettSwt,j,0.6499,noRew,,,,,,0,,,,,,,,low,4,0,4,0,1,,,,,,,,,
296734,2022-09-21_14h45.00.598,vts_reward_expectancy,2022.2.4,Win32,60.0240096,Chrome,1366,768,,,,,1,625,,,,,,,,,,,,,,,,,125,S,hexagon,1,0,,,,,,,,,,,,,,,,switch,number,numSwt,d,0.5541,noRew,,,,,,0,,,,,,,,low,5,0,5,0,1,,,,,,,,,
296734,2022-09-21_14h45.00.598,vts_reward_expectancy,2022.2.4,Win32,60.0240096,Chrome,1366,768,,,,,10,635,,,,,,,,,,,,,,,,,132,F,circle,1,0,,,,,,,,,,,,,,,,switch,letter,lettSwt,j,0.5752,noRew,,,,,,0,,,,,,,,low,6,0,6,0,1,,,,,,,,,
296734,2022-09-21_14h45.00.598,vts_reward_expectancy,2022.2.4,Win32,60.0240096,Chrome,1366,768,,,,,0,635,,,,,,,,,,,,,,,,,167,U,hexagon,0,0,,,,,,,,,,,,,,,,repeat,letter,NA,j,0.6201,noRew,,,,,,0,,,,,,,,low,7,0,7,0,1,,,,,,,,,
296734,2022-09-21_14h45.00.598,vts_reward_expectancy,2022.2.4,Win32,60.0240096,Chrome,1366,768,,,,,1,636,,,,,,,,,,,,,,,,,174,B,circle,1,1,,,,,,,,,,,,,,,,switch,number,numSwt,f,0.5346,noRew,,,,,,0,,,,,,,,low,8,0,8,0,1,,,,,,,,,
296734,2022-09-21_14h45.00.598,vts_reward_expectancy,2022.2.4,Win32,60.0240096,Chrome,1366,768,,,,,1,637,,,,,,,,,,,,,,,,,139,W,hexagon,1,0,,,,,,,,,,,,,,,,repeat,number,numRpt,d,0.6479,noRew,,,,,,0,,,,,,,,low,9,0,9,0,1,,,,,,,,,
296734,2022-09-21_14h45.00.598,vts_reward_expectancy,2022.2.4,Win32,60.0240096,Chrome,1366,768,,,,,10,647,,,,,,,,,,,,,,,,,146,D,circle,1,0,,,,,,,,,,,,,,,,switch,letter,lettSwt,j,0.4723,noRew,,,,,,0,,,,,,,,low,10,0,10,0,1,,,,,,,,,
296734,2022-09-21_14h45.00.598,vts_reward_expectancy,2022.2.4,Win32,60.0240096,Chrome,1366,768,,,,,1,648,,,,,,,,,,,,,,,,,181,Y,hexagon,1,0,,,,,,,,,,,,,,,,repeat,letter,lettRpt,k,0.5741,noRew,,,,,,0,,,,,,,,low,11,0,11,0,1,,,,,,,,,
296734,2022-09-21_14h45.00.598,vts_reward_expectancy,2022.2.4,Win32,60.0240096,Chrome,1366,768,,,,,1,649,,,,,,,,,,,,,,,,,160,H,circle,1,0,,,,,,,,,,,,,,,,switch,number,numSwt,f,0.6651,noRew,,,,,,0,,,,,,,,low,12,0,12,0,1,,,,,,,,,
296734,2022-09-21_14h45.00.598,vts_reward_expectancy,2022.2.4,Win32,60.0240096,Chrome,1366,768,,,,,1,650,,,,,,,,,,,,,,,,,125,S,hexagon,1,0,,,,,,,,,,,,,,,,switch,letter,lettSwt,k,0.6845,noRew,,,,,,0,,,,,,,,low,13,0,13,0,1,,,,,,,,,
296734,2022-09-21_14h45.00.598,vts_reward_expectancy,2022.2.4,Win32,60.0240096,Chrome,1366,768,,,,,1,651,,,,,,,,,,,,,,,,,132,F,circle,1,0,,,,,,,,,,,,,,,,switch,number,numSwt,d,0.6097,noRew,,,,,,0,,,,,,,,low,14,0,14,0,1,,,,,,,,,
296734,2022-09-21_14h45.00.598,vts_reward_expectancy,2022.2.4,Win32,60.0240096,Chrome,1366,768,,,,,1,652,,,,,,,,,,,,,,,,,167,U,hexagon,1,0,,,,,,,,,,,,,,,,repeat,number,numRpt,f,0.5939,noRew,,,,,,0,,,,,,,,low,15,0,15,0,1,,,,,,,,,
296734,2022-09-21_14h45.00.598,vts_reward_expectancy,2022.2.4,Win32,60.0240096,Chrome,1366,768,,,,,10,662,,,,,,,,,,,,,,,,,125,Y,circle,1,0,,,,,,,,,,,,,,,,switch,letter,lettSwt,k,0.6257,noRew,,,,,,0,,,,,,,,low,16,0,16,0,1,,,,,,,,,
296734,2022-09-21_14h45.00.598,vts_reward_expectancy,2022.2.4,Win32,60.0240096,Chrome,1366,768,,,,,1,663,,,,,,,,,,,,,,,,,160,S,hexagon,1,0,,,,,,,,,,,,,,,,repeat,letter,lettRpt,k,0.5846,noRew,,,,,,0,,,,,,,,low,17,0,17,0,1,,,,,,,,,
296734,2022-09-21_14h45.00.598,vts_reward_expectancy,2022.2.4,Win32,60.0240096,Chrome,1366,768,,,,,0,663,,,,,,,,,,,,,,,,,146,U,circle,1,0,,,,,,,,,,,,,,,,switch,number,numSwt,d,0.7229,noRew,,,,,,0,,,,,,,,low,18,0,18,0,1,,,,,,,,,
296734,2022-09-21_14h45.00.598,vts_reward_expectancy,2022.2.4,Win32,60.0240096,Chrome,1366,768,,,,,1,664,,,,,,,,,,,,,,,,,174,H,hexagon,1,0,,,,,,,,,,,,,,,,repeat,number,numRpt,f,0.5768,noRew,,,,,,0,,,,,,,,low,19,0,19,0,1,,,,,,,,,
296734,2022-09-21_14h45.00.598,vts_reward_expectancy,2022.2.4,Win32,60.0240096,Chrome,1366,768,,,,,1,665,,,,,,,,,,,,,,,,,167,B,circle,1,0,,,,,,,,,,,,,,,,repeat,number,numRpt,f,0.5852,noRew,,,,,,0,,,,,,,,low,20,0,20,0,1,,,,,,,,,
296734,2022-09-21_14h45.00.598,vts_reward_expectancy,2022.2.4,Win32,60.0240096,Chrome,1366,768,,,,,1,666,,,,,,,,,,,,,,,,,181,D,hexagon,1,0,,,,,,,,,,,,,,,,repeat,number,numRpt,f,0.5364,noRew,,,,,,0,,,,,,,,low,21,0,21,0,1,,,,,,,,,
296734,2022-09-21_14h45.00.598,vts_reward_expectancy,2022.2.4,Win32,60.0240096,Chrome,1366,768,,,,,10,676,,,,,,,,,,,,,,,,,139,F,circle,1,0,,,,,,,,,,,,,,,,switch,letter,lettSwt,j,0.6354,noRew,,,,,,0,,,,,,,,low,22,0,22,0,1,,,,,,,,,
296734,2022-09-21_14h45.00.598,vts_reward_expectancy,2022.2.4,Win32,60.0240096,Chrome,1366,768,,,,,1,677,,,,,,,,,,,,,,,,,132,W,hexagon,1,0,,,,,,,,,,,,,,,,switch,number,numSwt,d,0.5076,noRew,,,,,,0,,,,,,,,low,23,0,23,0,1,,,,,,,,,
296734,2022-09-21_14h45.00.598,vts_reward_expectancy,2022.2.4,Win32,60.0240096,Chrome,1366,768,,,,,10,687,,,,,,,,,,,,,,,,,139,S,hexagon,1,0,,,,,,,,,,,,,,,,switch,letter,lettSwt,k,0.4443,noRew,,,,,,0,,,,,,,,low,24,0,24,0,1,,,,,,,,,
296734,2022-09-21_14h45.00.598,vts_reward_expectancy,2022.2.4,Win32,60.0240096,Chrome,1366,768,,,,,10,697,,,,,,,,,,,,,,,,,146,F,circle,1,0,,,,,,,,,,,,,,,,repeat,letter,lettRpt,j,0.5587,noRew,,,,,,0,,,,,,,,low,25,0,25,0,1,,,,,,,,,
296734,2022-09-21_14h45.00.598,vts_reward_expectancy,2022.2.4,Win32,60.0240096,Chrome,1366,768,,,,,10,707,,,,,,,,,,,,,,,,,167,Y,circle,1,0,,,,,,,,,,,,,,,,repeat,letter,lettRpt,k,0.5778,noRew,,,,,,0,,,,,,,,low,26,0,26,0,1,,,,,,,,,
296734,2022-09-21_14h45.00.598,vts_reward_expectancy,2022.2.4,Win32,60.0240096,Chrome,1366,768,,,,,1,708,,,,,,,,,,,,,,,,,174,U,hexagon,1,0,,,,,,,,,,,,,,,,repeat,letter,lettRpt,k,0.496,noRew,,,,,,0,,,,,,,,low,27,0,27,0,1,,,,,,,,,
296734,2022-09-21_14h45.00.598,vts_reward_expectancy,2022.2.4,Win32,60.0240096,Chrome,1366,768,,,,,1,709,,,,,,,,,,,,,,,,,160,D,hexagon,1,0,,,,,,,,,,,,,,,,repeat,letter,lettRpt,j,0.6419,noRew,,,,,,0,,,,,,,,low,28,0,28,0,1,,,,,,,,,
296734,2022-09-21_14h45.00.598,vts_reward_expectancy,2022.2.4,Win32,60.0240096,Chrome,1366,768,,,,,10,719,,,,,,,,,,,,,,,,,181,B,circle,1,0,,,,,,,,,,,,,,,,switch,number,numSwt,f,0.6635,noRew,,,,,,0,,,,,,,,low,29,0,29,0,1,,,,,,,,,
296734,2022-09-21_14h45.00.598,vts_reward_expectancy,2022.2.4,Win32,60.0240096,Chrome,1366,768,,,,,0,719,,,,,,,,,,,,,,,,,125,H,hexagon,0,0,,,,,,,,,,,,,,,,switch,letter,NA,k,0.485,noRew,,,,,,0,,,,,,,,low,30,0,30,0,1,,,,,,,,,
296734,2022-09-21_14h45.00.598,vts_reward_expectancy,2022.2.4,Win32,60.0240096,Chrome,1366,768,,,,,10,729,,,,,,,,,,,,,,,,,132,W,circle,1,1,,,,,,,,,,,,,,,,switch,number,numSwt,d,0.5197,noRew,,,,,,0,,,,,,,,low,31,0,31,0,1,,,,,,,,,
296734,2022-09-21_14h45.00.598,vts_reward_expectancy,2022.2.4,Win32,60.0240096,Chrome,1366,768,,,,,1,730,,,,,,,,,,,,,,,,,181,S,hexagon,1,0,,,,,,,,,,,,,,,,repeat,number,numRpt,f,0.7527,noRew,,,,,,1,,,,,,space,2.5378,low,0,0,0,0,1,,,,,,,,,
296734,2022-09-21_14h45.00.598,vts_reward_expectancy,2022.2.4,Win32,60.0240096,Chrome,1366,768,,,,,0,730,,,,,,,,,,,,,,,,,167,B,circle,1,0,,,,,,,,,,,,,,,,repeat,number,numRpt,f,0.7005,noRew,,,,,,1,,,,,,,,low,1,0,1,0,1,,,,,,,,,
296734,2022-09-21_14h45.00.598,vts_reward_expectancy,2022.2.4,Win32,60.0240096,Chrome,1366,768,,,,,10,740,,,,,,,,,,,,,,,,,160,W,hexagon,1,0,,,,,,,,,,,,,,,,switch,letter,lettSwt,k,0.5113,noRew,,,,,,1,,,,,,,,low,2,0,2,0,1,,,,,,,,,
296734,2022-09-21_14h45.00.598,vts_reward_expectancy,2022.2.4,Win32,60.0240096,Chrome,1366,768,,,,,1,741,,,,,,,,,,,,,,,,,174,F,circle,1,0,,,,,,,,,,,,,,,,switch,number,numSwt,f,0.5108,noRew,,,,,,1,,,,,,,,low,3,0,3,0,1,,,,,,,,,
296734,2022-09-21_14h45.00.598,vts_reward_expectancy,2022.2.4,Win32,60.0240096,Chrome,1366,768,,,,,10,751,,,,,,,,,,,,,,,,,125,U,circle,1,0,,,,,,,,,,,,,,,,repeat,number,numRpt,d,0.5605,noRew,,,,,,1,,,,,,,,low,4,0,4,0,1,,,,,,,,,
296734,2022-09-21_14h45.00.598,vts_reward_expectancy,2022.2.4,Win32,60.0240096,Chrome,1366,768,,,,,10,761,,,,,,,,,,,,,,,,,146,D,hexagon,1,0,,,,,,,,,,,,,,,,switch,letter,lettSwt,j,0.4982,noRew,,,,,,1,,,,,,,,low,5,0,5,0,1,,,,,,,,,
296734,2022-09-21_14h45.00.598,vts_reward_expectancy,2022.2.4,Win32,60.0240096,Chrome,1366,768,,,,,10,771,,,,,,,,,,,,,,,,,132,Y,hexagon,1,0,,,,,,,,,,,,,,,,repeat,letter,lettRpt,k,0.4142,noRew,,,,,,1,,,,,,,,low,6,0,6,0,1,,,,,,,,,
296734,2022-09-21_14h45.00.598,vts_reward_expectancy,2022.2.4,Win32,60.0240096,Chrome,1366,768,,,,,0,771,,,,,,,,,,,,,,,,,139,H,circle,1,0,,,,,,,,,,,,,,,,switch,number,numSwt,d,0.6483,noRew,,,,,,1,,,,,,,,low,7,0,7,0,1,,,,,,,,,
296734,2022-09-21_14h45.00.598,vts_reward_expectancy,2022.2.4,Win32,60.0240096,Chrome,1366,768,,,,,10,781,,,,,,,,,,,,,,,,,181,S,circle,1,0,,,,,,,,,,,,,,,,repeat,number,numRpt,f,0.3795,noRew,,,,,,1,,,,,,,,low,8,0,8,0,1,,,,,,,,,
296734,2022-09-21_14h45.00.598,vts_reward_expectancy,2022.2.4,Win32,60.0240096,Chrome,1366,768,,,,,1,782,,,,,,,,,,,,,,,,,167,B,hexagon,1,0,,,,,,,,,,,,,,,,switch,letter,lettSwt,j,0.5157,noRew,,,,,,1,,,,,,,,low,9,0,9,0,1,,,,,,,,,
296734,2022-09-21_14h45.00.598,vts_reward_expectancy,2022.2.4,Win32,60.0240096,Chrome,1366,768,,,,,10,792,,,,,,,,,,,,,,,,,160,W,circle,1,0,,,,,,,,,,,,,,,,switch,number,numSwt,f,0.4179,noRew,,,,,,1,,,,,,,,low,10,0,10,0,1,,,,,,,,,
296734,2022-09-21_14h45.00.598,vts_reward_expectancy,2022.2.4,Win32,60.0240096,Chrome,1366,768,,,,,1,793,,,,,,,,,,,,,,,,,174,F,hexagon,1,0,,,,,,,,,,,,,,,,switch,letter,lettSwt,j,0.4686,noRew,,,,,,1,,,,,,,,low,11,0,11,0,1,,,,,,,,,
296734,2022-09-21_14h45.00.598,vts_reward_expectancy,2022.2.4,Win32,60.0240096,Chrome,1366,768,,,,,0,793,,,,,,,,,,,,,,,,,125,U,circle,1,0,,,,,,,,,,,,,,,,switch,number,numSwt,d,0.9679,noRew,,,,,,1,,,,,,,,low,12,0,12,0,1,,,,,,,,,
296734,2022-09-21_14h45.00.598,vts_reward_expectancy,2022.2.4,Win32,60.0240096,Chrome,1366,768,,,,,1,794,,,,,,,,,,,,,,,,,146,D,hexagon,1,0,,,,,,,,,,,,,,,,repeat,number,numRpt,d,0.6279,noRew,,,,,,1,,,,,,,,low,13,0,13,0,1,,,,,,,,,
296734,2022-09-21_14h45.00.598,vts_reward_expectancy,2022.2.4,Win32,60.0240096,Chrome,1366,768,,,,,1,795,,,,,,,,,,,,,,,,,132,Y,hexagon,1,0,,,,,,,,,,,,,,,,switch,letter,lettSwt,k,0.4978,noRew,,,,,,1,,,,,,,,low,14,0,14,0,1,,,,,,,,,
296734,2022-09-21_14h45.00.598,vts_reward_expectancy,2022.2.4,Win32,60.0240096,Chrome,1366,768,,,,,10,805,,,,,,,,,,,,,,,,,139,H,circle,1,0,,,,,,,,,,,,,,,,switch,number,numSwt,d,0.3813,noRew,,,,,,1,,,,,,,,low,15,0,15,0,1,,,,,,,,,
296734,2022-09-21_14h45.00.598,vts_reward_expectancy,2022.2.4,Win32,60.0240096,Chrome,1366,768,,,,,1,806,,,,,,,,,,,,,,,,,132,D,hexagon,1,0,,,,,,,,,,,,,,,,switch,letter,lettSwt,j,0.4589,noRew,,,,,,1,,,,,,,,low,16,0,16,0,1,,,,,,,,,
296734,2022-09-21_14h45.00.598,vts_reward_expectancy,2022.2.4,Win32,60.0240096,Chrome,1366,768,,,,,0,806,,,,,,,,,,,,,,,,,181,W,circle,0,0,,,,,,,,,,,,,,,,switch,number,NA,d,0.3678,noRew,,,,,,1,,,,,,,,low,17,0,17,0,1,,,,,,,,,
296734,2022-09-21_14h45.00.598,vts_reward_expectancy,2022.2.4,Win32,60.0240096,Chrome,1366,768,,,,,10,816,,,,,,,,,,,,,,,,,139,S,circle,1,1,,,,,,,,,,,,,,,,repeat,number,numRpt,d,0.4125,noRew,,,,,,1,,,,,,,,low,18,0,18,0,1,,,,,,,,,
296734,2022-09-21_14h45.00.598,vts_reward_expectancy,2022.2.4,Win32,60.0240096,Chrome,1366,768,,,,,0,816,,,,,,,,,,,,,,,,,125,H,hexagon,0,0,,,,,,,,,,,,,,,,switch,letter,NA,k,0.775,noRew,,,,,,1,,,,,,,,low,19,0,19,0,1,,,,,,,,,
296734,2022-09-21_14h45.00.598,vts_reward_expectancy,2022.2.4,Win32,60.0240096,Chrome,1366,768,,,,,1,817,,,,,,,,,,,,,,,,,167,U,hexagon,1,1,,,,,,,,,,,,,,,,switch,number,numSwt,f,1.4938,noRew,,,,,,1,,,,,,,,low,20,0,20,0,1,,,,,,,,,
296734,2022-09-21_14h45.00.598,vts_reward_expectancy,2022.2.4,Win32,60.0240096,Chrome,1366,768,,,,,10,827,,,,,,,,,,,,,,,,,174,Y,circle,1,0,,,,,,,,,,,,,,,,repeat,number,numRpt,f,0.5611,noRew,,,,,,1,,,,,,,,low,21,0,21,0,1,,,,,,,,,
296734,2022-09-21_14h45.00.598,vts_reward_expectancy,2022.2.4,Win32,60.0240096,Chrome,1366,768,,,,,1,828,,,,,,,,,,,,,,,,,146,F,circle,1,0,,,,,,,,,,,,,,,,repeat,number,numRpt,d,0.5434,noRew,,,,,,1,,,,,,,,low,22,0,22,0,1,,,,,,,,,
296734,2022-09-21_14h45.00.598,vts_reward_expectancy,2022.2.4,Win32,60.0240096,Chrome,1366,768,,,,,10,838,,,,,,,,,,,,,,,,,160,B,hexagon,1,0,,,,,,,,,,,,,,,,switch,letter,lettSwt,j,0.6522,noRew,,,,,,1,,,,,,,,low,23,0,23,0,1,,,,,,,,,
296734,2022-09-21_14h45.00.598,vts_reward_expectancy,2022.2.4,Win32,60.0240096,Chrome,1366,768,,,,,10,848,,,,,,,,,,,,,,,,,160,F,hexagon,1,0,,,,,,,,,,,,,,,,repeat,letter,lettRpt,j,0.8175,noRew,,,,,,1,,,,,,,,low,24,0,24,0,1,,,,,,,,,
296734,2022-09-21_14h45.00.598,vts_reward_expectancy,2022.2.4,Win32,60.0240096,Chrome,1366,768,,,,,10,858,,,,,,,,,,,,,,,,,139,Y,circle,1,0,,,,,,,,,,,,,,,,switch,number,numSwt,d,0.4522,noRew,,,,,,1,,,,,,,,low,25,0,25,0,1,,,,,,,,,
296734,2022-09-21_14h45.00.598,vts_reward_expectancy,2022.2.4,Win32,60.0240096,Chrome,1366,768,,,,,1,859,,,,,,,,,,,,,,,,,167,B,hexagon,1,0,,,,,,,,,,,,,,,,switch,letter,lettSwt,j,0.4195,noRew,,,,,,1,,,,,,,,low,26,0,26,0,1,,,,,,,,,
296734,2022-09-21_14h45.00.598,vts_reward_expectancy,2022.2.4,Win32,60.0240096,Chrome,1366,768,,,,,10,869,,,,,,,,,,,,,,,,,174,H,circle,1,0,,,,,,,,,,,,,,,,switch,number,numSwt,f,0.3848,noRew,,,,,,1,,,,,,,,low,27,0,27,0,1,,,,,,,,,
296734,2022-09-21_14h45.00.598,vts_reward_expectancy,2022.2.4,Win32,60.0240096,Chrome,1366,768,,,,,0,869,,,,,,,,,,,,,,,,,146,U,circle,0,0,,,,,,,,,,,,,,,,repeat,number,NA,f,1.0879,noRew,,,,,,1,,,,,,,,low,28,0,28,0,1,,,,,,,,,
296734,2022-09-21_14h45.00.598,vts_reward_expectancy,2022.2.4,Win32,60.0240096,Chrome,1366,768,,,,,1,870,,,,,,,,,,,,,,,,,132,D,hexagon,1,1,,,,,,,,,,,,,,,,switch,letter,lettSwt,j,0.7345,noRew,,,,,,1,,,,,,,,low,29,0,29,0,1,,,,,,,,,
296734,2022-09-21_14h45.00.598,vts_reward_expectancy,2022.2.4,Win32,60.0240096,Chrome,1366,768,,,,,0,870,,,,,,,,,,,,,,,,,125,S,circle,1,0,,,,,,,,,,,,,,,,switch,number,numSwt,d,0.7164,noRew,,,,,,1,,,,,,,,low,30,0,30,0,1,,,,,,,,,
296734,2022-09-21_14h45.00.598,vts_reward_expectancy,2022.2.4,Win32,60.0240096,Chrome,1366,768,,,,,1,871,,,,,,,,,,,,,,,,,181,W,hexagon,1,0,,,,,,,,,,,,,,,,switch,letter,lettSwt,k,0.9667,noRew,,,,,,1,,,,,,,,low,31,0,31,0,1,,,,,,,,,
296734,2022-09-21_14h45.00.598,vts_reward_expectancy,2022.2.4,Win32,60.0240096,Chrome,1366,768,,,,,0,871,,,,,,,,,,,,,,,,,160,D,triangle,1,0,,,,,,,,,,,,,,,,switch,number,numSwt,f,0.5851,noRew,,,,,,2,,,,,,space,1.9698,high,0,0,0,0,1,,,,,,,,,
296734,2022-09-21_14h45.00.598,vts_reward_expectancy,2022.2.4,Win32,60.0240096,Chrome,1366,768,,,,,10,881,,,,,,,,,,,,,,,,,146,F,star,1,0,,,,,,,,,,,,,,,,switch,letter,lettSwt,j,0.4609,noRew,,,,,,2,,,,,,,,high,1,0,1,0,1,,,,,,,,,
296734,2022-09-21_14h45.00.598,vts_reward_expectancy,2022.2.4,Win32,60.0240096,Chrome,1366,768,,,,,1,882,,,,,,,,,,,,,,,,,132,U,triangle,1,0,,,,,,,,,,,,,,,,switch,number,numSwt,d,0.3965,noRew,,,,,,2,,,,,,,,high,2,0,2,0,1,,,,,,,,,
296734,2022-09-21_14h45.00.598,vts_reward_expectancy,2022.2.4,Win32,60.0240096,Chrome,1366,768,,,,,1,883,,,,,,,,,,,,,,,,,139,Y,star,1,0,,,,,,,,,,,,,,,,switch,letter,lettSwt,k,0.5299,noRew,,,,,,2,,,,,,,,high,3,0,3,0,1,,,,,,,,,
296734,2022-09-21_14h45.00.598,vts_reward_expectancy,2022.2.4,Win32,60.0240096,Chrome,1366,768,,,,,1,884,,,,,,,,,,,,,,,,,125,W,star,1,0,,,,,,,,,,,,,,,,switch,number,numSwt,d,0.5277,noRew,,,,,,2,,,,,,,,high,4,0,4,0,1,,,,,,,,,
296734,2022-09-21_14h45.00.598,vts_reward_expectancy,2022.2.4,Win32,60.0240096,Chrome,1366,768,,,,,10,894,,,,,,,,,,,,,,,,,174,H,triangle,1,0,,,,,,,,,,,,,,,,repeat,number,numRpt,f,0.4594,noRew,,,,,,2,,,,,,,,high,5,0,5,0,1,,,,,,,,,
296734,2022-09-21_14h45.00.598,vts_reward_expectancy,2022.2.4,Win32,60.0240096,Chrome,1366,768,,,,,0,894,,,,,,,,,,,,,,,,,167,B,triangle,1,0,,,,,,,,,,,,,,,,switch,letter,lettSwt,j,0.5383,noRew,,,,,,2,,,,,,,,high,6,0,6,0,1,,,,,,,,,
296734,2022-09-21_14h45.00.598,vts_reward_expectancy,2022.2.4,Win32,60.0240096,Chrome,1366,768,,,,,1,895,,,,,,,,,,,,,,,,,181,S,star,1,0,,,,,,,,,,,,,,,,repeat,letter,lettRpt,k,0.5447,noRew,,,,,,2,,,,,,,,high,7,0,7,0,1,,,,,,,,,
296734,2022-09-21_14h45.00.598,vts_reward_expectancy,2022.2.4,Win32,60.0240096,Chrome,1366,768,,,,,1,896,,,,,,,,,,,,,,,,,160,D,star,1,0,,,,,,,,,,,,,,,,switch,number,numSwt,f,0.6849,noRew,,,,,,2,,,,,,,,high,8,0,8,0,1,,,,,,,,,
296734,2022-09-21_14h45.00.598,vts_reward_expectancy,2022.2.4,Win32,60.0240096,Chrome,1366,768,,,,,10,906,,,,,,,,,,,,,,,,,146,F,triangle,1,0,,,,,,,,,,,,,,,,switch,letter,lettSwt,j,0.401,noRew,,,,,,2,,,,,,,,high,9,0,9,0,1,,,,,,,,,
296734,2022-09-21_14h45.00.598,vts_reward_expectancy,2022.2.4,Win32,60.0240096,Chrome,1366,768,,,,,0,906,,,,,,,,,,,,,,,,,132,U,triangle,1,0,,,,,,,,,,,,,,,,repeat,letter,lettRpt,k,0.5733,noRew,,,,,,2,,,,,,,,high,10,0,10,0,1,,,,,,,,,
296734,2022-09-21_14h45.00.598,vts_reward_expectancy,2022.2.4,Win32,60.0240096,Chrome,1366,768,,,,,1,907,,,,,,,,,,,,,,,,,139,Y,star,1,0,,,,,,,,,,,,,,,,repeat,letter,lettRpt,k,0.455,noRew,,,,,,2,,,,,,,,high,11,0,11,0,1,,,,,,,,,
296734,2022-09-21_14h45.00.598,vts_reward_expectancy,2022.2.4,Win32,60.0240096,Chrome,1366,768,,,,,0,907,,,,,,,,,,,,,,,,,125,W,triangle,1,0,,,,,,,,,,,,,,,,switch,number,numSwt,d,0.4846,noRew,,,,,,2,,,,,,,,high,12,0,12,0,1,,,,,,,,,
296734,2022-09-21_14h45.00.598,vts_reward_expectancy,2022.2.4,Win32,60.0240096,Chrome,1366,768,,,,,0,907,,,,,,,,,,,,,,,,,174,H,star,0,0,,,,,,,,,,,,,,,,switch,letter,NA,k,0.7569,noRew,,,,,,2,,,,,,,,high,13,0,13,0,1,,,,,,,,,
296734,2022-09-21_14h45.00.598,vts_reward_expectancy,2022.2.4,Win32,60.0240096,Chrome,1366,768,,,,,10,917,,,,,,,,,,,,,,,,,167,B,triangle,1,1,,,,,,,,,,,,,,,,switch,number,numSwt,f,0.3848,noRew,,,,,,2,,,,,,,,high,14,0,14,0,1,,,,,,,,,
296734,2022-09-21_14h45.00.598,vts_reward_expectancy,2022.2.4,Win32,60.0240096,Chrome,1366,768,,,,,0,917,,,,,,,,,,,,,,,,,181,S,star,0,0,,,,,,,,,,,,,,,,switch,letter,NA,j,0.5912,noRew,,,,,,2,,,,,,,,high,15,0,15,0,1,,,,,,,,,
296734,2022-09-21_14h45.00.598,vts_reward_expectancy,2022.2.4,Win32,60.0240096,Chrome,1366,768,,,,,0,917,,,,,,,,,,,,,,,,,174,W,triangle,1,1,,,,,,,,,,,,,,,,switch,number,numSwt,f,0.4462,noRew,,,,,,2,,,,,,,,high,16,0,16,0,1,,,,,,,,,
296734,2022-09-21_14h45.00.598,vts_reward_expectancy,2022.2.4,Win32,60.0240096,Chrome,1366,768,,,,,1,918,,,,,,,,,,,,,,,,,167,D,star,1,0,,,,,,,,,,,,,,,,switch,letter,lettSwt,j,0.476,noRew,,,,,,2,,,,,,,,high,17,0,17,0,1,,,,,,,,,
296734,2022-09-21_14h45.00.598,vts_reward_expectancy,2022.2.4,Win32,60.0240096,Chrome,1366,768,,,,,0,918,,,,,,,,,,,,,,,,,146,S,triangle,0,0,,,,,,,,,,,,,,,,switch,number,NA,f,0.4996,noRew,,,,,,2,,,,,,,,high,18,0,18,0,1,,,,,,,,,
296734,2022-09-21_14h45.00.598,vts_reward_expectancy,2022.2.4,Win32,60.0240096,Chrome,1366,768,,,,,1,919,,,,,,,,,,,,,,,,,125,F,star,1,1,,,,,,,,,,,,,,,,switch,letter,lettSwt,j,0.485,noRew,,,,,,2,,,,,,,,high,19,0,19,0,1,,,,,,,,,
296734,2022-09-21_14h45.00.598,vts_reward_expectancy,2022.2.4,Win32,60.0240096,Chrome,1366,768,,,,,1,920,,,,,,,,,,,,,,,,,160,B,star,1,0,,,,,,,,,,,,,,,,switch,number,numSwt,f,0.6353,noRew,,,,,,2,,,,,,,,high,20,0,20,0,1,,,,,,,,,
296734,2022-09-21_14h45.00.598,vts_reward_expectancy,2022.2.4,Win32,60.0240096,Chrome,1366,768,,,,,10,930,,,,,,,,,,,,,,,,,139,Y,triangle,1,0,,,,,,,,,,,,,,,,repeat,number,numRpt,d,0.4447,noRew,,,,,,2,,,,,,,,high,21,0,21,0,1,,,,,,,,,
296734,2022-09-21_14h45.00.598,vts_reward_expectancy,2022.2.4,Win32,60.0240096,Chrome,1366,768,,,,,10,940,,,,,,,,,,,,,,,,,132,U,star,1,0,,,,,,,,,,,,,,,,repeat,number,numRpt,d,0.935,noRew,,,,,,2,,,,,,,,high,22,0,22,0,1,,,,,,,,,
296734,2022-09-21_14h45.00.598,vts_reward_expectancy,2022.2.4,Win32,60.0240096,Chrome,1366,768,,,,,0,940,,,,,,,,,,,,,,,,,181,H,triangle,1,0,,,,,,,,,,,,,,,,repeat,number,numRpt,f,0.6079,noRew,,,,,,2,,,,,,,,high,23,0,23,0,1,,,,,,,,,
296734,2022-09-21_14h45.00.598,vts_reward_expectancy,2022.2.4,Win32,60.0240096,Chrome,1366,768,,,,,10,950,,,,,,,,,,,,,,,,,167,W,triangle,1,0,,,,,,,,,,,,,,,,repeat,number,numRpt,f,0.4654,noRew,,,,,,2,,,,,,,,high,24,0,24,0,1,,,,,,,,,
296734,2022-09-21_14h45.00.598,vts_reward_expectancy,2022.2.4,Win32,60.0240096,Chrome,1366,768,,,,,1,951,,,,,,,,,,,,,,,,,146,U,star,1,0,,,,,,,,,,,,,,,,switch,letter,lettSwt,k,1.3279,noRew,,,,,,2,,,,,,,,high,25,0,25,0,1,,,,,,,,,
296734,2022-09-21_14h45.00.598,vts_reward_expectancy,2022.2.4,Win32,60.0240096,Chrome,1366,768,,,,,1,952,,,,,,,,,,,,,,,,,125,B,star,1,0,,,,,,,,,,,,,,,,switch,number,numSwt,d,1.2351,noRew,,,,,,2,,,,,,,,high,26,0,26,0,1,,,,,,,,,
296734,2022-09-21_14h45.00.598,vts_reward_expectancy,2022.2.4,Win32,60.0240096,Chrome,1366,768,,,,,0,952,,,,,,,,,,,,,,,,,132,F,triangle,1,0,,,,,,,,,,,,,,,,repeat,number,numRpt,d,0.6686,noRew,,,,,,2,,,,,,,,high,27,0,27,0,1,,,,,,,,,
296734,2022-09-21_14h45.00.598,vts_reward_expectancy,2022.2.4,Win32,60.0240096,Chrome,1366,768,,,,,1,953,,,,,,,,,,,,,,,,,160,S,triangle,1,0,,,,,,,,,,,,,,,,repeat,number,numRpt,f,0.3685,noRew,,,,,,2,,,,,,,,high,28,0,28,0,1,,,,,,,,,
296734,2022-09-21_14h45.00.598,vts_reward_expectancy,2022.2.4,Win32,60.0240096,Chrome,1366,768,,,,,1,954,,,,,,,,,,,,,,,,,139,H,star,1,0,,,,,,,,,,,,,,,,repeat,number,numRpt,d,0.4577,noRew,,,,,,2,,,,,,,,high,29,0,29,0,1,,,,,,,,,
296734,2022-09-21_14h45.00.598,vts_reward_expectancy,2022.2.4,Win32,60.0240096,Chrome,1366,768,,,,,1,955,,,,,,,,,,,,,,,,,181,D,star,1,0,,,,,,,,,,,,,,,,switch,letter,lettSwt,j,0.4999,noRew,,,,,,2,,,,,,,,high,30,0,30,0,1,,,,,,,,,
296734,2022-09-21_14h45.00.598,vts_reward_expectancy,2022.2.4,Win32,60.0240096,Chrome,1366,768,,,,,0,955,,,,,,,,,,,,,,,,,174,Y,triangle,1,0,,,,,,,,,,,,,,,,switch,number,numSwt,f,0.467,noRew,,,,,,2,,,,,,,,high,31,0,31,0,1,,,,,,,,,
296734,2022-09-21_14h45.00.598,vts_reward_expectancy,2022.2.4,Win32,60.0240096,Chrome,1366,768,,,,,0,955,,,,,,,,,,,,,,,,,160,U,triangle,1,0,,,,,,,,,,,,,,,,repeat,number,numRpt,f,0.4683,noRew,,,,,,3,,,,,,space,1.2821,high,0,0,0,0,1,,,,,,,,,
296734,2022-09-21_14h45.00.598,vts_reward_expectancy,2022.2.4,Win32,60.0240096,Chrome,1366,768,,,,,1,956,,,,,,,,,,,,,,,,,132,F,star,1,0,,,,,,,,,,,,,,,,switch,letter,lettSwt,j,0.4052,noRew,,,,,,3,,,,,,,,high,1,0,1,0,1,,,,,,,,,
296734,2022-09-21_14h45.00.598,vts_reward_expectancy,2022.2.4,Win32,60.0240096,Chrome,1366,768,,,,,0,956,,,,,,,,,,,,,,,,,174,Y,triangle,0,0,,,,,,,,,,,,,,,,switch,number,NA,d,0.4017,noRew,,,,,,3,,,,,,,,high,2,0,2,0,1,,,,,,,,,
296734,2022-09-21_14h45.00.598,vts_reward_expectancy,2022.2.4,Win32,60.0240096,Chrome,1366,768,,,,,1,957,,,,,,,,,,,,,,,,,181,B,star,1,1,,,,,,,,,,,,,,,,switch,letter,lettSwt,j,0.3895,noRew,,,,,,3,,,,,,,,high,3,0,3,0,1,,,,,,,,,
296734,2022-09-21_14h45.00.598,vts_reward_expectancy,2022.2.4,Win32,60.0240096,Chrome,1366,768,,,,,10,967,,,,,,,,,,,,,,,,,167,W,star,1,0,,,,,,,,,,,,,,,,repeat,letter,lettRpt,k,0.6349,noRew,,,,,,3,,,,,,,,high,4,0,4,0,1,,,,,,,,,
296734,2022-09-21_14h45.00.598,vts_reward_expectancy,2022.2.4,Win32,60.0240096,Chrome,1366,768,,,,,0,967,,,,,,,,,,,,,,,,,125,S,triangle,1,0,,,,,,,,,,,,,,,,switch,number,numSwt,d,0.5698,noRew,,,,,,3,,,,,,,,high,5,0,5,0,1,,,,,,,,,
296734,2022-09-21_14h45.00.598,vts_reward_expectancy,2022.2.4,Win32,60.0240096,Chrome,1366,768,,,,,0,967,,,,,,,,,,,,,,,,,146,D,triangle,1,0,,,,,,,,,,,,,,,,repeat,number,numRpt,d,0.4852,noRew,,,,,,3,,,,,,,,high,6,0,6,0,1,,,,,,,,,
296734,2022-09-21_14h45.00.598,vts_reward_expectancy,2022.2.4,Win32,60.0240096,Chrome,1366,768,,,,,1,968,,,,,,,,,,,,,,,,,139,H,star,1,0,,,,,,,,,,,,,,,,switch,letter,lettSwt,j,1.7767,noRew,,,,,,3,,,,,,,,high,7,0,7,0,1,,,,,,,,,
296734,2022-09-21_14h45.00.598,vts_reward_expectancy,2022.2.4,Win32,60.0240096,Chrome,1366,768,,,,,10,978,,,,,,,,,,,,,,,,,160,U,star,1,0,,,,,,,,,,,,,,,,switch,number,numSwt,f,0.5573,noRew,,,,,,3,,,,,,,,high,8,0,8,0,1,,,,,,,,,
296734,2022-09-21_14h45.00.598,vts_reward_expectancy,2022.2.4,Win32,60.0240096,Chrome,1366,768,,,,,10,988,,,,,,,,,,,,,,,,,132,F,triangle,1,0,,,,,,,,,,,,,,,,repeat,number,numRpt,d,0.418,noRew,,,,,,3,,,,,,,,high,9,0,9,0,1,,,,,,,,,
296734,2022-09-21_14h45.00.598,vts_reward_expectancy,2022.2.4,Win32,60.0240096,Chrome,1366,768,,,,,0,988,,,,,,,,,,,,,,,,,174,Y,triangle,1,0,,,,,,,,,,,,,,,,repeat,number,numRpt,f,0.4846,noRew,,,,,,3,,,,,,,,high,10,0,10,0,1,,,,,,,,,
296734,2022-09-21_14h45.00.598,vts_reward_expectancy,2022.2.4,Win32,60.0240096,Chrome,1366,768,,,,,1,989,,,,,,,,,,,,,,,,,181,B,star,1,0,,,,,,,,,,,,,,,,repeat,number,numRpt,f,1.085,noRew,,,,,,3,,,,,,,,high,11,0,11,0,1,,,,,,,,,
296734,2022-09-21_14h45.00.598,vts_reward_expectancy,2022.2.4,Win32,60.0240096,Chrome,1366,768,,,,,0,989,,,,,,,,,,,,,,,,,167,W,triangle,1,0,,,,,,,,,,,,,,,,repeat,number,numRpt,f,0.5194,noRew,,,,,,3,,,,,,,,high,12,0,12,0,1,,,,,,,,,
296734,2022-09-21_14h45.00.598,vts_reward_expectancy,2022.2.4,Win32,60.0240096,Chrome,1366,768,,,,,1,990,,,,,,,,,,,,,,,,,125,S,star,1,0,,,,,,,,,,,,,,,,switch,letter,lettSwt,k,0.6508,noRew,,,,,,3,,,,,,,,high,13,0,13,0,1,,,,,,,,,
296734,2022-09-21_14h45.00.598,vts_reward_expectancy,2022.2.4,Win32,60.0240096,Chrome,1366,768,,,,,1,991,,,,,,,,,,,,,,,,,146,D,star,1,0,,,,,,,,,,,,,,,,repeat,letter,lettRpt,j,0.5576,noRew,,,,,,3,,,,,,,,high,14,0,14,0,1,,,,,,,,,
296734,2022-09-21_14h45.00.598,vts_reward_expectancy,2022.2.4,Win32,60.0240096,Chrome,1366,768,,,,,0,991,,,,,,,,,,,,,,,,,139,H,triangle,0,0,,,,,,,,,,,,,,,,switch,number,NA,f,0.3256,noRew,,,,,,3,,,,,,,,high,15,0,15,0,1,,,,,,,,,
296734,2022-09-21_14h45.00.598,vts_reward_expectancy,2022.2.4,Win32,60.0240096,Chrome,1366,768,,,,,1,992,,,,,,,,,,,,,,,,,132,U,star,1,1,,,,,,,,,,,,,,,,switch,letter,lettSwt,k,0.3936,noRew,,,,,,3,,,,,,,,high,16,0,16,0,1,,,,,,,,,
296734,2022-09-21_14h45.00.598,vts_reward_expectancy,2022.2.4,Win32,60.0240096,Chrome,1366,768,,,,,10,1002,,,,,,,,,,,,,,,,,174,F,triangle,1,0,,,,,,,,,,,,,,,,switch,number,numSwt,f,0.4588,noRew,,,,,,3,,,,,,,,high,17,0,17,0,1,,,,,,,,,
296734,2022-09-21_14h45.00.598,vts_reward_expectancy,2022.2.4,Win32,60.0240096,Chrome,1366,768,,,,,1,1003,,,,,,,,,,,,,,,,,139,B,star,1,0,,,,,,,,,,,,,,,,switch,letter,lettSwt,j,0.5357,noRew,,,,,,3,,,,,,,,high,18,0,18,0,1,,,,,,,,,
296734,2022-09-21_14h45.00.598,vts_reward_expectancy,2022.2.4,Win32,60.0240096,Chrome,1366,768,,,,,1,1004,,,,,,,,,,,,,,,,,125,Y,triangle,1,0,,,,,,,,,,,,,,,,switch,number,numSwt,d,0.4185,noRew,,,,,,3,,,,,,,,high,19,0,19,0,1,,,,,,,,,
296734,2022-09-21_14h45.00.598,vts_reward_expectancy,2022.2.4,Win32,60.0240096,Chrome,1366,768,,,,,0,1004,,,,,,,,,,,,,,,,,167,S,triangle,1,0,,,,,,,,,,,,,,,,repeat,number,numRpt,f,0.6871,noRew,,,,,,3,,,,,,,,high,20,0,20,0,1,,,,,,,,,
296734,2022-09-21_14h45.00.598,vts_reward_expectancy,2022.2.4,Win32,60.0240096,Chrome,1366,768,,,,,1,1005,,,,,,,,,,,,,,,,,160,W,star,1,0,,,,,,,,,,,,,,,,switch,letter,lettSwt,k,1.136,noRew,,,,,,3,,,,,,,,high,21,0,21,0,1,,,,,,,,,
296734,2022-09-21_14h45.00.598,vts_reward_expectancy,2022.2.4,Win32,60.0240096,Chrome,1366,768,,,,,1,1006,,,,,,,,,,,,,,,,,181,H,star,1,0,,,,,,,,,,,,,,,,switch,number,numSwt,f,0.6244,noRew,,,,,,3,,,,,,,,high,22,0,22,0,1,,,,,,,,,
296734,2022-09-21_14h45.00.598,vts_reward_expectancy,2022.2.4,Win32,60.0240096,Chrome,1366,768,,,,,0,1006,,,,,,,,,,,,,,,,,146,D,triangle,1,0,,,,,,,,,,,,,,,,repeat,number,numRpt,d,0.4851,noRew,,,,,,3,,,,,,,,high,23,0,23,0,1,,,,,,,,,
296734,2022-09-21_14h45.00.598,vts_reward_expectancy,2022.2.4,Win32,60.0240096,Chrome,1366,768,,,,,0,1006,,,,,,,,,,,,,,,,,132,S,triangle,1,0,,,,,,,,,,,,,,,,switch,letter,lettSwt,k,0.9721,noRew,,,,,,3,,,,,,,,high,24,0,24,0,1,,,,,,,,,
296734,2022-09-21_14h45.00.598,vts_reward_expectancy,2022.2.4,Win32,60.0240096,Chrome,1366,768,,,,,10,1016,,,,,,,,,,,,,,,,,160,W,star,1,0,,,,,,,,,,,,,,,,repeat,letter,lettRpt,k,0.6518,noRew,,,,,,3,,,,,,,,high,25,0,25,0,1,,,,,,,,,
296734,2022-09-21_14h45.00.598,vts_reward_expectancy,2022.2.4,Win32,60.0240096,Chrome,1366,768,,,,,0,1016,,,,,,,,,,,,,,,,,146,H,star,0,0,,,,,,,,,,,,,,,,repeat,letter,NA,k,0.8032,noRew,,,,,,3,,,,,,,,high,26,0,26,0,1,,,,,,,,,
296734,2022-09-21_14h45.00.598,vts_reward_expectancy,2022.2.4,Win32,60.0240096,Chrome,1366,768,,,,,0,1016,,,,,,,,,,,,,,,,,174,Y,triangle,1,1,,,,,,,,,,,,,,,,switch,number,numSwt,f,0.509,noRew,,,,,,3,,,,,,,,high,27,0,27,0,1,,,,,,,,,
296734,2022-09-21_14h45.00.598,vts_reward_expectancy,2022.2.4,Win32,60.0240096,Chrome,1366,768,,,,,1,1017,,,,,,,,,,,,,,,,,167,F,star,1,0,,,,,,,,,,,,,,,,switch,letter,lettSwt,j,0.4682,noRew,,,,,,3,,,,,,,,high,28,0,28,0,1,,,,,,,,,
296734,2022-09-21_14h45.00.598,vts_reward_expectancy,2022.2.4,Win32,60.0240096,Chrome,1366,768,,,,,0,1017,,,,,,,,,,,,,,,,,125,U,triangle,1,0,,,,,,,,,,,,,,,,switch,number,numSwt,d,0.4844,noRew,,,,,,3,,,,,,,,high,29,0,29,0,1,,,,,,,,,
296734,2022-09-21_14h45.00.598,vts_reward_expectancy,2022.2.4,Win32,60.0240096,Chrome,1366,768,,,,,1,1018,,,,,,,,,,,,,,,,,181,B,star,1,0,,,,,,,,,,,,,,,,switch,letter,lettSwt,j,0.4476,noRew,,,,,,3,,,,,,,,high,30,0,30,0,1,,,,,,,,,
296734,2022-09-21_14h45.00.598,vts_reward_expectancy,2022.2.4,Win32,60.0240096,Chrome,1366,768,,,,,10,1028,,,,,,,,,,,,,,,,,139,D,triangle,1,0,,,,,,,,,,,,,,,,switch,number,numSwt,d,0.4224,noRew,,,,,,3,,,,,,,,high,31,0,31,0,1,,,,,,,,,
296734,2022-09-21_14h45.00.598,vts_reward_expectancy,2022.2.4,Win32,60.0240096,Chrome,1366,768,,,,,1,1029,,,,,,,,,,,,,,,,,160,B,star,1,0,,,,,,,,,,,,,,,,switch,letter,lettSwt,j,0.4848,noRew,,,,,,4,,,,,,space,1.5618,high,0,0,0,0,1,,,,,,,,,
296734,2022-09-21_14h45.00.598,vts_reward_expectancy,2022.2.4,Win32,60.0240096,Chrome,1366,768,,,,,1,1030,,,,,,,,,,,,,,,,,132,W,triangle,1,0,,,,,,,,,,,,,,,,switch,number,numSwt,d,0.3455,noRew,,,,,,4,,,,,,,,high,1,0,1,0,1,,,,,,,,,
296734,2022-09-21_14h45.00.598,vts_reward_expectancy,2022.2.4,Win32,60.0240096,Chrome,1366,768,,,,,10,1040,,,,,,,,,,,,,,,,,181,Y,star,1,0,,,,,,,,,,,,,,,,switch,letter,lettSwt,k,0.5079,noRew,,,,,,4,,,,,,,,high,2,0,2,0,1,,,,,,,,,
296734,2022-09-21_14h45.00.598,vts_reward_expectancy,2022.2.4,Win32,60.0240096,Chrome,1366,768,,,,,10,1050,,,,,,,,,,,,,,,,,167,F,triangle,1,0,,,,,,,,,,,,,,,,repeat,letter,lettRpt,j,0.4608,noRew,,,,,,4,,,,,,,,high,3,0,3,0,1,,,,,,,,,
296734,2022-09-21_14h45.00.598,vts_reward_expectancy,2022.2.4,Win32,60.0240096,Chrome,1366,768,,,,,10,1060,,,,,,,,,,,,,,,,,125,D,triangle,1,0,,,,,,,,,,,,,,,,switch,number,numSwt,d,0.4101,noRew,,,,,,4,,,,,,,,high,4,0,4,0,1,,,,,,,,,
296734,2022-09-21_14h45.00.598,vts_reward_expectancy,2022.2.4,Win32,60.0240096,Chrome,1366,768,,,,,1,1061,,,,,,,,,,,,,,,,,146,H,star,1,0,,,,,,,,,,,,,,,,switch,letter,lettSwt,j,0.5749,noRew,,,,,,4,,,,,,,,high,5,0,5,0,1,,,,,,,,,
296734,2022-09-21_14h45.00.598,vts_reward_expectancy,2022.2.4,Win32,60.0240096,Chrome,1366,768,,,,,10,1071,,,,,,,,,,,,,,,,,139,S,triangle,1,0,,,,,,,,,,,,,,,,switch,number,numSwt,d,0.3948,noRew,,,,,,4,,,,,,,,high,6,0,6,0,1,,,,,,,,,
296734,2022-09-21_14h45.00.598,vts_reward_expectancy,2022.2.4,Win32,60.0240096,Chrome,1366,768,,,,,0,1071,,,,,,,,,,,,,,,,,174,U,star,0,0,,,,,,,,,,,,,,,,switch,letter,NA,j,0.3761,noRew,,,,,,4,,,,,,,,high,7,0,7,0,1,,,,,,,,,
296734,2022-09-21_14h45.00.598,vts_reward_expectancy,2022.2.4,Win32,60.0240096,Chrome,1366,768,,,,,0,1071,,,,,,,,,,,,,,,,,160,B,triangle,1,1,,,,,,,,,,,,,,,,switch,number,numSwt,f,0.6277,noRew,,,,,,4,,,,,,,,high,8,0,8,0,1,,,,,,,,,
296734,2022-09-21_14h45.00.598,vts_reward_expectancy,2022.2.4,Win32,60.0240096,Chrome,1366,768,,,,,1,1072,,,,,,,,,,,,,,,,,132,W,star,1,0,,,,,,,,,,,,,,,,switch,letter,lettSwt,k,0.5032,noRew,,,,,,4,,,,,,,,high,9,0,9,0,1,,,,,,,,,
296734,2022-09-21_14h45.00.598,vts_reward_expectancy,2022.2.4,Win32,60.0240096,Chrome,1366,768,,,,,1,1073,,,,,,,,,,,,,,,,,181,Y,star,1,0,,,,,,,,,,,,,,,,repeat,letter,lettRpt,k,0.5846,noRew,,,,,,4,,,,,,,,high,10,0,10,0,1,,,,,,,,,
296734,2022-09-21_14h45.00.598,vts_reward_expectancy,2022.2.4,Win32,60.0240096,Chrome,1366,768,,,,,10,1083,,,,,,,,,,,,,,,,,167,F,triangle,1,0,,,,,,,,,,,,,,,,switch,number,numSwt,f,0.3364,noRew,,,,,,4,,,,,,,,high,11,0,11,0,1,,,,,,,,,
296734,2022-09-21_14h45.00.598,vts_reward_expectancy,2022.2.4,Win32,60.0240096,Chrome,1366,768,,,,,10,1093,,,,,,,,,,,,,,,,,125,D,triangle,1,0,,,,,,,,,,,,,,,,repeat,number,numRpt,d,0.4517,noRew,,,,,,4,,,,,,,,high,12,0,12,0,1,,,,,,,,,
296734,2022-09-21_14h45.00.598,vts_reward_expectancy,2022.2.4,Win32,60.0240096,Chrome,1366,768,,,,,0,1093,,,,,,,,,,,,,,,,,146,H,star,0,0,,,,,,,,,,,,,,,,switch,letter,NA,k,0.5017,noRew,,,,,,4,,,,,,,,high,13,0,13,0,1,,,,,,,,,
296734,2022-09-21_14h45.00.598,vts_reward_expectancy,2022.2.4,Win32,60.0240096,Chrome,1366,768,,,,,1,1094,,,,,,,,,,,,,,,,,139,S,star,1,1,,,,,,,,,,,,,,,,repeat,letter,lettRpt,k,0.5906,noRew,,,,,,4,,,,,,,,high,14,0,14,0,1,,,,,,,,,
296734,2022-09-21_14h45.00.598,vts_reward_expectancy,2022.2.4,Win32,60.0240096,Chrome,1366,768,,,,,10,1104,,,,,,,,,,,,,,,,,174,U,triangle,1,0,,,,,,,,,,,,,,,,switch,number,numSwt,f,0.3592,noRew,,,,,,4,,,,,,,,high,15,0,15,0,1,,,,,,,,,
296734,2022-09-21_14h45.00.598,vts_reward_expectancy,2022.2.4,Win32,60.0240096,Chrome,1366,768,,,,,10,1114,,,,,,,,,,,,,,,,,174,Y,triangle,1,0,,,,,,,,,,,,,,,,repeat,number,numRpt,f,0.4659,noRew,,,,,,4,,,,,,,,high,16,0,16,0,1,,,,,,,,,
296734,2022-09-21_14h45.00.598,vts_reward_expectancy,2022.2.4,Win32,60.0240096,Chrome,1366,768,,,,,0,1114,,,,,,,,,,,,,,,,,125,U,star,0,0,,,,,,,,,,,,,,,,switch,letter,NA,j,0.4616,noRew,,,,,,4,,,,,,,,high,17,0,17,0,1,,,,,,,,,
296734,2022-09-21_14h45.00.598,vts_reward_expectancy,2022.2.4,Win32,60.0240096,Chrome,1366,768,,,,,0,1114,,,,,,,,,,,,,,,,,167,D,star,0,1,,,,,,,,,,,,,,,,repeat,letter,NA,k,0.4656,noRew,,,,,,4,,,,,,,,high,18,0,18,0,1,,,,,,,,,
296734,2022-09-21_14h45.00.598,vts_reward_expectancy,2022.2.4,Win32,60.0240096,Chrome,1366,768,,,,,0,1114,,,,,,,,,,,,,,,,,160,S,triangle,1,1,,,,,,,,,,,,,,,,switch,number,numSwt,f,0.5684,noRew,,,,,,4,,,,,,,,high,19,0,19,0,1,,,,,,,,,
296734,2022-09-21_14h45.00.598,vts_reward_expectancy,2022.2.4,Win32,60.0240096,Chrome,1366,768,,,,,10,1124,,,,,,,,,,,,,,,,,181,B,triangle,1,0,,,,,,,,,,,,,,,,repeat,number,numRpt,f,0.4556,noRew,,,,,,4,,,,,,,,high,20,0,20,0,1,,,,,,,,,
296734,2022-09-21_14h45.00.598,vts_reward_expectancy,2022.2.4,Win32,60.0240096,Chrome,1366,768,,,,,1,1125,,,,,,,,,,,,,,,,,132,W,star,1,0,,,,,,,,,,,,,,,,repeat,number,numRpt,d,0.4328,noRew,,,,,,4,,,,,,,,high,21,0,21,0,1,,,,,,,,,
296734,2022-09-21_14h45.00.598,vts_reward_expectancy,2022.2.4,Win32,60.0240096,Chrome,1366,768,,,,,1,1126,,,,,,,,,,,,,,,,,139,H,star,1,0,,,,,,,,,,,,,,,,repeat,number,numRpt,d,0.7069,noRew,,,,,,4,,,,,,,,high,22,0,22,0,1,,,,,,,,,
296734,2022-09-21_14h45.00.598,vts_reward_expectancy,2022.2.4,Win32,60.0240096,Chrome,1366,768,,,,,0,1126,,,,,,,,,,,,,,,,,146,F,triangle,0,0,,,,,,,,,,,,,,,,repeat,number,NA,f,0.4129,noRew,,,,,,4,,,,,,,,high,23,0,23,0,1,,,,,,,,,
296734,2022-09-21_14h45.00.598,vts_reward_expectancy,2022.2.4,Win32,60.0240096,Chrome,1366,768,,,,,1,1127,,,,,,,,,,,,,,,,,132,Y,star,1,1,,,,,,,,,,,,,,,,switch,letter,lettSwt,k,0.5011,noRew,,,,,,4,,,,,,,,high,24,0,24,0,1,,,,,,,,,
296734,2022-09-21_14h45.00.598,vts_reward_expectancy,2022.2.4,Win32,60.0240096,Chrome,1366,768,,,,,10,1137,,,,,,,,,,,,,,,,,139,H,triangle,1,0,,,,,,,,,,,,,,,,switch,number,numSwt,d,0.429,noRew,,,,,,4,,,,,,,,high,25,0,25,0,1,,,,,,,,,
296734,2022-09-21_14h45.00.598,vts_reward_expectancy,2022.2.4,Win32,60.0240096,Chrome,1366,768,,,,,1,1138,,,,,,,,,,,,,,,,,146,F,star,1,0,,,,,,,,,,,,,,,,switch,letter,lettSwt,j,0.5682,noRew,,,,,,4,,,,,,,,high,26,0,26,0,1,,,,,,,,,
296734,2022-09-21_14h45.00.598,vts_reward_expectancy,2022.2.4,Win32,60.0240096,Chrome,1366,768,,,,,0,1138,,,,,,,,,,,,,,,,,181,S,triangle,0,0,,,,,,,,,,,,,,,,switch,number,NA,d,0.4008,noRew,,,,,,4,,,,,,,,high,27,0,27,0,1,,,,,,,,,
296734,2022-09-21_14h45.00.598,vts_reward_expectancy,2022.2.4,Win32,60.0240096,Chrome,1366,768,,,,,1,1139,,,,,,,,,,,,,,,,,160,B,star,1,1,,,,,,,,,,,,,,,,switch,letter,lettSwt,j,0.4576,noRew,,,,,,4,,,,,,,,high,28,0,28,0,1,,,,,,,,,
296734,2022-09-21_14h45.00.598,vts_reward_expectancy,2022.2.4,Win32,60.0240096,Chrome,1366,768,,,,,0,1139,,,,,,,,,,,,,,,,,174,D,triangle,1,0,,,,,,,,,,,,,,,,switch,number,numSwt,f,0.599,noRew,,,,,,4,,,,,,,,high,29,0,29,0,1,,,,,,,,,
296734,2022-09-21_14h45.00.598,vts_reward_expectancy,2022.2.4,Win32,60.0240096,Chrome,1366,768,,,,,0,1139,,,,,,,,,,,,,,,,,125,W,triangle,1,0,,,,,,,,,,,,,,,,repeat,number,numRpt,d,0.4963,noRew,,,,,,4,,,,,,,,high,30,0,30,0,1,,,,,,,,,
296734,2022-09-21_14h45.00.598,vts_reward_expectancy,2022.2.4,Win32,60.0240096,Chrome,1366,768,,,,,1,1140,,,,,,,,,,,,,,,,,167,U,star,1,0,,,,,,,,,,,,,,,,switch,letter,lettSwt,k,0.5376,noRew,,,,,,4,,,,,,,,high,31,0,31,0,1,,,,,,,,,
296734,2022-09-21_14h45.00.598,vts_reward_expectancy,2022.2.4,Win32,60.0240096,Chrome,1366,768,,,,,1,1141,,,,,,,,,,,,,,,,,139,B,hexagon,1,0,,,,,,,,,,,,,,,,switch,number,numSwt,d,0.5699,noRew,,,,,,5,,,,,,space,0.8482,low,0,0,0,0,1,,,,,,,,,
296734,2022-09-21_14h45.00.598,vts_reward_expectancy,2022.2.4,Win32,60.0240096,Chrome,1366,768,,,,,0,1141,,,,,,,,,,,,,,,,,125,W,circle,1,0,,,,,,,,,,,,,,,,repeat,number,numRpt,d,0.7517,noRew,,,,,,5,,,,,,,,low,1,0,1,0,1,,,,,,,,,
296734,2022-09-21_14h45.00.598,vts_reward_expectancy,2022.2.4,Win32,60.0240096,Chrome,1366,768,,,,,1,1142,,,,,,,,,,,,,,,,,174,S,hexagon,1,0,,,,,,,,,,,,,,,,switch,letter,lettSwt,k,0.9,noRew,,,,,,5,,,,,,,,low,2,0,2,0,1,,,,,,,,,
296734,2022-09-21_14h45.00.598,vts_reward_expectancy,2022.2.4,Win32,60.0240096,Chrome,1366,768,,,,,0,1142,,,,,,,,,,,,,,,,,132,H,circle,1,0,,,,,,,,,,,,,,,,switch,number,numSwt,d,0.3954,noRew,,,,,,5,,,,,,,,low,3,0,3,0,1,,,,,,,,,
296734,2022-09-21_14h45.00.598,vts_reward_expectancy,2022.2.4,Win32,60.0240096,Chrome,1366,768,,,,,1,1143,,,,,,,,,,,,,,,,,181,U,hexagon,1,0,,,,,,,,,,,,,,,,switch,letter,lettSwt,k,0.4451,noRew,,,,,,5,,,,,,,,low,4,0,4,0,1,,,,,,,,,
296734,2022-09-21_14h45.00.598,vts_reward_expectancy,2022.2.4,Win32,60.0240096,Chrome,1366,768,,,,,0,1143,,,,,,,,,,,,,,,,,160,F,circle,1,0,,,,,,,,,,,,,,,,switch,number,numSwt,f,0.4186,noRew,,,,,,5,,,,,,,,low,5,0,5,0,1,,,,,,,,,
296734,2022-09-21_14h45.00.598,vts_reward_expectancy,2022.2.4,Win32,60.0240096,Chrome,1366,768,,,,,1,1144,,,,,,,,,,,,,,,,,167,D,hexagon,1,0,,,,,,,,,,,,,,,,repeat,number,numRpt,f,0.572,noRew,,,,,,5,,,,,,,,low,6,0,6,0,1,,,,,,,,,
296734,2022-09-21_14h45.00.598,vts_reward_expectancy,2022.2.4,Win32,60.0240096,Chrome,1366,768,,,,,0,1144,,,,,,,,,,,,,,,,,146,Y,circle,0,0,,,,,,,,,,,,,,,,repeat,number,NA,f,0.4352,noRew,,,,,,5,,,,,,,,low,7,0,7,0,1,,,,,,,,,
296734,2022-09-21_14h45.00.598,vts_reward_expectancy,2022.2.4,Win32,60.0240096,Chrome,1366,768,,,,,0,1144,,,,,,,,,,,,,,,,,139,B,circle,1,1,,,,,,,,,,,,,,,,repeat,number,numRpt,d,0.5029,noRew,,,,,,5,,,,,,,,low,8,0,8,0,1,,,,,,,,,
296734,2022-09-21_14h45.00.598,vts_reward_expectancy,2022.2.4,Win32,60.0240096,Chrome,1366,768,,,,,10,1154,,,,,,,,,,,,,,,,,125,W,hexagon,1,0,,,,,,,,,,,,,,,,switch,letter,lettSwt,k,0.518,noRew,,,,,,5,,,,,,,,low,9,0,9,0,1,,,,,,,,,
296734,2022-09-21_14h45.00.598,vts_reward_expectancy,2022.2.4,Win32,60.0240096,Chrome,1366,768,,,,,0,1154,,,,,,,,,,,,,,,,,174,S,circle,1,0,,,,,,,,,,,,,,,,switch,number,numSwt,f,0.5182,noRew,,,,,,5,,,,,,,,low,10,0,10,0,1,,,,,,,,,
296734,2022-09-21_14h45.00.598,vts_reward_expectancy,2022.2.4,Win32,60.0240096,Chrome,1366,768,,,,,0,1154,,,,,,,,,,,,,,,,,132,H,hexagon,0,0,,,,,,,,,,,,,,,,switch,letter,NA,k,0.9347,noRew,,,,,,5,,,,,,,,low,11,0,11,0,1,,,,,,,,,
296734,2022-09-21_14h45.00.598,vts_reward_expectancy,2022.2.4,Win32,60.0240096,Chrome,1366,768,,,,,0,1154,,,,,,,,,,,,,,,,,181,U,circle,1,1,,,,,,,,,,,,,,,,switch,number,numSwt,f,0.4286,noRew,,,,,,5,,,,,,,,low,12,0,12,0,1,,,,,,,,,
296734,2022-09-21_14h45.00.598,vts_reward_expectancy,2022.2.4,Win32,60.0240096,Chrome,1366,768,,,,,1,1155,,,,,,,,,,,,,,,,,160,F,hexagon,1,0,,,,,,,,,,,,,,,,switch,letter,lettSwt,j,0.5627,noRew,,,,,,5,,,,,,,,low,13,0,13,0,1,,,,,,,,,
296734,2022-09-21_14h45.00.598,vts_reward_expectancy,2022.2.4,Win32,60.0240096,Chrome,1366,768,,,,,0,1155,,,,,,,,,,,,,,,,,167,D,circle,1,0,,,,,,,,,,,,,,,,switch,number,numSwt,f,0.4757,noRew,,,,,,5,,,,,,,,low,14,0,14,0,1,,,,,,,,,
296734,2022-09-21_14h45.00.598,vts_reward_expectancy,2022.2.4,Win32,60.0240096,Chrome,1366,768,,,,,10,1165,,,,,,,,,,,,,,,,,146,Y,hexagon,1,0,,,,,,,,,,,,,,,,switch,letter,lettSwt,k,0.6274,noRew,,,,,,5,,,,,,,,low,15,0,15,0,1,,,,,,,,,
296734,2022-09-21_14h45.00.598,vts_reward_expectancy,2022.2.4,Win32,60.0240096,Chrome,1366,768,,,,,0,1165,,,,,,,,,,,,,,,,,132,B,circle,1,0,,,,,,,,,,,,,,,,switch,number,numSwt,d,0.5515,noRew,,,,,,5,,,,,,,,low,16,0,16,0,1,,,,,,,,,
296734,2022-09-21_14h45.00.598,vts_reward_expectancy,2022.2.4,Win32,60.0240096,Chrome,1366,768,,,,,1,1166,,,,,,,,,,,,,,,,,174,D,hexagon,1,0,,,,,,,,,,,,,,,,repeat,number,numRpt,f,0.8867,noRew,,,,,,5,,,,,,,,low,17,0,17,0,1,,,,,,,,,
296734,2022-09-21_14h45.00.598,vts_reward_expectancy,2022.2.4,Win32,60.0240096,Chrome,1366,768,,,,,1,1167,,,,,,,,,,,,,,,,,160,Y,circle,1,0,,,,,,,,,,,,,,,,repeat,number,numRpt,f,0.402,noRew,,,,,,5,,,,,,,,low,18,0,18,0,1,,,,,,,,,
296734,2022-09-21_14h45.00.598,vts_reward_expectancy,2022.2.4,Win32,60.0240096,Chrome,1366,768,,,,,10,1177,,,,,,,,,,,,,,,,,139,W,hexagon,1,0,,,,,,,,,,,,,,,,switch,letter,lettSwt,k,0.5666,noRew,,,,,,5,,,,,,,,low,19,0,19,0,1,,,,,,,,,
296734,2022-09-21_14h45.00.598,vts_reward_expectancy,2022.2.4,Win32,60.0240096,Chrome,1366,768,,,,,0,1177,,,,,,,,,,,,,,,,,167,H,hexagon,0,0,,,,,,,,,,,,,,,,repeat,letter,NA,k,1.4536,noRew,,,,,,5,,,,,,,,low,20,0,20,0,1,,,,,,,,,
296734,2022-09-21_14h45.00.598,vts_reward_expectancy,2022.2.4,Win32,60.0240096,Chrome,1366,768,,,,,0,1177,,,,,,,,,,,,,,,,,181,S,circle,1,1,,,,,,,,,,,,,,,,switch,number,numSwt,f,0.4592,noRew,,,,,,5,,,,,,,,low,21,0,21,0,1,,,,,,,,,
296734,2022-09-21_14h45.00.598,vts_reward_expectancy,2022.2.4,Win32,60.0240096,Chrome,1366,768,,,,,1,1178,,,,,,,,,,,,,,,,,125,F,circle,1,0,,,,,,,,,,,,,,,,switch,letter,lettSwt,j,0.3697,noRew,,,,,,5,,,,,,,,low,22,0,22,0,1,,,,,,,,,
296734,2022-09-21_14h45.00.598,vts_reward_expectancy,2022.2.4,Win32,60.0240096,Chrome,1366,768,,,,,1,1179,,,,,,,,,,,,,,,,,146,U,hexagon,1,0,,,,,,,,,,,,,,,,repeat,letter,lettRpt,k,0.4669,noRew,,,,,,5,,,,,,,,low,23,0,23,0,1,,,,,,,,,
296734,2022-09-21_14h45.00.598,vts_reward_expectancy,2022.2.4,Win32,60.0240096,Chrome,1366,768,,,,,0,1179,,,,,,,,,,,,,,,,,139,S,circle,1,0,,,,,,,,,,,,,,,,switch,number,numSwt,d,1.1181,noRew,,,,,,5,,,,,,,,low,24,0,24,0,1,,,,,,,,,
296734,2022-09-21_14h45.00.598,vts_reward_expectancy,2022.2.4,Win32,60.0240096,Chrome,1366,768,,,,,1,1180,,,,,,,,,,,,,,,,,132,F,hexagon,1,0,,,,,,,,,,,,,,,,switch,letter,lettSwt,j,0.5245,noRew,,,,,,5,,,,,,,,low,25,0,25,0,1,,,,,,,,,
296734,2022-09-21_14h45.00.598,vts_reward_expectancy,2022.2.4,Win32,60.0240096,Chrome,1366,768,,,,,0,1180,,,,,,,,,,,,,,,,,146,Y,circle,0,0,,,,,,,,,,,,,,,,switch,number,NA,f,0.3771,noRew,,,,,,5,,,,,,,,low,26,0,26,0,1,,,,,,,,,
296734,2022-09-21_14h45.00.598,vts_reward_expectancy,2022.2.4,Win32,60.0240096,Chrome,1366,768,,,,,10,1190,,,,,,,,,,,,,,,,,167,D,hexagon,1,1,,,,,,,,,,,,,,,,switch,letter,lettSwt,j,0.5978,noRew,,,,,,5,,,,,,,,low,27,0,27,0,1,,,,,,,,,
296734,2022-09-21_14h45.00.598,vts_reward_expectancy,2022.2.4,Win32,60.0240096,Chrome,1366,768,,,,,0,1190,,,,,,,,,,,,,,,,,181,B,circle,0,0,,,,,,,,,,,,,,,,switch,number,NA,d,0.4047,noRew,,,,,,5,,,,,,,,low,28,0,28,0,1,,,,,,,,,
296734,2022-09-21_14h45.00.598,vts_reward_expectancy,2022.2.4,Win32,60.0240096,Chrome,1366,768,,,,,1,1191,,,,,,,,,,,,,,,,,174,W,hexagon,1,1,,,,,,,,,,,,,,,,switch,letter,lettSwt,k,0.4741,noRew,,,,,,5,,,,,,,,low,29,0,29,0,1,,,,,,,,,
296734,2022-09-21_14h45.00.598,vts_reward_expectancy,2022.2.4,Win32,60.0240096,Chrome,1366,768,,,,,0,1191,,,,,,,,,,,,,,,,,125,H,hexagon,0,0,,,,,,,,,,,,,,,,repeat,letter,NA,k,0.6848,noRew,,,,,,5,,,,,,,,low,30,0,30,0,1,,,,,,,,,
296734,2022-09-21_14h45.00.598,vts_reward_expectancy,2022.2.4,Win32,60.0240096,Chrome,1366,768,,,,,0,1191,,,,,,,,,,,,,,,,,160,U,circle,1,1,,,,,,,,,,,,,,,,switch,number,numSwt,f,0.549,noRew,,,,,,5,,,,,,,,low,31,0,31,0,1,,,,,,,,,
296734,2022-09-21_14h45.00.598,vts_reward_expectancy,2022.2.4,Win32,60.0240096,Chrome,1366,768,,,,,,,,,,,,,,,,,,,,,,,,,,,,,,,,,,,,,,,,,,,,,,,,,,,,,,6,,,,,,,,,,,,,,Press d for values under 153 and press f for those above. Press j for letters closer to a and press k for letters closer to z. ,2, I didn't understand the point distribution.,5,4,,2,1366,768
