participant,date,expName,psychopyVersion,OS,frameRate,browser,xResolution,yResolution,key_resp.keys,key_resp.rt,training_resp.keys,training_resp.rt,points_trial,points_cumul,trainBlock,training.thisRepN,training.thisTrialN,training.thisN,training.thisIndex,training.ran,LTriangleOpac,LCircleOpac,LHexagonOpac,LStarOpac,RTriangleOpac,RCircleOpac,RHexagonOpac,RStarOpac,LShape_ID,RShape_ID,curr_topStim,curr_bottStim,curr_shape,acc,E1,target_resp_prac1.keys,target_resp_prac1.rt,pracBlock,task1_prac_trials.thisRepN,task1_prac_trials.thisTrialN,task1_prac_trials.thisN,task1_prac_trials.thisIndex,task1_prac_trials.ran,target_resp_prac2.keys,target_resp_prac2.rt,task2_praac_trials.thisRepN,task2_praac_trials.thisTrialN,task2_praac_trials.thisN,task2_praac_trials.thisIndex,task2_praac_trials.ran,alt,task,condition,target_resp.keys,target_resp.rt,rewCond,vts_practice_trials.thisRepN,vts_practice_trials.thisTrialN,vts_practice_trials.thisN,vts_practice_trials.thisIndex,vts_practice_trials.ran,blockNum,trials_norew.thisRepN,trials_norew.thisTrialN,trials_norew.thisN,trials_norew.thisIndex,trials_norew.ran,key_resp_2.keys,key_resp_2.rt,rewExpect,trials_rew.thisRepN,trials_rew.thisTrialN,trials_rew.thisN,trials_rew.thisIndex,trials_rew.ran,Q1,Q2,Q2_text,Q3,Q4,Q5_text,Q5,xRes,yRes
293143,2022-09-23_09h23.14.917,vts_reward_expectancy,2022.2.4,Win32,180.3101334,Chrome,1920,1080,,,,,,,,,,,,,,,,,,,,,,,,,,,,,,,,,,,,,,,,,,,,,,,,,,,,,,,,,,,,,,,,,,,,,,,,,,,,
293143,2022-09-23_09h23.14.917,vts_reward_expectancy,2022.2.4,Win32,180.3101334,Chrome,1920,1080,space,2.3538,,,,,,,,,,,,,,,,,,,,,,,,,,,,,,,,,,,,,,,,,,,,,,,,,,,,,,,,,,,,,,,,,,,,,,,,,,
293143,2022-09-23_09h23.14.917,vts_reward_expectancy,2022.2.4,Win32,180.3101334,Chrome,1920,1080,,,,,,,,,,,,,,,,,,,,,,,,,,,,,,,,,,,,,,,,,,,,,,,,,,,,,,,,,,,,,,,,,,,,,,,,,,,,
293143,2022-09-23_09h23.14.917,vts_reward_expectancy,2022.2.4,Win32,180.3101334,Chrome,1920,1080,,,l,0.9888,1,1,0,0,0,0,6,1,0,0,1,0,1,0,0,0,hexagon,triangle,,,,,,,,,,,,,,,,,,,,,,,,,,,,,,,,,,,,,,,,,,,,,,,,,,,,,,
293143,2022-09-23_09h23.14.917,vts_reward_expectancy,2022.2.4,Win32,180.3101334,Chrome,1920,1080,,,l,0.5557,1,2,0,0,1,1,10,1,0,0,0,1,0,1,0,0,star ,circle,,,,,,,,,,,,,,,,,,,,,,,,,,,,,,,,,,,,,,,,,,,,,,,,,,,,,,
293143,2022-09-23_09h23.14.917,vts_reward_expectancy,2022.2.4,Win32,180.3101334,Chrome,1920,1080,,,a,0.5835,10,12,0,0,2,2,9,1,0,0,0,1,1,0,0,0,star,triangle,,,,,,,,,,,,,,,,,,,,,,,,,,,,,,,,,,,,,,,,,,,,,,,,,,,,,,
293143,2022-09-23_09h23.14.917,vts_reward_expectancy,2022.2.4,Win32,180.3101334,Chrome,1920,1080,,,a,0.6114,1,13,0,0,3,3,7,1,0,0,1,0,0,1,0,0,hexagon,circle,,,,,,,,,,,,,,,,,,,,,,,,,,,,,,,,,,,,,,,,,,,,,,,,,,,,,,
293143,2022-09-23_09h23.14.917,vts_reward_expectancy,2022.2.4,Win32,180.3101334,Chrome,1920,1080,,,l,0.6385,10,23,0,0,4,4,5,1,0,1,0,0,0,0,0,1,circle,star,,,,,,,,,,,,,,,,,,,,,,,,,,,,,,,,,,,,,,,,,,,,,,,,,,,,,,
293143,2022-09-23_09h23.14.917,vts_reward_expectancy,2022.2.4,Win32,180.3101334,Chrome,1920,1080,,,l,0.7167,10,33,0,0,5,5,8,1,0,0,1,0,0,0,0,1,hexagon,star,,,,,,,,,,,,,,,,,,,,,,,,,,,,,,,,,,,,,,,,,,,,,,,,,,,,,,
293143,2022-09-23_09h23.14.917,vts_reward_expectancy,2022.2.4,Win32,180.3101334,Chrome,1920,1080,,,l,0.4946,10,43,0,0,6,6,2,1,1,0,0,0,0,0,0,1,triangle,star,,,,,,,,,,,,,,,,,,,,,,,,,,,,,,,,,,,,,,,,,,,,,,,,,,,,,,
293143,2022-09-23_09h23.14.917,vts_reward_expectancy,2022.2.4,Win32,180.3101334,Chrome,1920,1080,,,l,2.1948,1,44,0,0,7,7,0,1,1,0,0,0,0,1,0,0,triangle,circle,,,,,,,,,,,,,,,,,,,,,,,,,,,,,,,,,,,,,,,,,,,,,,,,,,,,,,
293143,2022-09-23_09h23.14.917,vts_reward_expectancy,2022.2.4,Win32,180.3101334,Chrome,1920,1080,,,a,0.5459,10,54,0,0,8,8,11,1,0,0,0,1,0,0,1,0,star,hexagon,,,,,,,,,,,,,,,,,,,,,,,,,,,,,,,,,,,,,,,,,,,,,,,,,,,,,,
293143,2022-09-23_09h23.14.917,vts_reward_expectancy,2022.2.4,Win32,180.3101334,Chrome,1920,1080,,,a,0.7995,10,64,0,0,9,9,1,1,1,0,0,0,0,0,1,0,triangle,hexagon,,,,,,,,,,,,,,,,,,,,,,,,,,,,,,,,,,,,,,,,,,,,,,,,,,,,,,
293143,2022-09-23_09h23.14.917,vts_reward_expectancy,2022.2.4,Win32,180.3101334,Chrome,1920,1080,,,l,0.5613,1,65,0,0,10,10,3,1,0,1,0,0,1,0,0,0,circle,triangle,,,,,,,,,,,,,,,,,,,,,,,,,,,,,,,,,,,,,,,,,,,,,,,,,,,,,,
293143,2022-09-23_09h23.14.917,vts_reward_expectancy,2022.2.4,Win32,180.3101334,Chrome,1920,1080,,,l,1.0065,1,66,0,0,11,11,4,1,0,1,0,0,0,0,1,0,circle,hexagon,,,,,,,,,,,,,,,,,,,,,,,,,,,,,,,,,,,,,,,,,,,,,,,,,,,,,,
293143,2022-09-23_09h23.14.917,vts_reward_expectancy,2022.2.4,Win32,180.3101334,Chrome,1920,1080,,,l,0.7168,10,76,0,1,0,12,2,1,1,0,0,0,0,0,0,1,triangle,star,,,,,,,,,,,,,,,,,,,,,,,,,,,,,,,,,,,,,,,,,,,,,,,,,,,,,,
293143,2022-09-23_09h23.14.917,vts_reward_expectancy,2022.2.4,Win32,180.3101334,Chrome,1920,1080,,,l,0.6497,10,86,0,1,1,13,6,1,0,0,1,0,1,0,0,0,hexagon,triangle,,,,,,,,,,,,,,,,,,,,,,,,,,,,,,,,,,,,,,,,,,,,,,,,,,,,,,
293143,2022-09-23_09h23.14.917,vts_reward_expectancy,2022.2.4,Win32,180.3101334,Chrome,1920,1080,,,a,0.7999,10,96,0,1,2,14,9,1,0,0,0,1,1,0,0,0,star,triangle,,,,,,,,,,,,,,,,,,,,,,,,,,,,,,,,,,,,,,,,,,,,,,,,,,,,,,
293143,2022-09-23_09h23.14.917,vts_reward_expectancy,2022.2.4,Win32,180.3101334,Chrome,1920,1080,,,l,0.4965,10,106,0,1,3,15,3,1,0,1,0,0,1,0,0,0,circle,triangle,,,,,,,,,,,,,,,,,,,,,,,,,,,,,,,,,,,,,,,,,,,,,,,,,,,,,,
293143,2022-09-23_09h23.14.917,vts_reward_expectancy,2022.2.4,Win32,180.3101334,Chrome,1920,1080,,,a,0.6909,10,116,0,1,4,16,11,1,0,0,0,1,0,0,1,0,star,hexagon,,,,,,,,,,,,,,,,,,,,,,,,,,,,,,,,,,,,,,,,,,,,,,,,,,,,,,
293143,2022-09-23_09h23.14.917,vts_reward_expectancy,2022.2.4,Win32,180.3101334,Chrome,1920,1080,,,a,0.9667,10,126,0,1,5,17,4,1,0,1,0,0,0,0,1,0,circle,hexagon,,,,,,,,,,,,,,,,,,,,,,,,,,,,,,,,,,,,,,,,,,,,,,,,,,,,,,
293143,2022-09-23_09h23.14.917,vts_reward_expectancy,2022.2.4,Win32,180.3101334,Chrome,1920,1080,,,l,1.1832,1,127,0,1,6,18,0,1,1,0,0,0,0,1,0,0,triangle,circle,,,,,,,,,,,,,,,,,,,,,,,,,,,,,,,,,,,,,,,,,,,,,,,,,,,,,,
293143,2022-09-23_09h23.14.917,vts_reward_expectancy,2022.2.4,Win32,180.3101334,Chrome,1920,1080,,,l,1.0823,10,137,0,1,7,19,7,1,0,0,1,0,0,1,0,0,hexagon,circle,,,,,,,,,,,,,,,,,,,,,,,,,,,,,,,,,,,,,,,,,,,,,,,,,,,,,,
293143,2022-09-23_09h23.14.917,vts_reward_expectancy,2022.2.4,Win32,180.3101334,Chrome,1920,1080,,,l,0.8343,1,138,0,1,8,20,8,1,0,0,1,0,0,0,0,1,hexagon,star,,,,,,,,,,,,,,,,,,,,,,,,,,,,,,,,,,,,,,,,,,,,,,,,,,,,,,
293143,2022-09-23_09h23.14.917,vts_reward_expectancy,2022.2.4,Win32,180.3101334,Chrome,1920,1080,,,l,1.0149,10,148,0,1,9,21,10,1,0,0,0,1,0,1,0,0,star ,circle,,,,,,,,,,,,,,,,,,,,,,,,,,,,,,,,,,,,,,,,,,,,,,,,,,,,,,
293143,2022-09-23_09h23.14.917,vts_reward_expectancy,2022.2.4,Win32,180.3101334,Chrome,1920,1080,,,a,0.9541,1,149,0,1,10,22,5,1,0,1,0,0,0,0,0,1,circle,star,,,,,,,,,,,,,,,,,,,,,,,,,,,,,,,,,,,,,,,,,,,,,,,,,,,,,,
293143,2022-09-23_09h23.14.917,vts_reward_expectancy,2022.2.4,Win32,180.3101334,Chrome,1920,1080,,,a,0.8301,10,159,0,1,11,23,1,1,1,0,0,0,0,0,1,0,triangle,hexagon,,,,,,,,,,,,,,,,,,,,,,,,,,,,,,,,,,,,,,,,,,,,,,,,,,,,,,
293143,2022-09-23_09h23.14.917,vts_reward_expectancy,2022.2.4,Win32,180.3101334,Chrome,1920,1080,,,a,0.9188,1,160,0,2,0,24,0,1,1,0,0,0,0,1,0,0,triangle,circle,,,,,,,,,,,,,,,,,,,,,,,,,,,,,,,,,,,,,,,,,,,,,,,,,,,,,,
293143,2022-09-23_09h23.14.917,vts_reward_expectancy,2022.2.4,Win32,180.3101334,Chrome,1920,1080,,,a,1.6895,1,161,0,2,1,25,6,1,0,0,1,0,1,0,0,0,hexagon,triangle,,,,,,,,,,,,,,,,,,,,,,,,,,,,,,,,,,,,,,,,,,,,,,,,,,,,,,
293143,2022-09-23_09h23.14.917,vts_reward_expectancy,2022.2.4,Win32,180.3101334,Chrome,1920,1080,,,a,0.7084,10,171,0,2,2,26,9,1,0,0,0,1,1,0,0,0,star,triangle,,,,,,,,,,,,,,,,,,,,,,,,,,,,,,,,,,,,,,,,,,,,,,,,,,,,,,
293143,2022-09-23_09h23.14.917,vts_reward_expectancy,2022.2.4,Win32,180.3101334,Chrome,1920,1080,,,l,0.4169,10,181,0,2,3,27,2,1,1,0,0,0,0,0,0,1,triangle,star,,,,,,,,,,,,,,,,,,,,,,,,,,,,,,,,,,,,,,,,,,,,,,,,,,,,,,
293143,2022-09-23_09h23.14.917,vts_reward_expectancy,2022.2.4,Win32,180.3101334,Chrome,1920,1080,,,l,0.7059,10,191,0,2,4,28,8,1,0,0,1,0,0,0,0,1,hexagon,star,,,,,,,,,,,,,,,,,,,,,,,,,,,,,,,,,,,,,,,,,,,,,,,,,,,,,,
293143,2022-09-23_09h23.14.917,vts_reward_expectancy,2022.2.4,Win32,180.3101334,Chrome,1920,1080,,,l,0.804,10,201,0,2,5,29,5,1,0,1,0,0,0,0,0,1,circle,star,,,,,,,,,,,,,,,,,,,,,,,,,,,,,,,,,,,,,,,,,,,,,,,,,,,,,,
293143,2022-09-23_09h23.14.917,vts_reward_expectancy,2022.2.4,Win32,180.3101334,Chrome,1920,1080,,,l,0.723,10,211,0,2,6,30,4,1,0,1,0,0,0,0,1,0,circle,hexagon,,,,,,,,,,,,,,,,,,,,,,,,,,,,,,,,,,,,,,,,,,,,,,,,,,,,,,
293143,2022-09-23_09h23.14.917,vts_reward_expectancy,2022.2.4,Win32,180.3101334,Chrome,1920,1080,,,l,0.4968,10,221,0,2,7,31,1,1,1,0,0,0,0,0,1,0,triangle,hexagon,,,,,,,,,,,,,,,,,,,,,,,,,,,,,,,,,,,,,,,,,,,,,,,,,,,,,,
293143,2022-09-23_09h23.14.917,vts_reward_expectancy,2022.2.4,Win32,180.3101334,Chrome,1920,1080,,,l,0.3355,10,231,0,2,8,32,3,1,0,1,0,0,1,0,0,0,circle,triangle,,,,,,,,,,,,,,,,,,,,,,,,,,,,,,,,,,,,,,,,,,,,,,,,,,,,,,
293143,2022-09-23_09h23.14.917,vts_reward_expectancy,2022.2.4,Win32,180.3101334,Chrome,1920,1080,,,l,0.4262,10,241,0,2,9,33,10,1,0,0,0,1,0,1,0,0,star ,circle,,,,,,,,,,,,,,,,,,,,,,,,,,,,,,,,,,,,,,,,,,,,,,,,,,,,,,
293143,2022-09-23_09h23.14.917,vts_reward_expectancy,2022.2.4,Win32,180.3101334,Chrome,1920,1080,,,l,0.2224,10,251,0,2,10,34,7,1,0,0,1,0,0,1,0,0,hexagon,circle,,,,,,,,,,,,,,,,,,,,,,,,,,,,,,,,,,,,,,,,,,,,,,,,,,,,,,
293143,2022-09-23_09h23.14.917,vts_reward_expectancy,2022.2.4,Win32,180.3101334,Chrome,1920,1080,,,a,0.3279,10,261,0,2,11,35,11,1,0,0,0,1,0,0,1,0,star,hexagon,,,,,,,,,,,,,,,,,,,,,,,,,,,,,,,,,,,,,,,,,,,,,,,,,,,,,,
293143,2022-09-23_09h23.14.917,vts_reward_expectancy,2022.2.4,Win32,180.3101334,Chrome,1920,1080,,,l,1.8832,10,271,1,0,0,0,2,1,1,0,0,0,0,0,0,1,triangle,star,,,,,,,,,,,,,,,,,,,,,,,,,,,,,,,,,,,,,,,,,,,,,,,,,,,,,,
293143,2022-09-23_09h23.14.917,vts_reward_expectancy,2022.2.4,Win32,180.3101334,Chrome,1920,1080,,,l,0.4109,10,281,1,0,1,1,3,1,0,1,0,0,1,0,0,0,circle,triangle,,,,,,,,,,,,,,,,,,,,,,,,,,,,,,,,,,,,,,,,,,,,,,,,,,,,,,
293143,2022-09-23_09h23.14.917,vts_reward_expectancy,2022.2.4,Win32,180.3101334,Chrome,1920,1080,,,l,0.339,10,291,1,0,2,2,10,1,0,0,0,1,0,1,0,0,star ,circle,,,,,,,,,,,,,,,,,,,,,,,,,,,,,,,,,,,,,,,,,,,,,,,,,,,,,,
293143,2022-09-23_09h23.14.917,vts_reward_expectancy,2022.2.4,Win32,180.3101334,Chrome,1920,1080,,,l,0.3644,1,292,1,0,3,3,1,1,1,0,0,0,0,0,1,0,triangle,hexagon,,,,,,,,,,,,,,,,,,,,,,,,,,,,,,,,,,,,,,,,,,,,,,,,,,,,,,
293143,2022-09-23_09h23.14.917,vts_reward_expectancy,2022.2.4,Win32,180.3101334,Chrome,1920,1080,,,a,0.1442,10,302,1,0,4,4,4,1,0,1,0,0,0,0,1,0,circle,hexagon,,,,,,,,,,,,,,,,,,,,,,,,,,,,,,,,,,,,,,,,,,,,,,,,,,,,,,
293143,2022-09-23_09h23.14.917,vts_reward_expectancy,2022.2.4,Win32,180.3101334,Chrome,1920,1080,,,a,0.2847,1,303,1,0,5,5,0,1,1,0,0,0,0,1,0,0,triangle,circle,,,,,,,,,,,,,,,,,,,,,,,,,,,,,,,,,,,,,,,,,,,,,,,,,,,,,,
293143,2022-09-23_09h23.14.917,vts_reward_expectancy,2022.2.4,Win32,180.3101334,Chrome,1920,1080,,,a,0.5513,10,313,1,0,6,6,11,1,0,0,0,1,0,0,1,0,star,hexagon,,,,,,,,,,,,,,,,,,,,,,,,,,,,,,,,,,,,,,,,,,,,,,,,,,,,,,
293143,2022-09-23_09h23.14.917,vts_reward_expectancy,2022.2.4,Win32,180.3101334,Chrome,1920,1080,,,a,0.2133,1,314,1,0,7,7,5,1,0,1,0,0,0,0,0,1,circle,star,,,,,,,,,,,,,,,,,,,,,,,,,,,,,,,,,,,,,,,,,,,,,,,,,,,,,,
293143,2022-09-23_09h23.14.917,vts_reward_expectancy,2022.2.4,Win32,180.3101334,Chrome,1920,1080,,,l,1.0887,10,324,1,0,8,8,7,1,0,0,1,0,0,1,0,0,hexagon,circle,,,,,,,,,,,,,,,,,,,,,,,,,,,,,,,,,,,,,,,,,,,,,,,,,,,,,,
293143,2022-09-23_09h23.14.917,vts_reward_expectancy,2022.2.4,Win32,180.3101334,Chrome,1920,1080,,,l,0.839,1,325,1,0,9,9,6,1,0,0,1,0,1,0,0,0,hexagon,triangle,,,,,,,,,,,,,,,,,,,,,,,,,,,,,,,,,,,,,,,,,,,,,,,,,,,,,,
293143,2022-09-23_09h23.14.917,vts_reward_expectancy,2022.2.4,Win32,180.3101334,Chrome,1920,1080,,,a,1.1974,10,335,1,0,10,10,9,1,0,0,0,1,1,0,0,0,star,triangle,,,,,,,,,,,,,,,,,,,,,,,,,,,,,,,,,,,,,,,,,,,,,,,,,,,,,,
293143,2022-09-23_09h23.14.917,vts_reward_expectancy,2022.2.4,Win32,180.3101334,Chrome,1920,1080,,,l,0.7339,10,345,1,0,11,11,8,1,0,0,1,0,0,0,0,1,hexagon,star,,,,,,,,,,,,,,,,,,,,,,,,,,,,,,,,,,,,,,,,,,,,,,,,,,,,,,
293143,2022-09-23_09h23.14.917,vts_reward_expectancy,2022.2.4,Win32,180.3101334,Chrome,1920,1080,,,a,0.6184,10,355,1,1,0,12,9,1,0,0,0,1,1,0,0,0,star,triangle,,,,,,,,,,,,,,,,,,,,,,,,,,,,,,,,,,,,,,,,,,,,,,,,,,,,,,
293143,2022-09-23_09h23.14.917,vts_reward_expectancy,2022.2.4,Win32,180.3101334,Chrome,1920,1080,,,a,0.9898,10,365,1,1,1,13,1,1,1,0,0,0,0,0,1,0,triangle,hexagon,,,,,,,,,,,,,,,,,,,,,,,,,,,,,,,,,,,,,,,,,,,,,,,,,,,,,,
293143,2022-09-23_09h23.14.917,vts_reward_expectancy,2022.2.4,Win32,180.3101334,Chrome,1920,1080,,,a,0.5897,10,375,1,1,2,14,11,1,0,0,0,1,0,0,1,0,star,hexagon,,,,,,,,,,,,,,,,,,,,,,,,,,,,,,,,,,,,,,,,,,,,,,,,,,,,,,
293143,2022-09-23_09h23.14.917,vts_reward_expectancy,2022.2.4,Win32,180.3101334,Chrome,1920,1080,,,l,0.4502,10,385,1,1,3,15,5,1,0,1,0,0,0,0,0,1,circle,star,,,,,,,,,,,,,,,,,,,,,,,,,,,,,,,,,,,,,,,,,,,,,,,,,,,,,,
293143,2022-09-23_09h23.14.917,vts_reward_expectancy,2022.2.4,Win32,180.3101334,Chrome,1920,1080,,,a,0.529,1,386,1,1,4,16,7,1,0,0,1,0,0,1,0,0,hexagon,circle,,,,,,,,,,,,,,,,,,,,,,,,,,,,,,,,,,,,,,,,,,,,,,,,,,,,,,
293143,2022-09-23_09h23.14.917,vts_reward_expectancy,2022.2.4,Win32,180.3101334,Chrome,1920,1080,,,a,0.4736,1,387,1,1,5,17,10,1,0,0,0,1,0,1,0,0,star ,circle,,,,,,,,,,,,,,,,,,,,,,,,,,,,,,,,,,,,,,,,,,,,,,,,,,,,,,
293143,2022-09-23_09h23.14.917,vts_reward_expectancy,2022.2.4,Win32,180.3101334,Chrome,1920,1080,,,l,0.4007,10,397,1,1,6,18,2,1,1,0,0,0,0,0,0,1,triangle,star,,,,,,,,,,,,,,,,,,,,,,,,,,,,,,,,,,,,,,,,,,,,,,,,,,,,,,
293143,2022-09-23_09h23.14.917,vts_reward_expectancy,2022.2.4,Win32,180.3101334,Chrome,1920,1080,,,l,0.5897,1,398,1,1,7,19,6,1,0,0,1,0,1,0,0,0,hexagon,triangle,,,,,,,,,,,,,,,,,,,,,,,,,,,,,,,,,,,,,,,,,,,,,,,,,,,,,,
293143,2022-09-23_09h23.14.917,vts_reward_expectancy,2022.2.4,Win32,180.3101334,Chrome,1920,1080,,,l,0.7435,1,399,1,1,8,20,3,1,0,1,0,0,1,0,0,0,circle,triangle,,,,,,,,,,,,,,,,,,,,,,,,,,,,,,,,,,,,,,,,,,,,,,,,,,,,,,
293143,2022-09-23_09h23.14.917,vts_reward_expectancy,2022.2.4,Win32,180.3101334,Chrome,1920,1080,,,l,0.4889,10,409,1,1,9,21,8,1,0,0,1,0,0,0,0,1,hexagon,star,,,,,,,,,,,,,,,,,,,,,,,,,,,,,,,,,,,,,,,,,,,,,,,,,,,,,,
293143,2022-09-23_09h23.14.917,vts_reward_expectancy,2022.2.4,Win32,180.3101334,Chrome,1920,1080,,,l,0.9667,10,419,1,1,10,22,0,1,1,0,0,0,0,1,0,0,triangle,circle,,,,,,,,,,,,,,,,,,,,,,,,,,,,,,,,,,,,,,,,,,,,,,,,,,,,,,
293143,2022-09-23_09h23.14.917,vts_reward_expectancy,2022.2.4,Win32,180.3101334,Chrome,1920,1080,,,a,0.7944,10,429,1,1,11,23,4,1,0,1,0,0,0,0,1,0,circle,hexagon,,,,,,,,,,,,,,,,,,,,,,,,,,,,,,,,,,,,,,,,,,,,,,,,,,,,,,
293143,2022-09-23_09h23.14.917,vts_reward_expectancy,2022.2.4,Win32,180.3101334,Chrome,1920,1080,,,a,0.6633,10,439,1,2,0,24,9,1,0,0,0,1,1,0,0,0,star,triangle,,,,,,,,,,,,,,,,,,,,,,,,,,,,,,,,,,,,,,,,,,,,,,,,,,,,,,
293143,2022-09-23_09h23.14.917,vts_reward_expectancy,2022.2.4,Win32,180.3101334,Chrome,1920,1080,,,l,0.6344,10,449,1,2,1,25,2,1,1,0,0,0,0,0,0,1,triangle,star,,,,,,,,,,,,,,,,,,,,,,,,,,,,,,,,,,,,,,,,,,,,,,,,,,,,,,
293143,2022-09-23_09h23.14.917,vts_reward_expectancy,2022.2.4,Win32,180.3101334,Chrome,1920,1080,,,l,1.072,10,459,1,2,2,26,3,1,0,1,0,0,1,0,0,0,circle,triangle,,,,,,,,,,,,,,,,,,,,,,,,,,,,,,,,,,,,,,,,,,,,,,,,,,,,,,
293143,2022-09-23_09h23.14.917,vts_reward_expectancy,2022.2.4,Win32,180.3101334,Chrome,1920,1080,,,a,1.3741,10,469,1,2,3,27,0,1,1,0,0,0,0,1,0,0,triangle,circle,,,,,,,,,,,,,,,,,,,,,,,,,,,,,,,,,,,,,,,,,,,,,,,,,,,,,,
293143,2022-09-23_09h23.14.917,vts_reward_expectancy,2022.2.4,Win32,180.3101334,Chrome,1920,1080,,,a,1.3744,1,470,1,2,4,28,4,1,0,1,0,0,0,0,1,0,circle,hexagon,,,,,,,,,,,,,,,,,,,,,,,,,,,,,,,,,,,,,,,,,,,,,,,,,,,,,,
293143,2022-09-23_09h23.14.917,vts_reward_expectancy,2022.2.4,Win32,180.3101334,Chrome,1920,1080,,,a,0.7049,1,471,1,2,5,29,10,1,0,0,0,1,0,1,0,0,star ,circle,,,,,,,,,,,,,,,,,,,,,,,,,,,,,,,,,,,,,,,,,,,,,,,,,,,,,,
293143,2022-09-23_09h23.14.917,vts_reward_expectancy,2022.2.4,Win32,180.3101334,Chrome,1920,1080,,,a,1.1664,10,481,1,2,6,30,11,1,0,0,0,1,0,0,1,0,star,hexagon,,,,,,,,,,,,,,,,,,,,,,,,,,,,,,,,,,,,,,,,,,,,,,,,,,,,,,
293143,2022-09-23_09h23.14.917,vts_reward_expectancy,2022.2.4,Win32,180.3101334,Chrome,1920,1080,,,a,2.2941,1,482,1,2,7,31,7,1,0,0,1,0,0,1,0,0,hexagon,circle,,,,,,,,,,,,,,,,,,,,,,,,,,,,,,,,,,,,,,,,,,,,,,,,,,,,,,
293143,2022-09-23_09h23.14.917,vts_reward_expectancy,2022.2.4,Win32,180.3101334,Chrome,1920,1080,,,l,0.7734,10,492,1,2,8,32,5,1,0,1,0,0,0,0,0,1,circle,star,,,,,,,,,,,,,,,,,,,,,,,,,,,,,,,,,,,,,,,,,,,,,,,,,,,,,,
293143,2022-09-23_09h23.14.917,vts_reward_expectancy,2022.2.4,Win32,180.3101334,Chrome,1920,1080,,,l,0.6623,10,502,1,2,9,33,8,1,0,0,1,0,0,0,0,1,hexagon,star,,,,,,,,,,,,,,,,,,,,,,,,,,,,,,,,,,,,,,,,,,,,,,,,,,,,,,
293143,2022-09-23_09h23.14.917,vts_reward_expectancy,2022.2.4,Win32,180.3101334,Chrome,1920,1080,,,a,2.1519,1,503,1,2,10,34,1,1,1,0,0,0,0,0,1,0,triangle,hexagon,,,,,,,,,,,,,,,,,,,,,,,,,,,,,,,,,,,,,,,,,,,,,,,,,,,,,,
293143,2022-09-23_09h23.14.917,vts_reward_expectancy,2022.2.4,Win32,180.3101334,Chrome,1920,1080,,,a,1.046,1,504,1,2,11,35,6,1,0,0,1,0,1,0,0,0,hexagon,triangle,,,,,,,,,,,,,,,,,,,,,,,,,,,,,,,,,,,,,,,,,,,,,,,,,,,,,,
293143,2022-09-23_09h23.14.917,vts_reward_expectancy,2022.2.4,Win32,180.3101334,Chrome,1920,1080,,,a,0.5225,1,505,2,0,0,0,10,1,0,0,0,1,0,1,0,0,star ,circle,,,,,,,,,,,,,,,,,,,,,,,,,,,,,,,,,,,,,,,,,,,,,,,,,,,,,,
293143,2022-09-23_09h23.14.917,vts_reward_expectancy,2022.2.4,Win32,180.3101334,Chrome,1920,1080,,,a,0.5927,10,515,2,0,1,1,4,1,0,1,0,0,0,0,1,0,circle,hexagon,,,,,,,,,,,,,,,,,,,,,,,,,,,,,,,,,,,,,,,,,,,,,,,,,,,,,,
293143,2022-09-23_09h23.14.917,vts_reward_expectancy,2022.2.4,Win32,180.3101334,Chrome,1920,1080,,,l,0.5298,10,525,2,0,2,2,0,1,1,0,0,0,0,1,0,0,triangle,circle,,,,,,,,,,,,,,,,,,,,,,,,,,,,,,,,,,,,,,,,,,,,,,,,,,,,,,
293143,2022-09-23_09h23.14.917,vts_reward_expectancy,2022.2.4,Win32,180.3101334,Chrome,1920,1080,,,l,0.8001,10,535,2,0,3,3,8,1,0,0,1,0,0,0,0,1,hexagon,star,,,,,,,,,,,,,,,,,,,,,,,,,,,,,,,,,,,,,,,,,,,,,,,,,,,,,,
293143,2022-09-23_09h23.14.917,vts_reward_expectancy,2022.2.4,Win32,180.3101334,Chrome,1920,1080,,,a,0.3476,10,545,2,0,4,4,11,1,0,0,0,1,0,0,1,0,star,hexagon,,,,,,,,,,,,,,,,,,,,,,,,,,,,,,,,,,,,,,,,,,,,,,,,,,,,,,
293143,2022-09-23_09h23.14.917,vts_reward_expectancy,2022.2.4,Win32,180.3101334,Chrome,1920,1080,,,a,0.4689,10,555,2,0,5,5,9,1,0,0,0,1,1,0,0,0,star,triangle,,,,,,,,,,,,,,,,,,,,,,,,,,,,,,,,,,,,,,,,,,,,,,,,,,,,,,
293143,2022-09-23_09h23.14.917,vts_reward_expectancy,2022.2.4,Win32,180.3101334,Chrome,1920,1080,,,l,0.9403,10,565,2,0,6,6,2,1,1,0,0,0,0,0,0,1,triangle,star,,,,,,,,,,,,,,,,,,,,,,,,,,,,,,,,,,,,,,,,,,,,,,,,,,,,,,
293143,2022-09-23_09h23.14.917,vts_reward_expectancy,2022.2.4,Win32,180.3101334,Chrome,1920,1080,,,a,0.7679,10,575,2,0,7,7,1,1,1,0,0,0,0,0,1,0,triangle,hexagon,,,,,,,,,,,,,,,,,,,,,,,,,,,,,,,,,,,,,,,,,,,,,,,,,,,,,,
293143,2022-09-23_09h23.14.917,vts_reward_expectancy,2022.2.4,Win32,180.3101334,Chrome,1920,1080,,,l,0.5408,10,585,2,0,8,8,5,1,0,1,0,0,0,0,0,1,circle,star,,,,,,,,,,,,,,,,,,,,,,,,,,,,,,,,,,,,,,,,,,,,,,,,,,,,,,
293143,2022-09-23_09h23.14.917,vts_reward_expectancy,2022.2.4,Win32,180.3101334,Chrome,1920,1080,,,l,0.6763,1,586,2,0,9,9,6,1,0,0,1,0,1,0,0,0,hexagon,triangle,,,,,,,,,,,,,,,,,,,,,,,,,,,,,,,,,,,,,,,,,,,,,,,,,,,,,,
293143,2022-09-23_09h23.14.917,vts_reward_expectancy,2022.2.4,Win32,180.3101334,Chrome,1920,1080,,,l,1.1493,1,587,2,0,10,10,3,1,0,1,0,0,1,0,0,0,circle,triangle,,,,,,,,,,,,,,,,,,,,,,,,,,,,,,,,,,,,,,,,,,,,,,,,,,,,,,
293143,2022-09-23_09h23.14.917,vts_reward_expectancy,2022.2.4,Win32,180.3101334,Chrome,1920,1080,,,l,1.4406,1,588,2,0,11,11,7,1,0,0,1,0,0,1,0,0,hexagon,circle,,,,,,,,,,,,,,,,,,,,,,,,,,,,,,,,,,,,,,,,,,,,,,,,,,,,,,
293143,2022-09-23_09h23.14.917,vts_reward_expectancy,2022.2.4,Win32,180.3101334,Chrome,1920,1080,,,l,0.4503,10,598,2,1,0,12,8,1,0,0,1,0,0,0,0,1,hexagon,star,,,,,,,,,,,,,,,,,,,,,,,,,,,,,,,,,,,,,,,,,,,,,,,,,,,,,,
293143,2022-09-23_09h23.14.917,vts_reward_expectancy,2022.2.4,Win32,180.3101334,Chrome,1920,1080,,,a,0.4596,1,599,2,1,1,13,6,1,0,0,1,0,1,0,0,0,hexagon,triangle,,,,,,,,,,,,,,,,,,,,,,,,,,,,,,,,,,,,,,,,,,,,,,,,,,,,,,
293143,2022-09-23_09h23.14.917,vts_reward_expectancy,2022.2.4,Win32,180.3101334,Chrome,1920,1080,,,a,1.0166,10,609,2,1,2,14,4,1,0,1,0,0,0,0,1,0,circle,hexagon,,,,,,,,,,,,,,,,,,,,,,,,,,,,,,,,,,,,,,,,,,,,,,,,,,,,,,
293143,2022-09-23_09h23.14.917,vts_reward_expectancy,2022.2.4,Win32,180.3101334,Chrome,1920,1080,,,a,0.84,10,619,2,1,3,15,1,1,1,0,0,0,0,0,1,0,triangle,hexagon,,,,,,,,,,,,,,,,,,,,,,,,,,,,,,,,,,,,,,,,,,,,,,,,,,,,,,
293143,2022-09-23_09h23.14.917,vts_reward_expectancy,2022.2.4,Win32,180.3101334,Chrome,1920,1080,,,a,1.1779,1,620,2,1,4,16,0,1,1,0,0,0,0,1,0,0,triangle,circle,,,,,,,,,,,,,,,,,,,,,,,,,,,,,,,,,,,,,,,,,,,,,,,,,,,,,,
293143,2022-09-23_09h23.14.917,vts_reward_expectancy,2022.2.4,Win32,180.3101334,Chrome,1920,1080,,,l,0.7448,10,630,2,1,5,17,2,1,1,0,0,0,0,0,0,1,triangle,star,,,,,,,,,,,,,,,,,,,,,,,,,,,,,,,,,,,,,,,,,,,,,,,,,,,,,,
293143,2022-09-23_09h23.14.917,vts_reward_expectancy,2022.2.4,Win32,180.3101334,Chrome,1920,1080,,,a,0.7156,10,640,2,1,6,18,10,1,0,0,0,1,0,1,0,0,star ,circle,,,,,,,,,,,,,,,,,,,,,,,,,,,,,,,,,,,,,,,,,,,,,,,,,,,,,,
293143,2022-09-23_09h23.14.917,vts_reward_expectancy,2022.2.4,Win32,180.3101334,Chrome,1920,1080,,,l,0.7113,10,650,2,1,7,19,3,1,0,1,0,0,1,0,0,0,circle,triangle,,,,,,,,,,,,,,,,,,,,,,,,,,,,,,,,,,,,,,,,,,,,,,,,,,,,,,
293143,2022-09-23_09h23.14.917,vts_reward_expectancy,2022.2.4,Win32,180.3101334,Chrome,1920,1080,,,l,0.6889,10,660,2,1,8,20,5,1,0,1,0,0,0,0,0,1,circle,star,,,,,,,,,,,,,,,,,,,,,,,,,,,,,,,,,,,,,,,,,,,,,,,,,,,,,,
293143,2022-09-23_09h23.14.917,vts_reward_expectancy,2022.2.4,Win32,180.3101334,Chrome,1920,1080,,,a,0.4171,10,670,2,1,9,21,11,1,0,0,0,1,0,0,1,0,star,hexagon,,,,,,,,,,,,,,,,,,,,,,,,,,,,,,,,,,,,,,,,,,,,,,,,,,,,,,
293143,2022-09-23_09h23.14.917,vts_reward_expectancy,2022.2.4,Win32,180.3101334,Chrome,1920,1080,,,a,2.1897,10,680,2,1,10,22,9,1,0,0,0,1,1,0,0,0,star,triangle,,,,,,,,,,,,,,,,,,,,,,,,,,,,,,,,,,,,,,,,,,,,,,,,,,,,,,
293143,2022-09-23_09h23.14.917,vts_reward_expectancy,2022.2.4,Win32,180.3101334,Chrome,1920,1080,,,l,4.9262,10,690,2,1,11,23,7,1,0,0,1,0,0,1,0,0,hexagon,circle,,,,,,,,,,,,,,,,,,,,,,,,,,,,,,,,,,,,,,,,,,,,,,,,,,,,,,
293143,2022-09-23_09h23.14.917,vts_reward_expectancy,2022.2.4,Win32,180.3101334,Chrome,1920,1080,,,a,1.2135,10,700,2,2,0,24,9,1,0,0,0,1,1,0,0,0,star,triangle,,,,,,,,,,,,,,,,,,,,,,,,,,,,,,,,,,,,,,,,,,,,,,,,,,,,,,
293143,2022-09-23_09h23.14.917,vts_reward_expectancy,2022.2.4,Win32,180.3101334,Chrome,1920,1080,,,l,0.8408,10,710,2,2,1,25,7,1,0,0,1,0,0,1,0,0,hexagon,circle,,,,,,,,,,,,,,,,,,,,,,,,,,,,,,,,,,,,,,,,,,,,,,,,,,,,,,
293143,2022-09-23_09h23.14.917,vts_reward_expectancy,2022.2.4,Win32,180.3101334,Chrome,1920,1080,,,l,0.7114,10,720,2,2,2,26,1,1,1,0,0,0,0,0,1,0,triangle,hexagon,,,,,,,,,,,,,,,,,,,,,,,,,,,,,,,,,,,,,,,,,,,,,,,,,,,,,,
293143,2022-09-23_09h23.14.917,vts_reward_expectancy,2022.2.4,Win32,180.3101334,Chrome,1920,1080,,,a,0.5554,10,730,2,2,3,27,11,1,0,0,0,1,0,0,1,0,star,hexagon,,,,,,,,,,,,,,,,,,,,,,,,,,,,,,,,,,,,,,,,,,,,,,,,,,,,,,
293143,2022-09-23_09h23.14.917,vts_reward_expectancy,2022.2.4,Win32,180.3101334,Chrome,1920,1080,,,l,0.4886,1,731,2,2,4,28,8,1,0,0,1,0,0,0,0,1,hexagon,star,,,,,,,,,,,,,,,,,,,,,,,,,,,,,,,,,,,,,,,,,,,,,,,,,,,,,,
293143,2022-09-23_09h23.14.917,vts_reward_expectancy,2022.2.4,Win32,180.3101334,Chrome,1920,1080,,,a,1.5289,1,732,2,2,5,29,4,1,0,1,0,0,0,0,1,0,circle,hexagon,,,,,,,,,,,,,,,,,,,,,,,,,,,,,,,,,,,,,,,,,,,,,,,,,,,,,,
293143,2022-09-23_09h23.14.917,vts_reward_expectancy,2022.2.4,Win32,180.3101334,Chrome,1920,1080,,,a,0.4726,1,733,2,2,6,30,10,1,0,0,0,1,0,1,0,0,star ,circle,,,,,,,,,,,,,,,,,,,,,,,,,,,,,,,,,,,,,,,,,,,,,,,,,,,,,,
293143,2022-09-23_09h23.14.917,vts_reward_expectancy,2022.2.4,Win32,180.3101334,Chrome,1920,1080,,,l,0.4245,10,743,2,2,7,31,5,1,0,1,0,0,0,0,0,1,circle,star,,,,,,,,,,,,,,,,,,,,,,,,,,,,,,,,,,,,,,,,,,,,,,,,,,,,,,
293143,2022-09-23_09h23.14.917,vts_reward_expectancy,2022.2.4,Win32,180.3101334,Chrome,1920,1080,,,l,0.4893,10,753,2,2,8,32,6,1,0,0,1,0,1,0,0,0,hexagon,triangle,,,,,,,,,,,,,,,,,,,,,,,,,,,,,,,,,,,,,,,,,,,,,,,,,,,,,,
293143,2022-09-23_09h23.14.917,vts_reward_expectancy,2022.2.4,Win32,180.3101334,Chrome,1920,1080,,,l,0.9133,10,763,2,2,9,33,2,1,1,0,0,0,0,0,0,1,triangle,star,,,,,,,,,,,,,,,,,,,,,,,,,,,,,,,,,,,,,,,,,,,,,,,,,,,,,,
293143,2022-09-23_09h23.14.917,vts_reward_expectancy,2022.2.4,Win32,180.3101334,Chrome,1920,1080,,,l,1.0736,10,773,2,2,10,34,0,1,1,0,0,0,0,1,0,0,triangle,circle,,,,,,,,,,,,,,,,,,,,,,,,,,,,,,,,,,,,,,,,,,,,,,,,,,,,,,
293143,2022-09-23_09h23.14.917,vts_reward_expectancy,2022.2.4,Win32,180.3101334,Chrome,1920,1080,,,l,0.2582,1,774,2,2,11,35,3,1,0,1,0,0,1,0,0,0,circle,triangle,,,,,,,,,,,,,,,,,,,,,,,,,,,,,,,,,,,,,,,,,,,,,,,,,,,,,,
293143,2022-09-23_09h23.14.917,vts_reward_expectancy,2022.2.4,Win32,180.3101334,Chrome,1920,1080,,,,,,,,,,,,,,,,,,,,,,,S,174,circle,1,0,f,1.5061,0,0,0,0,0,1,,,,,,,,,,,,,,,,,,,,,,,,,,,,,,,,,,,,,,,,,
293143,2022-09-23_09h23.14.917,vts_reward_expectancy,2022.2.4,Win32,180.3101334,Chrome,1920,1080,,,,,,,,,,,,,,,,,,,,,,,B,167,hexagon,1,0,d,0.5318,0,1,0,1,0,1,,,,,,,,,,,,,,,,,,,,,,,,,,,,,,,,,,,,,,,,,
293143,2022-09-23_09h23.14.917,vts_reward_expectancy,2022.2.4,Win32,180.3101334,Chrome,1920,1080,,,,,,,,,,,,,,,,,,,,,,,U,146,triangle,1,0,f,0.8998,0,2,0,2,0,1,,,,,,,,,,,,,,,,,,,,,,,,,,,,,,,,,,,,,,,,,
293143,2022-09-23_09h23.14.917,vts_reward_expectancy,2022.2.4,Win32,180.3101334,Chrome,1920,1080,,,,,,,,,,,,,,,,,,,,,,,Y,139,star,1,0,f,0.7073,0,3,0,3,0,1,,,,,,,,,,,,,,,,,,,,,,,,,,,,,,,,,,,,,,,,,
293143,2022-09-23_09h23.14.917,vts_reward_expectancy,2022.2.4,Win32,180.3101334,Chrome,1920,1080,,,,,,,,,,,,,,,,,,,,,,,W,160,circle,1,0,f,0.4887,0,4,0,4,0,1,,,,,,,,,,,,,,,,,,,,,,,,,,,,,,,,,,,,,,,,,
293143,2022-09-23_09h23.14.917,vts_reward_expectancy,2022.2.4,Win32,180.3101334,Chrome,1920,1080,,,,,,,,,,,,,,,,,,,,,,,F,132,hexagon,1,0,d,0.6057,0,5,0,5,0,1,,,,,,,,,,,,,,,,,,,,,,,,,,,,,,,,,,,,,,,,,
293143,2022-09-23_09h23.14.917,vts_reward_expectancy,2022.2.4,Win32,180.3101334,Chrome,1920,1080,,,,,,,,,,,,,,,,,,,,,,,H,125,triangle,1,0,d,0.8511,0,6,0,6,0,1,,,,,,,,,,,,,,,,,,,,,,,,,,,,,,,,,,,,,,,,,
293143,2022-09-23_09h23.14.917,vts_reward_expectancy,2022.2.4,Win32,180.3101334,Chrome,1920,1080,,,,,,,,,,,,,,,,,,,,,,,D,181,star,1,0,d,0.5471,0,7,0,7,0,1,,,,,,,,,,,,,,,,,,,,,,,,,,,,,,,,,,,,,,,,,
293143,2022-09-23_09h23.14.917,vts_reward_expectancy,2022.2.4,Win32,180.3101334,Chrome,1920,1080,,,,,,,,,,,,,,,,,,,,,,,S,174,triangle,1,0,f,1.2742,0,8,0,8,0,1,,,,,,,,,,,,,,,,,,,,,,,,,,,,,,,,,,,,,,,,,
293143,2022-09-23_09h23.14.917,vts_reward_expectancy,2022.2.4,Win32,180.3101334,Chrome,1920,1080,,,,,,,,,,,,,,,,,,,,,,,B,167,star,1,0,d,0.5488,0,9,0,9,0,1,,,,,,,,,,,,,,,,,,,,,,,,,,,,,,,,,,,,,,,,,
293143,2022-09-23_09h23.14.917,vts_reward_expectancy,2022.2.4,Win32,180.3101334,Chrome,1920,1080,,,,,,,,,,,,,,,,,,,,,,,Y,125,hexagon,1,0,,,1,,,,,,j,0.5046,0,0,0,0,1,,,,,,,,,,,,,,,,,,,,,,,,,,,,,,,,,,
293143,2022-09-23_09h23.14.917,vts_reward_expectancy,2022.2.4,Win32,180.3101334,Chrome,1920,1080,,,,,,,,,,,,,,,,,,,,,,,F,139,triangle,1,0,,,1,,,,,,j,0.9918,1,0,1,0,1,,,,,,,,,,,,,,,,,,,,,,,,,,,,,,,,,,
293143,2022-09-23_09h23.14.917,vts_reward_expectancy,2022.2.4,Win32,180.3101334,Chrome,1920,1080,,,,,,,,,,,,,,,,,,,,,,,U,167,circle,1,0,,,1,,,,,,k,0.7122,2,0,2,0,1,,,,,,,,,,,,,,,,,,,,,,,,,,,,,,,,,,
293143,2022-09-23_09h23.14.917,vts_reward_expectancy,2022.2.4,Win32,180.3101334,Chrome,1920,1080,,,,,,,,,,,,,,,,,,,,,,,D,174,star,1,0,,,1,,,,,,k,0.5793,3,0,3,0,1,,,,,,,,,,,,,,,,,,,,,,,,,,,,,,,,,,
293143,2022-09-23_09h23.14.917,vts_reward_expectancy,2022.2.4,Win32,180.3101334,Chrome,1920,1080,,,,,,,,,,,,,,,,,,,,,,,B,181,hexagon,1,0,,,1,,,,,,k,0.5414,4,0,4,0,1,,,,,,,,,,,,,,,,,,,,,,,,,,,,,,,,,,
293143,2022-09-23_09h23.14.917,vts_reward_expectancy,2022.2.4,Win32,180.3101334,Chrome,1920,1080,,,,,,,,,,,,,,,,,,,,,,,H,132,triangle,1,0,,,1,,,,,,j,0.5568,5,0,5,0,1,,,,,,,,,,,,,,,,,,,,,,,,,,,,,,,,,,
293143,2022-09-23_09h23.14.917,vts_reward_expectancy,2022.2.4,Win32,180.3101334,Chrome,1920,1080,,,,,,,,,,,,,,,,,,,,,,,S,160,circle,1,0,,,1,,,,,,k,1.5276,6,0,6,0,1,,,,,,,,,,,,,,,,,,,,,,,,,,,,,,,,,,
293143,2022-09-23_09h23.14.917,vts_reward_expectancy,2022.2.4,Win32,180.3101334,Chrome,1920,1080,,,,,,,,,,,,,,,,,,,,,,,W,146,star,1,0,,,1,,,,,,j,0.6015,7,0,7,0,1,,,,,,,,,,,,,,,,,,,,,,,,,,,,,,,,,,
293143,2022-09-23_09h23.14.917,vts_reward_expectancy,2022.2.4,Win32,180.3101334,Chrome,1920,1080,,,,,,,,,,,,,,,,,,,,,,,Y,125,star,1,0,,,1,,,,,,j,0.6455,8,0,8,0,1,,,,,,,,,,,,,,,,,,,,,,,,,,,,,,,,,,
293143,2022-09-23_09h23.14.917,vts_reward_expectancy,2022.2.4,Win32,180.3101334,Chrome,1920,1080,,,,,,,,,,,,,,,,,,,,,,,F,139,hexagon,1,0,,,1,,,,,,j,1.6426,9,0,9,0,1,,,,,,,,,,,,,,,,,,,,,,,,,,,,,,,,,,
293143,2022-09-23_09h23.14.917,vts_reward_expectancy,2022.2.4,Win32,180.3101334,Chrome,1920,1080,,,,,0,774,,,,,,,,,,,,,,,,,F,181,hexagon,1,0,,,2,,,,,,,,,,,,,-1,letter,NA,d,2.5204,vtsPrac,0,0,0,0,1,,,,,,,,,,,,,,,,,,,,,,,
293143,2022-09-23_09h23.14.917,vts_reward_expectancy,2022.2.4,Win32,180.3101334,Chrome,1920,1080,,,,,0,774,,,,,,,,,,,,,,,,,Y,146,star,1,0,,,2,,,,,,,,,,,,,repeat,letter,lettRpt,f,0.7954,vtsPrac,1,0,1,0,1,,,,,,,,,,,,,,,,,,,,,,,
293143,2022-09-23_09h23.14.917,vts_reward_expectancy,2022.2.4,Win32,180.3101334,Chrome,1920,1080,,,,,0,774,,,,,,,,,,,,,,,,,B,139,hexagon,1,0,,,2,,,,,,,,,,,,,switch,number,numSwt,j,0.4621,vtsPrac,2,0,2,0,1,,,,,,,,,,,,,,,,,,,,,,,
293143,2022-09-23_09h23.14.917,vts_reward_expectancy,2022.2.4,Win32,180.3101334,Chrome,1920,1080,,,,,0,774,,,,,,,,,,,,,,,,,H,132,star,1,0,,,2,,,,,,,,,,,,,switch,letter,lettSwt,d,0.6833,vtsPrac,3,0,3,0,1,,,,,,,,,,,,,,,,,,,,,,,
293143,2022-09-23_09h23.14.917,vts_reward_expectancy,2022.2.4,Win32,180.3101334,Chrome,1920,1080,,,,,0,774,,,,,,,,,,,,,,,,,F,181,hexagon,1,0,,,2,,,,,,,,,,,,,switch,number,numSwt,k,0.7113,vtsPrac,4,0,4,0,1,,,,,,,,,,,,,,,,,,,,,,,
293143,2022-09-23_09h23.14.917,vts_reward_expectancy,2022.2.4,Win32,180.3101334,Chrome,1920,1080,,,,,0,774,,,,,,,,,,,,,,,,,Y,146,circle,1,0,,,2,,,,,,,,,,,,,repeat,number,numRpt,j,0.5173,vtsPrac,5,0,5,0,1,,,,,,,,,,,,,,,,,,,,,,,
293143,2022-09-23_09h23.14.917,vts_reward_expectancy,2022.2.4,Win32,180.3101334,Chrome,1920,1080,,,,,0,774,,,,,,,,,,,,,,,,,B,139,circle,1,0,,,2,,,,,,,,,,,,,switch,letter,lettSwt,d,0.5567,vtsPrac,6,0,6,0,1,,,,,,,,,,,,,,,,,,,,,,,
293143,2022-09-23_09h23.14.917,vts_reward_expectancy,2022.2.4,Win32,180.3101334,Chrome,1920,1080,,,,,0,774,,,,,,,,,,,,,,,,,H,132,hexagon,1,0,,,2,,,,,,,,,,,,,switch,number,numSwt,j,0.7673,vtsPrac,7,0,7,0,1,,,,,,,,,,,,,,,,,,,,,,,
293143,2022-09-23_09h23.14.917,vts_reward_expectancy,2022.2.4,Win32,180.3101334,Chrome,1920,1080,,,,,0,774,,,,,,,,,,,,,,,,,D,146,star,1,0,,,2,,,,,,,,,,,,,repeat,number,numRpt,j,0.6626,vtsPrac,8,0,8,0,1,,,,,,,,,,,,,,,,,,,,,,,
293143,2022-09-23_09h23.14.917,vts_reward_expectancy,2022.2.4,Win32,180.3101334,Chrome,1920,1080,,,,,0,774,,,,,,,,,,,,,,,,,Y,139,triangle,1,0,,,2,,,,,,,,,,,,,repeat,number,numRpt,j,0.7189,vtsPrac,9,0,9,0,1,,,,,,,,,,,,,,,,,,,,,,,
293143,2022-09-23_09h23.14.917,vts_reward_expectancy,2022.2.4,Win32,180.3101334,Chrome,1920,1080,,,,,0,774,,,,,,,,,,,,,,,,,U,132,hexagon,1,0,,,2,,,,,,,,,,,,,repeat,number,numRpt,j,0.4168,vtsPrac,10,0,10,0,1,,,,,,,,,,,,,,,,,,,,,,,
293143,2022-09-23_09h23.14.917,vts_reward_expectancy,2022.2.4,Win32,180.3101334,Chrome,1920,1080,,,,,0,774,,,,,,,,,,,,,,,,,S,125,star,1,0,,,2,,,,,,,,,,,,,switch,letter,lettSwt,f,0.6399,vtsPrac,11,0,11,0,1,,,,,,,,,,,,,,,,,,,,,,,
293143,2022-09-23_09h23.14.917,vts_reward_expectancy,2022.2.4,Win32,180.3101334,Chrome,1920,1080,,,,,0,774,,,,,,,,,,,,,,,,,B,125,triangle,1,0,,,2,,,,,,,,,,,,,repeat,letter,lettRpt,d,0.4801,vtsPrac,12,0,12,0,1,,,,,,,,,,,,,,,,,,,,,,,
293143,2022-09-23_09h23.14.917,vts_reward_expectancy,2022.2.4,Win32,180.3101334,Chrome,1920,1080,,,,,0,774,,,,,,,,,,,,,,,,,F,160,star,1,0,,,2,,,,,,,,,,,,,switch,number,numSwt,k,0.439,vtsPrac,13,0,13,0,1,,,,,,,,,,,,,,,,,,,,,,,
293143,2022-09-23_09h23.14.917,vts_reward_expectancy,2022.2.4,Win32,180.3101334,Chrome,1920,1080,,,,,0,774,,,,,,,,,,,,,,,,,S,146,hexagon,1,0,,,2,,,,,,,,,,,,,switch,letter,lettSwt,f,0.584,vtsPrac,14,0,14,0,1,,,,,,,,,,,,,,,,,,,,,,,
293143,2022-09-23_09h23.14.917,vts_reward_expectancy,2022.2.4,Win32,180.3101334,Chrome,1920,1080,,,,,0,774,,,,,,,,,,,,,,,,,H,139,circle,1,0,,,2,,,,,,,,,,,,,repeat,letter,lettRpt,d,0.8232,vtsPrac,15,0,15,0,1,,,,,,,,,,,,,,,,,,,,,,,
293143,2022-09-23_09h23.14.917,vts_reward_expectancy,2022.2.4,Win32,180.3101334,Chrome,1920,1080,,,,,,,,,,,,,,,,,,,,,,,,,,,,,,,,,,,,,,,,,,,,,,,,,,,,,,,,,,,,,,,,,,,,,,,,,,,,
293143,2022-09-23_09h23.14.917,vts_reward_expectancy,2022.2.4,Win32,180.3101334,Chrome,1920,1080,,,,,,,,,,,,,,,,,,,,,,,,,,,,,,,,,,,,,,,,,,,,,,,,,,,,,,,,,,,,,,,,,,,,,,,,,,,,
293143,2022-09-23_09h23.14.917,vts_reward_expectancy,2022.2.4,Win32,180.3101334,Chrome,1920,1080,,,,,0,774,,,,,,,,,,,,,,,,,U,167,circle,1,0,,,,,,,,,,,,,,,,repeat,letter,lettRpt,f,0.5381,noRew,,,,,,0,0,0,0,0,1,,,,,,,,,,,,,,,,,
293143,2022-09-23_09h23.14.917,vts_reward_expectancy,2022.2.4,Win32,180.3101334,Chrome,1920,1080,,,,,0,774,,,,,,,,,,,,,,,,,H,139,star,1,0,,,,,,,,,,,,,,,,repeat,letter,lettRpt,d,0.5952,noRew,,,,,,0,1,0,1,0,1,,,,,,,,,,,,,,,,,
293143,2022-09-23_09h23.14.917,vts_reward_expectancy,2022.2.4,Win32,180.3101334,Chrome,1920,1080,,,,,0,774,,,,,,,,,,,,,,,,,D,174,circle,1,0,,,,,,,,,,,,,,,,repeat,letter,lettRpt,d,0.4835,noRew,,,,,,0,2,0,2,0,1,,,,,,,,,,,,,,,,,
293143,2022-09-23_09h23.14.917,vts_reward_expectancy,2022.2.4,Win32,180.3101334,Chrome,1920,1080,,,,,0,774,,,,,,,,,,,,,,,,,S,181,star,1,0,,,,,,,,,,,,,,,,switch,number,numSwt,k,0.4766,noRew,,,,,,0,3,0,3,0,1,,,,,,,,,,,,,,,,,
293143,2022-09-23_09h23.14.917,vts_reward_expectancy,2022.2.4,Win32,180.3101334,Chrome,1920,1080,,,,,0,774,,,,,,,,,,,,,,,,,U,167,triangle,1,0,,,,,,,,,,,,,,,,repeat,number,numRpt,k,0.7511,noRew,,,,,,0,4,0,4,0,1,,,,,,,,,,,,,,,,,
293143,2022-09-23_09h23.14.917,vts_reward_expectancy,2022.2.4,Win32,180.3101334,Chrome,1920,1080,,,,,0,774,,,,,,,,,,,,,,,,,H,139,circle,1,0,,,,,,,,,,,,,,,,switch,letter,lettSwt,d,0.7569,noRew,,,,,,0,5,0,5,0,1,,,,,,,,,,,,,,,,,
293143,2022-09-23_09h23.14.917,vts_reward_expectancy,2022.2.4,Win32,180.3101334,Chrome,1920,1080,,,,,0,774,,,,,,,,,,,,,,,,,D,174,star,1,0,,,,,,,,,,,,,,,,switch,number,numSwt,k,0.5902,noRew,,,,,,0,6,0,6,0,1,,,,,,,,,,,,,,,,,
293143,2022-09-23_09h23.14.917,vts_reward_expectancy,2022.2.4,Win32,180.3101334,Chrome,1920,1080,,,,,0,774,,,,,,,,,,,,,,,,,S,181,circle,1,0,,,,,,,,,,,,,,,,repeat,number,numRpt,k,0.4366,noRew,,,,,,0,7,0,7,0,1,,,,,,,,,,,,,,,,,
293143,2022-09-23_09h23.14.917,vts_reward_expectancy,2022.2.4,Win32,180.3101334,Chrome,1920,1080,,,,,0,774,,,,,,,,,,,,,,,,,D,139,circle,1,0,,,,,,,,,,,,,,,,switch,letter,lettSwt,d,0.5966,noRew,,,,,,0,8,0,8,0,1,,,,,,,,,,,,,,,,,
293143,2022-09-23_09h23.14.917,vts_reward_expectancy,2022.2.4,Win32,180.3101334,Chrome,1920,1080,,,,,0,774,,,,,,,,,,,,,,,,,F,174,triangle,1,0,,,,,,,,,,,,,,,,switch,number,numSwt,k,0.5345,noRew,,,,,,0,9,0,9,0,1,,,,,,,,,,,,,,,,,
293143,2022-09-23_09h23.14.917,vts_reward_expectancy,2022.2.4,Win32,180.3101334,Chrome,1920,1080,,,,,0,774,,,,,,,,,,,,,,,,,U,181,triangle,1,0,,,,,,,,,,,,,,,,repeat,number,numRpt,k,0.6274,noRew,,,,,,0,10,0,10,0,1,,,,,,,,,,,,,,,,,
293143,2022-09-23_09h23.14.917,vts_reward_expectancy,2022.2.4,Win32,180.3101334,Chrome,1920,1080,,,,,0,774,,,,,,,,,,,,,,,,,Y,146,hexagon,1,0,,,,,,,,,,,,,,,,repeat,number,numRpt,j,0.8218,noRew,,,,,,0,11,0,11,0,1,,,,,,,,,,,,,,,,,
293143,2022-09-23_09h23.14.917,vts_reward_expectancy,2022.2.4,Win32,180.3101334,Chrome,1920,1080,,,,,0,774,,,,,,,,,,,,,,,,,D,146,circle,1,0,,,,,,,,,,,,,,,,repeat,number,numRpt,j,0.5566,noRew,,,,,,0,12,0,12,0,1,,,,,,,,,,,,,,,,,
293143,2022-09-23_09h23.14.917,vts_reward_expectancy,2022.2.4,Win32,180.3101334,Chrome,1920,1080,,,,,0,774,,,,,,,,,,,,,,,,,H,125,star,1,0,,,,,,,,,,,,,,,,repeat,number,numRpt,j,1.5684,noRew,,,,,,0,13,0,13,0,1,,,,,,,,,,,,,,,,,
293143,2022-09-23_09h23.14.917,vts_reward_expectancy,2022.2.4,Win32,180.3101334,Chrome,1920,1080,,,,,0,774,,,,,,,,,,,,,,,,,U,160,star,1,0,,,,,,,,,,,,,,,,switch,letter,lettSwt,f,0.6234,noRew,,,,,,0,14,0,14,0,1,,,,,,,,,,,,,,,,,
293143,2022-09-23_09h23.14.917,vts_reward_expectancy,2022.2.4,Win32,180.3101334,Chrome,1920,1080,,,,,0,774,,,,,,,,,,,,,,,,,Y,181,circle,1,0,,,,,,,,,,,,,,,,repeat,letter,lettRpt,f,0.5613,noRew,,,,,,0,15,0,15,0,1,,,,,,,,,,,,,,,,,
293143,2022-09-23_09h23.14.917,vts_reward_expectancy,2022.2.4,Win32,180.3101334,Chrome,1920,1080,,,,,0,774,,,,,,,,,,,,,,,,,H,167,hexagon,1,0,,,,,,,,,,,,,,,,repeat,letter,lettRpt,d,0.6774,noRew,,,,,,0,16,0,16,0,1,,,,,,,,,,,,,,,,,
293143,2022-09-23_09h23.14.917,vts_reward_expectancy,2022.2.4,Win32,180.3101334,Chrome,1920,1080,,,,,0,774,,,,,,,,,,,,,,,,,U,174,circle,1,0,,,,,,,,,,,,,,,,switch,number,numSwt,k,1.0097,noRew,,,,,,0,17,0,17,0,1,,,,,,,,,,,,,,,,,
293143,2022-09-23_09h23.14.917,vts_reward_expectancy,2022.2.4,Win32,180.3101334,Chrome,1920,1080,,,,,0,774,,,,,,,,,,,,,,,,,W,160,circle,1,0,,,,,,,,,,,,,,,,switch,letter,lettSwt,f,0.8691,noRew,,,,,,0,18,0,18,0,1,,,,,,,,,,,,,,,,,
293143,2022-09-23_09h23.14.917,vts_reward_expectancy,2022.2.4,Win32,180.3101334,Chrome,1920,1080,,,,,0,774,,,,,,,,,,,,,,,,,Y,139,hexagon,1,0,,,,,,,,,,,,,,,,repeat,letter,lettRpt,f,0.6147,noRew,,,,,,0,19,0,19,0,1,,,,,,,,,,,,,,,,,
293143,2022-09-23_09h23.14.917,vts_reward_expectancy,2022.2.4,Win32,180.3101334,Chrome,1920,1080,,,,,0,774,,,,,,,,,,,,,,,,,S,132,triangle,1,0,,,,,,,,,,,,,,,,switch,number,numSwt,j,0.4346,noRew,,,,,,0,20,0,20,0,1,,,,,,,,,,,,,,,,,
293143,2022-09-23_09h23.14.917,vts_reward_expectancy,2022.2.4,Win32,180.3101334,Chrome,1920,1080,,,,,0,774,,,,,,,,,,,,,,,,,W,167,star,1,0,,,,,,,,,,,,,,,,repeat,number,numRpt,k,1.0274,noRew,,,,,,0,21,0,21,0,1,,,,,,,,,,,,,,,,,
293143,2022-09-23_09h23.14.917,vts_reward_expectancy,2022.2.4,Win32,180.3101334,Chrome,1920,1080,,,,,0,774,,,,,,,,,,,,,,,,,H,160,star,1,0,,,,,,,,,,,,,,,,repeat,number,numRpt,k,1.8771,noRew,,,,,,0,22,0,22,0,1,,,,,,,,,,,,,,,,,
293143,2022-09-23_09h23.14.917,vts_reward_expectancy,2022.2.4,Win32,180.3101334,Chrome,1920,1080,,,,,0,774,,,,,,,,,,,,,,,,,D,181,hexagon,1,0,,,,,,,,,,,,,,,,switch,letter,lettSwt,d,0.739,noRew,,,,,,0,23,0,23,0,1,,,,,,,,,,,,,,,,,
293143,2022-09-23_09h23.14.917,vts_reward_expectancy,2022.2.4,Win32,180.3101334,Chrome,1920,1080,,,,,0,774,,,,,,,,,,,,,,,,,W,167,circle,1,0,,,,,,,,,,,,,,,,repeat,letter,lettRpt,f,0.4431,noRew,,,,,,0,24,0,24,0,1,,,,,,,,,,,,,,,,,
293143,2022-09-23_09h23.14.917,vts_reward_expectancy,2022.2.4,Win32,180.3101334,Chrome,1920,1080,,,,,0,774,,,,,,,,,,,,,,,,,Y,146,hexagon,1,0,,,,,,,,,,,,,,,,repeat,letter,lettRpt,f,0.5915,noRew,,,,,,0,25,0,25,0,1,,,,,,,,,,,,,,,,,
293143,2022-09-23_09h23.14.917,vts_reward_expectancy,2022.2.4,Win32,180.3101334,Chrome,1920,1080,,,,,0,774,,,,,,,,,,,,,,,,,U,139,hexagon,1,0,,,,,,,,,,,,,,,,repeat,letter,lettRpt,f,0.5112,noRew,,,,,,0,26,0,26,0,1,,,,,,,,,,,,,,,,,
293143,2022-09-23_09h23.14.917,vts_reward_expectancy,2022.2.4,Win32,180.3101334,Chrome,1920,1080,,,,,0,774,,,,,,,,,,,,,,,,,F,160,circle,1,0,,,,,,,,,,,,,,,,switch,number,numSwt,k,0.729,noRew,,,,,,0,27,0,27,0,1,,,,,,,,,,,,,,,,,
293143,2022-09-23_09h23.14.917,vts_reward_expectancy,2022.2.4,Win32,180.3101334,Chrome,1920,1080,,,,,0,774,,,,,,,,,,,,,,,,,F,125,star,1,0,,,,,,,,,,,,,,,,repeat,number,numRpt,j,0.722,noRew,,,,,,0,28,0,28,0,1,,,,,,,,,,,,,,,,,
293143,2022-09-23_09h23.14.917,vts_reward_expectancy,2022.2.4,Win32,180.3101334,Chrome,1920,1080,,,,,0,774,,,,,,,,,,,,,,,,,S,160,hexagon,1,0,,,,,,,,,,,,,,,,repeat,number,numRpt,k,1.278,noRew,,,,,,0,29,0,29,0,1,,,,,,,,,,,,,,,,,
293143,2022-09-23_09h23.14.917,vts_reward_expectancy,2022.2.4,Win32,180.3101334,Chrome,1920,1080,,,,,0,774,,,,,,,,,,,,,,,,,B,139,circle,1,0,,,,,,,,,,,,,,,,repeat,number,numRpt,j,1.2119,noRew,,,,,,0,30,0,30,0,1,,,,,,,,,,,,,,,,,
293143,2022-09-23_09h23.14.917,vts_reward_expectancy,2022.2.4,Win32,180.3101334,Chrome,1920,1080,,,,,0,774,,,,,,,,,,,,,,,,,W,167,hexagon,1,0,,,,,,,,,,,,,,,,switch,letter,lettSwt,f,0.5231,noRew,,,,,,0,31,0,31,0,1,,,,,,,,,,,,,,,,,
293143,2022-09-23_09h23.14.917,vts_reward_expectancy,2022.2.4,Win32,180.3101334,Chrome,1920,1080,,,,,0,774,,,,,,,,,,,,,,,,,Y,125,triangle,1,0,,,,,,,,,,,,,,,,repeat,letter,lettRpt,f,1.117,noRew,,,,,,0,32,0,32,0,1,,,,,,,,,,,,,,,,,
293143,2022-09-23_09h23.14.917,vts_reward_expectancy,2022.2.4,Win32,180.3101334,Chrome,1920,1080,,,,,0,774,,,,,,,,,,,,,,,,,U,132,star,1,0,,,,,,,,,,,,,,,,repeat,letter,lettRpt,f,0.6179,noRew,,,,,,0,33,0,33,0,1,,,,,,,,,,,,,,,,,
293143,2022-09-23_09h23.14.917,vts_reward_expectancy,2022.2.4,Win32,180.3101334,Chrome,1920,1080,,,,,0,774,,,,,,,,,,,,,,,,,S,181,triangle,1,0,,,,,,,,,,,,,,,,switch,number,numSwt,k,0.4905,noRew,,,,,,0,34,0,34,0,1,,,,,,,,,,,,,,,,,
293143,2022-09-23_09h23.14.917,vts_reward_expectancy,2022.2.4,Win32,180.3101334,Chrome,1920,1080,,,,,0,774,,,,,,,,,,,,,,,,,D,160,hexagon,1,0,,,,,,,,,,,,,,,,switch,letter,lettSwt,d,0.7635,noRew,,,,,,0,35,0,35,0,1,,,,,,,,,,,,,,,,,
293143,2022-09-23_09h23.14.917,vts_reward_expectancy,2022.2.4,Win32,180.3101334,Chrome,1920,1080,,,,,0,774,,,,,,,,,,,,,,,,,F,167,circle,0,0,,,,,,,,,,,,,,,,repeat,letter,NA,f,1.1279,noRew,,,,,,0,36,0,36,0,1,,,,,,,,,,,,,,,,,
293143,2022-09-23_09h23.14.917,vts_reward_expectancy,2022.2.4,Win32,180.3101334,Chrome,1920,1080,,,,,0,774,,,,,,,,,,,,,,,,,U,181,hexagon,1,1,,,,,,,,,,,,,,,,repeat,letter,lettRpt,f,0.8901,noRew,,,,,,0,37,0,37,0,1,,,,,,,,,,,,,,,,,
293143,2022-09-23_09h23.14.917,vts_reward_expectancy,2022.2.4,Win32,180.3101334,Chrome,1920,1080,,,,,0,774,,,,,,,,,,,,,,,,,W,146,star,1,0,,,,,,,,,,,,,,,,repeat,letter,lettRpt,f,1.4329,noRew,,,,,,0,38,0,38,0,1,,,,,,,,,,,,,,,,,
293143,2022-09-23_09h23.14.917,vts_reward_expectancy,2022.2.4,Win32,180.3101334,Chrome,1920,1080,,,,,0,774,,,,,,,,,,,,,,,,,Y,125,triangle,1,0,,,,,,,,,,,,,,,,repeat,letter,lettRpt,f,1.0429,noRew,,,,,,0,39,0,39,0,1,,,,,,,,,,,,,,,,,
293143,2022-09-23_09h23.14.917,vts_reward_expectancy,2022.2.4,Win32,180.3101334,Chrome,1920,1080,,,,,0,774,,,,,,,,,,,,,,,,,H,132,hexagon,1,0,,,,,,,,,,,,,,,,repeat,letter,lettRpt,d,1.1621,noRew,,,,,,0,40,0,40,0,1,,,,,,,,,,,,,,,,,
293143,2022-09-23_09h23.14.917,vts_reward_expectancy,2022.2.4,Win32,180.3101334,Chrome,1920,1080,,,,,0,774,,,,,,,,,,,,,,,,,S,125,star,1,0,,,,,,,,,,,,,,,,switch,number,numSwt,j,0.5689,noRew,,,,,,0,41,0,41,0,1,,,,,,,,,,,,,,,,,
293143,2022-09-23_09h23.14.917,vts_reward_expectancy,2022.2.4,Win32,180.3101334,Chrome,1920,1080,,,,,0,774,,,,,,,,,,,,,,,,,Y,181,hexagon,1,0,,,,,,,,,,,,,,,,repeat,number,numRpt,k,0.5165,noRew,,,,,,0,42,0,42,0,1,,,,,,,,,,,,,,,,,
293143,2022-09-23_09h23.14.917,vts_reward_expectancy,2022.2.4,Win32,180.3101334,Chrome,1920,1080,,,,,0,774,,,,,,,,,,,,,,,,,F,174,circle,1,0,,,,,,,,,,,,,,,,repeat,number,numRpt,k,0.6841,noRew,,,,,,0,43,0,43,0,1,,,,,,,,,,,,,,,,,
293143,2022-09-23_09h23.14.917,vts_reward_expectancy,2022.2.4,Win32,180.3101334,Chrome,1920,1080,,,,,0,774,,,,,,,,,,,,,,,,,D,132,circle,1,0,,,,,,,,,,,,,,,,switch,letter,lettSwt,d,0.7513,noRew,,,,,,0,44,0,44,0,1,,,,,,,,,,,,,,,,,
293143,2022-09-23_09h23.14.917,vts_reward_expectancy,2022.2.4,Win32,180.3101334,Chrome,1920,1080,,,,,0,774,,,,,,,,,,,,,,,,,W,174,hexagon,1,0,,,,,,,,,,,,,,,,switch,number,numSwt,k,0.6843,noRew,,,,,,0,45,0,45,0,1,,,,,,,,,,,,,,,,,
293143,2022-09-23_09h23.14.917,vts_reward_expectancy,2022.2.4,Win32,180.3101334,Chrome,1920,1080,,,,,0,774,,,,,,,,,,,,,,,,,H,125,star,1,0,,,,,,,,,,,,,,,,repeat,number,numRpt,j,1.8622,noRew,,,,,,0,46,0,46,0,1,,,,,,,,,,,,,,,,,
293143,2022-09-23_09h23.14.917,vts_reward_expectancy,2022.2.4,Win32,180.3101334,Chrome,1920,1080,,,,,0,774,,,,,,,,,,,,,,,,,Y,160,hexagon,1,0,,,,,,,,,,,,,,,,repeat,number,numRpt,k,0.6083,noRew,,,,,,0,47,0,47,0,1,,,,,,,,,,,,,,,,,
293143,2022-09-23_09h23.14.917,vts_reward_expectancy,2022.2.4,Win32,180.3101334,Chrome,1920,1080,,,,,0,774,,,,,,,,,,,,,,,,,F,146,circle,1,0,,,,,,,,,,,,,,,,repeat,number,numRpt,j,0.5626,noRew,,,,,,0,48,0,48,0,1,,,,,,,,,,,,,,,,,
293143,2022-09-23_09h23.14.917,vts_reward_expectancy,2022.2.4,Win32,180.3101334,Chrome,1920,1080,,,,,0,774,,,,,,,,,,,,,,,,,Y,160,triangle,1,0,,,,,,,,,,,,,,,,switch,letter,lettSwt,f,0.4972,noRew,,,,,,0,49,0,49,0,1,,,,,,,,,,,,,,,,,
293143,2022-09-23_09h23.14.917,vts_reward_expectancy,2022.2.4,Win32,180.3101334,Chrome,1920,1080,,,,,0,774,,,,,,,,,,,,,,,,,D,125,triangle,1,0,,,,,,,,,,,,,,,,repeat,letter,lettRpt,d,1.0789,noRew,,,,,,0,50,0,50,0,1,,,,,,,,,,,,,,,,,
293143,2022-09-23_09h23.14.917,vts_reward_expectancy,2022.2.4,Win32,180.3101334,Chrome,1920,1080,,,,,0,774,,,,,,,,,,,,,,,,,W,139,hexagon,1,0,,,,,,,,,,,,,,,,repeat,letter,lettRpt,f,0.9956,noRew,,,,,,0,51,0,51,0,1,,,,,,,,,,,,,,,,,
293143,2022-09-23_09h23.14.917,vts_reward_expectancy,2022.2.4,Win32,180.3101334,Chrome,1920,1080,,,,,0,774,,,,,,,,,,,,,,,,,Y,125,hexagon,1,0,,,,,,,,,,,,,,,,switch,number,numSwt,j,0.8594,noRew,,,,,,0,52,0,52,0,1,,,,,,,,,,,,,,,,,
293143,2022-09-23_09h23.14.917,vts_reward_expectancy,2022.2.4,Win32,180.3101334,Chrome,1920,1080,,,,,0,774,,,,,,,,,,,,,,,,,W,181,star,1,0,,,,,,,,,,,,,,,,repeat,number,numRpt,k,0.632,noRew,,,,,,0,53,0,53,0,1,,,,,,,,,,,,,,,,,
293143,2022-09-23_09h23.14.917,vts_reward_expectancy,2022.2.4,Win32,180.3101334,Chrome,1920,1080,,,,,0,774,,,,,,,,,,,,,,,,,U,146,triangle,1,0,,,,,,,,,,,,,,,,repeat,number,numRpt,j,0.9901,noRew,,,,,,0,54,0,54,0,1,,,,,,,,,,,,,,,,,
293143,2022-09-23_09h23.14.917,vts_reward_expectancy,2022.2.4,Win32,180.3101334,Chrome,1920,1080,,,,,0,774,,,,,,,,,,,,,,,,,F,167,hexagon,1,0,,,,,,,,,,,,,,,,repeat,number,numRpt,k,0.8384,noRew,,,,,,0,55,0,55,0,1,,,,,,,,,,,,,,,,,
293143,2022-09-23_09h23.14.917,vts_reward_expectancy,2022.2.4,Win32,180.3101334,Chrome,1920,1080,,,,,0,774,,,,,,,,,,,,,,,,,D,167,triangle,1,0,,,,,,,,,,,,,,,,repeat,number,numRpt,k,0.8126,noRew,,,,,,0,56,0,56,0,1,,,,,,,,,,,,,,,,,
293143,2022-09-23_09h23.14.917,vts_reward_expectancy,2022.2.4,Win32,180.3101334,Chrome,1920,1080,,,,,0,774,,,,,,,,,,,,,,,,,B,146,circle,1,0,,,,,,,,,,,,,,,,repeat,number,numRpt,j,0.8897,noRew,,,,,,0,57,0,57,0,1,,,,,,,,,,,,,,,,,
293143,2022-09-23_09h23.14.917,vts_reward_expectancy,2022.2.4,Win32,180.3101334,Chrome,1920,1080,,,,,0,774,,,,,,,,,,,,,,,,,Y,139,star,1,0,,,,,,,,,,,,,,,,repeat,number,numRpt,j,2.9332,noRew,,,,,,0,58,0,58,0,1,,,,,,,,,,,,,,,,,
293143,2022-09-23_09h23.14.917,vts_reward_expectancy,2022.2.4,Win32,180.3101334,Chrome,1920,1080,,,,,0,774,,,,,,,,,,,,,,,,,U,181,circle,1,0,,,,,,,,,,,,,,,,repeat,number,numRpt,k,0.7445,noRew,,,,,,0,59,0,59,0,1,,,,,,,,,,,,,,,,,
293143,2022-09-23_09h23.14.917,vts_reward_expectancy,2022.2.4,Win32,180.3101334,Chrome,1920,1080,,,,,0,774,,,,,,,,,,,,,,,,,S,181,triangle,1,0,,,,,,,,,,,,,,,,switch,letter,lettSwt,f,0.9601,noRew,,,,,,0,60,0,60,0,1,,,,,,,,,,,,,,,,,
293143,2022-09-23_09h23.14.917,vts_reward_expectancy,2022.2.4,Win32,180.3101334,Chrome,1920,1080,,,,,0,774,,,,,,,,,,,,,,,,,F,125,hexagon,1,0,,,,,,,,,,,,,,,,repeat,letter,lettRpt,d,2.2091,noRew,,,,,,0,61,0,61,0,1,,,,,,,,,,,,,,,,,
293143,2022-09-23_09h23.14.917,vts_reward_expectancy,2022.2.4,Win32,180.3101334,Chrome,1920,1080,,,,,0,774,,,,,,,,,,,,,,,,,B,132,circle,1,0,,,,,,,,,,,,,,,,repeat,letter,lettRpt,d,0.595,noRew,,,,,,0,62,0,62,0,1,,,,,,,,,,,,,,,,,
293143,2022-09-23_09h23.14.917,vts_reward_expectancy,2022.2.4,Win32,180.3101334,Chrome,1920,1080,,,,,0,774,,,,,,,,,,,,,,,,,H,160,hexagon,1,0,,,,,,,,,,,,,,,,switch,number,numSwt,k,0.8905,noRew,,,,,,0,63,0,63,0,1,,,,,,,,,,,,,,,,,
293143,2022-09-23_09h23.14.917,vts_reward_expectancy,2022.2.4,Win32,180.3101334,Chrome,1920,1080,,,,,,,,,,,,,,,,,,,,,,,,,,,,,,,,,,,,,,,,,,,,,,,,,,,,,,,,,,,,,,,,,,,,,,,,,,,,
293143,2022-09-23_09h23.14.917,vts_reward_expectancy,2022.2.4,Win32,180.3101334,Chrome,1920,1080,,,,,10,784,,,,,,,,,,,,,,,,,F,139,hexagon,1,0,,,,,,,,,,,,,,,,switch,letter,lettSwt,d,0.6103,Lo,,,,,,0,,,,,,space,7.2776,high,0,0,0,0,1,,,,,,,,,
293143,2022-09-23_09h23.14.917,vts_reward_expectancy,2022.2.4,Win32,180.3101334,Chrome,1920,1080,,,,,10,794,,,,,,,,,,,,,,,,,H,174,star,1,0,,,,,,,,,,,,,,,,repeat,letter,lettRpt,d,0.5116,Hi,,,,,,0,,,,,,,,high,1,0,1,0,1,,,,,,,,,
293143,2022-09-23_09h23.14.917,vts_reward_expectancy,2022.2.4,Win32,180.3101334,Chrome,1920,1080,,,,,1,795,,,,,,,,,,,,,,,,,U,167,hexagon,1,0,,,,,,,,,,,,,,,,repeat,letter,lettRpt,f,0.4438,Lo,,,,,,0,,,,,,,,high,2,0,2,0,1,,,,,,,,,
293143,2022-09-23_09h23.14.917,vts_reward_expectancy,2022.2.4,Win32,180.3101334,Chrome,1920,1080,,,,,10,805,,,,,,,,,,,,,,,,,S,125,star,1,0,,,,,,,,,,,,,,,,switch,number,numSwt,j,0.4153,Hi,,,,,,0,,,,,,,,high,3,0,3,0,1,,,,,,,,,
293143,2022-09-23_09h23.14.917,vts_reward_expectancy,2022.2.4,Win32,180.3101334,Chrome,1920,1080,,,,,1,806,,,,,,,,,,,,,,,,,W,132,hexagon,1,0,,,,,,,,,,,,,,,,repeat,number,numRpt,j,0.4478,Lo,,,,,,0,,,,,,,,high,4,0,4,0,1,,,,,,,,,
293143,2022-09-23_09h23.14.917,vts_reward_expectancy,2022.2.4,Win32,180.3101334,Chrome,1920,1080,,,,,10,816,,,,,,,,,,,,,,,,,D,160,star,1,0,,,,,,,,,,,,,,,,switch,letter,lettSwt,d,0.4613,Hi,,,,,,0,,,,,,,,high,5,0,5,0,1,,,,,,,,,
293143,2022-09-23_09h23.14.917,vts_reward_expectancy,2022.2.4,Win32,180.3101334,Chrome,1920,1080,,,,,1,817,,,,,,,,,,,,,,,,,Y,181,star,1,0,,,,,,,,,,,,,,,,switch,number,numSwt,k,0.5121,Hi,,,,,,0,,,,,,,,high,6,0,6,0,1,,,,,,,,,
293143,2022-09-23_09h23.14.917,vts_reward_expectancy,2022.2.4,Win32,180.3101334,Chrome,1920,1080,,,,,0,817,,,,,,,,,,,,,,,,,B,146,hexagon,0,0,,,,,,,,,,,,,,,,repeat,number,NA,k,0.4762,Hi,,,,,,0,,,,,,,,high,7,0,7,0,1,,,,,,,,,
293143,2022-09-23_09h23.14.917,vts_reward_expectancy,2022.2.4,Win32,180.3101334,Chrome,1920,1080,,,,,10,827,,,,,,,,,,,,,,,,,F,139,hexagon,1,1,,,,,,,,,,,,,,,,repeat,number,numRpt,j,0.5897,Lo,,,,,,0,,,,,,,,high,8,0,8,0,1,,,,,,,,,
293143,2022-09-23_09h23.14.917,vts_reward_expectancy,2022.2.4,Win32,180.3101334,Chrome,1920,1080,,,,,10,837,,,,,,,,,,,,,,,,,H,174,star,1,0,,,,,,,,,,,,,,,,repeat,number,numRpt,k,0.4834,Hi,,,,,,0,,,,,,,,high,9,0,9,0,1,,,,,,,,,
293143,2022-09-23_09h23.14.917,vts_reward_expectancy,2022.2.4,Win32,180.3101334,Chrome,1920,1080,,,,,1,838,,,,,,,,,,,,,,,,,U,167,hexagon,1,0,,,,,,,,,,,,,,,,switch,letter,lettSwt,f,0.9615,Lo,,,,,,0,,,,,,,,high,10,0,10,0,1,,,,,,,,,
293143,2022-09-23_09h23.14.917,vts_reward_expectancy,2022.2.4,Win32,180.3101334,Chrome,1920,1080,,,,,0,838,,,,,,,,,,,,,,,,,S,125,star,0,0,,,,,,,,,,,,,,,,repeat,letter,NA,d,0.557,Lo,,,,,,0,,,,,,,,high,11,0,11,0,1,,,,,,,,,
293143,2022-09-23_09h23.14.917,vts_reward_expectancy,2022.2.4,Win32,180.3101334,Chrome,1920,1080,,,,,1,839,,,,,,,,,,,,,,,,,W,132,hexagon,1,1,,,,,,,,,,,,,,,,repeat,letter,lettRpt,f,0.8042,Lo,,,,,,0,,,,,,,,high,12,0,12,0,1,,,,,,,,,
293143,2022-09-23_09h23.14.917,vts_reward_expectancy,2022.2.4,Win32,180.3101334,Chrome,1920,1080,,,,,0,839,,,,,,,,,,,,,,,,,D,160,star,1,0,,,,,,,,,,,,,,,,repeat,letter,lettRpt,d,0.7128,Hi,,,,,,0,,,,,,,,high,13,0,13,0,1,,,,,,,,,
293143,2022-09-23_09h23.14.917,vts_reward_expectancy,2022.2.4,Win32,180.3101334,Chrome,1920,1080,,,,,1,840,,,,,,,,,,,,,,,,,Y,181,hexagon,1,0,,,,,,,,,,,,,,,,switch,number,numSwt,k,0.5954,Lo,,,,,,0,,,,,,,,high,14,0,14,0,1,,,,,,,,,
293143,2022-09-23_09h23.14.917,vts_reward_expectancy,2022.2.4,Win32,180.3101334,Chrome,1920,1080,,,,,10,850,,,,,,,,,,,,,,,,,B,146,star,1,0,,,,,,,,,,,,,,,,repeat,number,numRpt,j,0.3452,Hi,,,,,,0,,,,,,,,high,15,0,15,0,1,,,,,,,,,
293143,2022-09-23_09h23.14.917,vts_reward_expectancy,2022.2.4,Win32,180.3101334,Chrome,1920,1080,,,,,1,851,,,,,,,,,,,,,,,,,F,160,star,1,0,,,,,,,,,,,,,,,,repeat,number,numRpt,k,0.4673,Hi,,,,,,0,,,,,,,,high,16,0,16,0,1,,,,,,,,,
293143,2022-09-23_09h23.14.917,vts_reward_expectancy,2022.2.4,Win32,180.3101334,Chrome,1920,1080,,,,,1,852,,,,,,,,,,,,,,,,,D,181,hexagon,1,0,,,,,,,,,,,,,,,,repeat,number,numRpt,k,0.3724,Lo,,,,,,0,,,,,,,,high,17,0,17,0,1,,,,,,,,,
293143,2022-09-23_09h23.14.917,vts_reward_expectancy,2022.2.4,Win32,180.3101334,Chrome,1920,1080,,,,,0,852,,,,,,,,,,,,,,,,,W,146,star,1,0,,,,,,,,,,,,,,,,switch,letter,lettSwt,f,0.7952,Hi,,,,,,0,,,,,,,,high,18,0,18,0,1,,,,,,,,,
293143,2022-09-23_09h23.14.917,vts_reward_expectancy,2022.2.4,Win32,180.3101334,Chrome,1920,1080,,,,,1,853,,,,,,,,,,,,,,,,,B,167,hexagon,1,0,,,,,,,,,,,,,,,,repeat,letter,lettRpt,d,0.4735,Lo,,,,,,0,,,,,,,,high,19,0,19,0,1,,,,,,,,,
293143,2022-09-23_09h23.14.917,vts_reward_expectancy,2022.2.4,Win32,180.3101334,Chrome,1920,1080,,,,,0,853,,,,,,,,,,,,,,,,,Y,139,star,1,0,,,,,,,,,,,,,,,,repeat,letter,lettRpt,f,0.7777,Hi,,,,,,0,,,,,,,,high,20,0,20,0,1,,,,,,,,,
293143,2022-09-23_09h23.14.917,vts_reward_expectancy,2022.2.4,Win32,180.3101334,Chrome,1920,1080,,,,,0,853,,,,,,,,,,,,,,,,,S,174,hexagon,0,0,,,,,,,,,,,,,,,,repeat,letter,NA,d,0.3501,Hi,,,,,,0,,,,,,,,high,21,0,21,0,1,,,,,,,,,
293143,2022-09-23_09h23.14.917,vts_reward_expectancy,2022.2.4,Win32,180.3101334,Chrome,1920,1080,,,,,0,853,,,,,,,,,,,,,,,,,H,132,hexagon,0,1,,,,,,,,,,,,,,,,repeat,letter,NA,f,0.7121,Hi,,,,,,0,,,,,,,,high,22,0,22,0,1,,,,,,,,,
293143,2022-09-23_09h23.14.917,vts_reward_expectancy,2022.2.4,Win32,180.3101334,Chrome,1920,1080,,,,,1,854,,,,,,,,,,,,,,,,,U,125,star,1,1,,,,,,,,,,,,,,,,switch,number,numSwt,j,0.5167,Hi,,,,,,0,,,,,,,,high,23,0,23,0,1,,,,,,,,,
293143,2022-09-23_09h23.14.917,vts_reward_expectancy,2022.2.4,Win32,180.3101334,Chrome,1920,1080,,,,,1,855,,,,,,,,,,,,,,,,,B,125,hexagon,1,0,,,,,,,,,,,,,,,,repeat,number,numRpt,j,0.5507,Lo,,,,,,0,,,,,,,,high,24,0,24,0,1,,,,,,,,,
293143,2022-09-23_09h23.14.917,vts_reward_expectancy,2022.2.4,Win32,180.3101334,Chrome,1920,1080,,,,,10,865,,,,,,,,,,,,,,,,,H,174,star,1,0,,,,,,,,,,,,,,,,repeat,number,numRpt,k,0.3479,Hi,,,,,,0,,,,,,,,high,25,0,25,0,1,,,,,,,,,
293143,2022-09-23_09h23.14.917,vts_reward_expectancy,2022.2.4,Win32,180.3101334,Chrome,1920,1080,,,,,1,866,,,,,,,,,,,,,,,,,W,132,hexagon,1,0,,,,,,,,,,,,,,,,repeat,number,numRpt,j,0.5054,Lo,,,,,,0,,,,,,,,high,26,0,26,0,1,,,,,,,,,
293143,2022-09-23_09h23.14.917,vts_reward_expectancy,2022.2.4,Win32,180.3101334,Chrome,1920,1080,,,,,10,876,,,,,,,,,,,,,,,,,D,146,star,1,0,,,,,,,,,,,,,,,,switch,letter,lettSwt,d,0.5564,Hi,,,,,,0,,,,,,,,high,27,0,27,0,1,,,,,,,,,
293143,2022-09-23_09h23.14.917,vts_reward_expectancy,2022.2.4,Win32,180.3101334,Chrome,1920,1080,,,,,10,886,,,,,,,,,,,,,,,,,S,160,star,1,0,,,,,,,,,,,,,,,,repeat,letter,lettRpt,f,0.529,Hi,,,,,,0,,,,,,,,high,28,0,28,0,1,,,,,,,,,
293143,2022-09-23_09h23.14.917,vts_reward_expectancy,2022.2.4,Win32,180.3101334,Chrome,1920,1080,,,,,1,887,,,,,,,,,,,,,,,,,Y,167,hexagon,1,0,,,,,,,,,,,,,,,,repeat,letter,lettRpt,f,0.4887,Lo,,,,,,0,,,,,,,,high,29,0,29,0,1,,,,,,,,,
293143,2022-09-23_09h23.14.917,vts_reward_expectancy,2022.2.4,Win32,180.3101334,Chrome,1920,1080,,,,,1,888,,,,,,,,,,,,,,,,,U,181,hexagon,1,0,,,,,,,,,,,,,,,,switch,number,numSwt,k,0.4346,Lo,,,,,,0,,,,,,,,high,30,0,30,0,1,,,,,,,,,
293143,2022-09-23_09h23.14.917,vts_reward_expectancy,2022.2.4,Win32,180.3101334,Chrome,1920,1080,,,,,10,898,,,,,,,,,,,,,,,,,F,139,star,1,0,,,,,,,,,,,,,,,,repeat,number,numRpt,j,0.392,Hi,,,,,,0,,,,,,,,high,31,0,31,0,1,,,,,,,,,
293143,2022-09-23_09h23.14.917,vts_reward_expectancy,2022.2.4,Win32,180.3101334,Chrome,1920,1080,,,,,0,898,,,,,,,,,,,,,,,,,Y,132,star,1,0,,,,,,,,,,,,,,,,repeat,number,numRpt,j,0.5346,Hi,,,,,,1,,,,,,space,1.9097,high,0,0,0,0,1,,,,,,,,,
293143,2022-09-23_09h23.14.917,vts_reward_expectancy,2022.2.4,Win32,180.3101334,Chrome,1920,1080,,,,,1,899,,,,,,,,,,,,,,,,,D,167,hexagon,1,0,,,,,,,,,,,,,,,,repeat,number,numRpt,k,0.3842,Lo,,,,,,1,,,,,,,,high,1,0,1,0,1,,,,,,,,,
293143,2022-09-23_09h23.14.917,vts_reward_expectancy,2022.2.4,Win32,180.3101334,Chrome,1920,1080,,,,,10,909,,,,,,,,,,,,,,,,,S,174,star,1,0,,,,,,,,,,,,,,,,repeat,number,numRpt,k,0.3489,Hi,,,,,,1,,,,,,,,high,2,0,2,0,1,,,,,,,,,
293143,2022-09-23_09h23.14.917,vts_reward_expectancy,2022.2.4,Win32,180.3101334,Chrome,1920,1080,,,,,1,910,,,,,,,,,,,,,,,,,U,139,hexagon,1,0,,,,,,,,,,,,,,,,repeat,number,numRpt,j,0.3234,Lo,,,,,,1,,,,,,,,high,3,0,3,0,1,,,,,,,,,
293143,2022-09-23_09h23.14.917,vts_reward_expectancy,2022.2.4,Win32,180.3101334,Chrome,1920,1080,,,,,0,910,,,,,,,,,,,,,,,,,F,160,star,0,0,,,,,,,,,,,,,,,,switch,letter,NA,f,0.4302,Lo,,,,,,1,,,,,,,,high,4,0,4,0,1,,,,,,,,,
293143,2022-09-23_09h23.14.917,vts_reward_expectancy,2022.2.4,Win32,180.3101334,Chrome,1920,1080,,,,,10,920,,,,,,,,,,,,,,,,,W,125,hexagon,1,1,,,,,,,,,,,,,,,,repeat,letter,lettRpt,f,0.5133,Lo,,,,,,1,,,,,,,,high,5,0,5,0,1,,,,,,,,,
293143,2022-09-23_09h23.14.917,vts_reward_expectancy,2022.2.4,Win32,180.3101334,Chrome,1920,1080,,,,,10,930,,,,,,,,,,,,,,,,,H,181,star,1,0,,,,,,,,,,,,,,,,switch,number,numSwt,k,0.4111,Hi,,,,,,1,,,,,,,,high,6,0,6,0,1,,,,,,,,,
293143,2022-09-23_09h23.14.917,vts_reward_expectancy,2022.2.4,Win32,180.3101334,Chrome,1920,1080,,,,,10,940,,,,,,,,,,,,,,,,,B,146,hexagon,1,0,,,,,,,,,,,,,,,,switch,letter,lettSwt,d,0.317,Lo,,,,,,1,,,,,,,,high,7,0,7,0,1,,,,,,,,,
293143,2022-09-23_09h23.14.917,vts_reward_expectancy,2022.2.4,Win32,180.3101334,Chrome,1920,1080,,,,,10,950,,,,,,,,,,,,,,,,,Y,132,hexagon,1,0,,,,,,,,,,,,,,,,repeat,letter,lettRpt,f,0.3721,Lo,,,,,,1,,,,,,,,high,8,0,8,0,1,,,,,,,,,
293143,2022-09-23_09h23.14.917,vts_reward_expectancy,2022.2.4,Win32,180.3101334,Chrome,1920,1080,,,,,10,960,,,,,,,,,,,,,,,,,D,167,star,1,0,,,,,,,,,,,,,,,,repeat,letter,lettRpt,d,0.317,Hi,,,,,,1,,,,,,,,high,9,0,9,0,1,,,,,,,,,
293143,2022-09-23_09h23.14.917,vts_reward_expectancy,2022.2.4,Win32,180.3101334,Chrome,1920,1080,,,,,10,970,,,,,,,,,,,,,,,,,S,174,star,1,0,,,,,,,,,,,,,,,,switch,number,numSwt,k,0.3577,Hi,,,,,,1,,,,,,,,high,10,0,10,0,1,,,,,,,,,
293143,2022-09-23_09h23.14.917,vts_reward_expectancy,2022.2.4,Win32,180.3101334,Chrome,1920,1080,,,,,1,971,,,,,,,,,,,,,,,,,U,139,hexagon,1,0,,,,,,,,,,,,,,,,repeat,number,numRpt,j,0.3771,Lo,,,,,,1,,,,,,,,high,11,0,11,0,1,,,,,,,,,
293143,2022-09-23_09h23.14.917,vts_reward_expectancy,2022.2.4,Win32,180.3101334,Chrome,1920,1080,,,,,10,981,,,,,,,,,,,,,,,,,F,160,star,1,0,,,,,,,,,,,,,,,,repeat,number,numRpt,k,0.3678,Hi,,,,,,1,,,,,,,,high,12,0,12,0,1,,,,,,,,,
293143,2022-09-23_09h23.14.917,vts_reward_expectancy,2022.2.4,Win32,180.3101334,Chrome,1920,1080,,,,,10,991,,,,,,,,,,,,,,,,,W,125,hexagon,1,0,,,,,,,,,,,,,,,,repeat,number,numRpt,j,0.4733,Lo,,,,,,1,,,,,,,,high,13,0,13,0,1,,,,,,,,,
293143,2022-09-23_09h23.14.917,vts_reward_expectancy,2022.2.4,Win32,180.3101334,Chrome,1920,1080,,,,,10,1001,,,,,,,,,,,,,,,,,H,181,star,1,0,,,,,,,,,,,,,,,,switch,letter,lettSwt,d,0.433,Hi,,,,,,1,,,,,,,,high,14,0,14,0,1,,,,,,,,,
293143,2022-09-23_09h23.14.917,vts_reward_expectancy,2022.2.4,Win32,180.3101334,Chrome,1920,1080,,,,,1,1002,,,,,,,,,,,,,,,,,B,146,hexagon,1,0,,,,,,,,,,,,,,,,repeat,letter,lettRpt,d,0.4667,Lo,,,,,,1,,,,,,,,high,15,0,15,0,1,,,,,,,,,
293143,2022-09-23_09h23.14.917,vts_reward_expectancy,2022.2.4,Win32,180.3101334,Chrome,1920,1080,,,,,1,1003,,,,,,,,,,,,,,,,,H,174,hexagon,1,0,,,,,,,,,,,,,,,,switch,number,numSwt,k,0.4709,Lo,,,,,,1,,,,,,,,high,16,0,16,0,1,,,,,,,,,
293143,2022-09-23_09h23.14.917,vts_reward_expectancy,2022.2.4,Win32,180.3101334,Chrome,1920,1080,,,,,1,1004,,,,,,,,,,,,,,,,,D,125,star,1,0,,,,,,,,,,,,,,,,repeat,number,numRpt,j,0.3311,Hi,,,,,,1,,,,,,,,high,17,0,17,0,1,,,,,,,,,
293143,2022-09-23_09h23.14.917,vts_reward_expectancy,2022.2.4,Win32,180.3101334,Chrome,1920,1080,,,,,1,1005,,,,,,,,,,,,,,,,,S,181,hexagon,1,0,,,,,,,,,,,,,,,,repeat,number,numRpt,k,0.4385,Lo,,,,,,1,,,,,,,,high,18,0,18,0,1,,,,,,,,,
293143,2022-09-23_09h23.14.917,vts_reward_expectancy,2022.2.4,Win32,180.3101334,Chrome,1920,1080,,,,,1,1006,,,,,,,,,,,,,,,,,U,139,star,1,0,,,,,,,,,,,,,,,,switch,letter,lettSwt,f,0.3898,Hi,,,,,,1,,,,,,,,high,19,0,19,0,1,,,,,,,,,
293143,2022-09-23_09h23.14.917,vts_reward_expectancy,2022.2.4,Win32,180.3101334,Chrome,1920,1080,,,,,1,1007,,,,,,,,,,,,,,,,,W,160,hexagon,1,0,,,,,,,,,,,,,,,,repeat,letter,lettRpt,f,0.4908,Lo,,,,,,1,,,,,,,,high,20,0,20,0,1,,,,,,,,,
293143,2022-09-23_09h23.14.917,vts_reward_expectancy,2022.2.4,Win32,180.3101334,Chrome,1920,1080,,,,,0,1007,,,,,,,,,,,,,,,,,B,146,star,1,0,,,,,,,,,,,,,,,,switch,number,numSwt,j,0.6283,Hi,,,,,,1,,,,,,,,high,21,0,21,0,1,,,,,,,,,
293143,2022-09-23_09h23.14.917,vts_reward_expectancy,2022.2.4,Win32,180.3101334,Chrome,1920,1080,,,,,1,1008,,,,,,,,,,,,,,,,,F,167,hexagon,1,0,,,,,,,,,,,,,,,,repeat,number,numRpt,k,0.4231,Lo,,,,,,1,,,,,,,,high,22,0,22,0,1,,,,,,,,,
293143,2022-09-23_09h23.14.917,vts_reward_expectancy,2022.2.4,Win32,180.3101334,Chrome,1920,1080,,,,,0,1008,,,,,,,,,,,,,,,,,Y,132,star,1,0,,,,,,,,,,,,,,,,repeat,number,numRpt,j,0.55,Hi,,,,,,1,,,,,,,,high,23,0,23,0,1,,,,,,,,,
293143,2022-09-23_09h23.14.917,vts_reward_expectancy,2022.2.4,Win32,180.3101334,Chrome,1920,1080,,,,,10,1018,,,,,,,,,,,,,,,,,U,160,star,1,0,,,,,,,,,,,,,,,,repeat,number,numRpt,k,0.3114,Hi,,,,,,1,,,,,,,,high,24,0,24,0,1,,,,,,,,,
293143,2022-09-23_09h23.14.917,vts_reward_expectancy,2022.2.4,Win32,180.3101334,Chrome,1920,1080,,,,,0,1018,,,,,,,,,,,,,,,,,H,139,hexagon,0,0,,,,,,,,,,,,,,,,repeat,number,NA,k,0.3459,Hi,,,,,,1,,,,,,,,high,25,0,25,0,1,,,,,,,,,
293143,2022-09-23_09h23.14.917,vts_reward_expectancy,2022.2.4,Win32,180.3101334,Chrome,1920,1080,,,,,10,1028,,,,,,,,,,,,,,,,,B,167,hexagon,1,1,,,,,,,,,,,,,,,,repeat,number,numRpt,k,0.6452,Lo,,,,,,1,,,,,,,,high,26,0,26,0,1,,,,,,,,,
293143,2022-09-23_09h23.14.917,vts_reward_expectancy,2022.2.4,Win32,180.3101334,Chrome,1920,1080,,,,,0,1028,,,,,,,,,,,,,,,,,W,146,star,1,0,,,,,,,,,,,,,,,,repeat,number,numRpt,j,0.5245,Hi,,,,,,1,,,,,,,,high,27,0,27,0,1,,,,,,,,,
293143,2022-09-23_09h23.14.917,vts_reward_expectancy,2022.2.4,Win32,180.3101334,Chrome,1920,1080,,,,,1,1029,,,,,,,,,,,,,,,,,D,132,star,1,0,,,,,,,,,,,,,,,,switch,letter,lettSwt,d,0.3787,Hi,,,,,,1,,,,,,,,high,28,0,28,0,1,,,,,,,,,
293143,2022-09-23_09h23.14.917,vts_reward_expectancy,2022.2.4,Win32,180.3101334,Chrome,1920,1080,,,,,0,1029,,,,,,,,,,,,,,,,,Y,174,hexagon,0,0,,,,,,,,,,,,,,,,repeat,letter,NA,d,0.4898,Hi,,,,,,1,,,,,,,,high,29,0,29,0,1,,,,,,,,,
293143,2022-09-23_09h23.14.917,vts_reward_expectancy,2022.2.4,Win32,180.3101334,Chrome,1920,1080,,,,,1,1030,,,,,,,,,,,,,,,,,S,125,hexagon,1,1,,,,,,,,,,,,,,,,repeat,letter,lettRpt,f,0.3509,Lo,,,,,,1,,,,,,,,high,30,0,30,0,1,,,,,,,,,
293143,2022-09-23_09h23.14.917,vts_reward_expectancy,2022.2.4,Win32,180.3101334,Chrome,1920,1080,,,,,1,1031,,,,,,,,,,,,,,,,,F,181,star,1,0,,,,,,,,,,,,,,,,switch,number,numSwt,k,0.2996,Hi,,,,,,1,,,,,,,,high,31,0,31,0,1,,,,,,,,,
293143,2022-09-23_09h23.14.917,vts_reward_expectancy,2022.2.4,Win32,180.3101334,Chrome,1920,1080,,,,,10,1041,,,,,,,,,,,,,,,,,U,132,triangle,1,0,,,,,,,,,,,,,,,,repeat,number,numRpt,j,0.3575,Lo,,,,,,2,,,,,,space,1.2773,low,0,0,0,0,1,,,,,,,,,
293143,2022-09-23_09h23.14.917,vts_reward_expectancy,2022.2.4,Win32,180.3101334,Chrome,1920,1080,,,,,10,1051,,,,,,,,,,,,,,,,,B,167,circle,1,0,,,,,,,,,,,,,,,,repeat,number,numRpt,k,0.369,Hi,,,,,,2,,,,,,,,low,1,0,1,0,1,,,,,,,,,
293143,2022-09-23_09h23.14.917,vts_reward_expectancy,2022.2.4,Win32,180.3101334,Chrome,1920,1080,,,,,10,1061,,,,,,,,,,,,,,,,,W,160,triangle,1,0,,,,,,,,,,,,,,,,switch,letter,lettSwt,f,0.3105,Lo,,,,,,2,,,,,,,,low,2,0,2,0,1,,,,,,,,,
293143,2022-09-23_09h23.14.917,vts_reward_expectancy,2022.2.4,Win32,180.3101334,Chrome,1920,1080,,,,,1,1062,,,,,,,,,,,,,,,,,D,174,circle,1,0,,,,,,,,,,,,,,,,repeat,letter,lettRpt,d,0.2571,Hi,,,,,,2,,,,,,,,low,3,0,3,0,1,,,,,,,,,
293143,2022-09-23_09h23.14.917,vts_reward_expectancy,2022.2.4,Win32,180.3101334,Chrome,1920,1080,,,,,1,1063,,,,,,,,,,,,,,,,,F,125,triangle,1,0,,,,,,,,,,,,,,,,switch,number,numSwt,j,0.3523,Lo,,,,,,2,,,,,,,,low,4,0,4,0,1,,,,,,,,,
293143,2022-09-23_09h23.14.917,vts_reward_expectancy,2022.2.4,Win32,180.3101334,Chrome,1920,1080,,,,,0,1063,,,,,,,,,,,,,,,,,Y,181,circle,1,0,,,,,,,,,,,,,,,,repeat,number,numRpt,k,0.3875,Hi,,,,,,2,,,,,,,,low,5,0,5,0,1,,,,,,,,,
293143,2022-09-23_09h23.14.917,vts_reward_expectancy,2022.2.4,Win32,180.3101334,Chrome,1920,1080,,,,,1,1064,,,,,,,,,,,,,,,,,S,139,triangle,1,0,,,,,,,,,,,,,,,,repeat,number,numRpt,j,0.3836,Lo,,,,,,2,,,,,,,,low,6,0,6,0,1,,,,,,,,,
293143,2022-09-23_09h23.14.917,vts_reward_expectancy,2022.2.4,Win32,180.3101334,Chrome,1920,1080,,,,,0,1064,,,,,,,,,,,,,,,,,H,146,circle,0,0,,,,,,,,,,,,,,,,switch,letter,NA,f,0.3676,Lo,,,,,,2,,,,,,,,low,7,0,7,0,1,,,,,,,,,
293143,2022-09-23_09h23.14.917,vts_reward_expectancy,2022.2.4,Win32,180.3101334,Chrome,1920,1080,,,,,0,1064,,,,,,,,,,,,,,,,,U,132,triangle,0,1,,,,,,,,,,,,,,,,repeat,letter,NA,d,0.4218,Lo,,,,,,2,,,,,,,,low,8,0,8,0,1,,,,,,,,,
293143,2022-09-23_09h23.14.917,vts_reward_expectancy,2022.2.4,Win32,180.3101334,Chrome,1920,1080,,,,,0,1064,,,,,,,,,,,,,,,,,B,167,circle,1,1,,,,,,,,,,,,,,,,repeat,letter,lettRpt,d,0.4771,Hi,,,,,,2,,,,,,,,low,9,0,9,0,1,,,,,,,,,
293143,2022-09-23_09h23.14.917,vts_reward_expectancy,2022.2.4,Win32,180.3101334,Chrome,1920,1080,,,,,0,1064,,,,,,,,,,,,,,,,,W,160,circle,1,0,,,,,,,,,,,,,,,,repeat,letter,lettRpt,f,0.4332,Hi,,,,,,2,,,,,,,,low,10,0,10,0,1,,,,,,,,,
293143,2022-09-23_09h23.14.917,vts_reward_expectancy,2022.2.4,Win32,180.3101334,Chrome,1920,1080,,,,,1,1065,,,,,,,,,,,,,,,,,D,174,triangle,1,0,,,,,,,,,,,,,,,,repeat,letter,lettRpt,d,0.4525,Lo,,,,,,2,,,,,,,,low,11,0,11,0,1,,,,,,,,,
293143,2022-09-23_09h23.14.917,vts_reward_expectancy,2022.2.4,Win32,180.3101334,Chrome,1920,1080,,,,,1,1066,,,,,,,,,,,,,,,,,F,125,triangle,1,0,,,,,,,,,,,,,,,,switch,number,numSwt,j,0.2893,Lo,,,,,,2,,,,,,,,low,12,0,12,0,1,,,,,,,,,
293143,2022-09-23_09h23.14.917,vts_reward_expectancy,2022.2.4,Win32,180.3101334,Chrome,1920,1080,,,,,0,1066,,,,,,,,,,,,,,,,,Y,181,circle,1,0,,,,,,,,,,,,,,,,repeat,number,numRpt,k,0.5118,Hi,,,,,,2,,,,,,,,low,13,0,13,0,1,,,,,,,,,
293143,2022-09-23_09h23.14.917,vts_reward_expectancy,2022.2.4,Win32,180.3101334,Chrome,1920,1080,,,,,10,1076,,,,,,,,,,,,,,,,,S,139,circle,1,0,,,,,,,,,,,,,,,,repeat,number,numRpt,j,0.3508,Hi,,,,,,2,,,,,,,,low,14,0,14,0,1,,,,,,,,,
293143,2022-09-23_09h23.14.917,vts_reward_expectancy,2022.2.4,Win32,180.3101334,Chrome,1920,1080,,,,,0,1076,,,,,,,,,,,,,,,,,H,146,triangle,0,0,,,,,,,,,,,,,,,,repeat,number,NA,k,0.3725,Hi,,,,,,2,,,,,,,,low,15,0,15,0,1,,,,,,,,,
293143,2022-09-23_09h23.14.917,vts_reward_expectancy,2022.2.4,Win32,180.3101334,Chrome,1920,1080,,,,,10,1086,,,,,,,,,,,,,,,,,Y,125,triangle,1,1,,,,,,,,,,,,,,,,repeat,number,numRpt,j,0.4051,Lo,,,,,,2,,,,,,,,low,16,0,16,0,1,,,,,,,,,
293143,2022-09-23_09h23.14.917,vts_reward_expectancy,2022.2.4,Win32,180.3101334,Chrome,1920,1080,,,,,0,1086,,,,,,,,,,,,,,,,,F,132,circle,1,0,,,,,,,,,,,,,,,,repeat,number,numRpt,j,0.4087,Hi,,,,,,2,,,,,,,,low,17,0,17,0,1,,,,,,,,,
293143,2022-09-23_09h23.14.917,vts_reward_expectancy,2022.2.4,Win32,180.3101334,Chrome,1920,1080,,,,,0,1086,,,,,,,,,,,,,,,,,S,160,circle,0,0,,,,,,,,,,,,,,,,repeat,number,NA,j,0.2594,Hi,,,,,,2,,,,,,,,low,18,0,18,0,1,,,,,,,,,
293143,2022-09-23_09h23.14.917,vts_reward_expectancy,2022.2.4,Win32,180.3101334,Chrome,1920,1080,,,,,1,1087,,,,,,,,,,,,,,,,,D,174,triangle,1,1,,,,,,,,,,,,,,,,repeat,number,numRpt,k,0.4514,Lo,,,,,,2,,,,,,,,low,19,0,19,0,1,,,,,,,,,
293143,2022-09-23_09h23.14.917,vts_reward_expectancy,2022.2.4,Win32,180.3101334,Chrome,1920,1080,,,,,1,1088,,,,,,,,,,,,,,,,,B,139,triangle,1,0,,,,,,,,,,,,,,,,repeat,number,numRpt,j,0.4153,Lo,,,,,,2,,,,,,,,low,20,0,20,0,1,,,,,,,,,
293143,2022-09-23_09h23.14.917,vts_reward_expectancy,2022.2.4,Win32,180.3101334,Chrome,1920,1080,,,,,0,1088,,,,,,,,,,,,,,,,,W,146,circle,1,0,,,,,,,,,,,,,,,,repeat,number,numRpt,j,0.5061,Hi,,,,,,2,,,,,,,,low,21,0,21,0,1,,,,,,,,,
293143,2022-09-23_09h23.14.917,vts_reward_expectancy,2022.2.4,Win32,180.3101334,Chrome,1920,1080,,,,,0,1088,,,,,,,,,,,,,,,,,U,167,circle,0,0,,,,,,,,,,,,,,,,repeat,number,NA,j,0.2679,Hi,,,,,,2,,,,,,,,low,22,0,22,0,1,,,,,,,,,
293143,2022-09-23_09h23.14.917,vts_reward_expectancy,2022.2.4,Win32,180.3101334,Chrome,1920,1080,,,,,1,1089,,,,,,,,,,,,,,,,,H,181,triangle,1,1,,,,,,,,,,,,,,,,repeat,number,numRpt,k,0.4178,Lo,,,,,,2,,,,,,,,low,23,0,23,0,1,,,,,,,,,
293143,2022-09-23_09h23.14.917,vts_reward_expectancy,2022.2.4,Win32,180.3101334,Chrome,1920,1080,,,,,10,1099,,,,,,,,,,,,,,,,,W,125,triangle,1,0,,,,,,,,,,,,,,,,repeat,number,numRpt,j,0.289,Lo,,,,,,2,,,,,,,,low,24,0,24,0,1,,,,,,,,,
293143,2022-09-23_09h23.14.917,vts_reward_expectancy,2022.2.4,Win32,180.3101334,Chrome,1920,1080,,,,,0,1099,,,,,,,,,,,,,,,,,F,146,circle,1,0,,,,,,,,,,,,,,,,repeat,number,numRpt,j,0.3718,Hi,,,,,,2,,,,,,,,low,25,0,25,0,1,,,,,,,,,
293143,2022-09-23_09h23.14.917,vts_reward_expectancy,2022.2.4,Win32,180.3101334,Chrome,1920,1080,,,,,1,1100,,,,,,,,,,,,,,,,,S,181,triangle,1,0,,,,,,,,,,,,,,,,repeat,number,numRpt,k,0.3722,Lo,,,,,,2,,,,,,,,low,26,0,26,0,1,,,,,,,,,
293143,2022-09-23_09h23.14.917,vts_reward_expectancy,2022.2.4,Win32,180.3101334,Chrome,1920,1080,,,,,0,1100,,,,,,,,,,,,,,,,,Y,174,circle,1,0,,,,,,,,,,,,,,,,repeat,number,numRpt,k,0.3799,Hi,,,,,,2,,,,,,,,low,27,0,27,0,1,,,,,,,,,
293143,2022-09-23_09h23.14.917,vts_reward_expectancy,2022.2.4,Win32,180.3101334,Chrome,1920,1080,,,,,0,1100,,,,,,,,,,,,,,,,,H,167,circle,1,0,,,,,,,,,,,,,,,,repeat,number,numRpt,k,0.4128,Hi,,,,,,2,,,,,,,,low,28,0,28,0,1,,,,,,,,,
293143,2022-09-23_09h23.14.917,vts_reward_expectancy,2022.2.4,Win32,180.3101334,Chrome,1920,1080,,,,,0,1100,,,,,,,,,,,,,,,,,U,132,triangle,0,0,,,,,,,,,,,,,,,,repeat,number,NA,k,0.2926,Hi,,,,,,2,,,,,,,,low,29,0,29,0,1,,,,,,,,,
293143,2022-09-23_09h23.14.917,vts_reward_expectancy,2022.2.4,Win32,180.3101334,Chrome,1920,1080,,,,,1,1101,,,,,,,,,,,,,,,,,B,139,circle,1,1,,,,,,,,,,,,,,,,repeat,number,numRpt,j,0.3176,Hi,,,,,,2,,,,,,,,low,30,0,30,0,1,,,,,,,,,
293143,2022-09-23_09h23.14.917,vts_reward_expectancy,2022.2.4,Win32,180.3101334,Chrome,1920,1080,,,,,0,1101,,,,,,,,,,,,,,,,,D,160,triangle,0,0,,,,,,,,,,,,,,,,repeat,number,NA,j,0.3507,Hi,,,,,,2,,,,,,,,low,31,0,31,0,1,,,,,,,,,
293143,2022-09-23_09h23.14.917,vts_reward_expectancy,2022.2.4,Win32,180.3101334,Chrome,1920,1080,,,,,1,1102,,,,,,,,,,,,,,,,,S,139,hexagon,1,1,,,,,,,,,,,,,,,,repeat,number,numRpt,j,0.3491,Lo,,,,,,3,,,,,,space,3.5336,high,0,0,0,0,1,,,,,,,,,
293143,2022-09-23_09h23.14.917,vts_reward_expectancy,2022.2.4,Win32,180.3101334,Chrome,1920,1080,,,,,10,1112,,,,,,,,,,,,,,,,,W,125,star,1,0,,,,,,,,,,,,,,,,repeat,number,numRpt,j,0.368,Hi,,,,,,3,,,,,,,,high,1,0,1,0,1,,,,,,,,,
293143,2022-09-23_09h23.14.917,vts_reward_expectancy,2022.2.4,Win32,180.3101334,Chrome,1920,1080,,,,,10,1122,,,,,,,,,,,,,,,,,F,181,hexagon,1,0,,,,,,,,,,,,,,,,repeat,number,numRpt,k,0.3468,Lo,,,,,,3,,,,,,,,high,2,0,2,0,1,,,,,,,,,
293143,2022-09-23_09h23.14.917,vts_reward_expectancy,2022.2.4,Win32,180.3101334,Chrome,1920,1080,,,,,0,1122,,,,,,,,,,,,,,,,,Y,167,star,1,0,,,,,,,,,,,,,,,,repeat,number,numRpt,k,0.4095,Hi,,,,,,3,,,,,,,,high,3,0,3,0,1,,,,,,,,,
293143,2022-09-23_09h23.14.917,vts_reward_expectancy,2022.2.4,Win32,180.3101334,Chrome,1920,1080,,,,,0,1122,,,,,,,,,,,,,,,,,U,174,hexagon,0,0,,,,,,,,,,,,,,,,repeat,number,NA,j,0.3446,Hi,,,,,,3,,,,,,,,high,4,0,4,0,1,,,,,,,,,
293143,2022-09-23_09h23.14.917,vts_reward_expectancy,2022.2.4,Win32,180.3101334,Chrome,1920,1080,,,,,0,1122,,,,,,,,,,,,,,,,,H,146,star,1,1,,,,,,,,,,,,,,,,repeat,number,numRpt,j,0.3841,Hi,,,,,,3,,,,,,,,high,5,0,5,0,1,,,,,,,,,
293143,2022-09-23_09h23.14.917,vts_reward_expectancy,2022.2.4,Win32,180.3101334,Chrome,1920,1080,,,,,1,1123,,,,,,,,,,,,,,,,,B,132,hexagon,1,0,,,,,,,,,,,,,,,,repeat,number,numRpt,j,0.2445,Lo,,,,,,3,,,,,,,,high,6,0,6,0,1,,,,,,,,,
293143,2022-09-23_09h23.14.917,vts_reward_expectancy,2022.2.4,Win32,180.3101334,Chrome,1920,1080,,,,,1,1124,,,,,,,,,,,,,,,,,D,160,star,1,0,,,,,,,,,,,,,,,,repeat,number,numRpt,k,0.1359,Hi,,,,,,3,,,,,,,,high,7,0,7,0,1,,,,,,,,,
293143,2022-09-23_09h23.14.917,vts_reward_expectancy,2022.2.4,Win32,180.3101334,Chrome,1920,1080,,,,,10,1134,,,,,,,,,,,,,,,,,S,139,star,1,0,,,,,,,,,,,,,,,,repeat,number,numRpt,j,0.2945,Hi,,,,,,3,,,,,,,,high,8,0,8,0,1,,,,,,,,,
293143,2022-09-23_09h23.14.917,vts_reward_expectancy,2022.2.4,Win32,180.3101334,Chrome,1920,1080,,,,,0,1134,,,,,,,,,,,,,,,,,W,125,hexagon,0,0,,,,,,,,,,,,,,,,repeat,number,NA,k,0.2197,Hi,,,,,,3,,,,,,,,high,9,0,9,0,1,,,,,,,,,
293143,2022-09-23_09h23.14.917,vts_reward_expectancy,2022.2.4,Win32,180.3101334,Chrome,1920,1080,,,,,0,1134,,,,,,,,,,,,,,,,,F,181,star,0,1,,,,,,,,,,,,,,,,repeat,number,NA,j,0.2635,Hi,,,,,,3,,,,,,,,high,10,0,10,0,1,,,,,,,,,
293143,2022-09-23_09h23.14.917,vts_reward_expectancy,2022.2.4,Win32,180.3101334,Chrome,1920,1080,,,,,1,1135,,,,,,,,,,,,,,,,,Y,167,hexagon,1,1,,,,,,,,,,,,,,,,repeat,number,numRpt,k,0.3562,Lo,,,,,,3,,,,,,,,high,11,0,11,0,1,,,,,,,,,
293143,2022-09-23_09h23.14.917,vts_reward_expectancy,2022.2.4,Win32,180.3101334,Chrome,1920,1080,,,,,10,1145,,,,,,,,,,,,,,,,,U,174,hexagon,1,0,,,,,,,,,,,,,,,,repeat,number,numRpt,k,0.402,Lo,,,,,,3,,,,,,,,high,12,0,12,0,1,,,,,,,,,
293143,2022-09-23_09h23.14.917,vts_reward_expectancy,2022.2.4,Win32,180.3101334,Chrome,1920,1080,,,,,10,1155,,,,,,,,,,,,,,,,,H,146,star,1,0,,,,,,,,,,,,,,,,repeat,number,numRpt,j,0.297,Hi,,,,,,3,,,,,,,,high,13,0,13,0,1,,,,,,,,,
293143,2022-09-23_09h23.14.917,vts_reward_expectancy,2022.2.4,Win32,180.3101334,Chrome,1920,1080,,,,,0,1155,,,,,,,,,,,,,,,,,B,132,star,0,0,,,,,,,,,,,,,,,,repeat,number,NA,k,0.362,Hi,,,,,,3,,,,,,,,high,14,0,14,0,1,,,,,,,,,
293143,2022-09-23_09h23.14.917,vts_reward_expectancy,2022.2.4,Win32,180.3101334,Chrome,1920,1080,,,,,0,1155,,,,,,,,,,,,,,,,,D,160,hexagon,0,1,,,,,,,,,,,,,,,,repeat,number,NA,j,0.2524,Hi,,,,,,3,,,,,,,,high,15,0,15,0,1,,,,,,,,,
293143,2022-09-23_09h23.14.917,vts_reward_expectancy,2022.2.4,Win32,180.3101334,Chrome,1920,1080,,,,,1,1156,,,,,,,,,,,,,,,,,F,174,hexagon,1,1,,,,,,,,,,,,,,,,repeat,number,numRpt,k,0.3989,Lo,,,,,,3,,,,,,,,high,16,0,16,0,1,,,,,,,,,
293143,2022-09-23_09h23.14.917,vts_reward_expectancy,2022.2.4,Win32,180.3101334,Chrome,1920,1080,,,,,0,1156,,,,,,,,,,,,,,,,,W,146,star,0,0,,,,,,,,,,,,,,,,repeat,number,NA,k,0.2107,Lo,,,,,,3,,,,,,,,high,17,0,17,0,1,,,,,,,,,
293143,2022-09-23_09h23.14.917,vts_reward_expectancy,2022.2.4,Win32,180.3101334,Chrome,1920,1080,,,,,10,1166,,,,,,,,,,,,,,,,,U,125,star,1,1,,,,,,,,,,,,,,,,repeat,number,numRpt,j,0.3168,Hi,,,,,,3,,,,,,,,high,18,0,18,0,1,,,,,,,,,
293143,2022-09-23_09h23.14.917,vts_reward_expectancy,2022.2.4,Win32,180.3101334,Chrome,1920,1080,,,,,1,1167,,,,,,,,,,,,,,,,,Y,160,hexagon,1,0,,,,,,,,,,,,,,,,repeat,number,numRpt,k,0.5945,Lo,,,,,,3,,,,,,,,high,19,0,19,0,1,,,,,,,,,
293143,2022-09-23_09h23.14.917,vts_reward_expectancy,2022.2.4,Win32,180.3101334,Chrome,1920,1080,,,,,1,1168,,,,,,,,,,,,,,,,,D,167,hexagon,1,0,,,,,,,,,,,,,,,,repeat,number,numRpt,k,0.4389,Lo,,,,,,3,,,,,,,,high,20,0,20,0,1,,,,,,,,,
293143,2022-09-23_09h23.14.917,vts_reward_expectancy,2022.2.4,Win32,180.3101334,Chrome,1920,1080,,,,,10,1178,,,,,,,,,,,,,,,,,S,181,star,1,0,,,,,,,,,,,,,,,,repeat,number,numRpt,k,0.3044,Hi,,,,,,3,,,,,,,,high,21,0,21,0,1,,,,,,,,,
293143,2022-09-23_09h23.14.917,vts_reward_expectancy,2022.2.4,Win32,180.3101334,Chrome,1920,1080,,,,,1,1179,,,,,,,,,,,,,,,,,B,132,hexagon,1,0,,,,,,,,,,,,,,,,repeat,number,numRpt,j,0.2607,Lo,,,,,,3,,,,,,,,high,22,0,22,0,1,,,,,,,,,
293143,2022-09-23_09h23.14.917,vts_reward_expectancy,2022.2.4,Win32,180.3101334,Chrome,1920,1080,,,,,0,1179,,,,,,,,,,,,,,,,,H,139,star,0,0,,,,,,,,,,,,,,,,repeat,number,NA,k,0.3721,Lo,,,,,,3,,,,,,,,high,23,0,23,0,1,,,,,,,,,
293143,2022-09-23_09h23.14.917,vts_reward_expectancy,2022.2.4,Win32,180.3101334,Chrome,1920,1080,,,,,0,1179,,,,,,,,,,,,,,,,,Y,160,star,0,1,,,,,,,,,,,,,,,,repeat,number,NA,j,0.2558,Lo,,,,,,3,,,,,,,,high,24,0,24,0,1,,,,,,,,,
293143,2022-09-23_09h23.14.917,vts_reward_expectancy,2022.2.4,Win32,180.3101334,Chrome,1920,1080,,,,,1,1180,,,,,,,,,,,,,,,,,S,167,hexagon,1,1,,,,,,,,,,,,,,,,repeat,number,numRpt,k,0.4114,Lo,,,,,,3,,,,,,,,high,25,0,25,0,1,,,,,,,,,
293143,2022-09-23_09h23.14.917,vts_reward_expectancy,2022.2.4,Win32,180.3101334,Chrome,1920,1080,,,,,0,1180,,,,,,,,,,,,,,,,,F,125,star,1,0,,,,,,,,,,,,,,,,repeat,number,numRpt,j,0.3842,Hi,,,,,,3,,,,,,,,high,26,0,26,0,1,,,,,,,,,
293143,2022-09-23_09h23.14.917,vts_reward_expectancy,2022.2.4,Win32,180.3101334,Chrome,1920,1080,,,,,0,1180,,,,,,,,,,,,,,,,,H,146,hexagon,0,0,,,,,,,,,,,,,,,,repeat,number,NA,k,0.3454,Hi,,,,,,3,,,,,,,,high,27,0,27,0,1,,,,,,,,,
293143,2022-09-23_09h23.14.917,vts_reward_expectancy,2022.2.4,Win32,180.3101334,Chrome,1920,1080,,,,,1,1181,,,,,,,,,,,,,,,,,D,139,hexagon,1,1,,,,,,,,,,,,,,,,repeat,number,numRpt,j,0.3186,Lo,,,,,,3,,,,,,,,high,28,0,28,0,1,,,,,,,,,
293143,2022-09-23_09h23.14.917,vts_reward_expectancy,2022.2.4,Win32,180.3101334,Chrome,1920,1080,,,,,10,1191,,,,,,,,,,,,,,,,,U,174,star,1,0,,,,,,,,,,,,,,,,repeat,number,numRpt,k,0.2734,Hi,,,,,,3,,,,,,,,high,29,0,29,0,1,,,,,,,,,
293143,2022-09-23_09h23.14.917,vts_reward_expectancy,2022.2.4,Win32,180.3101334,Chrome,1920,1080,,,,,10,1201,,,,,,,,,,,,,,,,,B,132,star,1,0,,,,,,,,,,,,,,,,repeat,number,numRpt,j,0.2962,Hi,,,,,,3,,,,,,,,high,30,0,30,0,1,,,,,,,,,
293143,2022-09-23_09h23.14.917,vts_reward_expectancy,2022.2.4,Win32,180.3101334,Chrome,1920,1080,,,,,1,1202,,,,,,,,,,,,,,,,,W,181,hexagon,1,0,,,,,,,,,,,,,,,,repeat,number,numRpt,k,0.3742,Lo,,,,,,3,,,,,,,,high,31,0,31,0,1,,,,,,,,,
293143,2022-09-23_09h23.14.917,vts_reward_expectancy,2022.2.4,Win32,180.3101334,Chrome,1920,1080,,,,,1,1203,,,,,,,,,,,,,,,,,U,160,triangle,1,0,,,,,,,,,,,,,,,,repeat,number,numRpt,k,0.4316,Lo,,,,,,4,,,,,,space,0.7636,low,0,0,0,0,1,,,,,,,,,
293143,2022-09-23_09h23.14.917,vts_reward_expectancy,2022.2.4,Win32,180.3101334,Chrome,1920,1080,,,,,0,1203,,,,,,,,,,,,,,,,,S,125,circle,0,0,,,,,,,,,,,,,,,,repeat,number,NA,k,0.3531,Lo,,,,,,4,,,,,,,,low,1,0,1,0,1,,,,,,,,,
293143,2022-09-23_09h23.14.917,vts_reward_expectancy,2022.2.4,Win32,180.3101334,Chrome,1920,1080,,,,,1,1204,,,,,,,,,,,,,,,,,D,139,triangle,1,1,,,,,,,,,,,,,,,,repeat,number,numRpt,j,0.3918,Lo,,,,,,4,,,,,,,,low,2,0,2,0,1,,,,,,,,,
293143,2022-09-23_09h23.14.917,vts_reward_expectancy,2022.2.4,Win32,180.3101334,Chrome,1920,1080,,,,,0,1204,,,,,,,,,,,,,,,,,W,167,circle,1,0,,,,,,,,,,,,,,,,repeat,number,numRpt,k,0.3409,Hi,,,,,,4,,,,,,,,low,3,0,3,0,1,,,,,,,,,
293143,2022-09-23_09h23.14.917,vts_reward_expectancy,2022.2.4,Win32,180.3101334,Chrome,1920,1080,,,,,10,1214,,,,,,,,,,,,,,,,,Y,146,triangle,1,0,,,,,,,,,,,,,,,,repeat,number,numRpt,j,0.2794,Lo,,,,,,4,,,,,,,,low,4,0,4,0,1,,,,,,,,,
293143,2022-09-23_09h23.14.917,vts_reward_expectancy,2022.2.4,Win32,180.3101334,Chrome,1920,1080,,,,,10,1224,,,,,,,,,,,,,,,,,H,132,circle,1,0,,,,,,,,,,,,,,,,repeat,number,numRpt,j,0.2916,Hi,,,,,,4,,,,,,,,low,5,0,5,0,1,,,,,,,,,
293143,2022-09-23_09h23.14.917,vts_reward_expectancy,2022.2.4,Win32,180.3101334,Chrome,1920,1080,,,,,10,1234,,,,,,,,,,,,,,,,,B,174,circle,1,0,,,,,,,,,,,,,,,,repeat,number,numRpt,k,0.2255,Hi,,,,,,4,,,,,,,,low,6,0,6,0,1,,,,,,,,,
293143,2022-09-23_09h23.14.917,vts_reward_expectancy,2022.2.4,Win32,180.3101334,Chrome,1920,1080,,,,,1,1235,,,,,,,,,,,,,,,,,F,181,triangle,1,0,,,,,,,,,,,,,,,,repeat,number,numRpt,k,0.2793,Lo,,,,,,4,,,,,,,,low,7,0,7,0,1,,,,,,,,,
293143,2022-09-23_09h23.14.917,vts_reward_expectancy,2022.2.4,Win32,180.3101334,Chrome,1920,1080,,,,,0,1235,,,,,,,,,,,,,,,,,U,160,circle,1,0,,,,,,,,,,,,,,,,repeat,number,numRpt,k,0.3377,Hi,,,,,,4,,,,,,,,low,8,0,8,0,1,,,,,,,,,
293143,2022-09-23_09h23.14.917,vts_reward_expectancy,2022.2.4,Win32,180.3101334,Chrome,1920,1080,,,,,1,1236,,,,,,,,,,,,,,,,,S,125,triangle,1,0,,,,,,,,,,,,,,,,repeat,number,numRpt,j,0.4402,Lo,,,,,,4,,,,,,,,low,9,0,9,0,1,,,,,,,,,
293143,2022-09-23_09h23.14.917,vts_reward_expectancy,2022.2.4,Win32,180.3101334,Chrome,1920,1080,,,,,0,1236,,,,,,,,,,,,,,,,,D,139,circle,1,0,,,,,,,,,,,,,,,,repeat,number,numRpt,j,0.518,Hi,,,,,,4,,,,,,,,low,10,0,10,0,1,,,,,,,,,
293143,2022-09-23_09h23.14.917,vts_reward_expectancy,2022.2.4,Win32,180.3101334,Chrome,1920,1080,,,,,1,1237,,,,,,,,,,,,,,,,,W,167,triangle,1,0,,,,,,,,,,,,,,,,repeat,number,numRpt,k,0.3778,Lo,,,,,,4,,,,,,,,low,11,0,11,0,1,,,,,,,,,
293143,2022-09-23_09h23.14.917,vts_reward_expectancy,2022.2.4,Win32,180.3101334,Chrome,1920,1080,,,,,0,1237,,,,,,,,,,,,,,,,,Y,146,circle,0,0,,,,,,,,,,,,,,,,repeat,number,NA,k,0.3823,Lo,,,,,,4,,,,,,,,low,12,0,12,0,1,,,,,,,,,
293143,2022-09-23_09h23.14.917,vts_reward_expectancy,2022.2.4,Win32,180.3101334,Chrome,1920,1080,,,,,1,1238,,,,,,,,,,,,,,,,,H,132,triangle,1,1,,,,,,,,,,,,,,,,repeat,number,numRpt,j,0.4193,Lo,,,,,,4,,,,,,,,low,13,0,13,0,1,,,,,,,,,
293143,2022-09-23_09h23.14.917,vts_reward_expectancy,2022.2.4,Win32,180.3101334,Chrome,1920,1080,,,,,10,1248,,,,,,,,,,,,,,,,,B,174,triangle,1,0,,,,,,,,,,,,,,,,repeat,number,numRpt,k,0.372,Lo,,,,,,4,,,,,,,,low,14,0,14,0,1,,,,,,,,,
293143,2022-09-23_09h23.14.917,vts_reward_expectancy,2022.2.4,Win32,180.3101334,Chrome,1920,1080,,,,,0,1248,,,,,,,,,,,,,,,,,F,181,circle,1,0,,,,,,,,,,,,,,,,repeat,number,numRpt,k,0.3651,Hi,,,,,,4,,,,,,,,low,15,0,15,0,1,,,,,,,,,
293143,2022-09-23_09h23.14.917,vts_reward_expectancy,2022.2.4,Win32,180.3101334,Chrome,1920,1080,,,,,1,1249,,,,,,,,,,,,,,,,,Y,139,triangle,1,0,,,,,,,,,,,,,,,,repeat,number,numRpt,j,0.4581,Lo,,,,,,4,,,,,,,,low,16,0,16,0,1,,,,,,,,,
293143,2022-09-23_09h23.14.917,vts_reward_expectancy,2022.2.4,Win32,180.3101334,Chrome,1920,1080,,,,,0,1249,,,,,,,,,,,,,,,,,S,181,circle,1,0,,,,,,,,,,,,,,,,repeat,number,numRpt,k,0.3516,Hi,,,,,,4,,,,,,,,low,17,0,17,0,1,,,,,,,,,
293143,2022-09-23_09h23.14.917,vts_reward_expectancy,2022.2.4,Win32,180.3101334,Chrome,1920,1080,,,,,10,1259,,,,,,,,,,,,,,,,,U,146,triangle,1,0,,,,,,,,,,,,,,,,repeat,number,numRpt,j,0.2956,Lo,,,,,,4,,,,,,,,low,18,0,18,0,1,,,,,,,,,
293143,2022-09-23_09h23.14.917,vts_reward_expectancy,2022.2.4,Win32,180.3101334,Chrome,1920,1080,,,,,0,1259,,,,,,,,,,,,,,,,,F,160,circle,0,0,,,,,,,,,,,,,,,,repeat,number,NA,j,0.3959,Lo,,,,,,4,,,,,,,,low,19,0,19,0,1,,,,,,,,,
293143,2022-09-23_09h23.14.917,vts_reward_expectancy,2022.2.4,Win32,180.3101334,Chrome,1920,1080,,,,,0,1259,,,,,,,,,,,,,,,,,H,167,circle,1,1,,,,,,,,,,,,,,,,repeat,number,numRpt,k,0.4193,Hi,,,,,,4,,,,,,,,low,20,0,20,0,1,,,,,,,,,
293143,2022-09-23_09h23.14.917,vts_reward_expectancy,2022.2.4,Win32,180.3101334,Chrome,1920,1080,,,,,0,1259,,,,,,,,,,,,,,,,,W,174,triangle,0,0,,,,,,,,,,,,,,,,repeat,number,NA,j,0.2731,Hi,,,,,,4,,,,,,,,low,21,0,21,0,1,,,,,,,,,
293143,2022-09-23_09h23.14.917,vts_reward_expectancy,2022.2.4,Win32,180.3101334,Chrome,1920,1080,,,,,1,1260,,,,,,,,,,,,,,,,,D,125,triangle,1,1,,,,,,,,,,,,,,,,repeat,number,numRpt,j,0.2178,Lo,,,,,,4,,,,,,,,low,22,0,22,0,1,,,,,,,,,
293143,2022-09-23_09h23.14.917,vts_reward_expectancy,2022.2.4,Win32,180.3101334,Chrome,1920,1080,,,,,0,1260,,,,,,,,,,,,,,,,,B,132,circle,1,0,,,,,,,,,,,,,,,,repeat,number,numRpt,j,0.3723,Hi,,,,,,4,,,,,,,,low,23,0,23,0,1,,,,,,,,,
293143,2022-09-23_09h23.14.917,vts_reward_expectancy,2022.2.4,Win32,180.3101334,Chrome,1920,1080,,,,,0,1260,,,,,,,,,,,,,,,,,S,160,circle,0,0,,,,,,,,,,,,,,,,repeat,number,NA,j,0.2408,Hi,,,,,,4,,,,,,,,low,24,0,24,0,1,,,,,,,,,
293143,2022-09-23_09h23.14.917,vts_reward_expectancy,2022.2.4,Win32,180.3101334,Chrome,1920,1080,,,,,0,1260,,,,,,,,,,,,,,,,,U,181,triangle,0,1,,,,,,,,,,,,,,,,repeat,number,NA,j,0.0446,Hi,,,,,,4,,,,,,,,low,25,0,25,0,1,,,,,,,,,
293143,2022-09-23_09h23.14.917,vts_reward_expectancy,2022.2.4,Win32,180.3101334,Chrome,1920,1080,,,,,0,1260,,,,,,,,,,,,,,,,,H,146,circle,0,1,,,,,,,,,,,,,,,,repeat,number,NA,k,0.1874,Hi,,,,,,4,,,,,,,,low,26,0,26,0,1,,,,,,,,,
293143,2022-09-23_09h23.14.917,vts_reward_expectancy,2022.2.4,Win32,180.3101334,Chrome,1920,1080,,,,,1,1261,,,,,,,,,,,,,,,,,D,174,triangle,1,1,,,,,,,,,,,,,,,,repeat,number,numRpt,k,0.3488,Lo,,,,,,4,,,,,,,,low,27,0,27,0,1,,,,,,,,,
293143,2022-09-23_09h23.14.917,vts_reward_expectancy,2022.2.4,Win32,180.3101334,Chrome,1920,1080,,,,,10,1271,,,,,,,,,,,,,,,,,B,125,triangle,1,0,,,,,,,,,,,,,,,,repeat,number,numRpt,j,0.3344,Lo,,,,,,4,,,,,,,,low,28,0,28,0,1,,,,,,,,,
293143,2022-09-23_09h23.14.917,vts_reward_expectancy,2022.2.4,Win32,180.3101334,Chrome,1920,1080,,,,,0,1271,,,,,,,,,,,,,,,,,W,132,circle,1,0,,,,,,,,,,,,,,,,repeat,number,numRpt,j,0.475,Hi,,,,,,4,,,,,,,,low,29,0,29,0,1,,,,,,,,,
293143,2022-09-23_09h23.14.917,vts_reward_expectancy,2022.2.4,Win32,180.3101334,Chrome,1920,1080,,,,,0,1271,,,,,,,,,,,,,,,,,Y,139,circle,1,0,,,,,,,,,,,,,,,,repeat,number,numRpt,j,0.3388,Hi,,,,,,4,,,,,,,,low,30,0,30,0,1,,,,,,,,,
293143,2022-09-23_09h23.14.917,vts_reward_expectancy,2022.2.4,Win32,180.3101334,Chrome,1920,1080,,,,,0,1271,,,,,,,,,,,,,,,,,F,167,triangle,0,0,,,,,,,,,,,,,,,,repeat,number,NA,j,0.3119,Hi,,,,,,4,,,,,,,,low,31,0,31,0,1,,,,,,,,,
293143,2022-09-23_09h23.14.917,vts_reward_expectancy,2022.2.4,Win32,180.3101334,Chrome,1920,1080,,,,,10,1281,,,,,,,,,,,,,,,,,S,146,circle,1,1,,,,,,,,,,,,,,,,repeat,number,numRpt,j,0.2818,Hi,,,,,,5,,,,,,space,0.7235,low,0,0,0,0,1,,,,,,,,,
293143,2022-09-23_09h23.14.917,vts_reward_expectancy,2022.2.4,Win32,180.3101334,Chrome,1920,1080,,,,,1,1282,,,,,,,,,,,,,,,,,H,181,triangle,1,0,,,,,,,,,,,,,,,,repeat,number,numRpt,k,0.3506,Lo,,,,,,5,,,,,,,,low,1,0,1,0,1,,,,,,,,,
293143,2022-09-23_09h23.14.917,vts_reward_expectancy,2022.2.4,Win32,180.3101334,Chrome,1920,1080,,,,,0,1282,,,,,,,,,,,,,,,,,F,160,circle,1,0,,,,,,,,,,,,,,,,repeat,number,numRpt,k,0.3466,Hi,,,,,,5,,,,,,,,low,2,0,2,0,1,,,,,,,,,
293143,2022-09-23_09h23.14.917,vts_reward_expectancy,2022.2.4,Win32,180.3101334,Chrome,1920,1080,,,,,1,1283,,,,,,,,,,,,,,,,,D,167,triangle,1,0,,,,,,,,,,,,,,,,repeat,number,numRpt,k,0.3378,Lo,,,,,,5,,,,,,,,low,3,0,3,0,1,,,,,,,,,
293143,2022-09-23_09h23.14.917,vts_reward_expectancy,2022.2.4,Win32,180.3101334,Chrome,1920,1080,,,,,1,1284,,,,,,,,,,,,,,,,,U,132,circle,1,0,,,,,,,,,,,,,,,,repeat,number,numRpt,j,0.3165,Hi,,,,,,5,,,,,,,,low,4,0,4,0,1,,,,,,,,,
293143,2022-09-23_09h23.14.917,vts_reward_expectancy,2022.2.4,Win32,180.3101334,Chrome,1920,1080,,,,,10,1294,,,,,,,,,,,,,,,,,B,125,triangle,1,0,,,,,,,,,,,,,,,,repeat,number,numRpt,j,0.3085,Lo,,,,,,5,,,,,,,,low,5,0,5,0,1,,,,,,,,,
293143,2022-09-23_09h23.14.917,vts_reward_expectancy,2022.2.4,Win32,180.3101334,Chrome,1920,1080,,,,,0,1294,,,,,,,,,,,,,,,,,W,174,triangle,0,0,,,,,,,,,,,,,,,,repeat,number,NA,j,0.2946,Lo,,,,,,5,,,,,,,,low,6,0,6,0,1,,,,,,,,,
293143,2022-09-23_09h23.14.917,vts_reward_expectancy,2022.2.4,Win32,180.3101334,Chrome,1920,1080,,,,,10,1304,,,,,,,,,,,,,,,,,Y,139,circle,1,1,,,,,,,,,,,,,,,,repeat,number,numRpt,j,0.3278,Hi,,,,,,5,,,,,,,,low,7,0,7,0,1,,,,,,,,,
293143,2022-09-23_09h23.14.917,vts_reward_expectancy,2022.2.4,Win32,180.3101334,Chrome,1920,1080,,,,,1,1305,,,,,,,,,,,,,,,,,S,146,triangle,1,0,,,,,,,,,,,,,,,,repeat,number,numRpt,j,0.3587,Lo,,,,,,5,,,,,,,,low,8,0,8,0,1,,,,,,,,,
293143,2022-09-23_09h23.14.917,vts_reward_expectancy,2022.2.4,Win32,180.3101334,Chrome,1920,1080,,,,,1,1306,,,,,,,,,,,,,,,,,H,181,circle,1,0,,,,,,,,,,,,,,,,repeat,number,numRpt,k,0.2557,Hi,,,,,,5,,,,,,,,low,9,0,9,0,1,,,,,,,,,
293143,2022-09-23_09h23.14.917,vts_reward_expectancy,2022.2.4,Win32,180.3101334,Chrome,1920,1080,,,,,0,1306,,,,,,,,,,,,,,,,,F,160,triangle,0,0,,,,,,,,,,,,,,,,repeat,number,NA,j,0.4119,Hi,,,,,,5,,,,,,,,low,10,0,10,0,1,,,,,,,,,
293143,2022-09-23_09h23.14.917,vts_reward_expectancy,2022.2.4,Win32,180.3101334,Chrome,1920,1080,,,,,0,1306,,,,,,,,,,,,,,,,,D,167,circle,0,1,,,,,,,,,,,,,,,,repeat,number,NA,j,0.2803,Hi,,,,,,5,,,,,,,,low,11,0,11,0,1,,,,,,,,,
293143,2022-09-23_09h23.14.917,vts_reward_expectancy,2022.2.4,Win32,180.3101334,Chrome,1920,1080,,,,,1,1307,,,,,,,,,,,,,,,,,U,132,triangle,1,1,,,,,,,,,,,,,,,,repeat,number,numRpt,j,0.3064,Lo,,,,,,5,,,,,,,,low,12,0,12,0,1,,,,,,,,,
293143,2022-09-23_09h23.14.917,vts_reward_expectancy,2022.2.4,Win32,180.3101334,Chrome,1920,1080,,,,,10,1317,,,,,,,,,,,,,,,,,B,125,circle,1,0,,,,,,,,,,,,,,,,repeat,number,numRpt,j,0.2302,Hi,,,,,,5,,,,,,,,low,13,0,13,0,1,,,,,,,,,
293143,2022-09-23_09h23.14.917,vts_reward_expectancy,2022.2.4,Win32,180.3101334,Chrome,1920,1080,,,,,10,1327,,,,,,,,,,,,,,,,,W,174,triangle,1,0,,,,,,,,,,,,,,,,repeat,number,numRpt,k,0.2719,Lo,,,,,,5,,,,,,,,low,14,0,14,0,1,,,,,,,,,
293143,2022-09-23_09h23.14.917,vts_reward_expectancy,2022.2.4,Win32,180.3101334,Chrome,1920,1080,,,,,0,1327,,,,,,,,,,,,,,,,,Y,139,circle,1,0,,,,,,,,,,,,,,,,repeat,number,numRpt,j,0.3445,Hi,,,,,,5,,,,,,,,low,15,0,15,0,1,,,,,,,,,
293143,2022-09-23_09h23.14.917,vts_reward_expectancy,2022.2.4,Win32,180.3101334,Chrome,1920,1080,,,,,1,1328,,,,,,,,,,,,,,,,,H,132,circle,1,0,,,,,,,,,,,,,,,,repeat,number,numRpt,j,0.307,Hi,,,,,,5,,,,,,,,low,16,0,16,0,1,,,,,,,,,
293143,2022-09-23_09h23.14.917,vts_reward_expectancy,2022.2.4,Win32,180.3101334,Chrome,1920,1080,,,,,10,1338,,,,,,,,,,,,,,,,,W,139,triangle,1,0,,,,,,,,,,,,,,,,repeat,number,numRpt,j,0.3005,Lo,,,,,,5,,,,,,,,low,17,0,17,0,1,,,,,,,,,
293143,2022-09-23_09h23.14.917,vts_reward_expectancy,2022.2.4,Win32,180.3101334,Chrome,1920,1080,,,,,0,1338,,,,,,,,,,,,,,,,,Y,125,circle,1,0,,,,,,,,,,,,,,,,repeat,number,numRpt,j,0.3463,Hi,,,,,,5,,,,,,,,low,18,0,18,0,1,,,,,,,,,
293143,2022-09-23_09h23.14.917,vts_reward_expectancy,2022.2.4,Win32,180.3101334,Chrome,1920,1080,,,,,0,1338,,,,,,,,,,,,,,,,,D,160,triangle,0,0,,,,,,,,,,,,,,,,repeat,number,NA,j,0.251,Hi,,,,,,5,,,,,,,,low,19,0,19,0,1,,,,,,,,,
293143,2022-09-23_09h23.14.917,vts_reward_expectancy,2022.2.4,Win32,180.3101334,Chrome,1920,1080,,,,,10,1348,,,,,,,,,,,,,,,,,B,146,circle,1,1,,,,,,,,,,,,,,,,repeat,number,numRpt,j,0.3117,Hi,,,,,,5,,,,,,,,low,20,0,20,0,1,,,,,,,,,
293143,2022-09-23_09h23.14.917,vts_reward_expectancy,2022.2.4,Win32,180.3101334,Chrome,1920,1080,,,,,0,1348,,,,,,,,,,,,,,,,,F,181,triangle,0,0,,,,,,,,,,,,,,,,repeat,number,NA,j,0.3073,Hi,,,,,,5,,,,,,,,low,21,0,21,0,1,,,,,,,,,
293143,2022-09-23_09h23.14.917,vts_reward_expectancy,2022.2.4,Win32,180.3101334,Chrome,1920,1080,,,,,1,1349,,,,,,,,,,,,,,,,,S,174,triangle,1,1,,,,,,,,,,,,,,,,repeat,number,numRpt,k,0.311,Lo,,,,,,5,,,,,,,,low,22,0,22,0,1,,,,,,,,,
293143,2022-09-23_09h23.14.917,vts_reward_expectancy,2022.2.4,Win32,180.3101334,Chrome,1920,1080,,,,,0,1349,,,,,,,,,,,,,,,,,U,167,circle,1,0,,,,,,,,,,,,,,,,repeat,number,numRpt,k,0.3719,Hi,,,,,,5,,,,,,,,low,23,0,23,0,1,,,,,,,,,
293143,2022-09-23_09h23.14.917,vts_reward_expectancy,2022.2.4,Win32,180.3101334,Chrome,1920,1080,,,,,10,1359,,,,,,,,,,,,,,,,,D,174,triangle,1,0,,,,,,,,,,,,,,,,repeat,number,numRpt,k,0.4247,Lo,,,,,,5,,,,,,,,low,24,0,24,0,1,,,,,,,,,
293143,2022-09-23_09h23.14.917,vts_reward_expectancy,2022.2.4,Win32,180.3101334,Chrome,1920,1080,,,,,10,1369,,,,,,,,,,,,,,,,,S,160,circle,1,0,,,,,,,,,,,,,,,,repeat,number,numRpt,k,0.3278,Hi,,,,,,5,,,,,,,,low,25,0,25,0,1,,,,,,,,,
293143,2022-09-23_09h23.14.917,vts_reward_expectancy,2022.2.4,Win32,180.3101334,Chrome,1920,1080,,,,,1,1370,,,,,,,,,,,,,,,,,U,132,triangle,1,0,,,,,,,,,,,,,,,,repeat,number,numRpt,j,0.461,Lo,,,,,,5,,,,,,,,low,26,0,26,0,1,,,,,,,,,
293143,2022-09-23_09h23.14.917,vts_reward_expectancy,2022.2.4,Win32,180.3101334,Chrome,1920,1080,,,,,10,1380,,,,,,,,,,,,,,,,,B,181,circle,1,0,,,,,,,,,,,,,,,,repeat,number,numRpt,k,0.2857,Hi,,,,,,5,,,,,,,,low,27,0,27,0,1,,,,,,,,,
293143,2022-09-23_09h23.14.917,vts_reward_expectancy,2022.2.4,Win32,180.3101334,Chrome,1920,1080,,,,,0,1380,,,,,,,,,,,,,,,,,F,125,circle,0,0,,,,,,,,,,,,,,,,repeat,number,NA,k,0.3294,Hi,,,,,,5,,,,,,,,low,28,0,28,0,1,,,,,,,,,
293143,2022-09-23_09h23.14.917,vts_reward_expectancy,2022.2.4,Win32,180.3101334,Chrome,1920,1080,,,,,1,1381,,,,,,,,,,,,,,,,,Y,167,triangle,1,1,,,,,,,,,,,,,,,,repeat,number,numRpt,k,0.2945,Lo,,,,,,5,,,,,,,,low,29,0,29,0,1,,,,,,,,,
293143,2022-09-23_09h23.14.917,vts_reward_expectancy,2022.2.4,Win32,180.3101334,Chrome,1920,1080,,,,,0,1381,,,,,,,,,,,,,,,,,H,139,circle,1,0,,,,,,,,,,,,,,,,repeat,number,numRpt,j,0.4396,Hi,,,,,,5,,,,,,,,low,30,0,30,0,1,,,,,,,,,
293143,2022-09-23_09h23.14.917,vts_reward_expectancy,2022.2.4,Win32,180.3101334,Chrome,1920,1080,,,,,0,1381,,,,,,,,,,,,,,,,,W,146,triangle,0,0,,,,,,,,,,,,,,,,repeat,number,NA,k,0.3778,Hi,,,,,,5,,,,,,,,low,31,0,31,0,1,,,,,,,,,
293143,2022-09-23_09h23.14.917,vts_reward_expectancy,2022.2.4,Win32,180.3101334,Chrome,1920,1080,,,,,,,,,,,,,,,,,,,,,,,,,,,,,,,,,,,,,,,,,,,,,,,,,,,,,,6,,,,,,,,,,,,,,,1,,5,2,,2,1920,1080
