participant,date,expName,psychopyVersion,OS,frameRate,browser,xResolution,yResolution,key_resp.keys,key_resp.rt,training_resp.keys,training_resp.rt,points_trial,points_cumul,trainBlock,training.thisRepN,training.thisTrialN,training.thisN,training.thisIndex,training.ran,LTriangleOpac,LCircleOpac,LHexagonOpac,LStarOpac,RTriangleOpac,RCircleOpac,RHexagonOpac,RStarOpac,LShape_ID,RShape_ID,curr_topStim,curr_bottStim,curr_shape,acc,E1,target_resp_prac1.keys,pracBlock,task1_prac_trials.thisRepN,task1_prac_trials.thisTrialN,task1_prac_trials.thisN,task1_prac_trials.thisIndex,task1_prac_trials.ran,target_resp_prac1.rt,target_resp_prac2.keys,target_resp_prac2.rt,task2_praac_trials.thisRepN,task2_praac_trials.thisTrialN,task2_praac_trials.thisN,task2_praac_trials.thisIndex,task2_praac_trials.ran,alt,task,condition,target_resp.keys,target_resp.rt,rewCond,vts_practice_trials.thisRepN,vts_practice_trials.thisTrialN,vts_practice_trials.thisN,vts_practice_trials.thisIndex,vts_practice_trials.ran,blockNum,trials_norew.thisRepN,trials_norew.thisTrialN,trials_norew.thisN,trials_norew.thisIndex,trials_norew.ran,key_resp_2.keys,key_resp_2.rt,rewExpect,trials_rew.thisRepN,trials_rew.thisTrialN,trials_rew.thisN,trials_rew.thisIndex,trials_rew.ran,Q1,Q2,Q2_text,Q3,Q4,Q5_text,Q5,xRes,yRes
294535,2022-10-07_16h28.08.617,vts_reward_expectancy,2022.2.4,Win32,60.26637739,Chrome,1368,912,,,,,,,,,,,,,,,,,,,,,,,,,,,,,,,,,,,,,,,,,,,,,,,,,,,,,,,,,,,,,,,,,,,,,,,,,,,,
294535,2022-10-07_16h28.08.617,vts_reward_expectancy,2022.2.4,Win32,60.26637739,Chrome,1368,912,space,17.1755,,,,,,,,,,,,,,,,,,,,,,,,,,,,,,,,,,,,,,,,,,,,,,,,,,,,,,,,,,,,,,,,,,,,,,,,,,
294535,2022-10-07_16h28.08.617,vts_reward_expectancy,2022.2.4,Win32,60.26637739,Chrome,1368,912,,,,,,,,,,,,,,,,,,,,,,,,,,,,,,,,,,,,,,,,,,,,,,,,,,,,,,,,,,,,,,,,,,,,,,,,,,,,
294535,2022-10-07_16h28.08.617,vts_reward_expectancy,2022.2.4,Win32,60.26637739,Chrome,1368,912,,,l,2.4529,1,1,0,0,0,0,2,1,1,0,0,0,0,0,0,1,triangle,star,,,,,,,,,,,,,,,,,,,,,,,,,,,,,,,,,,,,,,,,,,,,,,,,,,,,,,
294535,2022-10-07_16h28.08.617,vts_reward_expectancy,2022.2.4,Win32,60.26637739,Chrome,1368,912,,,a,1.7858,10,11,0,0,1,1,4,1,0,1,0,0,0,0,1,0,circle,hexagon,,,,,,,,,,,,,,,,,,,,,,,,,,,,,,,,,,,,,,,,,,,,,,,,,,,,,,
294535,2022-10-07_16h28.08.617,vts_reward_expectancy,2022.2.4,Win32,60.26637739,Chrome,1368,912,,,l,1.042,10,21,0,0,2,2,7,1,0,0,1,0,0,1,0,0,hexagon,circle,,,,,,,,,,,,,,,,,,,,,,,,,,,,,,,,,,,,,,,,,,,,,,,,,,,,,,
294535,2022-10-07_16h28.08.617,vts_reward_expectancy,2022.2.4,Win32,60.26637739,Chrome,1368,912,,,l,1.4377,10,31,0,0,3,3,11,1,0,0,0,1,0,0,1,0,star,hexagon,,,,,,,,,,,,,,,,,,,,,,,,,,,,,,,,,,,,,,,,,,,,,,,,,,,,,,
294535,2022-10-07_16h28.08.617,vts_reward_expectancy,2022.2.4,Win32,60.26637739,Chrome,1368,912,,,l,2.0533,10,41,0,0,4,4,6,1,0,0,1,0,1,0,0,0,hexagon,triangle,,,,,,,,,,,,,,,,,,,,,,,,,,,,,,,,,,,,,,,,,,,,,,,,,,,,,,
294535,2022-10-07_16h28.08.617,vts_reward_expectancy,2022.2.4,Win32,60.26637739,Chrome,1368,912,,,a,0.8346,10,51,0,0,5,5,5,1,0,1,0,0,0,0,0,1,circle,star,,,,,,,,,,,,,,,,,,,,,,,,,,,,,,,,,,,,,,,,,,,,,,,,,,,,,,
294535,2022-10-07_16h28.08.617,vts_reward_expectancy,2022.2.4,Win32,60.26637739,Chrome,1368,912,,,l,1.1017,10,61,0,0,6,6,10,1,0,0,0,1,0,1,0,0,star ,circle,,,,,,,,,,,,,,,,,,,,,,,,,,,,,,,,,,,,,,,,,,,,,,,,,,,,,,
294535,2022-10-07_16h28.08.617,vts_reward_expectancy,2022.2.4,Win32,60.26637739,Chrome,1368,912,,,a,3.7033,10,71,0,0,7,7,3,1,0,1,0,0,1,0,0,0,circle,triangle,,,,,,,,,,,,,,,,,,,,,,,,,,,,,,,,,,,,,,,,,,,,,,,,,,,,,,
294535,2022-10-07_16h28.08.617,vts_reward_expectancy,2022.2.4,Win32,60.26637739,Chrome,1368,912,,,l,1.5024,1,72,0,0,8,8,1,1,1,0,0,0,0,0,1,0,triangle,hexagon,,,,,,,,,,,,,,,,,,,,,,,,,,,,,,,,,,,,,,,,,,,,,,,,,,,,,,
294535,2022-10-07_16h28.08.617,vts_reward_expectancy,2022.2.4,Win32,60.26637739,Chrome,1368,912,,,l,1.7359,10,82,0,0,9,9,0,1,1,0,0,0,0,1,0,0,triangle,circle,,,,,,,,,,,,,,,,,,,,,,,,,,,,,,,,,,,,,,,,,,,,,,,,,,,,,,
294535,2022-10-07_16h28.08.617,vts_reward_expectancy,2022.2.4,Win32,60.26637739,Chrome,1368,912,,,a,1.3714,10,92,0,0,10,10,8,1,0,0,1,0,0,0,0,1,hexagon,star,,,,,,,,,,,,,,,,,,,,,,,,,,,,,,,,,,,,,,,,,,,,,,,,,,,,,,
294535,2022-10-07_16h28.08.617,vts_reward_expectancy,2022.2.4,Win32,60.26637739,Chrome,1368,912,,,l,1.053,1,93,0,0,11,11,9,1,0,0,0,1,1,0,0,0,star,triangle,,,,,,,,,,,,,,,,,,,,,,,,,,,,,,,,,,,,,,,,,,,,,,,,,,,,,,
294535,2022-10-07_16h28.08.617,vts_reward_expectancy,2022.2.4,Win32,60.26637739,Chrome,1368,912,,,a,0.6853,10,103,0,1,0,12,5,1,0,1,0,0,0,0,0,1,circle,star,,,,,,,,,,,,,,,,,,,,,,,,,,,,,,,,,,,,,,,,,,,,,,,,,,,,,,
294535,2022-10-07_16h28.08.617,vts_reward_expectancy,2022.2.4,Win32,60.26637739,Chrome,1368,912,,,l,0.9853,10,113,0,1,1,13,6,1,0,0,1,0,1,0,0,0,hexagon,triangle,,,,,,,,,,,,,,,,,,,,,,,,,,,,,,,,,,,,,,,,,,,,,,,,,,,,,,
294535,2022-10-07_16h28.08.617,vts_reward_expectancy,2022.2.4,Win32,60.26637739,Chrome,1368,912,,,a,1.7855,10,123,0,1,2,14,3,1,0,1,0,0,1,0,0,0,circle,triangle,,,,,,,,,,,,,,,,,,,,,,,,,,,,,,,,,,,,,,,,,,,,,,,,,,,,,,
294535,2022-10-07_16h28.08.617,vts_reward_expectancy,2022.2.4,Win32,60.26637739,Chrome,1368,912,,,a,1.0357,10,133,0,1,3,15,4,1,0,1,0,0,0,0,1,0,circle,hexagon,,,,,,,,,,,,,,,,,,,,,,,,,,,,,,,,,,,,,,,,,,,,,,,,,,,,,,
294535,2022-10-07_16h28.08.617,vts_reward_expectancy,2022.2.4,Win32,60.26637739,Chrome,1368,912,,,l,0.8686,1,134,0,1,4,16,11,1,0,0,0,1,0,0,1,0,star,hexagon,,,,,,,,,,,,,,,,,,,,,,,,,,,,,,,,,,,,,,,,,,,,,,,,,,,,,,
294535,2022-10-07_16h28.08.617,vts_reward_expectancy,2022.2.4,Win32,60.26637739,Chrome,1368,912,,,l,1.4847,1,135,0,1,5,17,8,1,0,0,1,0,0,0,0,1,hexagon,star,,,,,,,,,,,,,,,,,,,,,,,,,,,,,,,,,,,,,,,,,,,,,,,,,,,,,,
294535,2022-10-07_16h28.08.617,vts_reward_expectancy,2022.2.4,Win32,60.26637739,Chrome,1368,912,,,a,0.9842,1,136,0,1,6,18,1,1,1,0,0,0,0,0,1,0,triangle,hexagon,,,,,,,,,,,,,,,,,,,,,,,,,,,,,,,,,,,,,,,,,,,,,,,,,,,,,,
294535,2022-10-07_16h28.08.617,vts_reward_expectancy,2022.2.4,Win32,60.26637739,Chrome,1368,912,,,l,1.1518,1,137,0,1,7,19,0,1,1,0,0,0,0,1,0,0,triangle,circle,,,,,,,,,,,,,,,,,,,,,,,,,,,,,,,,,,,,,,,,,,,,,,,,,,,,,,
294535,2022-10-07_16h28.08.617,vts_reward_expectancy,2022.2.4,Win32,60.26637739,Chrome,1368,912,,,a,0.6512,10,147,0,1,8,20,2,1,1,0,0,0,0,0,0,1,triangle,star,,,,,,,,,,,,,,,,,,,,,,,,,,,,,,,,,,,,,,,,,,,,,,,,,,,,,,
294535,2022-10-07_16h28.08.617,vts_reward_expectancy,2022.2.4,Win32,60.26637739,Chrome,1368,912,,,l,0.7673,10,157,0,1,9,21,9,1,0,0,0,1,1,0,0,0,star,triangle,,,,,,,,,,,,,,,,,,,,,,,,,,,,,,,,,,,,,,,,,,,,,,,,,,,,,,
294535,2022-10-07_16h28.08.617,vts_reward_expectancy,2022.2.4,Win32,60.26637739,Chrome,1368,912,,,l,0.9506,10,167,0,1,10,22,10,1,0,0,0,1,0,1,0,0,star ,circle,,,,,,,,,,,,,,,,,,,,,,,,,,,,,,,,,,,,,,,,,,,,,,,,,,,,,,
294535,2022-10-07_16h28.08.617,vts_reward_expectancy,2022.2.4,Win32,60.26637739,Chrome,1368,912,,,l,0.8015,10,177,0,1,11,23,7,1,0,0,1,0,0,1,0,0,hexagon,circle,,,,,,,,,,,,,,,,,,,,,,,,,,,,,,,,,,,,,,,,,,,,,,,,,,,,,,
294535,2022-10-07_16h28.08.617,vts_reward_expectancy,2022.2.4,Win32,60.26637739,Chrome,1368,912,,,l,0.6349,10,187,0,2,0,24,7,1,0,0,1,0,0,1,0,0,hexagon,circle,,,,,,,,,,,,,,,,,,,,,,,,,,,,,,,,,,,,,,,,,,,,,,,,,,,,,,
294535,2022-10-07_16h28.08.617,vts_reward_expectancy,2022.2.4,Win32,60.26637739,Chrome,1368,912,,,a,1.5347,1,188,0,2,1,25,3,1,0,1,0,0,1,0,0,0,circle,triangle,,,,,,,,,,,,,,,,,,,,,,,,,,,,,,,,,,,,,,,,,,,,,,,,,,,,,,
294535,2022-10-07_16h28.08.617,vts_reward_expectancy,2022.2.4,Win32,60.26637739,Chrome,1368,912,,,l,0.8349,10,198,0,2,2,26,10,1,0,0,0,1,0,1,0,0,star ,circle,,,,,,,,,,,,,,,,,,,,,,,,,,,,,,,,,,,,,,,,,,,,,,,,,,,,,,
294535,2022-10-07_16h28.08.617,vts_reward_expectancy,2022.2.4,Win32,60.26637739,Chrome,1368,912,,,a,0.6859,1,199,0,2,3,27,5,1,0,1,0,0,0,0,0,1,circle,star,,,,,,,,,,,,,,,,,,,,,,,,,,,,,,,,,,,,,,,,,,,,,,,,,,,,,,
294535,2022-10-07_16h28.08.617,vts_reward_expectancy,2022.2.4,Win32,60.26637739,Chrome,1368,912,,,l,1.1527,10,209,0,2,4,28,6,1,0,0,1,0,1,0,0,0,hexagon,triangle,,,,,,,,,,,,,,,,,,,,,,,,,,,,,,,,,,,,,,,,,,,,,,,,,,,,,,
294535,2022-10-07_16h28.08.617,vts_reward_expectancy,2022.2.4,Win32,60.26637739,Chrome,1368,912,,,a,1.1345,10,219,0,2,5,29,2,1,1,0,0,0,0,0,0,1,triangle,star,,,,,,,,,,,,,,,,,,,,,,,,,,,,,,,,,,,,,,,,,,,,,,,,,,,,,,
294535,2022-10-07_16h28.08.617,vts_reward_expectancy,2022.2.4,Win32,60.26637739,Chrome,1368,912,,,a,1.1853,10,229,0,2,6,30,4,1,0,1,0,0,0,0,1,0,circle,hexagon,,,,,,,,,,,,,,,,,,,,,,,,,,,,,,,,,,,,,,,,,,,,,,,,,,,,,,
294535,2022-10-07_16h28.08.617,vts_reward_expectancy,2022.2.4,Win32,60.26637739,Chrome,1368,912,,,a,1.8018,1,230,0,2,7,31,9,1,0,0,0,1,1,0,0,0,star,triangle,,,,,,,,,,,,,,,,,,,,,,,,,,,,,,,,,,,,,,,,,,,,,,,,,,,,,,
294535,2022-10-07_16h28.08.617,vts_reward_expectancy,2022.2.4,Win32,60.26637739,Chrome,1368,912,,,a,23.2847,1,231,0,2,8,32,1,1,1,0,0,0,0,0,1,0,triangle,hexagon,,,,,,,,,,,,,,,,,,,,,,,,,,,,,,,,,,,,,,,,,,,,,,,,,,,,,,
294535,2022-10-07_16h28.08.617,vts_reward_expectancy,2022.2.4,Win32,60.26637739,Chrome,1368,912,,,l,1.3866,1,232,0,2,9,33,0,1,1,0,0,0,0,1,0,0,triangle,circle,,,,,,,,,,,,,,,,,,,,,,,,,,,,,,,,,,,,,,,,,,,,,,,,,,,,,,
294535,2022-10-07_16h28.08.617,vts_reward_expectancy,2022.2.4,Win32,60.26637739,Chrome,1368,912,,,a,2.4024,1,233,0,2,10,34,11,1,0,0,0,1,0,0,1,0,star,hexagon,,,,,,,,,,,,,,,,,,,,,,,,,,,,,,,,,,,,,,,,,,,,,,,,,,,,,,
294535,2022-10-07_16h28.08.617,vts_reward_expectancy,2022.2.4,Win32,60.26637739,Chrome,1368,912,,,a,2.002,10,243,0,2,11,35,8,1,0,0,1,0,0,0,0,1,hexagon,star,,,,,,,,,,,,,,,,,,,,,,,,,,,,,,,,,,,,,,,,,,,,,,,,,,,,,,
294535,2022-10-07_16h28.08.617,vts_reward_expectancy,2022.2.4,Win32,60.26637739,Chrome,1368,912,,,l,1.3522,10,253,1,0,0,0,6,1,0,0,1,0,1,0,0,0,hexagon,triangle,,,,,,,,,,,,,,,,,,,,,,,,,,,,,,,,,,,,,,,,,,,,,,,,,,,,,,
294535,2022-10-07_16h28.08.617,vts_reward_expectancy,2022.2.4,Win32,60.26637739,Chrome,1368,912,,,a,0.7015,1,254,1,0,1,1,5,1,0,1,0,0,0,0,0,1,circle,star,,,,,,,,,,,,,,,,,,,,,,,,,,,,,,,,,,,,,,,,,,,,,,,,,,,,,,
294535,2022-10-07_16h28.08.617,vts_reward_expectancy,2022.2.4,Win32,60.26637739,Chrome,1368,912,,,a,1.9714,1,255,1,0,2,2,10,1,0,0,0,1,0,1,0,0,star ,circle,,,,,,,,,,,,,,,,,,,,,,,,,,,,,,,,,,,,,,,,,,,,,,,,,,,,,,
294535,2022-10-07_16h28.08.617,vts_reward_expectancy,2022.2.4,Win32,60.26637739,Chrome,1368,912,,,a,1.3192,10,265,1,0,3,3,4,1,0,1,0,0,0,0,1,0,circle,hexagon,,,,,,,,,,,,,,,,,,,,,,,,,,,,,,,,,,,,,,,,,,,,,,,,,,,,,,
294535,2022-10-07_16h28.08.617,vts_reward_expectancy,2022.2.4,Win32,60.26637739,Chrome,1368,912,,,l,1.586,1,266,1,0,4,4,3,1,0,1,0,0,1,0,0,0,circle,triangle,,,,,,,,,,,,,,,,,,,,,,,,,,,,,,,,,,,,,,,,,,,,,,,,,,,,,,
294535,2022-10-07_16h28.08.617,vts_reward_expectancy,2022.2.4,Win32,60.26637739,Chrome,1368,912,,,a,1.3187,10,276,1,0,5,5,2,1,1,0,0,0,0,0,0,1,triangle,star,,,,,,,,,,,,,,,,,,,,,,,,,,,,,,,,,,,,,,,,,,,,,,,,,,,,,,
294535,2022-10-07_16h28.08.617,vts_reward_expectancy,2022.2.4,Win32,60.26637739,Chrome,1368,912,,,l,0.8684,10,286,1,0,6,6,9,1,0,0,0,1,1,0,0,0,star,triangle,,,,,,,,,,,,,,,,,,,,,,,,,,,,,,,,,,,,,,,,,,,,,,,,,,,,,,
294535,2022-10-07_16h28.08.617,vts_reward_expectancy,2022.2.4,Win32,60.26637739,Chrome,1368,912,,,a,2.4361,1,287,1,0,7,7,0,1,1,0,0,0,0,1,0,0,triangle,circle,,,,,,,,,,,,,,,,,,,,,,,,,,,,,,,,,,,,,,,,,,,,,,,,,,,,,,
294535,2022-10-07_16h28.08.617,vts_reward_expectancy,2022.2.4,Win32,60.26637739,Chrome,1368,912,,,l,0.8013,1,288,1,0,8,8,11,1,0,0,0,1,0,0,1,0,star,hexagon,,,,,,,,,,,,,,,,,,,,,,,,,,,,,,,,,,,,,,,,,,,,,,,,,,,,,,
294535,2022-10-07_16h28.08.617,vts_reward_expectancy,2022.2.4,Win32,60.26637739,Chrome,1368,912,,,a,0.8015,10,298,1,0,9,9,8,1,0,0,1,0,0,0,0,1,hexagon,star,,,,,,,,,,,,,,,,,,,,,,,,,,,,,,,,,,,,,,,,,,,,,,,,,,,,,,
294535,2022-10-07_16h28.08.617,vts_reward_expectancy,2022.2.4,Win32,60.26637739,Chrome,1368,912,,,l,0.9687,1,299,1,0,10,10,7,1,0,0,1,0,0,1,0,0,hexagon,circle,,,,,,,,,,,,,,,,,,,,,,,,,,,,,,,,,,,,,,,,,,,,,,,,,,,,,,
294535,2022-10-07_16h28.08.617,vts_reward_expectancy,2022.2.4,Win32,60.26637739,Chrome,1368,912,,,l,0.9684,1,300,1,0,11,11,1,1,1,0,0,0,0,0,1,0,triangle,hexagon,,,,,,,,,,,,,,,,,,,,,,,,,,,,,,,,,,,,,,,,,,,,,,,,,,,,,,
294535,2022-10-07_16h28.08.617,vts_reward_expectancy,2022.2.4,Win32,60.26637739,Chrome,1368,912,,,l,1.4851,1,301,1,1,0,12,9,1,0,0,0,1,1,0,0,0,star,triangle,,,,,,,,,,,,,,,,,,,,,,,,,,,,,,,,,,,,,,,,,,,,,,,,,,,,,,
294535,2022-10-07_16h28.08.617,vts_reward_expectancy,2022.2.4,Win32,60.26637739,Chrome,1368,912,,,l,1.7196,1,302,1,1,1,13,5,1,0,1,0,0,0,0,0,1,circle,star,,,,,,,,,,,,,,,,,,,,,,,,,,,,,,,,,,,,,,,,,,,,,,,,,,,,,,
294535,2022-10-07_16h28.08.617,vts_reward_expectancy,2022.2.4,Win32,60.26637739,Chrome,1368,912,,,a,0.9857,10,312,1,1,2,14,11,1,0,0,0,1,0,0,1,0,star,hexagon,,,,,,,,,,,,,,,,,,,,,,,,,,,,,,,,,,,,,,,,,,,,,,,,,,,,,,
294535,2022-10-07_16h28.08.617,vts_reward_expectancy,2022.2.4,Win32,60.26637739,Chrome,1368,912,,,l,1.4545,1,313,1,1,3,15,8,1,0,0,1,0,0,0,0,1,hexagon,star,,,,,,,,,,,,,,,,,,,,,,,,,,,,,,,,,,,,,,,,,,,,,,,,,,,,,,
294535,2022-10-07_16h28.08.617,vts_reward_expectancy,2022.2.4,Win32,60.26637739,Chrome,1368,912,,,a,0.7511,1,314,1,1,4,16,2,1,1,0,0,0,0,0,0,1,triangle,star,,,,,,,,,,,,,,,,,,,,,,,,,,,,,,,,,,,,,,,,,,,,,,,,,,,,,,
294535,2022-10-07_16h28.08.617,vts_reward_expectancy,2022.2.4,Win32,60.26637739,Chrome,1368,912,,,l,2.3195,1,315,1,1,5,17,0,1,1,0,0,0,0,1,0,0,triangle,circle,,,,,,,,,,,,,,,,,,,,,,,,,,,,,,,,,,,,,,,,,,,,,,,,,,,,,,
294535,2022-10-07_16h28.08.617,vts_reward_expectancy,2022.2.4,Win32,60.26637739,Chrome,1368,912,,,a,1.9191,10,325,1,1,6,18,3,1,0,1,0,0,1,0,0,0,circle,triangle,,,,,,,,,,,,,,,,,,,,,,,,,,,,,,,,,,,,,,,,,,,,,,,,,,,,,,
294535,2022-10-07_16h28.08.617,vts_reward_expectancy,2022.2.4,Win32,60.26637739,Chrome,1368,912,,,a,1.2852,1,326,1,1,7,19,1,1,1,0,0,0,0,0,1,0,triangle,hexagon,,,,,,,,,,,,,,,,,,,,,,,,,,,,,,,,,,,,,,,,,,,,,,,,,,,,,,
294535,2022-10-07_16h28.08.617,vts_reward_expectancy,2022.2.4,Win32,60.26637739,Chrome,1368,912,,,a,1.8523,10,336,1,1,8,20,4,1,0,1,0,0,0,0,1,0,circle,hexagon,,,,,,,,,,,,,,,,,,,,,,,,,,,,,,,,,,,,,,,,,,,,,,,,,,,,,,
294535,2022-10-07_16h28.08.617,vts_reward_expectancy,2022.2.4,Win32,60.26637739,Chrome,1368,912,,,a,2.2361,1,337,1,1,9,21,6,1,0,0,1,0,1,0,0,0,hexagon,triangle,,,,,,,,,,,,,,,,,,,,,,,,,,,,,,,,,,,,,,,,,,,,,,,,,,,,,,
294535,2022-10-07_16h28.08.617,vts_reward_expectancy,2022.2.4,Win32,60.26637739,Chrome,1368,912,,,l,0.7848,10,347,1,1,10,22,10,1,0,0,0,1,0,1,0,0,star ,circle,,,,,,,,,,,,,,,,,,,,,,,,,,,,,,,,,,,,,,,,,,,,,,,,,,,,,,
294535,2022-10-07_16h28.08.617,vts_reward_expectancy,2022.2.4,Win32,60.26637739,Chrome,1368,912,,,l,0.8846,10,357,1,1,11,23,7,1,0,0,1,0,0,1,0,0,hexagon,circle,,,,,,,,,,,,,,,,,,,,,,,,,,,,,,,,,,,,,,,,,,,,,,,,,,,,,,
294535,2022-10-07_16h28.08.617,vts_reward_expectancy,2022.2.4,Win32,60.26637739,Chrome,1368,912,,,l,2.2859,10,367,1,2,0,24,9,1,0,0,0,1,1,0,0,0,star,triangle,,,,,,,,,,,,,,,,,,,,,,,,,,,,,,,,,,,,,,,,,,,,,,,,,,,,,,
294535,2022-10-07_16h28.08.617,vts_reward_expectancy,2022.2.4,Win32,60.26637739,Chrome,1368,912,,,a,0.9351,1,368,1,2,1,25,2,1,1,0,0,0,0,0,0,1,triangle,star,,,,,,,,,,,,,,,,,,,,,,,,,,,,,,,,,,,,,,,,,,,,,,,,,,,,,,
294535,2022-10-07_16h28.08.617,vts_reward_expectancy,2022.2.4,Win32,60.26637739,Chrome,1368,912,,,l,1.3357,1,369,1,2,2,26,8,1,0,0,1,0,0,0,0,1,hexagon,star,,,,,,,,,,,,,,,,,,,,,,,,,,,,,,,,,,,,,,,,,,,,,,,,,,,,,,
294535,2022-10-07_16h28.08.617,vts_reward_expectancy,2022.2.4,Win32,60.26637739,Chrome,1368,912,,,l,3.7198,10,379,1,2,3,27,3,1,0,1,0,0,1,0,0,0,circle,triangle,,,,,,,,,,,,,,,,,,,,,,,,,,,,,,,,,,,,,,,,,,,,,,,,,,,,,,
294535,2022-10-07_16h28.08.617,vts_reward_expectancy,2022.2.4,Win32,60.26637739,Chrome,1368,912,,,l,2.4194,10,389,1,2,4,28,6,1,0,0,1,0,1,0,0,0,hexagon,triangle,,,,,,,,,,,,,,,,,,,,,,,,,,,,,,,,,,,,,,,,,,,,,,,,,,,,,,
294535,2022-10-07_16h28.08.617,vts_reward_expectancy,2022.2.4,Win32,60.26637739,Chrome,1368,912,,,l,2.2192,1,390,1,2,5,29,5,1,0,1,0,0,0,0,0,1,circle,star,,,,,,,,,,,,,,,,,,,,,,,,,,,,,,,,,,,,,,,,,,,,,,,,,,,,,,
294535,2022-10-07_16h28.08.617,vts_reward_expectancy,2022.2.4,Win32,60.26637739,Chrome,1368,912,,,a,1.052,1,391,1,2,6,30,11,1,0,0,0,1,0,0,1,0,star,hexagon,,,,,,,,,,,,,,,,,,,,,,,,,,,,,,,,,,,,,,,,,,,,,,,,,,,,,,
294535,2022-10-07_16h28.08.617,vts_reward_expectancy,2022.2.4,Win32,60.26637739,Chrome,1368,912,,,a,1.1548,10,401,1,2,7,31,1,1,1,0,0,0,0,0,1,0,triangle,hexagon,,,,,,,,,,,,,,,,,,,,,,,,,,,,,,,,,,,,,,,,,,,,,,,,,,,,,,
294535,2022-10-07_16h28.08.617,vts_reward_expectancy,2022.2.4,Win32,60.26637739,Chrome,1368,912,,,l,1.402,10,411,1,2,8,32,10,1,0,0,0,1,0,1,0,0,star ,circle,,,,,,,,,,,,,,,,,,,,,,,,,,,,,,,,,,,,,,,,,,,,,,,,,,,,,,
294535,2022-10-07_16h28.08.617,vts_reward_expectancy,2022.2.4,Win32,60.26637739,Chrome,1368,912,,,a,1.6525,1,412,1,2,9,33,0,1,1,0,0,0,0,1,0,0,triangle,circle,,,,,,,,,,,,,,,,,,,,,,,,,,,,,,,,,,,,,,,,,,,,,,,,,,,,,,
294535,2022-10-07_16h28.08.617,vts_reward_expectancy,2022.2.4,Win32,60.26637739,Chrome,1368,912,,,a,1.0185,10,422,1,2,10,34,4,1,0,1,0,0,0,0,1,0,circle,hexagon,,,,,,,,,,,,,,,,,,,,,,,,,,,,,,,,,,,,,,,,,,,,,,,,,,,,,,
294535,2022-10-07_16h28.08.617,vts_reward_expectancy,2022.2.4,Win32,60.26637739,Chrome,1368,912,,,l,0.9831,1,423,1,2,11,35,7,1,0,0,1,0,0,1,0,0,hexagon,circle,,,,,,,,,,,,,,,,,,,,,,,,,,,,,,,,,,,,,,,,,,,,,,,,,,,,,,
294535,2022-10-07_16h28.08.617,vts_reward_expectancy,2022.2.4,Win32,60.26637739,Chrome,1368,912,,,a,3.3457,10,433,2,0,0,0,4,1,0,1,0,0,0,0,1,0,circle,hexagon,,,,,,,,,,,,,,,,,,,,,,,,,,,,,,,,,,,,,,,,,,,,,,,,,,,,,,
294535,2022-10-07_16h28.08.617,vts_reward_expectancy,2022.2.4,Win32,60.26637739,Chrome,1368,912,,,l,27.0191,10,443,2,0,1,1,7,1,0,0,1,0,0,1,0,0,hexagon,circle,,,,,,,,,,,,,,,,,,,,,,,,,,,,,,,,,,,,,,,,,,,,,,,,,,,,,,
294535,2022-10-07_16h28.08.617,vts_reward_expectancy,2022.2.4,Win32,60.26637739,Chrome,1368,912,,,l,0.8849,1,444,2,0,2,2,10,1,0,0,0,1,0,1,0,0,star ,circle,,,,,,,,,,,,,,,,,,,,,,,,,,,,,,,,,,,,,,,,,,,,,,,,,,,,,,
294535,2022-10-07_16h28.08.617,vts_reward_expectancy,2022.2.4,Win32,60.26637739,Chrome,1368,912,,,a,0.6185,1,445,2,0,3,3,8,1,0,0,1,0,0,0,0,1,hexagon,star,,,,,,,,,,,,,,,,,,,,,,,,,,,,,,,,,,,,,,,,,,,,,,,,,,,,,,
294535,2022-10-07_16h28.08.617,vts_reward_expectancy,2022.2.4,Win32,60.26637739,Chrome,1368,912,,,l,1.4524,10,455,2,0,4,4,2,1,1,0,0,0,0,0,0,1,triangle,star,,,,,,,,,,,,,,,,,,,,,,,,,,,,,,,,,,,,,,,,,,,,,,,,,,,,,,
294535,2022-10-07_16h28.08.617,vts_reward_expectancy,2022.2.4,Win32,60.26637739,Chrome,1368,912,,,a,1.4086,10,465,2,0,5,5,3,1,0,1,0,0,1,0,0,0,circle,triangle,,,,,,,,,,,,,,,,,,,,,,,,,,,,,,,,,,,,,,,,,,,,,,,,,,,,,,
294535,2022-10-07_16h28.08.617,vts_reward_expectancy,2022.2.4,Win32,60.26637739,Chrome,1368,912,,,l,1.4367,1,466,2,0,6,6,6,1,0,0,1,0,1,0,0,0,hexagon,triangle,,,,,,,,,,,,,,,,,,,,,,,,,,,,,,,,,,,,,,,,,,,,,,,,,,,,,,
294535,2022-10-07_16h28.08.617,vts_reward_expectancy,2022.2.4,Win32,60.26637739,Chrome,1368,912,,,a,15.2772,1,467,2,0,7,7,11,1,0,0,0,1,0,0,1,0,star,hexagon,,,,,,,,,,,,,,,,,,,,,,,,,,,,,,,,,,,,,,,,,,,,,,,,,,,,,,
294535,2022-10-07_16h28.08.617,vts_reward_expectancy,2022.2.4,Win32,60.26637739,Chrome,1368,912,,,a,0.7007,10,477,2,0,8,8,5,1,0,1,0,0,0,0,0,1,circle,star,,,,,,,,,,,,,,,,,,,,,,,,,,,,,,,,,,,,,,,,,,,,,,,,,,,,,,
294535,2022-10-07_16h28.08.617,vts_reward_expectancy,2022.2.4,Win32,60.26637739,Chrome,1368,912,,,a,1.9361,10,487,2,0,9,9,0,1,1,0,0,0,0,1,0,0,triangle,circle,,,,,,,,,,,,,,,,,,,,,,,,,,,,,,,,,,,,,,,,,,,,,,,,,,,,,,
294535,2022-10-07_16h28.08.617,vts_reward_expectancy,2022.2.4,Win32,60.26637739,Chrome,1368,912,,,a,2.7698,10,497,2,0,10,10,1,1,1,0,0,0,0,0,1,0,triangle,hexagon,,,,,,,,,,,,,,,,,,,,,,,,,,,,,,,,,,,,,,,,,,,,,,,,,,,,,,
294535,2022-10-07_16h28.08.617,vts_reward_expectancy,2022.2.4,Win32,60.26637739,Chrome,1368,912,,,l,2.1094,1,498,2,0,11,11,9,1,0,0,0,1,1,0,0,0,star,triangle,,,,,,,,,,,,,,,,,,,,,,,,,,,,,,,,,,,,,,,,,,,,,,,,,,,,,,
294535,2022-10-07_16h28.08.617,vts_reward_expectancy,2022.2.4,Win32,60.26637739,Chrome,1368,912,,,a,3.8537,1,499,2,1,0,12,1,1,1,0,0,0,0,0,1,0,triangle,hexagon,,,,,,,,,,,,,,,,,,,,,,,,,,,,,,,,,,,,,,,,,,,,,,,,,,,,,,
294535,2022-10-07_16h28.08.617,vts_reward_expectancy,2022.2.4,Win32,60.26637739,Chrome,1368,912,,,l,1.8021,1,500,2,1,1,13,6,1,0,0,1,0,1,0,0,0,hexagon,triangle,,,,,,,,,,,,,,,,,,,,,,,,,,,,,,,,,,,,,,,,,,,,,,,,,,,,,,
294535,2022-10-07_16h28.08.617,vts_reward_expectancy,2022.2.4,Win32,60.26637739,Chrome,1368,912,,,a,46.5006,10,510,2,1,2,14,3,1,0,1,0,0,1,0,0,0,circle,triangle,,,,,,,,,,,,,,,,,,,,,,,,,,,,,,,,,,,,,,,,,,,,,,,,,,,,,,
294535,2022-10-07_16h28.08.617,vts_reward_expectancy,2022.2.4,Win32,60.26637739,Chrome,1368,912,,,l,2.502,10,520,2,1,3,15,8,1,0,0,1,0,0,0,0,1,hexagon,star,,,,,,,,,,,,,,,,,,,,,,,,,,,,,,,,,,,,,,,,,,,,,,,,,,,,,,
294535,2022-10-07_16h28.08.617,vts_reward_expectancy,2022.2.4,Win32,60.26637739,Chrome,1368,912,,,l,2.2195,10,530,2,1,4,16,7,1,0,0,1,0,0,1,0,0,hexagon,circle,,,,,,,,,,,,,,,,,,,,,,,,,,,,,,,,,,,,,,,,,,,,,,,,,,,,,,
294535,2022-10-07_16h28.08.617,vts_reward_expectancy,2022.2.4,Win32,60.26637739,Chrome,1368,912,,,a,2.2859,1,531,2,1,5,17,0,1,1,0,0,0,0,1,0,0,triangle,circle,,,,,,,,,,,,,,,,,,,,,,,,,,,,,,,,,,,,,,,,,,,,,,,,,,,,,,
294535,2022-10-07_16h28.08.617,vts_reward_expectancy,2022.2.4,Win32,60.26637739,Chrome,1368,912,,,a,0.8179,1,532,2,1,6,18,9,1,0,0,0,1,1,0,0,0,star,triangle,,,,,,,,,,,,,,,,,,,,,,,,,,,,,,,,,,,,,,,,,,,,,,,,,,,,,,
294535,2022-10-07_16h28.08.617,vts_reward_expectancy,2022.2.4,Win32,60.26637739,Chrome,1368,912,,,l,0.7884,1,533,2,1,7,19,10,1,0,0,0,1,0,1,0,0,star ,circle,,,,,,,,,,,,,,,,,,,,,,,,,,,,,,,,,,,,,,,,,,,,,,,,,,,,,,
294535,2022-10-07_16h28.08.617,vts_reward_expectancy,2022.2.4,Win32,60.26637739,Chrome,1368,912,,,a,0.5849,1,534,2,1,8,20,2,1,1,0,0,0,0,0,0,1,triangle,star,,,,,,,,,,,,,,,,,,,,,,,,,,,,,,,,,,,,,,,,,,,,,,,,,,,,,,
294535,2022-10-07_16h28.08.617,vts_reward_expectancy,2022.2.4,Win32,60.26637739,Chrome,1368,912,,,a,0.6578,10,544,2,1,9,21,5,1,0,1,0,0,0,0,0,1,circle,star,,,,,,,,,,,,,,,,,,,,,,,,,,,,,,,,,,,,,,,,,,,,,,,,,,,,,,
294535,2022-10-07_16h28.08.617,vts_reward_expectancy,2022.2.4,Win32,60.26637739,Chrome,1368,912,,,a,1.0583,1,545,2,1,10,22,4,1,0,1,0,0,0,0,1,0,circle,hexagon,,,,,,,,,,,,,,,,,,,,,,,,,,,,,,,,,,,,,,,,,,,,,,,,,,,,,,
294535,2022-10-07_16h28.08.617,vts_reward_expectancy,2022.2.4,Win32,60.26637739,Chrome,1368,912,,,a,1.7846,1,546,2,1,11,23,11,1,0,0,0,1,0,0,1,0,star,hexagon,,,,,,,,,,,,,,,,,,,,,,,,,,,,,,,,,,,,,,,,,,,,,,,,,,,,,,
294535,2022-10-07_16h28.08.617,vts_reward_expectancy,2022.2.4,Win32,60.26637739,Chrome,1368,912,,,l,1.0348,10,556,2,2,0,24,2,1,1,0,0,0,0,0,0,1,triangle,star,,,,,,,,,,,,,,,,,,,,,,,,,,,,,,,,,,,,,,,,,,,,,,,,,,,,,,
294535,2022-10-07_16h28.08.617,vts_reward_expectancy,2022.2.4,Win32,60.26637739,Chrome,1368,912,,,a,1.1689,1,557,2,2,1,25,11,1,0,0,0,1,0,0,1,0,star,hexagon,,,,,,,,,,,,,,,,,,,,,,,,,,,,,,,,,,,,,,,,,,,,,,,,,,,,,,
294535,2022-10-07_16h28.08.617,vts_reward_expectancy,2022.2.4,Win32,60.26637739,Chrome,1368,912,,,a,2.353,1,558,2,2,2,26,6,1,0,0,1,0,1,0,0,0,hexagon,triangle,,,,,,,,,,,,,,,,,,,,,,,,,,,,,,,,,,,,,,,,,,,,,,,,,,,,,,
294535,2022-10-07_16h28.08.617,vts_reward_expectancy,2022.2.4,Win32,60.26637739,Chrome,1368,912,,,a,1.435,1,559,2,2,3,27,3,1,0,1,0,0,1,0,0,0,circle,triangle,,,,,,,,,,,,,,,,,,,,,,,,,,,,,,,,,,,,,,,,,,,,,,,,,,,,,,
294535,2022-10-07_16h28.08.617,vts_reward_expectancy,2022.2.4,Win32,60.26637739,Chrome,1368,912,,,l,0.6848,1,560,2,2,4,28,8,1,0,0,1,0,0,0,0,1,hexagon,star,,,,,,,,,,,,,,,,,,,,,,,,,,,,,,,,,,,,,,,,,,,,,,,,,,,,,,
294535,2022-10-07_16h28.08.617,vts_reward_expectancy,2022.2.4,Win32,60.26637739,Chrome,1368,912,,,a,0.9182,1,561,2,2,5,29,9,1,0,0,0,1,1,0,0,0,star,triangle,,,,,,,,,,,,,,,,,,,,,,,,,,,,,,,,,,,,,,,,,,,,,,,,,,,,,,
294535,2022-10-07_16h28.08.617,vts_reward_expectancy,2022.2.4,Win32,60.26637739,Chrome,1368,912,,,l,2.0528,10,571,2,2,6,30,7,1,0,0,1,0,0,1,0,0,hexagon,circle,,,,,,,,,,,,,,,,,,,,,,,,,,,,,,,,,,,,,,,,,,,,,,,,,,,,,,
294535,2022-10-07_16h28.08.617,vts_reward_expectancy,2022.2.4,Win32,60.26637739,Chrome,1368,912,,,a,1.6527,10,581,2,2,7,31,4,1,0,1,0,0,0,0,1,0,circle,hexagon,,,,,,,,,,,,,,,,,,,,,,,,,,,,,,,,,,,,,,,,,,,,,,,,,,,,,,
294535,2022-10-07_16h28.08.617,vts_reward_expectancy,2022.2.4,Win32,60.26637739,Chrome,1368,912,,,a,2.7021,1,582,2,2,8,32,1,1,1,0,0,0,0,0,1,0,triangle,hexagon,,,,,,,,,,,,,,,,,,,,,,,,,,,,,,,,,,,,,,,,,,,,,,,,,,,,,,
294535,2022-10-07_16h28.08.617,vts_reward_expectancy,2022.2.4,Win32,60.26637739,Chrome,1368,912,,,a,1.6542,1,583,2,2,9,33,0,1,1,0,0,0,0,1,0,0,triangle,circle,,,,,,,,,,,,,,,,,,,,,,,,,,,,,,,,,,,,,,,,,,,,,,,,,,,,,,
294535,2022-10-07_16h28.08.617,vts_reward_expectancy,2022.2.4,Win32,60.26637739,Chrome,1368,912,,,a,1.101,1,584,2,2,10,34,10,1,0,0,0,1,0,1,0,0,star ,circle,,,,,,,,,,,,,,,,,,,,,,,,,,,,,,,,,,,,,,,,,,,,,,,,,,,,,,
294535,2022-10-07_16h28.08.617,vts_reward_expectancy,2022.2.4,Win32,60.26637739,Chrome,1368,912,,,a,1.3184,10,594,2,2,11,35,5,1,0,1,0,0,0,0,0,1,circle,star,,,,,,,,,,,,,,,,,,,,,,,,,,,,,,,,,,,,,,,,,,,,,,,,,,,,,,
294535,2022-10-07_16h28.08.617,vts_reward_expectancy,2022.2.4,Win32,60.26637739,Chrome,1368,912,,,,,,,,,,,,,,,,,,,,,,,F,139,hexagon,0,0,,0,0,0,0,0,1,,,,,,,,,,,,,,,,,,,,,,,,,,,,,,,,,,,,,,,,,,
294535,2022-10-07_16h28.08.617,vts_reward_expectancy,2022.2.4,Win32,60.26637739,Chrome,1368,912,,,,,,,,,,,,,,,,,,,,,,,U,181,triangle,1,1,f,0,1,0,1,0,1,1.0204,,,,,,,,,,,,,,,,,,,,,,,,,,,,,,,,,,,,,,,,,
294535,2022-10-07_16h28.08.617,vts_reward_expectancy,2022.2.4,Win32,60.26637739,Chrome,1368,912,,,,,,,,,,,,,,,,,,,,,,,Y,160,star,1,0,f,0,2,0,2,0,1,0.6649,,,,,,,,,,,,,,,,,,,,,,,,,,,,,,,,,,,,,,,,,
294535,2022-10-07_16h28.08.617,vts_reward_expectancy,2022.2.4,Win32,60.26637739,Chrome,1368,912,,,,,,,,,,,,,,,,,,,,,,,D,125,circle,1,0,d,0,3,0,3,0,1,0.6337,,,,,,,,,,,,,,,,,,,,,,,,,,,,,,,,,,,,,,,,,
294535,2022-10-07_16h28.08.617,vts_reward_expectancy,2022.2.4,Win32,60.26637739,Chrome,1368,912,,,,,,,,,,,,,,,,,,,,,,,B,146,hexagon,1,0,d,0,4,0,4,0,1,0.8018,,,,,,,,,,,,,,,,,,,,,,,,,,,,,,,,,,,,,,,,,
294535,2022-10-07_16h28.08.617,vts_reward_expectancy,2022.2.4,Win32,60.26637739,Chrome,1368,912,,,,,,,,,,,,,,,,,,,,,,,S,174,triangle,1,0,f,0,5,0,5,0,1,0.7514,,,,,,,,,,,,,,,,,,,,,,,,,,,,,,,,,,,,,,,,,
294535,2022-10-07_16h28.08.617,vts_reward_expectancy,2022.2.4,Win32,60.26637739,Chrome,1368,912,,,,,,,,,,,,,,,,,,,,,,,W,132,star,1,0,f,0,6,0,6,0,1,0.6209,,,,,,,,,,,,,,,,,,,,,,,,,,,,,,,,,,,,,,,,,
294535,2022-10-07_16h28.08.617,vts_reward_expectancy,2022.2.4,Win32,60.26637739,Chrome,1368,912,,,,,,,,,,,,,,,,,,,,,,,H,167,circle,1,0,d,0,7,0,7,0,1,0.6173,,,,,,,,,,,,,,,,,,,,,,,,,,,,,,,,,,,,,,,,,
294535,2022-10-07_16h28.08.617,vts_reward_expectancy,2022.2.4,Win32,60.26637739,Chrome,1368,912,,,,,,,,,,,,,,,,,,,,,,,F,139,hexagon,1,0,d,0,8,0,8,0,1,0.6551,,,,,,,,,,,,,,,,,,,,,,,,,,,,,,,,,,,,,,,,,
294535,2022-10-07_16h28.08.617,vts_reward_expectancy,2022.2.4,Win32,60.26637739,Chrome,1368,912,,,,,,,,,,,,,,,,,,,,,,,U,181,circle,1,0,f,0,9,0,9,0,1,0.6715,,,,,,,,,,,,,,,,,,,,,,,,,,,,,,,,,,,,,,,,,
294535,2022-10-07_16h28.08.617,vts_reward_expectancy,2022.2.4,Win32,60.26637739,Chrome,1368,912,,,,,,,,,,,,,,,,,,,,,,,W,181,triangle,1,0,,1,,,,,,,k,0.8513,0,0,0,0,1,,,,,,,,,,,,,,,,,,,,,,,,,,,,,,,,,,
294535,2022-10-07_16h28.08.617,vts_reward_expectancy,2022.2.4,Win32,60.26637739,Chrome,1368,912,,,,,,,,,,,,,,,,,,,,,,,S,132,star,1,0,,1,,,,,,,j,0.7522,1,0,1,0,1,,,,,,,,,,,,,,,,,,,,,,,,,,,,,,,,,,
294535,2022-10-07_16h28.08.617,vts_reward_expectancy,2022.2.4,Win32,60.26637739,Chrome,1368,912,,,,,,,,,,,,,,,,,,,,,,,B,139,hexagon,1,0,,1,,,,,,,j,0.9347,2,0,2,0,1,,,,,,,,,,,,,,,,,,,,,,,,,,,,,,,,,,
294535,2022-10-07_16h28.08.617,vts_reward_expectancy,2022.2.4,Win32,60.26637739,Chrome,1368,912,,,,,,,,,,,,,,,,,,,,,,,F,160,circle,1,0,,1,,,,,,,k,0.6753,3,0,3,0,1,,,,,,,,,,,,,,,,,,,,,,,,,,,,,,,,,,
294535,2022-10-07_16h28.08.617,vts_reward_expectancy,2022.2.4,Win32,60.26637739,Chrome,1368,912,,,,,,,,,,,,,,,,,,,,,,,U,174,triangle,1,0,,1,,,,,,,k,0.7536,4,0,4,0,1,,,,,,,,,,,,,,,,,,,,,,,,,,,,,,,,,,
294535,2022-10-07_16h28.08.617,vts_reward_expectancy,2022.2.4,Win32,60.26637739,Chrome,1368,912,,,,,,,,,,,,,,,,,,,,,,,D,167,star,1,0,,1,,,,,,,k,0.7012,5,0,5,0,1,,,,,,,,,,,,,,,,,,,,,,,,,,,,,,,,,,
294535,2022-10-07_16h28.08.617,vts_reward_expectancy,2022.2.4,Win32,60.26637739,Chrome,1368,912,,,,,,,,,,,,,,,,,,,,,,,Y,125,hexagon,1,0,,1,,,,,,,j,0.6015,6,0,6,0,1,,,,,,,,,,,,,,,,,,,,,,,,,,,,,,,,,,
294535,2022-10-07_16h28.08.617,vts_reward_expectancy,2022.2.4,Win32,60.26637739,Chrome,1368,912,,,,,,,,,,,,,,,,,,,,,,,H,146,circle,1,0,,1,,,,,,,j,1.2679,7,0,7,0,1,,,,,,,,,,,,,,,,,,,,,,,,,,,,,,,,,,
294535,2022-10-07_16h28.08.617,vts_reward_expectancy,2022.2.4,Win32,60.26637739,Chrome,1368,912,,,,,,,,,,,,,,,,,,,,,,,W,181,hexagon,1,0,,1,,,,,,,k,0.9007,8,0,8,0,1,,,,,,,,,,,,,,,,,,,,,,,,,,,,,,,,,,
294535,2022-10-07_16h28.08.617,vts_reward_expectancy,2022.2.4,Win32,60.26637739,Chrome,1368,912,,,,,,,,,,,,,,,,,,,,,,,S,132,star,1,0,,1,,,,,,,j,0.7011,9,0,9,0,1,,,,,,,,,,,,,,,,,,,,,,,,,,,,,,,,,,
294535,2022-10-07_16h28.08.617,vts_reward_expectancy,2022.2.4,Win32,60.26637739,Chrome,1368,912,,,,,0,594,,,,,,,,,,,,,,,,,F,167,triangle,0,0,,2,,,,,,,,,,,,,,-1,number,NA,j,1.0211,vtsPrac,0,0,0,0,1,,,,,,,,,,,,,,,,,,,,,,,
294535,2022-10-07_16h28.08.617,vts_reward_expectancy,2022.2.4,Win32,60.26637739,Chrome,1368,912,,,,,0,594,,,,,,,,,,,,,,,,,W,139,hexagon,1,1,,2,,,,,,,,,,,,,,repeat,number,numRpt,j,0.6849,vtsPrac,1,0,1,0,1,,,,,,,,,,,,,,,,,,,,,,,
294535,2022-10-07_16h28.08.617,vts_reward_expectancy,2022.2.4,Win32,60.26637739,Chrome,1368,912,,,,,0,594,,,,,,,,,,,,,,,,,D,146,triangle,1,0,,2,,,,,,,,,,,,,,switch,letter,lettSwt,d,0.5034,vtsPrac,2,0,2,0,1,,,,,,,,,,,,,,,,,,,,,,,
294535,2022-10-07_16h28.08.617,vts_reward_expectancy,2022.2.4,Win32,60.26637739,Chrome,1368,912,,,,,0,594,,,,,,,,,,,,,,,,,B,125,hexagon,1,0,,2,,,,,,,,,,,,,,switch,number,numSwt,j,0.8681,vtsPrac,3,0,3,0,1,,,,,,,,,,,,,,,,,,,,,,,
294535,2022-10-07_16h28.08.617,vts_reward_expectancy,2022.2.4,Win32,60.26637739,Chrome,1368,912,,,,,0,594,,,,,,,,,,,,,,,,,F,167,hexagon,1,0,,2,,,,,,,,,,,,,,switch,letter,lettSwt,d,0.819,vtsPrac,4,0,4,0,1,,,,,,,,,,,,,,,,,,,,,,,
294535,2022-10-07_16h28.08.617,vts_reward_expectancy,2022.2.4,Win32,60.26637739,Chrome,1368,912,,,,,0,594,,,,,,,,,,,,,,,,,W,139,star,1,0,,2,,,,,,,,,,,,,,repeat,letter,lettRpt,f,1.0683,vtsPrac,5,0,5,0,1,,,,,,,,,,,,,,,,,,,,,,,
294535,2022-10-07_16h28.08.617,vts_reward_expectancy,2022.2.4,Win32,60.26637739,Chrome,1368,912,,,,,0,594,,,,,,,,,,,,,,,,,D,146,circle,1,0,,2,,,,,,,,,,,,,,repeat,letter,lettRpt,d,1.1686,vtsPrac,6,0,6,0,1,,,,,,,,,,,,,,,,,,,,,,,
294535,2022-10-07_16h28.08.617,vts_reward_expectancy,2022.2.4,Win32,60.26637739,Chrome,1368,912,,,,,0,594,,,,,,,,,,,,,,,,,B,125,triangle,1,0,,2,,,,,,,,,,,,,,switch,number,numSwt,j,0.6016,vtsPrac,7,0,7,0,1,,,,,,,,,,,,,,,,,,,,,,,
294535,2022-10-07_16h28.08.617,vts_reward_expectancy,2022.2.4,Win32,60.26637739,Chrome,1368,912,,,,,0,594,,,,,,,,,,,,,,,,,S,132,triangle,1,0,,2,,,,,,,,,,,,,,repeat,number,numRpt,j,0.837,vtsPrac,8,0,8,0,1,,,,,,,,,,,,,,,,,,,,,,,
294535,2022-10-07_16h28.08.617,vts_reward_expectancy,2022.2.4,Win32,60.26637739,Chrome,1368,912,,,,,0,594,,,,,,,,,,,,,,,,,U,125,circle,1,0,,2,,,,,,,,,,,,,,switch,letter,lettSwt,f,0.668,vtsPrac,9,0,9,0,1,,,,,,,,,,,,,,,,,,,,,,,
294535,2022-10-07_16h28.08.617,vts_reward_expectancy,2022.2.4,Win32,60.26637739,Chrome,1368,912,,,,,0,594,,,,,,,,,,,,,,,,,H,139,hexagon,1,0,,2,,,,,,,,,,,,,,repeat,letter,lettRpt,d,0.5674,vtsPrac,10,0,10,0,1,,,,,,,,,,,,,,,,,,,,,,,
294535,2022-10-07_16h28.08.617,vts_reward_expectancy,2022.2.4,Win32,60.26637739,Chrome,1368,912,,,,,0,594,,,,,,,,,,,,,,,,,B,160,circle,1,0,,2,,,,,,,,,,,,,,switch,number,numSwt,k,0.5849,vtsPrac,11,0,11,0,1,,,,,,,,,,,,,,,,,,,,,,,
294535,2022-10-07_16h28.08.617,vts_reward_expectancy,2022.2.4,Win32,60.26637739,Chrome,1368,912,,,,,0,594,,,,,,,,,,,,,,,,,S,125,star,1,0,,2,,,,,,,,,,,,,,repeat,number,numRpt,j,0.7503,vtsPrac,12,0,12,0,1,,,,,,,,,,,,,,,,,,,,,,,
294535,2022-10-07_16h28.08.617,vts_reward_expectancy,2022.2.4,Win32,60.26637739,Chrome,1368,912,,,,,0,594,,,,,,,,,,,,,,,,,Y,160,circle,1,0,,2,,,,,,,,,,,,,,repeat,number,numRpt,k,0.8335,vtsPrac,13,0,13,0,1,,,,,,,,,,,,,,,,,,,,,,,
294535,2022-10-07_16h28.08.617,vts_reward_expectancy,2022.2.4,Win32,60.26637739,Chrome,1368,912,,,,,0,594,,,,,,,,,,,,,,,,,B,181,hexagon,1,0,,2,,,,,,,,,,,,,,switch,letter,lettSwt,d,0.685,vtsPrac,14,0,14,0,1,,,,,,,,,,,,,,,,,,,,,,,
294535,2022-10-07_16h28.08.617,vts_reward_expectancy,2022.2.4,Win32,60.26637739,Chrome,1368,912,,,,,0,594,,,,,,,,,,,,,,,,,U,174,circle,1,0,,2,,,,,,,,,,,,,,repeat,letter,lettRpt,f,0.6677,vtsPrac,15,0,15,0,1,,,,,,,,,,,,,,,,,,,,,,,
294535,2022-10-07_16h28.08.617,vts_reward_expectancy,2022.2.4,Win32,60.26637739,Chrome,1368,912,,,,,,,,,,,,,,,,,,,,,,,,,,,,,,,,,,,,,,,,,,,,,,,,,,,,,,,,,,,,,,,,,,,,,,,,,,,,
294535,2022-10-07_16h28.08.617,vts_reward_expectancy,2022.2.4,Win32,60.26637739,Chrome,1368,912,,,,,,,,,,,,,,,,,,,,,,,,,,,,,,,,,,,,,,,,,,,,,,,,,,,,,,,,,,,,,,,,,,,,,,,,,,,,
294535,2022-10-07_16h28.08.617,vts_reward_expectancy,2022.2.4,Win32,60.26637739,Chrome,1368,912,,,,,0,594,,,,,,,,,,,,,,,,,H,167,triangle,1,0,,,,,,,,,,,,,,,,repeat,letter,lettRpt,d,1.2345,noRew,,,,,,0,0,0,0,0,1,,,,,,,,,,,,,,,,,
294535,2022-10-07_16h28.08.617,vts_reward_expectancy,2022.2.4,Win32,60.26637739,Chrome,1368,912,,,,,0,594,,,,,,,,,,,,,,,,,S,125,star,1,0,,,,,,,,,,,,,,,,repeat,letter,lettRpt,f,0.6341,noRew,,,,,,0,1,0,1,0,1,,,,,,,,,,,,,,,,,
294535,2022-10-07_16h28.08.617,vts_reward_expectancy,2022.2.4,Win32,60.26637739,Chrome,1368,912,,,,,0,594,,,,,,,,,,,,,,,,,D,146,triangle,1,0,,,,,,,,,,,,,,,,switch,number,numSwt,j,1.1835,noRew,,,,,,0,2,0,2,0,1,,,,,,,,,,,,,,,,,
294535,2022-10-07_16h28.08.617,vts_reward_expectancy,2022.2.4,Win32,60.26637739,Chrome,1368,912,,,,,0,594,,,,,,,,,,,,,,,,,Y,181,star,1,0,,,,,,,,,,,,,,,,repeat,number,numRpt,k,1.1517,noRew,,,,,,0,3,0,3,0,1,,,,,,,,,,,,,,,,,
294535,2022-10-07_16h28.08.617,vts_reward_expectancy,2022.2.4,Win32,60.26637739,Chrome,1368,912,,,,,0,594,,,,,,,,,,,,,,,,,H,167,circle,0,0,,,,,,,,,,,,,,,,repeat,number,NA,j,0.8505,noRew,,,,,,0,4,0,4,0,1,,,,,,,,,,,,,,,,,
294535,2022-10-07_16h28.08.617,vts_reward_expectancy,2022.2.4,Win32,60.26637739,Chrome,1368,912,,,,,0,594,,,,,,,,,,,,,,,,,S,125,star,1,1,,,,,,,,,,,,,,,,repeat,number,numRpt,j,1.2011,noRew,,,,,,0,5,0,5,0,1,,,,,,,,,,,,,,,,,
294535,2022-10-07_16h28.08.617,vts_reward_expectancy,2022.2.4,Win32,60.26637739,Chrome,1368,912,,,,,0,594,,,,,,,,,,,,,,,,,D,146,triangle,1,0,,,,,,,,,,,,,,,,repeat,number,numRpt,j,1.6512,noRew,,,,,,0,6,0,6,0,1,,,,,,,,,,,,,,,,,
294535,2022-10-07_16h28.08.617,vts_reward_expectancy,2022.2.4,Win32,60.26637739,Chrome,1368,912,,,,,0,594,,,,,,,,,,,,,,,,,Y,181,circle,1,0,,,,,,,,,,,,,,,,repeat,number,numRpt,k,1.52,noRew,,,,,,0,7,0,7,0,1,,,,,,,,,,,,,,,,,
294535,2022-10-07_16h28.08.617,vts_reward_expectancy,2022.2.4,Win32,60.26637739,Chrome,1368,912,,,,,0,594,,,,,,,,,,,,,,,,,B,160,triangle,1,0,,,,,,,,,,,,,,,,switch,letter,lettSwt,d,1.5318,noRew,,,,,,0,8,0,8,0,1,,,,,,,,,,,,,,,,,
294535,2022-10-07_16h28.08.617,vts_reward_expectancy,2022.2.4,Win32,60.26637739,Chrome,1368,912,,,,,0,594,,,,,,,,,,,,,,,,,D,181,star,1,0,,,,,,,,,,,,,,,,repeat,letter,lettRpt,d,1.4516,noRew,,,,,,0,9,0,9,0,1,,,,,,,,,,,,,,,,,
294535,2022-10-07_16h28.08.617,vts_reward_expectancy,2022.2.4,Win32,60.26637739,Chrome,1368,912,,,,,0,594,,,,,,,,,,,,,,,,,U,125,star,1,0,,,,,,,,,,,,,,,,repeat,letter,lettRpt,f,1.7355,noRew,,,,,,0,10,0,10,0,1,,,,,,,,,,,,,,,,,
294535,2022-10-07_16h28.08.617,vts_reward_expectancy,2022.2.4,Win32,60.26637739,Chrome,1368,912,,,,,0,594,,,,,,,,,,,,,,,,,Y,132,circle,1,0,,,,,,,,,,,,,,,,repeat,letter,lettRpt,f,1.3022,noRew,,,,,,0,11,0,11,0,1,,,,,,,,,,,,,,,,,
294535,2022-10-07_16h28.08.617,vts_reward_expectancy,2022.2.4,Win32,60.26637739,Chrome,1368,912,,,,,0,594,,,,,,,,,,,,,,,,,S,160,triangle,1,0,,,,,,,,,,,,,,,,switch,number,numSwt,k,1.5853,noRew,,,,,,0,12,0,12,0,1,,,,,,,,,,,,,,,,,
294535,2022-10-07_16h28.08.617,vts_reward_expectancy,2022.2.4,Win32,60.26637739,Chrome,1368,912,,,,,0,594,,,,,,,,,,,,,,,,,F,125,star,1,0,,,,,,,,,,,,,,,,repeat,number,numRpt,j,1.2846,noRew,,,,,,0,13,0,13,0,1,,,,,,,,,,,,,,,,,
294535,2022-10-07_16h28.08.617,vts_reward_expectancy,2022.2.4,Win32,60.26637739,Chrome,1368,912,,,,,0,594,,,,,,,,,,,,,,,,,D,174,star,1,0,,,,,,,,,,,,,,,,repeat,number,numRpt,k,1.7361,noRew,,,,,,0,14,0,14,0,1,,,,,,,,,,,,,,,,,
294535,2022-10-07_16h28.08.617,vts_reward_expectancy,2022.2.4,Win32,60.26637739,Chrome,1368,912,,,,,0,594,,,,,,,,,,,,,,,,,H,167,hexagon,1,0,,,,,,,,,,,,,,,,switch,letter,lettSwt,d,0.5511,noRew,,,,,,0,15,0,15,0,1,,,,,,,,,,,,,,,,,
294535,2022-10-07_16h28.08.617,vts_reward_expectancy,2022.2.4,Win32,60.26637739,Chrome,1368,912,,,,,0,594,,,,,,,,,,,,,,,,,B,174,triangle,1,0,,,,,,,,,,,,,,,,repeat,letter,lettRpt,d,0.8839,noRew,,,,,,0,16,0,16,0,1,,,,,,,,,,,,,,,,,
294535,2022-10-07_16h28.08.617,vts_reward_expectancy,2022.2.4,Win32,60.26637739,Chrome,1368,912,,,,,0,594,,,,,,,,,,,,,,,,,H,160,hexagon,1,0,,,,,,,,,,,,,,,,switch,number,numSwt,k,1.0503,noRew,,,,,,0,17,0,17,0,1,,,,,,,,,,,,,,,,,
294535,2022-10-07_16h28.08.617,vts_reward_expectancy,2022.2.4,Win32,60.26637739,Chrome,1368,912,,,,,0,594,,,,,,,,,,,,,,,,,Y,125,hexagon,1,0,,,,,,,,,,,,,,,,repeat,number,numRpt,j,0.7839,noRew,,,,,,0,18,0,18,0,1,,,,,,,,,,,,,,,,,
294535,2022-10-07_16h28.08.617,vts_reward_expectancy,2022.2.4,Win32,60.26637739,Chrome,1368,912,,,,,0,594,,,,,,,,,,,,,,,,,D,167,triangle,1,0,,,,,,,,,,,,,,,,switch,letter,lettSwt,d,1.2175,noRew,,,,,,0,19,0,19,0,1,,,,,,,,,,,,,,,,,
294535,2022-10-07_16h28.08.617,vts_reward_expectancy,2022.2.4,Win32,60.26637739,Chrome,1368,912,,,,,0,594,,,,,,,,,,,,,,,,,D,146,circle,1,0,,,,,,,,,,,,,,,,repeat,letter,lettRpt,d,0.5178,noRew,,,,,,0,20,0,20,0,1,,,,,,,,,,,,,,,,,
294535,2022-10-07_16h28.08.617,vts_reward_expectancy,2022.2.4,Win32,60.26637739,Chrome,1368,912,,,,,0,594,,,,,,,,,,,,,,,,,B,174,star,1,0,,,,,,,,,,,,,,,,switch,number,numSwt,k,2.7027,noRew,,,,,,0,21,0,21,0,1,,,,,,,,,,,,,,,,,
294535,2022-10-07_16h28.08.617,vts_reward_expectancy,2022.2.4,Win32,60.26637739,Chrome,1368,912,,,,,0,594,,,,,,,,,,,,,,,,,S,125,triangle,1,0,,,,,,,,,,,,,,,,repeat,number,numRpt,j,0.784,noRew,,,,,,0,22,0,22,0,1,,,,,,,,,,,,,,,,,
294535,2022-10-07_16h28.08.617,vts_reward_expectancy,2022.2.4,Win32,60.26637739,Chrome,1368,912,,,,,0,594,,,,,,,,,,,,,,,,,F,160,circle,1,0,,,,,,,,,,,,,,,,switch,letter,lettSwt,d,1.1175,noRew,,,,,,0,23,0,23,0,1,,,,,,,,,,,,,,,,,
294535,2022-10-07_16h28.08.617,vts_reward_expectancy,2022.2.4,Win32,60.26637739,Chrome,1368,912,,,,,0,594,,,,,,,,,,,,,,,,,U,160,circle,1,0,,,,,,,,,,,,,,,,repeat,letter,lettRpt,f,0.835,noRew,,,,,,0,24,0,24,0,1,,,,,,,,,,,,,,,,,
294535,2022-10-07_16h28.08.617,vts_reward_expectancy,2022.2.4,Win32,60.26637739,Chrome,1368,912,,,,,0,594,,,,,,,,,,,,,,,,,S,181,hexagon,1,0,,,,,,,,,,,,,,,,repeat,letter,lettRpt,f,0.7655,noRew,,,,,,0,25,0,25,0,1,,,,,,,,,,,,,,,,,
294535,2022-10-07_16h28.08.617,vts_reward_expectancy,2022.2.4,Win32,60.26637739,Chrome,1368,912,,,,,0,594,,,,,,,,,,,,,,,,,D,125,triangle,1,0,,,,,,,,,,,,,,,,switch,number,numSwt,j,0.6017,noRew,,,,,,0,26,0,26,0,1,,,,,,,,,,,,,,,,,
294535,2022-10-07_16h28.08.617,vts_reward_expectancy,2022.2.4,Win32,60.26637739,Chrome,1368,912,,,,,0,594,,,,,,,,,,,,,,,,,F,167,hexagon,1,0,,,,,,,,,,,,,,,,repeat,number,numRpt,k,0.6843,noRew,,,,,,0,27,0,27,0,1,,,,,,,,,,,,,,,,,
294535,2022-10-07_16h28.08.617,vts_reward_expectancy,2022.2.4,Win32,60.26637739,Chrome,1368,912,,,,,0,594,,,,,,,,,,,,,,,,,D,174,hexagon,1,0,,,,,,,,,,,,,,,,repeat,number,numRpt,k,0.9837,noRew,,,,,,0,28,0,28,0,1,,,,,,,,,,,,,,,,,
294535,2022-10-07_16h28.08.617,vts_reward_expectancy,2022.2.4,Win32,60.26637739,Chrome,1368,912,,,,,0,594,,,,,,,,,,,,,,,,,S,160,star,1,0,,,,,,,,,,,,,,,,switch,letter,lettSwt,f,1.0823,noRew,,,,,,0,29,0,29,0,1,,,,,,,,,,,,,,,,,
294535,2022-10-07_16h28.08.617,vts_reward_expectancy,2022.2.4,Win32,60.26637739,Chrome,1368,912,,,,,0,594,,,,,,,,,,,,,,,,,B,132,hexagon,1,0,,,,,,,,,,,,,,,,repeat,letter,lettRpt,d,0.9346,noRew,,,,,,0,30,0,30,0,1,,,,,,,,,,,,,,,,,
294535,2022-10-07_16h28.08.617,vts_reward_expectancy,2022.2.4,Win32,60.26637739,Chrome,1368,912,,,,,0,594,,,,,,,,,,,,,,,,,U,167,triangle,1,0,,,,,,,,,,,,,,,,switch,number,numSwt,k,1.0008,noRew,,,,,,0,31,0,31,0,1,,,,,,,,,,,,,,,,,
294535,2022-10-07_16h28.08.617,vts_reward_expectancy,2022.2.4,Win32,60.26637739,Chrome,1368,912,,,,,0,594,,,,,,,,,,,,,,,,,B,125,hexagon,1,0,,,,,,,,,,,,,,,,repeat,number,numRpt,j,1.0498,noRew,,,,,,0,32,0,32,0,1,,,,,,,,,,,,,,,,,
294535,2022-10-07_16h28.08.617,vts_reward_expectancy,2022.2.4,Win32,60.26637739,Chrome,1368,912,,,,,0,594,,,,,,,,,,,,,,,,,D,139,triangle,1,0,,,,,,,,,,,,,,,,switch,letter,lettSwt,d,0.6503,noRew,,,,,,0,33,0,33,0,1,,,,,,,,,,,,,,,,,
294535,2022-10-07_16h28.08.617,vts_reward_expectancy,2022.2.4,Win32,60.26637739,Chrome,1368,912,,,,,0,594,,,,,,,,,,,,,,,,,Y,146,star,1,0,,,,,,,,,,,,,,,,repeat,letter,lettRpt,f,0.7858,noRew,,,,,,0,34,0,34,0,1,,,,,,,,,,,,,,,,,
294535,2022-10-07_16h28.08.617,vts_reward_expectancy,2022.2.4,Win32,60.26637739,Chrome,1368,912,,,,,0,594,,,,,,,,,,,,,,,,,W,174,hexagon,1,0,,,,,,,,,,,,,,,,switch,number,numSwt,k,1.2536,noRew,,,,,,0,35,0,35,0,1,,,,,,,,,,,,,,,,,
294535,2022-10-07_16h28.08.617,vts_reward_expectancy,2022.2.4,Win32,60.26637739,Chrome,1368,912,,,,,0,594,,,,,,,,,,,,,,,,,B,125,hexagon,1,0,,,,,,,,,,,,,,,,repeat,number,numRpt,j,1.4847,noRew,,,,,,0,36,0,36,0,1,,,,,,,,,,,,,,,,,
294535,2022-10-07_16h28.08.617,vts_reward_expectancy,2022.2.4,Win32,60.26637739,Chrome,1368,912,,,,,0,594,,,,,,,,,,,,,,,,,W,146,star,1,0,,,,,,,,,,,,,,,,repeat,number,numRpt,j,1.4185,noRew,,,,,,0,37,0,37,0,1,,,,,,,,,,,,,,,,,
294535,2022-10-07_16h28.08.617,vts_reward_expectancy,2022.2.4,Win32,60.26637739,Chrome,1368,912,,,,,0,594,,,,,,,,,,,,,,,,,Y,132,star,1,0,,,,,,,,,,,,,,,,switch,letter,lettSwt,f,0.6848,noRew,,,,,,0,38,0,38,0,1,,,,,,,,,,,,,,,,,
294535,2022-10-07_16h28.08.617,vts_reward_expectancy,2022.2.4,Win32,60.26637739,Chrome,1368,912,,,,,0,594,,,,,,,,,,,,,,,,,H,174,hexagon,1,0,,,,,,,,,,,,,,,,repeat,letter,lettRpt,d,1.2849,noRew,,,,,,0,39,0,39,0,1,,,,,,,,,,,,,,,,,
294535,2022-10-07_16h28.08.617,vts_reward_expectancy,2022.2.4,Win32,60.26637739,Chrome,1368,912,,,,,0,594,,,,,,,,,,,,,,,,,F,139,triangle,0,0,,,,,,,,,,,,,,,,switch,number,NA,k,0.983,noRew,,,,,,0,40,0,40,0,1,,,,,,,,,,,,,,,,,
294535,2022-10-07_16h28.08.617,vts_reward_expectancy,2022.2.4,Win32,60.26637739,Chrome,1368,912,,,,,0,594,,,,,,,,,,,,,,,,,B,167,circle,1,1,,,,,,,,,,,,,,,,switch,letter,lettSwt,d,2.3208,noRew,,,,,,0,41,0,41,0,1,,,,,,,,,,,,,,,,,
294535,2022-10-07_16h28.08.617,vts_reward_expectancy,2022.2.4,Win32,60.26637739,Chrome,1368,912,,,,,0,594,,,,,,,,,,,,,,,,,Y,125,hexagon,1,0,,,,,,,,,,,,,,,,repeat,letter,lettRpt,f,1.5324,noRew,,,,,,0,42,0,42,0,1,,,,,,,,,,,,,,,,,
294535,2022-10-07_16h28.08.617,vts_reward_expectancy,2022.2.4,Win32,60.26637739,Chrome,1368,912,,,,,0,594,,,,,,,,,,,,,,,,,U,160,circle,1,0,,,,,,,,,,,,,,,,switch,number,numSwt,k,1.1158,noRew,,,,,,0,43,0,43,0,1,,,,,,,,,,,,,,,,,
294535,2022-10-07_16h28.08.617,vts_reward_expectancy,2022.2.4,Win32,60.26637739,Chrome,1368,912,,,,,0,594,,,,,,,,,,,,,,,,,H,139,triangle,1,0,,,,,,,,,,,,,,,,repeat,number,numRpt,j,0.8668,noRew,,,,,,0,44,0,44,0,1,,,,,,,,,,,,,,,,,
294535,2022-10-07_16h28.08.617,vts_reward_expectancy,2022.2.4,Win32,60.26637739,Chrome,1368,912,,,,,0,594,,,,,,,,,,,,,,,,,U,160,circle,1,0,,,,,,,,,,,,,,,,switch,letter,lettSwt,f,0.9846,noRew,,,,,,0,45,0,45,0,1,,,,,,,,,,,,,,,,,
294535,2022-10-07_16h28.08.617,vts_reward_expectancy,2022.2.4,Win32,60.26637739,Chrome,1368,912,,,,,0,594,,,,,,,,,,,,,,,,,Y,167,circle,1,0,,,,,,,,,,,,,,,,switch,number,numSwt,k,0.7839,noRew,,,,,,0,46,0,46,0,1,,,,,,,,,,,,,,,,,
294535,2022-10-07_16h28.08.617,vts_reward_expectancy,2022.2.4,Win32,60.26637739,Chrome,1368,912,,,,,0,594,,,,,,,,,,,,,,,,,W,132,triangle,1,0,,,,,,,,,,,,,,,,repeat,number,numRpt,j,0.6998,noRew,,,,,,0,47,0,47,0,1,,,,,,,,,,,,,,,,,
294535,2022-10-07_16h28.08.617,vts_reward_expectancy,2022.2.4,Win32,60.26637739,Chrome,1368,912,,,,,0,594,,,,,,,,,,,,,,,,,S,174,triangle,1,0,,,,,,,,,,,,,,,,switch,letter,lettSwt,f,0.7166,noRew,,,,,,0,48,0,48,0,1,,,,,,,,,,,,,,,,,
294535,2022-10-07_16h28.08.617,vts_reward_expectancy,2022.2.4,Win32,60.26637739,Chrome,1368,912,,,,,0,594,,,,,,,,,,,,,,,,,F,167,circle,1,0,,,,,,,,,,,,,,,,repeat,letter,lettRpt,d,1.3,noRew,,,,,,0,49,0,49,0,1,,,,,,,,,,,,,,,,,
294535,2022-10-07_16h28.08.617,vts_reward_expectancy,2022.2.4,Win32,60.26637739,Chrome,1368,912,,,,,0,594,,,,,,,,,,,,,,,,,Y,181,star,1,0,,,,,,,,,,,,,,,,switch,number,numSwt,k,0.8501,noRew,,,,,,0,50,0,50,0,1,,,,,,,,,,,,,,,,,
294535,2022-10-07_16h28.08.617,vts_reward_expectancy,2022.2.4,Win32,60.26637739,Chrome,1368,912,,,,,0,594,,,,,,,,,,,,,,,,,W,132,hexagon,1,0,,,,,,,,,,,,,,,,repeat,number,numRpt,j,0.7838,noRew,,,,,,0,51,0,51,0,1,,,,,,,,,,,,,,,,,
294535,2022-10-07_16h28.08.617,vts_reward_expectancy,2022.2.4,Win32,60.26637739,Chrome,1368,912,,,,,0,594,,,,,,,,,,,,,,,,,D,160,triangle,1,0,,,,,,,,,,,,,,,,switch,letter,lettSwt,d,0.7503,noRew,,,,,,0,52,0,52,0,1,,,,,,,,,,,,,,,,,
294535,2022-10-07_16h28.08.617,vts_reward_expectancy,2022.2.4,Win32,60.26637739,Chrome,1368,912,,,,,0,594,,,,,,,,,,,,,,,,,B,139,circle,1,0,,,,,,,,,,,,,,,,repeat,letter,lettRpt,d,0.7161,noRew,,,,,,0,53,0,53,0,1,,,,,,,,,,,,,,,,,
294535,2022-10-07_16h28.08.617,vts_reward_expectancy,2022.2.4,Win32,60.26637739,Chrome,1368,912,,,,,0,594,,,,,,,,,,,,,,,,,H,125,circle,1,0,,,,,,,,,,,,,,,,repeat,letter,lettRpt,d,0.7335,noRew,,,,,,0,54,0,54,0,1,,,,,,,,,,,,,,,,,
294535,2022-10-07_16h28.08.617,vts_reward_expectancy,2022.2.4,Win32,60.26637739,Chrome,1368,912,,,,,0,594,,,,,,,,,,,,,,,,,F,146,triangle,1,0,,,,,,,,,,,,,,,,repeat,letter,lettRpt,d,0.7342,noRew,,,,,,0,55,0,55,0,1,,,,,,,,,,,,,,,,,
294535,2022-10-07_16h28.08.617,vts_reward_expectancy,2022.2.4,Win32,60.26637739,Chrome,1368,912,,,,,0,594,,,,,,,,,,,,,,,,,F,125,triangle,1,0,,,,,,,,,,,,,,,,repeat,letter,lettRpt,d,0.5678,noRew,,,,,,0,56,0,56,0,1,,,,,,,,,,,,,,,,,
294535,2022-10-07_16h28.08.617,vts_reward_expectancy,2022.2.4,Win32,60.26637739,Chrome,1368,912,,,,,0,594,,,,,,,,,,,,,,,,,D,132,circle,1,0,,,,,,,,,,,,,,,,repeat,letter,lettRpt,d,0.7193,noRew,,,,,,0,57,0,57,0,1,,,,,,,,,,,,,,,,,
294535,2022-10-07_16h28.08.617,vts_reward_expectancy,2022.2.4,Win32,60.26637739,Chrome,1368,912,,,,,0,594,,,,,,,,,,,,,,,,,W,174,star,1,0,,,,,,,,,,,,,,,,switch,number,numSwt,k,0.6176,noRew,,,,,,0,58,0,58,0,1,,,,,,,,,,,,,,,,,
294535,2022-10-07_16h28.08.617,vts_reward_expectancy,2022.2.4,Win32,60.26637739,Chrome,1368,912,,,,,0,594,,,,,,,,,,,,,,,,,H,160,circle,1,0,,,,,,,,,,,,,,,,repeat,number,numRpt,k,0.8011,noRew,,,,,,0,59,0,59,0,1,,,,,,,,,,,,,,,,,
294535,2022-10-07_16h28.08.617,vts_reward_expectancy,2022.2.4,Win32,60.26637739,Chrome,1368,912,,,,,0,594,,,,,,,,,,,,,,,,,Y,146,triangle,0,0,,,,,,,,,,,,,,,,repeat,number,NA,k,0.7178,noRew,,,,,,0,60,0,60,0,1,,,,,,,,,,,,,,,,,
294535,2022-10-07_16h28.08.617,vts_reward_expectancy,2022.2.4,Win32,60.26637739,Chrome,1368,912,,,,,0,594,,,,,,,,,,,,,,,,,S,167,hexagon,1,1,,,,,,,,,,,,,,,,repeat,number,numRpt,k,0.9341,noRew,,,,,,0,61,0,61,0,1,,,,,,,,,,,,,,,,,
294535,2022-10-07_16h28.08.617,vts_reward_expectancy,2022.2.4,Win32,60.26637739,Chrome,1368,912,,,,,0,594,,,,,,,,,,,,,,,,,D,160,star,1,0,,,,,,,,,,,,,,,,repeat,number,numRpt,k,1.5506,noRew,,,,,,0,62,0,62,0,1,,,,,,,,,,,,,,,,,
294535,2022-10-07_16h28.08.617,vts_reward_expectancy,2022.2.4,Win32,60.26637739,Chrome,1368,912,,,,,0,594,,,,,,,,,,,,,,,,,B,174,circle,1,0,,,,,,,,,,,,,,,,switch,letter,lettSwt,d,0.7483,noRew,,,,,,0,63,0,63,0,1,,,,,,,,,,,,,,,,,
294535,2022-10-07_16h28.08.617,vts_reward_expectancy,2022.2.4,Win32,60.26637739,Chrome,1368,912,,,,,,,,,,,,,,,,,,,,,,,,,,,,,,,,,,,,,,,,,,,,,,,,,,,,,,,,,,,,,,,,,,,,,,,,,,,,
294535,2022-10-07_16h28.08.617,vts_reward_expectancy,2022.2.4,Win32,60.26637739,Chrome,1368,912,,,,,0,594,,,,,,,,,,,,,,,,,F,146,star,0,0,,,,,,,,,,,,,,,,switch,number,NA,k,0.717,noRew,,,,,,0,,,,,,space,4.562,high,0,0,0,0,1,,,,,,,,,
294535,2022-10-07_16h28.08.617,vts_reward_expectancy,2022.2.4,Win32,60.26637739,Chrome,1368,912,,,,,10,604,,,,,,,,,,,,,,,,,B,167,circle,1,1,,,,,,,,,,,,,,,,switch,letter,lettSwt,d,0.5014,Hi,,,,,,0,,,,,,,,high,1,0,1,0,1,,,,,,,,,
294535,2022-10-07_16h28.08.617,vts_reward_expectancy,2022.2.4,Win32,60.26637739,Chrome,1368,912,,,,,1,605,,,,,,,,,,,,,,,,,U,174,star,1,0,,,,,,,,,,,,,,,,switch,number,numSwt,k,0.9185,Lo,,,,,,0,,,,,,,,high,2,0,2,0,1,,,,,,,,,
294535,2022-10-07_16h28.08.617,vts_reward_expectancy,2022.2.4,Win32,60.26637739,Chrome,1368,912,,,,,10,615,,,,,,,,,,,,,,,,,D,181,circle,1,0,,,,,,,,,,,,,,,,switch,letter,lettSwt,d,0.5512,Hi,,,,,,0,,,,,,,,high,3,0,3,0,1,,,,,,,,,
294535,2022-10-07_16h28.08.617,vts_reward_expectancy,2022.2.4,Win32,60.26637739,Chrome,1368,912,,,,,1,616,,,,,,,,,,,,,,,,,W,125,star,1,0,,,,,,,,,,,,,,,,repeat,letter,lettRpt,f,0.6672,Lo,,,,,,0,,,,,,,,high,4,0,4,0,1,,,,,,,,,
294535,2022-10-07_16h28.08.617,vts_reward_expectancy,2022.2.4,Win32,60.26637739,Chrome,1368,912,,,,,10,626,,,,,,,,,,,,,,,,,S,139,circle,1,0,,,,,,,,,,,,,,,,switch,number,numSwt,j,0.7339,Hi,,,,,,0,,,,,,,,high,5,0,5,0,1,,,,,,,,,
294535,2022-10-07_16h28.08.617,vts_reward_expectancy,2022.2.4,Win32,60.26637739,Chrome,1368,912,,,,,0,626,,,,,,,,,,,,,,,,,Y,160,circle,0,0,,,,,,,,,,,,,,,,repeat,number,NA,j,0.5382,Hi,,,,,,0,,,,,,,,high,6,0,6,0,1,,,,,,,,,
294535,2022-10-07_16h28.08.617,vts_reward_expectancy,2022.2.4,Win32,60.26637739,Chrome,1368,912,,,,,1,627,,,,,,,,,,,,,,,,,H,132,star,1,1,,,,,,,,,,,,,,,,switch,letter,lettSwt,d,0.6177,Lo,,,,,,0,,,,,,,,high,7,0,7,0,1,,,,,,,,,
294535,2022-10-07_16h28.08.617,vts_reward_expectancy,2022.2.4,Win32,60.26637739,Chrome,1368,912,,,,,10,637,,,,,,,,,,,,,,,,,F,146,star,1,0,,,,,,,,,,,,,,,,repeat,letter,lettRpt,d,0.7046,Lo,,,,,,0,,,,,,,,high,8,0,8,0,1,,,,,,,,,
294535,2022-10-07_16h28.08.617,vts_reward_expectancy,2022.2.4,Win32,60.26637739,Chrome,1368,912,,,,,10,647,,,,,,,,,,,,,,,,,B,167,circle,1,0,,,,,,,,,,,,,,,,repeat,letter,lettRpt,d,0.501,Hi,,,,,,0,,,,,,,,high,9,0,9,0,1,,,,,,,,,
294535,2022-10-07_16h28.08.617,vts_reward_expectancy,2022.2.4,Win32,60.26637739,Chrome,1368,912,,,,,10,657,,,,,,,,,,,,,,,,,U,174,circle,1,0,,,,,,,,,,,,,,,,switch,number,numSwt,k,0.5746,Hi,,,,,,0,,,,,,,,high,10,0,10,0,1,,,,,,,,,
294535,2022-10-07_16h28.08.617,vts_reward_expectancy,2022.2.4,Win32,60.26637739,Chrome,1368,912,,,,,1,658,,,,,,,,,,,,,,,,,D,181,star,1,0,,,,,,,,,,,,,,,,repeat,number,numRpt,k,0.8681,Lo,,,,,,0,,,,,,,,high,11,0,11,0,1,,,,,,,,,
294535,2022-10-07_16h28.08.617,vts_reward_expectancy,2022.2.4,Win32,60.26637739,Chrome,1368,912,,,,,1,659,,,,,,,,,,,,,,,,,W,125,circle,1,0,,,,,,,,,,,,,,,,repeat,number,numRpt,j,0.7021,Hi,,,,,,0,,,,,,,,high,12,0,12,0,1,,,,,,,,,
294535,2022-10-07_16h28.08.617,vts_reward_expectancy,2022.2.4,Win32,60.26637739,Chrome,1368,912,,,,,1,660,,,,,,,,,,,,,,,,,S,139,star,1,0,,,,,,,,,,,,,,,,switch,letter,lettSwt,f,0.7551,Lo,,,,,,0,,,,,,,,high,13,0,13,0,1,,,,,,,,,
294535,2022-10-07_16h28.08.617,vts_reward_expectancy,2022.2.4,Win32,60.26637739,Chrome,1368,912,,,,,1,661,,,,,,,,,,,,,,,,,Y,160,circle,1,0,,,,,,,,,,,,,,,,repeat,letter,lettRpt,f,0.5511,Hi,,,,,,0,,,,,,,,high,14,0,14,0,1,,,,,,,,,
294535,2022-10-07_16h28.08.617,vts_reward_expectancy,2022.2.4,Win32,60.26637739,Chrome,1368,912,,,,,1,662,,,,,,,,,,,,,,,,,H,132,star,1,0,,,,,,,,,,,,,,,,switch,number,numSwt,j,0.9012,Lo,,,,,,0,,,,,,,,high,15,0,15,0,1,,,,,,,,,
294535,2022-10-07_16h28.08.617,vts_reward_expectancy,2022.2.4,Win32,60.26637739,Chrome,1368,912,,,,,1,663,,,,,,,,,,,,,,,,,H,181,star,1,0,,,,,,,,,,,,,,,,switch,letter,lettSwt,d,0.9516,Lo,,,,,,0,,,,,,,,high,16,0,16,0,1,,,,,,,,,
294535,2022-10-07_16h28.08.617,vts_reward_expectancy,2022.2.4,Win32,60.26637739,Chrome,1368,912,,,,,10,673,,,,,,,,,,,,,,,,,W,146,circle,1,0,,,,,,,,,,,,,,,,switch,number,numSwt,j,0.8892,Hi,,,,,,0,,,,,,,,high,17,0,17,0,1,,,,,,,,,
294535,2022-10-07_16h28.08.617,vts_reward_expectancy,2022.2.4,Win32,60.26637739,Chrome,1368,912,,,,,10,683,,,,,,,,,,,,,,,,,S,167,circle,1,0,,,,,,,,,,,,,,,,repeat,number,numRpt,k,0.7174,Hi,,,,,,0,,,,,,,,high,18,0,18,0,1,,,,,,,,,
294535,2022-10-07_16h28.08.617,vts_reward_expectancy,2022.2.4,Win32,60.26637739,Chrome,1368,912,,,,,1,684,,,,,,,,,,,,,,,,,Y,160,star,1,0,,,,,,,,,,,,,,,,switch,letter,lettSwt,f,0.5334,Lo,,,,,,0,,,,,,,,high,19,0,19,0,1,,,,,,,,,
294535,2022-10-07_16h28.08.617,vts_reward_expectancy,2022.2.4,Win32,60.26637739,Chrome,1368,912,,,,,0,684,,,,,,,,,,,,,,,,,D,132,circle,1,0,,,,,,,,,,,,,,,,switch,number,numSwt,j,1.1028,Hi,,,,,,0,,,,,,,,high,20,0,20,0,1,,,,,,,,,
294535,2022-10-07_16h28.08.617,vts_reward_expectancy,2022.2.4,Win32,60.26637739,Chrome,1368,912,,,,,1,685,,,,,,,,,,,,,,,,,B,139,star,1,0,,,,,,,,,,,,,,,,repeat,number,numRpt,j,0.6429,Lo,,,,,,0,,,,,,,,high,21,0,21,0,1,,,,,,,,,
294535,2022-10-07_16h28.08.617,vts_reward_expectancy,2022.2.4,Win32,60.26637739,Chrome,1368,912,,,,,1,686,,,,,,,,,,,,,,,,,U,125,circle,1,0,,,,,,,,,,,,,,,,switch,letter,lettSwt,f,0.6618,Hi,,,,,,0,,,,,,,,high,22,0,22,0,1,,,,,,,,,
294535,2022-10-07_16h28.08.617,vts_reward_expectancy,2022.2.4,Win32,60.26637739,Chrome,1368,912,,,,,0,686,,,,,,,,,,,,,,,,,F,174,star,-1,0,,,,,,,,,,,,,,,,switch,no_choice,NA,,,Hi,,,,,,0,,,,,,,,high,23,0,23,0,1,,,,,,,,,
294535,2022-10-07_16h28.08.617,vts_reward_expectancy,2022.2.4,Win32,60.26637739,Chrome,1368,912,,,,,1,687,,,,,,,,,,,,,,,,,U,181,star,1,0,,,,,,,,,,,,,,,,switch,letter,lettSwt,f,0.568,Lo,,,,,,0,,,,,,,,high,24,0,24,0,1,,,,,,,,,
294535,2022-10-07_16h28.08.617,vts_reward_expectancy,2022.2.4,Win32,60.26637739,Chrome,1368,912,,,,,1,688,,,,,,,,,,,,,,,,,F,139,circle,1,0,,,,,,,,,,,,,,,,repeat,letter,lettRpt,d,0.6344,Hi,,,,,,0,,,,,,,,high,25,0,25,0,1,,,,,,,,,
294535,2022-10-07_16h28.08.617,vts_reward_expectancy,2022.2.4,Win32,60.26637739,Chrome,1368,912,,,,,1,689,,,,,,,,,,,,,,,,,Y,146,star,1,0,,,,,,,,,,,,,,,,switch,number,numSwt,j,0.8851,Lo,,,,,,0,,,,,,,,high,26,0,26,0,1,,,,,,,,,
294535,2022-10-07_16h28.08.617,vts_reward_expectancy,2022.2.4,Win32,60.26637739,Chrome,1368,912,,,,,1,690,,,,,,,,,,,,,,,,,S,132,circle,1,0,,,,,,,,,,,,,,,,repeat,number,numRpt,j,0.5174,Hi,,,,,,0,,,,,,,,high,27,0,27,0,1,,,,,,,,,
294535,2022-10-07_16h28.08.617,vts_reward_expectancy,2022.2.4,Win32,60.26637739,Chrome,1368,912,,,,,10,700,,,,,,,,,,,,,,,,,B,174,circle,1,0,,,,,,,,,,,,,,,,switch,letter,lettSwt,d,0.6528,Hi,,,,,,0,,,,,,,,high,28,0,28,0,1,,,,,,,,,
294535,2022-10-07_16h28.08.617,vts_reward_expectancy,2022.2.4,Win32,60.26637739,Chrome,1368,912,,,,,1,701,,,,,,,,,,,,,,,,,D,167,star,1,0,,,,,,,,,,,,,,,,switch,number,numSwt,k,0.756,Lo,,,,,,0,,,,,,,,high,29,0,29,0,1,,,,,,,,,
294535,2022-10-07_16h28.08.617,vts_reward_expectancy,2022.2.4,Win32,60.26637739,Chrome,1368,912,,,,,10,711,,,,,,,,,,,,,,,,,W,160,circle,1,0,,,,,,,,,,,,,,,,switch,letter,lettSwt,f,0.6891,Hi,,,,,,0,,,,,,,,high,30,0,30,0,1,,,,,,,,,
294535,2022-10-07_16h28.08.617,vts_reward_expectancy,2022.2.4,Win32,60.26637739,Chrome,1368,912,,,,,1,712,,,,,,,,,,,,,,,,,H,125,star,1,0,,,,,,,,,,,,,,,,switch,number,numSwt,j,0.6395,Lo,,,,,,0,,,,,,,,high,31,0,31,0,1,,,,,,,,,
294535,2022-10-07_16h28.08.617,vts_reward_expectancy,2022.2.4,Win32,60.26637739,Chrome,1368,912,,,,,0,712,,,,,,,,,,,,,,,,,Y,181,triangle,1,0,,,,,,,,,,,,,,,,switch,letter,lettSwt,f,0.6374,Hi,,,,,,1,,,,,,space,3.4373,low,0,0,0,0,1,,,,,,,,,
294535,2022-10-07_16h28.08.617,vts_reward_expectancy,2022.2.4,Win32,60.26637739,Chrome,1368,912,,,,,0,712,,,,,,,,,,,,,,,,,B,160,hexagon,0,0,,,,,,,,,,,,,,,,repeat,letter,NA,f,0.6521,Hi,,,,,,1,,,,,,,,low,1,0,1,0,1,,,,,,,,,
294535,2022-10-07_16h28.08.617,vts_reward_expectancy,2022.2.4,Win32,60.26637739,Chrome,1368,912,,,,,10,722,,,,,,,,,,,,,,,,,W,132,triangle,1,1,,,,,,,,,,,,,,,,repeat,letter,lettRpt,f,0.5176,Hi,,,,,,1,,,,,,,,low,2,0,2,0,1,,,,,,,,,
294535,2022-10-07_16h28.08.617,vts_reward_expectancy,2022.2.4,Win32,60.26637739,Chrome,1368,912,,,,,1,723,,,,,,,,,,,,,,,,,D,146,hexagon,1,0,,,,,,,,,,,,,,,,switch,number,numSwt,j,0.7848,Lo,,,,,,1,,,,,,,,low,3,0,3,0,1,,,,,,,,,
294535,2022-10-07_16h28.08.617,vts_reward_expectancy,2022.2.4,Win32,60.26637739,Chrome,1368,912,,,,,0,723,,,,,,,,,,,,,,,,,H,174,triangle,1,0,,,,,,,,,,,,,,,,repeat,number,numRpt,k,0.8846,Hi,,,,,,1,,,,,,,,low,4,0,4,0,1,,,,,,,,,
294535,2022-10-07_16h28.08.617,vts_reward_expectancy,2022.2.4,Win32,60.26637739,Chrome,1368,912,,,,,10,733,,,,,,,,,,,,,,,,,F,139,hexagon,1,0,,,,,,,,,,,,,,,,switch,letter,lettSwt,d,0.5672,Lo,,,,,,1,,,,,,,,low,5,0,5,0,1,,,,,,,,,
294535,2022-10-07_16h28.08.617,vts_reward_expectancy,2022.2.4,Win32,60.26637739,Chrome,1368,912,,,,,10,743,,,,,,,,,,,,,,,,,U,167,hexagon,1,0,,,,,,,,,,,,,,,,switch,number,numSwt,k,0.5506,Lo,,,,,,1,,,,,,,,low,6,0,6,0,1,,,,,,,,,
294535,2022-10-07_16h28.08.617,vts_reward_expectancy,2022.2.4,Win32,60.26637739,Chrome,1368,912,,,,,10,753,,,,,,,,,,,,,,,,,S,125,triangle,1,0,,,,,,,,,,,,,,,,repeat,number,numRpt,j,0.5195,Hi,,,,,,1,,,,,,,,low,7,0,7,0,1,,,,,,,,,
294535,2022-10-07_16h28.08.617,vts_reward_expectancy,2022.2.4,Win32,60.26637739,Chrome,1368,912,,,,,1,754,,,,,,,,,,,,,,,,,Y,181,hexagon,1,0,,,,,,,,,,,,,,,,repeat,number,numRpt,k,0.5671,Lo,,,,,,1,,,,,,,,low,8,0,8,0,1,,,,,,,,,
294535,2022-10-07_16h28.08.617,vts_reward_expectancy,2022.2.4,Win32,60.26637739,Chrome,1368,912,,,,,10,764,,,,,,,,,,,,,,,,,B,160,triangle,1,0,,,,,,,,,,,,,,,,switch,letter,lettSwt,d,0.4175,Hi,,,,,,1,,,,,,,,low,9,0,9,0,1,,,,,,,,,
294535,2022-10-07_16h28.08.617,vts_reward_expectancy,2022.2.4,Win32,60.26637739,Chrome,1368,912,,,,,10,774,,,,,,,,,,,,,,,,,W,132,triangle,1,0,,,,,,,,,,,,,,,,repeat,letter,lettRpt,f,0.5005,Hi,,,,,,1,,,,,,,,low,10,0,10,0,1,,,,,,,,,
294535,2022-10-07_16h28.08.617,vts_reward_expectancy,2022.2.4,Win32,60.26637739,Chrome,1368,912,,,,,10,784,,,,,,,,,,,,,,,,,D,146,hexagon,1,0,,,,,,,,,,,,,,,,repeat,letter,lettRpt,d,0.6035,Lo,,,,,,1,,,,,,,,low,11,0,11,0,1,,,,,,,,,
294535,2022-10-07_16h28.08.617,vts_reward_expectancy,2022.2.4,Win32,60.26637739,Chrome,1368,912,,,,,1,785,,,,,,,,,,,,,,,,,H,174,triangle,1,0,,,,,,,,,,,,,,,,switch,number,numSwt,k,0.5343,Hi,,,,,,1,,,,,,,,low,12,0,12,0,1,,,,,,,,,
294535,2022-10-07_16h28.08.617,vts_reward_expectancy,2022.2.4,Win32,60.26637739,Chrome,1368,912,,,,,1,786,,,,,,,,,,,,,,,,,F,139,hexagon,1,0,,,,,,,,,,,,,,,,repeat,number,numRpt,j,0.7347,Lo,,,,,,1,,,,,,,,low,13,0,13,0,1,,,,,,,,,
294535,2022-10-07_16h28.08.617,vts_reward_expectancy,2022.2.4,Win32,60.26637739,Chrome,1368,912,,,,,10,796,,,,,,,,,,,,,,,,,U,167,hexagon,1,0,,,,,,,,,,,,,,,,switch,letter,lettSwt,f,0.6679,Lo,,,,,,1,,,,,,,,low,14,0,14,0,1,,,,,,,,,
294535,2022-10-07_16h28.08.617,vts_reward_expectancy,2022.2.4,Win32,60.26637739,Chrome,1368,912,,,,,0,796,,,,,,,,,,,,,,,,,S,125,triangle,1,0,,,,,,,,,,,,,,,,repeat,letter,lettRpt,f,0.7836,Hi,,,,,,1,,,,,,,,low,15,0,15,0,1,,,,,,,,,
294535,2022-10-07_16h28.08.617,vts_reward_expectancy,2022.2.4,Win32,60.26637739,Chrome,1368,912,,,,,10,806,,,,,,,,,,,,,,,,,Y,160,triangle,1,0,,,,,,,,,,,,,,,,repeat,letter,lettRpt,f,0.5006,Hi,,,,,,1,,,,,,,,low,16,0,16,0,1,,,,,,,,,
294535,2022-10-07_16h28.08.617,vts_reward_expectancy,2022.2.4,Win32,60.26637739,Chrome,1368,912,,,,,1,807,,,,,,,,,,,,,,,,,U,181,hexagon,1,0,,,,,,,,,,,,,,,,repeat,letter,lettRpt,f,0.451,Lo,,,,,,1,,,,,,,,low,17,0,17,0,1,,,,,,,,,
294535,2022-10-07_16h28.08.617,vts_reward_expectancy,2022.2.4,Win32,60.26637739,Chrome,1368,912,,,,,10,817,,,,,,,,,,,,,,,,,D,146,hexagon,1,0,,,,,,,,,,,,,,,,switch,number,numSwt,j,0.6005,Lo,,,,,,1,,,,,,,,low,18,0,18,0,1,,,,,,,,,
294535,2022-10-07_16h28.08.617,vts_reward_expectancy,2022.2.4,Win32,60.26637739,Chrome,1368,912,,,,,10,827,,,,,,,,,,,,,,,,,W,139,triangle,1,0,,,,,,,,,,,,,,,,repeat,number,numRpt,j,0.6179,Hi,,,,,,1,,,,,,,,low,19,0,19,0,1,,,,,,,,,
294535,2022-10-07_16h28.08.617,vts_reward_expectancy,2022.2.4,Win32,60.26637739,Chrome,1368,912,,,,,10,837,,,,,,,,,,,,,,,,,H,125,hexagon,1,0,,,,,,,,,,,,,,,,repeat,number,numRpt,j,0.7013,Lo,,,,,,1,,,,,,,,low,20,0,20,0,1,,,,,,,,,
294535,2022-10-07_16h28.08.617,vts_reward_expectancy,2022.2.4,Win32,60.26637739,Chrome,1368,912,,,,,10,847,,,,,,,,,,,,,,,,,S,167,triangle,1,0,,,,,,,,,,,,,,,,repeat,number,numRpt,k,0.5178,Hi,,,,,,1,,,,,,,,low,21,0,21,0,1,,,,,,,,,
294535,2022-10-07_16h28.08.617,vts_reward_expectancy,2022.2.4,Win32,60.26637739,Chrome,1368,912,,,,,10,857,,,,,,,,,,,,,,,,,B,174,triangle,1,0,,,,,,,,,,,,,,,,repeat,number,numRpt,k,0.6342,Hi,,,,,,1,,,,,,,,low,22,0,22,0,1,,,,,,,,,
294535,2022-10-07_16h28.08.617,vts_reward_expectancy,2022.2.4,Win32,60.26637739,Chrome,1368,912,,,,,1,858,,,,,,,,,,,,,,,,,F,132,hexagon,1,0,,,,,,,,,,,,,,,,switch,letter,lettSwt,d,0.6344,Lo,,,,,,1,,,,,,,,low,23,0,23,0,1,,,,,,,,,
294535,2022-10-07_16h28.08.617,vts_reward_expectancy,2022.2.4,Win32,60.26637739,Chrome,1368,912,,,,,1,859,,,,,,,,,,,,,,,,,Y,160,triangle,1,0,,,,,,,,,,,,,,,,repeat,letter,lettRpt,f,0.4724,Hi,,,,,,1,,,,,,,,low,24,0,24,0,1,,,,,,,,,
294535,2022-10-07_16h28.08.617,vts_reward_expectancy,2022.2.4,Win32,60.26637739,Chrome,1368,912,,,,,10,869,,,,,,,,,,,,,,,,,H,139,hexagon,1,0,,,,,,,,,,,,,,,,repeat,letter,lettRpt,d,0.5024,Lo,,,,,,1,,,,,,,,low,25,0,25,0,1,,,,,,,,,
294535,2022-10-07_16h28.08.617,vts_reward_expectancy,2022.2.4,Win32,60.26637739,Chrome,1368,912,,,,,10,879,,,,,,,,,,,,,,,,,B,181,hexagon,1,0,,,,,,,,,,,,,,,,repeat,letter,lettRpt,d,0.4837,Lo,,,,,,1,,,,,,,,low,26,0,26,0,1,,,,,,,,,
294535,2022-10-07_16h28.08.617,vts_reward_expectancy,2022.2.4,Win32,60.26637739,Chrome,1368,912,,,,,10,889,,,,,,,,,,,,,,,,,D,125,triangle,1,0,,,,,,,,,,,,,,,,switch,number,numSwt,j,0.5012,Hi,,,,,,1,,,,,,,,low,27,0,27,0,1,,,,,,,,,
294535,2022-10-07_16h28.08.617,vts_reward_expectancy,2022.2.4,Win32,60.26637739,Chrome,1368,912,,,,,10,899,,,,,,,,,,,,,,,,,F,146,triangle,1,0,,,,,,,,,,,,,,,,repeat,number,numRpt,j,0.5511,Hi,,,,,,1,,,,,,,,low,28,0,28,0,1,,,,,,,,,
294535,2022-10-07_16h28.08.617,vts_reward_expectancy,2022.2.4,Win32,60.26637739,Chrome,1368,912,,,,,10,909,,,,,,,,,,,,,,,,,U,132,hexagon,1,0,,,,,,,,,,,,,,,,switch,letter,lettSwt,f,0.6004,Lo,,,,,,1,,,,,,,,low,29,0,29,0,1,,,,,,,,,
294535,2022-10-07_16h28.08.617,vts_reward_expectancy,2022.2.4,Win32,60.26637739,Chrome,1368,912,,,,,0,909,,,,,,,,,,,,,,,,,S,174,triangle,1,0,,,,,,,,,,,,,,,,switch,number,numSwt,k,0.8013,Hi,,,,,,1,,,,,,,,low,30,0,30,0,1,,,,,,,,,
294535,2022-10-07_16h28.08.617,vts_reward_expectancy,2022.2.4,Win32,60.26637739,Chrome,1368,912,,,,,1,910,,,,,,,,,,,,,,,,,W,167,hexagon,1,0,,,,,,,,,,,,,,,,switch,letter,lettSwt,f,0.5839,Lo,,,,,,1,,,,,,,,low,31,0,31,0,1,,,,,,,,,
294535,2022-10-07_16h28.08.617,vts_reward_expectancy,2022.2.4,Win32,60.26637739,Chrome,1368,912,,,,,1,911,,,,,,,,,,,,,,,,,H,125,star,1,0,,,,,,,,,,,,,,,,switch,number,numSwt,j,0.6378,Lo,,,,,,2,,,,,,space,1.1229,high,0,0,0,0,1,,,,,,,,,
294535,2022-10-07_16h28.08.617,vts_reward_expectancy,2022.2.4,Win32,60.26637739,Chrome,1368,912,,,,,0,911,,,,,,,,,,,,,,,,,Y,132,circle,1,0,,,,,,,,,,,,,,,,repeat,number,numRpt,j,0.7675,Hi,,,,,,2,,,,,,,,high,1,0,1,0,1,,,,,,,,,
294535,2022-10-07_16h28.08.617,vts_reward_expectancy,2022.2.4,Win32,60.26637739,Chrome,1368,912,,,,,1,912,,,,,,,,,,,,,,,,,W,167,star,1,0,,,,,,,,,,,,,,,,repeat,number,numRpt,k,0.5047,Lo,,,,,,2,,,,,,,,high,2,0,2,0,1,,,,,,,,,
294535,2022-10-07_16h28.08.617,vts_reward_expectancy,2022.2.4,Win32,60.26637739,Chrome,1368,912,,,,,0,912,,,,,,,,,,,,,,,,,S,139,circle,1,0,,,,,,,,,,,,,,,,switch,letter,lettSwt,f,0.6337,Hi,,,,,,2,,,,,,,,high,3,0,3,0,1,,,,,,,,,
294535,2022-10-07_16h28.08.617,vts_reward_expectancy,2022.2.4,Win32,60.26637739,Chrome,1368,912,,,,,0,912,,,,,,,,,,,,,,,,,D,160,circle,1,0,,,,,,,,,,,,,,,,repeat,letter,lettRpt,d,0.6009,Hi,,,,,,2,,,,,,,,high,4,0,4,0,1,,,,,,,,,
294535,2022-10-07_16h28.08.617,vts_reward_expectancy,2022.2.4,Win32,60.26637739,Chrome,1368,912,,,,,10,922,,,,,,,,,,,,,,,,,U,174,star,1,0,,,,,,,,,,,,,,,,repeat,letter,lettRpt,f,0.5674,Lo,,,,,,2,,,,,,,,high,5,0,5,0,1,,,,,,,,,
294535,2022-10-07_16h28.08.617,vts_reward_expectancy,2022.2.4,Win32,60.26637739,Chrome,1368,912,,,,,10,932,,,,,,,,,,,,,,,,,B,181,star,1,0,,,,,,,,,,,,,,,,repeat,letter,lettRpt,d,0.418,Lo,,,,,,2,,,,,,,,high,6,0,6,0,1,,,,,,,,,
294535,2022-10-07_16h28.08.617,vts_reward_expectancy,2022.2.4,Win32,60.26637739,Chrome,1368,912,,,,,0,932,,,,,,,,,,,,,,,,,F,146,circle,1,0,,,,,,,,,,,,,,,,repeat,letter,lettRpt,d,0.5508,Hi,,,,,,2,,,,,,,,high,7,0,7,0,1,,,,,,,,,
294535,2022-10-07_16h28.08.617,vts_reward_expectancy,2022.2.4,Win32,60.26637739,Chrome,1368,912,,,,,10,942,,,,,,,,,,,,,,,,,H,125,circle,1,0,,,,,,,,,,,,,,,,switch,number,numSwt,j,0.5001,Hi,,,,,,2,,,,,,,,high,8,0,8,0,1,,,,,,,,,
294535,2022-10-07_16h28.08.617,vts_reward_expectancy,2022.2.4,Win32,60.26637739,Chrome,1368,912,,,,,1,943,,,,,,,,,,,,,,,,,Y,132,star,1,0,,,,,,,,,,,,,,,,repeat,number,numRpt,j,0.6015,Lo,,,,,,2,,,,,,,,high,9,0,9,0,1,,,,,,,,,
294535,2022-10-07_16h28.08.617,vts_reward_expectancy,2022.2.4,Win32,60.26637739,Chrome,1368,912,,,,,0,943,,,,,,,,,,,,,,,,,W,167,star,0,0,,,,,,,,,,,,,,,,repeat,number,NA,j,0.4404,Lo,,,,,,2,,,,,,,,high,10,0,10,0,1,,,,,,,,,
294535,2022-10-07_16h28.08.617,vts_reward_expectancy,2022.2.4,Win32,60.26637739,Chrome,1368,912,,,,,0,943,,,,,,,,,,,,,,,,,S,139,circle,1,1,,,,,,,,,,,,,,,,repeat,number,numRpt,j,0.5742,Hi,,,,,,2,,,,,,,,high,11,0,11,0,1,,,,,,,,,
294535,2022-10-07_16h28.08.617,vts_reward_expectancy,2022.2.4,Win32,60.26637739,Chrome,1368,912,,,,,10,953,,,,,,,,,,,,,,,,,D,160,circle,1,0,,,,,,,,,,,,,,,,switch,letter,lettSwt,d,0.4573,Hi,,,,,,2,,,,,,,,high,12,0,12,0,1,,,,,,,,,
294535,2022-10-07_16h28.08.617,vts_reward_expectancy,2022.2.4,Win32,60.26637739,Chrome,1368,912,,,,,10,963,,,,,,,,,,,,,,,,,U,174,star,1,0,,,,,,,,,,,,,,,,repeat,letter,lettRpt,f,0.6173,Lo,,,,,,2,,,,,,,,high,13,0,13,0,1,,,,,,,,,
294535,2022-10-07_16h28.08.617,vts_reward_expectancy,2022.2.4,Win32,60.26637739,Chrome,1368,912,,,,,1,964,,,,,,,,,,,,,,,,,B,181,circle,1,0,,,,,,,,,,,,,,,,repeat,letter,lettRpt,d,0.4844,Hi,,,,,,2,,,,,,,,high,14,0,14,0,1,,,,,,,,,
294535,2022-10-07_16h28.08.617,vts_reward_expectancy,2022.2.4,Win32,60.26637739,Chrome,1368,912,,,,,1,965,,,,,,,,,,,,,,,,,F,146,star,1,0,,,,,,,,,,,,,,,,repeat,letter,lettRpt,d,0.6175,Lo,,,,,,2,,,,,,,,high,15,0,15,0,1,,,,,,,,,
294535,2022-10-07_16h28.08.617,vts_reward_expectancy,2022.2.4,Win32,60.26637739,Chrome,1368,912,,,,,1,966,,,,,,,,,,,,,,,,,F,139,star,1,0,,,,,,,,,,,,,,,,switch,number,numSwt,j,0.5175,Lo,,,,,,2,,,,,,,,high,16,0,16,0,1,,,,,,,,,
294535,2022-10-07_16h28.08.617,vts_reward_expectancy,2022.2.4,Win32,60.26637739,Chrome,1368,912,,,,,10,976,,,,,,,,,,,,,,,,,U,132,circle,1,0,,,,,,,,,,,,,,,,repeat,number,numRpt,j,0.5009,Hi,,,,,,2,,,,,,,,high,17,0,17,0,1,,,,,,,,,
294535,2022-10-07_16h28.08.617,vts_reward_expectancy,2022.2.4,Win32,60.26637739,Chrome,1368,912,,,,,10,986,,,,,,,,,,,,,,,,,B,160,star,1,0,,,,,,,,,,,,,,,,switch,letter,lettSwt,d,0.5346,Lo,,,,,,2,,,,,,,,high,18,0,18,0,1,,,,,,,,,
294535,2022-10-07_16h28.08.617,vts_reward_expectancy,2022.2.4,Win32,60.26637739,Chrome,1368,912,,,,,0,986,,,,,,,,,,,,,,,,,H,174,circle,1,0,,,,,,,,,,,,,,,,switch,number,numSwt,k,0.5845,Hi,,,,,,2,,,,,,,,high,19,0,19,0,1,,,,,,,,,
294535,2022-10-07_16h28.08.617,vts_reward_expectancy,2022.2.4,Win32,60.26637739,Chrome,1368,912,,,,,1,987,,,,,,,,,,,,,,,,,Y,181,star,1,0,,,,,,,,,,,,,,,,switch,letter,lettSwt,f,0.6509,Lo,,,,,,2,,,,,,,,high,20,0,20,0,1,,,,,,,,,
294535,2022-10-07_16h28.08.617,vts_reward_expectancy,2022.2.4,Win32,60.26637739,Chrome,1368,912,,,,,0,987,,,,,,,,,,,,,,,,,S,167,circle,0,0,,,,,,,,,,,,,,,,switch,number,NA,j,0.5512,Lo,,,,,,2,,,,,,,,high,21,0,21,0,1,,,,,,,,,
294535,2022-10-07_16h28.08.617,vts_reward_expectancy,2022.2.4,Win32,60.26637739,Chrome,1368,912,,,,,1,988,,,,,,,,,,,,,,,,,W,125,star,1,1,,,,,,,,,,,,,,,,switch,letter,lettSwt,f,0.5009,Lo,,,,,,2,,,,,,,,high,22,0,22,0,1,,,,,,,,,
294535,2022-10-07_16h28.08.617,vts_reward_expectancy,2022.2.4,Win32,60.26637739,Chrome,1368,912,,,,,0,988,,,,,,,,,,,,,,,,,D,146,circle,1,0,,,,,,,,,,,,,,,,switch,number,numSwt,j,0.7178,Hi,,,,,,2,,,,,,,,high,23,0,23,0,1,,,,,,,,,
294535,2022-10-07_16h28.08.617,vts_reward_expectancy,2022.2.4,Win32,60.26637739,Chrome,1368,912,,,,,1,989,,,,,,,,,,,,,,,,,W,181,star,1,0,,,,,,,,,,,,,,,,repeat,number,numRpt,k,0.8511,Lo,,,,,,2,,,,,,,,high,24,0,24,0,1,,,,,,,,,
294535,2022-10-07_16h28.08.617,vts_reward_expectancy,2022.2.4,Win32,60.26637739,Chrome,1368,912,,,,,10,999,,,,,,,,,,,,,,,,,H,174,circle,1,0,,,,,,,,,,,,,,,,switch,letter,lettSwt,d,0.5347,Hi,,,,,,2,,,,,,,,high,25,0,25,0,1,,,,,,,,,
294535,2022-10-07_16h28.08.617,vts_reward_expectancy,2022.2.4,Win32,60.26637739,Chrome,1368,912,,,,,1,1000,,,,,,,,,,,,,,,,,B,132,star,1,0,,,,,,,,,,,,,,,,repeat,letter,lettRpt,d,0.6506,Lo,,,,,,2,,,,,,,,high,26,0,26,0,1,,,,,,,,,
294535,2022-10-07_16h28.08.617,vts_reward_expectancy,2022.2.4,Win32,60.26637739,Chrome,1368,912,,,,,0,1000,,,,,,,,,,,,,,,,,U,160,circle,1,0,,,,,,,,,,,,,,,,repeat,letter,lettRpt,f,0.5845,Hi,,,,,,2,,,,,,,,high,27,0,27,0,1,,,,,,,,,
294535,2022-10-07_16h28.08.617,vts_reward_expectancy,2022.2.4,Win32,60.26637739,Chrome,1368,912,,,,,0,1000,,,,,,,,,,,,,,,,,D,139,circle,1,0,,,,,,,,,,,,,,,,switch,number,numSwt,j,0.5675,Hi,,,,,,2,,,,,,,,high,28,0,28,0,1,,,,,,,,,
294535,2022-10-07_16h28.08.617,vts_reward_expectancy,2022.2.4,Win32,60.26637739,Chrome,1368,912,,,,,1,1001,,,,,,,,,,,,,,,,,F,167,star,1,0,,,,,,,,,,,,,,,,repeat,number,numRpt,k,0.6406,Lo,,,,,,2,,,,,,,,high,29,0,29,0,1,,,,,,,,,
294535,2022-10-07_16h28.08.617,vts_reward_expectancy,2022.2.4,Win32,60.26637739,Chrome,1368,912,,,,,10,1011,,,,,,,,,,,,,,,,,S,146,circle,1,0,,,,,,,,,,,,,,,,repeat,number,numRpt,j,0.4646,Hi,,,,,,2,,,,,,,,high,30,0,30,0,1,,,,,,,,,
294535,2022-10-07_16h28.08.617,vts_reward_expectancy,2022.2.4,Win32,60.26637739,Chrome,1368,912,,,,,1,1012,,,,,,,,,,,,,,,,,Y,125,star,1,0,,,,,,,,,,,,,,,,repeat,number,numRpt,j,0.6284,Lo,,,,,,2,,,,,,,,high,31,0,31,0,1,,,,,,,,,
294535,2022-10-07_16h28.08.617,vts_reward_expectancy,2022.2.4,Win32,60.26637739,Chrome,1368,912,,,,,0,1012,,,,,,,,,,,,,,,,,B,146,hexagon,0,0,,,,,,,,,,,,,,,,switch,letter,NA,f,0.6675,Lo,,,,,,3,,,,,,space,2.3199,low,0,0,0,0,1,,,,,,,,,
294535,2022-10-07_16h28.08.617,vts_reward_expectancy,2022.2.4,Win32,60.26637739,Chrome,1368,912,,,,,10,1022,,,,,,,,,,,,,,,,,F,139,triangle,1,1,,,,,,,,,,,,,,,,repeat,letter,lettRpt,d,0.5016,Hi,,,,,,3,,,,,,,,low,1,0,1,0,1,,,,,,,,,
294535,2022-10-07_16h28.08.617,vts_reward_expectancy,2022.2.4,Win32,60.26637739,Chrome,1368,912,,,,,1,1023,,,,,,,,,,,,,,,,,Y,125,hexagon,1,0,,,,,,,,,,,,,,,,repeat,letter,lettRpt,f,0.5678,Lo,,,,,,3,,,,,,,,low,2,0,2,0,1,,,,,,,,,
294535,2022-10-07_16h28.08.617,vts_reward_expectancy,2022.2.4,Win32,60.26637739,Chrome,1368,912,,,,,0,1023,,,,,,,,,,,,,,,,,W,132,triangle,1,0,,,,,,,,,,,,,,,,switch,number,numSwt,j,0.6882,Hi,,,,,,3,,,,,,,,low,3,0,3,0,1,,,,,,,,,
294535,2022-10-07_16h28.08.617,vts_reward_expectancy,2022.2.4,Win32,60.26637739,Chrome,1368,912,,,,,10,1033,,,,,,,,,,,,,,,,,D,167,hexagon,1,0,,,,,,,,,,,,,,,,repeat,number,numRpt,k,0.6515,Lo,,,,,,3,,,,,,,,low,4,0,4,0,1,,,,,,,,,
294535,2022-10-07_16h28.08.617,vts_reward_expectancy,2022.2.4,Win32,60.26637739,Chrome,1368,912,,,,,0,1033,,,,,,,,,,,,,,,,,U,174,triangle,1,0,,,,,,,,,,,,,,,,repeat,number,numRpt,k,0.5681,Hi,,,,,,3,,,,,,,,low,5,0,5,0,1,,,,,,,,,
294535,2022-10-07_16h28.08.617,vts_reward_expectancy,2022.2.4,Win32,60.26637739,Chrome,1368,912,,,,,1,1034,,,,,,,,,,,,,,,,,S,181,hexagon,1,0,,,,,,,,,,,,,,,,switch,letter,lettSwt,f,0.5511,Lo,,,,,,3,,,,,,,,low,6,0,6,0,1,,,,,,,,,
294535,2022-10-07_16h28.08.617,vts_reward_expectancy,2022.2.4,Win32,60.26637739,Chrome,1368,912,,,,,10,1044,,,,,,,,,,,,,,,,,H,160,triangle,1,0,,,,,,,,,,,,,,,,switch,number,numSwt,k,0.5005,Hi,,,,,,3,,,,,,,,low,7,0,7,0,1,,,,,,,,,
294535,2022-10-07_16h28.08.617,vts_reward_expectancy,2022.2.4,Win32,60.26637739,Chrome,1368,912,,,,,0,1044,,,,,,,,,,,,,,,,,B,146,triangle,1,0,,,,,,,,,,,,,,,,repeat,number,numRpt,j,0.5673,Hi,,,,,,3,,,,,,,,low,8,0,8,0,1,,,,,,,,,
294535,2022-10-07_16h28.08.617,vts_reward_expectancy,2022.2.4,Win32,60.26637739,Chrome,1368,912,,,,,1,1045,,,,,,,,,,,,,,,,,F,139,hexagon,1,0,,,,,,,,,,,,,,,,switch,letter,lettSwt,d,0.4342,Lo,,,,,,3,,,,,,,,low,9,0,9,0,1,,,,,,,,,
294535,2022-10-07_16h28.08.617,vts_reward_expectancy,2022.2.4,Win32,60.26637739,Chrome,1368,912,,,,,10,1055,,,,,,,,,,,,,,,,,Y,125,hexagon,1,0,,,,,,,,,,,,,,,,switch,number,numSwt,j,0.6174,Lo,,,,,,3,,,,,,,,low,10,0,10,0,1,,,,,,,,,
294535,2022-10-07_16h28.08.617,vts_reward_expectancy,2022.2.4,Win32,60.26637739,Chrome,1368,912,,,,,0,1055,,,,,,,,,,,,,,,,,W,132,triangle,1,0,,,,,,,,,,,,,,,,switch,letter,lettSwt,f,0.5355,Hi,,,,,,3,,,,,,,,low,11,0,11,0,1,,,,,,,,,
294535,2022-10-07_16h28.08.617,vts_reward_expectancy,2022.2.4,Win32,60.26637739,Chrome,1368,912,,,,,1,1056,,,,,,,,,,,,,,,,,D,167,triangle,1,0,,,,,,,,,,,,,,,,repeat,letter,lettRpt,d,0.3693,Hi,,,,,,3,,,,,,,,low,12,0,12,0,1,,,,,,,,,
294535,2022-10-07_16h28.08.617,vts_reward_expectancy,2022.2.4,Win32,60.26637739,Chrome,1368,912,,,,,1,1057,,,,,,,,,,,,,,,,,U,174,hexagon,1,0,,,,,,,,,,,,,,,,repeat,letter,lettRpt,f,0.5337,Lo,,,,,,3,,,,,,,,low,13,0,13,0,1,,,,,,,,,
294535,2022-10-07_16h28.08.617,vts_reward_expectancy,2022.2.4,Win32,60.26637739,Chrome,1368,912,,,,,1,1058,,,,,,,,,,,,,,,,,S,181,triangle,1,0,,,,,,,,,,,,,,,,switch,number,numSwt,k,0.4688,Hi,,,,,,3,,,,,,,,low,14,0,14,0,1,,,,,,,,,
294535,2022-10-07_16h28.08.617,vts_reward_expectancy,2022.2.4,Win32,60.26637739,Chrome,1368,912,,,,,1,1059,,,,,,,,,,,,,,,,,H,160,hexagon,1,0,,,,,,,,,,,,,,,,repeat,number,numRpt,k,0.5675,Lo,,,,,,3,,,,,,,,low,15,0,15,0,1,,,,,,,,,
294535,2022-10-07_16h28.08.617,vts_reward_expectancy,2022.2.4,Win32,60.26637739,Chrome,1368,912,,,,,1,1060,,,,,,,,,,,,,,,,,H,181,triangle,1,0,,,,,,,,,,,,,,,,switch,letter,lettSwt,d,0.4507,Hi,,,,,,3,,,,,,,,low,16,0,16,0,1,,,,,,,,,
294535,2022-10-07_16h28.08.617,vts_reward_expectancy,2022.2.4,Win32,60.26637739,Chrome,1368,912,,,,,1,1061,,,,,,,,,,,,,,,,,W,174,hexagon,1,0,,,,,,,,,,,,,,,,repeat,letter,lettRpt,f,0.5341,Lo,,,,,,3,,,,,,,,low,17,0,17,0,1,,,,,,,,,
294535,2022-10-07_16h28.08.617,vts_reward_expectancy,2022.2.4,Win32,60.26637739,Chrome,1368,912,,,,,0,1061,,,,,,,,,,,,,,,,,Y,167,triangle,0,0,,,,,,,,,,,,,,,,switch,number,NA,j,0.8677,Lo,,,,,,3,,,,,,,,low,18,0,18,0,1,,,,,,,,,
294535,2022-10-07_16h28.08.617,vts_reward_expectancy,2022.2.4,Win32,60.26637739,Chrome,1368,912,,,,,1,1062,,,,,,,,,,,,,,,,,U,146,hexagon,1,1,,,,,,,,,,,,,,,,repeat,number,numRpt,j,1.1179,Lo,,,,,,3,,,,,,,,low,19,0,19,0,1,,,,,,,,,
294535,2022-10-07_16h28.08.617,vts_reward_expectancy,2022.2.4,Win32,60.26637739,Chrome,1368,912,,,,,1,1063,,,,,,,,,,,,,,,,,B,132,hexagon,1,0,,,,,,,,,,,,,,,,repeat,number,numRpt,j,0.6008,Lo,,,,,,3,,,,,,,,low,20,0,20,0,1,,,,,,,,,
294535,2022-10-07_16h28.08.617,vts_reward_expectancy,2022.2.4,Win32,60.26637739,Chrome,1368,912,,,,,0,1063,,,,,,,,,,,,,,,,,F,139,triangle,1,0,,,,,,,,,,,,,,,,switch,letter,lettSwt,d,0.6176,Hi,,,,,,3,,,,,,,,low,21,0,21,0,1,,,,,,,,,
294535,2022-10-07_16h28.08.617,vts_reward_expectancy,2022.2.4,Win32,60.26637739,Chrome,1368,912,,,,,10,1073,,,,,,,,,,,,,,,,,D,160,triangle,1,0,,,,,,,,,,,,,,,,repeat,letter,lettRpt,d,0.4389,Hi,,,,,,3,,,,,,,,low,22,0,22,0,1,,,,,,,,,
294535,2022-10-07_16h28.08.617,vts_reward_expectancy,2022.2.4,Win32,60.26637739,Chrome,1368,912,,,,,1,1074,,,,,,,,,,,,,,,,,S,125,hexagon,1,0,,,,,,,,,,,,,,,,repeat,letter,lettRpt,f,0.7684,Lo,,,,,,3,,,,,,,,low,23,0,23,0,1,,,,,,,,,
294535,2022-10-07_16h28.08.617,vts_reward_expectancy,2022.2.4,Win32,60.26637739,Chrome,1368,912,,,,,10,1084,,,,,,,,,,,,,,,,,B,132,hexagon,1,0,,,,,,,,,,,,,,,,repeat,letter,lettRpt,d,0.6348,Lo,,,,,,3,,,,,,,,low,24,0,24,0,1,,,,,,,,,
294535,2022-10-07_16h28.08.617,vts_reward_expectancy,2022.2.4,Win32,60.26637739,Chrome,1368,912,,,,,0,1084,,,,,,,,,,,,,,,,,U,174,triangle,1,0,,,,,,,,,,,,,,,,switch,number,numSwt,k,0.9511,Hi,,,,,,3,,,,,,,,low,25,0,25,0,1,,,,,,,,,
294535,2022-10-07_16h28.08.617,vts_reward_expectancy,2022.2.4,Win32,60.26637739,Chrome,1368,912,,,,,1,1085,,,,,,,,,,,,,,,,,F,160,hexagon,1,0,,,,,,,,,,,,,,,,repeat,number,numRpt,k,1.018,Lo,,,,,,3,,,,,,,,low,26,0,26,0,1,,,,,,,,,
294535,2022-10-07_16h28.08.617,vts_reward_expectancy,2022.2.4,Win32,60.26637739,Chrome,1368,912,,,,,0,1085,,,,,,,,,,,,,,,,,S,125,triangle,1,0,,,,,,,,,,,,,,,,switch,letter,lettSwt,f,0.7388,Hi,,,,,,3,,,,,,,,low,27,0,27,0,1,,,,,,,,,
294535,2022-10-07_16h28.08.617,vts_reward_expectancy,2022.2.4,Win32,60.26637739,Chrome,1368,912,,,,,10,1095,,,,,,,,,,,,,,,,,D,146,hexagon,1,0,,,,,,,,,,,,,,,,repeat,letter,lettRpt,d,0.6344,Lo,,,,,,3,,,,,,,,low,28,0,28,0,1,,,,,,,,,
294535,2022-10-07_16h28.08.617,vts_reward_expectancy,2022.2.4,Win32,60.26637739,Chrome,1368,912,,,,,10,1105,,,,,,,,,,,,,,,,,H,167,triangle,1,0,,,,,,,,,,,,,,,,repeat,letter,lettRpt,d,0.5514,Hi,,,,,,3,,,,,,,,low,29,0,29,0,1,,,,,,,,,
294535,2022-10-07_16h28.08.617,vts_reward_expectancy,2022.2.4,Win32,60.26637739,Chrome,1368,912,,,,,10,1115,,,,,,,,,,,,,,,,,W,181,hexagon,1,0,,,,,,,,,,,,,,,,repeat,letter,lettRpt,f,0.557,Lo,,,,,,3,,,,,,,,low,30,0,30,0,1,,,,,,,,,
294535,2022-10-07_16h28.08.617,vts_reward_expectancy,2022.2.4,Win32,60.26637739,Chrome,1368,912,,,,,0,1115,,,,,,,,,,,,,,,,,Y,139,triangle,1,0,,,,,,,,,,,,,,,,repeat,letter,lettRpt,f,1.0845,Hi,,,,,,3,,,,,,,,low,31,0,31,0,1,,,,,,,,,
294535,2022-10-07_16h28.08.617,vts_reward_expectancy,2022.2.4,Win32,60.26637739,Chrome,1368,912,,,,,0,1115,,,,,,,,,,,,,,,,,Y,160,triangle,1,0,,,,,,,,,,,,,,,,switch,number,numSwt,k,0.8517,Hi,,,,,,4,,,,,,space,2.5397,low,0,0,0,0,1,,,,,,,,,
294535,2022-10-07_16h28.08.617,vts_reward_expectancy,2022.2.4,Win32,60.26637739,Chrome,1368,912,,,,,10,1125,,,,,,,,,,,,,,,,,U,132,hexagon,1,0,,,,,,,,,,,,,,,,repeat,number,numRpt,j,0.7512,Lo,,,,,,4,,,,,,,,low,1,0,1,0,1,,,,,,,,,
294535,2022-10-07_16h28.08.617,vts_reward_expectancy,2022.2.4,Win32,60.26637739,Chrome,1368,912,,,,,0,1125,,,,,,,,,,,,,,,,,B,174,triangle,1,0,,,,,,,,,,,,,,,,switch,letter,lettSwt,d,0.6175,Hi,,,,,,4,,,,,,,,low,2,0,2,0,1,,,,,,,,,
294535,2022-10-07_16h28.08.617,vts_reward_expectancy,2022.2.4,Win32,60.26637739,Chrome,1368,912,,,,,0,1125,,,,,,,,,,,,,,,,,D,167,hexagon,0,0,,,,,,,,,,,,,,,,switch,number,NA,j,0.5909,Hi,,,,,,4,,,,,,,,low,3,0,3,0,1,,,,,,,,,
294535,2022-10-07_16h28.08.617,vts_reward_expectancy,2022.2.4,Win32,60.26637739,Chrome,1368,912,,,,,1,1126,,,,,,,,,,,,,,,,,F,146,hexagon,1,1,,,,,,,,,,,,,,,,switch,letter,lettSwt,d,0.838,Lo,,,,,,4,,,,,,,,low,4,0,4,0,1,,,,,,,,,
294535,2022-10-07_16h28.08.617,vts_reward_expectancy,2022.2.4,Win32,60.26637739,Chrome,1368,912,,,,,0,1126,,,,,,,,,,,,,,,,,W,125,triangle,1,0,,,,,,,,,,,,,,,,switch,number,numSwt,j,0.5506,Hi,,,,,,4,,,,,,,,low,5,0,5,0,1,,,,,,,,,
294535,2022-10-07_16h28.08.617,vts_reward_expectancy,2022.2.4,Win32,60.26637739,Chrome,1368,912,,,,,1,1127,,,,,,,,,,,,,,,,,H,139,triangle,1,0,,,,,,,,,,,,,,,,switch,letter,lettSwt,d,0.4175,Hi,,,,,,4,,,,,,,,low,6,0,6,0,1,,,,,,,,,
294535,2022-10-07_16h28.08.617,vts_reward_expectancy,2022.2.4,Win32,60.26637739,Chrome,1368,912,,,,,1,1128,,,,,,,,,,,,,,,,,S,181,hexagon,1,0,,,,,,,,,,,,,,,,switch,number,numSwt,k,0.7363,Lo,,,,,,4,,,,,,,,low,7,0,7,0,1,,,,,,,,,
294535,2022-10-07_16h28.08.617,vts_reward_expectancy,2022.2.4,Win32,60.26637739,Chrome,1368,912,,,,,10,1138,,,,,,,,,,,,,,,,,Y,160,hexagon,1,0,,,,,,,,,,,,,,,,switch,letter,lettSwt,f,0.6059,Lo,,,,,,4,,,,,,,,low,8,0,8,0,1,,,,,,,,,
294535,2022-10-07_16h28.08.617,vts_reward_expectancy,2022.2.4,Win32,60.26637739,Chrome,1368,912,,,,,0,1138,,,,,,,,,,,,,,,,,U,132,triangle,1,0,,,,,,,,,,,,,,,,repeat,letter,lettRpt,f,0.5672,Hi,,,,,,4,,,,,,,,low,9,0,9,0,1,,,,,,,,,
294535,2022-10-07_16h28.08.617,vts_reward_expectancy,2022.2.4,Win32,60.26637739,Chrome,1368,912,,,,,0,1138,,,,,,,,,,,,,,,,,B,174,triangle,1,0,,,,,,,,,,,,,,,,repeat,letter,lettRpt,d,0.534,Hi,,,,,,4,,,,,,,,low,10,0,10,0,1,,,,,,,,,
294535,2022-10-07_16h28.08.617,vts_reward_expectancy,2022.2.4,Win32,60.26637739,Chrome,1368,912,,,,,10,1148,,,,,,,,,,,,,,,,,D,167,hexagon,1,0,,,,,,,,,,,,,,,,switch,number,numSwt,k,0.9512,Lo,,,,,,4,,,,,,,,low,11,0,11,0,1,,,,,,,,,
294535,2022-10-07_16h28.08.617,vts_reward_expectancy,2022.2.4,Win32,60.26637739,Chrome,1368,912,,,,,1,1149,,,,,,,,,,,,,,,,,F,146,hexagon,1,0,,,,,,,,,,,,,,,,repeat,number,numRpt,j,0.602,Lo,,,,,,4,,,,,,,,low,12,0,12,0,1,,,,,,,,,
294535,2022-10-07_16h28.08.617,vts_reward_expectancy,2022.2.4,Win32,60.26637739,Chrome,1368,912,,,,,0,1149,,,,,,,,,,,,,,,,,W,125,triangle,1,0,,,,,,,,,,,,,,,,switch,letter,lettSwt,f,0.5845,Hi,,,,,,4,,,,,,,,low,13,0,13,0,1,,,,,,,,,
294535,2022-10-07_16h28.08.617,vts_reward_expectancy,2022.2.4,Win32,60.26637739,Chrome,1368,912,,,,,10,1159,,,,,,,,,,,,,,,,,H,139,triangle,1,0,,,,,,,,,,,,,,,,switch,number,numSwt,j,0.4356,Hi,,,,,,4,,,,,,,,low,14,0,14,0,1,,,,,,,,,
294535,2022-10-07_16h28.08.617,vts_reward_expectancy,2022.2.4,Win32,60.26637739,Chrome,1368,912,,,,,10,1169,,,,,,,,,,,,,,,,,S,181,hexagon,1,0,,,,,,,,,,,,,,,,repeat,number,numRpt,k,0.7673,Lo,,,,,,4,,,,,,,,low,15,0,15,0,1,,,,,,,,,
294535,2022-10-07_16h28.08.617,vts_reward_expectancy,2022.2.4,Win32,60.26637739,Chrome,1368,912,,,,,1,1170,,,,,,,,,,,,,,,,,D,125,hexagon,1,0,,,,,,,,,,,,,,,,switch,letter,lettSwt,d,0.4741,Lo,,,,,,4,,,,,,,,low,16,0,16,0,1,,,,,,,,,
294535,2022-10-07_16h28.08.617,vts_reward_expectancy,2022.2.4,Win32,60.26637739,Chrome,1368,912,,,,,0,1170,,,,,,,,,,,,,,,,,S,139,triangle,1,0,,,,,,,,,,,,,,,,repeat,letter,lettRpt,f,0.6508,Hi,,,,,,4,,,,,,,,low,17,0,17,0,1,,,,,,,,,
294535,2022-10-07_16h28.08.617,vts_reward_expectancy,2022.2.4,Win32,60.26637739,Chrome,1368,912,,,,,10,1180,,,,,,,,,,,,,,,,,B,132,hexagon,1,0,,,,,,,,,,,,,,,,switch,number,numSwt,j,0.7512,Lo,,,,,,4,,,,,,,,low,18,0,18,0,1,,,,,,,,,
294535,2022-10-07_16h28.08.617,vts_reward_expectancy,2022.2.4,Win32,60.26637739,Chrome,1368,912,,,,,10,1190,,,,,,,,,,,,,,,,,F,146,triangle,1,0,,,,,,,,,,,,,,,,repeat,number,numRpt,j,0.534,Hi,,,,,,4,,,,,,,,low,19,0,19,0,1,,,,,,,,,
294535,2022-10-07_16h28.08.617,vts_reward_expectancy,2022.2.4,Win32,60.26637739,Chrome,1368,912,,,,,1,1191,,,,,,,,,,,,,,,,,H,160,hexagon,1,0,,,,,,,,,,,,,,,,repeat,number,numRpt,k,0.7677,Lo,,,,,,4,,,,,,,,low,20,0,20,0,1,,,,,,,,,
294535,2022-10-07_16h28.08.617,vts_reward_expectancy,2022.2.4,Win32,60.26637739,Chrome,1368,912,,,,,0,1191,,,,,,,,,,,,,,,,,U,174,triangle,1,0,,,,,,,,,,,,,,,,repeat,number,numRpt,k,0.6548,Hi,,,,,,4,,,,,,,,low,21,0,21,0,1,,,,,,,,,
294535,2022-10-07_16h28.08.617,vts_reward_expectancy,2022.2.4,Win32,60.26637739,Chrome,1368,912,,,,,1,1192,,,,,,,,,,,,,,,,,W,181,triangle,1,0,,,,,,,,,,,,,,,,repeat,number,numRpt,k,0.5504,Hi,,,,,,4,,,,,,,,low,22,0,22,0,1,,,,,,,,,
294535,2022-10-07_16h28.08.617,vts_reward_expectancy,2022.2.4,Win32,60.26637739,Chrome,1368,912,,,,,10,1202,,,,,,,,,,,,,,,,,Y,167,hexagon,1,0,,,,,,,,,,,,,,,,switch,letter,lettSwt,f,0.5509,Lo,,,,,,4,,,,,,,,low,23,0,23,0,1,,,,,,,,,
294535,2022-10-07_16h28.08.617,vts_reward_expectancy,2022.2.4,Win32,60.26637739,Chrome,1368,912,,,,,1,1203,,,,,,,,,,,,,,,,,B,167,hexagon,1,0,,,,,,,,,,,,,,,,repeat,letter,lettRpt,d,0.6058,Lo,,,,,,4,,,,,,,,low,24,0,24,0,1,,,,,,,,,
294535,2022-10-07_16h28.08.617,vts_reward_expectancy,2022.2.4,Win32,60.26637739,Chrome,1368,912,,,,,0,1203,,,,,,,,,,,,,,,,,H,181,triangle,1,0,,,,,,,,,,,,,,,,switch,number,numSwt,k,0.574,Hi,,,,,,4,,,,,,,,low,25,0,25,0,1,,,,,,,,,
294535,2022-10-07_16h28.08.617,vts_reward_expectancy,2022.2.4,Win32,60.26637739,Chrome,1368,912,,,,,10,1213,,,,,,,,,,,,,,,,,D,132,hexagon,1,0,,,,,,,,,,,,,,,,repeat,number,numRpt,j,0.6506,Lo,,,,,,4,,,,,,,,low,26,0,26,0,1,,,,,,,,,
294535,2022-10-07_16h28.08.617,vts_reward_expectancy,2022.2.4,Win32,60.26637739,Chrome,1368,912,,,,,1,1214,,,,,,,,,,,,,,,,,F,174,triangle,1,0,,,,,,,,,,,,,,,,repeat,number,numRpt,k,0.4839,Hi,,,,,,4,,,,,,,,low,27,0,27,0,1,,,,,,,,,
294535,2022-10-07_16h28.08.617,vts_reward_expectancy,2022.2.4,Win32,60.26637739,Chrome,1368,912,,,,,1,1215,,,,,,,,,,,,,,,,,U,125,hexagon,1,0,,,,,,,,,,,,,,,,repeat,number,numRpt,j,0.6011,Lo,,,,,,4,,,,,,,,low,28,0,28,0,1,,,,,,,,,
294535,2022-10-07_16h28.08.617,vts_reward_expectancy,2022.2.4,Win32,60.26637739,Chrome,1368,912,,,,,0,1215,,,,,,,,,,,,,,,,,S,139,triangle,1,0,,,,,,,,,,,,,,,,switch,letter,lettSwt,f,0.534,Hi,,,,,,4,,,,,,,,low,29,0,29,0,1,,,,,,,,,
294535,2022-10-07_16h28.08.617,vts_reward_expectancy,2022.2.4,Win32,60.26637739,Chrome,1368,912,,,,,1,1216,,,,,,,,,,,,,,,,,Y,146,hexagon,1,0,,,,,,,,,,,,,,,,repeat,letter,lettRpt,f,0.584,Lo,,,,,,4,,,,,,,,low,30,0,30,0,1,,,,,,,,,
294535,2022-10-07_16h28.08.617,vts_reward_expectancy,2022.2.4,Win32,60.26637739,Chrome,1368,912,,,,,0,1216,,,,,,,,,,,,,,,,,W,160,triangle,1,0,,,,,,,,,,,,,,,,repeat,letter,lettRpt,f,0.5511,Hi,,,,,,4,,,,,,,,low,31,0,31,0,1,,,,,,,,,
294535,2022-10-07_16h28.08.617,vts_reward_expectancy,2022.2.4,Win32,60.26637739,Chrome,1368,912,,,,,0,1216,,,,,,,,,,,,,,,,,S,139,circle,1,0,,,,,,,,,,,,,,,,repeat,letter,lettRpt,f,0.7678,Hi,,,,,,5,,,,,,space,1.3675,high,0,0,0,0,1,,,,,,,,,
294535,2022-10-07_16h28.08.617,vts_reward_expectancy,2022.2.4,Win32,60.26637739,Chrome,1368,912,,,,,1,1217,,,,,,,,,,,,,,,,,Y,160,star,1,0,,,,,,,,,,,,,,,,switch,number,numSwt,k,1.0205,Lo,,,,,,5,,,,,,,,high,1,0,1,0,1,,,,,,,,,
294535,2022-10-07_16h28.08.617,vts_reward_expectancy,2022.2.4,Win32,60.26637739,Chrome,1368,912,,,,,10,1227,,,,,,,,,,,,,,,,,W,146,circle,1,0,,,,,,,,,,,,,,,,repeat,number,numRpt,j,0.5174,Hi,,,,,,5,,,,,,,,high,2,0,2,0,1,,,,,,,,,
294535,2022-10-07_16h28.08.617,vts_reward_expectancy,2022.2.4,Win32,60.26637739,Chrome,1368,912,,,,,1,1228,,,,,,,,,,,,,,,,,U,132,star,1,0,,,,,,,,,,,,,,,,switch,letter,lettSwt,f,0.5177,Lo,,,,,,5,,,,,,,,high,3,0,3,0,1,,,,,,,,,
294535,2022-10-07_16h28.08.617,vts_reward_expectancy,2022.2.4,Win32,60.26637739,Chrome,1368,912,,,,,10,1238,,,,,,,,,,,,,,,,,D,174,circle,1,0,,,,,,,,,,,,,,,,switch,number,numSwt,k,0.5341,Hi,,,,,,5,,,,,,,,high,4,0,4,0,1,,,,,,,,,
294535,2022-10-07_16h28.08.617,vts_reward_expectancy,2022.2.4,Win32,60.26637739,Chrome,1368,912,,,,,10,1248,,,,,,,,,,,,,,,,,B,181,star,1,0,,,,,,,,,,,,,,,,repeat,number,numRpt,k,0.5209,Lo,,,,,,5,,,,,,,,high,5,0,5,0,1,,,,,,,,,
294535,2022-10-07_16h28.08.617,vts_reward_expectancy,2022.2.4,Win32,60.26637739,Chrome,1368,912,,,,,0,1248,,,,,,,,,,,,,,,,,H,125,circle,1,0,,,,,,,,,,,,,,,,repeat,number,numRpt,j,0.6911,Hi,,,,,,5,,,,,,,,high,6,0,6,0,1,,,,,,,,,
294535,2022-10-07_16h28.08.617,vts_reward_expectancy,2022.2.4,Win32,60.26637739,Chrome,1368,912,,,,,1,1249,,,,,,,,,,,,,,,,,F,167,star,1,0,,,,,,,,,,,,,,,,switch,letter,lettSwt,d,0.5906,Lo,,,,,,5,,,,,,,,high,7,0,7,0,1,,,,,,,,,
294535,2022-10-07_16h28.08.617,vts_reward_expectancy,2022.2.4,Win32,60.26637739,Chrome,1368,912,,,,,10,1259,,,,,,,,,,,,,,,,,S,139,star,1,0,,,,,,,,,,,,,,,,repeat,letter,lettRpt,f,0.5677,Lo,,,,,,5,,,,,,,,high,8,0,8,0,1,,,,,,,,,
294535,2022-10-07_16h28.08.617,vts_reward_expectancy,2022.2.4,Win32,60.26637739,Chrome,1368,912,,,,,0,1259,,,,,,,,,,,,,,,,,Y,160,circle,1,0,,,,,,,,,,,,,,,,switch,number,numSwt,k,0.6839,Hi,,,,,,5,,,,,,,,high,9,0,9,0,1,,,,,,,,,
294535,2022-10-07_16h28.08.617,vts_reward_expectancy,2022.2.4,Win32,60.26637739,Chrome,1368,912,,,,,10,1269,,,,,,,,,,,,,,,,,W,146,circle,1,0,,,,,,,,,,,,,,,,repeat,number,numRpt,j,0.4843,Hi,,,,,,5,,,,,,,,high,10,0,10,0,1,,,,,,,,,
294535,2022-10-07_16h28.08.617,vts_reward_expectancy,2022.2.4,Win32,60.26637739,Chrome,1368,912,,,,,1,1270,,,,,,,,,,,,,,,,,U,132,star,1,0,,,,,,,,,,,,,,,,switch,letter,lettSwt,f,0.6052,Lo,,,,,,5,,,,,,,,high,11,0,11,0,1,,,,,,,,,
294535,2022-10-07_16h28.08.617,vts_reward_expectancy,2022.2.4,Win32,60.26637739,Chrome,1368,912,,,,,1,1271,,,,,,,,,,,,,,,,,D,174,star,1,0,,,,,,,,,,,,,,,,repeat,letter,lettRpt,d,0.5009,Lo,,,,,,5,,,,,,,,high,12,0,12,0,1,,,,,,,,,
294535,2022-10-07_16h28.08.617,vts_reward_expectancy,2022.2.4,Win32,60.26637739,Chrome,1368,912,,,,,10,1281,,,,,,,,,,,,,,,,,B,181,circle,1,0,,,,,,,,,,,,,,,,repeat,letter,lettRpt,d,0.4522,Hi,,,,,,5,,,,,,,,high,13,0,13,0,1,,,,,,,,,
294535,2022-10-07_16h28.08.617,vts_reward_expectancy,2022.2.4,Win32,60.26637739,Chrome,1368,912,,,,,0,1281,,,,,,,,,,,,,,,,,H,125,circle,1,0,,,,,,,,,,,,,,,,repeat,letter,lettRpt,d,0.6857,Hi,,,,,,5,,,,,,,,high,14,0,14,0,1,,,,,,,,,
294535,2022-10-07_16h28.08.617,vts_reward_expectancy,2022.2.4,Win32,60.26637739,Chrome,1368,912,,,,,10,1291,,,,,,,,,,,,,,,,,F,167,star,1,0,,,,,,,,,,,,,,,,switch,number,numSwt,k,0.6344,Lo,,,,,,5,,,,,,,,high,15,0,15,0,1,,,,,,,,,
294535,2022-10-07_16h28.08.617,vts_reward_expectancy,2022.2.4,Win32,60.26637739,Chrome,1368,912,,,,,0,1291,,,,,,,,,,,,,,,,,H,146,circle,1,0,,,,,,,,,,,,,,,,repeat,number,numRpt,j,0.6513,Hi,,,,,,5,,,,,,,,high,16,0,16,0,1,,,,,,,,,
294535,2022-10-07_16h28.08.617,vts_reward_expectancy,2022.2.4,Win32,60.26637739,Chrome,1368,912,,,,,1,1292,,,,,,,,,,,,,,,,,U,181,star,1,0,,,,,,,,,,,,,,,,repeat,number,numRpt,k,0.4843,Lo,,,,,,5,,,,,,,,high,17,0,17,0,1,,,,,,,,,
294535,2022-10-07_16h28.08.617,vts_reward_expectancy,2022.2.4,Win32,60.26637739,Chrome,1368,912,,,,,1,1293,,,,,,,,,,,,,,,,,S,160,star,1,0,,,,,,,,,,,,,,,,switch,letter,lettSwt,f,0.5174,Lo,,,,,,5,,,,,,,,high,18,0,18,0,1,,,,,,,,,
294535,2022-10-07_16h28.08.617,vts_reward_expectancy,2022.2.4,Win32,60.26637739,Chrome,1368,912,,,,,10,1303,,,,,,,,,,,,,,,,,D,132,circle,1,0,,,,,,,,,,,,,,,,repeat,letter,lettRpt,d,0.4674,Hi,,,,,,5,,,,,,,,high,19,0,19,0,1,,,,,,,,,
294535,2022-10-07_16h28.08.617,vts_reward_expectancy,2022.2.4,Win32,60.26637739,Chrome,1368,912,,,,,10,1313,,,,,,,,,,,,,,,,,F,174,star,1,0,,,,,,,,,,,,,,,,repeat,letter,lettRpt,d,0.5695,Lo,,,,,,5,,,,,,,,high,20,0,20,0,1,,,,,,,,,
294535,2022-10-07_16h28.08.617,vts_reward_expectancy,2022.2.4,Win32,60.26637739,Chrome,1368,912,,,,,10,1323,,,,,,,,,,,,,,,,,W,167,circle,1,0,,,,,,,,,,,,,,,,repeat,letter,lettRpt,f,0.5342,Hi,,,,,,5,,,,,,,,high,21,0,21,0,1,,,,,,,,,
294535,2022-10-07_16h28.08.617,vts_reward_expectancy,2022.2.4,Win32,60.26637739,Chrome,1368,912,,,,,1,1324,,,,,,,,,,,,,,,,,Y,139,star,1,0,,,,,,,,,,,,,,,,switch,number,numSwt,j,0.5009,Lo,,,,,,5,,,,,,,,high,22,0,22,0,1,,,,,,,,,
294535,2022-10-07_16h28.08.617,vts_reward_expectancy,2022.2.4,Win32,60.26637739,Chrome,1368,912,,,,,10,1334,,,,,,,,,,,,,,,,,B,125,circle,1,0,,,,,,,,,,,,,,,,repeat,number,numRpt,j,0.3999,Hi,,,,,,5,,,,,,,,high,23,0,23,0,1,,,,,,,,,
294535,2022-10-07_16h28.08.617,vts_reward_expectancy,2022.2.4,Win32,60.26637739,Chrome,1368,912,,,,,1,1335,,,,,,,,,,,,,,,,,H,181,star,1,0,,,,,,,,,,,,,,,,repeat,number,numRpt,k,0.801,Lo,,,,,,5,,,,,,,,high,24,0,24,0,1,,,,,,,,,
294535,2022-10-07_16h28.08.617,vts_reward_expectancy,2022.2.4,Win32,60.26637739,Chrome,1368,912,,,,,10,1345,,,,,,,,,,,,,,,,,U,132,circle,1,0,,,,,,,,,,,,,,,,switch,letter,lettSwt,f,0.4722,Hi,,,,,,5,,,,,,,,high,25,0,25,0,1,,,,,,,,,
294535,2022-10-07_16h28.08.617,vts_reward_expectancy,2022.2.4,Win32,60.26637739,Chrome,1368,912,,,,,10,1355,,,,,,,,,,,,,,,,,D,139,circle,1,0,,,,,,,,,,,,,,,,repeat,letter,lettRpt,d,0.5508,Hi,,,,,,5,,,,,,,,high,26,0,26,0,1,,,,,,,,,
294535,2022-10-07_16h28.08.617,vts_reward_expectancy,2022.2.4,Win32,60.26637739,Chrome,1368,912,,,,,1,1356,,,,,,,,,,,,,,,,,F,174,star,1,0,,,,,,,,,,,,,,,,switch,number,numSwt,k,0.673,Lo,,,,,,5,,,,,,,,high,27,0,27,0,1,,,,,,,,,
294535,2022-10-07_16h28.08.617,vts_reward_expectancy,2022.2.4,Win32,60.26637739,Chrome,1368,912,,,,,10,1366,,,,,,,,,,,,,,,,,S,146,circle,1,0,,,,,,,,,,,,,,,,switch,letter,lettSwt,f,0.5006,Hi,,,,,,5,,,,,,,,high,28,0,28,0,1,,,,,,,,,
294535,2022-10-07_16h28.08.617,vts_reward_expectancy,2022.2.4,Win32,60.26637739,Chrome,1368,912,,,,,1,1367,,,,,,,,,,,,,,,,,W,125,star,1,0,,,,,,,,,,,,,,,,repeat,letter,lettRpt,f,0.5071,Lo,,,,,,5,,,,,,,,high,29,0,29,0,1,,,,,,,,,
294535,2022-10-07_16h28.08.617,vts_reward_expectancy,2022.2.4,Win32,60.26637739,Chrome,1368,912,,,,,10,1377,,,,,,,,,,,,,,,,,B,167,star,1,0,,,,,,,,,,,,,,,,switch,number,numSwt,k,0.9339,Lo,,,,,,5,,,,,,,,high,30,0,30,0,1,,,,,,,,,
294535,2022-10-07_16h28.08.617,vts_reward_expectancy,2022.2.4,Win32,60.26637739,Chrome,1368,912,,,,,10,1387,,,,,,,,,,,,,,,,,Y,160,circle,1,0,,,,,,,,,,,,,,,,switch,letter,lettSwt,f,0.5193,Hi,,,,,,5,,,,,,,,high,31,0,31,0,1,,,,,,,,,
294535,2022-10-07_16h28.08.617,vts_reward_expectancy,2022.2.4,Win32,60.26637739,Chrome,1368,912,,,,,,,,,,,,,,,,,,,,,,,,,,,,,,,,,,,,,,,,,,,,,,,,,,,,,,6,,,,,,,,,,,,,,I was asked to identify a pattern about shape and associated pitns first. Then was to focus on letters close to A or Z. The numbers closer to 153 or not. Then add it all together to get pints while answering questions about letters and numbers.,2,When the poitns value start to differ from the same shape ,3,3,,2,1368,912
