participant,date,expName,psychopyVersion,OS,frameRate,browser,xResolution,yResolution,key_resp.keys,key_resp.rt,training_resp.keys,training_resp.rt,points_trial,points_cumul,trainBlock,training.thisRepN,training.thisTrialN,training.thisN,training.thisIndex,training.ran,LTriangleOpac,LCircleOpac,LHexagonOpac,LStarOpac,RTriangleOpac,RCircleOpac,RHexagonOpac,RStarOpac,LShape_ID,RShape_ID,curr_topStim,curr_bottStim,curr_shape,acc,E1,target_resp_prac1.keys,target_resp_prac1.rt,pracBlock,task1_prac_trials.thisRepN,task1_prac_trials.thisTrialN,task1_prac_trials.thisN,task1_prac_trials.thisIndex,task1_prac_trials.ran,target_resp_prac2.keys,target_resp_prac2.rt,task2_praac_trials.thisRepN,task2_praac_trials.thisTrialN,task2_praac_trials.thisN,task2_praac_trials.thisIndex,task2_praac_trials.ran,alt,task,condition,target_resp.keys,target_resp.rt,rewCond,vts_practice_trials.thisRepN,vts_practice_trials.thisTrialN,vts_practice_trials.thisN,vts_practice_trials.thisIndex,vts_practice_trials.ran,blockNum,trials_norew.thisRepN,trials_norew.thisTrialN,trials_norew.thisN,trials_norew.thisIndex,trials_norew.ran,key_resp_2.keys,key_resp_2.rt,rewExpect,trials_rew.thisRepN,trials_rew.thisTrialN,trials_rew.thisN,trials_rew.thisIndex,trials_rew.ran,Q1,Q2,Q2_text,Q3,Q4,Q5_text,Q5,xRes,yRes
293599,2022-10-06_23h31.50.891,vts_reward_expectancy,2022.2.4,Win32,60.09615385,Chrome,1280,720,,,,,,,,,,,,,,,,,,,,,,,,,,,,,,,,,,,,,,,,,,,,,,,,,,,,,,,,,,,,,,,,,,,,,,,,,,,,
293599,2022-10-06_23h31.50.891,vts_reward_expectancy,2022.2.4,Win32,60.09615385,Chrome,1280,720,space,19.5307,,,,,,,,,,,,,,,,,,,,,,,,,,,,,,,,,,,,,,,,,,,,,,,,,,,,,,,,,,,,,,,,,,,,,,,,,,
293599,2022-10-06_23h31.50.891,vts_reward_expectancy,2022.2.4,Win32,60.09615385,Chrome,1280,720,,,,,,,,,,,,,,,,,,,,,,,,,,,,,,,,,,,,,,,,,,,,,,,,,,,,,,,,,,,,,,,,,,,,,,,,,,,,
293599,2022-10-06_23h31.50.891,vts_reward_expectancy,2022.2.4,Win32,60.09615385,Chrome,1280,720,,,l,3.2617,10,10,0,0,0,0,2,1,1,0,0,0,0,0,0,1,triangle,star,,,,,,,,,,,,,,,,,,,,,,,,,,,,,,,,,,,,,,,,,,,,,,,,,,,,,,
293599,2022-10-06_23h31.50.891,vts_reward_expectancy,2022.2.4,Win32,60.09615385,Chrome,1280,720,,,a,1.2143,1,11,0,0,1,1,7,1,0,0,1,0,0,1,0,0,hexagon,circle,,,,,,,,,,,,,,,,,,,,,,,,,,,,,,,,,,,,,,,,,,,,,,,,,,,,,,
293599,2022-10-06_23h31.50.891,vts_reward_expectancy,2022.2.4,Win32,60.09615385,Chrome,1280,720,,,a,1.0451,10,21,0,0,2,2,11,1,0,0,0,1,0,0,1,0,star,hexagon,,,,,,,,,,,,,,,,,,,,,,,,,,,,,,,,,,,,,,,,,,,,,,,,,,,,,,
293599,2022-10-06_23h31.50.891,vts_reward_expectancy,2022.2.4,Win32,60.09615385,Chrome,1280,720,,,l,1.928,10,31,0,0,3,3,5,1,0,1,0,0,0,0,0,1,circle,star,,,,,,,,,,,,,,,,,,,,,,,,,,,,,,,,,,,,,,,,,,,,,,,,,,,,,,
293599,2022-10-06_23h31.50.891,vts_reward_expectancy,2022.2.4,Win32,60.09615385,Chrome,1280,720,,,a,1.7167,1,32,0,0,4,4,1,1,1,0,0,0,0,0,1,0,triangle,hexagon,,,,,,,,,,,,,,,,,,,,,,,,,,,,,,,,,,,,,,,,,,,,,,,,,,,,,,
293599,2022-10-06_23h31.50.891,vts_reward_expectancy,2022.2.4,Win32,60.09615385,Chrome,1280,720,,,l,1.1176,10,42,0,0,5,5,8,1,0,0,1,0,0,0,0,1,hexagon,star,,,,,,,,,,,,,,,,,,,,,,,,,,,,,,,,,,,,,,,,,,,,,,,,,,,,,,
293599,2022-10-06_23h31.50.891,vts_reward_expectancy,2022.2.4,Win32,60.09615385,Chrome,1280,720,,,a,2.1702,10,52,0,0,6,6,10,1,0,0,0,1,0,1,0,0,star ,circle,,,,,,,,,,,,,,,,,,,,,,,,,,,,,,,,,,,,,,,,,,,,,,,,,,,,,,
293599,2022-10-06_23h31.50.891,vts_reward_expectancy,2022.2.4,Win32,60.09615385,Chrome,1280,720,,,a,1.6229,1,53,0,0,7,7,6,1,0,0,1,0,1,0,0,0,hexagon,triangle,,,,,,,,,,,,,,,,,,,,,,,,,,,,,,,,,,,,,,,,,,,,,,,,,,,,,,
293599,2022-10-06_23h31.50.891,vts_reward_expectancy,2022.2.4,Win32,60.09615385,Chrome,1280,720,,,l,1.2221,10,63,0,0,8,8,0,1,1,0,0,0,0,1,0,0,triangle,circle,,,,,,,,,,,,,,,,,,,,,,,,,,,,,,,,,,,,,,,,,,,,,,,,,,,,,,
293599,2022-10-06_23h31.50.891,vts_reward_expectancy,2022.2.4,Win32,60.09615385,Chrome,1280,720,,,a,1.4182,10,73,0,0,9,9,3,1,0,1,0,0,1,0,0,0,circle,triangle,,,,,,,,,,,,,,,,,,,,,,,,,,,,,,,,,,,,,,,,,,,,,,,,,,,,,,
293599,2022-10-06_23h31.50.891,vts_reward_expectancy,2022.2.4,Win32,60.09615385,Chrome,1280,720,,,a,0.9503,10,83,0,0,10,10,9,1,0,0,0,1,1,0,0,0,star,triangle,,,,,,,,,,,,,,,,,,,,,,,,,,,,,,,,,,,,,,,,,,,,,,,,,,,,,,
293599,2022-10-06_23h31.50.891,vts_reward_expectancy,2022.2.4,Win32,60.09615385,Chrome,1280,720,,,a,1.6723,10,93,0,0,11,11,4,1,0,1,0,0,0,0,1,0,circle,hexagon,,,,,,,,,,,,,,,,,,,,,,,,,,,,,,,,,,,,,,,,,,,,,,,,,,,,,,
293599,2022-10-06_23h31.50.891,vts_reward_expectancy,2022.2.4,Win32,60.09615385,Chrome,1280,720,,,l,2.1163,1,94,0,1,0,12,6,1,0,0,1,0,1,0,0,0,hexagon,triangle,,,,,,,,,,,,,,,,,,,,,,,,,,,,,,,,,,,,,,,,,,,,,,,,,,,,,,
293599,2022-10-06_23h31.50.891,vts_reward_expectancy,2022.2.4,Win32,60.09615385,Chrome,1280,720,,,l,1.2983,10,104,0,1,1,13,5,1,0,1,0,0,0,0,0,1,circle,star,,,,,,,,,,,,,,,,,,,,,,,,,,,,,,,,,,,,,,,,,,,,,,,,,,,,,,
293599,2022-10-06_23h31.50.891,vts_reward_expectancy,2022.2.4,Win32,60.09615385,Chrome,1280,720,,,a,1.5973,10,114,0,1,2,14,10,1,0,0,0,1,0,1,0,0,star ,circle,,,,,,,,,,,,,,,,,,,,,,,,,,,,,,,,,,,,,,,,,,,,,,,,,,,,,,
293599,2022-10-06_23h31.50.891,vts_reward_expectancy,2022.2.4,Win32,60.09615385,Chrome,1280,720,,,a,0.9346,10,124,0,1,3,15,9,1,0,0,0,1,1,0,0,0,star,triangle,,,,,,,,,,,,,,,,,,,,,,,,,,,,,,,,,,,,,,,,,,,,,,,,,,,,,,
293599,2022-10-06_23h31.50.891,vts_reward_expectancy,2022.2.4,Win32,60.09615385,Chrome,1280,720,,,a,1.0019,10,134,0,1,4,16,3,1,0,1,0,0,1,0,0,0,circle,triangle,,,,,,,,,,,,,,,,,,,,,,,,,,,,,,,,,,,,,,,,,,,,,,,,,,,,,,
293599,2022-10-06_23h31.50.891,vts_reward_expectancy,2022.2.4,Win32,60.09615385,Chrome,1280,720,,,l,0.9662,10,144,0,1,5,17,0,1,1,0,0,0,0,1,0,0,triangle,circle,,,,,,,,,,,,,,,,,,,,,,,,,,,,,,,,,,,,,,,,,,,,,,,,,,,,,,
293599,2022-10-06_23h31.50.891,vts_reward_expectancy,2022.2.4,Win32,60.09615385,Chrome,1280,720,,,a,1.0625,10,154,0,1,6,18,11,1,0,0,0,1,0,0,1,0,star,hexagon,,,,,,,,,,,,,,,,,,,,,,,,,,,,,,,,,,,,,,,,,,,,,,,,,,,,,,
293599,2022-10-06_23h31.50.891,vts_reward_expectancy,2022.2.4,Win32,60.09615385,Chrome,1280,720,,,l,0.7032,10,164,0,1,7,19,2,1,1,0,0,0,0,0,0,1,triangle,star,,,,,,,,,,,,,,,,,,,,,,,,,,,,,,,,,,,,,,,,,,,,,,,,,,,,,,
293599,2022-10-06_23h31.50.891,vts_reward_expectancy,2022.2.4,Win32,60.09615385,Chrome,1280,720,,,l,2.32,1,165,0,1,8,20,1,1,1,0,0,0,0,0,1,0,triangle,hexagon,,,,,,,,,,,,,,,,,,,,,,,,,,,,,,,,,,,,,,,,,,,,,,,,,,,,,,
293599,2022-10-06_23h31.50.891,vts_reward_expectancy,2022.2.4,Win32,60.09615385,Chrome,1280,720,,,a,0.9999,10,175,0,1,9,21,4,1,0,1,0,0,0,0,1,0,circle,hexagon,,,,,,,,,,,,,,,,,,,,,,,,,,,,,,,,,,,,,,,,,,,,,,,,,,,,,,
293599,2022-10-06_23h31.50.891,vts_reward_expectancy,2022.2.4,Win32,60.09615385,Chrome,1280,720,,,l,1.7733,1,176,0,1,10,22,8,1,0,0,1,0,0,0,0,1,hexagon,star,,,,,,,,,,,,,,,,,,,,,,,,,,,,,,,,,,,,,,,,,,,,,,,,,,,,,,
293599,2022-10-06_23h31.50.891,vts_reward_expectancy,2022.2.4,Win32,60.09615385,Chrome,1280,720,,,l,7.9688,10,186,0,1,11,23,7,1,0,0,1,0,0,1,0,0,hexagon,circle,,,,,,,,,,,,,,,,,,,,,,,,,,,,,,,,,,,,,,,,,,,,,,,,,,,,,,
293599,2022-10-06_23h31.50.891,vts_reward_expectancy,2022.2.4,Win32,60.09615385,Chrome,1280,720,,,l,1.0349,10,196,0,2,0,24,0,1,1,0,0,0,0,1,0,0,triangle,circle,,,,,,,,,,,,,,,,,,,,,,,,,,,,,,,,,,,,,,,,,,,,,,,,,,,,,,
293599,2022-10-06_23h31.50.891,vts_reward_expectancy,2022.2.4,Win32,60.09615385,Chrome,1280,720,,,l,1.1697,10,206,0,2,1,25,2,1,1,0,0,0,0,0,0,1,triangle,star,,,,,,,,,,,,,,,,,,,,,,,,,,,,,,,,,,,,,,,,,,,,,,,,,,,,,,
293599,2022-10-06_23h31.50.891,vts_reward_expectancy,2022.2.4,Win32,60.09615385,Chrome,1280,720,,,a,1.67,10,216,0,2,2,26,4,1,0,1,0,0,0,0,1,0,circle,hexagon,,,,,,,,,,,,,,,,,,,,,,,,,,,,,,,,,,,,,,,,,,,,,,,,,,,,,,
293599,2022-10-06_23h31.50.891,vts_reward_expectancy,2022.2.4,Win32,60.09615385,Chrome,1280,720,,,a,0.6955,1,217,0,2,3,27,5,1,0,1,0,0,0,0,0,1,circle,star,,,,,,,,,,,,,,,,,,,,,,,,,,,,,,,,,,,,,,,,,,,,,,,,,,,,,,
293599,2022-10-06_23h31.50.891,vts_reward_expectancy,2022.2.4,Win32,60.09615385,Chrome,1280,720,,,a,1.5017,1,218,0,2,4,28,10,1,0,0,0,1,0,1,0,0,star ,circle,,,,,,,,,,,,,,,,,,,,,,,,,,,,,,,,,,,,,,,,,,,,,,,,,,,,,,
293599,2022-10-06_23h31.50.891,vts_reward_expectancy,2022.2.4,Win32,60.09615385,Chrome,1280,720,,,l,0.8167,10,228,0,2,5,29,8,1,0,0,1,0,0,0,0,1,hexagon,star,,,,,,,,,,,,,,,,,,,,,,,,,,,,,,,,,,,,,,,,,,,,,,,,,,,,,,
293599,2022-10-06_23h31.50.891,vts_reward_expectancy,2022.2.4,Win32,60.09615385,Chrome,1280,720,,,a,0.9061,10,238,0,2,6,30,3,1,0,1,0,0,1,0,0,0,circle,triangle,,,,,,,,,,,,,,,,,,,,,,,,,,,,,,,,,,,,,,,,,,,,,,,,,,,,,,
293599,2022-10-06_23h31.50.891,vts_reward_expectancy,2022.2.4,Win32,60.09615385,Chrome,1280,720,,,l,0.9151,1,239,0,2,7,31,7,1,0,0,1,0,0,1,0,0,hexagon,circle,,,,,,,,,,,,,,,,,,,,,,,,,,,,,,,,,,,,,,,,,,,,,,,,,,,,,,
293599,2022-10-06_23h31.50.891,vts_reward_expectancy,2022.2.4,Win32,60.09615385,Chrome,1280,720,,,a,0.8516,10,249,0,2,8,32,9,1,0,0,0,1,1,0,0,0,star,triangle,,,,,,,,,,,,,,,,,,,,,,,,,,,,,,,,,,,,,,,,,,,,,,,,,,,,,,
293599,2022-10-06_23h31.50.891,vts_reward_expectancy,2022.2.4,Win32,60.09615385,Chrome,1280,720,,,a,1.2156,10,259,0,2,9,33,11,1,0,0,0,1,0,0,1,0,star,hexagon,,,,,,,,,,,,,,,,,,,,,,,,,,,,,,,,,,,,,,,,,,,,,,,,,,,,,,
293599,2022-10-06_23h31.50.891,vts_reward_expectancy,2022.2.4,Win32,60.09615385,Chrome,1280,720,,,l,1.7411,1,260,0,2,10,34,1,1,1,0,0,0,0,0,1,0,triangle,hexagon,,,,,,,,,,,,,,,,,,,,,,,,,,,,,,,,,,,,,,,,,,,,,,,,,,,,,,
293599,2022-10-06_23h31.50.891,vts_reward_expectancy,2022.2.4,Win32,60.09615385,Chrome,1280,720,,,l,1.1896,10,270,0,2,11,35,6,1,0,0,1,0,1,0,0,0,hexagon,triangle,,,,,,,,,,,,,,,,,,,,,,,,,,,,,,,,,,,,,,,,,,,,,,,,,,,,,,
293599,2022-10-06_23h31.50.891,vts_reward_expectancy,2022.2.4,Win32,60.09615385,Chrome,1280,720,,,a,1.1543,10,280,1,0,0,0,9,1,0,0,0,1,1,0,0,0,star,triangle,,,,,,,,,,,,,,,,,,,,,,,,,,,,,,,,,,,,,,,,,,,,,,,,,,,,,,
293599,2022-10-06_23h31.50.891,vts_reward_expectancy,2022.2.4,Win32,60.09615385,Chrome,1280,720,,,l,0.7877,10,290,1,0,1,1,8,1,0,0,1,0,0,0,0,1,hexagon,star,,,,,,,,,,,,,,,,,,,,,,,,,,,,,,,,,,,,,,,,,,,,,,,,,,,,,,
293599,2022-10-06_23h31.50.891,vts_reward_expectancy,2022.2.4,Win32,60.09615385,Chrome,1280,720,,,a,1.6997,10,300,1,0,2,2,3,1,0,1,0,0,1,0,0,0,circle,triangle,,,,,,,,,,,,,,,,,,,,,,,,,,,,,,,,,,,,,,,,,,,,,,,,,,,,,,
293599,2022-10-06_23h31.50.891,vts_reward_expectancy,2022.2.4,Win32,60.09615385,Chrome,1280,720,,,a,0.7058,10,310,1,0,3,3,11,1,0,0,0,1,0,0,1,0,star,hexagon,,,,,,,,,,,,,,,,,,,,,,,,,,,,,,,,,,,,,,,,,,,,,,,,,,,,,,
293599,2022-10-06_23h31.50.891,vts_reward_expectancy,2022.2.4,Win32,60.09615385,Chrome,1280,720,,,a,1.8653,10,320,1,0,4,4,10,1,0,0,0,1,0,1,0,0,star ,circle,,,,,,,,,,,,,,,,,,,,,,,,,,,,,,,,,,,,,,,,,,,,,,,,,,,,,,
293599,2022-10-06_23h31.50.891,vts_reward_expectancy,2022.2.4,Win32,60.09615385,Chrome,1280,720,,,l,0.7669,10,330,1,0,5,5,5,1,0,1,0,0,0,0,0,1,circle,star,,,,,,,,,,,,,,,,,,,,,,,,,,,,,,,,,,,,,,,,,,,,,,,,,,,,,,
293599,2022-10-06_23h31.50.891,vts_reward_expectancy,2022.2.4,Win32,60.09615385,Chrome,1280,720,,,a,1.5532,10,340,1,0,6,6,4,1,0,1,0,0,0,0,1,0,circle,hexagon,,,,,,,,,,,,,,,,,,,,,,,,,,,,,,,,,,,,,,,,,,,,,,,,,,,,,,
293599,2022-10-06_23h31.50.891,vts_reward_expectancy,2022.2.4,Win32,60.09615385,Chrome,1280,720,,,l,1.8461,10,350,1,0,7,7,6,1,0,0,1,0,1,0,0,0,hexagon,triangle,,,,,,,,,,,,,,,,,,,,,,,,,,,,,,,,,,,,,,,,,,,,,,,,,,,,,,
293599,2022-10-06_23h31.50.891,vts_reward_expectancy,2022.2.4,Win32,60.09615385,Chrome,1280,720,,,l,2.4664,10,360,1,0,8,8,2,1,1,0,0,0,0,0,0,1,triangle,star,,,,,,,,,,,,,,,,,,,,,,,,,,,,,,,,,,,,,,,,,,,,,,,,,,,,,,
293599,2022-10-06_23h31.50.891,vts_reward_expectancy,2022.2.4,Win32,60.09615385,Chrome,1280,720,,,a,1.5478,10,370,1,0,9,9,1,1,1,0,0,0,0,0,1,0,triangle,hexagon,,,,,,,,,,,,,,,,,,,,,,,,,,,,,,,,,,,,,,,,,,,,,,,,,,,,,,
293599,2022-10-06_23h31.50.891,vts_reward_expectancy,2022.2.4,Win32,60.09615385,Chrome,1280,720,,,l,1.5072,10,380,1,0,10,10,0,1,1,0,0,0,0,1,0,0,triangle,circle,,,,,,,,,,,,,,,,,,,,,,,,,,,,,,,,,,,,,,,,,,,,,,,,,,,,,,
293599,2022-10-06_23h31.50.891,vts_reward_expectancy,2022.2.4,Win32,60.09615385,Chrome,1280,720,,,l,1.5881,10,390,1,0,11,11,7,1,0,0,1,0,0,1,0,0,hexagon,circle,,,,,,,,,,,,,,,,,,,,,,,,,,,,,,,,,,,,,,,,,,,,,,,,,,,,,,
293599,2022-10-06_23h31.50.891,vts_reward_expectancy,2022.2.4,Win32,60.09615385,Chrome,1280,720,,,a,2.2566,1,391,1,1,0,12,1,1,1,0,0,0,0,0,1,0,triangle,hexagon,,,,,,,,,,,,,,,,,,,,,,,,,,,,,,,,,,,,,,,,,,,,,,,,,,,,,,
293599,2022-10-06_23h31.50.891,vts_reward_expectancy,2022.2.4,Win32,60.09615385,Chrome,1280,720,,,a,0.9476,1,392,1,1,1,13,10,1,0,0,0,1,0,1,0,0,star ,circle,,,,,,,,,,,,,,,,,,,,,,,,,,,,,,,,,,,,,,,,,,,,,,,,,,,,,,
293599,2022-10-06_23h31.50.891,vts_reward_expectancy,2022.2.4,Win32,60.09615385,Chrome,1280,720,,,l,1.4193,1,393,1,1,2,14,2,1,1,0,0,0,0,0,0,1,triangle,star,,,,,,,,,,,,,,,,,,,,,,,,,,,,,,,,,,,,,,,,,,,,,,,,,,,,,,
293599,2022-10-06_23h31.50.891,vts_reward_expectancy,2022.2.4,Win32,60.09615385,Chrome,1280,720,,,a,6.248,10,403,1,1,3,15,11,1,0,0,0,1,0,0,1,0,star,hexagon,,,,,,,,,,,,,,,,,,,,,,,,,,,,,,,,,,,,,,,,,,,,,,,,,,,,,,
293599,2022-10-06_23h31.50.891,vts_reward_expectancy,2022.2.4,Win32,60.09615385,Chrome,1280,720,,,a,10.247,10,413,1,1,4,16,3,1,0,1,0,0,1,0,0,0,circle,triangle,,,,,,,,,,,,,,,,,,,,,,,,,,,,,,,,,,,,,,,,,,,,,,,,,,,,,,
293599,2022-10-06_23h31.50.891,vts_reward_expectancy,2022.2.4,Win32,60.09615385,Chrome,1280,720,,,l,1.397,10,423,1,1,5,17,7,1,0,0,1,0,0,1,0,0,hexagon,circle,,,,,,,,,,,,,,,,,,,,,,,,,,,,,,,,,,,,,,,,,,,,,,,,,,,,,,
293599,2022-10-06_23h31.50.891,vts_reward_expectancy,2022.2.4,Win32,60.09615385,Chrome,1280,720,,,l,1.3324,10,433,1,1,6,18,5,1,0,1,0,0,0,0,0,1,circle,star,,,,,,,,,,,,,,,,,,,,,,,,,,,,,,,,,,,,,,,,,,,,,,,,,,,,,,
293599,2022-10-06_23h31.50.891,vts_reward_expectancy,2022.2.4,Win32,60.09615385,Chrome,1280,720,,,l,1.3961,1,434,1,1,7,19,6,1,0,0,1,0,1,0,0,0,hexagon,triangle,,,,,,,,,,,,,,,,,,,,,,,,,,,,,,,,,,,,,,,,,,,,,,,,,,,,,,
293599,2022-10-06_23h31.50.891,vts_reward_expectancy,2022.2.4,Win32,60.09615385,Chrome,1280,720,,,l,1.101,1,435,1,1,8,20,0,1,1,0,0,0,0,1,0,0,triangle,circle,,,,,,,,,,,,,,,,,,,,,,,,,,,,,,,,,,,,,,,,,,,,,,,,,,,,,,
293599,2022-10-06_23h31.50.891,vts_reward_expectancy,2022.2.4,Win32,60.09615385,Chrome,1280,720,,,a,0.9538,10,445,1,1,9,21,9,1,0,0,0,1,1,0,0,0,star,triangle,,,,,,,,,,,,,,,,,,,,,,,,,,,,,,,,,,,,,,,,,,,,,,,,,,,,,,
293599,2022-10-06_23h31.50.891,vts_reward_expectancy,2022.2.4,Win32,60.09615385,Chrome,1280,720,,,l,0.8558,10,455,1,1,10,22,8,1,0,0,1,0,0,0,0,1,hexagon,star,,,,,,,,,,,,,,,,,,,,,,,,,,,,,,,,,,,,,,,,,,,,,,,,,,,,,,
293599,2022-10-06_23h31.50.891,vts_reward_expectancy,2022.2.4,Win32,60.09615385,Chrome,1280,720,,,l,1.3172,1,456,1,1,11,23,4,1,0,1,0,0,0,0,1,0,circle,hexagon,,,,,,,,,,,,,,,,,,,,,,,,,,,,,,,,,,,,,,,,,,,,,,,,,,,,,,
293599,2022-10-06_23h31.50.891,vts_reward_expectancy,2022.2.4,Win32,60.09615385,Chrome,1280,720,,,a,0.8657,1,457,1,2,0,24,10,1,0,0,0,1,0,1,0,0,star ,circle,,,,,,,,,,,,,,,,,,,,,,,,,,,,,,,,,,,,,,,,,,,,,,,,,,,,,,
293599,2022-10-06_23h31.50.891,vts_reward_expectancy,2022.2.4,Win32,60.09615385,Chrome,1280,720,,,l,1.437,10,467,1,2,1,25,5,1,0,1,0,0,0,0,0,1,circle,star,,,,,,,,,,,,,,,,,,,,,,,,,,,,,,,,,,,,,,,,,,,,,,,,,,,,,,
293599,2022-10-06_23h31.50.891,vts_reward_expectancy,2022.2.4,Win32,60.09615385,Chrome,1280,720,,,a,2.8383,10,477,1,2,2,26,6,1,0,0,1,0,1,0,0,0,hexagon,triangle,,,,,,,,,,,,,,,,,,,,,,,,,,,,,,,,,,,,,,,,,,,,,,,,,,,,,,
293599,2022-10-06_23h31.50.891,vts_reward_expectancy,2022.2.4,Win32,60.09615385,Chrome,1280,720,,,l,2.765,1,478,1,2,3,27,0,1,1,0,0,0,0,1,0,0,triangle,circle,,,,,,,,,,,,,,,,,,,,,,,,,,,,,,,,,,,,,,,,,,,,,,,,,,,,,,
293599,2022-10-06_23h31.50.891,vts_reward_expectancy,2022.2.4,Win32,60.09615385,Chrome,1280,720,,,a,1.0529,10,488,1,2,4,28,4,1,0,1,0,0,0,0,1,0,circle,hexagon,,,,,,,,,,,,,,,,,,,,,,,,,,,,,,,,,,,,,,,,,,,,,,,,,,,,,,
293599,2022-10-06_23h31.50.891,vts_reward_expectancy,2022.2.4,Win32,60.09615385,Chrome,1280,720,,,l,1.9203,1,489,1,2,5,29,2,1,1,0,0,0,0,0,0,1,triangle,star,,,,,,,,,,,,,,,,,,,,,,,,,,,,,,,,,,,,,,,,,,,,,,,,,,,,,,
293599,2022-10-06_23h31.50.891,vts_reward_expectancy,2022.2.4,Win32,60.09615385,Chrome,1280,720,,,a,2.455,1,490,1,2,6,30,7,1,0,0,1,0,0,1,0,0,hexagon,circle,,,,,,,,,,,,,,,,,,,,,,,,,,,,,,,,,,,,,,,,,,,,,,,,,,,,,,
293599,2022-10-06_23h31.50.891,vts_reward_expectancy,2022.2.4,Win32,60.09615385,Chrome,1280,720,,,a,1.0981,10,500,1,2,7,31,11,1,0,0,0,1,0,0,1,0,star,hexagon,,,,,,,,,,,,,,,,,,,,,,,,,,,,,,,,,,,,,,,,,,,,,,,,,,,,,,
293599,2022-10-06_23h31.50.891,vts_reward_expectancy,2022.2.4,Win32,60.09615385,Chrome,1280,720,,,a,2.1556,10,510,1,2,8,32,3,1,0,1,0,0,1,0,0,0,circle,triangle,,,,,,,,,,,,,,,,,,,,,,,,,,,,,,,,,,,,,,,,,,,,,,,,,,,,,,
293599,2022-10-06_23h31.50.891,vts_reward_expectancy,2022.2.4,Win32,60.09615385,Chrome,1280,720,,,a,0.7155,10,520,1,2,9,33,9,1,0,0,0,1,1,0,0,0,star,triangle,,,,,,,,,,,,,,,,,,,,,,,,,,,,,,,,,,,,,,,,,,,,,,,,,,,,,,
293599,2022-10-06_23h31.50.891,vts_reward_expectancy,2022.2.4,Win32,60.09615385,Chrome,1280,720,,,l,0.7312,10,530,1,2,10,34,8,1,0,0,1,0,0,0,0,1,hexagon,star,,,,,,,,,,,,,,,,,,,,,,,,,,,,,,,,,,,,,,,,,,,,,,,,,,,,,,
293599,2022-10-06_23h31.50.891,vts_reward_expectancy,2022.2.4,Win32,60.09615385,Chrome,1280,720,,,a,2.1978,10,540,1,2,11,35,1,1,1,0,0,0,0,0,1,0,triangle,hexagon,,,,,,,,,,,,,,,,,,,,,,,,,,,,,,,,,,,,,,,,,,,,,,,,,,,,,,
293599,2022-10-06_23h31.50.891,vts_reward_expectancy,2022.2.4,Win32,60.09615385,Chrome,1280,720,,,l,1.4573,1,541,2,0,0,0,7,1,0,0,1,0,0,1,0,0,hexagon,circle,,,,,,,,,,,,,,,,,,,,,,,,,,,,,,,,,,,,,,,,,,,,,,,,,,,,,,
293599,2022-10-06_23h31.50.891,vts_reward_expectancy,2022.2.4,Win32,60.09615385,Chrome,1280,720,,,a,1.4153,10,551,2,0,1,1,1,1,1,0,0,0,0,0,1,0,triangle,hexagon,,,,,,,,,,,,,,,,,,,,,,,,,,,,,,,,,,,,,,,,,,,,,,,,,,,,,,
293599,2022-10-06_23h31.50.891,vts_reward_expectancy,2022.2.4,Win32,60.09615385,Chrome,1280,720,,,a,0.932,10,561,2,0,2,2,3,1,0,1,0,0,1,0,0,0,circle,triangle,,,,,,,,,,,,,,,,,,,,,,,,,,,,,,,,,,,,,,,,,,,,,,,,,,,,,,
293599,2022-10-06_23h31.50.891,vts_reward_expectancy,2022.2.4,Win32,60.09615385,Chrome,1280,720,,,l,0.6523,10,571,2,0,3,3,2,1,1,0,0,0,0,0,0,1,triangle,star,,,,,,,,,,,,,,,,,,,,,,,,,,,,,,,,,,,,,,,,,,,,,,,,,,,,,,
293599,2022-10-06_23h31.50.891,vts_reward_expectancy,2022.2.4,Win32,60.09615385,Chrome,1280,720,,,a,0.8842,10,581,2,0,4,4,11,1,0,0,0,1,0,0,1,0,star,hexagon,,,,,,,,,,,,,,,,,,,,,,,,,,,,,,,,,,,,,,,,,,,,,,,,,,,,,,
293599,2022-10-06_23h31.50.891,vts_reward_expectancy,2022.2.4,Win32,60.09615385,Chrome,1280,720,,,l,0.521,10,591,2,0,5,5,8,1,0,0,1,0,0,0,0,1,hexagon,star,,,,,,,,,,,,,,,,,,,,,,,,,,,,,,,,,,,,,,,,,,,,,,,,,,,,,,
293599,2022-10-06_23h31.50.891,vts_reward_expectancy,2022.2.4,Win32,60.09615385,Chrome,1280,720,,,l,0.5511,10,601,2,0,6,6,5,1,0,1,0,0,0,0,0,1,circle,star,,,,,,,,,,,,,,,,,,,,,,,,,,,,,,,,,,,,,,,,,,,,,,,,,,,,,,
293599,2022-10-06_23h31.50.891,vts_reward_expectancy,2022.2.4,Win32,60.09615385,Chrome,1280,720,,,a,0.6011,10,611,2,0,7,7,10,1,0,0,0,1,0,1,0,0,star ,circle,,,,,,,,,,,,,,,,,,,,,,,,,,,,,,,,,,,,,,,,,,,,,,,,,,,,,,
293599,2022-10-06_23h31.50.891,vts_reward_expectancy,2022.2.4,Win32,60.09615385,Chrome,1280,720,,,a,0.6067,10,621,2,0,8,8,9,1,0,0,0,1,1,0,0,0,star,triangle,,,,,,,,,,,,,,,,,,,,,,,,,,,,,,,,,,,,,,,,,,,,,,,,,,,,,,
293599,2022-10-06_23h31.50.891,vts_reward_expectancy,2022.2.4,Win32,60.09615385,Chrome,1280,720,,,a,1.419,10,631,2,0,9,9,4,1,0,1,0,0,0,0,1,0,circle,hexagon,,,,,,,,,,,,,,,,,,,,,,,,,,,,,,,,,,,,,,,,,,,,,,,,,,,,,,
293599,2022-10-06_23h31.50.891,vts_reward_expectancy,2022.2.4,Win32,60.09615385,Chrome,1280,720,,,a,1.588,1,632,2,0,10,10,6,1,0,0,1,0,1,0,0,0,hexagon,triangle,,,,,,,,,,,,,,,,,,,,,,,,,,,,,,,,,,,,,,,,,,,,,,,,,,,,,,
293599,2022-10-06_23h31.50.891,vts_reward_expectancy,2022.2.4,Win32,60.09615385,Chrome,1280,720,,,l,0.8987,1,633,2,0,11,11,0,1,1,0,0,0,0,1,0,0,triangle,circle,,,,,,,,,,,,,,,,,,,,,,,,,,,,,,,,,,,,,,,,,,,,,,,,,,,,,,
293599,2022-10-06_23h31.50.891,vts_reward_expectancy,2022.2.4,Win32,60.09615385,Chrome,1280,720,,,a,1.6825,1,634,2,1,0,12,4,1,0,1,0,0,0,0,1,0,circle,hexagon,,,,,,,,,,,,,,,,,,,,,,,,,,,,,,,,,,,,,,,,,,,,,,,,,,,,,,
293599,2022-10-06_23h31.50.891,vts_reward_expectancy,2022.2.4,Win32,60.09615385,Chrome,1280,720,,,a,0.6801,1,635,2,1,1,13,9,1,0,0,0,1,1,0,0,0,star,triangle,,,,,,,,,,,,,,,,,,,,,,,,,,,,,,,,,,,,,,,,,,,,,,,,,,,,,,
293599,2022-10-06_23h31.50.891,vts_reward_expectancy,2022.2.4,Win32,60.09615385,Chrome,1280,720,,,a,2.5887,1,636,2,1,2,14,3,1,0,1,0,0,1,0,0,0,circle,triangle,,,,,,,,,,,,,,,,,,,,,,,,,,,,,,,,,,,,,,,,,,,,,,,,,,,,,,
293599,2022-10-06_23h31.50.891,vts_reward_expectancy,2022.2.4,Win32,60.09615385,Chrome,1280,720,,,l,1.038,1,637,2,1,3,15,0,1,1,0,0,0,0,1,0,0,triangle,circle,,,,,,,,,,,,,,,,,,,,,,,,,,,,,,,,,,,,,,,,,,,,,,,,,,,,,,
293599,2022-10-06_23h31.50.891,vts_reward_expectancy,2022.2.4,Win32,60.09615385,Chrome,1280,720,,,l,0.7883,10,647,2,1,4,16,8,1,0,0,1,0,0,0,0,1,hexagon,star,,,,,,,,,,,,,,,,,,,,,,,,,,,,,,,,,,,,,,,,,,,,,,,,,,,,,,
293599,2022-10-06_23h31.50.891,vts_reward_expectancy,2022.2.4,Win32,60.09615385,Chrome,1280,720,,,l,1.57,10,657,2,1,5,17,6,1,0,0,1,0,1,0,0,0,hexagon,triangle,,,,,,,,,,,,,,,,,,,,,,,,,,,,,,,,,,,,,,,,,,,,,,,,,,,,,,
293599,2022-10-06_23h31.50.891,vts_reward_expectancy,2022.2.4,Win32,60.09615385,Chrome,1280,720,,,l,0.9311,1,658,2,1,6,18,5,1,0,1,0,0,0,0,0,1,circle,star,,,,,,,,,,,,,,,,,,,,,,,,,,,,,,,,,,,,,,,,,,,,,,,,,,,,,,
293599,2022-10-06_23h31.50.891,vts_reward_expectancy,2022.2.4,Win32,60.09615385,Chrome,1280,720,,,l,1.5741,10,668,2,1,7,19,7,1,0,0,1,0,0,1,0,0,hexagon,circle,,,,,,,,,,,,,,,,,,,,,,,,,,,,,,,,,,,,,,,,,,,,,,,,,,,,,,
293599,2022-10-06_23h31.50.891,vts_reward_expectancy,2022.2.4,Win32,60.09615385,Chrome,1280,720,,,a,0.8317,10,678,2,1,8,20,11,1,0,0,0,1,0,0,1,0,star,hexagon,,,,,,,,,,,,,,,,,,,,,,,,,,,,,,,,,,,,,,,,,,,,,,,,,,,,,,
293599,2022-10-06_23h31.50.891,vts_reward_expectancy,2022.2.4,Win32,60.09615385,Chrome,1280,720,,,a,1.531,1,679,2,1,9,21,1,1,1,0,0,0,0,0,1,0,triangle,hexagon,,,,,,,,,,,,,,,,,,,,,,,,,,,,,,,,,,,,,,,,,,,,,,,,,,,,,,
293599,2022-10-06_23h31.50.891,vts_reward_expectancy,2022.2.4,Win32,60.09615385,Chrome,1280,720,,,a,1.0841,1,680,2,1,10,22,10,1,0,0,0,1,0,1,0,0,star ,circle,,,,,,,,,,,,,,,,,,,,,,,,,,,,,,,,,,,,,,,,,,,,,,,,,,,,,,
293599,2022-10-06_23h31.50.891,vts_reward_expectancy,2022.2.4,Win32,60.09615385,Chrome,1280,720,,,l,1.1022,10,690,2,1,11,23,2,1,1,0,0,0,0,0,0,1,triangle,star,,,,,,,,,,,,,,,,,,,,,,,,,,,,,,,,,,,,,,,,,,,,,,,,,,,,,,
293599,2022-10-06_23h31.50.891,vts_reward_expectancy,2022.2.4,Win32,60.09615385,Chrome,1280,720,,,l,1.0492,1,691,2,2,0,24,10,1,0,0,0,1,0,1,0,0,star ,circle,,,,,,,,,,,,,,,,,,,,,,,,,,,,,,,,,,,,,,,,,,,,,,,,,,,,,,
293599,2022-10-06_23h31.50.891,vts_reward_expectancy,2022.2.4,Win32,60.09615385,Chrome,1280,720,,,a,0.8507,10,701,2,2,1,25,11,1,0,0,0,1,0,0,1,0,star,hexagon,,,,,,,,,,,,,,,,,,,,,,,,,,,,,,,,,,,,,,,,,,,,,,,,,,,,,,
293599,2022-10-06_23h31.50.891,vts_reward_expectancy,2022.2.4,Win32,60.09615385,Chrome,1280,720,,,a,0.9951,10,711,2,2,2,26,4,1,0,1,0,0,0,0,1,0,circle,hexagon,,,,,,,,,,,,,,,,,,,,,,,,,,,,,,,,,,,,,,,,,,,,,,,,,,,,,,
293599,2022-10-06_23h31.50.891,vts_reward_expectancy,2022.2.4,Win32,60.09615385,Chrome,1280,720,,,a,1.6301,1,712,2,2,3,27,6,1,0,0,1,0,1,0,0,0,hexagon,triangle,,,,,,,,,,,,,,,,,,,,,,,,,,,,,,,,,,,,,,,,,,,,,,,,,,,,,,
293599,2022-10-06_23h31.50.891,vts_reward_expectancy,2022.2.4,Win32,60.09615385,Chrome,1280,720,,,l,1.8031,10,722,2,2,4,28,7,1,0,0,1,0,0,1,0,0,hexagon,circle,,,,,,,,,,,,,,,,,,,,,,,,,,,,,,,,,,,,,,,,,,,,,,,,,,,,,,
293599,2022-10-06_23h31.50.891,vts_reward_expectancy,2022.2.4,Win32,60.09615385,Chrome,1280,720,,,l,0.8342,10,732,2,2,5,29,3,1,0,1,0,0,1,0,0,0,circle,triangle,,,,,,,,,,,,,,,,,,,,,,,,,,,,,,,,,,,,,,,,,,,,,,,,,,,,,,
293599,2022-10-06_23h31.50.891,vts_reward_expectancy,2022.2.4,Win32,60.09615385,Chrome,1280,720,,,a,1.1552,10,742,2,2,6,30,1,1,1,0,0,0,0,0,1,0,triangle,hexagon,,,,,,,,,,,,,,,,,,,,,,,,,,,,,,,,,,,,,,,,,,,,,,,,,,,,,,
293599,2022-10-06_23h31.50.891,vts_reward_expectancy,2022.2.4,Win32,60.09615385,Chrome,1280,720,,,l,1.0709,10,752,2,2,7,31,8,1,0,0,1,0,0,0,0,1,hexagon,star,,,,,,,,,,,,,,,,,,,,,,,,,,,,,,,,,,,,,,,,,,,,,,,,,,,,,,
293599,2022-10-06_23h31.50.891,vts_reward_expectancy,2022.2.4,Win32,60.09615385,Chrome,1280,720,,,a,1.0481,1,753,2,2,8,32,9,1,0,0,0,1,1,0,0,0,star,triangle,,,,,,,,,,,,,,,,,,,,,,,,,,,,,,,,,,,,,,,,,,,,,,,,,,,,,,
293599,2022-10-06_23h31.50.891,vts_reward_expectancy,2022.2.4,Win32,60.09615385,Chrome,1280,720,,,l,0.6822,10,763,2,2,9,33,2,1,1,0,0,0,0,0,0,1,triangle,star,,,,,,,,,,,,,,,,,,,,,,,,,,,,,,,,,,,,,,,,,,,,,,,,,,,,,,
293599,2022-10-06_23h31.50.891,vts_reward_expectancy,2022.2.4,Win32,60.09615385,Chrome,1280,720,,,a,2.0678,10,773,2,2,10,34,0,1,1,0,0,0,0,1,0,0,triangle,circle,,,,,,,,,,,,,,,,,,,,,,,,,,,,,,,,,,,,,,,,,,,,,,,,,,,,,,
293599,2022-10-06_23h31.50.891,vts_reward_expectancy,2022.2.4,Win32,60.09615385,Chrome,1280,720,,,l,0.768,1,774,2,2,11,35,5,1,0,1,0,0,0,0,0,1,circle,star,,,,,,,,,,,,,,,,,,,,,,,,,,,,,,,,,,,,,,,,,,,,,,,,,,,,,,
293599,2022-10-06_23h31.50.891,vts_reward_expectancy,2022.2.4,Win32,60.09615385,Chrome,1280,720,,,,,,,,,,,,,,,,,,,,,,,W,125,circle,1,0,f,0.9826,0,0,0,0,0,1,,,,,,,,,,,,,,,,,,,,,,,,,,,,,,,,,,,,,,,,,
293599,2022-10-06_23h31.50.891,vts_reward_expectancy,2022.2.4,Win32,60.09615385,Chrome,1280,720,,,,,,,,,,,,,,,,,,,,,,,B,160,triangle,1,0,d,0.8178,0,1,0,1,0,1,,,,,,,,,,,,,,,,,,,,,,,,,,,,,,,,,,,,,,,,,
293599,2022-10-06_23h31.50.891,vts_reward_expectancy,2022.2.4,Win32,60.09615385,Chrome,1280,720,,,,,,,,,,,,,,,,,,,,,,,H,139,hexagon,1,0,d,0.7509,0,2,0,2,0,1,,,,,,,,,,,,,,,,,,,,,,,,,,,,,,,,,,,,,,,,,
293599,2022-10-06_23h31.50.891,vts_reward_expectancy,2022.2.4,Win32,60.09615385,Chrome,1280,720,,,,,,,,,,,,,,,,,,,,,,,F,146,star,1,0,d,0.6087,0,3,0,3,0,1,,,,,,,,,,,,,,,,,,,,,,,,,,,,,,,,,,,,,,,,,
293599,2022-10-06_23h31.50.891,vts_reward_expectancy,2022.2.4,Win32,60.09615385,Chrome,1280,720,,,,,,,,,,,,,,,,,,,,,,,Y,174,circle,1,0,f,0.573,0,4,0,4,0,1,,,,,,,,,,,,,,,,,,,,,,,,,,,,,,,,,,,,,,,,,
293599,2022-10-06_23h31.50.891,vts_reward_expectancy,2022.2.4,Win32,60.09615385,Chrome,1280,720,,,,,,,,,,,,,,,,,,,,,,,U,181,triangle,1,0,f,0.6081,0,5,0,5,0,1,,,,,,,,,,,,,,,,,,,,,,,,,,,,,,,,,,,,,,,,,
293599,2022-10-06_23h31.50.891,vts_reward_expectancy,2022.2.4,Win32,60.09615385,Chrome,1280,720,,,,,,,,,,,,,,,,,,,,,,,S,167,hexagon,1,0,f,0.6366,0,6,0,6,0,1,,,,,,,,,,,,,,,,,,,,,,,,,,,,,,,,,,,,,,,,,
293599,2022-10-06_23h31.50.891,vts_reward_expectancy,2022.2.4,Win32,60.09615385,Chrome,1280,720,,,,,,,,,,,,,,,,,,,,,,,D,132,star,1,0,d,0.6084,0,7,0,7,0,1,,,,,,,,,,,,,,,,,,,,,,,,,,,,,,,,,,,,,,,,,
293599,2022-10-06_23h31.50.891,vts_reward_expectancy,2022.2.4,Win32,60.09615385,Chrome,1280,720,,,,,,,,,,,,,,,,,,,,,,,W,125,star,1,0,f,0.5847,0,8,0,8,0,1,,,,,,,,,,,,,,,,,,,,,,,,,,,,,,,,,,,,,,,,,
293599,2022-10-06_23h31.50.891,vts_reward_expectancy,2022.2.4,Win32,60.09615385,Chrome,1280,720,,,,,,,,,,,,,,,,,,,,,,,B,160,triangle,1,0,d,0.5371,0,9,0,9,0,1,,,,,,,,,,,,,,,,,,,,,,,,,,,,,,,,,,,,,,,,,
293599,2022-10-06_23h31.50.891,vts_reward_expectancy,2022.2.4,Win32,60.09615385,Chrome,1280,720,,,,,,,,,,,,,,,,,,,,,,,W,174,star,1,0,,,1,,,,,,k,0.6254,0,0,0,0,1,,,,,,,,,,,,,,,,,,,,,,,,,,,,,,,,,,
293599,2022-10-06_23h31.50.891,vts_reward_expectancy,2022.2.4,Win32,60.09615385,Chrome,1280,720,,,,,,,,,,,,,,,,,,,,,,,D,181,triangle,1,0,,,1,,,,,,k,1.0159,1,0,1,0,1,,,,,,,,,,,,,,,,,,,,,,,,,,,,,,,,,,
293599,2022-10-06_23h31.50.891,vts_reward_expectancy,2022.2.4,Win32,60.09615385,Chrome,1280,720,,,,,,,,,,,,,,,,,,,,,,,S,139,circle,1,0,,,1,,,,,,j,1.3173,2,0,2,0,1,,,,,,,,,,,,,,,,,,,,,,,,,,,,,,,,,,
293599,2022-10-06_23h31.50.891,vts_reward_expectancy,2022.2.4,Win32,60.09615385,Chrome,1280,720,,,,,,,,,,,,,,,,,,,,,,,B,125,hexagon,1,0,,,1,,,,,,j,1.021,3,0,3,0,1,,,,,,,,,,,,,,,,,,,,,,,,,,,,,,,,,,
293599,2022-10-06_23h31.50.891,vts_reward_expectancy,2022.2.4,Win32,60.09615385,Chrome,1280,720,,,,,,,,,,,,,,,,,,,,,,,Y,132,star,1,0,,,1,,,,,,j,1.0013,4,0,4,0,1,,,,,,,,,,,,,,,,,,,,,,,,,,,,,,,,,,
293599,2022-10-06_23h31.50.891,vts_reward_expectancy,2022.2.4,Win32,60.09615385,Chrome,1280,720,,,,,,,,,,,,,,,,,,,,,,,H,167,triangle,1,0,,,1,,,,,,k,0.9574,5,0,5,0,1,,,,,,,,,,,,,,,,,,,,,,,,,,,,,,,,,,
293599,2022-10-06_23h31.50.891,vts_reward_expectancy,2022.2.4,Win32,60.09615385,Chrome,1280,720,,,,,,,,,,,,,,,,,,,,,,,F,146,circle,1,0,,,1,,,,,,j,1.8173,6,0,6,0,1,,,,,,,,,,,,,,,,,,,,,,,,,,,,,,,,,,
293599,2022-10-06_23h31.50.891,vts_reward_expectancy,2022.2.4,Win32,60.09615385,Chrome,1280,720,,,,,,,,,,,,,,,,,,,,,,,U,160,hexagon,1,0,,,1,,,,,,k,1.7249,7,0,7,0,1,,,,,,,,,,,,,,,,,,,,,,,,,,,,,,,,,,
293599,2022-10-06_23h31.50.891,vts_reward_expectancy,2022.2.4,Win32,60.09615385,Chrome,1280,720,,,,,,,,,,,,,,,,,,,,,,,W,174,circle,1,0,,,1,,,,,,k,1.8745,8,0,8,0,1,,,,,,,,,,,,,,,,,,,,,,,,,,,,,,,,,,
293599,2022-10-06_23h31.50.891,vts_reward_expectancy,2022.2.4,Win32,60.09615385,Chrome,1280,720,,,,,,,,,,,,,,,,,,,,,,,D,181,star,1,0,,,1,,,,,,k,1.0369,9,0,9,0,1,,,,,,,,,,,,,,,,,,,,,,,,,,,,,,,,,,
293599,2022-10-06_23h31.50.891,vts_reward_expectancy,2022.2.4,Win32,60.09615385,Chrome,1280,720,,,,,0,774,,,,,,,,,,,,,,,,,F,139,star,1,0,,,2,,,,,,,,,,,,,-1,letter,NA,d,1.5317,vtsPrac,0,0,0,0,1,,,,,,,,,,,,,,,,,,,,,,,
293599,2022-10-06_23h31.50.891,vts_reward_expectancy,2022.2.4,Win32,60.09615385,Chrome,1280,720,,,,,0,774,,,,,,,,,,,,,,,,,D,167,circle,1,0,,,2,,,,,,,,,,,,,repeat,letter,lettRpt,d,1.1442,vtsPrac,1,0,1,0,1,,,,,,,,,,,,,,,,,,,,,,,
293599,2022-10-06_23h31.50.891,vts_reward_expectancy,2022.2.4,Win32,60.09615385,Chrome,1280,720,,,,,0,774,,,,,,,,,,,,,,,,,W,125,star,1,0,,,2,,,,,,,,,,,,,repeat,letter,lettRpt,f,0.6701,vtsPrac,2,0,2,0,1,,,,,,,,,,,,,,,,,,,,,,,
293599,2022-10-06_23h31.50.891,vts_reward_expectancy,2022.2.4,Win32,60.09615385,Chrome,1280,720,,,,,0,774,,,,,,,,,,,,,,,,,Y,132,circle,1,0,,,2,,,,,,,,,,,,,repeat,letter,lettRpt,f,0.7014,vtsPrac,3,0,3,0,1,,,,,,,,,,,,,,,,,,,,,,,
293599,2022-10-06_23h31.50.891,vts_reward_expectancy,2022.2.4,Win32,60.09615385,Chrome,1280,720,,,,,0,774,,,,,,,,,,,,,,,,,F,139,triangle,1,0,,,2,,,,,,,,,,,,,repeat,letter,lettRpt,d,0.7954,vtsPrac,4,0,4,0,1,,,,,,,,,,,,,,,,,,,,,,,
293599,2022-10-06_23h31.50.891,vts_reward_expectancy,2022.2.4,Win32,60.09615385,Chrome,1280,720,,,,,0,774,,,,,,,,,,,,,,,,,D,167,circle,1,0,,,2,,,,,,,,,,,,,repeat,letter,lettRpt,d,0.7617,vtsPrac,5,0,5,0,1,,,,,,,,,,,,,,,,,,,,,,,
293599,2022-10-06_23h31.50.891,vts_reward_expectancy,2022.2.4,Win32,60.09615385,Chrome,1280,720,,,,,0,774,,,,,,,,,,,,,,,,,W,125,triangle,1,0,,,2,,,,,,,,,,,,,repeat,letter,lettRpt,f,0.93,vtsPrac,6,0,6,0,1,,,,,,,,,,,,,,,,,,,,,,,
293599,2022-10-06_23h31.50.891,vts_reward_expectancy,2022.2.4,Win32,60.09615385,Chrome,1280,720,,,,,0,774,,,,,,,,,,,,,,,,,Y,132,circle,1,0,,,2,,,,,,,,,,,,,repeat,letter,lettRpt,f,0.6135,vtsPrac,7,0,7,0,1,,,,,,,,,,,,,,,,,,,,,,,
293599,2022-10-06_23h31.50.891,vts_reward_expectancy,2022.2.4,Win32,60.09615385,Chrome,1280,720,,,,,0,774,,,,,,,,,,,,,,,,,H,146,star,1,0,,,2,,,,,,,,,,,,,repeat,letter,lettRpt,d,0.6127,vtsPrac,8,0,8,0,1,,,,,,,,,,,,,,,,,,,,,,,
293599,2022-10-06_23h31.50.891,vts_reward_expectancy,2022.2.4,Win32,60.09615385,Chrome,1280,720,,,,,0,774,,,,,,,,,,,,,,,,,F,132,circle,1,0,,,2,,,,,,,,,,,,,repeat,letter,lettRpt,d,0.6797,vtsPrac,9,0,9,0,1,,,,,,,,,,,,,,,,,,,,,,,
293599,2022-10-06_23h31.50.891,vts_reward_expectancy,2022.2.4,Win32,60.09615385,Chrome,1280,720,,,,,0,774,,,,,,,,,,,,,,,,,Y,139,star,1,0,,,2,,,,,,,,,,,,,repeat,letter,lettRpt,f,0.6282,vtsPrac,10,0,10,0,1,,,,,,,,,,,,,,,,,,,,,,,
293599,2022-10-06_23h31.50.891,vts_reward_expectancy,2022.2.4,Win32,60.09615385,Chrome,1280,720,,,,,0,774,,,,,,,,,,,,,,,,,S,125,circle,1,0,,,2,,,,,,,,,,,,,repeat,letter,lettRpt,f,0.8007,vtsPrac,11,0,11,0,1,,,,,,,,,,,,,,,,,,,,,,,
293599,2022-10-06_23h31.50.891,vts_reward_expectancy,2022.2.4,Win32,60.09615385,Chrome,1280,720,,,,,0,774,,,,,,,,,,,,,,,,,B,125,circle,1,0,,,2,,,,,,,,,,,,,repeat,letter,lettRpt,d,0.6828,vtsPrac,12,0,12,0,1,,,,,,,,,,,,,,,,,,,,,,,
293599,2022-10-06_23h31.50.891,vts_reward_expectancy,2022.2.4,Win32,60.09615385,Chrome,1280,720,,,,,0,774,,,,,,,,,,,,,,,,,H,160,hexagon,1,0,,,2,,,,,,,,,,,,,repeat,letter,lettRpt,d,0.6737,vtsPrac,13,0,13,0,1,,,,,,,,,,,,,,,,,,,,,,,
293599,2022-10-06_23h31.50.891,vts_reward_expectancy,2022.2.4,Win32,60.09615385,Chrome,1280,720,,,,,0,774,,,,,,,,,,,,,,,,,Y,174,circle,1,0,,,2,,,,,,,,,,,,,switch,number,numSwt,k,0.8839,vtsPrac,14,0,14,0,1,,,,,,,,,,,,,,,,,,,,,,,
293599,2022-10-06_23h31.50.891,vts_reward_expectancy,2022.2.4,Win32,60.09615385,Chrome,1280,720,,,,,0,774,,,,,,,,,,,,,,,,,D,181,hexagon,1,0,,,2,,,,,,,,,,,,,repeat,number,numRpt,k,0.7387,vtsPrac,15,0,15,0,1,,,,,,,,,,,,,,,,,,,,,,,
293599,2022-10-06_23h31.50.891,vts_reward_expectancy,2022.2.4,Win32,60.09615385,Chrome,1280,720,,,,,0,774,,,,,,,,,,,,,,,,,H,132,circle,1,0,,,3,,,,,,,,,,,,,switch,letter,lettSwt,d,0.8105,vtsPrac,0,0,0,0,1,,,,,,,,,,,,,,,,,,,,,,,
293599,2022-10-06_23h31.50.891,vts_reward_expectancy,2022.2.4,Win32,60.09615385,Chrome,1280,720,,,,,0,774,,,,,,,,,,,,,,,,,Y,146,triangle,1,0,,,3,,,,,,,,,,,,,repeat,letter,lettRpt,f,0.9335,vtsPrac,1,0,1,0,1,,,,,,,,,,,,,,,,,,,,,,,
293599,2022-10-06_23h31.50.891,vts_reward_expectancy,2022.2.4,Win32,60.09615385,Chrome,1280,720,,,,,0,774,,,,,,,,,,,,,,,,,S,125,circle,1,0,,,3,,,,,,,,,,,,,repeat,letter,lettRpt,f,0.7986,vtsPrac,2,0,2,0,1,,,,,,,,,,,,,,,,,,,,,,,
293599,2022-10-06_23h31.50.891,vts_reward_expectancy,2022.2.4,Win32,60.09615385,Chrome,1280,720,,,,,0,774,,,,,,,,,,,,,,,,,F,160,triangle,1,0,,,3,,,,,,,,,,,,,switch,number,numSwt,k,0.821,vtsPrac,3,0,3,0,1,,,,,,,,,,,,,,,,,,,,,,,
293599,2022-10-06_23h31.50.891,vts_reward_expectancy,2022.2.4,Win32,60.09615385,Chrome,1280,720,,,,,0,774,,,,,,,,,,,,,,,,,H,132,star,1,0,,,3,,,,,,,,,,,,,repeat,number,numRpt,j,1.3289,vtsPrac,4,0,4,0,1,,,,,,,,,,,,,,,,,,,,,,,
293599,2022-10-06_23h31.50.891,vts_reward_expectancy,2022.2.4,Win32,60.09615385,Chrome,1280,720,,,,,0,774,,,,,,,,,,,,,,,,,Y,146,hexagon,1,0,,,3,,,,,,,,,,,,,switch,letter,lettSwt,f,1.1026,vtsPrac,5,0,5,0,1,,,,,,,,,,,,,,,,,,,,,,,
293599,2022-10-06_23h31.50.891,vts_reward_expectancy,2022.2.4,Win32,60.09615385,Chrome,1280,720,,,,,0,774,,,,,,,,,,,,,,,,,S,125,circle,1,0,,,3,,,,,,,,,,,,,switch,number,numSwt,j,0.7296,vtsPrac,6,0,6,0,1,,,,,,,,,,,,,,,,,,,,,,,
293599,2022-10-06_23h31.50.891,vts_reward_expectancy,2022.2.4,Win32,60.09615385,Chrome,1280,720,,,,,0,774,,,,,,,,,,,,,,,,,F,160,star,1,0,,,3,,,,,,,,,,,,,switch,letter,lettSwt,d,0.9159,vtsPrac,7,0,7,0,1,,,,,,,,,,,,,,,,,,,,,,,
293599,2022-10-06_23h31.50.891,vts_reward_expectancy,2022.2.4,Win32,60.09615385,Chrome,1280,720,,,,,0,774,,,,,,,,,,,,,,,,,W,160,star,1,0,,,3,,,,,,,,,,,,,switch,number,numSwt,k,1.0337,vtsPrac,8,0,8,0,1,,,,,,,,,,,,,,,,,,,,,,,
293599,2022-10-06_23h31.50.891,vts_reward_expectancy,2022.2.4,Win32,60.09615385,Chrome,1280,720,,,,,0,774,,,,,,,,,,,,,,,,,D,181,triangle,1,0,,,3,,,,,,,,,,,,,repeat,number,numRpt,k,0.6291,vtsPrac,9,0,9,0,1,,,,,,,,,,,,,,,,,,,,,,,
293599,2022-10-06_23h31.50.891,vts_reward_expectancy,2022.2.4,Win32,60.09615385,Chrome,1280,720,,,,,0,774,,,,,,,,,,,,,,,,,U,167,hexagon,1,0,,,3,,,,,,,,,,,,,repeat,number,numRpt,k,0.8647,vtsPrac,10,0,10,0,1,,,,,,,,,,,,,,,,,,,,,,,
293599,2022-10-06_23h31.50.891,vts_reward_expectancy,2022.2.4,Win32,60.09615385,Chrome,1280,720,,,,,0,774,,,,,,,,,,,,,,,,,F,132,circle,1,0,,,3,,,,,,,,,,,,,switch,letter,lettSwt,d,1.6811,vtsPrac,11,0,11,0,1,,,,,,,,,,,,,,,,,,,,,,,
293599,2022-10-06_23h31.50.891,vts_reward_expectancy,2022.2.4,Win32,60.09615385,Chrome,1280,720,,,,,0,774,,,,,,,,,,,,,,,,,B,125,star,1,0,,,3,,,,,,,,,,,,,repeat,letter,lettRpt,d,0.6785,vtsPrac,12,0,12,0,1,,,,,,,,,,,,,,,,,,,,,,,
293599,2022-10-06_23h31.50.891,vts_reward_expectancy,2022.2.4,Win32,60.09615385,Chrome,1280,720,,,,,0,774,,,,,,,,,,,,,,,,,H,132,hexagon,1,0,,,3,,,,,,,,,,,,,switch,number,numSwt,j,1.43,vtsPrac,13,0,13,0,1,,,,,,,,,,,,,,,,,,,,,,,
293599,2022-10-06_23h31.50.891,vts_reward_expectancy,2022.2.4,Win32,60.09615385,Chrome,1280,720,,,,,0,774,,,,,,,,,,,,,,,,,S,160,triangle,1,0,,,3,,,,,,,,,,,,,switch,letter,lettSwt,f,0.8646,vtsPrac,14,0,14,0,1,,,,,,,,,,,,,,,,,,,,,,,
293599,2022-10-06_23h31.50.891,vts_reward_expectancy,2022.2.4,Win32,60.09615385,Chrome,1280,720,,,,,0,774,,,,,,,,,,,,,,,,,W,174,hexagon,1,0,,,3,,,,,,,,,,,,,repeat,letter,lettRpt,f,0.6292,vtsPrac,15,0,15,0,1,,,,,,,,,,,,,,,,,,,,,,,
293599,2022-10-06_23h31.50.891,vts_reward_expectancy,2022.2.4,Win32,60.09615385,Chrome,1280,720,,,,,,,,,,,,,,,,,,,,,,,,,,,,,,,,,,,,,,,,,,,,,,,,,,,,,,,,,,,,,,,,,,,,,,,,,,,,
293599,2022-10-06_23h31.50.891,vts_reward_expectancy,2022.2.4,Win32,60.09615385,Chrome,1280,720,,,,,,,,,,,,,,,,,,,,,,,,,,,,,,,,,,,,,,,,,,,,,,,,,,,,,,,,,,,,,,,,,,,,,,,,,,,,
293599,2022-10-06_23h31.50.891,vts_reward_expectancy,2022.2.4,Win32,60.09615385,Chrome,1280,720,,,,,0,774,,,,,,,,,,,,,,,,,D,167,hexagon,1,0,,,,,,,,,,,,,,,,repeat,letter,lettRpt,d,0.8281,noRew,,,,,,0,0,0,0,0,1,,,,,,,,,,,,,,,,,
293599,2022-10-06_23h31.50.891,vts_reward_expectancy,2022.2.4,Win32,60.09615385,Chrome,1280,720,,,,,0,774,,,,,,,,,,,,,,,,,B,146,circle,1,0,,,,,,,,,,,,,,,,repeat,letter,lettRpt,d,0.635,noRew,,,,,,0,1,0,1,0,1,,,,,,,,,,,,,,,,,
293599,2022-10-06_23h31.50.891,vts_reward_expectancy,2022.2.4,Win32,60.09615385,Chrome,1280,720,,,,,0,774,,,,,,,,,,,,,,,,,H,174,hexagon,1,0,,,,,,,,,,,,,,,,repeat,letter,lettRpt,d,0.9962,noRew,,,,,,0,2,0,2,0,1,,,,,,,,,,,,,,,,,
293599,2022-10-06_23h31.50.891,vts_reward_expectancy,2022.2.4,Win32,60.09615385,Chrome,1280,720,,,,,0,774,,,,,,,,,,,,,,,,,Y,181,circle,1,0,,,,,,,,,,,,,,,,switch,number,numSwt,k,0.75,noRew,,,,,,0,3,0,3,0,1,,,,,,,,,,,,,,,,,
293599,2022-10-06_23h31.50.891,vts_reward_expectancy,2022.2.4,Win32,60.09615385,Chrome,1280,720,,,,,0,774,,,,,,,,,,,,,,,,,D,167,star,1,0,,,,,,,,,,,,,,,,repeat,number,numRpt,k,0.7994,noRew,,,,,,0,4,0,4,0,1,,,,,,,,,,,,,,,,,
293599,2022-10-06_23h31.50.891,vts_reward_expectancy,2022.2.4,Win32,60.09615385,Chrome,1280,720,,,,,0,774,,,,,,,,,,,,,,,,,B,146,hexagon,1,0,,,,,,,,,,,,,,,,switch,letter,lettSwt,d,1.0972,noRew,,,,,,0,5,0,5,0,1,,,,,,,,,,,,,,,,,
293599,2022-10-06_23h31.50.891,vts_reward_expectancy,2022.2.4,Win32,60.09615385,Chrome,1280,720,,,,,0,774,,,,,,,,,,,,,,,,,H,174,circle,1,0,,,,,,,,,,,,,,,,switch,number,numSwt,k,1.0956,noRew,,,,,,0,6,0,6,0,1,,,,,,,,,,,,,,,,,
293599,2022-10-06_23h31.50.891,vts_reward_expectancy,2022.2.4,Win32,60.09615385,Chrome,1280,720,,,,,0,774,,,,,,,,,,,,,,,,,Y,181,triangle,1,0,,,,,,,,,,,,,,,,switch,letter,lettSwt,f,0.6129,noRew,,,,,,0,7,0,7,0,1,,,,,,,,,,,,,,,,,
293599,2022-10-06_23h31.50.891,vts_reward_expectancy,2022.2.4,Win32,60.09615385,Chrome,1280,720,,,,,0,774,,,,,,,,,,,,,,,,,H,160,triangle,1,0,,,,,,,,,,,,,,,,switch,number,numSwt,k,0.6838,noRew,,,,,,0,8,0,8,0,1,,,,,,,,,,,,,,,,,
293599,2022-10-06_23h31.50.891,vts_reward_expectancy,2022.2.4,Win32,60.09615385,Chrome,1280,720,,,,,0,774,,,,,,,,,,,,,,,,,B,139,star,1,0,,,,,,,,,,,,,,,,repeat,number,numRpt,j,1.2314,noRew,,,,,,0,9,0,9,0,1,,,,,,,,,,,,,,,,,
293599,2022-10-06_23h31.50.891,vts_reward_expectancy,2022.2.4,Win32,60.09615385,Chrome,1280,720,,,,,0,774,,,,,,,,,,,,,,,,,Y,125,triangle,1,0,,,,,,,,,,,,,,,,repeat,number,numRpt,j,0.9807,noRew,,,,,,0,10,0,10,0,1,,,,,,,,,,,,,,,,,
293599,2022-10-06_23h31.50.891,vts_reward_expectancy,2022.2.4,Win32,60.09615385,Chrome,1280,720,,,,,0,774,,,,,,,,,,,,,,,,,W,132,hexagon,1,0,,,,,,,,,,,,,,,,switch,letter,lettSwt,f,1.2121,noRew,,,,,,0,11,0,11,0,1,,,,,,,,,,,,,,,,,
293599,2022-10-06_23h31.50.891,vts_reward_expectancy,2022.2.4,Win32,60.09615385,Chrome,1280,720,,,,,0,774,,,,,,,,,,,,,,,,,S,125,circle,1,0,,,,,,,,,,,,,,,,repeat,letter,lettRpt,f,0.7792,noRew,,,,,,0,12,0,12,0,1,,,,,,,,,,,,,,,,,
293599,2022-10-06_23h31.50.891,vts_reward_expectancy,2022.2.4,Win32,60.09615385,Chrome,1280,720,,,,,0,774,,,,,,,,,,,,,,,,,H,139,star,1,0,,,,,,,,,,,,,,,,switch,number,numSwt,j,1.2974,noRew,,,,,,0,13,0,13,0,1,,,,,,,,,,,,,,,,,
293599,2022-10-06_23h31.50.891,vts_reward_expectancy,2022.2.4,Win32,60.09615385,Chrome,1280,720,,,,,0,774,,,,,,,,,,,,,,,,,D,174,hexagon,1,0,,,,,,,,,,,,,,,,repeat,number,numRpt,k,0.7465,noRew,,,,,,0,14,0,14,0,1,,,,,,,,,,,,,,,,,
293599,2022-10-06_23h31.50.891,vts_reward_expectancy,2022.2.4,Win32,60.09615385,Chrome,1280,720,,,,,0,774,,,,,,,,,,,,,,,,,U,132,circle,1,0,,,,,,,,,,,,,,,,repeat,number,numRpt,j,1.7802,noRew,,,,,,0,15,0,15,0,1,,,,,,,,,,,,,,,,,
293599,2022-10-06_23h31.50.891,vts_reward_expectancy,2022.2.4,Win32,60.09615385,Chrome,1280,720,,,,,0,774,,,,,,,,,,,,,,,,,U,125,circle,1,0,,,,,,,,,,,,,,,,switch,letter,lettSwt,f,0.8372,noRew,,,,,,0,16,0,16,0,1,,,,,,,,,,,,,,,,,
293599,2022-10-06_23h31.50.891,vts_reward_expectancy,2022.2.4,Win32,60.09615385,Chrome,1280,720,,,,,0,774,,,,,,,,,,,,,,,,,B,167,triangle,1,0,,,,,,,,,,,,,,,,repeat,letter,lettRpt,d,0.6531,noRew,,,,,,0,17,0,17,0,1,,,,,,,,,,,,,,,,,
293599,2022-10-06_23h31.50.891,vts_reward_expectancy,2022.2.4,Win32,60.09615385,Chrome,1280,720,,,,,0,774,,,,,,,,,,,,,,,,,F,132,hexagon,1,0,,,,,,,,,,,,,,,,switch,number,numSwt,j,0.8663,noRew,,,,,,0,18,0,18,0,1,,,,,,,,,,,,,,,,,
293599,2022-10-06_23h31.50.891,vts_reward_expectancy,2022.2.4,Win32,60.09615385,Chrome,1280,720,,,,,0,774,,,,,,,,,,,,,,,,,D,174,circle,1,0,,,,,,,,,,,,,,,,switch,letter,lettSwt,d,0.8495,noRew,,,,,,0,19,0,19,0,1,,,,,,,,,,,,,,,,,
293599,2022-10-06_23h31.50.891,vts_reward_expectancy,2022.2.4,Win32,60.09615385,Chrome,1280,720,,,,,0,774,,,,,,,,,,,,,,,,,Y,160,triangle,1,0,,,,,,,,,,,,,,,,repeat,letter,lettRpt,f,0.6792,noRew,,,,,,0,20,0,20,0,1,,,,,,,,,,,,,,,,,
293599,2022-10-06_23h31.50.891,vts_reward_expectancy,2022.2.4,Win32,60.09615385,Chrome,1280,720,,,,,0,774,,,,,,,,,,,,,,,,,U,167,circle,1,0,,,,,,,,,,,,,,,,switch,number,numSwt,k,0.6331,noRew,,,,,,0,21,0,21,0,1,,,,,,,,,,,,,,,,,
293599,2022-10-06_23h31.50.891,vts_reward_expectancy,2022.2.4,Win32,60.09615385,Chrome,1280,720,,,,,0,774,,,,,,,,,,,,,,,,,F,181,hexagon,1,0,,,,,,,,,,,,,,,,repeat,number,numRpt,k,0.6468,noRew,,,,,,0,22,0,22,0,1,,,,,,,,,,,,,,,,,
293599,2022-10-06_23h31.50.891,vts_reward_expectancy,2022.2.4,Win32,60.09615385,Chrome,1280,720,,,,,0,774,,,,,,,,,,,,,,,,,S,132,star,1,0,,,,,,,,,,,,,,,,repeat,number,numRpt,j,0.8526,noRew,,,,,,0,23,0,23,0,1,,,,,,,,,,,,,,,,,
293599,2022-10-06_23h31.50.891,vts_reward_expectancy,2022.2.4,Win32,60.09615385,Chrome,1280,720,,,,,0,774,,,,,,,,,,,,,,,,,H,146,star,1,0,,,,,,,,,,,,,,,,switch,letter,lettSwt,d,0.8121,noRew,,,,,,0,24,0,24,0,1,,,,,,,,,,,,,,,,,
293599,2022-10-06_23h31.50.891,vts_reward_expectancy,2022.2.4,Win32,60.09615385,Chrome,1280,720,,,,,0,774,,,,,,,,,,,,,,,,,U,181,triangle,1,0,,,,,,,,,,,,,,,,repeat,letter,lettRpt,f,0.7293,noRew,,,,,,0,25,0,25,0,1,,,,,,,,,,,,,,,,,
293599,2022-10-06_23h31.50.891,vts_reward_expectancy,2022.2.4,Win32,60.09615385,Chrome,1280,720,,,,,0,774,,,,,,,,,,,,,,,,,W,139,hexagon,1,0,,,,,,,,,,,,,,,,repeat,letter,lettRpt,f,0.5802,noRew,,,,,,0,26,0,26,0,1,,,,,,,,,,,,,,,,,
293599,2022-10-06_23h31.50.891,vts_reward_expectancy,2022.2.4,Win32,60.09615385,Chrome,1280,720,,,,,0,774,,,,,,,,,,,,,,,,,F,160,circle,1,0,,,,,,,,,,,,,,,,repeat,letter,lettRpt,d,0.8144,noRew,,,,,,0,27,0,27,0,1,,,,,,,,,,,,,,,,,
293599,2022-10-06_23h31.50.891,vts_reward_expectancy,2022.2.4,Win32,60.09615385,Chrome,1280,720,,,,,0,774,,,,,,,,,,,,,,,,,D,139,circle,1,0,,,,,,,,,,,,,,,,repeat,letter,lettRpt,d,0.8975,noRew,,,,,,0,28,0,28,0,1,,,,,,,,,,,,,,,,,
293599,2022-10-06_23h31.50.891,vts_reward_expectancy,2022.2.4,Win32,60.09615385,Chrome,1280,720,,,,,0,774,,,,,,,,,,,,,,,,,S,125,triangle,1,0,,,,,,,,,,,,,,,,switch,number,numSwt,j,0.7024,noRew,,,,,,0,29,0,29,0,1,,,,,,,,,,,,,,,,,
293599,2022-10-06_23h31.50.891,vts_reward_expectancy,2022.2.4,Win32,60.09615385,Chrome,1280,720,,,,,0,774,,,,,,,,,,,,,,,,,U,167,circle,1,0,,,,,,,,,,,,,,,,repeat,number,numRpt,k,0.9638,noRew,,,,,,0,30,0,30,0,1,,,,,,,,,,,,,,,,,
293599,2022-10-06_23h31.50.891,vts_reward_expectancy,2022.2.4,Win32,60.09615385,Chrome,1280,720,,,,,0,774,,,,,,,,,,,,,,,,,H,132,hexagon,1,0,,,,,,,,,,,,,,,,repeat,number,numRpt,j,0.8345,noRew,,,,,,0,31,0,31,0,1,,,,,,,,,,,,,,,,,
293599,2022-10-06_23h31.50.891,vts_reward_expectancy,2022.2.4,Win32,60.09615385,Chrome,1280,720,,,,,0,774,,,,,,,,,,,,,,,,,Y,181,circle,1,0,,,,,,,,,,,,,,,,repeat,number,numRpt,k,0.5476,noRew,,,,,,0,32,0,32,0,1,,,,,,,,,,,,,,,,,
293599,2022-10-06_23h31.50.891,vts_reward_expectancy,2022.2.4,Win32,60.09615385,Chrome,1280,720,,,,,0,774,,,,,,,,,,,,,,,,,S,132,triangle,1,0,,,,,,,,,,,,,,,,switch,letter,lettSwt,f,0.6323,noRew,,,,,,0,33,0,33,0,1,,,,,,,,,,,,,,,,,
293599,2022-10-06_23h31.50.891,vts_reward_expectancy,2022.2.4,Win32,60.09615385,Chrome,1280,720,,,,,0,774,,,,,,,,,,,,,,,,,B,167,star,1,0,,,,,,,,,,,,,,,,repeat,letter,lettRpt,d,0.8432,noRew,,,,,,0,34,0,34,0,1,,,,,,,,,,,,,,,,,
293599,2022-10-06_23h31.50.891,vts_reward_expectancy,2022.2.4,Win32,60.09615385,Chrome,1280,720,,,,,0,774,,,,,,,,,,,,,,,,,D,139,triangle,1,0,,,,,,,,,,,,,,,,repeat,letter,lettRpt,d,0.9515,noRew,,,,,,0,35,0,35,0,1,,,,,,,,,,,,,,,,,
293599,2022-10-06_23h31.50.891,vts_reward_expectancy,2022.2.4,Win32,60.09615385,Chrome,1280,720,,,,,0,774,,,,,,,,,,,,,,,,,W,174,triangle,1,0,,,,,,,,,,,,,,,,repeat,letter,lettRpt,f,1.101,noRew,,,,,,0,36,0,36,0,1,,,,,,,,,,,,,,,,,
293599,2022-10-06_23h31.50.891,vts_reward_expectancy,2022.2.4,Win32,60.09615385,Chrome,1280,720,,,,,0,774,,,,,,,,,,,,,,,,,Y,132,star,1,0,,,,,,,,,,,,,,,,switch,number,numSwt,j,0.6812,noRew,,,,,,0,37,0,37,0,1,,,,,,,,,,,,,,,,,
293599,2022-10-06_23h31.50.891,vts_reward_expectancy,2022.2.4,Win32,60.09615385,Chrome,1280,720,,,,,0,774,,,,,,,,,,,,,,,,,D,125,circle,1,0,,,,,,,,,,,,,,,,repeat,number,numRpt,j,0.7297,noRew,,,,,,0,38,0,38,0,1,,,,,,,,,,,,,,,,,
293599,2022-10-06_23h31.50.891,vts_reward_expectancy,2022.2.4,Win32,60.09615385,Chrome,1280,720,,,,,0,774,,,,,,,,,,,,,,,,,S,146,triangle,1,0,,,,,,,,,,,,,,,,repeat,number,numRpt,j,0.9132,noRew,,,,,,0,39,0,39,0,1,,,,,,,,,,,,,,,,,
293599,2022-10-06_23h31.50.891,vts_reward_expectancy,2022.2.4,Win32,60.09615385,Chrome,1280,720,,,,,0,774,,,,,,,,,,,,,,,,,D,167,circle,1,0,,,,,,,,,,,,,,,,switch,letter,lettSwt,d,1.0546,noRew,,,,,,0,40,0,40,0,1,,,,,,,,,,,,,,,,,
293599,2022-10-06_23h31.50.891,vts_reward_expectancy,2022.2.4,Win32,60.09615385,Chrome,1280,720,,,,,0,774,,,,,,,,,,,,,,,,,Y,160,triangle,1,0,,,,,,,,,,,,,,,,repeat,letter,lettRpt,f,0.8982,noRew,,,,,,0,41,0,41,0,1,,,,,,,,,,,,,,,,,
293599,2022-10-06_23h31.50.891,vts_reward_expectancy,2022.2.4,Win32,60.09615385,Chrome,1280,720,,,,,0,774,,,,,,,,,,,,,,,,,F,125,hexagon,1,0,,,,,,,,,,,,,,,,repeat,letter,lettRpt,d,0.6333,noRew,,,,,,0,42,0,42,0,1,,,,,,,,,,,,,,,,,
293599,2022-10-06_23h31.50.891,vts_reward_expectancy,2022.2.4,Win32,60.09615385,Chrome,1280,720,,,,,0,774,,,,,,,,,,,,,,,,,U,132,circle,1,0,,,,,,,,,,,,,,,,switch,number,numSwt,j,0.595,noRew,,,,,,0,43,0,43,0,1,,,,,,,,,,,,,,,,,
293599,2022-10-06_23h31.50.891,vts_reward_expectancy,2022.2.4,Win32,60.09615385,Chrome,1280,720,,,,,0,774,,,,,,,,,,,,,,,,,S,167,circle,1,0,,,,,,,,,,,,,,,,repeat,number,numRpt,k,0.8805,noRew,,,,,,0,44,0,44,0,1,,,,,,,,,,,,,,,,,
293599,2022-10-06_23h31.50.891,vts_reward_expectancy,2022.2.4,Win32,60.09615385,Chrome,1280,720,,,,,0,774,,,,,,,,,,,,,,,,,D,139,star,1,0,,,,,,,,,,,,,,,,switch,letter,lettSwt,d,0.6143,noRew,,,,,,0,45,0,45,0,1,,,,,,,,,,,,,,,,,
293599,2022-10-06_23h31.50.891,vts_reward_expectancy,2022.2.4,Win32,60.09615385,Chrome,1280,720,,,,,0,774,,,,,,,,,,,,,,,,,F,174,star,1,0,,,,,,,,,,,,,,,,repeat,letter,lettRpt,d,0.6474,noRew,,,,,,0,46,0,46,0,1,,,,,,,,,,,,,,,,,
293599,2022-10-06_23h31.50.891,vts_reward_expectancy,2022.2.4,Win32,60.09615385,Chrome,1280,720,,,,,0,774,,,,,,,,,,,,,,,,,U,125,hexagon,1,0,,,,,,,,,,,,,,,,repeat,letter,lettRpt,f,1.0137,noRew,,,,,,0,47,0,47,0,1,,,,,,,,,,,,,,,,,
293599,2022-10-06_23h31.50.891,vts_reward_expectancy,2022.2.4,Win32,60.09615385,Chrome,1280,720,,,,,0,774,,,,,,,,,,,,,,,,,H,125,star,1,0,,,,,,,,,,,,,,,,switch,number,numSwt,j,1.0471,noRew,,,,,,0,48,0,48,0,1,,,,,,,,,,,,,,,,,
293599,2022-10-06_23h31.50.891,vts_reward_expectancy,2022.2.4,Win32,60.09615385,Chrome,1280,720,,,,,0,774,,,,,,,,,,,,,,,,,W,146,circle,1,0,,,,,,,,,,,,,,,,repeat,number,numRpt,j,1.013,noRew,,,,,,0,49,0,49,0,1,,,,,,,,,,,,,,,,,
293599,2022-10-06_23h31.50.891,vts_reward_expectancy,2022.2.4,Win32,60.09615385,Chrome,1280,720,,,,,0,774,,,,,,,,,,,,,,,,,B,132,star,1,0,,,,,,,,,,,,,,,,repeat,number,numRpt,j,0.868,noRew,,,,,,0,50,0,50,0,1,,,,,,,,,,,,,,,,,
293599,2022-10-06_23h31.50.891,vts_reward_expectancy,2022.2.4,Win32,60.09615385,Chrome,1280,720,,,,,0,774,,,,,,,,,,,,,,,,,F,174,circle,1,0,,,,,,,,,,,,,,,,repeat,number,numRpt,k,0.5714,noRew,,,,,,0,51,0,51,0,1,,,,,,,,,,,,,,,,,
293599,2022-10-06_23h31.50.891,vts_reward_expectancy,2022.2.4,Win32,60.09615385,Chrome,1280,720,,,,,0,774,,,,,,,,,,,,,,,,,H,132,triangle,1,0,,,,,,,,,,,,,,,,repeat,number,numRpt,j,1.3186,noRew,,,,,,0,52,0,52,0,1,,,,,,,,,,,,,,,,,
293599,2022-10-06_23h31.50.891,vts_reward_expectancy,2022.2.4,Win32,60.09615385,Chrome,1280,720,,,,,0,774,,,,,,,,,,,,,,,,,U,160,circle,1,0,,,,,,,,,,,,,,,,repeat,number,numRpt,k,1.4451,noRew,,,,,,0,53,0,53,0,1,,,,,,,,,,,,,,,,,
293599,2022-10-06_23h31.50.891,vts_reward_expectancy,2022.2.4,Win32,60.09615385,Chrome,1280,720,,,,,0,774,,,,,,,,,,,,,,,,,W,167,hexagon,1,0,,,,,,,,,,,,,,,,switch,letter,lettSwt,f,0.6273,noRew,,,,,,0,54,0,54,0,1,,,,,,,,,,,,,,,,,
293599,2022-10-06_23h31.50.891,vts_reward_expectancy,2022.2.4,Win32,60.09615385,Chrome,1280,720,,,,,0,774,,,,,,,,,,,,,,,,,Y,174,circle,1,0,,,,,,,,,,,,,,,,repeat,letter,lettRpt,f,0.712,noRew,,,,,,0,55,0,55,0,1,,,,,,,,,,,,,,,,,
293599,2022-10-06_23h31.50.891,vts_reward_expectancy,2022.2.4,Win32,60.09615385,Chrome,1280,720,,,,,0,774,,,,,,,,,,,,,,,,,W,160,circle,1,0,,,,,,,,,,,,,,,,repeat,letter,lettRpt,f,0.6626,noRew,,,,,,0,56,0,56,0,1,,,,,,,,,,,,,,,,,
293599,2022-10-06_23h31.50.891,vts_reward_expectancy,2022.2.4,Win32,60.09615385,Chrome,1280,720,,,,,0,774,,,,,,,,,,,,,,,,,B,174,hexagon,1,0,,,,,,,,,,,,,,,,repeat,letter,lettRpt,d,0.6513,noRew,,,,,,0,57,0,57,0,1,,,,,,,,,,,,,,,,,
293599,2022-10-06_23h31.50.891,vts_reward_expectancy,2022.2.4,Win32,60.09615385,Chrome,1280,720,,,,,0,774,,,,,,,,,,,,,,,,,D,146,circle,1,0,,,,,,,,,,,,,,,,repeat,letter,lettRpt,d,0.7182,noRew,,,,,,0,58,0,58,0,1,,,,,,,,,,,,,,,,,
293599,2022-10-06_23h31.50.891,vts_reward_expectancy,2022.2.4,Win32,60.09615385,Chrome,1280,720,,,,,0,774,,,,,,,,,,,,,,,,,F,167,triangle,1,0,,,,,,,,,,,,,,,,repeat,letter,lettRpt,d,0.8495,noRew,,,,,,0,59,0,59,0,1,,,,,,,,,,,,,,,,,
293599,2022-10-06_23h31.50.891,vts_reward_expectancy,2022.2.4,Win32,60.09615385,Chrome,1280,720,,,,,0,774,,,,,,,,,,,,,,,,,S,174,circle,1,0,,,,,,,,,,,,,,,,switch,number,numSwt,k,0.6491,noRew,,,,,,0,60,0,60,0,1,,,,,,,,,,,,,,,,,
293599,2022-10-06_23h31.50.891,vts_reward_expectancy,2022.2.4,Win32,60.09615385,Chrome,1280,720,,,,,0,774,,,,,,,,,,,,,,,,,U,167,star,1,0,,,,,,,,,,,,,,,,repeat,number,numRpt,k,1.1998,noRew,,,,,,0,61,0,61,0,1,,,,,,,,,,,,,,,,,
293599,2022-10-06_23h31.50.891,vts_reward_expectancy,2022.2.4,Win32,60.09615385,Chrome,1280,720,,,,,0,774,,,,,,,,,,,,,,,,,F,146,star,1,0,,,,,,,,,,,,,,,,repeat,number,numRpt,j,1.231,noRew,,,,,,0,62,0,62,0,1,,,,,,,,,,,,,,,,,
293599,2022-10-06_23h31.50.891,vts_reward_expectancy,2022.2.4,Win32,60.09615385,Chrome,1280,720,,,,,0,774,,,,,,,,,,,,,,,,,W,139,hexagon,1,0,,,,,,,,,,,,,,,,switch,letter,lettSwt,f,1.2829,noRew,,,,,,0,63,0,63,0,1,,,,,,,,,,,,,,,,,
293599,2022-10-06_23h31.50.891,vts_reward_expectancy,2022.2.4,Win32,60.09615385,Chrome,1280,720,,,,,,,,,,,,,,,,,,,,,,,,,,,,,,,,,,,,,,,,,,,,,,,,,,,,,,,,,,,,,,,,,,,,,,,,,,,,
293599,2022-10-06_23h31.50.891,vts_reward_expectancy,2022.2.4,Win32,60.09615385,Chrome,1280,720,,,,,10,784,,,,,,,,,,,,,,,,,H,146,triangle,1,0,,,,,,,,,,,,,,,,repeat,letter,lettRpt,d,1.9121,Lo,,,,,,0,,,,,,space,4.4314,low,0,0,0,0,1,,,,,,,,,
293599,2022-10-06_23h31.50.891,vts_reward_expectancy,2022.2.4,Win32,60.09615385,Chrome,1280,720,,,,,0,784,,,,,,,,,,,,,,,,,B,167,circle,1,0,,,,,,,,,,,,,,,,repeat,letter,lettRpt,d,0.9136,Hi,,,,,,0,,,,,,,,low,1,0,1,0,1,,,,,,,,,
293599,2022-10-06_23h31.50.891,vts_reward_expectancy,2022.2.4,Win32,60.09615385,Chrome,1280,720,,,,,1,785,,,,,,,,,,,,,,,,,F,174,triangle,1,0,,,,,,,,,,,,,,,,repeat,letter,lettRpt,d,0.6803,Lo,,,,,,0,,,,,,,,low,2,0,2,0,1,,,,,,,,,
293599,2022-10-06_23h31.50.891,vts_reward_expectancy,2022.2.4,Win32,60.09615385,Chrome,1280,720,,,,,0,785,,,,,,,,,,,,,,,,,U,132,circle,1,0,,,,,,,,,,,,,,,,repeat,letter,lettRpt,f,1.0813,Hi,,,,,,0,,,,,,,,low,3,0,3,0,1,,,,,,,,,
293599,2022-10-06_23h31.50.891,vts_reward_expectancy,2022.2.4,Win32,60.09615385,Chrome,1280,720,,,,,0,785,,,,,,,,,,,,,,,,,W,181,circle,1,0,,,,,,,,,,,,,,,,switch,number,numSwt,k,0.7958,Hi,,,,,,0,,,,,,,,low,4,0,4,0,1,,,,,,,,,
293599,2022-10-06_23h31.50.891,vts_reward_expectancy,2022.2.4,Win32,60.09615385,Chrome,1280,720,,,,,10,795,,,,,,,,,,,,,,,,,S,125,triangle,1,0,,,,,,,,,,,,,,,,switch,letter,lettSwt,f,1.6815,Lo,,,,,,0,,,,,,,,low,5,0,5,0,1,,,,,,,,,
293599,2022-10-06_23h31.50.891,vts_reward_expectancy,2022.2.4,Win32,60.09615385,Chrome,1280,720,,,,,10,805,,,,,,,,,,,,,,,,,D,160,circle,1,0,,,,,,,,,,,,,,,,switch,number,numSwt,k,0.5141,Hi,,,,,,0,,,,,,,,low,6,0,6,0,1,,,,,,,,,
293599,2022-10-06_23h31.50.891,vts_reward_expectancy,2022.2.4,Win32,60.09615385,Chrome,1280,720,,,,,10,815,,,,,,,,,,,,,,,,,Y,139,triangle,1,0,,,,,,,,,,,,,,,,switch,letter,lettSwt,f,1.0514,Lo,,,,,,0,,,,,,,,low,7,0,7,0,1,,,,,,,,,
293599,2022-10-06_23h31.50.891,vts_reward_expectancy,2022.2.4,Win32,60.09615385,Chrome,1280,720,,,,,1,816,,,,,,,,,,,,,,,,,H,146,triangle,1,0,,,,,,,,,,,,,,,,repeat,letter,lettRpt,d,0.9703,Lo,,,,,,0,,,,,,,,low,8,0,8,0,1,,,,,,,,,
293599,2022-10-06_23h31.50.891,vts_reward_expectancy,2022.2.4,Win32,60.09615385,Chrome,1280,720,,,,,1,817,,,,,,,,,,,,,,,,,B,167,circle,1,0,,,,,,,,,,,,,,,,repeat,letter,lettRpt,d,0.6777,Hi,,,,,,0,,,,,,,,low,9,0,9,0,1,,,,,,,,,
293599,2022-10-06_23h31.50.891,vts_reward_expectancy,2022.2.4,Win32,60.09615385,Chrome,1280,720,,,,,0,817,,,,,,,,,,,,,,,,,F,174,circle,1,0,,,,,,,,,,,,,,,,repeat,letter,lettRpt,d,1.3292,Hi,,,,,,0,,,,,,,,low,10,0,10,0,1,,,,,,,,,
293599,2022-10-06_23h31.50.891,vts_reward_expectancy,2022.2.4,Win32,60.09615385,Chrome,1280,720,,,,,10,827,,,,,,,,,,,,,,,,,U,132,triangle,1,0,,,,,,,,,,,,,,,,repeat,letter,lettRpt,f,2.9484,Lo,,,,,,0,,,,,,,,low,11,0,11,0,1,,,,,,,,,
293599,2022-10-06_23h31.50.891,vts_reward_expectancy,2022.2.4,Win32,60.09615385,Chrome,1280,720,,,,,10,837,,,,,,,,,,,,,,,,,W,181,triangle,1,0,,,,,,,,,,,,,,,,switch,number,numSwt,k,0.6873,Lo,,,,,,0,,,,,,,,low,12,0,12,0,1,,,,,,,,,
293599,2022-10-06_23h31.50.891,vts_reward_expectancy,2022.2.4,Win32,60.09615385,Chrome,1280,720,,,,,10,847,,,,,,,,,,,,,,,,,S,125,circle,1,0,,,,,,,,,,,,,,,,repeat,number,numRpt,j,0.5794,Hi,,,,,,0,,,,,,,,low,13,0,13,0,1,,,,,,,,,
293599,2022-10-06_23h31.50.891,vts_reward_expectancy,2022.2.4,Win32,60.09615385,Chrome,1280,720,,,,,1,848,,,,,,,,,,,,,,,,,D,160,circle,1,0,,,,,,,,,,,,,,,,repeat,number,numRpt,k,0.4682,Hi,,,,,,0,,,,,,,,low,14,0,14,0,1,,,,,,,,,
293599,2022-10-06_23h31.50.891,vts_reward_expectancy,2022.2.4,Win32,60.09615385,Chrome,1280,720,,,,,1,849,,,,,,,,,,,,,,,,,Y,139,triangle,1,0,,,,,,,,,,,,,,,,switch,letter,lettSwt,f,0.6005,Lo,,,,,,0,,,,,,,,low,15,0,15,0,1,,,,,,,,,
293599,2022-10-06_23h31.50.891,vts_reward_expectancy,2022.2.4,Win32,60.09615385,Chrome,1280,720,,,,,10,859,,,,,,,,,,,,,,,,,U,146,circle,1,0,,,,,,,,,,,,,,,,repeat,letter,lettRpt,f,0.5792,Hi,,,,,,0,,,,,,,,low,16,0,16,0,1,,,,,,,,,
293599,2022-10-06_23h31.50.891,vts_reward_expectancy,2022.2.4,Win32,60.09615385,Chrome,1280,720,,,,,1,860,,,,,,,,,,,,,,,,,F,139,triangle,1,0,,,,,,,,,,,,,,,,repeat,letter,lettRpt,d,0.5824,Lo,,,,,,0,,,,,,,,low,17,0,17,0,1,,,,,,,,,
293599,2022-10-06_23h31.50.891,vts_reward_expectancy,2022.2.4,Win32,60.09615385,Chrome,1280,720,,,,,10,870,,,,,,,,,,,,,,,,,Y,181,triangle,1,0,,,,,,,,,,,,,,,,switch,number,numSwt,k,0.7671,Lo,,,,,,0,,,,,,,,low,18,0,18,0,1,,,,,,,,,
293599,2022-10-06_23h31.50.891,vts_reward_expectancy,2022.2.4,Win32,60.09615385,Chrome,1280,720,,,,,10,880,,,,,,,,,,,,,,,,,B,174,circle,1,0,,,,,,,,,,,,,,,,repeat,number,numRpt,k,0.5522,Hi,,,,,,0,,,,,,,,low,19,0,19,0,1,,,,,,,,,
293599,2022-10-06_23h31.50.891,vts_reward_expectancy,2022.2.4,Win32,60.09615385,Chrome,1280,720,,,,,1,881,,,,,,,,,,,,,,,,,W,125,triangle,1,0,,,,,,,,,,,,,,,,switch,letter,lettSwt,f,0.6514,Lo,,,,,,0,,,,,,,,low,20,0,20,0,1,,,,,,,,,
293599,2022-10-06_23h31.50.891,vts_reward_expectancy,2022.2.4,Win32,60.09615385,Chrome,1280,720,,,,,10,891,,,,,,,,,,,,,,,,,H,132,circle,1,0,,,,,,,,,,,,,,,,switch,number,numSwt,j,0.5634,Hi,,,,,,0,,,,,,,,low,21,0,21,0,1,,,,,,,,,
293599,2022-10-06_23h31.50.891,vts_reward_expectancy,2022.2.4,Win32,60.09615385,Chrome,1280,720,,,,,1,892,,,,,,,,,,,,,,,,,D,167,triangle,1,0,,,,,,,,,,,,,,,,repeat,number,numRpt,k,0.7654,Lo,,,,,,0,,,,,,,,low,22,0,22,0,1,,,,,,,,,
293599,2022-10-06_23h31.50.891,vts_reward_expectancy,2022.2.4,Win32,60.09615385,Chrome,1280,720,,,,,10,902,,,,,,,,,,,,,,,,,S,160,circle,1,0,,,,,,,,,,,,,,,,repeat,number,numRpt,k,0.5637,Hi,,,,,,0,,,,,,,,low,23,0,23,0,1,,,,,,,,,
293599,2022-10-06_23h31.50.891,vts_reward_expectancy,2022.2.4,Win32,60.09615385,Chrome,1280,720,,,,,1,903,,,,,,,,,,,,,,,,,D,181,triangle,1,0,,,,,,,,,,,,,,,,switch,letter,lettSwt,d,0.6313,Lo,,,,,,0,,,,,,,,low,24,0,24,0,1,,,,,,,,,
293599,2022-10-06_23h31.50.891,vts_reward_expectancy,2022.2.4,Win32,60.09615385,Chrome,1280,720,,,,,0,903,,,,,,,,,,,,,,,,,S,125,circle,1,0,,,,,,,,,,,,,,,,repeat,letter,lettRpt,f,0.736,Hi,,,,,,0,,,,,,,,low,25,0,25,0,1,,,,,,,,,
293599,2022-10-06_23h31.50.891,vts_reward_expectancy,2022.2.4,Win32,60.09615385,Chrome,1280,720,,,,,10,913,,,,,,,,,,,,,,,,,B,160,circle,1,0,,,,,,,,,,,,,,,,repeat,letter,lettRpt,d,0.5134,Hi,,,,,,0,,,,,,,,low,26,0,26,0,1,,,,,,,,,
293599,2022-10-06_23h31.50.891,vts_reward_expectancy,2022.2.4,Win32,60.09615385,Chrome,1280,720,,,,,1,914,,,,,,,,,,,,,,,,,H,139,triangle,1,0,,,,,,,,,,,,,,,,repeat,letter,lettRpt,d,0.6458,Lo,,,,,,0,,,,,,,,low,27,0,27,0,1,,,,,,,,,
293599,2022-10-06_23h31.50.891,vts_reward_expectancy,2022.2.4,Win32,60.09615385,Chrome,1280,720,,,,,10,924,,,,,,,,,,,,,,,,,U,146,circle,1,0,,,,,,,,,,,,,,,,repeat,letter,lettRpt,f,0.6134,Hi,,,,,,0,,,,,,,,low,28,0,28,0,1,,,,,,,,,
293599,2022-10-06_23h31.50.891,vts_reward_expectancy,2022.2.4,Win32,60.09615385,Chrome,1280,720,,,,,1,925,,,,,,,,,,,,,,,,,W,132,triangle,1,0,,,,,,,,,,,,,,,,switch,number,numSwt,j,0.6171,Lo,,,,,,0,,,,,,,,low,29,0,29,0,1,,,,,,,,,
293599,2022-10-06_23h31.50.891,vts_reward_expectancy,2022.2.4,Win32,60.09615385,Chrome,1280,720,,,,,10,935,,,,,,,,,,,,,,,,,Y,167,triangle,1,0,,,,,,,,,,,,,,,,repeat,number,numRpt,k,0.8143,Lo,,,,,,0,,,,,,,,low,30,0,30,0,1,,,,,,,,,
293599,2022-10-06_23h31.50.891,vts_reward_expectancy,2022.2.4,Win32,60.09615385,Chrome,1280,720,,,,,10,945,,,,,,,,,,,,,,,,,F,174,circle,1,0,,,,,,,,,,,,,,,,repeat,number,numRpt,k,0.6639,Hi,,,,,,0,,,,,,,,low,31,0,31,0,1,,,,,,,,,
293599,2022-10-06_23h31.50.891,vts_reward_expectancy,2022.2.4,Win32,60.09615385,Chrome,1280,720,,,,,0,945,,,,,,,,,,,,,,,,,B,146,star,1,0,,,,,,,,,,,,,,,,switch,letter,lettSwt,d,0.6487,Hi,,,,,,1,,,,,,space,2.57,high,0,0,0,0,1,,,,,,,,,
293599,2022-10-06_23h31.50.891,vts_reward_expectancy,2022.2.4,Win32,60.09615385,Chrome,1280,720,,,,,10,955,,,,,,,,,,,,,,,,,W,174,hexagon,1,0,,,,,,,,,,,,,,,,switch,number,numSwt,k,0.5179,Lo,,,,,,1,,,,,,,,high,1,0,1,0,1,,,,,,,,,
293599,2022-10-06_23h31.50.891,vts_reward_expectancy,2022.2.4,Win32,60.09615385,Chrome,1280,720,,,,,10,965,,,,,,,,,,,,,,,,,S,125,star,1,0,,,,,,,,,,,,,,,,repeat,number,numRpt,j,0.5517,Hi,,,,,,1,,,,,,,,high,2,0,2,0,1,,,,,,,,,
293599,2022-10-06_23h31.50.891,vts_reward_expectancy,2022.2.4,Win32,60.09615385,Chrome,1280,720,,,,,1,966,,,,,,,,,,,,,,,,,D,160,hexagon,1,0,,,,,,,,,,,,,,,,switch,letter,lettSwt,d,0.5341,Lo,,,,,,1,,,,,,,,high,3,0,3,0,1,,,,,,,,,
293599,2022-10-06_23h31.50.891,vts_reward_expectancy,2022.2.4,Win32,60.09615385,Chrome,1280,720,,,,,0,966,,,,,,,,,,,,,,,,,Y,167,star,1,0,,,,,,,,,,,,,,,,switch,number,numSwt,k,0.7142,Hi,,,,,,1,,,,,,,,high,4,0,4,0,1,,,,,,,,,
293599,2022-10-06_23h31.50.891,vts_reward_expectancy,2022.2.4,Win32,60.09615385,Chrome,1280,720,,,,,1,967,,,,,,,,,,,,,,,,,F,139,hexagon,1,0,,,,,,,,,,,,,,,,repeat,number,numRpt,j,0.8632,Lo,,,,,,1,,,,,,,,high,5,0,5,0,1,,,,,,,,,
293599,2022-10-06_23h31.50.891,vts_reward_expectancy,2022.2.4,Win32,60.09615385,Chrome,1280,720,,,,,1,968,,,,,,,,,,,,,,,,,H,181,hexagon,1,0,,,,,,,,,,,,,,,,repeat,number,numRpt,k,0.5559,Lo,,,,,,1,,,,,,,,high,6,0,6,0,1,,,,,,,,,
293599,2022-10-06_23h31.50.891,vts_reward_expectancy,2022.2.4,Win32,60.09615385,Chrome,1280,720,,,,,0,968,,,,,,,,,,,,,,,,,U,132,star,1,0,,,,,,,,,,,,,,,,repeat,number,numRpt,j,0.5699,Hi,,,,,,1,,,,,,,,high,7,0,7,0,1,,,,,,,,,
293599,2022-10-06_23h31.50.891,vts_reward_expectancy,2022.2.4,Win32,60.09615385,Chrome,1280,720,,,,,1,969,,,,,,,,,,,,,,,,,B,146,hexagon,1,0,,,,,,,,,,,,,,,,switch,letter,lettSwt,d,0.5836,Lo,,,,,,1,,,,,,,,high,8,0,8,0,1,,,,,,,,,
293599,2022-10-06_23h31.50.891,vts_reward_expectancy,2022.2.4,Win32,60.09615385,Chrome,1280,720,,,,,10,979,,,,,,,,,,,,,,,,,W,174,star,1,0,,,,,,,,,,,,,,,,repeat,letter,lettRpt,f,0.5343,Hi,,,,,,1,,,,,,,,high,9,0,9,0,1,,,,,,,,,
293599,2022-10-06_23h31.50.891,vts_reward_expectancy,2022.2.4,Win32,60.09615385,Chrome,1280,720,,,,,1,980,,,,,,,,,,,,,,,,,S,125,hexagon,1,0,,,,,,,,,,,,,,,,repeat,letter,lettRpt,f,0.7465,Lo,,,,,,1,,,,,,,,high,10,0,10,0,1,,,,,,,,,
293599,2022-10-06_23h31.50.891,vts_reward_expectancy,2022.2.4,Win32,60.09615385,Chrome,1280,720,,,,,10,990,,,,,,,,,,,,,,,,,D,160,star,1,0,,,,,,,,,,,,,,,,switch,number,numSwt,k,0.4659,Hi,,,,,,1,,,,,,,,high,11,0,11,0,1,,,,,,,,,
293599,2022-10-06_23h31.50.891,vts_reward_expectancy,2022.2.4,Win32,60.09615385,Chrome,1280,720,,,,,10,1000,,,,,,,,,,,,,,,,,Y,167,star,1,0,,,,,,,,,,,,,,,,repeat,number,numRpt,k,0.4673,Hi,,,,,,1,,,,,,,,high,12,0,12,0,1,,,,,,,,,
293599,2022-10-06_23h31.50.891,vts_reward_expectancy,2022.2.4,Win32,60.09615385,Chrome,1280,720,,,,,1,1001,,,,,,,,,,,,,,,,,F,139,hexagon,1,0,,,,,,,,,,,,,,,,switch,letter,lettSwt,d,0.7652,Lo,,,,,,1,,,,,,,,high,13,0,13,0,1,,,,,,,,,
293599,2022-10-06_23h31.50.891,vts_reward_expectancy,2022.2.4,Win32,60.09615385,Chrome,1280,720,,,,,10,1011,,,,,,,,,,,,,,,,,H,181,star,1,0,,,,,,,,,,,,,,,,switch,number,numSwt,k,0.4782,Hi,,,,,,1,,,,,,,,high,14,0,14,0,1,,,,,,,,,
293599,2022-10-06_23h31.50.891,vts_reward_expectancy,2022.2.4,Win32,60.09615385,Chrome,1280,720,,,,,1,1012,,,,,,,,,,,,,,,,,U,132,hexagon,1,0,,,,,,,,,,,,,,,,switch,letter,lettSwt,f,0.6647,Lo,,,,,,1,,,,,,,,high,15,0,15,0,1,,,,,,,,,
293599,2022-10-06_23h31.50.891,vts_reward_expectancy,2022.2.4,Win32,60.09615385,Chrome,1280,720,,,,,1,1013,,,,,,,,,,,,,,,,,Y,181,hexagon,1,0,,,,,,,,,,,,,,,,switch,number,numSwt,k,0.7959,Lo,,,,,,1,,,,,,,,high,16,0,16,0,1,,,,,,,,,
293599,2022-10-06_23h31.50.891,vts_reward_expectancy,2022.2.4,Win32,60.09615385,Chrome,1280,720,,,,,0,1013,,,,,,,,,,,,,,,,,S,160,star,1,0,,,,,,,,,,,,,,,,repeat,number,numRpt,k,0.6785,Hi,,,,,,1,,,,,,,,high,17,0,17,0,1,,,,,,,,,
293599,2022-10-06_23h31.50.891,vts_reward_expectancy,2022.2.4,Win32,60.09615385,Chrome,1280,720,,,,,10,1023,,,,,,,,,,,,,,,,,U,139,star,1,0,,,,,,,,,,,,,,,,repeat,number,numRpt,j,0.4679,Hi,,,,,,1,,,,,,,,high,18,0,18,0,1,,,,,,,,,
293599,2022-10-06_23h31.50.891,vts_reward_expectancy,2022.2.4,Win32,60.09615385,Chrome,1280,720,,,,,1,1024,,,,,,,,,,,,,,,,,B,132,hexagon,1,0,,,,,,,,,,,,,,,,repeat,number,numRpt,j,0.6502,Lo,,,,,,1,,,,,,,,high,19,0,19,0,1,,,,,,,,,
293599,2022-10-06_23h31.50.891,vts_reward_expectancy,2022.2.4,Win32,60.09615385,Chrome,1280,720,,,,,1,1025,,,,,,,,,,,,,,,,,D,174,hexagon,1,0,,,,,,,,,,,,,,,,switch,letter,lettSwt,d,0.5349,Lo,,,,,,1,,,,,,,,high,20,0,20,0,1,,,,,,,,,
293599,2022-10-06_23h31.50.891,vts_reward_expectancy,2022.2.4,Win32,60.09615385,Chrome,1280,720,,,,,0,1025,,,,,,,,,,,,,,,,,H,125,star,1,0,,,,,,,,,,,,,,,,switch,number,numSwt,j,0.6053,Hi,,,,,,1,,,,,,,,high,21,0,21,0,1,,,,,,,,,
293599,2022-10-06_23h31.50.891,vts_reward_expectancy,2022.2.4,Win32,60.09615385,Chrome,1280,720,,,,,1,1026,,,,,,,,,,,,,,,,,F,167,hexagon,1,0,,,,,,,,,,,,,,,,repeat,number,numRpt,k,0.8461,Lo,,,,,,1,,,,,,,,high,22,0,22,0,1,,,,,,,,,
293599,2022-10-06_23h31.50.891,vts_reward_expectancy,2022.2.4,Win32,60.09615385,Chrome,1280,720,,,,,0,1026,,,,,,,,,,,,,,,,,W,146,star,1,0,,,,,,,,,,,,,,,,repeat,number,numRpt,j,0.6518,Hi,,,,,,1,,,,,,,,high,23,0,23,0,1,,,,,,,,,
293599,2022-10-06_23h31.50.891,vts_reward_expectancy,2022.2.4,Win32,60.09615385,Chrome,1280,720,,,,,1,1027,,,,,,,,,,,,,,,,,F,125,hexagon,1,0,,,,,,,,,,,,,,,,repeat,number,numRpt,j,0.9357,Lo,,,,,,1,,,,,,,,high,24,0,24,0,1,,,,,,,,,
293599,2022-10-06_23h31.50.891,vts_reward_expectancy,2022.2.4,Win32,60.09615385,Chrome,1280,720,,,,,10,1037,,,,,,,,,,,,,,,,,B,146,star,1,0,,,,,,,,,,,,,,,,switch,letter,lettSwt,d,0.445,Hi,,,,,,1,,,,,,,,high,25,0,25,0,1,,,,,,,,,
293599,2022-10-06_23h31.50.891,vts_reward_expectancy,2022.2.4,Win32,60.09615385,Chrome,1280,720,,,,,1,1038,,,,,,,,,,,,,,,,,U,160,hexagon,1,0,,,,,,,,,,,,,,,,repeat,letter,lettRpt,f,0.5714,Lo,,,,,,1,,,,,,,,high,26,0,26,0,1,,,,,,,,,
293599,2022-10-06_23h31.50.891,vts_reward_expectancy,2022.2.4,Win32,60.09615385,Chrome,1280,720,,,,,10,1048,,,,,,,,,,,,,,,,,Y,167,star,1,0,,,,,,,,,,,,,,,,repeat,letter,lettRpt,f,0.5321,Hi,,,,,,1,,,,,,,,high,27,0,27,0,1,,,,,,,,,
293599,2022-10-06_23h31.50.891,vts_reward_expectancy,2022.2.4,Win32,60.09615385,Chrome,1280,720,,,,,1,1049,,,,,,,,,,,,,,,,,D,139,hexagon,1,0,,,,,,,,,,,,,,,,repeat,letter,lettRpt,d,0.7841,Lo,,,,,,1,,,,,,,,high,28,0,28,0,1,,,,,,,,,
293599,2022-10-06_23h31.50.891,vts_reward_expectancy,2022.2.4,Win32,60.09615385,Chrome,1280,720,,,,,10,1059,,,,,,,,,,,,,,,,,S,174,star,1,0,,,,,,,,,,,,,,,,repeat,letter,lettRpt,f,0.4651,Hi,,,,,,1,,,,,,,,high,29,0,29,0,1,,,,,,,,,
293599,2022-10-06_23h31.50.891,vts_reward_expectancy,2022.2.4,Win32,60.09615385,Chrome,1280,720,,,,,10,1069,,,,,,,,,,,,,,,,,W,132,star,1,0,,,,,,,,,,,,,,,,repeat,letter,lettRpt,f,0.4818,Hi,,,,,,1,,,,,,,,high,30,0,30,0,1,,,,,,,,,
293599,2022-10-06_23h31.50.891,vts_reward_expectancy,2022.2.4,Win32,60.09615385,Chrome,1280,720,,,,,1,1070,,,,,,,,,,,,,,,,,H,181,hexagon,1,0,,,,,,,,,,,,,,,,switch,number,numSwt,k,0.4501,Lo,,,,,,1,,,,,,,,high,31,0,31,0,1,,,,,,,,,
293599,2022-10-06_23h31.50.891,vts_reward_expectancy,2022.2.4,Win32,60.09615385,Chrome,1280,720,,,,,1,1071,,,,,,,,,,,,,,,,,H,132,hexagon,1,0,,,,,,,,,,,,,,,,repeat,number,numRpt,j,0.9334,Lo,,,,,,2,,,,,,space,0.8856,high,0,0,0,0,1,,,,,,,,,
293599,2022-10-06_23h31.50.891,vts_reward_expectancy,2022.2.4,Win32,60.09615385,Chrome,1280,720,,,,,10,1081,,,,,,,,,,,,,,,,,S,181,star,1,0,,,,,,,,,,,,,,,,repeat,number,numRpt,k,0.4661,Hi,,,,,,2,,,,,,,,high,1,0,1,0,1,,,,,,,,,
293599,2022-10-06_23h31.50.891,vts_reward_expectancy,2022.2.4,Win32,60.09615385,Chrome,1280,720,,,,,10,1091,,,,,,,,,,,,,,,,,W,146,hexagon,1,0,,,,,,,,,,,,,,,,switch,letter,lettSwt,f,0.6976,Lo,,,,,,2,,,,,,,,high,2,0,2,0,1,,,,,,,,,
293599,2022-10-06_23h31.50.891,vts_reward_expectancy,2022.2.4,Win32,60.09615385,Chrome,1280,720,,,,,0,1091,,,,,,,,,,,,,,,,,B,174,star,1,0,,,,,,,,,,,,,,,,repeat,letter,lettRpt,d,0.6125,Hi,,,,,,2,,,,,,,,high,3,0,3,0,1,,,,,,,,,
293599,2022-10-06_23h31.50.891,vts_reward_expectancy,2022.2.4,Win32,60.09615385,Chrome,1280,720,,,,,0,1091,,,,,,,,,,,,,,,,,D,167,star,1,0,,,,,,,,,,,,,,,,switch,number,numSwt,k,0.6453,Hi,,,,,,2,,,,,,,,high,4,0,4,0,1,,,,,,,,,
293599,2022-10-06_23h31.50.891,vts_reward_expectancy,2022.2.4,Win32,60.09615385,Chrome,1280,720,,,,,1,1092,,,,,,,,,,,,,,,,,Y,139,hexagon,1,0,,,,,,,,,,,,,,,,repeat,number,numRpt,j,1.385,Lo,,,,,,2,,,,,,,,high,5,0,5,0,1,,,,,,,,,
293599,2022-10-06_23h31.50.891,vts_reward_expectancy,2022.2.4,Win32,60.09615385,Chrome,1280,720,,,,,10,1102,,,,,,,,,,,,,,,,,U,160,star,1,0,,,,,,,,,,,,,,,,repeat,number,numRpt,k,0.5449,Hi,,,,,,2,,,,,,,,high,6,0,6,0,1,,,,,,,,,
293599,2022-10-06_23h31.50.891,vts_reward_expectancy,2022.2.4,Win32,60.09615385,Chrome,1280,720,,,,,1,1103,,,,,,,,,,,,,,,,,F,125,hexagon,1,0,,,,,,,,,,,,,,,,repeat,number,numRpt,j,0.6504,Lo,,,,,,2,,,,,,,,high,7,0,7,0,1,,,,,,,,,
293599,2022-10-06_23h31.50.891,vts_reward_expectancy,2022.2.4,Win32,60.09615385,Chrome,1280,720,,,,,1,1104,,,,,,,,,,,,,,,,,H,132,hexagon,1,0,,,,,,,,,,,,,,,,switch,letter,lettSwt,d,0.6159,Lo,,,,,,2,,,,,,,,high,8,0,8,0,1,,,,,,,,,
293599,2022-10-06_23h31.50.891,vts_reward_expectancy,2022.2.4,Win32,60.09615385,Chrome,1280,720,,,,,0,1104,,,,,,,,,,,,,,,,,S,181,star,1,0,,,,,,,,,,,,,,,,repeat,letter,lettRpt,f,0.6958,Hi,,,,,,2,,,,,,,,high,9,0,9,0,1,,,,,,,,,
293599,2022-10-06_23h31.50.891,vts_reward_expectancy,2022.2.4,Win32,60.09615385,Chrome,1280,720,,,,,1,1105,,,,,,,,,,,,,,,,,W,146,hexagon,1,0,,,,,,,,,,,,,,,,repeat,letter,lettRpt,f,0.6017,Lo,,,,,,2,,,,,,,,high,10,0,10,0,1,,,,,,,,,
293599,2022-10-06_23h31.50.891,vts_reward_expectancy,2022.2.4,Win32,60.09615385,Chrome,1280,720,,,,,0,1105,,,,,,,,,,,,,,,,,B,174,star,1,0,,,,,,,,,,,,,,,,switch,number,numSwt,k,0.5319,Hi,,,,,,2,,,,,,,,high,11,0,11,0,1,,,,,,,,,
293599,2022-10-06_23h31.50.891,vts_reward_expectancy,2022.2.4,Win32,60.09615385,Chrome,1280,720,,,,,1,1106,,,,,,,,,,,,,,,,,D,167,hexagon,1,0,,,,,,,,,,,,,,,,repeat,number,numRpt,k,0.8146,Lo,,,,,,2,,,,,,,,high,12,0,12,0,1,,,,,,,,,
293599,2022-10-06_23h31.50.891,vts_reward_expectancy,2022.2.4,Win32,60.09615385,Chrome,1280,720,,,,,10,1116,,,,,,,,,,,,,,,,,Y,139,star,1,0,,,,,,,,,,,,,,,,switch,letter,lettSwt,f,0.5124,Hi,,,,,,2,,,,,,,,high,13,0,13,0,1,,,,,,,,,
293599,2022-10-06_23h31.50.891,vts_reward_expectancy,2022.2.4,Win32,60.09615385,Chrome,1280,720,,,,,1,1117,,,,,,,,,,,,,,,,,U,160,hexagon,1,0,,,,,,,,,,,,,,,,repeat,letter,lettRpt,f,0.6821,Lo,,,,,,2,,,,,,,,high,14,0,14,0,1,,,,,,,,,
293599,2022-10-06_23h31.50.891,vts_reward_expectancy,2022.2.4,Win32,60.09615385,Chrome,1280,720,,,,,0,1117,,,,,,,,,,,,,,,,,F,125,star,1,0,,,,,,,,,,,,,,,,repeat,letter,lettRpt,d,0.8502,Hi,,,,,,2,,,,,,,,high,15,0,15,0,1,,,,,,,,,
293599,2022-10-06_23h31.50.891,vts_reward_expectancy,2022.2.4,Win32,60.09615385,Chrome,1280,720,,,,,1,1118,,,,,,,,,,,,,,,,,Y,181,hexagon,1,0,,,,,,,,,,,,,,,,switch,number,numSwt,k,0.5803,Lo,,,,,,2,,,,,,,,high,16,0,16,0,1,,,,,,,,,
293599,2022-10-06_23h31.50.891,vts_reward_expectancy,2022.2.4,Win32,60.09615385,Chrome,1280,720,,,,,0,1118,,,,,,,,,,,,,,,,,H,125,star,1,0,,,,,,,,,,,,,,,,repeat,number,numRpt,j,0.6362,Hi,,,,,,2,,,,,,,,high,17,0,17,0,1,,,,,,,,,
293599,2022-10-06_23h31.50.891,vts_reward_expectancy,2022.2.4,Win32,60.09615385,Chrome,1280,720,,,,,10,1128,,,,,,,,,,,,,,,,,F,160,star,1,0,,,,,,,,,,,,,,,,repeat,number,numRpt,k,0.4967,Hi,,,,,,2,,,,,,,,high,18,0,18,0,1,,,,,,,,,
293599,2022-10-06_23h31.50.891,vts_reward_expectancy,2022.2.4,Win32,60.09615385,Chrome,1280,720,,,,,1,1129,,,,,,,,,,,,,,,,,D,132,hexagon,1,0,,,,,,,,,,,,,,,,repeat,number,numRpt,j,0.4782,Lo,,,,,,2,,,,,,,,high,19,0,19,0,1,,,,,,,,,
293599,2022-10-06_23h31.50.891,vts_reward_expectancy,2022.2.4,Win32,60.09615385,Chrome,1280,720,,,,,0,1129,,,,,,,,,,,,,,,,,U,174,star,1,0,,,,,,,,,,,,,,,,switch,letter,lettSwt,f,0.6118,Hi,,,,,,2,,,,,,,,high,20,0,20,0,1,,,,,,,,,
293599,2022-10-06_23h31.50.891,vts_reward_expectancy,2022.2.4,Win32,60.09615385,Chrome,1280,720,,,,,1,1130,,,,,,,,,,,,,,,,,B,167,hexagon,1,0,,,,,,,,,,,,,,,,repeat,letter,lettRpt,d,0.5372,Lo,,,,,,2,,,,,,,,high,21,0,21,0,1,,,,,,,,,
293599,2022-10-06_23h31.50.891,vts_reward_expectancy,2022.2.4,Win32,60.09615385,Chrome,1280,720,,,,,1,1131,,,,,,,,,,,,,,,,,S,139,hexagon,1,0,,,,,,,,,,,,,,,,repeat,letter,lettRpt,f,0.4958,Lo,,,,,,2,,,,,,,,high,22,0,22,0,1,,,,,,,,,
293599,2022-10-06_23h31.50.891,vts_reward_expectancy,2022.2.4,Win32,60.09615385,Chrome,1280,720,,,,,0,1131,,,,,,,,,,,,,,,,,W,146,star,1,0,,,,,,,,,,,,,,,,switch,number,numSwt,j,0.5167,Hi,,,,,,2,,,,,,,,high,23,0,23,0,1,,,,,,,,,
293599,2022-10-06_23h31.50.891,vts_reward_expectancy,2022.2.4,Win32,60.09615385,Chrome,1280,720,,,,,1,1132,,,,,,,,,,,,,,,,,W,146,hexagon,1,0,,,,,,,,,,,,,,,,repeat,number,numRpt,j,0.5863,Lo,,,,,,2,,,,,,,,high,24,0,24,0,1,,,,,,,,,
293599,2022-10-06_23h31.50.891,vts_reward_expectancy,2022.2.4,Win32,60.09615385,Chrome,1280,720,,,,,10,1142,,,,,,,,,,,,,,,,,S,174,star,1,0,,,,,,,,,,,,,,,,repeat,number,numRpt,k,0.4688,Hi,,,,,,2,,,,,,,,high,25,0,25,0,1,,,,,,,,,
293599,2022-10-06_23h31.50.891,vts_reward_expectancy,2022.2.4,Win32,60.09615385,Chrome,1280,720,,,,,10,1152,,,,,,,,,,,,,,,,,U,167,star,1,0,,,,,,,,,,,,,,,,repeat,number,numRpt,k,0.4299,Hi,,,,,,2,,,,,,,,high,26,0,26,0,1,,,,,,,,,
293599,2022-10-06_23h31.50.891,vts_reward_expectancy,2022.2.4,Win32,60.09615385,Chrome,1280,720,,,,,1,1153,,,,,,,,,,,,,,,,,D,139,hexagon,1,0,,,,,,,,,,,,,,,,switch,letter,lettSwt,d,0.5493,Lo,,,,,,2,,,,,,,,high,27,0,27,0,1,,,,,,,,,
293599,2022-10-06_23h31.50.891,vts_reward_expectancy,2022.2.4,Win32,60.09615385,Chrome,1280,720,,,,,10,1163,,,,,,,,,,,,,,,,,H,181,star,1,0,,,,,,,,,,,,,,,,switch,number,numSwt,k,0.4476,Hi,,,,,,2,,,,,,,,high,28,0,28,0,1,,,,,,,,,
293599,2022-10-06_23h31.50.891,vts_reward_expectancy,2022.2.4,Win32,60.09615385,Chrome,1280,720,,,,,1,1164,,,,,,,,,,,,,,,,,F,160,hexagon,1,0,,,,,,,,,,,,,,,,repeat,number,numRpt,k,0.4801,Lo,,,,,,2,,,,,,,,high,29,0,29,0,1,,,,,,,,,
293599,2022-10-06_23h31.50.891,vts_reward_expectancy,2022.2.4,Win32,60.09615385,Chrome,1280,720,,,,,10,1174,,,,,,,,,,,,,,,,,B,125,star,1,0,,,,,,,,,,,,,,,,repeat,number,numRpt,j,0.498,Hi,,,,,,2,,,,,,,,high,30,0,30,0,1,,,,,,,,,
293599,2022-10-06_23h31.50.891,vts_reward_expectancy,2022.2.4,Win32,60.09615385,Chrome,1280,720,,,,,10,1184,,,,,,,,,,,,,,,,,Y,132,hexagon,1,0,,,,,,,,,,,,,,,,switch,letter,lettSwt,f,0.4299,Lo,,,,,,2,,,,,,,,high,31,0,31,0,1,,,,,,,,,
293599,2022-10-06_23h31.50.891,vts_reward_expectancy,2022.2.4,Win32,60.09615385,Chrome,1280,720,,,,,1,1185,,,,,,,,,,,,,,,,,Y,125,star,1,0,,,,,,,,,,,,,,,,switch,number,numSwt,j,0.4362,Hi,,,,,,3,,,,,,space,1.0664,high,0,0,0,0,1,,,,,,,,,
293599,2022-10-06_23h31.50.891,vts_reward_expectancy,2022.2.4,Win32,60.09615385,Chrome,1280,720,,,,,1,1186,,,,,,,,,,,,,,,,,S,139,hexagon,1,0,,,,,,,,,,,,,,,,repeat,number,numRpt,j,0.7993,Lo,,,,,,3,,,,,,,,high,1,0,1,0,1,,,,,,,,,
293599,2022-10-06_23h31.50.891,vts_reward_expectancy,2022.2.4,Win32,60.09615385,Chrome,1280,720,,,,,0,1186,,,,,,,,,,,,,,,,,U,167,star,0,0,,,,,,,,,,,,,,,,switch,letter,NA,d,0.4316,Lo,,,,,,3,,,,,,,,high,2,0,2,0,1,,,,,,,,,
293599,2022-10-06_23h31.50.891,vts_reward_expectancy,2022.2.4,Win32,60.09615385,Chrome,1280,720,,,,,1,1187,,,,,,,,,,,,,,,,,F,181,hexagon,1,1,,,,,,,,,,,,,,,,repeat,letter,lettRpt,d,0.7334,Lo,,,,,,3,,,,,,,,high,3,0,3,0,1,,,,,,,,,
293599,2022-10-06_23h31.50.891,vts_reward_expectancy,2022.2.4,Win32,60.09615385,Chrome,1280,720,,,,,1,1188,,,,,,,,,,,,,,,,,H,160,hexagon,1,0,,,,,,,,,,,,,,,,repeat,letter,lettRpt,d,0.5836,Lo,,,,,,3,,,,,,,,high,4,0,4,0,1,,,,,,,,,
293599,2022-10-06_23h31.50.891,vts_reward_expectancy,2022.2.4,Win32,60.09615385,Chrome,1280,720,,,,,1,1189,,,,,,,,,,,,,,,,,B,174,star,1,0,,,,,,,,,,,,,,,,switch,number,numSwt,k,0.5181,Hi,,,,,,3,,,,,,,,high,5,0,5,0,1,,,,,,,,,
293599,2022-10-06_23h31.50.891,vts_reward_expectancy,2022.2.4,Win32,60.09615385,Chrome,1280,720,,,,,1,1190,,,,,,,,,,,,,,,,,D,132,hexagon,1,0,,,,,,,,,,,,,,,,repeat,number,numRpt,j,0.5321,Lo,,,,,,3,,,,,,,,high,6,0,6,0,1,,,,,,,,,
293599,2022-10-06_23h31.50.891,vts_reward_expectancy,2022.2.4,Win32,60.09615385,Chrome,1280,720,,,,,10,1200,,,,,,,,,,,,,,,,,W,146,star,1,0,,,,,,,,,,,,,,,,repeat,number,numRpt,j,0.4806,Hi,,,,,,3,,,,,,,,high,7,0,7,0,1,,,,,,,,,
293599,2022-10-06_23h31.50.891,vts_reward_expectancy,2022.2.4,Win32,60.09615385,Chrome,1280,720,,,,,10,1210,,,,,,,,,,,,,,,,,Y,125,star,1,0,,,,,,,,,,,,,,,,switch,letter,lettSwt,f,0.4655,Hi,,,,,,3,,,,,,,,high,8,0,8,0,1,,,,,,,,,
293599,2022-10-06_23h31.50.891,vts_reward_expectancy,2022.2.4,Win32,60.09615385,Chrome,1280,720,,,,,1,1211,,,,,,,,,,,,,,,,,S,139,hexagon,1,0,,,,,,,,,,,,,,,,repeat,letter,lettRpt,f,0.6155,Lo,,,,,,3,,,,,,,,high,9,0,9,0,1,,,,,,,,,
293599,2022-10-06_23h31.50.891,vts_reward_expectancy,2022.2.4,Win32,60.09615385,Chrome,1280,720,,,,,10,1221,,,,,,,,,,,,,,,,,U,167,star,1,0,,,,,,,,,,,,,,,,repeat,letter,lettRpt,f,0.5304,Hi,,,,,,3,,,,,,,,high,10,0,10,0,1,,,,,,,,,
293599,2022-10-06_23h31.50.891,vts_reward_expectancy,2022.2.4,Win32,60.09615385,Chrome,1280,720,,,,,1,1222,,,,,,,,,,,,,,,,,F,181,hexagon,1,0,,,,,,,,,,,,,,,,repeat,letter,lettRpt,d,0.4848,Lo,,,,,,3,,,,,,,,high,11,0,11,0,1,,,,,,,,,
293599,2022-10-06_23h31.50.891,vts_reward_expectancy,2022.2.4,Win32,60.09615385,Chrome,1280,720,,,,,1,1223,,,,,,,,,,,,,,,,,H,160,hexagon,1,0,,,,,,,,,,,,,,,,switch,number,numSwt,k,0.5323,Lo,,,,,,3,,,,,,,,high,12,0,12,0,1,,,,,,,,,
293599,2022-10-06_23h31.50.891,vts_reward_expectancy,2022.2.4,Win32,60.09615385,Chrome,1280,720,,,,,10,1233,,,,,,,,,,,,,,,,,B,174,star,1,0,,,,,,,,,,,,,,,,repeat,number,numRpt,k,0.4682,Hi,,,,,,3,,,,,,,,high,13,0,13,0,1,,,,,,,,,
293599,2022-10-06_23h31.50.891,vts_reward_expectancy,2022.2.4,Win32,60.09615385,Chrome,1280,720,,,,,10,1243,,,,,,,,,,,,,,,,,D,132,hexagon,1,0,,,,,,,,,,,,,,,,repeat,number,numRpt,j,0.6657,Lo,,,,,,3,,,,,,,,high,14,0,14,0,1,,,,,,,,,
293599,2022-10-06_23h31.50.891,vts_reward_expectancy,2022.2.4,Win32,60.09615385,Chrome,1280,720,,,,,0,1243,,,,,,,,,,,,,,,,,W,146,star,1,0,,,,,,,,,,,,,,,,repeat,number,numRpt,j,0.5821,Hi,,,,,,3,,,,,,,,high,15,0,15,0,1,,,,,,,,,
293599,2022-10-06_23h31.50.891,vts_reward_expectancy,2022.2.4,Win32,60.09615385,Chrome,1280,720,,,,,0,1243,,,,,,,,,,,,,,,,,U,139,star,1,0,,,,,,,,,,,,,,,,repeat,number,numRpt,j,0.5341,Hi,,,,,,3,,,,,,,,high,16,0,16,0,1,,,,,,,,,
293599,2022-10-06_23h31.50.891,vts_reward_expectancy,2022.2.4,Win32,60.09615385,Chrome,1280,720,,,,,10,1253,,,,,,,,,,,,,,,,,H,181,hexagon,1,0,,,,,,,,,,,,,,,,switch,letter,lettSwt,d,0.7827,Lo,,,,,,3,,,,,,,,high,17,0,17,0,1,,,,,,,,,
293599,2022-10-06_23h31.50.891,vts_reward_expectancy,2022.2.4,Win32,60.09615385,Chrome,1280,720,,,,,10,1263,,,,,,,,,,,,,,,,,W,146,star,1,0,,,,,,,,,,,,,,,,repeat,letter,lettRpt,f,0.5289,Hi,,,,,,3,,,,,,,,high,18,0,18,0,1,,,,,,,,,
293599,2022-10-06_23h31.50.891,vts_reward_expectancy,2022.2.4,Win32,60.09615385,Chrome,1280,720,,,,,1,1264,,,,,,,,,,,,,,,,,D,167,hexagon,1,0,,,,,,,,,,,,,,,,repeat,letter,lettRpt,d,0.4599,Lo,,,,,,3,,,,,,,,high,19,0,19,0,1,,,,,,,,,
293599,2022-10-06_23h31.50.891,vts_reward_expectancy,2022.2.4,Win32,60.09615385,Chrome,1280,720,,,,,10,1274,,,,,,,,,,,,,,,,,Y,174,star,1,0,,,,,,,,,,,,,,,,switch,number,numSwt,k,0.4975,Hi,,,,,,3,,,,,,,,high,20,0,20,0,1,,,,,,,,,
293599,2022-10-06_23h31.50.891,vts_reward_expectancy,2022.2.4,Win32,60.09615385,Chrome,1280,720,,,,,10,1284,,,,,,,,,,,,,,,,,F,160,hexagon,1,0,,,,,,,,,,,,,,,,repeat,number,numRpt,k,0.5789,Lo,,,,,,3,,,,,,,,high,21,0,21,0,1,,,,,,,,,
293599,2022-10-06_23h31.50.891,vts_reward_expectancy,2022.2.4,Win32,60.09615385,Chrome,1280,720,,,,,1,1285,,,,,,,,,,,,,,,,,S,125,hexagon,1,0,,,,,,,,,,,,,,,,repeat,number,numRpt,j,0.5291,Lo,,,,,,3,,,,,,,,high,22,0,22,0,1,,,,,,,,,
293599,2022-10-06_23h31.50.891,vts_reward_expectancy,2022.2.4,Win32,60.09615385,Chrome,1280,720,,,,,0,1285,,,,,,,,,,,,,,,,,B,132,star,1,0,,,,,,,,,,,,,,,,repeat,number,numRpt,j,0.5515,Hi,,,,,,3,,,,,,,,high,23,0,23,0,1,,,,,,,,,
293599,2022-10-06_23h31.50.891,vts_reward_expectancy,2022.2.4,Win32,60.09615385,Chrome,1280,720,,,,,1,1286,,,,,,,,,,,,,,,,,S,139,hexagon,1,0,,,,,,,,,,,,,,,,repeat,number,numRpt,j,0.564,Lo,,,,,,3,,,,,,,,high,24,0,24,0,1,,,,,,,,,
293599,2022-10-06_23h31.50.891,vts_reward_expectancy,2022.2.4,Win32,60.09615385,Chrome,1280,720,,,,,10,1296,,,,,,,,,,,,,,,,,W,132,star,1,0,,,,,,,,,,,,,,,,repeat,number,numRpt,j,0.4156,Hi,,,,,,3,,,,,,,,high,25,0,25,0,1,,,,,,,,,
293599,2022-10-06_23h31.50.891,vts_reward_expectancy,2022.2.4,Win32,60.09615385,Chrome,1280,720,,,,,1,1297,,,,,,,,,,,,,,,,,U,125,hexagon,1,0,,,,,,,,,,,,,,,,repeat,number,numRpt,j,1.0467,Lo,,,,,,3,,,,,,,,high,26,0,26,0,1,,,,,,,,,
293599,2022-10-06_23h31.50.891,vts_reward_expectancy,2022.2.4,Win32,60.09615385,Chrome,1280,720,,,,,10,1307,,,,,,,,,,,,,,,,,H,160,star,1,0,,,,,,,,,,,,,,,,switch,letter,lettSwt,d,0.4998,Hi,,,,,,3,,,,,,,,high,27,0,27,0,1,,,,,,,,,
293599,2022-10-06_23h31.50.891,vts_reward_expectancy,2022.2.4,Win32,60.09615385,Chrome,1280,720,,,,,10,1317,,,,,,,,,,,,,,,,,F,174,hexagon,1,0,,,,,,,,,,,,,,,,repeat,letter,lettRpt,d,0.6324,Lo,,,,,,3,,,,,,,,high,28,0,28,0,1,,,,,,,,,
293599,2022-10-06_23h31.50.891,vts_reward_expectancy,2022.2.4,Win32,60.09615385,Chrome,1280,720,,,,,10,1327,,,,,,,,,,,,,,,,,D,181,star,1,0,,,,,,,,,,,,,,,,repeat,letter,lettRpt,d,0.4476,Hi,,,,,,3,,,,,,,,high,29,0,29,0,1,,,,,,,,,
293599,2022-10-06_23h31.50.891,vts_reward_expectancy,2022.2.4,Win32,60.09615385,Chrome,1280,720,,,,,10,1337,,,,,,,,,,,,,,,,,Y,167,star,1,0,,,,,,,,,,,,,,,,repeat,letter,lettRpt,f,0.4151,Hi,,,,,,3,,,,,,,,high,30,0,30,0,1,,,,,,,,,
293599,2022-10-06_23h31.50.891,vts_reward_expectancy,2022.2.4,Win32,60.09615385,Chrome,1280,720,,,,,1,1338,,,,,,,,,,,,,,,,,B,146,hexagon,1,0,,,,,,,,,,,,,,,,repeat,letter,lettRpt,d,0.4468,Lo,,,,,,3,,,,,,,,high,31,0,31,0,1,,,,,,,,,
293599,2022-10-06_23h31.50.891,vts_reward_expectancy,2022.2.4,Win32,60.09615385,Chrome,1280,720,,,,,1,1339,,,,,,,,,,,,,,,,,Y,139,triangle,1,0,,,,,,,,,,,,,,,,repeat,letter,lettRpt,f,0.5508,Lo,,,,,,4,,,,,,space,5.2174,low,0,0,0,0,1,,,,,,,,,
293599,2022-10-06_23h31.50.891,vts_reward_expectancy,2022.2.4,Win32,60.09615385,Chrome,1280,720,,,,,0,1339,,,,,,,,,,,,,,,,,U,181,circle,1,0,,,,,,,,,,,,,,,,repeat,letter,lettRpt,f,0.5975,Hi,,,,,,4,,,,,,,,low,1,0,1,0,1,,,,,,,,,
293599,2022-10-06_23h31.50.891,vts_reward_expectancy,2022.2.4,Win32,60.09615385,Chrome,1280,720,,,,,1,1340,,,,,,,,,,,,,,,,,S,132,triangle,1,0,,,,,,,,,,,,,,,,switch,number,numSwt,j,0.5467,Lo,,,,,,4,,,,,,,,low,2,0,2,0,1,,,,,,,,,
293599,2022-10-06_23h31.50.891,vts_reward_expectancy,2022.2.4,Win32,60.09615385,Chrome,1280,720,,,,,0,1340,,,,,,,,,,,,,,,,,F,146,circle,1,0,,,,,,,,,,,,,,,,repeat,number,numRpt,j,0.9477,Hi,,,,,,4,,,,,,,,low,3,0,3,0,1,,,,,,,,,
293599,2022-10-06_23h31.50.891,vts_reward_expectancy,2022.2.4,Win32,60.09615385,Chrome,1280,720,,,,,1,1341,,,,,,,,,,,,,,,,,H,125,triangle,1,0,,,,,,,,,,,,,,,,repeat,number,numRpt,j,0.5466,Lo,,,,,,4,,,,,,,,low,4,0,4,0,1,,,,,,,,,
293599,2022-10-06_23h31.50.891,vts_reward_expectancy,2022.2.4,Win32,60.09615385,Chrome,1280,720,,,,,10,1351,,,,,,,,,,,,,,,,,W,174,circle,1,0,,,,,,,,,,,,,,,,repeat,number,numRpt,k,0.4655,Hi,,,,,,4,,,,,,,,low,5,0,5,0,1,,,,,,,,,
293599,2022-10-06_23h31.50.891,vts_reward_expectancy,2022.2.4,Win32,60.09615385,Chrome,1280,720,,,,,10,1361,,,,,,,,,,,,,,,,,B,167,circle,1,0,,,,,,,,,,,,,,,,repeat,number,numRpt,k,0.4365,Hi,,,,,,4,,,,,,,,low,6,0,6,0,1,,,,,,,,,
293599,2022-10-06_23h31.50.891,vts_reward_expectancy,2022.2.4,Win32,60.09615385,Chrome,1280,720,,,,,10,1371,,,,,,,,,,,,,,,,,D,160,triangle,1,0,,,,,,,,,,,,,,,,switch,letter,lettSwt,d,0.5466,Lo,,,,,,4,,,,,,,,low,7,0,7,0,1,,,,,,,,,
293599,2022-10-06_23h31.50.891,vts_reward_expectancy,2022.2.4,Win32,60.09615385,Chrome,1280,720,,,,,1,1372,,,,,,,,,,,,,,,,,Y,139,circle,1,0,,,,,,,,,,,,,,,,repeat,letter,lettRpt,f,0.4476,Hi,,,,,,4,,,,,,,,low,8,0,8,0,1,,,,,,,,,
293599,2022-10-06_23h31.50.891,vts_reward_expectancy,2022.2.4,Win32,60.09615385,Chrome,1280,720,,,,,10,1382,,,,,,,,,,,,,,,,,U,181,triangle,1,0,,,,,,,,,,,,,,,,repeat,letter,lettRpt,f,0.529,Lo,,,,,,4,,,,,,,,low,9,0,9,0,1,,,,,,,,,
293599,2022-10-06_23h31.50.891,vts_reward_expectancy,2022.2.4,Win32,60.09615385,Chrome,1280,720,,,,,0,1382,,,,,,,,,,,,,,,,,S,132,circle,1,0,,,,,,,,,,,,,,,,repeat,letter,lettRpt,f,0.547,Hi,,,,,,4,,,,,,,,low,10,0,10,0,1,,,,,,,,,
293599,2022-10-06_23h31.50.891,vts_reward_expectancy,2022.2.4,Win32,60.09615385,Chrome,1280,720,,,,,1,1383,,,,,,,,,,,,,,,,,F,146,triangle,1,0,,,,,,,,,,,,,,,,switch,number,numSwt,j,0.6795,Lo,,,,,,4,,,,,,,,low,11,0,11,0,1,,,,,,,,,
293599,2022-10-06_23h31.50.891,vts_reward_expectancy,2022.2.4,Win32,60.09615385,Chrome,1280,720,,,,,10,1393,,,,,,,,,,,,,,,,,H,125,circle,1,0,,,,,,,,,,,,,,,,repeat,number,numRpt,j,0.4797,Hi,,,,,,4,,,,,,,,low,12,0,12,0,1,,,,,,,,,
293599,2022-10-06_23h31.50.891,vts_reward_expectancy,2022.2.4,Win32,60.09615385,Chrome,1280,720,,,,,10,1403,,,,,,,,,,,,,,,,,W,174,triangle,1,0,,,,,,,,,,,,,,,,repeat,number,numRpt,k,0.681,Lo,,,,,,4,,,,,,,,low,13,0,13,0,1,,,,,,,,,
293599,2022-10-06_23h31.50.891,vts_reward_expectancy,2022.2.4,Win32,60.09615385,Chrome,1280,720,,,,,0,1403,,,,,,,,,,,,,,,,,B,167,circle,1,0,,,,,,,,,,,,,,,,repeat,number,numRpt,k,0.6195,Hi,,,,,,4,,,,,,,,low,14,0,14,0,1,,,,,,,,,
293599,2022-10-06_23h31.50.891,vts_reward_expectancy,2022.2.4,Win32,60.09615385,Chrome,1280,720,,,,,1,1404,,,,,,,,,,,,,,,,,D,160,triangle,1,0,,,,,,,,,,,,,,,,repeat,number,numRpt,k,0.499,Lo,,,,,,4,,,,,,,,low,15,0,15,0,1,,,,,,,,,
293599,2022-10-06_23h31.50.891,vts_reward_expectancy,2022.2.4,Win32,60.09615385,Chrome,1280,720,,,,,0,1404,,,,,,,,,,,,,,,,,F,146,circle,0,0,,,,,,,,,,,,,,,,repeat,number,NA,k,0.4472,Lo,,,,,,4,,,,,,,,low,16,0,16,0,1,,,,,,,,,
293599,2022-10-06_23h31.50.891,vts_reward_expectancy,2022.2.4,Win32,60.09615385,Chrome,1280,720,,,,,1,1405,,,,,,,,,,,,,,,,,S,139,triangle,1,1,,,,,,,,,,,,,,,,repeat,number,numRpt,j,0.6138,Lo,,,,,,4,,,,,,,,low,17,0,17,0,1,,,,,,,,,
293599,2022-10-06_23h31.50.891,vts_reward_expectancy,2022.2.4,Win32,60.09615385,Chrome,1280,720,,,,,10,1415,,,,,,,,,,,,,,,,,U,160,triangle,1,0,,,,,,,,,,,,,,,,switch,letter,lettSwt,f,0.5305,Lo,,,,,,4,,,,,,,,low,18,0,18,0,1,,,,,,,,,
293599,2022-10-06_23h31.50.891,vts_reward_expectancy,2022.2.4,Win32,60.09615385,Chrome,1280,720,,,,,10,1425,,,,,,,,,,,,,,,,,B,174,circle,1,0,,,,,,,,,,,,,,,,repeat,letter,lettRpt,d,0.4306,Hi,,,,,,4,,,,,,,,low,19,0,19,0,1,,,,,,,,,
293599,2022-10-06_23h31.50.891,vts_reward_expectancy,2022.2.4,Win32,60.09615385,Chrome,1280,720,,,,,0,1425,,,,,,,,,,,,,,,,,W,132,circle,1,0,,,,,,,,,,,,,,,,repeat,letter,lettRpt,f,0.4981,Hi,,,,,,4,,,,,,,,low,20,0,20,0,1,,,,,,,,,
293599,2022-10-06_23h31.50.891,vts_reward_expectancy,2022.2.4,Win32,60.09615385,Chrome,1280,720,,,,,10,1435,,,,,,,,,,,,,,,,,Y,125,triangle,1,0,,,,,,,,,,,,,,,,repeat,letter,lettRpt,f,0.5687,Lo,,,,,,4,,,,,,,,low,21,0,21,0,1,,,,,,,,,
293599,2022-10-06_23h31.50.891,vts_reward_expectancy,2022.2.4,Win32,60.09615385,Chrome,1280,720,,,,,10,1445,,,,,,,,,,,,,,,,,D,181,triangle,1,0,,,,,,,,,,,,,,,,repeat,letter,lettRpt,d,0.4195,Lo,,,,,,4,,,,,,,,low,22,0,22,0,1,,,,,,,,,
293599,2022-10-06_23h31.50.891,vts_reward_expectancy,2022.2.4,Win32,60.09615385,Chrome,1280,720,,,,,0,1445,,,,,,,,,,,,,,,,,H,167,circle,1,0,,,,,,,,,,,,,,,,switch,number,numSwt,k,0.6284,Hi,,,,,,4,,,,,,,,low,23,0,23,0,1,,,,,,,,,
293599,2022-10-06_23h31.50.891,vts_reward_expectancy,2022.2.4,Win32,60.09615385,Chrome,1280,720,,,,,0,1445,,,,,,,,,,,,,,,,,U,132,circle,1,0,,,,,,,,,,,,,,,,repeat,number,numRpt,j,0.5464,Hi,,,,,,4,,,,,,,,low,24,0,24,0,1,,,,,,,,,
293599,2022-10-06_23h31.50.891,vts_reward_expectancy,2022.2.4,Win32,60.09615385,Chrome,1280,720,,,,,10,1455,,,,,,,,,,,,,,,,,H,146,triangle,1,0,,,,,,,,,,,,,,,,repeat,number,numRpt,j,0.7527,Lo,,,,,,4,,,,,,,,low,25,0,25,0,1,,,,,,,,,
293599,2022-10-06_23h31.50.891,vts_reward_expectancy,2022.2.4,Win32,60.09615385,Chrome,1280,720,,,,,10,1465,,,,,,,,,,,,,,,,,S,139,circle,1,0,,,,,,,,,,,,,,,,repeat,number,numRpt,j,0.4133,Hi,,,,,,4,,,,,,,,low,26,0,26,0,1,,,,,,,,,
293599,2022-10-06_23h31.50.891,vts_reward_expectancy,2022.2.4,Win32,60.09615385,Chrome,1280,720,,,,,1,1466,,,,,,,,,,,,,,,,,F,160,triangle,1,0,,,,,,,,,,,,,,,,repeat,number,numRpt,k,0.4329,Lo,,,,,,4,,,,,,,,low,27,0,27,0,1,,,,,,,,,
293599,2022-10-06_23h31.50.891,vts_reward_expectancy,2022.2.4,Win32,60.09615385,Chrome,1280,720,,,,,1,1467,,,,,,,,,,,,,,,,,W,167,triangle,1,0,,,,,,,,,,,,,,,,repeat,number,numRpt,k,1.0964,Lo,,,,,,4,,,,,,,,low,28,0,28,0,1,,,,,,,,,
293599,2022-10-06_23h31.50.891,vts_reward_expectancy,2022.2.4,Win32,60.09615385,Chrome,1280,720,,,,,0,1467,,,,,,,,,,,,,,,,,B,125,circle,1,0,,,,,,,,,,,,,,,,repeat,number,numRpt,j,0.5808,Hi,,,,,,4,,,,,,,,low,29,0,29,0,1,,,,,,,,,
293599,2022-10-06_23h31.50.891,vts_reward_expectancy,2022.2.4,Win32,60.09615385,Chrome,1280,720,,,,,0,1467,,,,,,,,,,,,,,,,,D,181,circle,1,0,,,,,,,,,,,,,,,,switch,letter,lettSwt,d,0.6178,Hi,,,,,,4,,,,,,,,low,30,0,30,0,1,,,,,,,,,
293599,2022-10-06_23h31.50.891,vts_reward_expectancy,2022.2.4,Win32,60.09615385,Chrome,1280,720,,,,,1,1468,,,,,,,,,,,,,,,,,Y,174,triangle,1,0,,,,,,,,,,,,,,,,repeat,letter,lettRpt,f,0.7994,Lo,,,,,,4,,,,,,,,low,31,0,31,0,1,,,,,,,,,
293599,2022-10-06_23h31.50.891,vts_reward_expectancy,2022.2.4,Win32,60.09615385,Chrome,1280,720,,,,,10,1478,,,,,,,,,,,,,,,,,Y,167,circle,1,0,,,,,,,,,,,,,,,,switch,number,numSwt,k,0.5474,Hi,,,,,,5,,,,,,space,0.8727,low,0,0,0,0,1,,,,,,,,,
293599,2022-10-06_23h31.50.891,vts_reward_expectancy,2022.2.4,Win32,60.09615385,Chrome,1280,720,,,,,1,1479,,,,,,,,,,,,,,,,,F,139,triangle,1,0,,,,,,,,,,,,,,,,repeat,number,numRpt,j,0.6995,Lo,,,,,,5,,,,,,,,low,1,0,1,0,1,,,,,,,,,
293599,2022-10-06_23h31.50.891,vts_reward_expectancy,2022.2.4,Win32,60.09615385,Chrome,1280,720,,,,,0,1479,,,,,,,,,,,,,,,,,U,181,circle,1,0,,,,,,,,,,,,,,,,repeat,number,numRpt,k,0.5,Hi,,,,,,5,,,,,,,,low,2,0,2,0,1,,,,,,,,,
293599,2022-10-06_23h31.50.891,vts_reward_expectancy,2022.2.4,Win32,60.09615385,Chrome,1280,720,,,,,10,1489,,,,,,,,,,,,,,,,,B,174,triangle,1,0,,,,,,,,,,,,,,,,repeat,number,numRpt,k,0.6807,Lo,,,,,,5,,,,,,,,low,3,0,3,0,1,,,,,,,,,
293599,2022-10-06_23h31.50.891,vts_reward_expectancy,2022.2.4,Win32,60.09615385,Chrome,1280,720,,,,,0,1489,,,,,,,,,,,,,,,,,W,125,circle,1,0,,,,,,,,,,,,,,,,repeat,number,numRpt,j,0.7139,Hi,,,,,,5,,,,,,,,low,4,0,4,0,1,,,,,,,,,
293599,2022-10-06_23h31.50.891,vts_reward_expectancy,2022.2.4,Win32,60.09615385,Chrome,1280,720,,,,,1,1490,,,,,,,,,,,,,,,,,S,160,triangle,1,0,,,,,,,,,,,,,,,,repeat,number,numRpt,k,0.7528,Lo,,,,,,5,,,,,,,,low,5,0,5,0,1,,,,,,,,,
293599,2022-10-06_23h31.50.891,vts_reward_expectancy,2022.2.4,Win32,60.09615385,Chrome,1280,720,,,,,1,1491,,,,,,,,,,,,,,,,,H,146,triangle,1,0,,,,,,,,,,,,,,,,repeat,number,numRpt,j,0.9984,Lo,,,,,,5,,,,,,,,low,6,0,6,0,1,,,,,,,,,
293599,2022-10-06_23h31.50.891,vts_reward_expectancy,2022.2.4,Win32,60.09615385,Chrome,1280,720,,,,,0,1491,,,,,,,,,,,,,,,,,D,132,circle,1,0,,,,,,,,,,,,,,,,repeat,number,numRpt,j,0.8626,Hi,,,,,,5,,,,,,,,low,7,0,7,0,1,,,,,,,,,
293599,2022-10-06_23h31.50.891,vts_reward_expectancy,2022.2.4,Win32,60.09615385,Chrome,1280,720,,,,,1,1492,,,,,,,,,,,,,,,,,Y,167,triangle,1,0,,,,,,,,,,,,,,,,switch,letter,lettSwt,f,1.1474,Lo,,,,,,5,,,,,,,,low,8,0,8,0,1,,,,,,,,,
293599,2022-10-06_23h31.50.891,vts_reward_expectancy,2022.2.4,Win32,60.09615385,Chrome,1280,720,,,,,0,1492,,,,,,,,,,,,,,,,,F,139,circle,1,0,,,,,,,,,,,,,,,,switch,number,numSwt,j,0.7346,Hi,,,,,,5,,,,,,,,low,9,0,9,0,1,,,,,,,,,
293599,2022-10-06_23h31.50.891,vts_reward_expectancy,2022.2.4,Win32,60.09615385,Chrome,1280,720,,,,,1,1493,,,,,,,,,,,,,,,,,U,181,triangle,1,0,,,,,,,,,,,,,,,,switch,letter,lettSwt,f,0.5277,Lo,,,,,,5,,,,,,,,low,10,0,10,0,1,,,,,,,,,
293599,2022-10-06_23h31.50.891,vts_reward_expectancy,2022.2.4,Win32,60.09615385,Chrome,1280,720,,,,,0,1493,,,,,,,,,,,,,,,,,B,174,circle,1,0,,,,,,,,,,,,,,,,repeat,letter,lettRpt,d,0.5464,Hi,,,,,,5,,,,,,,,low,11,0,11,0,1,,,,,,,,,
293599,2022-10-06_23h31.50.891,vts_reward_expectancy,2022.2.4,Win32,60.09615385,Chrome,1280,720,,,,,1,1494,,,,,,,,,,,,,,,,,W,125,triangle,1,0,,,,,,,,,,,,,,,,repeat,letter,lettRpt,f,0.5637,Lo,,,,,,5,,,,,,,,low,12,0,12,0,1,,,,,,,,,
293599,2022-10-06_23h31.50.891,vts_reward_expectancy,2022.2.4,Win32,60.09615385,Chrome,1280,720,,,,,0,1494,,,,,,,,,,,,,,,,,S,160,circle,1,0,,,,,,,,,,,,,,,,repeat,letter,lettRpt,f,0.5362,Hi,,,,,,5,,,,,,,,low,13,0,13,0,1,,,,,,,,,
293599,2022-10-06_23h31.50.891,vts_reward_expectancy,2022.2.4,Win32,60.09615385,Chrome,1280,720,,,,,0,1494,,,,,,,,,,,,,,,,,H,146,circle,1,0,,,,,,,,,,,,,,,,repeat,letter,lettRpt,d,0.6542,Hi,,,,,,5,,,,,,,,low,14,0,14,0,1,,,,,,,,,
293599,2022-10-06_23h31.50.891,vts_reward_expectancy,2022.2.4,Win32,60.09615385,Chrome,1280,720,,,,,10,1504,,,,,,,,,,,,,,,,,D,132,triangle,1,0,,,,,,,,,,,,,,,,repeat,letter,lettRpt,d,1.0342,Lo,,,,,,5,,,,,,,,low,15,0,15,0,1,,,,,,,,,
293599,2022-10-06_23h31.50.891,vts_reward_expectancy,2022.2.4,Win32,60.09615385,Chrome,1280,720,,,,,10,1514,,,,,,,,,,,,,,,,,W,139,triangle,1,0,,,,,,,,,,,,,,,,repeat,letter,lettRpt,f,0.6028,Lo,,,,,,5,,,,,,,,low,16,0,16,0,1,,,,,,,,,
293599,2022-10-06_23h31.50.891,vts_reward_expectancy,2022.2.4,Win32,60.09615385,Chrome,1280,720,,,,,10,1524,,,,,,,,,,,,,,,,,H,181,circle,1,0,,,,,,,,,,,,,,,,switch,number,numSwt,k,0.4698,Hi,,,,,,5,,,,,,,,low,17,0,17,0,1,,,,,,,,,
293599,2022-10-06_23h31.50.891,vts_reward_expectancy,2022.2.4,Win32,60.09615385,Chrome,1280,720,,,,,1,1525,,,,,,,,,,,,,,,,,Y,125,triangle,1,0,,,,,,,,,,,,,,,,repeat,number,numRpt,j,0.6966,Lo,,,,,,5,,,,,,,,low,18,0,18,0,1,,,,,,,,,
293599,2022-10-06_23h31.50.891,vts_reward_expectancy,2022.2.4,Win32,60.09615385,Chrome,1280,720,,,,,0,1525,,,,,,,,,,,,,,,,,F,132,circle,1,0,,,,,,,,,,,,,,,,repeat,number,numRpt,j,0.6792,Hi,,,,,,5,,,,,,,,low,19,0,19,0,1,,,,,,,,,
293599,2022-10-06_23h31.50.891,vts_reward_expectancy,2022.2.4,Win32,60.09615385,Chrome,1280,720,,,,,0,1525,,,,,,,,,,,,,,,,,B,167,circle,1,0,,,,,,,,,,,,,,,,repeat,number,numRpt,k,0.7286,Hi,,,,,,5,,,,,,,,low,20,0,20,0,1,,,,,,,,,
293599,2022-10-06_23h31.50.891,vts_reward_expectancy,2022.2.4,Win32,60.09615385,Chrome,1280,720,,,,,1,1526,,,,,,,,,,,,,,,,,U,146,triangle,1,0,,,,,,,,,,,,,,,,repeat,number,numRpt,j,0.5882,Lo,,,,,,5,,,,,,,,low,21,0,21,0,1,,,,,,,,,
293599,2022-10-06_23h31.50.891,vts_reward_expectancy,2022.2.4,Win32,60.09615385,Chrome,1280,720,,,,,1,1527,,,,,,,,,,,,,,,,,S,160,circle,1,0,,,,,,,,,,,,,,,,switch,letter,lettSwt,f,0.465,Hi,,,,,,5,,,,,,,,low,22,0,22,0,1,,,,,,,,,
293599,2022-10-06_23h31.50.891,vts_reward_expectancy,2022.2.4,Win32,60.09615385,Chrome,1280,720,,,,,1,1528,,,,,,,,,,,,,,,,,D,174,triangle,1,0,,,,,,,,,,,,,,,,repeat,letter,lettRpt,d,0.4983,Lo,,,,,,5,,,,,,,,low,23,0,23,0,1,,,,,,,,,
293599,2022-10-06_23h31.50.891,vts_reward_expectancy,2022.2.4,Win32,60.09615385,Chrome,1280,720,,,,,0,1528,,,,,,,,,,,,,,,,,D,181,circle,1,0,,,,,,,,,,,,,,,,repeat,letter,lettRpt,d,0.4998,Hi,,,,,,5,,,,,,,,low,24,0,24,0,1,,,,,,,,,
293599,2022-10-06_23h31.50.891,vts_reward_expectancy,2022.2.4,Win32,60.09615385,Chrome,1280,720,,,,,1,1529,,,,,,,,,,,,,,,,,B,160,triangle,1,0,,,,,,,,,,,,,,,,repeat,letter,lettRpt,d,0.4832,Lo,,,,,,5,,,,,,,,low,25,0,25,0,1,,,,,,,,,
293599,2022-10-06_23h31.50.891,vts_reward_expectancy,2022.2.4,Win32,60.09615385,Chrome,1280,720,,,,,0,1529,,,,,,,,,,,,,,,,,U,125,circle,1,0,,,,,,,,,,,,,,,,repeat,letter,lettRpt,f,0.4979,Hi,,,,,,5,,,,,,,,low,26,0,26,0,1,,,,,,,,,
293599,2022-10-06_23h31.50.891,vts_reward_expectancy,2022.2.4,Win32,60.09615385,Chrome,1280,720,,,,,1,1530,,,,,,,,,,,,,,,,,W,132,triangle,1,0,,,,,,,,,,,,,,,,repeat,letter,lettRpt,f,0.5948,Lo,,,,,,5,,,,,,,,low,27,0,27,0,1,,,,,,,,,
293599,2022-10-06_23h31.50.891,vts_reward_expectancy,2022.2.4,Win32,60.09615385,Chrome,1280,720,,,,,10,1540,,,,,,,,,,,,,,,,,Y,146,triangle,1,0,,,,,,,,,,,,,,,,switch,number,numSwt,j,0.5471,Lo,,,,,,5,,,,,,,,low,28,0,28,0,1,,,,,,,,,
293599,2022-10-06_23h31.50.891,vts_reward_expectancy,2022.2.4,Win32,60.09615385,Chrome,1280,720,,,,,0,1540,,,,,,,,,,,,,,,,,S,167,circle,1,0,,,,,,,,,,,,,,,,repeat,number,numRpt,k,0.7625,Hi,,,,,,5,,,,,,,,low,29,0,29,0,1,,,,,,,,,
293599,2022-10-06_23h31.50.891,vts_reward_expectancy,2022.2.4,Win32,60.09615385,Chrome,1280,720,,,,,0,1540,,,,,,,,,,,,,,,,,H,174,circle,1,0,,,,,,,,,,,,,,,,repeat,number,numRpt,k,0.531,Hi,,,,,,5,,,,,,,,low,30,0,30,0,1,,,,,,,,,
293599,2022-10-06_23h31.50.891,vts_reward_expectancy,2022.2.4,Win32,60.09615385,Chrome,1280,720,,,,,0,1540,,,,,,,,,,,,,,,,,F,139,triangle,0,0,,,,,,,,,,,,,,,,repeat,number,NA,k,0.5161,Hi,,,,,,5,,,,,,,,low,31,0,31,0,1,,,,,,,,,
293599,2022-10-06_23h31.50.891,vts_reward_expectancy,2022.2.4,Win32,60.09615385,Chrome,1280,720,,,,,,,,,,,,,,,,,,,,,,,,,,,,,,,,,,,,,,,,,,,,,,,,,,,,,,6,,,,,,,,,,,,,,"determine the values of random shapes, numbers, and letters depending on the circumstance.",1,,5,3,,2,1280,720
