participant,date,expName,psychopyVersion,OS,frameRate,browser,xResolution,yResolution,key_resp.keys,key_resp.rt,training_resp.keys,training_resp.rt,points_trial,points_cumul,trainBlock,training.thisRepN,training.thisTrialN,training.thisN,training.thisIndex,training.ran,LTriangleOpac,LCircleOpac,LHexagonOpac,LStarOpac,RTriangleOpac,RCircleOpac,RHexagonOpac,RStarOpac,LShape_ID,RShape_ID,curr_topStim,curr_bottStim,curr_shape,acc,E1,target_resp_prac1.keys,target_resp_prac1.rt,pracBlock,task1_prac_trials.thisRepN,task1_prac_trials.thisTrialN,task1_prac_trials.thisN,task1_prac_trials.thisIndex,task1_prac_trials.ran,target_resp_prac2.keys,target_resp_prac2.rt,task2_praac_trials.thisRepN,task2_praac_trials.thisTrialN,task2_praac_trials.thisN,task2_praac_trials.thisIndex,task2_praac_trials.ran,alt,task,condition,target_resp.keys,rewCond,vts_practice_trials.thisRepN,vts_practice_trials.thisTrialN,vts_practice_trials.thisN,vts_practice_trials.thisIndex,vts_practice_trials.ran,target_resp.rt,blockNum,trials_norew.thisRepN,trials_norew.thisTrialN,trials_norew.thisN,trials_norew.thisIndex,trials_norew.ran,key_resp_2.keys,key_resp_2.rt,rewExpect,trials_rew.thisRepN,trials_rew.thisTrialN,trials_rew.thisN,trials_rew.thisIndex,trials_rew.ran,Q1,Q2,Q2_text,Q3,Q4,Q5_text,Q5,xRes,yRes
296047,2022-10-05_13h17.15.749,vts_reward_expectancy,2022.2.4,MacIntel,60.0024001,Chrome,1440,900,,,,,,,,,,,,,,,,,,,,,,,,,,,,,,,,,,,,,,,,,,,,,,,,,,,,,,,,,,,,,,,,,,,,,,,,,,,,
296047,2022-10-05_13h17.15.749,vts_reward_expectancy,2022.2.4,MacIntel,60.0024001,Chrome,1440,900,space,22.6404,,,,,,,,,,,,,,,,,,,,,,,,,,,,,,,,,,,,,,,,,,,,,,,,,,,,,,,,,,,,,,,,,,,,,,,,,,
296047,2022-10-05_13h17.15.749,vts_reward_expectancy,2022.2.4,MacIntel,60.0024001,Chrome,1440,900,,,,,,,,,,,,,,,,,,,,,,,,,,,,,,,,,,,,,,,,,,,,,,,,,,,,,,,,,,,,,,,,,,,,,,,,,,,,
296047,2022-10-05_13h17.15.749,vts_reward_expectancy,2022.2.4,MacIntel,60.0024001,Chrome,1440,900,,,l,1.5182,1,1,0,0,0,0,9,1,0,0,0,1,1,0,0,0,star,triangle,,,,,,,,,,,,,,,,,,,,,,,,,,,,,,,,,,,,,,,,,,,,,,,,,,,,,,
296047,2022-10-05_13h17.15.749,vts_reward_expectancy,2022.2.4,MacIntel,60.0024001,Chrome,1440,900,,,a,1.1149,1,2,0,0,1,1,11,1,0,0,0,1,0,0,1,0,star,hexagon,,,,,,,,,,,,,,,,,,,,,,,,,,,,,,,,,,,,,,,,,,,,,,,,,,,,,,
296047,2022-10-05_13h17.15.749,vts_reward_expectancy,2022.2.4,MacIntel,60.0024001,Chrome,1440,900,,,a,0.7828,1,3,0,0,2,2,2,1,1,0,0,0,0,0,0,1,triangle,star,,,,,,,,,,,,,,,,,,,,,,,,,,,,,,,,,,,,,,,,,,,,,,,,,,,,,,
296047,2022-10-05_13h17.15.749,vts_reward_expectancy,2022.2.4,MacIntel,60.0024001,Chrome,1440,900,,,l,0.65,1,4,0,0,3,3,8,1,0,0,1,0,0,0,0,1,hexagon,star,,,,,,,,,,,,,,,,,,,,,,,,,,,,,,,,,,,,,,,,,,,,,,,,,,,,,,
296047,2022-10-05_13h17.15.749,vts_reward_expectancy,2022.2.4,MacIntel,60.0024001,Chrome,1440,900,,,a,0.6989,1,5,0,0,4,4,1,1,1,0,0,0,0,0,1,0,triangle,hexagon,,,,,,,,,,,,,,,,,,,,,,,,,,,,,,,,,,,,,,,,,,,,,,,,,,,,,,
296047,2022-10-05_13h17.15.749,vts_reward_expectancy,2022.2.4,MacIntel,60.0024001,Chrome,1440,900,,,l,0.4663,10,15,0,0,5,5,5,1,0,1,0,0,0,0,0,1,circle,star,,,,,,,,,,,,,,,,,,,,,,,,,,,,,,,,,,,,,,,,,,,,,,,,,,,,,,
296047,2022-10-05_13h17.15.749,vts_reward_expectancy,2022.2.4,MacIntel,60.0024001,Chrome,1440,900,,,l,0.4158,1,16,0,0,6,6,3,1,0,1,0,0,1,0,0,0,circle,triangle,,,,,,,,,,,,,,,,,,,,,,,,,,,,,,,,,,,,,,,,,,,,,,,,,,,,,,
296047,2022-10-05_13h17.15.749,vts_reward_expectancy,2022.2.4,MacIntel,60.0024001,Chrome,1440,900,,,a,0.3574,10,26,0,0,7,7,6,1,0,0,1,0,1,0,0,0,hexagon,triangle,,,,,,,,,,,,,,,,,,,,,,,,,,,,,,,,,,,,,,,,,,,,,,,,,,,,,,
296047,2022-10-05_13h17.15.749,vts_reward_expectancy,2022.2.4,MacIntel,60.0024001,Chrome,1440,900,,,a,0.2998,10,36,0,0,8,8,7,1,0,0,1,0,0,1,0,0,hexagon,circle,,,,,,,,,,,,,,,,,,,,,,,,,,,,,,,,,,,,,,,,,,,,,,,,,,,,,,
296047,2022-10-05_13h17.15.749,vts_reward_expectancy,2022.2.4,MacIntel,60.0024001,Chrome,1440,900,,,l,0.6176,10,46,0,0,9,9,4,1,0,1,0,0,0,0,1,0,circle,hexagon,,,,,,,,,,,,,,,,,,,,,,,,,,,,,,,,,,,,,,,,,,,,,,,,,,,,,,
296047,2022-10-05_13h17.15.749,vts_reward_expectancy,2022.2.4,MacIntel,60.0024001,Chrome,1440,900,,,l,0.503,1,47,0,0,10,10,0,1,1,0,0,0,0,1,0,0,triangle,circle,,,,,,,,,,,,,,,,,,,,,,,,,,,,,,,,,,,,,,,,,,,,,,,,,,,,,,
296047,2022-10-05_13h17.15.749,vts_reward_expectancy,2022.2.4,MacIntel,60.0024001,Chrome,1440,900,,,a,0.3846,1,48,0,0,11,11,10,1,0,0,0,1,0,1,0,0,star ,circle,,,,,,,,,,,,,,,,,,,,,,,,,,,,,,,,,,,,,,,,,,,,,,,,,,,,,,
296047,2022-10-05_13h17.15.749,vts_reward_expectancy,2022.2.4,MacIntel,60.0024001,Chrome,1440,900,,,a,0.3489,1,49,0,1,0,12,1,1,1,0,0,0,0,0,1,0,triangle,hexagon,,,,,,,,,,,,,,,,,,,,,,,,,,,,,,,,,,,,,,,,,,,,,,,,,,,,,,
296047,2022-10-05_13h17.15.749,vts_reward_expectancy,2022.2.4,MacIntel,60.0024001,Chrome,1440,900,,,l,0.3819,1,50,0,1,1,13,7,1,0,0,1,0,0,1,0,0,hexagon,circle,,,,,,,,,,,,,,,,,,,,,,,,,,,,,,,,,,,,,,,,,,,,,,,,,,,,,,
296047,2022-10-05_13h17.15.749,vts_reward_expectancy,2022.2.4,MacIntel,60.0024001,Chrome,1440,900,,,a,0.3501,10,60,0,1,2,14,4,1,0,1,0,0,0,0,1,0,circle,hexagon,,,,,,,,,,,,,,,,,,,,,,,,,,,,,,,,,,,,,,,,,,,,,,,,,,,,,,
296047,2022-10-05_13h17.15.749,vts_reward_expectancy,2022.2.4,MacIntel,60.0024001,Chrome,1440,900,,,a,0.365,1,61,0,1,3,15,9,1,0,0,0,1,1,0,0,0,star,triangle,,,,,,,,,,,,,,,,,,,,,,,,,,,,,,,,,,,,,,,,,,,,,,,,,,,,,,
296047,2022-10-05_13h17.15.749,vts_reward_expectancy,2022.2.4,MacIntel,60.0024001,Chrome,1440,900,,,l,0.3159,10,71,0,1,4,16,8,1,0,0,1,0,0,0,0,1,hexagon,star,,,,,,,,,,,,,,,,,,,,,,,,,,,,,,,,,,,,,,,,,,,,,,,,,,,,,,
296047,2022-10-05_13h17.15.749,vts_reward_expectancy,2022.2.4,MacIntel,60.0024001,Chrome,1440,900,,,l,0.3832,10,81,0,1,5,17,5,1,0,1,0,0,0,0,0,1,circle,star,,,,,,,,,,,,,,,,,,,,,,,,,,,,,,,,,,,,,,,,,,,,,,,,,,,,,,
296047,2022-10-05_13h17.15.749,vts_reward_expectancy,2022.2.4,MacIntel,60.0024001,Chrome,1440,900,,,a,0.3985,1,82,0,1,6,18,11,1,0,0,0,1,0,0,1,0,star,hexagon,,,,,,,,,,,,,,,,,,,,,,,,,,,,,,,,,,,,,,,,,,,,,,,,,,,,,,
296047,2022-10-05_13h17.15.749,vts_reward_expectancy,2022.2.4,MacIntel,60.0024001,Chrome,1440,900,,,l,0.3074,1,83,0,1,7,19,2,1,1,0,0,0,0,0,0,1,triangle,star,,,,,,,,,,,,,,,,,,,,,,,,,,,,,,,,,,,,,,,,,,,,,,,,,,,,,,
296047,2022-10-05_13h17.15.749,vts_reward_expectancy,2022.2.4,MacIntel,60.0024001,Chrome,1440,900,,,a,0.4829,1,84,0,1,8,20,10,1,0,0,0,1,0,1,0,0,star ,circle,,,,,,,,,,,,,,,,,,,,,,,,,,,,,,,,,,,,,,,,,,,,,,,,,,,,,,
296047,2022-10-05_13h17.15.749,vts_reward_expectancy,2022.2.4,MacIntel,60.0024001,Chrome,1440,900,,,l,0.5573,1,85,0,1,9,21,0,1,1,0,0,0,0,1,0,0,triangle,circle,,,,,,,,,,,,,,,,,,,,,,,,,,,,,,,,,,,,,,,,,,,,,,,,,,,,,,
296047,2022-10-05_13h17.15.749,vts_reward_expectancy,2022.2.4,MacIntel,60.0024001,Chrome,1440,900,,,a,0.4496,10,95,0,1,10,22,6,1,0,0,1,0,1,0,0,0,hexagon,triangle,,,,,,,,,,,,,,,,,,,,,,,,,,,,,,,,,,,,,,,,,,,,,,,,,,,,,,
296047,2022-10-05_13h17.15.749,vts_reward_expectancy,2022.2.4,MacIntel,60.0024001,Chrome,1440,900,,,a,0.5656,1,96,0,1,11,23,3,1,0,1,0,0,1,0,0,0,circle,triangle,,,,,,,,,,,,,,,,,,,,,,,,,,,,,,,,,,,,,,,,,,,,,,,,,,,,,,
296047,2022-10-05_13h17.15.749,vts_reward_expectancy,2022.2.4,MacIntel,60.0024001,Chrome,1440,900,,,a,1.0828,10,106,0,2,0,24,6,1,0,0,1,0,1,0,0,0,hexagon,triangle,,,,,,,,,,,,,,,,,,,,,,,,,,,,,,,,,,,,,,,,,,,,,,,,,,,,,,
296047,2022-10-05_13h17.15.749,vts_reward_expectancy,2022.2.4,MacIntel,60.0024001,Chrome,1440,900,,,l,0.6811,1,107,0,2,1,25,4,1,0,1,0,0,0,0,1,0,circle,hexagon,,,,,,,,,,,,,,,,,,,,,,,,,,,,,,,,,,,,,,,,,,,,,,,,,,,,,,
296047,2022-10-05_13h17.15.749,vts_reward_expectancy,2022.2.4,MacIntel,60.0024001,Chrome,1440,900,,,l,0.648,1,108,0,2,2,26,10,1,0,0,0,1,0,1,0,0,star ,circle,,,,,,,,,,,,,,,,,,,,,,,,,,,,,,,,,,,,,,,,,,,,,,,,,,,,,,
296047,2022-10-05_13h17.15.749,vts_reward_expectancy,2022.2.4,MacIntel,60.0024001,Chrome,1440,900,,,a,0.3845,1,109,0,2,3,27,3,1,0,1,0,0,1,0,0,0,circle,triangle,,,,,,,,,,,,,,,,,,,,,,,,,,,,,,,,,,,,,,,,,,,,,,,,,,,,,,
296047,2022-10-05_13h17.15.749,vts_reward_expectancy,2022.2.4,MacIntel,60.0024001,Chrome,1440,900,,,l,0.3524,10,119,0,2,4,28,1,1,1,0,0,0,0,0,1,0,triangle,hexagon,,,,,,,,,,,,,,,,,,,,,,,,,,,,,,,,,,,,,,,,,,,,,,,,,,,,,,
296047,2022-10-05_13h17.15.749,vts_reward_expectancy,2022.2.4,MacIntel,60.0024001,Chrome,1440,900,,,l,0.6503,10,129,0,2,5,29,9,1,0,0,0,1,1,0,0,0,star,triangle,,,,,,,,,,,,,,,,,,,,,,,,,,,,,,,,,,,,,,,,,,,,,,,,,,,,,,
296047,2022-10-05_13h17.15.749,vts_reward_expectancy,2022.2.4,MacIntel,60.0024001,Chrome,1440,900,,,l,0.568,1,130,0,2,6,30,5,1,0,1,0,0,0,0,0,1,circle,star,,,,,,,,,,,,,,,,,,,,,,,,,,,,,,,,,,,,,,,,,,,,,,,,,,,,,,
296047,2022-10-05_13h17.15.749,vts_reward_expectancy,2022.2.4,MacIntel,60.0024001,Chrome,1440,900,,,a,0.7517,10,140,0,2,7,31,8,1,0,0,1,0,0,0,0,1,hexagon,star,,,,,,,,,,,,,,,,,,,,,,,,,,,,,,,,,,,,,,,,,,,,,,,,,,,,,,
296047,2022-10-05_13h17.15.749,vts_reward_expectancy,2022.2.4,MacIntel,60.0024001,Chrome,1440,900,,,l,0.9325,10,150,0,2,8,32,0,1,1,0,0,0,0,1,0,0,triangle,circle,,,,,,,,,,,,,,,,,,,,,,,,,,,,,,,,,,,,,,,,,,,,,,,,,,,,,,
296047,2022-10-05_13h17.15.749,vts_reward_expectancy,2022.2.4,MacIntel,60.0024001,Chrome,1440,900,,,a,0.6909,1,151,0,2,9,33,11,1,0,0,0,1,0,0,1,0,star,hexagon,,,,,,,,,,,,,,,,,,,,,,,,,,,,,,,,,,,,,,,,,,,,,,,,,,,,,,
296047,2022-10-05_13h17.15.749,vts_reward_expectancy,2022.2.4,MacIntel,60.0024001,Chrome,1440,900,,,a,1.5001,1,152,0,2,10,34,2,1,1,0,0,0,0,0,0,1,triangle,star,,,,,,,,,,,,,,,,,,,,,,,,,,,,,,,,,,,,,,,,,,,,,,,,,,,,,,
296047,2022-10-05_13h17.15.749,vts_reward_expectancy,2022.2.4,MacIntel,60.0024001,Chrome,1440,900,,,l,0.8489,1,153,0,2,11,35,7,1,0,0,1,0,0,1,0,0,hexagon,circle,,,,,,,,,,,,,,,,,,,,,,,,,,,,,,,,,,,,,,,,,,,,,,,,,,,,,,
296047,2022-10-05_13h17.15.749,vts_reward_expectancy,2022.2.4,MacIntel,60.0024001,Chrome,1440,900,,,a,1.1157,10,163,1,0,0,0,3,1,0,1,0,0,1,0,0,0,circle,triangle,,,,,,,,,,,,,,,,,,,,,,,,,,,,,,,,,,,,,,,,,,,,,,,,,,,,,,
296047,2022-10-05_13h17.15.749,vts_reward_expectancy,2022.2.4,MacIntel,60.0024001,Chrome,1440,900,,,l,1.0086,1,164,1,0,1,1,10,1,0,0,0,1,0,1,0,0,star ,circle,,,,,,,,,,,,,,,,,,,,,,,,,,,,,,,,,,,,,,,,,,,,,,,,,,,,,,
296047,2022-10-05_13h17.15.749,vts_reward_expectancy,2022.2.4,MacIntel,60.0024001,Chrome,1440,900,,,l,0.7319,1,165,1,0,2,2,9,1,0,0,0,1,1,0,0,0,star,triangle,,,,,,,,,,,,,,,,,,,,,,,,,,,,,,,,,,,,,,,,,,,,,,,,,,,,,,
296047,2022-10-05_13h17.15.749,vts_reward_expectancy,2022.2.4,MacIntel,60.0024001,Chrome,1440,900,,,a,0.5665,1,166,1,0,3,3,1,1,1,0,0,0,0,0,1,0,triangle,hexagon,,,,,,,,,,,,,,,,,,,,,,,,,,,,,,,,,,,,,,,,,,,,,,,,,,,,,,
296047,2022-10-05_13h17.15.749,vts_reward_expectancy,2022.2.4,MacIntel,60.0024001,Chrome,1440,900,,,l,0.3482,10,176,1,0,4,4,7,1,0,0,1,0,0,1,0,0,hexagon,circle,,,,,,,,,,,,,,,,,,,,,,,,,,,,,,,,,,,,,,,,,,,,,,,,,,,,,,
296047,2022-10-05_13h17.15.749,vts_reward_expectancy,2022.2.4,MacIntel,60.0024001,Chrome,1440,900,,,l,0.6169,1,177,1,0,5,5,0,1,1,0,0,0,0,1,0,0,triangle,circle,,,,,,,,,,,,,,,,,,,,,,,,,,,,,,,,,,,,,,,,,,,,,,,,,,,,,,
296047,2022-10-05_13h17.15.749,vts_reward_expectancy,2022.2.4,MacIntel,60.0024001,Chrome,1440,900,,,l,0.5814,10,187,1,0,6,6,5,1,0,1,0,0,0,0,0,1,circle,star,,,,,,,,,,,,,,,,,,,,,,,,,,,,,,,,,,,,,,,,,,,,,,,,,,,,,,
296047,2022-10-05_13h17.15.749,vts_reward_expectancy,2022.2.4,MacIntel,60.0024001,Chrome,1440,900,,,l,0.5342,10,197,1,0,7,7,11,1,0,0,0,1,0,0,1,0,star,hexagon,,,,,,,,,,,,,,,,,,,,,,,,,,,,,,,,,,,,,,,,,,,,,,,,,,,,,,
296047,2022-10-05_13h17.15.749,vts_reward_expectancy,2022.2.4,MacIntel,60.0024001,Chrome,1440,900,,,l,0.3832,10,207,1,0,8,8,4,1,0,1,0,0,0,0,1,0,circle,hexagon,,,,,,,,,,,,,,,,,,,,,,,,,,,,,,,,,,,,,,,,,,,,,,,,,,,,,,
296047,2022-10-05_13h17.15.749,vts_reward_expectancy,2022.2.4,MacIntel,60.0024001,Chrome,1440,900,,,l,0.3502,1,208,1,0,9,9,2,1,1,0,0,0,0,0,0,1,triangle,star,,,,,,,,,,,,,,,,,,,,,,,,,,,,,,,,,,,,,,,,,,,,,,,,,,,,,,
296047,2022-10-05_13h17.15.749,vts_reward_expectancy,2022.2.4,MacIntel,60.0024001,Chrome,1440,900,,,a,0.3063,10,218,1,0,10,10,8,1,0,0,1,0,0,0,0,1,hexagon,star,,,,,,,,,,,,,,,,,,,,,,,,,,,,,,,,,,,,,,,,,,,,,,,,,,,,,,
296047,2022-10-05_13h17.15.749,vts_reward_expectancy,2022.2.4,MacIntel,60.0024001,Chrome,1440,900,,,a,0.3987,10,228,1,0,11,11,6,1,0,0,1,0,1,0,0,0,hexagon,triangle,,,,,,,,,,,,,,,,,,,,,,,,,,,,,,,,,,,,,,,,,,,,,,,,,,,,,,
296047,2022-10-05_13h17.15.749,vts_reward_expectancy,2022.2.4,MacIntel,60.0024001,Chrome,1440,900,,,a,0.4201,1,229,1,1,0,12,3,1,0,1,0,0,1,0,0,0,circle,triangle,,,,,,,,,,,,,,,,,,,,,,,,,,,,,,,,,,,,,,,,,,,,,,,,,,,,,,
296047,2022-10-05_13h17.15.749,vts_reward_expectancy,2022.2.4,MacIntel,60.0024001,Chrome,1440,900,,,l,0.5896,1,230,1,1,1,13,9,1,0,0,0,1,1,0,0,0,star,triangle,,,,,,,,,,,,,,,,,,,,,,,,,,,,,,,,,,,,,,,,,,,,,,,,,,,,,,
296047,2022-10-05_13h17.15.749,vts_reward_expectancy,2022.2.4,MacIntel,60.0024001,Chrome,1440,900,,,l,0.3499,10,240,1,1,2,14,1,1,1,0,0,0,0,0,1,0,triangle,hexagon,,,,,,,,,,,,,,,,,,,,,,,,,,,,,,,,,,,,,,,,,,,,,,,,,,,,,,
296047,2022-10-05_13h17.15.749,vts_reward_expectancy,2022.2.4,MacIntel,60.0024001,Chrome,1440,900,,,l,0.3665,1,241,1,1,3,15,2,1,1,0,0,0,0,0,0,1,triangle,star,,,,,,,,,,,,,,,,,,,,,,,,,,,,,,,,,,,,,,,,,,,,,,,,,,,,,,
296047,2022-10-05_13h17.15.749,vts_reward_expectancy,2022.2.4,MacIntel,60.0024001,Chrome,1440,900,,,a,0.357,10,251,1,1,4,16,8,1,0,0,1,0,0,0,0,1,hexagon,star,,,,,,,,,,,,,,,,,,,,,,,,,,,,,,,,,,,,,,,,,,,,,,,,,,,,,,
296047,2022-10-05_13h17.15.749,vts_reward_expectancy,2022.2.4,MacIntel,60.0024001,Chrome,1440,900,,,a,0.484,1,252,1,1,5,17,0,1,1,0,0,0,0,1,0,0,triangle,circle,,,,,,,,,,,,,,,,,,,,,,,,,,,,,,,,,,,,,,,,,,,,,,,,,,,,,,
296047,2022-10-05_13h17.15.749,vts_reward_expectancy,2022.2.4,MacIntel,60.0024001,Chrome,1440,900,,,a,0.367,10,262,1,1,6,18,6,1,0,0,1,0,1,0,0,0,hexagon,triangle,,,,,,,,,,,,,,,,,,,,,,,,,,,,,,,,,,,,,,,,,,,,,,,,,,,,,,
296047,2022-10-05_13h17.15.749,vts_reward_expectancy,2022.2.4,MacIntel,60.0024001,Chrome,1440,900,,,l,0.5544,10,272,1,1,7,19,7,1,0,0,1,0,0,1,0,0,hexagon,circle,,,,,,,,,,,,,,,,,,,,,,,,,,,,,,,,,,,,,,,,,,,,,,,,,,,,,,
296047,2022-10-05_13h17.15.749,vts_reward_expectancy,2022.2.4,MacIntel,60.0024001,Chrome,1440,900,,,l,0.3888,1,273,1,1,8,20,10,1,0,0,0,1,0,1,0,0,star ,circle,,,,,,,,,,,,,,,,,,,,,,,,,,,,,,,,,,,,,,,,,,,,,,,,,,,,,,
296047,2022-10-05_13h17.15.749,vts_reward_expectancy,2022.2.4,MacIntel,60.0024001,Chrome,1440,900,,,a,0.3829,10,283,1,1,9,21,5,1,0,1,0,0,0,0,0,1,circle,star,,,,,,,,,,,,,,,,,,,,,,,,,,,,,,,,,,,,,,,,,,,,,,,,,,,,,,
296047,2022-10-05_13h17.15.749,vts_reward_expectancy,2022.2.4,MacIntel,60.0024001,Chrome,1440,900,,,a,0.6364,1,284,1,1,10,22,11,1,0,0,0,1,0,0,1,0,star,hexagon,,,,,,,,,,,,,,,,,,,,,,,,,,,,,,,,,,,,,,,,,,,,,,,,,,,,,,
296047,2022-10-05_13h17.15.749,vts_reward_expectancy,2022.2.4,MacIntel,60.0024001,Chrome,1440,900,,,l,0.5136,10,294,1,1,11,23,4,1,0,1,0,0,0,0,1,0,circle,hexagon,,,,,,,,,,,,,,,,,,,,,,,,,,,,,,,,,,,,,,,,,,,,,,,,,,,,,,
296047,2022-10-05_13h17.15.749,vts_reward_expectancy,2022.2.4,MacIntel,60.0024001,Chrome,1440,900,,,l,0.7993,10,304,1,2,0,24,4,1,0,1,0,0,0,0,1,0,circle,hexagon,,,,,,,,,,,,,,,,,,,,,,,,,,,,,,,,,,,,,,,,,,,,,,,,,,,,,,
296047,2022-10-05_13h17.15.749,vts_reward_expectancy,2022.2.4,MacIntel,60.0024001,Chrome,1440,900,,,a,0.6812,1,305,1,2,1,25,7,1,0,0,1,0,0,1,0,0,hexagon,circle,,,,,,,,,,,,,,,,,,,,,,,,,,,,,,,,,,,,,,,,,,,,,,,,,,,,,,
296047,2022-10-05_13h17.15.749,vts_reward_expectancy,2022.2.4,MacIntel,60.0024001,Chrome,1440,900,,,l,0.5665,10,315,1,2,2,26,11,1,0,0,0,1,0,0,1,0,star,hexagon,,,,,,,,,,,,,,,,,,,,,,,,,,,,,,,,,,,,,,,,,,,,,,,,,,,,,,
296047,2022-10-05_13h17.15.749,vts_reward_expectancy,2022.2.4,MacIntel,60.0024001,Chrome,1440,900,,,a,0.599,10,325,1,2,3,27,5,1,0,1,0,0,0,0,0,1,circle,star,,,,,,,,,,,,,,,,,,,,,,,,,,,,,,,,,,,,,,,,,,,,,,,,,,,,,,
296047,2022-10-05_13h17.15.749,vts_reward_expectancy,2022.2.4,MacIntel,60.0024001,Chrome,1440,900,,,l,0.8328,1,326,1,2,4,28,9,1,0,0,0,1,1,0,0,0,star,triangle,,,,,,,,,,,,,,,,,,,,,,,,,,,,,,,,,,,,,,,,,,,,,,,,,,,,,,
296047,2022-10-05_13h17.15.749,vts_reward_expectancy,2022.2.4,MacIntel,60.0024001,Chrome,1440,900,,,a,1.2231,10,336,1,2,5,29,8,1,0,0,1,0,0,0,0,1,hexagon,star,,,,,,,,,,,,,,,,,,,,,,,,,,,,,,,,,,,,,,,,,,,,,,,,,,,,,,
296047,2022-10-05_13h17.15.749,vts_reward_expectancy,2022.2.4,MacIntel,60.0024001,Chrome,1440,900,,,l,0.539,10,346,1,2,6,30,0,1,1,0,0,0,0,1,0,0,triangle,circle,,,,,,,,,,,,,,,,,,,,,,,,,,,,,,,,,,,,,,,,,,,,,,,,,,,,,,
296047,2022-10-05_13h17.15.749,vts_reward_expectancy,2022.2.4,MacIntel,60.0024001,Chrome,1440,900,,,a,0.5162,10,356,1,2,7,31,3,1,0,1,0,0,1,0,0,0,circle,triangle,,,,,,,,,,,,,,,,,,,,,,,,,,,,,,,,,,,,,,,,,,,,,,,,,,,,,,
296047,2022-10-05_13h17.15.749,vts_reward_expectancy,2022.2.4,MacIntel,60.0024001,Chrome,1440,900,,,l,0.5492,10,366,1,2,8,32,1,1,1,0,0,0,0,0,1,0,triangle,hexagon,,,,,,,,,,,,,,,,,,,,,,,,,,,,,,,,,,,,,,,,,,,,,,,,,,,,,,
296047,2022-10-05_13h17.15.749,vts_reward_expectancy,2022.2.4,MacIntel,60.0024001,Chrome,1440,900,,,a,0.6338,1,367,1,2,9,33,2,1,1,0,0,0,0,0,0,1,triangle,star,,,,,,,,,,,,,,,,,,,,,,,,,,,,,,,,,,,,,,,,,,,,,,,,,,,,,,
296047,2022-10-05_13h17.15.749,vts_reward_expectancy,2022.2.4,MacIntel,60.0024001,Chrome,1440,900,,,l,0.3995,1,368,1,2,10,34,10,1,0,0,0,1,0,1,0,0,star ,circle,,,,,,,,,,,,,,,,,,,,,,,,,,,,,,,,,,,,,,,,,,,,,,,,,,,,,,
296047,2022-10-05_13h17.15.749,vts_reward_expectancy,2022.2.4,MacIntel,60.0024001,Chrome,1440,900,,,a,0.7555,10,378,1,2,11,35,6,1,0,0,1,0,1,0,0,0,hexagon,triangle,,,,,,,,,,,,,,,,,,,,,,,,,,,,,,,,,,,,,,,,,,,,,,,,,,,,,,
296047,2022-10-05_13h17.15.749,vts_reward_expectancy,2022.2.4,MacIntel,60.0024001,Chrome,1440,900,,,a,1.615,1,379,2,0,0,0,5,1,0,1,0,0,0,0,0,1,circle,star,,,,,,,,,,,,,,,,,,,,,,,,,,,,,,,,,,,,,,,,,,,,,,,,,,,,,,
296047,2022-10-05_13h17.15.749,vts_reward_expectancy,2022.2.4,MacIntel,60.0024001,Chrome,1440,900,,,l,1.9531,1,380,2,0,1,1,0,1,1,0,0,0,0,1,0,0,triangle,circle,,,,,,,,,,,,,,,,,,,,,,,,,,,,,,,,,,,,,,,,,,,,,,,,,,,,,,
296047,2022-10-05_13h17.15.749,vts_reward_expectancy,2022.2.4,MacIntel,60.0024001,Chrome,1440,900,,,a,0.7836,1,381,2,0,2,2,1,1,1,0,0,0,0,0,1,0,triangle,hexagon,,,,,,,,,,,,,,,,,,,,,,,,,,,,,,,,,,,,,,,,,,,,,,,,,,,,,,
296047,2022-10-05_13h17.15.749,vts_reward_expectancy,2022.2.4,MacIntel,60.0024001,Chrome,1440,900,,,l,0.3656,1,382,2,0,3,3,7,1,0,0,1,0,0,1,0,0,hexagon,circle,,,,,,,,,,,,,,,,,,,,,,,,,,,,,,,,,,,,,,,,,,,,,,,,,,,,,,
296047,2022-10-05_13h17.15.749,vts_reward_expectancy,2022.2.4,MacIntel,60.0024001,Chrome,1440,900,,,a,0.3998,1,383,2,0,4,4,2,1,1,0,0,0,0,0,0,1,triangle,star,,,,,,,,,,,,,,,,,,,,,,,,,,,,,,,,,,,,,,,,,,,,,,,,,,,,,,
296047,2022-10-05_13h17.15.749,vts_reward_expectancy,2022.2.4,MacIntel,60.0024001,Chrome,1440,900,,,l,0.4154,10,393,2,0,5,5,10,1,0,0,0,1,0,1,0,0,star ,circle,,,,,,,,,,,,,,,,,,,,,,,,,,,,,,,,,,,,,,,,,,,,,,,,,,,,,,
296047,2022-10-05_13h17.15.749,vts_reward_expectancy,2022.2.4,MacIntel,60.0024001,Chrome,1440,900,,,a,0.4683,1,394,2,0,6,6,4,1,0,1,0,0,0,0,1,0,circle,hexagon,,,,,,,,,,,,,,,,,,,,,,,,,,,,,,,,,,,,,,,,,,,,,,,,,,,,,,
296047,2022-10-05_13h17.15.749,vts_reward_expectancy,2022.2.4,MacIntel,60.0024001,Chrome,1440,900,,,l,0.4167,1,395,2,0,7,7,9,1,0,0,0,1,1,0,0,0,star,triangle,,,,,,,,,,,,,,,,,,,,,,,,,,,,,,,,,,,,,,,,,,,,,,,,,,,,,,
296047,2022-10-05_13h17.15.749,vts_reward_expectancy,2022.2.4,MacIntel,60.0024001,Chrome,1440,900,,,l,0.3175,1,396,2,0,8,8,6,1,0,0,1,0,1,0,0,0,hexagon,triangle,,,,,,,,,,,,,,,,,,,,,,,,,,,,,,,,,,,,,,,,,,,,,,,,,,,,,,
296047,2022-10-05_13h17.15.749,vts_reward_expectancy,2022.2.4,MacIntel,60.0024001,Chrome,1440,900,,,a,0.3569,10,406,2,0,9,9,8,1,0,0,1,0,0,0,0,1,hexagon,star,,,,,,,,,,,,,,,,,,,,,,,,,,,,,,,,,,,,,,,,,,,,,,,,,,,,,,
296047,2022-10-05_13h17.15.749,vts_reward_expectancy,2022.2.4,MacIntel,60.0024001,Chrome,1440,900,,,a,0.4001,10,416,2,0,10,10,3,1,0,1,0,0,1,0,0,0,circle,triangle,,,,,,,,,,,,,,,,,,,,,,,,,,,,,,,,,,,,,,,,,,,,,,,,,,,,,,
296047,2022-10-05_13h17.15.749,vts_reward_expectancy,2022.2.4,MacIntel,60.0024001,Chrome,1440,900,,,l,0.3005,10,426,2,0,11,11,11,1,0,0,0,1,0,0,1,0,star,hexagon,,,,,,,,,,,,,,,,,,,,,,,,,,,,,,,,,,,,,,,,,,,,,,,,,,,,,,
296047,2022-10-05_13h17.15.749,vts_reward_expectancy,2022.2.4,MacIntel,60.0024001,Chrome,1440,900,,,a,0.533,10,436,2,1,0,12,3,1,0,1,0,0,1,0,0,0,circle,triangle,,,,,,,,,,,,,,,,,,,,,,,,,,,,,,,,,,,,,,,,,,,,,,,,,,,,,,
296047,2022-10-05_13h17.15.749,vts_reward_expectancy,2022.2.4,MacIntel,60.0024001,Chrome,1440,900,,,a,0.7504,10,446,2,1,1,13,10,1,0,0,0,1,0,1,0,0,star ,circle,,,,,,,,,,,,,,,,,,,,,,,,,,,,,,,,,,,,,,,,,,,,,,,,,,,,,,
296047,2022-10-05_13h17.15.749,vts_reward_expectancy,2022.2.4,MacIntel,60.0024001,Chrome,1440,900,,,a,1.1827,10,456,2,1,2,14,5,1,0,1,0,0,0,0,0,1,circle,star,,,,,,,,,,,,,,,,,,,,,,,,,,,,,,,,,,,,,,,,,,,,,,,,,,,,,,
296047,2022-10-05_13h17.15.749,vts_reward_expectancy,2022.2.4,MacIntel,60.0024001,Chrome,1440,900,,,a,0.9832,1,457,2,1,3,15,0,1,1,0,0,0,0,1,0,0,triangle,circle,,,,,,,,,,,,,,,,,,,,,,,,,,,,,,,,,,,,,,,,,,,,,,,,,,,,,,
296047,2022-10-05_13h17.15.749,vts_reward_expectancy,2022.2.4,MacIntel,60.0024001,Chrome,1440,900,,,l,0.5353,1,458,2,1,4,16,2,1,1,0,0,0,0,0,0,1,triangle,star,,,,,,,,,,,,,,,,,,,,,,,,,,,,,,,,,,,,,,,,,,,,,,,,,,,,,,
296047,2022-10-05_13h17.15.749,vts_reward_expectancy,2022.2.4,MacIntel,60.0024001,Chrome,1440,900,,,a,0.5666,10,468,2,1,5,17,6,1,0,0,1,0,1,0,0,0,hexagon,triangle,,,,,,,,,,,,,,,,,,,,,,,,,,,,,,,,,,,,,,,,,,,,,,,,,,,,,,
296047,2022-10-05_13h17.15.749,vts_reward_expectancy,2022.2.4,MacIntel,60.0024001,Chrome,1440,900,,,l,0.9514,10,478,2,1,6,18,11,1,0,0,0,1,0,0,1,0,star,hexagon,,,,,,,,,,,,,,,,,,,,,,,,,,,,,,,,,,,,,,,,,,,,,,,,,,,,,,
296047,2022-10-05_13h17.15.749,vts_reward_expectancy,2022.2.4,MacIntel,60.0024001,Chrome,1440,900,,,a,1.3006,1,479,2,1,7,19,1,1,1,0,0,0,0,0,1,0,triangle,hexagon,,,,,,,,,,,,,,,,,,,,,,,,,,,,,,,,,,,,,,,,,,,,,,,,,,,,,,
296047,2022-10-05_13h17.15.749,vts_reward_expectancy,2022.2.4,MacIntel,60.0024001,Chrome,1440,900,,,l,0.7207,10,489,2,1,8,20,8,1,0,0,1,0,0,0,0,1,hexagon,star,,,,,,,,,,,,,,,,,,,,,,,,,,,,,,,,,,,,,,,,,,,,,,,,,,,,,,
296047,2022-10-05_13h17.15.749,vts_reward_expectancy,2022.2.4,MacIntel,60.0024001,Chrome,1440,900,,,a,12.5681,10,499,2,1,9,21,4,1,0,1,0,0,0,0,1,0,circle,hexagon,,,,,,,,,,,,,,,,,,,,,,,,,,,,,,,,,,,,,,,,,,,,,,,,,,,,,,
296047,2022-10-05_13h17.15.749,vts_reward_expectancy,2022.2.4,MacIntel,60.0024001,Chrome,1440,900,,,l,0.5325,1,500,2,1,10,22,7,1,0,0,1,0,0,1,0,0,hexagon,circle,,,,,,,,,,,,,,,,,,,,,,,,,,,,,,,,,,,,,,,,,,,,,,,,,,,,,,
296047,2022-10-05_13h17.15.749,vts_reward_expectancy,2022.2.4,MacIntel,60.0024001,Chrome,1440,900,,,a,0.3999,10,510,2,1,11,23,9,1,0,0,0,1,1,0,0,0,star,triangle,,,,,,,,,,,,,,,,,,,,,,,,,,,,,,,,,,,,,,,,,,,,,,,,,,,,,,
296047,2022-10-05_13h17.15.749,vts_reward_expectancy,2022.2.4,MacIntel,60.0024001,Chrome,1440,900,,,l,0.4005,1,511,2,2,0,24,2,1,1,0,0,0,0,0,0,1,triangle,star,,,,,,,,,,,,,,,,,,,,,,,,,,,,,,,,,,,,,,,,,,,,,,,,,,,,,,
296047,2022-10-05_13h17.15.749,vts_reward_expectancy,2022.2.4,MacIntel,60.0024001,Chrome,1440,900,,,a,0.315,1,512,2,2,1,25,7,1,0,0,1,0,0,1,0,0,hexagon,circle,,,,,,,,,,,,,,,,,,,,,,,,,,,,,,,,,,,,,,,,,,,,,,,,,,,,,,
296047,2022-10-05_13h17.15.749,vts_reward_expectancy,2022.2.4,MacIntel,60.0024001,Chrome,1440,900,,,l,0.3339,10,522,2,2,2,26,10,1,0,0,0,1,0,1,0,0,star ,circle,,,,,,,,,,,,,,,,,,,,,,,,,,,,,,,,,,,,,,,,,,,,,,,,,,,,,,
296047,2022-10-05_13h17.15.749,vts_reward_expectancy,2022.2.4,MacIntel,60.0024001,Chrome,1440,900,,,a,0.3356,10,532,2,2,3,27,3,1,0,1,0,0,1,0,0,0,circle,triangle,,,,,,,,,,,,,,,,,,,,,,,,,,,,,,,,,,,,,,,,,,,,,,,,,,,,,,
296047,2022-10-05_13h17.15.749,vts_reward_expectancy,2022.2.4,MacIntel,60.0024001,Chrome,1440,900,,,l,0.3319,10,542,2,2,4,28,11,1,0,0,0,1,0,0,1,0,star,hexagon,,,,,,,,,,,,,,,,,,,,,,,,,,,,,,,,,,,,,,,,,,,,,,,,,,,,,,
296047,2022-10-05_13h17.15.749,vts_reward_expectancy,2022.2.4,MacIntel,60.0024001,Chrome,1440,900,,,l,0.5209,10,552,2,2,5,29,4,1,0,1,0,0,0,0,1,0,circle,hexagon,,,,,,,,,,,,,,,,,,,,,,,,,,,,,,,,,,,,,,,,,,,,,,,,,,,,,,
296047,2022-10-05_13h17.15.749,vts_reward_expectancy,2022.2.4,MacIntel,60.0024001,Chrome,1440,900,,,a,0.6004,10,562,2,2,6,30,8,1,0,0,1,0,0,0,0,1,hexagon,star,,,,,,,,,,,,,,,,,,,,,,,,,,,,,,,,,,,,,,,,,,,,,,,,,,,,,,
296047,2022-10-05_13h17.15.749,vts_reward_expectancy,2022.2.4,MacIntel,60.0024001,Chrome,1440,900,,,a,0.5504,10,572,2,2,7,31,6,1,0,0,1,0,1,0,0,0,hexagon,triangle,,,,,,,,,,,,,,,,,,,,,,,,,,,,,,,,,,,,,,,,,,,,,,,,,,,,,,
296047,2022-10-05_13h17.15.749,vts_reward_expectancy,2022.2.4,MacIntel,60.0024001,Chrome,1440,900,,,l,0.8005,1,573,2,2,8,32,9,1,0,0,0,1,1,0,0,0,star,triangle,,,,,,,,,,,,,,,,,,,,,,,,,,,,,,,,,,,,,,,,,,,,,,,,,,,,,,
296047,2022-10-05_13h17.15.749,vts_reward_expectancy,2022.2.4,MacIntel,60.0024001,Chrome,1440,900,,,a,0.3822,1,574,2,2,9,33,0,1,1,0,0,0,0,1,0,0,triangle,circle,,,,,,,,,,,,,,,,,,,,,,,,,,,,,,,,,,,,,,,,,,,,,,,,,,,,,,
296047,2022-10-05_13h17.15.749,vts_reward_expectancy,2022.2.4,MacIntel,60.0024001,Chrome,1440,900,,,l,0.4727,1,575,2,2,10,34,5,1,0,1,0,0,0,0,0,1,circle,star,,,,,,,,,,,,,,,,,,,,,,,,,,,,,,,,,,,,,,,,,,,,,,,,,,,,,,
296047,2022-10-05_13h17.15.749,vts_reward_expectancy,2022.2.4,MacIntel,60.0024001,Chrome,1440,900,,,a,0.3324,1,576,2,2,11,35,1,1,1,0,0,0,0,0,1,0,triangle,hexagon,,,,,,,,,,,,,,,,,,,,,,,,,,,,,,,,,,,,,,,,,,,,,,,,,,,,,,
296047,2022-10-05_13h17.15.749,vts_reward_expectancy,2022.2.4,MacIntel,60.0024001,Chrome,1440,900,,,,,,,,,,,,,,,,,,,,,,,F,174,star,0,0,f,0.121,0,0,0,0,0,1,,,,,,,,,,,,,,,,,,,,,,,,,,,,,,,,,,,,,,,,,
296047,2022-10-05_13h17.15.749,vts_reward_expectancy,2022.2.4,MacIntel,60.0024001,Chrome,1440,900,,,,,,,,,,,,,,,,,,,,,,,U,160,triangle,1,1,f,2.7165,0,1,0,1,0,1,,,,,,,,,,,,,,,,,,,,,,,,,,,,,,,,,,,,,,,,,
296047,2022-10-05_13h17.15.749,vts_reward_expectancy,2022.2.4,MacIntel,60.0024001,Chrome,1440,900,,,,,,,,,,,,,,,,,,,,,,,D,125,hexagon,1,0,d,0.7955,0,2,0,2,0,1,,,,,,,,,,,,,,,,,,,,,,,,,,,,,,,,,,,,,,,,,
296047,2022-10-05_13h17.15.749,vts_reward_expectancy,2022.2.4,MacIntel,60.0024001,Chrome,1440,900,,,,,,,,,,,,,,,,,,,,,,,S,139,circle,1,0,f,0.7636,0,3,0,3,0,1,,,,,,,,,,,,,,,,,,,,,,,,,,,,,,,,,,,,,,,,,
296047,2022-10-05_13h17.15.749,vts_reward_expectancy,2022.2.4,MacIntel,60.0024001,Chrome,1440,900,,,,,,,,,,,,,,,,,,,,,,,B,132,star,1,0,d,0.7384,0,4,0,4,0,1,,,,,,,,,,,,,,,,,,,,,,,,,,,,,,,,,,,,,,,,,
296047,2022-10-05_13h17.15.749,vts_reward_expectancy,2022.2.4,MacIntel,60.0024001,Chrome,1440,900,,,,,,,,,,,,,,,,,,,,,,,Y,146,triangle,1,0,f,0.6483,0,5,0,5,0,1,,,,,,,,,,,,,,,,,,,,,,,,,,,,,,,,,,,,,,,,,
296047,2022-10-05_13h17.15.749,vts_reward_expectancy,2022.2.4,MacIntel,60.0024001,Chrome,1440,900,,,,,,,,,,,,,,,,,,,,,,,H,181,hexagon,1,0,d,0.7493,0,6,0,6,0,1,,,,,,,,,,,,,,,,,,,,,,,,,,,,,,,,,,,,,,,,,
296047,2022-10-05_13h17.15.749,vts_reward_expectancy,2022.2.4,MacIntel,60.0024001,Chrome,1440,900,,,,,,,,,,,,,,,,,,,,,,,W,167,circle,1,0,f,0.5967,0,7,0,7,0,1,,,,,,,,,,,,,,,,,,,,,,,,,,,,,,,,,,,,,,,,,
296047,2022-10-05_13h17.15.749,vts_reward_expectancy,2022.2.4,MacIntel,60.0024001,Chrome,1440,900,,,,,,,,,,,,,,,,,,,,,,,F,174,hexagon,1,0,d,0.9657,0,8,0,8,0,1,,,,,,,,,,,,,,,,,,,,,,,,,,,,,,,,,,,,,,,,,
296047,2022-10-05_13h17.15.749,vts_reward_expectancy,2022.2.4,MacIntel,60.0024001,Chrome,1440,900,,,,,,,,,,,,,,,,,,,,,,,U,160,circle,1,0,f,0.8163,0,9,0,9,0,1,,,,,,,,,,,,,,,,,,,,,,,,,,,,,,,,,,,,,,,,,
296047,2022-10-05_13h17.15.749,vts_reward_expectancy,2022.2.4,MacIntel,60.0024001,Chrome,1440,900,,,,,,,,,,,,,,,,,,,,,,,B,146,triangle,1,0,,,1,,,,,,j,1.1025,0,0,0,0,1,,,,,,,,,,,,,,,,,,,,,,,,,,,,,,,,,,
296047,2022-10-05_13h17.15.749,vts_reward_expectancy,2022.2.4,MacIntel,60.0024001,Chrome,1440,900,,,,,,,,,,,,,,,,,,,,,,,F,139,hexagon,1,0,,,1,,,,,,j,0.7302,1,0,1,0,1,,,,,,,,,,,,,,,,,,,,,,,,,,,,,,,,,,
296047,2022-10-05_13h17.15.749,vts_reward_expectancy,2022.2.4,MacIntel,60.0024001,Chrome,1440,900,,,,,,,,,,,,,,,,,,,,,,,H,181,star,1,0,,,1,,,,,,k,0.6489,2,0,2,0,1,,,,,,,,,,,,,,,,,,,,,,,,,,,,,,,,,,
296047,2022-10-05_13h17.15.749,vts_reward_expectancy,2022.2.4,MacIntel,60.0024001,Chrome,1440,900,,,,,,,,,,,,,,,,,,,,,,,S,125,circle,1,0,,,1,,,,,,j,0.9332,3,0,3,0,1,,,,,,,,,,,,,,,,,,,,,,,,,,,,,,,,,,
296047,2022-10-05_13h17.15.749,vts_reward_expectancy,2022.2.4,MacIntel,60.0024001,Chrome,1440,900,,,,,,,,,,,,,,,,,,,,,,,Y,160,triangle,1,0,,,1,,,,,,k,0.8685,4,0,4,0,1,,,,,,,,,,,,,,,,,,,,,,,,,,,,,,,,,,
296047,2022-10-05_13h17.15.749,vts_reward_expectancy,2022.2.4,MacIntel,60.0024001,Chrome,1440,900,,,,,,,,,,,,,,,,,,,,,,,U,167,hexagon,1,0,,,1,,,,,,k,0.7178,5,0,5,0,1,,,,,,,,,,,,,,,,,,,,,,,,,,,,,,,,,,
296047,2022-10-05_13h17.15.749,vts_reward_expectancy,2022.2.4,MacIntel,60.0024001,Chrome,1440,900,,,,,,,,,,,,,,,,,,,,,,,D,132,star,1,0,,,1,,,,,,j,0.6385,6,0,6,0,1,,,,,,,,,,,,,,,,,,,,,,,,,,,,,,,,,,
296047,2022-10-05_13h17.15.749,vts_reward_expectancy,2022.2.4,MacIntel,60.0024001,Chrome,1440,900,,,,,,,,,,,,,,,,,,,,,,,W,174,circle,1,0,,,1,,,,,,k,0.696,7,0,7,0,1,,,,,,,,,,,,,,,,,,,,,,,,,,,,,,,,,,
296047,2022-10-05_13h17.15.749,vts_reward_expectancy,2022.2.4,MacIntel,60.0024001,Chrome,1440,900,,,,,,,,,,,,,,,,,,,,,,,B,146,triangle,1,0,,,1,,,,,,j,0.5469,8,0,8,0,1,,,,,,,,,,,,,,,,,,,,,,,,,,,,,,,,,,
296047,2022-10-05_13h17.15.749,vts_reward_expectancy,2022.2.4,MacIntel,60.0024001,Chrome,1440,900,,,,,,,,,,,,,,,,,,,,,,,F,139,star,1,0,,,1,,,,,,j,0.9532,9,0,9,0,1,,,,,,,,,,,,,,,,,,,,,,,,,,,,,,,,,,
296047,2022-10-05_13h17.15.749,vts_reward_expectancy,2022.2.4,MacIntel,60.0024001,Chrome,1440,900,,,,,0,576,,,,,,,,,,,,,,,,,Y,146,circle,-1,0,,,2,,,,,,,,,,,,,-1,no_choice,NA,,vtsPrac,0,0,0,0,1,,,,,,,,,,,,,,,,,,,,,,,,
296047,2022-10-05_13h17.15.749,vts_reward_expectancy,2022.2.4,MacIntel,60.0024001,Chrome,1440,900,,,,,0,576,,,,,,,,,,,,,,,,,H,181,star,1,0,,,2,,,,,,,,,,,,,switch,number,numSwt,k,vtsPrac,1,0,1,0,1,0.7482,,,,,,,,,,,,,,,,,,,,,,,
296047,2022-10-05_13h17.15.749,vts_reward_expectancy,2022.2.4,MacIntel,60.0024001,Chrome,1440,900,,,,,0,576,,,,,,,,,,,,,,,,,F,132,circle,1,0,,,2,,,,,,,,,,,,,repeat,number,numRpt,j,vtsPrac,2,0,2,0,1,0.6479,,,,,,,,,,,,,,,,,,,,,,,
296047,2022-10-05_13h17.15.749,vts_reward_expectancy,2022.2.4,MacIntel,60.0024001,Chrome,1440,900,,,,,0,576,,,,,,,,,,,,,,,,,S,125,star,1,0,,,2,,,,,,,,,,,,,repeat,number,numRpt,j,vtsPrac,3,0,3,0,1,0.6978,,,,,,,,,,,,,,,,,,,,,,,
296047,2022-10-05_13h17.15.749,vts_reward_expectancy,2022.2.4,MacIntel,60.0024001,Chrome,1440,900,,,,,0,576,,,,,,,,,,,,,,,,,Y,146,triangle,1,0,,,2,,,,,,,,,,,,,repeat,number,numRpt,j,vtsPrac,4,0,4,0,1,0.6472,,,,,,,,,,,,,,,,,,,,,,,
296047,2022-10-05_13h17.15.749,vts_reward_expectancy,2022.2.4,MacIntel,60.0024001,Chrome,1440,900,,,,,0,576,,,,,,,,,,,,,,,,,H,181,circle,1,0,,,2,,,,,,,,,,,,,repeat,number,numRpt,k,vtsPrac,5,0,5,0,1,0.6478,,,,,,,,,,,,,,,,,,,,,,,
296047,2022-10-05_13h17.15.749,vts_reward_expectancy,2022.2.4,MacIntel,60.0024001,Chrome,1440,900,,,,,0,576,,,,,,,,,,,,,,,,,F,132,star,1,0,,,2,,,,,,,,,,,,,repeat,number,numRpt,j,vtsPrac,6,0,6,0,1,0.6807,,,,,,,,,,,,,,,,,,,,,,,
296047,2022-10-05_13h17.15.749,vts_reward_expectancy,2022.2.4,MacIntel,60.0024001,Chrome,1440,900,,,,,0,576,,,,,,,,,,,,,,,,,S,125,circle,1,0,,,2,,,,,,,,,,,,,repeat,number,numRpt,j,vtsPrac,7,0,7,0,1,1.004,,,,,,,,,,,,,,,,,,,,,,,
296047,2022-10-05_13h17.15.749,vts_reward_expectancy,2022.2.4,MacIntel,60.0024001,Chrome,1440,900,,,,,0,576,,,,,,,,,,,,,,,,,F,125,hexagon,1,0,,,2,,,,,,,,,,,,,repeat,number,numRpt,j,vtsPrac,8,0,8,0,1,0.85,,,,,,,,,,,,,,,,,,,,,,,
296047,2022-10-05_13h17.15.749,vts_reward_expectancy,2022.2.4,MacIntel,60.0024001,Chrome,1440,900,,,,,0,576,,,,,,,,,,,,,,,,,W,139,star,1,0,,,2,,,,,,,,,,,,,repeat,number,numRpt,j,vtsPrac,9,0,9,0,1,0.6543,,,,,,,,,,,,,,,,,,,,,,,
296047,2022-10-05_13h17.15.749,vts_reward_expectancy,2022.2.4,MacIntel,60.0024001,Chrome,1440,900,,,,,0,576,,,,,,,,,,,,,,,,,H,174,circle,1,0,,,2,,,,,,,,,,,,,repeat,number,numRpt,k,vtsPrac,10,0,10,0,1,0.617,,,,,,,,,,,,,,,,,,,,,,,
296047,2022-10-05_13h17.15.749,vts_reward_expectancy,2022.2.4,MacIntel,60.0024001,Chrome,1440,900,,,,,0,576,,,,,,,,,,,,,,,,,Y,167,hexagon,1,0,,,2,,,,,,,,,,,,,repeat,number,numRpt,k,vtsPrac,11,0,11,0,1,0.7855,,,,,,,,,,,,,,,,,,,,,,,
296047,2022-10-05_13h17.15.749,vts_reward_expectancy,2022.2.4,MacIntel,60.0024001,Chrome,1440,900,,,,,0,576,,,,,,,,,,,,,,,,,D,139,star,1,0,,,2,,,,,,,,,,,,,repeat,number,numRpt,j,vtsPrac,12,0,12,0,1,0.9193,,,,,,,,,,,,,,,,,,,,,,,
296047,2022-10-05_13h17.15.749,vts_reward_expectancy,2022.2.4,MacIntel,60.0024001,Chrome,1440,900,,,,,0,576,,,,,,,,,,,,,,,,,Y,132,triangle,1,0,,,2,,,,,,,,,,,,,repeat,number,numRpt,j,vtsPrac,13,0,13,0,1,0.5152,,,,,,,,,,,,,,,,,,,,,,,
296047,2022-10-05_13h17.15.749,vts_reward_expectancy,2022.2.4,MacIntel,60.0024001,Chrome,1440,900,,,,,0,576,,,,,,,,,,,,,,,,,S,146,hexagon,1,0,,,2,,,,,,,,,,,,,repeat,number,numRpt,j,vtsPrac,14,0,14,0,1,0.6136,,,,,,,,,,,,,,,,,,,,,,,
296047,2022-10-05_13h17.15.749,vts_reward_expectancy,2022.2.4,MacIntel,60.0024001,Chrome,1440,900,,,,,0,576,,,,,,,,,,,,,,,,,B,181,triangle,1,0,,,2,,,,,,,,,,,,,repeat,number,numRpt,k,vtsPrac,15,0,15,0,1,0.6486,,,,,,,,,,,,,,,,,,,,,,,
296047,2022-10-05_13h17.15.749,vts_reward_expectancy,2022.2.4,MacIntel,60.0024001,Chrome,1440,900,,,,,0,576,,,,,,,,,,,,,,,,,H,146,star,1,0,,,3,,,,,,,,,,,,,repeat,number,numRpt,j,vtsPrac,0,0,0,0,1,1.0177,,,,,,,,,,,,,,,,,,,,,,,
296047,2022-10-05_13h17.15.749,vts_reward_expectancy,2022.2.4,MacIntel,60.0024001,Chrome,1440,900,,,,,0,576,,,,,,,,,,,,,,,,,Y,160,triangle,1,0,,,3,,,,,,,,,,,,,switch,letter,lettSwt,f,vtsPrac,1,0,1,0,1,0.6309,,,,,,,,,,,,,,,,,,,,,,,
296047,2022-10-05_13h17.15.749,vts_reward_expectancy,2022.2.4,MacIntel,60.0024001,Chrome,1440,900,,,,,0,576,,,,,,,,,,,,,,,,,D,167,star,1,0,,,3,,,,,,,,,,,,,switch,number,numSwt,k,vtsPrac,2,0,2,0,1,0.6644,,,,,,,,,,,,,,,,,,,,,,,
296047,2022-10-05_13h17.15.749,vts_reward_expectancy,2022.2.4,MacIntel,60.0024001,Chrome,1440,900,,,,,0,576,,,,,,,,,,,,,,,,,U,181,triangle,1,0,,,3,,,,,,,,,,,,,switch,letter,lettSwt,f,vtsPrac,3,0,3,0,1,0.6017,,,,,,,,,,,,,,,,,,,,,,,
296047,2022-10-05_13h17.15.749,vts_reward_expectancy,2022.2.4,MacIntel,60.0024001,Chrome,1440,900,,,,,0,576,,,,,,,,,,,,,,,,,H,146,triangle,1,0,,,3,,,,,,,,,,,,,switch,number,numSwt,j,vtsPrac,4,0,4,0,1,0.9633,,,,,,,,,,,,,,,,,,,,,,,
296047,2022-10-05_13h17.15.749,vts_reward_expectancy,2022.2.4,MacIntel,60.0024001,Chrome,1440,900,,,,,0,576,,,,,,,,,,,,,,,,,Y,160,star,1,0,,,3,,,,,,,,,,,,,switch,letter,lettSwt,f,vtsPrac,5,0,5,0,1,0.5312,,,,,,,,,,,,,,,,,,,,,,,
296047,2022-10-05_13h17.15.749,vts_reward_expectancy,2022.2.4,MacIntel,60.0024001,Chrome,1440,900,,,,,0,576,,,,,,,,,,,,,,,,,D,167,circle,1,0,,,3,,,,,,,,,,,,,switch,number,numSwt,k,vtsPrac,6,0,6,0,1,0.9715,,,,,,,,,,,,,,,,,,,,,,,
296047,2022-10-05_13h17.15.749,vts_reward_expectancy,2022.2.4,MacIntel,60.0024001,Chrome,1440,900,,,,,0,576,,,,,,,,,,,,,,,,,U,181,star,1,0,,,3,,,,,,,,,,,,,switch,letter,lettSwt,f,vtsPrac,7,0,7,0,1,0.8323,,,,,,,,,,,,,,,,,,,,,,,
296047,2022-10-05_13h17.15.749,vts_reward_expectancy,2022.2.4,MacIntel,60.0024001,Chrome,1440,900,,,,,0,576,,,,,,,,,,,,,,,,,U,174,circle,1,0,,,3,,,,,,,,,,,,,switch,number,numSwt,k,vtsPrac,8,0,8,0,1,0.7995,,,,,,,,,,,,,,,,,,,,,,,
296047,2022-10-05_13h17.15.749,vts_reward_expectancy,2022.2.4,MacIntel,60.0024001,Chrome,1440,900,,,,,0,576,,,,,,,,,,,,,,,,,F,139,star,1,0,,,3,,,,,,,,,,,,,switch,letter,lettSwt,d,vtsPrac,9,0,9,0,1,0.8815,,,,,,,,,,,,,,,,,,,,,,,
296047,2022-10-05_13h17.15.749,vts_reward_expectancy,2022.2.4,MacIntel,60.0024001,Chrome,1440,900,,,,,0,576,,,,,,,,,,,,,,,,,S,125,circle,1,0,,,3,,,,,,,,,,,,,switch,number,numSwt,j,vtsPrac,10,0,10,0,1,0.8142,,,,,,,,,,,,,,,,,,,,,,,
296047,2022-10-05_13h17.15.749,vts_reward_expectancy,2022.2.4,MacIntel,60.0024001,Chrome,1440,900,,,,,0,576,,,,,,,,,,,,,,,,,H,132,hexagon,1,0,,,3,,,,,,,,,,,,,switch,letter,lettSwt,d,vtsPrac,11,0,11,0,1,0.7803,,,,,,,,,,,,,,,,,,,,,,,
296047,2022-10-05_13h17.15.749,vts_reward_expectancy,2022.2.4,MacIntel,60.0024001,Chrome,1440,900,,,,,0,576,,,,,,,,,,,,,,,,,U,139,triangle,1,0,,,3,,,,,,,,,,,,,switch,number,numSwt,j,vtsPrac,12,0,12,0,1,0.7662,,,,,,,,,,,,,,,,,,,,,,,
296047,2022-10-05_13h17.15.749,vts_reward_expectancy,2022.2.4,MacIntel,60.0024001,Chrome,1440,900,,,,,0,576,,,,,,,,,,,,,,,,,W,125,circle,1,0,,,3,,,,,,,,,,,,,repeat,number,numRpt,j,vtsPrac,13,0,13,0,1,1.3159,,,,,,,,,,,,,,,,,,,,,,,
296047,2022-10-05_13h17.15.749,vts_reward_expectancy,2022.2.4,MacIntel,60.0024001,Chrome,1440,900,,,,,0,576,,,,,,,,,,,,,,,,,B,174,circle,1,0,,,3,,,,,,,,,,,,,repeat,number,numRpt,k,vtsPrac,14,0,14,0,1,0.9043,,,,,,,,,,,,,,,,,,,,,,,
296047,2022-10-05_13h17.15.749,vts_reward_expectancy,2022.2.4,MacIntel,60.0024001,Chrome,1440,900,,,,,0,576,,,,,,,,,,,,,,,,,F,132,triangle,1,0,,,3,,,,,,,,,,,,,repeat,number,numRpt,j,vtsPrac,15,0,15,0,1,1.048,,,,,,,,,,,,,,,,,,,,,,,
296047,2022-10-05_13h17.15.749,vts_reward_expectancy,2022.2.4,MacIntel,60.0024001,Chrome,1440,900,,,,,,,,,,,,,,,,,,,,,,,,,,,,,,,,,,,,,,,,,,,,,,,,,,,,,,,,,,,,,,,,,,,,,,,,,,,,
296047,2022-10-05_13h17.15.749,vts_reward_expectancy,2022.2.4,MacIntel,60.0024001,Chrome,1440,900,,,,,,,,,,,,,,,,,,,,,,,,,,,,,,,,,,,,,,,,,,,,,,,,,,,,,,,,,,,,,,,,,,,,,,,,,,,,
296047,2022-10-05_13h17.15.749,vts_reward_expectancy,2022.2.4,MacIntel,60.0024001,Chrome,1440,900,,,,,0,576,,,,,,,,,,,,,,,,,W,160,triangle,1,0,,,,,,,,,,,,,,,,repeat,number,numRpt,k,noRew,,,,,,0.8286,0,0,0,0,0,1,,,,,,,,,,,,,,,,,
296047,2022-10-05_13h17.15.749,vts_reward_expectancy,2022.2.4,MacIntel,60.0024001,Chrome,1440,900,,,,,0,576,,,,,,,,,,,,,,,,,D,125,hexagon,1,0,,,,,,,,,,,,,,,,switch,letter,lettSwt,d,noRew,,,,,,1.0033,0,1,0,1,0,1,,,,,,,,,,,,,,,,,
296047,2022-10-05_13h17.15.749,vts_reward_expectancy,2022.2.4,MacIntel,60.0024001,Chrome,1440,900,,,,,0,576,,,,,,,,,,,,,,,,,B,139,triangle,1,0,,,,,,,,,,,,,,,,switch,number,numSwt,j,noRew,,,,,,0.6236,0,2,0,2,0,1,,,,,,,,,,,,,,,,,
296047,2022-10-05_13h17.15.749,vts_reward_expectancy,2022.2.4,MacIntel,60.0024001,Chrome,1440,900,,,,,0,576,,,,,,,,,,,,,,,,,Y,181,hexagon,1,0,,,,,,,,,,,,,,,,switch,letter,lettSwt,f,noRew,,,,,,0.8945,0,3,0,3,0,1,,,,,,,,,,,,,,,,,
296047,2022-10-05_13h17.15.749,vts_reward_expectancy,2022.2.4,MacIntel,60.0024001,Chrome,1440,900,,,,,0,576,,,,,,,,,,,,,,,,,W,160,star,1,0,,,,,,,,,,,,,,,,switch,number,numSwt,k,noRew,,,,,,0.8494,0,4,0,4,0,1,,,,,,,,,,,,,,,,,
296047,2022-10-05_13h17.15.749,vts_reward_expectancy,2022.2.4,MacIntel,60.0024001,Chrome,1440,900,,,,,0,576,,,,,,,,,,,,,,,,,D,125,hexagon,1,0,,,,,,,,,,,,,,,,switch,letter,lettSwt,d,noRew,,,,,,0.5972,0,5,0,5,0,1,,,,,,,,,,,,,,,,,
296047,2022-10-05_13h17.15.749,vts_reward_expectancy,2022.2.4,MacIntel,60.0024001,Chrome,1440,900,,,,,0,576,,,,,,,,,,,,,,,,,B,139,star,1,0,,,,,,,,,,,,,,,,switch,number,numSwt,j,noRew,,,,,,0.9298,0,6,0,6,0,1,,,,,,,,,,,,,,,,,
296047,2022-10-05_13h17.15.749,vts_reward_expectancy,2022.2.4,MacIntel,60.0024001,Chrome,1440,900,,,,,0,576,,,,,,,,,,,,,,,,,Y,181,triangle,1,0,,,,,,,,,,,,,,,,switch,letter,lettSwt,f,noRew,,,,,,0.7663,0,7,0,7,0,1,,,,,,,,,,,,,,,,,
296047,2022-10-05_13h17.15.749,vts_reward_expectancy,2022.2.4,MacIntel,60.0024001,Chrome,1440,900,,,,,0,576,,,,,,,,,,,,,,,,,W,132,star,1,0,,,,,,,,,,,,,,,,switch,number,numSwt,j,noRew,,,,,,0.9841,0,8,0,8,0,1,,,,,,,,,,,,,,,,,
296047,2022-10-05_13h17.15.749,vts_reward_expectancy,2022.2.4,MacIntel,60.0024001,Chrome,1440,900,,,,,0,576,,,,,,,,,,,,,,,,,B,125,hexagon,1,0,,,,,,,,,,,,,,,,switch,letter,lettSwt,d,noRew,,,,,,0.716,0,9,0,9,0,1,,,,,,,,,,,,,,,,,
296047,2022-10-05_13h17.15.749,vts_reward_expectancy,2022.2.4,MacIntel,60.0024001,Chrome,1440,900,,,,,0,576,,,,,,,,,,,,,,,,,H,174,triangle,1,0,,,,,,,,,,,,,,,,switch,number,numSwt,k,noRew,,,,,,0.8138,0,10,0,10,0,1,,,,,,,,,,,,,,,,,
296047,2022-10-05_13h17.15.749,vts_reward_expectancy,2022.2.4,MacIntel,60.0024001,Chrome,1440,900,,,,,0,576,,,,,,,,,,,,,,,,,F,139,hexagon,1,0,,,,,,,,,,,,,,,,switch,letter,lettSwt,d,noRew,,,,,,1.5862,0,11,0,11,0,1,,,,,,,,,,,,,,,,,
296047,2022-10-05_13h17.15.749,vts_reward_expectancy,2022.2.4,MacIntel,60.0024001,Chrome,1440,900,,,,,0,576,,,,,,,,,,,,,,,,,B,160,circle,1,0,,,,,,,,,,,,,,,,switch,number,numSwt,k,noRew,,,,,,1.0804,0,12,0,12,0,1,,,,,,,,,,,,,,,,,
296047,2022-10-05_13h17.15.749,vts_reward_expectancy,2022.2.4,MacIntel,60.0024001,Chrome,1440,900,,,,,0,576,,,,,,,,,,,,,,,,,W,167,triangle,1,0,,,,,,,,,,,,,,,,switch,letter,lettSwt,f,noRew,,,,,,0.8731,0,13,0,13,0,1,,,,,,,,,,,,,,,,,
296047,2022-10-05_13h17.15.749,vts_reward_expectancy,2022.2.4,MacIntel,60.0024001,Chrome,1440,900,,,,,0,576,,,,,,,,,,,,,,,,,F,174,circle,1,0,,,,,,,,,,,,,,,,switch,number,numSwt,k,noRew,,,,,,0.6476,0,14,0,14,0,1,,,,,,,,,,,,,,,,,
296047,2022-10-05_13h17.15.749,vts_reward_expectancy,2022.2.4,MacIntel,60.0024001,Chrome,1440,900,,,,,0,576,,,,,,,,,,,,,,,,,H,139,hexagon,1,0,,,,,,,,,,,,,,,,repeat,number,numRpt,j,noRew,,,,,,0.9323,0,15,0,15,0,1,,,,,,,,,,,,,,,,,
296047,2022-10-05_13h17.15.749,vts_reward_expectancy,2022.2.4,MacIntel,60.0024001,Chrome,1440,900,,,,,0,576,,,,,,,,,,,,,,,,,B,167,triangle,1,0,,,,,,,,,,,,,,,,repeat,number,numRpt,k,noRew,,,,,,0.7631,0,16,0,16,0,1,,,,,,,,,,,,,,,,,
296047,2022-10-05_13h17.15.749,vts_reward_expectancy,2022.2.4,MacIntel,60.0024001,Chrome,1440,900,,,,,0,576,,,,,,,,,,,,,,,,,U,160,circle,1,0,,,,,,,,,,,,,,,,repeat,number,numRpt,k,noRew,,,,,,1.1511,0,17,0,17,0,1,,,,,,,,,,,,,,,,,
296047,2022-10-05_13h17.15.749,vts_reward_expectancy,2022.2.4,MacIntel,60.0024001,Chrome,1440,900,,,,,0,576,,,,,,,,,,,,,,,,,F,132,hexagon,1,0,,,,,,,,,,,,,,,,repeat,number,numRpt,j,noRew,,,,,,0.631,0,18,0,18,0,1,,,,,,,,,,,,,,,,,
296047,2022-10-05_13h17.15.749,vts_reward_expectancy,2022.2.4,MacIntel,60.0024001,Chrome,1440,900,,,,,0,576,,,,,,,,,,,,,,,,,S,181,triangle,1,0,,,,,,,,,,,,,,,,switch,letter,lettSwt,f,noRew,,,,,,0.739,0,19,0,19,0,1,,,,,,,,,,,,,,,,,
296047,2022-10-05_13h17.15.749,vts_reward_expectancy,2022.2.4,MacIntel,60.0024001,Chrome,1440,900,,,,,0,576,,,,,,,,,,,,,,,,,F,139,star,1,0,,,,,,,,,,,,,,,,repeat,letter,lettRpt,d,noRew,,,,,,0.6656,0,20,0,20,0,1,,,,,,,,,,,,,,,,,
296047,2022-10-05_13h17.15.749,vts_reward_expectancy,2022.2.4,MacIntel,60.0024001,Chrome,1440,900,,,,,0,576,,,,,,,,,,,,,,,,,U,174,triangle,1,0,,,,,,,,,,,,,,,,repeat,letter,lettRpt,f,noRew,,,,,,0.7508,0,21,0,21,0,1,,,,,,,,,,,,,,,,,
296047,2022-10-05_13h17.15.749,vts_reward_expectancy,2022.2.4,MacIntel,60.0024001,Chrome,1440,900,,,,,0,576,,,,,,,,,,,,,,,,,Y,125,circle,1,0,,,,,,,,,,,,,,,,switch,number,numSwt,j,noRew,,,,,,0.8221,0,22,0,22,0,1,,,,,,,,,,,,,,,,,
296047,2022-10-05_13h17.15.749,vts_reward_expectancy,2022.2.4,MacIntel,60.0024001,Chrome,1440,900,,,,,0,576,,,,,,,,,,,,,,,,,D,146,hexagon,1,0,,,,,,,,,,,,,,,,switch,letter,lettSwt,d,noRew,,,,,,0.6306,0,23,0,23,0,1,,,,,,,,,,,,,,,,,
296047,2022-10-05_13h17.15.749,vts_reward_expectancy,2022.2.4,MacIntel,60.0024001,Chrome,1440,900,,,,,0,576,,,,,,,,,,,,,,,,,U,181,triangle,1,0,,,,,,,,,,,,,,,,switch,number,numSwt,k,noRew,,,,,,0.882,0,24,0,24,0,1,,,,,,,,,,,,,,,,,
296047,2022-10-05_13h17.15.749,vts_reward_expectancy,2022.2.4,MacIntel,60.0024001,Chrome,1440,900,,,,,0,576,,,,,,,,,,,,,,,,,W,160,hexagon,1,0,,,,,,,,,,,,,,,,switch,letter,lettSwt,f,noRew,,,,,,1.0138,0,25,0,25,0,1,,,,,,,,,,,,,,,,,
296047,2022-10-05_13h17.15.749,vts_reward_expectancy,2022.2.4,MacIntel,60.0024001,Chrome,1440,900,,,,,0,576,,,,,,,,,,,,,,,,,S,132,triangle,1,0,,,,,,,,,,,,,,,,switch,number,numSwt,j,noRew,,,,,,0.9559,0,26,0,26,0,1,,,,,,,,,,,,,,,,,
296047,2022-10-05_13h17.15.749,vts_reward_expectancy,2022.2.4,MacIntel,60.0024001,Chrome,1440,900,,,,,0,576,,,,,,,,,,,,,,,,,F,167,hexagon,0,0,,,,,,,,,,,,,,,,switch,letter,NA,f,noRew,,,,,,1.1967,0,27,0,27,0,1,,,,,,,,,,,,,,,,,
296047,2022-10-05_13h17.15.749,vts_reward_expectancy,2022.2.4,MacIntel,60.0024001,Chrome,1440,900,,,,,0,576,,,,,,,,,,,,,,,,,Y,132,star,1,1,,,,,,,,,,,,,,,,repeat,letter,lettRpt,f,noRew,,,,,,0.8479,0,28,0,28,0,1,,,,,,,,,,,,,,,,,
296047,2022-10-05_13h17.15.749,vts_reward_expectancy,2022.2.4,MacIntel,60.0024001,Chrome,1440,900,,,,,0,576,,,,,,,,,,,,,,,,,W,146,circle,1,0,,,,,,,,,,,,,,,,switch,number,numSwt,j,noRew,,,,,,1.2402,0,29,0,29,0,1,,,,,,,,,,,,,,,,,
296047,2022-10-05_13h17.15.749,vts_reward_expectancy,2022.2.4,MacIntel,60.0024001,Chrome,1440,900,,,,,0,576,,,,,,,,,,,,,,,,,H,125,star,1,0,,,,,,,,,,,,,,,,repeat,number,numRpt,j,noRew,,,,,,0.6635,0,30,0,30,0,1,,,,,,,,,,,,,,,,,
296047,2022-10-05_13h17.15.749,vts_reward_expectancy,2022.2.4,MacIntel,60.0024001,Chrome,1440,900,,,,,0,576,,,,,,,,,,,,,,,,,D,174,triangle,1,0,,,,,,,,,,,,,,,,repeat,number,numRpt,k,noRew,,,,,,0.7146,0,31,0,31,0,1,,,,,,,,,,,,,,,,,
296047,2022-10-05_13h17.15.749,vts_reward_expectancy,2022.2.4,MacIntel,60.0024001,Chrome,1440,900,,,,,0,576,,,,,,,,,,,,,,,,,Y,125,circle,1,0,,,,,,,,,,,,,,,,repeat,number,numRpt,j,noRew,,,,,,0.6638,0,32,0,32,0,1,,,,,,,,,,,,,,,,,
296047,2022-10-05_13h17.15.749,vts_reward_expectancy,2022.2.4,MacIntel,60.0024001,Chrome,1440,900,,,,,0,576,,,,,,,,,,,,,,,,,F,181,hexagon,1,0,,,,,,,,,,,,,,,,repeat,number,numRpt,k,noRew,,,,,,1.0313,0,33,0,33,0,1,,,,,,,,,,,,,,,,,
296047,2022-10-05_13h17.15.749,vts_reward_expectancy,2022.2.4,MacIntel,60.0024001,Chrome,1440,900,,,,,0,576,,,,,,,,,,,,,,,,,B,167,triangle,1,0,,,,,,,,,,,,,,,,switch,letter,lettSwt,d,noRew,,,,,,0.7482,0,34,0,34,0,1,,,,,,,,,,,,,,,,,
296047,2022-10-05_13h17.15.749,vts_reward_expectancy,2022.2.4,MacIntel,60.0024001,Chrome,1440,900,,,,,0,576,,,,,,,,,,,,,,,,,U,139,hexagon,1,0,,,,,,,,,,,,,,,,repeat,letter,lettRpt,f,noRew,,,,,,0.7474,0,35,0,35,0,1,,,,,,,,,,,,,,,,,
296047,2022-10-05_13h17.15.749,vts_reward_expectancy,2022.2.4,MacIntel,60.0024001,Chrome,1440,900,,,,,0,576,,,,,,,,,,,,,,,,,W,160,circle,1,0,,,,,,,,,,,,,,,,switch,number,numSwt,k,noRew,,,,,,1.0136,0,36,0,36,0,1,,,,,,,,,,,,,,,,,
296047,2022-10-05_13h17.15.749,vts_reward_expectancy,2022.2.4,MacIntel,60.0024001,Chrome,1440,900,,,,,0,576,,,,,,,,,,,,,,,,,D,174,star,1,0,,,,,,,,,,,,,,,,repeat,number,numRpt,k,noRew,,,,,,0.9404,0,37,0,37,0,1,,,,,,,,,,,,,,,,,
296047,2022-10-05_13h17.15.749,vts_reward_expectancy,2022.2.4,MacIntel,60.0024001,Chrome,1440,900,,,,,0,576,,,,,,,,,,,,,,,,,H,139,star,0,0,,,,,,,,,,,,,,,,switch,letter,NA,f,noRew,,,,,,1.1141,0,38,0,38,0,1,,,,,,,,,,,,,,,,,
296047,2022-10-05_13h17.15.749,vts_reward_expectancy,2022.2.4,MacIntel,60.0024001,Chrome,1440,900,,,,,0,576,,,,,,,,,,,,,,,,,F,125,circle,1,1,,,,,,,,,,,,,,,,repeat,letter,lettRpt,d,noRew,,,,,,1.1156,0,39,0,39,0,1,,,,,,,,,,,,,,,,,
296047,2022-10-05_13h17.15.749,vts_reward_expectancy,2022.2.4,MacIntel,60.0024001,Chrome,1440,900,,,,,0,576,,,,,,,,,,,,,,,,,F,181,triangle,1,0,,,,,,,,,,,,,,,,repeat,letter,lettRpt,d,noRew,,,,,,0.7851,0,40,0,40,0,1,,,,,,,,,,,,,,,,,
296047,2022-10-05_13h17.15.749,vts_reward_expectancy,2022.2.4,MacIntel,60.0024001,Chrome,1440,900,,,,,0,576,,,,,,,,,,,,,,,,,B,174,hexagon,1,0,,,,,,,,,,,,,,,,switch,number,numSwt,k,noRew,,,,,,0.7692,0,41,0,41,0,1,,,,,,,,,,,,,,,,,
296047,2022-10-05_13h17.15.749,vts_reward_expectancy,2022.2.4,MacIntel,60.0024001,Chrome,1440,900,,,,,0,576,,,,,,,,,,,,,,,,,W,146,star,1,0,,,,,,,,,,,,,,,,repeat,number,numRpt,j,noRew,,,,,,0.9975,0,42,0,42,0,1,,,,,,,,,,,,,,,,,
296047,2022-10-05_13h17.15.749,vts_reward_expectancy,2022.2.4,MacIntel,60.0024001,Chrome,1440,900,,,,,0,576,,,,,,,,,,,,,,,,,U,160,triangle,1,0,,,,,,,,,,,,,,,,switch,letter,lettSwt,f,noRew,,,,,,0.6641,0,43,0,43,0,1,,,,,,,,,,,,,,,,,
296047,2022-10-05_13h17.15.749,vts_reward_expectancy,2022.2.4,MacIntel,60.0024001,Chrome,1440,900,,,,,0,576,,,,,,,,,,,,,,,,,D,132,star,1,0,,,,,,,,,,,,,,,,repeat,letter,lettRpt,d,noRew,,,,,,0.7292,0,44,0,44,0,1,,,,,,,,,,,,,,,,,
296047,2022-10-05_13h17.15.749,vts_reward_expectancy,2022.2.4,MacIntel,60.0024001,Chrome,1440,900,,,,,0,576,,,,,,,,,,,,,,,,,H,181,circle,1,0,,,,,,,,,,,,,,,,switch,number,numSwt,k,noRew,,,,,,0.7073,0,45,0,45,0,1,,,,,,,,,,,,,,,,,
296047,2022-10-05_13h17.15.749,vts_reward_expectancy,2022.2.4,MacIntel,60.0024001,Chrome,1440,900,,,,,0,576,,,,,,,,,,,,,,,,,F,167,circle,1,0,,,,,,,,,,,,,,,,repeat,number,numRpt,k,noRew,,,,,,1.5474,0,46,0,46,0,1,,,,,,,,,,,,,,,,,
296047,2022-10-05_13h17.15.749,vts_reward_expectancy,2022.2.4,MacIntel,60.0024001,Chrome,1440,900,,,,,0,576,,,,,,,,,,,,,,,,,U,125,triangle,1,0,,,,,,,,,,,,,,,,switch,letter,lettSwt,f,noRew,,,,,,1.0336,0,47,0,47,0,1,,,,,,,,,,,,,,,,,
296047,2022-10-05_13h17.15.749,vts_reward_expectancy,2022.2.4,MacIntel,60.0024001,Chrome,1440,900,,,,,0,576,,,,,,,,,,,,,,,,,U,167,triangle,1,0,,,,,,,,,,,,,,,,repeat,letter,lettRpt,f,noRew,,,,,,0.8706,0,48,0,48,0,1,,,,,,,,,,,,,,,,,
296047,2022-10-05_13h17.15.749,vts_reward_expectancy,2022.2.4,MacIntel,60.0024001,Chrome,1440,900,,,,,0,576,,,,,,,,,,,,,,,,,S,146,circle,1,0,,,,,,,,,,,,,,,,switch,number,numSwt,j,noRew,,,,,,1.9137,0,49,0,49,0,1,,,,,,,,,,,,,,,,,
296047,2022-10-05_13h17.15.749,vts_reward_expectancy,2022.2.4,MacIntel,60.0024001,Chrome,1440,900,,,,,0,576,,,,,,,,,,,,,,,,,B,139,triangle,1,0,,,,,,,,,,,,,,,,repeat,number,numRpt,j,noRew,,,,,,1.5484,0,50,0,50,0,1,,,,,,,,,,,,,,,,,
296047,2022-10-05_13h17.15.749,vts_reward_expectancy,2022.2.4,MacIntel,60.0024001,Chrome,1440,900,,,,,0,576,,,,,,,,,,,,,,,,,W,160,circle,1,0,,,,,,,,,,,,,,,,repeat,number,numRpt,k,noRew,,,,,,1.098,0,51,0,51,0,1,,,,,,,,,,,,,,,,,
296047,2022-10-05_13h17.15.749,vts_reward_expectancy,2022.2.4,MacIntel,60.0024001,Chrome,1440,900,,,,,0,576,,,,,,,,,,,,,,,,,S,132,hexagon,1,0,,,,,,,,,,,,,,,,switch,letter,lettSwt,f,noRew,,,,,,0.8805,0,52,0,52,0,1,,,,,,,,,,,,,,,,,
296047,2022-10-05_13h17.15.749,vts_reward_expectancy,2022.2.4,MacIntel,60.0024001,Chrome,1440,900,,,,,0,576,,,,,,,,,,,,,,,,,W,139,circle,0,0,,,,,,,,,,,,,,,,switch,number,NA,k,noRew,,,,,,0.953,0,53,0,53,0,1,,,,,,,,,,,,,,,,,
296047,2022-10-05_13h17.15.749,vts_reward_expectancy,2022.2.4,MacIntel,60.0024001,Chrome,1440,900,,,,,0,576,,,,,,,,,,,,,,,,,Y,125,hexagon,1,1,,,,,,,,,,,,,,,,repeat,number,numRpt,j,noRew,,,,,,0.7135,0,54,0,54,0,1,,,,,,,,,,,,,,,,,
296047,2022-10-05_13h17.15.749,vts_reward_expectancy,2022.2.4,MacIntel,60.0024001,Chrome,1440,900,,,,,0,576,,,,,,,,,,,,,,,,,U,181,star,1,0,,,,,,,,,,,,,,,,repeat,number,numRpt,k,noRew,,,,,,0.7311,0,55,0,55,0,1,,,,,,,,,,,,,,,,,
296047,2022-10-05_13h17.15.749,vts_reward_expectancy,2022.2.4,MacIntel,60.0024001,Chrome,1440,900,,,,,0,576,,,,,,,,,,,,,,,,,U,139,star,1,0,,,,,,,,,,,,,,,,repeat,number,numRpt,j,noRew,,,,,,1.152,0,56,0,56,0,1,,,,,,,,,,,,,,,,,
296047,2022-10-05_13h17.15.749,vts_reward_expectancy,2022.2.4,MacIntel,60.0024001,Chrome,1440,900,,,,,0,576,,,,,,,,,,,,,,,,,S,181,triangle,1,0,,,,,,,,,,,,,,,,repeat,number,numRpt,k,noRew,,,,,,0.6839,0,57,0,57,0,1,,,,,,,,,,,,,,,,,
296047,2022-10-05_13h17.15.749,vts_reward_expectancy,2022.2.4,MacIntel,60.0024001,Chrome,1440,900,,,,,0,576,,,,,,,,,,,,,,,,,F,160,hexagon,1,0,,,,,,,,,,,,,,,,switch,letter,lettSwt,d,noRew,,,,,,1.2939,0,58,0,58,0,1,,,,,,,,,,,,,,,,,
296047,2022-10-05_13h17.15.749,vts_reward_expectancy,2022.2.4,MacIntel,60.0024001,Chrome,1440,900,,,,,0,576,,,,,,,,,,,,,,,,,B,132,circle,1,0,,,,,,,,,,,,,,,,switch,number,numSwt,j,noRew,,,,,,0.9969,0,59,0,59,0,1,,,,,,,,,,,,,,,,,
296047,2022-10-05_13h17.15.749,vts_reward_expectancy,2022.2.4,MacIntel,60.0024001,Chrome,1440,900,,,,,0,576,,,,,,,,,,,,,,,,,W,174,triangle,1,0,,,,,,,,,,,,,,,,switch,letter,lettSwt,f,noRew,,,,,,0.7142,0,60,0,60,0,1,,,,,,,,,,,,,,,,,
296047,2022-10-05_13h17.15.749,vts_reward_expectancy,2022.2.4,MacIntel,60.0024001,Chrome,1440,900,,,,,0,576,,,,,,,,,,,,,,,,,Y,132,star,1,0,,,,,,,,,,,,,,,,repeat,letter,lettRpt,f,noRew,,,,,,0.914,0,61,0,61,0,1,,,,,,,,,,,,,,,,,
296047,2022-10-05_13h17.15.749,vts_reward_expectancy,2022.2.4,MacIntel,60.0024001,Chrome,1440,900,,,,,0,576,,,,,,,,,,,,,,,,,U,125,triangle,1,0,,,,,,,,,,,,,,,,switch,number,numSwt,j,noRew,,,,,,1.1883,0,62,0,62,0,1,,,,,,,,,,,,,,,,,
296047,2022-10-05_13h17.15.749,vts_reward_expectancy,2022.2.4,MacIntel,60.0024001,Chrome,1440,900,,,,,0,576,,,,,,,,,,,,,,,,,F,167,hexagon,1,0,,,,,,,,,,,,,,,,repeat,number,numRpt,k,noRew,,,,,,0.9493,0,63,0,63,0,1,,,,,,,,,,,,,,,,,
296047,2022-10-05_13h17.15.749,vts_reward_expectancy,2022.2.4,MacIntel,60.0024001,Chrome,1440,900,,,,,,,,,,,,,,,,,,,,,,,,,,,,,,,,,,,,,,,,,,,,,,,,,,,,,,,,,,,,,,,,,,,,,,,,,,,,
296047,2022-10-05_13h17.15.749,vts_reward_expectancy,2022.2.4,MacIntel,60.0024001,Chrome,1440,900,,,,,0,576,,,,,,,,,,,,,,,,,F,125,circle,-1,0,,,,,,,,,,,,,,,,switch,no_choice,NA,,noRew,,,,,,,0,,,,,,space,4.6079,low,0,0,0,0,1,,,,,,,,,
296047,2022-10-05_13h17.15.749,vts_reward_expectancy,2022.2.4,MacIntel,60.0024001,Chrome,1440,900,,,,,1,577,,,,,,,,,,,,,,,,,S,160,star,1,0,,,,,,,,,,,,,,,,switch,letter,lettSwt,f,Lo,,,,,,0.8626,0,,,,,,,,low,1,0,1,0,1,,,,,,,,,
296047,2022-10-05_13h17.15.749,vts_reward_expectancy,2022.2.4,MacIntel,60.0024001,Chrome,1440,900,,,,,1,578,,,,,,,,,,,,,,,,,H,167,circle,1,0,,,,,,,,,,,,,,,,switch,number,numSwt,k,Hi,,,,,,0.7477,0,,,,,,,,low,2,0,2,0,1,,,,,,,,,
296047,2022-10-05_13h17.15.749,vts_reward_expectancy,2022.2.4,MacIntel,60.0024001,Chrome,1440,900,,,,,1,579,,,,,,,,,,,,,,,,,B,146,star,1,0,,,,,,,,,,,,,,,,repeat,number,numRpt,j,Lo,,,,,,0.8994,0,,,,,,,,low,3,0,3,0,1,,,,,,,,,
296047,2022-10-05_13h17.15.749,vts_reward_expectancy,2022.2.4,MacIntel,60.0024001,Chrome,1440,900,,,,,0,579,,,,,,,,,,,,,,,,,W,181,circle,1,0,,,,,,,,,,,,,,,,switch,letter,lettSwt,f,Hi,,,,,,0.846,0,,,,,,,,low,4,0,4,0,1,,,,,,,,,
296047,2022-10-05_13h17.15.749,vts_reward_expectancy,2022.2.4,MacIntel,60.0024001,Chrome,1440,900,,,,,1,580,,,,,,,,,,,,,,,,,D,174,star,1,0,,,,,,,,,,,,,,,,repeat,letter,lettRpt,d,Lo,,,,,,0.6476,0,,,,,,,,low,5,0,5,0,1,,,,,,,,,
296047,2022-10-05_13h17.15.749,vts_reward_expectancy,2022.2.4,MacIntel,60.0024001,Chrome,1440,900,,,,,1,581,,,,,,,,,,,,,,,,,U,132,circle,1,0,,,,,,,,,,,,,,,,switch,number,numSwt,j,Hi,,,,,,0.7484,0,,,,,,,,low,6,0,6,0,1,,,,,,,,,
296047,2022-10-05_13h17.15.749,vts_reward_expectancy,2022.2.4,MacIntel,60.0024001,Chrome,1440,900,,,,,1,582,,,,,,,,,,,,,,,,,Y,139,star,1,0,,,,,,,,,,,,,,,,repeat,number,numRpt,j,Lo,,,,,,0.6597,0,,,,,,,,low,7,0,7,0,1,,,,,,,,,
296047,2022-10-05_13h17.15.749,vts_reward_expectancy,2022.2.4,MacIntel,60.0024001,Chrome,1440,900,,,,,10,592,,,,,,,,,,,,,,,,,F,125,circle,1,0,,,,,,,,,,,,,,,,repeat,number,numRpt,j,Hi,,,,,,0.6138,0,,,,,,,,low,8,0,8,0,1,,,,,,,,,
296047,2022-10-05_13h17.15.749,vts_reward_expectancy,2022.2.4,MacIntel,60.0024001,Chrome,1440,900,,,,,0,592,,,,,,,,,,,,,,,,,S,160,star,0,0,,,,,,,,,,,,,,,,repeat,number,NA,j,Hi,,,,,,0.7529,0,,,,,,,,low,9,0,9,0,1,,,,,,,,,
296047,2022-10-05_13h17.15.749,vts_reward_expectancy,2022.2.4,MacIntel,60.0024001,Chrome,1440,900,,,,,10,602,,,,,,,,,,,,,,,,,H,167,circle,1,1,,,,,,,,,,,,,,,,repeat,number,numRpt,k,Hi,,,,,,0.3997,0,,,,,,,,low,10,0,10,0,1,,,,,,,,,
296047,2022-10-05_13h17.15.749,vts_reward_expectancy,2022.2.4,MacIntel,60.0024001,Chrome,1440,900,,,,,1,603,,,,,,,,,,,,,,,,,B,146,star,1,0,,,,,,,,,,,,,,,,switch,letter,lettSwt,d,Lo,,,,,,0.9893,0,,,,,,,,low,11,0,11,0,1,,,,,,,,,
296047,2022-10-05_13h17.15.749,vts_reward_expectancy,2022.2.4,MacIntel,60.0024001,Chrome,1440,900,,,,,10,613,,,,,,,,,,,,,,,,,W,181,star,1,0,,,,,,,,,,,,,,,,switch,number,numSwt,k,Lo,,,,,,0.5615,0,,,,,,,,low,12,0,12,0,1,,,,,,,,,
296047,2022-10-05_13h17.15.749,vts_reward_expectancy,2022.2.4,MacIntel,60.0024001,Chrome,1440,900,,,,,0,613,,,,,,,,,,,,,,,,,D,174,circle,0,0,,,,,,,,,,,,,,,,switch,letter,NA,f,Lo,,,,,,0.8368,0,,,,,,,,low,13,0,13,0,1,,,,,,,,,
296047,2022-10-05_13h17.15.749,vts_reward_expectancy,2022.2.4,MacIntel,60.0024001,Chrome,1440,900,,,,,0,613,,,,,,,,,,,,,,,,,U,132,circle,1,1,,,,,,,,,,,,,,,,switch,number,numSwt,j,Hi,,,,,,0.8317,0,,,,,,,,low,14,0,14,0,1,,,,,,,,,
296047,2022-10-05_13h17.15.749,vts_reward_expectancy,2022.2.4,MacIntel,60.0024001,Chrome,1440,900,,,,,0,613,,,,,,,,,,,,,,,,,Y,139,star,0,0,,,,,,,,,,,,,,,,repeat,number,NA,k,Hi,,,,,,0.4052,0,,,,,,,,low,15,0,15,0,1,,,,,,,,,
296047,2022-10-05_13h17.15.749,vts_reward_expectancy,2022.2.4,MacIntel,60.0024001,Chrome,1440,900,,,,,0,613,,,,,,,,,,,,,,,,,U,181,circle,1,1,,,,,,,,,,,,,,,,repeat,number,numRpt,k,Hi,,,,,,1.1505,0,,,,,,,,low,16,0,16,0,1,,,,,,,,,
296047,2022-10-05_13h17.15.749,vts_reward_expectancy,2022.2.4,MacIntel,60.0024001,Chrome,1440,900,,,,,1,614,,,,,,,,,,,,,,,,,B,174,star,1,0,,,,,,,,,,,,,,,,switch,letter,lettSwt,d,Lo,,,,,,0.8463,0,,,,,,,,low,17,0,17,0,1,,,,,,,,,
296047,2022-10-05_13h17.15.749,vts_reward_expectancy,2022.2.4,MacIntel,60.0024001,Chrome,1440,900,,,,,10,624,,,,,,,,,,,,,,,,,F,146,circle,1,0,,,,,,,,,,,,,,,,switch,number,numSwt,j,Hi,,,,,,0.7701,0,,,,,,,,low,18,0,18,0,1,,,,,,,,,
296047,2022-10-05_13h17.15.749,vts_reward_expectancy,2022.2.4,MacIntel,60.0024001,Chrome,1440,900,,,,,10,634,,,,,,,,,,,,,,,,,W,167,star,1,0,,,,,,,,,,,,,,,,repeat,number,numRpt,k,Lo,,,,,,1.1636,0,,,,,,,,low,19,0,19,0,1,,,,,,,,,
296047,2022-10-05_13h17.15.749,vts_reward_expectancy,2022.2.4,MacIntel,60.0024001,Chrome,1440,900,,,,,0,634,,,,,,,,,,,,,,,,,D,132,circle,1,0,,,,,,,,,,,,,,,,switch,letter,lettSwt,d,Hi,,,,,,0.8643,0,,,,,,,,low,20,0,20,0,1,,,,,,,,,
296047,2022-10-05_13h17.15.749,vts_reward_expectancy,2022.2.4,MacIntel,60.0024001,Chrome,1440,900,,,,,10,644,,,,,,,,,,,,,,,,,H,125,star,1,0,,,,,,,,,,,,,,,,repeat,letter,lettRpt,d,Lo,,,,,,0.9062,0,,,,,,,,low,21,0,21,0,1,,,,,,,,,
296047,2022-10-05_13h17.15.749,vts_reward_expectancy,2022.2.4,MacIntel,60.0024001,Chrome,1440,900,,,,,10,654,,,,,,,,,,,,,,,,,S,160,circle,1,0,,,,,,,,,,,,,,,,repeat,letter,lettRpt,f,Hi,,,,,,0.732,0,,,,,,,,low,22,0,22,0,1,,,,,,,,,
296047,2022-10-05_13h17.15.749,vts_reward_expectancy,2022.2.4,MacIntel,60.0024001,Chrome,1440,900,,,,,10,664,,,,,,,,,,,,,,,,,Y,139,star,1,0,,,,,,,,,,,,,,,,switch,number,numSwt,j,Lo,,,,,,0.6984,0,,,,,,,,low,23,0,23,0,1,,,,,,,,,
296047,2022-10-05_13h17.15.749,vts_reward_expectancy,2022.2.4,MacIntel,60.0024001,Chrome,1440,900,,,,,0,664,,,,,,,,,,,,,,,,,D,167,circle,1,0,,,,,,,,,,,,,,,,switch,letter,lettSwt,d,Hi,,,,,,0.8221,0,,,,,,,,low,24,0,24,0,1,,,,,,,,,
296047,2022-10-05_13h17.15.749,vts_reward_expectancy,2022.2.4,MacIntel,60.0024001,Chrome,1440,900,,,,,1,665,,,,,,,,,,,,,,,,,U,181,star,1,0,,,,,,,,,,,,,,,,switch,number,numSwt,k,Lo,,,,,,0.5499,0,,,,,,,,low,25,0,25,0,1,,,,,,,,,
296047,2022-10-05_13h17.15.749,vts_reward_expectancy,2022.2.4,MacIntel,60.0024001,Chrome,1440,900,,,,,10,675,,,,,,,,,,,,,,,,,Y,160,circle,1,0,,,,,,,,,,,,,,,,repeat,number,numRpt,k,Hi,,,,,,0.5979,0,,,,,,,,low,26,0,26,0,1,,,,,,,,,
296047,2022-10-05_13h17.15.749,vts_reward_expectancy,2022.2.4,MacIntel,60.0024001,Chrome,1440,900,,,,,1,676,,,,,,,,,,,,,,,,,S,174,star,1,0,,,,,,,,,,,,,,,,repeat,number,numRpt,k,Lo,,,,,,0.5551,0,,,,,,,,low,27,0,27,0,1,,,,,,,,,
296047,2022-10-05_13h17.15.749,vts_reward_expectancy,2022.2.4,MacIntel,60.0024001,Chrome,1440,900,,,,,1,677,,,,,,,,,,,,,,,,,B,132,star,1,0,,,,,,,,,,,,,,,,switch,letter,lettSwt,d,Lo,,,,,,0.9008,0,,,,,,,,low,28,0,28,0,1,,,,,,,,,
296047,2022-10-05_13h17.15.749,vts_reward_expectancy,2022.2.4,MacIntel,60.0024001,Chrome,1440,900,,,,,10,687,,,,,,,,,,,,,,,,,F,146,circle,1,0,,,,,,,,,,,,,,,,switch,number,numSwt,j,Hi,,,,,,0.7057,0,,,,,,,,low,29,0,29,0,1,,,,,,,,,
296047,2022-10-05_13h17.15.749,vts_reward_expectancy,2022.2.4,MacIntel,60.0024001,Chrome,1440,900,,,,,10,697,,,,,,,,,,,,,,,,,W,139,circle,1,0,,,,,,,,,,,,,,,,repeat,number,numRpt,j,Hi,,,,,,0.6986,0,,,,,,,,low,30,0,30,0,1,,,,,,,,,
296047,2022-10-05_13h17.15.749,vts_reward_expectancy,2022.2.4,MacIntel,60.0024001,Chrome,1440,900,,,,,1,698,,,,,,,,,,,,,,,,,H,125,star,1,0,,,,,,,,,,,,,,,,repeat,number,numRpt,j,Lo,,,,,,0.6147,0,,,,,,,,low,31,0,31,0,1,,,,,,,,,
296047,2022-10-05_13h17.15.749,vts_reward_expectancy,2022.2.4,MacIntel,60.0024001,Chrome,1440,900,,,,,0,698,,,,,,,,,,,,,,,,,H,146,hexagon,1,0,,,,,,,,,,,,,,,,repeat,number,numRpt,j,Hi,,,,,,0.6818,1,,,,,,space,6.3738,high,0,0,0,0,1,,,,,,,,,
296047,2022-10-05_13h17.15.749,vts_reward_expectancy,2022.2.4,MacIntel,60.0024001,Chrome,1440,900,,,,,10,708,,,,,,,,,,,,,,,,,B,167,triangle,1,0,,,,,,,,,,,,,,,,repeat,number,numRpt,k,Lo,,,,,,0.6708,1,,,,,,,,high,1,0,1,0,1,,,,,,,,,
296047,2022-10-05_13h17.15.749,vts_reward_expectancy,2022.2.4,MacIntel,60.0024001,Chrome,1440,900,,,,,10,718,,,,,,,,,,,,,,,,,U,132,hexagon,1,0,,,,,,,,,,,,,,,,switch,letter,lettSwt,f,Hi,,,,,,0.6995,1,,,,,,,,high,2,0,2,0,1,,,,,,,,,
296047,2022-10-05_13h17.15.749,vts_reward_expectancy,2022.2.4,MacIntel,60.0024001,Chrome,1440,900,,,,,1,719,,,,,,,,,,,,,,,,,S,160,triangle,1,0,,,,,,,,,,,,,,,,switch,number,numSwt,k,Lo,,,,,,0.5987,1,,,,,,,,high,3,0,3,0,1,,,,,,,,,
296047,2022-10-05_13h17.15.749,vts_reward_expectancy,2022.2.4,MacIntel,60.0024001,Chrome,1440,900,,,,,0,719,,,,,,,,,,,,,,,,,D,174,hexagon,1,0,,,,,,,,,,,,,,,,repeat,number,numRpt,k,Hi,,,,,,0.8299,1,,,,,,,,high,4,0,4,0,1,,,,,,,,,
296047,2022-10-05_13h17.15.749,vts_reward_expectancy,2022.2.4,MacIntel,60.0024001,Chrome,1440,900,,,,,10,729,,,,,,,,,,,,,,,,,W,125,triangle,1,0,,,,,,,,,,,,,,,,switch,letter,lettSwt,f,Lo,,,,,,0.7338,1,,,,,,,,high,5,0,5,0,1,,,,,,,,,
296047,2022-10-05_13h17.15.749,vts_reward_expectancy,2022.2.4,MacIntel,60.0024001,Chrome,1440,900,,,,,0,729,,,,,,,,,,,,,,,,,F,139,triangle,0,0,,,,,,,,,,,,,,,,switch,number,NA,k,Lo,,,,,,0.5299,1,,,,,,,,high,6,0,6,0,1,,,,,,,,,
296047,2022-10-05_13h17.15.749,vts_reward_expectancy,2022.2.4,MacIntel,60.0024001,Chrome,1440,900,,,,,0,729,,,,,,,,,,,,,,,,,Y,181,hexagon,1,1,,,,,,,,,,,,,,,,repeat,number,numRpt,k,Hi,,,,,,0.8799,1,,,,,,,,high,7,0,7,0,1,,,,,,,,,
296047,2022-10-05_13h17.15.749,vts_reward_expectancy,2022.2.4,MacIntel,60.0024001,Chrome,1440,900,,,,,10,739,,,,,,,,,,,,,,,,,H,146,triangle,1,0,,,,,,,,,,,,,,,,repeat,number,numRpt,j,Lo,,,,,,1.1798,1,,,,,,,,high,8,0,8,0,1,,,,,,,,,
296047,2022-10-05_13h17.15.749,vts_reward_expectancy,2022.2.4,MacIntel,60.0024001,Chrome,1440,900,,,,,0,739,,,,,,,,,,,,,,,,,B,167,hexagon,0,0,,,,,,,,,,,,,,,,repeat,number,NA,j,Lo,,,,,,0.8285,1,,,,,,,,high,9,0,9,0,1,,,,,,,,,
296047,2022-10-05_13h17.15.749,vts_reward_expectancy,2022.2.4,MacIntel,60.0024001,Chrome,1440,900,,,,,10,749,,,,,,,,,,,,,,,,,U,132,hexagon,1,1,,,,,,,,,,,,,,,,switch,letter,lettSwt,f,Hi,,,,,,0.8134,1,,,,,,,,high,10,0,10,0,1,,,,,,,,,
296047,2022-10-05_13h17.15.749,vts_reward_expectancy,2022.2.4,MacIntel,60.0024001,Chrome,1440,900,,,,,0,749,,,,,,,,,,,,,,,,,S,160,triangle,0,0,,,,,,,,,,,,,,,,switch,number,NA,j,Hi,,,,,,1.3307,1,,,,,,,,high,11,0,11,0,1,,,,,,,,,
296047,2022-10-05_13h17.15.749,vts_reward_expectancy,2022.2.4,MacIntel,60.0024001,Chrome,1440,900,,,,,0,749,,,,,,,,,,,,,,,,,D,174,hexagon,1,1,,,,,,,,,,,,,,,,repeat,number,numRpt,k,Hi,,,,,,0.8073,1,,,,,,,,high,12,0,12,0,1,,,,,,,,,
296047,2022-10-05_13h17.15.749,vts_reward_expectancy,2022.2.4,MacIntel,60.0024001,Chrome,1440,900,,,,,1,750,,,,,,,,,,,,,,,,,W,125,triangle,1,0,,,,,,,,,,,,,,,,switch,letter,lettSwt,f,Lo,,,,,,1.1136,1,,,,,,,,high,13,0,13,0,1,,,,,,,,,
296047,2022-10-05_13h17.15.749,vts_reward_expectancy,2022.2.4,MacIntel,60.0024001,Chrome,1440,900,,,,,1,751,,,,,,,,,,,,,,,,,F,139,triangle,1,0,,,,,,,,,,,,,,,,repeat,letter,lettRpt,d,Lo,,,,,,0.8996,1,,,,,,,,high,14,0,14,0,1,,,,,,,,,
296047,2022-10-05_13h17.15.749,vts_reward_expectancy,2022.2.4,MacIntel,60.0024001,Chrome,1440,900,,,,,0,751,,,,,,,,,,,,,,,,,Y,181,hexagon,1,0,,,,,,,,,,,,,,,,switch,number,numSwt,k,Hi,,,,,,0.8532,1,,,,,,,,high,15,0,15,0,1,,,,,,,,,
296047,2022-10-05_13h17.15.749,vts_reward_expectancy,2022.2.4,MacIntel,60.0024001,Chrome,1440,900,,,,,0,751,,,,,,,,,,,,,,,,,D,146,hexagon,1,0,,,,,,,,,,,,,,,,repeat,number,numRpt,j,Hi,,,,,,1.2975,1,,,,,,,,high,16,0,16,0,1,,,,,,,,,
296047,2022-10-05_13h17.15.749,vts_reward_expectancy,2022.2.4,MacIntel,60.0024001,Chrome,1440,900,,,,,1,752,,,,,,,,,,,,,,,,,F,139,triangle,1,0,,,,,,,,,,,,,,,,repeat,number,numRpt,j,Lo,,,,,,0.8662,1,,,,,,,,high,17,0,17,0,1,,,,,,,,,
296047,2022-10-05_13h17.15.749,vts_reward_expectancy,2022.2.4,MacIntel,60.0024001,Chrome,1440,900,,,,,0,752,,,,,,,,,,,,,,,,,H,132,hexagon,1,0,,,,,,,,,,,,,,,,switch,letter,lettSwt,d,Hi,,,,,,0.9128,1,,,,,,,,high,18,0,18,0,1,,,,,,,,,
296047,2022-10-05_13h17.15.749,vts_reward_expectancy,2022.2.4,MacIntel,60.0024001,Chrome,1440,900,,,,,1,753,,,,,,,,,,,,,,,,,S,174,triangle,1,0,,,,,,,,,,,,,,,,repeat,letter,lettRpt,f,Lo,,,,,,0.7978,1,,,,,,,,high,19,0,19,0,1,,,,,,,,,
296047,2022-10-05_13h17.15.749,vts_reward_expectancy,2022.2.4,MacIntel,60.0024001,Chrome,1440,900,,,,,10,763,,,,,,,,,,,,,,,,,Y,160,hexagon,1,0,,,,,,,,,,,,,,,,repeat,letter,lettRpt,f,Hi,,,,,,0.5809,1,,,,,,,,high,20,0,20,0,1,,,,,,,,,
296047,2022-10-05_13h17.15.749,vts_reward_expectancy,2022.2.4,MacIntel,60.0024001,Chrome,1440,900,,,,,1,764,,,,,,,,,,,,,,,,,W,181,triangle,1,0,,,,,,,,,,,,,,,,switch,number,numSwt,k,Lo,,,,,,0.7073,1,,,,,,,,high,21,0,21,0,1,,,,,,,,,
296047,2022-10-05_13h17.15.749,vts_reward_expectancy,2022.2.4,MacIntel,60.0024001,Chrome,1440,900,,,,,10,774,,,,,,,,,,,,,,,,,U,125,hexagon,1,0,,,,,,,,,,,,,,,,repeat,number,numRpt,j,Hi,,,,,,0.5467,1,,,,,,,,high,22,0,22,0,1,,,,,,,,,
296047,2022-10-05_13h17.15.749,vts_reward_expectancy,2022.2.4,MacIntel,60.0024001,Chrome,1440,900,,,,,1,775,,,,,,,,,,,,,,,,,B,167,triangle,1,0,,,,,,,,,,,,,,,,switch,letter,lettSwt,d,Lo,,,,,,0.4744,1,,,,,,,,high,23,0,23,0,1,,,,,,,,,
296047,2022-10-05_13h17.15.749,vts_reward_expectancy,2022.2.4,MacIntel,60.0024001,Chrome,1440,900,,,,,1,776,,,,,,,,,,,,,,,,,Y,181,triangle,1,0,,,,,,,,,,,,,,,,switch,number,numSwt,k,Lo,,,,,,0.766,1,,,,,,,,high,24,0,24,0,1,,,,,,,,,
296047,2022-10-05_13h17.15.749,vts_reward_expectancy,2022.2.4,MacIntel,60.0024001,Chrome,1440,900,,,,,0,776,,,,,,,,,,,,,,,,,H,174,hexagon,0,0,,,,,,,,,,,,,,,,repeat,number,NA,j,Lo,,,,,,0.5651,1,,,,,,,,high,25,0,25,0,1,,,,,,,,,
296047,2022-10-05_13h17.15.749,vts_reward_expectancy,2022.2.4,MacIntel,60.0024001,Chrome,1440,900,,,,,0,776,,,,,,,,,,,,,,,,,B,160,hexagon,0,1,,,,,,,,,,,,,,,,repeat,number,NA,j,Lo,,,,,,1.4639,1,,,,,,,,high,26,0,26,0,1,,,,,,,,,
296047,2022-10-05_13h17.15.749,vts_reward_expectancy,2022.2.4,MacIntel,60.0024001,Chrome,1440,900,,,,,1,777,,,,,,,,,,,,,,,,,U,139,triangle,1,1,,,,,,,,,,,,,,,,repeat,number,numRpt,j,Lo,,,,,,0.6797,1,,,,,,,,high,27,0,27,0,1,,,,,,,,,
296047,2022-10-05_13h17.15.749,vts_reward_expectancy,2022.2.4,MacIntel,60.0024001,Chrome,1440,900,,,,,1,778,,,,,,,,,,,,,,,,,W,132,triangle,1,0,,,,,,,,,,,,,,,,repeat,number,numRpt,j,Lo,,,,,,0.7307,1,,,,,,,,high,28,0,28,0,1,,,,,,,,,
296047,2022-10-05_13h17.15.749,vts_reward_expectancy,2022.2.4,MacIntel,60.0024001,Chrome,1440,900,,,,,0,778,,,,,,,,,,,,,,,,,F,125,hexagon,1,0,,,,,,,,,,,,,,,,switch,letter,lettSwt,d,Hi,,,,,,1.0042,1,,,,,,,,high,29,0,29,0,1,,,,,,,,,
296047,2022-10-05_13h17.15.749,vts_reward_expectancy,2022.2.4,MacIntel,60.0024001,Chrome,1440,900,,,,,1,779,,,,,,,,,,,,,,,,,S,167,triangle,1,0,,,,,,,,,,,,,,,,repeat,letter,lettRpt,f,Lo,,,,,,0.7837,1,,,,,,,,high,30,0,30,0,1,,,,,,,,,
296047,2022-10-05_13h17.15.749,vts_reward_expectancy,2022.2.4,MacIntel,60.0024001,Chrome,1440,900,,,,,0,779,,,,,,,,,,,,,,,,,D,146,hexagon,1,0,,,,,,,,,,,,,,,,repeat,letter,lettRpt,d,Hi,,,,,,0.7638,1,,,,,,,,high,31,0,31,0,1,,,,,,,,,
296047,2022-10-05_13h17.15.749,vts_reward_expectancy,2022.2.4,MacIntel,60.0024001,Chrome,1440,900,,,,,1,780,,,,,,,,,,,,,,,,,B,160,star,1,0,,,,,,,,,,,,,,,,switch,number,numSwt,k,Lo,,,,,,0.6128,2,,,,,,space,3.7708,low,0,0,0,0,1,,,,,,,,,
296047,2022-10-05_13h17.15.749,vts_reward_expectancy,2022.2.4,MacIntel,60.0024001,Chrome,1440,900,,,,,10,790,,,,,,,,,,,,,,,,,D,125,circle,1,0,,,,,,,,,,,,,,,,switch,letter,lettSwt,d,Hi,,,,,,0.6318,2,,,,,,,,low,1,0,1,0,1,,,,,,,,,
296047,2022-10-05_13h17.15.749,vts_reward_expectancy,2022.2.4,MacIntel,60.0024001,Chrome,1440,900,,,,,10,800,,,,,,,,,,,,,,,,,U,139,star,1,0,,,,,,,,,,,,,,,,repeat,letter,lettRpt,f,Lo,,,,,,0.6446,2,,,,,,,,low,2,0,2,0,1,,,,,,,,,
296047,2022-10-05_13h17.15.749,vts_reward_expectancy,2022.2.4,MacIntel,60.0024001,Chrome,1440,900,,,,,10,810,,,,,,,,,,,,,,,,,S,146,circle,1,0,,,,,,,,,,,,,,,,switch,number,numSwt,j,Hi,,,,,,0.5984,2,,,,,,,,low,3,0,3,0,1,,,,,,,,,
296047,2022-10-05_13h17.15.749,vts_reward_expectancy,2022.2.4,MacIntel,60.0024001,Chrome,1440,900,,,,,10,820,,,,,,,,,,,,,,,,,Y,132,star,1,0,,,,,,,,,,,,,,,,switch,letter,lettSwt,f,Lo,,,,,,0.6629,2,,,,,,,,low,4,0,4,0,1,,,,,,,,,
296047,2022-10-05_13h17.15.749,vts_reward_expectancy,2022.2.4,MacIntel,60.0024001,Chrome,1440,900,,,,,10,830,,,,,,,,,,,,,,,,,W,174,circle,1,0,,,,,,,,,,,,,,,,repeat,letter,lettRpt,f,Hi,,,,,,0.5316,2,,,,,,,,low,5,0,5,0,1,,,,,,,,,
296047,2022-10-05_13h17.15.749,vts_reward_expectancy,2022.2.4,MacIntel,60.0024001,Chrome,1440,900,,,,,1,831,,,,,,,,,,,,,,,,,H,167,star,1,0,,,,,,,,,,,,,,,,switch,number,numSwt,k,Lo,,,,,,0.6005,2,,,,,,,,low,6,0,6,0,1,,,,,,,,,
296047,2022-10-05_13h17.15.749,vts_reward_expectancy,2022.2.4,MacIntel,60.0024001,Chrome,1440,900,,,,,10,841,,,,,,,,,,,,,,,,,F,181,circle,1,0,,,,,,,,,,,,,,,,repeat,number,numRpt,k,Hi,,,,,,0.531,2,,,,,,,,low,7,0,7,0,1,,,,,,,,,
296047,2022-10-05_13h17.15.749,vts_reward_expectancy,2022.2.4,MacIntel,60.0024001,Chrome,1440,900,,,,,1,842,,,,,,,,,,,,,,,,,B,160,star,1,0,,,,,,,,,,,,,,,,switch,letter,lettSwt,d,Lo,,,,,,0.5289,2,,,,,,,,low,8,0,8,0,1,,,,,,,,,
296047,2022-10-05_13h17.15.749,vts_reward_expectancy,2022.2.4,MacIntel,60.0024001,Chrome,1440,900,,,,,1,843,,,,,,,,,,,,,,,,,D,125,circle,1,0,,,,,,,,,,,,,,,,switch,number,numSwt,j,Hi,,,,,,0.5974,2,,,,,,,,low,9,0,9,0,1,,,,,,,,,
296047,2022-10-05_13h17.15.749,vts_reward_expectancy,2022.2.4,MacIntel,60.0024001,Chrome,1440,900,,,,,0,843,,,,,,,,,,,,,,,,,U,139,circle,1,0,,,,,,,,,,,,,,,,switch,letter,lettSwt,f,Hi,,,,,,0.7454,2,,,,,,,,low,10,0,10,0,1,,,,,,,,,
296047,2022-10-05_13h17.15.749,vts_reward_expectancy,2022.2.4,MacIntel,60.0024001,Chrome,1440,900,,,,,1,844,,,,,,,,,,,,,,,,,S,146,star,1,0,,,,,,,,,,,,,,,,repeat,letter,lettRpt,f,Lo,,,,,,0.5638,2,,,,,,,,low,11,0,11,0,1,,,,,,,,,
296047,2022-10-05_13h17.15.749,vts_reward_expectancy,2022.2.4,MacIntel,60.0024001,Chrome,1440,900,,,,,10,854,,,,,,,,,,,,,,,,,Y,132,circle,1,0,,,,,,,,,,,,,,,,switch,number,numSwt,j,Hi,,,,,,0.5295,2,,,,,,,,low,12,0,12,0,1,,,,,,,,,
296047,2022-10-05_13h17.15.749,vts_reward_expectancy,2022.2.4,MacIntel,60.0024001,Chrome,1440,900,,,,,10,864,,,,,,,,,,,,,,,,,W,174,star,1,0,,,,,,,,,,,,,,,,repeat,number,numRpt,k,Lo,,,,,,0.5649,2,,,,,,,,low,13,0,13,0,1,,,,,,,,,
296047,2022-10-05_13h17.15.749,vts_reward_expectancy,2022.2.4,MacIntel,60.0024001,Chrome,1440,900,,,,,0,864,,,,,,,,,,,,,,,,,H,167,circle,1,0,,,,,,,,,,,,,,,,switch,letter,lettSwt,d,Hi,,,,,,1.116,2,,,,,,,,low,14,0,14,0,1,,,,,,,,,
296047,2022-10-05_13h17.15.749,vts_reward_expectancy,2022.2.4,MacIntel,60.0024001,Chrome,1440,900,,,,,1,865,,,,,,,,,,,,,,,,,F,181,star,1,0,,,,,,,,,,,,,,,,switch,number,numSwt,k,Lo,,,,,,0.5229,2,,,,,,,,low,15,0,15,0,1,,,,,,,,,
296047,2022-10-05_13h17.15.749,vts_reward_expectancy,2022.2.4,MacIntel,60.0024001,Chrome,1440,900,,,,,1,866,,,,,,,,,,,,,,,,,F,125,circle,1,0,,,,,,,,,,,,,,,,repeat,number,numRpt,j,Hi,,,,,,0.5332,2,,,,,,,,low,16,0,16,0,1,,,,,,,,,
296047,2022-10-05_13h17.15.749,vts_reward_expectancy,2022.2.4,MacIntel,60.0024001,Chrome,1440,900,,,,,10,876,,,,,,,,,,,,,,,,,W,181,star,1,0,,,,,,,,,,,,,,,,repeat,number,numRpt,k,Lo,,,,,,0.5139,2,,,,,,,,low,17,0,17,0,1,,,,,,,,,
296047,2022-10-05_13h17.15.749,vts_reward_expectancy,2022.2.4,MacIntel,60.0024001,Chrome,1440,900,,,,,10,886,,,,,,,,,,,,,,,,,D,167,circle,1,0,,,,,,,,,,,,,,,,switch,letter,lettSwt,d,Hi,,,,,,0.6138,2,,,,,,,,low,18,0,18,0,1,,,,,,,,,
296047,2022-10-05_13h17.15.749,vts_reward_expectancy,2022.2.4,MacIntel,60.0024001,Chrome,1440,900,,,,,1,887,,,,,,,,,,,,,,,,,B,174,star,1,0,,,,,,,,,,,,,,,,switch,number,numSwt,k,Lo,,,,,,0.4134,2,,,,,,,,low,19,0,19,0,1,,,,,,,,,
296047,2022-10-05_13h17.15.749,vts_reward_expectancy,2022.2.4,MacIntel,60.0024001,Chrome,1440,900,,,,,10,897,,,,,,,,,,,,,,,,,U,146,circle,1,0,,,,,,,,,,,,,,,,switch,letter,lettSwt,f,Hi,,,,,,0.6462,2,,,,,,,,low,20,0,20,0,1,,,,,,,,,
296047,2022-10-05_13h17.15.749,vts_reward_expectancy,2022.2.4,MacIntel,60.0024001,Chrome,1440,900,,,,,10,907,,,,,,,,,,,,,,,,,H,160,star,1,0,,,,,,,,,,,,,,,,switch,number,numSwt,k,Lo,,,,,,0.652,2,,,,,,,,low,21,0,21,0,1,,,,,,,,,
296047,2022-10-05_13h17.15.749,vts_reward_expectancy,2022.2.4,MacIntel,60.0024001,Chrome,1440,900,,,,,10,917,,,,,,,,,,,,,,,,,Y,139,circle,1,0,,,,,,,,,,,,,,,,repeat,number,numRpt,j,Hi,,,,,,0.565,2,,,,,,,,low,22,0,22,0,1,,,,,,,,,
296047,2022-10-05_13h17.15.749,vts_reward_expectancy,2022.2.4,MacIntel,60.0024001,Chrome,1440,900,,,,,10,927,,,,,,,,,,,,,,,,,S,132,star,1,0,,,,,,,,,,,,,,,,switch,letter,lettSwt,f,Lo,,,,,,0.8977,2,,,,,,,,low,23,0,23,0,1,,,,,,,,,
296047,2022-10-05_13h17.15.749,vts_reward_expectancy,2022.2.4,MacIntel,60.0024001,Chrome,1440,900,,,,,10,937,,,,,,,,,,,,,,,,,W,146,circle,1,0,,,,,,,,,,,,,,,,switch,number,numSwt,j,Hi,,,,,,0.6324,2,,,,,,,,low,24,0,24,0,1,,,,,,,,,
296047,2022-10-05_13h17.15.749,vts_reward_expectancy,2022.2.4,MacIntel,60.0024001,Chrome,1440,900,,,,,0,937,,,,,,,,,,,,,,,,,B,167,star,0,0,,,,,,,,,,,,,,,,repeat,number,NA,j,Hi,,,,,,0.8142,2,,,,,,,,low,25,0,25,0,1,,,,,,,,,
296047,2022-10-05_13h17.15.749,vts_reward_expectancy,2022.2.4,MacIntel,60.0024001,Chrome,1440,900,,,,,1,938,,,,,,,,,,,,,,,,,U,160,star,1,1,,,,,,,,,,,,,,,,repeat,number,numRpt,k,Lo,,,,,,0.8823,2,,,,,,,,low,26,0,26,0,1,,,,,,,,,
296047,2022-10-05_13h17.15.749,vts_reward_expectancy,2022.2.4,MacIntel,60.0024001,Chrome,1440,900,,,,,0,938,,,,,,,,,,,,,,,,,S,181,circle,1,0,,,,,,,,,,,,,,,,switch,letter,lettSwt,f,Hi,,,,,,1.0319,2,,,,,,,,low,27,0,27,0,1,,,,,,,,,
296047,2022-10-05_13h17.15.749,vts_reward_expectancy,2022.2.4,MacIntel,60.0024001,Chrome,1440,900,,,,,1,939,,,,,,,,,,,,,,,,,Y,139,star,1,0,,,,,,,,,,,,,,,,repeat,letter,lettRpt,f,Lo,,,,,,0.7796,2,,,,,,,,low,28,0,28,0,1,,,,,,,,,
296047,2022-10-05_13h17.15.749,vts_reward_expectancy,2022.2.4,MacIntel,60.0024001,Chrome,1440,900,,,,,10,949,,,,,,,,,,,,,,,,,F,132,circle,1,0,,,,,,,,,,,,,,,,switch,number,numSwt,j,Hi,,,,,,0.5817,2,,,,,,,,low,29,0,29,0,1,,,,,,,,,
296047,2022-10-05_13h17.15.749,vts_reward_expectancy,2022.2.4,MacIntel,60.0024001,Chrome,1440,900,,,,,10,959,,,,,,,,,,,,,,,,,D,125,star,1,0,,,,,,,,,,,,,,,,repeat,number,numRpt,j,Lo,,,,,,0.5154,2,,,,,,,,low,30,0,30,0,1,,,,,,,,,
296047,2022-10-05_13h17.15.749,vts_reward_expectancy,2022.2.4,MacIntel,60.0024001,Chrome,1440,900,,,,,1,960,,,,,,,,,,,,,,,,,H,174,circle,1,0,,,,,,,,,,,,,,,,switch,letter,lettSwt,d,Hi,,,,,,0.6484,2,,,,,,,,low,31,0,31,0,1,,,,,,,,,
296047,2022-10-05_13h17.15.749,vts_reward_expectancy,2022.2.4,MacIntel,60.0024001,Chrome,1440,900,,,,,0,960,,,,,,,,,,,,,,,,,S,160,circle,1,0,,,,,,,,,,,,,,,,repeat,letter,lettRpt,f,Hi,,,,,,0.6646,3,,,,,,space,0.9781,low,0,0,0,0,1,,,,,,,,,
296047,2022-10-05_13h17.15.749,vts_reward_expectancy,2022.2.4,MacIntel,60.0024001,Chrome,1440,900,,,,,1,961,,,,,,,,,,,,,,,,,Y,181,star,1,0,,,,,,,,,,,,,,,,repeat,letter,lettRpt,f,Lo,,,,,,0.3846,3,,,,,,,,low,1,0,1,0,1,,,,,,,,,
296047,2022-10-05_13h17.15.749,vts_reward_expectancy,2022.2.4,MacIntel,60.0024001,Chrome,1440,900,,,,,1,962,,,,,,,,,,,,,,,,,B,167,circle,1,0,,,,,,,,,,,,,,,,switch,number,numSwt,k,Hi,,,,,,0.4524,3,,,,,,,,low,2,0,2,0,1,,,,,,,,,
296047,2022-10-05_13h17.15.749,vts_reward_expectancy,2022.2.4,MacIntel,60.0024001,Chrome,1440,900,,,,,1,963,,,,,,,,,,,,,,,,,D,174,star,1,0,,,,,,,,,,,,,,,,repeat,number,numRpt,k,Lo,,,,,,0.487,3,,,,,,,,low,3,0,3,0,1,,,,,,,,,
296047,2022-10-05_13h17.15.749,vts_reward_expectancy,2022.2.4,MacIntel,60.0024001,Chrome,1440,900,,,,,0,963,,,,,,,,,,,,,,,,,F,125,circle,1,0,,,,,,,,,,,,,,,,switch,letter,lettSwt,d,Hi,,,,,,0.7131,3,,,,,,,,low,4,0,4,0,1,,,,,,,,,
296047,2022-10-05_13h17.15.749,vts_reward_expectancy,2022.2.4,MacIntel,60.0024001,Chrome,1440,900,,,,,10,973,,,,,,,,,,,,,,,,,W,146,star,1,0,,,,,,,,,,,,,,,,repeat,letter,lettRpt,f,Lo,,,,,,0.782,3,,,,,,,,low,5,0,5,0,1,,,,,,,,,
296047,2022-10-05_13h17.15.749,vts_reward_expectancy,2022.2.4,MacIntel,60.0024001,Chrome,1440,900,,,,,0,973,,,,,,,,,,,,,,,,,U,139,circle,1,0,,,,,,,,,,,,,,,,switch,number,numSwt,j,Hi,,,,,,0.6795,3,,,,,,,,low,6,0,6,0,1,,,,,,,,,
296047,2022-10-05_13h17.15.749,vts_reward_expectancy,2022.2.4,MacIntel,60.0024001,Chrome,1440,900,,,,,0,973,,,,,,,,,,,,,,,,,H,132,star,0,0,,,,,,,,,,,,,,,,switch,letter,NA,f,Hi,,,,,,0.8149,3,,,,,,,,low,7,0,7,0,1,,,,,,,,,
296047,2022-10-05_13h17.15.749,vts_reward_expectancy,2022.2.4,MacIntel,60.0024001,Chrome,1440,900,,,,,1,974,,,,,,,,,,,,,,,,,S,160,star,1,1,,,,,,,,,,,,,,,,switch,number,numSwt,k,Lo,,,,,,0.5646,3,,,,,,,,low,8,0,8,0,1,,,,,,,,,
296047,2022-10-05_13h17.15.749,vts_reward_expectancy,2022.2.4,MacIntel,60.0024001,Chrome,1440,900,,,,,0,974,,,,,,,,,,,,,,,,,Y,181,circle,1,0,,,,,,,,,,,,,,,,repeat,number,numRpt,k,Hi,,,,,,0.7565,3,,,,,,,,low,9,0,9,0,1,,,,,,,,,
296047,2022-10-05_13h17.15.749,vts_reward_expectancy,2022.2.4,MacIntel,60.0024001,Chrome,1440,900,,,,,10,984,,,,,,,,,,,,,,,,,B,167,circle,1,0,,,,,,,,,,,,,,,,repeat,number,numRpt,k,Hi,,,,,,0.3492,3,,,,,,,,low,10,0,10,0,1,,,,,,,,,
296047,2022-10-05_13h17.15.749,vts_reward_expectancy,2022.2.4,MacIntel,60.0024001,Chrome,1440,900,,,,,0,984,,,,,,,,,,,,,,,,,D,174,star,0,0,,,,,,,,,,,,,,,,switch,letter,NA,f,Hi,,,,,,0.6139,3,,,,,,,,low,11,0,11,0,1,,,,,,,,,
296047,2022-10-05_13h17.15.749,vts_reward_expectancy,2022.2.4,MacIntel,60.0024001,Chrome,1440,900,,,,,0,984,,,,,,,,,,,,,,,,,F,125,circle,1,1,,,,,,,,,,,,,,,,repeat,letter,lettRpt,d,Hi,,,,,,0.9643,3,,,,,,,,low,12,0,12,0,1,,,,,,,,,
296047,2022-10-05_13h17.15.749,vts_reward_expectancy,2022.2.4,MacIntel,60.0024001,Chrome,1440,900,,,,,1,985,,,,,,,,,,,,,,,,,W,146,star,1,0,,,,,,,,,,,,,,,,repeat,letter,lettRpt,f,Lo,,,,,,0.5465,3,,,,,,,,low,13,0,13,0,1,,,,,,,,,
296047,2022-10-05_13h17.15.749,vts_reward_expectancy,2022.2.4,MacIntel,60.0024001,Chrome,1440,900,,,,,0,985,,,,,,,,,,,,,,,,,U,139,circle,1,0,,,,,,,,,,,,,,,,switch,number,numSwt,j,Hi,,,,,,0.6063,3,,,,,,,,low,14,0,14,0,1,,,,,,,,,
296047,2022-10-05_13h17.15.749,vts_reward_expectancy,2022.2.4,MacIntel,60.0024001,Chrome,1440,900,,,,,1,986,,,,,,,,,,,,,,,,,H,132,star,1,0,,,,,,,,,,,,,,,,repeat,number,numRpt,j,Lo,,,,,,0.5645,3,,,,,,,,low,15,0,15,0,1,,,,,,,,,
296047,2022-10-05_13h17.15.749,vts_reward_expectancy,2022.2.4,MacIntel,60.0024001,Chrome,1440,900,,,,,10,996,,,,,,,,,,,,,,,,,U,139,star,1,0,,,,,,,,,,,,,,,,repeat,number,numRpt,j,Lo,,,,,,0.9376,3,,,,,,,,low,16,0,16,0,1,,,,,,,,,
296047,2022-10-05_13h17.15.749,vts_reward_expectancy,2022.2.4,MacIntel,60.0024001,Chrome,1440,900,,,,,0,996,,,,,,,,,,,,,,,,,D,160,circle,1,0,,,,,,,,,,,,,,,,repeat,number,numRpt,k,Hi,,,,,,0.6641,3,,,,,,,,low,17,0,17,0,1,,,,,,,,,
296047,2022-10-05_13h17.15.749,vts_reward_expectancy,2022.2.4,MacIntel,60.0024001,Chrome,1440,900,,,,,1,997,,,,,,,,,,,,,,,,,Y,174,star,1,0,,,,,,,,,,,,,,,,switch,letter,lettSwt,f,Lo,,,,,,0.6991,3,,,,,,,,low,18,0,18,0,1,,,,,,,,,
296047,2022-10-05_13h17.15.749,vts_reward_expectancy,2022.2.4,MacIntel,60.0024001,Chrome,1440,900,,,,,1,998,,,,,,,,,,,,,,,,,W,125,circle,1,0,,,,,,,,,,,,,,,,switch,number,numSwt,j,Hi,,,,,,0.4959,3,,,,,,,,low,19,0,19,0,1,,,,,,,,,
296047,2022-10-05_13h17.15.749,vts_reward_expectancy,2022.2.4,MacIntel,60.0024001,Chrome,1440,900,,,,,1,999,,,,,,,,,,,,,,,,,F,167,star,1,0,,,,,,,,,,,,,,,,switch,letter,lettSwt,d,Lo,,,,,,0.9609,3,,,,,,,,low,20,0,20,0,1,,,,,,,,,
296047,2022-10-05_13h17.15.749,vts_reward_expectancy,2022.2.4,MacIntel,60.0024001,Chrome,1440,900,,,,,10,1009,,,,,,,,,,,,,,,,,B,181,circle,1,0,,,,,,,,,,,,,,,,switch,number,numSwt,k,Hi,,,,,,0.4518,3,,,,,,,,low,21,0,21,0,1,,,,,,,,,
296047,2022-10-05_13h17.15.749,vts_reward_expectancy,2022.2.4,MacIntel,60.0024001,Chrome,1440,900,,,,,1,1010,,,,,,,,,,,,,,,,,S,132,star,1,0,,,,,,,,,,,,,,,,repeat,number,numRpt,j,Lo,,,,,,0.8495,3,,,,,,,,low,22,0,22,0,1,,,,,,,,,
296047,2022-10-05_13h17.15.749,vts_reward_expectancy,2022.2.4,MacIntel,60.0024001,Chrome,1440,900,,,,,10,1020,,,,,,,,,,,,,,,,,H,146,circle,1,0,,,,,,,,,,,,,,,,switch,letter,lettSwt,d,Hi,,,,,,0.6344,3,,,,,,,,low,23,0,23,0,1,,,,,,,,,
296047,2022-10-05_13h17.15.749,vts_reward_expectancy,2022.2.4,MacIntel,60.0024001,Chrome,1440,900,,,,,0,1020,,,,,,,,,,,,,,,,,D,181,circle,1,0,,,,,,,,,,,,,,,,switch,number,numSwt,k,Hi,,,,,,0.6695,3,,,,,,,,low,24,0,24,0,1,,,,,,,,,
296047,2022-10-05_13h17.15.749,vts_reward_expectancy,2022.2.4,MacIntel,60.0024001,Chrome,1440,900,,,,,1,1021,,,,,,,,,,,,,,,,,U,132,star,1,0,,,,,,,,,,,,,,,,switch,letter,lettSwt,f,Lo,,,,,,0.5147,3,,,,,,,,low,25,0,25,0,1,,,,,,,,,
296047,2022-10-05_13h17.15.749,vts_reward_expectancy,2022.2.4,MacIntel,60.0024001,Chrome,1440,900,,,,,1,1022,,,,,,,,,,,,,,,,,Y,174,star,1,0,,,,,,,,,,,,,,,,switch,number,numSwt,k,Lo,,,,,,1.0454,3,,,,,,,,low,26,0,26,0,1,,,,,,,,,
296047,2022-10-05_13h17.15.749,vts_reward_expectancy,2022.2.4,MacIntel,60.0024001,Chrome,1440,900,,,,,0,1022,,,,,,,,,,,,,,,,,H,167,circle,1,0,,,,,,,,,,,,,,,,repeat,number,numRpt,k,Hi,,,,,,0.5637,3,,,,,,,,low,27,0,27,0,1,,,,,,,,,
296047,2022-10-05_13h17.15.749,vts_reward_expectancy,2022.2.4,MacIntel,60.0024001,Chrome,1440,900,,,,,0,1022,,,,,,,,,,,,,,,,,S,160,circle,1,0,,,,,,,,,,,,,,,,repeat,number,numRpt,k,Hi,,,,,,0.5474,3,,,,,,,,low,28,0,28,0,1,,,,,,,,,
296047,2022-10-05_13h17.15.749,vts_reward_expectancy,2022.2.4,MacIntel,60.0024001,Chrome,1440,900,,,,,1,1023,,,,,,,,,,,,,,,,,B,125,star,1,0,,,,,,,,,,,,,,,,switch,letter,lettSwt,d,Lo,,,,,,0.577,3,,,,,,,,low,29,0,29,0,1,,,,,,,,,
296047,2022-10-05_13h17.15.749,vts_reward_expectancy,2022.2.4,MacIntel,60.0024001,Chrome,1440,900,,,,,0,1023,,,,,,,,,,,,,,,,,W,146,circle,1,0,,,,,,,,,,,,,,,,repeat,letter,lettRpt,f,Hi,,,,,,0.5813,3,,,,,,,,low,30,0,30,0,1,,,,,,,,,
296047,2022-10-05_13h17.15.749,vts_reward_expectancy,2022.2.4,MacIntel,60.0024001,Chrome,1440,900,,,,,1,1024,,,,,,,,,,,,,,,,,F,139,star,1,0,,,,,,,,,,,,,,,,switch,number,numSwt,j,Lo,,,,,,0.5788,3,,,,,,,,low,31,0,31,0,1,,,,,,,,,
296047,2022-10-05_13h17.15.749,vts_reward_expectancy,2022.2.4,MacIntel,60.0024001,Chrome,1440,900,,,,,1,1025,,,,,,,,,,,,,,,,,D,132,hexagon,1,0,,,,,,,,,,,,,,,,repeat,number,numRpt,j,Hi,,,,,,0.5235,4,,,,,,space,3.2788,high,0,0,0,0,1,,,,,,,,,
296047,2022-10-05_13h17.15.749,vts_reward_expectancy,2022.2.4,MacIntel,60.0024001,Chrome,1440,900,,,,,10,1035,,,,,,,,,,,,,,,,,W,174,triangle,1,0,,,,,,,,,,,,,,,,repeat,number,numRpt,k,Lo,,,,,,0.5553,4,,,,,,,,high,1,0,1,0,1,,,,,,,,,
296047,2022-10-05_13h17.15.749,vts_reward_expectancy,2022.2.4,MacIntel,60.0024001,Chrome,1440,900,,,,,0,1035,,,,,,,,,,,,,,,,,Y,146,hexagon,1,0,,,,,,,,,,,,,,,,switch,letter,lettSwt,f,Hi,,,,,,0.7656,4,,,,,,,,high,2,0,2,0,1,,,,,,,,,
296047,2022-10-05_13h17.15.749,vts_reward_expectancy,2022.2.4,MacIntel,60.0024001,Chrome,1440,900,,,,,0,1035,,,,,,,,,,,,,,,,,F,139,triangle,0,0,,,,,,,,,,,,,,,,repeat,letter,NA,f,Hi,,,,,,0.5713,4,,,,,,,,high,3,0,3,0,1,,,,,,,,,
296047,2022-10-05_13h17.15.749,vts_reward_expectancy,2022.2.4,MacIntel,60.0024001,Chrome,1440,900,,,,,0,1035,,,,,,,,,,,,,,,,,H,125,hexagon,1,1,,,,,,,,,,,,,,,,repeat,letter,lettRpt,d,Hi,,,,,,0.7645,4,,,,,,,,high,4,0,4,0,1,,,,,,,,,
296047,2022-10-05_13h17.15.749,vts_reward_expectancy,2022.2.4,MacIntel,60.0024001,Chrome,1440,900,,,,,0,1035,,,,,,,,,,,,,,,,,S,160,triangle,0,0,,,,,,,,,,,,,,,,switch,number,NA,j,Hi,,,,,,0.628,4,,,,,,,,high,5,0,5,0,1,,,,,,,,,
296047,2022-10-05_13h17.15.749,vts_reward_expectancy,2022.2.4,MacIntel,60.0024001,Chrome,1440,900,,,,,0,1035,,,,,,,,,,,,,,,,,U,181,hexagon,1,1,,,,,,,,,,,,,,,,repeat,number,numRpt,k,Hi,,,,,,0.6654,4,,,,,,,,high,6,0,6,0,1,,,,,,,,,
296047,2022-10-05_13h17.15.749,vts_reward_expectancy,2022.2.4,MacIntel,60.0024001,Chrome,1440,900,,,,,1,1036,,,,,,,,,,,,,,,,,B,167,triangle,1,0,,,,,,,,,,,,,,,,repeat,number,numRpt,k,Lo,,,,,,0.53,4,,,,,,,,high,7,0,7,0,1,,,,,,,,,
296047,2022-10-05_13h17.15.749,vts_reward_expectancy,2022.2.4,MacIntel,60.0024001,Chrome,1440,900,,,,,1,1037,,,,,,,,,,,,,,,,,D,132,triangle,1,0,,,,,,,,,,,,,,,,repeat,number,numRpt,j,Lo,,,,,,0.5321,4,,,,,,,,high,8,0,8,0,1,,,,,,,,,
296047,2022-10-05_13h17.15.749,vts_reward_expectancy,2022.2.4,MacIntel,60.0024001,Chrome,1440,900,,,,,10,1047,,,,,,,,,,,,,,,,,W,174,hexagon,1,0,,,,,,,,,,,,,,,,switch,letter,lettSwt,f,Hi,,,,,,0.4467,4,,,,,,,,high,9,0,9,0,1,,,,,,,,,
296047,2022-10-05_13h17.15.749,vts_reward_expectancy,2022.2.4,MacIntel,60.0024001,Chrome,1440,900,,,,,1,1048,,,,,,,,,,,,,,,,,Y,146,triangle,1,0,,,,,,,,,,,,,,,,repeat,letter,lettRpt,f,Lo,,,,,,0.4281,4,,,,,,,,high,10,0,10,0,1,,,,,,,,,
296047,2022-10-05_13h17.15.749,vts_reward_expectancy,2022.2.4,MacIntel,60.0024001,Chrome,1440,900,,,,,10,1058,,,,,,,,,,,,,,,,,F,139,hexagon,1,0,,,,,,,,,,,,,,,,switch,number,numSwt,j,Hi,,,,,,0.5305,4,,,,,,,,high,11,0,11,0,1,,,,,,,,,
296047,2022-10-05_13h17.15.749,vts_reward_expectancy,2022.2.4,MacIntel,60.0024001,Chrome,1440,900,,,,,1,1059,,,,,,,,,,,,,,,,,H,125,triangle,1,0,,,,,,,,,,,,,,,,repeat,number,numRpt,j,Lo,,,,,,0.5669,4,,,,,,,,high,12,0,12,0,1,,,,,,,,,
296047,2022-10-05_13h17.15.749,vts_reward_expectancy,2022.2.4,MacIntel,60.0024001,Chrome,1440,900,,,,,10,1069,,,,,,,,,,,,,,,,,S,160,hexagon,1,0,,,,,,,,,,,,,,,,repeat,number,numRpt,k,Hi,,,,,,0.5501,4,,,,,,,,high,13,0,13,0,1,,,,,,,,,
296047,2022-10-05_13h17.15.749,vts_reward_expectancy,2022.2.4,MacIntel,60.0024001,Chrome,1440,900,,,,,1,1070,,,,,,,,,,,,,,,,,U,181,triangle,1,0,,,,,,,,,,,,,,,,switch,letter,lettSwt,f,Lo,,,,,,0.4502,4,,,,,,,,high,14,0,14,0,1,,,,,,,,,
296047,2022-10-05_13h17.15.749,vts_reward_expectancy,2022.2.4,MacIntel,60.0024001,Chrome,1440,900,,,,,0,1070,,,,,,,,,,,,,,,,,B,167,hexagon,1,0,,,,,,,,,,,,,,,,switch,number,numSwt,k,Hi,,,,,,0.627,4,,,,,,,,high,15,0,15,0,1,,,,,,,,,
296047,2022-10-05_13h17.15.749,vts_reward_expectancy,2022.2.4,MacIntel,60.0024001,Chrome,1440,900,,,,,10,1080,,,,,,,,,,,,,,,,,H,160,hexagon,1,0,,,,,,,,,,,,,,,,repeat,number,numRpt,k,Hi,,,,,,0.5489,4,,,,,,,,high,16,0,16,0,1,,,,,,,,,
296047,2022-10-05_13h17.15.749,vts_reward_expectancy,2022.2.4,MacIntel,60.0024001,Chrome,1440,900,,,,,1,1081,,,,,,,,,,,,,,,,,S,139,triangle,1,0,,,,,,,,,,,,,,,,repeat,number,numRpt,j,Lo,,,,,,0.5482,4,,,,,,,,high,17,0,17,0,1,,,,,,,,,
296047,2022-10-05_13h17.15.749,vts_reward_expectancy,2022.2.4,MacIntel,60.0024001,Chrome,1440,900,,,,,0,1081,,,,,,,,,,,,,,,,,U,146,hexagon,1,0,,,,,,,,,,,,,,,,switch,letter,lettSwt,f,Hi,,,,,,0.7143,4,,,,,,,,high,18,0,18,0,1,,,,,,,,,
296047,2022-10-05_13h17.15.749,vts_reward_expectancy,2022.2.4,MacIntel,60.0024001,Chrome,1440,900,,,,,0,1081,,,,,,,,,,,,,,,,,F,125,triangle,0,0,,,,,,,,,,,,,,,,repeat,letter,NA,f,Hi,,,,,,0.5551,4,,,,,,,,high,19,0,19,0,1,,,,,,,,,
296047,2022-10-05_13h17.15.749,vts_reward_expectancy,2022.2.4,MacIntel,60.0024001,Chrome,1440,900,,,,,1,1082,,,,,,,,,,,,,,,,,B,132,triangle,1,1,,,,,,,,,,,,,,,,repeat,letter,lettRpt,d,Lo,,,,,,0.7327,4,,,,,,,,high,20,0,20,0,1,,,,,,,,,
296047,2022-10-05_13h17.15.749,vts_reward_expectancy,2022.2.4,MacIntel,60.0024001,Chrome,1440,900,,,,,0,1082,,,,,,,,,,,,,,,,,W,167,hexagon,1,0,,,,,,,,,,,,,,,,repeat,letter,lettRpt,f,Hi,,,,,,0.8159,4,,,,,,,,high,21,0,21,0,1,,,,,,,,,
296047,2022-10-05_13h17.15.749,vts_reward_expectancy,2022.2.4,MacIntel,60.0024001,Chrome,1440,900,,,,,0,1082,,,,,,,,,,,,,,,,,D,174,hexagon,1,0,,,,,,,,,,,,,,,,switch,number,numSwt,k,Hi,,,,,,0.7291,4,,,,,,,,high,22,0,22,0,1,,,,,,,,,
296047,2022-10-05_13h17.15.749,vts_reward_expectancy,2022.2.4,MacIntel,60.0024001,Chrome,1440,900,,,,,10,1092,,,,,,,,,,,,,,,,,Y,181,triangle,1,0,,,,,,,,,,,,,,,,repeat,number,numRpt,k,Lo,,,,,,0.4656,4,,,,,,,,high,23,0,23,0,1,,,,,,,,,
296047,2022-10-05_13h17.15.749,vts_reward_expectancy,2022.2.4,MacIntel,60.0024001,Chrome,1440,900,,,,,1,1093,,,,,,,,,,,,,,,,,B,139,triangle,1,0,,,,,,,,,,,,,,,,switch,letter,lettSwt,d,Lo,,,,,,0.5932,4,,,,,,,,high,24,0,24,0,1,,,,,,,,,
296047,2022-10-05_13h17.15.749,vts_reward_expectancy,2022.2.4,MacIntel,60.0024001,Chrome,1440,900,,,,,0,1093,,,,,,,,,,,,,,,,,U,174,hexagon,1,0,,,,,,,,,,,,,,,,switch,number,numSwt,k,Hi,,,,,,0.5471,4,,,,,,,,high,25,0,25,0,1,,,,,,,,,
296047,2022-10-05_13h17.15.749,vts_reward_expectancy,2022.2.4,MacIntel,60.0024001,Chrome,1440,900,,,,,10,1103,,,,,,,,,,,,,,,,,H,160,triangle,1,0,,,,,,,,,,,,,,,,switch,letter,lettSwt,d,Lo,,,,,,0.6439,4,,,,,,,,high,26,0,26,0,1,,,,,,,,,
296047,2022-10-05_13h17.15.749,vts_reward_expectancy,2022.2.4,MacIntel,60.0024001,Chrome,1440,900,,,,,0,1103,,,,,,,,,,,,,,,,,S,132,hexagon,1,0,,,,,,,,,,,,,,,,switch,number,numSwt,j,Hi,,,,,,0.7331,4,,,,,,,,high,27,0,27,0,1,,,,,,,,,
296047,2022-10-05_13h17.15.749,vts_reward_expectancy,2022.2.4,MacIntel,60.0024001,Chrome,1440,900,,,,,1,1104,,,,,,,,,,,,,,,,,F,181,triangle,1,0,,,,,,,,,,,,,,,,repeat,number,numRpt,k,Lo,,,,,,0.713,4,,,,,,,,high,28,0,28,0,1,,,,,,,,,
296047,2022-10-05_13h17.15.749,vts_reward_expectancy,2022.2.4,MacIntel,60.0024001,Chrome,1440,900,,,,,0,1104,,,,,,,,,,,,,,,,,Y,167,hexagon,0,0,,,,,,,,,,,,,,,,repeat,number,NA,j,Lo,,,,,,0.6813,4,,,,,,,,high,29,0,29,0,1,,,,,,,,,
296047,2022-10-05_13h17.15.749,vts_reward_expectancy,2022.2.4,MacIntel,60.0024001,Chrome,1440,900,,,,,1,1105,,,,,,,,,,,,,,,,,W,125,triangle,1,1,,,,,,,,,,,,,,,,repeat,number,numRpt,j,Lo,,,,,,0.5953,4,,,,,,,,high,30,0,30,0,1,,,,,,,,,
296047,2022-10-05_13h17.15.749,vts_reward_expectancy,2022.2.4,MacIntel,60.0024001,Chrome,1440,900,,,,,10,1115,,,,,,,,,,,,,,,,,D,146,hexagon,1,0,,,,,,,,,,,,,,,,switch,letter,lettSwt,d,Hi,,,,,,0.5803,4,,,,,,,,high,31,0,31,0,1,,,,,,,,,
296047,2022-10-05_13h17.15.749,vts_reward_expectancy,2022.2.4,MacIntel,60.0024001,Chrome,1440,900,,,,,0,1115,,,,,,,,,,,,,,,,,B,132,triangle,0,0,,,,,,,,,,,,,,,,switch,number,NA,k,Hi,,,,,,0.5956,5,,,,,,space,1.4595,high,0,0,0,0,1,,,,,,,,,
296047,2022-10-05_13h17.15.749,vts_reward_expectancy,2022.2.4,MacIntel,60.0024001,Chrome,1440,900,,,,,0,1115,,,,,,,,,,,,,,,,,U,167,hexagon,1,1,,,,,,,,,,,,,,,,repeat,number,numRpt,k,Hi,,,,,,0.5957,5,,,,,,,,high,1,0,1,0,1,,,,,,,,,
296047,2022-10-05_13h17.15.749,vts_reward_expectancy,2022.2.4,MacIntel,60.0024001,Chrome,1440,900,,,,,1,1116,,,,,,,,,,,,,,,,,Y,181,triangle,1,0,,,,,,,,,,,,,,,,repeat,number,numRpt,k,Lo,,,,,,0.4217,5,,,,,,,,high,2,0,2,0,1,,,,,,,,,
296047,2022-10-05_13h17.15.749,vts_reward_expectancy,2022.2.4,MacIntel,60.0024001,Chrome,1440,900,,,,,0,1116,,,,,,,,,,,,,,,,,H,160,hexagon,1,0,,,,,,,,,,,,,,,,switch,letter,lettSwt,d,Hi,,,,,,0.7975,5,,,,,,,,high,3,0,3,0,1,,,,,,,,,
296047,2022-10-05_13h17.15.749,vts_reward_expectancy,2022.2.4,MacIntel,60.0024001,Chrome,1440,900,,,,,10,1126,,,,,,,,,,,,,,,,,F,125,triangle,1,0,,,,,,,,,,,,,,,,repeat,letter,lettRpt,d,Lo,,,,,,0.5156,5,,,,,,,,high,4,0,4,0,1,,,,,,,,,
296047,2022-10-05_13h17.15.749,vts_reward_expectancy,2022.2.4,MacIntel,60.0024001,Chrome,1440,900,,,,,10,1136,,,,,,,,,,,,,,,,,D,146,hexagon,1,0,,,,,,,,,,,,,,,,repeat,letter,lettRpt,d,Hi,,,,,,0.5154,5,,,,,,,,high,5,0,5,0,1,,,,,,,,,
296047,2022-10-05_13h17.15.749,vts_reward_expectancy,2022.2.4,MacIntel,60.0024001,Chrome,1440,900,,,,,1,1137,,,,,,,,,,,,,,,,,S,139,hexagon,1,0,,,,,,,,,,,,,,,,switch,number,numSwt,j,Hi,,,,,,0.4718,5,,,,,,,,high,6,0,6,0,1,,,,,,,,,
296047,2022-10-05_13h17.15.749,vts_reward_expectancy,2022.2.4,MacIntel,60.0024001,Chrome,1440,900,,,,,1,1138,,,,,,,,,,,,,,,,,W,174,triangle,1,0,,,,,,,,,,,,,,,,repeat,number,numRpt,k,Lo,,,,,,0.4926,5,,,,,,,,high,7,0,7,0,1,,,,,,,,,
296047,2022-10-05_13h17.15.749,vts_reward_expectancy,2022.2.4,MacIntel,60.0024001,Chrome,1440,900,,,,,1,1139,,,,,,,,,,,,,,,,,B,132,hexagon,1,0,,,,,,,,,,,,,,,,repeat,number,numRpt,j,Hi,,,,,,0.5128,5,,,,,,,,high,8,0,8,0,1,,,,,,,,,
296047,2022-10-05_13h17.15.749,vts_reward_expectancy,2022.2.4,MacIntel,60.0024001,Chrome,1440,900,,,,,10,1149,,,,,,,,,,,,,,,,,U,167,triangle,1,0,,,,,,,,,,,,,,,,switch,letter,lettSwt,f,Lo,,,,,,0.4789,5,,,,,,,,high,9,0,9,0,1,,,,,,,,,
296047,2022-10-05_13h17.15.749,vts_reward_expectancy,2022.2.4,MacIntel,60.0024001,Chrome,1440,900,,,,,10,1159,,,,,,,,,,,,,,,,,Y,181,hexagon,1,0,,,,,,,,,,,,,,,,repeat,letter,lettRpt,f,Hi,,,,,,0.5972,5,,,,,,,,high,10,0,10,0,1,,,,,,,,,
296047,2022-10-05_13h17.15.749,vts_reward_expectancy,2022.2.4,MacIntel,60.0024001,Chrome,1440,900,,,,,1,1160,,,,,,,,,,,,,,,,,H,160,triangle,1,0,,,,,,,,,,,,,,,,switch,number,numSwt,k,Lo,,,,,,0.4383,5,,,,,,,,high,11,0,11,0,1,,,,,,,,,
296047,2022-10-05_13h17.15.749,vts_reward_expectancy,2022.2.4,MacIntel,60.0024001,Chrome,1440,900,,,,,10,1170,,,,,,,,,,,,,,,,,F,125,triangle,1,0,,,,,,,,,,,,,,,,repeat,number,numRpt,j,Lo,,,,,,0.4983,5,,,,,,,,high,12,0,12,0,1,,,,,,,,,
296047,2022-10-05_13h17.15.749,vts_reward_expectancy,2022.2.4,MacIntel,60.0024001,Chrome,1440,900,,,,,10,1180,,,,,,,,,,,,,,,,,D,146,hexagon,1,0,,,,,,,,,,,,,,,,repeat,number,numRpt,j,Hi,,,,,,0.4811,5,,,,,,,,high,13,0,13,0,1,,,,,,,,,
296047,2022-10-05_13h17.15.749,vts_reward_expectancy,2022.2.4,MacIntel,60.0024001,Chrome,1440,900,,,,,10,1190,,,,,,,,,,,,,,,,,S,139,triangle,1,0,,,,,,,,,,,,,,,,repeat,number,numRpt,j,Lo,,,,,,0.5501,5,,,,,,,,high,14,0,14,0,1,,,,,,,,,
296047,2022-10-05_13h17.15.749,vts_reward_expectancy,2022.2.4,MacIntel,60.0024001,Chrome,1440,900,,,,,10,1200,,,,,,,,,,,,,,,,,W,174,hexagon,1,0,,,,,,,,,,,,,,,,repeat,number,numRpt,k,Hi,,,,,,0.5324,5,,,,,,,,high,15,0,15,0,1,,,,,,,,,
296047,2022-10-05_13h17.15.749,vts_reward_expectancy,2022.2.4,MacIntel,60.0024001,Chrome,1440,900,,,,,10,1210,,,,,,,,,,,,,,,,,U,132,triangle,1,0,,,,,,,,,,,,,,,,switch,letter,lettSwt,f,Lo,,,,,,0.8027,5,,,,,,,,high,16,0,16,0,1,,,,,,,,,
296047,2022-10-05_13h17.15.749,vts_reward_expectancy,2022.2.4,MacIntel,60.0024001,Chrome,1440,900,,,,,10,1220,,,,,,,,,,,,,,,,,Y,125,hexagon,1,0,,,,,,,,,,,,,,,,repeat,letter,lettRpt,f,Hi,,,,,,0.5133,5,,,,,,,,high,17,0,17,0,1,,,,,,,,,
296047,2022-10-05_13h17.15.749,vts_reward_expectancy,2022.2.4,MacIntel,60.0024001,Chrome,1440,900,,,,,1,1221,,,,,,,,,,,,,,,,,B,167,triangle,1,0,,,,,,,,,,,,,,,,repeat,letter,lettRpt,d,Lo,,,,,,0.4537,5,,,,,,,,high,18,0,18,0,1,,,,,,,,,
296047,2022-10-05_13h17.15.749,vts_reward_expectancy,2022.2.4,MacIntel,60.0024001,Chrome,1440,900,,,,,10,1231,,,,,,,,,,,,,,,,,S,181,hexagon,1,0,,,,,,,,,,,,,,,,repeat,letter,lettRpt,f,Hi,,,,,,0.531,5,,,,,,,,high,19,0,19,0,1,,,,,,,,,
296047,2022-10-05_13h17.15.749,vts_reward_expectancy,2022.2.4,MacIntel,60.0024001,Chrome,1440,900,,,,,1,1232,,,,,,,,,,,,,,,,,H,146,triangle,1,0,,,,,,,,,,,,,,,,switch,number,numSwt,j,Lo,,,,,,0.6345,5,,,,,,,,high,20,0,20,0,1,,,,,,,,,
296047,2022-10-05_13h17.15.749,vts_reward_expectancy,2022.2.4,MacIntel,60.0024001,Chrome,1440,900,,,,,0,1232,,,,,,,,,,,,,,,,,W,139,hexagon,1,0,,,,,,,,,,,,,,,,repeat,number,numRpt,j,Hi,,,,,,0.6485,5,,,,,,,,high,21,0,21,0,1,,,,,,,,,
296047,2022-10-05_13h17.15.749,vts_reward_expectancy,2022.2.4,MacIntel,60.0024001,Chrome,1440,900,,,,,10,1242,,,,,,,,,,,,,,,,,D,160,triangle,1,0,,,,,,,,,,,,,,,,repeat,number,numRpt,k,Lo,,,,,,0.5561,5,,,,,,,,high,22,0,22,0,1,,,,,,,,,
296047,2022-10-05_13h17.15.749,vts_reward_expectancy,2022.2.4,MacIntel,60.0024001,Chrome,1440,900,,,,,1,1243,,,,,,,,,,,,,,,,,F,174,hexagon,1,0,,,,,,,,,,,,,,,,repeat,number,numRpt,k,Hi,,,,,,0.5305,5,,,,,,,,high,23,0,23,0,1,,,,,,,,,
296047,2022-10-05_13h17.15.749,vts_reward_expectancy,2022.2.4,MacIntel,60.0024001,Chrome,1440,900,,,,,0,1243,,,,,,,,,,,,,,,,,S,132,hexagon,1,0,,,,,,,,,,,,,,,,switch,letter,lettSwt,f,Hi,,,,,,0.6222,5,,,,,,,,high,24,0,24,0,1,,,,,,,,,
296047,2022-10-05_13h17.15.749,vts_reward_expectancy,2022.2.4,MacIntel,60.0024001,Chrome,1440,900,,,,,1,1244,,,,,,,,,,,,,,,,,W,139,triangle,1,0,,,,,,,,,,,,,,,,repeat,letter,lettRpt,f,Lo,,,,,,0.7177,5,,,,,,,,high,25,0,25,0,1,,,,,,,,,
296047,2022-10-05_13h17.15.749,vts_reward_expectancy,2022.2.4,MacIntel,60.0024001,Chrome,1440,900,,,,,1,1245,,,,,,,,,,,,,,,,,U,160,triangle,1,0,,,,,,,,,,,,,,,,switch,number,numSwt,k,Lo,,,,,,0.8062,5,,,,,,,,high,26,0,26,0,1,,,,,,,,,
296047,2022-10-05_13h17.15.749,vts_reward_expectancy,2022.2.4,MacIntel,60.0024001,Chrome,1440,900,,,,,0,1245,,,,,,,,,,,,,,,,,Y,174,hexagon,1,0,,,,,,,,,,,,,,,,switch,letter,lettSwt,f,Hi,,,,,,0.6848,5,,,,,,,,high,27,0,27,0,1,,,,,,,,,
296047,2022-10-05_13h17.15.749,vts_reward_expectancy,2022.2.4,MacIntel,60.0024001,Chrome,1440,900,,,,,1,1246,,,,,,,,,,,,,,,,,B,181,triangle,1,0,,,,,,,,,,,,,,,,repeat,letter,lettRpt,d,Lo,,,,,,0.7489,5,,,,,,,,high,28,0,28,0,1,,,,,,,,,
296047,2022-10-05_13h17.15.749,vts_reward_expectancy,2022.2.4,MacIntel,60.0024001,Chrome,1440,900,,,,,0,1246,,,,,,,,,,,,,,,,,D,125,hexagon,1,0,,,,,,,,,,,,,,,,switch,number,numSwt,j,Hi,,,,,,0.6129,5,,,,,,,,high,29,0,29,0,1,,,,,,,,,
296047,2022-10-05_13h17.15.749,vts_reward_expectancy,2022.2.4,MacIntel,60.0024001,Chrome,1440,900,,,,,0,1246,,,,,,,,,,,,,,,,,F,146,triangle,0,0,,,,,,,,,,,,,,,,switch,letter,NA,f,Hi,,,,,,0.6891,5,,,,,,,,high,30,0,30,0,1,,,,,,,,,
296047,2022-10-05_13h17.15.749,vts_reward_expectancy,2022.2.4,MacIntel,60.0024001,Chrome,1440,900,,,,,0,1246,,,,,,,,,,,,,,,,,H,167,hexagon,1,1,,,,,,,,,,,,,,,,repeat,letter,lettRpt,d,Hi,,,,,,0.8963,5,,,,,,,,high,31,0,31,0,1,,,,,,,,,
296047,2022-10-05_13h17.15.749,vts_reward_expectancy,2022.2.4,MacIntel,60.0024001,Chrome,1440,900,,,,,,,,,,,,,,,,,,,,,,,,,,,,,,,,,,,,,,,,,,,,,,,,,,,,,,6,,,,,,,,,,,,,,"F key is the letter is closer to z, D key if letter is closer to a, K key if number is greater than 153, and J is less than 153",1,,4,1,,2,1440,900
