participant,date,expName,psychopyVersion,OS,frameRate,browser,xResolution,yResolution,key_resp.keys,key_resp.rt,training_resp.keys,training_resp.rt,points_trial,points_cumul,trainBlock,training.thisRepN,training.thisTrialN,training.thisN,training.thisIndex,training.ran,LTriangleOpac,LCircleOpac,LHexagonOpac,LStarOpac,RTriangleOpac,RCircleOpac,RHexagonOpac,RStarOpac,LShape_ID,RShape_ID,curr_topStim,curr_bottStim,curr_shape,acc,E1,target_resp_prac1.keys,pracBlock,task1_prac_trials.thisRepN,task1_prac_trials.thisTrialN,task1_prac_trials.thisN,task1_prac_trials.thisIndex,task1_prac_trials.ran,target_resp_prac1.rt,target_resp_prac2.keys,target_resp_prac2.rt,task2_praac_trials.thisRepN,task2_praac_trials.thisTrialN,task2_praac_trials.thisN,task2_praac_trials.thisIndex,task2_praac_trials.ran,alt,task,condition,target_resp.keys,target_resp.rt,rewCond,vts_practice_trials.thisRepN,vts_practice_trials.thisTrialN,vts_practice_trials.thisN,vts_practice_trials.thisIndex,vts_practice_trials.ran,blockNum,trials_norew.thisRepN,trials_norew.thisTrialN,trials_norew.thisN,trials_norew.thisIndex,trials_norew.ran,key_resp_2.keys,key_resp_2.rt,rewExpect,trials_rew.thisRepN,trials_rew.thisTrialN,trials_rew.thisN,trials_rew.thisIndex,trials_rew.ran,Q1,Q2,Q2_text,Q3,Q4,Q5_text,Q5,xRes,yRes
292909,2022-09-21_21h00.56.397,vts_reward_expectancy,2022.2.4,MacIntel,111.1111111,Safari,1440,900,,,,,,,,,,,,,,,,,,,,,,,,,,,,,,,,,,,,,,,,,,,,,,,,,,,,,,,,,,,,,,,,,,,,,,,,,,,,
292909,2022-09-21_21h00.56.397,vts_reward_expectancy,2022.2.4,MacIntel,111.1111111,Safari,1440,900,space,31.467,,,,,,,,,,,,,,,,,,,,,,,,,,,,,,,,,,,,,,,,,,,,,,,,,,,,,,,,,,,,,,,,,,,,,,,,,,
292909,2022-09-21_21h00.56.397,vts_reward_expectancy,2022.2.4,MacIntel,111.1111111,Safari,1440,900,,,,,,,,,,,,,,,,,,,,,,,,,,,,,,,,,,,,,,,,,,,,,,,,,,,,,,,,,,,,,,,,,,,,,,,,,,,,
292909,2022-09-21_21h00.56.397,vts_reward_expectancy,2022.2.4,MacIntel,111.1111111,Safari,1440,900,,,a,1.6,1,1,0,0,0,0,11,1,0,0,0,1,0,0,1,0,star,hexagon,,,,,,,,,,,,,,,,,,,,,,,,,,,,,,,,,,,,,,,,,,,,,,,,,,,,,,
292909,2022-09-21_21h00.56.397,vts_reward_expectancy,2022.2.4,MacIntel,111.1111111,Safari,1440,900,,,l,1.632,10,11,0,0,1,1,9,1,0,0,0,1,1,0,0,0,star,triangle,,,,,,,,,,,,,,,,,,,,,,,,,,,,,,,,,,,,,,,,,,,,,,,,,,,,,,
292909,2022-09-21_21h00.56.397,vts_reward_expectancy,2022.2.4,MacIntel,111.1111111,Safari,1440,900,,,a,1.719,10,21,0,0,2,2,5,1,0,1,0,0,0,0,0,1,circle,star,,,,,,,,,,,,,,,,,,,,,,,,,,,,,,,,,,,,,,,,,,,,,,,,,,,,,,
292909,2022-09-21_21h00.56.397,vts_reward_expectancy,2022.2.4,MacIntel,111.1111111,Safari,1440,900,,,l,8.066,1,22,0,0,3,3,1,1,1,0,0,0,0,0,1,0,triangle,hexagon,,,,,,,,,,,,,,,,,,,,,,,,,,,,,,,,,,,,,,,,,,,,,,,,,,,,,,
292909,2022-09-21_21h00.56.397,vts_reward_expectancy,2022.2.4,MacIntel,111.1111111,Safari,1440,900,,,l,3.483,10,32,0,0,4,4,8,1,0,0,1,0,0,0,0,1,hexagon,star,,,,,,,,,,,,,,,,,,,,,,,,,,,,,,,,,,,,,,,,,,,,,,,,,,,,,,
292909,2022-09-21_21h00.56.397,vts_reward_expectancy,2022.2.4,MacIntel,111.1111111,Safari,1440,900,,,a,1.349,1,33,0,0,5,5,0,1,1,0,0,0,0,1,0,0,triangle,circle,,,,,,,,,,,,,,,,,,,,,,,,,,,,,,,,,,,,,,,,,,,,,,,,,,,,,,
292909,2022-09-21_21h00.56.397,vts_reward_expectancy,2022.2.4,MacIntel,111.1111111,Safari,1440,900,,,a,5.166,10,43,0,0,6,6,2,1,1,0,0,0,0,0,0,1,triangle,star,,,,,,,,,,,,,,,,,,,,,,,,,,,,,,,,,,,,,,,,,,,,,,,,,,,,,,
292909,2022-09-21_21h00.56.397,vts_reward_expectancy,2022.2.4,MacIntel,111.1111111,Safari,1440,900,,,a,1.4,1,44,0,0,7,7,4,1,0,1,0,0,0,0,1,0,circle,hexagon,,,,,,,,,,,,,,,,,,,,,,,,,,,,,,,,,,,,,,,,,,,,,,,,,,,,,,
292909,2022-09-21_21h00.56.397,vts_reward_expectancy,2022.2.4,MacIntel,111.1111111,Safari,1440,900,,,a,1.816,10,54,0,0,8,8,7,1,0,0,1,0,0,1,0,0,hexagon,circle,,,,,,,,,,,,,,,,,,,,,,,,,,,,,,,,,,,,,,,,,,,,,,,,,,,,,,
292909,2022-09-21_21h00.56.397,vts_reward_expectancy,2022.2.4,MacIntel,111.1111111,Safari,1440,900,,,l,2.466,10,64,0,0,9,9,10,1,0,0,0,1,0,1,0,0,star ,circle,,,,,,,,,,,,,,,,,,,,,,,,,,,,,,,,,,,,,,,,,,,,,,,,,,,,,,
292909,2022-09-21_21h00.56.397,vts_reward_expectancy,2022.2.4,MacIntel,111.1111111,Safari,1440,900,,,l,4.899,1,65,0,0,10,10,6,1,0,0,1,0,1,0,0,0,hexagon,triangle,,,,,,,,,,,,,,,,,,,,,,,,,,,,,,,,,,,,,,,,,,,,,,,,,,,,,,
292909,2022-09-21_21h00.56.397,vts_reward_expectancy,2022.2.4,MacIntel,111.1111111,Safari,1440,900,,,l,2.117,1,66,0,0,11,11,3,1,0,1,0,0,1,0,0,0,circle,triangle,,,,,,,,,,,,,,,,,,,,,,,,,,,,,,,,,,,,,,,,,,,,,,,,,,,,,,
292909,2022-09-21_21h00.56.397,vts_reward_expectancy,2022.2.4,MacIntel,111.1111111,Safari,1440,900,,,l,2.382,1,67,0,1,0,12,2,1,1,0,0,0,0,0,0,1,triangle,star,,,,,,,,,,,,,,,,,,,,,,,,,,,,,,,,,,,,,,,,,,,,,,,,,,,,,,
292909,2022-09-21_21h00.56.397,vts_reward_expectancy,2022.2.4,MacIntel,111.1111111,Safari,1440,900,,,a,1.168,1,68,0,1,1,13,3,1,0,1,0,0,1,0,0,0,circle,triangle,,,,,,,,,,,,,,,,,,,,,,,,,,,,,,,,,,,,,,,,,,,,,,,,,,,,,,
292909,2022-09-21_21h00.56.397,vts_reward_expectancy,2022.2.4,MacIntel,111.1111111,Safari,1440,900,,,a,1.881,1,69,0,1,2,14,11,1,0,0,0,1,0,0,1,0,star,hexagon,,,,,,,,,,,,,,,,,,,,,,,,,,,,,,,,,,,,,,,,,,,,,,,,,,,,,,
292909,2022-09-21_21h00.56.397,vts_reward_expectancy,2022.2.4,MacIntel,111.1111111,Safari,1440,900,,,l,1.7,1,70,0,1,3,15,4,1,0,1,0,0,0,0,1,0,circle,hexagon,,,,,,,,,,,,,,,,,,,,,,,,,,,,,,,,,,,,,,,,,,,,,,,,,,,,,,
292909,2022-09-21_21h00.56.397,vts_reward_expectancy,2022.2.4,MacIntel,111.1111111,Safari,1440,900,,,l,2.13,1,71,0,1,4,16,8,1,0,0,1,0,0,0,0,1,hexagon,star,,,,,,,,,,,,,,,,,,,,,,,,,,,,,,,,,,,,,,,,,,,,,,,,,,,,,,
292909,2022-09-21_21h00.56.397,vts_reward_expectancy,2022.2.4,MacIntel,111.1111111,Safari,1440,900,,,a,0.899,1,72,0,1,5,17,10,1,0,0,0,1,0,1,0,0,star ,circle,,,,,,,,,,,,,,,,,,,,,,,,,,,,,,,,,,,,,,,,,,,,,,,,,,,,,,
292909,2022-09-21_21h00.56.397,vts_reward_expectancy,2022.2.4,MacIntel,111.1111111,Safari,1440,900,,,a,2.782,10,82,0,1,6,18,0,1,1,0,0,0,0,1,0,0,triangle,circle,,,,,,,,,,,,,,,,,,,,,,,,,,,,,,,,,,,,,,,,,,,,,,,,,,,,,,
292909,2022-09-21_21h00.56.397,vts_reward_expectancy,2022.2.4,MacIntel,111.1111111,Safari,1440,900,,,a,2.3,10,92,0,1,7,19,1,1,1,0,0,0,0,0,1,0,triangle,hexagon,,,,,,,,,,,,,,,,,,,,,,,,,,,,,,,,,,,,,,,,,,,,,,,,,,,,,,
292909,2022-09-21_21h00.56.397,vts_reward_expectancy,2022.2.4,MacIntel,111.1111111,Safari,1440,900,,,a,2.082,10,102,0,1,8,20,5,1,0,1,0,0,0,0,0,1,circle,star,,,,,,,,,,,,,,,,,,,,,,,,,,,,,,,,,,,,,,,,,,,,,,,,,,,,,,
292909,2022-09-21_21h00.56.397,vts_reward_expectancy,2022.2.4,MacIntel,111.1111111,Safari,1440,900,,,l,1.883,10,112,0,1,9,21,7,1,0,0,1,0,0,1,0,0,hexagon,circle,,,,,,,,,,,,,,,,,,,,,,,,,,,,,,,,,,,,,,,,,,,,,,,,,,,,,,
292909,2022-09-21_21h00.56.397,vts_reward_expectancy,2022.2.4,MacIntel,111.1111111,Safari,1440,900,,,a,1.867,10,122,0,1,10,22,9,1,0,0,0,1,1,0,0,0,star,triangle,,,,,,,,,,,,,,,,,,,,,,,,,,,,,,,,,,,,,,,,,,,,,,,,,,,,,,
292909,2022-09-21_21h00.56.397,vts_reward_expectancy,2022.2.4,MacIntel,111.1111111,Safari,1440,900,,,l,2.097,10,132,0,1,11,23,6,1,0,0,1,0,1,0,0,0,hexagon,triangle,,,,,,,,,,,,,,,,,,,,,,,,,,,,,,,,,,,,,,,,,,,,,,,,,,,,,,
292909,2022-09-21_21h00.56.397,vts_reward_expectancy,2022.2.4,MacIntel,111.1111111,Safari,1440,900,,,a,1.149,10,142,0,2,0,24,11,1,0,0,0,1,0,0,1,0,star,hexagon,,,,,,,,,,,,,,,,,,,,,,,,,,,,,,,,,,,,,,,,,,,,,,,,,,,,,,
292909,2022-09-21_21h00.56.397,vts_reward_expectancy,2022.2.4,MacIntel,111.1111111,Safari,1440,900,,,l,0.785,10,152,0,2,1,25,3,1,0,1,0,0,1,0,0,0,circle,triangle,,,,,,,,,,,,,,,,,,,,,,,,,,,,,,,,,,,,,,,,,,,,,,,,,,,,,,
292909,2022-09-21_21h00.56.397,vts_reward_expectancy,2022.2.4,MacIntel,111.1111111,Safari,1440,900,,,a,1.019,1,153,0,2,2,26,6,1,0,0,1,0,1,0,0,0,hexagon,triangle,,,,,,,,,,,,,,,,,,,,,,,,,,,,,,,,,,,,,,,,,,,,,,,,,,,,,,
292909,2022-09-21_21h00.56.397,vts_reward_expectancy,2022.2.4,MacIntel,111.1111111,Safari,1440,900,,,a,0.917,1,154,0,2,3,27,7,1,0,0,1,0,0,1,0,0,hexagon,circle,,,,,,,,,,,,,,,,,,,,,,,,,,,,,,,,,,,,,,,,,,,,,,,,,,,,,,
292909,2022-09-21_21h00.56.397,vts_reward_expectancy,2022.2.4,MacIntel,111.1111111,Safari,1440,900,,,l,4.1,1,155,0,2,4,28,5,1,0,1,0,0,0,0,0,1,circle,star,,,,,,,,,,,,,,,,,,,,,,,,,,,,,,,,,,,,,,,,,,,,,,,,,,,,,,
292909,2022-09-21_21h00.56.397,vts_reward_expectancy,2022.2.4,MacIntel,111.1111111,Safari,1440,900,,,a,0.852,1,156,0,2,5,29,8,1,0,0,1,0,0,0,0,1,hexagon,star,,,,,,,,,,,,,,,,,,,,,,,,,,,,,,,,,,,,,,,,,,,,,,,,,,,,,,
292909,2022-09-21_21h00.56.397,vts_reward_expectancy,2022.2.4,MacIntel,111.1111111,Safari,1440,900,,,l,1.832,10,166,0,2,6,30,10,1,0,0,0,1,0,1,0,0,star ,circle,,,,,,,,,,,,,,,,,,,,,,,,,,,,,,,,,,,,,,,,,,,,,,,,,,,,,,
292909,2022-09-21_21h00.56.397,vts_reward_expectancy,2022.2.4,MacIntel,111.1111111,Safari,1440,900,,,l,0.968,1,167,0,2,7,31,9,1,0,0,0,1,1,0,0,0,star,triangle,,,,,,,,,,,,,,,,,,,,,,,,,,,,,,,,,,,,,,,,,,,,,,,,,,,,,,
292909,2022-09-21_21h00.56.397,vts_reward_expectancy,2022.2.4,MacIntel,111.1111111,Safari,1440,900,,,a,0.702,10,177,0,2,8,32,4,1,0,1,0,0,0,0,1,0,circle,hexagon,,,,,,,,,,,,,,,,,,,,,,,,,,,,,,,,,,,,,,,,,,,,,,,,,,,,,,
292909,2022-09-21_21h00.56.397,vts_reward_expectancy,2022.2.4,MacIntel,111.1111111,Safari,1440,900,,,l,2.066,1,178,0,2,9,33,2,1,1,0,0,0,0,0,0,1,triangle,star,,,,,,,,,,,,,,,,,,,,,,,,,,,,,,,,,,,,,,,,,,,,,,,,,,,,,,
292909,2022-09-21_21h00.56.397,vts_reward_expectancy,2022.2.4,MacIntel,111.1111111,Safari,1440,900,,,a,1.532,10,188,0,2,10,34,0,1,1,0,0,0,0,1,0,0,triangle,circle,,,,,,,,,,,,,,,,,,,,,,,,,,,,,,,,,,,,,,,,,,,,,,,,,,,,,,
292909,2022-09-21_21h00.56.397,vts_reward_expectancy,2022.2.4,MacIntel,111.1111111,Safari,1440,900,,,a,0.833,10,198,0,2,11,35,1,1,1,0,0,0,0,0,1,0,triangle,hexagon,,,,,,,,,,,,,,,,,,,,,,,,,,,,,,,,,,,,,,,,,,,,,,,,,,,,,,
292909,2022-09-21_21h00.56.397,vts_reward_expectancy,2022.2.4,MacIntel,111.1111111,Safari,1440,900,,,a,0.698,1,199,1,0,0,0,11,1,0,0,0,1,0,0,1,0,star,hexagon,,,,,,,,,,,,,,,,,,,,,,,,,,,,,,,,,,,,,,,,,,,,,,,,,,,,,,
292909,2022-09-21_21h00.56.397,vts_reward_expectancy,2022.2.4,MacIntel,111.1111111,Safari,1440,900,,,l,1.885,10,209,1,0,1,1,9,1,0,0,0,1,1,0,0,0,star,triangle,,,,,,,,,,,,,,,,,,,,,,,,,,,,,,,,,,,,,,,,,,,,,,,,,,,,,,
292909,2022-09-21_21h00.56.397,vts_reward_expectancy,2022.2.4,MacIntel,111.1111111,Safari,1440,900,,,a,2,1,210,1,0,2,2,0,1,1,0,0,0,0,1,0,0,triangle,circle,,,,,,,,,,,,,,,,,,,,,,,,,,,,,,,,,,,,,,,,,,,,,,,,,,,,,,
292909,2022-09-21_21h00.56.397,vts_reward_expectancy,2022.2.4,MacIntel,111.1111111,Safari,1440,900,,,a,1.117,10,220,1,0,3,3,6,1,0,0,1,0,1,0,0,0,hexagon,triangle,,,,,,,,,,,,,,,,,,,,,,,,,,,,,,,,,,,,,,,,,,,,,,,,,,,,,,
292909,2022-09-21_21h00.56.397,vts_reward_expectancy,2022.2.4,MacIntel,111.1111111,Safari,1440,900,,,a,1.583,1,221,1,0,4,4,3,1,0,1,0,0,1,0,0,0,circle,triangle,,,,,,,,,,,,,,,,,,,,,,,,,,,,,,,,,,,,,,,,,,,,,,,,,,,,,,
292909,2022-09-21_21h00.56.397,vts_reward_expectancy,2022.2.4,MacIntel,111.1111111,Safari,1440,900,,,a,1.2,1,222,1,0,5,5,5,1,0,1,0,0,0,0,0,1,circle,star,,,,,,,,,,,,,,,,,,,,,,,,,,,,,,,,,,,,,,,,,,,,,,,,,,,,,,
292909,2022-09-21_21h00.56.397,vts_reward_expectancy,2022.2.4,MacIntel,111.1111111,Safari,1440,900,,,a,2.102,1,223,1,0,6,6,10,1,0,0,0,1,0,1,0,0,star ,circle,,,,,,,,,,,,,,,,,,,,,,,,,,,,,,,,,,,,,,,,,,,,,,,,,,,,,,
292909,2022-09-21_21h00.56.397,vts_reward_expectancy,2022.2.4,MacIntel,111.1111111,Safari,1440,900,,,l,0.617,1,224,1,0,7,7,8,1,0,0,1,0,0,0,0,1,hexagon,star,,,,,,,,,,,,,,,,,,,,,,,,,,,,,,,,,,,,,,,,,,,,,,,,,,,,,,
292909,2022-09-21_21h00.56.397,vts_reward_expectancy,2022.2.4,MacIntel,111.1111111,Safari,1440,900,,,a,0.583,10,234,1,0,8,8,4,1,0,1,0,0,0,0,1,0,circle,hexagon,,,,,,,,,,,,,,,,,,,,,,,,,,,,,,,,,,,,,,,,,,,,,,,,,,,,,,
292909,2022-09-21_21h00.56.397,vts_reward_expectancy,2022.2.4,MacIntel,111.1111111,Safari,1440,900,,,l,0.683,10,244,1,0,9,9,7,1,0,0,1,0,0,1,0,0,hexagon,circle,,,,,,,,,,,,,,,,,,,,,,,,,,,,,,,,,,,,,,,,,,,,,,,,,,,,,,
292909,2022-09-21_21h00.56.397,vts_reward_expectancy,2022.2.4,MacIntel,111.1111111,Safari,1440,900,,,l,1.118,1,245,1,0,10,10,1,1,1,0,0,0,0,0,1,0,triangle,hexagon,,,,,,,,,,,,,,,,,,,,,,,,,,,,,,,,,,,,,,,,,,,,,,,,,,,,,,
292909,2022-09-21_21h00.56.397,vts_reward_expectancy,2022.2.4,MacIntel,111.1111111,Safari,1440,900,,,a,1.1,1,246,1,0,11,11,2,1,1,0,0,0,0,0,0,1,triangle,star,,,,,,,,,,,,,,,,,,,,,,,,,,,,,,,,,,,,,,,,,,,,,,,,,,,,,,
292909,2022-09-21_21h00.56.397,vts_reward_expectancy,2022.2.4,MacIntel,111.1111111,Safari,1440,900,,,a,0.768,10,256,1,1,0,12,6,1,0,0,1,0,1,0,0,0,hexagon,triangle,,,,,,,,,,,,,,,,,,,,,,,,,,,,,,,,,,,,,,,,,,,,,,,,,,,,,,
292909,2022-09-21_21h00.56.397,vts_reward_expectancy,2022.2.4,MacIntel,111.1111111,Safari,1440,900,,,a,1.021,10,266,1,1,1,13,5,1,0,1,0,0,0,0,0,1,circle,star,,,,,,,,,,,,,,,,,,,,,,,,,,,,,,,,,,,,,,,,,,,,,,,,,,,,,,
292909,2022-09-21_21h00.56.397,vts_reward_expectancy,2022.2.4,MacIntel,111.1111111,Safari,1440,900,,,a,1.232,10,276,1,1,2,14,4,1,0,1,0,0,0,0,1,0,circle,hexagon,,,,,,,,,,,,,,,,,,,,,,,,,,,,,,,,,,,,,,,,,,,,,,,,,,,,,,
292909,2022-09-21_21h00.56.397,vts_reward_expectancy,2022.2.4,MacIntel,111.1111111,Safari,1440,900,,,a,1.033,1,277,1,1,3,15,8,1,0,0,1,0,0,0,0,1,hexagon,star,,,,,,,,,,,,,,,,,,,,,,,,,,,,,,,,,,,,,,,,,,,,,,,,,,,,,,
292909,2022-09-21_21h00.56.397,vts_reward_expectancy,2022.2.4,MacIntel,111.1111111,Safari,1440,900,,,a,2.436,10,287,1,1,4,16,1,1,1,0,0,0,0,0,1,0,triangle,hexagon,,,,,,,,,,,,,,,,,,,,,,,,,,,,,,,,,,,,,,,,,,,,,,,,,,,,,,
292909,2022-09-21_21h00.56.397,vts_reward_expectancy,2022.2.4,MacIntel,111.1111111,Safari,1440,900,,,l,0.717,10,297,1,1,5,17,9,1,0,0,0,1,1,0,0,0,star,triangle,,,,,,,,,,,,,,,,,,,,,,,,,,,,,,,,,,,,,,,,,,,,,,,,,,,,,,
292909,2022-09-21_21h00.56.397,vts_reward_expectancy,2022.2.4,MacIntel,111.1111111,Safari,1440,900,,,a,1.25,1,298,1,1,6,18,11,1,0,0,0,1,0,0,1,0,star,hexagon,,,,,,,,,,,,,,,,,,,,,,,,,,,,,,,,,,,,,,,,,,,,,,,,,,,,,,
292909,2022-09-21_21h00.56.397,vts_reward_expectancy,2022.2.4,MacIntel,111.1111111,Safari,1440,900,,,a,1.785,1,299,1,1,7,19,2,1,1,0,0,0,0,0,0,1,triangle,star,,,,,,,,,,,,,,,,,,,,,,,,,,,,,,,,,,,,,,,,,,,,,,,,,,,,,,
292909,2022-09-21_21h00.56.397,vts_reward_expectancy,2022.2.4,MacIntel,111.1111111,Safari,1440,900,,,l,0.884,10,309,1,1,8,20,10,1,0,0,0,1,0,1,0,0,star ,circle,,,,,,,,,,,,,,,,,,,,,,,,,,,,,,,,,,,,,,,,,,,,,,,,,,,,,,
292909,2022-09-21_21h00.56.397,vts_reward_expectancy,2022.2.4,MacIntel,111.1111111,Safari,1440,900,,,l,1.849,10,319,1,1,9,21,0,1,1,0,0,0,0,1,0,0,triangle,circle,,,,,,,,,,,,,,,,,,,,,,,,,,,,,,,,,,,,,,,,,,,,,,,,,,,,,,
292909,2022-09-21_21h00.56.397,vts_reward_expectancy,2022.2.4,MacIntel,111.1111111,Safari,1440,900,,,l,1.233,10,329,1,1,10,22,7,1,0,0,1,0,0,1,0,0,hexagon,circle,,,,,,,,,,,,,,,,,,,,,,,,,,,,,,,,,,,,,,,,,,,,,,,,,,,,,,
292909,2022-09-21_21h00.56.397,vts_reward_expectancy,2022.2.4,MacIntel,111.1111111,Safari,1440,900,,,a,0.933,1,330,1,1,11,23,3,1,0,1,0,0,1,0,0,0,circle,triangle,,,,,,,,,,,,,,,,,,,,,,,,,,,,,,,,,,,,,,,,,,,,,,,,,,,,,,
292909,2022-09-21_21h00.56.397,vts_reward_expectancy,2022.2.4,MacIntel,111.1111111,Safari,1440,900,,,l,0.585,10,340,1,2,0,24,6,1,0,0,1,0,1,0,0,0,hexagon,triangle,,,,,,,,,,,,,,,,,,,,,,,,,,,,,,,,,,,,,,,,,,,,,,,,,,,,,,
292909,2022-09-21_21h00.56.397,vts_reward_expectancy,2022.2.4,MacIntel,111.1111111,Safari,1440,900,,,l,1.882,10,350,1,2,1,25,10,1,0,0,0,1,0,1,0,0,star ,circle,,,,,,,,,,,,,,,,,,,,,,,,,,,,,,,,,,,,,,,,,,,,,,,,,,,,,,
292909,2022-09-21_21h00.56.397,vts_reward_expectancy,2022.2.4,MacIntel,111.1111111,Safari,1440,900,,,a,1.582,10,360,1,2,2,26,2,1,1,0,0,0,0,0,0,1,triangle,star,,,,,,,,,,,,,,,,,,,,,,,,,,,,,,,,,,,,,,,,,,,,,,,,,,,,,,
292909,2022-09-21_21h00.56.397,vts_reward_expectancy,2022.2.4,MacIntel,111.1111111,Safari,1440,900,,,l,2.149,1,361,1,2,3,27,8,1,0,0,1,0,0,0,0,1,hexagon,star,,,,,,,,,,,,,,,,,,,,,,,,,,,,,,,,,,,,,,,,,,,,,,,,,,,,,,
292909,2022-09-21_21h00.56.397,vts_reward_expectancy,2022.2.4,MacIntel,111.1111111,Safari,1440,900,,,a,0.55,1,362,1,2,4,28,5,1,0,1,0,0,0,0,0,1,circle,star,,,,,,,,,,,,,,,,,,,,,,,,,,,,,,,,,,,,,,,,,,,,,,,,,,,,,,
292909,2022-09-21_21h00.56.397,vts_reward_expectancy,2022.2.4,MacIntel,111.1111111,Safari,1440,900,,,a,1.652,10,372,1,2,5,29,3,1,0,1,0,0,1,0,0,0,circle,triangle,,,,,,,,,,,,,,,,,,,,,,,,,,,,,,,,,,,,,,,,,,,,,,,,,,,,,,
292909,2022-09-21_21h00.56.397,vts_reward_expectancy,2022.2.4,MacIntel,111.1111111,Safari,1440,900,,,l,0.901,10,382,1,2,6,30,9,1,0,0,0,1,1,0,0,0,star,triangle,,,,,,,,,,,,,,,,,,,,,,,,,,,,,,,,,,,,,,,,,,,,,,,,,,,,,,
292909,2022-09-21_21h00.56.397,vts_reward_expectancy,2022.2.4,MacIntel,111.1111111,Safari,1440,900,,,a,1.283,10,392,1,2,7,31,1,1,1,0,0,0,0,0,1,0,triangle,hexagon,,,,,,,,,,,,,,,,,,,,,,,,,,,,,,,,,,,,,,,,,,,,,,,,,,,,,,
292909,2022-09-21_21h00.56.397,vts_reward_expectancy,2022.2.4,MacIntel,111.1111111,Safari,1440,900,,,l,0.801,10,402,1,2,8,32,7,1,0,0,1,0,0,1,0,0,hexagon,circle,,,,,,,,,,,,,,,,,,,,,,,,,,,,,,,,,,,,,,,,,,,,,,,,,,,,,,
292909,2022-09-21_21h00.56.397,vts_reward_expectancy,2022.2.4,MacIntel,111.1111111,Safari,1440,900,,,l,0.884,10,412,1,2,9,33,0,1,1,0,0,0,0,1,0,0,triangle,circle,,,,,,,,,,,,,,,,,,,,,,,,,,,,,,,,,,,,,,,,,,,,,,,,,,,,,,
292909,2022-09-21_21h00.56.397,vts_reward_expectancy,2022.2.4,MacIntel,111.1111111,Safari,1440,900,,,l,1.099,10,422,1,2,10,34,11,1,0,0,0,1,0,0,1,0,star,hexagon,,,,,,,,,,,,,,,,,,,,,,,,,,,,,,,,,,,,,,,,,,,,,,,,,,,,,,
292909,2022-09-21_21h00.56.397,vts_reward_expectancy,2022.2.4,MacIntel,111.1111111,Safari,1440,900,,,a,0.639,10,432,1,2,11,35,4,1,0,1,0,0,0,0,1,0,circle,hexagon,,,,,,,,,,,,,,,,,,,,,,,,,,,,,,,,,,,,,,,,,,,,,,,,,,,,,,
292909,2022-09-21_21h00.56.397,vts_reward_expectancy,2022.2.4,MacIntel,111.1111111,Safari,1440,900,,,l,1.133,1,433,2,0,0,0,11,1,0,0,0,1,0,0,1,0,star,hexagon,,,,,,,,,,,,,,,,,,,,,,,,,,,,,,,,,,,,,,,,,,,,,,,,,,,,,,
292909,2022-09-21_21h00.56.397,vts_reward_expectancy,2022.2.4,MacIntel,111.1111111,Safari,1440,900,,,l,0.97,1,434,2,0,1,1,0,1,1,0,0,0,0,1,0,0,triangle,circle,,,,,,,,,,,,,,,,,,,,,,,,,,,,,,,,,,,,,,,,,,,,,,,,,,,,,,
292909,2022-09-21_21h00.56.397,vts_reward_expectancy,2022.2.4,MacIntel,111.1111111,Safari,1440,900,,,l,0.932,1,435,2,0,2,2,5,1,0,1,0,0,0,0,0,1,circle,star,,,,,,,,,,,,,,,,,,,,,,,,,,,,,,,,,,,,,,,,,,,,,,,,,,,,,,
292909,2022-09-21_21h00.56.397,vts_reward_expectancy,2022.2.4,MacIntel,111.1111111,Safari,1440,900,,,a,0.534,1,436,2,0,3,3,8,1,0,0,1,0,0,0,0,1,hexagon,star,,,,,,,,,,,,,,,,,,,,,,,,,,,,,,,,,,,,,,,,,,,,,,,,,,,,,,
292909,2022-09-21_21h00.56.397,vts_reward_expectancy,2022.2.4,MacIntel,111.1111111,Safari,1440,900,,,l,0.501,1,437,2,0,4,4,1,1,1,0,0,0,0,0,1,0,triangle,hexagon,,,,,,,,,,,,,,,,,,,,,,,,,,,,,,,,,,,,,,,,,,,,,,,,,,,,,,
292909,2022-09-21_21h00.56.397,vts_reward_expectancy,2022.2.4,MacIntel,111.1111111,Safari,1440,900,,,a,0.566,1,438,2,0,5,5,3,1,0,1,0,0,1,0,0,0,circle,triangle,,,,,,,,,,,,,,,,,,,,,,,,,,,,,,,,,,,,,,,,,,,,,,,,,,,,,,
292909,2022-09-21_21h00.56.397,vts_reward_expectancy,2022.2.4,MacIntel,111.1111111,Safari,1440,900,,,a,0.617,10,448,2,0,6,6,7,1,0,0,1,0,0,1,0,0,hexagon,circle,,,,,,,,,,,,,,,,,,,,,,,,,,,,,,,,,,,,,,,,,,,,,,,,,,,,,,
292909,2022-09-21_21h00.56.397,vts_reward_expectancy,2022.2.4,MacIntel,111.1111111,Safari,1440,900,,,a,0.917,1,449,2,0,7,7,6,1,0,0,1,0,1,0,0,0,hexagon,triangle,,,,,,,,,,,,,,,,,,,,,,,,,,,,,,,,,,,,,,,,,,,,,,,,,,,,,,
292909,2022-09-21_21h00.56.397,vts_reward_expectancy,2022.2.4,MacIntel,111.1111111,Safari,1440,900,,,l,0.487,10,459,2,0,8,8,9,1,0,0,0,1,1,0,0,0,star,triangle,,,,,,,,,,,,,,,,,,,,,,,,,,,,,,,,,,,,,,,,,,,,,,,,,,,,,,
292909,2022-09-21_21h00.56.397,vts_reward_expectancy,2022.2.4,MacIntel,111.1111111,Safari,1440,900,,,a,0.882,10,469,2,0,9,9,10,1,0,0,0,1,0,1,0,0,star ,circle,,,,,,,,,,,,,,,,,,,,,,,,,,,,,,,,,,,,,,,,,,,,,,,,,,,,,,
292909,2022-09-21_21h00.56.397,vts_reward_expectancy,2022.2.4,MacIntel,111.1111111,Safari,1440,900,,,a,1.017,1,470,2,0,10,10,2,1,1,0,0,0,0,0,0,1,triangle,star,,,,,,,,,,,,,,,,,,,,,,,,,,,,,,,,,,,,,,,,,,,,,,,,,,,,,,
292909,2022-09-21_21h00.56.397,vts_reward_expectancy,2022.2.4,MacIntel,111.1111111,Safari,1440,900,,,l,0.716,10,480,2,0,11,11,4,1,0,1,0,0,0,0,1,0,circle,hexagon,,,,,,,,,,,,,,,,,,,,,,,,,,,,,,,,,,,,,,,,,,,,,,,,,,,,,,
292909,2022-09-21_21h00.56.397,vts_reward_expectancy,2022.2.4,MacIntel,111.1111111,Safari,1440,900,,,a,0.549,10,490,2,1,0,12,0,1,1,0,0,0,0,1,0,0,triangle,circle,,,,,,,,,,,,,,,,,,,,,,,,,,,,,,,,,,,,,,,,,,,,,,,,,,,,,,
292909,2022-09-21_21h00.56.397,vts_reward_expectancy,2022.2.4,MacIntel,111.1111111,Safari,1440,900,,,l,0.749,1,491,2,1,1,13,4,1,0,1,0,0,0,0,1,0,circle,hexagon,,,,,,,,,,,,,,,,,,,,,,,,,,,,,,,,,,,,,,,,,,,,,,,,,,,,,,
292909,2022-09-21_21h00.56.397,vts_reward_expectancy,2022.2.4,MacIntel,111.1111111,Safari,1440,900,,,l,0.933,1,492,2,1,2,14,11,1,0,0,0,1,0,0,1,0,star,hexagon,,,,,,,,,,,,,,,,,,,,,,,,,,,,,,,,,,,,,,,,,,,,,,,,,,,,,,
292909,2022-09-21_21h00.56.397,vts_reward_expectancy,2022.2.4,MacIntel,111.1111111,Safari,1440,900,,,l,1.384,1,493,2,1,3,15,2,1,1,0,0,0,0,0,0,1,triangle,star,,,,,,,,,,,,,,,,,,,,,,,,,,,,,,,,,,,,,,,,,,,,,,,,,,,,,,
292909,2022-09-21_21h00.56.397,vts_reward_expectancy,2022.2.4,MacIntel,111.1111111,Safari,1440,900,,,a,1.666,10,503,2,1,4,16,8,1,0,0,1,0,0,0,0,1,hexagon,star,,,,,,,,,,,,,,,,,,,,,,,,,,,,,,,,,,,,,,,,,,,,,,,,,,,,,,
292909,2022-09-21_21h00.56.397,vts_reward_expectancy,2022.2.4,MacIntel,111.1111111,Safari,1440,900,,,a,1.584,10,513,2,1,5,17,1,1,1,0,0,0,0,0,1,0,triangle,hexagon,,,,,,,,,,,,,,,,,,,,,,,,,,,,,,,,,,,,,,,,,,,,,,,,,,,,,,
292909,2022-09-21_21h00.56.397,vts_reward_expectancy,2022.2.4,MacIntel,111.1111111,Safari,1440,900,,,a,1.381,1,514,2,1,6,18,6,1,0,0,1,0,1,0,0,0,hexagon,triangle,,,,,,,,,,,,,,,,,,,,,,,,,,,,,,,,,,,,,,,,,,,,,,,,,,,,,,
292909,2022-09-21_21h00.56.397,vts_reward_expectancy,2022.2.4,MacIntel,111.1111111,Safari,1440,900,,,l,1.667,1,515,2,1,7,19,9,1,0,0,0,1,1,0,0,0,star,triangle,,,,,,,,,,,,,,,,,,,,,,,,,,,,,,,,,,,,,,,,,,,,,,,,,,,,,,
292909,2022-09-21_21h00.56.397,vts_reward_expectancy,2022.2.4,MacIntel,111.1111111,Safari,1440,900,,,l,0.699,10,525,2,1,8,20,3,1,0,1,0,0,1,0,0,0,circle,triangle,,,,,,,,,,,,,,,,,,,,,,,,,,,,,,,,,,,,,,,,,,,,,,,,,,,,,,
292909,2022-09-21_21h00.56.397,vts_reward_expectancy,2022.2.4,MacIntel,111.1111111,Safari,1440,900,,,a,0.549,1,526,2,1,9,21,7,1,0,0,1,0,0,1,0,0,hexagon,circle,,,,,,,,,,,,,,,,,,,,,,,,,,,,,,,,,,,,,,,,,,,,,,,,,,,,,,
292909,2022-09-21_21h00.56.397,vts_reward_expectancy,2022.2.4,MacIntel,111.1111111,Safari,1440,900,,,l,0.603,1,527,2,1,10,22,5,1,0,1,0,0,0,0,0,1,circle,star,,,,,,,,,,,,,,,,,,,,,,,,,,,,,,,,,,,,,,,,,,,,,,,,,,,,,,
292909,2022-09-21_21h00.56.397,vts_reward_expectancy,2022.2.4,MacIntel,111.1111111,Safari,1440,900,,,a,0.517,1,528,2,1,11,23,10,1,0,0,0,1,0,1,0,0,star ,circle,,,,,,,,,,,,,,,,,,,,,,,,,,,,,,,,,,,,,,,,,,,,,,,,,,,,,,
292909,2022-09-21_21h00.56.397,vts_reward_expectancy,2022.2.4,MacIntel,111.1111111,Safari,1440,900,,,a,0.85,1,529,2,2,0,24,8,1,0,0,1,0,0,0,0,1,hexagon,star,,,,,,,,,,,,,,,,,,,,,,,,,,,,,,,,,,,,,,,,,,,,,,,,,,,,,,
292909,2022-09-21_21h00.56.397,vts_reward_expectancy,2022.2.4,MacIntel,111.1111111,Safari,1440,900,,,a,1.484,10,539,2,2,1,25,1,1,1,0,0,0,0,0,1,0,triangle,hexagon,,,,,,,,,,,,,,,,,,,,,,,,,,,,,,,,,,,,,,,,,,,,,,,,,,,,,,
292909,2022-09-21_21h00.56.397,vts_reward_expectancy,2022.2.4,MacIntel,111.1111111,Safari,1440,900,,,a,0.967,1,540,2,2,2,26,7,1,0,0,1,0,0,1,0,0,hexagon,circle,,,,,,,,,,,,,,,,,,,,,,,,,,,,,,,,,,,,,,,,,,,,,,,,,,,,,,
292909,2022-09-21_21h00.56.397,vts_reward_expectancy,2022.2.4,MacIntel,111.1111111,Safari,1440,900,,,l,0.737,10,550,2,2,3,27,0,1,1,0,0,0,0,1,0,0,triangle,circle,,,,,,,,,,,,,,,,,,,,,,,,,,,,,,,,,,,,,,,,,,,,,,,,,,,,,,
292909,2022-09-21_21h00.56.397,vts_reward_expectancy,2022.2.4,MacIntel,111.1111111,Safari,1440,900,,,a,0.866,1,551,2,2,4,28,2,1,1,0,0,0,0,0,0,1,triangle,star,,,,,,,,,,,,,,,,,,,,,,,,,,,,,,,,,,,,,,,,,,,,,,,,,,,,,,
292909,2022-09-21_21h00.56.397,vts_reward_expectancy,2022.2.4,MacIntel,111.1111111,Safari,1440,900,,,a,0.884,1,552,2,2,5,29,10,1,0,0,0,1,0,1,0,0,star ,circle,,,,,,,,,,,,,,,,,,,,,,,,,,,,,,,,,,,,,,,,,,,,,,,,,,,,,,
292909,2022-09-21_21h00.56.397,vts_reward_expectancy,2022.2.4,MacIntel,111.1111111,Safari,1440,900,,,l,0.498,1,553,2,2,6,30,4,1,0,1,0,0,0,0,1,0,circle,hexagon,,,,,,,,,,,,,,,,,,,,,,,,,,,,,,,,,,,,,,,,,,,,,,,,,,,,,,
292909,2022-09-21_21h00.56.397,vts_reward_expectancy,2022.2.4,MacIntel,111.1111111,Safari,1440,900,,,l,2.033,1,554,2,2,7,31,9,1,0,0,0,1,1,0,0,0,star,triangle,,,,,,,,,,,,,,,,,,,,,,,,,,,,,,,,,,,,,,,,,,,,,,,,,,,,,,
292909,2022-09-21_21h00.56.397,vts_reward_expectancy,2022.2.4,MacIntel,111.1111111,Safari,1440,900,,,a,0.834,1,555,2,2,8,32,11,1,0,0,0,1,0,0,1,0,star,hexagon,,,,,,,,,,,,,,,,,,,,,,,,,,,,,,,,,,,,,,,,,,,,,,,,,,,,,,
292909,2022-09-21_21h00.56.397,vts_reward_expectancy,2022.2.4,MacIntel,111.1111111,Safari,1440,900,,,l,1.302,10,565,2,2,9,33,3,1,0,1,0,0,1,0,0,0,circle,triangle,,,,,,,,,,,,,,,,,,,,,,,,,,,,,,,,,,,,,,,,,,,,,,,,,,,,,,
292909,2022-09-21_21h00.56.397,vts_reward_expectancy,2022.2.4,MacIntel,111.1111111,Safari,1440,900,,,a,0.816,1,566,2,2,10,34,6,1,0,0,1,0,1,0,0,0,hexagon,triangle,,,,,,,,,,,,,,,,,,,,,,,,,,,,,,,,,,,,,,,,,,,,,,,,,,,,,,
292909,2022-09-21_21h00.56.397,vts_reward_expectancy,2022.2.4,MacIntel,111.1111111,Safari,1440,900,,,a,1.517,10,576,2,2,11,35,5,1,0,1,0,0,0,0,0,1,circle,star,,,,,,,,,,,,,,,,,,,,,,,,,,,,,,,,,,,,,,,,,,,,,,,,,,,,,,
292909,2022-09-21_21h00.56.397,vts_reward_expectancy,2022.2.4,MacIntel,111.1111111,Safari,1440,900,,,,,,,,,,,,,,,,,,,,,,,D,167,circle,0,0,,0,0,0,0,0,1,,,,,,,,,,,,,,,,,,,,,,,,,,,,,,,,,,,,,,,,,,
292909,2022-09-21_21h00.56.397,vts_reward_expectancy,2022.2.4,MacIntel,111.1111111,Safari,1440,900,,,,,,,,,,,,,,,,,,,,,,,Y,174,hexagon,1,1,f,0,1,0,1,0,1,0.947,,,,,,,,,,,,,,,,,,,,,,,,,,,,,,,,,,,,,,,,,
292909,2022-09-21_21h00.56.397,vts_reward_expectancy,2022.2.4,MacIntel,111.1111111,Safari,1440,900,,,,,,,,,,,,,,,,,,,,,,,U,125,triangle,1,0,f,0,2,0,2,0,1,1.117,,,,,,,,,,,,,,,,,,,,,,,,,,,,,,,,,,,,,,,,,
292909,2022-09-21_21h00.56.397,vts_reward_expectancy,2022.2.4,MacIntel,111.1111111,Safari,1440,900,,,,,,,,,,,,,,,,,,,,,,,W,132,star,1,0,f,0,3,0,3,0,1,0.681,,,,,,,,,,,,,,,,,,,,,,,,,,,,,,,,,,,,,,,,,
292909,2022-09-21_21h00.56.397,vts_reward_expectancy,2022.2.4,MacIntel,111.1111111,Safari,1440,900,,,,,,,,,,,,,,,,,,,,,,,F,181,circle,0,0,f,0,4,0,4,0,1,1.581,,,,,,,,,,,,,,,,,,,,,,,,,,,,,,,,,,,,,,,,,
292909,2022-09-21_21h00.56.397,vts_reward_expectancy,2022.2.4,MacIntel,111.1111111,Safari,1440,900,,,,,,,,,,,,,,,,,,,,,,,B,146,hexagon,1,1,d,0,5,0,5,0,1,0.565,,,,,,,,,,,,,,,,,,,,,,,,,,,,,,,,,,,,,,,,,
292909,2022-09-21_21h00.56.397,vts_reward_expectancy,2022.2.4,MacIntel,111.1111111,Safari,1440,900,,,,,,,,,,,,,,,,,,,,,,,S,139,triangle,0,0,d,0,6,0,6,0,1,0.945,,,,,,,,,,,,,,,,,,,,,,,,,,,,,,,,,,,,,,,,,
292909,2022-09-21_21h00.56.397,vts_reward_expectancy,2022.2.4,MacIntel,111.1111111,Safari,1440,900,,,,,,,,,,,,,,,,,,,,,,,H,160,star,1,1,d,0,7,0,7,0,1,2.414,,,,,,,,,,,,,,,,,,,,,,,,,,,,,,,,,,,,,,,,,
292909,2022-09-21_21h00.56.397,vts_reward_expectancy,2022.2.4,MacIntel,111.1111111,Safari,1440,900,,,,,,,,,,,,,,,,,,,,,,,D,167,circle,1,0,d,0,8,0,8,0,1,0.796,,,,,,,,,,,,,,,,,,,,,,,,,,,,,,,,,,,,,,,,,
292909,2022-09-21_21h00.56.397,vts_reward_expectancy,2022.2.4,MacIntel,111.1111111,Safari,1440,900,,,,,,,,,,,,,,,,,,,,,,,Y,174,star,1,0,f,0,9,0,9,0,1,0.548,,,,,,,,,,,,,,,,,,,,,,,,,,,,,,,,,,,,,,,,,
292909,2022-09-21_21h00.56.397,vts_reward_expectancy,2022.2.4,MacIntel,111.1111111,Safari,1440,900,,,,,,,,,,,,,,,,,,,,,,,H,160,circle,1,0,d,1,0,0,0,0,1,1.1,,,,,,,,,,,,,,,,,,,,,,,,,,,,,,,,,,,,,,,,,
292909,2022-09-21_21h00.56.397,vts_reward_expectancy,2022.2.4,MacIntel,111.1111111,Safari,1440,900,,,,,,,,,,,,,,,,,,,,,,,B,146,hexagon,1,0,d,1,1,0,1,0,1,0.614,,,,,,,,,,,,,,,,,,,,,,,,,,,,,,,,,,,,,,,,,
292909,2022-09-21_21h00.56.397,vts_reward_expectancy,2022.2.4,MacIntel,111.1111111,Safari,1440,900,,,,,,,,,,,,,,,,,,,,,,,F,181,star,1,0,d,1,2,0,2,0,1,0.965,,,,,,,,,,,,,,,,,,,,,,,,,,,,,,,,,,,,,,,,,
292909,2022-09-21_21h00.56.397,vts_reward_expectancy,2022.2.4,MacIntel,111.1111111,Safari,1440,900,,,,,,,,,,,,,,,,,,,,,,,W,125,triangle,1,0,f,1,3,0,3,0,1,0.547,,,,,,,,,,,,,,,,,,,,,,,,,,,,,,,,,,,,,,,,,
292909,2022-09-21_21h00.56.397,vts_reward_expectancy,2022.2.4,MacIntel,111.1111111,Safari,1440,900,,,,,,,,,,,,,,,,,,,,,,,Y,139,circle,1,0,f,1,4,0,4,0,1,0.564,,,,,,,,,,,,,,,,,,,,,,,,,,,,,,,,,,,,,,,,,
292909,2022-09-21_21h00.56.397,vts_reward_expectancy,2022.2.4,MacIntel,111.1111111,Safari,1440,900,,,,,,,,,,,,,,,,,,,,,,,S,132,hexagon,1,0,f,1,5,0,5,0,1,0.733,,,,,,,,,,,,,,,,,,,,,,,,,,,,,,,,,,,,,,,,,
292909,2022-09-21_21h00.56.397,vts_reward_expectancy,2022.2.4,MacIntel,111.1111111,Safari,1440,900,,,,,,,,,,,,,,,,,,,,,,,U,174,star,1,0,f,1,6,0,6,0,1,1.248,,,,,,,,,,,,,,,,,,,,,,,,,,,,,,,,,,,,,,,,,
292909,2022-09-21_21h00.56.397,vts_reward_expectancy,2022.2.4,MacIntel,111.1111111,Safari,1440,900,,,,,,,,,,,,,,,,,,,,,,,D,167,triangle,1,0,d,1,7,0,7,0,1,0.665,,,,,,,,,,,,,,,,,,,,,,,,,,,,,,,,,,,,,,,,,
292909,2022-09-21_21h00.56.397,vts_reward_expectancy,2022.2.4,MacIntel,111.1111111,Safari,1440,900,,,,,,,,,,,,,,,,,,,,,,,H,160,star,1,0,d,1,8,0,8,0,1,1.061,,,,,,,,,,,,,,,,,,,,,,,,,,,,,,,,,,,,,,,,,
292909,2022-09-21_21h00.56.397,vts_reward_expectancy,2022.2.4,MacIntel,111.1111111,Safari,1440,900,,,,,,,,,,,,,,,,,,,,,,,B,146,triangle,1,0,d,1,9,0,9,0,1,0.55,,,,,,,,,,,,,,,,,,,,,,,,,,,,,,,,,,,,,,,,,
292909,2022-09-21_21h00.56.397,vts_reward_expectancy,2022.2.4,MacIntel,111.1111111,Safari,1440,900,,,,,,,,,,,,,,,,,,,,,,,W,132,circle,1,0,,2,,,,,,,j,0.948,0,0,0,0,1,,,,,,,,,,,,,,,,,,,,,,,,,,,,,,,,,,
292909,2022-09-21_21h00.56.397,vts_reward_expectancy,2022.2.4,MacIntel,111.1111111,Safari,1440,900,,,,,,,,,,,,,,,,,,,,,,,Y,167,hexagon,1,0,,2,,,,,,,k,0.615,1,0,1,0,1,,,,,,,,,,,,,,,,,,,,,,,,,,,,,,,,,,
292909,2022-09-21_21h00.56.397,vts_reward_expectancy,2022.2.4,MacIntel,111.1111111,Safari,1440,900,,,,,,,,,,,,,,,,,,,,,,,D,146,triangle,1,0,,2,,,,,,,j,0.815,2,0,2,0,1,,,,,,,,,,,,,,,,,,,,,,,,,,,,,,,,,,
292909,2022-09-21_21h00.56.397,vts_reward_expectancy,2022.2.4,MacIntel,111.1111111,Safari,1440,900,,,,,,,,,,,,,,,,,,,,,,,B,139,star,1,0,,2,,,,,,,j,0.629,3,0,3,0,1,,,,,,,,,,,,,,,,,,,,,,,,,,,,,,,,,,
292909,2022-09-21_21h00.56.397,vts_reward_expectancy,2022.2.4,MacIntel,111.1111111,Safari,1440,900,,,,,,,,,,,,,,,,,,,,,,,F,181,circle,1,0,,2,,,,,,,k,0.563,4,0,4,0,1,,,,,,,,,,,,,,,,,,,,,,,,,,,,,,,,,,
292909,2022-09-21_21h00.56.397,vts_reward_expectancy,2022.2.4,MacIntel,111.1111111,Safari,1440,900,,,,,,,,,,,,,,,,,,,,,,,U,160,hexagon,1,0,,2,,,,,,,k,0.764,5,0,5,0,1,,,,,,,,,,,,,,,,,,,,,,,,,,,,,,,,,,
292909,2022-09-21_21h00.56.397,vts_reward_expectancy,2022.2.4,MacIntel,111.1111111,Safari,1440,900,,,,,,,,,,,,,,,,,,,,,,,S,125,triangle,1,0,,2,,,,,,,j,0.549,6,0,6,0,1,,,,,,,,,,,,,,,,,,,,,,,,,,,,,,,,,,
292909,2022-09-21_21h00.56.397,vts_reward_expectancy,2022.2.4,MacIntel,111.1111111,Safari,1440,900,,,,,,,,,,,,,,,,,,,,,,,H,174,star,1,0,,2,,,,,,,k,0.649,7,0,7,0,1,,,,,,,,,,,,,,,,,,,,,,,,,,,,,,,,,,
292909,2022-09-21_21h00.56.397,vts_reward_expectancy,2022.2.4,MacIntel,111.1111111,Safari,1440,900,,,,,,,,,,,,,,,,,,,,,,,W,132,star,1,0,,2,,,,,,,j,0.9,8,0,8,0,1,,,,,,,,,,,,,,,,,,,,,,,,,,,,,,,,,,
292909,2022-09-21_21h00.56.397,vts_reward_expectancy,2022.2.4,MacIntel,111.1111111,Safari,1440,900,,,,,,,,,,,,,,,,,,,,,,,Y,167,triangle,1,0,,2,,,,,,,k,0.747,9,0,9,0,1,,,,,,,,,,,,,,,,,,,,,,,,,,,,,,,,,,
292909,2022-09-21_21h00.56.397,vts_reward_expectancy,2022.2.4,MacIntel,111.1111111,Safari,1440,900,,,,,0,576,,,,,,,,,,,,,,,,,U,125,circle,1,0,,3,,,,,,,,,,,,,,-1,letter,NA,f,1.972,vtsPrac,0,0,0,0,1,,,,,,,,,,,,,,,,,,,,,,,
292909,2022-09-21_21h00.56.397,vts_reward_expectancy,2022.2.4,MacIntel,111.1111111,Safari,1440,900,,,,,0,576,,,,,,,,,,,,,,,,,W,174,star,1,0,,3,,,,,,,,,,,,,,repeat,letter,lettRpt,f,0.917,vtsPrac,1,0,1,0,1,,,,,,,,,,,,,,,,,,,,,,,
292909,2022-09-21_21h00.56.397,vts_reward_expectancy,2022.2.4,MacIntel,111.1111111,Safari,1440,900,,,,,0,576,,,,,,,,,,,,,,,,,H,167,circle,1,0,,3,,,,,,,,,,,,,,switch,number,numSwt,k,0.58,vtsPrac,2,0,2,0,1,,,,,,,,,,,,,,,,,,,,,,,
292909,2022-09-21_21h00.56.397,vts_reward_expectancy,2022.2.4,MacIntel,111.1111111,Safari,1440,900,,,,,0,576,,,,,,,,,,,,,,,,,B,160,star,1,0,,3,,,,,,,,,,,,,,repeat,number,numRpt,k,0.65,vtsPrac,3,0,3,0,1,,,,,,,,,,,,,,,,,,,,,,,
292909,2022-09-21_21h00.56.397,vts_reward_expectancy,2022.2.4,MacIntel,111.1111111,Safari,1440,900,,,,,0,576,,,,,,,,,,,,,,,,,U,125,star,1,0,,3,,,,,,,,,,,,,,repeat,number,numRpt,j,0.597,vtsPrac,4,0,4,0,1,,,,,,,,,,,,,,,,,,,,,,,
292909,2022-09-21_21h00.56.397,vts_reward_expectancy,2022.2.4,MacIntel,111.1111111,Safari,1440,900,,,,,0,576,,,,,,,,,,,,,,,,,W,174,triangle,1,0,,3,,,,,,,,,,,,,,switch,letter,lettSwt,f,0.797,vtsPrac,5,0,5,0,1,,,,,,,,,,,,,,,,,,,,,,,
292909,2022-09-21_21h00.56.397,vts_reward_expectancy,2022.2.4,MacIntel,111.1111111,Safari,1440,900,,,,,0,576,,,,,,,,,,,,,,,,,H,167,hexagon,1,0,,3,,,,,,,,,,,,,,repeat,letter,lettRpt,d,1.231,vtsPrac,6,0,6,0,1,,,,,,,,,,,,,,,,,,,,,,,
292909,2022-09-21_21h00.56.397,vts_reward_expectancy,2022.2.4,MacIntel,111.1111111,Safari,1440,900,,,,,0,576,,,,,,,,,,,,,,,,,B,160,triangle,1,0,,3,,,,,,,,,,,,,,switch,number,numSwt,k,0.681,vtsPrac,7,0,7,0,1,,,,,,,,,,,,,,,,,,,,,,,
292909,2022-09-21_21h00.56.397,vts_reward_expectancy,2022.2.4,MacIntel,111.1111111,Safari,1440,900,,,,,0,576,,,,,,,,,,,,,,,,,F,174,hexagon,1,0,,3,,,,,,,,,,,,,,switch,letter,lettSwt,d,1.181,vtsPrac,8,0,8,0,1,,,,,,,,,,,,,,,,,,,,,,,
292909,2022-09-21_21h00.56.397,vts_reward_expectancy,2022.2.4,MacIntel,111.1111111,Safari,1440,900,,,,,0,576,,,,,,,,,,,,,,,,,S,139,triangle,1,0,,3,,,,,,,,,,,,,,repeat,letter,lettRpt,f,1.082,vtsPrac,9,0,9,0,1,,,,,,,,,,,,,,,,,,,,,,,
292909,2022-09-21_21h00.56.397,vts_reward_expectancy,2022.2.4,MacIntel,111.1111111,Safari,1440,900,,,,,0,576,,,,,,,,,,,,,,,,,U,132,triangle,1,0,,3,,,,,,,,,,,,,,switch,number,numSwt,j,0.832,vtsPrac,10,0,10,0,1,,,,,,,,,,,,,,,,,,,,,,,
292909,2022-09-21_21h00.56.397,vts_reward_expectancy,2022.2.4,MacIntel,111.1111111,Safari,1440,900,,,,,0,576,,,,,,,,,,,,,,,,,Y,160,hexagon,1,0,,3,,,,,,,,,,,,,,repeat,number,numRpt,k,0.715,vtsPrac,11,0,11,0,1,,,,,,,,,,,,,,,,,,,,,,,
292909,2022-09-21_21h00.56.397,vts_reward_expectancy,2022.2.4,MacIntel,111.1111111,Safari,1440,900,,,,,0,576,,,,,,,,,,,,,,,,,F,181,circle,1,0,,3,,,,,,,,,,,,,,switch,letter,lettSwt,d,1.514,vtsPrac,12,0,12,0,1,,,,,,,,,,,,,,,,,,,,,,,
292909,2022-09-21_21h00.56.397,vts_reward_expectancy,2022.2.4,MacIntel,111.1111111,Safari,1440,900,,,,,0,576,,,,,,,,,,,,,,,,,B,160,triangle,1,0,,3,,,,,,,,,,,,,,repeat,letter,lettRpt,d,0.73,vtsPrac,13,0,13,0,1,,,,,,,,,,,,,,,,,,,,,,,
292909,2022-09-21_21h00.56.397,vts_reward_expectancy,2022.2.4,MacIntel,111.1111111,Safari,1440,900,,,,,0,576,,,,,,,,,,,,,,,,,W,125,hexagon,1,0,,3,,,,,,,,,,,,,,switch,number,numSwt,j,0.648,vtsPrac,14,0,14,0,1,,,,,,,,,,,,,,,,,,,,,,,
292909,2022-09-21_21h00.56.397,vts_reward_expectancy,2022.2.4,MacIntel,111.1111111,Safari,1440,900,,,,,0,576,,,,,,,,,,,,,,,,,Y,174,triangle,1,0,,3,,,,,,,,,,,,,,switch,letter,lettSwt,f,0.615,vtsPrac,15,0,15,0,1,,,,,,,,,,,,,,,,,,,,,,,
292909,2022-09-21_21h00.56.397,vts_reward_expectancy,2022.2.4,MacIntel,111.1111111,Safari,1440,900,,,,,,,,,,,,,,,,,,,,,,,,,,,,,,,,,,,,,,,,,,,,,,,,,,,,,,,,,,,,,,,,,,,,,,,,,,,,
292909,2022-09-21_21h00.56.397,vts_reward_expectancy,2022.2.4,MacIntel,111.1111111,Safari,1440,900,,,,,,,,,,,,,,,,,,,,,,,,,,,,,,,,,,,,,,,,,,,,,,,,,,,,,,,,,,,,,,,,,,,,,,,,,,,,
292909,2022-09-21_21h00.56.397,vts_reward_expectancy,2022.2.4,MacIntel,111.1111111,Safari,1440,900,,,,,0,576,,,,,,,,,,,,,,,,,S,125,circle,1,0,,,,,,,,,,,,,,,,repeat,letter,lettRpt,f,0.747,noRew,,,,,,0,0,0,0,0,1,,,,,,,,,,,,,,,,,
292909,2022-09-21_21h00.56.397,vts_reward_expectancy,2022.2.4,MacIntel,111.1111111,Safari,1440,900,,,,,0,576,,,,,,,,,,,,,,,,,D,174,triangle,1,0,,,,,,,,,,,,,,,,repeat,letter,lettRpt,d,0.664,noRew,,,,,,0,1,0,1,0,1,,,,,,,,,,,,,,,,,
292909,2022-09-21_21h00.56.397,vts_reward_expectancy,2022.2.4,MacIntel,111.1111111,Safari,1440,900,,,,,0,576,,,,,,,,,,,,,,,,,B,146,circle,1,0,,,,,,,,,,,,,,,,switch,number,numSwt,j,1.096,noRew,,,,,,0,2,0,2,0,1,,,,,,,,,,,,,,,,,
292909,2022-09-21_21h00.56.397,vts_reward_expectancy,2022.2.4,MacIntel,111.1111111,Safari,1440,900,,,,,0,576,,,,,,,,,,,,,,,,,U,167,triangle,1,0,,,,,,,,,,,,,,,,repeat,number,numRpt,k,0.815,noRew,,,,,,0,3,0,3,0,1,,,,,,,,,,,,,,,,,
292909,2022-09-21_21h00.56.397,vts_reward_expectancy,2022.2.4,MacIntel,111.1111111,Safari,1440,900,,,,,0,576,,,,,,,,,,,,,,,,,S,125,star,1,0,,,,,,,,,,,,,,,,repeat,number,numRpt,j,0.899,noRew,,,,,,0,4,0,4,0,1,,,,,,,,,,,,,,,,,
292909,2022-09-21_21h00.56.397,vts_reward_expectancy,2022.2.4,MacIntel,111.1111111,Safari,1440,900,,,,,0,576,,,,,,,,,,,,,,,,,D,174,hexagon,1,0,,,,,,,,,,,,,,,,switch,letter,lettSwt,d,0.615,noRew,,,,,,0,5,0,5,0,1,,,,,,,,,,,,,,,,,
292909,2022-09-21_21h00.56.397,vts_reward_expectancy,2022.2.4,MacIntel,111.1111111,Safari,1440,900,,,,,0,576,,,,,,,,,,,,,,,,,B,146,triangle,1,0,,,,,,,,,,,,,,,,repeat,letter,lettRpt,d,0.731,noRew,,,,,,0,6,0,6,0,1,,,,,,,,,,,,,,,,,
292909,2022-09-21_21h00.56.397,vts_reward_expectancy,2022.2.4,MacIntel,111.1111111,Safari,1440,900,,,,,0,576,,,,,,,,,,,,,,,,,U,167,hexagon,1,0,,,,,,,,,,,,,,,,repeat,letter,lettRpt,f,1.284,noRew,,,,,,0,7,0,7,0,1,,,,,,,,,,,,,,,,,
292909,2022-09-21_21h00.56.397,vts_reward_expectancy,2022.2.4,MacIntel,111.1111111,Safari,1440,900,,,,,0,576,,,,,,,,,,,,,,,,,H,132,hexagon,1,0,,,,,,,,,,,,,,,,switch,number,numSwt,j,0.814,noRew,,,,,,0,8,0,8,0,1,,,,,,,,,,,,,,,,,
292909,2022-09-21_21h00.56.397,vts_reward_expectancy,2022.2.4,MacIntel,111.1111111,Safari,1440,900,,,,,0,576,,,,,,,,,,,,,,,,,D,146,circle,1,0,,,,,,,,,,,,,,,,switch,letter,lettSwt,d,0.83,noRew,,,,,,0,9,0,9,0,1,,,,,,,,,,,,,,,,,
292909,2022-09-21_21h00.56.397,vts_reward_expectancy,2022.2.4,MacIntel,111.1111111,Safari,1440,900,,,,,0,576,,,,,,,,,,,,,,,,,W,139,star,1,0,,,,,,,,,,,,,,,,repeat,letter,lettRpt,f,1,noRew,,,,,,0,10,0,10,0,1,,,,,,,,,,,,,,,,,
292909,2022-09-21_21h00.56.397,vts_reward_expectancy,2022.2.4,MacIntel,111.1111111,Safari,1440,900,,,,,0,576,,,,,,,,,,,,,,,,,B,160,hexagon,1,0,,,,,,,,,,,,,,,,switch,number,numSwt,k,0.73,noRew,,,,,,0,11,0,11,0,1,,,,,,,,,,,,,,,,,
292909,2022-09-21_21h00.56.397,vts_reward_expectancy,2022.2.4,MacIntel,111.1111111,Safari,1440,900,,,,,0,576,,,,,,,,,,,,,,,,,S,125,hexagon,1,0,,,,,,,,,,,,,,,,repeat,number,numRpt,j,0.532,noRew,,,,,,0,12,0,12,0,1,,,,,,,,,,,,,,,,,
292909,2022-09-21_21h00.56.397,vts_reward_expectancy,2022.2.4,MacIntel,111.1111111,Safari,1440,900,,,,,0,576,,,,,,,,,,,,,,,,,U,181,circle,1,0,,,,,,,,,,,,,,,,switch,letter,lettSwt,f,1.063,noRew,,,,,,0,13,0,13,0,1,,,,,,,,,,,,,,,,,
292909,2022-09-21_21h00.56.397,vts_reward_expectancy,2022.2.4,MacIntel,111.1111111,Safari,1440,900,,,,,0,576,,,,,,,,,,,,,,,,,H,160,hexagon,1,0,,,,,,,,,,,,,,,,switch,number,numSwt,k,0.931,noRew,,,,,,0,14,0,14,0,1,,,,,,,,,,,,,,,,,
292909,2022-09-21_21h00.56.397,vts_reward_expectancy,2022.2.4,MacIntel,111.1111111,Safari,1440,900,,,,,0,576,,,,,,,,,,,,,,,,,D,167,triangle,1,0,,,,,,,,,,,,,,,,repeat,number,numRpt,k,1.38,noRew,,,,,,0,15,0,15,0,1,,,,,,,,,,,,,,,,,
292909,2022-09-21_21h00.56.397,vts_reward_expectancy,2022.2.4,MacIntel,111.1111111,Safari,1440,900,,,,,0,576,,,,,,,,,,,,,,,,,B,146,star,1,0,,,,,,,,,,,,,,,,switch,letter,lettSwt,d,1.331,noRew,,,,,,0,16,0,16,0,1,,,,,,,,,,,,,,,,,
292909,2022-09-21_21h00.56.397,vts_reward_expectancy,2022.2.4,MacIntel,111.1111111,Safari,1440,900,,,,,0,576,,,,,,,,,,,,,,,,,U,174,triangle,1,0,,,,,,,,,,,,,,,,switch,number,numSwt,k,0.981,noRew,,,,,,0,17,0,17,0,1,,,,,,,,,,,,,,,,,
292909,2022-09-21_21h00.56.397,vts_reward_expectancy,2022.2.4,MacIntel,111.1111111,Safari,1440,900,,,,,0,576,,,,,,,,,,,,,,,,,D,139,triangle,1,0,,,,,,,,,,,,,,,,switch,letter,lettSwt,d,0.68,noRew,,,,,,0,18,0,18,0,1,,,,,,,,,,,,,,,,,
292909,2022-09-21_21h00.56.397,vts_reward_expectancy,2022.2.4,MacIntel,111.1111111,Safari,1440,900,,,,,0,576,,,,,,,,,,,,,,,,,S,181,hexagon,1,0,,,,,,,,,,,,,,,,switch,number,numSwt,k,1.159,noRew,,,,,,0,19,0,19,0,1,,,,,,,,,,,,,,,,,
292909,2022-09-21_21h00.56.397,vts_reward_expectancy,2022.2.4,MacIntel,111.1111111,Safari,1440,900,,,,,0,576,,,,,,,,,,,,,,,,,B,132,hexagon,1,0,,,,,,,,,,,,,,,,switch,letter,lettSwt,d,0.664,noRew,,,,,,0,20,0,20,0,1,,,,,,,,,,,,,,,,,
292909,2022-09-21_21h00.56.397,vts_reward_expectancy,2022.2.4,MacIntel,111.1111111,Safari,1440,900,,,,,0,576,,,,,,,,,,,,,,,,,S,146,circle,1,0,,,,,,,,,,,,,,,,switch,number,numSwt,j,1.265,noRew,,,,,,0,21,0,21,0,1,,,,,,,,,,,,,,,,,
292909,2022-09-21_21h00.56.397,vts_reward_expectancy,2022.2.4,MacIntel,111.1111111,Safari,1440,900,,,,,0,576,,,,,,,,,,,,,,,,,W,139,triangle,1,0,,,,,,,,,,,,,,,,repeat,number,numRpt,j,1.097,noRew,,,,,,0,22,0,22,0,1,,,,,,,,,,,,,,,,,
292909,2022-09-21_21h00.56.397,vts_reward_expectancy,2022.2.4,MacIntel,111.1111111,Safari,1440,900,,,,,0,576,,,,,,,,,,,,,,,,,H,125,star,1,0,,,,,,,,,,,,,,,,repeat,number,numRpt,j,0.982,noRew,,,,,,0,23,0,23,0,1,,,,,,,,,,,,,,,,,
292909,2022-09-21_21h00.56.397,vts_reward_expectancy,2022.2.4,MacIntel,111.1111111,Safari,1440,900,,,,,0,576,,,,,,,,,,,,,,,,,H,132,triangle,1,0,,,,,,,,,,,,,,,,repeat,number,numRpt,j,0.899,noRew,,,,,,0,24,0,24,0,1,,,,,,,,,,,,,,,,,
292909,2022-09-21_21h00.56.397,vts_reward_expectancy,2022.2.4,MacIntel,111.1111111,Safari,1440,900,,,,,0,576,,,,,,,,,,,,,,,,,U,139,circle,1,0,,,,,,,,,,,,,,,,repeat,number,numRpt,j,1.047,noRew,,,,,,0,25,0,25,0,1,,,,,,,,,,,,,,,,,
292909,2022-09-21_21h00.56.397,vts_reward_expectancy,2022.2.4,MacIntel,111.1111111,Safari,1440,900,,,,,0,576,,,,,,,,,,,,,,,,,F,160,hexagon,1,0,,,,,,,,,,,,,,,,switch,letter,lettSwt,d,1.446,noRew,,,,,,0,26,0,26,0,1,,,,,,,,,,,,,,,,,
292909,2022-09-21_21h00.56.397,vts_reward_expectancy,2022.2.4,MacIntel,111.1111111,Safari,1440,900,,,,,0,576,,,,,,,,,,,,,,,,,Y,146,triangle,1,0,,,,,,,,,,,,,,,,repeat,letter,lettRpt,f,1.046,noRew,,,,,,0,27,0,27,0,1,,,,,,,,,,,,,,,,,
292909,2022-09-21_21h00.56.397,vts_reward_expectancy,2022.2.4,MacIntel,111.1111111,Safari,1440,900,,,,,0,576,,,,,,,,,,,,,,,,,W,174,star,1,0,,,,,,,,,,,,,,,,repeat,letter,lettRpt,f,0.782,noRew,,,,,,0,28,0,28,0,1,,,,,,,,,,,,,,,,,
292909,2022-09-21_21h00.56.397,vts_reward_expectancy,2022.2.4,MacIntel,111.1111111,Safari,1440,900,,,,,0,576,,,,,,,,,,,,,,,,,F,125,circle,1,0,,,,,,,,,,,,,,,,switch,number,numSwt,j,0.997,noRew,,,,,,0,29,0,29,0,1,,,,,,,,,,,,,,,,,
292909,2022-09-21_21h00.56.397,vts_reward_expectancy,2022.2.4,MacIntel,111.1111111,Safari,1440,900,,,,,0,576,,,,,,,,,,,,,,,,,H,132,triangle,1,0,,,,,,,,,,,,,,,,repeat,number,numRpt,j,0.93,noRew,,,,,,0,30,0,30,0,1,,,,,,,,,,,,,,,,,
292909,2022-09-21_21h00.56.397,vts_reward_expectancy,2022.2.4,MacIntel,111.1111111,Safari,1440,900,,,,,0,576,,,,,,,,,,,,,,,,,D,181,star,1,0,,,,,,,,,,,,,,,,switch,letter,lettSwt,d,0.918,noRew,,,,,,0,31,0,31,0,1,,,,,,,,,,,,,,,,,
292909,2022-09-21_21h00.56.397,vts_reward_expectancy,2022.2.4,MacIntel,111.1111111,Safari,1440,900,,,,,0,576,,,,,,,,,,,,,,,,,S,174,star,1,0,,,,,,,,,,,,,,,,switch,number,numSwt,k,1.098,noRew,,,,,,0,32,0,32,0,1,,,,,,,,,,,,,,,,,
292909,2022-09-21_21h00.56.397,vts_reward_expectancy,2022.2.4,MacIntel,111.1111111,Safari,1440,900,,,,,0,576,,,,,,,,,,,,,,,,,F,167,circle,1,0,,,,,,,,,,,,,,,,switch,letter,lettSwt,d,1.132,noRew,,,,,,0,33,0,33,0,1,,,,,,,,,,,,,,,,,
292909,2022-09-21_21h00.56.397,vts_reward_expectancy,2022.2.4,MacIntel,111.1111111,Safari,1440,900,,,,,0,576,,,,,,,,,,,,,,,,,W,125,triangle,1,0,,,,,,,,,,,,,,,,switch,number,numSwt,j,0.916,noRew,,,,,,0,34,0,34,0,1,,,,,,,,,,,,,,,,,
292909,2022-09-21_21h00.56.397,vts_reward_expectancy,2022.2.4,MacIntel,111.1111111,Safari,1440,900,,,,,0,576,,,,,,,,,,,,,,,,,D,160,circle,1,0,,,,,,,,,,,,,,,,switch,letter,lettSwt,d,0.598,noRew,,,,,,0,35,0,35,0,1,,,,,,,,,,,,,,,,,
292909,2022-09-21_21h00.56.397,vts_reward_expectancy,2022.2.4,MacIntel,111.1111111,Safari,1440,900,,,,,0,576,,,,,,,,,,,,,,,,,S,174,circle,1,0,,,,,,,,,,,,,,,,switch,number,numSwt,k,1.014,noRew,,,,,,0,36,0,36,0,1,,,,,,,,,,,,,,,,,
292909,2022-09-21_21h00.56.397,vts_reward_expectancy,2022.2.4,MacIntel,111.1111111,Safari,1440,900,,,,,0,576,,,,,,,,,,,,,,,,,B,160,hexagon,1,0,,,,,,,,,,,,,,,,switch,letter,lettSwt,d,0.601,noRew,,,,,,0,37,0,37,0,1,,,,,,,,,,,,,,,,,
292909,2022-09-21_21h00.56.397,vts_reward_expectancy,2022.2.4,MacIntel,111.1111111,Safari,1440,900,,,,,0,576,,,,,,,,,,,,,,,,,D,181,circle,1,0,,,,,,,,,,,,,,,,repeat,letter,lettRpt,d,0.646,noRew,,,,,,0,38,0,38,0,1,,,,,,,,,,,,,,,,,
292909,2022-09-21_21h00.56.397,vts_reward_expectancy,2022.2.4,MacIntel,111.1111111,Safari,1440,900,,,,,0,576,,,,,,,,,,,,,,,,,F,146,triangle,1,0,,,,,,,,,,,,,,,,switch,number,numSwt,j,1.33,noRew,,,,,,0,39,0,39,0,1,,,,,,,,,,,,,,,,,
292909,2022-09-21_21h00.56.397,vts_reward_expectancy,2022.2.4,MacIntel,111.1111111,Safari,1440,900,,,,,0,576,,,,,,,,,,,,,,,,,F,167,triangle,1,0,,,,,,,,,,,,,,,,repeat,number,numRpt,k,0.899,noRew,,,,,,0,40,0,40,0,1,,,,,,,,,,,,,,,,,
292909,2022-09-21_21h00.56.397,vts_reward_expectancy,2022.2.4,MacIntel,111.1111111,Safari,1440,900,,,,,0,576,,,,,,,,,,,,,,,,,W,181,star,1,0,,,,,,,,,,,,,,,,repeat,number,numRpt,k,1.417,noRew,,,,,,0,41,0,41,0,1,,,,,,,,,,,,,,,,,
292909,2022-09-21_21h00.56.397,vts_reward_expectancy,2022.2.4,MacIntel,111.1111111,Safari,1440,900,,,,,0,576,,,,,,,,,,,,,,,,,H,160,hexagon,1,0,,,,,,,,,,,,,,,,repeat,number,numRpt,k,0.949,noRew,,,,,,0,42,0,42,0,1,,,,,,,,,,,,,,,,,
292909,2022-09-21_21h00.56.397,vts_reward_expectancy,2022.2.4,MacIntel,111.1111111,Safari,1440,900,,,,,0,576,,,,,,,,,,,,,,,,,B,139,circle,1,0,,,,,,,,,,,,,,,,switch,letter,lettSwt,d,0.714,noRew,,,,,,0,43,0,43,0,1,,,,,,,,,,,,,,,,,
292909,2022-09-21_21h00.56.397,vts_reward_expectancy,2022.2.4,MacIntel,111.1111111,Safari,1440,900,,,,,0,576,,,,,,,,,,,,,,,,,U,125,star,1,0,,,,,,,,,,,,,,,,switch,number,numSwt,j,0.997,noRew,,,,,,0,44,0,44,0,1,,,,,,,,,,,,,,,,,
292909,2022-09-21_21h00.56.397,vts_reward_expectancy,2022.2.4,MacIntel,111.1111111,Safari,1440,900,,,,,0,576,,,,,,,,,,,,,,,,,F,139,triangle,1,0,,,,,,,,,,,,,,,,repeat,number,numRpt,j,1.03,noRew,,,,,,0,45,0,45,0,1,,,,,,,,,,,,,,,,,
292909,2022-09-21_21h00.56.397,vts_reward_expectancy,2022.2.4,MacIntel,111.1111111,Safari,1440,900,,,,,0,576,,,,,,,,,,,,,,,,,Y,174,star,1,0,,,,,,,,,,,,,,,,switch,letter,lettSwt,f,0.998,noRew,,,,,,0,46,0,46,0,1,,,,,,,,,,,,,,,,,
292909,2022-09-21_21h00.56.397,vts_reward_expectancy,2022.2.4,MacIntel,111.1111111,Safari,1440,900,,,,,0,576,,,,,,,,,,,,,,,,,B,167,hexagon,1,0,,,,,,,,,,,,,,,,repeat,letter,lettRpt,d,0.948,noRew,,,,,,0,47,0,47,0,1,,,,,,,,,,,,,,,,,
292909,2022-09-21_21h00.56.397,vts_reward_expectancy,2022.2.4,MacIntel,111.1111111,Safari,1440,900,,,,,0,576,,,,,,,,,,,,,,,,,U,174,hexagon,1,0,,,,,,,,,,,,,,,,switch,number,numSwt,k,1.083,noRew,,,,,,0,48,0,48,0,1,,,,,,,,,,,,,,,,,
292909,2022-09-21_21h00.56.397,vts_reward_expectancy,2022.2.4,MacIntel,111.1111111,Safari,1440,900,,,,,0,576,,,,,,,,,,,,,,,,,F,125,triangle,1,0,,,,,,,,,,,,,,,,switch,letter,lettSwt,d,0.665,noRew,,,,,,0,49,0,49,0,1,,,,,,,,,,,,,,,,,
292909,2022-09-21_21h00.56.397,vts_reward_expectancy,2022.2.4,MacIntel,111.1111111,Safari,1440,900,,,,,0,576,,,,,,,,,,,,,,,,,Y,167,hexagon,1,0,,,,,,,,,,,,,,,,switch,number,numSwt,k,0.85,noRew,,,,,,0,50,0,50,0,1,,,,,,,,,,,,,,,,,
292909,2022-09-21_21h00.56.397,vts_reward_expectancy,2022.2.4,MacIntel,111.1111111,Safari,1440,900,,,,,0,576,,,,,,,,,,,,,,,,,H,181,circle,1,0,,,,,,,,,,,,,,,,repeat,number,numRpt,k,0.96,noRew,,,,,,0,51,0,51,0,1,,,,,,,,,,,,,,,,,
292909,2022-09-21_21h00.56.397,vts_reward_expectancy,2022.2.4,MacIntel,111.1111111,Safari,1440,900,,,,,0,576,,,,,,,,,,,,,,,,,S,167,hexagon,1,0,,,,,,,,,,,,,,,,repeat,number,numRpt,k,1.361,noRew,,,,,,0,52,0,52,0,1,,,,,,,,,,,,,,,,,
292909,2022-09-21_21h00.56.397,vts_reward_expectancy,2022.2.4,MacIntel,111.1111111,Safari,1440,900,,,,,0,576,,,,,,,,,,,,,,,,,W,132,circle,1,0,,,,,,,,,,,,,,,,switch,letter,lettSwt,f,0.634,noRew,,,,,,0,53,0,53,0,1,,,,,,,,,,,,,,,,,
292909,2022-09-21_21h00.56.397,vts_reward_expectancy,2022.2.4,MacIntel,111.1111111,Safari,1440,900,,,,,0,576,,,,,,,,,,,,,,,,,Y,174,star,1,0,,,,,,,,,,,,,,,,repeat,letter,lettRpt,f,0.917,noRew,,,,,,0,54,0,54,0,1,,,,,,,,,,,,,,,,,
292909,2022-09-21_21h00.56.397,vts_reward_expectancy,2022.2.4,MacIntel,111.1111111,Safari,1440,900,,,,,0,576,,,,,,,,,,,,,,,,,U,181,triangle,1,0,,,,,,,,,,,,,,,,switch,number,numSwt,k,1.261,noRew,,,,,,0,55,0,55,0,1,,,,,,,,,,,,,,,,,
292909,2022-09-21_21h00.56.397,vts_reward_expectancy,2022.2.4,MacIntel,111.1111111,Safari,1440,900,,,,,0,576,,,,,,,,,,,,,,,,,D,139,triangle,1,0,,,,,,,,,,,,,,,,switch,letter,lettSwt,d,0.718,noRew,,,,,,0,56,0,56,0,1,,,,,,,,,,,,,,,,,
292909,2022-09-21_21h00.56.397,vts_reward_expectancy,2022.2.4,MacIntel,111.1111111,Safari,1440,900,,,,,0,576,,,,,,,,,,,,,,,,,F,181,hexagon,1,0,,,,,,,,,,,,,,,,switch,number,numSwt,k,1.082,noRew,,,,,,0,57,0,57,0,1,,,,,,,,,,,,,,,,,
292909,2022-09-21_21h00.56.397,vts_reward_expectancy,2022.2.4,MacIntel,111.1111111,Safari,1440,900,,,,,0,576,,,,,,,,,,,,,,,,,U,125,hexagon,1,0,,,,,,,,,,,,,,,,repeat,number,numRpt,j,1.031,noRew,,,,,,0,58,0,58,0,1,,,,,,,,,,,,,,,,,
292909,2022-09-21_21h00.56.397,vts_reward_expectancy,2022.2.4,MacIntel,111.1111111,Safari,1440,900,,,,,0,576,,,,,,,,,,,,,,,,,Y,132,triangle,1,0,,,,,,,,,,,,,,,,switch,letter,lettSwt,f,0.83,noRew,,,,,,0,59,0,59,0,1,,,,,,,,,,,,,,,,,
292909,2022-09-21_21h00.56.397,vts_reward_expectancy,2022.2.4,MacIntel,111.1111111,Safari,1440,900,,,,,0,576,,,,,,,,,,,,,,,,,F,181,triangle,1,0,,,,,,,,,,,,,,,,switch,number,numSwt,k,0.981,noRew,,,,,,0,60,0,60,0,1,,,,,,,,,,,,,,,,,
292909,2022-09-21_21h00.56.397,vts_reward_expectancy,2022.2.4,MacIntel,111.1111111,Safari,1440,900,,,,,0,576,,,,,,,,,,,,,,,,,H,125,star,1,0,,,,,,,,,,,,,,,,repeat,number,numRpt,j,1.247,noRew,,,,,,0,61,0,61,0,1,,,,,,,,,,,,,,,,,
292909,2022-09-21_21h00.56.397,vts_reward_expectancy,2022.2.4,MacIntel,111.1111111,Safari,1440,900,,,,,0,576,,,,,,,,,,,,,,,,,Y,146,hexagon,1,0,,,,,,,,,,,,,,,,switch,letter,lettSwt,f,1.512,noRew,,,,,,0,62,0,62,0,1,,,,,,,,,,,,,,,,,
292909,2022-09-21_21h00.56.397,vts_reward_expectancy,2022.2.4,MacIntel,111.1111111,Safari,1440,900,,,,,0,576,,,,,,,,,,,,,,,,,W,132,triangle,1,0,,,,,,,,,,,,,,,,repeat,letter,lettRpt,f,1.031,noRew,,,,,,0,63,0,63,0,1,,,,,,,,,,,,,,,,,
292909,2022-09-21_21h00.56.397,vts_reward_expectancy,2022.2.4,MacIntel,111.1111111,Safari,1440,900,,,,,,,,,,,,,,,,,,,,,,,,,,,,,,,,,,,,,,,,,,,,,,,,,,,,,,,,,,,,,,,,,,,,,,,,,,,,
292909,2022-09-21_21h00.56.397,vts_reward_expectancy,2022.2.4,MacIntel,111.1111111,Safari,1440,900,,,,,1,577,,,,,,,,,,,,,,,,,W,160,triangle,1,0,,,,,,,,,,,,,,,,repeat,letter,lettRpt,f,0.731,Hi,,,,,,0,,,,,,space,9.608,low,0,0,0,0,1,,,,,,,,,
292909,2022-09-21_21h00.56.397,vts_reward_expectancy,2022.2.4,MacIntel,111.1111111,Safari,1440,900,,,,,1,578,,,,,,,,,,,,,,,,,H,132,hexagon,1,0,,,,,,,,,,,,,,,,switch,number,numSwt,j,1.581,Lo,,,,,,0,,,,,,,,low,1,0,1,0,1,,,,,,,,,
292909,2022-09-21_21h00.56.397,vts_reward_expectancy,2022.2.4,MacIntel,111.1111111,Safari,1440,900,,,,,10,588,,,,,,,,,,,,,,,,,B,181,triangle,1,0,,,,,,,,,,,,,,,,repeat,number,numRpt,k,0.698,Hi,,,,,,0,,,,,,,,low,2,0,2,0,1,,,,,,,,,
292909,2022-09-21_21h00.56.397,vts_reward_expectancy,2022.2.4,MacIntel,111.1111111,Safari,1440,900,,,,,10,598,,,,,,,,,,,,,,,,,S,174,hexagon,1,0,,,,,,,,,,,,,,,,repeat,number,numRpt,k,1.145,Lo,,,,,,0,,,,,,,,low,3,0,3,0,1,,,,,,,,,
292909,2022-09-21_21h00.56.397,vts_reward_expectancy,2022.2.4,MacIntel,111.1111111,Safari,1440,900,,,,,10,608,,,,,,,,,,,,,,,,,F,139,hexagon,1,0,,,,,,,,,,,,,,,,repeat,number,numRpt,j,1.078,Lo,,,,,,0,,,,,,,,low,4,0,4,0,1,,,,,,,,,
292909,2022-09-21_21h00.56.397,vts_reward_expectancy,2022.2.4,MacIntel,111.1111111,Safari,1440,900,,,,,0,608,,,,,,,,,,,,,,,,,D,146,triangle,1,0,,,,,,,,,,,,,,,,repeat,number,numRpt,j,1.031,Hi,,,,,,0,,,,,,,,low,5,0,5,0,1,,,,,,,,,
292909,2022-09-21_21h00.56.397,vts_reward_expectancy,2022.2.4,MacIntel,111.1111111,Safari,1440,900,,,,,10,618,,,,,,,,,,,,,,,,,U,125,triangle,1,0,,,,,,,,,,,,,,,,repeat,number,numRpt,j,0.548,Hi,,,,,,0,,,,,,,,low,6,0,6,0,1,,,,,,,,,
292909,2022-09-21_21h00.56.397,vts_reward_expectancy,2022.2.4,MacIntel,111.1111111,Safari,1440,900,,,,,1,619,,,,,,,,,,,,,,,,,Y,167,hexagon,1,0,,,,,,,,,,,,,,,,repeat,number,numRpt,k,0.602,Lo,,,,,,0,,,,,,,,low,7,0,7,0,1,,,,,,,,,
292909,2022-09-21_21h00.56.397,vts_reward_expectancy,2022.2.4,MacIntel,111.1111111,Safari,1440,900,,,,,1,620,,,,,,,,,,,,,,,,,W,160,triangle,1,0,,,,,,,,,,,,,,,,switch,letter,lettSwt,f,0.664,Hi,,,,,,0,,,,,,,,low,8,0,8,0,1,,,,,,,,,
292909,2022-09-21_21h00.56.397,vts_reward_expectancy,2022.2.4,MacIntel,111.1111111,Safari,1440,900,,,,,1,621,,,,,,,,,,,,,,,,,H,132,hexagon,1,0,,,,,,,,,,,,,,,,switch,number,numSwt,j,0.715,Lo,,,,,,0,,,,,,,,low,9,0,9,0,1,,,,,,,,,
292909,2022-09-21_21h00.56.397,vts_reward_expectancy,2022.2.4,MacIntel,111.1111111,Safari,1440,900,,,,,1,622,,,,,,,,,,,,,,,,,B,181,triangle,1,0,,,,,,,,,,,,,,,,repeat,number,numRpt,k,0.681,Hi,,,,,,0,,,,,,,,low,10,0,10,0,1,,,,,,,,,
292909,2022-09-21_21h00.56.397,vts_reward_expectancy,2022.2.4,MacIntel,111.1111111,Safari,1440,900,,,,,1,623,,,,,,,,,,,,,,,,,S,174,hexagon,1,0,,,,,,,,,,,,,,,,switch,letter,lettSwt,f,0.998,Lo,,,,,,0,,,,,,,,low,11,0,11,0,1,,,,,,,,,
292909,2022-09-21_21h00.56.397,vts_reward_expectancy,2022.2.4,MacIntel,111.1111111,Safari,1440,900,,,,,10,633,,,,,,,,,,,,,,,,,F,139,hexagon,1,0,,,,,,,,,,,,,,,,switch,number,numSwt,j,0.747,Lo,,,,,,0,,,,,,,,low,12,0,12,0,1,,,,,,,,,
292909,2022-09-21_21h00.56.397,vts_reward_expectancy,2022.2.4,MacIntel,111.1111111,Safari,1440,900,,,,,10,643,,,,,,,,,,,,,,,,,D,146,triangle,1,0,,,,,,,,,,,,,,,,switch,letter,lettSwt,d,0.614,Hi,,,,,,0,,,,,,,,low,13,0,13,0,1,,,,,,,,,
292909,2022-09-21_21h00.56.397,vts_reward_expectancy,2022.2.4,MacIntel,111.1111111,Safari,1440,900,,,,,10,653,,,,,,,,,,,,,,,,,U,125,hexagon,1,0,,,,,,,,,,,,,,,,repeat,letter,lettRpt,f,0.782,Lo,,,,,,0,,,,,,,,low,14,0,14,0,1,,,,,,,,,
292909,2022-09-21_21h00.56.397,vts_reward_expectancy,2022.2.4,MacIntel,111.1111111,Safari,1440,900,,,,,1,654,,,,,,,,,,,,,,,,,Y,167,triangle,1,0,,,,,,,,,,,,,,,,repeat,letter,lettRpt,f,0.548,Hi,,,,,,0,,,,,,,,low,15,0,15,0,1,,,,,,,,,
292909,2022-09-21_21h00.56.397,vts_reward_expectancy,2022.2.4,MacIntel,111.1111111,Safari,1440,900,,,,,1,655,,,,,,,,,,,,,,,,,F,146,triangle,1,0,,,,,,,,,,,,,,,,switch,number,numSwt,j,0.715,Hi,,,,,,0,,,,,,,,low,16,0,16,0,1,,,,,,,,,
292909,2022-09-21_21h00.56.397,vts_reward_expectancy,2022.2.4,MacIntel,111.1111111,Safari,1440,900,,,,,1,656,,,,,,,,,,,,,,,,,U,125,hexagon,1,0,,,,,,,,,,,,,,,,repeat,number,numRpt,j,0.661,Lo,,,,,,0,,,,,,,,low,17,0,17,0,1,,,,,,,,,
292909,2022-09-21_21h00.56.397,vts_reward_expectancy,2022.2.4,MacIntel,111.1111111,Safari,1440,900,,,,,10,666,,,,,,,,,,,,,,,,,S,139,triangle,1,0,,,,,,,,,,,,,,,,repeat,number,numRpt,j,0.764,Hi,,,,,,0,,,,,,,,low,18,0,18,0,1,,,,,,,,,
292909,2022-09-21_21h00.56.397,vts_reward_expectancy,2022.2.4,MacIntel,111.1111111,Safari,1440,900,,,,,1,667,,,,,,,,,,,,,,,,,Y,160,hexagon,1,0,,,,,,,,,,,,,,,,switch,letter,lettSwt,f,0.931,Lo,,,,,,0,,,,,,,,low,19,0,19,0,1,,,,,,,,,
292909,2022-09-21_21h00.56.397,vts_reward_expectancy,2022.2.4,MacIntel,111.1111111,Safari,1440,900,,,,,10,677,,,,,,,,,,,,,,,,,D,174,triangle,1,0,,,,,,,,,,,,,,,,switch,number,numSwt,k,0.714,Hi,,,,,,0,,,,,,,,low,20,0,20,0,1,,,,,,,,,
292909,2022-09-21_21h00.56.397,vts_reward_expectancy,2022.2.4,MacIntel,111.1111111,Safari,1440,900,,,,,1,678,,,,,,,,,,,,,,,,,H,181,hexagon,1,0,,,,,,,,,,,,,,,,repeat,number,numRpt,k,0.646,Lo,,,,,,0,,,,,,,,low,21,0,21,0,1,,,,,,,,,
292909,2022-09-21_21h00.56.397,vts_reward_expectancy,2022.2.4,MacIntel,111.1111111,Safari,1440,900,,,,,1,679,,,,,,,,,,,,,,,,,B,167,triangle,1,0,,,,,,,,,,,,,,,,switch,letter,lettSwt,d,0.544,Hi,,,,,,0,,,,,,,,low,22,0,22,0,1,,,,,,,,,
292909,2022-09-21_21h00.56.397,vts_reward_expectancy,2022.2.4,MacIntel,111.1111111,Safari,1440,900,,,,,1,680,,,,,,,,,,,,,,,,,W,132,hexagon,1,0,,,,,,,,,,,,,,,,switch,number,numSwt,j,0.714,Lo,,,,,,0,,,,,,,,low,23,0,23,0,1,,,,,,,,,
292909,2022-09-21_21h00.56.397,vts_reward_expectancy,2022.2.4,MacIntel,111.1111111,Safari,1440,900,,,,,1,681,,,,,,,,,,,,,,,,,F,167,hexagon,1,0,,,,,,,,,,,,,,,,switch,letter,lettSwt,d,1.331,Lo,,,,,,0,,,,,,,,low,24,0,24,0,1,,,,,,,,,
292909,2022-09-21_21h00.56.397,vts_reward_expectancy,2022.2.4,MacIntel,111.1111111,Safari,1440,900,,,,,1,682,,,,,,,,,,,,,,,,,S,174,triangle,1,0,,,,,,,,,,,,,,,,switch,number,numSwt,k,0.598,Hi,,,,,,0,,,,,,,,low,25,0,25,0,1,,,,,,,,,
292909,2022-09-21_21h00.56.397,vts_reward_expectancy,2022.2.4,MacIntel,111.1111111,Safari,1440,900,,,,,1,683,,,,,,,,,,,,,,,,,H,139,hexagon,1,0,,,,,,,,,,,,,,,,switch,letter,lettSwt,d,1.148,Lo,,,,,,0,,,,,,,,low,26,0,26,0,1,,,,,,,,,
292909,2022-09-21_21h00.56.397,vts_reward_expectancy,2022.2.4,MacIntel,111.1111111,Safari,1440,900,,,,,1,684,,,,,,,,,,,,,,,,,D,125,triangle,1,0,,,,,,,,,,,,,,,,switch,number,numSwt,j,0.515,Hi,,,,,,0,,,,,,,,low,27,0,27,0,1,,,,,,,,,
292909,2022-09-21_21h00.56.397,vts_reward_expectancy,2022.2.4,MacIntel,111.1111111,Safari,1440,900,,,,,10,694,,,,,,,,,,,,,,,,,Y,181,hexagon,1,0,,,,,,,,,,,,,,,,switch,letter,lettSwt,f,0.498,Lo,,,,,,0,,,,,,,,low,28,0,28,0,1,,,,,,,,,
292909,2022-09-21_21h00.56.397,vts_reward_expectancy,2022.2.4,MacIntel,111.1111111,Safari,1440,900,,,,,10,704,,,,,,,,,,,,,,,,,B,160,triangle,1,0,,,,,,,,,,,,,,,,repeat,letter,lettRpt,d,0.646,Hi,,,,,,0,,,,,,,,low,29,0,29,0,1,,,,,,,,,
292909,2022-09-21_21h00.56.397,vts_reward_expectancy,2022.2.4,MacIntel,111.1111111,Safari,1440,900,,,,,1,705,,,,,,,,,,,,,,,,,W,132,triangle,1,0,,,,,,,,,,,,,,,,repeat,letter,lettRpt,f,0.565,Hi,,,,,,0,,,,,,,,low,30,0,30,0,1,,,,,,,,,
292909,2022-09-21_21h00.56.397,vts_reward_expectancy,2022.2.4,MacIntel,111.1111111,Safari,1440,900,,,,,1,706,,,,,,,,,,,,,,,,,U,146,hexagon,1,0,,,,,,,,,,,,,,,,switch,number,numSwt,j,0.765,Lo,,,,,,0,,,,,,,,low,31,0,31,0,1,,,,,,,,,
292909,2022-09-21_21h00.56.397,vts_reward_expectancy,2022.2.4,MacIntel,111.1111111,Safari,1440,900,,,,,1,707,,,,,,,,,,,,,,,,,D,146,hexagon,1,0,,,,,,,,,,,,,,,,repeat,number,numRpt,j,0.828,Lo,,,,,,1,,,,,,space,10.783,low,0,0,0,0,1,,,,,,,,,
292909,2022-09-21_21h00.56.397,vts_reward_expectancy,2022.2.4,MacIntel,111.1111111,Safari,1440,900,,,,,0,707,,,,,,,,,,,,,,,,,H,132,triangle,1,0,,,,,,,,,,,,,,,,switch,letter,lettSwt,d,0.914,Hi,,,,,,1,,,,,,,,low,1,0,1,0,1,,,,,,,,,
292909,2022-09-21_21h00.56.397,vts_reward_expectancy,2022.2.4,MacIntel,111.1111111,Safari,1440,900,,,,,1,708,,,,,,,,,,,,,,,,,W,181,hexagon,1,0,,,,,,,,,,,,,,,,switch,number,numSwt,k,0.531,Lo,,,,,,1,,,,,,,,low,2,0,2,0,1,,,,,,,,,
292909,2022-09-21_21h00.56.397,vts_reward_expectancy,2022.2.4,MacIntel,111.1111111,Safari,1440,900,,,,,10,718,,,,,,,,,,,,,,,,,Y,139,triangle,1,0,,,,,,,,,,,,,,,,switch,letter,lettSwt,f,0.561,Hi,,,,,,1,,,,,,,,low,3,0,3,0,1,,,,,,,,,
292909,2022-09-21_21h00.56.397,vts_reward_expectancy,2022.2.4,MacIntel,111.1111111,Safari,1440,900,,,,,10,728,,,,,,,,,,,,,,,,,B,125,hexagon,1,0,,,,,,,,,,,,,,,,repeat,letter,lettRpt,d,0.53,Lo,,,,,,1,,,,,,,,low,4,0,4,0,1,,,,,,,,,
292909,2022-09-21_21h00.56.397,vts_reward_expectancy,2022.2.4,MacIntel,111.1111111,Safari,1440,900,,,,,10,738,,,,,,,,,,,,,,,,,S,167,triangle,1,0,,,,,,,,,,,,,,,,repeat,letter,lettRpt,f,0.563,Hi,,,,,,1,,,,,,,,low,5,0,5,0,1,,,,,,,,,
292909,2022-09-21_21h00.56.397,vts_reward_expectancy,2022.2.4,MacIntel,111.1111111,Safari,1440,900,,,,,0,738,,,,,,,,,,,,,,,,,F,160,triangle,0,0,,,,,,,,,,,,,,,,repeat,letter,NA,f,0.545,Hi,,,,,,1,,,,,,,,low,6,0,6,0,1,,,,,,,,,
292909,2022-09-21_21h00.56.397,vts_reward_expectancy,2022.2.4,MacIntel,111.1111111,Safari,1440,900,,,,,1,739,,,,,,,,,,,,,,,,,U,174,hexagon,1,1,,,,,,,,,,,,,,,,switch,number,numSwt,k,1.064,Lo,,,,,,1,,,,,,,,low,7,0,7,0,1,,,,,,,,,
292909,2022-09-21_21h00.56.397,vts_reward_expectancy,2022.2.4,MacIntel,111.1111111,Safari,1440,900,,,,,10,749,,,,,,,,,,,,,,,,,D,146,triangle,1,0,,,,,,,,,,,,,,,,switch,letter,lettSwt,d,0.628,Hi,,,,,,1,,,,,,,,low,8,0,8,0,1,,,,,,,,,
292909,2022-09-21_21h00.56.397,vts_reward_expectancy,2022.2.4,MacIntel,111.1111111,Safari,1440,900,,,,,1,750,,,,,,,,,,,,,,,,,H,132,hexagon,1,0,,,,,,,,,,,,,,,,repeat,letter,lettRpt,d,0.898,Lo,,,,,,1,,,,,,,,low,9,0,9,0,1,,,,,,,,,
292909,2022-09-21_21h00.56.397,vts_reward_expectancy,2022.2.4,MacIntel,111.1111111,Safari,1440,900,,,,,10,760,,,,,,,,,,,,,,,,,W,181,triangle,1,0,,,,,,,,,,,,,,,,switch,number,numSwt,k,0.58,Hi,,,,,,1,,,,,,,,low,10,0,10,0,1,,,,,,,,,
292909,2022-09-21_21h00.56.397,vts_reward_expectancy,2022.2.4,MacIntel,111.1111111,Safari,1440,900,,,,,10,770,,,,,,,,,,,,,,,,,Y,139,hexagon,1,0,,,,,,,,,,,,,,,,repeat,number,numRpt,j,0.813,Lo,,,,,,1,,,,,,,,low,11,0,11,0,1,,,,,,,,,
292909,2022-09-21_21h00.56.397,vts_reward_expectancy,2022.2.4,MacIntel,111.1111111,Safari,1440,900,,,,,10,780,,,,,,,,,,,,,,,,,B,125,triangle,1,0,,,,,,,,,,,,,,,,switch,letter,lettSwt,d,0.598,Hi,,,,,,1,,,,,,,,low,12,0,12,0,1,,,,,,,,,
292909,2022-09-21_21h00.56.397,vts_reward_expectancy,2022.2.4,MacIntel,111.1111111,Safari,1440,900,,,,,0,780,,,,,,,,,,,,,,,,,S,167,hexagon,0,0,,,,,,,,,,,,,,,,repeat,letter,NA,d,1.031,Hi,,,,,,1,,,,,,,,low,13,0,13,0,1,,,,,,,,,
292909,2022-09-21_21h00.56.397,vts_reward_expectancy,2022.2.4,MacIntel,111.1111111,Safari,1440,900,,,,,0,780,,,,,,,,,,,,,,,,,F,160,triangle,1,1,,,,,,,,,,,,,,,,repeat,letter,lettRpt,d,0.665,Hi,,,,,,1,,,,,,,,low,14,0,14,0,1,,,,,,,,,
292909,2022-09-21_21h00.56.397,vts_reward_expectancy,2022.2.4,MacIntel,111.1111111,Safari,1440,900,,,,,10,790,,,,,,,,,,,,,,,,,U,174,hexagon,1,0,,,,,,,,,,,,,,,,switch,number,numSwt,k,1.215,Lo,,,,,,1,,,,,,,,low,15,0,15,0,1,,,,,,,,,
292909,2022-09-21_21h00.56.397,vts_reward_expectancy,2022.2.4,MacIntel,111.1111111,Safari,1440,900,,,,,10,800,,,,,,,,,,,,,,,,,F,174,hexagon,1,0,,,,,,,,,,,,,,,,repeat,number,numRpt,k,0.447,Lo,,,,,,1,,,,,,,,low,16,0,16,0,1,,,,,,,,,
292909,2022-09-21_21h00.56.397,vts_reward_expectancy,2022.2.4,MacIntel,111.1111111,Safari,1440,900,,,,,0,800,,,,,,,,,,,,,,,,,H,167,triangle,1,0,,,,,,,,,,,,,,,,repeat,number,numRpt,k,1.181,Hi,,,,,,1,,,,,,,,low,17,0,17,0,1,,,,,,,,,
292909,2022-09-21_21h00.56.397,vts_reward_expectancy,2022.2.4,MacIntel,111.1111111,Safari,1440,900,,,,,1,801,,,,,,,,,,,,,,,,,U,181,hexagon,1,0,,,,,,,,,,,,,,,,repeat,number,numRpt,k,0.613,Lo,,,,,,1,,,,,,,,low,18,0,18,0,1,,,,,,,,,
292909,2022-09-21_21h00.56.397,vts_reward_expectancy,2022.2.4,MacIntel,111.1111111,Safari,1440,900,,,,,10,811,,,,,,,,,,,,,,,,,W,125,triangle,1,0,,,,,,,,,,,,,,,,switch,letter,lettSwt,f,0.579,Hi,,,,,,1,,,,,,,,low,19,0,19,0,1,,,,,,,,,
292909,2022-09-21_21h00.56.397,vts_reward_expectancy,2022.2.4,MacIntel,111.1111111,Safari,1440,900,,,,,1,812,,,,,,,,,,,,,,,,,Y,139,hexagon,1,0,,,,,,,,,,,,,,,,repeat,letter,lettRpt,f,0.698,Lo,,,,,,1,,,,,,,,low,20,0,20,0,1,,,,,,,,,
292909,2022-09-21_21h00.56.397,vts_reward_expectancy,2022.2.4,MacIntel,111.1111111,Safari,1440,900,,,,,0,812,,,,,,,,,,,,,,,,,S,160,triangle,1,0,,,,,,,,,,,,,,,,repeat,letter,lettRpt,f,0.681,Hi,,,,,,1,,,,,,,,low,21,0,21,0,1,,,,,,,,,
292909,2022-09-21_21h00.56.397,vts_reward_expectancy,2022.2.4,MacIntel,111.1111111,Safari,1440,900,,,,,1,813,,,,,,,,,,,,,,,,,D,146,triangle,1,0,,,,,,,,,,,,,,,,switch,number,numSwt,j,0.547,Hi,,,,,,1,,,,,,,,low,22,0,22,0,1,,,,,,,,,
292909,2022-09-21_21h00.56.397,vts_reward_expectancy,2022.2.4,MacIntel,111.1111111,Safari,1440,900,,,,,1,814,,,,,,,,,,,,,,,,,B,132,hexagon,1,0,,,,,,,,,,,,,,,,repeat,number,numRpt,j,0.697,Lo,,,,,,1,,,,,,,,low,23,0,23,0,1,,,,,,,,,
292909,2022-09-21_21h00.56.397,vts_reward_expectancy,2022.2.4,MacIntel,111.1111111,Safari,1440,900,,,,,10,824,,,,,,,,,,,,,,,,,B,139,triangle,1,0,,,,,,,,,,,,,,,,switch,letter,lettSwt,d,0.551,Hi,,,,,,1,,,,,,,,low,24,0,24,0,1,,,,,,,,,
292909,2022-09-21_21h00.56.397,vts_reward_expectancy,2022.2.4,MacIntel,111.1111111,Safari,1440,900,,,,,1,825,,,,,,,,,,,,,,,,,Y,125,hexagon,1,0,,,,,,,,,,,,,,,,repeat,letter,lettRpt,f,0.485,Lo,,,,,,1,,,,,,,,low,25,0,25,0,1,,,,,,,,,
292909,2022-09-21_21h00.56.397,vts_reward_expectancy,2022.2.4,MacIntel,111.1111111,Safari,1440,900,,,,,1,826,,,,,,,,,,,,,,,,,W,174,triangle,1,0,,,,,,,,,,,,,,,,repeat,letter,lettRpt,f,0.545,Hi,,,,,,1,,,,,,,,low,26,0,26,0,1,,,,,,,,,
292909,2022-09-21_21h00.56.397,vts_reward_expectancy,2022.2.4,MacIntel,111.1111111,Safari,1440,900,,,,,1,827,,,,,,,,,,,,,,,,,D,181,hexagon,1,0,,,,,,,,,,,,,,,,switch,number,numSwt,k,0.511,Lo,,,,,,1,,,,,,,,low,27,0,27,0,1,,,,,,,,,
292909,2022-09-21_21h00.56.397,vts_reward_expectancy,2022.2.4,MacIntel,111.1111111,Safari,1440,900,,,,,0,827,,,,,,,,,,,,,,,,,F,132,triangle,1,0,,,,,,,,,,,,,,,,repeat,number,numRpt,j,0.864,Hi,,,,,,1,,,,,,,,low,28,0,28,0,1,,,,,,,,,
292909,2022-09-21_21h00.56.397,vts_reward_expectancy,2022.2.4,MacIntel,111.1111111,Safari,1440,900,,,,,1,828,,,,,,,,,,,,,,,,,U,160,hexagon,1,0,,,,,,,,,,,,,,,,repeat,number,numRpt,k,0.5,Lo,,,,,,1,,,,,,,,low,29,0,29,0,1,,,,,,,,,
292909,2022-09-21_21h00.56.397,vts_reward_expectancy,2022.2.4,MacIntel,111.1111111,Safari,1440,900,,,,,0,828,,,,,,,,,,,,,,,,,S,146,triangle,1,0,,,,,,,,,,,,,,,,switch,letter,lettSwt,f,1.129,Hi,,,,,,1,,,,,,,,low,30,0,30,0,1,,,,,,,,,
292909,2022-09-21_21h00.56.397,vts_reward_expectancy,2022.2.4,MacIntel,111.1111111,Safari,1440,900,,,,,10,838,,,,,,,,,,,,,,,,,H,167,hexagon,1,0,,,,,,,,,,,,,,,,repeat,letter,lettRpt,d,0.78,Lo,,,,,,1,,,,,,,,low,31,0,31,0,1,,,,,,,,,
292909,2022-09-21_21h00.56.397,vts_reward_expectancy,2022.2.4,MacIntel,111.1111111,Safari,1440,900,,,,,0,838,,,,,,,,,,,,,,,,,W,139,circle,1,0,,,,,,,,,,,,,,,,repeat,letter,lettRpt,f,0.797,Hi,,,,,,2,,,,,,space,2.746,high,0,0,0,0,1,,,,,,,,,
292909,2022-09-21_21h00.56.397,vts_reward_expectancy,2022.2.4,MacIntel,111.1111111,Safari,1440,900,,,,,10,848,,,,,,,,,,,,,,,,,B,167,star,1,0,,,,,,,,,,,,,,,,repeat,letter,lettRpt,d,0.447,Lo,,,,,,2,,,,,,,,high,1,0,1,0,1,,,,,,,,,
292909,2022-09-21_21h00.56.397,vts_reward_expectancy,2022.2.4,MacIntel,111.1111111,Safari,1440,900,,,,,10,858,,,,,,,,,,,,,,,,,D,181,circle,1,0,,,,,,,,,,,,,,,,repeat,letter,lettRpt,d,0.514,Hi,,,,,,2,,,,,,,,high,2,0,2,0,1,,,,,,,,,
292909,2022-09-21_21h00.56.397,vts_reward_expectancy,2022.2.4,MacIntel,111.1111111,Safari,1440,900,,,,,1,859,,,,,,,,,,,,,,,,,Y,160,star,1,0,,,,,,,,,,,,,,,,repeat,letter,lettRpt,f,0.614,Lo,,,,,,2,,,,,,,,high,3,0,3,0,1,,,,,,,,,
292909,2022-09-21_21h00.56.397,vts_reward_expectancy,2022.2.4,MacIntel,111.1111111,Safari,1440,900,,,,,1,860,,,,,,,,,,,,,,,,,H,132,star,1,0,,,,,,,,,,,,,,,,switch,number,numSwt,j,0.597,Lo,,,,,,2,,,,,,,,high,4,0,4,0,1,,,,,,,,,
292909,2022-09-21_21h00.56.397,vts_reward_expectancy,2022.2.4,MacIntel,111.1111111,Safari,1440,900,,,,,10,870,,,,,,,,,,,,,,,,,S,146,circle,1,0,,,,,,,,,,,,,,,,repeat,number,numRpt,j,0.597,Hi,,,,,,2,,,,,,,,high,5,0,5,0,1,,,,,,,,,
292909,2022-09-21_21h00.56.397,vts_reward_expectancy,2022.2.4,MacIntel,111.1111111,Safari,1440,900,,,,,0,870,,,,,,,,,,,,,,,,,U,125,circle,1,0,,,,,,,,,,,,,,,,repeat,number,numRpt,j,0.746,Hi,,,,,,2,,,,,,,,high,6,0,6,0,1,,,,,,,,,
292909,2022-09-21_21h00.56.397,vts_reward_expectancy,2022.2.4,MacIntel,111.1111111,Safari,1440,900,,,,,1,871,,,,,,,,,,,,,,,,,F,174,star,1,0,,,,,,,,,,,,,,,,switch,letter,lettSwt,d,0.749,Lo,,,,,,2,,,,,,,,high,7,0,7,0,1,,,,,,,,,
292909,2022-09-21_21h00.56.397,vts_reward_expectancy,2022.2.4,MacIntel,111.1111111,Safari,1440,900,,,,,10,881,,,,,,,,,,,,,,,,,W,139,circle,1,0,,,,,,,,,,,,,,,,switch,number,numSwt,j,0.498,Hi,,,,,,2,,,,,,,,high,8,0,8,0,1,,,,,,,,,
292909,2022-09-21_21h00.56.397,vts_reward_expectancy,2022.2.4,MacIntel,111.1111111,Safari,1440,900,,,,,1,882,,,,,,,,,,,,,,,,,B,167,star,1,0,,,,,,,,,,,,,,,,switch,letter,lettSwt,d,0.643,Lo,,,,,,2,,,,,,,,high,9,0,9,0,1,,,,,,,,,
292909,2022-09-21_21h00.56.397,vts_reward_expectancy,2022.2.4,MacIntel,111.1111111,Safari,1440,900,,,,,0,882,,,,,,,,,,,,,,,,,D,181,circle,1,0,,,,,,,,,,,,,,,,repeat,letter,lettRpt,d,0.577,Hi,,,,,,2,,,,,,,,high,10,0,10,0,1,,,,,,,,,
292909,2022-09-21_21h00.56.397,vts_reward_expectancy,2022.2.4,MacIntel,111.1111111,Safari,1440,900,,,,,1,883,,,,,,,,,,,,,,,,,Y,160,star,1,0,,,,,,,,,,,,,,,,repeat,letter,lettRpt,f,0.564,Lo,,,,,,2,,,,,,,,high,11,0,11,0,1,,,,,,,,,
292909,2022-09-21_21h00.56.397,vts_reward_expectancy,2022.2.4,MacIntel,111.1111111,Safari,1440,900,,,,,10,893,,,,,,,,,,,,,,,,,H,132,star,1,0,,,,,,,,,,,,,,,,repeat,letter,lettRpt,d,0.697,Lo,,,,,,2,,,,,,,,high,12,0,12,0,1,,,,,,,,,
292909,2022-09-21_21h00.56.397,vts_reward_expectancy,2022.2.4,MacIntel,111.1111111,Safari,1440,900,,,,,0,893,,,,,,,,,,,,,,,,,S,146,circle,1,0,,,,,,,,,,,,,,,,repeat,letter,lettRpt,f,1.031,Hi,,,,,,2,,,,,,,,high,13,0,13,0,1,,,,,,,,,
292909,2022-09-21_21h00.56.397,vts_reward_expectancy,2022.2.4,MacIntel,111.1111111,Safari,1440,900,,,,,0,893,,,,,,,,,,,,,,,,,U,125,circle,1,0,,,,,,,,,,,,,,,,repeat,letter,lettRpt,f,0.832,Hi,,,,,,2,,,,,,,,high,14,0,14,0,1,,,,,,,,,
292909,2022-09-21_21h00.56.397,vts_reward_expectancy,2022.2.4,MacIntel,111.1111111,Safari,1440,900,,,,,1,894,,,,,,,,,,,,,,,,,F,174,star,1,0,,,,,,,,,,,,,,,,switch,number,numSwt,k,0.697,Lo,,,,,,2,,,,,,,,high,15,0,15,0,1,,,,,,,,,
292909,2022-09-21_21h00.56.397,vts_reward_expectancy,2022.2.4,MacIntel,111.1111111,Safari,1440,900,,,,,1,895,,,,,,,,,,,,,,,,,S,174,star,1,0,,,,,,,,,,,,,,,,repeat,number,numRpt,k,0.464,Lo,,,,,,2,,,,,,,,high,16,0,16,0,1,,,,,,,,,
292909,2022-09-21_21h00.56.397,vts_reward_expectancy,2022.2.4,MacIntel,111.1111111,Safari,1440,900,,,,,10,905,,,,,,,,,,,,,,,,,D,139,circle,1,0,,,,,,,,,,,,,,,,switch,letter,lettSwt,d,0.544,Hi,,,,,,2,,,,,,,,high,17,0,17,0,1,,,,,,,,,
292909,2022-09-21_21h00.56.397,vts_reward_expectancy,2022.2.4,MacIntel,111.1111111,Safari,1440,900,,,,,0,905,,,,,,,,,,,,,,,,,Y,132,circle,1,0,,,,,,,,,,,,,,,,repeat,letter,lettRpt,f,0.61,Hi,,,,,,2,,,,,,,,high,18,0,18,0,1,,,,,,,,,
292909,2022-09-21_21h00.56.397,vts_reward_expectancy,2022.2.4,MacIntel,111.1111111,Safari,1440,900,,,,,10,915,,,,,,,,,,,,,,,,,U,160,star,1,0,,,,,,,,,,,,,,,,switch,number,numSwt,k,0.58,Lo,,,,,,2,,,,,,,,high,19,0,19,0,1,,,,,,,,,
292909,2022-09-21_21h00.56.397,vts_reward_expectancy,2022.2.4,MacIntel,111.1111111,Safari,1440,900,,,,,10,925,,,,,,,,,,,,,,,,,B,167,star,1,0,,,,,,,,,,,,,,,,repeat,number,numRpt,k,0.5,Lo,,,,,,2,,,,,,,,high,20,0,20,0,1,,,,,,,,,
292909,2022-09-21_21h00.56.397,vts_reward_expectancy,2022.2.4,MacIntel,111.1111111,Safari,1440,900,,,,,10,935,,,,,,,,,,,,,,,,,H,181,circle,1,0,,,,,,,,,,,,,,,,repeat,number,numRpt,k,0.516,Hi,,,,,,2,,,,,,,,high,21,0,21,0,1,,,,,,,,,
292909,2022-09-21_21h00.56.397,vts_reward_expectancy,2022.2.4,MacIntel,111.1111111,Safari,1440,900,,,,,1,936,,,,,,,,,,,,,,,,,F,125,star,1,0,,,,,,,,,,,,,,,,repeat,number,numRpt,j,0.58,Lo,,,,,,2,,,,,,,,high,22,0,22,0,1,,,,,,,,,
292909,2022-09-21_21h00.56.397,vts_reward_expectancy,2022.2.4,MacIntel,111.1111111,Safari,1440,900,,,,,0,936,,,,,,,,,,,,,,,,,W,146,circle,1,0,,,,,,,,,,,,,,,,switch,letter,lettSwt,f,0.611,Hi,,,,,,2,,,,,,,,high,23,0,23,0,1,,,,,,,,,
292909,2022-09-21_21h00.56.397,vts_reward_expectancy,2022.2.4,MacIntel,111.1111111,Safari,1440,900,,,,,1,937,,,,,,,,,,,,,,,,,F,160,star,1,0,,,,,,,,,,,,,,,,switch,number,numSwt,k,0.661,Lo,,,,,,2,,,,,,,,high,24,0,24,0,1,,,,,,,,,
292909,2022-09-21_21h00.56.397,vts_reward_expectancy,2022.2.4,MacIntel,111.1111111,Safari,1440,900,,,,,0,937,,,,,,,,,,,,,,,,,S,167,circle,1,0,,,,,,,,,,,,,,,,repeat,number,numRpt,k,0.866,Hi,,,,,,2,,,,,,,,high,25,0,25,0,1,,,,,,,,,
292909,2022-09-21_21h00.56.397,vts_reward_expectancy,2022.2.4,MacIntel,111.1111111,Safari,1440,900,,,,,1,938,,,,,,,,,,,,,,,,,D,125,star,1,0,,,,,,,,,,,,,,,,switch,letter,lettSwt,d,0.778,Lo,,,,,,2,,,,,,,,high,26,0,26,0,1,,,,,,,,,
292909,2022-09-21_21h00.56.397,vts_reward_expectancy,2022.2.4,MacIntel,111.1111111,Safari,1440,900,,,,,0,938,,,,,,,,,,,,,,,,,Y,132,circle,1,0,,,,,,,,,,,,,,,,repeat,letter,lettRpt,f,0.914,Hi,,,,,,2,,,,,,,,high,27,0,27,0,1,,,,,,,,,
292909,2022-09-21_21h00.56.397,vts_reward_expectancy,2022.2.4,MacIntel,111.1111111,Safari,1440,900,,,,,1,939,,,,,,,,,,,,,,,,,H,174,star,1,0,,,,,,,,,,,,,,,,switch,number,numSwt,k,0.581,Lo,,,,,,2,,,,,,,,high,28,0,28,0,1,,,,,,,,,
292909,2022-09-21_21h00.56.397,vts_reward_expectancy,2022.2.4,MacIntel,111.1111111,Safari,1440,900,,,,,1,940,,,,,,,,,,,,,,,,,B,181,circle,1,0,,,,,,,,,,,,,,,,repeat,number,numRpt,k,0.498,Hi,,,,,,2,,,,,,,,high,29,0,29,0,1,,,,,,,,,
292909,2022-09-21_21h00.56.397,vts_reward_expectancy,2022.2.4,MacIntel,111.1111111,Safari,1440,900,,,,,1,941,,,,,,,,,,,,,,,,,W,139,star,1,0,,,,,,,,,,,,,,,,repeat,number,numRpt,j,0.731,Lo,,,,,,2,,,,,,,,high,30,0,30,0,1,,,,,,,,,
292909,2022-09-21_21h00.56.397,vts_reward_expectancy,2022.2.4,MacIntel,111.1111111,Safari,1440,900,,,,,0,941,,,,,,,,,,,,,,,,,U,146,circle,1,0,,,,,,,,,,,,,,,,repeat,number,numRpt,j,0.78,Hi,,,,,,2,,,,,,,,high,31,0,31,0,1,,,,,,,,,
292909,2022-09-21_21h00.56.397,vts_reward_expectancy,2022.2.4,MacIntel,111.1111111,Safari,1440,900,,,,,1,942,,,,,,,,,,,,,,,,,B,132,star,1,0,,,,,,,,,,,,,,,,switch,letter,lettSwt,d,0.58,Lo,,,,,,3,,,,,,space,1,high,0,0,0,0,1,,,,,,,,,
292909,2022-09-21_21h00.56.397,vts_reward_expectancy,2022.2.4,MacIntel,111.1111111,Safari,1440,900,,,,,0,942,,,,,,,,,,,,,,,,,S,181,circle,1,0,,,,,,,,,,,,,,,,switch,number,numSwt,k,0.581,Hi,,,,,,3,,,,,,,,high,1,0,1,0,1,,,,,,,,,
292909,2022-09-21_21h00.56.397,vts_reward_expectancy,2022.2.4,MacIntel,111.1111111,Safari,1440,900,,,,,0,942,,,,,,,,,,,,,,,,,H,125,star,0,0,,,,,,,,,,,,,,,,switch,letter,NA,f,0.847,Hi,,,,,,3,,,,,,,,high,2,0,2,0,1,,,,,,,,,
292909,2022-09-21_21h00.56.397,vts_reward_expectancy,2022.2.4,MacIntel,111.1111111,Safari,1440,900,,,,,10,952,,,,,,,,,,,,,,,,,D,167,circle,1,1,,,,,,,,,,,,,,,,repeat,letter,lettRpt,d,0.481,Hi,,,,,,3,,,,,,,,high,3,0,3,0,1,,,,,,,,,
292909,2022-09-21_21h00.56.397,vts_reward_expectancy,2022.2.4,MacIntel,111.1111111,Safari,1440,900,,,,,1,953,,,,,,,,,,,,,,,,,Y,174,star,1,0,,,,,,,,,,,,,,,,repeat,letter,lettRpt,f,0.547,Lo,,,,,,3,,,,,,,,high,4,0,4,0,1,,,,,,,,,
292909,2022-09-21_21h00.56.397,vts_reward_expectancy,2022.2.4,MacIntel,111.1111111,Safari,1440,900,,,,,0,953,,,,,,,,,,,,,,,,,F,160,circle,1,0,,,,,,,,,,,,,,,,switch,number,numSwt,k,0.91,Hi,,,,,,3,,,,,,,,high,5,0,5,0,1,,,,,,,,,
292909,2022-09-21_21h00.56.397,vts_reward_expectancy,2022.2.4,MacIntel,111.1111111,Safari,1440,900,,,,,0,953,,,,,,,,,,,,,,,,,W,139,circle,1,0,,,,,,,,,,,,,,,,switch,letter,lettSwt,f,0.714,Hi,,,,,,3,,,,,,,,high,6,0,6,0,1,,,,,,,,,
292909,2022-09-21_21h00.56.397,vts_reward_expectancy,2022.2.4,MacIntel,111.1111111,Safari,1440,900,,,,,10,963,,,,,,,,,,,,,,,,,U,146,star,1,0,,,,,,,,,,,,,,,,switch,number,numSwt,j,1.03,Lo,,,,,,3,,,,,,,,high,7,0,7,0,1,,,,,,,,,
292909,2022-09-21_21h00.56.397,vts_reward_expectancy,2022.2.4,MacIntel,111.1111111,Safari,1440,900,,,,,1,964,,,,,,,,,,,,,,,,,B,132,star,1,0,,,,,,,,,,,,,,,,switch,letter,lettSwt,d,0.534,Lo,,,,,,3,,,,,,,,high,8,0,8,0,1,,,,,,,,,
292909,2022-09-21_21h00.56.397,vts_reward_expectancy,2022.2.4,MacIntel,111.1111111,Safari,1440,900,,,,,0,964,,,,,,,,,,,,,,,,,S,181,circle,1,0,,,,,,,,,,,,,,,,switch,number,numSwt,k,1.647,Hi,,,,,,3,,,,,,,,high,9,0,9,0,1,,,,,,,,,
292909,2022-09-21_21h00.56.397,vts_reward_expectancy,2022.2.4,MacIntel,111.1111111,Safari,1440,900,,,,,0,964,,,,,,,,,,,,,,,,,H,125,circle,1,0,,,,,,,,,,,,,,,,repeat,number,numRpt,j,0.927,Hi,,,,,,3,,,,,,,,high,10,0,10,0,1,,,,,,,,,
292909,2022-09-21_21h00.56.397,vts_reward_expectancy,2022.2.4,MacIntel,111.1111111,Safari,1440,900,,,,,1,965,,,,,,,,,,,,,,,,,D,167,star,1,0,,,,,,,,,,,,,,,,switch,letter,lettSwt,d,0.563,Lo,,,,,,3,,,,,,,,high,11,0,11,0,1,,,,,,,,,
292909,2022-09-21_21h00.56.397,vts_reward_expectancy,2022.2.4,MacIntel,111.1111111,Safari,1440,900,,,,,10,975,,,,,,,,,,,,,,,,,Y,174,circle,1,0,,,,,,,,,,,,,,,,repeat,letter,lettRpt,f,0.449,Hi,,,,,,3,,,,,,,,high,12,0,12,0,1,,,,,,,,,
292909,2022-09-21_21h00.56.397,vts_reward_expectancy,2022.2.4,MacIntel,111.1111111,Safari,1440,900,,,,,10,985,,,,,,,,,,,,,,,,,F,160,star,1,0,,,,,,,,,,,,,,,,repeat,letter,lettRpt,d,0.98,Lo,,,,,,3,,,,,,,,high,13,0,13,0,1,,,,,,,,,
292909,2022-09-21_21h00.56.397,vts_reward_expectancy,2022.2.4,MacIntel,111.1111111,Safari,1440,900,,,,,1,986,,,,,,,,,,,,,,,,,W,139,star,1,0,,,,,,,,,,,,,,,,repeat,letter,lettRpt,f,0.741,Lo,,,,,,3,,,,,,,,high,14,0,14,0,1,,,,,,,,,
292909,2022-09-21_21h00.56.397,vts_reward_expectancy,2022.2.4,MacIntel,111.1111111,Safari,1440,900,,,,,10,996,,,,,,,,,,,,,,,,,U,146,circle,1,0,,,,,,,,,,,,,,,,repeat,letter,lettRpt,f,0.53,Hi,,,,,,3,,,,,,,,high,15,0,15,0,1,,,,,,,,,
292909,2022-09-21_21h00.56.397,vts_reward_expectancy,2022.2.4,MacIntel,111.1111111,Safari,1440,900,,,,,10,1006,,,,,,,,,,,,,,,,,D,167,circle,1,0,,,,,,,,,,,,,,,,repeat,letter,lettRpt,d,0.497,Hi,,,,,,3,,,,,,,,high,16,0,16,0,1,,,,,,,,,
292909,2022-09-21_21h00.56.397,vts_reward_expectancy,2022.2.4,MacIntel,111.1111111,Safari,1440,900,,,,,10,1016,,,,,,,,,,,,,,,,,H,132,star,1,0,,,,,,,,,,,,,,,,repeat,letter,lettRpt,d,0.611,Lo,,,,,,3,,,,,,,,high,17,0,17,0,1,,,,,,,,,
292909,2022-09-21_21h00.56.397,vts_reward_expectancy,2022.2.4,MacIntel,111.1111111,Safari,1440,900,,,,,1,1017,,,,,,,,,,,,,,,,,U,174,star,1,0,,,,,,,,,,,,,,,,repeat,letter,lettRpt,f,0.631,Lo,,,,,,3,,,,,,,,high,18,0,18,0,1,,,,,,,,,
292909,2022-09-21_21h00.56.397,vts_reward_expectancy,2022.2.4,MacIntel,111.1111111,Safari,1440,900,,,,,0,1017,,,,,,,,,,,,,,,,,S,146,circle,1,0,,,,,,,,,,,,,,,,repeat,letter,lettRpt,f,0.747,Hi,,,,,,3,,,,,,,,high,19,0,19,0,1,,,,,,,,,
292909,2022-09-21_21h00.56.397,vts_reward_expectancy,2022.2.4,MacIntel,111.1111111,Safari,1440,900,,,,,0,1017,,,,,,,,,,,,,,,,,F,160,circle,1,0,,,,,,,,,,,,,,,,switch,number,numSwt,k,0.763,Hi,,,,,,3,,,,,,,,high,20,0,20,0,1,,,,,,,,,
292909,2022-09-21_21h00.56.397,vts_reward_expectancy,2022.2.4,MacIntel,111.1111111,Safari,1440,900,,,,,1,1018,,,,,,,,,,,,,,,,,B,181,star,1,0,,,,,,,,,,,,,,,,repeat,number,numRpt,k,0.599,Lo,,,,,,3,,,,,,,,high,21,0,21,0,1,,,,,,,,,
292909,2022-09-21_21h00.56.397,vts_reward_expectancy,2022.2.4,MacIntel,111.1111111,Safari,1440,900,,,,,10,1028,,,,,,,,,,,,,,,,,Y,139,star,1,0,,,,,,,,,,,,,,,,repeat,number,numRpt,j,0.531,Lo,,,,,,3,,,,,,,,high,22,0,22,0,1,,,,,,,,,
292909,2022-09-21_21h00.56.397,vts_reward_expectancy,2022.2.4,MacIntel,111.1111111,Safari,1440,900,,,,,0,1028,,,,,,,,,,,,,,,,,W,125,circle,1,0,,,,,,,,,,,,,,,,repeat,number,numRpt,j,0.517,Hi,,,,,,3,,,,,,,,high,23,0,23,0,1,,,,,,,,,
292909,2022-09-21_21h00.56.397,vts_reward_expectancy,2022.2.4,MacIntel,111.1111111,Safari,1440,900,,,,,10,1038,,,,,,,,,,,,,,,,,Y,174,star,1,0,,,,,,,,,,,,,,,,switch,letter,lettSwt,f,0.464,Lo,,,,,,3,,,,,,,,high,24,0,24,0,1,,,,,,,,,
292909,2022-09-21_21h00.56.397,vts_reward_expectancy,2022.2.4,MacIntel,111.1111111,Safari,1440,900,,,,,0,1038,,,,,,,,,,,,,,,,,H,160,circle,1,0,,,,,,,,,,,,,,,,repeat,letter,lettRpt,d,0.649,Hi,,,,,,3,,,,,,,,high,25,0,25,0,1,,,,,,,,,
292909,2022-09-21_21h00.56.397,vts_reward_expectancy,2022.2.4,MacIntel,111.1111111,Safari,1440,900,,,,,1,1039,,,,,,,,,,,,,,,,,W,139,star,1,0,,,,,,,,,,,,,,,,repeat,letter,lettRpt,f,0.513,Lo,,,,,,3,,,,,,,,high,26,0,26,0,1,,,,,,,,,
292909,2022-09-21_21h00.56.397,vts_reward_expectancy,2022.2.4,MacIntel,111.1111111,Safari,1440,900,,,,,0,1039,,,,,,,,,,,,,,,,,S,132,circle,1,0,,,,,,,,,,,,,,,,repeat,letter,lettRpt,f,0.748,Hi,,,,,,3,,,,,,,,high,27,0,27,0,1,,,,,,,,,
292909,2022-09-21_21h00.56.397,vts_reward_expectancy,2022.2.4,MacIntel,111.1111111,Safari,1440,900,,,,,1,1040,,,,,,,,,,,,,,,,,D,125,star,1,0,,,,,,,,,,,,,,,,repeat,letter,lettRpt,d,0.514,Lo,,,,,,3,,,,,,,,high,28,0,28,0,1,,,,,,,,,
292909,2022-09-21_21h00.56.397,vts_reward_expectancy,2022.2.4,MacIntel,111.1111111,Safari,1440,900,,,,,10,1050,,,,,,,,,,,,,,,,,B,167,circle,1,0,,,,,,,,,,,,,,,,repeat,letter,lettRpt,d,0.514,Hi,,,,,,3,,,,,,,,high,29,0,29,0,1,,,,,,,,,
292909,2022-09-21_21h00.56.397,vts_reward_expectancy,2022.2.4,MacIntel,111.1111111,Safari,1440,900,,,,,0,1050,,,,,,,,,,,,,,,,,U,146,circle,1,0,,,,,,,,,,,,,,,,repeat,letter,lettRpt,f,0.965,Hi,,,,,,3,,,,,,,,high,30,0,30,0,1,,,,,,,,,
292909,2022-09-21_21h00.56.397,vts_reward_expectancy,2022.2.4,MacIntel,111.1111111,Safari,1440,900,,,,,0,1050,,,,,,,,,,,,,,,,,F,181,star,0,0,,,,,,,,,,,,,,,,repeat,letter,NA,f,0.661,Hi,,,,,,3,,,,,,,,high,31,0,31,0,1,,,,,,,,,
292909,2022-09-21_21h00.56.397,vts_reward_expectancy,2022.2.4,MacIntel,111.1111111,Safari,1440,900,,,,,10,1060,,,,,,,,,,,,,,,,,H,181,triangle,1,1,,,,,,,,,,,,,,,,switch,number,numSwt,k,0.567,Hi,,,,,,4,,,,,,space,0.482,low,0,0,0,0,1,,,,,,,,,
292909,2022-09-21_21h00.56.397,vts_reward_expectancy,2022.2.4,MacIntel,111.1111111,Safari,1440,900,,,,,1,1061,,,,,,,,,,,,,,,,,Y,174,hexagon,1,0,,,,,,,,,,,,,,,,repeat,number,numRpt,k,0.564,Lo,,,,,,4,,,,,,,,low,1,0,1,0,1,,,,,,,,,
292909,2022-09-21_21h00.56.397,vts_reward_expectancy,2022.2.4,MacIntel,111.1111111,Safari,1440,900,,,,,1,1062,,,,,,,,,,,,,,,,,B,160,triangle,1,0,,,,,,,,,,,,,,,,switch,letter,lettSwt,d,0.515,Hi,,,,,,4,,,,,,,,low,2,0,2,0,1,,,,,,,,,
292909,2022-09-21_21h00.56.397,vts_reward_expectancy,2022.2.4,MacIntel,111.1111111,Safari,1440,900,,,,,1,1063,,,,,,,,,,,,,,,,,D,139,hexagon,1,0,,,,,,,,,,,,,,,,repeat,letter,lettRpt,d,0.432,Lo,,,,,,4,,,,,,,,low,3,0,3,0,1,,,,,,,,,
292909,2022-09-21_21h00.56.397,vts_reward_expectancy,2022.2.4,MacIntel,111.1111111,Safari,1440,900,,,,,0,1063,,,,,,,,,,,,,,,,,U,167,triangle,1,0,,,,,,,,,,,,,,,,repeat,letter,lettRpt,f,0.947,Hi,,,,,,4,,,,,,,,low,4,0,4,0,1,,,,,,,,,
292909,2022-09-21_21h00.56.397,vts_reward_expectancy,2022.2.4,MacIntel,111.1111111,Safari,1440,900,,,,,0,1063,,,,,,,,,,,,,,,,,S,125,hexagon,0,0,,,,,,,,,,,,,,,,repeat,letter,NA,d,0.531,Hi,,,,,,4,,,,,,,,low,5,0,5,0,1,,,,,,,,,
292909,2022-09-21_21h00.56.397,vts_reward_expectancy,2022.2.4,MacIntel,111.1111111,Safari,1440,900,,,,,10,1073,,,,,,,,,,,,,,,,,W,132,triangle,1,1,,,,,,,,,,,,,,,,switch,number,numSwt,j,0.532,Hi,,,,,,4,,,,,,,,low,6,0,6,0,1,,,,,,,,,
292909,2022-09-21_21h00.56.397,vts_reward_expectancy,2022.2.4,MacIntel,111.1111111,Safari,1440,900,,,,,1,1074,,,,,,,,,,,,,,,,,F,146,hexagon,1,0,,,,,,,,,,,,,,,,repeat,number,numRpt,j,0.577,Lo,,,,,,4,,,,,,,,low,7,0,7,0,1,,,,,,,,,
292909,2022-09-21_21h00.56.397,vts_reward_expectancy,2022.2.4,MacIntel,111.1111111,Safari,1440,900,,,,,1,1075,,,,,,,,,,,,,,,,,H,181,hexagon,1,0,,,,,,,,,,,,,,,,switch,letter,lettSwt,d,0.76,Lo,,,,,,4,,,,,,,,low,8,0,8,0,1,,,,,,,,,
292909,2022-09-21_21h00.56.397,vts_reward_expectancy,2022.2.4,MacIntel,111.1111111,Safari,1440,900,,,,,10,1085,,,,,,,,,,,,,,,,,Y,174,triangle,1,0,,,,,,,,,,,,,,,,switch,number,numSwt,k,0.515,Hi,,,,,,4,,,,,,,,low,9,0,9,0,1,,,,,,,,,
292909,2022-09-21_21h00.56.397,vts_reward_expectancy,2022.2.4,MacIntel,111.1111111,Safari,1440,900,,,,,10,1095,,,,,,,,,,,,,,,,,B,160,hexagon,1,0,,,,,,,,,,,,,,,,switch,letter,lettSwt,d,0.544,Lo,,,,,,4,,,,,,,,low,10,0,10,0,1,,,,,,,,,
292909,2022-09-21_21h00.56.397,vts_reward_expectancy,2022.2.4,MacIntel,111.1111111,Safari,1440,900,,,,,10,1105,,,,,,,,,,,,,,,,,D,139,triangle,1,0,,,,,,,,,,,,,,,,repeat,letter,lettRpt,d,0.464,Hi,,,,,,4,,,,,,,,low,11,0,11,0,1,,,,,,,,,
292909,2022-09-21_21h00.56.397,vts_reward_expectancy,2022.2.4,MacIntel,111.1111111,Safari,1440,900,,,,,0,1105,,,,,,,,,,,,,,,,,U,167,triangle,1,0,,,,,,,,,,,,,,,,switch,number,numSwt,k,1.133,Hi,,,,,,4,,,,,,,,low,12,0,12,0,1,,,,,,,,,
292909,2022-09-21_21h00.56.397,vts_reward_expectancy,2022.2.4,MacIntel,111.1111111,Safari,1440,900,,,,,1,1106,,,,,,,,,,,,,,,,,S,125,hexagon,1,0,,,,,,,,,,,,,,,,switch,letter,lettSwt,f,0.665,Lo,,,,,,4,,,,,,,,low,13,0,13,0,1,,,,,,,,,
292909,2022-09-21_21h00.56.397,vts_reward_expectancy,2022.2.4,MacIntel,111.1111111,Safari,1440,900,,,,,1,1107,,,,,,,,,,,,,,,,,W,132,hexagon,1,0,,,,,,,,,,,,,,,,repeat,letter,lettRpt,f,0.563,Lo,,,,,,4,,,,,,,,low,14,0,14,0,1,,,,,,,,,
292909,2022-09-21_21h00.56.397,vts_reward_expectancy,2022.2.4,MacIntel,111.1111111,Safari,1440,900,,,,,0,1107,,,,,,,,,,,,,,,,,F,146,triangle,1,0,,,,,,,,,,,,,,,,switch,number,numSwt,j,0.864,Hi,,,,,,4,,,,,,,,low,15,0,15,0,1,,,,,,,,,
292909,2022-09-21_21h00.56.397,vts_reward_expectancy,2022.2.4,MacIntel,111.1111111,Safari,1440,900,,,,,0,1107,,,,,,,,,,,,,,,,,Y,125,triangle,1,0,,,,,,,,,,,,,,,,switch,letter,lettSwt,f,0.545,Hi,,,,,,4,,,,,,,,low,16,0,16,0,1,,,,,,,,,
292909,2022-09-21_21h00.56.397,vts_reward_expectancy,2022.2.4,MacIntel,111.1111111,Safari,1440,900,,,,,1,1108,,,,,,,,,,,,,,,,,B,174,hexagon,1,0,,,,,,,,,,,,,,,,repeat,letter,lettRpt,d,0.597,Lo,,,,,,4,,,,,,,,low,17,0,17,0,1,,,,,,,,,
292909,2022-09-21_21h00.56.397,vts_reward_expectancy,2022.2.4,MacIntel,111.1111111,Safari,1440,900,,,,,0,1108,,,,,,,,,,,,,,,,,S,132,triangle,0,0,,,,,,,,,,,,,,,,switch,number,NA,k,0.865,Lo,,,,,,4,,,,,,,,low,18,0,18,0,1,,,,,,,,,
292909,2022-09-21_21h00.56.397,vts_reward_expectancy,2022.2.4,MacIntel,111.1111111,Safari,1440,900,,,,,1,1109,,,,,,,,,,,,,,,,,H,181,hexagon,1,1,,,,,,,,,,,,,,,,repeat,number,numRpt,k,0.549,Lo,,,,,,4,,,,,,,,low,19,0,19,0,1,,,,,,,,,
292909,2022-09-21_21h00.56.397,vts_reward_expectancy,2022.2.4,MacIntel,111.1111111,Safari,1440,900,,,,,10,1119,,,,,,,,,,,,,,,,,U,167,hexagon,1,0,,,,,,,,,,,,,,,,repeat,number,numRpt,k,1.047,Lo,,,,,,4,,,,,,,,low,20,0,20,0,1,,,,,,,,,
292909,2022-09-21_21h00.56.397,vts_reward_expectancy,2022.2.4,MacIntel,111.1111111,Safari,1440,900,,,,,1,1120,,,,,,,,,,,,,,,,,D,139,triangle,1,0,,,,,,,,,,,,,,,,switch,letter,lettSwt,d,0.514,Hi,,,,,,4,,,,,,,,low,21,0,21,0,1,,,,,,,,,
292909,2022-09-21_21h00.56.397,vts_reward_expectancy,2022.2.4,MacIntel,111.1111111,Safari,1440,900,,,,,0,1120,,,,,,,,,,,,,,,,,F,160,triangle,0,0,,,,,,,,,,,,,,,,repeat,letter,NA,f,0.814,Hi,,,,,,4,,,,,,,,low,22,0,22,0,1,,,,,,,,,
292909,2022-09-21_21h00.56.397,vts_reward_expectancy,2022.2.4,MacIntel,111.1111111,Safari,1440,900,,,,,10,1130,,,,,,,,,,,,,,,,,W,146,hexagon,1,1,,,,,,,,,,,,,,,,repeat,letter,lettRpt,f,0.53,Lo,,,,,,4,,,,,,,,low,23,0,23,0,1,,,,,,,,,
292909,2022-09-21_21h00.56.397,vts_reward_expectancy,2022.2.4,MacIntel,111.1111111,Safari,1440,900,,,,,0,1130,,,,,,,,,,,,,,,,,B,146,triangle,1,0,,,,,,,,,,,,,,,,repeat,letter,lettRpt,d,0.597,Hi,,,,,,4,,,,,,,,low,24,0,24,0,1,,,,,,,,,
292909,2022-09-21_21h00.56.397,vts_reward_expectancy,2022.2.4,MacIntel,111.1111111,Safari,1440,900,,,,,1,1131,,,,,,,,,,,,,,,,,W,132,hexagon,1,0,,,,,,,,,,,,,,,,repeat,letter,lettRpt,f,0.531,Lo,,,,,,4,,,,,,,,low,25,0,25,0,1,,,,,,,,,
292909,2022-09-21_21h00.56.397,vts_reward_expectancy,2022.2.4,MacIntel,111.1111111,Safari,1440,900,,,,,1,1132,,,,,,,,,,,,,,,,,Y,181,hexagon,1,0,,,,,,,,,,,,,,,,repeat,letter,lettRpt,f,0.528,Lo,,,,,,4,,,,,,,,low,26,0,26,0,1,,,,,,,,,
292909,2022-09-21_21h00.56.397,vts_reward_expectancy,2022.2.4,MacIntel,111.1111111,Safari,1440,900,,,,,0,1132,,,,,,,,,,,,,,,,,U,125,triangle,1,0,,,,,,,,,,,,,,,,repeat,letter,lettRpt,f,0.798,Hi,,,,,,4,,,,,,,,low,27,0,27,0,1,,,,,,,,,
292909,2022-09-21_21h00.56.397,vts_reward_expectancy,2022.2.4,MacIntel,111.1111111,Safari,1440,900,,,,,1,1133,,,,,,,,,,,,,,,,,H,160,hexagon,1,0,,,,,,,,,,,,,,,,switch,number,numSwt,k,0.73,Lo,,,,,,4,,,,,,,,low,28,0,28,0,1,,,,,,,,,
292909,2022-09-21_21h00.56.397,vts_reward_expectancy,2022.2.4,MacIntel,111.1111111,Safari,1440,900,,,,,0,1133,,,,,,,,,,,,,,,,,F,139,triangle,1,0,,,,,,,,,,,,,,,,repeat,number,numRpt,j,1.015,Hi,,,,,,4,,,,,,,,low,29,0,29,0,1,,,,,,,,,
292909,2022-09-21_21h00.56.397,vts_reward_expectancy,2022.2.4,MacIntel,111.1111111,Safari,1440,900,,,,,10,1143,,,,,,,,,,,,,,,,,S,167,hexagon,1,0,,,,,,,,,,,,,,,,repeat,number,numRpt,k,1.51,Lo,,,,,,4,,,,,,,,low,30,0,30,0,1,,,,,,,,,
292909,2022-09-21_21h00.56.397,vts_reward_expectancy,2022.2.4,MacIntel,111.1111111,Safari,1440,900,,,,,0,1143,,,,,,,,,,,,,,,,,D,174,triangle,1,0,,,,,,,,,,,,,,,,switch,letter,lettSwt,d,0.764,Hi,,,,,,4,,,,,,,,low,31,0,31,0,1,,,,,,,,,
292909,2022-09-21_21h00.56.397,vts_reward_expectancy,2022.2.4,MacIntel,111.1111111,Safari,1440,900,,,,,0,1143,,,,,,,,,,,,,,,,,F,174,circle,1,0,,,,,,,,,,,,,,,,repeat,letter,lettRpt,d,0.831,Hi,,,,,,5,,,,,,space,2.849,high,0,0,0,0,1,,,,,,,,,
292909,2022-09-21_21h00.56.397,vts_reward_expectancy,2022.2.4,MacIntel,111.1111111,Safari,1440,900,,,,,1,1144,,,,,,,,,,,,,,,,,D,125,star,1,0,,,,,,,,,,,,,,,,switch,number,numSwt,j,0.548,Lo,,,,,,5,,,,,,,,high,1,0,1,0,1,,,,,,,,,
292909,2022-09-21_21h00.56.397,vts_reward_expectancy,2022.2.4,MacIntel,111.1111111,Safari,1440,900,,,,,0,1144,,,,,,,,,,,,,,,,,U,146,circle,1,0,,,,,,,,,,,,,,,,repeat,number,numRpt,j,1.18,Hi,,,,,,5,,,,,,,,high,2,0,2,0,1,,,,,,,,,
292909,2022-09-21_21h00.56.397,vts_reward_expectancy,2022.2.4,MacIntel,111.1111111,Safari,1440,900,,,,,1,1145,,,,,,,,,,,,,,,,,W,139,star,1,0,,,,,,,,,,,,,,,,switch,letter,lettSwt,f,0.531,Lo,,,,,,5,,,,,,,,high,3,0,3,0,1,,,,,,,,,
292909,2022-09-21_21h00.56.397,vts_reward_expectancy,2022.2.4,MacIntel,111.1111111,Safari,1440,900,,,,,0,1145,,,,,,,,,,,,,,,,,Y,160,circle,1,0,,,,,,,,,,,,,,,,repeat,letter,lettRpt,f,0.68,Hi,,,,,,5,,,,,,,,high,4,0,4,0,1,,,,,,,,,
292909,2022-09-21_21h00.56.397,vts_reward_expectancy,2022.2.4,MacIntel,111.1111111,Safari,1440,900,,,,,1,1146,,,,,,,,,,,,,,,,,B,132,star,1,0,,,,,,,,,,,,,,,,switch,number,numSwt,j,0.896,Lo,,,,,,5,,,,,,,,high,5,0,5,0,1,,,,,,,,,
292909,2022-09-21_21h00.56.397,vts_reward_expectancy,2022.2.4,MacIntel,111.1111111,Safari,1440,900,,,,,0,1146,,,,,,,,,,,,,,,,,H,167,circle,1,0,,,,,,,,,,,,,,,,repeat,number,numRpt,k,0.695,Hi,,,,,,5,,,,,,,,high,6,0,6,0,1,,,,,,,,,
292909,2022-09-21_21h00.56.397,vts_reward_expectancy,2022.2.4,MacIntel,111.1111111,Safari,1440,900,,,,,10,1156,,,,,,,,,,,,,,,,,S,181,star,1,0,,,,,,,,,,,,,,,,repeat,number,numRpt,k,0.48,Lo,,,,,,5,,,,,,,,high,7,0,7,0,1,,,,,,,,,
292909,2022-09-21_21h00.56.397,vts_reward_expectancy,2022.2.4,MacIntel,111.1111111,Safari,1440,900,,,,,1,1157,,,,,,,,,,,,,,,,,F,174,circle,1,0,,,,,,,,,,,,,,,,repeat,number,numRpt,k,0.529,Hi,,,,,,5,,,,,,,,high,8,0,8,0,1,,,,,,,,,
292909,2022-09-21_21h00.56.397,vts_reward_expectancy,2022.2.4,MacIntel,111.1111111,Safari,1440,900,,,,,1,1158,,,,,,,,,,,,,,,,,D,125,star,1,0,,,,,,,,,,,,,,,,repeat,number,numRpt,j,0.65,Lo,,,,,,5,,,,,,,,high,9,0,9,0,1,,,,,,,,,
292909,2022-09-21_21h00.56.397,vts_reward_expectancy,2022.2.4,MacIntel,111.1111111,Safari,1440,900,,,,,0,1158,,,,,,,,,,,,,,,,,U,146,star,0,0,,,,,,,,,,,,,,,,repeat,number,NA,k,0.561,Lo,,,,,,5,,,,,,,,high,10,0,10,0,1,,,,,,,,,
292909,2022-09-21_21h00.56.397,vts_reward_expectancy,2022.2.4,MacIntel,111.1111111,Safari,1440,900,,,,,0,1158,,,,,,,,,,,,,,,,,W,139,circle,1,1,,,,,,,,,,,,,,,,repeat,number,numRpt,j,0.697,Hi,,,,,,5,,,,,,,,high,11,0,11,0,1,,,,,,,,,
292909,2022-09-21_21h00.56.397,vts_reward_expectancy,2022.2.4,MacIntel,111.1111111,Safari,1440,900,,,,,0,1158,,,,,,,,,,,,,,,,,Y,160,circle,1,0,,,,,,,,,,,,,,,,switch,letter,lettSwt,f,0.599,Hi,,,,,,5,,,,,,,,high,12,0,12,0,1,,,,,,,,,
292909,2022-09-21_21h00.56.397,vts_reward_expectancy,2022.2.4,MacIntel,111.1111111,Safari,1440,900,,,,,1,1159,,,,,,,,,,,,,,,,,B,132,star,1,0,,,,,,,,,,,,,,,,repeat,letter,lettRpt,d,0.647,Lo,,,,,,5,,,,,,,,high,13,0,13,0,1,,,,,,,,,
292909,2022-09-21_21h00.56.397,vts_reward_expectancy,2022.2.4,MacIntel,111.1111111,Safari,1440,900,,,,,0,1159,,,,,,,,,,,,,,,,,H,167,circle,1,0,,,,,,,,,,,,,,,,repeat,letter,lettRpt,d,1.065,Hi,,,,,,5,,,,,,,,high,14,0,14,0,1,,,,,,,,,
292909,2022-09-21_21h00.56.397,vts_reward_expectancy,2022.2.4,MacIntel,111.1111111,Safari,1440,900,,,,,10,1169,,,,,,,,,,,,,,,,,S,181,star,1,0,,,,,,,,,,,,,,,,switch,number,numSwt,k,0.827,Lo,,,,,,5,,,,,,,,high,15,0,15,0,1,,,,,,,,,
292909,2022-09-21_21h00.56.397,vts_reward_expectancy,2022.2.4,MacIntel,111.1111111,Safari,1440,900,,,,,0,1169,,,,,,,,,,,,,,,,,D,174,circle,1,0,,,,,,,,,,,,,,,,repeat,number,numRpt,k,0.68,Hi,,,,,,5,,,,,,,,high,16,0,16,0,1,,,,,,,,,
292909,2022-09-21_21h00.56.397,vts_reward_expectancy,2022.2.4,MacIntel,111.1111111,Safari,1440,900,,,,,1,1170,,,,,,,,,,,,,,,,,Y,146,star,1,0,,,,,,,,,,,,,,,,switch,letter,lettSwt,f,0.481,Lo,,,,,,5,,,,,,,,high,17,0,17,0,1,,,,,,,,,
292909,2022-09-21_21h00.56.397,vts_reward_expectancy,2022.2.4,MacIntel,111.1111111,Safari,1440,900,,,,,0,1170,,,,,,,,,,,,,,,,,F,160,circle,1,0,,,,,,,,,,,,,,,,repeat,letter,lettRpt,d,0.747,Hi,,,,,,5,,,,,,,,high,18,0,18,0,1,,,,,,,,,
292909,2022-09-21_21h00.56.397,vts_reward_expectancy,2022.2.4,MacIntel,111.1111111,Safari,1440,900,,,,,1,1171,,,,,,,,,,,,,,,,,S,132,star,1,0,,,,,,,,,,,,,,,,switch,number,numSwt,j,0.798,Lo,,,,,,5,,,,,,,,high,19,0,19,0,1,,,,,,,,,
292909,2022-09-21_21h00.56.397,vts_reward_expectancy,2022.2.4,MacIntel,111.1111111,Safari,1440,900,,,,,0,1171,,,,,,,,,,,,,,,,,H,139,circle,1,0,,,,,,,,,,,,,,,,repeat,number,numRpt,j,1.361,Hi,,,,,,5,,,,,,,,high,20,0,20,0,1,,,,,,,,,
292909,2022-09-21_21h00.56.397,vts_reward_expectancy,2022.2.4,MacIntel,111.1111111,Safari,1440,900,,,,,1,1172,,,,,,,,,,,,,,,,,U,125,star,1,0,,,,,,,,,,,,,,,,switch,letter,lettSwt,f,1.681,Lo,,,,,,5,,,,,,,,high,21,0,21,0,1,,,,,,,,,
292909,2022-09-21_21h00.56.397,vts_reward_expectancy,2022.2.4,MacIntel,111.1111111,Safari,1440,900,,,,,1,1173,,,,,,,,,,,,,,,,,B,181,circle,1,0,,,,,,,,,,,,,,,,switch,number,numSwt,k,0.511,Hi,,,,,,5,,,,,,,,high,22,0,22,0,1,,,,,,,,,
292909,2022-09-21_21h00.56.397,vts_reward_expectancy,2022.2.4,MacIntel,111.1111111,Safari,1440,900,,,,,1,1174,,,,,,,,,,,,,,,,,W,167,star,1,0,,,,,,,,,,,,,,,,switch,letter,lettSwt,f,0.963,Lo,,,,,,5,,,,,,,,high,23,0,23,0,1,,,,,,,,,
292909,2022-09-21_21h00.56.397,vts_reward_expectancy,2022.2.4,MacIntel,111.1111111,Safari,1440,900,,,,,10,1184,,,,,,,,,,,,,,,,,W,181,circle,1,0,,,,,,,,,,,,,,,,switch,number,numSwt,k,0.511,Hi,,,,,,5,,,,,,,,high,24,0,24,0,1,,,,,,,,,
292909,2022-09-21_21h00.56.397,vts_reward_expectancy,2022.2.4,MacIntel,111.1111111,Safari,1440,900,,,,,1,1185,,,,,,,,,,,,,,,,,Y,146,star,1,0,,,,,,,,,,,,,,,,repeat,number,numRpt,j,0.632,Lo,,,,,,5,,,,,,,,high,25,0,25,0,1,,,,,,,,,
292909,2022-09-21_21h00.56.397,vts_reward_expectancy,2022.2.4,MacIntel,111.1111111,Safari,1440,900,,,,,10,1195,,,,,,,,,,,,,,,,,U,125,star,1,0,,,,,,,,,,,,,,,,switch,letter,lettSwt,f,0.814,Lo,,,,,,5,,,,,,,,high,26,0,26,0,1,,,,,,,,,
292909,2022-09-21_21h00.56.397,vts_reward_expectancy,2022.2.4,MacIntel,111.1111111,Safari,1440,900,,,,,0,1195,,,,,,,,,,,,,,,,,D,132,circle,1,0,,,,,,,,,,,,,,,,repeat,letter,lettRpt,d,0.744,Hi,,,,,,5,,,,,,,,high,27,0,27,0,1,,,,,,,,,
292909,2022-09-21_21h00.56.397,vts_reward_expectancy,2022.2.4,MacIntel,111.1111111,Safari,1440,900,,,,,0,1195,,,,,,,,,,,,,,,,,S,167,circle,1,0,,,,,,,,,,,,,,,,switch,number,numSwt,k,1.58,Hi,,,,,,5,,,,,,,,high,28,0,28,0,1,,,,,,,,,
292909,2022-09-21_21h00.56.397,vts_reward_expectancy,2022.2.4,MacIntel,111.1111111,Safari,1440,900,,,,,1,1196,,,,,,,,,,,,,,,,,F,160,star,1,0,,,,,,,,,,,,,,,,repeat,number,numRpt,k,0.481,Lo,,,,,,5,,,,,,,,high,29,0,29,0,1,,,,,,,,,
292909,2022-09-21_21h00.56.397,vts_reward_expectancy,2022.2.4,MacIntel,111.1111111,Safari,1440,900,,,,,0,1196,,,,,,,,,,,,,,,,,H,139,circle,1,0,,,,,,,,,,,,,,,,switch,letter,lettSwt,d,0.799,Hi,,,,,,5,,,,,,,,high,30,0,30,0,1,,,,,,,,,
292909,2022-09-21_21h00.56.397,vts_reward_expectancy,2022.2.4,MacIntel,111.1111111,Safari,1440,900,,,,,10,1206,,,,,,,,,,,,,,,,,B,174,star,1,0,,,,,,,,,,,,,,,,repeat,letter,lettRpt,d,0.514,Lo,,,,,,5,,,,,,,,high,31,0,31,0,1,,,,,,,,,
292909,2022-09-21_21h00.56.397,vts_reward_expectancy,2022.2.4,MacIntel,111.1111111,Safari,1440,900,,,,,,,,,,,,,,,,,,,,,,,,,,,,,,,,,,,,,,,,,,,,,,,,,,,,,,6,,,,,,,,,,,,,,Press D if a letter was closer to A or F if the letter was closer to z. Then press j if the number was lower than 153 or k if it was higher than 153.,1,,5,1,,2,1440,900
