participant,date,expName,psychopyVersion,OS,frameRate,browser,xResolution,yResolution,key_resp.keys,key_resp.rt,training_resp.keys,training_resp.rt,points_trial,points_cumul,trainBlock,training.thisRepN,training.thisTrialN,training.thisN,training.thisIndex,training.ran,LTriangleOpac,LCircleOpac,LHexagonOpac,LStarOpac,RTriangleOpac,RCircleOpac,RHexagonOpac,RStarOpac,LShape_ID,RShape_ID,curr_topStim,curr_bottStim,curr_shape,acc,E1,target_resp_prac1.keys,pracBlock,task1_prac_trials.thisRepN,task1_prac_trials.thisTrialN,task1_prac_trials.thisN,task1_prac_trials.thisIndex,task1_prac_trials.ran,target_resp_prac1.rt,target_resp_prac2.keys,target_resp_prac2.rt,task2_praac_trials.thisRepN,task2_praac_trials.thisTrialN,task2_praac_trials.thisN,task2_praac_trials.thisIndex,task2_praac_trials.ran,alt,task,condition,target_resp.keys,target_resp.rt,rewCond,vts_practice_trials.thisRepN,vts_practice_trials.thisTrialN,vts_practice_trials.thisN,vts_practice_trials.thisIndex,vts_practice_trials.ran,blockNum,trials_norew.thisRepN,trials_norew.thisTrialN,trials_norew.thisN,trials_norew.thisIndex,trials_norew.ran,key_resp_2.keys,key_resp_2.rt,rewExpect,trials_rew.thisRepN,trials_rew.thisTrialN,trials_rew.thisN,trials_rew.thisIndex,trials_rew.ran,Q1,Q2,Q2_text,Q3,Q4,Q5_text,Q5,xRes,yRes
293968,2022-09-21_13h54.50.679,vts_reward_expectancy,2022.2.4,MacIntel,59.99880002,Chrome,1440,900,,,,,,,,,,,,,,,,,,,,,,,,,,,,,,,,,,,,,,,,,,,,,,,,,,,,,,,,,,,,,,,,,,,,,,,,,,,,
293968,2022-09-21_13h54.50.679,vts_reward_expectancy,2022.2.4,MacIntel,59.99880002,Chrome,1440,900,space,76.1958,,,,,,,,,,,,,,,,,,,,,,,,,,,,,,,,,,,,,,,,,,,,,,,,,,,,,,,,,,,,,,,,,,,,,,,,,,
293968,2022-09-21_13h54.50.679,vts_reward_expectancy,2022.2.4,MacIntel,59.99880002,Chrome,1440,900,,,,,,,,,,,,,,,,,,,,,,,,,,,,,,,,,,,,,,,,,,,,,,,,,,,,,,,,,,,,,,,,,,,,,,,,,,,,
293968,2022-09-21_13h54.50.679,vts_reward_expectancy,2022.2.4,MacIntel,59.99880002,Chrome,1440,900,,,a,2.0881,10,10,0,0,0,0,3,1,0,1,0,0,1,0,0,0,circle,triangle,,,,,,,,,,,,,,,,,,,,,,,,,,,,,,,,,,,,,,,,,,,,,,,,,,,,,,
293968,2022-09-21_13h54.50.679,vts_reward_expectancy,2022.2.4,MacIntel,59.99880002,Chrome,1440,900,,,l,1.0977,1,11,0,0,1,1,0,1,1,0,0,0,0,1,0,0,triangle,circle,,,,,,,,,,,,,,,,,,,,,,,,,,,,,,,,,,,,,,,,,,,,,,,,,,,,,,
293968,2022-09-21_13h54.50.679,vts_reward_expectancy,2022.2.4,MacIntel,59.99880002,Chrome,1440,900,,,a,0.8995,1,12,0,0,2,2,8,1,0,0,1,0,0,0,0,1,hexagon,star,,,,,,,,,,,,,,,,,,,,,,,,,,,,,,,,,,,,,,,,,,,,,,,,,,,,,,
293968,2022-09-21_13h54.50.679,vts_reward_expectancy,2022.2.4,MacIntel,59.99880002,Chrome,1440,900,,,a,1.102,10,22,0,0,3,3,1,1,1,0,0,0,0,0,1,0,triangle,hexagon,,,,,,,,,,,,,,,,,,,,,,,,,,,,,,,,,,,,,,,,,,,,,,,,,,,,,,
293968,2022-09-21_13h54.50.679,vts_reward_expectancy,2022.2.4,MacIntel,59.99880002,Chrome,1440,900,,,a,1.5512,10,32,0,0,4,4,10,1,0,0,0,1,0,1,0,0,star ,circle,,,,,,,,,,,,,,,,,,,,,,,,,,,,,,,,,,,,,,,,,,,,,,,,,,,,,,
293968,2022-09-21_13h54.50.679,vts_reward_expectancy,2022.2.4,MacIntel,59.99880002,Chrome,1440,900,,,l,3.2388,10,42,0,0,5,5,6,1,0,0,1,0,1,0,0,0,hexagon,triangle,,,,,,,,,,,,,,,,,,,,,,,,,,,,,,,,,,,,,,,,,,,,,,,,,,,,,,
293968,2022-09-21_13h54.50.679,vts_reward_expectancy,2022.2.4,MacIntel,59.99880002,Chrome,1440,900,,,a,1.1695,10,52,0,0,6,6,11,1,0,0,0,1,0,0,1,0,star,hexagon,,,,,,,,,,,,,,,,,,,,,,,,,,,,,,,,,,,,,,,,,,,,,,,,,,,,,,
293968,2022-09-21_13h54.50.679,vts_reward_expectancy,2022.2.4,MacIntel,59.99880002,Chrome,1440,900,,,a,3.2546,10,62,0,0,7,7,4,1,0,1,0,0,0,0,1,0,circle,hexagon,,,,,,,,,,,,,,,,,,,,,,,,,,,,,,,,,,,,,,,,,,,,,,,,,,,,,,
293968,2022-09-21_13h54.50.679,vts_reward_expectancy,2022.2.4,MacIntel,59.99880002,Chrome,1440,900,,,l,1.4157,1,63,0,0,8,8,7,1,0,0,1,0,0,1,0,0,hexagon,circle,,,,,,,,,,,,,,,,,,,,,,,,,,,,,,,,,,,,,,,,,,,,,,,,,,,,,,
293968,2022-09-21_13h54.50.679,vts_reward_expectancy,2022.2.4,MacIntel,59.99880002,Chrome,1440,900,,,l,1.6507,10,73,0,0,9,9,5,1,0,1,0,0,0,0,0,1,circle,star,,,,,,,,,,,,,,,,,,,,,,,,,,,,,,,,,,,,,,,,,,,,,,,,,,,,,,
293968,2022-09-21_13h54.50.679,vts_reward_expectancy,2022.2.4,MacIntel,59.99880002,Chrome,1440,900,,,l,1.8086,10,83,0,0,10,10,2,1,1,0,0,0,0,0,0,1,triangle,star,,,,,,,,,,,,,,,,,,,,,,,,,,,,,,,,,,,,,,,,,,,,,,,,,,,,,,
293968,2022-09-21_13h54.50.679,vts_reward_expectancy,2022.2.4,MacIntel,59.99880002,Chrome,1440,900,,,a,1.2562,1,84,0,0,11,11,9,1,0,0,0,1,1,0,0,0,star,triangle,,,,,,,,,,,,,,,,,,,,,,,,,,,,,,,,,,,,,,,,,,,,,,,,,,,,,,
293968,2022-09-21_13h54.50.679,vts_reward_expectancy,2022.2.4,MacIntel,59.99880002,Chrome,1440,900,,,a,2.1875,1,85,0,1,0,12,1,1,1,0,0,0,0,0,1,0,triangle,hexagon,,,,,,,,,,,,,,,,,,,,,,,,,,,,,,,,,,,,,,,,,,,,,,,,,,,,,,
293968,2022-09-21_13h54.50.679,vts_reward_expectancy,2022.2.4,MacIntel,59.99880002,Chrome,1440,900,,,l,1.2473,1,86,0,1,1,13,8,1,0,0,1,0,0,0,0,1,hexagon,star,,,,,,,,,,,,,,,,,,,,,,,,,,,,,,,,,,,,,,,,,,,,,,,,,,,,,,
293968,2022-09-21_13h54.50.679,vts_reward_expectancy,2022.2.4,MacIntel,59.99880002,Chrome,1440,900,,,l,1.4295,10,96,0,1,2,14,5,1,0,1,0,0,0,0,0,1,circle,star,,,,,,,,,,,,,,,,,,,,,,,,,,,,,,,,,,,,,,,,,,,,,,,,,,,,,,
293968,2022-09-21_13h54.50.679,vts_reward_expectancy,2022.2.4,MacIntel,59.99880002,Chrome,1440,900,,,a,4.046,10,106,0,1,3,15,0,1,1,0,0,0,0,1,0,0,triangle,circle,,,,,,,,,,,,,,,,,,,,,,,,,,,,,,,,,,,,,,,,,,,,,,,,,,,,,,
293968,2022-09-21_13h54.50.679,vts_reward_expectancy,2022.2.4,MacIntel,59.99880002,Chrome,1440,900,,,l,0.8356,10,116,0,1,4,16,7,1,0,0,1,0,0,1,0,0,hexagon,circle,,,,,,,,,,,,,,,,,,,,,,,,,,,,,,,,,,,,,,,,,,,,,,,,,,,,,,
293968,2022-09-21_13h54.50.679,vts_reward_expectancy,2022.2.4,MacIntel,59.99880002,Chrome,1440,900,,,l,0.8161,1,117,0,1,5,17,11,1,0,0,0,1,0,0,1,0,star,hexagon,,,,,,,,,,,,,,,,,,,,,,,,,,,,,,,,,,,,,,,,,,,,,,,,,,,,,,
293968,2022-09-21_13h54.50.679,vts_reward_expectancy,2022.2.4,MacIntel,59.99880002,Chrome,1440,900,,,a,0.3466,10,127,0,1,6,18,3,1,0,1,0,0,1,0,0,0,circle,triangle,,,,,,,,,,,,,,,,,,,,,,,,,,,,,,,,,,,,,,,,,,,,,,,,,,,,,,
293968,2022-09-21_13h54.50.679,vts_reward_expectancy,2022.2.4,MacIntel,59.99880002,Chrome,1440,900,,,a,1.0458,10,137,0,1,7,19,9,1,0,0,0,1,1,0,0,0,star,triangle,,,,,,,,,,,,,,,,,,,,,,,,,,,,,,,,,,,,,,,,,,,,,,,,,,,,,,
293968,2022-09-21_13h54.50.679,vts_reward_expectancy,2022.2.4,MacIntel,59.99880002,Chrome,1440,900,,,l,3.0837,10,147,0,1,8,20,6,1,0,0,1,0,1,0,0,0,hexagon,triangle,,,,,,,,,,,,,,,,,,,,,,,,,,,,,,,,,,,,,,,,,,,,,,,,,,,,,,
293968,2022-09-21_13h54.50.679,vts_reward_expectancy,2022.2.4,MacIntel,59.99880002,Chrome,1440,900,,,a,0.9528,1,148,0,1,9,21,2,1,1,0,0,0,0,0,0,1,triangle,star,,,,,,,,,,,,,,,,,,,,,,,,,,,,,,,,,,,,,,,,,,,,,,,,,,,,,,
293968,2022-09-21_13h54.50.679,vts_reward_expectancy,2022.2.4,MacIntel,59.99880002,Chrome,1440,900,,,a,8.7982,1,149,0,1,10,22,10,1,0,0,0,1,0,1,0,0,star ,circle,,,,,,,,,,,,,,,,,,,,,,,,,,,,,,,,,,,,,,,,,,,,,,,,,,,,,,
293968,2022-09-21_13h54.50.679,vts_reward_expectancy,2022.2.4,MacIntel,59.99880002,Chrome,1440,900,,,a,1.584,10,159,0,1,11,23,4,1,0,1,0,0,0,0,1,0,circle,hexagon,,,,,,,,,,,,,,,,,,,,,,,,,,,,,,,,,,,,,,,,,,,,,,,,,,,,,,
293968,2022-09-21_13h54.50.679,vts_reward_expectancy,2022.2.4,MacIntel,59.99880002,Chrome,1440,900,,,l,9.0197,10,169,0,2,0,24,8,1,0,0,1,0,0,0,0,1,hexagon,star,,,,,,,,,,,,,,,,,,,,,,,,,,,,,,,,,,,,,,,,,,,,,,,,,,,,,,
293968,2022-09-21_13h54.50.679,vts_reward_expectancy,2022.2.4,MacIntel,59.99880002,Chrome,1440,900,,,a,1.2532,1,170,0,2,1,25,4,1,0,1,0,0,0,0,1,0,circle,hexagon,,,,,,,,,,,,,,,,,,,,,,,,,,,,,,,,,,,,,,,,,,,,,,,,,,,,,,
293968,2022-09-21_13h54.50.679,vts_reward_expectancy,2022.2.4,MacIntel,59.99880002,Chrome,1440,900,,,a,0.7621,1,171,0,2,2,26,0,1,1,0,0,0,0,1,0,0,triangle,circle,,,,,,,,,,,,,,,,,,,,,,,,,,,,,,,,,,,,,,,,,,,,,,,,,,,,,,
293968,2022-09-21_13h54.50.679,vts_reward_expectancy,2022.2.4,MacIntel,59.99880002,Chrome,1440,900,,,a,0.7685,10,181,0,2,3,27,1,1,1,0,0,0,0,0,1,0,triangle,hexagon,,,,,,,,,,,,,,,,,,,,,,,,,,,,,,,,,,,,,,,,,,,,,,,,,,,,,,
293968,2022-09-21_13h54.50.679,vts_reward_expectancy,2022.2.4,MacIntel,59.99880002,Chrome,1440,900,,,l,0.7562,10,191,0,2,4,28,2,1,1,0,0,0,0,0,0,1,triangle,star,,,,,,,,,,,,,,,,,,,,,,,,,,,,,,,,,,,,,,,,,,,,,,,,,,,,,,
293968,2022-09-21_13h54.50.679,vts_reward_expectancy,2022.2.4,MacIntel,59.99880002,Chrome,1440,900,,,a,1.0237,1,192,0,2,5,29,11,1,0,0,0,1,0,0,1,0,star,hexagon,,,,,,,,,,,,,,,,,,,,,,,,,,,,,,,,,,,,,,,,,,,,,,,,,,,,,,
293968,2022-09-21_13h54.50.679,vts_reward_expectancy,2022.2.4,MacIntel,59.99880002,Chrome,1440,900,,,l,0.9331,1,193,0,2,6,30,7,1,0,0,1,0,0,1,0,0,hexagon,circle,,,,,,,,,,,,,,,,,,,,,,,,,,,,,,,,,,,,,,,,,,,,,,,,,,,,,,
293968,2022-09-21_13h54.50.679,vts_reward_expectancy,2022.2.4,MacIntel,59.99880002,Chrome,1440,900,,,l,5.8037,1,194,0,2,7,31,6,1,0,0,1,0,1,0,0,0,hexagon,triangle,,,,,,,,,,,,,,,,,,,,,,,,,,,,,,,,,,,,,,,,,,,,,,,,,,,,,,
293968,2022-09-21_13h54.50.679,vts_reward_expectancy,2022.2.4,MacIntel,59.99880002,Chrome,1440,900,,,a,1.0818,1,195,0,2,8,32,10,1,0,0,0,1,0,1,0,0,star ,circle,,,,,,,,,,,,,,,,,,,,,,,,,,,,,,,,,,,,,,,,,,,,,,,,,,,,,,
293968,2022-09-21_13h54.50.679,vts_reward_expectancy,2022.2.4,MacIntel,59.99880002,Chrome,1440,900,,,l,1.1176,10,205,0,2,9,33,5,1,0,1,0,0,0,0,0,1,circle,star,,,,,,,,,,,,,,,,,,,,,,,,,,,,,,,,,,,,,,,,,,,,,,,,,,,,,,
293968,2022-09-21_13h54.50.679,vts_reward_expectancy,2022.2.4,MacIntel,59.99880002,Chrome,1440,900,,,a,1.2674,10,215,0,2,10,34,9,1,0,0,0,1,1,0,0,0,star,triangle,,,,,,,,,,,,,,,,,,,,,,,,,,,,,,,,,,,,,,,,,,,,,,,,,,,,,,
293968,2022-09-21_13h54.50.679,vts_reward_expectancy,2022.2.4,MacIntel,59.99880002,Chrome,1440,900,,,a,9.5543,10,225,0,2,11,35,3,1,0,1,0,0,1,0,0,0,circle,triangle,,,,,,,,,,,,,,,,,,,,,,,,,,,,,,,,,,,,,,,,,,,,,,,,,,,,,,
293968,2022-09-21_13h54.50.679,vts_reward_expectancy,2022.2.4,MacIntel,59.99880002,Chrome,1440,900,,,l,2.98,10,235,1,0,0,0,5,1,0,1,0,0,0,0,0,1,circle,star,,,,,,,,,,,,,,,,,,,,,,,,,,,,,,,,,,,,,,,,,,,,,,,,,,,,,,
293968,2022-09-21_13h54.50.679,vts_reward_expectancy,2022.2.4,MacIntel,59.99880002,Chrome,1440,900,,,a,0.7733,10,245,1,0,1,1,7,1,0,0,1,0,0,1,0,0,hexagon,circle,,,,,,,,,,,,,,,,,,,,,,,,,,,,,,,,,,,,,,,,,,,,,,,,,,,,,,
293968,2022-09-21_13h54.50.679,vts_reward_expectancy,2022.2.4,MacIntel,59.99880002,Chrome,1440,900,,,l,0.715,1,246,1,0,2,2,3,1,0,1,0,0,1,0,0,0,circle,triangle,,,,,,,,,,,,,,,,,,,,,,,,,,,,,,,,,,,,,,,,,,,,,,,,,,,,,,
293968,2022-09-21_13h54.50.679,vts_reward_expectancy,2022.2.4,MacIntel,59.99880002,Chrome,1440,900,,,l,1.1349,1,247,1,0,3,3,4,1,0,1,0,0,0,0,1,0,circle,hexagon,,,,,,,,,,,,,,,,,,,,,,,,,,,,,,,,,,,,,,,,,,,,,,,,,,,,,,
293968,2022-09-21_13h54.50.679,vts_reward_expectancy,2022.2.4,MacIntel,59.99880002,Chrome,1440,900,,,a,0.9408,10,257,1,0,4,4,1,1,1,0,0,0,0,0,1,0,triangle,hexagon,,,,,,,,,,,,,,,,,,,,,,,,,,,,,,,,,,,,,,,,,,,,,,,,,,,,,,
293968,2022-09-21_13h54.50.679,vts_reward_expectancy,2022.2.4,MacIntel,59.99880002,Chrome,1440,900,,,l,0.9503,1,258,1,0,5,5,2,1,1,0,0,0,0,0,0,1,triangle,star,,,,,,,,,,,,,,,,,,,,,,,,,,,,,,,,,,,,,,,,,,,,,,,,,,,,,,
293968,2022-09-21_13h54.50.679,vts_reward_expectancy,2022.2.4,MacIntel,59.99880002,Chrome,1440,900,,,a,0.6403,1,259,1,0,6,6,0,1,1,0,0,0,0,1,0,0,triangle,circle,,,,,,,,,,,,,,,,,,,,,,,,,,,,,,,,,,,,,,,,,,,,,,,,,,,,,,
293968,2022-09-21_13h54.50.679,vts_reward_expectancy,2022.2.4,MacIntel,59.99880002,Chrome,1440,900,,,l,0.9196,1,260,1,0,7,7,8,1,0,0,1,0,0,0,0,1,hexagon,star,,,,,,,,,,,,,,,,,,,,,,,,,,,,,,,,,,,,,,,,,,,,,,,,,,,,,,
293968,2022-09-21_13h54.50.679,vts_reward_expectancy,2022.2.4,MacIntel,59.99880002,Chrome,1440,900,,,a,0.7354,1,261,1,0,8,8,6,1,0,0,1,0,1,0,0,0,hexagon,triangle,,,,,,,,,,,,,,,,,,,,,,,,,,,,,,,,,,,,,,,,,,,,,,,,,,,,,,
293968,2022-09-21_13h54.50.679,vts_reward_expectancy,2022.2.4,MacIntel,59.99880002,Chrome,1440,900,,,a,1.0357,1,262,1,0,9,9,10,1,0,0,0,1,0,1,0,0,star ,circle,,,,,,,,,,,,,,,,,,,,,,,,,,,,,,,,,,,,,,,,,,,,,,,,,,,,,,
293968,2022-09-21_13h54.50.679,vts_reward_expectancy,2022.2.4,MacIntel,59.99880002,Chrome,1440,900,,,l,0.7696,10,272,1,0,10,10,11,1,0,0,0,1,0,0,1,0,star,hexagon,,,,,,,,,,,,,,,,,,,,,,,,,,,,,,,,,,,,,,,,,,,,,,,,,,,,,,
293968,2022-09-21_13h54.50.679,vts_reward_expectancy,2022.2.4,MacIntel,59.99880002,Chrome,1440,900,,,l,0.7516,10,282,1,0,11,11,9,1,0,0,0,1,1,0,0,0,star,triangle,,,,,,,,,,,,,,,,,,,,,,,,,,,,,,,,,,,,,,,,,,,,,,,,,,,,,,
293968,2022-09-21_13h54.50.679,vts_reward_expectancy,2022.2.4,MacIntel,59.99880002,Chrome,1440,900,,,a,0.4912,1,283,1,1,0,12,8,1,0,0,1,0,0,0,0,1,hexagon,star,,,,,,,,,,,,,,,,,,,,,,,,,,,,,,,,,,,,,,,,,,,,,,,,,,,,,,
293968,2022-09-21_13h54.50.679,vts_reward_expectancy,2022.2.4,MacIntel,59.99880002,Chrome,1440,900,,,l,0.3182,1,284,1,1,1,13,5,1,0,1,0,0,0,0,0,1,circle,star,,,,,,,,,,,,,,,,,,,,,,,,,,,,,,,,,,,,,,,,,,,,,,,,,,,,,,
293968,2022-09-21_13h54.50.679,vts_reward_expectancy,2022.2.4,MacIntel,59.99880002,Chrome,1440,900,,,a,0.718,10,294,1,1,2,14,2,1,1,0,0,0,0,0,0,1,triangle,star,,,,,,,,,,,,,,,,,,,,,,,,,,,,,,,,,,,,,,,,,,,,,,,,,,,,,,
293968,2022-09-21_13h54.50.679,vts_reward_expectancy,2022.2.4,MacIntel,59.99880002,Chrome,1440,900,,,l,0.8931,10,304,1,1,3,15,3,1,0,1,0,0,1,0,0,0,circle,triangle,,,,,,,,,,,,,,,,,,,,,,,,,,,,,,,,,,,,,,,,,,,,,,,,,,,,,,
293968,2022-09-21_13h54.50.679,vts_reward_expectancy,2022.2.4,MacIntel,59.99880002,Chrome,1440,900,,,l,0.9182,1,305,1,1,4,16,11,1,0,0,0,1,0,0,1,0,star,hexagon,,,,,,,,,,,,,,,,,,,,,,,,,,,,,,,,,,,,,,,,,,,,,,,,,,,,,,
293968,2022-09-21_13h54.50.679,vts_reward_expectancy,2022.2.4,MacIntel,59.99880002,Chrome,1440,900,,,a,0.6483,10,315,1,1,5,17,0,1,1,0,0,0,0,1,0,0,triangle,circle,,,,,,,,,,,,,,,,,,,,,,,,,,,,,,,,,,,,,,,,,,,,,,,,,,,,,,
293968,2022-09-21_13h54.50.679,vts_reward_expectancy,2022.2.4,MacIntel,59.99880002,Chrome,1440,900,,,l,0.9078,10,325,1,1,6,18,6,1,0,0,1,0,1,0,0,0,hexagon,triangle,,,,,,,,,,,,,,,,,,,,,,,,,,,,,,,,,,,,,,,,,,,,,,,,,,,,,,
293968,2022-09-21_13h54.50.679,vts_reward_expectancy,2022.2.4,MacIntel,59.99880002,Chrome,1440,900,,,l,1.1704,1,326,1,1,7,19,4,1,0,1,0,0,0,0,1,0,circle,hexagon,,,,,,,,,,,,,,,,,,,,,,,,,,,,,,,,,,,,,,,,,,,,,,,,,,,,,,
293968,2022-09-21_13h54.50.679,vts_reward_expectancy,2022.2.4,MacIntel,59.99880002,Chrome,1440,900,,,l,1.3033,1,327,1,1,8,20,10,1,0,0,0,1,0,1,0,0,star ,circle,,,,,,,,,,,,,,,,,,,,,,,,,,,,,,,,,,,,,,,,,,,,,,,,,,,,,,
293968,2022-09-21_13h54.50.679,vts_reward_expectancy,2022.2.4,MacIntel,59.99880002,Chrome,1440,900,,,a,1.0004,10,337,1,1,9,21,1,1,1,0,0,0,0,0,1,0,triangle,hexagon,,,,,,,,,,,,,,,,,,,,,,,,,,,,,,,,,,,,,,,,,,,,,,,,,,,,,,
293968,2022-09-21_13h54.50.679,vts_reward_expectancy,2022.2.4,MacIntel,59.99880002,Chrome,1440,900,,,a,2.2399,1,338,1,1,10,22,7,1,0,0,1,0,0,1,0,0,hexagon,circle,,,,,,,,,,,,,,,,,,,,,,,,,,,,,,,,,,,,,,,,,,,,,,,,,,,,,,
293968,2022-09-21_13h54.50.679,vts_reward_expectancy,2022.2.4,MacIntel,59.99880002,Chrome,1440,900,,,l,0.8002,10,348,1,1,11,23,9,1,0,0,0,1,1,0,0,0,star,triangle,,,,,,,,,,,,,,,,,,,,,,,,,,,,,,,,,,,,,,,,,,,,,,,,,,,,,,
293968,2022-09-21_13h54.50.679,vts_reward_expectancy,2022.2.4,MacIntel,59.99880002,Chrome,1440,900,,,l,0.905,1,349,1,2,0,24,5,1,0,1,0,0,0,0,0,1,circle,star,,,,,,,,,,,,,,,,,,,,,,,,,,,,,,,,,,,,,,,,,,,,,,,,,,,,,,
293968,2022-09-21_13h54.50.679,vts_reward_expectancy,2022.2.4,MacIntel,59.99880002,Chrome,1440,900,,,a,0.7475,10,359,1,2,1,25,3,1,0,1,0,0,1,0,0,0,circle,triangle,,,,,,,,,,,,,,,,,,,,,,,,,,,,,,,,,,,,,,,,,,,,,,,,,,,,,,
293968,2022-09-21_13h54.50.679,vts_reward_expectancy,2022.2.4,MacIntel,59.99880002,Chrome,1440,900,,,a,0.6086,10,369,1,2,2,26,0,1,1,0,0,0,0,1,0,0,triangle,circle,,,,,,,,,,,,,,,,,,,,,,,,,,,,,,,,,,,,,,,,,,,,,,,,,,,,,,
293968,2022-09-21_13h54.50.679,vts_reward_expectancy,2022.2.4,MacIntel,59.99880002,Chrome,1440,900,,,l,0.7158,10,379,1,2,3,27,2,1,1,0,0,0,0,0,0,1,triangle,star,,,,,,,,,,,,,,,,,,,,,,,,,,,,,,,,,,,,,,,,,,,,,,,,,,,,,,
293968,2022-09-21_13h54.50.679,vts_reward_expectancy,2022.2.4,MacIntel,59.99880002,Chrome,1440,900,,,a,0.6345,10,389,1,2,4,28,10,1,0,0,0,1,0,1,0,0,star ,circle,,,,,,,,,,,,,,,,,,,,,,,,,,,,,,,,,,,,,,,,,,,,,,,,,,,,,,
293968,2022-09-21_13h54.50.679,vts_reward_expectancy,2022.2.4,MacIntel,59.99880002,Chrome,1440,900,,,l,0.5192,10,399,1,2,5,29,7,1,0,0,1,0,0,1,0,0,hexagon,circle,,,,,,,,,,,,,,,,,,,,,,,,,,,,,,,,,,,,,,,,,,,,,,,,,,,,,,
293968,2022-09-21_13h54.50.679,vts_reward_expectancy,2022.2.4,MacIntel,59.99880002,Chrome,1440,900,,,l,0.7207,1,400,1,2,6,30,9,1,0,0,0,1,1,0,0,0,star,triangle,,,,,,,,,,,,,,,,,,,,,,,,,,,,,,,,,,,,,,,,,,,,,,,,,,,,,,
293968,2022-09-21_13h54.50.679,vts_reward_expectancy,2022.2.4,MacIntel,59.99880002,Chrome,1440,900,,,a,0.7328,10,410,1,2,7,31,1,1,1,0,0,0,0,0,1,0,triangle,hexagon,,,,,,,,,,,,,,,,,,,,,,,,,,,,,,,,,,,,,,,,,,,,,,,,,,,,,,
293968,2022-09-21_13h54.50.679,vts_reward_expectancy,2022.2.4,MacIntel,59.99880002,Chrome,1440,900,,,a,0.6669,10,420,1,2,8,32,11,1,0,0,0,1,0,0,1,0,star,hexagon,,,,,,,,,,,,,,,,,,,,,,,,,,,,,,,,,,,,,,,,,,,,,,,,,,,,,,
293968,2022-09-21_13h54.50.679,vts_reward_expectancy,2022.2.4,MacIntel,59.99880002,Chrome,1440,900,,,l,0.9118,1,421,1,2,9,33,4,1,0,1,0,0,0,0,1,0,circle,hexagon,,,,,,,,,,,,,,,,,,,,,,,,,,,,,,,,,,,,,,,,,,,,,,,,,,,,,,
293968,2022-09-21_13h54.50.679,vts_reward_expectancy,2022.2.4,MacIntel,59.99880002,Chrome,1440,900,,,a,0.6349,1,422,1,2,10,34,6,1,0,0,1,0,1,0,0,0,hexagon,triangle,,,,,,,,,,,,,,,,,,,,,,,,,,,,,,,,,,,,,,,,,,,,,,,,,,,,,,
293968,2022-09-21_13h54.50.679,vts_reward_expectancy,2022.2.4,MacIntel,59.99880002,Chrome,1440,900,,,l,1.0656,1,423,1,2,11,35,8,1,0,0,1,0,0,0,0,1,hexagon,star,,,,,,,,,,,,,,,,,,,,,,,,,,,,,,,,,,,,,,,,,,,,,,,,,,,,,,
293968,2022-09-21_13h54.50.679,vts_reward_expectancy,2022.2.4,MacIntel,59.99880002,Chrome,1440,900,,,a,1.237,1,424,2,0,0,0,0,1,1,0,0,0,0,1,0,0,triangle,circle,,,,,,,,,,,,,,,,,,,,,,,,,,,,,,,,,,,,,,,,,,,,,,,,,,,,,,
293968,2022-09-21_13h54.50.679,vts_reward_expectancy,2022.2.4,MacIntel,59.99880002,Chrome,1440,900,,,a,1.088,10,434,2,0,1,1,2,1,1,0,0,0,0,0,0,1,triangle,star,,,,,,,,,,,,,,,,,,,,,,,,,,,,,,,,,,,,,,,,,,,,,,,,,,,,,,
293968,2022-09-21_13h54.50.679,vts_reward_expectancy,2022.2.4,MacIntel,59.99880002,Chrome,1440,900,,,l,0.5336,10,444,2,0,2,2,6,1,0,0,1,0,1,0,0,0,hexagon,triangle,,,,,,,,,,,,,,,,,,,,,,,,,,,,,,,,,,,,,,,,,,,,,,,,,,,,,,
293968,2022-09-21_13h54.50.679,vts_reward_expectancy,2022.2.4,MacIntel,59.99880002,Chrome,1440,900,,,a,1.1501,1,445,2,0,3,3,3,1,0,1,0,0,1,0,0,0,circle,triangle,,,,,,,,,,,,,,,,,,,,,,,,,,,,,,,,,,,,,,,,,,,,,,,,,,,,,,
293968,2022-09-21_13h54.50.679,vts_reward_expectancy,2022.2.4,MacIntel,59.99880002,Chrome,1440,900,,,l,0.7166,10,455,2,0,4,4,8,1,0,0,1,0,0,0,0,1,hexagon,star,,,,,,,,,,,,,,,,,,,,,,,,,,,,,,,,,,,,,,,,,,,,,,,,,,,,,,
293968,2022-09-21_13h54.50.679,vts_reward_expectancy,2022.2.4,MacIntel,59.99880002,Chrome,1440,900,,,a,14.6689,10,465,2,0,5,5,4,1,0,1,0,0,0,0,1,0,circle,hexagon,,,,,,,,,,,,,,,,,,,,,,,,,,,,,,,,,,,,,,,,,,,,,,,,,,,,,,
293968,2022-09-21_13h54.50.679,vts_reward_expectancy,2022.2.4,MacIntel,59.99880002,Chrome,1440,900,,,l,0.9504,1,466,2,0,6,6,1,1,1,0,0,0,0,0,1,0,triangle,hexagon,,,,,,,,,,,,,,,,,,,,,,,,,,,,,,,,,,,,,,,,,,,,,,,,,,,,,,
293968,2022-09-21_13h54.50.679,vts_reward_expectancy,2022.2.4,MacIntel,59.99880002,Chrome,1440,900,,,l,8.3696,10,476,2,0,7,7,9,1,0,0,0,1,1,0,0,0,star,triangle,,,,,,,,,,,,,,,,,,,,,,,,,,,,,,,,,,,,,,,,,,,,,,,,,,,,,,
293968,2022-09-21_13h54.50.679,vts_reward_expectancy,2022.2.4,MacIntel,59.99880002,Chrome,1440,900,,,a,0.5885,1,477,2,0,8,8,7,1,0,0,1,0,0,1,0,0,hexagon,circle,,,,,,,,,,,,,,,,,,,,,,,,,,,,,,,,,,,,,,,,,,,,,,,,,,,,,,
293968,2022-09-21_13h54.50.679,vts_reward_expectancy,2022.2.4,MacIntel,59.99880002,Chrome,1440,900,,,l,0.4702,1,478,2,0,9,9,10,1,0,0,0,1,0,1,0,0,star ,circle,,,,,,,,,,,,,,,,,,,,,,,,,,,,,,,,,,,,,,,,,,,,,,,,,,,,,,
293968,2022-09-21_13h54.50.679,vts_reward_expectancy,2022.2.4,MacIntel,59.99880002,Chrome,1440,900,,,a,0.6857,10,488,2,0,10,10,11,1,0,0,0,1,0,0,1,0,star,hexagon,,,,,,,,,,,,,,,,,,,,,,,,,,,,,,,,,,,,,,,,,,,,,,,,,,,,,,
293968,2022-09-21_13h54.50.679,vts_reward_expectancy,2022.2.4,MacIntel,59.99880002,Chrome,1440,900,,,l,0.697,10,498,2,0,11,11,5,1,0,1,0,0,0,0,0,1,circle,star,,,,,,,,,,,,,,,,,,,,,,,,,,,,,,,,,,,,,,,,,,,,,,,,,,,,,,
293968,2022-09-21_13h54.50.679,vts_reward_expectancy,2022.2.4,MacIntel,59.99880002,Chrome,1440,900,,,a,1.1529,10,508,2,1,0,12,9,1,0,0,0,1,1,0,0,0,star,triangle,,,,,,,,,,,,,,,,,,,,,,,,,,,,,,,,,,,,,,,,,,,,,,,,,,,,,,
293968,2022-09-21_13h54.50.679,vts_reward_expectancy,2022.2.4,MacIntel,59.99880002,Chrome,1440,900,,,l,0.5859,1,509,2,1,1,13,6,1,0,0,1,0,1,0,0,0,hexagon,triangle,,,,,,,,,,,,,,,,,,,,,,,,,,,,,,,,,,,,,,,,,,,,,,,,,,,,,,
293968,2022-09-21_13h54.50.679,vts_reward_expectancy,2022.2.4,MacIntel,59.99880002,Chrome,1440,900,,,a,0.7463,10,519,2,1,2,14,3,1,0,1,0,0,1,0,0,0,circle,triangle,,,,,,,,,,,,,,,,,,,,,,,,,,,,,,,,,,,,,,,,,,,,,,,,,,,,,,
293968,2022-09-21_13h54.50.679,vts_reward_expectancy,2022.2.4,MacIntel,59.99880002,Chrome,1440,900,,,l,0.8861,10,529,2,1,3,15,8,1,0,0,1,0,0,0,0,1,hexagon,star,,,,,,,,,,,,,,,,,,,,,,,,,,,,,,,,,,,,,,,,,,,,,,,,,,,,,,
293968,2022-09-21_13h54.50.679,vts_reward_expectancy,2022.2.4,MacIntel,59.99880002,Chrome,1440,900,,,a,0.7334,10,539,2,1,4,16,0,1,1,0,0,0,0,1,0,0,triangle,circle,,,,,,,,,,,,,,,,,,,,,,,,,,,,,,,,,,,,,,,,,,,,,,,,,,,,,,
293968,2022-09-21_13h54.50.679,vts_reward_expectancy,2022.2.4,MacIntel,59.99880002,Chrome,1440,900,,,l,0.6861,1,540,2,1,5,17,11,1,0,0,0,1,0,0,1,0,star,hexagon,,,,,,,,,,,,,,,,,,,,,,,,,,,,,,,,,,,,,,,,,,,,,,,,,,,,,,
293968,2022-09-21_13h54.50.679,vts_reward_expectancy,2022.2.4,MacIntel,59.99880002,Chrome,1440,900,,,l,0.7979,1,541,2,1,6,18,5,1,0,1,0,0,0,0,0,1,circle,star,,,,,,,,,,,,,,,,,,,,,,,,,,,,,,,,,,,,,,,,,,,,,,,,,,,,,,
293968,2022-09-21_13h54.50.679,vts_reward_expectancy,2022.2.4,MacIntel,59.99880002,Chrome,1440,900,,,a,0.6291,1,542,2,1,7,19,10,1,0,0,0,1,0,1,0,0,star ,circle,,,,,,,,,,,,,,,,,,,,,,,,,,,,,,,,,,,,,,,,,,,,,,,,,,,,,,
293968,2022-09-21_13h54.50.679,vts_reward_expectancy,2022.2.4,MacIntel,59.99880002,Chrome,1440,900,,,l,0.6098,1,543,2,1,8,20,1,1,1,0,0,0,0,0,1,0,triangle,hexagon,,,,,,,,,,,,,,,,,,,,,,,,,,,,,,,,,,,,,,,,,,,,,,,,,,,,,,
293968,2022-09-21_13h54.50.679,vts_reward_expectancy,2022.2.4,MacIntel,59.99880002,Chrome,1440,900,,,a,0.5017,10,553,2,1,9,21,2,1,1,0,0,0,0,0,0,1,triangle,star,,,,,,,,,,,,,,,,,,,,,,,,,,,,,,,,,,,,,,,,,,,,,,,,,,,,,,
293968,2022-09-21_13h54.50.679,vts_reward_expectancy,2022.2.4,MacIntel,59.99880002,Chrome,1440,900,,,l,0.554,1,554,2,1,10,22,7,1,0,0,1,0,0,1,0,0,hexagon,circle,,,,,,,,,,,,,,,,,,,,,,,,,,,,,,,,,,,,,,,,,,,,,,,,,,,,,,
293968,2022-09-21_13h54.50.679,vts_reward_expectancy,2022.2.4,MacIntel,59.99880002,Chrome,1440,900,,,a,0.769,10,564,2,1,11,23,4,1,0,1,0,0,0,0,1,0,circle,hexagon,,,,,,,,,,,,,,,,,,,,,,,,,,,,,,,,,,,,,,,,,,,,,,,,,,,,,,
293968,2022-09-21_13h54.50.679,vts_reward_expectancy,2022.2.4,MacIntel,59.99880002,Chrome,1440,900,,,l,0.9508,10,574,2,2,0,24,5,1,0,1,0,0,0,0,0,1,circle,star,,,,,,,,,,,,,,,,,,,,,,,,,,,,,,,,,,,,,,,,,,,,,,,,,,,,,,
293968,2022-09-21_13h54.50.679,vts_reward_expectancy,2022.2.4,MacIntel,59.99880002,Chrome,1440,900,,,a,2.6566,10,584,2,2,1,25,0,1,1,0,0,0,0,1,0,0,triangle,circle,,,,,,,,,,,,,,,,,,,,,,,,,,,,,,,,,,,,,,,,,,,,,,,,,,,,,,
293968,2022-09-21_13h54.50.679,vts_reward_expectancy,2022.2.4,MacIntel,59.99880002,Chrome,1440,900,,,l,3.6831,1,585,2,2,2,26,9,1,0,0,0,1,1,0,0,0,star,triangle,,,,,,,,,,,,,,,,,,,,,,,,,,,,,,,,,,,,,,,,,,,,,,,,,,,,,,
293968,2022-09-21_13h54.50.679,vts_reward_expectancy,2022.2.4,MacIntel,59.99880002,Chrome,1440,900,,,a,2.1666,10,595,2,2,3,27,1,1,1,0,0,0,0,0,1,0,triangle,hexagon,,,,,,,,,,,,,,,,,,,,,,,,,,,,,,,,,,,,,,,,,,,,,,,,,,,,,,
293968,2022-09-21_13h54.50.679,vts_reward_expectancy,2022.2.4,MacIntel,59.99880002,Chrome,1440,900,,,l,0.7345,1,596,2,2,4,28,11,1,0,0,0,1,0,0,1,0,star,hexagon,,,,,,,,,,,,,,,,,,,,,,,,,,,,,,,,,,,,,,,,,,,,,,,,,,,,,,
293968,2022-09-21_13h54.50.679,vts_reward_expectancy,2022.2.4,MacIntel,59.99880002,Chrome,1440,900,,,a,1.3147,10,606,2,2,5,29,7,1,0,0,1,0,0,1,0,0,hexagon,circle,,,,,,,,,,,,,,,,,,,,,,,,,,,,,,,,,,,,,,,,,,,,,,,,,,,,,,
293968,2022-09-21_13h54.50.679,vts_reward_expectancy,2022.2.4,MacIntel,59.99880002,Chrome,1440,900,,,l,0.5829,1,607,2,2,6,30,6,1,0,0,1,0,1,0,0,0,hexagon,triangle,,,,,,,,,,,,,,,,,,,,,,,,,,,,,,,,,,,,,,,,,,,,,,,,,,,,,,
293968,2022-09-21_13h54.50.679,vts_reward_expectancy,2022.2.4,MacIntel,59.99880002,Chrome,1440,900,,,l,0.6673,10,617,2,2,7,31,2,1,1,0,0,0,0,0,0,1,triangle,star,,,,,,,,,,,,,,,,,,,,,,,,,,,,,,,,,,,,,,,,,,,,,,,,,,,,,,
293968,2022-09-21_13h54.50.679,vts_reward_expectancy,2022.2.4,MacIntel,59.99880002,Chrome,1440,900,,,a,0.4166,10,627,2,2,8,32,4,1,0,1,0,0,0,0,1,0,circle,hexagon,,,,,,,,,,,,,,,,,,,,,,,,,,,,,,,,,,,,,,,,,,,,,,,,,,,,,,
293968,2022-09-21_13h54.50.679,vts_reward_expectancy,2022.2.4,MacIntel,59.99880002,Chrome,1440,900,,,l,0.4929,10,637,2,2,9,33,3,1,0,1,0,0,1,0,0,0,circle,triangle,,,,,,,,,,,,,,,,,,,,,,,,,,,,,,,,,,,,,,,,,,,,,,,,,,,,,,
293968,2022-09-21_13h54.50.679,vts_reward_expectancy,2022.2.4,MacIntel,59.99880002,Chrome,1440,900,,,l,0.5719,10,647,2,2,10,34,8,1,0,0,1,0,0,0,0,1,hexagon,star,,,,,,,,,,,,,,,,,,,,,,,,,,,,,,,,,,,,,,,,,,,,,,,,,,,,,,
293968,2022-09-21_13h54.50.679,vts_reward_expectancy,2022.2.4,MacIntel,59.99880002,Chrome,1440,900,,,l,0.3403,1,648,2,2,11,35,10,1,0,0,0,1,0,1,0,0,star ,circle,,,,,,,,,,,,,,,,,,,,,,,,,,,,,,,,,,,,,,,,,,,,,,,,,,,,,,
293968,2022-09-21_13h54.50.679,vts_reward_expectancy,2022.2.4,MacIntel,59.99880002,Chrome,1440,900,,,,,,,,,,,,,,,,,,,,,,,139,U,triangle,0,0,,0,0,0,0,0,1,,,,,,,,,,,,,,,,,,,,,,,,,,,,,,,,,,,,,,,,,,
293968,2022-09-21_13h54.50.679,vts_reward_expectancy,2022.2.4,MacIntel,59.99880002,Chrome,1440,900,,,,,,,,,,,,,,,,,,,,,,,132,S,circle,0,1,f,0,1,0,1,0,1,1.2364,,,,,,,,,,,,,,,,,,,,,,,,,,,,,,,,,,,,,,,,,
293968,2022-09-21_13h54.50.679,vts_reward_expectancy,2022.2.4,MacIntel,59.99880002,Chrome,1440,900,,,,,,,,,,,,,,,,,,,,,,,146,H,hexagon,1,1,d,0,2,0,2,0,1,1.1619,,,,,,,,,,,,,,,,,,,,,,,,,,,,,,,,,,,,,,,,,
293968,2022-09-21_13h54.50.679,vts_reward_expectancy,2022.2.4,MacIntel,59.99880002,Chrome,1440,900,,,,,,,,,,,,,,,,,,,,,,,167,B,star,1,0,f,0,3,0,3,0,1,0.8956,,,,,,,,,,,,,,,,,,,,,,,,,,,,,,,,,,,,,,,,,
293968,2022-09-21_13h54.50.679,vts_reward_expectancy,2022.2.4,MacIntel,59.99880002,Chrome,1440,900,,,,,,,,,,,,,,,,,,,,,,,181,Y,triangle,1,0,f,0,4,0,4,0,1,0.9009,,,,,,,,,,,,,,,,,,,,,,,,,,,,,,,,,,,,,,,,,
293968,2022-09-21_13h54.50.679,vts_reward_expectancy,2022.2.4,MacIntel,59.99880002,Chrome,1440,900,,,,,,,,,,,,,,,,,,,,,,,125,D,circle,1,0,d,0,5,0,5,0,1,1.322,,,,,,,,,,,,,,,,,,,,,,,,,,,,,,,,,,,,,,,,,
293968,2022-09-21_13h54.50.679,vts_reward_expectancy,2022.2.4,MacIntel,59.99880002,Chrome,1440,900,,,,,,,,,,,,,,,,,,,,,,,160,F,hexagon,1,0,f,0,6,0,6,0,1,0.8604,,,,,,,,,,,,,,,,,,,,,,,,,,,,,,,,,,,,,,,,,
293968,2022-09-21_13h54.50.679,vts_reward_expectancy,2022.2.4,MacIntel,59.99880002,Chrome,1440,900,,,,,,,,,,,,,,,,,,,,,,,174,W,star,1,0,f,0,7,0,7,0,1,0.7801,,,,,,,,,,,,,,,,,,,,,,,,,,,,,,,,,,,,,,,,,
293968,2022-09-21_13h54.50.679,vts_reward_expectancy,2022.2.4,MacIntel,59.99880002,Chrome,1440,900,,,,,,,,,,,,,,,,,,,,,,,139,U,circle,1,0,d,0,8,0,8,0,1,1.1518,,,,,,,,,,,,,,,,,,,,,,,,,,,,,,,,,,,,,,,,,
293968,2022-09-21_13h54.50.679,vts_reward_expectancy,2022.2.4,MacIntel,59.99880002,Chrome,1440,900,,,,,,,,,,,,,,,,,,,,,,,132,S,hexagon,1,0,d,0,9,0,9,0,1,0.7305,,,,,,,,,,,,,,,,,,,,,,,,,,,,,,,,,,,,,,,,,
293968,2022-09-21_13h54.50.679,vts_reward_expectancy,2022.2.4,MacIntel,59.99880002,Chrome,1440,900,,,,,,,,,,,,,,,,,,,,,,,132,U,circle,1,0,d,1,0,0,0,0,1,1.2158,,,,,,,,,,,,,,,,,,,,,,,,,,,,,,,,,,,,,,,,,
293968,2022-09-21_13h54.50.679,vts_reward_expectancy,2022.2.4,MacIntel,59.99880002,Chrome,1440,900,,,,,,,,,,,,,,,,,,,,,,,181,B,star,1,0,f,1,1,0,1,0,1,0.7018,,,,,,,,,,,,,,,,,,,,,,,,,,,,,,,,,,,,,,,,,
293968,2022-09-21_13h54.50.679,vts_reward_expectancy,2022.2.4,MacIntel,59.99880002,Chrome,1440,900,,,,,,,,,,,,,,,,,,,,,,,125,S,hexagon,1,0,d,1,2,0,2,0,1,0.5962,,,,,,,,,,,,,,,,,,,,,,,,,,,,,,,,,,,,,,,,,
293968,2022-09-21_13h54.50.679,vts_reward_expectancy,2022.2.4,MacIntel,59.99880002,Chrome,1440,900,,,,,,,,,,,,,,,,,,,,,,,146,D,triangle,1,0,d,1,3,0,3,0,1,0.8677,,,,,,,,,,,,,,,,,,,,,,,,,,,,,,,,,,,,,,,,,
293968,2022-09-21_13h54.50.679,vts_reward_expectancy,2022.2.4,MacIntel,59.99880002,Chrome,1440,900,,,,,,,,,,,,,,,,,,,,,,,167,Y,circle,1,0,f,1,4,0,4,0,1,1.2608,,,,,,,,,,,,,,,,,,,,,,,,,,,,,,,,,,,,,,,,,
293968,2022-09-21_13h54.50.679,vts_reward_expectancy,2022.2.4,MacIntel,59.99880002,Chrome,1440,900,,,,,,,,,,,,,,,,,,,,,,,174,W,star,1,0,f,1,5,0,5,0,1,0.8618,,,,,,,,,,,,,,,,,,,,,,,,,,,,,,,,,,,,,,,,,
293968,2022-09-21_13h54.50.679,vts_reward_expectancy,2022.2.4,MacIntel,59.99880002,Chrome,1440,900,,,,,,,,,,,,,,,,,,,,,,,160,H,hexagon,1,0,f,1,6,0,6,0,1,0.9285,,,,,,,,,,,,,,,,,,,,,,,,,,,,,,,,,,,,,,,,,
293968,2022-09-21_13h54.50.679,vts_reward_expectancy,2022.2.4,MacIntel,59.99880002,Chrome,1440,900,,,,,,,,,,,,,,,,,,,,,,,139,F,triangle,1,0,d,1,7,0,7,0,1,1.3127,,,,,,,,,,,,,,,,,,,,,,,,,,,,,,,,,,,,,,,,,
293968,2022-09-21_13h54.50.679,vts_reward_expectancy,2022.2.4,MacIntel,59.99880002,Chrome,1440,900,,,,,,,,,,,,,,,,,,,,,,,132,U,circle,1,0,d,1,8,0,8,0,1,0.8305,,,,,,,,,,,,,,,,,,,,,,,,,,,,,,,,,,,,,,,,,
293968,2022-09-21_13h54.50.679,vts_reward_expectancy,2022.2.4,MacIntel,59.99880002,Chrome,1440,900,,,,,,,,,,,,,,,,,,,,,,,181,B,hexagon,1,0,f,1,9,0,9,0,1,1.1138,,,,,,,,,,,,,,,,,,,,,,,,,,,,,,,,,,,,,,,,,
293968,2022-09-21_13h54.50.679,vts_reward_expectancy,2022.2.4,MacIntel,59.99880002,Chrome,1440,900,,,,,,,,,,,,,,,,,,,,,,,132,D,circle,1,0,,2,,,,,,,j,2.0311,0,0,0,0,1,,,,,,,,,,,,,,,,,,,,,,,,,,,,,,,,,,
293968,2022-09-21_13h54.50.679,vts_reward_expectancy,2022.2.4,MacIntel,59.99880002,Chrome,1440,900,,,,,,,,,,,,,,,,,,,,,,,160,B,star,1,0,,2,,,,,,,j,0.9305,1,0,1,0,1,,,,,,,,,,,,,,,,,,,,,,,,,,,,,,,,,,
293968,2022-09-21_13h54.50.679,vts_reward_expectancy,2022.2.4,MacIntel,59.99880002,Chrome,1440,900,,,,,,,,,,,,,,,,,,,,,,,139,F,triangle,1,0,,2,,,,,,,j,1.6471,2,0,2,0,1,,,,,,,,,,,,,,,,,,,,,,,,,,,,,,,,,,
293968,2022-09-21_13h54.50.679,vts_reward_expectancy,2022.2.4,MacIntel,59.99880002,Chrome,1440,900,,,,,,,,,,,,,,,,,,,,,,,167,H,hexagon,1,0,,2,,,,,,,j,1.328,3,0,3,0,1,,,,,,,,,,,,,,,,,,,,,,,,,,,,,,,,,,
293968,2022-09-21_13h54.50.679,vts_reward_expectancy,2022.2.4,MacIntel,59.99880002,Chrome,1440,900,,,,,,,,,,,,,,,,,,,,,,,146,U,circle,1,0,,2,,,,,,,k,0.7858,4,0,4,0,1,,,,,,,,,,,,,,,,,,,,,,,,,,,,,,,,,,
293968,2022-09-21_13h54.50.679,vts_reward_expectancy,2022.2.4,MacIntel,59.99880002,Chrome,1440,900,,,,,,,,,,,,,,,,,,,,,,,174,S,star,1,0,,2,,,,,,,k,0.6967,5,0,5,0,1,,,,,,,,,,,,,,,,,,,,,,,,,,,,,,,,,,
293968,2022-09-21_13h54.50.679,vts_reward_expectancy,2022.2.4,MacIntel,59.99880002,Chrome,1440,900,,,,,,,,,,,,,,,,,,,,,,,125,Y,triangle,1,0,,2,,,,,,,k,0.9185,6,0,6,0,1,,,,,,,,,,,,,,,,,,,,,,,,,,,,,,,,,,
293968,2022-09-21_13h54.50.679,vts_reward_expectancy,2022.2.4,MacIntel,59.99880002,Chrome,1440,900,,,,,,,,,,,,,,,,,,,,,,,181,W,hexagon,1,0,,2,,,,,,,k,0.713,7,0,7,0,1,,,,,,,,,,,,,,,,,,,,,,,,,,,,,,,,,,
293968,2022-09-21_13h54.50.679,vts_reward_expectancy,2022.2.4,MacIntel,59.99880002,Chrome,1440,900,,,,,,,,,,,,,,,,,,,,,,,132,D,triangle,1,0,,2,,,,,,,j,0.7598,8,0,8,0,1,,,,,,,,,,,,,,,,,,,,,,,,,,,,,,,,,,
293968,2022-09-21_13h54.50.679,vts_reward_expectancy,2022.2.4,MacIntel,59.99880002,Chrome,1440,900,,,,,,,,,,,,,,,,,,,,,,,160,B,hexagon,1,0,,2,,,,,,,j,0.6647,9,0,9,0,1,,,,,,,,,,,,,,,,,,,,,,,,,,,,,,,,,,
293968,2022-09-21_13h54.50.679,vts_reward_expectancy,2022.2.4,MacIntel,59.99880002,Chrome,1440,900,,,,,0,648,,,,,,,,,,,,,,,,,174,H,star,0,0,,3,,,,,,,,,,,,,,-1,number,NA,d,2.5917,vtsPrac,0,0,0,0,1,,,,,,,,,,,,,,,,,,,,,,,
293968,2022-09-21_13h54.50.679,vts_reward_expectancy,2022.2.4,MacIntel,59.99880002,Chrome,1440,900,,,,,0,648,,,,,,,,,,,,,,,,,146,B,triangle,1,1,,3,,,,,,,,,,,,,,switch,letter,lettSwt,j,1.0774,vtsPrac,1,0,1,0,1,,,,,,,,,,,,,,,,,,,,,,,
293968,2022-09-21_13h54.50.679,vts_reward_expectancy,2022.2.4,MacIntel,59.99880002,Chrome,1440,900,,,,,0,648,,,,,,,,,,,,,,,,,132,U,star,1,0,,3,,,,,,,,,,,,,,repeat,letter,lettRpt,k,1.6185,vtsPrac,2,0,2,0,1,,,,,,,,,,,,,,,,,,,,,,,
293968,2022-09-21_13h54.50.679,vts_reward_expectancy,2022.2.4,MacIntel,59.99880002,Chrome,1440,900,,,,,0,648,,,,,,,,,,,,,,,,,167,W,triangle,1,0,,3,,,,,,,,,,,,,,switch,number,numSwt,f,0.9183,vtsPrac,3,0,3,0,1,,,,,,,,,,,,,,,,,,,,,,,
293968,2022-09-21_13h54.50.679,vts_reward_expectancy,2022.2.4,MacIntel,59.99880002,Chrome,1440,900,,,,,0,648,,,,,,,,,,,,,,,,,174,H,hexagon,1,0,,3,,,,,,,,,,,,,,switch,letter,lettSwt,j,2.0287,vtsPrac,4,0,4,0,1,,,,,,,,,,,,,,,,,,,,,,,
293968,2022-09-21_13h54.50.679,vts_reward_expectancy,2022.2.4,MacIntel,59.99880002,Chrome,1440,900,,,,,0,648,,,,,,,,,,,,,,,,,146,B,triangle,1,0,,3,,,,,,,,,,,,,,switch,number,numSwt,d,0.8713,vtsPrac,5,0,5,0,1,,,,,,,,,,,,,,,,,,,,,,,
293968,2022-09-21_13h54.50.679,vts_reward_expectancy,2022.2.4,MacIntel,59.99880002,Chrome,1440,900,,,,,0,648,,,,,,,,,,,,,,,,,132,U,triangle,1,0,,3,,,,,,,,,,,,,,repeat,number,numRpt,d,0.5624,vtsPrac,6,0,6,0,1,,,,,,,,,,,,,,,,,,,,,,,
293968,2022-09-21_13h54.50.679,vts_reward_expectancy,2022.2.4,MacIntel,59.99880002,Chrome,1440,900,,,,,0,648,,,,,,,,,,,,,,,,,167,W,hexagon,1,0,,3,,,,,,,,,,,,,,switch,letter,lettSwt,k,0.5835,vtsPrac,7,0,7,0,1,,,,,,,,,,,,,,,,,,,,,,,
293968,2022-09-21_13h54.50.679,vts_reward_expectancy,2022.2.4,MacIntel,59.99880002,Chrome,1440,900,,,,,0,648,,,,,,,,,,,,,,,,,167,Y,circle,1,0,,3,,,,,,,,,,,,,,repeat,letter,lettRpt,k,0.9684,vtsPrac,8,0,8,0,1,,,,,,,,,,,,,,,,,,,,,,,
293968,2022-09-21_13h54.50.679,vts_reward_expectancy,2022.2.4,MacIntel,59.99880002,Chrome,1440,900,,,,,0,648,,,,,,,,,,,,,,,,,174,H,hexagon,1,0,,3,,,,,,,,,,,,,,repeat,letter,lettRpt,j,1.43,vtsPrac,9,0,9,0,1,,,,,,,,,,,,,,,,,,,,,,,
293968,2022-09-21_13h54.50.679,vts_reward_expectancy,2022.2.4,MacIntel,59.99880002,Chrome,1440,900,,,,,0,648,,,,,,,,,,,,,,,,,132,S,star,1,0,,3,,,,,,,,,,,,,,switch,number,numSwt,d,1.0642,vtsPrac,10,0,10,0,1,,,,,,,,,,,,,,,,,,,,,,,
293968,2022-09-21_13h54.50.679,vts_reward_expectancy,2022.2.4,MacIntel,59.99880002,Chrome,1440,900,,,,,0,648,,,,,,,,,,,,,,,,,146,F,hexagon,1,0,,3,,,,,,,,,,,,,,switch,letter,lettSwt,j,1.462,vtsPrac,11,0,11,0,1,,,,,,,,,,,,,,,,,,,,,,,
293968,2022-09-21_13h54.50.679,vts_reward_expectancy,2022.2.4,MacIntel,59.99880002,Chrome,1440,900,,,,,0,648,,,,,,,,,,,,,,,,,146,W,triangle,1,0,,3,,,,,,,,,,,,,,switch,number,numSwt,d,0.964,vtsPrac,12,0,12,0,1,,,,,,,,,,,,,,,,,,,,,,,
293968,2022-09-21_13h54.50.679,vts_reward_expectancy,2022.2.4,MacIntel,59.99880002,Chrome,1440,900,,,,,0,648,,,,,,,,,,,,,,,,,174,F,star,1,0,,3,,,,,,,,,,,,,,repeat,number,numRpt,f,0.88,vtsPrac,13,0,13,0,1,,,,,,,,,,,,,,,,,,,,,,,
293968,2022-09-21_13h54.50.679,vts_reward_expectancy,2022.2.4,MacIntel,59.99880002,Chrome,1440,900,,,,,0,648,,,,,,,,,,,,,,,,,139,U,hexagon,1,0,,3,,,,,,,,,,,,,,repeat,number,numRpt,d,0.9313,vtsPrac,14,0,14,0,1,,,,,,,,,,,,,,,,,,,,,,,
293968,2022-09-21_13h54.50.679,vts_reward_expectancy,2022.2.4,MacIntel,59.99880002,Chrome,1440,900,,,,,0,648,,,,,,,,,,,,,,,,,167,H,triangle,1,0,,3,,,,,,,,,,,,,,repeat,number,numRpt,f,0.9285,vtsPrac,15,0,15,0,1,,,,,,,,,,,,,,,,,,,,,,,
293968,2022-09-21_13h54.50.679,vts_reward_expectancy,2022.2.4,MacIntel,59.99880002,Chrome,1440,900,,,,,,,,,,,,,,,,,,,,,,,,,,,,,,,,,,,,,,,,,,,,,,,,,,,,,,,,,,,,,,,,,,,,,,,,,,,,
293968,2022-09-21_13h54.50.679,vts_reward_expectancy,2022.2.4,MacIntel,59.99880002,Chrome,1440,900,,,,,,,,,,,,,,,,,,,,,,,,,,,,,,,,,,,,,,,,,,,,,,,,,,,,,,,,,,,,,,,,,,,,,,,,,,,,
293968,2022-09-21_13h54.50.679,vts_reward_expectancy,2022.2.4,MacIntel,59.99880002,Chrome,1440,900,,,,,0,648,,,,,,,,,,,,,,,,,174,U,star,0,0,,,,,,,,,,,,,,,,switch,letter,NA,j,1.2486,noRew,,,,,,0,0,0,0,0,1,,,,,,,,,,,,,,,,,
293968,2022-09-21_13h54.50.679,vts_reward_expectancy,2022.2.4,MacIntel,59.99880002,Chrome,1440,900,,,,,0,648,,,,,,,,,,,,,,,,,132,D,triangle,1,1,,,,,,,,,,,,,,,,repeat,letter,lettRpt,j,0.7652,noRew,,,,,,0,1,0,1,0,1,,,,,,,,,,,,,,,,,
293968,2022-09-21_13h54.50.679,vts_reward_expectancy,2022.2.4,MacIntel,59.99880002,Chrome,1440,900,,,,,0,648,,,,,,,,,,,,,,,,,167,B,star,1,0,,,,,,,,,,,,,,,,switch,number,numSwt,f,1.0829,noRew,,,,,,0,2,0,2,0,1,,,,,,,,,,,,,,,,,
293968,2022-09-21_13h54.50.679,vts_reward_expectancy,2022.2.4,MacIntel,59.99880002,Chrome,1440,900,,,,,0,648,,,,,,,,,,,,,,,,,181,Y,triangle,1,0,,,,,,,,,,,,,,,,repeat,number,numRpt,f,1.5794,noRew,,,,,,0,3,0,3,0,1,,,,,,,,,,,,,,,,,
293968,2022-09-21_13h54.50.679,vts_reward_expectancy,2022.2.4,MacIntel,59.99880002,Chrome,1440,900,,,,,0,648,,,,,,,,,,,,,,,,,174,U,star,1,0,,,,,,,,,,,,,,,,switch,letter,lettSwt,k,1.2763,noRew,,,,,,0,4,0,4,0,1,,,,,,,,,,,,,,,,,
293968,2022-09-21_13h54.50.679,vts_reward_expectancy,2022.2.4,MacIntel,59.99880002,Chrome,1440,900,,,,,0,648,,,,,,,,,,,,,,,,,132,D,circle,1,0,,,,,,,,,,,,,,,,repeat,letter,lettRpt,j,0.8123,noRew,,,,,,0,5,0,5,0,1,,,,,,,,,,,,,,,,,
293968,2022-09-21_13h54.50.679,vts_reward_expectancy,2022.2.4,MacIntel,59.99880002,Chrome,1440,900,,,,,0,648,,,,,,,,,,,,,,,,,167,B,circle,1,0,,,,,,,,,,,,,,,,repeat,letter,lettRpt,j,0.8661,noRew,,,,,,0,6,0,6,0,1,,,,,,,,,,,,,,,,,
293968,2022-09-21_13h54.50.679,vts_reward_expectancy,2022.2.4,MacIntel,59.99880002,Chrome,1440,900,,,,,0,648,,,,,,,,,,,,,,,,,181,Y,triangle,1,0,,,,,,,,,,,,,,,,switch,number,numSwt,f,1.3713,noRew,,,,,,0,7,0,7,0,1,,,,,,,,,,,,,,,,,
293968,2022-09-21_13h54.50.679,vts_reward_expectancy,2022.2.4,MacIntel,59.99880002,Chrome,1440,900,,,,,0,648,,,,,,,,,,,,,,,,,125,W,circle,1,0,,,,,,,,,,,,,,,,switch,letter,lettSwt,k,0.8193,noRew,,,,,,0,8,0,8,0,1,,,,,,,,,,,,,,,,,
293968,2022-09-21_13h54.50.679,vts_reward_expectancy,2022.2.4,MacIntel,59.99880002,Chrome,1440,900,,,,,0,648,,,,,,,,,,,,,,,,,132,U,star,1,0,,,,,,,,,,,,,,,,repeat,letter,lettRpt,k,0.7353,noRew,,,,,,0,9,0,9,0,1,,,,,,,,,,,,,,,,,
293968,2022-09-21_13h54.50.679,vts_reward_expectancy,2022.2.4,MacIntel,59.99880002,Chrome,1440,900,,,,,0,648,,,,,,,,,,,,,,,,,181,H,triangle,1,0,,,,,,,,,,,,,,,,switch,number,numSwt,f,1.2389,noRew,,,,,,0,10,0,10,0,1,,,,,,,,,,,,,,,,,
293968,2022-09-21_13h54.50.679,vts_reward_expectancy,2022.2.4,MacIntel,59.99880002,Chrome,1440,900,,,,,0,648,,,,,,,,,,,,,,,,,174,F,star,1,0,,,,,,,,,,,,,,,,repeat,number,numRpt,f,0.9456,noRew,,,,,,0,11,0,11,0,1,,,,,,,,,,,,,,,,,
293968,2022-09-21_13h54.50.679,vts_reward_expectancy,2022.2.4,MacIntel,59.99880002,Chrome,1440,900,,,,,0,648,,,,,,,,,,,,,,,,,125,U,star,1,0,,,,,,,,,,,,,,,,repeat,number,numRpt,d,1.15,noRew,,,,,,0,12,0,12,0,1,,,,,,,,,,,,,,,,,
293968,2022-09-21_13h54.50.679,vts_reward_expectancy,2022.2.4,MacIntel,59.99880002,Chrome,1440,900,,,,,0,648,,,,,,,,,,,,,,,,,139,Y,circle,1,0,,,,,,,,,,,,,,,,switch,letter,lettSwt,k,0.9533,noRew,,,,,,0,13,0,13,0,1,,,,,,,,,,,,,,,,,
293968,2022-09-21_13h54.50.679,vts_reward_expectancy,2022.2.4,MacIntel,59.99880002,Chrome,1440,900,,,,,0,648,,,,,,,,,,,,,,,,,132,S,star,1,0,,,,,,,,,,,,,,,,switch,number,numSwt,d,0.777,noRew,,,,,,0,14,0,14,0,1,,,,,,,,,,,,,,,,,
293968,2022-09-21_13h54.50.679,vts_reward_expectancy,2022.2.4,MacIntel,59.99880002,Chrome,1440,900,,,,,0,648,,,,,,,,,,,,,,,,,160,F,circle,1,0,,,,,,,,,,,,,,,,repeat,number,numRpt,f,1.1806,noRew,,,,,,0,15,0,15,0,1,,,,,,,,,,,,,,,,,
293968,2022-09-21_13h54.50.679,vts_reward_expectancy,2022.2.4,MacIntel,59.99880002,Chrome,1440,900,,,,,0,648,,,,,,,,,,,,,,,,,146,Y,hexagon,1,0,,,,,,,,,,,,,,,,switch,letter,lettSwt,k,1.5474,noRew,,,,,,0,16,0,16,0,1,,,,,,,,,,,,,,,,,
293968,2022-09-21_13h54.50.679,vts_reward_expectancy,2022.2.4,MacIntel,59.99880002,Chrome,1440,900,,,,,0,648,,,,,,,,,,,,,,,,,125,U,triangle,1,0,,,,,,,,,,,,,,,,repeat,letter,lettRpt,k,1.115,noRew,,,,,,0,17,0,17,0,1,,,,,,,,,,,,,,,,,
293968,2022-09-21_13h54.50.679,vts_reward_expectancy,2022.2.4,MacIntel,59.99880002,Chrome,1440,900,,,,,0,648,,,,,,,,,,,,,,,,,139,F,triangle,1,0,,,,,,,,,,,,,,,,repeat,letter,lettRpt,j,1.3818,noRew,,,,,,0,18,0,18,0,1,,,,,,,,,,,,,,,,,
293968,2022-09-21_13h54.50.679,vts_reward_expectancy,2022.2.4,MacIntel,59.99880002,Chrome,1440,900,,,,,0,648,,,,,,,,,,,,,,,,,174,D,star,1,0,,,,,,,,,,,,,,,,repeat,letter,lettRpt,j,1.9282,noRew,,,,,,0,19,0,19,0,1,,,,,,,,,,,,,,,,,
293968,2022-09-21_13h54.50.679,vts_reward_expectancy,2022.2.4,MacIntel,59.99880002,Chrome,1440,900,,,,,0,648,,,,,,,,,,,,,,,,,132,Y,star,1,0,,,,,,,,,,,,,,,,switch,number,numSwt,d,0.6594,noRew,,,,,,0,20,0,20,0,1,,,,,,,,,,,,,,,,,
293968,2022-09-21_13h54.50.679,vts_reward_expectancy,2022.2.4,MacIntel,59.99880002,Chrome,1440,900,,,,,0,648,,,,,,,,,,,,,,,,,167,W,triangle,1,0,,,,,,,,,,,,,,,,repeat,number,numRpt,f,1.4091,noRew,,,,,,0,21,0,21,0,1,,,,,,,,,,,,,,,,,
293968,2022-09-21_13h54.50.679,vts_reward_expectancy,2022.2.4,MacIntel,59.99880002,Chrome,1440,900,,,,,0,648,,,,,,,,,,,,,,,,,181,F,triangle,1,0,,,,,,,,,,,,,,,,switch,letter,lettSwt,j,1.8938,noRew,,,,,,0,22,0,22,0,1,,,,,,,,,,,,,,,,,
293968,2022-09-21_13h54.50.679,vts_reward_expectancy,2022.2.4,MacIntel,59.99880002,Chrome,1440,900,,,,,0,648,,,,,,,,,,,,,,,,,125,B,hexagon,1,0,,,,,,,,,,,,,,,,switch,number,numSwt,d,0.7789,noRew,,,,,,0,23,0,23,0,1,,,,,,,,,,,,,,,,,
293968,2022-09-21_13h54.50.679,vts_reward_expectancy,2022.2.4,MacIntel,59.99880002,Chrome,1440,900,,,,,0,648,,,,,,,,,,,,,,,,,146,S,star,1,0,,,,,,,,,,,,,,,,repeat,number,numRpt,d,1.0951,noRew,,,,,,0,24,0,24,0,1,,,,,,,,,,,,,,,,,
293968,2022-09-21_13h54.50.679,vts_reward_expectancy,2022.2.4,MacIntel,59.99880002,Chrome,1440,900,,,,,0,648,,,,,,,,,,,,,,,,,167,W,triangle,1,0,,,,,,,,,,,,,,,,switch,letter,lettSwt,k,2.2624,noRew,,,,,,0,25,0,25,0,1,,,,,,,,,,,,,,,,,
293968,2022-09-21_13h54.50.679,vts_reward_expectancy,2022.2.4,MacIntel,59.99880002,Chrome,1440,900,,,,,0,648,,,,,,,,,,,,,,,,,125,B,star,1,0,,,,,,,,,,,,,,,,switch,number,numSwt,d,0.8112,noRew,,,,,,0,26,0,26,0,1,,,,,,,,,,,,,,,,,
293968,2022-09-21_13h54.50.679,vts_reward_expectancy,2022.2.4,MacIntel,59.99880002,Chrome,1440,900,,,,,0,648,,,,,,,,,,,,,,,,,174,H,triangle,1,0,,,,,,,,,,,,,,,,switch,letter,lettSwt,j,1.614,noRew,,,,,,0,27,0,27,0,1,,,,,,,,,,,,,,,,,
293968,2022-09-21_13h54.50.679,vts_reward_expectancy,2022.2.4,MacIntel,59.99880002,Chrome,1440,900,,,,,0,648,,,,,,,,,,,,,,,,,132,D,triangle,1,0,,,,,,,,,,,,,,,,switch,number,numSwt,d,1.3908,noRew,,,,,,0,28,0,28,0,1,,,,,,,,,,,,,,,,,
293968,2022-09-21_13h54.50.679,vts_reward_expectancy,2022.2.4,MacIntel,59.99880002,Chrome,1440,900,,,,,0,648,,,,,,,,,,,,,,,,,146,F,hexagon,1,0,,,,,,,,,,,,,,,,repeat,number,numRpt,d,0.9309,noRew,,,,,,0,29,0,29,0,1,,,,,,,,,,,,,,,,,
293968,2022-09-21_13h54.50.679,vts_reward_expectancy,2022.2.4,MacIntel,59.99880002,Chrome,1440,900,,,,,0,648,,,,,,,,,,,,,,,,,167,H,circle,1,0,,,,,,,,,,,,,,,,switch,letter,lettSwt,j,1.9935,noRew,,,,,,0,30,0,30,0,1,,,,,,,,,,,,,,,,,
293968,2022-09-21_13h54.50.679,vts_reward_expectancy,2022.2.4,MacIntel,59.99880002,Chrome,1440,900,,,,,0,648,,,,,,,,,,,,,,,,,139,S,star,1,0,,,,,,,,,,,,,,,,switch,number,numSwt,d,1.1493,noRew,,,,,,0,31,0,31,0,1,,,,,,,,,,,,,,,,,
293968,2022-09-21_13h54.50.679,vts_reward_expectancy,2022.2.4,MacIntel,59.99880002,Chrome,1440,900,,,,,0,648,,,,,,,,,,,,,,,,,167,W,triangle,1,0,,,,,,,,,,,,,,,,switch,letter,lettSwt,k,1.3323,noRew,,,,,,0,32,0,32,0,1,,,,,,,,,,,,,,,,,
293968,2022-09-21_13h54.50.679,vts_reward_expectancy,2022.2.4,MacIntel,59.99880002,Chrome,1440,900,,,,,0,648,,,,,,,,,,,,,,,,,132,S,hexagon,1,0,,,,,,,,,,,,,,,,switch,number,numSwt,d,0.9424,noRew,,,,,,0,33,0,33,0,1,,,,,,,,,,,,,,,,,
293968,2022-09-21_13h54.50.679,vts_reward_expectancy,2022.2.4,MacIntel,59.99880002,Chrome,1440,900,,,,,0,648,,,,,,,,,,,,,,,,,146,U,hexagon,1,0,,,,,,,,,,,,,,,,repeat,number,numRpt,d,1.1813,noRew,,,,,,0,34,0,34,0,1,,,,,,,,,,,,,,,,,
293968,2022-09-21_13h54.50.679,vts_reward_expectancy,2022.2.4,MacIntel,59.99880002,Chrome,1440,900,,,,,0,648,,,,,,,,,,,,,,,,,139,B,circle,0,0,,,,,,,,,,,,,,,,repeat,number,NA,f,1.2467,noRew,,,,,,0,35,0,35,0,1,,,,,,,,,,,,,,,,,
293968,2022-09-21_13h54.50.679,vts_reward_expectancy,2022.2.4,MacIntel,59.99880002,Chrome,1440,900,,,,,0,648,,,,,,,,,,,,,,,,,146,B,circle,1,1,,,,,,,,,,,,,,,,switch,letter,lettSwt,j,0.9971,noRew,,,,,,0,36,0,36,0,1,,,,,,,,,,,,,,,,,
293968,2022-09-21_13h54.50.679,vts_reward_expectancy,2022.2.4,MacIntel,59.99880002,Chrome,1440,900,,,,,0,648,,,,,,,,,,,,,,,,,167,S,triangle,1,0,,,,,,,,,,,,,,,,repeat,letter,lettRpt,k,1.2958,noRew,,,,,,0,37,0,37,0,1,,,,,,,,,,,,,,,,,
293968,2022-09-21_13h54.50.679,vts_reward_expectancy,2022.2.4,MacIntel,59.99880002,Chrome,1440,900,,,,,0,648,,,,,,,,,,,,,,,,,125,U,hexagon,1,0,,,,,,,,,,,,,,,,switch,number,numSwt,d,0.7688,noRew,,,,,,0,38,0,38,0,1,,,,,,,,,,,,,,,,,
293968,2022-09-21_13h54.50.679,vts_reward_expectancy,2022.2.4,MacIntel,59.99880002,Chrome,1440,900,,,,,0,648,,,,,,,,,,,,,,,,,181,D,circle,1,0,,,,,,,,,,,,,,,,switch,letter,lettSwt,j,1.5512,noRew,,,,,,0,39,0,39,0,1,,,,,,,,,,,,,,,,,
293968,2022-09-21_13h54.50.679,vts_reward_expectancy,2022.2.4,MacIntel,59.99880002,Chrome,1440,900,,,,,0,648,,,,,,,,,,,,,,,,,160,H,triangle,1,0,,,,,,,,,,,,,,,,switch,number,numSwt,f,2.9715,noRew,,,,,,0,40,0,40,0,1,,,,,,,,,,,,,,,,,
293968,2022-09-21_13h54.50.679,vts_reward_expectancy,2022.2.4,MacIntel,59.99880002,Chrome,1440,900,,,,,0,648,,,,,,,,,,,,,,,,,125,S,circle,1,0,,,,,,,,,,,,,,,,repeat,number,numRpt,d,1.9728,noRew,,,,,,0,41,0,41,0,1,,,,,,,,,,,,,,,,,
293968,2022-09-21_13h54.50.679,vts_reward_expectancy,2022.2.4,MacIntel,59.99880002,Chrome,1440,900,,,,,0,648,,,,,,,,,,,,,,,,,181,U,triangle,1,0,,,,,,,,,,,,,,,,repeat,number,numRpt,f,1.6772,noRew,,,,,,0,42,0,42,0,1,,,,,,,,,,,,,,,,,
293968,2022-09-21_13h54.50.679,vts_reward_expectancy,2022.2.4,MacIntel,59.99880002,Chrome,1440,900,,,,,0,648,,,,,,,,,,,,,,,,,174,B,star,1,0,,,,,,,,,,,,,,,,switch,letter,lettSwt,j,1.915,noRew,,,,,,0,43,0,43,0,1,,,,,,,,,,,,,,,,,
293968,2022-09-21_13h54.50.679,vts_reward_expectancy,2022.2.4,MacIntel,59.99880002,Chrome,1440,900,,,,,0,648,,,,,,,,,,,,,,,,,160,B,star,1,0,,,,,,,,,,,,,,,,repeat,letter,lettRpt,j,1.6891,noRew,,,,,,0,44,0,44,0,1,,,,,,,,,,,,,,,,,
293968,2022-09-21_13h54.50.679,vts_reward_expectancy,2022.2.4,MacIntel,59.99880002,Chrome,1440,900,,,,,0,648,,,,,,,,,,,,,,,,,139,W,triangle,1,0,,,,,,,,,,,,,,,,repeat,letter,lettRpt,k,0.8959,noRew,,,,,,0,45,0,45,0,1,,,,,,,,,,,,,,,,,
293968,2022-09-21_13h54.50.679,vts_reward_expectancy,2022.2.4,MacIntel,59.99880002,Chrome,1440,900,,,,,0,648,,,,,,,,,,,,,,,,,125,H,circle,0,0,,,,,,,,,,,,,,,,switch,number,NA,f,2.871,noRew,,,,,,0,46,0,46,0,1,,,,,,,,,,,,,,,,,
293968,2022-09-21_13h54.50.679,vts_reward_expectancy,2022.2.4,MacIntel,59.99880002,Chrome,1440,900,,,,,0,648,,,,,,,,,,,,,,,,,174,F,star,1,1,,,,,,,,,,,,,,,,repeat,number,numRpt,f,1.5989,noRew,,,,,,0,47,0,47,0,1,,,,,,,,,,,,,,,,,
293968,2022-09-21_13h54.50.679,vts_reward_expectancy,2022.2.4,MacIntel,59.99880002,Chrome,1440,900,,,,,0,648,,,,,,,,,,,,,,,,,132,U,triangle,1,0,,,,,,,,,,,,,,,,switch,letter,lettSwt,k,1.6815,noRew,,,,,,0,48,0,48,0,1,,,,,,,,,,,,,,,,,
293968,2022-09-21_13h54.50.679,vts_reward_expectancy,2022.2.4,MacIntel,59.99880002,Chrome,1440,900,,,,,0,648,,,,,,,,,,,,,,,,,160,S,circle,1,0,,,,,,,,,,,,,,,,switch,number,numSwt,f,1.2628,noRew,,,,,,0,49,0,49,0,1,,,,,,,,,,,,,,,,,
293968,2022-09-21_13h54.50.679,vts_reward_expectancy,2022.2.4,MacIntel,59.99880002,Chrome,1440,900,,,,,0,648,,,,,,,,,,,,,,,,,174,H,triangle,1,0,,,,,,,,,,,,,,,,repeat,number,numRpt,f,1.8445,noRew,,,,,,0,50,0,50,0,1,,,,,,,,,,,,,,,,,
293968,2022-09-21_13h54.50.679,vts_reward_expectancy,2022.2.4,MacIntel,59.99880002,Chrome,1440,900,,,,,0,648,,,,,,,,,,,,,,,,,139,D,star,1,0,,,,,,,,,,,,,,,,repeat,number,numRpt,d,1.2661,noRew,,,,,,0,51,0,51,0,1,,,,,,,,,,,,,,,,,
293968,2022-09-21_13h54.50.679,vts_reward_expectancy,2022.2.4,MacIntel,59.99880002,Chrome,1440,900,,,,,0,648,,,,,,,,,,,,,,,,,146,S,triangle,1,0,,,,,,,,,,,,,,,,repeat,number,numRpt,d,0.7014,noRew,,,,,,0,52,0,52,0,1,,,,,,,,,,,,,,,,,
293968,2022-09-21_13h54.50.679,vts_reward_expectancy,2022.2.4,MacIntel,59.99880002,Chrome,1440,900,,,,,0,648,,,,,,,,,,,,,,,,,167,B,circle,1,0,,,,,,,,,,,,,,,,switch,letter,lettSwt,j,2.3453,noRew,,,,,,0,53,0,53,0,1,,,,,,,,,,,,,,,,,
293968,2022-09-21_13h54.50.679,vts_reward_expectancy,2022.2.4,MacIntel,59.99880002,Chrome,1440,900,,,,,0,648,,,,,,,,,,,,,,,,,160,F,star,1,0,,,,,,,,,,,,,,,,switch,number,numSwt,f,1.5949,noRew,,,,,,0,54,0,54,0,1,,,,,,,,,,,,,,,,,
293968,2022-09-21_13h54.50.679,vts_reward_expectancy,2022.2.4,MacIntel,59.99880002,Chrome,1440,900,,,,,0,648,,,,,,,,,,,,,,,,,132,U,triangle,1,0,,,,,,,,,,,,,,,,switch,letter,lettSwt,k,1.38,noRew,,,,,,0,55,0,55,0,1,,,,,,,,,,,,,,,,,
293968,2022-09-21_13h54.50.679,vts_reward_expectancy,2022.2.4,MacIntel,59.99880002,Chrome,1440,900,,,,,0,648,,,,,,,,,,,,,,,,,167,Y,triangle,1,0,,,,,,,,,,,,,,,,repeat,letter,lettRpt,k,1.0107,noRew,,,,,,0,56,0,56,0,1,,,,,,,,,,,,,,,,,
293968,2022-09-21_13h54.50.679,vts_reward_expectancy,2022.2.4,MacIntel,59.99880002,Chrome,1440,900,,,,,0,648,,,,,,,,,,,,,,,,,125,W,star,1,0,,,,,,,,,,,,,,,,switch,number,numSwt,d,1.1965,noRew,,,,,,0,57,0,57,0,1,,,,,,,,,,,,,,,,,
293968,2022-09-21_13h54.50.679,vts_reward_expectancy,2022.2.4,MacIntel,59.99880002,Chrome,1440,900,,,,,0,648,,,,,,,,,,,,,,,,,132,S,triangle,1,0,,,,,,,,,,,,,,,,repeat,number,numRpt,d,1.3152,noRew,,,,,,0,58,0,58,0,1,,,,,,,,,,,,,,,,,
293968,2022-09-21_13h54.50.679,vts_reward_expectancy,2022.2.4,MacIntel,59.99880002,Chrome,1440,900,,,,,0,648,,,,,,,,,,,,,,,,,139,F,circle,1,0,,,,,,,,,,,,,,,,repeat,number,numRpt,d,0.6378,noRew,,,,,,0,59,0,59,0,1,,,,,,,,,,,,,,,,,
293968,2022-09-21_13h54.50.679,vts_reward_expectancy,2022.2.4,MacIntel,59.99880002,Chrome,1440,900,,,,,0,648,,,,,,,,,,,,,,,,,167,W,triangle,1,0,,,,,,,,,,,,,,,,repeat,number,numRpt,f,1.0135,noRew,,,,,,0,60,0,60,0,1,,,,,,,,,,,,,,,,,
293968,2022-09-21_13h54.50.679,vts_reward_expectancy,2022.2.4,MacIntel,59.99880002,Chrome,1440,900,,,,,0,648,,,,,,,,,,,,,,,,,132,Y,circle,1,0,,,,,,,,,,,,,,,,switch,letter,lettSwt,k,1.3813,noRew,,,,,,0,61,0,61,0,1,,,,,,,,,,,,,,,,,
293968,2022-09-21_13h54.50.679,vts_reward_expectancy,2022.2.4,MacIntel,59.99880002,Chrome,1440,900,,,,,0,648,,,,,,,,,,,,,,,,,160,D,triangle,1,0,,,,,,,,,,,,,,,,repeat,letter,lettRpt,j,1.0543,noRew,,,,,,0,62,0,62,0,1,,,,,,,,,,,,,,,,,
293968,2022-09-21_13h54.50.679,vts_reward_expectancy,2022.2.4,MacIntel,59.99880002,Chrome,1440,900,,,,,0,648,,,,,,,,,,,,,,,,,146,F,circle,1,0,,,,,,,,,,,,,,,,switch,number,numSwt,d,1.1927,noRew,,,,,,0,63,0,63,0,1,,,,,,,,,,,,,,,,,
293968,2022-09-21_13h54.50.679,vts_reward_expectancy,2022.2.4,MacIntel,59.99880002,Chrome,1440,900,,,,,,,,,,,,,,,,,,,,,,,,,,,,,,,,,,,,,,,,,,,,,,,,,,,,,,,,,,,,,,,,,,,,,,,,,,,,
293968,2022-09-21_13h54.50.679,vts_reward_expectancy,2022.2.4,MacIntel,59.99880002,Chrome,1440,900,,,,,1,649,,,,,,,,,,,,,,,,,181,S,hexagon,1,0,,,,,,,,,,,,,,,,repeat,number,numRpt,f,1.4457,noRew,,,,,,0,,,,,,space,4.0862,high,0,0,0,0,1,,,,,,,,,
293968,2022-09-21_13h54.50.679,vts_reward_expectancy,2022.2.4,MacIntel,59.99880002,Chrome,1440,900,,,,,10,659,,,,,,,,,,,,,,,,,139,U,star,1,0,,,,,,,,,,,,,,,,switch,letter,lettSwt,k,0.9308,noRew,,,,,,0,,,,,,,,high,1,0,1,0,1,,,,,,,,,
293968,2022-09-21_13h54.50.679,vts_reward_expectancy,2022.2.4,MacIntel,59.99880002,Chrome,1440,900,,,,,1,660,,,,,,,,,,,,,,,,,174,W,hexagon,1,0,,,,,,,,,,,,,,,,repeat,letter,lettRpt,k,0.979,noRew,,,,,,0,,,,,,,,high,2,0,2,0,1,,,,,,,,,
293968,2022-09-21_13h54.50.679,vts_reward_expectancy,2022.2.4,MacIntel,59.99880002,Chrome,1440,900,,,,,0,660,,,,,,,,,,,,,,,,,132,Y,star,1,0,,,,,,,,,,,,,,,,repeat,letter,lettRpt,k,1.1467,noRew,,,,,,0,,,,,,,,high,3,0,3,0,1,,,,,,,,,
293968,2022-09-21_13h54.50.679,vts_reward_expectancy,2022.2.4,MacIntel,59.99880002,Chrome,1440,900,,,,,1,661,,,,,,,,,,,,,,,,,167,B,hexagon,1,0,,,,,,,,,,,,,,,,switch,number,numSwt,f,1.0327,noRew,,,,,,0,,,,,,,,high,4,0,4,0,1,,,,,,,,,
293968,2022-09-21_13h54.50.679,vts_reward_expectancy,2022.2.4,MacIntel,59.99880002,Chrome,1440,900,,,,,1,662,,,,,,,,,,,,,,,,,146,H,star,1,0,,,,,,,,,,,,,,,,switch,letter,lettSwt,j,0.7048,noRew,,,,,,0,,,,,,,,high,5,0,5,0,1,,,,,,,,,
293968,2022-09-21_13h54.50.679,vts_reward_expectancy,2022.2.4,MacIntel,59.99880002,Chrome,1440,900,,,,,1,663,,,,,,,,,,,,,,,,,160,D,hexagon,1,0,,,,,,,,,,,,,,,,switch,number,numSwt,f,0.6594,noRew,,,,,,0,,,,,,,,high,6,0,6,0,1,,,,,,,,,
293968,2022-09-21_13h54.50.679,vts_reward_expectancy,2022.2.4,MacIntel,59.99880002,Chrome,1440,900,,,,,10,673,,,,,,,,,,,,,,,,,125,F,star,1,0,,,,,,,,,,,,,,,,switch,letter,lettSwt,j,0.7616,noRew,,,,,,0,,,,,,,,high,7,0,7,0,1,,,,,,,,,
293968,2022-09-21_13h54.50.679,vts_reward_expectancy,2022.2.4,MacIntel,59.99880002,Chrome,1440,900,,,,,10,683,,,,,,,,,,,,,,,,,181,S,hexagon,1,0,,,,,,,,,,,,,,,,repeat,letter,lettRpt,k,0.9955,noRew,,,,,,0,,,,,,,,high,8,0,8,0,1,,,,,,,,,
293968,2022-09-21_13h54.50.679,vts_reward_expectancy,2022.2.4,MacIntel,59.99880002,Chrome,1440,900,,,,,0,683,,,,,,,,,,,,,,,,,139,U,star,1,0,,,,,,,,,,,,,,,,repeat,letter,lettRpt,k,0.9978,noRew,,,,,,0,,,,,,,,high,9,0,9,0,1,,,,,,,,,
293968,2022-09-21_13h54.50.679,vts_reward_expectancy,2022.2.4,MacIntel,59.99880002,Chrome,1440,900,,,,,1,684,,,,,,,,,,,,,,,,,174,W,star,1,0,,,,,,,,,,,,,,,,switch,number,numSwt,f,0.8655,noRew,,,,,,0,,,,,,,,high,10,0,10,0,1,,,,,,,,,
293968,2022-09-21_13h54.50.679,vts_reward_expectancy,2022.2.4,MacIntel,59.99880002,Chrome,1440,900,,,,,1,685,,,,,,,,,,,,,,,,,132,Y,hexagon,1,0,,,,,,,,,,,,,,,,repeat,number,numRpt,d,0.8166,noRew,,,,,,0,,,,,,,,high,11,0,11,0,1,,,,,,,,,
293968,2022-09-21_13h54.50.679,vts_reward_expectancy,2022.2.4,MacIntel,59.99880002,Chrome,1440,900,,,,,10,695,,,,,,,,,,,,,,,,,167,B,hexagon,1,0,,,,,,,,,,,,,,,,repeat,number,numRpt,f,0.798,noRew,,,,,,0,,,,,,,,high,12,0,12,0,1,,,,,,,,,
293968,2022-09-21_13h54.50.679,vts_reward_expectancy,2022.2.4,MacIntel,59.99880002,Chrome,1440,900,,,,,10,705,,,,,,,,,,,,,,,,,146,H,star,1,0,,,,,,,,,,,,,,,,repeat,number,numRpt,d,0.6983,noRew,,,,,,0,,,,,,,,high,13,0,13,0,1,,,,,,,,,
293968,2022-09-21_13h54.50.679,vts_reward_expectancy,2022.2.4,MacIntel,59.99880002,Chrome,1440,900,,,,,10,715,,,,,,,,,,,,,,,,,160,D,star,1,0,,,,,,,,,,,,,,,,repeat,number,numRpt,f,0.7619,noRew,,,,,,0,,,,,,,,high,14,0,14,0,1,,,,,,,,,
293968,2022-09-21_13h54.50.679,vts_reward_expectancy,2022.2.4,MacIntel,59.99880002,Chrome,1440,900,,,,,10,725,,,,,,,,,,,,,,,,,125,F,hexagon,1,0,,,,,,,,,,,,,,,,switch,letter,lettSwt,j,0.8952,noRew,,,,,,0,,,,,,,,high,15,0,15,0,1,,,,,,,,,
293968,2022-09-21_13h54.50.679,vts_reward_expectancy,2022.2.4,MacIntel,59.99880002,Chrome,1440,900,,,,,0,725,,,,,,,,,,,,,,,,,160,W,star,0,0,,,,,,,,,,,,,,,,repeat,letter,NA,j,1.1654,noRew,,,,,,0,,,,,,,,high,16,0,16,0,1,,,,,,,,,
293968,2022-09-21_13h54.50.679,vts_reward_expectancy,2022.2.4,MacIntel,59.99880002,Chrome,1440,900,,,,,1,726,,,,,,,,,,,,,,,,,167,Y,hexagon,1,1,,,,,,,,,,,,,,,,switch,number,numSwt,f,1.9648,noRew,,,,,,0,,,,,,,,high,17,0,17,0,1,,,,,,,,,
293968,2022-09-21_13h54.50.679,vts_reward_expectancy,2022.2.4,MacIntel,59.99880002,Chrome,1440,900,,,,,1,727,,,,,,,,,,,,,,,,,181,B,hexagon,1,0,,,,,,,,,,,,,,,,switch,letter,lettSwt,j,1.222,noRew,,,,,,0,,,,,,,,high,18,0,18,0,1,,,,,,,,,
293968,2022-09-21_13h54.50.679,vts_reward_expectancy,2022.2.4,MacIntel,59.99880002,Chrome,1440,900,,,,,0,727,,,,,,,,,,,,,,,,,146,D,star,0,0,,,,,,,,,,,,,,,,repeat,letter,NA,k,0.3257,noRew,,,,,,0,,,,,,,,high,19,0,19,0,1,,,,,,,,,
293968,2022-09-21_13h54.50.679,vts_reward_expectancy,2022.2.4,MacIntel,59.99880002,Chrome,1440,900,,,,,10,737,,,,,,,,,,,,,,,,,132,U,hexagon,1,1,,,,,,,,,,,,,,,,switch,number,numSwt,d,1.1476,noRew,,,,,,0,,,,,,,,high,20,0,20,0,1,,,,,,,,,
293968,2022-09-21_13h54.50.679,vts_reward_expectancy,2022.2.4,MacIntel,59.99880002,Chrome,1440,900,,,,,10,747,,,,,,,,,,,,,,,,,125,S,star,1,0,,,,,,,,,,,,,,,,repeat,number,numRpt,d,0.8299,noRew,,,,,,0,,,,,,,,high,21,0,21,0,1,,,,,,,,,
293968,2022-09-21_13h54.50.679,vts_reward_expectancy,2022.2.4,MacIntel,59.99880002,Chrome,1440,900,,,,,1,748,,,,,,,,,,,,,,,,,174,F,hexagon,1,0,,,,,,,,,,,,,,,,switch,letter,lettSwt,j,0.7639,noRew,,,,,,0,,,,,,,,high,22,0,22,0,1,,,,,,,,,
293968,2022-09-21_13h54.50.679,vts_reward_expectancy,2022.2.4,MacIntel,59.99880002,Chrome,1440,900,,,,,0,748,,,,,,,,,,,,,,,,,139,H,star,0,0,,,,,,,,,,,,,,,,repeat,letter,NA,k,1.597,noRew,,,,,,0,,,,,,,,high,23,0,23,0,1,,,,,,,,,
293968,2022-09-21_13h54.50.679,vts_reward_expectancy,2022.2.4,MacIntel,59.99880002,Chrome,1440,900,,,,,0,748,,,,,,,,,,,,,,,,,132,Y,star,0,1,,,,,,,,,,,,,,,,repeat,letter,NA,j,0.7946,noRew,,,,,,0,,,,,,,,high,24,0,24,0,1,,,,,,,,,
293968,2022-09-21_13h54.50.679,vts_reward_expectancy,2022.2.4,MacIntel,59.99880002,Chrome,1440,900,,,,,1,749,,,,,,,,,,,,,,,,,181,B,hexagon,1,1,,,,,,,,,,,,,,,,repeat,letter,lettRpt,j,0.8592,noRew,,,,,,0,,,,,,,,high,25,0,25,0,1,,,,,,,,,
293968,2022-09-21_13h54.50.679,vts_reward_expectancy,2022.2.4,MacIntel,59.99880002,Chrome,1440,900,,,,,10,759,,,,,,,,,,,,,,,,,125,D,star,1,0,,,,,,,,,,,,,,,,switch,number,numSwt,d,0.4936,noRew,,,,,,0,,,,,,,,high,26,0,26,0,1,,,,,,,,,
293968,2022-09-21_13h54.50.679,vts_reward_expectancy,2022.2.4,MacIntel,59.99880002,Chrome,1440,900,,,,,1,760,,,,,,,,,,,,,,,,,139,H,hexagon,1,0,,,,,,,,,,,,,,,,repeat,number,numRpt,d,1.1002,noRew,,,,,,0,,,,,,,,high,27,0,27,0,1,,,,,,,,,
293968,2022-09-21_13h54.50.679,vts_reward_expectancy,2022.2.4,MacIntel,59.99880002,Chrome,1440,900,,,,,1,761,,,,,,,,,,,,,,,,,160,F,hexagon,1,0,,,,,,,,,,,,,,,,repeat,number,numRpt,f,1.1482,noRew,,,,,,0,,,,,,,,high,28,0,28,0,1,,,,,,,,,
293968,2022-09-21_13h54.50.679,vts_reward_expectancy,2022.2.4,MacIntel,59.99880002,Chrome,1440,900,,,,,0,761,,,,,,,,,,,,,,,,,146,S,star,1,0,,,,,,,,,,,,,,,,repeat,number,numRpt,d,1.3271,noRew,,,,,,0,,,,,,,,high,29,0,29,0,1,,,,,,,,,
293968,2022-09-21_13h54.50.679,vts_reward_expectancy,2022.2.4,MacIntel,59.99880002,Chrome,1440,900,,,,,1,762,,,,,,,,,,,,,,,,,167,U,hexagon,1,0,,,,,,,,,,,,,,,,repeat,number,numRpt,f,1.097,noRew,,,,,,0,,,,,,,,high,30,0,30,0,1,,,,,,,,,
293968,2022-09-21_13h54.50.679,vts_reward_expectancy,2022.2.4,MacIntel,59.99880002,Chrome,1440,900,,,,,10,772,,,,,,,,,,,,,,,,,174,W,star,1,0,,,,,,,,,,,,,,,,switch,letter,lettSwt,k,0.7464,noRew,,,,,,0,,,,,,,,high,31,0,31,0,1,,,,,,,,,
293968,2022-09-21_13h54.50.679,vts_reward_expectancy,2022.2.4,MacIntel,59.99880002,Chrome,1440,900,,,,,1,773,,,,,,,,,,,,,,,,,181,F,hexagon,1,0,,,,,,,,,,,,,,,,switch,number,numSwt,f,0.8179,noRew,,,,,,1,,,,,,space,7.3213,high,0,0,0,0,1,,,,,,,,,
293968,2022-09-21_13h54.50.679,vts_reward_expectancy,2022.2.4,MacIntel,59.99880002,Chrome,1440,900,,,,,0,773,,,,,,,,,,,,,,,,,174,S,star,1,0,,,,,,,,,,,,,,,,switch,letter,lettSwt,k,0.7775,noRew,,,,,,1,,,,,,,,high,1,0,1,0,1,,,,,,,,,
293968,2022-09-21_13h54.50.679,vts_reward_expectancy,2022.2.4,MacIntel,59.99880002,Chrome,1440,900,,,,,1,774,,,,,,,,,,,,,,,,,146,H,hexagon,1,0,,,,,,,,,,,,,,,,switch,number,numSwt,d,0.8812,noRew,,,,,,1,,,,,,,,high,2,0,2,0,1,,,,,,,,,
293968,2022-09-21_13h54.50.679,vts_reward_expectancy,2022.2.4,MacIntel,59.99880002,Chrome,1440,900,,,,,10,784,,,,,,,,,,,,,,,,,125,W,star,1,0,,,,,,,,,,,,,,,,switch,letter,lettSwt,k,0.6966,noRew,,,,,,1,,,,,,,,high,3,0,3,0,1,,,,,,,,,
293968,2022-09-21_13h54.50.679,vts_reward_expectancy,2022.2.4,MacIntel,59.99880002,Chrome,1440,900,,,,,1,785,,,,,,,,,,,,,,,,,160,Y,hexagon,1,0,,,,,,,,,,,,,,,,repeat,letter,lettRpt,k,0.7638,noRew,,,,,,1,,,,,,,,high,4,0,4,0,1,,,,,,,,,
293968,2022-09-21_13h54.50.679,vts_reward_expectancy,2022.2.4,MacIntel,59.99880002,Chrome,1440,900,,,,,10,795,,,,,,,,,,,,,,,,,132,U,star,1,0,,,,,,,,,,,,,,,,repeat,letter,lettRpt,k,0.8714,noRew,,,,,,1,,,,,,,,high,5,0,5,0,1,,,,,,,,,
293968,2022-09-21_13h54.50.679,vts_reward_expectancy,2022.2.4,MacIntel,59.99880002,Chrome,1440,900,,,,,10,805,,,,,,,,,,,,,,,,,167,B,star,1,0,,,,,,,,,,,,,,,,repeat,letter,lettRpt,j,0.6604,noRew,,,,,,1,,,,,,,,high,6,0,6,0,1,,,,,,,,,
293968,2022-09-21_13h54.50.679,vts_reward_expectancy,2022.2.4,MacIntel,59.99880002,Chrome,1440,900,,,,,1,806,,,,,,,,,,,,,,,,,139,D,hexagon,1,0,,,,,,,,,,,,,,,,repeat,letter,lettRpt,j,0.9815,noRew,,,,,,1,,,,,,,,high,7,0,7,0,1,,,,,,,,,
293968,2022-09-21_13h54.50.679,vts_reward_expectancy,2022.2.4,MacIntel,59.99880002,Chrome,1440,900,,,,,0,806,,,,,,,,,,,,,,,,,181,F,star,0,0,,,,,,,,,,,,,,,,switch,number,NA,d,0.7807,noRew,,,,,,1,,,,,,,,high,8,0,8,0,1,,,,,,,,,
293968,2022-09-21_13h54.50.679,vts_reward_expectancy,2022.2.4,MacIntel,59.99880002,Chrome,1440,900,,,,,1,807,,,,,,,,,,,,,,,,,174,S,hexagon,1,1,,,,,,,,,,,,,,,,switch,letter,lettSwt,k,1.0645,noRew,,,,,,1,,,,,,,,high,9,0,9,0,1,,,,,,,,,
293968,2022-09-21_13h54.50.679,vts_reward_expectancy,2022.2.4,MacIntel,59.99880002,Chrome,1440,900,,,,,0,807,,,,,,,,,,,,,,,,,146,H,star,1,0,,,,,,,,,,,,,,,,switch,number,numSwt,d,1.0282,noRew,,,,,,1,,,,,,,,high,10,0,10,0,1,,,,,,,,,
293968,2022-09-21_13h54.50.679,vts_reward_expectancy,2022.2.4,MacIntel,59.99880002,Chrome,1440,900,,,,,10,817,,,,,,,,,,,,,,,,,125,W,hexagon,1,0,,,,,,,,,,,,,,,,switch,letter,lettSwt,k,0.7492,noRew,,,,,,1,,,,,,,,high,11,0,11,0,1,,,,,,,,,
293968,2022-09-21_13h54.50.679,vts_reward_expectancy,2022.2.4,MacIntel,59.99880002,Chrome,1440,900,,,,,10,827,,,,,,,,,,,,,,,,,160,Y,star,1,0,,,,,,,,,,,,,,,,repeat,letter,lettRpt,k,0.5965,noRew,,,,,,1,,,,,,,,high,12,0,12,0,1,,,,,,,,,
293968,2022-09-21_13h54.50.679,vts_reward_expectancy,2022.2.4,MacIntel,59.99880002,Chrome,1440,900,,,,,1,828,,,,,,,,,,,,,,,,,132,U,hexagon,1,0,,,,,,,,,,,,,,,,repeat,letter,lettRpt,k,1.1982,noRew,,,,,,1,,,,,,,,high,13,0,13,0,1,,,,,,,,,
293968,2022-09-21_13h54.50.679,vts_reward_expectancy,2022.2.4,MacIntel,59.99880002,Chrome,1440,900,,,,,0,828,,,,,,,,,,,,,,,,,167,B,hexagon,0,0,,,,,,,,,,,,,,,,repeat,letter,NA,k,0.8968,noRew,,,,,,1,,,,,,,,high,14,0,14,0,1,,,,,,,,,
293968,2022-09-21_13h54.50.679,vts_reward_expectancy,2022.2.4,MacIntel,59.99880002,Chrome,1440,900,,,,,10,838,,,,,,,,,,,,,,,,,139,D,star,1,1,,,,,,,,,,,,,,,,switch,number,numSwt,d,0.5806,noRew,,,,,,1,,,,,,,,high,15,0,15,0,1,,,,,,,,,
293968,2022-09-21_13h54.50.679,vts_reward_expectancy,2022.2.4,MacIntel,59.99880002,Chrome,1440,900,,,,,0,838,,,,,,,,,,,,,,,,,132,W,star,1,0,,,,,,,,,,,,,,,,repeat,number,numRpt,d,0.9138,noRew,,,,,,1,,,,,,,,high,16,0,16,0,1,,,,,,,,,
293968,2022-09-21_13h54.50.679,vts_reward_expectancy,2022.2.4,MacIntel,59.99880002,Chrome,1440,900,,,,,1,839,,,,,,,,,,,,,,,,,167,D,hexagon,1,0,,,,,,,,,,,,,,,,switch,letter,lettSwt,j,0.7813,noRew,,,,,,1,,,,,,,,high,17,0,17,0,1,,,,,,,,,
293968,2022-09-21_13h54.50.679,vts_reward_expectancy,2022.2.4,MacIntel,59.99880002,Chrome,1440,900,,,,,0,839,,,,,,,,,,,,,,,,,181,Y,star,0,0,,,,,,,,,,,,,,,,switch,number,NA,d,0.6862,noRew,,,,,,1,,,,,,,,high,18,0,18,0,1,,,,,,,,,
293968,2022-09-21_13h54.50.679,vts_reward_expectancy,2022.2.4,MacIntel,59.99880002,Chrome,1440,900,,,,,1,840,,,,,,,,,,,,,,,,,174,H,hexagon,1,1,,,,,,,,,,,,,,,,repeat,number,numRpt,f,1.3994,noRew,,,,,,1,,,,,,,,high,19,0,19,0,1,,,,,,,,,
293968,2022-09-21_13h54.50.679,vts_reward_expectancy,2022.2.4,MacIntel,59.99880002,Chrome,1440,900,,,,,1,841,,,,,,,,,,,,,,,,,139,F,hexagon,1,0,,,,,,,,,,,,,,,,switch,letter,lettSwt,j,0.7366,noRew,,,,,,1,,,,,,,,high,20,0,20,0,1,,,,,,,,,
293968,2022-09-21_13h54.50.679,vts_reward_expectancy,2022.2.4,MacIntel,59.99880002,Chrome,1440,900,,,,,10,851,,,,,,,,,,,,,,,,,125,U,star,1,0,,,,,,,,,,,,,,,,repeat,letter,lettRpt,k,0.9683,noRew,,,,,,1,,,,,,,,high,21,0,21,0,1,,,,,,,,,
293968,2022-09-21_13h54.50.679,vts_reward_expectancy,2022.2.4,MacIntel,59.99880002,Chrome,1440,900,,,,,0,851,,,,,,,,,,,,,,,,,160,B,star,0,0,,,,,,,,,,,,,,,,switch,number,NA,d,1.7808,noRew,,,,,,1,,,,,,,,high,22,0,22,0,1,,,,,,,,,
293968,2022-09-21_13h54.50.679,vts_reward_expectancy,2022.2.4,MacIntel,59.99880002,Chrome,1440,900,,,,,10,861,,,,,,,,,,,,,,,,,146,S,hexagon,1,1,,,,,,,,,,,,,,,,repeat,number,numRpt,d,1.1313,noRew,,,,,,1,,,,,,,,high,23,0,23,0,1,,,,,,,,,
293968,2022-09-21_13h54.50.679,vts_reward_expectancy,2022.2.4,MacIntel,59.99880002,Chrome,1440,900,,,,,10,871,,,,,,,,,,,,,,,,,125,U,hexagon,1,0,,,,,,,,,,,,,,,,switch,letter,lettSwt,k,1.1173,noRew,,,,,,1,,,,,,,,high,24,0,24,0,1,,,,,,,,,
293968,2022-09-21_13h54.50.679,vts_reward_expectancy,2022.2.4,MacIntel,59.99880002,Chrome,1440,900,,,,,10,881,,,,,,,,,,,,,,,,,132,B,star,1,0,,,,,,,,,,,,,,,,repeat,letter,lettRpt,j,0.5981,noRew,,,,,,1,,,,,,,,high,25,0,25,0,1,,,,,,,,,
293968,2022-09-21_13h54.50.679,vts_reward_expectancy,2022.2.4,MacIntel,59.99880002,Chrome,1440,900,,,,,0,881,,,,,,,,,,,,,,,,,174,H,hexagon,0,0,,,,,,,,,,,,,,,,repeat,letter,NA,k,1.3971,noRew,,,,,,1,,,,,,,,high,26,0,26,0,1,,,,,,,,,
293968,2022-09-21_13h54.50.679,vts_reward_expectancy,2022.2.4,MacIntel,59.99880002,Chrome,1440,900,,,,,0,881,,,,,,,,,,,,,,,,,167,D,star,1,1,,,,,,,,,,,,,,,,switch,number,numSwt,f,1.1274,noRew,,,,,,1,,,,,,,,high,27,0,27,0,1,,,,,,,,,
293968,2022-09-21_13h54.50.679,vts_reward_expectancy,2022.2.4,MacIntel,59.99880002,Chrome,1440,900,,,,,1,882,,,,,,,,,,,,,,,,,160,S,hexagon,1,0,,,,,,,,,,,,,,,,switch,letter,lettSwt,k,1.33,noRew,,,,,,1,,,,,,,,high,28,0,28,0,1,,,,,,,,,
293968,2022-09-21_13h54.50.679,vts_reward_expectancy,2022.2.4,MacIntel,59.99880002,Chrome,1440,900,,,,,10,892,,,,,,,,,,,,,,,,,146,Y,star,1,0,,,,,,,,,,,,,,,,repeat,letter,lettRpt,k,0.6647,noRew,,,,,,1,,,,,,,,high,29,0,29,0,1,,,,,,,,,
293968,2022-09-21_13h54.50.679,vts_reward_expectancy,2022.2.4,MacIntel,59.99880002,Chrome,1440,900,,,,,1,893,,,,,,,,,,,,,,,,,181,F,hexagon,1,0,,,,,,,,,,,,,,,,repeat,letter,lettRpt,j,0.6949,noRew,,,,,,1,,,,,,,,high,30,0,30,0,1,,,,,,,,,
293968,2022-09-21_13h54.50.679,vts_reward_expectancy,2022.2.4,MacIntel,59.99880002,Chrome,1440,900,,,,,10,903,,,,,,,,,,,,,,,,,139,W,star,1,0,,,,,,,,,,,,,,,,repeat,letter,lettRpt,k,0.7648,noRew,,,,,,1,,,,,,,,high,31,0,31,0,1,,,,,,,,,
293968,2022-09-21_13h54.50.679,vts_reward_expectancy,2022.2.4,MacIntel,59.99880002,Chrome,1440,900,,,,,0,903,,,,,,,,,,,,,,,,,167,D,triangle,1,0,,,,,,,,,,,,,,,,switch,number,numSwt,f,1.2373,noRew,,,,,,2,,,,,,space,0.8404,low,0,0,0,0,1,,,,,,,,,
293968,2022-09-21_13h54.50.679,vts_reward_expectancy,2022.2.4,MacIntel,59.99880002,Chrome,1440,900,,,,,1,904,,,,,,,,,,,,,,,,,125,S,circle,1,0,,,,,,,,,,,,,,,,repeat,number,numRpt,d,1.0356,noRew,,,,,,2,,,,,,,,low,1,0,1,0,1,,,,,,,,,
293968,2022-09-21_13h54.50.679,vts_reward_expectancy,2022.2.4,MacIntel,59.99880002,Chrome,1440,900,,,,,10,914,,,,,,,,,,,,,,,,,132,W,triangle,1,0,,,,,,,,,,,,,,,,repeat,number,numRpt,d,0.7765,noRew,,,,,,2,,,,,,,,low,2,0,2,0,1,,,,,,,,,
293968,2022-09-21_13h54.50.679,vts_reward_expectancy,2022.2.4,MacIntel,59.99880002,Chrome,1440,900,,,,,10,924,,,,,,,,,,,,,,,,,146,U,circle,1,0,,,,,,,,,,,,,,,,repeat,number,numRpt,d,0.9629,noRew,,,,,,2,,,,,,,,low,3,0,3,0,1,,,,,,,,,
293968,2022-09-21_13h54.50.679,vts_reward_expectancy,2022.2.4,MacIntel,59.99880002,Chrome,1440,900,,,,,1,925,,,,,,,,,,,,,,,,,174,F,circle,1,0,,,,,,,,,,,,,,,,repeat,number,numRpt,f,0.9066,noRew,,,,,,2,,,,,,,,low,4,0,4,0,1,,,,,,,,,
293968,2022-09-21_13h54.50.679,vts_reward_expectancy,2022.2.4,MacIntel,59.99880002,Chrome,1440,900,,,,,1,926,,,,,,,,,,,,,,,,,181,H,triangle,1,0,,,,,,,,,,,,,,,,repeat,number,numRpt,f,0.9217,noRew,,,,,,2,,,,,,,,low,5,0,5,0,1,,,,,,,,,
293968,2022-09-21_13h54.50.679,vts_reward_expectancy,2022.2.4,MacIntel,59.99880002,Chrome,1440,900,,,,,0,926,,,,,,,,,,,,,,,,,160,B,triangle,1,0,,,,,,,,,,,,,,,,switch,letter,lettSwt,j,0.9126,noRew,,,,,,2,,,,,,,,low,6,0,6,0,1,,,,,,,,,
293968,2022-09-21_13h54.50.679,vts_reward_expectancy,2022.2.4,MacIntel,59.99880002,Chrome,1440,900,,,,,10,936,,,,,,,,,,,,,,,,,139,Y,circle,1,0,,,,,,,,,,,,,,,,repeat,letter,lettRpt,k,0.7292,noRew,,,,,,2,,,,,,,,low,7,0,7,0,1,,,,,,,,,
293968,2022-09-21_13h54.50.679,vts_reward_expectancy,2022.2.4,MacIntel,59.99880002,Chrome,1440,900,,,,,0,936,,,,,,,,,,,,,,,,,167,D,triangle,1,0,,,,,,,,,,,,,,,,repeat,letter,lettRpt,j,1.2826,noRew,,,,,,2,,,,,,,,low,8,0,8,0,1,,,,,,,,,
293968,2022-09-21_13h54.50.679,vts_reward_expectancy,2022.2.4,MacIntel,59.99880002,Chrome,1440,900,,,,,1,937,,,,,,,,,,,,,,,,,125,S,circle,1,0,,,,,,,,,,,,,,,,switch,number,numSwt,d,0.8518,noRew,,,,,,2,,,,,,,,low,9,0,9,0,1,,,,,,,,,
293968,2022-09-21_13h54.50.679,vts_reward_expectancy,2022.2.4,MacIntel,59.99880002,Chrome,1440,900,,,,,1,938,,,,,,,,,,,,,,,,,132,W,circle,1,0,,,,,,,,,,,,,,,,switch,letter,lettSwt,k,0.6501,noRew,,,,,,2,,,,,,,,low,10,0,10,0,1,,,,,,,,,
293968,2022-09-21_13h54.50.679,vts_reward_expectancy,2022.2.4,MacIntel,59.99880002,Chrome,1440,900,,,,,0,938,,,,,,,,,,,,,,,,,146,U,triangle,1,0,,,,,,,,,,,,,,,,switch,number,numSwt,d,1.3128,noRew,,,,,,2,,,,,,,,low,11,0,11,0,1,,,,,,,,,
293968,2022-09-21_13h54.50.679,vts_reward_expectancy,2022.2.4,MacIntel,59.99880002,Chrome,1440,900,,,,,0,938,,,,,,,,,,,,,,,,,174,F,triangle,0,0,,,,,,,,,,,,,,,,switch,letter,NA,k,0.8864,noRew,,,,,,2,,,,,,,,low,12,0,12,0,1,,,,,,,,,
293968,2022-09-21_13h54.50.679,vts_reward_expectancy,2022.2.4,MacIntel,59.99880002,Chrome,1440,900,,,,,1,939,,,,,,,,,,,,,,,,,181,H,circle,1,1,,,,,,,,,,,,,,,,repeat,letter,lettRpt,j,0.9323,noRew,,,,,,2,,,,,,,,low,13,0,13,0,1,,,,,,,,,
293968,2022-09-21_13h54.50.679,vts_reward_expectancy,2022.2.4,MacIntel,59.99880002,Chrome,1440,900,,,,,0,939,,,,,,,,,,,,,,,,,160,B,triangle,1,0,,,,,,,,,,,,,,,,switch,number,numSwt,f,1.1846,noRew,,,,,,2,,,,,,,,low,14,0,14,0,1,,,,,,,,,
293968,2022-09-21_13h54.50.679,vts_reward_expectancy,2022.2.4,MacIntel,59.99880002,Chrome,1440,900,,,,,1,940,,,,,,,,,,,,,,,,,139,Y,circle,1,0,,,,,,,,,,,,,,,,switch,letter,lettSwt,k,0.6859,noRew,,,,,,2,,,,,,,,low,15,0,15,0,1,,,,,,,,,
293968,2022-09-21_13h54.50.679,vts_reward_expectancy,2022.2.4,MacIntel,59.99880002,Chrome,1440,900,,,,,0,940,,,,,,,,,,,,,,,,,181,F,triangle,0,0,,,,,,,,,,,,,,,,switch,number,NA,d,1.0329,noRew,,,,,,2,,,,,,,,low,16,0,16,0,1,,,,,,,,,
293968,2022-09-21_13h54.50.679,vts_reward_expectancy,2022.2.4,MacIntel,59.99880002,Chrome,1440,900,,,,,10,950,,,,,,,,,,,,,,,,,174,U,circle,1,1,,,,,,,,,,,,,,,,repeat,number,numRpt,f,1.1989,noRew,,,,,,2,,,,,,,,low,17,0,17,0,1,,,,,,,,,
293968,2022-09-21_13h54.50.679,vts_reward_expectancy,2022.2.4,MacIntel,59.99880002,Chrome,1440,900,,,,,1,951,,,,,,,,,,,,,,,,,167,H,circle,1,0,,,,,,,,,,,,,,,,switch,letter,lettSwt,j,0.7433,noRew,,,,,,2,,,,,,,,low,18,0,18,0,1,,,,,,,,,
293968,2022-09-21_13h54.50.679,vts_reward_expectancy,2022.2.4,MacIntel,59.99880002,Chrome,1440,900,,,,,0,951,,,,,,,,,,,,,,,,,125,S,triangle,1,0,,,,,,,,,,,,,,,,repeat,letter,lettRpt,k,0.8141,noRew,,,,,,2,,,,,,,,low,19,0,19,0,1,,,,,,,,,
293968,2022-09-21_13h54.50.679,vts_reward_expectancy,2022.2.4,MacIntel,59.99880002,Chrome,1440,900,,,,,1,952,,,,,,,,,,,,,,,,,139,Y,circle,1,0,,,,,,,,,,,,,,,,repeat,letter,lettRpt,k,0.5637,noRew,,,,,,2,,,,,,,,low,20,0,20,0,1,,,,,,,,,
293968,2022-09-21_13h54.50.679,vts_reward_expectancy,2022.2.4,MacIntel,59.99880002,Chrome,1440,900,,,,,10,962,,,,,,,,,,,,,,,,,146,D,triangle,1,0,,,,,,,,,,,,,,,,repeat,letter,lettRpt,j,0.5965,noRew,,,,,,2,,,,,,,,low,21,0,21,0,1,,,,,,,,,
293968,2022-09-21_13h54.50.679,vts_reward_expectancy,2022.2.4,MacIntel,59.99880002,Chrome,1440,900,,,,,10,972,,,,,,,,,,,,,,,,,160,W,circle,1,0,,,,,,,,,,,,,,,,repeat,letter,lettRpt,k,0.5153,noRew,,,,,,2,,,,,,,,low,22,0,22,0,1,,,,,,,,,
293968,2022-09-21_13h54.50.679,vts_reward_expectancy,2022.2.4,MacIntel,59.99880002,Chrome,1440,900,,,,,10,982,,,,,,,,,,,,,,,,,132,B,triangle,1,0,,,,,,,,,,,,,,,,repeat,letter,lettRpt,j,0.5486,noRew,,,,,,2,,,,,,,,low,23,0,23,0,1,,,,,,,,,
293968,2022-09-21_13h54.50.679,vts_reward_expectancy,2022.2.4,MacIntel,59.99880002,Chrome,1440,900,,,,,0,982,,,,,,,,,,,,,,,,,139,H,circle,0,0,,,,,,,,,,,,,,,,repeat,letter,NA,k,0.4474,noRew,,,,,,2,,,,,,,,low,24,0,24,0,1,,,,,,,,,
293968,2022-09-21_13h54.50.679,vts_reward_expectancy,2022.2.4,MacIntel,59.99880002,Chrome,1440,900,,,,,0,982,,,,,,,,,,,,,,,,,160,D,triangle,1,1,,,,,,,,,,,,,,,,repeat,letter,lettRpt,j,0.8309,noRew,,,,,,2,,,,,,,,low,25,0,25,0,1,,,,,,,,,
293968,2022-09-21_13h54.50.679,vts_reward_expectancy,2022.2.4,MacIntel,59.99880002,Chrome,1440,900,,,,,10,992,,,,,,,,,,,,,,,,,125,B,circle,1,0,,,,,,,,,,,,,,,,repeat,letter,lettRpt,j,0.6312,noRew,,,,,,2,,,,,,,,low,26,0,26,0,1,,,,,,,,,
293968,2022-09-21_13h54.50.679,vts_reward_expectancy,2022.2.4,MacIntel,59.99880002,Chrome,1440,900,,,,,1,993,,,,,,,,,,,,,,,,,181,U,triangle,1,0,,,,,,,,,,,,,,,,repeat,letter,lettRpt,k,0.5481,noRew,,,,,,2,,,,,,,,low,27,0,27,0,1,,,,,,,,,
293968,2022-09-21_13h54.50.679,vts_reward_expectancy,2022.2.4,MacIntel,59.99880002,Chrome,1440,900,,,,,1,994,,,,,,,,,,,,,,,,,132,F,triangle,1,0,,,,,,,,,,,,,,,,repeat,letter,lettRpt,j,0.6164,noRew,,,,,,2,,,,,,,,low,28,0,28,0,1,,,,,,,,,
293968,2022-09-21_13h54.50.679,vts_reward_expectancy,2022.2.4,MacIntel,59.99880002,Chrome,1440,900,,,,,1,995,,,,,,,,,,,,,,,,,167,W,circle,1,0,,,,,,,,,,,,,,,,repeat,letter,lettRpt,k,0.678,noRew,,,,,,2,,,,,,,,low,29,0,29,0,1,,,,,,,,,
293968,2022-09-21_13h54.50.679,vts_reward_expectancy,2022.2.4,MacIntel,59.99880002,Chrome,1440,900,,,,,1,996,,,,,,,,,,,,,,,,,174,S,circle,1,0,,,,,,,,,,,,,,,,repeat,letter,lettRpt,k,0.8039,noRew,,,,,,2,,,,,,,,low,30,0,30,0,1,,,,,,,,,
293968,2022-09-21_13h54.50.679,vts_reward_expectancy,2022.2.4,MacIntel,59.99880002,Chrome,1440,900,,,,,0,996,,,,,,,,,,,,,,,,,146,Y,triangle,1,0,,,,,,,,,,,,,,,,repeat,letter,lettRpt,k,0.6839,noRew,,,,,,2,,,,,,,,low,31,0,31,0,1,,,,,,,,,
293968,2022-09-21_13h54.50.679,vts_reward_expectancy,2022.2.4,MacIntel,59.99880002,Chrome,1440,900,,,,,0,996,,,,,,,,,,,,,,,,,146,W,star,1,0,,,,,,,,,,,,,,,,repeat,letter,lettRpt,k,0.8485,noRew,,,,,,3,,,,,,space,1.3689,high,0,0,0,0,1,,,,,,,,,
293968,2022-09-21_13h54.50.679,vts_reward_expectancy,2022.2.4,MacIntel,59.99880002,Chrome,1440,900,,,,,1,997,,,,,,,,,,,,,,,,,167,S,hexagon,1,0,,,,,,,,,,,,,,,,repeat,letter,lettRpt,k,0.6206,noRew,,,,,,3,,,,,,,,high,1,0,1,0,1,,,,,,,,,
293968,2022-09-21_13h54.50.679,vts_reward_expectancy,2022.2.4,MacIntel,59.99880002,Chrome,1440,900,,,,,10,1007,,,,,,,,,,,,,,,,,160,Y,star,1,0,,,,,,,,,,,,,,,,repeat,letter,lettRpt,k,0.5833,noRew,,,,,,3,,,,,,,,high,2,0,2,0,1,,,,,,,,,
293968,2022-09-21_13h54.50.679,vts_reward_expectancy,2022.2.4,MacIntel,59.99880002,Chrome,1440,900,,,,,0,1007,,,,,,,,,,,,,,,,,139,D,hexagon,0,0,,,,,,,,,,,,,,,,repeat,letter,NA,k,0.5369,noRew,,,,,,3,,,,,,,,high,3,0,3,0,1,,,,,,,,,
293968,2022-09-21_13h54.50.679,vts_reward_expectancy,2022.2.4,MacIntel,59.99880002,Chrome,1440,900,,,,,0,1007,,,,,,,,,,,,,,,,,132,F,star,0,1,,,,,,,,,,,,,,,,repeat,letter,NA,k,0.8651,noRew,,,,,,3,,,,,,,,high,4,0,4,0,1,,,,,,,,,
293968,2022-09-21_13h54.50.679,vts_reward_expectancy,2022.2.4,MacIntel,59.99880002,Chrome,1440,900,,,,,1,1008,,,,,,,,,,,,,,,,,174,B,hexagon,1,1,,,,,,,,,,,,,,,,repeat,letter,lettRpt,j,1.2452,noRew,,,,,,3,,,,,,,,high,5,0,5,0,1,,,,,,,,,
293968,2022-09-21_13h54.50.679,vts_reward_expectancy,2022.2.4,MacIntel,59.99880002,Chrome,1440,900,,,,,10,1018,,,,,,,,,,,,,,,,,181,U,hexagon,1,0,,,,,,,,,,,,,,,,repeat,letter,lettRpt,k,0.9638,noRew,,,,,,3,,,,,,,,high,6,0,6,0,1,,,,,,,,,
293968,2022-09-21_13h54.50.679,vts_reward_expectancy,2022.2.4,MacIntel,59.99880002,Chrome,1440,900,,,,,0,1018,,,,,,,,,,,,,,,,,125,H,star,1,0,,,,,,,,,,,,,,,,repeat,letter,lettRpt,j,0.7465,noRew,,,,,,3,,,,,,,,high,7,0,7,0,1,,,,,,,,,
293968,2022-09-21_13h54.50.679,vts_reward_expectancy,2022.2.4,MacIntel,59.99880002,Chrome,1440,900,,,,,0,1018,,,,,,,,,,,,,,,,,146,W,star,1,0,,,,,,,,,,,,,,,,repeat,letter,lettRpt,k,0.7199,noRew,,,,,,3,,,,,,,,high,8,0,8,0,1,,,,,,,,,
293968,2022-09-21_13h54.50.679,vts_reward_expectancy,2022.2.4,MacIntel,59.99880002,Chrome,1440,900,,,,,1,1019,,,,,,,,,,,,,,,,,167,S,hexagon,1,0,,,,,,,,,,,,,,,,repeat,letter,lettRpt,k,0.6755,noRew,,,,,,3,,,,,,,,high,9,0,9,0,1,,,,,,,,,
293968,2022-09-21_13h54.50.679,vts_reward_expectancy,2022.2.4,MacIntel,59.99880002,Chrome,1440,900,,,,,1,1020,,,,,,,,,,,,,,,,,160,Y,hexagon,1,0,,,,,,,,,,,,,,,,repeat,letter,lettRpt,k,0.6525,noRew,,,,,,3,,,,,,,,high,10,0,10,0,1,,,,,,,,,
293968,2022-09-21_13h54.50.679,vts_reward_expectancy,2022.2.4,MacIntel,59.99880002,Chrome,1440,900,,,,,0,1020,,,,,,,,,,,,,,,,,139,D,star,0,0,,,,,,,,,,,,,,,,repeat,letter,NA,k,0.8982,noRew,,,,,,3,,,,,,,,high,11,0,11,0,1,,,,,,,,,
293968,2022-09-21_13h54.50.679,vts_reward_expectancy,2022.2.4,MacIntel,59.99880002,Chrome,1440,900,,,,,0,1020,,,,,,,,,,,,,,,,,132,F,star,1,1,,,,,,,,,,,,,,,,repeat,letter,lettRpt,j,0.9306,noRew,,,,,,3,,,,,,,,high,12,0,12,0,1,,,,,,,,,
293968,2022-09-21_13h54.50.679,vts_reward_expectancy,2022.2.4,MacIntel,59.99880002,Chrome,1440,900,,,,,1,1021,,,,,,,,,,,,,,,,,174,B,hexagon,1,0,,,,,,,,,,,,,,,,repeat,letter,lettRpt,j,1.0109,noRew,,,,,,3,,,,,,,,high,13,0,13,0,1,,,,,,,,,
293968,2022-09-21_13h54.50.679,vts_reward_expectancy,2022.2.4,MacIntel,59.99880002,Chrome,1440,900,,,,,10,1031,,,,,,,,,,,,,,,,,181,U,star,1,0,,,,,,,,,,,,,,,,switch,number,numSwt,f,1.0485,noRew,,,,,,3,,,,,,,,high,14,0,14,0,1,,,,,,,,,
293968,2022-09-21_13h54.50.679,vts_reward_expectancy,2022.2.4,MacIntel,59.99880002,Chrome,1440,900,,,,,1,1032,,,,,,,,,,,,,,,,,125,H,hexagon,1,0,,,,,,,,,,,,,,,,switch,letter,lettSwt,j,1.1664,noRew,,,,,,3,,,,,,,,high,15,0,15,0,1,,,,,,,,,
293968,2022-09-21_13h54.50.679,vts_reward_expectancy,2022.2.4,MacIntel,59.99880002,Chrome,1440,900,,,,,1,1033,,,,,,,,,,,,,,,,,160,S,hexagon,1,0,,,,,,,,,,,,,,,,switch,number,numSwt,f,1.135,noRew,,,,,,3,,,,,,,,high,16,0,16,0,1,,,,,,,,,
293968,2022-09-21_13h54.50.679,vts_reward_expectancy,2022.2.4,MacIntel,59.99880002,Chrome,1440,900,,,,,0,1033,,,,,,,,,,,,,,,,,146,Y,star,1,0,,,,,,,,,,,,,,,,switch,letter,lettSwt,k,0.9317,noRew,,,,,,3,,,,,,,,high,17,0,17,0,1,,,,,,,,,
293968,2022-09-21_13h54.50.679,vts_reward_expectancy,2022.2.4,MacIntel,59.99880002,Chrome,1440,900,,,,,0,1033,,,,,,,,,,,,,,,,,125,U,star,1,0,,,,,,,,,,,,,,,,repeat,letter,lettRpt,k,0.7333,noRew,,,,,,3,,,,,,,,high,18,0,18,0,1,,,,,,,,,
293968,2022-09-21_13h54.50.679,vts_reward_expectancy,2022.2.4,MacIntel,59.99880002,Chrome,1440,900,,,,,1,1034,,,,,,,,,,,,,,,,,181,H,hexagon,1,0,,,,,,,,,,,,,,,,repeat,letter,lettRpt,j,1.0227,noRew,,,,,,3,,,,,,,,high,19,0,19,0,1,,,,,,,,,
293968,2022-09-21_13h54.50.679,vts_reward_expectancy,2022.2.4,MacIntel,59.99880002,Chrome,1440,900,,,,,1,1035,,,,,,,,,,,,,,,,,167,B,hexagon,1,0,,,,,,,,,,,,,,,,switch,number,numSwt,f,1.1555,noRew,,,,,,3,,,,,,,,high,20,0,20,0,1,,,,,,,,,
293968,2022-09-21_13h54.50.679,vts_reward_expectancy,2022.2.4,MacIntel,59.99880002,Chrome,1440,900,,,,,0,1035,,,,,,,,,,,,,,,,,174,F,star,1,0,,,,,,,,,,,,,,,,switch,letter,lettSwt,j,1.148,noRew,,,,,,3,,,,,,,,high,21,0,21,0,1,,,,,,,,,
293968,2022-09-21_13h54.50.679,vts_reward_expectancy,2022.2.4,MacIntel,59.99880002,Chrome,1440,900,,,,,0,1035,,,,,,,,,,,,,,,,,132,D,star,0,0,,,,,,,,,,,,,,,,switch,number,NA,f,0.9965,noRew,,,,,,3,,,,,,,,high,22,0,22,0,1,,,,,,,,,
293968,2022-09-21_13h54.50.679,vts_reward_expectancy,2022.2.4,MacIntel,59.99880002,Chrome,1440,900,,,,,1,1036,,,,,,,,,,,,,,,,,139,W,hexagon,1,1,,,,,,,,,,,,,,,,repeat,number,numRpt,d,0.5812,noRew,,,,,,3,,,,,,,,high,23,0,23,0,1,,,,,,,,,
293968,2022-09-21_13h54.50.679,vts_reward_expectancy,2022.2.4,MacIntel,59.99880002,Chrome,1440,900,,,,,0,1036,,,,,,,,,,,,,,,,,125,U,star,1,0,,,,,,,,,,,,,,,,switch,letter,lettSwt,k,1.0767,noRew,,,,,,3,,,,,,,,high,24,0,24,0,1,,,,,,,,,
293968,2022-09-21_13h54.50.679,vts_reward_expectancy,2022.2.4,MacIntel,59.99880002,Chrome,1440,900,,,,,0,1036,,,,,,,,,,,,,,,,,181,S,hexagon,0,0,,,,,,,,,,,,,,,,switch,number,NA,d,1.1485,noRew,,,,,,3,,,,,,,,high,25,0,25,0,1,,,,,,,,,
293968,2022-09-21_13h54.50.679,vts_reward_expectancy,2022.2.4,MacIntel,59.99880002,Chrome,1440,900,,,,,0,1036,,,,,,,,,,,,,,,,,160,F,star,1,1,,,,,,,,,,,,,,,,repeat,number,numRpt,f,1.819,noRew,,,,,,3,,,,,,,,high,26,0,26,0,1,,,,,,,,,
293968,2022-09-21_13h54.50.679,vts_reward_expectancy,2022.2.4,MacIntel,59.99880002,Chrome,1440,900,,,,,1,1037,,,,,,,,,,,,,,,,,167,D,hexagon,1,0,,,,,,,,,,,,,,,,repeat,number,numRpt,f,0.8623,noRew,,,,,,3,,,,,,,,high,27,0,27,0,1,,,,,,,,,
293968,2022-09-21_13h54.50.679,vts_reward_expectancy,2022.2.4,MacIntel,59.99880002,Chrome,1440,900,,,,,1,1038,,,,,,,,,,,,,,,,,139,B,hexagon,1,0,,,,,,,,,,,,,,,,repeat,number,numRpt,d,0.9772,noRew,,,,,,3,,,,,,,,high,28,0,28,0,1,,,,,,,,,
293968,2022-09-21_13h54.50.679,vts_reward_expectancy,2022.2.4,MacIntel,59.99880002,Chrome,1440,900,,,,,1,1039,,,,,,,,,,,,,,,,,132,H,star,1,0,,,,,,,,,,,,,,,,repeat,number,numRpt,d,0.7113,noRew,,,,,,3,,,,,,,,high,29,0,29,0,1,,,,,,,,,
293968,2022-09-21_13h54.50.679,vts_reward_expectancy,2022.2.4,MacIntel,59.99880002,Chrome,1440,900,,,,,1,1040,,,,,,,,,,,,,,,,,146,Y,hexagon,1,0,,,,,,,,,,,,,,,,repeat,number,numRpt,d,0.7057,noRew,,,,,,3,,,,,,,,high,30,0,30,0,1,,,,,,,,,
293968,2022-09-21_13h54.50.679,vts_reward_expectancy,2022.2.4,MacIntel,59.99880002,Chrome,1440,900,,,,,0,1040,,,,,,,,,,,,,,,,,174,W,star,1,0,,,,,,,,,,,,,,,,switch,letter,lettSwt,k,0.6951,noRew,,,,,,3,,,,,,,,high,31,0,31,0,1,,,,,,,,,
293968,2022-09-21_13h54.50.679,vts_reward_expectancy,2022.2.4,MacIntel,59.99880002,Chrome,1440,900,,,,,1,1041,,,,,,,,,,,,,,,,,132,F,circle,1,0,,,,,,,,,,,,,,,,switch,number,numSwt,d,1.216,noRew,,,,,,4,,,,,,space,1.2513,low,0,0,0,0,1,,,,,,,,,
293968,2022-09-21_13h54.50.679,vts_reward_expectancy,2022.2.4,MacIntel,59.99880002,Chrome,1440,900,,,,,0,1041,,,,,,,,,,,,,,,,,146,H,triangle,1,0,,,,,,,,,,,,,,,,repeat,number,numRpt,d,0.8333,noRew,,,,,,4,,,,,,,,low,1,0,1,0,1,,,,,,,,,
293968,2022-09-21_13h54.50.679,vts_reward_expectancy,2022.2.4,MacIntel,59.99880002,Chrome,1440,900,,,,,1,1042,,,,,,,,,,,,,,,,,125,D,circle,1,0,,,,,,,,,,,,,,,,repeat,number,numRpt,d,0.6477,noRew,,,,,,4,,,,,,,,low,2,0,2,0,1,,,,,,,,,
293968,2022-09-21_13h54.50.679,vts_reward_expectancy,2022.2.4,MacIntel,59.99880002,Chrome,1440,900,,,,,0,1042,,,,,,,,,,,,,,,,,181,W,triangle,1,0,,,,,,,,,,,,,,,,repeat,number,numRpt,f,0.9852,noRew,,,,,,4,,,,,,,,low,3,0,3,0,1,,,,,,,,,
293968,2022-09-21_13h54.50.679,vts_reward_expectancy,2022.2.4,MacIntel,59.99880002,Chrome,1440,900,,,,,1,1043,,,,,,,,,,,,,,,,,167,S,circle,1,0,,,,,,,,,,,,,,,,repeat,number,numRpt,f,0.7134,noRew,,,,,,4,,,,,,,,low,4,0,4,0,1,,,,,,,,,
293968,2022-09-21_13h54.50.679,vts_reward_expectancy,2022.2.4,MacIntel,59.99880002,Chrome,1440,900,,,,,1,1044,,,,,,,,,,,,,,,,,160,U,triangle,1,0,,,,,,,,,,,,,,,,repeat,number,numRpt,f,0.549,noRew,,,,,,4,,,,,,,,low,5,0,5,0,1,,,,,,,,,
293968,2022-09-21_13h54.50.679,vts_reward_expectancy,2022.2.4,MacIntel,59.99880002,Chrome,1440,900,,,,,0,1044,,,,,,,,,,,,,,,,,139,Y,circle,0,0,,,,,,,,,,,,,,,,repeat,number,NA,f,0.7966,noRew,,,,,,4,,,,,,,,low,6,0,6,0,1,,,,,,,,,
293968,2022-09-21_13h54.50.679,vts_reward_expectancy,2022.2.4,MacIntel,59.99880002,Chrome,1440,900,,,,,0,1044,,,,,,,,,,,,,,,,,174,B,triangle,1,1,,,,,,,,,,,,,,,,repeat,number,numRpt,f,0.865,noRew,,,,,,4,,,,,,,,low,7,0,7,0,1,,,,,,,,,
293968,2022-09-21_13h54.50.679,vts_reward_expectancy,2022.2.4,MacIntel,59.99880002,Chrome,1440,900,,,,,1,1045,,,,,,,,,,,,,,,,,132,F,circle,1,0,,,,,,,,,,,,,,,,repeat,number,numRpt,d,1.0137,noRew,,,,,,4,,,,,,,,low,8,0,8,0,1,,,,,,,,,
293968,2022-09-21_13h54.50.679,vts_reward_expectancy,2022.2.4,MacIntel,59.99880002,Chrome,1440,900,,,,,0,1045,,,,,,,,,,,,,,,,,146,H,triangle,1,0,,,,,,,,,,,,,,,,repeat,number,numRpt,d,0.7181,noRew,,,,,,4,,,,,,,,low,9,0,9,0,1,,,,,,,,,
293968,2022-09-21_13h54.50.679,vts_reward_expectancy,2022.2.4,MacIntel,59.99880002,Chrome,1440,900,,,,,0,1045,,,,,,,,,,,,,,,,,125,D,triangle,1,0,,,,,,,,,,,,,,,,repeat,number,numRpt,d,1.1881,noRew,,,,,,4,,,,,,,,low,10,0,10,0,1,,,,,,,,,
293968,2022-09-21_13h54.50.679,vts_reward_expectancy,2022.2.4,MacIntel,59.99880002,Chrome,1440,900,,,,,1,1046,,,,,,,,,,,,,,,,,181,W,circle,1,0,,,,,,,,,,,,,,,,repeat,number,numRpt,f,0.9202,noRew,,,,,,4,,,,,,,,low,11,0,11,0,1,,,,,,,,,
293968,2022-09-21_13h54.50.679,vts_reward_expectancy,2022.2.4,MacIntel,59.99880002,Chrome,1440,900,,,,,0,1046,,,,,,,,,,,,,,,,,167,S,triangle,1,0,,,,,,,,,,,,,,,,repeat,number,numRpt,f,0.9869,noRew,,,,,,4,,,,,,,,low,12,0,12,0,1,,,,,,,,,
293968,2022-09-21_13h54.50.679,vts_reward_expectancy,2022.2.4,MacIntel,59.99880002,Chrome,1440,900,,,,,10,1056,,,,,,,,,,,,,,,,,160,U,circle,1,0,,,,,,,,,,,,,,,,repeat,number,numRpt,f,1.1465,noRew,,,,,,4,,,,,,,,low,13,0,13,0,1,,,,,,,,,
293968,2022-09-21_13h54.50.679,vts_reward_expectancy,2022.2.4,MacIntel,59.99880002,Chrome,1440,900,,,,,0,1056,,,,,,,,,,,,,,,,,139,Y,triangle,1,0,,,,,,,,,,,,,,,,repeat,number,numRpt,d,1.0635,noRew,,,,,,4,,,,,,,,low,14,0,14,0,1,,,,,,,,,
293968,2022-09-21_13h54.50.679,vts_reward_expectancy,2022.2.4,MacIntel,59.99880002,Chrome,1440,900,,,,,10,1066,,,,,,,,,,,,,,,,,174,B,circle,1,0,,,,,,,,,,,,,,,,repeat,number,numRpt,f,0.6803,noRew,,,,,,4,,,,,,,,low,15,0,15,0,1,,,,,,,,,
293968,2022-09-21_13h54.50.679,vts_reward_expectancy,2022.2.4,MacIntel,59.99880002,Chrome,1440,900,,,,,10,1076,,,,,,,,,,,,,,,,,139,Y,triangle,1,0,,,,,,,,,,,,,,,,repeat,number,numRpt,d,0.6864,noRew,,,,,,4,,,,,,,,low,16,0,16,0,1,,,,,,,,,
293968,2022-09-21_13h54.50.679,vts_reward_expectancy,2022.2.4,MacIntel,59.99880002,Chrome,1440,900,,,,,0,1076,,,,,,,,,,,,,,,,,146,H,circle,0,0,,,,,,,,,,,,,,,,repeat,number,NA,f,0.9977,noRew,,,,,,4,,,,,,,,low,17,0,17,0,1,,,,,,,,,
293968,2022-09-21_13h54.50.679,vts_reward_expectancy,2022.2.4,MacIntel,59.99880002,Chrome,1440,900,,,,,10,1086,,,,,,,,,,,,,,,,,181,U,circle,1,1,,,,,,,,,,,,,,,,repeat,number,numRpt,f,0.8647,noRew,,,,,,4,,,,,,,,low,18,0,18,0,1,,,,,,,,,
293968,2022-09-21_13h54.50.679,vts_reward_expectancy,2022.2.4,MacIntel,59.99880002,Chrome,1440,900,,,,,10,1096,,,,,,,,,,,,,,,,,174,B,triangle,1,0,,,,,,,,,,,,,,,,repeat,number,numRpt,f,0.6316,noRew,,,,,,4,,,,,,,,low,19,0,19,0,1,,,,,,,,,
293968,2022-09-21_13h54.50.679,vts_reward_expectancy,2022.2.4,MacIntel,59.99880002,Chrome,1440,900,,,,,1,1097,,,,,,,,,,,,,,,,,125,F,circle,1,0,,,,,,,,,,,,,,,,repeat,number,numRpt,d,1.3145,noRew,,,,,,4,,,,,,,,low,20,0,20,0,1,,,,,,,,,
293968,2022-09-21_13h54.50.679,vts_reward_expectancy,2022.2.4,MacIntel,59.99880002,Chrome,1440,900,,,,,10,1107,,,,,,,,,,,,,,,,,167,W,triangle,1,0,,,,,,,,,,,,,,,,repeat,number,numRpt,f,0.5334,noRew,,,,,,4,,,,,,,,low,21,0,21,0,1,,,,,,,,,
293968,2022-09-21_13h54.50.679,vts_reward_expectancy,2022.2.4,MacIntel,59.99880002,Chrome,1440,900,,,,,1,1108,,,,,,,,,,,,,,,,,132,S,circle,1,0,,,,,,,,,,,,,,,,repeat,number,numRpt,d,1.2697,noRew,,,,,,4,,,,,,,,low,22,0,22,0,1,,,,,,,,,
293968,2022-09-21_13h54.50.679,vts_reward_expectancy,2022.2.4,MacIntel,59.99880002,Chrome,1440,900,,,,,10,1118,,,,,,,,,,,,,,,,,160,D,triangle,1,0,,,,,,,,,,,,,,,,repeat,number,numRpt,f,0.5804,noRew,,,,,,4,,,,,,,,low,23,0,23,0,1,,,,,,,,,
293968,2022-09-21_13h54.50.679,vts_reward_expectancy,2022.2.4,MacIntel,59.99880002,Chrome,1440,900,,,,,10,1128,,,,,,,,,,,,,,,,,125,B,triangle,1,0,,,,,,,,,,,,,,,,repeat,number,numRpt,d,0.5978,noRew,,,,,,4,,,,,,,,low,24,0,24,0,1,,,,,,,,,
293968,2022-09-21_13h54.50.679,vts_reward_expectancy,2022.2.4,MacIntel,59.99880002,Chrome,1440,900,,,,,1,1129,,,,,,,,,,,,,,,,,146,F,circle,1,0,,,,,,,,,,,,,,,,repeat,number,numRpt,d,0.799,noRew,,,,,,4,,,,,,,,low,25,0,25,0,1,,,,,,,,,
293968,2022-09-21_13h54.50.679,vts_reward_expectancy,2022.2.4,MacIntel,59.99880002,Chrome,1440,900,,,,,1,1130,,,,,,,,,,,,,,,,,167,W,circle,1,0,,,,,,,,,,,,,,,,repeat,number,numRpt,f,1.4338,noRew,,,,,,4,,,,,,,,low,26,0,26,0,1,,,,,,,,,
293968,2022-09-21_13h54.50.679,vts_reward_expectancy,2022.2.4,MacIntel,59.99880002,Chrome,1440,900,,,,,0,1130,,,,,,,,,,,,,,,,,160,H,triangle,1,0,,,,,,,,,,,,,,,,repeat,number,numRpt,f,1.4299,noRew,,,,,,4,,,,,,,,low,27,0,27,0,1,,,,,,,,,
293968,2022-09-21_13h54.50.679,vts_reward_expectancy,2022.2.4,MacIntel,59.99880002,Chrome,1440,900,,,,,1,1131,,,,,,,,,,,,,,,,,181,S,circle,1,0,,,,,,,,,,,,,,,,repeat,number,numRpt,f,1.1136,noRew,,,,,,4,,,,,,,,low,28,0,28,0,1,,,,,,,,,
293968,2022-09-21_13h54.50.679,vts_reward_expectancy,2022.2.4,MacIntel,59.99880002,Chrome,1440,900,,,,,0,1131,,,,,,,,,,,,,,,,,174,D,triangle,1,0,,,,,,,,,,,,,,,,repeat,number,numRpt,f,1.094,noRew,,,,,,4,,,,,,,,low,29,0,29,0,1,,,,,,,,,
293968,2022-09-21_13h54.50.679,vts_reward_expectancy,2022.2.4,MacIntel,59.99880002,Chrome,1440,900,,,,,1,1132,,,,,,,,,,,,,,,,,139,U,circle,1,0,,,,,,,,,,,,,,,,repeat,number,numRpt,d,0.9305,noRew,,,,,,4,,,,,,,,low,30,0,30,0,1,,,,,,,,,
293968,2022-09-21_13h54.50.679,vts_reward_expectancy,2022.2.4,MacIntel,59.99880002,Chrome,1440,900,,,,,0,1132,,,,,,,,,,,,,,,,,132,Y,triangle,0,0,,,,,,,,,,,,,,,,repeat,number,NA,f,1.1489,noRew,,,,,,4,,,,,,,,low,31,0,31,0,1,,,,,,,,,
293968,2022-09-21_13h54.50.679,vts_reward_expectancy,2022.2.4,MacIntel,59.99880002,Chrome,1440,900,,,,,10,1142,,,,,,,,,,,,,,,,,132,D,circle,1,1,,,,,,,,,,,,,,,,repeat,number,numRpt,d,0.9003,noRew,,,,,,5,,,,,,space,0.9735,low,0,0,0,0,1,,,,,,,,,
293968,2022-09-21_13h54.50.679,vts_reward_expectancy,2022.2.4,MacIntel,59.99880002,Chrome,1440,900,,,,,0,1142,,,,,,,,,,,,,,,,,167,Y,triangle,1,0,,,,,,,,,,,,,,,,repeat,number,numRpt,f,0.8143,noRew,,,,,,5,,,,,,,,low,1,0,1,0,1,,,,,,,,,
293968,2022-09-21_13h54.50.679,vts_reward_expectancy,2022.2.4,MacIntel,59.99880002,Chrome,1440,900,,,,,1,1143,,,,,,,,,,,,,,,,,160,W,circle,1,0,,,,,,,,,,,,,,,,switch,letter,lettSwt,k,0.5896,noRew,,,,,,5,,,,,,,,low,2,0,2,0,1,,,,,,,,,
293968,2022-09-21_13h54.50.679,vts_reward_expectancy,2022.2.4,MacIntel,59.99880002,Chrome,1440,900,,,,,10,1153,,,,,,,,,,,,,,,,,181,H,triangle,1,0,,,,,,,,,,,,,,,,repeat,letter,lettRpt,j,0.6866,noRew,,,,,,5,,,,,,,,low,3,0,3,0,1,,,,,,,,,
293968,2022-09-21_13h54.50.679,vts_reward_expectancy,2022.2.4,MacIntel,59.99880002,Chrome,1440,900,,,,,10,1163,,,,,,,,,,,,,,,,,146,U,triangle,1,0,,,,,,,,,,,,,,,,switch,number,numSwt,d,0.6472,noRew,,,,,,5,,,,,,,,low,4,0,4,0,1,,,,,,,,,
293968,2022-09-21_13h54.50.679,vts_reward_expectancy,2022.2.4,MacIntel,59.99880002,Chrome,1440,900,,,,,1,1164,,,,,,,,,,,,,,,,,139,F,circle,1,0,,,,,,,,,,,,,,,,repeat,number,numRpt,d,0.5967,noRew,,,,,,5,,,,,,,,low,5,0,5,0,1,,,,,,,,,
293968,2022-09-21_13h54.50.679,vts_reward_expectancy,2022.2.4,MacIntel,59.99880002,Chrome,1440,900,,,,,0,1164,,,,,,,,,,,,,,,,,125,S,triangle,0,0,,,,,,,,,,,,,,,,repeat,number,NA,f,1.2459,noRew,,,,,,5,,,,,,,,low,6,0,6,0,1,,,,,,,,,
293968,2022-09-21_13h54.50.679,vts_reward_expectancy,2022.2.4,MacIntel,59.99880002,Chrome,1440,900,,,,,10,1174,,,,,,,,,,,,,,,,,174,B,circle,1,1,,,,,,,,,,,,,,,,switch,letter,lettSwt,j,1.3831,noRew,,,,,,5,,,,,,,,low,7,0,7,0,1,,,,,,,,,
293968,2022-09-21_13h54.50.679,vts_reward_expectancy,2022.2.4,MacIntel,59.99880002,Chrome,1440,900,,,,,1,1175,,,,,,,,,,,,,,,,,132,D,triangle,1,0,,,,,,,,,,,,,,,,switch,number,numSwt,d,0.8365,noRew,,,,,,5,,,,,,,,low,8,0,8,0,1,,,,,,,,,
293968,2022-09-21_13h54.50.679,vts_reward_expectancy,2022.2.4,MacIntel,59.99880002,Chrome,1440,900,,,,,1,1176,,,,,,,,,,,,,,,,,167,Y,circle,1,0,,,,,,,,,,,,,,,,switch,letter,lettSwt,k,1.0328,noRew,,,,,,5,,,,,,,,low,9,0,9,0,1,,,,,,,,,
293968,2022-09-21_13h54.50.679,vts_reward_expectancy,2022.2.4,MacIntel,59.99880002,Chrome,1440,900,,,,,10,1186,,,,,,,,,,,,,,,,,160,W,triangle,1,0,,,,,,,,,,,,,,,,repeat,letter,lettRpt,k,0.9115,noRew,,,,,,5,,,,,,,,low,10,0,10,0,1,,,,,,,,,
293968,2022-09-21_13h54.50.679,vts_reward_expectancy,2022.2.4,MacIntel,59.99880002,Chrome,1440,900,,,,,0,1186,,,,,,,,,,,,,,,,,181,H,circle,0,0,,,,,,,,,,,,,,,,switch,number,NA,d,1.1822,noRew,,,,,,5,,,,,,,,low,11,0,11,0,1,,,,,,,,,
293968,2022-09-21_13h54.50.679,vts_reward_expectancy,2022.2.4,MacIntel,59.99880002,Chrome,1440,900,,,,,10,1196,,,,,,,,,,,,,,,,,146,U,circle,1,1,,,,,,,,,,,,,,,,repeat,number,numRpt,d,2.1023,noRew,,,,,,5,,,,,,,,low,12,0,12,0,1,,,,,,,,,
293968,2022-09-21_13h54.50.679,vts_reward_expectancy,2022.2.4,MacIntel,59.99880002,Chrome,1440,900,,,,,0,1196,,,,,,,,,,,,,,,,,139,F,triangle,1,0,,,,,,,,,,,,,,,,repeat,number,numRpt,d,2.0314,noRew,,,,,,5,,,,,,,,low,13,0,13,0,1,,,,,,,,,
293968,2022-09-21_13h54.50.679,vts_reward_expectancy,2022.2.4,MacIntel,59.99880002,Chrome,1440,900,,,,,10,1206,,,,,,,,,,,,,,,,,125,S,circle,1,0,,,,,,,,,,,,,,,,repeat,number,numRpt,d,0.9641,noRew,,,,,,5,,,,,,,,low,14,0,14,0,1,,,,,,,,,
293968,2022-09-21_13h54.50.679,vts_reward_expectancy,2022.2.4,MacIntel,59.99880002,Chrome,1440,900,,,,,0,1206,,,,,,,,,,,,,,,,,174,B,triangle,1,0,,,,,,,,,,,,,,,,repeat,number,numRpt,f,0.7819,noRew,,,,,,5,,,,,,,,low,15,0,15,0,1,,,,,,,,,
293968,2022-09-21_13h54.50.679,vts_reward_expectancy,2022.2.4,MacIntel,59.99880002,Chrome,1440,900,,,,,1,1207,,,,,,,,,,,,,,,,,181,S,triangle,1,0,,,,,,,,,,,,,,,,repeat,number,numRpt,f,0.5209,noRew,,,,,,5,,,,,,,,low,16,0,16,0,1,,,,,,,,,
293968,2022-09-21_13h54.50.679,vts_reward_expectancy,2022.2.4,MacIntel,59.99880002,Chrome,1440,900,,,,,10,1217,,,,,,,,,,,,,,,,,167,D,circle,1,0,,,,,,,,,,,,,,,,repeat,number,numRpt,f,0.9155,noRew,,,,,,5,,,,,,,,low,17,0,17,0,1,,,,,,,,,
293968,2022-09-21_13h54.50.679,vts_reward_expectancy,2022.2.4,MacIntel,59.99880002,Chrome,1440,900,,,,,0,1217,,,,,,,,,,,,,,,,,146,H,triangle,1,0,,,,,,,,,,,,,,,,repeat,number,numRpt,d,0.7373,noRew,,,,,,5,,,,,,,,low,18,0,18,0,1,,,,,,,,,
293968,2022-09-21_13h54.50.679,vts_reward_expectancy,2022.2.4,MacIntel,59.99880002,Chrome,1440,900,,,,,10,1227,,,,,,,,,,,,,,,,,125,F,circle,1,0,,,,,,,,,,,,,,,,repeat,number,numRpt,d,0.9625,noRew,,,,,,5,,,,,,,,low,19,0,19,0,1,,,,,,,,,
293968,2022-09-21_13h54.50.679,vts_reward_expectancy,2022.2.4,MacIntel,59.99880002,Chrome,1440,900,,,,,1,1228,,,,,,,,,,,,,,,,,139,W,circle,1,0,,,,,,,,,,,,,,,,repeat,number,numRpt,d,0.704,noRew,,,,,,5,,,,,,,,low,20,0,20,0,1,,,,,,,,,
293968,2022-09-21_13h54.50.679,vts_reward_expectancy,2022.2.4,MacIntel,59.99880002,Chrome,1440,900,,,,,0,1228,,,,,,,,,,,,,,,,,160,B,triangle,1,0,,,,,,,,,,,,,,,,repeat,number,numRpt,f,0.7371,noRew,,,,,,5,,,,,,,,low,21,0,21,0,1,,,,,,,,,
293968,2022-09-21_13h54.50.679,vts_reward_expectancy,2022.2.4,MacIntel,59.99880002,Chrome,1440,900,,,,,10,1238,,,,,,,,,,,,,,,,,174,Y,triangle,1,0,,,,,,,,,,,,,,,,repeat,number,numRpt,f,0.6836,noRew,,,,,,5,,,,,,,,low,22,0,22,0,1,,,,,,,,,
293968,2022-09-21_13h54.50.679,vts_reward_expectancy,2022.2.4,MacIntel,59.99880002,Chrome,1440,900,,,,,1,1239,,,,,,,,,,,,,,,,,132,U,circle,1,0,,,,,,,,,,,,,,,,repeat,number,numRpt,d,0.7322,noRew,,,,,,5,,,,,,,,low,23,0,23,0,1,,,,,,,,,
293968,2022-09-21_13h54.50.679,vts_reward_expectancy,2022.2.4,MacIntel,59.99880002,Chrome,1440,900,,,,,10,1249,,,,,,,,,,,,,,,,,174,D,circle,1,0,,,,,,,,,,,,,,,,repeat,number,numRpt,f,0.7844,noRew,,,,,,5,,,,,,,,low,24,0,24,0,1,,,,,,,,,
293968,2022-09-21_13h54.50.679,vts_reward_expectancy,2022.2.4,MacIntel,59.99880002,Chrome,1440,900,,,,,0,1249,,,,,,,,,,,,,,,,,139,F,triangle,1,0,,,,,,,,,,,,,,,,repeat,number,numRpt,d,0.7971,noRew,,,,,,5,,,,,,,,low,25,0,25,0,1,,,,,,,,,
293968,2022-09-21_13h54.50.679,vts_reward_expectancy,2022.2.4,MacIntel,59.99880002,Chrome,1440,900,,,,,10,1259,,,,,,,,,,,,,,,,,160,H,circle,1,0,,,,,,,,,,,,,,,,repeat,number,numRpt,f,0.9512,noRew,,,,,,5,,,,,,,,low,26,0,26,0,1,,,,,,,,,
293968,2022-09-21_13h54.50.679,vts_reward_expectancy,2022.2.4,MacIntel,59.99880002,Chrome,1440,900,,,,,0,1259,,,,,,,,,,,,,,,,,181,Y,triangle,1,0,,,,,,,,,,,,,,,,repeat,number,numRpt,f,0.9216,noRew,,,,,,5,,,,,,,,low,27,0,27,0,1,,,,,,,,,
293968,2022-09-21_13h54.50.679,vts_reward_expectancy,2022.2.4,MacIntel,59.99880002,Chrome,1440,900,,,,,10,1269,,,,,,,,,,,,,,,,,132,B,circle,1,0,,,,,,,,,,,,,,,,repeat,number,numRpt,d,0.8862,noRew,,,,,,5,,,,,,,,low,28,0,28,0,1,,,,,,,,,
293968,2022-09-21_13h54.50.679,vts_reward_expectancy,2022.2.4,MacIntel,59.99880002,Chrome,1440,900,,,,,0,1269,,,,,,,,,,,,,,,,,167,U,triangle,1,0,,,,,,,,,,,,,,,,repeat,number,numRpt,f,1.1684,noRew,,,,,,5,,,,,,,,low,29,0,29,0,1,,,,,,,,,
293968,2022-09-21_13h54.50.679,vts_reward_expectancy,2022.2.4,MacIntel,59.99880002,Chrome,1440,900,,,,,1,1270,,,,,,,,,,,,,,,,,125,S,circle,1,0,,,,,,,,,,,,,,,,repeat,number,numRpt,d,0.6813,noRew,,,,,,5,,,,,,,,low,30,0,30,0,1,,,,,,,,,
293968,2022-09-21_13h54.50.679,vts_reward_expectancy,2022.2.4,MacIntel,59.99880002,Chrome,1440,900,,,,,0,1270,,,,,,,,,,,,,,,,,146,W,triangle,0,0,,,,,,,,,,,,,,,,repeat,number,NA,f,1.0478,noRew,,,,,,5,,,,,,,,low,31,0,31,0,1,,,,,,,,,
293968,2022-09-21_13h54.50.679,vts_reward_expectancy,2022.2.4,MacIntel,59.99880002,Chrome,1440,900,,,,,,,,,,,,,,,,,,,,,,,,,,,,,,,,,,,,,,,,,,,,,,,,,,,,,,6,,,,,,,,,,,,,,use keyboard to select numbers in a range and letters in a range,2,The point value of each shape and how it effected the point values of the letters and the numbers,2,2,,2,1440,900
