participant,date,expName,psychopyVersion,OS,frameRate,browser,xResolution,yResolution,key_resp.keys,key_resp.rt,training_resp.keys,training_resp.rt,points_trial,points_cumul,trainBlock,training.thisRepN,training.thisTrialN,training.thisN,training.thisIndex,training.ran,LTriangleOpac,LCircleOpac,LHexagonOpac,LStarOpac,RTriangleOpac,RCircleOpac,RHexagonOpac,RStarOpac,LShape_ID,RShape_ID,curr_topStim,curr_bottStim,curr_shape,acc,E1,target_resp_prac1.keys,target_resp_prac1.rt,pracBlock,task1_prac_trials.thisRepN,task1_prac_trials.thisTrialN,task1_prac_trials.thisN,task1_prac_trials.thisIndex,task1_prac_trials.ran,target_resp_prac2.keys,target_resp_prac2.rt,task2_praac_trials.thisRepN,task2_praac_trials.thisTrialN,task2_praac_trials.thisN,task2_praac_trials.thisIndex,task2_praac_trials.ran,alt,task,condition,target_resp.keys,target_resp.rt,rewCond,vts_practice_trials.thisRepN,vts_practice_trials.thisTrialN,vts_practice_trials.thisN,vts_practice_trials.thisIndex,vts_practice_trials.ran,blockNum,trials_norew.thisRepN,trials_norew.thisTrialN,trials_norew.thisN,trials_norew.thisIndex,trials_norew.ran,key_resp_2.keys,key_resp_2.rt,rewExpect,trials_rew.thisRepN,trials_rew.thisTrialN,trials_rew.thisN,trials_rew.thisIndex,trials_rew.ran,Q1,Q2,Q2_text,Q3,Q4,Q5_text,Q5,xRes,yRes
294787,2022-10-03_12h58.19.421,vts_reward_expectancy,2022.2.4,MacIntel,60.0024001,Chrome,1440,900,,,,,,,,,,,,,,,,,,,,,,,,,,,,,,,,,,,,,,,,,,,,,,,,,,,,,,,,,,,,,,,,,,,,,,,,,,,,
294787,2022-10-03_12h58.19.421,vts_reward_expectancy,2022.2.4,MacIntel,60.0024001,Chrome,1440,900,space,7.1657,,,,,,,,,,,,,,,,,,,,,,,,,,,,,,,,,,,,,,,,,,,,,,,,,,,,,,,,,,,,,,,,,,,,,,,,,,
294787,2022-10-03_12h58.19.421,vts_reward_expectancy,2022.2.4,MacIntel,60.0024001,Chrome,1440,900,,,,,,,,,,,,,,,,,,,,,,,,,,,,,,,,,,,,,,,,,,,,,,,,,,,,,,,,,,,,,,,,,,,,,,,,,,,,
294787,2022-10-03_12h58.19.421,vts_reward_expectancy,2022.2.4,MacIntel,60.0024001,Chrome,1440,900,,,l,0.8242,10,10,0,0,0,0,4,1,0,1,0,0,0,0,1,0,circle,hexagon,,,,,,,,,,,,,,,,,,,,,,,,,,,,,,,,,,,,,,,,,,,,,,,,,,,,,,
294787,2022-10-03_12h58.19.421,vts_reward_expectancy,2022.2.4,MacIntel,60.0024001,Chrome,1440,900,,,l,1.1827,1,11,0,0,1,1,2,1,1,0,0,0,0,0,0,1,triangle,star,,,,,,,,,,,,,,,,,,,,,,,,,,,,,,,,,,,,,,,,,,,,,,,,,,,,,,
294787,2022-10-03_12h58.19.421,vts_reward_expectancy,2022.2.4,MacIntel,60.0024001,Chrome,1440,900,,,a,1.0006,1,12,0,0,2,2,6,1,0,0,1,0,1,0,0,0,hexagon,triangle,,,,,,,,,,,,,,,,,,,,,,,,,,,,,,,,,,,,,,,,,,,,,,,,,,,,,,
294787,2022-10-03_12h58.19.421,vts_reward_expectancy,2022.2.4,MacIntel,60.0024001,Chrome,1440,900,,,a,0.8627,10,22,0,0,3,3,7,1,0,0,1,0,0,1,0,0,hexagon,circle,,,,,,,,,,,,,,,,,,,,,,,,,,,,,,,,,,,,,,,,,,,,,,,,,,,,,,
294787,2022-10-03_12h58.19.421,vts_reward_expectancy,2022.2.4,MacIntel,60.0024001,Chrome,1440,900,,,l,0.8184,10,32,0,0,4,4,9,1,0,0,0,1,1,0,0,0,star,triangle,,,,,,,,,,,,,,,,,,,,,,,,,,,,,,,,,,,,,,,,,,,,,,,,,,,,,,
294787,2022-10-03_12h58.19.421,vts_reward_expectancy,2022.2.4,MacIntel,60.0024001,Chrome,1440,900,,,a,1.018,10,42,0,0,5,5,8,1,0,0,1,0,0,0,0,1,hexagon,star,,,,,,,,,,,,,,,,,,,,,,,,,,,,,,,,,,,,,,,,,,,,,,,,,,,,,,
294787,2022-10-03_12h58.19.421,vts_reward_expectancy,2022.2.4,MacIntel,60.0024001,Chrome,1440,900,,,l,0.9045,10,52,0,0,6,6,11,1,0,0,0,1,0,0,1,0,star,hexagon,,,,,,,,,,,,,,,,,,,,,,,,,,,,,,,,,,,,,,,,,,,,,,,,,,,,,,
294787,2022-10-03_12h58.19.421,vts_reward_expectancy,2022.2.4,MacIntel,60.0024001,Chrome,1440,900,,,a,0.8959,1,53,0,0,7,7,5,1,0,1,0,0,0,0,0,1,circle,star,,,,,,,,,,,,,,,,,,,,,,,,,,,,,,,,,,,,,,,,,,,,,,,,,,,,,,
294787,2022-10-03_12h58.19.421,vts_reward_expectancy,2022.2.4,MacIntel,60.0024001,Chrome,1440,900,,,l,0.7969,1,54,0,0,8,8,10,1,0,0,0,1,0,1,0,0,star ,circle,,,,,,,,,,,,,,,,,,,,,,,,,,,,,,,,,,,,,,,,,,,,,,,,,,,,,,
294787,2022-10-03_12h58.19.421,vts_reward_expectancy,2022.2.4,MacIntel,60.0024001,Chrome,1440,900,,,l,0.9621,10,64,0,0,9,9,3,1,0,1,0,0,1,0,0,0,circle,triangle,,,,,,,,,,,,,,,,,,,,,,,,,,,,,,,,,,,,,,,,,,,,,,,,,,,,,,
294787,2022-10-03_12h58.19.421,vts_reward_expectancy,2022.2.4,MacIntel,60.0024001,Chrome,1440,900,,,l,0.954,1,65,0,0,10,10,1,1,1,0,0,0,0,0,1,0,triangle,hexagon,,,,,,,,,,,,,,,,,,,,,,,,,,,,,,,,,,,,,,,,,,,,,,,,,,,,,,
294787,2022-10-03_12h58.19.421,vts_reward_expectancy,2022.2.4,MacIntel,60.0024001,Chrome,1440,900,,,a,0.9672,1,66,0,0,11,11,0,1,1,0,0,0,0,1,0,0,triangle,circle,,,,,,,,,,,,,,,,,,,,,,,,,,,,,,,,,,,,,,,,,,,,,,,,,,,,,,
294787,2022-10-03_12h58.19.421,vts_reward_expectancy,2022.2.4,MacIntel,60.0024001,Chrome,1440,900,,,l,1.2795,1,67,0,1,0,12,5,1,0,1,0,0,0,0,0,1,circle,star,,,,,,,,,,,,,,,,,,,,,,,,,,,,,,,,,,,,,,,,,,,,,,,,,,,,,,
294787,2022-10-03_12h58.19.421,vts_reward_expectancy,2022.2.4,MacIntel,60.0024001,Chrome,1440,900,,,l,1.0559,10,77,0,1,1,13,4,1,0,1,0,0,0,0,1,0,circle,hexagon,,,,,,,,,,,,,,,,,,,,,,,,,,,,,,,,,,,,,,,,,,,,,,,,,,,,,,
294787,2022-10-03_12h58.19.421,vts_reward_expectancy,2022.2.4,MacIntel,60.0024001,Chrome,1440,900,,,a,1.2229,1,78,0,1,2,14,1,1,1,0,0,0,0,0,1,0,triangle,hexagon,,,,,,,,,,,,,,,,,,,,,,,,,,,,,,,,,,,,,,,,,,,,,,,,,,,,,,
294787,2022-10-03_12h58.19.421,vts_reward_expectancy,2022.2.4,MacIntel,60.0024001,Chrome,1440,900,,,a,0.7884,10,88,0,1,3,15,8,1,0,0,1,0,0,0,0,1,hexagon,star,,,,,,,,,,,,,,,,,,,,,,,,,,,,,,,,,,,,,,,,,,,,,,,,,,,,,,
294787,2022-10-03_12h58.19.421,vts_reward_expectancy,2022.2.4,MacIntel,60.0024001,Chrome,1440,900,,,l,1.3887,10,98,0,1,4,16,6,1,0,0,1,0,1,0,0,0,hexagon,triangle,,,,,,,,,,,,,,,,,,,,,,,,,,,,,,,,,,,,,,,,,,,,,,,,,,,,,,
294787,2022-10-03_12h58.19.421,vts_reward_expectancy,2022.2.4,MacIntel,60.0024001,Chrome,1440,900,,,a,1.0206,10,108,0,1,5,17,2,1,1,0,0,0,0,0,0,1,triangle,star,,,,,,,,,,,,,,,,,,,,,,,,,,,,,,,,,,,,,,,,,,,,,,,,,,,,,,
294787,2022-10-03_12h58.19.421,vts_reward_expectancy,2022.2.4,MacIntel,60.0024001,Chrome,1440,900,,,l,0.9703,10,118,0,1,6,18,11,1,0,0,0,1,0,0,1,0,star,hexagon,,,,,,,,,,,,,,,,,,,,,,,,,,,,,,,,,,,,,,,,,,,,,,,,,,,,,,
294787,2022-10-03_12h58.19.421,vts_reward_expectancy,2022.2.4,MacIntel,60.0024001,Chrome,1440,900,,,l,0.9488,1,119,0,1,7,19,10,1,0,0,0,1,0,1,0,0,star ,circle,,,,,,,,,,,,,,,,,,,,,,,,,,,,,,,,,,,,,,,,,,,,,,,,,,,,,,
294787,2022-10-03_12h58.19.421,vts_reward_expectancy,2022.2.4,MacIntel,60.0024001,Chrome,1440,900,,,l,0.9755,1,120,0,1,8,20,9,1,0,0,0,1,1,0,0,0,star,triangle,,,,,,,,,,,,,,,,,,,,,,,,,,,,,,,,,,,,,,,,,,,,,,,,,,,,,,
294787,2022-10-03_12h58.19.421,vts_reward_expectancy,2022.2.4,MacIntel,60.0024001,Chrome,1440,900,,,a,0.6661,10,130,0,1,9,21,7,1,0,0,1,0,0,1,0,0,hexagon,circle,,,,,,,,,,,,,,,,,,,,,,,,,,,,,,,,,,,,,,,,,,,,,,,,,,,,,,
294787,2022-10-03_12h58.19.421,vts_reward_expectancy,2022.2.4,MacIntel,60.0024001,Chrome,1440,900,,,a,0.7718,1,131,0,1,10,22,0,1,1,0,0,0,0,1,0,0,triangle,circle,,,,,,,,,,,,,,,,,,,,,,,,,,,,,,,,,,,,,,,,,,,,,,,,,,,,,,
294787,2022-10-03_12h58.19.421,vts_reward_expectancy,2022.2.4,MacIntel,60.0024001,Chrome,1440,900,,,l,0.7975,1,132,0,1,11,23,3,1,0,1,0,0,1,0,0,0,circle,triangle,,,,,,,,,,,,,,,,,,,,,,,,,,,,,,,,,,,,,,,,,,,,,,,,,,,,,,
294787,2022-10-03_12h58.19.421,vts_reward_expectancy,2022.2.4,MacIntel,60.0024001,Chrome,1440,900,,,l,0.7523,10,142,0,2,0,24,1,1,1,0,0,0,0,0,1,0,triangle,hexagon,,,,,,,,,,,,,,,,,,,,,,,,,,,,,,,,,,,,,,,,,,,,,,,,,,,,,,
294787,2022-10-03_12h58.19.421,vts_reward_expectancy,2022.2.4,MacIntel,60.0024001,Chrome,1440,900,,,l,0.9035,10,152,0,2,1,25,9,1,0,0,0,1,1,0,0,0,star,triangle,,,,,,,,,,,,,,,,,,,,,,,,,,,,,,,,,,,,,,,,,,,,,,,,,,,,,,
294787,2022-10-03_12h58.19.421,vts_reward_expectancy,2022.2.4,MacIntel,60.0024001,Chrome,1440,900,,,a,0.9468,10,162,0,2,2,26,10,1,0,0,0,1,0,1,0,0,star ,circle,,,,,,,,,,,,,,,,,,,,,,,,,,,,,,,,,,,,,,,,,,,,,,,,,,,,,,
294787,2022-10-03_12h58.19.421,vts_reward_expectancy,2022.2.4,MacIntel,60.0024001,Chrome,1440,900,,,l,0.6686,1,163,0,2,3,27,0,1,1,0,0,0,0,1,0,0,triangle,circle,,,,,,,,,,,,,,,,,,,,,,,,,,,,,,,,,,,,,,,,,,,,,,,,,,,,,,
294787,2022-10-03_12h58.19.421,vts_reward_expectancy,2022.2.4,MacIntel,60.0024001,Chrome,1440,900,,,a,0.6639,1,164,0,2,4,28,5,1,0,1,0,0,0,0,0,1,circle,star,,,,,,,,,,,,,,,,,,,,,,,,,,,,,,,,,,,,,,,,,,,,,,,,,,,,,,
294787,2022-10-03_12h58.19.421,vts_reward_expectancy,2022.2.4,MacIntel,60.0024001,Chrome,1440,900,,,l,0.5368,10,174,0,2,5,29,4,1,0,1,0,0,0,0,1,0,circle,hexagon,,,,,,,,,,,,,,,,,,,,,,,,,,,,,,,,,,,,,,,,,,,,,,,,,,,,,,
294787,2022-10-03_12h58.19.421,vts_reward_expectancy,2022.2.4,MacIntel,60.0024001,Chrome,1440,900,,,a,0.6692,10,184,0,2,6,30,6,1,0,0,1,0,1,0,0,0,hexagon,triangle,,,,,,,,,,,,,,,,,,,,,,,,,,,,,,,,,,,,,,,,,,,,,,,,,,,,,,
294787,2022-10-03_12h58.19.421,vts_reward_expectancy,2022.2.4,MacIntel,60.0024001,Chrome,1440,900,,,a,0.8687,10,194,0,2,7,31,2,1,1,0,0,0,0,0,0,1,triangle,star,,,,,,,,,,,,,,,,,,,,,,,,,,,,,,,,,,,,,,,,,,,,,,,,,,,,,,
294787,2022-10-03_12h58.19.421,vts_reward_expectancy,2022.2.4,MacIntel,60.0024001,Chrome,1440,900,,,l,0.8624,10,204,0,2,8,32,11,1,0,0,0,1,0,0,1,0,star,hexagon,,,,,,,,,,,,,,,,,,,,,,,,,,,,,,,,,,,,,,,,,,,,,,,,,,,,,,
294787,2022-10-03_12h58.19.421,vts_reward_expectancy,2022.2.4,MacIntel,60.0024001,Chrome,1440,900,,,a,0.5183,1,205,0,2,9,33,8,1,0,0,1,0,0,0,0,1,hexagon,star,,,,,,,,,,,,,,,,,,,,,,,,,,,,,,,,,,,,,,,,,,,,,,,,,,,,,,
294787,2022-10-03_12h58.19.421,vts_reward_expectancy,2022.2.4,MacIntel,60.0024001,Chrome,1440,900,,,a,0.5949,10,215,0,2,10,34,7,1,0,0,1,0,0,1,0,0,hexagon,circle,,,,,,,,,,,,,,,,,,,,,,,,,,,,,,,,,,,,,,,,,,,,,,,,,,,,,,
294787,2022-10-03_12h58.19.421,vts_reward_expectancy,2022.2.4,MacIntel,60.0024001,Chrome,1440,900,,,l,2.0632,10,225,0,2,11,35,3,1,0,1,0,0,1,0,0,0,circle,triangle,,,,,,,,,,,,,,,,,,,,,,,,,,,,,,,,,,,,,,,,,,,,,,,,,,,,,,
294787,2022-10-03_12h58.19.421,vts_reward_expectancy,2022.2.4,MacIntel,60.0024001,Chrome,1440,900,,,l,0.935,1,226,1,0,0,0,9,1,0,0,0,1,1,0,0,0,star,triangle,,,,,,,,,,,,,,,,,,,,,,,,,,,,,,,,,,,,,,,,,,,,,,,,,,,,,,
294787,2022-10-03_12h58.19.421,vts_reward_expectancy,2022.2.4,MacIntel,60.0024001,Chrome,1440,900,,,a,0.9874,10,236,1,0,1,1,2,1,1,0,0,0,0,0,0,1,triangle,star,,,,,,,,,,,,,,,,,,,,,,,,,,,,,,,,,,,,,,,,,,,,,,,,,,,,,,
294787,2022-10-03_12h58.19.421,vts_reward_expectancy,2022.2.4,MacIntel,60.0024001,Chrome,1440,900,,,a,1.0512,10,246,1,0,2,2,10,1,0,0,0,1,0,1,0,0,star ,circle,,,,,,,,,,,,,,,,,,,,,,,,,,,,,,,,,,,,,,,,,,,,,,,,,,,,,,
294787,2022-10-03_12h58.19.421,vts_reward_expectancy,2022.2.4,MacIntel,60.0024001,Chrome,1440,900,,,l,0.5694,10,256,1,0,3,3,3,1,0,1,0,0,1,0,0,0,circle,triangle,,,,,,,,,,,,,,,,,,,,,,,,,,,,,,,,,,,,,,,,,,,,,,,,,,,,,,
294787,2022-10-03_12h58.19.421,vts_reward_expectancy,2022.2.4,MacIntel,60.0024001,Chrome,1440,900,,,a,0.5966,1,257,1,0,4,4,6,1,0,0,1,0,1,0,0,0,hexagon,triangle,,,,,,,,,,,,,,,,,,,,,,,,,,,,,,,,,,,,,,,,,,,,,,,,,,,,,,
294787,2022-10-03_12h58.19.421,vts_reward_expectancy,2022.2.4,MacIntel,60.0024001,Chrome,1440,900,,,a,0.5735,10,267,1,0,5,5,8,1,0,0,1,0,0,0,0,1,hexagon,star,,,,,,,,,,,,,,,,,,,,,,,,,,,,,,,,,,,,,,,,,,,,,,,,,,,,,,
294787,2022-10-03_12h58.19.421,vts_reward_expectancy,2022.2.4,MacIntel,60.0024001,Chrome,1440,900,,,l,0.6191,1,268,1,0,6,6,5,1,0,1,0,0,0,0,0,1,circle,star,,,,,,,,,,,,,,,,,,,,,,,,,,,,,,,,,,,,,,,,,,,,,,,,,,,,,,
294787,2022-10-03_12h58.19.421,vts_reward_expectancy,2022.2.4,MacIntel,60.0024001,Chrome,1440,900,,,a,0.5965,10,278,1,0,7,7,7,1,0,0,1,0,0,1,0,0,hexagon,circle,,,,,,,,,,,,,,,,,,,,,,,,,,,,,,,,,,,,,,,,,,,,,,,,,,,,,,
294787,2022-10-03_12h58.19.421,vts_reward_expectancy,2022.2.4,MacIntel,60.0024001,Chrome,1440,900,,,l,0.588,1,279,1,0,8,8,11,1,0,0,0,1,0,0,1,0,star,hexagon,,,,,,,,,,,,,,,,,,,,,,,,,,,,,,,,,,,,,,,,,,,,,,,,,,,,,,
294787,2022-10-03_12h58.19.421,vts_reward_expectancy,2022.2.4,MacIntel,60.0024001,Chrome,1440,900,,,l,0.572,10,289,1,0,9,9,1,1,1,0,0,0,0,0,1,0,triangle,hexagon,,,,,,,,,,,,,,,,,,,,,,,,,,,,,,,,,,,,,,,,,,,,,,,,,,,,,,
294787,2022-10-03_12h58.19.421,vts_reward_expectancy,2022.2.4,MacIntel,60.0024001,Chrome,1440,900,,,a,0.686,10,299,1,0,10,10,0,1,1,0,0,0,0,1,0,0,triangle,circle,,,,,,,,,,,,,,,,,,,,,,,,,,,,,,,,,,,,,,,,,,,,,,,,,,,,,,
294787,2022-10-03_12h58.19.421,vts_reward_expectancy,2022.2.4,MacIntel,60.0024001,Chrome,1440,900,,,l,0.5311,10,309,1,0,11,11,4,1,0,1,0,0,0,0,1,0,circle,hexagon,,,,,,,,,,,,,,,,,,,,,,,,,,,,,,,,,,,,,,,,,,,,,,,,,,,,,,
294787,2022-10-03_12h58.19.421,vts_reward_expectancy,2022.2.4,MacIntel,60.0024001,Chrome,1440,900,,,a,0.5607,10,319,1,1,0,12,0,1,1,0,0,0,0,1,0,0,triangle,circle,,,,,,,,,,,,,,,,,,,,,,,,,,,,,,,,,,,,,,,,,,,,,,,,,,,,,,
294787,2022-10-03_12h58.19.421,vts_reward_expectancy,2022.2.4,MacIntel,60.0024001,Chrome,1440,900,,,l,0.9821,10,329,1,1,1,13,5,1,0,1,0,0,0,0,0,1,circle,star,,,,,,,,,,,,,,,,,,,,,,,,,,,,,,,,,,,,,,,,,,,,,,,,,,,,,,
294787,2022-10-03_12h58.19.421,vts_reward_expectancy,2022.2.4,MacIntel,60.0024001,Chrome,1440,900,,,a,1.0216,1,330,1,1,2,14,3,1,0,1,0,0,1,0,0,0,circle,triangle,,,,,,,,,,,,,,,,,,,,,,,,,,,,,,,,,,,,,,,,,,,,,,,,,,,,,,
294787,2022-10-03_12h58.19.421,vts_reward_expectancy,2022.2.4,MacIntel,60.0024001,Chrome,1440,900,,,l,1.1563,1,331,1,1,3,15,9,1,0,0,0,1,1,0,0,0,star,triangle,,,,,,,,,,,,,,,,,,,,,,,,,,,,,,,,,,,,,,,,,,,,,,,,,,,,,,
294787,2022-10-03_12h58.19.421,vts_reward_expectancy,2022.2.4,MacIntel,60.0024001,Chrome,1440,900,,,a,0.6022,10,341,1,1,4,16,7,1,0,0,1,0,0,1,0,0,hexagon,circle,,,,,,,,,,,,,,,,,,,,,,,,,,,,,,,,,,,,,,,,,,,,,,,,,,,,,,
294787,2022-10-03_12h58.19.421,vts_reward_expectancy,2022.2.4,MacIntel,60.0024001,Chrome,1440,900,,,l,0.9835,1,342,1,1,5,17,1,1,1,0,0,0,0,0,1,0,triangle,hexagon,,,,,,,,,,,,,,,,,,,,,,,,,,,,,,,,,,,,,,,,,,,,,,,,,,,,,,
294787,2022-10-03_12h58.19.421,vts_reward_expectancy,2022.2.4,MacIntel,60.0024001,Chrome,1440,900,,,l,1.4172,1,343,1,1,6,18,8,1,0,0,1,0,0,0,0,1,hexagon,star,,,,,,,,,,,,,,,,,,,,,,,,,,,,,,,,,,,,,,,,,,,,,,,,,,,,,,
294787,2022-10-03_12h58.19.421,vts_reward_expectancy,2022.2.4,MacIntel,60.0024001,Chrome,1440,900,,,l,0.6519,1,344,1,1,7,19,4,1,0,1,0,0,0,0,1,0,circle,hexagon,,,,,,,,,,,,,,,,,,,,,,,,,,,,,,,,,,,,,,,,,,,,,,,,,,,,,,
294787,2022-10-03_12h58.19.421,vts_reward_expectancy,2022.2.4,MacIntel,60.0024001,Chrome,1440,900,,,a,1.4507,1,345,1,1,8,20,10,1,0,0,0,1,0,1,0,0,star ,circle,,,,,,,,,,,,,,,,,,,,,,,,,,,,,,,,,,,,,,,,,,,,,,,,,,,,,,
294787,2022-10-03_12h58.19.421,vts_reward_expectancy,2022.2.4,MacIntel,60.0024001,Chrome,1440,900,,,l,1.4254,10,355,1,1,9,21,6,1,0,0,1,0,1,0,0,0,hexagon,triangle,,,,,,,,,,,,,,,,,,,,,,,,,,,,,,,,,,,,,,,,,,,,,,,,,,,,,,
294787,2022-10-03_12h58.19.421,vts_reward_expectancy,2022.2.4,MacIntel,60.0024001,Chrome,1440,900,,,a,1.4359,1,356,1,1,10,22,11,1,0,0,0,1,0,0,1,0,star,hexagon,,,,,,,,,,,,,,,,,,,,,,,,,,,,,,,,,,,,,,,,,,,,,,,,,,,,,,
294787,2022-10-03_12h58.19.421,vts_reward_expectancy,2022.2.4,MacIntel,60.0024001,Chrome,1440,900,,,a,1.0171,10,366,1,1,11,23,2,1,1,0,0,0,0,0,0,1,triangle,star,,,,,,,,,,,,,,,,,,,,,,,,,,,,,,,,,,,,,,,,,,,,,,,,,,,,,,
294787,2022-10-03_12h58.19.421,vts_reward_expectancy,2022.2.4,MacIntel,60.0024001,Chrome,1440,900,,,l,0.4645,10,376,1,2,0,24,1,1,1,0,0,0,0,0,1,0,triangle,hexagon,,,,,,,,,,,,,,,,,,,,,,,,,,,,,,,,,,,,,,,,,,,,,,,,,,,,,,
294787,2022-10-03_12h58.19.421,vts_reward_expectancy,2022.2.4,MacIntel,60.0024001,Chrome,1440,900,,,l,1.1498,1,377,1,2,1,25,10,1,0,0,0,1,0,1,0,0,star ,circle,,,,,,,,,,,,,,,,,,,,,,,,,,,,,,,,,,,,,,,,,,,,,,,,,,,,,,
294787,2022-10-03_12h58.19.421,vts_reward_expectancy,2022.2.4,MacIntel,60.0024001,Chrome,1440,900,,,a,0.7629,1,378,1,2,2,26,3,1,0,1,0,0,1,0,0,0,circle,triangle,,,,,,,,,,,,,,,,,,,,,,,,,,,,,,,,,,,,,,,,,,,,,,,,,,,,,,
294787,2022-10-03_12h58.19.421,vts_reward_expectancy,2022.2.4,MacIntel,60.0024001,Chrome,1440,900,,,a,0.5877,10,388,1,2,3,27,8,1,0,0,1,0,0,0,0,1,hexagon,star,,,,,,,,,,,,,,,,,,,,,,,,,,,,,,,,,,,,,,,,,,,,,,,,,,,,,,
294787,2022-10-03_12h58.19.421,vts_reward_expectancy,2022.2.4,MacIntel,60.0024001,Chrome,1440,900,,,a,1.1,10,398,1,2,4,28,6,1,0,0,1,0,1,0,0,0,hexagon,triangle,,,,,,,,,,,,,,,,,,,,,,,,,,,,,,,,,,,,,,,,,,,,,,,,,,,,,,
294787,2022-10-03_12h58.19.421,vts_reward_expectancy,2022.2.4,MacIntel,60.0024001,Chrome,1440,900,,,a,1.3013,10,408,1,2,5,29,7,1,0,0,1,0,0,1,0,0,hexagon,circle,,,,,,,,,,,,,,,,,,,,,,,,,,,,,,,,,,,,,,,,,,,,,,,,,,,,,,
294787,2022-10-03_12h58.19.421,vts_reward_expectancy,2022.2.4,MacIntel,60.0024001,Chrome,1440,900,,,l,0.7691,10,418,1,2,6,30,11,1,0,0,0,1,0,0,1,0,star,hexagon,,,,,,,,,,,,,,,,,,,,,,,,,,,,,,,,,,,,,,,,,,,,,,,,,,,,,,
294787,2022-10-03_12h58.19.421,vts_reward_expectancy,2022.2.4,MacIntel,60.0024001,Chrome,1440,900,,,l,0.9034,10,428,1,2,7,31,4,1,0,1,0,0,0,0,1,0,circle,hexagon,,,,,,,,,,,,,,,,,,,,,,,,,,,,,,,,,,,,,,,,,,,,,,,,,,,,,,
294787,2022-10-03_12h58.19.421,vts_reward_expectancy,2022.2.4,MacIntel,60.0024001,Chrome,1440,900,,,a,0.7675,1,429,1,2,8,32,5,1,0,1,0,0,0,0,0,1,circle,star,,,,,,,,,,,,,,,,,,,,,,,,,,,,,,,,,,,,,,,,,,,,,,,,,,,,,,
294787,2022-10-03_12h58.19.421,vts_reward_expectancy,2022.2.4,MacIntel,60.0024001,Chrome,1440,900,,,a,0.8374,1,430,1,2,9,33,2,1,1,0,0,0,0,0,0,1,triangle,star,,,,,,,,,,,,,,,,,,,,,,,,,,,,,,,,,,,,,,,,,,,,,,,,,,,,,,
294787,2022-10-03_12h58.19.421,vts_reward_expectancy,2022.2.4,MacIntel,60.0024001,Chrome,1440,900,,,a,1.1481,10,440,1,2,10,34,0,1,1,0,0,0,0,1,0,0,triangle,circle,,,,,,,,,,,,,,,,,,,,,,,,,,,,,,,,,,,,,,,,,,,,,,,,,,,,,,
294787,2022-10-03_12h58.19.421,vts_reward_expectancy,2022.2.4,MacIntel,60.0024001,Chrome,1440,900,,,l,0.8245,10,450,1,2,11,35,9,1,0,0,0,1,1,0,0,0,star,triangle,,,,,,,,,,,,,,,,,,,,,,,,,,,,,,,,,,,,,,,,,,,,,,,,,,,,,,
294787,2022-10-03_12h58.19.421,vts_reward_expectancy,2022.2.4,MacIntel,60.0024001,Chrome,1440,900,,,l,0.768,10,460,2,0,0,0,11,1,0,0,0,1,0,0,1,0,star,hexagon,,,,,,,,,,,,,,,,,,,,,,,,,,,,,,,,,,,,,,,,,,,,,,,,,,,,,,
294787,2022-10-03_12h58.19.421,vts_reward_expectancy,2022.2.4,MacIntel,60.0024001,Chrome,1440,900,,,a,0.7202,10,470,2,0,1,1,6,1,0,0,1,0,1,0,0,0,hexagon,triangle,,,,,,,,,,,,,,,,,,,,,,,,,,,,,,,,,,,,,,,,,,,,,,,,,,,,,,
294787,2022-10-03_12h58.19.421,vts_reward_expectancy,2022.2.4,MacIntel,60.0024001,Chrome,1440,900,,,a,0.6522,10,480,2,0,2,2,8,1,0,0,1,0,0,0,0,1,hexagon,star,,,,,,,,,,,,,,,,,,,,,,,,,,,,,,,,,,,,,,,,,,,,,,,,,,,,,,
294787,2022-10-03_12h58.19.421,vts_reward_expectancy,2022.2.4,MacIntel,60.0024001,Chrome,1440,900,,,l,0.5747,10,490,2,0,3,3,1,1,1,0,0,0,0,0,1,0,triangle,hexagon,,,,,,,,,,,,,,,,,,,,,,,,,,,,,,,,,,,,,,,,,,,,,,,,,,,,,,
294787,2022-10-03_12h58.19.421,vts_reward_expectancy,2022.2.4,MacIntel,60.0024001,Chrome,1440,900,,,l,1.0348,1,491,2,0,4,4,5,1,0,1,0,0,0,0,0,1,circle,star,,,,,,,,,,,,,,,,,,,,,,,,,,,,,,,,,,,,,,,,,,,,,,,,,,,,,,
294787,2022-10-03_12h58.19.421,vts_reward_expectancy,2022.2.4,MacIntel,60.0024001,Chrome,1440,900,,,a,0.8644,1,492,2,0,5,5,0,1,1,0,0,0,0,1,0,0,triangle,circle,,,,,,,,,,,,,,,,,,,,,,,,,,,,,,,,,,,,,,,,,,,,,,,,,,,,,,
294787,2022-10-03_12h58.19.421,vts_reward_expectancy,2022.2.4,MacIntel,60.0024001,Chrome,1440,900,,,l,1.0472,10,502,2,0,6,6,3,1,0,1,0,0,1,0,0,0,circle,triangle,,,,,,,,,,,,,,,,,,,,,,,,,,,,,,,,,,,,,,,,,,,,,,,,,,,,,,
294787,2022-10-03_12h58.19.421,vts_reward_expectancy,2022.2.4,MacIntel,60.0024001,Chrome,1440,900,,,l,0.7033,10,512,2,0,7,7,4,1,0,1,0,0,0,0,1,0,circle,hexagon,,,,,,,,,,,,,,,,,,,,,,,,,,,,,,,,,,,,,,,,,,,,,,,,,,,,,,
294787,2022-10-03_12h58.19.421,vts_reward_expectancy,2022.2.4,MacIntel,60.0024001,Chrome,1440,900,,,a,1.3176,10,522,2,0,8,8,10,1,0,0,0,1,0,1,0,0,star ,circle,,,,,,,,,,,,,,,,,,,,,,,,,,,,,,,,,,,,,,,,,,,,,,,,,,,,,,
294787,2022-10-03_12h58.19.421,vts_reward_expectancy,2022.2.4,MacIntel,60.0024001,Chrome,1440,900,,,a,0.6526,10,532,2,0,9,9,7,1,0,0,1,0,0,1,0,0,hexagon,circle,,,,,,,,,,,,,,,,,,,,,,,,,,,,,,,,,,,,,,,,,,,,,,,,,,,,,,
294787,2022-10-03_12h58.19.421,vts_reward_expectancy,2022.2.4,MacIntel,60.0024001,Chrome,1440,900,,,l,0.8875,1,533,2,0,10,10,9,1,0,0,0,1,1,0,0,0,star,triangle,,,,,,,,,,,,,,,,,,,,,,,,,,,,,,,,,,,,,,,,,,,,,,,,,,,,,,
294787,2022-10-03_12h58.19.421,vts_reward_expectancy,2022.2.4,MacIntel,60.0024001,Chrome,1440,900,,,a,0.8031,1,534,2,0,11,11,2,1,1,0,0,0,0,0,0,1,triangle,star,,,,,,,,,,,,,,,,,,,,,,,,,,,,,,,,,,,,,,,,,,,,,,,,,,,,,,
294787,2022-10-03_12h58.19.421,vts_reward_expectancy,2022.2.4,MacIntel,60.0024001,Chrome,1440,900,,,a,0.7489,10,544,2,1,0,12,0,1,1,0,0,0,0,1,0,0,triangle,circle,,,,,,,,,,,,,,,,,,,,,,,,,,,,,,,,,,,,,,,,,,,,,,,,,,,,,,
294787,2022-10-03_12h58.19.421,vts_reward_expectancy,2022.2.4,MacIntel,60.0024001,Chrome,1440,900,,,a,1.1559,1,545,2,1,1,13,8,1,0,0,1,0,0,0,0,1,hexagon,star,,,,,,,,,,,,,,,,,,,,,,,,,,,,,,,,,,,,,,,,,,,,,,,,,,,,,,
294787,2022-10-03_12h58.19.421,vts_reward_expectancy,2022.2.4,MacIntel,60.0024001,Chrome,1440,900,,,l,0.8634,1,546,2,1,2,14,5,1,0,1,0,0,0,0,0,1,circle,star,,,,,,,,,,,,,,,,,,,,,,,,,,,,,,,,,,,,,,,,,,,,,,,,,,,,,,
294787,2022-10-03_12h58.19.421,vts_reward_expectancy,2022.2.4,MacIntel,60.0024001,Chrome,1440,900,,,a,0.5536,10,556,2,1,3,15,6,1,0,0,1,0,1,0,0,0,hexagon,triangle,,,,,,,,,,,,,,,,,,,,,,,,,,,,,,,,,,,,,,,,,,,,,,,,,,,,,,
294787,2022-10-03_12h58.19.421,vts_reward_expectancy,2022.2.4,MacIntel,60.0024001,Chrome,1440,900,,,l,0.5081,10,566,2,1,4,16,1,1,1,0,0,0,0,0,1,0,triangle,hexagon,,,,,,,,,,,,,,,,,,,,,,,,,,,,,,,,,,,,,,,,,,,,,,,,,,,,,,
294787,2022-10-03_12h58.19.421,vts_reward_expectancy,2022.2.4,MacIntel,60.0024001,Chrome,1440,900,,,a,0.6223,1,567,2,1,5,17,11,1,0,0,0,1,0,0,1,0,star,hexagon,,,,,,,,,,,,,,,,,,,,,,,,,,,,,,,,,,,,,,,,,,,,,,,,,,,,,,
294787,2022-10-03_12h58.19.421,vts_reward_expectancy,2022.2.4,MacIntel,60.0024001,Chrome,1440,900,,,a,0.9368,10,577,2,1,6,18,2,1,1,0,0,0,0,0,0,1,triangle,star,,,,,,,,,,,,,,,,,,,,,,,,,,,,,,,,,,,,,,,,,,,,,,,,,,,,,,
294787,2022-10-03_12h58.19.421,vts_reward_expectancy,2022.2.4,MacIntel,60.0024001,Chrome,1440,900,,,a,0.8028,1,578,2,1,7,19,9,1,0,0,0,1,1,0,0,0,star,triangle,,,,,,,,,,,,,,,,,,,,,,,,,,,,,,,,,,,,,,,,,,,,,,,,,,,,,,
294787,2022-10-03_12h58.19.421,vts_reward_expectancy,2022.2.4,MacIntel,60.0024001,Chrome,1440,900,,,l,0.7135,1,579,2,1,8,20,3,1,0,1,0,0,1,0,0,0,circle,triangle,,,,,,,,,,,,,,,,,,,,,,,,,,,,,,,,,,,,,,,,,,,,,,,,,,,,,,
294787,2022-10-03_12h58.19.421,vts_reward_expectancy,2022.2.4,MacIntel,60.0024001,Chrome,1440,900,,,l,0.5536,10,589,2,1,9,21,4,1,0,1,0,0,0,0,1,0,circle,hexagon,,,,,,,,,,,,,,,,,,,,,,,,,,,,,,,,,,,,,,,,,,,,,,,,,,,,,,
294787,2022-10-03_12h58.19.421,vts_reward_expectancy,2022.2.4,MacIntel,60.0024001,Chrome,1440,900,,,a,0.6001,10,599,2,1,10,22,10,1,0,0,0,1,0,1,0,0,star ,circle,,,,,,,,,,,,,,,,,,,,,,,,,,,,,,,,,,,,,,,,,,,,,,,,,,,,,,
294787,2022-10-03_12h58.19.421,vts_reward_expectancy,2022.2.4,MacIntel,60.0024001,Chrome,1440,900,,,a,0.4887,10,609,2,1,11,23,7,1,0,0,1,0,0,1,0,0,hexagon,circle,,,,,,,,,,,,,,,,,,,,,,,,,,,,,,,,,,,,,,,,,,,,,,,,,,,,,,
294787,2022-10-03_12h58.19.421,vts_reward_expectancy,2022.2.4,MacIntel,60.0024001,Chrome,1440,900,,,l,0.6121,10,619,2,2,0,24,3,1,0,1,0,0,1,0,0,0,circle,triangle,,,,,,,,,,,,,,,,,,,,,,,,,,,,,,,,,,,,,,,,,,,,,,,,,,,,,,
294787,2022-10-03_12h58.19.421,vts_reward_expectancy,2022.2.4,MacIntel,60.0024001,Chrome,1440,900,,,a,0.6359,10,629,2,2,1,25,2,1,1,0,0,0,0,0,0,1,triangle,star,,,,,,,,,,,,,,,,,,,,,,,,,,,,,,,,,,,,,,,,,,,,,,,,,,,,,,
294787,2022-10-03_12h58.19.421,vts_reward_expectancy,2022.2.4,MacIntel,60.0024001,Chrome,1440,900,,,a,0.5548,10,639,2,2,2,26,8,1,0,0,1,0,0,0,0,1,hexagon,star,,,,,,,,,,,,,,,,,,,,,,,,,,,,,,,,,,,,,,,,,,,,,,,,,,,,,,
294787,2022-10-03_12h58.19.421,vts_reward_expectancy,2022.2.4,MacIntel,60.0024001,Chrome,1440,900,,,a,0.6675,10,649,2,2,3,27,6,1,0,0,1,0,1,0,0,0,hexagon,triangle,,,,,,,,,,,,,,,,,,,,,,,,,,,,,,,,,,,,,,,,,,,,,,,,,,,,,,
294787,2022-10-03_12h58.19.421,vts_reward_expectancy,2022.2.4,MacIntel,60.0024001,Chrome,1440,900,,,a,0.9015,10,659,2,2,4,28,10,1,0,0,0,1,0,1,0,0,star ,circle,,,,,,,,,,,,,,,,,,,,,,,,,,,,,,,,,,,,,,,,,,,,,,,,,,,,,,
294787,2022-10-03_12h58.19.421,vts_reward_expectancy,2022.2.4,MacIntel,60.0024001,Chrome,1440,900,,,a,0.6685,1,660,2,2,5,29,7,1,0,0,1,0,0,1,0,0,hexagon,circle,,,,,,,,,,,,,,,,,,,,,,,,,,,,,,,,,,,,,,,,,,,,,,,,,,,,,,
294787,2022-10-03_12h58.19.421,vts_reward_expectancy,2022.2.4,MacIntel,60.0024001,Chrome,1440,900,,,l,0.7667,1,661,2,2,6,30,4,1,0,1,0,0,0,0,1,0,circle,hexagon,,,,,,,,,,,,,,,,,,,,,,,,,,,,,,,,,,,,,,,,,,,,,,,,,,,,,,
294787,2022-10-03_12h58.19.421,vts_reward_expectancy,2022.2.4,MacIntel,60.0024001,Chrome,1440,900,,,l,0.771,10,671,2,2,7,31,1,1,1,0,0,0,0,0,1,0,triangle,hexagon,,,,,,,,,,,,,,,,,,,,,,,,,,,,,,,,,,,,,,,,,,,,,,,,,,,,,,
294787,2022-10-03_12h58.19.421,vts_reward_expectancy,2022.2.4,MacIntel,60.0024001,Chrome,1440,900,,,l,1.019,1,672,2,2,8,32,5,1,0,1,0,0,0,0,0,1,circle,star,,,,,,,,,,,,,,,,,,,,,,,,,,,,,,,,,,,,,,,,,,,,,,,,,,,,,,
294787,2022-10-03_12h58.19.421,vts_reward_expectancy,2022.2.4,MacIntel,60.0024001,Chrome,1440,900,,,a,0.706,1,673,2,2,9,33,9,1,0,0,0,1,1,0,0,0,star,triangle,,,,,,,,,,,,,,,,,,,,,,,,,,,,,,,,,,,,,,,,,,,,,,,,,,,,,,
294787,2022-10-03_12h58.19.421,vts_reward_expectancy,2022.2.4,MacIntel,60.0024001,Chrome,1440,900,,,l,0.8853,1,674,2,2,10,34,11,1,0,0,0,1,0,0,1,0,star,hexagon,,,,,,,,,,,,,,,,,,,,,,,,,,,,,,,,,,,,,,,,,,,,,,,,,,,,,,
294787,2022-10-03_12h58.19.421,vts_reward_expectancy,2022.2.4,MacIntel,60.0024001,Chrome,1440,900,,,a,0.4998,1,675,2,2,11,35,0,1,1,0,0,0,0,1,0,0,triangle,circle,,,,,,,,,,,,,,,,,,,,,,,,,,,,,,,,,,,,,,,,,,,,,,,,,,,,,,
294787,2022-10-03_12h58.19.421,vts_reward_expectancy,2022.2.4,MacIntel,60.0024001,Chrome,1440,900,,,,,,,,,,,,,,,,,,,,,,,W,160,star,0,0,d,0.9959,0,0,0,0,0,1,,,,,,,,,,,,,,,,,,,,,,,,,,,,,,,,,,,,,,,,,
294787,2022-10-03_12h58.19.421,vts_reward_expectancy,2022.2.4,MacIntel,60.0024001,Chrome,1440,900,,,,,,,,,,,,,,,,,,,,,,,U,139,triangle,1,1,f,0.7163,0,1,0,1,0,1,,,,,,,,,,,,,,,,,,,,,,,,,,,,,,,,,,,,,,,,,
294787,2022-10-03_12h58.19.421,vts_reward_expectancy,2022.2.4,MacIntel,60.0024001,Chrome,1440,900,,,,,,,,,,,,,,,,,,,,,,,D,125,hexagon,1,0,d,0.4467,0,2,0,2,0,1,,,,,,,,,,,,,,,,,,,,,,,,,,,,,,,,,,,,,,,,,
294787,2022-10-03_12h58.19.421,vts_reward_expectancy,2022.2.4,MacIntel,60.0024001,Chrome,1440,900,,,,,,,,,,,,,,,,,,,,,,,Y,146,circle,1,0,f,0.6005,0,3,0,3,0,1,,,,,,,,,,,,,,,,,,,,,,,,,,,,,,,,,,,,,,,,,
294787,2022-10-03_12h58.19.421,vts_reward_expectancy,2022.2.4,MacIntel,60.0024001,Chrome,1440,900,,,,,,,,,,,,,,,,,,,,,,,H,174,star,1,0,d,0.8326,0,4,0,4,0,1,,,,,,,,,,,,,,,,,,,,,,,,,,,,,,,,,,,,,,,,,
294787,2022-10-03_12h58.19.421,vts_reward_expectancy,2022.2.4,MacIntel,60.0024001,Chrome,1440,900,,,,,,,,,,,,,,,,,,,,,,,F,181,triangle,1,0,d,0.6666,0,5,0,5,0,1,,,,,,,,,,,,,,,,,,,,,,,,,,,,,,,,,,,,,,,,,
294787,2022-10-03_12h58.19.421,vts_reward_expectancy,2022.2.4,MacIntel,60.0024001,Chrome,1440,900,,,,,,,,,,,,,,,,,,,,,,,B,132,hexagon,1,0,d,0.5992,0,6,0,6,0,1,,,,,,,,,,,,,,,,,,,,,,,,,,,,,,,,,,,,,,,,,
294787,2022-10-03_12h58.19.421,vts_reward_expectancy,2022.2.4,MacIntel,60.0024001,Chrome,1440,900,,,,,,,,,,,,,,,,,,,,,,,S,167,circle,1,0,f,0.4782,0,7,0,7,0,1,,,,,,,,,,,,,,,,,,,,,,,,,,,,,,,,,,,,,,,,,
294787,2022-10-03_12h58.19.421,vts_reward_expectancy,2022.2.4,MacIntel,60.0024001,Chrome,1440,900,,,,,,,,,,,,,,,,,,,,,,,W,160,star,1,0,f,0.8013,0,8,0,8,0,1,,,,,,,,,,,,,,,,,,,,,,,,,,,,,,,,,,,,,,,,,
294787,2022-10-03_12h58.19.421,vts_reward_expectancy,2022.2.4,MacIntel,60.0024001,Chrome,1440,900,,,,,,,,,,,,,,,,,,,,,,,U,139,hexagon,1,0,f,0.7832,0,9,0,9,0,1,,,,,,,,,,,,,,,,,,,,,,,,,,,,,,,,,,,,,,,,,
294787,2022-10-03_12h58.19.421,vts_reward_expectancy,2022.2.4,MacIntel,60.0024001,Chrome,1440,900,,,,,,,,,,,,,,,,,,,,,,,S,160,circle,1,0,,,1,,,,,,k,0.7438,0,0,0,0,1,,,,,,,,,,,,,,,,,,,,,,,,,,,,,,,,,,
294787,2022-10-03_12h58.19.421,vts_reward_expectancy,2022.2.4,MacIntel,60.0024001,Chrome,1440,900,,,,,,,,,,,,,,,,,,,,,,,W,125,triangle,1,0,,,1,,,,,,j,1.0621,1,0,1,0,1,,,,,,,,,,,,,,,,,,,,,,,,,,,,,,,,,,
294787,2022-10-03_12h58.19.421,vts_reward_expectancy,2022.2.4,MacIntel,60.0024001,Chrome,1440,900,,,,,,,,,,,,,,,,,,,,,,,Y,146,hexagon,1,0,,,1,,,,,,j,0.6267,2,0,2,0,1,,,,,,,,,,,,,,,,,,,,,,,,,,,,,,,,,,
294787,2022-10-03_12h58.19.421,vts_reward_expectancy,2022.2.4,MacIntel,60.0024001,Chrome,1440,900,,,,,,,,,,,,,,,,,,,,,,,H,139,star,0,0,,,1,,,,,,k,1.0815,3,0,3,0,1,,,,,,,,,,,,,,,,,,,,,,,,,,,,,,,,,,
294787,2022-10-03_12h58.19.421,vts_reward_expectancy,2022.2.4,MacIntel,60.0024001,Chrome,1440,900,,,,,,,,,,,,,,,,,,,,,,,U,174,circle,1,1,,,1,,,,,,k,1.0634,4,0,4,0,1,,,,,,,,,,,,,,,,,,,,,,,,,,,,,,,,,,
294787,2022-10-03_12h58.19.421,vts_reward_expectancy,2022.2.4,MacIntel,60.0024001,Chrome,1440,900,,,,,,,,,,,,,,,,,,,,,,,D,181,triangle,1,0,,,1,,,,,,k,0.7503,5,0,5,0,1,,,,,,,,,,,,,,,,,,,,,,,,,,,,,,,,,,
294787,2022-10-03_12h58.19.421,vts_reward_expectancy,2022.2.4,MacIntel,60.0024001,Chrome,1440,900,,,,,,,,,,,,,,,,,,,,,,,F,167,hexagon,1,0,,,1,,,,,,k,0.7629,6,0,6,0,1,,,,,,,,,,,,,,,,,,,,,,,,,,,,,,,,,,
294787,2022-10-03_12h58.19.421,vts_reward_expectancy,2022.2.4,MacIntel,60.0024001,Chrome,1440,900,,,,,,,,,,,,,,,,,,,,,,,B,132,star,1,0,,,1,,,,,,j,0.7148,7,0,7,0,1,,,,,,,,,,,,,,,,,,,,,,,,,,,,,,,,,,
294787,2022-10-03_12h58.19.421,vts_reward_expectancy,2022.2.4,MacIntel,60.0024001,Chrome,1440,900,,,,,,,,,,,,,,,,,,,,,,,S,160,hexagon,1,0,,,1,,,,,,k,0.9951,8,0,8,0,1,,,,,,,,,,,,,,,,,,,,,,,,,,,,,,,,,,
294787,2022-10-03_12h58.19.421,vts_reward_expectancy,2022.2.4,MacIntel,60.0024001,Chrome,1440,900,,,,,,,,,,,,,,,,,,,,,,,W,125,circle,1,0,,,1,,,,,,j,0.8803,9,0,9,0,1,,,,,,,,,,,,,,,,,,,,,,,,,,,,,,,,,,
294787,2022-10-03_12h58.19.421,vts_reward_expectancy,2022.2.4,MacIntel,60.0024001,Chrome,1440,900,,,,,0,675,,,,,,,,,,,,,,,,,F,181,triangle,1,0,,,2,,,,,,,,,,,,,-1,letter,NA,d,0.071,vtsPrac,0,0,0,0,1,,,,,,,,,,,,,,,,,,,,,,,
294787,2022-10-03_12h58.19.421,vts_reward_expectancy,2022.2.4,MacIntel,60.0024001,Chrome,1440,900,,,,,0,675,,,,,,,,,,,,,,,,,B,139,circle,1,0,,,2,,,,,,,,,,,,,repeat,letter,lettRpt,d,1.1789,vtsPrac,1,0,1,0,1,,,,,,,,,,,,,,,,,,,,,,,
294787,2022-10-03_12h58.19.421,vts_reward_expectancy,2022.2.4,MacIntel,60.0024001,Chrome,1440,900,,,,,0,675,,,,,,,,,,,,,,,,,S,132,triangle,1,0,,,2,,,,,,,,,,,,,repeat,letter,lettRpt,f,0.7469,vtsPrac,2,0,2,0,1,,,,,,,,,,,,,,,,,,,,,,,
294787,2022-10-03_12h58.19.421,vts_reward_expectancy,2022.2.4,MacIntel,60.0024001,Chrome,1440,900,,,,,0,675,,,,,,,,,,,,,,,,,U,174,circle,1,0,,,2,,,,,,,,,,,,,repeat,letter,lettRpt,f,1.2793,vtsPrac,3,0,3,0,1,,,,,,,,,,,,,,,,,,,,,,,
294787,2022-10-03_12h58.19.421,vts_reward_expectancy,2022.2.4,MacIntel,60.0024001,Chrome,1440,900,,,,,0,675,,,,,,,,,,,,,,,,,F,181,star,1,0,,,2,,,,,,,,,,,,,repeat,letter,lettRpt,d,0.8316,vtsPrac,4,0,4,0,1,,,,,,,,,,,,,,,,,,,,,,,
294787,2022-10-03_12h58.19.421,vts_reward_expectancy,2022.2.4,MacIntel,60.0024001,Chrome,1440,900,,,,,0,675,,,,,,,,,,,,,,,,,B,139,circle,1,0,,,2,,,,,,,,,,,,,repeat,letter,lettRpt,d,0.6944,vtsPrac,5,0,5,0,1,,,,,,,,,,,,,,,,,,,,,,,
294787,2022-10-03_12h58.19.421,vts_reward_expectancy,2022.2.4,MacIntel,60.0024001,Chrome,1440,900,,,,,0,675,,,,,,,,,,,,,,,,,S,132,circle,1,0,,,2,,,,,,,,,,,,,repeat,letter,lettRpt,f,0.7248,vtsPrac,6,0,6,0,1,,,,,,,,,,,,,,,,,,,,,,,
294787,2022-10-03_12h58.19.421,vts_reward_expectancy,2022.2.4,MacIntel,60.0024001,Chrome,1440,900,,,,,0,675,,,,,,,,,,,,,,,,,U,174,star,1,0,,,2,,,,,,,,,,,,,repeat,letter,lettRpt,f,0.6295,vtsPrac,7,0,7,0,1,,,,,,,,,,,,,,,,,,,,,,,
294787,2022-10-03_12h58.19.421,vts_reward_expectancy,2022.2.4,MacIntel,60.0024001,Chrome,1440,900,,,,,0,675,,,,,,,,,,,,,,,,,Y,125,star,1,0,,,2,,,,,,,,,,,,,repeat,letter,lettRpt,f,0.8509,vtsPrac,8,0,8,0,1,,,,,,,,,,,,,,,,,,,,,,,
294787,2022-10-03_12h58.19.421,vts_reward_expectancy,2022.2.4,MacIntel,60.0024001,Chrome,1440,900,,,,,0,675,,,,,,,,,,,,,,,,,S,174,hexagon,1,0,,,2,,,,,,,,,,,,,repeat,letter,lettRpt,f,0.6847,vtsPrac,9,0,9,0,1,,,,,,,,,,,,,,,,,,,,,,,
294787,2022-10-03_12h58.19.421,vts_reward_expectancy,2022.2.4,MacIntel,60.0024001,Chrome,1440,900,,,,,0,675,,,,,,,,,,,,,,,,,U,167,hexagon,1,0,,,2,,,,,,,,,,,,,repeat,letter,lettRpt,f,0.5973,vtsPrac,10,0,10,0,1,,,,,,,,,,,,,,,,,,,,,,,
294787,2022-10-03_12h58.19.421,vts_reward_expectancy,2022.2.4,MacIntel,60.0024001,Chrome,1440,900,,,,,0,675,,,,,,,,,,,,,,,,,B,139,circle,1,0,,,2,,,,,,,,,,,,,repeat,letter,lettRpt,d,0.4962,vtsPrac,11,0,11,0,1,,,,,,,,,,,,,,,,,,,,,,,
294787,2022-10-03_12h58.19.421,vts_reward_expectancy,2022.2.4,MacIntel,60.0024001,Chrome,1440,900,,,,,0,675,,,,,,,,,,,,,,,,,U,132,circle,1,0,,,2,,,,,,,,,,,,,repeat,letter,lettRpt,f,0.6799,vtsPrac,12,0,12,0,1,,,,,,,,,,,,,,,,,,,,,,,
294787,2022-10-03_12h58.19.421,vts_reward_expectancy,2022.2.4,MacIntel,60.0024001,Chrome,1440,900,,,,,0,675,,,,,,,,,,,,,,,,,W,146,triangle,1,0,,,2,,,,,,,,,,,,,repeat,letter,lettRpt,f,0.8103,vtsPrac,13,0,13,0,1,,,,,,,,,,,,,,,,,,,,,,,
294787,2022-10-03_12h58.19.421,vts_reward_expectancy,2022.2.4,MacIntel,60.0024001,Chrome,1440,900,,,,,0,675,,,,,,,,,,,,,,,,,Y,167,circle,1,0,,,2,,,,,,,,,,,,,repeat,letter,lettRpt,f,0.6596,vtsPrac,14,0,14,0,1,,,,,,,,,,,,,,,,,,,,,,,
294787,2022-10-03_12h58.19.421,vts_reward_expectancy,2022.2.4,MacIntel,60.0024001,Chrome,1440,900,,,,,0,675,,,,,,,,,,,,,,,,,H,181,star,1,0,,,2,,,,,,,,,,,,,switch,number,numSwt,k,1.1789,vtsPrac,15,0,15,0,1,,,,,,,,,,,,,,,,,,,,,,,
294787,2022-10-03_12h58.19.421,vts_reward_expectancy,2022.2.4,MacIntel,60.0024001,Chrome,1440,900,,,,,0,675,,,,,,,,,,,,,,,,,Y,132,circle,1,0,,,3,,,,,,,,,,,,,switch,letter,lettSwt,f,0.5961,vtsPrac,0,0,0,0,1,,,,,,,,,,,,,,,,,,,,,,,
294787,2022-10-03_12h58.19.421,vts_reward_expectancy,2022.2.4,MacIntel,60.0024001,Chrome,1440,900,,,,,0,675,,,,,,,,,,,,,,,,,W,139,star,1,0,,,3,,,,,,,,,,,,,repeat,letter,lettRpt,f,1.5277,vtsPrac,1,0,1,0,1,,,,,,,,,,,,,,,,,,,,,,,
294787,2022-10-03_12h58.19.421,vts_reward_expectancy,2022.2.4,MacIntel,60.0024001,Chrome,1440,900,,,,,0,675,,,,,,,,,,,,,,,,,H,125,circle,1,0,,,3,,,,,,,,,,,,,switch,number,numSwt,j,1.0322,vtsPrac,2,0,2,0,1,,,,,,,,,,,,,,,,,,,,,,,
294787,2022-10-03_12h58.19.421,vts_reward_expectancy,2022.2.4,MacIntel,60.0024001,Chrome,1440,900,,,,,0,675,,,,,,,,,,,,,,,,,S,160,star,1,0,,,3,,,,,,,,,,,,,switch,letter,lettSwt,f,0.9789,vtsPrac,3,0,3,0,1,,,,,,,,,,,,,,,,,,,,,,,
294787,2022-10-03_12h58.19.421,vts_reward_expectancy,2022.2.4,MacIntel,60.0024001,Chrome,1440,900,,,,,0,675,,,,,,,,,,,,,,,,,Y,132,triangle,1,0,,,3,,,,,,,,,,,,,switch,number,numSwt,j,0.8295,vtsPrac,4,0,4,0,1,,,,,,,,,,,,,,,,,,,,,,,
294787,2022-10-03_12h58.19.421,vts_reward_expectancy,2022.2.4,MacIntel,60.0024001,Chrome,1440,900,,,,,0,675,,,,,,,,,,,,,,,,,W,139,star,1,0,,,3,,,,,,,,,,,,,repeat,number,numRpt,j,0.8153,vtsPrac,5,0,5,0,1,,,,,,,,,,,,,,,,,,,,,,,
294787,2022-10-03_12h58.19.421,vts_reward_expectancy,2022.2.4,MacIntel,60.0024001,Chrome,1440,900,,,,,0,675,,,,,,,,,,,,,,,,,H,125,star,1,0,,,3,,,,,,,,,,,,,repeat,number,numRpt,j,1.0144,vtsPrac,6,0,6,0,1,,,,,,,,,,,,,,,,,,,,,,,
294787,2022-10-03_12h58.19.421,vts_reward_expectancy,2022.2.4,MacIntel,60.0024001,Chrome,1440,900,,,,,0,675,,,,,,,,,,,,,,,,,S,160,circle,1,0,,,3,,,,,,,,,,,,,switch,letter,lettSwt,f,0.8294,vtsPrac,7,0,7,0,1,,,,,,,,,,,,,,,,,,,,,,,
294787,2022-10-03_12h58.19.421,vts_reward_expectancy,2022.2.4,MacIntel,60.0024001,Chrome,1440,900,,,,,0,675,,,,,,,,,,,,,,,,,D,139,star,1,0,,,3,,,,,,,,,,,,,switch,number,numSwt,j,1.4606,vtsPrac,8,0,8,0,1,,,,,,,,,,,,,,,,,,,,,,,
294787,2022-10-03_12h58.19.421,vts_reward_expectancy,2022.2.4,MacIntel,60.0024001,Chrome,1440,900,,,,,0,675,,,,,,,,,,,,,,,,,U,125,hexagon,1,0,,,3,,,,,,,,,,,,,switch,letter,lettSwt,f,0.7133,vtsPrac,9,0,9,0,1,,,,,,,,,,,,,,,,,,,,,,,
294787,2022-10-03_12h58.19.421,vts_reward_expectancy,2022.2.4,MacIntel,60.0024001,Chrome,1440,900,,,,,0,675,,,,,,,,,,,,,,,,,H,174,hexagon,1,0,,,3,,,,,,,,,,,,,switch,number,numSwt,k,1.3959,vtsPrac,10,0,10,0,1,,,,,,,,,,,,,,,,,,,,,,,
294787,2022-10-03_12h58.19.421,vts_reward_expectancy,2022.2.4,MacIntel,60.0024001,Chrome,1440,900,,,,,0,675,,,,,,,,,,,,,,,,,B,181,circle,1,0,,,3,,,,,,,,,,,,,switch,letter,lettSwt,d,1.1114,vtsPrac,11,0,11,0,1,,,,,,,,,,,,,,,,,,,,,,,
294787,2022-10-03_12h58.19.421,vts_reward_expectancy,2022.2.4,MacIntel,60.0024001,Chrome,1440,900,,,,,0,675,,,,,,,,,,,,,,,,,W,160,star,1,0,,,3,,,,,,,,,,,,,repeat,letter,lettRpt,f,0.6619,vtsPrac,12,0,12,0,1,,,,,,,,,,,,,,,,,,,,,,,
294787,2022-10-03_12h58.19.421,vts_reward_expectancy,2022.2.4,MacIntel,60.0024001,Chrome,1440,900,,,,,0,675,,,,,,,,,,,,,,,,,H,167,hexagon,1,0,,,3,,,,,,,,,,,,,switch,number,numSwt,k,0.5624,vtsPrac,13,0,13,0,1,,,,,,,,,,,,,,,,,,,,,,,
294787,2022-10-03_12h58.19.421,vts_reward_expectancy,2022.2.4,MacIntel,60.0024001,Chrome,1440,900,,,,,0,675,,,,,,,,,,,,,,,,,B,139,star,1,0,,,3,,,,,,,,,,,,,repeat,number,numRpt,j,0.6296,vtsPrac,14,0,14,0,1,,,,,,,,,,,,,,,,,,,,,,,
294787,2022-10-03_12h58.19.421,vts_reward_expectancy,2022.2.4,MacIntel,60.0024001,Chrome,1440,900,,,,,0,675,,,,,,,,,,,,,,,,,F,132,circle,1,0,,,3,,,,,,,,,,,,,switch,letter,lettSwt,d,0.797,vtsPrac,15,0,15,0,1,,,,,,,,,,,,,,,,,,,,,,,
294787,2022-10-03_12h58.19.421,vts_reward_expectancy,2022.2.4,MacIntel,60.0024001,Chrome,1440,900,,,,,,,,,,,,,,,,,,,,,,,,,,,,,,,,,,,,,,,,,,,,,,,,,,,,,,,,,,,,,,,,,,,,,,,,,,,,
294787,2022-10-03_12h58.19.421,vts_reward_expectancy,2022.2.4,MacIntel,60.0024001,Chrome,1440,900,,,,,,,,,,,,,,,,,,,,,,,,,,,,,,,,,,,,,,,,,,,,,,,,,,,,,,,,,,,,,,,,,,,,,,,,,,,,
294787,2022-10-03_12h58.19.421,vts_reward_expectancy,2022.2.4,MacIntel,60.0024001,Chrome,1440,900,,,,,0,675,,,,,,,,,,,,,,,,,S,174,circle,1,0,,,,,,,,,,,,,,,,repeat,letter,lettRpt,f,1.2334,noRew,,,,,,0,0,0,0,0,1,,,,,,,,,,,,,,,,,
294787,2022-10-03_12h58.19.421,vts_reward_expectancy,2022.2.4,MacIntel,60.0024001,Chrome,1440,900,,,,,0,675,,,,,,,,,,,,,,,,,H,181,hexagon,1,0,,,,,,,,,,,,,,,,switch,number,numSwt,k,0.51,noRew,,,,,,0,1,0,1,0,1,,,,,,,,,,,,,,,,,
294787,2022-10-03_12h58.19.421,vts_reward_expectancy,2022.2.4,MacIntel,60.0024001,Chrome,1440,900,,,,,0,675,,,,,,,,,,,,,,,,,U,132,circle,1,0,,,,,,,,,,,,,,,,repeat,number,numRpt,j,0.4943,noRew,,,,,,0,2,0,2,0,1,,,,,,,,,,,,,,,,,
294787,2022-10-03_12h58.19.421,vts_reward_expectancy,2022.2.4,MacIntel,60.0024001,Chrome,1440,900,,,,,0,675,,,,,,,,,,,,,,,,,D,125,hexagon,1,0,,,,,,,,,,,,,,,,switch,letter,lettSwt,d,0.829,noRew,,,,,,0,3,0,3,0,1,,,,,,,,,,,,,,,,,
294787,2022-10-03_12h58.19.421,vts_reward_expectancy,2022.2.4,MacIntel,60.0024001,Chrome,1440,900,,,,,0,675,,,,,,,,,,,,,,,,,S,174,star,1,0,,,,,,,,,,,,,,,,repeat,letter,lettRpt,f,0.7639,noRew,,,,,,0,4,0,4,0,1,,,,,,,,,,,,,,,,,
294787,2022-10-03_12h58.19.421,vts_reward_expectancy,2022.2.4,MacIntel,60.0024001,Chrome,1440,900,,,,,0,675,,,,,,,,,,,,,,,,,H,181,triangle,1,0,,,,,,,,,,,,,,,,switch,number,numSwt,k,0.6965,noRew,,,,,,0,5,0,5,0,1,,,,,,,,,,,,,,,,,
294787,2022-10-03_12h58.19.421,vts_reward_expectancy,2022.2.4,MacIntel,60.0024001,Chrome,1440,900,,,,,0,675,,,,,,,,,,,,,,,,,U,132,star,1,0,,,,,,,,,,,,,,,,repeat,number,numRpt,j,0.9119,noRew,,,,,,0,6,0,6,0,1,,,,,,,,,,,,,,,,,
294787,2022-10-03_12h58.19.421,vts_reward_expectancy,2022.2.4,MacIntel,60.0024001,Chrome,1440,900,,,,,0,675,,,,,,,,,,,,,,,,,D,125,circle,1,0,,,,,,,,,,,,,,,,switch,letter,lettSwt,d,0.5609,noRew,,,,,,0,7,0,7,0,1,,,,,,,,,,,,,,,,,
294787,2022-10-03_12h58.19.421,vts_reward_expectancy,2022.2.4,MacIntel,60.0024001,Chrome,1440,900,,,,,0,675,,,,,,,,,,,,,,,,,H,132,triangle,1,0,,,,,,,,,,,,,,,,switch,number,numSwt,j,0.5987,noRew,,,,,,0,8,0,8,0,1,,,,,,,,,,,,,,,,,
294787,2022-10-03_12h58.19.421,vts_reward_expectancy,2022.2.4,MacIntel,60.0024001,Chrome,1440,900,,,,,0,675,,,,,,,,,,,,,,,,,D,174,hexagon,1,0,,,,,,,,,,,,,,,,repeat,number,numRpt,k,0.4965,noRew,,,,,,0,9,0,9,0,1,,,,,,,,,,,,,,,,,
294787,2022-10-03_12h58.19.421,vts_reward_expectancy,2022.2.4,MacIntel,60.0024001,Chrome,1440,900,,,,,0,675,,,,,,,,,,,,,,,,,F,146,circle,1,0,,,,,,,,,,,,,,,,switch,letter,lettSwt,d,1.1989,noRew,,,,,,0,10,0,10,0,1,,,,,,,,,,,,,,,,,
294787,2022-10-03_12h58.19.421,vts_reward_expectancy,2022.2.4,MacIntel,60.0024001,Chrome,1440,900,,,,,0,675,,,,,,,,,,,,,,,,,S,160,star,1,0,,,,,,,,,,,,,,,,switch,number,numSwt,k,0.6573,noRew,,,,,,0,11,0,11,0,1,,,,,,,,,,,,,,,,,
294787,2022-10-03_12h58.19.421,vts_reward_expectancy,2022.2.4,MacIntel,60.0024001,Chrome,1440,900,,,,,0,675,,,,,,,,,,,,,,,,,Y,181,circle,1,0,,,,,,,,,,,,,,,,repeat,number,numRpt,k,0.8788,noRew,,,,,,0,12,0,12,0,1,,,,,,,,,,,,,,,,,
294787,2022-10-03_12h58.19.421,vts_reward_expectancy,2022.2.4,MacIntel,60.0024001,Chrome,1440,900,,,,,0,675,,,,,,,,,,,,,,,,,D,125,star,1,0,,,,,,,,,,,,,,,,switch,letter,lettSwt,d,0.5278,noRew,,,,,,0,13,0,13,0,1,,,,,,,,,,,,,,,,,
294787,2022-10-03_12h58.19.421,vts_reward_expectancy,2022.2.4,MacIntel,60.0024001,Chrome,1440,900,,,,,0,675,,,,,,,,,,,,,,,,,H,167,star,1,0,,,,,,,,,,,,,,,,switch,number,numSwt,k,0.8151,noRew,,,,,,0,14,0,14,0,1,,,,,,,,,,,,,,,,,
294787,2022-10-03_12h58.19.421,vts_reward_expectancy,2022.2.4,MacIntel,60.0024001,Chrome,1440,900,,,,,0,675,,,,,,,,,,,,,,,,,F,146,circle,1,0,,,,,,,,,,,,,,,,switch,letter,lettSwt,d,0.8322,noRew,,,,,,0,15,0,15,0,1,,,,,,,,,,,,,,,,,
294787,2022-10-03_12h58.19.421,vts_reward_expectancy,2022.2.4,MacIntel,60.0024001,Chrome,1440,900,,,,,0,675,,,,,,,,,,,,,,,,,H,181,hexagon,1,0,,,,,,,,,,,,,,,,switch,number,numSwt,k,0.6633,noRew,,,,,,0,16,0,16,0,1,,,,,,,,,,,,,,,,,
294787,2022-10-03_12h58.19.421,vts_reward_expectancy,2022.2.4,MacIntel,60.0024001,Chrome,1440,900,,,,,0,675,,,,,,,,,,,,,,,,,Y,146,circle,1,0,,,,,,,,,,,,,,,,switch,letter,lettSwt,f,0.8829,noRew,,,,,,0,17,0,17,0,1,,,,,,,,,,,,,,,,,
294787,2022-10-03_12h58.19.421,vts_reward_expectancy,2022.2.4,MacIntel,60.0024001,Chrome,1440,900,,,,,0,675,,,,,,,,,,,,,,,,,S,139,hexagon,0,0,,,,,,,,,,,,,,,,switch,number,NA,k,0.6627,noRew,,,,,,0,18,0,18,0,1,,,,,,,,,,,,,,,,,
294787,2022-10-03_12h58.19.421,vts_reward_expectancy,2022.2.4,MacIntel,60.0024001,Chrome,1440,900,,,,,0,675,,,,,,,,,,,,,,,,,D,167,circle,1,1,,,,,,,,,,,,,,,,switch,letter,lettSwt,d,0.8622,noRew,,,,,,0,19,0,19,0,1,,,,,,,,,,,,,,,,,
294787,2022-10-03_12h58.19.421,vts_reward_expectancy,2022.2.4,MacIntel,60.0024001,Chrome,1440,900,,,,,0,675,,,,,,,,,,,,,,,,,U,181,triangle,1,0,,,,,,,,,,,,,,,,repeat,letter,lettRpt,f,0.812,noRew,,,,,,0,20,0,20,0,1,,,,,,,,,,,,,,,,,
294787,2022-10-03_12h58.19.421,vts_reward_expectancy,2022.2.4,MacIntel,60.0024001,Chrome,1440,900,,,,,0,675,,,,,,,,,,,,,,,,,Y,139,hexagon,1,0,,,,,,,,,,,,,,,,switch,number,numSwt,j,1.2453,noRew,,,,,,0,21,0,21,0,1,,,,,,,,,,,,,,,,,
294787,2022-10-03_12h58.19.421,vts_reward_expectancy,2022.2.4,MacIntel,60.0024001,Chrome,1440,900,,,,,0,675,,,,,,,,,,,,,,,,,B,167,star,1,0,,,,,,,,,,,,,,,,switch,letter,lettSwt,d,0.7479,noRew,,,,,,0,22,0,22,0,1,,,,,,,,,,,,,,,,,
294787,2022-10-03_12h58.19.421,vts_reward_expectancy,2022.2.4,MacIntel,60.0024001,Chrome,1440,900,,,,,0,675,,,,,,,,,,,,,,,,,F,174,triangle,1,0,,,,,,,,,,,,,,,,repeat,letter,lettRpt,d,0.8285,noRew,,,,,,0,23,0,23,0,1,,,,,,,,,,,,,,,,,
294787,2022-10-03_12h58.19.421,vts_reward_expectancy,2022.2.4,MacIntel,60.0024001,Chrome,1440,900,,,,,0,675,,,,,,,,,,,,,,,,,W,146,hexagon,1,0,,,,,,,,,,,,,,,,switch,number,numSwt,j,1.2172,noRew,,,,,,0,24,0,24,0,1,,,,,,,,,,,,,,,,,
294787,2022-10-03_12h58.19.421,vts_reward_expectancy,2022.2.4,MacIntel,60.0024001,Chrome,1440,900,,,,,0,675,,,,,,,,,,,,,,,,,H,132,circle,1,0,,,,,,,,,,,,,,,,switch,letter,lettSwt,d,0.8596,noRew,,,,,,0,25,0,25,0,1,,,,,,,,,,,,,,,,,
294787,2022-10-03_12h58.19.421,vts_reward_expectancy,2022.2.4,MacIntel,60.0024001,Chrome,1440,900,,,,,0,675,,,,,,,,,,,,,,,,,U,160,triangle,1,0,,,,,,,,,,,,,,,,repeat,letter,lettRpt,f,1.1432,noRew,,,,,,0,26,0,26,0,1,,,,,,,,,,,,,,,,,
294787,2022-10-03_12h58.19.421,vts_reward_expectancy,2022.2.4,MacIntel,60.0024001,Chrome,1440,900,,,,,0,675,,,,,,,,,,,,,,,,,B,125,hexagon,1,0,,,,,,,,,,,,,,,,switch,number,numSwt,j,0.9963,noRew,,,,,,0,27,0,27,0,1,,,,,,,,,,,,,,,,,
294787,2022-10-03_12h58.19.421,vts_reward_expectancy,2022.2.4,MacIntel,60.0024001,Chrome,1440,900,,,,,0,675,,,,,,,,,,,,,,,,,Y,146,hexagon,1,0,,,,,,,,,,,,,,,,switch,letter,lettSwt,f,0.8798,noRew,,,,,,0,28,0,28,0,1,,,,,,,,,,,,,,,,,
294787,2022-10-03_12h58.19.421,vts_reward_expectancy,2022.2.4,MacIntel,60.0024001,Chrome,1440,900,,,,,0,675,,,,,,,,,,,,,,,,,W,181,triangle,0,0,,,,,,,,,,,,,,,,switch,number,NA,j,1.2118,noRew,,,,,,0,29,0,29,0,1,,,,,,,,,,,,,,,,,
294787,2022-10-03_12h58.19.421,vts_reward_expectancy,2022.2.4,MacIntel,60.0024001,Chrome,1440,900,,,,,0,675,,,,,,,,,,,,,,,,,B,132,circle,1,1,,,,,,,,,,,,,,,,repeat,number,numRpt,j,0.7989,noRew,,,,,,0,30,0,30,0,1,,,,,,,,,,,,,,,,,
294787,2022-10-03_12h58.19.421,vts_reward_expectancy,2022.2.4,MacIntel,60.0024001,Chrome,1440,900,,,,,0,675,,,,,,,,,,,,,,,,,D,160,triangle,1,0,,,,,,,,,,,,,,,,switch,letter,lettSwt,d,0.7458,noRew,,,,,,0,31,0,31,0,1,,,,,,,,,,,,,,,,,
294787,2022-10-03_12h58.19.421,vts_reward_expectancy,2022.2.4,MacIntel,60.0024001,Chrome,1440,900,,,,,0,675,,,,,,,,,,,,,,,,,U,146,circle,0,0,,,,,,,,,,,,,,,,switch,number,NA,k,1.0469,noRew,,,,,,0,32,0,32,0,1,,,,,,,,,,,,,,,,,
294787,2022-10-03_12h58.19.421,vts_reward_expectancy,2022.2.4,MacIntel,60.0024001,Chrome,1440,900,,,,,0,675,,,,,,,,,,,,,,,,,Y,125,hexagon,1,1,,,,,,,,,,,,,,,,switch,letter,lettSwt,f,0.9471,noRew,,,,,,0,33,0,33,0,1,,,,,,,,,,,,,,,,,
294787,2022-10-03_12h58.19.421,vts_reward_expectancy,2022.2.4,MacIntel,60.0024001,Chrome,1440,900,,,,,0,675,,,,,,,,,,,,,,,,,W,132,star,1,0,,,,,,,,,,,,,,,,repeat,letter,lettRpt,f,1.599,noRew,,,,,,0,34,0,34,0,1,,,,,,,,,,,,,,,,,
294787,2022-10-03_12h58.19.421,vts_reward_expectancy,2022.2.4,MacIntel,60.0024001,Chrome,1440,900,,,,,0,675,,,,,,,,,,,,,,,,,D,167,hexagon,1,0,,,,,,,,,,,,,,,,switch,number,numSwt,k,0.9431,noRew,,,,,,0,35,0,35,0,1,,,,,,,,,,,,,,,,,
294787,2022-10-03_12h58.19.421,vts_reward_expectancy,2022.2.4,MacIntel,60.0024001,Chrome,1440,900,,,,,0,675,,,,,,,,,,,,,,,,,D,174,star,1,0,,,,,,,,,,,,,,,,repeat,number,numRpt,k,0.7644,noRew,,,,,,0,36,0,36,0,1,,,,,,,,,,,,,,,,,
294787,2022-10-03_12h58.19.421,vts_reward_expectancy,2022.2.4,MacIntel,60.0024001,Chrome,1440,900,,,,,0,675,,,,,,,,,,,,,,,,,U,132,circle,1,0,,,,,,,,,,,,,,,,repeat,number,numRpt,j,0.5614,noRew,,,,,,0,37,0,37,0,1,,,,,,,,,,,,,,,,,
294787,2022-10-03_12h58.19.421,vts_reward_expectancy,2022.2.4,MacIntel,60.0024001,Chrome,1440,900,,,,,0,675,,,,,,,,,,,,,,,,,H,181,triangle,1,0,,,,,,,,,,,,,,,,repeat,number,numRpt,k,0.9463,noRew,,,,,,0,38,0,38,0,1,,,,,,,,,,,,,,,,,
294787,2022-10-03_12h58.19.421,vts_reward_expectancy,2022.2.4,MacIntel,60.0024001,Chrome,1440,900,,,,,0,675,,,,,,,,,,,,,,,,,W,160,hexagon,1,0,,,,,,,,,,,,,,,,repeat,number,numRpt,k,0.7788,noRew,,,,,,0,39,0,39,0,1,,,,,,,,,,,,,,,,,
294787,2022-10-03_12h58.19.421,vts_reward_expectancy,2022.2.4,MacIntel,60.0024001,Chrome,1440,900,,,,,0,675,,,,,,,,,,,,,,,,,S,160,circle,1,0,,,,,,,,,,,,,,,,switch,letter,lettSwt,f,1.5147,noRew,,,,,,0,40,0,40,0,1,,,,,,,,,,,,,,,,,
294787,2022-10-03_12h58.19.421,vts_reward_expectancy,2022.2.4,MacIntel,60.0024001,Chrome,1440,900,,,,,0,675,,,,,,,,,,,,,,,,,F,181,triangle,1,0,,,,,,,,,,,,,,,,repeat,letter,lettRpt,d,0.6291,noRew,,,,,,0,41,0,41,0,1,,,,,,,,,,,,,,,,,
294787,2022-10-03_12h58.19.421,vts_reward_expectancy,2022.2.4,MacIntel,60.0024001,Chrome,1440,900,,,,,0,675,,,,,,,,,,,,,,,,,U,167,star,1,0,,,,,,,,,,,,,,,,repeat,letter,lettRpt,f,0.7634,noRew,,,,,,0,42,0,42,0,1,,,,,,,,,,,,,,,,,
294787,2022-10-03_12h58.19.421,vts_reward_expectancy,2022.2.4,MacIntel,60.0024001,Chrome,1440,900,,,,,0,675,,,,,,,,,,,,,,,,,B,146,triangle,1,0,,,,,,,,,,,,,,,,switch,number,numSwt,j,0.9954,noRew,,,,,,0,43,0,43,0,1,,,,,,,,,,,,,,,,,
294787,2022-10-03_12h58.19.421,vts_reward_expectancy,2022.2.4,MacIntel,60.0024001,Chrome,1440,900,,,,,0,675,,,,,,,,,,,,,,,,,U,139,star,1,0,,,,,,,,,,,,,,,,repeat,number,numRpt,j,0.6962,noRew,,,,,,0,44,0,44,0,1,,,,,,,,,,,,,,,,,
294787,2022-10-03_12h58.19.421,vts_reward_expectancy,2022.2.4,MacIntel,60.0024001,Chrome,1440,900,,,,,0,675,,,,,,,,,,,,,,,,,S,132,triangle,1,0,,,,,,,,,,,,,,,,switch,letter,lettSwt,f,0.5938,noRew,,,,,,0,45,0,45,0,1,,,,,,,,,,,,,,,,,
294787,2022-10-03_12h58.19.421,vts_reward_expectancy,2022.2.4,MacIntel,60.0024001,Chrome,1440,900,,,,,0,675,,,,,,,,,,,,,,,,,W,160,circle,1,0,,,,,,,,,,,,,,,,repeat,letter,lettRpt,f,0.7488,noRew,,,,,,0,46,0,46,0,1,,,,,,,,,,,,,,,,,
294787,2022-10-03_12h58.19.421,vts_reward_expectancy,2022.2.4,MacIntel,60.0024001,Chrome,1440,900,,,,,0,675,,,,,,,,,,,,,,,,,B,125,hexagon,1,0,,,,,,,,,,,,,,,,switch,number,numSwt,j,0.7124,noRew,,,,,,0,47,0,47,0,1,,,,,,,,,,,,,,,,,
294787,2022-10-03_12h58.19.421,vts_reward_expectancy,2022.2.4,MacIntel,60.0024001,Chrome,1440,900,,,,,0,675,,,,,,,,,,,,,,,,,D,132,circle,1,0,,,,,,,,,,,,,,,,repeat,number,numRpt,j,0.6775,noRew,,,,,,0,48,0,48,0,1,,,,,,,,,,,,,,,,,
294787,2022-10-03_12h58.19.421,vts_reward_expectancy,2022.2.4,MacIntel,60.0024001,Chrome,1440,900,,,,,0,675,,,,,,,,,,,,,,,,,W,181,hexagon,1,0,,,,,,,,,,,,,,,,switch,letter,lettSwt,f,0.7802,noRew,,,,,,0,49,0,49,0,1,,,,,,,,,,,,,,,,,
294787,2022-10-03_12h58.19.421,vts_reward_expectancy,2022.2.4,MacIntel,60.0024001,Chrome,1440,900,,,,,0,675,,,,,,,,,,,,,,,,,F,174,triangle,1,0,,,,,,,,,,,,,,,,switch,number,numSwt,k,1.1802,noRew,,,,,,0,50,0,50,0,1,,,,,,,,,,,,,,,,,
294787,2022-10-03_12h58.19.421,vts_reward_expectancy,2022.2.4,MacIntel,60.0024001,Chrome,1440,900,,,,,0,675,,,,,,,,,,,,,,,,,Y,167,circle,1,0,,,,,,,,,,,,,,,,switch,letter,lettSwt,f,0.9461,noRew,,,,,,0,51,0,51,0,1,,,,,,,,,,,,,,,,,
294787,2022-10-03_12h58.19.421,vts_reward_expectancy,2022.2.4,MacIntel,60.0024001,Chrome,1440,900,,,,,0,675,,,,,,,,,,,,,,,,,W,125,circle,1,0,,,,,,,,,,,,,,,,repeat,letter,lettRpt,f,0.6806,noRew,,,,,,0,52,0,52,0,1,,,,,,,,,,,,,,,,,
294787,2022-10-03_12h58.19.421,vts_reward_expectancy,2022.2.4,MacIntel,60.0024001,Chrome,1440,900,,,,,0,675,,,,,,,,,,,,,,,,,Y,139,hexagon,1,0,,,,,,,,,,,,,,,,repeat,letter,lettRpt,f,0.6794,noRew,,,,,,0,53,0,53,0,1,,,,,,,,,,,,,,,,,
294787,2022-10-03_12h58.19.421,vts_reward_expectancy,2022.2.4,MacIntel,60.0024001,Chrome,1440,900,,,,,0,675,,,,,,,,,,,,,,,,,F,174,hexagon,1,0,,,,,,,,,,,,,,,,repeat,letter,lettRpt,d,0.7295,noRew,,,,,,0,54,0,54,0,1,,,,,,,,,,,,,,,,,
294787,2022-10-03_12h58.19.421,vts_reward_expectancy,2022.2.4,MacIntel,60.0024001,Chrome,1440,900,,,,,0,675,,,,,,,,,,,,,,,,,U,132,circle,1,0,,,,,,,,,,,,,,,,switch,number,numSwt,j,0.9922,noRew,,,,,,0,55,0,55,0,1,,,,,,,,,,,,,,,,,
294787,2022-10-03_12h58.19.421,vts_reward_expectancy,2022.2.4,MacIntel,60.0024001,Chrome,1440,900,,,,,0,675,,,,,,,,,,,,,,,,,Y,146,star,1,0,,,,,,,,,,,,,,,,repeat,number,numRpt,j,0.8786,noRew,,,,,,0,56,0,56,0,1,,,,,,,,,,,,,,,,,
294787,2022-10-03_12h58.19.421,vts_reward_expectancy,2022.2.4,MacIntel,60.0024001,Chrome,1440,900,,,,,0,675,,,,,,,,,,,,,,,,,S,125,circle,1,0,,,,,,,,,,,,,,,,switch,letter,lettSwt,f,0.8459,noRew,,,,,,0,57,0,57,0,1,,,,,,,,,,,,,,,,,
294787,2022-10-03_12h58.19.421,vts_reward_expectancy,2022.2.4,MacIntel,60.0024001,Chrome,1440,900,,,,,0,675,,,,,,,,,,,,,,,,,W,139,hexagon,1,0,,,,,,,,,,,,,,,,switch,number,numSwt,j,0.7097,noRew,,,,,,0,58,0,58,0,1,,,,,,,,,,,,,,,,,
294787,2022-10-03_12h58.19.421,vts_reward_expectancy,2022.2.4,MacIntel,60.0024001,Chrome,1440,900,,,,,0,675,,,,,,,,,,,,,,,,,H,132,circle,1,0,,,,,,,,,,,,,,,,repeat,number,numRpt,j,0.8151,noRew,,,,,,0,59,0,59,0,1,,,,,,,,,,,,,,,,,
294787,2022-10-03_12h58.19.421,vts_reward_expectancy,2022.2.4,MacIntel,60.0024001,Chrome,1440,900,,,,,0,675,,,,,,,,,,,,,,,,,F,125,hexagon,1,0,,,,,,,,,,,,,,,,switch,letter,lettSwt,d,0.7279,noRew,,,,,,0,60,0,60,0,1,,,,,,,,,,,,,,,,,
294787,2022-10-03_12h58.19.421,vts_reward_expectancy,2022.2.4,MacIntel,60.0024001,Chrome,1440,900,,,,,0,675,,,,,,,,,,,,,,,,,Y,146,star,1,0,,,,,,,,,,,,,,,,repeat,letter,lettRpt,f,0.5793,noRew,,,,,,0,61,0,61,0,1,,,,,,,,,,,,,,,,,
294787,2022-10-03_12h58.19.421,vts_reward_expectancy,2022.2.4,MacIntel,60.0024001,Chrome,1440,900,,,,,0,675,,,,,,,,,,,,,,,,,U,139,star,1,0,,,,,,,,,,,,,,,,repeat,letter,lettRpt,f,0.6275,noRew,,,,,,0,62,0,62,0,1,,,,,,,,,,,,,,,,,
294787,2022-10-03_12h58.19.421,vts_reward_expectancy,2022.2.4,MacIntel,60.0024001,Chrome,1440,900,,,,,0,675,,,,,,,,,,,,,,,,,D,132,circle,1,0,,,,,,,,,,,,,,,,switch,number,numSwt,j,0.6502,noRew,,,,,,0,63,0,63,0,1,,,,,,,,,,,,,,,,,
294787,2022-10-03_12h58.19.421,vts_reward_expectancy,2022.2.4,MacIntel,60.0024001,Chrome,1440,900,,,,,,,,,,,,,,,,,,,,,,,,,,,,,,,,,,,,,,,,,,,,,,,,,,,,,,,,,,,,,,,,,,,,,,,,,,,,
294787,2022-10-03_12h58.19.421,vts_reward_expectancy,2022.2.4,MacIntel,60.0024001,Chrome,1440,900,,,,,1,676,,,,,,,,,,,,,,,,,B,132,hexagon,1,0,,,,,,,,,,,,,,,,switch,letter,lettSwt,d,0.646,Hi,,,,,,0,,,,,,space,4.8162,high,0,0,0,0,1,,,,,,,,,
294787,2022-10-03_12h58.19.421,vts_reward_expectancy,2022.2.4,MacIntel,60.0024001,Chrome,1440,900,,,,,0,676,,,,,,,,,,,,,,,,,Y,125,circle,0,0,,,,,,,,,,,,,,,,switch,number,NA,k,0.6337,Hi,,,,,,0,,,,,,,,high,1,0,1,0,1,,,,,,,,,
294787,2022-10-03_12h58.19.421,vts_reward_expectancy,2022.2.4,MacIntel,60.0024001,Chrome,1440,900,,,,,0,676,,,,,,,,,,,,,,,,,S,160,hexagon,0,1,,,,,,,,,,,,,,,,switch,letter,NA,d,0.763,Hi,,,,,,0,,,,,,,,high,2,0,2,0,1,,,,,,,,,
294787,2022-10-03_12h58.19.421,vts_reward_expectancy,2022.2.4,MacIntel,60.0024001,Chrome,1440,900,,,,,1,677,,,,,,,,,,,,,,,,,F,139,circle,1,1,,,,,,,,,,,,,,,,repeat,letter,lettRpt,d,0.6792,Lo,,,,,,0,,,,,,,,high,3,0,3,0,1,,,,,,,,,
294787,2022-10-03_12h58.19.421,vts_reward_expectancy,2022.2.4,MacIntel,60.0024001,Chrome,1440,900,,,,,1,678,,,,,,,,,,,,,,,,,W,181,circle,1,0,,,,,,,,,,,,,,,,repeat,letter,lettRpt,f,1.0814,Lo,,,,,,0,,,,,,,,high,4,0,4,0,1,,,,,,,,,
294787,2022-10-03_12h58.19.421,vts_reward_expectancy,2022.2.4,MacIntel,60.0024001,Chrome,1440,900,,,,,0,678,,,,,,,,,,,,,,,,,H,174,hexagon,0,0,,,,,,,,,,,,,,,,switch,number,NA,j,0.6969,Lo,,,,,,0,,,,,,,,high,5,0,5,0,1,,,,,,,,,
294787,2022-10-03_12h58.19.421,vts_reward_expectancy,2022.2.4,MacIntel,60.0024001,Chrome,1440,900,,,,,10,688,,,,,,,,,,,,,,,,,U,146,hexagon,1,1,,,,,,,,,,,,,,,,repeat,number,numRpt,j,0.6628,Hi,,,,,,0,,,,,,,,high,6,0,6,0,1,,,,,,,,,
294787,2022-10-03_12h58.19.421,vts_reward_expectancy,2022.2.4,MacIntel,60.0024001,Chrome,1440,900,,,,,10,698,,,,,,,,,,,,,,,,,D,167,circle,1,0,,,,,,,,,,,,,,,,switch,letter,lettSwt,d,0.5647,Lo,,,,,,0,,,,,,,,high,7,0,7,0,1,,,,,,,,,
294787,2022-10-03_12h58.19.421,vts_reward_expectancy,2022.2.4,MacIntel,60.0024001,Chrome,1440,900,,,,,10,708,,,,,,,,,,,,,,,,,B,132,hexagon,1,0,,,,,,,,,,,,,,,,switch,number,numSwt,j,0.5004,Hi,,,,,,0,,,,,,,,high,8,0,8,0,1,,,,,,,,,
294787,2022-10-03_12h58.19.421,vts_reward_expectancy,2022.2.4,MacIntel,60.0024001,Chrome,1440,900,,,,,1,709,,,,,,,,,,,,,,,,,Y,125,circle,1,0,,,,,,,,,,,,,,,,switch,letter,lettSwt,f,0.5461,Lo,,,,,,0,,,,,,,,high,9,0,9,0,1,,,,,,,,,
294787,2022-10-03_12h58.19.421,vts_reward_expectancy,2022.2.4,MacIntel,60.0024001,Chrome,1440,900,,,,,0,709,,,,,,,,,,,,,,,,,S,160,hexagon,0,0,,,,,,,,,,,,,,,,repeat,letter,NA,d,0.8794,Lo,,,,,,0,,,,,,,,high,10,0,10,0,1,,,,,,,,,
294787,2022-10-03_12h58.19.421,vts_reward_expectancy,2022.2.4,MacIntel,60.0024001,Chrome,1440,900,,,,,1,710,,,,,,,,,,,,,,,,,F,139,circle,1,1,,,,,,,,,,,,,,,,repeat,letter,lettRpt,d,0.7127,Lo,,,,,,0,,,,,,,,high,11,0,11,0,1,,,,,,,,,
294787,2022-10-03_12h58.19.421,vts_reward_expectancy,2022.2.4,MacIntel,60.0024001,Chrome,1440,900,,,,,10,720,,,,,,,,,,,,,,,,,W,181,circle,1,0,,,,,,,,,,,,,,,,switch,number,numSwt,k,0.564,Lo,,,,,,0,,,,,,,,high,12,0,12,0,1,,,,,,,,,
294787,2022-10-03_12h58.19.421,vts_reward_expectancy,2022.2.4,MacIntel,60.0024001,Chrome,1440,900,,,,,0,720,,,,,,,,,,,,,,,,,H,174,hexagon,1,0,,,,,,,,,,,,,,,,repeat,number,numRpt,k,1.013,Hi,,,,,,0,,,,,,,,high,13,0,13,0,1,,,,,,,,,
294787,2022-10-03_12h58.19.421,vts_reward_expectancy,2022.2.4,MacIntel,60.0024001,Chrome,1440,900,,,,,10,730,,,,,,,,,,,,,,,,,U,146,hexagon,1,0,,,,,,,,,,,,,,,,repeat,number,numRpt,j,0.463,Hi,,,,,,0,,,,,,,,high,14,0,14,0,1,,,,,,,,,
294787,2022-10-03_12h58.19.421,vts_reward_expectancy,2022.2.4,MacIntel,60.0024001,Chrome,1440,900,,,,,1,731,,,,,,,,,,,,,,,,,D,167,circle,1,0,,,,,,,,,,,,,,,,switch,letter,lettSwt,d,0.4467,Lo,,,,,,0,,,,,,,,high,15,0,15,0,1,,,,,,,,,
294787,2022-10-03_12h58.19.421,vts_reward_expectancy,2022.2.4,MacIntel,60.0024001,Chrome,1440,900,,,,,10,741,,,,,,,,,,,,,,,,,B,125,circle,1,0,,,,,,,,,,,,,,,,switch,number,numSwt,j,0.435,Lo,,,,,,0,,,,,,,,high,16,0,16,0,1,,,,,,,,,
294787,2022-10-03_12h58.19.421,vts_reward_expectancy,2022.2.4,MacIntel,60.0024001,Chrome,1440,900,,,,,1,742,,,,,,,,,,,,,,,,,Y,132,hexagon,1,0,,,,,,,,,,,,,,,,repeat,number,numRpt,j,0.4616,Hi,,,,,,0,,,,,,,,high,17,0,17,0,1,,,,,,,,,
294787,2022-10-03_12h58.19.421,vts_reward_expectancy,2022.2.4,MacIntel,60.0024001,Chrome,1440,900,,,,,0,742,,,,,,,,,,,,,,,,,S,146,hexagon,0,0,,,,,,,,,,,,,,,,repeat,number,NA,k,0.4118,Hi,,,,,,0,,,,,,,,high,18,0,18,0,1,,,,,,,,,
294787,2022-10-03_12h58.19.421,vts_reward_expectancy,2022.2.4,MacIntel,60.0024001,Chrome,1440,900,,,,,10,752,,,,,,,,,,,,,,,,,F,181,circle,1,1,,,,,,,,,,,,,,,,repeat,number,numRpt,k,0.4641,Lo,,,,,,0,,,,,,,,high,19,0,19,0,1,,,,,,,,,
294787,2022-10-03_12h58.19.421,vts_reward_expectancy,2022.2.4,MacIntel,60.0024001,Chrome,1440,900,,,,,1,753,,,,,,,,,,,,,,,,,U,174,circle,1,0,,,,,,,,,,,,,,,,switch,letter,lettSwt,f,0.6289,Lo,,,,,,0,,,,,,,,high,20,0,20,0,1,,,,,,,,,
294787,2022-10-03_12h58.19.421,vts_reward_expectancy,2022.2.4,MacIntel,60.0024001,Chrome,1440,900,,,,,10,763,,,,,,,,,,,,,,,,,D,139,hexagon,1,0,,,,,,,,,,,,,,,,repeat,letter,lettRpt,d,0.5486,Hi,,,,,,0,,,,,,,,high,21,0,21,0,1,,,,,,,,,
294787,2022-10-03_12h58.19.421,vts_reward_expectancy,2022.2.4,MacIntel,60.0024001,Chrome,1440,900,,,,,10,773,,,,,,,,,,,,,,,,,H,167,circle,1,0,,,,,,,,,,,,,,,,repeat,letter,lettRpt,d,0.7291,Lo,,,,,,0,,,,,,,,high,22,0,22,0,1,,,,,,,,,
294787,2022-10-03_12h58.19.421,vts_reward_expectancy,2022.2.4,MacIntel,60.0024001,Chrome,1440,900,,,,,0,773,,,,,,,,,,,,,,,,,W,160,hexagon,1,0,,,,,,,,,,,,,,,,switch,number,numSwt,k,0.9115,Hi,,,,,,0,,,,,,,,high,23,0,23,0,1,,,,,,,,,
294787,2022-10-03_12h58.19.421,vts_reward_expectancy,2022.2.4,MacIntel,60.0024001,Chrome,1440,900,,,,,10,783,,,,,,,,,,,,,,,,,F,146,hexagon,1,0,,,,,,,,,,,,,,,,repeat,number,numRpt,j,0.5121,Hi,,,,,,0,,,,,,,,high,24,0,24,0,1,,,,,,,,,
294787,2022-10-03_12h58.19.421,vts_reward_expectancy,2022.2.4,MacIntel,60.0024001,Chrome,1440,900,,,,,1,784,,,,,,,,,,,,,,,,,S,174,circle,1,0,,,,,,,,,,,,,,,,repeat,number,numRpt,k,0.4296,Lo,,,,,,0,,,,,,,,high,25,0,25,0,1,,,,,,,,,
294787,2022-10-03_12h58.19.421,vts_reward_expectancy,2022.2.4,MacIntel,60.0024001,Chrome,1440,900,,,,,1,785,,,,,,,,,,,,,,,,,U,167,circle,1,0,,,,,,,,,,,,,,,,switch,letter,lettSwt,f,0.4947,Lo,,,,,,0,,,,,,,,high,26,0,26,0,1,,,,,,,,,
294787,2022-10-03_12h58.19.421,vts_reward_expectancy,2022.2.4,MacIntel,60.0024001,Chrome,1440,900,,,,,10,795,,,,,,,,,,,,,,,,,D,125,hexagon,1,0,,,,,,,,,,,,,,,,switch,number,numSwt,j,0.6339,Hi,,,,,,0,,,,,,,,high,27,0,27,0,1,,,,,,,,,
294787,2022-10-03_12h58.19.421,vts_reward_expectancy,2022.2.4,MacIntel,60.0024001,Chrome,1440,900,,,,,10,805,,,,,,,,,,,,,,,,,Y,160,hexagon,1,0,,,,,,,,,,,,,,,,switch,letter,lettSwt,f,0.4454,Hi,,,,,,0,,,,,,,,high,28,0,28,0,1,,,,,,,,,
294787,2022-10-03_12h58.19.421,vts_reward_expectancy,2022.2.4,MacIntel,60.0024001,Chrome,1440,900,,,,,0,805,,,,,,,,,,,,,,,,,H,139,circle,0,0,,,,,,,,,,,,,,,,repeat,letter,NA,f,0.762,Hi,,,,,,0,,,,,,,,high,29,0,29,0,1,,,,,,,,,
294787,2022-10-03_12h58.19.421,vts_reward_expectancy,2022.2.4,MacIntel,60.0024001,Chrome,1440,900,,,,,10,815,,,,,,,,,,,,,,,,,B,132,hexagon,1,1,,,,,,,,,,,,,,,,repeat,letter,lettRpt,d,0.5959,Hi,,,,,,0,,,,,,,,high,30,0,30,0,1,,,,,,,,,
294787,2022-10-03_12h58.19.421,vts_reward_expectancy,2022.2.4,MacIntel,60.0024001,Chrome,1440,900,,,,,1,816,,,,,,,,,,,,,,,,,W,181,circle,1,0,,,,,,,,,,,,,,,,switch,number,numSwt,k,0.4621,Lo,,,,,,0,,,,,,,,high,31,0,31,0,1,,,,,,,,,
294787,2022-10-03_12h58.19.421,vts_reward_expectancy,2022.2.4,MacIntel,60.0024001,Chrome,1440,900,,,,,0,816,,,,,,,,,,,,,,,,,U,146,hexagon,1,0,,,,,,,,,,,,,,,,switch,letter,lettSwt,f,0.5803,Hi,,,,,,1,,,,,,space,3.0933,high,0,0,0,0,1,,,,,,,,,
294787,2022-10-03_12h58.19.421,vts_reward_expectancy,2022.2.4,MacIntel,60.0024001,Chrome,1440,900,,,,,10,826,,,,,,,,,,,,,,,,,W,139,circle,1,0,,,,,,,,,,,,,,,,repeat,letter,lettRpt,f,0.5325,Lo,,,,,,1,,,,,,,,high,1,0,1,0,1,,,,,,,,,
294787,2022-10-03_12h58.19.421,vts_reward_expectancy,2022.2.4,MacIntel,60.0024001,Chrome,1440,900,,,,,0,826,,,,,,,,,,,,,,,,,H,181,hexagon,1,0,,,,,,,,,,,,,,,,switch,number,numSwt,k,0.6651,Hi,,,,,,1,,,,,,,,high,2,0,2,0,1,,,,,,,,,
294787,2022-10-03_12h58.19.421,vts_reward_expectancy,2022.2.4,MacIntel,60.0024001,Chrome,1440,900,,,,,1,827,,,,,,,,,,,,,,,,,Y,174,circle,1,0,,,,,,,,,,,,,,,,repeat,number,numRpt,k,0.4314,Lo,,,,,,1,,,,,,,,high,3,0,3,0,1,,,,,,,,,
294787,2022-10-03_12h58.19.421,vts_reward_expectancy,2022.2.4,MacIntel,60.0024001,Chrome,1440,900,,,,,1,828,,,,,,,,,,,,,,,,,F,160,circle,1,0,,,,,,,,,,,,,,,,repeat,number,numRpt,k,0.4637,Lo,,,,,,1,,,,,,,,high,4,0,4,0,1,,,,,,,,,
294787,2022-10-03_12h58.19.421,vts_reward_expectancy,2022.2.4,MacIntel,60.0024001,Chrome,1440,900,,,,,10,838,,,,,,,,,,,,,,,,,B,125,hexagon,1,0,,,,,,,,,,,,,,,,switch,letter,lettSwt,d,0.3623,Hi,,,,,,1,,,,,,,,high,5,0,5,0,1,,,,,,,,,
294787,2022-10-03_12h58.19.421,vts_reward_expectancy,2022.2.4,MacIntel,60.0024001,Chrome,1440,900,,,,,1,839,,,,,,,,,,,,,,,,,S,132,circle,1,0,,,,,,,,,,,,,,,,repeat,letter,lettRpt,f,0.4143,Lo,,,,,,1,,,,,,,,high,6,0,6,0,1,,,,,,,,,
294787,2022-10-03_12h58.19.421,vts_reward_expectancy,2022.2.4,MacIntel,60.0024001,Chrome,1440,900,,,,,10,849,,,,,,,,,,,,,,,,,D,167,hexagon,1,0,,,,,,,,,,,,,,,,repeat,letter,lettRpt,d,0.2817,Hi,,,,,,1,,,,,,,,high,7,0,7,0,1,,,,,,,,,
294787,2022-10-03_12h58.19.421,vts_reward_expectancy,2022.2.4,MacIntel,60.0024001,Chrome,1440,900,,,,,1,850,,,,,,,,,,,,,,,,,U,146,circle,1,0,,,,,,,,,,,,,,,,switch,number,numSwt,j,0.5529,Lo,,,,,,1,,,,,,,,high,8,0,8,0,1,,,,,,,,,
294787,2022-10-03_12h58.19.421,vts_reward_expectancy,2022.2.4,MacIntel,60.0024001,Chrome,1440,900,,,,,10,860,,,,,,,,,,,,,,,,,W,139,hexagon,1,0,,,,,,,,,,,,,,,,switch,letter,lettSwt,f,0.413,Hi,,,,,,1,,,,,,,,high,9,0,9,0,1,,,,,,,,,
294787,2022-10-03_12h58.19.421,vts_reward_expectancy,2022.2.4,MacIntel,60.0024001,Chrome,1440,900,,,,,1,861,,,,,,,,,,,,,,,,,H,181,circle,1,0,,,,,,,,,,,,,,,,switch,number,numSwt,k,0.4291,Lo,,,,,,1,,,,,,,,high,10,0,10,0,1,,,,,,,,,
294787,2022-10-03_12h58.19.421,vts_reward_expectancy,2022.2.4,MacIntel,60.0024001,Chrome,1440,900,,,,,0,861,,,,,,,,,,,,,,,,,Y,174,hexagon,0,0,,,,,,,,,,,,,,,,repeat,number,NA,j,0.5265,Lo,,,,,,1,,,,,,,,high,11,0,11,0,1,,,,,,,,,
294787,2022-10-03_12h58.19.421,vts_reward_expectancy,2022.2.4,MacIntel,60.0024001,Chrome,1440,900,,,,,10,871,,,,,,,,,,,,,,,,,F,160,circle,1,1,,,,,,,,,,,,,,,,repeat,number,numRpt,k,0.4636,Lo,,,,,,1,,,,,,,,high,12,0,12,0,1,,,,,,,,,
294787,2022-10-03_12h58.19.421,vts_reward_expectancy,2022.2.4,MacIntel,60.0024001,Chrome,1440,900,,,,,1,872,,,,,,,,,,,,,,,,,B,125,hexagon,1,0,,,,,,,,,,,,,,,,switch,letter,lettSwt,d,0.4424,Hi,,,,,,1,,,,,,,,high,13,0,13,0,1,,,,,,,,,
294787,2022-10-03_12h58.19.421,vts_reward_expectancy,2022.2.4,MacIntel,60.0024001,Chrome,1440,900,,,,,10,882,,,,,,,,,,,,,,,,,S,132,hexagon,1,0,,,,,,,,,,,,,,,,repeat,letter,lettRpt,f,0.5158,Hi,,,,,,1,,,,,,,,high,14,0,14,0,1,,,,,,,,,
294787,2022-10-03_12h58.19.421,vts_reward_expectancy,2022.2.4,MacIntel,60.0024001,Chrome,1440,900,,,,,1,883,,,,,,,,,,,,,,,,,D,167,circle,1,0,,,,,,,,,,,,,,,,switch,number,numSwt,k,0.5965,Lo,,,,,,1,,,,,,,,high,15,0,15,0,1,,,,,,,,,
294787,2022-10-03_12h58.19.421,vts_reward_expectancy,2022.2.4,MacIntel,60.0024001,Chrome,1440,900,,,,,1,884,,,,,,,,,,,,,,,,,B,146,circle,1,0,,,,,,,,,,,,,,,,repeat,number,numRpt,j,0.8289,Lo,,,,,,1,,,,,,,,high,16,0,16,0,1,,,,,,,,,
294787,2022-10-03_12h58.19.421,vts_reward_expectancy,2022.2.4,MacIntel,60.0024001,Chrome,1440,900,,,,,0,884,,,,,,,,,,,,,,,,,W,167,hexagon,1,0,,,,,,,,,,,,,,,,repeat,number,numRpt,k,0.5815,Hi,,,,,,1,,,,,,,,high,17,0,17,0,1,,,,,,,,,
294787,2022-10-03_12h58.19.421,vts_reward_expectancy,2022.2.4,MacIntel,60.0024001,Chrome,1440,900,,,,,0,884,,,,,,,,,,,,,,,,,Y,125,hexagon,1,0,,,,,,,,,,,,,,,,repeat,number,numRpt,j,0.467,Hi,,,,,,1,,,,,,,,high,18,0,18,0,1,,,,,,,,,
294787,2022-10-03_12h58.19.421,vts_reward_expectancy,2022.2.4,MacIntel,60.0024001,Chrome,1440,900,,,,,1,885,,,,,,,,,,,,,,,,,U,160,circle,1,0,,,,,,,,,,,,,,,,switch,letter,lettSwt,f,0.5754,Lo,,,,,,1,,,,,,,,high,19,0,19,0,1,,,,,,,,,
294787,2022-10-03_12h58.19.421,vts_reward_expectancy,2022.2.4,MacIntel,60.0024001,Chrome,1440,900,,,,,0,885,,,,,,,,,,,,,,,,,F,132,hexagon,0,0,,,,,,,,,,,,,,,,repeat,letter,NA,f,0.4875,Lo,,,,,,1,,,,,,,,high,20,0,20,0,1,,,,,,,,,
294787,2022-10-03_12h58.19.421,vts_reward_expectancy,2022.2.4,MacIntel,60.0024001,Chrome,1440,900,,,,,1,886,,,,,,,,,,,,,,,,,H,139,circle,1,1,,,,,,,,,,,,,,,,repeat,letter,lettRpt,d,0.7409,Lo,,,,,,1,,,,,,,,high,21,0,21,0,1,,,,,,,,,
294787,2022-10-03_12h58.19.421,vts_reward_expectancy,2022.2.4,MacIntel,60.0024001,Chrome,1440,900,,,,,0,886,,,,,,,,,,,,,,,,,S,181,hexagon,1,0,,,,,,,,,,,,,,,,switch,number,numSwt,k,0.5093,Hi,,,,,,1,,,,,,,,high,22,0,22,0,1,,,,,,,,,
294787,2022-10-03_12h58.19.421,vts_reward_expectancy,2022.2.4,MacIntel,60.0024001,Chrome,1440,900,,,,,1,887,,,,,,,,,,,,,,,,,D,174,circle,1,0,,,,,,,,,,,,,,,,repeat,number,numRpt,k,0.579,Lo,,,,,,1,,,,,,,,high,23,0,23,0,1,,,,,,,,,
294787,2022-10-03_12h58.19.421,vts_reward_expectancy,2022.2.4,MacIntel,60.0024001,Chrome,1440,900,,,,,1,888,,,,,,,,,,,,,,,,,W,160,circle,1,0,,,,,,,,,,,,,,,,repeat,number,numRpt,k,0.6179,Lo,,,,,,1,,,,,,,,high,24,0,24,0,1,,,,,,,,,
294787,2022-10-03_12h58.19.421,vts_reward_expectancy,2022.2.4,MacIntel,60.0024001,Chrome,1440,900,,,,,10,898,,,,,,,,,,,,,,,,,S,125,hexagon,1,0,,,,,,,,,,,,,,,,repeat,number,numRpt,j,0.4274,Hi,,,,,,1,,,,,,,,high,25,0,25,0,1,,,,,,,,,
294787,2022-10-03_12h58.19.421,vts_reward_expectancy,2022.2.4,MacIntel,60.0024001,Chrome,1440,900,,,,,10,908,,,,,,,,,,,,,,,,,F,132,hexagon,1,0,,,,,,,,,,,,,,,,switch,letter,lettSwt,d,0.4595,Hi,,,,,,1,,,,,,,,high,26,0,26,0,1,,,,,,,,,
294787,2022-10-03_12h58.19.421,vts_reward_expectancy,2022.2.4,MacIntel,60.0024001,Chrome,1440,900,,,,,1,909,,,,,,,,,,,,,,,,,H,146,circle,1,0,,,,,,,,,,,,,,,,repeat,letter,lettRpt,d,0.6343,Lo,,,,,,1,,,,,,,,high,27,0,27,0,1,,,,,,,,,
294787,2022-10-03_12h58.19.421,vts_reward_expectancy,2022.2.4,MacIntel,60.0024001,Chrome,1440,900,,,,,10,919,,,,,,,,,,,,,,,,,D,139,hexagon,1,0,,,,,,,,,,,,,,,,repeat,letter,lettRpt,d,0.4344,Hi,,,,,,1,,,,,,,,high,28,0,28,0,1,,,,,,,,,
294787,2022-10-03_12h58.19.421,vts_reward_expectancy,2022.2.4,MacIntel,60.0024001,Chrome,1440,900,,,,,1,920,,,,,,,,,,,,,,,,,U,167,circle,1,0,,,,,,,,,,,,,,,,switch,number,numSwt,k,0.4331,Lo,,,,,,1,,,,,,,,high,29,0,29,0,1,,,,,,,,,
294787,2022-10-03_12h58.19.421,vts_reward_expectancy,2022.2.4,MacIntel,60.0024001,Chrome,1440,900,,,,,10,930,,,,,,,,,,,,,,,,,B,181,hexagon,1,0,,,,,,,,,,,,,,,,repeat,number,numRpt,k,0.4253,Hi,,,,,,1,,,,,,,,high,30,0,30,0,1,,,,,,,,,
294787,2022-10-03_12h58.19.421,vts_reward_expectancy,2022.2.4,MacIntel,60.0024001,Chrome,1440,900,,,,,0,930,,,,,,,,,,,,,,,,,Y,174,circle,0,0,,,,,,,,,,,,,,,,repeat,number,NA,j,0.5758,Hi,,,,,,1,,,,,,,,high,31,0,31,0,1,,,,,,,,,
294787,2022-10-03_12h58.19.421,vts_reward_expectancy,2022.2.4,MacIntel,60.0024001,Chrome,1440,900,,,,,0,930,,,,,,,,,,,,,,,,,H,125,triangle,1,1,,,,,,,,,,,,,,,,switch,letter,lettSwt,d,0.5272,Hi,,,,,,2,,,,,,space,2.2171,low,0,0,0,0,1,,,,,,,,,
294787,2022-10-03_12h58.19.421,vts_reward_expectancy,2022.2.4,MacIntel,60.0024001,Chrome,1440,900,,,,,1,931,,,,,,,,,,,,,,,,,D,174,star,1,0,,,,,,,,,,,,,,,,repeat,letter,lettRpt,d,0.3952,Lo,,,,,,2,,,,,,,,low,1,0,1,0,1,,,,,,,,,
294787,2022-10-03_12h58.19.421,vts_reward_expectancy,2022.2.4,MacIntel,60.0024001,Chrome,1440,900,,,,,1,932,,,,,,,,,,,,,,,,,Y,139,triangle,1,0,,,,,,,,,,,,,,,,repeat,letter,lettRpt,f,0.4109,Hi,,,,,,2,,,,,,,,low,2,0,2,0,1,,,,,,,,,
294787,2022-10-03_12h58.19.421,vts_reward_expectancy,2022.2.4,MacIntel,60.0024001,Chrome,1440,900,,,,,10,942,,,,,,,,,,,,,,,,,F,160,star,1,0,,,,,,,,,,,,,,,,repeat,letter,lettRpt,d,0.363,Lo,,,,,,2,,,,,,,,low,3,0,3,0,1,,,,,,,,,
294787,2022-10-03_12h58.19.421,vts_reward_expectancy,2022.2.4,MacIntel,60.0024001,Chrome,1440,900,,,,,1,943,,,,,,,,,,,,,,,,,B,132,star,1,0,,,,,,,,,,,,,,,,repeat,letter,lettRpt,d,0.3467,Lo,,,,,,2,,,,,,,,low,4,0,4,0,1,,,,,,,,,
294787,2022-10-03_12h58.19.421,vts_reward_expectancy,2022.2.4,MacIntel,60.0024001,Chrome,1440,900,,,,,0,943,,,,,,,,,,,,,,,,,S,146,triangle,0,0,,,,,,,,,,,,,,,,switch,number,NA,k,0.4158,Lo,,,,,,2,,,,,,,,low,5,0,5,0,1,,,,,,,,,
294787,2022-10-03_12h58.19.421,vts_reward_expectancy,2022.2.4,MacIntel,60.0024001,Chrome,1440,900,,,,,0,943,,,,,,,,,,,,,,,,,W,167,triangle,1,1,,,,,,,,,,,,,,,,repeat,number,numRpt,k,0.4984,Hi,,,,,,2,,,,,,,,low,6,0,6,0,1,,,,,,,,,
294787,2022-10-03_12h58.19.421,vts_reward_expectancy,2022.2.4,MacIntel,60.0024001,Chrome,1440,900,,,,,10,953,,,,,,,,,,,,,,,,,U,181,star,1,0,,,,,,,,,,,,,,,,repeat,number,numRpt,k,0.4969,Lo,,,,,,2,,,,,,,,low,7,0,7,0,1,,,,,,,,,
294787,2022-10-03_12h58.19.421,vts_reward_expectancy,2022.2.4,MacIntel,60.0024001,Chrome,1440,900,,,,,0,953,,,,,,,,,,,,,,,,,H,125,triangle,1,0,,,,,,,,,,,,,,,,repeat,number,numRpt,j,0.5623,Hi,,,,,,2,,,,,,,,low,8,0,8,0,1,,,,,,,,,
294787,2022-10-03_12h58.19.421,vts_reward_expectancy,2022.2.4,MacIntel,60.0024001,Chrome,1440,900,,,,,10,963,,,,,,,,,,,,,,,,,D,174,star,1,0,,,,,,,,,,,,,,,,repeat,number,numRpt,k,0.4797,Lo,,,,,,2,,,,,,,,low,9,0,9,0,1,,,,,,,,,
294787,2022-10-03_12h58.19.421,vts_reward_expectancy,2022.2.4,MacIntel,60.0024001,Chrome,1440,900,,,,,0,963,,,,,,,,,,,,,,,,,Y,139,triangle,0,0,,,,,,,,,,,,,,,,repeat,number,NA,k,0.4003,Lo,,,,,,2,,,,,,,,low,10,0,10,0,1,,,,,,,,,
294787,2022-10-03_12h58.19.421,vts_reward_expectancy,2022.2.4,MacIntel,60.0024001,Chrome,1440,900,,,,,0,963,,,,,,,,,,,,,,,,,F,160,star,0,1,,,,,,,,,,,,,,,,switch,letter,NA,f,0.413,Lo,,,,,,2,,,,,,,,low,11,0,11,0,1,,,,,,,,,
294787,2022-10-03_12h58.19.421,vts_reward_expectancy,2022.2.4,MacIntel,60.0024001,Chrome,1440,900,,,,,1,964,,,,,,,,,,,,,,,,,B,132,triangle,1,1,,,,,,,,,,,,,,,,repeat,letter,lettRpt,d,0.3958,Hi,,,,,,2,,,,,,,,low,12,0,12,0,1,,,,,,,,,
294787,2022-10-03_12h58.19.421,vts_reward_expectancy,2022.2.4,MacIntel,60.0024001,Chrome,1440,900,,,,,1,965,,,,,,,,,,,,,,,,,S,146,star,1,0,,,,,,,,,,,,,,,,repeat,letter,lettRpt,f,0.4661,Lo,,,,,,2,,,,,,,,low,13,0,13,0,1,,,,,,,,,
294787,2022-10-03_12h58.19.421,vts_reward_expectancy,2022.2.4,MacIntel,60.0024001,Chrome,1440,900,,,,,1,966,,,,,,,,,,,,,,,,,W,167,triangle,1,0,,,,,,,,,,,,,,,,switch,number,numSwt,k,0.4792,Hi,,,,,,2,,,,,,,,low,14,0,14,0,1,,,,,,,,,
294787,2022-10-03_12h58.19.421,vts_reward_expectancy,2022.2.4,MacIntel,60.0024001,Chrome,1440,900,,,,,10,976,,,,,,,,,,,,,,,,,U,181,star,1,0,,,,,,,,,,,,,,,,repeat,number,numRpt,k,0.5107,Lo,,,,,,2,,,,,,,,low,15,0,15,0,1,,,,,,,,,
294787,2022-10-03_12h58.19.421,vts_reward_expectancy,2022.2.4,MacIntel,60.0024001,Chrome,1440,900,,,,,0,976,,,,,,,,,,,,,,,,,U,132,triangle,1,0,,,,,,,,,,,,,,,,switch,letter,lettSwt,f,0.4818,Hi,,,,,,2,,,,,,,,low,16,0,16,0,1,,,,,,,,,
294787,2022-10-03_12h58.19.421,vts_reward_expectancy,2022.2.4,MacIntel,60.0024001,Chrome,1440,900,,,,,1,977,,,,,,,,,,,,,,,,,H,125,star,1,0,,,,,,,,,,,,,,,,repeat,letter,lettRpt,d,0.6264,Lo,,,,,,2,,,,,,,,low,17,0,17,0,1,,,,,,,,,
294787,2022-10-03_12h58.19.421,vts_reward_expectancy,2022.2.4,MacIntel,60.0024001,Chrome,1440,900,,,,,1,978,,,,,,,,,,,,,,,,,B,146,star,1,0,,,,,,,,,,,,,,,,repeat,letter,lettRpt,d,0.4424,Lo,,,,,,2,,,,,,,,low,18,0,18,0,1,,,,,,,,,
294787,2022-10-03_12h58.19.421,vts_reward_expectancy,2022.2.4,MacIntel,60.0024001,Chrome,1440,900,,,,,0,978,,,,,,,,,,,,,,,,,D,174,triangle,1,0,,,,,,,,,,,,,,,,repeat,letter,lettRpt,d,0.5308,Hi,,,,,,2,,,,,,,,low,19,0,19,0,1,,,,,,,,,
294787,2022-10-03_12h58.19.421,vts_reward_expectancy,2022.2.4,MacIntel,60.0024001,Chrome,1440,900,,,,,0,978,,,,,,,,,,,,,,,,,S,181,triangle,1,0,,,,,,,,,,,,,,,,switch,number,numSwt,k,0.5133,Hi,,,,,,2,,,,,,,,low,20,0,20,0,1,,,,,,,,,
294787,2022-10-03_12h58.19.421,vts_reward_expectancy,2022.2.4,MacIntel,60.0024001,Chrome,1440,900,,,,,10,988,,,,,,,,,,,,,,,,,W,167,star,1,0,,,,,,,,,,,,,,,,repeat,number,numRpt,k,0.4808,Lo,,,,,,2,,,,,,,,low,21,0,21,0,1,,,,,,,,,
294787,2022-10-03_12h58.19.421,vts_reward_expectancy,2022.2.4,MacIntel,60.0024001,Chrome,1440,900,,,,,0,988,,,,,,,,,,,,,,,,,Y,139,triangle,1,0,,,,,,,,,,,,,,,,repeat,number,numRpt,j,0.5948,Hi,,,,,,2,,,,,,,,low,22,0,22,0,1,,,,,,,,,
294787,2022-10-03_12h58.19.421,vts_reward_expectancy,2022.2.4,MacIntel,60.0024001,Chrome,1440,900,,,,,1,989,,,,,,,,,,,,,,,,,F,160,star,1,0,,,,,,,,,,,,,,,,repeat,number,numRpt,k,0.4298,Lo,,,,,,2,,,,,,,,low,23,0,23,0,1,,,,,,,,,
294787,2022-10-03_12h58.19.421,vts_reward_expectancy,2022.2.4,MacIntel,60.0024001,Chrome,1440,900,,,,,0,989,,,,,,,,,,,,,,,,,H,167,star,0,0,,,,,,,,,,,,,,,,repeat,number,NA,j,0.5461,Lo,,,,,,2,,,,,,,,low,24,0,24,0,1,,,,,,,,,
294787,2022-10-03_12h58.19.421,vts_reward_expectancy,2022.2.4,MacIntel,60.0024001,Chrome,1440,900,,,,,0,989,,,,,,,,,,,,,,,,,Y,160,triangle,1,1,,,,,,,,,,,,,,,,switch,letter,lettSwt,f,0.5954,Hi,,,,,,2,,,,,,,,low,25,0,25,0,1,,,,,,,,,
294787,2022-10-03_12h58.19.421,vts_reward_expectancy,2022.2.4,MacIntel,60.0024001,Chrome,1440,900,,,,,0,989,,,,,,,,,,,,,,,,,U,174,triangle,1,0,,,,,,,,,,,,,,,,repeat,letter,lettRpt,f,0.8943,Hi,,,,,,2,,,,,,,,low,26,0,26,0,1,,,,,,,,,
294787,2022-10-03_12h58.19.421,vts_reward_expectancy,2022.2.4,MacIntel,60.0024001,Chrome,1440,900,,,,,10,999,,,,,,,,,,,,,,,,,D,132,star,1,0,,,,,,,,,,,,,,,,repeat,letter,lettRpt,d,0.5781,Lo,,,,,,2,,,,,,,,low,27,0,27,0,1,,,,,,,,,
294787,2022-10-03_12h58.19.421,vts_reward_expectancy,2022.2.4,MacIntel,60.0024001,Chrome,1440,900,,,,,1,1000,,,,,,,,,,,,,,,,,B,139,star,1,0,,,,,,,,,,,,,,,,switch,number,numSwt,j,0.4943,Lo,,,,,,2,,,,,,,,low,28,0,28,0,1,,,,,,,,,
294787,2022-10-03_12h58.19.421,vts_reward_expectancy,2022.2.4,MacIntel,60.0024001,Chrome,1440,900,,,,,0,1000,,,,,,,,,,,,,,,,,W,181,triangle,1,0,,,,,,,,,,,,,,,,repeat,number,numRpt,k,1.546,Hi,,,,,,2,,,,,,,,low,29,0,29,0,1,,,,,,,,,
294787,2022-10-03_12h58.19.421,vts_reward_expectancy,2022.2.4,MacIntel,60.0024001,Chrome,1440,900,,,,,10,1010,,,,,,,,,,,,,,,,,S,125,star,1,0,,,,,,,,,,,,,,,,switch,letter,lettSwt,f,0.5158,Lo,,,,,,2,,,,,,,,low,30,0,30,0,1,,,,,,,,,
294787,2022-10-03_12h58.19.421,vts_reward_expectancy,2022.2.4,MacIntel,60.0024001,Chrome,1440,900,,,,,0,1010,,,,,,,,,,,,,,,,,F,146,triangle,0,0,,,,,,,,,,,,,,,,repeat,letter,NA,f,0.5288,Lo,,,,,,2,,,,,,,,low,31,0,31,0,1,,,,,,,,,
294787,2022-10-03_12h58.19.421,vts_reward_expectancy,2022.2.4,MacIntel,60.0024001,Chrome,1440,900,,,,,1,1011,,,,,,,,,,,,,,,,,S,139,circle,1,1,,,,,,,,,,,,,,,,repeat,letter,lettRpt,f,0.6238,Lo,,,,,,3,,,,,,space,0.223,high,0,0,0,0,1,,,,,,,,,
294787,2022-10-03_12h58.19.421,vts_reward_expectancy,2022.2.4,MacIntel,60.0024001,Chrome,1440,900,,,,,10,1021,,,,,,,,,,,,,,,,,F,181,hexagon,1,0,,,,,,,,,,,,,,,,switch,number,numSwt,k,0.4813,Hi,,,,,,3,,,,,,,,high,1,0,1,0,1,,,,,,,,,
294787,2022-10-03_12h58.19.421,vts_reward_expectancy,2022.2.4,MacIntel,60.0024001,Chrome,1440,900,,,,,1,1022,,,,,,,,,,,,,,,,,D,167,circle,1,0,,,,,,,,,,,,,,,,repeat,number,numRpt,k,0.5256,Lo,,,,,,3,,,,,,,,high,2,0,2,0,1,,,,,,,,,
294787,2022-10-03_12h58.19.421,vts_reward_expectancy,2022.2.4,MacIntel,60.0024001,Chrome,1440,900,,,,,10,1032,,,,,,,,,,,,,,,,,Y,174,hexagon,1,0,,,,,,,,,,,,,,,,repeat,number,numRpt,k,0.4625,Hi,,,,,,3,,,,,,,,high,3,0,3,0,1,,,,,,,,,
294787,2022-10-03_12h58.19.421,vts_reward_expectancy,2022.2.4,MacIntel,60.0024001,Chrome,1440,900,,,,,10,1042,,,,,,,,,,,,,,,,,W,146,hexagon,1,0,,,,,,,,,,,,,,,,switch,letter,lettSwt,f,0.5139,Hi,,,,,,3,,,,,,,,high,4,0,4,0,1,,,,,,,,,
294787,2022-10-03_12h58.19.421,vts_reward_expectancy,2022.2.4,MacIntel,60.0024001,Chrome,1440,900,,,,,1,1043,,,,,,,,,,,,,,,,,H,132,circle,1,0,,,,,,,,,,,,,,,,repeat,letter,lettRpt,d,0.5777,Lo,,,,,,3,,,,,,,,high,5,0,5,0,1,,,,,,,,,
294787,2022-10-03_12h58.19.421,vts_reward_expectancy,2022.2.4,MacIntel,60.0024001,Chrome,1440,900,,,,,0,1043,,,,,,,,,,,,,,,,,B,160,hexagon,1,0,,,,,,,,,,,,,,,,switch,number,numSwt,k,0.5133,Hi,,,,,,3,,,,,,,,high,6,0,6,0,1,,,,,,,,,
294787,2022-10-03_12h58.19.421,vts_reward_expectancy,2022.2.4,MacIntel,60.0024001,Chrome,1440,900,,,,,10,1053,,,,,,,,,,,,,,,,,U,125,circle,1,0,,,,,,,,,,,,,,,,repeat,number,numRpt,j,0.4641,Lo,,,,,,3,,,,,,,,high,7,0,7,0,1,,,,,,,,,
294787,2022-10-03_12h58.19.421,vts_reward_expectancy,2022.2.4,MacIntel,60.0024001,Chrome,1440,900,,,,,1,1054,,,,,,,,,,,,,,,,,S,139,circle,1,0,,,,,,,,,,,,,,,,repeat,number,numRpt,j,0.6249,Lo,,,,,,3,,,,,,,,high,8,0,8,0,1,,,,,,,,,
294787,2022-10-03_12h58.19.421,vts_reward_expectancy,2022.2.4,MacIntel,60.0024001,Chrome,1440,900,,,,,1,1055,,,,,,,,,,,,,,,,,F,181,hexagon,1,0,,,,,,,,,,,,,,,,repeat,number,numRpt,k,0.4111,Hi,,,,,,3,,,,,,,,high,9,0,9,0,1,,,,,,,,,
294787,2022-10-03_12h58.19.421,vts_reward_expectancy,2022.2.4,MacIntel,60.0024001,Chrome,1440,900,,,,,0,1055,,,,,,,,,,,,,,,,,D,167,circle,0,0,,,,,,,,,,,,,,,,repeat,number,NA,j,0.659,Hi,,,,,,3,,,,,,,,high,10,0,10,0,1,,,,,,,,,
294787,2022-10-03_12h58.19.421,vts_reward_expectancy,2022.2.4,MacIntel,60.0024001,Chrome,1440,900,,,,,0,1055,,,,,,,,,,,,,,,,,Y,174,hexagon,1,1,,,,,,,,,,,,,,,,switch,letter,lettSwt,f,0.7467,Hi,,,,,,3,,,,,,,,high,11,0,11,0,1,,,,,,,,,
294787,2022-10-03_12h58.19.421,vts_reward_expectancy,2022.2.4,MacIntel,60.0024001,Chrome,1440,900,,,,,0,1055,,,,,,,,,,,,,,,,,W,146,hexagon,0,0,,,,,,,,,,,,,,,,repeat,letter,NA,d,0.6908,Hi,,,,,,3,,,,,,,,high,12,0,12,0,1,,,,,,,,,
294787,2022-10-03_12h58.19.421,vts_reward_expectancy,2022.2.4,MacIntel,60.0024001,Chrome,1440,900,,,,,1,1056,,,,,,,,,,,,,,,,,H,132,circle,1,1,,,,,,,,,,,,,,,,repeat,letter,lettRpt,d,0.5627,Lo,,,,,,3,,,,,,,,high,13,0,13,0,1,,,,,,,,,
294787,2022-10-03_12h58.19.421,vts_reward_expectancy,2022.2.4,MacIntel,60.0024001,Chrome,1440,900,,,,,1,1057,,,,,,,,,,,,,,,,,B,160,circle,1,0,,,,,,,,,,,,,,,,switch,number,numSwt,k,0.5311,Lo,,,,,,3,,,,,,,,high,14,0,14,0,1,,,,,,,,,
294787,2022-10-03_12h58.19.421,vts_reward_expectancy,2022.2.4,MacIntel,60.0024001,Chrome,1440,900,,,,,0,1057,,,,,,,,,,,,,,,,,U,125,hexagon,0,0,,,,,,,,,,,,,,,,repeat,number,NA,k,0.4946,Lo,,,,,,3,,,,,,,,high,15,0,15,0,1,,,,,,,,,
294787,2022-10-03_12h58.19.421,vts_reward_expectancy,2022.2.4,MacIntel,60.0024001,Chrome,1440,900,,,,,1,1058,,,,,,,,,,,,,,,,,Y,174,circle,1,1,,,,,,,,,,,,,,,,repeat,number,numRpt,k,0.5285,Lo,,,,,,3,,,,,,,,high,16,0,16,0,1,,,,,,,,,
294787,2022-10-03_12h58.19.421,vts_reward_expectancy,2022.2.4,MacIntel,60.0024001,Chrome,1440,900,,,,,10,1068,,,,,,,,,,,,,,,,,D,167,hexagon,1,0,,,,,,,,,,,,,,,,repeat,number,numRpt,k,0.3789,Hi,,,,,,3,,,,,,,,high,17,0,17,0,1,,,,,,,,,
294787,2022-10-03_12h58.19.421,vts_reward_expectancy,2022.2.4,MacIntel,60.0024001,Chrome,1440,900,,,,,0,1068,,,,,,,,,,,,,,,,,U,146,hexagon,1,0,,,,,,,,,,,,,,,,repeat,number,numRpt,j,0.5832,Hi,,,,,,3,,,,,,,,high,18,0,18,0,1,,,,,,,,,
294787,2022-10-03_12h58.19.421,vts_reward_expectancy,2022.2.4,MacIntel,60.0024001,Chrome,1440,900,,,,,1,1069,,,,,,,,,,,,,,,,,H,181,circle,1,0,,,,,,,,,,,,,,,,repeat,number,numRpt,k,0.4472,Lo,,,,,,3,,,,,,,,high,19,0,19,0,1,,,,,,,,,
294787,2022-10-03_12h58.19.421,vts_reward_expectancy,2022.2.4,MacIntel,60.0024001,Chrome,1440,900,,,,,10,1079,,,,,,,,,,,,,,,,,F,132,hexagon,1,0,,,,,,,,,,,,,,,,repeat,number,numRpt,j,0.3949,Hi,,,,,,3,,,,,,,,high,20,0,20,0,1,,,,,,,,,
294787,2022-10-03_12h58.19.421,vts_reward_expectancy,2022.2.4,MacIntel,60.0024001,Chrome,1440,900,,,,,1,1080,,,,,,,,,,,,,,,,,S,160,circle,1,0,,,,,,,,,,,,,,,,repeat,number,numRpt,k,0.3969,Lo,,,,,,3,,,,,,,,high,21,0,21,0,1,,,,,,,,,
294787,2022-10-03_12h58.19.421,vts_reward_expectancy,2022.2.4,MacIntel,60.0024001,Chrome,1440,900,,,,,1,1081,,,,,,,,,,,,,,,,,B,139,circle,1,0,,,,,,,,,,,,,,,,switch,letter,lettSwt,d,0.4621,Lo,,,,,,3,,,,,,,,high,22,0,22,0,1,,,,,,,,,
294787,2022-10-03_12h58.19.421,vts_reward_expectancy,2022.2.4,MacIntel,60.0024001,Chrome,1440,900,,,,,0,1081,,,,,,,,,,,,,,,,,W,125,hexagon,0,0,,,,,,,,,,,,,,,,repeat,letter,NA,d,0.5139,Lo,,,,,,3,,,,,,,,high,23,0,23,0,1,,,,,,,,,
294787,2022-10-03_12h58.19.421,vts_reward_expectancy,2022.2.4,MacIntel,60.0024001,Chrome,1440,900,,,,,0,1081,,,,,,,,,,,,,,,,,F,125,hexagon,1,1,,,,,,,,,,,,,,,,repeat,letter,lettRpt,d,0.545,Hi,,,,,,3,,,,,,,,high,24,0,24,0,1,,,,,,,,,
294787,2022-10-03_12h58.19.421,vts_reward_expectancy,2022.2.4,MacIntel,60.0024001,Chrome,1440,900,,,,,1,1082,,,,,,,,,,,,,,,,,B,132,circle,1,0,,,,,,,,,,,,,,,,switch,number,numSwt,j,0.483,Lo,,,,,,3,,,,,,,,high,25,0,25,0,1,,,,,,,,,
294787,2022-10-03_12h58.19.421,vts_reward_expectancy,2022.2.4,MacIntel,60.0024001,Chrome,1440,900,,,,,0,1082,,,,,,,,,,,,,,,,,H,139,hexagon,1,0,,,,,,,,,,,,,,,,repeat,number,numRpt,j,0.8655,Hi,,,,,,3,,,,,,,,high,26,0,26,0,1,,,,,,,,,
294787,2022-10-03_12h58.19.421,vts_reward_expectancy,2022.2.4,MacIntel,60.0024001,Chrome,1440,900,,,,,1,1083,,,,,,,,,,,,,,,,,Y,167,circle,1,0,,,,,,,,,,,,,,,,repeat,number,numRpt,k,0.4323,Lo,,,,,,3,,,,,,,,high,27,0,27,0,1,,,,,,,,,
294787,2022-10-03_12h58.19.421,vts_reward_expectancy,2022.2.4,MacIntel,60.0024001,Chrome,1440,900,,,,,1,1084,,,,,,,,,,,,,,,,,D,174,circle,1,0,,,,,,,,,,,,,,,,repeat,number,numRpt,k,0.3795,Lo,,,,,,3,,,,,,,,high,28,0,28,0,1,,,,,,,,,
294787,2022-10-03_12h58.19.421,vts_reward_expectancy,2022.2.4,MacIntel,60.0024001,Chrome,1440,900,,,,,0,1084,,,,,,,,,,,,,,,,,W,146,hexagon,1,0,,,,,,,,,,,,,,,,repeat,number,numRpt,j,0.5625,Hi,,,,,,3,,,,,,,,high,29,0,29,0,1,,,,,,,,,
294787,2022-10-03_12h58.19.421,vts_reward_expectancy,2022.2.4,MacIntel,60.0024001,Chrome,1440,900,,,,,1,1085,,,,,,,,,,,,,,,,,S,181,circle,1,0,,,,,,,,,,,,,,,,switch,letter,lettSwt,f,0.4467,Lo,,,,,,3,,,,,,,,high,30,0,30,0,1,,,,,,,,,
294787,2022-10-03_12h58.19.421,vts_reward_expectancy,2022.2.4,MacIntel,60.0024001,Chrome,1440,900,,,,,0,1085,,,,,,,,,,,,,,,,,U,160,hexagon,1,0,,,,,,,,,,,,,,,,repeat,letter,lettRpt,f,0.5816,Hi,,,,,,3,,,,,,,,high,31,0,31,0,1,,,,,,,,,
294787,2022-10-03_12h58.19.421,vts_reward_expectancy,2022.2.4,MacIntel,60.0024001,Chrome,1440,900,,,,,0,1085,,,,,,,,,,,,,,,,,F,174,triangle,0,0,,,,,,,,,,,,,,,,switch,number,NA,j,0.3766,Hi,,,,,,4,,,,,,space,0.1699,low,0,0,0,0,1,,,,,,,,,
294787,2022-10-03_12h58.19.421,vts_reward_expectancy,2022.2.4,MacIntel,60.0024001,Chrome,1440,900,,,,,1,1086,,,,,,,,,,,,,,,,,U,146,star,1,1,,,,,,,,,,,,,,,,repeat,number,numRpt,j,0.4987,Lo,,,,,,4,,,,,,,,low,1,0,1,0,1,,,,,,,,,
294787,2022-10-03_12h58.19.421,vts_reward_expectancy,2022.2.4,MacIntel,60.0024001,Chrome,1440,900,,,,,10,1096,,,,,,,,,,,,,,,,,D,139,triangle,1,0,,,,,,,,,,,,,,,,switch,letter,lettSwt,d,0.4064,Hi,,,,,,4,,,,,,,,low,2,0,2,0,1,,,,,,,,,
294787,2022-10-03_12h58.19.421,vts_reward_expectancy,2022.2.4,MacIntel,60.0024001,Chrome,1440,900,,,,,1,1097,,,,,,,,,,,,,,,,,S,132,star,1,0,,,,,,,,,,,,,,,,repeat,letter,lettRpt,f,0.4619,Lo,,,,,,4,,,,,,,,low,3,0,3,0,1,,,,,,,,,
294787,2022-10-03_12h58.19.421,vts_reward_expectancy,2022.2.4,MacIntel,60.0024001,Chrome,1440,900,,,,,1,1098,,,,,,,,,,,,,,,,,B,125,star,1,0,,,,,,,,,,,,,,,,repeat,letter,lettRpt,d,0.4928,Lo,,,,,,4,,,,,,,,low,4,0,4,0,1,,,,,,,,,
294787,2022-10-03_12h58.19.421,vts_reward_expectancy,2022.2.4,MacIntel,60.0024001,Chrome,1440,900,,,,,0,1098,,,,,,,,,,,,,,,,,W,181,triangle,1,0,,,,,,,,,,,,,,,,repeat,letter,lettRpt,f,0.7098,Hi,,,,,,4,,,,,,,,low,5,0,5,0,1,,,,,,,,,
294787,2022-10-03_12h58.19.421,vts_reward_expectancy,2022.2.4,MacIntel,60.0024001,Chrome,1440,900,,,,,1,1099,,,,,,,,,,,,,,,,,Y,160,star,1,0,,,,,,,,,,,,,,,,switch,number,numSwt,k,0.6286,Lo,,,,,,4,,,,,,,,low,6,0,6,0,1,,,,,,,,,
294787,2022-10-03_12h58.19.421,vts_reward_expectancy,2022.2.4,MacIntel,60.0024001,Chrome,1440,900,,,,,0,1099,,,,,,,,,,,,,,,,,H,167,triangle,1,0,,,,,,,,,,,,,,,,repeat,number,numRpt,k,0.612,Hi,,,,,,4,,,,,,,,low,7,0,7,0,1,,,,,,,,,
294787,2022-10-03_12h58.19.421,vts_reward_expectancy,2022.2.4,MacIntel,60.0024001,Chrome,1440,900,,,,,10,1109,,,,,,,,,,,,,,,,,F,174,star,1,0,,,,,,,,,,,,,,,,repeat,number,numRpt,k,0.517,Lo,,,,,,4,,,,,,,,low,8,0,8,0,1,,,,,,,,,
294787,2022-10-03_12h58.19.421,vts_reward_expectancy,2022.2.4,MacIntel,60.0024001,Chrome,1440,900,,,,,0,1109,,,,,,,,,,,,,,,,,U,146,triangle,1,0,,,,,,,,,,,,,,,,repeat,number,numRpt,j,0.597,Hi,,,,,,4,,,,,,,,low,9,0,9,0,1,,,,,,,,,
294787,2022-10-03_12h58.19.421,vts_reward_expectancy,2022.2.4,MacIntel,60.0024001,Chrome,1440,900,,,,,10,1119,,,,,,,,,,,,,,,,,D,139,star,1,0,,,,,,,,,,,,,,,,switch,letter,lettSwt,d,0.5329,Lo,,,,,,4,,,,,,,,low,10,0,10,0,1,,,,,,,,,
294787,2022-10-03_12h58.19.421,vts_reward_expectancy,2022.2.4,MacIntel,60.0024001,Chrome,1440,900,,,,,10,1129,,,,,,,,,,,,,,,,,S,132,triangle,1,0,,,,,,,,,,,,,,,,repeat,letter,lettRpt,f,0.446,Hi,,,,,,4,,,,,,,,low,11,0,11,0,1,,,,,,,,,
294787,2022-10-03_12h58.19.421,vts_reward_expectancy,2022.2.4,MacIntel,60.0024001,Chrome,1440,900,,,,,10,1139,,,,,,,,,,,,,,,,,B,125,triangle,1,0,,,,,,,,,,,,,,,,repeat,letter,lettRpt,d,0.4466,Hi,,,,,,4,,,,,,,,low,12,0,12,0,1,,,,,,,,,
294787,2022-10-03_12h58.19.421,vts_reward_expectancy,2022.2.4,MacIntel,60.0024001,Chrome,1440,900,,,,,1,1140,,,,,,,,,,,,,,,,,W,181,star,1,0,,,,,,,,,,,,,,,,switch,number,numSwt,k,0.4297,Lo,,,,,,4,,,,,,,,low,13,0,13,0,1,,,,,,,,,
294787,2022-10-03_12h58.19.421,vts_reward_expectancy,2022.2.4,MacIntel,60.0024001,Chrome,1440,900,,,,,10,1150,,,,,,,,,,,,,,,,,Y,160,star,1,0,,,,,,,,,,,,,,,,repeat,number,numRpt,k,0.5155,Lo,,,,,,4,,,,,,,,low,14,0,14,0,1,,,,,,,,,
294787,2022-10-03_12h58.19.421,vts_reward_expectancy,2022.2.4,MacIntel,60.0024001,Chrome,1440,900,,,,,0,1150,,,,,,,,,,,,,,,,,H,167,triangle,0,0,,,,,,,,,,,,,,,,switch,letter,NA,f,0.4747,Lo,,,,,,4,,,,,,,,low,15,0,15,0,1,,,,,,,,,
294787,2022-10-03_12h58.19.421,vts_reward_expectancy,2022.2.4,MacIntel,60.0024001,Chrome,1440,900,,,,,0,1150,,,,,,,,,,,,,,,,,H,167,triangle,1,1,,,,,,,,,,,,,,,,repeat,letter,lettRpt,d,0.7196,Hi,,,,,,4,,,,,,,,low,16,0,16,0,1,,,,,,,,,
294787,2022-10-03_12h58.19.421,vts_reward_expectancy,2022.2.4,MacIntel,60.0024001,Chrome,1440,900,,,,,10,1160,,,,,,,,,,,,,,,,,W,125,star,1,0,,,,,,,,,,,,,,,,repeat,letter,lettRpt,f,0.5778,Lo,,,,,,4,,,,,,,,low,17,0,17,0,1,,,,,,,,,
294787,2022-10-03_12h58.19.421,vts_reward_expectancy,2022.2.4,MacIntel,60.0024001,Chrome,1440,900,,,,,1,1161,,,,,,,,,,,,,,,,,Y,181,star,1,0,,,,,,,,,,,,,,,,switch,number,numSwt,k,0.4801,Lo,,,,,,4,,,,,,,,low,18,0,18,0,1,,,,,,,,,
294787,2022-10-03_12h58.19.421,vts_reward_expectancy,2022.2.4,MacIntel,60.0024001,Chrome,1440,900,,,,,0,1161,,,,,,,,,,,,,,,,,S,174,triangle,1,0,,,,,,,,,,,,,,,,switch,letter,lettSwt,f,0.6284,Hi,,,,,,4,,,,,,,,low,19,0,19,0,1,,,,,,,,,
294787,2022-10-03_12h58.19.421,vts_reward_expectancy,2022.2.4,MacIntel,60.0024001,Chrome,1440,900,,,,,10,1171,,,,,,,,,,,,,,,,,B,160,triangle,1,0,,,,,,,,,,,,,,,,repeat,letter,lettRpt,d,0.361,Hi,,,,,,4,,,,,,,,low,20,0,20,0,1,,,,,,,,,
294787,2022-10-03_12h58.19.421,vts_reward_expectancy,2022.2.4,MacIntel,60.0024001,Chrome,1440,900,,,,,1,1172,,,,,,,,,,,,,,,,,F,132,star,1,0,,,,,,,,,,,,,,,,switch,number,numSwt,j,0.3954,Lo,,,,,,4,,,,,,,,low,21,0,21,0,1,,,,,,,,,
294787,2022-10-03_12h58.19.421,vts_reward_expectancy,2022.2.4,MacIntel,60.0024001,Chrome,1440,900,,,,,0,1172,,,,,,,,,,,,,,,,,D,146,triangle,1,0,,,,,,,,,,,,,,,,repeat,number,numRpt,j,0.5475,Hi,,,,,,4,,,,,,,,low,22,0,22,0,1,,,,,,,,,
294787,2022-10-03_12h58.19.421,vts_reward_expectancy,2022.2.4,MacIntel,60.0024001,Chrome,1440,900,,,,,10,1182,,,,,,,,,,,,,,,,,U,139,star,1,0,,,,,,,,,,,,,,,,repeat,number,numRpt,j,0.3783,Lo,,,,,,4,,,,,,,,low,23,0,23,0,1,,,,,,,,,
294787,2022-10-03_12h58.19.421,vts_reward_expectancy,2022.2.4,MacIntel,60.0024001,Chrome,1440,900,,,,,0,1182,,,,,,,,,,,,,,,,,F,132,triangle,1,0,,,,,,,,,,,,,,,,switch,letter,lettSwt,d,0.5111,Hi,,,,,,4,,,,,,,,low,24,0,24,0,1,,,,,,,,,
294787,2022-10-03_12h58.19.421,vts_reward_expectancy,2022.2.4,MacIntel,60.0024001,Chrome,1440,900,,,,,10,1192,,,,,,,,,,,,,,,,,D,181,star,1,0,,,,,,,,,,,,,,,,repeat,letter,lettRpt,d,0.4493,Lo,,,,,,4,,,,,,,,low,25,0,25,0,1,,,,,,,,,
294787,2022-10-03_12h58.19.421,vts_reward_expectancy,2022.2.4,MacIntel,60.0024001,Chrome,1440,900,,,,,10,1202,,,,,,,,,,,,,,,,,H,146,star,1,0,,,,,,,,,,,,,,,,repeat,letter,lettRpt,d,0.4877,Lo,,,,,,4,,,,,,,,low,26,0,26,0,1,,,,,,,,,
294787,2022-10-03_12h58.19.421,vts_reward_expectancy,2022.2.4,MacIntel,60.0024001,Chrome,1440,900,,,,,0,1202,,,,,,,,,,,,,,,,,S,139,triangle,0,0,,,,,,,,,,,,,,,,repeat,letter,NA,d,0.6058,Lo,,,,,,4,,,,,,,,low,27,0,27,0,1,,,,,,,,,
294787,2022-10-03_12h58.19.421,vts_reward_expectancy,2022.2.4,MacIntel,60.0024001,Chrome,1440,900,,,,,10,1212,,,,,,,,,,,,,,,,,Y,174,triangle,1,1,,,,,,,,,,,,,,,,repeat,letter,lettRpt,f,0.4132,Hi,,,,,,4,,,,,,,,low,28,0,28,0,1,,,,,,,,,
294787,2022-10-03_12h58.19.421,vts_reward_expectancy,2022.2.4,MacIntel,60.0024001,Chrome,1440,900,,,,,0,1212,,,,,,,,,,,,,,,,,U,167,star,0,0,,,,,,,,,,,,,,,,repeat,letter,NA,d,0.5911,Hi,,,,,,4,,,,,,,,low,29,0,29,0,1,,,,,,,,,
294787,2022-10-03_12h58.19.421,vts_reward_expectancy,2022.2.4,MacIntel,60.0024001,Chrome,1440,900,,,,,10,1222,,,,,,,,,,,,,,,,,W,160,triangle,1,1,,,,,,,,,,,,,,,,repeat,letter,lettRpt,f,0.5557,Hi,,,,,,4,,,,,,,,low,30,0,30,0,1,,,,,,,,,
294787,2022-10-03_12h58.19.421,vts_reward_expectancy,2022.2.4,MacIntel,60.0024001,Chrome,1440,900,,,,,1,1223,,,,,,,,,,,,,,,,,B,125,star,1,0,,,,,,,,,,,,,,,,switch,number,numSwt,j,0.4579,Lo,,,,,,4,,,,,,,,low,31,0,31,0,1,,,,,,,,,
294787,2022-10-03_12h58.19.421,vts_reward_expectancy,2022.2.4,MacIntel,60.0024001,Chrome,1440,900,,,,,1,1224,,,,,,,,,,,,,,,,,Y,174,star,1,0,,,,,,,,,,,,,,,,switch,letter,lettSwt,f,0.5269,Lo,,,,,,5,,,,,,space,0.1004,low,0,0,0,0,1,,,,,,,,,
294787,2022-10-03_12h58.19.421,vts_reward_expectancy,2022.2.4,MacIntel,60.0024001,Chrome,1440,900,,,,,1,1225,,,,,,,,,,,,,,,,,B,181,triangle,1,0,,,,,,,,,,,,,,,,switch,number,numSwt,k,0.3802,Hi,,,,,,5,,,,,,,,low,1,0,1,0,1,,,,,,,,,
294787,2022-10-03_12h58.19.421,vts_reward_expectancy,2022.2.4,MacIntel,60.0024001,Chrome,1440,900,,,,,0,1225,,,,,,,,,,,,,,,,,W,125,star,0,0,,,,,,,,,,,,,,,,switch,letter,NA,d,0.5635,Hi,,,,,,5,,,,,,,,low,2,0,2,0,1,,,,,,,,,
294787,2022-10-03_12h58.19.421,vts_reward_expectancy,2022.2.4,MacIntel,60.0024001,Chrome,1440,900,,,,,1,1226,,,,,,,,,,,,,,,,,H,132,triangle,1,1,,,,,,,,,,,,,,,,repeat,letter,lettRpt,d,0.4468,Hi,,,,,,5,,,,,,,,low,3,0,3,0,1,,,,,,,,,
294787,2022-10-03_12h58.19.421,vts_reward_expectancy,2022.2.4,MacIntel,60.0024001,Chrome,1440,900,,,,,0,1226,,,,,,,,,,,,,,,,,F,146,triangle,1,0,,,,,,,,,,,,,,,,switch,number,numSwt,j,0.495,Hi,,,,,,5,,,,,,,,low,4,0,4,0,1,,,,,,,,,
294787,2022-10-03_12h58.19.421,vts_reward_expectancy,2022.2.4,MacIntel,60.0024001,Chrome,1440,900,,,,,1,1227,,,,,,,,,,,,,,,,,D,160,star,1,0,,,,,,,,,,,,,,,,repeat,number,numRpt,k,0.3447,Lo,,,,,,5,,,,,,,,low,5,0,5,0,1,,,,,,,,,
294787,2022-10-03_12h58.19.421,vts_reward_expectancy,2022.2.4,MacIntel,60.0024001,Chrome,1440,900,,,,,10,1237,,,,,,,,,,,,,,,,,S,167,star,1,0,,,,,,,,,,,,,,,,switch,letter,lettSwt,f,0.6285,Lo,,,,,,5,,,,,,,,low,6,0,6,0,1,,,,,,,,,
294787,2022-10-03_12h58.19.421,vts_reward_expectancy,2022.2.4,MacIntel,60.0024001,Chrome,1440,900,,,,,0,1237,,,,,,,,,,,,,,,,,U,139,triangle,1,0,,,,,,,,,,,,,,,,repeat,letter,lettRpt,f,0.5162,Hi,,,,,,5,,,,,,,,low,7,0,7,0,1,,,,,,,,,
294787,2022-10-03_12h58.19.421,vts_reward_expectancy,2022.2.4,MacIntel,60.0024001,Chrome,1440,900,,,,,0,1237,,,,,,,,,,,,,,,,,Y,174,triangle,1,0,,,,,,,,,,,,,,,,switch,number,numSwt,k,0.5406,Hi,,,,,,5,,,,,,,,low,8,0,8,0,1,,,,,,,,,
294787,2022-10-03_12h58.19.421,vts_reward_expectancy,2022.2.4,MacIntel,60.0024001,Chrome,1440,900,,,,,1,1238,,,,,,,,,,,,,,,,,B,181,star,1,0,,,,,,,,,,,,,,,,repeat,number,numRpt,k,0.45,Lo,,,,,,5,,,,,,,,low,9,0,9,0,1,,,,,,,,,
294787,2022-10-03_12h58.19.421,vts_reward_expectancy,2022.2.4,MacIntel,60.0024001,Chrome,1440,900,,,,,1,1239,,,,,,,,,,,,,,,,,W,125,triangle,1,0,,,,,,,,,,,,,,,,repeat,number,numRpt,j,0.4274,Hi,,,,,,5,,,,,,,,low,10,0,10,0,1,,,,,,,,,
294787,2022-10-03_12h58.19.421,vts_reward_expectancy,2022.2.4,MacIntel,60.0024001,Chrome,1440,900,,,,,10,1249,,,,,,,,,,,,,,,,,H,132,star,1,0,,,,,,,,,,,,,,,,repeat,number,numRpt,j,0.4902,Lo,,,,,,5,,,,,,,,low,11,0,11,0,1,,,,,,,,,
294787,2022-10-03_12h58.19.421,vts_reward_expectancy,2022.2.4,MacIntel,60.0024001,Chrome,1440,900,,,,,0,1249,,,,,,,,,,,,,,,,,F,146,star,0,0,,,,,,,,,,,,,,,,switch,letter,NA,f,0.4588,Lo,,,,,,5,,,,,,,,low,12,0,12,0,1,,,,,,,,,
294787,2022-10-03_12h58.19.421,vts_reward_expectancy,2022.2.4,MacIntel,60.0024001,Chrome,1440,900,,,,,10,1259,,,,,,,,,,,,,,,,,D,160,triangle,1,1,,,,,,,,,,,,,,,,repeat,letter,lettRpt,d,0.4,Hi,,,,,,5,,,,,,,,low,13,0,13,0,1,,,,,,,,,
294787,2022-10-03_12h58.19.421,vts_reward_expectancy,2022.2.4,MacIntel,60.0024001,Chrome,1440,900,,,,,10,1269,,,,,,,,,,,,,,,,,S,167,star,1,0,,,,,,,,,,,,,,,,repeat,letter,lettRpt,f,0.4824,Lo,,,,,,5,,,,,,,,low,14,0,14,0,1,,,,,,,,,
294787,2022-10-03_12h58.19.421,vts_reward_expectancy,2022.2.4,MacIntel,60.0024001,Chrome,1440,900,,,,,0,1269,,,,,,,,,,,,,,,,,U,139,triangle,1,0,,,,,,,,,,,,,,,,switch,number,numSwt,j,0.4462,Hi,,,,,,5,,,,,,,,low,15,0,15,0,1,,,,,,,,,
294787,2022-10-03_12h58.19.421,vts_reward_expectancy,2022.2.4,MacIntel,60.0024001,Chrome,1440,900,,,,,1,1270,,,,,,,,,,,,,,,,,U,132,triangle,1,0,,,,,,,,,,,,,,,,repeat,number,numRpt,j,0.4822,Hi,,,,,,5,,,,,,,,low,16,0,16,0,1,,,,,,,,,
294787,2022-10-03_12h58.19.421,vts_reward_expectancy,2022.2.4,MacIntel,60.0024001,Chrome,1440,900,,,,,0,1270,,,,,,,,,,,,,,,,,Y,167,star,0,0,,,,,,,,,,,,,,,,switch,letter,NA,d,0.4789,Hi,,,,,,5,,,,,,,,low,17,0,17,0,1,,,,,,,,,
294787,2022-10-03_12h58.19.421,vts_reward_expectancy,2022.2.4,MacIntel,60.0024001,Chrome,1440,900,,,,,0,1270,,,,,,,,,,,,,,,,,H,181,triangle,1,1,,,,,,,,,,,,,,,,repeat,letter,lettRpt,d,0.5795,Hi,,,,,,5,,,,,,,,low,18,0,18,0,1,,,,,,,,,
294787,2022-10-03_12h58.19.421,vts_reward_expectancy,2022.2.4,MacIntel,60.0024001,Chrome,1440,900,,,,,1,1271,,,,,,,,,,,,,,,,,F,125,star,1,0,,,,,,,,,,,,,,,,repeat,letter,lettRpt,d,0.4782,Lo,,,,,,5,,,,,,,,low,19,0,19,0,1,,,,,,,,,
294787,2022-10-03_12h58.19.421,vts_reward_expectancy,2022.2.4,MacIntel,60.0024001,Chrome,1440,900,,,,,0,1271,,,,,,,,,,,,,,,,,D,146,triangle,1,0,,,,,,,,,,,,,,,,switch,number,numSwt,j,0.5113,Hi,,,,,,5,,,,,,,,low,20,0,20,0,1,,,,,,,,,
294787,2022-10-03_12h58.19.421,vts_reward_expectancy,2022.2.4,MacIntel,60.0024001,Chrome,1440,900,,,,,0,1271,,,,,,,,,,,,,,,,,S,160,star,0,0,,,,,,,,,,,,,,,,repeat,number,NA,j,0.4328,Hi,,,,,,5,,,,,,,,low,21,0,21,0,1,,,,,,,,,
294787,2022-10-03_12h58.19.421,vts_reward_expectancy,2022.2.4,MacIntel,60.0024001,Chrome,1440,900,,,,,1,1272,,,,,,,,,,,,,,,,,B,174,star,1,1,,,,,,,,,,,,,,,,repeat,number,numRpt,k,0.4398,Lo,,,,,,5,,,,,,,,low,22,0,22,0,1,,,,,,,,,
294787,2022-10-03_12h58.19.421,vts_reward_expectancy,2022.2.4,MacIntel,60.0024001,Chrome,1440,900,,,,,0,1272,,,,,,,,,,,,,,,,,W,139,triangle,1,0,,,,,,,,,,,,,,,,switch,letter,lettSwt,f,0.5293,Hi,,,,,,5,,,,,,,,low,23,0,23,0,1,,,,,,,,,
294787,2022-10-03_12h58.19.421,vts_reward_expectancy,2022.2.4,MacIntel,60.0024001,Chrome,1440,900,,,,,0,1272,,,,,,,,,,,,,,,,,U,146,star,0,0,,,,,,,,,,,,,,,,repeat,letter,NA,d,0.3154,Hi,,,,,,5,,,,,,,,low,24,0,24,0,1,,,,,,,,,
294787,2022-10-03_12h58.19.421,vts_reward_expectancy,2022.2.4,MacIntel,60.0024001,Chrome,1440,900,,,,,0,1272,,,,,,,,,,,,,,,,,W,181,triangle,1,1,,,,,,,,,,,,,,,,repeat,letter,lettRpt,f,0.5961,Hi,,,,,,5,,,,,,,,low,25,0,25,0,1,,,,,,,,,
294787,2022-10-03_12h58.19.421,vts_reward_expectancy,2022.2.4,MacIntel,60.0024001,Chrome,1440,900,,,,,0,1272,,,,,,,,,,,,,,,,,H,174,triangle,1,0,,,,,,,,,,,,,,,,switch,number,numSwt,k,0.5268,Hi,,,,,,5,,,,,,,,low,26,0,26,0,1,,,,,,,,,
294787,2022-10-03_12h58.19.421,vts_reward_expectancy,2022.2.4,MacIntel,60.0024001,Chrome,1440,900,,,,,10,1282,,,,,,,,,,,,,,,,,S,132,star,1,0,,,,,,,,,,,,,,,,repeat,number,numRpt,j,0.4607,Lo,,,,,,5,,,,,,,,low,27,0,27,0,1,,,,,,,,,
294787,2022-10-03_12h58.19.421,vts_reward_expectancy,2022.2.4,MacIntel,60.0024001,Chrome,1440,900,,,,,1,1283,,,,,,,,,,,,,,,,,F,160,star,1,0,,,,,,,,,,,,,,,,repeat,number,numRpt,k,0.4479,Lo,,,,,,5,,,,,,,,low,28,0,28,0,1,,,,,,,,,
294787,2022-10-03_12h58.19.421,vts_reward_expectancy,2022.2.4,MacIntel,60.0024001,Chrome,1440,900,,,,,10,1293,,,,,,,,,,,,,,,,,Y,167,triangle,1,0,,,,,,,,,,,,,,,,repeat,number,numRpt,k,0.3992,Hi,,,,,,5,,,,,,,,low,29,0,29,0,1,,,,,,,,,
294787,2022-10-03_12h58.19.421,vts_reward_expectancy,2022.2.4,MacIntel,60.0024001,Chrome,1440,900,,,,,0,1293,,,,,,,,,,,,,,,,,B,139,triangle,1,0,,,,,,,,,,,,,,,,repeat,number,numRpt,j,0.7169,Hi,,,,,,5,,,,,,,,low,30,0,30,0,1,,,,,,,,,
294787,2022-10-03_12h58.19.421,vts_reward_expectancy,2022.2.4,MacIntel,60.0024001,Chrome,1440,900,,,,,1,1294,,,,,,,,,,,,,,,,,D,125,star,1,0,,,,,,,,,,,,,,,,repeat,number,numRpt,j,0.4636,Lo,,,,,,5,,,,,,,,low,31,0,31,0,1,,,,,,,,,
294787,2022-10-03_12h58.19.421,vts_reward_expectancy,2022.2.4,MacIntel,60.0024001,Chrome,1440,900,,,,,,,,,,,,,,,,,,,,,,,,,,,,,,,,,,,,,,,,,,,,,,,,,,,,,,6,,,,,,,,,,,,,,Brain speed,1,,3,1,,2,1440,900
