participant,date,expName,psychopyVersion,OS,frameRate,browser,xResolution,yResolution,key_resp.keys,key_resp.rt,training_resp.keys,training_resp.rt,points_trial,points_cumul,trainBlock,training.thisRepN,training.thisTrialN,training.thisN,training.thisIndex,training.ran,LTriangleOpac,LCircleOpac,LHexagonOpac,LStarOpac,RTriangleOpac,RCircleOpac,RHexagonOpac,RStarOpac,LShape_ID,RShape_ID,curr_topStim,curr_bottStim,curr_shape,acc,E1,target_resp_prac1.keys,pracBlock,task1_prac_trials.thisRepN,task1_prac_trials.thisTrialN,task1_prac_trials.thisN,task1_prac_trials.thisIndex,task1_prac_trials.ran,target_resp_prac1.rt,target_resp_prac2.keys,target_resp_prac2.rt,task2_praac_trials.thisRepN,task2_praac_trials.thisTrialN,task2_praac_trials.thisN,task2_praac_trials.thisIndex,task2_praac_trials.ran,alt,task,condition,target_resp.keys,target_resp.rt,rewCond,vts_practice_trials.thisRepN,vts_practice_trials.thisTrialN,vts_practice_trials.thisN,vts_practice_trials.thisIndex,vts_practice_trials.ran,blockNum,trials_norew.thisRepN,trials_norew.thisTrialN,trials_norew.thisN,trials_norew.thisIndex,trials_norew.ran,key_resp_2.keys,key_resp_2.rt,rewExpect,trials_rew.thisRepN,trials_rew.thisTrialN,trials_rew.thisN,trials_rew.thisIndex,trials_rew.ran,Q1,Q2,Q2_text,Q3,Q4,Q5_text,Q5,xRes,yRes
295192,2022-10-06_16h35.43.804,vts_reward_expectancy,2022.2.4,MacIntel,30.3030303,Safari,820,1180,,,,,,,,,,,,,,,,,,,,,,,,,,,,,,,,,,,,,,,,,,,,,,,,,,,,,,,,,,,,,,,,,,,,,,,,,,,,
295192,2022-10-06_16h35.43.804,vts_reward_expectancy,2022.2.4,MacIntel,30.3030303,Safari,820,1180,space,7.108,,,,,,,,,,,,,,,,,,,,,,,,,,,,,,,,,,,,,,,,,,,,,,,,,,,,,,,,,,,,,,,,,,,,,,,,,,
295192,2022-10-06_16h35.43.804,vts_reward_expectancy,2022.2.4,MacIntel,30.3030303,Safari,820,1180,,,,,,,,,,,,,,,,,,,,,,,,,,,,,,,,,,,,,,,,,,,,,,,,,,,,,,,,,,,,,,,,,,,,,,,,,,,,
295192,2022-10-06_16h35.43.804,vts_reward_expectancy,2022.2.4,MacIntel,30.3030303,Safari,820,1180,,,a,53.815,10,10,0,0,0,0,8,1,0,0,1,0,0,0,0,1,hexagon,star,,,,,,,,,,,,,,,,,,,,,,,,,,,,,,,,,,,,,,,,,,,,,,,,,,,,,,
295192,2022-10-06_16h35.43.804,vts_reward_expectancy,2022.2.4,MacIntel,30.3030303,Safari,820,1180,,,a,1.406,1,11,0,0,1,1,5,1,0,1,0,0,0,0,0,1,circle,star,,,,,,,,,,,,,,,,,,,,,,,,,,,,,,,,,,,,,,,,,,,,,,,,,,,,,,
295192,2022-10-06_16h35.43.804,vts_reward_expectancy,2022.2.4,MacIntel,30.3030303,Safari,820,1180,,,l,1.228,1,12,0,0,2,2,1,1,1,0,0,0,0,0,1,0,triangle,hexagon,,,,,,,,,,,,,,,,,,,,,,,,,,,,,,,,,,,,,,,,,,,,,,,,,,,,,,
295192,2022-10-06_16h35.43.804,vts_reward_expectancy,2022.2.4,MacIntel,30.3030303,Safari,820,1180,,,l,1.144,10,22,0,0,3,3,3,1,0,1,0,0,1,0,0,0,circle,triangle,,,,,,,,,,,,,,,,,,,,,,,,,,,,,,,,,,,,,,,,,,,,,,,,,,,,,,
295192,2022-10-06_16h35.43.804,vts_reward_expectancy,2022.2.4,MacIntel,30.3030303,Safari,820,1180,,,a,1.73,1,23,0,0,4,4,9,1,0,0,0,1,1,0,0,0,star,triangle,,,,,,,,,,,,,,,,,,,,,,,,,,,,,,,,,,,,,,,,,,,,,,,,,,,,,,
295192,2022-10-06_16h35.43.804,vts_reward_expectancy,2022.2.4,MacIntel,30.3030303,Safari,820,1180,,,l,0.649,10,33,0,0,5,5,10,1,0,0,0,1,0,1,0,0,star ,circle,,,,,,,,,,,,,,,,,,,,,,,,,,,,,,,,,,,,,,,,,,,,,,,,,,,,,,
295192,2022-10-06_16h35.43.804,vts_reward_expectancy,2022.2.4,MacIntel,30.3030303,Safari,820,1180,,,l,2.665,10,43,0,0,6,6,6,1,0,0,1,0,1,0,0,0,hexagon,triangle,,,,,,,,,,,,,,,,,,,,,,,,,,,,,,,,,,,,,,,,,,,,,,,,,,,,,,
295192,2022-10-06_16h35.43.804,vts_reward_expectancy,2022.2.4,MacIntel,30.3030303,Safari,820,1180,,,a,1.563,1,44,0,0,7,7,4,1,0,1,0,0,0,0,1,0,circle,hexagon,,,,,,,,,,,,,,,,,,,,,,,,,,,,,,,,,,,,,,,,,,,,,,,,,,,,,,
295192,2022-10-06_16h35.43.804,vts_reward_expectancy,2022.2.4,MacIntel,30.3030303,Safari,820,1180,,,a,0.862,10,54,0,0,8,8,7,1,0,0,1,0,0,1,0,0,hexagon,circle,,,,,,,,,,,,,,,,,,,,,,,,,,,,,,,,,,,,,,,,,,,,,,,,,,,,,,
295192,2022-10-06_16h35.43.804,vts_reward_expectancy,2022.2.4,MacIntel,30.3030303,Safari,820,1180,,,l,0.765,1,55,0,0,9,9,11,1,0,0,0,1,0,0,1,0,star,hexagon,,,,,,,,,,,,,,,,,,,,,,,,,,,,,,,,,,,,,,,,,,,,,,,,,,,,,,
295192,2022-10-06_16h35.43.804,vts_reward_expectancy,2022.2.4,MacIntel,30.3030303,Safari,820,1180,,,a,0.618,10,65,0,0,10,10,2,1,1,0,0,0,0,0,0,1,triangle,star,,,,,,,,,,,,,,,,,,,,,,,,,,,,,,,,,,,,,,,,,,,,,,,,,,,,,,
295192,2022-10-06_16h35.43.804,vts_reward_expectancy,2022.2.4,MacIntel,30.3030303,Safari,820,1180,,,a,0.583,10,75,0,0,11,11,0,1,1,0,0,0,0,1,0,0,triangle,circle,,,,,,,,,,,,,,,,,,,,,,,,,,,,,,,,,,,,,,,,,,,,,,,,,,,,,,
295192,2022-10-06_16h35.43.804,vts_reward_expectancy,2022.2.4,MacIntel,30.3030303,Safari,820,1180,,,a,0.397,1,76,0,1,0,12,5,1,0,1,0,0,0,0,0,1,circle,star,,,,,,,,,,,,,,,,,,,,,,,,,,,,,,,,,,,,,,,,,,,,,,,,,,,,,,
295192,2022-10-06_16h35.43.804,vts_reward_expectancy,2022.2.4,MacIntel,30.3030303,Safari,820,1180,,,a,0.547,1,77,0,1,1,13,0,1,1,0,0,0,0,1,0,0,triangle,circle,,,,,,,,,,,,,,,,,,,,,,,,,,,,,,,,,,,,,,,,,,,,,,,,,,,,,,
295192,2022-10-06_16h35.43.804,vts_reward_expectancy,2022.2.4,MacIntel,30.3030303,Safari,820,1180,,,l,0.732,10,87,0,1,2,14,9,1,0,0,0,1,1,0,0,0,star,triangle,,,,,,,,,,,,,,,,,,,,,,,,,,,,,,,,,,,,,,,,,,,,,,,,,,,,,,
295192,2022-10-06_16h35.43.804,vts_reward_expectancy,2022.2.4,MacIntel,30.3030303,Safari,820,1180,,,a,1.132,10,97,0,1,3,15,3,1,0,1,0,0,1,0,0,0,circle,triangle,,,,,,,,,,,,,,,,,,,,,,,,,,,,,,,,,,,,,,,,,,,,,,,,,,,,,,
295192,2022-10-06_16h35.43.804,vts_reward_expectancy,2022.2.4,MacIntel,30.3030303,Safari,820,1180,,,a,1.618,1,98,0,1,4,16,4,1,0,1,0,0,0,0,1,0,circle,hexagon,,,,,,,,,,,,,,,,,,,,,,,,,,,,,,,,,,,,,,,,,,,,,,,,,,,,,,
295192,2022-10-06_16h35.43.804,vts_reward_expectancy,2022.2.4,MacIntel,30.3030303,Safari,820,1180,,,l,0.543,10,108,0,1,5,17,7,1,0,0,1,0,0,1,0,0,hexagon,circle,,,,,,,,,,,,,,,,,,,,,,,,,,,,,,,,,,,,,,,,,,,,,,,,,,,,,,
295192,2022-10-06_16h35.43.804,vts_reward_expectancy,2022.2.4,MacIntel,30.3030303,Safari,820,1180,,,a,0.364,10,118,0,1,6,18,2,1,1,0,0,0,0,0,0,1,triangle,star,,,,,,,,,,,,,,,,,,,,,,,,,,,,,,,,,,,,,,,,,,,,,,,,,,,,,,
295192,2022-10-06_16h35.43.804,vts_reward_expectancy,2022.2.4,MacIntel,30.3030303,Safari,820,1180,,,l,0.662,10,128,0,1,7,19,6,1,0,0,1,0,1,0,0,0,hexagon,triangle,,,,,,,,,,,,,,,,,,,,,,,,,,,,,,,,,,,,,,,,,,,,,,,,,,,,,,
295192,2022-10-06_16h35.43.804,vts_reward_expectancy,2022.2.4,MacIntel,30.3030303,Safari,820,1180,,,a,0.2,10,138,0,1,8,20,1,1,1,0,0,0,0,0,1,0,triangle,hexagon,,,,,,,,,,,,,,,,,,,,,,,,,,,,,,,,,,,,,,,,,,,,,,,,,,,,,,
295192,2022-10-06_16h35.43.804,vts_reward_expectancy,2022.2.4,MacIntel,30.3030303,Safari,820,1180,,,l,0.412,1,139,0,1,9,21,10,1,0,0,0,1,0,1,0,0,star ,circle,,,,,,,,,,,,,,,,,,,,,,,,,,,,,,,,,,,,,,,,,,,,,,,,,,,,,,
295192,2022-10-06_16h35.43.804,vts_reward_expectancy,2022.2.4,MacIntel,30.3030303,Safari,820,1180,,,l,0.484,10,149,0,1,10,22,8,1,0,0,1,0,0,0,0,1,hexagon,star,,,,,,,,,,,,,,,,,,,,,,,,,,,,,,,,,,,,,,,,,,,,,,,,,,,,,,
295192,2022-10-06_16h35.43.804,vts_reward_expectancy,2022.2.4,MacIntel,30.3030303,Safari,820,1180,,,a,0.333,10,159,0,1,11,23,11,1,0,0,0,1,0,0,1,0,star,hexagon,,,,,,,,,,,,,,,,,,,,,,,,,,,,,,,,,,,,,,,,,,,,,,,,,,,,,,
295192,2022-10-06_16h35.43.804,vts_reward_expectancy,2022.2.4,MacIntel,30.3030303,Safari,820,1180,,,a,0.45,1,160,0,2,0,24,3,1,0,1,0,0,1,0,0,0,circle,triangle,,,,,,,,,,,,,,,,,,,,,,,,,,,,,,,,,,,,,,,,,,,,,,,,,,,,,,
295192,2022-10-06_16h35.43.804,vts_reward_expectancy,2022.2.4,MacIntel,30.3030303,Safari,820,1180,,,a,0.247,1,161,0,2,1,25,6,1,0,0,1,0,1,0,0,0,hexagon,triangle,,,,,,,,,,,,,,,,,,,,,,,,,,,,,,,,,,,,,,,,,,,,,,,,,,,,,,
295192,2022-10-06_16h35.43.804,vts_reward_expectancy,2022.2.4,MacIntel,30.3030303,Safari,820,1180,,,l,0.496,1,162,0,2,2,26,7,1,0,0,1,0,0,1,0,0,hexagon,circle,,,,,,,,,,,,,,,,,,,,,,,,,,,,,,,,,,,,,,,,,,,,,,,,,,,,,,
295192,2022-10-06_16h35.43.804,vts_reward_expectancy,2022.2.4,MacIntel,30.3030303,Safari,820,1180,,,a,0.429,1,163,0,2,3,27,4,1,0,1,0,0,0,0,1,0,circle,hexagon,,,,,,,,,,,,,,,,,,,,,,,,,,,,,,,,,,,,,,,,,,,,,,,,,,,,,,
295192,2022-10-06_16h35.43.804,vts_reward_expectancy,2022.2.4,MacIntel,30.3030303,Safari,820,1180,,,l,0.664,10,173,0,2,4,28,5,1,0,1,0,0,0,0,0,1,circle,star,,,,,,,,,,,,,,,,,,,,,,,,,,,,,,,,,,,,,,,,,,,,,,,,,,,,,,
295192,2022-10-06_16h35.43.804,vts_reward_expectancy,2022.2.4,MacIntel,30.3030303,Safari,820,1180,,,l,0.982,1,174,0,2,5,29,0,1,1,0,0,0,0,1,0,0,triangle,circle,,,,,,,,,,,,,,,,,,,,,,,,,,,,,,,,,,,,,,,,,,,,,,,,,,,,,,
295192,2022-10-06_16h35.43.804,vts_reward_expectancy,2022.2.4,MacIntel,30.3030303,Safari,820,1180,,,a,0.933,1,175,0,2,6,30,10,1,0,0,0,1,0,1,0,0,star ,circle,,,,,,,,,,,,,,,,,,,,,,,,,,,,,,,,,,,,,,,,,,,,,,,,,,,,,,
295192,2022-10-06_16h35.43.804,vts_reward_expectancy,2022.2.4,MacIntel,30.3030303,Safari,820,1180,,,l,0.619,1,176,0,2,7,31,2,1,1,0,0,0,0,0,0,1,triangle,star,,,,,,,,,,,,,,,,,,,,,,,,,,,,,,,,,,,,,,,,,,,,,,,,,,,,,,
295192,2022-10-06_16h35.43.804,vts_reward_expectancy,2022.2.4,MacIntel,30.3030303,Safari,820,1180,,,l,0.485,1,177,0,2,8,32,8,1,0,0,1,0,0,0,0,1,hexagon,star,,,,,,,,,,,,,,,,,,,,,,,,,,,,,,,,,,,,,,,,,,,,,,,,,,,,,,
295192,2022-10-06_16h35.43.804,vts_reward_expectancy,2022.2.4,MacIntel,30.3030303,Safari,820,1180,,,l,0.232,1,178,0,2,9,33,1,1,1,0,0,0,0,0,1,0,triangle,hexagon,,,,,,,,,,,,,,,,,,,,,,,,,,,,,,,,,,,,,,,,,,,,,,,,,,,,,,
295192,2022-10-06_16h35.43.804,vts_reward_expectancy,2022.2.4,MacIntel,30.3030303,Safari,820,1180,,,a,0.218,10,188,0,2,10,34,11,1,0,0,0,1,0,0,1,0,star,hexagon,,,,,,,,,,,,,,,,,,,,,,,,,,,,,,,,,,,,,,,,,,,,,,,,,,,,,,
295192,2022-10-06_16h35.43.804,vts_reward_expectancy,2022.2.4,MacIntel,30.3030303,Safari,820,1180,,,l,0.3,10,198,0,2,11,35,9,1,0,0,0,1,1,0,0,0,star,triangle,,,,,,,,,,,,,,,,,,,,,,,,,,,,,,,,,,,,,,,,,,,,,,,,,,,,,,
295192,2022-10-06_16h35.43.804,vts_reward_expectancy,2022.2.4,MacIntel,30.3030303,Safari,820,1180,,,a,0.498,1,199,1,0,0,0,4,1,0,1,0,0,0,0,1,0,circle,hexagon,,,,,,,,,,,,,,,,,,,,,,,,,,,,,,,,,,,,,,,,,,,,,,,,,,,,,,
295192,2022-10-06_16h35.43.804,vts_reward_expectancy,2022.2.4,MacIntel,30.3030303,Safari,820,1180,,,l,0.533,1,200,1,0,1,1,5,1,0,1,0,0,0,0,0,1,circle,star,,,,,,,,,,,,,,,,,,,,,,,,,,,,,,,,,,,,,,,,,,,,,,,,,,,,,,
295192,2022-10-06_16h35.43.804,vts_reward_expectancy,2022.2.4,MacIntel,30.3030303,Safari,820,1180,,,l,0.286,10,210,1,0,2,2,3,1,0,1,0,0,1,0,0,0,circle,triangle,,,,,,,,,,,,,,,,,,,,,,,,,,,,,,,,,,,,,,,,,,,,,,,,,,,,,,
295192,2022-10-06_16h35.43.804,vts_reward_expectancy,2022.2.4,MacIntel,30.3030303,Safari,820,1180,,,a,0.299,1,211,1,0,3,3,11,1,0,0,0,1,0,0,1,0,star,hexagon,,,,,,,,,,,,,,,,,,,,,,,,,,,,,,,,,,,,,,,,,,,,,,,,,,,,,,
295192,2022-10-06_16h35.43.804,vts_reward_expectancy,2022.2.4,MacIntel,30.3030303,Safari,820,1180,,,l,0.486,1,212,1,0,4,4,9,1,0,0,0,1,1,0,0,0,star,triangle,,,,,,,,,,,,,,,,,,,,,,,,,,,,,,,,,,,,,,,,,,,,,,,,,,,,,,
295192,2022-10-06_16h35.43.804,vts_reward_expectancy,2022.2.4,MacIntel,30.3030303,Safari,820,1180,,,a,0.197,10,222,1,0,5,5,7,1,0,0,1,0,0,1,0,0,hexagon,circle,,,,,,,,,,,,,,,,,,,,,,,,,,,,,,,,,,,,,,,,,,,,,,,,,,,,,,
295192,2022-10-06_16h35.43.804,vts_reward_expectancy,2022.2.4,MacIntel,30.3030303,Safari,820,1180,,,l,0.299,10,232,1,0,6,6,6,1,0,0,1,0,1,0,0,0,hexagon,triangle,,,,,,,,,,,,,,,,,,,,,,,,,,,,,,,,,,,,,,,,,,,,,,,,,,,,,,
295192,2022-10-06_16h35.43.804,vts_reward_expectancy,2022.2.4,MacIntel,30.3030303,Safari,820,1180,,,a,0.253,10,242,1,0,7,7,8,1,0,0,1,0,0,0,0,1,hexagon,star,,,,,,,,,,,,,,,,,,,,,,,,,,,,,,,,,,,,,,,,,,,,,,,,,,,,,,
295192,2022-10-06_16h35.43.804,vts_reward_expectancy,2022.2.4,MacIntel,30.3030303,Safari,820,1180,,,l,0.484,10,252,1,0,8,8,0,1,1,0,0,0,0,1,0,0,triangle,circle,,,,,,,,,,,,,,,,,,,,,,,,,,,,,,,,,,,,,,,,,,,,,,,,,,,,,,
295192,2022-10-06_16h35.43.804,vts_reward_expectancy,2022.2.4,MacIntel,30.3030303,Safari,820,1180,,,a,0.433,10,262,1,0,9,9,1,1,1,0,0,0,0,0,1,0,triangle,hexagon,,,,,,,,,,,,,,,,,,,,,,,,,,,,,,,,,,,,,,,,,,,,,,,,,,,,,,
295192,2022-10-06_16h35.43.804,vts_reward_expectancy,2022.2.4,MacIntel,30.3030303,Safari,820,1180,,,l,0.45,10,272,1,0,10,10,10,1,0,0,0,1,0,1,0,0,star ,circle,,,,,,,,,,,,,,,,,,,,,,,,,,,,,,,,,,,,,,,,,,,,,,,,,,,,,,
295192,2022-10-06_16h35.43.804,vts_reward_expectancy,2022.2.4,MacIntel,30.3030303,Safari,820,1180,,,a,0.419,10,282,1,0,11,11,2,1,1,0,0,0,0,0,0,1,triangle,star,,,,,,,,,,,,,,,,,,,,,,,,,,,,,,,,,,,,,,,,,,,,,,,,,,,,,,
295192,2022-10-06_16h35.43.804,vts_reward_expectancy,2022.2.4,MacIntel,30.3030303,Safari,820,1180,,,l,0.065,1,283,1,1,0,12,5,1,0,1,0,0,0,0,0,1,circle,star,,,,,,,,,,,,,,,,,,,,,,,,,,,,,,,,,,,,,,,,,,,,,,,,,,,,,,
295192,2022-10-06_16h35.43.804,vts_reward_expectancy,2022.2.4,MacIntel,30.3030303,Safari,820,1180,,,a,0.483,10,293,1,1,1,13,4,1,0,1,0,0,0,0,1,0,circle,hexagon,,,,,,,,,,,,,,,,,,,,,,,,,,,,,,,,,,,,,,,,,,,,,,,,,,,,,,
295192,2022-10-06_16h35.43.804,vts_reward_expectancy,2022.2.4,MacIntel,30.3030303,Safari,820,1180,,,a,0.384,10,303,1,1,2,14,0,1,1,0,0,0,0,1,0,0,triangle,circle,,,,,,,,,,,,,,,,,,,,,,,,,,,,,,,,,,,,,,,,,,,,,,,,,,,,,,
295192,2022-10-06_16h35.43.804,vts_reward_expectancy,2022.2.4,MacIntel,30.3030303,Safari,820,1180,,,l,0.283,10,313,1,1,3,15,3,1,0,1,0,0,1,0,0,0,circle,triangle,,,,,,,,,,,,,,,,,,,,,,,,,,,,,,,,,,,,,,,,,,,,,,,,,,,,,,
295192,2022-10-06_16h35.43.804,vts_reward_expectancy,2022.2.4,MacIntel,30.3030303,Safari,820,1180,,,a,0.033,1,314,1,1,4,16,6,1,0,0,1,0,1,0,0,0,hexagon,triangle,,,,,,,,,,,,,,,,,,,,,,,,,,,,,,,,,,,,,,,,,,,,,,,,,,,,,,
295192,2022-10-06_16h35.43.804,vts_reward_expectancy,2022.2.4,MacIntel,30.3030303,Safari,820,1180,,,a,0.352,1,315,1,1,5,17,9,1,0,0,0,1,1,0,0,0,star,triangle,,,,,,,,,,,,,,,,,,,,,,,,,,,,,,,,,,,,,,,,,,,,,,,,,,,,,,
295192,2022-10-06_16h35.43.804,vts_reward_expectancy,2022.2.4,MacIntel,30.3030303,Safari,820,1180,,,l,0.3,1,316,1,1,6,18,11,1,0,0,0,1,0,0,1,0,star,hexagon,,,,,,,,,,,,,,,,,,,,,,,,,,,,,,,,,,,,,,,,,,,,,,,,,,,,,,
295192,2022-10-06_16h35.43.804,vts_reward_expectancy,2022.2.4,MacIntel,30.3030303,Safari,820,1180,,,a,0.74,10,326,1,1,7,19,2,1,1,0,0,0,0,0,0,1,triangle,star,,,,,,,,,,,,,,,,,,,,,,,,,,,,,,,,,,,,,,,,,,,,,,,,,,,,,,
295192,2022-10-06_16h35.43.804,vts_reward_expectancy,2022.2.4,MacIntel,30.3030303,Safari,820,1180,,,l,0.984,1,327,1,1,8,20,10,1,0,0,0,1,0,1,0,0,star ,circle,,,,,,,,,,,,,,,,,,,,,,,,,,,,,,,,,,,,,,,,,,,,,,,,,,,,,,
295192,2022-10-06_16h35.43.804,vts_reward_expectancy,2022.2.4,MacIntel,30.3030303,Safari,820,1180,,,l,0.266,1,328,1,1,9,21,1,1,1,0,0,0,0,0,1,0,triangle,hexagon,,,,,,,,,,,,,,,,,,,,,,,,,,,,,,,,,,,,,,,,,,,,,,,,,,,,,,
295192,2022-10-06_16h35.43.804,vts_reward_expectancy,2022.2.4,MacIntel,30.3030303,Safari,820,1180,,,a,0.417,1,329,1,1,10,22,7,1,0,0,1,0,0,1,0,0,hexagon,circle,,,,,,,,,,,,,,,,,,,,,,,,,,,,,,,,,,,,,,,,,,,,,,,,,,,,,,
295192,2022-10-06_16h35.43.804,vts_reward_expectancy,2022.2.4,MacIntel,30.3030303,Safari,820,1180,,,l,0.319,1,330,1,1,11,23,8,1,0,0,1,0,0,0,0,1,hexagon,star,,,,,,,,,,,,,,,,,,,,,,,,,,,,,,,,,,,,,,,,,,,,,,,,,,,,,,
295192,2022-10-06_16h35.43.804,vts_reward_expectancy,2022.2.4,MacIntel,30.3030303,Safari,820,1180,,,a,0.365,1,331,1,2,0,24,3,1,0,1,0,0,1,0,0,0,circle,triangle,,,,,,,,,,,,,,,,,,,,,,,,,,,,,,,,,,,,,,,,,,,,,,,,,,,,,,
295192,2022-10-06_16h35.43.804,vts_reward_expectancy,2022.2.4,MacIntel,30.3030303,Safari,820,1180,,,a,0.552,1,332,1,2,1,25,8,1,0,0,1,0,0,0,0,1,hexagon,star,,,,,,,,,,,,,,,,,,,,,,,,,,,,,,,,,,,,,,,,,,,,,,,,,,,,,,
295192,2022-10-06_16h35.43.804,vts_reward_expectancy,2022.2.4,MacIntel,30.3030303,Safari,820,1180,,,l,0.45,1,333,1,2,2,26,11,1,0,0,0,1,0,0,1,0,star,hexagon,,,,,,,,,,,,,,,,,,,,,,,,,,,,,,,,,,,,,,,,,,,,,,,,,,,,,,
295192,2022-10-06_16h35.43.804,vts_reward_expectancy,2022.2.4,MacIntel,30.3030303,Safari,820,1180,,,a,0.3,10,343,1,2,3,27,2,1,1,0,0,0,0,0,0,1,triangle,star,,,,,,,,,,,,,,,,,,,,,,,,,,,,,,,,,,,,,,,,,,,,,,,,,,,,,,
295192,2022-10-06_16h35.43.804,vts_reward_expectancy,2022.2.4,MacIntel,30.3030303,Safari,820,1180,,,l,0.633,1,344,1,2,4,28,9,1,0,0,0,1,1,0,0,0,star,triangle,,,,,,,,,,,,,,,,,,,,,,,,,,,,,,,,,,,,,,,,,,,,,,,,,,,,,,
295192,2022-10-06_16h35.43.804,vts_reward_expectancy,2022.2.4,MacIntel,30.3030303,Safari,820,1180,,,a,0.352,10,354,1,2,5,29,6,1,0,0,1,0,1,0,0,0,hexagon,triangle,,,,,,,,,,,,,,,,,,,,,,,,,,,,,,,,,,,,,,,,,,,,,,,,,,,,,,
295192,2022-10-06_16h35.43.804,vts_reward_expectancy,2022.2.4,MacIntel,30.3030303,Safari,820,1180,,,l,0.599,1,355,1,2,6,30,0,1,1,0,0,0,0,1,0,0,triangle,circle,,,,,,,,,,,,,,,,,,,,,,,,,,,,,,,,,,,,,,,,,,,,,,,,,,,,,,
295192,2022-10-06_16h35.43.804,vts_reward_expectancy,2022.2.4,MacIntel,30.3030303,Safari,820,1180,,,l,0.12,1,356,1,2,7,31,7,1,0,0,1,0,0,1,0,0,hexagon,circle,,,,,,,,,,,,,,,,,,,,,,,,,,,,,,,,,,,,,,,,,,,,,,,,,,,,,,
295192,2022-10-06_16h35.43.804,vts_reward_expectancy,2022.2.4,MacIntel,30.3030303,Safari,820,1180,,,l,0.085,1,357,1,2,8,32,10,1,0,0,0,1,0,1,0,0,star ,circle,,,,,,,,,,,,,,,,,,,,,,,,,,,,,,,,,,,,,,,,,,,,,,,,,,,,,,
295192,2022-10-06_16h35.43.804,vts_reward_expectancy,2022.2.4,MacIntel,30.3030303,Safari,820,1180,,,l,0.064,1,358,1,2,9,33,5,1,0,1,0,0,0,0,0,1,circle,star,,,,,,,,,,,,,,,,,,,,,,,,,,,,,,,,,,,,,,,,,,,,,,,,,,,,,,
295192,2022-10-06_16h35.43.804,vts_reward_expectancy,2022.2.4,MacIntel,30.3030303,Safari,820,1180,,,l,0.1,1,359,1,2,10,34,4,1,0,1,0,0,0,0,1,0,circle,hexagon,,,,,,,,,,,,,,,,,,,,,,,,,,,,,,,,,,,,,,,,,,,,,,,,,,,,,,
295192,2022-10-06_16h35.43.804,vts_reward_expectancy,2022.2.4,MacIntel,30.3030303,Safari,820,1180,,,l,0.587,1,360,1,2,11,35,1,1,1,0,0,0,0,0,1,0,triangle,hexagon,,,,,,,,,,,,,,,,,,,,,,,,,,,,,,,,,,,,,,,,,,,,,,,,,,,,,,
295192,2022-10-06_16h35.43.804,vts_reward_expectancy,2022.2.4,MacIntel,30.3030303,Safari,820,1180,,,l,0.932,1,361,2,0,0,0,0,1,1,0,0,0,0,1,0,0,triangle,circle,,,,,,,,,,,,,,,,,,,,,,,,,,,,,,,,,,,,,,,,,,,,,,,,,,,,,,
295192,2022-10-06_16h35.43.804,vts_reward_expectancy,2022.2.4,MacIntel,30.3030303,Safari,820,1180,,,a,0.199,10,371,2,0,1,1,5,1,0,1,0,0,0,0,0,1,circle,star,,,,,,,,,,,,,,,,,,,,,,,,,,,,,,,,,,,,,,,,,,,,,,,,,,,,,,
295192,2022-10-06_16h35.43.804,vts_reward_expectancy,2022.2.4,MacIntel,30.3030303,Safari,820,1180,,,l,1.084,10,381,2,0,2,2,9,1,0,0,0,1,1,0,0,0,star,triangle,,,,,,,,,,,,,,,,,,,,,,,,,,,,,,,,,,,,,,,,,,,,,,,,,,,,,,
295192,2022-10-06_16h35.43.804,vts_reward_expectancy,2022.2.4,MacIntel,30.3030303,Safari,820,1180,,,l,0.213,1,382,2,0,3,3,10,1,0,0,0,1,0,1,0,0,star ,circle,,,,,,,,,,,,,,,,,,,,,,,,,,,,,,,,,,,,,,,,,,,,,,,,,,,,,,
295192,2022-10-06_16h35.43.804,vts_reward_expectancy,2022.2.4,MacIntel,30.3030303,Safari,820,1180,,,a,0.298,10,392,2,0,4,4,2,1,1,0,0,0,0,0,0,1,triangle,star,,,,,,,,,,,,,,,,,,,,,,,,,,,,,,,,,,,,,,,,,,,,,,,,,,,,,,
295192,2022-10-06_16h35.43.804,vts_reward_expectancy,2022.2.4,MacIntel,30.3030303,Safari,820,1180,,,a,0.265,1,393,2,0,5,5,4,1,0,1,0,0,0,0,1,0,circle,hexagon,,,,,,,,,,,,,,,,,,,,,,,,,,,,,,,,,,,,,,,,,,,,,,,,,,,,,,
295192,2022-10-06_16h35.43.804,vts_reward_expectancy,2022.2.4,MacIntel,30.3030303,Safari,820,1180,,,l,0.033,10,403,2,0,6,6,6,1,0,0,1,0,1,0,0,0,hexagon,triangle,,,,,,,,,,,,,,,,,,,,,,,,,,,,,,,,,,,,,,,,,,,,,,,,,,,,,,
295192,2022-10-06_16h35.43.804,vts_reward_expectancy,2022.2.4,MacIntel,30.3030303,Safari,820,1180,,,a,0.151,10,413,2,0,7,7,11,1,0,0,0,1,0,0,1,0,star,hexagon,,,,,,,,,,,,,,,,,,,,,,,,,,,,,,,,,,,,,,,,,,,,,,,,,,,,,,
295192,2022-10-06_16h35.43.804,vts_reward_expectancy,2022.2.4,MacIntel,30.3030303,Safari,820,1180,,,l,0.184,1,414,2,0,8,8,1,1,1,0,0,0,0,0,1,0,triangle,hexagon,,,,,,,,,,,,,,,,,,,,,,,,,,,,,,,,,,,,,,,,,,,,,,,,,,,,,,
295192,2022-10-06_16h35.43.804,vts_reward_expectancy,2022.2.4,MacIntel,30.3030303,Safari,820,1180,,,l,1.05,10,424,2,0,9,9,3,1,0,1,0,0,1,0,0,0,circle,triangle,,,,,,,,,,,,,,,,,,,,,,,,,,,,,,,,,,,,,,,,,,,,,,,,,,,,,,
295192,2022-10-06_16h35.43.804,vts_reward_expectancy,2022.2.4,MacIntel,30.3030303,Safari,820,1180,,,a,0.5,1,425,2,0,10,10,8,1,0,0,1,0,0,0,0,1,hexagon,star,,,,,,,,,,,,,,,,,,,,,,,,,,,,,,,,,,,,,,,,,,,,,,,,,,,,,,
295192,2022-10-06_16h35.43.804,vts_reward_expectancy,2022.2.4,MacIntel,30.3030303,Safari,820,1180,,,l,2.166,1,426,2,0,11,11,7,1,0,0,1,0,0,1,0,0,hexagon,circle,,,,,,,,,,,,,,,,,,,,,,,,,,,,,,,,,,,,,,,,,,,,,,,,,,,,,,
295192,2022-10-06_16h35.43.804,vts_reward_expectancy,2022.2.4,MacIntel,30.3030303,Safari,820,1180,,,a,1.018,10,436,2,1,0,12,3,1,0,1,0,0,1,0,0,0,circle,triangle,,,,,,,,,,,,,,,,,,,,,,,,,,,,,,,,,,,,,,,,,,,,,,,,,,,,,,
295192,2022-10-06_16h35.43.804,vts_reward_expectancy,2022.2.4,MacIntel,30.3030303,Safari,820,1180,,,a,0.653,10,446,2,1,1,13,1,1,1,0,0,0,0,0,1,0,triangle,hexagon,,,,,,,,,,,,,,,,,,,,,,,,,,,,,,,,,,,,,,,,,,,,,,,,,,,,,,
295192,2022-10-06_16h35.43.804,vts_reward_expectancy,2022.2.4,MacIntel,30.3030303,Safari,820,1180,,,a,1.868,1,447,2,1,2,14,6,1,0,0,1,0,1,0,0,0,hexagon,triangle,,,,,,,,,,,,,,,,,,,,,,,,,,,,,,,,,,,,,,,,,,,,,,,,,,,,,,
295192,2022-10-06_16h35.43.804,vts_reward_expectancy,2022.2.4,MacIntel,30.3030303,Safari,820,1180,,,l,0.019,1,448,2,1,3,15,11,1,0,0,0,1,0,0,1,0,star,hexagon,,,,,,,,,,,,,,,,,,,,,,,,,,,,,,,,,,,,,,,,,,,,,,,,,,,,,,
295192,2022-10-06_16h35.43.804,vts_reward_expectancy,2022.2.4,MacIntel,30.3030303,Safari,820,1180,,,a,0.132,1,449,2,1,4,16,7,1,0,0,1,0,0,1,0,0,hexagon,circle,,,,,,,,,,,,,,,,,,,,,,,,,,,,,,,,,,,,,,,,,,,,,,,,,,,,,,
295192,2022-10-06_16h35.43.804,vts_reward_expectancy,2022.2.4,MacIntel,30.3030303,Safari,820,1180,,,a,0.018,10,459,2,1,5,17,5,1,0,1,0,0,0,0,0,1,circle,star,,,,,,,,,,,,,,,,,,,,,,,,,,,,,,,,,,,,,,,,,,,,,,,,,,,,,,
295192,2022-10-06_16h35.43.804,vts_reward_expectancy,2022.2.4,MacIntel,30.3030303,Safari,820,1180,,,a,0.051,10,469,2,1,6,18,9,1,0,0,0,1,1,0,0,0,star,triangle,,,,,,,,,,,,,,,,,,,,,,,,,,,,,,,,,,,,,,,,,,,,,,,,,,,,,,
295192,2022-10-06_16h35.43.804,vts_reward_expectancy,2022.2.4,MacIntel,30.3030303,Safari,820,1180,,,a,0.22,1,470,2,1,7,19,8,1,0,0,1,0,0,0,0,1,hexagon,star,,,,,,,,,,,,,,,,,,,,,,,,,,,,,,,,,,,,,,,,,,,,,,,,,,,,,,
295192,2022-10-06_16h35.43.804,vts_reward_expectancy,2022.2.4,MacIntel,30.3030303,Safari,820,1180,,,l,0.338,1,471,2,1,8,20,4,1,0,1,0,0,0,0,1,0,circle,hexagon,,,,,,,,,,,,,,,,,,,,,,,,,,,,,,,,,,,,,,,,,,,,,,,,,,,,,,
295192,2022-10-06_16h35.43.804,vts_reward_expectancy,2022.2.4,MacIntel,30.3030303,Safari,820,1180,,,a,3.132,1,472,2,1,9,21,0,1,1,0,0,0,0,1,0,0,triangle,circle,,,,,,,,,,,,,,,,,,,,,,,,,,,,,,,,,,,,,,,,,,,,,,,,,,,,,,
295192,2022-10-06_16h35.43.804,vts_reward_expectancy,2022.2.4,MacIntel,30.3030303,Safari,820,1180,,,a,1.153,10,482,2,1,10,22,2,1,1,0,0,0,0,0,0,1,triangle,star,,,,,,,,,,,,,,,,,,,,,,,,,,,,,,,,,,,,,,,,,,,,,,,,,,,,,,
295192,2022-10-06_16h35.43.804,vts_reward_expectancy,2022.2.4,MacIntel,30.3030303,Safari,820,1180,,,l,1.251,10,492,2,1,11,23,10,1,0,0,0,1,0,1,0,0,star ,circle,,,,,,,,,,,,,,,,,,,,,,,,,,,,,,,,,,,,,,,,,,,,,,,,,,,,,,
295192,2022-10-06_16h35.43.804,vts_reward_expectancy,2022.2.4,MacIntel,30.3030303,Safari,820,1180,,,l,2.186,1,493,2,2,0,24,7,1,0,0,1,0,0,1,0,0,hexagon,circle,,,,,,,,,,,,,,,,,,,,,,,,,,,,,,,,,,,,,,,,,,,,,,,,,,,,,,
295192,2022-10-06_16h35.43.804,vts_reward_expectancy,2022.2.4,MacIntel,30.3030303,Safari,820,1180,,,l,8.899,1,494,2,2,1,25,6,1,0,0,1,0,1,0,0,0,hexagon,triangle,,,,,,,,,,,,,,,,,,,,,,,,,,,,,,,,,,,,,,,,,,,,,,,,,,,,,,
295192,2022-10-06_16h35.43.804,vts_reward_expectancy,2022.2.4,MacIntel,30.3030303,Safari,820,1180,,,l,0.987,1,495,2,2,2,26,1,1,1,0,0,0,0,0,1,0,triangle,hexagon,,,,,,,,,,,,,,,,,,,,,,,,,,,,,,,,,,,,,,,,,,,,,,,,,,,,,,
295192,2022-10-06_16h35.43.804,vts_reward_expectancy,2022.2.4,MacIntel,30.3030303,Safari,820,1180,,,l,0.667,1,496,2,2,3,27,8,1,0,0,1,0,0,0,0,1,hexagon,star,,,,,,,,,,,,,,,,,,,,,,,,,,,,,,,,,,,,,,,,,,,,,,,,,,,,,,
295192,2022-10-06_16h35.43.804,vts_reward_expectancy,2022.2.4,MacIntel,30.3030303,Safari,820,1180,,,a,1.748,1,497,2,2,4,28,10,1,0,0,0,1,0,1,0,0,star ,circle,,,,,,,,,,,,,,,,,,,,,,,,,,,,,,,,,,,,,,,,,,,,,,,,,,,,,,
295192,2022-10-06_16h35.43.804,vts_reward_expectancy,2022.2.4,MacIntel,30.3030303,Safari,820,1180,,,l,1.584,1,498,2,2,5,29,5,1,0,1,0,0,0,0,0,1,circle,star,,,,,,,,,,,,,,,,,,,,,,,,,,,,,,,,,,,,,,,,,,,,,,,,,,,,,,
295192,2022-10-06_16h35.43.804,vts_reward_expectancy,2022.2.4,MacIntel,30.3030303,Safari,820,1180,,,a,3.4,1,499,2,2,6,30,3,1,0,1,0,0,1,0,0,0,circle,triangle,,,,,,,,,,,,,,,,,,,,,,,,,,,,,,,,,,,,,,,,,,,,,,,,,,,,,,
295192,2022-10-06_16h35.43.804,vts_reward_expectancy,2022.2.4,MacIntel,30.3030303,Safari,820,1180,,,l,7.751,10,509,2,2,7,31,2,1,1,0,0,0,0,0,0,1,triangle,star,,,,,,,,,,,,,,,,,,,,,,,,,,,,,,,,,,,,,,,,,,,,,,,,,,,,,,
295192,2022-10-06_16h35.43.804,vts_reward_expectancy,2022.2.4,MacIntel,30.3030303,Safari,820,1180,,,l,0.853,1,510,2,2,8,32,11,1,0,0,0,1,0,0,1,0,star,hexagon,,,,,,,,,,,,,,,,,,,,,,,,,,,,,,,,,,,,,,,,,,,,,,,,,,,,,,
295192,2022-10-06_16h35.43.804,vts_reward_expectancy,2022.2.4,MacIntel,30.3030303,Safari,820,1180,,,l,2.318,1,511,2,2,9,33,9,1,0,0,0,1,1,0,0,0,star,triangle,,,,,,,,,,,,,,,,,,,,,,,,,,,,,,,,,,,,,,,,,,,,,,,,,,,,,,
295192,2022-10-06_16h35.43.804,vts_reward_expectancy,2022.2.4,MacIntel,30.3030303,Safari,820,1180,,,l,0.647,1,512,2,2,10,34,4,1,0,1,0,0,0,0,1,0,circle,hexagon,,,,,,,,,,,,,,,,,,,,,,,,,,,,,,,,,,,,,,,,,,,,,,,,,,,,,,
295192,2022-10-06_16h35.43.804,vts_reward_expectancy,2022.2.4,MacIntel,30.3030303,Safari,820,1180,,,l,0.715,1,513,2,2,11,35,0,1,1,0,0,0,0,1,0,0,triangle,circle,,,,,,,,,,,,,,,,,,,,,,,,,,,,,,,,,,,,,,,,,,,,,,,,,,,,,,
295192,2022-10-06_16h35.43.804,vts_reward_expectancy,2022.2.4,MacIntel,30.3030303,Safari,820,1180,,,,,,,,,,,,,,,,,,,,,,,132,F,triangle,0,0,,0,0,0,0,0,1,,,,,,,,,,,,,,,,,,,,,,,,,,,,,,,,,,,,,,,,,,
295192,2022-10-06_16h35.43.804,vts_reward_expectancy,2022.2.4,MacIntel,30.3030303,Safari,820,1180,,,,,,,,,,,,,,,,,,,,,,,167,D,hexagon,0,1,,0,1,0,1,0,1,,,,,,,,,,,,,,,,,,,,,,,,,,,,,,,,,,,,,,,,,,
295192,2022-10-06_16h35.43.804,vts_reward_expectancy,2022.2.4,MacIntel,30.3030303,Safari,820,1180,,,,,,,,,,,,,,,,,,,,,,,181,H,circle,0,1,,0,2,0,2,0,1,,,,,,,,,,,,,,,,,,,,,,,,,,,,,,,,,,,,,,,,,,
295192,2022-10-06_16h35.43.804,vts_reward_expectancy,2022.2.4,MacIntel,30.3030303,Safari,820,1180,,,,,,,,,,,,,,,,,,,,,,,125,Y,star,0,1,,0,3,0,3,0,1,,,,,,,,,,,,,,,,,,,,,,,,,,,,,,,,,,,,,,,,,,
295192,2022-10-06_16h35.43.804,vts_reward_expectancy,2022.2.4,MacIntel,30.3030303,Safari,820,1180,,,,,,,,,,,,,,,,,,,,,,,139,S,triangle,0,1,,0,4,0,4,0,1,,,,,,,,,,,,,,,,,,,,,,,,,,,,,,,,,,,,,,,,,,
295192,2022-10-06_16h35.43.804,vts_reward_expectancy,2022.2.4,MacIntel,30.3030303,Safari,820,1180,,,,,,,,,,,,,,,,,,,,,,,146,W,hexagon,2,1,j,0,5,0,5,0,1,2.137,,,,,,,,,,,,,,,,,,,,,,,,,,,,,,,,,,,,,,,,,
295192,2022-10-06_16h35.43.804,vts_reward_expectancy,2022.2.4,MacIntel,30.3030303,Safari,820,1180,,,,,,,,,,,,,,,,,,,,,,,174,B,circle,0,0,,0,6,0,6,0,1,,,,,,,,,,,,,,,,,,,,,,,,,,,,,,,,,,,,,,,,,,
295192,2022-10-06_16h35.43.804,vts_reward_expectancy,2022.2.4,MacIntel,30.3030303,Safari,820,1180,,,,,,,,,,,,,,,,,,,,,,,160,U,star,0,1,,0,7,0,7,0,1,,,,,,,,,,,,,,,,,,,,,,,,,,,,,,,,,,,,,,,,,,
295192,2022-10-06_16h35.43.804,vts_reward_expectancy,2022.2.4,MacIntel,30.3030303,Safari,820,1180,,,,,,,,,,,,,,,,,,,,,,,132,F,star,0,1,,0,8,0,8,0,1,,,,,,,,,,,,,,,,,,,,,,,,,,,,,,,,,,,,,,,,,,
295192,2022-10-06_16h35.43.804,vts_reward_expectancy,2022.2.4,MacIntel,30.3030303,Safari,820,1180,,,,,,,,,,,,,,,,,,,,,,,167,D,hexagon,0,1,d,0,9,0,9,0,1,1.787,,,,,,,,,,,,,,,,,,,,,,,,,,,,,,,,,,,,,,,,,
295192,2022-10-06_16h35.43.804,vts_reward_expectancy,2022.2.4,MacIntel,30.3030303,Safari,820,1180,,,,,,,,,,,,,,,,,,,,,,,174,S,circle,1,1,f,1,0,0,0,0,1,0.707,,,,,,,,,,,,,,,,,,,,,,,,,,,,,,,,,,,,,,,,,
295192,2022-10-06_16h35.43.804,vts_reward_expectancy,2022.2.4,MacIntel,30.3030303,Safari,820,1180,,,,,,,,,,,,,,,,,,,,,,,167,B,triangle,1,0,f,1,1,0,1,0,1,0.787,,,,,,,,,,,,,,,,,,,,,,,,,,,,,,,,,,,,,,,,,
295192,2022-10-06_16h35.43.804,vts_reward_expectancy,2022.2.4,MacIntel,30.3030303,Safari,820,1180,,,,,,,,,,,,,,,,,,,,,,,146,Y,hexagon,1,0,d,1,2,0,2,0,1,0.473,,,,,,,,,,,,,,,,,,,,,,,,,,,,,,,,,,,,,,,,,
295192,2022-10-06_16h35.43.804,vts_reward_expectancy,2022.2.4,MacIntel,30.3030303,Safari,820,1180,,,,,,,,,,,,,,,,,,,,,,,132,H,star,1,0,d,1,3,0,3,0,1,1.054,,,,,,,,,,,,,,,,,,,,,,,,,,,,,,,,,,,,,,,,,
295192,2022-10-06_16h35.43.804,vts_reward_expectancy,2022.2.4,MacIntel,30.3030303,Safari,820,1180,,,,,,,,,,,,,,,,,,,,,,,125,W,circle,1,0,d,1,4,0,4,0,1,0.618,,,,,,,,,,,,,,,,,,,,,,,,,,,,,,,,,,,,,,,,,
295192,2022-10-06_16h35.43.804,vts_reward_expectancy,2022.2.4,MacIntel,30.3030303,Safari,820,1180,,,,,,,,,,,,,,,,,,,,,,,160,D,triangle,1,0,f,1,5,0,5,0,1,0.406,,,,,,,,,,,,,,,,,,,,,,,,,,,,,,,,,,,,,,,,,
295192,2022-10-06_16h35.43.804,vts_reward_expectancy,2022.2.4,MacIntel,30.3030303,Safari,820,1180,,,,,,,,,,,,,,,,,,,,,,,139,U,hexagon,1,0,d,1,6,0,6,0,1,0.92,,,,,,,,,,,,,,,,,,,,,,,,,,,,,,,,,,,,,,,,,
295192,2022-10-06_16h35.43.804,vts_reward_expectancy,2022.2.4,MacIntel,30.3030303,Safari,820,1180,,,,,,,,,,,,,,,,,,,,,,,181,F,star,1,0,f,1,7,0,7,0,1,0.672,,,,,,,,,,,,,,,,,,,,,,,,,,,,,,,,,,,,,,,,,
295192,2022-10-06_16h35.43.804,vts_reward_expectancy,2022.2.4,MacIntel,30.3030303,Safari,820,1180,,,,,,,,,,,,,,,,,,,,,,,174,S,circle,1,0,f,1,8,0,8,0,1,0.555,,,,,,,,,,,,,,,,,,,,,,,,,,,,,,,,,,,,,,,,,
295192,2022-10-06_16h35.43.804,vts_reward_expectancy,2022.2.4,MacIntel,30.3030303,Safari,820,1180,,,,,,,,,,,,,,,,,,,,,,,167,B,triangle,1,0,f,1,9,0,9,0,1,0.539,,,,,,,,,,,,,,,,,,,,,,,,,,,,,,,,,,,,,,,,,
295192,2022-10-06_16h35.43.804,vts_reward_expectancy,2022.2.4,MacIntel,30.3030303,Safari,820,1180,,,,,,,,,,,,,,,,,,,,,,,132,S,triangle,1,0,,2,,,,,,,k,1.29,0,0,0,0,1,,,,,,,,,,,,,,,,,,,,,,,,,,,,,,,,,,
295192,2022-10-06_16h35.43.804,vts_reward_expectancy,2022.2.4,MacIntel,30.3030303,Safari,820,1180,,,,,,,,,,,,,,,,,,,,,,,181,D,hexagon,1,0,,2,,,,,,,j,0.572,1,0,1,0,1,,,,,,,,,,,,,,,,,,,,,,,,,,,,,,,,,,
295192,2022-10-06_16h35.43.804,vts_reward_expectancy,2022.2.4,MacIntel,30.3030303,Safari,820,1180,,,,,,,,,,,,,,,,,,,,,,,174,U,circle,1,0,,2,,,,,,,k,0.655,2,0,2,0,1,,,,,,,,,,,,,,,,,,,,,,,,,,,,,,,,,,
295192,2022-10-06_16h35.43.804,vts_reward_expectancy,2022.2.4,MacIntel,30.3030303,Safari,820,1180,,,,,,,,,,,,,,,,,,,,,,,167,H,star,1,0,,2,,,,,,,j,0.588,3,0,3,0,1,,,,,,,,,,,,,,,,,,,,,,,,,,,,,,,,,,
295192,2022-10-06_16h35.43.804,vts_reward_expectancy,2022.2.4,MacIntel,30.3030303,Safari,820,1180,,,,,,,,,,,,,,,,,,,,,,,125,W,triangle,1,0,,2,,,,,,,k,0.488,4,0,4,0,1,,,,,,,,,,,,,,,,,,,,,,,,,,,,,,,,,,
295192,2022-10-06_16h35.43.804,vts_reward_expectancy,2022.2.4,MacIntel,30.3030303,Safari,820,1180,,,,,,,,,,,,,,,,,,,,,,,139,F,hexagon,1,0,,2,,,,,,,j,0.739,5,0,5,0,1,,,,,,,,,,,,,,,,,,,,,,,,,,,,,,,,,,
295192,2022-10-06_16h35.43.804,vts_reward_expectancy,2022.2.4,MacIntel,30.3030303,Safari,820,1180,,,,,,,,,,,,,,,,,,,,,,,160,Y,circle,1,0,,2,,,,,,,k,0.521,6,0,6,0,1,,,,,,,,,,,,,,,,,,,,,,,,,,,,,,,,,,
295192,2022-10-06_16h35.43.804,vts_reward_expectancy,2022.2.4,MacIntel,30.3030303,Safari,820,1180,,,,,,,,,,,,,,,,,,,,,,,146,B,star,1,0,,2,,,,,,,j,0.622,7,0,7,0,1,,,,,,,,,,,,,,,,,,,,,,,,,,,,,,,,,,
295192,2022-10-06_16h35.43.804,vts_reward_expectancy,2022.2.4,MacIntel,30.3030303,Safari,820,1180,,,,,,,,,,,,,,,,,,,,,,,132,S,hexagon,1,0,,2,,,,,,,k,0.555,8,0,8,0,1,,,,,,,,,,,,,,,,,,,,,,,,,,,,,,,,,,
295192,2022-10-06_16h35.43.804,vts_reward_expectancy,2022.2.4,MacIntel,30.3030303,Safari,820,1180,,,,,,,,,,,,,,,,,,,,,,,181,D,star,1,0,,2,,,,,,,j,0.672,9,0,9,0,1,,,,,,,,,,,,,,,,,,,,,,,,,,,,,,,,,,
295192,2022-10-06_16h35.43.804,vts_reward_expectancy,2022.2.4,MacIntel,30.3030303,Safari,820,1180,,,,,0,513,,,,,,,,,,,,,,,,,167,U,circle,1,0,,3,,,,,,,,,,,,,,-1,letter,NA,k,2.036,vtsPrac,0,0,0,0,1,,,,,,,,,,,,,,,,,,,,,,,
295192,2022-10-06_16h35.43.804,vts_reward_expectancy,2022.2.4,MacIntel,30.3030303,Safari,820,1180,,,,,0,513,,,,,,,,,,,,,,,,,146,B,triangle,1,0,,3,,,,,,,,,,,,,,switch,number,numSwt,d,2.157,vtsPrac,1,0,1,0,1,,,,,,,,,,,,,,,,,,,,,,,
295192,2022-10-06_16h35.43.804,vts_reward_expectancy,2022.2.4,MacIntel,30.3030303,Safari,820,1180,,,,,0,513,,,,,,,,,,,,,,,,,139,W,circle,1,0,,3,,,,,,,,,,,,,,repeat,number,numRpt,d,1.22,vtsPrac,2,0,2,0,1,,,,,,,,,,,,,,,,,,,,,,,
295192,2022-10-06_16h35.43.804,vts_reward_expectancy,2022.2.4,MacIntel,30.3030303,Safari,820,1180,,,,,0,513,,,,,,,,,,,,,,,,,181,S,triangle,1,0,,3,,,,,,,,,,,,,,switch,letter,lettSwt,k,0.952,vtsPrac,3,0,3,0,1,,,,,,,,,,,,,,,,,,,,,,,
295192,2022-10-06_16h35.43.804,vts_reward_expectancy,2022.2.4,MacIntel,30.3030303,Safari,820,1180,,,,,0,513,,,,,,,,,,,,,,,,,167,U,triangle,1,0,,3,,,,,,,,,,,,,,switch,number,numSwt,f,1.621,vtsPrac,4,0,4,0,1,,,,,,,,,,,,,,,,,,,,,,,
295192,2022-10-06_16h35.43.804,vts_reward_expectancy,2022.2.4,MacIntel,30.3030303,Safari,820,1180,,,,,0,513,,,,,,,,,,,,,,,,,146,B,circle,1,0,,3,,,,,,,,,,,,,,repeat,number,numRpt,d,0.741,vtsPrac,5,0,5,0,1,,,,,,,,,,,,,,,,,,,,,,,
295192,2022-10-06_16h35.43.804,vts_reward_expectancy,2022.2.4,MacIntel,30.3030303,Safari,820,1180,,,,,0,513,,,,,,,,,,,,,,,,,139,W,hexagon,1,0,,3,,,,,,,,,,,,,,repeat,number,numRpt,d,1.272,vtsPrac,6,0,6,0,1,,,,,,,,,,,,,,,,,,,,,,,
295192,2022-10-06_16h35.43.804,vts_reward_expectancy,2022.2.4,MacIntel,30.3030303,Safari,820,1180,,,,,0,513,,,,,,,,,,,,,,,,,181,S,triangle,1,0,,3,,,,,,,,,,,,,,switch,letter,lettSwt,k,1.239,vtsPrac,7,0,7,0,1,,,,,,,,,,,,,,,,,,,,,,,
295192,2022-10-06_16h35.43.804,vts_reward_expectancy,2022.2.4,MacIntel,30.3030303,Safari,820,1180,,,,,0,513,,,,,,,,,,,,,,,,,167,W,circle,1,0,,3,,,,,,,,,,,,,,repeat,letter,lettRpt,k,0.989,vtsPrac,8,0,8,0,1,,,,,,,,,,,,,,,,,,,,,,,
295192,2022-10-06_16h35.43.804,vts_reward_expectancy,2022.2.4,MacIntel,30.3030303,Safari,820,1180,,,,,0,513,,,,,,,,,,,,,,,,,146,B,star,1,0,,3,,,,,,,,,,,,,,repeat,letter,lettRpt,j,1.309,vtsPrac,9,0,9,0,1,,,,,,,,,,,,,,,,,,,,,,,
295192,2022-10-06_16h35.43.804,vts_reward_expectancy,2022.2.4,MacIntel,30.3030303,Safari,820,1180,,,,,0,513,,,,,,,,,,,,,,,,,125,F,star,1,0,,3,,,,,,,,,,,,,,switch,number,numSwt,d,0.507,vtsPrac,10,0,10,0,1,,,,,,,,,,,,,,,,,,,,,,,
295192,2022-10-06_16h35.43.804,vts_reward_expectancy,2022.2.4,MacIntel,30.3030303,Safari,820,1180,,,,,0,513,,,,,,,,,,,,,,,,,139,H,hexagon,1,0,,3,,,,,,,,,,,,,,repeat,number,numRpt,d,0.673,vtsPrac,11,0,11,0,1,,,,,,,,,,,,,,,,,,,,,,,
295192,2022-10-06_16h35.43.804,vts_reward_expectancy,2022.2.4,MacIntel,30.3030303,Safari,820,1180,,,,,0,513,,,,,,,,,,,,,,,,,181,W,star,1,0,,3,,,,,,,,,,,,,,repeat,number,numRpt,f,0.487,vtsPrac,12,0,12,0,1,,,,,,,,,,,,,,,,,,,,,,,
295192,2022-10-06_16h35.43.804,vts_reward_expectancy,2022.2.4,MacIntel,30.3030303,Safari,820,1180,,,,,0,513,,,,,,,,,,,,,,,,,132,D,hexagon,1,0,,3,,,,,,,,,,,,,,switch,letter,lettSwt,j,0.742,vtsPrac,13,0,13,0,1,,,,,,,,,,,,,,,,,,,,,,,
295192,2022-10-06_16h35.43.804,vts_reward_expectancy,2022.2.4,MacIntel,30.3030303,Safari,820,1180,,,,,0,513,,,,,,,,,,,,,,,,,139,S,star,1,0,,3,,,,,,,,,,,,,,repeat,letter,lettRpt,k,0.741,vtsPrac,14,0,14,0,1,,,,,,,,,,,,,,,,,,,,,,,
295192,2022-10-06_16h35.43.804,vts_reward_expectancy,2022.2.4,MacIntel,30.3030303,Safari,820,1180,,,,,0,513,,,,,,,,,,,,,,,,,146,B,circle,-1,0,,3,,,,,,,,,,,,,,switch,no_choice,NA,,,vtsPrac,15,0,15,0,1,,,,,,,,,,,,,,,,,,,,,,,
295192,2022-10-06_16h35.43.804,vts_reward_expectancy,2022.2.4,MacIntel,30.3030303,Safari,820,1180,,,,,,,,,,,,,,,,,,,,,,,,,,,,,,,,,,,,,,,,,,,,,,,,,,,,,,,,,,,,,,,,,,,,,,,,,,,,
295192,2022-10-06_16h35.43.804,vts_reward_expectancy,2022.2.4,MacIntel,30.3030303,Safari,820,1180,,,,,,,,,,,,,,,,,,,,,,,,,,,,,,,,,,,,,,,,,,,,,,,,,,,,,,,,,,,,,,,,,,,,,,,,,,,,
295192,2022-10-06_16h35.43.804,vts_reward_expectancy,2022.2.4,MacIntel,30.3030303,Safari,820,1180,,,,,0,513,,,,,,,,,,,,,,,,,139,S,circle,1,0,,,,,,,,,,,,,,,,switch,letter,lettSwt,k,0.819,noRew,,,,,,0,0,0,0,0,1,,,,,,,,,,,,,,,,,
295192,2022-10-06_16h35.43.804,vts_reward_expectancy,2022.2.4,MacIntel,30.3030303,Safari,820,1180,,,,,0,513,,,,,,,,,,,,,,,,,146,H,triangle,1,0,,,,,,,,,,,,,,,,repeat,letter,lettRpt,j,0.737,noRew,,,,,,0,1,0,1,0,1,,,,,,,,,,,,,,,,,
295192,2022-10-06_16h35.43.804,vts_reward_expectancy,2022.2.4,MacIntel,30.3030303,Safari,820,1180,,,,,0,513,,,,,,,,,,,,,,,,,174,Y,circle,0,0,,,,,,,,,,,,,,,,switch,number,NA,d,2.253,noRew,,,,,,0,2,0,2,0,1,,,,,,,,,,,,,,,,,
295192,2022-10-06_16h35.43.804,vts_reward_expectancy,2022.2.4,MacIntel,30.3030303,Safari,820,1180,,,,,0,513,,,,,,,,,,,,,,,,,181,U,triangle,-1,1,,,,,,,,,,,,,,,,switch,no_choice,NA,,,noRew,,,,,,0,3,0,3,0,1,,,,,,,,,,,,,,,,,
295192,2022-10-06_16h35.43.804,vts_reward_expectancy,2022.2.4,MacIntel,30.3030303,Safari,820,1180,,,,,0,513,,,,,,,,,,,,,,,,,139,S,star,1,0,,,,,,,,,,,,,,,,switch,number,numSwt,d,2.706,noRew,,,,,,0,4,0,4,0,1,,,,,,,,,,,,,,,,,
295192,2022-10-06_16h35.43.804,vts_reward_expectancy,2022.2.4,MacIntel,30.3030303,Safari,820,1180,,,,,0,513,,,,,,,,,,,,,,,,,146,H,hexagon,1,0,,,,,,,,,,,,,,,,switch,letter,lettSwt,j,2.12,noRew,,,,,,0,5,0,5,0,1,,,,,,,,,,,,,,,,,
295192,2022-10-06_16h35.43.804,vts_reward_expectancy,2022.2.4,MacIntel,30.3030303,Safari,820,1180,,,,,0,513,,,,,,,,,,,,,,,,,174,Y,star,1,0,,,,,,,,,,,,,,,,repeat,letter,lettRpt,k,1.706,noRew,,,,,,0,6,0,6,0,1,,,,,,,,,,,,,,,,,
295192,2022-10-06_16h35.43.804,vts_reward_expectancy,2022.2.4,MacIntel,30.3030303,Safari,820,1180,,,,,0,513,,,,,,,,,,,,,,,,,181,U,hexagon,0,0,,,,,,,,,,,,,,,,switch,number,NA,d,1.34,noRew,,,,,,0,7,0,7,0,1,,,,,,,,,,,,,,,,,
295192,2022-10-06_16h35.43.804,vts_reward_expectancy,2022.2.4,MacIntel,30.3030303,Safari,820,1180,,,,,0,513,,,,,,,,,,,,,,,,,125,U,circle,0,1,,,,,,,,,,,,,,,,repeat,number,NA,f,1.713,noRew,,,,,,0,8,0,8,0,1,,,,,,,,,,,,,,,,,
295192,2022-10-06_16h35.43.804,vts_reward_expectancy,2022.2.4,MacIntel,30.3030303,Safari,820,1180,,,,,0,513,,,,,,,,,,,,,,,,,167,W,star,0,1,,,,,,,,,,,,,,,,switch,letter,NA,j,1.04,noRew,,,,,,0,9,0,9,0,1,,,,,,,,,,,,,,,,,
295192,2022-10-06_16h35.43.804,vts_reward_expectancy,2022.2.4,MacIntel,30.3030303,Safari,820,1180,,,,,0,513,,,,,,,,,,,,,,,,,160,H,triangle,1,1,,,,,,,,,,,,,,,,switch,number,numSwt,f,0.955,noRew,,,,,,0,10,0,10,0,1,,,,,,,,,,,,,,,,,
295192,2022-10-06_16h35.43.804,vts_reward_expectancy,2022.2.4,MacIntel,30.3030303,Safari,820,1180,,,,,0,513,,,,,,,,,,,,,,,,,174,B,hexagon,1,0,,,,,,,,,,,,,,,,switch,letter,lettSwt,j,0.755,noRew,,,,,,0,11,0,11,0,1,,,,,,,,,,,,,,,,,
295192,2022-10-06_16h35.43.804,vts_reward_expectancy,2022.2.4,MacIntel,30.3030303,Safari,820,1180,,,,,0,513,,,,,,,,,,,,,,,,,167,B,circle,1,0,,,,,,,,,,,,,,,,repeat,letter,lettRpt,j,1.012,noRew,,,,,,0,12,0,12,0,1,,,,,,,,,,,,,,,,,
295192,2022-10-06_16h35.43.804,vts_reward_expectancy,2022.2.4,MacIntel,30.3030303,Safari,820,1180,,,,,0,513,,,,,,,,,,,,,,,,,139,W,triangle,1,0,,,,,,,,,,,,,,,,switch,number,numSwt,d,1.341,noRew,,,,,,0,13,0,13,0,1,,,,,,,,,,,,,,,,,
295192,2022-10-06_16h35.43.804,vts_reward_expectancy,2022.2.4,MacIntel,30.3030303,Safari,820,1180,,,,,0,513,,,,,,,,,,,,,,,,,160,Y,star,1,0,,,,,,,,,,,,,,,,switch,letter,lettSwt,k,1.974,noRew,,,,,,0,14,0,14,0,1,,,,,,,,,,,,,,,,,
295192,2022-10-06_16h35.43.804,vts_reward_expectancy,2022.2.4,MacIntel,30.3030303,Safari,820,1180,,,,,0,513,,,,,,,,,,,,,,,,,146,D,circle,1,0,,,,,,,,,,,,,,,,repeat,letter,lettRpt,j,1.705,noRew,,,,,,0,15,0,15,0,1,,,,,,,,,,,,,,,,,
295192,2022-10-06_16h35.43.804,vts_reward_expectancy,2022.2.4,MacIntel,30.3030303,Safari,820,1180,,,,,0,513,,,,,,,,,,,,,,,,,174,B,circle,1,0,,,,,,,,,,,,,,,,repeat,letter,lettRpt,j,2.173,noRew,,,,,,0,16,0,16,0,1,,,,,,,,,,,,,,,,,
295192,2022-10-06_16h35.43.804,vts_reward_expectancy,2022.2.4,MacIntel,30.3030303,Safari,820,1180,,,,,0,513,,,,,,,,,,,,,,,,,125,Y,hexagon,1,0,,,,,,,,,,,,,,,,repeat,letter,lettRpt,k,0.621,noRew,,,,,,0,17,0,17,0,1,,,,,,,,,,,,,,,,,
295192,2022-10-06_16h35.43.804,vts_reward_expectancy,2022.2.4,MacIntel,30.3030303,Safari,820,1180,,,,,0,513,,,,,,,,,,,,,,,,,139,W,circle,0,0,,,,,,,,,,,,,,,,switch,number,NA,f,1.087,noRew,,,,,,0,18,0,18,0,1,,,,,,,,,,,,,,,,,
295192,2022-10-06_16h35.43.804,vts_reward_expectancy,2022.2.4,MacIntel,30.3030303,Safari,820,1180,,,,,0,513,,,,,,,,,,,,,,,,,146,D,hexagon,1,1,,,,,,,,,,,,,,,,repeat,number,numRpt,d,0.871,noRew,,,,,,0,19,0,19,0,1,,,,,,,,,,,,,,,,,
295192,2022-10-06_16h35.43.804,vts_reward_expectancy,2022.2.4,MacIntel,30.3030303,Safari,820,1180,,,,,0,513,,,,,,,,,,,,,,,,,139,U,hexagon,1,0,,,,,,,,,,,,,,,,repeat,number,numRpt,d,0.904,noRew,,,,,,0,20,0,20,0,1,,,,,,,,,,,,,,,,,
295192,2022-10-06_16h35.43.804,vts_reward_expectancy,2022.2.4,MacIntel,30.3030303,Safari,820,1180,,,,,0,513,,,,,,,,,,,,,,,,,174,S,circle,1,0,,,,,,,,,,,,,,,,repeat,number,numRpt,f,0.488,noRew,,,,,,0,21,0,21,0,1,,,,,,,,,,,,,,,,,
295192,2022-10-06_16h35.43.804,vts_reward_expectancy,2022.2.4,MacIntel,30.3030303,Safari,820,1180,,,,,0,513,,,,,,,,,,,,,,,,,167,D,circle,1,0,,,,,,,,,,,,,,,,repeat,number,numRpt,f,1.055,noRew,,,,,,0,22,0,22,0,1,,,,,,,,,,,,,,,,,
295192,2022-10-06_16h35.43.804,vts_reward_expectancy,2022.2.4,MacIntel,30.3030303,Safari,820,1180,,,,,0,513,,,,,,,,,,,,,,,,,125,Y,hexagon,1,0,,,,,,,,,,,,,,,,repeat,number,numRpt,d,0.638,noRew,,,,,,0,23,0,23,0,1,,,,,,,,,,,,,,,,,
295192,2022-10-06_16h35.43.804,vts_reward_expectancy,2022.2.4,MacIntel,30.3030303,Safari,820,1180,,,,,0,513,,,,,,,,,,,,,,,,,174,S,hexagon,1,0,,,,,,,,,,,,,,,,switch,letter,lettSwt,k,1.372,noRew,,,,,,0,24,0,24,0,1,,,,,,,,,,,,,,,,,
295192,2022-10-06_16h35.43.804,vts_reward_expectancy,2022.2.4,MacIntel,30.3030303,Safari,820,1180,,,,,0,513,,,,,,,,,,,,,,,,,167,H,triangle,1,0,,,,,,,,,,,,,,,,repeat,letter,lettRpt,j,1.015,noRew,,,,,,0,25,0,25,0,1,,,,,,,,,,,,,,,,,
295192,2022-10-06_16h35.43.804,vts_reward_expectancy,2022.2.4,MacIntel,30.3030303,Safari,820,1180,,,,,0,513,,,,,,,,,,,,,,,,,181,D,hexagon,1,0,,,,,,,,,,,,,,,,repeat,letter,lettRpt,j,0.773,noRew,,,,,,0,26,0,26,0,1,,,,,,,,,,,,,,,,,
295192,2022-10-06_16h35.43.804,vts_reward_expectancy,2022.2.4,MacIntel,30.3030303,Safari,820,1180,,,,,0,513,,,,,,,,,,,,,,,,,160,B,circle,1,0,,,,,,,,,,,,,,,,switch,number,numSwt,f,1.587,noRew,,,,,,0,27,0,27,0,1,,,,,,,,,,,,,,,,,
295192,2022-10-06_16h35.43.804,vts_reward_expectancy,2022.2.4,MacIntel,30.3030303,Safari,820,1180,,,,,0,513,,,,,,,,,,,,,,,,,181,Y,hexagon,1,0,,,,,,,,,,,,,,,,repeat,number,numRpt,f,1.374,noRew,,,,,,0,28,0,28,0,1,,,,,,,,,,,,,,,,,
295192,2022-10-06_16h35.43.804,vts_reward_expectancy,2022.2.4,MacIntel,30.3030303,Safari,820,1180,,,,,0,513,,,,,,,,,,,,,,,,,125,W,circle,-1,0,,,,,,,,,,,,,,,,switch,no_choice,NA,,,noRew,,,,,,0,29,0,29,0,1,,,,,,,,,,,,,,,,,
295192,2022-10-06_16h35.43.804,vts_reward_expectancy,2022.2.4,MacIntel,30.3030303,Safari,820,1180,,,,,0,513,,,,,,,,,,,,,,,,,174,B,hexagon,1,0,,,,,,,,,,,,,,,,switch,letter,lettSwt,j,0.773,noRew,,,,,,0,30,0,30,0,1,,,,,,,,,,,,,,,,,
295192,2022-10-06_16h35.43.804,vts_reward_expectancy,2022.2.4,MacIntel,30.3030303,Safari,820,1180,,,,,0,513,,,,,,,,,,,,,,,,,160,U,triangle,1,0,,,,,,,,,,,,,,,,repeat,letter,lettRpt,k,0.689,noRew,,,,,,0,31,0,31,0,1,,,,,,,,,,,,,,,,,
295192,2022-10-06_16h35.43.804,vts_reward_expectancy,2022.2.4,MacIntel,30.3030303,Safari,820,1180,,,,,0,513,,,,,,,,,,,,,,,,,139,H,triangle,1,0,,,,,,,,,,,,,,,,switch,number,numSwt,d,0.741,noRew,,,,,,0,32,0,32,0,1,,,,,,,,,,,,,,,,,
295192,2022-10-06_16h35.43.804,vts_reward_expectancy,2022.2.4,MacIntel,30.3030303,Safari,820,1180,,,,,0,513,,,,,,,,,,,,,,,,,132,D,star,1,0,,,,,,,,,,,,,,,,repeat,number,numRpt,d,0.655,noRew,,,,,,0,33,0,33,0,1,,,,,,,,,,,,,,,,,
295192,2022-10-06_16h35.43.804,vts_reward_expectancy,2022.2.4,MacIntel,30.3030303,Safari,820,1180,,,,,0,513,,,,,,,,,,,,,,,,,167,W,circle,1,0,,,,,,,,,,,,,,,,switch,letter,lettSwt,k,1.338,noRew,,,,,,0,34,0,34,0,1,,,,,,,,,,,,,,,,,
295192,2022-10-06_16h35.43.804,vts_reward_expectancy,2022.2.4,MacIntel,30.3030303,Safari,820,1180,,,,,0,513,,,,,,,,,,,,,,,,,181,S,hexagon,1,0,,,,,,,,,,,,,,,,repeat,letter,lettRpt,k,0.906,noRew,,,,,,0,35,0,35,0,1,,,,,,,,,,,,,,,,,
295192,2022-10-06_16h35.43.804,vts_reward_expectancy,2022.2.4,MacIntel,30.3030303,Safari,820,1180,,,,,0,513,,,,,,,,,,,,,,,,,167,U,triangle,1,0,,,,,,,,,,,,,,,,repeat,letter,lettRpt,k,0.688,noRew,,,,,,0,36,0,36,0,1,,,,,,,,,,,,,,,,,
295192,2022-10-06_16h35.43.804,vts_reward_expectancy,2022.2.4,MacIntel,30.3030303,Safari,820,1180,,,,,0,513,,,,,,,,,,,,,,,,,125,D,hexagon,1,0,,,,,,,,,,,,,,,,switch,number,numSwt,d,0.887,noRew,,,,,,0,37,0,37,0,1,,,,,,,,,,,,,,,,,
295192,2022-10-06_16h35.43.804,vts_reward_expectancy,2022.2.4,MacIntel,30.3030303,Safari,820,1180,,,,,0,513,,,,,,,,,,,,,,,,,181,Y,triangle,1,0,,,,,,,,,,,,,,,,repeat,number,numRpt,f,0.608,noRew,,,,,,0,38,0,38,0,1,,,,,,,,,,,,,,,,,
295192,2022-10-06_16h35.43.804,vts_reward_expectancy,2022.2.4,MacIntel,30.3030303,Safari,820,1180,,,,,0,513,,,,,,,,,,,,,,,,,174,W,hexagon,1,0,,,,,,,,,,,,,,,,repeat,number,numRpt,f,0.602,noRew,,,,,,0,39,0,39,0,1,,,,,,,,,,,,,,,,,
295192,2022-10-06_16h35.43.804,vts_reward_expectancy,2022.2.4,MacIntel,30.3030303,Safari,820,1180,,,,,0,513,,,,,,,,,,,,,,,,,181,W,hexagon,-1,0,,,,,,,,,,,,,,,,switch,no_choice,NA,,,noRew,,,,,,0,40,0,40,0,1,,,,,,,,,,,,,,,,,
295192,2022-10-06_16h35.43.804,vts_reward_expectancy,2022.2.4,MacIntel,30.3030303,Safari,820,1180,,,,,0,513,,,,,,,,,,,,,,,,,160,U,triangle,1,0,,,,,,,,,,,,,,,,switch,number,numSwt,f,0.621,noRew,,,,,,0,41,0,41,0,1,,,,,,,,,,,,,,,,,
295192,2022-10-06_16h35.43.804,vts_reward_expectancy,2022.2.4,MacIntel,30.3030303,Safari,820,1180,,,,,0,513,,,,,,,,,,,,,,,,,167,B,hexagon,1,0,,,,,,,,,,,,,,,,repeat,number,numRpt,f,0.821,noRew,,,,,,0,42,0,42,0,1,,,,,,,,,,,,,,,,,
295192,2022-10-06_16h35.43.804,vts_reward_expectancy,2022.2.4,MacIntel,30.3030303,Safari,820,1180,,,,,0,513,,,,,,,,,,,,,,,,,125,Y,circle,1,0,,,,,,,,,,,,,,,,repeat,number,numRpt,d,0.505,noRew,,,,,,0,43,0,43,0,1,,,,,,,,,,,,,,,,,
295192,2022-10-06_16h35.43.804,vts_reward_expectancy,2022.2.4,MacIntel,30.3030303,Safari,820,1180,,,,,0,513,,,,,,,,,,,,,,,,,132,S,hexagon,1,0,,,,,,,,,,,,,,,,repeat,number,numRpt,d,1.789,noRew,,,,,,0,44,0,44,0,1,,,,,,,,,,,,,,,,,
295192,2022-10-06_16h35.43.804,vts_reward_expectancy,2022.2.4,MacIntel,30.3030303,Safari,820,1180,,,,,0,513,,,,,,,,,,,,,,,,,160,U,star,1,0,,,,,,,,,,,,,,,,switch,letter,lettSwt,k,0.807,noRew,,,,,,0,45,0,45,0,1,,,,,,,,,,,,,,,,,
295192,2022-10-06_16h35.43.804,vts_reward_expectancy,2022.2.4,MacIntel,30.3030303,Safari,820,1180,,,,,0,513,,,,,,,,,,,,,,,,,181,W,hexagon,1,0,,,,,,,,,,,,,,,,repeat,letter,lettRpt,k,1.173,noRew,,,,,,0,46,0,46,0,1,,,,,,,,,,,,,,,,,
295192,2022-10-06_16h35.43.804,vts_reward_expectancy,2022.2.4,MacIntel,30.3030303,Safari,820,1180,,,,,0,513,,,,,,,,,,,,,,,,,146,B,circle,1,0,,,,,,,,,,,,,,,,repeat,letter,lettRpt,j,0.688,noRew,,,,,,0,47,0,47,0,1,,,,,,,,,,,,,,,,,
295192,2022-10-06_16h35.43.804,vts_reward_expectancy,2022.2.4,MacIntel,30.3030303,Safari,820,1180,,,,,0,513,,,,,,,,,,,,,,,,,146,S,circle,1,0,,,,,,,,,,,,,,,,repeat,letter,lettRpt,k,0.613,noRew,,,,,,0,48,0,48,0,1,,,,,,,,,,,,,,,,,
295192,2022-10-06_16h35.43.804,vts_reward_expectancy,2022.2.4,MacIntel,30.3030303,Safari,820,1180,,,,,0,513,,,,,,,,,,,,,,,,,167,Y,star,1,0,,,,,,,,,,,,,,,,repeat,letter,lettRpt,k,0.555,noRew,,,,,,0,49,0,49,0,1,,,,,,,,,,,,,,,,,
295192,2022-10-06_16h35.43.804,vts_reward_expectancy,2022.2.4,MacIntel,30.3030303,Safari,820,1180,,,,,0,513,,,,,,,,,,,,,,,,,139,F,triangle,1,0,,,,,,,,,,,,,,,,repeat,letter,lettRpt,j,0.689,noRew,,,,,,0,50,0,50,0,1,,,,,,,,,,,,,,,,,
295192,2022-10-06_16h35.43.804,vts_reward_expectancy,2022.2.4,MacIntel,30.3030303,Safari,820,1180,,,,,0,513,,,,,,,,,,,,,,,,,125,B,hexagon,1,0,,,,,,,,,,,,,,,,repeat,letter,lettRpt,j,0.742,noRew,,,,,,0,51,0,51,0,1,,,,,,,,,,,,,,,,,
295192,2022-10-06_16h35.43.804,vts_reward_expectancy,2022.2.4,MacIntel,30.3030303,Safari,820,1180,,,,,0,513,,,,,,,,,,,,,,,,,160,U,triangle,1,0,,,,,,,,,,,,,,,,repeat,letter,lettRpt,k,0.674,noRew,,,,,,0,52,0,52,0,1,,,,,,,,,,,,,,,,,
295192,2022-10-06_16h35.43.804,vts_reward_expectancy,2022.2.4,MacIntel,30.3030303,Safari,820,1180,,,,,0,513,,,,,,,,,,,,,,,,,132,B,star,1,0,,,,,,,,,,,,,,,,repeat,letter,lettRpt,j,2.554,noRew,,,,,,0,53,0,53,0,1,,,,,,,,,,,,,,,,,
295192,2022-10-06_16h35.43.804,vts_reward_expectancy,2022.2.4,MacIntel,30.3030303,Safari,820,1180,,,,,0,513,,,,,,,,,,,,,,,,,139,F,hexagon,1,0,,,,,,,,,,,,,,,,repeat,letter,lettRpt,j,0.688,noRew,,,,,,0,54,0,54,0,1,,,,,,,,,,,,,,,,,
295192,2022-10-06_16h35.43.804,vts_reward_expectancy,2022.2.4,MacIntel,30.3030303,Safari,820,1180,,,,,0,513,,,,,,,,,,,,,,,,,181,Y,star,1,0,,,,,,,,,,,,,,,,switch,number,numSwt,f,1.341,noRew,,,,,,0,55,0,55,0,1,,,,,,,,,,,,,,,,,
295192,2022-10-06_16h35.43.804,vts_reward_expectancy,2022.2.4,MacIntel,30.3030303,Safari,820,1180,,,,,0,513,,,,,,,,,,,,,,,,,125,W,hexagon,0,0,,,,,,,,,,,,,,,,switch,letter,NA,j,1.056,noRew,,,,,,0,56,0,56,0,1,,,,,,,,,,,,,,,,,
295192,2022-10-06_16h35.43.804,vts_reward_expectancy,2022.2.4,MacIntel,30.3030303,Safari,820,1180,,,,,0,513,,,,,,,,,,,,,,,,,139,U,triangle,1,1,,,,,,,,,,,,,,,,repeat,letter,lettRpt,k,0.821,noRew,,,,,,0,57,0,57,0,1,,,,,,,,,,,,,,,,,
295192,2022-10-06_16h35.43.804,vts_reward_expectancy,2022.2.4,MacIntel,30.3030303,Safari,820,1180,,,,,0,513,,,,,,,,,,,,,,,,,146,F,triangle,1,0,,,,,,,,,,,,,,,,repeat,letter,lettRpt,j,1.04,noRew,,,,,,0,58,0,58,0,1,,,,,,,,,,,,,,,,,
295192,2022-10-06_16h35.43.804,vts_reward_expectancy,2022.2.4,MacIntel,30.3030303,Safari,820,1180,,,,,0,513,,,,,,,,,,,,,,,,,160,H,circle,1,0,,,,,,,,,,,,,,,,repeat,letter,lettRpt,j,0.888,noRew,,,,,,0,59,0,59,0,1,,,,,,,,,,,,,,,,,
295192,2022-10-06_16h35.43.804,vts_reward_expectancy,2022.2.4,MacIntel,30.3030303,Safari,820,1180,,,,,0,513,,,,,,,,,,,,,,,,,146,F,hexagon,1,0,,,,,,,,,,,,,,,,repeat,letter,lettRpt,j,0.689,noRew,,,,,,0,60,0,60,0,1,,,,,,,,,,,,,,,,,
295192,2022-10-06_16h35.43.804,vts_reward_expectancy,2022.2.4,MacIntel,30.3030303,Safari,820,1180,,,,,0,513,,,,,,,,,,,,,,,,,125,Y,star,1,0,,,,,,,,,,,,,,,,repeat,letter,lettRpt,k,0.722,noRew,,,,,,0,61,0,61,0,1,,,,,,,,,,,,,,,,,
295192,2022-10-06_16h35.43.804,vts_reward_expectancy,2022.2.4,MacIntel,30.3030303,Safari,820,1180,,,,,0,513,,,,,,,,,,,,,,,,,174,B,star,1,0,,,,,,,,,,,,,,,,switch,number,numSwt,f,0.87,noRew,,,,,,0,62,0,62,0,1,,,,,,,,,,,,,,,,,
295192,2022-10-06_16h35.43.804,vts_reward_expectancy,2022.2.4,MacIntel,30.3030303,Safari,820,1180,,,,,0,513,,,,,,,,,,,,,,,,,167,D,triangle,1,0,,,,,,,,,,,,,,,,repeat,number,numRpt,f,2.254,noRew,,,,,,0,63,0,63,0,1,,,,,,,,,,,,,,,,,
295192,2022-10-06_16h35.43.804,vts_reward_expectancy,2022.2.4,MacIntel,30.3030303,Safari,820,1180,,,,,,,,,,,,,,,,,,,,,,,,,,,,,,,,,,,,,,,,,,,,,,,,,,,,,,,,,,,,,,,,,,,,,,,,,,,,
295192,2022-10-06_16h35.43.804,vts_reward_expectancy,2022.2.4,MacIntel,30.3030303,Safari,820,1180,,,,,0,513,,,,,,,,,,,,,,,,,139,H,star,1,0,,,,,,,,,,,,,,,,repeat,number,numRpt,d,2.288,Hi,,,,,,0,,,,,,space,12.005,low,0,0,0,0,1,,,,,,,,,
295192,2022-10-06_16h35.43.804,vts_reward_expectancy,2022.2.4,MacIntel,30.3030303,Safari,820,1180,,,,,10,523,,,,,,,,,,,,,,,,,174,W,circle,1,0,,,,,,,,,,,,,,,,repeat,number,numRpt,f,0.786,Lo,,,,,,0,,,,,,,,low,1,0,1,0,1,,,,,,,,,
295192,2022-10-06_16h35.43.804,vts_reward_expectancy,2022.2.4,MacIntel,30.3030303,Safari,820,1180,,,,,0,523,,,,,,,,,,,,,,,,,181,U,star,1,0,,,,,,,,,,,,,,,,switch,letter,lettSwt,k,1.087,Hi,,,,,,0,,,,,,,,low,2,0,2,0,1,,,,,,,,,
295192,2022-10-06_16h35.43.804,vts_reward_expectancy,2022.2.4,MacIntel,30.3030303,Safari,820,1180,,,,,1,524,,,,,,,,,,,,,,,,,132,D,circle,1,0,,,,,,,,,,,,,,,,repeat,letter,lettRpt,j,0.573,Lo,,,,,,0,,,,,,,,low,3,0,3,0,1,,,,,,,,,
295192,2022-10-06_16h35.43.804,vts_reward_expectancy,2022.2.4,MacIntel,30.3030303,Safari,820,1180,,,,,0,524,,,,,,,,,,,,,,,,,146,F,star,0,0,,,,,,,,,,,,,,,,switch,number,NA,f,1.675,Lo,,,,,,0,,,,,,,,low,4,0,4,0,1,,,,,,,,,
295192,2022-10-06_16h35.43.804,vts_reward_expectancy,2022.2.4,MacIntel,30.3030303,Safari,820,1180,,,,,0,524,,,,,,,,,,,,,,,,,167,B,circle,0,1,,,,,,,,,,,,,,,,repeat,number,NA,d,0.34,Lo,,,,,,0,,,,,,,,low,5,0,5,0,1,,,,,,,,,
295192,2022-10-06_16h35.43.804,vts_reward_expectancy,2022.2.4,MacIntel,30.3030303,Safari,820,1180,,,,,0,524,,,,,,,,,,,,,,,,,160,Y,star,0,1,,,,,,,,,,,,,,,,repeat,number,NA,d,0.652,Lo,,,,,,0,,,,,,,,low,6,0,6,0,1,,,,,,,,,
295192,2022-10-06_16h35.43.804,vts_reward_expectancy,2022.2.4,MacIntel,30.3030303,Safari,820,1180,,,,,1,525,,,,,,,,,,,,,,,,,125,S,circle,1,1,,,,,,,,,,,,,,,,repeat,number,numRpt,d,0.775,Lo,,,,,,0,,,,,,,,low,7,0,7,0,1,,,,,,,,,
295192,2022-10-06_16h35.43.804,vts_reward_expectancy,2022.2.4,MacIntel,30.3030303,Safari,820,1180,,,,,0,525,,,,,,,,,,,,,,,,,139,H,star,1,0,,,,,,,,,,,,,,,,repeat,number,numRpt,d,0.64,Hi,,,,,,0,,,,,,,,low,8,0,8,0,1,,,,,,,,,
295192,2022-10-06_16h35.43.804,vts_reward_expectancy,2022.2.4,MacIntel,30.3030303,Safari,820,1180,,,,,10,535,,,,,,,,,,,,,,,,,174,W,circle,1,0,,,,,,,,,,,,,,,,repeat,number,numRpt,f,0.608,Lo,,,,,,0,,,,,,,,low,9,0,9,0,1,,,,,,,,,
295192,2022-10-06_16h35.43.804,vts_reward_expectancy,2022.2.4,MacIntel,30.3030303,Safari,820,1180,,,,,10,545,,,,,,,,,,,,,,,,,181,U,star,1,0,,,,,,,,,,,,,,,,switch,letter,lettSwt,k,0.555,Hi,,,,,,0,,,,,,,,low,10,0,10,0,1,,,,,,,,,
295192,2022-10-06_16h35.43.804,vts_reward_expectancy,2022.2.4,MacIntel,30.3030303,Safari,820,1180,,,,,1,546,,,,,,,,,,,,,,,,,132,D,circle,1,0,,,,,,,,,,,,,,,,switch,number,numSwt,d,0.738,Lo,,,,,,0,,,,,,,,low,11,0,11,0,1,,,,,,,,,
295192,2022-10-06_16h35.43.804,vts_reward_expectancy,2022.2.4,MacIntel,30.3030303,Safari,820,1180,,,,,0,546,,,,,,,,,,,,,,,,,146,F,star,1,0,,,,,,,,,,,,,,,,switch,letter,lettSwt,j,0.908,Hi,,,,,,0,,,,,,,,low,12,0,12,0,1,,,,,,,,,
295192,2022-10-06_16h35.43.804,vts_reward_expectancy,2022.2.4,MacIntel,30.3030303,Safari,820,1180,,,,,1,547,,,,,,,,,,,,,,,,,167,B,circle,1,0,,,,,,,,,,,,,,,,repeat,letter,lettRpt,j,0.988,Lo,,,,,,0,,,,,,,,low,13,0,13,0,1,,,,,,,,,
295192,2022-10-06_16h35.43.804,vts_reward_expectancy,2022.2.4,MacIntel,30.3030303,Safari,820,1180,,,,,0,547,,,,,,,,,,,,,,,,,160,Y,star,0,0,,,,,,,,,,,,,,,,switch,number,NA,d,1.375,Lo,,,,,,0,,,,,,,,low,14,0,14,0,1,,,,,,,,,
295192,2022-10-06_16h35.43.804,vts_reward_expectancy,2022.2.4,MacIntel,30.3030303,Safari,820,1180,,,,,1,548,,,,,,,,,,,,,,,,,125,S,circle,1,1,,,,,,,,,,,,,,,,repeat,number,numRpt,d,1.835,Lo,,,,,,0,,,,,,,,low,15,0,15,0,1,,,,,,,,,
295192,2022-10-06_16h35.43.804,vts_reward_expectancy,2022.2.4,MacIntel,30.3030303,Safari,820,1180,,,,,10,558,,,,,,,,,,,,,,,,,132,W,circle,1,0,,,,,,,,,,,,,,,,repeat,number,numRpt,d,0.906,Lo,,,,,,0,,,,,,,,low,16,0,16,0,1,,,,,,,,,
295192,2022-10-06_16h35.43.804,vts_reward_expectancy,2022.2.4,MacIntel,30.3030303,Safari,820,1180,,,,,0,558,,,,,,,,,,,,,,,,,160,B,star,1,0,,,,,,,,,,,,,,,,switch,letter,lettSwt,j,1.355,Hi,,,,,,0,,,,,,,,low,17,0,17,0,1,,,,,,,,,
295192,2022-10-06_16h35.43.804,vts_reward_expectancy,2022.2.4,MacIntel,30.3030303,Safari,820,1180,,,,,10,568,,,,,,,,,,,,,,,,,146,D,circle,1,0,,,,,,,,,,,,,,,,repeat,letter,lettRpt,j,0.67,Lo,,,,,,0,,,,,,,,low,18,0,18,0,1,,,,,,,,,
295192,2022-10-06_16h35.43.804,vts_reward_expectancy,2022.2.4,MacIntel,30.3030303,Safari,820,1180,,,,,0,568,,,,,,,,,,,,,,,,,174,F,star,1,0,,,,,,,,,,,,,,,,repeat,letter,lettRpt,j,1.757,Hi,,,,,,0,,,,,,,,low,19,0,19,0,1,,,,,,,,,
295192,2022-10-06_16h35.43.804,vts_reward_expectancy,2022.2.4,MacIntel,30.3030303,Safari,820,1180,,,,,1,569,,,,,,,,,,,,,,,,,181,Y,circle,1,0,,,,,,,,,,,,,,,,repeat,letter,lettRpt,k,1.854,Lo,,,,,,0,,,,,,,,low,20,0,20,0,1,,,,,,,,,
295192,2022-10-06_16h35.43.804,vts_reward_expectancy,2022.2.4,MacIntel,30.3030303,Safari,820,1180,,,,,10,579,,,,,,,,,,,,,,,,,139,S,star,1,0,,,,,,,,,,,,,,,,repeat,letter,lettRpt,k,0.606,Hi,,,,,,0,,,,,,,,low,21,0,21,0,1,,,,,,,,,
295192,2022-10-06_16h35.43.804,vts_reward_expectancy,2022.2.4,MacIntel,30.3030303,Safari,820,1180,,,,,0,579,,,,,,,,,,,,,,,,,167,U,circle,0,0,,,,,,,,,,,,,,,,repeat,letter,NA,j,1.506,Hi,,,,,,0,,,,,,,,low,22,0,22,0,1,,,,,,,,,
295192,2022-10-06_16h35.43.804,vts_reward_expectancy,2022.2.4,MacIntel,30.3030303,Safari,820,1180,,,,,0,579,,,,,,,,,,,,,,,,,125,H,star,0,1,,,,,,,,,,,,,,,,switch,number,NA,f,1.089,Hi,,,,,,0,,,,,,,,low,23,0,23,0,1,,,,,,,,,
295192,2022-10-06_16h35.43.804,vts_reward_expectancy,2022.2.4,MacIntel,30.3030303,Safari,820,1180,,,,,0,579,,,,,,,,,,,,,,,,,139,W,circle,0,1,,,,,,,,,,,,,,,,repeat,number,NA,f,0,Hi,,,,,,0,,,,,,,,low,24,0,24,0,1,,,,,,,,,
295192,2022-10-06_16h35.43.804,vts_reward_expectancy,2022.2.4,MacIntel,30.3030303,Safari,820,1180,,,,,0,579,,,,,,,,,,,,,,,,,146,B,star,0,1,,,,,,,,,,,,,,,,switch,letter,NA,k,0.001,Hi,,,,,,0,,,,,,,,low,25,0,25,0,1,,,,,,,,,
295192,2022-10-06_16h35.43.804,vts_reward_expectancy,2022.2.4,MacIntel,30.3030303,Safari,820,1180,,,,,0,579,,,,,,,,,,,,,,,,,125,F,star,0,1,,,,,,,,,,,,,,,,repeat,letter,NA,k,0.873,Hi,,,,,,0,,,,,,,,low,26,0,26,0,1,,,,,,,,,
295192,2022-10-06_16h35.43.804,vts_reward_expectancy,2022.2.4,MacIntel,30.3030303,Safari,820,1180,,,,,0,579,,,,,,,,,,,,,,,,,132,H,circle,0,1,,,,,,,,,,,,,,,,repeat,letter,NA,k,0.755,Hi,,,,,,0,,,,,,,,low,27,0,27,0,1,,,,,,,,,
295192,2022-10-06_16h35.43.804,vts_reward_expectancy,2022.2.4,MacIntel,30.3030303,Safari,820,1180,,,,,10,589,,,,,,,,,,,,,,,,,174,Y,circle,1,1,,,,,,,,,,,,,,,,repeat,letter,lettRpt,k,0.373,Lo,,,,,,0,,,,,,,,low,28,0,28,0,1,,,,,,,,,
295192,2022-10-06_16h35.43.804,vts_reward_expectancy,2022.2.4,MacIntel,30.3030303,Safari,820,1180,,,,,0,589,,,,,,,,,,,,,,,,,160,D,star,0,0,,,,,,,,,,,,,,,,repeat,letter,NA,k,0.408,Lo,,,,,,0,,,,,,,,low,29,0,29,0,1,,,,,,,,,
295192,2022-10-06_16h35.43.804,vts_reward_expectancy,2022.2.4,MacIntel,30.3030303,Safari,820,1180,,,,,1,590,,,,,,,,,,,,,,,,,167,S,circle,1,1,,,,,,,,,,,,,,,,switch,number,numSwt,f,0.588,Lo,,,,,,0,,,,,,,,low,30,0,30,0,1,,,,,,,,,
295192,2022-10-06_16h35.43.804,vts_reward_expectancy,2022.2.4,MacIntel,30.3030303,Safari,820,1180,,,,,1,591,,,,,,,,,,,,,,,,,181,U,star,1,0,,,,,,,,,,,,,,,,repeat,number,numRpt,f,0.222,Hi,,,,,,0,,,,,,,,low,31,0,31,0,1,,,,,,,,,
295192,2022-10-06_16h35.43.804,vts_reward_expectancy,2022.2.4,MacIntel,30.3030303,Safari,820,1180,,,,,10,601,,,,,,,,,,,,,,,,,139,H,circle,1,0,,,,,,,,,,,,,,,,switch,letter,lettSwt,j,0.505,Lo,,,,,,1,,,,,,space,1.547,low,0,0,0,0,1,,,,,,,,,
295192,2022-10-06_16h35.43.804,vts_reward_expectancy,2022.2.4,MacIntel,30.3030303,Safari,820,1180,,,,,0,601,,,,,,,,,,,,,,,,,132,D,star,0,0,,,,,,,,,,,,,,,,repeat,letter,NA,k,0.855,Lo,,,,,,1,,,,,,,,low,1,0,1,0,1,,,,,,,,,
295192,2022-10-06_16h35.43.804,vts_reward_expectancy,2022.2.4,MacIntel,30.3030303,Safari,820,1180,,,,,0,601,,,,,,,,,,,,,,,,,125,B,circle,0,1,,,,,,,,,,,,,,,,switch,number,NA,f,0.64,Lo,,,,,,1,,,,,,,,low,2,0,2,0,1,,,,,,,,,
295192,2022-10-06_16h35.43.804,vts_reward_expectancy,2022.2.4,MacIntel,30.3030303,Safari,820,1180,,,,,0,601,,,,,,,,,,,,,,,,,174,S,star,0,1,,,,,,,,,,,,,,,,repeat,number,NA,d,0.105,Lo,,,,,,1,,,,,,,,low,3,0,3,0,1,,,,,,,,,
295192,2022-10-06_16h35.43.804,vts_reward_expectancy,2022.2.4,MacIntel,30.3030303,Safari,820,1180,,,,,10,611,,,,,,,,,,,,,,,,,181,U,star,1,1,,,,,,,,,,,,,,,,switch,letter,lettSwt,k,0.298,Hi,,,,,,1,,,,,,,,low,4,0,4,0,1,,,,,,,,,
295192,2022-10-06_16h35.43.804,vts_reward_expectancy,2022.2.4,MacIntel,30.3030303,Safari,820,1180,,,,,0,611,,,,,,,,,,,,,,,,,146,F,circle,0,0,,,,,,,,,,,,,,,,repeat,letter,NA,k,0.755,Hi,,,,,,1,,,,,,,,low,5,0,5,0,1,,,,,,,,,
295192,2022-10-06_16h35.43.804,vts_reward_expectancy,2022.2.4,MacIntel,30.3030303,Safari,820,1180,,,,,1,612,,,,,,,,,,,,,,,,,167,Y,circle,1,1,,,,,,,,,,,,,,,,repeat,letter,lettRpt,k,0.48,Lo,,,,,,1,,,,,,,,low,6,0,6,0,1,,,,,,,,,
295192,2022-10-06_16h35.43.804,vts_reward_expectancy,2022.2.4,MacIntel,30.3030303,Safari,820,1180,,,,,0,612,,,,,,,,,,,,,,,,,160,W,star,0,0,,,,,,,,,,,,,,,,repeat,letter,NA,j,1.422,Lo,,,,,,1,,,,,,,,low,7,0,7,0,1,,,,,,,,,
295192,2022-10-06_16h35.43.804,vts_reward_expectancy,2022.2.4,MacIntel,30.3030303,Safari,820,1180,,,,,0,612,,,,,,,,,,,,,,,,,139,H,circle,0,1,,,,,,,,,,,,,,,,switch,number,NA,f,0.255,Lo,,,,,,1,,,,,,,,low,8,0,8,0,1,,,,,,,,,
295192,2022-10-06_16h35.43.804,vts_reward_expectancy,2022.2.4,MacIntel,30.3030303,Safari,820,1180,,,,,0,612,,,,,,,,,,,,,,,,,132,D,star,0,1,,,,,,,,,,,,,,,,repeat,number,NA,f,0.254,Lo,,,,,,1,,,,,,,,low,9,0,9,0,1,,,,,,,,,
295192,2022-10-06_16h35.43.804,vts_reward_expectancy,2022.2.4,MacIntel,30.3030303,Safari,820,1180,,,,,0,612,,,,,,,,,,,,,,,,,125,B,star,1,1,,,,,,,,,,,,,,,,switch,letter,lettSwt,j,0.906,Hi,,,,,,1,,,,,,,,low,10,0,10,0,1,,,,,,,,,
295192,2022-10-06_16h35.43.804,vts_reward_expectancy,2022.2.4,MacIntel,30.3030303,Safari,820,1180,,,,,10,622,,,,,,,,,,,,,,,,,174,S,circle,1,0,,,,,,,,,,,,,,,,switch,number,numSwt,f,0.003,Lo,,,,,,1,,,,,,,,low,11,0,11,0,1,,,,,,,,,
295192,2022-10-06_16h35.43.804,vts_reward_expectancy,2022.2.4,MacIntel,30.3030303,Safari,820,1180,,,,,10,632,,,,,,,,,,,,,,,,,181,U,star,1,0,,,,,,,,,,,,,,,,switch,letter,lettSwt,k,0.213,Hi,,,,,,1,,,,,,,,low,12,0,12,0,1,,,,,,,,,
295192,2022-10-06_16h35.43.804,vts_reward_expectancy,2022.2.4,MacIntel,30.3030303,Safari,820,1180,,,,,0,632,,,,,,,,,,,,,,,,,146,F,circle,0,0,,,,,,,,,,,,,,,,switch,number,NA,f,0.105,Hi,,,,,,1,,,,,,,,low,13,0,13,0,1,,,,,,,,,
295192,2022-10-06_16h35.43.804,vts_reward_expectancy,2022.2.4,MacIntel,30.3030303,Safari,820,1180,,,,,1,633,,,,,,,,,,,,,,,,,167,Y,star,1,1,,,,,,,,,,,,,,,,switch,letter,lettSwt,k,0.506,Hi,,,,,,1,,,,,,,,low,14,0,14,0,1,,,,,,,,,
295192,2022-10-06_16h35.43.804,vts_reward_expectancy,2022.2.4,MacIntel,30.3030303,Safari,820,1180,,,,,10,643,,,,,,,,,,,,,,,,,160,W,circle,1,0,,,,,,,,,,,,,,,,switch,number,numSwt,f,0.151,Lo,,,,,,1,,,,,,,,low,15,0,15,0,1,,,,,,,,,
295192,2022-10-06_16h35.43.804,vts_reward_expectancy,2022.2.4,MacIntel,30.3030303,Safari,820,1180,,,,,0,643,,,,,,,,,,,,,,,,,174,Y,circle,0,0,,,,,,,,,,,,,,,,repeat,number,NA,d,0.388,Lo,,,,,,1,,,,,,,,low,16,0,16,0,1,,,,,,,,,
295192,2022-10-06_16h35.43.804,vts_reward_expectancy,2022.2.4,MacIntel,30.3030303,Safari,820,1180,,,,,0,643,,,,,,,,,,,,,,,,,132,F,star,0,1,,,,,,,,,,,,,,,,repeat,number,NA,f,0.456,Lo,,,,,,1,,,,,,,,low,17,0,17,0,1,,,,,,,,,
295192,2022-10-06_16h35.43.804,vts_reward_expectancy,2022.2.4,MacIntel,30.3030303,Safari,820,1180,,,,,0,643,,,,,,,,,,,,,,,,,181,H,circle,0,1,,,,,,,,,,,,,,,,switch,letter,NA,k,0.307,Lo,,,,,,1,,,,,,,,low,18,0,18,0,1,,,,,,,,,
295192,2022-10-06_16h35.43.804,vts_reward_expectancy,2022.2.4,MacIntel,30.3030303,Safari,820,1180,,,,,10,653,,,,,,,,,,,,,,,,,167,S,star,1,1,,,,,,,,,,,,,,,,repeat,letter,lettRpt,k,0.072,Hi,,,,,,1,,,,,,,,low,19,0,19,0,1,,,,,,,,,
295192,2022-10-06_16h35.43.804,vts_reward_expectancy,2022.2.4,MacIntel,30.3030303,Safari,820,1180,,,,,1,654,,,,,,,,,,,,,,,,,125,W,circle,1,0,,,,,,,,,,,,,,,,switch,number,numSwt,d,0.231,Lo,,,,,,1,,,,,,,,low,20,0,20,0,1,,,,,,,,,
295192,2022-10-06_16h35.43.804,vts_reward_expectancy,2022.2.4,MacIntel,30.3030303,Safari,820,1180,,,,,10,664,,,,,,,,,,,,,,,,,146,D,star,1,0,,,,,,,,,,,,,,,,repeat,number,numRpt,d,0.105,Hi,,,,,,1,,,,,,,,low,21,0,21,0,1,,,,,,,,,
295192,2022-10-06_16h35.43.804,vts_reward_expectancy,2022.2.4,MacIntel,30.3030303,Safari,820,1180,,,,,1,665,,,,,,,,,,,,,,,,,139,B,circle,1,0,,,,,,,,,,,,,,,,switch,letter,lettSwt,j,1.453,Lo,,,,,,1,,,,,,,,low,22,0,22,0,1,,,,,,,,,
295192,2022-10-06_16h35.43.804,vts_reward_expectancy,2022.2.4,MacIntel,30.3030303,Safari,820,1180,,,,,0,665,,,,,,,,,,,,,,,,,160,U,star,1,0,,,,,,,,,,,,,,,,switch,number,numSwt,f,0.907,Hi,,,,,,1,,,,,,,,low,23,0,23,0,1,,,,,,,,,
295192,2022-10-06_16h35.43.804,vts_reward_expectancy,2022.2.4,MacIntel,30.3030303,Safari,820,1180,,,,,1,666,,,,,,,,,,,,,,,,,160,B,star,1,0,,,,,,,,,,,,,,,,repeat,number,numRpt,f,0.641,Hi,,,,,,1,,,,,,,,low,24,0,24,0,1,,,,,,,,,
295192,2022-10-06_16h35.43.804,vts_reward_expectancy,2022.2.4,MacIntel,30.3030303,Safari,820,1180,,,,,10,676,,,,,,,,,,,,,,,,,167,Y,circle,1,0,,,,,,,,,,,,,,,,repeat,number,numRpt,f,0.687,Lo,,,,,,1,,,,,,,,low,25,0,25,0,1,,,,,,,,,
295192,2022-10-06_16h35.43.804,vts_reward_expectancy,2022.2.4,MacIntel,30.3030303,Safari,820,1180,,,,,0,676,,,,,,,,,,,,,,,,,146,H,star,0,0,,,,,,,,,,,,,,,,repeat,number,NA,f,0.605,Lo,,,,,,1,,,,,,,,low,26,0,26,0,1,,,,,,,,,
295192,2022-10-06_16h35.43.804,vts_reward_expectancy,2022.2.4,MacIntel,30.3030303,Safari,820,1180,,,,,10,686,,,,,,,,,,,,,,,,,139,S,circle,1,1,,,,,,,,,,,,,,,,switch,letter,lettSwt,k,0.487,Lo,,,,,,1,,,,,,,,low,27,0,27,0,1,,,,,,,,,
295192,2022-10-06_16h35.43.804,vts_reward_expectancy,2022.2.4,MacIntel,30.3030303,Safari,820,1180,,,,,1,687,,,,,,,,,,,,,,,,,174,U,circle,1,0,,,,,,,,,,,,,,,,switch,number,numSwt,f,0.773,Lo,,,,,,1,,,,,,,,low,28,0,28,0,1,,,,,,,,,
295192,2022-10-06_16h35.43.804,vts_reward_expectancy,2022.2.4,MacIntel,30.3030303,Safari,820,1180,,,,,0,687,,,,,,,,,,,,,,,,,132,F,star,0,0,,,,,,,,,,,,,,,,switch,letter,NA,k,0.341,Lo,,,,,,1,,,,,,,,low,29,0,29,0,1,,,,,,,,,
295192,2022-10-06_16h35.43.804,vts_reward_expectancy,2022.2.4,MacIntel,30.3030303,Safari,820,1180,,,,,0,687,,,,,,,,,,,,,,,,,125,D,star,1,1,,,,,,,,,,,,,,,,repeat,letter,lettRpt,j,0.674,Hi,,,,,,1,,,,,,,,low,30,0,30,0,1,,,,,,,,,
295192,2022-10-06_16h35.43.804,vts_reward_expectancy,2022.2.4,MacIntel,30.3030303,Safari,820,1180,,,,,0,687,,,,,,,,,,,,,,,,,181,W,circle,0,0,,,,,,,,,,,,,,,,repeat,letter,NA,j,0.655,Hi,,,,,,1,,,,,,,,low,31,0,31,0,1,,,,,,,,,
295192,2022-10-06_16h35.43.804,vts_reward_expectancy,2022.2.4,MacIntel,30.3030303,Safari,820,1180,,,,,0,687,,,,,,,,,,,,,,,,,174,U,triangle,-1,1,,,,,,,,,,,,,,,,switch,no_choice,NA,,,Hi,,,,,,2,,,,,,space,1.638,high,0,0,0,0,1,,,,,,,,,
295192,2022-10-06_16h35.43.804,vts_reward_expectancy,2022.2.4,MacIntel,30.3030303,Safari,820,1180,,,,,0,687,,,,,,,,,,,,,,,,,167,B,hexagon,-1,0,,,,,,,,,,,,,,,,repeat,no_choice,NA,,,Hi,,,,,,2,,,,,,,,high,1,0,1,0,1,,,,,,,,,
295192,2022-10-06_16h35.43.804,vts_reward_expectancy,2022.2.4,MacIntel,30.3030303,Safari,820,1180,,,,,0,687,,,,,,,,,,,,,,,,,132,H,triangle,-1,0,,,,,,,,,,,,,,,,repeat,no_choice,NA,,,Hi,,,,,,2,,,,,,,,high,2,0,2,0,1,,,,,,,,,
295192,2022-10-06_16h35.43.804,vts_reward_expectancy,2022.2.4,MacIntel,30.3030303,Safari,820,1180,,,,,0,687,,,,,,,,,,,,,,,,,146,D,hexagon,-1,0,,,,,,,,,,,,,,,,repeat,no_choice,NA,,,Hi,,,,,,2,,,,,,,,high,3,0,3,0,1,,,,,,,,,
295192,2022-10-06_16h35.43.804,vts_reward_expectancy,2022.2.4,MacIntel,30.3030303,Safari,820,1180,,,,,0,687,,,,,,,,,,,,,,,,,125,F,hexagon,-1,0,,,,,,,,,,,,,,,,repeat,no_choice,NA,,,Hi,,,,,,2,,,,,,,,high,4,0,4,0,1,,,,,,,,,
295192,2022-10-06_16h35.43.804,vts_reward_expectancy,2022.2.4,MacIntel,30.3030303,Safari,820,1180,,,,,0,687,,,,,,,,,,,,,,,,,181,S,triangle,-1,0,,,,,,,,,,,,,,,,repeat,no_choice,NA,,,Hi,,,,,,2,,,,,,,,high,5,0,5,0,1,,,,,,,,,
295192,2022-10-06_16h35.43.804,vts_reward_expectancy,2022.2.4,MacIntel,30.3030303,Safari,820,1180,,,,,0,687,,,,,,,,,,,,,,,,,160,W,hexagon,-1,0,,,,,,,,,,,,,,,,repeat,no_choice,NA,,,Hi,,,,,,2,,,,,,,,high,6,0,6,0,1,,,,,,,,,
295192,2022-10-06_16h35.43.804,vts_reward_expectancy,2022.2.4,MacIntel,30.3030303,Safari,820,1180,,,,,0,687,,,,,,,,,,,,,,,,,139,Y,triangle,-1,0,,,,,,,,,,,,,,,,repeat,no_choice,NA,,,Hi,,,,,,2,,,,,,,,high,7,0,7,0,1,,,,,,,,,
295192,2022-10-06_16h35.43.804,vts_reward_expectancy,2022.2.4,MacIntel,30.3030303,Safari,820,1180,,,,,0,687,,,,,,,,,,,,,,,,,174,U,hexagon,-1,0,,,,,,,,,,,,,,,,repeat,no_choice,NA,,,Hi,,,,,,2,,,,,,,,high,8,0,8,0,1,,,,,,,,,
295192,2022-10-06_16h35.43.804,vts_reward_expectancy,2022.2.4,MacIntel,30.3030303,Safari,820,1180,,,,,0,687,,,,,,,,,,,,,,,,,167,B,triangle,-1,0,,,,,,,,,,,,,,,,repeat,no_choice,NA,,,Hi,,,,,,2,,,,,,,,high,9,0,9,0,1,,,,,,,,,
295192,2022-10-06_16h35.43.804,vts_reward_expectancy,2022.2.4,MacIntel,30.3030303,Safari,820,1180,,,,,0,687,,,,,,,,,,,,,,,,,132,H,triangle,-1,0,,,,,,,,,,,,,,,,repeat,no_choice,NA,,,Hi,,,,,,2,,,,,,,,high,10,0,10,0,1,,,,,,,,,
295192,2022-10-06_16h35.43.804,vts_reward_expectancy,2022.2.4,MacIntel,30.3030303,Safari,820,1180,,,,,0,687,,,,,,,,,,,,,,,,,146,D,hexagon,-1,0,,,,,,,,,,,,,,,,repeat,no_choice,NA,,,Hi,,,,,,2,,,,,,,,high,11,0,11,0,1,,,,,,,,,
295192,2022-10-06_16h35.43.804,vts_reward_expectancy,2022.2.4,MacIntel,30.3030303,Safari,820,1180,,,,,0,687,,,,,,,,,,,,,,,,,125,F,hexagon,-1,0,,,,,,,,,,,,,,,,repeat,no_choice,NA,,,Hi,,,,,,2,,,,,,,,high,12,0,12,0,1,,,,,,,,,
295192,2022-10-06_16h35.43.804,vts_reward_expectancy,2022.2.4,MacIntel,30.3030303,Safari,820,1180,,,,,0,687,,,,,,,,,,,,,,,,,181,S,triangle,-1,0,,,,,,,,,,,,,,,,repeat,no_choice,NA,,,Hi,,,,,,2,,,,,,,,high,13,0,13,0,1,,,,,,,,,
295192,2022-10-06_16h35.43.804,vts_reward_expectancy,2022.2.4,MacIntel,30.3030303,Safari,820,1180,,,,,0,687,,,,,,,,,,,,,,,,,160,W,triangle,-1,0,,,,,,,,,,,,,,,,repeat,no_choice,NA,,,Hi,,,,,,2,,,,,,,,high,14,0,14,0,1,,,,,,,,,
295192,2022-10-06_16h35.43.804,vts_reward_expectancy,2022.2.4,MacIntel,30.3030303,Safari,820,1180,,,,,0,687,,,,,,,,,,,,,,,,,139,Y,hexagon,-1,0,,,,,,,,,,,,,,,,repeat,no_choice,NA,,,Hi,,,,,,2,,,,,,,,high,15,0,15,0,1,,,,,,,,,
295192,2022-10-06_16h35.43.804,vts_reward_expectancy,2022.2.4,MacIntel,30.3030303,Safari,820,1180,,,,,0,687,,,,,,,,,,,,,,,,,174,H,triangle,-1,0,,,,,,,,,,,,,,,,repeat,no_choice,NA,,,Hi,,,,,,2,,,,,,,,high,16,0,16,0,1,,,,,,,,,
295192,2022-10-06_16h35.43.804,vts_reward_expectancy,2022.2.4,MacIntel,30.3030303,Safari,820,1180,,,,,0,687,,,,,,,,,,,,,,,,,139,B,hexagon,-1,0,,,,,,,,,,,,,,,,repeat,no_choice,NA,,,Hi,,,,,,2,,,,,,,,high,17,0,17,0,1,,,,,,,,,
295192,2022-10-06_16h35.43.804,vts_reward_expectancy,2022.2.4,MacIntel,30.3030303,Safari,820,1180,,,,,0,687,,,,,,,,,,,,,,,,,167,W,hexagon,-1,0,,,,,,,,,,,,,,,,repeat,no_choice,NA,,,Hi,,,,,,2,,,,,,,,high,18,0,18,0,1,,,,,,,,,
295192,2022-10-06_16h35.43.804,vts_reward_expectancy,2022.2.4,MacIntel,30.3030303,Safari,820,1180,,,,,0,687,,,,,,,,,,,,,,,,,146,U,triangle,-1,0,,,,,,,,,,,,,,,,repeat,no_choice,NA,,,Hi,,,,,,2,,,,,,,,high,19,0,19,0,1,,,,,,,,,
295192,2022-10-06_16h35.43.804,vts_reward_expectancy,2022.2.4,MacIntel,30.3030303,Safari,820,1180,,,,,0,687,,,,,,,,,,,,,,,,,181,D,hexagon,0,0,,,,,,,,,,,,,,,,switch,letter,NA,k,0.431,Hi,,,,,,2,,,,,,,,high,20,0,20,0,1,,,,,,,,,
295192,2022-10-06_16h35.43.804,vts_reward_expectancy,2022.2.4,MacIntel,30.3030303,Safari,820,1180,,,,,0,687,,,,,,,,,,,,,,,,,160,Y,triangle,0,1,,,,,,,,,,,,,,,,repeat,letter,NA,j,0.352,Hi,,,,,,2,,,,,,,,high,21,0,21,0,1,,,,,,,,,
295192,2022-10-06_16h35.43.804,vts_reward_expectancy,2022.2.4,MacIntel,30.3030303,Safari,820,1180,,,,,0,687,,,,,,,,,,,,,,,,,132,S,hexagon,-1,1,,,,,,,,,,,,,,,,switch,no_choice,NA,,,Hi,,,,,,2,,,,,,,,high,22,0,22,0,1,,,,,,,,,
295192,2022-10-06_16h35.43.804,vts_reward_expectancy,2022.2.4,MacIntel,30.3030303,Safari,820,1180,,,,,0,687,,,,,,,,,,,,,,,,,125,F,triangle,-1,0,,,,,,,,,,,,,,,,repeat,no_choice,NA,,,Hi,,,,,,2,,,,,,,,high,23,0,23,0,1,,,,,,,,,
295192,2022-10-06_16h35.43.804,vts_reward_expectancy,2022.2.4,MacIntel,30.3030303,Safari,820,1180,,,,,0,687,,,,,,,,,,,,,,,,,160,H,triangle,0,0,,,,,,,,,,,,,,,,switch,letter,NA,k,0.537,Hi,,,,,,2,,,,,,,,high,24,0,24,0,1,,,,,,,,,
295192,2022-10-06_16h35.43.804,vts_reward_expectancy,2022.2.4,MacIntel,30.3030303,Safari,820,1180,,,,,0,687,,,,,,,,,,,,,,,,,167,S,hexagon,-1,1,,,,,,,,,,,,,,,,switch,no_choice,NA,,,Hi,,,,,,2,,,,,,,,high,25,0,25,0,1,,,,,,,,,
295192,2022-10-06_16h35.43.804,vts_reward_expectancy,2022.2.4,MacIntel,30.3030303,Safari,820,1180,,,,,0,687,,,,,,,,,,,,,,,,,139,Y,triangle,-1,0,,,,,,,,,,,,,,,,repeat,no_choice,NA,,,Hi,,,,,,2,,,,,,,,high,26,0,26,0,1,,,,,,,,,
295192,2022-10-06_16h35.43.804,vts_reward_expectancy,2022.2.4,MacIntel,30.3030303,Safari,820,1180,,,,,0,687,,,,,,,,,,,,,,,,,132,F,hexagon,0,0,,,,,,,,,,,,,,,,switch,letter,NA,k,0.353,Hi,,,,,,2,,,,,,,,high,27,0,27,0,1,,,,,,,,,
295192,2022-10-06_16h35.43.804,vts_reward_expectancy,2022.2.4,MacIntel,30.3030303,Safari,820,1180,,,,,0,687,,,,,,,,,,,,,,,,,174,W,hexagon,0,1,,,,,,,,,,,,,,,,repeat,letter,NA,j,0.034,Hi,,,,,,2,,,,,,,,high,28,0,28,0,1,,,,,,,,,
295192,2022-10-06_16h35.43.804,vts_reward_expectancy,2022.2.4,MacIntel,30.3030303,Safari,820,1180,,,,,0,687,,,,,,,,,,,,,,,,,125,U,triangle,-1,1,,,,,,,,,,,,,,,,switch,no_choice,NA,,,Hi,,,,,,2,,,,,,,,high,29,0,29,0,1,,,,,,,,,
295192,2022-10-06_16h35.43.804,vts_reward_expectancy,2022.2.4,MacIntel,30.3030303,Safari,820,1180,,,,,0,687,,,,,,,,,,,,,,,,,181,B,hexagon,-1,0,,,,,,,,,,,,,,,,repeat,no_choice,NA,,,Hi,,,,,,2,,,,,,,,high,30,0,30,0,1,,,,,,,,,
295192,2022-10-06_16h35.43.804,vts_reward_expectancy,2022.2.4,MacIntel,30.3030303,Safari,820,1180,,,,,0,687,,,,,,,,,,,,,,,,,146,D,triangle,0,0,,,,,,,,,,,,,,,,switch,letter,NA,k,0.018,Hi,,,,,,2,,,,,,,,high,31,0,31,0,1,,,,,,,,,
295192,2022-10-06_16h35.43.804,vts_reward_expectancy,2022.2.4,MacIntel,30.3030303,Safari,820,1180,,,,,0,687,,,,,,,,,,,,,,,,,146,B,hexagon,0,1,,,,,,,,,,,,,,,,repeat,letter,NA,k,0.31,Hi,,,,,,3,,,,,,space,0.569,high,0,0,0,0,1,,,,,,,,,
295192,2022-10-06_16h35.43.804,vts_reward_expectancy,2022.2.4,MacIntel,30.3030303,Safari,820,1180,,,,,0,687,,,,,,,,,,,,,,,,,174,H,triangle,0,1,,,,,,,,,,,,,,,,repeat,letter,NA,k,0.239,Hi,,,,,,3,,,,,,,,high,1,0,1,0,1,,,,,,,,,
295192,2022-10-06_16h35.43.804,vts_reward_expectancy,2022.2.4,MacIntel,30.3030303,Safari,820,1180,,,,,10,697,,,,,,,,,,,,,,,,,139,Y,hexagon,1,1,,,,,,,,,,,,,,,,repeat,letter,lettRpt,k,0.136,Lo,,,,,,3,,,,,,,,high,2,0,2,0,1,,,,,,,,,
295192,2022-10-06_16h35.43.804,vts_reward_expectancy,2022.2.4,MacIntel,30.3030303,Safari,820,1180,,,,,1,698,,,,,,,,,,,,,,,,,181,S,triangle,1,0,,,,,,,,,,,,,,,,repeat,letter,lettRpt,k,0.02,Hi,,,,,,3,,,,,,,,high,3,0,3,0,1,,,,,,,,,
295192,2022-10-06_16h35.43.804,vts_reward_expectancy,2022.2.4,MacIntel,30.3030303,Safari,820,1180,,,,,1,699,,,,,,,,,,,,,,,,,160,U,hexagon,1,0,,,,,,,,,,,,,,,,repeat,letter,lettRpt,k,0.287,Lo,,,,,,3,,,,,,,,high,4,0,4,0,1,,,,,,,,,
295192,2022-10-06_16h35.43.804,vts_reward_expectancy,2022.2.4,MacIntel,30.3030303,Safari,820,1180,,,,,0,699,,,,,,,,,,,,,,,,,167,F,triangle,0,0,,,,,,,,,,,,,,,,repeat,letter,NA,k,0.225,Lo,,,,,,3,,,,,,,,high,5,0,5,0,1,,,,,,,,,
295192,2022-10-06_16h35.43.804,vts_reward_expectancy,2022.2.4,MacIntel,30.3030303,Safari,820,1180,,,,,0,699,,,,,,,,,,,,,,,,,125,D,hexagon,0,1,,,,,,,,,,,,,,,,repeat,letter,NA,k,0.002,Lo,,,,,,3,,,,,,,,high,6,0,6,0,1,,,,,,,,,
295192,2022-10-06_16h35.43.804,vts_reward_expectancy,2022.2.4,MacIntel,30.3030303,Safari,820,1180,,,,,0,699,,,,,,,,,,,,,,,,,132,W,triangle,0,1,,,,,,,,,,,,,,,,repeat,letter,NA,j,0.405,Lo,,,,,,3,,,,,,,,high,7,0,7,0,1,,,,,,,,,
295192,2022-10-06_16h35.43.804,vts_reward_expectancy,2022.2.4,MacIntel,30.3030303,Safari,820,1180,,,,,1,700,,,,,,,,,,,,,,,,,146,B,triangle,1,1,,,,,,,,,,,,,,,,repeat,letter,lettRpt,j,0.072,Hi,,,,,,3,,,,,,,,high,8,0,8,0,1,,,,,,,,,
295192,2022-10-06_16h35.43.804,vts_reward_expectancy,2022.2.4,MacIntel,30.3030303,Safari,820,1180,,,,,1,701,,,,,,,,,,,,,,,,,174,H,hexagon,1,0,,,,,,,,,,,,,,,,repeat,letter,lettRpt,j,0.238,Lo,,,,,,3,,,,,,,,high,9,0,9,0,1,,,,,,,,,
295192,2022-10-06_16h35.43.804,vts_reward_expectancy,2022.2.4,MacIntel,30.3030303,Safari,820,1180,,,,,0,701,,,,,,,,,,,,,,,,,139,Y,triangle,0,0,,,,,,,,,,,,,,,,repeat,letter,NA,j,0.807,Lo,,,,,,3,,,,,,,,high,10,0,10,0,1,,,,,,,,,
295192,2022-10-06_16h35.43.804,vts_reward_expectancy,2022.2.4,MacIntel,30.3030303,Safari,820,1180,,,,,0,701,,,,,,,,,,,,,,,,,181,S,hexagon,0,1,,,,,,,,,,,,,,,,repeat,letter,NA,j,0.041,Lo,,,,,,3,,,,,,,,high,11,0,11,0,1,,,,,,,,,
295192,2022-10-06_16h35.43.804,vts_reward_expectancy,2022.2.4,MacIntel,30.3030303,Safari,820,1180,,,,,0,701,,,,,,,,,,,,,,,,,160,U,hexagon,0,1,,,,,,,,,,,,,,,,repeat,letter,NA,j,2.021,Lo,,,,,,3,,,,,,,,high,12,0,12,0,1,,,,,,,,,
295192,2022-10-06_16h35.43.804,vts_reward_expectancy,2022.2.4,MacIntel,30.3030303,Safari,820,1180,,,,,10,711,,,,,,,,,,,,,,,,,167,F,triangle,1,1,,,,,,,,,,,,,,,,repeat,letter,lettRpt,j,0.307,Hi,,,,,,3,,,,,,,,high,13,0,13,0,1,,,,,,,,,
295192,2022-10-06_16h35.43.804,vts_reward_expectancy,2022.2.4,MacIntel,30.3030303,Safari,820,1180,,,,,1,712,,,,,,,,,,,,,,,,,125,D,hexagon,1,0,,,,,,,,,,,,,,,,repeat,letter,lettRpt,j,0.475,Lo,,,,,,3,,,,,,,,high,14,0,14,0,1,,,,,,,,,
295192,2022-10-06_16h35.43.804,vts_reward_expectancy,2022.2.4,MacIntel,30.3030303,Safari,820,1180,,,,,0,712,,,,,,,,,,,,,,,,,132,W,triangle,0,0,,,,,,,,,,,,,,,,repeat,letter,NA,j,0.474,Lo,,,,,,3,,,,,,,,high,15,0,15,0,1,,,,,,,,,
295192,2022-10-06_16h35.43.804,vts_reward_expectancy,2022.2.4,MacIntel,30.3030303,Safari,820,1180,,,,,0,712,,,,,,,,,,,,,,,,,125,S,triangle,0,1,,,,,,,,,,,,,,,,repeat,letter,NA,j,0.371,Lo,,,,,,3,,,,,,,,high,16,0,16,0,1,,,,,,,,,
295192,2022-10-06_16h35.43.804,vts_reward_expectancy,2022.2.4,MacIntel,30.3030303,Safari,820,1180,,,,,0,712,,,,,,,,,,,,,,,,,167,U,hexagon,0,1,,,,,,,,,,,,,,,,repeat,letter,NA,j,0.688,Lo,,,,,,3,,,,,,,,high,17,0,17,0,1,,,,,,,,,
295192,2022-10-06_16h35.43.804,vts_reward_expectancy,2022.2.4,MacIntel,30.3030303,Safari,820,1180,,,,,1,713,,,,,,,,,,,,,,,,,181,D,hexagon,1,1,,,,,,,,,,,,,,,,repeat,letter,lettRpt,j,0.554,Lo,,,,,,3,,,,,,,,high,18,0,18,0,1,,,,,,,,,
295192,2022-10-06_16h35.43.804,vts_reward_expectancy,2022.2.4,MacIntel,30.3030303,Safari,820,1180,,,,,10,723,,,,,,,,,,,,,,,,,174,F,triangle,1,0,,,,,,,,,,,,,,,,repeat,letter,lettRpt,j,0.303,Hi,,,,,,3,,,,,,,,high,19,0,19,0,1,,,,,,,,,
295192,2022-10-06_16h35.43.804,vts_reward_expectancy,2022.2.4,MacIntel,30.3030303,Safari,820,1180,,,,,0,723,,,,,,,,,,,,,,,,,139,H,triangle,0,0,,,,,,,,,,,,,,,,repeat,letter,NA,k,0.538,Hi,,,,,,3,,,,,,,,high,20,0,20,0,1,,,,,,,,,
295192,2022-10-06_16h35.43.804,vts_reward_expectancy,2022.2.4,MacIntel,30.3030303,Safari,820,1180,,,,,1,724,,,,,,,,,,,,,,,,,146,W,hexagon,1,1,,,,,,,,,,,,,,,,repeat,letter,lettRpt,k,0.453,Lo,,,,,,3,,,,,,,,high,21,0,21,0,1,,,,,,,,,
295192,2022-10-06_16h35.43.804,vts_reward_expectancy,2022.2.4,MacIntel,30.3030303,Safari,820,1180,,,,,0,724,,,,,,,,,,,,,,,,,160,B,hexagon,0,0,,,,,,,,,,,,,,,,repeat,letter,NA,k,0.088,Lo,,,,,,3,,,,,,,,high,22,0,22,0,1,,,,,,,,,
295192,2022-10-06_16h35.43.804,vts_reward_expectancy,2022.2.4,MacIntel,30.3030303,Safari,820,1180,,,,,10,734,,,,,,,,,,,,,,,,,132,Y,triangle,1,1,,,,,,,,,,,,,,,,repeat,letter,lettRpt,k,0.521,Hi,,,,,,3,,,,,,,,high,23,0,23,0,1,,,,,,,,,
295192,2022-10-06_16h35.43.804,vts_reward_expectancy,2022.2.4,MacIntel,30.3030303,Safari,820,1180,,,,,0,734,,,,,,,,,,,,,,,,,181,B,hexagon,0,0,,,,,,,,,,,,,,,,repeat,letter,NA,k,1.106,Hi,,,,,,3,,,,,,,,high,24,0,24,0,1,,,,,,,,,
295192,2022-10-06_16h35.43.804,vts_reward_expectancy,2022.2.4,MacIntel,30.3030303,Safari,820,1180,,,,,0,734,,,,,,,,,,,,,,,,,160,D,triangle,0,1,,,,,,,,,,,,,,,,repeat,letter,NA,k,2.573,Hi,,,,,,3,,,,,,,,high,25,0,25,0,1,,,,,,,,,
295192,2022-10-06_16h35.43.804,vts_reward_expectancy,2022.2.4,MacIntel,30.3030303,Safari,820,1180,,,,,0,734,,,,,,,,,,,,,,,,,125,H,triangle,0,1,,,,,,,,,,,,,,,,repeat,letter,NA,k,0.521,Hi,,,,,,3,,,,,,,,high,26,0,26,0,1,,,,,,,,,
295192,2022-10-06_16h35.43.804,vts_reward_expectancy,2022.2.4,MacIntel,30.3030303,Safari,820,1180,,,,,1,735,,,,,,,,,,,,,,,,,146,U,hexagon,1,1,,,,,,,,,,,,,,,,repeat,letter,lettRpt,k,0.543,Lo,,,,,,3,,,,,,,,high,27,0,27,0,1,,,,,,,,,
295192,2022-10-06_16h35.43.804,vts_reward_expectancy,2022.2.4,MacIntel,30.3030303,Safari,820,1180,,,,,0,735,,,,,,,,,,,,,,,,,174,F,hexagon,0,0,,,,,,,,,,,,,,,,repeat,letter,NA,k,0.471,Lo,,,,,,3,,,,,,,,high,28,0,28,0,1,,,,,,,,,
295192,2022-10-06_16h35.43.804,vts_reward_expectancy,2022.2.4,MacIntel,30.3030303,Safari,820,1180,,,,,1,736,,,,,,,,,,,,,,,,,167,S,triangle,1,1,,,,,,,,,,,,,,,,repeat,letter,lettRpt,k,0.242,Hi,,,,,,3,,,,,,,,high,29,0,29,0,1,,,,,,,,,
295192,2022-10-06_16h35.43.804,vts_reward_expectancy,2022.2.4,MacIntel,30.3030303,Safari,820,1180,,,,,0,736,,,,,,,,,,,,,,,,,132,W,hexagon,-1,0,,,,,,,,,,,,,,,,switch,no_choice,NA,,,Hi,,,,,,3,,,,,,,,high,30,0,30,0,1,,,,,,,,,
295192,2022-10-06_16h35.43.804,vts_reward_expectancy,2022.2.4,MacIntel,30.3030303,Safari,820,1180,,,,,10,746,,,,,,,,,,,,,,,,,139,Y,triangle,1,0,,,,,,,,,,,,,,,,switch,letter,lettSwt,k,0.539,Hi,,,,,,3,,,,,,,,high,31,0,31,0,1,,,,,,,,,
295192,2022-10-06_16h35.43.804,vts_reward_expectancy,2022.2.4,MacIntel,30.3030303,Safari,820,1180,,,,,0,746,,,,,,,,,,,,,,,,,132,B,triangle,0,0,,,,,,,,,,,,,,,,repeat,letter,NA,k,0.835,Hi,,,,,,4,,,,,,space,1.398,high,0,0,0,0,1,,,,,,,,,
295192,2022-10-06_16h35.43.804,vts_reward_expectancy,2022.2.4,MacIntel,30.3030303,Safari,820,1180,,,,,1,747,,,,,,,,,,,,,,,,,167,H,hexagon,1,1,,,,,,,,,,,,,,,,repeat,letter,lettRpt,j,1.387,Lo,,,,,,4,,,,,,,,high,1,0,1,0,1,,,,,,,,,
295192,2022-10-06_16h35.43.804,vts_reward_expectancy,2022.2.4,MacIntel,30.3030303,Safari,820,1180,,,,,0,747,,,,,,,,,,,,,,,,,160,S,triangle,1,0,,,,,,,,,,,,,,,,repeat,letter,lettRpt,k,0.372,Hi,,,,,,4,,,,,,,,high,2,0,2,0,1,,,,,,,,,
295192,2022-10-06_16h35.43.804,vts_reward_expectancy,2022.2.4,MacIntel,30.3030303,Safari,820,1180,,,,,0,747,,,,,,,,,,,,,,,,,125,Y,hexagon,0,0,,,,,,,,,,,,,,,,repeat,letter,NA,j,0.522,Hi,,,,,,4,,,,,,,,high,3,0,3,0,1,,,,,,,,,
295192,2022-10-06_16h35.43.804,vts_reward_expectancy,2022.2.4,MacIntel,30.3030303,Safari,820,1180,,,,,0,747,,,,,,,,,,,,,,,,,174,F,hexagon,0,1,,,,,,,,,,,,,,,,repeat,letter,NA,k,0.404,Hi,,,,,,4,,,,,,,,high,4,0,4,0,1,,,,,,,,,
295192,2022-10-06_16h35.43.804,vts_reward_expectancy,2022.2.4,MacIntel,30.3030303,Safari,820,1180,,,,,0,747,,,,,,,,,,,,,,,,,181,W,triangle,0,1,,,,,,,,,,,,,,,,repeat,letter,NA,j,0.721,Hi,,,,,,4,,,,,,,,high,5,0,5,0,1,,,,,,,,,
295192,2022-10-06_16h35.43.804,vts_reward_expectancy,2022.2.4,MacIntel,30.3030303,Safari,820,1180,,,,,0,747,,,,,,,,,,,,,,,,,146,D,hexagon,0,1,,,,,,,,,,,,,,,,repeat,letter,NA,k,0.354,Hi,,,,,,4,,,,,,,,high,6,0,6,0,1,,,,,,,,,
295192,2022-10-06_16h35.43.804,vts_reward_expectancy,2022.2.4,MacIntel,30.3030303,Safari,820,1180,,,,,1,748,,,,,,,,,,,,,,,,,139,U,triangle,1,1,,,,,,,,,,,,,,,,repeat,letter,lettRpt,k,0.089,Hi,,,,,,4,,,,,,,,high,7,0,7,0,1,,,,,,,,,
295192,2022-10-06_16h35.43.804,vts_reward_expectancy,2022.2.4,MacIntel,30.3030303,Safari,820,1180,,,,,0,748,,,,,,,,,,,,,,,,,132,B,hexagon,0,0,,,,,,,,,,,,,,,,repeat,letter,NA,k,0.754,Hi,,,,,,4,,,,,,,,high,8,0,8,0,1,,,,,,,,,
295192,2022-10-06_16h35.43.804,vts_reward_expectancy,2022.2.4,MacIntel,30.3030303,Safari,820,1180,,,,,0,748,,,,,,,,,,,,,,,,,167,H,triangle,0,1,,,,,,,,,,,,,,,,repeat,letter,NA,k,0.14,Hi,,,,,,4,,,,,,,,high,9,0,9,0,1,,,,,,,,,
295192,2022-10-06_16h35.43.804,vts_reward_expectancy,2022.2.4,MacIntel,30.3030303,Safari,820,1180,,,,,0,748,,,,,,,,,,,,,,,,,160,S,hexagon,-1,1,,,,,,,,,,,,,,,,switch,no_choice,NA,,,Hi,,,,,,4,,,,,,,,high,10,0,10,0,1,,,,,,,,,
295192,2022-10-06_16h35.43.804,vts_reward_expectancy,2022.2.4,MacIntel,30.3030303,Safari,820,1180,,,,,0,748,,,,,,,,,,,,,,,,,125,Y,triangle,1,0,,,,,,,,,,,,,,,,switch,letter,lettSwt,k,1.57,Hi,,,,,,4,,,,,,,,high,11,0,11,0,1,,,,,,,,,
295192,2022-10-06_16h35.43.804,vts_reward_expectancy,2022.2.4,MacIntel,30.3030303,Safari,820,1180,,,,,0,748,,,,,,,,,,,,,,,,,174,F,hexagon,0,0,,,,,,,,,,,,,,,,repeat,letter,NA,k,0.212,Hi,,,,,,4,,,,,,,,high,12,0,12,0,1,,,,,,,,,
295192,2022-10-06_16h35.43.804,vts_reward_expectancy,2022.2.4,MacIntel,30.3030303,Safari,820,1180,,,,,0,748,,,,,,,,,,,,,,,,,181,W,triangle,1,1,,,,,,,,,,,,,,,,repeat,letter,lettRpt,k,0.907,Hi,,,,,,4,,,,,,,,high,13,0,13,0,1,,,,,,,,,
295192,2022-10-06_16h35.43.804,vts_reward_expectancy,2022.2.4,MacIntel,30.3030303,Safari,820,1180,,,,,0,748,,,,,,,,,,,,,,,,,146,D,hexagon,0,0,,,,,,,,,,,,,,,,repeat,letter,NA,k,0.087,Hi,,,,,,4,,,,,,,,high,14,0,14,0,1,,,,,,,,,
295192,2022-10-06_16h35.43.804,vts_reward_expectancy,2022.2.4,MacIntel,30.3030303,Safari,820,1180,,,,,0,748,,,,,,,,,,,,,,,,,139,U,triangle,1,1,,,,,,,,,,,,,,,,repeat,letter,lettRpt,k,0.787,Hi,,,,,,4,,,,,,,,high,15,0,15,0,1,,,,,,,,,
295192,2022-10-06_16h35.43.804,vts_reward_expectancy,2022.2.4,MacIntel,30.3030303,Safari,820,1180,,,,,0,748,,,,,,,,,,,,,,,,,167,F,triangle,0,0,,,,,,,,,,,,,,,,repeat,letter,NA,k,1.873,Hi,,,,,,4,,,,,,,,high,16,0,16,0,1,,,,,,,,,
295192,2022-10-06_16h35.43.804,vts_reward_expectancy,2022.2.4,MacIntel,30.3030303,Safari,820,1180,,,,,1,749,,,,,,,,,,,,,,,,,160,W,hexagon,1,1,,,,,,,,,,,,,,,,repeat,letter,lettRpt,k,0.072,Lo,,,,,,4,,,,,,,,high,17,0,17,0,1,,,,,,,,,
295192,2022-10-06_16h35.43.804,vts_reward_expectancy,2022.2.4,MacIntel,30.3030303,Safari,820,1180,,,,,0,749,,,,,,,,,,,,,,,,,174,H,triangle,1,0,,,,,,,,,,,,,,,,repeat,letter,lettRpt,j,0.472,Hi,,,,,,4,,,,,,,,high,18,0,18,0,1,,,,,,,,,
295192,2022-10-06_16h35.43.804,vts_reward_expectancy,2022.2.4,MacIntel,30.3030303,Safari,820,1180,,,,,0,749,,,,,,,,,,,,,,,,,125,Y,hexagon,0,0,,,,,,,,,,,,,,,,repeat,letter,NA,j,0.186,Hi,,,,,,4,,,,,,,,high,19,0,19,0,1,,,,,,,,,
295192,2022-10-06_16h35.43.804,vts_reward_expectancy,2022.2.4,MacIntel,30.3030303,Safari,820,1180,,,,,1,750,,,,,,,,,,,,,,,,,181,D,hexagon,1,1,,,,,,,,,,,,,,,,repeat,letter,lettRpt,j,0.603,Lo,,,,,,4,,,,,,,,high,20,0,20,0,1,,,,,,,,,
295192,2022-10-06_16h35.43.804,vts_reward_expectancy,2022.2.4,MacIntel,30.3030303,Safari,820,1180,,,,,0,750,,,,,,,,,,,,,,,,,139,B,triangle,0,0,,,,,,,,,,,,,,,,repeat,letter,NA,k,0.236,Lo,,,,,,4,,,,,,,,high,21,0,21,0,1,,,,,,,,,
295192,2022-10-06_16h35.43.804,vts_reward_expectancy,2022.2.4,MacIntel,30.3030303,Safari,820,1180,,,,,0,750,,,,,,,,,,,,,,,,,146,U,triangle,1,1,,,,,,,,,,,,,,,,repeat,letter,lettRpt,k,0.654,Hi,,,,,,4,,,,,,,,high,22,0,22,0,1,,,,,,,,,
295192,2022-10-06_16h35.43.804,vts_reward_expectancy,2022.2.4,MacIntel,30.3030303,Safari,820,1180,,,,,0,750,,,,,,,,,,,,,,,,,132,S,hexagon,0,0,,,,,,,,,,,,,,,,repeat,letter,NA,j,2.488,Hi,,,,,,4,,,,,,,,high,23,0,23,0,1,,,,,,,,,
295192,2022-10-06_16h35.43.804,vts_reward_expectancy,2022.2.4,MacIntel,30.3030303,Safari,820,1180,,,,,0,750,,,,,,,,,,,,,,,,,139,H,hexagon,-1,1,,,,,,,,,,,,,,,,switch,no_choice,NA,,,Hi,,,,,,4,,,,,,,,high,24,0,24,0,1,,,,,,,,,
295192,2022-10-06_16h35.43.804,vts_reward_expectancy,2022.2.4,MacIntel,30.3030303,Safari,820,1180,,,,,0,750,,,,,,,,,,,,,,,,,132,D,triangle,-1,0,,,,,,,,,,,,,,,,repeat,no_choice,NA,,,Hi,,,,,,4,,,,,,,,high,25,0,25,0,1,,,,,,,,,
295192,2022-10-06_16h35.43.804,vts_reward_expectancy,2022.2.4,MacIntel,30.3030303,Safari,820,1180,,,,,0,750,,,,,,,,,,,,,,,,,181,W,hexagon,-1,0,,,,,,,,,,,,,,,,repeat,no_choice,NA,,,Hi,,,,,,4,,,,,,,,high,26,0,26,0,1,,,,,,,,,
295192,2022-10-06_16h35.43.804,vts_reward_expectancy,2022.2.4,MacIntel,30.3030303,Safari,820,1180,,,,,0,750,,,,,,,,,,,,,,,,,174,U,triangle,1,0,,,,,,,,,,,,,,,,switch,letter,lettSwt,k,0.755,Hi,,,,,,4,,,,,,,,high,27,0,27,0,1,,,,,,,,,
295192,2022-10-06_16h35.43.804,vts_reward_expectancy,2022.2.4,MacIntel,30.3030303,Safari,820,1180,,,,,0,750,,,,,,,,,,,,,,,,,146,S,triangle,0,0,,,,,,,,,,,,,,,,repeat,letter,NA,j,0.14,Hi,,,,,,4,,,,,,,,high,28,0,28,0,1,,,,,,,,,
295192,2022-10-06_16h35.43.804,vts_reward_expectancy,2022.2.4,MacIntel,30.3030303,Safari,820,1180,,,,,0,750,,,,,,,,,,,,,,,,,160,F,hexagon,-1,1,,,,,,,,,,,,,,,,switch,no_choice,NA,,,Hi,,,,,,4,,,,,,,,high,29,0,29,0,1,,,,,,,,,
295192,2022-10-06_16h35.43.804,vts_reward_expectancy,2022.2.4,MacIntel,30.3030303,Safari,820,1180,,,,,0,750,,,,,,,,,,,,,,,,,167,B,hexagon,-1,0,,,,,,,,,,,,,,,,repeat,no_choice,NA,,,Hi,,,,,,4,,,,,,,,high,30,0,30,0,1,,,,,,,,,
295192,2022-10-06_16h35.43.804,vts_reward_expectancy,2022.2.4,MacIntel,30.3030303,Safari,820,1180,,,,,0,750,,,,,,,,,,,,,,,,,125,Y,triangle,0,0,,,,,,,,,,,,,,,,switch,letter,NA,j,1.152,Hi,,,,,,4,,,,,,,,high,31,0,31,0,1,,,,,,,,,
295192,2022-10-06_16h35.43.804,vts_reward_expectancy,2022.2.4,MacIntel,30.3030303,Safari,820,1180,,,,,10,760,,,,,,,,,,,,,,,,,146,S,circle,1,1,,,,,,,,,,,,,,,,repeat,letter,lettRpt,k,0.368,Lo,,,,,,5,,,,,,space,0.774,low,0,0,0,0,1,,,,,,,,,
295192,2022-10-06_16h35.43.804,vts_reward_expectancy,2022.2.4,MacIntel,30.3030303,Safari,820,1180,,,,,10,770,,,,,,,,,,,,,,,,,167,Y,star,1,0,,,,,,,,,,,,,,,,repeat,letter,lettRpt,k,0.27,Hi,,,,,,5,,,,,,,,low,1,0,1,0,1,,,,,,,,,
295192,2022-10-06_16h35.43.804,vts_reward_expectancy,2022.2.4,MacIntel,30.3030303,Safari,820,1180,,,,,10,780,,,,,,,,,,,,,,,,,174,W,circle,1,0,,,,,,,,,,,,,,,,repeat,letter,lettRpt,k,0.315,Lo,,,,,,5,,,,,,,,low,2,0,2,0,1,,,,,,,,,
295192,2022-10-06_16h35.43.804,vts_reward_expectancy,2022.2.4,MacIntel,30.3030303,Safari,820,1180,,,,,10,790,,,,,,,,,,,,,,,,,181,F,star,1,0,,,,,,,,,,,,,,,,repeat,letter,lettRpt,j,0.026,Hi,,,,,,5,,,,,,,,low,3,0,3,0,1,,,,,,,,,
295192,2022-10-06_16h35.43.804,vts_reward_expectancy,2022.2.4,MacIntel,30.3030303,Safari,820,1180,,,,,0,790,,,,,,,,,,,,,,,,,160,D,star,0,0,,,,,,,,,,,,,,,,repeat,letter,NA,k,0.202,Hi,,,,,,5,,,,,,,,low,4,0,4,0,1,,,,,,,,,
295192,2022-10-06_16h35.43.804,vts_reward_expectancy,2022.2.4,MacIntel,30.3030303,Safari,820,1180,,,,,0,790,,,,,,,,,,,,,,,,,132,U,circle,0,1,,,,,,,,,,,,,,,,repeat,letter,NA,j,0.12,Hi,,,,,,5,,,,,,,,low,5,0,5,0,1,,,,,,,,,
295192,2022-10-06_16h35.43.804,vts_reward_expectancy,2022.2.4,MacIntel,30.3030303,Safari,820,1180,,,,,0,790,,,,,,,,,,,,,,,,,139,H,star,0,1,,,,,,,,,,,,,,,,repeat,letter,NA,k,0.119,Hi,,,,,,5,,,,,,,,low,6,0,6,0,1,,,,,,,,,
295192,2022-10-06_16h35.43.804,vts_reward_expectancy,2022.2.4,MacIntel,30.3030303,Safari,820,1180,,,,,0,790,,,,,,,,,,,,,,,,,125,B,circle,0,1,,,,,,,,,,,,,,,,repeat,letter,NA,k,0.136,Hi,,,,,,5,,,,,,,,low,7,0,7,0,1,,,,,,,,,
295192,2022-10-06_16h35.43.804,vts_reward_expectancy,2022.2.4,MacIntel,30.3030303,Safari,820,1180,,,,,0,790,,,,,,,,,,,,,,,,,146,S,star,0,1,,,,,,,,,,,,,,,,repeat,letter,NA,j,0,Hi,,,,,,5,,,,,,,,low,8,0,8,0,1,,,,,,,,,
295192,2022-10-06_16h35.43.804,vts_reward_expectancy,2022.2.4,MacIntel,30.3030303,Safari,820,1180,,,,,1,791,,,,,,,,,,,,,,,,,167,Y,circle,1,1,,,,,,,,,,,,,,,,repeat,letter,lettRpt,k,0.171,Lo,,,,,,5,,,,,,,,low,9,0,9,0,1,,,,,,,,,
295192,2022-10-06_16h35.43.804,vts_reward_expectancy,2022.2.4,MacIntel,30.3030303,Safari,820,1180,,,,,1,792,,,,,,,,,,,,,,,,,174,W,circle,1,0,,,,,,,,,,,,,,,,repeat,letter,lettRpt,k,0.329,Lo,,,,,,5,,,,,,,,low,10,0,10,0,1,,,,,,,,,
295192,2022-10-06_16h35.43.804,vts_reward_expectancy,2022.2.4,MacIntel,30.3030303,Safari,820,1180,,,,,1,793,,,,,,,,,,,,,,,,,181,F,star,1,0,,,,,,,,,,,,,,,,repeat,letter,lettRpt,j,0.021,Hi,,,,,,5,,,,,,,,low,11,0,11,0,1,,,,,,,,,
295192,2022-10-06_16h35.43.804,vts_reward_expectancy,2022.2.4,MacIntel,30.3030303,Safari,820,1180,,,,,0,793,,,,,,,,,,,,,,,,,160,D,circle,0,0,,,,,,,,,,,,,,,,repeat,letter,NA,k,0.339,Hi,,,,,,5,,,,,,,,low,12,0,12,0,1,,,,,,,,,
295192,2022-10-06_16h35.43.804,vts_reward_expectancy,2022.2.4,MacIntel,30.3030303,Safari,820,1180,,,,,10,803,,,,,,,,,,,,,,,,,132,U,star,1,1,,,,,,,,,,,,,,,,repeat,letter,lettRpt,k,0.12,Hi,,,,,,5,,,,,,,,low,13,0,13,0,1,,,,,,,,,
295192,2022-10-06_16h35.43.804,vts_reward_expectancy,2022.2.4,MacIntel,30.3030303,Safari,820,1180,,,,,0,803,,,,,,,,,,,,,,,,,139,H,star,0,0,,,,,,,,,,,,,,,,repeat,letter,NA,k,0.178,Hi,,,,,,5,,,,,,,,low,14,0,14,0,1,,,,,,,,,
295192,2022-10-06_16h35.43.804,vts_reward_expectancy,2022.2.4,MacIntel,30.3030303,Safari,820,1180,,,,,0,803,,,,,,,,,,,,,,,,,125,B,circle,0,1,,,,,,,,,,,,,,,,repeat,letter,NA,k,0.087,Hi,,,,,,5,,,,,,,,low,15,0,15,0,1,,,,,,,,,
295192,2022-10-06_16h35.43.804,vts_reward_expectancy,2022.2.4,MacIntel,30.3030303,Safari,820,1180,,,,,0,803,,,,,,,,,,,,,,,,,181,B,star,0,1,,,,,,,,,,,,,,,,repeat,letter,NA,k,0.026,Hi,,,,,,5,,,,,,,,low,16,0,16,0,1,,,,,,,,,
295192,2022-10-06_16h35.43.804,vts_reward_expectancy,2022.2.4,MacIntel,30.3030303,Safari,820,1180,,,,,0,803,,,,,,,,,,,,,,,,,125,U,circle,0,1,,,,,,,,,,,,,,,,repeat,letter,NA,j,0.063,Hi,,,,,,5,,,,,,,,low,17,0,17,0,1,,,,,,,,,
295192,2022-10-06_16h35.43.804,vts_reward_expectancy,2022.2.4,MacIntel,30.3030303,Safari,820,1180,,,,,1,804,,,,,,,,,,,,,,,,,174,S,circle,1,1,,,,,,,,,,,,,,,,repeat,letter,lettRpt,k,0.153,Lo,,,,,,5,,,,,,,,low,18,0,18,0,1,,,,,,,,,
295192,2022-10-06_16h35.43.804,vts_reward_expectancy,2022.2.4,MacIntel,30.3030303,Safari,820,1180,,,,,1,805,,,,,,,,,,,,,,,,,167,H,star,1,0,,,,,,,,,,,,,,,,repeat,letter,lettRpt,j,0.119,Hi,,,,,,5,,,,,,,,low,19,0,19,0,1,,,,,,,,,
295192,2022-10-06_16h35.43.804,vts_reward_expectancy,2022.2.4,MacIntel,30.3030303,Safari,820,1180,,,,,0,805,,,,,,,,,,,,,,,,,139,F,star,1,0,,,,,,,,,,,,,,,,repeat,letter,lettRpt,j,0.687,Hi,,,,,,5,,,,,,,,low,20,0,20,0,1,,,,,,,,,
295192,2022-10-06_16h35.43.804,vts_reward_expectancy,2022.2.4,MacIntel,30.3030303,Safari,820,1180,,,,,1,806,,,,,,,,,,,,,,,,,146,D,circle,1,0,,,,,,,,,,,,,,,,repeat,letter,lettRpt,j,0.223,Lo,,,,,,5,,,,,,,,low,21,0,21,0,1,,,,,,,,,
295192,2022-10-06_16h35.43.804,vts_reward_expectancy,2022.2.4,MacIntel,30.3030303,Safari,820,1180,,,,,0,806,,,,,,,,,,,,,,,,,160,W,circle,0,0,,,,,,,,,,,,,,,,repeat,letter,NA,j,0.105,Lo,,,,,,5,,,,,,,,low,22,0,22,0,1,,,,,,,,,
295192,2022-10-06_16h35.43.804,vts_reward_expectancy,2022.2.4,MacIntel,30.3030303,Safari,820,1180,,,,,0,806,,,,,,,,,,,,,,,,,132,Y,star,-1,1,,,,,,,,,,,,,,,,switch,no_choice,NA,,,Lo,,,,,,5,,,,,,,,low,23,0,23,0,1,,,,,,,,,
295192,2022-10-06_16h35.43.804,vts_reward_expectancy,2022.2.4,MacIntel,30.3030303,Safari,820,1180,,,,,0,806,,,,,,,,,,,,,,,,,174,U,circle,0,0,,,,,,,,,,,,,,,,switch,letter,NA,j,0.968,Lo,,,,,,5,,,,,,,,low,24,0,24,0,1,,,,,,,,,
295192,2022-10-06_16h35.43.804,vts_reward_expectancy,2022.2.4,MacIntel,30.3030303,Safari,820,1180,,,,,0,806,,,,,,,,,,,,,,,,,160,F,star,0,1,,,,,,,,,,,,,,,,repeat,letter,NA,k,0.087,Lo,,,,,,5,,,,,,,,low,25,0,25,0,1,,,,,,,,,
295192,2022-10-06_16h35.43.804,vts_reward_expectancy,2022.2.4,MacIntel,30.3030303,Safari,820,1180,,,,,10,816,,,,,,,,,,,,,,,,,125,S,star,1,1,,,,,,,,,,,,,,,,repeat,letter,lettRpt,k,0.333,Hi,,,,,,5,,,,,,,,low,26,0,26,0,1,,,,,,,,,
295192,2022-10-06_16h35.43.804,vts_reward_expectancy,2022.2.4,MacIntel,30.3030303,Safari,820,1180,,,,,1,817,,,,,,,,,,,,,,,,,132,B,circle,1,0,,,,,,,,,,,,,,,,repeat,letter,lettRpt,j,0.971,Lo,,,,,,5,,,,,,,,low,27,0,27,0,1,,,,,,,,,
295192,2022-10-06_16h35.43.804,vts_reward_expectancy,2022.2.4,MacIntel,30.3030303,Safari,820,1180,,,,,1,818,,,,,,,,,,,,,,,,,146,H,circle,1,0,,,,,,,,,,,,,,,,repeat,letter,lettRpt,j,0.187,Lo,,,,,,5,,,,,,,,low,28,0,28,0,1,,,,,,,,,
295192,2022-10-06_16h35.43.804,vts_reward_expectancy,2022.2.4,MacIntel,30.3030303,Safari,820,1180,,,,,10,828,,,,,,,,,,,,,,,,,181,Y,star,1,0,,,,,,,,,,,,,,,,repeat,letter,lettRpt,k,0.171,Hi,,,,,,5,,,,,,,,low,29,0,29,0,1,,,,,,,,,
295192,2022-10-06_16h35.43.804,vts_reward_expectancy,2022.2.4,MacIntel,30.3030303,Safari,820,1180,,,,,0,828,,,,,,,,,,,,,,,,,167,W,star,0,0,,,,,,,,,,,,,,,,switch,number,NA,d,1.571,Hi,,,,,,5,,,,,,,,low,30,0,30,0,1,,,,,,,,,
295192,2022-10-06_16h35.43.804,vts_reward_expectancy,2022.2.4,MacIntel,30.3030303,Safari,820,1180,,,,,0,828,,,,,,,,,,,,,,,,,139,D,circle,-1,1,,,,,,,,,,,,,,,,switch,no_choice,NA,,,Hi,,,,,,5,,,,,,,,low,31,0,31,0,1,,,,,,,,,
295192,2022-10-06_16h35.43.804,vts_reward_expectancy,2022.2.4,MacIntel,30.3030303,Safari,820,1180,,,,,,,,,,,,,,,,,,,,,,,,,,,,,,,,,,,,,,,,,,,,,,,,,,,,,,6,,,,,,,,,,,,,,,1,,3,1,,2,820,1180
