participant,date,expName,psychopyVersion,OS,frameRate,browser,xResolution,yResolution,key_resp.keys,key_resp.rt,training_resp.keys,training_resp.rt,points_trial,points_cumul,trainBlock,training.thisRepN,training.thisTrialN,training.thisN,training.thisIndex,training.ran,LTriangleOpac,LCircleOpac,LHexagonOpac,LStarOpac,RTriangleOpac,RCircleOpac,RHexagonOpac,RStarOpac,LShape_ID,RShape_ID,curr_topStim,curr_bottStim,curr_shape,acc,E1,target_resp_prac1.keys,pracBlock,task1_prac_trials.thisRepN,task1_prac_trials.thisTrialN,task1_prac_trials.thisN,task1_prac_trials.thisIndex,task1_prac_trials.ran,target_resp_prac1.rt,target_resp_prac2.keys,target_resp_prac2.rt,task2_praac_trials.thisRepN,task2_praac_trials.thisTrialN,task2_praac_trials.thisN,task2_praac_trials.thisIndex,task2_praac_trials.ran,alt,task,condition,target_resp.keys,target_resp.rt,rewCond,vts_practice_trials.thisRepN,vts_practice_trials.thisTrialN,vts_practice_trials.thisN,vts_practice_trials.thisIndex,vts_practice_trials.ran,blockNum,trials_norew.thisRepN,trials_norew.thisTrialN,trials_norew.thisN,trials_norew.thisIndex,trials_norew.ran,key_resp_2.keys,key_resp_2.rt,rewExpect,trials_rew.thisRepN,trials_rew.thisTrialN,trials_rew.thisN,trials_rew.thisIndex,trials_rew.ran,Q1,Q2,Q2_text,Q3,Q4,Q5_text,Q5,xRes,yRes
295078,2022-10-03_14h24.09.223,vts_reward_expectancy,2022.2.4,MacIntel,60.0024001,Chrome,1440,900,,,,,,,,,,,,,,,,,,,,,,,,,,,,,,,,,,,,,,,,,,,,,,,,,,,,,,,,,,,,,,,,,,,,,,,,,,,,
295078,2022-10-03_14h24.09.223,vts_reward_expectancy,2022.2.4,MacIntel,60.0024001,Chrome,1440,900,space,9.9396,,,,,,,,,,,,,,,,,,,,,,,,,,,,,,,,,,,,,,,,,,,,,,,,,,,,,,,,,,,,,,,,,,,,,,,,,,
295078,2022-10-03_14h24.09.223,vts_reward_expectancy,2022.2.4,MacIntel,60.0024001,Chrome,1440,900,,,,,,,,,,,,,,,,,,,,,,,,,,,,,,,,,,,,,,,,,,,,,,,,,,,,,,,,,,,,,,,,,,,,,,,,,,,,
295078,2022-10-03_14h24.09.223,vts_reward_expectancy,2022.2.4,MacIntel,60.0024001,Chrome,1440,900,,,a,2.4935,10,10,0,0,0,0,11,1,0,0,0,1,0,0,1,0,star,hexagon,,,,,,,,,,,,,,,,,,,,,,,,,,,,,,,,,,,,,,,,,,,,,,,,,,,,,,
295078,2022-10-03_14h24.09.223,vts_reward_expectancy,2022.2.4,MacIntel,60.0024001,Chrome,1440,900,,,l,1.0502,1,11,0,0,1,1,2,1,1,0,0,0,0,0,0,1,triangle,star,,,,,,,,,,,,,,,,,,,,,,,,,,,,,,,,,,,,,,,,,,,,,,,,,,,,,,
295078,2022-10-03_14h24.09.223,vts_reward_expectancy,2022.2.4,MacIntel,60.0024001,Chrome,1440,900,,,l,0.8592,10,21,0,0,2,2,8,1,0,0,1,0,0,0,0,1,hexagon,star,,,,,,,,,,,,,,,,,,,,,,,,,,,,,,,,,,,,,,,,,,,,,,,,,,,,,,
295078,2022-10-03_14h24.09.223,vts_reward_expectancy,2022.2.4,MacIntel,60.0024001,Chrome,1440,900,,,l,1.7197,10,31,0,0,3,3,3,1,0,1,0,0,1,0,0,0,circle,triangle,,,,,,,,,,,,,,,,,,,,,,,,,,,,,,,,,,,,,,,,,,,,,,,,,,,,,,
295078,2022-10-03_14h24.09.223,vts_reward_expectancy,2022.2.4,MacIntel,60.0024001,Chrome,1440,900,,,l,1.8337,10,41,0,0,4,4,1,1,1,0,0,0,0,0,1,0,triangle,hexagon,,,,,,,,,,,,,,,,,,,,,,,,,,,,,,,,,,,,,,,,,,,,,,,,,,,,,,
295078,2022-10-03_14h24.09.223,vts_reward_expectancy,2022.2.4,MacIntel,60.0024001,Chrome,1440,900,,,l,0.6843,1,42,0,0,5,5,4,1,0,1,0,0,0,0,1,0,circle,hexagon,,,,,,,,,,,,,,,,,,,,,,,,,,,,,,,,,,,,,,,,,,,,,,,,,,,,,,
295078,2022-10-03_14h24.09.223,vts_reward_expectancy,2022.2.4,MacIntel,60.0024001,Chrome,1440,900,,,l,1.0159,1,43,0,0,6,6,5,1,0,1,0,0,0,0,0,1,circle,star,,,,,,,,,,,,,,,,,,,,,,,,,,,,,,,,,,,,,,,,,,,,,,,,,,,,,,
295078,2022-10-03_14h24.09.223,vts_reward_expectancy,2022.2.4,MacIntel,60.0024001,Chrome,1440,900,,,a,0.9338,10,53,0,0,7,7,6,1,0,0,1,0,1,0,0,0,hexagon,triangle,,,,,,,,,,,,,,,,,,,,,,,,,,,,,,,,,,,,,,,,,,,,,,,,,,,,,,
295078,2022-10-03_14h24.09.223,vts_reward_expectancy,2022.2.4,MacIntel,60.0024001,Chrome,1440,900,,,a,0.7066,1,54,0,0,8,8,9,1,0,0,0,1,1,0,0,0,star,triangle,,,,,,,,,,,,,,,,,,,,,,,,,,,,,,,,,,,,,,,,,,,,,,,,,,,,,,
295078,2022-10-03_14h24.09.223,vts_reward_expectancy,2022.2.4,MacIntel,60.0024001,Chrome,1440,900,,,a,1.2339,1,55,0,0,9,9,7,1,0,0,1,0,0,1,0,0,hexagon,circle,,,,,,,,,,,,,,,,,,,,,,,,,,,,,,,,,,,,,,,,,,,,,,,,,,,,,,
295078,2022-10-03_14h24.09.223,vts_reward_expectancy,2022.2.4,MacIntel,60.0024001,Chrome,1440,900,,,l,0.786,10,65,0,0,10,10,10,1,0,0,0,1,0,1,0,0,star ,circle,,,,,,,,,,,,,,,,,,,,,,,,,,,,,,,,,,,,,,,,,,,,,,,,,,,,,,
295078,2022-10-03_14h24.09.223,vts_reward_expectancy,2022.2.4,MacIntel,60.0024001,Chrome,1440,900,,,l,0.6992,10,75,0,0,11,11,0,1,1,0,0,0,0,1,0,0,triangle,circle,,,,,,,,,,,,,,,,,,,,,,,,,,,,,,,,,,,,,,,,,,,,,,,,,,,,,,
295078,2022-10-03_14h24.09.223,vts_reward_expectancy,2022.2.4,MacIntel,60.0024001,Chrome,1440,900,,,l,0.9344,1,76,0,1,0,12,10,1,0,0,0,1,0,1,0,0,star ,circle,,,,,,,,,,,,,,,,,,,,,,,,,,,,,,,,,,,,,,,,,,,,,,,,,,,,,,
295078,2022-10-03_14h24.09.223,vts_reward_expectancy,2022.2.4,MacIntel,60.0024001,Chrome,1440,900,,,l,1.1018,1,77,0,1,1,13,11,1,0,0,0,1,0,0,1,0,star,hexagon,,,,,,,,,,,,,,,,,,,,,,,,,,,,,,,,,,,,,,,,,,,,,,,,,,,,,,
295078,2022-10-03_14h24.09.223,vts_reward_expectancy,2022.2.4,MacIntel,60.0024001,Chrome,1440,900,,,a,0.5162,10,87,0,1,2,14,9,1,0,0,0,1,1,0,0,0,star,triangle,,,,,,,,,,,,,,,,,,,,,,,,,,,,,,,,,,,,,,,,,,,,,,,,,,,,,,
295078,2022-10-03_14h24.09.223,vts_reward_expectancy,2022.2.4,MacIntel,60.0024001,Chrome,1440,900,,,a,1.2854,1,88,0,1,3,15,6,1,0,0,1,0,1,0,0,0,hexagon,triangle,,,,,,,,,,,,,,,,,,,,,,,,,,,,,,,,,,,,,,,,,,,,,,,,,,,,,,
295078,2022-10-03_14h24.09.223,vts_reward_expectancy,2022.2.4,MacIntel,60.0024001,Chrome,1440,900,,,a,1.8163,1,89,0,1,4,16,3,1,0,1,0,0,1,0,0,0,circle,triangle,,,,,,,,,,,,,,,,,,,,,,,,,,,,,,,,,,,,,,,,,,,,,,,,,,,,,,
295078,2022-10-03_14h24.09.223,vts_reward_expectancy,2022.2.4,MacIntel,60.0024001,Chrome,1440,900,,,a,0.9688,10,99,0,1,5,17,5,1,0,1,0,0,0,0,0,1,circle,star,,,,,,,,,,,,,,,,,,,,,,,,,,,,,,,,,,,,,,,,,,,,,,,,,,,,,,
295078,2022-10-03_14h24.09.223,vts_reward_expectancy,2022.2.4,MacIntel,60.0024001,Chrome,1440,900,,,l,0.6507,1,100,0,1,6,18,1,1,1,0,0,0,0,0,1,0,triangle,hexagon,,,,,,,,,,,,,,,,,,,,,,,,,,,,,,,,,,,,,,,,,,,,,,,,,,,,,,
295078,2022-10-03_14h24.09.223,vts_reward_expectancy,2022.2.4,MacIntel,60.0024001,Chrome,1440,900,,,l,0.7498,10,110,0,1,7,19,0,1,1,0,0,0,0,1,0,0,triangle,circle,,,,,,,,,,,,,,,,,,,,,,,,,,,,,,,,,,,,,,,,,,,,,,,,,,,,,,
295078,2022-10-03_14h24.09.223,vts_reward_expectancy,2022.2.4,MacIntel,60.0024001,Chrome,1440,900,,,l,0.7155,1,111,0,1,8,20,8,1,0,0,1,0,0,0,0,1,hexagon,star,,,,,,,,,,,,,,,,,,,,,,,,,,,,,,,,,,,,,,,,,,,,,,,,,,,,,,
295078,2022-10-03_14h24.09.223,vts_reward_expectancy,2022.2.4,MacIntel,60.0024001,Chrome,1440,900,,,a,0.6991,10,121,0,1,9,21,4,1,0,1,0,0,0,0,1,0,circle,hexagon,,,,,,,,,,,,,,,,,,,,,,,,,,,,,,,,,,,,,,,,,,,,,,,,,,,,,,
295078,2022-10-03_14h24.09.223,vts_reward_expectancy,2022.2.4,MacIntel,60.0024001,Chrome,1440,900,,,l,0.5502,10,131,0,1,10,22,7,1,0,0,1,0,0,1,0,0,hexagon,circle,,,,,,,,,,,,,,,,,,,,,,,,,,,,,,,,,,,,,,,,,,,,,,,,,,,,,,
295078,2022-10-03_14h24.09.223,vts_reward_expectancy,2022.2.4,MacIntel,60.0024001,Chrome,1440,900,,,l,0.6843,10,141,0,1,11,23,2,1,1,0,0,0,0,0,0,1,triangle,star,,,,,,,,,,,,,,,,,,,,,,,,,,,,,,,,,,,,,,,,,,,,,,,,,,,,,,
295078,2022-10-03_14h24.09.223,vts_reward_expectancy,2022.2.4,MacIntel,60.0024001,Chrome,1440,900,,,a,0.9497,10,151,0,2,0,24,4,1,0,1,0,0,0,0,1,0,circle,hexagon,,,,,,,,,,,,,,,,,,,,,,,,,,,,,,,,,,,,,,,,,,,,,,,,,,,,,,
295078,2022-10-03_14h24.09.223,vts_reward_expectancy,2022.2.4,MacIntel,60.0024001,Chrome,1440,900,,,l,0.7036,1,152,0,2,1,25,11,1,0,0,0,1,0,0,1,0,star,hexagon,,,,,,,,,,,,,,,,,,,,,,,,,,,,,,,,,,,,,,,,,,,,,,,,,,,,,,
295078,2022-10-03_14h24.09.223,vts_reward_expectancy,2022.2.4,MacIntel,60.0024001,Chrome,1440,900,,,l,0.7333,1,153,0,2,2,26,0,1,1,0,0,0,0,1,0,0,triangle,circle,,,,,,,,,,,,,,,,,,,,,,,,,,,,,,,,,,,,,,,,,,,,,,,,,,,,,,
295078,2022-10-03_14h24.09.223,vts_reward_expectancy,2022.2.4,MacIntel,60.0024001,Chrome,1440,900,,,l,0.7519,1,154,0,2,3,27,1,1,1,0,0,0,0,0,1,0,triangle,hexagon,,,,,,,,,,,,,,,,,,,,,,,,,,,,,,,,,,,,,,,,,,,,,,,,,,,,,,
295078,2022-10-03_14h24.09.223,vts_reward_expectancy,2022.2.4,MacIntel,60.0024001,Chrome,1440,900,,,l,0.4006,10,164,0,2,4,28,7,1,0,0,1,0,0,1,0,0,hexagon,circle,,,,,,,,,,,,,,,,,,,,,,,,,,,,,,,,,,,,,,,,,,,,,,,,,,,,,,
295078,2022-10-03_14h24.09.223,vts_reward_expectancy,2022.2.4,MacIntel,60.0024001,Chrome,1440,900,,,a,0.622,10,174,0,2,5,29,9,1,0,0,0,1,1,0,0,0,star,triangle,,,,,,,,,,,,,,,,,,,,,,,,,,,,,,,,,,,,,,,,,,,,,,,,,,,,,,
295078,2022-10-03_14h24.09.223,vts_reward_expectancy,2022.2.4,MacIntel,60.0024001,Chrome,1440,900,,,l,0.8319,1,175,0,2,6,30,3,1,0,1,0,0,1,0,0,0,circle,triangle,,,,,,,,,,,,,,,,,,,,,,,,,,,,,,,,,,,,,,,,,,,,,,,,,,,,,,
295078,2022-10-03_14h24.09.223,vts_reward_expectancy,2022.2.4,MacIntel,60.0024001,Chrome,1440,900,,,a,0.6233,1,176,0,2,7,31,10,1,0,0,0,1,0,1,0,0,star ,circle,,,,,,,,,,,,,,,,,,,,,,,,,,,,,,,,,,,,,,,,,,,,,,,,,,,,,,
295078,2022-10-03_14h24.09.223,vts_reward_expectancy,2022.2.4,MacIntel,60.0024001,Chrome,1440,900,,,l,1.3829,1,177,0,2,8,32,5,1,0,1,0,0,0,0,0,1,circle,star,,,,,,,,,,,,,,,,,,,,,,,,,,,,,,,,,,,,,,,,,,,,,,,,,,,,,,
295078,2022-10-03_14h24.09.223,vts_reward_expectancy,2022.2.4,MacIntel,60.0024001,Chrome,1440,900,,,a,1.2667,10,187,0,2,9,33,6,1,0,0,1,0,1,0,0,0,hexagon,triangle,,,,,,,,,,,,,,,,,,,,,,,,,,,,,,,,,,,,,,,,,,,,,,,,,,,,,,
295078,2022-10-03_14h24.09.223,vts_reward_expectancy,2022.2.4,MacIntel,60.0024001,Chrome,1440,900,,,l,1.2892,10,197,0,2,10,34,2,1,1,0,0,0,0,0,0,1,triangle,star,,,,,,,,,,,,,,,,,,,,,,,,,,,,,,,,,,,,,,,,,,,,,,,,,,,,,,
295078,2022-10-03_14h24.09.223,vts_reward_expectancy,2022.2.4,MacIntel,60.0024001,Chrome,1440,900,,,a,1.251,1,198,0,2,11,35,8,1,0,0,1,0,0,0,0,1,hexagon,star,,,,,,,,,,,,,,,,,,,,,,,,,,,,,,,,,,,,,,,,,,,,,,,,,,,,,,
295078,2022-10-03_14h24.09.223,vts_reward_expectancy,2022.2.4,MacIntel,60.0024001,Chrome,1440,900,,,a,1.1341,10,208,1,0,0,0,3,1,0,1,0,0,1,0,0,0,circle,triangle,,,,,,,,,,,,,,,,,,,,,,,,,,,,,,,,,,,,,,,,,,,,,,,,,,,,,,
295078,2022-10-03_14h24.09.223,vts_reward_expectancy,2022.2.4,MacIntel,60.0024001,Chrome,1440,900,,,l,1.7492,1,209,1,0,1,1,2,1,1,0,0,0,0,0,0,1,triangle,star,,,,,,,,,,,,,,,,,,,,,,,,,,,,,,,,,,,,,,,,,,,,,,,,,,,,,,
295078,2022-10-03_14h24.09.223,vts_reward_expectancy,2022.2.4,MacIntel,60.0024001,Chrome,1440,900,,,a,1.2537,10,219,1,0,2,2,4,1,0,1,0,0,0,0,1,0,circle,hexagon,,,,,,,,,,,,,,,,,,,,,,,,,,,,,,,,,,,,,,,,,,,,,,,,,,,,,,
295078,2022-10-03_14h24.09.223,vts_reward_expectancy,2022.2.4,MacIntel,60.0024001,Chrome,1440,900,,,a,1.2205,10,229,1,0,3,3,0,1,1,0,0,0,0,1,0,0,triangle,circle,,,,,,,,,,,,,,,,,,,,,,,,,,,,,,,,,,,,,,,,,,,,,,,,,,,,,,
295078,2022-10-03_14h24.09.223,vts_reward_expectancy,2022.2.4,MacIntel,60.0024001,Chrome,1440,900,,,l,2.2173,10,239,1,0,4,4,9,1,0,0,0,1,1,0,0,0,star,triangle,,,,,,,,,,,,,,,,,,,,,,,,,,,,,,,,,,,,,,,,,,,,,,,,,,,,,,
295078,2022-10-03_14h24.09.223,vts_reward_expectancy,2022.2.4,MacIntel,60.0024001,Chrome,1440,900,,,l,1.084,1,240,1,0,5,5,11,1,0,0,0,1,0,0,1,0,star,hexagon,,,,,,,,,,,,,,,,,,,,,,,,,,,,,,,,,,,,,,,,,,,,,,,,,,,,,,
295078,2022-10-03_14h24.09.223,vts_reward_expectancy,2022.2.4,MacIntel,60.0024001,Chrome,1440,900,,,l,0.6994,1,241,1,0,6,6,1,1,1,0,0,0,0,0,1,0,triangle,hexagon,,,,,,,,,,,,,,,,,,,,,,,,,,,,,,,,,,,,,,,,,,,,,,,,,,,,,,
295078,2022-10-03_14h24.09.223,vts_reward_expectancy,2022.2.4,MacIntel,60.0024001,Chrome,1440,900,,,a,1.0008,10,251,1,0,7,7,5,1,0,1,0,0,0,0,0,1,circle,star,,,,,,,,,,,,,,,,,,,,,,,,,,,,,,,,,,,,,,,,,,,,,,,,,,,,,,
295078,2022-10-03_14h24.09.223,vts_reward_expectancy,2022.2.4,MacIntel,60.0024001,Chrome,1440,900,,,l,9.2935,10,261,1,0,8,8,6,1,0,0,1,0,1,0,0,0,hexagon,triangle,,,,,,,,,,,,,,,,,,,,,,,,,,,,,,,,,,,,,,,,,,,,,,,,,,,,,,
295078,2022-10-03_14h24.09.223,vts_reward_expectancy,2022.2.4,MacIntel,60.0024001,Chrome,1440,900,,,l,0.9317,10,271,1,0,9,9,7,1,0,0,1,0,0,1,0,0,hexagon,circle,,,,,,,,,,,,,,,,,,,,,,,,,,,,,,,,,,,,,,,,,,,,,,,,,,,,,,
295078,2022-10-03_14h24.09.223,vts_reward_expectancy,2022.2.4,MacIntel,60.0024001,Chrome,1440,900,,,a,1.2683,10,281,1,0,10,10,10,1,0,0,0,1,0,1,0,0,star ,circle,,,,,,,,,,,,,,,,,,,,,,,,,,,,,,,,,,,,,,,,,,,,,,,,,,,,,,
295078,2022-10-03_14h24.09.223,vts_reward_expectancy,2022.2.4,MacIntel,60.0024001,Chrome,1440,900,,,a,0.9395,10,291,1,0,11,11,8,1,0,0,1,0,0,0,0,1,hexagon,star,,,,,,,,,,,,,,,,,,,,,,,,,,,,,,,,,,,,,,,,,,,,,,,,,,,,,,
295078,2022-10-03_14h24.09.223,vts_reward_expectancy,2022.2.4,MacIntel,60.0024001,Chrome,1440,900,,,a,1.1817,10,301,1,1,0,12,4,1,0,1,0,0,0,0,1,0,circle,hexagon,,,,,,,,,,,,,,,,,,,,,,,,,,,,,,,,,,,,,,,,,,,,,,,,,,,,,,
295078,2022-10-03_14h24.09.223,vts_reward_expectancy,2022.2.4,MacIntel,60.0024001,Chrome,1440,900,,,a,1.0498,1,302,1,1,1,13,5,1,0,1,0,0,0,0,0,1,circle,star,,,,,,,,,,,,,,,,,,,,,,,,,,,,,,,,,,,,,,,,,,,,,,,,,,,,,,
295078,2022-10-03_14h24.09.223,vts_reward_expectancy,2022.2.4,MacIntel,60.0024001,Chrome,1440,900,,,a,0.7,1,303,1,1,2,14,0,1,1,0,0,0,0,1,0,0,triangle,circle,,,,,,,,,,,,,,,,,,,,,,,,,,,,,,,,,,,,,,,,,,,,,,,,,,,,,,
295078,2022-10-03_14h24.09.223,vts_reward_expectancy,2022.2.4,MacIntel,60.0024001,Chrome,1440,900,,,a,1.0097,1,304,1,1,3,15,1,1,1,0,0,0,0,0,1,0,triangle,hexagon,,,,,,,,,,,,,,,,,,,,,,,,,,,,,,,,,,,,,,,,,,,,,,,,,,,,,,
295078,2022-10-03_14h24.09.223,vts_reward_expectancy,2022.2.4,MacIntel,60.0024001,Chrome,1440,900,,,a,0.7196,10,314,1,1,4,16,3,1,0,1,0,0,1,0,0,0,circle,triangle,,,,,,,,,,,,,,,,,,,,,,,,,,,,,,,,,,,,,,,,,,,,,,,,,,,,,,
295078,2022-10-03_14h24.09.223,vts_reward_expectancy,2022.2.4,MacIntel,60.0024001,Chrome,1440,900,,,l,0.9348,1,315,1,1,5,17,8,1,0,0,1,0,0,0,0,1,hexagon,star,,,,,,,,,,,,,,,,,,,,,,,,,,,,,,,,,,,,,,,,,,,,,,,,,,,,,,
295078,2022-10-03_14h24.09.223,vts_reward_expectancy,2022.2.4,MacIntel,60.0024001,Chrome,1440,900,,,l,0.8232,10,325,1,1,6,18,7,1,0,0,1,0,0,1,0,0,hexagon,circle,,,,,,,,,,,,,,,,,,,,,,,,,,,,,,,,,,,,,,,,,,,,,,,,,,,,,,
295078,2022-10-03_14h24.09.223,vts_reward_expectancy,2022.2.4,MacIntel,60.0024001,Chrome,1440,900,,,l,0.6853,10,335,1,1,7,19,9,1,0,0,0,1,1,0,0,0,star,triangle,,,,,,,,,,,,,,,,,,,,,,,,,,,,,,,,,,,,,,,,,,,,,,,,,,,,,,
295078,2022-10-03_14h24.09.223,vts_reward_expectancy,2022.2.4,MacIntel,60.0024001,Chrome,1440,900,,,a,0.6818,1,336,1,1,8,20,11,1,0,0,0,1,0,0,1,0,star,hexagon,,,,,,,,,,,,,,,,,,,,,,,,,,,,,,,,,,,,,,,,,,,,,,,,,,,,,,
295078,2022-10-03_14h24.09.223,vts_reward_expectancy,2022.2.4,MacIntel,60.0024001,Chrome,1440,900,,,l,0.9752,1,337,1,1,9,21,6,1,0,0,1,0,1,0,0,0,hexagon,triangle,,,,,,,,,,,,,,,,,,,,,,,,,,,,,,,,,,,,,,,,,,,,,,,,,,,,,,
295078,2022-10-03_14h24.09.223,vts_reward_expectancy,2022.2.4,MacIntel,60.0024001,Chrome,1440,900,,,a,1.7488,1,338,1,1,10,22,10,1,0,0,0,1,0,1,0,0,star ,circle,,,,,,,,,,,,,,,,,,,,,,,,,,,,,,,,,,,,,,,,,,,,,,,,,,,,,,
295078,2022-10-03_14h24.09.223,vts_reward_expectancy,2022.2.4,MacIntel,60.0024001,Chrome,1440,900,,,a,0.7253,1,339,1,1,11,23,2,1,1,0,0,0,0,0,0,1,triangle,star,,,,,,,,,,,,,,,,,,,,,,,,,,,,,,,,,,,,,,,,,,,,,,,,,,,,,,
295078,2022-10-03_14h24.09.223,vts_reward_expectancy,2022.2.4,MacIntel,60.0024001,Chrome,1440,900,,,l,0.984,10,349,1,2,0,24,10,1,0,0,0,1,0,1,0,0,star ,circle,,,,,,,,,,,,,,,,,,,,,,,,,,,,,,,,,,,,,,,,,,,,,,,,,,,,,,
295078,2022-10-03_14h24.09.223,vts_reward_expectancy,2022.2.4,MacIntel,60.0024001,Chrome,1440,900,,,a,0.8815,10,359,1,2,1,25,2,1,1,0,0,0,0,0,0,1,triangle,star,,,,,,,,,,,,,,,,,,,,,,,,,,,,,,,,,,,,,,,,,,,,,,,,,,,,,,
295078,2022-10-03_14h24.09.223,vts_reward_expectancy,2022.2.4,MacIntel,60.0024001,Chrome,1440,900,,,a,1.3332,1,360,1,2,2,26,6,1,0,0,1,0,1,0,0,0,hexagon,triangle,,,,,,,,,,,,,,,,,,,,,,,,,,,,,,,,,,,,,,,,,,,,,,,,,,,,,,
295078,2022-10-03_14h24.09.223,vts_reward_expectancy,2022.2.4,MacIntel,60.0024001,Chrome,1440,900,,,l,0.8254,1,361,1,2,3,27,5,1,0,1,0,0,0,0,0,1,circle,star,,,,,,,,,,,,,,,,,,,,,,,,,,,,,,,,,,,,,,,,,,,,,,,,,,,,,,
295078,2022-10-03_14h24.09.223,vts_reward_expectancy,2022.2.4,MacIntel,60.0024001,Chrome,1440,900,,,l,8.2662,10,371,1,2,4,28,7,1,0,0,1,0,0,1,0,0,hexagon,circle,,,,,,,,,,,,,,,,,,,,,,,,,,,,,,,,,,,,,,,,,,,,,,,,,,,,,,
295078,2022-10-03_14h24.09.223,vts_reward_expectancy,2022.2.4,MacIntel,60.0024001,Chrome,1440,900,,,l,2.0154,10,381,1,2,5,29,3,1,0,1,0,0,1,0,0,0,circle,triangle,,,,,,,,,,,,,,,,,,,,,,,,,,,,,,,,,,,,,,,,,,,,,,,,,,,,,,
295078,2022-10-03_14h24.09.223,vts_reward_expectancy,2022.2.4,MacIntel,60.0024001,Chrome,1440,900,,,a,0.777,10,391,1,2,6,30,4,1,0,1,0,0,0,0,1,0,circle,hexagon,,,,,,,,,,,,,,,,,,,,,,,,,,,,,,,,,,,,,,,,,,,,,,,,,,,,,,
295078,2022-10-03_14h24.09.223,vts_reward_expectancy,2022.2.4,MacIntel,60.0024001,Chrome,1440,900,,,l,0.5589,1,392,1,2,7,31,9,1,0,0,0,1,1,0,0,0,star,triangle,,,,,,,,,,,,,,,,,,,,,,,,,,,,,,,,,,,,,,,,,,,,,,,,,,,,,,
295078,2022-10-03_14h24.09.223,vts_reward_expectancy,2022.2.4,MacIntel,60.0024001,Chrome,1440,900,,,l,0.5719,10,402,1,2,8,32,0,1,1,0,0,0,0,1,0,0,triangle,circle,,,,,,,,,,,,,,,,,,,,,,,,,,,,,,,,,,,,,,,,,,,,,,,,,,,,,,
295078,2022-10-03_14h24.09.223,vts_reward_expectancy,2022.2.4,MacIntel,60.0024001,Chrome,1440,900,,,a,0.8853,10,412,1,2,9,33,11,1,0,0,0,1,0,0,1,0,star,hexagon,,,,,,,,,,,,,,,,,,,,,,,,,,,,,,,,,,,,,,,,,,,,,,,,,,,,,,
295078,2022-10-03_14h24.09.223,vts_reward_expectancy,2022.2.4,MacIntel,60.0024001,Chrome,1440,900,,,a,0.917,1,413,1,2,10,34,1,1,1,0,0,0,0,0,1,0,triangle,hexagon,,,,,,,,,,,,,,,,,,,,,,,,,,,,,,,,,,,,,,,,,,,,,,,,,,,,,,
295078,2022-10-03_14h24.09.223,vts_reward_expectancy,2022.2.4,MacIntel,60.0024001,Chrome,1440,900,,,a,0.7493,1,414,1,2,11,35,8,1,0,0,1,0,0,0,0,1,hexagon,star,,,,,,,,,,,,,,,,,,,,,,,,,,,,,,,,,,,,,,,,,,,,,,,,,,,,,,
295078,2022-10-03_14h24.09.223,vts_reward_expectancy,2022.2.4,MacIntel,60.0024001,Chrome,1440,900,,,l,0.8089,10,424,2,0,0,0,2,1,1,0,0,0,0,0,0,1,triangle,star,,,,,,,,,,,,,,,,,,,,,,,,,,,,,,,,,,,,,,,,,,,,,,,,,,,,,,
295078,2022-10-03_14h24.09.223,vts_reward_expectancy,2022.2.4,MacIntel,60.0024001,Chrome,1440,900,,,a,0.6223,1,425,2,0,1,1,11,1,0,0,0,1,0,0,1,0,star,hexagon,,,,,,,,,,,,,,,,,,,,,,,,,,,,,,,,,,,,,,,,,,,,,,,,,,,,,,
295078,2022-10-03_14h24.09.223,vts_reward_expectancy,2022.2.4,MacIntel,60.0024001,Chrome,1440,900,,,a,0.6679,10,435,2,0,2,2,5,1,0,1,0,0,0,0,0,1,circle,star,,,,,,,,,,,,,,,,,,,,,,,,,,,,,,,,,,,,,,,,,,,,,,,,,,,,,,
295078,2022-10-03_14h24.09.223,vts_reward_expectancy,2022.2.4,MacIntel,60.0024001,Chrome,1440,900,,,a,1.0695,10,445,2,0,3,3,4,1,0,1,0,0,0,0,1,0,circle,hexagon,,,,,,,,,,,,,,,,,,,,,,,,,,,,,,,,,,,,,,,,,,,,,,,,,,,,,,
295078,2022-10-03_14h24.09.223,vts_reward_expectancy,2022.2.4,MacIntel,60.0024001,Chrome,1440,900,,,l,2.2989,10,455,2,0,4,4,8,1,0,0,1,0,0,0,0,1,hexagon,star,,,,,,,,,,,,,,,,,,,,,,,,,,,,,,,,,,,,,,,,,,,,,,,,,,,,,,
295078,2022-10-03_14h24.09.223,vts_reward_expectancy,2022.2.4,MacIntel,60.0024001,Chrome,1440,900,,,l,1.038,10,465,2,0,5,5,10,1,0,0,0,1,0,1,0,0,star ,circle,,,,,,,,,,,,,,,,,,,,,,,,,,,,,,,,,,,,,,,,,,,,,,,,,,,,,,
295078,2022-10-03_14h24.09.223,vts_reward_expectancy,2022.2.4,MacIntel,60.0024001,Chrome,1440,900,,,a,0.9651,10,475,2,0,6,6,0,1,1,0,0,0,0,1,0,0,triangle,circle,,,,,,,,,,,,,,,,,,,,,,,,,,,,,,,,,,,,,,,,,,,,,,,,,,,,,,
295078,2022-10-03_14h24.09.223,vts_reward_expectancy,2022.2.4,MacIntel,60.0024001,Chrome,1440,900,,,a,1.0833,1,476,2,0,7,7,7,1,0,0,1,0,0,1,0,0,hexagon,circle,,,,,,,,,,,,,,,,,,,,,,,,,,,,,,,,,,,,,,,,,,,,,,,,,,,,,,
295078,2022-10-03_14h24.09.223,vts_reward_expectancy,2022.2.4,MacIntel,60.0024001,Chrome,1440,900,,,a,0.7994,10,486,2,0,8,8,3,1,0,1,0,0,1,0,0,0,circle,triangle,,,,,,,,,,,,,,,,,,,,,,,,,,,,,,,,,,,,,,,,,,,,,,,,,,,,,,
295078,2022-10-03_14h24.09.223,vts_reward_expectancy,2022.2.4,MacIntel,60.0024001,Chrome,1440,900,,,l,0.6504,10,496,2,0,9,9,1,1,1,0,0,0,0,0,1,0,triangle,hexagon,,,,,,,,,,,,,,,,,,,,,,,,,,,,,,,,,,,,,,,,,,,,,,,,,,,,,,
295078,2022-10-03_14h24.09.223,vts_reward_expectancy,2022.2.4,MacIntel,60.0024001,Chrome,1440,900,,,l,0.701,1,497,2,0,10,10,9,1,0,0,0,1,1,0,0,0,star,triangle,,,,,,,,,,,,,,,,,,,,,,,,,,,,,,,,,,,,,,,,,,,,,,,,,,,,,,
295078,2022-10-03_14h24.09.223,vts_reward_expectancy,2022.2.4,MacIntel,60.0024001,Chrome,1440,900,,,a,0.5669,10,507,2,0,11,11,6,1,0,0,1,0,1,0,0,0,hexagon,triangle,,,,,,,,,,,,,,,,,,,,,,,,,,,,,,,,,,,,,,,,,,,,,,,,,,,,,,
295078,2022-10-03_14h24.09.223,vts_reward_expectancy,2022.2.4,MacIntel,60.0024001,Chrome,1440,900,,,a,0.7343,1,508,2,1,0,12,6,1,0,0,1,0,1,0,0,0,hexagon,triangle,,,,,,,,,,,,,,,,,,,,,,,,,,,,,,,,,,,,,,,,,,,,,,,,,,,,,,
295078,2022-10-03_14h24.09.223,vts_reward_expectancy,2022.2.4,MacIntel,60.0024001,Chrome,1440,900,,,a,0.5084,10,518,2,1,1,13,5,1,0,1,0,0,0,0,0,1,circle,star,,,,,,,,,,,,,,,,,,,,,,,,,,,,,,,,,,,,,,,,,,,,,,,,,,,,,,
295078,2022-10-03_14h24.09.223,vts_reward_expectancy,2022.2.4,MacIntel,60.0024001,Chrome,1440,900,,,a,0.7241,1,519,2,1,2,14,2,1,1,0,0,0,0,0,0,1,triangle,star,,,,,,,,,,,,,,,,,,,,,,,,,,,,,,,,,,,,,,,,,,,,,,,,,,,,,,
295078,2022-10-03_14h24.09.223,vts_reward_expectancy,2022.2.4,MacIntel,60.0024001,Chrome,1440,900,,,l,0.7178,1,520,2,1,3,15,10,1,0,0,0,1,0,1,0,0,star ,circle,,,,,,,,,,,,,,,,,,,,,,,,,,,,,,,,,,,,,,,,,,,,,,,,,,,,,,
295078,2022-10-03_14h24.09.223,vts_reward_expectancy,2022.2.4,MacIntel,60.0024001,Chrome,1440,900,,,l,2.0665,1,521,2,1,4,16,4,1,0,1,0,0,0,0,1,0,circle,hexagon,,,,,,,,,,,,,,,,,,,,,,,,,,,,,,,,,,,,,,,,,,,,,,,,,,,,,,
295078,2022-10-03_14h24.09.223,vts_reward_expectancy,2022.2.4,MacIntel,60.0024001,Chrome,1440,900,,,l,1.1209,1,522,2,1,5,17,3,1,0,1,0,0,1,0,0,0,circle,triangle,,,,,,,,,,,,,,,,,,,,,,,,,,,,,,,,,,,,,,,,,,,,,,,,,,,,,,
295078,2022-10-03_14h24.09.223,vts_reward_expectancy,2022.2.4,MacIntel,60.0024001,Chrome,1440,900,,,l,0.4867,10,532,2,1,6,18,7,1,0,0,1,0,0,1,0,0,hexagon,circle,,,,,,,,,,,,,,,,,,,,,,,,,,,,,,,,,,,,,,,,,,,,,,,,,,,,,,
295078,2022-10-03_14h24.09.223,vts_reward_expectancy,2022.2.4,MacIntel,60.0024001,Chrome,1440,900,,,l,1.1722,1,533,2,1,7,19,11,1,0,0,0,1,0,0,1,0,star,hexagon,,,,,,,,,,,,,,,,,,,,,,,,,,,,,,,,,,,,,,,,,,,,,,,,,,,,,,
295078,2022-10-03_14h24.09.223,vts_reward_expectancy,2022.2.4,MacIntel,60.0024001,Chrome,1440,900,,,a,1.1345,10,543,2,1,8,20,1,1,1,0,0,0,0,0,1,0,triangle,hexagon,,,,,,,,,,,,,,,,,,,,,,,,,,,,,,,,,,,,,,,,,,,,,,,,,,,,,,
295078,2022-10-03_14h24.09.223,vts_reward_expectancy,2022.2.4,MacIntel,60.0024001,Chrome,1440,900,,,a,1.6356,1,544,2,1,9,21,8,1,0,0,1,0,0,0,0,1,hexagon,star,,,,,,,,,,,,,,,,,,,,,,,,,,,,,,,,,,,,,,,,,,,,,,,,,,,,,,
295078,2022-10-03_14h24.09.223,vts_reward_expectancy,2022.2.4,MacIntel,60.0024001,Chrome,1440,900,,,l,1.0873,1,545,2,1,10,22,9,1,0,0,0,1,1,0,0,0,star,triangle,,,,,,,,,,,,,,,,,,,,,,,,,,,,,,,,,,,,,,,,,,,,,,,,,,,,,,
295078,2022-10-03_14h24.09.223,vts_reward_expectancy,2022.2.4,MacIntel,60.0024001,Chrome,1440,900,,,l,1.0827,10,555,2,1,11,23,0,1,1,0,0,0,0,1,0,0,triangle,circle,,,,,,,,,,,,,,,,,,,,,,,,,,,,,,,,,,,,,,,,,,,,,,,,,,,,,,
295078,2022-10-03_14h24.09.223,vts_reward_expectancy,2022.2.4,MacIntel,60.0024001,Chrome,1440,900,,,l,0.5676,1,556,2,2,0,24,0,1,1,0,0,0,0,1,0,0,triangle,circle,,,,,,,,,,,,,,,,,,,,,,,,,,,,,,,,,,,,,,,,,,,,,,,,,,,,,,
295078,2022-10-03_14h24.09.223,vts_reward_expectancy,2022.2.4,MacIntel,60.0024001,Chrome,1440,900,,,a,0.5755,1,557,2,2,1,25,3,1,0,1,0,0,1,0,0,0,circle,triangle,,,,,,,,,,,,,,,,,,,,,,,,,,,,,,,,,,,,,,,,,,,,,,,,,,,,,,
295078,2022-10-03_14h24.09.223,vts_reward_expectancy,2022.2.4,MacIntel,60.0024001,Chrome,1440,900,,,a,1.3035,10,567,2,2,2,26,4,1,0,1,0,0,0,0,1,0,circle,hexagon,,,,,,,,,,,,,,,,,,,,,,,,,,,,,,,,,,,,,,,,,,,,,,,,,,,,,,
295078,2022-10-03_14h24.09.223,vts_reward_expectancy,2022.2.4,MacIntel,60.0024001,Chrome,1440,900,,,a,1.1991,10,577,2,2,3,27,11,1,0,0,0,1,0,0,1,0,star,hexagon,,,,,,,,,,,,,,,,,,,,,,,,,,,,,,,,,,,,,,,,,,,,,,,,,,,,,,
295078,2022-10-03_14h24.09.223,vts_reward_expectancy,2022.2.4,MacIntel,60.0024001,Chrome,1440,900,,,a,1.3392,1,578,2,2,4,28,8,1,0,0,1,0,0,0,0,1,hexagon,star,,,,,,,,,,,,,,,,,,,,,,,,,,,,,,,,,,,,,,,,,,,,,,,,,,,,,,
295078,2022-10-03_14h24.09.223,vts_reward_expectancy,2022.2.4,MacIntel,60.0024001,Chrome,1440,900,,,l,0.9666,10,588,2,2,5,29,10,1,0,0,0,1,0,1,0,0,star ,circle,,,,,,,,,,,,,,,,,,,,,,,,,,,,,,,,,,,,,,,,,,,,,,,,,,,,,,
295078,2022-10-03_14h24.09.223,vts_reward_expectancy,2022.2.4,MacIntel,60.0024001,Chrome,1440,900,,,l,1.0825,1,589,2,2,6,30,1,1,1,0,0,0,0,0,1,0,triangle,hexagon,,,,,,,,,,,,,,,,,,,,,,,,,,,,,,,,,,,,,,,,,,,,,,,,,,,,,,
295078,2022-10-03_14h24.09.223,vts_reward_expectancy,2022.2.4,MacIntel,60.0024001,Chrome,1440,900,,,a,1.134,10,599,2,2,7,31,5,1,0,1,0,0,0,0,0,1,circle,star,,,,,,,,,,,,,,,,,,,,,,,,,,,,,,,,,,,,,,,,,,,,,,,,,,,,,,
295078,2022-10-03_14h24.09.223,vts_reward_expectancy,2022.2.4,MacIntel,60.0024001,Chrome,1440,900,,,l,1.282,10,609,2,2,8,32,7,1,0,0,1,0,0,1,0,0,hexagon,circle,,,,,,,,,,,,,,,,,,,,,,,,,,,,,,,,,,,,,,,,,,,,,,,,,,,,,,
295078,2022-10-03_14h24.09.223,vts_reward_expectancy,2022.2.4,MacIntel,60.0024001,Chrome,1440,900,,,l,1.1725,1,610,2,2,9,33,9,1,0,0,0,1,1,0,0,0,star,triangle,,,,,,,,,,,,,,,,,,,,,,,,,,,,,,,,,,,,,,,,,,,,,,,,,,,,,,
295078,2022-10-03_14h24.09.223,vts_reward_expectancy,2022.2.4,MacIntel,60.0024001,Chrome,1440,900,,,a,0.9504,10,620,2,2,10,34,2,1,1,0,0,0,0,0,0,1,triangle,star,,,,,,,,,,,,,,,,,,,,,,,,,,,,,,,,,,,,,,,,,,,,,,,,,,,,,,
295078,2022-10-03_14h24.09.223,vts_reward_expectancy,2022.2.4,MacIntel,60.0024001,Chrome,1440,900,,,a,1.3522,1,621,2,2,11,35,6,1,0,0,1,0,1,0,0,0,hexagon,triangle,,,,,,,,,,,,,,,,,,,,,,,,,,,,,,,,,,,,,,,,,,,,,,,,,,,,,,
295078,2022-10-03_14h24.09.223,vts_reward_expectancy,2022.2.4,MacIntel,60.0024001,Chrome,1440,900,,,,,,,,,,,,,,,,,,,,,,,125,W,star,0,0,,0,0,0,0,0,1,,,,,,,,,,,,,,,,,,,,,,,,,,,,,,,,,,,,,,,,,,
295078,2022-10-03_14h24.09.223,vts_reward_expectancy,2022.2.4,MacIntel,60.0024001,Chrome,1440,900,,,,,,,,,,,,,,,,,,,,,,,167,H,triangle,0,1,d,0,1,0,1,0,1,0.9216,,,,,,,,,,,,,,,,,,,,,,,,,,,,,,,,,,,,,,,,,
295078,2022-10-03_14h24.09.223,vts_reward_expectancy,2022.2.4,MacIntel,60.0024001,Chrome,1440,900,,,,,,,,,,,,,,,,,,,,,,,146,U,circle,0,1,f,0,2,0,2,0,1,0.9458,,,,,,,,,,,,,,,,,,,,,,,,,,,,,,,,,,,,,,,,,
295078,2022-10-03_14h24.09.223,vts_reward_expectancy,2022.2.4,MacIntel,60.0024001,Chrome,1440,900,,,,,,,,,,,,,,,,,,,,,,,181,S,hexagon,0,1,d,0,3,0,3,0,1,0.8448,,,,,,,,,,,,,,,,,,,,,,,,,,,,,,,,,,,,,,,,,
295078,2022-10-03_14h24.09.223,vts_reward_expectancy,2022.2.4,MacIntel,60.0024001,Chrome,1440,900,,,,,,,,,,,,,,,,,,,,,,,132,B,star,1,1,d,0,4,0,4,0,1,0.8221,,,,,,,,,,,,,,,,,,,,,,,,,,,,,,,,,,,,,,,,,
295078,2022-10-03_14h24.09.223,vts_reward_expectancy,2022.2.4,MacIntel,60.0024001,Chrome,1440,900,,,,,,,,,,,,,,,,,,,,,,,139,D,triangle,0,0,f,0,5,0,5,0,1,0.9661,,,,,,,,,,,,,,,,,,,,,,,,,,,,,,,,,,,,,,,,,
295078,2022-10-03_14h24.09.223,vts_reward_expectancy,2022.2.4,MacIntel,60.0024001,Chrome,1440,900,,,,,,,,,,,,,,,,,,,,,,,160,F,circle,1,1,f,0,6,0,6,0,1,1.0988,,,,,,,,,,,,,,,,,,,,,,,,,,,,,,,,,,,,,,,,,
295078,2022-10-03_14h24.09.223,vts_reward_expectancy,2022.2.4,MacIntel,60.0024001,Chrome,1440,900,,,,,,,,,,,,,,,,,,,,,,,174,Y,hexagon,1,0,f,0,7,0,7,0,1,0.6032,,,,,,,,,,,,,,,,,,,,,,,,,,,,,,,,,,,,,,,,,
295078,2022-10-03_14h24.09.223,vts_reward_expectancy,2022.2.4,MacIntel,60.0024001,Chrome,1440,900,,,,,,,,,,,,,,,,,,,,,,,125,W,star,1,0,d,0,8,0,8,0,1,0.4952,,,,,,,,,,,,,,,,,,,,,,,,,,,,,,,,,,,,,,,,,
295078,2022-10-03_14h24.09.223,vts_reward_expectancy,2022.2.4,MacIntel,60.0024001,Chrome,1440,900,,,,,,,,,,,,,,,,,,,,,,,167,H,circle,1,0,f,0,9,0,9,0,1,0.4879,,,,,,,,,,,,,,,,,,,,,,,,,,,,,,,,,,,,,,,,,
295078,2022-10-03_14h24.09.223,vts_reward_expectancy,2022.2.4,MacIntel,60.0024001,Chrome,1440,900,,,,,,,,,,,,,,,,,,,,,,,167,S,circle,1,0,f,1,0,0,0,0,1,0.5679,,,,,,,,,,,,,,,,,,,,,,,,,,,,,,,,,,,,,,,,,
295078,2022-10-03_14h24.09.223,vts_reward_expectancy,2022.2.4,MacIntel,60.0024001,Chrome,1440,900,,,,,,,,,,,,,,,,,,,,,,,160,D,hexagon,1,0,f,1,1,0,1,0,1,0.464,,,,,,,,,,,,,,,,,,,,,,,,,,,,,,,,,,,,,,,,,
295078,2022-10-03_14h24.09.223,vts_reward_expectancy,2022.2.4,MacIntel,60.0024001,Chrome,1440,900,,,,,,,,,,,,,,,,,,,,,,,146,W,star,0,0,f,1,2,0,2,0,1,0.9637,,,,,,,,,,,,,,,,,,,,,,,,,,,,,,,,,,,,,,,,,
295078,2022-10-03_14h24.09.223,vts_reward_expectancy,2022.2.4,MacIntel,60.0024001,Chrome,1440,900,,,,,,,,,,,,,,,,,,,,,,,174,H,triangle,1,1,f,1,3,0,3,0,1,0.6133,,,,,,,,,,,,,,,,,,,,,,,,,,,,,,,,,,,,,,,,,
295078,2022-10-03_14h24.09.223,vts_reward_expectancy,2022.2.4,MacIntel,60.0024001,Chrome,1440,900,,,,,,,,,,,,,,,,,,,,,,,125,Y,circle,1,0,d,1,4,0,4,0,1,0.5953,,,,,,,,,,,,,,,,,,,,,,,,,,,,,,,,,,,,,,,,,
295078,2022-10-03_14h24.09.223,vts_reward_expectancy,2022.2.4,MacIntel,60.0024001,Chrome,1440,900,,,,,,,,,,,,,,,,,,,,,,,139,F,hexagon,1,0,d,1,5,0,5,0,1,0.6137,,,,,,,,,,,,,,,,,,,,,,,,,,,,,,,,,,,,,,,,,
295078,2022-10-03_14h24.09.223,vts_reward_expectancy,2022.2.4,MacIntel,60.0024001,Chrome,1440,900,,,,,,,,,,,,,,,,,,,,,,,181,B,star,1,0,f,1,6,0,6,0,1,0.4949,,,,,,,,,,,,,,,,,,,,,,,,,,,,,,,,,,,,,,,,,
295078,2022-10-03_14h24.09.223,vts_reward_expectancy,2022.2.4,MacIntel,60.0024001,Chrome,1440,900,,,,,,,,,,,,,,,,,,,,,,,132,U,triangle,1,0,d,1,7,0,7,0,1,0.7138,,,,,,,,,,,,,,,,,,,,,,,,,,,,,,,,,,,,,,,,,
295078,2022-10-03_14h24.09.223,vts_reward_expectancy,2022.2.4,MacIntel,60.0024001,Chrome,1440,900,,,,,,,,,,,,,,,,,,,,,,,167,S,hexagon,1,0,f,1,8,0,8,0,1,0.5298,,,,,,,,,,,,,,,,,,,,,,,,,,,,,,,,,,,,,,,,,
295078,2022-10-03_14h24.09.223,vts_reward_expectancy,2022.2.4,MacIntel,60.0024001,Chrome,1440,900,,,,,,,,,,,,,,,,,,,,,,,160,D,star,1,0,f,1,9,0,9,0,1,0.4968,,,,,,,,,,,,,,,,,,,,,,,,,,,,,,,,,,,,,,,,,
295078,2022-10-03_14h24.09.223,vts_reward_expectancy,2022.2.4,MacIntel,60.0024001,Chrome,1440,900,,,,,,,,,,,,,,,,,,,,,,,125,H,triangle,1,0,,2,,,,,,,j,1.3492,0,0,0,0,1,,,,,,,,,,,,,,,,,,,,,,,,,,,,,,,,,,
295078,2022-10-03_14h24.09.223,vts_reward_expectancy,2022.2.4,MacIntel,60.0024001,Chrome,1440,900,,,,,,,,,,,,,,,,,,,,,,,132,B,circle,1,0,,2,,,,,,,j,0.5166,1,0,1,0,1,,,,,,,,,,,,,,,,,,,,,,,,,,,,,,,,,,
295078,2022-10-03_14h24.09.223,vts_reward_expectancy,2022.2.4,MacIntel,60.0024001,Chrome,1440,900,,,,,,,,,,,,,,,,,,,,,,,160,W,hexagon,1,0,,2,,,,,,,k,0.5789,2,0,2,0,1,,,,,,,,,,,,,,,,,,,,,,,,,,,,,,,,,,
295078,2022-10-03_14h24.09.223,vts_reward_expectancy,2022.2.4,MacIntel,60.0024001,Chrome,1440,900,,,,,,,,,,,,,,,,,,,,,,,174,F,star,1,0,,2,,,,,,,j,0.4807,3,0,3,0,1,,,,,,,,,,,,,,,,,,,,,,,,,,,,,,,,,,
295078,2022-10-03_14h24.09.223,vts_reward_expectancy,2022.2.4,MacIntel,60.0024001,Chrome,1440,900,,,,,,,,,,,,,,,,,,,,,,,139,U,triangle,1,0,,2,,,,,,,k,0.6463,4,0,4,0,1,,,,,,,,,,,,,,,,,,,,,,,,,,,,,,,,,,
295078,2022-10-03_14h24.09.223,vts_reward_expectancy,2022.2.4,MacIntel,60.0024001,Chrome,1440,900,,,,,,,,,,,,,,,,,,,,,,,167,Y,circle,1,0,,2,,,,,,,k,0.5961,5,0,5,0,1,,,,,,,,,,,,,,,,,,,,,,,,,,,,,,,,,,
295078,2022-10-03_14h24.09.223,vts_reward_expectancy,2022.2.4,MacIntel,60.0024001,Chrome,1440,900,,,,,,,,,,,,,,,,,,,,,,,146,D,hexagon,1,0,,2,,,,,,,j,0.6382,6,0,6,0,1,,,,,,,,,,,,,,,,,,,,,,,,,,,,,,,,,,
295078,2022-10-03_14h24.09.223,vts_reward_expectancy,2022.2.4,MacIntel,60.0024001,Chrome,1440,900,,,,,,,,,,,,,,,,,,,,,,,181,S,star,1,0,,2,,,,,,,k,0.5633,7,0,7,0,1,,,,,,,,,,,,,,,,,,,,,,,,,,,,,,,,,,
295078,2022-10-03_14h24.09.223,vts_reward_expectancy,2022.2.4,MacIntel,60.0024001,Chrome,1440,900,,,,,,,,,,,,,,,,,,,,,,,125,H,triangle,1,0,,2,,,,,,,j,0.8209,8,0,8,0,1,,,,,,,,,,,,,,,,,,,,,,,,,,,,,,,,,,
295078,2022-10-03_14h24.09.223,vts_reward_expectancy,2022.2.4,MacIntel,60.0024001,Chrome,1440,900,,,,,,,,,,,,,,,,,,,,,,,132,B,hexagon,1,0,,2,,,,,,,j,0.8308,9,0,9,0,1,,,,,,,,,,,,,,,,,,,,,,,,,,,,,,,,,,
295078,2022-10-03_14h24.09.223,vts_reward_expectancy,2022.2.4,MacIntel,60.0024001,Chrome,1440,900,,,,,0,621,,,,,,,,,,,,,,,,,181,W,hexagon,1,0,,3,,,,,,,,,,,,,,-1,number,NA,f,2.0417,vtsPrac,0,0,0,0,1,,,,,,,,,,,,,,,,,,,,,,,
295078,2022-10-03_14h24.09.223,vts_reward_expectancy,2022.2.4,MacIntel,60.0024001,Chrome,1440,900,,,,,0,621,,,,,,,,,,,,,,,,,160,S,circle,1,0,,3,,,,,,,,,,,,,,repeat,number,numRpt,f,0.8142,vtsPrac,1,0,1,0,1,,,,,,,,,,,,,,,,,,,,,,,
295078,2022-10-03_14h24.09.223,vts_reward_expectancy,2022.2.4,MacIntel,60.0024001,Chrome,1440,900,,,,,0,621,,,,,,,,,,,,,,,,,146,B,hexagon,1,0,,3,,,,,,,,,,,,,,switch,letter,lettSwt,j,0.5798,vtsPrac,2,0,2,0,1,,,,,,,,,,,,,,,,,,,,,,,
295078,2022-10-03_14h24.09.223,vts_reward_expectancy,2022.2.4,MacIntel,60.0024001,Chrome,1440,900,,,,,0,621,,,,,,,,,,,,,,,,,125,Y,circle,1,0,,3,,,,,,,,,,,,,,repeat,letter,lettRpt,k,0.6961,vtsPrac,3,0,3,0,1,,,,,,,,,,,,,,,,,,,,,,,
295078,2022-10-03_14h24.09.223,vts_reward_expectancy,2022.2.4,MacIntel,60.0024001,Chrome,1440,900,,,,,0,621,,,,,,,,,,,,,,,,,181,W,triangle,1,0,,3,,,,,,,,,,,,,,switch,number,numSwt,f,1.3387,vtsPrac,4,0,4,0,1,,,,,,,,,,,,,,,,,,,,,,,
295078,2022-10-03_14h24.09.223,vts_reward_expectancy,2022.2.4,MacIntel,60.0024001,Chrome,1440,900,,,,,0,621,,,,,,,,,,,,,,,,,160,S,star,1,0,,3,,,,,,,,,,,,,,switch,letter,lettSwt,k,0.789,vtsPrac,5,0,5,0,1,,,,,,,,,,,,,,,,,,,,,,,
295078,2022-10-03_14h24.09.223,vts_reward_expectancy,2022.2.4,MacIntel,60.0024001,Chrome,1440,900,,,,,0,621,,,,,,,,,,,,,,,,,146,B,circle,1,0,,3,,,,,,,,,,,,,,repeat,letter,lettRpt,j,0.7889,vtsPrac,6,0,6,0,1,,,,,,,,,,,,,,,,,,,,,,,
295078,2022-10-03_14h24.09.223,vts_reward_expectancy,2022.2.4,MacIntel,60.0024001,Chrome,1440,900,,,,,0,621,,,,,,,,,,,,,,,,,125,Y,hexagon,1,0,,3,,,,,,,,,,,,,,repeat,letter,lettRpt,k,0.7374,vtsPrac,7,0,7,0,1,,,,,,,,,,,,,,,,,,,,,,,
295078,2022-10-03_14h24.09.223,vts_reward_expectancy,2022.2.4,MacIntel,60.0024001,Chrome,1440,900,,,,,0,621,,,,,,,,,,,,,,,,,146,S,star,1,0,,3,,,,,,,,,,,,,,repeat,letter,lettRpt,k,0.6809,vtsPrac,8,0,8,0,1,,,,,,,,,,,,,,,,,,,,,,,
295078,2022-10-03_14h24.09.223,vts_reward_expectancy,2022.2.4,MacIntel,60.0024001,Chrome,1440,900,,,,,0,621,,,,,,,,,,,,,,,,,125,W,triangle,1,0,,3,,,,,,,,,,,,,,switch,number,numSwt,d,0.6996,vtsPrac,9,0,9,0,1,,,,,,,,,,,,,,,,,,,,,,,
295078,2022-10-03_14h24.09.223,vts_reward_expectancy,2022.2.4,MacIntel,60.0024001,Chrome,1440,900,,,,,0,621,,,,,,,,,,,,,,,,,160,U,hexagon,1,0,,3,,,,,,,,,,,,,,switch,letter,lettSwt,k,0.714,vtsPrac,10,0,10,0,1,,,,,,,,,,,,,,,,,,,,,,,
295078,2022-10-03_14h24.09.223,vts_reward_expectancy,2022.2.4,MacIntel,60.0024001,Chrome,1440,900,,,,,0,621,,,,,,,,,,,,,,,,,139,F,star,1,0,,3,,,,,,,,,,,,,,switch,number,numSwt,d,0.916,vtsPrac,11,0,11,0,1,,,,,,,,,,,,,,,,,,,,,,,
295078,2022-10-03_14h24.09.223,vts_reward_expectancy,2022.2.4,MacIntel,60.0024001,Chrome,1440,900,,,,,0,621,,,,,,,,,,,,,,,,,139,H,hexagon,1,0,,3,,,,,,,,,,,,,,repeat,number,numRpt,d,0.5509,vtsPrac,12,0,12,0,1,,,,,,,,,,,,,,,,,,,,,,,
295078,2022-10-03_14h24.09.223,vts_reward_expectancy,2022.2.4,MacIntel,60.0024001,Chrome,1440,900,,,,,0,621,,,,,,,,,,,,,,,,,174,S,triangle,1,0,,3,,,,,,,,,,,,,,switch,letter,lettSwt,k,0.8276,vtsPrac,13,0,13,0,1,,,,,,,,,,,,,,,,,,,,,,,
295078,2022-10-03_14h24.09.223,vts_reward_expectancy,2022.2.4,MacIntel,60.0024001,Chrome,1440,900,,,,,0,621,,,,,,,,,,,,,,,,,132,W,star,1,0,,3,,,,,,,,,,,,,,switch,number,numSwt,d,1.0959,vtsPrac,14,0,14,0,1,,,,,,,,,,,,,,,,,,,,,,,
295078,2022-10-03_14h24.09.223,vts_reward_expectancy,2022.2.4,MacIntel,60.0024001,Chrome,1440,900,,,,,0,621,,,,,,,,,,,,,,,,,167,U,hexagon,0,0,,3,,,,,,,,,,,,,,repeat,number,NA,d,1.1108,vtsPrac,15,0,15,0,1,,,,,,,,,,,,,,,,,,,,,,,
295078,2022-10-03_14h24.09.223,vts_reward_expectancy,2022.2.4,MacIntel,60.0024001,Chrome,1440,900,,,,,,,,,,,,,,,,,,,,,,,,,,,,,,,,,,,,,,,,,,,,,,,,,,,,,,,,,,,,,,,,,,,,,,,,,,,,
295078,2022-10-03_14h24.09.223,vts_reward_expectancy,2022.2.4,MacIntel,60.0024001,Chrome,1440,900,,,,,,,,,,,,,,,,,,,,,,,,,,,,,,,,,,,,,,,,,,,,,,,,,,,,,,,,,,,,,,,,,,,,,,,,,,,,
295078,2022-10-03_14h24.09.223,vts_reward_expectancy,2022.2.4,MacIntel,60.0024001,Chrome,1440,900,,,,,0,621,,,,,,,,,,,,,,,,,167,H,circle,0,1,,,,,,,,,,,,,,,,repeat,number,NA,d,1.0022,noRew,,,,,,0,0,0,0,0,1,,,,,,,,,,,,,,,,,
295078,2022-10-03_14h24.09.223,vts_reward_expectancy,2022.2.4,MacIntel,60.0024001,Chrome,1440,900,,,,,0,621,,,,,,,,,,,,,,,,,160,B,hexagon,0,1,,,,,,,,,,,,,,,,repeat,number,NA,d,0.972,noRew,,,,,,0,1,0,1,0,1,,,,,,,,,,,,,,,,,
295078,2022-10-03_14h24.09.223,vts_reward_expectancy,2022.2.4,MacIntel,60.0024001,Chrome,1440,900,,,,,0,621,,,,,,,,,,,,,,,,,125,W,circle,1,1,,,,,,,,,,,,,,,,switch,letter,lettSwt,k,0.671,noRew,,,,,,0,2,0,2,0,1,,,,,,,,,,,,,,,,,
295078,2022-10-03_14h24.09.223,vts_reward_expectancy,2022.2.4,MacIntel,60.0024001,Chrome,1440,900,,,,,0,621,,,,,,,,,,,,,,,,,174,U,hexagon,1,0,,,,,,,,,,,,,,,,repeat,letter,lettRpt,k,1.1128,noRew,,,,,,0,3,0,3,0,1,,,,,,,,,,,,,,,,,
295078,2022-10-03_14h24.09.223,vts_reward_expectancy,2022.2.4,MacIntel,60.0024001,Chrome,1440,900,,,,,0,621,,,,,,,,,,,,,,,,,167,H,triangle,1,0,,,,,,,,,,,,,,,,switch,number,numSwt,f,0.4738,noRew,,,,,,0,4,0,4,0,1,,,,,,,,,,,,,,,,,
295078,2022-10-03_14h24.09.223,vts_reward_expectancy,2022.2.4,MacIntel,60.0024001,Chrome,1440,900,,,,,0,621,,,,,,,,,,,,,,,,,160,B,circle,1,0,,,,,,,,,,,,,,,,repeat,number,numRpt,f,0.7817,noRew,,,,,,0,5,0,5,0,1,,,,,,,,,,,,,,,,,
295078,2022-10-03_14h24.09.223,vts_reward_expectancy,2022.2.4,MacIntel,60.0024001,Chrome,1440,900,,,,,0,621,,,,,,,,,,,,,,,,,125,W,star,1,0,,,,,,,,,,,,,,,,switch,letter,lettSwt,k,1.0635,noRew,,,,,,0,6,0,6,0,1,,,,,,,,,,,,,,,,,
295078,2022-10-03_14h24.09.223,vts_reward_expectancy,2022.2.4,MacIntel,60.0024001,Chrome,1440,900,,,,,0,621,,,,,,,,,,,,,,,,,174,U,triangle,1,0,,,,,,,,,,,,,,,,switch,number,numSwt,f,0.8683,noRew,,,,,,0,7,0,7,0,1,,,,,,,,,,,,,,,,,
295078,2022-10-03_14h24.09.223,vts_reward_expectancy,2022.2.4,MacIntel,60.0024001,Chrome,1440,900,,,,,0,621,,,,,,,,,,,,,,,,,181,W,circle,1,0,,,,,,,,,,,,,,,,switch,letter,lettSwt,k,0.5468,noRew,,,,,,0,8,0,8,0,1,,,,,,,,,,,,,,,,,
295078,2022-10-03_14h24.09.223,vts_reward_expectancy,2022.2.4,MacIntel,60.0024001,Chrome,1440,900,,,,,0,621,,,,,,,,,,,,,,,,,125,D,hexagon,1,0,,,,,,,,,,,,,,,,repeat,letter,lettRpt,j,0.6127,noRew,,,,,,0,9,0,9,0,1,,,,,,,,,,,,,,,,,
295078,2022-10-03_14h24.09.223,vts_reward_expectancy,2022.2.4,MacIntel,60.0024001,Chrome,1440,900,,,,,0,621,,,,,,,,,,,,,,,,,174,F,triangle,1,0,,,,,,,,,,,,,,,,switch,number,numSwt,f,0.7702,noRew,,,,,,0,10,0,10,0,1,,,,,,,,,,,,,,,,,
295078,2022-10-03_14h24.09.223,vts_reward_expectancy,2022.2.4,MacIntel,60.0024001,Chrome,1440,900,,,,,0,621,,,,,,,,,,,,,,,,,167,B,star,1,0,,,,,,,,,,,,,,,,repeat,number,numRpt,f,0.7954,noRew,,,,,,0,11,0,11,0,1,,,,,,,,,,,,,,,,,
295078,2022-10-03_14h24.09.223,vts_reward_expectancy,2022.2.4,MacIntel,60.0024001,Chrome,1440,900,,,,,0,621,,,,,,,,,,,,,,,,,174,H,circle,1,0,,,,,,,,,,,,,,,,repeat,number,numRpt,f,0.7541,noRew,,,,,,0,12,0,12,0,1,,,,,,,,,,,,,,,,,
295078,2022-10-03_14h24.09.223,vts_reward_expectancy,2022.2.4,MacIntel,60.0024001,Chrome,1440,900,,,,,0,621,,,,,,,,,,,,,,,,,167,F,star,1,0,,,,,,,,,,,,,,,,switch,letter,lettSwt,j,0.6978,noRew,,,,,,0,13,0,13,0,1,,,,,,,,,,,,,,,,,
295078,2022-10-03_14h24.09.223,vts_reward_expectancy,2022.2.4,MacIntel,60.0024001,Chrome,1440,900,,,,,0,621,,,,,,,,,,,,,,,,,125,S,hexagon,1,0,,,,,,,,,,,,,,,,repeat,letter,lettRpt,k,0.7063,noRew,,,,,,0,14,0,14,0,1,,,,,,,,,,,,,,,,,
295078,2022-10-03_14h24.09.223,vts_reward_expectancy,2022.2.4,MacIntel,60.0024001,Chrome,1440,900,,,,,0,621,,,,,,,,,,,,,,,,,132,B,star,1,0,,,,,,,,,,,,,,,,switch,number,numSwt,d,0.9957,noRew,,,,,,0,15,0,15,0,1,,,,,,,,,,,,,,,,,
295078,2022-10-03_14h24.09.223,vts_reward_expectancy,2022.2.4,MacIntel,60.0024001,Chrome,1440,900,,,,,0,621,,,,,,,,,,,,,,,,,125,F,triangle,1,0,,,,,,,,,,,,,,,,repeat,number,numRpt,d,1.0301,noRew,,,,,,0,16,0,16,0,1,,,,,,,,,,,,,,,,,
295078,2022-10-03_14h24.09.223,vts_reward_expectancy,2022.2.4,MacIntel,60.0024001,Chrome,1440,900,,,,,0,621,,,,,,,,,,,,,,,,,174,U,circle,1,0,,,,,,,,,,,,,,,,repeat,number,numRpt,f,1.6052,noRew,,,,,,0,17,0,17,0,1,,,,,,,,,,,,,,,,,
295078,2022-10-03_14h24.09.223,vts_reward_expectancy,2022.2.4,MacIntel,60.0024001,Chrome,1440,900,,,,,0,621,,,,,,,,,,,,,,,,,139,D,triangle,1,0,,,,,,,,,,,,,,,,switch,letter,lettSwt,j,0.683,noRew,,,,,,0,18,0,18,0,1,,,,,,,,,,,,,,,,,
295078,2022-10-03_14h24.09.223,vts_reward_expectancy,2022.2.4,MacIntel,60.0024001,Chrome,1440,900,,,,,0,621,,,,,,,,,,,,,,,,,146,W,star,1,0,,,,,,,,,,,,,,,,repeat,letter,lettRpt,k,0.651,noRew,,,,,,0,19,0,19,0,1,,,,,,,,,,,,,,,,,
295078,2022-10-03_14h24.09.223,vts_reward_expectancy,2022.2.4,MacIntel,60.0024001,Chrome,1440,900,,,,,0,621,,,,,,,,,,,,,,,,,146,D,circle,1,0,,,,,,,,,,,,,,,,repeat,letter,lettRpt,j,0.6816,noRew,,,,,,0,20,0,20,0,1,,,,,,,,,,,,,,,,,
295078,2022-10-03_14h24.09.223,vts_reward_expectancy,2022.2.4,MacIntel,60.0024001,Chrome,1440,900,,,,,0,621,,,,,,,,,,,,,,,,,167,B,star,1,0,,,,,,,,,,,,,,,,switch,number,numSwt,f,0.7959,noRew,,,,,,0,21,0,21,0,1,,,,,,,,,,,,,,,,,
295078,2022-10-03_14h24.09.223,vts_reward_expectancy,2022.2.4,MacIntel,60.0024001,Chrome,1440,900,,,,,0,621,,,,,,,,,,,,,,,,,132,W,star,1,0,,,,,,,,,,,,,,,,repeat,number,numRpt,d,1.1632,noRew,,,,,,0,22,0,22,0,1,,,,,,,,,,,,,,,,,
295078,2022-10-03_14h24.09.223,vts_reward_expectancy,2022.2.4,MacIntel,60.0024001,Chrome,1440,900,,,,,0,621,,,,,,,,,,,,,,,,,139,F,triangle,1,0,,,,,,,,,,,,,,,,switch,letter,lettSwt,j,0.9808,noRew,,,,,,0,23,0,23,0,1,,,,,,,,,,,,,,,,,
295078,2022-10-03_14h24.09.223,vts_reward_expectancy,2022.2.4,MacIntel,60.0024001,Chrome,1440,900,,,,,0,621,,,,,,,,,,,,,,,,,125,S,triangle,1,0,,,,,,,,,,,,,,,,repeat,letter,lettRpt,k,0.6635,noRew,,,,,,0,24,0,24,0,1,,,,,,,,,,,,,,,,,
295078,2022-10-03_14h24.09.223,vts_reward_expectancy,2022.2.4,MacIntel,60.0024001,Chrome,1440,900,,,,,0,621,,,,,,,,,,,,,,,,,167,D,hexagon,1,0,,,,,,,,,,,,,,,,switch,number,numSwt,f,0.7503,noRew,,,,,,0,25,0,25,0,1,,,,,,,,,,,,,,,,,
295078,2022-10-03_14h24.09.223,vts_reward_expectancy,2022.2.4,MacIntel,60.0024001,Chrome,1440,900,,,,,0,621,,,,,,,,,,,,,,,,,174,Y,triangle,1,0,,,,,,,,,,,,,,,,repeat,number,numRpt,f,0.9171,noRew,,,,,,0,26,0,26,0,1,,,,,,,,,,,,,,,,,
295078,2022-10-03_14h24.09.223,vts_reward_expectancy,2022.2.4,MacIntel,60.0024001,Chrome,1440,900,,,,,0,621,,,,,,,,,,,,,,,,,139,F,star,1,0,,,,,,,,,,,,,,,,repeat,number,numRpt,d,1.0782,noRew,,,,,,0,27,0,27,0,1,,,,,,,,,,,,,,,,,
295078,2022-10-03_14h24.09.223,vts_reward_expectancy,2022.2.4,MacIntel,60.0024001,Chrome,1440,900,,,,,0,621,,,,,,,,,,,,,,,,,139,F,triangle,1,0,,,,,,,,,,,,,,,,repeat,number,numRpt,d,0.7249,noRew,,,,,,0,28,0,28,0,1,,,,,,,,,,,,,,,,,
295078,2022-10-03_14h24.09.223,vts_reward_expectancy,2022.2.4,MacIntel,60.0024001,Chrome,1440,900,,,,,0,621,,,,,,,,,,,,,,,,,167,U,circle,1,0,,,,,,,,,,,,,,,,repeat,number,numRpt,f,1.4311,noRew,,,,,,0,29,0,29,0,1,,,,,,,,,,,,,,,,,
295078,2022-10-03_14h24.09.223,vts_reward_expectancy,2022.2.4,MacIntel,60.0024001,Chrome,1440,900,,,,,0,621,,,,,,,,,,,,,,,,,132,H,hexagon,1,0,,,,,,,,,,,,,,,,switch,letter,lettSwt,j,0.7168,noRew,,,,,,0,30,0,30,0,1,,,,,,,,,,,,,,,,,
295078,2022-10-03_14h24.09.223,vts_reward_expectancy,2022.2.4,MacIntel,60.0024001,Chrome,1440,900,,,,,0,621,,,,,,,,,,,,,,,,,181,D,circle,1,0,,,,,,,,,,,,,,,,repeat,letter,lettRpt,j,0.6035,noRew,,,,,,0,31,0,31,0,1,,,,,,,,,,,,,,,,,
295078,2022-10-03_14h24.09.223,vts_reward_expectancy,2022.2.4,MacIntel,60.0024001,Chrome,1440,900,,,,,0,621,,,,,,,,,,,,,,,,,146,F,star,1,0,,,,,,,,,,,,,,,,repeat,letter,lettRpt,j,0.7025,noRew,,,,,,0,32,0,32,0,1,,,,,,,,,,,,,,,,,
295078,2022-10-03_14h24.09.223,vts_reward_expectancy,2022.2.4,MacIntel,60.0024001,Chrome,1440,900,,,,,0,621,,,,,,,,,,,,,,,,,181,W,triangle,1,0,,,,,,,,,,,,,,,,switch,number,numSwt,f,0.8809,noRew,,,,,,0,33,0,33,0,1,,,,,,,,,,,,,,,,,
295078,2022-10-03_14h24.09.223,vts_reward_expectancy,2022.2.4,MacIntel,60.0024001,Chrome,1440,900,,,,,0,621,,,,,,,,,,,,,,,,,174,B,hexagon,1,0,,,,,,,,,,,,,,,,switch,letter,lettSwt,j,0.4466,noRew,,,,,,0,34,0,34,0,1,,,,,,,,,,,,,,,,,
295078,2022-10-03_14h24.09.223,vts_reward_expectancy,2022.2.4,MacIntel,60.0024001,Chrome,1440,900,,,,,0,621,,,,,,,,,,,,,,,,,139,D,star,1,0,,,,,,,,,,,,,,,,switch,number,numSwt,d,0.7118,noRew,,,,,,0,35,0,35,0,1,,,,,,,,,,,,,,,,,
295078,2022-10-03_14h24.09.223,vts_reward_expectancy,2022.2.4,MacIntel,60.0024001,Chrome,1440,900,,,,,0,621,,,,,,,,,,,,,,,,,174,D,hexagon,1,0,,,,,,,,,,,,,,,,repeat,number,numRpt,f,0.5984,noRew,,,,,,0,36,0,36,0,1,,,,,,,,,,,,,,,,,
295078,2022-10-03_14h24.09.223,vts_reward_expectancy,2022.2.4,MacIntel,60.0024001,Chrome,1440,900,,,,,0,621,,,,,,,,,,,,,,,,,139,W,triangle,1,0,,,,,,,,,,,,,,,,switch,letter,lettSwt,k,0.5865,noRew,,,,,,0,37,0,37,0,1,,,,,,,,,,,,,,,,,
295078,2022-10-03_14h24.09.223,vts_reward_expectancy,2022.2.4,MacIntel,60.0024001,Chrome,1440,900,,,,,0,621,,,,,,,,,,,,,,,,,125,U,star,1,0,,,,,,,,,,,,,,,,repeat,letter,lettRpt,k,0.7298,noRew,,,,,,0,38,0,38,0,1,,,,,,,,,,,,,,,,,
295078,2022-10-03_14h24.09.223,vts_reward_expectancy,2022.2.4,MacIntel,60.0024001,Chrome,1440,900,,,,,0,621,,,,,,,,,,,,,,,,,160,Y,triangle,1,0,,,,,,,,,,,,,,,,switch,number,numSwt,f,1.0652,noRew,,,,,,0,39,0,39,0,1,,,,,,,,,,,,,,,,,
295078,2022-10-03_14h24.09.223,vts_reward_expectancy,2022.2.4,MacIntel,60.0024001,Chrome,1440,900,,,,,0,621,,,,,,,,,,,,,,,,,174,W,hexagon,1,0,,,,,,,,,,,,,,,,repeat,number,numRpt,f,0.8713,noRew,,,,,,0,40,0,40,0,1,,,,,,,,,,,,,,,,,
295078,2022-10-03_14h24.09.223,vts_reward_expectancy,2022.2.4,MacIntel,60.0024001,Chrome,1440,900,,,,,0,621,,,,,,,,,,,,,,,,,132,U,circle,1,0,,,,,,,,,,,,,,,,switch,letter,lettSwt,k,0.8977,noRew,,,,,,0,41,0,41,0,1,,,,,,,,,,,,,,,,,
295078,2022-10-03_14h24.09.223,vts_reward_expectancy,2022.2.4,MacIntel,60.0024001,Chrome,1440,900,,,,,0,621,,,,,,,,,,,,,,,,,160,H,triangle,1,0,,,,,,,,,,,,,,,,repeat,letter,lettRpt,j,1.0634,noRew,,,,,,0,42,0,42,0,1,,,,,,,,,,,,,,,,,
295078,2022-10-03_14h24.09.223,vts_reward_expectancy,2022.2.4,MacIntel,60.0024001,Chrome,1440,900,,,,,0,621,,,,,,,,,,,,,,,,,125,S,star,1,0,,,,,,,,,,,,,,,,switch,number,numSwt,d,0.9715,noRew,,,,,,0,43,0,43,0,1,,,,,,,,,,,,,,,,,
295078,2022-10-03_14h24.09.223,vts_reward_expectancy,2022.2.4,MacIntel,60.0024001,Chrome,1440,900,,,,,0,621,,,,,,,,,,,,,,,,,181,Y,circle,1,0,,,,,,,,,,,,,,,,repeat,number,numRpt,f,1.0352,noRew,,,,,,0,44,0,44,0,1,,,,,,,,,,,,,,,,,
295078,2022-10-03_14h24.09.223,vts_reward_expectancy,2022.2.4,MacIntel,60.0024001,Chrome,1440,900,,,,,0,621,,,,,,,,,,,,,,,,,146,U,star,1,0,,,,,,,,,,,,,,,,repeat,number,numRpt,d,1.1474,noRew,,,,,,0,45,0,45,0,1,,,,,,,,,,,,,,,,,
295078,2022-10-03_14h24.09.223,vts_reward_expectancy,2022.2.4,MacIntel,60.0024001,Chrome,1440,900,,,,,0,621,,,,,,,,,,,,,,,,,132,D,hexagon,1,0,,,,,,,,,,,,,,,,repeat,number,numRpt,d,1.1053,noRew,,,,,,0,46,0,46,0,1,,,,,,,,,,,,,,,,,
295078,2022-10-03_14h24.09.223,vts_reward_expectancy,2022.2.4,MacIntel,60.0024001,Chrome,1440,900,,,,,0,621,,,,,,,,,,,,,,,,,174,F,star,1,0,,,,,,,,,,,,,,,,switch,letter,lettSwt,j,1.1983,noRew,,,,,,0,47,0,47,0,1,,,,,,,,,,,,,,,,,
295078,2022-10-03_14h24.09.223,vts_reward_expectancy,2022.2.4,MacIntel,60.0024001,Chrome,1440,900,,,,,0,621,,,,,,,,,,,,,,,,,167,B,circle,1,0,,,,,,,,,,,,,,,,repeat,letter,lettRpt,j,0.6287,noRew,,,,,,0,48,0,48,0,1,,,,,,,,,,,,,,,,,
295078,2022-10-03_14h24.09.223,vts_reward_expectancy,2022.2.4,MacIntel,60.0024001,Chrome,1440,900,,,,,0,621,,,,,,,,,,,,,,,,,181,Y,star,1,0,,,,,,,,,,,,,,,,repeat,letter,lettRpt,k,0.8015,noRew,,,,,,0,49,0,49,0,1,,,,,,,,,,,,,,,,,
295078,2022-10-03_14h24.09.223,vts_reward_expectancy,2022.2.4,MacIntel,60.0024001,Chrome,1440,900,,,,,0,621,,,,,,,,,,,,,,,,,146,W,star,1,0,,,,,,,,,,,,,,,,repeat,letter,lettRpt,k,0.5475,noRew,,,,,,0,50,0,50,0,1,,,,,,,,,,,,,,,,,
295078,2022-10-03_14h24.09.223,vts_reward_expectancy,2022.2.4,MacIntel,60.0024001,Chrome,1440,900,,,,,0,621,,,,,,,,,,,,,,,,,125,S,triangle,1,0,,,,,,,,,,,,,,,,repeat,letter,lettRpt,k,0.6349,noRew,,,,,,0,51,0,51,0,1,,,,,,,,,,,,,,,,,
295078,2022-10-03_14h24.09.223,vts_reward_expectancy,2022.2.4,MacIntel,60.0024001,Chrome,1440,900,,,,,0,621,,,,,,,,,,,,,,,,,139,D,star,1,0,,,,,,,,,,,,,,,,switch,number,numSwt,d,0.7977,noRew,,,,,,0,52,0,52,0,1,,,,,,,,,,,,,,,,,
295078,2022-10-03_14h24.09.223,vts_reward_expectancy,2022.2.4,MacIntel,60.0024001,Chrome,1440,900,,,,,0,621,,,,,,,,,,,,,,,,,160,U,triangle,1,0,,,,,,,,,,,,,,,,repeat,number,numRpt,f,0.5457,noRew,,,,,,0,53,0,53,0,1,,,,,,,,,,,,,,,,,
295078,2022-10-03_14h24.09.223,vts_reward_expectancy,2022.2.4,MacIntel,60.0024001,Chrome,1440,900,,,,,0,621,,,,,,,,,,,,,,,,,125,B,star,1,0,,,,,,,,,,,,,,,,switch,letter,lettSwt,j,0.6992,noRew,,,,,,0,54,0,54,0,1,,,,,,,,,,,,,,,,,
295078,2022-10-03_14h24.09.223,vts_reward_expectancy,2022.2.4,MacIntel,60.0024001,Chrome,1440,900,,,,,0,621,,,,,,,,,,,,,,,,,132,S,hexagon,1,0,,,,,,,,,,,,,,,,switch,number,numSwt,d,0.4358,noRew,,,,,,0,55,0,55,0,1,,,,,,,,,,,,,,,,,
295078,2022-10-03_14h24.09.223,vts_reward_expectancy,2022.2.4,MacIntel,60.0024001,Chrome,1440,900,,,,,0,621,,,,,,,,,,,,,,,,,132,D,triangle,1,0,,,,,,,,,,,,,,,,switch,letter,lettSwt,j,0.5636,noRew,,,,,,0,56,0,56,0,1,,,,,,,,,,,,,,,,,
295078,2022-10-03_14h24.09.223,vts_reward_expectancy,2022.2.4,MacIntel,60.0024001,Chrome,1440,900,,,,,0,621,,,,,,,,,,,,,,,,,181,U,circle,1,0,,,,,,,,,,,,,,,,repeat,letter,lettRpt,k,0.5706,noRew,,,,,,0,57,0,57,0,1,,,,,,,,,,,,,,,,,
295078,2022-10-03_14h24.09.223,vts_reward_expectancy,2022.2.4,MacIntel,60.0024001,Chrome,1440,900,,,,,0,621,,,,,,,,,,,,,,,,,139,Y,circle,1,0,,,,,,,,,,,,,,,,switch,number,numSwt,d,0.7131,noRew,,,,,,0,58,0,58,0,1,,,,,,,,,,,,,,,,,
295078,2022-10-03_14h24.09.223,vts_reward_expectancy,2022.2.4,MacIntel,60.0024001,Chrome,1440,900,,,,,0,621,,,,,,,,,,,,,,,,,125,H,triangle,1,0,,,,,,,,,,,,,,,,repeat,number,numRpt,d,0.5524,noRew,,,,,,0,59,0,59,0,1,,,,,,,,,,,,,,,,,
295078,2022-10-03_14h24.09.223,vts_reward_expectancy,2022.2.4,MacIntel,60.0024001,Chrome,1440,900,,,,,0,621,,,,,,,,,,,,,,,,,139,D,star,1,0,,,,,,,,,,,,,,,,repeat,number,numRpt,d,1.2293,noRew,,,,,,0,60,0,60,0,1,,,,,,,,,,,,,,,,,
295078,2022-10-03_14h24.09.223,vts_reward_expectancy,2022.2.4,MacIntel,60.0024001,Chrome,1440,900,,,,,0,621,,,,,,,,,,,,,,,,,146,B,circle,1,0,,,,,,,,,,,,,,,,switch,letter,lettSwt,j,0.5472,noRew,,,,,,0,61,0,61,0,1,,,,,,,,,,,,,,,,,
295078,2022-10-03_14h24.09.223,vts_reward_expectancy,2022.2.4,MacIntel,60.0024001,Chrome,1440,900,,,,,0,621,,,,,,,,,,,,,,,,,160,W,star,1,0,,,,,,,,,,,,,,,,repeat,letter,lettRpt,k,0.4903,noRew,,,,,,0,62,0,62,0,1,,,,,,,,,,,,,,,,,
295078,2022-10-03_14h24.09.223,vts_reward_expectancy,2022.2.4,MacIntel,60.0024001,Chrome,1440,900,,,,,0,621,,,,,,,,,,,,,,,,,132,U,circle,1,0,,,,,,,,,,,,,,,,switch,number,numSwt,d,0.7134,noRew,,,,,,0,63,0,63,0,1,,,,,,,,,,,,,,,,,
295078,2022-10-03_14h24.09.223,vts_reward_expectancy,2022.2.4,MacIntel,60.0024001,Chrome,1440,900,,,,,,,,,,,,,,,,,,,,,,,,,,,,,,,,,,,,,,,,,,,,,,,,,,,,,,,,,,,,,,,,,,,,,,,,,,,,
295078,2022-10-03_14h24.09.223,vts_reward_expectancy,2022.2.4,MacIntel,60.0024001,Chrome,1440,900,,,,,0,621,,,,,,,,,,,,,,,,,174,H,star,0,0,,,,,,,,,,,,,,,,switch,letter,NA,k,0.8877,noRew,,,,,,0,,,,,,space,6.0083,low,0,0,0,0,1,,,,,,,,,
295078,2022-10-03_14h24.09.223,vts_reward_expectancy,2022.2.4,MacIntel,60.0024001,Chrome,1440,900,,,,,1,622,,,,,,,,,,,,,,,,,160,B,triangle,1,1,,,,,,,,,,,,,,,,switch,number,numSwt,f,0.9294,Lo,,,,,,0,,,,,,,,low,1,0,1,0,1,,,,,,,,,
295078,2022-10-03_14h24.09.223,vts_reward_expectancy,2022.2.4,MacIntel,60.0024001,Chrome,1440,900,,,,,0,622,,,,,,,,,,,,,,,,,139,D,star,0,0,,,,,,,,,,,,,,,,repeat,number,NA,f,0.6657,Lo,,,,,,0,,,,,,,,low,2,0,2,0,1,,,,,,,,,
295078,2022-10-03_14h24.09.223,vts_reward_expectancy,2022.2.4,MacIntel,60.0024001,Chrome,1440,900,,,,,1,623,,,,,,,,,,,,,,,,,167,F,triangle,1,1,,,,,,,,,,,,,,,,switch,letter,lettSwt,j,0.6138,Lo,,,,,,0,,,,,,,,low,3,0,3,0,1,,,,,,,,,
295078,2022-10-03_14h24.09.223,vts_reward_expectancy,2022.2.4,MacIntel,60.0024001,Chrome,1440,900,,,,,1,624,,,,,,,,,,,,,,,,,146,Y,triangle,1,0,,,,,,,,,,,,,,,,repeat,letter,lettRpt,k,0.8296,Lo,,,,,,0,,,,,,,,low,4,0,4,0,1,,,,,,,,,
295078,2022-10-03_14h24.09.223,vts_reward_expectancy,2022.2.4,MacIntel,60.0024001,Chrome,1440,900,,,,,0,624,,,,,,,,,,,,,,,,,181,S,star,1,0,,,,,,,,,,,,,,,,switch,number,numSwt,f,0.8662,Hi,,,,,,0,,,,,,,,low,5,0,5,0,1,,,,,,,,,
295078,2022-10-03_14h24.09.223,vts_reward_expectancy,2022.2.4,MacIntel,60.0024001,Chrome,1440,900,,,,,0,624,,,,,,,,,,,,,,,,,132,U,triangle,0,0,,,,,,,,,,,,,,,,repeat,number,NA,f,0.6953,Hi,,,,,,0,,,,,,,,low,6,0,6,0,1,,,,,,,,,
295078,2022-10-03_14h24.09.223,vts_reward_expectancy,2022.2.4,MacIntel,60.0024001,Chrome,1440,900,,,,,0,624,,,,,,,,,,,,,,,,,125,W,star,0,1,,,,,,,,,,,,,,,,repeat,number,NA,f,0.7552,Hi,,,,,,0,,,,,,,,low,7,0,7,0,1,,,,,,,,,
295078,2022-10-03_14h24.09.223,vts_reward_expectancy,2022.2.4,MacIntel,60.0024001,Chrome,1440,900,,,,,1,625,,,,,,,,,,,,,,,,,174,H,triangle,1,1,,,,,,,,,,,,,,,,switch,letter,lettSwt,j,0.9329,Lo,,,,,,0,,,,,,,,low,8,0,8,0,1,,,,,,,,,
295078,2022-10-03_14h24.09.223,vts_reward_expectancy,2022.2.4,MacIntel,60.0024001,Chrome,1440,900,,,,,0,625,,,,,,,,,,,,,,,,,160,B,star,1,0,,,,,,,,,,,,,,,,repeat,letter,lettRpt,j,0.6648,Hi,,,,,,0,,,,,,,,low,9,0,9,0,1,,,,,,,,,
295078,2022-10-03_14h24.09.223,vts_reward_expectancy,2022.2.4,MacIntel,60.0024001,Chrome,1440,900,,,,,1,626,,,,,,,,,,,,,,,,,139,D,triangle,1,0,,,,,,,,,,,,,,,,repeat,letter,lettRpt,j,0.668,Lo,,,,,,0,,,,,,,,low,10,0,10,0,1,,,,,,,,,
295078,2022-10-03_14h24.09.223,vts_reward_expectancy,2022.2.4,MacIntel,60.0024001,Chrome,1440,900,,,,,0,626,,,,,,,,,,,,,,,,,167,F,star,1,0,,,,,,,,,,,,,,,,repeat,letter,lettRpt,j,0.6631,Hi,,,,,,0,,,,,,,,low,11,0,11,0,1,,,,,,,,,
295078,2022-10-03_14h24.09.223,vts_reward_expectancy,2022.2.4,MacIntel,60.0024001,Chrome,1440,900,,,,,1,627,,,,,,,,,,,,,,,,,146,Y,triangle,1,0,,,,,,,,,,,,,,,,repeat,letter,lettRpt,k,0.6984,Lo,,,,,,0,,,,,,,,low,12,0,12,0,1,,,,,,,,,
295078,2022-10-03_14h24.09.223,vts_reward_expectancy,2022.2.4,MacIntel,60.0024001,Chrome,1440,900,,,,,10,637,,,,,,,,,,,,,,,,,181,S,star,1,0,,,,,,,,,,,,,,,,switch,number,numSwt,f,0.497,Hi,,,,,,0,,,,,,,,low,13,0,13,0,1,,,,,,,,,
295078,2022-10-03_14h24.09.223,vts_reward_expectancy,2022.2.4,MacIntel,60.0024001,Chrome,1440,900,,,,,10,647,,,,,,,,,,,,,,,,,132,U,star,1,0,,,,,,,,,,,,,,,,repeat,number,numRpt,d,0.5519,Hi,,,,,,0,,,,,,,,low,14,0,14,0,1,,,,,,,,,
295078,2022-10-03_14h24.09.223,vts_reward_expectancy,2022.2.4,MacIntel,60.0024001,Chrome,1440,900,,,,,1,648,,,,,,,,,,,,,,,,,125,W,triangle,1,0,,,,,,,,,,,,,,,,repeat,number,numRpt,d,0.9124,Lo,,,,,,0,,,,,,,,low,15,0,15,0,1,,,,,,,,,
295078,2022-10-03_14h24.09.223,vts_reward_expectancy,2022.2.4,MacIntel,60.0024001,Chrome,1440,900,,,,,10,658,,,,,,,,,,,,,,,,,174,S,triangle,1,0,,,,,,,,,,,,,,,,switch,letter,lettSwt,k,0.8321,Lo,,,,,,0,,,,,,,,low,16,0,16,0,1,,,,,,,,,
295078,2022-10-03_14h24.09.223,vts_reward_expectancy,2022.2.4,MacIntel,60.0024001,Chrome,1440,900,,,,,1,659,,,,,,,,,,,,,,,,,125,B,star,1,0,,,,,,,,,,,,,,,,switch,number,numSwt,d,0.5135,Hi,,,,,,0,,,,,,,,low,17,0,17,0,1,,,,,,,,,
295078,2022-10-03_14h24.09.223,vts_reward_expectancy,2022.2.4,MacIntel,60.0024001,Chrome,1440,900,,,,,1,660,,,,,,,,,,,,,,,,,160,W,triangle,1,0,,,,,,,,,,,,,,,,switch,letter,lettSwt,k,0.7794,Lo,,,,,,0,,,,,,,,low,18,0,18,0,1,,,,,,,,,
295078,2022-10-03_14h24.09.223,vts_reward_expectancy,2022.2.4,MacIntel,60.0024001,Chrome,1440,900,,,,,0,660,,,,,,,,,,,,,,,,,167,H,star,1,0,,,,,,,,,,,,,,,,switch,number,numSwt,f,1.0134,Hi,,,,,,0,,,,,,,,low,19,0,19,0,1,,,,,,,,,
295078,2022-10-03_14h24.09.223,vts_reward_expectancy,2022.2.4,MacIntel,60.0024001,Chrome,1440,900,,,,,10,670,,,,,,,,,,,,,,,,,139,F,star,1,0,,,,,,,,,,,,,,,,repeat,number,numRpt,d,0.763,Hi,,,,,,0,,,,,,,,low,20,0,20,0,1,,,,,,,,,
295078,2022-10-03_14h24.09.223,vts_reward_expectancy,2022.2.4,MacIntel,60.0024001,Chrome,1440,900,,,,,1,671,,,,,,,,,,,,,,,,,146,U,triangle,1,0,,,,,,,,,,,,,,,,repeat,number,numRpt,d,0.6973,Lo,,,,,,0,,,,,,,,low,21,0,21,0,1,,,,,,,,,
295078,2022-10-03_14h24.09.223,vts_reward_expectancy,2022.2.4,MacIntel,60.0024001,Chrome,1440,900,,,,,10,681,,,,,,,,,,,,,,,,,181,Y,triangle,1,0,,,,,,,,,,,,,,,,switch,letter,lettSwt,k,0.5956,Lo,,,,,,0,,,,,,,,low,22,0,22,0,1,,,,,,,,,
295078,2022-10-03_14h24.09.223,vts_reward_expectancy,2022.2.4,MacIntel,60.0024001,Chrome,1440,900,,,,,10,691,,,,,,,,,,,,,,,,,132,D,star,1,0,,,,,,,,,,,,,,,,switch,number,numSwt,d,0.4794,Hi,,,,,,0,,,,,,,,low,23,0,23,0,1,,,,,,,,,
295078,2022-10-03_14h24.09.223,vts_reward_expectancy,2022.2.4,MacIntel,60.0024001,Chrome,1440,900,,,,,0,691,,,,,,,,,,,,,,,,,160,F,star,1,0,,,,,,,,,,,,,,,,repeat,number,numRpt,f,0.8458,Hi,,,,,,0,,,,,,,,low,24,0,24,0,1,,,,,,,,,
295078,2022-10-03_14h24.09.223,vts_reward_expectancy,2022.2.4,MacIntel,60.0024001,Chrome,1440,900,,,,,10,701,,,,,,,,,,,,,,,,,132,B,triangle,1,0,,,,,,,,,,,,,,,,switch,letter,lettSwt,j,0.4902,Lo,,,,,,0,,,,,,,,low,25,0,25,0,1,,,,,,,,,
295078,2022-10-03_14h24.09.223,vts_reward_expectancy,2022.2.4,MacIntel,60.0024001,Chrome,1440,900,,,,,10,711,,,,,,,,,,,,,,,,,139,W,triangle,1,0,,,,,,,,,,,,,,,,repeat,letter,lettRpt,k,0.4623,Lo,,,,,,0,,,,,,,,low,26,0,26,0,1,,,,,,,,,
295078,2022-10-03_14h24.09.223,vts_reward_expectancy,2022.2.4,MacIntel,60.0024001,Chrome,1440,900,,,,,1,712,,,,,,,,,,,,,,,,,146,Y,star,1,0,,,,,,,,,,,,,,,,switch,number,numSwt,d,0.613,Hi,,,,,,0,,,,,,,,low,27,0,27,0,1,,,,,,,,,
295078,2022-10-03_14h24.09.223,vts_reward_expectancy,2022.2.4,MacIntel,60.0024001,Chrome,1440,900,,,,,1,713,,,,,,,,,,,,,,,,,167,D,triangle,1,0,,,,,,,,,,,,,,,,switch,letter,lettSwt,j,0.5292,Lo,,,,,,0,,,,,,,,low,28,0,28,0,1,,,,,,,,,
295078,2022-10-03_14h24.09.223,vts_reward_expectancy,2022.2.4,MacIntel,60.0024001,Chrome,1440,900,,,,,1,714,,,,,,,,,,,,,,,,,181,U,star,1,0,,,,,,,,,,,,,,,,switch,number,numSwt,f,0.3808,Hi,,,,,,0,,,,,,,,low,29,0,29,0,1,,,,,,,,,
295078,2022-10-03_14h24.09.223,vts_reward_expectancy,2022.2.4,MacIntel,60.0024001,Chrome,1440,900,,,,,1,715,,,,,,,,,,,,,,,,,125,H,triangle,1,0,,,,,,,,,,,,,,,,switch,letter,lettSwt,j,0.7512,Lo,,,,,,0,,,,,,,,low,30,0,30,0,1,,,,,,,,,
295078,2022-10-03_14h24.09.223,vts_reward_expectancy,2022.2.4,MacIntel,60.0024001,Chrome,1440,900,,,,,10,725,,,,,,,,,,,,,,,,,174,S,star,1,0,,,,,,,,,,,,,,,,switch,number,numSwt,f,0.3625,Hi,,,,,,0,,,,,,,,low,31,0,31,0,1,,,,,,,,,
295078,2022-10-03_14h24.09.223,vts_reward_expectancy,2022.2.4,MacIntel,60.0024001,Chrome,1440,900,,,,,0,725,,,,,,,,,,,,,,,,,167,H,circle,1,0,,,,,,,,,,,,,,,,switch,letter,lettSwt,j,0.6473,Hi,,,,,,1,,,,,,space,2.0995,high,0,0,0,0,1,,,,,,,,,
295078,2022-10-03_14h24.09.223,vts_reward_expectancy,2022.2.4,MacIntel,60.0024001,Chrome,1440,900,,,,,0,725,,,,,,,,,,,,,,,,,160,S,hexagon,0,0,,,,,,,,,,,,,,,,switch,number,NA,d,0.446,Hi,,,,,,1,,,,,,,,high,1,0,1,0,1,,,,,,,,,
295078,2022-10-03_14h24.09.223,vts_reward_expectancy,2022.2.4,MacIntel,60.0024001,Chrome,1440,900,,,,,0,725,,,,,,,,,,,,,,,,,174,B,circle,0,1,,,,,,,,,,,,,,,,repeat,number,NA,d,0.4157,Hi,,,,,,1,,,,,,,,high,2,0,2,0,1,,,,,,,,,
295078,2022-10-03_14h24.09.223,vts_reward_expectancy,2022.2.4,MacIntel,60.0024001,Chrome,1440,900,,,,,1,726,,,,,,,,,,,,,,,,,139,D,hexagon,1,1,,,,,,,,,,,,,,,,repeat,number,numRpt,d,2.8148,Lo,,,,,,1,,,,,,,,high,3,0,3,0,1,,,,,,,,,
295078,2022-10-03_14h24.09.223,vts_reward_expectancy,2022.2.4,MacIntel,60.0024001,Chrome,1440,900,,,,,0,726,,,,,,,,,,,,,,,,,181,F,circle,1,0,,,,,,,,,,,,,,,,switch,letter,lettSwt,j,0.7289,Hi,,,,,,1,,,,,,,,high,4,0,4,0,1,,,,,,,,,
295078,2022-10-03_14h24.09.223,vts_reward_expectancy,2022.2.4,MacIntel,60.0024001,Chrome,1440,900,,,,,0,726,,,,,,,,,,,,,,,,,146,U,hexagon,0,0,,,,,,,,,,,,,,,,switch,number,NA,f,0.5345,Hi,,,,,,1,,,,,,,,high,5,0,5,0,1,,,,,,,,,
295078,2022-10-03_14h24.09.223,vts_reward_expectancy,2022.2.4,MacIntel,60.0024001,Chrome,1440,900,,,,,1,727,,,,,,,,,,,,,,,,,132,Y,hexagon,1,1,,,,,,,,,,,,,,,,repeat,number,numRpt,d,0.5971,Lo,,,,,,1,,,,,,,,high,6,0,6,0,1,,,,,,,,,
295078,2022-10-03_14h24.09.223,vts_reward_expectancy,2022.2.4,MacIntel,60.0024001,Chrome,1440,900,,,,,10,737,,,,,,,,,,,,,,,,,125,W,circle,1,0,,,,,,,,,,,,,,,,repeat,number,numRpt,d,0.5961,Hi,,,,,,1,,,,,,,,high,7,0,7,0,1,,,,,,,,,
295078,2022-10-03_14h24.09.223,vts_reward_expectancy,2022.2.4,MacIntel,60.0024001,Chrome,1440,900,,,,,1,738,,,,,,,,,,,,,,,,,167,H,hexagon,1,0,,,,,,,,,,,,,,,,switch,letter,lettSwt,j,0.4289,Lo,,,,,,1,,,,,,,,high,8,0,8,0,1,,,,,,,,,
295078,2022-10-03_14h24.09.223,vts_reward_expectancy,2022.2.4,MacIntel,60.0024001,Chrome,1440,900,,,,,0,738,,,,,,,,,,,,,,,,,160,S,circle,1,0,,,,,,,,,,,,,,,,switch,number,numSwt,f,0.514,Hi,,,,,,1,,,,,,,,high,9,0,9,0,1,,,,,,,,,
295078,2022-10-03_14h24.09.223,vts_reward_expectancy,2022.2.4,MacIntel,60.0024001,Chrome,1440,900,,,,,10,748,,,,,,,,,,,,,,,,,174,B,circle,1,0,,,,,,,,,,,,,,,,repeat,number,numRpt,f,0.5118,Hi,,,,,,1,,,,,,,,high,10,0,10,0,1,,,,,,,,,
295078,2022-10-03_14h24.09.223,vts_reward_expectancy,2022.2.4,MacIntel,60.0024001,Chrome,1440,900,,,,,1,749,,,,,,,,,,,,,,,,,139,D,hexagon,1,0,,,,,,,,,,,,,,,,switch,letter,lettSwt,j,0.5437,Lo,,,,,,1,,,,,,,,high,11,0,11,0,1,,,,,,,,,
295078,2022-10-03_14h24.09.223,vts_reward_expectancy,2022.2.4,MacIntel,60.0024001,Chrome,1440,900,,,,,0,749,,,,,,,,,,,,,,,,,181,F,circle,1,0,,,,,,,,,,,,,,,,switch,number,numSwt,f,0.7655,Hi,,,,,,1,,,,,,,,high,12,0,12,0,1,,,,,,,,,
295078,2022-10-03_14h24.09.223,vts_reward_expectancy,2022.2.4,MacIntel,60.0024001,Chrome,1440,900,,,,,10,759,,,,,,,,,,,,,,,,,146,U,hexagon,1,0,,,,,,,,,,,,,,,,switch,letter,lettSwt,k,0.7624,Lo,,,,,,1,,,,,,,,high,13,0,13,0,1,,,,,,,,,
295078,2022-10-03_14h24.09.223,vts_reward_expectancy,2022.2.4,MacIntel,60.0024001,Chrome,1440,900,,,,,0,759,,,,,,,,,,,,,,,,,132,Y,circle,1,0,,,,,,,,,,,,,,,,switch,number,numSwt,d,0.5494,Hi,,,,,,1,,,,,,,,high,14,0,14,0,1,,,,,,,,,
295078,2022-10-03_14h24.09.223,vts_reward_expectancy,2022.2.4,MacIntel,60.0024001,Chrome,1440,900,,,,,1,760,,,,,,,,,,,,,,,,,125,W,hexagon,1,0,,,,,,,,,,,,,,,,switch,letter,lettSwt,k,0.6459,Lo,,,,,,1,,,,,,,,high,15,0,15,0,1,,,,,,,,,
295078,2022-10-03_14h24.09.223,vts_reward_expectancy,2022.2.4,MacIntel,60.0024001,Chrome,1440,900,,,,,1,761,,,,,,,,,,,,,,,,,174,B,hexagon,1,0,,,,,,,,,,,,,,,,switch,number,numSwt,f,0.6303,Lo,,,,,,1,,,,,,,,high,16,0,16,0,1,,,,,,,,,
295078,2022-10-03_14h24.09.223,vts_reward_expectancy,2022.2.4,MacIntel,60.0024001,Chrome,1440,900,,,,,10,771,,,,,,,,,,,,,,,,,146,Y,circle,1,0,,,,,,,,,,,,,,,,repeat,number,numRpt,d,0.5123,Hi,,,,,,1,,,,,,,,high,17,0,17,0,1,,,,,,,,,
295078,2022-10-03_14h24.09.223,vts_reward_expectancy,2022.2.4,MacIntel,60.0024001,Chrome,1440,900,,,,,10,781,,,,,,,,,,,,,,,,,181,H,circle,1,0,,,,,,,,,,,,,,,,switch,letter,lettSwt,j,0.5029,Hi,,,,,,1,,,,,,,,high,18,0,18,0,1,,,,,,,,,
295078,2022-10-03_14h24.09.223,vts_reward_expectancy,2022.2.4,MacIntel,60.0024001,Chrome,1440,900,,,,,1,782,,,,,,,,,,,,,,,,,160,S,hexagon,1,0,,,,,,,,,,,,,,,,switch,number,numSwt,f,0.7639,Lo,,,,,,1,,,,,,,,high,19,0,19,0,1,,,,,,,,,
295078,2022-10-03_14h24.09.223,vts_reward_expectancy,2022.2.4,MacIntel,60.0024001,Chrome,1440,900,,,,,1,783,,,,,,,,,,,,,,,,,167,D,circle,1,0,,,,,,,,,,,,,,,,switch,letter,lettSwt,j,0.5473,Hi,,,,,,1,,,,,,,,high,20,0,20,0,1,,,,,,,,,
295078,2022-10-03_14h24.09.223,vts_reward_expectancy,2022.2.4,MacIntel,60.0024001,Chrome,1440,900,,,,,1,784,,,,,,,,,,,,,,,,,139,F,hexagon,1,0,,,,,,,,,,,,,,,,switch,number,numSwt,d,0.9021,Lo,,,,,,1,,,,,,,,high,21,0,21,0,1,,,,,,,,,
295078,2022-10-03_14h24.09.223,vts_reward_expectancy,2022.2.4,MacIntel,60.0024001,Chrome,1440,900,,,,,0,784,,,,,,,,,,,,,,,,,132,U,circle,0,0,,,,,,,,,,,,,,,,switch,letter,NA,j,0.5622,Lo,,,,,,1,,,,,,,,high,22,0,22,0,1,,,,,,,,,
295078,2022-10-03_14h24.09.223,vts_reward_expectancy,2022.2.4,MacIntel,60.0024001,Chrome,1440,900,,,,,1,785,,,,,,,,,,,,,,,,,125,W,hexagon,1,1,,,,,,,,,,,,,,,,switch,number,numSwt,d,0.6491,Lo,,,,,,1,,,,,,,,high,23,0,23,0,1,,,,,,,,,
295078,2022-10-03_14h24.09.223,vts_reward_expectancy,2022.2.4,MacIntel,60.0024001,Chrome,1440,900,,,,,1,786,,,,,,,,,,,,,,,,,125,W,hexagon,1,0,,,,,,,,,,,,,,,,repeat,number,numRpt,d,0.704,Lo,,,,,,1,,,,,,,,high,24,0,24,0,1,,,,,,,,,
295078,2022-10-03_14h24.09.223,vts_reward_expectancy,2022.2.4,MacIntel,60.0024001,Chrome,1440,900,,,,,10,796,,,,,,,,,,,,,,,,,160,B,circle,1,0,,,,,,,,,,,,,,,,switch,letter,lettSwt,j,0.4613,Hi,,,,,,1,,,,,,,,high,25,0,25,0,1,,,,,,,,,
295078,2022-10-03_14h24.09.223,vts_reward_expectancy,2022.2.4,MacIntel,60.0024001,Chrome,1440,900,,,,,10,806,,,,,,,,,,,,,,,,,174,H,circle,1,0,,,,,,,,,,,,,,,,repeat,letter,lettRpt,j,0.5872,Hi,,,,,,1,,,,,,,,high,26,0,26,0,1,,,,,,,,,
295078,2022-10-03_14h24.09.223,vts_reward_expectancy,2022.2.4,MacIntel,60.0024001,Chrome,1440,900,,,,,1,807,,,,,,,,,,,,,,,,,181,D,hexagon,1,0,,,,,,,,,,,,,,,,switch,number,numSwt,f,0.557,Lo,,,,,,1,,,,,,,,high,27,0,27,0,1,,,,,,,,,
295078,2022-10-03_14h24.09.223,vts_reward_expectancy,2022.2.4,MacIntel,60.0024001,Chrome,1440,900,,,,,1,808,,,,,,,,,,,,,,,,,132,F,hexagon,1,0,,,,,,,,,,,,,,,,repeat,number,numRpt,d,0.6631,Lo,,,,,,1,,,,,,,,high,28,0,28,0,1,,,,,,,,,
295078,2022-10-03_14h24.09.223,vts_reward_expectancy,2022.2.4,MacIntel,60.0024001,Chrome,1440,900,,,,,0,808,,,,,,,,,,,,,,,,,146,U,circle,1,0,,,,,,,,,,,,,,,,switch,letter,lettSwt,k,1.0954,Hi,,,,,,1,,,,,,,,high,29,0,29,0,1,,,,,,,,,
295078,2022-10-03_14h24.09.223,vts_reward_expectancy,2022.2.4,MacIntel,60.0024001,Chrome,1440,900,,,,,10,818,,,,,,,,,,,,,,,,,139,S,circle,1,0,,,,,,,,,,,,,,,,repeat,letter,lettRpt,k,0.4543,Hi,,,,,,1,,,,,,,,high,30,0,30,0,1,,,,,,,,,
295078,2022-10-03_14h24.09.223,vts_reward_expectancy,2022.2.4,MacIntel,60.0024001,Chrome,1440,900,,,,,1,819,,,,,,,,,,,,,,,,,167,Y,hexagon,1,0,,,,,,,,,,,,,,,,repeat,letter,lettRpt,k,0.531,Lo,,,,,,1,,,,,,,,high,31,0,31,0,1,,,,,,,,,
295078,2022-10-03_14h24.09.223,vts_reward_expectancy,2022.2.4,MacIntel,60.0024001,Chrome,1440,900,,,,,0,819,,,,,,,,,,,,,,,,,160,W,circle,1,0,,,,,,,,,,,,,,,,repeat,letter,lettRpt,k,0.8677,Hi,,,,,,2,,,,,,space,0.5868,high,0,0,0,0,1,,,,,,,,,
295078,2022-10-03_14h24.09.223,vts_reward_expectancy,2022.2.4,MacIntel,60.0024001,Chrome,1440,900,,,,,1,820,,,,,,,,,,,,,,,,,125,Y,hexagon,1,0,,,,,,,,,,,,,,,,switch,number,numSwt,d,0.5796,Lo,,,,,,2,,,,,,,,high,1,0,1,0,1,,,,,,,,,
295078,2022-10-03_14h24.09.223,vts_reward_expectancy,2022.2.4,MacIntel,60.0024001,Chrome,1440,900,,,,,0,820,,,,,,,,,,,,,,,,,132,U,circle,1,0,,,,,,,,,,,,,,,,switch,letter,lettSwt,k,0.6956,Hi,,,,,,2,,,,,,,,high,2,0,2,0,1,,,,,,,,,
295078,2022-10-03_14h24.09.223,vts_reward_expectancy,2022.2.4,MacIntel,60.0024001,Chrome,1440,900,,,,,10,830,,,,,,,,,,,,,,,,,139,H,hexagon,1,0,,,,,,,,,,,,,,,,switch,number,numSwt,d,0.6172,Lo,,,,,,2,,,,,,,,high,3,0,3,0,1,,,,,,,,,
295078,2022-10-03_14h24.09.223,vts_reward_expectancy,2022.2.4,MacIntel,60.0024001,Chrome,1440,900,,,,,0,830,,,,,,,,,,,,,,,,,174,F,circle,0,0,,,,,,,,,,,,,,,,switch,letter,NA,k,0.529,Lo,,,,,,2,,,,,,,,high,4,0,4,0,1,,,,,,,,,
295078,2022-10-03_14h24.09.223,vts_reward_expectancy,2022.2.4,MacIntel,60.0024001,Chrome,1440,900,,,,,0,830,,,,,,,,,,,,,,,,,167,B,hexagon,0,1,,,,,,,,,,,,,,,,switch,number,NA,d,0.5314,Lo,,,,,,2,,,,,,,,high,5,0,5,0,1,,,,,,,,,
295078,2022-10-03_14h24.09.223,vts_reward_expectancy,2022.2.4,MacIntel,60.0024001,Chrome,1440,900,,,,,10,840,,,,,,,,,,,,,,,,,146,S,hexagon,1,1,,,,,,,,,,,,,,,,repeat,number,numRpt,d,0.605,Lo,,,,,,2,,,,,,,,high,6,0,6,0,1,,,,,,,,,
295078,2022-10-03_14h24.09.223,vts_reward_expectancy,2022.2.4,MacIntel,60.0024001,Chrome,1440,900,,,,,0,840,,,,,,,,,,,,,,,,,181,D,circle,1,0,,,,,,,,,,,,,,,,switch,letter,lettSwt,j,0.5865,Hi,,,,,,2,,,,,,,,high,7,0,7,0,1,,,,,,,,,
295078,2022-10-03_14h24.09.223,vts_reward_expectancy,2022.2.4,MacIntel,60.0024001,Chrome,1440,900,,,,,1,841,,,,,,,,,,,,,,,,,160,W,hexagon,1,0,,,,,,,,,,,,,,,,switch,number,numSwt,f,0.5292,Lo,,,,,,2,,,,,,,,high,8,0,8,0,1,,,,,,,,,
295078,2022-10-03_14h24.09.223,vts_reward_expectancy,2022.2.4,MacIntel,60.0024001,Chrome,1440,900,,,,,0,841,,,,,,,,,,,,,,,,,125,Y,circle,1,0,,,,,,,,,,,,,,,,switch,letter,lettSwt,k,0.6522,Hi,,,,,,2,,,,,,,,high,9,0,9,0,1,,,,,,,,,
295078,2022-10-03_14h24.09.223,vts_reward_expectancy,2022.2.4,MacIntel,60.0024001,Chrome,1440,900,,,,,1,842,,,,,,,,,,,,,,,,,132,U,circle,1,0,,,,,,,,,,,,,,,,repeat,letter,lettRpt,k,0.4866,Hi,,,,,,2,,,,,,,,high,10,0,10,0,1,,,,,,,,,
295078,2022-10-03_14h24.09.223,vts_reward_expectancy,2022.2.4,MacIntel,60.0024001,Chrome,1440,900,,,,,0,842,,,,,,,,,,,,,,,,,139,H,hexagon,0,0,,,,,,,,,,,,,,,,switch,number,NA,f,0.5037,Hi,,,,,,2,,,,,,,,high,11,0,11,0,1,,,,,,,,,
295078,2022-10-03_14h24.09.223,vts_reward_expectancy,2022.2.4,MacIntel,60.0024001,Chrome,1440,900,,,,,1,843,,,,,,,,,,,,,,,,,174,F,hexagon,1,1,,,,,,,,,,,,,,,,repeat,number,numRpt,f,0.4478,Lo,,,,,,2,,,,,,,,high,12,0,12,0,1,,,,,,,,,
295078,2022-10-03_14h24.09.223,vts_reward_expectancy,2022.2.4,MacIntel,60.0024001,Chrome,1440,900,,,,,10,853,,,,,,,,,,,,,,,,,167,B,circle,1,0,,,,,,,,,,,,,,,,switch,letter,lettSwt,j,0.4638,Hi,,,,,,2,,,,,,,,high,13,0,13,0,1,,,,,,,,,
295078,2022-10-03_14h24.09.223,vts_reward_expectancy,2022.2.4,MacIntel,60.0024001,Chrome,1440,900,,,,,0,853,,,,,,,,,,,,,,,,,146,S,circle,1,0,,,,,,,,,,,,,,,,repeat,letter,lettRpt,k,0.6495,Hi,,,,,,2,,,,,,,,high,14,0,14,0,1,,,,,,,,,
295078,2022-10-03_14h24.09.223,vts_reward_expectancy,2022.2.4,MacIntel,60.0024001,Chrome,1440,900,,,,,1,854,,,,,,,,,,,,,,,,,181,D,hexagon,1,0,,,,,,,,,,,,,,,,switch,number,numSwt,f,0.5148,Lo,,,,,,2,,,,,,,,high,15,0,15,0,1,,,,,,,,,
295078,2022-10-03_14h24.09.223,vts_reward_expectancy,2022.2.4,MacIntel,60.0024001,Chrome,1440,900,,,,,0,854,,,,,,,,,,,,,,,,,160,U,circle,1,0,,,,,,,,,,,,,,,,switch,letter,lettSwt,k,0.6378,Hi,,,,,,2,,,,,,,,high,16,0,16,0,1,,,,,,,,,
295078,2022-10-03_14h24.09.223,vts_reward_expectancy,2022.2.4,MacIntel,60.0024001,Chrome,1440,900,,,,,1,855,,,,,,,,,,,,,,,,,139,H,hexagon,1,0,,,,,,,,,,,,,,,,switch,number,numSwt,d,0.8475,Lo,,,,,,2,,,,,,,,high,17,0,17,0,1,,,,,,,,,
295078,2022-10-03_14h24.09.223,vts_reward_expectancy,2022.2.4,MacIntel,60.0024001,Chrome,1440,900,,,,,0,855,,,,,,,,,,,,,,,,,146,S,circle,1,0,,,,,,,,,,,,,,,,switch,letter,lettSwt,k,0.562,Hi,,,,,,2,,,,,,,,high,18,0,18,0,1,,,,,,,,,
295078,2022-10-03_14h24.09.223,vts_reward_expectancy,2022.2.4,MacIntel,60.0024001,Chrome,1440,900,,,,,10,865,,,,,,,,,,,,,,,,,167,D,hexagon,1,0,,,,,,,,,,,,,,,,switch,number,numSwt,f,0.4543,Lo,,,,,,2,,,,,,,,high,19,0,19,0,1,,,,,,,,,
295078,2022-10-03_14h24.09.223,vts_reward_expectancy,2022.2.4,MacIntel,60.0024001,Chrome,1440,900,,,,,10,875,,,,,,,,,,,,,,,,,181,B,hexagon,1,0,,,,,,,,,,,,,,,,repeat,number,numRpt,f,0.5476,Lo,,,,,,2,,,,,,,,high,20,0,20,0,1,,,,,,,,,
295078,2022-10-03_14h24.09.223,vts_reward_expectancy,2022.2.4,MacIntel,60.0024001,Chrome,1440,900,,,,,10,885,,,,,,,,,,,,,,,,,132,F,circle,1,0,,,,,,,,,,,,,,,,switch,letter,lettSwt,j,0.5042,Hi,,,,,,2,,,,,,,,high,21,0,21,0,1,,,,,,,,,
295078,2022-10-03_14h24.09.223,vts_reward_expectancy,2022.2.4,MacIntel,60.0024001,Chrome,1440,900,,,,,0,885,,,,,,,,,,,,,,,,,125,W,circle,0,0,,,,,,,,,,,,,,,,repeat,letter,NA,j,0.5999,Hi,,,,,,2,,,,,,,,high,22,0,22,0,1,,,,,,,,,
295078,2022-10-03_14h24.09.223,vts_reward_expectancy,2022.2.4,MacIntel,60.0024001,Chrome,1440,900,,,,,1,886,,,,,,,,,,,,,,,,,174,Y,hexagon,1,1,,,,,,,,,,,,,,,,switch,number,numSwt,f,0.3964,Lo,,,,,,2,,,,,,,,high,23,0,23,0,1,,,,,,,,,
295078,2022-10-03_14h24.09.223,vts_reward_expectancy,2022.2.4,MacIntel,60.0024001,Chrome,1440,900,,,,,10,896,,,,,,,,,,,,,,,,,174,S,hexagon,1,0,,,,,,,,,,,,,,,,repeat,number,numRpt,f,0.3144,Lo,,,,,,2,,,,,,,,high,24,0,24,0,1,,,,,,,,,
295078,2022-10-03_14h24.09.223,vts_reward_expectancy,2022.2.4,MacIntel,60.0024001,Chrome,1440,900,,,,,10,906,,,,,,,,,,,,,,,,,132,D,circle,1,0,,,,,,,,,,,,,,,,switch,letter,lettSwt,j,0.4473,Hi,,,,,,2,,,,,,,,high,25,0,25,0,1,,,,,,,,,
295078,2022-10-03_14h24.09.223,vts_reward_expectancy,2022.2.4,MacIntel,60.0024001,Chrome,1440,900,,,,,0,906,,,,,,,,,,,,,,,,,146,F,hexagon,0,0,,,,,,,,,,,,,,,,switch,number,NA,f,0.4364,Hi,,,,,,2,,,,,,,,high,26,0,26,0,1,,,,,,,,,
295078,2022-10-03_14h24.09.223,vts_reward_expectancy,2022.2.4,MacIntel,60.0024001,Chrome,1440,900,,,,,0,906,,,,,,,,,,,,,,,,,139,H,circle,1,1,,,,,,,,,,,,,,,,switch,letter,lettSwt,j,0.5968,Hi,,,,,,2,,,,,,,,high,27,0,27,0,1,,,,,,,,,
295078,2022-10-03_14h24.09.223,vts_reward_expectancy,2022.2.4,MacIntel,60.0024001,Chrome,1440,900,,,,,10,916,,,,,,,,,,,,,,,,,160,W,circle,1,0,,,,,,,,,,,,,,,,repeat,letter,lettRpt,k,0.4972,Hi,,,,,,2,,,,,,,,high,28,0,28,0,1,,,,,,,,,
295078,2022-10-03_14h24.09.223,vts_reward_expectancy,2022.2.4,MacIntel,60.0024001,Chrome,1440,900,,,,,1,917,,,,,,,,,,,,,,,,,181,B,hexagon,1,0,,,,,,,,,,,,,,,,switch,number,numSwt,f,0.4796,Lo,,,,,,2,,,,,,,,high,29,0,29,0,1,,,,,,,,,
295078,2022-10-03_14h24.09.223,vts_reward_expectancy,2022.2.4,MacIntel,60.0024001,Chrome,1440,900,,,,,10,927,,,,,,,,,,,,,,,,,167,Y,hexagon,1,0,,,,,,,,,,,,,,,,repeat,number,numRpt,f,0.5152,Lo,,,,,,2,,,,,,,,high,30,0,30,0,1,,,,,,,,,
295078,2022-10-03_14h24.09.223,vts_reward_expectancy,2022.2.4,MacIntel,60.0024001,Chrome,1440,900,,,,,10,937,,,,,,,,,,,,,,,,,125,U,circle,1,0,,,,,,,,,,,,,,,,switch,letter,lettSwt,k,0.5164,Hi,,,,,,2,,,,,,,,high,31,0,31,0,1,,,,,,,,,
295078,2022-10-03_14h24.09.223,vts_reward_expectancy,2022.2.4,MacIntel,60.0024001,Chrome,1440,900,,,,,10,947,,,,,,,,,,,,,,,,,125,Y,triangle,1,0,,,,,,,,,,,,,,,,switch,number,numSwt,d,0.7755,Lo,,,,,,3,,,,,,space,0.6658,low,0,0,0,0,1,,,,,,,,,
295078,2022-10-03_14h24.09.223,vts_reward_expectancy,2022.2.4,MacIntel,60.0024001,Chrome,1440,900,,,,,0,947,,,,,,,,,,,,,,,,,160,H,star,1,0,,,,,,,,,,,,,,,,switch,letter,lettSwt,j,0.6513,Hi,,,,,,3,,,,,,,,low,1,0,1,0,1,,,,,,,,,
295078,2022-10-03_14h24.09.223,vts_reward_expectancy,2022.2.4,MacIntel,60.0024001,Chrome,1440,900,,,,,1,948,,,,,,,,,,,,,,,,,146,W,triangle,1,0,,,,,,,,,,,,,,,,switch,number,numSwt,d,0.4955,Lo,,,,,,3,,,,,,,,low,2,0,2,0,1,,,,,,,,,
295078,2022-10-03_14h24.09.223,vts_reward_expectancy,2022.2.4,MacIntel,60.0024001,Chrome,1440,900,,,,,10,958,,,,,,,,,,,,,,,,,174,B,star,1,0,,,,,,,,,,,,,,,,switch,letter,lettSwt,j,0.3807,Hi,,,,,,3,,,,,,,,low,3,0,3,0,1,,,,,,,,,
295078,2022-10-03_14h24.09.223,vts_reward_expectancy,2022.2.4,MacIntel,60.0024001,Chrome,1440,900,,,,,1,959,,,,,,,,,,,,,,,,,167,F,triangle,1,0,,,,,,,,,,,,,,,,switch,number,numSwt,f,0.5294,Lo,,,,,,3,,,,,,,,low,4,0,4,0,1,,,,,,,,,
295078,2022-10-03_14h24.09.223,vts_reward_expectancy,2022.2.4,MacIntel,60.0024001,Chrome,1440,900,,,,,0,959,,,,,,,,,,,,,,,,,139,U,star,1,0,,,,,,,,,,,,,,,,switch,letter,lettSwt,k,0.7626,Hi,,,,,,3,,,,,,,,low,5,0,5,0,1,,,,,,,,,
295078,2022-10-03_14h24.09.223,vts_reward_expectancy,2022.2.4,MacIntel,60.0024001,Chrome,1440,900,,,,,0,959,,,,,,,,,,,,,,,,,181,S,star,1,0,,,,,,,,,,,,,,,,repeat,letter,lettRpt,k,0.515,Hi,,,,,,3,,,,,,,,low,6,0,6,0,1,,,,,,,,,
295078,2022-10-03_14h24.09.223,vts_reward_expectancy,2022.2.4,MacIntel,60.0024001,Chrome,1440,900,,,,,1,960,,,,,,,,,,,,,,,,,132,D,triangle,1,0,,,,,,,,,,,,,,,,switch,number,numSwt,d,0.3948,Lo,,,,,,3,,,,,,,,low,7,0,7,0,1,,,,,,,,,
295078,2022-10-03_14h24.09.223,vts_reward_expectancy,2022.2.4,MacIntel,60.0024001,Chrome,1440,900,,,,,1,961,,,,,,,,,,,,,,,,,125,Y,triangle,1,0,,,,,,,,,,,,,,,,repeat,number,numRpt,d,0.7012,Lo,,,,,,3,,,,,,,,low,8,0,8,0,1,,,,,,,,,
295078,2022-10-03_14h24.09.223,vts_reward_expectancy,2022.2.4,MacIntel,60.0024001,Chrome,1440,900,,,,,0,961,,,,,,,,,,,,,,,,,160,H,star,1,0,,,,,,,,,,,,,,,,switch,letter,lettSwt,j,0.5649,Hi,,,,,,3,,,,,,,,low,9,0,9,0,1,,,,,,,,,
295078,2022-10-03_14h24.09.223,vts_reward_expectancy,2022.2.4,MacIntel,60.0024001,Chrome,1440,900,,,,,1,962,,,,,,,,,,,,,,,,,146,W,triangle,1,0,,,,,,,,,,,,,,,,switch,number,numSwt,d,0.4304,Lo,,,,,,3,,,,,,,,low,10,0,10,0,1,,,,,,,,,
295078,2022-10-03_14h24.09.223,vts_reward_expectancy,2022.2.4,MacIntel,60.0024001,Chrome,1440,900,,,,,0,962,,,,,,,,,,,,,,,,,174,B,star,1,0,,,,,,,,,,,,,,,,switch,letter,lettSwt,j,0.5303,Hi,,,,,,3,,,,,,,,low,11,0,11,0,1,,,,,,,,,
295078,2022-10-03_14h24.09.223,vts_reward_expectancy,2022.2.4,MacIntel,60.0024001,Chrome,1440,900,,,,,0,962,,,,,,,,,,,,,,,,,167,F,star,0,0,,,,,,,,,,,,,,,,repeat,letter,NA,k,0.3843,Hi,,,,,,3,,,,,,,,low,12,0,12,0,1,,,,,,,,,
295078,2022-10-03_14h24.09.223,vts_reward_expectancy,2022.2.4,MacIntel,60.0024001,Chrome,1440,900,,,,,10,972,,,,,,,,,,,,,,,,,139,U,triangle,1,1,,,,,,,,,,,,,,,,switch,number,numSwt,d,0.4141,Lo,,,,,,3,,,,,,,,low,13,0,13,0,1,,,,,,,,,
295078,2022-10-03_14h24.09.223,vts_reward_expectancy,2022.2.4,MacIntel,60.0024001,Chrome,1440,900,,,,,0,972,,,,,,,,,,,,,,,,,181,S,star,1,0,,,,,,,,,,,,,,,,switch,letter,lettSwt,k,0.5738,Hi,,,,,,3,,,,,,,,low,14,0,14,0,1,,,,,,,,,
295078,2022-10-03_14h24.09.223,vts_reward_expectancy,2022.2.4,MacIntel,60.0024001,Chrome,1440,900,,,,,10,982,,,,,,,,,,,,,,,,,132,D,triangle,1,0,,,,,,,,,,,,,,,,switch,number,numSwt,d,0.6304,Lo,,,,,,3,,,,,,,,low,15,0,15,0,1,,,,,,,,,
295078,2022-10-03_14h24.09.223,vts_reward_expectancy,2022.2.4,MacIntel,60.0024001,Chrome,1440,900,,,,,10,992,,,,,,,,,,,,,,,,,181,D,triangle,1,0,,,,,,,,,,,,,,,,repeat,number,numRpt,f,0.6359,Lo,,,,,,3,,,,,,,,low,16,0,16,0,1,,,,,,,,,
295078,2022-10-03_14h24.09.223,vts_reward_expectancy,2022.2.4,MacIntel,60.0024001,Chrome,1440,900,,,,,0,992,,,,,,,,,,,,,,,,,139,B,star,1,0,,,,,,,,,,,,,,,,switch,letter,lettSwt,j,0.7632,Hi,,,,,,3,,,,,,,,low,17,0,17,0,1,,,,,,,,,
295078,2022-10-03_14h24.09.223,vts_reward_expectancy,2022.2.4,MacIntel,60.0024001,Chrome,1440,900,,,,,0,992,,,,,,,,,,,,,,,,,174,S,triangle,0,0,,,,,,,,,,,,,,,,switch,number,NA,d,0.5698,Hi,,,,,,3,,,,,,,,low,18,0,18,0,1,,,,,,,,,
295078,2022-10-03_14h24.09.223,vts_reward_expectancy,2022.2.4,MacIntel,60.0024001,Chrome,1440,900,,,,,0,992,,,,,,,,,,,,,,,,,160,Y,star,1,1,,,,,,,,,,,,,,,,switch,letter,lettSwt,k,0.7782,Hi,,,,,,3,,,,,,,,low,19,0,19,0,1,,,,,,,,,
295078,2022-10-03_14h24.09.223,vts_reward_expectancy,2022.2.4,MacIntel,60.0024001,Chrome,1440,900,,,,,1,993,,,,,,,,,,,,,,,,,167,W,triangle,1,0,,,,,,,,,,,,,,,,switch,number,numSwt,f,0.4204,Lo,,,,,,3,,,,,,,,low,20,0,20,0,1,,,,,,,,,
295078,2022-10-03_14h24.09.223,vts_reward_expectancy,2022.2.4,MacIntel,60.0024001,Chrome,1440,900,,,,,0,993,,,,,,,,,,,,,,,,,132,F,star,1,0,,,,,,,,,,,,,,,,switch,letter,lettSwt,j,1.3974,Hi,,,,,,3,,,,,,,,low,21,0,21,0,1,,,,,,,,,
295078,2022-10-03_14h24.09.223,vts_reward_expectancy,2022.2.4,MacIntel,60.0024001,Chrome,1440,900,,,,,1,994,,,,,,,,,,,,,,,,,146,H,triangle,1,0,,,,,,,,,,,,,,,,switch,number,numSwt,d,0.4472,Lo,,,,,,3,,,,,,,,low,22,0,22,0,1,,,,,,,,,
295078,2022-10-03_14h24.09.223,vts_reward_expectancy,2022.2.4,MacIntel,60.0024001,Chrome,1440,900,,,,,0,994,,,,,,,,,,,,,,,,,125,U,star,1,0,,,,,,,,,,,,,,,,switch,letter,lettSwt,k,0.8356,Hi,,,,,,3,,,,,,,,low,23,0,23,0,1,,,,,,,,,
295078,2022-10-03_14h24.09.223,vts_reward_expectancy,2022.2.4,MacIntel,60.0024001,Chrome,1440,900,,,,,0,994,,,,,,,,,,,,,,,,,174,S,triangle,0,0,,,,,,,,,,,,,,,,switch,number,NA,d,0.6192,Hi,,,,,,3,,,,,,,,low,24,0,24,0,1,,,,,,,,,
295078,2022-10-03_14h24.09.223,vts_reward_expectancy,2022.2.4,MacIntel,60.0024001,Chrome,1440,900,,,,,0,994,,,,,,,,,,,,,,,,,132,D,star,1,1,,,,,,,,,,,,,,,,switch,letter,lettSwt,j,0.7141,Hi,,,,,,3,,,,,,,,low,25,0,25,0,1,,,,,,,,,
295078,2022-10-03_14h24.09.223,vts_reward_expectancy,2022.2.4,MacIntel,60.0024001,Chrome,1440,900,,,,,10,1004,,,,,,,,,,,,,,,,,125,B,star,1,0,,,,,,,,,,,,,,,,repeat,letter,lettRpt,j,0.3896,Hi,,,,,,3,,,,,,,,low,26,0,26,0,1,,,,,,,,,
295078,2022-10-03_14h24.09.223,vts_reward_expectancy,2022.2.4,MacIntel,60.0024001,Chrome,1440,900,,,,,10,1014,,,,,,,,,,,,,,,,,160,H,triangle,1,0,,,,,,,,,,,,,,,,switch,number,numSwt,f,0.4796,Lo,,,,,,3,,,,,,,,low,27,0,27,0,1,,,,,,,,,
295078,2022-10-03_14h24.09.223,vts_reward_expectancy,2022.2.4,MacIntel,60.0024001,Chrome,1440,900,,,,,1,1015,,,,,,,,,,,,,,,,,146,W,triangle,1,0,,,,,,,,,,,,,,,,repeat,number,numRpt,d,0.6122,Lo,,,,,,3,,,,,,,,low,28,0,28,0,1,,,,,,,,,
295078,2022-10-03_14h24.09.223,vts_reward_expectancy,2022.2.4,MacIntel,60.0024001,Chrome,1440,900,,,,,0,1015,,,,,,,,,,,,,,,,,139,Y,star,0,0,,,,,,,,,,,,,,,,switch,letter,NA,j,0.8342,Lo,,,,,,3,,,,,,,,low,29,0,29,0,1,,,,,,,,,
295078,2022-10-03_14h24.09.223,vts_reward_expectancy,2022.2.4,MacIntel,60.0024001,Chrome,1440,900,,,,,1,1016,,,,,,,,,,,,,,,,,181,U,triangle,1,1,,,,,,,,,,,,,,,,switch,number,numSwt,f,0.5545,Lo,,,,,,3,,,,,,,,low,30,0,30,0,1,,,,,,,,,
295078,2022-10-03_14h24.09.223,vts_reward_expectancy,2022.2.4,MacIntel,60.0024001,Chrome,1440,900,,,,,0,1016,,,,,,,,,,,,,,,,,167,F,star,1,0,,,,,,,,,,,,,,,,switch,letter,lettSwt,j,0.7521,Hi,,,,,,3,,,,,,,,low,31,0,31,0,1,,,,,,,,,
295078,2022-10-03_14h24.09.223,vts_reward_expectancy,2022.2.4,MacIntel,60.0024001,Chrome,1440,900,,,,,1,1017,,,,,,,,,,,,,,,,,139,H,triangle,1,0,,,,,,,,,,,,,,,,switch,number,numSwt,d,0.4305,Lo,,,,,,4,,,,,,space,1.3113,low,0,0,0,0,1,,,,,,,,,
295078,2022-10-03_14h24.09.223,vts_reward_expectancy,2022.2.4,MacIntel,60.0024001,Chrome,1440,900,,,,,0,1017,,,,,,,,,,,,,,,,,132,D,star,1,0,,,,,,,,,,,,,,,,repeat,number,numRpt,d,0.905,Hi,,,,,,4,,,,,,,,low,1,0,1,0,1,,,,,,,,,
295078,2022-10-03_14h24.09.223,vts_reward_expectancy,2022.2.4,MacIntel,60.0024001,Chrome,1440,900,,,,,10,1027,,,,,,,,,,,,,,,,,181,F,triangle,1,0,,,,,,,,,,,,,,,,switch,letter,lettSwt,j,0.7711,Lo,,,,,,4,,,,,,,,low,2,0,2,0,1,,,,,,,,,
295078,2022-10-03_14h24.09.223,vts_reward_expectancy,2022.2.4,MacIntel,60.0024001,Chrome,1440,900,,,,,0,1027,,,,,,,,,,,,,,,,,160,W,star,0,0,,,,,,,,,,,,,,,,switch,number,NA,d,0.5197,Lo,,,,,,4,,,,,,,,low,3,0,3,0,1,,,,,,,,,
295078,2022-10-03_14h24.09.223,vts_reward_expectancy,2022.2.4,MacIntel,60.0024001,Chrome,1440,900,,,,,0,1027,,,,,,,,,,,,,,,,,167,Y,triangle,0,1,,,,,,,,,,,,,,,,switch,letter,NA,j,0.533,Lo,,,,,,4,,,,,,,,low,4,0,4,0,1,,,,,,,,,
295078,2022-10-03_14h24.09.223,vts_reward_expectancy,2022.2.4,MacIntel,60.0024001,Chrome,1440,900,,,,,0,1027,,,,,,,,,,,,,,,,,125,U,star,1,1,,,,,,,,,,,,,,,,switch,number,numSwt,d,0.744,Hi,,,,,,4,,,,,,,,low,5,0,5,0,1,,,,,,,,,
295078,2022-10-03_14h24.09.223,vts_reward_expectancy,2022.2.4,MacIntel,60.0024001,Chrome,1440,900,,,,,10,1037,,,,,,,,,,,,,,,,,146,B,triangle,1,0,,,,,,,,,,,,,,,,switch,letter,lettSwt,j,0.4355,Lo,,,,,,4,,,,,,,,low,6,0,6,0,1,,,,,,,,,
295078,2022-10-03_14h24.09.223,vts_reward_expectancy,2022.2.4,MacIntel,60.0024001,Chrome,1440,900,,,,,0,1037,,,,,,,,,,,,,,,,,174,S,star,1,0,,,,,,,,,,,,,,,,switch,number,numSwt,f,0.6537,Hi,,,,,,4,,,,,,,,low,7,0,7,0,1,,,,,,,,,
295078,2022-10-03_14h24.09.223,vts_reward_expectancy,2022.2.4,MacIntel,60.0024001,Chrome,1440,900,,,,,1,1038,,,,,,,,,,,,,,,,,139,H,triangle,1,0,,,,,,,,,,,,,,,,switch,letter,lettSwt,j,0.8054,Lo,,,,,,4,,,,,,,,low,8,0,8,0,1,,,,,,,,,
295078,2022-10-03_14h24.09.223,vts_reward_expectancy,2022.2.4,MacIntel,60.0024001,Chrome,1440,900,,,,,0,1038,,,,,,,,,,,,,,,,,132,D,star,1,0,,,,,,,,,,,,,,,,switch,number,numSwt,d,0.4795,Hi,,,,,,4,,,,,,,,low,9,0,9,0,1,,,,,,,,,
295078,2022-10-03_14h24.09.223,vts_reward_expectancy,2022.2.4,MacIntel,60.0024001,Chrome,1440,900,,,,,1,1039,,,,,,,,,,,,,,,,,181,F,triangle,1,0,,,,,,,,,,,,,,,,switch,letter,lettSwt,j,0.7125,Lo,,,,,,4,,,,,,,,low,10,0,10,0,1,,,,,,,,,
295078,2022-10-03_14h24.09.223,vts_reward_expectancy,2022.2.4,MacIntel,60.0024001,Chrome,1440,900,,,,,0,1039,,,,,,,,,,,,,,,,,160,W,star,1,0,,,,,,,,,,,,,,,,switch,number,numSwt,f,0.6472,Hi,,,,,,4,,,,,,,,low,11,0,11,0,1,,,,,,,,,
295078,2022-10-03_14h24.09.223,vts_reward_expectancy,2022.2.4,MacIntel,60.0024001,Chrome,1440,900,,,,,10,1049,,,,,,,,,,,,,,,,,167,Y,triangle,1,0,,,,,,,,,,,,,,,,switch,letter,lettSwt,k,0.7369,Lo,,,,,,4,,,,,,,,low,12,0,12,0,1,,,,,,,,,
295078,2022-10-03_14h24.09.223,vts_reward_expectancy,2022.2.4,MacIntel,60.0024001,Chrome,1440,900,,,,,0,1049,,,,,,,,,,,,,,,,,125,U,star,0,0,,,,,,,,,,,,,,,,switch,number,NA,f,0.5219,Lo,,,,,,4,,,,,,,,low,13,0,13,0,1,,,,,,,,,
295078,2022-10-03_14h24.09.223,vts_reward_expectancy,2022.2.4,MacIntel,60.0024001,Chrome,1440,900,,,,,1,1050,,,,,,,,,,,,,,,,,146,B,triangle,1,1,,,,,,,,,,,,,,,,switch,letter,lettSwt,j,0.4478,Lo,,,,,,4,,,,,,,,low,14,0,14,0,1,,,,,,,,,
295078,2022-10-03_14h24.09.223,vts_reward_expectancy,2022.2.4,MacIntel,60.0024001,Chrome,1440,900,,,,,0,1050,,,,,,,,,,,,,,,,,174,S,star,1,0,,,,,,,,,,,,,,,,switch,number,numSwt,f,0.4614,Hi,,,,,,4,,,,,,,,low,15,0,15,0,1,,,,,,,,,
295078,2022-10-03_14h24.09.223,vts_reward_expectancy,2022.2.4,MacIntel,60.0024001,Chrome,1440,900,,,,,10,1060,,,,,,,,,,,,,,,,,160,Y,star,1,0,,,,,,,,,,,,,,,,switch,letter,lettSwt,k,0.6039,Hi,,,,,,4,,,,,,,,low,16,0,16,0,1,,,,,,,,,
295078,2022-10-03_14h24.09.223,vts_reward_expectancy,2022.2.4,MacIntel,60.0024001,Chrome,1440,900,,,,,1,1061,,,,,,,,,,,,,,,,,139,D,triangle,1,0,,,,,,,,,,,,,,,,switch,number,numSwt,d,0.6315,Lo,,,,,,4,,,,,,,,low,17,0,17,0,1,,,,,,,,,
295078,2022-10-03_14h24.09.223,vts_reward_expectancy,2022.2.4,MacIntel,60.0024001,Chrome,1440,900,,,,,10,1071,,,,,,,,,,,,,,,,,132,H,star,1,0,,,,,,,,,,,,,,,,switch,letter,lettSwt,j,0.5456,Hi,,,,,,4,,,,,,,,low,18,0,18,0,1,,,,,,,,,
295078,2022-10-03_14h24.09.223,vts_reward_expectancy,2022.2.4,MacIntel,60.0024001,Chrome,1440,900,,,,,1,1072,,,,,,,,,,,,,,,,,125,S,triangle,1,0,,,,,,,,,,,,,,,,repeat,letter,lettRpt,k,0.4996,Lo,,,,,,4,,,,,,,,low,19,0,19,0,1,,,,,,,,,
295078,2022-10-03_14h24.09.223,vts_reward_expectancy,2022.2.4,MacIntel,60.0024001,Chrome,1440,900,,,,,1,1073,,,,,,,,,,,,,,,,,174,W,triangle,1,0,,,,,,,,,,,,,,,,repeat,letter,lettRpt,k,0.5627,Lo,,,,,,4,,,,,,,,low,20,0,20,0,1,,,,,,,,,
295078,2022-10-03_14h24.09.223,vts_reward_expectancy,2022.2.4,MacIntel,60.0024001,Chrome,1440,900,,,,,0,1073,,,,,,,,,,,,,,,,,181,U,star,1,0,,,,,,,,,,,,,,,,repeat,letter,lettRpt,k,0.713,Hi,,,,,,4,,,,,,,,low,21,0,21,0,1,,,,,,,,,
295078,2022-10-03_14h24.09.223,vts_reward_expectancy,2022.2.4,MacIntel,60.0024001,Chrome,1440,900,,,,,0,1073,,,,,,,,,,,,,,,,,167,F,star,1,0,,,,,,,,,,,,,,,,switch,number,numSwt,f,0.5283,Hi,,,,,,4,,,,,,,,low,22,0,22,0,1,,,,,,,,,
295078,2022-10-03_14h24.09.223,vts_reward_expectancy,2022.2.4,MacIntel,60.0024001,Chrome,1440,900,,,,,10,1083,,,,,,,,,,,,,,,,,146,B,triangle,1,0,,,,,,,,,,,,,,,,repeat,number,numRpt,d,0.6464,Lo,,,,,,4,,,,,,,,low,23,0,23,0,1,,,,,,,,,
295078,2022-10-03_14h24.09.223,vts_reward_expectancy,2022.2.4,MacIntel,60.0024001,Chrome,1440,900,,,,,0,1083,,,,,,,,,,,,,,,,,167,F,triangle,0,0,,,,,,,,,,,,,,,,repeat,number,NA,d,0.6113,Lo,,,,,,4,,,,,,,,low,24,0,24,0,1,,,,,,,,,
295078,2022-10-03_14h24.09.223,vts_reward_expectancy,2022.2.4,MacIntel,60.0024001,Chrome,1440,900,,,,,1,1084,,,,,,,,,,,,,,,,,132,D,star,1,1,,,,,,,,,,,,,,,,switch,letter,lettSwt,j,0.4853,Hi,,,,,,4,,,,,,,,low,25,0,25,0,1,,,,,,,,,
295078,2022-10-03_14h24.09.223,vts_reward_expectancy,2022.2.4,MacIntel,60.0024001,Chrome,1440,900,,,,,10,1094,,,,,,,,,,,,,,,,,125,Y,triangle,1,0,,,,,,,,,,,,,,,,switch,number,numSwt,d,0.4474,Lo,,,,,,4,,,,,,,,low,26,0,26,0,1,,,,,,,,,
295078,2022-10-03_14h24.09.223,vts_reward_expectancy,2022.2.4,MacIntel,60.0024001,Chrome,1440,900,,,,,1,1095,,,,,,,,,,,,,,,,,181,U,star,1,0,,,,,,,,,,,,,,,,switch,letter,lettSwt,k,0.6012,Hi,,,,,,4,,,,,,,,low,27,0,27,0,1,,,,,,,,,
295078,2022-10-03_14h24.09.223,vts_reward_expectancy,2022.2.4,MacIntel,60.0024001,Chrome,1440,900,,,,,0,1095,,,,,,,,,,,,,,,,,146,H,star,0,0,,,,,,,,,,,,,,,,repeat,letter,NA,k,0.463,Hi,,,,,,4,,,,,,,,low,28,0,28,0,1,,,,,,,,,
295078,2022-10-03_14h24.09.223,vts_reward_expectancy,2022.2.4,MacIntel,60.0024001,Chrome,1440,900,,,,,1,1096,,,,,,,,,,,,,,,,,139,B,triangle,1,1,,,,,,,,,,,,,,,,switch,number,numSwt,d,0.6632,Lo,,,,,,4,,,,,,,,low,29,0,29,0,1,,,,,,,,,
295078,2022-10-03_14h24.09.223,vts_reward_expectancy,2022.2.4,MacIntel,60.0024001,Chrome,1440,900,,,,,0,1096,,,,,,,,,,,,,,,,,174,W,star,1,0,,,,,,,,,,,,,,,,switch,letter,lettSwt,k,0.7293,Hi,,,,,,4,,,,,,,,low,30,0,30,0,1,,,,,,,,,
295078,2022-10-03_14h24.09.223,vts_reward_expectancy,2022.2.4,MacIntel,60.0024001,Chrome,1440,900,,,,,1,1097,,,,,,,,,,,,,,,,,160,S,triangle,1,0,,,,,,,,,,,,,,,,switch,number,numSwt,f,0.4304,Lo,,,,,,4,,,,,,,,low,31,0,31,0,1,,,,,,,,,
295078,2022-10-03_14h24.09.223,vts_reward_expectancy,2022.2.4,MacIntel,60.0024001,Chrome,1440,900,,,,,1,1098,,,,,,,,,,,,,,,,,174,U,hexagon,1,0,,,,,,,,,,,,,,,,repeat,number,numRpt,f,0.5476,Lo,,,,,,5,,,,,,space,2.0251,high,0,0,0,0,1,,,,,,,,,
295078,2022-10-03_14h24.09.223,vts_reward_expectancy,2022.2.4,MacIntel,60.0024001,Chrome,1440,900,,,,,0,1098,,,,,,,,,,,,,,,,,146,B,circle,1,0,,,,,,,,,,,,,,,,switch,letter,lettSwt,j,0.6288,Hi,,,,,,5,,,,,,,,high,1,0,1,0,1,,,,,,,,,
295078,2022-10-03_14h24.09.223,vts_reward_expectancy,2022.2.4,MacIntel,60.0024001,Chrome,1440,900,,,,,10,1108,,,,,,,,,,,,,,,,,139,F,hexagon,1,0,,,,,,,,,,,,,,,,switch,number,numSwt,d,0.5287,Lo,,,,,,5,,,,,,,,high,2,0,2,0,1,,,,,,,,,
295078,2022-10-03_14h24.09.223,vts_reward_expectancy,2022.2.4,MacIntel,60.0024001,Chrome,1440,900,,,,,10,1118,,,,,,,,,,,,,,,,,167,S,circle,1,0,,,,,,,,,,,,,,,,switch,letter,lettSwt,k,0.5142,Hi,,,,,,5,,,,,,,,high,3,0,3,0,1,,,,,,,,,
295078,2022-10-03_14h24.09.223,vts_reward_expectancy,2022.2.4,MacIntel,60.0024001,Chrome,1440,900,,,,,1,1119,,,,,,,,,,,,,,,,,132,Y,hexagon,1,0,,,,,,,,,,,,,,,,switch,number,numSwt,d,0.3964,Lo,,,,,,5,,,,,,,,high,4,0,4,0,1,,,,,,,,,
295078,2022-10-03_14h24.09.223,vts_reward_expectancy,2022.2.4,MacIntel,60.0024001,Chrome,1440,900,,,,,10,1129,,,,,,,,,,,,,,,,,160,D,circle,1,0,,,,,,,,,,,,,,,,switch,letter,lettSwt,j,0.3307,Hi,,,,,,5,,,,,,,,high,5,0,5,0,1,,,,,,,,,
295078,2022-10-03_14h24.09.223,vts_reward_expectancy,2022.2.4,MacIntel,60.0024001,Chrome,1440,900,,,,,10,1139,,,,,,,,,,,,,,,,,125,H,hexagon,1,0,,,,,,,,,,,,,,,,switch,number,numSwt,d,0.579,Lo,,,,,,5,,,,,,,,high,6,0,6,0,1,,,,,,,,,
295078,2022-10-03_14h24.09.223,vts_reward_expectancy,2022.2.4,MacIntel,60.0024001,Chrome,1440,900,,,,,10,1149,,,,,,,,,,,,,,,,,181,W,circle,1,0,,,,,,,,,,,,,,,,switch,letter,lettSwt,k,0.5223,Hi,,,,,,5,,,,,,,,high,7,0,7,0,1,,,,,,,,,
295078,2022-10-03_14h24.09.223,vts_reward_expectancy,2022.2.4,MacIntel,60.0024001,Chrome,1440,900,,,,,0,1149,,,,,,,,,,,,,,,,,174,U,circle,1,0,,,,,,,,,,,,,,,,repeat,letter,lettRpt,k,0.6787,Hi,,,,,,5,,,,,,,,high,8,0,8,0,1,,,,,,,,,
295078,2022-10-03_14h24.09.223,vts_reward_expectancy,2022.2.4,MacIntel,60.0024001,Chrome,1440,900,,,,,1,1150,,,,,,,,,,,,,,,,,146,B,hexagon,1,0,,,,,,,,,,,,,,,,switch,number,numSwt,d,0.2954,Lo,,,,,,5,,,,,,,,high,9,0,9,0,1,,,,,,,,,
295078,2022-10-03_14h24.09.223,vts_reward_expectancy,2022.2.4,MacIntel,60.0024001,Chrome,1440,900,,,,,0,1150,,,,,,,,,,,,,,,,,139,F,circle,0,0,,,,,,,,,,,,,,,,switch,letter,NA,k,0.3801,Lo,,,,,,5,,,,,,,,high,10,0,10,0,1,,,,,,,,,
295078,2022-10-03_14h24.09.223,vts_reward_expectancy,2022.2.4,MacIntel,60.0024001,Chrome,1440,900,,,,,1,1151,,,,,,,,,,,,,,,,,167,S,hexagon,1,1,,,,,,,,,,,,,,,,switch,number,numSwt,f,0.4381,Lo,,,,,,5,,,,,,,,high,11,0,11,0,1,,,,,,,,,
295078,2022-10-03_14h24.09.223,vts_reward_expectancy,2022.2.4,MacIntel,60.0024001,Chrome,1440,900,,,,,0,1151,,,,,,,,,,,,,,,,,132,Y,hexagon,0,0,,,,,,,,,,,,,,,,repeat,number,NA,f,0.3963,Lo,,,,,,5,,,,,,,,high,12,0,12,0,1,,,,,,,,,
295078,2022-10-03_14h24.09.223,vts_reward_expectancy,2022.2.4,MacIntel,60.0024001,Chrome,1440,900,,,,,0,1151,,,,,,,,,,,,,,,,,160,D,circle,1,1,,,,,,,,,,,,,,,,switch,letter,lettSwt,j,0.5959,Hi,,,,,,5,,,,,,,,high,13,0,13,0,1,,,,,,,,,
295078,2022-10-03_14h24.09.223,vts_reward_expectancy,2022.2.4,MacIntel,60.0024001,Chrome,1440,900,,,,,1,1152,,,,,,,,,,,,,,,,,125,H,circle,1,0,,,,,,,,,,,,,,,,repeat,letter,lettRpt,j,0.4636,Hi,,,,,,5,,,,,,,,high,14,0,14,0,1,,,,,,,,,
295078,2022-10-03_14h24.09.223,vts_reward_expectancy,2022.2.4,MacIntel,60.0024001,Chrome,1440,900,,,,,1,1153,,,,,,,,,,,,,,,,,181,W,hexagon,1,0,,,,,,,,,,,,,,,,switch,number,numSwt,f,0.5512,Lo,,,,,,5,,,,,,,,high,15,0,15,0,1,,,,,,,,,
295078,2022-10-03_14h24.09.223,vts_reward_expectancy,2022.2.4,MacIntel,60.0024001,Chrome,1440,900,,,,,0,1153,,,,,,,,,,,,,,,,,160,W,circle,0,0,,,,,,,,,,,,,,,,switch,letter,NA,j,0.3159,Lo,,,,,,5,,,,,,,,high,16,0,16,0,1,,,,,,,,,
295078,2022-10-03_14h24.09.223,vts_reward_expectancy,2022.2.4,MacIntel,60.0024001,Chrome,1440,900,,,,,1,1154,,,,,,,,,,,,,,,,,146,U,hexagon,1,1,,,,,,,,,,,,,,,,switch,number,numSwt,d,1.3134,Lo,,,,,,5,,,,,,,,high,17,0,17,0,1,,,,,,,,,
295078,2022-10-03_14h24.09.223,vts_reward_expectancy,2022.2.4,MacIntel,60.0024001,Chrome,1440,900,,,,,0,1154,,,,,,,,,,,,,,,,,132,B,circle,1,0,,,,,,,,,,,,,,,,switch,letter,lettSwt,j,0.5653,Hi,,,,,,5,,,,,,,,high,18,0,18,0,1,,,,,,,,,
295078,2022-10-03_14h24.09.223,vts_reward_expectancy,2022.2.4,MacIntel,60.0024001,Chrome,1440,900,,,,,1,1155,,,,,,,,,,,,,,,,,181,S,hexagon,1,0,,,,,,,,,,,,,,,,switch,number,numSwt,f,0.5621,Lo,,,,,,5,,,,,,,,high,19,0,19,0,1,,,,,,,,,
295078,2022-10-03_14h24.09.223,vts_reward_expectancy,2022.2.4,MacIntel,60.0024001,Chrome,1440,900,,,,,10,1165,,,,,,,,,,,,,,,,,167,D,circle,1,0,,,,,,,,,,,,,,,,switch,letter,lettSwt,j,0.5481,Hi,,,,,,5,,,,,,,,high,20,0,20,0,1,,,,,,,,,
295078,2022-10-03_14h24.09.223,vts_reward_expectancy,2022.2.4,MacIntel,60.0024001,Chrome,1440,900,,,,,1,1166,,,,,,,,,,,,,,,,,125,F,hexagon,1,0,,,,,,,,,,,,,,,,switch,number,numSwt,d,0.5967,Lo,,,,,,5,,,,,,,,high,21,0,21,0,1,,,,,,,,,
295078,2022-10-03_14h24.09.223,vts_reward_expectancy,2022.2.4,MacIntel,60.0024001,Chrome,1440,900,,,,,1,1167,,,,,,,,,,,,,,,,,139,Y,hexagon,1,0,,,,,,,,,,,,,,,,repeat,number,numRpt,d,0.6059,Lo,,,,,,5,,,,,,,,high,22,0,22,0,1,,,,,,,,,
295078,2022-10-03_14h24.09.223,vts_reward_expectancy,2022.2.4,MacIntel,60.0024001,Chrome,1440,900,,,,,0,1167,,,,,,,,,,,,,,,,,174,H,circle,1,0,,,,,,,,,,,,,,,,switch,letter,lettSwt,j,0.5804,Hi,,,,,,5,,,,,,,,high,23,0,23,0,1,,,,,,,,,
295078,2022-10-03_14h24.09.223,vts_reward_expectancy,2022.2.4,MacIntel,60.0024001,Chrome,1440,900,,,,,0,1167,,,,,,,,,,,,,,,,,174,D,circle,1,0,,,,,,,,,,,,,,,,repeat,letter,lettRpt,j,0.5509,Hi,,,,,,5,,,,,,,,high,24,0,24,0,1,,,,,,,,,
295078,2022-10-03_14h24.09.223,vts_reward_expectancy,2022.2.4,MacIntel,60.0024001,Chrome,1440,900,,,,,1,1168,,,,,,,,,,,,,,,,,167,B,hexagon,1,0,,,,,,,,,,,,,,,,switch,number,numSwt,f,0.5144,Lo,,,,,,5,,,,,,,,high,25,0,25,0,1,,,,,,,,,
295078,2022-10-03_14h24.09.223,vts_reward_expectancy,2022.2.4,MacIntel,60.0024001,Chrome,1440,900,,,,,1,1169,,,,,,,,,,,,,,,,,160,W,hexagon,1,0,,,,,,,,,,,,,,,,repeat,number,numRpt,f,0.499,Lo,,,,,,5,,,,,,,,high,26,0,26,0,1,,,,,,,,,
295078,2022-10-03_14h24.09.223,vts_reward_expectancy,2022.2.4,MacIntel,60.0024001,Chrome,1440,900,,,,,0,1169,,,,,,,,,,,,,,,,,181,S,circle,1,0,,,,,,,,,,,,,,,,switch,letter,lettSwt,k,0.7299,Hi,,,,,,5,,,,,,,,high,27,0,27,0,1,,,,,,,,,
295078,2022-10-03_14h24.09.223,vts_reward_expectancy,2022.2.4,MacIntel,60.0024001,Chrome,1440,900,,,,,0,1169,,,,,,,,,,,,,,,,,132,F,circle,1,0,,,,,,,,,,,,,,,,repeat,letter,lettRpt,j,0.6139,Hi,,,,,,5,,,,,,,,high,28,0,28,0,1,,,,,,,,,
295078,2022-10-03_14h24.09.223,vts_reward_expectancy,2022.2.4,MacIntel,60.0024001,Chrome,1440,900,,,,,1,1170,,,,,,,,,,,,,,,,,139,U,hexagon,1,0,,,,,,,,,,,,,,,,switch,number,numSwt,d,0.6876,Lo,,,,,,5,,,,,,,,high,29,0,29,0,1,,,,,,,,,
295078,2022-10-03_14h24.09.223,vts_reward_expectancy,2022.2.4,MacIntel,60.0024001,Chrome,1440,900,,,,,0,1170,,,,,,,,,,,,,,,,,146,H,circle,1,0,,,,,,,,,,,,,,,,switch,letter,lettSwt,j,0.5829,Hi,,,,,,5,,,,,,,,high,30,0,30,0,1,,,,,,,,,
295078,2022-10-03_14h24.09.223,vts_reward_expectancy,2022.2.4,MacIntel,60.0024001,Chrome,1440,900,,,,,1,1171,,,,,,,,,,,,,,,,,125,Y,hexagon,1,0,,,,,,,,,,,,,,,,switch,number,numSwt,d,0.6448,Lo,,,,,,5,,,,,,,,high,31,0,31,0,1,,,,,,,,,
295078,2022-10-03_14h24.09.223,vts_reward_expectancy,2022.2.4,MacIntel,60.0024001,Chrome,1440,900,,,,,,,,,,,,,,,,,,,,,,,,,,,,,,,,,,,,,,,,,,,,,,,,,,,,,,6,,,,,,,,,,,,,,switch between d and f for numbers and j and k for the alphabet,2,the shapes,5,4,,2,1440,900
