participant,date,expName,psychopyVersion,OS,frameRate,browser,xResolution,yResolution,key_resp.keys,key_resp.rt,training_resp.keys,training_resp.rt,points_trial,points_cumul,trainBlock,training.thisRepN,training.thisTrialN,training.thisN,training.thisIndex,training.ran,LTriangleOpac,LCircleOpac,LHexagonOpac,LStarOpac,RTriangleOpac,RCircleOpac,RHexagonOpac,RStarOpac,LShape_ID,RShape_ID,curr_topStim,curr_bottStim,curr_shape,acc,E1,target_resp_prac1.keys,target_resp_prac1.rt,pracBlock,task1_prac_trials.thisRepN,task1_prac_trials.thisTrialN,task1_prac_trials.thisN,task1_prac_trials.thisIndex,task1_prac_trials.ran,target_resp_prac2.keys,target_resp_prac2.rt,task2_praac_trials.thisRepN,task2_praac_trials.thisTrialN,task2_praac_trials.thisN,task2_praac_trials.thisIndex,task2_praac_trials.ran,alt,task,condition,target_resp.keys,target_resp.rt,rewCond,vts_practice_trials.thisRepN,vts_practice_trials.thisTrialN,vts_practice_trials.thisN,vts_practice_trials.thisIndex,vts_practice_trials.ran,blockNum,trials_norew.thisRepN,trials_norew.thisTrialN,trials_norew.thisN,trials_norew.thisIndex,trials_norew.ran,key_resp_2.keys,key_resp_2.rt,rewExpect,trials_rew.thisRepN,trials_rew.thisTrialN,trials_rew.thisN,trials_rew.thisIndex,trials_rew.ran,Q1,Q2,Q2_text,Q3,Q4,Q5_text,Q5,xRes,yRes
296227,2022-09-21_16h34.58.372,vts_reward_expectancy,2022.2.4,MacIntel,52.63157895,Safari,810,1080,,,,,,,,,,,,,,,,,,,,,,,,,,,,,,,,,,,,,,,,,,,,,,,,,,,,,,,,,,,,,,,,,,,,,,,,,,,,
296227,2022-09-21_16h34.58.372,vts_reward_expectancy,2022.2.4,MacIntel,52.63157895,Safari,810,1080,space,19.909,,,,,,,,,,,,,,,,,,,,,,,,,,,,,,,,,,,,,,,,,,,,,,,,,,,,,,,,,,,,,,,,,,,,,,,,,,
296227,2022-09-21_16h34.58.372,vts_reward_expectancy,2022.2.4,MacIntel,52.63157895,Safari,810,1080,,,,,,,,,,,,,,,,,,,,,,,,,,,,,,,,,,,,,,,,,,,,,,,,,,,,,,,,,,,,,,,,,,,,,,,,,,,,
296227,2022-09-21_16h34.58.372,vts_reward_expectancy,2022.2.4,MacIntel,52.63157895,Safari,810,1080,,,a,39.47,1,1,0,0,0,0,3,1,0,1,0,0,1,0,0,0,circle,triangle,,,,,,,,,,,,,,,,,,,,,,,,,,,,,,,,,,,,,,,,,,,,,,,,,,,,,,
296227,2022-09-21_16h34.58.372,vts_reward_expectancy,2022.2.4,MacIntel,52.63157895,Safari,810,1080,,,l,2.093,1,2,0,0,1,1,1,1,1,0,0,0,0,0,1,0,triangle,hexagon,,,,,,,,,,,,,,,,,,,,,,,,,,,,,,,,,,,,,,,,,,,,,,,,,,,,,,
296227,2022-09-21_16h34.58.372,vts_reward_expectancy,2022.2.4,MacIntel,52.63157895,Safari,810,1080,,,l,1.61,1,3,0,0,2,2,0,1,1,0,0,0,0,1,0,0,triangle,circle,,,,,,,,,,,,,,,,,,,,,,,,,,,,,,,,,,,,,,,,,,,,,,,,,,,,,,
296227,2022-09-21_16h34.58.372,vts_reward_expectancy,2022.2.4,MacIntel,52.63157895,Safari,810,1080,,,l,1.544,10,13,0,0,3,3,2,1,1,0,0,0,0,0,0,1,triangle,star,,,,,,,,,,,,,,,,,,,,,,,,,,,,,,,,,,,,,,,,,,,,,,,,,,,,,,
296227,2022-09-21_16h34.58.372,vts_reward_expectancy,2022.2.4,MacIntel,52.63157895,Safari,810,1080,,,a,2.194,1,14,0,0,4,4,8,1,0,0,1,0,0,0,0,1,hexagon,star,,,,,,,,,,,,,,,,,,,,,,,,,,,,,,,,,,,,,,,,,,,,,,,,,,,,,,
296227,2022-09-21_16h34.58.372,vts_reward_expectancy,2022.2.4,MacIntel,52.63157895,Safari,810,1080,,,a,1.479,10,24,0,0,5,5,6,1,0,0,1,0,1,0,0,0,hexagon,triangle,,,,,,,,,,,,,,,,,,,,,,,,,,,,,,,,,,,,,,,,,,,,,,,,,,,,,,
296227,2022-09-21_16h34.58.372,vts_reward_expectancy,2022.2.4,MacIntel,52.63157895,Safari,810,1080,,,a,1.645,10,34,0,0,6,6,11,1,0,0,0,1,0,0,1,0,star,hexagon,,,,,,,,,,,,,,,,,,,,,,,,,,,,,,,,,,,,,,,,,,,,,,,,,,,,,,
296227,2022-09-21_16h34.58.372,vts_reward_expectancy,2022.2.4,MacIntel,52.63157895,Safari,810,1080,,,l,1.011,10,44,0,0,7,7,5,1,0,1,0,0,0,0,0,1,circle,star,,,,,,,,,,,,,,,,,,,,,,,,,,,,,,,,,,,,,,,,,,,,,,,,,,,,,,
296227,2022-09-21_16h34.58.372,vts_reward_expectancy,2022.2.4,MacIntel,52.63157895,Safari,810,1080,,,l,3.775,1,45,0,0,8,8,7,1,0,0,1,0,0,1,0,0,hexagon,circle,,,,,,,,,,,,,,,,,,,,,,,,,,,,,,,,,,,,,,,,,,,,,,,,,,,,,,
296227,2022-09-21_16h34.58.372,vts_reward_expectancy,2022.2.4,MacIntel,52.63157895,Safari,810,1080,,,a,1.092,1,46,0,0,9,9,4,1,0,1,0,0,0,0,1,0,circle,hexagon,,,,,,,,,,,,,,,,,,,,,,,,,,,,,,,,,,,,,,,,,,,,,,,,,,,,,,
296227,2022-09-21_16h34.58.372,vts_reward_expectancy,2022.2.4,MacIntel,52.63157895,Safari,810,1080,,,a,0.678,1,47,0,0,10,10,10,1,0,0,0,1,0,1,0,0,star ,circle,,,,,,,,,,,,,,,,,,,,,,,,,,,,,,,,,,,,,,,,,,,,,,,,,,,,,,
296227,2022-09-21_16h34.58.372,vts_reward_expectancy,2022.2.4,MacIntel,52.63157895,Safari,810,1080,,,a,0.876,10,57,0,0,11,11,9,1,0,0,0,1,1,0,0,0,star,triangle,,,,,,,,,,,,,,,,,,,,,,,,,,,,,,,,,,,,,,,,,,,,,,,,,,,,,,
296227,2022-09-21_16h34.58.372,vts_reward_expectancy,2022.2.4,MacIntel,52.63157895,Safari,810,1080,,,a,1.378,10,67,0,1,0,12,7,1,0,0,1,0,0,1,0,0,hexagon,circle,,,,,,,,,,,,,,,,,,,,,,,,,,,,,,,,,,,,,,,,,,,,,,,,,,,,,,
296227,2022-09-21_16h34.58.372,vts_reward_expectancy,2022.2.4,MacIntel,52.63157895,Safari,810,1080,,,l,1.144,1,68,0,1,1,13,2,1,1,0,0,0,0,0,0,1,triangle,star,,,,,,,,,,,,,,,,,,,,,,,,,,,,,,,,,,,,,,,,,,,,,,,,,,,,,,
296227,2022-09-21_16h34.58.372,vts_reward_expectancy,2022.2.4,MacIntel,52.63157895,Safari,810,1080,,,a,0.911,10,78,0,1,2,14,11,1,0,0,0,1,0,0,1,0,star,hexagon,,,,,,,,,,,,,,,,,,,,,,,,,,,,,,,,,,,,,,,,,,,,,,,,,,,,,,
296227,2022-09-21_16h34.58.372,vts_reward_expectancy,2022.2.4,MacIntel,52.63157895,Safari,810,1080,,,a,1.911,10,88,0,1,3,15,0,1,1,0,0,0,0,1,0,0,triangle,circle,,,,,,,,,,,,,,,,,,,,,,,,,,,,,,,,,,,,,,,,,,,,,,,,,,,,,,
296227,2022-09-21_16h34.58.372,vts_reward_expectancy,2022.2.4,MacIntel,52.63157895,Safari,810,1080,,,a,0.913,10,98,0,1,4,16,10,1,0,0,0,1,0,1,0,0,star ,circle,,,,,,,,,,,,,,,,,,,,,,,,,,,,,,,,,,,,,,,,,,,,,,,,,,,,,,
296227,2022-09-21_16h34.58.372,vts_reward_expectancy,2022.2.4,MacIntel,52.63157895,Safari,810,1080,,,l,0.961,1,99,0,1,5,17,4,1,0,1,0,0,0,0,1,0,circle,hexagon,,,,,,,,,,,,,,,,,,,,,,,,,,,,,,,,,,,,,,,,,,,,,,,,,,,,,,
296227,2022-09-21_16h34.58.372,vts_reward_expectancy,2022.2.4,MacIntel,52.63157895,Safari,810,1080,,,l,1.595,1,100,0,1,6,18,1,1,1,0,0,0,0,0,1,0,triangle,hexagon,,,,,,,,,,,,,,,,,,,,,,,,,,,,,,,,,,,,,,,,,,,,,,,,,,,,,,
296227,2022-09-21_16h34.58.372,vts_reward_expectancy,2022.2.4,MacIntel,52.63157895,Safari,810,1080,,,l,0.663,10,110,0,1,7,19,8,1,0,0,1,0,0,0,0,1,hexagon,star,,,,,,,,,,,,,,,,,,,,,,,,,,,,,,,,,,,,,,,,,,,,,,,,,,,,,,
296227,2022-09-21_16h34.58.372,vts_reward_expectancy,2022.2.4,MacIntel,52.63157895,Safari,810,1080,,,l,0.711,10,120,0,1,8,20,5,1,0,1,0,0,0,0,0,1,circle,star,,,,,,,,,,,,,,,,,,,,,,,,,,,,,,,,,,,,,,,,,,,,,,,,,,,,,,
296227,2022-09-21_16h34.58.372,vts_reward_expectancy,2022.2.4,MacIntel,52.63157895,Safari,810,1080,,,a,0.845,1,121,0,1,9,21,9,1,0,0,0,1,1,0,0,0,star,triangle,,,,,,,,,,,,,,,,,,,,,,,,,,,,,,,,,,,,,,,,,,,,,,,,,,,,,,
296227,2022-09-21_16h34.58.372,vts_reward_expectancy,2022.2.4,MacIntel,52.63157895,Safari,810,1080,,,a,1.363,10,131,0,1,10,22,6,1,0,0,1,0,1,0,0,0,hexagon,triangle,,,,,,,,,,,,,,,,,,,,,,,,,,,,,,,,,,,,,,,,,,,,,,,,,,,,,,
296227,2022-09-21_16h34.58.372,vts_reward_expectancy,2022.2.4,MacIntel,52.63157895,Safari,810,1080,,,a,2.295,1,132,0,1,11,23,3,1,0,1,0,0,1,0,0,0,circle,triangle,,,,,,,,,,,,,,,,,,,,,,,,,,,,,,,,,,,,,,,,,,,,,,,,,,,,,,
296227,2022-09-21_16h34.58.372,vts_reward_expectancy,2022.2.4,MacIntel,52.63157895,Safari,810,1080,,,a,0.613,1,133,0,2,0,24,3,1,0,1,0,0,1,0,0,0,circle,triangle,,,,,,,,,,,,,,,,,,,,,,,,,,,,,,,,,,,,,,,,,,,,,,,,,,,,,,
296227,2022-09-21_16h34.58.372,vts_reward_expectancy,2022.2.4,MacIntel,52.63157895,Safari,810,1080,,,l,0.777,1,134,0,2,1,25,7,1,0,0,1,0,0,1,0,0,hexagon,circle,,,,,,,,,,,,,,,,,,,,,,,,,,,,,,,,,,,,,,,,,,,,,,,,,,,,,,
296227,2022-09-21_16h34.58.372,vts_reward_expectancy,2022.2.4,MacIntel,52.63157895,Safari,810,1080,,,a,0.546,1,135,0,2,2,26,10,1,0,0,0,1,0,1,0,0,star ,circle,,,,,,,,,,,,,,,,,,,,,,,,,,,,,,,,,,,,,,,,,,,,,,,,,,,,,,
296227,2022-09-21_16h34.58.372,vts_reward_expectancy,2022.2.4,MacIntel,52.63157895,Safari,810,1080,,,l,1.359,1,136,0,2,3,27,5,1,0,1,0,0,0,0,0,1,circle,star,,,,,,,,,,,,,,,,,,,,,,,,,,,,,,,,,,,,,,,,,,,,,,,,,,,,,,
296227,2022-09-21_16h34.58.372,vts_reward_expectancy,2022.2.4,MacIntel,52.63157895,Safari,810,1080,,,l,0.694,1,137,0,2,4,28,0,1,1,0,0,0,0,1,0,0,triangle,circle,,,,,,,,,,,,,,,,,,,,,,,,,,,,,,,,,,,,,,,,,,,,,,,,,,,,,,
296227,2022-09-21_16h34.58.372,vts_reward_expectancy,2022.2.4,MacIntel,52.63157895,Safari,810,1080,,,a,0.929,10,147,0,2,5,29,9,1,0,0,0,1,1,0,0,0,star,triangle,,,,,,,,,,,,,,,,,,,,,,,,,,,,,,,,,,,,,,,,,,,,,,,,,,,,,,
296227,2022-09-21_16h34.58.372,vts_reward_expectancy,2022.2.4,MacIntel,52.63157895,Safari,810,1080,,,l,1.076,10,157,0,2,6,30,4,1,0,1,0,0,0,0,1,0,circle,hexagon,,,,,,,,,,,,,,,,,,,,,,,,,,,,,,,,,,,,,,,,,,,,,,,,,,,,,,
296227,2022-09-21_16h34.58.372,vts_reward_expectancy,2022.2.4,MacIntel,52.63157895,Safari,810,1080,,,a,1.977,10,167,0,2,7,31,6,1,0,0,1,0,1,0,0,0,hexagon,triangle,,,,,,,,,,,,,,,,,,,,,,,,,,,,,,,,,,,,,,,,,,,,,,,,,,,,,,
296227,2022-09-21_16h34.58.372,vts_reward_expectancy,2022.2.4,MacIntel,52.63157895,Safari,810,1080,,,l,1.012,10,177,0,2,8,32,8,1,0,0,1,0,0,0,0,1,hexagon,star,,,,,,,,,,,,,,,,,,,,,,,,,,,,,,,,,,,,,,,,,,,,,,,,,,,,,,
296227,2022-09-21_16h34.58.372,vts_reward_expectancy,2022.2.4,MacIntel,52.63157895,Safari,810,1080,,,l,0.879,10,187,0,2,9,33,2,1,1,0,0,0,0,0,0,1,triangle,star,,,,,,,,,,,,,,,,,,,,,,,,,,,,,,,,,,,,,,,,,,,,,,,,,,,,,,
296227,2022-09-21_16h34.58.372,vts_reward_expectancy,2022.2.4,MacIntel,52.63157895,Safari,810,1080,,,l,1.513,10,197,0,2,10,34,1,1,1,0,0,0,0,0,1,0,triangle,hexagon,,,,,,,,,,,,,,,,,,,,,,,,,,,,,,,,,,,,,,,,,,,,,,,,,,,,,,
296227,2022-09-21_16h34.58.372,vts_reward_expectancy,2022.2.4,MacIntel,52.63157895,Safari,810,1080,,,a,0.946,1,198,0,2,11,35,11,1,0,0,0,1,0,0,1,0,star,hexagon,,,,,,,,,,,,,,,,,,,,,,,,,,,,,,,,,,,,,,,,,,,,,,,,,,,,,,
296227,2022-09-21_16h34.58.372,vts_reward_expectancy,2022.2.4,MacIntel,52.63157895,Safari,810,1080,,,l,0.744,10,208,1,0,0,0,8,1,0,0,1,0,0,0,0,1,hexagon,star,,,,,,,,,,,,,,,,,,,,,,,,,,,,,,,,,,,,,,,,,,,,,,,,,,,,,,
296227,2022-09-21_16h34.58.372,vts_reward_expectancy,2022.2.4,MacIntel,52.63157895,Safari,810,1080,,,a,1.112,10,218,1,0,1,1,6,1,0,0,1,0,1,0,0,0,hexagon,triangle,,,,,,,,,,,,,,,,,,,,,,,,,,,,,,,,,,,,,,,,,,,,,,,,,,,,,,
296227,2022-09-21_16h34.58.372,vts_reward_expectancy,2022.2.4,MacIntel,52.63157895,Safari,810,1080,,,l,0.708,10,228,1,0,2,2,5,1,0,1,0,0,0,0,0,1,circle,star,,,,,,,,,,,,,,,,,,,,,,,,,,,,,,,,,,,,,,,,,,,,,,,,,,,,,,
296227,2022-09-21_16h34.58.372,vts_reward_expectancy,2022.2.4,MacIntel,52.63157895,Safari,810,1080,,,a,0.98,1,229,1,0,3,3,3,1,0,1,0,0,1,0,0,0,circle,triangle,,,,,,,,,,,,,,,,,,,,,,,,,,,,,,,,,,,,,,,,,,,,,,,,,,,,,,
296227,2022-09-21_16h34.58.372,vts_reward_expectancy,2022.2.4,MacIntel,52.63157895,Safari,810,1080,,,a,1.062,1,230,1,0,4,4,4,1,0,1,0,0,0,0,1,0,circle,hexagon,,,,,,,,,,,,,,,,,,,,,,,,,,,,,,,,,,,,,,,,,,,,,,,,,,,,,,
296227,2022-09-21_16h34.58.372,vts_reward_expectancy,2022.2.4,MacIntel,52.63157895,Safari,810,1080,,,l,0.777,1,231,1,0,5,5,7,1,0,0,1,0,0,1,0,0,hexagon,circle,,,,,,,,,,,,,,,,,,,,,,,,,,,,,,,,,,,,,,,,,,,,,,,,,,,,,,
296227,2022-09-21_16h34.58.372,vts_reward_expectancy,2022.2.4,MacIntel,52.63157895,Safari,810,1080,,,l,0.844,1,232,1,0,6,6,10,1,0,0,0,1,0,1,0,0,star ,circle,,,,,,,,,,,,,,,,,,,,,,,,,,,,,,,,,,,,,,,,,,,,,,,,,,,,,,
296227,2022-09-21_16h34.58.372,vts_reward_expectancy,2022.2.4,MacIntel,52.63157895,Safari,810,1080,,,l,0.73,1,233,1,0,7,7,0,1,1,0,0,0,0,1,0,0,triangle,circle,,,,,,,,,,,,,,,,,,,,,,,,,,,,,,,,,,,,,,,,,,,,,,,,,,,,,,
296227,2022-09-21_16h34.58.372,vts_reward_expectancy,2022.2.4,MacIntel,52.63157895,Safari,810,1080,,,a,1.062,10,243,1,0,8,8,1,1,1,0,0,0,0,0,1,0,triangle,hexagon,,,,,,,,,,,,,,,,,,,,,,,,,,,,,,,,,,,,,,,,,,,,,,,,,,,,,,
296227,2022-09-21_16h34.58.372,vts_reward_expectancy,2022.2.4,MacIntel,52.63157895,Safari,810,1080,,,a,0.646,10,253,1,0,9,9,9,1,0,0,0,1,1,0,0,0,star,triangle,,,,,,,,,,,,,,,,,,,,,,,,,,,,,,,,,,,,,,,,,,,,,,,,,,,,,,
296227,2022-09-21_16h34.58.372,vts_reward_expectancy,2022.2.4,MacIntel,52.63157895,Safari,810,1080,,,a,0.813,1,254,1,0,10,10,11,1,0,0,0,1,0,0,1,0,star,hexagon,,,,,,,,,,,,,,,,,,,,,,,,,,,,,,,,,,,,,,,,,,,,,,,,,,,,,,
296227,2022-09-21_16h34.58.372,vts_reward_expectancy,2022.2.4,MacIntel,52.63157895,Safari,810,1080,,,l,0.627,10,264,1,0,11,11,2,1,1,0,0,0,0,0,0,1,triangle,star,,,,,,,,,,,,,,,,,,,,,,,,,,,,,,,,,,,,,,,,,,,,,,,,,,,,,,
296227,2022-09-21_16h34.58.372,vts_reward_expectancy,2022.2.4,MacIntel,52.63157895,Safari,810,1080,,,l,0.645,10,274,1,1,0,12,5,1,0,1,0,0,0,0,0,1,circle,star,,,,,,,,,,,,,,,,,,,,,,,,,,,,,,,,,,,,,,,,,,,,,,,,,,,,,,
296227,2022-09-21_16h34.58.372,vts_reward_expectancy,2022.2.4,MacIntel,52.63157895,Safari,810,1080,,,l,0.645,10,284,1,1,1,13,4,1,0,1,0,0,0,0,1,0,circle,hexagon,,,,,,,,,,,,,,,,,,,,,,,,,,,,,,,,,,,,,,,,,,,,,,,,,,,,,,
296227,2022-09-21_16h34.58.372,vts_reward_expectancy,2022.2.4,MacIntel,52.63157895,Safari,810,1080,,,a,0.678,10,294,1,1,2,14,10,1,0,0,0,1,0,1,0,0,star ,circle,,,,,,,,,,,,,,,,,,,,,,,,,,,,,,,,,,,,,,,,,,,,,,,,,,,,,,
296227,2022-09-21_16h34.58.372,vts_reward_expectancy,2022.2.4,MacIntel,52.63157895,Safari,810,1080,,,a,0.512,10,304,1,1,3,15,11,1,0,0,0,1,0,0,1,0,star,hexagon,,,,,,,,,,,,,,,,,,,,,,,,,,,,,,,,,,,,,,,,,,,,,,,,,,,,,,
296227,2022-09-21_16h34.58.372,vts_reward_expectancy,2022.2.4,MacIntel,52.63157895,Safari,810,1080,,,a,1.595,1,305,1,1,4,16,8,1,0,0,1,0,0,0,0,1,hexagon,star,,,,,,,,,,,,,,,,,,,,,,,,,,,,,,,,,,,,,,,,,,,,,,,,,,,,,,
296227,2022-09-21_16h34.58.372,vts_reward_expectancy,2022.2.4,MacIntel,52.63157895,Safari,810,1080,,,a,0.543,1,306,1,1,5,17,2,1,1,0,0,0,0,0,0,1,triangle,star,,,,,,,,,,,,,,,,,,,,,,,,,,,,,,,,,,,,,,,,,,,,,,,,,,,,,,
296227,2022-09-21_16h34.58.372,vts_reward_expectancy,2022.2.4,MacIntel,52.63157895,Safari,810,1080,,,a,0.727,10,316,1,1,6,18,6,1,0,0,1,0,1,0,0,0,hexagon,triangle,,,,,,,,,,,,,,,,,,,,,,,,,,,,,,,,,,,,,,,,,,,,,,,,,,,,,,
296227,2022-09-21_16h34.58.372,vts_reward_expectancy,2022.2.4,MacIntel,52.63157895,Safari,810,1080,,,l,0.828,10,326,1,1,7,19,1,1,1,0,0,0,0,0,1,0,triangle,hexagon,,,,,,,,,,,,,,,,,,,,,,,,,,,,,,,,,,,,,,,,,,,,,,,,,,,,,,
296227,2022-09-21_16h34.58.372,vts_reward_expectancy,2022.2.4,MacIntel,52.63157895,Safari,810,1080,,,a,1.36,10,336,1,1,8,20,7,1,0,0,1,0,0,1,0,0,hexagon,circle,,,,,,,,,,,,,,,,,,,,,,,,,,,,,,,,,,,,,,,,,,,,,,,,,,,,,,
296227,2022-09-21_16h34.58.372,vts_reward_expectancy,2022.2.4,MacIntel,52.63157895,Safari,810,1080,,,a,0.712,10,346,1,1,9,21,9,1,0,0,0,1,1,0,0,0,star,triangle,,,,,,,,,,,,,,,,,,,,,,,,,,,,,,,,,,,,,,,,,,,,,,,,,,,,,,
296227,2022-09-21_16h34.58.372,vts_reward_expectancy,2022.2.4,MacIntel,52.63157895,Safari,810,1080,,,a,2.325,1,347,1,1,10,22,0,1,1,0,0,0,0,1,0,0,triangle,circle,,,,,,,,,,,,,,,,,,,,,,,,,,,,,,,,,,,,,,,,,,,,,,,,,,,,,,
296227,2022-09-21_16h34.58.372,vts_reward_expectancy,2022.2.4,MacIntel,52.63157895,Safari,810,1080,,,l,1.443,10,357,1,1,11,23,3,1,0,1,0,0,1,0,0,0,circle,triangle,,,,,,,,,,,,,,,,,,,,,,,,,,,,,,,,,,,,,,,,,,,,,,,,,,,,,,
296227,2022-09-21_16h34.58.372,vts_reward_expectancy,2022.2.4,MacIntel,52.63157895,Safari,810,1080,,,l,0.811,1,358,1,2,0,24,8,1,0,0,1,0,0,0,0,1,hexagon,star,,,,,,,,,,,,,,,,,,,,,,,,,,,,,,,,,,,,,,,,,,,,,,,,,,,,,,
296227,2022-09-21_16h34.58.372,vts_reward_expectancy,2022.2.4,MacIntel,52.63157895,Safari,810,1080,,,l,0.662,10,368,1,2,1,25,1,1,1,0,0,0,0,0,1,0,triangle,hexagon,,,,,,,,,,,,,,,,,,,,,,,,,,,,,,,,,,,,,,,,,,,,,,,,,,,,,,
296227,2022-09-21_16h34.58.372,vts_reward_expectancy,2022.2.4,MacIntel,52.63157895,Safari,810,1080,,,l,0.594,10,378,1,2,2,26,4,1,0,1,0,0,0,0,1,0,circle,hexagon,,,,,,,,,,,,,,,,,,,,,,,,,,,,,,,,,,,,,,,,,,,,,,,,,,,,,,
296227,2022-09-21_16h34.58.372,vts_reward_expectancy,2022.2.4,MacIntel,52.63157895,Safari,810,1080,,,l,0.629,10,388,1,2,3,27,2,1,1,0,0,0,0,0,0,1,triangle,star,,,,,,,,,,,,,,,,,,,,,,,,,,,,,,,,,,,,,,,,,,,,,,,,,,,,,,
296227,2022-09-21_16h34.58.372,vts_reward_expectancy,2022.2.4,MacIntel,52.63157895,Safari,810,1080,,,a,1.029,10,398,1,2,4,28,0,1,1,0,0,0,0,1,0,0,triangle,circle,,,,,,,,,,,,,,,,,,,,,,,,,,,,,,,,,,,,,,,,,,,,,,,,,,,,,,
296227,2022-09-21_16h34.58.372,vts_reward_expectancy,2022.2.4,MacIntel,52.63157895,Safari,810,1080,,,a,0.532,10,408,1,2,5,29,10,1,0,0,0,1,0,1,0,0,star ,circle,,,,,,,,,,,,,,,,,,,,,,,,,,,,,,,,,,,,,,,,,,,,,,,,,,,,,,
296227,2022-09-21_16h34.58.372,vts_reward_expectancy,2022.2.4,MacIntel,52.63157895,Safari,810,1080,,,l,0.677,1,409,1,2,6,30,5,1,0,1,0,0,0,0,0,1,circle,star,,,,,,,,,,,,,,,,,,,,,,,,,,,,,,,,,,,,,,,,,,,,,,,,,,,,,,
296227,2022-09-21_16h34.58.372,vts_reward_expectancy,2022.2.4,MacIntel,52.63157895,Safari,810,1080,,,a,1.462,10,419,1,2,7,31,6,1,0,0,1,0,1,0,0,0,hexagon,triangle,,,,,,,,,,,,,,,,,,,,,,,,,,,,,,,,,,,,,,,,,,,,,,,,,,,,,,
296227,2022-09-21_16h34.58.372,vts_reward_expectancy,2022.2.4,MacIntel,52.63157895,Safari,810,1080,,,a,0.648,10,429,1,2,8,32,9,1,0,0,0,1,1,0,0,0,star,triangle,,,,,,,,,,,,,,,,,,,,,,,,,,,,,,,,,,,,,,,,,,,,,,,,,,,,,,
296227,2022-09-21_16h34.58.372,vts_reward_expectancy,2022.2.4,MacIntel,52.63157895,Safari,810,1080,,,l,2.877,10,439,1,2,9,33,3,1,0,1,0,0,1,0,0,0,circle,triangle,,,,,,,,,,,,,,,,,,,,,,,,,,,,,,,,,,,,,,,,,,,,,,,,,,,,,,
296227,2022-09-21_16h34.58.372,vts_reward_expectancy,2022.2.4,MacIntel,52.63157895,Safari,810,1080,,,a,1.478,10,449,1,2,10,34,11,1,0,0,0,1,0,0,1,0,star,hexagon,,,,,,,,,,,,,,,,,,,,,,,,,,,,,,,,,,,,,,,,,,,,,,,,,,,,,,
296227,2022-09-21_16h34.58.372,vts_reward_expectancy,2022.2.4,MacIntel,52.63157895,Safari,810,1080,,,a,1.278,1,450,1,2,11,35,7,1,0,0,1,0,0,1,0,0,hexagon,circle,,,,,,,,,,,,,,,,,,,,,,,,,,,,,,,,,,,,,,,,,,,,,,,,,,,,,,
296227,2022-09-21_16h34.58.372,vts_reward_expectancy,2022.2.4,MacIntel,52.63157895,Safari,810,1080,,,a,1.394,1,451,2,0,0,0,0,1,1,0,0,0,0,1,0,0,triangle,circle,,,,,,,,,,,,,,,,,,,,,,,,,,,,,,,,,,,,,,,,,,,,,,,,,,,,,,
296227,2022-09-21_16h34.58.372,vts_reward_expectancy,2022.2.4,MacIntel,52.63157895,Safari,810,1080,,,l,0.646,10,461,2,0,1,1,2,1,1,0,0,0,0,0,0,1,triangle,star,,,,,,,,,,,,,,,,,,,,,,,,,,,,,,,,,,,,,,,,,,,,,,,,,,,,,,
296227,2022-09-21_16h34.58.372,vts_reward_expectancy,2022.2.4,MacIntel,52.63157895,Safari,810,1080,,,l,0.578,10,471,2,0,2,2,5,1,0,1,0,0,0,0,0,1,circle,star,,,,,,,,,,,,,,,,,,,,,,,,,,,,,,,,,,,,,,,,,,,,,,,,,,,,,,
296227,2022-09-21_16h34.58.372,vts_reward_expectancy,2022.2.4,MacIntel,52.63157895,Safari,810,1080,,,a,0.726,10,481,2,0,3,3,7,1,0,0,1,0,0,1,0,0,hexagon,circle,,,,,,,,,,,,,,,,,,,,,,,,,,,,,,,,,,,,,,,,,,,,,,,,,,,,,,
296227,2022-09-21_16h34.58.372,vts_reward_expectancy,2022.2.4,MacIntel,52.63157895,Safari,810,1080,,,a,0.562,10,491,2,0,4,4,9,1,0,0,0,1,1,0,0,0,star,triangle,,,,,,,,,,,,,,,,,,,,,,,,,,,,,,,,,,,,,,,,,,,,,,,,,,,,,,
296227,2022-09-21_16h34.58.372,vts_reward_expectancy,2022.2.4,MacIntel,52.63157895,Safari,810,1080,,,a,0.511,10,501,2,0,5,5,10,1,0,0,0,1,0,1,0,0,star ,circle,,,,,,,,,,,,,,,,,,,,,,,,,,,,,,,,,,,,,,,,,,,,,,,,,,,,,,
296227,2022-09-21_16h34.58.372,vts_reward_expectancy,2022.2.4,MacIntel,52.63157895,Safari,810,1080,,,l,0.679,1,502,2,0,6,6,1,1,1,0,0,0,0,0,1,0,triangle,hexagon,,,,,,,,,,,,,,,,,,,,,,,,,,,,,,,,,,,,,,,,,,,,,,,,,,,,,,
296227,2022-09-21_16h34.58.372,vts_reward_expectancy,2022.2.4,MacIntel,52.63157895,Safari,810,1080,,,a,0.645,1,503,2,0,7,7,3,1,0,1,0,0,1,0,0,0,circle,triangle,,,,,,,,,,,,,,,,,,,,,,,,,,,,,,,,,,,,,,,,,,,,,,,,,,,,,,
296227,2022-09-21_16h34.58.372,vts_reward_expectancy,2022.2.4,MacIntel,52.63157895,Safari,810,1080,,,l,0.443,10,513,2,0,8,8,8,1,0,0,1,0,0,0,0,1,hexagon,star,,,,,,,,,,,,,,,,,,,,,,,,,,,,,,,,,,,,,,,,,,,,,,,,,,,,,,
296227,2022-09-21_16h34.58.372,vts_reward_expectancy,2022.2.4,MacIntel,52.63157895,Safari,810,1080,,,l,0.542,1,514,2,0,9,9,4,1,0,1,0,0,0,0,1,0,circle,hexagon,,,,,,,,,,,,,,,,,,,,,,,,,,,,,,,,,,,,,,,,,,,,,,,,,,,,,,
296227,2022-09-21_16h34.58.372,vts_reward_expectancy,2022.2.4,MacIntel,52.63157895,Safari,810,1080,,,a,0.561,1,515,2,0,10,10,6,1,0,0,1,0,1,0,0,0,hexagon,triangle,,,,,,,,,,,,,,,,,,,,,,,,,,,,,,,,,,,,,,,,,,,,,,,,,,,,,,
296227,2022-09-21_16h34.58.372,vts_reward_expectancy,2022.2.4,MacIntel,52.63157895,Safari,810,1080,,,a,0.51,10,525,2,0,11,11,11,1,0,0,0,1,0,0,1,0,star,hexagon,,,,,,,,,,,,,,,,,,,,,,,,,,,,,,,,,,,,,,,,,,,,,,,,,,,,,,
296227,2022-09-21_16h34.58.372,vts_reward_expectancy,2022.2.4,MacIntel,52.63157895,Safari,810,1080,,,l,0.578,10,535,2,1,0,12,4,1,0,1,0,0,0,0,1,0,circle,hexagon,,,,,,,,,,,,,,,,,,,,,,,,,,,,,,,,,,,,,,,,,,,,,,,,,,,,,,
296227,2022-09-21_16h34.58.372,vts_reward_expectancy,2022.2.4,MacIntel,52.63157895,Safari,810,1080,,,a,0.729,10,545,2,1,1,13,9,1,0,0,0,1,1,0,0,0,star,triangle,,,,,,,,,,,,,,,,,,,,,,,,,,,,,,,,,,,,,,,,,,,,,,,,,,,,,,
296227,2022-09-21_16h34.58.372,vts_reward_expectancy,2022.2.4,MacIntel,52.63157895,Safari,810,1080,,,l,0.562,1,546,2,1,2,14,2,1,1,0,0,0,0,0,0,1,triangle,star,,,,,,,,,,,,,,,,,,,,,,,,,,,,,,,,,,,,,,,,,,,,,,,,,,,,,,
296227,2022-09-21_16h34.58.372,vts_reward_expectancy,2022.2.4,MacIntel,52.63157895,Safari,810,1080,,,a,0.462,1,547,2,1,3,15,10,1,0,0,0,1,0,1,0,0,star ,circle,,,,,,,,,,,,,,,,,,,,,,,,,,,,,,,,,,,,,,,,,,,,,,,,,,,,,,
296227,2022-09-21_16h34.58.372,vts_reward_expectancy,2022.2.4,MacIntel,52.63157895,Safari,810,1080,,,l,0.411,10,557,2,1,4,16,8,1,0,0,1,0,0,0,0,1,hexagon,star,,,,,,,,,,,,,,,,,,,,,,,,,,,,,,,,,,,,,,,,,,,,,,,,,,,,,,
296227,2022-09-21_16h34.58.372,vts_reward_expectancy,2022.2.4,MacIntel,52.63157895,Safari,810,1080,,,l,1.011,10,567,2,1,5,17,3,1,0,1,0,0,1,0,0,0,circle,triangle,,,,,,,,,,,,,,,,,,,,,,,,,,,,,,,,,,,,,,,,,,,,,,,,,,,,,,
296227,2022-09-21_16h34.58.372,vts_reward_expectancy,2022.2.4,MacIntel,52.63157895,Safari,810,1080,,,l,0.979,1,568,2,1,6,18,1,1,1,0,0,0,0,0,1,0,triangle,hexagon,,,,,,,,,,,,,,,,,,,,,,,,,,,,,,,,,,,,,,,,,,,,,,,,,,,,,,
296227,2022-09-21_16h34.58.372,vts_reward_expectancy,2022.2.4,MacIntel,52.63157895,Safari,810,1080,,,a,0.795,1,569,2,1,7,19,0,1,1,0,0,0,0,1,0,0,triangle,circle,,,,,,,,,,,,,,,,,,,,,,,,,,,,,,,,,,,,,,,,,,,,,,,,,,,,,,
296227,2022-09-21_16h34.58.372,vts_reward_expectancy,2022.2.4,MacIntel,52.63157895,Safari,810,1080,,,l,0.494,10,579,2,1,8,20,5,1,0,1,0,0,0,0,0,1,circle,star,,,,,,,,,,,,,,,,,,,,,,,,,,,,,,,,,,,,,,,,,,,,,,,,,,,,,,
296227,2022-09-21_16h34.58.372,vts_reward_expectancy,2022.2.4,MacIntel,52.63157895,Safari,810,1080,,,a,1.029,1,580,2,1,9,21,6,1,0,0,1,0,1,0,0,0,hexagon,triangle,,,,,,,,,,,,,,,,,,,,,,,,,,,,,,,,,,,,,,,,,,,,,,,,,,,,,,
296227,2022-09-21_16h34.58.372,vts_reward_expectancy,2022.2.4,MacIntel,52.63157895,Safari,810,1080,,,a,0.545,10,590,2,1,10,22,11,1,0,0,0,1,0,0,1,0,star,hexagon,,,,,,,,,,,,,,,,,,,,,,,,,,,,,,,,,,,,,,,,,,,,,,,,,,,,,,
296227,2022-09-21_16h34.58.372,vts_reward_expectancy,2022.2.4,MacIntel,52.63157895,Safari,810,1080,,,a,1.661,1,591,2,1,11,23,7,1,0,0,1,0,0,1,0,0,hexagon,circle,,,,,,,,,,,,,,,,,,,,,,,,,,,,,,,,,,,,,,,,,,,,,,,,,,,,,,
296227,2022-09-21_16h34.58.372,vts_reward_expectancy,2022.2.4,MacIntel,52.63157895,Safari,810,1080,,,l,1.26,10,601,2,2,0,24,4,1,0,1,0,0,0,0,1,0,circle,hexagon,,,,,,,,,,,,,,,,,,,,,,,,,,,,,,,,,,,,,,,,,,,,,,,,,,,,,,
296227,2022-09-21_16h34.58.372,vts_reward_expectancy,2022.2.4,MacIntel,52.63157895,Safari,810,1080,,,l,1.05,10,611,2,2,1,25,8,1,0,0,1,0,0,0,0,1,hexagon,star,,,,,,,,,,,,,,,,,,,,,,,,,,,,,,,,,,,,,,,,,,,,,,,,,,,,,,
296227,2022-09-21_16h34.58.372,vts_reward_expectancy,2022.2.4,MacIntel,52.63157895,Safari,810,1080,,,l,1.228,10,621,2,2,2,26,3,1,0,1,0,0,1,0,0,0,circle,triangle,,,,,,,,,,,,,,,,,,,,,,,,,,,,,,,,,,,,,,,,,,,,,,,,,,,,,,
296227,2022-09-21_16h34.58.372,vts_reward_expectancy,2022.2.4,MacIntel,52.63157895,Safari,810,1080,,,a,1.478,10,631,2,2,3,27,0,1,1,0,0,0,0,1,0,0,triangle,circle,,,,,,,,,,,,,,,,,,,,,,,,,,,,,,,,,,,,,,,,,,,,,,,,,,,,,,
296227,2022-09-21_16h34.58.372,vts_reward_expectancy,2022.2.4,MacIntel,52.63157895,Safari,810,1080,,,l,0.746,10,641,2,2,4,28,2,1,1,0,0,0,0,0,0,1,triangle,star,,,,,,,,,,,,,,,,,,,,,,,,,,,,,,,,,,,,,,,,,,,,,,,,,,,,,,
296227,2022-09-21_16h34.58.372,vts_reward_expectancy,2022.2.4,MacIntel,52.63157895,Safari,810,1080,,,a,2.36,1,642,2,2,5,29,6,1,0,0,1,0,1,0,0,0,hexagon,triangle,,,,,,,,,,,,,,,,,,,,,,,,,,,,,,,,,,,,,,,,,,,,,,,,,,,,,,
296227,2022-09-21_16h34.58.372,vts_reward_expectancy,2022.2.4,MacIntel,52.63157895,Safari,810,1080,,,a,0.728,10,652,2,2,6,30,9,1,0,0,0,1,1,0,0,0,star,triangle,,,,,,,,,,,,,,,,,,,,,,,,,,,,,,,,,,,,,,,,,,,,,,,,,,,,,,
296227,2022-09-21_16h34.58.372,vts_reward_expectancy,2022.2.4,MacIntel,52.63157895,Safari,810,1080,,,l,1.675,1,653,2,2,7,31,7,1,0,0,1,0,0,1,0,0,hexagon,circle,,,,,,,,,,,,,,,,,,,,,,,,,,,,,,,,,,,,,,,,,,,,,,,,,,,,,,
296227,2022-09-21_16h34.58.372,vts_reward_expectancy,2022.2.4,MacIntel,52.63157895,Safari,810,1080,,,l,1.644,10,663,2,2,8,32,1,1,1,0,0,0,0,0,1,0,triangle,hexagon,,,,,,,,,,,,,,,,,,,,,,,,,,,,,,,,,,,,,,,,,,,,,,,,,,,,,,
296227,2022-09-21_16h34.58.372,vts_reward_expectancy,2022.2.4,MacIntel,52.63157895,Safari,810,1080,,,a,0.728,10,673,2,2,9,33,10,1,0,0,0,1,0,1,0,0,star ,circle,,,,,,,,,,,,,,,,,,,,,,,,,,,,,,,,,,,,,,,,,,,,,,,,,,,,,,
296227,2022-09-21_16h34.58.372,vts_reward_expectancy,2022.2.4,MacIntel,52.63157895,Safari,810,1080,,,a,0.895,10,683,2,2,10,34,11,1,0,0,0,1,0,0,1,0,star,hexagon,,,,,,,,,,,,,,,,,,,,,,,,,,,,,,,,,,,,,,,,,,,,,,,,,,,,,,
296227,2022-09-21_16h34.58.372,vts_reward_expectancy,2022.2.4,MacIntel,52.63157895,Safari,810,1080,,,l,1.177,10,693,2,2,11,35,5,1,0,1,0,0,0,0,0,1,circle,star,,,,,,,,,,,,,,,,,,,,,,,,,,,,,,,,,,,,,,,,,,,,,,,,,,,,,,
296227,2022-09-21_16h34.58.372,vts_reward_expectancy,2022.2.4,MacIntel,52.63157895,Safari,810,1080,,,,,,,,,,,,,,,,,,,,,,,W,181,star,1,0,f,1.901,0,0,0,0,0,1,,,,,,,,,,,,,,,,,,,,,,,,,,,,,,,,,,,,,,,,,
296227,2022-09-21_16h34.58.372,vts_reward_expectancy,2022.2.4,MacIntel,52.63157895,Safari,810,1080,,,,,,,,,,,,,,,,,,,,,,,D,139,circle,1,0,d,0.755,0,1,0,1,0,1,,,,,,,,,,,,,,,,,,,,,,,,,,,,,,,,,,,,,,,,,
296227,2022-09-21_16h34.58.372,vts_reward_expectancy,2022.2.4,MacIntel,52.63157895,Safari,810,1080,,,,,,,,,,,,,,,,,,,,,,,U,132,triangle,1,0,f,0.632,0,2,0,2,0,1,,,,,,,,,,,,,,,,,,,,,,,,,,,,,,,,,,,,,,,,,
296227,2022-09-21_16h34.58.372,vts_reward_expectancy,2022.2.4,MacIntel,52.63157895,Safari,810,1080,,,,,,,,,,,,,,,,,,,,,,,F,174,hexagon,1,0,d,0.718,0,3,0,3,0,1,,,,,,,,,,,,,,,,,,,,,,,,,,,,,,,,,,,,,,,,,
296227,2022-09-21_16h34.58.372,vts_reward_expectancy,2022.2.4,MacIntel,52.63157895,Safari,810,1080,,,,,,,,,,,,,,,,,,,,,,,H,125,star,1,0,d,0.551,0,4,0,4,0,1,,,,,,,,,,,,,,,,,,,,,,,,,,,,,,,,,,,,,,,,,
296227,2022-09-21_16h34.58.372,vts_reward_expectancy,2022.2.4,MacIntel,52.63157895,Safari,810,1080,,,,,,,,,,,,,,,,,,,,,,,B,160,circle,1,0,d,0.552,0,5,0,5,0,1,,,,,,,,,,,,,,,,,,,,,,,,,,,,,,,,,,,,,,,,,
296227,2022-09-21_16h34.58.372,vts_reward_expectancy,2022.2.4,MacIntel,52.63157895,Safari,810,1080,,,,,,,,,,,,,,,,,,,,,,,Y,146,triangle,1,0,f,0.566,0,6,0,6,0,1,,,,,,,,,,,,,,,,,,,,,,,,,,,,,,,,,,,,,,,,,
296227,2022-09-21_16h34.58.372,vts_reward_expectancy,2022.2.4,MacIntel,52.63157895,Safari,810,1080,,,,,,,,,,,,,,,,,,,,,,,S,167,hexagon,1,0,f,0.622,0,7,0,7,0,1,,,,,,,,,,,,,,,,,,,,,,,,,,,,,,,,,,,,,,,,,
296227,2022-09-21_16h34.58.372,vts_reward_expectancy,2022.2.4,MacIntel,52.63157895,Safari,810,1080,,,,,,,,,,,,,,,,,,,,,,,W,181,star,1,0,f,0.604,0,8,0,8,0,1,,,,,,,,,,,,,,,,,,,,,,,,,,,,,,,,,,,,,,,,,
296227,2022-09-21_16h34.58.372,vts_reward_expectancy,2022.2.4,MacIntel,52.63157895,Safari,810,1080,,,,,,,,,,,,,,,,,,,,,,,D,139,triangle,1,0,d,0.551,0,9,0,9,0,1,,,,,,,,,,,,,,,,,,,,,,,,,,,,,,,,,,,,,,,,,
296227,2022-09-21_16h34.58.372,vts_reward_expectancy,2022.2.4,MacIntel,52.63157895,Safari,810,1080,,,,,,,,,,,,,,,,,,,,,,,S,139,circle,1,0,,,1,,,,,,j,0.672,0,0,0,0,1,,,,,,,,,,,,,,,,,,,,,,,,,,,,,,,,,,
296227,2022-09-21_16h34.58.372,vts_reward_expectancy,2022.2.4,MacIntel,52.63157895,Safari,810,1080,,,,,,,,,,,,,,,,,,,,,,,U,181,hexagon,1,0,,,1,,,,,,k,0.702,1,0,1,0,1,,,,,,,,,,,,,,,,,,,,,,,,,,,,,,,,,,
296227,2022-09-21_16h34.58.372,vts_reward_expectancy,2022.2.4,MacIntel,52.63157895,Safari,810,1080,,,,,,,,,,,,,,,,,,,,,,,H,132,star,1,0,,,1,,,,,,j,0.605,2,0,2,0,1,,,,,,,,,,,,,,,,,,,,,,,,,,,,,,,,,,
296227,2022-09-21_16h34.58.372,vts_reward_expectancy,2022.2.4,MacIntel,52.63157895,Safari,810,1080,,,,,,,,,,,,,,,,,,,,,,,B,174,triangle,1,0,,,1,,,,,,k,0.569,3,0,3,0,1,,,,,,,,,,,,,,,,,,,,,,,,,,,,,,,,,,
296227,2022-09-21_16h34.58.372,vts_reward_expectancy,2022.2.4,MacIntel,52.63157895,Safari,810,1080,,,,,,,,,,,,,,,,,,,,,,,F,125,circle,1,0,,,1,,,,,,j,0.823,4,0,4,0,1,,,,,,,,,,,,,,,,,,,,,,,,,,,,,,,,,,
296227,2022-09-21_16h34.58.372,vts_reward_expectancy,2022.2.4,MacIntel,52.63157895,Safari,810,1080,,,,,,,,,,,,,,,,,,,,,,,W,146,hexagon,1,0,,,1,,,,,,j,1.238,5,0,5,0,1,,,,,,,,,,,,,,,,,,,,,,,,,,,,,,,,,,
296227,2022-09-21_16h34.58.372,vts_reward_expectancy,2022.2.4,MacIntel,52.63157895,Safari,810,1080,,,,,,,,,,,,,,,,,,,,,,,Y,167,star,1,0,,,1,,,,,,k,0.601,6,0,6,0,1,,,,,,,,,,,,,,,,,,,,,,,,,,,,,,,,,,
296227,2022-09-21_16h34.58.372,vts_reward_expectancy,2022.2.4,MacIntel,52.63157895,Safari,810,1080,,,,,,,,,,,,,,,,,,,,,,,D,160,triangle,1,0,,,1,,,,,,k,0.522,7,0,7,0,1,,,,,,,,,,,,,,,,,,,,,,,,,,,,,,,,,,
296227,2022-09-21_16h34.58.372,vts_reward_expectancy,2022.2.4,MacIntel,52.63157895,Safari,810,1080,,,,,,,,,,,,,,,,,,,,,,,S,139,star,1,0,,,1,,,,,,j,0.884,8,0,8,0,1,,,,,,,,,,,,,,,,,,,,,,,,,,,,,,,,,,
296227,2022-09-21_16h34.58.372,vts_reward_expectancy,2022.2.4,MacIntel,52.63157895,Safari,810,1080,,,,,,,,,,,,,,,,,,,,,,,U,181,circle,1,0,,,1,,,,,,k,0.621,9,0,9,0,1,,,,,,,,,,,,,,,,,,,,,,,,,,,,,,,,,,
296227,2022-09-21_16h34.58.372,vts_reward_expectancy,2022.2.4,MacIntel,52.63157895,Safari,810,1080,,,,,0,693,,,,,,,,,,,,,,,,,D,146,triangle,1,0,,,2,,,,,,,,,,,,,-1,letter,NA,d,1.314,vtsPrac,0,0,0,0,1,,,,,,,,,,,,,,,,,,,,,,,
296227,2022-09-21_16h34.58.372,vts_reward_expectancy,2022.2.4,MacIntel,52.63157895,Safari,810,1080,,,,,0,693,,,,,,,,,,,,,,,,,H,160,hexagon,1,0,,,2,,,,,,,,,,,,,repeat,letter,lettRpt,d,1.237,vtsPrac,1,0,1,0,1,,,,,,,,,,,,,,,,,,,,,,,
296227,2022-09-21_16h34.58.372,vts_reward_expectancy,2022.2.4,MacIntel,52.63157895,Safari,810,1080,,,,,0,693,,,,,,,,,,,,,,,,,B,139,triangle,1,0,,,2,,,,,,,,,,,,,repeat,letter,lettRpt,d,1.055,vtsPrac,2,0,2,0,1,,,,,,,,,,,,,,,,,,,,,,,
296227,2022-09-21_16h34.58.372,vts_reward_expectancy,2022.2.4,MacIntel,52.63157895,Safari,810,1080,,,,,0,693,,,,,,,,,,,,,,,,,W,167,hexagon,1,0,,,2,,,,,,,,,,,,,switch,number,numSwt,k,0.768,vtsPrac,3,0,3,0,1,,,,,,,,,,,,,,,,,,,,,,,
296227,2022-09-21_16h34.58.372,vts_reward_expectancy,2022.2.4,MacIntel,52.63157895,Safari,810,1080,,,,,0,693,,,,,,,,,,,,,,,,,D,146,circle,1,0,,,2,,,,,,,,,,,,,repeat,number,numRpt,j,1.039,vtsPrac,4,0,4,0,1,,,,,,,,,,,,,,,,,,,,,,,
296227,2022-09-21_16h34.58.372,vts_reward_expectancy,2022.2.4,MacIntel,52.63157895,Safari,810,1080,,,,,0,693,,,,,,,,,,,,,,,,,H,160,star,1,0,,,2,,,,,,,,,,,,,switch,letter,lettSwt,d,1.805,vtsPrac,5,0,5,0,1,,,,,,,,,,,,,,,,,,,,,,,
296227,2022-09-21_16h34.58.372,vts_reward_expectancy,2022.2.4,MacIntel,52.63157895,Safari,810,1080,,,,,0,693,,,,,,,,,,,,,,,,,B,139,triangle,1,0,,,2,,,,,,,,,,,,,switch,number,numSwt,j,0.754,vtsPrac,6,0,6,0,1,,,,,,,,,,,,,,,,,,,,,,,
296227,2022-09-21_16h34.58.372,vts_reward_expectancy,2022.2.4,MacIntel,52.63157895,Safari,810,1080,,,,,0,693,,,,,,,,,,,,,,,,,W,167,star,1,0,,,2,,,,,,,,,,,,,repeat,number,numRpt,k,0.721,vtsPrac,7,0,7,0,1,,,,,,,,,,,,,,,,,,,,,,,
296227,2022-09-21_16h34.58.372,vts_reward_expectancy,2022.2.4,MacIntel,52.63157895,Safari,810,1080,,,,,0,693,,,,,,,,,,,,,,,,,U,181,star,1,0,,,2,,,,,,,,,,,,,switch,letter,lettSwt,f,0.751,vtsPrac,8,0,8,0,1,,,,,,,,,,,,,,,,,,,,,,,
296227,2022-09-21_16h34.58.372,vts_reward_expectancy,2022.2.4,MacIntel,52.63157895,Safari,810,1080,,,,,0,693,,,,,,,,,,,,,,,,,S,132,circle,1,0,,,2,,,,,,,,,,,,,repeat,letter,lettRpt,f,0.586,vtsPrac,9,0,9,0,1,,,,,,,,,,,,,,,,,,,,,,,
296227,2022-09-21_16h34.58.372,vts_reward_expectancy,2022.2.4,MacIntel,52.63157895,Safari,810,1080,,,,,0,693,,,,,,,,,,,,,,,,,Y,174,circle,1,0,,,2,,,,,,,,,,,,,repeat,letter,lettRpt,f,0.707,vtsPrac,10,0,10,0,1,,,,,,,,,,,,,,,,,,,,,,,
296227,2022-09-21_16h34.58.372,vts_reward_expectancy,2022.2.4,MacIntel,52.63157895,Safari,810,1080,,,,,0,693,,,,,,,,,,,,,,,,,F,146,star,1,0,,,2,,,,,,,,,,,,,switch,number,numSwt,j,1.104,vtsPrac,11,0,11,0,1,,,,,,,,,,,,,,,,,,,,,,,
296227,2022-09-21_16h34.58.372,vts_reward_expectancy,2022.2.4,MacIntel,52.63157895,Safari,810,1080,,,,,0,693,,,,,,,,,,,,,,,,,S,174,circle,1,0,,,2,,,,,,,,,,,,,switch,letter,lettSwt,f,0.602,vtsPrac,12,0,12,0,1,,,,,,,,,,,,,,,,,,,,,,,
296227,2022-09-21_16h34.58.372,vts_reward_expectancy,2022.2.4,MacIntel,52.63157895,Safari,810,1080,,,,,0,693,,,,,,,,,,,,,,,,,D,132,hexagon,1,0,,,2,,,,,,,,,,,,,switch,number,numSwt,j,0.804,vtsPrac,13,0,13,0,1,,,,,,,,,,,,,,,,,,,,,,,
296227,2022-09-21_16h34.58.372,vts_reward_expectancy,2022.2.4,MacIntel,52.63157895,Safari,810,1080,,,,,0,693,,,,,,,,,,,,,,,,,Y,181,triangle,1,0,,,2,,,,,,,,,,,,,repeat,number,numRpt,k,0.939,vtsPrac,14,0,14,0,1,,,,,,,,,,,,,,,,,,,,,,,
296227,2022-09-21_16h34.58.372,vts_reward_expectancy,2022.2.4,MacIntel,52.63157895,Safari,810,1080,,,,,0,693,,,,,,,,,,,,,,,,,W,146,hexagon,1,0,,,2,,,,,,,,,,,,,repeat,number,numRpt,j,0.568,vtsPrac,15,0,15,0,1,,,,,,,,,,,,,,,,,,,,,,,
296227,2022-09-21_16h34.58.372,vts_reward_expectancy,2022.2.4,MacIntel,52.63157895,Safari,810,1080,,,,,,,,,,,,,,,,,,,,,,,,,,,,,,,,,,,,,,,,,,,,,,,,,,,,,,,,,,,,,,,,,,,,,,,,,,,,
296227,2022-09-21_16h34.58.372,vts_reward_expectancy,2022.2.4,MacIntel,52.63157895,Safari,810,1080,,,,,,,,,,,,,,,,,,,,,,,,,,,,,,,,,,,,,,,,,,,,,,,,,,,,,,,,,,,,,,,,,,,,,,,,,,,,
296227,2022-09-21_16h34.58.372,vts_reward_expectancy,2022.2.4,MacIntel,52.63157895,Safari,810,1080,,,,,0,693,,,,,,,,,,,,,,,,,F,139,triangle,1,0,,,,,,,,,,,,,,,,switch,letter,lettSwt,d,1.287,noRew,,,,,,0,0,0,0,0,1,,,,,,,,,,,,,,,,,
296227,2022-09-21_16h34.58.372,vts_reward_expectancy,2022.2.4,MacIntel,52.63157895,Safari,810,1080,,,,,0,693,,,,,,,,,,,,,,,,,B,146,circle,1,0,,,,,,,,,,,,,,,,repeat,letter,lettRpt,d,0.737,noRew,,,,,,0,1,0,1,0,1,,,,,,,,,,,,,,,,,
296227,2022-09-21_16h34.58.372,vts_reward_expectancy,2022.2.4,MacIntel,52.63157895,Safari,810,1080,,,,,0,693,,,,,,,,,,,,,,,,,H,125,triangle,1,0,,,,,,,,,,,,,,,,switch,number,numSwt,j,0.522,noRew,,,,,,0,2,0,2,0,1,,,,,,,,,,,,,,,,,
296227,2022-09-21_16h34.58.372,vts_reward_expectancy,2022.2.4,MacIntel,52.63157895,Safari,810,1080,,,,,0,693,,,,,,,,,,,,,,,,,S,167,circle,1,0,,,,,,,,,,,,,,,,repeat,number,numRpt,k,0.435,noRew,,,,,,0,3,0,3,0,1,,,,,,,,,,,,,,,,,
296227,2022-09-21_16h34.58.372,vts_reward_expectancy,2022.2.4,MacIntel,52.63157895,Safari,810,1080,,,,,0,693,,,,,,,,,,,,,,,,,F,139,circle,1,0,,,,,,,,,,,,,,,,repeat,number,numRpt,j,0.771,noRew,,,,,,0,4,0,4,0,1,,,,,,,,,,,,,,,,,
296227,2022-09-21_16h34.58.372,vts_reward_expectancy,2022.2.4,MacIntel,52.63157895,Safari,810,1080,,,,,0,693,,,,,,,,,,,,,,,,,B,146,hexagon,1,0,,,,,,,,,,,,,,,,repeat,number,numRpt,j,0.688,noRew,,,,,,0,5,0,5,0,1,,,,,,,,,,,,,,,,,
296227,2022-09-21_16h34.58.372,vts_reward_expectancy,2022.2.4,MacIntel,52.63157895,Safari,810,1080,,,,,0,693,,,,,,,,,,,,,,,,,H,125,star,1,0,,,,,,,,,,,,,,,,switch,letter,lettSwt,d,0.538,noRew,,,,,,0,6,0,6,0,1,,,,,,,,,,,,,,,,,
296227,2022-09-21_16h34.58.372,vts_reward_expectancy,2022.2.4,MacIntel,52.63157895,Safari,810,1080,,,,,0,693,,,,,,,,,,,,,,,,,S,167,hexagon,1,0,,,,,,,,,,,,,,,,switch,number,numSwt,k,0.689,noRew,,,,,,0,7,0,7,0,1,,,,,,,,,,,,,,,,,
296227,2022-09-21_16h34.58.372,vts_reward_expectancy,2022.2.4,MacIntel,52.63157895,Safari,810,1080,,,,,0,693,,,,,,,,,,,,,,,,,Y,160,star,1,0,,,,,,,,,,,,,,,,switch,letter,lettSwt,f,0.523,noRew,,,,,,0,8,0,8,0,1,,,,,,,,,,,,,,,,,
296227,2022-09-21_16h34.58.372,vts_reward_expectancy,2022.2.4,MacIntel,52.63157895,Safari,810,1080,,,,,0,693,,,,,,,,,,,,,,,,,F,139,circle,1,0,,,,,,,,,,,,,,,,repeat,letter,lettRpt,d,1.038,noRew,,,,,,0,9,0,9,0,1,,,,,,,,,,,,,,,,,
296227,2022-09-21_16h34.58.372,vts_reward_expectancy,2022.2.4,MacIntel,52.63157895,Safari,810,1080,,,,,0,693,,,,,,,,,,,,,,,,,H,125,triangle,1,0,,,,,,,,,,,,,,,,switch,number,numSwt,j,0.52,noRew,,,,,,0,10,0,10,0,1,,,,,,,,,,,,,,,,,
296227,2022-09-21_16h34.58.372,vts_reward_expectancy,2022.2.4,MacIntel,52.63157895,Safari,810,1080,,,,,0,693,,,,,,,,,,,,,,,,,W,132,circle,1,0,,,,,,,,,,,,,,,,switch,letter,lettSwt,f,0.552,noRew,,,,,,0,11,0,11,0,1,,,,,,,,,,,,,,,,,
296227,2022-09-21_16h34.58.372,vts_reward_expectancy,2022.2.4,MacIntel,52.63157895,Safari,810,1080,,,,,0,693,,,,,,,,,,,,,,,,,S,167,star,1,0,,,,,,,,,,,,,,,,repeat,letter,lettRpt,f,0.605,noRew,,,,,,0,12,0,12,0,1,,,,,,,,,,,,,,,,,
296227,2022-09-21_16h34.58.372,vts_reward_expectancy,2022.2.4,MacIntel,52.63157895,Safari,810,1080,,,,,0,693,,,,,,,,,,,,,,,,,F,132,hexagon,1,0,,,,,,,,,,,,,,,,repeat,letter,lettRpt,d,0.7,noRew,,,,,,0,13,0,13,0,1,,,,,,,,,,,,,,,,,
296227,2022-09-21_16h34.58.372,vts_reward_expectancy,2022.2.4,MacIntel,52.63157895,Safari,810,1080,,,,,0,693,,,,,,,,,,,,,,,,,W,125,circle,1,0,,,,,,,,,,,,,,,,switch,number,numSwt,j,0.641,noRew,,,,,,0,14,0,14,0,1,,,,,,,,,,,,,,,,,
296227,2022-09-21_16h34.58.372,vts_reward_expectancy,2022.2.4,MacIntel,52.63157895,Safari,810,1080,,,,,0,693,,,,,,,,,,,,,,,,,Y,146,hexagon,1,0,,,,,,,,,,,,,,,,switch,letter,lettSwt,f,0.785,noRew,,,,,,0,15,0,15,0,1,,,,,,,,,,,,,,,,,
296227,2022-09-21_16h34.58.372,vts_reward_expectancy,2022.2.4,MacIntel,52.63157895,Safari,810,1080,,,,,0,693,,,,,,,,,,,,,,,,,B,125,star,1,0,,,,,,,,,,,,,,,,repeat,letter,lettRpt,d,0.387,noRew,,,,,,0,16,0,16,0,1,,,,,,,,,,,,,,,,,
296227,2022-09-21_16h34.58.372,vts_reward_expectancy,2022.2.4,MacIntel,52.63157895,Safari,810,1080,,,,,0,693,,,,,,,,,,,,,,,,,U,132,hexagon,1,0,,,,,,,,,,,,,,,,switch,number,numSwt,j,0.473,noRew,,,,,,0,17,0,17,0,1,,,,,,,,,,,,,,,,,
296227,2022-09-21_16h34.58.372,vts_reward_expectancy,2022.2.4,MacIntel,52.63157895,Safari,810,1080,,,,,0,693,,,,,,,,,,,,,,,,,F,146,hexagon,1,0,,,,,,,,,,,,,,,,repeat,number,numRpt,j,1.319,noRew,,,,,,0,18,0,18,0,1,,,,,,,,,,,,,,,,,
296227,2022-09-21_16h34.58.372,vts_reward_expectancy,2022.2.4,MacIntel,52.63157895,Safari,810,1080,,,,,0,693,,,,,,,,,,,,,,,,,H,181,star,1,0,,,,,,,,,,,,,,,,switch,letter,lettSwt,d,0.618,noRew,,,,,,0,19,0,19,0,1,,,,,,,,,,,,,,,,,
296227,2022-09-21_16h34.58.372,vts_reward_expectancy,2022.2.4,MacIntel,52.63157895,Safari,810,1080,,,,,0,693,,,,,,,,,,,,,,,,,U,181,triangle,1,0,,,,,,,,,,,,,,,,repeat,letter,lettRpt,f,0.608,noRew,,,,,,0,20,0,20,0,1,,,,,,,,,,,,,,,,,
296227,2022-09-21_16h34.58.372,vts_reward_expectancy,2022.2.4,MacIntel,52.63157895,Safari,810,1080,,,,,0,693,,,,,,,,,,,,,,,,,B,167,circle,1,0,,,,,,,,,,,,,,,,repeat,letter,lettRpt,d,0.535,noRew,,,,,,0,21,0,21,0,1,,,,,,,,,,,,,,,,,
296227,2022-09-21_16h34.58.372,vts_reward_expectancy,2022.2.4,MacIntel,52.63157895,Safari,810,1080,,,,,0,693,,,,,,,,,,,,,,,,,S,125,triangle,1,0,,,,,,,,,,,,,,,,switch,number,numSwt,j,0.904,noRew,,,,,,0,22,0,22,0,1,,,,,,,,,,,,,,,,,
296227,2022-09-21_16h34.58.372,vts_reward_expectancy,2022.2.4,MacIntel,52.63157895,Safari,810,1080,,,,,0,693,,,,,,,,,,,,,,,,,Y,146,star,1,0,,,,,,,,,,,,,,,,repeat,number,numRpt,j,1.185,noRew,,,,,,0,23,0,23,0,1,,,,,,,,,,,,,,,,,
296227,2022-09-21_16h34.58.372,vts_reward_expectancy,2022.2.4,MacIntel,52.63157895,Safari,810,1080,,,,,0,693,,,,,,,,,,,,,,,,,D,181,hexagon,1,0,,,,,,,,,,,,,,,,repeat,number,numRpt,k,0.606,noRew,,,,,,0,24,0,24,0,1,,,,,,,,,,,,,,,,,
296227,2022-09-21_16h34.58.372,vts_reward_expectancy,2022.2.4,MacIntel,52.63157895,Safari,810,1080,,,,,0,693,,,,,,,,,,,,,,,,,W,146,triangle,1,0,,,,,,,,,,,,,,,,switch,letter,lettSwt,f,0.484,noRew,,,,,,0,25,0,25,0,1,,,,,,,,,,,,,,,,,
296227,2022-09-21_16h34.58.372,vts_reward_expectancy,2022.2.4,MacIntel,52.63157895,Safari,810,1080,,,,,0,693,,,,,,,,,,,,,,,,,S,174,circle,1,0,,,,,,,,,,,,,,,,repeat,letter,lettRpt,f,0.718,noRew,,,,,,0,26,0,26,0,1,,,,,,,,,,,,,,,,,
296227,2022-09-21_16h34.58.372,vts_reward_expectancy,2022.2.4,MacIntel,52.63157895,Safari,810,1080,,,,,0,693,,,,,,,,,,,,,,,,,U,167,triangle,1,0,,,,,,,,,,,,,,,,switch,number,numSwt,k,0.806,noRew,,,,,,0,27,0,27,0,1,,,,,,,,,,,,,,,,,
296227,2022-09-21_16h34.58.372,vts_reward_expectancy,2022.2.4,MacIntel,52.63157895,Safari,810,1080,,,,,0,693,,,,,,,,,,,,,,,,,F,160,circle,1,0,,,,,,,,,,,,,,,,switch,letter,lettSwt,d,0.62,noRew,,,,,,0,28,0,28,0,1,,,,,,,,,,,,,,,,,
296227,2022-09-21_16h34.58.372,vts_reward_expectancy,2022.2.4,MacIntel,52.63157895,Safari,810,1080,,,,,0,693,,,,,,,,,,,,,,,,,D,181,triangle,1,0,,,,,,,,,,,,,,,,repeat,letter,lettRpt,d,0.569,noRew,,,,,,0,29,0,29,0,1,,,,,,,,,,,,,,,,,
296227,2022-09-21_16h34.58.372,vts_reward_expectancy,2022.2.4,MacIntel,52.63157895,Safari,810,1080,,,,,0,693,,,,,,,,,,,,,,,,,Y,167,triangle,1,0,,,,,,,,,,,,,,,,repeat,letter,lettRpt,f,0.473,noRew,,,,,,0,30,0,30,0,1,,,,,,,,,,,,,,,,,
296227,2022-09-21_16h34.58.372,vts_reward_expectancy,2022.2.4,MacIntel,52.63157895,Safari,810,1080,,,,,0,693,,,,,,,,,,,,,,,,,S,139,star,1,0,,,,,,,,,,,,,,,,repeat,letter,lettRpt,f,0.703,noRew,,,,,,0,31,0,31,0,1,,,,,,,,,,,,,,,,,
296227,2022-09-21_16h34.58.372,vts_reward_expectancy,2022.2.4,MacIntel,52.63157895,Safari,810,1080,,,,,0,693,,,,,,,,,,,,,,,,,U,146,star,1,0,,,,,,,,,,,,,,,,switch,number,numSwt,j,1.14,noRew,,,,,,0,32,0,32,0,1,,,,,,,,,,,,,,,,,
296227,2022-09-21_16h34.58.372,vts_reward_expectancy,2022.2.4,MacIntel,52.63157895,Safari,810,1080,,,,,0,693,,,,,,,,,,,,,,,,,Y,174,triangle,1,0,,,,,,,,,,,,,,,,repeat,number,numRpt,k,0.623,noRew,,,,,,0,33,0,33,0,1,,,,,,,,,,,,,,,,,
296227,2022-09-21_16h34.58.372,vts_reward_expectancy,2022.2.4,MacIntel,52.63157895,Safari,810,1080,,,,,0,693,,,,,,,,,,,,,,,,,W,181,circle,1,0,,,,,,,,,,,,,,,,switch,letter,lettSwt,f,0.672,noRew,,,,,,0,34,0,34,0,1,,,,,,,,,,,,,,,,,
296227,2022-09-21_16h34.58.372,vts_reward_expectancy,2022.2.4,MacIntel,52.63157895,Safari,810,1080,,,,,0,693,,,,,,,,,,,,,,,,,S,160,star,1,0,,,,,,,,,,,,,,,,repeat,letter,lettRpt,f,0.72,noRew,,,,,,0,35,0,35,0,1,,,,,,,,,,,,,,,,,
296227,2022-09-21_16h34.58.372,vts_reward_expectancy,2022.2.4,MacIntel,52.63157895,Safari,810,1080,,,,,0,693,,,,,,,,,,,,,,,,,B,139,triangle,1,0,,,,,,,,,,,,,,,,repeat,letter,lettRpt,d,0.536,noRew,,,,,,0,36,0,36,0,1,,,,,,,,,,,,,,,,,
296227,2022-09-21_16h34.58.372,vts_reward_expectancy,2022.2.4,MacIntel,52.63157895,Safari,810,1080,,,,,0,693,,,,,,,,,,,,,,,,,U,132,star,1,0,,,,,,,,,,,,,,,,repeat,letter,lettRpt,f,0.502,noRew,,,,,,0,37,0,37,0,1,,,,,,,,,,,,,,,,,
296227,2022-09-21_16h34.58.372,vts_reward_expectancy,2022.2.4,MacIntel,52.63157895,Safari,810,1080,,,,,0,693,,,,,,,,,,,,,,,,,D,174,triangle,1,0,,,,,,,,,,,,,,,,switch,number,numSwt,k,0.435,noRew,,,,,,0,38,0,38,0,1,,,,,,,,,,,,,,,,,
296227,2022-09-21_16h34.58.372,vts_reward_expectancy,2022.2.4,MacIntel,52.63157895,Safari,810,1080,,,,,0,693,,,,,,,,,,,,,,,,,W,181,hexagon,1,0,,,,,,,,,,,,,,,,repeat,number,numRpt,k,0.504,noRew,,,,,,0,39,0,39,0,1,,,,,,,,,,,,,,,,,
296227,2022-09-21_16h34.58.372,vts_reward_expectancy,2022.2.4,MacIntel,52.63157895,Safari,810,1080,,,,,0,693,,,,,,,,,,,,,,,,,F,167,circle,1,0,,,,,,,,,,,,,,,,switch,letter,lettSwt,d,0.687,noRew,,,,,,0,40,0,40,0,1,,,,,,,,,,,,,,,,,
296227,2022-09-21_16h34.58.372,vts_reward_expectancy,2022.2.4,MacIntel,52.63157895,Safari,810,1080,,,,,0,693,,,,,,,,,,,,,,,,,U,174,hexagon,0,0,,,,,,,,,,,,,,,,switch,number,NA,j,0.784,noRew,,,,,,0,41,0,41,0,1,,,,,,,,,,,,,,,,,
296227,2022-09-21_16h34.58.372,vts_reward_expectancy,2022.2.4,MacIntel,52.63157895,Safari,810,1080,,,,,0,693,,,,,,,,,,,,,,,,,W,160,star,1,1,,,,,,,,,,,,,,,,repeat,number,numRpt,k,1.354,noRew,,,,,,0,42,0,42,0,1,,,,,,,,,,,,,,,,,
296227,2022-09-21_16h34.58.372,vts_reward_expectancy,2022.2.4,MacIntel,52.63157895,Safari,810,1080,,,,,0,693,,,,,,,,,,,,,,,,,H,139,triangle,1,0,,,,,,,,,,,,,,,,repeat,number,numRpt,j,0.821,noRew,,,,,,0,43,0,43,0,1,,,,,,,,,,,,,,,,,
296227,2022-09-21_16h34.58.372,vts_reward_expectancy,2022.2.4,MacIntel,52.63157895,Safari,810,1080,,,,,0,693,,,,,,,,,,,,,,,,,B,174,triangle,1,0,,,,,,,,,,,,,,,,switch,letter,lettSwt,d,0.541,noRew,,,,,,0,44,0,44,0,1,,,,,,,,,,,,,,,,,
296227,2022-09-21_16h34.58.372,vts_reward_expectancy,2022.2.4,MacIntel,52.63157895,Safari,810,1080,,,,,0,693,,,,,,,,,,,,,,,,,F,146,circle,1,0,,,,,,,,,,,,,,,,repeat,letter,lettRpt,d,0.772,noRew,,,,,,0,45,0,45,0,1,,,,,,,,,,,,,,,,,
296227,2022-09-21_16h34.58.372,vts_reward_expectancy,2022.2.4,MacIntel,52.63157895,Safari,810,1080,,,,,0,693,,,,,,,,,,,,,,,,,S,139,hexagon,1,0,,,,,,,,,,,,,,,,switch,number,numSwt,j,0.602,noRew,,,,,,0,46,0,46,0,1,,,,,,,,,,,,,,,,,
296227,2022-09-21_16h34.58.372,vts_reward_expectancy,2022.2.4,MacIntel,52.63157895,Safari,810,1080,,,,,0,693,,,,,,,,,,,,,,,,,D,181,triangle,1,0,,,,,,,,,,,,,,,,repeat,number,numRpt,k,0.552,noRew,,,,,,0,47,0,47,0,1,,,,,,,,,,,,,,,,,
296227,2022-09-21_16h34.58.372,vts_reward_expectancy,2022.2.4,MacIntel,52.63157895,Safari,810,1080,,,,,0,693,,,,,,,,,,,,,,,,,S,132,star,1,0,,,,,,,,,,,,,,,,switch,letter,lettSwt,f,0.638,noRew,,,,,,0,48,0,48,0,1,,,,,,,,,,,,,,,,,
296227,2022-09-21_16h34.58.372,vts_reward_expectancy,2022.2.4,MacIntel,52.63157895,Safari,810,1080,,,,,0,693,,,,,,,,,,,,,,,,,F,160,circle,1,0,,,,,,,,,,,,,,,,repeat,letter,lettRpt,d,0.856,noRew,,,,,,0,49,0,49,0,1,,,,,,,,,,,,,,,,,
296227,2022-09-21_16h34.58.372,vts_reward_expectancy,2022.2.4,MacIntel,52.63157895,Safari,810,1080,,,,,0,693,,,,,,,,,,,,,,,,,B,146,star,1,0,,,,,,,,,,,,,,,,repeat,letter,lettRpt,d,0.635,noRew,,,,,,0,50,0,50,0,1,,,,,,,,,,,,,,,,,
296227,2022-09-21_16h34.58.372,vts_reward_expectancy,2022.2.4,MacIntel,52.63157895,Safari,810,1080,,,,,0,693,,,,,,,,,,,,,,,,,H,181,triangle,1,0,,,,,,,,,,,,,,,,switch,number,numSwt,k,1.005,noRew,,,,,,0,51,0,51,0,1,,,,,,,,,,,,,,,,,
296227,2022-09-21_16h34.58.372,vts_reward_expectancy,2022.2.4,MacIntel,52.63157895,Safari,810,1080,,,,,0,693,,,,,,,,,,,,,,,,,Y,167,triangle,1,0,,,,,,,,,,,,,,,,repeat,number,numRpt,k,0.822,noRew,,,,,,0,52,0,52,0,1,,,,,,,,,,,,,,,,,
296227,2022-09-21_16h34.58.372,vts_reward_expectancy,2022.2.4,MacIntel,52.63157895,Safari,810,1080,,,,,0,693,,,,,,,,,,,,,,,,,S,125,circle,1,0,,,,,,,,,,,,,,,,repeat,number,numRpt,j,0.922,noRew,,,,,,0,53,0,53,0,1,,,,,,,,,,,,,,,,,
296227,2022-09-21_16h34.58.372,vts_reward_expectancy,2022.2.4,MacIntel,52.63157895,Safari,810,1080,,,,,0,693,,,,,,,,,,,,,,,,,F,139,hexagon,1,0,,,,,,,,,,,,,,,,switch,letter,lettSwt,d,0.635,noRew,,,,,,0,54,0,54,0,1,,,,,,,,,,,,,,,,,
296227,2022-09-21_16h34.58.372,vts_reward_expectancy,2022.2.4,MacIntel,52.63157895,Safari,810,1080,,,,,0,693,,,,,,,,,,,,,,,,,B,181,triangle,1,0,,,,,,,,,,,,,,,,repeat,letter,lettRpt,d,0.568,noRew,,,,,,0,55,0,55,0,1,,,,,,,,,,,,,,,,,
296227,2022-09-21_16h34.58.372,vts_reward_expectancy,2022.2.4,MacIntel,52.63157895,Safari,810,1080,,,,,0,693,,,,,,,,,,,,,,,,,D,146,hexagon,1,0,,,,,,,,,,,,,,,,switch,number,numSwt,j,0.602,noRew,,,,,,0,56,0,56,0,1,,,,,,,,,,,,,,,,,
296227,2022-09-21_16h34.58.372,vts_reward_expectancy,2022.2.4,MacIntel,52.63157895,Safari,810,1080,,,,,0,693,,,,,,,,,,,,,,,,,S,181,star,1,0,,,,,,,,,,,,,,,,repeat,number,numRpt,k,0.85,noRew,,,,,,0,57,0,57,0,1,,,,,,,,,,,,,,,,,
296227,2022-09-21_16h34.58.372,vts_reward_expectancy,2022.2.4,MacIntel,52.63157895,Safari,810,1080,,,,,0,693,,,,,,,,,,,,,,,,,H,174,circle,1,0,,,,,,,,,,,,,,,,repeat,number,numRpt,k,0.888,noRew,,,,,,0,58,0,58,0,1,,,,,,,,,,,,,,,,,
296227,2022-09-21_16h34.58.372,vts_reward_expectancy,2022.2.4,MacIntel,52.63157895,Safari,810,1080,,,,,0,693,,,,,,,,,,,,,,,,,W,160,triangle,1,0,,,,,,,,,,,,,,,,switch,letter,lettSwt,f,0.668,noRew,,,,,,0,59,0,59,0,1,,,,,,,,,,,,,,,,,
296227,2022-09-21_16h34.58.372,vts_reward_expectancy,2022.2.4,MacIntel,52.63157895,Safari,810,1080,,,,,0,693,,,,,,,,,,,,,,,,,H,139,circle,1,0,,,,,,,,,,,,,,,,repeat,letter,lettRpt,d,0.556,noRew,,,,,,0,60,0,60,0,1,,,,,,,,,,,,,,,,,
296227,2022-09-21_16h34.58.372,vts_reward_expectancy,2022.2.4,MacIntel,52.63157895,Safari,810,1080,,,,,0,693,,,,,,,,,,,,,,,,,D,146,star,1,0,,,,,,,,,,,,,,,,repeat,letter,lettRpt,d,0.586,noRew,,,,,,0,61,0,61,0,1,,,,,,,,,,,,,,,,,
296227,2022-09-21_16h34.58.372,vts_reward_expectancy,2022.2.4,MacIntel,52.63157895,Safari,810,1080,,,,,0,693,,,,,,,,,,,,,,,,,U,132,circle,1,0,,,,,,,,,,,,,,,,switch,number,numSwt,j,0.622,noRew,,,,,,0,62,0,62,0,1,,,,,,,,,,,,,,,,,
296227,2022-09-21_16h34.58.372,vts_reward_expectancy,2022.2.4,MacIntel,52.63157895,Safari,810,1080,,,,,0,693,,,,,,,,,,,,,,,,,F,125,star,1,0,,,,,,,,,,,,,,,,repeat,number,numRpt,j,0.568,noRew,,,,,,0,63,0,63,0,1,,,,,,,,,,,,,,,,,
296227,2022-09-21_16h34.58.372,vts_reward_expectancy,2022.2.4,MacIntel,52.63157895,Safari,810,1080,,,,,,,,,,,,,,,,,,,,,,,,,,,,,,,,,,,,,,,,,,,,,,,,,,,,,,,,,,,,,,,,,,,,,,,,,,,,
296227,2022-09-21_16h34.58.372,vts_reward_expectancy,2022.2.4,MacIntel,52.63157895,Safari,810,1080,,,,,10,703,,,,,,,,,,,,,,,,,W,181,star,1,0,,,,,,,,,,,,,,,,repeat,number,numRpt,k,0.421,Hi,,,,,,0,,,,,,space,8.012,high,0,0,0,0,1,,,,,,,,,
296227,2022-09-21_16h34.58.372,vts_reward_expectancy,2022.2.4,MacIntel,52.63157895,Safari,810,1080,,,,,1,704,,,,,,,,,,,,,,,,,U,167,circle,1,0,,,,,,,,,,,,,,,,switch,letter,lettSwt,f,1.554,Lo,,,,,,0,,,,,,,,high,1,0,1,0,1,,,,,,,,,
296227,2022-09-21_16h34.58.372,vts_reward_expectancy,2022.2.4,MacIntel,52.63157895,Safari,810,1080,,,,,0,704,,,,,,,,,,,,,,,,,S,132,star,1,0,,,,,,,,,,,,,,,,switch,number,numSwt,j,0.739,Hi,,,,,,0,,,,,,,,high,2,0,2,0,1,,,,,,,,,
296227,2022-09-21_16h34.58.372,vts_reward_expectancy,2022.2.4,MacIntel,52.63157895,Safari,810,1080,,,,,1,705,,,,,,,,,,,,,,,,,B,139,circle,1,0,,,,,,,,,,,,,,,,switch,letter,lettSwt,d,0.501,Lo,,,,,,0,,,,,,,,high,3,0,3,0,1,,,,,,,,,
296227,2022-09-21_16h34.58.372,vts_reward_expectancy,2022.2.4,MacIntel,52.63157895,Safari,810,1080,,,,,10,715,,,,,,,,,,,,,,,,,H,146,star,1,0,,,,,,,,,,,,,,,,repeat,letter,lettRpt,d,0.4,Hi,,,,,,0,,,,,,,,high,4,0,4,0,1,,,,,,,,,
296227,2022-09-21_16h34.58.372,vts_reward_expectancy,2022.2.4,MacIntel,52.63157895,Safari,810,1080,,,,,1,716,,,,,,,,,,,,,,,,,Y,174,circle,1,0,,,,,,,,,,,,,,,,switch,number,numSwt,k,0.469,Lo,,,,,,0,,,,,,,,high,5,0,5,0,1,,,,,,,,,
296227,2022-09-21_16h34.58.372,vts_reward_expectancy,2022.2.4,MacIntel,52.63157895,Safari,810,1080,,,,,1,717,,,,,,,,,,,,,,,,,D,125,circle,1,0,,,,,,,,,,,,,,,,repeat,number,numRpt,j,0.453,Lo,,,,,,0,,,,,,,,high,6,0,6,0,1,,,,,,,,,
296227,2022-09-21_16h34.58.372,vts_reward_expectancy,2022.2.4,MacIntel,52.63157895,Safari,810,1080,,,,,10,727,,,,,,,,,,,,,,,,,F,160,star,1,0,,,,,,,,,,,,,,,,switch,letter,lettSwt,d,0.535,Hi,,,,,,0,,,,,,,,high,7,0,7,0,1,,,,,,,,,
296227,2022-09-21_16h34.58.372,vts_reward_expectancy,2022.2.4,MacIntel,52.63157895,Safari,810,1080,,,,,1,728,,,,,,,,,,,,,,,,,W,181,star,1,0,,,,,,,,,,,,,,,,repeat,letter,lettRpt,f,0.464,Hi,,,,,,0,,,,,,,,high,8,0,8,0,1,,,,,,,,,
296227,2022-09-21_16h34.58.372,vts_reward_expectancy,2022.2.4,MacIntel,52.63157895,Safari,810,1080,,,,,1,729,,,,,,,,,,,,,,,,,U,167,circle,1,0,,,,,,,,,,,,,,,,repeat,letter,lettRpt,f,0.591,Lo,,,,,,0,,,,,,,,high,9,0,9,0,1,,,,,,,,,
296227,2022-09-21_16h34.58.372,vts_reward_expectancy,2022.2.4,MacIntel,52.63157895,Safari,810,1080,,,,,10,739,,,,,,,,,,,,,,,,,S,132,circle,1,0,,,,,,,,,,,,,,,,switch,number,numSwt,j,0.405,Lo,,,,,,0,,,,,,,,high,10,0,10,0,1,,,,,,,,,
296227,2022-09-21_16h34.58.372,vts_reward_expectancy,2022.2.4,MacIntel,52.63157895,Safari,810,1080,,,,,10,749,,,,,,,,,,,,,,,,,B,139,star,1,0,,,,,,,,,,,,,,,,switch,letter,lettSwt,d,0.432,Hi,,,,,,0,,,,,,,,high,11,0,11,0,1,,,,,,,,,
296227,2022-09-21_16h34.58.372,vts_reward_expectancy,2022.2.4,MacIntel,52.63157895,Safari,810,1080,,,,,1,750,,,,,,,,,,,,,,,,,H,146,circle,1,0,,,,,,,,,,,,,,,,switch,number,numSwt,j,0.672,Lo,,,,,,0,,,,,,,,high,12,0,12,0,1,,,,,,,,,
296227,2022-09-21_16h34.58.372,vts_reward_expectancy,2022.2.4,MacIntel,52.63157895,Safari,810,1080,,,,,10,760,,,,,,,,,,,,,,,,,Y,174,star,1,0,,,,,,,,,,,,,,,,switch,letter,lettSwt,f,0.484,Hi,,,,,,0,,,,,,,,high,13,0,13,0,1,,,,,,,,,
296227,2022-09-21_16h34.58.372,vts_reward_expectancy,2022.2.4,MacIntel,52.63157895,Safari,810,1080,,,,,10,770,,,,,,,,,,,,,,,,,D,125,star,1,0,,,,,,,,,,,,,,,,switch,number,numSwt,j,0.454,Hi,,,,,,0,,,,,,,,high,14,0,14,0,1,,,,,,,,,
296227,2022-09-21_16h34.58.372,vts_reward_expectancy,2022.2.4,MacIntel,52.63157895,Safari,810,1080,,,,,1,771,,,,,,,,,,,,,,,,,F,160,circle,1,0,,,,,,,,,,,,,,,,repeat,number,numRpt,k,0.873,Lo,,,,,,0,,,,,,,,high,15,0,15,0,1,,,,,,,,,
296227,2022-09-21_16h34.58.372,vts_reward_expectancy,2022.2.4,MacIntel,52.63157895,Safari,810,1080,,,,,10,781,,,,,,,,,,,,,,,,,B,139,star,1,0,,,,,,,,,,,,,,,,switch,letter,lettSwt,d,0.521,Hi,,,,,,0,,,,,,,,high,16,0,16,0,1,,,,,,,,,
296227,2022-09-21_16h34.58.372,vts_reward_expectancy,2022.2.4,MacIntel,52.63157895,Safari,810,1080,,,,,10,791,,,,,,,,,,,,,,,,,H,132,circle,1,0,,,,,,,,,,,,,,,,switch,number,numSwt,j,0.604,Lo,,,,,,0,,,,,,,,high,17,0,17,0,1,,,,,,,,,
296227,2022-09-21_16h34.58.372,vts_reward_expectancy,2022.2.4,MacIntel,52.63157895,Safari,810,1080,,,,,10,801,,,,,,,,,,,,,,,,,F,167,star,1,0,,,,,,,,,,,,,,,,switch,letter,lettSwt,d,0.552,Hi,,,,,,0,,,,,,,,high,18,0,18,0,1,,,,,,,,,
296227,2022-09-21_16h34.58.372,vts_reward_expectancy,2022.2.4,MacIntel,52.63157895,Safari,810,1080,,,,,1,802,,,,,,,,,,,,,,,,,U,160,circle,1,0,,,,,,,,,,,,,,,,repeat,letter,lettRpt,f,0.454,Lo,,,,,,0,,,,,,,,high,19,0,19,0,1,,,,,,,,,
296227,2022-09-21_16h34.58.372,vts_reward_expectancy,2022.2.4,MacIntel,52.63157895,Safari,810,1080,,,,,10,812,,,,,,,,,,,,,,,,,W,125,circle,1,0,,,,,,,,,,,,,,,,repeat,letter,lettRpt,f,0.668,Lo,,,,,,0,,,,,,,,high,20,0,20,0,1,,,,,,,,,
296227,2022-09-21_16h34.58.372,vts_reward_expectancy,2022.2.4,MacIntel,52.63157895,Safari,810,1080,,,,,10,822,,,,,,,,,,,,,,,,,D,146,star,1,0,,,,,,,,,,,,,,,,switch,number,numSwt,j,0.534,Hi,,,,,,0,,,,,,,,high,21,0,21,0,1,,,,,,,,,
296227,2022-09-21_16h34.58.372,vts_reward_expectancy,2022.2.4,MacIntel,52.63157895,Safari,810,1080,,,,,10,832,,,,,,,,,,,,,,,,,Y,181,star,1,0,,,,,,,,,,,,,,,,repeat,number,numRpt,k,0.421,Hi,,,,,,0,,,,,,,,high,22,0,22,0,1,,,,,,,,,
296227,2022-09-21_16h34.58.372,vts_reward_expectancy,2022.2.4,MacIntel,52.63157895,Safari,810,1080,,,,,1,833,,,,,,,,,,,,,,,,,S,174,circle,1,0,,,,,,,,,,,,,,,,switch,letter,lettSwt,f,0.634,Lo,,,,,,0,,,,,,,,high,23,0,23,0,1,,,,,,,,,
296227,2022-09-21_16h34.58.372,vts_reward_expectancy,2022.2.4,MacIntel,52.63157895,Safari,810,1080,,,,,1,834,,,,,,,,,,,,,,,,,D,139,circle,1,0,,,,,,,,,,,,,,,,repeat,letter,lettRpt,d,0.455,Lo,,,,,,0,,,,,,,,high,24,0,24,0,1,,,,,,,,,
296227,2022-09-21_16h34.58.372,vts_reward_expectancy,2022.2.4,MacIntel,52.63157895,Safari,810,1080,,,,,10,844,,,,,,,,,,,,,,,,,U,146,star,1,0,,,,,,,,,,,,,,,,switch,number,numSwt,j,0.502,Hi,,,,,,0,,,,,,,,high,25,0,25,0,1,,,,,,,,,
296227,2022-09-21_16h34.58.372,vts_reward_expectancy,2022.2.4,MacIntel,52.63157895,Safari,810,1080,,,,,10,854,,,,,,,,,,,,,,,,,Y,174,circle,1,0,,,,,,,,,,,,,,,,switch,letter,lettSwt,f,0.635,Lo,,,,,,0,,,,,,,,high,26,0,26,0,1,,,,,,,,,
296227,2022-09-21_16h34.58.372,vts_reward_expectancy,2022.2.4,MacIntel,52.63157895,Safari,810,1080,,,,,10,864,,,,,,,,,,,,,,,,,W,132,star,1,0,,,,,,,,,,,,,,,,switch,number,numSwt,j,0.488,Hi,,,,,,0,,,,,,,,high,27,0,27,0,1,,,,,,,,,
296227,2022-09-21_16h34.58.372,vts_reward_expectancy,2022.2.4,MacIntel,52.63157895,Safari,810,1080,,,,,1,865,,,,,,,,,,,,,,,,,B,167,circle,1,0,,,,,,,,,,,,,,,,repeat,number,numRpt,k,0.469,Lo,,,,,,0,,,,,,,,high,28,0,28,0,1,,,,,,,,,
296227,2022-09-21_16h34.58.372,vts_reward_expectancy,2022.2.4,MacIntel,52.63157895,Safari,810,1080,,,,,0,865,,,,,,,,,,,,,,,,,H,160,star,1,0,,,,,,,,,,,,,,,,switch,letter,lettSwt,d,0.601,Hi,,,,,,0,,,,,,,,high,29,0,29,0,1,,,,,,,,,
296227,2022-09-21_16h34.58.372,vts_reward_expectancy,2022.2.4,MacIntel,52.63157895,Safari,810,1080,,,,,1,866,,,,,,,,,,,,,,,,,S,125,star,1,0,,,,,,,,,,,,,,,,repeat,letter,lettRpt,f,0.471,Hi,,,,,,0,,,,,,,,high,30,0,30,0,1,,,,,,,,,
296227,2022-09-21_16h34.58.372,vts_reward_expectancy,2022.2.4,MacIntel,52.63157895,Safari,810,1080,,,,,1,867,,,,,,,,,,,,,,,,,F,181,circle,1,0,,,,,,,,,,,,,,,,switch,number,numSwt,k,0.658,Lo,,,,,,0,,,,,,,,high,31,0,31,0,1,,,,,,,,,
296227,2022-09-21_16h34.58.372,vts_reward_expectancy,2022.2.4,MacIntel,52.63157895,Safari,810,1080,,,,,1,868,,,,,,,,,,,,,,,,,B,146,triangle,1,0,,,,,,,,,,,,,,,,switch,letter,lettSwt,d,0.604,Lo,,,,,,1,,,,,,space,5.553,low,0,0,0,0,1,,,,,,,,,
296227,2022-09-21_16h34.58.372,vts_reward_expectancy,2022.2.4,MacIntel,52.63157895,Safari,810,1080,,,,,0,868,,,,,,,,,,,,,,,,,H,139,hexagon,1,0,,,,,,,,,,,,,,,,repeat,letter,lettRpt,d,0.52,Hi,,,,,,1,,,,,,,,low,1,0,1,0,1,,,,,,,,,
296227,2022-09-21_16h34.58.372,vts_reward_expectancy,2022.2.4,MacIntel,52.63157895,Safari,810,1080,,,,,1,869,,,,,,,,,,,,,,,,,D,174,triangle,1,0,,,,,,,,,,,,,,,,switch,number,numSwt,k,0.422,Lo,,,,,,1,,,,,,,,low,2,0,2,0,1,,,,,,,,,
296227,2022-09-21_16h34.58.372,vts_reward_expectancy,2022.2.4,MacIntel,52.63157895,Safari,810,1080,,,,,0,869,,,,,,,,,,,,,,,,,F,181,hexagon,0,0,,,,,,,,,,,,,,,,switch,letter,NA,f,0.423,Lo,,,,,,1,,,,,,,,low,3,0,3,0,1,,,,,,,,,
296227,2022-09-21_16h34.58.372,vts_reward_expectancy,2022.2.4,MacIntel,52.63157895,Safari,810,1080,,,,,10,879,,,,,,,,,,,,,,,,,U,132,triangle,1,1,,,,,,,,,,,,,,,,switch,number,numSwt,j,0.488,Lo,,,,,,1,,,,,,,,low,4,0,4,0,1,,,,,,,,,
296227,2022-09-21_16h34.58.372,vts_reward_expectancy,2022.2.4,MacIntel,52.63157895,Safari,810,1080,,,,,10,889,,,,,,,,,,,,,,,,,S,160,hexagon,1,0,,,,,,,,,,,,,,,,repeat,number,numRpt,k,0.388,Hi,,,,,,1,,,,,,,,low,5,0,5,0,1,,,,,,,,,
296227,2022-09-21_16h34.58.372,vts_reward_expectancy,2022.2.4,MacIntel,52.63157895,Safari,810,1080,,,,,0,889,,,,,,,,,,,,,,,,,W,125,triangle,0,0,,,,,,,,,,,,,,,,switch,letter,NA,d,0.455,Hi,,,,,,1,,,,,,,,low,6,0,6,0,1,,,,,,,,,
296227,2022-09-21_16h34.58.372,vts_reward_expectancy,2022.2.4,MacIntel,52.63157895,Safari,810,1080,,,,,0,889,,,,,,,,,,,,,,,,,Y,167,hexagon,1,1,,,,,,,,,,,,,,,,repeat,letter,lettRpt,f,0.521,Hi,,,,,,1,,,,,,,,low,7,0,7,0,1,,,,,,,,,
296227,2022-09-21_16h34.58.372,vts_reward_expectancy,2022.2.4,MacIntel,52.63157895,Safari,810,1080,,,,,10,899,,,,,,,,,,,,,,,,,B,146,hexagon,1,0,,,,,,,,,,,,,,,,switch,number,numSwt,j,0.455,Hi,,,,,,1,,,,,,,,low,8,0,8,0,1,,,,,,,,,
296227,2022-09-21_16h34.58.372,vts_reward_expectancy,2022.2.4,MacIntel,52.63157895,Safari,810,1080,,,,,1,900,,,,,,,,,,,,,,,,,H,139,triangle,1,0,,,,,,,,,,,,,,,,switch,letter,lettSwt,d,0.5,Lo,,,,,,1,,,,,,,,low,9,0,9,0,1,,,,,,,,,
296227,2022-09-21_16h34.58.372,vts_reward_expectancy,2022.2.4,MacIntel,52.63157895,Safari,810,1080,,,,,1,901,,,,,,,,,,,,,,,,,D,174,triangle,1,0,,,,,,,,,,,,,,,,repeat,letter,lettRpt,d,0.534,Lo,,,,,,1,,,,,,,,low,10,0,10,0,1,,,,,,,,,
296227,2022-09-21_16h34.58.372,vts_reward_expectancy,2022.2.4,MacIntel,52.63157895,Safari,810,1080,,,,,0,901,,,,,,,,,,,,,,,,,F,181,hexagon,0,0,,,,,,,,,,,,,,,,switch,number,NA,j,0.491,Lo,,,,,,1,,,,,,,,low,11,0,11,0,1,,,,,,,,,
296227,2022-09-21_16h34.58.372,vts_reward_expectancy,2022.2.4,MacIntel,52.63157895,Safari,810,1080,,,,,10,911,,,,,,,,,,,,,,,,,U,132,hexagon,1,1,,,,,,,,,,,,,,,,repeat,number,numRpt,j,0.423,Hi,,,,,,1,,,,,,,,low,12,0,12,0,1,,,,,,,,,
296227,2022-09-21_16h34.58.372,vts_reward_expectancy,2022.2.4,MacIntel,52.63157895,Safari,810,1080,,,,,10,921,,,,,,,,,,,,,,,,,S,160,triangle,1,0,,,,,,,,,,,,,,,,switch,letter,lettSwt,f,0.588,Lo,,,,,,1,,,,,,,,low,13,0,13,0,1,,,,,,,,,
296227,2022-09-21_16h34.58.372,vts_reward_expectancy,2022.2.4,MacIntel,52.63157895,Safari,810,1080,,,,,1,922,,,,,,,,,,,,,,,,,W,125,triangle,1,0,,,,,,,,,,,,,,,,repeat,letter,lettRpt,f,0.552,Lo,,,,,,1,,,,,,,,low,14,0,14,0,1,,,,,,,,,
296227,2022-09-21_16h34.58.372,vts_reward_expectancy,2022.2.4,MacIntel,52.63157895,Safari,810,1080,,,,,0,922,,,,,,,,,,,,,,,,,Y,167,hexagon,1,0,,,,,,,,,,,,,,,,switch,number,numSwt,k,0.539,Hi,,,,,,1,,,,,,,,low,15,0,15,0,1,,,,,,,,,
296227,2022-09-21_16h34.58.372,vts_reward_expectancy,2022.2.4,MacIntel,52.63157895,Safari,810,1080,,,,,0,922,,,,,,,,,,,,,,,,,W,146,hexagon,1,0,,,,,,,,,,,,,,,,switch,letter,lettSwt,f,0.552,Hi,,,,,,1,,,,,,,,low,16,0,16,0,1,,,,,,,,,
296227,2022-09-21_16h34.58.372,vts_reward_expectancy,2022.2.4,MacIntel,52.63157895,Safari,810,1080,,,,,10,932,,,,,,,,,,,,,,,,,H,160,triangle,1,0,,,,,,,,,,,,,,,,switch,number,numSwt,k,0.486,Lo,,,,,,1,,,,,,,,low,17,0,17,0,1,,,,,,,,,
296227,2022-09-21_16h34.58.372,vts_reward_expectancy,2022.2.4,MacIntel,52.63157895,Safari,810,1080,,,,,10,942,,,,,,,,,,,,,,,,,S,181,hexagon,1,0,,,,,,,,,,,,,,,,switch,letter,lettSwt,f,0.502,Hi,,,,,,1,,,,,,,,low,18,0,18,0,1,,,,,,,,,
296227,2022-09-21_16h34.58.372,vts_reward_expectancy,2022.2.4,MacIntel,52.63157895,Safari,810,1080,,,,,1,943,,,,,,,,,,,,,,,,,U,132,triangle,1,0,,,,,,,,,,,,,,,,repeat,letter,lettRpt,f,0.568,Lo,,,,,,1,,,,,,,,low,19,0,19,0,1,,,,,,,,,
296227,2022-09-21_16h34.58.372,vts_reward_expectancy,2022.2.4,MacIntel,52.63157895,Safari,810,1080,,,,,10,953,,,,,,,,,,,,,,,,,B,125,hexagon,1,0,,,,,,,,,,,,,,,,switch,number,numSwt,j,0.468,Hi,,,,,,1,,,,,,,,low,20,0,20,0,1,,,,,,,,,
296227,2022-09-21_16h34.58.372,vts_reward_expectancy,2022.2.4,MacIntel,52.63157895,Safari,810,1080,,,,,1,954,,,,,,,,,,,,,,,,,F,174,triangle,1,0,,,,,,,,,,,,,,,,repeat,number,numRpt,k,1.021,Lo,,,,,,1,,,,,,,,low,21,0,21,0,1,,,,,,,,,
296227,2022-09-21_16h34.58.372,vts_reward_expectancy,2022.2.4,MacIntel,52.63157895,Safari,810,1080,,,,,10,964,,,,,,,,,,,,,,,,,D,167,triangle,1,0,,,,,,,,,,,,,,,,switch,letter,lettSwt,d,0.438,Lo,,,,,,1,,,,,,,,low,22,0,22,0,1,,,,,,,,,
296227,2022-09-21_16h34.58.372,vts_reward_expectancy,2022.2.4,MacIntel,52.63157895,Safari,810,1080,,,,,10,974,,,,,,,,,,,,,,,,,Y,139,hexagon,1,0,,,,,,,,,,,,,,,,switch,number,numSwt,j,0.437,Hi,,,,,,1,,,,,,,,low,23,0,23,0,1,,,,,,,,,
296227,2022-09-21_16h34.58.372,vts_reward_expectancy,2022.2.4,MacIntel,52.63157895,Safari,810,1080,,,,,1,975,,,,,,,,,,,,,,,,,S,132,triangle,1,0,,,,,,,,,,,,,,,,repeat,number,numRpt,j,0.442,Lo,,,,,,1,,,,,,,,low,24,0,24,0,1,,,,,,,,,
296227,2022-09-21_16h34.58.372,vts_reward_expectancy,2022.2.4,MacIntel,52.63157895,Safari,810,1080,,,,,0,975,,,,,,,,,,,,,,,,,F,160,hexagon,1,0,,,,,,,,,,,,,,,,switch,letter,lettSwt,d,0.569,Hi,,,,,,1,,,,,,,,low,25,0,25,0,1,,,,,,,,,
296227,2022-09-21_16h34.58.372,vts_reward_expectancy,2022.2.4,MacIntel,52.63157895,Safari,810,1080,,,,,10,985,,,,,,,,,,,,,,,,,Y,174,hexagon,1,0,,,,,,,,,,,,,,,,switch,number,numSwt,k,0.473,Hi,,,,,,1,,,,,,,,low,26,0,26,0,1,,,,,,,,,
296227,2022-09-21_16h34.58.372,vts_reward_expectancy,2022.2.4,MacIntel,52.63157895,Safari,810,1080,,,,,1,986,,,,,,,,,,,,,,,,,W,181,triangle,1,0,,,,,,,,,,,,,,,,switch,letter,lettSwt,f,0.387,Lo,,,,,,1,,,,,,,,low,27,0,27,0,1,,,,,,,,,
296227,2022-09-21_16h34.58.372,vts_reward_expectancy,2022.2.4,MacIntel,52.63157895,Safari,810,1080,,,,,10,996,,,,,,,,,,,,,,,,,H,167,triangle,1,0,,,,,,,,,,,,,,,,repeat,letter,lettRpt,d,0.539,Lo,,,,,,1,,,,,,,,low,28,0,28,0,1,,,,,,,,,
296227,2022-09-21_16h34.58.372,vts_reward_expectancy,2022.2.4,MacIntel,52.63157895,Safari,810,1080,,,,,1,997,,,,,,,,,,,,,,,,,D,125,hexagon,1,0,,,,,,,,,,,,,,,,switch,number,numSwt,j,0.401,Hi,,,,,,1,,,,,,,,low,29,0,29,0,1,,,,,,,,,
296227,2022-09-21_16h34.58.372,vts_reward_expectancy,2022.2.4,MacIntel,52.63157895,Safari,810,1080,,,,,0,997,,,,,,,,,,,,,,,,,B,139,hexagon,1,0,,,,,,,,,,,,,,,,repeat,number,numRpt,j,0.588,Hi,,,,,,1,,,,,,,,low,30,0,30,0,1,,,,,,,,,
296227,2022-09-21_16h34.58.372,vts_reward_expectancy,2022.2.4,MacIntel,52.63157895,Safari,810,1080,,,,,0,997,,,,,,,,,,,,,,,,,U,146,triangle,0,0,,,,,,,,,,,,,,,,repeat,number,NA,k,0.468,Hi,,,,,,1,,,,,,,,low,31,0,31,0,1,,,,,,,,,
296227,2022-09-21_16h34.58.372,vts_reward_expectancy,2022.2.4,MacIntel,52.63157895,Safari,810,1080,,,,,0,997,,,,,,,,,,,,,,,,,S,174,star,1,1,,,,,,,,,,,,,,,,switch,letter,lettSwt,f,0.771,Hi,,,,,,2,,,,,,space,0.99,high,0,0,0,0,1,,,,,,,,,
296227,2022-09-21_16h34.58.372,vts_reward_expectancy,2022.2.4,MacIntel,52.63157895,Safari,810,1080,,,,,1,998,,,,,,,,,,,,,,,,,U,125,circle,1,0,,,,,,,,,,,,,,,,repeat,letter,lettRpt,f,0.521,Lo,,,,,,2,,,,,,,,high,1,0,1,0,1,,,,,,,,,
296227,2022-09-21_16h34.58.372,vts_reward_expectancy,2022.2.4,MacIntel,52.63157895,Safari,810,1080,,,,,10,1008,,,,,,,,,,,,,,,,,W,132,star,1,0,,,,,,,,,,,,,,,,repeat,letter,lettRpt,f,0.453,Hi,,,,,,2,,,,,,,,high,2,0,2,0,1,,,,,,,,,
296227,2022-09-21_16h34.58.372,vts_reward_expectancy,2022.2.4,MacIntel,52.63157895,Safari,810,1080,,,,,10,1018,,,,,,,,,,,,,,,,,B,160,circle,1,0,,,,,,,,,,,,,,,,switch,number,numSwt,k,0.54,Lo,,,,,,2,,,,,,,,high,3,0,3,0,1,,,,,,,,,
296227,2022-09-21_16h34.58.372,vts_reward_expectancy,2022.2.4,MacIntel,52.63157895,Safari,810,1080,,,,,1,1019,,,,,,,,,,,,,,,,,D,167,circle,1,0,,,,,,,,,,,,,,,,repeat,number,numRpt,k,0.435,Lo,,,,,,2,,,,,,,,high,4,0,4,0,1,,,,,,,,,
296227,2022-09-21_16h34.58.372,vts_reward_expectancy,2022.2.4,MacIntel,52.63157895,Safari,810,1080,,,,,0,1019,,,,,,,,,,,,,,,,,H,146,star,0,0,,,,,,,,,,,,,,,,repeat,number,NA,k,0.521,Lo,,,,,,2,,,,,,,,high,5,0,5,0,1,,,,,,,,,
296227,2022-09-21_16h34.58.372,vts_reward_expectancy,2022.2.4,MacIntel,52.63157895,Safari,810,1080,,,,,10,1029,,,,,,,,,,,,,,,,,F,139,circle,1,1,,,,,,,,,,,,,,,,repeat,number,numRpt,j,0.506,Lo,,,,,,2,,,,,,,,high,6,0,6,0,1,,,,,,,,,
296227,2022-09-21_16h34.58.372,vts_reward_expectancy,2022.2.4,MacIntel,52.63157895,Safari,810,1080,,,,,10,1039,,,,,,,,,,,,,,,,,Y,181,star,1,0,,,,,,,,,,,,,,,,switch,letter,lettSwt,f,0.456,Hi,,,,,,2,,,,,,,,high,7,0,7,0,1,,,,,,,,,
296227,2022-09-21_16h34.58.372,vts_reward_expectancy,2022.2.4,MacIntel,52.63157895,Safari,810,1080,,,,,1,1040,,,,,,,,,,,,,,,,,S,174,circle,1,0,,,,,,,,,,,,,,,,switch,number,numSwt,k,0.472,Lo,,,,,,2,,,,,,,,high,8,0,8,0,1,,,,,,,,,
296227,2022-09-21_16h34.58.372,vts_reward_expectancy,2022.2.4,MacIntel,52.63157895,Safari,810,1080,,,,,0,1040,,,,,,,,,,,,,,,,,U,125,star,1,0,,,,,,,,,,,,,,,,switch,letter,lettSwt,f,0.585,Hi,,,,,,2,,,,,,,,high,9,0,9,0,1,,,,,,,,,
296227,2022-09-21_16h34.58.372,vts_reward_expectancy,2022.2.4,MacIntel,52.63157895,Safari,810,1080,,,,,10,1050,,,,,,,,,,,,,,,,,W,132,circle,1,0,,,,,,,,,,,,,,,,repeat,letter,lettRpt,f,0.439,Lo,,,,,,2,,,,,,,,high,10,0,10,0,1,,,,,,,,,
296227,2022-09-21_16h34.58.372,vts_reward_expectancy,2022.2.4,MacIntel,52.63157895,Safari,810,1080,,,,,0,1050,,,,,,,,,,,,,,,,,B,160,star,1,0,,,,,,,,,,,,,,,,repeat,letter,lettRpt,d,0.601,Hi,,,,,,2,,,,,,,,high,11,0,11,0,1,,,,,,,,,
296227,2022-09-21_16h34.58.372,vts_reward_expectancy,2022.2.4,MacIntel,52.63157895,Safari,810,1080,,,,,1,1051,,,,,,,,,,,,,,,,,D,167,circle,1,0,,,,,,,,,,,,,,,,repeat,letter,lettRpt,d,0.571,Lo,,,,,,2,,,,,,,,high,12,0,12,0,1,,,,,,,,,
296227,2022-09-21_16h34.58.372,vts_reward_expectancy,2022.2.4,MacIntel,52.63157895,Safari,810,1080,,,,,10,1061,,,,,,,,,,,,,,,,,H,146,star,1,0,,,,,,,,,,,,,,,,switch,number,numSwt,j,0.401,Hi,,,,,,2,,,,,,,,high,13,0,13,0,1,,,,,,,,,
296227,2022-09-21_16h34.58.372,vts_reward_expectancy,2022.2.4,MacIntel,52.63157895,Safari,810,1080,,,,,1,1062,,,,,,,,,,,,,,,,,F,139,circle,1,0,,,,,,,,,,,,,,,,repeat,number,numRpt,j,0.486,Lo,,,,,,2,,,,,,,,high,14,0,14,0,1,,,,,,,,,
296227,2022-09-21_16h34.58.372,vts_reward_expectancy,2022.2.4,MacIntel,52.63157895,Safari,810,1080,,,,,10,1072,,,,,,,,,,,,,,,,,Y,181,star,1,0,,,,,,,,,,,,,,,,switch,letter,lettSwt,f,0.418,Hi,,,,,,2,,,,,,,,high,15,0,15,0,1,,,,,,,,,
296227,2022-09-21_16h34.58.372,vts_reward_expectancy,2022.2.4,MacIntel,52.63157895,Safari,810,1080,,,,,1,1073,,,,,,,,,,,,,,,,,F,160,circle,1,0,,,,,,,,,,,,,,,,repeat,letter,lettRpt,d,0.451,Lo,,,,,,2,,,,,,,,high,16,0,16,0,1,,,,,,,,,
296227,2022-09-21_16h34.58.372,vts_reward_expectancy,2022.2.4,MacIntel,52.63157895,Safari,810,1080,,,,,10,1083,,,,,,,,,,,,,,,,,U,146,star,1,0,,,,,,,,,,,,,,,,switch,number,numSwt,j,0.438,Hi,,,,,,2,,,,,,,,high,17,0,17,0,1,,,,,,,,,
296227,2022-09-21_16h34.58.372,vts_reward_expectancy,2022.2.4,MacIntel,52.63157895,Safari,810,1080,,,,,0,1083,,,,,,,,,,,,,,,,,S,132,star,1,0,,,,,,,,,,,,,,,,repeat,number,numRpt,j,0.472,Hi,,,,,,2,,,,,,,,high,18,0,18,0,1,,,,,,,,,
296227,2022-09-21_16h34.58.372,vts_reward_expectancy,2022.2.4,MacIntel,52.63157895,Safari,810,1080,,,,,1,1084,,,,,,,,,,,,,,,,,H,181,circle,1,0,,,,,,,,,,,,,,,,switch,letter,lettSwt,d,0.454,Lo,,,,,,2,,,,,,,,high,19,0,19,0,1,,,,,,,,,
296227,2022-09-21_16h34.58.372,vts_reward_expectancy,2022.2.4,MacIntel,52.63157895,Safari,810,1080,,,,,10,1094,,,,,,,,,,,,,,,,,D,125,star,1,0,,,,,,,,,,,,,,,,repeat,letter,lettRpt,d,0.417,Hi,,,,,,2,,,,,,,,high,20,0,20,0,1,,,,,,,,,
296227,2022-09-21_16h34.58.372,vts_reward_expectancy,2022.2.4,MacIntel,52.63157895,Safari,810,1080,,,,,1,1095,,,,,,,,,,,,,,,,,Y,139,circle,1,0,,,,,,,,,,,,,,,,repeat,letter,lettRpt,f,0.372,Lo,,,,,,2,,,,,,,,high,21,0,21,0,1,,,,,,,,,
296227,2022-09-21_16h34.58.372,vts_reward_expectancy,2022.2.4,MacIntel,52.63157895,Safari,810,1080,,,,,1,1096,,,,,,,,,,,,,,,,,W,167,circle,1,0,,,,,,,,,,,,,,,,switch,number,numSwt,k,0.391,Lo,,,,,,2,,,,,,,,high,22,0,22,0,1,,,,,,,,,
296227,2022-09-21_16h34.58.372,vts_reward_expectancy,2022.2.4,MacIntel,52.63157895,Safari,810,1080,,,,,0,1096,,,,,,,,,,,,,,,,,B,174,star,0,0,,,,,,,,,,,,,,,,repeat,number,NA,j,0.44,Lo,,,,,,2,,,,,,,,high,23,0,23,0,1,,,,,,,,,
296227,2022-09-21_16h34.58.372,vts_reward_expectancy,2022.2.4,MacIntel,52.63157895,Safari,810,1080,,,,,1,1097,,,,,,,,,,,,,,,,,W,139,circle,1,1,,,,,,,,,,,,,,,,switch,letter,lettSwt,f,0.472,Lo,,,,,,2,,,,,,,,high,24,0,24,0,1,,,,,,,,,
296227,2022-09-21_16h34.58.372,vts_reward_expectancy,2022.2.4,MacIntel,52.63157895,Safari,810,1080,,,,,0,1097,,,,,,,,,,,,,,,,,D,160,star,0,0,,,,,,,,,,,,,,,,repeat,letter,NA,f,0.439,Lo,,,,,,2,,,,,,,,high,25,0,25,0,1,,,,,,,,,
296227,2022-09-21_16h34.58.372,vts_reward_expectancy,2022.2.4,MacIntel,52.63157895,Safari,810,1080,,,,,0,1097,,,,,,,,,,,,,,,,,F,167,star,1,1,,,,,,,,,,,,,,,,switch,number,numSwt,k,0.67,Hi,,,,,,2,,,,,,,,high,26,0,26,0,1,,,,,,,,,
296227,2022-09-21_16h34.58.372,vts_reward_expectancy,2022.2.4,MacIntel,52.63157895,Safari,810,1080,,,,,1,1098,,,,,,,,,,,,,,,,,H,146,circle,1,0,,,,,,,,,,,,,,,,repeat,number,numRpt,j,0.456,Lo,,,,,,2,,,,,,,,high,27,0,27,0,1,,,,,,,,,
296227,2022-09-21_16h34.58.372,vts_reward_expectancy,2022.2.4,MacIntel,52.63157895,Safari,810,1080,,,,,1,1099,,,,,,,,,,,,,,,,,B,174,star,1,0,,,,,,,,,,,,,,,,switch,letter,lettSwt,d,0.389,Hi,,,,,,2,,,,,,,,high,28,0,28,0,1,,,,,,,,,
296227,2022-09-21_16h34.58.372,vts_reward_expectancy,2022.2.4,MacIntel,52.63157895,Safari,810,1080,,,,,0,1099,,,,,,,,,,,,,,,,,U,132,circle,0,0,,,,,,,,,,,,,,,,repeat,letter,NA,d,0.383,Hi,,,,,,2,,,,,,,,high,29,0,29,0,1,,,,,,,,,
296227,2022-09-21_16h34.58.372,vts_reward_expectancy,2022.2.4,MacIntel,52.63157895,Safari,810,1080,,,,,0,1099,,,,,,,,,,,,,,,,,S,181,star,1,1,,,,,,,,,,,,,,,,switch,number,numSwt,k,0.456,Hi,,,,,,2,,,,,,,,high,30,0,30,0,1,,,,,,,,,
296227,2022-09-21_16h34.58.372,vts_reward_expectancy,2022.2.4,MacIntel,52.63157895,Safari,810,1080,,,,,1,1100,,,,,,,,,,,,,,,,,Y,125,circle,1,0,,,,,,,,,,,,,,,,switch,letter,lettSwt,f,0.488,Lo,,,,,,2,,,,,,,,high,31,0,31,0,1,,,,,,,,,
296227,2022-09-21_16h34.58.372,vts_reward_expectancy,2022.2.4,MacIntel,52.63157895,Safari,810,1080,,,,,0,1100,,,,,,,,,,,,,,,,,B,139,hexagon,0,0,,,,,,,,,,,,,,,,switch,number,NA,k,0.472,Lo,,,,,,3,,,,,,space,0.857,low,0,0,0,0,1,,,,,,,,,
296227,2022-09-21_16h34.58.372,vts_reward_expectancy,2022.2.4,MacIntel,52.63157895,Safari,810,1080,,,,,10,1110,,,,,,,,,,,,,,,,,F,160,triangle,1,1,,,,,,,,,,,,,,,,repeat,number,numRpt,k,0.552,Lo,,,,,,3,,,,,,,,low,1,0,1,0,1,,,,,,,,,
296227,2022-09-21_16h34.58.372,vts_reward_expectancy,2022.2.4,MacIntel,52.63157895,Safari,810,1080,,,,,0,1110,,,,,,,,,,,,,,,,,D,167,hexagon,1,0,,,,,,,,,,,,,,,,switch,letter,lettSwt,d,0.539,Hi,,,,,,3,,,,,,,,low,2,0,2,0,1,,,,,,,,,
296227,2022-09-21_16h34.58.372,vts_reward_expectancy,2022.2.4,MacIntel,52.63157895,Safari,810,1080,,,,,1,1111,,,,,,,,,,,,,,,,,Y,125,triangle,1,0,,,,,,,,,,,,,,,,repeat,letter,lettRpt,f,0.471,Lo,,,,,,3,,,,,,,,low,3,0,3,0,1,,,,,,,,,
296227,2022-09-21_16h34.58.372,vts_reward_expectancy,2022.2.4,MacIntel,52.63157895,Safari,810,1080,,,,,0,1111,,,,,,,,,,,,,,,,,H,146,hexagon,1,0,,,,,,,,,,,,,,,,switch,number,numSwt,j,0.452,Hi,,,,,,3,,,,,,,,low,4,0,4,0,1,,,,,,,,,
296227,2022-09-21_16h34.58.372,vts_reward_expectancy,2022.2.4,MacIntel,52.63157895,Safari,810,1080,,,,,10,1121,,,,,,,,,,,,,,,,,W,174,triangle,1,0,,,,,,,,,,,,,,,,repeat,number,numRpt,k,0.435,Lo,,,,,,3,,,,,,,,low,5,0,5,0,1,,,,,,,,,
296227,2022-09-21_16h34.58.372,vts_reward_expectancy,2022.2.4,MacIntel,52.63157895,Safari,810,1080,,,,,0,1121,,,,,,,,,,,,,,,,,S,181,triangle,0,0,,,,,,,,,,,,,,,,switch,letter,NA,d,0.553,Lo,,,,,,3,,,,,,,,low,6,0,6,0,1,,,,,,,,,
296227,2022-09-21_16h34.58.372,vts_reward_expectancy,2022.2.4,MacIntel,52.63157895,Safari,810,1080,,,,,0,1121,,,,,,,,,,,,,,,,,U,132,hexagon,1,1,,,,,,,,,,,,,,,,repeat,letter,lettRpt,f,0.518,Hi,,,,,,3,,,,,,,,low,7,0,7,0,1,,,,,,,,,
296227,2022-09-21_16h34.58.372,vts_reward_expectancy,2022.2.4,MacIntel,52.63157895,Safari,810,1080,,,,,10,1131,,,,,,,,,,,,,,,,,B,139,triangle,1,0,,,,,,,,,,,,,,,,switch,number,numSwt,j,0.418,Lo,,,,,,3,,,,,,,,low,8,0,8,0,1,,,,,,,,,
296227,2022-09-21_16h34.58.372,vts_reward_expectancy,2022.2.4,MacIntel,52.63157895,Safari,810,1080,,,,,1,1132,,,,,,,,,,,,,,,,,F,160,hexagon,1,0,,,,,,,,,,,,,,,,repeat,number,numRpt,k,0.451,Hi,,,,,,3,,,,,,,,low,9,0,9,0,1,,,,,,,,,
296227,2022-09-21_16h34.58.372,vts_reward_expectancy,2022.2.4,MacIntel,52.63157895,Safari,810,1080,,,,,10,1142,,,,,,,,,,,,,,,,,D,167,hexagon,1,0,,,,,,,,,,,,,,,,switch,letter,lettSwt,d,0.401,Hi,,,,,,3,,,,,,,,low,10,0,10,0,1,,,,,,,,,
296227,2022-09-21_16h34.58.372,vts_reward_expectancy,2022.2.4,MacIntel,52.63157895,Safari,810,1080,,,,,10,1152,,,,,,,,,,,,,,,,,Y,125,triangle,1,0,,,,,,,,,,,,,,,,repeat,letter,lettRpt,f,0.434,Lo,,,,,,3,,,,,,,,low,11,0,11,0,1,,,,,,,,,
296227,2022-09-21_16h34.58.372,vts_reward_expectancy,2022.2.4,MacIntel,52.63157895,Safari,810,1080,,,,,0,1152,,,,,,,,,,,,,,,,,H,146,hexagon,0,0,,,,,,,,,,,,,,,,switch,number,NA,k,0.438,Lo,,,,,,3,,,,,,,,low,12,0,12,0,1,,,,,,,,,
296227,2022-09-21_16h34.58.372,vts_reward_expectancy,2022.2.4,MacIntel,52.63157895,Safari,810,1080,,,,,1,1153,,,,,,,,,,,,,,,,,W,174,triangle,1,1,,,,,,,,,,,,,,,,repeat,number,numRpt,k,0.436,Lo,,,,,,3,,,,,,,,low,13,0,13,0,1,,,,,,,,,
296227,2022-09-21_16h34.58.372,vts_reward_expectancy,2022.2.4,MacIntel,52.63157895,Safari,810,1080,,,,,10,1163,,,,,,,,,,,,,,,,,S,181,hexagon,1,0,,,,,,,,,,,,,,,,switch,letter,lettSwt,f,0.417,Hi,,,,,,3,,,,,,,,low,14,0,14,0,1,,,,,,,,,
296227,2022-09-21_16h34.58.372,vts_reward_expectancy,2022.2.4,MacIntel,52.63157895,Safari,810,1080,,,,,10,1173,,,,,,,,,,,,,,,,,U,132,triangle,1,0,,,,,,,,,,,,,,,,switch,number,numSwt,j,0.387,Lo,,,,,,3,,,,,,,,low,15,0,15,0,1,,,,,,,,,
296227,2022-09-21_16h34.58.372,vts_reward_expectancy,2022.2.4,MacIntel,52.63157895,Safari,810,1080,,,,,1,1174,,,,,,,,,,,,,,,,,W,139,triangle,1,0,,,,,,,,,,,,,,,,repeat,number,numRpt,j,0.487,Lo,,,,,,3,,,,,,,,low,16,0,16,0,1,,,,,,,,,
296227,2022-09-21_16h34.58.372,vts_reward_expectancy,2022.2.4,MacIntel,52.63157895,Safari,810,1080,,,,,10,1184,,,,,,,,,,,,,,,,,B,167,hexagon,1,0,,,,,,,,,,,,,,,,switch,letter,lettSwt,d,0.371,Hi,,,,,,3,,,,,,,,low,17,0,17,0,1,,,,,,,,,
296227,2022-09-21_16h34.58.372,vts_reward_expectancy,2022.2.4,MacIntel,52.63157895,Safari,810,1080,,,,,10,1194,,,,,,,,,,,,,,,,,Y,181,triangle,1,0,,,,,,,,,,,,,,,,repeat,letter,lettRpt,f,0.406,Lo,,,,,,3,,,,,,,,low,18,0,18,0,1,,,,,,,,,
296227,2022-09-21_16h34.58.372,vts_reward_expectancy,2022.2.4,MacIntel,52.63157895,Safari,810,1080,,,,,1,1195,,,,,,,,,,,,,,,,,F,125,hexagon,1,0,,,,,,,,,,,,,,,,switch,number,numSwt,j,0.389,Hi,,,,,,3,,,,,,,,low,19,0,19,0,1,,,,,,,,,
296227,2022-09-21_16h34.58.372,vts_reward_expectancy,2022.2.4,MacIntel,52.63157895,Safari,810,1080,,,,,0,1195,,,,,,,,,,,,,,,,,U,146,hexagon,0,0,,,,,,,,,,,,,,,,repeat,number,NA,k,0.372,Hi,,,,,,3,,,,,,,,low,20,0,20,0,1,,,,,,,,,
296227,2022-09-21_16h34.58.372,vts_reward_expectancy,2022.2.4,MacIntel,52.63157895,Safari,810,1080,,,,,10,1205,,,,,,,,,,,,,,,,,D,160,triangle,1,1,,,,,,,,,,,,,,,,repeat,number,numRpt,k,0.367,Lo,,,,,,3,,,,,,,,low,21,0,21,0,1,,,,,,,,,
296227,2022-09-21_16h34.58.372,vts_reward_expectancy,2022.2.4,MacIntel,52.63157895,Safari,810,1080,,,,,0,1205,,,,,,,,,,,,,,,,,H,174,triangle,0,0,,,,,,,,,,,,,,,,switch,letter,NA,f,0.488,Lo,,,,,,3,,,,,,,,low,22,0,22,0,1,,,,,,,,,
296227,2022-09-21_16h34.58.372,vts_reward_expectancy,2022.2.4,MacIntel,52.63157895,Safari,810,1080,,,,,1,1206,,,,,,,,,,,,,,,,,S,132,hexagon,1,1,,,,,,,,,,,,,,,,repeat,letter,lettRpt,f,0.438,Hi,,,,,,3,,,,,,,,low,23,0,23,0,1,,,,,,,,,
296227,2022-09-21_16h34.58.372,vts_reward_expectancy,2022.2.4,MacIntel,52.63157895,Safari,810,1080,,,,,10,1216,,,,,,,,,,,,,,,,,B,167,triangle,1,0,,,,,,,,,,,,,,,,switch,number,numSwt,k,0.441,Lo,,,,,,3,,,,,,,,low,24,0,24,0,1,,,,,,,,,
296227,2022-09-21_16h34.58.372,vts_reward_expectancy,2022.2.4,MacIntel,52.63157895,Safari,810,1080,,,,,1,1217,,,,,,,,,,,,,,,,,W,132,hexagon,1,0,,,,,,,,,,,,,,,,switch,letter,lettSwt,f,0.454,Hi,,,,,,3,,,,,,,,low,25,0,25,0,1,,,,,,,,,
296227,2022-09-21_16h34.58.372,vts_reward_expectancy,2022.2.4,MacIntel,52.63157895,Safari,810,1080,,,,,1,1218,,,,,,,,,,,,,,,,,Y,160,triangle,1,0,,,,,,,,,,,,,,,,repeat,letter,lettRpt,f,0.439,Lo,,,,,,3,,,,,,,,low,26,0,26,0,1,,,,,,,,,
296227,2022-09-21_16h34.58.372,vts_reward_expectancy,2022.2.4,MacIntel,52.63157895,Safari,810,1080,,,,,0,1218,,,,,,,,,,,,,,,,,F,174,hexagon,0,0,,,,,,,,,,,,,,,,switch,number,NA,j,0.418,Lo,,,,,,3,,,,,,,,low,27,0,27,0,1,,,,,,,,,
296227,2022-09-21_16h34.58.372,vts_reward_expectancy,2022.2.4,MacIntel,52.63157895,Safari,810,1080,,,,,1,1219,,,,,,,,,,,,,,,,,S,146,triangle,1,1,,,,,,,,,,,,,,,,repeat,number,numRpt,j,0.505,Lo,,,,,,3,,,,,,,,low,28,0,28,0,1,,,,,,,,,
296227,2022-09-21_16h34.58.372,vts_reward_expectancy,2022.2.4,MacIntel,52.63157895,Safari,810,1080,,,,,0,1219,,,,,,,,,,,,,,,,,D,125,hexagon,1,0,,,,,,,,,,,,,,,,repeat,number,numRpt,j,0.471,Hi,,,,,,3,,,,,,,,low,29,0,29,0,1,,,,,,,,,
296227,2022-09-21_16h34.58.372,vts_reward_expectancy,2022.2.4,MacIntel,52.63157895,Safari,810,1080,,,,,10,1229,,,,,,,,,,,,,,,,,H,139,triangle,1,0,,,,,,,,,,,,,,,,repeat,number,numRpt,j,0.519,Lo,,,,,,3,,,,,,,,low,30,0,30,0,1,,,,,,,,,
296227,2022-09-21_16h34.58.372,vts_reward_expectancy,2022.2.4,MacIntel,52.63157895,Safari,810,1080,,,,,0,1229,,,,,,,,,,,,,,,,,U,181,hexagon,1,0,,,,,,,,,,,,,,,,switch,letter,lettSwt,f,0.57,Hi,,,,,,3,,,,,,,,low,31,0,31,0,1,,,,,,,,,
296227,2022-09-21_16h34.58.372,vts_reward_expectancy,2022.2.4,MacIntel,52.63157895,Safari,810,1080,,,,,0,1229,,,,,,,,,,,,,,,,,Y,174,star,1,0,,,,,,,,,,,,,,,,repeat,letter,lettRpt,f,0.469,Hi,,,,,,4,,,,,,space,22.831,high,0,0,0,0,1,,,,,,,,,
296227,2022-09-21_16h34.58.372,vts_reward_expectancy,2022.2.4,MacIntel,52.63157895,Safari,810,1080,,,,,1,1230,,,,,,,,,,,,,,,,,B,139,circle,1,0,,,,,,,,,,,,,,,,repeat,letter,lettRpt,d,0.387,Lo,,,,,,4,,,,,,,,high,1,0,1,0,1,,,,,,,,,
296227,2022-09-21_16h34.58.372,vts_reward_expectancy,2022.2.4,MacIntel,52.63157895,Safari,810,1080,,,,,0,1230,,,,,,,,,,,,,,,,,H,125,star,1,0,,,,,,,,,,,,,,,,switch,number,numSwt,j,0.405,Hi,,,,,,4,,,,,,,,high,2,0,2,0,1,,,,,,,,,
296227,2022-09-21_16h34.58.372,vts_reward_expectancy,2022.2.4,MacIntel,52.63157895,Safari,810,1080,,,,,1,1231,,,,,,,,,,,,,,,,,W,132,circle,1,0,,,,,,,,,,,,,,,,switch,letter,lettSwt,f,0.45,Lo,,,,,,4,,,,,,,,high,3,0,3,0,1,,,,,,,,,
296227,2022-09-21_16h34.58.372,vts_reward_expectancy,2022.2.4,MacIntel,52.63157895,Safari,810,1080,,,,,10,1241,,,,,,,,,,,,,,,,,S,181,circle,1,0,,,,,,,,,,,,,,,,repeat,letter,lettRpt,f,0.556,Lo,,,,,,4,,,,,,,,high,4,0,4,0,1,,,,,,,,,
296227,2022-09-21_16h34.58.372,vts_reward_expectancy,2022.2.4,MacIntel,52.63157895,Safari,810,1080,,,,,0,1241,,,,,,,,,,,,,,,,,F,160,star,1,0,,,,,,,,,,,,,,,,switch,number,numSwt,k,0.438,Hi,,,,,,4,,,,,,,,high,5,0,5,0,1,,,,,,,,,
296227,2022-09-21_16h34.58.372,vts_reward_expectancy,2022.2.4,MacIntel,52.63157895,Safari,810,1080,,,,,0,1241,,,,,,,,,,,,,,,,,D,146,star,0,0,,,,,,,,,,,,,,,,switch,letter,NA,f,0.405,Hi,,,,,,4,,,,,,,,high,6,0,6,0,1,,,,,,,,,
296227,2022-09-21_16h34.58.372,vts_reward_expectancy,2022.2.4,MacIntel,52.63157895,Safari,810,1080,,,,,1,1242,,,,,,,,,,,,,,,,,U,167,circle,1,1,,,,,,,,,,,,,,,,repeat,letter,lettRpt,f,0.472,Lo,,,,,,4,,,,,,,,high,7,0,7,0,1,,,,,,,,,
296227,2022-09-21_16h34.58.372,vts_reward_expectancy,2022.2.4,MacIntel,52.63157895,Safari,810,1080,,,,,0,1242,,,,,,,,,,,,,,,,,Y,174,star,1,0,,,,,,,,,,,,,,,,switch,number,numSwt,k,0.425,Hi,,,,,,4,,,,,,,,high,8,0,8,0,1,,,,,,,,,
296227,2022-09-21_16h34.58.372,vts_reward_expectancy,2022.2.4,MacIntel,52.63157895,Safari,810,1080,,,,,1,1243,,,,,,,,,,,,,,,,,B,139,circle,1,0,,,,,,,,,,,,,,,,repeat,number,numRpt,j,0.422,Lo,,,,,,4,,,,,,,,high,9,0,9,0,1,,,,,,,,,
296227,2022-09-21_16h34.58.372,vts_reward_expectancy,2022.2.4,MacIntel,52.63157895,Safari,810,1080,,,,,0,1243,,,,,,,,,,,,,,,,,H,125,star,1,0,,,,,,,,,,,,,,,,switch,letter,lettSwt,d,0.607,Hi,,,,,,4,,,,,,,,high,10,0,10,0,1,,,,,,,,,
296227,2022-09-21_16h34.58.372,vts_reward_expectancy,2022.2.4,MacIntel,52.63157895,Safari,810,1080,,,,,1,1244,,,,,,,,,,,,,,,,,W,132,circle,1,0,,,,,,,,,,,,,,,,switch,number,numSwt,j,0.405,Lo,,,,,,4,,,,,,,,high,11,0,11,0,1,,,,,,,,,
296227,2022-09-21_16h34.58.372,vts_reward_expectancy,2022.2.4,MacIntel,52.63157895,Safari,810,1080,,,,,1,1245,,,,,,,,,,,,,,,,,S,181,circle,1,0,,,,,,,,,,,,,,,,switch,letter,lettSwt,f,0.438,Lo,,,,,,4,,,,,,,,high,12,0,12,0,1,,,,,,,,,
296227,2022-09-21_16h34.58.372,vts_reward_expectancy,2022.2.4,MacIntel,52.63157895,Safari,810,1080,,,,,0,1245,,,,,,,,,,,,,,,,,F,160,star,1,0,,,,,,,,,,,,,,,,switch,number,numSwt,k,0.456,Hi,,,,,,4,,,,,,,,high,13,0,13,0,1,,,,,,,,,
296227,2022-09-21_16h34.58.372,vts_reward_expectancy,2022.2.4,MacIntel,52.63157895,Safari,810,1080,,,,,1,1246,,,,,,,,,,,,,,,,,D,146,circle,1,0,,,,,,,,,,,,,,,,switch,letter,lettSwt,d,0.453,Lo,,,,,,4,,,,,,,,high,14,0,14,0,1,,,,,,,,,
296227,2022-09-21_16h34.58.372,vts_reward_expectancy,2022.2.4,MacIntel,52.63157895,Safari,810,1080,,,,,0,1246,,,,,,,,,,,,,,,,,U,167,star,1,0,,,,,,,,,,,,,,,,repeat,letter,lettRpt,f,0.603,Hi,,,,,,4,,,,,,,,high,15,0,15,0,1,,,,,,,,,
296227,2022-09-21_16h34.58.372,vts_reward_expectancy,2022.2.4,MacIntel,52.63157895,Safari,810,1080,,,,,1,1247,,,,,,,,,,,,,,,,,H,139,circle,1,0,,,,,,,,,,,,,,,,switch,number,numSwt,j,0.506,Lo,,,,,,4,,,,,,,,high,16,0,16,0,1,,,,,,,,,
296227,2022-09-21_16h34.58.372,vts_reward_expectancy,2022.2.4,MacIntel,52.63157895,Safari,810,1080,,,,,0,1247,,,,,,,,,,,,,,,,,F,160,star,1,0,,,,,,,,,,,,,,,,repeat,number,numRpt,k,0.489,Hi,,,,,,4,,,,,,,,high,17,0,17,0,1,,,,,,,,,
296227,2022-09-21_16h34.58.372,vts_reward_expectancy,2022.2.4,MacIntel,52.63157895,Safari,810,1080,,,,,1,1248,,,,,,,,,,,,,,,,,W,181,circle,1,0,,,,,,,,,,,,,,,,switch,letter,lettSwt,f,0.384,Lo,,,,,,4,,,,,,,,high,18,0,18,0,1,,,,,,,,,
296227,2022-09-21_16h34.58.372,vts_reward_expectancy,2022.2.4,MacIntel,52.63157895,Safari,810,1080,,,,,0,1248,,,,,,,,,,,,,,,,,D,132,star,1,0,,,,,,,,,,,,,,,,repeat,letter,lettRpt,d,0.554,Hi,,,,,,4,,,,,,,,high,19,0,19,0,1,,,,,,,,,
296227,2022-09-21_16h34.58.372,vts_reward_expectancy,2022.2.4,MacIntel,52.63157895,Safari,810,1080,,,,,0,1248,,,,,,,,,,,,,,,,,U,174,star,0,0,,,,,,,,,,,,,,,,switch,number,NA,j,0.771,Hi,,,,,,4,,,,,,,,high,20,0,20,0,1,,,,,,,,,
296227,2022-09-21_16h34.58.372,vts_reward_expectancy,2022.2.4,MacIntel,52.63157895,Safari,810,1080,,,,,1,1249,,,,,,,,,,,,,,,,,B,146,circle,1,1,,,,,,,,,,,,,,,,repeat,number,numRpt,j,0.44,Lo,,,,,,4,,,,,,,,high,21,0,21,0,1,,,,,,,,,
296227,2022-09-21_16h34.58.372,vts_reward_expectancy,2022.2.4,MacIntel,52.63157895,Safari,810,1080,,,,,0,1249,,,,,,,,,,,,,,,,,S,125,star,1,0,,,,,,,,,,,,,,,,switch,letter,lettSwt,f,0.485,Hi,,,,,,4,,,,,,,,high,22,0,22,0,1,,,,,,,,,
296227,2022-09-21_16h34.58.372,vts_reward_expectancy,2022.2.4,MacIntel,52.63157895,Safari,810,1080,,,,,1,1250,,,,,,,,,,,,,,,,,Y,167,circle,1,0,,,,,,,,,,,,,,,,repeat,letter,lettRpt,f,0.604,Lo,,,,,,4,,,,,,,,high,23,0,23,0,1,,,,,,,,,
296227,2022-09-21_16h34.58.372,vts_reward_expectancy,2022.2.4,MacIntel,52.63157895,Safari,810,1080,,,,,1,1251,,,,,,,,,,,,,,,,,W,146,circle,1,0,,,,,,,,,,,,,,,,switch,number,numSwt,j,0.473,Lo,,,,,,4,,,,,,,,high,24,0,24,0,1,,,,,,,,,
296227,2022-09-21_16h34.58.372,vts_reward_expectancy,2022.2.4,MacIntel,52.63157895,Safari,810,1080,,,,,0,1251,,,,,,,,,,,,,,,,,U,125,star,1,0,,,,,,,,,,,,,,,,repeat,number,numRpt,j,0.506,Hi,,,,,,4,,,,,,,,high,25,0,25,0,1,,,,,,,,,
296227,2022-09-21_16h34.58.372,vts_reward_expectancy,2022.2.4,MacIntel,52.63157895,Safari,810,1080,,,,,0,1251,,,,,,,,,,,,,,,,,Y,174,star,1,0,,,,,,,,,,,,,,,,switch,letter,lettSwt,f,0.49,Hi,,,,,,4,,,,,,,,high,26,0,26,0,1,,,,,,,,,
296227,2022-09-21_16h34.58.372,vts_reward_expectancy,2022.2.4,MacIntel,52.63157895,Safari,810,1080,,,,,1,1252,,,,,,,,,,,,,,,,,H,132,circle,1,0,,,,,,,,,,,,,,,,repeat,letter,lettRpt,d,0.423,Lo,,,,,,4,,,,,,,,high,27,0,27,0,1,,,,,,,,,
296227,2022-09-21_16h34.58.372,vts_reward_expectancy,2022.2.4,MacIntel,52.63157895,Safari,810,1080,,,,,0,1252,,,,,,,,,,,,,,,,,F,167,star,0,0,,,,,,,,,,,,,,,,switch,number,NA,j,0.44,Lo,,,,,,4,,,,,,,,high,28,0,28,0,1,,,,,,,,,
296227,2022-09-21_16h34.58.372,vts_reward_expectancy,2022.2.4,MacIntel,52.63157895,Safari,810,1080,,,,,0,1252,,,,,,,,,,,,,,,,,B,181,circle,0,1,,,,,,,,,,,,,,,,repeat,number,NA,j,0.434,Lo,,,,,,4,,,,,,,,high,29,0,29,0,1,,,,,,,,,
296227,2022-09-21_16h34.58.372,vts_reward_expectancy,2022.2.4,MacIntel,52.63157895,Safari,810,1080,,,,,0,1252,,,,,,,,,,,,,,,,,D,139,star,1,1,,,,,,,,,,,,,,,,switch,letter,lettSwt,d,0.555,Hi,,,,,,4,,,,,,,,high,30,0,30,0,1,,,,,,,,,
296227,2022-09-21_16h34.58.372,vts_reward_expectancy,2022.2.4,MacIntel,52.63157895,Safari,810,1080,,,,,1,1253,,,,,,,,,,,,,,,,,S,160,circle,1,0,,,,,,,,,,,,,,,,switch,number,numSwt,k,0.486,Lo,,,,,,4,,,,,,,,high,31,0,31,0,1,,,,,,,,,
296227,2022-09-21_16h34.58.372,vts_reward_expectancy,2022.2.4,MacIntel,52.63157895,Safari,810,1080,,,,,1,1254,,,,,,,,,,,,,,,,,S,139,triangle,1,0,,,,,,,,,,,,,,,,switch,letter,lettSwt,f,0.556,Lo,,,,,,5,,,,,,space,0.99,low,0,0,0,0,1,,,,,,,,,
296227,2022-09-21_16h34.58.372,vts_reward_expectancy,2022.2.4,MacIntel,52.63157895,Safari,810,1080,,,,,10,1264,,,,,,,,,,,,,,,,,B,146,hexagon,1,0,,,,,,,,,,,,,,,,switch,number,numSwt,j,0.371,Hi,,,,,,5,,,,,,,,low,1,0,1,0,1,,,,,,,,,
296227,2022-09-21_16h34.58.372,vts_reward_expectancy,2022.2.4,MacIntel,52.63157895,Safari,810,1080,,,,,1,1265,,,,,,,,,,,,,,,,,H,181,triangle,1,0,,,,,,,,,,,,,,,,repeat,number,numRpt,k,0.368,Lo,,,,,,5,,,,,,,,low,2,0,2,0,1,,,,,,,,,
296227,2022-09-21_16h34.58.372,vts_reward_expectancy,2022.2.4,MacIntel,52.63157895,Safari,810,1080,,,,,10,1275,,,,,,,,,,,,,,,,,W,174,hexagon,1,0,,,,,,,,,,,,,,,,switch,letter,lettSwt,f,0.415,Hi,,,,,,5,,,,,,,,low,3,0,3,0,1,,,,,,,,,
296227,2022-09-21_16h34.58.372,vts_reward_expectancy,2022.2.4,MacIntel,52.63157895,Safari,810,1080,,,,,10,1285,,,,,,,,,,,,,,,,,Y,125,hexagon,1,0,,,,,,,,,,,,,,,,repeat,letter,lettRpt,f,0.441,Hi,,,,,,5,,,,,,,,low,4,0,4,0,1,,,,,,,,,
296227,2022-09-21_16h34.58.372,vts_reward_expectancy,2022.2.4,MacIntel,52.63157895,Safari,810,1080,,,,,10,1295,,,,,,,,,,,,,,,,,D,132,triangle,1,0,,,,,,,,,,,,,,,,switch,number,numSwt,j,0.371,Lo,,,,,,5,,,,,,,,low,5,0,5,0,1,,,,,,,,,
296227,2022-09-21_16h34.58.372,vts_reward_expectancy,2022.2.4,MacIntel,52.63157895,Safari,810,1080,,,,,1,1296,,,,,,,,,,,,,,,,,U,167,triangle,1,0,,,,,,,,,,,,,,,,switch,letter,lettSwt,f,0.553,Lo,,,,,,5,,,,,,,,low,6,0,6,0,1,,,,,,,,,
296227,2022-09-21_16h34.58.372,vts_reward_expectancy,2022.2.4,MacIntel,52.63157895,Safari,810,1080,,,,,0,1296,,,,,,,,,,,,,,,,,F,160,hexagon,0,0,,,,,,,,,,,,,,,,repeat,letter,NA,f,0.419,Lo,,,,,,5,,,,,,,,low,7,0,7,0,1,,,,,,,,,
296227,2022-09-21_16h34.58.372,vts_reward_expectancy,2022.2.4,MacIntel,52.63157895,Safari,810,1080,,,,,0,1296,,,,,,,,,,,,,,,,,S,139,hexagon,1,1,,,,,,,,,,,,,,,,switch,number,numSwt,j,0.472,Hi,,,,,,5,,,,,,,,low,8,0,8,0,1,,,,,,,,,
296227,2022-09-21_16h34.58.372,vts_reward_expectancy,2022.2.4,MacIntel,52.63157895,Safari,810,1080,,,,,10,1306,,,,,,,,,,,,,,,,,B,146,triangle,1,0,,,,,,,,,,,,,,,,repeat,number,numRpt,j,0.504,Lo,,,,,,5,,,,,,,,low,9,0,9,0,1,,,,,,,,,
296227,2022-09-21_16h34.58.372,vts_reward_expectancy,2022.2.4,MacIntel,52.63157895,Safari,810,1080,,,,,0,1306,,,,,,,,,,,,,,,,,H,181,hexagon,1,0,,,,,,,,,,,,,,,,repeat,number,numRpt,k,0.522,Hi,,,,,,5,,,,,,,,low,10,0,10,0,1,,,,,,,,,
296227,2022-09-21_16h34.58.372,vts_reward_expectancy,2022.2.4,MacIntel,52.63157895,Safari,810,1080,,,,,1,1307,,,,,,,,,,,,,,,,,W,174,triangle,1,0,,,,,,,,,,,,,,,,switch,letter,lettSwt,f,0.587,Lo,,,,,,5,,,,,,,,low,11,0,11,0,1,,,,,,,,,
296227,2022-09-21_16h34.58.372,vts_reward_expectancy,2022.2.4,MacIntel,52.63157895,Safari,810,1080,,,,,1,1308,,,,,,,,,,,,,,,,,Y,125,hexagon,1,0,,,,,,,,,,,,,,,,switch,number,numSwt,j,0.388,Hi,,,,,,5,,,,,,,,low,12,0,12,0,1,,,,,,,,,
296227,2022-09-21_16h34.58.372,vts_reward_expectancy,2022.2.4,MacIntel,52.63157895,Safari,810,1080,,,,,1,1309,,,,,,,,,,,,,,,,,D,132,triangle,1,0,,,,,,,,,,,,,,,,repeat,number,numRpt,j,0.52,Lo,,,,,,5,,,,,,,,low,13,0,13,0,1,,,,,,,,,
296227,2022-09-21_16h34.58.372,vts_reward_expectancy,2022.2.4,MacIntel,52.63157895,Safari,810,1080,,,,,0,1309,,,,,,,,,,,,,,,,,U,167,hexagon,0,0,,,,,,,,,,,,,,,,switch,letter,NA,d,0.418,Lo,,,,,,5,,,,,,,,low,14,0,14,0,1,,,,,,,,,
296227,2022-09-21_16h34.58.372,vts_reward_expectancy,2022.2.4,MacIntel,52.63157895,Safari,810,1080,,,,,10,1319,,,,,,,,,,,,,,,,,F,160,triangle,1,1,,,,,,,,,,,,,,,,repeat,letter,lettRpt,d,0.438,Lo,,,,,,5,,,,,,,,low,15,0,15,0,1,,,,,,,,,
296227,2022-09-21_16h34.58.372,vts_reward_expectancy,2022.2.4,MacIntel,52.63157895,Safari,810,1080,,,,,10,1329,,,,,,,,,,,,,,,,,F,160,hexagon,1,0,,,,,,,,,,,,,,,,repeat,letter,lettRpt,d,0.413,Hi,,,,,,5,,,,,,,,low,16,0,16,0,1,,,,,,,,,
296227,2022-09-21_16h34.58.372,vts_reward_expectancy,2022.2.4,MacIntel,52.63157895,Safari,810,1080,,,,,1,1330,,,,,,,,,,,,,,,,,D,125,triangle,1,0,,,,,,,,,,,,,,,,switch,number,numSwt,j,0.406,Lo,,,,,,5,,,,,,,,low,17,0,17,0,1,,,,,,,,,
296227,2022-09-21_16h34.58.372,vts_reward_expectancy,2022.2.4,MacIntel,52.63157895,Safari,810,1080,,,,,10,1340,,,,,,,,,,,,,,,,,Y,139,triangle,1,0,,,,,,,,,,,,,,,,repeat,number,numRpt,j,0.451,Lo,,,,,,5,,,,,,,,low,18,0,18,0,1,,,,,,,,,
296227,2022-09-21_16h34.58.372,vts_reward_expectancy,2022.2.4,MacIntel,52.63157895,Safari,810,1080,,,,,0,1340,,,,,,,,,,,,,,,,,B,132,hexagon,1,0,,,,,,,,,,,,,,,,switch,letter,lettSwt,d,0.489,Hi,,,,,,5,,,,,,,,low,19,0,19,0,1,,,,,,,,,
296227,2022-09-21_16h34.58.372,vts_reward_expectancy,2022.2.4,MacIntel,52.63157895,Safari,810,1080,,,,,1,1341,,,,,,,,,,,,,,,,,U,167,hexagon,1,0,,,,,,,,,,,,,,,,repeat,letter,lettRpt,f,0.421,Hi,,,,,,5,,,,,,,,low,20,0,20,0,1,,,,,,,,,
296227,2022-09-21_16h34.58.372,vts_reward_expectancy,2022.2.4,MacIntel,52.63157895,Safari,810,1080,,,,,10,1351,,,,,,,,,,,,,,,,,W,181,triangle,1,0,,,,,,,,,,,,,,,,repeat,letter,lettRpt,f,0.488,Lo,,,,,,5,,,,,,,,low,21,0,21,0,1,,,,,,,,,
296227,2022-09-21_16h34.58.372,vts_reward_expectancy,2022.2.4,MacIntel,52.63157895,Safari,810,1080,,,,,0,1351,,,,,,,,,,,,,,,,,S,146,triangle,0,0,,,,,,,,,,,,,,,,switch,number,NA,k,0.506,Lo,,,,,,5,,,,,,,,low,22,0,22,0,1,,,,,,,,,
296227,2022-09-21_16h34.58.372,vts_reward_expectancy,2022.2.4,MacIntel,52.63157895,Safari,810,1080,,,,,0,1351,,,,,,,,,,,,,,,,,H,174,hexagon,1,1,,,,,,,,,,,,,,,,repeat,number,numRpt,k,0.487,Hi,,,,,,5,,,,,,,,low,23,0,23,0,1,,,,,,,,,
296227,2022-09-21_16h34.58.372,vts_reward_expectancy,2022.2.4,MacIntel,52.63157895,Safari,810,1080,,,,,0,1351,,,,,,,,,,,,,,,,,S,139,hexagon,1,0,,,,,,,,,,,,,,,,switch,letter,lettSwt,f,0.505,Hi,,,,,,5,,,,,,,,low,24,0,24,0,1,,,,,,,,,
296227,2022-09-21_16h34.58.372,vts_reward_expectancy,2022.2.4,MacIntel,52.63157895,Safari,810,1080,,,,,0,1351,,,,,,,,,,,,,,,,,U,160,triangle,0,0,,,,,,,,,,,,,,,,repeat,letter,NA,d,0.605,Hi,,,,,,5,,,,,,,,low,25,0,25,0,1,,,,,,,,,
296227,2022-09-21_16h34.58.372,vts_reward_expectancy,2022.2.4,MacIntel,52.63157895,Safari,810,1080,,,,,10,1361,,,,,,,,,,,,,,,,,W,125,triangle,1,1,,,,,,,,,,,,,,,,repeat,letter,lettRpt,f,0.406,Lo,,,,,,5,,,,,,,,low,26,0,26,0,1,,,,,,,,,
296227,2022-09-21_16h34.58.372,vts_reward_expectancy,2022.2.4,MacIntel,52.63157895,Safari,810,1080,,,,,0,1361,,,,,,,,,,,,,,,,,Y,167,hexagon,1,0,,,,,,,,,,,,,,,,switch,number,numSwt,k,0.557,Hi,,,,,,5,,,,,,,,low,27,0,27,0,1,,,,,,,,,
296227,2022-09-21_16h34.58.372,vts_reward_expectancy,2022.2.4,MacIntel,52.63157895,Safari,810,1080,,,,,0,1361,,,,,,,,,,,,,,,,,H,174,hexagon,1,0,,,,,,,,,,,,,,,,repeat,number,numRpt,k,0.454,Hi,,,,,,5,,,,,,,,low,28,0,28,0,1,,,,,,,,,
296227,2022-09-21_16h34.58.372,vts_reward_expectancy,2022.2.4,MacIntel,52.63157895,Safari,810,1080,,,,,10,1371,,,,,,,,,,,,,,,,,D,132,triangle,1,0,,,,,,,,,,,,,,,,repeat,number,numRpt,j,0.487,Lo,,,,,,5,,,,,,,,low,29,0,29,0,1,,,,,,,,,
296227,2022-09-21_16h34.58.372,vts_reward_expectancy,2022.2.4,MacIntel,52.63157895,Safari,810,1080,,,,,0,1371,,,,,,,,,,,,,,,,,B,181,hexagon,1,0,,,,,,,,,,,,,,,,repeat,number,numRpt,k,0.501,Hi,,,,,,5,,,,,,,,low,30,0,30,0,1,,,,,,,,,
296227,2022-09-21_16h34.58.372,vts_reward_expectancy,2022.2.4,MacIntel,52.63157895,Safari,810,1080,,,,,0,1371,,,,,,,,,,,,,,,,,F,146,triangle,0,0,,,,,,,,,,,,,,,,switch,letter,NA,f,0.5,Hi,,,,,,5,,,,,,,,low,31,0,31,0,1,,,,,,,,,
296227,2022-09-21_16h34.58.372,vts_reward_expectancy,2022.2.4,MacIntel,52.63157895,Safari,810,1080,,,,,,,,,,,,,,,,,,,,,,,,,,,,,,,,,,,,,,,,,,,,,,,,,,,,,,6,,,,,,,,,,,,,,"I was asked to choose shapes, determine if letters were either closer to the end of the alphabet or the beginning, and finally choose if numbers were greater or less than 153. ",1,,4,1,,2,810,1080
