participant,date,expName,psychopyVersion,OS,frameRate,browser,xResolution,yResolution,key_resp.keys,key_resp.rt,training_resp.keys,training_resp.rt,points_trial,points_cumul,trainBlock,training.thisRepN,training.thisTrialN,training.thisN,training.thisIndex,training.ran,LTriangleOpac,LCircleOpac,LHexagonOpac,LStarOpac,RTriangleOpac,RCircleOpac,RHexagonOpac,RStarOpac,LShape_ID,RShape_ID,curr_topStim,curr_bottStim,curr_shape,acc,E1,target_resp_prac1.keys,target_resp_prac1.rt,pracBlock,task1_prac_trials.thisRepN,task1_prac_trials.thisTrialN,task1_prac_trials.thisN,task1_prac_trials.thisIndex,task1_prac_trials.ran,target_resp_prac2.keys,target_resp_prac2.rt,task2_praac_trials.thisRepN,task2_praac_trials.thisTrialN,task2_praac_trials.thisN,task2_praac_trials.thisIndex,task2_praac_trials.ran,alt,task,condition,target_resp.keys,target_resp.rt,rewCond,vts_practice_trials.thisRepN,vts_practice_trials.thisTrialN,vts_practice_trials.thisN,vts_practice_trials.thisIndex,vts_practice_trials.ran,blockNum,trials_norew.thisRepN,trials_norew.thisTrialN,trials_norew.thisN,trials_norew.thisIndex,trials_norew.ran,key_resp_2.keys,key_resp_2.rt,rewExpect,trials_rew.thisRepN,trials_rew.thisTrialN,trials_rew.thisN,trials_rew.thisIndex,trials_rew.ran,Q1,Q2,Q2_text,Q3,Q4,Q5_text,Q5,xRes,yRes
294766,2022-10-03_15h28.09.258,vts_reward_expectancy,2022.2.4,MacIntel,120.0048002,Chrome,1512,982,,,,,,,,,,,,,,,,,,,,,,,,,,,,,,,,,,,,,,,,,,,,,,,,,,,,,,,,,,,,,,,,,,,,,,,,,,,,
294766,2022-10-03_15h28.09.258,vts_reward_expectancy,2022.2.4,MacIntel,120.0048002,Chrome,1512,982,space,6.0905,,,,,,,,,,,,,,,,,,,,,,,,,,,,,,,,,,,,,,,,,,,,,,,,,,,,,,,,,,,,,,,,,,,,,,,,,,
294766,2022-10-03_15h28.09.258,vts_reward_expectancy,2022.2.4,MacIntel,120.0048002,Chrome,1512,982,,,,,,,,,,,,,,,,,,,,,,,,,,,,,,,,,,,,,,,,,,,,,,,,,,,,,,,,,,,,,,,,,,,,,,,,,,,,
294766,2022-10-03_15h28.09.258,vts_reward_expectancy,2022.2.4,MacIntel,120.0048002,Chrome,1512,982,,,a,1.0915,10,10,0,0,0,0,0,1,1,0,0,0,0,1,0,0,triangle,circle,,,,,,,,,,,,,,,,,,,,,,,,,,,,,,,,,,,,,,,,,,,,,,,,,,,,,,
294766,2022-10-03_15h28.09.258,vts_reward_expectancy,2022.2.4,MacIntel,120.0048002,Chrome,1512,982,,,a,1.2499,10,20,0,0,1,1,10,1,0,0,0,1,0,1,0,0,star ,circle,,,,,,,,,,,,,,,,,,,,,,,,,,,,,,,,,,,,,,,,,,,,,,,,,,,,,,
294766,2022-10-03_15h28.09.258,vts_reward_expectancy,2022.2.4,MacIntel,120.0048002,Chrome,1512,982,,,l,1.7465,10,30,0,0,2,2,11,1,0,0,0,1,0,0,1,0,star,hexagon,,,,,,,,,,,,,,,,,,,,,,,,,,,,,,,,,,,,,,,,,,,,,,,,,,,,,,
294766,2022-10-03_15h28.09.258,vts_reward_expectancy,2022.2.4,MacIntel,120.0048002,Chrome,1512,982,,,a,2.8644,1,31,0,0,3,3,8,1,0,0,1,0,0,0,0,1,hexagon,star,,,,,,,,,,,,,,,,,,,,,,,,,,,,,,,,,,,,,,,,,,,,,,,,,,,,,,
294766,2022-10-03_15h28.09.258,vts_reward_expectancy,2022.2.4,MacIntel,120.0048002,Chrome,1512,982,,,l,1.9186,1,32,0,0,4,4,6,1,0,0,1,0,1,0,0,0,hexagon,triangle,,,,,,,,,,,,,,,,,,,,,,,,,,,,,,,,,,,,,,,,,,,,,,,,,,,,,,
294766,2022-10-03_15h28.09.258,vts_reward_expectancy,2022.2.4,MacIntel,120.0048002,Chrome,1512,982,,,l,1.363,1,33,0,0,5,5,2,1,1,0,0,0,0,0,0,1,triangle,star,,,,,,,,,,,,,,,,,,,,,,,,,,,,,,,,,,,,,,,,,,,,,,,,,,,,,,
294766,2022-10-03_15h28.09.258,vts_reward_expectancy,2022.2.4,MacIntel,120.0048002,Chrome,1512,982,,,a,1.2417,10,43,0,0,6,6,1,1,1,0,0,0,0,0,1,0,triangle,hexagon,,,,,,,,,,,,,,,,,,,,,,,,,,,,,,,,,,,,,,,,,,,,,,,,,,,,,,
294766,2022-10-03_15h28.09.258,vts_reward_expectancy,2022.2.4,MacIntel,120.0048002,Chrome,1512,982,,,a,1.2088,1,44,0,0,7,7,7,1,0,0,1,0,0,1,0,0,hexagon,circle,,,,,,,,,,,,,,,,,,,,,,,,,,,,,,,,,,,,,,,,,,,,,,,,,,,,,,
294766,2022-10-03_15h28.09.258,vts_reward_expectancy,2022.2.4,MacIntel,120.0048002,Chrome,1512,982,,,l,1.4222,10,54,0,0,8,8,3,1,0,1,0,0,1,0,0,0,circle,triangle,,,,,,,,,,,,,,,,,,,,,,,,,,,,,,,,,,,,,,,,,,,,,,,,,,,,,,
294766,2022-10-03_15h28.09.258,vts_reward_expectancy,2022.2.4,MacIntel,120.0048002,Chrome,1512,982,,,l,2.6329,10,64,0,0,9,9,4,1,0,1,0,0,0,0,1,0,circle,hexagon,,,,,,,,,,,,,,,,,,,,,,,,,,,,,,,,,,,,,,,,,,,,,,,,,,,,,,
294766,2022-10-03_15h28.09.258,vts_reward_expectancy,2022.2.4,MacIntel,120.0048002,Chrome,1512,982,,,a,1.1926,1,65,0,0,10,10,5,1,0,1,0,0,0,0,0,1,circle,star,,,,,,,,,,,,,,,,,,,,,,,,,,,,,,,,,,,,,,,,,,,,,,,,,,,,,,
294766,2022-10-03_15h28.09.258,vts_reward_expectancy,2022.2.4,MacIntel,120.0048002,Chrome,1512,982,,,a,0.6717,1,66,0,0,11,11,9,1,0,0,0,1,1,0,0,0,star,triangle,,,,,,,,,,,,,,,,,,,,,,,,,,,,,,,,,,,,,,,,,,,,,,,,,,,,,,
294766,2022-10-03_15h28.09.258,vts_reward_expectancy,2022.2.4,MacIntel,120.0048002,Chrome,1512,982,,,a,1.5152,1,67,0,1,0,12,3,1,0,1,0,0,1,0,0,0,circle,triangle,,,,,,,,,,,,,,,,,,,,,,,,,,,,,,,,,,,,,,,,,,,,,,,,,,,,,,
294766,2022-10-03_15h28.09.258,vts_reward_expectancy,2022.2.4,MacIntel,120.0048002,Chrome,1512,982,,,l,0.6045,10,77,0,1,1,13,6,1,0,0,1,0,1,0,0,0,hexagon,triangle,,,,,,,,,,,,,,,,,,,,,,,,,,,,,,,,,,,,,,,,,,,,,,,,,,,,,,
294766,2022-10-03_15h28.09.258,vts_reward_expectancy,2022.2.4,MacIntel,120.0048002,Chrome,1512,982,,,l,1.2486,10,87,0,1,2,14,8,1,0,0,1,0,0,0,0,1,hexagon,star,,,,,,,,,,,,,,,,,,,,,,,,,,,,,,,,,,,,,,,,,,,,,,,,,,,,,,
294766,2022-10-03_15h28.09.258,vts_reward_expectancy,2022.2.4,MacIntel,120.0048002,Chrome,1512,982,,,a,1.7023,10,97,0,1,3,15,0,1,1,0,0,0,0,1,0,0,triangle,circle,,,,,,,,,,,,,,,,,,,,,,,,,,,,,,,,,,,,,,,,,,,,,,,,,,,,,,
294766,2022-10-03_15h28.09.258,vts_reward_expectancy,2022.2.4,MacIntel,120.0048002,Chrome,1512,982,,,l,2.2651,1,98,0,1,4,16,4,1,0,1,0,0,0,0,1,0,circle,hexagon,,,,,,,,,,,,,,,,,,,,,,,,,,,,,,,,,,,,,,,,,,,,,,,,,,,,,,
294766,2022-10-03_15h28.09.258,vts_reward_expectancy,2022.2.4,MacIntel,120.0048002,Chrome,1512,982,,,a,0.9752,1,99,0,1,5,17,9,1,0,0,0,1,1,0,0,0,star,triangle,,,,,,,,,,,,,,,,,,,,,,,,,,,,,,,,,,,,,,,,,,,,,,,,,,,,,,
294766,2022-10-03_15h28.09.258,vts_reward_expectancy,2022.2.4,MacIntel,120.0048002,Chrome,1512,982,,,a,1.3587,10,109,0,1,6,18,11,1,0,0,0,1,0,0,1,0,star,hexagon,,,,,,,,,,,,,,,,,,,,,,,,,,,,,,,,,,,,,,,,,,,,,,,,,,,,,,
294766,2022-10-03_15h28.09.258,vts_reward_expectancy,2022.2.4,MacIntel,120.0048002,Chrome,1512,982,,,l,0.9315,10,119,0,1,7,19,7,1,0,0,1,0,0,1,0,0,hexagon,circle,,,,,,,,,,,,,,,,,,,,,,,,,,,,,,,,,,,,,,,,,,,,,,,,,,,,,,
294766,2022-10-03_15h28.09.258,vts_reward_expectancy,2022.2.4,MacIntel,120.0048002,Chrome,1512,982,,,a,2.2982,10,129,0,1,8,20,2,1,1,0,0,0,0,0,0,1,triangle,star,,,,,,,,,,,,,,,,,,,,,,,,,,,,,,,,,,,,,,,,,,,,,,,,,,,,,,
294766,2022-10-03_15h28.09.258,vts_reward_expectancy,2022.2.4,MacIntel,120.0048002,Chrome,1512,982,,,l,1.5989,10,139,0,1,9,21,5,1,0,1,0,0,0,0,0,1,circle,star,,,,,,,,,,,,,,,,,,,,,,,,,,,,,,,,,,,,,,,,,,,,,,,,,,,,,,
294766,2022-10-03_15h28.09.258,vts_reward_expectancy,2022.2.4,MacIntel,120.0048002,Chrome,1512,982,,,l,1.9845,1,140,0,1,10,22,10,1,0,0,0,1,0,1,0,0,star ,circle,,,,,,,,,,,,,,,,,,,,,,,,,,,,,,,,,,,,,,,,,,,,,,,,,,,,,,
294766,2022-10-03_15h28.09.258,vts_reward_expectancy,2022.2.4,MacIntel,120.0048002,Chrome,1512,982,,,l,2.6881,10,150,0,1,11,23,1,1,1,0,0,0,0,0,1,0,triangle,hexagon,,,,,,,,,,,,,,,,,,,,,,,,,,,,,,,,,,,,,,,,,,,,,,,,,,,,,,
294766,2022-10-03_15h28.09.258,vts_reward_expectancy,2022.2.4,MacIntel,120.0048002,Chrome,1512,982,,,l,1.0136,1,151,0,2,0,24,5,1,0,1,0,0,0,0,0,1,circle,star,,,,,,,,,,,,,,,,,,,,,,,,,,,,,,,,,,,,,,,,,,,,,,,,,,,,,,
294766,2022-10-03_15h28.09.258,vts_reward_expectancy,2022.2.4,MacIntel,120.0048002,Chrome,1512,982,,,a,2.4268,1,152,0,2,1,25,1,1,1,0,0,0,0,0,1,0,triangle,hexagon,,,,,,,,,,,,,,,,,,,,,,,,,,,,,,,,,,,,,,,,,,,,,,,,,,,,,,
294766,2022-10-03_15h28.09.258,vts_reward_expectancy,2022.2.4,MacIntel,120.0048002,Chrome,1512,982,,,a,1.0646,1,153,0,2,2,26,10,1,0,0,0,1,0,1,0,0,star ,circle,,,,,,,,,,,,,,,,,,,,,,,,,,,,,,,,,,,,,,,,,,,,,,,,,,,,,,
294766,2022-10-03_15h28.09.258,vts_reward_expectancy,2022.2.4,MacIntel,120.0048002,Chrome,1512,982,,,l,0.7673,1,154,0,2,3,27,7,1,0,0,1,0,0,1,0,0,hexagon,circle,,,,,,,,,,,,,,,,,,,,,,,,,,,,,,,,,,,,,,,,,,,,,,,,,,,,,,
294766,2022-10-03_15h28.09.258,vts_reward_expectancy,2022.2.4,MacIntel,120.0048002,Chrome,1512,982,,,l,1.3833,10,164,0,2,4,28,9,1,0,0,0,1,1,0,0,0,star,triangle,,,,,,,,,,,,,,,,,,,,,,,,,,,,,,,,,,,,,,,,,,,,,,,,,,,,,,
294766,2022-10-03_15h28.09.258,vts_reward_expectancy,2022.2.4,MacIntel,120.0048002,Chrome,1512,982,,,l,1.2392,10,174,0,2,5,29,4,1,0,1,0,0,0,0,1,0,circle,hexagon,,,,,,,,,,,,,,,,,,,,,,,,,,,,,,,,,,,,,,,,,,,,,,,,,,,,,,
294766,2022-10-03_15h28.09.258,vts_reward_expectancy,2022.2.4,MacIntel,120.0048002,Chrome,1512,982,,,a,0.5676,1,175,0,2,6,30,3,1,0,1,0,0,1,0,0,0,circle,triangle,,,,,,,,,,,,,,,,,,,,,,,,,,,,,,,,,,,,,,,,,,,,,,,,,,,,,,
294766,2022-10-03_15h28.09.258,vts_reward_expectancy,2022.2.4,MacIntel,120.0048002,Chrome,1512,982,,,l,0.8899,10,185,0,2,7,31,6,1,0,0,1,0,1,0,0,0,hexagon,triangle,,,,,,,,,,,,,,,,,,,,,,,,,,,,,,,,,,,,,,,,,,,,,,,,,,,,,,
294766,2022-10-03_15h28.09.258,vts_reward_expectancy,2022.2.4,MacIntel,120.0048002,Chrome,1512,982,,,l,0.9078,10,195,0,2,8,32,8,1,0,0,1,0,0,0,0,1,hexagon,star,,,,,,,,,,,,,,,,,,,,,,,,,,,,,,,,,,,,,,,,,,,,,,,,,,,,,,
294766,2022-10-03_15h28.09.258,vts_reward_expectancy,2022.2.4,MacIntel,120.0048002,Chrome,1512,982,,,l,0.7468,1,196,0,2,9,33,2,1,1,0,0,0,0,0,0,1,triangle,star,,,,,,,,,,,,,,,,,,,,,,,,,,,,,,,,,,,,,,,,,,,,,,,,,,,,,,
294766,2022-10-03_15h28.09.258,vts_reward_expectancy,2022.2.4,MacIntel,120.0048002,Chrome,1512,982,,,a,0.8832,1,197,0,2,10,34,0,1,1,0,0,0,0,1,0,0,triangle,circle,,,,,,,,,,,,,,,,,,,,,,,,,,,,,,,,,,,,,,,,,,,,,,,,,,,,,,
294766,2022-10-03_15h28.09.258,vts_reward_expectancy,2022.2.4,MacIntel,120.0048002,Chrome,1512,982,,,l,0.8676,1,198,0,2,11,35,11,1,0,0,0,1,0,0,1,0,star,hexagon,,,,,,,,,,,,,,,,,,,,,,,,,,,,,,,,,,,,,,,,,,,,,,,,,,,,,,
294766,2022-10-03_15h28.09.258,vts_reward_expectancy,2022.2.4,MacIntel,120.0048002,Chrome,1512,982,,,l,1.0201,10,208,1,0,0,0,9,1,0,0,0,1,1,0,0,0,star,triangle,,,,,,,,,,,,,,,,,,,,,,,,,,,,,,,,,,,,,,,,,,,,,,,,,,,,,,
294766,2022-10-03_15h28.09.258,vts_reward_expectancy,2022.2.4,MacIntel,120.0048002,Chrome,1512,982,,,a,0.4101,1,209,1,0,1,1,0,1,1,0,0,0,0,1,0,0,triangle,circle,,,,,,,,,,,,,,,,,,,,,,,,,,,,,,,,,,,,,,,,,,,,,,,,,,,,,,
294766,2022-10-03_15h28.09.258,vts_reward_expectancy,2022.2.4,MacIntel,120.0048002,Chrome,1512,982,,,l,0.3629,1,210,1,0,2,2,6,1,0,0,1,0,1,0,0,0,hexagon,triangle,,,,,,,,,,,,,,,,,,,,,,,,,,,,,,,,,,,,,,,,,,,,,,,,,,,,,,
294766,2022-10-03_15h28.09.258,vts_reward_expectancy,2022.2.4,MacIntel,120.0048002,Chrome,1512,982,,,a,0.1587,10,220,1,0,3,3,1,1,1,0,0,0,0,0,1,0,triangle,hexagon,,,,,,,,,,,,,,,,,,,,,,,,,,,,,,,,,,,,,,,,,,,,,,,,,,,,,,
294766,2022-10-03_15h28.09.258,vts_reward_expectancy,2022.2.4,MacIntel,120.0048002,Chrome,1512,982,,,l,0.4513,10,230,1,0,4,4,3,1,0,1,0,0,1,0,0,0,circle,triangle,,,,,,,,,,,,,,,,,,,,,,,,,,,,,,,,,,,,,,,,,,,,,,,,,,,,,,
294766,2022-10-03_15h28.09.258,vts_reward_expectancy,2022.2.4,MacIntel,120.0048002,Chrome,1512,982,,,l,0.5637,10,240,1,0,5,5,5,1,0,1,0,0,0,0,0,1,circle,star,,,,,,,,,,,,,,,,,,,,,,,,,,,,,,,,,,,,,,,,,,,,,,,,,,,,,,
294766,2022-10-03_15h28.09.258,vts_reward_expectancy,2022.2.4,MacIntel,120.0048002,Chrome,1512,982,,,a,0.4865,10,250,1,0,6,6,11,1,0,0,0,1,0,0,1,0,star,hexagon,,,,,,,,,,,,,,,,,,,,,,,,,,,,,,,,,,,,,,,,,,,,,,,,,,,,,,
294766,2022-10-03_15h28.09.258,vts_reward_expectancy,2022.2.4,MacIntel,120.0048002,Chrome,1512,982,,,l,0.5547,1,251,1,0,7,7,4,1,0,1,0,0,0,0,1,0,circle,hexagon,,,,,,,,,,,,,,,,,,,,,,,,,,,,,,,,,,,,,,,,,,,,,,,,,,,,,,
294766,2022-10-03_15h28.09.258,vts_reward_expectancy,2022.2.4,MacIntel,120.0048002,Chrome,1512,982,,,l,0.2811,10,261,1,0,8,8,7,1,0,0,1,0,0,1,0,0,hexagon,circle,,,,,,,,,,,,,,,,,,,,,,,,,,,,,,,,,,,,,,,,,,,,,,,,,,,,,,
294766,2022-10-03_15h28.09.258,vts_reward_expectancy,2022.2.4,MacIntel,120.0048002,Chrome,1512,982,,,a,0.5417,10,271,1,0,9,9,10,1,0,0,0,1,0,1,0,0,star ,circle,,,,,,,,,,,,,,,,,,,,,,,,,,,,,,,,,,,,,,,,,,,,,,,,,,,,,,
294766,2022-10-03_15h28.09.258,vts_reward_expectancy,2022.2.4,MacIntel,120.0048002,Chrome,1512,982,,,l,1.6819,1,272,1,0,10,10,8,1,0,0,1,0,0,0,0,1,hexagon,star,,,,,,,,,,,,,,,,,,,,,,,,,,,,,,,,,,,,,,,,,,,,,,,,,,,,,,
294766,2022-10-03_15h28.09.258,vts_reward_expectancy,2022.2.4,MacIntel,120.0048002,Chrome,1512,982,,,a,0.5435,10,282,1,0,11,11,2,1,1,0,0,0,0,0,0,1,triangle,star,,,,,,,,,,,,,,,,,,,,,,,,,,,,,,,,,,,,,,,,,,,,,,,,,,,,,,
294766,2022-10-03_15h28.09.258,vts_reward_expectancy,2022.2.4,MacIntel,120.0048002,Chrome,1512,982,,,l,0.6906,10,292,1,1,0,12,0,1,1,0,0,0,0,1,0,0,triangle,circle,,,,,,,,,,,,,,,,,,,,,,,,,,,,,,,,,,,,,,,,,,,,,,,,,,,,,,
294766,2022-10-03_15h28.09.258,vts_reward_expectancy,2022.2.4,MacIntel,120.0048002,Chrome,1512,982,,,l,2.3628,1,293,1,1,1,13,8,1,0,0,1,0,0,0,0,1,hexagon,star,,,,,,,,,,,,,,,,,,,,,,,,,,,,,,,,,,,,,,,,,,,,,,,,,,,,,,
294766,2022-10-03_15h28.09.258,vts_reward_expectancy,2022.2.4,MacIntel,120.0048002,Chrome,1512,982,,,l,0.5085,1,294,1,1,2,14,4,1,0,1,0,0,0,0,1,0,circle,hexagon,,,,,,,,,,,,,,,,,,,,,,,,,,,,,,,,,,,,,,,,,,,,,,,,,,,,,,
294766,2022-10-03_15h28.09.258,vts_reward_expectancy,2022.2.4,MacIntel,120.0048002,Chrome,1512,982,,,a,0.5819,10,304,1,1,3,15,1,1,1,0,0,0,0,0,1,0,triangle,hexagon,,,,,,,,,,,,,,,,,,,,,,,,,,,,,,,,,,,,,,,,,,,,,,,,,,,,,,
294766,2022-10-03_15h28.09.258,vts_reward_expectancy,2022.2.4,MacIntel,120.0048002,Chrome,1512,982,,,a,0.943,1,305,1,1,4,16,5,1,0,1,0,0,0,0,0,1,circle,star,,,,,,,,,,,,,,,,,,,,,,,,,,,,,,,,,,,,,,,,,,,,,,,,,,,,,,
294766,2022-10-03_15h28.09.258,vts_reward_expectancy,2022.2.4,MacIntel,120.0048002,Chrome,1512,982,,,a,0.5426,1,306,1,1,5,17,3,1,0,1,0,0,1,0,0,0,circle,triangle,,,,,,,,,,,,,,,,,,,,,,,,,,,,,,,,,,,,,,,,,,,,,,,,,,,,,,
294766,2022-10-03_15h28.09.258,vts_reward_expectancy,2022.2.4,MacIntel,120.0048002,Chrome,1512,982,,,l,0.5505,10,316,1,1,6,18,6,1,0,0,1,0,1,0,0,0,hexagon,triangle,,,,,,,,,,,,,,,,,,,,,,,,,,,,,,,,,,,,,,,,,,,,,,,,,,,,,,
294766,2022-10-03_15h28.09.258,vts_reward_expectancy,2022.2.4,MacIntel,120.0048002,Chrome,1512,982,,,a,0.6754,10,326,1,1,7,19,10,1,0,0,0,1,0,1,0,0,star ,circle,,,,,,,,,,,,,,,,,,,,,,,,,,,,,,,,,,,,,,,,,,,,,,,,,,,,,,
294766,2022-10-03_15h28.09.258,vts_reward_expectancy,2022.2.4,MacIntel,120.0048002,Chrome,1512,982,,,a,0.4597,10,336,1,1,8,20,11,1,0,0,0,1,0,0,1,0,star,hexagon,,,,,,,,,,,,,,,,,,,,,,,,,,,,,,,,,,,,,,,,,,,,,,,,,,,,,,
294766,2022-10-03_15h28.09.258,vts_reward_expectancy,2022.2.4,MacIntel,120.0048002,Chrome,1512,982,,,a,0.9137,1,337,1,1,9,21,7,1,0,0,1,0,0,1,0,0,hexagon,circle,,,,,,,,,,,,,,,,,,,,,,,,,,,,,,,,,,,,,,,,,,,,,,,,,,,,,,
294766,2022-10-03_15h28.09.258,vts_reward_expectancy,2022.2.4,MacIntel,120.0048002,Chrome,1512,982,,,a,0.4337,10,347,1,1,10,22,9,1,0,0,0,1,1,0,0,0,star,triangle,,,,,,,,,,,,,,,,,,,,,,,,,,,,,,,,,,,,,,,,,,,,,,,,,,,,,,
294766,2022-10-03_15h28.09.258,vts_reward_expectancy,2022.2.4,MacIntel,120.0048002,Chrome,1512,982,,,l,0.4022,1,348,1,1,11,23,2,1,1,0,0,0,0,0,0,1,triangle,star,,,,,,,,,,,,,,,,,,,,,,,,,,,,,,,,,,,,,,,,,,,,,,,,,,,,,,
294766,2022-10-03_15h28.09.258,vts_reward_expectancy,2022.2.4,MacIntel,120.0048002,Chrome,1512,982,,,a,1.0063,1,349,1,2,0,24,0,1,1,0,0,0,0,1,0,0,triangle,circle,,,,,,,,,,,,,,,,,,,,,,,,,,,,,,,,,,,,,,,,,,,,,,,,,,,,,,
294766,2022-10-03_15h28.09.258,vts_reward_expectancy,2022.2.4,MacIntel,120.0048002,Chrome,1512,982,,,l,0.6845,10,359,1,2,1,25,6,1,0,0,1,0,1,0,0,0,hexagon,triangle,,,,,,,,,,,,,,,,,,,,,,,,,,,,,,,,,,,,,,,,,,,,,,,,,,,,,,
294766,2022-10-03_15h28.09.258,vts_reward_expectancy,2022.2.4,MacIntel,120.0048002,Chrome,1512,982,,,l,2.2246,10,369,1,2,2,26,9,1,0,0,0,1,1,0,0,0,star,triangle,,,,,,,,,,,,,,,,,,,,,,,,,,,,,,,,,,,,,,,,,,,,,,,,,,,,,,
294766,2022-10-03_15h28.09.258,vts_reward_expectancy,2022.2.4,MacIntel,120.0048002,Chrome,1512,982,,,l,1.0284,10,379,1,2,3,27,8,1,0,0,1,0,0,0,0,1,hexagon,star,,,,,,,,,,,,,,,,,,,,,,,,,,,,,,,,,,,,,,,,,,,,,,,,,,,,,,
294766,2022-10-03_15h28.09.258,vts_reward_expectancy,2022.2.4,MacIntel,120.0048002,Chrome,1512,982,,,l,1.1649,10,389,1,2,4,28,7,1,0,0,1,0,0,1,0,0,hexagon,circle,,,,,,,,,,,,,,,,,,,,,,,,,,,,,,,,,,,,,,,,,,,,,,,,,,,,,,
294766,2022-10-03_15h28.09.258,vts_reward_expectancy,2022.2.4,MacIntel,120.0048002,Chrome,1512,982,,,a,1.7071,10,399,1,2,5,29,10,1,0,0,0,1,0,1,0,0,star ,circle,,,,,,,,,,,,,,,,,,,,,,,,,,,,,,,,,,,,,,,,,,,,,,,,,,,,,,
294766,2022-10-03_15h28.09.258,vts_reward_expectancy,2022.2.4,MacIntel,120.0048002,Chrome,1512,982,,,a,0.9186,1,400,1,2,6,30,2,1,1,0,0,0,0,0,0,1,triangle,star,,,,,,,,,,,,,,,,,,,,,,,,,,,,,,,,,,,,,,,,,,,,,,,,,,,,,,
294766,2022-10-03_15h28.09.258,vts_reward_expectancy,2022.2.4,MacIntel,120.0048002,Chrome,1512,982,,,l,0.2957,1,401,1,2,7,31,11,1,0,0,0,1,0,0,1,0,star,hexagon,,,,,,,,,,,,,,,,,,,,,,,,,,,,,,,,,,,,,,,,,,,,,,,,,,,,,,
294766,2022-10-03_15h28.09.258,vts_reward_expectancy,2022.2.4,MacIntel,120.0048002,Chrome,1512,982,,,a,0.3602,10,411,1,2,8,32,1,1,1,0,0,0,0,0,1,0,triangle,hexagon,,,,,,,,,,,,,,,,,,,,,,,,,,,,,,,,,,,,,,,,,,,,,,,,,,,,,,
294766,2022-10-03_15h28.09.258,vts_reward_expectancy,2022.2.4,MacIntel,120.0048002,Chrome,1512,982,,,l,0.3752,1,412,1,2,9,33,5,1,0,1,0,0,0,0,0,1,circle,star,,,,,,,,,,,,,,,,,,,,,,,,,,,,,,,,,,,,,,,,,,,,,,,,,,,,,,
294766,2022-10-03_15h28.09.258,vts_reward_expectancy,2022.2.4,MacIntel,120.0048002,Chrome,1512,982,,,a,0.0642,10,422,1,2,10,34,4,1,0,1,0,0,0,0,1,0,circle,hexagon,,,,,,,,,,,,,,,,,,,,,,,,,,,,,,,,,,,,,,,,,,,,,,,,,,,,,,
294766,2022-10-03_15h28.09.258,vts_reward_expectancy,2022.2.4,MacIntel,120.0048002,Chrome,1512,982,,,l,0.3705,10,432,1,2,11,35,3,1,0,1,0,0,1,0,0,0,circle,triangle,,,,,,,,,,,,,,,,,,,,,,,,,,,,,,,,,,,,,,,,,,,,,,,,,,,,,,
294766,2022-10-03_15h28.09.258,vts_reward_expectancy,2022.2.4,MacIntel,120.0048002,Chrome,1512,982,,,l,0.8799,10,442,2,0,0,0,1,1,1,0,0,0,0,0,1,0,triangle,hexagon,,,,,,,,,,,,,,,,,,,,,,,,,,,,,,,,,,,,,,,,,,,,,,,,,,,,,,
294766,2022-10-03_15h28.09.258,vts_reward_expectancy,2022.2.4,MacIntel,120.0048002,Chrome,1512,982,,,a,0.4679,10,452,2,0,1,1,2,1,1,0,0,0,0,0,0,1,triangle,star,,,,,,,,,,,,,,,,,,,,,,,,,,,,,,,,,,,,,,,,,,,,,,,,,,,,,,
294766,2022-10-03_15h28.09.258,vts_reward_expectancy,2022.2.4,MacIntel,120.0048002,Chrome,1512,982,,,a,0.6252,10,462,2,0,2,2,0,1,1,0,0,0,0,1,0,0,triangle,circle,,,,,,,,,,,,,,,,,,,,,,,,,,,,,,,,,,,,,,,,,,,,,,,,,,,,,,
294766,2022-10-03_15h28.09.258,vts_reward_expectancy,2022.2.4,MacIntel,120.0048002,Chrome,1512,982,,,l,0.4335,10,472,2,0,3,3,8,1,0,0,1,0,0,0,0,1,hexagon,star,,,,,,,,,,,,,,,,,,,,,,,,,,,,,,,,,,,,,,,,,,,,,,,,,,,,,,
294766,2022-10-03_15h28.09.258,vts_reward_expectancy,2022.2.4,MacIntel,120.0048002,Chrome,1512,982,,,l,0.5421,10,482,2,0,4,4,5,1,0,1,0,0,0,0,0,1,circle,star,,,,,,,,,,,,,,,,,,,,,,,,,,,,,,,,,,,,,,,,,,,,,,,,,,,,,,
294766,2022-10-03_15h28.09.258,vts_reward_expectancy,2022.2.4,MacIntel,120.0048002,Chrome,1512,982,,,a,0.4813,1,483,2,0,5,5,11,1,0,0,0,1,0,0,1,0,star,hexagon,,,,,,,,,,,,,,,,,,,,,,,,,,,,,,,,,,,,,,,,,,,,,,,,,,,,,,
294766,2022-10-03_15h28.09.258,vts_reward_expectancy,2022.2.4,MacIntel,120.0048002,Chrome,1512,982,,,a,0.6261,10,493,2,0,6,6,7,1,0,0,1,0,0,1,0,0,hexagon,circle,,,,,,,,,,,,,,,,,,,,,,,,,,,,,,,,,,,,,,,,,,,,,,,,,,,,,,
294766,2022-10-03_15h28.09.258,vts_reward_expectancy,2022.2.4,MacIntel,120.0048002,Chrome,1512,982,,,l,0.534,10,503,2,0,7,7,3,1,0,1,0,0,1,0,0,0,circle,triangle,,,,,,,,,,,,,,,,,,,,,,,,,,,,,,,,,,,,,,,,,,,,,,,,,,,,,,
294766,2022-10-03_15h28.09.258,vts_reward_expectancy,2022.2.4,MacIntel,120.0048002,Chrome,1512,982,,,a,0.5232,1,504,2,0,8,8,9,1,0,0,0,1,1,0,0,0,star,triangle,,,,,,,,,,,,,,,,,,,,,,,,,,,,,,,,,,,,,,,,,,,,,,,,,,,,,,
294766,2022-10-03_15h28.09.258,vts_reward_expectancy,2022.2.4,MacIntel,120.0048002,Chrome,1512,982,,,l,0.6268,10,514,2,0,9,9,6,1,0,0,1,0,1,0,0,0,hexagon,triangle,,,,,,,,,,,,,,,,,,,,,,,,,,,,,,,,,,,,,,,,,,,,,,,,,,,,,,
294766,2022-10-03_15h28.09.258,vts_reward_expectancy,2022.2.4,MacIntel,120.0048002,Chrome,1512,982,,,a,0.816,10,524,2,0,10,10,4,1,0,1,0,0,0,0,1,0,circle,hexagon,,,,,,,,,,,,,,,,,,,,,,,,,,,,,,,,,,,,,,,,,,,,,,,,,,,,,,
294766,2022-10-03_15h28.09.258,vts_reward_expectancy,2022.2.4,MacIntel,120.0048002,Chrome,1512,982,,,l,1.0305,10,534,2,0,11,11,10,1,0,0,0,1,0,1,0,0,star ,circle,,,,,,,,,,,,,,,,,,,,,,,,,,,,,,,,,,,,,,,,,,,,,,,,,,,,,,
294766,2022-10-03_15h28.09.258,vts_reward_expectancy,2022.2.4,MacIntel,120.0048002,Chrome,1512,982,,,a,0.5108,10,544,2,1,0,12,10,1,0,0,0,1,0,1,0,0,star ,circle,,,,,,,,,,,,,,,,,,,,,,,,,,,,,,,,,,,,,,,,,,,,,,,,,,,,,,
294766,2022-10-03_15h28.09.258,vts_reward_expectancy,2022.2.4,MacIntel,120.0048002,Chrome,1512,982,,,a,0.7652,1,545,2,1,1,13,6,1,0,0,1,0,1,0,0,0,hexagon,triangle,,,,,,,,,,,,,,,,,,,,,,,,,,,,,,,,,,,,,,,,,,,,,,,,,,,,,,
294766,2022-10-03_15h28.09.258,vts_reward_expectancy,2022.2.4,MacIntel,120.0048002,Chrome,1512,982,,,a,0.485,10,555,2,1,2,14,9,1,0,0,0,1,1,0,0,0,star,triangle,,,,,,,,,,,,,,,,,,,,,,,,,,,,,,,,,,,,,,,,,,,,,,,,,,,,,,
294766,2022-10-03_15h28.09.258,vts_reward_expectancy,2022.2.4,MacIntel,120.0048002,Chrome,1512,982,,,l,0.7152,10,565,2,1,3,15,3,1,0,1,0,0,1,0,0,0,circle,triangle,,,,,,,,,,,,,,,,,,,,,,,,,,,,,,,,,,,,,,,,,,,,,,,,,,,,,,
294766,2022-10-03_15h28.09.258,vts_reward_expectancy,2022.2.4,MacIntel,120.0048002,Chrome,1512,982,,,l,0.9016,10,575,2,1,4,16,0,1,1,0,0,0,0,1,0,0,triangle,circle,,,,,,,,,,,,,,,,,,,,,,,,,,,,,,,,,,,,,,,,,,,,,,,,,,,,,,
294766,2022-10-03_15h28.09.258,vts_reward_expectancy,2022.2.4,MacIntel,120.0048002,Chrome,1512,982,,,l,1.0927,1,576,2,1,5,17,8,1,0,0,1,0,0,0,0,1,hexagon,star,,,,,,,,,,,,,,,,,,,,,,,,,,,,,,,,,,,,,,,,,,,,,,,,,,,,,,
294766,2022-10-03_15h28.09.258,vts_reward_expectancy,2022.2.4,MacIntel,120.0048002,Chrome,1512,982,,,l,0.6209,10,586,2,1,6,18,2,1,1,0,0,0,0,0,0,1,triangle,star,,,,,,,,,,,,,,,,,,,,,,,,,,,,,,,,,,,,,,,,,,,,,,,,,,,,,,
294766,2022-10-03_15h28.09.258,vts_reward_expectancy,2022.2.4,MacIntel,120.0048002,Chrome,1512,982,,,l,1.289,1,587,2,1,7,19,11,1,0,0,0,1,0,0,1,0,star,hexagon,,,,,,,,,,,,,,,,,,,,,,,,,,,,,,,,,,,,,,,,,,,,,,,,,,,,,,
294766,2022-10-03_15h28.09.258,vts_reward_expectancy,2022.2.4,MacIntel,120.0048002,Chrome,1512,982,,,a,0.5862,1,588,2,1,8,20,7,1,0,0,1,0,0,1,0,0,hexagon,circle,,,,,,,,,,,,,,,,,,,,,,,,,,,,,,,,,,,,,,,,,,,,,,,,,,,,,,
294766,2022-10-03_15h28.09.258,vts_reward_expectancy,2022.2.4,MacIntel,120.0048002,Chrome,1512,982,,,l,0.5267,10,598,2,1,9,21,5,1,0,1,0,0,0,0,0,1,circle,star,,,,,,,,,,,,,,,,,,,,,,,,,,,,,,,,,,,,,,,,,,,,,,,,,,,,,,
294766,2022-10-03_15h28.09.258,vts_reward_expectancy,2022.2.4,MacIntel,120.0048002,Chrome,1512,982,,,l,0.7331,10,608,2,1,10,22,4,1,0,1,0,0,0,0,1,0,circle,hexagon,,,,,,,,,,,,,,,,,,,,,,,,,,,,,,,,,,,,,,,,,,,,,,,,,,,,,,
294766,2022-10-03_15h28.09.258,vts_reward_expectancy,2022.2.4,MacIntel,120.0048002,Chrome,1512,982,,,a,0.6318,10,618,2,1,11,23,1,1,1,0,0,0,0,0,1,0,triangle,hexagon,,,,,,,,,,,,,,,,,,,,,,,,,,,,,,,,,,,,,,,,,,,,,,,,,,,,,,
294766,2022-10-03_15h28.09.258,vts_reward_expectancy,2022.2.4,MacIntel,120.0048002,Chrome,1512,982,,,a,0.5524,1,619,2,2,0,24,11,1,0,0,0,1,0,0,1,0,star,hexagon,,,,,,,,,,,,,,,,,,,,,,,,,,,,,,,,,,,,,,,,,,,,,,,,,,,,,,
294766,2022-10-03_15h28.09.258,vts_reward_expectancy,2022.2.4,MacIntel,120.0048002,Chrome,1512,982,,,a,0.492,1,620,2,2,1,25,10,1,0,0,0,1,0,1,0,0,star ,circle,,,,,,,,,,,,,,,,,,,,,,,,,,,,,,,,,,,,,,,,,,,,,,,,,,,,,,
294766,2022-10-03_15h28.09.258,vts_reward_expectancy,2022.2.4,MacIntel,120.0048002,Chrome,1512,982,,,a,0.9929,1,621,2,2,2,26,9,1,0,0,0,1,1,0,0,0,star,triangle,,,,,,,,,,,,,,,,,,,,,,,,,,,,,,,,,,,,,,,,,,,,,,,,,,,,,,
294766,2022-10-03_15h28.09.258,vts_reward_expectancy,2022.2.4,MacIntel,120.0048002,Chrome,1512,982,,,l,2.0094,10,631,2,2,3,27,2,1,1,0,0,0,0,0,0,1,triangle,star,,,,,,,,,,,,,,,,,,,,,,,,,,,,,,,,,,,,,,,,,,,,,,,,,,,,,,
294766,2022-10-03_15h28.09.258,vts_reward_expectancy,2022.2.4,MacIntel,120.0048002,Chrome,1512,982,,,l,0.656,1,632,2,2,4,28,5,1,0,1,0,0,0,0,0,1,circle,star,,,,,,,,,,,,,,,,,,,,,,,,,,,,,,,,,,,,,,,,,,,,,,,,,,,,,,
294766,2022-10-03_15h28.09.258,vts_reward_expectancy,2022.2.4,MacIntel,120.0048002,Chrome,1512,982,,,l,1.1921,10,642,2,2,5,29,7,1,0,0,1,0,0,1,0,0,hexagon,circle,,,,,,,,,,,,,,,,,,,,,,,,,,,,,,,,,,,,,,,,,,,,,,,,,,,,,,
294766,2022-10-03_15h28.09.258,vts_reward_expectancy,2022.2.4,MacIntel,120.0048002,Chrome,1512,982,,,a,0.5675,1,643,2,2,6,30,4,1,0,1,0,0,0,0,1,0,circle,hexagon,,,,,,,,,,,,,,,,,,,,,,,,,,,,,,,,,,,,,,,,,,,,,,,,,,,,,,
294766,2022-10-03_15h28.09.258,vts_reward_expectancy,2022.2.4,MacIntel,120.0048002,Chrome,1512,982,,,a,0.4559,10,653,2,2,7,31,1,1,1,0,0,0,0,0,1,0,triangle,hexagon,,,,,,,,,,,,,,,,,,,,,,,,,,,,,,,,,,,,,,,,,,,,,,,,,,,,,,
294766,2022-10-03_15h28.09.258,vts_reward_expectancy,2022.2.4,MacIntel,120.0048002,Chrome,1512,982,,,l,0.454,1,654,2,2,8,32,6,1,0,0,1,0,1,0,0,0,hexagon,triangle,,,,,,,,,,,,,,,,,,,,,,,,,,,,,,,,,,,,,,,,,,,,,,,,,,,,,,
294766,2022-10-03_15h28.09.258,vts_reward_expectancy,2022.2.4,MacIntel,120.0048002,Chrome,1512,982,,,a,0.2512,1,655,2,2,9,33,8,1,0,0,1,0,0,0,0,1,hexagon,star,,,,,,,,,,,,,,,,,,,,,,,,,,,,,,,,,,,,,,,,,,,,,,,,,,,,,,
294766,2022-10-03_15h28.09.258,vts_reward_expectancy,2022.2.4,MacIntel,120.0048002,Chrome,1512,982,,,l,0.2311,10,665,2,2,10,34,3,1,0,1,0,0,1,0,0,0,circle,triangle,,,,,,,,,,,,,,,,,,,,,,,,,,,,,,,,,,,,,,,,,,,,,,,,,,,,,,
294766,2022-10-03_15h28.09.258,vts_reward_expectancy,2022.2.4,MacIntel,120.0048002,Chrome,1512,982,,,a,0.2428,10,675,2,2,11,35,0,1,1,0,0,0,0,1,0,0,triangle,circle,,,,,,,,,,,,,,,,,,,,,,,,,,,,,,,,,,,,,,,,,,,,,,,,,,,,,,
294766,2022-10-03_15h28.09.258,vts_reward_expectancy,2022.2.4,MacIntel,120.0048002,Chrome,1512,982,,,,,,,,,,,,,,,,,,,,,,,174,Y,star,0,0,d,2.4948,0,0,0,0,0,1,,,,,,,,,,,,,,,,,,,,,,,,,,,,,,,,,,,,,,,,,
294766,2022-10-03_15h28.09.258,vts_reward_expectancy,2022.2.4,MacIntel,120.0048002,Chrome,1512,982,,,,,,,,,,,,,,,,,,,,,,,181,H,hexagon,1,1,f,1.9232,0,1,0,1,0,1,,,,,,,,,,,,,,,,,,,,,,,,,,,,,,,,,,,,,,,,,
294766,2022-10-03_15h28.09.258,vts_reward_expectancy,2022.2.4,MacIntel,120.0048002,Chrome,1512,982,,,,,,,,,,,,,,,,,,,,,,,146,W,circle,0,0,,,0,2,0,2,0,1,,,,,,,,,,,,,,,,,,,,,,,,,,,,,,,,,,,,,,,,,
294766,2022-10-03_15h28.09.258,vts_reward_expectancy,2022.2.4,MacIntel,120.0048002,Chrome,1512,982,,,,,,,,,,,,,,,,,,,,,,,167,S,triangle,0,1,d,0.7427,0,3,0,3,0,1,,,,,,,,,,,,,,,,,,,,,,,,,,,,,,,,,,,,,,,,,
294766,2022-10-03_15h28.09.258,vts_reward_expectancy,2022.2.4,MacIntel,120.0048002,Chrome,1512,982,,,,,,,,,,,,,,,,,,,,,,,160,U,star,1,1,f,0.7892,0,4,0,4,0,1,,,,,,,,,,,,,,,,,,,,,,,,,,,,,,,,,,,,,,,,,
294766,2022-10-03_15h28.09.258,vts_reward_expectancy,2022.2.4,MacIntel,120.0048002,Chrome,1512,982,,,,,,,,,,,,,,,,,,,,,,,132,B,hexagon,0,0,f,0.7048,0,5,0,5,0,1,,,,,,,,,,,,,,,,,,,,,,,,,,,,,,,,,,,,,,,,,
294766,2022-10-03_15h28.09.258,vts_reward_expectancy,2022.2.4,MacIntel,120.0048002,Chrome,1512,982,,,,,,,,,,,,,,,,,,,,,,,139,D,circle,1,1,d,0.9379,0,6,0,6,0,1,,,,,,,,,,,,,,,,,,,,,,,,,,,,,,,,,,,,,,,,,
294766,2022-10-03_15h28.09.258,vts_reward_expectancy,2022.2.4,MacIntel,120.0048002,Chrome,1512,982,,,,,,,,,,,,,,,,,,,,,,,125,F,triangle,0,0,f,1.0077,0,7,0,7,0,1,,,,,,,,,,,,,,,,,,,,,,,,,,,,,,,,,,,,,,,,,
294766,2022-10-03_15h28.09.258,vts_reward_expectancy,2022.2.4,MacIntel,120.0048002,Chrome,1512,982,,,,,,,,,,,,,,,,,,,,,,,174,Y,hexagon,0,1,d,0.2764,0,8,0,8,0,1,,,,,,,,,,,,,,,,,,,,,,,,,,,,,,,,,,,,,,,,,
294766,2022-10-03_15h28.09.258,vts_reward_expectancy,2022.2.4,MacIntel,120.0048002,Chrome,1512,982,,,,,,,,,,,,,,,,,,,,,,,181,H,circle,1,1,f,0.4768,0,9,0,9,0,1,,,,,,,,,,,,,,,,,,,,,,,,,,,,,,,,,,,,,,,,,
294766,2022-10-03_15h28.09.258,vts_reward_expectancy,2022.2.4,MacIntel,120.0048002,Chrome,1512,982,,,,,,,,,,,,,,,,,,,,,,,132,W,star,0,0,f,1.063,1,0,0,0,0,1,,,,,,,,,,,,,,,,,,,,,,,,,,,,,,,,,,,,,,,,,
294766,2022-10-03_15h28.09.258,vts_reward_expectancy,2022.2.4,MacIntel,120.0048002,Chrome,1512,982,,,,,,,,,,,,,,,,,,,,,,,125,U,hexagon,0,1,f,1.1362,1,1,0,1,0,1,,,,,,,,,,,,,,,,,,,,,,,,,,,,,,,,,,,,,,,,,
294766,2022-10-03_15h28.09.258,vts_reward_expectancy,2022.2.4,MacIntel,120.0048002,Chrome,1512,982,,,,,,,,,,,,,,,,,,,,,,,167,S,triangle,0,1,d,1.9036,1,2,0,2,0,1,,,,,,,,,,,,,,,,,,,,,,,,,,,,,,,,,,,,,,,,,
294766,2022-10-03_15h28.09.258,vts_reward_expectancy,2022.2.4,MacIntel,120.0048002,Chrome,1512,982,,,,,,,,,,,,,,,,,,,,,,,146,B,circle,1,1,d,0.8145,1,3,0,3,0,1,,,,,,,,,,,,,,,,,,,,,,,,,,,,,,,,,,,,,,,,,
294766,2022-10-03_15h28.09.258,vts_reward_expectancy,2022.2.4,MacIntel,120.0048002,Chrome,1512,982,,,,,,,,,,,,,,,,,,,,,,,139,F,star,1,0,d,0.6402,1,4,0,4,0,1,,,,,,,,,,,,,,,,,,,,,,,,,,,,,,,,,,,,,,,,,
294766,2022-10-03_15h28.09.258,vts_reward_expectancy,2022.2.4,MacIntel,120.0048002,Chrome,1512,982,,,,,,,,,,,,,,,,,,,,,,,160,Y,hexagon,1,0,f,0.8058,1,5,0,5,0,1,,,,,,,,,,,,,,,,,,,,,,,,,,,,,,,,,,,,,,,,,
294766,2022-10-03_15h28.09.258,vts_reward_expectancy,2022.2.4,MacIntel,120.0048002,Chrome,1512,982,,,,,,,,,,,,,,,,,,,,,,,181,H,triangle,0,0,d,0.7447,1,6,0,6,0,1,,,,,,,,,,,,,,,,,,,,,,,,,,,,,,,,,,,,,,,,,
294766,2022-10-03_15h28.09.258,vts_reward_expectancy,2022.2.4,MacIntel,120.0048002,Chrome,1512,982,,,,,,,,,,,,,,,,,,,,,,,174,D,circle,0,1,d,1.3059,1,7,0,7,0,1,,,,,,,,,,,,,,,,,,,,,,,,,,,,,,,,,,,,,,,,,
294766,2022-10-03_15h28.09.258,vts_reward_expectancy,2022.2.4,MacIntel,120.0048002,Chrome,1512,982,,,,,,,,,,,,,,,,,,,,,,,132,W,circle,0,1,f,2.4121,1,8,0,8,0,1,,,,,,,,,,,,,,,,,,,,,,,,,,,,,,,,,,,,,,,,,
294766,2022-10-03_15h28.09.258,vts_reward_expectancy,2022.2.4,MacIntel,120.0048002,Chrome,1512,982,,,,,,,,,,,,,,,,,,,,,,,125,U,hexagon,1,1,d,2.7695,1,9,0,9,0,1,,,,,,,,,,,,,,,,,,,,,,,,,,,,,,,,,,,,,,,,,
294766,2022-10-03_15h28.09.258,vts_reward_expectancy,2022.2.4,MacIntel,120.0048002,Chrome,1512,982,,,,,,,,,,,,,,,,,,,,,,,174,U,hexagon,1,0,f,1.6501,2,0,0,0,0,1,,,,,,,,,,,,,,,,,,,,,,,,,,,,,,,,,,,,,,,,,
294766,2022-10-03_15h28.09.258,vts_reward_expectancy,2022.2.4,MacIntel,120.0048002,Chrome,1512,982,,,,,,,,,,,,,,,,,,,,,,,160,H,circle,0,0,d,1.8619,2,1,0,1,0,1,,,,,,,,,,,,,,,,,,,,,,,,,,,,,,,,,,,,,,,,,
294766,2022-10-03_15h28.09.258,vts_reward_expectancy,2022.2.4,MacIntel,120.0048002,Chrome,1512,982,,,,,,,,,,,,,,,,,,,,,,,146,Y,triangle,1,1,d,1.3782,2,2,0,2,0,1,,,,,,,,,,,,,,,,,,,,,,,,,,,,,,,,,,,,,,,,,
294766,2022-10-03_15h28.09.258,vts_reward_expectancy,2022.2.4,MacIntel,120.0048002,Chrome,1512,982,,,,,,,,,,,,,,,,,,,,,,,167,S,star,1,0,f,2.599,2,3,0,3,0,1,,,,,,,,,,,,,,,,,,,,,,,,,,,,,,,,,,,,,,,,,
294766,2022-10-03_15h28.09.258,vts_reward_expectancy,2022.2.4,MacIntel,120.0048002,Chrome,1512,982,,,,,,,,,,,,,,,,,,,,,,,125,F,hexagon,0,0,,,2,4,0,4,0,1,,,,,,,,,,,,,,,,,,,,,,,,,,,,,,,,,,,,,,,,,
294766,2022-10-03_15h28.09.258,vts_reward_expectancy,2022.2.4,MacIntel,120.0048002,Chrome,1512,982,,,,,,,,,,,,,,,,,,,,,,,181,D,circle,0,1,d,0.9215,2,5,0,5,0,1,,,,,,,,,,,,,,,,,,,,,,,,,,,,,,,,,,,,,,,,,
294766,2022-10-03_15h28.09.258,vts_reward_expectancy,2022.2.4,MacIntel,120.0048002,Chrome,1512,982,,,,,,,,,,,,,,,,,,,,,,,139,W,triangle,1,1,d,1.5481,2,6,0,6,0,1,,,,,,,,,,,,,,,,,,,,,,,,,,,,,,,,,,,,,,,,,
294766,2022-10-03_15h28.09.258,vts_reward_expectancy,2022.2.4,MacIntel,120.0048002,Chrome,1512,982,,,,,,,,,,,,,,,,,,,,,,,132,B,star,0,0,f,1.3164,2,7,0,7,0,1,,,,,,,,,,,,,,,,,,,,,,,,,,,,,,,,,,,,,,,,,
294766,2022-10-03_15h28.09.258,vts_reward_expectancy,2022.2.4,MacIntel,120.0048002,Chrome,1512,982,,,,,,,,,,,,,,,,,,,,,,,174,U,triangle,0,1,d,1.249,2,8,0,8,0,1,,,,,,,,,,,,,,,,,,,,,,,,,,,,,,,,,,,,,,,,,
294766,2022-10-03_15h28.09.258,vts_reward_expectancy,2022.2.4,MacIntel,120.0048002,Chrome,1512,982,,,,,,,,,,,,,,,,,,,,,,,160,H,hexagon,0,1,d,0.9597,2,9,0,9,0,1,,,,,,,,,,,,,,,,,,,,,,,,,,,,,,,,,,,,,,,,,
294766,2022-10-03_15h28.09.258,vts_reward_expectancy,2022.2.4,MacIntel,120.0048002,Chrome,1512,982,,,,,,,,,,,,,,,,,,,,,,,160,Y,circle,1,1,,,3,,,,,,k,0.9546,0,0,0,0,1,,,,,,,,,,,,,,,,,,,,,,,,,,,,,,,,,,
294766,2022-10-03_15h28.09.258,vts_reward_expectancy,2022.2.4,MacIntel,120.0048002,Chrome,1512,982,,,,,,,,,,,,,,,,,,,,,,,167,S,hexagon,1,0,,,3,,,,,,k,0.8065,1,0,1,0,1,,,,,,,,,,,,,,,,,,,,,,,,,,,,,,,,,,
294766,2022-10-03_15h28.09.258,vts_reward_expectancy,2022.2.4,MacIntel,120.0048002,Chrome,1512,982,,,,,,,,,,,,,,,,,,,,,,,125,D,star,1,0,,,3,,,,,,j,0.5945,2,0,2,0,1,,,,,,,,,,,,,,,,,,,,,,,,,,,,,,,,,,
294766,2022-10-03_15h28.09.258,vts_reward_expectancy,2022.2.4,MacIntel,120.0048002,Chrome,1512,982,,,,,,,,,,,,,,,,,,,,,,,139,H,triangle,1,0,,,3,,,,,,j,0.7234,3,0,3,0,1,,,,,,,,,,,,,,,,,,,,,,,,,,,,,,,,,,
294766,2022-10-03_15h28.09.258,vts_reward_expectancy,2022.2.4,MacIntel,120.0048002,Chrome,1512,982,,,,,,,,,,,,,,,,,,,,,,,132,F,circle,1,0,,,3,,,,,,j,0.8198,4,0,4,0,1,,,,,,,,,,,,,,,,,,,,,,,,,,,,,,,,,,
294766,2022-10-03_15h28.09.258,vts_reward_expectancy,2022.2.4,MacIntel,120.0048002,Chrome,1512,982,,,,,,,,,,,,,,,,,,,,,,,174,U,hexagon,1,0,,,3,,,,,,k,0.6195,5,0,5,0,1,,,,,,,,,,,,,,,,,,,,,,,,,,,,,,,,,,
294766,2022-10-03_15h28.09.258,vts_reward_expectancy,2022.2.4,MacIntel,120.0048002,Chrome,1512,982,,,,,,,,,,,,,,,,,,,,,,,181,W,star,1,0,,,3,,,,,,k,0.6383,6,0,6,0,1,,,,,,,,,,,,,,,,,,,,,,,,,,,,,,,,,,
294766,2022-10-03_15h28.09.258,vts_reward_expectancy,2022.2.4,MacIntel,120.0048002,Chrome,1512,982,,,,,,,,,,,,,,,,,,,,,,,146,B,triangle,1,0,,,3,,,,,,j,0.4854,7,0,7,0,1,,,,,,,,,,,,,,,,,,,,,,,,,,,,,,,,,,
294766,2022-10-03_15h28.09.258,vts_reward_expectancy,2022.2.4,MacIntel,120.0048002,Chrome,1512,982,,,,,,,,,,,,,,,,,,,,,,,160,Y,hexagon,1,0,,,3,,,,,,k,0.6752,8,0,8,0,1,,,,,,,,,,,,,,,,,,,,,,,,,,,,,,,,,,
294766,2022-10-03_15h28.09.258,vts_reward_expectancy,2022.2.4,MacIntel,120.0048002,Chrome,1512,982,,,,,,,,,,,,,,,,,,,,,,,167,S,triangle,1,0,,,3,,,,,,k,0.6074,9,0,9,0,1,,,,,,,,,,,,,,,,,,,,,,,,,,,,,,,,,,
294766,2022-10-03_15h28.09.258,vts_reward_expectancy,2022.2.4,MacIntel,120.0048002,Chrome,1512,982,,,,,0,675,,,,,,,,,,,,,,,,,146,H,circle,1,0,,,4,,,,,,,,,,,,,-1,letter,NA,j,1.7346,vtsPrac,0,0,0,0,1,,,,,,,,,,,,,,,,,,,,,,,
294766,2022-10-03_15h28.09.258,vts_reward_expectancy,2022.2.4,MacIntel,120.0048002,Chrome,1512,982,,,,,0,675,,,,,,,,,,,,,,,,,181,D,star,1,0,,,4,,,,,,,,,,,,,switch,number,numSwt,f,0.7886,vtsPrac,1,0,1,0,1,,,,,,,,,,,,,,,,,,,,,,,
294766,2022-10-03_15h28.09.258,vts_reward_expectancy,2022.2.4,MacIntel,120.0048002,Chrome,1512,982,,,,,0,675,,,,,,,,,,,,,,,,,174,U,circle,1,0,,,4,,,,,,,,,,,,,repeat,number,numRpt,f,0.8391,vtsPrac,2,0,2,0,1,,,,,,,,,,,,,,,,,,,,,,,
294766,2022-10-03_15h28.09.258,vts_reward_expectancy,2022.2.4,MacIntel,120.0048002,Chrome,1512,982,,,,,0,675,,,,,,,,,,,,,,,,,160,F,star,1,0,,,4,,,,,,,,,,,,,repeat,number,numRpt,f,0.8998,vtsPrac,3,0,3,0,1,,,,,,,,,,,,,,,,,,,,,,,
294766,2022-10-03_15h28.09.258,vts_reward_expectancy,2022.2.4,MacIntel,120.0048002,Chrome,1512,982,,,,,0,675,,,,,,,,,,,,,,,,,146,H,triangle,1,0,,,4,,,,,,,,,,,,,switch,letter,lettSwt,j,0.6898,vtsPrac,4,0,4,0,1,,,,,,,,,,,,,,,,,,,,,,,
294766,2022-10-03_15h28.09.258,vts_reward_expectancy,2022.2.4,MacIntel,120.0048002,Chrome,1512,982,,,,,0,675,,,,,,,,,,,,,,,,,181,D,hexagon,1,0,,,4,,,,,,,,,,,,,switch,number,numSwt,f,0.5578,vtsPrac,5,0,5,0,1,,,,,,,,,,,,,,,,,,,,,,,
294766,2022-10-03_15h28.09.258,vts_reward_expectancy,2022.2.4,MacIntel,120.0048002,Chrome,1512,982,,,,,0,675,,,,,,,,,,,,,,,,,174,U,star,1,0,,,4,,,,,,,,,,,,,switch,letter,lettSwt,k,1.677,vtsPrac,6,0,6,0,1,,,,,,,,,,,,,,,,,,,,,,,
294766,2022-10-03_15h28.09.258,vts_reward_expectancy,2022.2.4,MacIntel,120.0048002,Chrome,1512,982,,,,,0,675,,,,,,,,,,,,,,,,,160,F,hexagon,1,0,,,4,,,,,,,,,,,,,switch,number,numSwt,f,1.2876,vtsPrac,7,0,7,0,1,,,,,,,,,,,,,,,,,,,,,,,
294766,2022-10-03_15h28.09.258,vts_reward_expectancy,2022.2.4,MacIntel,120.0048002,Chrome,1512,982,,,,,0,675,,,,,,,,,,,,,,,,,139,D,circle,1,0,,,4,,,,,,,,,,,,,switch,letter,lettSwt,j,1.2932,vtsPrac,8,0,8,0,1,,,,,,,,,,,,,,,,,,,,,,,
294766,2022-10-03_15h28.09.258,vts_reward_expectancy,2022.2.4,MacIntel,120.0048002,Chrome,1512,982,,,,,0,675,,,,,,,,,,,,,,,,,160,F,star,1,0,,,4,,,,,,,,,,,,,repeat,letter,lettRpt,j,1.1989,vtsPrac,9,0,9,0,1,,,,,,,,,,,,,,,,,,,,,,,
294766,2022-10-03_15h28.09.258,vts_reward_expectancy,2022.2.4,MacIntel,120.0048002,Chrome,1512,982,,,,,0,675,,,,,,,,,,,,,,,,,125,W,hexagon,1,0,,,4,,,,,,,,,,,,,repeat,letter,lettRpt,k,1.0765,vtsPrac,10,0,10,0,1,,,,,,,,,,,,,,,,,,,,,,,
294766,2022-10-03_15h28.09.258,vts_reward_expectancy,2022.2.4,MacIntel,120.0048002,Chrome,1512,982,,,,,0,675,,,,,,,,,,,,,,,,,174,U,triangle,1,0,,,4,,,,,,,,,,,,,switch,number,numSwt,f,0.7724,vtsPrac,11,0,11,0,1,,,,,,,,,,,,,,,,,,,,,,,
294766,2022-10-03_15h28.09.258,vts_reward_expectancy,2022.2.4,MacIntel,120.0048002,Chrome,1512,982,,,,,0,675,,,,,,,,,,,,,,,,,125,S,hexagon,1,0,,,4,,,,,,,,,,,,,switch,letter,lettSwt,k,1.1205,vtsPrac,12,0,12,0,1,,,,,,,,,,,,,,,,,,,,,,,
294766,2022-10-03_15h28.09.258,vts_reward_expectancy,2022.2.4,MacIntel,120.0048002,Chrome,1512,982,,,,,0,675,,,,,,,,,,,,,,,,,160,U,star,1,0,,,4,,,,,,,,,,,,,repeat,letter,lettRpt,k,1.0955,vtsPrac,13,0,13,0,1,,,,,,,,,,,,,,,,,,,,,,,
294766,2022-10-03_15h28.09.258,vts_reward_expectancy,2022.2.4,MacIntel,120.0048002,Chrome,1512,982,,,,,0,675,,,,,,,,,,,,,,,,,181,B,hexagon,1,0,,,4,,,,,,,,,,,,,repeat,letter,lettRpt,j,0.6206,vtsPrac,14,0,14,0,1,,,,,,,,,,,,,,,,,,,,,,,
294766,2022-10-03_15h28.09.258,vts_reward_expectancy,2022.2.4,MacIntel,120.0048002,Chrome,1512,982,,,,,0,675,,,,,,,,,,,,,,,,,132,H,star,1,0,,,4,,,,,,,,,,,,,switch,number,numSwt,d,1.6155,vtsPrac,15,0,15,0,1,,,,,,,,,,,,,,,,,,,,,,,
294766,2022-10-03_15h28.09.258,vts_reward_expectancy,2022.2.4,MacIntel,120.0048002,Chrome,1512,982,,,,,,,,,,,,,,,,,,,,,,,,,,,,,,,,,,,,,,,,,,,,,,,,,,,,,,,,,,,,,,,,,,,,,,,,,,,,
294766,2022-10-03_15h28.09.258,vts_reward_expectancy,2022.2.4,MacIntel,120.0048002,Chrome,1512,982,,,,,,,,,,,,,,,,,,,,,,,,,,,,,,,,,,,,,,,,,,,,,,,,,,,,,,,,,,,,,,,,,,,,,,,,,,,,
294766,2022-10-03_15h28.09.258,vts_reward_expectancy,2022.2.4,MacIntel,120.0048002,Chrome,1512,982,,,,,0,675,,,,,,,,,,,,,,,,,132,W,triangle,1,0,,,,,,,,,,,,,,,,switch,letter,lettSwt,k,1.7908,noRew,,,,,,0,0,0,0,0,1,,,,,,,,,,,,,,,,,
294766,2022-10-03_15h28.09.258,vts_reward_expectancy,2022.2.4,MacIntel,120.0048002,Chrome,1512,982,,,,,0,675,,,,,,,,,,,,,,,,,174,Y,star,1,0,,,,,,,,,,,,,,,,repeat,letter,lettRpt,k,0.7225,noRew,,,,,,0,1,0,1,0,1,,,,,,,,,,,,,,,,,
294766,2022-10-03_15h28.09.258,vts_reward_expectancy,2022.2.4,MacIntel,120.0048002,Chrome,1512,982,,,,,0,675,,,,,,,,,,,,,,,,,160,F,triangle,1,0,,,,,,,,,,,,,,,,switch,number,numSwt,f,0.5679,noRew,,,,,,0,2,0,2,0,1,,,,,,,,,,,,,,,,,
294766,2022-10-03_15h28.09.258,vts_reward_expectancy,2022.2.4,MacIntel,120.0048002,Chrome,1512,982,,,,,0,675,,,,,,,,,,,,,,,,,181,B,star,1,0,,,,,,,,,,,,,,,,switch,letter,lettSwt,j,0.7151,noRew,,,,,,0,3,0,3,0,1,,,,,,,,,,,,,,,,,
294766,2022-10-03_15h28.09.258,vts_reward_expectancy,2022.2.4,MacIntel,120.0048002,Chrome,1512,982,,,,,0,675,,,,,,,,,,,,,,,,,132,W,triangle,1,0,,,,,,,,,,,,,,,,switch,number,numSwt,d,0.6499,noRew,,,,,,0,4,0,4,0,1,,,,,,,,,,,,,,,,,
294766,2022-10-03_15h28.09.258,vts_reward_expectancy,2022.2.4,MacIntel,120.0048002,Chrome,1512,982,,,,,0,675,,,,,,,,,,,,,,,,,174,Y,star,1,0,,,,,,,,,,,,,,,,switch,letter,lettSwt,k,0.8919,noRew,,,,,,0,5,0,5,0,1,,,,,,,,,,,,,,,,,
294766,2022-10-03_15h28.09.258,vts_reward_expectancy,2022.2.4,MacIntel,120.0048002,Chrome,1512,982,,,,,0,675,,,,,,,,,,,,,,,,,160,F,triangle,1,0,,,,,,,,,,,,,,,,repeat,letter,lettRpt,j,0.7834,noRew,,,,,,0,6,0,6,0,1,,,,,,,,,,,,,,,,,
294766,2022-10-03_15h28.09.258,vts_reward_expectancy,2022.2.4,MacIntel,120.0048002,Chrome,1512,982,,,,,0,675,,,,,,,,,,,,,,,,,181,B,circle,1,0,,,,,,,,,,,,,,,,repeat,letter,lettRpt,j,1.1035,noRew,,,,,,0,7,0,7,0,1,,,,,,,,,,,,,,,,,
294766,2022-10-03_15h28.09.258,vts_reward_expectancy,2022.2.4,MacIntel,120.0048002,Chrome,1512,982,,,,,0,675,,,,,,,,,,,,,,,,,146,Y,circle,1,0,,,,,,,,,,,,,,,,switch,number,numSwt,d,1.2735,noRew,,,,,,0,8,0,8,0,1,,,,,,,,,,,,,,,,,
294766,2022-10-03_15h28.09.258,vts_reward_expectancy,2022.2.4,MacIntel,120.0048002,Chrome,1512,982,,,,,0,675,,,,,,,,,,,,,,,,,160,B,star,1,0,,,,,,,,,,,,,,,,switch,letter,lettSwt,j,1.0363,noRew,,,,,,0,9,0,9,0,1,,,,,,,,,,,,,,,,,
294766,2022-10-03_15h28.09.258,vts_reward_expectancy,2022.2.4,MacIntel,120.0048002,Chrome,1512,982,,,,,0,675,,,,,,,,,,,,,,,,,181,D,star,1,0,,,,,,,,,,,,,,,,switch,number,numSwt,f,1.2602,noRew,,,,,,0,10,0,10,0,1,,,,,,,,,,,,,,,,,
294766,2022-10-03_15h28.09.258,vts_reward_expectancy,2022.2.4,MacIntel,120.0048002,Chrome,1512,982,,,,,0,675,,,,,,,,,,,,,,,,,174,W,hexagon,1,0,,,,,,,,,,,,,,,,repeat,number,numRpt,f,0.897,noRew,,,,,,0,11,0,11,0,1,,,,,,,,,,,,,,,,,
294766,2022-10-03_15h28.09.258,vts_reward_expectancy,2022.2.4,MacIntel,120.0048002,Chrome,1512,982,,,,,0,675,,,,,,,,,,,,,,,,,160,B,star,0,0,,,,,,,,,,,,,,,,repeat,number,NA,d,0.6544,noRew,,,,,,0,12,0,12,0,1,,,,,,,,,,,,,,,,,
294766,2022-10-03_15h28.09.258,vts_reward_expectancy,2022.2.4,MacIntel,120.0048002,Chrome,1512,982,,,,,0,675,,,,,,,,,,,,,,,,,125,U,triangle,1,1,,,,,,,,,,,,,,,,repeat,number,numRpt,d,1.1306,noRew,,,,,,0,13,0,13,0,1,,,,,,,,,,,,,,,,,
294766,2022-10-03_15h28.09.258,vts_reward_expectancy,2022.2.4,MacIntel,120.0048002,Chrome,1512,982,,,,,0,675,,,,,,,,,,,,,,,,,146,H,triangle,1,0,,,,,,,,,,,,,,,,switch,letter,lettSwt,j,1.3557,noRew,,,,,,0,14,0,14,0,1,,,,,,,,,,,,,,,,,
294766,2022-10-03_15h28.09.258,vts_reward_expectancy,2022.2.4,MacIntel,120.0048002,Chrome,1512,982,,,,,0,675,,,,,,,,,,,,,,,,,139,Y,star,1,0,,,,,,,,,,,,,,,,switch,number,numSwt,d,0.8735,noRew,,,,,,0,15,0,15,0,1,,,,,,,,,,,,,,,,,
294766,2022-10-03_15h28.09.258,vts_reward_expectancy,2022.2.4,MacIntel,120.0048002,Chrome,1512,982,,,,,0,675,,,,,,,,,,,,,,,,,139,S,hexagon,1,0,,,,,,,,,,,,,,,,switch,letter,lettSwt,k,0.8925,noRew,,,,,,0,16,0,16,0,1,,,,,,,,,,,,,,,,,
294766,2022-10-03_15h28.09.258,vts_reward_expectancy,2022.2.4,MacIntel,120.0048002,Chrome,1512,982,,,,,0,675,,,,,,,,,,,,,,,,,125,Y,triangle,1,0,,,,,,,,,,,,,,,,switch,number,numSwt,d,0.9908,noRew,,,,,,0,17,0,17,0,1,,,,,,,,,,,,,,,,,
294766,2022-10-03_15h28.09.258,vts_reward_expectancy,2022.2.4,MacIntel,120.0048002,Chrome,1512,982,,,,,0,675,,,,,,,,,,,,,,,,,181,U,star,1,0,,,,,,,,,,,,,,,,switch,letter,lettSwt,k,1.4537,noRew,,,,,,0,18,0,18,0,1,,,,,,,,,,,,,,,,,
294766,2022-10-03_15h28.09.258,vts_reward_expectancy,2022.2.4,MacIntel,120.0048002,Chrome,1512,982,,,,,0,675,,,,,,,,,,,,,,,,,132,W,triangle,1,0,,,,,,,,,,,,,,,,switch,number,numSwt,d,1.4427,noRew,,,,,,0,19,0,19,0,1,,,,,,,,,,,,,,,,,
294766,2022-10-03_15h28.09.258,vts_reward_expectancy,2022.2.4,MacIntel,120.0048002,Chrome,1512,982,,,,,0,675,,,,,,,,,,,,,,,,,125,D,hexagon,1,0,,,,,,,,,,,,,,,,repeat,number,numRpt,d,1.0349,noRew,,,,,,0,20,0,20,0,1,,,,,,,,,,,,,,,,,
294766,2022-10-03_15h28.09.258,vts_reward_expectancy,2022.2.4,MacIntel,120.0048002,Chrome,1512,982,,,,,0,675,,,,,,,,,,,,,,,,,167,W,star,1,0,,,,,,,,,,,,,,,,switch,letter,lettSwt,k,1.0727,noRew,,,,,,0,21,0,21,0,1,,,,,,,,,,,,,,,,,
294766,2022-10-03_15h28.09.258,vts_reward_expectancy,2022.2.4,MacIntel,120.0048002,Chrome,1512,982,,,,,0,675,,,,,,,,,,,,,,,,,181,S,star,1,0,,,,,,,,,,,,,,,,switch,number,numSwt,f,1.5033,noRew,,,,,,0,22,0,22,0,1,,,,,,,,,,,,,,,,,
294766,2022-10-03_15h28.09.258,vts_reward_expectancy,2022.2.4,MacIntel,120.0048002,Chrome,1512,982,,,,,0,675,,,,,,,,,,,,,,,,,146,U,triangle,1,0,,,,,,,,,,,,,,,,repeat,number,numRpt,d,0.8503,noRew,,,,,,0,23,0,23,0,1,,,,,,,,,,,,,,,,,
294766,2022-10-03_15h28.09.258,vts_reward_expectancy,2022.2.4,MacIntel,120.0048002,Chrome,1512,982,,,,,0,675,,,,,,,,,,,,,,,,,125,B,circle,1,0,,,,,,,,,,,,,,,,switch,letter,lettSwt,j,1.6247,noRew,,,,,,0,24,0,24,0,1,,,,,,,,,,,,,,,,,
294766,2022-10-03_15h28.09.258,vts_reward_expectancy,2022.2.4,MacIntel,120.0048002,Chrome,1512,982,,,,,0,675,,,,,,,,,,,,,,,,,160,W,triangle,-1,0,,,,,,,,,,,,,,,,switch,no_choice,NA,,,noRew,,,,,,0,25,0,25,0,1,,,,,,,,,,,,,,,,,
294766,2022-10-03_15h28.09.258,vts_reward_expectancy,2022.2.4,MacIntel,120.0048002,Chrome,1512,982,,,,,0,675,,,,,,,,,,,,,,,,,139,U,star,1,0,,,,,,,,,,,,,,,,switch,number,numSwt,d,1.2819,noRew,,,,,,0,26,0,26,0,1,,,,,,,,,,,,,,,,,
294766,2022-10-03_15h28.09.258,vts_reward_expectancy,2022.2.4,MacIntel,120.0048002,Chrome,1512,982,,,,,0,675,,,,,,,,,,,,,,,,,181,S,hexagon,1,0,,,,,,,,,,,,,,,,repeat,number,numRpt,f,0.9227,noRew,,,,,,0,27,0,27,0,1,,,,,,,,,,,,,,,,,
294766,2022-10-03_15h28.09.258,vts_reward_expectancy,2022.2.4,MacIntel,120.0048002,Chrome,1512,982,,,,,0,675,,,,,,,,,,,,,,,,,132,H,circle,1,0,,,,,,,,,,,,,,,,repeat,number,numRpt,d,2.219,noRew,,,,,,0,28,0,28,0,1,,,,,,,,,,,,,,,,,
294766,2022-10-03_15h28.09.258,vts_reward_expectancy,2022.2.4,MacIntel,120.0048002,Chrome,1512,982,,,,,0,675,,,,,,,,,,,,,,,,,125,Y,hexagon,1,0,,,,,,,,,,,,,,,,switch,letter,lettSwt,k,1.3155,noRew,,,,,,0,29,0,29,0,1,,,,,,,,,,,,,,,,,
294766,2022-10-03_15h28.09.258,vts_reward_expectancy,2022.2.4,MacIntel,120.0048002,Chrome,1512,982,,,,,0,675,,,,,,,,,,,,,,,,,174,B,hexagon,1,0,,,,,,,,,,,,,,,,switch,number,numSwt,f,1.0469,noRew,,,,,,0,30,0,30,0,1,,,,,,,,,,,,,,,,,
294766,2022-10-03_15h28.09.258,vts_reward_expectancy,2022.2.4,MacIntel,120.0048002,Chrome,1512,982,,,,,0,675,,,,,,,,,,,,,,,,,146,U,star,1,0,,,,,,,,,,,,,,,,repeat,number,numRpt,d,1.0418,noRew,,,,,,0,31,0,31,0,1,,,,,,,,,,,,,,,,,
294766,2022-10-03_15h28.09.258,vts_reward_expectancy,2022.2.4,MacIntel,120.0048002,Chrome,1512,982,,,,,0,675,,,,,,,,,,,,,,,,,181,B,star,1,0,,,,,,,,,,,,,,,,repeat,number,numRpt,f,0.7731,noRew,,,,,,0,32,0,32,0,1,,,,,,,,,,,,,,,,,
294766,2022-10-03_15h28.09.258,vts_reward_expectancy,2022.2.4,MacIntel,120.0048002,Chrome,1512,982,,,,,0,675,,,,,,,,,,,,,,,,,132,Y,circle,0,0,,,,,,,,,,,,,,,,switch,letter,NA,j,0.7158,noRew,,,,,,0,33,0,33,0,1,,,,,,,,,,,,,,,,,
294766,2022-10-03_15h28.09.258,vts_reward_expectancy,2022.2.4,MacIntel,120.0048002,Chrome,1512,982,,,,,0,675,,,,,,,,,,,,,,,,,139,U,circle,1,1,,,,,,,,,,,,,,,,repeat,letter,lettRpt,k,1.039,noRew,,,,,,0,34,0,34,0,1,,,,,,,,,,,,,,,,,
294766,2022-10-03_15h28.09.258,vts_reward_expectancy,2022.2.4,MacIntel,120.0048002,Chrome,1512,982,,,,,0,675,,,,,,,,,,,,,,,,,160,H,triangle,1,0,,,,,,,,,,,,,,,,switch,number,numSwt,f,0.6723,noRew,,,,,,0,35,0,35,0,1,,,,,,,,,,,,,,,,,
294766,2022-10-03_15h28.09.258,vts_reward_expectancy,2022.2.4,MacIntel,120.0048002,Chrome,1512,982,,,,,0,675,,,,,,,,,,,,,,,,,167,F,triangle,1,0,,,,,,,,,,,,,,,,repeat,number,numRpt,f,0.9904,noRew,,,,,,0,36,0,36,0,1,,,,,,,,,,,,,,,,,
294766,2022-10-03_15h28.09.258,vts_reward_expectancy,2022.2.4,MacIntel,120.0048002,Chrome,1512,982,,,,,0,675,,,,,,,,,,,,,,,,,132,Y,star,1,0,,,,,,,,,,,,,,,,switch,letter,lettSwt,k,0.9741,noRew,,,,,,0,37,0,37,0,1,,,,,,,,,,,,,,,,,
294766,2022-10-03_15h28.09.258,vts_reward_expectancy,2022.2.4,MacIntel,120.0048002,Chrome,1512,982,,,,,0,675,,,,,,,,,,,,,,,,,139,U,hexagon,1,0,,,,,,,,,,,,,,,,repeat,letter,lettRpt,k,0.6093,noRew,,,,,,0,38,0,38,0,1,,,,,,,,,,,,,,,,,
294766,2022-10-03_15h28.09.258,vts_reward_expectancy,2022.2.4,MacIntel,120.0048002,Chrome,1512,982,,,,,0,675,,,,,,,,,,,,,,,,,174,B,circle,1,0,,,,,,,,,,,,,,,,repeat,letter,lettRpt,j,1.1527,noRew,,,,,,0,39,0,39,0,1,,,,,,,,,,,,,,,,,
294766,2022-10-03_15h28.09.258,vts_reward_expectancy,2022.2.4,MacIntel,120.0048002,Chrome,1512,982,,,,,0,675,,,,,,,,,,,,,,,,,160,D,hexagon,1,0,,,,,,,,,,,,,,,,switch,number,numSwt,f,0.6503,noRew,,,,,,0,40,0,40,0,1,,,,,,,,,,,,,,,,,
294766,2022-10-03_15h28.09.258,vts_reward_expectancy,2022.2.4,MacIntel,120.0048002,Chrome,1512,982,,,,,0,675,,,,,,,,,,,,,,,,,146,B,triangle,1,0,,,,,,,,,,,,,,,,switch,letter,lettSwt,j,0.7238,noRew,,,,,,0,41,0,41,0,1,,,,,,,,,,,,,,,,,
294766,2022-10-03_15h28.09.258,vts_reward_expectancy,2022.2.4,MacIntel,120.0048002,Chrome,1512,982,,,,,0,675,,,,,,,,,,,,,,,,,181,W,circle,1,0,,,,,,,,,,,,,,,,repeat,letter,lettRpt,k,0.5949,noRew,,,,,,0,42,0,42,0,1,,,,,,,,,,,,,,,,,
294766,2022-10-03_15h28.09.258,vts_reward_expectancy,2022.2.4,MacIntel,120.0048002,Chrome,1512,982,,,,,0,675,,,,,,,,,,,,,,,,,125,Y,triangle,1,0,,,,,,,,,,,,,,,,repeat,letter,lettRpt,k,0.642,noRew,,,,,,0,43,0,43,0,1,,,,,,,,,,,,,,,,,
294766,2022-10-03_15h28.09.258,vts_reward_expectancy,2022.2.4,MacIntel,120.0048002,Chrome,1512,982,,,,,0,675,,,,,,,,,,,,,,,,,146,F,hexagon,1,0,,,,,,,,,,,,,,,,switch,number,numSwt,d,0.7491,noRew,,,,,,0,44,0,44,0,1,,,,,,,,,,,,,,,,,
294766,2022-10-03_15h28.09.258,vts_reward_expectancy,2022.2.4,MacIntel,120.0048002,Chrome,1512,982,,,,,0,675,,,,,,,,,,,,,,,,,132,H,star,1,0,,,,,,,,,,,,,,,,repeat,number,numRpt,d,0.7351,noRew,,,,,,0,45,0,45,0,1,,,,,,,,,,,,,,,,,
294766,2022-10-03_15h28.09.258,vts_reward_expectancy,2022.2.4,MacIntel,120.0048002,Chrome,1512,982,,,,,0,675,,,,,,,,,,,,,,,,,167,W,star,1,0,,,,,,,,,,,,,,,,switch,letter,lettSwt,k,0.6929,noRew,,,,,,0,46,0,46,0,1,,,,,,,,,,,,,,,,,
294766,2022-10-03_15h28.09.258,vts_reward_expectancy,2022.2.4,MacIntel,120.0048002,Chrome,1512,982,,,,,0,675,,,,,,,,,,,,,,,,,174,Y,hexagon,1,0,,,,,,,,,,,,,,,,switch,number,numSwt,f,0.7823,noRew,,,,,,0,47,0,47,0,1,,,,,,,,,,,,,,,,,
294766,2022-10-03_15h28.09.258,vts_reward_expectancy,2022.2.4,MacIntel,120.0048002,Chrome,1512,982,,,,,0,675,,,,,,,,,,,,,,,,,132,B,star,1,0,,,,,,,,,,,,,,,,repeat,number,numRpt,d,0.7008,noRew,,,,,,0,48,0,48,0,1,,,,,,,,,,,,,,,,,
294766,2022-10-03_15h28.09.258,vts_reward_expectancy,2022.2.4,MacIntel,120.0048002,Chrome,1512,982,,,,,0,675,,,,,,,,,,,,,,,,,174,U,hexagon,1,0,,,,,,,,,,,,,,,,repeat,number,numRpt,f,0.7056,noRew,,,,,,0,49,0,49,0,1,,,,,,,,,,,,,,,,,
294766,2022-10-03_15h28.09.258,vts_reward_expectancy,2022.2.4,MacIntel,120.0048002,Chrome,1512,982,,,,,0,675,,,,,,,,,,,,,,,,,181,W,circle,1,0,,,,,,,,,,,,,,,,repeat,number,numRpt,f,0.8279,noRew,,,,,,0,50,0,50,0,1,,,,,,,,,,,,,,,,,
294766,2022-10-03_15h28.09.258,vts_reward_expectancy,2022.2.4,MacIntel,120.0048002,Chrome,1512,982,,,,,0,675,,,,,,,,,,,,,,,,,139,H,hexagon,1,0,,,,,,,,,,,,,,,,switch,letter,lettSwt,j,0.6917,noRew,,,,,,0,51,0,51,0,1,,,,,,,,,,,,,,,,,
294766,2022-10-03_15h28.09.258,vts_reward_expectancy,2022.2.4,MacIntel,120.0048002,Chrome,1512,982,,,,,0,675,,,,,,,,,,,,,,,,,167,U,star,1,0,,,,,,,,,,,,,,,,switch,number,numSwt,f,0.7555,noRew,,,,,,0,52,0,52,0,1,,,,,,,,,,,,,,,,,
294766,2022-10-03_15h28.09.258,vts_reward_expectancy,2022.2.4,MacIntel,120.0048002,Chrome,1512,982,,,,,0,675,,,,,,,,,,,,,,,,,181,F,hexagon,1,0,,,,,,,,,,,,,,,,switch,letter,lettSwt,j,0.7912,noRew,,,,,,0,53,0,53,0,1,,,,,,,,,,,,,,,,,
294766,2022-10-03_15h28.09.258,vts_reward_expectancy,2022.2.4,MacIntel,120.0048002,Chrome,1512,982,,,,,0,675,,,,,,,,,,,,,,,,,174,W,hexagon,1,0,,,,,,,,,,,,,,,,repeat,letter,lettRpt,k,0.6623,noRew,,,,,,0,54,0,54,0,1,,,,,,,,,,,,,,,,,
294766,2022-10-03_15h28.09.258,vts_reward_expectancy,2022.2.4,MacIntel,120.0048002,Chrome,1512,982,,,,,0,675,,,,,,,,,,,,,,,,,132,H,triangle,1,0,,,,,,,,,,,,,,,,repeat,letter,lettRpt,j,0.8145,noRew,,,,,,0,55,0,55,0,1,,,,,,,,,,,,,,,,,
294766,2022-10-03_15h28.09.258,vts_reward_expectancy,2022.2.4,MacIntel,120.0048002,Chrome,1512,982,,,,,0,675,,,,,,,,,,,,,,,,,160,D,circle,1,0,,,,,,,,,,,,,,,,switch,number,numSwt,f,0.6268,noRew,,,,,,0,56,0,56,0,1,,,,,,,,,,,,,,,,,
294766,2022-10-03_15h28.09.258,vts_reward_expectancy,2022.2.4,MacIntel,120.0048002,Chrome,1512,982,,,,,0,675,,,,,,,,,,,,,,,,,181,Y,star,1,0,,,,,,,,,,,,,,,,switch,letter,lettSwt,k,0.627,noRew,,,,,,0,57,0,57,0,1,,,,,,,,,,,,,,,,,
294766,2022-10-03_15h28.09.258,vts_reward_expectancy,2022.2.4,MacIntel,120.0048002,Chrome,1512,982,,,,,0,675,,,,,,,,,,,,,,,,,139,S,hexagon,1,0,,,,,,,,,,,,,,,,repeat,letter,lettRpt,k,0.5723,noRew,,,,,,0,58,0,58,0,1,,,,,,,,,,,,,,,,,
294766,2022-10-03_15h28.09.258,vts_reward_expectancy,2022.2.4,MacIntel,120.0048002,Chrome,1512,982,,,,,0,675,,,,,,,,,,,,,,,,,125,H,triangle,1,0,,,,,,,,,,,,,,,,repeat,letter,lettRpt,j,0.6609,noRew,,,,,,0,59,0,59,0,1,,,,,,,,,,,,,,,,,
294766,2022-10-03_15h28.09.258,vts_reward_expectancy,2022.2.4,MacIntel,120.0048002,Chrome,1512,982,,,,,0,675,,,,,,,,,,,,,,,,,139,B,hexagon,1,0,,,,,,,,,,,,,,,,repeat,letter,lettRpt,j,0.7411,noRew,,,,,,0,60,0,60,0,1,,,,,,,,,,,,,,,,,
294766,2022-10-03_15h28.09.258,vts_reward_expectancy,2022.2.4,MacIntel,120.0048002,Chrome,1512,982,,,,,0,675,,,,,,,,,,,,,,,,,125,H,circle,-1,0,,,,,,,,,,,,,,,,switch,no_choice,NA,,,noRew,,,,,,0,61,0,61,0,1,,,,,,,,,,,,,,,,,
294766,2022-10-03_15h28.09.258,vts_reward_expectancy,2022.2.4,MacIntel,120.0048002,Chrome,1512,982,,,,,0,675,,,,,,,,,,,,,,,,,132,W,star,-1,0,,,,,,,,,,,,,,,,repeat,no_choice,NA,,,noRew,,,,,,0,62,0,62,0,1,,,,,,,,,,,,,,,,,
294766,2022-10-03_15h28.09.258,vts_reward_expectancy,2022.2.4,MacIntel,120.0048002,Chrome,1512,982,,,,,0,675,,,,,,,,,,,,,,,,,160,U,circle,-1,0,,,,,,,,,,,,,,,,repeat,no_choice,NA,,,noRew,,,,,,0,63,0,63,0,1,,,,,,,,,,,,,,,,,
294766,2022-10-03_15h28.09.258,vts_reward_expectancy,2022.2.4,MacIntel,120.0048002,Chrome,1512,982,,,,,,,,,,,,,,,,,,,,,,,,,,,,,,,,,,,,,,,,,,,,,,,,,,,,,,,,,,,,,,,,,,,,,,,,,,,,
294766,2022-10-03_15h28.09.258,vts_reward_expectancy,2022.2.4,MacIntel,120.0048002,Chrome,1512,982,,,,,1,676,,,,,,,,,,,,,,,,,125,W,hexagon,1,0,,,,,,,,,,,,,,,,switch,number,numSwt,d,0.8476,Lo,,,,,,0,,,,,,space,14.8013,high,0,0,0,0,1,,,,,,,,,
294766,2022-10-03_15h28.09.258,vts_reward_expectancy,2022.2.4,MacIntel,120.0048002,Chrome,1512,982,,,,,10,686,,,,,,,,,,,,,,,,,146,D,triangle,1,0,,,,,,,,,,,,,,,,switch,letter,lettSwt,j,0.5753,Hi,,,,,,0,,,,,,,,high,1,0,1,0,1,,,,,,,,,
294766,2022-10-03_15h28.09.258,vts_reward_expectancy,2022.2.4,MacIntel,120.0048002,Chrome,1512,982,,,,,1,687,,,,,,,,,,,,,,,,,139,B,hexagon,1,0,,,,,,,,,,,,,,,,repeat,letter,lettRpt,j,0.6384,Lo,,,,,,0,,,,,,,,high,2,0,2,0,1,,,,,,,,,
294766,2022-10-03_15h28.09.258,vts_reward_expectancy,2022.2.4,MacIntel,120.0048002,Chrome,1512,982,,,,,1,688,,,,,,,,,,,,,,,,,181,Y,triangle,1,0,,,,,,,,,,,,,,,,repeat,letter,lettRpt,k,0.4273,Hi,,,,,,0,,,,,,,,high,3,0,3,0,1,,,,,,,,,
294766,2022-10-03_15h28.09.258,vts_reward_expectancy,2022.2.4,MacIntel,120.0048002,Chrome,1512,982,,,,,1,689,,,,,,,,,,,,,,,,,174,U,hexagon,1,0,,,,,,,,,,,,,,,,switch,number,numSwt,f,0.5493,Lo,,,,,,0,,,,,,,,high,4,0,4,0,1,,,,,,,,,
294766,2022-10-03_15h28.09.258,vts_reward_expectancy,2022.2.4,MacIntel,120.0048002,Chrome,1512,982,,,,,10,699,,,,,,,,,,,,,,,,,167,H,triangle,1,0,,,,,,,,,,,,,,,,repeat,number,numRpt,f,0.6433,Hi,,,,,,0,,,,,,,,high,5,0,5,0,1,,,,,,,,,
294766,2022-10-03_15h28.09.258,vts_reward_expectancy,2022.2.4,MacIntel,120.0048002,Chrome,1512,982,,,,,10,709,,,,,,,,,,,,,,,,,132,S,triangle,1,0,,,,,,,,,,,,,,,,repeat,number,numRpt,d,0.6305,Hi,,,,,,0,,,,,,,,high,6,0,6,0,1,,,,,,,,,
294766,2022-10-03_15h28.09.258,vts_reward_expectancy,2022.2.4,MacIntel,120.0048002,Chrome,1512,982,,,,,10,719,,,,,,,,,,,,,,,,,160,F,hexagon,1,0,,,,,,,,,,,,,,,,repeat,number,numRpt,f,0.612,Lo,,,,,,0,,,,,,,,high,7,0,7,0,1,,,,,,,,,
294766,2022-10-03_15h28.09.258,vts_reward_expectancy,2022.2.4,MacIntel,120.0048002,Chrome,1512,982,,,,,1,720,,,,,,,,,,,,,,,,,125,W,hexagon,1,0,,,,,,,,,,,,,,,,repeat,number,numRpt,d,0.4025,Lo,,,,,,0,,,,,,,,high,8,0,8,0,1,,,,,,,,,
294766,2022-10-03_15h28.09.258,vts_reward_expectancy,2022.2.4,MacIntel,120.0048002,Chrome,1512,982,,,,,10,730,,,,,,,,,,,,,,,,,146,D,triangle,1,0,,,,,,,,,,,,,,,,switch,letter,lettSwt,j,0.5387,Hi,,,,,,0,,,,,,,,high,9,0,9,0,1,,,,,,,,,
294766,2022-10-03_15h28.09.258,vts_reward_expectancy,2022.2.4,MacIntel,120.0048002,Chrome,1512,982,,,,,0,730,,,,,,,,,,,,,,,,,139,B,hexagon,0,0,,,,,,,,,,,,,,,,switch,number,NA,f,0.69,Hi,,,,,,0,,,,,,,,high,10,0,10,0,1,,,,,,,,,
294766,2022-10-03_15h28.09.258,vts_reward_expectancy,2022.2.4,MacIntel,120.0048002,Chrome,1512,982,,,,,0,730,,,,,,,,,,,,,,,,,181,Y,triangle,1,1,,,,,,,,,,,,,,,,repeat,number,numRpt,f,0.8263,Hi,,,,,,0,,,,,,,,high,11,0,11,0,1,,,,,,,,,
294766,2022-10-03_15h28.09.258,vts_reward_expectancy,2022.2.4,MacIntel,120.0048002,Chrome,1512,982,,,,,1,731,,,,,,,,,,,,,,,,,174,U,hexagon,1,0,,,,,,,,,,,,,,,,repeat,number,numRpt,f,0.4891,Lo,,,,,,0,,,,,,,,high,12,0,12,0,1,,,,,,,,,
294766,2022-10-03_15h28.09.258,vts_reward_expectancy,2022.2.4,MacIntel,120.0048002,Chrome,1512,982,,,,,10,741,,,,,,,,,,,,,,,,,167,H,triangle,1,0,,,,,,,,,,,,,,,,repeat,number,numRpt,f,0.6525,Hi,,,,,,0,,,,,,,,high,13,0,13,0,1,,,,,,,,,
294766,2022-10-03_15h28.09.258,vts_reward_expectancy,2022.2.4,MacIntel,120.0048002,Chrome,1512,982,,,,,1,742,,,,,,,,,,,,,,,,,132,S,hexagon,1,0,,,,,,,,,,,,,,,,repeat,number,numRpt,d,0.5793,Lo,,,,,,0,,,,,,,,high,14,0,14,0,1,,,,,,,,,
294766,2022-10-03_15h28.09.258,vts_reward_expectancy,2022.2.4,MacIntel,120.0048002,Chrome,1512,982,,,,,10,752,,,,,,,,,,,,,,,,,160,F,triangle,1,0,,,,,,,,,,,,,,,,repeat,number,numRpt,f,0.3525,Hi,,,,,,0,,,,,,,,high,15,0,15,0,1,,,,,,,,,
294766,2022-10-03_15h28.09.258,vts_reward_expectancy,2022.2.4,MacIntel,120.0048002,Chrome,1512,982,,,,,1,753,,,,,,,,,,,,,,,,,174,U,hexagon,1,0,,,,,,,,,,,,,,,,repeat,number,numRpt,f,0.5005,Lo,,,,,,0,,,,,,,,high,16,0,16,0,1,,,,,,,,,
294766,2022-10-03_15h28.09.258,vts_reward_expectancy,2022.2.4,MacIntel,120.0048002,Chrome,1512,982,,,,,10,763,,,,,,,,,,,,,,,,,181,Y,triangle,1,0,,,,,,,,,,,,,,,,repeat,number,numRpt,f,0.5774,Hi,,,,,,0,,,,,,,,high,17,0,17,0,1,,,,,,,,,
294766,2022-10-03_15h28.09.258,vts_reward_expectancy,2022.2.4,MacIntel,120.0048002,Chrome,1512,982,,,,,10,773,,,,,,,,,,,,,,,,,139,F,triangle,1,0,,,,,,,,,,,,,,,,repeat,number,numRpt,d,0.6151,Hi,,,,,,0,,,,,,,,high,18,0,18,0,1,,,,,,,,,
294766,2022-10-03_15h28.09.258,vts_reward_expectancy,2022.2.4,MacIntel,120.0048002,Chrome,1512,982,,,,,0,773,,,,,,,,,,,,,,,,,160,B,hexagon,0,0,,,,,,,,,,,,,,,,repeat,number,NA,d,0.6655,Hi,,,,,,0,,,,,,,,high,19,0,19,0,1,,,,,,,,,
294766,2022-10-03_15h28.09.258,vts_reward_expectancy,2022.2.4,MacIntel,120.0048002,Chrome,1512,982,,,,,1,774,,,,,,,,,,,,,,,,,167,S,triangle,1,1,,,,,,,,,,,,,,,,repeat,number,numRpt,f,0.5134,Hi,,,,,,0,,,,,,,,high,20,0,20,0,1,,,,,,,,,
294766,2022-10-03_15h28.09.258,vts_reward_expectancy,2022.2.4,MacIntel,120.0048002,Chrome,1512,982,,,,,1,775,,,,,,,,,,,,,,,,,125,W,hexagon,1,0,,,,,,,,,,,,,,,,repeat,number,numRpt,d,0.592,Lo,,,,,,0,,,,,,,,high,21,0,21,0,1,,,,,,,,,
294766,2022-10-03_15h28.09.258,vts_reward_expectancy,2022.2.4,MacIntel,120.0048002,Chrome,1512,982,,,,,10,785,,,,,,,,,,,,,,,,,132,D,triangle,1,0,,,,,,,,,,,,,,,,switch,letter,lettSwt,j,0.72,Hi,,,,,,0,,,,,,,,high,22,0,22,0,1,,,,,,,,,
294766,2022-10-03_15h28.09.258,vts_reward_expectancy,2022.2.4,MacIntel,120.0048002,Chrome,1512,982,,,,,1,786,,,,,,,,,,,,,,,,,146,H,hexagon,1,0,,,,,,,,,,,,,,,,repeat,letter,lettRpt,j,0.6236,Lo,,,,,,0,,,,,,,,high,23,0,23,0,1,,,,,,,,,
294766,2022-10-03_15h28.09.258,vts_reward_expectancy,2022.2.4,MacIntel,120.0048002,Chrome,1512,982,,,,,10,796,,,,,,,,,,,,,,,,,139,F,hexagon,1,0,,,,,,,,,,,,,,,,repeat,letter,lettRpt,j,0.5172,Lo,,,,,,0,,,,,,,,high,24,0,24,0,1,,,,,,,,,
294766,2022-10-03_15h28.09.258,vts_reward_expectancy,2022.2.4,MacIntel,120.0048002,Chrome,1512,982,,,,,10,806,,,,,,,,,,,,,,,,,167,B,triangle,1,0,,,,,,,,,,,,,,,,switch,number,numSwt,f,0.5467,Hi,,,,,,0,,,,,,,,high,25,0,25,0,1,,,,,,,,,
294766,2022-10-03_15h28.09.258,vts_reward_expectancy,2022.2.4,MacIntel,120.0048002,Chrome,1512,982,,,,,10,816,,,,,,,,,,,,,,,,,125,H,triangle,1,0,,,,,,,,,,,,,,,,repeat,number,numRpt,d,0.5309,Hi,,,,,,0,,,,,,,,high,26,0,26,0,1,,,,,,,,,
294766,2022-10-03_15h28.09.258,vts_reward_expectancy,2022.2.4,MacIntel,120.0048002,Chrome,1512,982,,,,,10,826,,,,,,,,,,,,,,,,,146,U,hexagon,1,0,,,,,,,,,,,,,,,,switch,letter,lettSwt,k,0.5875,Lo,,,,,,0,,,,,,,,high,27,0,27,0,1,,,,,,,,,
294766,2022-10-03_15h28.09.258,vts_reward_expectancy,2022.2.4,MacIntel,120.0048002,Chrome,1512,982,,,,,1,827,,,,,,,,,,,,,,,,,174,S,hexagon,1,0,,,,,,,,,,,,,,,,repeat,letter,lettRpt,k,0.4872,Lo,,,,,,0,,,,,,,,high,28,0,28,0,1,,,,,,,,,
294766,2022-10-03_15h28.09.258,vts_reward_expectancy,2022.2.4,MacIntel,120.0048002,Chrome,1512,982,,,,,0,827,,,,,,,,,,,,,,,,,132,Y,triangle,0,0,,,,,,,,,,,,,,,,switch,number,NA,f,0.4811,Lo,,,,,,0,,,,,,,,high,29,0,29,0,1,,,,,,,,,
294766,2022-10-03_15h28.09.258,vts_reward_expectancy,2022.2.4,MacIntel,120.0048002,Chrome,1512,982,,,,,1,828,,,,,,,,,,,,,,,,,181,W,hexagon,1,1,,,,,,,,,,,,,,,,repeat,number,numRpt,f,0.5891,Lo,,,,,,0,,,,,,,,high,30,0,30,0,1,,,,,,,,,
294766,2022-10-03_15h28.09.258,vts_reward_expectancy,2022.2.4,MacIntel,120.0048002,Chrome,1512,982,,,,,10,838,,,,,,,,,,,,,,,,,160,D,triangle,1,0,,,,,,,,,,,,,,,,repeat,number,numRpt,f,0.466,Hi,,,,,,0,,,,,,,,high,31,0,31,0,1,,,,,,,,,
294766,2022-10-03_15h28.09.258,vts_reward_expectancy,2022.2.4,MacIntel,120.0048002,Chrome,1512,982,,,,,0,838,,,,,,,,,,,,,,,,,181,W,star,1,0,,,,,,,,,,,,,,,,repeat,number,numRpt,f,0.5835,Hi,,,,,,1,,,,,,space,23.0939,low,0,0,0,0,1,,,,,,,,,
294766,2022-10-03_15h28.09.258,vts_reward_expectancy,2022.2.4,MacIntel,120.0048002,Chrome,1512,982,,,,,1,839,,,,,,,,,,,,,,,,,125,U,circle,1,0,,,,,,,,,,,,,,,,repeat,number,numRpt,d,0.3528,Lo,,,,,,1,,,,,,,,low,1,0,1,0,1,,,,,,,,,
294766,2022-10-03_15h28.09.258,vts_reward_expectancy,2022.2.4,MacIntel,120.0048002,Chrome,1512,982,,,,,0,839,,,,,,,,,,,,,,,,,146,S,star,0,0,,,,,,,,,,,,,,,,switch,letter,NA,j,0.3974,Lo,,,,,,1,,,,,,,,low,2,0,2,0,1,,,,,,,,,
294766,2022-10-03_15h28.09.258,vts_reward_expectancy,2022.2.4,MacIntel,120.0048002,Chrome,1512,982,,,,,0,839,,,,,,,,,,,,,,,,,174,H,circle,0,1,,,,,,,,,,,,,,,,repeat,letter,NA,k,0.4238,Lo,,,,,,1,,,,,,,,low,3,0,3,0,1,,,,,,,,,
294766,2022-10-03_15h28.09.258,vts_reward_expectancy,2022.2.4,MacIntel,120.0048002,Chrome,1512,982,,,,,1,840,,,,,,,,,,,,,,,,,167,Y,circle,1,1,,,,,,,,,,,,,,,,switch,number,numSwt,f,0.4636,Lo,,,,,,1,,,,,,,,low,4,0,4,0,1,,,,,,,,,
294766,2022-10-03_15h28.09.258,vts_reward_expectancy,2022.2.4,MacIntel,120.0048002,Chrome,1512,982,,,,,0,840,,,,,,,,,,,,,,,,,139,B,star,1,0,,,,,,,,,,,,,,,,switch,letter,lettSwt,j,0.638,Hi,,,,,,1,,,,,,,,low,5,0,5,0,1,,,,,,,,,
294766,2022-10-03_15h28.09.258,vts_reward_expectancy,2022.2.4,MacIntel,120.0048002,Chrome,1512,982,,,,,0,840,,,,,,,,,,,,,,,,,132,F,star,0,0,,,,,,,,,,,,,,,,repeat,letter,NA,k,0.4942,Hi,,,,,,1,,,,,,,,low,6,0,6,0,1,,,,,,,,,
294766,2022-10-03_15h28.09.258,vts_reward_expectancy,2022.2.4,MacIntel,120.0048002,Chrome,1512,982,,,,,1,841,,,,,,,,,,,,,,,,,160,D,circle,1,1,,,,,,,,,,,,,,,,switch,number,numSwt,f,0.5516,Lo,,,,,,1,,,,,,,,low,7,0,7,0,1,,,,,,,,,
294766,2022-10-03_15h28.09.258,vts_reward_expectancy,2022.2.4,MacIntel,120.0048002,Chrome,1512,982,,,,,10,851,,,,,,,,,,,,,,,,,181,W,star,1,0,,,,,,,,,,,,,,,,repeat,number,numRpt,f,0.4546,Hi,,,,,,1,,,,,,,,low,8,0,8,0,1,,,,,,,,,
294766,2022-10-03_15h28.09.258,vts_reward_expectancy,2022.2.4,MacIntel,120.0048002,Chrome,1512,982,,,,,1,852,,,,,,,,,,,,,,,,,125,U,circle,1,0,,,,,,,,,,,,,,,,switch,letter,lettSwt,k,0.6388,Lo,,,,,,1,,,,,,,,low,9,0,9,0,1,,,,,,,,,
294766,2022-10-03_15h28.09.258,vts_reward_expectancy,2022.2.4,MacIntel,120.0048002,Chrome,1512,982,,,,,1,853,,,,,,,,,,,,,,,,,146,S,circle,1,0,,,,,,,,,,,,,,,,repeat,letter,lettRpt,k,0.6045,Lo,,,,,,1,,,,,,,,low,10,0,10,0,1,,,,,,,,,
294766,2022-10-03_15h28.09.258,vts_reward_expectancy,2022.2.4,MacIntel,120.0048002,Chrome,1512,982,,,,,0,853,,,,,,,,,,,,,,,,,174,H,star,1,0,,,,,,,,,,,,,,,,repeat,letter,lettRpt,j,0.6806,Hi,,,,,,1,,,,,,,,low,11,0,11,0,1,,,,,,,,,
294766,2022-10-03_15h28.09.258,vts_reward_expectancy,2022.2.4,MacIntel,120.0048002,Chrome,1512,982,,,,,10,863,,,,,,,,,,,,,,,,,167,Y,star,1,0,,,,,,,,,,,,,,,,switch,number,numSwt,f,0.4127,Hi,,,,,,1,,,,,,,,low,12,0,12,0,1,,,,,,,,,
294766,2022-10-03_15h28.09.258,vts_reward_expectancy,2022.2.4,MacIntel,120.0048002,Chrome,1512,982,,,,,10,873,,,,,,,,,,,,,,,,,139,B,circle,1,0,,,,,,,,,,,,,,,,switch,letter,lettSwt,j,0.4312,Lo,,,,,,1,,,,,,,,low,13,0,13,0,1,,,,,,,,,
294766,2022-10-03_15h28.09.258,vts_reward_expectancy,2022.2.4,MacIntel,120.0048002,Chrome,1512,982,,,,,10,883,,,,,,,,,,,,,,,,,132,F,star,1,0,,,,,,,,,,,,,,,,switch,number,numSwt,d,0.3835,Hi,,,,,,1,,,,,,,,low,14,0,14,0,1,,,,,,,,,
294766,2022-10-03_15h28.09.258,vts_reward_expectancy,2022.2.4,MacIntel,120.0048002,Chrome,1512,982,,,,,10,893,,,,,,,,,,,,,,,,,160,D,circle,1,0,,,,,,,,,,,,,,,,switch,letter,lettSwt,j,0.4547,Lo,,,,,,1,,,,,,,,low,15,0,15,0,1,,,,,,,,,
294766,2022-10-03_15h28.09.258,vts_reward_expectancy,2022.2.4,MacIntel,120.0048002,Chrome,1512,982,,,,,0,893,,,,,,,,,,,,,,,,,139,U,star,0,0,,,,,,,,,,,,,,,,switch,number,NA,f,0.4996,Lo,,,,,,1,,,,,,,,low,16,0,16,0,1,,,,,,,,,
294766,2022-10-03_15h28.09.258,vts_reward_expectancy,2022.2.4,MacIntel,120.0048002,Chrome,1512,982,,,,,1,894,,,,,,,,,,,,,,,,,125,H,circle,1,1,,,,,,,,,,,,,,,,switch,letter,lettSwt,j,0.526,Lo,,,,,,1,,,,,,,,low,17,0,17,0,1,,,,,,,,,
294766,2022-10-03_15h28.09.258,vts_reward_expectancy,2022.2.4,MacIntel,120.0048002,Chrome,1512,982,,,,,10,904,,,,,,,,,,,,,,,,,181,W,star,1,0,,,,,,,,,,,,,,,,switch,number,numSwt,f,0.3792,Hi,,,,,,1,,,,,,,,low,18,0,18,0,1,,,,,,,,,
294766,2022-10-03_15h28.09.258,vts_reward_expectancy,2022.2.4,MacIntel,120.0048002,Chrome,1512,982,,,,,10,914,,,,,,,,,,,,,,,,,174,B,circle,1,0,,,,,,,,,,,,,,,,switch,letter,lettSwt,j,0.4491,Lo,,,,,,1,,,,,,,,low,19,0,19,0,1,,,,,,,,,
294766,2022-10-03_15h28.09.258,vts_reward_expectancy,2022.2.4,MacIntel,120.0048002,Chrome,1512,982,,,,,1,915,,,,,,,,,,,,,,,,,146,S,circle,1,0,,,,,,,,,,,,,,,,switch,number,numSwt,d,0.3957,Lo,,,,,,1,,,,,,,,low,20,0,20,0,1,,,,,,,,,
294766,2022-10-03_15h28.09.258,vts_reward_expectancy,2022.2.4,MacIntel,120.0048002,Chrome,1512,982,,,,,10,925,,,,,,,,,,,,,,,,,160,F,star,1,0,,,,,,,,,,,,,,,,switch,letter,lettSwt,j,0.4518,Hi,,,,,,1,,,,,,,,low,21,0,21,0,1,,,,,,,,,
294766,2022-10-03_15h28.09.258,vts_reward_expectancy,2022.2.4,MacIntel,120.0048002,Chrome,1512,982,,,,,1,926,,,,,,,,,,,,,,,,,132,Y,circle,1,0,,,,,,,,,,,,,,,,repeat,letter,lettRpt,k,0.5243,Lo,,,,,,1,,,,,,,,low,22,0,22,0,1,,,,,,,,,
294766,2022-10-03_15h28.09.258,vts_reward_expectancy,2022.2.4,MacIntel,120.0048002,Chrome,1512,982,,,,,1,927,,,,,,,,,,,,,,,,,167,D,star,1,0,,,,,,,,,,,,,,,,switch,number,numSwt,f,0.4046,Hi,,,,,,1,,,,,,,,low,23,0,23,0,1,,,,,,,,,
294766,2022-10-03_15h28.09.258,vts_reward_expectancy,2022.2.4,MacIntel,120.0048002,Chrome,1512,982,,,,,1,928,,,,,,,,,,,,,,,,,125,W,circle,1,0,,,,,,,,,,,,,,,,repeat,number,numRpt,d,0.5,Lo,,,,,,1,,,,,,,,low,24,0,24,0,1,,,,,,,,,
294766,2022-10-03_15h28.09.258,vts_reward_expectancy,2022.2.4,MacIntel,120.0048002,Chrome,1512,982,,,,,10,938,,,,,,,,,,,,,,,,,132,D,star,1,0,,,,,,,,,,,,,,,,switch,letter,lettSwt,j,0.4969,Hi,,,,,,1,,,,,,,,low,25,0,25,0,1,,,,,,,,,
294766,2022-10-03_15h28.09.258,vts_reward_expectancy,2022.2.4,MacIntel,120.0048002,Chrome,1512,982,,,,,0,938,,,,,,,,,,,,,,,,,139,F,star,1,0,,,,,,,,,,,,,,,,switch,number,numSwt,d,0.5606,Hi,,,,,,1,,,,,,,,low,26,0,26,0,1,,,,,,,,,
294766,2022-10-03_15h28.09.258,vts_reward_expectancy,2022.2.4,MacIntel,120.0048002,Chrome,1512,982,,,,,10,948,,,,,,,,,,,,,,,,,146,B,circle,1,0,,,,,,,,,,,,,,,,switch,letter,lettSwt,j,0.4307,Lo,,,,,,1,,,,,,,,low,27,0,27,0,1,,,,,,,,,
294766,2022-10-03_15h28.09.258,vts_reward_expectancy,2022.2.4,MacIntel,120.0048002,Chrome,1512,982,,,,,0,948,,,,,,,,,,,,,,,,,174,H,star,0,0,,,,,,,,,,,,,,,,switch,number,NA,d,0.3878,Lo,,,,,,1,,,,,,,,low,28,0,28,0,1,,,,,,,,,
294766,2022-10-03_15h28.09.258,vts_reward_expectancy,2022.2.4,MacIntel,120.0048002,Chrome,1512,982,,,,,0,948,,,,,,,,,,,,,,,,,167,S,circle,0,1,,,,,,,,,,,,,,,,repeat,number,NA,d,0.5129,Lo,,,,,,1,,,,,,,,low,29,0,29,0,1,,,,,,,,,
294766,2022-10-03_15h28.09.258,vts_reward_expectancy,2022.2.4,MacIntel,120.0048002,Chrome,1512,982,,,,,1,949,,,,,,,,,,,,,,,,,181,U,circle,1,1,,,,,,,,,,,,,,,,switch,letter,lettSwt,k,0.5542,Lo,,,,,,1,,,,,,,,low,30,0,30,0,1,,,,,,,,,
294766,2022-10-03_15h28.09.258,vts_reward_expectancy,2022.2.4,MacIntel,120.0048002,Chrome,1512,982,,,,,10,959,,,,,,,,,,,,,,,,,160,Y,star,1,0,,,,,,,,,,,,,,,,switch,number,numSwt,f,0.4641,Hi,,,,,,1,,,,,,,,low,31,0,31,0,1,,,,,,,,,
294766,2022-10-03_15h28.09.258,vts_reward_expectancy,2022.2.4,MacIntel,120.0048002,Chrome,1512,982,,,,,0,959,,,,,,,,,,,,,,,,,167,U,star,1,0,,,,,,,,,,,,,,,,repeat,number,numRpt,f,0.5368,Hi,,,,,,2,,,,,,space,2.3545,low,0,0,0,0,1,,,,,,,,,
294766,2022-10-03_15h28.09.258,vts_reward_expectancy,2022.2.4,MacIntel,120.0048002,Chrome,1512,982,,,,,10,969,,,,,,,,,,,,,,,,,132,H,circle,1,0,,,,,,,,,,,,,,,,repeat,number,numRpt,d,0.4841,Lo,,,,,,2,,,,,,,,low,1,0,1,0,1,,,,,,,,,
294766,2022-10-03_15h28.09.258,vts_reward_expectancy,2022.2.4,MacIntel,120.0048002,Chrome,1512,982,,,,,0,969,,,,,,,,,,,,,,,,,125,S,star,1,0,,,,,,,,,,,,,,,,switch,letter,lettSwt,k,0.482,Hi,,,,,,2,,,,,,,,low,2,0,2,0,1,,,,,,,,,
294766,2022-10-03_15h28.09.258,vts_reward_expectancy,2022.2.4,MacIntel,120.0048002,Chrome,1512,982,,,,,1,970,,,,,,,,,,,,,,,,,181,B,circle,1,0,,,,,,,,,,,,,,,,switch,number,numSwt,f,0.372,Lo,,,,,,2,,,,,,,,low,3,0,3,0,1,,,,,,,,,
294766,2022-10-03_15h28.09.258,vts_reward_expectancy,2022.2.4,MacIntel,120.0048002,Chrome,1512,982,,,,,10,980,,,,,,,,,,,,,,,,,146,Y,circle,1,0,,,,,,,,,,,,,,,,switch,letter,lettSwt,k,0.4462,Lo,,,,,,2,,,,,,,,low,4,0,4,0,1,,,,,,,,,
294766,2022-10-03_15h28.09.258,vts_reward_expectancy,2022.2.4,MacIntel,120.0048002,Chrome,1512,982,,,,,10,990,,,,,,,,,,,,,,,,,160,D,star,1,0,,,,,,,,,,,,,,,,switch,number,numSwt,f,0.3796,Hi,,,,,,2,,,,,,,,low,5,0,5,0,1,,,,,,,,,
294766,2022-10-03_15h28.09.258,vts_reward_expectancy,2022.2.4,MacIntel,120.0048002,Chrome,1512,982,,,,,0,990,,,,,,,,,,,,,,,,,139,F,star,0,0,,,,,,,,,,,,,,,,switch,letter,NA,k,0.4647,Hi,,,,,,2,,,,,,,,low,6,0,6,0,1,,,,,,,,,
294766,2022-10-03_15h28.09.258,vts_reward_expectancy,2022.2.4,MacIntel,120.0048002,Chrome,1512,982,,,,,10,1000,,,,,,,,,,,,,,,,,174,W,circle,1,1,,,,,,,,,,,,,,,,repeat,letter,lettRpt,k,0.4865,Lo,,,,,,2,,,,,,,,low,7,0,7,0,1,,,,,,,,,
294766,2022-10-03_15h28.09.258,vts_reward_expectancy,2022.2.4,MacIntel,120.0048002,Chrome,1512,982,,,,,0,1000,,,,,,,,,,,,,,,,,167,U,star,1,0,,,,,,,,,,,,,,,,switch,number,numSwt,f,0.4997,Hi,,,,,,2,,,,,,,,low,8,0,8,0,1,,,,,,,,,
294766,2022-10-03_15h28.09.258,vts_reward_expectancy,2022.2.4,MacIntel,120.0048002,Chrome,1512,982,,,,,1,1001,,,,,,,,,,,,,,,,,132,H,circle,1,0,,,,,,,,,,,,,,,,repeat,number,numRpt,d,0.5786,Lo,,,,,,2,,,,,,,,low,9,0,9,0,1,,,,,,,,,
294766,2022-10-03_15h28.09.258,vts_reward_expectancy,2022.2.4,MacIntel,120.0048002,Chrome,1512,982,,,,,0,1001,,,,,,,,,,,,,,,,,125,S,star,0,0,,,,,,,,,,,,,,,,repeat,number,NA,f,0.6955,Lo,,,,,,2,,,,,,,,low,10,0,10,0,1,,,,,,,,,
294766,2022-10-03_15h28.09.258,vts_reward_expectancy,2022.2.4,MacIntel,120.0048002,Chrome,1512,982,,,,,1,1002,,,,,,,,,,,,,,,,,181,B,circle,1,1,,,,,,,,,,,,,,,,switch,letter,lettSwt,j,0.4702,Lo,,,,,,2,,,,,,,,low,11,0,11,0,1,,,,,,,,,
294766,2022-10-03_15h28.09.258,vts_reward_expectancy,2022.2.4,MacIntel,120.0048002,Chrome,1512,982,,,,,0,1002,,,,,,,,,,,,,,,,,146,Y,star,0,0,,,,,,,,,,,,,,,,switch,number,NA,f,0.4694,Lo,,,,,,2,,,,,,,,low,12,0,12,0,1,,,,,,,,,
294766,2022-10-03_15h28.09.258,vts_reward_expectancy,2022.2.4,MacIntel,120.0048002,Chrome,1512,982,,,,,1,1003,,,,,,,,,,,,,,,,,160,D,circle,1,1,,,,,,,,,,,,,,,,repeat,number,numRpt,f,0.445,Lo,,,,,,2,,,,,,,,low,13,0,13,0,1,,,,,,,,,
294766,2022-10-03_15h28.09.258,vts_reward_expectancy,2022.2.4,MacIntel,120.0048002,Chrome,1512,982,,,,,1,1004,,,,,,,,,,,,,,,,,139,F,circle,1,0,,,,,,,,,,,,,,,,switch,letter,lettSwt,j,0.4669,Lo,,,,,,2,,,,,,,,low,14,0,14,0,1,,,,,,,,,
294766,2022-10-03_15h28.09.258,vts_reward_expectancy,2022.2.4,MacIntel,120.0048002,Chrome,1512,982,,,,,0,1004,,,,,,,,,,,,,,,,,174,W,star,1,0,,,,,,,,,,,,,,,,switch,number,numSwt,f,0.4156,Hi,,,,,,2,,,,,,,,low,15,0,15,0,1,,,,,,,,,
294766,2022-10-03_15h28.09.258,vts_reward_expectancy,2022.2.4,MacIntel,120.0048002,Chrome,1512,982,,,,,10,1014,,,,,,,,,,,,,,,,,125,W,circle,1,0,,,,,,,,,,,,,,,,switch,letter,lettSwt,k,0.459,Lo,,,,,,2,,,,,,,,low,16,0,16,0,1,,,,,,,,,
294766,2022-10-03_15h28.09.258,vts_reward_expectancy,2022.2.4,MacIntel,120.0048002,Chrome,1512,982,,,,,0,1014,,,,,,,,,,,,,,,,,146,D,star,0,0,,,,,,,,,,,,,,,,switch,number,NA,f,0.3459,Lo,,,,,,2,,,,,,,,low,17,0,17,0,1,,,,,,,,,
294766,2022-10-03_15h28.09.258,vts_reward_expectancy,2022.2.4,MacIntel,120.0048002,Chrome,1512,982,,,,,10,1024,,,,,,,,,,,,,,,,,181,Y,circle,1,1,,,,,,,,,,,,,,,,switch,letter,lettSwt,k,0.458,Lo,,,,,,2,,,,,,,,low,18,0,18,0,1,,,,,,,,,
294766,2022-10-03_15h28.09.258,vts_reward_expectancy,2022.2.4,MacIntel,120.0048002,Chrome,1512,982,,,,,1,1025,,,,,,,,,,,,,,,,,132,B,star,1,0,,,,,,,,,,,,,,,,repeat,letter,lettRpt,j,0.4128,Hi,,,,,,2,,,,,,,,low,19,0,19,0,1,,,,,,,,,
294766,2022-10-03_15h28.09.258,vts_reward_expectancy,2022.2.4,MacIntel,120.0048002,Chrome,1512,982,,,,,0,1025,,,,,,,,,,,,,,,,,174,H,star,1,0,,,,,,,,,,,,,,,,switch,number,numSwt,f,0.4293,Hi,,,,,,2,,,,,,,,low,20,0,20,0,1,,,,,,,,,
294766,2022-10-03_15h28.09.258,vts_reward_expectancy,2022.2.4,MacIntel,120.0048002,Chrome,1512,982,,,,,1,1026,,,,,,,,,,,,,,,,,167,F,circle,1,0,,,,,,,,,,,,,,,,switch,letter,lettSwt,j,0.591,Lo,,,,,,2,,,,,,,,low,21,0,21,0,1,,,,,,,,,
294766,2022-10-03_15h28.09.258,vts_reward_expectancy,2022.2.4,MacIntel,120.0048002,Chrome,1512,982,,,,,0,1026,,,,,,,,,,,,,,,,,139,S,star,0,0,,,,,,,,,,,,,,,,switch,number,NA,f,0.4982,Lo,,,,,,2,,,,,,,,low,22,0,22,0,1,,,,,,,,,
294766,2022-10-03_15h28.09.258,vts_reward_expectancy,2022.2.4,MacIntel,120.0048002,Chrome,1512,982,,,,,0,1026,,,,,,,,,,,,,,,,,160,U,circle,0,1,,,,,,,,,,,,,,,,switch,letter,NA,j,0.5646,Lo,,,,,,2,,,,,,,,low,23,0,23,0,1,,,,,,,,,
294766,2022-10-03_15h28.09.258,vts_reward_expectancy,2022.2.4,MacIntel,120.0048002,Chrome,1512,982,,,,,0,1026,,,,,,,,,,,,,,,,,160,H,star,0,1,,,,,,,,,,,,,,,,repeat,letter,NA,k,0.5327,Lo,,,,,,2,,,,,,,,low,24,0,24,0,1,,,,,,,,,
294766,2022-10-03_15h28.09.258,vts_reward_expectancy,2022.2.4,MacIntel,120.0048002,Chrome,1512,982,,,,,0,1026,,,,,,,,,,,,,,,,,139,Y,circle,0,1,,,,,,,,,,,,,,,,repeat,letter,NA,j,0.6059,Lo,,,,,,2,,,,,,,,low,25,0,25,0,1,,,,,,,,,
294766,2022-10-03_15h28.09.258,vts_reward_expectancy,2022.2.4,MacIntel,120.0048002,Chrome,1512,982,,,,,0,1026,,,,,,,,,,,,,,,,,181,D,star,0,1,,,,,,,,,,,,,,,,repeat,letter,NA,k,0.523,Lo,,,,,,2,,,,,,,,low,26,0,26,0,1,,,,,,,,,
294766,2022-10-03_15h28.09.258,vts_reward_expectancy,2022.2.4,MacIntel,120.0048002,Chrome,1512,982,,,,,1,1027,,,,,,,,,,,,,,,,,132,B,circle,1,1,,,,,,,,,,,,,,,,switch,number,numSwt,d,0.6041,Lo,,,,,,2,,,,,,,,low,27,0,27,0,1,,,,,,,,,
294766,2022-10-03_15h28.09.258,vts_reward_expectancy,2022.2.4,MacIntel,120.0048002,Chrome,1512,982,,,,,1,1028,,,,,,,,,,,,,,,,,167,S,circle,1,0,,,,,,,,,,,,,,,,switch,letter,lettSwt,k,0.5717,Lo,,,,,,2,,,,,,,,low,28,0,28,0,1,,,,,,,,,
294766,2022-10-03_15h28.09.258,vts_reward_expectancy,2022.2.4,MacIntel,120.0048002,Chrome,1512,982,,,,,0,1028,,,,,,,,,,,,,,,,,125,F,star,1,0,,,,,,,,,,,,,,,,switch,number,numSwt,d,0.4287,Hi,,,,,,2,,,,,,,,low,29,0,29,0,1,,,,,,,,,
294766,2022-10-03_15h28.09.258,vts_reward_expectancy,2022.2.4,MacIntel,120.0048002,Chrome,1512,982,,,,,10,1038,,,,,,,,,,,,,,,,,146,W,circle,1,0,,,,,,,,,,,,,,,,switch,letter,lettSwt,k,0.5426,Lo,,,,,,2,,,,,,,,low,30,0,30,0,1,,,,,,,,,
294766,2022-10-03_15h28.09.258,vts_reward_expectancy,2022.2.4,MacIntel,120.0048002,Chrome,1512,982,,,,,10,1048,,,,,,,,,,,,,,,,,174,U,star,1,0,,,,,,,,,,,,,,,,repeat,letter,lettRpt,k,0.4317,Hi,,,,,,2,,,,,,,,low,31,0,31,0,1,,,,,,,,,
294766,2022-10-03_15h28.09.258,vts_reward_expectancy,2022.2.4,MacIntel,120.0048002,Chrome,1512,982,,,,,10,1058,,,,,,,,,,,,,,,,,181,D,hexagon,1,0,,,,,,,,,,,,,,,,switch,number,numSwt,f,0.4471,Lo,,,,,,3,,,,,,space,0.8957,high,0,0,0,0,1,,,,,,,,,
294766,2022-10-03_15h28.09.258,vts_reward_expectancy,2022.2.4,MacIntel,120.0048002,Chrome,1512,982,,,,,0,1058,,,,,,,,,,,,,,,,,160,S,triangle,0,0,,,,,,,,,,,,,,,,switch,letter,NA,j,0.4971,Lo,,,,,,3,,,,,,,,high,1,0,1,0,1,,,,,,,,,
294766,2022-10-03_15h28.09.258,vts_reward_expectancy,2022.2.4,MacIntel,120.0048002,Chrome,1512,982,,,,,1,1059,,,,,,,,,,,,,,,,,146,F,hexagon,1,1,,,,,,,,,,,,,,,,switch,number,numSwt,d,0.5072,Lo,,,,,,3,,,,,,,,high,2,0,2,0,1,,,,,,,,,
294766,2022-10-03_15h28.09.258,vts_reward_expectancy,2022.2.4,MacIntel,120.0048002,Chrome,1512,982,,,,,10,1069,,,,,,,,,,,,,,,,,167,Y,triangle,1,0,,,,,,,,,,,,,,,,switch,letter,lettSwt,k,0.448,Hi,,,,,,3,,,,,,,,high,3,0,3,0,1,,,,,,,,,
294766,2022-10-03_15h28.09.258,vts_reward_expectancy,2022.2.4,MacIntel,120.0048002,Chrome,1512,982,,,,,0,1069,,,,,,,,,,,,,,,,,174,U,triangle,1,0,,,,,,,,,,,,,,,,repeat,letter,lettRpt,k,0.4482,Hi,,,,,,3,,,,,,,,high,4,0,4,0,1,,,,,,,,,
294766,2022-10-03_15h28.09.258,vts_reward_expectancy,2022.2.4,MacIntel,120.0048002,Chrome,1512,982,,,,,10,1079,,,,,,,,,,,,,,,,,125,H,hexagon,1,0,,,,,,,,,,,,,,,,repeat,letter,lettRpt,j,0.6283,Lo,,,,,,3,,,,,,,,high,5,0,5,0,1,,,,,,,,,
294766,2022-10-03_15h28.09.258,vts_reward_expectancy,2022.2.4,MacIntel,120.0048002,Chrome,1512,982,,,,,1,1080,,,,,,,,,,,,,,,,,139,B,hexagon,1,0,,,,,,,,,,,,,,,,switch,number,numSwt,d,0.4311,Lo,,,,,,3,,,,,,,,high,6,0,6,0,1,,,,,,,,,
294766,2022-10-03_15h28.09.258,vts_reward_expectancy,2022.2.4,MacIntel,120.0048002,Chrome,1512,982,,,,,10,1090,,,,,,,,,,,,,,,,,132,W,triangle,1,0,,,,,,,,,,,,,,,,repeat,number,numRpt,d,0.4358,Hi,,,,,,3,,,,,,,,high,7,0,7,0,1,,,,,,,,,
294766,2022-10-03_15h28.09.258,vts_reward_expectancy,2022.2.4,MacIntel,120.0048002,Chrome,1512,982,,,,,10,1100,,,,,,,,,,,,,,,,,181,D,triangle,1,0,,,,,,,,,,,,,,,,repeat,number,numRpt,f,0.4019,Hi,,,,,,3,,,,,,,,high,8,0,8,0,1,,,,,,,,,
294766,2022-10-03_15h28.09.258,vts_reward_expectancy,2022.2.4,MacIntel,120.0048002,Chrome,1512,982,,,,,10,1110,,,,,,,,,,,,,,,,,160,S,hexagon,1,0,,,,,,,,,,,,,,,,switch,letter,lettSwt,k,0.4533,Lo,,,,,,3,,,,,,,,high,9,0,9,0,1,,,,,,,,,
294766,2022-10-03_15h28.09.258,vts_reward_expectancy,2022.2.4,MacIntel,120.0048002,Chrome,1512,982,,,,,1,1111,,,,,,,,,,,,,,,,,146,F,hexagon,1,0,,,,,,,,,,,,,,,,switch,number,numSwt,d,0.5046,Lo,,,,,,3,,,,,,,,high,10,0,10,0,1,,,,,,,,,
294766,2022-10-03_15h28.09.258,vts_reward_expectancy,2022.2.4,MacIntel,120.0048002,Chrome,1512,982,,,,,10,1121,,,,,,,,,,,,,,,,,167,Y,triangle,1,0,,,,,,,,,,,,,,,,switch,letter,lettSwt,k,0.437,Hi,,,,,,3,,,,,,,,high,11,0,11,0,1,,,,,,,,,
294766,2022-10-03_15h28.09.258,vts_reward_expectancy,2022.2.4,MacIntel,120.0048002,Chrome,1512,982,,,,,0,1121,,,,,,,,,,,,,,,,,174,U,triangle,1,0,,,,,,,,,,,,,,,,switch,number,numSwt,f,0.5007,Hi,,,,,,3,,,,,,,,high,12,0,12,0,1,,,,,,,,,
294766,2022-10-03_15h28.09.258,vts_reward_expectancy,2022.2.4,MacIntel,120.0048002,Chrome,1512,982,,,,,1,1122,,,,,,,,,,,,,,,,,125,H,hexagon,1,0,,,,,,,,,,,,,,,,switch,letter,lettSwt,j,0.546,Lo,,,,,,3,,,,,,,,high,13,0,13,0,1,,,,,,,,,
294766,2022-10-03_15h28.09.258,vts_reward_expectancy,2022.2.4,MacIntel,120.0048002,Chrome,1512,982,,,,,0,1122,,,,,,,,,,,,,,,,,139,B,triangle,0,0,,,,,,,,,,,,,,,,switch,number,NA,f,0.538,Lo,,,,,,3,,,,,,,,high,14,0,14,0,1,,,,,,,,,
294766,2022-10-03_15h28.09.258,vts_reward_expectancy,2022.2.4,MacIntel,120.0048002,Chrome,1512,982,,,,,1,1123,,,,,,,,,,,,,,,,,132,W,hexagon,1,1,,,,,,,,,,,,,,,,repeat,number,numRpt,d,0.4882,Lo,,,,,,3,,,,,,,,high,15,0,15,0,1,,,,,,,,,
294766,2022-10-03_15h28.09.258,vts_reward_expectancy,2022.2.4,MacIntel,120.0048002,Chrome,1512,982,,,,,0,1123,,,,,,,,,,,,,,,,,146,S,hexagon,0,0,,,,,,,,,,,,,,,,switch,letter,NA,j,0.3839,Lo,,,,,,3,,,,,,,,high,16,0,16,0,1,,,,,,,,,
294766,2022-10-03_15h28.09.258,vts_reward_expectancy,2022.2.4,MacIntel,120.0048002,Chrome,1512,982,,,,,0,1123,,,,,,,,,,,,,,,,,139,B,triangle,1,1,,,,,,,,,,,,,,,,repeat,letter,lettRpt,j,0.4505,Hi,,,,,,3,,,,,,,,high,17,0,17,0,1,,,,,,,,,
294766,2022-10-03_15h28.09.258,vts_reward_expectancy,2022.2.4,MacIntel,120.0048002,Chrome,1512,982,,,,,1,1124,,,,,,,,,,,,,,,,,125,D,hexagon,1,0,,,,,,,,,,,,,,,,switch,number,numSwt,d,0.4351,Lo,,,,,,3,,,,,,,,high,18,0,18,0,1,,,,,,,,,
294766,2022-10-03_15h28.09.258,vts_reward_expectancy,2022.2.4,MacIntel,120.0048002,Chrome,1512,982,,,,,0,1124,,,,,,,,,,,,,,,,,181,F,triangle,0,0,,,,,,,,,,,,,,,,switch,letter,NA,k,0.4086,Lo,,,,,,3,,,,,,,,high,19,0,19,0,1,,,,,,,,,
294766,2022-10-03_15h28.09.258,vts_reward_expectancy,2022.2.4,MacIntel,120.0048002,Chrome,1512,982,,,,,1,1125,,,,,,,,,,,,,,,,,167,H,hexagon,1,1,,,,,,,,,,,,,,,,repeat,letter,lettRpt,j,0.5233,Lo,,,,,,3,,,,,,,,high,20,0,20,0,1,,,,,,,,,
294766,2022-10-03_15h28.09.258,vts_reward_expectancy,2022.2.4,MacIntel,120.0048002,Chrome,1512,982,,,,,0,1125,,,,,,,,,,,,,,,,,174,W,triangle,1,0,,,,,,,,,,,,,,,,switch,number,numSwt,f,0.5365,Hi,,,,,,3,,,,,,,,high,21,0,21,0,1,,,,,,,,,
294766,2022-10-03_15h28.09.258,vts_reward_expectancy,2022.2.4,MacIntel,120.0048002,Chrome,1512,982,,,,,1,1126,,,,,,,,,,,,,,,,,132,Y,hexagon,1,0,,,,,,,,,,,,,,,,repeat,number,numRpt,d,0.4301,Lo,,,,,,3,,,,,,,,high,22,0,22,0,1,,,,,,,,,
294766,2022-10-03_15h28.09.258,vts_reward_expectancy,2022.2.4,MacIntel,120.0048002,Chrome,1512,982,,,,,0,1126,,,,,,,,,,,,,,,,,160,U,triangle,1,0,,,,,,,,,,,,,,,,switch,letter,lettSwt,k,0.5052,Hi,,,,,,3,,,,,,,,high,23,0,23,0,1,,,,,,,,,
294766,2022-10-03_15h28.09.258,vts_reward_expectancy,2022.2.4,MacIntel,120.0048002,Chrome,1512,982,,,,,0,1126,,,,,,,,,,,,,,,,,181,F,triangle,1,0,,,,,,,,,,,,,,,,switch,number,numSwt,f,0.5064,Hi,,,,,,3,,,,,,,,high,24,0,24,0,1,,,,,,,,,
294766,2022-10-03_15h28.09.258,vts_reward_expectancy,2022.2.4,MacIntel,120.0048002,Chrome,1512,982,,,,,1,1127,,,,,,,,,,,,,,,,,139,D,hexagon,1,0,,,,,,,,,,,,,,,,switch,letter,lettSwt,j,0.4879,Lo,,,,,,3,,,,,,,,high,25,0,25,0,1,,,,,,,,,
294766,2022-10-03_15h28.09.258,vts_reward_expectancy,2022.2.4,MacIntel,120.0048002,Chrome,1512,982,,,,,1,1128,,,,,,,,,,,,,,,,,132,U,hexagon,1,0,,,,,,,,,,,,,,,,switch,number,numSwt,d,0.4746,Lo,,,,,,3,,,,,,,,high,26,0,26,0,1,,,,,,,,,
294766,2022-10-03_15h28.09.258,vts_reward_expectancy,2022.2.4,MacIntel,120.0048002,Chrome,1512,982,,,,,0,1128,,,,,,,,,,,,,,,,,167,S,triangle,1,0,,,,,,,,,,,,,,,,switch,letter,lettSwt,k,0.5562,Hi,,,,,,3,,,,,,,,high,27,0,27,0,1,,,,,,,,,
294766,2022-10-03_15h28.09.258,vts_reward_expectancy,2022.2.4,MacIntel,120.0048002,Chrome,1512,982,,,,,0,1128,,,,,,,,,,,,,,,,,146,Y,hexagon,0,0,,,,,,,,,,,,,,,,switch,number,NA,f,0.4376,Hi,,,,,,3,,,,,,,,high,28,0,28,0,1,,,,,,,,,
294766,2022-10-03_15h28.09.258,vts_reward_expectancy,2022.2.4,MacIntel,120.0048002,Chrome,1512,982,,,,,0,1128,,,,,,,,,,,,,,,,,174,H,triangle,1,1,,,,,,,,,,,,,,,,repeat,number,numRpt,f,0.5062,Hi,,,,,,3,,,,,,,,high,29,0,29,0,1,,,,,,,,,
294766,2022-10-03_15h28.09.258,vts_reward_expectancy,2022.2.4,MacIntel,120.0048002,Chrome,1512,982,,,,,1,1129,,,,,,,,,,,,,,,,,160,W,hexagon,1,0,,,,,,,,,,,,,,,,switch,letter,lettSwt,k,0.4954,Lo,,,,,,3,,,,,,,,high,30,0,30,0,1,,,,,,,,,
294766,2022-10-03_15h28.09.258,vts_reward_expectancy,2022.2.4,MacIntel,120.0048002,Chrome,1512,982,,,,,0,1129,,,,,,,,,,,,,,,,,125,B,triangle,1,0,,,,,,,,,,,,,,,,switch,number,numSwt,d,0.5116,Hi,,,,,,3,,,,,,,,high,31,0,31,0,1,,,,,,,,,
294766,2022-10-03_15h28.09.258,vts_reward_expectancy,2022.2.4,MacIntel,120.0048002,Chrome,1512,982,,,,,1,1130,,,,,,,,,,,,,,,,,160,Y,hexagon,1,0,,,,,,,,,,,,,,,,repeat,number,numRpt,f,0.4559,Lo,,,,,,4,,,,,,space,0.9796,high,0,0,0,0,1,,,,,,,,,
294766,2022-10-03_15h28.09.258,vts_reward_expectancy,2022.2.4,MacIntel,120.0048002,Chrome,1512,982,,,,,10,1140,,,,,,,,,,,,,,,,,139,B,triangle,1,0,,,,,,,,,,,,,,,,switch,letter,lettSwt,j,0.4491,Hi,,,,,,4,,,,,,,,high,1,0,1,0,1,,,,,,,,,
294766,2022-10-03_15h28.09.258,vts_reward_expectancy,2022.2.4,MacIntel,120.0048002,Chrome,1512,982,,,,,0,1140,,,,,,,,,,,,,,,,,125,U,hexagon,0,0,,,,,,,,,,,,,,,,repeat,letter,NA,j,0.4627,Hi,,,,,,4,,,,,,,,high,2,0,2,0,1,,,,,,,,,
294766,2022-10-03_15h28.09.258,vts_reward_expectancy,2022.2.4,MacIntel,120.0048002,Chrome,1512,982,,,,,0,1140,,,,,,,,,,,,,,,,,167,F,triangle,1,1,,,,,,,,,,,,,,,,repeat,letter,lettRpt,j,0.5813,Hi,,,,,,4,,,,,,,,high,3,0,3,0,1,,,,,,,,,
294766,2022-10-03_15h28.09.258,vts_reward_expectancy,2022.2.4,MacIntel,120.0048002,Chrome,1512,982,,,,,0,1140,,,,,,,,,,,,,,,,,181,S,triangle,1,0,,,,,,,,,,,,,,,,repeat,letter,lettRpt,k,0.5706,Hi,,,,,,4,,,,,,,,high,4,0,4,0,1,,,,,,,,,
294766,2022-10-03_15h28.09.258,vts_reward_expectancy,2022.2.4,MacIntel,120.0048002,Chrome,1512,982,,,,,1,1141,,,,,,,,,,,,,,,,,146,H,hexagon,1,0,,,,,,,,,,,,,,,,repeat,letter,lettRpt,j,0.5355,Lo,,,,,,4,,,,,,,,high,5,0,5,0,1,,,,,,,,,
294766,2022-10-03_15h28.09.258,vts_reward_expectancy,2022.2.4,MacIntel,120.0048002,Chrome,1512,982,,,,,1,1142,,,,,,,,,,,,,,,,,132,W,hexagon,1,0,,,,,,,,,,,,,,,,repeat,letter,lettRpt,k,0.4375,Lo,,,,,,4,,,,,,,,high,6,0,6,0,1,,,,,,,,,
294766,2022-10-03_15h28.09.258,vts_reward_expectancy,2022.2.4,MacIntel,120.0048002,Chrome,1512,982,,,,,10,1152,,,,,,,,,,,,,,,,,174,D,triangle,1,0,,,,,,,,,,,,,,,,switch,number,numSwt,f,0.3728,Hi,,,,,,4,,,,,,,,high,7,0,7,0,1,,,,,,,,,
294766,2022-10-03_15h28.09.258,vts_reward_expectancy,2022.2.4,MacIntel,120.0048002,Chrome,1512,982,,,,,1,1153,,,,,,,,,,,,,,,,,160,Y,hexagon,1,0,,,,,,,,,,,,,,,,repeat,number,numRpt,f,0.5684,Lo,,,,,,4,,,,,,,,high,8,0,8,0,1,,,,,,,,,
294766,2022-10-03_15h28.09.258,vts_reward_expectancy,2022.2.4,MacIntel,120.0048002,Chrome,1512,982,,,,,10,1163,,,,,,,,,,,,,,,,,139,B,triangle,1,0,,,,,,,,,,,,,,,,switch,letter,lettSwt,j,0.3949,Hi,,,,,,4,,,,,,,,high,9,0,9,0,1,,,,,,,,,
294766,2022-10-03_15h28.09.258,vts_reward_expectancy,2022.2.4,MacIntel,120.0048002,Chrome,1512,982,,,,,10,1173,,,,,,,,,,,,,,,,,125,U,triangle,1,0,,,,,,,,,,,,,,,,repeat,letter,lettRpt,k,0.3791,Hi,,,,,,4,,,,,,,,high,10,0,10,0,1,,,,,,,,,
294766,2022-10-03_15h28.09.258,vts_reward_expectancy,2022.2.4,MacIntel,120.0048002,Chrome,1512,982,,,,,1,1174,,,,,,,,,,,,,,,,,167,F,hexagon,1,0,,,,,,,,,,,,,,,,switch,number,numSwt,f,0.4403,Lo,,,,,,4,,,,,,,,high,11,0,11,0,1,,,,,,,,,
294766,2022-10-03_15h28.09.258,vts_reward_expectancy,2022.2.4,MacIntel,120.0048002,Chrome,1512,982,,,,,1,1175,,,,,,,,,,,,,,,,,181,S,hexagon,1,0,,,,,,,,,,,,,,,,repeat,number,numRpt,f,0.4439,Lo,,,,,,4,,,,,,,,high,12,0,12,0,1,,,,,,,,,
294766,2022-10-03_15h28.09.258,vts_reward_expectancy,2022.2.4,MacIntel,120.0048002,Chrome,1512,982,,,,,0,1175,,,,,,,,,,,,,,,,,146,H,triangle,1,0,,,,,,,,,,,,,,,,switch,letter,lettSwt,j,0.5155,Hi,,,,,,4,,,,,,,,high,13,0,13,0,1,,,,,,,,,
294766,2022-10-03_15h28.09.258,vts_reward_expectancy,2022.2.4,MacIntel,120.0048002,Chrome,1512,982,,,,,1,1176,,,,,,,,,,,,,,,,,132,W,hexagon,1,0,,,,,,,,,,,,,,,,repeat,letter,lettRpt,k,0.4174,Lo,,,,,,4,,,,,,,,high,14,0,14,0,1,,,,,,,,,
294766,2022-10-03_15h28.09.258,vts_reward_expectancy,2022.2.4,MacIntel,120.0048002,Chrome,1512,982,,,,,10,1186,,,,,,,,,,,,,,,,,174,D,triangle,1,0,,,,,,,,,,,,,,,,repeat,letter,lettRpt,j,0.4282,Hi,,,,,,4,,,,,,,,high,15,0,15,0,1,,,,,,,,,
294766,2022-10-03_15h28.09.258,vts_reward_expectancy,2022.2.4,MacIntel,120.0048002,Chrome,1512,982,,,,,0,1186,,,,,,,,,,,,,,,,,146,D,triangle,0,0,,,,,,,,,,,,,,,,switch,number,NA,f,0.5463,Hi,,,,,,4,,,,,,,,high,16,0,16,0,1,,,,,,,,,
294766,2022-10-03_15h28.09.258,vts_reward_expectancy,2022.2.4,MacIntel,120.0048002,Chrome,1512,982,,,,,1,1187,,,,,,,,,,,,,,,,,160,H,hexagon,1,1,,,,,,,,,,,,,,,,switch,letter,lettSwt,j,0.4487,Lo,,,,,,4,,,,,,,,high,17,0,17,0,1,,,,,,,,,
294766,2022-10-03_15h28.09.258,vts_reward_expectancy,2022.2.4,MacIntel,120.0048002,Chrome,1512,982,,,,,0,1187,,,,,,,,,,,,,,,,,125,Y,triangle,1,0,,,,,,,,,,,,,,,,switch,number,numSwt,d,0.5284,Hi,,,,,,4,,,,,,,,high,18,0,18,0,1,,,,,,,,,
294766,2022-10-03_15h28.09.258,vts_reward_expectancy,2022.2.4,MacIntel,120.0048002,Chrome,1512,982,,,,,1,1188,,,,,,,,,,,,,,,,,167,S,hexagon,1,0,,,,,,,,,,,,,,,,repeat,number,numRpt,f,0.4058,Lo,,,,,,4,,,,,,,,high,19,0,19,0,1,,,,,,,,,
294766,2022-10-03_15h28.09.258,vts_reward_expectancy,2022.2.4,MacIntel,120.0048002,Chrome,1512,982,,,,,0,1188,,,,,,,,,,,,,,,,,139,W,triangle,0,0,,,,,,,,,,,,,,,,switch,letter,NA,j,0.3334,Lo,,,,,,4,,,,,,,,high,20,0,20,0,1,,,,,,,,,
294766,2022-10-03_15h28.09.258,vts_reward_expectancy,2022.2.4,MacIntel,120.0048002,Chrome,1512,982,,,,,10,1198,,,,,,,,,,,,,,,,,132,F,hexagon,1,1,,,,,,,,,,,,,,,,repeat,letter,lettRpt,j,0.5146,Lo,,,,,,4,,,,,,,,high,21,0,21,0,1,,,,,,,,,
294766,2022-10-03_15h28.09.258,vts_reward_expectancy,2022.2.4,MacIntel,120.0048002,Chrome,1512,982,,,,,10,1208,,,,,,,,,,,,,,,,,181,B,triangle,1,0,,,,,,,,,,,,,,,,switch,number,numSwt,f,0.4207,Hi,,,,,,4,,,,,,,,high,22,0,22,0,1,,,,,,,,,
294766,2022-10-03_15h28.09.258,vts_reward_expectancy,2022.2.4,MacIntel,120.0048002,Chrome,1512,982,,,,,0,1208,,,,,,,,,,,,,,,,,174,U,hexagon,0,0,,,,,,,,,,,,,,,,switch,letter,NA,j,0.4827,Hi,,,,,,4,,,,,,,,high,23,0,23,0,1,,,,,,,,,
294766,2022-10-03_15h28.09.258,vts_reward_expectancy,2022.2.4,MacIntel,120.0048002,Chrome,1512,982,,,,,10,1218,,,,,,,,,,,,,,,,,174,W,triangle,1,1,,,,,,,,,,,,,,,,repeat,letter,lettRpt,k,0.3949,Hi,,,,,,4,,,,,,,,high,24,0,24,0,1,,,,,,,,,
294766,2022-10-03_15h28.09.258,vts_reward_expectancy,2022.2.4,MacIntel,120.0048002,Chrome,1512,982,,,,,1,1219,,,,,,,,,,,,,,,,,181,U,hexagon,1,0,,,,,,,,,,,,,,,,repeat,letter,lettRpt,k,0.5515,Lo,,,,,,4,,,,,,,,high,25,0,25,0,1,,,,,,,,,
294766,2022-10-03_15h28.09.258,vts_reward_expectancy,2022.2.4,MacIntel,120.0048002,Chrome,1512,982,,,,,1,1220,,,,,,,,,,,,,,,,,132,H,hexagon,1,0,,,,,,,,,,,,,,,,switch,number,numSwt,d,0.4389,Lo,,,,,,4,,,,,,,,high,26,0,26,0,1,,,,,,,,,
294766,2022-10-03_15h28.09.258,vts_reward_expectancy,2022.2.4,MacIntel,120.0048002,Chrome,1512,982,,,,,0,1220,,,,,,,,,,,,,,,,,146,Y,triangle,1,0,,,,,,,,,,,,,,,,repeat,number,numRpt,d,0.4625,Hi,,,,,,4,,,,,,,,high,27,0,27,0,1,,,,,,,,,
294766,2022-10-03_15h28.09.258,vts_reward_expectancy,2022.2.4,MacIntel,120.0048002,Chrome,1512,982,,,,,0,1220,,,,,,,,,,,,,,,,,139,S,hexagon,0,0,,,,,,,,,,,,,,,,switch,letter,NA,j,0.5635,Hi,,,,,,4,,,,,,,,high,28,0,28,0,1,,,,,,,,,
294766,2022-10-03_15h28.09.258,vts_reward_expectancy,2022.2.4,MacIntel,120.0048002,Chrome,1512,982,,,,,0,1220,,,,,,,,,,,,,,,,,125,B,triangle,1,1,,,,,,,,,,,,,,,,repeat,letter,lettRpt,j,0.5448,Hi,,,,,,4,,,,,,,,high,29,0,29,0,1,,,,,,,,,
294766,2022-10-03_15h28.09.258,vts_reward_expectancy,2022.2.4,MacIntel,120.0048002,Chrome,1512,982,,,,,0,1220,,,,,,,,,,,,,,,,,160,F,triangle,1,0,,,,,,,,,,,,,,,,repeat,letter,lettRpt,j,0.5179,Hi,,,,,,4,,,,,,,,high,30,0,30,0,1,,,,,,,,,
294766,2022-10-03_15h28.09.258,vts_reward_expectancy,2022.2.4,MacIntel,120.0048002,Chrome,1512,982,,,,,1,1221,,,,,,,,,,,,,,,,,167,D,hexagon,1,0,,,,,,,,,,,,,,,,repeat,letter,lettRpt,j,0.427,Lo,,,,,,4,,,,,,,,high,31,0,31,0,1,,,,,,,,,
294766,2022-10-03_15h28.09.258,vts_reward_expectancy,2022.2.4,MacIntel,120.0048002,Chrome,1512,982,,,,,0,1221,,,,,,,,,,,,,,,,,146,Y,circle,0,0,,,,,,,,,,,,,,,,switch,number,NA,f,0.4113,Lo,,,,,,5,,,,,,space,1.3715,low,0,0,0,0,1,,,,,,,,,
294766,2022-10-03_15h28.09.258,vts_reward_expectancy,2022.2.4,MacIntel,120.0048002,Chrome,1512,982,,,,,0,1221,,,,,,,,,,,,,,,,,125,W,star,1,1,,,,,,,,,,,,,,,,switch,letter,lettSwt,k,0.6925,Hi,,,,,,5,,,,,,,,low,1,0,1,0,1,,,,,,,,,
294766,2022-10-03_15h28.09.258,vts_reward_expectancy,2022.2.4,MacIntel,120.0048002,Chrome,1512,982,,,,,0,1221,,,,,,,,,,,,,,,,,174,S,circle,0,0,,,,,,,,,,,,,,,,repeat,letter,NA,j,0.6029,Hi,,,,,,5,,,,,,,,low,2,0,2,0,1,,,,,,,,,
294766,2022-10-03_15h28.09.258,vts_reward_expectancy,2022.2.4,MacIntel,120.0048002,Chrome,1512,982,,,,,0,1221,,,,,,,,,,,,,,,,,181,B,star,1,1,,,,,,,,,,,,,,,,repeat,letter,lettRpt,j,0.4815,Hi,,,,,,5,,,,,,,,low,3,0,3,0,1,,,,,,,,,
294766,2022-10-03_15h28.09.258,vts_reward_expectancy,2022.2.4,MacIntel,120.0048002,Chrome,1512,982,,,,,10,1231,,,,,,,,,,,,,,,,,132,D,circle,1,0,,,,,,,,,,,,,,,,switch,number,numSwt,d,0.4042,Lo,,,,,,5,,,,,,,,low,4,0,4,0,1,,,,,,,,,
294766,2022-10-03_15h28.09.258,vts_reward_expectancy,2022.2.4,MacIntel,120.0048002,Chrome,1512,982,,,,,0,1231,,,,,,,,,,,,,,,,,139,F,star,1,0,,,,,,,,,,,,,,,,repeat,number,numRpt,d,0.5186,Hi,,,,,,5,,,,,,,,low,5,0,5,0,1,,,,,,,,,
294766,2022-10-03_15h28.09.258,vts_reward_expectancy,2022.2.4,MacIntel,120.0048002,Chrome,1512,982,,,,,10,1241,,,,,,,,,,,,,,,,,160,U,circle,1,0,,,,,,,,,,,,,,,,repeat,number,numRpt,f,0.5736,Lo,,,,,,5,,,,,,,,low,6,0,6,0,1,,,,,,,,,
294766,2022-10-03_15h28.09.258,vts_reward_expectancy,2022.2.4,MacIntel,120.0048002,Chrome,1512,982,,,,,10,1251,,,,,,,,,,,,,,,,,167,H,star,1,0,,,,,,,,,,,,,,,,switch,letter,lettSwt,j,0.4196,Hi,,,,,,5,,,,,,,,low,7,0,7,0,1,,,,,,,,,
294766,2022-10-03_15h28.09.258,vts_reward_expectancy,2022.2.4,MacIntel,120.0048002,Chrome,1512,982,,,,,0,1251,,,,,,,,,,,,,,,,,146,Y,star,1,0,,,,,,,,,,,,,,,,switch,number,numSwt,d,0.4866,Hi,,,,,,5,,,,,,,,low,8,0,8,0,1,,,,,,,,,
294766,2022-10-03_15h28.09.258,vts_reward_expectancy,2022.2.4,MacIntel,120.0048002,Chrome,1512,982,,,,,10,1261,,,,,,,,,,,,,,,,,125,W,circle,1,0,,,,,,,,,,,,,,,,switch,letter,lettSwt,k,0.5966,Lo,,,,,,5,,,,,,,,low,9,0,9,0,1,,,,,,,,,
294766,2022-10-03_15h28.09.258,vts_reward_expectancy,2022.2.4,MacIntel,120.0048002,Chrome,1512,982,,,,,10,1271,,,,,,,,,,,,,,,,,174,S,circle,1,0,,,,,,,,,,,,,,,,switch,number,numSwt,f,0.3963,Lo,,,,,,5,,,,,,,,low,10,0,10,0,1,,,,,,,,,
294766,2022-10-03_15h28.09.258,vts_reward_expectancy,2022.2.4,MacIntel,120.0048002,Chrome,1512,982,,,,,0,1271,,,,,,,,,,,,,,,,,181,B,star,1,0,,,,,,,,,,,,,,,,switch,letter,lettSwt,j,0.4741,Hi,,,,,,5,,,,,,,,low,11,0,11,0,1,,,,,,,,,
294766,2022-10-03_15h28.09.258,vts_reward_expectancy,2022.2.4,MacIntel,120.0048002,Chrome,1512,982,,,,,1,1272,,,,,,,,,,,,,,,,,132,D,circle,1,0,,,,,,,,,,,,,,,,switch,number,numSwt,d,0.3865,Lo,,,,,,5,,,,,,,,low,12,0,12,0,1,,,,,,,,,
294766,2022-10-03_15h28.09.258,vts_reward_expectancy,2022.2.4,MacIntel,120.0048002,Chrome,1512,982,,,,,1,1273,,,,,,,,,,,,,,,,,139,F,star,1,0,,,,,,,,,,,,,,,,switch,letter,lettSwt,j,0.3972,Hi,,,,,,5,,,,,,,,low,13,0,13,0,1,,,,,,,,,
294766,2022-10-03_15h28.09.258,vts_reward_expectancy,2022.2.4,MacIntel,120.0048002,Chrome,1512,982,,,,,0,1273,,,,,,,,,,,,,,,,,160,U,star,1,0,,,,,,,,,,,,,,,,switch,number,numSwt,f,0.4393,Hi,,,,,,5,,,,,,,,low,14,0,14,0,1,,,,,,,,,
294766,2022-10-03_15h28.09.258,vts_reward_expectancy,2022.2.4,MacIntel,120.0048002,Chrome,1512,982,,,,,1,1274,,,,,,,,,,,,,,,,,167,H,circle,1,0,,,,,,,,,,,,,,,,repeat,number,numRpt,f,0.4135,Lo,,,,,,5,,,,,,,,low,15,0,15,0,1,,,,,,,,,
294766,2022-10-03_15h28.09.258,vts_reward_expectancy,2022.2.4,MacIntel,120.0048002,Chrome,1512,982,,,,,0,1274,,,,,,,,,,,,,,,,,174,S,circle,0,0,,,,,,,,,,,,,,,,switch,letter,NA,j,0.4105,Lo,,,,,,5,,,,,,,,low,16,0,16,0,1,,,,,,,,,
294766,2022-10-03_15h28.09.258,vts_reward_expectancy,2022.2.4,MacIntel,120.0048002,Chrome,1512,982,,,,,0,1274,,,,,,,,,,,,,,,,,139,W,star,1,1,,,,,,,,,,,,,,,,repeat,letter,lettRpt,k,0.5332,Hi,,,,,,5,,,,,,,,low,17,0,17,0,1,,,,,,,,,
294766,2022-10-03_15h28.09.258,vts_reward_expectancy,2022.2.4,MacIntel,120.0048002,Chrome,1512,982,,,,,0,1274,,,,,,,,,,,,,,,,,181,D,star,0,0,,,,,,,,,,,,,,,,repeat,letter,NA,k,0.3991,Hi,,,,,,5,,,,,,,,low,18,0,18,0,1,,,,,,,,,
294766,2022-10-03_15h28.09.258,vts_reward_expectancy,2022.2.4,MacIntel,120.0048002,Chrome,1512,982,,,,,1,1275,,,,,,,,,,,,,,,,,146,B,circle,1,1,,,,,,,,,,,,,,,,switch,number,numSwt,d,0.4307,Lo,,,,,,5,,,,,,,,low,19,0,19,0,1,,,,,,,,,
294766,2022-10-03_15h28.09.258,vts_reward_expectancy,2022.2.4,MacIntel,120.0048002,Chrome,1512,982,,,,,1,1276,,,,,,,,,,,,,,,,,125,H,star,1,0,,,,,,,,,,,,,,,,repeat,number,numRpt,d,0.3795,Hi,,,,,,5,,,,,,,,low,20,0,20,0,1,,,,,,,,,
294766,2022-10-03_15h28.09.258,vts_reward_expectancy,2022.2.4,MacIntel,120.0048002,Chrome,1512,982,,,,,0,1276,,,,,,,,,,,,,,,,,160,F,circle,0,0,,,,,,,,,,,,,,,,switch,letter,NA,k,0.4568,Hi,,,,,,5,,,,,,,,low,21,0,21,0,1,,,,,,,,,
294766,2022-10-03_15h28.09.258,vts_reward_expectancy,2022.2.4,MacIntel,120.0048002,Chrome,1512,982,,,,,0,1276,,,,,,,,,,,,,,,,,167,Y,star,1,1,,,,,,,,,,,,,,,,repeat,letter,lettRpt,k,0.5372,Hi,,,,,,5,,,,,,,,low,22,0,22,0,1,,,,,,,,,
294766,2022-10-03_15h28.09.258,vts_reward_expectancy,2022.2.4,MacIntel,120.0048002,Chrome,1512,982,,,,,10,1286,,,,,,,,,,,,,,,,,132,U,circle,1,0,,,,,,,,,,,,,,,,repeat,letter,lettRpt,k,0.6556,Lo,,,,,,5,,,,,,,,low,23,0,23,0,1,,,,,,,,,
294766,2022-10-03_15h28.09.258,vts_reward_expectancy,2022.2.4,MacIntel,120.0048002,Chrome,1512,982,,,,,1,1287,,,,,,,,,,,,,,,,,160,S,star,1,0,,,,,,,,,,,,,,,,switch,number,numSwt,f,0.3721,Hi,,,,,,5,,,,,,,,low,24,0,24,0,1,,,,,,,,,
294766,2022-10-03_15h28.09.258,vts_reward_expectancy,2022.2.4,MacIntel,120.0048002,Chrome,1512,982,,,,,10,1297,,,,,,,,,,,,,,,,,132,H,circle,1,0,,,,,,,,,,,,,,,,switch,letter,lettSwt,j,0.4148,Lo,,,,,,5,,,,,,,,low,25,0,25,0,1,,,,,,,,,
294766,2022-10-03_15h28.09.258,vts_reward_expectancy,2022.2.4,MacIntel,120.0048002,Chrome,1512,982,,,,,0,1297,,,,,,,,,,,,,,,,,146,F,circle,0,0,,,,,,,,,,,,,,,,switch,number,NA,f,0.3853,Lo,,,,,,5,,,,,,,,low,26,0,26,0,1,,,,,,,,,
294766,2022-10-03_15h28.09.258,vts_reward_expectancy,2022.2.4,MacIntel,120.0048002,Chrome,1512,982,,,,,0,1297,,,,,,,,,,,,,,,,,174,W,star,1,1,,,,,,,,,,,,,,,,switch,letter,lettSwt,k,0.5069,Hi,,,,,,5,,,,,,,,low,27,0,27,0,1,,,,,,,,,
294766,2022-10-03_15h28.09.258,vts_reward_expectancy,2022.2.4,MacIntel,120.0048002,Chrome,1512,982,,,,,1,1298,,,,,,,,,,,,,,,,,167,Y,circle,1,0,,,,,,,,,,,,,,,,repeat,letter,lettRpt,k,0.4613,Lo,,,,,,5,,,,,,,,low,28,0,28,0,1,,,,,,,,,
294766,2022-10-03_15h28.09.258,vts_reward_expectancy,2022.2.4,MacIntel,120.0048002,Chrome,1512,982,,,,,0,1298,,,,,,,,,,,,,,,,,125,U,star,0,0,,,,,,,,,,,,,,,,repeat,letter,NA,j,0.5974,Lo,,,,,,5,,,,,,,,low,29,0,29,0,1,,,,,,,,,
294766,2022-10-03_15h28.09.258,vts_reward_expectancy,2022.2.4,MacIntel,120.0048002,Chrome,1512,982,,,,,1,1299,,,,,,,,,,,,,,,,,139,D,circle,1,1,,,,,,,,,,,,,,,,repeat,letter,lettRpt,j,0.4261,Lo,,,,,,5,,,,,,,,low,30,0,30,0,1,,,,,,,,,
294766,2022-10-03_15h28.09.258,vts_reward_expectancy,2022.2.4,MacIntel,120.0048002,Chrome,1512,982,,,,,10,1309,,,,,,,,,,,,,,,,,181,B,star,1,0,,,,,,,,,,,,,,,,switch,number,numSwt,f,0.4126,Hi,,,,,,5,,,,,,,,low,31,0,31,0,1,,,,,,,,,
294766,2022-10-03_15h28.09.258,vts_reward_expectancy,2022.2.4,MacIntel,120.0048002,Chrome,1512,982,,,,,,,,,,,,,,,,,,,,,,,,,,,,,,,,,,,,,,,,,,,,,,,,,,,,,,6,,,,,,,,,,,,,,I was asked to pick between two problems and solve it under a time costraint,1,,3,2,,2,1512,982
