participant,date,expName,psychopyVersion,OS,frameRate,browser,xResolution,yResolution,key_resp.keys,key_resp.rt,training_resp.keys,training_resp.rt,points_trial,points_cumul,trainBlock,training.thisRepN,training.thisTrialN,training.thisN,training.thisIndex,training.ran,LTriangleOpac,LCircleOpac,LHexagonOpac,LStarOpac,RTriangleOpac,RCircleOpac,RHexagonOpac,RStarOpac,LShape_ID,RShape_ID,curr_topStim,curr_bottStim,curr_shape,acc,E1,target_resp_prac1.keys,target_resp_prac1.rt,pracBlock,task1_prac_trials.thisRepN,task1_prac_trials.thisTrialN,task1_prac_trials.thisN,task1_prac_trials.thisIndex,task1_prac_trials.ran,target_resp_prac2.keys,target_resp_prac2.rt,task2_praac_trials.thisRepN,task2_praac_trials.thisTrialN,task2_praac_trials.thisN,task2_praac_trials.thisIndex,task2_praac_trials.ran,alt,task,condition,target_resp.keys,rewCond,vts_practice_trials.thisRepN,vts_practice_trials.thisTrialN,vts_practice_trials.thisN,vts_practice_trials.thisIndex,vts_practice_trials.ran,target_resp.rt,blockNum,trials_norew.thisRepN,trials_norew.thisTrialN,trials_norew.thisN,trials_norew.thisIndex,trials_norew.ran,key_resp_2.keys,key_resp_2.rt,rewExpect,trials_rew.thisRepN,trials_rew.thisTrialN,trials_rew.thisN,trials_rew.thisIndex,trials_rew.ran,Q1,Q2,Q2_text,Q3,Q4,Q5_text,Q5,xRes,yRes
297055,2022-10-03_11h24.07.471,vts_reward_expectancy,2022.2.4,Win32,59.99880002,Chrome,1280,720,,,,,,,,,,,,,,,,,,,,,,,,,,,,,,,,,,,,,,,,,,,,,,,,,,,,,,,,,,,,,,,,,,,,,,,,,,,,
297055,2022-10-03_11h24.07.471,vts_reward_expectancy,2022.2.4,Win32,59.99880002,Chrome,1280,720,space,24.3343,,,,,,,,,,,,,,,,,,,,,,,,,,,,,,,,,,,,,,,,,,,,,,,,,,,,,,,,,,,,,,,,,,,,,,,,,,
297055,2022-10-03_11h24.07.471,vts_reward_expectancy,2022.2.4,Win32,59.99880002,Chrome,1280,720,,,,,,,,,,,,,,,,,,,,,,,,,,,,,,,,,,,,,,,,,,,,,,,,,,,,,,,,,,,,,,,,,,,,,,,,,,,,
297055,2022-10-03_11h24.07.471,vts_reward_expectancy,2022.2.4,Win32,59.99880002,Chrome,1280,720,,,a,1.8571,1,1,0,0,0,0,2,1,1,0,0,0,0,0,0,1,triangle,star,,,,,,,,,,,,,,,,,,,,,,,,,,,,,,,,,,,,,,,,,,,,,,,,,,,,,,
297055,2022-10-03_11h24.07.471,vts_reward_expectancy,2022.2.4,Win32,59.99880002,Chrome,1280,720,,,l,0.7106,10,11,0,0,1,1,4,1,0,1,0,0,0,0,1,0,circle,hexagon,,,,,,,,,,,,,,,,,,,,,,,,,,,,,,,,,,,,,,,,,,,,,,,,,,,,,,
297055,2022-10-03_11h24.07.471,vts_reward_expectancy,2022.2.4,Win32,59.99880002,Chrome,1280,720,,,a,1.3012,10,21,0,0,2,2,6,1,0,0,1,0,1,0,0,0,hexagon,triangle,,,,,,,,,,,,,,,,,,,,,,,,,,,,,,,,,,,,,,,,,,,,,,,,,,,,,,
297055,2022-10-03_11h24.07.471,vts_reward_expectancy,2022.2.4,Win32,59.99880002,Chrome,1280,720,,,a,1.4177,1,22,0,0,3,3,9,1,0,0,0,1,1,0,0,0,star,triangle,,,,,,,,,,,,,,,,,,,,,,,,,,,,,,,,,,,,,,,,,,,,,,,,,,,,,,
297055,2022-10-03_11h24.07.471,vts_reward_expectancy,2022.2.4,Win32,59.99880002,Chrome,1280,720,,,l,0.9013,10,32,0,0,4,4,1,1,1,0,0,0,0,0,1,0,triangle,hexagon,,,,,,,,,,,,,,,,,,,,,,,,,,,,,,,,,,,,,,,,,,,,,,,,,,,,,,
297055,2022-10-03_11h24.07.471,vts_reward_expectancy,2022.2.4,Win32,59.99880002,Chrome,1280,720,,,a,1.5514,10,42,0,0,5,5,5,1,0,1,0,0,0,0,0,1,circle,star,,,,,,,,,,,,,,,,,,,,,,,,,,,,,,,,,,,,,,,,,,,,,,,,,,,,,,
297055,2022-10-03_11h24.07.471,vts_reward_expectancy,2022.2.4,Win32,59.99880002,Chrome,1280,720,,,l,0.8344,1,43,0,0,6,6,11,1,0,0,0,1,0,0,1,0,star,hexagon,,,,,,,,,,,,,,,,,,,,,,,,,,,,,,,,,,,,,,,,,,,,,,,,,,,,,,
297055,2022-10-03_11h24.07.471,vts_reward_expectancy,2022.2.4,Win32,59.99880002,Chrome,1280,720,,,a,1.3681,10,53,0,0,7,7,3,1,0,1,0,0,1,0,0,0,circle,triangle,,,,,,,,,,,,,,,,,,,,,,,,,,,,,,,,,,,,,,,,,,,,,,,,,,,,,,
297055,2022-10-03_11h24.07.471,vts_reward_expectancy,2022.2.4,Win32,59.99880002,Chrome,1280,720,,,l,1.051,10,63,0,0,8,8,0,1,1,0,0,0,0,1,0,0,triangle,circle,,,,,,,,,,,,,,,,,,,,,,,,,,,,,,,,,,,,,,,,,,,,,,,,,,,,,,
297055,2022-10-03_11h24.07.471,vts_reward_expectancy,2022.2.4,Win32,59.99880002,Chrome,1280,720,,,l,1.1757,10,73,0,0,9,9,7,1,0,0,1,0,0,1,0,0,hexagon,circle,,,,,,,,,,,,,,,,,,,,,,,,,,,,,,,,,,,,,,,,,,,,,,,,,,,,,,
297055,2022-10-03_11h24.07.471,vts_reward_expectancy,2022.2.4,Win32,59.99880002,Chrome,1280,720,,,l,0.8012,10,83,0,0,10,10,10,1,0,0,0,1,0,1,0,0,star ,circle,,,,,,,,,,,,,,,,,,,,,,,,,,,,,,,,,,,,,,,,,,,,,,,,,,,,,,
297055,2022-10-03_11h24.07.471,vts_reward_expectancy,2022.2.4,Win32,59.99880002,Chrome,1280,720,,,a,1.2459,10,93,0,0,11,11,8,1,0,0,1,0,0,0,0,1,hexagon,star,,,,,,,,,,,,,,,,,,,,,,,,,,,,,,,,,,,,,,,,,,,,,,,,,,,,,,
297055,2022-10-03_11h24.07.471,vts_reward_expectancy,2022.2.4,Win32,59.99880002,Chrome,1280,720,,,l,1.1511,10,103,0,1,0,12,11,1,0,0,0,1,0,0,1,0,star,hexagon,,,,,,,,,,,,,,,,,,,,,,,,,,,,,,,,,,,,,,,,,,,,,,,,,,,,,,
297055,2022-10-03_11h24.07.471,vts_reward_expectancy,2022.2.4,Win32,59.99880002,Chrome,1280,720,,,l,0.6335,1,104,0,1,1,13,10,1,0,0,0,1,0,1,0,0,star ,circle,,,,,,,,,,,,,,,,,,,,,,,,,,,,,,,,,,,,,,,,,,,,,,,,,,,,,,
297055,2022-10-03_11h24.07.471,vts_reward_expectancy,2022.2.4,Win32,59.99880002,Chrome,1280,720,,,a,1.0591,1,105,0,1,2,14,8,1,0,0,1,0,0,0,0,1,hexagon,star,,,,,,,,,,,,,,,,,,,,,,,,,,,,,,,,,,,,,,,,,,,,,,,,,,,,,,
297055,2022-10-03_11h24.07.471,vts_reward_expectancy,2022.2.4,Win32,59.99880002,Chrome,1280,720,,,l,2.4183,1,106,0,1,3,15,0,1,1,0,0,0,0,1,0,0,triangle,circle,,,,,,,,,,,,,,,,,,,,,,,,,,,,,,,,,,,,,,,,,,,,,,,,,,,,,,
297055,2022-10-03_11h24.07.471,vts_reward_expectancy,2022.2.4,Win32,59.99880002,Chrome,1280,720,,,a,0.9179,1,107,0,1,4,16,7,1,0,0,1,0,0,1,0,0,hexagon,circle,,,,,,,,,,,,,,,,,,,,,,,,,,,,,,,,,,,,,,,,,,,,,,,,,,,,,,
297055,2022-10-03_11h24.07.471,vts_reward_expectancy,2022.2.4,Win32,59.99880002,Chrome,1280,720,,,l,1.3289,1,108,0,1,5,17,9,1,0,0,0,1,1,0,0,0,star,triangle,,,,,,,,,,,,,,,,,,,,,,,,,,,,,,,,,,,,,,,,,,,,,,,,,,,,,,
297055,2022-10-03_11h24.07.471,vts_reward_expectancy,2022.2.4,Win32,59.99880002,Chrome,1280,720,,,l,1.0177,1,109,0,1,6,18,3,1,0,1,0,0,1,0,0,0,circle,triangle,,,,,,,,,,,,,,,,,,,,,,,,,,,,,,,,,,,,,,,,,,,,,,,,,,,,,,
297055,2022-10-03_11h24.07.471,vts_reward_expectancy,2022.2.4,Win32,59.99880002,Chrome,1280,720,,,l,1.2176,10,119,0,1,7,19,2,1,1,0,0,0,0,0,0,1,triangle,star,,,,,,,,,,,,,,,,,,,,,,,,,,,,,,,,,,,,,,,,,,,,,,,,,,,,,,
297055,2022-10-03_11h24.07.471,vts_reward_expectancy,2022.2.4,Win32,59.99880002,Chrome,1280,720,,,a,1.4007,10,129,0,1,8,20,6,1,0,0,1,0,1,0,0,0,hexagon,triangle,,,,,,,,,,,,,,,,,,,,,,,,,,,,,,,,,,,,,,,,,,,,,,,,,,,,,,
297055,2022-10-03_11h24.07.471,vts_reward_expectancy,2022.2.4,Win32,59.99880002,Chrome,1280,720,,,a,3.4849,10,139,0,1,9,21,4,1,0,1,0,0,0,0,1,0,circle,hexagon,,,,,,,,,,,,,,,,,,,,,,,,,,,,,,,,,,,,,,,,,,,,,,,,,,,,,,
297055,2022-10-03_11h24.07.471,vts_reward_expectancy,2022.2.4,Win32,59.99880002,Chrome,1280,720,,,l,1.5124,10,149,0,1,10,22,1,1,1,0,0,0,0,0,1,0,triangle,hexagon,,,,,,,,,,,,,,,,,,,,,,,,,,,,,,,,,,,,,,,,,,,,,,,,,,,,,,
297055,2022-10-03_11h24.07.471,vts_reward_expectancy,2022.2.4,Win32,59.99880002,Chrome,1280,720,,,a,1.8176,1,150,0,1,11,23,5,1,0,1,0,0,0,0,0,1,circle,star,,,,,,,,,,,,,,,,,,,,,,,,,,,,,,,,,,,,,,,,,,,,,,,,,,,,,,
297055,2022-10-03_11h24.07.471,vts_reward_expectancy,2022.2.4,Win32,59.99880002,Chrome,1280,720,,,l,0.8174,1,151,0,2,0,24,0,1,1,0,0,0,0,1,0,0,triangle,circle,,,,,,,,,,,,,,,,,,,,,,,,,,,,,,,,,,,,,,,,,,,,,,,,,,,,,,
297055,2022-10-03_11h24.07.471,vts_reward_expectancy,2022.2.4,Win32,59.99880002,Chrome,1280,720,,,a,1.8016,10,161,0,2,1,25,7,1,0,0,1,0,0,1,0,0,hexagon,circle,,,,,,,,,,,,,,,,,,,,,,,,,,,,,,,,,,,,,,,,,,,,,,,,,,,,,,
297055,2022-10-03_11h24.07.471,vts_reward_expectancy,2022.2.4,Win32,59.99880002,Chrome,1280,720,,,l,2.5007,1,162,0,2,2,26,3,1,0,1,0,0,1,0,0,0,circle,triangle,,,,,,,,,,,,,,,,,,,,,,,,,,,,,,,,,,,,,,,,,,,,,,,,,,,,,,
297055,2022-10-03_11h24.07.471,vts_reward_expectancy,2022.2.4,Win32,59.99880002,Chrome,1280,720,,,a,0.8511,10,172,0,2,3,27,6,1,0,0,1,0,1,0,0,0,hexagon,triangle,,,,,,,,,,,,,,,,,,,,,,,,,,,,,,,,,,,,,,,,,,,,,,,,,,,,,,
297055,2022-10-03_11h24.07.471,vts_reward_expectancy,2022.2.4,Win32,59.99880002,Chrome,1280,720,,,a,5.4526,1,173,0,2,4,28,9,1,0,0,0,1,1,0,0,0,star,triangle,,,,,,,,,,,,,,,,,,,,,,,,,,,,,,,,,,,,,,,,,,,,,,,,,,,,,,
297055,2022-10-03_11h24.07.471,vts_reward_expectancy,2022.2.4,Win32,59.99880002,Chrome,1280,720,,,a,1.9181,1,174,0,2,5,29,2,1,1,0,0,0,0,0,0,1,triangle,star,,,,,,,,,,,,,,,,,,,,,,,,,,,,,,,,,,,,,,,,,,,,,,,,,,,,,,
297055,2022-10-03_11h24.07.471,vts_reward_expectancy,2022.2.4,Win32,59.99880002,Chrome,1280,720,,,a,1.3351,10,184,0,2,6,30,8,1,0,0,1,0,0,0,0,1,hexagon,star,,,,,,,,,,,,,,,,,,,,,,,,,,,,,,,,,,,,,,,,,,,,,,,,,,,,,,
297055,2022-10-03_11h24.07.471,vts_reward_expectancy,2022.2.4,Win32,59.99880002,Chrome,1280,720,,,l,0.8177,10,194,0,2,7,31,10,1,0,0,0,1,0,1,0,0,star ,circle,,,,,,,,,,,,,,,,,,,,,,,,,,,,,,,,,,,,,,,,,,,,,,,,,,,,,,
297055,2022-10-03_11h24.07.471,vts_reward_expectancy,2022.2.4,Win32,59.99880002,Chrome,1280,720,,,l,2.068,10,204,0,2,8,32,4,1,0,1,0,0,0,0,1,0,circle,hexagon,,,,,,,,,,,,,,,,,,,,,,,,,,,,,,,,,,,,,,,,,,,,,,,,,,,,,,
297055,2022-10-03_11h24.07.471,vts_reward_expectancy,2022.2.4,Win32,59.99880002,Chrome,1280,720,,,l,1.6178,10,214,0,2,9,33,1,1,1,0,0,0,0,0,1,0,triangle,hexagon,,,,,,,,,,,,,,,,,,,,,,,,,,,,,,,,,,,,,,,,,,,,,,,,,,,,,,
297055,2022-10-03_11h24.07.471,vts_reward_expectancy,2022.2.4,Win32,59.99880002,Chrome,1280,720,,,l,3.4186,1,215,0,2,10,34,11,1,0,0,0,1,0,0,1,0,star,hexagon,,,,,,,,,,,,,,,,,,,,,,,,,,,,,,,,,,,,,,,,,,,,,,,,,,,,,,
297055,2022-10-03_11h24.07.471,vts_reward_expectancy,2022.2.4,Win32,59.99880002,Chrome,1280,720,,,a,1.4512,10,225,0,2,11,35,5,1,0,1,0,0,0,0,0,1,circle,star,,,,,,,,,,,,,,,,,,,,,,,,,,,,,,,,,,,,,,,,,,,,,,,,,,,,,,
297055,2022-10-03_11h24.07.471,vts_reward_expectancy,2022.2.4,Win32,59.99880002,Chrome,1280,720,,,l,1.5338,10,235,1,0,0,0,11,1,0,0,0,1,0,0,1,0,star,hexagon,,,,,,,,,,,,,,,,,,,,,,,,,,,,,,,,,,,,,,,,,,,,,,,,,,,,,,
297055,2022-10-03_11h24.07.471,vts_reward_expectancy,2022.2.4,Win32,59.99880002,Chrome,1280,720,,,l,1.3844,10,245,1,0,1,1,5,1,0,1,0,0,0,0,0,1,circle,star,,,,,,,,,,,,,,,,,,,,,,,,,,,,,,,,,,,,,,,,,,,,,,,,,,,,,,
297055,2022-10-03_11h24.07.471,vts_reward_expectancy,2022.2.4,Win32,59.99880002,Chrome,1280,720,,,a,0.9178,10,255,1,0,2,2,10,1,0,0,0,1,0,1,0,0,star ,circle,,,,,,,,,,,,,,,,,,,,,,,,,,,,,,,,,,,,,,,,,,,,,,,,,,,,,,
297055,2022-10-03_11h24.07.471,vts_reward_expectancy,2022.2.4,Win32,59.99880002,Chrome,1280,720,,,l,1.201,1,256,1,0,3,3,0,1,1,0,0,0,0,1,0,0,triangle,circle,,,,,,,,,,,,,,,,,,,,,,,,,,,,,,,,,,,,,,,,,,,,,,,,,,,,,,
297055,2022-10-03_11h24.07.471,vts_reward_expectancy,2022.2.4,Win32,59.99880002,Chrome,1280,720,,,l,1.6851,1,257,1,0,4,4,1,1,1,0,0,0,0,0,1,0,triangle,hexagon,,,,,,,,,,,,,,,,,,,,,,,,,,,,,,,,,,,,,,,,,,,,,,,,,,,,,,
297055,2022-10-03_11h24.07.471,vts_reward_expectancy,2022.2.4,Win32,59.99880002,Chrome,1280,720,,,l,1.781,1,258,1,0,5,5,8,1,0,0,1,0,0,0,0,1,hexagon,star,,,,,,,,,,,,,,,,,,,,,,,,,,,,,,,,,,,,,,,,,,,,,,,,,,,,,,
297055,2022-10-03_11h24.07.471,vts_reward_expectancy,2022.2.4,Win32,59.99880002,Chrome,1280,720,,,l,2.2797,10,268,1,0,6,6,4,1,0,1,0,0,0,0,1,0,circle,hexagon,,,,,,,,,,,,,,,,,,,,,,,,,,,,,,,,,,,,,,,,,,,,,,,,,,,,,,
297055,2022-10-03_11h24.07.471,vts_reward_expectancy,2022.2.4,Win32,59.99880002,Chrome,1280,720,,,a,1.9348,10,278,1,0,7,7,7,1,0,0,1,0,0,1,0,0,hexagon,circle,,,,,,,,,,,,,,,,,,,,,,,,,,,,,,,,,,,,,,,,,,,,,,,,,,,,,,
297055,2022-10-03_11h24.07.471,vts_reward_expectancy,2022.2.4,Win32,59.99880002,Chrome,1280,720,,,l,1.3262,10,288,1,0,8,8,2,1,1,0,0,0,0,0,0,1,triangle,star,,,,,,,,,,,,,,,,,,,,,,,,,,,,,,,,,,,,,,,,,,,,,,,,,,,,,,
297055,2022-10-03_11h24.07.471,vts_reward_expectancy,2022.2.4,Win32,59.99880002,Chrome,1280,720,,,a,2.1011,1,289,1,0,9,9,9,1,0,0,0,1,1,0,0,0,star,triangle,,,,,,,,,,,,,,,,,,,,,,,,,,,,,,,,,,,,,,,,,,,,,,,,,,,,,,
297055,2022-10-03_11h24.07.471,vts_reward_expectancy,2022.2.4,Win32,59.99880002,Chrome,1280,720,,,a,1.2021,10,299,1,0,10,10,6,1,0,0,1,0,1,0,0,0,hexagon,triangle,,,,,,,,,,,,,,,,,,,,,,,,,,,,,,,,,,,,,,,,,,,,,,,,,,,,,,
297055,2022-10-03_11h24.07.471,vts_reward_expectancy,2022.2.4,Win32,59.99880002,Chrome,1280,720,,,a,3.015,10,309,1,0,11,11,3,1,0,1,0,0,1,0,0,0,circle,triangle,,,,,,,,,,,,,,,,,,,,,,,,,,,,,,,,,,,,,,,,,,,,,,,,,,,,,,
297055,2022-10-03_11h24.07.471,vts_reward_expectancy,2022.2.4,Win32,59.99880002,Chrome,1280,720,,,a,1.5682,10,319,1,1,0,12,0,1,1,0,0,0,0,1,0,0,triangle,circle,,,,,,,,,,,,,,,,,,,,,,,,,,,,,,,,,,,,,,,,,,,,,,,,,,,,,,
297055,2022-10-03_11h24.07.471,vts_reward_expectancy,2022.2.4,Win32,59.99880002,Chrome,1280,720,,,a,0.7346,10,329,1,1,1,13,7,1,0,0,1,0,0,1,0,0,hexagon,circle,,,,,,,,,,,,,,,,,,,,,,,,,,,,,,,,,,,,,,,,,,,,,,,,,,,,,,
297055,2022-10-03_11h24.07.471,vts_reward_expectancy,2022.2.4,Win32,59.99880002,Chrome,1280,720,,,a,0.3677,10,339,1,1,2,14,10,1,0,0,0,1,0,1,0,0,star ,circle,,,,,,,,,,,,,,,,,,,,,,,,,,,,,,,,,,,,,,,,,,,,,,,,,,,,,,
297055,2022-10-03_11h24.07.471,vts_reward_expectancy,2022.2.4,Win32,59.99880002,Chrome,1280,720,,,a,0.2675,1,340,1,1,3,15,2,1,1,0,0,0,0,0,0,1,triangle,star,,,,,,,,,,,,,,,,,,,,,,,,,,,,,,,,,,,,,,,,,,,,,,,,,,,,,,
297055,2022-10-03_11h24.07.471,vts_reward_expectancy,2022.2.4,Win32,59.99880002,Chrome,1280,720,,,a,1.3013,1,341,1,1,4,16,4,1,0,1,0,0,0,0,1,0,circle,hexagon,,,,,,,,,,,,,,,,,,,,,,,,,,,,,,,,,,,,,,,,,,,,,,,,,,,,,,
297055,2022-10-03_11h24.07.471,vts_reward_expectancy,2022.2.4,Win32,59.99880002,Chrome,1280,720,,,l,0.5847,1,342,1,1,5,17,3,1,0,1,0,0,1,0,0,0,circle,triangle,,,,,,,,,,,,,,,,,,,,,,,,,,,,,,,,,,,,,,,,,,,,,,,,,,,,,,
297055,2022-10-03_11h24.07.471,vts_reward_expectancy,2022.2.4,Win32,59.99880002,Chrome,1280,720,,,a,0.818,10,352,1,1,6,18,6,1,0,0,1,0,1,0,0,0,hexagon,triangle,,,,,,,,,,,,,,,,,,,,,,,,,,,,,,,,,,,,,,,,,,,,,,,,,,,,,,
297055,2022-10-03_11h24.07.471,vts_reward_expectancy,2022.2.4,Win32,59.99880002,Chrome,1280,720,,,a,0.8013,1,353,1,1,7,19,1,1,1,0,0,0,0,0,1,0,triangle,hexagon,,,,,,,,,,,,,,,,,,,,,,,,,,,,,,,,,,,,,,,,,,,,,,,,,,,,,,
297055,2022-10-03_11h24.07.471,vts_reward_expectancy,2022.2.4,Win32,59.99880002,Chrome,1280,720,,,a,1.2845,1,354,1,1,8,20,11,1,0,0,0,1,0,0,1,0,star,hexagon,,,,,,,,,,,,,,,,,,,,,,,,,,,,,,,,,,,,,,,,,,,,,,,,,,,,,,
297055,2022-10-03_11h24.07.471,vts_reward_expectancy,2022.2.4,Win32,59.99880002,Chrome,1280,720,,,l,0.6511,1,355,1,1,9,21,8,1,0,0,1,0,0,0,0,1,hexagon,star,,,,,,,,,,,,,,,,,,,,,,,,,,,,,,,,,,,,,,,,,,,,,,,,,,,,,,
297055,2022-10-03_11h24.07.471,vts_reward_expectancy,2022.2.4,Win32,59.99880002,Chrome,1280,720,,,a,2.118,10,365,1,1,10,22,9,1,0,0,0,1,1,0,0,0,star,triangle,,,,,,,,,,,,,,,,,,,,,,,,,,,,,,,,,,,,,,,,,,,,,,,,,,,,,,
297055,2022-10-03_11h24.07.471,vts_reward_expectancy,2022.2.4,Win32,59.99880002,Chrome,1280,720,,,a,1.2009,10,375,1,1,11,23,5,1,0,1,0,0,0,0,0,1,circle,star,,,,,,,,,,,,,,,,,,,,,,,,,,,,,,,,,,,,,,,,,,,,,,,,,,,,,,
297055,2022-10-03_11h24.07.471,vts_reward_expectancy,2022.2.4,Win32,59.99880002,Chrome,1280,720,,,l,1.3676,1,376,1,2,0,24,7,1,0,0,1,0,0,1,0,0,hexagon,circle,,,,,,,,,,,,,,,,,,,,,,,,,,,,,,,,,,,,,,,,,,,,,,,,,,,,,,
297055,2022-10-03_11h24.07.471,vts_reward_expectancy,2022.2.4,Win32,59.99880002,Chrome,1280,720,,,l,1.0508,1,377,1,2,1,25,0,1,1,0,0,0,0,1,0,0,triangle,circle,,,,,,,,,,,,,,,,,,,,,,,,,,,,,,,,,,,,,,,,,,,,,,,,,,,,,,
297055,2022-10-03_11h24.07.471,vts_reward_expectancy,2022.2.4,Win32,59.99880002,Chrome,1280,720,,,a,1.0179,1,378,1,2,2,26,9,1,0,0,0,1,1,0,0,0,star,triangle,,,,,,,,,,,,,,,,,,,,,,,,,,,,,,,,,,,,,,,,,,,,,,,,,,,,,,
297055,2022-10-03_11h24.07.471,vts_reward_expectancy,2022.2.4,Win32,59.99880002,Chrome,1280,720,,,l,0.8846,1,379,1,2,3,27,5,1,0,1,0,0,0,0,0,1,circle,star,,,,,,,,,,,,,,,,,,,,,,,,,,,,,,,,,,,,,,,,,,,,,,,,,,,,,,
297055,2022-10-03_11h24.07.471,vts_reward_expectancy,2022.2.4,Win32,59.99880002,Chrome,1280,720,,,a,0.5513,10,389,1,2,4,28,4,1,0,1,0,0,0,0,1,0,circle,hexagon,,,,,,,,,,,,,,,,,,,,,,,,,,,,,,,,,,,,,,,,,,,,,,,,,,,,,,
297055,2022-10-03_11h24.07.471,vts_reward_expectancy,2022.2.4,Win32,59.99880002,Chrome,1280,720,,,a,1.0593,1,390,1,2,5,29,2,1,1,0,0,0,0,0,0,1,triangle,star,,,,,,,,,,,,,,,,,,,,,,,,,,,,,,,,,,,,,,,,,,,,,,,,,,,,,,
297055,2022-10-03_11h24.07.471,vts_reward_expectancy,2022.2.4,Win32,59.99880002,Chrome,1280,720,,,a,1.1846,10,400,1,2,6,30,8,1,0,0,1,0,0,0,0,1,hexagon,star,,,,,,,,,,,,,,,,,,,,,,,,,,,,,,,,,,,,,,,,,,,,,,,,,,,,,,
297055,2022-10-03_11h24.07.471,vts_reward_expectancy,2022.2.4,Win32,59.99880002,Chrome,1280,720,,,l,0.6847,10,410,1,2,7,31,1,1,1,0,0,0,0,0,1,0,triangle,hexagon,,,,,,,,,,,,,,,,,,,,,,,,,,,,,,,,,,,,,,,,,,,,,,,,,,,,,,
297055,2022-10-03_11h24.07.471,vts_reward_expectancy,2022.2.4,Win32,59.99880002,Chrome,1280,720,,,l,0.8006,1,411,1,2,8,32,10,1,0,0,0,1,0,1,0,0,star ,circle,,,,,,,,,,,,,,,,,,,,,,,,,,,,,,,,,,,,,,,,,,,,,,,,,,,,,,
297055,2022-10-03_11h24.07.471,vts_reward_expectancy,2022.2.4,Win32,59.99880002,Chrome,1280,720,,,a,0.6285,10,421,1,2,9,33,3,1,0,1,0,0,1,0,0,0,circle,triangle,,,,,,,,,,,,,,,,,,,,,,,,,,,,,,,,,,,,,,,,,,,,,,,,,,,,,,
297055,2022-10-03_11h24.07.471,vts_reward_expectancy,2022.2.4,Win32,59.99880002,Chrome,1280,720,,,l,0.6178,10,431,1,2,10,34,11,1,0,0,0,1,0,0,1,0,star,hexagon,,,,,,,,,,,,,,,,,,,,,,,,,,,,,,,,,,,,,,,,,,,,,,,,,,,,,,
297055,2022-10-03_11h24.07.471,vts_reward_expectancy,2022.2.4,Win32,59.99880002,Chrome,1280,720,,,a,1.5676,10,441,1,2,11,35,6,1,0,0,1,0,1,0,0,0,hexagon,triangle,,,,,,,,,,,,,,,,,,,,,,,,,,,,,,,,,,,,,,,,,,,,,,,,,,,,,,
297055,2022-10-03_11h24.07.471,vts_reward_expectancy,2022.2.4,Win32,59.99880002,Chrome,1280,720,,,l,1.051,10,451,2,0,0,0,1,1,1,0,0,0,0,0,1,0,triangle,hexagon,,,,,,,,,,,,,,,,,,,,,,,,,,,,,,,,,,,,,,,,,,,,,,,,,,,,,,
297055,2022-10-03_11h24.07.471,vts_reward_expectancy,2022.2.4,Win32,59.99880002,Chrome,1280,720,,,a,1.1178,10,461,2,0,1,1,6,1,0,0,1,0,1,0,0,0,hexagon,triangle,,,,,,,,,,,,,,,,,,,,,,,,,,,,,,,,,,,,,,,,,,,,,,,,,,,,,,
297055,2022-10-03_11h24.07.471,vts_reward_expectancy,2022.2.4,Win32,59.99880002,Chrome,1280,720,,,l,0.8173,1,462,2,0,2,2,10,1,0,0,0,1,0,1,0,0,star ,circle,,,,,,,,,,,,,,,,,,,,,,,,,,,,,,,,,,,,,,,,,,,,,,,,,,,,,,
297055,2022-10-03_11h24.07.471,vts_reward_expectancy,2022.2.4,Win32,59.99880002,Chrome,1280,720,,,l,1.7806,10,472,2,0,3,3,2,1,1,0,0,0,0,0,0,1,triangle,star,,,,,,,,,,,,,,,,,,,,,,,,,,,,,,,,,,,,,,,,,,,,,,,,,,,,,,
297055,2022-10-03_11h24.07.471,vts_reward_expectancy,2022.2.4,Win32,59.99880002,Chrome,1280,720,,,a,4.8529,1,473,2,0,4,4,9,1,0,0,0,1,1,0,0,0,star,triangle,,,,,,,,,,,,,,,,,,,,,,,,,,,,,,,,,,,,,,,,,,,,,,,,,,,,,,
297055,2022-10-03_11h24.07.471,vts_reward_expectancy,2022.2.4,Win32,59.99880002,Chrome,1280,720,,,l,1.3011,1,474,2,0,5,5,5,1,0,1,0,0,0,0,0,1,circle,star,,,,,,,,,,,,,,,,,,,,,,,,,,,,,,,,,,,,,,,,,,,,,,,,,,,,,,
297055,2022-10-03_11h24.07.471,vts_reward_expectancy,2022.2.4,Win32,59.99880002,Chrome,1280,720,,,l,2.585,10,484,2,0,6,6,0,1,1,0,0,0,0,1,0,0,triangle,circle,,,,,,,,,,,,,,,,,,,,,,,,,,,,,,,,,,,,,,,,,,,,,,,,,,,,,,
297055,2022-10-03_11h24.07.471,vts_reward_expectancy,2022.2.4,Win32,59.99880002,Chrome,1280,720,,,l,1.3519,1,485,2,0,7,7,4,1,0,1,0,0,0,0,1,0,circle,hexagon,,,,,,,,,,,,,,,,,,,,,,,,,,,,,,,,,,,,,,,,,,,,,,,,,,,,,,
297055,2022-10-03_11h24.07.471,vts_reward_expectancy,2022.2.4,Win32,59.99880002,Chrome,1280,720,,,l,1.2054,10,495,2,0,8,8,11,1,0,0,0,1,0,0,1,0,star,hexagon,,,,,,,,,,,,,,,,,,,,,,,,,,,,,,,,,,,,,,,,,,,,,,,,,,,,,,
297055,2022-10-03_11h24.07.471,vts_reward_expectancy,2022.2.4,Win32,59.99880002,Chrome,1280,720,,,a,1.02,10,505,2,0,9,9,7,1,0,0,1,0,0,1,0,0,hexagon,circle,,,,,,,,,,,,,,,,,,,,,,,,,,,,,,,,,,,,,,,,,,,,,,,,,,,,,,
297055,2022-10-03_11h24.07.471,vts_reward_expectancy,2022.2.4,Win32,59.99880002,Chrome,1280,720,,,a,1.2189,10,515,2,0,10,10,3,1,0,1,0,0,1,0,0,0,circle,triangle,,,,,,,,,,,,,,,,,,,,,,,,,,,,,,,,,,,,,,,,,,,,,,,,,,,,,,
297055,2022-10-03_11h24.07.471,vts_reward_expectancy,2022.2.4,Win32,59.99880002,Chrome,1280,720,,,a,0.767,10,525,2,0,11,11,8,1,0,0,1,0,0,0,0,1,hexagon,star,,,,,,,,,,,,,,,,,,,,,,,,,,,,,,,,,,,,,,,,,,,,,,,,,,,,,,
297055,2022-10-03_11h24.07.471,vts_reward_expectancy,2022.2.4,Win32,59.99880002,Chrome,1280,720,,,l,0.6181,1,526,2,1,0,12,4,1,0,1,0,0,0,0,1,0,circle,hexagon,,,,,,,,,,,,,,,,,,,,,,,,,,,,,,,,,,,,,,,,,,,,,,,,,,,,,,
297055,2022-10-03_11h24.07.471,vts_reward_expectancy,2022.2.4,Win32,59.99880002,Chrome,1280,720,,,l,1.5678,10,536,2,1,1,13,5,1,0,1,0,0,0,0,0,1,circle,star,,,,,,,,,,,,,,,,,,,,,,,,,,,,,,,,,,,,,,,,,,,,,,,,,,,,,,
297055,2022-10-03_11h24.07.471,vts_reward_expectancy,2022.2.4,Win32,59.99880002,Chrome,1280,720,,,a,0.8175,10,546,2,1,2,14,10,1,0,0,0,1,0,1,0,0,star ,circle,,,,,,,,,,,,,,,,,,,,,,,,,,,,,,,,,,,,,,,,,,,,,,,,,,,,,,
297055,2022-10-03_11h24.07.471,vts_reward_expectancy,2022.2.4,Win32,59.99880002,Chrome,1280,720,,,a,1.1846,10,556,2,1,3,15,7,1,0,0,1,0,0,1,0,0,hexagon,circle,,,,,,,,,,,,,,,,,,,,,,,,,,,,,,,,,,,,,,,,,,,,,,,,,,,,,,
297055,2022-10-03_11h24.07.471,vts_reward_expectancy,2022.2.4,Win32,59.99880002,Chrome,1280,720,,,a,1.451,10,566,2,1,4,16,3,1,0,1,0,0,1,0,0,0,circle,triangle,,,,,,,,,,,,,,,,,,,,,,,,,,,,,,,,,,,,,,,,,,,,,,,,,,,,,,
297055,2022-10-03_11h24.07.471,vts_reward_expectancy,2022.2.4,Win32,59.99880002,Chrome,1280,720,,,a,1.001,1,567,2,1,5,17,9,1,0,0,0,1,1,0,0,0,star,triangle,,,,,,,,,,,,,,,,,,,,,,,,,,,,,,,,,,,,,,,,,,,,,,,,,,,,,,
297055,2022-10-03_11h24.07.471,vts_reward_expectancy,2022.2.4,Win32,59.99880002,Chrome,1280,720,,,l,0.9006,10,577,2,1,6,18,2,1,1,0,0,0,0,0,0,1,triangle,star,,,,,,,,,,,,,,,,,,,,,,,,,,,,,,,,,,,,,,,,,,,,,,,,,,,,,,
297055,2022-10-03_11h24.07.471,vts_reward_expectancy,2022.2.4,Win32,59.99880002,Chrome,1280,720,,,l,1.3679,10,587,2,1,7,19,0,1,1,0,0,0,0,1,0,0,triangle,circle,,,,,,,,,,,,,,,,,,,,,,,,,,,,,,,,,,,,,,,,,,,,,,,,,,,,,,
297055,2022-10-03_11h24.07.471,vts_reward_expectancy,2022.2.4,Win32,59.99880002,Chrome,1280,720,,,a,0.9508,10,597,2,1,8,20,8,1,0,0,1,0,0,0,0,1,hexagon,star,,,,,,,,,,,,,,,,,,,,,,,,,,,,,,,,,,,,,,,,,,,,,,,,,,,,,,
297055,2022-10-03_11h24.07.471,vts_reward_expectancy,2022.2.4,Win32,59.99880002,Chrome,1280,720,,,l,0.5677,10,607,2,1,9,21,11,1,0,0,0,1,0,0,1,0,star,hexagon,,,,,,,,,,,,,,,,,,,,,,,,,,,,,,,,,,,,,,,,,,,,,,,,,,,,,,
297055,2022-10-03_11h24.07.471,vts_reward_expectancy,2022.2.4,Win32,59.99880002,Chrome,1280,720,,,l,0.9865,1,608,2,1,10,22,1,1,1,0,0,0,0,0,1,0,triangle,hexagon,,,,,,,,,,,,,,,,,,,,,,,,,,,,,,,,,,,,,,,,,,,,,,,,,,,,,,
297055,2022-10-03_11h24.07.471,vts_reward_expectancy,2022.2.4,Win32,59.99880002,Chrome,1280,720,,,a,0.9344,10,618,2,1,11,23,6,1,0,0,1,0,1,0,0,0,hexagon,triangle,,,,,,,,,,,,,,,,,,,,,,,,,,,,,,,,,,,,,,,,,,,,,,,,,,,,,,
297055,2022-10-03_11h24.07.471,vts_reward_expectancy,2022.2.4,Win32,59.99880002,Chrome,1280,720,,,a,0.6175,1,619,2,2,0,24,5,1,0,1,0,0,0,0,0,1,circle,star,,,,,,,,,,,,,,,,,,,,,,,,,,,,,,,,,,,,,,,,,,,,,,,,,,,,,,
297055,2022-10-03_11h24.07.471,vts_reward_expectancy,2022.2.4,Win32,59.99880002,Chrome,1280,720,,,l,0.7677,1,620,2,2,1,25,2,1,1,0,0,0,0,0,0,1,triangle,star,,,,,,,,,,,,,,,,,,,,,,,,,,,,,,,,,,,,,,,,,,,,,,,,,,,,,,
297055,2022-10-03_11h24.07.471,vts_reward_expectancy,2022.2.4,Win32,59.99880002,Chrome,1280,720,,,a,0.7339,1,621,2,2,2,26,8,1,0,0,1,0,0,0,0,1,hexagon,star,,,,,,,,,,,,,,,,,,,,,,,,,,,,,,,,,,,,,,,,,,,,,,,,,,,,,,
297055,2022-10-03_11h24.07.471,vts_reward_expectancy,2022.2.4,Win32,59.99880002,Chrome,1280,720,,,l,0.8847,1,622,2,2,3,27,10,1,0,0,0,1,0,1,0,0,star ,circle,,,,,,,,,,,,,,,,,,,,,,,,,,,,,,,,,,,,,,,,,,,,,,,,,,,,,,
297055,2022-10-03_11h24.07.471,vts_reward_expectancy,2022.2.4,Win32,59.99880002,Chrome,1280,720,,,l,0.8369,10,632,2,2,4,28,0,1,1,0,0,0,0,1,0,0,triangle,circle,,,,,,,,,,,,,,,,,,,,,,,,,,,,,,,,,,,,,,,,,,,,,,,,,,,,,,
297055,2022-10-03_11h24.07.471,vts_reward_expectancy,2022.2.4,Win32,59.99880002,Chrome,1280,720,,,a,0.42,1,633,2,2,5,29,4,1,0,1,0,0,0,0,1,0,circle,hexagon,,,,,,,,,,,,,,,,,,,,,,,,,,,,,,,,,,,,,,,,,,,,,,,,,,,,,,
297055,2022-10-03_11h24.07.471,vts_reward_expectancy,2022.2.4,Win32,59.99880002,Chrome,1280,720,,,l,0.3334,1,634,2,2,6,30,9,1,0,0,0,1,1,0,0,0,star,triangle,,,,,,,,,,,,,,,,,,,,,,,,,,,,,,,,,,,,,,,,,,,,,,,,,,,,,,
297055,2022-10-03_11h24.07.471,vts_reward_expectancy,2022.2.4,Win32,59.99880002,Chrome,1280,720,,,a,0.4839,1,635,2,2,7,31,1,1,1,0,0,0,0,0,1,0,triangle,hexagon,,,,,,,,,,,,,,,,,,,,,,,,,,,,,,,,,,,,,,,,,,,,,,,,,,,,,,
297055,2022-10-03_11h24.07.471,vts_reward_expectancy,2022.2.4,Win32,59.99880002,Chrome,1280,720,,,l,0.3165,10,645,2,2,8,32,3,1,0,1,0,0,1,0,0,0,circle,triangle,,,,,,,,,,,,,,,,,,,,,,,,,,,,,,,,,,,,,,,,,,,,,,,,,,,,,,
297055,2022-10-03_11h24.07.471,vts_reward_expectancy,2022.2.4,Win32,59.99880002,Chrome,1280,720,,,l,0.4843,10,655,2,2,9,33,11,1,0,0,0,1,0,0,1,0,star,hexagon,,,,,,,,,,,,,,,,,,,,,,,,,,,,,,,,,,,,,,,,,,,,,,,,,,,,,,
297055,2022-10-03_11h24.07.471,vts_reward_expectancy,2022.2.4,Win32,59.99880002,Chrome,1280,720,,,a,1.2345,10,665,2,2,10,34,6,1,0,0,1,0,1,0,0,0,hexagon,triangle,,,,,,,,,,,,,,,,,,,,,,,,,,,,,,,,,,,,,,,,,,,,,,,,,,,,,,
297055,2022-10-03_11h24.07.471,vts_reward_expectancy,2022.2.4,Win32,59.99880002,Chrome,1280,720,,,a,0.6844,10,675,2,2,11,35,7,1,0,0,1,0,0,1,0,0,hexagon,circle,,,,,,,,,,,,,,,,,,,,,,,,,,,,,,,,,,,,,,,,,,,,,,,,,,,,,,
297055,2022-10-03_11h24.07.471,vts_reward_expectancy,2022.2.4,Win32,59.99880002,Chrome,1280,720,,,,,,,,,,,,,,,,,,,,,,,B,139,circle,1,0,d,1.5481,0,0,0,0,0,1,,,,,,,,,,,,,,,,,,,,,,,,,,,,,,,,,,,,,,,,,
297055,2022-10-03_11h24.07.471,vts_reward_expectancy,2022.2.4,Win32,59.99880002,Chrome,1280,720,,,,,,,,,,,,,,,,,,,,,,,H,174,triangle,1,0,d,1.249,0,1,0,1,0,1,,,,,,,,,,,,,,,,,,,,,,,,,,,,,,,,,,,,,,,,,
297055,2022-10-03_11h24.07.471,vts_reward_expectancy,2022.2.4,Win32,59.99880002,Chrome,1280,720,,,,,,,,,,,,,,,,,,,,,,,W,181,hexagon,1,0,f,1.0562,0,2,0,2,0,1,,,,,,,,,,,,,,,,,,,,,,,,,,,,,,,,,,,,,,,,,
297055,2022-10-03_11h24.07.471,vts_reward_expectancy,2022.2.4,Win32,59.99880002,Chrome,1280,720,,,,,,,,,,,,,,,,,,,,,,,U,167,star,1,0,f,0.6971,0,3,0,3,0,1,,,,,,,,,,,,,,,,,,,,,,,,,,,,,,,,,,,,,,,,,
297055,2022-10-03_11h24.07.471,vts_reward_expectancy,2022.2.4,Win32,59.99880002,Chrome,1280,720,,,,,,,,,,,,,,,,,,,,,,,D,125,circle,1,0,d,1.4844,0,4,0,4,0,1,,,,,,,,,,,,,,,,,,,,,,,,,,,,,,,,,,,,,,,,,
297055,2022-10-03_11h24.07.471,vts_reward_expectancy,2022.2.4,Win32,59.99880002,Chrome,1280,720,,,,,,,,,,,,,,,,,,,,,,,F,146,triangle,1,0,d,0.6823,0,5,0,5,0,1,,,,,,,,,,,,,,,,,,,,,,,,,,,,,,,,,,,,,,,,,
297055,2022-10-03_11h24.07.471,vts_reward_expectancy,2022.2.4,Win32,59.99880002,Chrome,1280,720,,,,,,,,,,,,,,,,,,,,,,,Y,132,hexagon,1,0,f,0.7142,0,6,0,6,0,1,,,,,,,,,,,,,,,,,,,,,,,,,,,,,,,,,,,,,,,,,
297055,2022-10-03_11h24.07.471,vts_reward_expectancy,2022.2.4,Win32,59.99880002,Chrome,1280,720,,,,,,,,,,,,,,,,,,,,,,,S,160,star,1,0,f,1.3653,0,7,0,7,0,1,,,,,,,,,,,,,,,,,,,,,,,,,,,,,,,,,,,,,,,,,
297055,2022-10-03_11h24.07.471,vts_reward_expectancy,2022.2.4,Win32,59.99880002,Chrome,1280,720,,,,,,,,,,,,,,,,,,,,,,,B,139,triangle,1,0,d,1.4766,0,8,0,8,0,1,,,,,,,,,,,,,,,,,,,,,,,,,,,,,,,,,,,,,,,,,
297055,2022-10-03_11h24.07.471,vts_reward_expectancy,2022.2.4,Win32,59.99880002,Chrome,1280,720,,,,,,,,,,,,,,,,,,,,,,,H,174,star,1,0,d,1.5837,0,9,0,9,0,1,,,,,,,,,,,,,,,,,,,,,,,,,,,,,,,,,,,,,,,,,
297055,2022-10-03_11h24.07.471,vts_reward_expectancy,2022.2.4,Win32,59.99880002,Chrome,1280,720,,,,,,,,,,,,,,,,,,,,,,,D,174,hexagon,1,0,,,1,,,,,,k,1.4178,0,0,0,0,1,,,,,,,,,,,,,,,,,,,,,,,,,,,,,,,,,,
297055,2022-10-03_11h24.07.471,vts_reward_expectancy,2022.2.4,Win32,59.99880002,Chrome,1280,720,,,,,,,,,,,,,,,,,,,,,,,B,146,star,1,0,,,1,,,,,,j,0.8345,1,0,1,0,1,,,,,,,,,,,,,,,,,,,,,,,,,,,,,,,,,,
297055,2022-10-03_11h24.07.471,vts_reward_expectancy,2022.2.4,Win32,59.99880002,Chrome,1280,720,,,,,,,,,,,,,,,,,,,,,,,S,160,triangle,1,0,,,1,,,,,,k,1.6491,2,0,2,0,1,,,,,,,,,,,,,,,,,,,,,,,,,,,,,,,,,,
297055,2022-10-03_11h24.07.471,vts_reward_expectancy,2022.2.4,Win32,59.99880002,Chrome,1280,720,,,,,,,,,,,,,,,,,,,,,,,F,167,circle,1,0,,,1,,,,,,k,0.7508,3,0,3,0,1,,,,,,,,,,,,,,,,,,,,,,,,,,,,,,,,,,
297055,2022-10-03_11h24.07.471,vts_reward_expectancy,2022.2.4,Win32,59.99880002,Chrome,1280,720,,,,,,,,,,,,,,,,,,,,,,,W,125,hexagon,1,0,,,1,,,,,,j,0.9095,4,0,4,0,1,,,,,,,,,,,,,,,,,,,,,,,,,,,,,,,,,,
297055,2022-10-03_11h24.07.471,vts_reward_expectancy,2022.2.4,Win32,59.99880002,Chrome,1280,720,,,,,,,,,,,,,,,,,,,,,,,H,181,star,1,0,,,1,,,,,,k,0.8921,5,0,5,0,1,,,,,,,,,,,,,,,,,,,,,,,,,,,,,,,,,,
297055,2022-10-03_11h24.07.471,vts_reward_expectancy,2022.2.4,Win32,59.99880002,Chrome,1280,720,,,,,,,,,,,,,,,,,,,,,,,U,139,triangle,1,0,,,1,,,,,,j,0.6314,6,0,6,0,1,,,,,,,,,,,,,,,,,,,,,,,,,,,,,,,,,,
297055,2022-10-03_11h24.07.471,vts_reward_expectancy,2022.2.4,Win32,59.99880002,Chrome,1280,720,,,,,,,,,,,,,,,,,,,,,,,Y,132,circle,1,0,,,1,,,,,,j,0.7008,7,0,7,0,1,,,,,,,,,,,,,,,,,,,,,,,,,,,,,,,,,,
297055,2022-10-03_11h24.07.471,vts_reward_expectancy,2022.2.4,Win32,59.99880002,Chrome,1280,720,,,,,,,,,,,,,,,,,,,,,,,D,174,hexagon,1,0,,,1,,,,,,k,0.8173,8,0,8,0,1,,,,,,,,,,,,,,,,,,,,,,,,,,,,,,,,,,
297055,2022-10-03_11h24.07.471,vts_reward_expectancy,2022.2.4,Win32,59.99880002,Chrome,1280,720,,,,,,,,,,,,,,,,,,,,,,,B,146,star,1,0,,,1,,,,,,j,0.9501,9,0,9,0,1,,,,,,,,,,,,,,,,,,,,,,,,,,,,,,,,,,
297055,2022-10-03_11h24.07.471,vts_reward_expectancy,2022.2.4,Win32,59.99880002,Chrome,1280,720,,,,,0,675,,,,,,,,,,,,,,,,,B,146,star,-1,0,,,2,,,,,,,,,,,,,-1,no_choice,NA,,vtsPrac,0,0,0,0,1,,,,,,,,,,,,,,,,,,,,,,,,
297055,2022-10-03_11h24.07.471,vts_reward_expectancy,2022.2.4,Win32,59.99880002,Chrome,1280,720,,,,,0,675,,,,,,,,,,,,,,,,,Y,125,circle,0,0,,,2,,,,,,,,,,,,,switch,letter,NA,d,vtsPrac,1,0,1,0,1,1.3801,,,,,,,,,,,,,,,,,,,,,,,
297055,2022-10-03_11h24.07.471,vts_reward_expectancy,2022.2.4,Win32,59.99880002,Chrome,1280,720,,,,,0,675,,,,,,,,,,,,,,,,,D,139,star,1,1,,,2,,,,,,,,,,,,,switch,number,numSwt,j,vtsPrac,2,0,2,0,1,0.8413,,,,,,,,,,,,,,,,,,,,,,,
297055,2022-10-03_11h24.07.471,vts_reward_expectancy,2022.2.4,Win32,59.99880002,Chrome,1280,720,,,,,0,675,,,,,,,,,,,,,,,,,W,160,circle,1,0,,,2,,,,,,,,,,,,,switch,letter,lettSwt,f,vtsPrac,3,0,3,0,1,0.8635,,,,,,,,,,,,,,,,,,,,,,,
297055,2022-10-03_11h24.07.471,vts_reward_expectancy,2022.2.4,Win32,59.99880002,Chrome,1280,720,,,,,0,675,,,,,,,,,,,,,,,,,B,146,hexagon,1,0,,,2,,,,,,,,,,,,,repeat,letter,lettRpt,d,vtsPrac,4,0,4,0,1,0.8827,,,,,,,,,,,,,,,,,,,,,,,
297055,2022-10-03_11h24.07.471,vts_reward_expectancy,2022.2.4,Win32,59.99880002,Chrome,1280,720,,,,,0,675,,,,,,,,,,,,,,,,,Y,125,triangle,1,0,,,2,,,,,,,,,,,,,switch,number,numSwt,j,vtsPrac,5,0,5,0,1,1.1976,,,,,,,,,,,,,,,,,,,,,,,
297055,2022-10-03_11h24.07.471,vts_reward_expectancy,2022.2.4,Win32,59.99880002,Chrome,1280,720,,,,,0,675,,,,,,,,,,,,,,,,,D,139,circle,1,0,,,2,,,,,,,,,,,,,switch,letter,lettSwt,d,vtsPrac,6,0,6,0,1,1.0323,,,,,,,,,,,,,,,,,,,,,,,
297055,2022-10-03_11h24.07.471,vts_reward_expectancy,2022.2.4,Win32,59.99880002,Chrome,1280,720,,,,,0,675,,,,,,,,,,,,,,,,,W,160,triangle,1,0,,,2,,,,,,,,,,,,,switch,number,numSwt,k,vtsPrac,7,0,7,0,1,0.9511,,,,,,,,,,,,,,,,,,,,,,,
297055,2022-10-03_11h24.07.471,vts_reward_expectancy,2022.2.4,Win32,59.99880002,Chrome,1280,720,,,,,0,675,,,,,,,,,,,,,,,,,U,174,star,1,0,,,2,,,,,,,,,,,,,repeat,number,numRpt,k,vtsPrac,8,0,8,0,1,0.7836,,,,,,,,,,,,,,,,,,,,,,,
297055,2022-10-03_11h24.07.471,vts_reward_expectancy,2022.2.4,Win32,59.99880002,Chrome,1280,720,,,,,0,675,,,,,,,,,,,,,,,,,B,125,hexagon,1,0,,,2,,,,,,,,,,,,,switch,letter,lettSwt,d,vtsPrac,9,0,9,0,1,0.6997,,,,,,,,,,,,,,,,,,,,,,,
297055,2022-10-03_11h24.07.471,vts_reward_expectancy,2022.2.4,Win32,59.99880002,Chrome,1280,720,,,,,0,675,,,,,,,,,,,,,,,,,F,167,hexagon,1,0,,,2,,,,,,,,,,,,,switch,number,numSwt,k,vtsPrac,10,0,10,0,1,1.0678,,,,,,,,,,,,,,,,,,,,,,,
297055,2022-10-03_11h24.07.471,vts_reward_expectancy,2022.2.4,Win32,59.99880002,Chrome,1280,720,,,,,0,675,,,,,,,,,,,,,,,,,Y,146,circle,1,0,,,2,,,,,,,,,,,,,repeat,number,numRpt,j,vtsPrac,11,0,11,0,1,1.193,,,,,,,,,,,,,,,,,,,,,,,
297055,2022-10-03_11h24.07.471,vts_reward_expectancy,2022.2.4,Win32,59.99880002,Chrome,1280,720,,,,,0,675,,,,,,,,,,,,,,,,,D,167,circle,1,0,,,2,,,,,,,,,,,,,switch,letter,lettSwt,d,vtsPrac,12,0,12,0,1,1.451,,,,,,,,,,,,,,,,,,,,,,,
297055,2022-10-03_11h24.07.471,vts_reward_expectancy,2022.2.4,Win32,59.99880002,Chrome,1280,720,,,,,0,675,,,,,,,,,,,,,,,,,W,132,hexagon,1,0,,,2,,,,,,,,,,,,,switch,number,numSwt,j,vtsPrac,13,0,13,0,1,0.763,,,,,,,,,,,,,,,,,,,,,,,
297055,2022-10-03_11h24.07.471,vts_reward_expectancy,2022.2.4,Win32,59.99880002,Chrome,1280,720,,,,,0,675,,,,,,,,,,,,,,,,,Y,174,circle,1,0,,,2,,,,,,,,,,,,,switch,letter,lettSwt,f,vtsPrac,14,0,14,0,1,0.9339,,,,,,,,,,,,,,,,,,,,,,,
297055,2022-10-03_11h24.07.471,vts_reward_expectancy,2022.2.4,Win32,59.99880002,Chrome,1280,720,,,,,0,675,,,,,,,,,,,,,,,,,S,181,star,1,0,,,2,,,,,,,,,,,,,switch,number,numSwt,k,vtsPrac,15,0,15,0,1,0.9611,,,,,,,,,,,,,,,,,,,,,,,
297055,2022-10-03_11h24.07.471,vts_reward_expectancy,2022.2.4,Win32,59.99880002,Chrome,1280,720,,,,,,,,,,,,,,,,,,,,,,,,,,,,,,,,,,,,,,,,,,,,,,,,,,,,,,,,,,,,,,,,,,,,,,,,,,,,
297055,2022-10-03_11h24.07.471,vts_reward_expectancy,2022.2.4,Win32,59.99880002,Chrome,1280,720,,,,,,,,,,,,,,,,,,,,,,,,,,,,,,,,,,,,,,,,,,,,,,,,,,,,,,,,,,,,,,,,,,,,,,,,,,,,
297055,2022-10-03_11h24.07.471,vts_reward_expectancy,2022.2.4,Win32,59.99880002,Chrome,1280,720,,,,,0,675,,,,,,,,,,,,,,,,,S,132,star,1,0,,,,,,,,,,,,,,,,repeat,number,numRpt,j,noRew,,,,,,1.8014,0,0,0,0,0,1,,,,,,,,,,,,,,,,,
297055,2022-10-03_11h24.07.471,vts_reward_expectancy,2022.2.4,Win32,59.99880002,Chrome,1280,720,,,,,0,675,,,,,,,,,,,,,,,,,W,167,hexagon,1,0,,,,,,,,,,,,,,,,switch,letter,lettSwt,f,noRew,,,,,,2.084,0,1,0,1,0,1,,,,,,,,,,,,,,,,,
297055,2022-10-03_11h24.07.471,vts_reward_expectancy,2022.2.4,Win32,59.99880002,Chrome,1280,720,,,,,0,675,,,,,,,,,,,,,,,,,U,160,star,1,0,,,,,,,,,,,,,,,,repeat,letter,lettRpt,f,noRew,,,,,,1.1008,0,2,0,2,0,1,,,,,,,,,,,,,,,,,
297055,2022-10-03_11h24.07.471,vts_reward_expectancy,2022.2.4,Win32,59.99880002,Chrome,1280,720,,,,,0,675,,,,,,,,,,,,,,,,,F,146,hexagon,1,0,,,,,,,,,,,,,,,,switch,number,numSwt,j,noRew,,,,,,1.0762,0,3,0,3,0,1,,,,,,,,,,,,,,,,,
297055,2022-10-03_11h24.07.471,vts_reward_expectancy,2022.2.4,Win32,59.99880002,Chrome,1280,720,,,,,0,675,,,,,,,,,,,,,,,,,S,132,triangle,1,0,,,,,,,,,,,,,,,,repeat,number,numRpt,j,noRew,,,,,,1.8185,0,4,0,4,0,1,,,,,,,,,,,,,,,,,
297055,2022-10-03_11h24.07.471,vts_reward_expectancy,2022.2.4,Win32,59.99880002,Chrome,1280,720,,,,,0,675,,,,,,,,,,,,,,,,,W,167,hexagon,1,0,,,,,,,,,,,,,,,,switch,letter,lettSwt,f,noRew,,,,,,0.8643,0,5,0,5,0,1,,,,,,,,,,,,,,,,,
297055,2022-10-03_11h24.07.471,vts_reward_expectancy,2022.2.4,Win32,59.99880002,Chrome,1280,720,,,,,0,675,,,,,,,,,,,,,,,,,U,160,star,1,0,,,,,,,,,,,,,,,,switch,number,numSwt,k,noRew,,,,,,0.6149,0,6,0,6,0,1,,,,,,,,,,,,,,,,,
297055,2022-10-03_11h24.07.471,vts_reward_expectancy,2022.2.4,Win32,59.99880002,Chrome,1280,720,,,,,0,675,,,,,,,,,,,,,,,,,F,146,triangle,0,0,,,,,,,,,,,,,,,,switch,letter,NA,f,noRew,,,,,,1.1148,0,7,0,7,0,1,,,,,,,,,,,,,,,,,
297055,2022-10-03_11h24.07.471,vts_reward_expectancy,2022.2.4,Win32,59.99880002,Chrome,1280,720,,,,,0,675,,,,,,,,,,,,,,,,,U,139,triangle,1,1,,,,,,,,,,,,,,,,switch,number,numSwt,j,noRew,,,,,,1.5647,0,8,0,8,0,1,,,,,,,,,,,,,,,,,
297055,2022-10-03_11h24.07.471,vts_reward_expectancy,2022.2.4,Win32,59.99880002,Chrome,1280,720,,,,,0,675,,,,,,,,,,,,,,,,,S,160,hexagon,0,0,,,,,,,,,,,,,,,,switch,letter,NA,d,noRew,,,,,,1.8317,0,9,0,9,0,1,,,,,,,,,,,,,,,,,
297055,2022-10-03_11h24.07.471,vts_reward_expectancy,2022.2.4,Win32,59.99880002,Chrome,1280,720,,,,,0,675,,,,,,,,,,,,,,,,,B,181,star,1,1,,,,,,,,,,,,,,,,repeat,letter,lettRpt,d,noRew,,,,,,0.7125,0,10,0,10,0,1,,,,,,,,,,,,,,,,,
297055,2022-10-03_11h24.07.471,vts_reward_expectancy,2022.2.4,Win32,59.99880002,Chrome,1280,720,,,,,0,675,,,,,,,,,,,,,,,,,D,167,circle,1,0,,,,,,,,,,,,,,,,repeat,letter,lettRpt,d,noRew,,,,,,0.8319,0,11,0,11,0,1,,,,,,,,,,,,,,,,,
297055,2022-10-03_11h24.07.471,vts_reward_expectancy,2022.2.4,Win32,59.99880002,Chrome,1280,720,,,,,0,675,,,,,,,,,,,,,,,,,S,139,triangle,1,0,,,,,,,,,,,,,,,,repeat,letter,lettRpt,f,noRew,,,,,,0.798,0,12,0,12,0,1,,,,,,,,,,,,,,,,,
297055,2022-10-03_11h24.07.471,vts_reward_expectancy,2022.2.4,Win32,59.99880002,Chrome,1280,720,,,,,0,675,,,,,,,,,,,,,,,,,U,132,circle,1,0,,,,,,,,,,,,,,,,switch,number,numSwt,j,noRew,,,,,,1.8983,0,13,0,13,0,1,,,,,,,,,,,,,,,,,
297055,2022-10-03_11h24.07.471,vts_reward_expectancy,2022.2.4,Win32,59.99880002,Chrome,1280,720,,,,,0,675,,,,,,,,,,,,,,,,,F,160,circle,1,0,,,,,,,,,,,,,,,,repeat,number,numRpt,k,noRew,,,,,,1.6673,0,14,0,14,0,1,,,,,,,,,,,,,,,,,
297055,2022-10-03_11h24.07.471,vts_reward_expectancy,2022.2.4,Win32,59.99880002,Chrome,1280,720,,,,,0,675,,,,,,,,,,,,,,,,,Y,174,hexagon,1,0,,,,,,,,,,,,,,,,switch,letter,lettSwt,f,noRew,,,,,,0.9487,0,15,0,15,0,1,,,,,,,,,,,,,,,,,
297055,2022-10-03_11h24.07.471,vts_reward_expectancy,2022.2.4,Win32,59.99880002,Chrome,1280,720,,,,,0,675,,,,,,,,,,,,,,,,,D,160,star,1,0,,,,,,,,,,,,,,,,repeat,letter,lettRpt,d,noRew,,,,,,1.0658,0,16,0,16,0,1,,,,,,,,,,,,,,,,,
297055,2022-10-03_11h24.07.471,vts_reward_expectancy,2022.2.4,Win32,59.99880002,Chrome,1280,720,,,,,0,675,,,,,,,,,,,,,,,,,Y,125,triangle,1,0,,,,,,,,,,,,,,,,repeat,letter,lettRpt,f,noRew,,,,,,1.232,0,17,0,17,0,1,,,,,,,,,,,,,,,,,
297055,2022-10-03_11h24.07.471,vts_reward_expectancy,2022.2.4,Win32,59.99880002,Chrome,1280,720,,,,,0,675,,,,,,,,,,,,,,,,,B,174,star,1,0,,,,,,,,,,,,,,,,switch,number,numSwt,k,noRew,,,,,,1.6985,0,18,0,18,0,1,,,,,,,,,,,,,,,,,
297055,2022-10-03_11h24.07.471,vts_reward_expectancy,2022.2.4,Win32,59.99880002,Chrome,1280,720,,,,,0,675,,,,,,,,,,,,,,,,,W,146,circle,1,0,,,,,,,,,,,,,,,,repeat,number,numRpt,j,noRew,,,,,,1.8308,0,19,0,19,0,1,,,,,,,,,,,,,,,,,
297055,2022-10-03_11h24.07.471,vts_reward_expectancy,2022.2.4,Win32,59.99880002,Chrome,1280,720,,,,,0,675,,,,,,,,,,,,,,,,,Y,160,hexagon,1,0,,,,,,,,,,,,,,,,switch,letter,lettSwt,f,noRew,,,,,,0.7337,0,20,0,20,0,1,,,,,,,,,,,,,,,,,
297055,2022-10-03_11h24.07.471,vts_reward_expectancy,2022.2.4,Win32,59.99880002,Chrome,1280,720,,,,,0,675,,,,,,,,,,,,,,,,,S,139,triangle,0,0,,,,,,,,,,,,,,,,repeat,letter,NA,d,noRew,,,,,,2.6675,0,21,0,21,0,1,,,,,,,,,,,,,,,,,
297055,2022-10-03_11h24.07.471,vts_reward_expectancy,2022.2.4,Win32,59.99880002,Chrome,1280,720,,,,,0,675,,,,,,,,,,,,,,,,,F,174,circle,1,1,,,,,,,,,,,,,,,,switch,number,numSwt,k,noRew,,,,,,1.7983,0,22,0,22,0,1,,,,,,,,,,,,,,,,,
297055,2022-10-03_11h24.07.471,vts_reward_expectancy,2022.2.4,Win32,59.99880002,Chrome,1280,720,,,,,0,675,,,,,,,,,,,,,,,,,B,125,triangle,1,0,,,,,,,,,,,,,,,,switch,letter,lettSwt,d,noRew,,,,,,0.7974,0,23,0,23,0,1,,,,,,,,,,,,,,,,,
297055,2022-10-03_11h24.07.471,vts_reward_expectancy,2022.2.4,Win32,59.99880002,Chrome,1280,720,,,,,0,675,,,,,,,,,,,,,,,,,B,146,triangle,1,0,,,,,,,,,,,,,,,,repeat,letter,lettRpt,d,noRew,,,,,,0.9667,0,24,0,24,0,1,,,,,,,,,,,,,,,,,
297055,2022-10-03_11h24.07.471,vts_reward_expectancy,2022.2.4,Win32,59.99880002,Chrome,1280,720,,,,,0,675,,,,,,,,,,,,,,,,,F,167,circle,1,0,,,,,,,,,,,,,,,,repeat,letter,lettRpt,d,noRew,,,,,,1.1124,0,25,0,25,0,1,,,,,,,,,,,,,,,,,
297055,2022-10-03_11h24.07.471,vts_reward_expectancy,2022.2.4,Win32,59.99880002,Chrome,1280,720,,,,,0,675,,,,,,,,,,,,,,,,,Y,160,triangle,1,0,,,,,,,,,,,,,,,,switch,number,numSwt,k,noRew,,,,,,0.748,0,26,0,26,0,1,,,,,,,,,,,,,,,,,
297055,2022-10-03_11h24.07.471,vts_reward_expectancy,2022.2.4,Win32,59.99880002,Chrome,1280,720,,,,,0,675,,,,,,,,,,,,,,,,,D,125,hexagon,1,0,,,,,,,,,,,,,,,,repeat,number,numRpt,j,noRew,,,,,,0.8142,0,27,0,27,0,1,,,,,,,,,,,,,,,,,
297055,2022-10-03_11h24.07.471,vts_reward_expectancy,2022.2.4,Win32,59.99880002,Chrome,1280,720,,,,,0,675,,,,,,,,,,,,,,,,,F,174,circle,1,0,,,,,,,,,,,,,,,,switch,letter,lettSwt,d,noRew,,,,,,1.0318,0,28,0,28,0,1,,,,,,,,,,,,,,,,,
297055,2022-10-03_11h24.07.471,vts_reward_expectancy,2022.2.4,Win32,59.99880002,Chrome,1280,720,,,,,0,675,,,,,,,,,,,,,,,,,W,160,star,1,0,,,,,,,,,,,,,,,,switch,number,numSwt,k,noRew,,,,,,0.9163,0,29,0,29,0,1,,,,,,,,,,,,,,,,,
297055,2022-10-03_11h24.07.471,vts_reward_expectancy,2022.2.4,Win32,59.99880002,Chrome,1280,720,,,,,0,675,,,,,,,,,,,,,,,,,Y,167,triangle,1,0,,,,,,,,,,,,,,,,repeat,number,numRpt,k,noRew,,,,,,0.949,0,30,0,30,0,1,,,,,,,,,,,,,,,,,
297055,2022-10-03_11h24.07.471,vts_reward_expectancy,2022.2.4,Win32,59.99880002,Chrome,1280,720,,,,,0,675,,,,,,,,,,,,,,,,,U,181,star,1,0,,,,,,,,,,,,,,,,repeat,number,numRpt,k,noRew,,,,,,1.1651,0,31,0,31,0,1,,,,,,,,,,,,,,,,,
297055,2022-10-03_11h24.07.471,vts_reward_expectancy,2022.2.4,Win32,59.99880002,Chrome,1280,720,,,,,0,675,,,,,,,,,,,,,,,,,D,146,circle,1,0,,,,,,,,,,,,,,,,switch,letter,lettSwt,d,noRew,,,,,,0.7117,0,32,0,32,0,1,,,,,,,,,,,,,,,,,
297055,2022-10-03_11h24.07.471,vts_reward_expectancy,2022.2.4,Win32,59.99880002,Chrome,1280,720,,,,,0,675,,,,,,,,,,,,,,,,,U,125,star,1,0,,,,,,,,,,,,,,,,repeat,letter,lettRpt,f,noRew,,,,,,0.967,0,33,0,33,0,1,,,,,,,,,,,,,,,,,
297055,2022-10-03_11h24.07.471,vts_reward_expectancy,2022.2.4,Win32,59.99880002,Chrome,1280,720,,,,,0,675,,,,,,,,,,,,,,,,,Y,174,triangle,1,0,,,,,,,,,,,,,,,,repeat,letter,lettRpt,f,noRew,,,,,,1.0618,0,34,0,34,0,1,,,,,,,,,,,,,,,,,
297055,2022-10-03_11h24.07.471,vts_reward_expectancy,2022.2.4,Win32,59.99880002,Chrome,1280,720,,,,,0,675,,,,,,,,,,,,,,,,,W,132,star,1,0,,,,,,,,,,,,,,,,repeat,letter,lettRpt,f,noRew,,,,,,0.8589,0,35,0,35,0,1,,,,,,,,,,,,,,,,,
297055,2022-10-03_11h24.07.471,vts_reward_expectancy,2022.2.4,Win32,59.99880002,Chrome,1280,720,,,,,0,675,,,,,,,,,,,,,,,,,W,125,triangle,1,0,,,,,,,,,,,,,,,,switch,number,numSwt,j,noRew,,,,,,2.0346,0,36,0,36,0,1,,,,,,,,,,,,,,,,,
297055,2022-10-03_11h24.07.471,vts_reward_expectancy,2022.2.4,Win32,59.99880002,Chrome,1280,720,,,,,0,675,,,,,,,,,,,,,,,,,H,174,star,1,0,,,,,,,,,,,,,,,,repeat,number,numRpt,k,noRew,,,,,,2.3679,0,37,0,37,0,1,,,,,,,,,,,,,,,,,
297055,2022-10-03_11h24.07.471,vts_reward_expectancy,2022.2.4,Win32,59.99880002,Chrome,1280,720,,,,,0,675,,,,,,,,,,,,,,,,,U,139,star,1,0,,,,,,,,,,,,,,,,repeat,number,numRpt,j,noRew,,,,,,1.701,0,38,0,38,0,1,,,,,,,,,,,,,,,,,
297055,2022-10-03_11h24.07.471,vts_reward_expectancy,2022.2.4,Win32,59.99880002,Chrome,1280,720,,,,,0,675,,,,,,,,,,,,,,,,,F,160,hexagon,1,0,,,,,,,,,,,,,,,,switch,letter,lettSwt,d,noRew,,,,,,0.882,0,39,0,39,0,1,,,,,,,,,,,,,,,,,
297055,2022-10-03_11h24.07.471,vts_reward_expectancy,2022.2.4,Win32,59.99880002,Chrome,1280,720,,,,,0,675,,,,,,,,,,,,,,,,,F,132,circle,1,0,,,,,,,,,,,,,,,,repeat,letter,lettRpt,d,noRew,,,,,,1.2756,0,40,0,40,0,1,,,,,,,,,,,,,,,,,
297055,2022-10-03_11h24.07.471,vts_reward_expectancy,2022.2.4,Win32,59.99880002,Chrome,1280,720,,,,,0,675,,,,,,,,,,,,,,,,,B,160,star,1,0,,,,,,,,,,,,,,,,repeat,letter,lettRpt,d,noRew,,,,,,0.6989,0,41,0,41,0,1,,,,,,,,,,,,,,,,,
297055,2022-10-03_11h24.07.471,vts_reward_expectancy,2022.2.4,Win32,59.99880002,Chrome,1280,720,,,,,0,675,,,,,,,,,,,,,,,,,Y,139,hexagon,1,0,,,,,,,,,,,,,,,,switch,number,numSwt,j,noRew,,,,,,0.6169,0,42,0,42,0,1,,,,,,,,,,,,,,,,,
297055,2022-10-03_11h24.07.471,vts_reward_expectancy,2022.2.4,Win32,59.99880002,Chrome,1280,720,,,,,0,675,,,,,,,,,,,,,,,,,D,146,circle,1,0,,,,,,,,,,,,,,,,repeat,number,numRpt,j,noRew,,,,,,1.3672,0,43,0,43,0,1,,,,,,,,,,,,,,,,,
297055,2022-10-03_11h24.07.471,vts_reward_expectancy,2022.2.4,Win32,59.99880002,Chrome,1280,720,,,,,0,675,,,,,,,,,,,,,,,,,W,167,circle,1,0,,,,,,,,,,,,,,,,repeat,number,numRpt,k,noRew,,,,,,1.017,0,44,0,44,0,1,,,,,,,,,,,,,,,,,
297055,2022-10-03_11h24.07.471,vts_reward_expectancy,2022.2.4,Win32,59.99880002,Chrome,1280,720,,,,,0,675,,,,,,,,,,,,,,,,,H,132,hexagon,1,0,,,,,,,,,,,,,,,,switch,letter,lettSwt,d,noRew,,,,,,2.7178,0,45,0,45,0,1,,,,,,,,,,,,,,,,,
297055,2022-10-03_11h24.07.471,vts_reward_expectancy,2022.2.4,Win32,59.99880002,Chrome,1280,720,,,,,0,675,,,,,,,,,,,,,,,,,Y,160,star,1,0,,,,,,,,,,,,,,,,repeat,letter,lettRpt,f,noRew,,,,,,1.5253,0,46,0,46,0,1,,,,,,,,,,,,,,,,,
297055,2022-10-03_11h24.07.471,vts_reward_expectancy,2022.2.4,Win32,59.99880002,Chrome,1280,720,,,,,0,675,,,,,,,,,,,,,,,,,U,139,hexagon,1,0,,,,,,,,,,,,,,,,switch,number,numSwt,j,noRew,,,,,,0.9838,0,47,0,47,0,1,,,,,,,,,,,,,,,,,
297055,2022-10-03_11h24.07.471,vts_reward_expectancy,2022.2.4,Win32,59.99880002,Chrome,1280,720,,,,,0,675,,,,,,,,,,,,,,,,,B,181,hexagon,1,0,,,,,,,,,,,,,,,,switch,letter,lettSwt,d,noRew,,,,,,1.1839,0,48,0,48,0,1,,,,,,,,,,,,,,,,,
297055,2022-10-03_11h24.07.471,vts_reward_expectancy,2022.2.4,Win32,59.99880002,Chrome,1280,720,,,,,0,675,,,,,,,,,,,,,,,,,Y,167,triangle,1,0,,,,,,,,,,,,,,,,switch,number,numSwt,k,noRew,,,,,,1.0652,0,49,0,49,0,1,,,,,,,,,,,,,,,,,
297055,2022-10-03_11h24.07.471,vts_reward_expectancy,2022.2.4,Win32,59.99880002,Chrome,1280,720,,,,,0,675,,,,,,,,,,,,,,,,,H,139,star,1,0,,,,,,,,,,,,,,,,repeat,number,numRpt,j,noRew,,,,,,0.834,0,50,0,50,0,1,,,,,,,,,,,,,,,,,
297055,2022-10-03_11h24.07.471,vts_reward_expectancy,2022.2.4,Win32,59.99880002,Chrome,1280,720,,,,,0,675,,,,,,,,,,,,,,,,,S,125,circle,1,0,,,,,,,,,,,,,,,,switch,letter,lettSwt,f,noRew,,,,,,0.9337,0,51,0,51,0,1,,,,,,,,,,,,,,,,,
297055,2022-10-03_11h24.07.471,vts_reward_expectancy,2022.2.4,Win32,59.99880002,Chrome,1280,720,,,,,0,675,,,,,,,,,,,,,,,,,S,132,circle,1,0,,,,,,,,,,,,,,,,repeat,letter,lettRpt,f,noRew,,,,,,0.7008,0,52,0,52,0,1,,,,,,,,,,,,,,,,,
297055,2022-10-03_11h24.07.471,vts_reward_expectancy,2022.2.4,Win32,59.99880002,Chrome,1280,720,,,,,0,675,,,,,,,,,,,,,,,,,D,174,hexagon,1,0,,,,,,,,,,,,,,,,repeat,letter,lettRpt,d,noRew,,,,,,0.7506,0,53,0,53,0,1,,,,,,,,,,,,,,,,,
297055,2022-10-03_11h24.07.471,vts_reward_expectancy,2022.2.4,Win32,59.99880002,Chrome,1280,720,,,,,0,675,,,,,,,,,,,,,,,,,H,139,triangle,1,0,,,,,,,,,,,,,,,,switch,number,numSwt,j,noRew,,,,,,1.6648,0,54,0,54,0,1,,,,,,,,,,,,,,,,,
297055,2022-10-03_11h24.07.471,vts_reward_expectancy,2022.2.4,Win32,59.99880002,Chrome,1280,720,,,,,0,675,,,,,,,,,,,,,,,,,Y,146,circle,1,0,,,,,,,,,,,,,,,,repeat,number,numRpt,j,noRew,,,,,,0.7173,0,55,0,55,0,1,,,,,,,,,,,,,,,,,
297055,2022-10-03_11h24.07.471,vts_reward_expectancy,2022.2.4,Win32,59.99880002,Chrome,1280,720,,,,,0,675,,,,,,,,,,,,,,,,,S,125,star,1,0,,,,,,,,,,,,,,,,repeat,number,numRpt,j,noRew,,,,,,0.6843,0,56,0,56,0,1,,,,,,,,,,,,,,,,,
297055,2022-10-03_11h24.07.471,vts_reward_expectancy,2022.2.4,Win32,59.99880002,Chrome,1280,720,,,,,0,675,,,,,,,,,,,,,,,,,H,132,circle,1,0,,,,,,,,,,,,,,,,repeat,number,numRpt,j,noRew,,,,,,0.7644,0,57,0,57,0,1,,,,,,,,,,,,,,,,,
297055,2022-10-03_11h24.07.471,vts_reward_expectancy,2022.2.4,Win32,59.99880002,Chrome,1280,720,,,,,0,675,,,,,,,,,,,,,,,,,W,160,circle,1,0,,,,,,,,,,,,,,,,switch,letter,lettSwt,f,noRew,,,,,,0.8318,0,58,0,58,0,1,,,,,,,,,,,,,,,,,
297055,2022-10-03_11h24.07.471,vts_reward_expectancy,2022.2.4,Win32,59.99880002,Chrome,1280,720,,,,,0,675,,,,,,,,,,,,,,,,,U,181,triangle,1,0,,,,,,,,,,,,,,,,switch,number,numSwt,k,noRew,,,,,,0.6806,0,59,0,59,0,1,,,,,,,,,,,,,,,,,
297055,2022-10-03_11h24.07.471,vts_reward_expectancy,2022.2.4,Win32,59.99880002,Chrome,1280,720,,,,,0,675,,,,,,,,,,,,,,,,,F,160,circle,1,0,,,,,,,,,,,,,,,,switch,letter,lettSwt,d,noRew,,,,,,1.4642,0,60,0,60,0,1,,,,,,,,,,,,,,,,,
297055,2022-10-03_11h24.07.471,vts_reward_expectancy,2022.2.4,Win32,59.99880002,Chrome,1280,720,,,,,0,675,,,,,,,,,,,,,,,,,S,167,star,0,0,,,,,,,,,,,,,,,,repeat,letter,NA,d,noRew,,,,,,0.6147,0,61,0,61,0,1,,,,,,,,,,,,,,,,,
297055,2022-10-03_11h24.07.471,vts_reward_expectancy,2022.2.4,Win32,59.99880002,Chrome,1280,720,,,,,0,675,,,,,,,,,,,,,,,,,Y,139,triangle,1,1,,,,,,,,,,,,,,,,repeat,letter,lettRpt,f,noRew,,,,,,1.465,0,62,0,62,0,1,,,,,,,,,,,,,,,,,
297055,2022-10-03_11h24.07.471,vts_reward_expectancy,2022.2.4,Win32,59.99880002,Chrome,1280,720,,,,,0,675,,,,,,,,,,,,,,,,,B,132,circle,1,0,,,,,,,,,,,,,,,,repeat,letter,lettRpt,d,noRew,,,,,,0.6472,0,63,0,63,0,1,,,,,,,,,,,,,,,,,
297055,2022-10-03_11h24.07.471,vts_reward_expectancy,2022.2.4,Win32,59.99880002,Chrome,1280,720,,,,,,,,,,,,,,,,,,,,,,,,,,,,,,,,,,,,,,,,,,,,,,,,,,,,,,,,,,,,,,,,,,,,,,,,,,,,
297055,2022-10-03_11h24.07.471,vts_reward_expectancy,2022.2.4,Win32,59.99880002,Chrome,1280,720,,,,,10,685,,,,,,,,,,,,,,,,,U,125,hexagon,1,0,,,,,,,,,,,,,,,,switch,number,numSwt,j,Hi,,,,,,0.5672,0,,,,,,space,9.3549,high,0,0,0,0,1,,,,,,,,,
297055,2022-10-03_11h24.07.471,vts_reward_expectancy,2022.2.4,Win32,59.99880002,Chrome,1280,720,,,,,1,686,,,,,,,,,,,,,,,,,D,174,triangle,1,0,,,,,,,,,,,,,,,,switch,letter,lettSwt,d,Lo,,,,,,0.6319,0,,,,,,,,high,1,0,1,0,1,,,,,,,,,
297055,2022-10-03_11h24.07.471,vts_reward_expectancy,2022.2.4,Win32,59.99880002,Chrome,1280,720,,,,,1,687,,,,,,,,,,,,,,,,,F,160,hexagon,1,0,,,,,,,,,,,,,,,,switch,number,numSwt,k,Hi,,,,,,0.8155,0,,,,,,,,high,2,0,2,0,1,,,,,,,,,
297055,2022-10-03_11h24.07.471,vts_reward_expectancy,2022.2.4,Win32,59.99880002,Chrome,1280,720,,,,,10,697,,,,,,,,,,,,,,,,,W,167,triangle,1,0,,,,,,,,,,,,,,,,repeat,number,numRpt,k,Lo,,,,,,0.5174,0,,,,,,,,high,3,0,3,0,1,,,,,,,,,
297055,2022-10-03_11h24.07.471,vts_reward_expectancy,2022.2.4,Win32,59.99880002,Chrome,1280,720,,,,,10,707,,,,,,,,,,,,,,,,,B,139,hexagon,1,0,,,,,,,,,,,,,,,,repeat,number,numRpt,j,Hi,,,,,,0.6506,0,,,,,,,,high,4,0,4,0,1,,,,,,,,,
297055,2022-10-03_11h24.07.471,vts_reward_expectancy,2022.2.4,Win32,59.99880002,Chrome,1280,720,,,,,1,708,,,,,,,,,,,,,,,,,S,181,triangle,1,0,,,,,,,,,,,,,,,,switch,letter,lettSwt,f,Lo,,,,,,0.8846,0,,,,,,,,high,5,0,5,0,1,,,,,,,,,
297055,2022-10-03_11h24.07.471,vts_reward_expectancy,2022.2.4,Win32,59.99880002,Chrome,1280,720,,,,,1,709,,,,,,,,,,,,,,,,,H,146,triangle,1,0,,,,,,,,,,,,,,,,repeat,letter,lettRpt,d,Lo,,,,,,0.815,0,,,,,,,,high,6,0,6,0,1,,,,,,,,,
297055,2022-10-03_11h24.07.471,vts_reward_expectancy,2022.2.4,Win32,59.99880002,Chrome,1280,720,,,,,10,719,,,,,,,,,,,,,,,,,Y,132,hexagon,1,0,,,,,,,,,,,,,,,,switch,number,numSwt,j,Hi,,,,,,0.6594,0,,,,,,,,high,7,0,7,0,1,,,,,,,,,
297055,2022-10-03_11h24.07.471,vts_reward_expectancy,2022.2.4,Win32,59.99880002,Chrome,1280,720,,,,,1,720,,,,,,,,,,,,,,,,,U,125,triangle,1,0,,,,,,,,,,,,,,,,repeat,number,numRpt,j,Lo,,,,,,1.2484,0,,,,,,,,high,8,0,8,0,1,,,,,,,,,
297055,2022-10-03_11h24.07.471,vts_reward_expectancy,2022.2.4,Win32,59.99880002,Chrome,1280,720,,,,,10,730,,,,,,,,,,,,,,,,,D,174,hexagon,1,0,,,,,,,,,,,,,,,,repeat,number,numRpt,k,Hi,,,,,,0.834,0,,,,,,,,high,9,0,9,0,1,,,,,,,,,
297055,2022-10-03_11h24.07.471,vts_reward_expectancy,2022.2.4,Win32,59.99880002,Chrome,1280,720,,,,,0,730,,,,,,,,,,,,,,,,,F,160,hexagon,1,0,,,,,,,,,,,,,,,,repeat,number,numRpt,k,Hi,,,,,,2.5181,0,,,,,,,,high,10,0,10,0,1,,,,,,,,,
297055,2022-10-03_11h24.07.471,vts_reward_expectancy,2022.2.4,Win32,59.99880002,Chrome,1280,720,,,,,1,731,,,,,,,,,,,,,,,,,W,167,triangle,1,0,,,,,,,,,,,,,,,,repeat,number,numRpt,k,Lo,,,,,,0.8814,0,,,,,,,,high,11,0,11,0,1,,,,,,,,,
297055,2022-10-03_11h24.07.471,vts_reward_expectancy,2022.2.4,Win32,59.99880002,Chrome,1280,720,,,,,10,741,,,,,,,,,,,,,,,,,B,139,hexagon,1,0,,,,,,,,,,,,,,,,repeat,number,numRpt,j,Hi,,,,,,0.7099,0,,,,,,,,high,12,0,12,0,1,,,,,,,,,
297055,2022-10-03_11h24.07.471,vts_reward_expectancy,2022.2.4,Win32,59.99880002,Chrome,1280,720,,,,,1,742,,,,,,,,,,,,,,,,,S,181,triangle,1,0,,,,,,,,,,,,,,,,repeat,number,numRpt,k,Lo,,,,,,1.4143,0,,,,,,,,high,13,0,13,0,1,,,,,,,,,
297055,2022-10-03_11h24.07.471,vts_reward_expectancy,2022.2.4,Win32,59.99880002,Chrome,1280,720,,,,,10,752,,,,,,,,,,,,,,,,,H,146,hexagon,1,0,,,,,,,,,,,,,,,,repeat,number,numRpt,j,Hi,,,,,,0.7176,0,,,,,,,,high,14,0,14,0,1,,,,,,,,,
297055,2022-10-03_11h24.07.471,vts_reward_expectancy,2022.2.4,Win32,59.99880002,Chrome,1280,720,,,,,1,753,,,,,,,,,,,,,,,,,Y,132,triangle,1,0,,,,,,,,,,,,,,,,switch,letter,lettSwt,f,Lo,,,,,,0.6256,0,,,,,,,,high,15,0,15,0,1,,,,,,,,,
297055,2022-10-03_11h24.07.471,vts_reward_expectancy,2022.2.4,Win32,59.99880002,Chrome,1280,720,,,,,10,763,,,,,,,,,,,,,,,,,U,167,triangle,1,0,,,,,,,,,,,,,,,,repeat,letter,lettRpt,f,Lo,,,,,,0.7494,0,,,,,,,,high,16,0,16,0,1,,,,,,,,,
297055,2022-10-03_11h24.07.471,vts_reward_expectancy,2022.2.4,Win32,59.99880002,Chrome,1280,720,,,,,10,773,,,,,,,,,,,,,,,,,B,146,hexagon,1,0,,,,,,,,,,,,,,,,switch,number,numSwt,j,Hi,,,,,,0.5992,0,,,,,,,,high,17,0,17,0,1,,,,,,,,,
297055,2022-10-03_11h24.07.471,vts_reward_expectancy,2022.2.4,Win32,59.99880002,Chrome,1280,720,,,,,0,773,,,,,,,,,,,,,,,,,F,139,hexagon,0,0,,,,,,,,,,,,,,,,switch,letter,NA,f,Hi,,,,,,0.5427,0,,,,,,,,high,18,0,18,0,1,,,,,,,,,
297055,2022-10-03_11h24.07.471,vts_reward_expectancy,2022.2.4,Win32,59.99880002,Chrome,1280,720,,,,,10,783,,,,,,,,,,,,,,,,,W,181,triangle,1,1,,,,,,,,,,,,,,,,repeat,letter,lettRpt,f,Lo,,,,,,1.0339,0,,,,,,,,high,19,0,19,0,1,,,,,,,,,
297055,2022-10-03_11h24.07.471,vts_reward_expectancy,2022.2.4,Win32,59.99880002,Chrome,1280,720,,,,,10,793,,,,,,,,,,,,,,,,,Y,125,triangle,1,0,,,,,,,,,,,,,,,,repeat,letter,lettRpt,f,Lo,,,,,,1.9178,0,,,,,,,,high,20,0,20,0,1,,,,,,,,,
297055,2022-10-03_11h24.07.471,vts_reward_expectancy,2022.2.4,Win32,59.99880002,Chrome,1280,720,,,,,0,793,,,,,,,,,,,,,,,,,S,160,hexagon,1,0,,,,,,,,,,,,,,,,repeat,letter,lettRpt,f,Hi,,,,,,0.8674,0,,,,,,,,high,21,0,21,0,1,,,,,,,,,
297055,2022-10-03_11h24.07.471,vts_reward_expectancy,2022.2.4,Win32,59.99880002,Chrome,1280,720,,,,,1,794,,,,,,,,,,,,,,,,,D,132,triangle,1,0,,,,,,,,,,,,,,,,repeat,letter,lettRpt,d,Lo,,,,,,0.7843,0,,,,,,,,high,22,0,22,0,1,,,,,,,,,
297055,2022-10-03_11h24.07.471,vts_reward_expectancy,2022.2.4,Win32,59.99880002,Chrome,1280,720,,,,,0,794,,,,,,,,,,,,,,,,,H,174,hexagon,1,0,,,,,,,,,,,,,,,,repeat,letter,lettRpt,d,Hi,,,,,,0.9676,0,,,,,,,,high,23,0,23,0,1,,,,,,,,,
297055,2022-10-03_11h24.07.471,vts_reward_expectancy,2022.2.4,Win32,59.99880002,Chrome,1280,720,,,,,1,795,,,,,,,,,,,,,,,,,D,174,triangle,1,0,,,,,,,,,,,,,,,,repeat,letter,lettRpt,d,Lo,,,,,,0.9845,0,,,,,,,,high,24,0,24,0,1,,,,,,,,,
297055,2022-10-03_11h24.07.471,vts_reward_expectancy,2022.2.4,Win32,59.99880002,Chrome,1280,720,,,,,1,796,,,,,,,,,,,,,,,,,W,160,hexagon,1,0,,,,,,,,,,,,,,,,repeat,letter,lettRpt,f,Hi,,,,,,0.7511,0,,,,,,,,high,25,0,25,0,1,,,,,,,,,
297055,2022-10-03_11h24.07.471,vts_reward_expectancy,2022.2.4,Win32,59.99880002,Chrome,1280,720,,,,,1,797,,,,,,,,,,,,,,,,,B,132,triangle,1,0,,,,,,,,,,,,,,,,repeat,letter,lettRpt,d,Lo,,,,,,0.5343,0,,,,,,,,high,26,0,26,0,1,,,,,,,,,
297055,2022-10-03_11h24.07.471,vts_reward_expectancy,2022.2.4,Win32,59.99880002,Chrome,1280,720,,,,,0,797,,,,,,,,,,,,,,,,,F,146,hexagon,0,0,,,,,,,,,,,,,,,,repeat,letter,NA,f,Lo,,,,,,0.9678,0,,,,,,,,high,27,0,27,0,1,,,,,,,,,
297055,2022-10-03_11h24.07.471,vts_reward_expectancy,2022.2.4,Win32,59.99880002,Chrome,1280,720,,,,,10,807,,,,,,,,,,,,,,,,,H,167,triangle,1,1,,,,,,,,,,,,,,,,switch,number,numSwt,k,Lo,,,,,,0.9006,0,,,,,,,,high,28,0,28,0,1,,,,,,,,,
297055,2022-10-03_11h24.07.471,vts_reward_expectancy,2022.2.4,Win32,59.99880002,Chrome,1280,720,,,,,10,817,,,,,,,,,,,,,,,,,Y,139,hexagon,1,0,,,,,,,,,,,,,,,,repeat,number,numRpt,j,Hi,,,,,,0.5924,0,,,,,,,,high,29,0,29,0,1,,,,,,,,,
297055,2022-10-03_11h24.07.471,vts_reward_expectancy,2022.2.4,Win32,59.99880002,Chrome,1280,720,,,,,1,818,,,,,,,,,,,,,,,,,S,181,triangle,1,0,,,,,,,,,,,,,,,,switch,letter,lettSwt,f,Lo,,,,,,1.0812,0,,,,,,,,high,30,0,30,0,1,,,,,,,,,
297055,2022-10-03_11h24.07.471,vts_reward_expectancy,2022.2.4,Win32,59.99880002,Chrome,1280,720,,,,,0,818,,,,,,,,,,,,,,,,,U,125,hexagon,0,0,,,,,,,,,,,,,,,,repeat,letter,NA,d,Lo,,,,,,1.0838,0,,,,,,,,high,31,0,31,0,1,,,,,,,,,
297055,2022-10-03_11h24.07.471,vts_reward_expectancy,2022.2.4,Win32,59.99880002,Chrome,1280,720,,,,,0,818,,,,,,,,,,,,,,,,,F,160,circle,0,1,,,,,,,,,,,,,,,,switch,number,NA,j,Lo,,,,,,0.5509,1,,,,,,space,4.9867,low,0,0,0,0,1,,,,,,,,,
297055,2022-10-03_11h24.07.471,vts_reward_expectancy,2022.2.4,Win32,59.99880002,Chrome,1280,720,,,,,1,819,,,,,,,,,,,,,,,,,D,146,star,1,1,,,,,,,,,,,,,,,,switch,letter,lettSwt,d,Lo,,,,,,1.0175,1,,,,,,,,low,1,0,1,0,1,,,,,,,,,
297055,2022-10-03_11h24.07.471,vts_reward_expectancy,2022.2.4,Win32,59.99880002,Chrome,1280,720,,,,,0,819,,,,,,,,,,,,,,,,,S,139,circle,1,0,,,,,,,,,,,,,,,,repeat,letter,lettRpt,f,Hi,,,,,,0.8669,1,,,,,,,,low,2,0,2,0,1,,,,,,,,,
297055,2022-10-03_11h24.07.471,vts_reward_expectancy,2022.2.4,Win32,59.99880002,Chrome,1280,720,,,,,1,820,,,,,,,,,,,,,,,,,U,174,star,1,0,,,,,,,,,,,,,,,,switch,number,numSwt,k,Lo,,,,,,0.8253,1,,,,,,,,low,3,0,3,0,1,,,,,,,,,
297055,2022-10-03_11h24.07.471,vts_reward_expectancy,2022.2.4,Win32,59.99880002,Chrome,1280,720,,,,,0,820,,,,,,,,,,,,,,,,,W,167,circle,1,0,,,,,,,,,,,,,,,,repeat,number,numRpt,k,Hi,,,,,,0.7985,1,,,,,,,,low,4,0,4,0,1,,,,,,,,,
297055,2022-10-03_11h24.07.471,vts_reward_expectancy,2022.2.4,Win32,59.99880002,Chrome,1280,720,,,,,1,821,,,,,,,,,,,,,,,,,Y,125,star,1,0,,,,,,,,,,,,,,,,repeat,number,numRpt,j,Lo,,,,,,0.7007,1,,,,,,,,low,5,0,5,0,1,,,,,,,,,
297055,2022-10-03_11h24.07.471,vts_reward_expectancy,2022.2.4,Win32,59.99880002,Chrome,1280,720,,,,,10,831,,,,,,,,,,,,,,,,,H,132,star,1,0,,,,,,,,,,,,,,,,repeat,number,numRpt,j,Lo,,,,,,0.4676,1,,,,,,,,low,6,0,6,0,1,,,,,,,,,
297055,2022-10-03_11h24.07.471,vts_reward_expectancy,2022.2.4,Win32,59.99880002,Chrome,1280,720,,,,,10,841,,,,,,,,,,,,,,,,,B,181,circle,1,0,,,,,,,,,,,,,,,,repeat,number,numRpt,k,Hi,,,,,,0.6459,1,,,,,,,,low,7,0,7,0,1,,,,,,,,,
297055,2022-10-03_11h24.07.471,vts_reward_expectancy,2022.2.4,Win32,59.99880002,Chrome,1280,720,,,,,0,841,,,,,,,,,,,,,,,,,F,160,circle,0,0,,,,,,,,,,,,,,,,switch,letter,NA,f,Hi,,,,,,0.5988,1,,,,,,,,low,8,0,8,0,1,,,,,,,,,
297055,2022-10-03_11h24.07.471,vts_reward_expectancy,2022.2.4,Win32,59.99880002,Chrome,1280,720,,,,,10,851,,,,,,,,,,,,,,,,,D,146,star,1,1,,,,,,,,,,,,,,,,switch,number,numSwt,j,Lo,,,,,,0.7281,1,,,,,,,,low,9,0,9,0,1,,,,,,,,,
297055,2022-10-03_11h24.07.471,vts_reward_expectancy,2022.2.4,Win32,59.99880002,Chrome,1280,720,,,,,1,852,,,,,,,,,,,,,,,,,S,139,circle,1,0,,,,,,,,,,,,,,,,switch,letter,lettSwt,f,Hi,,,,,,0.4105,1,,,,,,,,low,10,0,10,0,1,,,,,,,,,
297055,2022-10-03_11h24.07.471,vts_reward_expectancy,2022.2.4,Win32,59.99880002,Chrome,1280,720,,,,,1,853,,,,,,,,,,,,,,,,,U,174,star,1,0,,,,,,,,,,,,,,,,repeat,letter,lettRpt,f,Lo,,,,,,0.7781,1,,,,,,,,low,11,0,11,0,1,,,,,,,,,
297055,2022-10-03_11h24.07.471,vts_reward_expectancy,2022.2.4,Win32,59.99880002,Chrome,1280,720,,,,,1,854,,,,,,,,,,,,,,,,,W,167,star,1,0,,,,,,,,,,,,,,,,repeat,letter,lettRpt,f,Lo,,,,,,0.5931,1,,,,,,,,low,12,0,12,0,1,,,,,,,,,
297055,2022-10-03_11h24.07.471,vts_reward_expectancy,2022.2.4,Win32,59.99880002,Chrome,1280,720,,,,,10,864,,,,,,,,,,,,,,,,,Y,125,circle,1,0,,,,,,,,,,,,,,,,repeat,letter,lettRpt,f,Hi,,,,,,0.6151,1,,,,,,,,low,13,0,13,0,1,,,,,,,,,
297055,2022-10-03_11h24.07.471,vts_reward_expectancy,2022.2.4,Win32,59.99880002,Chrome,1280,720,,,,,1,865,,,,,,,,,,,,,,,,,H,132,star,1,0,,,,,,,,,,,,,,,,switch,number,numSwt,j,Lo,,,,,,0.8006,1,,,,,,,,low,14,0,14,0,1,,,,,,,,,
297055,2022-10-03_11h24.07.471,vts_reward_expectancy,2022.2.4,Win32,59.99880002,Chrome,1280,720,,,,,0,865,,,,,,,,,,,,,,,,,B,181,circle,0,0,,,,,,,,,,,,,,,,repeat,number,NA,j,Lo,,,,,,0.4947,1,,,,,,,,low,15,0,15,0,1,,,,,,,,,
297055,2022-10-03_11h24.07.471,vts_reward_expectancy,2022.2.4,Win32,59.99880002,Chrome,1280,720,,,,,0,865,,,,,,,,,,,,,,,,,F,160,circle,1,1,,,,,,,,,,,,,,,,repeat,number,numRpt,k,Hi,,,,,,0.78,1,,,,,,,,low,16,0,16,0,1,,,,,,,,,
297055,2022-10-03_11h24.07.471,vts_reward_expectancy,2022.2.4,Win32,59.99880002,Chrome,1280,720,,,,,1,866,,,,,,,,,,,,,,,,,W,181,star,1,0,,,,,,,,,,,,,,,,repeat,number,numRpt,k,Lo,,,,,,0.4839,1,,,,,,,,low,17,0,17,0,1,,,,,,,,,
297055,2022-10-03_11h24.07.471,vts_reward_expectancy,2022.2.4,Win32,59.99880002,Chrome,1280,720,,,,,1,867,,,,,,,,,,,,,,,,,B,125,circle,1,0,,,,,,,,,,,,,,,,repeat,number,numRpt,j,Hi,,,,,,0.6841,1,,,,,,,,low,18,0,18,0,1,,,,,,,,,
297055,2022-10-03_11h24.07.471,vts_reward_expectancy,2022.2.4,Win32,59.99880002,Chrome,1280,720,,,,,10,877,,,,,,,,,,,,,,,,,S,132,star,1,0,,,,,,,,,,,,,,,,repeat,number,numRpt,j,Lo,,,,,,0.6672,1,,,,,,,,low,19,0,19,0,1,,,,,,,,,
297055,2022-10-03_11h24.07.471,vts_reward_expectancy,2022.2.4,Win32,59.99880002,Chrome,1280,720,,,,,1,878,,,,,,,,,,,,,,,,,Y,174,circle,1,0,,,,,,,,,,,,,,,,repeat,number,numRpt,k,Hi,,,,,,0.5501,1,,,,,,,,low,20,0,20,0,1,,,,,,,,,
297055,2022-10-03_11h24.07.471,vts_reward_expectancy,2022.2.4,Win32,59.99880002,Chrome,1280,720,,,,,10,888,,,,,,,,,,,,,,,,,D,167,star,1,0,,,,,,,,,,,,,,,,repeat,number,numRpt,k,Lo,,,,,,1.1682,1,,,,,,,,low,21,0,21,0,1,,,,,,,,,
297055,2022-10-03_11h24.07.471,vts_reward_expectancy,2022.2.4,Win32,59.99880002,Chrome,1280,720,,,,,0,888,,,,,,,,,,,,,,,,,U,146,circle,1,0,,,,,,,,,,,,,,,,repeat,number,numRpt,j,Hi,,,,,,0.7348,1,,,,,,,,low,22,0,22,0,1,,,,,,,,,
297055,2022-10-03_11h24.07.471,vts_reward_expectancy,2022.2.4,Win32,59.99880002,Chrome,1280,720,,,,,10,898,,,,,,,,,,,,,,,,,H,139,star,1,0,,,,,,,,,,,,,,,,repeat,number,numRpt,j,Lo,,,,,,0.7675,1,,,,,,,,low,23,0,23,0,1,,,,,,,,,
297055,2022-10-03_11h24.07.471,vts_reward_expectancy,2022.2.4,Win32,59.99880002,Chrome,1280,720,,,,,0,898,,,,,,,,,,,,,,,,,U,174,circle,1,0,,,,,,,,,,,,,,,,switch,letter,lettSwt,f,Hi,,,,,,0.9172,1,,,,,,,,low,24,0,24,0,1,,,,,,,,,
297055,2022-10-03_11h24.07.471,vts_reward_expectancy,2022.2.4,Win32,59.99880002,Chrome,1280,720,,,,,10,908,,,,,,,,,,,,,,,,,B,181,star,1,0,,,,,,,,,,,,,,,,repeat,letter,lettRpt,d,Lo,,,,,,0.8504,1,,,,,,,,low,25,0,25,0,1,,,,,,,,,
297055,2022-10-03_11h24.07.471,vts_reward_expectancy,2022.2.4,Win32,59.99880002,Chrome,1280,720,,,,,1,909,,,,,,,,,,,,,,,,,W,160,star,1,0,,,,,,,,,,,,,,,,switch,number,numSwt,k,Lo,,,,,,0.7648,1,,,,,,,,low,26,0,26,0,1,,,,,,,,,
297055,2022-10-03_11h24.07.471,vts_reward_expectancy,2022.2.4,Win32,59.99880002,Chrome,1280,720,,,,,0,909,,,,,,,,,,,,,,,,,H,146,circle,1,0,,,,,,,,,,,,,,,,repeat,number,numRpt,j,Hi,,,,,,0.7314,1,,,,,,,,low,27,0,27,0,1,,,,,,,,,
297055,2022-10-03_11h24.07.471,vts_reward_expectancy,2022.2.4,Win32,59.99880002,Chrome,1280,720,,,,,0,909,,,,,,,,,,,,,,,,,S,167,circle,1,0,,,,,,,,,,,,,,,,switch,letter,lettSwt,f,Hi,,,,,,0.8007,1,,,,,,,,low,28,0,28,0,1,,,,,,,,,
297055,2022-10-03_11h24.07.471,vts_reward_expectancy,2022.2.4,Win32,59.99880002,Chrome,1280,720,,,,,1,910,,,,,,,,,,,,,,,,,D,132,star,1,0,,,,,,,,,,,,,,,,switch,number,numSwt,j,Lo,,,,,,0.7507,1,,,,,,,,low,29,0,29,0,1,,,,,,,,,
297055,2022-10-03_11h24.07.471,vts_reward_expectancy,2022.2.4,Win32,59.99880002,Chrome,1280,720,,,,,0,910,,,,,,,,,,,,,,,,,F,125,circle,0,0,,,,,,,,,,,,,,,,switch,letter,NA,f,Lo,,,,,,1.0671,1,,,,,,,,low,30,0,30,0,1,,,,,,,,,
297055,2022-10-03_11h24.07.471,vts_reward_expectancy,2022.2.4,Win32,59.99880002,Chrome,1280,720,,,,,10,920,,,,,,,,,,,,,,,,,Y,139,star,1,1,,,,,,,,,,,,,,,,switch,number,numSwt,j,Lo,,,,,,0.6096,1,,,,,,,,low,31,0,31,0,1,,,,,,,,,
297055,2022-10-03_11h24.07.471,vts_reward_expectancy,2022.2.4,Win32,59.99880002,Chrome,1280,720,,,,,0,920,,,,,,,,,,,,,,,,,U,125,hexagon,1,0,,,,,,,,,,,,,,,,switch,letter,lettSwt,f,Hi,,,,,,1.0177,2,,,,,,space,4.601,high,0,0,0,0,1,,,,,,,,,
297055,2022-10-03_11h24.07.471,vts_reward_expectancy,2022.2.4,Win32,59.99880002,Chrome,1280,720,,,,,1,921,,,,,,,,,,,,,,,,,W,160,triangle,1,0,,,,,,,,,,,,,,,,switch,number,numSwt,k,Lo,,,,,,0.7511,2,,,,,,,,high,1,0,1,0,1,,,,,,,,,
297055,2022-10-03_11h24.07.471,vts_reward_expectancy,2022.2.4,Win32,59.99880002,Chrome,1280,720,,,,,10,931,,,,,,,,,,,,,,,,,B,139,hexagon,1,0,,,,,,,,,,,,,,,,repeat,number,numRpt,j,Hi,,,,,,0.5482,2,,,,,,,,high,2,0,2,0,1,,,,,,,,,
297055,2022-10-03_11h24.07.471,vts_reward_expectancy,2022.2.4,Win32,59.99880002,Chrome,1280,720,,,,,0,931,,,,,,,,,,,,,,,,,D,174,triangle,0,0,,,,,,,,,,,,,,,,repeat,number,NA,j,Hi,,,,,,0.5819,2,,,,,,,,high,3,0,3,0,1,,,,,,,,,
297055,2022-10-03_11h24.07.471,vts_reward_expectancy,2022.2.4,Win32,59.99880002,Chrome,1280,720,,,,,10,941,,,,,,,,,,,,,,,,,Y,181,hexagon,1,1,,,,,,,,,,,,,,,,switch,letter,lettSwt,f,Hi,,,,,,0.5811,2,,,,,,,,high,4,0,4,0,1,,,,,,,,,
297055,2022-10-03_11h24.07.471,vts_reward_expectancy,2022.2.4,Win32,59.99880002,Chrome,1280,720,,,,,1,942,,,,,,,,,,,,,,,,,S,167,triangle,1,0,,,,,,,,,,,,,,,,switch,number,numSwt,k,Lo,,,,,,0.9171,2,,,,,,,,high,5,0,5,0,1,,,,,,,,,
297055,2022-10-03_11h24.07.471,vts_reward_expectancy,2022.2.4,Win32,59.99880002,Chrome,1280,720,,,,,10,952,,,,,,,,,,,,,,,,,H,146,hexagon,1,0,,,,,,,,,,,,,,,,repeat,number,numRpt,j,Hi,,,,,,0.5537,2,,,,,,,,high,6,0,6,0,1,,,,,,,,,
297055,2022-10-03_11h24.07.471,vts_reward_expectancy,2022.2.4,Win32,59.99880002,Chrome,1280,720,,,,,10,962,,,,,,,,,,,,,,,,,F,132,triangle,1,0,,,,,,,,,,,,,,,,repeat,number,numRpt,j,Lo,,,,,,0.8175,2,,,,,,,,high,7,0,7,0,1,,,,,,,,,
297055,2022-10-03_11h24.07.471,vts_reward_expectancy,2022.2.4,Win32,59.99880002,Chrome,1280,720,,,,,1,963,,,,,,,,,,,,,,,,,U,125,triangle,1,0,,,,,,,,,,,,,,,,repeat,number,numRpt,j,Lo,,,,,,0.9174,2,,,,,,,,high,8,0,8,0,1,,,,,,,,,
297055,2022-10-03_11h24.07.471,vts_reward_expectancy,2022.2.4,Win32,59.99880002,Chrome,1280,720,,,,,0,963,,,,,,,,,,,,,,,,,W,160,hexagon,1,0,,,,,,,,,,,,,,,,repeat,number,numRpt,k,Hi,,,,,,0.9503,2,,,,,,,,high,9,0,9,0,1,,,,,,,,,
297055,2022-10-03_11h24.07.471,vts_reward_expectancy,2022.2.4,Win32,59.99880002,Chrome,1280,720,,,,,0,963,,,,,,,,,,,,,,,,,B,139,hexagon,1,0,,,,,,,,,,,,,,,,repeat,number,numRpt,j,Hi,,,,,,1.0182,2,,,,,,,,high,10,0,10,0,1,,,,,,,,,
297055,2022-10-03_11h24.07.471,vts_reward_expectancy,2022.2.4,Win32,59.99880002,Chrome,1280,720,,,,,10,973,,,,,,,,,,,,,,,,,D,174,triangle,1,0,,,,,,,,,,,,,,,,repeat,number,numRpt,k,Lo,,,,,,0.7837,2,,,,,,,,high,11,0,11,0,1,,,,,,,,,
297055,2022-10-03_11h24.07.471,vts_reward_expectancy,2022.2.4,Win32,59.99880002,Chrome,1280,720,,,,,1,974,,,,,,,,,,,,,,,,,Y,181,triangle,1,0,,,,,,,,,,,,,,,,switch,letter,lettSwt,f,Lo,,,,,,0.6172,2,,,,,,,,high,12,0,12,0,1,,,,,,,,,
297055,2022-10-03_11h24.07.471,vts_reward_expectancy,2022.2.4,Win32,59.99880002,Chrome,1280,720,,,,,0,974,,,,,,,,,,,,,,,,,S,167,hexagon,1,0,,,,,,,,,,,,,,,,repeat,letter,lettRpt,f,Hi,,,,,,0.7419,2,,,,,,,,high,13,0,13,0,1,,,,,,,,,
297055,2022-10-03_11h24.07.471,vts_reward_expectancy,2022.2.4,Win32,59.99880002,Chrome,1280,720,,,,,10,984,,,,,,,,,,,,,,,,,H,146,hexagon,1,0,,,,,,,,,,,,,,,,repeat,letter,lettRpt,d,Hi,,,,,,0.6137,2,,,,,,,,high,14,0,14,0,1,,,,,,,,,
297055,2022-10-03_11h24.07.471,vts_reward_expectancy,2022.2.4,Win32,59.99880002,Chrome,1280,720,,,,,0,984,,,,,,,,,,,,,,,,,F,132,triangle,0,0,,,,,,,,,,,,,,,,repeat,letter,NA,f,Hi,,,,,,0.8172,2,,,,,,,,high,15,0,15,0,1,,,,,,,,,
297055,2022-10-03_11h24.07.471,vts_reward_expectancy,2022.2.4,Win32,59.99880002,Chrome,1280,720,,,,,1,985,,,,,,,,,,,,,,,,,D,132,hexagon,1,1,,,,,,,,,,,,,,,,repeat,letter,lettRpt,d,Hi,,,,,,0.5,2,,,,,,,,high,16,0,16,0,1,,,,,,,,,
297055,2022-10-03_11h24.07.471,vts_reward_expectancy,2022.2.4,Win32,59.99880002,Chrome,1280,720,,,,,1,986,,,,,,,,,,,,,,,,,B,174,triangle,1,0,,,,,,,,,,,,,,,,switch,number,numSwt,k,Lo,,,,,,0.6312,2,,,,,,,,high,17,0,17,0,1,,,,,,,,,
297055,2022-10-03_11h24.07.471,vts_reward_expectancy,2022.2.4,Win32,59.99880002,Chrome,1280,720,,,,,1,987,,,,,,,,,,,,,,,,,W,146,triangle,1,0,,,,,,,,,,,,,,,,repeat,number,numRpt,j,Lo,,,,,,0.6097,2,,,,,,,,high,18,0,18,0,1,,,,,,,,,
297055,2022-10-03_11h24.07.471,vts_reward_expectancy,2022.2.4,Win32,59.99880002,Chrome,1280,720,,,,,0,987,,,,,,,,,,,,,,,,,Y,167,hexagon,1,0,,,,,,,,,,,,,,,,repeat,number,numRpt,k,Hi,,,,,,0.68,2,,,,,,,,high,19,0,19,0,1,,,,,,,,,
297055,2022-10-03_11h24.07.471,vts_reward_expectancy,2022.2.4,Win32,59.99880002,Chrome,1280,720,,,,,1,988,,,,,,,,,,,,,,,,,U,139,triangle,1,0,,,,,,,,,,,,,,,,repeat,number,numRpt,j,Lo,,,,,,0.5653,2,,,,,,,,high,20,0,20,0,1,,,,,,,,,
297055,2022-10-03_11h24.07.471,vts_reward_expectancy,2022.2.4,Win32,59.99880002,Chrome,1280,720,,,,,10,998,,,,,,,,,,,,,,,,,F,125,hexagon,1,0,,,,,,,,,,,,,,,,repeat,number,numRpt,j,Hi,,,,,,0.4486,2,,,,,,,,high,21,0,21,0,1,,,,,,,,,
297055,2022-10-03_11h24.07.471,vts_reward_expectancy,2022.2.4,Win32,59.99880002,Chrome,1280,720,,,,,0,998,,,,,,,,,,,,,,,,,S,181,triangle,0,0,,,,,,,,,,,,,,,,repeat,number,NA,j,Hi,,,,,,0.4843,2,,,,,,,,high,22,0,22,0,1,,,,,,,,,
297055,2022-10-03_11h24.07.471,vts_reward_expectancy,2022.2.4,Win32,59.99880002,Chrome,1280,720,,,,,0,998,,,,,,,,,,,,,,,,,H,160,hexagon,1,1,,,,,,,,,,,,,,,,repeat,number,numRpt,k,Hi,,,,,,0.968,2,,,,,,,,high,23,0,23,0,1,,,,,,,,,
297055,2022-10-03_11h24.07.471,vts_reward_expectancy,2022.2.4,Win32,59.99880002,Chrome,1280,720,,,,,10,1008,,,,,,,,,,,,,,,,,Y,132,hexagon,1,0,,,,,,,,,,,,,,,,repeat,number,numRpt,j,Hi,,,,,,0.5755,2,,,,,,,,high,24,0,24,0,1,,,,,,,,,
297055,2022-10-03_11h24.07.471,vts_reward_expectancy,2022.2.4,Win32,59.99880002,Chrome,1280,720,,,,,1,1009,,,,,,,,,,,,,,,,,W,125,triangle,1,0,,,,,,,,,,,,,,,,switch,letter,lettSwt,f,Lo,,,,,,0.727,2,,,,,,,,high,25,0,25,0,1,,,,,,,,,
297055,2022-10-03_11h24.07.471,vts_reward_expectancy,2022.2.4,Win32,59.99880002,Chrome,1280,720,,,,,1,1010,,,,,,,,,,,,,,,,,F,181,triangle,1,0,,,,,,,,,,,,,,,,repeat,letter,lettRpt,d,Lo,,,,,,0.8759,2,,,,,,,,high,26,0,26,0,1,,,,,,,,,
297055,2022-10-03_11h24.07.471,vts_reward_expectancy,2022.2.4,Win32,59.99880002,Chrome,1280,720,,,,,0,1010,,,,,,,,,,,,,,,,,U,139,hexagon,1,0,,,,,,,,,,,,,,,,repeat,letter,lettRpt,f,Hi,,,,,,0.8976,2,,,,,,,,high,27,0,27,0,1,,,,,,,,,
297055,2022-10-03_11h24.07.471,vts_reward_expectancy,2022.2.4,Win32,59.99880002,Chrome,1280,720,,,,,0,1010,,,,,,,,,,,,,,,,,B,167,hexagon,0,0,,,,,,,,,,,,,,,,switch,number,NA,j,Hi,,,,,,0.7982,2,,,,,,,,high,28,0,28,0,1,,,,,,,,,
297055,2022-10-03_11h24.07.471,vts_reward_expectancy,2022.2.4,Win32,59.99880002,Chrome,1280,720,,,,,1,1011,,,,,,,,,,,,,,,,,D,160,triangle,1,1,,,,,,,,,,,,,,,,repeat,number,numRpt,k,Lo,,,,,,0.6273,2,,,,,,,,high,29,0,29,0,1,,,,,,,,,
297055,2022-10-03_11h24.07.471,vts_reward_expectancy,2022.2.4,Win32,59.99880002,Chrome,1280,720,,,,,10,1021,,,,,,,,,,,,,,,,,H,146,hexagon,1,0,,,,,,,,,,,,,,,,repeat,number,numRpt,j,Hi,,,,,,0.4282,2,,,,,,,,high,30,0,30,0,1,,,,,,,,,
297055,2022-10-03_11h24.07.471,vts_reward_expectancy,2022.2.4,Win32,59.99880002,Chrome,1280,720,,,,,1,1022,,,,,,,,,,,,,,,,,S,174,triangle,1,0,,,,,,,,,,,,,,,,switch,letter,lettSwt,f,Lo,,,,,,0.7005,2,,,,,,,,high,31,0,31,0,1,,,,,,,,,
297055,2022-10-03_11h24.07.471,vts_reward_expectancy,2022.2.4,Win32,59.99880002,Chrome,1280,720,,,,,0,1022,,,,,,,,,,,,,,,,,W,146,hexagon,1,0,,,,,,,,,,,,,,,,repeat,letter,lettRpt,f,Hi,,,,,,0.9551,3,,,,,,space,2.9505,high,0,0,0,0,1,,,,,,,,,
297055,2022-10-03_11h24.07.471,vts_reward_expectancy,2022.2.4,Win32,59.99880002,Chrome,1280,720,,,,,1,1023,,,,,,,,,,,,,,,,,B,160,triangle,1,0,,,,,,,,,,,,,,,,switch,number,numSwt,k,Lo,,,,,,0.667,3,,,,,,,,high,1,0,1,0,1,,,,,,,,,
297055,2022-10-03_11h24.07.471,vts_reward_expectancy,2022.2.4,Win32,59.99880002,Chrome,1280,720,,,,,0,1023,,,,,,,,,,,,,,,,,S,174,hexagon,1,0,,,,,,,,,,,,,,,,repeat,number,numRpt,k,Hi,,,,,,0.9003,3,,,,,,,,high,2,0,2,0,1,,,,,,,,,
297055,2022-10-03_11h24.07.471,vts_reward_expectancy,2022.2.4,Win32,59.99880002,Chrome,1280,720,,,,,1,1024,,,,,,,,,,,,,,,,,Y,132,triangle,1,0,,,,,,,,,,,,,,,,repeat,number,numRpt,j,Lo,,,,,,0.4502,3,,,,,,,,high,3,0,3,0,1,,,,,,,,,
297055,2022-10-03_11h24.07.471,vts_reward_expectancy,2022.2.4,Win32,59.99880002,Chrome,1280,720,,,,,1,1025,,,,,,,,,,,,,,,,,U,139,triangle,1,0,,,,,,,,,,,,,,,,repeat,number,numRpt,j,Lo,,,,,,1.1178,3,,,,,,,,high,4,0,4,0,1,,,,,,,,,
297055,2022-10-03_11h24.07.471,vts_reward_expectancy,2022.2.4,Win32,59.99880002,Chrome,1280,720,,,,,0,1025,,,,,,,,,,,,,,,,,F,125,hexagon,1,0,,,,,,,,,,,,,,,,switch,letter,lettSwt,d,Hi,,,,,,0.8295,3,,,,,,,,high,5,0,5,0,1,,,,,,,,,
297055,2022-10-03_11h24.07.471,vts_reward_expectancy,2022.2.4,Win32,59.99880002,Chrome,1280,720,,,,,10,1035,,,,,,,,,,,,,,,,,H,181,hexagon,1,0,,,,,,,,,,,,,,,,repeat,letter,lettRpt,d,Hi,,,,,,0.6482,3,,,,,,,,high,6,0,6,0,1,,,,,,,,,
297055,2022-10-03_11h24.07.471,vts_reward_expectancy,2022.2.4,Win32,59.99880002,Chrome,1280,720,,,,,10,1045,,,,,,,,,,,,,,,,,D,167,triangle,1,0,,,,,,,,,,,,,,,,repeat,letter,lettRpt,d,Lo,,,,,,0.6007,3,,,,,,,,high,7,0,7,0,1,,,,,,,,,
297055,2022-10-03_11h24.07.471,vts_reward_expectancy,2022.2.4,Win32,59.99880002,Chrome,1280,720,,,,,10,1055,,,,,,,,,,,,,,,,,W,146,triangle,1,0,,,,,,,,,,,,,,,,repeat,letter,lettRpt,f,Lo,,,,,,0.5085,3,,,,,,,,high,8,0,8,0,1,,,,,,,,,
297055,2022-10-03_11h24.07.471,vts_reward_expectancy,2022.2.4,Win32,59.99880002,Chrome,1280,720,,,,,1,1056,,,,,,,,,,,,,,,,,B,160,hexagon,1,0,,,,,,,,,,,,,,,,repeat,letter,lettRpt,d,Hi,,,,,,0.4955,3,,,,,,,,high,9,0,9,0,1,,,,,,,,,
297055,2022-10-03_11h24.07.471,vts_reward_expectancy,2022.2.4,Win32,59.99880002,Chrome,1280,720,,,,,0,1056,,,,,,,,,,,,,,,,,S,174,hexagon,1,0,,,,,,,,,,,,,,,,repeat,letter,lettRpt,f,Hi,,,,,,0.7188,3,,,,,,,,high,10,0,10,0,1,,,,,,,,,
297055,2022-10-03_11h24.07.471,vts_reward_expectancy,2022.2.4,Win32,59.99880002,Chrome,1280,720,,,,,1,1057,,,,,,,,,,,,,,,,,Y,132,triangle,1,0,,,,,,,,,,,,,,,,switch,number,numSwt,j,Lo,,,,,,0.6125,3,,,,,,,,high,11,0,11,0,1,,,,,,,,,
297055,2022-10-03_11h24.07.471,vts_reward_expectancy,2022.2.4,Win32,59.99880002,Chrome,1280,720,,,,,0,1057,,,,,,,,,,,,,,,,,U,139,hexagon,1,0,,,,,,,,,,,,,,,,switch,letter,lettSwt,f,Hi,,,,,,0.6981,3,,,,,,,,high,12,0,12,0,1,,,,,,,,,
297055,2022-10-03_11h24.07.471,vts_reward_expectancy,2022.2.4,Win32,59.99880002,Chrome,1280,720,,,,,1,1058,,,,,,,,,,,,,,,,,F,125,triangle,1,0,,,,,,,,,,,,,,,,switch,number,numSwt,j,Lo,,,,,,0.6484,3,,,,,,,,high,13,0,13,0,1,,,,,,,,,
297055,2022-10-03_11h24.07.471,vts_reward_expectancy,2022.2.4,Win32,59.99880002,Chrome,1280,720,,,,,1,1059,,,,,,,,,,,,,,,,,H,181,triangle,1,0,,,,,,,,,,,,,,,,repeat,number,numRpt,k,Lo,,,,,,0.9141,3,,,,,,,,high,14,0,14,0,1,,,,,,,,,
297055,2022-10-03_11h24.07.471,vts_reward_expectancy,2022.2.4,Win32,59.99880002,Chrome,1280,720,,,,,0,1059,,,,,,,,,,,,,,,,,D,167,hexagon,0,0,,,,,,,,,,,,,,,,repeat,number,NA,j,Lo,,,,,,0.5263,3,,,,,,,,high,15,0,15,0,1,,,,,,,,,
297055,2022-10-03_11h24.07.471,vts_reward_expectancy,2022.2.4,Win32,59.99880002,Chrome,1280,720,,,,,0,1059,,,,,,,,,,,,,,,,,Y,160,hexagon,1,1,,,,,,,,,,,,,,,,repeat,number,numRpt,k,Hi,,,,,,0.5794,3,,,,,,,,high,16,0,16,0,1,,,,,,,,,
297055,2022-10-03_11h24.07.471,vts_reward_expectancy,2022.2.4,Win32,59.99880002,Chrome,1280,720,,,,,1,1060,,,,,,,,,,,,,,,,,W,146,triangle,1,0,,,,,,,,,,,,,,,,repeat,number,numRpt,j,Lo,,,,,,0.6007,3,,,,,,,,high,17,0,17,0,1,,,,,,,,,
297055,2022-10-03_11h24.07.471,vts_reward_expectancy,2022.2.4,Win32,59.99880002,Chrome,1280,720,,,,,0,1060,,,,,,,,,,,,,,,,,D,139,hexagon,1,0,,,,,,,,,,,,,,,,switch,letter,lettSwt,d,Hi,,,,,,0.7011,3,,,,,,,,high,18,0,18,0,1,,,,,,,,,
297055,2022-10-03_11h24.07.471,vts_reward_expectancy,2022.2.4,Win32,59.99880002,Chrome,1280,720,,,,,1,1061,,,,,,,,,,,,,,,,,H,132,triangle,1,0,,,,,,,,,,,,,,,,repeat,letter,lettRpt,d,Lo,,,,,,0.8339,3,,,,,,,,high,19,0,19,0,1,,,,,,,,,
297055,2022-10-03_11h24.07.471,vts_reward_expectancy,2022.2.4,Win32,59.99880002,Chrome,1280,720,,,,,0,1061,,,,,,,,,,,,,,,,,U,125,hexagon,1,0,,,,,,,,,,,,,,,,repeat,letter,lettRpt,f,Hi,,,,,,0.8005,3,,,,,,,,high,20,0,20,0,1,,,,,,,,,
297055,2022-10-03_11h24.07.471,vts_reward_expectancy,2022.2.4,Win32,59.99880002,Chrome,1280,720,,,,,1,1062,,,,,,,,,,,,,,,,,B,167,triangle,1,0,,,,,,,,,,,,,,,,switch,number,numSwt,k,Lo,,,,,,0.5507,3,,,,,,,,high,21,0,21,0,1,,,,,,,,,
297055,2022-10-03_11h24.07.471,vts_reward_expectancy,2022.2.4,Win32,59.99880002,Chrome,1280,720,,,,,1,1063,,,,,,,,,,,,,,,,,S,181,triangle,1,0,,,,,,,,,,,,,,,,repeat,number,numRpt,k,Lo,,,,,,0.7682,3,,,,,,,,high,22,0,22,0,1,,,,,,,,,
297055,2022-10-03_11h24.07.471,vts_reward_expectancy,2022.2.4,Win32,59.99880002,Chrome,1280,720,,,,,0,1063,,,,,,,,,,,,,,,,,F,174,hexagon,1,0,,,,,,,,,,,,,,,,repeat,number,numRpt,k,Hi,,,,,,0.9267,3,,,,,,,,high,23,0,23,0,1,,,,,,,,,
297055,2022-10-03_11h24.07.471,vts_reward_expectancy,2022.2.4,Win32,59.99880002,Chrome,1280,720,,,,,1,1064,,,,,,,,,,,,,,,,,B,125,triangle,1,0,,,,,,,,,,,,,,,,repeat,number,numRpt,j,Lo,,,,,,0.6661,3,,,,,,,,high,24,0,24,0,1,,,,,,,,,
297055,2022-10-03_11h24.07.471,vts_reward_expectancy,2022.2.4,Win32,59.99880002,Chrome,1280,720,,,,,0,1064,,,,,,,,,,,,,,,,,S,139,hexagon,1,0,,,,,,,,,,,,,,,,repeat,number,numRpt,j,Hi,,,,,,0.9177,3,,,,,,,,high,25,0,25,0,1,,,,,,,,,
297055,2022-10-03_11h24.07.471,vts_reward_expectancy,2022.2.4,Win32,59.99880002,Chrome,1280,720,,,,,1,1065,,,,,,,,,,,,,,,,,Y,181,triangle,1,0,,,,,,,,,,,,,,,,repeat,number,numRpt,k,Lo,,,,,,0.5252,3,,,,,,,,high,26,0,26,0,1,,,,,,,,,
297055,2022-10-03_11h24.07.471,vts_reward_expectancy,2022.2.4,Win32,59.99880002,Chrome,1280,720,,,,,0,1065,,,,,,,,,,,,,,,,,W,167,hexagon,1,0,,,,,,,,,,,,,,,,repeat,number,numRpt,k,Hi,,,,,,0.7343,3,,,,,,,,high,27,0,27,0,1,,,,,,,,,
297055,2022-10-03_11h24.07.471,vts_reward_expectancy,2022.2.4,Win32,59.99880002,Chrome,1280,720,,,,,0,1065,,,,,,,,,,,,,,,,,F,160,hexagon,0,0,,,,,,,,,,,,,,,,switch,letter,NA,f,Hi,,,,,,0.8339,3,,,,,,,,high,28,0,28,0,1,,,,,,,,,
297055,2022-10-03_11h24.07.471,vts_reward_expectancy,2022.2.4,Win32,59.99880002,Chrome,1280,720,,,,,0,1065,,,,,,,,,,,,,,,,,U,174,triangle,0,1,,,,,,,,,,,,,,,,repeat,letter,NA,d,Hi,,,,,,0.5342,3,,,,,,,,high,29,0,29,0,1,,,,,,,,,
297055,2022-10-03_11h24.07.471,vts_reward_expectancy,2022.2.4,Win32,59.99880002,Chrome,1280,720,,,,,0,1065,,,,,,,,,,,,,,,,,D,146,hexagon,1,1,,,,,,,,,,,,,,,,repeat,letter,lettRpt,d,Hi,,,,,,0.7173,3,,,,,,,,high,30,0,30,0,1,,,,,,,,,
297055,2022-10-03_11h24.07.471,vts_reward_expectancy,2022.2.4,Win32,59.99880002,Chrome,1280,720,,,,,0,1065,,,,,,,,,,,,,,,,,H,132,triangle,0,0,,,,,,,,,,,,,,,,switch,number,NA,k,Hi,,,,,,0.4838,3,,,,,,,,high,31,0,31,0,1,,,,,,,,,
297055,2022-10-03_11h24.07.471,vts_reward_expectancy,2022.2.4,Win32,59.99880002,Chrome,1280,720,,,,,0,1065,,,,,,,,,,,,,,,,,W,160,circle,0,1,,,,,,,,,,,,,,,,repeat,number,NA,j,Hi,,,,,,0.5336,4,,,,,,space,1.5137,low,0,0,0,0,1,,,,,,,,,
297055,2022-10-03_11h24.07.471,vts_reward_expectancy,2022.2.4,Win32,59.99880002,Chrome,1280,720,,,,,1,1066,,,,,,,,,,,,,,,,,Y,139,star,1,1,,,,,,,,,,,,,,,,repeat,number,numRpt,j,Lo,,,,,,0.5673,4,,,,,,,,low,1,0,1,0,1,,,,,,,,,
297055,2022-10-03_11h24.07.471,vts_reward_expectancy,2022.2.4,Win32,59.99880002,Chrome,1280,720,,,,,1,1067,,,,,,,,,,,,,,,,,D,181,circle,1,0,,,,,,,,,,,,,,,,switch,letter,lettSwt,d,Hi,,,,,,0.6012,4,,,,,,,,low,2,0,2,0,1,,,,,,,,,
297055,2022-10-03_11h24.07.471,vts_reward_expectancy,2022.2.4,Win32,59.99880002,Chrome,1280,720,,,,,1,1068,,,,,,,,,,,,,,,,,H,125,star,1,0,,,,,,,,,,,,,,,,switch,number,numSwt,j,Lo,,,,,,0.7505,4,,,,,,,,low,3,0,3,0,1,,,,,,,,,
297055,2022-10-03_11h24.07.471,vts_reward_expectancy,2022.2.4,Win32,59.99880002,Chrome,1280,720,,,,,1,1069,,,,,,,,,,,,,,,,,U,174,star,1,0,,,,,,,,,,,,,,,,repeat,number,numRpt,k,Lo,,,,,,0.4674,4,,,,,,,,low,4,0,4,0,1,,,,,,,,,
297055,2022-10-03_11h24.07.471,vts_reward_expectancy,2022.2.4,Win32,59.99880002,Chrome,1280,720,,,,,0,1069,,,,,,,,,,,,,,,,,S,132,circle,1,0,,,,,,,,,,,,,,,,repeat,number,numRpt,j,Hi,,,,,,0.6485,4,,,,,,,,low,5,0,5,0,1,,,,,,,,,
297055,2022-10-03_11h24.07.471,vts_reward_expectancy,2022.2.4,Win32,59.99880002,Chrome,1280,720,,,,,10,1079,,,,,,,,,,,,,,,,,B,167,circle,1,0,,,,,,,,,,,,,,,,switch,letter,lettSwt,d,Hi,,,,,,0.4319,4,,,,,,,,low,6,0,6,0,1,,,,,,,,,
297055,2022-10-03_11h24.07.471,vts_reward_expectancy,2022.2.4,Win32,59.99880002,Chrome,1280,720,,,,,1,1080,,,,,,,,,,,,,,,,,F,146,star,1,0,,,,,,,,,,,,,,,,repeat,letter,lettRpt,d,Lo,,,,,,0.5486,4,,,,,,,,low,7,0,7,0,1,,,,,,,,,
297055,2022-10-03_11h24.07.471,vts_reward_expectancy,2022.2.4,Win32,59.99880002,Chrome,1280,720,,,,,1,1081,,,,,,,,,,,,,,,,,W,160,star,1,0,,,,,,,,,,,,,,,,repeat,letter,lettRpt,f,Lo,,,,,,0.5767,4,,,,,,,,low,8,0,8,0,1,,,,,,,,,
297055,2022-10-03_11h24.07.471,vts_reward_expectancy,2022.2.4,Win32,59.99880002,Chrome,1280,720,,,,,0,1081,,,,,,,,,,,,,,,,,Y,139,circle,1,0,,,,,,,,,,,,,,,,switch,number,numSwt,j,Hi,,,,,,0.7687,4,,,,,,,,low,9,0,9,0,1,,,,,,,,,
297055,2022-10-03_11h24.07.471,vts_reward_expectancy,2022.2.4,Win32,59.99880002,Chrome,1280,720,,,,,0,1081,,,,,,,,,,,,,,,,,D,181,circle,0,0,,,,,,,,,,,,,,,,repeat,number,NA,j,Hi,,,,,,0.3838,4,,,,,,,,low,10,0,10,0,1,,,,,,,,,
297055,2022-10-03_11h24.07.471,vts_reward_expectancy,2022.2.4,Win32,59.99880002,Chrome,1280,720,,,,,10,1091,,,,,,,,,,,,,,,,,H,125,star,1,1,,,,,,,,,,,,,,,,repeat,number,numRpt,j,Lo,,,,,,0.4838,4,,,,,,,,low,11,0,11,0,1,,,,,,,,,
297055,2022-10-03_11h24.07.471,vts_reward_expectancy,2022.2.4,Win32,59.99880002,Chrome,1280,720,,,,,10,1101,,,,,,,,,,,,,,,,,U,174,circle,1,0,,,,,,,,,,,,,,,,repeat,number,numRpt,k,Hi,,,,,,0.5799,4,,,,,,,,low,12,0,12,0,1,,,,,,,,,
297055,2022-10-03_11h24.07.471,vts_reward_expectancy,2022.2.4,Win32,59.99880002,Chrome,1280,720,,,,,1,1102,,,,,,,,,,,,,,,,,S,132,star,1,0,,,,,,,,,,,,,,,,repeat,number,numRpt,j,Lo,,,,,,0.5603,4,,,,,,,,low,13,0,13,0,1,,,,,,,,,
297055,2022-10-03_11h24.07.471,vts_reward_expectancy,2022.2.4,Win32,59.99880002,Chrome,1280,720,,,,,0,1102,,,,,,,,,,,,,,,,,B,167,star,0,0,,,,,,,,,,,,,,,,repeat,number,NA,j,Lo,,,,,,0.5433,4,,,,,,,,low,14,0,14,0,1,,,,,,,,,
297055,2022-10-03_11h24.07.471,vts_reward_expectancy,2022.2.4,Win32,59.99880002,Chrome,1280,720,,,,,10,1112,,,,,,,,,,,,,,,,,F,146,circle,1,1,,,,,,,,,,,,,,,,repeat,number,numRpt,j,Hi,,,,,,0.6151,4,,,,,,,,low,15,0,15,0,1,,,,,,,,,
297055,2022-10-03_11h24.07.471,vts_reward_expectancy,2022.2.4,Win32,59.99880002,Chrome,1280,720,,,,,0,1112,,,,,,,,,,,,,,,,,D,132,circle,1,0,,,,,,,,,,,,,,,,repeat,number,numRpt,j,Hi,,,,,,0.7168,4,,,,,,,,low,16,0,16,0,1,,,,,,,,,
297055,2022-10-03_11h24.07.471,vts_reward_expectancy,2022.2.4,Win32,59.99880002,Chrome,1280,720,,,,,10,1122,,,,,,,,,,,,,,,,,W,167,star,1,0,,,,,,,,,,,,,,,,repeat,number,numRpt,k,Lo,,,,,,0.6173,4,,,,,,,,low,17,0,17,0,1,,,,,,,,,
297055,2022-10-03_11h24.07.471,vts_reward_expectancy,2022.2.4,Win32,59.99880002,Chrome,1280,720,,,,,1,1123,,,,,,,,,,,,,,,,,Y,181,star,1,0,,,,,,,,,,,,,,,,switch,letter,lettSwt,f,Lo,,,,,,0.6348,4,,,,,,,,low,18,0,18,0,1,,,,,,,,,
297055,2022-10-03_11h24.07.471,vts_reward_expectancy,2022.2.4,Win32,59.99880002,Chrome,1280,720,,,,,1,1124,,,,,,,,,,,,,,,,,H,139,circle,1,0,,,,,,,,,,,,,,,,repeat,letter,lettRpt,d,Hi,,,,,,0.5923,4,,,,,,,,low,19,0,19,0,1,,,,,,,,,
297055,2022-10-03_11h24.07.471,vts_reward_expectancy,2022.2.4,Win32,59.99880002,Chrome,1280,720,,,,,0,1124,,,,,,,,,,,,,,,,,F,160,circle,1,0,,,,,,,,,,,,,,,,repeat,letter,lettRpt,d,Hi,,,,,,1.0661,4,,,,,,,,low,20,0,20,0,1,,,,,,,,,
297055,2022-10-03_11h24.07.471,vts_reward_expectancy,2022.2.4,Win32,59.99880002,Chrome,1280,720,,,,,10,1134,,,,,,,,,,,,,,,,,S,174,star,1,0,,,,,,,,,,,,,,,,switch,number,numSwt,k,Lo,,,,,,0.7674,4,,,,,,,,low,21,0,21,0,1,,,,,,,,,
297055,2022-10-03_11h24.07.471,vts_reward_expectancy,2022.2.4,Win32,59.99880002,Chrome,1280,720,,,,,1,1135,,,,,,,,,,,,,,,,,U,146,circle,1,0,,,,,,,,,,,,,,,,repeat,number,numRpt,j,Hi,,,,,,0.5508,4,,,,,,,,low,22,0,22,0,1,,,,,,,,,
297055,2022-10-03_11h24.07.471,vts_reward_expectancy,2022.2.4,Win32,59.99880002,Chrome,1280,720,,,,,10,1145,,,,,,,,,,,,,,,,,B,125,star,1,0,,,,,,,,,,,,,,,,repeat,number,numRpt,j,Lo,,,,,,0.5009,4,,,,,,,,low,23,0,23,0,1,,,,,,,,,
297055,2022-10-03_11h24.07.471,vts_reward_expectancy,2022.2.4,Win32,59.99880002,Chrome,1280,720,,,,,0,1145,,,,,,,,,,,,,,,,,H,139,circle,1,0,,,,,,,,,,,,,,,,repeat,number,numRpt,j,Hi,,,,,,1.2007,4,,,,,,,,low,24,0,24,0,1,,,,,,,,,
297055,2022-10-03_11h24.07.471,vts_reward_expectancy,2022.2.4,Win32,59.99880002,Chrome,1280,720,,,,,0,1145,,,,,,,,,,,,,,,,,F,174,star,0,0,,,,,,,,,,,,,,,,repeat,number,NA,j,Hi,,,,,,1.0955,4,,,,,,,,low,25,0,25,0,1,,,,,,,,,
297055,2022-10-03_11h24.07.471,vts_reward_expectancy,2022.2.4,Win32,59.99880002,Chrome,1280,720,,,,,10,1155,,,,,,,,,,,,,,,,,B,132,star,1,1,,,,,,,,,,,,,,,,repeat,number,numRpt,j,Lo,,,,,,0.6104,4,,,,,,,,low,26,0,26,0,1,,,,,,,,,
297055,2022-10-03_11h24.07.471,vts_reward_expectancy,2022.2.4,Win32,59.99880002,Chrome,1280,720,,,,,0,1155,,,,,,,,,,,,,,,,,W,160,circle,1,0,,,,,,,,,,,,,,,,repeat,number,numRpt,k,Hi,,,,,,1.2652,4,,,,,,,,low,27,0,27,0,1,,,,,,,,,
297055,2022-10-03_11h24.07.471,vts_reward_expectancy,2022.2.4,Win32,59.99880002,Chrome,1280,720,,,,,0,1155,,,,,,,,,,,,,,,,,U,146,circle,1,0,,,,,,,,,,,,,,,,repeat,number,numRpt,j,Hi,,,,,,0.7968,4,,,,,,,,low,28,0,28,0,1,,,,,,,,,
297055,2022-10-03_11h24.07.471,vts_reward_expectancy,2022.2.4,Win32,59.99880002,Chrome,1280,720,,,,,10,1165,,,,,,,,,,,,,,,,,Y,181,star,1,0,,,,,,,,,,,,,,,,repeat,number,numRpt,k,Lo,,,,,,0.5171,4,,,,,,,,low,29,0,29,0,1,,,,,,,,,
297055,2022-10-03_11h24.07.471,vts_reward_expectancy,2022.2.4,Win32,59.99880002,Chrome,1280,720,,,,,1,1166,,,,,,,,,,,,,,,,,S,167,star,1,0,,,,,,,,,,,,,,,,switch,letter,lettSwt,f,Lo,,,,,,0.7006,4,,,,,,,,low,30,0,30,0,1,,,,,,,,,
297055,2022-10-03_11h24.07.471,vts_reward_expectancy,2022.2.4,Win32,59.99880002,Chrome,1280,720,,,,,10,1176,,,,,,,,,,,,,,,,,D,125,circle,1,0,,,,,,,,,,,,,,,,repeat,letter,lettRpt,d,Hi,,,,,,0.6177,4,,,,,,,,low,31,0,31,0,1,,,,,,,,,
297055,2022-10-03_11h24.07.471,vts_reward_expectancy,2022.2.4,Win32,59.99880002,Chrome,1280,720,,,,,1,1177,,,,,,,,,,,,,,,,,F,174,star,1,0,,,,,,,,,,,,,,,,repeat,letter,lettRpt,d,Lo,,,,,,0.8672,5,,,,,,space,8.8525,low,0,0,0,0,1,,,,,,,,,
297055,2022-10-03_11h24.07.471,vts_reward_expectancy,2022.2.4,Win32,59.99880002,Chrome,1280,720,,,,,0,1177,,,,,,,,,,,,,,,,,U,167,circle,0,0,,,,,,,,,,,,,,,,switch,number,NA,j,Lo,,,,,,0.7925,5,,,,,,,,low,1,0,1,0,1,,,,,,,,,
297055,2022-10-03_11h24.07.471,vts_reward_expectancy,2022.2.4,Win32,59.99880002,Chrome,1280,720,,,,,1,1178,,,,,,,,,,,,,,,,,D,160,star,1,1,,,,,,,,,,,,,,,,repeat,number,numRpt,k,Lo,,,,,,0.4479,5,,,,,,,,low,2,0,2,0,1,,,,,,,,,
297055,2022-10-03_11h24.07.471,vts_reward_expectancy,2022.2.4,Win32,59.99880002,Chrome,1280,720,,,,,0,1178,,,,,,,,,,,,,,,,,H,125,circle,1,0,,,,,,,,,,,,,,,,repeat,number,numRpt,j,Hi,,,,,,0.8635,5,,,,,,,,low,3,0,3,0,1,,,,,,,,,
297055,2022-10-03_11h24.07.471,vts_reward_expectancy,2022.2.4,Win32,59.99880002,Chrome,1280,720,,,,,10,1188,,,,,,,,,,,,,,,,,Y,139,star,1,0,,,,,,,,,,,,,,,,repeat,number,numRpt,j,Lo,,,,,,0.7811,5,,,,,,,,low,4,0,4,0,1,,,,,,,,,
297055,2022-10-03_11h24.07.471,vts_reward_expectancy,2022.2.4,Win32,59.99880002,Chrome,1280,720,,,,,10,1198,,,,,,,,,,,,,,,,,S,181,circle,1,0,,,,,,,,,,,,,,,,switch,letter,lettSwt,f,Hi,,,,,,0.5985,5,,,,,,,,low,5,0,5,0,1,,,,,,,,,
297055,2022-10-03_11h24.07.471,vts_reward_expectancy,2022.2.4,Win32,59.99880002,Chrome,1280,720,,,,,0,1198,,,,,,,,,,,,,,,,,W,146,circle,1,0,,,,,,,,,,,,,,,,repeat,letter,lettRpt,f,Hi,,,,,,0.5841,5,,,,,,,,low,6,0,6,0,1,,,,,,,,,
297055,2022-10-03_11h24.07.471,vts_reward_expectancy,2022.2.4,Win32,59.99880002,Chrome,1280,720,,,,,1,1199,,,,,,,,,,,,,,,,,B,132,star,1,0,,,,,,,,,,,,,,,,repeat,letter,lettRpt,d,Lo,,,,,,0.5002,5,,,,,,,,low,7,0,7,0,1,,,,,,,,,
297055,2022-10-03_11h24.07.471,vts_reward_expectancy,2022.2.4,Win32,59.99880002,Chrome,1280,720,,,,,10,1209,,,,,,,,,,,,,,,,,F,174,star,1,0,,,,,,,,,,,,,,,,repeat,letter,lettRpt,d,Lo,,,,,,0.8344,5,,,,,,,,low,8,0,8,0,1,,,,,,,,,
297055,2022-10-03_11h24.07.471,vts_reward_expectancy,2022.2.4,Win32,59.99880002,Chrome,1280,720,,,,,0,1209,,,,,,,,,,,,,,,,,U,167,circle,0,0,,,,,,,,,,,,,,,,switch,number,NA,j,Lo,,,,,,1.2798,5,,,,,,,,low,9,0,9,0,1,,,,,,,,,
297055,2022-10-03_11h24.07.471,vts_reward_expectancy,2022.2.4,Win32,59.99880002,Chrome,1280,720,,,,,1,1210,,,,,,,,,,,,,,,,,D,160,star,1,1,,,,,,,,,,,,,,,,repeat,number,numRpt,k,Lo,,,,,,0.6767,5,,,,,,,,low,10,0,10,0,1,,,,,,,,,
297055,2022-10-03_11h24.07.471,vts_reward_expectancy,2022.2.4,Win32,59.99880002,Chrome,1280,720,,,,,0,1210,,,,,,,,,,,,,,,,,H,125,circle,1,0,,,,,,,,,,,,,,,,repeat,number,numRpt,j,Hi,,,,,,0.6515,5,,,,,,,,low,11,0,11,0,1,,,,,,,,,
297055,2022-10-03_11h24.07.471,vts_reward_expectancy,2022.2.4,Win32,59.99880002,Chrome,1280,720,,,,,10,1220,,,,,,,,,,,,,,,,,Y,139,star,1,0,,,,,,,,,,,,,,,,switch,letter,lettSwt,f,Lo,,,,,,0.6605,5,,,,,,,,low,12,0,12,0,1,,,,,,,,,
297055,2022-10-03_11h24.07.471,vts_reward_expectancy,2022.2.4,Win32,59.99880002,Chrome,1280,720,,,,,10,1230,,,,,,,,,,,,,,,,,S,181,circle,1,0,,,,,,,,,,,,,,,,switch,number,numSwt,k,Hi,,,,,,0.7134,5,,,,,,,,low,13,0,13,0,1,,,,,,,,,
297055,2022-10-03_11h24.07.471,vts_reward_expectancy,2022.2.4,Win32,59.99880002,Chrome,1280,720,,,,,1,1231,,,,,,,,,,,,,,,,,W,146,star,1,0,,,,,,,,,,,,,,,,repeat,number,numRpt,j,Lo,,,,,,0.6671,5,,,,,,,,low,14,0,14,0,1,,,,,,,,,
297055,2022-10-03_11h24.07.471,vts_reward_expectancy,2022.2.4,Win32,59.99880002,Chrome,1280,720,,,,,0,1231,,,,,,,,,,,,,,,,,B,132,circle,1,0,,,,,,,,,,,,,,,,repeat,number,numRpt,j,Hi,,,,,,0.8008,5,,,,,,,,low,15,0,15,0,1,,,,,,,,,
297055,2022-10-03_11h24.07.471,vts_reward_expectancy,2022.2.4,Win32,59.99880002,Chrome,1280,720,,,,,0,1231,,,,,,,,,,,,,,,,,H,139,circle,1,0,,,,,,,,,,,,,,,,switch,letter,lettSwt,d,Hi,,,,,,0.7841,5,,,,,,,,low,16,0,16,0,1,,,,,,,,,
297055,2022-10-03_11h24.07.471,vts_reward_expectancy,2022.2.4,Win32,59.99880002,Chrome,1280,720,,,,,1,1232,,,,,,,,,,,,,,,,,D,167,star,1,0,,,,,,,,,,,,,,,,switch,number,numSwt,k,Lo,,,,,,0.6507,5,,,,,,,,low,17,0,17,0,1,,,,,,,,,
297055,2022-10-03_11h24.07.471,vts_reward_expectancy,2022.2.4,Win32,59.99880002,Chrome,1280,720,,,,,1,1233,,,,,,,,,,,,,,,,,B,132,star,1,0,,,,,,,,,,,,,,,,switch,letter,lettSwt,d,Lo,,,,,,0.6505,5,,,,,,,,low,18,0,18,0,1,,,,,,,,,
297055,2022-10-03_11h24.07.471,vts_reward_expectancy,2022.2.4,Win32,59.99880002,Chrome,1280,720,,,,,0,1233,,,,,,,,,,,,,,,,,W,125,circle,1,0,,,,,,,,,,,,,,,,repeat,letter,lettRpt,f,Hi,,,,,,0.7009,5,,,,,,,,low,19,0,19,0,1,,,,,,,,,
297055,2022-10-03_11h24.07.471,vts_reward_expectancy,2022.2.4,Win32,59.99880002,Chrome,1280,720,,,,,0,1233,,,,,,,,,,,,,,,,,S,181,circle,1,0,,,,,,,,,,,,,,,,repeat,letter,lettRpt,f,Hi,,,,,,0.7597,5,,,,,,,,low,20,0,20,0,1,,,,,,,,,
297055,2022-10-03_11h24.07.471,vts_reward_expectancy,2022.2.4,Win32,59.99880002,Chrome,1280,720,,,,,10,1243,,,,,,,,,,,,,,,,,U,146,star,1,0,,,,,,,,,,,,,,,,switch,number,numSwt,j,Lo,,,,,,0.7434,5,,,,,,,,low,21,0,21,0,1,,,,,,,,,
297055,2022-10-03_11h24.07.471,vts_reward_expectancy,2022.2.4,Win32,59.99880002,Chrome,1280,720,,,,,10,1253,,,,,,,,,,,,,,,,,F,174,star,1,0,,,,,,,,,,,,,,,,switch,letter,lettSwt,d,Lo,,,,,,1.1342,5,,,,,,,,low,22,0,22,0,1,,,,,,,,,
297055,2022-10-03_11h24.07.471,vts_reward_expectancy,2022.2.4,Win32,59.99880002,Chrome,1280,720,,,,,0,1253,,,,,,,,,,,,,,,,,Y,160,circle,1,0,,,,,,,,,,,,,,,,switch,number,numSwt,k,Hi,,,,,,1.203,5,,,,,,,,low,23,0,23,0,1,,,,,,,,,
297055,2022-10-03_11h24.07.471,vts_reward_expectancy,2022.2.4,Win32,59.99880002,Chrome,1280,720,,,,,0,1253,,,,,,,,,,,,,,,,,Y,139,circle,0,0,,,,,,,,,,,,,,,,switch,letter,NA,d,Hi,,,,,,0.401,5,,,,,,,,low,24,0,24,0,1,,,,,,,,,
297055,2022-10-03_11h24.07.471,vts_reward_expectancy,2022.2.4,Win32,59.99880002,Chrome,1280,720,,,,,10,1263,,,,,,,,,,,,,,,,,W,167,star,1,1,,,,,,,,,,,,,,,,switch,number,numSwt,k,Lo,,,,,,1.1008,5,,,,,,,,low,25,0,25,0,1,,,,,,,,,
297055,2022-10-03_11h24.07.471,vts_reward_expectancy,2022.2.4,Win32,59.99880002,Chrome,1280,720,,,,,10,1273,,,,,,,,,,,,,,,,,S,125,star,1,0,,,,,,,,,,,,,,,,repeat,number,numRpt,j,Lo,,,,,,0.7511,5,,,,,,,,low,26,0,26,0,1,,,,,,,,,
297055,2022-10-03_11h24.07.471,vts_reward_expectancy,2022.2.4,Win32,59.99880002,Chrome,1280,720,,,,,0,1273,,,,,,,,,,,,,,,,,B,160,circle,1,0,,,,,,,,,,,,,,,,repeat,number,numRpt,k,Hi,,,,,,1.0009,5,,,,,,,,low,27,0,27,0,1,,,,,,,,,
297055,2022-10-03_11h24.07.471,vts_reward_expectancy,2022.2.4,Win32,59.99880002,Chrome,1280,720,,,,,10,1283,,,,,,,,,,,,,,,,,H,146,star,1,0,,,,,,,,,,,,,,,,repeat,number,numRpt,j,Lo,,,,,,1.0342,5,,,,,,,,low,28,0,28,0,1,,,,,,,,,
297055,2022-10-03_11h24.07.471,vts_reward_expectancy,2022.2.4,Win32,59.99880002,Chrome,1280,720,,,,,0,1283,,,,,,,,,,,,,,,,,U,174,circle,1,0,,,,,,,,,,,,,,,,repeat,number,numRpt,k,Hi,,,,,,0.8313,5,,,,,,,,low,29,0,29,0,1,,,,,,,,,
297055,2022-10-03_11h24.07.471,vts_reward_expectancy,2022.2.4,Win32,59.99880002,Chrome,1280,720,,,,,10,1293,,,,,,,,,,,,,,,,,D,132,star,1,0,,,,,,,,,,,,,,,,switch,letter,lettSwt,d,Lo,,,,,,0.76,5,,,,,,,,low,30,0,30,0,1,,,,,,,,,
297055,2022-10-03_11h24.07.471,vts_reward_expectancy,2022.2.4,Win32,59.99880002,Chrome,1280,720,,,,,0,1293,,,,,,,,,,,,,,,,,F,181,circle,0,0,,,,,,,,,,,,,,,,repeat,letter,NA,f,Lo,,,,,,0.6962,5,,,,,,,,low,31,0,31,0,1,,,,,,,,,
297055,2022-10-03_11h24.07.471,vts_reward_expectancy,2022.2.4,Win32,59.99880002,Chrome,1280,720,,,,,,,,,,,,,,,,,,,,,,,,,,,,,,,,,,,,,,,,,,,,,,,,,,,,,,6,,,,,,,,,,,,,,I was asked to press a corresponding key whether a value of a letter or number was higher or lower,2,"""Respond quicker"" when it was about the same amount of time as other answers",3,3,,2,1280,720
