participant,date,expName,psychopyVersion,OS,frameRate,browser,xResolution,yResolution,key_resp.keys,key_resp.rt,training_resp.keys,training_resp.rt,points_trial,points_cumul,trainBlock,training.thisRepN,training.thisTrialN,training.thisN,training.thisIndex,training.ran,LTriangleOpac,LCircleOpac,LHexagonOpac,LStarOpac,RTriangleOpac,RCircleOpac,RHexagonOpac,RStarOpac,LShape_ID,RShape_ID,curr_topStim,curr_bottStim,curr_shape,acc,E1,target_resp_prac1.keys,pracBlock,task1_prac_trials.thisRepN,task1_prac_trials.thisTrialN,task1_prac_trials.thisN,task1_prac_trials.thisIndex,task1_prac_trials.ran,target_resp_prac1.rt,target_resp_prac2.keys,target_resp_prac2.rt,task2_praac_trials.thisRepN,task2_praac_trials.thisTrialN,task2_praac_trials.thisN,task2_praac_trials.thisIndex,task2_praac_trials.ran,alt,task,condition,target_resp.keys,target_resp.rt,rewCond,vts_practice_trials.thisRepN,vts_practice_trials.thisTrialN,vts_practice_trials.thisN,vts_practice_trials.thisIndex,vts_practice_trials.ran,blockNum,trials_norew.thisRepN,trials_norew.thisTrialN,trials_norew.thisN,trials_norew.thisIndex,trials_norew.ran,key_resp_2.keys,key_resp_2.rt,rewExpect,trials_rew.thisRepN,trials_rew.thisTrialN,trials_rew.thisN,trials_rew.thisIndex,trials_rew.ran,Q1,Q2,Q2_text,Q3,Q4,Q5_text,Q5,xRes,yRes
294982,2022-10-04_19h31.48.661,vts_reward_expectancy,2022.2.4,MacIntel,60.0024001,Chrome,1440,900,,,,,,,,,,,,,,,,,,,,,,,,,,,,,,,,,,,,,,,,,,,,,,,,,,,,,,,,,,,,,,,,,,,,,,,,,,,,
294982,2022-10-04_19h31.48.661,vts_reward_expectancy,2022.2.4,MacIntel,60.0024001,Chrome,1440,900,space,4.7245,,,,,,,,,,,,,,,,,,,,,,,,,,,,,,,,,,,,,,,,,,,,,,,,,,,,,,,,,,,,,,,,,,,,,,,,,,
294982,2022-10-04_19h31.48.661,vts_reward_expectancy,2022.2.4,MacIntel,60.0024001,Chrome,1440,900,,,,,,,,,,,,,,,,,,,,,,,,,,,,,,,,,,,,,,,,,,,,,,,,,,,,,,,,,,,,,,,,,,,,,,,,,,,,
294982,2022-10-04_19h31.48.661,vts_reward_expectancy,2022.2.4,MacIntel,60.0024001,Chrome,1440,900,,,l,1.0281,1,1,0,0,0,0,1,1,1,0,0,0,0,0,1,0,triangle,hexagon,,,,,,,,,,,,,,,,,,,,,,,,,,,,,,,,,,,,,,,,,,,,,,,,,,,,,,
294982,2022-10-04_19h31.48.661,vts_reward_expectancy,2022.2.4,MacIntel,60.0024001,Chrome,1440,900,,,l,0.4958,1,2,0,0,1,1,0,1,1,0,0,0,0,1,0,0,triangle,circle,,,,,,,,,,,,,,,,,,,,,,,,,,,,,,,,,,,,,,,,,,,,,,,,,,,,,,
294982,2022-10-04_19h31.48.661,vts_reward_expectancy,2022.2.4,MacIntel,60.0024001,Chrome,1440,900,,,l,3.5254,1,3,0,0,2,2,8,1,0,0,1,0,0,0,0,1,hexagon,star,,,,,,,,,,,,,,,,,,,,,,,,,,,,,,,,,,,,,,,,,,,,,,,,,,,,,,
294982,2022-10-04_19h31.48.661,vts_reward_expectancy,2022.2.4,MacIntel,60.0024001,Chrome,1440,900,,,l,10.9118,10,13,0,0,3,3,9,1,0,0,0,1,1,0,0,0,star,triangle,,,,,,,,,,,,,,,,,,,,,,,,,,,,,,,,,,,,,,,,,,,,,,,,,,,,,,
294982,2022-10-04_19h31.48.661,vts_reward_expectancy,2022.2.4,MacIntel,60.0024001,Chrome,1440,900,,,l,0.3116,10,23,0,0,4,4,10,1,0,0,0,1,0,1,0,0,star ,circle,,,,,,,,,,,,,,,,,,,,,,,,,,,,,,,,,,,,,,,,,,,,,,,,,,,,,,
294982,2022-10-04_19h31.48.661,vts_reward_expectancy,2022.2.4,MacIntel,60.0024001,Chrome,1440,900,,,l,1.1626,1,24,0,0,5,5,6,1,0,0,1,0,1,0,0,0,hexagon,triangle,,,,,,,,,,,,,,,,,,,,,,,,,,,,,,,,,,,,,,,,,,,,,,,,,,,,,,
294982,2022-10-04_19h31.48.661,vts_reward_expectancy,2022.2.4,MacIntel,60.0024001,Chrome,1440,900,,,a,0.2492,1,25,0,0,6,6,7,1,0,0,1,0,0,1,0,0,hexagon,circle,,,,,,,,,,,,,,,,,,,,,,,,,,,,,,,,,,,,,,,,,,,,,,,,,,,,,,
294982,2022-10-04_19h31.48.661,vts_reward_expectancy,2022.2.4,MacIntel,60.0024001,Chrome,1440,900,,,l,0.1059,10,35,0,0,7,7,3,1,0,1,0,0,1,0,0,0,circle,triangle,,,,,,,,,,,,,,,,,,,,,,,,,,,,,,,,,,,,,,,,,,,,,,,,,,,,,,
294982,2022-10-04_19h31.48.661,vts_reward_expectancy,2022.2.4,MacIntel,60.0024001,Chrome,1440,900,,,l,0.4277,1,36,0,0,8,8,4,1,0,1,0,0,0,0,1,0,circle,hexagon,,,,,,,,,,,,,,,,,,,,,,,,,,,,,,,,,,,,,,,,,,,,,,,,,,,,,,
294982,2022-10-04_19h31.48.661,vts_reward_expectancy,2022.2.4,MacIntel,60.0024001,Chrome,1440,900,,,l,0.0656,10,46,0,0,9,9,11,1,0,0,0,1,0,0,1,0,star,hexagon,,,,,,,,,,,,,,,,,,,,,,,,,,,,,,,,,,,,,,,,,,,,,,,,,,,,,,
294982,2022-10-04_19h31.48.661,vts_reward_expectancy,2022.2.4,MacIntel,60.0024001,Chrome,1440,900,,,l,0.4847,10,56,0,0,10,10,5,1,0,1,0,0,0,0,0,1,circle,star,,,,,,,,,,,,,,,,,,,,,,,,,,,,,,,,,,,,,,,,,,,,,,,,,,,,,,
294982,2022-10-04_19h31.48.661,vts_reward_expectancy,2022.2.4,MacIntel,60.0024001,Chrome,1440,900,,,l,0.4497,10,66,0,0,11,11,2,1,1,0,0,0,0,0,0,1,triangle,star,,,,,,,,,,,,,,,,,,,,,,,,,,,,,,,,,,,,,,,,,,,,,,,,,,,,,,
294982,2022-10-04_19h31.48.661,vts_reward_expectancy,2022.2.4,MacIntel,60.0024001,Chrome,1440,900,,,l,0.4008,10,76,0,1,0,12,8,1,0,0,1,0,0,0,0,1,hexagon,star,,,,,,,,,,,,,,,,,,,,,,,,,,,,,,,,,,,,,,,,,,,,,,,,,,,,,,
294982,2022-10-04_19h31.48.661,vts_reward_expectancy,2022.2.4,MacIntel,60.0024001,Chrome,1440,900,,,l,0.3342,1,77,0,1,1,13,9,1,0,0,0,1,1,0,0,0,star,triangle,,,,,,,,,,,,,,,,,,,,,,,,,,,,,,,,,,,,,,,,,,,,,,,,,,,,,,
294982,2022-10-04_19h31.48.661,vts_reward_expectancy,2022.2.4,MacIntel,60.0024001,Chrome,1440,900,,,a,1.7584,1,78,0,1,2,14,6,1,0,0,1,0,1,0,0,0,hexagon,triangle,,,,,,,,,,,,,,,,,,,,,,,,,,,,,,,,,,,,,,,,,,,,,,,,,,,,,,
294982,2022-10-04_19h31.48.661,vts_reward_expectancy,2022.2.4,MacIntel,60.0024001,Chrome,1440,900,,,l,0.388,10,88,0,1,3,15,4,1,0,1,0,0,0,0,1,0,circle,hexagon,,,,,,,,,,,,,,,,,,,,,,,,,,,,,,,,,,,,,,,,,,,,,,,,,,,,,,
294982,2022-10-04_19h31.48.661,vts_reward_expectancy,2022.2.4,MacIntel,60.0024001,Chrome,1440,900,,,l,0.3841,1,89,0,1,4,16,0,1,1,0,0,0,0,1,0,0,triangle,circle,,,,,,,,,,,,,,,,,,,,,,,,,,,,,,,,,,,,,,,,,,,,,,,,,,,,,,
294982,2022-10-04_19h31.48.661,vts_reward_expectancy,2022.2.4,MacIntel,60.0024001,Chrome,1440,900,,,l,0.3688,1,90,0,1,5,17,1,1,1,0,0,0,0,0,1,0,triangle,hexagon,,,,,,,,,,,,,,,,,,,,,,,,,,,,,,,,,,,,,,,,,,,,,,,,,,,,,,
294982,2022-10-04_19h31.48.661,vts_reward_expectancy,2022.2.4,MacIntel,60.0024001,Chrome,1440,900,,,l,0.2443,10,100,0,1,6,18,3,1,0,1,0,0,1,0,0,0,circle,triangle,,,,,,,,,,,,,,,,,,,,,,,,,,,,,,,,,,,,,,,,,,,,,,,,,,,,,,
294982,2022-10-04_19h31.48.661,vts_reward_expectancy,2022.2.4,MacIntel,60.0024001,Chrome,1440,900,,,l,0.5183,1,101,0,1,7,19,7,1,0,0,1,0,0,1,0,0,hexagon,circle,,,,,,,,,,,,,,,,,,,,,,,,,,,,,,,,,,,,,,,,,,,,,,,,,,,,,,
294982,2022-10-04_19h31.48.661,vts_reward_expectancy,2022.2.4,MacIntel,60.0024001,Chrome,1440,900,,,l,0.0171,1,102,0,1,8,20,10,1,0,0,0,1,0,1,0,0,star ,circle,,,,,,,,,,,,,,,,,,,,,,,,,,,,,,,,,,,,,,,,,,,,,,,,,,,,,,
294982,2022-10-04_19h31.48.661,vts_reward_expectancy,2022.2.4,MacIntel,60.0024001,Chrome,1440,900,,,a,0.5142,1,103,0,1,9,21,5,1,0,1,0,0,0,0,0,1,circle,star,,,,,,,,,,,,,,,,,,,,,,,,,,,,,,,,,,,,,,,,,,,,,,,,,,,,,,
294982,2022-10-04_19h31.48.661,vts_reward_expectancy,2022.2.4,MacIntel,60.0024001,Chrome,1440,900,,,l,0.2168,1,104,0,1,10,22,11,1,0,0,0,1,0,0,1,0,star,hexagon,,,,,,,,,,,,,,,,,,,,,,,,,,,,,,,,,,,,,,,,,,,,,,,,,,,,,,
294982,2022-10-04_19h31.48.661,vts_reward_expectancy,2022.2.4,MacIntel,60.0024001,Chrome,1440,900,,,l,0.0533,10,114,0,1,11,23,2,1,1,0,0,0,0,0,0,1,triangle,star,,,,,,,,,,,,,,,,,,,,,,,,,,,,,,,,,,,,,,,,,,,,,,,,,,,,,,
294982,2022-10-04_19h31.48.661,vts_reward_expectancy,2022.2.4,MacIntel,60.0024001,Chrome,1440,900,,,l,3.6675,10,124,0,2,0,24,3,1,0,1,0,0,1,0,0,0,circle,triangle,,,,,,,,,,,,,,,,,,,,,,,,,,,,,,,,,,,,,,,,,,,,,,,,,,,,,,
294982,2022-10-04_19h31.48.661,vts_reward_expectancy,2022.2.4,MacIntel,60.0024001,Chrome,1440,900,,,l,0.6004,1,125,0,2,1,25,1,1,1,0,0,0,0,0,1,0,triangle,hexagon,,,,,,,,,,,,,,,,,,,,,,,,,,,,,,,,,,,,,,,,,,,,,,,,,,,,,,
294982,2022-10-04_19h31.48.661,vts_reward_expectancy,2022.2.4,MacIntel,60.0024001,Chrome,1440,900,,,a,0.3498,10,135,0,2,2,26,11,1,0,0,0,1,0,0,1,0,star,hexagon,,,,,,,,,,,,,,,,,,,,,,,,,,,,,,,,,,,,,,,,,,,,,,,,,,,,,,
294982,2022-10-04_19h31.48.661,vts_reward_expectancy,2022.2.4,MacIntel,60.0024001,Chrome,1440,900,,,l,0.3692,10,145,0,2,3,27,6,1,0,0,1,0,1,0,0,0,hexagon,triangle,,,,,,,,,,,,,,,,,,,,,,,,,,,,,,,,,,,,,,,,,,,,,,,,,,,,,,
294982,2022-10-04_19h31.48.661,vts_reward_expectancy,2022.2.4,MacIntel,60.0024001,Chrome,1440,900,,,l,0.3306,10,155,0,2,4,28,4,1,0,1,0,0,0,0,1,0,circle,hexagon,,,,,,,,,,,,,,,,,,,,,,,,,,,,,,,,,,,,,,,,,,,,,,,,,,,,,,
294982,2022-10-04_19h31.48.661,vts_reward_expectancy,2022.2.4,MacIntel,60.0024001,Chrome,1440,900,,,l,0.3781,10,165,0,2,5,29,8,1,0,0,1,0,0,0,0,1,hexagon,star,,,,,,,,,,,,,,,,,,,,,,,,,,,,,,,,,,,,,,,,,,,,,,,,,,,,,,
294982,2022-10-04_19h31.48.661,vts_reward_expectancy,2022.2.4,MacIntel,60.0024001,Chrome,1440,900,,,l,0.3491,1,166,0,2,6,30,0,1,1,0,0,0,0,1,0,0,triangle,circle,,,,,,,,,,,,,,,,,,,,,,,,,,,,,,,,,,,,,,,,,,,,,,,,,,,,,,
294982,2022-10-04_19h31.48.661,vts_reward_expectancy,2022.2.4,MacIntel,60.0024001,Chrome,1440,900,,,a,0.1188,10,176,0,2,7,31,7,1,0,0,1,0,0,1,0,0,hexagon,circle,,,,,,,,,,,,,,,,,,,,,,,,,,,,,,,,,,,,,,,,,,,,,,,,,,,,,,
294982,2022-10-04_19h31.48.661,vts_reward_expectancy,2022.2.4,MacIntel,60.0024001,Chrome,1440,900,,,a,0.6354,1,177,0,2,8,32,5,1,0,1,0,0,0,0,0,1,circle,star,,,,,,,,,,,,,,,,,,,,,,,,,,,,,,,,,,,,,,,,,,,,,,,,,,,,,,
294982,2022-10-04_19h31.48.661,vts_reward_expectancy,2022.2.4,MacIntel,60.0024001,Chrome,1440,900,,,l,0.5704,10,187,0,2,9,33,2,1,1,0,0,0,0,0,0,1,triangle,star,,,,,,,,,,,,,,,,,,,,,,,,,,,,,,,,,,,,,,,,,,,,,,,,,,,,,,
294982,2022-10-04_19h31.48.661,vts_reward_expectancy,2022.2.4,MacIntel,60.0024001,Chrome,1440,900,,,l,0.3494,10,197,0,2,10,34,9,1,0,0,0,1,1,0,0,0,star,triangle,,,,,,,,,,,,,,,,,,,,,,,,,,,,,,,,,,,,,,,,,,,,,,,,,,,,,,
294982,2022-10-04_19h31.48.661,vts_reward_expectancy,2022.2.4,MacIntel,60.0024001,Chrome,1440,900,,,l,0.316,1,198,0,2,11,35,10,1,0,0,0,1,0,1,0,0,star ,circle,,,,,,,,,,,,,,,,,,,,,,,,,,,,,,,,,,,,,,,,,,,,,,,,,,,,,,
294982,2022-10-04_19h31.48.661,vts_reward_expectancy,2022.2.4,MacIntel,60.0024001,Chrome,1440,900,,,l,2.8654,10,208,1,0,0,0,5,1,0,1,0,0,0,0,0,1,circle,star,,,,,,,,,,,,,,,,,,,,,,,,,,,,,,,,,,,,,,,,,,,,,,,,,,,,,,
294982,2022-10-04_19h31.48.661,vts_reward_expectancy,2022.2.4,MacIntel,60.0024001,Chrome,1440,900,,,a,0.1527,1,209,1,0,1,1,3,1,0,1,0,0,1,0,0,0,circle,triangle,,,,,,,,,,,,,,,,,,,,,,,,,,,,,,,,,,,,,,,,,,,,,,,,,,,,,,
294982,2022-10-04_19h31.48.661,vts_reward_expectancy,2022.2.4,MacIntel,60.0024001,Chrome,1440,900,,,l,0.4708,1,210,1,0,2,2,6,1,0,0,1,0,1,0,0,0,hexagon,triangle,,,,,,,,,,,,,,,,,,,,,,,,,,,,,,,,,,,,,,,,,,,,,,,,,,,,,,
294982,2022-10-04_19h31.48.661,vts_reward_expectancy,2022.2.4,MacIntel,60.0024001,Chrome,1440,900,,,a,0.5025,10,220,1,0,3,3,9,1,0,0,0,1,1,0,0,0,star,triangle,,,,,,,,,,,,,,,,,,,,,,,,,,,,,,,,,,,,,,,,,,,,,,,,,,,,,,
294982,2022-10-04_19h31.48.661,vts_reward_expectancy,2022.2.4,MacIntel,60.0024001,Chrome,1440,900,,,a,0.2726,10,230,1,0,4,4,10,1,0,0,0,1,0,1,0,0,star ,circle,,,,,,,,,,,,,,,,,,,,,,,,,,,,,,,,,,,,,,,,,,,,,,,,,,,,,,
294982,2022-10-04_19h31.48.661,vts_reward_expectancy,2022.2.4,MacIntel,60.0024001,Chrome,1440,900,,,a,0.7053,1,231,1,0,5,5,7,1,0,0,1,0,0,1,0,0,hexagon,circle,,,,,,,,,,,,,,,,,,,,,,,,,,,,,,,,,,,,,,,,,,,,,,,,,,,,,,
294982,2022-10-04_19h31.48.661,vts_reward_expectancy,2022.2.4,MacIntel,60.0024001,Chrome,1440,900,,,l,0.3857,1,232,1,0,6,6,0,1,1,0,0,0,0,1,0,0,triangle,circle,,,,,,,,,,,,,,,,,,,,,,,,,,,,,,,,,,,,,,,,,,,,,,,,,,,,,,
294982,2022-10-04_19h31.48.661,vts_reward_expectancy,2022.2.4,MacIntel,60.0024001,Chrome,1440,900,,,l,0.1018,10,242,1,0,7,7,8,1,0,0,1,0,0,0,0,1,hexagon,star,,,,,,,,,,,,,,,,,,,,,,,,,,,,,,,,,,,,,,,,,,,,,,,,,,,,,,
294982,2022-10-04_19h31.48.661,vts_reward_expectancy,2022.2.4,MacIntel,60.0024001,Chrome,1440,900,,,a,0.5497,10,252,1,0,8,8,11,1,0,0,0,1,0,0,1,0,star,hexagon,,,,,,,,,,,,,,,,,,,,,,,,,,,,,,,,,,,,,,,,,,,,,,,,,,,,,,
294982,2022-10-04_19h31.48.661,vts_reward_expectancy,2022.2.4,MacIntel,60.0024001,Chrome,1440,900,,,l,0.4501,10,262,1,0,9,9,1,1,1,0,0,0,0,0,1,0,triangle,hexagon,,,,,,,,,,,,,,,,,,,,,,,,,,,,,,,,,,,,,,,,,,,,,,,,,,,,,,
294982,2022-10-04_19h31.48.661,vts_reward_expectancy,2022.2.4,MacIntel,60.0024001,Chrome,1440,900,,,l,3.3157,1,263,1,0,10,10,4,1,0,1,0,0,0,0,1,0,circle,hexagon,,,,,,,,,,,,,,,,,,,,,,,,,,,,,,,,,,,,,,,,,,,,,,,,,,,,,,
294982,2022-10-04_19h31.48.661,vts_reward_expectancy,2022.2.4,MacIntel,60.0024001,Chrome,1440,900,,,l,0.6663,10,273,1,0,11,11,2,1,1,0,0,0,0,0,0,1,triangle,star,,,,,,,,,,,,,,,,,,,,,,,,,,,,,,,,,,,,,,,,,,,,,,,,,,,,,,
294982,2022-10-04_19h31.48.661,vts_reward_expectancy,2022.2.4,MacIntel,60.0024001,Chrome,1440,900,,,l,16.3369,1,274,1,1,0,12,11,1,0,0,0,1,0,0,1,0,star,hexagon,,,,,,,,,,,,,,,,,,,,,,,,,,,,,,,,,,,,,,,,,,,,,,,,,,,,,,
294982,2022-10-04_19h31.48.661,vts_reward_expectancy,2022.2.4,MacIntel,60.0024001,Chrome,1440,900,,,a,0.0155,10,284,1,1,1,13,3,1,0,1,0,0,1,0,0,0,circle,triangle,,,,,,,,,,,,,,,,,,,,,,,,,,,,,,,,,,,,,,,,,,,,,,,,,,,,,,
294982,2022-10-04_19h31.48.661,vts_reward_expectancy,2022.2.4,MacIntel,60.0024001,Chrome,1440,900,,,a,0.5321,10,294,1,1,2,14,10,1,0,0,0,1,0,1,0,0,star ,circle,,,,,,,,,,,,,,,,,,,,,,,,,,,,,,,,,,,,,,,,,,,,,,,,,,,,,,
294982,2022-10-04_19h31.48.661,vts_reward_expectancy,2022.2.4,MacIntel,60.0024001,Chrome,1440,900,,,l,16.3022,10,304,1,1,3,15,6,1,0,0,1,0,1,0,0,0,hexagon,triangle,,,,,,,,,,,,,,,,,,,,,,,,,,,,,,,,,,,,,,,,,,,,,,,,,,,,,,
294982,2022-10-04_19h31.48.661,vts_reward_expectancy,2022.2.4,MacIntel,60.0024001,Chrome,1440,900,,,l,0.0428,1,305,1,1,4,16,7,1,0,0,1,0,0,1,0,0,hexagon,circle,,,,,,,,,,,,,,,,,,,,,,,,,,,,,,,,,,,,,,,,,,,,,,,,,,,,,,
294982,2022-10-04_19h31.48.661,vts_reward_expectancy,2022.2.4,MacIntel,60.0024001,Chrome,1440,900,,,l,0.353,1,306,1,1,5,17,1,1,1,0,0,0,0,0,1,0,triangle,hexagon,,,,,,,,,,,,,,,,,,,,,,,,,,,,,,,,,,,,,,,,,,,,,,,,,,,,,,
294982,2022-10-04_19h31.48.661,vts_reward_expectancy,2022.2.4,MacIntel,60.0024001,Chrome,1440,900,,,a,0.3335,1,307,1,1,6,18,5,1,0,1,0,0,0,0,0,1,circle,star,,,,,,,,,,,,,,,,,,,,,,,,,,,,,,,,,,,,,,,,,,,,,,,,,,,,,,
294982,2022-10-04_19h31.48.661,vts_reward_expectancy,2022.2.4,MacIntel,60.0024001,Chrome,1440,900,,,l,0.296,10,317,1,1,7,19,2,1,1,0,0,0,0,0,0,1,triangle,star,,,,,,,,,,,,,,,,,,,,,,,,,,,,,,,,,,,,,,,,,,,,,,,,,,,,,,
294982,2022-10-04_19h31.48.661,vts_reward_expectancy,2022.2.4,MacIntel,60.0024001,Chrome,1440,900,,,l,0.2893,1,318,1,1,8,20,8,1,0,0,1,0,0,0,0,1,hexagon,star,,,,,,,,,,,,,,,,,,,,,,,,,,,,,,,,,,,,,,,,,,,,,,,,,,,,,,
294982,2022-10-04_19h31.48.661,vts_reward_expectancy,2022.2.4,MacIntel,60.0024001,Chrome,1440,900,,,a,0.334,1,319,1,1,9,21,0,1,1,0,0,0,0,1,0,0,triangle,circle,,,,,,,,,,,,,,,,,,,,,,,,,,,,,,,,,,,,,,,,,,,,,,,,,,,,,,
294982,2022-10-04_19h31.48.661,vts_reward_expectancy,2022.2.4,MacIntel,60.0024001,Chrome,1440,900,,,l,0.2875,1,320,1,1,10,22,4,1,0,1,0,0,0,0,1,0,circle,hexagon,,,,,,,,,,,,,,,,,,,,,,,,,,,,,,,,,,,,,,,,,,,,,,,,,,,,,,
294982,2022-10-04_19h31.48.661,vts_reward_expectancy,2022.2.4,MacIntel,60.0024001,Chrome,1440,900,,,l,0.3338,10,330,1,1,11,23,9,1,0,0,0,1,1,0,0,0,star,triangle,,,,,,,,,,,,,,,,,,,,,,,,,,,,,,,,,,,,,,,,,,,,,,,,,,,,,,
294982,2022-10-04_19h31.48.661,vts_reward_expectancy,2022.2.4,MacIntel,60.0024001,Chrome,1440,900,,,l,1.8868,1,331,1,2,0,24,6,1,0,0,1,0,1,0,0,0,hexagon,triangle,,,,,,,,,,,,,,,,,,,,,,,,,,,,,,,,,,,,,,,,,,,,,,,,,,,,,,
294982,2022-10-04_19h31.48.661,vts_reward_expectancy,2022.2.4,MacIntel,60.0024001,Chrome,1440,900,,,a,1.7709,1,332,1,2,1,25,9,1,0,0,0,1,1,0,0,0,star,triangle,,,,,,,,,,,,,,,,,,,,,,,,,,,,,,,,,,,,,,,,,,,,,,,,,,,,,,
294982,2022-10-04_19h31.48.661,vts_reward_expectancy,2022.2.4,MacIntel,60.0024001,Chrome,1440,900,,,l,2.3547,10,342,1,2,2,26,3,1,0,1,0,0,1,0,0,0,circle,triangle,,,,,,,,,,,,,,,,,,,,,,,,,,,,,,,,,,,,,,,,,,,,,,,,,,,,,,
294982,2022-10-04_19h31.48.661,vts_reward_expectancy,2022.2.4,MacIntel,60.0024001,Chrome,1440,900,,,a,2.4652,1,343,1,2,3,27,7,1,0,0,1,0,0,1,0,0,hexagon,circle,,,,,,,,,,,,,,,,,,,,,,,,,,,,,,,,,,,,,,,,,,,,,,,,,,,,,,
294982,2022-10-04_19h31.48.661,vts_reward_expectancy,2022.2.4,MacIntel,60.0024001,Chrome,1440,900,,,a,1.718,1,344,1,2,4,28,8,1,0,0,1,0,0,0,0,1,hexagon,star,,,,,,,,,,,,,,,,,,,,,,,,,,,,,,,,,,,,,,,,,,,,,,,,,,,,,,
294982,2022-10-04_19h31.48.661,vts_reward_expectancy,2022.2.4,MacIntel,60.0024001,Chrome,1440,900,,,a,1.4658,1,345,1,2,5,29,10,1,0,0,0,1,0,1,0,0,star ,circle,,,,,,,,,,,,,,,,,,,,,,,,,,,,,,,,,,,,,,,,,,,,,,,,,,,,,,
294982,2022-10-04_19h31.48.661,vts_reward_expectancy,2022.2.4,MacIntel,60.0024001,Chrome,1440,900,,,l,0.2037,10,355,1,2,6,30,2,1,1,0,0,0,0,0,0,1,triangle,star,,,,,,,,,,,,,,,,,,,,,,,,,,,,,,,,,,,,,,,,,,,,,,,,,,,,,,
294982,2022-10-04_19h31.48.661,vts_reward_expectancy,2022.2.4,MacIntel,60.0024001,Chrome,1440,900,,,l,0.0881,1,356,1,2,7,31,1,1,1,0,0,0,0,0,1,0,triangle,hexagon,,,,,,,,,,,,,,,,,,,,,,,,,,,,,,,,,,,,,,,,,,,,,,,,,,,,,,
294982,2022-10-04_19h31.48.661,vts_reward_expectancy,2022.2.4,MacIntel,60.0024001,Chrome,1440,900,,,l,0.2537,1,357,1,2,8,32,4,1,0,1,0,0,0,0,1,0,circle,hexagon,,,,,,,,,,,,,,,,,,,,,,,,,,,,,,,,,,,,,,,,,,,,,,,,,,,,,,
294982,2022-10-04_19h31.48.661,vts_reward_expectancy,2022.2.4,MacIntel,60.0024001,Chrome,1440,900,,,a,0.1046,10,367,1,2,9,33,0,1,1,0,0,0,0,1,0,0,triangle,circle,,,,,,,,,,,,,,,,,,,,,,,,,,,,,,,,,,,,,,,,,,,,,,,,,,,,,,
294982,2022-10-04_19h31.48.661,vts_reward_expectancy,2022.2.4,MacIntel,60.0024001,Chrome,1440,900,,,a,0.1686,10,377,1,2,10,34,11,1,0,0,0,1,0,0,1,0,star,hexagon,,,,,,,,,,,,,,,,,,,,,,,,,,,,,,,,,,,,,,,,,,,,,,,,,,,,,,
294982,2022-10-04_19h31.48.661,vts_reward_expectancy,2022.2.4,MacIntel,60.0024001,Chrome,1440,900,,,a,0.016,10,387,1,2,11,35,5,1,0,1,0,0,0,0,0,1,circle,star,,,,,,,,,,,,,,,,,,,,,,,,,,,,,,,,,,,,,,,,,,,,,,,,,,,,,,
294982,2022-10-04_19h31.48.661,vts_reward_expectancy,2022.2.4,MacIntel,60.0024001,Chrome,1440,900,,,l,0.9233,10,397,2,0,0,0,5,1,0,1,0,0,0,0,0,1,circle,star,,,,,,,,,,,,,,,,,,,,,,,,,,,,,,,,,,,,,,,,,,,,,,,,,,,,,,
294982,2022-10-04_19h31.48.661,vts_reward_expectancy,2022.2.4,MacIntel,60.0024001,Chrome,1440,900,,,l,0.0284,1,398,2,0,1,1,3,1,0,1,0,0,1,0,0,0,circle,triangle,,,,,,,,,,,,,,,,,,,,,,,,,,,,,,,,,,,,,,,,,,,,,,,,,,,,,,
294982,2022-10-04_19h31.48.661,vts_reward_expectancy,2022.2.4,MacIntel,60.0024001,Chrome,1440,900,,,l,0.0665,10,408,2,0,2,2,6,1,0,0,1,0,1,0,0,0,hexagon,triangle,,,,,,,,,,,,,,,,,,,,,,,,,,,,,,,,,,,,,,,,,,,,,,,,,,,,,,
294982,2022-10-04_19h31.48.661,vts_reward_expectancy,2022.2.4,MacIntel,60.0024001,Chrome,1440,900,,,l,0.0564,1,409,2,0,3,3,11,1,0,0,0,1,0,0,1,0,star,hexagon,,,,,,,,,,,,,,,,,,,,,,,,,,,,,,,,,,,,,,,,,,,,,,,,,,,,,,
294982,2022-10-04_19h31.48.661,vts_reward_expectancy,2022.2.4,MacIntel,60.0024001,Chrome,1440,900,,,l,0.1843,1,410,2,0,4,4,7,1,0,0,1,0,0,1,0,0,hexagon,circle,,,,,,,,,,,,,,,,,,,,,,,,,,,,,,,,,,,,,,,,,,,,,,,,,,,,,,
294982,2022-10-04_19h31.48.661,vts_reward_expectancy,2022.2.4,MacIntel,60.0024001,Chrome,1440,900,,,a,0.0827,10,420,2,0,5,5,8,1,0,0,1,0,0,0,0,1,hexagon,star,,,,,,,,,,,,,,,,,,,,,,,,,,,,,,,,,,,,,,,,,,,,,,,,,,,,,,
294982,2022-10-04_19h31.48.661,vts_reward_expectancy,2022.2.4,MacIntel,60.0024001,Chrome,1440,900,,,a,0.1212,1,421,2,0,6,6,9,1,0,0,0,1,1,0,0,0,star,triangle,,,,,,,,,,,,,,,,,,,,,,,,,,,,,,,,,,,,,,,,,,,,,,,,,,,,,,
294982,2022-10-04_19h31.48.661,vts_reward_expectancy,2022.2.4,MacIntel,60.0024001,Chrome,1440,900,,,l,0.1028,10,431,2,0,7,7,2,1,1,0,0,0,0,0,0,1,triangle,star,,,,,,,,,,,,,,,,,,,,,,,,,,,,,,,,,,,,,,,,,,,,,,,,,,,,,,
294982,2022-10-04_19h31.48.661,vts_reward_expectancy,2022.2.4,MacIntel,60.0024001,Chrome,1440,900,,,l,0.0146,1,432,2,0,8,8,0,1,1,0,0,0,0,1,0,0,triangle,circle,,,,,,,,,,,,,,,,,,,,,,,,,,,,,,,,,,,,,,,,,,,,,,,,,,,,,,
294982,2022-10-04_19h31.48.661,vts_reward_expectancy,2022.2.4,MacIntel,60.0024001,Chrome,1440,900,,,a,0.0201,1,433,2,0,9,9,10,1,0,0,0,1,0,1,0,0,star ,circle,,,,,,,,,,,,,,,,,,,,,,,,,,,,,,,,,,,,,,,,,,,,,,,,,,,,,,
294982,2022-10-04_19h31.48.661,vts_reward_expectancy,2022.2.4,MacIntel,60.0024001,Chrome,1440,900,,,a,0.0154,1,434,2,0,10,10,1,1,1,0,0,0,0,0,1,0,triangle,hexagon,,,,,,,,,,,,,,,,,,,,,,,,,,,,,,,,,,,,,,,,,,,,,,,,,,,,,,
294982,2022-10-04_19h31.48.661,vts_reward_expectancy,2022.2.4,MacIntel,60.0024001,Chrome,1440,900,,,a,0.1168,1,435,2,0,11,11,4,1,0,1,0,0,0,0,1,0,circle,hexagon,,,,,,,,,,,,,,,,,,,,,,,,,,,,,,,,,,,,,,,,,,,,,,,,,,,,,,
294982,2022-10-04_19h31.48.661,vts_reward_expectancy,2022.2.4,MacIntel,60.0024001,Chrome,1440,900,,,l,0.0838,1,436,2,1,0,12,3,1,0,1,0,0,1,0,0,0,circle,triangle,,,,,,,,,,,,,,,,,,,,,,,,,,,,,,,,,,,,,,,,,,,,,,,,,,,,,,
294982,2022-10-04_19h31.48.661,vts_reward_expectancy,2022.2.4,MacIntel,60.0024001,Chrome,1440,900,,,l,0.0533,10,446,2,1,1,13,6,1,0,0,1,0,1,0,0,0,hexagon,triangle,,,,,,,,,,,,,,,,,,,,,,,,,,,,,,,,,,,,,,,,,,,,,,,,,,,,,,
294982,2022-10-04_19h31.48.661,vts_reward_expectancy,2022.2.4,MacIntel,60.0024001,Chrome,1440,900,,,l,0.0978,1,447,2,1,2,14,11,1,0,0,0,1,0,0,1,0,star,hexagon,,,,,,,,,,,,,,,,,,,,,,,,,,,,,,,,,,,,,,,,,,,,,,,,,,,,,,
294982,2022-10-04_19h31.48.661,vts_reward_expectancy,2022.2.4,MacIntel,60.0024001,Chrome,1440,900,,,a,0.0005,10,457,2,1,3,15,4,1,0,1,0,0,0,0,1,0,circle,hexagon,,,,,,,,,,,,,,,,,,,,,,,,,,,,,,,,,,,,,,,,,,,,,,,,,,,,,,
294982,2022-10-04_19h31.48.661,vts_reward_expectancy,2022.2.4,MacIntel,60.0024001,Chrome,1440,900,,,l,0.0201,10,467,2,1,4,16,5,1,0,1,0,0,0,0,0,1,circle,star,,,,,,,,,,,,,,,,,,,,,,,,,,,,,,,,,,,,,,,,,,,,,,,,,,,,,,
294982,2022-10-04_19h31.48.661,vts_reward_expectancy,2022.2.4,MacIntel,60.0024001,Chrome,1440,900,,,l,0.0415,1,468,2,1,5,17,10,1,0,0,0,1,0,1,0,0,star ,circle,,,,,,,,,,,,,,,,,,,,,,,,,,,,,,,,,,,,,,,,,,,,,,,,,,,,,,
294982,2022-10-04_19h31.48.661,vts_reward_expectancy,2022.2.4,MacIntel,60.0024001,Chrome,1440,900,,,a,0.0413,10,478,2,1,6,18,1,1,1,0,0,0,0,0,1,0,triangle,hexagon,,,,,,,,,,,,,,,,,,,,,,,,,,,,,,,,,,,,,,,,,,,,,,,,,,,,,,
294982,2022-10-04_19h31.48.661,vts_reward_expectancy,2022.2.4,MacIntel,60.0024001,Chrome,1440,900,,,a,0.0324,10,488,2,1,7,19,2,1,1,0,0,0,0,0,0,1,triangle,star,,,,,,,,,,,,,,,,,,,,,,,,,,,,,,,,,,,,,,,,,,,,,,,,,,,,,,
294982,2022-10-04_19h31.48.661,vts_reward_expectancy,2022.2.4,MacIntel,60.0024001,Chrome,1440,900,,,a,0.3527,10,498,2,1,8,20,0,1,1,0,0,0,0,1,0,0,triangle,circle,,,,,,,,,,,,,,,,,,,,,,,,,,,,,,,,,,,,,,,,,,,,,,,,,,,,,,
294982,2022-10-04_19h31.48.661,vts_reward_expectancy,2022.2.4,MacIntel,60.0024001,Chrome,1440,900,,,a,0.0155,10,508,2,1,9,21,8,1,0,0,1,0,0,0,0,1,hexagon,star,,,,,,,,,,,,,,,,,,,,,,,,,,,,,,,,,,,,,,,,,,,,,,,,,,,,,,
294982,2022-10-04_19h31.48.661,vts_reward_expectancy,2022.2.4,MacIntel,60.0024001,Chrome,1440,900,,,a,0.0005,1,509,2,1,10,22,7,1,0,0,1,0,0,1,0,0,hexagon,circle,,,,,,,,,,,,,,,,,,,,,,,,,,,,,,,,,,,,,,,,,,,,,,,,,,,,,,
294982,2022-10-04_19h31.48.661,vts_reward_expectancy,2022.2.4,MacIntel,60.0024001,Chrome,1440,900,,,l,0.0877,10,519,2,1,11,23,9,1,0,0,0,1,1,0,0,0,star,triangle,,,,,,,,,,,,,,,,,,,,,,,,,,,,,,,,,,,,,,,,,,,,,,,,,,,,,,
294982,2022-10-04_19h31.48.661,vts_reward_expectancy,2022.2.4,MacIntel,60.0024001,Chrome,1440,900,,,l,0.133,1,520,2,2,0,24,7,1,0,0,1,0,0,1,0,0,hexagon,circle,,,,,,,,,,,,,,,,,,,,,,,,,,,,,,,,,,,,,,,,,,,,,,,,,,,,,,
294982,2022-10-04_19h31.48.661,vts_reward_expectancy,2022.2.4,MacIntel,60.0024001,Chrome,1440,900,,,l,0.0886,10,530,2,2,1,25,3,1,0,1,0,0,1,0,0,0,circle,triangle,,,,,,,,,,,,,,,,,,,,,,,,,,,,,,,,,,,,,,,,,,,,,,,,,,,,,,
294982,2022-10-04_19h31.48.661,vts_reward_expectancy,2022.2.4,MacIntel,60.0024001,Chrome,1440,900,,,l,0.1055,1,531,2,2,2,26,1,1,1,0,0,0,0,0,1,0,triangle,hexagon,,,,,,,,,,,,,,,,,,,,,,,,,,,,,,,,,,,,,,,,,,,,,,,,,,,,,,
294982,2022-10-04_19h31.48.661,vts_reward_expectancy,2022.2.4,MacIntel,60.0024001,Chrome,1440,900,,,a,0.0548,10,541,2,2,3,27,2,1,1,0,0,0,0,0,0,1,triangle,star,,,,,,,,,,,,,,,,,,,,,,,,,,,,,,,,,,,,,,,,,,,,,,,,,,,,,,
294982,2022-10-04_19h31.48.661,vts_reward_expectancy,2022.2.4,MacIntel,60.0024001,Chrome,1440,900,,,a,0.256,10,551,2,2,4,28,0,1,1,0,0,0,0,1,0,0,triangle,circle,,,,,,,,,,,,,,,,,,,,,,,,,,,,,,,,,,,,,,,,,,,,,,,,,,,,,,
294982,2022-10-04_19h31.48.661,vts_reward_expectancy,2022.2.4,MacIntel,60.0024001,Chrome,1440,900,,,a,0.2286,1,552,2,2,5,29,6,1,0,0,1,0,1,0,0,0,hexagon,triangle,,,,,,,,,,,,,,,,,,,,,,,,,,,,,,,,,,,,,,,,,,,,,,,,,,,,,,
294982,2022-10-04_19h31.48.661,vts_reward_expectancy,2022.2.4,MacIntel,60.0024001,Chrome,1440,900,,,l,0.0358,1,553,2,2,6,30,11,1,0,0,0,1,0,0,1,0,star,hexagon,,,,,,,,,,,,,,,,,,,,,,,,,,,,,,,,,,,,,,,,,,,,,,,,,,,,,,
294982,2022-10-04_19h31.48.661,vts_reward_expectancy,2022.2.4,MacIntel,60.0024001,Chrome,1440,900,,,l,0.1134,10,563,2,2,7,31,9,1,0,0,0,1,1,0,0,0,star,triangle,,,,,,,,,,,,,,,,,,,,,,,,,,,,,,,,,,,,,,,,,,,,,,,,,,,,,,
294982,2022-10-04_19h31.48.661,vts_reward_expectancy,2022.2.4,MacIntel,60.0024001,Chrome,1440,900,,,l,0.0005,1,564,2,2,8,32,8,1,0,0,1,0,0,0,0,1,hexagon,star,,,,,,,,,,,,,,,,,,,,,,,,,,,,,,,,,,,,,,,,,,,,,,,,,,,,,,
294982,2022-10-04_19h31.48.661,vts_reward_expectancy,2022.2.4,MacIntel,60.0024001,Chrome,1440,900,,,l,0.0003,10,574,2,2,9,33,4,1,0,1,0,0,0,0,1,0,circle,hexagon,,,,,,,,,,,,,,,,,,,,,,,,,,,,,,,,,,,,,,,,,,,,,,,,,,,,,,
294982,2022-10-04_19h31.48.661,vts_reward_expectancy,2022.2.4,MacIntel,60.0024001,Chrome,1440,900,,,l,0.37,10,584,2,2,10,34,10,1,0,0,0,1,0,1,0,0,star ,circle,,,,,,,,,,,,,,,,,,,,,,,,,,,,,,,,,,,,,,,,,,,,,,,,,,,,,,
294982,2022-10-04_19h31.48.661,vts_reward_expectancy,2022.2.4,MacIntel,60.0024001,Chrome,1440,900,,,l,0.3332,10,594,2,2,11,35,5,1,0,1,0,0,0,0,0,1,circle,star,,,,,,,,,,,,,,,,,,,,,,,,,,,,,,,,,,,,,,,,,,,,,,,,,,,,,,
294982,2022-10-04_19h31.48.661,vts_reward_expectancy,2022.2.4,MacIntel,60.0024001,Chrome,1440,900,,,,,,,,,,,,,,,,,,,,,,,132,S,hexagon,0,0,,0,0,0,0,0,1,,,,,,,,,,,,,,,,,,,,,,,,,,,,,,,,,,,,,,,,,,
294982,2022-10-04_19h31.48.661,vts_reward_expectancy,2022.2.4,MacIntel,60.0024001,Chrome,1440,900,,,,,,,,,,,,,,,,,,,,,,,125,H,circle,1,1,d,0,1,0,1,0,1,0.6448,,,,,,,,,,,,,,,,,,,,,,,,,,,,,,,,,,,,,,,,,
294982,2022-10-04_19h31.48.661,vts_reward_expectancy,2022.2.4,MacIntel,60.0024001,Chrome,1440,900,,,,,,,,,,,,,,,,,,,,,,,160,U,triangle,1,0,f,0,2,0,2,0,1,0.9784,,,,,,,,,,,,,,,,,,,,,,,,,,,,,,,,,,,,,,,,,
294982,2022-10-04_19h31.48.661,vts_reward_expectancy,2022.2.4,MacIntel,60.0024001,Chrome,1440,900,,,,,,,,,,,,,,,,,,,,,,,139,D,star,1,0,d,0,3,0,3,0,1,1.0976,,,,,,,,,,,,,,,,,,,,,,,,,,,,,,,,,,,,,,,,,
294982,2022-10-04_19h31.48.661,vts_reward_expectancy,2022.2.4,MacIntel,60.0024001,Chrome,1440,900,,,,,,,,,,,,,,,,,,,,,,,174,B,hexagon,1,0,f,0,4,0,4,0,1,0.9444,,,,,,,,,,,,,,,,,,,,,,,,,,,,,,,,,,,,,,,,,
294982,2022-10-04_19h31.48.661,vts_reward_expectancy,2022.2.4,MacIntel,60.0024001,Chrome,1440,900,,,,,,,,,,,,,,,,,,,,,,,146,W,circle,1,0,d,0,5,0,5,0,1,0.8701,,,,,,,,,,,,,,,,,,,,,,,,,,,,,,,,,,,,,,,,,
294982,2022-10-04_19h31.48.661,vts_reward_expectancy,2022.2.4,MacIntel,60.0024001,Chrome,1440,900,,,,,,,,,,,,,,,,,,,,,,,167,Y,triangle,1,0,f,0,6,0,6,0,1,0.8956,,,,,,,,,,,,,,,,,,,,,,,,,,,,,,,,,,,,,,,,,
294982,2022-10-04_19h31.48.661,vts_reward_expectancy,2022.2.4,MacIntel,60.0024001,Chrome,1440,900,,,,,,,,,,,,,,,,,,,,,,,181,F,star,1,0,f,0,7,0,7,0,1,0.7312,,,,,,,,,,,,,,,,,,,,,,,,,,,,,,,,,,,,,,,,,
294982,2022-10-04_19h31.48.661,vts_reward_expectancy,2022.2.4,MacIntel,60.0024001,Chrome,1440,900,,,,,,,,,,,,,,,,,,,,,,,132,S,hexagon,1,0,d,0,8,0,8,0,1,0.844,,,,,,,,,,,,,,,,,,,,,,,,,,,,,,,,,,,,,,,,,
294982,2022-10-04_19h31.48.661,vts_reward_expectancy,2022.2.4,MacIntel,60.0024001,Chrome,1440,900,,,,,,,,,,,,,,,,,,,,,,,125,H,triangle,1,0,d,0,9,0,9,0,1,0.6636,,,,,,,,,,,,,,,,,,,,,,,,,,,,,,,,,,,,,,,,,
294982,2022-10-04_19h31.48.661,vts_reward_expectancy,2022.2.4,MacIntel,60.0024001,Chrome,1440,900,,,,,,,,,,,,,,,,,,,,,,,125,B,star,1,0,,1,,,,,,,j,1.0461,0,0,0,0,1,,,,,,,,,,,,,,,,,,,,,,,,,,,,,,,,,,
294982,2022-10-04_19h31.48.661,vts_reward_expectancy,2022.2.4,MacIntel,60.0024001,Chrome,1440,900,,,,,,,,,,,,,,,,,,,,,,,167,F,triangle,1,0,,1,,,,,,,j,0.7422,1,0,1,0,1,,,,,,,,,,,,,,,,,,,,,,,,,,,,,,,,,,
294982,2022-10-04_19h31.48.661,vts_reward_expectancy,2022.2.4,MacIntel,60.0024001,Chrome,1440,900,,,,,,,,,,,,,,,,,,,,,,,160,D,circle,1,0,,1,,,,,,,j,0.7551,2,0,2,0,1,,,,,,,,,,,,,,,,,,,,,,,,,,,,,,,,,,
294982,2022-10-04_19h31.48.661,vts_reward_expectancy,2022.2.4,MacIntel,60.0024001,Chrome,1440,900,,,,,,,,,,,,,,,,,,,,,,,132,W,hexagon,1,0,,1,,,,,,,k,0.8129,3,0,3,0,1,,,,,,,,,,,,,,,,,,,,,,,,,,,,,,,,,,
294982,2022-10-04_19h31.48.661,vts_reward_expectancy,2022.2.4,MacIntel,60.0024001,Chrome,1440,900,,,,,,,,,,,,,,,,,,,,,,,146,H,star,1,0,,1,,,,,,,j,1.127,4,0,4,0,1,,,,,,,,,,,,,,,,,,,,,,,,,,,,,,,,,,
294982,2022-10-04_19h31.48.661,vts_reward_expectancy,2022.2.4,MacIntel,60.0024001,Chrome,1440,900,,,,,,,,,,,,,,,,,,,,,,,174,S,triangle,1,0,,1,,,,,,,k,0.8063,5,0,5,0,1,,,,,,,,,,,,,,,,,,,,,,,,,,,,,,,,,,
294982,2022-10-04_19h31.48.661,vts_reward_expectancy,2022.2.4,MacIntel,60.0024001,Chrome,1440,900,,,,,,,,,,,,,,,,,,,,,,,181,Y,circle,1,0,,1,,,,,,,k,0.7628,6,0,6,0,1,,,,,,,,,,,,,,,,,,,,,,,,,,,,,,,,,,
294982,2022-10-04_19h31.48.661,vts_reward_expectancy,2022.2.4,MacIntel,60.0024001,Chrome,1440,900,,,,,,,,,,,,,,,,,,,,,,,139,U,hexagon,1,0,,1,,,,,,,k,0.6265,7,0,7,0,1,,,,,,,,,,,,,,,,,,,,,,,,,,,,,,,,,,
294982,2022-10-04_19h31.48.661,vts_reward_expectancy,2022.2.4,MacIntel,60.0024001,Chrome,1440,900,,,,,,,,,,,,,,,,,,,,,,,125,B,triangle,1,0,,1,,,,,,,j,0.7879,8,0,8,0,1,,,,,,,,,,,,,,,,,,,,,,,,,,,,,,,,,,
294982,2022-10-04_19h31.48.661,vts_reward_expectancy,2022.2.4,MacIntel,60.0024001,Chrome,1440,900,,,,,,,,,,,,,,,,,,,,,,,167,F,circle,1,0,,1,,,,,,,j,0.6635,9,0,9,0,1,,,,,,,,,,,,,,,,,,,,,,,,,,,,,,,,,,
294982,2022-10-04_19h31.48.661,vts_reward_expectancy,2022.2.4,MacIntel,60.0024001,Chrome,1440,900,,,,,0,594,,,,,,,,,,,,,,,,,167,U,hexagon,1,0,,2,,,,,,,,,,,,,,-1,letter,NA,k,1.2313,vtsPrac,0,0,0,0,1,,,,,,,,,,,,,,,,,,,,,,,
294982,2022-10-04_19h31.48.661,vts_reward_expectancy,2022.2.4,MacIntel,60.0024001,Chrome,1440,900,,,,,0,594,,,,,,,,,,,,,,,,,132,W,triangle,1,0,,2,,,,,,,,,,,,,,repeat,letter,lettRpt,k,0.8211,vtsPrac,1,0,1,0,1,,,,,,,,,,,,,,,,,,,,,,,
294982,2022-10-04_19h31.48.661,vts_reward_expectancy,2022.2.4,MacIntel,60.0024001,Chrome,1440,900,,,,,0,594,,,,,,,,,,,,,,,,,125,H,hexagon,1,0,,2,,,,,,,,,,,,,,repeat,letter,lettRpt,j,1.3311,vtsPrac,2,0,2,0,1,,,,,,,,,,,,,,,,,,,,,,,
294982,2022-10-04_19h31.48.661,vts_reward_expectancy,2022.2.4,MacIntel,60.0024001,Chrome,1440,900,,,,,0,594,,,,,,,,,,,,,,,,,174,F,triangle,1,0,,2,,,,,,,,,,,,,,repeat,letter,lettRpt,j,1.0794,vtsPrac,3,0,3,0,1,,,,,,,,,,,,,,,,,,,,,,,
294982,2022-10-04_19h31.48.661,vts_reward_expectancy,2022.2.4,MacIntel,60.0024001,Chrome,1440,900,,,,,0,594,,,,,,,,,,,,,,,,,167,U,hexagon,1,0,,2,,,,,,,,,,,,,,switch,number,numSwt,f,0.7668,vtsPrac,4,0,4,0,1,,,,,,,,,,,,,,,,,,,,,,,
294982,2022-10-04_19h31.48.661,vts_reward_expectancy,2022.2.4,MacIntel,60.0024001,Chrome,1440,900,,,,,0,594,,,,,,,,,,,,,,,,,132,W,star,1,0,,2,,,,,,,,,,,,,,repeat,number,numRpt,d,1.0308,vtsPrac,5,0,5,0,1,,,,,,,,,,,,,,,,,,,,,,,
294982,2022-10-04_19h31.48.661,vts_reward_expectancy,2022.2.4,MacIntel,60.0024001,Chrome,1440,900,,,,,0,594,,,,,,,,,,,,,,,,,125,H,circle,1,0,,2,,,,,,,,,,,,,,repeat,number,numRpt,d,0.7977,vtsPrac,6,0,6,0,1,,,,,,,,,,,,,,,,,,,,,,,
294982,2022-10-04_19h31.48.661,vts_reward_expectancy,2022.2.4,MacIntel,60.0024001,Chrome,1440,900,,,,,0,594,,,,,,,,,,,,,,,,,174,F,hexagon,1,0,,2,,,,,,,,,,,,,,switch,letter,lettSwt,j,0.9122,vtsPrac,7,0,7,0,1,,,,,,,,,,,,,,,,,,,,,,,
294982,2022-10-04_19h31.48.661,vts_reward_expectancy,2022.2.4,MacIntel,60.0024001,Chrome,1440,900,,,,,0,594,,,,,,,,,,,,,,,,,167,W,hexagon,1,0,,2,,,,,,,,,,,,,,repeat,letter,lettRpt,k,0.8813,vtsPrac,8,0,8,0,1,,,,,,,,,,,,,,,,,,,,,,,
294982,2022-10-04_19h31.48.661,vts_reward_expectancy,2022.2.4,MacIntel,60.0024001,Chrome,1440,900,,,,,0,594,,,,,,,,,,,,,,,,,181,Y,star,1,0,,2,,,,,,,,,,,,,,switch,number,numSwt,f,1.0481,vtsPrac,9,0,9,0,1,,,,,,,,,,,,,,,,,,,,,,,
294982,2022-10-04_19h31.48.661,vts_reward_expectancy,2022.2.4,MacIntel,60.0024001,Chrome,1440,900,,,,,0,594,,,,,,,,,,,,,,,,,160,B,triangle,1,0,,2,,,,,,,,,,,,,,switch,letter,lettSwt,j,0.7698,vtsPrac,10,0,10,0,1,,,,,,,,,,,,,,,,,,,,,,,
294982,2022-10-04_19h31.48.661,vts_reward_expectancy,2022.2.4,MacIntel,60.0024001,Chrome,1440,900,,,,,0,594,,,,,,,,,,,,,,,,,139,S,hexagon,1,0,,2,,,,,,,,,,,,,,repeat,letter,lettRpt,k,0.8272,vtsPrac,11,0,11,0,1,,,,,,,,,,,,,,,,,,,,,,,
294982,2022-10-04_19h31.48.661,vts_reward_expectancy,2022.2.4,MacIntel,60.0024001,Chrome,1440,900,,,,,0,594,,,,,,,,,,,,,,,,,125,F,hexagon,1,0,,2,,,,,,,,,,,,,,switch,number,numSwt,d,0.6692,vtsPrac,12,0,12,0,1,,,,,,,,,,,,,,,,,,,,,,,
294982,2022-10-04_19h31.48.661,vts_reward_expectancy,2022.2.4,MacIntel,60.0024001,Chrome,1440,900,,,,,0,594,,,,,,,,,,,,,,,,,139,H,triangle,1,0,,2,,,,,,,,,,,,,,repeat,number,numRpt,d,1.3875,vtsPrac,13,0,13,0,1,,,,,,,,,,,,,,,,,,,,,,,
294982,2022-10-04_19h31.48.661,vts_reward_expectancy,2022.2.4,MacIntel,60.0024001,Chrome,1440,900,,,,,0,594,,,,,,,,,,,,,,,,,167,Y,circle,1,0,,2,,,,,,,,,,,,,,switch,letter,lettSwt,k,0.9597,vtsPrac,14,0,14,0,1,,,,,,,,,,,,,,,,,,,,,,,
294982,2022-10-04_19h31.48.661,vts_reward_expectancy,2022.2.4,MacIntel,60.0024001,Chrome,1440,900,,,,,0,594,,,,,,,,,,,,,,,,,160,B,triangle,1,0,,2,,,,,,,,,,,,,,switch,number,numSwt,f,0.6796,vtsPrac,15,0,15,0,1,,,,,,,,,,,,,,,,,,,,,,,
294982,2022-10-04_19h31.48.661,vts_reward_expectancy,2022.2.4,MacIntel,60.0024001,Chrome,1440,900,,,,,,,,,,,,,,,,,,,,,,,,,,,,,,,,,,,,,,,,,,,,,,,,,,,,,,,,,,,,,,,,,,,,,,,,,,,,
294982,2022-10-04_19h31.48.661,vts_reward_expectancy,2022.2.4,MacIntel,60.0024001,Chrome,1440,900,,,,,,,,,,,,,,,,,,,,,,,,,,,,,,,,,,,,,,,,,,,,,,,,,,,,,,,,,,,,,,,,,,,,,,,,,,,,
294982,2022-10-04_19h31.48.661,vts_reward_expectancy,2022.2.4,MacIntel,60.0024001,Chrome,1440,900,,,,,0,594,,,,,,,,,,,,,,,,,181,F,star,1,0,,,,,,,,,,,,,,,,switch,letter,lettSwt,j,1.3923,noRew,,,,,,0,0,0,0,0,1,,,,,,,,,,,,,,,,,
294982,2022-10-04_19h31.48.661,vts_reward_expectancy,2022.2.4,MacIntel,60.0024001,Chrome,1440,900,,,,,0,594,,,,,,,,,,,,,,,,,146,U,hexagon,1,0,,,,,,,,,,,,,,,,repeat,letter,lettRpt,k,1.2218,noRew,,,,,,0,1,0,1,0,1,,,,,,,,,,,,,,,,,
294982,2022-10-04_19h31.48.661,vts_reward_expectancy,2022.2.4,MacIntel,60.0024001,Chrome,1440,900,,,,,0,594,,,,,,,,,,,,,,,,,132,B,star,1,0,,,,,,,,,,,,,,,,switch,number,numSwt,d,1.4791,noRew,,,,,,0,2,0,2,0,1,,,,,,,,,,,,,,,,,
294982,2022-10-04_19h31.48.661,vts_reward_expectancy,2022.2.4,MacIntel,60.0024001,Chrome,1440,900,,,,,0,594,,,,,,,,,,,,,,,,,167,S,hexagon,1,0,,,,,,,,,,,,,,,,repeat,number,numRpt,f,0.8329,noRew,,,,,,0,3,0,3,0,1,,,,,,,,,,,,,,,,,
294982,2022-10-04_19h31.48.661,vts_reward_expectancy,2022.2.4,MacIntel,60.0024001,Chrome,1440,900,,,,,0,594,,,,,,,,,,,,,,,,,181,F,triangle,1,0,,,,,,,,,,,,,,,,switch,letter,lettSwt,j,0.9099,noRew,,,,,,0,4,0,4,0,1,,,,,,,,,,,,,,,,,
294982,2022-10-04_19h31.48.661,vts_reward_expectancy,2022.2.4,MacIntel,60.0024001,Chrome,1440,900,,,,,0,594,,,,,,,,,,,,,,,,,146,U,circle,1,0,,,,,,,,,,,,,,,,switch,number,numSwt,d,0.5609,noRew,,,,,,0,5,0,5,0,1,,,,,,,,,,,,,,,,,
294982,2022-10-04_19h31.48.661,vts_reward_expectancy,2022.2.4,MacIntel,60.0024001,Chrome,1440,900,,,,,0,594,,,,,,,,,,,,,,,,,132,B,circle,1,0,,,,,,,,,,,,,,,,switch,letter,lettSwt,j,1.4639,noRew,,,,,,0,6,0,6,0,1,,,,,,,,,,,,,,,,,
294982,2022-10-04_19h31.48.661,vts_reward_expectancy,2022.2.4,MacIntel,60.0024001,Chrome,1440,900,,,,,0,594,,,,,,,,,,,,,,,,,167,S,triangle,1,0,,,,,,,,,,,,,,,,switch,number,numSwt,f,0.8308,noRew,,,,,,0,7,0,7,0,1,,,,,,,,,,,,,,,,,
294982,2022-10-04_19h31.48.661,vts_reward_expectancy,2022.2.4,MacIntel,60.0024001,Chrome,1440,900,,,,,0,594,,,,,,,,,,,,,,,,,125,W,hexagon,1,0,,,,,,,,,,,,,,,,switch,letter,lettSwt,k,1.0314,noRew,,,,,,0,8,0,8,0,1,,,,,,,,,,,,,,,,,
294982,2022-10-04_19h31.48.661,vts_reward_expectancy,2022.2.4,MacIntel,60.0024001,Chrome,1440,900,,,,,0,594,,,,,,,,,,,,,,,,,160,Y,circle,1,0,,,,,,,,,,,,,,,,repeat,letter,lettRpt,k,1.5027,noRew,,,,,,0,9,0,9,0,1,,,,,,,,,,,,,,,,,
294982,2022-10-04_19h31.48.661,vts_reward_expectancy,2022.2.4,MacIntel,60.0024001,Chrome,1440,900,,,,,0,594,,,,,,,,,,,,,,,,,132,D,circle,1,0,,,,,,,,,,,,,,,,repeat,letter,lettRpt,j,0.8523,noRew,,,,,,0,10,0,10,0,1,,,,,,,,,,,,,,,,,
294982,2022-10-04_19h31.48.661,vts_reward_expectancy,2022.2.4,MacIntel,60.0024001,Chrome,1440,900,,,,,0,594,,,,,,,,,,,,,,,,,181,H,triangle,1,0,,,,,,,,,,,,,,,,repeat,letter,lettRpt,j,0.9661,noRew,,,,,,0,11,0,11,0,1,,,,,,,,,,,,,,,,,
294982,2022-10-04_19h31.48.661,vts_reward_expectancy,2022.2.4,MacIntel,60.0024001,Chrome,1440,900,,,,,0,594,,,,,,,,,,,,,,,,,132,S,circle,0,0,,,,,,,,,,,,,,,,switch,number,NA,f,1.5406,noRew,,,,,,0,12,0,12,0,1,,,,,,,,,,,,,,,,,
294982,2022-10-04_19h31.48.661,vts_reward_expectancy,2022.2.4,MacIntel,60.0024001,Chrome,1440,900,,,,,0,594,,,,,,,,,,,,,,,,,174,W,triangle,1,1,,,,,,,,,,,,,,,,repeat,number,numRpt,f,1.4031,noRew,,,,,,0,13,0,13,0,1,,,,,,,,,,,,,,,,,
294982,2022-10-04_19h31.48.661,vts_reward_expectancy,2022.2.4,MacIntel,60.0024001,Chrome,1440,900,,,,,0,594,,,,,,,,,,,,,,,,,146,B,triangle,1,0,,,,,,,,,,,,,,,,repeat,number,numRpt,d,2.0131,noRew,,,,,,0,14,0,14,0,1,,,,,,,,,,,,,,,,,
294982,2022-10-04_19h31.48.661,vts_reward_expectancy,2022.2.4,MacIntel,60.0024001,Chrome,1440,900,,,,,0,594,,,,,,,,,,,,,,,,,125,F,circle,1,0,,,,,,,,,,,,,,,,repeat,number,numRpt,d,1.0599,noRew,,,,,,0,15,0,15,0,1,,,,,,,,,,,,,,,,,
294982,2022-10-04_19h31.48.661,vts_reward_expectancy,2022.2.4,MacIntel,60.0024001,Chrome,1440,900,,,,,0,594,,,,,,,,,,,,,,,,,160,W,star,1,0,,,,,,,,,,,,,,,,switch,letter,lettSwt,k,1.0272,noRew,,,,,,0,16,0,16,0,1,,,,,,,,,,,,,,,,,
294982,2022-10-04_19h31.48.661,vts_reward_expectancy,2022.2.4,MacIntel,60.0024001,Chrome,1440,900,,,,,0,594,,,,,,,,,,,,,,,,,167,D,triangle,1,0,,,,,,,,,,,,,,,,repeat,letter,lettRpt,j,1.1284,noRew,,,,,,0,17,0,17,0,1,,,,,,,,,,,,,,,,,
294982,2022-10-04_19h31.48.661,vts_reward_expectancy,2022.2.4,MacIntel,60.0024001,Chrome,1440,900,,,,,0,594,,,,,,,,,,,,,,,,,146,Y,triangle,1,0,,,,,,,,,,,,,,,,switch,number,numSwt,d,1.517,noRew,,,,,,0,18,0,18,0,1,,,,,,,,,,,,,,,,,
294982,2022-10-04_19h31.48.661,vts_reward_expectancy,2022.2.4,MacIntel,60.0024001,Chrome,1440,900,,,,,0,594,,,,,,,,,,,,,,,,,181,F,hexagon,1,0,,,,,,,,,,,,,,,,repeat,number,numRpt,f,1.1128,noRew,,,,,,0,19,0,19,0,1,,,,,,,,,,,,,,,,,
294982,2022-10-04_19h31.48.661,vts_reward_expectancy,2022.2.4,MacIntel,60.0024001,Chrome,1440,900,,,,,0,594,,,,,,,,,,,,,,,,,139,H,hexagon,1,0,,,,,,,,,,,,,,,,repeat,number,numRpt,d,0.905,noRew,,,,,,0,20,0,20,0,1,,,,,,,,,,,,,,,,,
294982,2022-10-04_19h31.48.661,vts_reward_expectancy,2022.2.4,MacIntel,60.0024001,Chrome,1440,900,,,,,0,594,,,,,,,,,,,,,,,,,174,W,triangle,1,0,,,,,,,,,,,,,,,,repeat,number,numRpt,f,1.081,noRew,,,,,,0,21,0,21,0,1,,,,,,,,,,,,,,,,,
294982,2022-10-04_19h31.48.661,vts_reward_expectancy,2022.2.4,MacIntel,60.0024001,Chrome,1440,900,,,,,0,594,,,,,,,,,,,,,,,,,181,Y,circle,1,0,,,,,,,,,,,,,,,,repeat,number,numRpt,f,1.3076,noRew,,,,,,0,22,0,22,0,1,,,,,,,,,,,,,,,,,
294982,2022-10-04_19h31.48.661,vts_reward_expectancy,2022.2.4,MacIntel,60.0024001,Chrome,1440,900,,,,,0,594,,,,,,,,,,,,,,,,,146,S,hexagon,1,0,,,,,,,,,,,,,,,,repeat,number,numRpt,d,1.5971,noRew,,,,,,0,23,0,23,0,1,,,,,,,,,,,,,,,,,
294982,2022-10-04_19h31.48.661,vts_reward_expectancy,2022.2.4,MacIntel,60.0024001,Chrome,1440,900,,,,,0,594,,,,,,,,,,,,,,,,,132,D,hexagon,1,0,,,,,,,,,,,,,,,,switch,letter,lettSwt,j,1.759,noRew,,,,,,0,24,0,24,0,1,,,,,,,,,,,,,,,,,
294982,2022-10-04_19h31.48.661,vts_reward_expectancy,2022.2.4,MacIntel,60.0024001,Chrome,1440,900,,,,,0,594,,,,,,,,,,,,,,,,,139,B,circle,1,0,,,,,,,,,,,,,,,,repeat,letter,lettRpt,j,1.6097,noRew,,,,,,0,25,0,25,0,1,,,,,,,,,,,,,,,,,
294982,2022-10-04_19h31.48.661,vts_reward_expectancy,2022.2.4,MacIntel,60.0024001,Chrome,1440,900,,,,,0,594,,,,,,,,,,,,,,,,,160,H,triangle,1,0,,,,,,,,,,,,,,,,repeat,letter,lettRpt,j,2.1764,noRew,,,,,,0,26,0,26,0,1,,,,,,,,,,,,,,,,,
294982,2022-10-04_19h31.48.661,vts_reward_expectancy,2022.2.4,MacIntel,60.0024001,Chrome,1440,900,,,,,0,594,,,,,,,,,,,,,,,,,146,S,hexagon,1,0,,,,,,,,,,,,,,,,repeat,letter,lettRpt,k,1.514,noRew,,,,,,0,27,0,27,0,1,,,,,,,,,,,,,,,,,
294982,2022-10-04_19h31.48.661,vts_reward_expectancy,2022.2.4,MacIntel,60.0024001,Chrome,1440,900,,,,,0,594,,,,,,,,,,,,,,,,,132,S,circle,1,0,,,,,,,,,,,,,,,,repeat,letter,lettRpt,k,1.0894,noRew,,,,,,0,28,0,28,0,1,,,,,,,,,,,,,,,,,
294982,2022-10-04_19h31.48.661,vts_reward_expectancy,2022.2.4,MacIntel,60.0024001,Chrome,1440,900,,,,,0,594,,,,,,,,,,,,,,,,,139,D,star,1,0,,,,,,,,,,,,,,,,switch,number,numSwt,d,0.7975,noRew,,,,,,0,29,0,29,0,1,,,,,,,,,,,,,,,,,
294982,2022-10-04_19h31.48.661,vts_reward_expectancy,2022.2.4,MacIntel,60.0024001,Chrome,1440,900,,,,,0,594,,,,,,,,,,,,,,,,,125,Y,triangle,1,0,,,,,,,,,,,,,,,,switch,letter,lettSwt,k,1.5364,noRew,,,,,,0,30,0,30,0,1,,,,,,,,,,,,,,,,,
294982,2022-10-04_19h31.48.661,vts_reward_expectancy,2022.2.4,MacIntel,60.0024001,Chrome,1440,900,,,,,0,594,,,,,,,,,,,,,,,,,181,U,hexagon,1,0,,,,,,,,,,,,,,,,repeat,letter,lettRpt,k,1.0777,noRew,,,,,,0,31,0,31,0,1,,,,,,,,,,,,,,,,,
294982,2022-10-04_19h31.48.661,vts_reward_expectancy,2022.2.4,MacIntel,60.0024001,Chrome,1440,900,,,,,0,594,,,,,,,,,,,,,,,,,132,F,circle,1,0,,,,,,,,,,,,,,,,switch,number,numSwt,d,2.0122,noRew,,,,,,0,32,0,32,0,1,,,,,,,,,,,,,,,,,
294982,2022-10-04_19h31.48.661,vts_reward_expectancy,2022.2.4,MacIntel,60.0024001,Chrome,1440,900,,,,,0,594,,,,,,,,,,,,,,,,,125,H,triangle,1,0,,,,,,,,,,,,,,,,repeat,number,numRpt,d,0.8027,noRew,,,,,,0,33,0,33,0,1,,,,,,,,,,,,,,,,,
294982,2022-10-04_19h31.48.661,vts_reward_expectancy,2022.2.4,MacIntel,60.0024001,Chrome,1440,900,,,,,0,594,,,,,,,,,,,,,,,,,146,S,circle,1,0,,,,,,,,,,,,,,,,repeat,number,numRpt,d,1.2753,noRew,,,,,,0,34,0,34,0,1,,,,,,,,,,,,,,,,,
294982,2022-10-04_19h31.48.661,vts_reward_expectancy,2022.2.4,MacIntel,60.0024001,Chrome,1440,900,,,,,0,594,,,,,,,,,,,,,,,,,181,D,star,1,0,,,,,,,,,,,,,,,,switch,letter,lettSwt,j,0.9199,noRew,,,,,,0,35,0,35,0,1,,,,,,,,,,,,,,,,,
294982,2022-10-04_19h31.48.661,vts_reward_expectancy,2022.2.4,MacIntel,60.0024001,Chrome,1440,900,,,,,0,594,,,,,,,,,,,,,,,,,125,W,star,1,0,,,,,,,,,,,,,,,,repeat,letter,lettRpt,k,0.9802,noRew,,,,,,0,36,0,36,0,1,,,,,,,,,,,,,,,,,
294982,2022-10-04_19h31.48.661,vts_reward_expectancy,2022.2.4,MacIntel,60.0024001,Chrome,1440,900,,,,,0,594,,,,,,,,,,,,,,,,,167,U,circle,1,0,,,,,,,,,,,,,,,,repeat,letter,lettRpt,k,0.9032,noRew,,,,,,0,37,0,37,0,1,,,,,,,,,,,,,,,,,
294982,2022-10-04_19h31.48.661,vts_reward_expectancy,2022.2.4,MacIntel,60.0024001,Chrome,1440,900,,,,,0,594,,,,,,,,,,,,,,,,,132,Y,star,1,0,,,,,,,,,,,,,,,,switch,number,numSwt,d,1.3437,noRew,,,,,,0,38,0,38,0,1,,,,,,,,,,,,,,,,,
294982,2022-10-04_19h31.48.661,vts_reward_expectancy,2022.2.4,MacIntel,60.0024001,Chrome,1440,900,,,,,0,594,,,,,,,,,,,,,,,,,146,F,hexagon,1,0,,,,,,,,,,,,,,,,repeat,number,numRpt,d,0.9811,noRew,,,,,,0,39,0,39,0,1,,,,,,,,,,,,,,,,,
294982,2022-10-04_19h31.48.661,vts_reward_expectancy,2022.2.4,MacIntel,60.0024001,Chrome,1440,900,,,,,0,594,,,,,,,,,,,,,,,,,125,Y,triangle,1,0,,,,,,,,,,,,,,,,repeat,number,numRpt,d,1.8337,noRew,,,,,,0,40,0,40,0,1,,,,,,,,,,,,,,,,,
294982,2022-10-04_19h31.48.661,vts_reward_expectancy,2022.2.4,MacIntel,60.0024001,Chrome,1440,900,,,,,0,594,,,,,,,,,,,,,,,,,146,F,hexagon,1,0,,,,,,,,,,,,,,,,repeat,number,numRpt,d,1.5919,noRew,,,,,,0,41,0,41,0,1,,,,,,,,,,,,,,,,,
294982,2022-10-04_19h31.48.661,vts_reward_expectancy,2022.2.4,MacIntel,60.0024001,Chrome,1440,900,,,,,0,594,,,,,,,,,,,,,,,,,139,S,hexagon,1,0,,,,,,,,,,,,,,,,repeat,number,numRpt,d,1.4999,noRew,,,,,,0,42,0,42,0,1,,,,,,,,,,,,,,,,,
294982,2022-10-04_19h31.48.661,vts_reward_expectancy,2022.2.4,MacIntel,60.0024001,Chrome,1440,900,,,,,0,594,,,,,,,,,,,,,,,,,174,B,triangle,1,0,,,,,,,,,,,,,,,,switch,letter,lettSwt,j,1.1401,noRew,,,,,,0,43,0,43,0,1,,,,,,,,,,,,,,,,,
294982,2022-10-04_19h31.48.661,vts_reward_expectancy,2022.2.4,MacIntel,60.0024001,Chrome,1440,900,,,,,0,594,,,,,,,,,,,,,,,,,167,U,hexagon,1,0,,,,,,,,,,,,,,,,repeat,letter,lettRpt,k,1.1976,noRew,,,,,,0,44,0,44,0,1,,,,,,,,,,,,,,,,,
294982,2022-10-04_19h31.48.661,vts_reward_expectancy,2022.2.4,MacIntel,60.0024001,Chrome,1440,900,,,,,0,594,,,,,,,,,,,,,,,,,146,W,circle,1,0,,,,,,,,,,,,,,,,repeat,letter,lettRpt,k,1.0947,noRew,,,,,,0,45,0,45,0,1,,,,,,,,,,,,,,,,,
294982,2022-10-04_19h31.48.661,vts_reward_expectancy,2022.2.4,MacIntel,60.0024001,Chrome,1440,900,,,,,0,594,,,,,,,,,,,,,,,,,139,H,circle,0,0,,,,,,,,,,,,,,,,repeat,letter,NA,k,0.6744,noRew,,,,,,0,46,0,46,0,1,,,,,,,,,,,,,,,,,
294982,2022-10-04_19h31.48.661,vts_reward_expectancy,2022.2.4,MacIntel,60.0024001,Chrome,1440,900,,,,,0,594,,,,,,,,,,,,,,,,,181,B,triangle,1,1,,,,,,,,,,,,,,,,repeat,letter,lettRpt,j,0.7139,noRew,,,,,,0,47,0,47,0,1,,,,,,,,,,,,,,,,,
294982,2022-10-04_19h31.48.661,vts_reward_expectancy,2022.2.4,MacIntel,60.0024001,Chrome,1440,900,,,,,0,594,,,,,,,,,,,,,,,,,132,B,circle,1,0,,,,,,,,,,,,,,,,repeat,letter,lettRpt,j,0.8652,noRew,,,,,,0,48,0,48,0,1,,,,,,,,,,,,,,,,,
294982,2022-10-04_19h31.48.661,vts_reward_expectancy,2022.2.4,MacIntel,60.0024001,Chrome,1440,900,,,,,0,594,,,,,,,,,,,,,,,,,181,F,hexagon,1,0,,,,,,,,,,,,,,,,repeat,letter,lettRpt,j,2.068,noRew,,,,,,0,49,0,49,0,1,,,,,,,,,,,,,,,,,
294982,2022-10-04_19h31.48.661,vts_reward_expectancy,2022.2.4,MacIntel,60.0024001,Chrome,1440,900,,,,,0,594,,,,,,,,,,,,,,,,,160,Y,star,1,0,,,,,,,,,,,,,,,,repeat,letter,lettRpt,k,0.8861,noRew,,,,,,0,50,0,50,0,1,,,,,,,,,,,,,,,,,
294982,2022-10-04_19h31.48.661,vts_reward_expectancy,2022.2.4,MacIntel,60.0024001,Chrome,1440,900,,,,,0,594,,,,,,,,,,,,,,,,,167,D,circle,1,0,,,,,,,,,,,,,,,,switch,number,numSwt,f,1.8256,noRew,,,,,,0,51,0,51,0,1,,,,,,,,,,,,,,,,,
294982,2022-10-04_19h31.48.661,vts_reward_expectancy,2022.2.4,MacIntel,60.0024001,Chrome,1440,900,,,,,0,594,,,,,,,,,,,,,,,,,125,W,hexagon,1,0,,,,,,,,,,,,,,,,repeat,number,numRpt,d,0.7954,noRew,,,,,,0,52,0,52,0,1,,,,,,,,,,,,,,,,,
294982,2022-10-04_19h31.48.661,vts_reward_expectancy,2022.2.4,MacIntel,60.0024001,Chrome,1440,900,,,,,0,594,,,,,,,,,,,,,,,,,139,H,triangle,1,0,,,,,,,,,,,,,,,,repeat,number,numRpt,d,1.0507,noRew,,,,,,0,53,0,53,0,1,,,,,,,,,,,,,,,,,
294982,2022-10-04_19h31.48.661,vts_reward_expectancy,2022.2.4,MacIntel,60.0024001,Chrome,1440,900,,,,,0,594,,,,,,,,,,,,,,,,,174,D,triangle,1,0,,,,,,,,,,,,,,,,repeat,number,numRpt,f,1.0149,noRew,,,,,,0,54,0,54,0,1,,,,,,,,,,,,,,,,,
294982,2022-10-04_19h31.48.661,vts_reward_expectancy,2022.2.4,MacIntel,60.0024001,Chrome,1440,900,,,,,0,594,,,,,,,,,,,,,,,,,181,F,hexagon,1,0,,,,,,,,,,,,,,,,repeat,number,numRpt,f,1.5138,noRew,,,,,,0,55,0,55,0,1,,,,,,,,,,,,,,,,,
294982,2022-10-04_19h31.48.661,vts_reward_expectancy,2022.2.4,MacIntel,60.0024001,Chrome,1440,900,,,,,0,594,,,,,,,,,,,,,,,,,181,D,hexagon,1,0,,,,,,,,,,,,,,,,repeat,number,numRpt,f,0.9176,noRew,,,,,,0,56,0,56,0,1,,,,,,,,,,,,,,,,,
294982,2022-10-04_19h31.48.661,vts_reward_expectancy,2022.2.4,MacIntel,60.0024001,Chrome,1440,900,,,,,0,594,,,,,,,,,,,,,,,,,160,U,star,1,0,,,,,,,,,,,,,,,,repeat,number,numRpt,f,2.4446,noRew,,,,,,0,57,0,57,0,1,,,,,,,,,,,,,,,,,
294982,2022-10-04_19h31.48.661,vts_reward_expectancy,2022.2.4,MacIntel,60.0024001,Chrome,1440,900,,,,,0,594,,,,,,,,,,,,,,,,,167,W,hexagon,1,0,,,,,,,,,,,,,,,,repeat,number,numRpt,f,1.3341,noRew,,,,,,0,58,0,58,0,1,,,,,,,,,,,,,,,,,
294982,2022-10-04_19h31.48.661,vts_reward_expectancy,2022.2.4,MacIntel,60.0024001,Chrome,1440,900,,,,,0,594,,,,,,,,,,,,,,,,,146,Y,circle,1,0,,,,,,,,,,,,,,,,repeat,number,numRpt,d,1.7481,noRew,,,,,,0,59,0,59,0,1,,,,,,,,,,,,,,,,,
294982,2022-10-04_19h31.48.661,vts_reward_expectancy,2022.2.4,MacIntel,60.0024001,Chrome,1440,900,,,,,0,594,,,,,,,,,,,,,,,,,139,S,circle,1,0,,,,,,,,,,,,,,,,repeat,number,numRpt,d,1.8731,noRew,,,,,,0,60,0,60,0,1,,,,,,,,,,,,,,,,,
294982,2022-10-04_19h31.48.661,vts_reward_expectancy,2022.2.4,MacIntel,60.0024001,Chrome,1440,900,,,,,0,594,,,,,,,,,,,,,,,,,174,F,hexagon,1,0,,,,,,,,,,,,,,,,repeat,number,numRpt,f,1.1808,noRew,,,,,,0,61,0,61,0,1,,,,,,,,,,,,,,,,,
294982,2022-10-04_19h31.48.661,vts_reward_expectancy,2022.2.4,MacIntel,60.0024001,Chrome,1440,900,,,,,0,594,,,,,,,,,,,,,,,,,167,H,triangle,1,0,,,,,,,,,,,,,,,,repeat,number,numRpt,f,2.2644,noRew,,,,,,0,62,0,62,0,1,,,,,,,,,,,,,,,,,
294982,2022-10-04_19h31.48.661,vts_reward_expectancy,2022.2.4,MacIntel,60.0024001,Chrome,1440,900,,,,,0,594,,,,,,,,,,,,,,,,,132,W,hexagon,1,0,,,,,,,,,,,,,,,,repeat,number,numRpt,d,1.3942,noRew,,,,,,0,63,0,63,0,1,,,,,,,,,,,,,,,,,
294982,2022-10-04_19h31.48.661,vts_reward_expectancy,2022.2.4,MacIntel,60.0024001,Chrome,1440,900,,,,,,,,,,,,,,,,,,,,,,,,,,,,,,,,,,,,,,,,,,,,,,,,,,,,,,,,,,,,,,,,,,,,,,,,,,,,
294982,2022-10-04_19h31.48.661,vts_reward_expectancy,2022.2.4,MacIntel,60.0024001,Chrome,1440,900,,,,,10,604,,,,,,,,,,,,,,,,,132,Y,hexagon,1,0,,,,,,,,,,,,,,,,switch,letter,lettSwt,k,1.2276,Lo,,,,,,0,,,,,,space,10.315,low,0,0,0,0,1,,,,,,,,,
294982,2022-10-04_19h31.48.661,vts_reward_expectancy,2022.2.4,MacIntel,60.0024001,Chrome,1440,900,,,,,0,604,,,,,,,,,,,,,,,,,181,W,star,1,0,,,,,,,,,,,,,,,,repeat,letter,lettRpt,k,1.1447,Hi,,,,,,0,,,,,,,,low,1,0,1,0,1,,,,,,,,,
294982,2022-10-04_19h31.48.661,vts_reward_expectancy,2022.2.4,MacIntel,60.0024001,Chrome,1440,900,,,,,10,614,,,,,,,,,,,,,,,,,167,S,hexagon,1,0,,,,,,,,,,,,,,,,repeat,letter,lettRpt,k,2.1099,Lo,,,,,,0,,,,,,,,low,2,0,2,0,1,,,,,,,,,
294982,2022-10-04_19h31.48.661,vts_reward_expectancy,2022.2.4,MacIntel,60.0024001,Chrome,1440,900,,,,,0,614,,,,,,,,,,,,,,,,,174,D,star,1,0,,,,,,,,,,,,,,,,repeat,letter,lettRpt,j,1.3147,Hi,,,,,,0,,,,,,,,low,3,0,3,0,1,,,,,,,,,
294982,2022-10-04_19h31.48.661,vts_reward_expectancy,2022.2.4,MacIntel,60.0024001,Chrome,1440,900,,,,,1,615,,,,,,,,,,,,,,,,,139,B,hexagon,1,0,,,,,,,,,,,,,,,,repeat,letter,lettRpt,j,2.1373,Lo,,,,,,0,,,,,,,,low,4,0,4,0,1,,,,,,,,,
294982,2022-10-04_19h31.48.661,vts_reward_expectancy,2022.2.4,MacIntel,60.0024001,Chrome,1440,900,,,,,0,615,,,,,,,,,,,,,,,,,146,H,star,0,0,,,,,,,,,,,,,,,,repeat,letter,NA,k,1.1355,Lo,,,,,,0,,,,,,,,low,5,0,5,0,1,,,,,,,,,
294982,2022-10-04_19h31.48.661,vts_reward_expectancy,2022.2.4,MacIntel,60.0024001,Chrome,1440,900,,,,,0,615,,,,,,,,,,,,,,,,,125,F,star,-1,1,,,,,,,,,,,,,,,,switch,no_choice,NA,,,Lo,,,,,,0,,,,,,,,low,6,0,6,0,1,,,,,,,,,
294982,2022-10-04_19h31.48.661,vts_reward_expectancy,2022.2.4,MacIntel,60.0024001,Chrome,1440,900,,,,,1,616,,,,,,,,,,,,,,,,,160,U,hexagon,1,0,,,,,,,,,,,,,,,,switch,letter,lettSwt,k,1.2457,Lo,,,,,,0,,,,,,,,low,7,0,7,0,1,,,,,,,,,
294982,2022-10-04_19h31.48.661,vts_reward_expectancy,2022.2.4,MacIntel,60.0024001,Chrome,1440,900,,,,,1,617,,,,,,,,,,,,,,,,,132,Y,hexagon,1,0,,,,,,,,,,,,,,,,repeat,letter,lettRpt,k,1.9517,Lo,,,,,,0,,,,,,,,low,8,0,8,0,1,,,,,,,,,
294982,2022-10-04_19h31.48.661,vts_reward_expectancy,2022.2.4,MacIntel,60.0024001,Chrome,1440,900,,,,,0,617,,,,,,,,,,,,,,,,,181,W,star,1,0,,,,,,,,,,,,,,,,repeat,letter,lettRpt,k,1.4317,Hi,,,,,,0,,,,,,,,low,9,0,9,0,1,,,,,,,,,
294982,2022-10-04_19h31.48.661,vts_reward_expectancy,2022.2.4,MacIntel,60.0024001,Chrome,1440,900,,,,,0,617,,,,,,,,,,,,,,,,,167,S,star,1,0,,,,,,,,,,,,,,,,repeat,letter,lettRpt,k,2.7691,Hi,,,,,,0,,,,,,,,low,10,0,10,0,1,,,,,,,,,
294982,2022-10-04_19h31.48.661,vts_reward_expectancy,2022.2.4,MacIntel,60.0024001,Chrome,1440,900,,,,,1,618,,,,,,,,,,,,,,,,,174,D,hexagon,1,0,,,,,,,,,,,,,,,,repeat,letter,lettRpt,j,1.8569,Lo,,,,,,0,,,,,,,,low,11,0,11,0,1,,,,,,,,,
294982,2022-10-04_19h31.48.661,vts_reward_expectancy,2022.2.4,MacIntel,60.0024001,Chrome,1440,900,,,,,10,628,,,,,,,,,,,,,,,,,139,B,hexagon,1,0,,,,,,,,,,,,,,,,repeat,letter,lettRpt,j,0.9689,Lo,,,,,,0,,,,,,,,low,12,0,12,0,1,,,,,,,,,
294982,2022-10-04_19h31.48.661,vts_reward_expectancy,2022.2.4,MacIntel,60.0024001,Chrome,1440,900,,,,,10,638,,,,,,,,,,,,,,,,,146,H,star,1,0,,,,,,,,,,,,,,,,switch,number,numSwt,d,0.9449,Hi,,,,,,0,,,,,,,,low,13,0,13,0,1,,,,,,,,,
294982,2022-10-04_19h31.48.661,vts_reward_expectancy,2022.2.4,MacIntel,60.0024001,Chrome,1440,900,,,,,10,648,,,,,,,,,,,,,,,,,125,F,star,1,0,,,,,,,,,,,,,,,,repeat,number,numRpt,d,0.7186,Hi,,,,,,0,,,,,,,,low,14,0,14,0,1,,,,,,,,,
294982,2022-10-04_19h31.48.661,vts_reward_expectancy,2022.2.4,MacIntel,60.0024001,Chrome,1440,900,,,,,1,649,,,,,,,,,,,,,,,,,160,U,hexagon,1,0,,,,,,,,,,,,,,,,switch,letter,lettSwt,k,0.8439,Lo,,,,,,0,,,,,,,,low,15,0,15,0,1,,,,,,,,,
294982,2022-10-04_19h31.48.661,vts_reward_expectancy,2022.2.4,MacIntel,60.0024001,Chrome,1440,900,,,,,0,649,,,,,,,,,,,,,,,,,167,S,star,1,0,,,,,,,,,,,,,,,,switch,number,numSwt,f,2.1641,Hi,,,,,,0,,,,,,,,low,16,0,16,0,1,,,,,,,,,
294982,2022-10-04_19h31.48.661,vts_reward_expectancy,2022.2.4,MacIntel,60.0024001,Chrome,1440,900,,,,,1,650,,,,,,,,,,,,,,,,,146,B,hexagon,1,0,,,,,,,,,,,,,,,,switch,letter,lettSwt,j,1.5605,Lo,,,,,,0,,,,,,,,low,17,0,17,0,1,,,,,,,,,
294982,2022-10-04_19h31.48.661,vts_reward_expectancy,2022.2.4,MacIntel,60.0024001,Chrome,1440,900,,,,,1,651,,,,,,,,,,,,,,,,,160,D,star,1,0,,,,,,,,,,,,,,,,switch,number,numSwt,f,0.8951,Hi,,,,,,0,,,,,,,,low,18,0,18,0,1,,,,,,,,,
294982,2022-10-04_19h31.48.661,vts_reward_expectancy,2022.2.4,MacIntel,60.0024001,Chrome,1440,900,,,,,10,661,,,,,,,,,,,,,,,,,125,H,hexagon,1,0,,,,,,,,,,,,,,,,switch,letter,lettSwt,j,2.1969,Lo,,,,,,0,,,,,,,,low,19,0,19,0,1,,,,,,,,,
294982,2022-10-04_19h31.48.661,vts_reward_expectancy,2022.2.4,MacIntel,60.0024001,Chrome,1440,900,,,,,10,671,,,,,,,,,,,,,,,,,181,F,hexagon,1,0,,,,,,,,,,,,,,,,repeat,letter,lettRpt,j,0.9772,Lo,,,,,,0,,,,,,,,low,20,0,20,0,1,,,,,,,,,
294982,2022-10-04_19h31.48.661,vts_reward_expectancy,2022.2.4,MacIntel,60.0024001,Chrome,1440,900,,,,,0,671,,,,,,,,,,,,,,,,,139,W,star,1,0,,,,,,,,,,,,,,,,switch,number,numSwt,d,0.9976,Hi,,,,,,0,,,,,,,,low,21,0,21,0,1,,,,,,,,,
294982,2022-10-04_19h31.48.661,vts_reward_expectancy,2022.2.4,MacIntel,60.0024001,Chrome,1440,900,,,,,10,681,,,,,,,,,,,,,,,,,174,Y,star,1,0,,,,,,,,,,,,,,,,repeat,number,numRpt,f,0.7601,Hi,,,,,,0,,,,,,,,low,22,0,22,0,1,,,,,,,,,
294982,2022-10-04_19h31.48.661,vts_reward_expectancy,2022.2.4,MacIntel,60.0024001,Chrome,1440,900,,,,,1,682,,,,,,,,,,,,,,,,,132,U,hexagon,1,0,,,,,,,,,,,,,,,,switch,letter,lettSwt,k,1.9602,Lo,,,,,,0,,,,,,,,low,23,0,23,0,1,,,,,,,,,
294982,2022-10-04_19h31.48.661,vts_reward_expectancy,2022.2.4,MacIntel,60.0024001,Chrome,1440,900,,,,,1,683,,,,,,,,,,,,,,,,,132,H,star,1,0,,,,,,,,,,,,,,,,switch,number,numSwt,d,0.8802,Hi,,,,,,0,,,,,,,,low,24,0,24,0,1,,,,,,,,,
294982,2022-10-04_19h31.48.661,vts_reward_expectancy,2022.2.4,MacIntel,60.0024001,Chrome,1440,900,,,,,1,684,,,,,,,,,,,,,,,,,139,F,hexagon,1,0,,,,,,,,,,,,,,,,switch,letter,lettSwt,j,0.8633,Lo,,,,,,0,,,,,,,,low,25,0,25,0,1,,,,,,,,,
294982,2022-10-04_19h31.48.661,vts_reward_expectancy,2022.2.4,MacIntel,60.0024001,Chrome,1440,900,,,,,1,685,,,,,,,,,,,,,,,,,160,U,hexagon,1,0,,,,,,,,,,,,,,,,repeat,letter,lettRpt,k,1.4806,Lo,,,,,,0,,,,,,,,low,26,0,26,0,1,,,,,,,,,
294982,2022-10-04_19h31.48.661,vts_reward_expectancy,2022.2.4,MacIntel,60.0024001,Chrome,1440,900,,,,,10,695,,,,,,,,,,,,,,,,,125,S,star,1,0,,,,,,,,,,,,,,,,repeat,letter,lettRpt,k,0.7985,Hi,,,,,,0,,,,,,,,low,27,0,27,0,1,,,,,,,,,
294982,2022-10-04_19h31.48.661,vts_reward_expectancy,2022.2.4,MacIntel,60.0024001,Chrome,1440,900,,,,,1,696,,,,,,,,,,,,,,,,,181,B,hexagon,1,0,,,,,,,,,,,,,,,,switch,number,numSwt,f,0.8305,Lo,,,,,,0,,,,,,,,low,28,0,28,0,1,,,,,,,,,
294982,2022-10-04_19h31.48.661,vts_reward_expectancy,2022.2.4,MacIntel,60.0024001,Chrome,1440,900,,,,,10,706,,,,,,,,,,,,,,,,,146,D,star,1,0,,,,,,,,,,,,,,,,switch,letter,lettSwt,j,0.8515,Hi,,,,,,0,,,,,,,,low,29,0,29,0,1,,,,,,,,,
294982,2022-10-04_19h31.48.661,vts_reward_expectancy,2022.2.4,MacIntel,60.0024001,Chrome,1440,900,,,,,1,707,,,,,,,,,,,,,,,,,167,Y,hexagon,1,0,,,,,,,,,,,,,,,,repeat,letter,lettRpt,k,1.0299,Lo,,,,,,0,,,,,,,,low,30,0,30,0,1,,,,,,,,,
294982,2022-10-04_19h31.48.661,vts_reward_expectancy,2022.2.4,MacIntel,60.0024001,Chrome,1440,900,,,,,0,707,,,,,,,,,,,,,,,,,174,W,star,1,0,,,,,,,,,,,,,,,,repeat,letter,lettRpt,k,1.0645,Hi,,,,,,0,,,,,,,,low,31,0,31,0,1,,,,,,,,,
294982,2022-10-04_19h31.48.661,vts_reward_expectancy,2022.2.4,MacIntel,60.0024001,Chrome,1440,900,,,,,1,708,,,,,,,,,,,,,,,,,167,H,circle,1,0,,,,,,,,,,,,,,,,repeat,letter,lettRpt,j,1.7903,Lo,,,,,,1,,,,,,space,1.5218,high,0,0,0,0,1,,,,,,,,,
294982,2022-10-04_19h31.48.661,vts_reward_expectancy,2022.2.4,MacIntel,60.0024001,Chrome,1440,900,,,,,0,708,,,,,,,,,,,,,,,,,181,Y,triangle,1,0,,,,,,,,,,,,,,,,repeat,letter,lettRpt,k,1.2854,Hi,,,,,,1,,,,,,,,high,1,0,1,0,1,,,,,,,,,
294982,2022-10-04_19h31.48.661,vts_reward_expectancy,2022.2.4,MacIntel,60.0024001,Chrome,1440,900,,,,,1,709,,,,,,,,,,,,,,,,,160,W,circle,1,0,,,,,,,,,,,,,,,,switch,number,numSwt,f,1.2134,Lo,,,,,,1,,,,,,,,high,2,0,2,0,1,,,,,,,,,
294982,2022-10-04_19h31.48.661,vts_reward_expectancy,2022.2.4,MacIntel,60.0024001,Chrome,1440,900,,,,,0,709,,,,,,,,,,,,,,,,,125,D,triangle,1,0,,,,,,,,,,,,,,,,repeat,number,numRpt,d,1.4013,Hi,,,,,,1,,,,,,,,high,3,0,3,0,1,,,,,,,,,
294982,2022-10-04_19h31.48.661,vts_reward_expectancy,2022.2.4,MacIntel,60.0024001,Chrome,1440,900,,,,,0,709,,,,,,,,,,,,,,,,,146,S,circle,0,0,,,,,,,,,,,,,,,,switch,letter,NA,j,1.5282,Hi,,,,,,1,,,,,,,,high,4,0,4,0,1,,,,,,,,,
294982,2022-10-04_19h31.48.661,vts_reward_expectancy,2022.2.4,MacIntel,60.0024001,Chrome,1440,900,,,,,10,719,,,,,,,,,,,,,,,,,139,B,triangle,1,1,,,,,,,,,,,,,,,,repeat,letter,lettRpt,j,0.8514,Hi,,,,,,1,,,,,,,,high,5,0,5,0,1,,,,,,,,,
294982,2022-10-04_19h31.48.661,vts_reward_expectancy,2022.2.4,MacIntel,60.0024001,Chrome,1440,900,,,,,10,729,,,,,,,,,,,,,,,,,132,U,circle,1,0,,,,,,,,,,,,,,,,repeat,letter,lettRpt,k,1.7831,Lo,,,,,,1,,,,,,,,high,6,0,6,0,1,,,,,,,,,
294982,2022-10-04_19h31.48.661,vts_reward_expectancy,2022.2.4,MacIntel,60.0024001,Chrome,1440,900,,,,,0,729,,,,,,,,,,,,,,,,,174,F,triangle,1,0,,,,,,,,,,,,,,,,repeat,letter,lettRpt,j,1.4134,Hi,,,,,,1,,,,,,,,high,7,0,7,0,1,,,,,,,,,
294982,2022-10-04_19h31.48.661,vts_reward_expectancy,2022.2.4,MacIntel,60.0024001,Chrome,1440,900,,,,,0,729,,,,,,,,,,,,,,,,,167,H,circle,0,0,,,,,,,,,,,,,,,,repeat,letter,NA,k,1.7862,Hi,,,,,,1,,,,,,,,high,8,0,8,0,1,,,,,,,,,
294982,2022-10-04_19h31.48.661,vts_reward_expectancy,2022.2.4,MacIntel,60.0024001,Chrome,1440,900,,,,,10,739,,,,,,,,,,,,,,,,,181,Y,triangle,1,1,,,,,,,,,,,,,,,,repeat,letter,lettRpt,k,0.978,Hi,,,,,,1,,,,,,,,high,9,0,9,0,1,,,,,,,,,
294982,2022-10-04_19h31.48.661,vts_reward_expectancy,2022.2.4,MacIntel,60.0024001,Chrome,1440,900,,,,,1,740,,,,,,,,,,,,,,,,,160,W,circle,1,0,,,,,,,,,,,,,,,,repeat,letter,lettRpt,k,1.4443,Lo,,,,,,1,,,,,,,,high,10,0,10,0,1,,,,,,,,,
294982,2022-10-04_19h31.48.661,vts_reward_expectancy,2022.2.4,MacIntel,60.0024001,Chrome,1440,900,,,,,0,740,,,,,,,,,,,,,,,,,125,D,triangle,1,0,,,,,,,,,,,,,,,,repeat,letter,lettRpt,j,2.0595,Hi,,,,,,1,,,,,,,,high,11,0,11,0,1,,,,,,,,,
294982,2022-10-04_19h31.48.661,vts_reward_expectancy,2022.2.4,MacIntel,60.0024001,Chrome,1440,900,,,,,1,741,,,,,,,,,,,,,,,,,146,S,circle,1,0,,,,,,,,,,,,,,,,switch,number,numSwt,d,2.3311,Lo,,,,,,1,,,,,,,,high,12,0,12,0,1,,,,,,,,,
294982,2022-10-04_19h31.48.661,vts_reward_expectancy,2022.2.4,MacIntel,60.0024001,Chrome,1440,900,,,,,0,741,,,,,,,,,,,,,,,,,139,B,triangle,1,0,,,,,,,,,,,,,,,,repeat,number,numRpt,d,2.0309,Hi,,,,,,1,,,,,,,,high,13,0,13,0,1,,,,,,,,,
294982,2022-10-04_19h31.48.661,vts_reward_expectancy,2022.2.4,MacIntel,60.0024001,Chrome,1440,900,,,,,10,751,,,,,,,,,,,,,,,,,132,U,triangle,1,0,,,,,,,,,,,,,,,,switch,letter,lettSwt,k,0.948,Hi,,,,,,1,,,,,,,,high,14,0,14,0,1,,,,,,,,,
294982,2022-10-04_19h31.48.661,vts_reward_expectancy,2022.2.4,MacIntel,60.0024001,Chrome,1440,900,,,,,1,752,,,,,,,,,,,,,,,,,174,F,circle,1,0,,,,,,,,,,,,,,,,repeat,letter,lettRpt,j,1.7599,Lo,,,,,,1,,,,,,,,high,15,0,15,0,1,,,,,,,,,
294982,2022-10-04_19h31.48.661,vts_reward_expectancy,2022.2.4,MacIntel,60.0024001,Chrome,1440,900,,,,,1,753,,,,,,,,,,,,,,,,,146,D,circle,1,0,,,,,,,,,,,,,,,,repeat,letter,lettRpt,j,0.799,Lo,,,,,,1,,,,,,,,high,16,0,16,0,1,,,,,,,,,
294982,2022-10-04_19h31.48.661,vts_reward_expectancy,2022.2.4,MacIntel,60.0024001,Chrome,1440,900,,,,,0,753,,,,,,,,,,,,,,,,,125,H,triangle,1,0,,,,,,,,,,,,,,,,repeat,letter,lettRpt,j,2.1813,Hi,,,,,,1,,,,,,,,high,17,0,17,0,1,,,,,,,,,
294982,2022-10-04_19h31.48.661,vts_reward_expectancy,2022.2.4,MacIntel,60.0024001,Chrome,1440,900,,,,,0,753,,,,,,,,,,,,,,,,,167,B,triangle,1,0,,,,,,,,,,,,,,,,switch,number,numSwt,f,1.8749,Hi,,,,,,1,,,,,,,,high,18,0,18,0,1,,,,,,,,,
294982,2022-10-04_19h31.48.661,vts_reward_expectancy,2022.2.4,MacIntel,60.0024001,Chrome,1440,900,,,,,10,763,,,,,,,,,,,,,,,,,139,Y,circle,1,0,,,,,,,,,,,,,,,,repeat,number,numRpt,d,0.827,Lo,,,,,,1,,,,,,,,high,19,0,19,0,1,,,,,,,,,
294982,2022-10-04_19h31.48.661,vts_reward_expectancy,2022.2.4,MacIntel,60.0024001,Chrome,1440,900,,,,,1,764,,,,,,,,,,,,,,,,,132,U,circle,1,0,,,,,,,,,,,,,,,,repeat,number,numRpt,d,0.823,Lo,,,,,,1,,,,,,,,high,20,0,20,0,1,,,,,,,,,
294982,2022-10-04_19h31.48.661,vts_reward_expectancy,2022.2.4,MacIntel,60.0024001,Chrome,1440,900,,,,,0,764,,,,,,,,,,,,,,,,,160,F,triangle,1,0,,,,,,,,,,,,,,,,repeat,number,numRpt,f,1.9526,Hi,,,,,,1,,,,,,,,high,21,0,21,0,1,,,,,,,,,
294982,2022-10-04_19h31.48.661,vts_reward_expectancy,2022.2.4,MacIntel,60.0024001,Chrome,1440,900,,,,,1,765,,,,,,,,,,,,,,,,,181,S,circle,1,0,,,,,,,,,,,,,,,,switch,letter,lettSwt,k,2.4441,Lo,,,,,,1,,,,,,,,high,22,0,22,0,1,,,,,,,,,
294982,2022-10-04_19h31.48.661,vts_reward_expectancy,2022.2.4,MacIntel,60.0024001,Chrome,1440,900,,,,,10,775,,,,,,,,,,,,,,,,,174,W,triangle,1,0,,,,,,,,,,,,,,,,repeat,letter,lettRpt,k,0.7681,Hi,,,,,,1,,,,,,,,high,23,0,23,0,1,,,,,,,,,
294982,2022-10-04_19h31.48.661,vts_reward_expectancy,2022.2.4,MacIntel,60.0024001,Chrome,1440,900,,,,,10,785,,,,,,,,,,,,,,,,,160,F,triangle,1,0,,,,,,,,,,,,,,,,repeat,letter,lettRpt,j,0.9907,Hi,,,,,,1,,,,,,,,high,24,0,24,0,1,,,,,,,,,
294982,2022-10-04_19h31.48.661,vts_reward_expectancy,2022.2.4,MacIntel,60.0024001,Chrome,1440,900,,,,,1,786,,,,,,,,,,,,,,,,,181,Y,circle,1,0,,,,,,,,,,,,,,,,repeat,letter,lettRpt,k,0.9408,Lo,,,,,,1,,,,,,,,high,25,0,25,0,1,,,,,,,,,
294982,2022-10-04_19h31.48.661,vts_reward_expectancy,2022.2.4,MacIntel,60.0024001,Chrome,1440,900,,,,,1,787,,,,,,,,,,,,,,,,,174,B,circle,1,0,,,,,,,,,,,,,,,,repeat,letter,lettRpt,j,0.7788,Lo,,,,,,1,,,,,,,,high,26,0,26,0,1,,,,,,,,,
294982,2022-10-04_19h31.48.661,vts_reward_expectancy,2022.2.4,MacIntel,60.0024001,Chrome,1440,900,,,,,0,787,,,,,,,,,,,,,,,,,139,H,triangle,0,0,,,,,,,,,,,,,,,,repeat,letter,NA,k,2.276,Lo,,,,,,1,,,,,,,,high,27,0,27,0,1,,,,,,,,,
294982,2022-10-04_19h31.48.661,vts_reward_expectancy,2022.2.4,MacIntel,60.0024001,Chrome,1440,900,,,,,10,797,,,,,,,,,,,,,,,,,125,S,circle,1,1,,,,,,,,,,,,,,,,repeat,letter,lettRpt,k,0.777,Lo,,,,,,1,,,,,,,,high,28,0,28,0,1,,,,,,,,,
294982,2022-10-04_19h31.48.661,vts_reward_expectancy,2022.2.4,MacIntel,60.0024001,Chrome,1440,900,,,,,10,807,,,,,,,,,,,,,,,,,167,W,triangle,1,0,,,,,,,,,,,,,,,,repeat,letter,lettRpt,k,0.643,Hi,,,,,,1,,,,,,,,high,29,0,29,0,1,,,,,,,,,
294982,2022-10-04_19h31.48.661,vts_reward_expectancy,2022.2.4,MacIntel,60.0024001,Chrome,1440,900,,,,,1,808,,,,,,,,,,,,,,,,,146,U,circle,1,0,,,,,,,,,,,,,,,,repeat,letter,lettRpt,k,1.2447,Lo,,,,,,1,,,,,,,,high,30,0,30,0,1,,,,,,,,,
294982,2022-10-04_19h31.48.661,vts_reward_expectancy,2022.2.4,MacIntel,60.0024001,Chrome,1440,900,,,,,10,818,,,,,,,,,,,,,,,,,132,D,triangle,1,0,,,,,,,,,,,,,,,,repeat,letter,lettRpt,j,1.0622,Hi,,,,,,1,,,,,,,,high,31,0,31,0,1,,,,,,,,,
294982,2022-10-04_19h31.48.661,vts_reward_expectancy,2022.2.4,MacIntel,60.0024001,Chrome,1440,900,,,,,10,828,,,,,,,,,,,,,,,,,139,F,star,1,0,,,,,,,,,,,,,,,,switch,number,numSwt,d,0.9085,Hi,,,,,,2,,,,,,space,2.7064,low,0,0,0,0,1,,,,,,,,,
294982,2022-10-04_19h31.48.661,vts_reward_expectancy,2022.2.4,MacIntel,60.0024001,Chrome,1440,900,,,,,1,829,,,,,,,,,,,,,,,,,146,Y,hexagon,1,0,,,,,,,,,,,,,,,,repeat,number,numRpt,d,1.3979,Lo,,,,,,2,,,,,,,,low,1,0,1,0,1,,,,,,,,,
294982,2022-10-04_19h31.48.661,vts_reward_expectancy,2022.2.4,MacIntel,60.0024001,Chrome,1440,900,,,,,10,839,,,,,,,,,,,,,,,,,174,B,star,1,0,,,,,,,,,,,,,,,,repeat,number,numRpt,f,1.008,Hi,,,,,,2,,,,,,,,low,2,0,2,0,1,,,,,,,,,
294982,2022-10-04_19h31.48.661,vts_reward_expectancy,2022.2.4,MacIntel,60.0024001,Chrome,1440,900,,,,,10,849,,,,,,,,,,,,,,,,,125,S,hexagon,1,0,,,,,,,,,,,,,,,,repeat,number,numRpt,d,0.9522,Lo,,,,,,2,,,,,,,,low,3,0,3,0,1,,,,,,,,,
294982,2022-10-04_19h31.48.661,vts_reward_expectancy,2022.2.4,MacIntel,60.0024001,Chrome,1440,900,,,,,10,859,,,,,,,,,,,,,,,,,132,H,star,1,0,,,,,,,,,,,,,,,,repeat,number,numRpt,d,0.9781,Hi,,,,,,2,,,,,,,,low,4,0,4,0,1,,,,,,,,,
294982,2022-10-04_19h31.48.661,vts_reward_expectancy,2022.2.4,MacIntel,60.0024001,Chrome,1440,900,,,,,10,869,,,,,,,,,,,,,,,,,167,W,hexagon,1,0,,,,,,,,,,,,,,,,repeat,number,numRpt,f,1.0622,Lo,,,,,,2,,,,,,,,low,5,0,5,0,1,,,,,,,,,
294982,2022-10-04_19h31.48.661,vts_reward_expectancy,2022.2.4,MacIntel,60.0024001,Chrome,1440,900,,,,,1,870,,,,,,,,,,,,,,,,,160,D,hexagon,1,0,,,,,,,,,,,,,,,,repeat,number,numRpt,f,1.1379,Lo,,,,,,2,,,,,,,,low,6,0,6,0,1,,,,,,,,,
294982,2022-10-04_19h31.48.661,vts_reward_expectancy,2022.2.4,MacIntel,60.0024001,Chrome,1440,900,,,,,10,880,,,,,,,,,,,,,,,,,181,U,star,1,0,,,,,,,,,,,,,,,,repeat,number,numRpt,f,0.8285,Hi,,,,,,2,,,,,,,,low,7,0,7,0,1,,,,,,,,,
294982,2022-10-04_19h31.48.661,vts_reward_expectancy,2022.2.4,MacIntel,60.0024001,Chrome,1440,900,,,,,0,880,,,,,,,,,,,,,,,,,139,F,star,1,0,,,,,,,,,,,,,,,,repeat,number,numRpt,d,1.1429,Hi,,,,,,2,,,,,,,,low,8,0,8,0,1,,,,,,,,,
294982,2022-10-04_19h31.48.661,vts_reward_expectancy,2022.2.4,MacIntel,60.0024001,Chrome,1440,900,,,,,10,890,,,,,,,,,,,,,,,,,146,Y,hexagon,1,0,,,,,,,,,,,,,,,,repeat,number,numRpt,d,1.0925,Lo,,,,,,2,,,,,,,,low,9,0,9,0,1,,,,,,,,,
294982,2022-10-04_19h31.48.661,vts_reward_expectancy,2022.2.4,MacIntel,60.0024001,Chrome,1440,900,,,,,1,891,,,,,,,,,,,,,,,,,174,B,hexagon,1,0,,,,,,,,,,,,,,,,repeat,number,numRpt,f,1.029,Lo,,,,,,2,,,,,,,,low,10,0,10,0,1,,,,,,,,,
294982,2022-10-04_19h31.48.661,vts_reward_expectancy,2022.2.4,MacIntel,60.0024001,Chrome,1440,900,,,,,0,891,,,,,,,,,,,,,,,,,125,S,star,1,0,,,,,,,,,,,,,,,,switch,letter,lettSwt,k,1.8722,Hi,,,,,,2,,,,,,,,low,11,0,11,0,1,,,,,,,,,
294982,2022-10-04_19h31.48.661,vts_reward_expectancy,2022.2.4,MacIntel,60.0024001,Chrome,1440,900,,,,,0,891,,,,,,,,,,,,,,,,,132,H,star,1,0,,,,,,,,,,,,,,,,repeat,letter,lettRpt,j,1.6473,Hi,,,,,,2,,,,,,,,low,12,0,12,0,1,,,,,,,,,
294982,2022-10-04_19h31.48.661,vts_reward_expectancy,2022.2.4,MacIntel,60.0024001,Chrome,1440,900,,,,,10,901,,,,,,,,,,,,,,,,,167,W,hexagon,1,0,,,,,,,,,,,,,,,,repeat,letter,lettRpt,k,0.7543,Lo,,,,,,2,,,,,,,,low,13,0,13,0,1,,,,,,,,,
294982,2022-10-04_19h31.48.661,vts_reward_expectancy,2022.2.4,MacIntel,60.0024001,Chrome,1440,900,,,,,10,911,,,,,,,,,,,,,,,,,160,D,hexagon,1,0,,,,,,,,,,,,,,,,repeat,letter,lettRpt,j,0.5845,Lo,,,,,,2,,,,,,,,low,14,0,14,0,1,,,,,,,,,
294982,2022-10-04_19h31.48.661,vts_reward_expectancy,2022.2.4,MacIntel,60.0024001,Chrome,1440,900,,,,,1,912,,,,,,,,,,,,,,,,,181,U,star,1,0,,,,,,,,,,,,,,,,repeat,letter,lettRpt,k,0.6609,Hi,,,,,,2,,,,,,,,low,15,0,15,0,1,,,,,,,,,
294982,2022-10-04_19h31.48.661,vts_reward_expectancy,2022.2.4,MacIntel,60.0024001,Chrome,1440,900,,,,,1,913,,,,,,,,,,,,,,,,,139,S,hexagon,1,0,,,,,,,,,,,,,,,,repeat,letter,lettRpt,k,0.6418,Lo,,,,,,2,,,,,,,,low,16,0,16,0,1,,,,,,,,,
294982,2022-10-04_19h31.48.661,vts_reward_expectancy,2022.2.4,MacIntel,60.0024001,Chrome,1440,900,,,,,10,923,,,,,,,,,,,,,,,,,181,D,star,1,0,,,,,,,,,,,,,,,,repeat,letter,lettRpt,j,0.6652,Hi,,,,,,2,,,,,,,,low,17,0,17,0,1,,,,,,,,,
294982,2022-10-04_19h31.48.661,vts_reward_expectancy,2022.2.4,MacIntel,60.0024001,Chrome,1440,900,,,,,0,923,,,,,,,,,,,,,,,,,146,H,star,0,0,,,,,,,,,,,,,,,,repeat,letter,NA,k,0.6963,Hi,,,,,,2,,,,,,,,low,18,0,18,0,1,,,,,,,,,
294982,2022-10-04_19h31.48.661,vts_reward_expectancy,2022.2.4,MacIntel,60.0024001,Chrome,1440,900,,,,,1,924,,,,,,,,,,,,,,,,,174,W,hexagon,1,1,,,,,,,,,,,,,,,,repeat,letter,lettRpt,k,0.5795,Lo,,,,,,2,,,,,,,,low,19,0,19,0,1,,,,,,,,,
294982,2022-10-04_19h31.48.661,vts_reward_expectancy,2022.2.4,MacIntel,60.0024001,Chrome,1440,900,,,,,10,934,,,,,,,,,,,,,,,,,132,B,star,1,0,,,,,,,,,,,,,,,,repeat,letter,lettRpt,j,0.7814,Hi,,,,,,2,,,,,,,,low,20,0,20,0,1,,,,,,,,,
294982,2022-10-04_19h31.48.661,vts_reward_expectancy,2022.2.4,MacIntel,60.0024001,Chrome,1440,900,,,,,1,935,,,,,,,,,,,,,,,,,167,Y,hexagon,1,0,,,,,,,,,,,,,,,,repeat,letter,lettRpt,k,0.7017,Lo,,,,,,2,,,,,,,,low,21,0,21,0,1,,,,,,,,,
294982,2022-10-04_19h31.48.661,vts_reward_expectancy,2022.2.4,MacIntel,60.0024001,Chrome,1440,900,,,,,1,936,,,,,,,,,,,,,,,,,125,F,hexagon,1,0,,,,,,,,,,,,,,,,repeat,letter,lettRpt,j,0.3611,Lo,,,,,,2,,,,,,,,low,22,0,22,0,1,,,,,,,,,
294982,2022-10-04_19h31.48.661,vts_reward_expectancy,2022.2.4,MacIntel,60.0024001,Chrome,1440,900,,,,,1,937,,,,,,,,,,,,,,,,,160,U,star,1,0,,,,,,,,,,,,,,,,repeat,letter,lettRpt,k,0.6267,Hi,,,,,,2,,,,,,,,low,23,0,23,0,1,,,,,,,,,
294982,2022-10-04_19h31.48.661,vts_reward_expectancy,2022.2.4,MacIntel,60.0024001,Chrome,1440,900,,,,,0,937,,,,,,,,,,,,,,,,,146,U,hexagon,0,0,,,,,,,,,,,,,,,,repeat,letter,NA,j,0.793,Hi,,,,,,2,,,,,,,,low,24,0,24,0,1,,,,,,,,,
294982,2022-10-04_19h31.48.661,vts_reward_expectancy,2022.2.4,MacIntel,60.0024001,Chrome,1440,900,,,,,10,947,,,,,,,,,,,,,,,,,139,Y,star,1,1,,,,,,,,,,,,,,,,repeat,letter,lettRpt,k,0.8092,Hi,,,,,,2,,,,,,,,low,25,0,25,0,1,,,,,,,,,
294982,2022-10-04_19h31.48.661,vts_reward_expectancy,2022.2.4,MacIntel,60.0024001,Chrome,1440,900,,,,,10,957,,,,,,,,,,,,,,,,,174,D,star,1,0,,,,,,,,,,,,,,,,repeat,letter,lettRpt,j,0.6821,Hi,,,,,,2,,,,,,,,low,26,0,26,0,1,,,,,,,,,
294982,2022-10-04_19h31.48.661,vts_reward_expectancy,2022.2.4,MacIntel,60.0024001,Chrome,1440,900,,,,,10,967,,,,,,,,,,,,,,,,,167,H,hexagon,1,0,,,,,,,,,,,,,,,,repeat,letter,lettRpt,j,0.9164,Lo,,,,,,2,,,,,,,,low,27,0,27,0,1,,,,,,,,,
294982,2022-10-04_19h31.48.661,vts_reward_expectancy,2022.2.4,MacIntel,60.0024001,Chrome,1440,900,,,,,10,977,,,,,,,,,,,,,,,,,132,B,hexagon,1,0,,,,,,,,,,,,,,,,repeat,letter,lettRpt,j,0.6355,Lo,,,,,,2,,,,,,,,low,28,0,28,0,1,,,,,,,,,
294982,2022-10-04_19h31.48.661,vts_reward_expectancy,2022.2.4,MacIntel,60.0024001,Chrome,1440,900,,,,,1,978,,,,,,,,,,,,,,,,,181,F,star,1,0,,,,,,,,,,,,,,,,repeat,letter,lettRpt,j,0.6273,Hi,,,,,,2,,,,,,,,low,29,0,29,0,1,,,,,,,,,
294982,2022-10-04_19h31.48.661,vts_reward_expectancy,2022.2.4,MacIntel,60.0024001,Chrome,1440,900,,,,,1,979,,,,,,,,,,,,,,,,,125,S,hexagon,1,0,,,,,,,,,,,,,,,,repeat,letter,lettRpt,k,0.772,Lo,,,,,,2,,,,,,,,low,30,0,30,0,1,,,,,,,,,
294982,2022-10-04_19h31.48.661,vts_reward_expectancy,2022.2.4,MacIntel,60.0024001,Chrome,1440,900,,,,,10,989,,,,,,,,,,,,,,,,,160,W,star,1,0,,,,,,,,,,,,,,,,repeat,letter,lettRpt,k,0.5882,Hi,,,,,,2,,,,,,,,low,31,0,31,0,1,,,,,,,,,
294982,2022-10-04_19h31.48.661,vts_reward_expectancy,2022.2.4,MacIntel,60.0024001,Chrome,1440,900,,,,,1,990,,,,,,,,,,,,,,,,,146,W,circle,1,0,,,,,,,,,,,,,,,,repeat,letter,lettRpt,k,0.7174,Lo,,,,,,3,,,,,,space,1.031,high,0,0,0,0,1,,,,,,,,,
294982,2022-10-04_19h31.48.661,vts_reward_expectancy,2022.2.4,MacIntel,60.0024001,Chrome,1440,900,,,,,0,990,,,,,,,,,,,,,,,,,139,D,triangle,1,0,,,,,,,,,,,,,,,,repeat,letter,lettRpt,j,0.7102,Hi,,,,,,3,,,,,,,,high,1,0,1,0,1,,,,,,,,,
294982,2022-10-04_19h31.48.661,vts_reward_expectancy,2022.2.4,MacIntel,60.0024001,Chrome,1440,900,,,,,1,991,,,,,,,,,,,,,,,,,174,S,circle,1,0,,,,,,,,,,,,,,,,repeat,letter,lettRpt,k,0.6639,Lo,,,,,,3,,,,,,,,high,2,0,2,0,1,,,,,,,,,
294982,2022-10-04_19h31.48.661,vts_reward_expectancy,2022.2.4,MacIntel,60.0024001,Chrome,1440,900,,,,,10,1001,,,,,,,,,,,,,,,,,181,U,triangle,1,0,,,,,,,,,,,,,,,,repeat,letter,lettRpt,k,0.5617,Hi,,,,,,3,,,,,,,,high,3,0,3,0,1,,,,,,,,,
294982,2022-10-04_19h31.48.661,vts_reward_expectancy,2022.2.4,MacIntel,60.0024001,Chrome,1440,900,,,,,1,1002,,,,,,,,,,,,,,,,,132,B,circle,1,0,,,,,,,,,,,,,,,,repeat,letter,lettRpt,j,0.5913,Lo,,,,,,3,,,,,,,,high,4,0,4,0,1,,,,,,,,,
294982,2022-10-04_19h31.48.661,vts_reward_expectancy,2022.2.4,MacIntel,60.0024001,Chrome,1440,900,,,,,1,1003,,,,,,,,,,,,,,,,,125,F,triangle,1,0,,,,,,,,,,,,,,,,repeat,letter,lettRpt,j,0.6271,Hi,,,,,,3,,,,,,,,high,5,0,5,0,1,,,,,,,,,
294982,2022-10-04_19h31.48.661,vts_reward_expectancy,2022.2.4,MacIntel,60.0024001,Chrome,1440,900,,,,,1,1004,,,,,,,,,,,,,,,,,160,Y,circle,1,0,,,,,,,,,,,,,,,,repeat,letter,lettRpt,k,0.6353,Lo,,,,,,3,,,,,,,,high,6,0,6,0,1,,,,,,,,,
294982,2022-10-04_19h31.48.661,vts_reward_expectancy,2022.2.4,MacIntel,60.0024001,Chrome,1440,900,,,,,0,1004,,,,,,,,,,,,,,,,,167,H,triangle,1,0,,,,,,,,,,,,,,,,repeat,letter,lettRpt,j,0.7991,Hi,,,,,,3,,,,,,,,high,7,0,7,0,1,,,,,,,,,
294982,2022-10-04_19h31.48.661,vts_reward_expectancy,2022.2.4,MacIntel,60.0024001,Chrome,1440,900,,,,,0,1004,,,,,,,,,,,,,,,,,146,W,circle,0,0,,,,,,,,,,,,,,,,switch,number,NA,f,0.6841,Hi,,,,,,3,,,,,,,,high,8,0,8,0,1,,,,,,,,,
294982,2022-10-04_19h31.48.661,vts_reward_expectancy,2022.2.4,MacIntel,60.0024001,Chrome,1440,900,,,,,10,1014,,,,,,,,,,,,,,,,,139,D,triangle,1,1,,,,,,,,,,,,,,,,repeat,number,numRpt,d,0.6694,Hi,,,,,,3,,,,,,,,high,9,0,9,0,1,,,,,,,,,
294982,2022-10-04_19h31.48.661,vts_reward_expectancy,2022.2.4,MacIntel,60.0024001,Chrome,1440,900,,,,,1,1015,,,,,,,,,,,,,,,,,174,S,circle,1,0,,,,,,,,,,,,,,,,repeat,number,numRpt,f,0.7106,Lo,,,,,,3,,,,,,,,high,10,0,10,0,1,,,,,,,,,
294982,2022-10-04_19h31.48.661,vts_reward_expectancy,2022.2.4,MacIntel,60.0024001,Chrome,1440,900,,,,,10,1025,,,,,,,,,,,,,,,,,181,U,triangle,1,0,,,,,,,,,,,,,,,,repeat,number,numRpt,f,0.6221,Hi,,,,,,3,,,,,,,,high,11,0,11,0,1,,,,,,,,,
294982,2022-10-04_19h31.48.661,vts_reward_expectancy,2022.2.4,MacIntel,60.0024001,Chrome,1440,900,,,,,1,1026,,,,,,,,,,,,,,,,,132,B,circle,1,0,,,,,,,,,,,,,,,,repeat,number,numRpt,d,0.5803,Lo,,,,,,3,,,,,,,,high,12,0,12,0,1,,,,,,,,,
294982,2022-10-04_19h31.48.661,vts_reward_expectancy,2022.2.4,MacIntel,60.0024001,Chrome,1440,900,,,,,10,1036,,,,,,,,,,,,,,,,,125,F,triangle,1,0,,,,,,,,,,,,,,,,repeat,number,numRpt,d,0.6186,Hi,,,,,,3,,,,,,,,high,13,0,13,0,1,,,,,,,,,
294982,2022-10-04_19h31.48.661,vts_reward_expectancy,2022.2.4,MacIntel,60.0024001,Chrome,1440,900,,,,,0,1036,,,,,,,,,,,,,,,,,160,Y,circle,0,0,,,,,,,,,,,,,,,,repeat,number,NA,d,0.8605,Hi,,,,,,3,,,,,,,,high,14,0,14,0,1,,,,,,,,,
294982,2022-10-04_19h31.48.661,vts_reward_expectancy,2022.2.4,MacIntel,60.0024001,Chrome,1440,900,,,,,1,1037,,,,,,,,,,,,,,,,,167,H,triangle,1,1,,,,,,,,,,,,,,,,repeat,number,numRpt,f,0.6336,Hi,,,,,,3,,,,,,,,high,15,0,15,0,1,,,,,,,,,
294982,2022-10-04_19h31.48.661,vts_reward_expectancy,2022.2.4,MacIntel,60.0024001,Chrome,1440,900,,,,,1,1038,,,,,,,,,,,,,,,,,174,W,circle,1,0,,,,,,,,,,,,,,,,repeat,number,numRpt,f,0.7597,Lo,,,,,,3,,,,,,,,high,16,0,16,0,1,,,,,,,,,
294982,2022-10-04_19h31.48.661,vts_reward_expectancy,2022.2.4,MacIntel,60.0024001,Chrome,1440,900,,,,,1,1039,,,,,,,,,,,,,,,,,139,Y,triangle,1,0,,,,,,,,,,,,,,,,repeat,number,numRpt,d,0.7505,Hi,,,,,,3,,,,,,,,high,17,0,17,0,1,,,,,,,,,
294982,2022-10-04_19h31.48.661,vts_reward_expectancy,2022.2.4,MacIntel,60.0024001,Chrome,1440,900,,,,,1,1040,,,,,,,,,,,,,,,,,160,D,circle,1,0,,,,,,,,,,,,,,,,repeat,number,numRpt,f,0.6111,Lo,,,,,,3,,,,,,,,high,18,0,18,0,1,,,,,,,,,
294982,2022-10-04_19h31.48.661,vts_reward_expectancy,2022.2.4,MacIntel,60.0024001,Chrome,1440,900,,,,,10,1050,,,,,,,,,,,,,,,,,181,U,triangle,1,0,,,,,,,,,,,,,,,,repeat,number,numRpt,f,0.9533,Hi,,,,,,3,,,,,,,,high,19,0,19,0,1,,,,,,,,,
294982,2022-10-04_19h31.48.661,vts_reward_expectancy,2022.2.4,MacIntel,60.0024001,Chrome,1440,900,,,,,0,1050,,,,,,,,,,,,,,,,,167,H,triangle,1,0,,,,,,,,,,,,,,,,repeat,number,numRpt,f,1.1315,Hi,,,,,,3,,,,,,,,high,20,0,20,0,1,,,,,,,,,
294982,2022-10-04_19h31.48.661,vts_reward_expectancy,2022.2.4,MacIntel,60.0024001,Chrome,1440,900,,,,,1,1051,,,,,,,,,,,,,,,,,125,F,circle,1,0,,,,,,,,,,,,,,,,repeat,number,numRpt,d,0.7633,Lo,,,,,,3,,,,,,,,high,21,0,21,0,1,,,,,,,,,
294982,2022-10-04_19h31.48.661,vts_reward_expectancy,2022.2.4,MacIntel,60.0024001,Chrome,1440,900,,,,,1,1052,,,,,,,,,,,,,,,,,146,B,circle,1,0,,,,,,,,,,,,,,,,repeat,number,numRpt,d,0.7381,Lo,,,,,,3,,,,,,,,high,22,0,22,0,1,,,,,,,,,
294982,2022-10-04_19h31.48.661,vts_reward_expectancy,2022.2.4,MacIntel,60.0024001,Chrome,1440,900,,,,,10,1062,,,,,,,,,,,,,,,,,132,S,triangle,1,0,,,,,,,,,,,,,,,,repeat,number,numRpt,d,0.798,Hi,,,,,,3,,,,,,,,high,23,0,23,0,1,,,,,,,,,
294982,2022-10-04_19h31.48.661,vts_reward_expectancy,2022.2.4,MacIntel,60.0024001,Chrome,1440,900,,,,,1,1063,,,,,,,,,,,,,,,,,139,F,circle,1,0,,,,,,,,,,,,,,,,repeat,number,numRpt,d,0.777,Lo,,,,,,3,,,,,,,,high,24,0,24,0,1,,,,,,,,,
294982,2022-10-04_19h31.48.661,vts_reward_expectancy,2022.2.4,MacIntel,60.0024001,Chrome,1440,900,,,,,0,1063,,,,,,,,,,,,,,,,,132,S,triangle,1,0,,,,,,,,,,,,,,,,repeat,number,numRpt,d,1.2342,Hi,,,,,,3,,,,,,,,high,25,0,25,0,1,,,,,,,,,
294982,2022-10-04_19h31.48.661,vts_reward_expectancy,2022.2.4,MacIntel,60.0024001,Chrome,1440,900,,,,,10,1073,,,,,,,,,,,,,,,,,125,B,triangle,1,0,,,,,,,,,,,,,,,,repeat,number,numRpt,d,0.6721,Hi,,,,,,3,,,,,,,,high,26,0,26,0,1,,,,,,,,,
294982,2022-10-04_19h31.48.661,vts_reward_expectancy,2022.2.4,MacIntel,60.0024001,Chrome,1440,900,,,,,10,1083,,,,,,,,,,,,,,,,,146,D,circle,1,0,,,,,,,,,,,,,,,,repeat,number,numRpt,d,0.6429,Lo,,,,,,3,,,,,,,,high,27,0,27,0,1,,,,,,,,,
294982,2022-10-04_19h31.48.661,vts_reward_expectancy,2022.2.4,MacIntel,60.0024001,Chrome,1440,900,,,,,1,1084,,,,,,,,,,,,,,,,,181,W,circle,1,0,,,,,,,,,,,,,,,,repeat,number,numRpt,f,0.9128,Lo,,,,,,3,,,,,,,,high,28,0,28,0,1,,,,,,,,,
294982,2022-10-04_19h31.48.661,vts_reward_expectancy,2022.2.4,MacIntel,60.0024001,Chrome,1440,900,,,,,0,1084,,,,,,,,,,,,,,,,,160,Y,triangle,1,0,,,,,,,,,,,,,,,,repeat,number,numRpt,f,1.4382,Hi,,,,,,3,,,,,,,,high,29,0,29,0,1,,,,,,,,,
294982,2022-10-04_19h31.48.661,vts_reward_expectancy,2022.2.4,MacIntel,60.0024001,Chrome,1440,900,,,,,10,1094,,,,,,,,,,,,,,,,,174,U,triangle,1,0,,,,,,,,,,,,,,,,repeat,number,numRpt,f,0.8057,Hi,,,,,,3,,,,,,,,high,30,0,30,0,1,,,,,,,,,
294982,2022-10-04_19h31.48.661,vts_reward_expectancy,2022.2.4,MacIntel,60.0024001,Chrome,1440,900,,,,,1,1095,,,,,,,,,,,,,,,,,167,H,circle,1,0,,,,,,,,,,,,,,,,repeat,number,numRpt,f,0.7122,Lo,,,,,,3,,,,,,,,high,31,0,31,0,1,,,,,,,,,
294982,2022-10-04_19h31.48.661,vts_reward_expectancy,2022.2.4,MacIntel,60.0024001,Chrome,1440,900,,,,,10,1105,,,,,,,,,,,,,,,,,125,B,hexagon,1,0,,,,,,,,,,,,,,,,switch,letter,lettSwt,j,1.6887,Lo,,,,,,4,,,,,,space,1.5866,low,0,0,0,0,1,,,,,,,,,
294982,2022-10-04_19h31.48.661,vts_reward_expectancy,2022.2.4,MacIntel,60.0024001,Chrome,1440,900,,,,,0,1105,,,,,,,,,,,,,,,,,160,D,star,0,0,,,,,,,,,,,,,,,,repeat,letter,NA,k,0.7329,Lo,,,,,,4,,,,,,,,low,1,0,1,0,1,,,,,,,,,
294982,2022-10-04_19h31.48.661,vts_reward_expectancy,2022.2.4,MacIntel,60.0024001,Chrome,1440,900,,,,,1,1106,,,,,,,,,,,,,,,,,132,H,hexagon,1,1,,,,,,,,,,,,,,,,repeat,letter,lettRpt,j,0.7775,Lo,,,,,,4,,,,,,,,low,2,0,2,0,1,,,,,,,,,
294982,2022-10-04_19h31.48.661,vts_reward_expectancy,2022.2.4,MacIntel,60.0024001,Chrome,1440,900,,,,,10,1116,,,,,,,,,,,,,,,,,146,S,star,1,0,,,,,,,,,,,,,,,,repeat,letter,lettRpt,k,0.5961,Hi,,,,,,4,,,,,,,,low,3,0,3,0,1,,,,,,,,,
294982,2022-10-04_19h31.48.661,vts_reward_expectancy,2022.2.4,MacIntel,60.0024001,Chrome,1440,900,,,,,1,1117,,,,,,,,,,,,,,,,,174,Y,hexagon,1,0,,,,,,,,,,,,,,,,repeat,letter,lettRpt,k,0.9153,Lo,,,,,,4,,,,,,,,low,4,0,4,0,1,,,,,,,,,
294982,2022-10-04_19h31.48.661,vts_reward_expectancy,2022.2.4,MacIntel,60.0024001,Chrome,1440,900,,,,,0,1117,,,,,,,,,,,,,,,,,139,U,star,1,0,,,,,,,,,,,,,,,,repeat,letter,lettRpt,k,0.6926,Hi,,,,,,4,,,,,,,,low,5,0,5,0,1,,,,,,,,,
294982,2022-10-04_19h31.48.661,vts_reward_expectancy,2022.2.4,MacIntel,60.0024001,Chrome,1440,900,,,,,1,1118,,,,,,,,,,,,,,,,,167,F,hexagon,1,0,,,,,,,,,,,,,,,,repeat,letter,lettRpt,j,1.0171,Lo,,,,,,4,,,,,,,,low,6,0,6,0,1,,,,,,,,,
294982,2022-10-04_19h31.48.661,vts_reward_expectancy,2022.2.4,MacIntel,60.0024001,Chrome,1440,900,,,,,1,1119,,,,,,,,,,,,,,,,,181,W,star,1,0,,,,,,,,,,,,,,,,repeat,letter,lettRpt,k,0.5974,Hi,,,,,,4,,,,,,,,low,7,0,7,0,1,,,,,,,,,
294982,2022-10-04_19h31.48.661,vts_reward_expectancy,2022.2.4,MacIntel,60.0024001,Chrome,1440,900,,,,,0,1119,,,,,,,,,,,,,,,,,125,B,star,1,0,,,,,,,,,,,,,,,,repeat,letter,lettRpt,j,0.7608,Hi,,,,,,4,,,,,,,,low,8,0,8,0,1,,,,,,,,,
294982,2022-10-04_19h31.48.661,vts_reward_expectancy,2022.2.4,MacIntel,60.0024001,Chrome,1440,900,,,,,10,1129,,,,,,,,,,,,,,,,,160,D,hexagon,1,0,,,,,,,,,,,,,,,,repeat,letter,lettRpt,j,0.6449,Lo,,,,,,4,,,,,,,,low,9,0,9,0,1,,,,,,,,,
294982,2022-10-04_19h31.48.661,vts_reward_expectancy,2022.2.4,MacIntel,60.0024001,Chrome,1440,900,,,,,0,1129,,,,,,,,,,,,,,,,,132,H,star,1,0,,,,,,,,,,,,,,,,repeat,letter,lettRpt,j,0.7976,Hi,,,,,,4,,,,,,,,low,10,0,10,0,1,,,,,,,,,
294982,2022-10-04_19h31.48.661,vts_reward_expectancy,2022.2.4,MacIntel,60.0024001,Chrome,1440,900,,,,,1,1130,,,,,,,,,,,,,,,,,146,S,hexagon,1,0,,,,,,,,,,,,,,,,repeat,letter,lettRpt,k,0.8671,Lo,,,,,,4,,,,,,,,low,11,0,11,0,1,,,,,,,,,
294982,2022-10-04_19h31.48.661,vts_reward_expectancy,2022.2.4,MacIntel,60.0024001,Chrome,1440,900,,,,,0,1130,,,,,,,,,,,,,,,,,174,Y,hexagon,0,0,,,,,,,,,,,,,,,,repeat,letter,NA,j,0.464,Lo,,,,,,4,,,,,,,,low,12,0,12,0,1,,,,,,,,,
294982,2022-10-04_19h31.48.661,vts_reward_expectancy,2022.2.4,MacIntel,60.0024001,Chrome,1440,900,,,,,0,1130,,,,,,,,,,,,,,,,,139,U,star,1,1,,,,,,,,,,,,,,,,repeat,letter,lettRpt,k,0.6356,Hi,,,,,,4,,,,,,,,low,13,0,13,0,1,,,,,,,,,
294982,2022-10-04_19h31.48.661,vts_reward_expectancy,2022.2.4,MacIntel,60.0024001,Chrome,1440,900,,,,,1,1131,,,,,,,,,,,,,,,,,167,F,star,1,0,,,,,,,,,,,,,,,,repeat,letter,lettRpt,j,0.5443,Hi,,,,,,4,,,,,,,,low,14,0,14,0,1,,,,,,,,,
294982,2022-10-04_19h31.48.661,vts_reward_expectancy,2022.2.4,MacIntel,60.0024001,Chrome,1440,900,,,,,10,1141,,,,,,,,,,,,,,,,,181,W,hexagon,1,0,,,,,,,,,,,,,,,,repeat,letter,lettRpt,k,0.4139,Lo,,,,,,4,,,,,,,,low,15,0,15,0,1,,,,,,,,,
294982,2022-10-04_19h31.48.661,vts_reward_expectancy,2022.2.4,MacIntel,60.0024001,Chrome,1440,900,,,,,10,1151,,,,,,,,,,,,,,,,,167,H,star,1,0,,,,,,,,,,,,,,,,repeat,letter,lettRpt,j,0.6017,Hi,,,,,,4,,,,,,,,low,16,0,16,0,1,,,,,,,,,
294982,2022-10-04_19h31.48.661,vts_reward_expectancy,2022.2.4,MacIntel,60.0024001,Chrome,1440,900,,,,,10,1161,,,,,,,,,,,,,,,,,174,F,hexagon,1,0,,,,,,,,,,,,,,,,repeat,letter,lettRpt,j,0.5678,Lo,,,,,,4,,,,,,,,low,17,0,17,0,1,,,,,,,,,
294982,2022-10-04_19h31.48.661,vts_reward_expectancy,2022.2.4,MacIntel,60.0024001,Chrome,1440,900,,,,,1,1162,,,,,,,,,,,,,,,,,125,D,hexagon,1,0,,,,,,,,,,,,,,,,repeat,letter,lettRpt,j,0.5776,Lo,,,,,,4,,,,,,,,low,18,0,18,0,1,,,,,,,,,
294982,2022-10-04_19h31.48.661,vts_reward_expectancy,2022.2.4,MacIntel,60.0024001,Chrome,1440,900,,,,,10,1172,,,,,,,,,,,,,,,,,160,W,star,1,0,,,,,,,,,,,,,,,,repeat,letter,lettRpt,k,0.6118,Hi,,,,,,4,,,,,,,,low,19,0,19,0,1,,,,,,,,,
294982,2022-10-04_19h31.48.661,vts_reward_expectancy,2022.2.4,MacIntel,60.0024001,Chrome,1440,900,,,,,0,1172,,,,,,,,,,,,,,,,,146,U,hexagon,0,0,,,,,,,,,,,,,,,,repeat,letter,NA,j,0.5877,Hi,,,,,,4,,,,,,,,low,20,0,20,0,1,,,,,,,,,
294982,2022-10-04_19h31.48.661,vts_reward_expectancy,2022.2.4,MacIntel,60.0024001,Chrome,1440,900,,,,,0,1172,,,,,,,,,,,,,,,,,139,B,star,1,1,,,,,,,,,,,,,,,,repeat,letter,lettRpt,j,0.644,Hi,,,,,,4,,,,,,,,low,21,0,21,0,1,,,,,,,,,
294982,2022-10-04_19h31.48.661,vts_reward_expectancy,2022.2.4,MacIntel,60.0024001,Chrome,1440,900,,,,,0,1172,,,,,,,,,,,,,,,,,132,Y,star,1,0,,,,,,,,,,,,,,,,repeat,letter,lettRpt,k,1.303,Hi,,,,,,4,,,,,,,,low,22,0,22,0,1,,,,,,,,,
294982,2022-10-04_19h31.48.661,vts_reward_expectancy,2022.2.4,MacIntel,60.0024001,Chrome,1440,900,,,,,10,1182,,,,,,,,,,,,,,,,,181,S,hexagon,1,0,,,,,,,,,,,,,,,,repeat,letter,lettRpt,k,0.5828,Lo,,,,,,4,,,,,,,,low,23,0,23,0,1,,,,,,,,,
294982,2022-10-04_19h31.48.661,vts_reward_expectancy,2022.2.4,MacIntel,60.0024001,Chrome,1440,900,,,,,1,1183,,,,,,,,,,,,,,,,,174,W,hexagon,1,0,,,,,,,,,,,,,,,,repeat,letter,lettRpt,k,0.5606,Lo,,,,,,4,,,,,,,,low,24,0,24,0,1,,,,,,,,,
294982,2022-10-04_19h31.48.661,vts_reward_expectancy,2022.2.4,MacIntel,60.0024001,Chrome,1440,900,,,,,10,1193,,,,,,,,,,,,,,,,,167,Y,star,1,0,,,,,,,,,,,,,,,,repeat,letter,lettRpt,k,0.5994,Hi,,,,,,4,,,,,,,,low,25,0,25,0,1,,,,,,,,,
294982,2022-10-04_19h31.48.661,vts_reward_expectancy,2022.2.4,MacIntel,60.0024001,Chrome,1440,900,,,,,1,1194,,,,,,,,,,,,,,,,,132,S,star,1,0,,,,,,,,,,,,,,,,repeat,letter,lettRpt,k,0.5061,Hi,,,,,,4,,,,,,,,low,26,0,26,0,1,,,,,,,,,
294982,2022-10-04_19h31.48.661,vts_reward_expectancy,2022.2.4,MacIntel,60.0024001,Chrome,1440,900,,,,,1,1195,,,,,,,,,,,,,,,,,146,D,hexagon,1,0,,,,,,,,,,,,,,,,repeat,letter,lettRpt,j,0.6717,Lo,,,,,,4,,,,,,,,low,27,0,27,0,1,,,,,,,,,
294982,2022-10-04_19h31.48.661,vts_reward_expectancy,2022.2.4,MacIntel,60.0024001,Chrome,1440,900,,,,,1,1196,,,,,,,,,,,,,,,,,125,F,star,1,0,,,,,,,,,,,,,,,,repeat,letter,lettRpt,j,0.628,Hi,,,,,,4,,,,,,,,low,28,0,28,0,1,,,,,,,,,
294982,2022-10-04_19h31.48.661,vts_reward_expectancy,2022.2.4,MacIntel,60.0024001,Chrome,1440,900,,,,,1,1197,,,,,,,,,,,,,,,,,181,H,hexagon,1,0,,,,,,,,,,,,,,,,repeat,letter,lettRpt,j,0.6608,Lo,,,,,,4,,,,,,,,low,29,0,29,0,1,,,,,,,,,
294982,2022-10-04_19h31.48.661,vts_reward_expectancy,2022.2.4,MacIntel,60.0024001,Chrome,1440,900,,,,,0,1197,,,,,,,,,,,,,,,,,160,B,star,1,0,,,,,,,,,,,,,,,,repeat,letter,lettRpt,j,0.9223,Hi,,,,,,4,,,,,,,,low,30,0,30,0,1,,,,,,,,,
294982,2022-10-04_19h31.48.661,vts_reward_expectancy,2022.2.4,MacIntel,60.0024001,Chrome,1440,900,,,,,1,1198,,,,,,,,,,,,,,,,,139,U,hexagon,1,0,,,,,,,,,,,,,,,,repeat,letter,lettRpt,k,0.8432,Lo,,,,,,4,,,,,,,,low,31,0,31,0,1,,,,,,,,,
294982,2022-10-04_19h31.48.661,vts_reward_expectancy,2022.2.4,MacIntel,60.0024001,Chrome,1440,900,,,,,10,1208,,,,,,,,,,,,,,,,,174,Y,triangle,1,0,,,,,,,,,,,,,,,,switch,number,numSwt,f,0.97,Hi,,,,,,5,,,,,,space,1.6728,high,0,0,0,0,1,,,,,,,,,
294982,2022-10-04_19h31.48.661,vts_reward_expectancy,2022.2.4,MacIntel,60.0024001,Chrome,1440,900,,,,,1,1209,,,,,,,,,,,,,,,,,167,B,circle,1,0,,,,,,,,,,,,,,,,repeat,number,numRpt,f,0.6471,Lo,,,,,,5,,,,,,,,high,1,0,1,0,1,,,,,,,,,
294982,2022-10-04_19h31.48.661,vts_reward_expectancy,2022.2.4,MacIntel,60.0024001,Chrome,1440,900,,,,,10,1219,,,,,,,,,,,,,,,,,160,W,triangle,1,0,,,,,,,,,,,,,,,,repeat,number,numRpt,f,0.6025,Hi,,,,,,5,,,,,,,,high,2,0,2,0,1,,,,,,,,,
294982,2022-10-04_19h31.48.661,vts_reward_expectancy,2022.2.4,MacIntel,60.0024001,Chrome,1440,900,,,,,10,1229,,,,,,,,,,,,,,,,,146,H,circle,1,0,,,,,,,,,,,,,,,,repeat,number,numRpt,d,0.6995,Lo,,,,,,5,,,,,,,,high,3,0,3,0,1,,,,,,,,,
294982,2022-10-04_19h31.48.661,vts_reward_expectancy,2022.2.4,MacIntel,60.0024001,Chrome,1440,900,,,,,1,1230,,,,,,,,,,,,,,,,,139,U,circle,1,0,,,,,,,,,,,,,,,,repeat,number,numRpt,d,0.9654,Lo,,,,,,5,,,,,,,,high,4,0,4,0,1,,,,,,,,,
294982,2022-10-04_19h31.48.661,vts_reward_expectancy,2022.2.4,MacIntel,60.0024001,Chrome,1440,900,,,,,10,1240,,,,,,,,,,,,,,,,,181,F,triangle,1,0,,,,,,,,,,,,,,,,repeat,number,numRpt,f,0.7147,Hi,,,,,,5,,,,,,,,high,5,0,5,0,1,,,,,,,,,
294982,2022-10-04_19h31.48.661,vts_reward_expectancy,2022.2.4,MacIntel,60.0024001,Chrome,1440,900,,,,,1,1241,,,,,,,,,,,,,,,,,132,S,circle,1,0,,,,,,,,,,,,,,,,repeat,number,numRpt,d,1.043,Lo,,,,,,5,,,,,,,,high,6,0,6,0,1,,,,,,,,,
294982,2022-10-04_19h31.48.661,vts_reward_expectancy,2022.2.4,MacIntel,60.0024001,Chrome,1440,900,,,,,1,1242,,,,,,,,,,,,,,,,,125,D,triangle,1,0,,,,,,,,,,,,,,,,repeat,number,numRpt,d,0.6328,Hi,,,,,,5,,,,,,,,high,7,0,7,0,1,,,,,,,,,
294982,2022-10-04_19h31.48.661,vts_reward_expectancy,2022.2.4,MacIntel,60.0024001,Chrome,1440,900,,,,,10,1252,,,,,,,,,,,,,,,,,174,Y,triangle,1,0,,,,,,,,,,,,,,,,repeat,number,numRpt,f,0.7936,Hi,,,,,,5,,,,,,,,high,8,0,8,0,1,,,,,,,,,
294982,2022-10-04_19h31.48.661,vts_reward_expectancy,2022.2.4,MacIntel,60.0024001,Chrome,1440,900,,,,,0,1252,,,,,,,,,,,,,,,,,167,B,circle,0,0,,,,,,,,,,,,,,,,repeat,number,NA,d,0.8806,Hi,,,,,,5,,,,,,,,high,9,0,9,0,1,,,,,,,,,
294982,2022-10-04_19h31.48.661,vts_reward_expectancy,2022.2.4,MacIntel,60.0024001,Chrome,1440,900,,,,,10,1262,,,,,,,,,,,,,,,,,160,W,triangle,1,1,,,,,,,,,,,,,,,,repeat,number,numRpt,f,0.6925,Hi,,,,,,5,,,,,,,,high,10,0,10,0,1,,,,,,,,,
294982,2022-10-04_19h31.48.661,vts_reward_expectancy,2022.2.4,MacIntel,60.0024001,Chrome,1440,900,,,,,1,1263,,,,,,,,,,,,,,,,,146,H,circle,1,0,,,,,,,,,,,,,,,,repeat,number,numRpt,d,1.2263,Lo,,,,,,5,,,,,,,,high,11,0,11,0,1,,,,,,,,,
294982,2022-10-04_19h31.48.661,vts_reward_expectancy,2022.2.4,MacIntel,60.0024001,Chrome,1440,900,,,,,10,1273,,,,,,,,,,,,,,,,,139,U,triangle,1,0,,,,,,,,,,,,,,,,repeat,number,numRpt,d,0.6912,Hi,,,,,,5,,,,,,,,high,12,0,12,0,1,,,,,,,,,
294982,2022-10-04_19h31.48.661,vts_reward_expectancy,2022.2.4,MacIntel,60.0024001,Chrome,1440,900,,,,,1,1274,,,,,,,,,,,,,,,,,181,F,circle,1,0,,,,,,,,,,,,,,,,repeat,number,numRpt,f,0.6193,Lo,,,,,,5,,,,,,,,high,13,0,13,0,1,,,,,,,,,
294982,2022-10-04_19h31.48.661,vts_reward_expectancy,2022.2.4,MacIntel,60.0024001,Chrome,1440,900,,,,,10,1284,,,,,,,,,,,,,,,,,132,S,triangle,1,0,,,,,,,,,,,,,,,,repeat,number,numRpt,d,0.8481,Hi,,,,,,5,,,,,,,,high,14,0,14,0,1,,,,,,,,,
294982,2022-10-04_19h31.48.661,vts_reward_expectancy,2022.2.4,MacIntel,60.0024001,Chrome,1440,900,,,,,1,1285,,,,,,,,,,,,,,,,,125,D,circle,1,0,,,,,,,,,,,,,,,,repeat,number,numRpt,d,0.6435,Lo,,,,,,5,,,,,,,,high,15,0,15,0,1,,,,,,,,,
294982,2022-10-04_19h31.48.661,vts_reward_expectancy,2022.2.4,MacIntel,60.0024001,Chrome,1440,900,,,,,1,1286,,,,,,,,,,,,,,,,,181,S,circle,1,0,,,,,,,,,,,,,,,,repeat,number,numRpt,f,0.8475,Lo,,,,,,5,,,,,,,,high,16,0,16,0,1,,,,,,,,,
294982,2022-10-04_19h31.48.661,vts_reward_expectancy,2022.2.4,MacIntel,60.0024001,Chrome,1440,900,,,,,10,1296,,,,,,,,,,,,,,,,,139,W,triangle,1,0,,,,,,,,,,,,,,,,repeat,number,numRpt,d,0.8059,Hi,,,,,,5,,,,,,,,high,17,0,17,0,1,,,,,,,,,
294982,2022-10-04_19h31.48.661,vts_reward_expectancy,2022.2.4,MacIntel,60.0024001,Chrome,1440,900,,,,,1,1297,,,,,,,,,,,,,,,,,146,D,triangle,1,0,,,,,,,,,,,,,,,,repeat,number,numRpt,d,0.8182,Hi,,,,,,5,,,,,,,,high,18,0,18,0,1,,,,,,,,,
294982,2022-10-04_19h31.48.661,vts_reward_expectancy,2022.2.4,MacIntel,60.0024001,Chrome,1440,900,,,,,10,1307,,,,,,,,,,,,,,,,,132,H,circle,1,0,,,,,,,,,,,,,,,,repeat,number,numRpt,d,0.7821,Lo,,,,,,5,,,,,,,,high,19,0,19,0,1,,,,,,,,,
294982,2022-10-04_19h31.48.661,vts_reward_expectancy,2022.2.4,MacIntel,60.0024001,Chrome,1440,900,,,,,10,1317,,,,,,,,,,,,,,,,,174,Y,triangle,1,0,,,,,,,,,,,,,,,,repeat,number,numRpt,f,1.0847,Hi,,,,,,5,,,,,,,,high,20,0,20,0,1,,,,,,,,,
294982,2022-10-04_19h31.48.661,vts_reward_expectancy,2022.2.4,MacIntel,60.0024001,Chrome,1440,900,,,,,10,1327,,,,,,,,,,,,,,,,,167,B,circle,1,0,,,,,,,,,,,,,,,,repeat,number,numRpt,f,1.4467,Lo,,,,,,5,,,,,,,,high,21,0,21,0,1,,,,,,,,,
294982,2022-10-04_19h31.48.661,vts_reward_expectancy,2022.2.4,MacIntel,60.0024001,Chrome,1440,900,,,,,1,1328,,,,,,,,,,,,,,,,,160,F,circle,1,0,,,,,,,,,,,,,,,,repeat,number,numRpt,f,1.3713,Lo,,,,,,5,,,,,,,,high,22,0,22,0,1,,,,,,,,,
294982,2022-10-04_19h31.48.661,vts_reward_expectancy,2022.2.4,MacIntel,60.0024001,Chrome,1440,900,,,,,1,1329,,,,,,,,,,,,,,,,,125,U,triangle,1,0,,,,,,,,,,,,,,,,switch,letter,lettSwt,k,0.7791,Hi,,,,,,5,,,,,,,,high,23,0,23,0,1,,,,,,,,,
294982,2022-10-04_19h31.48.661,vts_reward_expectancy,2022.2.4,MacIntel,60.0024001,Chrome,1440,900,,,,,0,1329,,,,,,,,,,,,,,,,,174,D,triangle,1,0,,,,,,,,,,,,,,,,repeat,letter,lettRpt,j,0.6991,Hi,,,,,,5,,,,,,,,high,24,0,24,0,1,,,,,,,,,
294982,2022-10-04_19h31.48.661,vts_reward_expectancy,2022.2.4,MacIntel,60.0024001,Chrome,1440,900,,,,,1,1330,,,,,,,,,,,,,,,,,132,B,circle,1,0,,,,,,,,,,,,,,,,repeat,letter,lettRpt,j,0.631,Lo,,,,,,5,,,,,,,,high,25,0,25,0,1,,,,,,,,,
294982,2022-10-04_19h31.48.661,vts_reward_expectancy,2022.2.4,MacIntel,60.0024001,Chrome,1440,900,,,,,1,1331,,,,,,,,,,,,,,,,,139,Y,circle,1,0,,,,,,,,,,,,,,,,switch,number,numSwt,d,0.6273,Lo,,,,,,5,,,,,,,,high,26,0,26,0,1,,,,,,,,,
294982,2022-10-04_19h31.48.661,vts_reward_expectancy,2022.2.4,MacIntel,60.0024001,Chrome,1440,900,,,,,10,1341,,,,,,,,,,,,,,,,,160,U,triangle,1,0,,,,,,,,,,,,,,,,repeat,number,numRpt,f,0.5629,Hi,,,,,,5,,,,,,,,high,27,0,27,0,1,,,,,,,,,
294982,2022-10-04_19h31.48.661,vts_reward_expectancy,2022.2.4,MacIntel,60.0024001,Chrome,1440,900,,,,,10,1351,,,,,,,,,,,,,,,,,125,H,triangle,1,0,,,,,,,,,,,,,,,,repeat,number,numRpt,d,0.5913,Hi,,,,,,5,,,,,,,,high,28,0,28,0,1,,,,,,,,,
294982,2022-10-04_19h31.48.661,vts_reward_expectancy,2022.2.4,MacIntel,60.0024001,Chrome,1440,900,,,,,1,1352,,,,,,,,,,,,,,,,,146,S,circle,1,0,,,,,,,,,,,,,,,,repeat,number,numRpt,d,0.5938,Lo,,,,,,5,,,,,,,,high,29,0,29,0,1,,,,,,,,,
294982,2022-10-04_19h31.48.661,vts_reward_expectancy,2022.2.4,MacIntel,60.0024001,Chrome,1440,900,,,,,1,1353,,,,,,,,,,,,,,,,,167,F,circle,1,0,,,,,,,,,,,,,,,,repeat,number,numRpt,f,0.7594,Lo,,,,,,5,,,,,,,,high,30,0,30,0,1,,,,,,,,,
294982,2022-10-04_19h31.48.661,vts_reward_expectancy,2022.2.4,MacIntel,60.0024001,Chrome,1440,900,,,,,10,1363,,,,,,,,,,,,,,,,,181,W,triangle,1,0,,,,,,,,,,,,,,,,repeat,number,numRpt,f,0.9708,Hi,,,,,,5,,,,,,,,high,31,0,31,0,1,,,,,,,,,
294982,2022-10-04_19h31.48.661,vts_reward_expectancy,2022.2.4,MacIntel,60.0024001,Chrome,1440,900,,,,,,,,,,,,,,,,,,,,,,,,,,,,,,,,,,,,,,,,,,,,,,,,,,,,,,6,,,,,,,,,,,,,,I was asked to distinguish and learn shapes and to multi task between letters and numbers to get points along with making sure that i responded fast enough on both sides equally.,2,distinguishing the differences between the shapes and the trens was pretty dificult,5,3,,2,1440,900
