participant,date,expName,psychopyVersion,OS,frameRate,browser,xResolution,yResolution,key_resp.keys,key_resp.rt,training_resp.keys,training_resp.rt,points_trial,points_cumul,trainBlock,training.thisRepN,training.thisTrialN,training.thisN,training.thisIndex,training.ran,LTriangleOpac,LCircleOpac,LHexagonOpac,LStarOpac,RTriangleOpac,RCircleOpac,RHexagonOpac,RStarOpac,LShape_ID,RShape_ID,curr_topStim,curr_bottStim,curr_shape,acc,E1,target_resp_prac1.keys,pracBlock,task1_prac_trials.thisRepN,task1_prac_trials.thisTrialN,task1_prac_trials.thisN,task1_prac_trials.thisIndex,task1_prac_trials.ran,target_resp_prac1.rt,target_resp_prac2.keys,target_resp_prac2.rt,task2_praac_trials.thisRepN,task2_praac_trials.thisTrialN,task2_praac_trials.thisN,task2_praac_trials.thisIndex,task2_praac_trials.ran,alt,task,condition,target_resp.keys,target_resp.rt,rewCond,vts_practice_trials.thisRepN,vts_practice_trials.thisTrialN,vts_practice_trials.thisN,vts_practice_trials.thisIndex,vts_practice_trials.ran,blockNum,trials_norew.thisRepN,trials_norew.thisTrialN,trials_norew.thisN,trials_norew.thisIndex,trials_norew.ran,key_resp_2.keys,key_resp_2.rt,rewExpect,trials_rew.thisRepN,trials_rew.thisTrialN,trials_rew.thisN,trials_rew.thisIndex,trials_rew.ran,Q1,Q2,Q2_text,Q3,Q4,Q5_text,Q5,xRes,yRes
294880,2022-09-23_19h40.11.944,vts_reward_expectancy,2022.2.4,Win32,60.0060006,Chrome,1536,864,,,,,,,,,,,,,,,,,,,,,,,,,,,,,,,,,,,,,,,,,,,,,,,,,,,,,,,,,,,,,,,,,,,,,,,,,,,,
294880,2022-09-23_19h40.11.944,vts_reward_expectancy,2022.2.4,Win32,60.0060006,Chrome,1536,864,space,10.2857,,,,,,,,,,,,,,,,,,,,,,,,,,,,,,,,,,,,,,,,,,,,,,,,,,,,,,,,,,,,,,,,,,,,,,,,,,
294880,2022-09-23_19h40.11.944,vts_reward_expectancy,2022.2.4,Win32,60.0060006,Chrome,1536,864,,,,,,,,,,,,,,,,,,,,,,,,,,,,,,,,,,,,,,,,,,,,,,,,,,,,,,,,,,,,,,,,,,,,,,,,,,,,
294880,2022-09-23_19h40.11.944,vts_reward_expectancy,2022.2.4,Win32,60.0060006,Chrome,1536,864,,,l,3.0045,10,10,0,0,0,0,11,1,0,0,0,1,0,0,1,0,star,hexagon,,,,,,,,,,,,,,,,,,,,,,,,,,,,,,,,,,,,,,,,,,,,,,,,,,,,,,
294880,2022-09-23_19h40.11.944,vts_reward_expectancy,2022.2.4,Win32,60.0060006,Chrome,1536,864,,,a,4.3805,10,20,0,0,1,1,7,1,0,0,1,0,0,1,0,0,hexagon,circle,,,,,,,,,,,,,,,,,,,,,,,,,,,,,,,,,,,,,,,,,,,,,,,,,,,,,,
294880,2022-09-23_19h40.11.944,vts_reward_expectancy,2022.2.4,Win32,60.0060006,Chrome,1536,864,,,l,3.6342,10,30,0,0,2,2,9,1,0,0,0,1,1,0,0,0,star,triangle,,,,,,,,,,,,,,,,,,,,,,,,,,,,,,,,,,,,,,,,,,,,,,,,,,,,,,
294880,2022-09-23_19h40.11.944,vts_reward_expectancy,2022.2.4,Win32,60.0060006,Chrome,1536,864,,,a,1.5581,10,40,0,0,3,3,1,1,1,0,0,0,0,0,1,0,triangle,hexagon,,,,,,,,,,,,,,,,,,,,,,,,,,,,,,,,,,,,,,,,,,,,,,,,,,,,,,
294880,2022-09-23_19h40.11.944,vts_reward_expectancy,2022.2.4,Win32,60.0060006,Chrome,1536,864,,,l,1.4333,1,41,0,0,4,4,0,1,1,0,0,0,0,1,0,0,triangle,circle,,,,,,,,,,,,,,,,,,,,,,,,,,,,,,,,,,,,,,,,,,,,,,,,,,,,,,
294880,2022-09-23_19h40.11.944,vts_reward_expectancy,2022.2.4,Win32,60.0060006,Chrome,1536,864,,,a,1.6177,10,51,0,0,5,5,6,1,0,0,1,0,1,0,0,0,hexagon,triangle,,,,,,,,,,,,,,,,,,,,,,,,,,,,,,,,,,,,,,,,,,,,,,,,,,,,,,
294880,2022-09-23_19h40.11.944,vts_reward_expectancy,2022.2.4,Win32,60.0060006,Chrome,1536,864,,,l,2.2339,1,52,0,0,6,6,2,1,1,0,0,0,0,0,0,1,triangle,star,,,,,,,,,,,,,,,,,,,,,,,,,,,,,,,,,,,,,,,,,,,,,,,,,,,,,,
294880,2022-09-23_19h40.11.944,vts_reward_expectancy,2022.2.4,Win32,60.0060006,Chrome,1536,864,,,a,1.2009,1,53,0,0,7,7,8,1,0,0,1,0,0,0,0,1,hexagon,star,,,,,,,,,,,,,,,,,,,,,,,,,,,,,,,,,,,,,,,,,,,,,,,,,,,,,,
294880,2022-09-23_19h40.11.944,vts_reward_expectancy,2022.2.4,Win32,60.0060006,Chrome,1536,864,,,a,1.1669,1,54,0,0,8,8,3,1,0,1,0,0,1,0,0,0,circle,triangle,,,,,,,,,,,,,,,,,,,,,,,,,,,,,,,,,,,,,,,,,,,,,,,,,,,,,,
294880,2022-09-23_19h40.11.944,vts_reward_expectancy,2022.2.4,Win32,60.0060006,Chrome,1536,864,,,l,2.0176,1,55,0,0,9,9,5,1,0,1,0,0,0,0,0,1,circle,star,,,,,,,,,,,,,,,,,,,,,,,,,,,,,,,,,,,,,,,,,,,,,,,,,,,,,,
294880,2022-09-23_19h40.11.944,vts_reward_expectancy,2022.2.4,Win32,60.0060006,Chrome,1536,864,,,a,2.4707,1,56,0,0,10,10,10,1,0,0,0,1,0,1,0,0,star ,circle,,,,,,,,,,,,,,,,,,,,,,,,,,,,,,,,,,,,,,,,,,,,,,,,,,,,,,
294880,2022-09-23_19h40.11.944,vts_reward_expectancy,2022.2.4,Win32,60.0060006,Chrome,1536,864,,,l,1.33,10,66,0,0,11,11,4,1,0,1,0,0,0,0,1,0,circle,hexagon,,,,,,,,,,,,,,,,,,,,,,,,,,,,,,,,,,,,,,,,,,,,,,,,,,,,,,
294880,2022-09-23_19h40.11.944,vts_reward_expectancy,2022.2.4,Win32,60.0060006,Chrome,1536,864,,,a,1.2502,1,67,0,1,0,12,0,1,1,0,0,0,0,1,0,0,triangle,circle,,,,,,,,,,,,,,,,,,,,,,,,,,,,,,,,,,,,,,,,,,,,,,,,,,,,,,
294880,2022-09-23_19h40.11.944,vts_reward_expectancy,2022.2.4,Win32,60.0060006,Chrome,1536,864,,,l,1.1182,10,77,0,1,1,13,3,1,0,1,0,0,1,0,0,0,circle,triangle,,,,,,,,,,,,,,,,,,,,,,,,,,,,,,,,,,,,,,,,,,,,,,,,,,,,,,
294880,2022-09-23_19h40.11.944,vts_reward_expectancy,2022.2.4,Win32,60.0060006,Chrome,1536,864,,,a,1.8676,1,78,0,1,2,14,2,1,1,0,0,0,0,0,0,1,triangle,star,,,,,,,,,,,,,,,,,,,,,,,,,,,,,,,,,,,,,,,,,,,,,,,,,,,,,,
294880,2022-09-23_19h40.11.944,vts_reward_expectancy,2022.2.4,Win32,60.0060006,Chrome,1536,864,,,l,1.3353,1,79,0,1,3,15,6,1,0,0,1,0,1,0,0,0,hexagon,triangle,,,,,,,,,,,,,,,,,,,,,,,,,,,,,,,,,,,,,,,,,,,,,,,,,,,,,,
294880,2022-09-23_19h40.11.944,vts_reward_expectancy,2022.2.4,Win32,60.0060006,Chrome,1536,864,,,l,2.2832,10,89,0,1,4,16,4,1,0,1,0,0,0,0,1,0,circle,hexagon,,,,,,,,,,,,,,,,,,,,,,,,,,,,,,,,,,,,,,,,,,,,,,,,,,,,,,
294880,2022-09-23_19h40.11.944,vts_reward_expectancy,2022.2.4,Win32,60.0060006,Chrome,1536,864,,,l,2.0066,10,99,0,1,5,17,1,1,1,0,0,0,0,0,1,0,triangle,hexagon,,,,,,,,,,,,,,,,,,,,,,,,,,,,,,,,,,,,,,,,,,,,,,,,,,,,,,
294880,2022-09-23_19h40.11.944,vts_reward_expectancy,2022.2.4,Win32,60.0060006,Chrome,1536,864,,,a,1.2017,10,109,0,1,6,18,8,1,0,0,1,0,0,0,0,1,hexagon,star,,,,,,,,,,,,,,,,,,,,,,,,,,,,,,,,,,,,,,,,,,,,,,,,,,,,,,
294880,2022-09-23_19h40.11.944,vts_reward_expectancy,2022.2.4,Win32,60.0060006,Chrome,1536,864,,,l,3.266,1,110,0,1,7,19,7,1,0,0,1,0,0,1,0,0,hexagon,circle,,,,,,,,,,,,,,,,,,,,,,,,,,,,,,,,,,,,,,,,,,,,,,,,,,,,,,
294880,2022-09-23_19h40.11.944,vts_reward_expectancy,2022.2.4,Win32,60.0060006,Chrome,1536,864,,,l,1.1336,1,111,0,1,8,20,10,1,0,0,0,1,0,1,0,0,star ,circle,,,,,,,,,,,,,,,,,,,,,,,,,,,,,,,,,,,,,,,,,,,,,,,,,,,,,,
294880,2022-09-23_19h40.11.944,vts_reward_expectancy,2022.2.4,Win32,60.0060006,Chrome,1536,864,,,l,2.0506,10,121,0,1,9,21,11,1,0,0,0,1,0,0,1,0,star,hexagon,,,,,,,,,,,,,,,,,,,,,,,,,,,,,,,,,,,,,,,,,,,,,,,,,,,,,,
294880,2022-09-23_19h40.11.944,vts_reward_expectancy,2022.2.4,Win32,60.0060006,Chrome,1536,864,,,l,0.9376,1,122,0,1,10,22,9,1,0,0,0,1,1,0,0,0,star,triangle,,,,,,,,,,,,,,,,,,,,,,,,,,,,,,,,,,,,,,,,,,,,,,,,,,,,,,
294880,2022-09-23_19h40.11.944,vts_reward_expectancy,2022.2.4,Win32,60.0060006,Chrome,1536,864,,,a,0.6151,1,123,0,1,11,23,5,1,0,1,0,0,0,0,0,1,circle,star,,,,,,,,,,,,,,,,,,,,,,,,,,,,,,,,,,,,,,,,,,,,,,,,,,,,,,
294880,2022-09-23_19h40.11.944,vts_reward_expectancy,2022.2.4,Win32,60.0060006,Chrome,1536,864,,,a,0.7011,10,133,0,2,0,24,9,1,0,0,0,1,1,0,0,0,star,triangle,,,,,,,,,,,,,,,,,,,,,,,,,,,,,,,,,,,,,,,,,,,,,,,,,,,,,,
294880,2022-09-23_19h40.11.944,vts_reward_expectancy,2022.2.4,Win32,60.0060006,Chrome,1536,864,,,l,1.2538,10,143,0,2,1,25,4,1,0,1,0,0,0,0,1,0,circle,hexagon,,,,,,,,,,,,,,,,,,,,,,,,,,,,,,,,,,,,,,,,,,,,,,,,,,,,,,
294880,2022-09-23_19h40.11.944,vts_reward_expectancy,2022.2.4,Win32,60.0060006,Chrome,1536,864,,,a,0.7008,1,144,0,2,2,26,11,1,0,0,0,1,0,0,1,0,star,hexagon,,,,,,,,,,,,,,,,,,,,,,,,,,,,,,,,,,,,,,,,,,,,,,,,,,,,,,
294880,2022-09-23_19h40.11.944,vts_reward_expectancy,2022.2.4,Win32,60.0060006,Chrome,1536,864,,,a,1.4081,10,154,0,2,3,27,7,1,0,0,1,0,0,1,0,0,hexagon,circle,,,,,,,,,,,,,,,,,,,,,,,,,,,,,,,,,,,,,,,,,,,,,,,,,,,,,,
294880,2022-09-23_19h40.11.944,vts_reward_expectancy,2022.2.4,Win32,60.0060006,Chrome,1536,864,,,l,1.6664,10,164,0,2,4,28,3,1,0,1,0,0,1,0,0,0,circle,triangle,,,,,,,,,,,,,,,,,,,,,,,,,,,,,,,,,,,,,,,,,,,,,,,,,,,,,,
294880,2022-09-23_19h40.11.944,vts_reward_expectancy,2022.2.4,Win32,60.0060006,Chrome,1536,864,,,l,0.9019,10,174,0,2,5,29,8,1,0,0,1,0,0,0,0,1,hexagon,star,,,,,,,,,,,,,,,,,,,,,,,,,,,,,,,,,,,,,,,,,,,,,,,,,,,,,,
294880,2022-09-23_19h40.11.944,vts_reward_expectancy,2022.2.4,Win32,60.0060006,Chrome,1536,864,,,a,1.1507,10,184,0,2,6,30,1,1,1,0,0,0,0,0,1,0,triangle,hexagon,,,,,,,,,,,,,,,,,,,,,,,,,,,,,,,,,,,,,,,,,,,,,,,,,,,,,,
294880,2022-09-23_19h40.11.944,vts_reward_expectancy,2022.2.4,Win32,60.0060006,Chrome,1536,864,,,a,0.9496,10,194,0,2,7,31,0,1,1,0,0,0,0,1,0,0,triangle,circle,,,,,,,,,,,,,,,,,,,,,,,,,,,,,,,,,,,,,,,,,,,,,,,,,,,,,,
294880,2022-09-23_19h40.11.944,vts_reward_expectancy,2022.2.4,Win32,60.0060006,Chrome,1536,864,,,l,0.7322,1,195,0,2,8,32,5,1,0,1,0,0,0,0,0,1,circle,star,,,,,,,,,,,,,,,,,,,,,,,,,,,,,,,,,,,,,,,,,,,,,,,,,,,,,,
294880,2022-09-23_19h40.11.944,vts_reward_expectancy,2022.2.4,Win32,60.0060006,Chrome,1536,864,,,a,0.7496,1,196,0,2,9,33,10,1,0,0,0,1,0,1,0,0,star ,circle,,,,,,,,,,,,,,,,,,,,,,,,,,,,,,,,,,,,,,,,,,,,,,,,,,,,,,
294880,2022-09-23_19h40.11.944,vts_reward_expectancy,2022.2.4,Win32,60.0060006,Chrome,1536,864,,,l,2.6001,10,206,0,2,10,34,2,1,1,0,0,0,0,0,0,1,triangle,star,,,,,,,,,,,,,,,,,,,,,,,,,,,,,,,,,,,,,,,,,,,,,,,,,,,,,,
294880,2022-09-23_19h40.11.944,vts_reward_expectancy,2022.2.4,Win32,60.0060006,Chrome,1536,864,,,a,1.1855,10,216,0,2,11,35,6,1,0,0,1,0,1,0,0,0,hexagon,triangle,,,,,,,,,,,,,,,,,,,,,,,,,,,,,,,,,,,,,,,,,,,,,,,,,,,,,,
294880,2022-09-23_19h40.11.944,vts_reward_expectancy,2022.2.4,Win32,60.0060006,Chrome,1536,864,,,a,2.8684,10,226,1,0,0,0,8,1,0,0,1,0,0,0,0,1,hexagon,star,,,,,,,,,,,,,,,,,,,,,,,,,,,,,,,,,,,,,,,,,,,,,,,,,,,,,,
294880,2022-09-23_19h40.11.944,vts_reward_expectancy,2022.2.4,Win32,60.0060006,Chrome,1536,864,,,l,1.0837,10,236,1,0,1,1,2,1,1,0,0,0,0,0,0,1,triangle,star,,,,,,,,,,,,,,,,,,,,,,,,,,,,,,,,,,,,,,,,,,,,,,,,,,,,,,
294880,2022-09-23_19h40.11.944,vts_reward_expectancy,2022.2.4,Win32,60.0060006,Chrome,1536,864,,,l,1.8675,1,237,1,0,2,2,0,1,1,0,0,0,0,1,0,0,triangle,circle,,,,,,,,,,,,,,,,,,,,,,,,,,,,,,,,,,,,,,,,,,,,,,,,,,,,,,
294880,2022-09-23_19h40.11.944,vts_reward_expectancy,2022.2.4,Win32,60.0060006,Chrome,1536,864,,,l,0.8841,10,247,1,0,3,3,4,1,0,1,0,0,0,0,1,0,circle,hexagon,,,,,,,,,,,,,,,,,,,,,,,,,,,,,,,,,,,,,,,,,,,,,,,,,,,,,,
294880,2022-09-23_19h40.11.944,vts_reward_expectancy,2022.2.4,Win32,60.0060006,Chrome,1536,864,,,a,0.8917,10,257,1,0,4,4,9,1,0,0,0,1,1,0,0,0,star,triangle,,,,,,,,,,,,,,,,,,,,,,,,,,,,,,,,,,,,,,,,,,,,,,,,,,,,,,
294880,2022-09-23_19h40.11.944,vts_reward_expectancy,2022.2.4,Win32,60.0060006,Chrome,1536,864,,,a,0.8176,10,267,1,0,5,5,11,1,0,0,0,1,0,0,1,0,star,hexagon,,,,,,,,,,,,,,,,,,,,,,,,,,,,,,,,,,,,,,,,,,,,,,,,,,,,,,
294880,2022-09-23_19h40.11.944,vts_reward_expectancy,2022.2.4,Win32,60.0060006,Chrome,1536,864,,,l,1.0508,10,277,1,0,6,6,3,1,0,1,0,0,1,0,0,0,circle,triangle,,,,,,,,,,,,,,,,,,,,,,,,,,,,,,,,,,,,,,,,,,,,,,,,,,,,,,
294880,2022-09-23_19h40.11.944,vts_reward_expectancy,2022.2.4,Win32,60.0060006,Chrome,1536,864,,,a,0.9567,10,287,1,0,7,7,6,1,0,0,1,0,1,0,0,0,hexagon,triangle,,,,,,,,,,,,,,,,,,,,,,,,,,,,,,,,,,,,,,,,,,,,,,,,,,,,,,
294880,2022-09-23_19h40.11.944,vts_reward_expectancy,2022.2.4,Win32,60.0060006,Chrome,1536,864,,,a,1.4173,10,297,1,0,8,8,7,1,0,0,1,0,0,1,0,0,hexagon,circle,,,,,,,,,,,,,,,,,,,,,,,,,,,,,,,,,,,,,,,,,,,,,,,,,,,,,,
294880,2022-09-23_19h40.11.944,vts_reward_expectancy,2022.2.4,Win32,60.0060006,Chrome,1536,864,,,l,1.584,1,298,1,0,9,9,10,1,0,0,0,1,0,1,0,0,star ,circle,,,,,,,,,,,,,,,,,,,,,,,,,,,,,,,,,,,,,,,,,,,,,,,,,,,,,,
294880,2022-09-23_19h40.11.944,vts_reward_expectancy,2022.2.4,Win32,60.0060006,Chrome,1536,864,,,l,0.6179,1,299,1,0,10,10,5,1,0,1,0,0,0,0,0,1,circle,star,,,,,,,,,,,,,,,,,,,,,,,,,,,,,,,,,,,,,,,,,,,,,,,,,,,,,,
294880,2022-09-23_19h40.11.944,vts_reward_expectancy,2022.2.4,Win32,60.0060006,Chrome,1536,864,,,l,2.4488,10,309,1,0,11,11,1,1,1,0,0,0,0,0,1,0,triangle,hexagon,,,,,,,,,,,,,,,,,,,,,,,,,,,,,,,,,,,,,,,,,,,,,,,,,,,,,,
294880,2022-09-23_19h40.11.944,vts_reward_expectancy,2022.2.4,Win32,60.0060006,Chrome,1536,864,,,l,2.0674,1,310,1,1,0,12,3,1,0,1,0,0,1,0,0,0,circle,triangle,,,,,,,,,,,,,,,,,,,,,,,,,,,,,,,,,,,,,,,,,,,,,,,,,,,,,,
294880,2022-09-23_19h40.11.944,vts_reward_expectancy,2022.2.4,Win32,60.0060006,Chrome,1536,864,,,a,0.965,1,311,1,1,1,13,10,1,0,0,0,1,0,1,0,0,star ,circle,,,,,,,,,,,,,,,,,,,,,,,,,,,,,,,,,,,,,,,,,,,,,,,,,,,,,,
294880,2022-09-23_19h40.11.944,vts_reward_expectancy,2022.2.4,Win32,60.0060006,Chrome,1536,864,,,l,1.0686,1,312,1,1,2,14,6,1,0,0,1,0,1,0,0,0,hexagon,triangle,,,,,,,,,,,,,,,,,,,,,,,,,,,,,,,,,,,,,,,,,,,,,,,,,,,,,,
294880,2022-09-23_19h40.11.944,vts_reward_expectancy,2022.2.4,Win32,60.0060006,Chrome,1536,864,,,a,0.6671,1,313,1,1,3,15,11,1,0,0,0,1,0,0,1,0,star,hexagon,,,,,,,,,,,,,,,,,,,,,,,,,,,,,,,,,,,,,,,,,,,,,,,,,,,,,,
294880,2022-09-23_19h40.11.944,vts_reward_expectancy,2022.2.4,Win32,60.0060006,Chrome,1536,864,,,a,1.0897,1,314,1,1,4,16,0,1,1,0,0,0,0,1,0,0,triangle,circle,,,,,,,,,,,,,,,,,,,,,,,,,,,,,,,,,,,,,,,,,,,,,,,,,,,,,,
294880,2022-09-23_19h40.11.944,vts_reward_expectancy,2022.2.4,Win32,60.0060006,Chrome,1536,864,,,l,0.8086,10,324,1,1,5,17,4,1,0,1,0,0,0,0,1,0,circle,hexagon,,,,,,,,,,,,,,,,,,,,,,,,,,,,,,,,,,,,,,,,,,,,,,,,,,,,,,
294880,2022-09-23_19h40.11.944,vts_reward_expectancy,2022.2.4,Win32,60.0060006,Chrome,1536,864,,,a,0.936,1,325,1,1,6,18,9,1,0,0,0,1,1,0,0,0,star,triangle,,,,,,,,,,,,,,,,,,,,,,,,,,,,,,,,,,,,,,,,,,,,,,,,,,,,,,
294880,2022-09-23_19h40.11.944,vts_reward_expectancy,2022.2.4,Win32,60.0060006,Chrome,1536,864,,,a,1.2851,1,326,1,1,7,19,7,1,0,0,1,0,0,1,0,0,hexagon,circle,,,,,,,,,,,,,,,,,,,,,,,,,,,,,,,,,,,,,,,,,,,,,,,,,,,,,,
294880,2022-09-23_19h40.11.944,vts_reward_expectancy,2022.2.4,Win32,60.0060006,Chrome,1536,864,,,l,2.2708,10,336,1,1,8,20,2,1,1,0,0,0,0,0,0,1,triangle,star,,,,,,,,,,,,,,,,,,,,,,,,,,,,,,,,,,,,,,,,,,,,,,,,,,,,,,
294880,2022-09-23_19h40.11.944,vts_reward_expectancy,2022.2.4,Win32,60.0060006,Chrome,1536,864,,,l,0.7406,1,337,1,1,9,21,8,1,0,0,1,0,0,0,0,1,hexagon,star,,,,,,,,,,,,,,,,,,,,,,,,,,,,,,,,,,,,,,,,,,,,,,,,,,,,,,
294880,2022-09-23_19h40.11.944,vts_reward_expectancy,2022.2.4,Win32,60.0060006,Chrome,1536,864,,,l,0.802,1,338,1,1,10,22,5,1,0,1,0,0,0,0,0,1,circle,star,,,,,,,,,,,,,,,,,,,,,,,,,,,,,,,,,,,,,,,,,,,,,,,,,,,,,,
294880,2022-09-23_19h40.11.944,vts_reward_expectancy,2022.2.4,Win32,60.0060006,Chrome,1536,864,,,a,0.9674,10,348,1,1,11,23,1,1,1,0,0,0,0,0,1,0,triangle,hexagon,,,,,,,,,,,,,,,,,,,,,,,,,,,,,,,,,,,,,,,,,,,,,,,,,,,,,,
294880,2022-09-23_19h40.11.944,vts_reward_expectancy,2022.2.4,Win32,60.0060006,Chrome,1536,864,,,l,0.8565,10,358,1,2,0,24,1,1,1,0,0,0,0,0,1,0,triangle,hexagon,,,,,,,,,,,,,,,,,,,,,,,,,,,,,,,,,,,,,,,,,,,,,,,,,,,,,,
294880,2022-09-23_19h40.11.944,vts_reward_expectancy,2022.2.4,Win32,60.0060006,Chrome,1536,864,,,a,0.8506,10,368,1,2,1,25,9,1,0,0,0,1,1,0,0,0,star,triangle,,,,,,,,,,,,,,,,,,,,,,,,,,,,,,,,,,,,,,,,,,,,,,,,,,,,,,
294880,2022-09-23_19h40.11.944,vts_reward_expectancy,2022.2.4,Win32,60.0060006,Chrome,1536,864,,,l,0.7858,1,369,1,2,2,26,8,1,0,0,1,0,0,0,0,1,hexagon,star,,,,,,,,,,,,,,,,,,,,,,,,,,,,,,,,,,,,,,,,,,,,,,,,,,,,,,
294880,2022-09-23_19h40.11.944,vts_reward_expectancy,2022.2.4,Win32,60.0060006,Chrome,1536,864,,,a,1.1174,1,370,1,2,3,27,7,1,0,0,1,0,0,1,0,0,hexagon,circle,,,,,,,,,,,,,,,,,,,,,,,,,,,,,,,,,,,,,,,,,,,,,,,,,,,,,,
294880,2022-09-23_19h40.11.944,vts_reward_expectancy,2022.2.4,Win32,60.0060006,Chrome,1536,864,,,a,0.8683,1,371,1,2,4,28,0,1,1,0,0,0,0,1,0,0,triangle,circle,,,,,,,,,,,,,,,,,,,,,,,,,,,,,,,,,,,,,,,,,,,,,,,,,,,,,,
294880,2022-09-23_19h40.11.944,vts_reward_expectancy,2022.2.4,Win32,60.0060006,Chrome,1536,864,,,l,1.0725,10,381,1,2,5,29,11,1,0,0,0,1,0,0,1,0,star,hexagon,,,,,,,,,,,,,,,,,,,,,,,,,,,,,,,,,,,,,,,,,,,,,,,,,,,,,,
294880,2022-09-23_19h40.11.944,vts_reward_expectancy,2022.2.4,Win32,60.0060006,Chrome,1536,864,,,l,1.2005,1,382,1,2,6,30,3,1,0,1,0,0,1,0,0,0,circle,triangle,,,,,,,,,,,,,,,,,,,,,,,,,,,,,,,,,,,,,,,,,,,,,,,,,,,,,,
294880,2022-09-23_19h40.11.944,vts_reward_expectancy,2022.2.4,Win32,60.0060006,Chrome,1536,864,,,a,1.2669,10,392,1,2,7,31,2,1,1,0,0,0,0,0,0,1,triangle,star,,,,,,,,,,,,,,,,,,,,,,,,,,,,,,,,,,,,,,,,,,,,,,,,,,,,,,
294880,2022-09-23_19h40.11.944,vts_reward_expectancy,2022.2.4,Win32,60.0060006,Chrome,1536,864,,,l,2.5843,10,402,1,2,8,32,6,1,0,0,1,0,1,0,0,0,hexagon,triangle,,,,,,,,,,,,,,,,,,,,,,,,,,,,,,,,,,,,,,,,,,,,,,,,,,,,,,
294880,2022-09-23_19h40.11.944,vts_reward_expectancy,2022.2.4,Win32,60.0060006,Chrome,1536,864,,,l,2.5674,10,412,1,2,9,33,4,1,0,1,0,0,0,0,1,0,circle,hexagon,,,,,,,,,,,,,,,,,,,,,,,,,,,,,,,,,,,,,,,,,,,,,,,,,,,,,,
294880,2022-09-23_19h40.11.944,vts_reward_expectancy,2022.2.4,Win32,60.0060006,Chrome,1536,864,,,a,0.9006,10,422,1,2,10,34,10,1,0,0,0,1,0,1,0,0,star ,circle,,,,,,,,,,,,,,,,,,,,,,,,,,,,,,,,,,,,,,,,,,,,,,,,,,,,,,
294880,2022-09-23_19h40.11.944,vts_reward_expectancy,2022.2.4,Win32,60.0060006,Chrome,1536,864,,,l,1.3004,10,432,1,2,11,35,5,1,0,1,0,0,0,0,0,1,circle,star,,,,,,,,,,,,,,,,,,,,,,,,,,,,,,,,,,,,,,,,,,,,,,,,,,,,,,
294880,2022-09-23_19h40.11.944,vts_reward_expectancy,2022.2.4,Win32,60.0060006,Chrome,1536,864,,,a,1.2083,1,433,2,0,0,0,11,1,0,0,0,1,0,0,1,0,star,hexagon,,,,,,,,,,,,,,,,,,,,,,,,,,,,,,,,,,,,,,,,,,,,,,,,,,,,,,
294880,2022-09-23_19h40.11.944,vts_reward_expectancy,2022.2.4,Win32,60.0060006,Chrome,1536,864,,,l,1.1344,1,434,2,0,1,1,0,1,1,0,0,0,0,1,0,0,triangle,circle,,,,,,,,,,,,,,,,,,,,,,,,,,,,,,,,,,,,,,,,,,,,,,,,,,,,,,
294880,2022-09-23_19h40.11.944,vts_reward_expectancy,2022.2.4,Win32,60.0060006,Chrome,1536,864,,,a,2.4509,1,435,2,0,2,2,10,1,0,0,0,1,0,1,0,0,star ,circle,,,,,,,,,,,,,,,,,,,,,,,,,,,,,,,,,,,,,,,,,,,,,,,,,,,,,,
294880,2022-09-23_19h40.11.944,vts_reward_expectancy,2022.2.4,Win32,60.0060006,Chrome,1536,864,,,l,1.5724,10,445,2,0,3,3,4,1,0,1,0,0,0,0,1,0,circle,hexagon,,,,,,,,,,,,,,,,,,,,,,,,,,,,,,,,,,,,,,,,,,,,,,,,,,,,,,
294880,2022-09-23_19h40.11.944,vts_reward_expectancy,2022.2.4,Win32,60.0060006,Chrome,1536,864,,,l,10.4507,1,446,2,0,4,4,5,1,0,1,0,0,0,0,0,1,circle,star,,,,,,,,,,,,,,,,,,,,,,,,,,,,,,,,,,,,,,,,,,,,,,,,,,,,,,
294880,2022-09-23_19h40.11.944,vts_reward_expectancy,2022.2.4,Win32,60.0060006,Chrome,1536,864,,,a,1.3433,1,447,2,0,5,5,3,1,0,1,0,0,1,0,0,0,circle,triangle,,,,,,,,,,,,,,,,,,,,,,,,,,,,,,,,,,,,,,,,,,,,,,,,,,,,,,
294880,2022-09-23_19h40.11.944,vts_reward_expectancy,2022.2.4,Win32,60.0060006,Chrome,1536,864,,,l,6.0006,10,457,2,0,6,6,9,1,0,0,0,1,1,0,0,0,star,triangle,,,,,,,,,,,,,,,,,,,,,,,,,,,,,,,,,,,,,,,,,,,,,,,,,,,,,,
294880,2022-09-23_19h40.11.944,vts_reward_expectancy,2022.2.4,Win32,60.0060006,Chrome,1536,864,,,l,0.8524,1,458,2,0,7,7,2,1,1,0,0,0,0,0,0,1,triangle,star,,,,,,,,,,,,,,,,,,,,,,,,,,,,,,,,,,,,,,,,,,,,,,,,,,,,,,
294880,2022-09-23_19h40.11.944,vts_reward_expectancy,2022.2.4,Win32,60.0060006,Chrome,1536,864,,,l,0.9521,1,459,2,0,8,8,1,1,1,0,0,0,0,0,1,0,triangle,hexagon,,,,,,,,,,,,,,,,,,,,,,,,,,,,,,,,,,,,,,,,,,,,,,,,,,,,,,
294880,2022-09-23_19h40.11.944,vts_reward_expectancy,2022.2.4,Win32,60.0060006,Chrome,1536,864,,,a,1.5485,10,469,2,0,9,9,7,1,0,0,1,0,0,1,0,0,hexagon,circle,,,,,,,,,,,,,,,,,,,,,,,,,,,,,,,,,,,,,,,,,,,,,,,,,,,,,,
294880,2022-09-23_19h40.11.944,vts_reward_expectancy,2022.2.4,Win32,60.0060006,Chrome,1536,864,,,l,0.785,1,470,2,0,10,10,8,1,0,0,1,0,0,0,0,1,hexagon,star,,,,,,,,,,,,,,,,,,,,,,,,,,,,,,,,,,,,,,,,,,,,,,,,,,,,,,
294880,2022-09-23_19h40.11.944,vts_reward_expectancy,2022.2.4,Win32,60.0060006,Chrome,1536,864,,,a,1.0008,10,480,2,0,11,11,6,1,0,0,1,0,1,0,0,0,hexagon,triangle,,,,,,,,,,,,,,,,,,,,,,,,,,,,,,,,,,,,,,,,,,,,,,,,,,,,,,
294880,2022-09-23_19h40.11.944,vts_reward_expectancy,2022.2.4,Win32,60.0060006,Chrome,1536,864,,,a,1.3522,1,481,2,1,0,12,9,1,0,0,0,1,1,0,0,0,star,triangle,,,,,,,,,,,,,,,,,,,,,,,,,,,,,,,,,,,,,,,,,,,,,,,,,,,,,,
294880,2022-09-23_19h40.11.944,vts_reward_expectancy,2022.2.4,Win32,60.0060006,Chrome,1536,864,,,l,0.8684,10,491,2,1,1,13,6,1,0,0,1,0,1,0,0,0,hexagon,triangle,,,,,,,,,,,,,,,,,,,,,,,,,,,,,,,,,,,,,,,,,,,,,,,,,,,,,,
294880,2022-09-23_19h40.11.944,vts_reward_expectancy,2022.2.4,Win32,60.0060006,Chrome,1536,864,,,l,1.7176,10,501,2,1,2,14,8,1,0,0,1,0,0,0,0,1,hexagon,star,,,,,,,,,,,,,,,,,,,,,,,,,,,,,,,,,,,,,,,,,,,,,,,,,,,,,,
294880,2022-09-23_19h40.11.944,vts_reward_expectancy,2022.2.4,Win32,60.0060006,Chrome,1536,864,,,l,0.74,10,511,2,1,3,15,4,1,0,1,0,0,0,0,1,0,circle,hexagon,,,,,,,,,,,,,,,,,,,,,,,,,,,,,,,,,,,,,,,,,,,,,,,,,,,,,,
294880,2022-09-23_19h40.11.944,vts_reward_expectancy,2022.2.4,Win32,60.0060006,Chrome,1536,864,,,a,2.4171,10,521,2,1,4,16,11,1,0,0,0,1,0,0,1,0,star,hexagon,,,,,,,,,,,,,,,,,,,,,,,,,,,,,,,,,,,,,,,,,,,,,,,,,,,,,,
294880,2022-09-23_19h40.11.944,vts_reward_expectancy,2022.2.4,Win32,60.0060006,Chrome,1536,864,,,l,1.1395,10,531,2,1,5,17,5,1,0,1,0,0,0,0,0,1,circle,star,,,,,,,,,,,,,,,,,,,,,,,,,,,,,,,,,,,,,,,,,,,,,,,,,,,,,,
294880,2022-09-23_19h40.11.944,vts_reward_expectancy,2022.2.4,Win32,60.0060006,Chrome,1536,864,,,a,0.5566,10,541,2,1,6,18,10,1,0,0,0,1,0,1,0,0,star ,circle,,,,,,,,,,,,,,,,,,,,,,,,,,,,,,,,,,,,,,,,,,,,,,,,,,,,,,
294880,2022-09-23_19h40.11.944,vts_reward_expectancy,2022.2.4,Win32,60.0060006,Chrome,1536,864,,,a,1.9837,1,542,2,1,7,19,0,1,1,0,0,0,0,1,0,0,triangle,circle,,,,,,,,,,,,,,,,,,,,,,,,,,,,,,,,,,,,,,,,,,,,,,,,,,,,,,
294880,2022-09-23_19h40.11.944,vts_reward_expectancy,2022.2.4,Win32,60.0060006,Chrome,1536,864,,,a,0.968,1,543,2,1,8,20,3,1,0,1,0,0,1,0,0,0,circle,triangle,,,,,,,,,,,,,,,,,,,,,,,,,,,,,,,,,,,,,,,,,,,,,,,,,,,,,,
294880,2022-09-23_19h40.11.944,vts_reward_expectancy,2022.2.4,Win32,60.0060006,Chrome,1536,864,,,a,1.4735,1,544,2,1,9,21,1,1,1,0,0,0,0,0,1,0,triangle,hexagon,,,,,,,,,,,,,,,,,,,,,,,,,,,,,,,,,,,,,,,,,,,,,,,,,,,,,,
294880,2022-09-23_19h40.11.944,vts_reward_expectancy,2022.2.4,Win32,60.0060006,Chrome,1536,864,,,l,0.7913,1,545,2,1,10,22,2,1,1,0,0,0,0,0,0,1,triangle,star,,,,,,,,,,,,,,,,,,,,,,,,,,,,,,,,,,,,,,,,,,,,,,,,,,,,,,
294880,2022-09-23_19h40.11.944,vts_reward_expectancy,2022.2.4,Win32,60.0060006,Chrome,1536,864,,,a,1.2499,1,546,2,1,11,23,7,1,0,0,1,0,0,1,0,0,hexagon,circle,,,,,,,,,,,,,,,,,,,,,,,,,,,,,,,,,,,,,,,,,,,,,,,,,,,,,,
294880,2022-09-23_19h40.11.944,vts_reward_expectancy,2022.2.4,Win32,60.0060006,Chrome,1536,864,,,l,1.4176,1,547,2,2,0,24,8,1,0,0,1,0,0,0,0,1,hexagon,star,,,,,,,,,,,,,,,,,,,,,,,,,,,,,,,,,,,,,,,,,,,,,,,,,,,,,,
294880,2022-09-23_19h40.11.944,vts_reward_expectancy,2022.2.4,Win32,60.0060006,Chrome,1536,864,,,a,1.3059,1,548,2,2,1,25,7,1,0,0,1,0,0,1,0,0,hexagon,circle,,,,,,,,,,,,,,,,,,,,,,,,,,,,,,,,,,,,,,,,,,,,,,,,,,,,,,
294880,2022-09-23_19h40.11.944,vts_reward_expectancy,2022.2.4,Win32,60.0060006,Chrome,1536,864,,,l,1.4533,1,549,2,2,2,26,3,1,0,1,0,0,1,0,0,0,circle,triangle,,,,,,,,,,,,,,,,,,,,,,,,,,,,,,,,,,,,,,,,,,,,,,,,,,,,,,
294880,2022-09-23_19h40.11.944,vts_reward_expectancy,2022.2.4,Win32,60.0060006,Chrome,1536,864,,,a,1.9531,10,559,2,2,3,27,0,1,1,0,0,0,0,1,0,0,triangle,circle,,,,,,,,,,,,,,,,,,,,,,,,,,,,,,,,,,,,,,,,,,,,,,,,,,,,,,
294880,2022-09-23_19h40.11.944,vts_reward_expectancy,2022.2.4,Win32,60.0060006,Chrome,1536,864,,,l,1.2512,10,569,2,2,4,28,9,1,0,0,0,1,1,0,0,0,star,triangle,,,,,,,,,,,,,,,,,,,,,,,,,,,,,,,,,,,,,,,,,,,,,,,,,,,,,,
294880,2022-09-23_19h40.11.944,vts_reward_expectancy,2022.2.4,Win32,60.0060006,Chrome,1536,864,,,a,2.0012,10,579,2,2,5,29,6,1,0,0,1,0,1,0,0,0,hexagon,triangle,,,,,,,,,,,,,,,,,,,,,,,,,,,,,,,,,,,,,,,,,,,,,,,,,,,,,,
294880,2022-09-23_19h40.11.944,vts_reward_expectancy,2022.2.4,Win32,60.0060006,Chrome,1536,864,,,l,1.6191,10,589,2,2,6,30,2,1,1,0,0,0,0,0,0,1,triangle,star,,,,,,,,,,,,,,,,,,,,,,,,,,,,,,,,,,,,,,,,,,,,,,,,,,,,,,
294880,2022-09-23_19h40.11.944,vts_reward_expectancy,2022.2.4,Win32,60.0060006,Chrome,1536,864,,,a,0.7666,1,590,2,2,7,31,11,1,0,0,0,1,0,0,1,0,star,hexagon,,,,,,,,,,,,,,,,,,,,,,,,,,,,,,,,,,,,,,,,,,,,,,,,,,,,,,
294880,2022-09-23_19h40.11.944,vts_reward_expectancy,2022.2.4,Win32,60.0060006,Chrome,1536,864,,,l,1.1883,1,591,2,2,8,32,5,1,0,1,0,0,0,0,0,1,circle,star,,,,,,,,,,,,,,,,,,,,,,,,,,,,,,,,,,,,,,,,,,,,,,,,,,,,,,
294880,2022-09-23_19h40.11.944,vts_reward_expectancy,2022.2.4,Win32,60.0060006,Chrome,1536,864,,,l,1.0505,1,592,2,2,9,33,10,1,0,0,0,1,0,1,0,0,star ,circle,,,,,,,,,,,,,,,,,,,,,,,,,,,,,,,,,,,,,,,,,,,,,,,,,,,,,,
294880,2022-09-23_19h40.11.944,vts_reward_expectancy,2022.2.4,Win32,60.0060006,Chrome,1536,864,,,a,0.9509,1,593,2,2,10,34,1,1,1,0,0,0,0,0,1,0,triangle,hexagon,,,,,,,,,,,,,,,,,,,,,,,,,,,,,,,,,,,,,,,,,,,,,,,,,,,,,,
294880,2022-09-23_19h40.11.944,vts_reward_expectancy,2022.2.4,Win32,60.0060006,Chrome,1536,864,,,l,0.6832,10,603,2,2,11,35,4,1,0,1,0,0,0,0,1,0,circle,hexagon,,,,,,,,,,,,,,,,,,,,,,,,,,,,,,,,,,,,,,,,,,,,,,,,,,,,,,
294880,2022-09-23_19h40.11.944,vts_reward_expectancy,2022.2.4,Win32,60.0060006,Chrome,1536,864,,,,,,,,,,,,,,,,,,,,,,,167,D,star,0,0,,0,0,0,0,0,1,,,,,,,,,,,,,,,,,,,,,,,,,,,,,,,,,,,,,,,,,,
294880,2022-09-23_19h40.11.944,vts_reward_expectancy,2022.2.4,Win32,60.0060006,Chrome,1536,864,,,,,,,,,,,,,,,,,,,,,,,132,F,hexagon,1,1,d,0,1,0,1,0,1,1.3749,,,,,,,,,,,,,,,,,,,,,,,,,,,,,,,,,,,,,,,,,
294880,2022-09-23_19h40.11.944,vts_reward_expectancy,2022.2.4,Win32,60.0060006,Chrome,1536,864,,,,,,,,,,,,,,,,,,,,,,,160,S,circle,1,0,f,0,2,0,2,0,1,1.3369,,,,,,,,,,,,,,,,,,,,,,,,,,,,,,,,,,,,,,,,,
294880,2022-09-23_19h40.11.944,vts_reward_expectancy,2022.2.4,Win32,60.0060006,Chrome,1536,864,,,,,,,,,,,,,,,,,,,,,,,174,Y,triangle,1,0,f,0,3,0,3,0,1,0.8841,,,,,,,,,,,,,,,,,,,,,,,,,,,,,,,,,,,,,,,,,
294880,2022-09-23_19h40.11.944,vts_reward_expectancy,2022.2.4,Win32,60.0060006,Chrome,1536,864,,,,,,,,,,,,,,,,,,,,,,,125,B,star,1,0,d,0,4,0,4,0,1,0.9567,,,,,,,,,,,,,,,,,,,,,,,,,,,,,,,,,,,,,,,,,
294880,2022-09-23_19h40.11.944,vts_reward_expectancy,2022.2.4,Win32,60.0060006,Chrome,1536,864,,,,,,,,,,,,,,,,,,,,,,,139,H,hexagon,1,0,d,0,5,0,5,0,1,0.7849,,,,,,,,,,,,,,,,,,,,,,,,,,,,,,,,,,,,,,,,,
294880,2022-09-23_19h40.11.944,vts_reward_expectancy,2022.2.4,Win32,60.0060006,Chrome,1536,864,,,,,,,,,,,,,,,,,,,,,,,181,W,circle,1,0,f,0,6,0,6,0,1,0.734,,,,,,,,,,,,,,,,,,,,,,,,,,,,,,,,,,,,,,,,,
294880,2022-09-23_19h40.11.944,vts_reward_expectancy,2022.2.4,Win32,60.0060006,Chrome,1536,864,,,,,,,,,,,,,,,,,,,,,,,146,U,triangle,1,0,d,0,7,0,7,0,1,1.7856,,,,,,,,,,,,,,,,,,,,,,,,,,,,,,,,,,,,,,,,,
294880,2022-09-23_19h40.11.944,vts_reward_expectancy,2022.2.4,Win32,60.0060006,Chrome,1536,864,,,,,,,,,,,,,,,,,,,,,,,167,D,triangle,1,0,f,0,8,0,8,0,1,1.0397,,,,,,,,,,,,,,,,,,,,,,,,,,,,,,,,,,,,,,,,,
294880,2022-09-23_19h40.11.944,vts_reward_expectancy,2022.2.4,Win32,60.0060006,Chrome,1536,864,,,,,,,,,,,,,,,,,,,,,,,132,F,hexagon,1,0,d,0,9,0,9,0,1,0.83,,,,,,,,,,,,,,,,,,,,,,,,,,,,,,,,,,,,,,,,,
294880,2022-09-23_19h40.11.944,vts_reward_expectancy,2022.2.4,Win32,60.0060006,Chrome,1536,864,,,,,,,,,,,,,,,,,,,,,,,125,H,circle,1,0,,1,,,,,,,j,1.4008,0,0,0,0,1,,,,,,,,,,,,,,,,,,,,,,,,,,,,,,,,,,
294880,2022-09-23_19h40.11.944,vts_reward_expectancy,2022.2.4,Win32,60.0060006,Chrome,1536,864,,,,,,,,,,,,,,,,,,,,,,,174,F,star,1,0,,1,,,,,,,j,0.767,1,0,1,0,1,,,,,,,,,,,,,,,,,,,,,,,,,,,,,,,,,,
294880,2022-09-23_19h40.11.944,vts_reward_expectancy,2022.2.4,Win32,60.0060006,Chrome,1536,864,,,,,,,,,,,,,,,,,,,,,,,146,B,triangle,1,0,,1,,,,,,,j,0.751,2,0,2,0,1,,,,,,,,,,,,,,,,,,,,,,,,,,,,,,,,,,
294880,2022-09-23_19h40.11.944,vts_reward_expectancy,2022.2.4,Win32,60.0060006,Chrome,1536,864,,,,,,,,,,,,,,,,,,,,,,,160,S,hexagon,1,0,,1,,,,,,,k,1.2049,3,0,3,0,1,,,,,,,,,,,,,,,,,,,,,,,,,,,,,,,,,,
294880,2022-09-23_19h40.11.944,vts_reward_expectancy,2022.2.4,Win32,60.0060006,Chrome,1536,864,,,,,,,,,,,,,,,,,,,,,,,181,W,circle,1,0,,1,,,,,,,k,0.8671,4,0,4,0,1,,,,,,,,,,,,,,,,,,,,,,,,,,,,,,,,,,
294880,2022-09-23_19h40.11.944,vts_reward_expectancy,2022.2.4,Win32,60.0060006,Chrome,1536,864,,,,,,,,,,,,,,,,,,,,,,,139,D,star,1,0,,1,,,,,,,j,0.6681,5,0,5,0,1,,,,,,,,,,,,,,,,,,,,,,,,,,,,,,,,,,
294880,2022-09-23_19h40.11.944,vts_reward_expectancy,2022.2.4,Win32,60.0060006,Chrome,1536,864,,,,,,,,,,,,,,,,,,,,,,,132,U,triangle,1,0,,1,,,,,,,k,0.8059,6,0,6,0,1,,,,,,,,,,,,,,,,,,,,,,,,,,,,,,,,,,
294880,2022-09-23_19h40.11.944,vts_reward_expectancy,2022.2.4,Win32,60.0060006,Chrome,1536,864,,,,,,,,,,,,,,,,,,,,,,,167,Y,hexagon,1,0,,1,,,,,,,k,0.7006,7,0,7,0,1,,,,,,,,,,,,,,,,,,,,,,,,,,,,,,,,,,
294880,2022-09-23_19h40.11.944,vts_reward_expectancy,2022.2.4,Win32,60.0060006,Chrome,1536,864,,,,,,,,,,,,,,,,,,,,,,,125,H,triangle,1,0,,1,,,,,,,j,1.1213,8,0,8,0,1,,,,,,,,,,,,,,,,,,,,,,,,,,,,,,,,,,
294880,2022-09-23_19h40.11.944,vts_reward_expectancy,2022.2.4,Win32,60.0060006,Chrome,1536,864,,,,,,,,,,,,,,,,,,,,,,,174,F,hexagon,1,0,,1,,,,,,,j,0.6849,9,0,9,0,1,,,,,,,,,,,,,,,,,,,,,,,,,,,,,,,,,,
294880,2022-09-23_19h40.11.944,vts_reward_expectancy,2022.2.4,Win32,60.0060006,Chrome,1536,864,,,,,0,603,,,,,,,,,,,,,,,,,146,Y,circle,1,0,,2,,,,,,,,,,,,,,-1,number,NA,d,1.3419,vtsPrac,0,0,0,0,1,,,,,,,,,,,,,,,,,,,,,,,
294880,2022-09-23_19h40.11.944,vts_reward_expectancy,2022.2.4,Win32,60.0060006,Chrome,1536,864,,,,,0,603,,,,,,,,,,,,,,,,,125,S,triangle,1,0,,2,,,,,,,,,,,,,,switch,letter,lettSwt,k,0.9002,vtsPrac,1,0,1,0,1,,,,,,,,,,,,,,,,,,,,,,,
294880,2022-09-23_19h40.11.944,vts_reward_expectancy,2022.2.4,Win32,60.0060006,Chrome,1536,864,,,,,0,603,,,,,,,,,,,,,,,,,167,H,circle,1,0,,2,,,,,,,,,,,,,,switch,number,numSwt,f,1.3226,vtsPrac,2,0,2,0,1,,,,,,,,,,,,,,,,,,,,,,,
294880,2022-09-23_19h40.11.944,vts_reward_expectancy,2022.2.4,Win32,60.0060006,Chrome,1536,864,,,,,0,603,,,,,,,,,,,,,,,,,174,W,triangle,1,0,,2,,,,,,,,,,,,,,repeat,number,numRpt,f,1.6734,vtsPrac,3,0,3,0,1,,,,,,,,,,,,,,,,,,,,,,,
294880,2022-09-23_19h40.11.944,vts_reward_expectancy,2022.2.4,Win32,60.0060006,Chrome,1536,864,,,,,0,603,,,,,,,,,,,,,,,,,146,Y,circle,1,0,,2,,,,,,,,,,,,,,switch,letter,lettSwt,k,0.9382,vtsPrac,4,0,4,0,1,,,,,,,,,,,,,,,,,,,,,,,
294880,2022-09-23_19h40.11.944,vts_reward_expectancy,2022.2.4,Win32,60.0060006,Chrome,1536,864,,,,,0,603,,,,,,,,,,,,,,,,,125,S,triangle,1,0,,2,,,,,,,,,,,,,,switch,number,numSwt,d,1.1729,vtsPrac,5,0,5,0,1,,,,,,,,,,,,,,,,,,,,,,,
294880,2022-09-23_19h40.11.944,vts_reward_expectancy,2022.2.4,Win32,60.0060006,Chrome,1536,864,,,,,0,603,,,,,,,,,,,,,,,,,167,H,star,1,0,,2,,,,,,,,,,,,,,switch,letter,lettSwt,j,0.9519,vtsPrac,6,0,6,0,1,,,,,,,,,,,,,,,,,,,,,,,
294880,2022-09-23_19h40.11.944,vts_reward_expectancy,2022.2.4,Win32,60.0060006,Chrome,1536,864,,,,,0,603,,,,,,,,,,,,,,,,,174,W,circle,1,0,,2,,,,,,,,,,,,,,switch,number,numSwt,f,0.7667,vtsPrac,7,0,7,0,1,,,,,,,,,,,,,,,,,,,,,,,
294880,2022-09-23_19h40.11.944,vts_reward_expectancy,2022.2.4,Win32,60.0060006,Chrome,1536,864,,,,,0,603,,,,,,,,,,,,,,,,,167,D,star,1,0,,2,,,,,,,,,,,,,,switch,letter,lettSwt,j,1.7179,vtsPrac,8,0,8,0,1,,,,,,,,,,,,,,,,,,,,,,,
294880,2022-09-23_19h40.11.944,vts_reward_expectancy,2022.2.4,Win32,60.0060006,Chrome,1536,864,,,,,0,603,,,,,,,,,,,,,,,,,146,Y,triangle,1,0,,2,,,,,,,,,,,,,,repeat,letter,lettRpt,k,2.9016,vtsPrac,9,0,9,0,1,,,,,,,,,,,,,,,,,,,,,,,
294880,2022-09-23_19h40.11.944,vts_reward_expectancy,2022.2.4,Win32,60.0060006,Chrome,1536,864,,,,,0,603,,,,,,,,,,,,,,,,,160,B,triangle,1,0,,2,,,,,,,,,,,,,,switch,number,numSwt,f,0.7173,vtsPrac,10,0,10,0,1,,,,,,,,,,,,,,,,,,,,,,,
294880,2022-09-23_19h40.11.944,vts_reward_expectancy,2022.2.4,Win32,60.0060006,Chrome,1536,864,,,,,0,603,,,,,,,,,,,,,,,,,125,U,star,1,0,,2,,,,,,,,,,,,,,switch,letter,lettSwt,k,0.8354,vtsPrac,11,0,11,0,1,,,,,,,,,,,,,,,,,,,,,,,
294880,2022-09-23_19h40.11.944,vts_reward_expectancy,2022.2.4,Win32,60.0060006,Chrome,1536,864,,,,,0,603,,,,,,,,,,,,,,,,,181,W,circle,1,0,,2,,,,,,,,,,,,,,switch,number,numSwt,f,1.4101,vtsPrac,12,0,12,0,1,,,,,,,,,,,,,,,,,,,,,,,
294880,2022-09-23_19h40.11.944,vts_reward_expectancy,2022.2.4,Win32,60.0060006,Chrome,1536,864,,,,,0,603,,,,,,,,,,,,,,,,,174,F,hexagon,1,0,,2,,,,,,,,,,,,,,repeat,number,numRpt,f,1.0687,vtsPrac,13,0,13,0,1,,,,,,,,,,,,,,,,,,,,,,,
294880,2022-09-23_19h40.11.944,vts_reward_expectancy,2022.2.4,Win32,60.0060006,Chrome,1536,864,,,,,0,603,,,,,,,,,,,,,,,,,167,U,hexagon,1,0,,2,,,,,,,,,,,,,,repeat,number,numRpt,f,1.8342,vtsPrac,14,0,14,0,1,,,,,,,,,,,,,,,,,,,,,,,
294880,2022-09-23_19h40.11.944,vts_reward_expectancy,2022.2.4,Win32,60.0060006,Chrome,1536,864,,,,,0,603,,,,,,,,,,,,,,,,,125,B,triangle,1,0,,2,,,,,,,,,,,,,,repeat,number,numRpt,d,1.7983,vtsPrac,15,0,15,0,1,,,,,,,,,,,,,,,,,,,,,,,
294880,2022-09-23_19h40.11.944,vts_reward_expectancy,2022.2.4,Win32,60.0060006,Chrome,1536,864,,,,,,,,,,,,,,,,,,,,,,,,,,,,,,,,,,,,,,,,,,,,,,,,,,,,,,,,,,,,,,,,,,,,,,,,,,,,
294880,2022-09-23_19h40.11.944,vts_reward_expectancy,2022.2.4,Win32,60.0060006,Chrome,1536,864,,,,,,,,,,,,,,,,,,,,,,,,,,,,,,,,,,,,,,,,,,,,,,,,,,,,,,,,,,,,,,,,,,,,,,,,,,,,
294880,2022-09-23_19h40.11.944,vts_reward_expectancy,2022.2.4,Win32,60.0060006,Chrome,1536,864,,,,,0,603,,,,,,,,,,,,,,,,,174,Y,star,1,0,,,,,,,,,,,,,,,,repeat,number,numRpt,f,1.5831,noRew,,,,,,0,0,0,0,0,1,,,,,,,,,,,,,,,,,
294880,2022-09-23_19h40.11.944,vts_reward_expectancy,2022.2.4,Win32,60.0060006,Chrome,1536,864,,,,,0,603,,,,,,,,,,,,,,,,,139,D,hexagon,1,0,,,,,,,,,,,,,,,,switch,letter,lettSwt,j,1.217,noRew,,,,,,0,1,0,1,0,1,,,,,,,,,,,,,,,,,
294880,2022-09-23_19h40.11.944,vts_reward_expectancy,2022.2.4,Win32,60.0060006,Chrome,1536,864,,,,,0,603,,,,,,,,,,,,,,,,,160,S,star,1,0,,,,,,,,,,,,,,,,switch,number,numSwt,f,2.518,noRew,,,,,,0,2,0,2,0,1,,,,,,,,,,,,,,,,,
294880,2022-09-23_19h40.11.944,vts_reward_expectancy,2022.2.4,Win32,60.0060006,Chrome,1536,864,,,,,0,603,,,,,,,,,,,,,,,,,146,U,hexagon,1,0,,,,,,,,,,,,,,,,switch,letter,lettSwt,k,1.3018,noRew,,,,,,0,3,0,3,0,1,,,,,,,,,,,,,,,,,
294880,2022-09-23_19h40.11.944,vts_reward_expectancy,2022.2.4,Win32,60.0060006,Chrome,1536,864,,,,,0,603,,,,,,,,,,,,,,,,,174,Y,star,1,0,,,,,,,,,,,,,,,,switch,number,numSwt,f,0.7579,noRew,,,,,,0,4,0,4,0,1,,,,,,,,,,,,,,,,,
294880,2022-09-23_19h40.11.944,vts_reward_expectancy,2022.2.4,Win32,60.0060006,Chrome,1536,864,,,,,0,603,,,,,,,,,,,,,,,,,139,D,hexagon,1,0,,,,,,,,,,,,,,,,switch,letter,lettSwt,j,0.9524,noRew,,,,,,0,5,0,5,0,1,,,,,,,,,,,,,,,,,
294880,2022-09-23_19h40.11.944,vts_reward_expectancy,2022.2.4,Win32,60.0060006,Chrome,1536,864,,,,,0,603,,,,,,,,,,,,,,,,,160,S,hexagon,1,0,,,,,,,,,,,,,,,,switch,number,numSwt,f,0.9682,noRew,,,,,,0,6,0,6,0,1,,,,,,,,,,,,,,,,,
294880,2022-09-23_19h40.11.944,vts_reward_expectancy,2022.2.4,Win32,60.0060006,Chrome,1536,864,,,,,0,603,,,,,,,,,,,,,,,,,146,U,circle,1,0,,,,,,,,,,,,,,,,switch,letter,lettSwt,k,1.5873,noRew,,,,,,0,7,0,7,0,1,,,,,,,,,,,,,,,,,
294880,2022-09-23_19h40.11.944,vts_reward_expectancy,2022.2.4,Win32,60.0060006,Chrome,1536,864,,,,,0,603,,,,,,,,,,,,,,,,,160,H,circle,1,0,,,,,,,,,,,,,,,,switch,number,numSwt,f,1.1172,noRew,,,,,,0,8,0,8,0,1,,,,,,,,,,,,,,,,,
294880,2022-09-23_19h40.11.944,vts_reward_expectancy,2022.2.4,Win32,60.0060006,Chrome,1536,864,,,,,0,603,,,,,,,,,,,,,,,,,181,B,star,1,0,,,,,,,,,,,,,,,,switch,letter,lettSwt,j,0.7008,noRew,,,,,,0,9,0,9,0,1,,,,,,,,,,,,,,,,,
294880,2022-09-23_19h40.11.944,vts_reward_expectancy,2022.2.4,Win32,60.0060006,Chrome,1536,864,,,,,0,603,,,,,,,,,,,,,,,,,167,S,triangle,1,0,,,,,,,,,,,,,,,,switch,number,numSwt,f,1.1837,noRew,,,,,,0,10,0,10,0,1,,,,,,,,,,,,,,,,,
294880,2022-09-23_19h40.11.944,vts_reward_expectancy,2022.2.4,Win32,60.0060006,Chrome,1536,864,,,,,0,603,,,,,,,,,,,,,,,,,125,W,star,1,0,,,,,,,,,,,,,,,,switch,letter,lettSwt,k,1.4008,noRew,,,,,,0,11,0,11,0,1,,,,,,,,,,,,,,,,,
294880,2022-09-23_19h40.11.944,vts_reward_expectancy,2022.2.4,Win32,60.0060006,Chrome,1536,864,,,,,0,603,,,,,,,,,,,,,,,,,174,H,triangle,1,0,,,,,,,,,,,,,,,,switch,number,numSwt,f,2.0358,noRew,,,,,,0,12,0,12,0,1,,,,,,,,,,,,,,,,,
294880,2022-09-23_19h40.11.944,vts_reward_expectancy,2022.2.4,Win32,60.0060006,Chrome,1536,864,,,,,0,603,,,,,,,,,,,,,,,,,181,W,circle,1,0,,,,,,,,,,,,,,,,switch,letter,lettSwt,k,0.6841,noRew,,,,,,0,13,0,13,0,1,,,,,,,,,,,,,,,,,
294880,2022-09-23_19h40.11.944,vts_reward_expectancy,2022.2.4,Win32,60.0060006,Chrome,1536,864,,,,,0,603,,,,,,,,,,,,,,,,,132,S,star,-1,0,,,,,,,,,,,,,,,,switch,no_choice,NA,,,noRew,,,,,,0,14,0,14,0,1,,,,,,,,,,,,,,,,,
294880,2022-09-23_19h40.11.944,vts_reward_expectancy,2022.2.4,Win32,60.0060006,Chrome,1536,864,,,,,0,603,,,,,,,,,,,,,,,,,139,Y,triangle,0,0,,,,,,,,,,,,,,,,switch,number,NA,f,1.5835,noRew,,,,,,0,15,0,15,0,1,,,,,,,,,,,,,,,,,
294880,2022-09-23_19h40.11.944,vts_reward_expectancy,2022.2.4,Win32,60.0060006,Chrome,1536,864,,,,,0,603,,,,,,,,,,,,,,,,,174,B,hexagon,1,1,,,,,,,,,,,,,,,,switch,letter,lettSwt,j,1.452,noRew,,,,,,0,16,0,16,0,1,,,,,,,,,,,,,,,,,
294880,2022-09-23_19h40.11.944,vts_reward_expectancy,2022.2.4,Win32,60.0060006,Chrome,1536,864,,,,,0,603,,,,,,,,,,,,,,,,,125,S,triangle,1,0,,,,,,,,,,,,,,,,switch,number,numSwt,d,0.9732,noRew,,,,,,0,17,0,17,0,1,,,,,,,,,,,,,,,,,
294880,2022-09-23_19h40.11.944,vts_reward_expectancy,2022.2.4,Win32,60.0060006,Chrome,1536,864,,,,,0,603,,,,,,,,,,,,,,,,,167,U,star,1,0,,,,,,,,,,,,,,,,repeat,number,numRpt,f,1.1155,noRew,,,,,,0,18,0,18,0,1,,,,,,,,,,,,,,,,,
294880,2022-09-23_19h40.11.944,vts_reward_expectancy,2022.2.4,Win32,60.0060006,Chrome,1536,864,,,,,0,603,,,,,,,,,,,,,,,,,146,W,triangle,1,0,,,,,,,,,,,,,,,,switch,letter,lettSwt,k,0.9345,noRew,,,,,,0,19,0,19,0,1,,,,,,,,,,,,,,,,,
294880,2022-09-23_19h40.11.944,vts_reward_expectancy,2022.2.4,Win32,60.0060006,Chrome,1536,864,,,,,0,603,,,,,,,,,,,,,,,,,181,Y,hexagon,1,0,,,,,,,,,,,,,,,,switch,number,numSwt,f,2.1197,noRew,,,,,,0,20,0,20,0,1,,,,,,,,,,,,,,,,,
294880,2022-09-23_19h40.11.944,vts_reward_expectancy,2022.2.4,Win32,60.0060006,Chrome,1536,864,,,,,0,603,,,,,,,,,,,,,,,,,139,F,star,1,0,,,,,,,,,,,,,,,,switch,letter,lettSwt,j,0.9143,noRew,,,,,,0,21,0,21,0,1,,,,,,,,,,,,,,,,,
294880,2022-09-23_19h40.11.944,vts_reward_expectancy,2022.2.4,Win32,60.0060006,Chrome,1536,864,,,,,0,603,,,,,,,,,,,,,,,,,125,H,hexagon,1,0,,,,,,,,,,,,,,,,switch,number,numSwt,d,1.2622,noRew,,,,,,0,22,0,22,0,1,,,,,,,,,,,,,,,,,
294880,2022-09-23_19h40.11.944,vts_reward_expectancy,2022.2.4,Win32,60.0060006,Chrome,1536,864,,,,,0,603,,,,,,,,,,,,,,,,,167,U,triangle,1,0,,,,,,,,,,,,,,,,repeat,number,numRpt,f,1.5796,noRew,,,,,,0,23,0,23,0,1,,,,,,,,,,,,,,,,,
294880,2022-09-23_19h40.11.944,vts_reward_expectancy,2022.2.4,Win32,60.0060006,Chrome,1536,864,,,,,0,603,,,,,,,,,,,,,,,,,174,H,circle,1,0,,,,,,,,,,,,,,,,switch,letter,lettSwt,j,1.0433,noRew,,,,,,0,24,0,24,0,1,,,,,,,,,,,,,,,,,
294880,2022-09-23_19h40.11.944,vts_reward_expectancy,2022.2.4,Win32,60.0060006,Chrome,1536,864,,,,,0,603,,,,,,,,,,,,,,,,,160,S,star,1,0,,,,,,,,,,,,,,,,switch,number,numSwt,f,1.1442,noRew,,,,,,0,25,0,25,0,1,,,,,,,,,,,,,,,,,
294880,2022-09-23_19h40.11.944,vts_reward_expectancy,2022.2.4,Win32,60.0060006,Chrome,1536,864,,,,,0,603,,,,,,,,,,,,,,,,,139,Y,triangle,0,0,,,,,,,,,,,,,,,,repeat,number,NA,f,0.8151,noRew,,,,,,0,26,0,26,0,1,,,,,,,,,,,,,,,,,
294880,2022-09-23_19h40.11.944,vts_reward_expectancy,2022.2.4,Win32,60.0060006,Chrome,1536,864,,,,,0,603,,,,,,,,,,,,,,,,,125,F,circle,1,1,,,,,,,,,,,,,,,,switch,letter,lettSwt,j,1.5627,noRew,,,,,,0,27,0,27,0,1,,,,,,,,,,,,,,,,,
294880,2022-09-23_19h40.11.944,vts_reward_expectancy,2022.2.4,Win32,60.0060006,Chrome,1536,864,,,,,0,603,,,,,,,,,,,,,,,,,146,U,triangle,1,0,,,,,,,,,,,,,,,,switch,number,numSwt,d,1.633,noRew,,,,,,0,28,0,28,0,1,,,,,,,,,,,,,,,,,
294880,2022-09-23_19h40.11.944,vts_reward_expectancy,2022.2.4,Win32,60.0060006,Chrome,1536,864,,,,,0,603,,,,,,,,,,,,,,,,,174,D,circle,1,0,,,,,,,,,,,,,,,,switch,letter,lettSwt,j,1.045,noRew,,,,,,0,29,0,29,0,1,,,,,,,,,,,,,,,,,
294880,2022-09-23_19h40.11.944,vts_reward_expectancy,2022.2.4,Win32,60.0060006,Chrome,1536,864,,,,,0,603,,,,,,,,,,,,,,,,,160,W,hexagon,1,0,,,,,,,,,,,,,,,,switch,number,numSwt,f,2.0677,noRew,,,,,,0,30,0,30,0,1,,,,,,,,,,,,,,,,,
294880,2022-09-23_19h40.11.944,vts_reward_expectancy,2022.2.4,Win32,60.0060006,Chrome,1536,864,,,,,0,603,,,,,,,,,,,,,,,,,132,B,triangle,1,0,,,,,,,,,,,,,,,,switch,letter,lettSwt,j,2.2314,noRew,,,,,,0,31,0,31,0,1,,,,,,,,,,,,,,,,,
294880,2022-09-23_19h40.11.944,vts_reward_expectancy,2022.2.4,Win32,60.0060006,Chrome,1536,864,,,,,0,603,,,,,,,,,,,,,,,,,160,H,hexagon,1,0,,,,,,,,,,,,,,,,switch,number,numSwt,f,1.2167,noRew,,,,,,0,32,0,32,0,1,,,,,,,,,,,,,,,,,
294880,2022-09-23_19h40.11.944,vts_reward_expectancy,2022.2.4,Win32,60.0060006,Chrome,1536,864,,,,,0,603,,,,,,,,,,,,,,,,,181,S,circle,1,0,,,,,,,,,,,,,,,,switch,letter,lettSwt,k,2.5372,noRew,,,,,,0,33,0,33,0,1,,,,,,,,,,,,,,,,,
294880,2022-09-23_19h40.11.944,vts_reward_expectancy,2022.2.4,Win32,60.0060006,Chrome,1536,864,,,,,0,603,,,,,,,,,,,,,,,,,174,B,triangle,1,0,,,,,,,,,,,,,,,,repeat,letter,lettRpt,j,1.1671,noRew,,,,,,0,34,0,34,0,1,,,,,,,,,,,,,,,,,
294880,2022-09-23_19h40.11.944,vts_reward_expectancy,2022.2.4,Win32,60.0060006,Chrome,1536,864,,,,,0,603,,,,,,,,,,,,,,,,,125,U,circle,1,0,,,,,,,,,,,,,,,,repeat,letter,lettRpt,k,1.8507,noRew,,,,,,0,35,0,35,0,1,,,,,,,,,,,,,,,,,
294880,2022-09-23_19h40.11.944,vts_reward_expectancy,2022.2.4,Win32,60.0060006,Chrome,1536,864,,,,,0,603,,,,,,,,,,,,,,,,,174,D,circle,-1,0,,,,,,,,,,,,,,,,switch,no_choice,NA,,,noRew,,,,,,0,36,0,36,0,1,,,,,,,,,,,,,,,,,
294880,2022-09-23_19h40.11.944,vts_reward_expectancy,2022.2.4,Win32,60.0060006,Chrome,1536,864,,,,,0,603,,,,,,,,,,,,,,,,,132,U,star,1,0,,,,,,,,,,,,,,,,switch,number,numSwt,d,1.0186,noRew,,,,,,0,37,0,37,0,1,,,,,,,,,,,,,,,,,
294880,2022-09-23_19h40.11.944,vts_reward_expectancy,2022.2.4,Win32,60.0060006,Chrome,1536,864,,,,,0,603,,,,,,,,,,,,,,,,,181,H,triangle,1,0,,,,,,,,,,,,,,,,repeat,number,numRpt,f,0.7026,noRew,,,,,,0,38,0,38,0,1,,,,,,,,,,,,,,,,,
294880,2022-09-23_19h40.11.944,vts_reward_expectancy,2022.2.4,Win32,60.0060006,Chrome,1536,864,,,,,0,603,,,,,,,,,,,,,,,,,167,F,circle,1,0,,,,,,,,,,,,,,,,switch,letter,lettSwt,j,1.4684,noRew,,,,,,0,39,0,39,0,1,,,,,,,,,,,,,,,,,
294880,2022-09-23_19h40.11.944,vts_reward_expectancy,2022.2.4,Win32,60.0060006,Chrome,1536,864,,,,,0,603,,,,,,,,,,,,,,,,,132,Y,triangle,1,0,,,,,,,,,,,,,,,,repeat,letter,lettRpt,k,1.1841,noRew,,,,,,0,40,0,40,0,1,,,,,,,,,,,,,,,,,
294880,2022-09-23_19h40.11.944,vts_reward_expectancy,2022.2.4,Win32,60.0060006,Chrome,1536,864,,,,,0,603,,,,,,,,,,,,,,,,,181,S,hexagon,1,0,,,,,,,,,,,,,,,,switch,number,numSwt,f,1.0393,noRew,,,,,,0,41,0,41,0,1,,,,,,,,,,,,,,,,,
294880,2022-09-23_19h40.11.944,vts_reward_expectancy,2022.2.4,Win32,60.0060006,Chrome,1536,864,,,,,0,603,,,,,,,,,,,,,,,,,160,D,triangle,1,0,,,,,,,,,,,,,,,,switch,letter,lettSwt,j,0.851,noRew,,,,,,0,42,0,42,0,1,,,,,,,,,,,,,,,,,
294880,2022-09-23_19h40.11.944,vts_reward_expectancy,2022.2.4,Win32,60.0060006,Chrome,1536,864,,,,,0,603,,,,,,,,,,,,,,,,,146,W,star,1,0,,,,,,,,,,,,,,,,repeat,letter,lettRpt,k,1.8838,noRew,,,,,,0,43,0,43,0,1,,,,,,,,,,,,,,,,,
294880,2022-09-23_19h40.11.944,vts_reward_expectancy,2022.2.4,Win32,60.0060006,Chrome,1536,864,,,,,0,603,,,,,,,,,,,,,,,,,132,B,hexagon,1,0,,,,,,,,,,,,,,,,switch,number,numSwt,d,1.3561,noRew,,,,,,0,44,0,44,0,1,,,,,,,,,,,,,,,,,
294880,2022-09-23_19h40.11.944,vts_reward_expectancy,2022.2.4,Win32,60.0060006,Chrome,1536,864,,,,,0,603,,,,,,,,,,,,,,,,,125,H,triangle,1,0,,,,,,,,,,,,,,,,repeat,number,numRpt,d,2.2182,noRew,,,,,,0,45,0,45,0,1,,,,,,,,,,,,,,,,,
294880,2022-09-23_19h40.11.944,vts_reward_expectancy,2022.2.4,Win32,60.0060006,Chrome,1536,864,,,,,0,603,,,,,,,,,,,,,,,,,167,U,circle,1,0,,,,,,,,,,,,,,,,switch,letter,lettSwt,k,0.865,noRew,,,,,,0,46,0,46,0,1,,,,,,,,,,,,,,,,,
294880,2022-09-23_19h40.11.944,vts_reward_expectancy,2022.2.4,Win32,60.0060006,Chrome,1536,864,,,,,0,603,,,,,,,,,,,,,,,,,181,W,hexagon,1,0,,,,,,,,,,,,,,,,switch,number,numSwt,f,1.3377,noRew,,,,,,0,47,0,47,0,1,,,,,,,,,,,,,,,,,
294880,2022-09-23_19h40.11.944,vts_reward_expectancy,2022.2.4,Win32,60.0060006,Chrome,1536,864,,,,,0,603,,,,,,,,,,,,,,,,,139,S,triangle,1,0,,,,,,,,,,,,,,,,repeat,number,numRpt,d,1.0004,noRew,,,,,,0,48,0,48,0,1,,,,,,,,,,,,,,,,,
294880,2022-09-23_19h40.11.944,vts_reward_expectancy,2022.2.4,Win32,60.0060006,Chrome,1536,864,,,,,0,603,,,,,,,,,,,,,,,,,167,Y,hexagon,1,0,,,,,,,,,,,,,,,,switch,letter,lettSwt,k,0.6894,noRew,,,,,,0,49,0,49,0,1,,,,,,,,,,,,,,,,,
294880,2022-09-23_19h40.11.944,vts_reward_expectancy,2022.2.4,Win32,60.0060006,Chrome,1536,864,,,,,0,603,,,,,,,,,,,,,,,,,174,W,hexagon,1,0,,,,,,,,,,,,,,,,repeat,letter,lettRpt,k,0.9639,noRew,,,,,,0,50,0,50,0,1,,,,,,,,,,,,,,,,,
294880,2022-09-23_19h40.11.944,vts_reward_expectancy,2022.2.4,Win32,60.0060006,Chrome,1536,864,,,,,0,603,,,,,,,,,,,,,,,,,146,F,triangle,1,0,,,,,,,,,,,,,,,,switch,number,numSwt,d,1.8795,noRew,,,,,,0,51,0,51,0,1,,,,,,,,,,,,,,,,,
294880,2022-09-23_19h40.11.944,vts_reward_expectancy,2022.2.4,Win32,60.0060006,Chrome,1536,864,,,,,0,603,,,,,,,,,,,,,,,,,125,B,triangle,1,0,,,,,,,,,,,,,,,,switch,letter,lettSwt,j,0.8164,noRew,,,,,,0,52,0,52,0,1,,,,,,,,,,,,,,,,,
294880,2022-09-23_19h40.11.944,vts_reward_expectancy,2022.2.4,Win32,60.0060006,Chrome,1536,864,,,,,0,603,,,,,,,,,,,,,,,,,167,Y,star,1,0,,,,,,,,,,,,,,,,switch,number,numSwt,f,1.6801,noRew,,,,,,0,53,0,53,0,1,,,,,,,,,,,,,,,,,
294880,2022-09-23_19h40.11.944,vts_reward_expectancy,2022.2.4,Win32,60.0060006,Chrome,1536,864,,,,,0,603,,,,,,,,,,,,,,,,,160,U,hexagon,1,0,,,,,,,,,,,,,,,,repeat,number,numRpt,f,1.1963,noRew,,,,,,0,54,0,54,0,1,,,,,,,,,,,,,,,,,
294880,2022-09-23_19h40.11.944,vts_reward_expectancy,2022.2.4,Win32,60.0060006,Chrome,1536,864,,,,,0,603,,,,,,,,,,,,,,,,,132,S,triangle,1,0,,,,,,,,,,,,,,,,switch,letter,lettSwt,k,1.931,noRew,,,,,,0,55,0,55,0,1,,,,,,,,,,,,,,,,,
294880,2022-09-23_19h40.11.944,vts_reward_expectancy,2022.2.4,Win32,60.0060006,Chrome,1536,864,,,,,0,603,,,,,,,,,,,,,,,,,181,B,star,1,0,,,,,,,,,,,,,,,,repeat,letter,lettRpt,j,0.9629,noRew,,,,,,0,56,0,56,0,1,,,,,,,,,,,,,,,,,
294880,2022-09-23_19h40.11.944,vts_reward_expectancy,2022.2.4,Win32,60.0060006,Chrome,1536,864,,,,,0,603,,,,,,,,,,,,,,,,,146,D,triangle,1,0,,,,,,,,,,,,,,,,repeat,letter,lettRpt,j,1.3799,noRew,,,,,,0,57,0,57,0,1,,,,,,,,,,,,,,,,,
294880,2022-09-23_19h40.11.944,vts_reward_expectancy,2022.2.4,Win32,60.0060006,Chrome,1536,864,,,,,0,603,,,,,,,,,,,,,,,,,167,U,triangle,1,0,,,,,,,,,,,,,,,,switch,number,numSwt,f,1.3806,noRew,,,,,,0,58,0,58,0,1,,,,,,,,,,,,,,,,,
294880,2022-09-23_19h40.11.944,vts_reward_expectancy,2022.2.4,Win32,60.0060006,Chrome,1536,864,,,,,0,603,,,,,,,,,,,,,,,,,160,Y,star,1,0,,,,,,,,,,,,,,,,switch,letter,lettSwt,k,1.4164,noRew,,,,,,0,59,0,59,0,1,,,,,,,,,,,,,,,,,
294880,2022-09-23_19h40.11.944,vts_reward_expectancy,2022.2.4,Win32,60.0060006,Chrome,1536,864,,,,,0,603,,,,,,,,,,,,,,,,,146,B,circle,1,0,,,,,,,,,,,,,,,,switch,number,numSwt,d,1.5799,noRew,,,,,,0,60,0,60,0,1,,,,,,,,,,,,,,,,,
294880,2022-09-23_19h40.11.944,vts_reward_expectancy,2022.2.4,Win32,60.0060006,Chrome,1536,864,,,,,0,603,,,,,,,,,,,,,,,,,181,D,triangle,1,0,,,,,,,,,,,,,,,,switch,letter,lettSwt,j,1.1315,noRew,,,,,,0,61,0,61,0,1,,,,,,,,,,,,,,,,,
294880,2022-09-23_19h40.11.944,vts_reward_expectancy,2022.2.4,Win32,60.0060006,Chrome,1536,864,,,,,0,603,,,,,,,,,,,,,,,,,160,F,star,1,0,,,,,,,,,,,,,,,,switch,number,numSwt,f,1.349,noRew,,,,,,0,62,0,62,0,1,,,,,,,,,,,,,,,,,
294880,2022-09-23_19h40.11.944,vts_reward_expectancy,2022.2.4,Win32,60.0060006,Chrome,1536,864,,,,,0,603,,,,,,,,,,,,,,,,,139,U,hexagon,1,0,,,,,,,,,,,,,,,,switch,letter,lettSwt,k,1.4987,noRew,,,,,,0,63,0,63,0,1,,,,,,,,,,,,,,,,,
294880,2022-09-23_19h40.11.944,vts_reward_expectancy,2022.2.4,Win32,60.0060006,Chrome,1536,864,,,,,,,,,,,,,,,,,,,,,,,,,,,,,,,,,,,,,,,,,,,,,,,,,,,,,,,,,,,,,,,,,,,,,,,,,,,,
294880,2022-09-23_19h40.11.944,vts_reward_expectancy,2022.2.4,Win32,60.0060006,Chrome,1536,864,,,,,1,604,,,,,,,,,,,,,,,,,139,S,star,1,0,,,,,,,,,,,,,,,,switch,number,numSwt,d,1.4329,Lo,,,,,,0,,,,,,space,8.2854,low,0,0,0,0,1,,,,,,,,,
294880,2022-09-23_19h40.11.944,vts_reward_expectancy,2022.2.4,Win32,60.0060006,Chrome,1536,864,,,,,1,605,,,,,,,,,,,,,,,,,125,Y,triangle,1,0,,,,,,,,,,,,,,,,switch,letter,lettSwt,k,0.9344,Hi,,,,,,0,,,,,,,,low,1,0,1,0,1,,,,,,,,,
294880,2022-09-23_19h40.11.944,vts_reward_expectancy,2022.2.4,Win32,60.0060006,Chrome,1536,864,,,,,1,606,,,,,,,,,,,,,,,,,132,D,star,1,0,,,,,,,,,,,,,,,,repeat,letter,lettRpt,j,1.3007,Lo,,,,,,0,,,,,,,,low,2,0,2,0,1,,,,,,,,,
294880,2022-09-23_19h40.11.944,vts_reward_expectancy,2022.2.4,Win32,60.0060006,Chrome,1536,864,,,,,10,616,,,,,,,,,,,,,,,,,181,B,triangle,1,0,,,,,,,,,,,,,,,,switch,number,numSwt,f,1.0516,Hi,,,,,,0,,,,,,,,low,3,0,3,0,1,,,,,,,,,
294880,2022-09-23_19h40.11.944,vts_reward_expectancy,2022.2.4,Win32,60.0060006,Chrome,1536,864,,,,,0,616,,,,,,,,,,,,,,,,,174,W,triangle,1,0,,,,,,,,,,,,,,,,switch,letter,lettSwt,k,1.4855,Hi,,,,,,0,,,,,,,,low,4,0,4,0,1,,,,,,,,,
294880,2022-09-23_19h40.11.944,vts_reward_expectancy,2022.2.4,Win32,60.0060006,Chrome,1536,864,,,,,1,617,,,,,,,,,,,,,,,,,167,H,star,1,0,,,,,,,,,,,,,,,,switch,number,numSwt,f,0.916,Lo,,,,,,0,,,,,,,,low,5,0,5,0,1,,,,,,,,,
294880,2022-09-23_19h40.11.944,vts_reward_expectancy,2022.2.4,Win32,60.0060006,Chrome,1536,864,,,,,10,627,,,,,,,,,,,,,,,,,146,F,triangle,1,0,,,,,,,,,,,,,,,,repeat,number,numRpt,d,1.0583,Hi,,,,,,0,,,,,,,,low,6,0,6,0,1,,,,,,,,,
294880,2022-09-23_19h40.11.944,vts_reward_expectancy,2022.2.4,Win32,60.0060006,Chrome,1536,864,,,,,10,637,,,,,,,,,,,,,,,,,160,U,star,1,0,,,,,,,,,,,,,,,,switch,letter,lettSwt,k,0.8073,Lo,,,,,,0,,,,,,,,low,7,0,7,0,1,,,,,,,,,
294880,2022-09-23_19h40.11.944,vts_reward_expectancy,2022.2.4,Win32,60.0060006,Chrome,1536,864,,,,,10,647,,,,,,,,,,,,,,,,,139,S,triangle,1,0,,,,,,,,,,,,,,,,switch,number,numSwt,d,1.0301,Hi,,,,,,0,,,,,,,,low,8,0,8,0,1,,,,,,,,,
294880,2022-09-23_19h40.11.944,vts_reward_expectancy,2022.2.4,Win32,60.0060006,Chrome,1536,864,,,,,10,657,,,,,,,,,,,,,,,,,125,Y,star,1,0,,,,,,,,,,,,,,,,switch,letter,lettSwt,k,0.6877,Lo,,,,,,0,,,,,,,,low,9,0,9,0,1,,,,,,,,,
294880,2022-09-23_19h40.11.944,vts_reward_expectancy,2022.2.4,Win32,60.0060006,Chrome,1536,864,,,,,10,667,,,,,,,,,,,,,,,,,132,D,triangle,1,0,,,,,,,,,,,,,,,,switch,number,numSwt,d,1.0654,Hi,,,,,,0,,,,,,,,low,10,0,10,0,1,,,,,,,,,
294880,2022-09-23_19h40.11.944,vts_reward_expectancy,2022.2.4,Win32,60.0060006,Chrome,1536,864,,,,,1,668,,,,,,,,,,,,,,,,,181,B,star,1,0,,,,,,,,,,,,,,,,switch,letter,lettSwt,j,0.7694,Lo,,,,,,0,,,,,,,,low,11,0,11,0,1,,,,,,,,,
294880,2022-09-23_19h40.11.944,vts_reward_expectancy,2022.2.4,Win32,60.0060006,Chrome,1536,864,,,,,1,669,,,,,,,,,,,,,,,,,174,W,triangle,1,0,,,,,,,,,,,,,,,,repeat,letter,lettRpt,k,1.0185,Hi,,,,,,0,,,,,,,,low,12,0,12,0,1,,,,,,,,,
294880,2022-09-23_19h40.11.944,vts_reward_expectancy,2022.2.4,Win32,60.0060006,Chrome,1536,864,,,,,1,670,,,,,,,,,,,,,,,,,167,H,star,1,0,,,,,,,,,,,,,,,,switch,number,numSwt,f,1.534,Lo,,,,,,0,,,,,,,,low,13,0,13,0,1,,,,,,,,,
294880,2022-09-23_19h40.11.944,vts_reward_expectancy,2022.2.4,Win32,60.0060006,Chrome,1536,864,,,,,10,680,,,,,,,,,,,,,,,,,146,F,triangle,1,0,,,,,,,,,,,,,,,,switch,letter,lettSwt,j,0.7391,Hi,,,,,,0,,,,,,,,low,14,0,14,0,1,,,,,,,,,
294880,2022-09-23_19h40.11.944,vts_reward_expectancy,2022.2.4,Win32,60.0060006,Chrome,1536,864,,,,,1,681,,,,,,,,,,,,,,,,,160,U,star,1,0,,,,,,,,,,,,,,,,switch,number,numSwt,f,0.751,Lo,,,,,,0,,,,,,,,low,15,0,15,0,1,,,,,,,,,
294880,2022-09-23_19h40.11.944,vts_reward_expectancy,2022.2.4,Win32,60.0060006,Chrome,1536,864,,,,,1,682,,,,,,,,,,,,,,,,,125,H,star,1,0,,,,,,,,,,,,,,,,switch,letter,lettSwt,j,2.0038,Lo,,,,,,0,,,,,,,,low,16,0,16,0,1,,,,,,,,,
294880,2022-09-23_19h40.11.944,vts_reward_expectancy,2022.2.4,Win32,60.0060006,Chrome,1536,864,,,,,0,682,,,,,,,,,,,,,,,,,174,D,triangle,1,0,,,,,,,,,,,,,,,,switch,number,numSwt,f,1.584,Hi,,,,,,0,,,,,,,,low,17,0,17,0,1,,,,,,,,,
294880,2022-09-23_19h40.11.944,vts_reward_expectancy,2022.2.4,Win32,60.0060006,Chrome,1536,864,,,,,0,682,,,,,,,,,,,,,,,,,146,W,triangle,0,0,,,,,,,,,,,,,,,,repeat,number,NA,f,1.2032,Hi,,,,,,0,,,,,,,,low,18,0,18,0,1,,,,,,,,,
294880,2022-09-23_19h40.11.944,vts_reward_expectancy,2022.2.4,Win32,60.0060006,Chrome,1536,864,,,,,1,683,,,,,,,,,,,,,,,,,167,B,star,1,1,,,,,,,,,,,,,,,,repeat,number,numRpt,f,1.3503,Lo,,,,,,0,,,,,,,,low,19,0,19,0,1,,,,,,,,,
294880,2022-09-23_19h40.11.944,vts_reward_expectancy,2022.2.4,Win32,60.0060006,Chrome,1536,864,,,,,10,693,,,,,,,,,,,,,,,,,181,U,star,1,0,,,,,,,,,,,,,,,,switch,letter,lettSwt,k,0.9845,Lo,,,,,,0,,,,,,,,low,20,0,20,0,1,,,,,,,,,
294880,2022-09-23_19h40.11.944,vts_reward_expectancy,2022.2.4,Win32,60.0060006,Chrome,1536,864,,,,,0,693,,,,,,,,,,,,,,,,,160,S,triangle,1,0,,,,,,,,,,,,,,,,switch,number,numSwt,f,1.2233,Hi,,,,,,0,,,,,,,,low,21,0,21,0,1,,,,,,,,,
294880,2022-09-23_19h40.11.944,vts_reward_expectancy,2022.2.4,Win32,60.0060006,Chrome,1536,864,,,,,10,703,,,,,,,,,,,,,,,,,132,F,star,1,0,,,,,,,,,,,,,,,,repeat,number,numRpt,d,1.0849,Lo,,,,,,0,,,,,,,,low,22,0,22,0,1,,,,,,,,,
294880,2022-09-23_19h40.11.944,vts_reward_expectancy,2022.2.4,Win32,60.0060006,Chrome,1536,864,,,,,10,713,,,,,,,,,,,,,,,,,139,Y,triangle,1,0,,,,,,,,,,,,,,,,repeat,number,numRpt,d,0.9528,Hi,,,,,,0,,,,,,,,low,23,0,23,0,1,,,,,,,,,
294880,2022-09-23_19h40.11.944,vts_reward_expectancy,2022.2.4,Win32,60.0060006,Chrome,1536,864,,,,,1,714,,,,,,,,,,,,,,,,,167,D,star,1,0,,,,,,,,,,,,,,,,repeat,number,numRpt,f,0.9023,Lo,,,,,,0,,,,,,,,low,24,0,24,0,1,,,,,,,,,
294880,2022-09-23_19h40.11.944,vts_reward_expectancy,2022.2.4,Win32,60.0060006,Chrome,1536,864,,,,,0,714,,,,,,,,,,,,,,,,,139,W,triangle,1,0,,,,,,,,,,,,,,,,repeat,number,numRpt,d,1.3389,Hi,,,,,,0,,,,,,,,low,25,0,25,0,1,,,,,,,,,
294880,2022-09-23_19h40.11.944,vts_reward_expectancy,2022.2.4,Win32,60.0060006,Chrome,1536,864,,,,,0,714,,,,,,,,,,,,,,,,,181,B,triangle,1,0,,,,,,,,,,,,,,,,repeat,number,numRpt,f,2.2538,Hi,,,,,,0,,,,,,,,low,26,0,26,0,1,,,,,,,,,
294880,2022-09-23_19h40.11.944,vts_reward_expectancy,2022.2.4,Win32,60.0060006,Chrome,1536,864,,,,,10,724,,,,,,,,,,,,,,,,,174,S,star,1,0,,,,,,,,,,,,,,,,repeat,number,numRpt,f,1.3183,Lo,,,,,,0,,,,,,,,low,27,0,27,0,1,,,,,,,,,
294880,2022-09-23_19h40.11.944,vts_reward_expectancy,2022.2.4,Win32,60.0060006,Chrome,1536,864,,,,,10,734,,,,,,,,,,,,,,,,,132,U,star,1,0,,,,,,,,,,,,,,,,repeat,number,numRpt,d,1.1549,Lo,,,,,,0,,,,,,,,low,28,0,28,0,1,,,,,,,,,
294880,2022-09-23_19h40.11.944,vts_reward_expectancy,2022.2.4,Win32,60.0060006,Chrome,1536,864,,,,,0,734,,,,,,,,,,,,,,,,,125,Y,triangle,1,0,,,,,,,,,,,,,,,,switch,letter,lettSwt,k,1.4515,Hi,,,,,,0,,,,,,,,low,29,0,29,0,1,,,,,,,,,
294880,2022-09-23_19h40.11.944,vts_reward_expectancy,2022.2.4,Win32,60.0060006,Chrome,1536,864,,,,,1,735,,,,,,,,,,,,,,,,,146,F,star,1,0,,,,,,,,,,,,,,,,repeat,letter,lettRpt,j,1.4354,Lo,,,,,,0,,,,,,,,low,30,0,30,0,1,,,,,,,,,
294880,2022-09-23_19h40.11.944,vts_reward_expectancy,2022.2.4,Win32,60.0060006,Chrome,1536,864,,,,,1,736,,,,,,,,,,,,,,,,,160,H,triangle,1,0,,,,,,,,,,,,,,,,switch,number,numSwt,f,0.7361,Hi,,,,,,0,,,,,,,,low,31,0,31,0,1,,,,,,,,,
294880,2022-09-23_19h40.11.944,vts_reward_expectancy,2022.2.4,Win32,60.0060006,Chrome,1536,864,,,,,1,737,,,,,,,,,,,,,,,,,174,W,circle,1,0,,,,,,,,,,,,,,,,switch,letter,lettSwt,k,0.7762,Lo,,,,,,1,,,,,,space,2.094,high,0,0,0,0,1,,,,,,,,,
294880,2022-09-23_19h40.11.944,vts_reward_expectancy,2022.2.4,Win32,60.0060006,Chrome,1536,864,,,,,10,747,,,,,,,,,,,,,,,,,132,S,hexagon,1,0,,,,,,,,,,,,,,,,repeat,letter,lettRpt,k,0.9848,Hi,,,,,,1,,,,,,,,high,1,0,1,0,1,,,,,,,,,
294880,2022-09-23_19h40.11.944,vts_reward_expectancy,2022.2.4,Win32,60.0060006,Chrome,1536,864,,,,,10,757,,,,,,,,,,,,,,,,,160,U,circle,1,0,,,,,,,,,,,,,,,,switch,number,numSwt,f,0.702,Lo,,,,,,1,,,,,,,,high,2,0,2,0,1,,,,,,,,,
294880,2022-09-23_19h40.11.944,vts_reward_expectancy,2022.2.4,Win32,60.0060006,Chrome,1536,864,,,,,0,757,,,,,,,,,,,,,,,,,139,Y,hexagon,1,0,,,,,,,,,,,,,,,,repeat,number,numRpt,d,1.2007,Hi,,,,,,1,,,,,,,,high,3,0,3,0,1,,,,,,,,,
294880,2022-09-23_19h40.11.944,vts_reward_expectancy,2022.2.4,Win32,60.0060006,Chrome,1536,864,,,,,0,757,,,,,,,,,,,,,,,,,125,H,circle,0,0,,,,,,,,,,,,,,,,switch,letter,NA,k,0.9992,Hi,,,,,,1,,,,,,,,high,4,0,4,0,1,,,,,,,,,
294880,2022-09-23_19h40.11.944,vts_reward_expectancy,2022.2.4,Win32,60.0060006,Chrome,1536,864,,,,,0,757,,,,,,,,,,,,,,,,,181,D,hexagon,1,1,,,,,,,,,,,,,,,,switch,number,numSwt,f,1.0961,Hi,,,,,,1,,,,,,,,high,5,0,5,0,1,,,,,,,,,
294880,2022-09-23_19h40.11.944,vts_reward_expectancy,2022.2.4,Win32,60.0060006,Chrome,1536,864,,,,,0,757,,,,,,,,,,,,,,,,,167,F,hexagon,1,0,,,,,,,,,,,,,,,,switch,letter,lettSwt,j,0.9116,Hi,,,,,,1,,,,,,,,high,6,0,6,0,1,,,,,,,,,
294880,2022-09-23_19h40.11.944,vts_reward_expectancy,2022.2.4,Win32,60.0060006,Chrome,1536,864,,,,,1,758,,,,,,,,,,,,,,,,,146,B,circle,1,0,,,,,,,,,,,,,,,,switch,number,numSwt,d,0.6792,Lo,,,,,,1,,,,,,,,high,7,0,7,0,1,,,,,,,,,
294880,2022-09-23_19h40.11.944,vts_reward_expectancy,2022.2.4,Win32,60.0060006,Chrome,1536,864,,,,,0,758,,,,,,,,,,,,,,,,,174,W,circle,0,0,,,,,,,,,,,,,,,,switch,letter,NA,j,0.6295,Lo,,,,,,1,,,,,,,,high,8,0,8,0,1,,,,,,,,,
294880,2022-09-23_19h40.11.944,vts_reward_expectancy,2022.2.4,Win32,60.0060006,Chrome,1536,864,,,,,10,768,,,,,,,,,,,,,,,,,132,S,hexagon,1,1,,,,,,,,,,,,,,,,switch,number,numSwt,d,0.913,Hi,,,,,,1,,,,,,,,high,9,0,9,0,1,,,,,,,,,
294880,2022-09-23_19h40.11.944,vts_reward_expectancy,2022.2.4,Win32,60.0060006,Chrome,1536,864,,,,,10,778,,,,,,,,,,,,,,,,,160,U,circle,1,0,,,,,,,,,,,,,,,,switch,letter,lettSwt,k,1.63,Lo,,,,,,1,,,,,,,,high,10,0,10,0,1,,,,,,,,,
294880,2022-09-23_19h40.11.944,vts_reward_expectancy,2022.2.4,Win32,60.0060006,Chrome,1536,864,,,,,10,788,,,,,,,,,,,,,,,,,139,Y,hexagon,1,0,,,,,,,,,,,,,,,,switch,number,numSwt,d,0.7693,Hi,,,,,,1,,,,,,,,high,11,0,11,0,1,,,,,,,,,
294880,2022-09-23_19h40.11.944,vts_reward_expectancy,2022.2.4,Win32,60.0060006,Chrome,1536,864,,,,,1,789,,,,,,,,,,,,,,,,,125,H,circle,1,0,,,,,,,,,,,,,,,,repeat,number,numRpt,d,0.7004,Lo,,,,,,1,,,,,,,,high,12,0,12,0,1,,,,,,,,,
294880,2022-09-23_19h40.11.944,vts_reward_expectancy,2022.2.4,Win32,60.0060006,Chrome,1536,864,,,,,0,789,,,,,,,,,,,,,,,,,181,D,hexagon,1,0,,,,,,,,,,,,,,,,switch,letter,lettSwt,j,1.0422,Hi,,,,,,1,,,,,,,,high,13,0,13,0,1,,,,,,,,,
294880,2022-09-23_19h40.11.944,vts_reward_expectancy,2022.2.4,Win32,60.0060006,Chrome,1536,864,,,,,10,799,,,,,,,,,,,,,,,,,167,F,circle,1,0,,,,,,,,,,,,,,,,switch,number,numSwt,f,0.7776,Lo,,,,,,1,,,,,,,,high,14,0,14,0,1,,,,,,,,,
294880,2022-09-23_19h40.11.944,vts_reward_expectancy,2022.2.4,Win32,60.0060006,Chrome,1536,864,,,,,10,809,,,,,,,,,,,,,,,,,146,B,hexagon,1,0,,,,,,,,,,,,,,,,switch,letter,lettSwt,j,0.6514,Hi,,,,,,1,,,,,,,,high,15,0,15,0,1,,,,,,,,,
294880,2022-09-23_19h40.11.944,vts_reward_expectancy,2022.2.4,Win32,60.0060006,Chrome,1536,864,,,,,1,810,,,,,,,,,,,,,,,,,146,U,circle,1,0,,,,,,,,,,,,,,,,switch,number,numSwt,d,0.7515,Lo,,,,,,1,,,,,,,,high,16,0,16,0,1,,,,,,,,,
294880,2022-09-23_19h40.11.944,vts_reward_expectancy,2022.2.4,Win32,60.0060006,Chrome,1536,864,,,,,10,820,,,,,,,,,,,,,,,,,132,W,hexagon,1,0,,,,,,,,,,,,,,,,repeat,number,numRpt,d,0.7368,Hi,,,,,,1,,,,,,,,high,17,0,17,0,1,,,,,,,,,
294880,2022-09-23_19h40.11.944,vts_reward_expectancy,2022.2.4,Win32,60.0060006,Chrome,1536,864,,,,,1,821,,,,,,,,,,,,,,,,,167,Y,circle,1,0,,,,,,,,,,,,,,,,switch,letter,lettSwt,k,0.8221,Lo,,,,,,1,,,,,,,,high,18,0,18,0,1,,,,,,,,,
294880,2022-09-23_19h40.11.944,vts_reward_expectancy,2022.2.4,Win32,60.0060006,Chrome,1536,864,,,,,0,821,,,,,,,,,,,,,,,,,139,H,hexagon,1,0,,,,,,,,,,,,,,,,switch,number,numSwt,d,1.118,Hi,,,,,,1,,,,,,,,high,19,0,19,0,1,,,,,,,,,
294880,2022-09-23_19h40.11.944,vts_reward_expectancy,2022.2.4,Win32,60.0060006,Chrome,1536,864,,,,,0,821,,,,,,,,,,,,,,,,,160,F,hexagon,0,0,,,,,,,,,,,,,,,,repeat,number,NA,d,0.6852,Hi,,,,,,1,,,,,,,,high,20,0,20,0,1,,,,,,,,,
294880,2022-09-23_19h40.11.944,vts_reward_expectancy,2022.2.4,Win32,60.0060006,Chrome,1536,864,,,,,0,821,,,,,,,,,,,,,,,,,125,S,circle,0,1,,,,,,,,,,,,,,,,switch,letter,NA,j,0.7255,Hi,,,,,,1,,,,,,,,high,21,0,21,0,1,,,,,,,,,
294880,2022-09-23_19h40.11.944,vts_reward_expectancy,2022.2.4,Win32,60.0060006,Chrome,1536,864,,,,,10,831,,,,,,,,,,,,,,,,,181,B,hexagon,1,1,,,,,,,,,,,,,,,,switch,number,numSwt,f,0.8676,Hi,,,,,,1,,,,,,,,high,22,0,22,0,1,,,,,,,,,
294880,2022-09-23_19h40.11.944,vts_reward_expectancy,2022.2.4,Win32,60.0060006,Chrome,1536,864,,,,,1,832,,,,,,,,,,,,,,,,,174,D,circle,1,0,,,,,,,,,,,,,,,,switch,letter,lettSwt,j,0.8843,Lo,,,,,,1,,,,,,,,high,23,0,23,0,1,,,,,,,,,
294880,2022-09-23_19h40.11.944,vts_reward_expectancy,2022.2.4,Win32,60.0060006,Chrome,1536,864,,,,,10,842,,,,,,,,,,,,,,,,,160,H,hexagon,1,0,,,,,,,,,,,,,,,,repeat,letter,lettRpt,j,0.7338,Hi,,,,,,1,,,,,,,,high,24,0,24,0,1,,,,,,,,,
294880,2022-09-23_19h40.11.944,vts_reward_expectancy,2022.2.4,Win32,60.0060006,Chrome,1536,864,,,,,1,843,,,,,,,,,,,,,,,,,174,F,circle,1,0,,,,,,,,,,,,,,,,switch,number,numSwt,f,0.935,Lo,,,,,,1,,,,,,,,high,25,0,25,0,1,,,,,,,,,
294880,2022-09-23_19h40.11.944,vts_reward_expectancy,2022.2.4,Win32,60.0060006,Chrome,1536,864,,,,,10,853,,,,,,,,,,,,,,,,,139,U,circle,1,0,,,,,,,,,,,,,,,,repeat,number,numRpt,d,0.788,Lo,,,,,,1,,,,,,,,high,26,0,26,0,1,,,,,,,,,
294880,2022-09-23_19h40.11.944,vts_reward_expectancy,2022.2.4,Win32,60.0060006,Chrome,1536,864,,,,,0,853,,,,,,,,,,,,,,,,,132,D,hexagon,1,0,,,,,,,,,,,,,,,,switch,letter,lettSwt,j,0.8858,Hi,,,,,,1,,,,,,,,high,27,0,27,0,1,,,,,,,,,
294880,2022-09-23_19h40.11.944,vts_reward_expectancy,2022.2.4,Win32,60.0060006,Chrome,1536,864,,,,,0,853,,,,,,,,,,,,,,,,,167,W,hexagon,1,0,,,,,,,,,,,,,,,,repeat,letter,lettRpt,k,1.5346,Hi,,,,,,1,,,,,,,,high,28,0,28,0,1,,,,,,,,,
294880,2022-09-23_19h40.11.944,vts_reward_expectancy,2022.2.4,Win32,60.0060006,Chrome,1536,864,,,,,1,854,,,,,,,,,,,,,,,,,181,B,circle,1,0,,,,,,,,,,,,,,,,switch,number,numSwt,f,0.7022,Lo,,,,,,1,,,,,,,,high,29,0,29,0,1,,,,,,,,,
294880,2022-09-23_19h40.11.944,vts_reward_expectancy,2022.2.4,Win32,60.0060006,Chrome,1536,864,,,,,10,864,,,,,,,,,,,,,,,,,146,S,hexagon,1,0,,,,,,,,,,,,,,,,repeat,number,numRpt,d,0.6858,Hi,,,,,,1,,,,,,,,high,30,0,30,0,1,,,,,,,,,
294880,2022-09-23_19h40.11.944,vts_reward_expectancy,2022.2.4,Win32,60.0060006,Chrome,1536,864,,,,,1,865,,,,,,,,,,,,,,,,,125,Y,circle,1,0,,,,,,,,,,,,,,,,repeat,number,numRpt,d,0.6176,Lo,,,,,,1,,,,,,,,high,31,0,31,0,1,,,,,,,,,
294880,2022-09-23_19h40.11.944,vts_reward_expectancy,2022.2.4,Win32,60.0060006,Chrome,1536,864,,,,,1,866,,,,,,,,,,,,,,,,,139,S,star,1,0,,,,,,,,,,,,,,,,switch,letter,lettSwt,k,0.8693,Lo,,,,,,2,,,,,,space,0.8016,low,0,0,0,0,1,,,,,,,,,
294880,2022-09-23_19h40.11.944,vts_reward_expectancy,2022.2.4,Win32,60.0060006,Chrome,1536,864,,,,,0,866,,,,,,,,,,,,,,,,,160,W,triangle,1,0,,,,,,,,,,,,,,,,repeat,letter,lettRpt,k,0.933,Hi,,,,,,2,,,,,,,,low,1,0,1,0,1,,,,,,,,,
294880,2022-09-23_19h40.11.944,vts_reward_expectancy,2022.2.4,Win32,60.0060006,Chrome,1536,864,,,,,10,876,,,,,,,,,,,,,,,,,167,H,star,1,0,,,,,,,,,,,,,,,,switch,number,numSwt,f,0.9772,Lo,,,,,,2,,,,,,,,low,2,0,2,0,1,,,,,,,,,
294880,2022-09-23_19h40.11.944,vts_reward_expectancy,2022.2.4,Win32,60.0060006,Chrome,1536,864,,,,,10,886,,,,,,,,,,,,,,,,,174,B,triangle,1,0,,,,,,,,,,,,,,,,switch,letter,lettSwt,j,0.8096,Hi,,,,,,2,,,,,,,,low,3,0,3,0,1,,,,,,,,,
294880,2022-09-23_19h40.11.944,vts_reward_expectancy,2022.2.4,Win32,60.0060006,Chrome,1536,864,,,,,0,886,,,,,,,,,,,,,,,,,146,Y,triangle,0,0,,,,,,,,,,,,,,,,switch,number,NA,f,1.0746,Hi,,,,,,2,,,,,,,,low,4,0,4,0,1,,,,,,,,,
294880,2022-09-23_19h40.11.944,vts_reward_expectancy,2022.2.4,Win32,60.0060006,Chrome,1536,864,,,,,10,896,,,,,,,,,,,,,,,,,125,U,star,1,1,,,,,,,,,,,,,,,,repeat,number,numRpt,d,0.8185,Lo,,,,,,2,,,,,,,,low,5,0,5,0,1,,,,,,,,,
294880,2022-09-23_19h40.11.944,vts_reward_expectancy,2022.2.4,Win32,60.0060006,Chrome,1536,864,,,,,0,896,,,,,,,,,,,,,,,,,132,D,triangle,1,0,,,,,,,,,,,,,,,,switch,letter,lettSwt,j,0.9011,Hi,,,,,,2,,,,,,,,low,6,0,6,0,1,,,,,,,,,
294880,2022-09-23_19h40.11.944,vts_reward_expectancy,2022.2.4,Win32,60.0060006,Chrome,1536,864,,,,,0,896,,,,,,,,,,,,,,,,,181,F,star,0,0,,,,,,,,,,,,,,,,switch,number,NA,d,0.7828,Hi,,,,,,2,,,,,,,,low,7,0,7,0,1,,,,,,,,,
294880,2022-09-23_19h40.11.944,vts_reward_expectancy,2022.2.4,Win32,60.0060006,Chrome,1536,864,,,,,1,897,,,,,,,,,,,,,,,,,139,S,star,1,1,,,,,,,,,,,,,,,,switch,letter,lettSwt,k,0.7705,Lo,,,,,,2,,,,,,,,low,8,0,8,0,1,,,,,,,,,
294880,2022-09-23_19h40.11.944,vts_reward_expectancy,2022.2.4,Win32,60.0060006,Chrome,1536,864,,,,,0,897,,,,,,,,,,,,,,,,,160,W,triangle,1,0,,,,,,,,,,,,,,,,switch,number,numSwt,f,1.0418,Hi,,,,,,2,,,,,,,,low,9,0,9,0,1,,,,,,,,,
294880,2022-09-23_19h40.11.944,vts_reward_expectancy,2022.2.4,Win32,60.0060006,Chrome,1536,864,,,,,1,898,,,,,,,,,,,,,,,,,167,H,star,1,0,,,,,,,,,,,,,,,,repeat,number,numRpt,f,0.7349,Lo,,,,,,2,,,,,,,,low,10,0,10,0,1,,,,,,,,,
294880,2022-09-23_19h40.11.944,vts_reward_expectancy,2022.2.4,Win32,60.0060006,Chrome,1536,864,,,,,10,908,,,,,,,,,,,,,,,,,174,B,triangle,1,0,,,,,,,,,,,,,,,,repeat,number,numRpt,f,0.5836,Hi,,,,,,2,,,,,,,,low,11,0,11,0,1,,,,,,,,,
294880,2022-09-23_19h40.11.944,vts_reward_expectancy,2022.2.4,Win32,60.0060006,Chrome,1536,864,,,,,1,909,,,,,,,,,,,,,,,,,146,Y,star,1,0,,,,,,,,,,,,,,,,switch,letter,lettSwt,k,0.9193,Lo,,,,,,2,,,,,,,,low,12,0,12,0,1,,,,,,,,,
294880,2022-09-23_19h40.11.944,vts_reward_expectancy,2022.2.4,Win32,60.0060006,Chrome,1536,864,,,,,1,910,,,,,,,,,,,,,,,,,125,U,triangle,1,0,,,,,,,,,,,,,,,,repeat,letter,lettRpt,k,0.7383,Hi,,,,,,2,,,,,,,,low,13,0,13,0,1,,,,,,,,,
294880,2022-09-23_19h40.11.944,vts_reward_expectancy,2022.2.4,Win32,60.0060006,Chrome,1536,864,,,,,0,910,,,,,,,,,,,,,,,,,132,D,star,0,0,,,,,,,,,,,,,,,,repeat,letter,NA,k,0.735,Hi,,,,,,2,,,,,,,,low,14,0,14,0,1,,,,,,,,,
294880,2022-09-23_19h40.11.944,vts_reward_expectancy,2022.2.4,Win32,60.0060006,Chrome,1536,864,,,,,10,920,,,,,,,,,,,,,,,,,181,F,triangle,1,1,,,,,,,,,,,,,,,,switch,number,numSwt,f,0.584,Hi,,,,,,2,,,,,,,,low,15,0,15,0,1,,,,,,,,,
294880,2022-09-23_19h40.11.944,vts_reward_expectancy,2022.2.4,Win32,60.0060006,Chrome,1536,864,,,,,1,921,,,,,,,,,,,,,,,,,125,W,star,1,0,,,,,,,,,,,,,,,,repeat,number,numRpt,d,1.5386,Lo,,,,,,2,,,,,,,,low,16,0,16,0,1,,,,,,,,,
294880,2022-09-23_19h40.11.944,vts_reward_expectancy,2022.2.4,Win32,60.0060006,Chrome,1536,864,,,,,1,922,,,,,,,,,,,,,,,,,146,H,triangle,1,0,,,,,,,,,,,,,,,,switch,letter,lettSwt,j,0.6821,Hi,,,,,,2,,,,,,,,low,17,0,17,0,1,,,,,,,,,
294880,2022-09-23_19h40.11.944,vts_reward_expectancy,2022.2.4,Win32,60.0060006,Chrome,1536,864,,,,,0,922,,,,,,,,,,,,,,,,,160,Y,triangle,1,0,,,,,,,,,,,,,,,,switch,number,numSwt,f,0.8289,Hi,,,,,,2,,,,,,,,low,18,0,18,0,1,,,,,,,,,
294880,2022-09-23_19h40.11.944,vts_reward_expectancy,2022.2.4,Win32,60.0060006,Chrome,1536,864,,,,,10,932,,,,,,,,,,,,,,,,,181,U,star,1,0,,,,,,,,,,,,,,,,repeat,number,numRpt,f,0.9466,Lo,,,,,,2,,,,,,,,low,19,0,19,0,1,,,,,,,,,
294880,2022-09-23_19h40.11.944,vts_reward_expectancy,2022.2.4,Win32,60.0060006,Chrome,1536,864,,,,,10,942,,,,,,,,,,,,,,,,,167,B,triangle,1,0,,,,,,,,,,,,,,,,repeat,number,numRpt,f,0.6806,Hi,,,,,,2,,,,,,,,low,20,0,20,0,1,,,,,,,,,
294880,2022-09-23_19h40.11.944,vts_reward_expectancy,2022.2.4,Win32,60.0060006,Chrome,1536,864,,,,,0,942,,,,,,,,,,,,,,,,,139,F,star,0,0,,,,,,,,,,,,,,,,repeat,number,NA,f,0.7298,Hi,,,,,,2,,,,,,,,low,21,0,21,0,1,,,,,,,,,
294880,2022-09-23_19h40.11.944,vts_reward_expectancy,2022.2.4,Win32,60.0060006,Chrome,1536,864,,,,,1,943,,,,,,,,,,,,,,,,,132,D,star,1,1,,,,,,,,,,,,,,,,repeat,number,numRpt,d,1.3966,Lo,,,,,,2,,,,,,,,low,22,0,22,0,1,,,,,,,,,
294880,2022-09-23_19h40.11.944,vts_reward_expectancy,2022.2.4,Win32,60.0060006,Chrome,1536,864,,,,,0,943,,,,,,,,,,,,,,,,,174,S,triangle,1,0,,,,,,,,,,,,,,,,switch,letter,lettSwt,k,1.0464,Hi,,,,,,2,,,,,,,,low,23,0,23,0,1,,,,,,,,,
294880,2022-09-23_19h40.11.944,vts_reward_expectancy,2022.2.4,Win32,60.0060006,Chrome,1536,864,,,,,0,943,,,,,,,,,,,,,,,,,160,B,triangle,1,0,,,,,,,,,,,,,,,,switch,number,numSwt,f,0.8308,Hi,,,,,,2,,,,,,,,low,24,0,24,0,1,,,,,,,,,
294880,2022-09-23_19h40.11.944,vts_reward_expectancy,2022.2.4,Win32,60.0060006,Chrome,1536,864,,,,,0,943,,,,,,,,,,,,,,,,,167,Y,star,0,0,,,,,,,,,,,,,,,,switch,letter,NA,j,0.7788,Hi,,,,,,2,,,,,,,,low,25,0,25,0,1,,,,,,,,,
294880,2022-09-23_19h40.11.944,vts_reward_expectancy,2022.2.4,Win32,60.0060006,Chrome,1536,864,,,,,10,953,,,,,,,,,,,,,,,,,139,F,triangle,1,1,,,,,,,,,,,,,,,,repeat,letter,lettRpt,j,0.8636,Hi,,,,,,2,,,,,,,,low,26,0,26,0,1,,,,,,,,,
294880,2022-09-23_19h40.11.944,vts_reward_expectancy,2022.2.4,Win32,60.0060006,Chrome,1536,864,,,,,10,963,,,,,,,,,,,,,,,,,181,D,star,1,0,,,,,,,,,,,,,,,,switch,number,numSwt,f,1.0298,Lo,,,,,,2,,,,,,,,low,27,0,27,0,1,,,,,,,,,
294880,2022-09-23_19h40.11.944,vts_reward_expectancy,2022.2.4,Win32,60.0060006,Chrome,1536,864,,,,,1,964,,,,,,,,,,,,,,,,,125,W,star,1,0,,,,,,,,,,,,,,,,switch,letter,lettSwt,k,0.6812,Lo,,,,,,2,,,,,,,,low,28,0,28,0,1,,,,,,,,,
294880,2022-09-23_19h40.11.944,vts_reward_expectancy,2022.2.4,Win32,60.0060006,Chrome,1536,864,,,,,0,964,,,,,,,,,,,,,,,,,146,S,triangle,1,0,,,,,,,,,,,,,,,,switch,number,numSwt,d,0.867,Hi,,,,,,2,,,,,,,,low,29,0,29,0,1,,,,,,,,,
294880,2022-09-23_19h40.11.944,vts_reward_expectancy,2022.2.4,Win32,60.0060006,Chrome,1536,864,,,,,1,965,,,,,,,,,,,,,,,,,174,U,triangle,1,0,,,,,,,,,,,,,,,,repeat,number,numRpt,f,0.6876,Hi,,,,,,2,,,,,,,,low,30,0,30,0,1,,,,,,,,,
294880,2022-09-23_19h40.11.944,vts_reward_expectancy,2022.2.4,Win32,60.0060006,Chrome,1536,864,,,,,0,965,,,,,,,,,,,,,,,,,132,H,star,0,0,,,,,,,,,,,,,,,,switch,letter,NA,k,0.5457,Hi,,,,,,2,,,,,,,,low,31,0,31,0,1,,,,,,,,,
294880,2022-09-23_19h40.11.944,vts_reward_expectancy,2022.2.4,Win32,60.0060006,Chrome,1536,864,,,,,10,975,,,,,,,,,,,,,,,,,181,W,circle,1,1,,,,,,,,,,,,,,,,repeat,letter,lettRpt,k,1.0286,Lo,,,,,,3,,,,,,space,13.9391,high,0,0,0,0,1,,,,,,,,,
294880,2022-09-23_19h40.11.944,vts_reward_expectancy,2022.2.4,Win32,60.0060006,Chrome,1536,864,,,,,0,975,,,,,,,,,,,,,,,,,160,D,hexagon,1,0,,,,,,,,,,,,,,,,switch,number,numSwt,f,0.9828,Hi,,,,,,3,,,,,,,,high,1,0,1,0,1,,,,,,,,,
294880,2022-09-23_19h40.11.944,vts_reward_expectancy,2022.2.4,Win32,60.0060006,Chrome,1536,864,,,,,1,976,,,,,,,,,,,,,,,,,167,U,circle,1,0,,,,,,,,,,,,,,,,switch,letter,lettSwt,k,1.0128,Lo,,,,,,3,,,,,,,,high,2,0,2,0,1,,,,,,,,,
294880,2022-09-23_19h40.11.944,vts_reward_expectancy,2022.2.4,Win32,60.0060006,Chrome,1536,864,,,,,10,986,,,,,,,,,,,,,,,,,132,S,hexagon,1,0,,,,,,,,,,,,,,,,repeat,letter,lettRpt,k,0.7466,Hi,,,,,,3,,,,,,,,high,3,0,3,0,1,,,,,,,,,
294880,2022-09-23_19h40.11.944,vts_reward_expectancy,2022.2.4,Win32,60.0060006,Chrome,1536,864,,,,,1,987,,,,,,,,,,,,,,,,,146,F,circle,1,0,,,,,,,,,,,,,,,,repeat,letter,lettRpt,j,1.1636,Lo,,,,,,3,,,,,,,,high,4,0,4,0,1,,,,,,,,,
294880,2022-09-23_19h40.11.944,vts_reward_expectancy,2022.2.4,Win32,60.0060006,Chrome,1536,864,,,,,10,997,,,,,,,,,,,,,,,,,139,B,hexagon,1,0,,,,,,,,,,,,,,,,switch,number,numSwt,d,0.6002,Hi,,,,,,3,,,,,,,,high,5,0,5,0,1,,,,,,,,,
294880,2022-09-23_19h40.11.944,vts_reward_expectancy,2022.2.4,Win32,60.0060006,Chrome,1536,864,,,,,1,998,,,,,,,,,,,,,,,,,125,H,circle,1,0,,,,,,,,,,,,,,,,switch,letter,lettSwt,j,0.9686,Lo,,,,,,3,,,,,,,,high,6,0,6,0,1,,,,,,,,,
294880,2022-09-23_19h40.11.944,vts_reward_expectancy,2022.2.4,Win32,60.0060006,Chrome,1536,864,,,,,0,998,,,,,,,,,,,,,,,,,174,Y,hexagon,1,0,,,,,,,,,,,,,,,,repeat,letter,lettRpt,k,1.0803,Hi,,,,,,3,,,,,,,,high,7,0,7,0,1,,,,,,,,,
294880,2022-09-23_19h40.11.944,vts_reward_expectancy,2022.2.4,Win32,60.0060006,Chrome,1536,864,,,,,10,1008,,,,,,,,,,,,,,,,,181,W,circle,1,0,,,,,,,,,,,,,,,,switch,number,numSwt,f,0.913,Lo,,,,,,3,,,,,,,,high,8,0,8,0,1,,,,,,,,,
294880,2022-09-23_19h40.11.944,vts_reward_expectancy,2022.2.4,Win32,60.0060006,Chrome,1536,864,,,,,1,1009,,,,,,,,,,,,,,,,,160,D,hexagon,1,0,,,,,,,,,,,,,,,,switch,letter,lettSwt,j,0.7487,Hi,,,,,,3,,,,,,,,high,9,0,9,0,1,,,,,,,,,
294880,2022-09-23_19h40.11.944,vts_reward_expectancy,2022.2.4,Win32,60.0060006,Chrome,1536,864,,,,,1,1010,,,,,,,,,,,,,,,,,167,U,circle,1,0,,,,,,,,,,,,,,,,switch,number,numSwt,f,1.0159,Lo,,,,,,3,,,,,,,,high,10,0,10,0,1,,,,,,,,,
294880,2022-09-23_19h40.11.944,vts_reward_expectancy,2022.2.4,Win32,60.0060006,Chrome,1536,864,,,,,0,1010,,,,,,,,,,,,,,,,,132,S,hexagon,1,0,,,,,,,,,,,,,,,,switch,letter,lettSwt,k,0.9966,Hi,,,,,,3,,,,,,,,high,11,0,11,0,1,,,,,,,,,
294880,2022-09-23_19h40.11.944,vts_reward_expectancy,2022.2.4,Win32,60.0060006,Chrome,1536,864,,,,,1,1011,,,,,,,,,,,,,,,,,146,F,circle,1,0,,,,,,,,,,,,,,,,switch,number,numSwt,d,1.679,Lo,,,,,,3,,,,,,,,high,12,0,12,0,1,,,,,,,,,
294880,2022-09-23_19h40.11.944,vts_reward_expectancy,2022.2.4,Win32,60.0060006,Chrome,1536,864,,,,,10,1021,,,,,,,,,,,,,,,,,139,B,hexagon,1,0,,,,,,,,,,,,,,,,switch,letter,lettSwt,j,0.7313,Hi,,,,,,3,,,,,,,,high,13,0,13,0,1,,,,,,,,,
294880,2022-09-23_19h40.11.944,vts_reward_expectancy,2022.2.4,Win32,60.0060006,Chrome,1536,864,,,,,1,1022,,,,,,,,,,,,,,,,,125,H,circle,1,0,,,,,,,,,,,,,,,,switch,number,numSwt,d,1.1451,Lo,,,,,,3,,,,,,,,high,14,0,14,0,1,,,,,,,,,
294880,2022-09-23_19h40.11.944,vts_reward_expectancy,2022.2.4,Win32,60.0060006,Chrome,1536,864,,,,,0,1022,,,,,,,,,,,,,,,,,174,Y,hexagon,1,0,,,,,,,,,,,,,,,,switch,letter,lettSwt,k,0.8458,Hi,,,,,,3,,,,,,,,high,15,0,15,0,1,,,,,,,,,
294880,2022-09-23_19h40.11.944,vts_reward_expectancy,2022.2.4,Win32,60.0060006,Chrome,1536,864,,,,,0,1022,,,,,,,,,,,,,,,,,167,F,hexagon,1,0,,,,,,,,,,,,,,,,repeat,letter,lettRpt,j,0.8497,Hi,,,,,,3,,,,,,,,high,16,0,16,0,1,,,,,,,,,
294880,2022-09-23_19h40.11.944,vts_reward_expectancy,2022.2.4,Win32,60.0060006,Chrome,1536,864,,,,,0,1022,,,,,,,,,,,,,,,,,181,B,circle,-1,0,,,,,,,,,,,,,,,,switch,no_choice,NA,,,Hi,,,,,,3,,,,,,,,high,17,0,17,0,1,,,,,,,,,
294880,2022-09-23_19h40.11.944,vts_reward_expectancy,2022.2.4,Win32,60.0060006,Chrome,1536,864,,,,,0,1022,,,,,,,,,,,,,,,,,139,S,hexagon,1,0,,,,,,,,,,,,,,,,switch,letter,lettSwt,k,0.8213,Hi,,,,,,3,,,,,,,,high,18,0,18,0,1,,,,,,,,,
294880,2022-09-23_19h40.11.944,vts_reward_expectancy,2022.2.4,Win32,60.0060006,Chrome,1536,864,,,,,1,1023,,,,,,,,,,,,,,,,,174,Y,circle,1,0,,,,,,,,,,,,,,,,repeat,letter,lettRpt,k,0.7351,Lo,,,,,,3,,,,,,,,high,19,0,19,0,1,,,,,,,,,
294880,2022-09-23_19h40.11.944,vts_reward_expectancy,2022.2.4,Win32,60.0060006,Chrome,1536,864,,,,,1,1024,,,,,,,,,,,,,,,,,132,H,circle,1,0,,,,,,,,,,,,,,,,repeat,letter,lettRpt,j,0.8265,Lo,,,,,,3,,,,,,,,high,20,0,20,0,1,,,,,,,,,
294880,2022-09-23_19h40.11.944,vts_reward_expectancy,2022.2.4,Win32,60.0060006,Chrome,1536,864,,,,,0,1024,,,,,,,,,,,,,,,,,125,W,hexagon,0,0,,,,,,,,,,,,,,,,switch,number,NA,f,0.9839,Lo,,,,,,3,,,,,,,,high,21,0,21,0,1,,,,,,,,,
294880,2022-09-23_19h40.11.944,vts_reward_expectancy,2022.2.4,Win32,60.0060006,Chrome,1536,864,,,,,10,1034,,,,,,,,,,,,,,,,,160,D,circle,1,1,,,,,,,,,,,,,,,,repeat,number,numRpt,f,0.9024,Lo,,,,,,3,,,,,,,,high,22,0,22,0,1,,,,,,,,,
294880,2022-09-23_19h40.11.944,vts_reward_expectancy,2022.2.4,Win32,60.0060006,Chrome,1536,864,,,,,0,1034,,,,,,,,,,,,,,,,,146,U,hexagon,0,0,,,,,,,,,,,,,,,,repeat,number,NA,f,0.8238,Lo,,,,,,3,,,,,,,,high,23,0,23,0,1,,,,,,,,,
294880,2022-09-23_19h40.11.944,vts_reward_expectancy,2022.2.4,Win32,60.0060006,Chrome,1536,864,,,,,10,1044,,,,,,,,,,,,,,,,,125,S,circle,1,1,,,,,,,,,,,,,,,,repeat,number,numRpt,d,1.3097,Lo,,,,,,3,,,,,,,,high,24,0,24,0,1,,,,,,,,,
294880,2022-09-23_19h40.11.944,vts_reward_expectancy,2022.2.4,Win32,60.0060006,Chrome,1536,864,,,,,10,1054,,,,,,,,,,,,,,,,,167,D,hexagon,1,0,,,,,,,,,,,,,,,,switch,letter,lettSwt,j,0.7664,Hi,,,,,,3,,,,,,,,high,25,0,25,0,1,,,,,,,,,
294880,2022-09-23_19h40.11.944,vts_reward_expectancy,2022.2.4,Win32,60.0060006,Chrome,1536,864,,,,,1,1055,,,,,,,,,,,,,,,,,146,W,circle,1,0,,,,,,,,,,,,,,,,switch,number,numSwt,d,0.8506,Lo,,,,,,3,,,,,,,,high,26,0,26,0,1,,,,,,,,,
294880,2022-09-23_19h40.11.944,vts_reward_expectancy,2022.2.4,Win32,60.0060006,Chrome,1536,864,,,,,0,1055,,,,,,,,,,,,,,,,,160,Y,hexagon,1,0,,,,,,,,,,,,,,,,repeat,number,numRpt,f,0.8644,Hi,,,,,,3,,,,,,,,high,27,0,27,0,1,,,,,,,,,
294880,2022-09-23_19h40.11.944,vts_reward_expectancy,2022.2.4,Win32,60.0060006,Chrome,1536,864,,,,,0,1055,,,,,,,,,,,,,,,,,181,B,hexagon,1,0,,,,,,,,,,,,,,,,repeat,number,numRpt,f,0.7328,Hi,,,,,,3,,,,,,,,high,28,0,28,0,1,,,,,,,,,
294880,2022-09-23_19h40.11.944,vts_reward_expectancy,2022.2.4,Win32,60.0060006,Chrome,1536,864,,,,,0,1055,,,,,,,,,,,,,,,,,174,F,circle,0,0,,,,,,,,,,,,,,,,switch,letter,NA,k,0.6932,Hi,,,,,,3,,,,,,,,high,29,0,29,0,1,,,,,,,,,
294880,2022-09-23_19h40.11.944,vts_reward_expectancy,2022.2.4,Win32,60.0060006,Chrome,1536,864,,,,,1,1056,,,,,,,,,,,,,,,,,139,H,circle,1,1,,,,,,,,,,,,,,,,repeat,letter,lettRpt,j,0.7897,Lo,,,,,,3,,,,,,,,high,30,0,30,0,1,,,,,,,,,
294880,2022-09-23_19h40.11.944,vts_reward_expectancy,2022.2.4,Win32,60.0060006,Chrome,1536,864,,,,,0,1056,,,,,,,,,,,,,,,,,132,U,hexagon,1,0,,,,,,,,,,,,,,,,repeat,letter,lettRpt,k,0.9185,Hi,,,,,,3,,,,,,,,high,31,0,31,0,1,,,,,,,,,
294880,2022-09-23_19h40.11.944,vts_reward_expectancy,2022.2.4,Win32,60.0060006,Chrome,1536,864,,,,,1,1057,,,,,,,,,,,,,,,,,139,F,star,1,0,,,,,,,,,,,,,,,,switch,number,numSwt,d,0.6963,Lo,,,,,,4,,,,,,space,0.8493,low,0,0,0,0,1,,,,,,,,,
294880,2022-09-23_19h40.11.944,vts_reward_expectancy,2022.2.4,Win32,60.0060006,Chrome,1536,864,,,,,10,1067,,,,,,,,,,,,,,,,,146,H,triangle,1,0,,,,,,,,,,,,,,,,switch,letter,lettSwt,j,0.5794,Hi,,,,,,4,,,,,,,,low,1,0,1,0,1,,,,,,,,,
294880,2022-09-23_19h40.11.944,vts_reward_expectancy,2022.2.4,Win32,60.0060006,Chrome,1536,864,,,,,1,1068,,,,,,,,,,,,,,,,,125,S,star,1,0,,,,,,,,,,,,,,,,switch,number,numSwt,d,0.7124,Lo,,,,,,4,,,,,,,,low,2,0,2,0,1,,,,,,,,,
294880,2022-09-23_19h40.11.944,vts_reward_expectancy,2022.2.4,Win32,60.0060006,Chrome,1536,864,,,,,1,1069,,,,,,,,,,,,,,,,,132,B,triangle,1,0,,,,,,,,,,,,,,,,repeat,number,numRpt,d,0.699,Hi,,,,,,4,,,,,,,,low,3,0,3,0,1,,,,,,,,,
294880,2022-09-23_19h40.11.944,vts_reward_expectancy,2022.2.4,Win32,60.0060006,Chrome,1536,864,,,,,0,1069,,,,,,,,,,,,,,,,,167,D,triangle,1,0,,,,,,,,,,,,,,,,switch,letter,lettSwt,j,0.9312,Hi,,,,,,4,,,,,,,,low,4,0,4,0,1,,,,,,,,,
294880,2022-09-23_19h40.11.944,vts_reward_expectancy,2022.2.4,Win32,60.0060006,Chrome,1536,864,,,,,10,1079,,,,,,,,,,,,,,,,,160,U,star,1,0,,,,,,,,,,,,,,,,repeat,letter,lettRpt,k,0.6637,Lo,,,,,,4,,,,,,,,low,5,0,5,0,1,,,,,,,,,
294880,2022-09-23_19h40.11.944,vts_reward_expectancy,2022.2.4,Win32,60.0060006,Chrome,1536,864,,,,,0,1079,,,,,,,,,,,,,,,,,174,W,star,0,0,,,,,,,,,,,,,,,,switch,number,NA,d,0.6303,Lo,,,,,,4,,,,,,,,low,6,0,6,0,1,,,,,,,,,
294880,2022-09-23_19h40.11.944,vts_reward_expectancy,2022.2.4,Win32,60.0060006,Chrome,1536,864,,,,,10,1089,,,,,,,,,,,,,,,,,181,Y,triangle,1,1,,,,,,,,,,,,,,,,repeat,number,numRpt,f,0.8302,Hi,,,,,,4,,,,,,,,low,7,0,7,0,1,,,,,,,,,
294880,2022-09-23_19h40.11.944,vts_reward_expectancy,2022.2.4,Win32,60.0060006,Chrome,1536,864,,,,,1,1090,,,,,,,,,,,,,,,,,139,F,triangle,1,0,,,,,,,,,,,,,,,,switch,letter,lettSwt,j,0.7307,Hi,,,,,,4,,,,,,,,low,8,0,8,0,1,,,,,,,,,
294880,2022-09-23_19h40.11.944,vts_reward_expectancy,2022.2.4,Win32,60.0060006,Chrome,1536,864,,,,,10,1100,,,,,,,,,,,,,,,,,146,H,star,1,0,,,,,,,,,,,,,,,,repeat,letter,lettRpt,j,0.9968,Lo,,,,,,4,,,,,,,,low,9,0,9,0,1,,,,,,,,,
294880,2022-09-23_19h40.11.944,vts_reward_expectancy,2022.2.4,Win32,60.0060006,Chrome,1536,864,,,,,10,1110,,,,,,,,,,,,,,,,,125,S,triangle,1,0,,,,,,,,,,,,,,,,switch,number,numSwt,d,0.8804,Hi,,,,,,4,,,,,,,,low,10,0,10,0,1,,,,,,,,,
294880,2022-09-23_19h40.11.944,vts_reward_expectancy,2022.2.4,Win32,60.0060006,Chrome,1536,864,,,,,10,1120,,,,,,,,,,,,,,,,,132,B,star,1,0,,,,,,,,,,,,,,,,repeat,number,numRpt,d,1.1971,Lo,,,,,,4,,,,,,,,low,11,0,11,0,1,,,,,,,,,
294880,2022-09-23_19h40.11.944,vts_reward_expectancy,2022.2.4,Win32,60.0060006,Chrome,1536,864,,,,,0,1120,,,,,,,,,,,,,,,,,167,D,triangle,0,0,,,,,,,,,,,,,,,,switch,letter,NA,k,1.3656,Lo,,,,,,4,,,,,,,,low,12,0,12,0,1,,,,,,,,,
294880,2022-09-23_19h40.11.944,vts_reward_expectancy,2022.2.4,Win32,60.0060006,Chrome,1536,864,,,,,1,1121,,,,,,,,,,,,,,,,,160,U,star,1,1,,,,,,,,,,,,,,,,switch,number,numSwt,f,0.7131,Lo,,,,,,4,,,,,,,,low,13,0,13,0,1,,,,,,,,,
294880,2022-09-23_19h40.11.944,vts_reward_expectancy,2022.2.4,Win32,60.0060006,Chrome,1536,864,,,,,0,1121,,,,,,,,,,,,,,,,,174,W,star,0,0,,,,,,,,,,,,,,,,switch,letter,NA,j,0.646,Lo,,,,,,4,,,,,,,,low,14,0,14,0,1,,,,,,,,,
294880,2022-09-23_19h40.11.944,vts_reward_expectancy,2022.2.4,Win32,60.0060006,Chrome,1536,864,,,,,10,1131,,,,,,,,,,,,,,,,,181,Y,triangle,1,1,,,,,,,,,,,,,,,,switch,number,numSwt,f,0.7147,Hi,,,,,,4,,,,,,,,low,15,0,15,0,1,,,,,,,,,
294880,2022-09-23_19h40.11.944,vts_reward_expectancy,2022.2.4,Win32,60.0060006,Chrome,1536,864,,,,,1,1132,,,,,,,,,,,,,,,,,146,D,star,1,0,,,,,,,,,,,,,,,,repeat,number,numRpt,d,1.0635,Lo,,,,,,4,,,,,,,,low,16,0,16,0,1,,,,,,,,,
294880,2022-09-23_19h40.11.944,vts_reward_expectancy,2022.2.4,Win32,60.0060006,Chrome,1536,864,,,,,0,1132,,,,,,,,,,,,,,,,,132,F,triangle,1,0,,,,,,,,,,,,,,,,switch,letter,lettSwt,j,1.6466,Hi,,,,,,4,,,,,,,,low,17,0,17,0,1,,,,,,,,,
294880,2022-09-23_19h40.11.944,vts_reward_expectancy,2022.2.4,Win32,60.0060006,Chrome,1536,864,,,,,0,1132,,,,,,,,,,,,,,,,,181,W,triangle,1,0,,,,,,,,,,,,,,,,repeat,letter,lettRpt,k,0.9309,Hi,,,,,,4,,,,,,,,low,18,0,18,0,1,,,,,,,,,
294880,2022-09-23_19h40.11.944,vts_reward_expectancy,2022.2.4,Win32,60.0060006,Chrome,1536,864,,,,,1,1133,,,,,,,,,,,,,,,,,139,U,star,1,0,,,,,,,,,,,,,,,,switch,number,numSwt,d,0.913,Lo,,,,,,4,,,,,,,,low,19,0,19,0,1,,,,,,,,,
294880,2022-09-23_19h40.11.944,vts_reward_expectancy,2022.2.4,Win32,60.0060006,Chrome,1536,864,,,,,1,1134,,,,,,,,,,,,,,,,,167,S,star,1,0,,,,,,,,,,,,,,,,switch,letter,lettSwt,k,1.2122,Lo,,,,,,4,,,,,,,,low,20,0,20,0,1,,,,,,,,,
294880,2022-09-23_19h40.11.944,vts_reward_expectancy,2022.2.4,Win32,60.0060006,Chrome,1536,864,,,,,0,1134,,,,,,,,,,,,,,,,,160,Y,triangle,1,0,,,,,,,,,,,,,,,,repeat,letter,lettRpt,k,0.8817,Hi,,,,,,4,,,,,,,,low,21,0,21,0,1,,,,,,,,,
294880,2022-09-23_19h40.11.944,vts_reward_expectancy,2022.2.4,Win32,60.0060006,Chrome,1536,864,,,,,10,1144,,,,,,,,,,,,,,,,,174,H,star,1,0,,,,,,,,,,,,,,,,switch,number,numSwt,f,0.7625,Lo,,,,,,4,,,,,,,,low,22,0,22,0,1,,,,,,,,,
294880,2022-09-23_19h40.11.944,vts_reward_expectancy,2022.2.4,Win32,60.0060006,Chrome,1536,864,,,,,0,1144,,,,,,,,,,,,,,,,,125,B,triangle,1,0,,,,,,,,,,,,,,,,switch,letter,lettSwt,j,0.8967,Hi,,,,,,4,,,,,,,,low,23,0,23,0,1,,,,,,,,,
294880,2022-09-23_19h40.11.944,vts_reward_expectancy,2022.2.4,Win32,60.0060006,Chrome,1536,864,,,,,0,1144,,,,,,,,,,,,,,,,,139,F,triangle,1,0,,,,,,,,,,,,,,,,repeat,letter,lettRpt,j,0.8145,Hi,,,,,,4,,,,,,,,low,24,0,24,0,1,,,,,,,,,
294880,2022-09-23_19h40.11.944,vts_reward_expectancy,2022.2.4,Win32,60.0060006,Chrome,1536,864,,,,,10,1154,,,,,,,,,,,,,,,,,125,D,star,1,0,,,,,,,,,,,,,,,,repeat,letter,lettRpt,j,0.6804,Lo,,,,,,4,,,,,,,,low,25,0,25,0,1,,,,,,,,,
294880,2022-09-23_19h40.11.944,vts_reward_expectancy,2022.2.4,Win32,60.0060006,Chrome,1536,864,,,,,1,1155,,,,,,,,,,,,,,,,,167,U,star,1,0,,,,,,,,,,,,,,,,switch,number,numSwt,f,0.7132,Lo,,,,,,4,,,,,,,,low,26,0,26,0,1,,,,,,,,,
294880,2022-09-23_19h40.11.944,vts_reward_expectancy,2022.2.4,Win32,60.0060006,Chrome,1536,864,,,,,10,1165,,,,,,,,,,,,,,,,,174,S,triangle,1,0,,,,,,,,,,,,,,,,repeat,number,numRpt,f,0.7135,Hi,,,,,,4,,,,,,,,low,27,0,27,0,1,,,,,,,,,
294880,2022-09-23_19h40.11.944,vts_reward_expectancy,2022.2.4,Win32,60.0060006,Chrome,1536,864,,,,,10,1175,,,,,,,,,,,,,,,,,132,H,triangle,1,0,,,,,,,,,,,,,,,,switch,letter,lettSwt,j,0.6123,Hi,,,,,,4,,,,,,,,low,28,0,28,0,1,,,,,,,,,
294880,2022-09-23_19h40.11.944,vts_reward_expectancy,2022.2.4,Win32,60.0060006,Chrome,1536,864,,,,,1,1176,,,,,,,,,,,,,,,,,146,W,star,1,0,,,,,,,,,,,,,,,,switch,number,numSwt,d,0.6771,Lo,,,,,,4,,,,,,,,low,29,0,29,0,1,,,,,,,,,
294880,2022-09-23_19h40.11.944,vts_reward_expectancy,2022.2.4,Win32,60.0060006,Chrome,1536,864,,,,,0,1176,,,,,,,,,,,,,,,,,181,B,triangle,1,0,,,,,,,,,,,,,,,,switch,letter,lettSwt,j,0.863,Hi,,,,,,4,,,,,,,,low,30,0,30,0,1,,,,,,,,,
294880,2022-09-23_19h40.11.944,vts_reward_expectancy,2022.2.4,Win32,60.0060006,Chrome,1536,864,,,,,10,1186,,,,,,,,,,,,,,,,,160,Y,star,1,0,,,,,,,,,,,,,,,,switch,number,numSwt,f,0.8468,Lo,,,,,,4,,,,,,,,low,31,0,31,0,1,,,,,,,,,
294880,2022-09-23_19h40.11.944,vts_reward_expectancy,2022.2.4,Win32,60.0060006,Chrome,1536,864,,,,,1,1187,,,,,,,,,,,,,,,,,181,S,circle,1,0,,,,,,,,,,,,,,,,repeat,number,numRpt,f,1.0127,Lo,,,,,,5,,,,,,space,0.8327,high,0,0,0,0,1,,,,,,,,,
294880,2022-09-23_19h40.11.944,vts_reward_expectancy,2022.2.4,Win32,60.0060006,Chrome,1536,864,,,,,10,1197,,,,,,,,,,,,,,,,,125,F,hexagon,1,0,,,,,,,,,,,,,,,,switch,letter,lettSwt,j,0.614,Hi,,,,,,5,,,,,,,,high,1,0,1,0,1,,,,,,,,,
294880,2022-09-23_19h40.11.944,vts_reward_expectancy,2022.2.4,Win32,60.0060006,Chrome,1536,864,,,,,1,1198,,,,,,,,,,,,,,,,,160,D,circle,1,0,,,,,,,,,,,,,,,,switch,number,numSwt,f,0.6469,Lo,,,,,,5,,,,,,,,high,2,0,2,0,1,,,,,,,,,
294880,2022-09-23_19h40.11.944,vts_reward_expectancy,2022.2.4,Win32,60.0060006,Chrome,1536,864,,,,,10,1208,,,,,,,,,,,,,,,,,139,H,hexagon,1,0,,,,,,,,,,,,,,,,switch,letter,lettSwt,j,0.5462,Hi,,,,,,5,,,,,,,,high,3,0,3,0,1,,,,,,,,,
294880,2022-09-23_19h40.11.944,vts_reward_expectancy,2022.2.4,Win32,60.0060006,Chrome,1536,864,,,,,1,1209,,,,,,,,,,,,,,,,,174,B,circle,1,0,,,,,,,,,,,,,,,,switch,number,numSwt,f,0.5822,Lo,,,,,,5,,,,,,,,high,4,0,4,0,1,,,,,,,,,
294880,2022-09-23_19h40.11.944,vts_reward_expectancy,2022.2.4,Win32,60.0060006,Chrome,1536,864,,,,,0,1209,,,,,,,,,,,,,,,,,146,U,hexagon,0,0,,,,,,,,,,,,,,,,switch,letter,NA,j,0.5131,Lo,,,,,,5,,,,,,,,high,5,0,5,0,1,,,,,,,,,
294880,2022-09-23_19h40.11.944,vts_reward_expectancy,2022.2.4,Win32,60.0060006,Chrome,1536,864,,,,,1,1210,,,,,,,,,,,,,,,,,167,W,circle,1,1,,,,,,,,,,,,,,,,switch,number,numSwt,f,0.6967,Lo,,,,,,5,,,,,,,,high,6,0,6,0,1,,,,,,,,,
294880,2022-09-23_19h40.11.944,vts_reward_expectancy,2022.2.4,Win32,60.0060006,Chrome,1536,864,,,,,10,1220,,,,,,,,,,,,,,,,,132,Y,hexagon,1,0,,,,,,,,,,,,,,,,switch,letter,lettSwt,k,0.6632,Hi,,,,,,5,,,,,,,,high,7,0,7,0,1,,,,,,,,,
294880,2022-09-23_19h40.11.944,vts_reward_expectancy,2022.2.4,Win32,60.0060006,Chrome,1536,864,,,,,1,1221,,,,,,,,,,,,,,,,,181,S,circle,1,0,,,,,,,,,,,,,,,,switch,number,numSwt,f,0.6958,Lo,,,,,,5,,,,,,,,high,8,0,8,0,1,,,,,,,,,
294880,2022-09-23_19h40.11.944,vts_reward_expectancy,2022.2.4,Win32,60.0060006,Chrome,1536,864,,,,,10,1231,,,,,,,,,,,,,,,,,125,F,hexagon,1,0,,,,,,,,,,,,,,,,switch,letter,lettSwt,j,0.4365,Hi,,,,,,5,,,,,,,,high,9,0,9,0,1,,,,,,,,,
294880,2022-09-23_19h40.11.944,vts_reward_expectancy,2022.2.4,Win32,60.0060006,Chrome,1536,864,,,,,10,1241,,,,,,,,,,,,,,,,,160,D,hexagon,1,0,,,,,,,,,,,,,,,,switch,number,numSwt,f,0.5968,Hi,,,,,,5,,,,,,,,high,10,0,10,0,1,,,,,,,,,
294880,2022-09-23_19h40.11.944,vts_reward_expectancy,2022.2.4,Win32,60.0060006,Chrome,1536,864,,,,,10,1251,,,,,,,,,,,,,,,,,139,H,circle,1,0,,,,,,,,,,,,,,,,switch,letter,lettSwt,j,0.6464,Lo,,,,,,5,,,,,,,,high,11,0,11,0,1,,,,,,,,,
294880,2022-09-23_19h40.11.944,vts_reward_expectancy,2022.2.4,Win32,60.0060006,Chrome,1536,864,,,,,1,1252,,,,,,,,,,,,,,,,,174,B,circle,1,0,,,,,,,,,,,,,,,,switch,number,numSwt,f,0.7138,Lo,,,,,,5,,,,,,,,high,12,0,12,0,1,,,,,,,,,
294880,2022-09-23_19h40.11.944,vts_reward_expectancy,2022.2.4,Win32,60.0060006,Chrome,1536,864,,,,,0,1252,,,,,,,,,,,,,,,,,146,U,hexagon,0,0,,,,,,,,,,,,,,,,switch,letter,NA,j,0.8971,Lo,,,,,,5,,,,,,,,high,13,0,13,0,1,,,,,,,,,
294880,2022-09-23_19h40.11.944,vts_reward_expectancy,2022.2.4,Win32,60.0060006,Chrome,1536,864,,,,,1,1253,,,,,,,,,,,,,,,,,167,W,circle,1,1,,,,,,,,,,,,,,,,repeat,letter,lettRpt,k,0.781,Lo,,,,,,5,,,,,,,,high,14,0,14,0,1,,,,,,,,,
294880,2022-09-23_19h40.11.944,vts_reward_expectancy,2022.2.4,Win32,60.0060006,Chrome,1536,864,,,,,0,1253,,,,,,,,,,,,,,,,,132,Y,hexagon,1,0,,,,,,,,,,,,,,,,repeat,letter,lettRpt,k,0.8834,Hi,,,,,,5,,,,,,,,high,15,0,15,0,1,,,,,,,,,
294880,2022-09-23_19h40.11.944,vts_reward_expectancy,2022.2.4,Win32,60.0060006,Chrome,1536,864,,,,,1,1254,,,,,,,,,,,,,,,,,139,B,circle,1,0,,,,,,,,,,,,,,,,switch,number,numSwt,d,0.7165,Lo,,,,,,5,,,,,,,,high,16,0,16,0,1,,,,,,,,,
294880,2022-09-23_19h40.11.944,vts_reward_expectancy,2022.2.4,Win32,60.0060006,Chrome,1536,864,,,,,10,1264,,,,,,,,,,,,,,,,,146,U,hexagon,1,0,,,,,,,,,,,,,,,,repeat,number,numRpt,d,0.5808,Hi,,,,,,5,,,,,,,,high,17,0,17,0,1,,,,,,,,,
294880,2022-09-23_19h40.11.944,vts_reward_expectancy,2022.2.4,Win32,60.0060006,Chrome,1536,864,,,,,0,1264,,,,,,,,,,,,,,,,,174,H,hexagon,1,0,,,,,,,,,,,,,,,,switch,letter,lettSwt,j,0.8496,Hi,,,,,,5,,,,,,,,high,18,0,18,0,1,,,,,,,,,
294880,2022-09-23_19h40.11.944,vts_reward_expectancy,2022.2.4,Win32,60.0060006,Chrome,1536,864,,,,,0,1264,,,,,,,,,,,,,,,,,125,W,circle,0,0,,,,,,,,,,,,,,,,repeat,letter,NA,j,0.918,Hi,,,,,,5,,,,,,,,high,19,0,19,0,1,,,,,,,,,
294880,2022-09-23_19h40.11.944,vts_reward_expectancy,2022.2.4,Win32,60.0060006,Chrome,1536,864,,,,,0,1264,,,,,,,,,,,,,,,,,160,F,hexagon,0,1,,,,,,,,,,,,,,,,repeat,letter,NA,k,0.7003,Hi,,,,,,5,,,,,,,,high,20,0,20,0,1,,,,,,,,,
294880,2022-09-23_19h40.11.944,vts_reward_expectancy,2022.2.4,Win32,60.0060006,Chrome,1536,864,,,,,10,1274,,,,,,,,,,,,,,,,,167,Y,circle,1,1,,,,,,,,,,,,,,,,repeat,letter,lettRpt,k,0.7964,Lo,,,,,,5,,,,,,,,high,21,0,21,0,1,,,,,,,,,
294880,2022-09-23_19h40.11.944,vts_reward_expectancy,2022.2.4,Win32,60.0060006,Chrome,1536,864,,,,,0,1274,,,,,,,,,,,,,,,,,132,D,hexagon,1,0,,,,,,,,,,,,,,,,repeat,letter,lettRpt,j,0.8317,Hi,,,,,,5,,,,,,,,high,22,0,22,0,1,,,,,,,,,
294880,2022-09-23_19h40.11.944,vts_reward_expectancy,2022.2.4,Win32,60.0060006,Chrome,1536,864,,,,,0,1274,,,,,,,,,,,,,,,,,181,S,circle,0,0,,,,,,,,,,,,,,,,switch,number,NA,d,1.8663,Hi,,,,,,5,,,,,,,,high,23,0,23,0,1,,,,,,,,,
294880,2022-09-23_19h40.11.944,vts_reward_expectancy,2022.2.4,Win32,60.0060006,Chrome,1536,864,,,,,0,1274,,,,,,,,,,,,,,,,,160,B,hexagon,1,1,,,,,,,,,,,,,,,,switch,letter,lettSwt,j,0.9631,Hi,,,,,,5,,,,,,,,high,24,0,24,0,1,,,,,,,,,
294880,2022-09-23_19h40.11.944,vts_reward_expectancy,2022.2.4,Win32,60.0060006,Chrome,1536,864,,,,,1,1275,,,,,,,,,,,,,,,,,146,D,circle,1,0,,,,,,,,,,,,,,,,repeat,letter,lettRpt,j,1.1634,Lo,,,,,,5,,,,,,,,high,25,0,25,0,1,,,,,,,,,
294880,2022-09-23_19h40.11.944,vts_reward_expectancy,2022.2.4,Win32,60.0060006,Chrome,1536,864,,,,,10,1285,,,,,,,,,,,,,,,,,174,W,hexagon,1,0,,,,,,,,,,,,,,,,repeat,letter,lettRpt,k,0.7135,Hi,,,,,,5,,,,,,,,high,26,0,26,0,1,,,,,,,,,
294880,2022-09-23_19h40.11.944,vts_reward_expectancy,2022.2.4,Win32,60.0060006,Chrome,1536,864,,,,,1,1286,,,,,,,,,,,,,,,,,167,U,circle,1,0,,,,,,,,,,,,,,,,switch,number,numSwt,f,0.829,Lo,,,,,,5,,,,,,,,high,27,0,27,0,1,,,,,,,,,
294880,2022-09-23_19h40.11.944,vts_reward_expectancy,2022.2.4,Win32,60.0060006,Chrome,1536,864,,,,,1,1287,,,,,,,,,,,,,,,,,139,Y,circle,1,0,,,,,,,,,,,,,,,,repeat,number,numRpt,d,0.698,Lo,,,,,,5,,,,,,,,high,28,0,28,0,1,,,,,,,,,
294880,2022-09-23_19h40.11.944,vts_reward_expectancy,2022.2.4,Win32,60.0060006,Chrome,1536,864,,,,,0,1287,,,,,,,,,,,,,,,,,181,S,hexagon,0,0,,,,,,,,,,,,,,,,switch,letter,NA,j,0.6468,Lo,,,,,,5,,,,,,,,high,29,0,29,0,1,,,,,,,,,
294880,2022-09-23_19h40.11.944,vts_reward_expectancy,2022.2.4,Win32,60.0060006,Chrome,1536,864,,,,,1,1288,,,,,,,,,,,,,,,,,132,H,circle,1,1,,,,,,,,,,,,,,,,repeat,letter,lettRpt,j,1.2973,Lo,,,,,,5,,,,,,,,high,30,0,30,0,1,,,,,,,,,
294880,2022-09-23_19h40.11.944,vts_reward_expectancy,2022.2.4,Win32,60.0060006,Chrome,1536,864,,,,,10,1298,,,,,,,,,,,,,,,,,125,F,hexagon,1,0,,,,,,,,,,,,,,,,repeat,letter,lettRpt,j,0.6527,Hi,,,,,,5,,,,,,,,high,31,0,31,0,1,,,,,,,,,
294880,2022-09-23_19h40.11.944,vts_reward_expectancy,2022.2.4,Win32,60.0060006,Chrome,1536,864,,,,,,,,,,,,,,,,,,,,,,,,,,,,,,,,,,,,,,,,,,,,,,,,,,,,,,6,,,,,,,,,,,,,,Click certain keys based on what I saw ,2, The character amount ,3,3,,2,1536,864
