participant,date,expName,psychopyVersion,OS,frameRate,browser,xResolution,yResolution,key_resp.keys,key_resp.rt,training_resp.keys,training_resp.rt,points_trial,points_cumul,trainBlock,training.thisRepN,training.thisTrialN,training.thisN,training.thisIndex,training.ran,LTriangleOpac,LCircleOpac,LHexagonOpac,LStarOpac,RTriangleOpac,RCircleOpac,RHexagonOpac,RStarOpac,LShape_ID,RShape_ID,curr_topStim,curr_bottStim,curr_shape,acc,E1,target_resp_prac1.keys,pracBlock,task1_prac_trials.thisRepN,task1_prac_trials.thisTrialN,task1_prac_trials.thisN,task1_prac_trials.thisIndex,task1_prac_trials.ran,target_resp_prac1.rt,target_resp_prac2.keys,target_resp_prac2.rt,task2_praac_trials.thisRepN,task2_praac_trials.thisTrialN,task2_praac_trials.thisN,task2_praac_trials.thisIndex,task2_praac_trials.ran,alt,task,condition,target_resp.keys,target_resp.rt,rewCond,vts_practice_trials.thisRepN,vts_practice_trials.thisTrialN,vts_practice_trials.thisN,vts_practice_trials.thisIndex,vts_practice_trials.ran,blockNum,trials_norew.thisRepN,trials_norew.thisTrialN,trials_norew.thisN,trials_norew.thisIndex,trials_norew.ran,key_resp_2.keys,key_resp_2.rt,rewExpect,trials_rew.thisRepN,trials_rew.thisTrialN,trials_rew.thisN,trials_rew.thisIndex,trials_rew.ran,Q1,Q2,Q2_text,Q3,Q4,Q5,Q5_text,xRes,yRes
296050,2022-10-02_13h03.18.091,vts_reward_expectancy,2022.2.4,Win32,60.18657839,Chrome,1280,800,,,,,,,,,,,,,,,,,,,,,,,,,,,,,,,,,,,,,,,,,,,,,,,,,,,,,,,,,,,,,,,,,,,,,,,,,,,,
296050,2022-10-02_13h03.18.091,vts_reward_expectancy,2022.2.4,Win32,60.18657839,Chrome,1280,800,space,21.5056,,,,,,,,,,,,,,,,,,,,,,,,,,,,,,,,,,,,,,,,,,,,,,,,,,,,,,,,,,,,,,,,,,,,,,,,,,
296050,2022-10-02_13h03.18.091,vts_reward_expectancy,2022.2.4,Win32,60.18657839,Chrome,1280,800,,,,,,,,,,,,,,,,,,,,,,,,,,,,,,,,,,,,,,,,,,,,,,,,,,,,,,,,,,,,,,,,,,,,,,,,,,,,
296050,2022-10-02_13h03.18.091,vts_reward_expectancy,2022.2.4,Win32,60.18657839,Chrome,1280,800,,,a,2.0508,1,1,0,0,0,0,3,1,0,1,0,0,1,0,0,0,circle,triangle,,,,,,,,,,,,,,,,,,,,,,,,,,,,,,,,,,,,,,,,,,,,,,,,,,,,,,
296050,2022-10-02_13h03.18.091,vts_reward_expectancy,2022.2.4,Win32,60.18657839,Chrome,1280,800,,,a,3.8534,1,2,0,0,1,1,9,1,0,0,0,1,1,0,0,0,star,triangle,,,,,,,,,,,,,,,,,,,,,,,,,,,,,,,,,,,,,,,,,,,,,,,,,,,,,,
296050,2022-10-02_13h03.18.091,vts_reward_expectancy,2022.2.4,Win32,60.18657839,Chrome,1280,800,,,a,2.0816,1,3,0,0,2,2,0,1,1,0,0,0,0,1,0,0,triangle,circle,,,,,,,,,,,,,,,,,,,,,,,,,,,,,,,,,,,,,,,,,,,,,,,,,,,,,,
296050,2022-10-02_13h03.18.091,vts_reward_expectancy,2022.2.4,Win32,60.18657839,Chrome,1280,800,,,l,3.0345,10,13,0,0,3,3,6,1,0,0,1,0,1,0,0,0,hexagon,triangle,,,,,,,,,,,,,,,,,,,,,,,,,,,,,,,,,,,,,,,,,,,,,,,,,,,,,,
296050,2022-10-02_13h03.18.091,vts_reward_expectancy,2022.2.4,Win32,60.18657839,Chrome,1280,800,,,l,1.8338,1,14,0,0,4,4,2,1,1,0,0,0,0,0,0,1,triangle,star,,,,,,,,,,,,,,,,,,,,,,,,,,,,,,,,,,,,,,,,,,,,,,,,,,,,,,
296050,2022-10-02_13h03.18.091,vts_reward_expectancy,2022.2.4,Win32,60.18657839,Chrome,1280,800,,,a,4.9343,10,24,0,0,5,5,8,1,0,0,1,0,0,0,0,1,hexagon,star,,,,,,,,,,,,,,,,,,,,,,,,,,,,,,,,,,,,,,,,,,,,,,,,,,,,,,
296050,2022-10-02_13h03.18.091,vts_reward_expectancy,2022.2.4,Win32,60.18657839,Chrome,1280,800,,,l,5.2616,10,34,0,0,6,6,5,1,0,1,0,0,0,0,0,1,circle,star,,,,,,,,,,,,,,,,,,,,,,,,,,,,,,,,,,,,,,,,,,,,,,,,,,,,,,
296050,2022-10-02_13h03.18.091,vts_reward_expectancy,2022.2.4,Win32,60.18657839,Chrome,1280,800,,,a,2.53,10,44,0,0,7,7,7,1,0,0,1,0,0,1,0,0,hexagon,circle,,,,,,,,,,,,,,,,,,,,,,,,,,,,,,,,,,,,,,,,,,,,,,,,,,,,,,
296050,2022-10-02_13h03.18.091,vts_reward_expectancy,2022.2.4,Win32,60.18657839,Chrome,1280,800,,,l,3.6019,10,54,0,0,8,8,1,1,1,0,0,0,0,0,1,0,triangle,hexagon,,,,,,,,,,,,,,,,,,,,,,,,,,,,,,,,,,,,,,,,,,,,,,,,,,,,,,
296050,2022-10-02_13h03.18.091,vts_reward_expectancy,2022.2.4,Win32,60.18657839,Chrome,1280,800,,,l,2.2655,10,64,0,0,9,9,4,1,0,1,0,0,0,0,1,0,circle,hexagon,,,,,,,,,,,,,,,,,,,,,,,,,,,,,,,,,,,,,,,,,,,,,,,,,,,,,,
296050,2022-10-02_13h03.18.091,vts_reward_expectancy,2022.2.4,Win32,60.18657839,Chrome,1280,800,,,l,2.4002,10,74,0,0,10,10,10,1,0,0,0,1,0,1,0,0,star ,circle,,,,,,,,,,,,,,,,,,,,,,,,,,,,,,,,,,,,,,,,,,,,,,,,,,,,,,
296050,2022-10-02_13h03.18.091,vts_reward_expectancy,2022.2.4,Win32,60.18657839,Chrome,1280,800,,,l,1.7226,10,84,0,0,11,11,11,1,0,0,0,1,0,0,1,0,star,hexagon,,,,,,,,,,,,,,,,,,,,,,,,,,,,,,,,,,,,,,,,,,,,,,,,,,,,,,
296050,2022-10-02_13h03.18.091,vts_reward_expectancy,2022.2.4,Win32,60.18657839,Chrome,1280,800,,,l,1.9451,1,85,0,1,0,12,0,1,1,0,0,0,0,1,0,0,triangle,circle,,,,,,,,,,,,,,,,,,,,,,,,,,,,,,,,,,,,,,,,,,,,,,,,,,,,,,
296050,2022-10-02_13h03.18.091,vts_reward_expectancy,2022.2.4,Win32,60.18657839,Chrome,1280,800,,,a,3.4326,10,95,0,1,1,13,7,1,0,0,1,0,0,1,0,0,hexagon,circle,,,,,,,,,,,,,,,,,,,,,,,,,,,,,,,,,,,,,,,,,,,,,,,,,,,,,,
296050,2022-10-02_13h03.18.091,vts_reward_expectancy,2022.2.4,Win32,60.18657839,Chrome,1280,800,,,l,2.412,10,105,0,1,2,14,4,1,0,1,0,0,0,0,1,0,circle,hexagon,,,,,,,,,,,,,,,,,,,,,,,,,,,,,,,,,,,,,,,,,,,,,,,,,,,,,,
296050,2022-10-02_13h03.18.091,vts_reward_expectancy,2022.2.4,Win32,60.18657839,Chrome,1280,800,,,a,1.7004,1,106,0,1,3,15,2,1,1,0,0,0,0,0,0,1,triangle,star,,,,,,,,,,,,,,,,,,,,,,,,,,,,,,,,,,,,,,,,,,,,,,,,,,,,,,
296050,2022-10-02_13h03.18.091,vts_reward_expectancy,2022.2.4,Win32,60.18657839,Chrome,1280,800,,,a,2.1006,10,116,0,1,4,16,8,1,0,0,1,0,0,0,0,1,hexagon,star,,,,,,,,,,,,,,,,,,,,,,,,,,,,,,,,,,,,,,,,,,,,,,,,,,,,,,
296050,2022-10-02_13h03.18.091,vts_reward_expectancy,2022.2.4,Win32,60.18657839,Chrome,1280,800,,,l,1.8355,10,126,0,1,5,17,3,1,0,1,0,0,1,0,0,0,circle,triangle,,,,,,,,,,,,,,,,,,,,,,,,,,,,,,,,,,,,,,,,,,,,,,,,,,,,,,
296050,2022-10-02_13h03.18.091,vts_reward_expectancy,2022.2.4,Win32,60.18657839,Chrome,1280,800,,,l,2.7658,1,127,0,1,6,18,10,1,0,0,0,1,0,1,0,0,star ,circle,,,,,,,,,,,,,,,,,,,,,,,,,,,,,,,,,,,,,,,,,,,,,,,,,,,,,,
296050,2022-10-02_13h03.18.091,vts_reward_expectancy,2022.2.4,Win32,60.18657839,Chrome,1280,800,,,l,1.3912,10,137,0,1,7,19,11,1,0,0,0,1,0,0,1,0,star,hexagon,,,,,,,,,,,,,,,,,,,,,,,,,,,,,,,,,,,,,,,,,,,,,,,,,,,,,,
296050,2022-10-02_13h03.18.091,vts_reward_expectancy,2022.2.4,Win32,60.18657839,Chrome,1280,800,,,l,2.4152,10,147,0,1,8,20,5,1,0,1,0,0,0,0,0,1,circle,star,,,,,,,,,,,,,,,,,,,,,,,,,,,,,,,,,,,,,,,,,,,,,,,,,,,,,,
296050,2022-10-02_13h03.18.091,vts_reward_expectancy,2022.2.4,Win32,60.18657839,Chrome,1280,800,,,a,1.301,10,157,0,1,9,21,6,1,0,0,1,0,1,0,0,0,hexagon,triangle,,,,,,,,,,,,,,,,,,,,,,,,,,,,,,,,,,,,,,,,,,,,,,,,,,,,,,
296050,2022-10-02_13h03.18.091,vts_reward_expectancy,2022.2.4,Win32,60.18657839,Chrome,1280,800,,,a,3.4517,1,158,0,1,10,22,9,1,0,0,0,1,1,0,0,0,star,triangle,,,,,,,,,,,,,,,,,,,,,,,,,,,,,,,,,,,,,,,,,,,,,,,,,,,,,,
296050,2022-10-02_13h03.18.091,vts_reward_expectancy,2022.2.4,Win32,60.18657839,Chrome,1280,800,,,l,1.5759,10,168,0,1,11,23,1,1,1,0,0,0,0,0,1,0,triangle,hexagon,,,,,,,,,,,,,,,,,,,,,,,,,,,,,,,,,,,,,,,,,,,,,,,,,,,,,,
296050,2022-10-02_13h03.18.091,vts_reward_expectancy,2022.2.4,Win32,60.18657839,Chrome,1280,800,,,a,2.3468,10,178,0,2,0,24,10,1,0,0,0,1,0,1,0,0,star ,circle,,,,,,,,,,,,,,,,,,,,,,,,,,,,,,,,,,,,,,,,,,,,,,,,,,,,,,
296050,2022-10-02_13h03.18.091,vts_reward_expectancy,2022.2.4,Win32,60.18657839,Chrome,1280,800,,,l,1.3837,10,188,0,2,1,25,8,1,0,0,1,0,0,0,0,1,hexagon,star,,,,,,,,,,,,,,,,,,,,,,,,,,,,,,,,,,,,,,,,,,,,,,,,,,,,,,
296050,2022-10-02_13h03.18.091,vts_reward_expectancy,2022.2.4,Win32,60.18657839,Chrome,1280,800,,,l,1.6161,10,198,0,2,2,26,5,1,0,1,0,0,0,0,0,1,circle,star,,,,,,,,,,,,,,,,,,,,,,,,,,,,,,,,,,,,,,,,,,,,,,,,,,,,,,
296050,2022-10-02_13h03.18.091,vts_reward_expectancy,2022.2.4,Win32,60.18657839,Chrome,1280,800,,,l,1.336,10,208,0,2,3,27,4,1,0,1,0,0,0,0,1,0,circle,hexagon,,,,,,,,,,,,,,,,,,,,,,,,,,,,,,,,,,,,,,,,,,,,,,,,,,,,,,
296050,2022-10-02_13h03.18.091,vts_reward_expectancy,2022.2.4,Win32,60.18657839,Chrome,1280,800,,,a,1.3872,10,218,0,2,4,28,6,1,0,0,1,0,1,0,0,0,hexagon,triangle,,,,,,,,,,,,,,,,,,,,,,,,,,,,,,,,,,,,,,,,,,,,,,,,,,,,,,
296050,2022-10-02_13h03.18.091,vts_reward_expectancy,2022.2.4,Win32,60.18657839,Chrome,1280,800,,,l,1.0539,1,219,0,2,5,29,2,1,1,0,0,0,0,0,0,1,triangle,star,,,,,,,,,,,,,,,,,,,,,,,,,,,,,,,,,,,,,,,,,,,,,,,,,,,,,,
296050,2022-10-02_13h03.18.091,vts_reward_expectancy,2022.2.4,Win32,60.18657839,Chrome,1280,800,,,l,1.0992,1,220,0,2,6,30,9,1,0,0,0,1,1,0,0,0,star,triangle,,,,,,,,,,,,,,,,,,,,,,,,,,,,,,,,,,,,,,,,,,,,,,,,,,,,,,
296050,2022-10-02_13h03.18.091,vts_reward_expectancy,2022.2.4,Win32,60.18657839,Chrome,1280,800,,,l,1.0678,10,230,0,2,7,31,1,1,1,0,0,0,0,0,1,0,triangle,hexagon,,,,,,,,,,,,,,,,,,,,,,,,,,,,,,,,,,,,,,,,,,,,,,,,,,,,,,
296050,2022-10-02_13h03.18.091,vts_reward_expectancy,2022.2.4,Win32,60.18657839,Chrome,1280,800,,,a,1.5573,10,240,0,2,8,32,0,1,1,0,0,0,0,1,0,0,triangle,circle,,,,,,,,,,,,,,,,,,,,,,,,,,,,,,,,,,,,,,,,,,,,,,,,,,,,,,
296050,2022-10-02_13h03.18.091,vts_reward_expectancy,2022.2.4,Win32,60.18657839,Chrome,1280,800,,,l,0.916,10,250,0,2,9,33,7,1,0,0,1,0,0,1,0,0,hexagon,circle,,,,,,,,,,,,,,,,,,,,,,,,,,,,,,,,,,,,,,,,,,,,,,,,,,,,,,
296050,2022-10-02_13h03.18.091,vts_reward_expectancy,2022.2.4,Win32,60.18657839,Chrome,1280,800,,,l,2.4667,1,251,0,2,10,34,3,1,0,1,0,0,1,0,0,0,circle,triangle,,,,,,,,,,,,,,,,,,,,,,,,,,,,,,,,,,,,,,,,,,,,,,,,,,,,,,
296050,2022-10-02_13h03.18.091,vts_reward_expectancy,2022.2.4,Win32,60.18657839,Chrome,1280,800,,,l,1.6636,1,252,0,2,11,35,11,1,0,0,0,1,0,0,1,0,star,hexagon,,,,,,,,,,,,,,,,,,,,,,,,,,,,,,,,,,,,,,,,,,,,,,,,,,,,,,
296050,2022-10-02_13h03.18.091,vts_reward_expectancy,2022.2.4,Win32,60.18657839,Chrome,1280,800,,,a,2.6034,1,253,1,0,0,0,9,1,0,0,0,1,1,0,0,0,star,triangle,,,,,,,,,,,,,,,,,,,,,,,,,,,,,,,,,,,,,,,,,,,,,,,,,,,,,,
296050,2022-10-02_13h03.18.091,vts_reward_expectancy,2022.2.4,Win32,60.18657839,Chrome,1280,800,,,a,2.0196,1,254,1,0,1,1,0,1,1,0,0,0,0,1,0,0,triangle,circle,,,,,,,,,,,,,,,,,,,,,,,,,,,,,,,,,,,,,,,,,,,,,,,,,,,,,,
296050,2022-10-02_13h03.18.091,vts_reward_expectancy,2022.2.4,Win32,60.18657839,Chrome,1280,800,,,l,1.4827,1,255,1,0,2,2,8,1,0,0,1,0,0,0,0,1,hexagon,star,,,,,,,,,,,,,,,,,,,,,,,,,,,,,,,,,,,,,,,,,,,,,,,,,,,,,,
296050,2022-10-02_13h03.18.091,vts_reward_expectancy,2022.2.4,Win32,60.18657839,Chrome,1280,800,,,a,3.3585,1,256,1,0,3,3,6,1,0,0,1,0,1,0,0,0,hexagon,triangle,,,,,,,,,,,,,,,,,,,,,,,,,,,,,,,,,,,,,,,,,,,,,,,,,,,,,,
296050,2022-10-02_13h03.18.091,vts_reward_expectancy,2022.2.4,Win32,60.18657839,Chrome,1280,800,,,l,1.2357,1,257,1,0,4,4,5,1,0,1,0,0,0,0,0,1,circle,star,,,,,,,,,,,,,,,,,,,,,,,,,,,,,,,,,,,,,,,,,,,,,,,,,,,,,,
296050,2022-10-02_13h03.18.091,vts_reward_expectancy,2022.2.4,Win32,60.18657839,Chrome,1280,800,,,l,1.9194,10,267,1,0,5,5,11,1,0,0,0,1,0,0,1,0,star,hexagon,,,,,,,,,,,,,,,,,,,,,,,,,,,,,,,,,,,,,,,,,,,,,,,,,,,,,,
296050,2022-10-02_13h03.18.091,vts_reward_expectancy,2022.2.4,Win32,60.18657839,Chrome,1280,800,,,l,4.0837,10,277,1,0,6,6,1,1,1,0,0,0,0,0,1,0,triangle,hexagon,,,,,,,,,,,,,,,,,,,,,,,,,,,,,,,,,,,,,,,,,,,,,,,,,,,,,,
296050,2022-10-02_13h03.18.091,vts_reward_expectancy,2022.2.4,Win32,60.18657839,Chrome,1280,800,,,a,1.4338,1,278,1,0,7,7,2,1,1,0,0,0,0,0,0,1,triangle,star,,,,,,,,,,,,,,,,,,,,,,,,,,,,,,,,,,,,,,,,,,,,,,,,,,,,,,
296050,2022-10-02_13h03.18.091,vts_reward_expectancy,2022.2.4,Win32,60.18657839,Chrome,1280,800,,,l,0.7636,10,288,1,0,8,8,10,1,0,0,0,1,0,1,0,0,star ,circle,,,,,,,,,,,,,,,,,,,,,,,,,,,,,,,,,,,,,,,,,,,,,,,,,,,,,,
296050,2022-10-02_13h03.18.091,vts_reward_expectancy,2022.2.4,Win32,60.18657839,Chrome,1280,800,,,l,1.5324,10,298,1,0,9,9,4,1,0,1,0,0,0,0,1,0,circle,hexagon,,,,,,,,,,,,,,,,,,,,,,,,,,,,,,,,,,,,,,,,,,,,,,,,,,,,,,
296050,2022-10-02_13h03.18.091,vts_reward_expectancy,2022.2.4,Win32,60.18657839,Chrome,1280,800,,,a,3.6519,1,299,1,0,10,10,3,1,0,1,0,0,1,0,0,0,circle,triangle,,,,,,,,,,,,,,,,,,,,,,,,,,,,,,,,,,,,,,,,,,,,,,,,,,,,,,
296050,2022-10-02_13h03.18.091,vts_reward_expectancy,2022.2.4,Win32,60.18657839,Chrome,1280,800,,,a,1.6187,10,309,1,0,11,11,7,1,0,0,1,0,0,1,0,0,hexagon,circle,,,,,,,,,,,,,,,,,,,,,,,,,,,,,,,,,,,,,,,,,,,,,,,,,,,,,,
296050,2022-10-02_13h03.18.091,vts_reward_expectancy,2022.2.4,Win32,60.18657839,Chrome,1280,800,,,l,4.9852,1,310,1,1,0,12,4,1,0,1,0,0,0,0,1,0,circle,hexagon,,,,,,,,,,,,,,,,,,,,,,,,,,,,,,,,,,,,,,,,,,,,,,,,,,,,,,
296050,2022-10-02_13h03.18.091,vts_reward_expectancy,2022.2.4,Win32,60.18657839,Chrome,1280,800,,,l,1.0511,10,320,1,1,1,13,5,1,0,1,0,0,0,0,0,1,circle,star,,,,,,,,,,,,,,,,,,,,,,,,,,,,,,,,,,,,,,,,,,,,,,,,,,,,,,
296050,2022-10-02_13h03.18.091,vts_reward_expectancy,2022.2.4,Win32,60.18657839,Chrome,1280,800,,,a,1.4673,10,330,1,1,2,14,8,1,0,0,1,0,0,0,0,1,hexagon,star,,,,,,,,,,,,,,,,,,,,,,,,,,,,,,,,,,,,,,,,,,,,,,,,,,,,,,
296050,2022-10-02_13h03.18.091,vts_reward_expectancy,2022.2.4,Win32,60.18657839,Chrome,1280,800,,,l,7.2361,10,340,1,1,3,15,10,1,0,0,0,1,0,1,0,0,star ,circle,,,,,,,,,,,,,,,,,,,,,,,,,,,,,,,,,,,,,,,,,,,,,,,,,,,,,,
296050,2022-10-02_13h03.18.091,vts_reward_expectancy,2022.2.4,Win32,60.18657839,Chrome,1280,800,,,a,2.7666,1,341,1,1,4,16,0,1,1,0,0,0,0,1,0,0,triangle,circle,,,,,,,,,,,,,,,,,,,,,,,,,,,,,,,,,,,,,,,,,,,,,,,,,,,,,,
296050,2022-10-02_13h03.18.091,vts_reward_expectancy,2022.2.4,Win32,60.18657839,Chrome,1280,800,,,l,1.4055,10,351,1,1,5,17,1,1,1,0,0,0,0,0,1,0,triangle,hexagon,,,,,,,,,,,,,,,,,,,,,,,,,,,,,,,,,,,,,,,,,,,,,,,,,,,,,,
296050,2022-10-02_13h03.18.091,vts_reward_expectancy,2022.2.4,Win32,60.18657839,Chrome,1280,800,,,a,2.437,10,361,1,1,6,18,7,1,0,0,1,0,0,1,0,0,hexagon,circle,,,,,,,,,,,,,,,,,,,,,,,,,,,,,,,,,,,,,,,,,,,,,,,,,,,,,,
296050,2022-10-02_13h03.18.091,vts_reward_expectancy,2022.2.4,Win32,60.18657839,Chrome,1280,800,,,l,3.0405,1,362,1,1,7,19,11,1,0,0,0,1,0,0,1,0,star,hexagon,,,,,,,,,,,,,,,,,,,,,,,,,,,,,,,,,,,,,,,,,,,,,,,,,,,,,,
296050,2022-10-02_13h03.18.091,vts_reward_expectancy,2022.2.4,Win32,60.18657839,Chrome,1280,800,,,a,1.8918,1,363,1,1,8,20,3,1,0,1,0,0,1,0,0,0,circle,triangle,,,,,,,,,,,,,,,,,,,,,,,,,,,,,,,,,,,,,,,,,,,,,,,,,,,,,,
296050,2022-10-02_13h03.18.091,vts_reward_expectancy,2022.2.4,Win32,60.18657839,Chrome,1280,800,,,a,1.8673,10,373,1,1,9,21,9,1,0,0,0,1,1,0,0,0,star,triangle,,,,,,,,,,,,,,,,,,,,,,,,,,,,,,,,,,,,,,,,,,,,,,,,,,,,,,
296050,2022-10-02_13h03.18.091,vts_reward_expectancy,2022.2.4,Win32,60.18657839,Chrome,1280,800,,,l,1.6678,10,383,1,1,10,22,2,1,1,0,0,0,0,0,0,1,triangle,star,,,,,,,,,,,,,,,,,,,,,,,,,,,,,,,,,,,,,,,,,,,,,,,,,,,,,,
296050,2022-10-02_13h03.18.091,vts_reward_expectancy,2022.2.4,Win32,60.18657839,Chrome,1280,800,,,a,1.5326,10,393,1,1,11,23,6,1,0,0,1,0,1,0,0,0,hexagon,triangle,,,,,,,,,,,,,,,,,,,,,,,,,,,,,,,,,,,,,,,,,,,,,,,,,,,,,,
296050,2022-10-02_13h03.18.091,vts_reward_expectancy,2022.2.4,Win32,60.18657839,Chrome,1280,800,,,a,1.2338,10,403,1,2,0,24,9,1,0,0,0,1,1,0,0,0,star,triangle,,,,,,,,,,,,,,,,,,,,,,,,,,,,,,,,,,,,,,,,,,,,,,,,,,,,,,
296050,2022-10-02_13h03.18.091,vts_reward_expectancy,2022.2.4,Win32,60.18657839,Chrome,1280,800,,,a,0.9502,10,413,1,2,1,25,10,1,0,0,0,1,0,1,0,0,star ,circle,,,,,,,,,,,,,,,,,,,,,,,,,,,,,,,,,,,,,,,,,,,,,,,,,,,,,,
296050,2022-10-02_13h03.18.091,vts_reward_expectancy,2022.2.4,Win32,60.18657839,Chrome,1280,800,,,l,2.4495,10,423,1,2,2,26,4,1,0,1,0,0,0,0,1,0,circle,hexagon,,,,,,,,,,,,,,,,,,,,,,,,,,,,,,,,,,,,,,,,,,,,,,,,,,,,,,
296050,2022-10-02_13h03.18.091,vts_reward_expectancy,2022.2.4,Win32,60.18657839,Chrome,1280,800,,,a,2.183,10,433,1,2,3,27,6,1,0,0,1,0,1,0,0,0,hexagon,triangle,,,,,,,,,,,,,,,,,,,,,,,,,,,,,,,,,,,,,,,,,,,,,,,,,,,,,,
296050,2022-10-02_13h03.18.091,vts_reward_expectancy,2022.2.4,Win32,60.18657839,Chrome,1280,800,,,a,1.1572,10,443,1,2,4,28,7,1,0,0,1,0,0,1,0,0,hexagon,circle,,,,,,,,,,,,,,,,,,,,,,,,,,,,,,,,,,,,,,,,,,,,,,,,,,,,,,
296050,2022-10-02_13h03.18.091,vts_reward_expectancy,2022.2.4,Win32,60.18657839,Chrome,1280,800,,,l,1.3137,10,453,1,2,5,29,8,1,0,0,1,0,0,0,0,1,hexagon,star,,,,,,,,,,,,,,,,,,,,,,,,,,,,,,,,,,,,,,,,,,,,,,,,,,,,,,
296050,2022-10-02_13h03.18.091,vts_reward_expectancy,2022.2.4,Win32,60.18657839,Chrome,1280,800,,,a,2.666,1,454,1,2,6,30,0,1,1,0,0,0,0,1,0,0,triangle,circle,,,,,,,,,,,,,,,,,,,,,,,,,,,,,,,,,,,,,,,,,,,,,,,,,,,,,,
296050,2022-10-02_13h03.18.091,vts_reward_expectancy,2022.2.4,Win32,60.18657839,Chrome,1280,800,,,l,1.0838,10,464,1,2,7,31,5,1,0,1,0,0,0,0,0,1,circle,star,,,,,,,,,,,,,,,,,,,,,,,,,,,,,,,,,,,,,,,,,,,,,,,,,,,,,,
296050,2022-10-02_13h03.18.091,vts_reward_expectancy,2022.2.4,Win32,60.18657839,Chrome,1280,800,,,a,3.334,10,474,1,2,8,32,3,1,0,1,0,0,1,0,0,0,circle,triangle,,,,,,,,,,,,,,,,,,,,,,,,,,,,,,,,,,,,,,,,,,,,,,,,,,,,,,
296050,2022-10-02_13h03.18.091,vts_reward_expectancy,2022.2.4,Win32,60.18657839,Chrome,1280,800,,,l,1.3522,10,484,1,2,9,33,1,1,1,0,0,0,0,0,1,0,triangle,hexagon,,,,,,,,,,,,,,,,,,,,,,,,,,,,,,,,,,,,,,,,,,,,,,,,,,,,,,
296050,2022-10-02_13h03.18.091,vts_reward_expectancy,2022.2.4,Win32,60.18657839,Chrome,1280,800,,,l,1.1495,1,485,1,2,10,34,2,1,1,0,0,0,0,0,0,1,triangle,star,,,,,,,,,,,,,,,,,,,,,,,,,,,,,,,,,,,,,,,,,,,,,,,,,,,,,,
296050,2022-10-02_13h03.18.091,vts_reward_expectancy,2022.2.4,Win32,60.18657839,Chrome,1280,800,,,a,2.2839,1,486,1,2,11,35,11,1,0,0,0,1,0,0,1,0,star,hexagon,,,,,,,,,,,,,,,,,,,,,,,,,,,,,,,,,,,,,,,,,,,,,,,,,,,,,,
296050,2022-10-02_13h03.18.091,vts_reward_expectancy,2022.2.4,Win32,60.18657839,Chrome,1280,800,,,a,1.2576,1,487,2,0,0,0,0,1,1,0,0,0,0,1,0,0,triangle,circle,,,,,,,,,,,,,,,,,,,,,,,,,,,,,,,,,,,,,,,,,,,,,,,,,,,,,,
296050,2022-10-02_13h03.18.091,vts_reward_expectancy,2022.2.4,Win32,60.18657839,Chrome,1280,800,,,l,2.0681,10,497,2,0,1,1,9,1,0,0,0,1,1,0,0,0,star,triangle,,,,,,,,,,,,,,,,,,,,,,,,,,,,,,,,,,,,,,,,,,,,,,,,,,,,,,
296050,2022-10-02_13h03.18.091,vts_reward_expectancy,2022.2.4,Win32,60.18657839,Chrome,1280,800,,,a,1.3251,10,507,2,0,2,2,6,1,0,0,1,0,1,0,0,0,hexagon,triangle,,,,,,,,,,,,,,,,,,,,,,,,,,,,,,,,,,,,,,,,,,,,,,,,,,,,,,
296050,2022-10-02_13h03.18.091,vts_reward_expectancy,2022.2.4,Win32,60.18657839,Chrome,1280,800,,,l,2.876,1,508,2,0,3,3,4,1,0,1,0,0,0,0,1,0,circle,hexagon,,,,,,,,,,,,,,,,,,,,,,,,,,,,,,,,,,,,,,,,,,,,,,,,,,,,,,
296050,2022-10-02_13h03.18.091,vts_reward_expectancy,2022.2.4,Win32,60.18657839,Chrome,1280,800,,,l,1.1195,1,509,2,0,4,4,10,1,0,0,0,1,0,1,0,0,star ,circle,,,,,,,,,,,,,,,,,,,,,,,,,,,,,,,,,,,,,,,,,,,,,,,,,,,,,,
296050,2022-10-02_13h03.18.091,vts_reward_expectancy,2022.2.4,Win32,60.18657839,Chrome,1280,800,,,l,1.6328,10,519,2,0,5,5,7,1,0,0,1,0,0,1,0,0,hexagon,circle,,,,,,,,,,,,,,,,,,,,,,,,,,,,,,,,,,,,,,,,,,,,,,,,,,,,,,
296050,2022-10-02_13h03.18.091,vts_reward_expectancy,2022.2.4,Win32,60.18657839,Chrome,1280,800,,,l,0.9553,10,529,2,0,6,6,8,1,0,0,1,0,0,0,0,1,hexagon,star,,,,,,,,,,,,,,,,,,,,,,,,,,,,,,,,,,,,,,,,,,,,,,,,,,,,,,
296050,2022-10-02_13h03.18.091,vts_reward_expectancy,2022.2.4,Win32,60.18657839,Chrome,1280,800,,,a,1.0861,1,530,2,0,7,7,11,1,0,0,0,1,0,0,1,0,star,hexagon,,,,,,,,,,,,,,,,,,,,,,,,,,,,,,,,,,,,,,,,,,,,,,,,,,,,,,
296050,2022-10-02_13h03.18.091,vts_reward_expectancy,2022.2.4,Win32,60.18657839,Chrome,1280,800,,,l,2.7329,10,540,2,0,8,8,5,1,0,1,0,0,0,0,0,1,circle,star,,,,,,,,,,,,,,,,,,,,,,,,,,,,,,,,,,,,,,,,,,,,,,,,,,,,,,
296050,2022-10-02_13h03.18.091,vts_reward_expectancy,2022.2.4,Win32,60.18657839,Chrome,1280,800,,,a,4.7516,1,541,2,0,9,9,3,1,0,1,0,0,1,0,0,0,circle,triangle,,,,,,,,,,,,,,,,,,,,,,,,,,,,,,,,,,,,,,,,,,,,,,,,,,,,,,
296050,2022-10-02_13h03.18.091,vts_reward_expectancy,2022.2.4,Win32,60.18657839,Chrome,1280,800,,,l,1.3519,10,551,2,0,10,10,1,1,1,0,0,0,0,0,1,0,triangle,hexagon,,,,,,,,,,,,,,,,,,,,,,,,,,,,,,,,,,,,,,,,,,,,,,,,,,,,,,
296050,2022-10-02_13h03.18.091,vts_reward_expectancy,2022.2.4,Win32,60.18657839,Chrome,1280,800,,,l,1.4837,10,561,2,0,11,11,2,1,1,0,0,0,0,0,0,1,triangle,star,,,,,,,,,,,,,,,,,,,,,,,,,,,,,,,,,,,,,,,,,,,,,,,,,,,,,,
296050,2022-10-02_13h03.18.091,vts_reward_expectancy,2022.2.4,Win32,60.18657839,Chrome,1280,800,,,l,1.3833,10,571,2,1,0,12,0,1,1,0,0,0,0,1,0,0,triangle,circle,,,,,,,,,,,,,,,,,,,,,,,,,,,,,,,,,,,,,,,,,,,,,,,,,,,,,,
296050,2022-10-02_13h03.18.091,vts_reward_expectancy,2022.2.4,Win32,60.18657839,Chrome,1280,800,,,l,2.1683,10,581,2,1,1,13,4,1,0,1,0,0,0,0,1,0,circle,hexagon,,,,,,,,,,,,,,,,,,,,,,,,,,,,,,,,,,,,,,,,,,,,,,,,,,,,,,
296050,2022-10-02_13h03.18.091,vts_reward_expectancy,2022.2.4,Win32,60.18657839,Chrome,1280,800,,,a,1.1683,10,591,2,1,2,14,7,1,0,0,1,0,0,1,0,0,hexagon,circle,,,,,,,,,,,,,,,,,,,,,,,,,,,,,,,,,,,,,,,,,,,,,,,,,,,,,,
296050,2022-10-02_13h03.18.091,vts_reward_expectancy,2022.2.4,Win32,60.18657839,Chrome,1280,800,,,l,1.2175,10,601,2,1,3,15,11,1,0,0,0,1,0,0,1,0,star,hexagon,,,,,,,,,,,,,,,,,,,,,,,,,,,,,,,,,,,,,,,,,,,,,,,,,,,,,,
296050,2022-10-02_13h03.18.091,vts_reward_expectancy,2022.2.4,Win32,60.18657839,Chrome,1280,800,,,l,1.3872,1,602,2,1,4,16,2,1,1,0,0,0,0,0,0,1,triangle,star,,,,,,,,,,,,,,,,,,,,,,,,,,,,,,,,,,,,,,,,,,,,,,,,,,,,,,
296050,2022-10-02_13h03.18.091,vts_reward_expectancy,2022.2.4,Win32,60.18657839,Chrome,1280,800,,,l,1.6183,10,612,2,1,5,17,6,1,0,0,1,0,1,0,0,0,hexagon,triangle,,,,,,,,,,,,,,,,,,,,,,,,,,,,,,,,,,,,,,,,,,,,,,,,,,,,,,
296050,2022-10-02_13h03.18.091,vts_reward_expectancy,2022.2.4,Win32,60.18657839,Chrome,1280,800,,,a,3.3168,10,622,2,1,6,18,10,1,0,0,0,1,0,1,0,0,star ,circle,,,,,,,,,,,,,,,,,,,,,,,,,,,,,,,,,,,,,,,,,,,,,,,,,,,,,,
296050,2022-10-02_13h03.18.091,vts_reward_expectancy,2022.2.4,Win32,60.18657839,Chrome,1280,800,,,l,1.4181,10,632,2,1,7,19,1,1,1,0,0,0,0,0,1,0,triangle,hexagon,,,,,,,,,,,,,,,,,,,,,,,,,,,,,,,,,,,,,,,,,,,,,,,,,,,,,,
296050,2022-10-02_13h03.18.091,vts_reward_expectancy,2022.2.4,Win32,60.18657839,Chrome,1280,800,,,l,2.3842,1,633,2,1,8,20,5,1,0,1,0,0,0,0,0,1,circle,star,,,,,,,,,,,,,,,,,,,,,,,,,,,,,,,,,,,,,,,,,,,,,,,,,,,,,,
296050,2022-10-02_13h03.18.091,vts_reward_expectancy,2022.2.4,Win32,60.18657839,Chrome,1280,800,,,l,0.8516,1,634,2,1,9,21,9,1,0,0,0,1,1,0,0,0,star,triangle,,,,,,,,,,,,,,,,,,,,,,,,,,,,,,,,,,,,,,,,,,,,,,,,,,,,,,
296050,2022-10-02_13h03.18.091,vts_reward_expectancy,2022.2.4,Win32,60.18657839,Chrome,1280,800,,,a,0.7495,10,644,2,1,10,22,3,1,0,1,0,0,1,0,0,0,circle,triangle,,,,,,,,,,,,,,,,,,,,,,,,,,,,,,,,,,,,,,,,,,,,,,,,,,,,,,
296050,2022-10-02_13h03.18.091,vts_reward_expectancy,2022.2.4,Win32,60.18657839,Chrome,1280,800,,,l,0.7677,10,654,2,1,11,23,8,1,0,0,1,0,0,0,0,1,hexagon,star,,,,,,,,,,,,,,,,,,,,,,,,,,,,,,,,,,,,,,,,,,,,,,,,,,,,,,
296050,2022-10-02_13h03.18.091,vts_reward_expectancy,2022.2.4,Win32,60.18657839,Chrome,1280,800,,,a,0.7248,10,664,2,2,0,24,4,1,0,1,0,0,0,0,1,0,circle,hexagon,,,,,,,,,,,,,,,,,,,,,,,,,,,,,,,,,,,,,,,,,,,,,,,,,,,,,,
296050,2022-10-02_13h03.18.091,vts_reward_expectancy,2022.2.4,Win32,60.18657839,Chrome,1280,800,,,l,0.7023,1,665,2,2,1,25,9,1,0,0,0,1,1,0,0,0,star,triangle,,,,,,,,,,,,,,,,,,,,,,,,,,,,,,,,,,,,,,,,,,,,,,,,,,,,,,
296050,2022-10-02_13h03.18.091,vts_reward_expectancy,2022.2.4,Win32,60.18657839,Chrome,1280,800,,,a,1.1358,1,666,2,2,2,26,11,1,0,0,0,1,0,0,1,0,star,hexagon,,,,,,,,,,,,,,,,,,,,,,,,,,,,,,,,,,,,,,,,,,,,,,,,,,,,,,
296050,2022-10-02_13h03.18.091,vts_reward_expectancy,2022.2.4,Win32,60.18657839,Chrome,1280,800,,,l,1.7011,10,676,2,2,3,27,1,1,1,0,0,0,0,0,1,0,triangle,hexagon,,,,,,,,,,,,,,,,,,,,,,,,,,,,,,,,,,,,,,,,,,,,,,,,,,,,,,
296050,2022-10-02_13h03.18.091,vts_reward_expectancy,2022.2.4,Win32,60.18657839,Chrome,1280,800,,,l,0.8348,10,686,2,2,4,28,2,1,1,0,0,0,0,0,0,1,triangle,star,,,,,,,,,,,,,,,,,,,,,,,,,,,,,,,,,,,,,,,,,,,,,,,,,,,,,,
296050,2022-10-02_13h03.18.091,vts_reward_expectancy,2022.2.4,Win32,60.18657839,Chrome,1280,800,,,a,1.1681,10,696,2,2,5,29,10,1,0,0,0,1,0,1,0,0,star ,circle,,,,,,,,,,,,,,,,,,,,,,,,,,,,,,,,,,,,,,,,,,,,,,,,,,,,,,
296050,2022-10-02_13h03.18.091,vts_reward_expectancy,2022.2.4,Win32,60.18657839,Chrome,1280,800,,,l,0.8164,1,697,2,2,6,30,6,1,0,0,1,0,1,0,0,0,hexagon,triangle,,,,,,,,,,,,,,,,,,,,,,,,,,,,,,,,,,,,,,,,,,,,,,,,,,,,,,
296050,2022-10-02_13h03.18.091,vts_reward_expectancy,2022.2.4,Win32,60.18657839,Chrome,1280,800,,,a,0.7512,1,698,2,2,7,31,0,1,1,0,0,0,0,1,0,0,triangle,circle,,,,,,,,,,,,,,,,,,,,,,,,,,,,,,,,,,,,,,,,,,,,,,,,,,,,,,
296050,2022-10-02_13h03.18.091,vts_reward_expectancy,2022.2.4,Win32,60.18657839,Chrome,1280,800,,,a,1.15,10,708,2,2,8,32,5,1,0,1,0,0,0,0,0,1,circle,star,,,,,,,,,,,,,,,,,,,,,,,,,,,,,,,,,,,,,,,,,,,,,,,,,,,,,,
296050,2022-10-02_13h03.18.091,vts_reward_expectancy,2022.2.4,Win32,60.18657839,Chrome,1280,800,,,a,1.1021,10,718,2,2,9,33,8,1,0,0,1,0,0,0,0,1,hexagon,star,,,,,,,,,,,,,,,,,,,,,,,,,,,,,,,,,,,,,,,,,,,,,,,,,,,,,,
296050,2022-10-02_13h03.18.091,vts_reward_expectancy,2022.2.4,Win32,60.18657839,Chrome,1280,800,,,a,1.017,1,719,2,2,10,34,3,1,0,1,0,0,1,0,0,0,circle,triangle,,,,,,,,,,,,,,,,,,,,,,,,,,,,,,,,,,,,,,,,,,,,,,,,,,,,,,
296050,2022-10-02_13h03.18.091,vts_reward_expectancy,2022.2.4,Win32,60.18657839,Chrome,1280,800,,,a,1.4734,10,729,2,2,11,35,7,1,0,0,1,0,0,1,0,0,hexagon,circle,,,,,,,,,,,,,,,,,,,,,,,,,,,,,,,,,,,,,,,,,,,,,,,,,,,,,,
296050,2022-10-02_13h03.18.091,vts_reward_expectancy,2022.2.4,Win32,60.18657839,Chrome,1280,800,,,,,,,,,,,,,,,,,,,,,,,181,B,hexagon,0,0,,0,0,0,0,0,1,,,,,,,,,,,,,,,,,,,,,,,,,,,,,,,,,,,,,,,,,,
296050,2022-10-02_13h03.18.091,vts_reward_expectancy,2022.2.4,Win32,60.18657839,Chrome,1280,800,,,,,,,,,,,,,,,,,,,,,,,132,U,star,1,1,d,0,1,0,1,0,1,0.9533,,,,,,,,,,,,,,,,,,,,,,,,,,,,,,,,,,,,,,,,,
296050,2022-10-02_13h03.18.091,vts_reward_expectancy,2022.2.4,Win32,60.18657839,Chrome,1280,800,,,,,,,,,,,,,,,,,,,,,,,146,F,triangle,1,0,d,0,2,0,2,0,1,1.0705,,,,,,,,,,,,,,,,,,,,,,,,,,,,,,,,,,,,,,,,,
296050,2022-10-02_13h03.18.091,vts_reward_expectancy,2022.2.4,Win32,60.18657839,Chrome,1280,800,,,,,,,,,,,,,,,,,,,,,,,167,W,circle,1,0,f,0,3,0,3,0,1,0.7567,,,,,,,,,,,,,,,,,,,,,,,,,,,,,,,,,,,,,,,,,
296050,2022-10-02_13h03.18.091,vts_reward_expectancy,2022.2.4,Win32,60.18657839,Chrome,1280,800,,,,,,,,,,,,,,,,,,,,,,,160,Y,hexagon,1,0,f,0,4,0,4,0,1,0.7437,,,,,,,,,,,,,,,,,,,,,,,,,,,,,,,,,,,,,,,,,
296050,2022-10-02_13h03.18.091,vts_reward_expectancy,2022.2.4,Win32,60.18657839,Chrome,1280,800,,,,,,,,,,,,,,,,,,,,,,,139,D,star,1,0,d,0,5,0,5,0,1,0.7336,,,,,,,,,,,,,,,,,,,,,,,,,,,,,,,,,,,,,,,,,
296050,2022-10-02_13h03.18.091,vts_reward_expectancy,2022.2.4,Win32,60.18657839,Chrome,1280,800,,,,,,,,,,,,,,,,,,,,,,,125,S,triangle,1,0,d,0,6,0,6,0,1,0.5745,,,,,,,,,,,,,,,,,,,,,,,,,,,,,,,,,,,,,,,,,
296050,2022-10-02_13h03.18.091,vts_reward_expectancy,2022.2.4,Win32,60.18657839,Chrome,1280,800,,,,,,,,,,,,,,,,,,,,,,,174,H,circle,1,0,f,0,7,0,7,0,1,0.657,,,,,,,,,,,,,,,,,,,,,,,,,,,,,,,,,,,,,,,,,
296050,2022-10-02_13h03.18.091,vts_reward_expectancy,2022.2.4,Win32,60.18657839,Chrome,1280,800,,,,,,,,,,,,,,,,,,,,,,,181,B,star,1,0,f,0,8,0,8,0,1,0.6849,,,,,,,,,,,,,,,,,,,,,,,,,,,,,,,,,,,,,,,,,
296050,2022-10-02_13h03.18.091,vts_reward_expectancy,2022.2.4,Win32,60.18657839,Chrome,1280,800,,,,,,,,,,,,,,,,,,,,,,,132,U,hexagon,1,0,d,0,9,0,9,0,1,0.6592,,,,,,,,,,,,,,,,,,,,,,,,,,,,,,,,,,,,,,,,,
296050,2022-10-02_13h03.18.091,vts_reward_expectancy,2022.2.4,Win32,60.18657839,Chrome,1280,800,,,,,,,,,,,,,,,,,,,,,,,125,H,hexagon,1,0,,1,,,,,,,j,2.0116,0,0,0,0,1,,,,,,,,,,,,,,,,,,,,,,,,,,,,,,,,,,
296050,2022-10-02_13h03.18.091,vts_reward_expectancy,2022.2.4,Win32,60.18657839,Chrome,1280,800,,,,,,,,,,,,,,,,,,,,,,,132,B,triangle,1,0,,1,,,,,,,j,1.0797,1,0,1,0,1,,,,,,,,,,,,,,,,,,,,,,,,,,,,,,,,,,
296050,2022-10-02_13h03.18.091,vts_reward_expectancy,2022.2.4,Win32,60.18657839,Chrome,1280,800,,,,,,,,,,,,,,,,,,,,,,,139,S,star,1,0,,1,,,,,,,k,0.8652,2,0,2,0,1,,,,,,,,,,,,,,,,,,,,,,,,,,,,,,,,,,
296050,2022-10-02_13h03.18.091,vts_reward_expectancy,2022.2.4,Win32,60.18657839,Chrome,1280,800,,,,,,,,,,,,,,,,,,,,,,,181,W,circle,1,0,,1,,,,,,,k,0.7617,3,0,3,0,1,,,,,,,,,,,,,,,,,,,,,,,,,,,,,,,,,,
296050,2022-10-02_13h03.18.091,vts_reward_expectancy,2022.2.4,Win32,60.18657839,Chrome,1280,800,,,,,,,,,,,,,,,,,,,,,,,167,D,hexagon,1,0,,1,,,,,,,j,0.7992,4,0,4,0,1,,,,,,,,,,,,,,,,,,,,,,,,,,,,,,,,,,
296050,2022-10-02_13h03.18.091,vts_reward_expectancy,2022.2.4,Win32,60.18657839,Chrome,1280,800,,,,,,,,,,,,,,,,,,,,,,,146,Y,triangle,1,0,,1,,,,,,,k,0.648,5,0,5,0,1,,,,,,,,,,,,,,,,,,,,,,,,,,,,,,,,,,
296050,2022-10-02_13h03.18.091,vts_reward_expectancy,2022.2.4,Win32,60.18657839,Chrome,1280,800,,,,,,,,,,,,,,,,,,,,,,,160,U,star,1,0,,1,,,,,,,k,0.7637,6,0,6,0,1,,,,,,,,,,,,,,,,,,,,,,,,,,,,,,,,,,
296050,2022-10-02_13h03.18.091,vts_reward_expectancy,2022.2.4,Win32,60.18657839,Chrome,1280,800,,,,,,,,,,,,,,,,,,,,,,,174,F,circle,1,0,,1,,,,,,,j,0.6877,7,0,7,0,1,,,,,,,,,,,,,,,,,,,,,,,,,,,,,,,,,,
296050,2022-10-02_13h03.18.091,vts_reward_expectancy,2022.2.4,Win32,60.18657839,Chrome,1280,800,,,,,,,,,,,,,,,,,,,,,,,125,H,star,1,0,,1,,,,,,,j,0.7119,8,0,8,0,1,,,,,,,,,,,,,,,,,,,,,,,,,,,,,,,,,,
296050,2022-10-02_13h03.18.091,vts_reward_expectancy,2022.2.4,Win32,60.18657839,Chrome,1280,800,,,,,,,,,,,,,,,,,,,,,,,132,B,circle,1,0,,1,,,,,,,j,0.7477,9,0,9,0,1,,,,,,,,,,,,,,,,,,,,,,,,,,,,,,,,,,
296050,2022-10-02_13h03.18.091,vts_reward_expectancy,2022.2.4,Win32,60.18657839,Chrome,1280,800,,,,,0,729,,,,,,,,,,,,,,,,,125,Y,circle,1,0,,2,,,,,,,,,,,,,,-1,number,NA,d,1.0269,vtsPrac,0,0,0,0,1,,,,,,,,,,,,,,,,,,,,,,,
296050,2022-10-02_13h03.18.091,vts_reward_expectancy,2022.2.4,Win32,60.18657839,Chrome,1280,800,,,,,0,729,,,,,,,,,,,,,,,,,146,U,star,-1,0,,2,,,,,,,,,,,,,,switch,no_choice,NA,,,vtsPrac,1,0,1,0,1,,,,,,,,,,,,,,,,,,,,,,,
296050,2022-10-02_13h03.18.091,vts_reward_expectancy,2022.2.4,Win32,60.18657839,Chrome,1280,800,,,,,0,729,,,,,,,,,,,,,,,,,160,F,circle,1,0,,2,,,,,,,,,,,,,,switch,letter,lettSwt,j,0.6649,vtsPrac,2,0,2,0,1,,,,,,,,,,,,,,,,,,,,,,,
296050,2022-10-02_13h03.18.091,vts_reward_expectancy,2022.2.4,Win32,60.18657839,Chrome,1280,800,,,,,0,729,,,,,,,,,,,,,,,,,132,W,star,1,0,,2,,,,,,,,,,,,,,switch,number,numSwt,d,1.2303,vtsPrac,3,0,3,0,1,,,,,,,,,,,,,,,,,,,,,,,
296050,2022-10-02_13h03.18.091,vts_reward_expectancy,2022.2.4,Win32,60.18657839,Chrome,1280,800,,,,,0,729,,,,,,,,,,,,,,,,,125,Y,hexagon,1,0,,2,,,,,,,,,,,,,,repeat,number,numRpt,d,0.7661,vtsPrac,4,0,4,0,1,,,,,,,,,,,,,,,,,,,,,,,
296050,2022-10-02_13h03.18.091,vts_reward_expectancy,2022.2.4,Win32,60.18657839,Chrome,1280,800,,,,,0,729,,,,,,,,,,,,,,,,,146,U,star,1,0,,2,,,,,,,,,,,,,,repeat,number,numRpt,d,0.8502,vtsPrac,5,0,5,0,1,,,,,,,,,,,,,,,,,,,,,,,
296050,2022-10-02_13h03.18.091,vts_reward_expectancy,2022.2.4,Win32,60.18657839,Chrome,1280,800,,,,,0,729,,,,,,,,,,,,,,,,,160,F,star,1,0,,2,,,,,,,,,,,,,,switch,letter,lettSwt,j,0.6449,vtsPrac,6,0,6,0,1,,,,,,,,,,,,,,,,,,,,,,,
296050,2022-10-02_13h03.18.091,vts_reward_expectancy,2022.2.4,Win32,60.18657839,Chrome,1280,800,,,,,0,729,,,,,,,,,,,,,,,,,132,W,hexagon,1,0,,2,,,,,,,,,,,,,,repeat,letter,lettRpt,k,0.7799,vtsPrac,7,0,7,0,1,,,,,,,,,,,,,,,,,,,,,,,
296050,2022-10-02_13h03.18.091,vts_reward_expectancy,2022.2.4,Win32,60.18657839,Chrome,1280,800,,,,,0,729,,,,,,,,,,,,,,,,,181,F,triangle,1,0,,2,,,,,,,,,,,,,,repeat,letter,lettRpt,j,0.7172,vtsPrac,8,0,8,0,1,,,,,,,,,,,,,,,,,,,,,,,
296050,2022-10-02_13h03.18.091,vts_reward_expectancy,2022.2.4,Win32,60.18657839,Chrome,1280,800,,,,,0,729,,,,,,,,,,,,,,,,,167,U,circle,1,0,,2,,,,,,,,,,,,,,repeat,letter,lettRpt,k,0.6168,vtsPrac,9,0,9,0,1,,,,,,,,,,,,,,,,,,,,,,,
296050,2022-10-02_13h03.18.091,vts_reward_expectancy,2022.2.4,Win32,60.18657839,Chrome,1280,800,,,,,0,729,,,,,,,,,,,,,,,,,174,W,circle,1,0,,2,,,,,,,,,,,,,,switch,number,numSwt,f,0.7455,vtsPrac,10,0,10,0,1,,,,,,,,,,,,,,,,,,,,,,,
296050,2022-10-02_13h03.18.091,vts_reward_expectancy,2022.2.4,Win32,60.18657839,Chrome,1280,800,,,,,0,729,,,,,,,,,,,,,,,,,139,Y,star,1,0,,2,,,,,,,,,,,,,,repeat,number,numRpt,d,0.7137,vtsPrac,11,0,11,0,1,,,,,,,,,,,,,,,,,,,,,,,
296050,2022-10-02_13h03.18.091,vts_reward_expectancy,2022.2.4,Win32,60.18657839,Chrome,1280,800,,,,,0,729,,,,,,,,,,,,,,,,,139,U,triangle,1,0,,2,,,,,,,,,,,,,,repeat,number,numRpt,d,0.6849,vtsPrac,12,0,12,0,1,,,,,,,,,,,,,,,,,,,,,,,
296050,2022-10-02_13h03.18.091,vts_reward_expectancy,2022.2.4,Win32,60.18657839,Chrome,1280,800,,,,,0,729,,,,,,,,,,,,,,,,,174,F,hexagon,1,0,,2,,,,,,,,,,,,,,repeat,number,numRpt,f,0.7435,vtsPrac,13,0,13,0,1,,,,,,,,,,,,,,,,,,,,,,,
296050,2022-10-02_13h03.18.091,vts_reward_expectancy,2022.2.4,Win32,60.18657839,Chrome,1280,800,,,,,0,729,,,,,,,,,,,,,,,,,167,H,triangle,1,0,,2,,,,,,,,,,,,,,repeat,number,numRpt,f,0.6961,vtsPrac,14,0,14,0,1,,,,,,,,,,,,,,,,,,,,,,,
296050,2022-10-02_13h03.18.091,vts_reward_expectancy,2022.2.4,Win32,60.18657839,Chrome,1280,800,,,,,0,729,,,,,,,,,,,,,,,,,132,Y,circle,1,0,,2,,,,,,,,,,,,,,switch,letter,lettSwt,k,0.6019,vtsPrac,15,0,15,0,1,,,,,,,,,,,,,,,,,,,,,,,
296050,2022-10-02_13h03.18.091,vts_reward_expectancy,2022.2.4,Win32,60.18657839,Chrome,1280,800,,,,,,,,,,,,,,,,,,,,,,,,,,,,,,,,,,,,,,,,,,,,,,,,,,,,,,,,,,,,,,,,,,,,,,,,,,,,
296050,2022-10-02_13h03.18.091,vts_reward_expectancy,2022.2.4,Win32,60.18657839,Chrome,1280,800,,,,,,,,,,,,,,,,,,,,,,,,,,,,,,,,,,,,,,,,,,,,,,,,,,,,,,,,,,,,,,,,,,,,,,,,,,,,
296050,2022-10-02_13h03.18.091,vts_reward_expectancy,2022.2.4,Win32,60.18657839,Chrome,1280,800,,,,,0,729,,,,,,,,,,,,,,,,,181,Y,triangle,0,0,,,,,,,,,,,,,,,,switch,number,NA,d,1.9641,noRew,,,,,,0,0,0,0,0,1,,,,,,,,,,,,,,,,,
296050,2022-10-02_13h03.18.091,vts_reward_expectancy,2022.2.4,Win32,60.18657839,Chrome,1280,800,,,,,0,729,,,,,,,,,,,,,,,,,125,U,circle,1,1,,,,,,,,,,,,,,,,switch,letter,lettSwt,k,1.1773,noRew,,,,,,0,1,0,1,0,1,,,,,,,,,,,,,,,,,
296050,2022-10-02_13h03.18.091,vts_reward_expectancy,2022.2.4,Win32,60.18657839,Chrome,1280,800,,,,,0,729,,,,,,,,,,,,,,,,,139,H,triangle,0,0,,,,,,,,,,,,,,,,repeat,letter,NA,k,0.603,noRew,,,,,,0,2,0,2,0,1,,,,,,,,,,,,,,,,,
296050,2022-10-02_13h03.18.091,vts_reward_expectancy,2022.2.4,Win32,60.18657839,Chrome,1280,800,,,,,0,729,,,,,,,,,,,,,,,,,146,D,circle,1,1,,,,,,,,,,,,,,,,repeat,letter,lettRpt,j,0.7111,noRew,,,,,,0,3,0,3,0,1,,,,,,,,,,,,,,,,,
296050,2022-10-02_13h03.18.091,vts_reward_expectancy,2022.2.4,Win32,60.18657839,Chrome,1280,800,,,,,0,729,,,,,,,,,,,,,,,,,181,Y,circle,1,0,,,,,,,,,,,,,,,,switch,number,numSwt,f,0.6136,noRew,,,,,,0,4,0,4,0,1,,,,,,,,,,,,,,,,,
296050,2022-10-02_13h03.18.091,vts_reward_expectancy,2022.2.4,Win32,60.18657839,Chrome,1280,800,,,,,0,729,,,,,,,,,,,,,,,,,125,U,triangle,1,0,,,,,,,,,,,,,,,,repeat,number,numRpt,d,0.7022,noRew,,,,,,0,5,0,5,0,1,,,,,,,,,,,,,,,,,
296050,2022-10-02_13h03.18.091,vts_reward_expectancy,2022.2.4,Win32,60.18657839,Chrome,1280,800,,,,,0,729,,,,,,,,,,,,,,,,,139,H,hexagon,1,0,,,,,,,,,,,,,,,,repeat,number,numRpt,d,0.6786,noRew,,,,,,0,6,0,6,0,1,,,,,,,,,,,,,,,,,
296050,2022-10-02_13h03.18.091,vts_reward_expectancy,2022.2.4,Win32,60.18657839,Chrome,1280,800,,,,,0,729,,,,,,,,,,,,,,,,,146,D,triangle,1,0,,,,,,,,,,,,,,,,repeat,number,numRpt,d,0.7712,noRew,,,,,,0,7,0,7,0,1,,,,,,,,,,,,,,,,,
296050,2022-10-02_13h03.18.091,vts_reward_expectancy,2022.2.4,Win32,60.18657839,Chrome,1280,800,,,,,0,729,,,,,,,,,,,,,,,,,125,W,circle,1,0,,,,,,,,,,,,,,,,switch,letter,lettSwt,k,0.6119,noRew,,,,,,0,8,0,8,0,1,,,,,,,,,,,,,,,,,
296050,2022-10-02_13h03.18.091,vts_reward_expectancy,2022.2.4,Win32,60.18657839,Chrome,1280,800,,,,,0,729,,,,,,,,,,,,,,,,,132,U,hexagon,1,0,,,,,,,,,,,,,,,,repeat,letter,lettRpt,k,0.5654,noRew,,,,,,0,9,0,9,0,1,,,,,,,,,,,,,,,,,
296050,2022-10-02_13h03.18.091,vts_reward_expectancy,2022.2.4,Win32,60.18657839,Chrome,1280,800,,,,,0,729,,,,,,,,,,,,,,,,,139,F,triangle,1,0,,,,,,,,,,,,,,,,repeat,letter,lettRpt,j,0.6985,noRew,,,,,,0,10,0,10,0,1,,,,,,,,,,,,,,,,,
296050,2022-10-02_13h03.18.091,vts_reward_expectancy,2022.2.4,Win32,60.18657839,Chrome,1280,800,,,,,0,729,,,,,,,,,,,,,,,,,174,H,circle,1,0,,,,,,,,,,,,,,,,switch,number,numSwt,f,0.6857,noRew,,,,,,0,11,0,11,0,1,,,,,,,,,,,,,,,,,
296050,2022-10-02_13h03.18.091,vts_reward_expectancy,2022.2.4,Win32,60.18657839,Chrome,1280,800,,,,,0,729,,,,,,,,,,,,,,,,,174,Y,star,1,0,,,,,,,,,,,,,,,,repeat,number,numRpt,f,0.786,noRew,,,,,,0,12,0,12,0,1,,,,,,,,,,,,,,,,,
296050,2022-10-02_13h03.18.091,vts_reward_expectancy,2022.2.4,Win32,60.18657839,Chrome,1280,800,,,,,0,729,,,,,,,,,,,,,,,,,132,F,triangle,1,0,,,,,,,,,,,,,,,,repeat,number,numRpt,d,0.8627,noRew,,,,,,0,13,0,13,0,1,,,,,,,,,,,,,,,,,
296050,2022-10-02_13h03.18.091,vts_reward_expectancy,2022.2.4,Win32,60.18657839,Chrome,1280,800,,,,,0,729,,,,,,,,,,,,,,,,,160,H,hexagon,1,0,,,,,,,,,,,,,,,,repeat,number,numRpt,f,0.8134,noRew,,,,,,0,14,0,14,0,1,,,,,,,,,,,,,,,,,
296050,2022-10-02_13h03.18.091,vts_reward_expectancy,2022.2.4,Win32,60.18657839,Chrome,1280,800,,,,,0,729,,,,,,,,,,,,,,,,,146,B,star,1,0,,,,,,,,,,,,,,,,switch,letter,lettSwt,j,0.6972,noRew,,,,,,0,15,0,15,0,1,,,,,,,,,,,,,,,,,
296050,2022-10-02_13h03.18.091,vts_reward_expectancy,2022.2.4,Win32,60.18657839,Chrome,1280,800,,,,,0,729,,,,,,,,,,,,,,,,,167,D,circle,1,0,,,,,,,,,,,,,,,,switch,number,numSwt,f,0.8128,noRew,,,,,,0,16,0,16,0,1,,,,,,,,,,,,,,,,,
296050,2022-10-02_13h03.18.091,vts_reward_expectancy,2022.2.4,Win32,60.18657839,Chrome,1280,800,,,,,0,729,,,,,,,,,,,,,,,,,174,U,triangle,1,0,,,,,,,,,,,,,,,,switch,letter,lettSwt,k,0.6283,noRew,,,,,,0,17,0,17,0,1,,,,,,,,,,,,,,,,,
296050,2022-10-02_13h03.18.091,vts_reward_expectancy,2022.2.4,Win32,60.18657839,Chrome,1280,800,,,,,0,729,,,,,,,,,,,,,,,,,132,W,triangle,1,0,,,,,,,,,,,,,,,,repeat,letter,lettRpt,k,0.7053,noRew,,,,,,0,18,0,18,0,1,,,,,,,,,,,,,,,,,
296050,2022-10-02_13h03.18.091,vts_reward_expectancy,2022.2.4,Win32,60.18657839,Chrome,1280,800,,,,,0,729,,,,,,,,,,,,,,,,,139,Y,star,1,0,,,,,,,,,,,,,,,,repeat,letter,lettRpt,k,0.7031,noRew,,,,,,0,19,0,19,0,1,,,,,,,,,,,,,,,,,
296050,2022-10-02_13h03.18.091,vts_reward_expectancy,2022.2.4,Win32,60.18657839,Chrome,1280,800,,,,,0,729,,,,,,,,,,,,,,,,,174,H,star,1,0,,,,,,,,,,,,,,,,switch,number,numSwt,f,0.8155,noRew,,,,,,0,20,0,20,0,1,,,,,,,,,,,,,,,,,
296050,2022-10-02_13h03.18.091,vts_reward_expectancy,2022.2.4,Win32,60.18657839,Chrome,1280,800,,,,,0,729,,,,,,,,,,,,,,,,,125,U,triangle,1,0,,,,,,,,,,,,,,,,repeat,number,numRpt,d,0.8724,noRew,,,,,,0,21,0,21,0,1,,,,,,,,,,,,,,,,,
296050,2022-10-02_13h03.18.091,vts_reward_expectancy,2022.2.4,Win32,60.18657839,Chrome,1280,800,,,,,0,729,,,,,,,,,,,,,,,,,160,Y,triangle,1,0,,,,,,,,,,,,,,,,repeat,number,numRpt,f,1.0034,noRew,,,,,,0,22,0,22,0,1,,,,,,,,,,,,,,,,,
296050,2022-10-02_13h03.18.091,vts_reward_expectancy,2022.2.4,Win32,60.18657839,Chrome,1280,800,,,,,0,729,,,,,,,,,,,,,,,,,167,F,star,1,0,,,,,,,,,,,,,,,,switch,letter,lettSwt,j,1.1344,noRew,,,,,,0,23,0,23,0,1,,,,,,,,,,,,,,,,,
296050,2022-10-02_13h03.18.091,vts_reward_expectancy,2022.2.4,Win32,60.18657839,Chrome,1280,800,,,,,0,729,,,,,,,,,,,,,,,,,125,B,hexagon,1,0,,,,,,,,,,,,,,,,repeat,letter,lettRpt,j,0.7299,noRew,,,,,,0,24,0,24,0,1,,,,,,,,,,,,,,,,,
296050,2022-10-02_13h03.18.091,vts_reward_expectancy,2022.2.4,Win32,60.18657839,Chrome,1280,800,,,,,0,729,,,,,,,,,,,,,,,,,181,F,circle,1,0,,,,,,,,,,,,,,,,switch,number,numSwt,f,0.6451,noRew,,,,,,0,25,0,25,0,1,,,,,,,,,,,,,,,,,
296050,2022-10-02_13h03.18.091,vts_reward_expectancy,2022.2.4,Win32,60.18657839,Chrome,1280,800,,,,,0,729,,,,,,,,,,,,,,,,,160,D,star,1,0,,,,,,,,,,,,,,,,repeat,number,numRpt,f,0.7668,noRew,,,,,,0,26,0,26,0,1,,,,,,,,,,,,,,,,,
296050,2022-10-02_13h03.18.091,vts_reward_expectancy,2022.2.4,Win32,60.18657839,Chrome,1280,800,,,,,0,729,,,,,,,,,,,,,,,,,146,U,triangle,1,0,,,,,,,,,,,,,,,,switch,letter,lettSwt,k,0.6484,noRew,,,,,,0,27,0,27,0,1,,,,,,,,,,,,,,,,,
296050,2022-10-02_13h03.18.091,vts_reward_expectancy,2022.2.4,Win32,60.18657839,Chrome,1280,800,,,,,0,729,,,,,,,,,,,,,,,,,146,F,circle,1,0,,,,,,,,,,,,,,,,repeat,letter,lettRpt,j,0.6977,noRew,,,,,,0,28,0,28,0,1,,,,,,,,,,,,,,,,,
296050,2022-10-02_13h03.18.091,vts_reward_expectancy,2022.2.4,Win32,60.18657839,Chrome,1280,800,,,,,0,729,,,,,,,,,,,,,,,,,181,Y,hexagon,1,0,,,,,,,,,,,,,,,,switch,number,numSwt,f,0.7805,noRew,,,,,,0,29,0,29,0,1,,,,,,,,,,,,,,,,,
296050,2022-10-02_13h03.18.091,vts_reward_expectancy,2022.2.4,Win32,60.18657839,Chrome,1280,800,,,,,0,729,,,,,,,,,,,,,,,,,132,B,circle,1,0,,,,,,,,,,,,,,,,switch,letter,lettSwt,j,0.8881,noRew,,,,,,0,30,0,30,0,1,,,,,,,,,,,,,,,,,
296050,2022-10-02_13h03.18.091,vts_reward_expectancy,2022.2.4,Win32,60.18657839,Chrome,1280,800,,,,,0,729,,,,,,,,,,,,,,,,,125,W,triangle,1,0,,,,,,,,,,,,,,,,repeat,letter,lettRpt,k,0.8174,noRew,,,,,,0,31,0,31,0,1,,,,,,,,,,,,,,,,,
296050,2022-10-02_13h03.18.091,vts_reward_expectancy,2022.2.4,Win32,60.18657839,Chrome,1280,800,,,,,0,729,,,,,,,,,,,,,,,,,181,S,star,1,0,,,,,,,,,,,,,,,,repeat,letter,lettRpt,k,0.6861,noRew,,,,,,0,32,0,32,0,1,,,,,,,,,,,,,,,,,
296050,2022-10-02_13h03.18.091,vts_reward_expectancy,2022.2.4,Win32,60.18657839,Chrome,1280,800,,,,,0,729,,,,,,,,,,,,,,,,,125,H,triangle,1,0,,,,,,,,,,,,,,,,repeat,letter,lettRpt,j,0.6798,noRew,,,,,,0,33,0,33,0,1,,,,,,,,,,,,,,,,,
296050,2022-10-02_13h03.18.091,vts_reward_expectancy,2022.2.4,Win32,60.18657839,Chrome,1280,800,,,,,0,729,,,,,,,,,,,,,,,,,167,D,circle,1,0,,,,,,,,,,,,,,,,repeat,letter,lettRpt,j,0.8186,noRew,,,,,,0,34,0,34,0,1,,,,,,,,,,,,,,,,,
296050,2022-10-02_13h03.18.091,vts_reward_expectancy,2022.2.4,Win32,60.18657839,Chrome,1280,800,,,,,0,729,,,,,,,,,,,,,,,,,160,U,triangle,1,0,,,,,,,,,,,,,,,,repeat,letter,lettRpt,k,0.8922,noRew,,,,,,0,35,0,35,0,1,,,,,,,,,,,,,,,,,
296050,2022-10-02_13h03.18.091,vts_reward_expectancy,2022.2.4,Win32,60.18657839,Chrome,1280,800,,,,,0,729,,,,,,,,,,,,,,,,,125,H,triangle,1,0,,,,,,,,,,,,,,,,repeat,letter,lettRpt,j,0.9625,noRew,,,,,,0,36,0,36,0,1,,,,,,,,,,,,,,,,,
296050,2022-10-02_13h03.18.091,vts_reward_expectancy,2022.2.4,Win32,60.18657839,Chrome,1280,800,,,,,0,729,,,,,,,,,,,,,,,,,160,W,circle,1,0,,,,,,,,,,,,,,,,switch,number,numSwt,f,0.9144,noRew,,,,,,0,37,0,37,0,1,,,,,,,,,,,,,,,,,
296050,2022-10-02_13h03.18.091,vts_reward_expectancy,2022.2.4,Win32,60.18657839,Chrome,1280,800,,,,,0,729,,,,,,,,,,,,,,,,,181,Y,triangle,1,0,,,,,,,,,,,,,,,,repeat,number,numRpt,f,0.7632,noRew,,,,,,0,38,0,38,0,1,,,,,,,,,,,,,,,,,
296050,2022-10-02_13h03.18.091,vts_reward_expectancy,2022.2.4,Win32,60.18657839,Chrome,1280,800,,,,,0,729,,,,,,,,,,,,,,,,,132,U,hexagon,1,0,,,,,,,,,,,,,,,,repeat,number,numRpt,d,0.7284,noRew,,,,,,0,39,0,39,0,1,,,,,,,,,,,,,,,,,
296050,2022-10-02_13h03.18.091,vts_reward_expectancy,2022.2.4,Win32,60.18657839,Chrome,1280,800,,,,,0,729,,,,,,,,,,,,,,,,,146,D,star,1,0,,,,,,,,,,,,,,,,repeat,number,numRpt,d,0.6809,noRew,,,,,,0,40,0,40,0,1,,,,,,,,,,,,,,,,,
296050,2022-10-02_13h03.18.091,vts_reward_expectancy,2022.2.4,Win32,60.18657839,Chrome,1280,800,,,,,0,729,,,,,,,,,,,,,,,,,181,Y,triangle,1,0,,,,,,,,,,,,,,,,repeat,number,numRpt,f,0.6325,noRew,,,,,,0,41,0,41,0,1,,,,,,,,,,,,,,,,,
296050,2022-10-02_13h03.18.091,vts_reward_expectancy,2022.2.4,Win32,60.18657839,Chrome,1280,800,,,,,0,729,,,,,,,,,,,,,,,,,139,W,triangle,1,0,,,,,,,,,,,,,,,,repeat,number,numRpt,d,0.7133,noRew,,,,,,0,42,0,42,0,1,,,,,,,,,,,,,,,,,
296050,2022-10-02_13h03.18.091,vts_reward_expectancy,2022.2.4,Win32,60.18657839,Chrome,1280,800,,,,,0,729,,,,,,,,,,,,,,,,,160,H,star,1,0,,,,,,,,,,,,,,,,repeat,number,numRpt,f,0.6466,noRew,,,,,,0,43,0,43,0,1,,,,,,,,,,,,,,,,,
296050,2022-10-02_13h03.18.091,vts_reward_expectancy,2022.2.4,Win32,60.18657839,Chrome,1280,800,,,,,0,729,,,,,,,,,,,,,,,,,139,D,triangle,0,0,,,,,,,,,,,,,,,,switch,letter,NA,k,1.0835,noRew,,,,,,0,44,0,44,0,1,,,,,,,,,,,,,,,,,
296050,2022-10-02_13h03.18.091,vts_reward_expectancy,2022.2.4,Win32,60.18657839,Chrome,1280,800,,,,,0,729,,,,,,,,,,,,,,,,,174,U,star,1,1,,,,,,,,,,,,,,,,switch,number,numSwt,f,0.7634,noRew,,,,,,0,45,0,45,0,1,,,,,,,,,,,,,,,,,
296050,2022-10-02_13h03.18.091,vts_reward_expectancy,2022.2.4,Win32,60.18657839,Chrome,1280,800,,,,,0,729,,,,,,,,,,,,,,,,,132,B,star,1,0,,,,,,,,,,,,,,,,switch,letter,lettSwt,j,0.6808,noRew,,,,,,0,46,0,46,0,1,,,,,,,,,,,,,,,,,
296050,2022-10-02_13h03.18.091,vts_reward_expectancy,2022.2.4,Win32,60.18657839,Chrome,1280,800,,,,,0,729,,,,,,,,,,,,,,,,,167,Y,triangle,1,0,,,,,,,,,,,,,,,,repeat,letter,lettRpt,k,0.9492,noRew,,,,,,0,47,0,47,0,1,,,,,,,,,,,,,,,,,
296050,2022-10-02_13h03.18.091,vts_reward_expectancy,2022.2.4,Win32,60.18657839,Chrome,1280,800,,,,,0,729,,,,,,,,,,,,,,,,,181,B,triangle,1,0,,,,,,,,,,,,,,,,repeat,letter,lettRpt,j,0.7271,noRew,,,,,,0,48,0,48,0,1,,,,,,,,,,,,,,,,,
296050,2022-10-02_13h03.18.091,vts_reward_expectancy,2022.2.4,Win32,60.18657839,Chrome,1280,800,,,,,0,729,,,,,,,,,,,,,,,,,125,S,hexagon,1,0,,,,,,,,,,,,,,,,repeat,letter,lettRpt,k,0.7957,noRew,,,,,,0,49,0,49,0,1,,,,,,,,,,,,,,,,,
296050,2022-10-02_13h03.18.091,vts_reward_expectancy,2022.2.4,Win32,60.18657839,Chrome,1280,800,,,,,0,729,,,,,,,,,,,,,,,,,174,F,hexagon,1,0,,,,,,,,,,,,,,,,repeat,letter,lettRpt,j,1.5651,noRew,,,,,,0,50,0,50,0,1,,,,,,,,,,,,,,,,,
296050,2022-10-02_13h03.18.091,vts_reward_expectancy,2022.2.4,Win32,60.18657839,Chrome,1280,800,,,,,0,729,,,,,,,,,,,,,,,,,167,U,triangle,1,0,,,,,,,,,,,,,,,,switch,number,numSwt,f,0.8108,noRew,,,,,,0,51,0,51,0,1,,,,,,,,,,,,,,,,,
296050,2022-10-02_13h03.18.091,vts_reward_expectancy,2022.2.4,Win32,60.18657839,Chrome,1280,800,,,,,0,729,,,,,,,,,,,,,,,,,139,W,hexagon,1,0,,,,,,,,,,,,,,,,repeat,number,numRpt,d,1.329,noRew,,,,,,0,52,0,52,0,1,,,,,,,,,,,,,,,,,
296050,2022-10-02_13h03.18.091,vts_reward_expectancy,2022.2.4,Win32,60.18657839,Chrome,1280,800,,,,,0,729,,,,,,,,,,,,,,,,,146,U,circle,1,0,,,,,,,,,,,,,,,,repeat,number,numRpt,d,0.7473,noRew,,,,,,0,53,0,53,0,1,,,,,,,,,,,,,,,,,
296050,2022-10-02_13h03.18.091,vts_reward_expectancy,2022.2.4,Win32,60.18657839,Chrome,1280,800,,,,,0,729,,,,,,,,,,,,,,,,,181,H,hexagon,1,0,,,,,,,,,,,,,,,,repeat,number,numRpt,f,1.4301,noRew,,,,,,0,54,0,54,0,1,,,,,,,,,,,,,,,,,
296050,2022-10-02_13h03.18.091,vts_reward_expectancy,2022.2.4,Win32,60.18657839,Chrome,1280,800,,,,,0,729,,,,,,,,,,,,,,,,,132,S,triangle,1,0,,,,,,,,,,,,,,,,switch,letter,lettSwt,k,1.33,noRew,,,,,,0,55,0,55,0,1,,,,,,,,,,,,,,,,,
296050,2022-10-02_13h03.18.091,vts_reward_expectancy,2022.2.4,Win32,60.18657839,Chrome,1280,800,,,,,0,729,,,,,,,,,,,,,,,,,181,Y,hexagon,1,0,,,,,,,,,,,,,,,,switch,number,numSwt,f,0.9611,noRew,,,,,,0,56,0,56,0,1,,,,,,,,,,,,,,,,,
296050,2022-10-02_13h03.18.091,vts_reward_expectancy,2022.2.4,Win32,60.18657839,Chrome,1280,800,,,,,0,729,,,,,,,,,,,,,,,,,174,U,star,1,0,,,,,,,,,,,,,,,,switch,letter,lettSwt,k,0.7867,noRew,,,,,,0,57,0,57,0,1,,,,,,,,,,,,,,,,,
296050,2022-10-02_13h03.18.091,vts_reward_expectancy,2022.2.4,Win32,60.18657839,Chrome,1280,800,,,,,0,729,,,,,,,,,,,,,,,,,167,B,star,1,0,,,,,,,,,,,,,,,,repeat,letter,lettRpt,j,0.5965,noRew,,,,,,0,58,0,58,0,1,,,,,,,,,,,,,,,,,
296050,2022-10-02_13h03.18.091,vts_reward_expectancy,2022.2.4,Win32,60.18657839,Chrome,1280,800,,,,,0,729,,,,,,,,,,,,,,,,,132,W,circle,1,0,,,,,,,,,,,,,,,,repeat,letter,lettRpt,k,0.7353,noRew,,,,,,0,59,0,59,0,1,,,,,,,,,,,,,,,,,
296050,2022-10-02_13h03.18.091,vts_reward_expectancy,2022.2.4,Win32,60.18657839,Chrome,1280,800,,,,,0,729,,,,,,,,,,,,,,,,,132,S,triangle,1,0,,,,,,,,,,,,,,,,repeat,letter,lettRpt,k,0.5667,noRew,,,,,,0,60,0,60,0,1,,,,,,,,,,,,,,,,,
296050,2022-10-02_13h03.18.091,vts_reward_expectancy,2022.2.4,Win32,60.18657839,Chrome,1280,800,,,,,0,729,,,,,,,,,,,,,,,,,167,D,star,1,0,,,,,,,,,,,,,,,,switch,number,numSwt,f,0.6788,noRew,,,,,,0,61,0,61,0,1,,,,,,,,,,,,,,,,,
296050,2022-10-02_13h03.18.091,vts_reward_expectancy,2022.2.4,Win32,60.18657839,Chrome,1280,800,,,,,0,729,,,,,,,,,,,,,,,,,181,U,triangle,1,0,,,,,,,,,,,,,,,,repeat,number,numRpt,f,0.7487,noRew,,,,,,0,62,0,62,0,1,,,,,,,,,,,,,,,,,
296050,2022-10-02_13h03.18.091,vts_reward_expectancy,2022.2.4,Win32,60.18657839,Chrome,1280,800,,,,,0,729,,,,,,,,,,,,,,,,,125,F,hexagon,1,0,,,,,,,,,,,,,,,,repeat,number,numRpt,d,0.9143,noRew,,,,,,0,63,0,63,0,1,,,,,,,,,,,,,,,,,
296050,2022-10-02_13h03.18.091,vts_reward_expectancy,2022.2.4,Win32,60.18657839,Chrome,1280,800,,,,,,,,,,,,,,,,,,,,,,,,,,,,,,,,,,,,,,,,,,,,,,,,,,,,,,,,,,,,,,,,,,,,,,,,,,,,
296050,2022-10-02_13h03.18.091,vts_reward_expectancy,2022.2.4,Win32,60.18657839,Chrome,1280,800,,,,,0,729,,,,,,,,,,,,,,,,,181,H,hexagon,1,0,,,,,,,,,,,,,,,,switch,letter,lettSwt,j,1.2895,Hi,,,,,,0,,,,,,space,3.5785,high,0,0,0,0,1,,,,,,,,,
296050,2022-10-02_13h03.18.091,vts_reward_expectancy,2022.2.4,Win32,60.18657839,Chrome,1280,800,,,,,1,730,,,,,,,,,,,,,,,,,167,D,triangle,1,0,,,,,,,,,,,,,,,,repeat,letter,lettRpt,j,0.4627,Lo,,,,,,0,,,,,,,,high,1,0,1,0,1,,,,,,,,,
296050,2022-10-02_13h03.18.091,vts_reward_expectancy,2022.2.4,Win32,60.18657839,Chrome,1280,800,,,,,0,730,,,,,,,,,,,,,,,,,160,U,hexagon,0,0,,,,,,,,,,,,,,,,repeat,letter,NA,j,0.6632,Lo,,,,,,0,,,,,,,,high,2,0,2,0,1,,,,,,,,,
296050,2022-10-02_13h03.18.091,vts_reward_expectancy,2022.2.4,Win32,60.18657839,Chrome,1280,800,,,,,1,731,,,,,,,,,,,,,,,,,125,Y,triangle,1,1,,,,,,,,,,,,,,,,repeat,letter,lettRpt,k,0.6624,Lo,,,,,,0,,,,,,,,high,3,0,3,0,1,,,,,,,,,
296050,2022-10-02_13h03.18.091,vts_reward_expectancy,2022.2.4,Win32,60.18657839,Chrome,1280,800,,,,,1,732,,,,,,,,,,,,,,,,,146,S,triangle,1,0,,,,,,,,,,,,,,,,repeat,letter,lettRpt,k,0.5815,Lo,,,,,,0,,,,,,,,high,4,0,4,0,1,,,,,,,,,
296050,2022-10-02_13h03.18.091,vts_reward_expectancy,2022.2.4,Win32,60.18657839,Chrome,1280,800,,,,,1,733,,,,,,,,,,,,,,,,,174,W,hexagon,1,0,,,,,,,,,,,,,,,,switch,number,numSwt,f,0.5952,Hi,,,,,,0,,,,,,,,high,5,0,5,0,1,,,,,,,,,
296050,2022-10-02_13h03.18.091,vts_reward_expectancy,2022.2.4,Win32,60.18657839,Chrome,1280,800,,,,,0,733,,,,,,,,,,,,,,,,,132,B,hexagon,1,0,,,,,,,,,,,,,,,,repeat,number,numRpt,d,0.8119,Hi,,,,,,0,,,,,,,,high,6,0,6,0,1,,,,,,,,,
296050,2022-10-02_13h03.18.091,vts_reward_expectancy,2022.2.4,Win32,60.18657839,Chrome,1280,800,,,,,1,734,,,,,,,,,,,,,,,,,139,F,triangle,1,0,,,,,,,,,,,,,,,,repeat,number,numRpt,d,0.6625,Lo,,,,,,0,,,,,,,,high,7,0,7,0,1,,,,,,,,,
296050,2022-10-02_13h03.18.091,vts_reward_expectancy,2022.2.4,Win32,60.18657839,Chrome,1280,800,,,,,0,734,,,,,,,,,,,,,,,,,181,H,hexagon,0,0,,,,,,,,,,,,,,,,repeat,number,NA,d,0.4214,Lo,,,,,,0,,,,,,,,high,8,0,8,0,1,,,,,,,,,
296050,2022-10-02_13h03.18.091,vts_reward_expectancy,2022.2.4,Win32,60.18657839,Chrome,1280,800,,,,,1,735,,,,,,,,,,,,,,,,,167,D,triangle,1,1,,,,,,,,,,,,,,,,switch,letter,lettSwt,j,0.6479,Lo,,,,,,0,,,,,,,,high,9,0,9,0,1,,,,,,,,,
296050,2022-10-02_13h03.18.091,vts_reward_expectancy,2022.2.4,Win32,60.18657839,Chrome,1280,800,,,,,10,745,,,,,,,,,,,,,,,,,160,U,hexagon,1,0,,,,,,,,,,,,,,,,repeat,letter,lettRpt,k,0.5637,Hi,,,,,,0,,,,,,,,high,10,0,10,0,1,,,,,,,,,
296050,2022-10-02_13h03.18.091,vts_reward_expectancy,2022.2.4,Win32,60.18657839,Chrome,1280,800,,,,,1,746,,,,,,,,,,,,,,,,,125,Y,triangle,1,0,,,,,,,,,,,,,,,,repeat,letter,lettRpt,k,0.5039,Lo,,,,,,0,,,,,,,,high,11,0,11,0,1,,,,,,,,,
296050,2022-10-02_13h03.18.091,vts_reward_expectancy,2022.2.4,Win32,60.18657839,Chrome,1280,800,,,,,10,756,,,,,,,,,,,,,,,,,146,S,hexagon,1,0,,,,,,,,,,,,,,,,repeat,letter,lettRpt,k,0.594,Hi,,,,,,0,,,,,,,,high,12,0,12,0,1,,,,,,,,,
296050,2022-10-02_13h03.18.091,vts_reward_expectancy,2022.2.4,Win32,60.18657839,Chrome,1280,800,,,,,1,757,,,,,,,,,,,,,,,,,174,W,triangle,1,0,,,,,,,,,,,,,,,,repeat,letter,lettRpt,k,0.5381,Lo,,,,,,0,,,,,,,,high,13,0,13,0,1,,,,,,,,,
296050,2022-10-02_13h03.18.091,vts_reward_expectancy,2022.2.4,Win32,60.18657839,Chrome,1280,800,,,,,1,758,,,,,,,,,,,,,,,,,132,B,triangle,1,0,,,,,,,,,,,,,,,,repeat,letter,lettRpt,j,0.6805,Lo,,,,,,0,,,,,,,,high,14,0,14,0,1,,,,,,,,,
296050,2022-10-02_13h03.18.091,vts_reward_expectancy,2022.2.4,Win32,60.18657839,Chrome,1280,800,,,,,0,758,,,,,,,,,,,,,,,,,139,F,hexagon,1,0,,,,,,,,,,,,,,,,switch,number,numSwt,d,0.7144,Hi,,,,,,0,,,,,,,,high,15,0,15,0,1,,,,,,,,,
296050,2022-10-02_13h03.18.091,vts_reward_expectancy,2022.2.4,Win32,60.18657839,Chrome,1280,800,,,,,1,759,,,,,,,,,,,,,,,,,146,W,triangle,1,0,,,,,,,,,,,,,,,,repeat,number,numRpt,d,0.6519,Lo,,,,,,0,,,,,,,,high,16,0,16,0,1,,,,,,,,,
296050,2022-10-02_13h03.18.091,vts_reward_expectancy,2022.2.4,Win32,60.18657839,Chrome,1280,800,,,,,0,759,,,,,,,,,,,,,,,,,160,U,hexagon,1,0,,,,,,,,,,,,,,,,repeat,number,numRpt,f,0.9791,Hi,,,,,,0,,,,,,,,high,17,0,17,0,1,,,,,,,,,
296050,2022-10-02_13h03.18.091,vts_reward_expectancy,2022.2.4,Win32,60.18657839,Chrome,1280,800,,,,,1,760,,,,,,,,,,,,,,,,,125,S,hexagon,1,0,,,,,,,,,,,,,,,,repeat,number,numRpt,d,0.5644,Hi,,,,,,0,,,,,,,,high,18,0,18,0,1,,,,,,,,,
296050,2022-10-02_13h03.18.091,vts_reward_expectancy,2022.2.4,Win32,60.18657839,Chrome,1280,800,,,,,1,761,,,,,,,,,,,,,,,,,167,H,triangle,1,0,,,,,,,,,,,,,,,,repeat,number,numRpt,f,0.498,Lo,,,,,,0,,,,,,,,high,19,0,19,0,1,,,,,,,,,
296050,2022-10-02_13h03.18.091,vts_reward_expectancy,2022.2.4,Win32,60.18657839,Chrome,1280,800,,,,,1,762,,,,,,,,,,,,,,,,,181,D,triangle,1,0,,,,,,,,,,,,,,,,repeat,number,numRpt,f,0.5331,Lo,,,,,,0,,,,,,,,high,20,0,20,0,1,,,,,,,,,
296050,2022-10-02_13h03.18.091,vts_reward_expectancy,2022.2.4,Win32,60.18657839,Chrome,1280,800,,,,,0,762,,,,,,,,,,,,,,,,,174,Y,hexagon,1,0,,,,,,,,,,,,,,,,repeat,number,numRpt,f,0.798,Hi,,,,,,0,,,,,,,,high,21,0,21,0,1,,,,,,,,,
296050,2022-10-02_13h03.18.091,vts_reward_expectancy,2022.2.4,Win32,60.18657839,Chrome,1280,800,,,,,1,763,,,,,,,,,,,,,,,,,132,F,hexagon,1,0,,,,,,,,,,,,,,,,repeat,number,numRpt,d,0.6986,Hi,,,,,,0,,,,,,,,high,22,0,22,0,1,,,,,,,,,
296050,2022-10-02_13h03.18.091,vts_reward_expectancy,2022.2.4,Win32,60.18657839,Chrome,1280,800,,,,,1,764,,,,,,,,,,,,,,,,,139,B,triangle,1,0,,,,,,,,,,,,,,,,repeat,number,numRpt,d,0.6311,Lo,,,,,,0,,,,,,,,high,23,0,23,0,1,,,,,,,,,
296050,2022-10-02_13h03.18.091,vts_reward_expectancy,2022.2.4,Win32,60.18657839,Chrome,1280,800,,,,,1,765,,,,,,,,,,,,,,,,,167,Y,triangle,1,0,,,,,,,,,,,,,,,,repeat,number,numRpt,f,0.5485,Lo,,,,,,0,,,,,,,,high,24,0,24,0,1,,,,,,,,,
296050,2022-10-02_13h03.18.091,vts_reward_expectancy,2022.2.4,Win32,60.18657839,Chrome,1280,800,,,,,10,775,,,,,,,,,,,,,,,,,174,U,hexagon,1,0,,,,,,,,,,,,,,,,repeat,number,numRpt,f,0.5471,Hi,,,,,,0,,,,,,,,high,25,0,25,0,1,,,,,,,,,
296050,2022-10-02_13h03.18.091,vts_reward_expectancy,2022.2.4,Win32,60.18657839,Chrome,1280,800,,,,,10,785,,,,,,,,,,,,,,,,,139,D,hexagon,1,0,,,,,,,,,,,,,,,,switch,letter,lettSwt,j,0.5375,Hi,,,,,,0,,,,,,,,high,26,0,26,0,1,,,,,,,,,
296050,2022-10-02_13h03.18.091,vts_reward_expectancy,2022.2.4,Win32,60.18657839,Chrome,1280,800,,,,,1,786,,,,,,,,,,,,,,,,,181,B,triangle,1,0,,,,,,,,,,,,,,,,repeat,letter,lettRpt,j,0.5795,Lo,,,,,,0,,,,,,,,high,27,0,27,0,1,,,,,,,,,
296050,2022-10-02_13h03.18.091,vts_reward_expectancy,2022.2.4,Win32,60.18657839,Chrome,1280,800,,,,,10,796,,,,,,,,,,,,,,,,,125,W,hexagon,1,0,,,,,,,,,,,,,,,,repeat,letter,lettRpt,k,0.5492,Hi,,,,,,0,,,,,,,,high,28,0,28,0,1,,,,,,,,,
296050,2022-10-02_13h03.18.091,vts_reward_expectancy,2022.2.4,Win32,60.18657839,Chrome,1280,800,,,,,1,797,,,,,,,,,,,,,,,,,132,F,triangle,1,0,,,,,,,,,,,,,,,,repeat,letter,lettRpt,j,0.6313,Lo,,,,,,0,,,,,,,,high,29,0,29,0,1,,,,,,,,,
296050,2022-10-02_13h03.18.091,vts_reward_expectancy,2022.2.4,Win32,60.18657839,Chrome,1280,800,,,,,10,807,,,,,,,,,,,,,,,,,160,S,hexagon,1,0,,,,,,,,,,,,,,,,repeat,letter,lettRpt,k,0.5789,Hi,,,,,,0,,,,,,,,high,30,0,30,0,1,,,,,,,,,
296050,2022-10-02_13h03.18.091,vts_reward_expectancy,2022.2.4,Win32,60.18657839,Chrome,1280,800,,,,,10,817,,,,,,,,,,,,,,,,,146,H,triangle,1,0,,,,,,,,,,,,,,,,repeat,letter,lettRpt,j,0.9444,Lo,,,,,,0,,,,,,,,high,31,0,31,0,1,,,,,,,,,
296050,2022-10-02_13h03.18.091,vts_reward_expectancy,2022.2.4,Win32,60.18657839,Chrome,1280,800,,,,,0,817,,,,,,,,,,,,,,,,,139,W,hexagon,1,0,,,,,,,,,,,,,,,,repeat,letter,lettRpt,k,0.8699,Hi,,,,,,1,,,,,,space,1.6249,high,0,0,0,0,1,,,,,,,,,
296050,2022-10-02_13h03.18.091,vts_reward_expectancy,2022.2.4,Win32,60.18657839,Chrome,1280,800,,,,,1,818,,,,,,,,,,,,,,,,,146,Y,triangle,1,0,,,,,,,,,,,,,,,,repeat,letter,lettRpt,k,0.5883,Lo,,,,,,1,,,,,,,,high,1,0,1,0,1,,,,,,,,,
296050,2022-10-02_13h03.18.091,vts_reward_expectancy,2022.2.4,Win32,60.18657839,Chrome,1280,800,,,,,0,818,,,,,,,,,,,,,,,,,174,D,hexagon,1,0,,,,,,,,,,,,,,,,repeat,letter,lettRpt,j,0.6876,Hi,,,,,,1,,,,,,,,high,2,0,2,0,1,,,,,,,,,
296050,2022-10-02_13h03.18.091,vts_reward_expectancy,2022.2.4,Win32,60.18657839,Chrome,1280,800,,,,,10,828,,,,,,,,,,,,,,,,,132,S,triangle,1,0,,,,,,,,,,,,,,,,repeat,letter,lettRpt,k,0.7445,Lo,,,,,,1,,,,,,,,high,3,0,3,0,1,,,,,,,,,
296050,2022-10-02_13h03.18.091,vts_reward_expectancy,2022.2.4,Win32,60.18657839,Chrome,1280,800,,,,,0,828,,,,,,,,,,,,,,,,,167,F,hexagon,0,0,,,,,,,,,,,,,,,,repeat,letter,NA,k,0.4173,Lo,,,,,,1,,,,,,,,high,4,0,4,0,1,,,,,,,,,
296050,2022-10-02_13h03.18.091,vts_reward_expectancy,2022.2.4,Win32,60.18657839,Chrome,1280,800,,,,,0,828,,,,,,,,,,,,,,,,,181,U,triangle,0,1,,,,,,,,,,,,,,,,repeat,letter,NA,j,0.4347,Lo,,,,,,1,,,,,,,,high,5,0,5,0,1,,,,,,,,,
296050,2022-10-02_13h03.18.091,vts_reward_expectancy,2022.2.4,Win32,60.18657839,Chrome,1280,800,,,,,1,829,,,,,,,,,,,,,,,,,125,B,hexagon,1,1,,,,,,,,,,,,,,,,repeat,letter,lettRpt,j,0.5142,Hi,,,,,,1,,,,,,,,high,6,0,6,0,1,,,,,,,,,
296050,2022-10-02_13h03.18.091,vts_reward_expectancy,2022.2.4,Win32,60.18657839,Chrome,1280,800,,,,,1,830,,,,,,,,,,,,,,,,,160,H,triangle,1,0,,,,,,,,,,,,,,,,repeat,letter,lettRpt,j,0.5958,Lo,,,,,,1,,,,,,,,high,7,0,7,0,1,,,,,,,,,
296050,2022-10-02_13h03.18.091,vts_reward_expectancy,2022.2.4,Win32,60.18657839,Chrome,1280,800,,,,,0,830,,,,,,,,,,,,,,,,,139,W,hexagon,1,0,,,,,,,,,,,,,,,,repeat,letter,lettRpt,k,0.7519,Hi,,,,,,1,,,,,,,,high,8,0,8,0,1,,,,,,,,,
296050,2022-10-02_13h03.18.091,vts_reward_expectancy,2022.2.4,Win32,60.18657839,Chrome,1280,800,,,,,1,831,,,,,,,,,,,,,,,,,146,Y,triangle,1,0,,,,,,,,,,,,,,,,repeat,letter,lettRpt,k,0.5864,Lo,,,,,,1,,,,,,,,high,9,0,9,0,1,,,,,,,,,
296050,2022-10-02_13h03.18.091,vts_reward_expectancy,2022.2.4,Win32,60.18657839,Chrome,1280,800,,,,,10,841,,,,,,,,,,,,,,,,,174,D,triangle,1,0,,,,,,,,,,,,,,,,repeat,letter,lettRpt,j,0.4354,Lo,,,,,,1,,,,,,,,high,10,0,10,0,1,,,,,,,,,
296050,2022-10-02_13h03.18.091,vts_reward_expectancy,2022.2.4,Win32,60.18657839,Chrome,1280,800,,,,,10,851,,,,,,,,,,,,,,,,,132,S,hexagon,1,0,,,,,,,,,,,,,,,,repeat,letter,lettRpt,k,0.3709,Hi,,,,,,1,,,,,,,,high,11,0,11,0,1,,,,,,,,,
296050,2022-10-02_13h03.18.091,vts_reward_expectancy,2022.2.4,Win32,60.18657839,Chrome,1280,800,,,,,10,861,,,,,,,,,,,,,,,,,167,F,triangle,1,0,,,,,,,,,,,,,,,,repeat,letter,lettRpt,j,0.5485,Lo,,,,,,1,,,,,,,,high,12,0,12,0,1,,,,,,,,,
296050,2022-10-02_13h03.18.091,vts_reward_expectancy,2022.2.4,Win32,60.18657839,Chrome,1280,800,,,,,0,861,,,,,,,,,,,,,,,,,181,U,hexagon,1,0,,,,,,,,,,,,,,,,repeat,letter,lettRpt,k,0.6323,Hi,,,,,,1,,,,,,,,high,13,0,13,0,1,,,,,,,,,
296050,2022-10-02_13h03.18.091,vts_reward_expectancy,2022.2.4,Win32,60.18657839,Chrome,1280,800,,,,,10,871,,,,,,,,,,,,,,,,,125,B,triangle,1,0,,,,,,,,,,,,,,,,repeat,letter,lettRpt,j,1.1959,Lo,,,,,,1,,,,,,,,high,14,0,14,0,1,,,,,,,,,
296050,2022-10-02_13h03.18.091,vts_reward_expectancy,2022.2.4,Win32,60.18657839,Chrome,1280,800,,,,,10,881,,,,,,,,,,,,,,,,,160,H,hexagon,1,0,,,,,,,,,,,,,,,,repeat,letter,lettRpt,j,0.429,Hi,,,,,,1,,,,,,,,high,15,0,15,0,1,,,,,,,,,
296050,2022-10-02_13h03.18.091,vts_reward_expectancy,2022.2.4,Win32,60.18657839,Chrome,1280,800,,,,,1,882,,,,,,,,,,,,,,,,,167,H,triangle,1,0,,,,,,,,,,,,,,,,repeat,letter,lettRpt,j,0.4042,Lo,,,,,,1,,,,,,,,high,16,0,16,0,1,,,,,,,,,
296050,2022-10-02_13h03.18.091,vts_reward_expectancy,2022.2.4,Win32,60.18657839,Chrome,1280,800,,,,,10,892,,,,,,,,,,,,,,,,,132,W,hexagon,1,0,,,,,,,,,,,,,,,,repeat,letter,lettRpt,k,0.4651,Hi,,,,,,1,,,,,,,,high,17,0,17,0,1,,,,,,,,,
296050,2022-10-02_13h03.18.091,vts_reward_expectancy,2022.2.4,Win32,60.18657839,Chrome,1280,800,,,,,10,902,,,,,,,,,,,,,,,,,125,B,triangle,1,0,,,,,,,,,,,,,,,,repeat,letter,lettRpt,j,0.4634,Lo,,,,,,1,,,,,,,,high,18,0,18,0,1,,,,,,,,,
296050,2022-10-02_13h03.18.091,vts_reward_expectancy,2022.2.4,Win32,60.18657839,Chrome,1280,800,,,,,10,912,,,,,,,,,,,,,,,,,181,F,hexagon,1,0,,,,,,,,,,,,,,,,repeat,letter,lettRpt,j,0.5299,Hi,,,,,,1,,,,,,,,high,19,0,19,0,1,,,,,,,,,
296050,2022-10-02_13h03.18.091,vts_reward_expectancy,2022.2.4,Win32,60.18657839,Chrome,1280,800,,,,,0,912,,,,,,,,,,,,,,,,,174,U,hexagon,1,0,,,,,,,,,,,,,,,,repeat,letter,lettRpt,k,0.6203,Hi,,,,,,1,,,,,,,,high,20,0,20,0,1,,,,,,,,,
296050,2022-10-02_13h03.18.091,vts_reward_expectancy,2022.2.4,Win32,60.18657839,Chrome,1280,800,,,,,1,913,,,,,,,,,,,,,,,,,160,S,triangle,1,0,,,,,,,,,,,,,,,,repeat,letter,lettRpt,k,0.6539,Lo,,,,,,1,,,,,,,,high,21,0,21,0,1,,,,,,,,,
296050,2022-10-02_13h03.18.091,vts_reward_expectancy,2022.2.4,Win32,60.18657839,Chrome,1280,800,,,,,0,913,,,,,,,,,,,,,,,,,146,Y,hexagon,-1,0,,,,,,,,,,,,,,,,switch,no_choice,NA,,,Lo,,,,,,1,,,,,,,,high,22,0,22,0,1,,,,,,,,,
296050,2022-10-02_13h03.18.091,vts_reward_expectancy,2022.2.4,Win32,60.18657839,Chrome,1280,800,,,,,1,914,,,,,,,,,,,,,,,,,139,D,triangle,1,0,,,,,,,,,,,,,,,,switch,letter,lettSwt,j,0.6158,Lo,,,,,,1,,,,,,,,high,23,0,23,0,1,,,,,,,,,
296050,2022-10-02_13h03.18.091,vts_reward_expectancy,2022.2.4,Win32,60.18657839,Chrome,1280,800,,,,,10,924,,,,,,,,,,,,,,,,,139,B,hexagon,1,0,,,,,,,,,,,,,,,,repeat,letter,lettRpt,j,0.538,Hi,,,,,,1,,,,,,,,high,24,0,24,0,1,,,,,,,,,
296050,2022-10-02_13h03.18.091,vts_reward_expectancy,2022.2.4,Win32,60.18657839,Chrome,1280,800,,,,,1,925,,,,,,,,,,,,,,,,,160,Y,triangle,1,0,,,,,,,,,,,,,,,,repeat,letter,lettRpt,k,0.6448,Lo,,,,,,1,,,,,,,,high,25,0,25,0,1,,,,,,,,,
296050,2022-10-02_13h03.18.091,vts_reward_expectancy,2022.2.4,Win32,60.18657839,Chrome,1280,800,,,,,0,925,,,,,,,,,,,,,,,,,125,U,triangle,0,0,,,,,,,,,,,,,,,,repeat,letter,NA,j,0.4317,Lo,,,,,,1,,,,,,,,high,26,0,26,0,1,,,,,,,,,
296050,2022-10-02_13h03.18.091,vts_reward_expectancy,2022.2.4,Win32,60.18657839,Chrome,1280,800,,,,,0,925,,,,,,,,,,,,,,,,,167,W,hexagon,0,1,,,,,,,,,,,,,,,,repeat,letter,NA,j,0.547,Lo,,,,,,1,,,,,,,,high,27,0,27,0,1,,,,,,,,,
296050,2022-10-02_13h03.18.091,vts_reward_expectancy,2022.2.4,Win32,60.18657839,Chrome,1280,800,,,,,0,925,,,,,,,,,,,,,,,,,132,H,triangle,0,1,,,,,,,,,,,,,,,,repeat,letter,NA,k,0.4154,Lo,,,,,,1,,,,,,,,high,28,0,28,0,1,,,,,,,,,
296050,2022-10-02_13h03.18.091,vts_reward_expectancy,2022.2.4,Win32,60.18657839,Chrome,1280,800,,,,,1,926,,,,,,,,,,,,,,,,,146,S,hexagon,1,1,,,,,,,,,,,,,,,,repeat,letter,lettRpt,k,0.5616,Hi,,,,,,1,,,,,,,,high,29,0,29,0,1,,,,,,,,,
296050,2022-10-02_13h03.18.091,vts_reward_expectancy,2022.2.4,Win32,60.18657839,Chrome,1280,800,,,,,1,927,,,,,,,,,,,,,,,,,181,F,triangle,1,0,,,,,,,,,,,,,,,,repeat,letter,lettRpt,j,0.5803,Lo,,,,,,1,,,,,,,,high,30,0,30,0,1,,,,,,,,,
296050,2022-10-02_13h03.18.091,vts_reward_expectancy,2022.2.4,Win32,60.18657839,Chrome,1280,800,,,,,10,937,,,,,,,,,,,,,,,,,174,D,hexagon,1,0,,,,,,,,,,,,,,,,repeat,letter,lettRpt,j,0.5556,Hi,,,,,,1,,,,,,,,high,31,0,31,0,1,,,,,,,,,
296050,2022-10-02_13h03.18.091,vts_reward_expectancy,2022.2.4,Win32,60.18657839,Chrome,1280,800,,,,,10,947,,,,,,,,,,,,,,,,,132,B,triangle,1,0,,,,,,,,,,,,,,,,switch,number,numSwt,d,0.6311,Lo,,,,,,2,,,,,,space,1.7446,high,0,0,0,0,1,,,,,,,,,
296050,2022-10-02_13h03.18.091,vts_reward_expectancy,2022.2.4,Win32,60.18657839,Chrome,1280,800,,,,,10,957,,,,,,,,,,,,,,,,,167,F,hexagon,1,0,,,,,,,,,,,,,,,,repeat,number,numRpt,f,0.5788,Hi,,,,,,2,,,,,,,,high,1,0,1,0,1,,,,,,,,,
296050,2022-10-02_13h03.18.091,vts_reward_expectancy,2022.2.4,Win32,60.18657839,Chrome,1280,800,,,,,10,967,,,,,,,,,,,,,,,,,181,W,triangle,1,0,,,,,,,,,,,,,,,,repeat,number,numRpt,f,0.7297,Lo,,,,,,2,,,,,,,,high,2,0,2,0,1,,,,,,,,,
296050,2022-10-02_13h03.18.091,vts_reward_expectancy,2022.2.4,Win32,60.18657839,Chrome,1280,800,,,,,10,977,,,,,,,,,,,,,,,,,160,Y,hexagon,1,0,,,,,,,,,,,,,,,,repeat,number,numRpt,f,0.5296,Hi,,,,,,2,,,,,,,,high,3,0,3,0,1,,,,,,,,,
296050,2022-10-02_13h03.18.091,vts_reward_expectancy,2022.2.4,Win32,60.18657839,Chrome,1280,800,,,,,10,987,,,,,,,,,,,,,,,,,174,D,hexagon,1,0,,,,,,,,,,,,,,,,repeat,number,numRpt,f,0.4639,Hi,,,,,,2,,,,,,,,high,4,0,4,0,1,,,,,,,,,
296050,2022-10-02_13h03.18.091,vts_reward_expectancy,2022.2.4,Win32,60.18657839,Chrome,1280,800,,,,,0,987,,,,,,,,,,,,,,,,,146,S,triangle,0,0,,,,,,,,,,,,,,,,repeat,number,NA,f,0.4789,Hi,,,,,,2,,,,,,,,high,5,0,5,0,1,,,,,,,,,
296050,2022-10-02_13h03.18.091,vts_reward_expectancy,2022.2.4,Win32,60.18657839,Chrome,1280,800,,,,,10,997,,,,,,,,,,,,,,,,,139,U,hexagon,1,1,,,,,,,,,,,,,,,,repeat,number,numRpt,d,0.4289,Hi,,,,,,2,,,,,,,,high,6,0,6,0,1,,,,,,,,,
296050,2022-10-02_13h03.18.091,vts_reward_expectancy,2022.2.4,Win32,60.18657839,Chrome,1280,800,,,,,10,1007,,,,,,,,,,,,,,,,,125,H,triangle,1,0,,,,,,,,,,,,,,,,repeat,number,numRpt,d,0.6453,Lo,,,,,,2,,,,,,,,high,7,0,7,0,1,,,,,,,,,
296050,2022-10-02_13h03.18.091,vts_reward_expectancy,2022.2.4,Win32,60.18657839,Chrome,1280,800,,,,,10,1017,,,,,,,,,,,,,,,,,132,B,hexagon,1,0,,,,,,,,,,,,,,,,repeat,number,numRpt,d,0.5199,Hi,,,,,,2,,,,,,,,high,8,0,8,0,1,,,,,,,,,
296050,2022-10-02_13h03.18.091,vts_reward_expectancy,2022.2.4,Win32,60.18657839,Chrome,1280,800,,,,,0,1017,,,,,,,,,,,,,,,,,167,F,triangle,-1,0,,,,,,,,,,,,,,,,switch,no_choice,NA,,,Hi,,,,,,2,,,,,,,,high,9,0,9,0,1,,,,,,,,,
296050,2022-10-02_13h03.18.091,vts_reward_expectancy,2022.2.4,Win32,60.18657839,Chrome,1280,800,,,,,1,1018,,,,,,,,,,,,,,,,,181,W,hexagon,1,0,,,,,,,,,,,,,,,,switch,number,numSwt,f,1.8268,Hi,,,,,,2,,,,,,,,high,10,0,10,0,1,,,,,,,,,
296050,2022-10-02_13h03.18.091,vts_reward_expectancy,2022.2.4,Win32,60.18657839,Chrome,1280,800,,,,,1,1019,,,,,,,,,,,,,,,,,160,Y,triangle,1,0,,,,,,,,,,,,,,,,repeat,number,numRpt,f,0.7634,Lo,,,,,,2,,,,,,,,high,11,0,11,0,1,,,,,,,,,
296050,2022-10-02_13h03.18.091,vts_reward_expectancy,2022.2.4,Win32,60.18657839,Chrome,1280,800,,,,,10,1029,,,,,,,,,,,,,,,,,174,D,hexagon,1,0,,,,,,,,,,,,,,,,repeat,number,numRpt,f,0.5957,Hi,,,,,,2,,,,,,,,high,12,0,12,0,1,,,,,,,,,
296050,2022-10-02_13h03.18.091,vts_reward_expectancy,2022.2.4,Win32,60.18657839,Chrome,1280,800,,,,,1,1030,,,,,,,,,,,,,,,,,146,S,triangle,1,0,,,,,,,,,,,,,,,,repeat,number,numRpt,d,0.6829,Lo,,,,,,2,,,,,,,,high,13,0,13,0,1,,,,,,,,,
296050,2022-10-02_13h03.18.091,vts_reward_expectancy,2022.2.4,Win32,60.18657839,Chrome,1280,800,,,,,10,1040,,,,,,,,,,,,,,,,,139,U,hexagon,1,0,,,,,,,,,,,,,,,,repeat,number,numRpt,d,0.5666,Hi,,,,,,2,,,,,,,,high,14,0,14,0,1,,,,,,,,,
296050,2022-10-02_13h03.18.091,vts_reward_expectancy,2022.2.4,Win32,60.18657839,Chrome,1280,800,,,,,1,1041,,,,,,,,,,,,,,,,,125,H,triangle,1,0,,,,,,,,,,,,,,,,repeat,number,numRpt,d,0.5866,Lo,,,,,,2,,,,,,,,high,15,0,15,0,1,,,,,,,,,
296050,2022-10-02_13h03.18.091,vts_reward_expectancy,2022.2.4,Win32,60.18657839,Chrome,1280,800,,,,,1,1042,,,,,,,,,,,,,,,,,167,U,triangle,1,0,,,,,,,,,,,,,,,,repeat,number,numRpt,f,0.5661,Lo,,,,,,2,,,,,,,,high,16,0,16,0,1,,,,,,,,,
296050,2022-10-02_13h03.18.091,vts_reward_expectancy,2022.2.4,Win32,60.18657839,Chrome,1280,800,,,,,1,1043,,,,,,,,,,,,,,,,,160,B,hexagon,1,0,,,,,,,,,,,,,,,,repeat,number,numRpt,f,0.7449,Hi,,,,,,2,,,,,,,,high,17,0,17,0,1,,,,,,,,,
296050,2022-10-02_13h03.18.091,vts_reward_expectancy,2022.2.4,Win32,60.18657839,Chrome,1280,800,,,,,1,1044,,,,,,,,,,,,,,,,,132,W,triangle,1,0,,,,,,,,,,,,,,,,repeat,number,numRpt,d,0.5945,Lo,,,,,,2,,,,,,,,high,18,0,18,0,1,,,,,,,,,
296050,2022-10-02_13h03.18.091,vts_reward_expectancy,2022.2.4,Win32,60.18657839,Chrome,1280,800,,,,,10,1054,,,,,,,,,,,,,,,,,139,Y,hexagon,1,0,,,,,,,,,,,,,,,,repeat,number,numRpt,d,0.5497,Hi,,,,,,2,,,,,,,,high,19,0,19,0,1,,,,,,,,,
296050,2022-10-02_13h03.18.091,vts_reward_expectancy,2022.2.4,Win32,60.18657839,Chrome,1280,800,,,,,0,1054,,,,,,,,,,,,,,,,,174,F,triangle,0,0,,,,,,,,,,,,,,,,repeat,number,NA,d,0.4481,Hi,,,,,,2,,,,,,,,high,20,0,20,0,1,,,,,,,,,
296050,2022-10-02_13h03.18.091,vts_reward_expectancy,2022.2.4,Win32,60.18657839,Chrome,1280,800,,,,,10,1064,,,,,,,,,,,,,,,,,125,D,hexagon,1,1,,,,,,,,,,,,,,,,repeat,number,numRpt,d,0.5982,Hi,,,,,,2,,,,,,,,high,21,0,21,0,1,,,,,,,,,
296050,2022-10-02_13h03.18.091,vts_reward_expectancy,2022.2.4,Win32,60.18657839,Chrome,1280,800,,,,,10,1074,,,,,,,,,,,,,,,,,146,S,hexagon,1,0,,,,,,,,,,,,,,,,repeat,number,numRpt,d,0.5969,Hi,,,,,,2,,,,,,,,high,22,0,22,0,1,,,,,,,,,
296050,2022-10-02_13h03.18.091,vts_reward_expectancy,2022.2.4,Win32,60.18657839,Chrome,1280,800,,,,,1,1075,,,,,,,,,,,,,,,,,181,H,triangle,1,0,,,,,,,,,,,,,,,,repeat,number,numRpt,f,0.8802,Lo,,,,,,2,,,,,,,,high,23,0,23,0,1,,,,,,,,,
296050,2022-10-02_13h03.18.091,vts_reward_expectancy,2022.2.4,Win32,60.18657839,Chrome,1280,800,,,,,10,1085,,,,,,,,,,,,,,,,,167,W,hexagon,1,0,,,,,,,,,,,,,,,,repeat,number,numRpt,f,0.629,Hi,,,,,,2,,,,,,,,high,24,0,24,0,1,,,,,,,,,
296050,2022-10-02_13h03.18.091,vts_reward_expectancy,2022.2.4,Win32,60.18657839,Chrome,1280,800,,,,,1,1086,,,,,,,,,,,,,,,,,132,S,triangle,1,0,,,,,,,,,,,,,,,,repeat,number,numRpt,d,0.6999,Lo,,,,,,2,,,,,,,,high,25,0,25,0,1,,,,,,,,,
296050,2022-10-02_13h03.18.091,vts_reward_expectancy,2022.2.4,Win32,60.18657839,Chrome,1280,800,,,,,10,1096,,,,,,,,,,,,,,,,,174,D,hexagon,1,0,,,,,,,,,,,,,,,,repeat,number,numRpt,f,0.5469,Hi,,,,,,2,,,,,,,,high,26,0,26,0,1,,,,,,,,,
296050,2022-10-02_13h03.18.091,vts_reward_expectancy,2022.2.4,Win32,60.18657839,Chrome,1280,800,,,,,1,1097,,,,,,,,,,,,,,,,,181,U,triangle,1,0,,,,,,,,,,,,,,,,repeat,number,numRpt,f,0.5137,Lo,,,,,,2,,,,,,,,high,27,0,27,0,1,,,,,,,,,
296050,2022-10-02_13h03.18.091,vts_reward_expectancy,2022.2.4,Win32,60.18657839,Chrome,1280,800,,,,,10,1107,,,,,,,,,,,,,,,,,160,F,hexagon,1,0,,,,,,,,,,,,,,,,repeat,number,numRpt,f,0.6954,Hi,,,,,,2,,,,,,,,high,28,0,28,0,1,,,,,,,,,
296050,2022-10-02_13h03.18.091,vts_reward_expectancy,2022.2.4,Win32,60.18657839,Chrome,1280,800,,,,,1,1108,,,,,,,,,,,,,,,,,125,B,triangle,1,0,,,,,,,,,,,,,,,,repeat,number,numRpt,d,0.7496,Lo,,,,,,2,,,,,,,,high,29,0,29,0,1,,,,,,,,,
296050,2022-10-02_13h03.18.091,vts_reward_expectancy,2022.2.4,Win32,60.18657839,Chrome,1280,800,,,,,10,1118,,,,,,,,,,,,,,,,,139,H,hexagon,1,0,,,,,,,,,,,,,,,,repeat,number,numRpt,d,0.5486,Hi,,,,,,2,,,,,,,,high,30,0,30,0,1,,,,,,,,,
296050,2022-10-02_13h03.18.091,vts_reward_expectancy,2022.2.4,Win32,60.18657839,Chrome,1280,800,,,,,1,1119,,,,,,,,,,,,,,,,,146,Y,triangle,1,0,,,,,,,,,,,,,,,,repeat,number,numRpt,d,0.8288,Lo,,,,,,2,,,,,,,,high,31,0,31,0,1,,,,,,,,,
296050,2022-10-02_13h03.18.091,vts_reward_expectancy,2022.2.4,Win32,60.18657839,Chrome,1280,800,,,,,1,1120,,,,,,,,,,,,,,,,,125,F,star,1,0,,,,,,,,,,,,,,,,repeat,number,numRpt,d,0.5166,Lo,,,,,,3,,,,,,space,1.382,low,0,0,0,0,1,,,,,,,,,
296050,2022-10-02_13h03.18.091,vts_reward_expectancy,2022.2.4,Win32,60.18657839,Chrome,1280,800,,,,,10,1130,,,,,,,,,,,,,,,,,146,B,circle,1,0,,,,,,,,,,,,,,,,repeat,number,numRpt,d,0.5481,Hi,,,,,,3,,,,,,,,low,1,0,1,0,1,,,,,,,,,
296050,2022-10-02_13h03.18.091,vts_reward_expectancy,2022.2.4,Win32,60.18657839,Chrome,1280,800,,,,,10,1140,,,,,,,,,,,,,,,,,139,D,star,1,0,,,,,,,,,,,,,,,,repeat,number,numRpt,d,0.4616,Lo,,,,,,3,,,,,,,,low,2,0,2,0,1,,,,,,,,,
296050,2022-10-02_13h03.18.091,vts_reward_expectancy,2022.2.4,Win32,60.18657839,Chrome,1280,800,,,,,0,1140,,,,,,,,,,,,,,,,,181,S,circle,1,0,,,,,,,,,,,,,,,,repeat,number,numRpt,f,0.6182,Hi,,,,,,3,,,,,,,,low,3,0,3,0,1,,,,,,,,,
296050,2022-10-02_13h03.18.091,vts_reward_expectancy,2022.2.4,Win32,60.18657839,Chrome,1280,800,,,,,0,1140,,,,,,,,,,,,,,,,,174,Y,circle,1,0,,,,,,,,,,,,,,,,repeat,number,numRpt,f,0.5795,Hi,,,,,,3,,,,,,,,low,4,0,4,0,1,,,,,,,,,
296050,2022-10-02_13h03.18.091,vts_reward_expectancy,2022.2.4,Win32,60.18657839,Chrome,1280,800,,,,,1,1141,,,,,,,,,,,,,,,,,160,W,star,1,0,,,,,,,,,,,,,,,,repeat,number,numRpt,f,0.6119,Lo,,,,,,3,,,,,,,,low,5,0,5,0,1,,,,,,,,,
296050,2022-10-02_13h03.18.091,vts_reward_expectancy,2022.2.4,Win32,60.18657839,Chrome,1280,800,,,,,0,1141,,,,,,,,,,,,,,,,,167,H,circle,1,0,,,,,,,,,,,,,,,,repeat,number,numRpt,f,0.6484,Hi,,,,,,3,,,,,,,,low,6,0,6,0,1,,,,,,,,,
296050,2022-10-02_13h03.18.091,vts_reward_expectancy,2022.2.4,Win32,60.18657839,Chrome,1280,800,,,,,1,1142,,,,,,,,,,,,,,,,,132,U,star,1,0,,,,,,,,,,,,,,,,repeat,number,numRpt,d,0.6613,Lo,,,,,,3,,,,,,,,low,7,0,7,0,1,,,,,,,,,
296050,2022-10-02_13h03.18.091,vts_reward_expectancy,2022.2.4,Win32,60.18657839,Chrome,1280,800,,,,,1,1143,,,,,,,,,,,,,,,,,125,F,star,1,0,,,,,,,,,,,,,,,,repeat,number,numRpt,d,0.6194,Lo,,,,,,3,,,,,,,,low,8,0,8,0,1,,,,,,,,,
296050,2022-10-02_13h03.18.091,vts_reward_expectancy,2022.2.4,Win32,60.18657839,Chrome,1280,800,,,,,10,1153,,,,,,,,,,,,,,,,,146,B,circle,1,0,,,,,,,,,,,,,,,,repeat,number,numRpt,d,0.5451,Hi,,,,,,3,,,,,,,,low,9,0,9,0,1,,,,,,,,,
296050,2022-10-02_13h03.18.091,vts_reward_expectancy,2022.2.4,Win32,60.18657839,Chrome,1280,800,,,,,10,1163,,,,,,,,,,,,,,,,,139,D,star,1,0,,,,,,,,,,,,,,,,repeat,number,numRpt,d,0.5619,Lo,,,,,,3,,,,,,,,low,10,0,10,0,1,,,,,,,,,
296050,2022-10-02_13h03.18.091,vts_reward_expectancy,2022.2.4,Win32,60.18657839,Chrome,1280,800,,,,,0,1163,,,,,,,,,,,,,,,,,181,S,circle,1,0,,,,,,,,,,,,,,,,repeat,number,numRpt,f,0.7791,Hi,,,,,,3,,,,,,,,low,11,0,11,0,1,,,,,,,,,
296050,2022-10-02_13h03.18.091,vts_reward_expectancy,2022.2.4,Win32,60.18657839,Chrome,1280,800,,,,,0,1163,,,,,,,,,,,,,,,,,174,Y,circle,1,0,,,,,,,,,,,,,,,,repeat,number,numRpt,f,0.6636,Hi,,,,,,3,,,,,,,,low,12,0,12,0,1,,,,,,,,,
296050,2022-10-02_13h03.18.091,vts_reward_expectancy,2022.2.4,Win32,60.18657839,Chrome,1280,800,,,,,1,1164,,,,,,,,,,,,,,,,,160,W,star,1,0,,,,,,,,,,,,,,,,repeat,number,numRpt,f,0.732,Lo,,,,,,3,,,,,,,,low,13,0,13,0,1,,,,,,,,,
296050,2022-10-02_13h03.18.091,vts_reward_expectancy,2022.2.4,Win32,60.18657839,Chrome,1280,800,,,,,10,1174,,,,,,,,,,,,,,,,,167,H,circle,1,0,,,,,,,,,,,,,,,,repeat,number,numRpt,f,0.5663,Hi,,,,,,3,,,,,,,,low,14,0,14,0,1,,,,,,,,,
296050,2022-10-02_13h03.18.091,vts_reward_expectancy,2022.2.4,Win32,60.18657839,Chrome,1280,800,,,,,10,1184,,,,,,,,,,,,,,,,,132,U,star,1,0,,,,,,,,,,,,,,,,repeat,number,numRpt,d,0.5787,Lo,,,,,,3,,,,,,,,low,15,0,15,0,1,,,,,,,,,
296050,2022-10-02_13h03.18.091,vts_reward_expectancy,2022.2.4,Win32,60.18657839,Chrome,1280,800,,,,,1,1185,,,,,,,,,,,,,,,,,139,B,star,1,0,,,,,,,,,,,,,,,,repeat,number,numRpt,d,0.5959,Lo,,,,,,3,,,,,,,,low,16,0,16,0,1,,,,,,,,,
296050,2022-10-02_13h03.18.091,vts_reward_expectancy,2022.2.4,Win32,60.18657839,Chrome,1280,800,,,,,0,1185,,,,,,,,,,,,,,,,,146,S,circle,1,0,,,,,,,,,,,,,,,,repeat,number,numRpt,d,0.5826,Hi,,,,,,3,,,,,,,,low,17,0,17,0,1,,,,,,,,,
296050,2022-10-02_13h03.18.091,vts_reward_expectancy,2022.2.4,Win32,60.18657839,Chrome,1280,800,,,,,10,1195,,,,,,,,,,,,,,,,,174,W,star,1,0,,,,,,,,,,,,,,,,repeat,number,numRpt,f,0.5984,Lo,,,,,,3,,,,,,,,low,18,0,18,0,1,,,,,,,,,
296050,2022-10-02_13h03.18.091,vts_reward_expectancy,2022.2.4,Win32,60.18657839,Chrome,1280,800,,,,,0,1195,,,,,,,,,,,,,,,,,125,D,circle,1,0,,,,,,,,,,,,,,,,repeat,number,numRpt,d,0.6273,Hi,,,,,,3,,,,,,,,low,19,0,19,0,1,,,,,,,,,
296050,2022-10-02_13h03.18.091,vts_reward_expectancy,2022.2.4,Win32,60.18657839,Chrome,1280,800,,,,,0,1195,,,,,,,,,,,,,,,,,132,H,circle,1,0,,,,,,,,,,,,,,,,repeat,number,numRpt,d,0.6788,Hi,,,,,,3,,,,,,,,low,20,0,20,0,1,,,,,,,,,
296050,2022-10-02_13h03.18.091,vts_reward_expectancy,2022.2.4,Win32,60.18657839,Chrome,1280,800,,,,,1,1196,,,,,,,,,,,,,,,,,181,U,star,1,0,,,,,,,,,,,,,,,,repeat,number,numRpt,f,0.78,Lo,,,,,,3,,,,,,,,low,21,0,21,0,1,,,,,,,,,
296050,2022-10-02_13h03.18.091,vts_reward_expectancy,2022.2.4,Win32,60.18657839,Chrome,1280,800,,,,,1,1197,,,,,,,,,,,,,,,,,160,F,star,1,0,,,,,,,,,,,,,,,,repeat,number,numRpt,f,0.0448,Lo,,,,,,3,,,,,,,,low,22,0,22,0,1,,,,,,,,,
296050,2022-10-02_13h03.18.091,vts_reward_expectancy,2022.2.4,Win32,60.18657839,Chrome,1280,800,,,,,0,1197,,,,,,,,,,,,,,,,,167,Y,circle,0,0,,,,,,,,,,,,,,,,repeat,number,NA,d,0.1033,Lo,,,,,,3,,,,,,,,low,23,0,23,0,1,,,,,,,,,
296050,2022-10-02_13h03.18.091,vts_reward_expectancy,2022.2.4,Win32,60.18657839,Chrome,1280,800,,,,,1,1198,,,,,,,,,,,,,,,,,132,F,star,1,1,,,,,,,,,,,,,,,,repeat,number,numRpt,d,0.6137,Lo,,,,,,3,,,,,,,,low,24,0,24,0,1,,,,,,,,,
296050,2022-10-02_13h03.18.091,vts_reward_expectancy,2022.2.4,Win32,60.18657839,Chrome,1280,800,,,,,10,1208,,,,,,,,,,,,,,,,,181,U,circle,1,0,,,,,,,,,,,,,,,,repeat,number,numRpt,f,0.5357,Hi,,,,,,3,,,,,,,,low,25,0,25,0,1,,,,,,,,,
296050,2022-10-02_13h03.18.091,vts_reward_expectancy,2022.2.4,Win32,60.18657839,Chrome,1280,800,,,,,1,1209,,,,,,,,,,,,,,,,,160,Y,circle,1,0,,,,,,,,,,,,,,,,repeat,number,numRpt,f,0.5655,Hi,,,,,,3,,,,,,,,low,26,0,26,0,1,,,,,,,,,
296050,2022-10-02_13h03.18.091,vts_reward_expectancy,2022.2.4,Win32,60.18657839,Chrome,1280,800,,,,,1,1210,,,,,,,,,,,,,,,,,174,W,star,1,0,,,,,,,,,,,,,,,,repeat,number,numRpt,f,0.4615,Lo,,,,,,3,,,,,,,,low,27,0,27,0,1,,,,,,,,,
296050,2022-10-02_13h03.18.091,vts_reward_expectancy,2022.2.4,Win32,60.18657839,Chrome,1280,800,,,,,1,1211,,,,,,,,,,,,,,,,,146,D,star,1,0,,,,,,,,,,,,,,,,repeat,number,numRpt,d,0.5486,Lo,,,,,,3,,,,,,,,low,28,0,28,0,1,,,,,,,,,
296050,2022-10-02_13h03.18.091,vts_reward_expectancy,2022.2.4,Win32,60.18657839,Chrome,1280,800,,,,,1,1212,,,,,,,,,,,,,,,,,139,S,circle,1,0,,,,,,,,,,,,,,,,repeat,number,numRpt,d,0.4802,Hi,,,,,,3,,,,,,,,low,29,0,29,0,1,,,,,,,,,
296050,2022-10-02_13h03.18.091,vts_reward_expectancy,2022.2.4,Win32,60.18657839,Chrome,1280,800,,,,,10,1222,,,,,,,,,,,,,,,,,167,B,star,1,0,,,,,,,,,,,,,,,,repeat,number,numRpt,f,0.4453,Lo,,,,,,3,,,,,,,,low,30,0,30,0,1,,,,,,,,,
296050,2022-10-02_13h03.18.091,vts_reward_expectancy,2022.2.4,Win32,60.18657839,Chrome,1280,800,,,,,1,1223,,,,,,,,,,,,,,,,,125,H,circle,1,0,,,,,,,,,,,,,,,,repeat,number,numRpt,d,0.5455,Hi,,,,,,3,,,,,,,,low,31,0,31,0,1,,,,,,,,,
296050,2022-10-02_13h03.18.091,vts_reward_expectancy,2022.2.4,Win32,60.18657839,Chrome,1280,800,,,,,10,1233,,,,,,,,,,,,,,,,,125,H,star,1,0,,,,,,,,,,,,,,,,repeat,number,numRpt,d,0.6031,Lo,,,,,,4,,,,,,space,0.8699,low,0,0,0,0,1,,,,,,,,,
296050,2022-10-02_13h03.18.091,vts_reward_expectancy,2022.2.4,Win32,60.18657839,Chrome,1280,800,,,,,1,1234,,,,,,,,,,,,,,,,,174,S,circle,1,0,,,,,,,,,,,,,,,,repeat,number,numRpt,f,0.5466,Hi,,,,,,4,,,,,,,,low,1,0,1,0,1,,,,,,,,,
296050,2022-10-02_13h03.18.091,vts_reward_expectancy,2022.2.4,Win32,60.18657839,Chrome,1280,800,,,,,1,1235,,,,,,,,,,,,,,,,,139,D,star,1,0,,,,,,,,,,,,,,,,repeat,number,numRpt,d,0.5815,Lo,,,,,,4,,,,,,,,low,2,0,2,0,1,,,,,,,,,
296050,2022-10-02_13h03.18.091,vts_reward_expectancy,2022.2.4,Win32,60.18657839,Chrome,1280,800,,,,,10,1245,,,,,,,,,,,,,,,,,181,W,circle,1,0,,,,,,,,,,,,,,,,repeat,number,numRpt,f,0.5482,Hi,,,,,,4,,,,,,,,low,3,0,3,0,1,,,,,,,,,
296050,2022-10-02_13h03.18.091,vts_reward_expectancy,2022.2.4,Win32,60.18657839,Chrome,1280,800,,,,,0,1245,,,,,,,,,,,,,,,,,167,F,star,0,0,,,,,,,,,,,,,,,,switch,letter,NA,k,0.8491,Hi,,,,,,4,,,,,,,,low,4,0,4,0,1,,,,,,,,,
296050,2022-10-02_13h03.18.091,vts_reward_expectancy,2022.2.4,Win32,60.18657839,Chrome,1280,800,,,,,10,1255,,,,,,,,,,,,,,,,,146,U,circle,1,1,,,,,,,,,,,,,,,,repeat,letter,lettRpt,k,0.6033,Hi,,,,,,4,,,,,,,,low,5,0,5,0,1,,,,,,,,,
296050,2022-10-02_13h03.18.091,vts_reward_expectancy,2022.2.4,Win32,60.18657839,Chrome,1280,800,,,,,10,1265,,,,,,,,,,,,,,,,,160,Y,circle,1,0,,,,,,,,,,,,,,,,repeat,letter,lettRpt,k,0.5523,Hi,,,,,,4,,,,,,,,low,6,0,6,0,1,,,,,,,,,
296050,2022-10-02_13h03.18.091,vts_reward_expectancy,2022.2.4,Win32,60.18657839,Chrome,1280,800,,,,,10,1275,,,,,,,,,,,,,,,,,132,B,star,1,0,,,,,,,,,,,,,,,,repeat,letter,lettRpt,j,0.4814,Lo,,,,,,4,,,,,,,,low,7,0,7,0,1,,,,,,,,,
296050,2022-10-02_13h03.18.091,vts_reward_expectancy,2022.2.4,Win32,60.18657839,Chrome,1280,800,,,,,10,1285,,,,,,,,,,,,,,,,,125,H,star,1,0,,,,,,,,,,,,,,,,switch,number,numSwt,d,0.5655,Lo,,,,,,4,,,,,,,,low,8,0,8,0,1,,,,,,,,,
296050,2022-10-02_13h03.18.091,vts_reward_expectancy,2022.2.4,Win32,60.18657839,Chrome,1280,800,,,,,10,1295,,,,,,,,,,,,,,,,,174,S,circle,1,0,,,,,,,,,,,,,,,,switch,letter,lettSwt,k,0.6138,Hi,,,,,,4,,,,,,,,low,9,0,9,0,1,,,,,,,,,
296050,2022-10-02_13h03.18.091,vts_reward_expectancy,2022.2.4,Win32,60.18657839,Chrome,1280,800,,,,,1,1296,,,,,,,,,,,,,,,,,139,D,star,1,0,,,,,,,,,,,,,,,,switch,number,numSwt,d,0.5141,Lo,,,,,,4,,,,,,,,low,10,0,10,0,1,,,,,,,,,
296050,2022-10-02_13h03.18.091,vts_reward_expectancy,2022.2.4,Win32,60.18657839,Chrome,1280,800,,,,,10,1306,,,,,,,,,,,,,,,,,181,W,circle,1,0,,,,,,,,,,,,,,,,switch,letter,lettSwt,k,0.7161,Hi,,,,,,4,,,,,,,,low,11,0,11,0,1,,,,,,,,,
296050,2022-10-02_13h03.18.091,vts_reward_expectancy,2022.2.4,Win32,60.18657839,Chrome,1280,800,,,,,1,1307,,,,,,,,,,,,,,,,,167,F,star,1,0,,,,,,,,,,,,,,,,repeat,letter,lettRpt,j,0.5557,Lo,,,,,,4,,,,,,,,low,12,0,12,0,1,,,,,,,,,
296050,2022-10-02_13h03.18.091,vts_reward_expectancy,2022.2.4,Win32,60.18657839,Chrome,1280,800,,,,,0,1307,,,,,,,,,,,,,,,,,146,U,circle,0,0,,,,,,,,,,,,,,,,switch,number,NA,f,0.4467,Lo,,,,,,4,,,,,,,,low,13,0,13,0,1,,,,,,,,,
296050,2022-10-02_13h03.18.091,vts_reward_expectancy,2022.2.4,Win32,60.18657839,Chrome,1280,800,,,,,0,1307,,,,,,,,,,,,,,,,,160,Y,circle,1,1,,,,,,,,,,,,,,,,repeat,number,numRpt,f,0.6614,Hi,,,,,,4,,,,,,,,low,14,0,14,0,1,,,,,,,,,
296050,2022-10-02_13h03.18.091,vts_reward_expectancy,2022.2.4,Win32,60.18657839,Chrome,1280,800,,,,,1,1308,,,,,,,,,,,,,,,,,132,B,star,1,0,,,,,,,,,,,,,,,,repeat,number,numRpt,d,0.5978,Lo,,,,,,4,,,,,,,,low,15,0,15,0,1,,,,,,,,,
296050,2022-10-02_13h03.18.091,vts_reward_expectancy,2022.2.4,Win32,60.18657839,Chrome,1280,800,,,,,10,1318,,,,,,,,,,,,,,,,,174,B,star,1,0,,,,,,,,,,,,,,,,switch,letter,lettSwt,j,0.4835,Lo,,,,,,4,,,,,,,,low,16,0,16,0,1,,,,,,,,,
296050,2022-10-02_13h03.18.091,vts_reward_expectancy,2022.2.4,Win32,60.18657839,Chrome,1280,800,,,,,1,1319,,,,,,,,,,,,,,,,,146,U,circle,1,0,,,,,,,,,,,,,,,,repeat,letter,lettRpt,k,0.4864,Hi,,,,,,4,,,,,,,,low,17,0,17,0,1,,,,,,,,,
296050,2022-10-02_13h03.18.091,vts_reward_expectancy,2022.2.4,Win32,60.18657839,Chrome,1280,800,,,,,1,1320,,,,,,,,,,,,,,,,,167,D,circle,1,0,,,,,,,,,,,,,,,,repeat,letter,lettRpt,j,0.6321,Hi,,,,,,4,,,,,,,,low,18,0,18,0,1,,,,,,,,,
296050,2022-10-02_13h03.18.091,vts_reward_expectancy,2022.2.4,Win32,60.18657839,Chrome,1280,800,,,,,0,1320,,,,,,,,,,,,,,,,,132,Y,star,0,0,,,,,,,,,,,,,,,,repeat,letter,NA,j,0.0437,Hi,,,,,,4,,,,,,,,low,19,0,19,0,1,,,,,,,,,
296050,2022-10-02_13h03.18.091,vts_reward_expectancy,2022.2.4,Win32,60.18657839,Chrome,1280,800,,,,,10,1330,,,,,,,,,,,,,,,,,125,F,circle,1,1,,,,,,,,,,,,,,,,repeat,letter,lettRpt,j,0.0307,Hi,,,,,,4,,,,,,,,low,20,0,20,0,1,,,,,,,,,
296050,2022-10-02_13h03.18.091,vts_reward_expectancy,2022.2.4,Win32,60.18657839,Chrome,1280,800,,,,,10,1340,,,,,,,,,,,,,,,,,160,H,star,1,0,,,,,,,,,,,,,,,,repeat,letter,lettRpt,j,0.445,Lo,,,,,,4,,,,,,,,low,21,0,21,0,1,,,,,,,,,
296050,2022-10-02_13h03.18.091,vts_reward_expectancy,2022.2.4,Win32,60.18657839,Chrome,1280,800,,,,,1,1341,,,,,,,,,,,,,,,,,181,W,star,1,0,,,,,,,,,,,,,,,,repeat,letter,lettRpt,k,0.4961,Lo,,,,,,4,,,,,,,,low,22,0,22,0,1,,,,,,,,,
296050,2022-10-02_13h03.18.091,vts_reward_expectancy,2022.2.4,Win32,60.18657839,Chrome,1280,800,,,,,10,1351,,,,,,,,,,,,,,,,,139,S,circle,1,0,,,,,,,,,,,,,,,,repeat,letter,lettRpt,k,0.6456,Hi,,,,,,4,,,,,,,,low,23,0,23,0,1,,,,,,,,,
296050,2022-10-02_13h03.18.091,vts_reward_expectancy,2022.2.4,Win32,60.18657839,Chrome,1280,800,,,,,10,1361,,,,,,,,,,,,,,,,,139,F,circle,1,0,,,,,,,,,,,,,,,,repeat,letter,lettRpt,j,0.4991,Hi,,,,,,4,,,,,,,,low,24,0,24,0,1,,,,,,,,,
296050,2022-10-02_13h03.18.091,vts_reward_expectancy,2022.2.4,Win32,60.18657839,Chrome,1280,800,,,,,1,1362,,,,,,,,,,,,,,,,,146,D,star,1,0,,,,,,,,,,,,,,,,repeat,letter,lettRpt,j,0.6039,Lo,,,,,,4,,,,,,,,low,25,0,25,0,1,,,,,,,,,
296050,2022-10-02_13h03.18.091,vts_reward_expectancy,2022.2.4,Win32,60.18657839,Chrome,1280,800,,,,,10,1372,,,,,,,,,,,,,,,,,167,S,circle,1,0,,,,,,,,,,,,,,,,repeat,letter,lettRpt,k,0.7802,Hi,,,,,,4,,,,,,,,low,26,0,26,0,1,,,,,,,,,
296050,2022-10-02_13h03.18.091,vts_reward_expectancy,2022.2.4,Win32,60.18657839,Chrome,1280,800,,,,,10,1382,,,,,,,,,,,,,,,,,160,U,star,1,0,,,,,,,,,,,,,,,,repeat,letter,lettRpt,k,0.8112,Lo,,,,,,4,,,,,,,,low,27,0,27,0,1,,,,,,,,,
296050,2022-10-02_13h03.18.091,vts_reward_expectancy,2022.2.4,Win32,60.18657839,Chrome,1280,800,,,,,1,1383,,,,,,,,,,,,,,,,,125,W,circle,1,0,,,,,,,,,,,,,,,,repeat,letter,lettRpt,k,0.5311,Hi,,,,,,4,,,,,,,,low,28,0,28,0,1,,,,,,,,,
296050,2022-10-02_13h03.18.091,vts_reward_expectancy,2022.2.4,Win32,60.18657839,Chrome,1280,800,,,,,1,1384,,,,,,,,,,,,,,,,,132,B,star,1,0,,,,,,,,,,,,,,,,repeat,letter,lettRpt,j,0.5138,Lo,,,,,,4,,,,,,,,low,29,0,29,0,1,,,,,,,,,
296050,2022-10-02_13h03.18.091,vts_reward_expectancy,2022.2.4,Win32,60.18657839,Chrome,1280,800,,,,,1,1385,,,,,,,,,,,,,,,,,174,H,star,1,0,,,,,,,,,,,,,,,,repeat,letter,lettRpt,j,0.7829,Lo,,,,,,4,,,,,,,,low,30,0,30,0,1,,,,,,,,,
296050,2022-10-02_13h03.18.091,vts_reward_expectancy,2022.2.4,Win32,60.18657839,Chrome,1280,800,,,,,10,1395,,,,,,,,,,,,,,,,,181,Y,circle,1,0,,,,,,,,,,,,,,,,repeat,letter,lettRpt,k,0.6024,Hi,,,,,,4,,,,,,,,low,31,0,31,0,1,,,,,,,,,
296050,2022-10-02_13h03.18.091,vts_reward_expectancy,2022.2.4,Win32,60.18657839,Chrome,1280,800,,,,,0,1395,,,,,,,,,,,,,,,,,160,S,star,0,0,,,,,,,,,,,,,,,,repeat,letter,NA,j,0.0011,Hi,,,,,,5,,,,,,space,0.2585,low,0,0,0,0,1,,,,,,,,,
296050,2022-10-02_13h03.18.091,vts_reward_expectancy,2022.2.4,Win32,60.18657839,Chrome,1280,800,,,,,10,1405,,,,,,,,,,,,,,,,,146,D,circle,1,1,,,,,,,,,,,,,,,,repeat,letter,lettRpt,j,0.0617,Hi,,,,,,5,,,,,,,,low,1,0,1,0,1,,,,,,,,,
296050,2022-10-02_13h03.18.091,vts_reward_expectancy,2022.2.4,Win32,60.18657839,Chrome,1280,800,,,,,0,1405,,,,,,,,,,,,,,,,,167,Y,star,0,0,,,,,,,,,,,,,,,,repeat,letter,NA,j,0.0985,Hi,,,,,,5,,,,,,,,low,2,0,2,0,1,,,,,,,,,
296050,2022-10-02_13h03.18.091,vts_reward_expectancy,2022.2.4,Win32,60.18657839,Chrome,1280,800,,,,,10,1415,,,,,,,,,,,,,,,,,174,F,circle,1,1,,,,,,,,,,,,,,,,repeat,letter,lettRpt,j,0.1466,Hi,,,,,,5,,,,,,,,low,3,0,3,0,1,,,,,,,,,
296050,2022-10-02_13h03.18.091,vts_reward_expectancy,2022.2.4,Win32,60.18657839,Chrome,1280,800,,,,,0,1415,,,,,,,,,,,,,,,,,181,U,star,0,0,,,,,,,,,,,,,,,,repeat,letter,NA,j,0.0482,Hi,,,,,,5,,,,,,,,low,4,0,4,0,1,,,,,,,,,
296050,2022-10-02_13h03.18.091,vts_reward_expectancy,2022.2.4,Win32,60.18657839,Chrome,1280,800,,,,,10,1425,,,,,,,,,,,,,,,,,125,H,circle,1,1,,,,,,,,,,,,,,,,repeat,letter,lettRpt,j,0.1454,Hi,,,,,,5,,,,,,,,low,5,0,5,0,1,,,,,,,,,
296050,2022-10-02_13h03.18.091,vts_reward_expectancy,2022.2.4,Win32,60.18657839,Chrome,1280,800,,,,,10,1435,,,,,,,,,,,,,,,,,139,W,star,1,0,,,,,,,,,,,,,,,,repeat,letter,lettRpt,k,0.0136,Lo,,,,,,5,,,,,,,,low,6,0,6,0,1,,,,,,,,,
296050,2022-10-02_13h03.18.091,vts_reward_expectancy,2022.2.4,Win32,60.18657839,Chrome,1280,800,,,,,10,1445,,,,,,,,,,,,,,,,,132,B,circle,1,0,,,,,,,,,,,,,,,,switch,number,numSwt,d,0.2915,Hi,,,,,,5,,,,,,,,low,7,0,7,0,1,,,,,,,,,
296050,2022-10-02_13h03.18.091,vts_reward_expectancy,2022.2.4,Win32,60.18657839,Chrome,1280,800,,,,,0,1445,,,,,,,,,,,,,,,,,160,S,circle,0,0,,,,,,,,,,,,,,,,repeat,number,NA,d,0.0801,Hi,,,,,,5,,,,,,,,low,8,0,8,0,1,,,,,,,,,
296050,2022-10-02_13h03.18.091,vts_reward_expectancy,2022.2.4,Win32,60.18657839,Chrome,1280,800,,,,,1,1446,,,,,,,,,,,,,,,,,146,D,star,1,1,,,,,,,,,,,,,,,,switch,letter,lettSwt,j,0.1312,Lo,,,,,,5,,,,,,,,low,9,0,9,0,1,,,,,,,,,
296050,2022-10-02_13h03.18.091,vts_reward_expectancy,2022.2.4,Win32,60.18657839,Chrome,1280,800,,,,,0,1446,,,,,,,,,,,,,,,,,167,Y,circle,0,0,,,,,,,,,,,,,,,,repeat,letter,NA,j,0.0973,Lo,,,,,,5,,,,,,,,low,10,0,10,0,1,,,,,,,,,
296050,2022-10-02_13h03.18.091,vts_reward_expectancy,2022.2.4,Win32,60.18657839,Chrome,1280,800,,,,,10,1456,,,,,,,,,,,,,,,,,174,F,star,1,1,,,,,,,,,,,,,,,,repeat,letter,lettRpt,j,0.0972,Lo,,,,,,5,,,,,,,,low,11,0,11,0,1,,,,,,,,,
296050,2022-10-02_13h03.18.091,vts_reward_expectancy,2022.2.4,Win32,60.18657839,Chrome,1280,800,,,,,1,1457,,,,,,,,,,,,,,,,,181,U,circle,1,0,,,,,,,,,,,,,,,,repeat,letter,lettRpt,k,0.1135,Hi,,,,,,5,,,,,,,,low,12,0,12,0,1,,,,,,,,,
296050,2022-10-02_13h03.18.091,vts_reward_expectancy,2022.2.4,Win32,60.18657839,Chrome,1280,800,,,,,0,1457,,,,,,,,,,,,,,,,,125,H,star,0,0,,,,,,,,,,,,,,,,switch,number,NA,f,0.0307,Hi,,,,,,5,,,,,,,,low,13,0,13,0,1,,,,,,,,,
296050,2022-10-02_13h03.18.091,vts_reward_expectancy,2022.2.4,Win32,60.18657839,Chrome,1280,800,,,,,0,1457,,,,,,,,,,,,,,,,,139,W,star,0,1,,,,,,,,,,,,,,,,switch,letter,NA,j,0.0818,Hi,,,,,,5,,,,,,,,low,14,0,14,0,1,,,,,,,,,
296050,2022-10-02_13h03.18.091,vts_reward_expectancy,2022.2.4,Win32,60.18657839,Chrome,1280,800,,,,,10,1467,,,,,,,,,,,,,,,,,132,B,circle,1,1,,,,,,,,,,,,,,,,switch,number,numSwt,d,0.0113,Hi,,,,,,5,,,,,,,,low,15,0,15,0,1,,,,,,,,,
296050,2022-10-02_13h03.18.091,vts_reward_expectancy,2022.2.4,Win32,60.18657839,Chrome,1280,800,,,,,0,1467,,,,,,,,,,,,,,,,,139,W,star,0,0,,,,,,,,,,,,,,,,switch,letter,NA,j,0.0305,Hi,,,,,,5,,,,,,,,low,16,0,16,0,1,,,,,,,,,
296050,2022-10-02_13h03.18.091,vts_reward_expectancy,2022.2.4,Win32,60.18657839,Chrome,1280,800,,,,,0,1467,,,,,,,,,,,,,,,,,132,H,circle,0,1,,,,,,,,,,,,,,,,repeat,letter,NA,k,0.013,Hi,,,,,,5,,,,,,,,low,17,0,17,0,1,,,,,,,,,
296050,2022-10-02_13h03.18.091,vts_reward_expectancy,2022.2.4,Win32,60.18657839,Chrome,1280,800,,,,,0,1467,,,,,,,,,,,,,,,,,125,Y,star,0,1,,,,,,,,,,,,,,,,switch,number,NA,f,0.2624,Hi,,,,,,5,,,,,,,,low,18,0,18,0,1,,,,,,,,,
296050,2022-10-02_13h03.18.091,vts_reward_expectancy,2022.2.4,Win32,60.18657839,Chrome,1280,800,,,,,0,1467,,,,,,,,,,,,,,,,,146,S,circle,0,1,,,,,,,,,,,,,,,,switch,letter,NA,j,0.0842,Hi,,,,,,5,,,,,,,,low,19,0,19,0,1,,,,,,,,,
296050,2022-10-02_13h03.18.091,vts_reward_expectancy,2022.2.4,Win32,60.18657839,Chrome,1280,800,,,,,1,1468,,,,,,,,,,,,,,,,,181,U,circle,1,1,,,,,,,,,,,,,,,,switch,number,numSwt,f,0.135,Hi,,,,,,5,,,,,,,,low,20,0,20,0,1,,,,,,,,,
296050,2022-10-02_13h03.18.091,vts_reward_expectancy,2022.2.4,Win32,60.18657839,Chrome,1280,800,,,,,10,1478,,,,,,,,,,,,,,,,,174,F,star,1,0,,,,,,,,,,,,,,,,switch,letter,lettSwt,j,0.0011,Lo,,,,,,5,,,,,,,,low,21,0,21,0,1,,,,,,,,,
296050,2022-10-02_13h03.18.091,vts_reward_expectancy,2022.2.4,Win32,60.18657839,Chrome,1280,800,,,,,10,1488,,,,,,,,,,,,,,,,,160,B,star,1,0,,,,,,,,,,,,,,,,repeat,letter,lettRpt,j,0.047,Lo,,,,,,5,,,,,,,,low,22,0,22,0,1,,,,,,,,,
296050,2022-10-02_13h03.18.091,vts_reward_expectancy,2022.2.4,Win32,60.18657839,Chrome,1280,800,,,,,10,1498,,,,,,,,,,,,,,,,,167,D,circle,1,0,,,,,,,,,,,,,,,,repeat,letter,lettRpt,j,0.1205,Hi,,,,,,5,,,,,,,,low,23,0,23,0,1,,,,,,,,,
296050,2022-10-02_13h03.18.091,vts_reward_expectancy,2022.2.4,Win32,60.18657839,Chrome,1280,800,,,,,0,1498,,,,,,,,,,,,,,,,,146,H,star,0,0,,,,,,,,,,,,,,,,switch,number,NA,f,0.0299,Hi,,,,,,5,,,,,,,,low,24,0,24,0,1,,,,,,,,,
296050,2022-10-02_13h03.18.091,vts_reward_expectancy,2022.2.4,Win32,60.18657839,Chrome,1280,800,,,,,0,1498,,,,,,,,,,,,,,,,,181,Y,circle,0,1,,,,,,,,,,,,,,,,repeat,number,NA,d,0.0354,Hi,,,,,,5,,,,,,,,low,25,0,25,0,1,,,,,,,,,
296050,2022-10-02_13h03.18.091,vts_reward_expectancy,2022.2.4,Win32,60.18657839,Chrome,1280,800,,,,,1,1499,,,,,,,,,,,,,,,,,160,F,circle,1,1,,,,,,,,,,,,,,,,switch,letter,lettSwt,j,0.0533,Hi,,,,,,5,,,,,,,,low,26,0,26,0,1,,,,,,,,,
296050,2022-10-02_13h03.18.091,vts_reward_expectancy,2022.2.4,Win32,60.18657839,Chrome,1280,800,,,,,0,1499,,,,,,,,,,,,,,,,,125,D,star,0,0,,,,,,,,,,,,,,,,repeat,letter,NA,k,0.0502,Hi,,,,,,5,,,,,,,,low,27,0,27,0,1,,,,,,,,,
296050,2022-10-02_13h03.18.091,vts_reward_expectancy,2022.2.4,Win32,60.18657839,Chrome,1280,800,,,,,10,1509,,,,,,,,,,,,,,,,,132,B,circle,1,1,,,,,,,,,,,,,,,,switch,number,numSwt,d,0.1025,Hi,,,,,,5,,,,,,,,low,28,0,28,0,1,,,,,,,,,
296050,2022-10-02_13h03.18.091,vts_reward_expectancy,2022.2.4,Win32,60.18657839,Chrome,1280,800,,,,,10,1519,,,,,,,,,,,,,,,,,167,W,star,1,0,,,,,,,,,,,,,,,,switch,letter,lettSwt,k,0.9015,Lo,,,,,,5,,,,,,,,low,29,0,29,0,1,,,,,,,,,
296050,2022-10-02_13h03.18.091,vts_reward_expectancy,2022.2.4,Win32,60.18657839,Chrome,1280,800,,,,,0,1519,,,,,,,,,,,,,,,,,174,U,circle,1,0,,,,,,,,,,,,,,,,repeat,letter,lettRpt,k,0.5493,Hi,,,,,,5,,,,,,,,low,30,0,30,0,1,,,,,,,,,
296050,2022-10-02_13h03.18.091,vts_reward_expectancy,2022.2.4,Win32,60.18657839,Chrome,1280,800,,,,,1,1520,,,,,,,,,,,,,,,,,139,S,star,1,0,,,,,,,,,,,,,,,,repeat,letter,lettRpt,k,0.6016,Lo,,,,,,5,,,,,,,,low,31,0,31,0,1,,,,,,,,,
296050,2022-10-02_13h03.18.091,vts_reward_expectancy,2022.2.4,Win32,60.18657839,Chrome,1280,800,,,,,,,,,,,,,,,,,,,,,,,,,,,,,,,,,,,,,,,,,,,,,,,,,,,,,,6,,,,,,,,,,,,,,to answer correctly and be rewarded with points,2,I think I'm just stupid but I didn't really memorize the point values of the shapes,3,1,1,"It's so long that by the end of it I don't care enough to try. The ""reward"" isn't high value enough for me to care too much. ",1280,800
