participant,date,expName,psychopyVersion,OS,frameRate,browser,xResolution,yResolution,key_resp.keys,key_resp.rt,training_resp.keys,training_resp.rt,points_trial,points_cumul,trainBlock,training.thisRepN,training.thisTrialN,training.thisN,training.thisIndex,training.ran,LTriangleOpac,LCircleOpac,LHexagonOpac,LStarOpac,RTriangleOpac,RCircleOpac,RHexagonOpac,RStarOpac,LShape_ID,RShape_ID,curr_topStim,curr_bottStim,curr_shape,acc,E1,target_resp_prac1.keys,target_resp_prac1.rt,pracBlock,task1_prac_trials.thisRepN,task1_prac_trials.thisTrialN,task1_prac_trials.thisN,task1_prac_trials.thisIndex,task1_prac_trials.ran,target_resp_prac2.keys,target_resp_prac2.rt,task2_praac_trials.thisRepN,task2_praac_trials.thisTrialN,task2_praac_trials.thisN,task2_praac_trials.thisIndex,task2_praac_trials.ran,alt,task,condition,target_resp.keys,target_resp.rt,rewCond,vts_practice_trials.thisRepN,vts_practice_trials.thisTrialN,vts_practice_trials.thisN,vts_practice_trials.thisIndex,vts_practice_trials.ran,blockNum,trials_norew.thisRepN,trials_norew.thisTrialN,trials_norew.thisN,trials_norew.thisIndex,trials_norew.ran,key_resp_2.keys,key_resp_2.rt,rewExpect,trials_rew.thisRepN,trials_rew.thisTrialN,trials_rew.thisN,trials_rew.thisIndex,trials_rew.ran,Q1,Q2,Q2_text,Q3,Q4,Q5,Q5_text,xRes,yRes
295099,2022-09-22_19h00.30.566,vts_reward_expectancy,2022.2.4,Win32,60.69802731,Chrome,1536,864,,,,,,,,,,,,,,,,,,,,,,,,,,,,,,,,,,,,,,,,,,,,,,,,,,,,,,,,,,,,,,,,,,,,,,,,,,,,
295099,2022-09-22_19h00.30.566,vts_reward_expectancy,2022.2.4,Win32,60.69802731,Chrome,1536,864,space,18.3652,,,,,,,,,,,,,,,,,,,,,,,,,,,,,,,,,,,,,,,,,,,,,,,,,,,,,,,,,,,,,,,,,,,,,,,,,,
295099,2022-09-22_19h00.30.566,vts_reward_expectancy,2022.2.4,Win32,60.69802731,Chrome,1536,864,,,,,,,,,,,,,,,,,,,,,,,,,,,,,,,,,,,,,,,,,,,,,,,,,,,,,,,,,,,,,,,,,,,,,,,,,,,,
295099,2022-09-22_19h00.30.566,vts_reward_expectancy,2022.2.4,Win32,60.69802731,Chrome,1536,864,,,l,1.3802,10,10,0,0,0,0,2,1,1,0,0,0,0,0,0,1,triangle,star,,,,,,,,,,,,,,,,,,,,,,,,,,,,,,,,,,,,,,,,,,,,,,,,,,,,,,
295099,2022-09-22_19h00.30.566,vts_reward_expectancy,2022.2.4,Win32,60.69802731,Chrome,1536,864,,,a,2.0341,10,20,0,0,1,1,3,1,0,1,0,0,1,0,0,0,circle,triangle,,,,,,,,,,,,,,,,,,,,,,,,,,,,,,,,,,,,,,,,,,,,,,,,,,,,,,
295099,2022-09-22_19h00.30.566,vts_reward_expectancy,2022.2.4,Win32,60.69802731,Chrome,1536,864,,,a,2.1507,1,21,0,0,2,2,5,1,0,1,0,0,0,0,0,1,circle,star,,,,,,,,,,,,,,,,,,,,,,,,,,,,,,,,,,,,,,,,,,,,,,,,,,,,,,
295099,2022-09-22_19h00.30.566,vts_reward_expectancy,2022.2.4,Win32,60.69802731,Chrome,1536,864,,,l,1.2793,1,22,0,0,3,3,9,1,0,0,0,1,1,0,0,0,star,triangle,,,,,,,,,,,,,,,,,,,,,,,,,,,,,,,,,,,,,,,,,,,,,,,,,,,,,,
295099,2022-09-22_19h00.30.566,vts_reward_expectancy,2022.2.4,Win32,60.69802731,Chrome,1536,864,,,a,2.3714,10,32,0,0,4,4,11,1,0,0,0,1,0,0,1,0,star,hexagon,,,,,,,,,,,,,,,,,,,,,,,,,,,,,,,,,,,,,,,,,,,,,,,,,,,,,,
295099,2022-09-22_19h00.30.566,vts_reward_expectancy,2022.2.4,Win32,60.69802731,Chrome,1536,864,,,l,3.9376,1,33,0,0,5,5,6,1,0,0,1,0,1,0,0,0,hexagon,triangle,,,,,,,,,,,,,,,,,,,,,,,,,,,,,,,,,,,,,,,,,,,,,,,,,,,,,,
295099,2022-09-22_19h00.30.566,vts_reward_expectancy,2022.2.4,Win32,60.69802731,Chrome,1536,864,,,a,2.9992,10,43,0,0,6,6,1,1,1,0,0,0,0,0,1,0,triangle,hexagon,,,,,,,,,,,,,,,,,,,,,,,,,,,,,,,,,,,,,,,,,,,,,,,,,,,,,,
295099,2022-09-22_19h00.30.566,vts_reward_expectancy,2022.2.4,Win32,60.69802731,Chrome,1536,864,,,l,1.7328,10,53,0,0,7,7,8,1,0,0,1,0,0,0,0,1,hexagon,star,,,,,,,,,,,,,,,,,,,,,,,,,,,,,,,,,,,,,,,,,,,,,,,,,,,,,,
295099,2022-09-22_19h00.30.566,vts_reward_expectancy,2022.2.4,Win32,60.69802731,Chrome,1536,864,,,l,2.9978,1,54,0,0,8,8,4,1,0,1,0,0,0,0,1,0,circle,hexagon,,,,,,,,,,,,,,,,,,,,,,,,,,,,,,,,,,,,,,,,,,,,,,,,,,,,,,
295099,2022-09-22_19h00.30.566,vts_reward_expectancy,2022.2.4,Win32,60.69802731,Chrome,1536,864,,,a,3.7415,10,64,0,0,9,9,7,1,0,0,1,0,0,1,0,0,hexagon,circle,,,,,,,,,,,,,,,,,,,,,,,,,,,,,,,,,,,,,,,,,,,,,,,,,,,,,,
295099,2022-09-22_19h00.30.566,vts_reward_expectancy,2022.2.4,Win32,60.69802731,Chrome,1536,864,,,l,2.1859,1,65,0,0,10,10,10,1,0,0,0,1,0,1,0,0,star ,circle,,,,,,,,,,,,,,,,,,,,,,,,,,,,,,,,,,,,,,,,,,,,,,,,,,,,,,
295099,2022-09-22_19h00.30.566,vts_reward_expectancy,2022.2.4,Win32,60.69802731,Chrome,1536,864,,,a,2.9691,1,66,0,0,11,11,0,1,1,0,0,0,0,1,0,0,triangle,circle,,,,,,,,,,,,,,,,,,,,,,,,,,,,,,,,,,,,,,,,,,,,,,,,,,,,,,
295099,2022-09-22_19h00.30.566,vts_reward_expectancy,2022.2.4,Win32,60.69802731,Chrome,1536,864,,,a,1.9167,1,67,0,1,0,12,10,1,0,0,0,1,0,1,0,0,star ,circle,,,,,,,,,,,,,,,,,,,,,,,,,,,,,,,,,,,,,,,,,,,,,,,,,,,,,,
295099,2022-09-22_19h00.30.566,vts_reward_expectancy,2022.2.4,Win32,60.69802731,Chrome,1536,864,,,l,0.6813,10,77,0,1,1,13,2,1,1,0,0,0,0,0,0,1,triangle,star,,,,,,,,,,,,,,,,,,,,,,,,,,,,,,,,,,,,,,,,,,,,,,,,,,,,,,
295099,2022-09-22_19h00.30.566,vts_reward_expectancy,2022.2.4,Win32,60.69802731,Chrome,1536,864,,,l,1.0945,10,87,0,1,2,14,0,1,1,0,0,0,0,1,0,0,triangle,circle,,,,,,,,,,,,,,,,,,,,,,,,,,,,,,,,,,,,,,,,,,,,,,,,,,,,,,
295099,2022-09-22_19h00.30.566,vts_reward_expectancy,2022.2.4,Win32,60.69802731,Chrome,1536,864,,,a,1.729,1,88,0,1,3,15,5,1,0,1,0,0,0,0,0,1,circle,star,,,,,,,,,,,,,,,,,,,,,,,,,,,,,,,,,,,,,,,,,,,,,,,,,,,,,,
295099,2022-09-22_19h00.30.566,vts_reward_expectancy,2022.2.4,Win32,60.69802731,Chrome,1536,864,,,l,1.9476,10,98,0,1,4,16,4,1,0,1,0,0,0,0,1,0,circle,hexagon,,,,,,,,,,,,,,,,,,,,,,,,,,,,,,,,,,,,,,,,,,,,,,,,,,,,,,
295099,2022-09-22_19h00.30.566,vts_reward_expectancy,2022.2.4,Win32,60.69802731,Chrome,1536,864,,,l,1.648,1,99,0,1,5,17,9,1,0,0,0,1,1,0,0,0,star,triangle,,,,,,,,,,,,,,,,,,,,,,,,,,,,,,,,,,,,,,,,,,,,,,,,,,,,,,
295099,2022-09-22_19h00.30.566,vts_reward_expectancy,2022.2.4,Win32,60.69802731,Chrome,1536,864,,,l,1.2814,10,109,0,1,6,18,8,1,0,0,1,0,0,0,0,1,hexagon,star,,,,,,,,,,,,,,,,,,,,,,,,,,,,,,,,,,,,,,,,,,,,,,,,,,,,,,
295099,2022-09-22_19h00.30.566,vts_reward_expectancy,2022.2.4,Win32,60.69802731,Chrome,1536,864,,,a,1.2615,10,119,0,1,7,19,3,1,0,1,0,0,1,0,0,0,circle,triangle,,,,,,,,,,,,,,,,,,,,,,,,,,,,,,,,,,,,,,,,,,,,,,,,,,,,,,
295099,2022-09-22_19h00.30.566,vts_reward_expectancy,2022.2.4,Win32,60.69802731,Chrome,1536,864,,,a,1.5578,1,120,0,1,8,20,1,1,1,0,0,0,0,0,1,0,triangle,hexagon,,,,,,,,,,,,,,,,,,,,,,,,,,,,,,,,,,,,,,,,,,,,,,,,,,,,,,
295099,2022-09-22_19h00.30.566,vts_reward_expectancy,2022.2.4,Win32,60.69802731,Chrome,1536,864,,,a,1.698,10,130,0,1,9,21,11,1,0,0,0,1,0,0,1,0,star,hexagon,,,,,,,,,,,,,,,,,,,,,,,,,,,,,,,,,,,,,,,,,,,,,,,,,,,,,,
295099,2022-09-22_19h00.30.566,vts_reward_expectancy,2022.2.4,Win32,60.69802731,Chrome,1536,864,,,l,1.6644,10,140,0,1,10,22,6,1,0,0,1,0,1,0,0,0,hexagon,triangle,,,,,,,,,,,,,,,,,,,,,,,,,,,,,,,,,,,,,,,,,,,,,,,,,,,,,,
295099,2022-09-22_19h00.30.566,vts_reward_expectancy,2022.2.4,Win32,60.69802731,Chrome,1536,864,,,l,1.3339,10,150,0,1,11,23,7,1,0,0,1,0,0,1,0,0,hexagon,circle,,,,,,,,,,,,,,,,,,,,,,,,,,,,,,,,,,,,,,,,,,,,,,,,,,,,,,
295099,2022-09-22_19h00.30.566,vts_reward_expectancy,2022.2.4,Win32,60.69802731,Chrome,1536,864,,,l,1.7519,10,160,0,2,0,24,8,1,0,0,1,0,0,0,0,1,hexagon,star,,,,,,,,,,,,,,,,,,,,,,,,,,,,,,,,,,,,,,,,,,,,,,,,,,,,,,
295099,2022-09-22_19h00.30.566,vts_reward_expectancy,2022.2.4,Win32,60.69802731,Chrome,1536,864,,,a,1.0722,10,170,0,2,1,25,7,1,0,0,1,0,0,1,0,0,hexagon,circle,,,,,,,,,,,,,,,,,,,,,,,,,,,,,,,,,,,,,,,,,,,,,,,,,,,,,,
295099,2022-09-22_19h00.30.566,vts_reward_expectancy,2022.2.4,Win32,60.69802731,Chrome,1536,864,,,a,0.9495,10,180,0,2,2,26,10,1,0,0,0,1,0,1,0,0,star ,circle,,,,,,,,,,,,,,,,,,,,,,,,,,,,,,,,,,,,,,,,,,,,,,,,,,,,,,
295099,2022-09-22_19h00.30.566,vts_reward_expectancy,2022.2.4,Win32,60.69802731,Chrome,1536,864,,,a,0.9648,10,190,0,2,3,27,1,1,1,0,0,0,0,0,1,0,triangle,hexagon,,,,,,,,,,,,,,,,,,,,,,,,,,,,,,,,,,,,,,,,,,,,,,,,,,,,,,
295099,2022-09-22_19h00.30.566,vts_reward_expectancy,2022.2.4,Win32,60.69802731,Chrome,1536,864,,,a,0.7352,10,200,0,2,4,28,4,1,0,1,0,0,0,0,1,0,circle,hexagon,,,,,,,,,,,,,,,,,,,,,,,,,,,,,,,,,,,,,,,,,,,,,,,,,,,,,,
295099,2022-09-22_19h00.30.566,vts_reward_expectancy,2022.2.4,Win32,60.69802731,Chrome,1536,864,,,l,0.6321,10,210,0,2,5,29,5,1,0,1,0,0,0,0,0,1,circle,star,,,,,,,,,,,,,,,,,,,,,,,,,,,,,,,,,,,,,,,,,,,,,,,,,,,,,,
295099,2022-09-22_19h00.30.566,vts_reward_expectancy,2022.2.4,Win32,60.69802731,Chrome,1536,864,,,l,2.065,1,211,0,2,6,30,11,1,0,0,0,1,0,0,1,0,star,hexagon,,,,,,,,,,,,,,,,,,,,,,,,,,,,,,,,,,,,,,,,,,,,,,,,,,,,,,
295099,2022-09-22_19h00.30.566,vts_reward_expectancy,2022.2.4,Win32,60.69802731,Chrome,1536,864,,,l,1.3307,1,212,0,2,7,31,3,1,0,1,0,0,1,0,0,0,circle,triangle,,,,,,,,,,,,,,,,,,,,,,,,,,,,,,,,,,,,,,,,,,,,,,,,,,,,,,
295099,2022-09-22_19h00.30.566,vts_reward_expectancy,2022.2.4,Win32,60.69802731,Chrome,1536,864,,,a,1.7732,1,213,0,2,8,32,9,1,0,0,0,1,1,0,0,0,star,triangle,,,,,,,,,,,,,,,,,,,,,,,,,,,,,,,,,,,,,,,,,,,,,,,,,,,,,,
295099,2022-09-22_19h00.30.566,vts_reward_expectancy,2022.2.4,Win32,60.69802731,Chrome,1536,864,,,l,0.7651,10,223,0,2,9,33,2,1,1,0,0,0,0,0,0,1,triangle,star,,,,,,,,,,,,,,,,,,,,,,,,,,,,,,,,,,,,,,,,,,,,,,,,,,,,,,
295099,2022-09-22_19h00.30.566,vts_reward_expectancy,2022.2.4,Win32,60.69802731,Chrome,1536,864,,,a,2.1401,1,224,0,2,10,34,0,1,1,0,0,0,0,1,0,0,triangle,circle,,,,,,,,,,,,,,,,,,,,,,,,,,,,,,,,,,,,,,,,,,,,,,,,,,,,,,
295099,2022-09-22_19h00.30.566,vts_reward_expectancy,2022.2.4,Win32,60.69802731,Chrome,1536,864,,,l,1.2144,1,225,0,2,11,35,6,1,0,0,1,0,1,0,0,0,hexagon,triangle,,,,,,,,,,,,,,,,,,,,,,,,,,,,,,,,,,,,,,,,,,,,,,,,,,,,,,
295099,2022-09-22_19h00.30.566,vts_reward_expectancy,2022.2.4,Win32,60.69802731,Chrome,1536,864,,,a,1.4054,10,235,1,0,0,0,11,1,0,0,0,1,0,0,1,0,star,hexagon,,,,,,,,,,,,,,,,,,,,,,,,,,,,,,,,,,,,,,,,,,,,,,,,,,,,,,
295099,2022-09-22_19h00.30.566,vts_reward_expectancy,2022.2.4,Win32,60.69802731,Chrome,1536,864,,,l,1.5671,10,245,1,0,1,1,8,1,0,0,1,0,0,0,0,1,hexagon,star,,,,,,,,,,,,,,,,,,,,,,,,,,,,,,,,,,,,,,,,,,,,,,,,,,,,,,
295099,2022-09-22_19h00.30.566,vts_reward_expectancy,2022.2.4,Win32,60.69802731,Chrome,1536,864,,,a,5.265,10,255,1,0,2,2,6,1,0,0,1,0,1,0,0,0,hexagon,triangle,,,,,,,,,,,,,,,,,,,,,,,,,,,,,,,,,,,,,,,,,,,,,,,,,,,,,,
295099,2022-09-22_19h00.30.566,vts_reward_expectancy,2022.2.4,Win32,60.69802731,Chrome,1536,864,,,l,1.9148,10,265,1,0,3,3,7,1,0,0,1,0,0,1,0,0,hexagon,circle,,,,,,,,,,,,,,,,,,,,,,,,,,,,,,,,,,,,,,,,,,,,,,,,,,,,,,
295099,2022-09-22_19h00.30.566,vts_reward_expectancy,2022.2.4,Win32,60.69802731,Chrome,1536,864,,,l,8.921,10,275,1,0,4,4,0,1,1,0,0,0,0,1,0,0,triangle,circle,,,,,,,,,,,,,,,,,,,,,,,,,,,,,,,,,,,,,,,,,,,,,,,,,,,,,,
295099,2022-09-22_19h00.30.566,vts_reward_expectancy,2022.2.4,Win32,60.69802731,Chrome,1536,864,,,l,2.8534,10,285,1,0,5,5,10,1,0,0,0,1,0,1,0,0,star ,circle,,,,,,,,,,,,,,,,,,,,,,,,,,,,,,,,,,,,,,,,,,,,,,,,,,,,,,
295099,2022-09-22_19h00.30.566,vts_reward_expectancy,2022.2.4,Win32,60.69802731,Chrome,1536,864,,,l,1.9337,10,295,1,0,6,6,2,1,1,0,0,0,0,0,0,1,triangle,star,,,,,,,,,,,,,,,,,,,,,,,,,,,,,,,,,,,,,,,,,,,,,,,,,,,,,,
295099,2022-09-22_19h00.30.566,vts_reward_expectancy,2022.2.4,Win32,60.69802731,Chrome,1536,864,,,l,2.2481,1,296,1,0,7,7,9,1,0,0,0,1,1,0,0,0,star,triangle,,,,,,,,,,,,,,,,,,,,,,,,,,,,,,,,,,,,,,,,,,,,,,,,,,,,,,
295099,2022-09-22_19h00.30.566,vts_reward_expectancy,2022.2.4,Win32,60.69802731,Chrome,1536,864,,,a,2.9405,1,297,1,0,8,8,1,1,1,0,0,0,0,0,1,0,triangle,hexagon,,,,,,,,,,,,,,,,,,,,,,,,,,,,,,,,,,,,,,,,,,,,,,,,,,,,,,
295099,2022-09-22_19h00.30.566,vts_reward_expectancy,2022.2.4,Win32,60.69802731,Chrome,1536,864,,,a,0.9139,10,307,1,0,9,9,3,1,0,1,0,0,1,0,0,0,circle,triangle,,,,,,,,,,,,,,,,,,,,,,,,,,,,,,,,,,,,,,,,,,,,,,,,,,,,,,
295099,2022-09-22_19h00.30.566,vts_reward_expectancy,2022.2.4,Win32,60.69802731,Chrome,1536,864,,,l,1.6074,10,317,1,0,10,10,4,1,0,1,0,0,0,0,1,0,circle,hexagon,,,,,,,,,,,,,,,,,,,,,,,,,,,,,,,,,,,,,,,,,,,,,,,,,,,,,,
295099,2022-09-22_19h00.30.566,vts_reward_expectancy,2022.2.4,Win32,60.69802731,Chrome,1536,864,,,l,0.982,10,327,1,0,11,11,5,1,0,1,0,0,0,0,0,1,circle,star,,,,,,,,,,,,,,,,,,,,,,,,,,,,,,,,,,,,,,,,,,,,,,,,,,,,,,
295099,2022-09-22_19h00.30.566,vts_reward_expectancy,2022.2.4,Win32,60.69802731,Chrome,1536,864,,,l,1.5318,10,337,1,1,0,12,8,1,0,0,1,0,0,0,0,1,hexagon,star,,,,,,,,,,,,,,,,,,,,,,,,,,,,,,,,,,,,,,,,,,,,,,,,,,,,,,
295099,2022-09-22_19h00.30.566,vts_reward_expectancy,2022.2.4,Win32,60.69802731,Chrome,1536,864,,,a,2.9829,10,347,1,1,1,13,7,1,0,0,1,0,0,1,0,0,hexagon,circle,,,,,,,,,,,,,,,,,,,,,,,,,,,,,,,,,,,,,,,,,,,,,,,,,,,,,,
295099,2022-09-22_19h00.30.566,vts_reward_expectancy,2022.2.4,Win32,60.69802731,Chrome,1536,864,,,a,2.3309,1,348,1,1,2,14,1,1,1,0,0,0,0,0,1,0,triangle,hexagon,,,,,,,,,,,,,,,,,,,,,,,,,,,,,,,,,,,,,,,,,,,,,,,,,,,,,,
295099,2022-09-22_19h00.30.566,vts_reward_expectancy,2022.2.4,Win32,60.69802731,Chrome,1536,864,,,l,1.0208,1,349,1,1,3,15,2,1,1,0,0,0,0,0,0,1,triangle,star,,,,,,,,,,,,,,,,,,,,,,,,,,,,,,,,,,,,,,,,,,,,,,,,,,,,,,
295099,2022-09-22_19h00.30.566,vts_reward_expectancy,2022.2.4,Win32,60.69802731,Chrome,1536,864,,,a,3.0564,10,359,1,1,4,16,3,1,0,1,0,0,1,0,0,0,circle,triangle,,,,,,,,,,,,,,,,,,,,,,,,,,,,,,,,,,,,,,,,,,,,,,,,,,,,,,
295099,2022-09-22_19h00.30.566,vts_reward_expectancy,2022.2.4,Win32,60.69802731,Chrome,1536,864,,,a,1.0914,10,369,1,1,5,17,11,1,0,0,0,1,0,0,1,0,star,hexagon,,,,,,,,,,,,,,,,,,,,,,,,,,,,,,,,,,,,,,,,,,,,,,,,,,,,,,
295099,2022-09-22_19h00.30.566,vts_reward_expectancy,2022.2.4,Win32,60.69802731,Chrome,1536,864,,,a,1.3149,10,379,1,1,6,18,9,1,0,0,0,1,1,0,0,0,star,triangle,,,,,,,,,,,,,,,,,,,,,,,,,,,,,,,,,,,,,,,,,,,,,,,,,,,,,,
295099,2022-09-22_19h00.30.566,vts_reward_expectancy,2022.2.4,Win32,60.69802731,Chrome,1536,864,,,l,3.4049,10,389,1,1,7,19,4,1,0,1,0,0,0,0,1,0,circle,hexagon,,,,,,,,,,,,,,,,,,,,,,,,,,,,,,,,,,,,,,,,,,,,,,,,,,,,,,
295099,2022-09-22_19h00.30.566,vts_reward_expectancy,2022.2.4,Win32,60.69802731,Chrome,1536,864,,,l,3.8866,10,399,1,1,8,20,0,1,1,0,0,0,0,1,0,0,triangle,circle,,,,,,,,,,,,,,,,,,,,,,,,,,,,,,,,,,,,,,,,,,,,,,,,,,,,,,
295099,2022-09-22_19h00.30.566,vts_reward_expectancy,2022.2.4,Win32,60.69802731,Chrome,1536,864,,,l,0.7363,1,400,1,1,9,21,5,1,0,1,0,0,0,0,0,1,circle,star,,,,,,,,,,,,,,,,,,,,,,,,,,,,,,,,,,,,,,,,,,,,,,,,,,,,,,
295099,2022-09-22_19h00.30.566,vts_reward_expectancy,2022.2.4,Win32,60.69802731,Chrome,1536,864,,,a,1.6151,1,401,1,1,10,22,6,1,0,0,1,0,1,0,0,0,hexagon,triangle,,,,,,,,,,,,,,,,,,,,,,,,,,,,,,,,,,,,,,,,,,,,,,,,,,,,,,
295099,2022-09-22_19h00.30.566,vts_reward_expectancy,2022.2.4,Win32,60.69802731,Chrome,1536,864,,,a,1.3286,1,402,1,1,11,23,10,1,0,0,0,1,0,1,0,0,star ,circle,,,,,,,,,,,,,,,,,,,,,,,,,,,,,,,,,,,,,,,,,,,,,,,,,,,,,,
295099,2022-09-22_19h00.30.566,vts_reward_expectancy,2022.2.4,Win32,60.69802731,Chrome,1536,864,,,l,1.084,1,403,1,2,0,24,4,1,0,1,0,0,0,0,1,0,circle,hexagon,,,,,,,,,,,,,,,,,,,,,,,,,,,,,,,,,,,,,,,,,,,,,,,,,,,,,,
295099,2022-09-22_19h00.30.566,vts_reward_expectancy,2022.2.4,Win32,60.69802731,Chrome,1536,864,,,l,0.6148,10,413,1,2,1,25,2,1,1,0,0,0,0,0,0,1,triangle,star,,,,,,,,,,,,,,,,,,,,,,,,,,,,,,,,,,,,,,,,,,,,,,,,,,,,,,
295099,2022-09-22_19h00.30.566,vts_reward_expectancy,2022.2.4,Win32,60.69802731,Chrome,1536,864,,,a,0.9723,1,414,1,2,2,26,9,1,0,0,0,1,1,0,0,0,star,triangle,,,,,,,,,,,,,,,,,,,,,,,,,,,,,,,,,,,,,,,,,,,,,,,,,,,,,,
295099,2022-09-22_19h00.30.566,vts_reward_expectancy,2022.2.4,Win32,60.69802731,Chrome,1536,864,,,l,0.6507,10,424,1,2,3,27,8,1,0,0,1,0,0,0,0,1,hexagon,star,,,,,,,,,,,,,,,,,,,,,,,,,,,,,,,,,,,,,,,,,,,,,,,,,,,,,,
295099,2022-09-22_19h00.30.566,vts_reward_expectancy,2022.2.4,Win32,60.69802731,Chrome,1536,864,,,l,1.0344,10,434,1,2,4,28,1,1,1,0,0,0,0,0,1,0,triangle,hexagon,,,,,,,,,,,,,,,,,,,,,,,,,,,,,,,,,,,,,,,,,,,,,,,,,,,,,,
295099,2022-09-22_19h00.30.566,vts_reward_expectancy,2022.2.4,Win32,60.69802731,Chrome,1536,864,,,l,0.752,10,444,1,2,5,29,10,1,0,0,0,1,0,1,0,0,star ,circle,,,,,,,,,,,,,,,,,,,,,,,,,,,,,,,,,,,,,,,,,,,,,,,,,,,,,,
295099,2022-09-22_19h00.30.566,vts_reward_expectancy,2022.2.4,Win32,60.69802731,Chrome,1536,864,,,l,2.0382,1,445,1,2,6,30,11,1,0,0,0,1,0,0,1,0,star,hexagon,,,,,,,,,,,,,,,,,,,,,,,,,,,,,,,,,,,,,,,,,,,,,,,,,,,,,,
295099,2022-09-22_19h00.30.566,vts_reward_expectancy,2022.2.4,Win32,60.69802731,Chrome,1536,864,,,l,1.5737,10,455,1,2,7,31,7,1,0,0,1,0,0,1,0,0,hexagon,circle,,,,,,,,,,,,,,,,,,,,,,,,,,,,,,,,,,,,,,,,,,,,,,,,,,,,,,
295099,2022-09-22_19h00.30.566,vts_reward_expectancy,2022.2.4,Win32,60.69802731,Chrome,1536,864,,,a,1.3688,1,456,1,2,8,32,5,1,0,1,0,0,0,0,0,1,circle,star,,,,,,,,,,,,,,,,,,,,,,,,,,,,,,,,,,,,,,,,,,,,,,,,,,,,,,
295099,2022-09-22_19h00.30.566,vts_reward_expectancy,2022.2.4,Win32,60.69802731,Chrome,1536,864,,,l,1.8009,1,457,1,2,9,33,3,1,0,1,0,0,1,0,0,0,circle,triangle,,,,,,,,,,,,,,,,,,,,,,,,,,,,,,,,,,,,,,,,,,,,,,,,,,,,,,
295099,2022-09-22_19h00.30.566,vts_reward_expectancy,2022.2.4,Win32,60.69802731,Chrome,1536,864,,,l,2.5903,10,467,1,2,10,34,0,1,1,0,0,0,0,1,0,0,triangle,circle,,,,,,,,,,,,,,,,,,,,,,,,,,,,,,,,,,,,,,,,,,,,,,,,,,,,,,
295099,2022-09-22_19h00.30.566,vts_reward_expectancy,2022.2.4,Win32,60.69802731,Chrome,1536,864,,,l,2.3417,10,477,1,2,11,35,6,1,0,0,1,0,1,0,0,0,hexagon,triangle,,,,,,,,,,,,,,,,,,,,,,,,,,,,,,,,,,,,,,,,,,,,,,,,,,,,,,
295099,2022-09-22_19h00.30.566,vts_reward_expectancy,2022.2.4,Win32,60.69802731,Chrome,1536,864,,,l,1.7558,1,478,2,0,0,0,0,1,1,0,0,0,0,1,0,0,triangle,circle,,,,,,,,,,,,,,,,,,,,,,,,,,,,,,,,,,,,,,,,,,,,,,,,,,,,,,
295099,2022-09-22_19h00.30.566,vts_reward_expectancy,2022.2.4,Win32,60.69802731,Chrome,1536,864,,,l,1.106,10,488,2,0,1,1,2,1,1,0,0,0,0,0,0,1,triangle,star,,,,,,,,,,,,,,,,,,,,,,,,,,,,,,,,,,,,,,,,,,,,,,,,,,,,,,
295099,2022-09-22_19h00.30.566,vts_reward_expectancy,2022.2.4,Win32,60.69802731,Chrome,1536,864,,,a,1.334,10,498,2,0,2,2,11,1,0,0,0,1,0,0,1,0,star,hexagon,,,,,,,,,,,,,,,,,,,,,,,,,,,,,,,,,,,,,,,,,,,,,,,,,,,,,,
295099,2022-09-22_19h00.30.566,vts_reward_expectancy,2022.2.4,Win32,60.69802731,Chrome,1536,864,,,a,1.6049,1,499,2,0,3,3,4,1,0,1,0,0,0,0,1,0,circle,hexagon,,,,,,,,,,,,,,,,,,,,,,,,,,,,,,,,,,,,,,,,,,,,,,,,,,,,,,
295099,2022-09-22_19h00.30.566,vts_reward_expectancy,2022.2.4,Win32,60.69802731,Chrome,1536,864,,,l,1.2394,1,500,2,0,4,4,5,1,0,1,0,0,0,0,0,1,circle,star,,,,,,,,,,,,,,,,,,,,,,,,,,,,,,,,,,,,,,,,,,,,,,,,,,,,,,
295099,2022-09-22_19h00.30.566,vts_reward_expectancy,2022.2.4,Win32,60.69802731,Chrome,1536,864,,,l,1.8755,10,510,2,0,5,5,7,1,0,0,1,0,0,1,0,0,hexagon,circle,,,,,,,,,,,,,,,,,,,,,,,,,,,,,,,,,,,,,,,,,,,,,,,,,,,,,,
295099,2022-09-22_19h00.30.566,vts_reward_expectancy,2022.2.4,Win32,60.69802731,Chrome,1536,864,,,l,4.2898,1,511,2,0,6,6,6,1,0,0,1,0,1,0,0,0,hexagon,triangle,,,,,,,,,,,,,,,,,,,,,,,,,,,,,,,,,,,,,,,,,,,,,,,,,,,,,,
295099,2022-09-22_19h00.30.566,vts_reward_expectancy,2022.2.4,Win32,60.69802731,Chrome,1536,864,,,l,1.7352,1,512,2,0,7,7,9,1,0,0,0,1,1,0,0,0,star,triangle,,,,,,,,,,,,,,,,,,,,,,,,,,,,,,,,,,,,,,,,,,,,,,,,,,,,,,
295099,2022-09-22_19h00.30.566,vts_reward_expectancy,2022.2.4,Win32,60.69802731,Chrome,1536,864,,,a,3.0477,10,522,2,0,8,8,3,1,0,1,0,0,1,0,0,0,circle,triangle,,,,,,,,,,,,,,,,,,,,,,,,,,,,,,,,,,,,,,,,,,,,,,,,,,,,,,
295099,2022-09-22_19h00.30.566,vts_reward_expectancy,2022.2.4,Win32,60.69802731,Chrome,1536,864,,,l,1.3297,1,523,2,0,9,9,10,1,0,0,0,1,0,1,0,0,star ,circle,,,,,,,,,,,,,,,,,,,,,,,,,,,,,,,,,,,,,,,,,,,,,,,,,,,,,,
295099,2022-09-22_19h00.30.566,vts_reward_expectancy,2022.2.4,Win32,60.69802731,Chrome,1536,864,,,l,2.1336,10,533,2,0,10,10,1,1,1,0,0,0,0,0,1,0,triangle,hexagon,,,,,,,,,,,,,,,,,,,,,,,,,,,,,,,,,,,,,,,,,,,,,,,,,,,,,,
295099,2022-09-22_19h00.30.566,vts_reward_expectancy,2022.2.4,Win32,60.69802731,Chrome,1536,864,,,l,2.8156,10,543,2,0,11,11,8,1,0,0,1,0,0,0,0,1,hexagon,star,,,,,,,,,,,,,,,,,,,,,,,,,,,,,,,,,,,,,,,,,,,,,,,,,,,,,,
295099,2022-09-22_19h00.30.566,vts_reward_expectancy,2022.2.4,Win32,60.69802731,Chrome,1536,864,,,a,1.6674,1,544,2,1,0,12,8,1,0,0,1,0,0,0,0,1,hexagon,star,,,,,,,,,,,,,,,,,,,,,,,,,,,,,,,,,,,,,,,,,,,,,,,,,,,,,,
295099,2022-09-22_19h00.30.566,vts_reward_expectancy,2022.2.4,Win32,60.69802731,Chrome,1536,864,,,a,1.5761,10,554,2,1,1,13,11,1,0,0,0,1,0,0,1,0,star,hexagon,,,,,,,,,,,,,,,,,,,,,,,,,,,,,,,,,,,,,,,,,,,,,,,,,,,,,,
295099,2022-09-22_19h00.30.566,vts_reward_expectancy,2022.2.4,Win32,60.69802731,Chrome,1536,864,,,a,1.2176,1,555,2,1,2,14,9,1,0,0,0,1,1,0,0,0,star,triangle,,,,,,,,,,,,,,,,,,,,,,,,,,,,,,,,,,,,,,,,,,,,,,,,,,,,,,
295099,2022-09-22_19h00.30.566,vts_reward_expectancy,2022.2.4,Win32,60.69802731,Chrome,1536,864,,,l,2.0446,10,565,2,1,3,15,7,1,0,0,1,0,0,1,0,0,hexagon,circle,,,,,,,,,,,,,,,,,,,,,,,,,,,,,,,,,,,,,,,,,,,,,,,,,,,,,,
295099,2022-09-22_19h00.30.566,vts_reward_expectancy,2022.2.4,Win32,60.69802731,Chrome,1536,864,,,l,1.6984,1,566,2,1,4,16,0,1,1,0,0,0,0,1,0,0,triangle,circle,,,,,,,,,,,,,,,,,,,,,,,,,,,,,,,,,,,,,,,,,,,,,,,,,,,,,,
295099,2022-09-22_19h00.30.566,vts_reward_expectancy,2022.2.4,Win32,60.69802731,Chrome,1536,864,,,a,1.2976,10,576,2,1,5,17,6,1,0,0,1,0,1,0,0,0,hexagon,triangle,,,,,,,,,,,,,,,,,,,,,,,,,,,,,,,,,,,,,,,,,,,,,,,,,,,,,,
295099,2022-09-22_19h00.30.566,vts_reward_expectancy,2022.2.4,Win32,60.69802731,Chrome,1536,864,,,a,1.7675,10,586,2,1,6,18,10,1,0,0,0,1,0,1,0,0,star ,circle,,,,,,,,,,,,,,,,,,,,,,,,,,,,,,,,,,,,,,,,,,,,,,,,,,,,,,
295099,2022-09-22_19h00.30.566,vts_reward_expectancy,2022.2.4,Win32,60.69802731,Chrome,1536,864,,,l,1.535,10,596,2,1,7,19,5,1,0,1,0,0,0,0,0,1,circle,star,,,,,,,,,,,,,,,,,,,,,,,,,,,,,,,,,,,,,,,,,,,,,,,,,,,,,,
295099,2022-09-22_19h00.30.566,vts_reward_expectancy,2022.2.4,Win32,60.69802731,Chrome,1536,864,,,l,1.3176,10,606,2,1,8,20,2,1,1,0,0,0,0,0,0,1,triangle,star,,,,,,,,,,,,,,,,,,,,,,,,,,,,,,,,,,,,,,,,,,,,,,,,,,,,,,
295099,2022-09-22_19h00.30.566,vts_reward_expectancy,2022.2.4,Win32,60.69802731,Chrome,1536,864,,,l,1.2167,1,607,2,1,9,21,1,1,1,0,0,0,0,0,1,0,triangle,hexagon,,,,,,,,,,,,,,,,,,,,,,,,,,,,,,,,,,,,,,,,,,,,,,,,,,,,,,
295099,2022-09-22_19h00.30.566,vts_reward_expectancy,2022.2.4,Win32,60.69802731,Chrome,1536,864,,,l,1.1813,1,608,2,1,10,22,4,1,0,1,0,0,0,0,1,0,circle,hexagon,,,,,,,,,,,,,,,,,,,,,,,,,,,,,,,,,,,,,,,,,,,,,,,,,,,,,,
295099,2022-09-22_19h00.30.566,vts_reward_expectancy,2022.2.4,Win32,60.69802731,Chrome,1536,864,,,a,1.4145,1,609,2,1,11,23,3,1,0,1,0,0,1,0,0,0,circle,triangle,,,,,,,,,,,,,,,,,,,,,,,,,,,,,,,,,,,,,,,,,,,,,,,,,,,,,,
295099,2022-09-22_19h00.30.566,vts_reward_expectancy,2022.2.4,Win32,60.69802731,Chrome,1536,864,,,a,1.2171,1,610,2,2,0,24,0,1,1,0,0,0,0,1,0,0,triangle,circle,,,,,,,,,,,,,,,,,,,,,,,,,,,,,,,,,,,,,,,,,,,,,,,,,,,,,,
295099,2022-09-22_19h00.30.566,vts_reward_expectancy,2022.2.4,Win32,60.69802731,Chrome,1536,864,,,l,1.0636,10,620,2,2,1,25,1,1,1,0,0,0,0,0,1,0,triangle,hexagon,,,,,,,,,,,,,,,,,,,,,,,,,,,,,,,,,,,,,,,,,,,,,,,,,,,,,,
295099,2022-09-22_19h00.30.566,vts_reward_expectancy,2022.2.4,Win32,60.69802731,Chrome,1536,864,,,a,2.2473,10,630,2,2,2,26,10,1,0,0,0,1,0,1,0,0,star ,circle,,,,,,,,,,,,,,,,,,,,,,,,,,,,,,,,,,,,,,,,,,,,,,,,,,,,,,
295099,2022-09-22_19h00.30.566,vts_reward_expectancy,2022.2.4,Win32,60.69802731,Chrome,1536,864,,,l,2.2413,10,640,2,2,3,27,2,1,1,0,0,0,0,0,0,1,triangle,star,,,,,,,,,,,,,,,,,,,,,,,,,,,,,,,,,,,,,,,,,,,,,,,,,,,,,,
295099,2022-09-22_19h00.30.566,vts_reward_expectancy,2022.2.4,Win32,60.69802731,Chrome,1536,864,,,a,2.1814,10,650,2,2,4,28,5,1,0,1,0,0,0,0,0,1,circle,star,,,,,,,,,,,,,,,,,,,,,,,,,,,,,,,,,,,,,,,,,,,,,,,,,,,,,,
295099,2022-09-22_19h00.30.566,vts_reward_expectancy,2022.2.4,Win32,60.69802731,Chrome,1536,864,,,l,1.7482,10,660,2,2,5,29,7,1,0,0,1,0,0,1,0,0,hexagon,circle,,,,,,,,,,,,,,,,,,,,,,,,,,,,,,,,,,,,,,,,,,,,,,,,,,,,,,
295099,2022-09-22_19h00.30.566,vts_reward_expectancy,2022.2.4,Win32,60.69802731,Chrome,1536,864,,,l,3.5319,1,661,2,2,6,30,9,1,0,0,0,1,1,0,0,0,star,triangle,,,,,,,,,,,,,,,,,,,,,,,,,,,,,,,,,,,,,,,,,,,,,,,,,,,,,,
295099,2022-09-22_19h00.30.566,vts_reward_expectancy,2022.2.4,Win32,60.69802731,Chrome,1536,864,,,a,1.9069,1,662,2,2,7,31,4,1,0,1,0,0,0,0,1,0,circle,hexagon,,,,,,,,,,,,,,,,,,,,,,,,,,,,,,,,,,,,,,,,,,,,,,,,,,,,,,
295099,2022-09-22_19h00.30.566,vts_reward_expectancy,2022.2.4,Win32,60.69802731,Chrome,1536,864,,,l,0.9523,10,672,2,2,8,32,8,1,0,0,1,0,0,0,0,1,hexagon,star,,,,,,,,,,,,,,,,,,,,,,,,,,,,,,,,,,,,,,,,,,,,,,,,,,,,,,
295099,2022-09-22_19h00.30.566,vts_reward_expectancy,2022.2.4,Win32,60.69802731,Chrome,1536,864,,,a,2.6581,10,682,2,2,9,33,11,1,0,0,0,1,0,0,1,0,star,hexagon,,,,,,,,,,,,,,,,,,,,,,,,,,,,,,,,,,,,,,,,,,,,,,,,,,,,,,
295099,2022-09-22_19h00.30.566,vts_reward_expectancy,2022.2.4,Win32,60.69802731,Chrome,1536,864,,,l,1.2545,1,683,2,2,10,34,3,1,0,1,0,0,1,0,0,0,circle,triangle,,,,,,,,,,,,,,,,,,,,,,,,,,,,,,,,,,,,,,,,,,,,,,,,,,,,,,
295099,2022-09-22_19h00.30.566,vts_reward_expectancy,2022.2.4,Win32,60.69802731,Chrome,1536,864,,,a,2.6148,1,684,2,2,11,35,6,1,0,0,1,0,1,0,0,0,hexagon,triangle,,,,,,,,,,,,,,,,,,,,,,,,,,,,,,,,,,,,,,,,,,,,,,,,,,,,,,
295099,2022-09-22_19h00.30.566,vts_reward_expectancy,2022.2.4,Win32,60.69802731,Chrome,1536,864,,,,,,,,,,,,,,,,,,,,,,,U,174,triangle,1,0,f,1.426,0,0,0,0,0,1,,,,,,,,,,,,,,,,,,,,,,,,,,,,,,,,,,,,,,,,,
295099,2022-09-22_19h00.30.566,vts_reward_expectancy,2022.2.4,Win32,60.69802731,Chrome,1536,864,,,,,,,,,,,,,,,,,,,,,,,H,160,circle,1,0,d,0.9317,0,1,0,1,0,1,,,,,,,,,,,,,,,,,,,,,,,,,,,,,,,,,,,,,,,,,
295099,2022-09-22_19h00.30.566,vts_reward_expectancy,2022.2.4,Win32,60.69802731,Chrome,1536,864,,,,,,,,,,,,,,,,,,,,,,,S,146,hexagon,1,0,f,0.8183,0,2,0,2,0,1,,,,,,,,,,,,,,,,,,,,,,,,,,,,,,,,,,,,,,,,,
295099,2022-09-22_19h00.30.566,vts_reward_expectancy,2022.2.4,Win32,60.69802731,Chrome,1536,864,,,,,,,,,,,,,,,,,,,,,,,W,132,star,1,0,f,0.6584,0,3,0,3,0,1,,,,,,,,,,,,,,,,,,,,,,,,,,,,,,,,,,,,,,,,,
295099,2022-09-22_19h00.30.566,vts_reward_expectancy,2022.2.4,Win32,60.69802731,Chrome,1536,864,,,,,,,,,,,,,,,,,,,,,,,B,139,triangle,1,0,d,0.584,0,4,0,4,0,1,,,,,,,,,,,,,,,,,,,,,,,,,,,,,,,,,,,,,,,,,
295099,2022-09-22_19h00.30.566,vts_reward_expectancy,2022.2.4,Win32,60.69802731,Chrome,1536,864,,,,,,,,,,,,,,,,,,,,,,,Y,167,circle,1,0,f,0.5919,0,5,0,5,0,1,,,,,,,,,,,,,,,,,,,,,,,,,,,,,,,,,,,,,,,,,
295099,2022-09-22_19h00.30.566,vts_reward_expectancy,2022.2.4,Win32,60.69802731,Chrome,1536,864,,,,,,,,,,,,,,,,,,,,,,,D,125,hexagon,1,0,d,0.7094,0,6,0,6,0,1,,,,,,,,,,,,,,,,,,,,,,,,,,,,,,,,,,,,,,,,,
295099,2022-09-22_19h00.30.566,vts_reward_expectancy,2022.2.4,Win32,60.69802731,Chrome,1536,864,,,,,,,,,,,,,,,,,,,,,,,F,181,star,1,0,d,1.0623,0,7,0,7,0,1,,,,,,,,,,,,,,,,,,,,,,,,,,,,,,,,,,,,,,,,,
295099,2022-09-22_19h00.30.566,vts_reward_expectancy,2022.2.4,Win32,60.69802731,Chrome,1536,864,,,,,,,,,,,,,,,,,,,,,,,U,174,hexagon,1,0,f,0.616,0,8,0,8,0,1,,,,,,,,,,,,,,,,,,,,,,,,,,,,,,,,,,,,,,,,,
295099,2022-09-22_19h00.30.566,vts_reward_expectancy,2022.2.4,Win32,60.69802731,Chrome,1536,864,,,,,,,,,,,,,,,,,,,,,,,H,160,circle,1,0,d,0.7942,0,9,0,9,0,1,,,,,,,,,,,,,,,,,,,,,,,,,,,,,,,,,,,,,,,,,
295099,2022-09-22_19h00.30.566,vts_reward_expectancy,2022.2.4,Win32,60.69802731,Chrome,1536,864,,,,,,,,,,,,,,,,,,,,,,,S,181,star,1,0,,,1,,,,,,k,0.8581,0,0,0,0,1,,,,,,,,,,,,,,,,,,,,,,,,,,,,,,,,,,
295099,2022-09-22_19h00.30.566,vts_reward_expectancy,2022.2.4,Win32,60.69802731,Chrome,1536,864,,,,,,,,,,,,,,,,,,,,,,,W,174,triangle,1,0,,,1,,,,,,k,0.6176,1,0,1,0,1,,,,,,,,,,,,,,,,,,,,,,,,,,,,,,,,,,
295099,2022-09-22_19h00.30.566,vts_reward_expectancy,2022.2.4,Win32,60.69802731,Chrome,1536,864,,,,,,,,,,,,,,,,,,,,,,,H,132,hexagon,1,0,,,1,,,,,,j,0.449,2,0,2,0,1,,,,,,,,,,,,,,,,,,,,,,,,,,,,,,,,,,
295099,2022-09-22_19h00.30.566,vts_reward_expectancy,2022.2.4,Win32,60.69802731,Chrome,1536,864,,,,,,,,,,,,,,,,,,,,,,,U,139,circle,1,0,,,1,,,,,,j,0.6102,3,0,3,0,1,,,,,,,,,,,,,,,,,,,,,,,,,,,,,,,,,,
295099,2022-09-22_19h00.30.566,vts_reward_expectancy,2022.2.4,Win32,60.69802731,Chrome,1536,864,,,,,,,,,,,,,,,,,,,,,,,B,160,star,1,0,,,1,,,,,,k,0.733,4,0,4,0,1,,,,,,,,,,,,,,,,,,,,,,,,,,,,,,,,,,
295099,2022-09-22_19h00.30.566,vts_reward_expectancy,2022.2.4,Win32,60.69802731,Chrome,1536,864,,,,,,,,,,,,,,,,,,,,,,,Y,167,triangle,1,0,,,1,,,,,,k,0.6099,5,0,5,0,1,,,,,,,,,,,,,,,,,,,,,,,,,,,,,,,,,,
295099,2022-09-22_19h00.30.566,vts_reward_expectancy,2022.2.4,Win32,60.69802731,Chrome,1536,864,,,,,,,,,,,,,,,,,,,,,,,F,125,hexagon,1,0,,,1,,,,,,j,0.5769,6,0,6,0,1,,,,,,,,,,,,,,,,,,,,,,,,,,,,,,,,,,
295099,2022-09-22_19h00.30.566,vts_reward_expectancy,2022.2.4,Win32,60.69802731,Chrome,1536,864,,,,,,,,,,,,,,,,,,,,,,,D,146,circle,1,0,,,1,,,,,,j,0.6433,7,0,7,0,1,,,,,,,,,,,,,,,,,,,,,,,,,,,,,,,,,,
295099,2022-09-22_19h00.30.566,vts_reward_expectancy,2022.2.4,Win32,60.69802731,Chrome,1536,864,,,,,,,,,,,,,,,,,,,,,,,S,181,hexagon,1,0,,,1,,,,,,k,0.5526,8,0,8,0,1,,,,,,,,,,,,,,,,,,,,,,,,,,,,,,,,,,
295099,2022-09-22_19h00.30.566,vts_reward_expectancy,2022.2.4,Win32,60.69802731,Chrome,1536,864,,,,,,,,,,,,,,,,,,,,,,,W,174,circle,1,0,,,1,,,,,,k,0.7753,9,0,9,0,1,,,,,,,,,,,,,,,,,,,,,,,,,,,,,,,,,,
295099,2022-09-22_19h00.30.566,vts_reward_expectancy,2022.2.4,Win32,60.69802731,Chrome,1536,864,,,,,0,684,,,,,,,,,,,,,,,,,H,174,circle,1,0,,,2,,,,,,,,,,,,,-1,letter,NA,d,2.5932,vtsPrac,0,0,0,0,1,,,,,,,,,,,,,,,,,,,,,,,
295099,2022-09-22_19h00.30.566,vts_reward_expectancy,2022.2.4,Win32,60.69802731,Chrome,1536,864,,,,,0,684,,,,,,,,,,,,,,,,,S,146,hexagon,1,0,,,2,,,,,,,,,,,,,repeat,letter,lettRpt,f,1.6452,vtsPrac,1,0,1,0,1,,,,,,,,,,,,,,,,,,,,,,,
295099,2022-09-22_19h00.30.566,vts_reward_expectancy,2022.2.4,Win32,60.69802731,Chrome,1536,864,,,,,0,684,,,,,,,,,,,,,,,,,D,125,circle,1,0,,,2,,,,,,,,,,,,,switch,number,numSwt,j,0.8636,vtsPrac,2,0,2,0,1,,,,,,,,,,,,,,,,,,,,,,,
295099,2022-09-22_19h00.30.566,vts_reward_expectancy,2022.2.4,Win32,60.69802731,Chrome,1536,864,,,,,0,684,,,,,,,,,,,,,,,,,B,160,hexagon,1,0,,,2,,,,,,,,,,,,,repeat,number,numRpt,k,1.71,vtsPrac,3,0,3,0,1,,,,,,,,,,,,,,,,,,,,,,,
295099,2022-09-22_19h00.30.566,vts_reward_expectancy,2022.2.4,Win32,60.69802731,Chrome,1536,864,,,,,0,684,,,,,,,,,,,,,,,,,H,174,triangle,1,0,,,2,,,,,,,,,,,,,repeat,number,numRpt,k,0.607,vtsPrac,4,0,4,0,1,,,,,,,,,,,,,,,,,,,,,,,
295099,2022-09-22_19h00.30.566,vts_reward_expectancy,2022.2.4,Win32,60.69802731,Chrome,1536,864,,,,,0,684,,,,,,,,,,,,,,,,,S,146,hexagon,1,0,,,2,,,,,,,,,,,,,repeat,number,numRpt,j,1.8088,vtsPrac,5,0,5,0,1,,,,,,,,,,,,,,,,,,,,,,,
295099,2022-09-22_19h00.30.566,vts_reward_expectancy,2022.2.4,Win32,60.69802731,Chrome,1536,864,,,,,0,684,,,,,,,,,,,,,,,,,D,125,triangle,1,0,,,2,,,,,,,,,,,,,switch,letter,lettSwt,d,0.7669,vtsPrac,6,0,6,0,1,,,,,,,,,,,,,,,,,,,,,,,
295099,2022-09-22_19h00.30.566,vts_reward_expectancy,2022.2.4,Win32,60.69802731,Chrome,1536,864,,,,,0,684,,,,,,,,,,,,,,,,,B,160,hexagon,1,0,,,2,,,,,,,,,,,,,switch,number,numSwt,k,0.6106,vtsPrac,7,0,7,0,1,,,,,,,,,,,,,,,,,,,,,,,
295099,2022-09-22_19h00.30.566,vts_reward_expectancy,2022.2.4,Win32,60.69802731,Chrome,1536,864,,,,,0,684,,,,,,,,,,,,,,,,,F,174,circle,1,0,,,2,,,,,,,,,,,,,switch,letter,lettSwt,d,0.7845,vtsPrac,8,0,8,0,1,,,,,,,,,,,,,,,,,,,,,,,
295099,2022-09-22_19h00.30.566,vts_reward_expectancy,2022.2.4,Win32,60.69802731,Chrome,1536,864,,,,,0,684,,,,,,,,,,,,,,,,,D,125,triangle,1,0,,,2,,,,,,,,,,,,,repeat,letter,lettRpt,d,0.5931,vtsPrac,9,0,9,0,1,,,,,,,,,,,,,,,,,,,,,,,
295099,2022-09-22_19h00.30.566,vts_reward_expectancy,2022.2.4,Win32,60.69802731,Chrome,1536,864,,,,,0,684,,,,,,,,,,,,,,,,,U,181,hexagon,1,0,,,2,,,,,,,,,,,,,repeat,letter,lettRpt,f,0.564,vtsPrac,10,0,10,0,1,,,,,,,,,,,,,,,,,,,,,,,
295099,2022-09-22_19h00.30.566,vts_reward_expectancy,2022.2.4,Win32,60.69802731,Chrome,1536,864,,,,,0,684,,,,,,,,,,,,,,,,,Y,132,circle,1,0,,,2,,,,,,,,,,,,,repeat,letter,lettRpt,f,0.5503,vtsPrac,11,0,11,0,1,,,,,,,,,,,,,,,,,,,,,,,
295099,2022-09-22_19h00.30.566,vts_reward_expectancy,2022.2.4,Win32,60.69802731,Chrome,1536,864,,,,,0,684,,,,,,,,,,,,,,,,,F,139,star,1,0,,,2,,,,,,,,,,,,,switch,number,numSwt,j,0.564,vtsPrac,12,0,12,0,1,,,,,,,,,,,,,,,,,,,,,,,
295099,2022-09-22_19h00.30.566,vts_reward_expectancy,2022.2.4,Win32,60.69802731,Chrome,1536,864,,,,,0,684,,,,,,,,,,,,,,,,,S,160,circle,1,0,,,2,,,,,,,,,,,,,repeat,number,numRpt,k,0.6247,vtsPrac,13,0,13,0,1,,,,,,,,,,,,,,,,,,,,,,,
295099,2022-09-22_19h00.30.566,vts_reward_expectancy,2022.2.4,Win32,60.69802731,Chrome,1536,864,,,,,0,684,,,,,,,,,,,,,,,,,U,174,triangle,1,0,,,2,,,,,,,,,,,,,switch,letter,lettSwt,f,0.6615,vtsPrac,14,0,14,0,1,,,,,,,,,,,,,,,,,,,,,,,
295099,2022-09-22_19h00.30.566,vts_reward_expectancy,2022.2.4,Win32,60.69802731,Chrome,1536,864,,,,,0,684,,,,,,,,,,,,,,,,,Y,146,circle,1,0,,,2,,,,,,,,,,,,,repeat,letter,lettRpt,f,0.5153,vtsPrac,15,0,15,0,1,,,,,,,,,,,,,,,,,,,,,,,
295099,2022-09-22_19h00.30.566,vts_reward_expectancy,2022.2.4,Win32,60.69802731,Chrome,1536,864,,,,,,,,,,,,,,,,,,,,,,,,,,,,,,,,,,,,,,,,,,,,,,,,,,,,,,,,,,,,,,,,,,,,,,,,,,,,
295099,2022-09-22_19h00.30.566,vts_reward_expectancy,2022.2.4,Win32,60.69802731,Chrome,1536,864,,,,,,,,,,,,,,,,,,,,,,,,,,,,,,,,,,,,,,,,,,,,,,,,,,,,,,,,,,,,,,,,,,,,,,,,,,,,
295099,2022-09-22_19h00.30.566,vts_reward_expectancy,2022.2.4,Win32,60.69802731,Chrome,1536,864,,,,,0,684,,,,,,,,,,,,,,,,,U,146,hexagon,1,0,,,,,,,,,,,,,,,,repeat,letter,lettRpt,f,0.5543,noRew,,,,,,0,0,0,0,0,1,,,,,,,,,,,,,,,,,
295099,2022-09-22_19h00.30.566,vts_reward_expectancy,2022.2.4,Win32,60.69802731,Chrome,1536,864,,,,,0,684,,,,,,,,,,,,,,,,,S,174,star,1,0,,,,,,,,,,,,,,,,repeat,letter,lettRpt,f,0.5932,noRew,,,,,,0,1,0,1,0,1,,,,,,,,,,,,,,,,,
295099,2022-09-22_19h00.30.566,vts_reward_expectancy,2022.2.4,Win32,60.69802731,Chrome,1536,864,,,,,0,684,,,,,,,,,,,,,,,,,H,160,hexagon,1,0,,,,,,,,,,,,,,,,repeat,letter,lettRpt,d,0.8087,noRew,,,,,,0,2,0,2,0,1,,,,,,,,,,,,,,,,,
295099,2022-09-22_19h00.30.566,vts_reward_expectancy,2022.2.4,Win32,60.69802731,Chrome,1536,864,,,,,0,684,,,,,,,,,,,,,,,,,F,181,star,1,0,,,,,,,,,,,,,,,,repeat,letter,lettRpt,d,1.0587,noRew,,,,,,0,3,0,3,0,1,,,,,,,,,,,,,,,,,
295099,2022-09-22_19h00.30.566,vts_reward_expectancy,2022.2.4,Win32,60.69802731,Chrome,1536,864,,,,,0,684,,,,,,,,,,,,,,,,,U,146,triangle,1,0,,,,,,,,,,,,,,,,switch,number,numSwt,j,0.7583,noRew,,,,,,0,4,0,4,0,1,,,,,,,,,,,,,,,,,
295099,2022-09-22_19h00.30.566,vts_reward_expectancy,2022.2.4,Win32,60.69802731,Chrome,1536,864,,,,,0,684,,,,,,,,,,,,,,,,,S,174,circle,1,0,,,,,,,,,,,,,,,,repeat,number,numRpt,k,0.5948,noRew,,,,,,0,5,0,5,0,1,,,,,,,,,,,,,,,,,
295099,2022-09-22_19h00.30.566,vts_reward_expectancy,2022.2.4,Win32,60.69802731,Chrome,1536,864,,,,,0,684,,,,,,,,,,,,,,,,,H,160,hexagon,1,0,,,,,,,,,,,,,,,,switch,letter,lettSwt,d,0.9428,noRew,,,,,,0,6,0,6,0,1,,,,,,,,,,,,,,,,,
295099,2022-09-22_19h00.30.566,vts_reward_expectancy,2022.2.4,Win32,60.69802731,Chrome,1536,864,,,,,0,684,,,,,,,,,,,,,,,,,F,181,triangle,1,0,,,,,,,,,,,,,,,,switch,number,numSwt,k,0.6197,noRew,,,,,,0,7,0,7,0,1,,,,,,,,,,,,,,,,,
295099,2022-09-22_19h00.30.566,vts_reward_expectancy,2022.2.4,Win32,60.69802731,Chrome,1536,864,,,,,0,684,,,,,,,,,,,,,,,,,Y,146,triangle,1,0,,,,,,,,,,,,,,,,repeat,number,numRpt,j,0.7096,noRew,,,,,,0,8,0,8,0,1,,,,,,,,,,,,,,,,,
295099,2022-09-22_19h00.30.566,vts_reward_expectancy,2022.2.4,Win32,60.69802731,Chrome,1536,864,,,,,0,684,,,,,,,,,,,,,,,,,S,167,hexagon,1,0,,,,,,,,,,,,,,,,repeat,number,numRpt,k,0.6839,noRew,,,,,,0,9,0,9,0,1,,,,,,,,,,,,,,,,,
295099,2022-09-22_19h00.30.566,vts_reward_expectancy,2022.2.4,Win32,60.69802731,Chrome,1536,864,,,,,0,684,,,,,,,,,,,,,,,,,D,132,triangle,1,0,,,,,,,,,,,,,,,,repeat,number,numRpt,j,0.5412,noRew,,,,,,0,10,0,10,0,1,,,,,,,,,,,,,,,,,
295099,2022-09-22_19h00.30.566,vts_reward_expectancy,2022.2.4,Win32,60.69802731,Chrome,1536,864,,,,,0,684,,,,,,,,,,,,,,,,,U,181,star,1,0,,,,,,,,,,,,,,,,repeat,number,numRpt,k,0.6952,noRew,,,,,,0,11,0,11,0,1,,,,,,,,,,,,,,,,,
295099,2022-09-22_19h00.30.566,vts_reward_expectancy,2022.2.4,Win32,60.69802731,Chrome,1536,864,,,,,0,684,,,,,,,,,,,,,,,,,W,160,circle,1,0,,,,,,,,,,,,,,,,switch,letter,lettSwt,f,0.5297,noRew,,,,,,0,12,0,12,0,1,,,,,,,,,,,,,,,,,
295099,2022-09-22_19h00.30.566,vts_reward_expectancy,2022.2.4,Win32,60.69802731,Chrome,1536,864,,,,,0,684,,,,,,,,,,,,,,,,,F,146,hexagon,1,0,,,,,,,,,,,,,,,,switch,number,numSwt,j,0.668,noRew,,,,,,0,13,0,13,0,1,,,,,,,,,,,,,,,,,
295099,2022-09-22_19h00.30.566,vts_reward_expectancy,2022.2.4,Win32,60.69802731,Chrome,1536,864,,,,,0,684,,,,,,,,,,,,,,,,,U,132,circle,1,0,,,,,,,,,,,,,,,,switch,letter,lettSwt,f,0.6278,noRew,,,,,,0,14,0,14,0,1,,,,,,,,,,,,,,,,,
295099,2022-09-22_19h00.30.566,vts_reward_expectancy,2022.2.4,Win32,60.69802731,Chrome,1536,864,,,,,0,684,,,,,,,,,,,,,,,,,D,125,hexagon,1,0,,,,,,,,,,,,,,,,repeat,letter,lettRpt,d,0.7429,noRew,,,,,,0,15,0,15,0,1,,,,,,,,,,,,,,,,,
295099,2022-09-22_19h00.30.566,vts_reward_expectancy,2022.2.4,Win32,60.69802731,Chrome,1536,864,,,,,0,684,,,,,,,,,,,,,,,,,S,174,triangle,1,0,,,,,,,,,,,,,,,,switch,number,numSwt,k,0.5644,noRew,,,,,,0,16,0,16,0,1,,,,,,,,,,,,,,,,,
295099,2022-09-22_19h00.30.566,vts_reward_expectancy,2022.2.4,Win32,60.69802731,Chrome,1536,864,,,,,0,684,,,,,,,,,,,,,,,,,F,132,hexagon,1,0,,,,,,,,,,,,,,,,repeat,number,numRpt,j,0.7854,noRew,,,,,,0,17,0,17,0,1,,,,,,,,,,,,,,,,,
295099,2022-09-22_19h00.30.566,vts_reward_expectancy,2022.2.4,Win32,60.69802731,Chrome,1536,864,,,,,0,684,,,,,,,,,,,,,,,,,U,181,hexagon,1,0,,,,,,,,,,,,,,,,repeat,number,numRpt,k,0.6492,noRew,,,,,,0,18,0,18,0,1,,,,,,,,,,,,,,,,,
295099,2022-09-22_19h00.30.566,vts_reward_expectancy,2022.2.4,Win32,60.69802731,Chrome,1536,864,,,,,0,684,,,,,,,,,,,,,,,,,Y,167,triangle,1,0,,,,,,,,,,,,,,,,repeat,number,numRpt,k,1.0632,noRew,,,,,,0,19,0,19,0,1,,,,,,,,,,,,,,,,,
295099,2022-09-22_19h00.30.566,vts_reward_expectancy,2022.2.4,Win32,60.69802731,Chrome,1536,864,,,,,0,684,,,,,,,,,,,,,,,,,H,146,triangle,1,0,,,,,,,,,,,,,,,,repeat,number,numRpt,j,0.8092,noRew,,,,,,0,20,0,20,0,1,,,,,,,,,,,,,,,,,
295099,2022-09-22_19h00.30.566,vts_reward_expectancy,2022.2.4,Win32,60.69802731,Chrome,1536,864,,,,,0,684,,,,,,,,,,,,,,,,,F,181,star,1,0,,,,,,,,,,,,,,,,repeat,number,numRpt,k,0.6597,noRew,,,,,,0,21,0,21,0,1,,,,,,,,,,,,,,,,,
295099,2022-09-22_19h00.30.566,vts_reward_expectancy,2022.2.4,Win32,60.69802731,Chrome,1536,864,,,,,0,684,,,,,,,,,,,,,,,,,D,132,hexagon,1,0,,,,,,,,,,,,,,,,switch,letter,lettSwt,d,0.831,noRew,,,,,,0,22,0,22,0,1,,,,,,,,,,,,,,,,,
295099,2022-09-22_19h00.30.566,vts_reward_expectancy,2022.2.4,Win32,60.69802731,Chrome,1536,864,,,,,0,684,,,,,,,,,,,,,,,,,W,125,circle,1,0,,,,,,,,,,,,,,,,repeat,letter,lettRpt,f,0.6986,noRew,,,,,,0,23,0,23,0,1,,,,,,,,,,,,,,,,,
295099,2022-09-22_19h00.30.566,vts_reward_expectancy,2022.2.4,Win32,60.69802731,Chrome,1536,864,,,,,0,684,,,,,,,,,,,,,,,,,D,160,circle,1,0,,,,,,,,,,,,,,,,repeat,letter,lettRpt,d,0.7082,noRew,,,,,,0,24,0,24,0,1,,,,,,,,,,,,,,,,,
295099,2022-09-22_19h00.30.566,vts_reward_expectancy,2022.2.4,Win32,60.69802731,Chrome,1536,864,,,,,0,684,,,,,,,,,,,,,,,,,B,167,hexagon,1,0,,,,,,,,,,,,,,,,switch,number,numSwt,k,0.6427,noRew,,,,,,0,25,0,25,0,1,,,,,,,,,,,,,,,,,
295099,2022-09-22_19h00.30.566,vts_reward_expectancy,2022.2.4,Win32,60.69802731,Chrome,1536,864,,,,,0,684,,,,,,,,,,,,,,,,,H,174,triangle,1,0,,,,,,,,,,,,,,,,repeat,number,numRpt,k,0.6013,noRew,,,,,,0,26,0,26,0,1,,,,,,,,,,,,,,,,,
295099,2022-09-22_19h00.30.566,vts_reward_expectancy,2022.2.4,Win32,60.69802731,Chrome,1536,864,,,,,0,684,,,,,,,,,,,,,,,,,S,181,hexagon,1,0,,,,,,,,,,,,,,,,switch,letter,lettSwt,f,0.8182,noRew,,,,,,0,27,0,27,0,1,,,,,,,,,,,,,,,,,
295099,2022-09-22_19h00.30.566,vts_reward_expectancy,2022.2.4,Win32,60.69802731,Chrome,1536,864,,,,,0,684,,,,,,,,,,,,,,,,,F,139,circle,1,0,,,,,,,,,,,,,,,,repeat,letter,lettRpt,d,0.8321,noRew,,,,,,0,28,0,28,0,1,,,,,,,,,,,,,,,,,
295099,2022-09-22_19h00.30.566,vts_reward_expectancy,2022.2.4,Win32,60.69802731,Chrome,1536,864,,,,,0,684,,,,,,,,,,,,,,,,,D,167,triangle,1,0,,,,,,,,,,,,,,,,repeat,letter,lettRpt,d,0.5968,noRew,,,,,,0,29,0,29,0,1,,,,,,,,,,,,,,,,,
295099,2022-09-22_19h00.30.566,vts_reward_expectancy,2022.2.4,Win32,60.69802731,Chrome,1536,864,,,,,0,684,,,,,,,,,,,,,,,,,Y,125,circle,1,0,,,,,,,,,,,,,,,,repeat,letter,lettRpt,f,0.6346,noRew,,,,,,0,30,0,30,0,1,,,,,,,,,,,,,,,,,
295099,2022-09-22_19h00.30.566,vts_reward_expectancy,2022.2.4,Win32,60.69802731,Chrome,1536,864,,,,,0,684,,,,,,,,,,,,,,,,,S,174,star,1,0,,,,,,,,,,,,,,,,switch,number,numSwt,k,0.826,noRew,,,,,,0,31,0,31,0,1,,,,,,,,,,,,,,,,,
295099,2022-09-22_19h00.30.566,vts_reward_expectancy,2022.2.4,Win32,60.69802731,Chrome,1536,864,,,,,0,684,,,,,,,,,,,,,,,,,Y,160,circle,1,0,,,,,,,,,,,,,,,,repeat,number,numRpt,k,0.6478,noRew,,,,,,0,32,0,32,0,1,,,,,,,,,,,,,,,,,
295099,2022-09-22_19h00.30.566,vts_reward_expectancy,2022.2.4,Win32,60.69802731,Chrome,1536,864,,,,,0,684,,,,,,,,,,,,,,,,,U,181,hexagon,1,0,,,,,,,,,,,,,,,,repeat,number,numRpt,k,0.6269,noRew,,,,,,0,33,0,33,0,1,,,,,,,,,,,,,,,,,
295099,2022-09-22_19h00.30.566,vts_reward_expectancy,2022.2.4,Win32,60.69802731,Chrome,1536,864,,,,,0,684,,,,,,,,,,,,,,,,,B,146,triangle,1,0,,,,,,,,,,,,,,,,repeat,number,numRpt,j,0.8606,noRew,,,,,,0,34,0,34,0,1,,,,,,,,,,,,,,,,,
295099,2022-09-22_19h00.30.566,vts_reward_expectancy,2022.2.4,Win32,60.69802731,Chrome,1536,864,,,,,0,684,,,,,,,,,,,,,,,,,S,167,star,1,0,,,,,,,,,,,,,,,,repeat,number,numRpt,k,0.8092,noRew,,,,,,0,35,0,35,0,1,,,,,,,,,,,,,,,,,
295099,2022-09-22_19h00.30.566,vts_reward_expectancy,2022.2.4,Win32,60.69802731,Chrome,1536,864,,,,,0,684,,,,,,,,,,,,,,,,,U,125,circle,1,0,,,,,,,,,,,,,,,,switch,letter,lettSwt,f,0.6401,noRew,,,,,,0,36,0,36,0,1,,,,,,,,,,,,,,,,,
295099,2022-09-22_19h00.30.566,vts_reward_expectancy,2022.2.4,Win32,60.69802731,Chrome,1536,864,,,,,0,684,,,,,,,,,,,,,,,,,H,181,star,1,0,,,,,,,,,,,,,,,,switch,number,numSwt,k,0.7471,noRew,,,,,,0,37,0,37,0,1,,,,,,,,,,,,,,,,,
295099,2022-09-22_19h00.30.566,vts_reward_expectancy,2022.2.4,Win32,60.69802731,Chrome,1536,864,,,,,0,684,,,,,,,,,,,,,,,,,B,167,star,1,0,,,,,,,,,,,,,,,,switch,letter,lettSwt,d,0.4758,noRew,,,,,,0,38,0,38,0,1,,,,,,,,,,,,,,,,,
295099,2022-09-22_19h00.30.566,vts_reward_expectancy,2022.2.4,Win32,60.69802731,Chrome,1536,864,,,,,0,684,,,,,,,,,,,,,,,,,Y,174,triangle,1,0,,,,,,,,,,,,,,,,repeat,letter,lettRpt,f,0.7168,noRew,,,,,,0,39,0,39,0,1,,,,,,,,,,,,,,,,,
295099,2022-09-22_19h00.30.566,vts_reward_expectancy,2022.2.4,Win32,60.69802731,Chrome,1536,864,,,,,0,684,,,,,,,,,,,,,,,,,W,139,star,1,0,,,,,,,,,,,,,,,,repeat,letter,lettRpt,f,0.6598,noRew,,,,,,0,40,0,40,0,1,,,,,,,,,,,,,,,,,
295099,2022-09-22_19h00.30.566,vts_reward_expectancy,2022.2.4,Win32,60.69802731,Chrome,1536,864,,,,,0,684,,,,,,,,,,,,,,,,,B,146,circle,1,0,,,,,,,,,,,,,,,,repeat,letter,lettRpt,d,0.5681,noRew,,,,,,0,41,0,41,0,1,,,,,,,,,,,,,,,,,
295099,2022-09-22_19h00.30.566,vts_reward_expectancy,2022.2.4,Win32,60.69802731,Chrome,1536,864,,,,,0,684,,,,,,,,,,,,,,,,,U,181,circle,1,0,,,,,,,,,,,,,,,,repeat,letter,lettRpt,f,0.6014,noRew,,,,,,0,42,0,42,0,1,,,,,,,,,,,,,,,,,
295099,2022-09-22_19h00.30.566,vts_reward_expectancy,2022.2.4,Win32,60.69802731,Chrome,1536,864,,,,,0,684,,,,,,,,,,,,,,,,,D,160,triangle,1,0,,,,,,,,,,,,,,,,switch,number,numSwt,k,0.8001,noRew,,,,,,0,43,0,43,0,1,,,,,,,,,,,,,,,,,
295099,2022-09-22_19h00.30.566,vts_reward_expectancy,2022.2.4,Win32,60.69802731,Chrome,1536,864,,,,,0,684,,,,,,,,,,,,,,,,,H,174,triangle,1,0,,,,,,,,,,,,,,,,repeat,number,numRpt,k,0.5323,noRew,,,,,,0,44,0,44,0,1,,,,,,,,,,,,,,,,,
295099,2022-09-22_19h00.30.566,vts_reward_expectancy,2022.2.4,Win32,60.69802731,Chrome,1536,864,,,,,0,684,,,,,,,,,,,,,,,,,S,181,hexagon,1,0,,,,,,,,,,,,,,,,repeat,number,numRpt,k,0.5125,noRew,,,,,,0,45,0,45,0,1,,,,,,,,,,,,,,,,,
295099,2022-09-22_19h00.30.566,vts_reward_expectancy,2022.2.4,Win32,60.69802731,Chrome,1536,864,,,,,0,684,,,,,,,,,,,,,,,,,U,160,triangle,1,0,,,,,,,,,,,,,,,,repeat,number,numRpt,k,0.728,noRew,,,,,,0,46,0,46,0,1,,,,,,,,,,,,,,,,,
295099,2022-09-22_19h00.30.566,vts_reward_expectancy,2022.2.4,Win32,60.69802731,Chrome,1536,864,,,,,0,684,,,,,,,,,,,,,,,,,Y,132,hexagon,1,0,,,,,,,,,,,,,,,,switch,letter,lettSwt,f,0.5686,noRew,,,,,,0,47,0,47,0,1,,,,,,,,,,,,,,,,,
295099,2022-09-22_19h00.30.566,vts_reward_expectancy,2022.2.4,Win32,60.69802731,Chrome,1536,864,,,,,0,684,,,,,,,,,,,,,,,,,B,146,triangle,1,0,,,,,,,,,,,,,,,,repeat,letter,lettRpt,d,0.4591,noRew,,,,,,0,48,0,48,0,1,,,,,,,,,,,,,,,,,
295099,2022-09-22_19h00.30.566,vts_reward_expectancy,2022.2.4,Win32,60.69802731,Chrome,1536,864,,,,,0,684,,,,,,,,,,,,,,,,,D,139,hexagon,1,0,,,,,,,,,,,,,,,,switch,number,numSwt,j,0.5793,noRew,,,,,,0,49,0,49,0,1,,,,,,,,,,,,,,,,,
295099,2022-09-22_19h00.30.566,vts_reward_expectancy,2022.2.4,Win32,60.69802731,Chrome,1536,864,,,,,0,684,,,,,,,,,,,,,,,,,S,132,hexagon,1,0,,,,,,,,,,,,,,,,switch,letter,lettSwt,f,0.7092,noRew,,,,,,0,50,0,50,0,1,,,,,,,,,,,,,,,,,
295099,2022-09-22_19h00.30.566,vts_reward_expectancy,2022.2.4,Win32,60.69802731,Chrome,1536,864,,,,,0,684,,,,,,,,,,,,,,,,,U,167,star,1,0,,,,,,,,,,,,,,,,repeat,letter,lettRpt,f,0.66,noRew,,,,,,0,51,0,51,0,1,,,,,,,,,,,,,,,,,
295099,2022-09-22_19h00.30.566,vts_reward_expectancy,2022.2.4,Win32,60.69802731,Chrome,1536,864,,,,,0,684,,,,,,,,,,,,,,,,,D,146,hexagon,1,0,,,,,,,,,,,,,,,,repeat,letter,lettRpt,d,0.5924,noRew,,,,,,0,52,0,52,0,1,,,,,,,,,,,,,,,,,
295099,2022-09-22_19h00.30.566,vts_reward_expectancy,2022.2.4,Win32,60.69802731,Chrome,1536,864,,,,,0,684,,,,,,,,,,,,,,,,,U,167,triangle,1,0,,,,,,,,,,,,,,,,repeat,letter,lettRpt,f,0.6305,noRew,,,,,,0,53,0,53,0,1,,,,,,,,,,,,,,,,,
295099,2022-09-22_19h00.30.566,vts_reward_expectancy,2022.2.4,Win32,60.69802731,Chrome,1536,864,,,,,0,684,,,,,,,,,,,,,,,,,H,181,hexagon,1,0,,,,,,,,,,,,,,,,switch,number,numSwt,k,0.6682,noRew,,,,,,0,54,0,54,0,1,,,,,,,,,,,,,,,,,
295099,2022-09-22_19h00.30.566,vts_reward_expectancy,2022.2.4,Win32,60.69802731,Chrome,1536,864,,,,,0,684,,,,,,,,,,,,,,,,,Y,139,circle,1,0,,,,,,,,,,,,,,,,repeat,number,numRpt,j,0.5916,noRew,,,,,,0,55,0,55,0,1,,,,,,,,,,,,,,,,,
295099,2022-09-22_19h00.30.566,vts_reward_expectancy,2022.2.4,Win32,60.69802731,Chrome,1536,864,,,,,0,684,,,,,,,,,,,,,,,,,S,167,star,1,0,,,,,,,,,,,,,,,,repeat,number,numRpt,k,0.5917,noRew,,,,,,0,56,0,56,0,1,,,,,,,,,,,,,,,,,
295099,2022-09-22_19h00.30.566,vts_reward_expectancy,2022.2.4,Win32,60.69802731,Chrome,1536,864,,,,,0,684,,,,,,,,,,,,,,,,,Y,181,triangle,1,0,,,,,,,,,,,,,,,,repeat,number,numRpt,k,0.5107,noRew,,,,,,0,57,0,57,0,1,,,,,,,,,,,,,,,,,
295099,2022-09-22_19h00.30.566,vts_reward_expectancy,2022.2.4,Win32,60.69802731,Chrome,1536,864,,,,,0,684,,,,,,,,,,,,,,,,,W,174,star,1,0,,,,,,,,,,,,,,,,repeat,number,numRpt,k,0.519,noRew,,,,,,0,58,0,58,0,1,,,,,,,,,,,,,,,,,
295099,2022-09-22_19h00.30.566,vts_reward_expectancy,2022.2.4,Win32,60.69802731,Chrome,1536,864,,,,,0,684,,,,,,,,,,,,,,,,,U,132,circle,1,0,,,,,,,,,,,,,,,,repeat,number,numRpt,j,0.6826,noRew,,,,,,0,59,0,59,0,1,,,,,,,,,,,,,,,,,
295099,2022-09-22_19h00.30.566,vts_reward_expectancy,2022.2.4,Win32,60.69802731,Chrome,1536,864,,,,,0,684,,,,,,,,,,,,,,,,,D,132,triangle,1,0,,,,,,,,,,,,,,,,repeat,number,numRpt,j,0.8462,noRew,,,,,,0,60,0,60,0,1,,,,,,,,,,,,,,,,,
295099,2022-09-22_19h00.30.566,vts_reward_expectancy,2022.2.4,Win32,60.69802731,Chrome,1536,864,,,,,0,684,,,,,,,,,,,,,,,,,S,181,circle,1,0,,,,,,,,,,,,,,,,repeat,number,numRpt,k,0.5274,noRew,,,,,,0,61,0,61,0,1,,,,,,,,,,,,,,,,,
295099,2022-09-22_19h00.30.566,vts_reward_expectancy,2022.2.4,Win32,60.69802731,Chrome,1536,864,,,,,0,684,,,,,,,,,,,,,,,,,H,125,hexagon,1,0,,,,,,,,,,,,,,,,repeat,number,numRpt,j,0.601,noRew,,,,,,0,62,0,62,0,1,,,,,,,,,,,,,,,,,
295099,2022-09-22_19h00.30.566,vts_reward_expectancy,2022.2.4,Win32,60.69802731,Chrome,1536,864,,,,,0,684,,,,,,,,,,,,,,,,,Y,167,star,1,0,,,,,,,,,,,,,,,,switch,letter,lettSwt,f,0.616,noRew,,,,,,0,63,0,63,0,1,,,,,,,,,,,,,,,,,
295099,2022-09-22_19h00.30.566,vts_reward_expectancy,2022.2.4,Win32,60.69802731,Chrome,1536,864,,,,,,,,,,,,,,,,,,,,,,,,,,,,,,,,,,,,,,,,,,,,,,,,,,,,,,,,,,,,,,,,,,,,,,,,,,,,
295099,2022-09-22_19h00.30.566,vts_reward_expectancy,2022.2.4,Win32,60.69802731,Chrome,1536,864,,,,,0,684,,,,,,,,,,,,,,,,,S,139,circle,1,0,,,,,,,,,,,,,,,,repeat,letter,lettRpt,f,0.9755,Hi,,,,,,0,,,,,,space,4.9794,low,0,0,0,0,1,,,,,,,,,
295099,2022-09-22_19h00.30.566,vts_reward_expectancy,2022.2.4,Win32,60.69802731,Chrome,1536,864,,,,,1,685,,,,,,,,,,,,,,,,,H,174,hexagon,1,0,,,,,,,,,,,,,,,,switch,number,numSwt,k,0.5138,Lo,,,,,,0,,,,,,,,low,1,0,1,0,1,,,,,,,,,
295099,2022-09-22_19h00.30.566,vts_reward_expectancy,2022.2.4,Win32,60.69802731,Chrome,1536,864,,,,,1,686,,,,,,,,,,,,,,,,,W,125,circle,1,0,,,,,,,,,,,,,,,,repeat,number,numRpt,j,0.5773,Hi,,,,,,0,,,,,,,,low,2,0,2,0,1,,,,,,,,,
295099,2022-09-22_19h00.30.566,vts_reward_expectancy,2022.2.4,Win32,60.69802731,Chrome,1536,864,,,,,10,696,,,,,,,,,,,,,,,,,U,132,hexagon,1,0,,,,,,,,,,,,,,,,switch,letter,lettSwt,f,0.4833,Lo,,,,,,0,,,,,,,,low,3,0,3,0,1,,,,,,,,,
295099,2022-09-22_19h00.30.566,vts_reward_expectancy,2022.2.4,Win32,60.69802731,Chrome,1536,864,,,,,1,697,,,,,,,,,,,,,,,,,D,146,circle,1,0,,,,,,,,,,,,,,,,repeat,letter,lettRpt,d,0.5698,Hi,,,,,,0,,,,,,,,low,4,0,4,0,1,,,,,,,,,
295099,2022-09-22_19h00.30.566,vts_reward_expectancy,2022.2.4,Win32,60.69802731,Chrome,1536,864,,,,,10,707,,,,,,,,,,,,,,,,,F,181,hexagon,1,0,,,,,,,,,,,,,,,,repeat,letter,lettRpt,d,0.4914,Lo,,,,,,0,,,,,,,,low,5,0,5,0,1,,,,,,,,,
295099,2022-09-22_19h00.30.566,vts_reward_expectancy,2022.2.4,Win32,60.69802731,Chrome,1536,864,,,,,10,717,,,,,,,,,,,,,,,,,B,167,hexagon,1,0,,,,,,,,,,,,,,,,repeat,letter,lettRpt,d,0.4956,Lo,,,,,,0,,,,,,,,low,6,0,6,0,1,,,,,,,,,
295099,2022-09-22_19h00.30.566,vts_reward_expectancy,2022.2.4,Win32,60.69802731,Chrome,1536,864,,,,,0,717,,,,,,,,,,,,,,,,,Y,160,circle,0,0,,,,,,,,,,,,,,,,switch,number,NA,j,0.3478,Lo,,,,,,0,,,,,,,,low,7,0,7,0,1,,,,,,,,,
295099,2022-09-22_19h00.30.566,vts_reward_expectancy,2022.2.4,Win32,60.69802731,Chrome,1536,864,,,,,0,717,,,,,,,,,,,,,,,,,S,139,circle,0,1,,,,,,,,,,,,,,,,repeat,number,NA,k,0.4584,Lo,,,,,,0,,,,,,,,low,8,0,8,0,1,,,,,,,,,
295099,2022-09-22_19h00.30.566,vts_reward_expectancy,2022.2.4,Win32,60.69802731,Chrome,1536,864,,,,,10,727,,,,,,,,,,,,,,,,,H,174,hexagon,1,1,,,,,,,,,,,,,,,,repeat,number,numRpt,k,0.4095,Lo,,,,,,0,,,,,,,,low,9,0,9,0,1,,,,,,,,,
295099,2022-09-22_19h00.30.566,vts_reward_expectancy,2022.2.4,Win32,60.69802731,Chrome,1536,864,,,,,1,728,,,,,,,,,,,,,,,,,W,125,hexagon,1,0,,,,,,,,,,,,,,,,repeat,number,numRpt,j,0.4426,Lo,,,,,,0,,,,,,,,low,10,0,10,0,1,,,,,,,,,
295099,2022-09-22_19h00.30.566,vts_reward_expectancy,2022.2.4,Win32,60.69802731,Chrome,1536,864,,,,,10,738,,,,,,,,,,,,,,,,,U,132,circle,1,0,,,,,,,,,,,,,,,,repeat,number,numRpt,j,0.5194,Hi,,,,,,0,,,,,,,,low,11,0,11,0,1,,,,,,,,,
295099,2022-09-22_19h00.30.566,vts_reward_expectancy,2022.2.4,Win32,60.69802731,Chrome,1536,864,,,,,1,739,,,,,,,,,,,,,,,,,D,146,hexagon,1,0,,,,,,,,,,,,,,,,switch,letter,lettSwt,d,0.6942,Lo,,,,,,0,,,,,,,,low,12,0,12,0,1,,,,,,,,,
295099,2022-09-22_19h00.30.566,vts_reward_expectancy,2022.2.4,Win32,60.69802731,Chrome,1536,864,,,,,10,749,,,,,,,,,,,,,,,,,F,181,circle,1,0,,,,,,,,,,,,,,,,repeat,letter,lettRpt,d,0.5319,Hi,,,,,,0,,,,,,,,low,13,0,13,0,1,,,,,,,,,
295099,2022-09-22_19h00.30.566,vts_reward_expectancy,2022.2.4,Win32,60.69802731,Chrome,1536,864,,,,,1,750,,,,,,,,,,,,,,,,,B,167,hexagon,1,0,,,,,,,,,,,,,,,,repeat,letter,lettRpt,d,0.4094,Lo,,,,,,0,,,,,,,,low,14,0,14,0,1,,,,,,,,,
295099,2022-09-22_19h00.30.566,vts_reward_expectancy,2022.2.4,Win32,60.69802731,Chrome,1536,864,,,,,10,760,,,,,,,,,,,,,,,,,Y,160,circle,1,0,,,,,,,,,,,,,,,,repeat,letter,lettRpt,f,0.4081,Hi,,,,,,0,,,,,,,,low,15,0,15,0,1,,,,,,,,,
295099,2022-09-22_19h00.30.566,vts_reward_expectancy,2022.2.4,Win32,60.69802731,Chrome,1536,864,,,,,0,760,,,,,,,,,,,,,,,,,F,146,circle,1,0,,,,,,,,,,,,,,,,switch,number,numSwt,j,0.7855,Hi,,,,,,0,,,,,,,,low,16,0,16,0,1,,,,,,,,,
295099,2022-09-22_19h00.30.566,vts_reward_expectancy,2022.2.4,Win32,60.69802731,Chrome,1536,864,,,,,10,770,,,,,,,,,,,,,,,,,B,139,hexagon,1,0,,,,,,,,,,,,,,,,repeat,number,numRpt,j,0.5056,Lo,,,,,,0,,,,,,,,low,17,0,17,0,1,,,,,,,,,
295099,2022-09-22_19h00.30.566,vts_reward_expectancy,2022.2.4,Win32,60.69802731,Chrome,1536,864,,,,,1,771,,,,,,,,,,,,,,,,,H,160,hexagon,1,0,,,,,,,,,,,,,,,,repeat,number,numRpt,k,0.4574,Lo,,,,,,0,,,,,,,,low,18,0,18,0,1,,,,,,,,,
295099,2022-09-22_19h00.30.566,vts_reward_expectancy,2022.2.4,Win32,60.69802731,Chrome,1536,864,,,,,1,772,,,,,,,,,,,,,,,,,D,132,circle,1,0,,,,,,,,,,,,,,,,repeat,number,numRpt,j,0.3868,Hi,,,,,,0,,,,,,,,low,19,0,19,0,1,,,,,,,,,
295099,2022-09-22_19h00.30.566,vts_reward_expectancy,2022.2.4,Win32,60.69802731,Chrome,1536,864,,,,,10,782,,,,,,,,,,,,,,,,,S,174,circle,1,0,,,,,,,,,,,,,,,,repeat,number,numRpt,k,0.4688,Hi,,,,,,0,,,,,,,,low,20,0,20,0,1,,,,,,,,,
295099,2022-09-22_19h00.30.566,vts_reward_expectancy,2022.2.4,Win32,60.69802731,Chrome,1536,864,,,,,1,783,,,,,,,,,,,,,,,,,Y,181,hexagon,1,0,,,,,,,,,,,,,,,,repeat,number,numRpt,k,0.7423,Lo,,,,,,0,,,,,,,,low,21,0,21,0,1,,,,,,,,,
295099,2022-09-22_19h00.30.566,vts_reward_expectancy,2022.2.4,Win32,60.69802731,Chrome,1536,864,,,,,1,784,,,,,,,,,,,,,,,,,U,125,hexagon,1,0,,,,,,,,,,,,,,,,switch,letter,lettSwt,f,0.5585,Lo,,,,,,0,,,,,,,,low,22,0,22,0,1,,,,,,,,,
295099,2022-09-22_19h00.30.566,vts_reward_expectancy,2022.2.4,Win32,60.69802731,Chrome,1536,864,,,,,10,794,,,,,,,,,,,,,,,,,W,167,circle,1,0,,,,,,,,,,,,,,,,repeat,letter,lettRpt,f,0.4769,Hi,,,,,,0,,,,,,,,low,23,0,23,0,1,,,,,,,,,
295099,2022-09-22_19h00.30.566,vts_reward_expectancy,2022.2.4,Win32,60.69802731,Chrome,1536,864,,,,,0,794,,,,,,,,,,,,,,,,,D,174,circle,0,0,,,,,,,,,,,,,,,,repeat,letter,NA,f,0.4952,Hi,,,,,,0,,,,,,,,low,24,0,24,0,1,,,,,,,,,
295099,2022-09-22_19h00.30.566,vts_reward_expectancy,2022.2.4,Win32,60.69802731,Chrome,1536,864,,,,,10,804,,,,,,,,,,,,,,,,,W,160,hexagon,1,1,,,,,,,,,,,,,,,,switch,number,numSwt,k,0.698,Lo,,,,,,0,,,,,,,,low,25,0,25,0,1,,,,,,,,,
295099,2022-09-22_19h00.30.566,vts_reward_expectancy,2022.2.4,Win32,60.69802731,Chrome,1536,864,,,,,0,804,,,,,,,,,,,,,,,,,H,132,circle,1,0,,,,,,,,,,,,,,,,switch,letter,lettSwt,d,0.9332,Hi,,,,,,0,,,,,,,,low,26,0,26,0,1,,,,,,,,,
295099,2022-09-22_19h00.30.566,vts_reward_expectancy,2022.2.4,Win32,60.69802731,Chrome,1536,864,,,,,10,814,,,,,,,,,,,,,,,,,U,181,hexagon,1,0,,,,,,,,,,,,,,,,switch,number,numSwt,k,0.5508,Lo,,,,,,0,,,,,,,,low,27,0,27,0,1,,,,,,,,,
295099,2022-09-22_19h00.30.566,vts_reward_expectancy,2022.2.4,Win32,60.69802731,Chrome,1536,864,,,,,1,815,,,,,,,,,,,,,,,,,S,139,circle,1,0,,,,,,,,,,,,,,,,switch,letter,lettSwt,f,0.5103,Hi,,,,,,0,,,,,,,,low,28,0,28,0,1,,,,,,,,,
295099,2022-09-22_19h00.30.566,vts_reward_expectancy,2022.2.4,Win32,60.69802731,Chrome,1536,864,,,,,1,816,,,,,,,,,,,,,,,,,Y,167,hexagon,1,0,,,,,,,,,,,,,,,,switch,number,numSwt,k,0.6943,Lo,,,,,,0,,,,,,,,low,29,0,29,0,1,,,,,,,,,
295099,2022-09-22_19h00.30.566,vts_reward_expectancy,2022.2.4,Win32,60.69802731,Chrome,1536,864,,,,,1,817,,,,,,,,,,,,,,,,,B,125,hexagon,1,0,,,,,,,,,,,,,,,,repeat,number,numRpt,j,0.4582,Lo,,,,,,0,,,,,,,,low,30,0,30,0,1,,,,,,,,,
295099,2022-09-22_19h00.30.566,vts_reward_expectancy,2022.2.4,Win32,60.69802731,Chrome,1536,864,,,,,0,817,,,,,,,,,,,,,,,,,F,146,circle,0,0,,,,,,,,,,,,,,,,switch,letter,NA,f,0.4255,Lo,,,,,,0,,,,,,,,low,31,0,31,0,1,,,,,,,,,
295099,2022-09-22_19h00.30.566,vts_reward_expectancy,2022.2.4,Win32,60.69802731,Chrome,1536,864,,,,,0,817,,,,,,,,,,,,,,,,,H,146,circle,1,1,,,,,,,,,,,,,,,,repeat,letter,lettRpt,d,0.618,Hi,,,,,,1,,,,,,space,1.9551,low,0,0,0,0,1,,,,,,,,,
295099,2022-09-22_19h00.30.566,vts_reward_expectancy,2022.2.4,Win32,60.69802731,Chrome,1536,864,,,,,10,827,,,,,,,,,,,,,,,,,W,132,hexagon,1,0,,,,,,,,,,,,,,,,switch,number,numSwt,j,0.3766,Lo,,,,,,1,,,,,,,,low,1,0,1,0,1,,,,,,,,,
295099,2022-09-22_19h00.30.566,vts_reward_expectancy,2022.2.4,Win32,60.69802731,Chrome,1536,864,,,,,1,828,,,,,,,,,,,,,,,,,Y,125,circle,1,0,,,,,,,,,,,,,,,,switch,letter,lettSwt,f,0.3458,Hi,,,,,,1,,,,,,,,low,2,0,2,0,1,,,,,,,,,
295099,2022-09-22_19h00.30.566,vts_reward_expectancy,2022.2.4,Win32,60.69802731,Chrome,1536,864,,,,,1,829,,,,,,,,,,,,,,,,,D,181,hexagon,1,0,,,,,,,,,,,,,,,,switch,number,numSwt,k,0.4089,Lo,,,,,,1,,,,,,,,low,3,0,3,0,1,,,,,,,,,
295099,2022-09-22_19h00.30.566,vts_reward_expectancy,2022.2.4,Win32,60.69802731,Chrome,1536,864,,,,,0,829,,,,,,,,,,,,,,,,,F,174,hexagon,0,0,,,,,,,,,,,,,,,,repeat,number,NA,j,0.546,Lo,,,,,,1,,,,,,,,low,4,0,4,0,1,,,,,,,,,
295099,2022-09-22_19h00.30.566,vts_reward_expectancy,2022.2.4,Win32,60.69802731,Chrome,1536,864,,,,,0,829,,,,,,,,,,,,,,,,,S,160,circle,1,1,,,,,,,,,,,,,,,,switch,letter,lettSwt,f,0.61,Hi,,,,,,1,,,,,,,,low,5,0,5,0,1,,,,,,,,,
295099,2022-09-22_19h00.30.566,vts_reward_expectancy,2022.2.4,Win32,60.69802731,Chrome,1536,864,,,,,10,839,,,,,,,,,,,,,,,,,B,167,hexagon,1,0,,,,,,,,,,,,,,,,switch,number,numSwt,k,0.5637,Lo,,,,,,1,,,,,,,,low,6,0,6,0,1,,,,,,,,,
295099,2022-09-22_19h00.30.566,vts_reward_expectancy,2022.2.4,Win32,60.69802731,Chrome,1536,864,,,,,0,839,,,,,,,,,,,,,,,,,U,139,circle,1,0,,,,,,,,,,,,,,,,switch,letter,lettSwt,f,0.5657,Hi,,,,,,1,,,,,,,,low,7,0,7,0,1,,,,,,,,,
295099,2022-09-22_19h00.30.566,vts_reward_expectancy,2022.2.4,Win32,60.69802731,Chrome,1536,864,,,,,1,840,,,,,,,,,,,,,,,,,H,146,hexagon,1,0,,,,,,,,,,,,,,,,switch,number,numSwt,j,0.4812,Lo,,,,,,1,,,,,,,,low,8,0,8,0,1,,,,,,,,,
295099,2022-09-22_19h00.30.566,vts_reward_expectancy,2022.2.4,Win32,60.69802731,Chrome,1536,864,,,,,0,840,,,,,,,,,,,,,,,,,W,132,circle,0,0,,,,,,,,,,,,,,,,switch,letter,NA,d,0.3941,Lo,,,,,,1,,,,,,,,low,9,0,9,0,1,,,,,,,,,
295099,2022-09-22_19h00.30.566,vts_reward_expectancy,2022.2.4,Win32,60.69802731,Chrome,1536,864,,,,,0,840,,,,,,,,,,,,,,,,,Y,125,circle,1,1,,,,,,,,,,,,,,,,switch,number,numSwt,j,0.6707,Hi,,,,,,1,,,,,,,,low,10,0,10,0,1,,,,,,,,,
295099,2022-09-22_19h00.30.566,vts_reward_expectancy,2022.2.4,Win32,60.69802731,Chrome,1536,864,,,,,1,841,,,,,,,,,,,,,,,,,D,181,hexagon,1,0,,,,,,,,,,,,,,,,repeat,number,numRpt,k,0.4266,Lo,,,,,,1,,,,,,,,low,11,0,11,0,1,,,,,,,,,
295099,2022-09-22_19h00.30.566,vts_reward_expectancy,2022.2.4,Win32,60.69802731,Chrome,1536,864,,,,,0,841,,,,,,,,,,,,,,,,,F,174,circle,0,0,,,,,,,,,,,,,,,,switch,letter,NA,f,0.4974,Lo,,,,,,1,,,,,,,,low,12,0,12,0,1,,,,,,,,,
295099,2022-09-22_19h00.30.566,vts_reward_expectancy,2022.2.4,Win32,60.69802731,Chrome,1536,864,,,,,0,841,,,,,,,,,,,,,,,,,S,160,hexagon,0,1,,,,,,,,,,,,,,,,switch,number,NA,j,0.4102,Lo,,,,,,1,,,,,,,,low,13,0,13,0,1,,,,,,,,,
295099,2022-09-22_19h00.30.566,vts_reward_expectancy,2022.2.4,Win32,60.69802731,Chrome,1536,864,,,,,1,842,,,,,,,,,,,,,,,,,B,167,hexagon,1,1,,,,,,,,,,,,,,,,switch,letter,lettSwt,d,0.4095,Lo,,,,,,1,,,,,,,,low,14,0,14,0,1,,,,,,,,,
295099,2022-09-22_19h00.30.566,vts_reward_expectancy,2022.2.4,Win32,60.69802731,Chrome,1536,864,,,,,0,842,,,,,,,,,,,,,,,,,U,139,circle,1,0,,,,,,,,,,,,,,,,repeat,letter,lettRpt,f,0.5756,Hi,,,,,,1,,,,,,,,low,15,0,15,0,1,,,,,,,,,
295099,2022-09-22_19h00.30.566,vts_reward_expectancy,2022.2.4,Win32,60.69802731,Chrome,1536,864,,,,,1,843,,,,,,,,,,,,,,,,,U,132,hexagon,1,0,,,,,,,,,,,,,,,,switch,number,numSwt,j,0.3978,Lo,,,,,,1,,,,,,,,low,16,0,16,0,1,,,,,,,,,
295099,2022-09-22_19h00.30.566,vts_reward_expectancy,2022.2.4,Win32,60.69802731,Chrome,1536,864,,,,,10,853,,,,,,,,,,,,,,,,,S,181,circle,1,0,,,,,,,,,,,,,,,,switch,letter,lettSwt,f,0.4594,Hi,,,,,,1,,,,,,,,low,17,0,17,0,1,,,,,,,,,
295099,2022-09-22_19h00.30.566,vts_reward_expectancy,2022.2.4,Win32,60.69802731,Chrome,1536,864,,,,,0,853,,,,,,,,,,,,,,,,,F,174,circle,1,0,,,,,,,,,,,,,,,,repeat,letter,lettRpt,d,0.6799,Hi,,,,,,1,,,,,,,,low,18,0,18,0,1,,,,,,,,,
295099,2022-09-22_19h00.30.566,vts_reward_expectancy,2022.2.4,Win32,60.69802731,Chrome,1536,864,,,,,1,854,,,,,,,,,,,,,,,,,H,146,hexagon,1,0,,,,,,,,,,,,,,,,switch,number,numSwt,j,0.5683,Lo,,,,,,1,,,,,,,,low,19,0,19,0,1,,,,,,,,,
295099,2022-09-22_19h00.30.566,vts_reward_expectancy,2022.2.4,Win32,60.69802731,Chrome,1536,864,,,,,10,864,,,,,,,,,,,,,,,,,B,167,circle,1,0,,,,,,,,,,,,,,,,switch,letter,lettSwt,d,0.3761,Hi,,,,,,1,,,,,,,,low,20,0,20,0,1,,,,,,,,,
295099,2022-09-22_19h00.30.566,vts_reward_expectancy,2022.2.4,Win32,60.69802731,Chrome,1536,864,,,,,1,865,,,,,,,,,,,,,,,,,W,125,hexagon,1,0,,,,,,,,,,,,,,,,switch,number,numSwt,j,0.392,Lo,,,,,,1,,,,,,,,low,21,0,21,0,1,,,,,,,,,
295099,2022-09-22_19h00.30.566,vts_reward_expectancy,2022.2.4,Win32,60.69802731,Chrome,1536,864,,,,,10,875,,,,,,,,,,,,,,,,,D,160,circle,1,0,,,,,,,,,,,,,,,,switch,letter,lettSwt,d,0.5094,Hi,,,,,,1,,,,,,,,low,22,0,22,0,1,,,,,,,,,
295099,2022-09-22_19h00.30.566,vts_reward_expectancy,2022.2.4,Win32,60.69802731,Chrome,1536,864,,,,,0,875,,,,,,,,,,,,,,,,,Y,139,hexagon,0,0,,,,,,,,,,,,,,,,switch,number,NA,k,0.4925,Hi,,,,,,1,,,,,,,,low,23,0,23,0,1,,,,,,,,,
295099,2022-09-22_19h00.30.566,vts_reward_expectancy,2022.2.4,Win32,60.69802731,Chrome,1536,864,,,,,0,875,,,,,,,,,,,,,,,,,S,146,circle,1,1,,,,,,,,,,,,,,,,switch,letter,lettSwt,f,0.5919,Hi,,,,,,1,,,,,,,,low,24,0,24,0,1,,,,,,,,,
295099,2022-09-22_19h00.30.566,vts_reward_expectancy,2022.2.4,Win32,60.69802731,Chrome,1536,864,,,,,1,876,,,,,,,,,,,,,,,,,U,181,hexagon,1,0,,,,,,,,,,,,,,,,repeat,letter,lettRpt,f,0.4409,Lo,,,,,,1,,,,,,,,low,25,0,25,0,1,,,,,,,,,
295099,2022-09-22_19h00.30.566,vts_reward_expectancy,2022.2.4,Win32,60.69802731,Chrome,1536,864,,,,,1,877,,,,,,,,,,,,,,,,,W,174,circle,1,0,,,,,,,,,,,,,,,,repeat,letter,lettRpt,f,0.3493,Hi,,,,,,1,,,,,,,,low,26,0,26,0,1,,,,,,,,,
295099,2022-09-22_19h00.30.566,vts_reward_expectancy,2022.2.4,Win32,60.69802731,Chrome,1536,864,,,,,10,887,,,,,,,,,,,,,,,,,D,139,hexagon,1,0,,,,,,,,,,,,,,,,switch,number,numSwt,j,0.4619,Lo,,,,,,1,,,,,,,,low,27,0,27,0,1,,,,,,,,,
295099,2022-09-22_19h00.30.566,vts_reward_expectancy,2022.2.4,Win32,60.69802731,Chrome,1536,864,,,,,10,897,,,,,,,,,,,,,,,,,B,160,circle,1,0,,,,,,,,,,,,,,,,switch,letter,lettSwt,d,0.4577,Hi,,,,,,1,,,,,,,,low,28,0,28,0,1,,,,,,,,,
295099,2022-09-22_19h00.30.566,vts_reward_expectancy,2022.2.4,Win32,60.69802731,Chrome,1536,864,,,,,1,898,,,,,,,,,,,,,,,,,F,125,hexagon,1,0,,,,,,,,,,,,,,,,switch,number,numSwt,j,0.5422,Lo,,,,,,1,,,,,,,,low,29,0,29,0,1,,,,,,,,,
295099,2022-09-22_19h00.30.566,vts_reward_expectancy,2022.2.4,Win32,60.69802731,Chrome,1536,864,,,,,10,908,,,,,,,,,,,,,,,,,Y,132,hexagon,1,0,,,,,,,,,,,,,,,,repeat,number,numRpt,j,0.4595,Lo,,,,,,1,,,,,,,,low,30,0,30,0,1,,,,,,,,,
295099,2022-09-22_19h00.30.566,vts_reward_expectancy,2022.2.4,Win32,60.69802731,Chrome,1536,864,,,,,10,918,,,,,,,,,,,,,,,,,H,167,circle,1,0,,,,,,,,,,,,,,,,switch,letter,lettSwt,d,0.3405,Hi,,,,,,1,,,,,,,,low,31,0,31,0,1,,,,,,,,,
295099,2022-09-22_19h00.30.566,vts_reward_expectancy,2022.2.4,Win32,60.69802731,Chrome,1536,864,,,,,1,919,,,,,,,,,,,,,,,,,Y,167,triangle,1,0,,,,,,,,,,,,,,,,repeat,letter,lettRpt,f,0.8934,Lo,,,,,,2,,,,,,space,0.9783,high,0,0,0,0,1,,,,,,,,,
295099,2022-09-22_19h00.30.566,vts_reward_expectancy,2022.2.4,Win32,60.69802731,Chrome,1536,864,,,,,0,919,,,,,,,,,,,,,,,,,D,174,star,1,0,,,,,,,,,,,,,,,,repeat,letter,lettRpt,d,0.6424,Hi,,,,,,2,,,,,,,,high,1,0,1,0,1,,,,,,,,,
295099,2022-09-22_19h00.30.566,vts_reward_expectancy,2022.2.4,Win32,60.69802731,Chrome,1536,864,,,,,0,919,,,,,,,,,,,,,,,,,F,146,triangle,0,0,,,,,,,,,,,,,,,,repeat,letter,NA,f,0.4092,Hi,,,,,,2,,,,,,,,high,2,0,2,0,1,,,,,,,,,
295099,2022-09-22_19h00.30.566,vts_reward_expectancy,2022.2.4,Win32,60.69802731,Chrome,1536,864,,,,,10,929,,,,,,,,,,,,,,,,,B,160,star,1,1,,,,,,,,,,,,,,,,switch,number,numSwt,k,0.3978,Hi,,,,,,2,,,,,,,,high,3,0,3,0,1,,,,,,,,,
295099,2022-09-22_19h00.30.566,vts_reward_expectancy,2022.2.4,Win32,60.69802731,Chrome,1536,864,,,,,1,930,,,,,,,,,,,,,,,,,S,181,triangle,1,0,,,,,,,,,,,,,,,,repeat,number,numRpt,k,0.3992,Lo,,,,,,2,,,,,,,,high,4,0,4,0,1,,,,,,,,,
295099,2022-09-22_19h00.30.566,vts_reward_expectancy,2022.2.4,Win32,60.69802731,Chrome,1536,864,,,,,10,940,,,,,,,,,,,,,,,,,U,125,star,1,0,,,,,,,,,,,,,,,,repeat,number,numRpt,j,0.4081,Hi,,,,,,2,,,,,,,,high,5,0,5,0,1,,,,,,,,,
295099,2022-09-22_19h00.30.566,vts_reward_expectancy,2022.2.4,Win32,60.69802731,Chrome,1536,864,,,,,10,950,,,,,,,,,,,,,,,,,H,132,star,1,0,,,,,,,,,,,,,,,,repeat,number,numRpt,j,0.4251,Hi,,,,,,2,,,,,,,,high,6,0,6,0,1,,,,,,,,,
295099,2022-09-22_19h00.30.566,vts_reward_expectancy,2022.2.4,Win32,60.69802731,Chrome,1536,864,,,,,10,960,,,,,,,,,,,,,,,,,W,139,triangle,1,0,,,,,,,,,,,,,,,,repeat,number,numRpt,j,1.2303,Lo,,,,,,2,,,,,,,,high,7,0,7,0,1,,,,,,,,,
295099,2022-09-22_19h00.30.566,vts_reward_expectancy,2022.2.4,Win32,60.69802731,Chrome,1536,864,,,,,1,961,,,,,,,,,,,,,,,,,Y,167,triangle,1,0,,,,,,,,,,,,,,,,switch,letter,lettSwt,f,1.115,Lo,,,,,,2,,,,,,,,high,8,0,8,0,1,,,,,,,,,
295099,2022-09-22_19h00.30.566,vts_reward_expectancy,2022.2.4,Win32,60.69802731,Chrome,1536,864,,,,,10,971,,,,,,,,,,,,,,,,,D,174,star,1,0,,,,,,,,,,,,,,,,repeat,letter,lettRpt,d,0.431,Hi,,,,,,2,,,,,,,,high,9,0,9,0,1,,,,,,,,,
295099,2022-09-22_19h00.30.566,vts_reward_expectancy,2022.2.4,Win32,60.69802731,Chrome,1536,864,,,,,1,972,,,,,,,,,,,,,,,,,F,146,triangle,1,0,,,,,,,,,,,,,,,,switch,number,numSwt,j,0.8504,Lo,,,,,,2,,,,,,,,high,10,0,10,0,1,,,,,,,,,
295099,2022-09-22_19h00.30.566,vts_reward_expectancy,2022.2.4,Win32,60.69802731,Chrome,1536,864,,,,,0,972,,,,,,,,,,,,,,,,,B,160,star,1,0,,,,,,,,,,,,,,,,switch,letter,lettSwt,d,0.4754,Hi,,,,,,2,,,,,,,,high,11,0,11,0,1,,,,,,,,,
295099,2022-09-22_19h00.30.566,vts_reward_expectancy,2022.2.4,Win32,60.69802731,Chrome,1536,864,,,,,0,972,,,,,,,,,,,,,,,,,S,181,star,1,0,,,,,,,,,,,,,,,,repeat,letter,lettRpt,f,0.5132,Hi,,,,,,2,,,,,,,,high,12,0,12,0,1,,,,,,,,,
295099,2022-09-22_19h00.30.566,vts_reward_expectancy,2022.2.4,Win32,60.69802731,Chrome,1536,864,,,,,1,973,,,,,,,,,,,,,,,,,U,125,triangle,1,0,,,,,,,,,,,,,,,,repeat,letter,lettRpt,f,1.733,Lo,,,,,,2,,,,,,,,high,13,0,13,0,1,,,,,,,,,
295099,2022-09-22_19h00.30.566,vts_reward_expectancy,2022.2.4,Win32,60.69802731,Chrome,1536,864,,,,,0,973,,,,,,,,,,,,,,,,,H,132,star,1,0,,,,,,,,,,,,,,,,repeat,letter,lettRpt,d,0.5505,Hi,,,,,,2,,,,,,,,high,14,0,14,0,1,,,,,,,,,
295099,2022-09-22_19h00.30.566,vts_reward_expectancy,2022.2.4,Win32,60.69802731,Chrome,1536,864,,,,,1,974,,,,,,,,,,,,,,,,,W,139,triangle,1,0,,,,,,,,,,,,,,,,switch,number,numSwt,j,2.4416,Lo,,,,,,2,,,,,,,,high,15,0,15,0,1,,,,,,,,,
295099,2022-09-22_19h00.30.566,vts_reward_expectancy,2022.2.4,Win32,60.69802731,Chrome,1536,864,,,,,10,984,,,,,,,,,,,,,,,,,H,139,triangle,1,0,,,,,,,,,,,,,,,,repeat,number,numRpt,j,0.5711,Lo,,,,,,2,,,,,,,,high,16,0,16,0,1,,,,,,,,,
295099,2022-09-22_19h00.30.566,vts_reward_expectancy,2022.2.4,Win32,60.69802731,Chrome,1536,864,,,,,0,984,,,,,,,,,,,,,,,,,D,146,star,1,0,,,,,,,,,,,,,,,,repeat,number,numRpt,j,0.4418,Hi,,,,,,2,,,,,,,,high,17,0,17,0,1,,,,,,,,,
295099,2022-09-22_19h00.30.566,vts_reward_expectancy,2022.2.4,Win32,60.69802731,Chrome,1536,864,,,,,0,984,,,,,,,,,,,,,,,,,S,125,triangle,0,0,,,,,,,,,,,,,,,,switch,letter,NA,d,0.4283,Hi,,,,,,2,,,,,,,,high,18,0,18,0,1,,,,,,,,,
295099,2022-09-22_19h00.30.566,vts_reward_expectancy,2022.2.4,Win32,60.69802731,Chrome,1536,864,,,,,0,984,,,,,,,,,,,,,,,,,U,181,star,1,1,,,,,,,,,,,,,,,,switch,number,numSwt,k,0.5431,Hi,,,,,,2,,,,,,,,high,19,0,19,0,1,,,,,,,,,
295099,2022-09-22_19h00.30.566,vts_reward_expectancy,2022.2.4,Win32,60.69802731,Chrome,1536,864,,,,,0,984,,,,,,,,,,,,,,,,,B,167,star,1,0,,,,,,,,,,,,,,,,switch,letter,lettSwt,d,0.5589,Hi,,,,,,2,,,,,,,,high,20,0,20,0,1,,,,,,,,,
295099,2022-09-22_19h00.30.566,vts_reward_expectancy,2022.2.4,Win32,60.69802731,Chrome,1536,864,,,,,1,985,,,,,,,,,,,,,,,,,F,174,triangle,1,0,,,,,,,,,,,,,,,,repeat,letter,lettRpt,d,0.5576,Lo,,,,,,2,,,,,,,,high,21,0,21,0,1,,,,,,,,,
295099,2022-09-22_19h00.30.566,vts_reward_expectancy,2022.2.4,Win32,60.69802731,Chrome,1536,864,,,,,10,995,,,,,,,,,,,,,,,,,Y,132,star,1,0,,,,,,,,,,,,,,,,repeat,letter,lettRpt,f,0.3918,Hi,,,,,,2,,,,,,,,high,22,0,22,0,1,,,,,,,,,
295099,2022-09-22_19h00.30.566,vts_reward_expectancy,2022.2.4,Win32,60.69802731,Chrome,1536,864,,,,,1,996,,,,,,,,,,,,,,,,,W,160,triangle,1,0,,,,,,,,,,,,,,,,switch,number,numSwt,k,0.6423,Lo,,,,,,2,,,,,,,,high,23,0,23,0,1,,,,,,,,,
295099,2022-09-22_19h00.30.566,vts_reward_expectancy,2022.2.4,Win32,60.69802731,Chrome,1536,864,,,,,1,997,,,,,,,,,,,,,,,,,F,160,triangle,1,0,,,,,,,,,,,,,,,,repeat,number,numRpt,k,0.663,Lo,,,,,,2,,,,,,,,high,24,0,24,0,1,,,,,,,,,
295099,2022-09-22_19h00.30.566,vts_reward_expectancy,2022.2.4,Win32,60.69802731,Chrome,1536,864,,,,,1,998,,,,,,,,,,,,,,,,,W,125,star,1,0,,,,,,,,,,,,,,,,repeat,number,numRpt,j,0.3694,Hi,,,,,,2,,,,,,,,high,25,0,25,0,1,,,,,,,,,
295099,2022-09-22_19h00.30.566,vts_reward_expectancy,2022.2.4,Win32,60.69802731,Chrome,1536,864,,,,,0,998,,,,,,,,,,,,,,,,,B,146,triangle,0,0,,,,,,,,,,,,,,,,switch,letter,NA,f,0.3759,Hi,,,,,,2,,,,,,,,high,26,0,26,0,1,,,,,,,,,
295099,2022-09-22_19h00.30.566,vts_reward_expectancy,2022.2.4,Win32,60.69802731,Chrome,1536,864,,,,,0,998,,,,,,,,,,,,,,,,,U,132,star,1,1,,,,,,,,,,,,,,,,repeat,letter,lettRpt,f,0.559,Hi,,,,,,2,,,,,,,,high,27,0,27,0,1,,,,,,,,,
295099,2022-09-22_19h00.30.566,vts_reward_expectancy,2022.2.4,Win32,60.69802731,Chrome,1536,864,,,,,0,998,,,,,,,,,,,,,,,,,S,167,star,0,0,,,,,,,,,,,,,,,,repeat,letter,NA,d,0.3483,Hi,,,,,,2,,,,,,,,high,28,0,28,0,1,,,,,,,,,
295099,2022-09-22_19h00.30.566,vts_reward_expectancy,2022.2.4,Win32,60.69802731,Chrome,1536,864,,,,,1,999,,,,,,,,,,,,,,,,,D,139,triangle,1,1,,,,,,,,,,,,,,,,repeat,letter,lettRpt,d,0.4929,Lo,,,,,,2,,,,,,,,high,29,0,29,0,1,,,,,,,,,
295099,2022-09-22_19h00.30.566,vts_reward_expectancy,2022.2.4,Win32,60.69802731,Chrome,1536,864,,,,,0,999,,,,,,,,,,,,,,,,,H,181,star,0,0,,,,,,,,,,,,,,,,repeat,letter,NA,f,0.4177,Lo,,,,,,2,,,,,,,,high,30,0,30,0,1,,,,,,,,,
295099,2022-09-22_19h00.30.566,vts_reward_expectancy,2022.2.4,Win32,60.69802731,Chrome,1536,864,,,,,1,1000,,,,,,,,,,,,,,,,,Y,174,triangle,1,1,,,,,,,,,,,,,,,,switch,number,numSwt,k,0.4778,Lo,,,,,,2,,,,,,,,high,31,0,31,0,1,,,,,,,,,
295099,2022-09-22_19h00.30.566,vts_reward_expectancy,2022.2.4,Win32,60.69802731,Chrome,1536,864,,,,,10,1010,,,,,,,,,,,,,,,,,B,174,star,1,0,,,,,,,,,,,,,,,,switch,letter,lettSwt,d,0.3677,Hi,,,,,,3,,,,,,space,0.7105,high,0,0,0,0,1,,,,,,,,,
295099,2022-09-22_19h00.30.566,vts_reward_expectancy,2022.2.4,Win32,60.69802731,Chrome,1536,864,,,,,10,1020,,,,,,,,,,,,,,,,,U,139,triangle,1,0,,,,,,,,,,,,,,,,repeat,letter,lettRpt,f,0.4595,Lo,,,,,,3,,,,,,,,high,1,0,1,0,1,,,,,,,,,
295099,2022-09-22_19h00.30.566,vts_reward_expectancy,2022.2.4,Win32,60.69802731,Chrome,1536,864,,,,,0,1020,,,,,,,,,,,,,,,,,H,181,star,1,0,,,,,,,,,,,,,,,,repeat,letter,lettRpt,d,0.5757,Hi,,,,,,3,,,,,,,,high,2,0,2,0,1,,,,,,,,,
295099,2022-09-22_19h00.30.566,vts_reward_expectancy,2022.2.4,Win32,60.69802731,Chrome,1536,864,,,,,1,1021,,,,,,,,,,,,,,,,,S,125,triangle,1,0,,,,,,,,,,,,,,,,repeat,letter,lettRpt,f,0.5777,Lo,,,,,,3,,,,,,,,high,3,0,3,0,1,,,,,,,,,
295099,2022-09-22_19h00.30.566,vts_reward_expectancy,2022.2.4,Win32,60.69802731,Chrome,1536,864,,,,,1,1022,,,,,,,,,,,,,,,,,Y,146,triangle,1,0,,,,,,,,,,,,,,,,repeat,letter,lettRpt,f,0.7402,Lo,,,,,,3,,,,,,,,high,4,0,4,0,1,,,,,,,,,
295099,2022-09-22_19h00.30.566,vts_reward_expectancy,2022.2.4,Win32,60.69802731,Chrome,1536,864,,,,,10,1032,,,,,,,,,,,,,,,,,F,132,star,1,0,,,,,,,,,,,,,,,,switch,number,numSwt,j,0.3962,Hi,,,,,,3,,,,,,,,high,5,0,5,0,1,,,,,,,,,
295099,2022-09-22_19h00.30.566,vts_reward_expectancy,2022.2.4,Win32,60.69802731,Chrome,1536,864,,,,,1,1033,,,,,,,,,,,,,,,,,D,167,triangle,1,0,,,,,,,,,,,,,,,,repeat,number,numRpt,k,0.3923,Lo,,,,,,3,,,,,,,,high,6,0,6,0,1,,,,,,,,,
295099,2022-09-22_19h00.30.566,vts_reward_expectancy,2022.2.4,Win32,60.69802731,Chrome,1536,864,,,,,0,1033,,,,,,,,,,,,,,,,,W,160,star,1,0,,,,,,,,,,,,,,,,repeat,number,numRpt,k,0.4251,Hi,,,,,,3,,,,,,,,high,7,0,7,0,1,,,,,,,,,
295099,2022-09-22_19h00.30.566,vts_reward_expectancy,2022.2.4,Win32,60.69802731,Chrome,1536,864,,,,,10,1043,,,,,,,,,,,,,,,,,B,174,triangle,1,0,,,,,,,,,,,,,,,,repeat,number,numRpt,k,0.4423,Lo,,,,,,3,,,,,,,,high,8,0,8,0,1,,,,,,,,,
295099,2022-09-22_19h00.30.566,vts_reward_expectancy,2022.2.4,Win32,60.69802731,Chrome,1536,864,,,,,0,1043,,,,,,,,,,,,,,,,,U,139,star,1,0,,,,,,,,,,,,,,,,repeat,number,numRpt,j,0.4263,Hi,,,,,,3,,,,,,,,high,9,0,9,0,1,,,,,,,,,
295099,2022-09-22_19h00.30.566,vts_reward_expectancy,2022.2.4,Win32,60.69802731,Chrome,1536,864,,,,,1,1044,,,,,,,,,,,,,,,,,H,181,triangle,1,0,,,,,,,,,,,,,,,,switch,letter,lettSwt,d,0.7109,Lo,,,,,,3,,,,,,,,high,10,0,10,0,1,,,,,,,,,
295099,2022-09-22_19h00.30.566,vts_reward_expectancy,2022.2.4,Win32,60.69802731,Chrome,1536,864,,,,,0,1044,,,,,,,,,,,,,,,,,S,125,star,0,0,,,,,,,,,,,,,,,,repeat,letter,NA,d,0.4922,Lo,,,,,,3,,,,,,,,high,11,0,11,0,1,,,,,,,,,
295099,2022-09-22_19h00.30.566,vts_reward_expectancy,2022.2.4,Win32,60.69802731,Chrome,1536,864,,,,,1,1045,,,,,,,,,,,,,,,,,Y,146,triangle,1,1,,,,,,,,,,,,,,,,repeat,letter,lettRpt,f,0.4771,Lo,,,,,,3,,,,,,,,high,12,0,12,0,1,,,,,,,,,
295099,2022-09-22_19h00.30.566,vts_reward_expectancy,2022.2.4,Win32,60.69802731,Chrome,1536,864,,,,,0,1045,,,,,,,,,,,,,,,,,F,132,star,0,0,,,,,,,,,,,,,,,,repeat,letter,NA,f,0.4753,Lo,,,,,,3,,,,,,,,high,13,0,13,0,1,,,,,,,,,
295099,2022-09-22_19h00.30.566,vts_reward_expectancy,2022.2.4,Win32,60.69802731,Chrome,1536,864,,,,,0,1045,,,,,,,,,,,,,,,,,D,167,star,1,1,,,,,,,,,,,,,,,,repeat,letter,lettRpt,d,0.5993,Hi,,,,,,3,,,,,,,,high,14,0,14,0,1,,,,,,,,,
295099,2022-09-22_19h00.30.566,vts_reward_expectancy,2022.2.4,Win32,60.69802731,Chrome,1536,864,,,,,1,1046,,,,,,,,,,,,,,,,,W,160,triangle,1,0,,,,,,,,,,,,,,,,repeat,letter,lettRpt,f,0.4754,Lo,,,,,,3,,,,,,,,high,15,0,15,0,1,,,,,,,,,
295099,2022-09-22_19h00.30.566,vts_reward_expectancy,2022.2.4,Win32,60.69802731,Chrome,1536,864,,,,,10,1056,,,,,,,,,,,,,,,,,F,181,star,1,0,,,,,,,,,,,,,,,,repeat,letter,lettRpt,d,0.3141,Hi,,,,,,3,,,,,,,,high,16,0,16,0,1,,,,,,,,,
295099,2022-09-22_19h00.30.566,vts_reward_expectancy,2022.2.4,Win32,60.69802731,Chrome,1536,864,,,,,1,1057,,,,,,,,,,,,,,,,,D,174,triangle,1,0,,,,,,,,,,,,,,,,switch,number,numSwt,k,0.5788,Lo,,,,,,3,,,,,,,,high,17,0,17,0,1,,,,,,,,,
295099,2022-09-22_19h00.30.566,vts_reward_expectancy,2022.2.4,Win32,60.69802731,Chrome,1536,864,,,,,1,1058,,,,,,,,,,,,,,,,,S,125,triangle,1,0,,,,,,,,,,,,,,,,repeat,number,numRpt,j,0.3983,Lo,,,,,,3,,,,,,,,high,18,0,18,0,1,,,,,,,,,
295099,2022-09-22_19h00.30.566,vts_reward_expectancy,2022.2.4,Win32,60.69802731,Chrome,1536,864,,,,,1,1059,,,,,,,,,,,,,,,,,B,132,star,1,0,,,,,,,,,,,,,,,,repeat,number,numRpt,j,0.3831,Hi,,,,,,3,,,,,,,,high,19,0,19,0,1,,,,,,,,,
295099,2022-09-22_19h00.30.566,vts_reward_expectancy,2022.2.4,Win32,60.69802731,Chrome,1536,864,,,,,1,1060,,,,,,,,,,,,,,,,,U,167,triangle,1,0,,,,,,,,,,,,,,,,repeat,number,numRpt,k,0.4097,Lo,,,,,,3,,,,,,,,high,20,0,20,0,1,,,,,,,,,
295099,2022-09-22_19h00.30.566,vts_reward_expectancy,2022.2.4,Win32,60.69802731,Chrome,1536,864,,,,,1,1061,,,,,,,,,,,,,,,,,H,139,star,1,0,,,,,,,,,,,,,,,,switch,letter,lettSwt,d,0.3586,Hi,,,,,,3,,,,,,,,high,21,0,21,0,1,,,,,,,,,
295099,2022-09-22_19h00.30.566,vts_reward_expectancy,2022.2.4,Win32,60.69802731,Chrome,1536,864,,,,,1,1062,,,,,,,,,,,,,,,,,Y,160,triangle,1,0,,,,,,,,,,,,,,,,repeat,letter,lettRpt,f,0.4146,Lo,,,,,,3,,,,,,,,high,22,0,22,0,1,,,,,,,,,
295099,2022-09-22_19h00.30.566,vts_reward_expectancy,2022.2.4,Win32,60.69802731,Chrome,1536,864,,,,,10,1072,,,,,,,,,,,,,,,,,W,146,star,1,0,,,,,,,,,,,,,,,,repeat,letter,lettRpt,f,0.3775,Hi,,,,,,3,,,,,,,,high,23,0,23,0,1,,,,,,,,,
295099,2022-09-22_19h00.30.566,vts_reward_expectancy,2022.2.4,Win32,60.69802731,Chrome,1536,864,,,,,1,1073,,,,,,,,,,,,,,,,,W,174,triangle,1,0,,,,,,,,,,,,,,,,repeat,letter,lettRpt,f,0.5314,Lo,,,,,,3,,,,,,,,high,24,0,24,0,1,,,,,,,,,
295099,2022-09-22_19h00.30.566,vts_reward_expectancy,2022.2.4,Win32,60.69802731,Chrome,1536,864,,,,,10,1083,,,,,,,,,,,,,,,,,D,139,star,1,0,,,,,,,,,,,,,,,,repeat,letter,lettRpt,d,0.2771,Hi,,,,,,3,,,,,,,,high,25,0,25,0,1,,,,,,,,,
295099,2022-09-22_19h00.30.566,vts_reward_expectancy,2022.2.4,Win32,60.69802731,Chrome,1536,864,,,,,0,1083,,,,,,,,,,,,,,,,,H,181,star,1,0,,,,,,,,,,,,,,,,repeat,letter,lettRpt,d,0.7119,Hi,,,,,,3,,,,,,,,high,26,0,26,0,1,,,,,,,,,
295099,2022-09-22_19h00.30.566,vts_reward_expectancy,2022.2.4,Win32,60.69802731,Chrome,1536,864,,,,,1,1084,,,,,,,,,,,,,,,,,Y,125,triangle,1,0,,,,,,,,,,,,,,,,repeat,letter,lettRpt,f,0.5317,Lo,,,,,,3,,,,,,,,high,27,0,27,0,1,,,,,,,,,
295099,2022-09-22_19h00.30.566,vts_reward_expectancy,2022.2.4,Win32,60.69802731,Chrome,1536,864,,,,,0,1084,,,,,,,,,,,,,,,,,F,167,triangle,0,0,,,,,,,,,,,,,,,,repeat,letter,NA,f,0.4422,Lo,,,,,,3,,,,,,,,high,28,0,28,0,1,,,,,,,,,
295099,2022-09-22_19h00.30.566,vts_reward_expectancy,2022.2.4,Win32,60.69802731,Chrome,1536,864,,,,,10,1094,,,,,,,,,,,,,,,,,B,132,star,1,1,,,,,,,,,,,,,,,,switch,number,numSwt,j,0.3805,Hi,,,,,,3,,,,,,,,high,29,0,29,0,1,,,,,,,,,
295099,2022-09-22_19h00.30.566,vts_reward_expectancy,2022.2.4,Win32,60.69802731,Chrome,1536,864,,,,,0,1094,,,,,,,,,,,,,,,,,S,146,star,1,0,,,,,,,,,,,,,,,,repeat,number,numRpt,j,0.5419,Hi,,,,,,3,,,,,,,,high,30,0,30,0,1,,,,,,,,,
295099,2022-09-22_19h00.30.566,vts_reward_expectancy,2022.2.4,Win32,60.69802731,Chrome,1536,864,,,,,1,1095,,,,,,,,,,,,,,,,,U,160,triangle,1,0,,,,,,,,,,,,,,,,repeat,number,numRpt,k,0.3463,Lo,,,,,,3,,,,,,,,high,31,0,31,0,1,,,,,,,,,
295099,2022-09-22_19h00.30.566,vts_reward_expectancy,2022.2.4,Win32,60.69802731,Chrome,1536,864,,,,,0,1095,,,,,,,,,,,,,,,,,D,139,circle,1,0,,,,,,,,,,,,,,,,switch,letter,lettSwt,d,0.7274,Hi,,,,,,4,,,,,,space,0.9632,low,0,0,0,0,1,,,,,,,,,
295099,2022-09-22_19h00.30.566,vts_reward_expectancy,2022.2.4,Win32,60.69802731,Chrome,1536,864,,,,,0,1095,,,,,,,,,,,,,,,,,U,160,hexagon,0,0,,,,,,,,,,,,,,,,repeat,letter,NA,d,0.4596,Hi,,,,,,4,,,,,,,,low,1,0,1,0,1,,,,,,,,,
295099,2022-09-22_19h00.30.566,vts_reward_expectancy,2022.2.4,Win32,60.69802731,Chrome,1536,864,,,,,10,1105,,,,,,,,,,,,,,,,,B,132,circle,1,1,,,,,,,,,,,,,,,,repeat,letter,lettRpt,d,0.4596,Hi,,,,,,4,,,,,,,,low,2,0,2,0,1,,,,,,,,,
295099,2022-09-22_19h00.30.566,vts_reward_expectancy,2022.2.4,Win32,60.69802731,Chrome,1536,864,,,,,0,1105,,,,,,,,,,,,,,,,,H,146,hexagon,0,0,,,,,,,,,,,,,,,,repeat,letter,NA,f,0.358,Hi,,,,,,4,,,,,,,,low,3,0,3,0,1,,,,,,,,,
295099,2022-09-22_19h00.30.566,vts_reward_expectancy,2022.2.4,Win32,60.69802731,Chrome,1536,864,,,,,10,1115,,,,,,,,,,,,,,,,,Y,167,circle,1,1,,,,,,,,,,,,,,,,switch,number,numSwt,k,0.3275,Hi,,,,,,4,,,,,,,,low,4,0,4,0,1,,,,,,,,,
295099,2022-09-22_19h00.30.566,vts_reward_expectancy,2022.2.4,Win32,60.69802731,Chrome,1536,864,,,,,10,1125,,,,,,,,,,,,,,,,,F,181,hexagon,1,0,,,,,,,,,,,,,,,,repeat,number,numRpt,k,0.4353,Lo,,,,,,4,,,,,,,,low,5,0,5,0,1,,,,,,,,,
295099,2022-09-22_19h00.30.566,vts_reward_expectancy,2022.2.4,Win32,60.69802731,Chrome,1536,864,,,,,10,1135,,,,,,,,,,,,,,,,,W,174,circle,1,0,,,,,,,,,,,,,,,,repeat,number,numRpt,k,0.3929,Hi,,,,,,4,,,,,,,,low,6,0,6,0,1,,,,,,,,,
295099,2022-09-22_19h00.30.566,vts_reward_expectancy,2022.2.4,Win32,60.69802731,Chrome,1536,864,,,,,10,1145,,,,,,,,,,,,,,,,,S,125,hexagon,1,0,,,,,,,,,,,,,,,,repeat,number,numRpt,j,0.4103,Lo,,,,,,4,,,,,,,,low,7,0,7,0,1,,,,,,,,,
295099,2022-09-22_19h00.30.566,vts_reward_expectancy,2022.2.4,Win32,60.69802731,Chrome,1536,864,,,,,1,1146,,,,,,,,,,,,,,,,,D,139,circle,1,0,,,,,,,,,,,,,,,,repeat,number,numRpt,j,0.3942,Hi,,,,,,4,,,,,,,,low,8,0,8,0,1,,,,,,,,,
295099,2022-09-22_19h00.30.566,vts_reward_expectancy,2022.2.4,Win32,60.69802731,Chrome,1536,864,,,,,10,1156,,,,,,,,,,,,,,,,,U,160,hexagon,1,0,,,,,,,,,,,,,,,,repeat,number,numRpt,k,0.6995,Lo,,,,,,4,,,,,,,,low,9,0,9,0,1,,,,,,,,,
295099,2022-09-22_19h00.30.566,vts_reward_expectancy,2022.2.4,Win32,60.69802731,Chrome,1536,864,,,,,1,1157,,,,,,,,,,,,,,,,,B,132,hexagon,1,0,,,,,,,,,,,,,,,,switch,letter,lettSwt,d,0.4622,Lo,,,,,,4,,,,,,,,low,10,0,10,0,1,,,,,,,,,
295099,2022-09-22_19h00.30.566,vts_reward_expectancy,2022.2.4,Win32,60.69802731,Chrome,1536,864,,,,,0,1157,,,,,,,,,,,,,,,,,H,146,circle,0,0,,,,,,,,,,,,,,,,repeat,letter,NA,f,0.4629,Lo,,,,,,4,,,,,,,,low,11,0,11,0,1,,,,,,,,,
295099,2022-09-22_19h00.30.566,vts_reward_expectancy,2022.2.4,Win32,60.69802731,Chrome,1536,864,,,,,1,1158,,,,,,,,,,,,,,,,,Y,167,hexagon,1,1,,,,,,,,,,,,,,,,repeat,letter,lettRpt,f,0.4088,Lo,,,,,,4,,,,,,,,low,12,0,12,0,1,,,,,,,,,
295099,2022-09-22_19h00.30.566,vts_reward_expectancy,2022.2.4,Win32,60.69802731,Chrome,1536,864,,,,,10,1168,,,,,,,,,,,,,,,,,F,181,circle,1,0,,,,,,,,,,,,,,,,repeat,letter,lettRpt,d,0.3095,Hi,,,,,,4,,,,,,,,low,13,0,13,0,1,,,,,,,,,
295099,2022-09-22_19h00.30.566,vts_reward_expectancy,2022.2.4,Win32,60.69802731,Chrome,1536,864,,,,,10,1178,,,,,,,,,,,,,,,,,W,174,hexagon,1,0,,,,,,,,,,,,,,,,repeat,letter,lettRpt,f,0.3583,Lo,,,,,,4,,,,,,,,low,14,0,14,0,1,,,,,,,,,
295099,2022-09-22_19h00.30.566,vts_reward_expectancy,2022.2.4,Win32,60.69802731,Chrome,1536,864,,,,,0,1178,,,,,,,,,,,,,,,,,S,125,circle,0,0,,,,,,,,,,,,,,,,repeat,letter,NA,d,0.3753,Lo,,,,,,4,,,,,,,,low,15,0,15,0,1,,,,,,,,,
295099,2022-09-22_19h00.30.566,vts_reward_expectancy,2022.2.4,Win32,60.69802731,Chrome,1536,864,,,,,1,1179,,,,,,,,,,,,,,,,,F,125,hexagon,1,1,,,,,,,,,,,,,,,,switch,number,numSwt,j,0.6286,Lo,,,,,,4,,,,,,,,low,16,0,16,0,1,,,,,,,,,
295099,2022-09-22_19h00.30.566,vts_reward_expectancy,2022.2.4,Win32,60.69802731,Chrome,1536,864,,,,,1,1180,,,,,,,,,,,,,,,,,W,181,circle,1,0,,,,,,,,,,,,,,,,repeat,number,numRpt,k,0.3448,Hi,,,,,,4,,,,,,,,low,17,0,17,0,1,,,,,,,,,
295099,2022-09-22_19h00.30.566,vts_reward_expectancy,2022.2.4,Win32,60.69802731,Chrome,1536,864,,,,,0,1180,,,,,,,,,,,,,,,,,S,160,circle,1,0,,,,,,,,,,,,,,,,repeat,number,numRpt,k,0.4791,Hi,,,,,,4,,,,,,,,low,18,0,18,0,1,,,,,,,,,
295099,2022-09-22_19h00.30.566,vts_reward_expectancy,2022.2.4,Win32,60.69802731,Chrome,1536,864,,,,,1,1181,,,,,,,,,,,,,,,,,B,174,hexagon,1,0,,,,,,,,,,,,,,,,repeat,number,numRpt,k,0.5425,Lo,,,,,,4,,,,,,,,low,19,0,19,0,1,,,,,,,,,
295099,2022-09-22_19h00.30.566,vts_reward_expectancy,2022.2.4,Win32,60.69802731,Chrome,1536,864,,,,,1,1182,,,,,,,,,,,,,,,,,Y,139,circle,1,0,,,,,,,,,,,,,,,,repeat,number,numRpt,j,0.3519,Hi,,,,,,4,,,,,,,,low,20,0,20,0,1,,,,,,,,,
295099,2022-09-22_19h00.30.566,vts_reward_expectancy,2022.2.4,Win32,60.69802731,Chrome,1536,864,,,,,10,1192,,,,,,,,,,,,,,,,,U,167,hexagon,1,0,,,,,,,,,,,,,,,,repeat,number,numRpt,k,0.2869,Lo,,,,,,4,,,,,,,,low,21,0,21,0,1,,,,,,,,,
295099,2022-09-22_19h00.30.566,vts_reward_expectancy,2022.2.4,Win32,60.69802731,Chrome,1536,864,,,,,10,1202,,,,,,,,,,,,,,,,,D,146,circle,1,0,,,,,,,,,,,,,,,,repeat,number,numRpt,j,0.3779,Hi,,,,,,4,,,,,,,,low,22,0,22,0,1,,,,,,,,,
295099,2022-09-22_19h00.30.566,vts_reward_expectancy,2022.2.4,Win32,60.69802731,Chrome,1536,864,,,,,10,1212,,,,,,,,,,,,,,,,,H,132,hexagon,1,0,,,,,,,,,,,,,,,,repeat,number,numRpt,j,0.5269,Lo,,,,,,4,,,,,,,,low,23,0,23,0,1,,,,,,,,,
295099,2022-09-22_19h00.30.566,vts_reward_expectancy,2022.2.4,Win32,60.69802731,Chrome,1536,864,,,,,10,1222,,,,,,,,,,,,,,,,,B,146,hexagon,1,0,,,,,,,,,,,,,,,,switch,letter,lettSwt,d,0.3758,Lo,,,,,,4,,,,,,,,low,24,0,24,0,1,,,,,,,,,
295099,2022-09-22_19h00.30.566,vts_reward_expectancy,2022.2.4,Win32,60.69802731,Chrome,1536,864,,,,,0,1222,,,,,,,,,,,,,,,,,H,174,circle,0,0,,,,,,,,,,,,,,,,repeat,letter,NA,f,0.3431,Lo,,,,,,4,,,,,,,,low,25,0,25,0,1,,,,,,,,,
295099,2022-09-22_19h00.30.566,vts_reward_expectancy,2022.2.4,Win32,60.69802731,Chrome,1536,864,,,,,1,1223,,,,,,,,,,,,,,,,,U,167,hexagon,1,1,,,,,,,,,,,,,,,,repeat,letter,lettRpt,f,0.4967,Lo,,,,,,4,,,,,,,,low,26,0,26,0,1,,,,,,,,,
295099,2022-09-22_19h00.30.566,vts_reward_expectancy,2022.2.4,Win32,60.69802731,Chrome,1536,864,,,,,0,1223,,,,,,,,,,,,,,,,,D,125,circle,1,0,,,,,,,,,,,,,,,,repeat,letter,lettRpt,d,0.5093,Hi,,,,,,4,,,,,,,,low,27,0,27,0,1,,,,,,,,,
295099,2022-09-22_19h00.30.566,vts_reward_expectancy,2022.2.4,Win32,60.69802731,Chrome,1536,864,,,,,1,1224,,,,,,,,,,,,,,,,,F,132,hexagon,1,0,,,,,,,,,,,,,,,,repeat,letter,lettRpt,d,0.6287,Lo,,,,,,4,,,,,,,,low,28,0,28,0,1,,,,,,,,,
295099,2022-09-22_19h00.30.566,vts_reward_expectancy,2022.2.4,Win32,60.69802731,Chrome,1536,864,,,,,0,1224,,,,,,,,,,,,,,,,,S,139,circle,1,0,,,,,,,,,,,,,,,,repeat,letter,lettRpt,f,0.5285,Hi,,,,,,4,,,,,,,,low,29,0,29,0,1,,,,,,,,,
295099,2022-09-22_19h00.30.566,vts_reward_expectancy,2022.2.4,Win32,60.69802731,Chrome,1536,864,,,,,1,1225,,,,,,,,,,,,,,,,,Y,160,hexagon,1,0,,,,,,,,,,,,,,,,repeat,letter,lettRpt,f,0.4093,Lo,,,,,,4,,,,,,,,low,30,0,30,0,1,,,,,,,,,
295099,2022-09-22_19h00.30.566,vts_reward_expectancy,2022.2.4,Win32,60.69802731,Chrome,1536,864,,,,,1,1226,,,,,,,,,,,,,,,,,W,181,circle,1,0,,,,,,,,,,,,,,,,repeat,letter,lettRpt,f,0.3754,Hi,,,,,,4,,,,,,,,low,31,0,31,0,1,,,,,,,,,
295099,2022-09-22_19h00.30.566,vts_reward_expectancy,2022.2.4,Win32,60.69802731,Chrome,1536,864,,,,,1,1227,,,,,,,,,,,,,,,,,H,181,triangle,1,0,,,,,,,,,,,,,,,,repeat,letter,lettRpt,d,0.4531,Lo,,,,,,5,,,,,,space,0.974,high,0,0,0,0,1,,,,,,,,,
295099,2022-09-22_19h00.30.566,vts_reward_expectancy,2022.2.4,Win32,60.69802731,Chrome,1536,864,,,,,1,1228,,,,,,,,,,,,,,,,,U,174,star,1,0,,,,,,,,,,,,,,,,repeat,letter,lettRpt,f,0.3596,Hi,,,,,,5,,,,,,,,high,1,0,1,0,1,,,,,,,,,
295099,2022-09-22_19h00.30.566,vts_reward_expectancy,2022.2.4,Win32,60.69802731,Chrome,1536,864,,,,,10,1238,,,,,,,,,,,,,,,,,D,125,triangle,1,0,,,,,,,,,,,,,,,,switch,number,numSwt,j,0.3825,Lo,,,,,,5,,,,,,,,high,2,0,2,0,1,,,,,,,,,
295099,2022-09-22_19h00.30.566,vts_reward_expectancy,2022.2.4,Win32,60.69802731,Chrome,1536,864,,,,,10,1248,,,,,,,,,,,,,,,,,S,160,star,1,0,,,,,,,,,,,,,,,,repeat,number,numRpt,k,0.3828,Hi,,,,,,5,,,,,,,,high,3,0,3,0,1,,,,,,,,,
295099,2022-09-22_19h00.30.566,vts_reward_expectancy,2022.2.4,Win32,60.69802731,Chrome,1536,864,,,,,1,1249,,,,,,,,,,,,,,,,,F,139,triangle,1,0,,,,,,,,,,,,,,,,repeat,number,numRpt,j,0.5271,Lo,,,,,,5,,,,,,,,high,4,0,4,0,1,,,,,,,,,
295099,2022-09-22_19h00.30.566,vts_reward_expectancy,2022.2.4,Win32,60.69802731,Chrome,1536,864,,,,,0,1249,,,,,,,,,,,,,,,,,B,132,star,1,0,,,,,,,,,,,,,,,,repeat,number,numRpt,j,0.4523,Hi,,,,,,5,,,,,,,,high,5,0,5,0,1,,,,,,,,,
295099,2022-09-22_19h00.30.566,vts_reward_expectancy,2022.2.4,Win32,60.69802731,Chrome,1536,864,,,,,0,1249,,,,,,,,,,,,,,,,,W,146,star,1,0,,,,,,,,,,,,,,,,switch,letter,lettSwt,f,0.4941,Hi,,,,,,5,,,,,,,,high,6,0,6,0,1,,,,,,,,,
295099,2022-09-22_19h00.30.566,vts_reward_expectancy,2022.2.4,Win32,60.69802731,Chrome,1536,864,,,,,1,1250,,,,,,,,,,,,,,,,,Y,167,triangle,1,0,,,,,,,,,,,,,,,,repeat,letter,lettRpt,f,0.4286,Lo,,,,,,5,,,,,,,,high,7,0,7,0,1,,,,,,,,,
295099,2022-09-22_19h00.30.566,vts_reward_expectancy,2022.2.4,Win32,60.69802731,Chrome,1536,864,,,,,0,1250,,,,,,,,,,,,,,,,,H,181,triangle,0,0,,,,,,,,,,,,,,,,repeat,letter,NA,f,0.3947,Lo,,,,,,5,,,,,,,,high,8,0,8,0,1,,,,,,,,,
295099,2022-09-22_19h00.30.566,vts_reward_expectancy,2022.2.4,Win32,60.69802731,Chrome,1536,864,,,,,10,1260,,,,,,,,,,,,,,,,,U,174,star,1,1,,,,,,,,,,,,,,,,repeat,letter,lettRpt,f,0.3748,Hi,,,,,,5,,,,,,,,high,9,0,9,0,1,,,,,,,,,
295099,2022-09-22_19h00.30.566,vts_reward_expectancy,2022.2.4,Win32,60.69802731,Chrome,1536,864,,,,,0,1260,,,,,,,,,,,,,,,,,D,125,star,1,0,,,,,,,,,,,,,,,,repeat,letter,lettRpt,d,0.5167,Hi,,,,,,5,,,,,,,,high,10,0,10,0,1,,,,,,,,,
295099,2022-09-22_19h00.30.566,vts_reward_expectancy,2022.2.4,Win32,60.69802731,Chrome,1536,864,,,,,1,1261,,,,,,,,,,,,,,,,,S,160,triangle,1,0,,,,,,,,,,,,,,,,switch,number,numSwt,k,0.7943,Lo,,,,,,5,,,,,,,,high,11,0,11,0,1,,,,,,,,,
295099,2022-09-22_19h00.30.566,vts_reward_expectancy,2022.2.4,Win32,60.69802731,Chrome,1536,864,,,,,1,1262,,,,,,,,,,,,,,,,,F,139,triangle,1,0,,,,,,,,,,,,,,,,repeat,number,numRpt,j,0.4925,Lo,,,,,,5,,,,,,,,high,12,0,12,0,1,,,,,,,,,
295099,2022-09-22_19h00.30.566,vts_reward_expectancy,2022.2.4,Win32,60.69802731,Chrome,1536,864,,,,,0,1262,,,,,,,,,,,,,,,,,B,132,star,1,0,,,,,,,,,,,,,,,,repeat,number,numRpt,j,0.6068,Hi,,,,,,5,,,,,,,,high,13,0,13,0,1,,,,,,,,,
295099,2022-09-22_19h00.30.566,vts_reward_expectancy,2022.2.4,Win32,60.69802731,Chrome,1536,864,,,,,0,1262,,,,,,,,,,,,,,,,,W,146,star,1,0,,,,,,,,,,,,,,,,repeat,number,numRpt,j,0.4757,Hi,,,,,,5,,,,,,,,high,14,0,14,0,1,,,,,,,,,
295099,2022-09-22_19h00.30.566,vts_reward_expectancy,2022.2.4,Win32,60.69802731,Chrome,1536,864,,,,,1,1263,,,,,,,,,,,,,,,,,Y,167,triangle,1,0,,,,,,,,,,,,,,,,switch,letter,lettSwt,f,0.4132,Lo,,,,,,5,,,,,,,,high,15,0,15,0,1,,,,,,,,,
295099,2022-09-22_19h00.30.566,vts_reward_expectancy,2022.2.4,Win32,60.69802731,Chrome,1536,864,,,,,1,1264,,,,,,,,,,,,,,,,,W,125,triangle,1,0,,,,,,,,,,,,,,,,repeat,letter,lettRpt,f,0.3771,Lo,,,,,,5,,,,,,,,high,16,0,16,0,1,,,,,,,,,
295099,2022-09-22_19h00.30.566,vts_reward_expectancy,2022.2.4,Win32,60.69802731,Chrome,1536,864,,,,,0,1264,,,,,,,,,,,,,,,,,S,146,star,1,0,,,,,,,,,,,,,,,,repeat,letter,lettRpt,f,0.5275,Hi,,,,,,5,,,,,,,,high,17,0,17,0,1,,,,,,,,,
295099,2022-09-22_19h00.30.566,vts_reward_expectancy,2022.2.4,Win32,60.69802731,Chrome,1536,864,,,,,0,1264,,,,,,,,,,,,,,,,,D,167,star,0,0,,,,,,,,,,,,,,,,repeat,letter,NA,f,0.427,Hi,,,,,,5,,,,,,,,high,18,0,18,0,1,,,,,,,,,
295099,2022-09-22_19h00.30.566,vts_reward_expectancy,2022.2.4,Win32,60.69802731,Chrome,1536,864,,,,,1,1265,,,,,,,,,,,,,,,,,Y,181,triangle,1,1,,,,,,,,,,,,,,,,repeat,letter,lettRpt,f,0.3927,Lo,,,,,,5,,,,,,,,high,19,0,19,0,1,,,,,,,,,
295099,2022-09-22_19h00.30.566,vts_reward_expectancy,2022.2.4,Win32,60.69802731,Chrome,1536,864,,,,,0,1265,,,,,,,,,,,,,,,,,U,174,star,1,0,,,,,,,,,,,,,,,,switch,number,numSwt,k,0.5424,Hi,,,,,,5,,,,,,,,high,20,0,20,0,1,,,,,,,,,
295099,2022-09-22_19h00.30.566,vts_reward_expectancy,2022.2.4,Win32,60.69802731,Chrome,1536,864,,,,,1,1266,,,,,,,,,,,,,,,,,F,132,triangle,1,0,,,,,,,,,,,,,,,,repeat,number,numRpt,j,0.3455,Lo,,,,,,5,,,,,,,,high,21,0,21,0,1,,,,,,,,,
295099,2022-09-22_19h00.30.566,vts_reward_expectancy,2022.2.4,Win32,60.69802731,Chrome,1536,864,,,,,10,1276,,,,,,,,,,,,,,,,,H,160,triangle,1,0,,,,,,,,,,,,,,,,repeat,number,numRpt,k,0.4983,Lo,,,,,,5,,,,,,,,high,22,0,22,0,1,,,,,,,,,
295099,2022-09-22_19h00.30.566,vts_reward_expectancy,2022.2.4,Win32,60.69802731,Chrome,1536,864,,,,,0,1276,,,,,,,,,,,,,,,,,B,139,star,1,0,,,,,,,,,,,,,,,,repeat,number,numRpt,j,0.3924,Hi,,,,,,5,,,,,,,,high,23,0,23,0,1,,,,,,,,,
295099,2022-09-22_19h00.30.566,vts_reward_expectancy,2022.2.4,Win32,60.69802731,Chrome,1536,864,,,,,0,1276,,,,,,,,,,,,,,,,,H,160,star,1,0,,,,,,,,,,,,,,,,repeat,number,numRpt,k,0.6135,Hi,,,,,,5,,,,,,,,high,24,0,24,0,1,,,,,,,,,
295099,2022-09-22_19h00.30.566,vts_reward_expectancy,2022.2.4,Win32,60.69802731,Chrome,1536,864,,,,,1,1277,,,,,,,,,,,,,,,,,S,132,triangle,1,0,,,,,,,,,,,,,,,,repeat,number,numRpt,j,0.3594,Lo,,,,,,5,,,,,,,,high,25,0,25,0,1,,,,,,,,,
295099,2022-09-22_19h00.30.566,vts_reward_expectancy,2022.2.4,Win32,60.69802731,Chrome,1536,864,,,,,0,1277,,,,,,,,,,,,,,,,,D,146,star,1,0,,,,,,,,,,,,,,,,repeat,number,numRpt,j,0.5765,Hi,,,,,,5,,,,,,,,high,26,0,26,0,1,,,,,,,,,
295099,2022-09-22_19h00.30.566,vts_reward_expectancy,2022.2.4,Win32,60.69802731,Chrome,1536,864,,,,,1,1278,,,,,,,,,,,,,,,,,B,125,triangle,1,0,,,,,,,,,,,,,,,,repeat,number,numRpt,j,0.4926,Lo,,,,,,5,,,,,,,,high,27,0,27,0,1,,,,,,,,,
295099,2022-09-22_19h00.30.566,vts_reward_expectancy,2022.2.4,Win32,60.69802731,Chrome,1536,864,,,,,10,1288,,,,,,,,,,,,,,,,,U,167,triangle,1,0,,,,,,,,,,,,,,,,repeat,number,numRpt,k,0.4166,Lo,,,,,,5,,,,,,,,high,28,0,28,0,1,,,,,,,,,
295099,2022-09-22_19h00.30.566,vts_reward_expectancy,2022.2.4,Win32,60.69802731,Chrome,1536,864,,,,,0,1288,,,,,,,,,,,,,,,,,F,174,star,1,0,,,,,,,,,,,,,,,,repeat,number,numRpt,k,0.4982,Hi,,,,,,5,,,,,,,,high,29,0,29,0,1,,,,,,,,,
295099,2022-09-22_19h00.30.566,vts_reward_expectancy,2022.2.4,Win32,60.69802731,Chrome,1536,864,,,,,10,1298,,,,,,,,,,,,,,,,,W,139,star,1,0,,,,,,,,,,,,,,,,switch,letter,lettSwt,f,0.3782,Hi,,,,,,5,,,,,,,,high,30,0,30,0,1,,,,,,,,,
295099,2022-09-22_19h00.30.566,vts_reward_expectancy,2022.2.4,Win32,60.69802731,Chrome,1536,864,,,,,1,1299,,,,,,,,,,,,,,,,,Y,181,triangle,1,0,,,,,,,,,,,,,,,,repeat,letter,lettRpt,f,0.4353,Lo,,,,,,5,,,,,,,,high,31,0,31,0,1,,,,,,,,,
295099,2022-09-22_19h00.30.566,vts_reward_expectancy,2022.2.4,Win32,60.69802731,Chrome,1536,864,,,,,,,,,,,,,,,,,,,,,,,,,,,,,,,,,,,,,,,,,,,,,,,,,,,,,,6,,,,,,,,,,,,,,select different shapes and then different numbers and letters and then the numbers and letters based on the shapes,2,the shapes part,4,4,1,I started getting very frustrated when I would get answers wrong towards the end,1536,864
