participant,date,expName,psychopyVersion,OS,frameRate,browser,xResolution,yResolution,key_resp.keys,key_resp.rt,training_resp.keys,training_resp.rt,points_trial,points_cumul,trainBlock,training.thisRepN,training.thisTrialN,training.thisN,training.thisIndex,training.ran,LTriangleOpac,LCircleOpac,LHexagonOpac,LStarOpac,RTriangleOpac,RCircleOpac,RHexagonOpac,RStarOpac,LShape_ID,RShape_ID,curr_topStim,curr_bottStim,curr_shape,acc,E1,target_resp_prac1.keys,target_resp_prac1.rt,pracBlock,task1_prac_trials.thisRepN,task1_prac_trials.thisTrialN,task1_prac_trials.thisN,task1_prac_trials.thisIndex,task1_prac_trials.ran,target_resp_prac2.keys,target_resp_prac2.rt,task2_praac_trials.thisRepN,task2_praac_trials.thisTrialN,task2_praac_trials.thisN,task2_praac_trials.thisIndex,task2_praac_trials.ran,alt,task,condition,target_resp.keys,target_resp.rt,rewCond,vts_practice_trials.thisRepN,vts_practice_trials.thisTrialN,vts_practice_trials.thisN,vts_practice_trials.thisIndex,vts_practice_trials.ran,blockNum,trials_norew.thisRepN,trials_norew.thisTrialN,trials_norew.thisN,trials_norew.thisIndex,trials_norew.ran,key_resp_2.keys,key_resp_2.rt,rewExpect,trials_rew.thisRepN,trials_rew.thisTrialN,trials_rew.thisN,trials_rew.thisIndex,trials_rew.ran,Q1,Q2,Q2_text,Q3,Q4,Q5_text,Q5,xRes,yRes
297622,2022-10-06_16h01.00.615,vts_reward_expectancy,2022.2.4,Win32,59.95203837,Chrome,1280,720,,,,,,,,,,,,,,,,,,,,,,,,,,,,,,,,,,,,,,,,,,,,,,,,,,,,,,,,,,,,,,,,,,,,,,,,,,,,
297622,2022-10-06_16h01.00.615,vts_reward_expectancy,2022.2.4,Win32,59.95203837,Chrome,1280,720,space,12.9604,,,,,,,,,,,,,,,,,,,,,,,,,,,,,,,,,,,,,,,,,,,,,,,,,,,,,,,,,,,,,,,,,,,,,,,,,,
297622,2022-10-06_16h01.00.615,vts_reward_expectancy,2022.2.4,Win32,59.95203837,Chrome,1280,720,,,,,,,,,,,,,,,,,,,,,,,,,,,,,,,,,,,,,,,,,,,,,,,,,,,,,,,,,,,,,,,,,,,,,,,,,,,,
297622,2022-10-06_16h01.00.615,vts_reward_expectancy,2022.2.4,Win32,59.95203837,Chrome,1280,720,,,l,2.875,10,10,0,0,0,0,10,1,0,0,0,1,0,1,0,0,star ,circle,,,,,,,,,,,,,,,,,,,,,,,,,,,,,,,,,,,,,,,,,,,,,,,,,,,,,,
297622,2022-10-06_16h01.00.615,vts_reward_expectancy,2022.2.4,Win32,59.95203837,Chrome,1280,720,,,l,2.422,1,11,0,0,1,1,2,1,1,0,0,0,0,0,0,1,triangle,star,,,,,,,,,,,,,,,,,,,,,,,,,,,,,,,,,,,,,,,,,,,,,,,,,,,,,,
297622,2022-10-06_16h01.00.615,vts_reward_expectancy,2022.2.4,Win32,59.95203837,Chrome,1280,720,,,l,3.6838,1,12,0,0,2,2,7,1,0,0,1,0,0,1,0,0,hexagon,circle,,,,,,,,,,,,,,,,,,,,,,,,,,,,,,,,,,,,,,,,,,,,,,,,,,,,,,
297622,2022-10-06_16h01.00.615,vts_reward_expectancy,2022.2.4,Win32,59.95203837,Chrome,1280,720,,,l,1.4676,10,22,0,0,3,3,3,1,0,1,0,0,1,0,0,0,circle,triangle,,,,,,,,,,,,,,,,,,,,,,,,,,,,,,,,,,,,,,,,,,,,,,,,,,,,,,
297622,2022-10-06_16h01.00.615,vts_reward_expectancy,2022.2.4,Win32,59.95203837,Chrome,1280,720,,,l,1.8674,1,23,0,0,4,4,1,1,1,0,0,0,0,0,1,0,triangle,hexagon,,,,,,,,,,,,,,,,,,,,,,,,,,,,,,,,,,,,,,,,,,,,,,,,,,,,,,
297622,2022-10-06_16h01.00.615,vts_reward_expectancy,2022.2.4,Win32,59.95203837,Chrome,1280,720,,,a,9.7234,1,24,0,0,5,5,11,1,0,0,0,1,0,0,1,0,star,hexagon,,,,,,,,,,,,,,,,,,,,,,,,,,,,,,,,,,,,,,,,,,,,,,,,,,,,,,
297622,2022-10-06_16h01.00.615,vts_reward_expectancy,2022.2.4,Win32,59.95203837,Chrome,1280,720,,,a,1.018,1,25,0,0,6,6,5,1,0,1,0,0,0,0,0,1,circle,star,,,,,,,,,,,,,,,,,,,,,,,,,,,,,,,,,,,,,,,,,,,,,,,,,,,,,,
297622,2022-10-06_16h01.00.615,vts_reward_expectancy,2022.2.4,Win32,59.95203837,Chrome,1280,720,,,l,1.1074,10,35,0,0,7,7,6,1,0,0,1,0,1,0,0,0,hexagon,triangle,,,,,,,,,,,,,,,,,,,,,,,,,,,,,,,,,,,,,,,,,,,,,,,,,,,,,,
297622,2022-10-06_16h01.00.615,vts_reward_expectancy,2022.2.4,Win32,59.95203837,Chrome,1280,720,,,l,0.9016,1,36,0,0,8,8,4,1,0,1,0,0,0,0,1,0,circle,hexagon,,,,,,,,,,,,,,,,,,,,,,,,,,,,,,,,,,,,,,,,,,,,,,,,,,,,,,
297622,2022-10-06_16h01.00.615,vts_reward_expectancy,2022.2.4,Win32,59.95203837,Chrome,1280,720,,,l,1.5343,10,46,0,0,9,9,0,1,1,0,0,0,0,1,0,0,triangle,circle,,,,,,,,,,,,,,,,,,,,,,,,,,,,,,,,,,,,,,,,,,,,,,,,,,,,,,
297622,2022-10-06_16h01.00.615,vts_reward_expectancy,2022.2.4,Win32,59.95203837,Chrome,1280,720,,,a,1.1687,10,56,0,0,10,10,8,1,0,0,1,0,0,0,0,1,hexagon,star,,,,,,,,,,,,,,,,,,,,,,,,,,,,,,,,,,,,,,,,,,,,,,,,,,,,,,
297622,2022-10-06_16h01.00.615,vts_reward_expectancy,2022.2.4,Win32,59.95203837,Chrome,1280,720,,,l,0.6569,10,66,0,0,11,11,9,1,0,0,0,1,1,0,0,0,star,triangle,,,,,,,,,,,,,,,,,,,,,,,,,,,,,,,,,,,,,,,,,,,,,,,,,,,,,,
297622,2022-10-06_16h01.00.615,vts_reward_expectancy,2022.2.4,Win32,59.95203837,Chrome,1280,720,,,a,0.5696,1,67,0,1,0,12,11,1,0,0,0,1,0,0,1,0,star,hexagon,,,,,,,,,,,,,,,,,,,,,,,,,,,,,,,,,,,,,,,,,,,,,,,,,,,,,,
297622,2022-10-06_16h01.00.615,vts_reward_expectancy,2022.2.4,Win32,59.95203837,Chrome,1280,720,,,l,2.717,1,68,0,1,1,13,6,1,0,0,1,0,1,0,0,0,hexagon,triangle,,,,,,,,,,,,,,,,,,,,,,,,,,,,,,,,,,,,,,,,,,,,,,,,,,,,,,
297622,2022-10-06_16h01.00.615,vts_reward_expectancy,2022.2.4,Win32,59.95203837,Chrome,1280,720,,,l,1.367,1,69,0,1,2,14,7,1,0,0,1,0,0,1,0,0,hexagon,circle,,,,,,,,,,,,,,,,,,,,,,,,,,,,,,,,,,,,,,,,,,,,,,,,,,,,,,
297622,2022-10-06_16h01.00.615,vts_reward_expectancy,2022.2.4,Win32,59.95203837,Chrome,1280,720,,,a,1.1357,1,70,0,1,3,15,2,1,1,0,0,0,0,0,0,1,triangle,star,,,,,,,,,,,,,,,,,,,,,,,,,,,,,,,,,,,,,,,,,,,,,,,,,,,,,,
297622,2022-10-06_16h01.00.615,vts_reward_expectancy,2022.2.4,Win32,59.95203837,Chrome,1280,720,,,a,0.8838,1,71,0,1,4,16,3,1,0,1,0,0,1,0,0,0,circle,triangle,,,,,,,,,,,,,,,,,,,,,,,,,,,,,,,,,,,,,,,,,,,,,,,,,,,,,,
297622,2022-10-06_16h01.00.615,vts_reward_expectancy,2022.2.4,Win32,59.95203837,Chrome,1280,720,,,l,1.4173,10,81,0,1,5,17,1,1,1,0,0,0,0,0,1,0,triangle,hexagon,,,,,,,,,,,,,,,,,,,,,,,,,,,,,,,,,,,,,,,,,,,,,,,,,,,,,,
297622,2022-10-06_16h01.00.615,vts_reward_expectancy,2022.2.4,Win32,59.95203837,Chrome,1280,720,,,l,1.0383,10,91,0,1,6,18,10,1,0,0,0,1,0,1,0,0,star ,circle,,,,,,,,,,,,,,,,,,,,,,,,,,,,,,,,,,,,,,,,,,,,,,,,,,,,,,
297622,2022-10-06_16h01.00.615,vts_reward_expectancy,2022.2.4,Win32,59.95203837,Chrome,1280,720,,,a,1.0396,1,92,0,1,7,19,5,1,0,1,0,0,0,0,0,1,circle,star,,,,,,,,,,,,,,,,,,,,,,,,,,,,,,,,,,,,,,,,,,,,,,,,,,,,,,
297622,2022-10-06_16h01.00.615,vts_reward_expectancy,2022.2.4,Win32,59.95203837,Chrome,1280,720,,,l,0.7,10,102,0,1,8,20,9,1,0,0,0,1,1,0,0,0,star,triangle,,,,,,,,,,,,,,,,,,,,,,,,,,,,,,,,,,,,,,,,,,,,,,,,,,,,,,
297622,2022-10-06_16h01.00.615,vts_reward_expectancy,2022.2.4,Win32,59.95203837,Chrome,1280,720,,,l,1.5054,1,103,0,1,9,21,4,1,0,1,0,0,0,0,1,0,circle,hexagon,,,,,,,,,,,,,,,,,,,,,,,,,,,,,,,,,,,,,,,,,,,,,,,,,,,,,,
297622,2022-10-06_16h01.00.615,vts_reward_expectancy,2022.2.4,Win32,59.95203837,Chrome,1280,720,,,a,0.9052,1,104,0,1,10,22,8,1,0,0,1,0,0,0,0,1,hexagon,star,,,,,,,,,,,,,,,,,,,,,,,,,,,,,,,,,,,,,,,,,,,,,,,,,,,,,,
297622,2022-10-06_16h01.00.615,vts_reward_expectancy,2022.2.4,Win32,59.95203837,Chrome,1280,720,,,l,0.6347,1,105,0,1,11,23,0,1,1,0,0,0,0,1,0,0,triangle,circle,,,,,,,,,,,,,,,,,,,,,,,,,,,,,,,,,,,,,,,,,,,,,,,,,,,,,,
297622,2022-10-06_16h01.00.615,vts_reward_expectancy,2022.2.4,Win32,59.95203837,Chrome,1280,720,,,l,2.1001,1,106,0,2,0,24,3,1,0,1,0,0,1,0,0,0,circle,triangle,,,,,,,,,,,,,,,,,,,,,,,,,,,,,,,,,,,,,,,,,,,,,,,,,,,,,,
297622,2022-10-06_16h01.00.615,vts_reward_expectancy,2022.2.4,Win32,59.95203837,Chrome,1280,720,,,a,0.9847,1,107,0,2,1,25,5,1,0,1,0,0,0,0,0,1,circle,star,,,,,,,,,,,,,,,,,,,,,,,,,,,,,,,,,,,,,,,,,,,,,,,,,,,,,,
297622,2022-10-06_16h01.00.615,vts_reward_expectancy,2022.2.4,Win32,59.95203837,Chrome,1280,720,,,l,0.9843,1,108,0,2,2,26,4,1,0,1,0,0,0,0,1,0,circle,hexagon,,,,,,,,,,,,,,,,,,,,,,,,,,,,,,,,,,,,,,,,,,,,,,,,,,,,,,
297622,2022-10-06_16h01.00.615,vts_reward_expectancy,2022.2.4,Win32,59.95203837,Chrome,1280,720,,,l,0.7968,1,109,0,2,3,27,8,1,0,0,1,0,0,0,0,1,hexagon,star,,,,,,,,,,,,,,,,,,,,,,,,,,,,,,,,,,,,,,,,,,,,,,,,,,,,,,
297622,2022-10-06_16h01.00.615,vts_reward_expectancy,2022.2.4,Win32,59.95203837,Chrome,1280,720,,,a,0.7027,1,110,0,2,4,28,11,1,0,0,0,1,0,0,1,0,star,hexagon,,,,,,,,,,,,,,,,,,,,,,,,,,,,,,,,,,,,,,,,,,,,,,,,,,,,,,
297622,2022-10-06_16h01.00.615,vts_reward_expectancy,2022.2.4,Win32,59.95203837,Chrome,1280,720,,,l,1.3336,1,111,0,2,5,29,1,1,1,0,0,0,0,0,1,0,triangle,hexagon,,,,,,,,,,,,,,,,,,,,,,,,,,,,,,,,,,,,,,,,,,,,,,,,,,,,,,
297622,2022-10-06_16h01.00.615,vts_reward_expectancy,2022.2.4,Win32,59.95203837,Chrome,1280,720,,,l,1.0517,10,121,0,2,6,30,7,1,0,0,1,0,0,1,0,0,hexagon,circle,,,,,,,,,,,,,,,,,,,,,,,,,,,,,,,,,,,,,,,,,,,,,,,,,,,,,,
297622,2022-10-06_16h01.00.615,vts_reward_expectancy,2022.2.4,Win32,59.95203837,Chrome,1280,720,,,a,1.7177,1,122,0,2,7,31,6,1,0,0,1,0,1,0,0,0,hexagon,triangle,,,,,,,,,,,,,,,,,,,,,,,,,,,,,,,,,,,,,,,,,,,,,,,,,,,,,,
297622,2022-10-06_16h01.00.615,vts_reward_expectancy,2022.2.4,Win32,59.95203837,Chrome,1280,720,,,a,1.3309,10,132,0,2,8,32,2,1,1,0,0,0,0,0,0,1,triangle,star,,,,,,,,,,,,,,,,,,,,,,,,,,,,,,,,,,,,,,,,,,,,,,,,,,,,,,
297622,2022-10-06_16h01.00.615,vts_reward_expectancy,2022.2.4,Win32,59.95203837,Chrome,1280,720,,,l,0.8179,1,133,0,2,9,33,10,1,0,0,0,1,0,1,0,0,star ,circle,,,,,,,,,,,,,,,,,,,,,,,,,,,,,,,,,,,,,,,,,,,,,,,,,,,,,,
297622,2022-10-06_16h01.00.615,vts_reward_expectancy,2022.2.4,Win32,59.95203837,Chrome,1280,720,,,l,1.0145,10,143,0,2,10,34,0,1,1,0,0,0,0,1,0,0,triangle,circle,,,,,,,,,,,,,,,,,,,,,,,,,,,,,,,,,,,,,,,,,,,,,,,,,,,,,,
297622,2022-10-06_16h01.00.615,vts_reward_expectancy,2022.2.4,Win32,59.95203837,Chrome,1280,720,,,a,1.6386,1,144,0,2,11,35,9,1,0,0,0,1,1,0,0,0,star,triangle,,,,,,,,,,,,,,,,,,,,,,,,,,,,,,,,,,,,,,,,,,,,,,,,,,,,,,
297622,2022-10-06_16h01.00.615,vts_reward_expectancy,2022.2.4,Win32,59.95203837,Chrome,1280,720,,,a,0.7014,1,145,1,0,0,0,5,1,0,1,0,0,0,0,0,1,circle,star,,,,,,,,,,,,,,,,,,,,,,,,,,,,,,,,,,,,,,,,,,,,,,,,,,,,,,
297622,2022-10-06_16h01.00.615,vts_reward_expectancy,2022.2.4,Win32,59.95203837,Chrome,1280,720,,,l,0.7058,10,155,1,0,1,1,10,1,0,0,0,1,0,1,0,0,star ,circle,,,,,,,,,,,,,,,,,,,,,,,,,,,,,,,,,,,,,,,,,,,,,,,,,,,,,,
297622,2022-10-06_16h01.00.615,vts_reward_expectancy,2022.2.4,Win32,59.95203837,Chrome,1280,720,,,l,1.3226,10,165,1,0,2,2,1,1,1,0,0,0,0,0,1,0,triangle,hexagon,,,,,,,,,,,,,,,,,,,,,,,,,,,,,,,,,,,,,,,,,,,,,,,,,,,,,,
297622,2022-10-06_16h01.00.615,vts_reward_expectancy,2022.2.4,Win32,59.95203837,Chrome,1280,720,,,a,1.4642,1,166,1,0,3,3,8,1,0,0,1,0,0,0,0,1,hexagon,star,,,,,,,,,,,,,,,,,,,,,,,,,,,,,,,,,,,,,,,,,,,,,,,,,,,,,,
297622,2022-10-06_16h01.00.615,vts_reward_expectancy,2022.2.4,Win32,59.95203837,Chrome,1280,720,,,l,0.9132,10,176,1,0,4,4,0,1,1,0,0,0,0,1,0,0,triangle,circle,,,,,,,,,,,,,,,,,,,,,,,,,,,,,,,,,,,,,,,,,,,,,,,,,,,,,,
297622,2022-10-06_16h01.00.615,vts_reward_expectancy,2022.2.4,Win32,59.95203837,Chrome,1280,720,,,l,0.9137,10,186,1,0,5,5,11,1,0,0,0,1,0,0,1,0,star,hexagon,,,,,,,,,,,,,,,,,,,,,,,,,,,,,,,,,,,,,,,,,,,,,,,,,,,,,,
297622,2022-10-06_16h01.00.615,vts_reward_expectancy,2022.2.4,Win32,59.95203837,Chrome,1280,720,,,l,2.1522,10,196,1,0,6,6,9,1,0,0,0,1,1,0,0,0,star,triangle,,,,,,,,,,,,,,,,,,,,,,,,,,,,,,,,,,,,,,,,,,,,,,,,,,,,,,
297622,2022-10-06_16h01.00.615,vts_reward_expectancy,2022.2.4,Win32,59.95203837,Chrome,1280,720,,,a,1.4677,10,206,1,0,7,7,2,1,1,0,0,0,0,0,0,1,triangle,star,,,,,,,,,,,,,,,,,,,,,,,,,,,,,,,,,,,,,,,,,,,,,,,,,,,,,,
297622,2022-10-06_16h01.00.615,vts_reward_expectancy,2022.2.4,Win32,59.95203837,Chrome,1280,720,,,l,1.0132,10,216,1,0,8,8,7,1,0,0,1,0,0,1,0,0,hexagon,circle,,,,,,,,,,,,,,,,,,,,,,,,,,,,,,,,,,,,,,,,,,,,,,,,,,,,,,
297622,2022-10-06_16h01.00.615,vts_reward_expectancy,2022.2.4,Win32,59.95203837,Chrome,1280,720,,,l,1.0813,1,217,1,0,9,9,3,1,0,1,0,0,1,0,0,0,circle,triangle,,,,,,,,,,,,,,,,,,,,,,,,,,,,,,,,,,,,,,,,,,,,,,,,,,,,,,
297622,2022-10-06_16h01.00.615,vts_reward_expectancy,2022.2.4,Win32,59.95203837,Chrome,1280,720,,,l,1.4851,1,218,1,0,10,10,6,1,0,0,1,0,1,0,0,0,hexagon,triangle,,,,,,,,,,,,,,,,,,,,,,,,,,,,,,,,,,,,,,,,,,,,,,,,,,,,,,
297622,2022-10-06_16h01.00.615,vts_reward_expectancy,2022.2.4,Win32,59.95203837,Chrome,1280,720,,,a,1.1256,10,228,1,0,11,11,4,1,0,1,0,0,0,0,1,0,circle,hexagon,,,,,,,,,,,,,,,,,,,,,,,,,,,,,,,,,,,,,,,,,,,,,,,,,,,,,,
297622,2022-10-06_16h01.00.615,vts_reward_expectancy,2022.2.4,Win32,59.95203837,Chrome,1280,720,,,a,1.4682,10,238,1,1,0,12,3,1,0,1,0,0,1,0,0,0,circle,triangle,,,,,,,,,,,,,,,,,,,,,,,,,,,,,,,,,,,,,,,,,,,,,,,,,,,,,,
297622,2022-10-06_16h01.00.615,vts_reward_expectancy,2022.2.4,Win32,59.95203837,Chrome,1280,720,,,l,1.0849,1,239,1,1,1,13,7,1,0,0,1,0,0,1,0,0,hexagon,circle,,,,,,,,,,,,,,,,,,,,,,,,,,,,,,,,,,,,,,,,,,,,,,,,,,,,,,
297622,2022-10-06_16h01.00.615,vts_reward_expectancy,2022.2.4,Win32,59.95203837,Chrome,1280,720,,,a,0.9838,1,240,1,1,2,14,6,1,0,0,1,0,1,0,0,0,hexagon,triangle,,,,,,,,,,,,,,,,,,,,,,,,,,,,,,,,,,,,,,,,,,,,,,,,,,,,,,
297622,2022-10-06_16h01.00.615,vts_reward_expectancy,2022.2.4,Win32,59.95203837,Chrome,1280,720,,,l,1.5068,1,241,1,1,3,15,2,1,1,0,0,0,0,0,0,1,triangle,star,,,,,,,,,,,,,,,,,,,,,,,,,,,,,,,,,,,,,,,,,,,,,,,,,,,,,,
297622,2022-10-06_16h01.00.615,vts_reward_expectancy,2022.2.4,Win32,59.95203837,Chrome,1280,720,,,l,0.8513,10,251,1,1,4,16,9,1,0,0,0,1,1,0,0,0,star,triangle,,,,,,,,,,,,,,,,,,,,,,,,,,,,,,,,,,,,,,,,,,,,,,,,,,,,,,
297622,2022-10-06_16h01.00.615,vts_reward_expectancy,2022.2.4,Win32,59.95203837,Chrome,1280,720,,,a,1.5036,10,261,1,1,5,17,8,1,0,0,1,0,0,0,0,1,hexagon,star,,,,,,,,,,,,,,,,,,,,,,,,,,,,,,,,,,,,,,,,,,,,,,,,,,,,,,
297622,2022-10-06_16h01.00.615,vts_reward_expectancy,2022.2.4,Win32,59.95203837,Chrome,1280,720,,,l,1.0645,10,271,1,1,6,18,10,1,0,0,0,1,0,1,0,0,star ,circle,,,,,,,,,,,,,,,,,,,,,,,,,,,,,,,,,,,,,,,,,,,,,,,,,,,,,,
297622,2022-10-06_16h01.00.615,vts_reward_expectancy,2022.2.4,Win32,59.95203837,Chrome,1280,720,,,a,0.9336,1,272,1,1,7,19,4,1,0,1,0,0,0,0,1,0,circle,hexagon,,,,,,,,,,,,,,,,,,,,,,,,,,,,,,,,,,,,,,,,,,,,,,,,,,,,,,
297622,2022-10-06_16h01.00.615,vts_reward_expectancy,2022.2.4,Win32,59.95203837,Chrome,1280,720,,,a,0.9395,10,282,1,1,8,20,5,1,0,1,0,0,0,0,0,1,circle,star,,,,,,,,,,,,,,,,,,,,,,,,,,,,,,,,,,,,,,,,,,,,,,,,,,,,,,
297622,2022-10-06_16h01.00.615,vts_reward_expectancy,2022.2.4,Win32,59.95203837,Chrome,1280,720,,,l,0.8853,10,292,1,1,9,21,1,1,1,0,0,0,0,0,1,0,triangle,hexagon,,,,,,,,,,,,,,,,,,,,,,,,,,,,,,,,,,,,,,,,,,,,,,,,,,,,,,
297622,2022-10-06_16h01.00.615,vts_reward_expectancy,2022.2.4,Win32,59.95203837,Chrome,1280,720,,,l,1.1836,10,302,1,1,10,22,0,1,1,0,0,0,0,1,0,0,triangle,circle,,,,,,,,,,,,,,,,,,,,,,,,,,,,,,,,,,,,,,,,,,,,,,,,,,,,,,
297622,2022-10-06_16h01.00.615,vts_reward_expectancy,2022.2.4,Win32,59.95203837,Chrome,1280,720,,,l,1.2174,1,303,1,1,11,23,11,1,0,0,0,1,0,0,1,0,star,hexagon,,,,,,,,,,,,,,,,,,,,,,,,,,,,,,,,,,,,,,,,,,,,,,,,,,,,,,
297622,2022-10-06_16h01.00.615,vts_reward_expectancy,2022.2.4,Win32,59.95203837,Chrome,1280,720,,,l,0.7677,10,313,1,2,0,24,11,1,0,0,0,1,0,0,1,0,star,hexagon,,,,,,,,,,,,,,,,,,,,,,,,,,,,,,,,,,,,,,,,,,,,,,,,,,,,,,
297622,2022-10-06_16h01.00.615,vts_reward_expectancy,2022.2.4,Win32,59.95203837,Chrome,1280,720,,,a,0.5417,10,323,1,2,1,25,5,1,0,1,0,0,0,0,0,1,circle,star,,,,,,,,,,,,,,,,,,,,,,,,,,,,,,,,,,,,,,,,,,,,,,,,,,,,,,
297622,2022-10-06_16h01.00.615,vts_reward_expectancy,2022.2.4,Win32,59.95203837,Chrome,1280,720,,,l,1.3683,10,333,1,2,2,26,9,1,0,0,0,1,1,0,0,0,star,triangle,,,,,,,,,,,,,,,,,,,,,,,,,,,,,,,,,,,,,,,,,,,,,,,,,,,,,,
297622,2022-10-06_16h01.00.615,vts_reward_expectancy,2022.2.4,Win32,59.95203837,Chrome,1280,720,,,l,2.2853,1,334,1,2,3,27,7,1,0,0,1,0,0,1,0,0,hexagon,circle,,,,,,,,,,,,,,,,,,,,,,,,,,,,,,,,,,,,,,,,,,,,,,,,,,,,,,
297622,2022-10-06_16h01.00.615,vts_reward_expectancy,2022.2.4,Win32,59.95203837,Chrome,1280,720,,,l,0.668,10,344,1,2,4,28,10,1,0,0,0,1,0,1,0,0,star ,circle,,,,,,,,,,,,,,,,,,,,,,,,,,,,,,,,,,,,,,,,,,,,,,,,,,,,,,
297622,2022-10-06_16h01.00.615,vts_reward_expectancy,2022.2.4,Win32,59.95203837,Chrome,1280,720,,,l,1.851,10,354,1,2,5,29,1,1,1,0,0,0,0,0,1,0,triangle,hexagon,,,,,,,,,,,,,,,,,,,,,,,,,,,,,,,,,,,,,,,,,,,,,,,,,,,,,,
297622,2022-10-06_16h01.00.615,vts_reward_expectancy,2022.2.4,Win32,59.95203837,Chrome,1280,720,,,l,1.268,1,355,1,2,6,30,0,1,1,0,0,0,0,1,0,0,triangle,circle,,,,,,,,,,,,,,,,,,,,,,,,,,,,,,,,,,,,,,,,,,,,,,,,,,,,,,
297622,2022-10-06_16h01.00.615,vts_reward_expectancy,2022.2.4,Win32,59.95203837,Chrome,1280,720,,,a,0.656,1,356,1,2,7,31,8,1,0,0,1,0,0,0,0,1,hexagon,star,,,,,,,,,,,,,,,,,,,,,,,,,,,,,,,,,,,,,,,,,,,,,,,,,,,,,,
297622,2022-10-06_16h01.00.615,vts_reward_expectancy,2022.2.4,Win32,59.95203837,Chrome,1280,720,,,a,0.764,1,357,1,2,8,32,4,1,0,1,0,0,0,0,1,0,circle,hexagon,,,,,,,,,,,,,,,,,,,,,,,,,,,,,,,,,,,,,,,,,,,,,,,,,,,,,,
297622,2022-10-06_16h01.00.615,vts_reward_expectancy,2022.2.4,Win32,59.95203837,Chrome,1280,720,,,a,0.8171,1,358,1,2,9,33,3,1,0,1,0,0,1,0,0,0,circle,triangle,,,,,,,,,,,,,,,,,,,,,,,,,,,,,,,,,,,,,,,,,,,,,,,,,,,,,,
297622,2022-10-06_16h01.00.615,vts_reward_expectancy,2022.2.4,Win32,59.95203837,Chrome,1280,720,,,a,1.0674,1,359,1,2,10,34,6,1,0,0,1,0,1,0,0,0,hexagon,triangle,,,,,,,,,,,,,,,,,,,,,,,,,,,,,,,,,,,,,,,,,,,,,,,,,,,,,,
297622,2022-10-06_16h01.00.615,vts_reward_expectancy,2022.2.4,Win32,59.95203837,Chrome,1280,720,,,a,0.7652,10,369,1,2,11,35,2,1,1,0,0,0,0,0,0,1,triangle,star,,,,,,,,,,,,,,,,,,,,,,,,,,,,,,,,,,,,,,,,,,,,,,,,,,,,,,
297622,2022-10-06_16h01.00.615,vts_reward_expectancy,2022.2.4,Win32,59.95203837,Chrome,1280,720,,,l,0.9169,1,370,2,0,0,0,11,1,0,0,0,1,0,0,1,0,star,hexagon,,,,,,,,,,,,,,,,,,,,,,,,,,,,,,,,,,,,,,,,,,,,,,,,,,,,,,
297622,2022-10-06_16h01.00.615,vts_reward_expectancy,2022.2.4,Win32,59.95203837,Chrome,1280,720,,,a,1.0505,10,380,2,0,1,1,1,1,1,0,0,0,0,0,1,0,triangle,hexagon,,,,,,,,,,,,,,,,,,,,,,,,,,,,,,,,,,,,,,,,,,,,,,,,,,,,,,
297622,2022-10-06_16h01.00.615,vts_reward_expectancy,2022.2.4,Win32,59.95203837,Chrome,1280,720,,,a,1.3356,10,390,2,0,2,2,3,1,0,1,0,0,1,0,0,0,circle,triangle,,,,,,,,,,,,,,,,,,,,,,,,,,,,,,,,,,,,,,,,,,,,,,,,,,,,,,
297622,2022-10-06_16h01.00.615,vts_reward_expectancy,2022.2.4,Win32,59.95203837,Chrome,1280,720,,,a,1.0659,1,391,2,0,3,3,4,1,0,1,0,0,0,0,1,0,circle,hexagon,,,,,,,,,,,,,,,,,,,,,,,,,,,,,,,,,,,,,,,,,,,,,,,,,,,,,,
297622,2022-10-06_16h01.00.615,vts_reward_expectancy,2022.2.4,Win32,59.95203837,Chrome,1280,720,,,l,2.0513,1,392,2,0,4,4,6,1,0,0,1,0,1,0,0,0,hexagon,triangle,,,,,,,,,,,,,,,,,,,,,,,,,,,,,,,,,,,,,,,,,,,,,,,,,,,,,,
297622,2022-10-06_16h01.00.615,vts_reward_expectancy,2022.2.4,Win32,59.95203837,Chrome,1280,720,,,l,0.9045,1,393,2,0,5,5,10,1,0,0,0,1,0,1,0,0,star ,circle,,,,,,,,,,,,,,,,,,,,,,,,,,,,,,,,,,,,,,,,,,,,,,,,,,,,,,
297622,2022-10-06_16h01.00.615,vts_reward_expectancy,2022.2.4,Win32,59.95203837,Chrome,1280,720,,,l,0.9566,10,403,2,0,6,6,9,1,0,0,0,1,1,0,0,0,star,triangle,,,,,,,,,,,,,,,,,,,,,,,,,,,,,,,,,,,,,,,,,,,,,,,,,,,,,,
297622,2022-10-06_16h01.00.615,vts_reward_expectancy,2022.2.4,Win32,59.95203837,Chrome,1280,720,,,a,1.3082,10,413,2,0,7,7,2,1,1,0,0,0,0,0,0,1,triangle,star,,,,,,,,,,,,,,,,,,,,,,,,,,,,,,,,,,,,,,,,,,,,,,,,,,,,,,
297622,2022-10-06_16h01.00.615,vts_reward_expectancy,2022.2.4,Win32,59.95203837,Chrome,1280,720,,,l,1.5499,10,423,2,0,8,8,0,1,1,0,0,0,0,1,0,0,triangle,circle,,,,,,,,,,,,,,,,,,,,,,,,,,,,,,,,,,,,,,,,,,,,,,,,,,,,,,
297622,2022-10-06_16h01.00.615,vts_reward_expectancy,2022.2.4,Win32,59.95203837,Chrome,1280,720,,,a,0.6339,10,433,2,0,9,9,7,1,0,0,1,0,0,1,0,0,hexagon,circle,,,,,,,,,,,,,,,,,,,,,,,,,,,,,,,,,,,,,,,,,,,,,,,,,,,,,,
297622,2022-10-06_16h01.00.615,vts_reward_expectancy,2022.2.4,Win32,59.95203837,Chrome,1280,720,,,a,0.8174,1,434,2,0,10,10,8,1,0,0,1,0,0,0,0,1,hexagon,star,,,,,,,,,,,,,,,,,,,,,,,,,,,,,,,,,,,,,,,,,,,,,,,,,,,,,,
297622,2022-10-06_16h01.00.615,vts_reward_expectancy,2022.2.4,Win32,59.95203837,Chrome,1280,720,,,a,2.7186,1,435,2,0,11,11,5,1,0,1,0,0,0,0,0,1,circle,star,,,,,,,,,,,,,,,,,,,,,,,,,,,,,,,,,,,,,,,,,,,,,,,,,,,,,,
297622,2022-10-06_16h01.00.615,vts_reward_expectancy,2022.2.4,Win32,59.95203837,Chrome,1280,720,,,l,0.8516,1,436,2,1,0,12,5,1,0,1,0,0,0,0,0,1,circle,star,,,,,,,,,,,,,,,,,,,,,,,,,,,,,,,,,,,,,,,,,,,,,,,,,,,,,,
297622,2022-10-06_16h01.00.615,vts_reward_expectancy,2022.2.4,Win32,59.95203837,Chrome,1280,720,,,a,2.1134,10,446,2,1,1,13,2,1,1,0,0,0,0,0,0,1,triangle,star,,,,,,,,,,,,,,,,,,,,,,,,,,,,,,,,,,,,,,,,,,,,,,,,,,,,,,
297622,2022-10-06_16h01.00.615,vts_reward_expectancy,2022.2.4,Win32,59.95203837,Chrome,1280,720,,,l,1.3995,1,447,2,1,2,14,10,1,0,0,0,1,0,1,0,0,star ,circle,,,,,,,,,,,,,,,,,,,,,,,,,,,,,,,,,,,,,,,,,,,,,,,,,,,,,,
297622,2022-10-06_16h01.00.615,vts_reward_expectancy,2022.2.4,Win32,59.95203837,Chrome,1280,720,,,a,0.8687,10,457,2,1,3,15,3,1,0,1,0,0,1,0,0,0,circle,triangle,,,,,,,,,,,,,,,,,,,,,,,,,,,,,,,,,,,,,,,,,,,,,,,,,,,,,,
297622,2022-10-06_16h01.00.615,vts_reward_expectancy,2022.2.4,Win32,59.95203837,Chrome,1280,720,,,a,1.5513,10,467,2,1,4,16,11,1,0,0,0,1,0,0,1,0,star,hexagon,,,,,,,,,,,,,,,,,,,,,,,,,,,,,,,,,,,,,,,,,,,,,,,,,,,,,,
297622,2022-10-06_16h01.00.615,vts_reward_expectancy,2022.2.4,Win32,59.95203837,Chrome,1280,720,,,l,1.8558,10,477,2,1,5,17,0,1,1,0,0,0,0,1,0,0,triangle,circle,,,,,,,,,,,,,,,,,,,,,,,,,,,,,,,,,,,,,,,,,,,,,,,,,,,,,,
297622,2022-10-06_16h01.00.615,vts_reward_expectancy,2022.2.4,Win32,59.95203837,Chrome,1280,720,,,a,0.835,10,487,2,1,6,18,4,1,0,1,0,0,0,0,1,0,circle,hexagon,,,,,,,,,,,,,,,,,,,,,,,,,,,,,,,,,,,,,,,,,,,,,,,,,,,,,,
297622,2022-10-06_16h01.00.615,vts_reward_expectancy,2022.2.4,Win32,59.95203837,Chrome,1280,720,,,l,1.6098,10,497,2,1,7,19,6,1,0,0,1,0,1,0,0,0,hexagon,triangle,,,,,,,,,,,,,,,,,,,,,,,,,,,,,,,,,,,,,,,,,,,,,,,,,,,,,,
297622,2022-10-06_16h01.00.615,vts_reward_expectancy,2022.2.4,Win32,59.95203837,Chrome,1280,720,,,a,1.7007,10,507,2,1,8,20,7,1,0,0,1,0,0,1,0,0,hexagon,circle,,,,,,,,,,,,,,,,,,,,,,,,,,,,,,,,,,,,,,,,,,,,,,,,,,,,,,
297622,2022-10-06_16h01.00.615,vts_reward_expectancy,2022.2.4,Win32,59.95203837,Chrome,1280,720,,,a,1.2304,1,508,2,1,9,21,9,1,0,0,0,1,1,0,0,0,star,triangle,,,,,,,,,,,,,,,,,,,,,,,,,,,,,,,,,,,,,,,,,,,,,,,,,,,,,,
297622,2022-10-06_16h01.00.615,vts_reward_expectancy,2022.2.4,Win32,59.95203837,Chrome,1280,720,,,l,2.4173,1,509,2,1,10,22,8,1,0,0,1,0,0,0,0,1,hexagon,star,,,,,,,,,,,,,,,,,,,,,,,,,,,,,,,,,,,,,,,,,,,,,,,,,,,,,,
297622,2022-10-06_16h01.00.615,vts_reward_expectancy,2022.2.4,Win32,59.95203837,Chrome,1280,720,,,a,1.9502,1,510,2,1,11,23,1,1,1,0,0,0,0,0,1,0,triangle,hexagon,,,,,,,,,,,,,,,,,,,,,,,,,,,,,,,,,,,,,,,,,,,,,,,,,,,,,,
297622,2022-10-06_16h01.00.615,vts_reward_expectancy,2022.2.4,Win32,59.95203837,Chrome,1280,720,,,a,0.685,1,511,2,2,0,24,5,1,0,1,0,0,0,0,0,1,circle,star,,,,,,,,,,,,,,,,,,,,,,,,,,,,,,,,,,,,,,,,,,,,,,,,,,,,,,
297622,2022-10-06_16h01.00.615,vts_reward_expectancy,2022.2.4,Win32,59.95203837,Chrome,1280,720,,,l,1.0908,1,512,2,2,1,25,8,1,0,0,1,0,0,0,0,1,hexagon,star,,,,,,,,,,,,,,,,,,,,,,,,,,,,,,,,,,,,,,,,,,,,,,,,,,,,,,
297622,2022-10-06_16h01.00.615,vts_reward_expectancy,2022.2.4,Win32,59.95203837,Chrome,1280,720,,,a,1.9914,10,522,2,2,2,26,0,1,1,0,0,0,0,1,0,0,triangle,circle,,,,,,,,,,,,,,,,,,,,,,,,,,,,,,,,,,,,,,,,,,,,,,,,,,,,,,
297622,2022-10-06_16h01.00.615,vts_reward_expectancy,2022.2.4,Win32,59.95203837,Chrome,1280,720,,,l,1.3694,10,532,2,2,3,27,3,1,0,1,0,0,1,0,0,0,circle,triangle,,,,,,,,,,,,,,,,,,,,,,,,,,,,,,,,,,,,,,,,,,,,,,,,,,,,,,
297622,2022-10-06_16h01.00.615,vts_reward_expectancy,2022.2.4,Win32,59.95203837,Chrome,1280,720,,,a,1.1008,10,542,2,2,4,28,2,1,1,0,0,0,0,0,0,1,triangle,star,,,,,,,,,,,,,,,,,,,,,,,,,,,,,,,,,,,,,,,,,,,,,,,,,,,,,,
297622,2022-10-06_16h01.00.615,vts_reward_expectancy,2022.2.4,Win32,59.95203837,Chrome,1280,720,,,l,1.2179,10,552,2,2,5,29,9,1,0,0,0,1,1,0,0,0,star,triangle,,,,,,,,,,,,,,,,,,,,,,,,,,,,,,,,,,,,,,,,,,,,,,,,,,,,,,
297622,2022-10-06_16h01.00.615,vts_reward_expectancy,2022.2.4,Win32,59.95203837,Chrome,1280,720,,,a,0.6553,10,562,2,2,6,30,10,1,0,0,0,1,0,1,0,0,star ,circle,,,,,,,,,,,,,,,,,,,,,,,,,,,,,,,,,,,,,,,,,,,,,,,,,,,,,,
297622,2022-10-06_16h01.00.615,vts_reward_expectancy,2022.2.4,Win32,59.95203837,Chrome,1280,720,,,a,1.2078,1,563,2,2,7,31,11,1,0,0,0,1,0,0,1,0,star,hexagon,,,,,,,,,,,,,,,,,,,,,,,,,,,,,,,,,,,,,,,,,,,,,,,,,,,,,,
297622,2022-10-06_16h01.00.615,vts_reward_expectancy,2022.2.4,Win32,59.95203837,Chrome,1280,720,,,l,1.6344,1,564,2,2,8,32,6,1,0,0,1,0,1,0,0,0,hexagon,triangle,,,,,,,,,,,,,,,,,,,,,,,,,,,,,,,,,,,,,,,,,,,,,,,,,,,,,,
297622,2022-10-06_16h01.00.615,vts_reward_expectancy,2022.2.4,Win32,59.95203837,Chrome,1280,720,,,a,1.7799,1,565,2,2,9,33,4,1,0,1,0,0,0,0,1,0,circle,hexagon,,,,,,,,,,,,,,,,,,,,,,,,,,,,,,,,,,,,,,,,,,,,,,,,,,,,,,
297622,2022-10-06_16h01.00.615,vts_reward_expectancy,2022.2.4,Win32,59.95203837,Chrome,1280,720,,,a,1.5184,10,575,2,2,10,34,1,1,1,0,0,0,0,0,1,0,triangle,hexagon,,,,,,,,,,,,,,,,,,,,,,,,,,,,,,,,,,,,,,,,,,,,,,,,,,,,,,
297622,2022-10-06_16h01.00.615,vts_reward_expectancy,2022.2.4,Win32,59.95203837,Chrome,1280,720,,,a,1.1808,1,576,2,2,11,35,7,1,0,0,1,0,0,1,0,0,hexagon,circle,,,,,,,,,,,,,,,,,,,,,,,,,,,,,,,,,,,,,,,,,,,,,,,,,,,,,,
297622,2022-10-06_16h01.00.615,vts_reward_expectancy,2022.2.4,Win32,59.95203837,Chrome,1280,720,,,,,,,,,,,,,,,,,,,,,,,132,F,circle,1,0,d,1.6516,0,0,0,0,0,1,,,,,,,,,,,,,,,,,,,,,,,,,,,,,,,,,,,,,,,,,
297622,2022-10-06_16h01.00.615,vts_reward_expectancy,2022.2.4,Win32,59.95203837,Chrome,1280,720,,,,,,,,,,,,,,,,,,,,,,,174,U,hexagon,1,0,f,1.0301,0,1,0,1,0,1,,,,,,,,,,,,,,,,,,,,,,,,,,,,,,,,,,,,,,,,,
297622,2022-10-06_16h01.00.615,vts_reward_expectancy,2022.2.4,Win32,59.95203837,Chrome,1280,720,,,,,,,,,,,,,,,,,,,,,,,181,W,triangle,1,0,f,0.7219,0,2,0,2,0,1,,,,,,,,,,,,,,,,,,,,,,,,,,,,,,,,,,,,,,,,,
297622,2022-10-06_16h01.00.615,vts_reward_expectancy,2022.2.4,Win32,59.95203837,Chrome,1280,720,,,,,,,,,,,,,,,,,,,,,,,146,H,star,1,0,d,1.5172,0,3,0,3,0,1,,,,,,,,,,,,,,,,,,,,,,,,,,,,,,,,,,,,,,,,,
297622,2022-10-06_16h01.00.615,vts_reward_expectancy,2022.2.4,Win32,59.95203837,Chrome,1280,720,,,,,,,,,,,,,,,,,,,,,,,160,S,circle,1,0,f,0.8678,0,4,0,4,0,1,,,,,,,,,,,,,,,,,,,,,,,,,,,,,,,,,,,,,,,,,
297622,2022-10-06_16h01.00.615,vts_reward_expectancy,2022.2.4,Win32,59.95203837,Chrome,1280,720,,,,,,,,,,,,,,,,,,,,,,,139,D,hexagon,1,0,d,0.6174,0,5,0,5,0,1,,,,,,,,,,,,,,,,,,,,,,,,,,,,,,,,,,,,,,,,,
297622,2022-10-06_16h01.00.615,vts_reward_expectancy,2022.2.4,Win32,59.95203837,Chrome,1280,720,,,,,,,,,,,,,,,,,,,,,,,125,B,triangle,1,0,d,0.6855,0,6,0,6,0,1,,,,,,,,,,,,,,,,,,,,,,,,,,,,,,,,,,,,,,,,,
297622,2022-10-06_16h01.00.615,vts_reward_expectancy,2022.2.4,Win32,59.95203837,Chrome,1280,720,,,,,,,,,,,,,,,,,,,,,,,167,Y,star,1,0,f,0.814,0,7,0,7,0,1,,,,,,,,,,,,,,,,,,,,,,,,,,,,,,,,,,,,,,,,,
297622,2022-10-06_16h01.00.615,vts_reward_expectancy,2022.2.4,Win32,59.95203837,Chrome,1280,720,,,,,,,,,,,,,,,,,,,,,,,132,F,star,1,0,d,0.7694,0,8,0,8,0,1,,,,,,,,,,,,,,,,,,,,,,,,,,,,,,,,,,,,,,,,,
297622,2022-10-06_16h01.00.615,vts_reward_expectancy,2022.2.4,Win32,59.95203837,Chrome,1280,720,,,,,,,,,,,,,,,,,,,,,,,174,U,hexagon,1,0,f,0.8517,0,9,0,9,0,1,,,,,,,,,,,,,,,,,,,,,,,,,,,,,,,,,,,,,,,,,
297622,2022-10-06_16h01.00.615,vts_reward_expectancy,2022.2.4,Win32,59.95203837,Chrome,1280,720,,,,,,,,,,,,,,,,,,,,,,,146,S,circle,1,0,,,1,,,,,,k,2.2568,0,0,0,0,1,,,,,,,,,,,,,,,,,,,,,,,,,,,,,,,,,,
297622,2022-10-06_16h01.00.615,vts_reward_expectancy,2022.2.4,Win32,59.95203837,Chrome,1280,720,,,,,,,,,,,,,,,,,,,,,,,132,H,hexagon,1,0,,,1,,,,,,j,1.4318,1,0,1,0,1,,,,,,,,,,,,,,,,,,,,,,,,,,,,,,,,,,
297622,2022-10-06_16h01.00.615,vts_reward_expectancy,2022.2.4,Win32,59.95203837,Chrome,1280,720,,,,,,,,,,,,,,,,,,,,,,,174,B,star,1,0,,,1,,,,,,j,0.7523,2,0,2,0,1,,,,,,,,,,,,,,,,,,,,,,,,,,,,,,,,,,
297622,2022-10-06_16h01.00.615,vts_reward_expectancy,2022.2.4,Win32,59.95203837,Chrome,1280,720,,,,,,,,,,,,,,,,,,,,,,,167,U,triangle,1,0,,,1,,,,,,k,0.9354,3,0,3,0,1,,,,,,,,,,,,,,,,,,,,,,,,,,,,,,,,,,
297622,2022-10-06_16h01.00.615,vts_reward_expectancy,2022.2.4,Win32,59.95203837,Chrome,1280,720,,,,,,,,,,,,,,,,,,,,,,,125,F,circle,1,0,,,1,,,,,,j,1.296,4,0,4,0,1,,,,,,,,,,,,,,,,,,,,,,,,,,,,,,,,,,
297622,2022-10-06_16h01.00.615,vts_reward_expectancy,2022.2.4,Win32,59.95203837,Chrome,1280,720,,,,,,,,,,,,,,,,,,,,,,,160,W,hexagon,1,0,,,1,,,,,,k,0.8673,5,0,5,0,1,,,,,,,,,,,,,,,,,,,,,,,,,,,,,,,,,,
297622,2022-10-06_16h01.00.615,vts_reward_expectancy,2022.2.4,Win32,59.95203837,Chrome,1280,720,,,,,,,,,,,,,,,,,,,,,,,181,D,star,1,0,,,1,,,,,,j,1.0508,6,0,6,0,1,,,,,,,,,,,,,,,,,,,,,,,,,,,,,,,,,,
297622,2022-10-06_16h01.00.615,vts_reward_expectancy,2022.2.4,Win32,59.95203837,Chrome,1280,720,,,,,,,,,,,,,,,,,,,,,,,139,Y,triangle,1,0,,,1,,,,,,k,0.8827,7,0,7,0,1,,,,,,,,,,,,,,,,,,,,,,,,,,,,,,,,,,
297622,2022-10-06_16h01.00.615,vts_reward_expectancy,2022.2.4,Win32,59.95203837,Chrome,1280,720,,,,,,,,,,,,,,,,,,,,,,,146,S,triangle,1,0,,,1,,,,,,k,1.2802,8,0,8,0,1,,,,,,,,,,,,,,,,,,,,,,,,,,,,,,,,,,
297622,2022-10-06_16h01.00.615,vts_reward_expectancy,2022.2.4,Win32,59.95203837,Chrome,1280,720,,,,,,,,,,,,,,,,,,,,,,,132,H,hexagon,1,0,,,1,,,,,,j,1.9338,9,0,9,0,1,,,,,,,,,,,,,,,,,,,,,,,,,,,,,,,,,,
297622,2022-10-06_16h01.00.615,vts_reward_expectancy,2022.2.4,Win32,59.95203837,Chrome,1280,720,,,,,0,576,,,,,,,,,,,,,,,,,174,U,star,1,0,,,2,,,,,,,,,,,,,-1,number,NA,f,2.7723,vtsPrac,0,0,0,0,1,,,,,,,,,,,,,,,,,,,,,,,
297622,2022-10-06_16h01.00.615,vts_reward_expectancy,2022.2.4,Win32,59.95203837,Chrome,1280,720,,,,,0,576,,,,,,,,,,,,,,,,,132,B,hexagon,1,0,,,2,,,,,,,,,,,,,switch,letter,lettSwt,j,0.9044,vtsPrac,1,0,1,0,1,,,,,,,,,,,,,,,,,,,,,,,
297622,2022-10-06_16h01.00.615,vts_reward_expectancy,2022.2.4,Win32,59.95203837,Chrome,1280,720,,,,,0,576,,,,,,,,,,,,,,,,,146,S,star,1,0,,,2,,,,,,,,,,,,,switch,number,numSwt,d,1.7846,vtsPrac,2,0,2,0,1,,,,,,,,,,,,,,,,,,,,,,,
297622,2022-10-06_16h01.00.615,vts_reward_expectancy,2022.2.4,Win32,59.95203837,Chrome,1280,720,,,,,0,576,,,,,,,,,,,,,,,,,181,D,hexagon,1,0,,,2,,,,,,,,,,,,,repeat,number,numRpt,f,1.1023,vtsPrac,3,0,3,0,1,,,,,,,,,,,,,,,,,,,,,,,
297622,2022-10-06_16h01.00.615,vts_reward_expectancy,2022.2.4,Win32,59.95203837,Chrome,1280,720,,,,,0,576,,,,,,,,,,,,,,,,,174,U,triangle,1,0,,,2,,,,,,,,,,,,,switch,letter,lettSwt,k,1.2345,vtsPrac,4,0,4,0,1,,,,,,,,,,,,,,,,,,,,,,,
297622,2022-10-06_16h01.00.615,vts_reward_expectancy,2022.2.4,Win32,59.95203837,Chrome,1280,720,,,,,0,576,,,,,,,,,,,,,,,,,132,B,hexagon,1,0,,,2,,,,,,,,,,,,,repeat,letter,lettRpt,j,1.2673,vtsPrac,5,0,5,0,1,,,,,,,,,,,,,,,,,,,,,,,
297622,2022-10-06_16h01.00.615,vts_reward_expectancy,2022.2.4,Win32,59.95203837,Chrome,1280,720,,,,,0,576,,,,,,,,,,,,,,,,,146,S,circle,-1,0,,,2,,,,,,,,,,,,,switch,no_choice,NA,,,vtsPrac,6,0,6,0,1,,,,,,,,,,,,,,,,,,,,,,,
297622,2022-10-06_16h01.00.615,vts_reward_expectancy,2022.2.4,Win32,59.95203837,Chrome,1280,720,,,,,0,576,,,,,,,,,,,,,,,,,181,D,star,1,0,,,2,,,,,,,,,,,,,switch,number,numSwt,f,0.7177,vtsPrac,7,0,7,0,1,,,,,,,,,,,,,,,,,,,,,,,
297622,2022-10-06_16h01.00.615,vts_reward_expectancy,2022.2.4,Win32,59.95203837,Chrome,1280,720,,,,,0,576,,,,,,,,,,,,,,,,,167,H,circle,1,0,,,2,,,,,,,,,,,,,repeat,number,numRpt,f,0.8326,vtsPrac,8,0,8,0,1,,,,,,,,,,,,,,,,,,,,,,,
297622,2022-10-06_16h01.00.615,vts_reward_expectancy,2022.2.4,Win32,59.95203837,Chrome,1280,720,,,,,0,576,,,,,,,,,,,,,,,,,160,U,hexagon,1,0,,,2,,,,,,,,,,,,,switch,letter,lettSwt,k,0.7141,vtsPrac,9,0,9,0,1,,,,,,,,,,,,,,,,,,,,,,,
297622,2022-10-06_16h01.00.615,vts_reward_expectancy,2022.2.4,Win32,59.95203837,Chrome,1280,720,,,,,0,576,,,,,,,,,,,,,,,,,174,Y,triangle,1,0,,,2,,,,,,,,,,,,,repeat,letter,lettRpt,k,0.7857,vtsPrac,10,0,10,0,1,,,,,,,,,,,,,,,,,,,,,,,
297622,2022-10-06_16h01.00.615,vts_reward_expectancy,2022.2.4,Win32,59.95203837,Chrome,1280,720,,,,,0,576,,,,,,,,,,,,,,,,,146,B,hexagon,0,0,,,2,,,,,,,,,,,,,switch,number,NA,f,0.6502,vtsPrac,11,0,11,0,1,,,,,,,,,,,,,,,,,,,,,,,
297622,2022-10-06_16h01.00.615,vts_reward_expectancy,2022.2.4,Win32,59.95203837,Chrome,1280,720,,,,,0,576,,,,,,,,,,,,,,,,,132,S,triangle,1,1,,,2,,,,,,,,,,,,,repeat,number,numRpt,d,0.7977,vtsPrac,12,0,12,0,1,,,,,,,,,,,,,,,,,,,,,,,
297622,2022-10-06_16h01.00.615,vts_reward_expectancy,2022.2.4,Win32,59.95203837,Chrome,1280,720,,,,,0,576,,,,,,,,,,,,,,,,,160,D,circle,1,0,,,2,,,,,,,,,,,,,repeat,number,numRpt,f,1.4189,vtsPrac,13,0,13,0,1,,,,,,,,,,,,,,,,,,,,,,,
297622,2022-10-06_16h01.00.615,vts_reward_expectancy,2022.2.4,Win32,59.95203837,Chrome,1280,720,,,,,0,576,,,,,,,,,,,,,,,,,181,B,triangle,1,0,,,2,,,,,,,,,,,,,switch,letter,lettSwt,j,0.7983,vtsPrac,14,0,14,0,1,,,,,,,,,,,,,,,,,,,,,,,
297622,2022-10-06_16h01.00.615,vts_reward_expectancy,2022.2.4,Win32,59.95203837,Chrome,1280,720,,,,,0,576,,,,,,,,,,,,,,,,,146,W,circle,1,0,,,2,,,,,,,,,,,,,repeat,letter,lettRpt,k,0.7171,vtsPrac,15,0,15,0,1,,,,,,,,,,,,,,,,,,,,,,,
297622,2022-10-06_16h01.00.615,vts_reward_expectancy,2022.2.4,Win32,59.95203837,Chrome,1280,720,,,,,,,,,,,,,,,,,,,,,,,,,,,,,,,,,,,,,,,,,,,,,,,,,,,,,,,,,,,,,,,,,,,,,,,,,,,,
297622,2022-10-06_16h01.00.615,vts_reward_expectancy,2022.2.4,Win32,59.95203837,Chrome,1280,720,,,,,,,,,,,,,,,,,,,,,,,,,,,,,,,,,,,,,,,,,,,,,,,,,,,,,,,,,,,,,,,,,,,,,,,,,,,,
297622,2022-10-06_16h01.00.615,vts_reward_expectancy,2022.2.4,Win32,59.95203837,Chrome,1280,720,,,,,0,576,,,,,,,,,,,,,,,,,160,U,circle,1,0,,,,,,,,,,,,,,,,repeat,letter,lettRpt,k,1.6661,noRew,,,,,,0,0,0,0,0,1,,,,,,,,,,,,,,,,,
297622,2022-10-06_16h01.00.615,vts_reward_expectancy,2022.2.4,Win32,59.95203837,Chrome,1280,720,,,,,0,576,,,,,,,,,,,,,,,,,174,W,triangle,1,0,,,,,,,,,,,,,,,,repeat,letter,lettRpt,k,0.8499,noRew,,,,,,0,1,0,1,0,1,,,,,,,,,,,,,,,,,
297622,2022-10-06_16h01.00.615,vts_reward_expectancy,2022.2.4,Win32,59.95203837,Chrome,1280,720,,,,,0,576,,,,,,,,,,,,,,,,,181,B,circle,1,0,,,,,,,,,,,,,,,,switch,number,numSwt,f,0.6845,noRew,,,,,,0,2,0,2,0,1,,,,,,,,,,,,,,,,,
297622,2022-10-06_16h01.00.615,vts_reward_expectancy,2022.2.4,Win32,59.95203837,Chrome,1280,720,,,,,0,576,,,,,,,,,,,,,,,,,167,H,triangle,1,0,,,,,,,,,,,,,,,,repeat,number,numRpt,f,0.8688,noRew,,,,,,0,3,0,3,0,1,,,,,,,,,,,,,,,,,
297622,2022-10-06_16h01.00.615,vts_reward_expectancy,2022.2.4,Win32,59.95203837,Chrome,1280,720,,,,,0,576,,,,,,,,,,,,,,,,,160,U,hexagon,1,0,,,,,,,,,,,,,,,,repeat,number,numRpt,f,0.8229,noRew,,,,,,0,4,0,4,0,1,,,,,,,,,,,,,,,,,
297622,2022-10-06_16h01.00.615,vts_reward_expectancy,2022.2.4,Win32,59.95203837,Chrome,1280,720,,,,,0,576,,,,,,,,,,,,,,,,,174,W,circle,1,0,,,,,,,,,,,,,,,,switch,letter,lettSwt,k,0.8459,noRew,,,,,,0,5,0,5,0,1,,,,,,,,,,,,,,,,,
297622,2022-10-06_16h01.00.615,vts_reward_expectancy,2022.2.4,Win32,59.95203837,Chrome,1280,720,,,,,0,576,,,,,,,,,,,,,,,,,181,B,hexagon,1,0,,,,,,,,,,,,,,,,repeat,letter,lettRpt,j,1.4815,noRew,,,,,,0,6,0,6,0,1,,,,,,,,,,,,,,,,,
297622,2022-10-06_16h01.00.615,vts_reward_expectancy,2022.2.4,Win32,59.95203837,Chrome,1280,720,,,,,0,576,,,,,,,,,,,,,,,,,167,H,triangle,1,0,,,,,,,,,,,,,,,,repeat,letter,lettRpt,j,1.2553,noRew,,,,,,0,7,0,7,0,1,,,,,,,,,,,,,,,,,
297622,2022-10-06_16h01.00.615,vts_reward_expectancy,2022.2.4,Win32,59.95203837,Chrome,1280,720,,,,,0,576,,,,,,,,,,,,,,,,,125,F,circle,1,0,,,,,,,,,,,,,,,,switch,number,numSwt,d,0.9421,noRew,,,,,,0,8,0,8,0,1,,,,,,,,,,,,,,,,,
297622,2022-10-06_16h01.00.615,vts_reward_expectancy,2022.2.4,Win32,59.95203837,Chrome,1280,720,,,,,0,576,,,,,,,,,,,,,,,,,146,U,star,1,0,,,,,,,,,,,,,,,,repeat,number,numRpt,d,0.7894,noRew,,,,,,0,9,0,9,0,1,,,,,,,,,,,,,,,,,
297622,2022-10-06_16h01.00.615,vts_reward_expectancy,2022.2.4,Win32,59.95203837,Chrome,1280,720,,,,,0,576,,,,,,,,,,,,,,,,,160,S,hexagon,1,0,,,,,,,,,,,,,,,,switch,letter,lettSwt,k,0.7911,noRew,,,,,,0,10,0,10,0,1,,,,,,,,,,,,,,,,,
297622,2022-10-06_16h01.00.615,vts_reward_expectancy,2022.2.4,Win32,59.95203837,Chrome,1280,720,,,,,0,576,,,,,,,,,,,,,,,,,132,D,star,1,0,,,,,,,,,,,,,,,,repeat,letter,lettRpt,j,0.9017,noRew,,,,,,0,11,0,11,0,1,,,,,,,,,,,,,,,,,
297622,2022-10-06_16h01.00.615,vts_reward_expectancy,2022.2.4,Win32,59.95203837,Chrome,1280,720,,,,,0,576,,,,,,,,,,,,,,,,,139,S,hexagon,1,0,,,,,,,,,,,,,,,,repeat,letter,lettRpt,k,0.9687,noRew,,,,,,0,12,0,12,0,1,,,,,,,,,,,,,,,,,
297622,2022-10-06_16h01.00.615,vts_reward_expectancy,2022.2.4,Win32,59.95203837,Chrome,1280,720,,,,,0,576,,,,,,,,,,,,,,,,,146,B,triangle,1,0,,,,,,,,,,,,,,,,switch,number,numSwt,d,0.9018,noRew,,,,,,0,13,0,13,0,1,,,,,,,,,,,,,,,,,
297622,2022-10-06_16h01.00.615,vts_reward_expectancy,2022.2.4,Win32,59.95203837,Chrome,1280,720,,,,,0,576,,,,,,,,,,,,,,,,,174,U,triangle,1,0,,,,,,,,,,,,,,,,repeat,number,numRpt,f,0.6907,noRew,,,,,,0,14,0,14,0,1,,,,,,,,,,,,,,,,,
297622,2022-10-06_16h01.00.615,vts_reward_expectancy,2022.2.4,Win32,59.95203837,Chrome,1280,720,,,,,0,576,,,,,,,,,,,,,,,,,132,D,circle,1,0,,,,,,,,,,,,,,,,repeat,number,numRpt,d,0.837,noRew,,,,,,0,15,0,15,0,1,,,,,,,,,,,,,,,,,
297622,2022-10-06_16h01.00.615,vts_reward_expectancy,2022.2.4,Win32,59.95203837,Chrome,1280,720,,,,,0,576,,,,,,,,,,,,,,,,,139,F,circle,1,0,,,,,,,,,,,,,,,,switch,letter,lettSwt,j,0.747,noRew,,,,,,0,16,0,16,0,1,,,,,,,,,,,,,,,,,
297622,2022-10-06_16h01.00.615,vts_reward_expectancy,2022.2.4,Win32,59.95203837,Chrome,1280,720,,,,,0,576,,,,,,,,,,,,,,,,,160,U,triangle,1,0,,,,,,,,,,,,,,,,switch,number,numSwt,f,0.8924,noRew,,,,,,0,17,0,17,0,1,,,,,,,,,,,,,,,,,
297622,2022-10-06_16h01.00.615,vts_reward_expectancy,2022.2.4,Win32,59.95203837,Chrome,1280,720,,,,,0,576,,,,,,,,,,,,,,,,,125,Y,hexagon,1,0,,,,,,,,,,,,,,,,repeat,number,numRpt,d,0.8337,noRew,,,,,,0,18,0,18,0,1,,,,,,,,,,,,,,,,,
297622,2022-10-06_16h01.00.615,vts_reward_expectancy,2022.2.4,Win32,59.95203837,Chrome,1280,720,,,,,0,576,,,,,,,,,,,,,,,,,181,S,star,1,0,,,,,,,,,,,,,,,,switch,letter,lettSwt,k,0.8842,noRew,,,,,,0,19,0,19,0,1,,,,,,,,,,,,,,,,,
297622,2022-10-06_16h01.00.615,vts_reward_expectancy,2022.2.4,Win32,59.95203837,Chrome,1280,720,,,,,0,576,,,,,,,,,,,,,,,,,181,H,triangle,1,0,,,,,,,,,,,,,,,,repeat,letter,lettRpt,j,0.9138,noRew,,,,,,0,20,0,20,0,1,,,,,,,,,,,,,,,,,
297622,2022-10-06_16h01.00.615,vts_reward_expectancy,2022.2.4,Win32,59.95203837,Chrome,1280,720,,,,,0,576,,,,,,,,,,,,,,,,,167,D,hexagon,1,0,,,,,,,,,,,,,,,,repeat,letter,lettRpt,j,1.317,noRew,,,,,,0,21,0,21,0,1,,,,,,,,,,,,,,,,,
297622,2022-10-06_16h01.00.615,vts_reward_expectancy,2022.2.4,Win32,59.95203837,Chrome,1280,720,,,,,0,576,,,,,,,,,,,,,,,,,139,S,triangle,1,0,,,,,,,,,,,,,,,,switch,number,numSwt,d,0.766,noRew,,,,,,0,22,0,22,0,1,,,,,,,,,,,,,,,,,
297622,2022-10-06_16h01.00.615,vts_reward_expectancy,2022.2.4,Win32,59.95203837,Chrome,1280,720,,,,,0,576,,,,,,,,,,,,,,,,,125,Y,hexagon,1,0,,,,,,,,,,,,,,,,repeat,number,numRpt,d,0.665,noRew,,,,,,0,23,0,23,0,1,,,,,,,,,,,,,,,,,
297622,2022-10-06_16h01.00.615,vts_reward_expectancy,2022.2.4,Win32,59.95203837,Chrome,1280,720,,,,,0,576,,,,,,,,,,,,,,,,,167,U,triangle,1,0,,,,,,,,,,,,,,,,repeat,number,numRpt,f,1.2177,noRew,,,,,,0,24,0,24,0,1,,,,,,,,,,,,,,,,,
297622,2022-10-06_16h01.00.615,vts_reward_expectancy,2022.2.4,Win32,59.95203837,Chrome,1280,720,,,,,0,576,,,,,,,,,,,,,,,,,146,F,hexagon,1,0,,,,,,,,,,,,,,,,switch,letter,lettSwt,j,0.8997,noRew,,,,,,0,25,0,25,0,1,,,,,,,,,,,,,,,,,
297622,2022-10-06_16h01.00.615,vts_reward_expectancy,2022.2.4,Win32,59.95203837,Chrome,1280,720,,,,,0,576,,,,,,,,,,,,,,,,,174,B,hexagon,1,0,,,,,,,,,,,,,,,,repeat,letter,lettRpt,j,0.8673,noRew,,,,,,0,26,0,26,0,1,,,,,,,,,,,,,,,,,
297622,2022-10-06_16h01.00.615,vts_reward_expectancy,2022.2.4,Win32,59.95203837,Chrome,1280,720,,,,,0,576,,,,,,,,,,,,,,,,,139,D,triangle,1,0,,,,,,,,,,,,,,,,repeat,letter,lettRpt,j,0.777,noRew,,,,,,0,27,0,27,0,1,,,,,,,,,,,,,,,,,
297622,2022-10-06_16h01.00.615,vts_reward_expectancy,2022.2.4,Win32,59.95203837,Chrome,1280,720,,,,,0,576,,,,,,,,,,,,,,,,,174,F,triangle,1,0,,,,,,,,,,,,,,,,repeat,letter,lettRpt,j,1.1505,noRew,,,,,,0,28,0,28,0,1,,,,,,,,,,,,,,,,,
297622,2022-10-06_16h01.00.615,vts_reward_expectancy,2022.2.4,Win32,59.95203837,Chrome,1280,720,,,,,0,576,,,,,,,,,,,,,,,,,146,U,circle,1,0,,,,,,,,,,,,,,,,switch,number,numSwt,d,0.9006,noRew,,,,,,0,29,0,29,0,1,,,,,,,,,,,,,,,,,
297622,2022-10-06_16h01.00.615,vts_reward_expectancy,2022.2.4,Win32,59.95203837,Chrome,1280,720,,,,,0,576,,,,,,,,,,,,,,,,,160,B,circle,1,0,,,,,,,,,,,,,,,,repeat,number,numRpt,f,1.2125,noRew,,,,,,0,30,0,30,0,1,,,,,,,,,,,,,,,,,
297622,2022-10-06_16h01.00.615,vts_reward_expectancy,2022.2.4,Win32,59.95203837,Chrome,1280,720,,,,,0,576,,,,,,,,,,,,,,,,,139,H,hexagon,1,0,,,,,,,,,,,,,,,,repeat,number,numRpt,d,0.758,noRew,,,,,,0,31,0,31,0,1,,,,,,,,,,,,,,,,,
297622,2022-10-06_16h01.00.615,vts_reward_expectancy,2022.2.4,Win32,59.95203837,Chrome,1280,720,,,,,0,576,,,,,,,,,,,,,,,,,125,H,circle,1,0,,,,,,,,,,,,,,,,switch,letter,lettSwt,j,1.5535,noRew,,,,,,0,32,0,32,0,1,,,,,,,,,,,,,,,,,
297622,2022-10-06_16h01.00.615,vts_reward_expectancy,2022.2.4,Win32,59.95203837,Chrome,1280,720,,,,,0,576,,,,,,,,,,,,,,,,,146,D,hexagon,1,0,,,,,,,,,,,,,,,,repeat,letter,lettRpt,j,0.8478,noRew,,,,,,0,33,0,33,0,1,,,,,,,,,,,,,,,,,
297622,2022-10-06_16h01.00.615,vts_reward_expectancy,2022.2.4,Win32,59.95203837,Chrome,1280,720,,,,,0,576,,,,,,,,,,,,,,,,,139,W,star,1,0,,,,,,,,,,,,,,,,repeat,letter,lettRpt,k,0.7726,noRew,,,,,,0,34,0,34,0,1,,,,,,,,,,,,,,,,,
297622,2022-10-06_16h01.00.615,vts_reward_expectancy,2022.2.4,Win32,59.95203837,Chrome,1280,720,,,,,0,576,,,,,,,,,,,,,,,,,174,B,hexagon,1,0,,,,,,,,,,,,,,,,switch,number,numSwt,f,0.8515,noRew,,,,,,0,35,0,35,0,1,,,,,,,,,,,,,,,,,
297622,2022-10-06_16h01.00.615,vts_reward_expectancy,2022.2.4,Win32,59.95203837,Chrome,1280,720,,,,,0,576,,,,,,,,,,,,,,,,,139,D,hexagon,1,0,,,,,,,,,,,,,,,,repeat,number,numRpt,d,0.9237,noRew,,,,,,0,36,0,36,0,1,,,,,,,,,,,,,,,,,
297622,2022-10-06_16h01.00.615,vts_reward_expectancy,2022.2.4,Win32,59.95203837,Chrome,1280,720,,,,,0,576,,,,,,,,,,,,,,,,,181,Y,star,1,0,,,,,,,,,,,,,,,,repeat,number,numRpt,f,0.8556,noRew,,,,,,0,37,0,37,0,1,,,,,,,,,,,,,,,,,
297622,2022-10-06_16h01.00.615,vts_reward_expectancy,2022.2.4,Win32,59.95203837,Chrome,1280,720,,,,,0,576,,,,,,,,,,,,,,,,,167,U,star,1,0,,,,,,,,,,,,,,,,repeat,number,numRpt,f,0.8368,noRew,,,,,,0,38,0,38,0,1,,,,,,,,,,,,,,,,,
297622,2022-10-06_16h01.00.615,vts_reward_expectancy,2022.2.4,Win32,59.95203837,Chrome,1280,720,,,,,0,576,,,,,,,,,,,,,,,,,160,F,circle,1,0,,,,,,,,,,,,,,,,switch,letter,lettSwt,j,1.3794,noRew,,,,,,0,39,0,39,0,1,,,,,,,,,,,,,,,,,
297622,2022-10-06_16h01.00.615,vts_reward_expectancy,2022.2.4,Win32,59.95203837,Chrome,1280,720,,,,,0,576,,,,,,,,,,,,,,,,,181,U,circle,1,0,,,,,,,,,,,,,,,,repeat,letter,lettRpt,k,0.6236,noRew,,,,,,0,40,0,40,0,1,,,,,,,,,,,,,,,,,
297622,2022-10-06_16h01.00.615,vts_reward_expectancy,2022.2.4,Win32,59.95203837,Chrome,1280,720,,,,,0,576,,,,,,,,,,,,,,,,,139,D,star,1,0,,,,,,,,,,,,,,,,switch,number,numSwt,d,0.6853,noRew,,,,,,0,41,0,41,0,1,,,,,,,,,,,,,,,,,
297622,2022-10-06_16h01.00.615,vts_reward_expectancy,2022.2.4,Win32,59.95203837,Chrome,1280,720,,,,,0,576,,,,,,,,,,,,,,,,,146,B,hexagon,1,0,,,,,,,,,,,,,,,,repeat,number,numRpt,d,0.7841,noRew,,,,,,0,42,0,42,0,1,,,,,,,,,,,,,,,,,
297622,2022-10-06_16h01.00.615,vts_reward_expectancy,2022.2.4,Win32,59.95203837,Chrome,1280,720,,,,,0,576,,,,,,,,,,,,,,,,,174,W,circle,1,0,,,,,,,,,,,,,,,,repeat,number,numRpt,f,1.2521,noRew,,,,,,0,43,0,43,0,1,,,,,,,,,,,,,,,,,
297622,2022-10-06_16h01.00.615,vts_reward_expectancy,2022.2.4,Win32,59.95203837,Chrome,1280,720,,,,,0,576,,,,,,,,,,,,,,,,,160,S,hexagon,1,0,,,,,,,,,,,,,,,,switch,letter,lettSwt,k,1.6584,noRew,,,,,,0,44,0,44,0,1,,,,,,,,,,,,,,,,,
297622,2022-10-06_16h01.00.615,vts_reward_expectancy,2022.2.4,Win32,59.95203837,Chrome,1280,720,,,,,0,576,,,,,,,,,,,,,,,,,132,U,star,1,0,,,,,,,,,,,,,,,,switch,number,numSwt,d,0.8341,noRew,,,,,,0,45,0,45,0,1,,,,,,,,,,,,,,,,,
297622,2022-10-06_16h01.00.615,vts_reward_expectancy,2022.2.4,Win32,59.95203837,Chrome,1280,720,,,,,0,576,,,,,,,,,,,,,,,,,167,W,triangle,1,0,,,,,,,,,,,,,,,,repeat,number,numRpt,f,1.2674,noRew,,,,,,0,46,0,46,0,1,,,,,,,,,,,,,,,,,
297622,2022-10-06_16h01.00.615,vts_reward_expectancy,2022.2.4,Win32,59.95203837,Chrome,1280,720,,,,,0,576,,,,,,,,,,,,,,,,,125,D,circle,1,0,,,,,,,,,,,,,,,,switch,letter,lettSwt,j,1.0055,noRew,,,,,,0,47,0,47,0,1,,,,,,,,,,,,,,,,,
297622,2022-10-06_16h01.00.615,vts_reward_expectancy,2022.2.4,Win32,59.95203837,Chrome,1280,720,,,,,0,576,,,,,,,,,,,,,,,,,146,B,circle,1,0,,,,,,,,,,,,,,,,repeat,letter,lettRpt,j,1.4327,noRew,,,,,,0,48,0,48,0,1,,,,,,,,,,,,,,,,,
297622,2022-10-06_16h01.00.615,vts_reward_expectancy,2022.2.4,Win32,59.95203837,Chrome,1280,720,,,,,0,576,,,,,,,,,,,,,,,,,160,F,hexagon,1,0,,,,,,,,,,,,,,,,repeat,letter,lettRpt,j,1.1324,noRew,,,,,,0,49,0,49,0,1,,,,,,,,,,,,,,,,,
297622,2022-10-06_16h01.00.615,vts_reward_expectancy,2022.2.4,Win32,59.95203837,Chrome,1280,720,,,,,0,576,,,,,,,,,,,,,,,,,139,Y,hexagon,1,0,,,,,,,,,,,,,,,,switch,number,numSwt,d,0.8331,noRew,,,,,,0,50,0,50,0,1,,,,,,,,,,,,,,,,,
297622,2022-10-06_16h01.00.615,vts_reward_expectancy,2022.2.4,Win32,59.95203837,Chrome,1280,720,,,,,0,576,,,,,,,,,,,,,,,,,167,H,star,1,0,,,,,,,,,,,,,,,,repeat,number,numRpt,f,0.8848,noRew,,,,,,0,51,0,51,0,1,,,,,,,,,,,,,,,,,
297622,2022-10-06_16h01.00.615,vts_reward_expectancy,2022.2.4,Win32,59.95203837,Chrome,1280,720,,,,,0,576,,,,,,,,,,,,,,,,,132,D,star,1,0,,,,,,,,,,,,,,,,switch,letter,lettSwt,j,1.1831,noRew,,,,,,0,52,0,52,0,1,,,,,,,,,,,,,,,,,
297622,2022-10-06_16h01.00.615,vts_reward_expectancy,2022.2.4,Win32,59.95203837,Chrome,1280,720,,,,,0,576,,,,,,,,,,,,,,,,,146,U,hexagon,1,0,,,,,,,,,,,,,,,,repeat,letter,lettRpt,k,1.302,noRew,,,,,,0,53,0,53,0,1,,,,,,,,,,,,,,,,,
297622,2022-10-06_16h01.00.615,vts_reward_expectancy,2022.2.4,Win32,59.95203837,Chrome,1280,720,,,,,0,576,,,,,,,,,,,,,,,,,174,B,circle,1,0,,,,,,,,,,,,,,,,repeat,letter,lettRpt,j,1.1759,noRew,,,,,,0,54,0,54,0,1,,,,,,,,,,,,,,,,,
297622,2022-10-06_16h01.00.615,vts_reward_expectancy,2022.2.4,Win32,59.95203837,Chrome,1280,720,,,,,0,576,,,,,,,,,,,,,,,,,167,Y,hexagon,1,0,,,,,,,,,,,,,,,,switch,number,numSwt,f,1.0502,noRew,,,,,,0,55,0,55,0,1,,,,,,,,,,,,,,,,,
297622,2022-10-06_16h01.00.615,vts_reward_expectancy,2022.2.4,Win32,59.95203837,Chrome,1280,720,,,,,0,576,,,,,,,,,,,,,,,,,167,U,triangle,1,0,,,,,,,,,,,,,,,,repeat,number,numRpt,f,0.5844,noRew,,,,,,0,56,0,56,0,1,,,,,,,,,,,,,,,,,
297622,2022-10-06_16h01.00.615,vts_reward_expectancy,2022.2.4,Win32,59.95203837,Chrome,1280,720,,,,,0,576,,,,,,,,,,,,,,,,,181,S,star,1,0,,,,,,,,,,,,,,,,repeat,number,numRpt,f,0.6501,noRew,,,,,,0,57,0,57,0,1,,,,,,,,,,,,,,,,,
297622,2022-10-06_16h01.00.615,vts_reward_expectancy,2022.2.4,Win32,59.95203837,Chrome,1280,720,,,,,0,576,,,,,,,,,,,,,,,,,174,B,circle,1,0,,,,,,,,,,,,,,,,repeat,number,numRpt,f,0.6652,noRew,,,,,,0,58,0,58,0,1,,,,,,,,,,,,,,,,,
297622,2022-10-06_16h01.00.615,vts_reward_expectancy,2022.2.4,Win32,59.95203837,Chrome,1280,720,,,,,0,576,,,,,,,,,,,,,,,,,146,Y,hexagon,1,0,,,,,,,,,,,,,,,,repeat,number,numRpt,d,1.135,noRew,,,,,,0,59,0,59,0,1,,,,,,,,,,,,,,,,,
297622,2022-10-06_16h01.00.615,vts_reward_expectancy,2022.2.4,Win32,59.95203837,Chrome,1280,720,,,,,0,576,,,,,,,,,,,,,,,,,167,U,star,1,0,,,,,,,,,,,,,,,,repeat,number,numRpt,f,0.8507,noRew,,,,,,0,60,0,60,0,1,,,,,,,,,,,,,,,,,
297622,2022-10-06_16h01.00.615,vts_reward_expectancy,2022.2.4,Win32,59.95203837,Chrome,1280,720,,,,,0,576,,,,,,,,,,,,,,,,,160,Y,triangle,1,0,,,,,,,,,,,,,,,,switch,letter,lettSwt,k,1.2383,noRew,,,,,,0,61,0,61,0,1,,,,,,,,,,,,,,,,,
297622,2022-10-06_16h01.00.615,vts_reward_expectancy,2022.2.4,Win32,59.95203837,Chrome,1280,720,,,,,0,576,,,,,,,,,,,,,,,,,139,B,circle,1,0,,,,,,,,,,,,,,,,switch,number,numSwt,d,0.7676,noRew,,,,,,0,62,0,62,0,1,,,,,,,,,,,,,,,,,
297622,2022-10-06_16h01.00.615,vts_reward_expectancy,2022.2.4,Win32,59.95203837,Chrome,1280,720,,,,,0,576,,,,,,,,,,,,,,,,,181,W,star,1,0,,,,,,,,,,,,,,,,repeat,number,numRpt,f,0.7353,noRew,,,,,,0,63,0,63,0,1,,,,,,,,,,,,,,,,,
297622,2022-10-06_16h01.00.615,vts_reward_expectancy,2022.2.4,Win32,59.95203837,Chrome,1280,720,,,,,,,,,,,,,,,,,,,,,,,,,,,,,,,,,,,,,,,,,,,,,,,,,,,,,,,,,,,,,,,,,,,,,,,,,,,,
297622,2022-10-06_16h01.00.615,vts_reward_expectancy,2022.2.4,Win32,59.95203837,Chrome,1280,720,,,,,0,576,,,,,,,,,,,,,,,,,139,F,circle,1,0,,,,,,,,,,,,,,,,switch,letter,lettSwt,j,1.0497,Hi,,,,,,0,,,,,,space,4.5992,low,0,0,0,0,1,,,,,,,,,
297622,2022-10-06_16h01.00.615,vts_reward_expectancy,2022.2.4,Win32,59.95203837,Chrome,1280,720,,,,,10,586,,,,,,,,,,,,,,,,,174,Y,hexagon,1,0,,,,,,,,,,,,,,,,switch,number,numSwt,f,0.642,Lo,,,,,,0,,,,,,,,low,1,0,1,0,1,,,,,,,,,
297622,2022-10-06_16h01.00.615,vts_reward_expectancy,2022.2.4,Win32,59.95203837,Chrome,1280,720,,,,,10,596,,,,,,,,,,,,,,,,,146,S,circle,1,0,,,,,,,,,,,,,,,,switch,letter,lettSwt,k,0.5761,Hi,,,,,,0,,,,,,,,low,2,0,2,0,1,,,,,,,,,
297622,2022-10-06_16h01.00.615,vts_reward_expectancy,2022.2.4,Win32,59.95203837,Chrome,1280,720,,,,,10,606,,,,,,,,,,,,,,,,,160,B,hexagon,1,0,,,,,,,,,,,,,,,,switch,number,numSwt,f,0.6275,Lo,,,,,,0,,,,,,,,low,3,0,3,0,1,,,,,,,,,
297622,2022-10-06_16h01.00.615,vts_reward_expectancy,2022.2.4,Win32,59.95203837,Chrome,1280,720,,,,,10,616,,,,,,,,,,,,,,,,,181,H,hexagon,1,0,,,,,,,,,,,,,,,,repeat,number,numRpt,f,0.6311,Lo,,,,,,0,,,,,,,,low,4,0,4,0,1,,,,,,,,,
297622,2022-10-06_16h01.00.615,vts_reward_expectancy,2022.2.4,Win32,59.95203837,Chrome,1280,720,,,,,10,626,,,,,,,,,,,,,,,,,132,D,circle,1,0,,,,,,,,,,,,,,,,switch,letter,lettSwt,j,0.519,Hi,,,,,,0,,,,,,,,low,5,0,5,0,1,,,,,,,,,
297622,2022-10-06_16h01.00.615,vts_reward_expectancy,2022.2.4,Win32,59.95203837,Chrome,1280,720,,,,,1,627,,,,,,,,,,,,,,,,,125,W,circle,1,0,,,,,,,,,,,,,,,,repeat,letter,lettRpt,k,0.369,Hi,,,,,,0,,,,,,,,low,6,0,6,0,1,,,,,,,,,
297622,2022-10-06_16h01.00.615,vts_reward_expectancy,2022.2.4,Win32,59.95203837,Chrome,1280,720,,,,,0,627,,,,,,,,,,,,,,,,,167,U,hexagon,0,0,,,,,,,,,,,,,,,,switch,number,NA,d,0.884,Hi,,,,,,0,,,,,,,,low,7,0,7,0,1,,,,,,,,,
297622,2022-10-06_16h01.00.615,vts_reward_expectancy,2022.2.4,Win32,59.95203837,Chrome,1280,720,,,,,0,627,,,,,,,,,,,,,,,,,139,F,circle,1,1,,,,,,,,,,,,,,,,switch,letter,lettSwt,j,0.8966,Hi,,,,,,0,,,,,,,,low,8,0,8,0,1,,,,,,,,,
297622,2022-10-06_16h01.00.615,vts_reward_expectancy,2022.2.4,Win32,59.95203837,Chrome,1280,720,,,,,1,628,,,,,,,,,,,,,,,,,174,Y,hexagon,1,0,,,,,,,,,,,,,,,,switch,number,numSwt,f,0.5099,Lo,,,,,,0,,,,,,,,low,9,0,9,0,1,,,,,,,,,
297622,2022-10-06_16h01.00.615,vts_reward_expectancy,2022.2.4,Win32,59.95203837,Chrome,1280,720,,,,,0,628,,,,,,,,,,,,,,,,,146,S,circle,1,0,,,,,,,,,,,,,,,,switch,letter,lettSwt,k,0.9346,Hi,,,,,,0,,,,,,,,low,10,0,10,0,1,,,,,,,,,
297622,2022-10-06_16h01.00.615,vts_reward_expectancy,2022.2.4,Win32,59.95203837,Chrome,1280,720,,,,,10,638,,,,,,,,,,,,,,,,,160,B,hexagon,1,0,,,,,,,,,,,,,,,,switch,number,numSwt,f,0.664,Lo,,,,,,0,,,,,,,,low,11,0,11,0,1,,,,,,,,,
297622,2022-10-06_16h01.00.615,vts_reward_expectancy,2022.2.4,Win32,59.95203837,Chrome,1280,720,,,,,10,648,,,,,,,,,,,,,,,,,181,H,circle,1,0,,,,,,,,,,,,,,,,switch,letter,lettSwt,j,0.5214,Hi,,,,,,0,,,,,,,,low,12,0,12,0,1,,,,,,,,,
297622,2022-10-06_16h01.00.615,vts_reward_expectancy,2022.2.4,Win32,59.95203837,Chrome,1280,720,,,,,1,649,,,,,,,,,,,,,,,,,132,D,hexagon,1,0,,,,,,,,,,,,,,,,switch,number,numSwt,d,0.7408,Lo,,,,,,0,,,,,,,,low,13,0,13,0,1,,,,,,,,,
297622,2022-10-06_16h01.00.615,vts_reward_expectancy,2022.2.4,Win32,59.95203837,Chrome,1280,720,,,,,10,659,,,,,,,,,,,,,,,,,125,W,circle,1,0,,,,,,,,,,,,,,,,switch,letter,lettSwt,k,0.4016,Hi,,,,,,0,,,,,,,,low,14,0,14,0,1,,,,,,,,,
297622,2022-10-06_16h01.00.615,vts_reward_expectancy,2022.2.4,Win32,59.95203837,Chrome,1280,720,,,,,10,669,,,,,,,,,,,,,,,,,167,U,hexagon,1,0,,,,,,,,,,,,,,,,switch,number,numSwt,f,0.3524,Lo,,,,,,0,,,,,,,,low,15,0,15,0,1,,,,,,,,,
297622,2022-10-06_16h01.00.615,vts_reward_expectancy,2022.2.4,Win32,59.95203837,Chrome,1280,720,,,,,1,670,,,,,,,,,,,,,,,,,174,W,hexagon,1,0,,,,,,,,,,,,,,,,repeat,number,numRpt,f,0.4804,Lo,,,,,,0,,,,,,,,low,16,0,16,0,1,,,,,,,,,
297622,2022-10-06_16h01.00.615,vts_reward_expectancy,2022.2.4,Win32,59.95203837,Chrome,1280,720,,,,,10,680,,,,,,,,,,,,,,,,,160,D,circle,1,0,,,,,,,,,,,,,,,,switch,letter,lettSwt,j,0.7634,Hi,,,,,,0,,,,,,,,low,17,0,17,0,1,,,,,,,,,
297622,2022-10-06_16h01.00.615,vts_reward_expectancy,2022.2.4,Win32,59.95203837,Chrome,1280,720,,,,,10,690,,,,,,,,,,,,,,,,,132,Y,hexagon,1,0,,,,,,,,,,,,,,,,switch,number,numSwt,d,0.4348,Lo,,,,,,0,,,,,,,,low,18,0,18,0,1,,,,,,,,,
297622,2022-10-06_16h01.00.615,vts_reward_expectancy,2022.2.4,Win32,59.95203837,Chrome,1280,720,,,,,1,691,,,,,,,,,,,,,,,,,125,S,circle,1,0,,,,,,,,,,,,,,,,switch,letter,lettSwt,k,0.7531,Hi,,,,,,0,,,,,,,,low,19,0,19,0,1,,,,,,,,,
297622,2022-10-06_16h01.00.615,vts_reward_expectancy,2022.2.4,Win32,59.95203837,Chrome,1280,720,,,,,10,701,,,,,,,,,,,,,,,,,139,B,circle,1,0,,,,,,,,,,,,,,,,switch,number,numSwt,d,0.6421,Hi,,,,,,0,,,,,,,,low,20,0,20,0,1,,,,,,,,,
297622,2022-10-06_16h01.00.615,vts_reward_expectancy,2022.2.4,Win32,59.95203837,Chrome,1280,720,,,,,10,711,,,,,,,,,,,,,,,,,146,F,hexagon,1,0,,,,,,,,,,,,,,,,switch,letter,lettSwt,j,0.5829,Lo,,,,,,0,,,,,,,,low,21,0,21,0,1,,,,,,,,,
297622,2022-10-06_16h01.00.615,vts_reward_expectancy,2022.2.4,Win32,59.95203837,Chrome,1280,720,,,,,10,721,,,,,,,,,,,,,,,,,181,U,circle,1,0,,,,,,,,,,,,,,,,switch,number,numSwt,f,0.5987,Hi,,,,,,0,,,,,,,,low,22,0,22,0,1,,,,,,,,,
297622,2022-10-06_16h01.00.615,vts_reward_expectancy,2022.2.4,Win32,59.95203837,Chrome,1280,720,,,,,10,731,,,,,,,,,,,,,,,,,167,H,hexagon,1,0,,,,,,,,,,,,,,,,switch,letter,lettSwt,j,0.6792,Lo,,,,,,0,,,,,,,,low,23,0,23,0,1,,,,,,,,,
297622,2022-10-06_16h01.00.615,vts_reward_expectancy,2022.2.4,Win32,59.95203837,Chrome,1280,720,,,,,1,732,,,,,,,,,,,,,,,,,160,U,hexagon,1,0,,,,,,,,,,,,,,,,switch,number,numSwt,f,0.6335,Lo,,,,,,0,,,,,,,,low,24,0,24,0,1,,,,,,,,,
297622,2022-10-06_16h01.00.615,vts_reward_expectancy,2022.2.4,Win32,59.95203837,Chrome,1280,720,,,,,10,742,,,,,,,,,,,,,,,,,125,Y,circle,1,0,,,,,,,,,,,,,,,,switch,letter,lettSwt,k,0.7839,Hi,,,,,,0,,,,,,,,low,25,0,25,0,1,,,,,,,,,
297622,2022-10-06_16h01.00.615,vts_reward_expectancy,2022.2.4,Win32,59.95203837,Chrome,1280,720,,,,,1,743,,,,,,,,,,,,,,,,,174,W,circle,1,0,,,,,,,,,,,,,,,,switch,number,numSwt,f,0.6338,Hi,,,,,,0,,,,,,,,low,26,0,26,0,1,,,,,,,,,
297622,2022-10-06_16h01.00.615,vts_reward_expectancy,2022.2.4,Win32,59.95203837,Chrome,1280,720,,,,,10,753,,,,,,,,,,,,,,,,,146,D,hexagon,1,0,,,,,,,,,,,,,,,,repeat,number,numRpt,d,0.6741,Lo,,,,,,0,,,,,,,,low,27,0,27,0,1,,,,,,,,,
297622,2022-10-06_16h01.00.615,vts_reward_expectancy,2022.2.4,Win32,59.95203837,Chrome,1280,720,,,,,1,754,,,,,,,,,,,,,,,,,132,B,circle,1,0,,,,,,,,,,,,,,,,switch,letter,lettSwt,j,0.6138,Hi,,,,,,0,,,,,,,,low,28,0,28,0,1,,,,,,,,,
297622,2022-10-06_16h01.00.615,vts_reward_expectancy,2022.2.4,Win32,59.95203837,Chrome,1280,720,,,,,1,755,,,,,,,,,,,,,,,,,181,H,hexagon,1,0,,,,,,,,,,,,,,,,switch,number,numSwt,f,0.5192,Lo,,,,,,0,,,,,,,,low,29,0,29,0,1,,,,,,,,,
297622,2022-10-06_16h01.00.615,vts_reward_expectancy,2022.2.4,Win32,59.95203837,Chrome,1280,720,,,,,10,765,,,,,,,,,,,,,,,,,139,S,circle,1,0,,,,,,,,,,,,,,,,switch,letter,lettSwt,k,0.4472,Hi,,,,,,0,,,,,,,,low,30,0,30,0,1,,,,,,,,,
297622,2022-10-06_16h01.00.615,vts_reward_expectancy,2022.2.4,Win32,59.95203837,Chrome,1280,720,,,,,1,766,,,,,,,,,,,,,,,,,167,F,hexagon,1,0,,,,,,,,,,,,,,,,switch,number,numSwt,f,0.6116,Lo,,,,,,0,,,,,,,,low,31,0,31,0,1,,,,,,,,,
297622,2022-10-06_16h01.00.615,vts_reward_expectancy,2022.2.4,Win32,59.95203837,Chrome,1280,720,,,,,1,767,,,,,,,,,,,,,,,,,167,D,circle,1,0,,,,,,,,,,,,,,,,switch,letter,lettSwt,j,0.5493,Hi,,,,,,1,,,,,,space,5.4119,low,0,0,0,0,1,,,,,,,,,
297622,2022-10-06_16h01.00.615,vts_reward_expectancy,2022.2.4,Win32,59.95203837,Chrome,1280,720,,,,,0,767,,,,,,,,,,,,,,,,,125,H,hexagon,0,0,,,,,,,,,,,,,,,,switch,number,NA,f,0.4637,Hi,,,,,,1,,,,,,,,low,1,0,1,0,1,,,,,,,,,
297622,2022-10-06_16h01.00.615,vts_reward_expectancy,2022.2.4,Win32,59.95203837,Chrome,1280,720,,,,,0,767,,,,,,,,,,,,,,,,,146,S,circle,1,1,,,,,,,,,,,,,,,,switch,letter,lettSwt,k,0.5796,Hi,,,,,,1,,,,,,,,low,2,0,2,0,1,,,,,,,,,
297622,2022-10-06_16h01.00.615,vts_reward_expectancy,2022.2.4,Win32,59.95203837,Chrome,1280,720,,,,,0,767,,,,,,,,,,,,,,,,,160,W,hexagon,0,0,,,,,,,,,,,,,,,,switch,number,NA,d,0.6966,Hi,,,,,,1,,,,,,,,low,3,0,3,0,1,,,,,,,,,
297622,2022-10-06_16h01.00.615,vts_reward_expectancy,2022.2.4,Win32,59.95203837,Chrome,1280,720,,,,,10,777,,,,,,,,,,,,,,,,,139,U,hexagon,1,1,,,,,,,,,,,,,,,,repeat,number,numRpt,d,0.5145,Lo,,,,,,1,,,,,,,,low,4,0,4,0,1,,,,,,,,,
297622,2022-10-06_16h01.00.615,vts_reward_expectancy,2022.2.4,Win32,59.95203837,Chrome,1280,720,,,,,10,787,,,,,,,,,,,,,,,,,174,Y,circle,1,0,,,,,,,,,,,,,,,,switch,letter,lettSwt,k,0.496,Hi,,,,,,1,,,,,,,,low,5,0,5,0,1,,,,,,,,,
297622,2022-10-06_16h01.00.615,vts_reward_expectancy,2022.2.4,Win32,59.95203837,Chrome,1280,720,,,,,0,787,,,,,,,,,,,,,,,,,132,F,circle,1,0,,,,,,,,,,,,,,,,repeat,letter,lettRpt,j,0.6976,Hi,,,,,,1,,,,,,,,low,6,0,6,0,1,,,,,,,,,
297622,2022-10-06_16h01.00.615,vts_reward_expectancy,2022.2.4,Win32,59.95203837,Chrome,1280,720,,,,,10,797,,,,,,,,,,,,,,,,,181,B,hexagon,1,0,,,,,,,,,,,,,,,,switch,number,numSwt,f,0.5781,Lo,,,,,,1,,,,,,,,low,7,0,7,0,1,,,,,,,,,
297622,2022-10-06_16h01.00.615,vts_reward_expectancy,2022.2.4,Win32,59.95203837,Chrome,1280,720,,,,,1,798,,,,,,,,,,,,,,,,,167,D,hexagon,1,0,,,,,,,,,,,,,,,,repeat,number,numRpt,f,0.718,Lo,,,,,,1,,,,,,,,low,8,0,8,0,1,,,,,,,,,
297622,2022-10-06_16h01.00.615,vts_reward_expectancy,2022.2.4,Win32,59.95203837,Chrome,1280,720,,,,,0,798,,,,,,,,,,,,,,,,,125,H,circle,1,0,,,,,,,,,,,,,,,,switch,letter,lettSwt,j,0.815,Hi,,,,,,1,,,,,,,,low,9,0,9,0,1,,,,,,,,,
297622,2022-10-06_16h01.00.615,vts_reward_expectancy,2022.2.4,Win32,59.95203837,Chrome,1280,720,,,,,1,799,,,,,,,,,,,,,,,,,146,S,hexagon,1,0,,,,,,,,,,,,,,,,switch,number,numSwt,d,0.7339,Lo,,,,,,1,,,,,,,,low,10,0,10,0,1,,,,,,,,,
297622,2022-10-06_16h01.00.615,vts_reward_expectancy,2022.2.4,Win32,59.95203837,Chrome,1280,720,,,,,10,809,,,,,,,,,,,,,,,,,160,W,circle,1,0,,,,,,,,,,,,,,,,switch,letter,lettSwt,k,0.4633,Hi,,,,,,1,,,,,,,,low,11,0,11,0,1,,,,,,,,,
297622,2022-10-06_16h01.00.615,vts_reward_expectancy,2022.2.4,Win32,59.95203837,Chrome,1280,720,,,,,0,809,,,,,,,,,,,,,,,,,139,U,circle,1,0,,,,,,,,,,,,,,,,repeat,letter,lettRpt,k,0.6174,Hi,,,,,,1,,,,,,,,low,12,0,12,0,1,,,,,,,,,
297622,2022-10-06_16h01.00.615,vts_reward_expectancy,2022.2.4,Win32,59.95203837,Chrome,1280,720,,,,,1,810,,,,,,,,,,,,,,,,,174,Y,hexagon,1,0,,,,,,,,,,,,,,,,switch,number,numSwt,f,0.4376,Lo,,,,,,1,,,,,,,,low,13,0,13,0,1,,,,,,,,,
297622,2022-10-06_16h01.00.615,vts_reward_expectancy,2022.2.4,Win32,59.95203837,Chrome,1280,720,,,,,1,811,,,,,,,,,,,,,,,,,132,F,hexagon,1,0,,,,,,,,,,,,,,,,repeat,number,numRpt,d,0.5282,Lo,,,,,,1,,,,,,,,low,14,0,14,0,1,,,,,,,,,
297622,2022-10-06_16h01.00.615,vts_reward_expectancy,2022.2.4,Win32,59.95203837,Chrome,1280,720,,,,,10,821,,,,,,,,,,,,,,,,,181,B,circle,1,0,,,,,,,,,,,,,,,,switch,letter,lettSwt,j,0.4275,Hi,,,,,,1,,,,,,,,low,15,0,15,0,1,,,,,,,,,
297622,2022-10-06_16h01.00.615,vts_reward_expectancy,2022.2.4,Win32,59.95203837,Chrome,1280,720,,,,,0,821,,,,,,,,,,,,,,,,,160,H,circle,0,0,,,,,,,,,,,,,,,,repeat,letter,NA,k,0.3804,Hi,,,,,,1,,,,,,,,low,16,0,16,0,1,,,,,,,,,
297622,2022-10-06_16h01.00.615,vts_reward_expectancy,2022.2.4,Win32,59.95203837,Chrome,1280,720,,,,,10,831,,,,,,,,,,,,,,,,,132,B,hexagon,1,1,,,,,,,,,,,,,,,,switch,number,numSwt,d,0.6117,Lo,,,,,,1,,,,,,,,low,17,0,17,0,1,,,,,,,,,
297622,2022-10-06_16h01.00.615,vts_reward_expectancy,2022.2.4,Win32,59.95203837,Chrome,1280,720,,,,,0,831,,,,,,,,,,,,,,,,,167,W,circle,1,0,,,,,,,,,,,,,,,,switch,letter,lettSwt,k,0.68,Hi,,,,,,1,,,,,,,,low,18,0,18,0,1,,,,,,,,,
297622,2022-10-06_16h01.00.615,vts_reward_expectancy,2022.2.4,Win32,59.95203837,Chrome,1280,720,,,,,1,832,,,,,,,,,,,,,,,,,125,Y,hexagon,1,0,,,,,,,,,,,,,,,,switch,number,numSwt,d,0.6846,Lo,,,,,,1,,,,,,,,low,19,0,19,0,1,,,,,,,,,
297622,2022-10-06_16h01.00.615,vts_reward_expectancy,2022.2.4,Win32,59.95203837,Chrome,1280,720,,,,,0,832,,,,,,,,,,,,,,,,,146,U,circle,1,0,,,,,,,,,,,,,,,,switch,letter,lettSwt,k,0.5974,Hi,,,,,,1,,,,,,,,low,20,0,20,0,1,,,,,,,,,
297622,2022-10-06_16h01.00.615,vts_reward_expectancy,2022.2.4,Win32,59.95203837,Chrome,1280,720,,,,,10,842,,,,,,,,,,,,,,,,,174,D,hexagon,1,0,,,,,,,,,,,,,,,,switch,number,numSwt,f,0.5949,Lo,,,,,,1,,,,,,,,low,21,0,21,0,1,,,,,,,,,
297622,2022-10-06_16h01.00.615,vts_reward_expectancy,2022.2.4,Win32,59.95203837,Chrome,1280,720,,,,,1,843,,,,,,,,,,,,,,,,,181,S,hexagon,1,0,,,,,,,,,,,,,,,,repeat,number,numRpt,f,0.6474,Lo,,,,,,1,,,,,,,,low,22,0,22,0,1,,,,,,,,,
297622,2022-10-06_16h01.00.615,vts_reward_expectancy,2022.2.4,Win32,59.95203837,Chrome,1280,720,,,,,0,843,,,,,,,,,,,,,,,,,139,F,circle,1,0,,,,,,,,,,,,,,,,switch,letter,lettSwt,j,0.6634,Hi,,,,,,1,,,,,,,,low,23,0,23,0,1,,,,,,,,,
297622,2022-10-06_16h01.00.615,vts_reward_expectancy,2022.2.4,Win32,59.95203837,Chrome,1280,720,,,,,1,844,,,,,,,,,,,,,,,,,181,S,hexagon,1,0,,,,,,,,,,,,,,,,switch,number,numSwt,f,0.4308,Lo,,,,,,1,,,,,,,,low,24,0,24,0,1,,,,,,,,,
297622,2022-10-06_16h01.00.615,vts_reward_expectancy,2022.2.4,Win32,59.95203837,Chrome,1280,720,,,,,10,854,,,,,,,,,,,,,,,,,139,Y,circle,1,0,,,,,,,,,,,,,,,,switch,letter,lettSwt,k,0.3868,Hi,,,,,,1,,,,,,,,low,25,0,25,0,1,,,,,,,,,
297622,2022-10-06_16h01.00.615,vts_reward_expectancy,2022.2.4,Win32,59.95203837,Chrome,1280,720,,,,,0,854,,,,,,,,,,,,,,,,,146,H,hexagon,0,0,,,,,,,,,,,,,,,,switch,number,NA,f,1.03,Hi,,,,,,1,,,,,,,,low,26,0,26,0,1,,,,,,,,,
297622,2022-10-06_16h01.00.615,vts_reward_expectancy,2022.2.4,Win32,59.95203837,Chrome,1280,720,,,,,0,854,,,,,,,,,,,,,,,,,167,B,circle,0,1,,,,,,,,,,,,,,,,repeat,number,NA,d,1.1629,Hi,,,,,,1,,,,,,,,low,27,0,27,0,1,,,,,,,,,
297622,2022-10-06_16h01.00.615,vts_reward_expectancy,2022.2.4,Win32,59.95203837,Chrome,1280,720,,,,,0,854,,,,,,,,,,,,,,,,,174,F,circle,1,1,,,,,,,,,,,,,,,,switch,letter,lettSwt,j,0.5956,Hi,,,,,,1,,,,,,,,low,28,0,28,0,1,,,,,,,,,
297622,2022-10-06_16h01.00.615,vts_reward_expectancy,2022.2.4,Win32,59.95203837,Chrome,1280,720,,,,,0,854,,,,,,,,,,,,,,,,,160,W,hexagon,0,0,,,,,,,,,,,,,,,,switch,number,NA,d,0.7135,Hi,,,,,,1,,,,,,,,low,29,0,29,0,1,,,,,,,,,
297622,2022-10-06_16h01.00.615,vts_reward_expectancy,2022.2.4,Win32,59.95203837,Chrome,1280,720,,,,,10,864,,,,,,,,,,,,,,,,,125,U,circle,1,1,,,,,,,,,,,,,,,,switch,letter,lettSwt,k,0.5667,Hi,,,,,,1,,,,,,,,low,30,0,30,0,1,,,,,,,,,
297622,2022-10-06_16h01.00.615,vts_reward_expectancy,2022.2.4,Win32,59.95203837,Chrome,1280,720,,,,,1,865,,,,,,,,,,,,,,,,,132,D,hexagon,1,0,,,,,,,,,,,,,,,,switch,number,numSwt,d,0.4618,Lo,,,,,,1,,,,,,,,low,31,0,31,0,1,,,,,,,,,
297622,2022-10-06_16h01.00.615,vts_reward_expectancy,2022.2.4,Win32,59.95203837,Chrome,1280,720,,,,,0,865,,,,,,,,,,,,,,,,,167,D,triangle,1,0,,,,,,,,,,,,,,,,switch,letter,lettSwt,j,1.1542,Hi,,,,,,2,,,,,,space,0.8317,high,0,0,0,0,1,,,,,,,,,
297622,2022-10-06_16h01.00.615,vts_reward_expectancy,2022.2.4,Win32,59.95203837,Chrome,1280,720,,,,,10,875,,,,,,,,,,,,,,,,,160,U,star,1,0,,,,,,,,,,,,,,,,switch,number,numSwt,f,0.914,Lo,,,,,,2,,,,,,,,high,1,0,1,0,1,,,,,,,,,
297622,2022-10-06_16h01.00.615,vts_reward_expectancy,2022.2.4,Win32,59.95203837,Chrome,1280,720,,,,,10,885,,,,,,,,,,,,,,,,,132,B,triangle,1,0,,,,,,,,,,,,,,,,switch,letter,lettSwt,j,0.4783,Hi,,,,,,2,,,,,,,,high,2,0,2,0,1,,,,,,,,,
297622,2022-10-06_16h01.00.615,vts_reward_expectancy,2022.2.4,Win32,59.95203837,Chrome,1280,720,,,,,1,886,,,,,,,,,,,,,,,,,125,S,star,1,0,,,,,,,,,,,,,,,,switch,number,numSwt,d,0.6781,Lo,,,,,,2,,,,,,,,high,3,0,3,0,1,,,,,,,,,
297622,2022-10-06_16h01.00.615,vts_reward_expectancy,2022.2.4,Win32,59.95203837,Chrome,1280,720,,,,,0,886,,,,,,,,,,,,,,,,,174,W,triangle,1,0,,,,,,,,,,,,,,,,switch,letter,lettSwt,k,0.6617,Hi,,,,,,2,,,,,,,,high,4,0,4,0,1,,,,,,,,,
297622,2022-10-06_16h01.00.615,vts_reward_expectancy,2022.2.4,Win32,59.95203837,Chrome,1280,720,,,,,0,886,,,,,,,,,,,,,,,,,146,H,star,0,0,,,,,,,,,,,,,,,,switch,number,NA,f,0.6022,Hi,,,,,,2,,,,,,,,high,5,0,5,0,1,,,,,,,,,
297622,2022-10-06_16h01.00.615,vts_reward_expectancy,2022.2.4,Win32,59.95203837,Chrome,1280,720,,,,,10,896,,,,,,,,,,,,,,,,,139,Y,star,1,1,,,,,,,,,,,,,,,,repeat,number,numRpt,d,0.7135,Lo,,,,,,2,,,,,,,,high,6,0,6,0,1,,,,,,,,,
297622,2022-10-06_16h01.00.615,vts_reward_expectancy,2022.2.4,Win32,59.95203837,Chrome,1280,720,,,,,0,896,,,,,,,,,,,,,,,,,181,F,triangle,1,0,,,,,,,,,,,,,,,,repeat,number,numRpt,f,0.7519,Hi,,,,,,2,,,,,,,,high,7,0,7,0,1,,,,,,,,,
297622,2022-10-06_16h01.00.615,vts_reward_expectancy,2022.2.4,Win32,59.95203837,Chrome,1280,720,,,,,0,896,,,,,,,,,,,,,,,,,167,D,star,0,0,,,,,,,,,,,,,,,,repeat,number,NA,d,0.6504,Hi,,,,,,2,,,,,,,,high,8,0,8,0,1,,,,,,,,,
297622,2022-10-06_16h01.00.615,vts_reward_expectancy,2022.2.4,Win32,59.95203837,Chrome,1280,720,,,,,0,896,,,,,,,,,,,,,,,,,160,U,triangle,1,1,,,,,,,,,,,,,,,,switch,letter,lettSwt,k,0.9022,Hi,,,,,,2,,,,,,,,high,9,0,9,0,1,,,,,,,,,
297622,2022-10-06_16h01.00.615,vts_reward_expectancy,2022.2.4,Win32,59.95203837,Chrome,1280,720,,,,,1,897,,,,,,,,,,,,,,,,,132,B,star,1,0,,,,,,,,,,,,,,,,repeat,letter,lettRpt,j,0.8469,Lo,,,,,,2,,,,,,,,high,10,0,10,0,1,,,,,,,,,
297622,2022-10-06_16h01.00.615,vts_reward_expectancy,2022.2.4,Win32,59.95203837,Chrome,1280,720,,,,,10,907,,,,,,,,,,,,,,,,,125,S,triangle,1,0,,,,,,,,,,,,,,,,repeat,letter,lettRpt,k,0.4818,Hi,,,,,,2,,,,,,,,high,11,0,11,0,1,,,,,,,,,
297622,2022-10-06_16h01.00.615,vts_reward_expectancy,2022.2.4,Win32,59.95203837,Chrome,1280,720,,,,,10,917,,,,,,,,,,,,,,,,,174,W,triangle,1,0,,,,,,,,,,,,,,,,switch,number,numSwt,f,0.4796,Hi,,,,,,2,,,,,,,,high,12,0,12,0,1,,,,,,,,,
297622,2022-10-06_16h01.00.615,vts_reward_expectancy,2022.2.4,Win32,59.95203837,Chrome,1280,720,,,,,1,918,,,,,,,,,,,,,,,,,146,H,star,1,0,,,,,,,,,,,,,,,,switch,letter,lettSwt,j,0.5947,Lo,,,,,,2,,,,,,,,high,13,0,13,0,1,,,,,,,,,
297622,2022-10-06_16h01.00.615,vts_reward_expectancy,2022.2.4,Win32,59.95203837,Chrome,1280,720,,,,,1,919,,,,,,,,,,,,,,,,,139,Y,star,1,0,,,,,,,,,,,,,,,,switch,number,numSwt,d,0.5143,Lo,,,,,,2,,,,,,,,high,14,0,14,0,1,,,,,,,,,
297622,2022-10-06_16h01.00.615,vts_reward_expectancy,2022.2.4,Win32,59.95203837,Chrome,1280,720,,,,,10,929,,,,,,,,,,,,,,,,,181,F,triangle,1,0,,,,,,,,,,,,,,,,repeat,number,numRpt,f,0.4964,Hi,,,,,,2,,,,,,,,high,15,0,15,0,1,,,,,,,,,
297622,2022-10-06_16h01.00.615,vts_reward_expectancy,2022.2.4,Win32,59.95203837,Chrome,1280,720,,,,,1,930,,,,,,,,,,,,,,,,,125,B,star,1,0,,,,,,,,,,,,,,,,switch,letter,lettSwt,j,0.4465,Lo,,,,,,2,,,,,,,,high,16,0,16,0,1,,,,,,,,,
297622,2022-10-06_16h01.00.615,vts_reward_expectancy,2022.2.4,Win32,59.95203837,Chrome,1280,720,,,,,0,930,,,,,,,,,,,,,,,,,167,U,triangle,1,0,,,,,,,,,,,,,,,,switch,number,numSwt,f,0.8795,Hi,,,,,,2,,,,,,,,high,17,0,17,0,1,,,,,,,,,
297622,2022-10-06_16h01.00.615,vts_reward_expectancy,2022.2.4,Win32,59.95203837,Chrome,1280,720,,,,,1,931,,,,,,,,,,,,,,,,,146,W,star,1,0,,,,,,,,,,,,,,,,switch,letter,lettSwt,k,0.6464,Lo,,,,,,2,,,,,,,,high,18,0,18,0,1,,,,,,,,,
297622,2022-10-06_16h01.00.615,vts_reward_expectancy,2022.2.4,Win32,59.95203837,Chrome,1280,720,,,,,0,931,,,,,,,,,,,,,,,,,132,Y,triangle,1,0,,,,,,,,,,,,,,,,switch,number,numSwt,d,0.6954,Hi,,,,,,2,,,,,,,,high,19,0,19,0,1,,,,,,,,,
297622,2022-10-06_16h01.00.615,vts_reward_expectancy,2022.2.4,Win32,59.95203837,Chrome,1280,720,,,,,1,932,,,,,,,,,,,,,,,,,174,F,star,1,0,,,,,,,,,,,,,,,,repeat,number,numRpt,f,0.851,Lo,,,,,,2,,,,,,,,high,20,0,20,0,1,,,,,,,,,
297622,2022-10-06_16h01.00.615,vts_reward_expectancy,2022.2.4,Win32,59.95203837,Chrome,1280,720,,,,,0,932,,,,,,,,,,,,,,,,,139,S,triangle,1,0,,,,,,,,,,,,,,,,repeat,number,numRpt,d,0.7471,Hi,,,,,,2,,,,,,,,high,21,0,21,0,1,,,,,,,,,
297622,2022-10-06_16h01.00.615,vts_reward_expectancy,2022.2.4,Win32,59.95203837,Chrome,1280,720,,,,,1,933,,,,,,,,,,,,,,,,,181,H,star,1,0,,,,,,,,,,,,,,,,switch,letter,lettSwt,j,0.6986,Lo,,,,,,2,,,,,,,,high,22,0,22,0,1,,,,,,,,,
297622,2022-10-06_16h01.00.615,vts_reward_expectancy,2022.2.4,Win32,59.95203837,Chrome,1280,720,,,,,0,933,,,,,,,,,,,,,,,,,160,D,triangle,1,0,,,,,,,,,,,,,,,,switch,number,numSwt,f,0.5863,Hi,,,,,,2,,,,,,,,high,23,0,23,0,1,,,,,,,,,
297622,2022-10-06_16h01.00.615,vts_reward_expectancy,2022.2.4,Win32,59.95203837,Chrome,1280,720,,,,,1,934,,,,,,,,,,,,,,,,,167,Y,star,1,0,,,,,,,,,,,,,,,,switch,letter,lettSwt,k,0.6631,Lo,,,,,,2,,,,,,,,high,24,0,24,0,1,,,,,,,,,
297622,2022-10-06_16h01.00.615,vts_reward_expectancy,2022.2.4,Win32,59.95203837,Chrome,1280,720,,,,,0,934,,,,,,,,,,,,,,,,,132,F,triangle,1,0,,,,,,,,,,,,,,,,switch,number,numSwt,d,0.7459,Hi,,,,,,2,,,,,,,,high,25,0,25,0,1,,,,,,,,,
297622,2022-10-06_16h01.00.615,vts_reward_expectancy,2022.2.4,Win32,59.95203837,Chrome,1280,720,,,,,0,934,,,,,,,,,,,,,,,,,160,H,triangle,1,0,,,,,,,,,,,,,,,,repeat,number,numRpt,f,0.5289,Hi,,,,,,2,,,,,,,,high,26,0,26,0,1,,,,,,,,,
297622,2022-10-06_16h01.00.615,vts_reward_expectancy,2022.2.4,Win32,59.95203837,Chrome,1280,720,,,,,1,935,,,,,,,,,,,,,,,,,174,W,star,1,0,,,,,,,,,,,,,,,,repeat,number,numRpt,f,0.4127,Lo,,,,,,2,,,,,,,,high,27,0,27,0,1,,,,,,,,,
297622,2022-10-06_16h01.00.615,vts_reward_expectancy,2022.2.4,Win32,59.95203837,Chrome,1280,720,,,,,1,936,,,,,,,,,,,,,,,,,125,S,star,1,0,,,,,,,,,,,,,,,,repeat,number,numRpt,d,0.4634,Lo,,,,,,2,,,,,,,,high,28,0,28,0,1,,,,,,,,,
297622,2022-10-06_16h01.00.615,vts_reward_expectancy,2022.2.4,Win32,59.95203837,Chrome,1280,720,,,,,0,936,,,,,,,,,,,,,,,,,181,B,triangle,1,0,,,,,,,,,,,,,,,,switch,letter,lettSwt,j,0.5359,Hi,,,,,,2,,,,,,,,high,29,0,29,0,1,,,,,,,,,
297622,2022-10-06_16h01.00.615,vts_reward_expectancy,2022.2.4,Win32,59.95203837,Chrome,1280,720,,,,,0,936,,,,,,,,,,,,,,,,,139,D,triangle,1,0,,,,,,,,,,,,,,,,switch,number,numSwt,d,0.6355,Hi,,,,,,2,,,,,,,,high,30,0,30,0,1,,,,,,,,,
297622,2022-10-06_16h01.00.615,vts_reward_expectancy,2022.2.4,Win32,59.95203837,Chrome,1280,720,,,,,1,937,,,,,,,,,,,,,,,,,146,U,star,1,0,,,,,,,,,,,,,,,,switch,letter,lettSwt,k,0.5963,Lo,,,,,,2,,,,,,,,high,31,0,31,0,1,,,,,,,,,
297622,2022-10-06_16h01.00.615,vts_reward_expectancy,2022.2.4,Win32,59.95203837,Chrome,1280,720,,,,,0,937,,,,,,,,,,,,,,,,,146,W,triangle,1,0,,,,,,,,,,,,,,,,switch,number,numSwt,d,0.6551,Hi,,,,,,3,,,,,,space,1.5147,high,0,0,0,0,1,,,,,,,,,
297622,2022-10-06_16h01.00.615,vts_reward_expectancy,2022.2.4,Win32,59.95203837,Chrome,1280,720,,,,,1,938,,,,,,,,,,,,,,,,,160,H,star,1,0,,,,,,,,,,,,,,,,switch,letter,lettSwt,j,0.5629,Lo,,,,,,3,,,,,,,,high,1,0,1,0,1,,,,,,,,,
297622,2022-10-06_16h01.00.615,vts_reward_expectancy,2022.2.4,Win32,59.95203837,Chrome,1280,720,,,,,0,938,,,,,,,,,,,,,,,,,132,S,triangle,1,0,,,,,,,,,,,,,,,,switch,number,numSwt,d,0.6294,Hi,,,,,,3,,,,,,,,high,2,0,2,0,1,,,,,,,,,
297622,2022-10-06_16h01.00.615,vts_reward_expectancy,2022.2.4,Win32,59.95203837,Chrome,1280,720,,,,,1,939,,,,,,,,,,,,,,,,,181,Y,star,1,0,,,,,,,,,,,,,,,,repeat,number,numRpt,f,0.6139,Lo,,,,,,3,,,,,,,,high,3,0,3,0,1,,,,,,,,,
297622,2022-10-06_16h01.00.615,vts_reward_expectancy,2022.2.4,Win32,59.95203837,Chrome,1280,720,,,,,0,939,,,,,,,,,,,,,,,,,125,D,triangle,1,0,,,,,,,,,,,,,,,,repeat,number,numRpt,d,0.5434,Hi,,,,,,3,,,,,,,,high,4,0,4,0,1,,,,,,,,,
297622,2022-10-06_16h01.00.615,vts_reward_expectancy,2022.2.4,Win32,59.95203837,Chrome,1280,720,,,,,1,940,,,,,,,,,,,,,,,,,174,F,star,1,0,,,,,,,,,,,,,,,,repeat,number,numRpt,f,0.4963,Lo,,,,,,3,,,,,,,,high,5,0,5,0,1,,,,,,,,,
297622,2022-10-06_16h01.00.615,vts_reward_expectancy,2022.2.4,Win32,59.95203837,Chrome,1280,720,,,,,10,950,,,,,,,,,,,,,,,,,167,B,star,1,0,,,,,,,,,,,,,,,,repeat,number,numRpt,f,0.5284,Lo,,,,,,3,,,,,,,,high,6,0,6,0,1,,,,,,,,,
297622,2022-10-06_16h01.00.615,vts_reward_expectancy,2022.2.4,Win32,59.95203837,Chrome,1280,720,,,,,10,960,,,,,,,,,,,,,,,,,139,U,triangle,1,0,,,,,,,,,,,,,,,,switch,letter,lettSwt,k,0.4822,Hi,,,,,,3,,,,,,,,high,7,0,7,0,1,,,,,,,,,
297622,2022-10-06_16h01.00.615,vts_reward_expectancy,2022.2.4,Win32,59.95203837,Chrome,1280,720,,,,,1,961,,,,,,,,,,,,,,,,,146,W,triangle,1,0,,,,,,,,,,,,,,,,repeat,letter,lettRpt,k,0.48,Hi,,,,,,3,,,,,,,,high,8,0,8,0,1,,,,,,,,,
297622,2022-10-06_16h01.00.615,vts_reward_expectancy,2022.2.4,Win32,59.95203837,Chrome,1280,720,,,,,1,962,,,,,,,,,,,,,,,,,160,H,star,1,0,,,,,,,,,,,,,,,,switch,number,numSwt,f,0.5852,Lo,,,,,,3,,,,,,,,high,9,0,9,0,1,,,,,,,,,
297622,2022-10-06_16h01.00.615,vts_reward_expectancy,2022.2.4,Win32,59.95203837,Chrome,1280,720,,,,,0,962,,,,,,,,,,,,,,,,,132,S,triangle,0,0,,,,,,,,,,,,,,,,switch,letter,NA,j,0.4304,Lo,,,,,,3,,,,,,,,high,10,0,10,0,1,,,,,,,,,
297622,2022-10-06_16h01.00.615,vts_reward_expectancy,2022.2.4,Win32,59.95203837,Chrome,1280,720,,,,,1,963,,,,,,,,,,,,,,,,,181,Y,star,1,1,,,,,,,,,,,,,,,,switch,number,numSwt,f,0.5467,Lo,,,,,,3,,,,,,,,high,11,0,11,0,1,,,,,,,,,
297622,2022-10-06_16h01.00.615,vts_reward_expectancy,2022.2.4,Win32,59.95203837,Chrome,1280,720,,,,,1,964,,,,,,,,,,,,,,,,,125,D,star,1,0,,,,,,,,,,,,,,,,repeat,number,numRpt,d,0.5139,Lo,,,,,,3,,,,,,,,high,12,0,12,0,1,,,,,,,,,
297622,2022-10-06_16h01.00.615,vts_reward_expectancy,2022.2.4,Win32,59.95203837,Chrome,1280,720,,,,,0,964,,,,,,,,,,,,,,,,,174,F,triangle,1,0,,,,,,,,,,,,,,,,switch,letter,lettSwt,j,0.6628,Hi,,,,,,3,,,,,,,,high,13,0,13,0,1,,,,,,,,,
297622,2022-10-06_16h01.00.615,vts_reward_expectancy,2022.2.4,Win32,59.95203837,Chrome,1280,720,,,,,10,974,,,,,,,,,,,,,,,,,167,B,triangle,1,0,,,,,,,,,,,,,,,,repeat,letter,lettRpt,j,0.7298,Hi,,,,,,3,,,,,,,,high,14,0,14,0,1,,,,,,,,,
297622,2022-10-06_16h01.00.615,vts_reward_expectancy,2022.2.4,Win32,59.95203837,Chrome,1280,720,,,,,1,975,,,,,,,,,,,,,,,,,139,U,star,1,0,,,,,,,,,,,,,,,,switch,number,numSwt,d,0.7125,Lo,,,,,,3,,,,,,,,high,15,0,15,0,1,,,,,,,,,
297622,2022-10-06_16h01.00.615,vts_reward_expectancy,2022.2.4,Win32,59.95203837,Chrome,1280,720,,,,,0,975,,,,,,,,,,,,,,,,,160,U,triangle,0,0,,,,,,,,,,,,,,,,repeat,number,NA,d,0.5868,Lo,,,,,,3,,,,,,,,high,16,0,16,0,1,,,,,,,,,
297622,2022-10-06_16h01.00.615,vts_reward_expectancy,2022.2.4,Win32,59.95203837,Chrome,1280,720,,,,,10,985,,,,,,,,,,,,,,,,,132,F,star,1,1,,,,,,,,,,,,,,,,repeat,number,numRpt,d,0.5347,Lo,,,,,,3,,,,,,,,high,17,0,17,0,1,,,,,,,,,
297622,2022-10-06_16h01.00.615,vts_reward_expectancy,2022.2.4,Win32,59.95203837,Chrome,1280,720,,,,,10,995,,,,,,,,,,,,,,,,,181,S,star,1,0,,,,,,,,,,,,,,,,repeat,number,numRpt,f,0.4961,Lo,,,,,,3,,,,,,,,high,18,0,18,0,1,,,,,,,,,
297622,2022-10-06_16h01.00.615,vts_reward_expectancy,2022.2.4,Win32,59.95203837,Chrome,1280,720,,,,,10,1005,,,,,,,,,,,,,,,,,146,Y,triangle,1,0,,,,,,,,,,,,,,,,switch,letter,lettSwt,k,0.5842,Hi,,,,,,3,,,,,,,,high,19,0,19,0,1,,,,,,,,,
297622,2022-10-06_16h01.00.615,vts_reward_expectancy,2022.2.4,Win32,59.95203837,Chrome,1280,720,,,,,1,1006,,,,,,,,,,,,,,,,,139,D,star,1,0,,,,,,,,,,,,,,,,switch,number,numSwt,d,0.5117,Lo,,,,,,3,,,,,,,,high,20,0,20,0,1,,,,,,,,,
297622,2022-10-06_16h01.00.615,vts_reward_expectancy,2022.2.4,Win32,59.95203837,Chrome,1280,720,,,,,0,1006,,,,,,,,,,,,,,,,,167,B,triangle,1,0,,,,,,,,,,,,,,,,switch,letter,lettSwt,j,0.7333,Hi,,,,,,3,,,,,,,,high,21,0,21,0,1,,,,,,,,,
297622,2022-10-06_16h01.00.615,vts_reward_expectancy,2022.2.4,Win32,59.95203837,Chrome,1280,720,,,,,1,1007,,,,,,,,,,,,,,,,,174,H,star,1,0,,,,,,,,,,,,,,,,switch,number,numSwt,f,0.7543,Lo,,,,,,3,,,,,,,,high,22,0,22,0,1,,,,,,,,,
297622,2022-10-06_16h01.00.615,vts_reward_expectancy,2022.2.4,Win32,59.95203837,Chrome,1280,720,,,,,10,1017,,,,,,,,,,,,,,,,,125,W,triangle,1,0,,,,,,,,,,,,,,,,switch,letter,lettSwt,k,0.5149,Hi,,,,,,3,,,,,,,,high,23,0,23,0,1,,,,,,,,,
297622,2022-10-06_16h01.00.615,vts_reward_expectancy,2022.2.4,Win32,59.95203837,Chrome,1280,720,,,,,1,1018,,,,,,,,,,,,,,,,,167,Y,star,1,0,,,,,,,,,,,,,,,,switch,number,numSwt,f,0.6643,Lo,,,,,,3,,,,,,,,high,24,0,24,0,1,,,,,,,,,
297622,2022-10-06_16h01.00.615,vts_reward_expectancy,2022.2.4,Win32,59.95203837,Chrome,1280,720,,,,,0,1018,,,,,,,,,,,,,,,,,181,U,triangle,1,0,,,,,,,,,,,,,,,,switch,letter,lettSwt,k,0.6138,Hi,,,,,,3,,,,,,,,high,25,0,25,0,1,,,,,,,,,
297622,2022-10-06_16h01.00.615,vts_reward_expectancy,2022.2.4,Win32,59.95203837,Chrome,1280,720,,,,,10,1028,,,,,,,,,,,,,,,,,174,F,star,1,0,,,,,,,,,,,,,,,,switch,number,numSwt,f,0.5776,Lo,,,,,,3,,,,,,,,high,26,0,26,0,1,,,,,,,,,
297622,2022-10-06_16h01.00.615,vts_reward_expectancy,2022.2.4,Win32,59.95203837,Chrome,1280,720,,,,,10,1038,,,,,,,,,,,,,,,,,146,D,triangle,1,0,,,,,,,,,,,,,,,,switch,letter,lettSwt,j,0.5633,Hi,,,,,,3,,,,,,,,high,27,0,27,0,1,,,,,,,,,
297622,2022-10-06_16h01.00.615,vts_reward_expectancy,2022.2.4,Win32,59.95203837,Chrome,1280,720,,,,,1,1039,,,,,,,,,,,,,,,,,125,B,star,1,0,,,,,,,,,,,,,,,,switch,number,numSwt,d,0.829,Lo,,,,,,3,,,,,,,,high,28,0,28,0,1,,,,,,,,,
297622,2022-10-06_16h01.00.615,vts_reward_expectancy,2022.2.4,Win32,59.95203837,Chrome,1280,720,,,,,0,1039,,,,,,,,,,,,,,,,,139,S,triangle,0,0,,,,,,,,,,,,,,,,switch,letter,NA,j,0.5801,Lo,,,,,,3,,,,,,,,high,29,0,29,0,1,,,,,,,,,
297622,2022-10-06_16h01.00.615,vts_reward_expectancy,2022.2.4,Win32,59.95203837,Chrome,1280,720,,,,,1,1040,,,,,,,,,,,,,,,,,160,H,star,1,1,,,,,,,,,,,,,,,,switch,number,numSwt,f,0.784,Lo,,,,,,3,,,,,,,,high,30,0,30,0,1,,,,,,,,,
297622,2022-10-06_16h01.00.615,vts_reward_expectancy,2022.2.4,Win32,59.95203837,Chrome,1280,720,,,,,1,1041,,,,,,,,,,,,,,,,,132,W,triangle,1,0,,,,,,,,,,,,,,,,switch,letter,lettSwt,k,0.5301,Hi,,,,,,3,,,,,,,,high,31,0,31,0,1,,,,,,,,,
297622,2022-10-06_16h01.00.615,vts_reward_expectancy,2022.2.4,Win32,59.95203837,Chrome,1280,720,,,,,10,1051,,,,,,,,,,,,,,,,,181,S,triangle,1,0,,,,,,,,,,,,,,,,switch,number,numSwt,f,0.5004,Hi,,,,,,4,,,,,,space,1.0146,high,0,0,0,0,1,,,,,,,,,
297622,2022-10-06_16h01.00.615,vts_reward_expectancy,2022.2.4,Win32,59.95203837,Chrome,1280,720,,,,,1,1052,,,,,,,,,,,,,,,,,139,B,star,1,0,,,,,,,,,,,,,,,,switch,letter,lettSwt,j,0.3947,Lo,,,,,,4,,,,,,,,high,1,0,1,0,1,,,,,,,,,
297622,2022-10-06_16h01.00.615,vts_reward_expectancy,2022.2.4,Win32,59.95203837,Chrome,1280,720,,,,,10,1062,,,,,,,,,,,,,,,,,160,H,triangle,1,0,,,,,,,,,,,,,,,,switch,number,numSwt,f,0.4299,Hi,,,,,,4,,,,,,,,high,2,0,2,0,1,,,,,,,,,
297622,2022-10-06_16h01.00.615,vts_reward_expectancy,2022.2.4,Win32,59.95203837,Chrome,1280,720,,,,,1,1063,,,,,,,,,,,,,,,,,132,U,star,1,0,,,,,,,,,,,,,,,,switch,letter,lettSwt,k,0.5631,Lo,,,,,,4,,,,,,,,high,3,0,3,0,1,,,,,,,,,
297622,2022-10-06_16h01.00.615,vts_reward_expectancy,2022.2.4,Win32,59.95203837,Chrome,1280,720,,,,,0,1063,,,,,,,,,,,,,,,,,146,D,triangle,1,0,,,,,,,,,,,,,,,,repeat,letter,lettRpt,j,0.6194,Hi,,,,,,4,,,,,,,,high,4,0,4,0,1,,,,,,,,,
297622,2022-10-06_16h01.00.615,vts_reward_expectancy,2022.2.4,Win32,59.95203837,Chrome,1280,720,,,,,1,1064,,,,,,,,,,,,,,,,,174,W,star,1,0,,,,,,,,,,,,,,,,repeat,letter,lettRpt,k,0.4799,Lo,,,,,,4,,,,,,,,high,5,0,5,0,1,,,,,,,,,
297622,2022-10-06_16h01.00.615,vts_reward_expectancy,2022.2.4,Win32,59.95203837,Chrome,1280,720,,,,,0,1064,,,,,,,,,,,,,,,,,125,Y,star,0,0,,,,,,,,,,,,,,,,repeat,letter,NA,j,0.5297,Lo,,,,,,4,,,,,,,,high,6,0,6,0,1,,,,,,,,,
297622,2022-10-06_16h01.00.615,vts_reward_expectancy,2022.2.4,Win32,59.95203837,Chrome,1280,720,,,,,10,1074,,,,,,,,,,,,,,,,,167,F,triangle,1,1,,,,,,,,,,,,,,,,switch,number,numSwt,f,0.4007,Hi,,,,,,4,,,,,,,,high,7,0,7,0,1,,,,,,,,,
297622,2022-10-06_16h01.00.615,vts_reward_expectancy,2022.2.4,Win32,59.95203837,Chrome,1280,720,,,,,0,1074,,,,,,,,,,,,,,,,,181,S,triangle,1,0,,,,,,,,,,,,,,,,repeat,number,numRpt,f,0.5326,Hi,,,,,,4,,,,,,,,high,8,0,8,0,1,,,,,,,,,
297622,2022-10-06_16h01.00.615,vts_reward_expectancy,2022.2.4,Win32,59.95203837,Chrome,1280,720,,,,,10,1084,,,,,,,,,,,,,,,,,139,B,star,1,0,,,,,,,,,,,,,,,,switch,letter,lettSwt,j,0.4368,Lo,,,,,,4,,,,,,,,high,9,0,9,0,1,,,,,,,,,
297622,2022-10-06_16h01.00.615,vts_reward_expectancy,2022.2.4,Win32,59.95203837,Chrome,1280,720,,,,,1,1085,,,,,,,,,,,,,,,,,160,H,triangle,1,0,,,,,,,,,,,,,,,,switch,number,numSwt,f,0.5299,Hi,,,,,,4,,,,,,,,high,10,0,10,0,1,,,,,,,,,
297622,2022-10-06_16h01.00.615,vts_reward_expectancy,2022.2.4,Win32,59.95203837,Chrome,1280,720,,,,,1,1086,,,,,,,,,,,,,,,,,132,U,star,1,0,,,,,,,,,,,,,,,,switch,letter,lettSwt,k,0.6463,Lo,,,,,,4,,,,,,,,high,11,0,11,0,1,,,,,,,,,
297622,2022-10-06_16h01.00.615,vts_reward_expectancy,2022.2.4,Win32,59.95203837,Chrome,1280,720,,,,,0,1086,,,,,,,,,,,,,,,,,146,D,star,0,0,,,,,,,,,,,,,,,,switch,number,NA,f,0.8293,Lo,,,,,,4,,,,,,,,high,12,0,12,0,1,,,,,,,,,
297622,2022-10-06_16h01.00.615,vts_reward_expectancy,2022.2.4,Win32,59.95203837,Chrome,1280,720,,,,,0,1086,,,,,,,,,,,,,,,,,174,W,triangle,1,1,,,,,,,,,,,,,,,,repeat,number,numRpt,f,0.7143,Hi,,,,,,4,,,,,,,,high,13,0,13,0,1,,,,,,,,,
297622,2022-10-06_16h01.00.615,vts_reward_expectancy,2022.2.4,Win32,59.95203837,Chrome,1280,720,,,,,10,1096,,,,,,,,,,,,,,,,,125,Y,triangle,1,0,,,,,,,,,,,,,,,,repeat,number,numRpt,d,0.4871,Hi,,,,,,4,,,,,,,,high,14,0,14,0,1,,,,,,,,,
297622,2022-10-06_16h01.00.615,vts_reward_expectancy,2022.2.4,Win32,59.95203837,Chrome,1280,720,,,,,1,1097,,,,,,,,,,,,,,,,,167,F,star,1,0,,,,,,,,,,,,,,,,switch,letter,lettSwt,j,0.7628,Lo,,,,,,4,,,,,,,,high,15,0,15,0,1,,,,,,,,,
297622,2022-10-06_16h01.00.615,vts_reward_expectancy,2022.2.4,Win32,59.95203837,Chrome,1280,720,,,,,0,1097,,,,,,,,,,,,,,,,,146,H,triangle,0,0,,,,,,,,,,,,,,,,switch,number,NA,f,0.6643,Lo,,,,,,4,,,,,,,,high,16,0,16,0,1,,,,,,,,,
297622,2022-10-06_16h01.00.615,vts_reward_expectancy,2022.2.4,Win32,59.95203837,Chrome,1280,720,,,,,0,1097,,,,,,,,,,,,,,,,,139,W,star,0,1,,,,,,,,,,,,,,,,repeat,number,NA,f,0.8152,Lo,,,,,,4,,,,,,,,high,17,0,17,0,1,,,,,,,,,
297622,2022-10-06_16h01.00.615,vts_reward_expectancy,2022.2.4,Win32,59.95203837,Chrome,1280,720,,,,,0,1097,,,,,,,,,,,,,,,,,125,D,triangle,1,1,,,,,,,,,,,,,,,,repeat,number,numRpt,d,0.636,Hi,,,,,,4,,,,,,,,high,18,0,18,0,1,,,,,,,,,
297622,2022-10-06_16h01.00.615,vts_reward_expectancy,2022.2.4,Win32,59.95203837,Chrome,1280,720,,,,,10,1107,,,,,,,,,,,,,,,,,174,B,star,1,0,,,,,,,,,,,,,,,,switch,letter,lettSwt,j,0.7015,Lo,,,,,,4,,,,,,,,high,19,0,19,0,1,,,,,,,,,
297622,2022-10-06_16h01.00.615,vts_reward_expectancy,2022.2.4,Win32,59.95203837,Chrome,1280,720,,,,,10,1117,,,,,,,,,,,,,,,,,160,U,triangle,1,0,,,,,,,,,,,,,,,,switch,number,numSwt,f,0.5975,Hi,,,,,,4,,,,,,,,high,20,0,20,0,1,,,,,,,,,
297622,2022-10-06_16h01.00.615,vts_reward_expectancy,2022.2.4,Win32,59.95203837,Chrome,1280,720,,,,,1,1118,,,,,,,,,,,,,,,,,132,Y,star,1,0,,,,,,,,,,,,,,,,switch,letter,lettSwt,k,0.7985,Lo,,,,,,4,,,,,,,,high,21,0,21,0,1,,,,,,,,,
297622,2022-10-06_16h01.00.615,vts_reward_expectancy,2022.2.4,Win32,59.95203837,Chrome,1280,720,,,,,1,1119,,,,,,,,,,,,,,,,,181,S,star,1,0,,,,,,,,,,,,,,,,repeat,letter,lettRpt,k,0.6954,Lo,,,,,,4,,,,,,,,high,22,0,22,0,1,,,,,,,,,
297622,2022-10-06_16h01.00.615,vts_reward_expectancy,2022.2.4,Win32,59.95203837,Chrome,1280,720,,,,,0,1119,,,,,,,,,,,,,,,,,167,F,triangle,1,0,,,,,,,,,,,,,,,,switch,number,numSwt,f,1.3626,Hi,,,,,,4,,,,,,,,high,23,0,23,0,1,,,,,,,,,
297622,2022-10-06_16h01.00.615,vts_reward_expectancy,2022.2.4,Win32,59.95203837,Chrome,1280,720,,,,,1,1120,,,,,,,,,,,,,,,,,139,W,star,1,0,,,,,,,,,,,,,,,,switch,letter,lettSwt,k,0.6135,Lo,,,,,,4,,,,,,,,high,24,0,24,0,1,,,,,,,,,
297622,2022-10-06_16h01.00.615,vts_reward_expectancy,2022.2.4,Win32,59.95203837,Chrome,1280,720,,,,,0,1120,,,,,,,,,,,,,,,,,160,H,triangle,1,0,,,,,,,,,,,,,,,,switch,number,numSwt,f,0.6299,Hi,,,,,,4,,,,,,,,high,25,0,25,0,1,,,,,,,,,
297622,2022-10-06_16h01.00.615,vts_reward_expectancy,2022.2.4,Win32,59.95203837,Chrome,1280,720,,,,,1,1121,,,,,,,,,,,,,,,,,167,S,star,1,0,,,,,,,,,,,,,,,,repeat,number,numRpt,f,0.537,Lo,,,,,,4,,,,,,,,high,26,0,26,0,1,,,,,,,,,
297622,2022-10-06_16h01.00.615,vts_reward_expectancy,2022.2.4,Win32,59.95203837,Chrome,1280,720,,,,,0,1121,,,,,,,,,,,,,,,,,146,B,triangle,1,0,,,,,,,,,,,,,,,,repeat,number,numRpt,d,0.5151,Hi,,,,,,4,,,,,,,,high,27,0,27,0,1,,,,,,,,,
297622,2022-10-06_16h01.00.615,vts_reward_expectancy,2022.2.4,Win32,59.95203837,Chrome,1280,720,,,,,10,1131,,,,,,,,,,,,,,,,,132,Y,triangle,1,0,,,,,,,,,,,,,,,,repeat,number,numRpt,d,0.463,Hi,,,,,,4,,,,,,,,high,28,0,28,0,1,,,,,,,,,
297622,2022-10-06_16h01.00.615,vts_reward_expectancy,2022.2.4,Win32,59.95203837,Chrome,1280,720,,,,,1,1132,,,,,,,,,,,,,,,,,174,F,star,1,0,,,,,,,,,,,,,,,,switch,letter,lettSwt,j,0.5141,Lo,,,,,,4,,,,,,,,high,29,0,29,0,1,,,,,,,,,
297622,2022-10-06_16h01.00.615,vts_reward_expectancy,2022.2.4,Win32,59.95203837,Chrome,1280,720,,,,,1,1133,,,,,,,,,,,,,,,,,181,D,star,1,0,,,,,,,,,,,,,,,,switch,number,numSwt,f,0.4771,Lo,,,,,,4,,,,,,,,high,30,0,30,0,1,,,,,,,,,
297622,2022-10-06_16h01.00.615,vts_reward_expectancy,2022.2.4,Win32,59.95203837,Chrome,1280,720,,,,,0,1133,,,,,,,,,,,,,,,,,125,U,triangle,1,0,,,,,,,,,,,,,,,,repeat,number,numRpt,d,0.6358,Hi,,,,,,4,,,,,,,,high,31,0,31,0,1,,,,,,,,,
297622,2022-10-06_16h01.00.615,vts_reward_expectancy,2022.2.4,Win32,59.95203837,Chrome,1280,720,,,,,0,1133,,,,,,,,,,,,,,,,,125,F,hexagon,0,0,,,,,,,,,,,,,,,,switch,letter,NA,k,1.0525,Hi,,,,,,5,,,,,,space,0.8646,low,0,0,0,0,1,,,,,,,,,
297622,2022-10-06_16h01.00.615,vts_reward_expectancy,2022.2.4,Win32,59.95203837,Chrome,1280,720,,,,,0,1133,,,,,,,,,,,,,,,,,146,W,circle,1,1,,,,,,,,,,,,,,,,repeat,letter,lettRpt,k,0.5797,Hi,,,,,,5,,,,,,,,low,1,0,1,0,1,,,,,,,,,
297622,2022-10-06_16h01.00.615,vts_reward_expectancy,2022.2.4,Win32,59.95203837,Chrome,1280,720,,,,,1,1134,,,,,,,,,,,,,,,,,160,S,hexagon,1,0,,,,,,,,,,,,,,,,switch,number,numSwt,f,0.5967,Lo,,,,,,5,,,,,,,,low,2,0,2,0,1,,,,,,,,,
297622,2022-10-06_16h01.00.615,vts_reward_expectancy,2022.2.4,Win32,59.95203837,Chrome,1280,720,,,,,10,1144,,,,,,,,,,,,,,,,,132,B,circle,1,0,,,,,,,,,,,,,,,,switch,letter,lettSwt,j,0.4652,Hi,,,,,,5,,,,,,,,low,3,0,3,0,1,,,,,,,,,
297622,2022-10-06_16h01.00.615,vts_reward_expectancy,2022.2.4,Win32,59.95203837,Chrome,1280,720,,,,,1,1145,,,,,,,,,,,,,,,,,181,D,hexagon,1,0,,,,,,,,,,,,,,,,switch,number,numSwt,f,0.5135,Lo,,,,,,5,,,,,,,,low,4,0,4,0,1,,,,,,,,,
297622,2022-10-06_16h01.00.615,vts_reward_expectancy,2022.2.4,Win32,59.95203837,Chrome,1280,720,,,,,0,1145,,,,,,,,,,,,,,,,,139,U,circle,1,0,,,,,,,,,,,,,,,,repeat,number,numRpt,d,0.6308,Hi,,,,,,5,,,,,,,,low,5,0,5,0,1,,,,,,,,,
297622,2022-10-06_16h01.00.615,vts_reward_expectancy,2022.2.4,Win32,59.95203837,Chrome,1280,720,,,,,1,1146,,,,,,,,,,,,,,,,,167,Y,circle,1,0,,,,,,,,,,,,,,,,switch,letter,lettSwt,k,0.4787,Hi,,,,,,5,,,,,,,,low,6,0,6,0,1,,,,,,,,,
297622,2022-10-06_16h01.00.615,vts_reward_expectancy,2022.2.4,Win32,59.95203837,Chrome,1280,720,,,,,1,1147,,,,,,,,,,,,,,,,,174,H,hexagon,1,0,,,,,,,,,,,,,,,,switch,number,numSwt,f,0.5856,Lo,,,,,,5,,,,,,,,low,7,0,7,0,1,,,,,,,,,
297622,2022-10-06_16h01.00.615,vts_reward_expectancy,2022.2.4,Win32,59.95203837,Chrome,1280,720,,,,,1,1148,,,,,,,,,,,,,,,,,125,F,hexagon,1,0,,,,,,,,,,,,,,,,switch,letter,lettSwt,j,0.6463,Lo,,,,,,5,,,,,,,,low,8,0,8,0,1,,,,,,,,,
297622,2022-10-06_16h01.00.615,vts_reward_expectancy,2022.2.4,Win32,59.95203837,Chrome,1280,720,,,,,10,1158,,,,,,,,,,,,,,,,,146,W,circle,1,0,,,,,,,,,,,,,,,,repeat,letter,lettRpt,k,0.5134,Hi,,,,,,5,,,,,,,,low,9,0,9,0,1,,,,,,,,,
297622,2022-10-06_16h01.00.615,vts_reward_expectancy,2022.2.4,Win32,59.95203837,Chrome,1280,720,,,,,1,1159,,,,,,,,,,,,,,,,,160,S,hexagon,1,0,,,,,,,,,,,,,,,,switch,number,numSwt,f,0.6793,Lo,,,,,,5,,,,,,,,low,10,0,10,0,1,,,,,,,,,
297622,2022-10-06_16h01.00.615,vts_reward_expectancy,2022.2.4,Win32,59.95203837,Chrome,1280,720,,,,,0,1159,,,,,,,,,,,,,,,,,132,B,circle,1,0,,,,,,,,,,,,,,,,switch,letter,lettSwt,j,0.5933,Hi,,,,,,5,,,,,,,,low,11,0,11,0,1,,,,,,,,,
297622,2022-10-06_16h01.00.615,vts_reward_expectancy,2022.2.4,Win32,59.95203837,Chrome,1280,720,,,,,10,1169,,,,,,,,,,,,,,,,,181,D,hexagon,1,0,,,,,,,,,,,,,,,,switch,number,numSwt,f,0.6466,Lo,,,,,,5,,,,,,,,low,12,0,12,0,1,,,,,,,,,
297622,2022-10-06_16h01.00.615,vts_reward_expectancy,2022.2.4,Win32,59.95203837,Chrome,1280,720,,,,,0,1169,,,,,,,,,,,,,,,,,139,U,circle,1,0,,,,,,,,,,,,,,,,switch,letter,lettSwt,k,0.8136,Hi,,,,,,5,,,,,,,,low,13,0,13,0,1,,,,,,,,,
297622,2022-10-06_16h01.00.615,vts_reward_expectancy,2022.2.4,Win32,59.95203837,Chrome,1280,720,,,,,1,1170,,,,,,,,,,,,,,,,,167,Y,hexagon,1,0,,,,,,,,,,,,,,,,switch,number,numSwt,f,0.813,Lo,,,,,,5,,,,,,,,low,14,0,14,0,1,,,,,,,,,
297622,2022-10-06_16h01.00.615,vts_reward_expectancy,2022.2.4,Win32,59.95203837,Chrome,1280,720,,,,,0,1170,,,,,,,,,,,,,,,,,174,H,circle,1,0,,,,,,,,,,,,,,,,switch,letter,lettSwt,j,1.0464,Hi,,,,,,5,,,,,,,,low,15,0,15,0,1,,,,,,,,,
297622,2022-10-06_16h01.00.615,vts_reward_expectancy,2022.2.4,Win32,59.95203837,Chrome,1280,720,,,,,1,1171,,,,,,,,,,,,,,,,,160,F,hexagon,1,0,,,,,,,,,,,,,,,,switch,number,numSwt,f,0.6136,Lo,,,,,,5,,,,,,,,low,16,0,16,0,1,,,,,,,,,
297622,2022-10-06_16h01.00.615,vts_reward_expectancy,2022.2.4,Win32,59.95203837,Chrome,1280,720,,,,,0,1171,,,,,,,,,,,,,,,,,132,Y,circle,1,0,,,,,,,,,,,,,,,,switch,letter,lettSwt,k,0.7127,Hi,,,,,,5,,,,,,,,low,17,0,17,0,1,,,,,,,,,
297622,2022-10-06_16h01.00.615,vts_reward_expectancy,2022.2.4,Win32,59.95203837,Chrome,1280,720,,,,,0,1171,,,,,,,,,,,,,,,,,146,H,circle,1,0,,,,,,,,,,,,,,,,switch,number,numSwt,d,0.9121,Hi,,,,,,5,,,,,,,,low,18,0,18,0,1,,,,,,,,,
297622,2022-10-06_16h01.00.615,vts_reward_expectancy,2022.2.4,Win32,59.95203837,Chrome,1280,720,,,,,10,1181,,,,,,,,,,,,,,,,,139,S,hexagon,1,0,,,,,,,,,,,,,,,,switch,letter,lettSwt,k,0.6128,Lo,,,,,,5,,,,,,,,low,19,0,19,0,1,,,,,,,,,
297622,2022-10-06_16h01.00.615,vts_reward_expectancy,2022.2.4,Win32,59.95203837,Chrome,1280,720,,,,,0,1181,,,,,,,,,,,,,,,,,125,D,circle,1,0,,,,,,,,,,,,,,,,switch,number,numSwt,d,0.4965,Hi,,,,,,5,,,,,,,,low,20,0,20,0,1,,,,,,,,,
297622,2022-10-06_16h01.00.615,vts_reward_expectancy,2022.2.4,Win32,59.95203837,Chrome,1280,720,,,,,1,1182,,,,,,,,,,,,,,,,,181,B,hexagon,1,0,,,,,,,,,,,,,,,,switch,letter,lettSwt,j,0.8299,Lo,,,,,,5,,,,,,,,low,21,0,21,0,1,,,,,,,,,
297622,2022-10-06_16h01.00.615,vts_reward_expectancy,2022.2.4,Win32,59.95203837,Chrome,1280,720,,,,,1,1183,,,,,,,,,,,,,,,,,174,W,circle,1,0,,,,,,,,,,,,,,,,repeat,letter,lettRpt,k,0.497,Hi,,,,,,5,,,,,,,,low,22,0,22,0,1,,,,,,,,,
297622,2022-10-06_16h01.00.615,vts_reward_expectancy,2022.2.4,Win32,59.95203837,Chrome,1280,720,,,,,10,1193,,,,,,,,,,,,,,,,,167,U,hexagon,1,0,,,,,,,,,,,,,,,,switch,number,numSwt,f,0.5138,Lo,,,,,,5,,,,,,,,low,23,0,23,0,1,,,,,,,,,
297622,2022-10-06_16h01.00.615,vts_reward_expectancy,2022.2.4,Win32,59.95203837,Chrome,1280,720,,,,,10,1203,,,,,,,,,,,,,,,,,174,U,hexagon,1,0,,,,,,,,,,,,,,,,switch,letter,lettSwt,k,0.5484,Lo,,,,,,5,,,,,,,,low,24,0,24,0,1,,,,,,,,,
297622,2022-10-06_16h01.00.615,vts_reward_expectancy,2022.2.4,Win32,59.95203837,Chrome,1280,720,,,,,0,1203,,,,,,,,,,,,,,,,,167,Y,circle,1,0,,,,,,,,,,,,,,,,switch,number,numSwt,f,0.5962,Hi,,,,,,5,,,,,,,,low,25,0,25,0,1,,,,,,,,,
297622,2022-10-06_16h01.00.615,vts_reward_expectancy,2022.2.4,Win32,59.95203837,Chrome,1280,720,,,,,10,1213,,,,,,,,,,,,,,,,,160,D,circle,1,0,,,,,,,,,,,,,,,,repeat,number,numRpt,f,0.5123,Hi,,,,,,5,,,,,,,,low,26,0,26,0,1,,,,,,,,,
297622,2022-10-06_16h01.00.615,vts_reward_expectancy,2022.2.4,Win32,59.95203837,Chrome,1280,720,,,,,10,1223,,,,,,,,,,,,,,,,,181,H,hexagon,1,0,,,,,,,,,,,,,,,,switch,letter,lettSwt,j,0.7656,Lo,,,,,,5,,,,,,,,low,27,0,27,0,1,,,,,,,,,
297622,2022-10-06_16h01.00.615,vts_reward_expectancy,2022.2.4,Win32,59.95203837,Chrome,1280,720,,,,,0,1223,,,,,,,,,,,,,,,,,125,W,circle,1,0,,,,,,,,,,,,,,,,switch,number,numSwt,d,0.6016,Hi,,,,,,5,,,,,,,,low,28,0,28,0,1,,,,,,,,,
297622,2022-10-06_16h01.00.615,vts_reward_expectancy,2022.2.4,Win32,59.95203837,Chrome,1280,720,,,,,1,1224,,,,,,,,,,,,,,,,,146,B,hexagon,1,0,,,,,,,,,,,,,,,,switch,letter,lettSwt,j,0.6963,Lo,,,,,,5,,,,,,,,low,29,0,29,0,1,,,,,,,,,
297622,2022-10-06_16h01.00.615,vts_reward_expectancy,2022.2.4,Win32,59.95203837,Chrome,1280,720,,,,,0,1224,,,,,,,,,,,,,,,,,139,S,circle,1,0,,,,,,,,,,,,,,,,switch,number,numSwt,d,0.731,Hi,,,,,,5,,,,,,,,low,30,0,30,0,1,,,,,,,,,
297622,2022-10-06_16h01.00.615,vts_reward_expectancy,2022.2.4,Win32,59.95203837,Chrome,1280,720,,,,,10,1234,,,,,,,,,,,,,,,,,132,F,hexagon,1,0,,,,,,,,,,,,,,,,switch,letter,lettSwt,j,1.0141,Lo,,,,,,5,,,,,,,,low,31,0,31,0,1,,,,,,,,,
297622,2022-10-06_16h01.00.615,vts_reward_expectancy,2022.2.4,Win32,59.95203837,Chrome,1280,720,,,,,,,,,,,,,,,,,,,,,,,,,,,,,,,,,,,,,,,,,,,,,,,,,,,,,,6,,,,,,,,,,,,,,"I was asked to use my keyboard to define a letter or number as being lower than 153 or higher, and if a letter was closer to A or Z",2,The use of the shapes,4,3,,2,1280,720
