participant,date,expName,psychopyVersion,OS,frameRate,browser,xResolution,yResolution,key_resp.keys,key_resp.rt,training_resp.keys,training_resp.rt,points_trial,points_cumul,trainBlock,training.thisRepN,training.thisTrialN,training.thisN,training.thisIndex,training.ran,LTriangleOpac,LCircleOpac,LHexagonOpac,LStarOpac,RTriangleOpac,RCircleOpac,RHexagonOpac,RStarOpac,LShape_ID,RShape_ID,curr_topStim,curr_bottStim,curr_shape,acc,E1,target_resp_prac1.keys,target_resp_prac1.rt,pracBlock,task1_prac_trials.thisRepN,task1_prac_trials.thisTrialN,task1_prac_trials.thisN,task1_prac_trials.thisIndex,task1_prac_trials.ran,target_resp_prac2.keys,target_resp_prac2.rt,task2_praac_trials.thisRepN,task2_praac_trials.thisTrialN,task2_praac_trials.thisN,task2_praac_trials.thisIndex,task2_praac_trials.ran,alt,task,condition,target_resp.keys,target_resp.rt,rewCond,vts_practice_trials.thisRepN,vts_practice_trials.thisTrialN,vts_practice_trials.thisN,vts_practice_trials.thisIndex,vts_practice_trials.ran,blockNum,trials_norew.thisRepN,trials_norew.thisTrialN,trials_norew.thisN,trials_norew.thisIndex,trials_norew.ran,key_resp_2.keys,key_resp_2.rt,rewExpect,trials_rew.thisRepN,trials_rew.thisTrialN,trials_rew.thisN,trials_rew.thisIndex,trials_rew.ran,Q1,Q2,Q2_text,Q3,Q4,Q5_text,Q5,xRes,yRes
295321,2022-10-06_17h37.36.974,vts_reward_expectancy,2022.2.4,Win32,41.24561765,Chrome,1707,960,,,,,,,,,,,,,,,,,,,,,,,,,,,,,,,,,,,,,,,,,,,,,,,,,,,,,,,,,,,,,,,,,,,,,,,,,,,,
295321,2022-10-06_17h37.36.974,vts_reward_expectancy,2022.2.4,Win32,41.24561765,Chrome,1707,960,space,15.2852,,,,,,,,,,,,,,,,,,,,,,,,,,,,,,,,,,,,,,,,,,,,,,,,,,,,,,,,,,,,,,,,,,,,,,,,,,
295321,2022-10-06_17h37.36.974,vts_reward_expectancy,2022.2.4,Win32,41.24561765,Chrome,1707,960,,,,,,,,,,,,,,,,,,,,,,,,,,,,,,,,,,,,,,,,,,,,,,,,,,,,,,,,,,,,,,,,,,,,,,,,,,,,
295321,2022-10-06_17h37.36.974,vts_reward_expectancy,2022.2.4,Win32,41.24561765,Chrome,1707,960,,,l,1.8598,1,1,0,0,0,0,5,1,0,1,0,0,0,0,0,1,circle,star,,,,,,,,,,,,,,,,,,,,,,,,,,,,,,,,,,,,,,,,,,,,,,,,,,,,,,
295321,2022-10-06_17h37.36.974,vts_reward_expectancy,2022.2.4,Win32,41.24561765,Chrome,1707,960,,,l,1.8181,1,2,0,0,1,1,10,1,0,0,0,1,0,1,0,0,star ,circle,,,,,,,,,,,,,,,,,,,,,,,,,,,,,,,,,,,,,,,,,,,,,,,,,,,,,,
295321,2022-10-06_17h37.36.974,vts_reward_expectancy,2022.2.4,Win32,41.24561765,Chrome,1707,960,,,a,2.8942,1,3,0,0,2,2,8,1,0,0,1,0,0,0,0,1,hexagon,star,,,,,,,,,,,,,,,,,,,,,,,,,,,,,,,,,,,,,,,,,,,,,,,,,,,,,,
295321,2022-10-06_17h37.36.974,vts_reward_expectancy,2022.2.4,Win32,41.24561765,Chrome,1707,960,,,l,2.4632,1,4,0,0,3,3,1,1,1,0,0,0,0,0,1,0,triangle,hexagon,,,,,,,,,,,,,,,,,,,,,,,,,,,,,,,,,,,,,,,,,,,,,,,,,,,,,,
295321,2022-10-06_17h37.36.974,vts_reward_expectancy,2022.2.4,Win32,41.24561765,Chrome,1707,960,,,a,1.2804,1,5,0,0,4,4,11,1,0,0,0,1,0,0,1,0,star,hexagon,,,,,,,,,,,,,,,,,,,,,,,,,,,,,,,,,,,,,,,,,,,,,,,,,,,,,,
295321,2022-10-06_17h37.36.974,vts_reward_expectancy,2022.2.4,Win32,41.24561765,Chrome,1707,960,,,a,0.7469,10,15,0,0,5,5,9,1,0,0,0,1,1,0,0,0,star,triangle,,,,,,,,,,,,,,,,,,,,,,,,,,,,,,,,,,,,,,,,,,,,,,,,,,,,,,
295321,2022-10-06_17h37.36.974,vts_reward_expectancy,2022.2.4,Win32,41.24561765,Chrome,1707,960,,,l,0.9367,1,16,0,0,6,6,2,1,1,0,0,0,0,0,0,1,triangle,star,,,,,,,,,,,,,,,,,,,,,,,,,,,,,,,,,,,,,,,,,,,,,,,,,,,,,,
295321,2022-10-06_17h37.36.974,vts_reward_expectancy,2022.2.4,Win32,41.24561765,Chrome,1707,960,,,a,0.4746,1,17,0,0,7,7,0,1,1,0,0,0,0,1,0,0,triangle,circle,,,,,,,,,,,,,,,,,,,,,,,,,,,,,,,,,,,,,,,,,,,,,,,,,,,,,,
295321,2022-10-06_17h37.36.974,vts_reward_expectancy,2022.2.4,Win32,41.24561765,Chrome,1707,960,,,a,0.3837,1,18,0,0,8,8,7,1,0,0,1,0,0,1,0,0,hexagon,circle,,,,,,,,,,,,,,,,,,,,,,,,,,,,,,,,,,,,,,,,,,,,,,,,,,,,,,
295321,2022-10-06_17h37.36.974,vts_reward_expectancy,2022.2.4,Win32,41.24561765,Chrome,1707,960,,,a,0.6467,10,28,0,0,9,9,4,1,0,1,0,0,0,0,1,0,circle,hexagon,,,,,,,,,,,,,,,,,,,,,,,,,,,,,,,,,,,,,,,,,,,,,,,,,,,,,,
295321,2022-10-06_17h37.36.974,vts_reward_expectancy,2022.2.4,Win32,41.24561765,Chrome,1707,960,,,a,1.7876,1,29,0,0,10,10,3,1,0,1,0,0,1,0,0,0,circle,triangle,,,,,,,,,,,,,,,,,,,,,,,,,,,,,,,,,,,,,,,,,,,,,,,,,,,,,,
295321,2022-10-06_17h37.36.974,vts_reward_expectancy,2022.2.4,Win32,41.24561765,Chrome,1707,960,,,l,1.7799,10,39,0,0,11,11,6,1,0,0,1,0,1,0,0,0,hexagon,triangle,,,,,,,,,,,,,,,,,,,,,,,,,,,,,,,,,,,,,,,,,,,,,,,,,,,,,,
295321,2022-10-06_17h37.36.974,vts_reward_expectancy,2022.2.4,Win32,41.24561765,Chrome,1707,960,,,l,1.6837,10,49,0,1,0,12,7,1,0,0,1,0,0,1,0,0,hexagon,circle,,,,,,,,,,,,,,,,,,,,,,,,,,,,,,,,,,,,,,,,,,,,,,,,,,,,,,
295321,2022-10-06_17h37.36.974,vts_reward_expectancy,2022.2.4,Win32,41.24561765,Chrome,1707,960,,,a,1.192,1,50,0,1,1,13,9,1,0,0,0,1,1,0,0,0,star,triangle,,,,,,,,,,,,,,,,,,,,,,,,,,,,,,,,,,,,,,,,,,,,,,,,,,,,,,
295321,2022-10-06_17h37.36.974,vts_reward_expectancy,2022.2.4,Win32,41.24561765,Chrome,1707,960,,,l,0.6984,10,60,0,1,2,14,6,1,0,0,1,0,1,0,0,0,hexagon,triangle,,,,,,,,,,,,,,,,,,,,,,,,,,,,,,,,,,,,,,,,,,,,,,,,,,,,,,
295321,2022-10-06_17h37.36.974,vts_reward_expectancy,2022.2.4,Win32,41.24561765,Chrome,1707,960,,,a,0.7825,10,70,0,1,3,15,0,1,1,0,0,0,0,1,0,0,triangle,circle,,,,,,,,,,,,,,,,,,,,,,,,,,,,,,,,,,,,,,,,,,,,,,,,,,,,,,
295321,2022-10-06_17h37.36.974,vts_reward_expectancy,2022.2.4,Win32,41.24561765,Chrome,1707,960,,,l,0.5323,1,71,0,1,4,16,2,1,1,0,0,0,0,0,0,1,triangle,star,,,,,,,,,,,,,,,,,,,,,,,,,,,,,,,,,,,,,,,,,,,,,,,,,,,,,,
295321,2022-10-06_17h37.36.974,vts_reward_expectancy,2022.2.4,Win32,41.24561765,Chrome,1707,960,,,l,1.2339,1,72,0,1,5,17,11,1,0,0,0,1,0,0,1,0,star,hexagon,,,,,,,,,,,,,,,,,,,,,,,,,,,,,,,,,,,,,,,,,,,,,,,,,,,,,,
295321,2022-10-06_17h37.36.974,vts_reward_expectancy,2022.2.4,Win32,41.24561765,Chrome,1707,960,,,l,0.2774,1,73,0,1,6,18,1,1,1,0,0,0,0,0,1,0,triangle,hexagon,,,,,,,,,,,,,,,,,,,,,,,,,,,,,,,,,,,,,,,,,,,,,,,,,,,,,,
295321,2022-10-06_17h37.36.974,vts_reward_expectancy,2022.2.4,Win32,41.24561765,Chrome,1707,960,,,l,0.3575,1,74,0,1,7,19,8,1,0,0,1,0,0,0,0,1,hexagon,star,,,,,,,,,,,,,,,,,,,,,,,,,,,,,,,,,,,,,,,,,,,,,,,,,,,,,,
295321,2022-10-06_17h37.36.974,vts_reward_expectancy,2022.2.4,Win32,41.24561765,Chrome,1707,960,,,l,0.3098,1,75,0,1,8,20,10,1,0,0,0,1,0,1,0,0,star ,circle,,,,,,,,,,,,,,,,,,,,,,,,,,,,,,,,,,,,,,,,,,,,,,,,,,,,,,
295321,2022-10-06_17h37.36.974,vts_reward_expectancy,2022.2.4,Win32,41.24561765,Chrome,1707,960,,,a,0.2935,1,76,0,1,9,21,3,1,0,1,0,0,1,0,0,0,circle,triangle,,,,,,,,,,,,,,,,,,,,,,,,,,,,,,,,,,,,,,,,,,,,,,,,,,,,,,
295321,2022-10-06_17h37.36.974,vts_reward_expectancy,2022.2.4,Win32,41.24561765,Chrome,1707,960,,,a,0.3615,10,86,0,1,10,22,5,1,0,1,0,0,0,0,0,1,circle,star,,,,,,,,,,,,,,,,,,,,,,,,,,,,,,,,,,,,,,,,,,,,,,,,,,,,,,
295321,2022-10-06_17h37.36.974,vts_reward_expectancy,2022.2.4,Win32,41.24561765,Chrome,1707,960,,,l,0.6966,1,87,0,1,11,23,4,1,0,1,0,0,0,0,1,0,circle,hexagon,,,,,,,,,,,,,,,,,,,,,,,,,,,,,,,,,,,,,,,,,,,,,,,,,,,,,,
295321,2022-10-06_17h37.36.974,vts_reward_expectancy,2022.2.4,Win32,41.24561765,Chrome,1707,960,,,a,0.7469,10,97,0,2,0,24,2,1,1,0,0,0,0,0,0,1,triangle,star,,,,,,,,,,,,,,,,,,,,,,,,,,,,,,,,,,,,,,,,,,,,,,,,,,,,,,
295321,2022-10-06_17h37.36.974,vts_reward_expectancy,2022.2.4,Win32,41.24561765,Chrome,1707,960,,,a,0.7278,10,107,0,2,1,25,4,1,0,1,0,0,0,0,1,0,circle,hexagon,,,,,,,,,,,,,,,,,,,,,,,,,,,,,,,,,,,,,,,,,,,,,,,,,,,,,,
295321,2022-10-06_17h37.36.974,vts_reward_expectancy,2022.2.4,Win32,41.24561765,Chrome,1707,960,,,a,1.5204,10,117,0,2,2,26,10,1,0,0,0,1,0,1,0,0,star ,circle,,,,,,,,,,,,,,,,,,,,,,,,,,,,,,,,,,,,,,,,,,,,,,,,,,,,,,
295321,2022-10-06_17h37.36.974,vts_reward_expectancy,2022.2.4,Win32,41.24561765,Chrome,1707,960,,,l,1.034,10,127,0,2,3,27,3,1,0,1,0,0,1,0,0,0,circle,triangle,,,,,,,,,,,,,,,,,,,,,,,,,,,,,,,,,,,,,,,,,,,,,,,,,,,,,,
295321,2022-10-06_17h37.36.974,vts_reward_expectancy,2022.2.4,Win32,41.24561765,Chrome,1707,960,,,l,1.3131,10,137,0,2,4,28,6,1,0,0,1,0,1,0,0,0,hexagon,triangle,,,,,,,,,,,,,,,,,,,,,,,,,,,,,,,,,,,,,,,,,,,,,,,,,,,,,,
295321,2022-10-06_17h37.36.974,vts_reward_expectancy,2022.2.4,Win32,41.24561765,Chrome,1707,960,,,a,1.6741,1,138,0,2,5,29,8,1,0,0,1,0,0,0,0,1,hexagon,star,,,,,,,,,,,,,,,,,,,,,,,,,,,,,,,,,,,,,,,,,,,,,,,,,,,,,,
295321,2022-10-06_17h37.36.974,vts_reward_expectancy,2022.2.4,Win32,41.24561765,Chrome,1707,960,,,l,1.1058,10,148,0,2,6,30,7,1,0,0,1,0,0,1,0,0,hexagon,circle,,,,,,,,,,,,,,,,,,,,,,,,,,,,,,,,,,,,,,,,,,,,,,,,,,,,,,
295321,2022-10-06_17h37.36.974,vts_reward_expectancy,2022.2.4,Win32,41.24561765,Chrome,1707,960,,,l,0.8312,10,158,0,2,7,31,0,1,1,0,0,0,0,1,0,0,triangle,circle,,,,,,,,,,,,,,,,,,,,,,,,,,,,,,,,,,,,,,,,,,,,,,,,,,,,,,
295321,2022-10-06_17h37.36.974,vts_reward_expectancy,2022.2.4,Win32,41.24561765,Chrome,1707,960,,,a,0.7828,10,168,0,2,8,32,5,1,0,1,0,0,0,0,0,1,circle,star,,,,,,,,,,,,,,,,,,,,,,,,,,,,,,,,,,,,,,,,,,,,,,,,,,,,,,
295321,2022-10-06_17h37.36.974,vts_reward_expectancy,2022.2.4,Win32,41.24561765,Chrome,1707,960,,,a,2.1657,1,169,0,2,9,33,11,1,0,0,0,1,0,0,1,0,star,hexagon,,,,,,,,,,,,,,,,,,,,,,,,,,,,,,,,,,,,,,,,,,,,,,,,,,,,,,
295321,2022-10-06_17h37.36.974,vts_reward_expectancy,2022.2.4,Win32,41.24561765,Chrome,1707,960,,,l,0.9144,10,179,0,2,10,34,9,1,0,0,0,1,1,0,0,0,star,triangle,,,,,,,,,,,,,,,,,,,,,,,,,,,,,,,,,,,,,,,,,,,,,,,,,,,,,,
295321,2022-10-06_17h37.36.974,vts_reward_expectancy,2022.2.4,Win32,41.24561765,Chrome,1707,960,,,a,1.906,1,180,0,2,11,35,1,1,1,0,0,0,0,0,1,0,triangle,hexagon,,,,,,,,,,,,,,,,,,,,,,,,,,,,,,,,,,,,,,,,,,,,,,,,,,,,,,
295321,2022-10-06_17h37.36.974,vts_reward_expectancy,2022.2.4,Win32,41.24561765,Chrome,1707,960,,,l,1.1523,1,181,1,0,0,0,5,1,0,1,0,0,0,0,0,1,circle,star,,,,,,,,,,,,,,,,,,,,,,,,,,,,,,,,,,,,,,,,,,,,,,,,,,,,,,
295321,2022-10-06_17h37.36.974,vts_reward_expectancy,2022.2.4,Win32,41.24561765,Chrome,1707,960,,,a,2.6161,1,182,1,0,1,1,8,1,0,0,1,0,0,0,0,1,hexagon,star,,,,,,,,,,,,,,,,,,,,,,,,,,,,,,,,,,,,,,,,,,,,,,,,,,,,,,
295321,2022-10-06_17h37.36.974,vts_reward_expectancy,2022.2.4,Win32,41.24561765,Chrome,1707,960,,,a,52.0181,10,192,1,0,2,2,6,1,0,0,1,0,1,0,0,0,hexagon,triangle,,,,,,,,,,,,,,,,,,,,,,,,,,,,,,,,,,,,,,,,,,,,,,,,,,,,,,
295321,2022-10-06_17h37.36.974,vts_reward_expectancy,2022.2.4,Win32,41.24561765,Chrome,1707,960,,,l,0.7482,10,202,1,0,3,3,9,1,0,0,0,1,1,0,0,0,star,triangle,,,,,,,,,,,,,,,,,,,,,,,,,,,,,,,,,,,,,,,,,,,,,,,,,,,,,,
295321,2022-10-06_17h37.36.974,vts_reward_expectancy,2022.2.4,Win32,41.24561765,Chrome,1707,960,,,a,0.8926,1,203,1,0,4,4,7,1,0,0,1,0,0,1,0,0,hexagon,circle,,,,,,,,,,,,,,,,,,,,,,,,,,,,,,,,,,,,,,,,,,,,,,,,,,,,,,
295321,2022-10-06_17h37.36.974,vts_reward_expectancy,2022.2.4,Win32,41.24561765,Chrome,1707,960,,,a,1.073,10,213,1,0,5,5,4,1,0,1,0,0,0,0,1,0,circle,hexagon,,,,,,,,,,,,,,,,,,,,,,,,,,,,,,,,,,,,,,,,,,,,,,,,,,,,,,
295321,2022-10-06_17h37.36.974,vts_reward_expectancy,2022.2.4,Win32,41.24561765,Chrome,1707,960,,,l,1.9159,10,223,1,0,6,6,3,1,0,1,0,0,1,0,0,0,circle,triangle,,,,,,,,,,,,,,,,,,,,,,,,,,,,,,,,,,,,,,,,,,,,,,,,,,,,,,
295321,2022-10-06_17h37.36.974,vts_reward_expectancy,2022.2.4,Win32,41.24561765,Chrome,1707,960,,,l,1.5066,10,233,1,0,7,7,10,1,0,0,0,1,0,1,0,0,star ,circle,,,,,,,,,,,,,,,,,,,,,,,,,,,,,,,,,,,,,,,,,,,,,,,,,,,,,,
295321,2022-10-06_17h37.36.974,vts_reward_expectancy,2022.2.4,Win32,41.24561765,Chrome,1707,960,,,l,6.5758,10,243,1,0,8,8,0,1,1,0,0,0,0,1,0,0,triangle,circle,,,,,,,,,,,,,,,,,,,,,,,,,,,,,,,,,,,,,,,,,,,,,,,,,,,,,,
295321,2022-10-06_17h37.36.974,vts_reward_expectancy,2022.2.4,Win32,41.24561765,Chrome,1707,960,,,a,0.8524,10,253,1,0,9,9,1,1,1,0,0,0,0,0,1,0,triangle,hexagon,,,,,,,,,,,,,,,,,,,,,,,,,,,,,,,,,,,,,,,,,,,,,,,,,,,,,,
295321,2022-10-06_17h37.36.974,vts_reward_expectancy,2022.2.4,Win32,41.24561765,Chrome,1707,960,,,l,0.8631,10,263,1,0,10,10,2,1,1,0,0,0,0,0,0,1,triangle,star,,,,,,,,,,,,,,,,,,,,,,,,,,,,,,,,,,,,,,,,,,,,,,,,,,,,,,
295321,2022-10-06_17h37.36.974,vts_reward_expectancy,2022.2.4,Win32,41.24561765,Chrome,1707,960,,,l,0.7607,10,273,1,0,11,11,11,1,0,0,0,1,0,0,1,0,star,hexagon,,,,,,,,,,,,,,,,,,,,,,,,,,,,,,,,,,,,,,,,,,,,,,,,,,,,,,
295321,2022-10-06_17h37.36.974,vts_reward_expectancy,2022.2.4,Win32,41.24561765,Chrome,1707,960,,,a,0.782,1,274,1,1,0,12,4,1,0,1,0,0,0,0,1,0,circle,hexagon,,,,,,,,,,,,,,,,,,,,,,,,,,,,,,,,,,,,,,,,,,,,,,,,,,,,,,
295321,2022-10-06_17h37.36.974,vts_reward_expectancy,2022.2.4,Win32,41.24561765,Chrome,1707,960,,,l,0.9152,1,275,1,1,1,13,5,1,0,1,0,0,0,0,0,1,circle,star,,,,,,,,,,,,,,,,,,,,,,,,,,,,,,,,,,,,,,,,,,,,,,,,,,,,,,
295321,2022-10-06_17h37.36.974,vts_reward_expectancy,2022.2.4,Win32,41.24561765,Chrome,1707,960,,,a,0.6049,10,285,1,1,2,14,3,1,0,1,0,0,1,0,0,0,circle,triangle,,,,,,,,,,,,,,,,,,,,,,,,,,,,,,,,,,,,,,,,,,,,,,,,,,,,,,
295321,2022-10-06_17h37.36.974,vts_reward_expectancy,2022.2.4,Win32,41.24561765,Chrome,1707,960,,,l,1.1998,1,286,1,1,3,15,7,1,0,0,1,0,0,1,0,0,hexagon,circle,,,,,,,,,,,,,,,,,,,,,,,,,,,,,,,,,,,,,,,,,,,,,,,,,,,,,,
295321,2022-10-06_17h37.36.974,vts_reward_expectancy,2022.2.4,Win32,41.24561765,Chrome,1707,960,,,a,1.2699,10,296,1,1,4,16,9,1,0,0,0,1,1,0,0,0,star,triangle,,,,,,,,,,,,,,,,,,,,,,,,,,,,,,,,,,,,,,,,,,,,,,,,,,,,,,
295321,2022-10-06_17h37.36.974,vts_reward_expectancy,2022.2.4,Win32,41.24561765,Chrome,1707,960,,,l,0.6619,10,306,1,1,5,17,10,1,0,0,0,1,0,1,0,0,star ,circle,,,,,,,,,,,,,,,,,,,,,,,,,,,,,,,,,,,,,,,,,,,,,,,,,,,,,,
295321,2022-10-06_17h37.36.974,vts_reward_expectancy,2022.2.4,Win32,41.24561765,Chrome,1707,960,,,a,1.0838,1,307,1,1,6,18,6,1,0,0,1,0,1,0,0,0,hexagon,triangle,,,,,,,,,,,,,,,,,,,,,,,,,,,,,,,,,,,,,,,,,,,,,,,,,,,,,,
295321,2022-10-06_17h37.36.974,vts_reward_expectancy,2022.2.4,Win32,41.24561765,Chrome,1707,960,,,l,0.7382,1,308,1,1,7,19,11,1,0,0,0,1,0,0,1,0,star,hexagon,,,,,,,,,,,,,,,,,,,,,,,,,,,,,,,,,,,,,,,,,,,,,,,,,,,,,,
295321,2022-10-06_17h37.36.974,vts_reward_expectancy,2022.2.4,Win32,41.24561765,Chrome,1707,960,,,a,0.6864,1,309,1,1,8,20,8,1,0,0,1,0,0,0,0,1,hexagon,star,,,,,,,,,,,,,,,,,,,,,,,,,,,,,,,,,,,,,,,,,,,,,,,,,,,,,,
295321,2022-10-06_17h37.36.974,vts_reward_expectancy,2022.2.4,Win32,41.24561765,Chrome,1707,960,,,l,0.9846,10,319,1,1,9,21,1,1,1,0,0,0,0,0,1,0,triangle,hexagon,,,,,,,,,,,,,,,,,,,,,,,,,,,,,,,,,,,,,,,,,,,,,,,,,,,,,,
295321,2022-10-06_17h37.36.974,vts_reward_expectancy,2022.2.4,Win32,41.24561765,Chrome,1707,960,,,l,0.7369,1,320,1,1,10,22,0,1,1,0,0,0,0,1,0,0,triangle,circle,,,,,,,,,,,,,,,,,,,,,,,,,,,,,,,,,,,,,,,,,,,,,,,,,,,,,,
295321,2022-10-06_17h37.36.974,vts_reward_expectancy,2022.2.4,Win32,41.24561765,Chrome,1707,960,,,a,1.4238,10,330,1,1,11,23,2,1,1,0,0,0,0,0,0,1,triangle,star,,,,,,,,,,,,,,,,,,,,,,,,,,,,,,,,,,,,,,,,,,,,,,,,,,,,,,
295321,2022-10-06_17h37.36.974,vts_reward_expectancy,2022.2.4,Win32,41.24561765,Chrome,1707,960,,,l,0.8092,1,331,1,2,0,24,11,1,0,0,0,1,0,0,1,0,star,hexagon,,,,,,,,,,,,,,,,,,,,,,,,,,,,,,,,,,,,,,,,,,,,,,,,,,,,,,
295321,2022-10-06_17h37.36.974,vts_reward_expectancy,2022.2.4,Win32,41.24561765,Chrome,1707,960,,,a,26.8951,1,332,1,2,1,25,8,1,0,0,1,0,0,0,0,1,hexagon,star,,,,,,,,,,,,,,,,,,,,,,,,,,,,,,,,,,,,,,,,,,,,,,,,,,,,,,
295321,2022-10-06_17h37.36.974,vts_reward_expectancy,2022.2.4,Win32,41.24561765,Chrome,1707,960,,,l,0.8254,1,333,1,2,2,26,4,1,0,1,0,0,0,0,1,0,circle,hexagon,,,,,,,,,,,,,,,,,,,,,,,,,,,,,,,,,,,,,,,,,,,,,,,,,,,,,,
295321,2022-10-06_17h37.36.974,vts_reward_expectancy,2022.2.4,Win32,41.24561765,Chrome,1707,960,,,a,1.1202,10,343,1,2,3,27,2,1,1,0,0,0,0,0,0,1,triangle,star,,,,,,,,,,,,,,,,,,,,,,,,,,,,,,,,,,,,,,,,,,,,,,,,,,,,,,
295321,2022-10-06_17h37.36.974,vts_reward_expectancy,2022.2.4,Win32,41.24561765,Chrome,1707,960,,,a,26.9089,10,353,1,2,4,28,6,1,0,0,1,0,1,0,0,0,hexagon,triangle,,,,,,,,,,,,,,,,,,,,,,,,,,,,,,,,,,,,,,,,,,,,,,,,,,,,,,
295321,2022-10-06_17h37.36.974,vts_reward_expectancy,2022.2.4,Win32,41.24561765,Chrome,1707,960,,,l,7.3101,10,363,1,2,5,29,9,1,0,0,0,1,1,0,0,0,star,triangle,,,,,,,,,,,,,,,,,,,,,,,,,,,,,,,,,,,,,,,,,,,,,,,,,,,,,,
295321,2022-10-06_17h37.36.974,vts_reward_expectancy,2022.2.4,Win32,41.24561765,Chrome,1707,960,,,l,0.8873,1,364,1,2,6,30,7,1,0,0,1,0,0,1,0,0,hexagon,circle,,,,,,,,,,,,,,,,,,,,,,,,,,,,,,,,,,,,,,,,,,,,,,,,,,,,,,
295321,2022-10-06_17h37.36.974,vts_reward_expectancy,2022.2.4,Win32,41.24561765,Chrome,1707,960,,,a,0.6422,10,374,1,2,7,31,3,1,0,1,0,0,1,0,0,0,circle,triangle,,,,,,,,,,,,,,,,,,,,,,,,,,,,,,,,,,,,,,,,,,,,,,,,,,,,,,
295321,2022-10-06_17h37.36.974,vts_reward_expectancy,2022.2.4,Win32,41.24561765,Chrome,1707,960,,,a,2.1306,1,375,1,2,8,32,1,1,1,0,0,0,0,0,1,0,triangle,hexagon,,,,,,,,,,,,,,,,,,,,,,,,,,,,,,,,,,,,,,,,,,,,,,,,,,,,,,
295321,2022-10-06_17h37.36.974,vts_reward_expectancy,2022.2.4,Win32,41.24561765,Chrome,1707,960,,,a,11.6109,10,385,1,2,9,33,0,1,1,0,0,0,0,1,0,0,triangle,circle,,,,,,,,,,,,,,,,,,,,,,,,,,,,,,,,,,,,,,,,,,,,,,,,,,,,,,
295321,2022-10-06_17h37.36.974,vts_reward_expectancy,2022.2.4,Win32,41.24561765,Chrome,1707,960,,,l,0.7297,1,386,1,2,10,34,10,1,0,0,0,1,0,1,0,0,star ,circle,,,,,,,,,,,,,,,,,,,,,,,,,,,,,,,,,,,,,,,,,,,,,,,,,,,,,,
295321,2022-10-06_17h37.36.974,vts_reward_expectancy,2022.2.4,Win32,41.24561765,Chrome,1707,960,,,l,1.0879,1,387,1,2,11,35,5,1,0,1,0,0,0,0,0,1,circle,star,,,,,,,,,,,,,,,,,,,,,,,,,,,,,,,,,,,,,,,,,,,,,,,,,,,,,,
295321,2022-10-06_17h37.36.974,vts_reward_expectancy,2022.2.4,Win32,41.24561765,Chrome,1707,960,,,a,1.3505,10,397,2,0,0,0,1,1,1,0,0,0,0,0,1,0,triangle,hexagon,,,,,,,,,,,,,,,,,,,,,,,,,,,,,,,,,,,,,,,,,,,,,,,,,,,,,,
295321,2022-10-06_17h37.36.974,vts_reward_expectancy,2022.2.4,Win32,41.24561765,Chrome,1707,960,,,a,1.1268,1,398,2,0,1,1,8,1,0,0,1,0,0,0,0,1,hexagon,star,,,,,,,,,,,,,,,,,,,,,,,,,,,,,,,,,,,,,,,,,,,,,,,,,,,,,,
295321,2022-10-06_17h37.36.974,vts_reward_expectancy,2022.2.4,Win32,41.24561765,Chrome,1707,960,,,l,1.0093,10,408,2,0,2,2,9,1,0,0,0,1,1,0,0,0,star,triangle,,,,,,,,,,,,,,,,,,,,,,,,,,,,,,,,,,,,,,,,,,,,,,,,,,,,,,
295321,2022-10-06_17h37.36.974,vts_reward_expectancy,2022.2.4,Win32,41.24561765,Chrome,1707,960,,,a,1.3372,1,409,2,0,3,3,0,1,1,0,0,0,0,1,0,0,triangle,circle,,,,,,,,,,,,,,,,,,,,,,,,,,,,,,,,,,,,,,,,,,,,,,,,,,,,,,
295321,2022-10-06_17h37.36.974,vts_reward_expectancy,2022.2.4,Win32,41.24561765,Chrome,1707,960,,,a,1.7528,10,419,2,0,4,4,6,1,0,0,1,0,1,0,0,0,hexagon,triangle,,,,,,,,,,,,,,,,,,,,,,,,,,,,,,,,,,,,,,,,,,,,,,,,,,,,,,
295321,2022-10-06_17h37.36.974,vts_reward_expectancy,2022.2.4,Win32,41.24561765,Chrome,1707,960,,,l,5.1203,1,420,2,0,5,5,7,1,0,0,1,0,0,1,0,0,hexagon,circle,,,,,,,,,,,,,,,,,,,,,,,,,,,,,,,,,,,,,,,,,,,,,,,,,,,,,,
295321,2022-10-06_17h37.36.974,vts_reward_expectancy,2022.2.4,Win32,41.24561765,Chrome,1707,960,,,a,12.273,10,430,2,0,6,6,3,1,0,1,0,0,1,0,0,0,circle,triangle,,,,,,,,,,,,,,,,,,,,,,,,,,,,,,,,,,,,,,,,,,,,,,,,,,,,,,
295321,2022-10-06_17h37.36.974,vts_reward_expectancy,2022.2.4,Win32,41.24561765,Chrome,1707,960,,,l,1.1736,10,440,2,0,7,7,2,1,1,0,0,0,0,0,0,1,triangle,star,,,,,,,,,,,,,,,,,,,,,,,,,,,,,,,,,,,,,,,,,,,,,,,,,,,,,,
295321,2022-10-06_17h37.36.974,vts_reward_expectancy,2022.2.4,Win32,41.24561765,Chrome,1707,960,,,a,4.5458,10,450,2,0,8,8,5,1,0,1,0,0,0,0,0,1,circle,star,,,,,,,,,,,,,,,,,,,,,,,,,,,,,,,,,,,,,,,,,,,,,,,,,,,,,,
295321,2022-10-06_17h37.36.974,vts_reward_expectancy,2022.2.4,Win32,41.24561765,Chrome,1707,960,,,l,3.3159,10,460,2,0,9,9,11,1,0,0,0,1,0,0,1,0,star,hexagon,,,,,,,,,,,,,,,,,,,,,,,,,,,,,,,,,,,,,,,,,,,,,,,,,,,,,,
295321,2022-10-06_17h37.36.974,vts_reward_expectancy,2022.2.4,Win32,41.24561765,Chrome,1707,960,,,a,10.0013,10,470,2,0,10,10,4,1,0,1,0,0,0,0,1,0,circle,hexagon,,,,,,,,,,,,,,,,,,,,,,,,,,,,,,,,,,,,,,,,,,,,,,,,,,,,,,
295321,2022-10-06_17h37.36.974,vts_reward_expectancy,2022.2.4,Win32,41.24561765,Chrome,1707,960,,,l,2.1945,10,480,2,0,11,11,10,1,0,0,0,1,0,1,0,0,star ,circle,,,,,,,,,,,,,,,,,,,,,,,,,,,,,,,,,,,,,,,,,,,,,,,,,,,,,,
295321,2022-10-06_17h37.36.974,vts_reward_expectancy,2022.2.4,Win32,41.24561765,Chrome,1707,960,,,a,12.6395,1,481,2,1,0,12,5,1,0,1,0,0,0,0,0,1,circle,star,,,,,,,,,,,,,,,,,,,,,,,,,,,,,,,,,,,,,,,,,,,,,,,,,,,,,,
295321,2022-10-06_17h37.36.974,vts_reward_expectancy,2022.2.4,Win32,41.24561765,Chrome,1707,960,,,l,7.6048,1,482,2,1,1,13,10,1,0,0,0,1,0,1,0,0,star ,circle,,,,,,,,,,,,,,,,,,,,,,,,,,,,,,,,,,,,,,,,,,,,,,,,,,,,,,
295321,2022-10-06_17h37.36.974,vts_reward_expectancy,2022.2.4,Win32,41.24561765,Chrome,1707,960,,,a,0.8194,10,492,2,1,2,14,2,1,1,0,0,0,0,0,0,1,triangle,star,,,,,,,,,,,,,,,,,,,,,,,,,,,,,,,,,,,,,,,,,,,,,,,,,,,,,,
295321,2022-10-06_17h37.36.974,vts_reward_expectancy,2022.2.4,Win32,41.24561765,Chrome,1707,960,,,a,1.1474,1,493,2,1,3,15,8,1,0,0,1,0,0,0,0,1,hexagon,star,,,,,,,,,,,,,,,,,,,,,,,,,,,,,,,,,,,,,,,,,,,,,,,,,,,,,,
295321,2022-10-06_17h37.36.974,vts_reward_expectancy,2022.2.4,Win32,41.24561765,Chrome,1707,960,,,l,1.0718,1,494,2,1,4,16,7,1,0,0,1,0,0,1,0,0,hexagon,circle,,,,,,,,,,,,,,,,,,,,,,,,,,,,,,,,,,,,,,,,,,,,,,,,,,,,,,
295321,2022-10-06_17h37.36.974,vts_reward_expectancy,2022.2.4,Win32,41.24561765,Chrome,1707,960,,,a,0.1551,1,495,2,1,5,17,11,1,0,0,0,1,0,0,1,0,star,hexagon,,,,,,,,,,,,,,,,,,,,,,,,,,,,,,,,,,,,,,,,,,,,,,,,,,,,,,
295321,2022-10-06_17h37.36.974,vts_reward_expectancy,2022.2.4,Win32,41.24561765,Chrome,1707,960,,,l,0.4911,1,496,2,1,6,18,4,1,0,1,0,0,0,0,1,0,circle,hexagon,,,,,,,,,,,,,,,,,,,,,,,,,,,,,,,,,,,,,,,,,,,,,,,,,,,,,,
295321,2022-10-06_17h37.36.974,vts_reward_expectancy,2022.2.4,Win32,41.24561765,Chrome,1707,960,,,l,0.5159,10,506,2,1,7,19,3,1,0,1,0,0,1,0,0,0,circle,triangle,,,,,,,,,,,,,,,,,,,,,,,,,,,,,,,,,,,,,,,,,,,,,,,,,,,,,,
295321,2022-10-06_17h37.36.974,vts_reward_expectancy,2022.2.4,Win32,41.24561765,Chrome,1707,960,,,a,0.529,1,507,2,1,8,20,1,1,1,0,0,0,0,0,1,0,triangle,hexagon,,,,,,,,,,,,,,,,,,,,,,,,,,,,,,,,,,,,,,,,,,,,,,,,,,,,,,
295321,2022-10-06_17h37.36.974,vts_reward_expectancy,2022.2.4,Win32,41.24561765,Chrome,1707,960,,,l,0.5022,10,517,2,1,9,21,9,1,0,0,0,1,1,0,0,0,star,triangle,,,,,,,,,,,,,,,,,,,,,,,,,,,,,,,,,,,,,,,,,,,,,,,,,,,,,,
295321,2022-10-06_17h37.36.974,vts_reward_expectancy,2022.2.4,Win32,41.24561765,Chrome,1707,960,,,l,3.5498,1,518,2,1,10,22,0,1,1,0,0,0,0,1,0,0,triangle,circle,,,,,,,,,,,,,,,,,,,,,,,,,,,,,,,,,,,,,,,,,,,,,,,,,,,,,,
295321,2022-10-06_17h37.36.974,vts_reward_expectancy,2022.2.4,Win32,41.24561765,Chrome,1707,960,,,a,0.8551,1,519,2,1,11,23,6,1,0,0,1,0,1,0,0,0,hexagon,triangle,,,,,,,,,,,,,,,,,,,,,,,,,,,,,,,,,,,,,,,,,,,,,,,,,,,,,,
295321,2022-10-06_17h37.36.974,vts_reward_expectancy,2022.2.4,Win32,41.24561765,Chrome,1707,960,,,l,0.8381,10,529,2,2,0,24,10,1,0,0,0,1,0,1,0,0,star ,circle,,,,,,,,,,,,,,,,,,,,,,,,,,,,,,,,,,,,,,,,,,,,,,,,,,,,,,
295321,2022-10-06_17h37.36.974,vts_reward_expectancy,2022.2.4,Win32,41.24561765,Chrome,1707,960,,,a,0.7728,10,539,2,2,1,25,0,1,1,0,0,0,0,1,0,0,triangle,circle,,,,,,,,,,,,,,,,,,,,,,,,,,,,,,,,,,,,,,,,,,,,,,,,,,,,,,
295321,2022-10-06_17h37.36.974,vts_reward_expectancy,2022.2.4,Win32,41.24561765,Chrome,1707,960,,,l,0.7673,10,549,2,2,2,26,7,1,0,0,1,0,0,1,0,0,hexagon,circle,,,,,,,,,,,,,,,,,,,,,,,,,,,,,,,,,,,,,,,,,,,,,,,,,,,,,,
295321,2022-10-06_17h37.36.974,vts_reward_expectancy,2022.2.4,Win32,41.24561765,Chrome,1707,960,,,l,2.7171,10,559,2,2,3,27,2,1,1,0,0,0,0,0,0,1,triangle,star,,,,,,,,,,,,,,,,,,,,,,,,,,,,,,,,,,,,,,,,,,,,,,,,,,,,,,
295321,2022-10-06_17h37.36.974,vts_reward_expectancy,2022.2.4,Win32,41.24561765,Chrome,1707,960,,,a,3.7697,1,560,2,2,4,28,4,1,0,1,0,0,0,0,1,0,circle,hexagon,,,,,,,,,,,,,,,,,,,,,,,,,,,,,,,,,,,,,,,,,,,,,,,,,,,,,,
295321,2022-10-06_17h37.36.974,vts_reward_expectancy,2022.2.4,Win32,41.24561765,Chrome,1707,960,,,a,17.9797,10,570,2,2,5,29,3,1,0,1,0,0,1,0,0,0,circle,triangle,,,,,,,,,,,,,,,,,,,,,,,,,,,,,,,,,,,,,,,,,,,,,,,,,,,,,,
295321,2022-10-06_17h37.36.974,vts_reward_expectancy,2022.2.4,Win32,41.24561765,Chrome,1707,960,,,l,0.9113,1,571,2,2,6,30,11,1,0,0,0,1,0,0,1,0,star,hexagon,,,,,,,,,,,,,,,,,,,,,,,,,,,,,,,,,,,,,,,,,,,,,,,,,,,,,,
295321,2022-10-06_17h37.36.974,vts_reward_expectancy,2022.2.4,Win32,41.24561765,Chrome,1707,960,,,a,2.0361,10,581,2,2,7,31,6,1,0,0,1,0,1,0,0,0,hexagon,triangle,,,,,,,,,,,,,,,,,,,,,,,,,,,,,,,,,,,,,,,,,,,,,,,,,,,,,,
295321,2022-10-06_17h37.36.974,vts_reward_expectancy,2022.2.4,Win32,41.24561765,Chrome,1707,960,,,l,4.5246,1,582,2,2,8,32,8,1,0,0,1,0,0,0,0,1,hexagon,star,,,,,,,,,,,,,,,,,,,,,,,,,,,,,,,,,,,,,,,,,,,,,,,,,,,,,,
295321,2022-10-06_17h37.36.974,vts_reward_expectancy,2022.2.4,Win32,41.24561765,Chrome,1707,960,,,a,17.5913,10,592,2,2,9,33,5,1,0,1,0,0,0,0,0,1,circle,star,,,,,,,,,,,,,,,,,,,,,,,,,,,,,,,,,,,,,,,,,,,,,,,,,,,,,,
295321,2022-10-06_17h37.36.974,vts_reward_expectancy,2022.2.4,Win32,41.24561765,Chrome,1707,960,,,l,1.6183,10,602,2,2,10,34,9,1,0,0,0,1,1,0,0,0,star,triangle,,,,,,,,,,,,,,,,,,,,,,,,,,,,,,,,,,,,,,,,,,,,,,,,,,,,,,
295321,2022-10-06_17h37.36.974,vts_reward_expectancy,2022.2.4,Win32,41.24561765,Chrome,1707,960,,,l,1.7789,1,603,2,2,11,35,1,1,1,0,0,0,0,0,1,0,triangle,hexagon,,,,,,,,,,,,,,,,,,,,,,,,,,,,,,,,,,,,,,,,,,,,,,,,,,,,,,
295321,2022-10-06_17h37.36.974,vts_reward_expectancy,2022.2.4,Win32,41.24561765,Chrome,1707,960,,,,,,,,,,,,,,,,,,,,,,,B,139,hexagon,1,0,d,2.3637,0,0,0,0,0,1,,,,,,,,,,,,,,,,,,,,,,,,,,,,,,,,,,,,,,,,,
295321,2022-10-06_17h37.36.974,vts_reward_expectancy,2022.2.4,Win32,41.24561765,Chrome,1707,960,,,,,,,,,,,,,,,,,,,,,,,F,167,circle,1,0,d,2.6244,0,1,0,1,0,1,,,,,,,,,,,,,,,,,,,,,,,,,,,,,,,,,,,,,,,,,
295321,2022-10-06_17h37.36.974,vts_reward_expectancy,2022.2.4,Win32,41.24561765,Chrome,1707,960,,,,,,,,,,,,,,,,,,,,,,,U,160,star,1,0,f,1.1516,0,2,0,2,0,1,,,,,,,,,,,,,,,,,,,,,,,,,,,,,,,,,,,,,,,,,
295321,2022-10-06_17h37.36.974,vts_reward_expectancy,2022.2.4,Win32,41.24561765,Chrome,1707,960,,,,,,,,,,,,,,,,,,,,,,,Y,125,triangle,1,0,f,0.7705,0,3,0,3,0,1,,,,,,,,,,,,,,,,,,,,,,,,,,,,,,,,,,,,,,,,,
295321,2022-10-06_17h37.36.974,vts_reward_expectancy,2022.2.4,Win32,41.24561765,Chrome,1707,960,,,,,,,,,,,,,,,,,,,,,,,S,174,hexagon,1,0,f,1.4911,0,4,0,4,0,1,,,,,,,,,,,,,,,,,,,,,,,,,,,,,,,,,,,,,,,,,
295321,2022-10-06_17h37.36.974,vts_reward_expectancy,2022.2.4,Win32,41.24561765,Chrome,1707,960,,,,,,,,,,,,,,,,,,,,,,,D,181,circle,1,0,d,0.8942,0,5,0,5,0,1,,,,,,,,,,,,,,,,,,,,,,,,,,,,,,,,,,,,,,,,,
295321,2022-10-06_17h37.36.974,vts_reward_expectancy,2022.2.4,Win32,41.24561765,Chrome,1707,960,,,,,,,,,,,,,,,,,,,,,,,H,132,star,1,0,d,1.8251,0,6,0,6,0,1,,,,,,,,,,,,,,,,,,,,,,,,,,,,,,,,,,,,,,,,,
295321,2022-10-06_17h37.36.974,vts_reward_expectancy,2022.2.4,Win32,41.24561765,Chrome,1707,960,,,,,,,,,,,,,,,,,,,,,,,W,146,triangle,1,0,f,0.6211,0,7,0,7,0,1,,,,,,,,,,,,,,,,,,,,,,,,,,,,,,,,,,,,,,,,,
295321,2022-10-06_17h37.36.974,vts_reward_expectancy,2022.2.4,Win32,41.24561765,Chrome,1707,960,,,,,,,,,,,,,,,,,,,,,,,B,139,triangle,1,0,d,0.5023,0,8,0,8,0,1,,,,,,,,,,,,,,,,,,,,,,,,,,,,,,,,,,,,,,,,,
295321,2022-10-06_17h37.36.974,vts_reward_expectancy,2022.2.4,Win32,41.24561765,Chrome,1707,960,,,,,,,,,,,,,,,,,,,,,,,F,167,circle,1,0,d,1.3126,0,9,0,9,0,1,,,,,,,,,,,,,,,,,,,,,,,,,,,,,,,,,,,,,,,,,
295321,2022-10-06_17h37.36.974,vts_reward_expectancy,2022.2.4,Win32,41.24561765,Chrome,1707,960,,,,,,,,,,,,,,,,,,,,,,,W,160,circle,1,0,,,1,,,,,,k,0.6911,0,0,0,0,1,,,,,,,,,,,,,,,,,,,,,,,,,,,,,,,,,,
295321,2022-10-06_17h37.36.974,vts_reward_expectancy,2022.2.4,Win32,41.24561765,Chrome,1707,960,,,,,,,,,,,,,,,,,,,,,,,S,125,hexagon,1,0,,,1,,,,,,j,0.476,1,0,1,0,1,,,,,,,,,,,,,,,,,,,,,,,,,,,,,,,,,,
295321,2022-10-06_17h37.36.974,vts_reward_expectancy,2022.2.4,Win32,41.24561765,Chrome,1707,960,,,,,,,,,,,,,,,,,,,,,,,H,132,triangle,1,0,,,1,,,,,,j,1.7941,2,0,2,0,1,,,,,,,,,,,,,,,,,,,,,,,,,,,,,,,,,,
295321,2022-10-06_17h37.36.974,vts_reward_expectancy,2022.2.4,Win32,41.24561765,Chrome,1707,960,,,,,,,,,,,,,,,,,,,,,,,Y,181,star,1,0,,,1,,,,,,k,1.1481,3,0,3,0,1,,,,,,,,,,,,,,,,,,,,,,,,,,,,,,,,,,
295321,2022-10-06_17h37.36.974,vts_reward_expectancy,2022.2.4,Win32,41.24561765,Chrome,1707,960,,,,,,,,,,,,,,,,,,,,,,,U,174,circle,0,0,,,1,,,,,,,,4,0,4,0,1,,,,,,,,,,,,,,,,,,,,,,,,,,,,,,,,,,
295321,2022-10-06_17h37.36.974,vts_reward_expectancy,2022.2.4,Win32,41.24561765,Chrome,1707,960,,,,,,,,,,,,,,,,,,,,,,,D,146,hexagon,1,1,,,1,,,,,,j,1.5819,5,0,5,0,1,,,,,,,,,,,,,,,,,,,,,,,,,,,,,,,,,,
295321,2022-10-06_17h37.36.974,vts_reward_expectancy,2022.2.4,Win32,41.24561765,Chrome,1707,960,,,,,,,,,,,,,,,,,,,,,,,B,139,triangle,0,0,,,1,,,,,,,,6,0,6,0,1,,,,,,,,,,,,,,,,,,,,,,,,,,,,,,,,,,
295321,2022-10-06_17h37.36.974,vts_reward_expectancy,2022.2.4,Win32,41.24561765,Chrome,1707,960,,,,,,,,,,,,,,,,,,,,,,,F,167,star,1,1,,,1,,,,,,k,1.1556,7,0,7,0,1,,,,,,,,,,,,,,,,,,,,,,,,,,,,,,,,,,
295321,2022-10-06_17h37.36.974,vts_reward_expectancy,2022.2.4,Win32,41.24561765,Chrome,1707,960,,,,,,,,,,,,,,,,,,,,,,,W,160,triangle,1,0,,,1,,,,,,k,0.9995,8,0,8,0,1,,,,,,,,,,,,,,,,,,,,,,,,,,,,,,,,,,
295321,2022-10-06_17h37.36.974,vts_reward_expectancy,2022.2.4,Win32,41.24561765,Chrome,1707,960,,,,,,,,,,,,,,,,,,,,,,,S,125,circle,1,0,,,1,,,,,,j,0.6178,9,0,9,0,1,,,,,,,,,,,,,,,,,,,,,,,,,,,,,,,,,,
295321,2022-10-06_17h37.36.974,vts_reward_expectancy,2022.2.4,Win32,41.24561765,Chrome,1707,960,,,,,,,,,,,,,,,,,,,,,,,D,160,star,1,0,,,2,,,,,,k,0.5025,0,0,0,0,1,,,,,,,,,,,,,,,,,,,,,,,,,,,,,,,,,,
295321,2022-10-06_17h37.36.974,vts_reward_expectancy,2022.2.4,Win32,41.24561765,Chrome,1707,960,,,,,,,,,,,,,,,,,,,,,,,Y,146,triangle,1,0,,,2,,,,,,j,0.9268,1,0,1,0,1,,,,,,,,,,,,,,,,,,,,,,,,,,,,,,,,,,
295321,2022-10-06_17h37.36.974,vts_reward_expectancy,2022.2.4,Win32,41.24561765,Chrome,1707,960,,,,,,,,,,,,,,,,,,,,,,,H,174,hexagon,1,0,,,2,,,,,,k,0.567,2,0,2,0,1,,,,,,,,,,,,,,,,,,,,,,,,,,,,,,,,,,
295321,2022-10-06_17h37.36.974,vts_reward_expectancy,2022.2.4,Win32,41.24561765,Chrome,1707,960,,,,,,,,,,,,,,,,,,,,,,,W,181,circle,1,0,,,2,,,,,,k,0.7446,3,0,3,0,1,,,,,,,,,,,,,,,,,,,,,,,,,,,,,,,,,,
295321,2022-10-06_17h37.36.974,vts_reward_expectancy,2022.2.4,Win32,41.24561765,Chrome,1707,960,,,,,,,,,,,,,,,,,,,,,,,S,132,star,1,0,,,2,,,,,,j,0.6196,4,0,4,0,1,,,,,,,,,,,,,,,,,,,,,,,,,,,,,,,,,,
295321,2022-10-06_17h37.36.974,vts_reward_expectancy,2022.2.4,Win32,41.24561765,Chrome,1707,960,,,,,,,,,,,,,,,,,,,,,,,B,125,triangle,1,0,,,2,,,,,,j,0.6297,5,0,5,0,1,,,,,,,,,,,,,,,,,,,,,,,,,,,,,,,,,,
295321,2022-10-06_17h37.36.974,vts_reward_expectancy,2022.2.4,Win32,41.24561765,Chrome,1707,960,,,,,,,,,,,,,,,,,,,,,,,F,139,hexagon,1,0,,,2,,,,,,j,0.772,6,0,6,0,1,,,,,,,,,,,,,,,,,,,,,,,,,,,,,,,,,,
295321,2022-10-06_17h37.36.974,vts_reward_expectancy,2022.2.4,Win32,41.24561765,Chrome,1707,960,,,,,,,,,,,,,,,,,,,,,,,U,167,circle,0,0,,,2,,,,,,j,0.6301,7,0,7,0,1,,,,,,,,,,,,,,,,,,,,,,,,,,,,,,,,,,
295321,2022-10-06_17h37.36.974,vts_reward_expectancy,2022.2.4,Win32,41.24561765,Chrome,1707,960,,,,,,,,,,,,,,,,,,,,,,,D,160,hexagon,1,1,,,2,,,,,,k,0.6666,8,0,8,0,1,,,,,,,,,,,,,,,,,,,,,,,,,,,,,,,,,,
295321,2022-10-06_17h37.36.974,vts_reward_expectancy,2022.2.4,Win32,41.24561765,Chrome,1707,960,,,,,,,,,,,,,,,,,,,,,,,Y,146,circle,1,0,,,2,,,,,,j,1.023,9,0,9,0,1,,,,,,,,,,,,,,,,,,,,,,,,,,,,,,,,,,
295321,2022-10-06_17h37.36.974,vts_reward_expectancy,2022.2.4,Win32,41.24561765,Chrome,1707,960,,,,,0,603,,,,,,,,,,,,,,,,,S,125,hexagon,0,0,,,3,,,,,,,,,,,,,-1,number,NA,k,2.5938,vtsPrac,0,0,0,0,1,,,,,,,,,,,,,,,,,,,,,,,
295321,2022-10-06_17h37.36.974,vts_reward_expectancy,2022.2.4,Win32,41.24561765,Chrome,1707,960,,,,,0,603,,,,,,,,,,,,,,,,,H,132,star,1,1,,,3,,,,,,,,,,,,,switch,letter,lettSwt,d,1.6336,vtsPrac,1,0,1,0,1,,,,,,,,,,,,,,,,,,,,,,,
295321,2022-10-06_17h37.36.974,vts_reward_expectancy,2022.2.4,Win32,41.24561765,Chrome,1707,960,,,,,0,603,,,,,,,,,,,,,,,,,W,160,hexagon,1,0,,,3,,,,,,,,,,,,,switch,number,numSwt,k,0.7663,vtsPrac,2,0,2,0,1,,,,,,,,,,,,,,,,,,,,,,,
295321,2022-10-06_17h37.36.974,vts_reward_expectancy,2022.2.4,Win32,41.24561765,Chrome,1707,960,,,,,0,603,,,,,,,,,,,,,,,,,Y,174,star,1,0,,,3,,,,,,,,,,,,,switch,letter,lettSwt,f,0.5675,vtsPrac,3,0,3,0,1,,,,,,,,,,,,,,,,,,,,,,,
295321,2022-10-06_17h37.36.974,vts_reward_expectancy,2022.2.4,Win32,41.24561765,Chrome,1707,960,,,,,0,603,,,,,,,,,,,,,,,,,S,125,hexagon,1,0,,,3,,,,,,,,,,,,,switch,number,numSwt,j,1.5883,vtsPrac,4,0,4,0,1,,,,,,,,,,,,,,,,,,,,,,,
295321,2022-10-06_17h37.36.974,vts_reward_expectancy,2022.2.4,Win32,41.24561765,Chrome,1707,960,,,,,0,603,,,,,,,,,,,,,,,,,H,132,star,1,0,,,3,,,,,,,,,,,,,switch,letter,lettSwt,d,0.8456,vtsPrac,5,0,5,0,1,,,,,,,,,,,,,,,,,,,,,,,
295321,2022-10-06_17h37.36.974,vts_reward_expectancy,2022.2.4,Win32,41.24561765,Chrome,1707,960,,,,,0,603,,,,,,,,,,,,,,,,,W,160,triangle,1,0,,,3,,,,,,,,,,,,,switch,number,numSwt,k,1.8794,vtsPrac,6,0,6,0,1,,,,,,,,,,,,,,,,,,,,,,,
295321,2022-10-06_17h37.36.974,vts_reward_expectancy,2022.2.4,Win32,41.24561765,Chrome,1707,960,,,,,0,603,,,,,,,,,,,,,,,,,Y,174,circle,1,0,,,3,,,,,,,,,,,,,switch,letter,lettSwt,f,0.6901,vtsPrac,7,0,7,0,1,,,,,,,,,,,,,,,,,,,,,,,
295321,2022-10-06_17h37.36.974,vts_reward_expectancy,2022.2.4,Win32,41.24561765,Chrome,1707,960,,,,,0,603,,,,,,,,,,,,,,,,,F,181,star,1,0,,,3,,,,,,,,,,,,,switch,number,numSwt,k,1.51,vtsPrac,8,0,8,0,1,,,,,,,,,,,,,,,,,,,,,,,
295321,2022-10-06_17h37.36.974,vts_reward_expectancy,2022.2.4,Win32,41.24561765,Chrome,1707,960,,,,,0,603,,,,,,,,,,,,,,,,,U,167,hexagon,1,0,,,3,,,,,,,,,,,,,switch,letter,lettSwt,f,1.3485,vtsPrac,9,0,9,0,1,,,,,,,,,,,,,,,,,,,,,,,
295321,2022-10-06_17h37.36.974,vts_reward_expectancy,2022.2.4,Win32,41.24561765,Chrome,1707,960,,,,,0,603,,,,,,,,,,,,,,,,,S,160,hexagon,1,0,,,3,,,,,,,,,,,,,switch,number,numSwt,k,1.5342,vtsPrac,10,0,10,0,1,,,,,,,,,,,,,,,,,,,,,,,
295321,2022-10-06_17h37.36.974,vts_reward_expectancy,2022.2.4,Win32,41.24561765,Chrome,1707,960,,,,,0,603,,,,,,,,,,,,,,,,,D,125,circle,1,0,,,3,,,,,,,,,,,,,switch,letter,lettSwt,d,1.2172,vtsPrac,11,0,11,0,1,,,,,,,,,,,,,,,,,,,,,,,
295321,2022-10-06_17h37.36.974,vts_reward_expectancy,2022.2.4,Win32,41.24561765,Chrome,1707,960,,,,,0,603,,,,,,,,,,,,,,,,,W,132,circle,1,0,,,3,,,,,,,,,,,,,switch,number,numSwt,j,1.5027,vtsPrac,12,0,12,0,1,,,,,,,,,,,,,,,,,,,,,,,
295321,2022-10-06_17h37.36.974,vts_reward_expectancy,2022.2.4,Win32,41.24561765,Chrome,1707,960,,,,,0,603,,,,,,,,,,,,,,,,,H,160,hexagon,1,0,,,3,,,,,,,,,,,,,switch,letter,lettSwt,d,1.4714,vtsPrac,13,0,13,0,1,,,,,,,,,,,,,,,,,,,,,,,
295321,2022-10-06_17h37.36.974,vts_reward_expectancy,2022.2.4,Win32,41.24561765,Chrome,1707,960,,,,,0,603,,,,,,,,,,,,,,,,,S,167,hexagon,1,0,,,3,,,,,,,,,,,,,switch,number,numSwt,k,1.6428,vtsPrac,14,0,14,0,1,,,,,,,,,,,,,,,,,,,,,,,
295321,2022-10-06_17h37.36.974,vts_reward_expectancy,2022.2.4,Win32,41.24561765,Chrome,1707,960,,,,,0,603,,,,,,,,,,,,,,,,,B,181,triangle,1,0,,,3,,,,,,,,,,,,,switch,letter,lettSwt,d,0.8609,vtsPrac,15,0,15,0,1,,,,,,,,,,,,,,,,,,,,,,,
295321,2022-10-06_17h37.36.974,vts_reward_expectancy,2022.2.4,Win32,41.24561765,Chrome,1707,960,,,,,0,603,,,,,,,,,,,,,,,,,W,174,circle,1,0,,,4,,,,,,,,,,,,,repeat,letter,lettRpt,f,0.5443,vtsPrac,0,0,0,0,1,,,,,,,,,,,,,,,,,,,,,,,
295321,2022-10-06_17h37.36.974,vts_reward_expectancy,2022.2.4,Win32,41.24561765,Chrome,1707,960,,,,,0,603,,,,,,,,,,,,,,,,,U,167,triangle,1,0,,,4,,,,,,,,,,,,,switch,number,numSwt,k,0.4387,vtsPrac,1,0,1,0,1,,,,,,,,,,,,,,,,,,,,,,,
295321,2022-10-06_17h37.36.974,vts_reward_expectancy,2022.2.4,Win32,41.24561765,Chrome,1707,960,,,,,0,603,,,,,,,,,,,,,,,,,S,146,circle,1,0,,,4,,,,,,,,,,,,,switch,letter,lettSwt,f,0.6191,vtsPrac,2,0,2,0,1,,,,,,,,,,,,,,,,,,,,,,,
295321,2022-10-06_17h37.36.974,vts_reward_expectancy,2022.2.4,Win32,41.24561765,Chrome,1707,960,,,,,0,603,,,,,,,,,,,,,,,,,Y,125,triangle,1,0,,,4,,,,,,,,,,,,,switch,number,numSwt,j,1.4412,vtsPrac,3,0,3,0,1,,,,,,,,,,,,,,,,,,,,,,,
295321,2022-10-06_17h37.36.974,vts_reward_expectancy,2022.2.4,Win32,41.24561765,Chrome,1707,960,,,,,0,603,,,,,,,,,,,,,,,,,W,174,circle,1,0,,,4,,,,,,,,,,,,,switch,letter,lettSwt,f,0.6905,vtsPrac,4,0,4,0,1,,,,,,,,,,,,,,,,,,,,,,,
295321,2022-10-06_17h37.36.974,vts_reward_expectancy,2022.2.4,Win32,41.24561765,Chrome,1707,960,,,,,0,603,,,,,,,,,,,,,,,,,U,167,triangle,1,0,,,4,,,,,,,,,,,,,switch,number,numSwt,k,0.4834,vtsPrac,5,0,5,0,1,,,,,,,,,,,,,,,,,,,,,,,
295321,2022-10-06_17h37.36.974,vts_reward_expectancy,2022.2.4,Win32,41.24561765,Chrome,1707,960,,,,,0,603,,,,,,,,,,,,,,,,,S,146,circle,1,0,,,4,,,,,,,,,,,,,switch,letter,lettSwt,f,1.4245,vtsPrac,6,0,6,0,1,,,,,,,,,,,,,,,,,,,,,,,
295321,2022-10-06_17h37.36.974,vts_reward_expectancy,2022.2.4,Win32,41.24561765,Chrome,1707,960,,,,,0,603,,,,,,,,,,,,,,,,,Y,125,hexagon,1,0,,,4,,,,,,,,,,,,,switch,number,numSwt,j,0.7767,vtsPrac,7,0,7,0,1,,,,,,,,,,,,,,,,,,,,,,,
295321,2022-10-06_17h37.36.974,vts_reward_expectancy,2022.2.4,Win32,41.24561765,Chrome,1707,960,,,,,0,603,,,,,,,,,,,,,,,,,H,160,triangle,1,0,,,4,,,,,,,,,,,,,switch,letter,lettSwt,d,2.1187,vtsPrac,8,0,8,0,1,,,,,,,,,,,,,,,,,,,,,,,
295321,2022-10-06_17h37.36.974,vts_reward_expectancy,2022.2.4,Win32,41.24561765,Chrome,1707,960,,,,,0,603,,,,,,,,,,,,,,,,,F,139,hexagon,1,0,,,4,,,,,,,,,,,,,switch,number,numSwt,j,1.5177,vtsPrac,9,0,9,0,1,,,,,,,,,,,,,,,,,,,,,,,
295321,2022-10-06_17h37.36.974,vts_reward_expectancy,2022.2.4,Win32,41.24561765,Chrome,1707,960,,,,,0,603,,,,,,,,,,,,,,,,,Y,167,hexagon,1,0,,,4,,,,,,,,,,,,,switch,letter,lettSwt,f,2.221,vtsPrac,10,0,10,0,1,,,,,,,,,,,,,,,,,,,,,,,
295321,2022-10-06_17h37.36.974,vts_reward_expectancy,2022.2.4,Win32,41.24561765,Chrome,1707,960,,,,,0,603,,,,,,,,,,,,,,,,,W,125,star,1,0,,,4,,,,,,,,,,,,,switch,number,numSwt,j,0.7276,vtsPrac,11,0,11,0,1,,,,,,,,,,,,,,,,,,,,,,,
295321,2022-10-06_17h37.36.974,vts_reward_expectancy,2022.2.4,Win32,41.24561765,Chrome,1707,960,,,,,0,603,,,,,,,,,,,,,,,,,H,181,triangle,0,0,,,4,,,,,,,,,,,,,switch,letter,NA,f,1.4185,vtsPrac,12,0,12,0,1,,,,,,,,,,,,,,,,,,,,,,,
295321,2022-10-06_17h37.36.974,vts_reward_expectancy,2022.2.4,Win32,41.24561765,Chrome,1707,960,,,,,0,603,,,,,,,,,,,,,,,,,Y,139,star,1,1,,,4,,,,,,,,,,,,,switch,number,numSwt,j,1.9027,vtsPrac,13,0,13,0,1,,,,,,,,,,,,,,,,,,,,,,,
295321,2022-10-06_17h37.36.974,vts_reward_expectancy,2022.2.4,Win32,41.24561765,Chrome,1707,960,,,,,0,603,,,,,,,,,,,,,,,,,F,174,circle,1,0,,,4,,,,,,,,,,,,,switch,letter,lettSwt,d,0.8023,vtsPrac,14,0,14,0,1,,,,,,,,,,,,,,,,,,,,,,,
295321,2022-10-06_17h37.36.974,vts_reward_expectancy,2022.2.4,Win32,41.24561765,Chrome,1707,960,,,,,0,603,,,,,,,,,,,,,,,,,W,125,star,1,0,,,4,,,,,,,,,,,,,switch,number,numSwt,j,1.4051,vtsPrac,15,0,15,0,1,,,,,,,,,,,,,,,,,,,,,,,
295321,2022-10-06_17h37.36.974,vts_reward_expectancy,2022.2.4,Win32,41.24561765,Chrome,1707,960,,,,,0,603,,,,,,,,,,,,,,,,,H,167,star,1,0,,,5,,,,,,,,,,,,,switch,letter,lettSwt,d,1.0821,vtsPrac,0,0,0,0,1,,,,,,,,,,,,,,,,,,,,,,,
295321,2022-10-06_17h37.36.974,vts_reward_expectancy,2022.2.4,Win32,41.24561765,Chrome,1707,960,,,,,0,603,,,,,,,,,,,,,,,,,D,139,circle,1,0,,,5,,,,,,,,,,,,,switch,number,numSwt,j,0.6433,vtsPrac,1,0,1,0,1,,,,,,,,,,,,,,,,,,,,,,,
295321,2022-10-06_17h37.36.974,vts_reward_expectancy,2022.2.4,Win32,41.24561765,Chrome,1707,960,,,,,0,603,,,,,,,,,,,,,,,,,B,125,star,1,0,,,5,,,,,,,,,,,,,switch,letter,lettSwt,d,0.6777,vtsPrac,2,0,2,0,1,,,,,,,,,,,,,,,,,,,,,,,
295321,2022-10-06_17h37.36.974,vts_reward_expectancy,2022.2.4,Win32,41.24561765,Chrome,1707,960,,,,,0,603,,,,,,,,,,,,,,,,,S,146,circle,1,0,,,5,,,,,,,,,,,,,switch,number,numSwt,j,1.4445,vtsPrac,3,0,3,0,1,,,,,,,,,,,,,,,,,,,,,,,
295321,2022-10-06_17h37.36.974,vts_reward_expectancy,2022.2.4,Win32,41.24561765,Chrome,1707,960,,,,,0,603,,,,,,,,,,,,,,,,,H,167,hexagon,1,0,,,5,,,,,,,,,,,,,switch,letter,lettSwt,d,1.1874,vtsPrac,4,0,4,0,1,,,,,,,,,,,,,,,,,,,,,,,
295321,2022-10-06_17h37.36.974,vts_reward_expectancy,2022.2.4,Win32,41.24561765,Chrome,1707,960,,,,,0,603,,,,,,,,,,,,,,,,,D,139,triangle,1,0,,,5,,,,,,,,,,,,,switch,number,numSwt,j,1.2419,vtsPrac,5,0,5,0,1,,,,,,,,,,,,,,,,,,,,,,,
295321,2022-10-06_17h37.36.974,vts_reward_expectancy,2022.2.4,Win32,41.24561765,Chrome,1707,960,,,,,0,603,,,,,,,,,,,,,,,,,B,125,star,1,0,,,5,,,,,,,,,,,,,switch,letter,lettSwt,d,1.351,vtsPrac,6,0,6,0,1,,,,,,,,,,,,,,,,,,,,,,,
295321,2022-10-06_17h37.36.974,vts_reward_expectancy,2022.2.4,Win32,41.24561765,Chrome,1707,960,,,,,0,603,,,,,,,,,,,,,,,,,S,146,hexagon,1,0,,,5,,,,,,,,,,,,,repeat,letter,lettRpt,f,2.2771,vtsPrac,7,0,7,0,1,,,,,,,,,,,,,,,,,,,,,,,
295321,2022-10-06_17h37.36.974,vts_reward_expectancy,2022.2.4,Win32,41.24561765,Chrome,1707,960,,,,,0,603,,,,,,,,,,,,,,,,,Y,167,circle,1,0,,,5,,,,,,,,,,,,,switch,number,numSwt,k,1.3995,vtsPrac,8,0,8,0,1,,,,,,,,,,,,,,,,,,,,,,,
295321,2022-10-06_17h37.36.974,vts_reward_expectancy,2022.2.4,Win32,41.24561765,Chrome,1707,960,,,,,0,603,,,,,,,,,,,,,,,,,D,181,triangle,1,0,,,5,,,,,,,,,,,,,switch,letter,lettSwt,d,2.0443,vtsPrac,9,0,9,0,1,,,,,,,,,,,,,,,,,,,,,,,
295321,2022-10-06_17h37.36.974,vts_reward_expectancy,2022.2.4,Win32,41.24561765,Chrome,1707,960,,,,,0,603,,,,,,,,,,,,,,,,,W,139,triangle,1,0,,,5,,,,,,,,,,,,,switch,number,numSwt,j,1.2751,vtsPrac,10,0,10,0,1,,,,,,,,,,,,,,,,,,,,,,,
295321,2022-10-06_17h37.36.974,vts_reward_expectancy,2022.2.4,Win32,41.24561765,Chrome,1707,960,,,,,0,603,,,,,,,,,,,,,,,,,H,146,star,1,0,,,5,,,,,,,,,,,,,switch,letter,lettSwt,d,0.7882,vtsPrac,11,0,11,0,1,,,,,,,,,,,,,,,,,,,,,,,
295321,2022-10-06_17h37.36.974,vts_reward_expectancy,2022.2.4,Win32,41.24561765,Chrome,1707,960,,,,,0,603,,,,,,,,,,,,,,,,,F,139,circle,1,0,,,5,,,,,,,,,,,,,switch,number,numSwt,j,1.5447,vtsPrac,12,0,12,0,1,,,,,,,,,,,,,,,,,,,,,,,
295321,2022-10-06_17h37.36.974,vts_reward_expectancy,2022.2.4,Win32,41.24561765,Chrome,1707,960,,,,,0,603,,,,,,,,,,,,,,,,,H,146,star,1,0,,,5,,,,,,,,,,,,,switch,letter,lettSwt,d,0.8855,vtsPrac,13,0,13,0,1,,,,,,,,,,,,,,,,,,,,,,,
295321,2022-10-06_17h37.36.974,vts_reward_expectancy,2022.2.4,Win32,41.24561765,Chrome,1707,960,,,,,0,603,,,,,,,,,,,,,,,,,S,160,circle,1,0,,,5,,,,,,,,,,,,,switch,number,numSwt,k,1.5895,vtsPrac,14,0,14,0,1,,,,,,,,,,,,,,,,,,,,,,,
295321,2022-10-06_17h37.36.974,vts_reward_expectancy,2022.2.4,Win32,41.24561765,Chrome,1707,960,,,,,0,603,,,,,,,,,,,,,,,,,Y,174,hexagon,1,0,,,5,,,,,,,,,,,,,switch,letter,lettSwt,f,1.8608,vtsPrac,15,0,15,0,1,,,,,,,,,,,,,,,,,,,,,,,
295321,2022-10-06_17h37.36.974,vts_reward_expectancy,2022.2.4,Win32,41.24561765,Chrome,1707,960,,,,,,,,,,,,,,,,,,,,,,,,,,,,,,,,,,,,,,,,,,,,,,,,,,,,,,,,,,,,,,,,,,,,,,,,,,,,
295321,2022-10-06_17h37.36.974,vts_reward_expectancy,2022.2.4,Win32,41.24561765,Chrome,1707,960,,,,,,,,,,,,,,,,,,,,,,,,,,,,,,,,,,,,,,,,,,,,,,,,,,,,,,,,,,,,,,,,,,,,,,,,,,,,
295321,2022-10-06_17h37.36.974,vts_reward_expectancy,2022.2.4,Win32,41.24561765,Chrome,1707,960,,,,,0,603,,,,,,,,,,,,,,,,,Y,181,hexagon,1,0,,,,,,,,,,,,,,,,repeat,letter,lettRpt,f,0.8517,noRew,,,,,,0,0,0,0,0,1,,,,,,,,,,,,,,,,,
295321,2022-10-06_17h37.36.974,vts_reward_expectancy,2022.2.4,Win32,41.24561765,Chrome,1707,960,,,,,0,603,,,,,,,,,,,,,,,,,D,167,star,1,0,,,,,,,,,,,,,,,,switch,number,numSwt,k,1.229,noRew,,,,,,0,1,0,1,0,1,,,,,,,,,,,,,,,,,
295321,2022-10-06_17h37.36.974,vts_reward_expectancy,2022.2.4,Win32,41.24561765,Chrome,1707,960,,,,,0,603,,,,,,,,,,,,,,,,,B,125,hexagon,1,0,,,,,,,,,,,,,,,,switch,letter,lettSwt,d,0.7021,noRew,,,,,,0,2,0,2,0,1,,,,,,,,,,,,,,,,,
295321,2022-10-06_17h37.36.974,vts_reward_expectancy,2022.2.4,Win32,41.24561765,Chrome,1707,960,,,,,0,603,,,,,,,,,,,,,,,,,S,146,star,1,0,,,,,,,,,,,,,,,,switch,number,numSwt,j,0.6758,noRew,,,,,,0,3,0,3,0,1,,,,,,,,,,,,,,,,,
295321,2022-10-06_17h37.36.974,vts_reward_expectancy,2022.2.4,Win32,41.24561765,Chrome,1707,960,,,,,0,603,,,,,,,,,,,,,,,,,Y,181,star,1,0,,,,,,,,,,,,,,,,switch,letter,lettSwt,f,0.7661,noRew,,,,,,0,4,0,4,0,1,,,,,,,,,,,,,,,,,
295321,2022-10-06_17h37.36.974,vts_reward_expectancy,2022.2.4,Win32,41.24561765,Chrome,1707,960,,,,,0,603,,,,,,,,,,,,,,,,,D,167,circle,1,0,,,,,,,,,,,,,,,,switch,number,numSwt,k,0.9031,noRew,,,,,,0,5,0,5,0,1,,,,,,,,,,,,,,,,,
295321,2022-10-06_17h37.36.974,vts_reward_expectancy,2022.2.4,Win32,41.24561765,Chrome,1707,960,,,,,0,603,,,,,,,,,,,,,,,,,B,125,triangle,1,0,,,,,,,,,,,,,,,,switch,letter,lettSwt,d,0.535,noRew,,,,,,0,6,0,6,0,1,,,,,,,,,,,,,,,,,
295321,2022-10-06_17h37.36.974,vts_reward_expectancy,2022.2.4,Win32,41.24561765,Chrome,1707,960,,,,,0,603,,,,,,,,,,,,,,,,,S,146,star,1,0,,,,,,,,,,,,,,,,switch,number,numSwt,j,0.9633,noRew,,,,,,0,7,0,7,0,1,,,,,,,,,,,,,,,,,
295321,2022-10-06_17h37.36.974,vts_reward_expectancy,2022.2.4,Win32,41.24561765,Chrome,1707,960,,,,,0,603,,,,,,,,,,,,,,,,,H,174,star,1,0,,,,,,,,,,,,,,,,switch,letter,lettSwt,d,1.0642,noRew,,,,,,0,8,0,8,0,1,,,,,,,,,,,,,,,,,
295321,2022-10-06_17h37.36.974,vts_reward_expectancy,2022.2.4,Win32,41.24561765,Chrome,1707,960,,,,,0,603,,,,,,,,,,,,,,,,,W,181,hexagon,1,0,,,,,,,,,,,,,,,,switch,number,numSwt,k,1.6596,noRew,,,,,,0,9,0,9,0,1,,,,,,,,,,,,,,,,,
295321,2022-10-06_17h37.36.974,vts_reward_expectancy,2022.2.4,Win32,41.24561765,Chrome,1707,960,,,,,0,603,,,,,,,,,,,,,,,,,S,160,hexagon,1,0,,,,,,,,,,,,,,,,switch,letter,lettSwt,f,1.5559,noRew,,,,,,0,10,0,10,0,1,,,,,,,,,,,,,,,,,
295321,2022-10-06_17h37.36.974,vts_reward_expectancy,2022.2.4,Win32,41.24561765,Chrome,1707,960,,,,,0,603,,,,,,,,,,,,,,,,,Y,132,circle,1,0,,,,,,,,,,,,,,,,switch,number,numSwt,j,1.5708,noRew,,,,,,0,11,0,11,0,1,,,,,,,,,,,,,,,,,
295321,2022-10-06_17h37.36.974,vts_reward_expectancy,2022.2.4,Win32,41.24561765,Chrome,1707,960,,,,,0,603,,,,,,,,,,,,,,,,,D,160,circle,1,0,,,,,,,,,,,,,,,,switch,letter,lettSwt,d,1.0598,noRew,,,,,,0,12,0,12,0,1,,,,,,,,,,,,,,,,,
295321,2022-10-06_17h37.36.974,vts_reward_expectancy,2022.2.4,Win32,41.24561765,Chrome,1707,960,,,,,0,603,,,,,,,,,,,,,,,,,S,139,star,1,0,,,,,,,,,,,,,,,,switch,number,numSwt,j,0.8479,noRew,,,,,,0,13,0,13,0,1,,,,,,,,,,,,,,,,,
295321,2022-10-06_17h37.36.974,vts_reward_expectancy,2022.2.4,Win32,41.24561765,Chrome,1707,960,,,,,0,603,,,,,,,,,,,,,,,,,F,181,star,1,0,,,,,,,,,,,,,,,,switch,letter,lettSwt,d,1.1387,noRew,,,,,,0,14,0,14,0,1,,,,,,,,,,,,,,,,,
295321,2022-10-06_17h37.36.974,vts_reward_expectancy,2022.2.4,Win32,41.24561765,Chrome,1707,960,,,,,0,603,,,,,,,,,,,,,,,,,Y,132,circle,1,0,,,,,,,,,,,,,,,,switch,number,numSwt,j,1.0231,noRew,,,,,,0,15,0,15,0,1,,,,,,,,,,,,,,,,,
295321,2022-10-06_17h37.36.974,vts_reward_expectancy,2022.2.4,Win32,41.24561765,Chrome,1707,960,,,,,0,603,,,,,,,,,,,,,,,,,H,132,star,1,0,,,,,,,,,,,,,,,,switch,letter,lettSwt,d,1.6132,noRew,,,,,,0,16,0,16,0,1,,,,,,,,,,,,,,,,,
295321,2022-10-06_17h37.36.974,vts_reward_expectancy,2022.2.4,Win32,41.24561765,Chrome,1707,960,,,,,0,603,,,,,,,,,,,,,,,,,U,160,circle,1,0,,,,,,,,,,,,,,,,switch,number,numSwt,k,1.1556,noRew,,,,,,0,17,0,17,0,1,,,,,,,,,,,,,,,,,
295321,2022-10-06_17h37.36.974,vts_reward_expectancy,2022.2.4,Win32,41.24561765,Chrome,1707,960,,,,,0,603,,,,,,,,,,,,,,,,,Y,174,circle,1,0,,,,,,,,,,,,,,,,switch,letter,lettSwt,f,0.6058,noRew,,,,,,0,18,0,18,0,1,,,,,,,,,,,,,,,,,
295321,2022-10-06_17h37.36.974,vts_reward_expectancy,2022.2.4,Win32,41.24561765,Chrome,1707,960,,,,,0,603,,,,,,,,,,,,,,,,,B,125,star,1,0,,,,,,,,,,,,,,,,switch,number,numSwt,j,0.5339,noRew,,,,,,0,19,0,19,0,1,,,,,,,,,,,,,,,,,
295321,2022-10-06_17h37.36.974,vts_reward_expectancy,2022.2.4,Win32,41.24561765,Chrome,1707,960,,,,,0,603,,,,,,,,,,,,,,,,,W,160,triangle,1,0,,,,,,,,,,,,,,,,switch,letter,lettSwt,f,0.7323,noRew,,,,,,0,20,0,20,0,1,,,,,,,,,,,,,,,,,
295321,2022-10-06_17h37.36.974,vts_reward_expectancy,2022.2.4,Win32,41.24561765,Chrome,1707,960,,,,,0,603,,,,,,,,,,,,,,,,,S,146,star,1,0,,,,,,,,,,,,,,,,switch,number,numSwt,j,1.4456,noRew,,,,,,0,21,0,21,0,1,,,,,,,,,,,,,,,,,
295321,2022-10-06_17h37.36.974,vts_reward_expectancy,2022.2.4,Win32,41.24561765,Chrome,1707,960,,,,,0,603,,,,,,,,,,,,,,,,,F,174,hexagon,1,0,,,,,,,,,,,,,,,,switch,letter,lettSwt,d,0.9361,noRew,,,,,,0,22,0,22,0,1,,,,,,,,,,,,,,,,,
295321,2022-10-06_17h37.36.974,vts_reward_expectancy,2022.2.4,Win32,41.24561765,Chrome,1707,960,,,,,0,603,,,,,,,,,,,,,,,,,H,181,circle,1,0,,,,,,,,,,,,,,,,switch,number,numSwt,k,1.2865,noRew,,,,,,0,23,0,23,0,1,,,,,,,,,,,,,,,,,
295321,2022-10-06_17h37.36.974,vts_reward_expectancy,2022.2.4,Win32,41.24561765,Chrome,1707,960,,,,,0,603,,,,,,,,,,,,,,,,,D,146,circle,1,0,,,,,,,,,,,,,,,,switch,letter,lettSwt,d,0.9853,noRew,,,,,,0,24,0,24,0,1,,,,,,,,,,,,,,,,,
295321,2022-10-06_17h37.36.974,vts_reward_expectancy,2022.2.4,Win32,41.24561765,Chrome,1707,960,,,,,0,603,,,,,,,,,,,,,,,,,F,160,star,1,0,,,,,,,,,,,,,,,,switch,number,numSwt,k,2.009,noRew,,,,,,0,25,0,25,0,1,,,,,,,,,,,,,,,,,
295321,2022-10-06_17h37.36.974,vts_reward_expectancy,2022.2.4,Win32,41.24561765,Chrome,1707,960,,,,,0,603,,,,,,,,,,,,,,,,,S,181,hexagon,1,0,,,,,,,,,,,,,,,,switch,letter,lettSwt,f,1.3617,noRew,,,,,,0,26,0,26,0,1,,,,,,,,,,,,,,,,,
295321,2022-10-06_17h37.36.974,vts_reward_expectancy,2022.2.4,Win32,41.24561765,Chrome,1707,960,,,,,0,603,,,,,,,,,,,,,,,,,W,167,star,1,0,,,,,,,,,,,,,,,,switch,number,numSwt,k,1.1725,noRew,,,,,,0,27,0,27,0,1,,,,,,,,,,,,,,,,,
295321,2022-10-06_17h37.36.974,vts_reward_expectancy,2022.2.4,Win32,41.24561765,Chrome,1707,960,,,,,0,603,,,,,,,,,,,,,,,,,D,181,star,1,0,,,,,,,,,,,,,,,,switch,letter,lettSwt,d,0.7945,noRew,,,,,,0,28,0,28,0,1,,,,,,,,,,,,,,,,,
295321,2022-10-06_17h37.36.974,vts_reward_expectancy,2022.2.4,Win32,41.24561765,Chrome,1707,960,,,,,0,603,,,,,,,,,,,,,,,,,H,132,triangle,1,0,,,,,,,,,,,,,,,,switch,number,numSwt,j,1.0914,noRew,,,,,,0,29,0,29,0,1,,,,,,,,,,,,,,,,,
295321,2022-10-06_17h37.36.974,vts_reward_expectancy,2022.2.4,Win32,41.24561765,Chrome,1707,960,,,,,0,603,,,,,,,,,,,,,,,,,Y,125,star,1,0,,,,,,,,,,,,,,,,switch,letter,lettSwt,f,1.1525,noRew,,,,,,0,30,0,30,0,1,,,,,,,,,,,,,,,,,
295321,2022-10-06_17h37.36.974,vts_reward_expectancy,2022.2.4,Win32,41.24561765,Chrome,1707,960,,,,,0,603,,,,,,,,,,,,,,,,,S,160,hexagon,1,0,,,,,,,,,,,,,,,,switch,number,numSwt,k,1.7821,noRew,,,,,,0,31,0,31,0,1,,,,,,,,,,,,,,,,,
295321,2022-10-06_17h37.36.974,vts_reward_expectancy,2022.2.4,Win32,41.24561765,Chrome,1707,960,,,,,0,603,,,,,,,,,,,,,,,,,B,139,hexagon,1,0,,,,,,,,,,,,,,,,switch,letter,lettSwt,d,1.9636,noRew,,,,,,0,32,0,32,0,1,,,,,,,,,,,,,,,,,
295321,2022-10-06_17h37.36.974,vts_reward_expectancy,2022.2.4,Win32,41.24561765,Chrome,1707,960,,,,,0,603,,,,,,,,,,,,,,,,,D,174,star,1,0,,,,,,,,,,,,,,,,switch,number,numSwt,k,1.1527,noRew,,,,,,0,33,0,33,0,1,,,,,,,,,,,,,,,,,
295321,2022-10-06_17h37.36.974,vts_reward_expectancy,2022.2.4,Win32,41.24561765,Chrome,1707,960,,,,,0,603,,,,,,,,,,,,,,,,,S,125,hexagon,1,0,,,,,,,,,,,,,,,,switch,letter,lettSwt,f,0.6724,noRew,,,,,,0,34,0,34,0,1,,,,,,,,,,,,,,,,,
295321,2022-10-06_17h37.36.974,vts_reward_expectancy,2022.2.4,Win32,41.24561765,Chrome,1707,960,,,,,0,603,,,,,,,,,,,,,,,,,H,167,star,1,0,,,,,,,,,,,,,,,,switch,number,numSwt,k,1.0189,noRew,,,,,,0,35,0,35,0,1,,,,,,,,,,,,,,,,,
295321,2022-10-06_17h37.36.974,vts_reward_expectancy,2022.2.4,Win32,41.24561765,Chrome,1707,960,,,,,0,603,,,,,,,,,,,,,,,,,U,181,hexagon,1,0,,,,,,,,,,,,,,,,switch,letter,lettSwt,f,0.8825,noRew,,,,,,0,36,0,36,0,1,,,,,,,,,,,,,,,,,
295321,2022-10-06_17h37.36.974,vts_reward_expectancy,2022.2.4,Win32,41.24561765,Chrome,1707,960,,,,,0,603,,,,,,,,,,,,,,,,,H,125,circle,1,0,,,,,,,,,,,,,,,,switch,number,numSwt,j,0.6608,noRew,,,,,,0,37,0,37,0,1,,,,,,,,,,,,,,,,,
295321,2022-10-06_17h37.36.974,vts_reward_expectancy,2022.2.4,Win32,41.24561765,Chrome,1707,960,,,,,0,603,,,,,,,,,,,,,,,,,W,146,circle,1,0,,,,,,,,,,,,,,,,switch,letter,lettSwt,f,0.8276,noRew,,,,,,0,38,0,38,0,1,,,,,,,,,,,,,,,,,
295321,2022-10-06_17h37.36.974,vts_reward_expectancy,2022.2.4,Win32,41.24561765,Chrome,1707,960,,,,,0,603,,,,,,,,,,,,,,,,,F,139,star,1,0,,,,,,,,,,,,,,,,switch,number,numSwt,j,0.6804,noRew,,,,,,0,39,0,39,0,1,,,,,,,,,,,,,,,,,
295321,2022-10-06_17h37.36.974,vts_reward_expectancy,2022.2.4,Win32,41.24561765,Chrome,1707,960,,,,,0,603,,,,,,,,,,,,,,,,,Y,125,star,1,0,,,,,,,,,,,,,,,,switch,letter,lettSwt,f,0.982,noRew,,,,,,0,40,0,40,0,1,,,,,,,,,,,,,,,,,
295321,2022-10-06_17h37.36.974,vts_reward_expectancy,2022.2.4,Win32,41.24561765,Chrome,1707,960,,,,,0,603,,,,,,,,,,,,,,,,,B,167,triangle,1,0,,,,,,,,,,,,,,,,switch,number,numSwt,k,0.9175,noRew,,,,,,0,41,0,41,0,1,,,,,,,,,,,,,,,,,
295321,2022-10-06_17h37.36.974,vts_reward_expectancy,2022.2.4,Win32,41.24561765,Chrome,1707,960,,,,,0,603,,,,,,,,,,,,,,,,,H,160,star,0,0,,,,,,,,,,,,,,,,switch,letter,NA,f,0.6132,noRew,,,,,,0,42,0,42,0,1,,,,,,,,,,,,,,,,,
295321,2022-10-06_17h37.36.974,vts_reward_expectancy,2022.2.4,Win32,41.24561765,Chrome,1707,960,,,,,0,603,,,,,,,,,,,,,,,,,S,132,hexagon,1,1,,,,,,,,,,,,,,,,switch,number,numSwt,j,0.9999,noRew,,,,,,0,43,0,43,0,1,,,,,,,,,,,,,,,,,
295321,2022-10-06_17h37.36.974,vts_reward_expectancy,2022.2.4,Win32,41.24561765,Chrome,1707,960,,,,,0,603,,,,,,,,,,,,,,,,,W,146,triangle,1,0,,,,,,,,,,,,,,,,switch,letter,lettSwt,f,0.6165,noRew,,,,,,0,44,0,44,0,1,,,,,,,,,,,,,,,,,
295321,2022-10-06_17h37.36.974,vts_reward_expectancy,2022.2.4,Win32,41.24561765,Chrome,1707,960,,,,,0,603,,,,,,,,,,,,,,,,,D,174,star,1,0,,,,,,,,,,,,,,,,switch,number,numSwt,k,1.8491,noRew,,,,,,0,45,0,45,0,1,,,,,,,,,,,,,,,,,
295321,2022-10-06_17h37.36.974,vts_reward_expectancy,2022.2.4,Win32,41.24561765,Chrome,1707,960,,,,,0,603,,,,,,,,,,,,,,,,,B,167,star,1,0,,,,,,,,,,,,,,,,switch,letter,lettSwt,d,2.8303,noRew,,,,,,0,46,0,46,0,1,,,,,,,,,,,,,,,,,
295321,2022-10-06_17h37.36.974,vts_reward_expectancy,2022.2.4,Win32,41.24561765,Chrome,1707,960,,,,,0,603,,,,,,,,,,,,,,,,,F,139,circle,1,0,,,,,,,,,,,,,,,,switch,number,numSwt,j,2.8353,noRew,,,,,,0,47,0,47,0,1,,,,,,,,,,,,,,,,,
295321,2022-10-06_17h37.36.974,vts_reward_expectancy,2022.2.4,Win32,41.24561765,Chrome,1707,960,,,,,0,603,,,,,,,,,,,,,,,,,D,125,triangle,1,0,,,,,,,,,,,,,,,,switch,letter,lettSwt,d,0.7934,noRew,,,,,,0,48,0,48,0,1,,,,,,,,,,,,,,,,,
295321,2022-10-06_17h37.36.974,vts_reward_expectancy,2022.2.4,Win32,41.24561765,Chrome,1707,960,,,,,0,603,,,,,,,,,,,,,,,,,F,146,star,1,0,,,,,,,,,,,,,,,,switch,number,numSwt,j,1.458,noRew,,,,,,0,49,0,49,0,1,,,,,,,,,,,,,,,,,
295321,2022-10-06_17h37.36.974,vts_reward_expectancy,2022.2.4,Win32,41.24561765,Chrome,1707,960,,,,,0,603,,,,,,,,,,,,,,,,,S,181,triangle,1,0,,,,,,,,,,,,,,,,switch,letter,lettSwt,f,2.2573,noRew,,,,,,0,50,0,50,0,1,,,,,,,,,,,,,,,,,
295321,2022-10-06_17h37.36.974,vts_reward_expectancy,2022.2.4,Win32,41.24561765,Chrome,1707,960,,,,,0,603,,,,,,,,,,,,,,,,,B,174,circle,-1,0,,,,,,,,,,,,,,,,switch,no_choice,NA,,,noRew,,,,,,0,51,0,51,0,1,,,,,,,,,,,,,,,,,
295321,2022-10-06_17h37.36.974,vts_reward_expectancy,2022.2.4,Win32,41.24561765,Chrome,1707,960,,,,,0,603,,,,,,,,,,,,,,,,,W,167,hexagon,1,0,,,,,,,,,,,,,,,,switch,letter,lettSwt,f,1.1858,noRew,,,,,,0,52,0,52,0,1,,,,,,,,,,,,,,,,,
295321,2022-10-06_17h37.36.974,vts_reward_expectancy,2022.2.4,Win32,41.24561765,Chrome,1707,960,,,,,0,603,,,,,,,,,,,,,,,,,D,160,circle,1,0,,,,,,,,,,,,,,,,switch,number,numSwt,k,1.3814,noRew,,,,,,0,53,0,53,0,1,,,,,,,,,,,,,,,,,
295321,2022-10-06_17h37.36.974,vts_reward_expectancy,2022.2.4,Win32,41.24561765,Chrome,1707,960,,,,,0,603,,,,,,,,,,,,,,,,,F,125,star,1,0,,,,,,,,,,,,,,,,switch,letter,lettSwt,d,0.7446,noRew,,,,,,0,54,0,54,0,1,,,,,,,,,,,,,,,,,
295321,2022-10-06_17h37.36.974,vts_reward_expectancy,2022.2.4,Win32,41.24561765,Chrome,1707,960,,,,,0,603,,,,,,,,,,,,,,,,,H,181,triangle,1,0,,,,,,,,,,,,,,,,switch,number,numSwt,k,0.9443,noRew,,,,,,0,55,0,55,0,1,,,,,,,,,,,,,,,,,
295321,2022-10-06_17h37.36.974,vts_reward_expectancy,2022.2.4,Win32,41.24561765,Chrome,1707,960,,,,,0,603,,,,,,,,,,,,,,,,,B,125,star,1,0,,,,,,,,,,,,,,,,switch,letter,lettSwt,d,1.3915,noRew,,,,,,0,56,0,56,0,1,,,,,,,,,,,,,,,,,
295321,2022-10-06_17h37.36.974,vts_reward_expectancy,2022.2.4,Win32,41.24561765,Chrome,1707,960,,,,,0,603,,,,,,,,,,,,,,,,,D,181,hexagon,1,0,,,,,,,,,,,,,,,,switch,number,numSwt,k,2.4333,noRew,,,,,,0,57,0,57,0,1,,,,,,,,,,,,,,,,,
295321,2022-10-06_17h37.36.974,vts_reward_expectancy,2022.2.4,Win32,41.24561765,Chrome,1707,960,,,,,0,603,,,,,,,,,,,,,,,,,U,146,star,1,0,,,,,,,,,,,,,,,,switch,letter,lettSwt,f,0.9702,noRew,,,,,,0,58,0,58,0,1,,,,,,,,,,,,,,,,,
295321,2022-10-06_17h37.36.974,vts_reward_expectancy,2022.2.4,Win32,41.24561765,Chrome,1707,960,,,,,0,603,,,,,,,,,,,,,,,,,W,132,triangle,1,0,,,,,,,,,,,,,,,,switch,number,numSwt,j,2.7847,noRew,,,,,,0,59,0,59,0,1,,,,,,,,,,,,,,,,,
295321,2022-10-06_17h37.36.974,vts_reward_expectancy,2022.2.4,Win32,41.24561765,Chrome,1707,960,,,,,0,603,,,,,,,,,,,,,,,,,B,167,circle,1,0,,,,,,,,,,,,,,,,switch,letter,lettSwt,d,0.5687,noRew,,,,,,0,60,0,60,0,1,,,,,,,,,,,,,,,,,
295321,2022-10-06_17h37.36.974,vts_reward_expectancy,2022.2.4,Win32,41.24561765,Chrome,1707,960,,,,,0,603,,,,,,,,,,,,,,,,,S,160,triangle,1,0,,,,,,,,,,,,,,,,switch,number,numSwt,k,2.8194,noRew,,,,,,0,61,0,61,0,1,,,,,,,,,,,,,,,,,
295321,2022-10-06_17h37.36.974,vts_reward_expectancy,2022.2.4,Win32,41.24561765,Chrome,1707,960,,,,,0,603,,,,,,,,,,,,,,,,,H,139,triangle,1,0,,,,,,,,,,,,,,,,switch,letter,lettSwt,d,1.1044,noRew,,,,,,0,62,0,62,0,1,,,,,,,,,,,,,,,,,
295321,2022-10-06_17h37.36.974,vts_reward_expectancy,2022.2.4,Win32,41.24561765,Chrome,1707,960,,,,,0,603,,,,,,,,,,,,,,,,,U,181,hexagon,1,0,,,,,,,,,,,,,,,,switch,number,numSwt,k,1.2672,noRew,,,,,,0,63,0,63,0,1,,,,,,,,,,,,,,,,,
295321,2022-10-06_17h37.36.974,vts_reward_expectancy,2022.2.4,Win32,41.24561765,Chrome,1707,960,,,,,,,,,,,,,,,,,,,,,,,,,,,,,,,,,,,,,,,,,,,,,,,,,,,,,,,,,,,,,,,,,,,,,,,,,,,,
295321,2022-10-06_17h37.36.974,vts_reward_expectancy,2022.2.4,Win32,41.24561765,Chrome,1707,960,,,,,10,613,,,,,,,,,,,,,,,,,D,160,star,1,0,,,,,,,,,,,,,,,,switch,letter,lettSwt,d,0.7622,Lo,,,,,,0,,,,,,space,4.26,high,0,0,0,0,1,,,,,,,,,
295321,2022-10-06_17h37.36.974,vts_reward_expectancy,2022.2.4,Win32,41.24561765,Chrome,1707,960,,,,,10,623,,,,,,,,,,,,,,,,,W,167,triangle,1,0,,,,,,,,,,,,,,,,switch,number,numSwt,k,0.5196,Hi,,,,,,0,,,,,,,,high,1,0,1,0,1,,,,,,,,,
295321,2022-10-06_17h37.36.974,vts_reward_expectancy,2022.2.4,Win32,41.24561765,Chrome,1707,960,,,,,1,624,,,,,,,,,,,,,,,,,B,139,star,1,0,,,,,,,,,,,,,,,,switch,letter,lettSwt,d,0.5149,Lo,,,,,,0,,,,,,,,high,2,0,2,0,1,,,,,,,,,
295321,2022-10-06_17h37.36.974,vts_reward_expectancy,2022.2.4,Win32,41.24561765,Chrome,1707,960,,,,,10,634,,,,,,,,,,,,,,,,,F,132,triangle,1,0,,,,,,,,,,,,,,,,switch,number,numSwt,j,1.0017,Hi,,,,,,0,,,,,,,,high,3,0,3,0,1,,,,,,,,,
295321,2022-10-06_17h37.36.974,vts_reward_expectancy,2022.2.4,Win32,41.24561765,Chrome,1707,960,,,,,10,644,,,,,,,,,,,,,,,,,S,125,star,1,0,,,,,,,,,,,,,,,,switch,letter,lettSwt,f,1.1813,Lo,,,,,,0,,,,,,,,high,4,0,4,0,1,,,,,,,,,
295321,2022-10-06_17h37.36.974,vts_reward_expectancy,2022.2.4,Win32,41.24561765,Chrome,1707,960,,,,,10,654,,,,,,,,,,,,,,,,,H,181,triangle,1,0,,,,,,,,,,,,,,,,switch,number,numSwt,k,0.8478,Hi,,,,,,0,,,,,,,,high,5,0,5,0,1,,,,,,,,,
295321,2022-10-06_17h37.36.974,vts_reward_expectancy,2022.2.4,Win32,41.24561765,Chrome,1707,960,,,,,0,654,,,,,,,,,,,,,,,,,Y,146,triangle,1,0,,,,,,,,,,,,,,,,switch,letter,lettSwt,f,1.1426,Hi,,,,,,0,,,,,,,,high,6,0,6,0,1,,,,,,,,,
295321,2022-10-06_17h37.36.974,vts_reward_expectancy,2022.2.4,Win32,41.24561765,Chrome,1707,960,,,,,1,655,,,,,,,,,,,,,,,,,U,174,star,1,0,,,,,,,,,,,,,,,,switch,number,numSwt,k,0.8046,Lo,,,,,,0,,,,,,,,high,7,0,7,0,1,,,,,,,,,
295321,2022-10-06_17h37.36.974,vts_reward_expectancy,2022.2.4,Win32,41.24561765,Chrome,1707,960,,,,,1,656,,,,,,,,,,,,,,,,,D,160,star,1,0,,,,,,,,,,,,,,,,switch,letter,lettSwt,d,0.5275,Lo,,,,,,0,,,,,,,,high,8,0,8,0,1,,,,,,,,,
295321,2022-10-06_17h37.36.974,vts_reward_expectancy,2022.2.4,Win32,41.24561765,Chrome,1707,960,,,,,0,656,,,,,,,,,,,,,,,,,W,167,triangle,1,0,,,,,,,,,,,,,,,,switch,number,numSwt,k,1.0298,Hi,,,,,,0,,,,,,,,high,9,0,9,0,1,,,,,,,,,
295321,2022-10-06_17h37.36.974,vts_reward_expectancy,2022.2.4,Win32,41.24561765,Chrome,1707,960,,,,,10,666,,,,,,,,,,,,,,,,,B,139,triangle,1,0,,,,,,,,,,,,,,,,switch,letter,lettSwt,d,0.5251,Hi,,,,,,0,,,,,,,,high,10,0,10,0,1,,,,,,,,,
295321,2022-10-06_17h37.36.974,vts_reward_expectancy,2022.2.4,Win32,41.24561765,Chrome,1707,960,,,,,1,667,,,,,,,,,,,,,,,,,F,132,star,1,0,,,,,,,,,,,,,,,,switch,number,numSwt,j,0.5222,Lo,,,,,,0,,,,,,,,high,11,0,11,0,1,,,,,,,,,
295321,2022-10-06_17h37.36.974,vts_reward_expectancy,2022.2.4,Win32,41.24561765,Chrome,1707,960,,,,,1,668,,,,,,,,,,,,,,,,,S,125,star,1,0,,,,,,,,,,,,,,,,switch,letter,lettSwt,f,0.4983,Lo,,,,,,0,,,,,,,,high,12,0,12,0,1,,,,,,,,,
295321,2022-10-06_17h37.36.974,vts_reward_expectancy,2022.2.4,Win32,41.24561765,Chrome,1707,960,,,,,0,668,,,,,,,,,,,,,,,,,H,181,triangle,1,0,,,,,,,,,,,,,,,,switch,number,numSwt,k,1.1509,Hi,,,,,,0,,,,,,,,high,13,0,13,0,1,,,,,,,,,
295321,2022-10-06_17h37.36.974,vts_reward_expectancy,2022.2.4,Win32,41.24561765,Chrome,1707,960,,,,,1,669,,,,,,,,,,,,,,,,,Y,146,star,1,0,,,,,,,,,,,,,,,,switch,letter,lettSwt,f,0.4546,Lo,,,,,,0,,,,,,,,high,14,0,14,0,1,,,,,,,,,
295321,2022-10-06_17h37.36.974,vts_reward_expectancy,2022.2.4,Win32,41.24561765,Chrome,1707,960,,,,,1,670,,,,,,,,,,,,,,,,,U,174,triangle,1,0,,,,,,,,,,,,,,,,switch,number,numSwt,k,0.6141,Hi,,,,,,0,,,,,,,,high,15,0,15,0,1,,,,,,,,,
295321,2022-10-06_17h37.36.974,vts_reward_expectancy,2022.2.4,Win32,41.24561765,Chrome,1707,960,,,,,1,671,,,,,,,,,,,,,,,,,H,125,star,1,0,,,,,,,,,,,,,,,,switch,letter,lettSwt,d,0.6702,Lo,,,,,,0,,,,,,,,high,16,0,16,0,1,,,,,,,,,
295321,2022-10-06_17h37.36.974,vts_reward_expectancy,2022.2.4,Win32,41.24561765,Chrome,1707,960,,,,,0,671,,,,,,,,,,,,,,,,,S,146,triangle,1,0,,,,,,,,,,,,,,,,switch,number,numSwt,j,1.3794,Hi,,,,,,0,,,,,,,,high,17,0,17,0,1,,,,,,,,,
295321,2022-10-06_17h37.36.974,vts_reward_expectancy,2022.2.4,Win32,41.24561765,Chrome,1707,960,,,,,10,681,,,,,,,,,,,,,,,,,F,160,triangle,1,0,,,,,,,,,,,,,,,,switch,letter,lettSwt,d,0.7241,Hi,,,,,,0,,,,,,,,high,18,0,18,0,1,,,,,,,,,
295321,2022-10-06_17h37.36.974,vts_reward_expectancy,2022.2.4,Win32,41.24561765,Chrome,1707,960,,,,,1,682,,,,,,,,,,,,,,,,,Y,139,star,1,0,,,,,,,,,,,,,,,,switch,number,numSwt,j,0.491,Lo,,,,,,0,,,,,,,,high,19,0,19,0,1,,,,,,,,,
295321,2022-10-06_17h37.36.974,vts_reward_expectancy,2022.2.4,Win32,41.24561765,Chrome,1707,960,,,,,1,683,,,,,,,,,,,,,,,,,W,181,star,1,0,,,,,,,,,,,,,,,,switch,letter,lettSwt,f,0.6096,Lo,,,,,,0,,,,,,,,high,20,0,20,0,1,,,,,,,,,
295321,2022-10-06_17h37.36.974,vts_reward_expectancy,2022.2.4,Win32,41.24561765,Chrome,1707,960,,,,,10,693,,,,,,,,,,,,,,,,,D,167,triangle,1,0,,,,,,,,,,,,,,,,switch,number,numSwt,k,0.8892,Hi,,,,,,0,,,,,,,,high,21,0,21,0,1,,,,,,,,,
295321,2022-10-06_17h37.36.974,vts_reward_expectancy,2022.2.4,Win32,41.24561765,Chrome,1707,960,,,,,0,693,,,,,,,,,,,,,,,,,U,132,triangle,1,0,,,,,,,,,,,,,,,,switch,letter,lettSwt,f,0.8625,Hi,,,,,,0,,,,,,,,high,22,0,22,0,1,,,,,,,,,
295321,2022-10-06_17h37.36.974,vts_reward_expectancy,2022.2.4,Win32,41.24561765,Chrome,1707,960,,,,,1,694,,,,,,,,,,,,,,,,,B,174,star,1,0,,,,,,,,,,,,,,,,switch,number,numSwt,k,0.7441,Lo,,,,,,0,,,,,,,,high,23,0,23,0,1,,,,,,,,,
295321,2022-10-06_17h37.36.974,vts_reward_expectancy,2022.2.4,Win32,41.24561765,Chrome,1707,960,,,,,10,704,,,,,,,,,,,,,,,,,S,160,triangle,1,0,,,,,,,,,,,,,,,,switch,letter,lettSwt,f,0.5328,Hi,,,,,,0,,,,,,,,high,24,0,24,0,1,,,,,,,,,
295321,2022-10-06_17h37.36.974,vts_reward_expectancy,2022.2.4,Win32,41.24561765,Chrome,1707,960,,,,,1,705,,,,,,,,,,,,,,,,,F,139,star,1,0,,,,,,,,,,,,,,,,switch,number,numSwt,j,1.1353,Lo,,,,,,0,,,,,,,,high,25,0,25,0,1,,,,,,,,,
295321,2022-10-06_17h37.36.974,vts_reward_expectancy,2022.2.4,Win32,41.24561765,Chrome,1707,960,,,,,10,715,,,,,,,,,,,,,,,,,D,132,star,1,0,,,,,,,,,,,,,,,,switch,letter,lettSwt,d,0.6224,Lo,,,,,,0,,,,,,,,high,26,0,26,0,1,,,,,,,,,
295321,2022-10-06_17h37.36.974,vts_reward_expectancy,2022.2.4,Win32,41.24561765,Chrome,1707,960,,,,,0,715,,,,,,,,,,,,,,,,,U,174,triangle,1,0,,,,,,,,,,,,,,,,switch,number,numSwt,k,1.1738,Hi,,,,,,0,,,,,,,,high,27,0,27,0,1,,,,,,,,,
295321,2022-10-06_17h37.36.974,vts_reward_expectancy,2022.2.4,Win32,41.24561765,Chrome,1707,960,,,,,1,716,,,,,,,,,,,,,,,,,H,167,star,1,0,,,,,,,,,,,,,,,,repeat,number,numRpt,k,1.2733,Lo,,,,,,0,,,,,,,,high,28,0,28,0,1,,,,,,,,,
295321,2022-10-06_17h37.36.974,vts_reward_expectancy,2022.2.4,Win32,41.24561765,Chrome,1707,960,,,,,1,717,,,,,,,,,,,,,,,,,W,146,triangle,1,0,,,,,,,,,,,,,,,,switch,letter,lettSwt,f,0.4733,Hi,,,,,,0,,,,,,,,high,29,0,29,0,1,,,,,,,,,
295321,2022-10-06_17h37.36.974,vts_reward_expectancy,2022.2.4,Win32,41.24561765,Chrome,1707,960,,,,,1,718,,,,,,,,,,,,,,,,,B,125,star,1,0,,,,,,,,,,,,,,,,repeat,letter,lettRpt,d,0.5991,Lo,,,,,,0,,,,,,,,high,30,0,30,0,1,,,,,,,,,
295321,2022-10-06_17h37.36.974,vts_reward_expectancy,2022.2.4,Win32,41.24561765,Chrome,1707,960,,,,,1,719,,,,,,,,,,,,,,,,,Y,181,triangle,1,0,,,,,,,,,,,,,,,,switch,number,numSwt,k,0.9786,Hi,,,,,,0,,,,,,,,high,31,0,31,0,1,,,,,,,,,
295321,2022-10-06_17h37.36.974,vts_reward_expectancy,2022.2.4,Win32,41.24561765,Chrome,1707,960,,,,,0,719,,,,,,,,,,,,,,,,,D,181,circle,1,0,,,,,,,,,,,,,,,,switch,letter,lettSwt,d,0.8053,Hi,,,,,,1,,,,,,space,3.8866,low,0,0,0,0,1,,,,,,,,,
295321,2022-10-06_17h37.36.974,vts_reward_expectancy,2022.2.4,Win32,41.24561765,Chrome,1707,960,,,,,1,720,,,,,,,,,,,,,,,,,Y,132,hexagon,1,0,,,,,,,,,,,,,,,,switch,number,numSwt,j,0.4832,Lo,,,,,,1,,,,,,,,low,1,0,1,0,1,,,,,,,,,
295321,2022-10-06_17h37.36.974,vts_reward_expectancy,2022.2.4,Win32,41.24561765,Chrome,1707,960,,,,,10,730,,,,,,,,,,,,,,,,,W,174,circle,1,0,,,,,,,,,,,,,,,,switch,letter,lettSwt,f,0.4724,Hi,,,,,,1,,,,,,,,low,2,0,2,0,1,,,,,,,,,
295321,2022-10-06_17h37.36.974,vts_reward_expectancy,2022.2.4,Win32,41.24561765,Chrome,1707,960,,,,,10,740,,,,,,,,,,,,,,,,,F,146,hexagon,1,0,,,,,,,,,,,,,,,,switch,number,numSwt,j,0.5847,Lo,,,,,,1,,,,,,,,low,3,0,3,0,1,,,,,,,,,
295321,2022-10-06_17h37.36.974,vts_reward_expectancy,2022.2.4,Win32,41.24561765,Chrome,1707,960,,,,,1,741,,,,,,,,,,,,,,,,,S,167,circle,1,0,,,,,,,,,,,,,,,,switch,letter,lettSwt,f,0.4526,Hi,,,,,,1,,,,,,,,low,4,0,4,0,1,,,,,,,,,
295321,2022-10-06_17h37.36.974,vts_reward_expectancy,2022.2.4,Win32,41.24561765,Chrome,1707,960,,,,,1,742,,,,,,,,,,,,,,,,,U,125,hexagon,1,0,,,,,,,,,,,,,,,,switch,number,numSwt,j,0.4636,Lo,,,,,,1,,,,,,,,low,5,0,5,0,1,,,,,,,,,
295321,2022-10-06_17h37.36.974,vts_reward_expectancy,2022.2.4,Win32,41.24561765,Chrome,1707,960,,,,,1,743,,,,,,,,,,,,,,,,,H,160,hexagon,1,0,,,,,,,,,,,,,,,,switch,letter,lettSwt,d,0.5737,Lo,,,,,,1,,,,,,,,low,6,0,6,0,1,,,,,,,,,
295321,2022-10-06_17h37.36.974,vts_reward_expectancy,2022.2.4,Win32,41.24561765,Chrome,1707,960,,,,,10,753,,,,,,,,,,,,,,,,,B,139,circle,1,0,,,,,,,,,,,,,,,,switch,number,numSwt,j,0.6119,Hi,,,,,,1,,,,,,,,low,7,0,7,0,1,,,,,,,,,
295321,2022-10-06_17h37.36.974,vts_reward_expectancy,2022.2.4,Win32,41.24561765,Chrome,1707,960,,,,,10,763,,,,,,,,,,,,,,,,,D,181,hexagon,1,0,,,,,,,,,,,,,,,,switch,letter,lettSwt,d,0.5245,Lo,,,,,,1,,,,,,,,low,8,0,8,0,1,,,,,,,,,
295321,2022-10-06_17h37.36.974,vts_reward_expectancy,2022.2.4,Win32,41.24561765,Chrome,1707,960,,,,,10,773,,,,,,,,,,,,,,,,,Y,132,circle,1,0,,,,,,,,,,,,,,,,switch,number,numSwt,j,0.5042,Hi,,,,,,1,,,,,,,,low,9,0,9,0,1,,,,,,,,,
295321,2022-10-06_17h37.36.974,vts_reward_expectancy,2022.2.4,Win32,41.24561765,Chrome,1707,960,,,,,0,773,,,,,,,,,,,,,,,,,W,174,circle,1,0,,,,,,,,,,,,,,,,switch,letter,lettSwt,f,0.6485,Hi,,,,,,1,,,,,,,,low,10,0,10,0,1,,,,,,,,,
295321,2022-10-06_17h37.36.974,vts_reward_expectancy,2022.2.4,Win32,41.24561765,Chrome,1707,960,,,,,10,783,,,,,,,,,,,,,,,,,F,146,hexagon,1,0,,,,,,,,,,,,,,,,switch,number,numSwt,j,0.5366,Lo,,,,,,1,,,,,,,,low,11,0,11,0,1,,,,,,,,,
295321,2022-10-06_17h37.36.974,vts_reward_expectancy,2022.2.4,Win32,41.24561765,Chrome,1707,960,,,,,1,784,,,,,,,,,,,,,,,,,S,167,hexagon,1,0,,,,,,,,,,,,,,,,switch,letter,lettSwt,f,0.4271,Lo,,,,,,1,,,,,,,,low,12,0,12,0,1,,,,,,,,,
295321,2022-10-06_17h37.36.974,vts_reward_expectancy,2022.2.4,Win32,41.24561765,Chrome,1707,960,,,,,1,785,,,,,,,,,,,,,,,,,U,125,circle,1,0,,,,,,,,,,,,,,,,switch,number,numSwt,j,0.7137,Hi,,,,,,1,,,,,,,,low,13,0,13,0,1,,,,,,,,,
295321,2022-10-06_17h37.36.974,vts_reward_expectancy,2022.2.4,Win32,41.24561765,Chrome,1707,960,,,,,0,785,,,,,,,,,,,,,,,,,H,160,circle,1,0,,,,,,,,,,,,,,,,switch,letter,lettSwt,d,0.6296,Hi,,,,,,1,,,,,,,,low,14,0,14,0,1,,,,,,,,,
295321,2022-10-06_17h37.36.974,vts_reward_expectancy,2022.2.4,Win32,41.24561765,Chrome,1707,960,,,,,1,786,,,,,,,,,,,,,,,,,B,139,hexagon,1,0,,,,,,,,,,,,,,,,switch,number,numSwt,j,0.641,Lo,,,,,,1,,,,,,,,low,15,0,15,0,1,,,,,,,,,
295321,2022-10-06_17h37.36.974,vts_reward_expectancy,2022.2.4,Win32,41.24561765,Chrome,1707,960,,,,,10,796,,,,,,,,,,,,,,,,,B,132,circle,1,0,,,,,,,,,,,,,,,,switch,letter,lettSwt,d,0.437,Hi,,,,,,1,,,,,,,,low,16,0,16,0,1,,,,,,,,,
295321,2022-10-06_17h37.36.974,vts_reward_expectancy,2022.2.4,Win32,41.24561765,Chrome,1707,960,,,,,1,797,,,,,,,,,,,,,,,,,S,160,hexagon,1,0,,,,,,,,,,,,,,,,switch,number,numSwt,k,0.5978,Lo,,,,,,1,,,,,,,,low,17,0,17,0,1,,,,,,,,,
295321,2022-10-06_17h37.36.974,vts_reward_expectancy,2022.2.4,Win32,41.24561765,Chrome,1707,960,,,,,1,798,,,,,,,,,,,,,,,,,W,146,hexagon,1,0,,,,,,,,,,,,,,,,switch,letter,lettSwt,f,0.5272,Lo,,,,,,1,,,,,,,,low,18,0,18,0,1,,,,,,,,,
295321,2022-10-06_17h37.36.974,vts_reward_expectancy,2022.2.4,Win32,41.24561765,Chrome,1707,960,,,,,10,808,,,,,,,,,,,,,,,,,F,167,circle,1,0,,,,,,,,,,,,,,,,switch,number,numSwt,k,0.6686,Hi,,,,,,1,,,,,,,,low,19,0,19,0,1,,,,,,,,,
295321,2022-10-06_17h37.36.974,vts_reward_expectancy,2022.2.4,Win32,41.24561765,Chrome,1707,960,,,,,0,808,,,,,,,,,,,,,,,,,D,181,circle,1,0,,,,,,,,,,,,,,,,switch,letter,lettSwt,d,0.6028,Hi,,,,,,1,,,,,,,,low,20,0,20,0,1,,,,,,,,,
295321,2022-10-06_17h37.36.974,vts_reward_expectancy,2022.2.4,Win32,41.24561765,Chrome,1707,960,,,,,1,809,,,,,,,,,,,,,,,,,Y,125,hexagon,1,0,,,,,,,,,,,,,,,,switch,number,numSwt,j,0.6957,Lo,,,,,,1,,,,,,,,low,21,0,21,0,1,,,,,,,,,
295321,2022-10-06_17h37.36.974,vts_reward_expectancy,2022.2.4,Win32,41.24561765,Chrome,1707,960,,,,,1,810,,,,,,,,,,,,,,,,,U,174,hexagon,1,0,,,,,,,,,,,,,,,,switch,letter,lettSwt,f,0.6008,Lo,,,,,,1,,,,,,,,low,22,0,22,0,1,,,,,,,,,
295321,2022-10-06_17h37.36.974,vts_reward_expectancy,2022.2.4,Win32,41.24561765,Chrome,1707,960,,,,,10,820,,,,,,,,,,,,,,,,,H,139,circle,1,0,,,,,,,,,,,,,,,,switch,number,numSwt,j,0.671,Hi,,,,,,1,,,,,,,,low,23,0,23,0,1,,,,,,,,,
295321,2022-10-06_17h37.36.974,vts_reward_expectancy,2022.2.4,Win32,41.24561765,Chrome,1707,960,,,,,0,820,,,,,,,,,,,,,,,,,B,181,circle,1,0,,,,,,,,,,,,,,,,switch,letter,lettSwt,d,0.7187,Hi,,,,,,1,,,,,,,,low,24,0,24,0,1,,,,,,,,,
295321,2022-10-06_17h37.36.974,vts_reward_expectancy,2022.2.4,Win32,41.24561765,Chrome,1707,960,,,,,10,830,,,,,,,,,,,,,,,,,U,174,hexagon,1,0,,,,,,,,,,,,,,,,switch,number,numSwt,k,1.1219,Lo,,,,,,1,,,,,,,,low,25,0,25,0,1,,,,,,,,,
295321,2022-10-06_17h37.36.974,vts_reward_expectancy,2022.2.4,Win32,41.24561765,Chrome,1707,960,,,,,10,840,,,,,,,,,,,,,,,,,Y,125,hexagon,1,0,,,,,,,,,,,,,,,,switch,letter,lettSwt,f,0.6472,Lo,,,,,,1,,,,,,,,low,26,0,26,0,1,,,,,,,,,
295321,2022-10-06_17h37.36.974,vts_reward_expectancy,2022.2.4,Win32,41.24561765,Chrome,1707,960,,,,,0,840,,,,,,,,,,,,,,,,,S,146,circle,0,0,,,,,,,,,,,,,,,,switch,number,NA,k,1.0911,Lo,,,,,,1,,,,,,,,low,27,0,27,0,1,,,,,,,,,
295321,2022-10-06_17h37.36.974,vts_reward_expectancy,2022.2.4,Win32,41.24561765,Chrome,1707,960,,,,,10,850,,,,,,,,,,,,,,,,,H,160,hexagon,1,1,,,,,,,,,,,,,,,,switch,letter,lettSwt,d,1.2361,Lo,,,,,,1,,,,,,,,low,28,0,28,0,1,,,,,,,,,
295321,2022-10-06_17h37.36.974,vts_reward_expectancy,2022.2.4,Win32,41.24561765,Chrome,1707,960,,,,,10,860,,,,,,,,,,,,,,,,,W,132,circle,1,0,,,,,,,,,,,,,,,,switch,number,numSwt,j,0.6098,Hi,,,,,,1,,,,,,,,low,29,0,29,0,1,,,,,,,,,
295321,2022-10-06_17h37.36.974,vts_reward_expectancy,2022.2.4,Win32,41.24561765,Chrome,1707,960,,,,,1,861,,,,,,,,,,,,,,,,,F,167,hexagon,1,0,,,,,,,,,,,,,,,,switch,letter,lettSwt,d,0.8312,Lo,,,,,,1,,,,,,,,low,30,0,30,0,1,,,,,,,,,
295321,2022-10-06_17h37.36.974,vts_reward_expectancy,2022.2.4,Win32,41.24561765,Chrome,1707,960,,,,,10,871,,,,,,,,,,,,,,,,,D,139,circle,1,0,,,,,,,,,,,,,,,,switch,number,numSwt,j,0.6092,Hi,,,,,,1,,,,,,,,low,31,0,31,0,1,,,,,,,,,
295321,2022-10-06_17h37.36.974,vts_reward_expectancy,2022.2.4,Win32,41.24561765,Chrome,1707,960,,,,,0,871,,,,,,,,,,,,,,,,,B,160,circle,1,0,,,,,,,,,,,,,,,,switch,letter,lettSwt,d,0.7932,Hi,,,,,,2,,,,,,space,1.0617,low,0,0,0,0,1,,,,,,,,,
295321,2022-10-06_17h37.36.974,vts_reward_expectancy,2022.2.4,Win32,41.24561765,Chrome,1707,960,,,,,1,872,,,,,,,,,,,,,,,,,F,174,hexagon,1,0,,,,,,,,,,,,,,,,switch,number,numSwt,k,0.9193,Lo,,,,,,2,,,,,,,,low,1,0,1,0,1,,,,,,,,,
295321,2022-10-06_17h37.36.974,vts_reward_expectancy,2022.2.4,Win32,41.24561765,Chrome,1707,960,,,,,0,872,,,,,,,,,,,,,,,,,W,125,circle,1,0,,,,,,,,,,,,,,,,switch,letter,lettSwt,f,0.5334,Hi,,,,,,2,,,,,,,,low,2,0,2,0,1,,,,,,,,,
295321,2022-10-06_17h37.36.974,vts_reward_expectancy,2022.2.4,Win32,41.24561765,Chrome,1707,960,,,,,10,882,,,,,,,,,,,,,,,,,H,132,hexagon,1,0,,,,,,,,,,,,,,,,switch,number,numSwt,j,0.5218,Lo,,,,,,2,,,,,,,,low,3,0,3,0,1,,,,,,,,,
295321,2022-10-06_17h37.36.974,vts_reward_expectancy,2022.2.4,Win32,41.24561765,Chrome,1707,960,,,,,1,883,,,,,,,,,,,,,,,,,U,139,hexagon,1,0,,,,,,,,,,,,,,,,switch,letter,lettSwt,f,0.5028,Lo,,,,,,2,,,,,,,,low,4,0,4,0,1,,,,,,,,,
295321,2022-10-06_17h37.36.974,vts_reward_expectancy,2022.2.4,Win32,41.24561765,Chrome,1707,960,,,,,0,883,,,,,,,,,,,,,,,,,S,167,circle,1,0,,,,,,,,,,,,,,,,switch,number,numSwt,k,0.7146,Hi,,,,,,2,,,,,,,,low,5,0,5,0,1,,,,,,,,,
295321,2022-10-06_17h37.36.974,vts_reward_expectancy,2022.2.4,Win32,41.24561765,Chrome,1707,960,,,,,0,883,,,,,,,,,,,,,,,,,Y,181,circle,1,0,,,,,,,,,,,,,,,,switch,letter,lettSwt,f,0.5865,Hi,,,,,,2,,,,,,,,low,6,0,6,0,1,,,,,,,,,
295321,2022-10-06_17h37.36.974,vts_reward_expectancy,2022.2.4,Win32,41.24561765,Chrome,1707,960,,,,,10,893,,,,,,,,,,,,,,,,,D,146,hexagon,1,0,,,,,,,,,,,,,,,,switch,number,numSwt,j,1.0723,Lo,,,,,,2,,,,,,,,low,7,0,7,0,1,,,,,,,,,
295321,2022-10-06_17h37.36.974,vts_reward_expectancy,2022.2.4,Win32,41.24561765,Chrome,1707,960,,,,,0,893,,,,,,,,,,,,,,,,,B,160,circle,1,0,,,,,,,,,,,,,,,,switch,letter,lettSwt,d,0.5401,Hi,,,,,,2,,,,,,,,low,8,0,8,0,1,,,,,,,,,
295321,2022-10-06_17h37.36.974,vts_reward_expectancy,2022.2.4,Win32,41.24561765,Chrome,1707,960,,,,,1,894,,,,,,,,,,,,,,,,,F,174,hexagon,1,0,,,,,,,,,,,,,,,,switch,number,numSwt,k,1.3677,Lo,,,,,,2,,,,,,,,low,9,0,9,0,1,,,,,,,,,
295321,2022-10-06_17h37.36.974,vts_reward_expectancy,2022.2.4,Win32,41.24561765,Chrome,1707,960,,,,,0,894,,,,,,,,,,,,,,,,,W,125,circle,1,0,,,,,,,,,,,,,,,,switch,letter,lettSwt,f,0.5967,Hi,,,,,,2,,,,,,,,low,10,0,10,0,1,,,,,,,,,
295321,2022-10-06_17h37.36.974,vts_reward_expectancy,2022.2.4,Win32,41.24561765,Chrome,1707,960,,,,,1,895,,,,,,,,,,,,,,,,,H,132,hexagon,1,0,,,,,,,,,,,,,,,,switch,number,numSwt,j,1.0191,Lo,,,,,,2,,,,,,,,low,11,0,11,0,1,,,,,,,,,
295321,2022-10-06_17h37.36.974,vts_reward_expectancy,2022.2.4,Win32,41.24561765,Chrome,1707,960,,,,,10,905,,,,,,,,,,,,,,,,,U,139,hexagon,1,0,,,,,,,,,,,,,,,,switch,letter,lettSwt,f,0.7456,Lo,,,,,,2,,,,,,,,low,12,0,12,0,1,,,,,,,,,
295321,2022-10-06_17h37.36.974,vts_reward_expectancy,2022.2.4,Win32,41.24561765,Chrome,1707,960,,,,,10,915,,,,,,,,,,,,,,,,,S,167,circle,1,0,,,,,,,,,,,,,,,,repeat,letter,lettRpt,f,1.268,Hi,,,,,,2,,,,,,,,low,13,0,13,0,1,,,,,,,,,
295321,2022-10-06_17h37.36.974,vts_reward_expectancy,2022.2.4,Win32,41.24561765,Chrome,1707,960,,,,,10,925,,,,,,,,,,,,,,,,,Y,181,hexagon,1,0,,,,,,,,,,,,,,,,switch,number,numSwt,k,0.8727,Lo,,,,,,2,,,,,,,,low,14,0,14,0,1,,,,,,,,,
295321,2022-10-06_17h37.36.974,vts_reward_expectancy,2022.2.4,Win32,41.24561765,Chrome,1707,960,,,,,0,925,,,,,,,,,,,,,,,,,D,146,circle,1,0,,,,,,,,,,,,,,,,switch,letter,lettSwt,d,0.6716,Hi,,,,,,2,,,,,,,,low,15,0,15,0,1,,,,,,,,,
295321,2022-10-06_17h37.36.974,vts_reward_expectancy,2022.2.4,Win32,41.24561765,Chrome,1707,960,,,,,0,925,,,,,,,,,,,,,,,,,F,139,circle,1,0,,,,,,,,,,,,,,,,switch,number,numSwt,j,0.729,Hi,,,,,,2,,,,,,,,low,16,0,16,0,1,,,,,,,,,
295321,2022-10-06_17h37.36.974,vts_reward_expectancy,2022.2.4,Win32,41.24561765,Chrome,1707,960,,,,,1,926,,,,,,,,,,,,,,,,,W,167,hexagon,1,0,,,,,,,,,,,,,,,,switch,letter,lettSwt,f,0.5038,Lo,,,,,,2,,,,,,,,low,17,0,17,0,1,,,,,,,,,
295321,2022-10-06_17h37.36.974,vts_reward_expectancy,2022.2.4,Win32,41.24561765,Chrome,1707,960,,,,,10,936,,,,,,,,,,,,,,,,,D,146,hexagon,1,0,,,,,,,,,,,,,,,,switch,number,numSwt,j,0.6372,Lo,,,,,,2,,,,,,,,low,18,0,18,0,1,,,,,,,,,
295321,2022-10-06_17h37.36.974,vts_reward_expectancy,2022.2.4,Win32,41.24561765,Chrome,1707,960,,,,,1,937,,,,,,,,,,,,,,,,,B,160,circle,1,0,,,,,,,,,,,,,,,,switch,letter,lettSwt,d,0.5116,Hi,,,,,,2,,,,,,,,low,19,0,19,0,1,,,,,,,,,
295321,2022-10-06_17h37.36.974,vts_reward_expectancy,2022.2.4,Win32,41.24561765,Chrome,1707,960,,,,,0,937,,,,,,,,,,,,,,,,,S,125,circle,1,0,,,,,,,,,,,,,,,,switch,number,numSwt,j,0.6548,Hi,,,,,,2,,,,,,,,low,20,0,20,0,1,,,,,,,,,
295321,2022-10-06_17h37.36.974,vts_reward_expectancy,2022.2.4,Win32,41.24561765,Chrome,1707,960,,,,,1,938,,,,,,,,,,,,,,,,,U,132,hexagon,1,0,,,,,,,,,,,,,,,,switch,letter,lettSwt,f,0.5315,Lo,,,,,,2,,,,,,,,low,21,0,21,0,1,,,,,,,,,
295321,2022-10-06_17h37.36.974,vts_reward_expectancy,2022.2.4,Win32,41.24561765,Chrome,1707,960,,,,,10,948,,,,,,,,,,,,,,,,,Y,181,hexagon,1,0,,,,,,,,,,,,,,,,switch,number,numSwt,k,0.8775,Lo,,,,,,2,,,,,,,,low,22,0,22,0,1,,,,,,,,,
295321,2022-10-06_17h37.36.974,vts_reward_expectancy,2022.2.4,Win32,41.24561765,Chrome,1707,960,,,,,0,948,,,,,,,,,,,,,,,,,H,174,circle,1,0,,,,,,,,,,,,,,,,switch,letter,lettSwt,d,0.6552,Hi,,,,,,2,,,,,,,,low,23,0,23,0,1,,,,,,,,,
295321,2022-10-06_17h37.36.974,vts_reward_expectancy,2022.2.4,Win32,41.24561765,Chrome,1707,960,,,,,1,949,,,,,,,,,,,,,,,,,B,174,hexagon,1,0,,,,,,,,,,,,,,,,switch,number,numSwt,k,1.1376,Lo,,,,,,2,,,,,,,,low,24,0,24,0,1,,,,,,,,,
295321,2022-10-06_17h37.36.974,vts_reward_expectancy,2022.2.4,Win32,41.24561765,Chrome,1707,960,,,,,1,950,,,,,,,,,,,,,,,,,Y,167,circle,1,0,,,,,,,,,,,,,,,,switch,letter,lettSwt,f,0.4578,Hi,,,,,,2,,,,,,,,low,25,0,25,0,1,,,,,,,,,
295321,2022-10-06_17h37.36.974,vts_reward_expectancy,2022.2.4,Win32,41.24561765,Chrome,1707,960,,,,,10,960,,,,,,,,,,,,,,,,,D,125,hexagon,1,0,,,,,,,,,,,,,,,,switch,number,numSwt,j,0.9577,Lo,,,,,,2,,,,,,,,low,26,0,26,0,1,,,,,,,,,
295321,2022-10-06_17h37.36.974,vts_reward_expectancy,2022.2.4,Win32,41.24561765,Chrome,1707,960,,,,,10,970,,,,,,,,,,,,,,,,,U,181,circle,1,0,,,,,,,,,,,,,,,,switch,letter,lettSwt,f,0.5084,Hi,,,,,,2,,,,,,,,low,27,0,27,0,1,,,,,,,,,
295321,2022-10-06_17h37.36.974,vts_reward_expectancy,2022.2.4,Win32,41.24561765,Chrome,1707,960,,,,,1,971,,,,,,,,,,,,,,,,,F,132,hexagon,1,0,,,,,,,,,,,,,,,,switch,number,numSwt,j,0.6315,Lo,,,,,,2,,,,,,,,low,28,0,28,0,1,,,,,,,,,
295321,2022-10-06_17h37.36.974,vts_reward_expectancy,2022.2.4,Win32,41.24561765,Chrome,1707,960,,,,,0,971,,,,,,,,,,,,,,,,,H,160,circle,1,0,,,,,,,,,,,,,,,,switch,letter,lettSwt,d,0.8129,Hi,,,,,,2,,,,,,,,low,29,0,29,0,1,,,,,,,,,
295321,2022-10-06_17h37.36.974,vts_reward_expectancy,2022.2.4,Win32,41.24561765,Chrome,1707,960,,,,,1,972,,,,,,,,,,,,,,,,,W,146,hexagon,1,0,,,,,,,,,,,,,,,,switch,number,numSwt,j,0.7449,Lo,,,,,,2,,,,,,,,low,30,0,30,0,1,,,,,,,,,
295321,2022-10-06_17h37.36.974,vts_reward_expectancy,2022.2.4,Win32,41.24561765,Chrome,1707,960,,,,,0,972,,,,,,,,,,,,,,,,,S,139,circle,1,0,,,,,,,,,,,,,,,,switch,letter,lettSwt,f,0.7797,Hi,,,,,,2,,,,,,,,low,31,0,31,0,1,,,,,,,,,
295321,2022-10-06_17h37.36.974,vts_reward_expectancy,2022.2.4,Win32,41.24561765,Chrome,1707,960,,,,,10,982,,,,,,,,,,,,,,,,,S,181,triangle,1,0,,,,,,,,,,,,,,,,repeat,letter,lettRpt,f,0.4505,Hi,,,,,,3,,,,,,space,1.0483,high,0,0,0,0,1,,,,,,,,,
295321,2022-10-06_17h37.36.974,vts_reward_expectancy,2022.2.4,Win32,41.24561765,Chrome,1707,960,,,,,1,983,,,,,,,,,,,,,,,,,F,146,star,1,0,,,,,,,,,,,,,,,,switch,number,numSwt,j,0.7021,Lo,,,,,,3,,,,,,,,high,1,0,1,0,1,,,,,,,,,
295321,2022-10-06_17h37.36.974,vts_reward_expectancy,2022.2.4,Win32,41.24561765,Chrome,1707,960,,,,,10,993,,,,,,,,,,,,,,,,,B,167,triangle,1,0,,,,,,,,,,,,,,,,switch,letter,lettSwt,d,0.4555,Hi,,,,,,3,,,,,,,,high,2,0,2,0,1,,,,,,,,,
295321,2022-10-06_17h37.36.974,vts_reward_expectancy,2022.2.4,Win32,41.24561765,Chrome,1707,960,,,,,1,994,,,,,,,,,,,,,,,,,H,139,star,1,0,,,,,,,,,,,,,,,,switch,number,numSwt,j,1.0421,Lo,,,,,,3,,,,,,,,high,3,0,3,0,1,,,,,,,,,
295321,2022-10-06_17h37.36.974,vts_reward_expectancy,2022.2.4,Win32,41.24561765,Chrome,1707,960,,,,,10,1004,,,,,,,,,,,,,,,,,W,125,triangle,1,0,,,,,,,,,,,,,,,,switch,letter,lettSwt,f,0.4982,Hi,,,,,,3,,,,,,,,high,4,0,4,0,1,,,,,,,,,
295321,2022-10-06_17h37.36.974,vts_reward_expectancy,2022.2.4,Win32,41.24561765,Chrome,1707,960,,,,,1,1005,,,,,,,,,,,,,,,,,D,174,star,1,0,,,,,,,,,,,,,,,,switch,number,numSwt,k,0.6644,Lo,,,,,,3,,,,,,,,high,5,0,5,0,1,,,,,,,,,
295321,2022-10-06_17h37.36.974,vts_reward_expectancy,2022.2.4,Win32,41.24561765,Chrome,1707,960,,,,,0,1005,,,,,,,,,,,,,,,,,U,132,triangle,1,0,,,,,,,,,,,,,,,,switch,letter,lettSwt,f,0.5496,Hi,,,,,,3,,,,,,,,high,6,0,6,0,1,,,,,,,,,
295321,2022-10-06_17h37.36.974,vts_reward_expectancy,2022.2.4,Win32,41.24561765,Chrome,1707,960,,,,,1,1006,,,,,,,,,,,,,,,,,Y,160,star,1,0,,,,,,,,,,,,,,,,switch,number,numSwt,k,1.0187,Lo,,,,,,3,,,,,,,,high,7,0,7,0,1,,,,,,,,,
295321,2022-10-06_17h37.36.974,vts_reward_expectancy,2022.2.4,Win32,41.24561765,Chrome,1707,960,,,,,1,1007,,,,,,,,,,,,,,,,,S,181,triangle,1,0,,,,,,,,,,,,,,,,switch,letter,lettSwt,f,0.508,Hi,,,,,,3,,,,,,,,high,8,0,8,0,1,,,,,,,,,
295321,2022-10-06_17h37.36.974,vts_reward_expectancy,2022.2.4,Win32,41.24561765,Chrome,1707,960,,,,,1,1008,,,,,,,,,,,,,,,,,F,146,star,1,0,,,,,,,,,,,,,,,,switch,number,numSwt,j,0.5282,Lo,,,,,,3,,,,,,,,high,9,0,9,0,1,,,,,,,,,
295321,2022-10-06_17h37.36.974,vts_reward_expectancy,2022.2.4,Win32,41.24561765,Chrome,1707,960,,,,,0,1008,,,,,,,,,,,,,,,,,B,167,triangle,1,0,,,,,,,,,,,,,,,,switch,letter,lettSwt,d,0.5831,Hi,,,,,,3,,,,,,,,high,10,0,10,0,1,,,,,,,,,
295321,2022-10-06_17h37.36.974,vts_reward_expectancy,2022.2.4,Win32,41.24561765,Chrome,1707,960,,,,,1,1009,,,,,,,,,,,,,,,,,H,139,star,1,0,,,,,,,,,,,,,,,,switch,number,numSwt,j,0.7917,Lo,,,,,,3,,,,,,,,high,11,0,11,0,1,,,,,,,,,
295321,2022-10-06_17h37.36.974,vts_reward_expectancy,2022.2.4,Win32,41.24561765,Chrome,1707,960,,,,,10,1019,,,,,,,,,,,,,,,,,W,125,triangle,1,0,,,,,,,,,,,,,,,,switch,letter,lettSwt,f,0.508,Hi,,,,,,3,,,,,,,,high,12,0,12,0,1,,,,,,,,,
295321,2022-10-06_17h37.36.974,vts_reward_expectancy,2022.2.4,Win32,41.24561765,Chrome,1707,960,,,,,10,1029,,,,,,,,,,,,,,,,,D,174,star,1,0,,,,,,,,,,,,,,,,switch,number,numSwt,k,0.6658,Lo,,,,,,3,,,,,,,,high,13,0,13,0,1,,,,,,,,,
295321,2022-10-06_17h37.36.974,vts_reward_expectancy,2022.2.4,Win32,41.24561765,Chrome,1707,960,,,,,1,1030,,,,,,,,,,,,,,,,,U,132,star,1,0,,,,,,,,,,,,,,,,switch,letter,lettSwt,f,0.5245,Lo,,,,,,3,,,,,,,,high,14,0,14,0,1,,,,,,,,,
295321,2022-10-06_17h37.36.974,vts_reward_expectancy,2022.2.4,Win32,41.24561765,Chrome,1707,960,,,,,0,1030,,,,,,,,,,,,,,,,,Y,160,triangle,1,0,,,,,,,,,,,,,,,,switch,number,numSwt,k,1.1371,Hi,,,,,,3,,,,,,,,high,15,0,15,0,1,,,,,,,,,
295321,2022-10-06_17h37.36.974,vts_reward_expectancy,2022.2.4,Win32,41.24561765,Chrome,1707,960,,,,,1,1031,,,,,,,,,,,,,,,,,Y,160,star,1,0,,,,,,,,,,,,,,,,switch,letter,lettSwt,f,0.5466,Lo,,,,,,3,,,,,,,,high,16,0,16,0,1,,,,,,,,,
295321,2022-10-06_17h37.36.974,vts_reward_expectancy,2022.2.4,Win32,41.24561765,Chrome,1707,960,,,,,0,1031,,,,,,,,,,,,,,,,,H,146,triangle,1,0,,,,,,,,,,,,,,,,switch,number,numSwt,j,0.8393,Hi,,,,,,3,,,,,,,,high,17,0,17,0,1,,,,,,,,,
295321,2022-10-06_17h37.36.974,vts_reward_expectancy,2022.2.4,Win32,41.24561765,Chrome,1707,960,,,,,10,1041,,,,,,,,,,,,,,,,,S,132,star,1,0,,,,,,,,,,,,,,,,switch,letter,lettSwt,f,0.6059,Lo,,,,,,3,,,,,,,,high,18,0,18,0,1,,,,,,,,,
295321,2022-10-06_17h37.36.974,vts_reward_expectancy,2022.2.4,Win32,41.24561765,Chrome,1707,960,,,,,0,1041,,,,,,,,,,,,,,,,,U,167,triangle,1,0,,,,,,,,,,,,,,,,switch,number,numSwt,k,0.9554,Hi,,,,,,3,,,,,,,,high,19,0,19,0,1,,,,,,,,,
295321,2022-10-06_17h37.36.974,vts_reward_expectancy,2022.2.4,Win32,41.24561765,Chrome,1707,960,,,,,0,1041,,,,,,,,,,,,,,,,,W,139,triangle,1,0,,,,,,,,,,,,,,,,switch,letter,lettSwt,f,0.6382,Hi,,,,,,3,,,,,,,,high,20,0,20,0,1,,,,,,,,,
295321,2022-10-06_17h37.36.974,vts_reward_expectancy,2022.2.4,Win32,41.24561765,Chrome,1707,960,,,,,0,1041,,,,,,,,,,,,,,,,,F,174,star,0,0,,,,,,,,,,,,,,,,repeat,letter,NA,f,1.3936,Hi,,,,,,3,,,,,,,,high,21,0,21,0,1,,,,,,,,,
295321,2022-10-06_17h37.36.974,vts_reward_expectancy,2022.2.4,Win32,41.24561765,Chrome,1707,960,,,,,1,1042,,,,,,,,,,,,,,,,,B,125,star,1,1,,,,,,,,,,,,,,,,switch,number,numSwt,j,0.7384,Lo,,,,,,3,,,,,,,,high,22,0,22,0,1,,,,,,,,,
295321,2022-10-06_17h37.36.974,vts_reward_expectancy,2022.2.4,Win32,41.24561765,Chrome,1707,960,,,,,0,1042,,,,,,,,,,,,,,,,,D,181,triangle,1,0,,,,,,,,,,,,,,,,switch,letter,lettSwt,d,1.2769,Hi,,,,,,3,,,,,,,,high,23,0,23,0,1,,,,,,,,,
295321,2022-10-06_17h37.36.974,vts_reward_expectancy,2022.2.4,Win32,41.24561765,Chrome,1707,960,,,,,10,1052,,,,,,,,,,,,,,,,,B,146,star,1,0,,,,,,,,,,,,,,,,switch,number,numSwt,j,2.0185,Lo,,,,,,3,,,,,,,,high,24,0,24,0,1,,,,,,,,,
295321,2022-10-06_17h37.36.974,vts_reward_expectancy,2022.2.4,Win32,41.24561765,Chrome,1707,960,,,,,0,1052,,,,,,,,,,,,,,,,,D,139,triangle,1,0,,,,,,,,,,,,,,,,switch,letter,lettSwt,d,1.0494,Hi,,,,,,3,,,,,,,,high,25,0,25,0,1,,,,,,,,,
295321,2022-10-06_17h37.36.974,vts_reward_expectancy,2022.2.4,Win32,41.24561765,Chrome,1707,960,,,,,0,1052,,,,,,,,,,,,,,,,,W,174,triangle,1,0,,,,,,,,,,,,,,,,repeat,letter,lettRpt,f,1.3286,Hi,,,,,,3,,,,,,,,high,26,0,26,0,1,,,,,,,,,
295321,2022-10-06_17h37.36.974,vts_reward_expectancy,2022.2.4,Win32,41.24561765,Chrome,1707,960,,,,,1,1053,,,,,,,,,,,,,,,,,S,125,star,1,0,,,,,,,,,,,,,,,,switch,number,numSwt,j,0.9326,Lo,,,,,,3,,,,,,,,high,27,0,27,0,1,,,,,,,,,
295321,2022-10-06_17h37.36.974,vts_reward_expectancy,2022.2.4,Win32,41.24561765,Chrome,1707,960,,,,,0,1053,,,,,,,,,,,,,,,,,U,160,triangle,1,0,,,,,,,,,,,,,,,,switch,letter,lettSwt,f,1.2168,Hi,,,,,,3,,,,,,,,high,28,0,28,0,1,,,,,,,,,
295321,2022-10-06_17h37.36.974,vts_reward_expectancy,2022.2.4,Win32,41.24561765,Chrome,1707,960,,,,,1,1054,,,,,,,,,,,,,,,,,H,132,star,1,0,,,,,,,,,,,,,,,,switch,number,numSwt,j,0.9767,Lo,,,,,,3,,,,,,,,high,29,0,29,0,1,,,,,,,,,
295321,2022-10-06_17h37.36.974,vts_reward_expectancy,2022.2.4,Win32,41.24561765,Chrome,1707,960,,,,,1,1055,,,,,,,,,,,,,,,,,F,167,star,1,0,,,,,,,,,,,,,,,,switch,letter,lettSwt,d,0.6037,Lo,,,,,,3,,,,,,,,high,30,0,30,0,1,,,,,,,,,
295321,2022-10-06_17h37.36.974,vts_reward_expectancy,2022.2.4,Win32,41.24561765,Chrome,1707,960,,,,,0,1055,,,,,,,,,,,,,,,,,Y,181,triangle,1,0,,,,,,,,,,,,,,,,switch,number,numSwt,k,1.5153,Hi,,,,,,3,,,,,,,,high,31,0,31,0,1,,,,,,,,,
295321,2022-10-06_17h37.36.974,vts_reward_expectancy,2022.2.4,Win32,41.24561765,Chrome,1707,960,,,,,10,1065,,,,,,,,,,,,,,,,,U,160,hexagon,1,0,,,,,,,,,,,,,,,,switch,letter,lettSwt,f,0.7949,Lo,,,,,,4,,,,,,space,2.1306,low,0,0,0,0,1,,,,,,,,,
295321,2022-10-06_17h37.36.974,vts_reward_expectancy,2022.2.4,Win32,41.24561765,Chrome,1707,960,,,,,0,1065,,,,,,,,,,,,,,,,,B,139,circle,1,0,,,,,,,,,,,,,,,,switch,number,numSwt,j,1.2602,Hi,,,,,,4,,,,,,,,low,1,0,1,0,1,,,,,,,,,
295321,2022-10-06_17h37.36.974,vts_reward_expectancy,2022.2.4,Win32,41.24561765,Chrome,1707,960,,,,,10,1075,,,,,,,,,,,,,,,,,S,146,hexagon,1,0,,,,,,,,,,,,,,,,switch,letter,lettSwt,f,0.7615,Lo,,,,,,4,,,,,,,,low,2,0,2,0,1,,,,,,,,,
295321,2022-10-06_17h37.36.974,vts_reward_expectancy,2022.2.4,Win32,41.24561765,Chrome,1707,960,,,,,0,1075,,,,,,,,,,,,,,,,,Y,125,circle,1,0,,,,,,,,,,,,,,,,switch,number,numSwt,j,1.1883,Hi,,,,,,4,,,,,,,,low,3,0,3,0,1,,,,,,,,,
295321,2022-10-06_17h37.36.974,vts_reward_expectancy,2022.2.4,Win32,41.24561765,Chrome,1707,960,,,,,0,1075,,,,,,,,,,,,,,,,,D,132,circle,1,0,,,,,,,,,,,,,,,,switch,letter,lettSwt,d,0.9535,Hi,,,,,,4,,,,,,,,low,4,0,4,0,1,,,,,,,,,
295321,2022-10-06_17h37.36.974,vts_reward_expectancy,2022.2.4,Win32,41.24561765,Chrome,1707,960,,,,,10,1085,,,,,,,,,,,,,,,,,F,181,hexagon,1,0,,,,,,,,,,,,,,,,switch,number,numSwt,k,0.8643,Lo,,,,,,4,,,,,,,,low,5,0,5,0,1,,,,,,,,,
295321,2022-10-06_17h37.36.974,vts_reward_expectancy,2022.2.4,Win32,41.24561765,Chrome,1707,960,,,,,1,1086,,,,,,,,,,,,,,,,,H,174,hexagon,1,0,,,,,,,,,,,,,,,,switch,letter,lettSwt,d,0.8312,Lo,,,,,,4,,,,,,,,low,6,0,6,0,1,,,,,,,,,
295321,2022-10-06_17h37.36.974,vts_reward_expectancy,2022.2.4,Win32,41.24561765,Chrome,1707,960,,,,,0,1086,,,,,,,,,,,,,,,,,W,167,circle,1,0,,,,,,,,,,,,,,,,switch,number,numSwt,k,1.1341,Hi,,,,,,4,,,,,,,,low,7,0,7,0,1,,,,,,,,,
295321,2022-10-06_17h37.36.974,vts_reward_expectancy,2022.2.4,Win32,41.24561765,Chrome,1707,960,,,,,1,1087,,,,,,,,,,,,,,,,,U,160,hexagon,1,0,,,,,,,,,,,,,,,,switch,letter,lettSwt,f,0.5926,Lo,,,,,,4,,,,,,,,low,8,0,8,0,1,,,,,,,,,
295321,2022-10-06_17h37.36.974,vts_reward_expectancy,2022.2.4,Win32,41.24561765,Chrome,1707,960,,,,,0,1087,,,,,,,,,,,,,,,,,B,139,circle,1,0,,,,,,,,,,,,,,,,switch,number,numSwt,j,0.9122,Hi,,,,,,4,,,,,,,,low,9,0,9,0,1,,,,,,,,,
295321,2022-10-06_17h37.36.974,vts_reward_expectancy,2022.2.4,Win32,41.24561765,Chrome,1707,960,,,,,0,1087,,,,,,,,,,,,,,,,,S,146,circle,0,0,,,,,,,,,,,,,,,,switch,letter,NA,d,0.8948,Hi,,,,,,4,,,,,,,,low,10,0,10,0,1,,,,,,,,,
295321,2022-10-06_17h37.36.974,vts_reward_expectancy,2022.2.4,Win32,41.24561765,Chrome,1707,960,,,,,1,1088,,,,,,,,,,,,,,,,,Y,125,hexagon,1,1,,,,,,,,,,,,,,,,switch,number,numSwt,j,1.3771,Lo,,,,,,4,,,,,,,,low,11,0,11,0,1,,,,,,,,,
295321,2022-10-06_17h37.36.974,vts_reward_expectancy,2022.2.4,Win32,41.24561765,Chrome,1707,960,,,,,0,1088,,,,,,,,,,,,,,,,,D,132,circle,1,0,,,,,,,,,,,,,,,,switch,letter,lettSwt,d,0.6966,Hi,,,,,,4,,,,,,,,low,12,0,12,0,1,,,,,,,,,
295321,2022-10-06_17h37.36.974,vts_reward_expectancy,2022.2.4,Win32,41.24561765,Chrome,1707,960,,,,,10,1098,,,,,,,,,,,,,,,,,F,181,hexagon,1,0,,,,,,,,,,,,,,,,switch,number,numSwt,k,1.1333,Lo,,,,,,4,,,,,,,,low,13,0,13,0,1,,,,,,,,,
295321,2022-10-06_17h37.36.974,vts_reward_expectancy,2022.2.4,Win32,41.24561765,Chrome,1707,960,,,,,10,1108,,,,,,,,,,,,,,,,,H,174,hexagon,1,0,,,,,,,,,,,,,,,,switch,letter,lettSwt,d,0.6146,Lo,,,,,,4,,,,,,,,low,14,0,14,0,1,,,,,,,,,
295321,2022-10-06_17h37.36.974,vts_reward_expectancy,2022.2.4,Win32,41.24561765,Chrome,1707,960,,,,,0,1108,,,,,,,,,,,,,,,,,W,167,circle,1,0,,,,,,,,,,,,,,,,switch,number,numSwt,k,1.7302,Hi,,,,,,4,,,,,,,,low,15,0,15,0,1,,,,,,,,,
295321,2022-10-06_17h37.36.974,vts_reward_expectancy,2022.2.4,Win32,41.24561765,Chrome,1707,960,,,,,0,1108,,,,,,,,,,,,,,,,,D,146,circle,1,0,,,,,,,,,,,,,,,,switch,letter,lettSwt,d,0.6725,Hi,,,,,,4,,,,,,,,low,16,0,16,0,1,,,,,,,,,
295321,2022-10-06_17h37.36.974,vts_reward_expectancy,2022.2.4,Win32,41.24561765,Chrome,1707,960,,,,,1,1109,,,,,,,,,,,,,,,,,Y,174,hexagon,1,0,,,,,,,,,,,,,,,,switch,number,numSwt,k,1.1913,Lo,,,,,,4,,,,,,,,low,17,0,17,0,1,,,,,,,,,
295321,2022-10-06_17h37.36.974,vts_reward_expectancy,2022.2.4,Win32,41.24561765,Chrome,1707,960,,,,,1,1110,,,,,,,,,,,,,,,,,F,160,hexagon,1,0,,,,,,,,,,,,,,,,switch,letter,lettSwt,d,1.5211,Lo,,,,,,4,,,,,,,,low,18,0,18,0,1,,,,,,,,,
295321,2022-10-06_17h37.36.974,vts_reward_expectancy,2022.2.4,Win32,41.24561765,Chrome,1707,960,,,,,0,1110,,,,,,,,,,,,,,,,,U,181,circle,1,0,,,,,,,,,,,,,,,,switch,number,numSwt,k,0.8597,Hi,,,,,,4,,,,,,,,low,19,0,19,0,1,,,,,,,,,
295321,2022-10-06_17h37.36.974,vts_reward_expectancy,2022.2.4,Win32,41.24561765,Chrome,1707,960,,,,,1,1111,,,,,,,,,,,,,,,,,S,132,hexagon,1,0,,,,,,,,,,,,,,,,switch,letter,lettSwt,f,0.8842,Lo,,,,,,4,,,,,,,,low,20,0,20,0,1,,,,,,,,,
295321,2022-10-06_17h37.36.974,vts_reward_expectancy,2022.2.4,Win32,41.24561765,Chrome,1707,960,,,,,0,1111,,,,,,,,,,,,,,,,,H,125,circle,1,0,,,,,,,,,,,,,,,,switch,number,numSwt,j,1.3402,Hi,,,,,,4,,,,,,,,low,21,0,21,0,1,,,,,,,,,
295321,2022-10-06_17h37.36.974,vts_reward_expectancy,2022.2.4,Win32,41.24561765,Chrome,1707,960,,,,,0,1111,,,,,,,,,,,,,,,,,W,139,circle,1,0,,,,,,,,,,,,,,,,switch,letter,lettSwt,f,0.8076,Hi,,,,,,4,,,,,,,,low,22,0,22,0,1,,,,,,,,,
295321,2022-10-06_17h37.36.974,vts_reward_expectancy,2022.2.4,Win32,41.24561765,Chrome,1707,960,,,,,1,1112,,,,,,,,,,,,,,,,,B,167,hexagon,1,0,,,,,,,,,,,,,,,,switch,number,numSwt,k,1.873,Lo,,,,,,4,,,,,,,,low,23,0,23,0,1,,,,,,,,,
295321,2022-10-06_17h37.36.974,vts_reward_expectancy,2022.2.4,Win32,41.24561765,Chrome,1707,960,,,,,10,1122,,,,,,,,,,,,,,,,,H,181,hexagon,1,0,,,,,,,,,,,,,,,,switch,letter,lettSwt,d,1.1972,Lo,,,,,,4,,,,,,,,low,24,0,24,0,1,,,,,,,,,
295321,2022-10-06_17h37.36.974,vts_reward_expectancy,2022.2.4,Win32,41.24561765,Chrome,1707,960,,,,,0,1122,,,,,,,,,,,,,,,,,F,174,circle,1,0,,,,,,,,,,,,,,,,switch,number,numSwt,k,1.0843,Hi,,,,,,4,,,,,,,,low,25,0,25,0,1,,,,,,,,,
295321,2022-10-06_17h37.36.974,vts_reward_expectancy,2022.2.4,Win32,41.24561765,Chrome,1707,960,,,,,0,1122,,,,,,,,,,,,,,,,,S,132,hexagon,0,0,,,,,,,,,,,,,,,,switch,letter,NA,d,0.6755,Hi,,,,,,4,,,,,,,,low,26,0,26,0,1,,,,,,,,,
295321,2022-10-06_17h37.36.974,vts_reward_expectancy,2022.2.4,Win32,41.24561765,Chrome,1707,960,,,,,0,1122,,,,,,,,,,,,,,,,,Y,125,circle,1,1,,,,,,,,,,,,,,,,repeat,letter,lettRpt,f,0.909,Hi,,,,,,4,,,,,,,,low,27,0,27,0,1,,,,,,,,,
295321,2022-10-06_17h37.36.974,vts_reward_expectancy,2022.2.4,Win32,41.24561765,Chrome,1707,960,,,,,0,1122,,,,,,,,,,,,,,,,,D,146,circle,1,0,,,,,,,,,,,,,,,,switch,number,numSwt,j,1.0581,Hi,,,,,,4,,,,,,,,low,28,0,28,0,1,,,,,,,,,
295321,2022-10-06_17h37.36.974,vts_reward_expectancy,2022.2.4,Win32,41.24561765,Chrome,1707,960,,,,,1,1123,,,,,,,,,,,,,,,,,U,160,hexagon,1,0,,,,,,,,,,,,,,,,switch,letter,lettSwt,f,1.1827,Lo,,,,,,4,,,,,,,,low,29,0,29,0,1,,,,,,,,,
295321,2022-10-06_17h37.36.974,vts_reward_expectancy,2022.2.4,Win32,41.24561765,Chrome,1707,960,,,,,10,1133,,,,,,,,,,,,,,,,,B,139,hexagon,1,0,,,,,,,,,,,,,,,,switch,number,numSwt,j,0.7794,Lo,,,,,,4,,,,,,,,low,30,0,30,0,1,,,,,,,,,
295321,2022-10-06_17h37.36.974,vts_reward_expectancy,2022.2.4,Win32,41.24561765,Chrome,1707,960,,,,,0,1133,,,,,,,,,,,,,,,,,W,167,circle,1,0,,,,,,,,,,,,,,,,switch,letter,lettSwt,f,0.9252,Hi,,,,,,4,,,,,,,,low,31,0,31,0,1,,,,,,,,,
295321,2022-10-06_17h37.36.974,vts_reward_expectancy,2022.2.4,Win32,41.24561765,Chrome,1707,960,,,,,1,1134,,,,,,,,,,,,,,,,,Y,146,star,1,0,,,,,,,,,,,,,,,,repeat,letter,lettRpt,f,1.0794,Lo,,,,,,5,,,,,,space,2.4363,high,0,0,0,0,1,,,,,,,,,
295321,2022-10-06_17h37.36.974,vts_reward_expectancy,2022.2.4,Win32,41.24561765,Chrome,1707,960,,,,,0,1134,,,,,,,,,,,,,,,,,F,125,triangle,1,0,,,,,,,,,,,,,,,,switch,number,numSwt,j,1.6776,Hi,,,,,,5,,,,,,,,high,1,0,1,0,1,,,,,,,,,
295321,2022-10-06_17h37.36.974,vts_reward_expectancy,2022.2.4,Win32,41.24561765,Chrome,1707,960,,,,,0,1134,,,,,,,,,,,,,,,,,D,167,star,0,0,,,,,,,,,,,,,,,,switch,letter,NA,f,1.5187,Hi,,,,,,5,,,,,,,,high,2,0,2,0,1,,,,,,,,,
295321,2022-10-06_17h37.36.974,vts_reward_expectancy,2022.2.4,Win32,41.24561765,Chrome,1707,960,,,,,0,1134,,,,,,,,,,,,,,,,,B,181,triangle,1,1,,,,,,,,,,,,,,,,switch,number,numSwt,k,1.5555,Hi,,,,,,5,,,,,,,,high,3,0,3,0,1,,,,,,,,,
295321,2022-10-06_17h37.36.974,vts_reward_expectancy,2022.2.4,Win32,41.24561765,Chrome,1707,960,,,,,10,1144,,,,,,,,,,,,,,,,,H,139,star,1,0,,,,,,,,,,,,,,,,switch,letter,lettSwt,d,0.6262,Lo,,,,,,5,,,,,,,,high,4,0,4,0,1,,,,,,,,,
295321,2022-10-06_17h37.36.974,vts_reward_expectancy,2022.2.4,Win32,41.24561765,Chrome,1707,960,,,,,0,1144,,,,,,,,,,,,,,,,,S,160,triangle,1,0,,,,,,,,,,,,,,,,switch,number,numSwt,k,1.4246,Hi,,,,,,5,,,,,,,,high,5,0,5,0,1,,,,,,,,,
295321,2022-10-06_17h37.36.974,vts_reward_expectancy,2022.2.4,Win32,41.24561765,Chrome,1707,960,,,,,1,1145,,,,,,,,,,,,,,,,,U,132,star,1,0,,,,,,,,,,,,,,,,switch,letter,lettSwt,f,1.2954,Lo,,,,,,5,,,,,,,,high,6,0,6,0,1,,,,,,,,,
295321,2022-10-06_17h37.36.974,vts_reward_expectancy,2022.2.4,Win32,41.24561765,Chrome,1707,960,,,,,0,1145,,,,,,,,,,,,,,,,,W,174,triangle,1,0,,,,,,,,,,,,,,,,switch,number,numSwt,k,1.4381,Hi,,,,,,5,,,,,,,,high,7,0,7,0,1,,,,,,,,,
295321,2022-10-06_17h37.36.974,vts_reward_expectancy,2022.2.4,Win32,41.24561765,Chrome,1707,960,,,,,10,1155,,,,,,,,,,,,,,,,,Y,146,star,1,0,,,,,,,,,,,,,,,,switch,letter,lettSwt,f,1.0402,Lo,,,,,,5,,,,,,,,high,8,0,8,0,1,,,,,,,,,
295321,2022-10-06_17h37.36.974,vts_reward_expectancy,2022.2.4,Win32,41.24561765,Chrome,1707,960,,,,,0,1155,,,,,,,,,,,,,,,,,F,125,triangle,1,0,,,,,,,,,,,,,,,,switch,number,numSwt,j,1.2433,Hi,,,,,,5,,,,,,,,high,9,0,9,0,1,,,,,,,,,
295321,2022-10-06_17h37.36.974,vts_reward_expectancy,2022.2.4,Win32,41.24561765,Chrome,1707,960,,,,,1,1156,,,,,,,,,,,,,,,,,D,167,star,1,0,,,,,,,,,,,,,,,,switch,letter,lettSwt,d,0.7223,Lo,,,,,,5,,,,,,,,high,10,0,10,0,1,,,,,,,,,
295321,2022-10-06_17h37.36.974,vts_reward_expectancy,2022.2.4,Win32,41.24561765,Chrome,1707,960,,,,,10,1166,,,,,,,,,,,,,,,,,B,181,triangle,1,0,,,,,,,,,,,,,,,,switch,number,numSwt,k,0.448,Hi,,,,,,5,,,,,,,,high,11,0,11,0,1,,,,,,,,,
295321,2022-10-06_17h37.36.974,vts_reward_expectancy,2022.2.4,Win32,41.24561765,Chrome,1707,960,,,,,10,1176,,,,,,,,,,,,,,,,,H,139,triangle,1,0,,,,,,,,,,,,,,,,switch,letter,lettSwt,d,0.6413,Hi,,,,,,5,,,,,,,,high,12,0,12,0,1,,,,,,,,,
295321,2022-10-06_17h37.36.974,vts_reward_expectancy,2022.2.4,Win32,41.24561765,Chrome,1707,960,,,,,1,1177,,,,,,,,,,,,,,,,,S,160,star,1,0,,,,,,,,,,,,,,,,switch,number,numSwt,k,0.6713,Lo,,,,,,5,,,,,,,,high,13,0,13,0,1,,,,,,,,,
295321,2022-10-06_17h37.36.974,vts_reward_expectancy,2022.2.4,Win32,41.24561765,Chrome,1707,960,,,,,10,1187,,,,,,,,,,,,,,,,,U,132,triangle,1,0,,,,,,,,,,,,,,,,switch,letter,lettSwt,f,0.5586,Hi,,,,,,5,,,,,,,,high,14,0,14,0,1,,,,,,,,,
295321,2022-10-06_17h37.36.974,vts_reward_expectancy,2022.2.4,Win32,41.24561765,Chrome,1707,960,,,,,1,1188,,,,,,,,,,,,,,,,,W,174,star,1,0,,,,,,,,,,,,,,,,switch,number,numSwt,k,0.5323,Lo,,,,,,5,,,,,,,,high,15,0,15,0,1,,,,,,,,,
295321,2022-10-06_17h37.36.974,vts_reward_expectancy,2022.2.4,Win32,41.24561765,Chrome,1707,960,,,,,0,1188,,,,,,,,,,,,,,,,,U,181,triangle,1,0,,,,,,,,,,,,,,,,switch,letter,lettSwt,f,0.8315,Hi,,,,,,5,,,,,,,,high,16,0,16,0,1,,,,,,,,,
295321,2022-10-06_17h37.36.974,vts_reward_expectancy,2022.2.4,Win32,41.24561765,Chrome,1707,960,,,,,1,1189,,,,,,,,,,,,,,,,,Y,125,star,1,0,,,,,,,,,,,,,,,,switch,number,numSwt,j,1.3026,Lo,,,,,,5,,,,,,,,high,17,0,17,0,1,,,,,,,,,
295321,2022-10-06_17h37.36.974,vts_reward_expectancy,2022.2.4,Win32,41.24561765,Chrome,1707,960,,,,,0,1189,,,,,,,,,,,,,,,,,F,132,triangle,1,0,,,,,,,,,,,,,,,,switch,letter,lettSwt,d,1.2253,Hi,,,,,,5,,,,,,,,high,18,0,18,0,1,,,,,,,,,
295321,2022-10-06_17h37.36.974,vts_reward_expectancy,2022.2.4,Win32,41.24561765,Chrome,1707,960,,,,,1,1190,,,,,,,,,,,,,,,,,W,174,star,1,0,,,,,,,,,,,,,,,,switch,number,numSwt,k,0.9987,Lo,,,,,,5,,,,,,,,high,19,0,19,0,1,,,,,,,,,
295321,2022-10-06_17h37.36.974,vts_reward_expectancy,2022.2.4,Win32,41.24561765,Chrome,1707,960,,,,,0,1190,,,,,,,,,,,,,,,,,H,160,triangle,1,0,,,,,,,,,,,,,,,,switch,letter,lettSwt,d,1.2338,Hi,,,,,,5,,,,,,,,high,20,0,20,0,1,,,,,,,,,
295321,2022-10-06_17h37.36.974,vts_reward_expectancy,2022.2.4,Win32,41.24561765,Chrome,1707,960,,,,,1,1191,,,,,,,,,,,,,,,,,D,146,star,1,0,,,,,,,,,,,,,,,,switch,number,numSwt,j,0.6062,Lo,,,,,,5,,,,,,,,high,21,0,21,0,1,,,,,,,,,
295321,2022-10-06_17h37.36.974,vts_reward_expectancy,2022.2.4,Win32,41.24561765,Chrome,1707,960,,,,,1,1192,,,,,,,,,,,,,,,,,B,167,star,1,0,,,,,,,,,,,,,,,,switch,letter,lettSwt,d,0.6643,Lo,,,,,,5,,,,,,,,high,22,0,22,0,1,,,,,,,,,
295321,2022-10-06_17h37.36.974,vts_reward_expectancy,2022.2.4,Win32,41.24561765,Chrome,1707,960,,,,,10,1202,,,,,,,,,,,,,,,,,S,139,triangle,1,0,,,,,,,,,,,,,,,,switch,number,numSwt,j,0.9126,Hi,,,,,,5,,,,,,,,high,23,0,23,0,1,,,,,,,,,
295321,2022-10-06_17h37.36.974,vts_reward_expectancy,2022.2.4,Win32,41.24561765,Chrome,1707,960,,,,,0,1202,,,,,,,,,,,,,,,,,D,167,triangle,1,0,,,,,,,,,,,,,,,,switch,letter,lettSwt,d,1.8241,Hi,,,,,,5,,,,,,,,high,24,0,24,0,1,,,,,,,,,
295321,2022-10-06_17h37.36.974,vts_reward_expectancy,2022.2.4,Win32,41.24561765,Chrome,1707,960,,,,,1,1203,,,,,,,,,,,,,,,,,W,160,star,1,0,,,,,,,,,,,,,,,,switch,number,numSwt,k,1.1841,Lo,,,,,,5,,,,,,,,high,25,0,25,0,1,,,,,,,,,
295321,2022-10-06_17h37.36.974,vts_reward_expectancy,2022.2.4,Win32,41.24561765,Chrome,1707,960,,,,,1,1204,,,,,,,,,,,,,,,,,F,146,star,1,0,,,,,,,,,,,,,,,,switch,letter,lettSwt,d,0.6494,Lo,,,,,,5,,,,,,,,high,26,0,26,0,1,,,,,,,,,
295321,2022-10-06_17h37.36.974,vts_reward_expectancy,2022.2.4,Win32,41.24561765,Chrome,1707,960,,,,,1,1205,,,,,,,,,,,,,,,,,H,125,triangle,1,0,,,,,,,,,,,,,,,,switch,number,numSwt,j,0.7649,Hi,,,,,,5,,,,,,,,high,27,0,27,0,1,,,,,,,,,
295321,2022-10-06_17h37.36.974,vts_reward_expectancy,2022.2.4,Win32,41.24561765,Chrome,1707,960,,,,,1,1206,,,,,,,,,,,,,,,,,U,132,star,1,0,,,,,,,,,,,,,,,,switch,letter,lettSwt,f,0.7246,Lo,,,,,,5,,,,,,,,high,28,0,28,0,1,,,,,,,,,
