participant,date,expName,psychopyVersion,OS,frameRate,browser,xResolution,yResolution,key_resp.keys,key_resp.rt,training_resp.keys,training_resp.rt,points_trial,points_cumul,trainBlock,training.thisRepN,training.thisTrialN,training.thisN,training.thisIndex,training.ran,LTriangleOpac,LCircleOpac,LHexagonOpac,LStarOpac,RTriangleOpac,RCircleOpac,RHexagonOpac,RStarOpac,LShape_ID,RShape_ID,curr_topStim,curr_bottStim,curr_shape,acc,E1,target_resp_prac1.keys,pracBlock,task1_prac_trials.thisRepN,task1_prac_trials.thisTrialN,task1_prac_trials.thisN,task1_prac_trials.thisIndex,task1_prac_trials.ran,target_resp_prac1.rt,target_resp_prac2.keys,target_resp_prac2.rt,task2_praac_trials.thisRepN,task2_praac_trials.thisTrialN,task2_praac_trials.thisN,task2_praac_trials.thisIndex,task2_praac_trials.ran,alt,task,condition,target_resp.keys,target_resp.rt,rewCond,vts_practice_trials.thisRepN,vts_practice_trials.thisTrialN,vts_practice_trials.thisN,vts_practice_trials.thisIndex,vts_practice_trials.ran,blockNum,trials_norew.thisRepN,trials_norew.thisTrialN,trials_norew.thisN,trials_norew.thisIndex,trials_norew.ran,key_resp_2.keys,key_resp_2.rt,rewExpect,trials_rew.thisRepN,trials_rew.thisTrialN,trials_rew.thisN,trials_rew.thisIndex,trials_rew.ran,Q1,Q2,Q2_text,Q3,Q4,Q5_text,Q5,xRes,yRes
294601,2022-09-24_19h52.38.644,vts_reward_expectancy,2022.2.4,MacIntel,60.0024001,Chrome,1558,1015,,,,,,,,,,,,,,,,,,,,,,,,,,,,,,,,,,,,,,,,,,,,,,,,,,,,,,,,,,,,,,,,,,,,,,,,,,,,
294601,2022-09-24_19h52.38.644,vts_reward_expectancy,2022.2.4,MacIntel,60.0024001,Chrome,1558,1015,space,11.0767,,,,,,,,,,,,,,,,,,,,,,,,,,,,,,,,,,,,,,,,,,,,,,,,,,,,,,,,,,,,,,,,,,,,,,,,,,
294601,2022-09-24_19h52.38.644,vts_reward_expectancy,2022.2.4,MacIntel,60.0024001,Chrome,1558,1015,,,,,,,,,,,,,,,,,,,,,,,,,,,,,,,,,,,,,,,,,,,,,,,,,,,,,,,,,,,,,,,,,,,,,,,,,,,,
294601,2022-09-24_19h52.38.644,vts_reward_expectancy,2022.2.4,MacIntel,60.0024001,Chrome,1558,1015,,,l,2.1762,10,10,0,0,0,0,0,1,1,0,0,0,0,1,0,0,triangle,circle,,,,,,,,,,,,,,,,,,,,,,,,,,,,,,,,,,,,,,,,,,,,,,,,,,,,,,
294601,2022-09-24_19h52.38.644,vts_reward_expectancy,2022.2.4,MacIntel,60.0024001,Chrome,1558,1015,,,a,2.6207,1,11,0,0,1,1,2,1,1,0,0,0,0,0,0,1,triangle,star,,,,,,,,,,,,,,,,,,,,,,,,,,,,,,,,,,,,,,,,,,,,,,,,,,,,,,
294601,2022-09-24_19h52.38.644,vts_reward_expectancy,2022.2.4,MacIntel,60.0024001,Chrome,1558,1015,,,l,1.9314,1,12,0,0,2,2,10,1,0,0,0,1,0,1,0,0,star ,circle,,,,,,,,,,,,,,,,,,,,,,,,,,,,,,,,,,,,,,,,,,,,,,,,,,,,,,
294601,2022-09-24_19h52.38.644,vts_reward_expectancy,2022.2.4,MacIntel,60.0024001,Chrome,1558,1015,,,a,1.9179,1,13,0,0,3,3,3,1,0,1,0,0,1,0,0,0,circle,triangle,,,,,,,,,,,,,,,,,,,,,,,,,,,,,,,,,,,,,,,,,,,,,,,,,,,,,,
294601,2022-09-24_19h52.38.644,vts_reward_expectancy,2022.2.4,MacIntel,60.0024001,Chrome,1558,1015,,,a,1.5494,10,23,0,0,4,4,11,1,0,0,0,1,0,0,1,0,star,hexagon,,,,,,,,,,,,,,,,,,,,,,,,,,,,,,,,,,,,,,,,,,,,,,,,,,,,,,
294601,2022-09-24_19h52.38.644,vts_reward_expectancy,2022.2.4,MacIntel,60.0024001,Chrome,1558,1015,,,a,1.5322,10,33,0,0,5,5,9,1,0,0,0,1,1,0,0,0,star,triangle,,,,,,,,,,,,,,,,,,,,,,,,,,,,,,,,,,,,,,,,,,,,,,,,,,,,,,
294601,2022-09-24_19h52.38.644,vts_reward_expectancy,2022.2.4,MacIntel,60.0024001,Chrome,1558,1015,,,l,3.0182,1,34,0,0,6,6,6,1,0,0,1,0,1,0,0,0,hexagon,triangle,,,,,,,,,,,,,,,,,,,,,,,,,,,,,,,,,,,,,,,,,,,,,,,,,,,,,,
294601,2022-09-24_19h52.38.644,vts_reward_expectancy,2022.2.4,MacIntel,60.0024001,Chrome,1558,1015,,,l,1.3507,10,44,0,0,7,7,7,1,0,0,1,0,0,1,0,0,hexagon,circle,,,,,,,,,,,,,,,,,,,,,,,,,,,,,,,,,,,,,,,,,,,,,,,,,,,,,,
294601,2022-09-24_19h52.38.644,vts_reward_expectancy,2022.2.4,MacIntel,60.0024001,Chrome,1558,1015,,,l,2.3689,10,54,0,0,8,8,1,1,1,0,0,0,0,0,1,0,triangle,hexagon,,,,,,,,,,,,,,,,,,,,,,,,,,,,,,,,,,,,,,,,,,,,,,,,,,,,,,
294601,2022-09-24_19h52.38.644,vts_reward_expectancy,2022.2.4,MacIntel,60.0024001,Chrome,1558,1015,,,a,1.6715,1,55,0,0,9,9,4,1,0,1,0,0,0,0,1,0,circle,hexagon,,,,,,,,,,,,,,,,,,,,,,,,,,,,,,,,,,,,,,,,,,,,,,,,,,,,,,
294601,2022-09-24_19h52.38.644,vts_reward_expectancy,2022.2.4,MacIntel,60.0024001,Chrome,1558,1015,,,l,1.4234,10,65,0,0,10,10,8,1,0,0,1,0,0,0,0,1,hexagon,star,,,,,,,,,,,,,,,,,,,,,,,,,,,,,,,,,,,,,,,,,,,,,,,,,,,,,,
294601,2022-09-24_19h52.38.644,vts_reward_expectancy,2022.2.4,MacIntel,60.0024001,Chrome,1558,1015,,,l,1.338,10,75,0,0,11,11,5,1,0,1,0,0,0,0,0,1,circle,star,,,,,,,,,,,,,,,,,,,,,,,,,,,,,,,,,,,,,,,,,,,,,,,,,,,,,,
294601,2022-09-24_19h52.38.644,vts_reward_expectancy,2022.2.4,MacIntel,60.0024001,Chrome,1558,1015,,,a,2.1477,10,85,0,1,0,12,11,1,0,0,0,1,0,0,1,0,star,hexagon,,,,,,,,,,,,,,,,,,,,,,,,,,,,,,,,,,,,,,,,,,,,,,,,,,,,,,
294601,2022-09-24_19h52.38.644,vts_reward_expectancy,2022.2.4,MacIntel,60.0024001,Chrome,1558,1015,,,l,1.7877,10,95,0,1,1,13,2,1,1,0,0,0,0,0,0,1,triangle,star,,,,,,,,,,,,,,,,,,,,,,,,,,,,,,,,,,,,,,,,,,,,,,,,,,,,,,
294601,2022-09-24_19h52.38.644,vts_reward_expectancy,2022.2.4,MacIntel,60.0024001,Chrome,1558,1015,,,a,1.666,1,96,0,1,2,14,7,1,0,0,1,0,0,1,0,0,hexagon,circle,,,,,,,,,,,,,,,,,,,,,,,,,,,,,,,,,,,,,,,,,,,,,,,,,,,,,,
294601,2022-09-24_19h52.38.644,vts_reward_expectancy,2022.2.4,MacIntel,60.0024001,Chrome,1558,1015,,,l,1.5158,10,106,0,1,3,15,5,1,0,1,0,0,0,0,0,1,circle,star,,,,,,,,,,,,,,,,,,,,,,,,,,,,,,,,,,,,,,,,,,,,,,,,,,,,,,
294601,2022-09-24_19h52.38.644,vts_reward_expectancy,2022.2.4,MacIntel,60.0024001,Chrome,1558,1015,,,l,2.1504,1,107,0,1,4,16,6,1,0,0,1,0,1,0,0,0,hexagon,triangle,,,,,,,,,,,,,,,,,,,,,,,,,,,,,,,,,,,,,,,,,,,,,,,,,,,,,,
294601,2022-09-24_19h52.38.644,vts_reward_expectancy,2022.2.4,MacIntel,60.0024001,Chrome,1558,1015,,,a,1.3491,10,117,0,1,5,17,4,1,0,1,0,0,0,0,1,0,circle,hexagon,,,,,,,,,,,,,,,,,,,,,,,,,,,,,,,,,,,,,,,,,,,,,,,,,,,,,,
294601,2022-09-24_19h52.38.644,vts_reward_expectancy,2022.2.4,MacIntel,60.0024001,Chrome,1558,1015,,,l,2.603,1,118,0,1,6,18,8,1,0,0,1,0,0,0,0,1,hexagon,star,,,,,,,,,,,,,,,,,,,,,,,,,,,,,,,,,,,,,,,,,,,,,,,,,,,,,,
294601,2022-09-24_19h52.38.644,vts_reward_expectancy,2022.2.4,MacIntel,60.0024001,Chrome,1558,1015,,,a,1.5995,1,119,0,1,7,19,10,1,0,0,0,1,0,1,0,0,star ,circle,,,,,,,,,,,,,,,,,,,,,,,,,,,,,,,,,,,,,,,,,,,,,,,,,,,,,,
294601,2022-09-24_19h52.38.644,vts_reward_expectancy,2022.2.4,MacIntel,60.0024001,Chrome,1558,1015,,,a,0.8716,10,129,0,1,8,20,3,1,0,1,0,0,1,0,0,0,circle,triangle,,,,,,,,,,,,,,,,,,,,,,,,,,,,,,,,,,,,,,,,,,,,,,,,,,,,,,
294601,2022-09-24_19h52.38.644,vts_reward_expectancy,2022.2.4,MacIntel,60.0024001,Chrome,1558,1015,,,l,2.8404,10,139,0,1,9,21,0,1,1,0,0,0,0,1,0,0,triangle,circle,,,,,,,,,,,,,,,,,,,,,,,,,,,,,,,,,,,,,,,,,,,,,,,,,,,,,,
294601,2022-09-24_19h52.38.644,vts_reward_expectancy,2022.2.4,MacIntel,60.0024001,Chrome,1558,1015,,,a,1.0863,1,140,0,1,10,22,9,1,0,0,0,1,1,0,0,0,star,triangle,,,,,,,,,,,,,,,,,,,,,,,,,,,,,,,,,,,,,,,,,,,,,,,,,,,,,,
294601,2022-09-24_19h52.38.644,vts_reward_expectancy,2022.2.4,MacIntel,60.0024001,Chrome,1558,1015,,,l,1.4323,1,141,0,1,11,23,1,1,1,0,0,0,0,0,1,0,triangle,hexagon,,,,,,,,,,,,,,,,,,,,,,,,,,,,,,,,,,,,,,,,,,,,,,,,,,,,,,
294601,2022-09-24_19h52.38.644,vts_reward_expectancy,2022.2.4,MacIntel,60.0024001,Chrome,1558,1015,,,a,1.0733,10,151,0,2,0,24,9,1,0,0,0,1,1,0,0,0,star,triangle,,,,,,,,,,,,,,,,,,,,,,,,,,,,,,,,,,,,,,,,,,,,,,,,,,,,,,
294601,2022-09-24_19h52.38.644,vts_reward_expectancy,2022.2.4,MacIntel,60.0024001,Chrome,1558,1015,,,l,1.1871,10,161,0,2,1,25,8,1,0,0,1,0,0,0,0,1,hexagon,star,,,,,,,,,,,,,,,,,,,,,,,,,,,,,,,,,,,,,,,,,,,,,,,,,,,,,,
294601,2022-09-24_19h52.38.644,vts_reward_expectancy,2022.2.4,MacIntel,60.0024001,Chrome,1558,1015,,,a,1.7322,1,162,0,2,2,26,7,1,0,0,1,0,0,1,0,0,hexagon,circle,,,,,,,,,,,,,,,,,,,,,,,,,,,,,,,,,,,,,,,,,,,,,,,,,,,,,,
294601,2022-09-24_19h52.38.644,vts_reward_expectancy,2022.2.4,MacIntel,60.0024001,Chrome,1558,1015,,,a,0.6989,1,163,0,2,3,27,11,1,0,0,0,1,0,0,1,0,star,hexagon,,,,,,,,,,,,,,,,,,,,,,,,,,,,,,,,,,,,,,,,,,,,,,,,,,,,,,
294601,2022-09-24_19h52.38.644,vts_reward_expectancy,2022.2.4,MacIntel,60.0024001,Chrome,1558,1015,,,a,1.3546,1,164,0,2,4,28,10,1,0,0,0,1,0,1,0,0,star ,circle,,,,,,,,,,,,,,,,,,,,,,,,,,,,,,,,,,,,,,,,,,,,,,,,,,,,,,
294601,2022-09-24_19h52.38.644,vts_reward_expectancy,2022.2.4,MacIntel,60.0024001,Chrome,1558,1015,,,a,1.4154,1,165,0,2,5,29,6,1,0,0,1,0,1,0,0,0,hexagon,triangle,,,,,,,,,,,,,,,,,,,,,,,,,,,,,,,,,,,,,,,,,,,,,,,,,,,,,,
294601,2022-09-24_19h52.38.644,vts_reward_expectancy,2022.2.4,MacIntel,60.0024001,Chrome,1558,1015,,,l,1.0335,1,166,0,2,6,30,4,1,0,1,0,0,0,0,1,0,circle,hexagon,,,,,,,,,,,,,,,,,,,,,,,,,,,,,,,,,,,,,,,,,,,,,,,,,,,,,,
294601,2022-09-24_19h52.38.644,vts_reward_expectancy,2022.2.4,MacIntel,60.0024001,Chrome,1558,1015,,,l,2.1555,1,167,0,2,7,31,1,1,1,0,0,0,0,0,1,0,triangle,hexagon,,,,,,,,,,,,,,,,,,,,,,,,,,,,,,,,,,,,,,,,,,,,,,,,,,,,,,
294601,2022-09-24_19h52.38.644,vts_reward_expectancy,2022.2.4,MacIntel,60.0024001,Chrome,1558,1015,,,l,0.9576,10,177,0,2,8,32,0,1,1,0,0,0,0,1,0,0,triangle,circle,,,,,,,,,,,,,,,,,,,,,,,,,,,,,,,,,,,,,,,,,,,,,,,,,,,,,,
294601,2022-09-24_19h52.38.644,vts_reward_expectancy,2022.2.4,MacIntel,60.0024001,Chrome,1558,1015,,,l,1.4339,10,187,0,2,9,33,2,1,1,0,0,0,0,0,0,1,triangle,star,,,,,,,,,,,,,,,,,,,,,,,,,,,,,,,,,,,,,,,,,,,,,,,,,,,,,,
294601,2022-09-24_19h52.38.644,vts_reward_expectancy,2022.2.4,MacIntel,60.0024001,Chrome,1558,1015,,,a,1.182,10,197,0,2,10,34,3,1,0,1,0,0,1,0,0,0,circle,triangle,,,,,,,,,,,,,,,,,,,,,,,,,,,,,,,,,,,,,,,,,,,,,,,,,,,,,,
294601,2022-09-24_19h52.38.644,vts_reward_expectancy,2022.2.4,MacIntel,60.0024001,Chrome,1558,1015,,,l,3.6998,10,207,0,2,11,35,5,1,0,1,0,0,0,0,0,1,circle,star,,,,,,,,,,,,,,,,,,,,,,,,,,,,,,,,,,,,,,,,,,,,,,,,,,,,,,
294601,2022-09-24_19h52.38.644,vts_reward_expectancy,2022.2.4,MacIntel,60.0024001,Chrome,1558,1015,,,a,1.5078,10,217,1,0,0,0,9,1,0,0,0,1,1,0,0,0,star,triangle,,,,,,,,,,,,,,,,,,,,,,,,,,,,,,,,,,,,,,,,,,,,,,,,,,,,,,
294601,2022-09-24_19h52.38.644,vts_reward_expectancy,2022.2.4,MacIntel,60.0024001,Chrome,1558,1015,,,a,1.2823,1,218,1,0,1,1,4,1,0,1,0,0,0,0,1,0,circle,hexagon,,,,,,,,,,,,,,,,,,,,,,,,,,,,,,,,,,,,,,,,,,,,,,,,,,,,,,
294601,2022-09-24_19h52.38.644,vts_reward_expectancy,2022.2.4,MacIntel,60.0024001,Chrome,1558,1015,,,l,1.3344,10,228,1,0,2,2,5,1,0,1,0,0,0,0,0,1,circle,star,,,,,,,,,,,,,,,,,,,,,,,,,,,,,,,,,,,,,,,,,,,,,,,,,,,,,,
294601,2022-09-24_19h52.38.644,vts_reward_expectancy,2022.2.4,MacIntel,60.0024001,Chrome,1558,1015,,,l,2.0533,1,229,1,0,3,3,11,1,0,0,0,1,0,0,1,0,star,hexagon,,,,,,,,,,,,,,,,,,,,,,,,,,,,,,,,,,,,,,,,,,,,,,,,,,,,,,
294601,2022-09-24_19h52.38.644,vts_reward_expectancy,2022.2.4,MacIntel,60.0024001,Chrome,1558,1015,,,l,0.9718,1,230,1,0,4,4,1,1,1,0,0,0,0,0,1,0,triangle,hexagon,,,,,,,,,,,,,,,,,,,,,,,,,,,,,,,,,,,,,,,,,,,,,,,,,,,,,,
294601,2022-09-24_19h52.38.644,vts_reward_expectancy,2022.2.4,MacIntel,60.0024001,Chrome,1558,1015,,,l,1.3162,1,231,1,0,5,5,0,1,1,0,0,0,0,1,0,0,triangle,circle,,,,,,,,,,,,,,,,,,,,,,,,,,,,,,,,,,,,,,,,,,,,,,,,,,,,,,
294601,2022-09-24_19h52.38.644,vts_reward_expectancy,2022.2.4,MacIntel,60.0024001,Chrome,1558,1015,,,l,1.483,10,241,1,0,6,6,2,1,1,0,0,0,0,0,0,1,triangle,star,,,,,,,,,,,,,,,,,,,,,,,,,,,,,,,,,,,,,,,,,,,,,,,,,,,,,,
294601,2022-09-24_19h52.38.644,vts_reward_expectancy,2022.2.4,MacIntel,60.0024001,Chrome,1558,1015,,,l,3.386,1,242,1,0,7,7,6,1,0,0,1,0,1,0,0,0,hexagon,triangle,,,,,,,,,,,,,,,,,,,,,,,,,,,,,,,,,,,,,,,,,,,,,,,,,,,,,,
294601,2022-09-24_19h52.38.644,vts_reward_expectancy,2022.2.4,MacIntel,60.0024001,Chrome,1558,1015,,,a,0.6833,10,252,1,0,8,8,3,1,0,1,0,0,1,0,0,0,circle,triangle,,,,,,,,,,,,,,,,,,,,,,,,,,,,,,,,,,,,,,,,,,,,,,,,,,,,,,
294601,2022-09-24_19h52.38.644,vts_reward_expectancy,2022.2.4,MacIntel,60.0024001,Chrome,1558,1015,,,l,0.7322,10,262,1,0,9,9,7,1,0,0,1,0,0,1,0,0,hexagon,circle,,,,,,,,,,,,,,,,,,,,,,,,,,,,,,,,,,,,,,,,,,,,,,,,,,,,,,
294601,2022-09-24_19h52.38.644,vts_reward_expectancy,2022.2.4,MacIntel,60.0024001,Chrome,1558,1015,,,l,1.0226,1,263,1,0,10,10,10,1,0,0,0,1,0,1,0,0,star ,circle,,,,,,,,,,,,,,,,,,,,,,,,,,,,,,,,,,,,,,,,,,,,,,,,,,,,,,
294601,2022-09-24_19h52.38.644,vts_reward_expectancy,2022.2.4,MacIntel,60.0024001,Chrome,1558,1015,,,l,0.7555,10,273,1,0,11,11,8,1,0,0,1,0,0,0,0,1,hexagon,star,,,,,,,,,,,,,,,,,,,,,,,,,,,,,,,,,,,,,,,,,,,,,,,,,,,,,,
294601,2022-09-24_19h52.38.644,vts_reward_expectancy,2022.2.4,MacIntel,60.0024001,Chrome,1558,1015,,,a,1.9741,10,283,1,1,0,12,11,1,0,0,0,1,0,0,1,0,star,hexagon,,,,,,,,,,,,,,,,,,,,,,,,,,,,,,,,,,,,,,,,,,,,,,,,,,,,,,
294601,2022-09-24_19h52.38.644,vts_reward_expectancy,2022.2.4,MacIntel,60.0024001,Chrome,1558,1015,,,a,0.7009,10,293,1,1,1,13,3,1,0,1,0,0,1,0,0,0,circle,triangle,,,,,,,,,,,,,,,,,,,,,,,,,,,,,,,,,,,,,,,,,,,,,,,,,,,,,,
294601,2022-09-24_19h52.38.644,vts_reward_expectancy,2022.2.4,MacIntel,60.0024001,Chrome,1558,1015,,,l,2.0828,10,303,1,1,2,14,2,1,1,0,0,0,0,0,0,1,triangle,star,,,,,,,,,,,,,,,,,,,,,,,,,,,,,,,,,,,,,,,,,,,,,,,,,,,,,,
294601,2022-09-24_19h52.38.644,vts_reward_expectancy,2022.2.4,MacIntel,60.0024001,Chrome,1558,1015,,,l,0.4168,10,313,1,1,3,15,6,1,0,0,1,0,1,0,0,0,hexagon,triangle,,,,,,,,,,,,,,,,,,,,,,,,,,,,,,,,,,,,,,,,,,,,,,,,,,,,,,
294601,2022-09-24_19h52.38.644,vts_reward_expectancy,2022.2.4,MacIntel,60.0024001,Chrome,1558,1015,,,l,1.3564,10,323,1,1,4,16,8,1,0,0,1,0,0,0,0,1,hexagon,star,,,,,,,,,,,,,,,,,,,,,,,,,,,,,,,,,,,,,,,,,,,,,,,,,,,,,,
294601,2022-09-24_19h52.38.644,vts_reward_expectancy,2022.2.4,MacIntel,60.0024001,Chrome,1558,1015,,,l,2.2381,1,324,1,1,5,17,7,1,0,0,1,0,0,1,0,0,hexagon,circle,,,,,,,,,,,,,,,,,,,,,,,,,,,,,,,,,,,,,,,,,,,,,,,,,,,,,,
294601,2022-09-24_19h52.38.644,vts_reward_expectancy,2022.2.4,MacIntel,60.0024001,Chrome,1558,1015,,,a,0.4155,10,334,1,1,6,18,1,1,1,0,0,0,0,0,1,0,triangle,hexagon,,,,,,,,,,,,,,,,,,,,,,,,,,,,,,,,,,,,,,,,,,,,,,,,,,,,,,
294601,2022-09-24_19h52.38.644,vts_reward_expectancy,2022.2.4,MacIntel,60.0024001,Chrome,1558,1015,,,a,0.8704,10,344,1,1,7,19,10,1,0,0,0,1,0,1,0,0,star ,circle,,,,,,,,,,,,,,,,,,,,,,,,,,,,,,,,,,,,,,,,,,,,,,,,,,,,,,
294601,2022-09-24_19h52.38.644,vts_reward_expectancy,2022.2.4,MacIntel,60.0024001,Chrome,1558,1015,,,l,0.506,1,345,1,1,8,20,0,1,1,0,0,0,0,1,0,0,triangle,circle,,,,,,,,,,,,,,,,,,,,,,,,,,,,,,,,,,,,,,,,,,,,,,,,,,,,,,
294601,2022-09-24_19h52.38.644,vts_reward_expectancy,2022.2.4,MacIntel,60.0024001,Chrome,1558,1015,,,l,0.3388,1,346,1,1,9,21,9,1,0,0,0,1,1,0,0,0,star,triangle,,,,,,,,,,,,,,,,,,,,,,,,,,,,,,,,,,,,,,,,,,,,,,,,,,,,,,
294601,2022-09-24_19h52.38.644,vts_reward_expectancy,2022.2.4,MacIntel,60.0024001,Chrome,1558,1015,,,l,0.3349,1,347,1,1,10,22,4,1,0,1,0,0,0,0,1,0,circle,hexagon,,,,,,,,,,,,,,,,,,,,,,,,,,,,,,,,,,,,,,,,,,,,,,,,,,,,,,
294601,2022-09-24_19h52.38.644,vts_reward_expectancy,2022.2.4,MacIntel,60.0024001,Chrome,1558,1015,,,a,0.3321,1,348,1,1,11,23,5,1,0,1,0,0,0,0,0,1,circle,star,,,,,,,,,,,,,,,,,,,,,,,,,,,,,,,,,,,,,,,,,,,,,,,,,,,,,,
294601,2022-09-24_19h52.38.644,vts_reward_expectancy,2022.2.4,MacIntel,60.0024001,Chrome,1558,1015,,,l,0.2844,1,349,1,2,0,24,5,1,0,1,0,0,0,0,0,1,circle,star,,,,,,,,,,,,,,,,,,,,,,,,,,,,,,,,,,,,,,,,,,,,,,,,,,,,,,
294601,2022-09-24_19h52.38.644,vts_reward_expectancy,2022.2.4,MacIntel,60.0024001,Chrome,1558,1015,,,l,0.5676,10,359,1,2,1,25,7,1,0,0,1,0,0,1,0,0,hexagon,circle,,,,,,,,,,,,,,,,,,,,,,,,,,,,,,,,,,,,,,,,,,,,,,,,,,,,,,
294601,2022-09-24_19h52.38.644,vts_reward_expectancy,2022.2.4,MacIntel,60.0024001,Chrome,1558,1015,,,l,1.1012,10,369,1,2,2,26,10,1,0,0,0,1,0,1,0,0,star ,circle,,,,,,,,,,,,,,,,,,,,,,,,,,,,,,,,,,,,,,,,,,,,,,,,,,,,,,
294601,2022-09-24_19h52.38.644,vts_reward_expectancy,2022.2.4,MacIntel,60.0024001,Chrome,1558,1015,,,l,1.9492,10,379,1,2,3,27,0,1,1,0,0,0,0,1,0,0,triangle,circle,,,,,,,,,,,,,,,,,,,,,,,,,,,,,,,,,,,,,,,,,,,,,,,,,,,,,,
294601,2022-09-24_19h52.38.644,vts_reward_expectancy,2022.2.4,MacIntel,60.0024001,Chrome,1558,1015,,,l,1.6058,10,389,1,2,4,28,2,1,1,0,0,0,0,0,0,1,triangle,star,,,,,,,,,,,,,,,,,,,,,,,,,,,,,,,,,,,,,,,,,,,,,,,,,,,,,,
294601,2022-09-24_19h52.38.644,vts_reward_expectancy,2022.2.4,MacIntel,60.0024001,Chrome,1558,1015,,,a,6.8329,1,390,1,2,5,29,4,1,0,1,0,0,0,0,1,0,circle,hexagon,,,,,,,,,,,,,,,,,,,,,,,,,,,,,,,,,,,,,,,,,,,,,,,,,,,,,,
294601,2022-09-24_19h52.38.644,vts_reward_expectancy,2022.2.4,MacIntel,60.0024001,Chrome,1558,1015,,,l,0.5165,1,391,1,2,6,30,1,1,1,0,0,0,0,0,1,0,triangle,hexagon,,,,,,,,,,,,,,,,,,,,,,,,,,,,,,,,,,,,,,,,,,,,,,,,,,,,,,
294601,2022-09-24_19h52.38.644,vts_reward_expectancy,2022.2.4,MacIntel,60.0024001,Chrome,1558,1015,,,a,0.7878,1,392,1,2,7,31,8,1,0,0,1,0,0,0,0,1,hexagon,star,,,,,,,,,,,,,,,,,,,,,,,,,,,,,,,,,,,,,,,,,,,,,,,,,,,,,,
294601,2022-09-24_19h52.38.644,vts_reward_expectancy,2022.2.4,MacIntel,60.0024001,Chrome,1558,1015,,,l,0.4502,10,402,1,2,8,32,9,1,0,0,0,1,1,0,0,0,star,triangle,,,,,,,,,,,,,,,,,,,,,,,,,,,,,,,,,,,,,,,,,,,,,,,,,,,,,,
294601,2022-09-24_19h52.38.644,vts_reward_expectancy,2022.2.4,MacIntel,60.0024001,Chrome,1558,1015,,,l,8.7855,10,412,1,2,9,33,11,1,0,0,0,1,0,0,1,0,star,hexagon,,,,,,,,,,,,,,,,,,,,,,,,,,,,,,,,,,,,,,,,,,,,,,,,,,,,,,
294601,2022-09-24_19h52.38.644,vts_reward_expectancy,2022.2.4,MacIntel,60.0024001,Chrome,1558,1015,,,a,1.3829,1,413,1,2,10,34,6,1,0,0,1,0,1,0,0,0,hexagon,triangle,,,,,,,,,,,,,,,,,,,,,,,,,,,,,,,,,,,,,,,,,,,,,,,,,,,,,,
294601,2022-09-24_19h52.38.644,vts_reward_expectancy,2022.2.4,MacIntel,60.0024001,Chrome,1558,1015,,,l,0.203,1,414,1,2,11,35,3,1,0,1,0,0,1,0,0,0,circle,triangle,,,,,,,,,,,,,,,,,,,,,,,,,,,,,,,,,,,,,,,,,,,,,,,,,,,,,,
294601,2022-09-24_19h52.38.644,vts_reward_expectancy,2022.2.4,MacIntel,60.0024001,Chrome,1558,1015,,,l,0.8989,1,415,2,0,0,0,6,1,0,0,1,0,1,0,0,0,hexagon,triangle,,,,,,,,,,,,,,,,,,,,,,,,,,,,,,,,,,,,,,,,,,,,,,,,,,,,,,
294601,2022-09-24_19h52.38.644,vts_reward_expectancy,2022.2.4,MacIntel,60.0024001,Chrome,1558,1015,,,a,0.4817,10,425,2,0,1,1,4,1,0,1,0,0,0,0,1,0,circle,hexagon,,,,,,,,,,,,,,,,,,,,,,,,,,,,,,,,,,,,,,,,,,,,,,,,,,,,,,
294601,2022-09-24_19h52.38.644,vts_reward_expectancy,2022.2.4,MacIntel,60.0024001,Chrome,1558,1015,,,a,0.9237,1,426,2,0,2,2,1,1,1,0,0,0,0,0,1,0,triangle,hexagon,,,,,,,,,,,,,,,,,,,,,,,,,,,,,,,,,,,,,,,,,,,,,,,,,,,,,,
294601,2022-09-24_19h52.38.644,vts_reward_expectancy,2022.2.4,MacIntel,60.0024001,Chrome,1558,1015,,,l,0.6892,1,427,2,0,3,3,10,1,0,0,0,1,0,1,0,0,star ,circle,,,,,,,,,,,,,,,,,,,,,,,,,,,,,,,,,,,,,,,,,,,,,,,,,,,,,,
294601,2022-09-24_19h52.38.644,vts_reward_expectancy,2022.2.4,MacIntel,60.0024001,Chrome,1558,1015,,,a,1.8812,1,428,2,0,4,4,2,1,1,0,0,0,0,0,0,1,triangle,star,,,,,,,,,,,,,,,,,,,,,,,,,,,,,,,,,,,,,,,,,,,,,,,,,,,,,,
294601,2022-09-24_19h52.38.644,vts_reward_expectancy,2022.2.4,MacIntel,60.0024001,Chrome,1558,1015,,,a,1.4889,1,429,2,0,5,5,8,1,0,0,1,0,0,0,0,1,hexagon,star,,,,,,,,,,,,,,,,,,,,,,,,,,,,,,,,,,,,,,,,,,,,,,,,,,,,,,
294601,2022-09-24_19h52.38.644,vts_reward_expectancy,2022.2.4,MacIntel,60.0024001,Chrome,1558,1015,,,l,0.5017,10,439,2,0,6,6,7,1,0,0,1,0,0,1,0,0,hexagon,circle,,,,,,,,,,,,,,,,,,,,,,,,,,,,,,,,,,,,,,,,,,,,,,,,,,,,,,
294601,2022-09-24_19h52.38.644,vts_reward_expectancy,2022.2.4,MacIntel,60.0024001,Chrome,1558,1015,,,l,1.6059,10,449,2,0,7,7,5,1,0,1,0,0,0,0,0,1,circle,star,,,,,,,,,,,,,,,,,,,,,,,,,,,,,,,,,,,,,,,,,,,,,,,,,,,,,,
294601,2022-09-24_19h52.38.644,vts_reward_expectancy,2022.2.4,MacIntel,60.0024001,Chrome,1558,1015,,,l,1.5006,1,450,2,0,8,8,0,1,1,0,0,0,0,1,0,0,triangle,circle,,,,,,,,,,,,,,,,,,,,,,,,,,,,,,,,,,,,,,,,,,,,,,,,,,,,,,
294601,2022-09-24_19h52.38.644,vts_reward_expectancy,2022.2.4,MacIntel,60.0024001,Chrome,1558,1015,,,l,1.3885,10,460,2,0,9,9,9,1,0,0,0,1,1,0,0,0,star,triangle,,,,,,,,,,,,,,,,,,,,,,,,,,,,,,,,,,,,,,,,,,,,,,,,,,,,,,
294601,2022-09-24_19h52.38.644,vts_reward_expectancy,2022.2.4,MacIntel,60.0024001,Chrome,1558,1015,,,a,0.5334,1,461,2,0,10,10,3,1,0,1,0,0,1,0,0,0,circle,triangle,,,,,,,,,,,,,,,,,,,,,,,,,,,,,,,,,,,,,,,,,,,,,,,,,,,,,,
294601,2022-09-24_19h52.38.644,vts_reward_expectancy,2022.2.4,MacIntel,60.0024001,Chrome,1558,1015,,,l,0.6495,1,462,2,0,11,11,11,1,0,0,0,1,0,0,1,0,star,hexagon,,,,,,,,,,,,,,,,,,,,,,,,,,,,,,,,,,,,,,,,,,,,,,,,,,,,,,
294601,2022-09-24_19h52.38.644,vts_reward_expectancy,2022.2.4,MacIntel,60.0024001,Chrome,1558,1015,,,a,1.3144,10,472,2,1,0,12,4,1,0,1,0,0,0,0,1,0,circle,hexagon,,,,,,,,,,,,,,,,,,,,,,,,,,,,,,,,,,,,,,,,,,,,,,,,,,,,,,
294601,2022-09-24_19h52.38.644,vts_reward_expectancy,2022.2.4,MacIntel,60.0024001,Chrome,1558,1015,,,l,0.6728,10,482,2,1,1,13,7,1,0,0,1,0,0,1,0,0,hexagon,circle,,,,,,,,,,,,,,,,,,,,,,,,,,,,,,,,,,,,,,,,,,,,,,,,,,,,,,
294601,2022-09-24_19h52.38.644,vts_reward_expectancy,2022.2.4,MacIntel,60.0024001,Chrome,1558,1015,,,l,0.583,10,492,2,1,2,14,10,1,0,0,0,1,0,1,0,0,star ,circle,,,,,,,,,,,,,,,,,,,,,,,,,,,,,,,,,,,,,,,,,,,,,,,,,,,,,,
294601,2022-09-24_19h52.38.644,vts_reward_expectancy,2022.2.4,MacIntel,60.0024001,Chrome,1558,1015,,,a,0.7759,10,502,2,1,3,15,11,1,0,0,0,1,0,0,1,0,star,hexagon,,,,,,,,,,,,,,,,,,,,,,,,,,,,,,,,,,,,,,,,,,,,,,,,,,,,,,
294601,2022-09-24_19h52.38.644,vts_reward_expectancy,2022.2.4,MacIntel,60.0024001,Chrome,1558,1015,,,l,1.4332,1,503,2,1,4,16,2,1,1,0,0,0,0,0,0,1,triangle,star,,,,,,,,,,,,,,,,,,,,,,,,,,,,,,,,,,,,,,,,,,,,,,,,,,,,,,
294601,2022-09-24_19h52.38.644,vts_reward_expectancy,2022.2.4,MacIntel,60.0024001,Chrome,1558,1015,,,a,0.5488,1,504,2,1,5,17,3,1,0,1,0,0,1,0,0,0,circle,triangle,,,,,,,,,,,,,,,,,,,,,,,,,,,,,,,,,,,,,,,,,,,,,,,,,,,,,,
294601,2022-09-24_19h52.38.644,vts_reward_expectancy,2022.2.4,MacIntel,60.0024001,Chrome,1558,1015,,,l,1.2329,1,505,2,1,6,18,9,1,0,0,0,1,1,0,0,0,star,triangle,,,,,,,,,,,,,,,,,,,,,,,,,,,,,,,,,,,,,,,,,,,,,,,,,,,,,,
294601,2022-09-24_19h52.38.644,vts_reward_expectancy,2022.2.4,MacIntel,60.0024001,Chrome,1558,1015,,,a,2.6504,1,506,2,1,7,19,6,1,0,0,1,0,1,0,0,0,hexagon,triangle,,,,,,,,,,,,,,,,,,,,,,,,,,,,,,,,,,,,,,,,,,,,,,,,,,,,,,
294601,2022-09-24_19h52.38.644,vts_reward_expectancy,2022.2.4,MacIntel,60.0024001,Chrome,1558,1015,,,a,0.7822,10,516,2,1,8,20,1,1,1,0,0,0,0,0,1,0,triangle,hexagon,,,,,,,,,,,,,,,,,,,,,,,,,,,,,,,,,,,,,,,,,,,,,,,,,,,,,,
294601,2022-09-24_19h52.38.644,vts_reward_expectancy,2022.2.4,MacIntel,60.0024001,Chrome,1558,1015,,,l,1.4217,1,517,2,1,9,21,0,1,1,0,0,0,0,1,0,0,triangle,circle,,,,,,,,,,,,,,,,,,,,,,,,,,,,,,,,,,,,,,,,,,,,,,,,,,,,,,
294601,2022-09-24_19h52.38.644,vts_reward_expectancy,2022.2.4,MacIntel,60.0024001,Chrome,1558,1015,,,a,0.5833,1,518,2,1,10,22,8,1,0,0,1,0,0,0,0,1,hexagon,star,,,,,,,,,,,,,,,,,,,,,,,,,,,,,,,,,,,,,,,,,,,,,,,,,,,,,,
294601,2022-09-24_19h52.38.644,vts_reward_expectancy,2022.2.4,MacIntel,60.0024001,Chrome,1558,1015,,,a,2.483,1,519,2,1,11,23,5,1,0,1,0,0,0,0,0,1,circle,star,,,,,,,,,,,,,,,,,,,,,,,,,,,,,,,,,,,,,,,,,,,,,,,,,,,,,,
294601,2022-09-24_19h52.38.644,vts_reward_expectancy,2022.2.4,MacIntel,60.0024001,Chrome,1558,1015,,,l,0.6227,1,520,2,2,0,24,1,1,1,0,0,0,0,0,1,0,triangle,hexagon,,,,,,,,,,,,,,,,,,,,,,,,,,,,,,,,,,,,,,,,,,,,,,,,,,,,,,
294601,2022-09-24_19h52.38.644,vts_reward_expectancy,2022.2.4,MacIntel,60.0024001,Chrome,1558,1015,,,a,0.4027,1,521,2,2,1,25,4,1,0,1,0,0,0,0,1,0,circle,hexagon,,,,,,,,,,,,,,,,,,,,,,,,,,,,,,,,,,,,,,,,,,,,,,,,,,,,,,
294601,2022-09-24_19h52.38.644,vts_reward_expectancy,2022.2.4,MacIntel,60.0024001,Chrome,1558,1015,,,l,0.606,1,522,2,2,2,26,0,1,1,0,0,0,0,1,0,0,triangle,circle,,,,,,,,,,,,,,,,,,,,,,,,,,,,,,,,,,,,,,,,,,,,,,,,,,,,,,
294601,2022-09-24_19h52.38.644,vts_reward_expectancy,2022.2.4,MacIntel,60.0024001,Chrome,1558,1015,,,l,0.5994,10,532,2,2,3,27,10,1,0,0,0,1,0,1,0,0,star ,circle,,,,,,,,,,,,,,,,,,,,,,,,,,,,,,,,,,,,,,,,,,,,,,,,,,,,,,
294601,2022-09-24_19h52.38.644,vts_reward_expectancy,2022.2.4,MacIntel,60.0024001,Chrome,1558,1015,,,l,1.4236,10,542,2,2,4,28,8,1,0,0,1,0,0,0,0,1,hexagon,star,,,,,,,,,,,,,,,,,,,,,,,,,,,,,,,,,,,,,,,,,,,,,,,,,,,,,,
294601,2022-09-24_19h52.38.644,vts_reward_expectancy,2022.2.4,MacIntel,60.0024001,Chrome,1558,1015,,,a,1.2536,1,543,2,2,5,29,6,1,0,0,1,0,1,0,0,0,hexagon,triangle,,,,,,,,,,,,,,,,,,,,,,,,,,,,,,,,,,,,,,,,,,,,,,,,,,,,,,
294601,2022-09-24_19h52.38.644,vts_reward_expectancy,2022.2.4,MacIntel,60.0024001,Chrome,1558,1015,,,a,0.7032,10,553,2,2,6,30,11,1,0,0,0,1,0,0,1,0,star,hexagon,,,,,,,,,,,,,,,,,,,,,,,,,,,,,,,,,,,,,,,,,,,,,,,,,,,,,,
294601,2022-09-24_19h52.38.644,vts_reward_expectancy,2022.2.4,MacIntel,60.0024001,Chrome,1558,1015,,,l,1.5239,1,554,2,2,7,31,2,1,1,0,0,0,0,0,0,1,triangle,star,,,,,,,,,,,,,,,,,,,,,,,,,,,,,,,,,,,,,,,,,,,,,,,,,,,,,,
294601,2022-09-24_19h52.38.644,vts_reward_expectancy,2022.2.4,MacIntel,60.0024001,Chrome,1558,1015,,,l,0.7001,10,564,2,2,8,32,7,1,0,0,1,0,0,1,0,0,hexagon,circle,,,,,,,,,,,,,,,,,,,,,,,,,,,,,,,,,,,,,,,,,,,,,,,,,,,,,,
294601,2022-09-24_19h52.38.644,vts_reward_expectancy,2022.2.4,MacIntel,60.0024001,Chrome,1558,1015,,,a,1.1393,1,565,2,2,9,33,9,1,0,0,0,1,1,0,0,0,star,triangle,,,,,,,,,,,,,,,,,,,,,,,,,,,,,,,,,,,,,,,,,,,,,,,,,,,,,,
294601,2022-09-24_19h52.38.644,vts_reward_expectancy,2022.2.4,MacIntel,60.0024001,Chrome,1558,1015,,,a,0.7302,1,566,2,2,10,34,5,1,0,1,0,0,0,0,0,1,circle,star,,,,,,,,,,,,,,,,,,,,,,,,,,,,,,,,,,,,,,,,,,,,,,,,,,,,,,
294601,2022-09-24_19h52.38.644,vts_reward_expectancy,2022.2.4,MacIntel,60.0024001,Chrome,1558,1015,,,a,0.6501,10,576,2,2,11,35,3,1,0,1,0,0,1,0,0,0,circle,triangle,,,,,,,,,,,,,,,,,,,,,,,,,,,,,,,,,,,,,,,,,,,,,,,,,,,,,,
294601,2022-09-24_19h52.38.644,vts_reward_expectancy,2022.2.4,MacIntel,60.0024001,Chrome,1558,1015,,,,,,,,,,,,,,,,,,,,,,,W,174,hexagon,0,0,,0,0,0,0,0,1,,,,,,,,,,,,,,,,,,,,,,,,,,,,,,,,,,,,,,,,,,
294601,2022-09-24_19h52.38.644,vts_reward_expectancy,2022.2.4,MacIntel,60.0024001,Chrome,1558,1015,,,,,,,,,,,,,,,,,,,,,,,D,167,triangle,1,1,d,0,1,0,1,0,1,0.8979,,,,,,,,,,,,,,,,,,,,,,,,,,,,,,,,,,,,,,,,,
294601,2022-09-24_19h52.38.644,vts_reward_expectancy,2022.2.4,MacIntel,60.0024001,Chrome,1558,1015,,,,,,,,,,,,,,,,,,,,,,,B,146,star,1,0,d,0,2,0,2,0,1,0.7637,,,,,,,,,,,,,,,,,,,,,,,,,,,,,,,,,,,,,,,,,
294601,2022-09-24_19h52.38.644,vts_reward_expectancy,2022.2.4,MacIntel,60.0024001,Chrome,1558,1015,,,,,,,,,,,,,,,,,,,,,,,H,132,circle,1,0,d,0,3,0,3,0,1,0.814,,,,,,,,,,,,,,,,,,,,,,,,,,,,,,,,,,,,,,,,,
294601,2022-09-24_19h52.38.644,vts_reward_expectancy,2022.2.4,MacIntel,60.0024001,Chrome,1558,1015,,,,,,,,,,,,,,,,,,,,,,,Y,160,hexagon,1,0,f,0,4,0,4,0,1,0.8895,,,,,,,,,,,,,,,,,,,,,,,,,,,,,,,,,,,,,,,,,
294601,2022-09-24_19h52.38.644,vts_reward_expectancy,2022.2.4,MacIntel,60.0024001,Chrome,1558,1015,,,,,,,,,,,,,,,,,,,,,,,F,139,triangle,1,0,d,0,5,0,5,0,1,0.8539,,,,,,,,,,,,,,,,,,,,,,,,,,,,,,,,,,,,,,,,,
294601,2022-09-24_19h52.38.644,vts_reward_expectancy,2022.2.4,MacIntel,60.0024001,Chrome,1558,1015,,,,,,,,,,,,,,,,,,,,,,,U,181,star,1,0,f,0,6,0,6,0,1,0.9152,,,,,,,,,,,,,,,,,,,,,,,,,,,,,,,,,,,,,,,,,
294601,2022-09-24_19h52.38.644,vts_reward_expectancy,2022.2.4,MacIntel,60.0024001,Chrome,1558,1015,,,,,,,,,,,,,,,,,,,,,,,S,125,circle,0,0,,0,7,0,7,0,1,,,,,,,,,,,,,,,,,,,,,,,,,,,,,,,,,,,,,,,,,,
294601,2022-09-24_19h52.38.644,vts_reward_expectancy,2022.2.4,MacIntel,60.0024001,Chrome,1558,1015,,,,,,,,,,,,,,,,,,,,,,,W,174,circle,1,1,f,0,8,0,8,0,1,0.9658,,,,,,,,,,,,,,,,,,,,,,,,,,,,,,,,,,,,,,,,,
294601,2022-09-24_19h52.38.644,vts_reward_expectancy,2022.2.4,MacIntel,60.0024001,Chrome,1558,1015,,,,,,,,,,,,,,,,,,,,,,,D,167,hexagon,1,0,d,0,9,0,9,0,1,0.6537,,,,,,,,,,,,,,,,,,,,,,,,,,,,,,,,,,,,,,,,,
294601,2022-09-24_19h52.38.644,vts_reward_expectancy,2022.2.4,MacIntel,60.0024001,Chrome,1558,1015,,,,,,,,,,,,,,,,,,,,,,,D,146,hexagon,1,0,d,1,0,0,0,0,1,0.8306,,,,,,,,,,,,,,,,,,,,,,,,,,,,,,,,,,,,,,,,,
294601,2022-09-24_19h52.38.644,vts_reward_expectancy,2022.2.4,MacIntel,60.0024001,Chrome,1558,1015,,,,,,,,,,,,,,,,,,,,,,,S,167,star,1,0,f,1,1,0,1,0,1,0.7303,,,,,,,,,,,,,,,,,,,,,,,,,,,,,,,,,,,,,,,,,
294601,2022-09-24_19h52.38.644,vts_reward_expectancy,2022.2.4,MacIntel,60.0024001,Chrome,1558,1015,,,,,,,,,,,,,,,,,,,,,,,W,139,triangle,1,0,f,1,2,0,2,0,1,0.6514,,,,,,,,,,,,,,,,,,,,,,,,,,,,,,,,,,,,,,,,,
294601,2022-09-24_19h52.38.644,vts_reward_expectancy,2022.2.4,MacIntel,60.0024001,Chrome,1558,1015,,,,,,,,,,,,,,,,,,,,,,,U,174,circle,1,0,f,1,3,0,3,0,1,0.6466,,,,,,,,,,,,,,,,,,,,,,,,,,,,,,,,,,,,,,,,,
294601,2022-09-24_19h52.38.644,vts_reward_expectancy,2022.2.4,MacIntel,60.0024001,Chrome,1558,1015,,,,,,,,,,,,,,,,,,,,,,,F,160,hexagon,1,0,d,1,4,0,4,0,1,0.8462,,,,,,,,,,,,,,,,,,,,,,,,,,,,,,,,,,,,,,,,,
294601,2022-09-24_19h52.38.644,vts_reward_expectancy,2022.2.4,MacIntel,60.0024001,Chrome,1558,1015,,,,,,,,,,,,,,,,,,,,,,,B,181,star,1,0,d,1,5,0,5,0,1,1.0466,,,,,,,,,,,,,,,,,,,,,,,,,,,,,,,,,,,,,,,,,
294601,2022-09-24_19h52.38.644,vts_reward_expectancy,2022.2.4,MacIntel,60.0024001,Chrome,1558,1015,,,,,,,,,,,,,,,,,,,,,,,H,132,triangle,1,0,d,1,6,0,6,0,1,0.7695,,,,,,,,,,,,,,,,,,,,,,,,,,,,,,,,,,,,,,,,,
294601,2022-09-24_19h52.38.644,vts_reward_expectancy,2022.2.4,MacIntel,60.0024001,Chrome,1558,1015,,,,,,,,,,,,,,,,,,,,,,,Y,125,circle,1,0,f,1,7,0,7,0,1,0.6112,,,,,,,,,,,,,,,,,,,,,,,,,,,,,,,,,,,,,,,,,
294601,2022-09-24_19h52.38.644,vts_reward_expectancy,2022.2.4,MacIntel,60.0024001,Chrome,1558,1015,,,,,,,,,,,,,,,,,,,,,,,D,146,triangle,1,0,d,1,8,0,8,0,1,0.8145,,,,,,,,,,,,,,,,,,,,,,,,,,,,,,,,,,,,,,,,,
294601,2022-09-24_19h52.38.644,vts_reward_expectancy,2022.2.4,MacIntel,60.0024001,Chrome,1558,1015,,,,,,,,,,,,,,,,,,,,,,,S,167,star,1,0,f,1,9,0,9,0,1,0.5033,,,,,,,,,,,,,,,,,,,,,,,,,,,,,,,,,,,,,,,,,
294601,2022-09-24_19h52.38.644,vts_reward_expectancy,2022.2.4,MacIntel,60.0024001,Chrome,1558,1015,,,,,,,,,,,,,,,,,,,,,,,W,181,circle,0,0,,2,,,,,,,j,0.7152,0,0,0,0,1,,,,,,,,,,,,,,,,,,,,,,,,,,,,,,,,,,
294601,2022-09-24_19h52.38.644,vts_reward_expectancy,2022.2.4,MacIntel,60.0024001,Chrome,1558,1015,,,,,,,,,,,,,,,,,,,,,,,S,174,hexagon,1,1,,2,,,,,,,k,0.9013,1,0,1,0,1,,,,,,,,,,,,,,,,,,,,,,,,,,,,,,,,,,
294601,2022-09-24_19h52.38.644,vts_reward_expectancy,2022.2.4,MacIntel,60.0024001,Chrome,1558,1015,,,,,,,,,,,,,,,,,,,,,,,Y,160,star,1,0,,2,,,,,,,k,1.5191,2,0,2,0,1,,,,,,,,,,,,,,,,,,,,,,,,,,,,,,,,,,
294601,2022-09-24_19h52.38.644,vts_reward_expectancy,2022.2.4,MacIntel,60.0024001,Chrome,1558,1015,,,,,,,,,,,,,,,,,,,,,,,F,132,triangle,0,0,,2,,,,,,,,,3,0,3,0,1,,,,,,,,,,,,,,,,,,,,,,,,,,,,,,,,,,
294601,2022-09-24_19h52.38.644,vts_reward_expectancy,2022.2.4,MacIntel,60.0024001,Chrome,1558,1015,,,,,,,,,,,,,,,,,,,,,,,B,146,circle,0,1,,2,,,,,,,,,4,0,4,0,1,,,,,,,,,,,,,,,,,,,,,,,,,,,,,,,,,,
294601,2022-09-24_19h52.38.644,vts_reward_expectancy,2022.2.4,MacIntel,60.0024001,Chrome,1558,1015,,,,,,,,,,,,,,,,,,,,,,,D,125,hexagon,0,1,,2,,,,,,,,,5,0,5,0,1,,,,,,,,,,,,,,,,,,,,,,,,,,,,,,,,,,
294601,2022-09-24_19h52.38.644,vts_reward_expectancy,2022.2.4,MacIntel,60.0024001,Chrome,1558,1015,,,,,,,,,,,,,,,,,,,,,,,U,139,star,0,1,,2,,,,,,,,,6,0,6,0,1,,,,,,,,,,,,,,,,,,,,,,,,,,,,,,,,,,
294601,2022-09-24_19h52.38.644,vts_reward_expectancy,2022.2.4,MacIntel,60.0024001,Chrome,1558,1015,,,,,,,,,,,,,,,,,,,,,,,H,167,triangle,0,1,,2,,,,,,,,,7,0,7,0,1,,,,,,,,,,,,,,,,,,,,,,,,,,,,,,,,,,
294601,2022-09-24_19h52.38.644,vts_reward_expectancy,2022.2.4,MacIntel,60.0024001,Chrome,1558,1015,,,,,,,,,,,,,,,,,,,,,,,W,181,triangle,0,1,,2,,,,,,,,,8,0,8,0,1,,,,,,,,,,,,,,,,,,,,,,,,,,,,,,,,,,
294601,2022-09-24_19h52.38.644,vts_reward_expectancy,2022.2.4,MacIntel,60.0024001,Chrome,1558,1015,,,,,,,,,,,,,,,,,,,,,,,S,174,star,0,1,,2,,,,,,,,,9,0,9,0,1,,,,,,,,,,,,,,,,,,,,,,,,,,,,,,,,,,
294601,2022-09-24_19h52.38.644,vts_reward_expectancy,2022.2.4,MacIntel,60.0024001,Chrome,1558,1015,,,,,,,,,,,,,,,,,,,,,,,B,174,circle,1,1,,3,,,,,,,k,0.8478,0,0,0,0,1,,,,,,,,,,,,,,,,,,,,,,,,,,,,,,,,,,
294601,2022-09-24_19h52.38.644,vts_reward_expectancy,2022.2.4,MacIntel,60.0024001,Chrome,1558,1015,,,,,,,,,,,,,,,,,,,,,,,Y,139,star,1,0,,3,,,,,,,j,0.8136,1,0,1,0,1,,,,,,,,,,,,,,,,,,,,,,,,,,,,,,,,,,
294601,2022-09-24_19h52.38.644,vts_reward_expectancy,2022.2.4,MacIntel,60.0024001,Chrome,1558,1015,,,,,,,,,,,,,,,,,,,,,,,U,146,triangle,1,0,,3,,,,,,,j,0.8228,2,0,2,0,1,,,,,,,,,,,,,,,,,,,,,,,,,,,,,,,,,,
294601,2022-09-24_19h52.38.644,vts_reward_expectancy,2022.2.4,MacIntel,60.0024001,Chrome,1558,1015,,,,,,,,,,,,,,,,,,,,,,,W,181,hexagon,1,0,,3,,,,,,,k,0.6324,3,0,3,0,1,,,,,,,,,,,,,,,,,,,,,,,,,,,,,,,,,,
294601,2022-09-24_19h52.38.644,vts_reward_expectancy,2022.2.4,MacIntel,60.0024001,Chrome,1558,1015,,,,,,,,,,,,,,,,,,,,,,,H,132,circle,1,0,,3,,,,,,,j,0.7448,4,0,4,0,1,,,,,,,,,,,,,,,,,,,,,,,,,,,,,,,,,,
294601,2022-09-24_19h52.38.644,vts_reward_expectancy,2022.2.4,MacIntel,60.0024001,Chrome,1558,1015,,,,,,,,,,,,,,,,,,,,,,,F,125,star,1,0,,3,,,,,,,j,1.5319,5,0,5,0,1,,,,,,,,,,,,,,,,,,,,,,,,,,,,,,,,,,
294601,2022-09-24_19h52.38.644,vts_reward_expectancy,2022.2.4,MacIntel,60.0024001,Chrome,1558,1015,,,,,,,,,,,,,,,,,,,,,,,S,167,triangle,1,0,,3,,,,,,,k,0.9316,6,0,6,0,1,,,,,,,,,,,,,,,,,,,,,,,,,,,,,,,,,,
294601,2022-09-24_19h52.38.644,vts_reward_expectancy,2022.2.4,MacIntel,60.0024001,Chrome,1558,1015,,,,,,,,,,,,,,,,,,,,,,,D,160,hexagon,1,0,,3,,,,,,,k,1.7704,7,0,7,0,1,,,,,,,,,,,,,,,,,,,,,,,,,,,,,,,,,,
294601,2022-09-24_19h52.38.644,vts_reward_expectancy,2022.2.4,MacIntel,60.0024001,Chrome,1558,1015,,,,,,,,,,,,,,,,,,,,,,,B,174,star,1,0,,3,,,,,,,k,0.8964,8,0,8,0,1,,,,,,,,,,,,,,,,,,,,,,,,,,,,,,,,,,
294601,2022-09-24_19h52.38.644,vts_reward_expectancy,2022.2.4,MacIntel,60.0024001,Chrome,1558,1015,,,,,,,,,,,,,,,,,,,,,,,Y,139,hexagon,1,0,,3,,,,,,,j,1.5643,9,0,9,0,1,,,,,,,,,,,,,,,,,,,,,,,,,,,,,,,,,,
294601,2022-09-24_19h52.38.644,vts_reward_expectancy,2022.2.4,MacIntel,60.0024001,Chrome,1558,1015,,,,,0,576,,,,,,,,,,,,,,,,,W,174,triangle,1,0,,4,,,,,,,,,,,,,,-1,letter,NA,f,1.6979,vtsPrac,0,0,0,0,1,,,,,,,,,,,,,,,,,,,,,,,
294601,2022-09-24_19h52.38.644,vts_reward_expectancy,2022.2.4,MacIntel,60.0024001,Chrome,1558,1015,,,,,0,576,,,,,,,,,,,,,,,,,B,132,hexagon,1,0,,4,,,,,,,,,,,,,,repeat,letter,lettRpt,d,1.0301,vtsPrac,1,0,1,0,1,,,,,,,,,,,,,,,,,,,,,,,
294601,2022-09-24_19h52.38.644,vts_reward_expectancy,2022.2.4,MacIntel,60.0024001,Chrome,1558,1015,,,,,0,576,,,,,,,,,,,,,,,,,F,160,triangle,1,0,,4,,,,,,,,,,,,,,switch,number,numSwt,k,2.0306,vtsPrac,2,0,2,0,1,,,,,,,,,,,,,,,,,,,,,,,
294601,2022-09-24_19h52.38.644,vts_reward_expectancy,2022.2.4,MacIntel,60.0024001,Chrome,1558,1015,,,,,0,576,,,,,,,,,,,,,,,,,Y,146,hexagon,1,0,,4,,,,,,,,,,,,,,switch,letter,lettSwt,f,0.9895,vtsPrac,3,0,3,0,1,,,,,,,,,,,,,,,,,,,,,,,
294601,2022-09-24_19h52.38.644,vts_reward_expectancy,2022.2.4,MacIntel,60.0024001,Chrome,1558,1015,,,,,0,576,,,,,,,,,,,,,,,,,W,174,triangle,1,0,,4,,,,,,,,,,,,,,repeat,letter,lettRpt,f,0.9319,vtsPrac,4,0,4,0,1,,,,,,,,,,,,,,,,,,,,,,,
294601,2022-09-24_19h52.38.644,vts_reward_expectancy,2022.2.4,MacIntel,60.0024001,Chrome,1558,1015,,,,,0,576,,,,,,,,,,,,,,,,,B,132,hexagon,1,0,,4,,,,,,,,,,,,,,switch,number,numSwt,j,1.0355,vtsPrac,5,0,5,0,1,,,,,,,,,,,,,,,,,,,,,,,
294601,2022-09-24_19h52.38.644,vts_reward_expectancy,2022.2.4,MacIntel,60.0024001,Chrome,1558,1015,,,,,0,576,,,,,,,,,,,,,,,,,F,160,hexagon,1,0,,4,,,,,,,,,,,,,,repeat,number,numRpt,k,1.3824,vtsPrac,6,0,6,0,1,,,,,,,,,,,,,,,,,,,,,,,
294601,2022-09-24_19h52.38.644,vts_reward_expectancy,2022.2.4,MacIntel,60.0024001,Chrome,1558,1015,,,,,0,576,,,,,,,,,,,,,,,,,Y,146,star,1,0,,4,,,,,,,,,,,,,,repeat,number,numRpt,j,1.5986,vtsPrac,7,0,7,0,1,,,,,,,,,,,,,,,,,,,,,,,
294601,2022-09-24_19h52.38.644,vts_reward_expectancy,2022.2.4,MacIntel,60.0024001,Chrome,1558,1015,,,,,0,576,,,,,,,,,,,,,,,,,F,160,triangle,1,0,,4,,,,,,,,,,,,,,switch,letter,lettSwt,d,1.0191,vtsPrac,8,0,8,0,1,,,,,,,,,,,,,,,,,,,,,,,
294601,2022-09-24_19h52.38.644,vts_reward_expectancy,2022.2.4,MacIntel,60.0024001,Chrome,1558,1015,,,,,0,576,,,,,,,,,,,,,,,,,W,167,circle,1,0,,4,,,,,,,,,,,,,,switch,number,numSwt,k,1.7696,vtsPrac,9,0,9,0,1,,,,,,,,,,,,,,,,,,,,,,,
294601,2022-09-24_19h52.38.644,vts_reward_expectancy,2022.2.4,MacIntel,60.0024001,Chrome,1558,1015,,,,,0,576,,,,,,,,,,,,,,,,,S,146,star,1,0,,4,,,,,,,,,,,,,,switch,letter,lettSwt,f,1.7065,vtsPrac,10,0,10,0,1,,,,,,,,,,,,,,,,,,,,,,,
294601,2022-09-24_19h52.38.644,vts_reward_expectancy,2022.2.4,MacIntel,60.0024001,Chrome,1558,1015,,,,,0,576,,,,,,,,,,,,,,,,,Y,174,hexagon,1,0,,4,,,,,,,,,,,,,,repeat,letter,lettRpt,f,1.0482,vtsPrac,11,0,11,0,1,,,,,,,,,,,,,,,,,,,,,,,
294601,2022-09-24_19h52.38.644,vts_reward_expectancy,2022.2.4,MacIntel,60.0024001,Chrome,1558,1015,,,,,0,576,,,,,,,,,,,,,,,,,S,132,star,1,0,,4,,,,,,,,,,,,,,switch,number,numSwt,j,0.9144,vtsPrac,12,0,12,0,1,,,,,,,,,,,,,,,,,,,,,,,
294601,2022-09-24_19h52.38.644,vts_reward_expectancy,2022.2.4,MacIntel,60.0024001,Chrome,1558,1015,,,,,0,576,,,,,,,,,,,,,,,,,Y,167,triangle,1,0,,4,,,,,,,,,,,,,,repeat,number,numRpt,k,1.0721,vtsPrac,13,0,13,0,1,,,,,,,,,,,,,,,,,,,,,,,
294601,2022-09-24_19h52.38.644,vts_reward_expectancy,2022.2.4,MacIntel,60.0024001,Chrome,1558,1015,,,,,0,576,,,,,,,,,,,,,,,,,U,160,circle,1,0,,4,,,,,,,,,,,,,,repeat,number,numRpt,k,1.0975,vtsPrac,14,0,14,0,1,,,,,,,,,,,,,,,,,,,,,,,
294601,2022-09-24_19h52.38.644,vts_reward_expectancy,2022.2.4,MacIntel,60.0024001,Chrome,1558,1015,,,,,0,576,,,,,,,,,,,,,,,,,W,139,triangle,1,0,,4,,,,,,,,,,,,,,switch,letter,lettSwt,f,1.9202,vtsPrac,15,0,15,0,1,,,,,,,,,,,,,,,,,,,,,,,
294601,2022-09-24_19h52.38.644,vts_reward_expectancy,2022.2.4,MacIntel,60.0024001,Chrome,1558,1015,,,,,,,,,,,,,,,,,,,,,,,,,,,,,,,,,,,,,,,,,,,,,,,,,,,,,,,,,,,,,,,,,,,,,,,,,,,,
294601,2022-09-24_19h52.38.644,vts_reward_expectancy,2022.2.4,MacIntel,60.0024001,Chrome,1558,1015,,,,,,,,,,,,,,,,,,,,,,,,,,,,,,,,,,,,,,,,,,,,,,,,,,,,,,,,,,,,,,,,,,,,,,,,,,,,
294601,2022-09-24_19h52.38.644,vts_reward_expectancy,2022.2.4,MacIntel,60.0024001,Chrome,1558,1015,,,,,0,576,,,,,,,,,,,,,,,,,F,160,star,1,0,,,,,,,,,,,,,,,,repeat,letter,lettRpt,d,1.0973,noRew,,,,,,0,0,0,0,0,1,,,,,,,,,,,,,,,,,
294601,2022-09-24_19h52.38.644,vts_reward_expectancy,2022.2.4,MacIntel,60.0024001,Chrome,1558,1015,,,,,0,576,,,,,,,,,,,,,,,,,Y,146,circle,1,0,,,,,,,,,,,,,,,,repeat,letter,lettRpt,f,0.8654,noRew,,,,,,0,1,0,1,0,1,,,,,,,,,,,,,,,,,
294601,2022-09-24_19h52.38.644,vts_reward_expectancy,2022.2.4,MacIntel,60.0024001,Chrome,1558,1015,,,,,0,576,,,,,,,,,,,,,,,,,D,174,star,1,0,,,,,,,,,,,,,,,,repeat,letter,lettRpt,d,1.0813,noRew,,,,,,0,2,0,2,0,1,,,,,,,,,,,,,,,,,
294601,2022-09-24_19h52.38.644,vts_reward_expectancy,2022.2.4,MacIntel,60.0024001,Chrome,1558,1015,,,,,0,576,,,,,,,,,,,,,,,,,B,167,circle,1,0,,,,,,,,,,,,,,,,switch,number,numSwt,k,0.8723,noRew,,,,,,0,3,0,3,0,1,,,,,,,,,,,,,,,,,
294601,2022-09-24_19h52.38.644,vts_reward_expectancy,2022.2.4,MacIntel,60.0024001,Chrome,1558,1015,,,,,0,576,,,,,,,,,,,,,,,,,F,160,circle,1,0,,,,,,,,,,,,,,,,switch,letter,lettSwt,d,0.9322,noRew,,,,,,0,4,0,4,0,1,,,,,,,,,,,,,,,,,
294601,2022-09-24_19h52.38.644,vts_reward_expectancy,2022.2.4,MacIntel,60.0024001,Chrome,1558,1015,,,,,0,576,,,,,,,,,,,,,,,,,Y,146,triangle,1,0,,,,,,,,,,,,,,,,switch,number,numSwt,j,0.9376,noRew,,,,,,0,5,0,5,0,1,,,,,,,,,,,,,,,,,
294601,2022-09-24_19h52.38.644,vts_reward_expectancy,2022.2.4,MacIntel,60.0024001,Chrome,1558,1015,,,,,0,576,,,,,,,,,,,,,,,,,D,174,circle,1,0,,,,,,,,,,,,,,,,repeat,number,numRpt,k,0.8627,noRew,,,,,,0,6,0,6,0,1,,,,,,,,,,,,,,,,,
294601,2022-09-24_19h52.38.644,vts_reward_expectancy,2022.2.4,MacIntel,60.0024001,Chrome,1558,1015,,,,,0,576,,,,,,,,,,,,,,,,,B,167,hexagon,1,0,,,,,,,,,,,,,,,,repeat,number,numRpt,k,0.8818,noRew,,,,,,0,7,0,7,0,1,,,,,,,,,,,,,,,,,
294601,2022-09-24_19h52.38.644,vts_reward_expectancy,2022.2.4,MacIntel,60.0024001,Chrome,1558,1015,,,,,0,576,,,,,,,,,,,,,,,,,Y,174,hexagon,1,0,,,,,,,,,,,,,,,,repeat,number,numRpt,k,0.819,noRew,,,,,,0,8,0,8,0,1,,,,,,,,,,,,,,,,,
294601,2022-09-24_19h52.38.644,vts_reward_expectancy,2022.2.4,MacIntel,60.0024001,Chrome,1558,1015,,,,,0,576,,,,,,,,,,,,,,,,,B,181,circle,1,0,,,,,,,,,,,,,,,,switch,letter,lettSwt,d,1.9713,noRew,,,,,,0,9,0,9,0,1,,,,,,,,,,,,,,,,,
294601,2022-09-24_19h52.38.644,vts_reward_expectancy,2022.2.4,MacIntel,60.0024001,Chrome,1558,1015,,,,,0,576,,,,,,,,,,,,,,,,,D,167,star,1,0,,,,,,,,,,,,,,,,repeat,letter,lettRpt,d,0.8037,noRew,,,,,,0,10,0,10,0,1,,,,,,,,,,,,,,,,,
294601,2022-09-24_19h52.38.644,vts_reward_expectancy,2022.2.4,MacIntel,60.0024001,Chrome,1558,1015,,,,,0,576,,,,,,,,,,,,,,,,,W,139,circle,1,0,,,,,,,,,,,,,,,,switch,number,numSwt,j,1.2643,noRew,,,,,,0,11,0,11,0,1,,,,,,,,,,,,,,,,,
294601,2022-09-24_19h52.38.644,vts_reward_expectancy,2022.2.4,MacIntel,60.0024001,Chrome,1558,1015,,,,,0,576,,,,,,,,,,,,,,,,,F,139,triangle,1,0,,,,,,,,,,,,,,,,repeat,number,numRpt,j,1.2992,noRew,,,,,,0,12,0,12,0,1,,,,,,,,,,,,,,,,,
294601,2022-09-24_19h52.38.644,vts_reward_expectancy,2022.2.4,MacIntel,60.0024001,Chrome,1558,1015,,,,,0,576,,,,,,,,,,,,,,,,,B,146,star,1,0,,,,,,,,,,,,,,,,switch,letter,lettSwt,d,0.6709,noRew,,,,,,0,13,0,13,0,1,,,,,,,,,,,,,,,,,
294601,2022-09-24_19h52.38.644,vts_reward_expectancy,2022.2.4,MacIntel,60.0024001,Chrome,1558,1015,,,,,0,576,,,,,,,,,,,,,,,,,Y,132,triangle,1,0,,,,,,,,,,,,,,,,repeat,letter,lettRpt,f,1.7385,noRew,,,,,,0,14,0,14,0,1,,,,,,,,,,,,,,,,,
294601,2022-09-24_19h52.38.644,vts_reward_expectancy,2022.2.4,MacIntel,60.0024001,Chrome,1558,1015,,,,,0,576,,,,,,,,,,,,,,,,,W,181,star,1,0,,,,,,,,,,,,,,,,repeat,letter,lettRpt,f,0.9388,noRew,,,,,,0,15,0,15,0,1,,,,,,,,,,,,,,,,,
294601,2022-09-24_19h52.38.644,vts_reward_expectancy,2022.2.4,MacIntel,60.0024001,Chrome,1558,1015,,,,,0,576,,,,,,,,,,,,,,,,,B,146,triangle,1,0,,,,,,,,,,,,,,,,repeat,letter,lettRpt,d,0.7164,noRew,,,,,,0,16,0,16,0,1,,,,,,,,,,,,,,,,,
294601,2022-09-24_19h52.38.644,vts_reward_expectancy,2022.2.4,MacIntel,60.0024001,Chrome,1558,1015,,,,,0,576,,,,,,,,,,,,,,,,,U,160,star,1,0,,,,,,,,,,,,,,,,switch,number,numSwt,k,1.8645,noRew,,,,,,0,17,0,17,0,1,,,,,,,,,,,,,,,,,
294601,2022-09-24_19h52.38.644,vts_reward_expectancy,2022.2.4,MacIntel,60.0024001,Chrome,1558,1015,,,,,0,576,,,,,,,,,,,,,,,,,D,167,star,1,0,,,,,,,,,,,,,,,,repeat,number,numRpt,k,1.8183,noRew,,,,,,0,18,0,18,0,1,,,,,,,,,,,,,,,,,
294601,2022-09-24_19h52.38.644,vts_reward_expectancy,2022.2.4,MacIntel,60.0024001,Chrome,1558,1015,,,,,0,576,,,,,,,,,,,,,,,,,H,174,triangle,1,0,,,,,,,,,,,,,,,,repeat,number,numRpt,k,1.0998,noRew,,,,,,0,19,0,19,0,1,,,,,,,,,,,,,,,,,
294601,2022-09-24_19h52.38.644,vts_reward_expectancy,2022.2.4,MacIntel,60.0024001,Chrome,1558,1015,,,,,0,576,,,,,,,,,,,,,,,,,S,139,star,1,0,,,,,,,,,,,,,,,,switch,letter,lettSwt,f,0.9994,noRew,,,,,,0,20,0,20,0,1,,,,,,,,,,,,,,,,,
294601,2022-09-24_19h52.38.644,vts_reward_expectancy,2022.2.4,MacIntel,60.0024001,Chrome,1558,1015,,,,,0,576,,,,,,,,,,,,,,,,,H,132,circle,1,0,,,,,,,,,,,,,,,,switch,number,numSwt,j,0.9318,noRew,,,,,,0,21,0,21,0,1,,,,,,,,,,,,,,,,,
294601,2022-09-24_19h52.38.644,vts_reward_expectancy,2022.2.4,MacIntel,60.0024001,Chrome,1558,1015,,,,,0,576,,,,,,,,,,,,,,,,,B,167,star,1,0,,,,,,,,,,,,,,,,repeat,number,numRpt,k,1.4657,noRew,,,,,,0,22,0,22,0,1,,,,,,,,,,,,,,,,,
294601,2022-09-24_19h52.38.644,vts_reward_expectancy,2022.2.4,MacIntel,60.0024001,Chrome,1558,1015,,,,,0,576,,,,,,,,,,,,,,,,,D,160,triangle,1,0,,,,,,,,,,,,,,,,repeat,number,numRpt,k,1.7558,noRew,,,,,,0,23,0,23,0,1,,,,,,,,,,,,,,,,,
294601,2022-09-24_19h52.38.644,vts_reward_expectancy,2022.2.4,MacIntel,60.0024001,Chrome,1558,1015,,,,,0,576,,,,,,,,,,,,,,,,,S,181,circle,1,0,,,,,,,,,,,,,,,,repeat,number,numRpt,k,0.7493,noRew,,,,,,0,24,0,24,0,1,,,,,,,,,,,,,,,,,
294601,2022-09-24_19h52.38.644,vts_reward_expectancy,2022.2.4,MacIntel,60.0024001,Chrome,1558,1015,,,,,0,576,,,,,,,,,,,,,,,,,D,132,triangle,1,0,,,,,,,,,,,,,,,,switch,letter,lettSwt,d,1.7709,noRew,,,,,,0,25,0,25,0,1,,,,,,,,,,,,,,,,,
294601,2022-09-24_19h52.38.644,vts_reward_expectancy,2022.2.4,MacIntel,60.0024001,Chrome,1558,1015,,,,,0,576,,,,,,,,,,,,,,,,,Y,139,hexagon,1,0,,,,,,,,,,,,,,,,repeat,letter,lettRpt,f,2.2692,noRew,,,,,,0,26,0,26,0,1,,,,,,,,,,,,,,,,,
294601,2022-09-24_19h52.38.644,vts_reward_expectancy,2022.2.4,MacIntel,60.0024001,Chrome,1558,1015,,,,,0,576,,,,,,,,,,,,,,,,,H,167,star,1,0,,,,,,,,,,,,,,,,switch,number,numSwt,k,0.8043,noRew,,,,,,0,27,0,27,0,1,,,,,,,,,,,,,,,,,
294601,2022-09-24_19h52.38.644,vts_reward_expectancy,2022.2.4,MacIntel,60.0024001,Chrome,1558,1015,,,,,0,576,,,,,,,,,,,,,,,,,F,181,triangle,1,0,,,,,,,,,,,,,,,,repeat,number,numRpt,k,1.1984,noRew,,,,,,0,28,0,28,0,1,,,,,,,,,,,,,,,,,
294601,2022-09-24_19h52.38.644,vts_reward_expectancy,2022.2.4,MacIntel,60.0024001,Chrome,1558,1015,,,,,0,576,,,,,,,,,,,,,,,,,Y,146,circle,1,0,,,,,,,,,,,,,,,,repeat,number,numRpt,j,0.9308,noRew,,,,,,0,29,0,29,0,1,,,,,,,,,,,,,,,,,
294601,2022-09-24_19h52.38.644,vts_reward_expectancy,2022.2.4,MacIntel,60.0024001,Chrome,1558,1015,,,,,0,576,,,,,,,,,,,,,,,,,D,139,star,1,0,,,,,,,,,,,,,,,,switch,letter,lettSwt,d,1.6881,noRew,,,,,,0,30,0,30,0,1,,,,,,,,,,,,,,,,,
294601,2022-09-24_19h52.38.644,vts_reward_expectancy,2022.2.4,MacIntel,60.0024001,Chrome,1558,1015,,,,,0,576,,,,,,,,,,,,,,,,,S,174,triangle,1,0,,,,,,,,,,,,,,,,switch,number,numSwt,k,1.1016,noRew,,,,,,0,31,0,31,0,1,,,,,,,,,,,,,,,,,
294601,2022-09-24_19h52.38.644,vts_reward_expectancy,2022.2.4,MacIntel,60.0024001,Chrome,1558,1015,,,,,0,576,,,,,,,,,,,,,,,,,S,181,triangle,1,0,,,,,,,,,,,,,,,,repeat,number,numRpt,k,1.1491,noRew,,,,,,0,32,0,32,0,1,,,,,,,,,,,,,,,,,
294601,2022-09-24_19h52.38.644,vts_reward_expectancy,2022.2.4,MacIntel,60.0024001,Chrome,1558,1015,,,,,0,576,,,,,,,,,,,,,,,,,B,146,hexagon,1,0,,,,,,,,,,,,,,,,switch,letter,lettSwt,d,1.2484,noRew,,,,,,0,33,0,33,0,1,,,,,,,,,,,,,,,,,
294601,2022-09-24_19h52.38.644,vts_reward_expectancy,2022.2.4,MacIntel,60.0024001,Chrome,1558,1015,,,,,0,576,,,,,,,,,,,,,,,,,D,139,triangle,1,0,,,,,,,,,,,,,,,,repeat,letter,lettRpt,d,0.7663,noRew,,,,,,0,34,0,34,0,1,,,,,,,,,,,,,,,,,
294601,2022-09-24_19h52.38.644,vts_reward_expectancy,2022.2.4,MacIntel,60.0024001,Chrome,1558,1015,,,,,0,576,,,,,,,,,,,,,,,,,W,125,circle,1,0,,,,,,,,,,,,,,,,repeat,letter,lettRpt,f,0.8019,noRew,,,,,,0,35,0,35,0,1,,,,,,,,,,,,,,,,,
294601,2022-09-24_19h52.38.644,vts_reward_expectancy,2022.2.4,MacIntel,60.0024001,Chrome,1558,1015,,,,,0,576,,,,,,,,,,,,,,,,,Y,181,circle,1,0,,,,,,,,,,,,,,,,switch,number,numSwt,k,1.032,noRew,,,,,,0,36,0,36,0,1,,,,,,,,,,,,,,,,,
294601,2022-09-24_19h52.38.644,vts_reward_expectancy,2022.2.4,MacIntel,60.0024001,Chrome,1558,1015,,,,,0,576,,,,,,,,,,,,,,,,,S,167,star,1,0,,,,,,,,,,,,,,,,repeat,number,numRpt,k,0.8214,noRew,,,,,,0,37,0,37,0,1,,,,,,,,,,,,,,,,,
294601,2022-09-24_19h52.38.644,vts_reward_expectancy,2022.2.4,MacIntel,60.0024001,Chrome,1558,1015,,,,,0,576,,,,,,,,,,,,,,,,,F,160,circle,1,0,,,,,,,,,,,,,,,,repeat,number,numRpt,k,0.9013,noRew,,,,,,0,38,0,38,0,1,,,,,,,,,,,,,,,,,
294601,2022-09-24_19h52.38.644,vts_reward_expectancy,2022.2.4,MacIntel,60.0024001,Chrome,1558,1015,,,,,0,576,,,,,,,,,,,,,,,,,D,146,triangle,1,0,,,,,,,,,,,,,,,,repeat,number,numRpt,j,0.9866,noRew,,,,,,0,39,0,39,0,1,,,,,,,,,,,,,,,,,
294601,2022-09-24_19h52.38.644,vts_reward_expectancy,2022.2.4,MacIntel,60.0024001,Chrome,1558,1015,,,,,0,576,,,,,,,,,,,,,,,,,B,181,circle,1,0,,,,,,,,,,,,,,,,switch,letter,lettSwt,d,1.1582,noRew,,,,,,0,40,0,40,0,1,,,,,,,,,,,,,,,,,
294601,2022-09-24_19h52.38.644,vts_reward_expectancy,2022.2.4,MacIntel,60.0024001,Chrome,1558,1015,,,,,0,576,,,,,,,,,,,,,,,,,S,146,hexagon,1,0,,,,,,,,,,,,,,,,repeat,letter,lettRpt,f,2.1067,noRew,,,,,,0,41,0,41,0,1,,,,,,,,,,,,,,,,,
294601,2022-09-24_19h52.38.644,vts_reward_expectancy,2022.2.4,MacIntel,60.0024001,Chrome,1558,1015,,,,,0,576,,,,,,,,,,,,,,,,,W,174,triangle,1,0,,,,,,,,,,,,,,,,repeat,letter,lettRpt,f,1.2568,noRew,,,,,,0,42,0,42,0,1,,,,,,,,,,,,,,,,,
294601,2022-09-24_19h52.38.644,vts_reward_expectancy,2022.2.4,MacIntel,60.0024001,Chrome,1558,1015,,,,,0,576,,,,,,,,,,,,,,,,,H,132,hexagon,1,0,,,,,,,,,,,,,,,,switch,number,numSwt,j,2.1024,noRew,,,,,,0,43,0,43,0,1,,,,,,,,,,,,,,,,,
294601,2022-09-24_19h52.38.644,vts_reward_expectancy,2022.2.4,MacIntel,60.0024001,Chrome,1558,1015,,,,,0,576,,,,,,,,,,,,,,,,,S,132,star,1,0,,,,,,,,,,,,,,,,repeat,number,numRpt,j,1.0827,noRew,,,,,,0,44,0,44,0,1,,,,,,,,,,,,,,,,,
294601,2022-09-24_19h52.38.644,vts_reward_expectancy,2022.2.4,MacIntel,60.0024001,Chrome,1558,1015,,,,,0,576,,,,,,,,,,,,,,,,,W,160,circle,1,0,,,,,,,,,,,,,,,,repeat,number,numRpt,k,1.3553,noRew,,,,,,0,45,0,45,0,1,,,,,,,,,,,,,,,,,
294601,2022-09-24_19h52.38.644,vts_reward_expectancy,2022.2.4,MacIntel,60.0024001,Chrome,1558,1015,,,,,0,576,,,,,,,,,,,,,,,,,B,146,circle,1,0,,,,,,,,,,,,,,,,switch,letter,lettSwt,d,1.4037,noRew,,,,,,0,46,0,46,0,1,,,,,,,,,,,,,,,,,
294601,2022-09-24_19h52.38.644,vts_reward_expectancy,2022.2.4,MacIntel,60.0024001,Chrome,1558,1015,,,,,0,576,,,,,,,,,,,,,,,,,F,181,triangle,1,0,,,,,,,,,,,,,,,,repeat,letter,lettRpt,d,1.0493,noRew,,,,,,0,47,0,47,0,1,,,,,,,,,,,,,,,,,
294601,2022-09-24_19h52.38.644,vts_reward_expectancy,2022.2.4,MacIntel,60.0024001,Chrome,1558,1015,,,,,0,576,,,,,,,,,,,,,,,,,B,125,hexagon,1,0,,,,,,,,,,,,,,,,repeat,letter,lettRpt,d,0.7494,noRew,,,,,,0,48,0,48,0,1,,,,,,,,,,,,,,,,,
294601,2022-09-24_19h52.38.644,vts_reward_expectancy,2022.2.4,MacIntel,60.0024001,Chrome,1558,1015,,,,,0,576,,,,,,,,,,,,,,,,,S,181,triangle,1,0,,,,,,,,,,,,,,,,repeat,letter,lettRpt,f,0.9531,noRew,,,,,,0,49,0,49,0,1,,,,,,,,,,,,,,,,,
294601,2022-09-24_19h52.38.644,vts_reward_expectancy,2022.2.4,MacIntel,60.0024001,Chrome,1558,1015,,,,,0,576,,,,,,,,,,,,,,,,,F,174,circle,1,0,,,,,,,,,,,,,,,,switch,number,numSwt,k,1.4473,noRew,,,,,,0,50,0,50,0,1,,,,,,,,,,,,,,,,,
294601,2022-09-24_19h52.38.644,vts_reward_expectancy,2022.2.4,MacIntel,60.0024001,Chrome,1558,1015,,,,,0,576,,,,,,,,,,,,,,,,,D,139,triangle,1,0,,,,,,,,,,,,,,,,repeat,number,numRpt,j,0.8019,noRew,,,,,,0,51,0,51,0,1,,,,,,,,,,,,,,,,,
294601,2022-09-24_19h52.38.644,vts_reward_expectancy,2022.2.4,MacIntel,60.0024001,Chrome,1558,1015,,,,,0,576,,,,,,,,,,,,,,,,,W,139,circle,1,0,,,,,,,,,,,,,,,,switch,letter,lettSwt,f,1.5637,noRew,,,,,,0,52,0,52,0,1,,,,,,,,,,,,,,,,,
294601,2022-09-24_19h52.38.644,vts_reward_expectancy,2022.2.4,MacIntel,60.0024001,Chrome,1558,1015,,,,,0,576,,,,,,,,,,,,,,,,,S,146,star,1,0,,,,,,,,,,,,,,,,repeat,letter,lettRpt,f,1.4495,noRew,,,,,,0,53,0,53,0,1,,,,,,,,,,,,,,,,,
294601,2022-09-24_19h52.38.644,vts_reward_expectancy,2022.2.4,MacIntel,60.0024001,Chrome,1558,1015,,,,,0,576,,,,,,,,,,,,,,,,,D,181,circle,1,0,,,,,,,,,,,,,,,,switch,number,numSwt,k,1.4322,noRew,,,,,,0,54,0,54,0,1,,,,,,,,,,,,,,,,,
294601,2022-09-24_19h52.38.644,vts_reward_expectancy,2022.2.4,MacIntel,60.0024001,Chrome,1558,1015,,,,,0,576,,,,,,,,,,,,,,,,,B,160,triangle,1,0,,,,,,,,,,,,,,,,switch,letter,lettSwt,d,1.2077,noRew,,,,,,0,55,0,55,0,1,,,,,,,,,,,,,,,,,
294601,2022-09-24_19h52.38.644,vts_reward_expectancy,2022.2.4,MacIntel,60.0024001,Chrome,1558,1015,,,,,0,576,,,,,,,,,,,,,,,,,S,125,star,1,0,,,,,,,,,,,,,,,,switch,number,numSwt,j,2.0188,noRew,,,,,,0,56,0,56,0,1,,,,,,,,,,,,,,,,,
294601,2022-09-24_19h52.38.644,vts_reward_expectancy,2022.2.4,MacIntel,60.0024001,Chrome,1558,1015,,,,,0,576,,,,,,,,,,,,,,,,,H,167,hexagon,0,0,,,,,,,,,,,,,,,,repeat,number,NA,j,1.9012,noRew,,,,,,0,57,0,57,0,1,,,,,,,,,,,,,,,,,
294601,2022-09-24_19h52.38.644,vts_reward_expectancy,2022.2.4,MacIntel,60.0024001,Chrome,1558,1015,,,,,0,576,,,,,,,,,,,,,,,,,W,181,hexagon,1,1,,,,,,,,,,,,,,,,switch,letter,lettSwt,f,1.2683,noRew,,,,,,0,58,0,58,0,1,,,,,,,,,,,,,,,,,
294601,2022-09-24_19h52.38.644,vts_reward_expectancy,2022.2.4,MacIntel,60.0024001,Chrome,1558,1015,,,,,0,576,,,,,,,,,,,,,,,,,Y,174,triangle,1,0,,,,,,,,,,,,,,,,switch,number,numSwt,k,1.3363,noRew,,,,,,0,59,0,59,0,1,,,,,,,,,,,,,,,,,
294601,2022-09-24_19h52.38.644,vts_reward_expectancy,2022.2.4,MacIntel,60.0024001,Chrome,1558,1015,,,,,0,576,,,,,,,,,,,,,,,,,U,181,star,1,0,,,,,,,,,,,,,,,,switch,letter,lettSwt,f,1.2671,noRew,,,,,,0,60,0,60,0,1,,,,,,,,,,,,,,,,,
294601,2022-09-24_19h52.38.644,vts_reward_expectancy,2022.2.4,MacIntel,60.0024001,Chrome,1558,1015,,,,,0,576,,,,,,,,,,,,,,,,,F,125,hexagon,1,0,,,,,,,,,,,,,,,,switch,number,numSwt,j,0.8477,noRew,,,,,,0,61,0,61,0,1,,,,,,,,,,,,,,,,,
294601,2022-09-24_19h52.38.644,vts_reward_expectancy,2022.2.4,MacIntel,60.0024001,Chrome,1558,1015,,,,,0,576,,,,,,,,,,,,,,,,,B,146,triangle,1,0,,,,,,,,,,,,,,,,repeat,number,numRpt,j,1.0634,noRew,,,,,,0,62,0,62,0,1,,,,,,,,,,,,,,,,,
294601,2022-09-24_19h52.38.644,vts_reward_expectancy,2022.2.4,MacIntel,60.0024001,Chrome,1558,1015,,,,,0,576,,,,,,,,,,,,,,,,,W,174,hexagon,1,0,,,,,,,,,,,,,,,,repeat,number,numRpt,k,1.4823,noRew,,,,,,0,63,0,63,0,1,,,,,,,,,,,,,,,,,
294601,2022-09-24_19h52.38.644,vts_reward_expectancy,2022.2.4,MacIntel,60.0024001,Chrome,1558,1015,,,,,,,,,,,,,,,,,,,,,,,,,,,,,,,,,,,,,,,,,,,,,,,,,,,,,,,,,,,,,,,,,,,,,,,,,,,,
294601,2022-09-24_19h52.38.644,vts_reward_expectancy,2022.2.4,MacIntel,60.0024001,Chrome,1558,1015,,,,,10,586,,,,,,,,,,,,,,,,,H,174,triangle,1,0,,,,,,,,,,,,,,,,switch,letter,lettSwt,d,0.9654,Lo,,,,,,0,,,,,,space,16.2506,low,0,0,0,0,1,,,,,,,,,
294601,2022-09-24_19h52.38.644,vts_reward_expectancy,2022.2.4,MacIntel,60.0024001,Chrome,1558,1015,,,,,1,587,,,,,,,,,,,,,,,,,D,125,circle,1,0,,,,,,,,,,,,,,,,switch,number,numSwt,j,0.9381,Hi,,,,,,0,,,,,,,,low,1,0,1,0,1,,,,,,,,,
294601,2022-09-24_19h52.38.644,vts_reward_expectancy,2022.2.4,MacIntel,60.0024001,Chrome,1558,1015,,,,,10,597,,,,,,,,,,,,,,,,,W,139,triangle,1,0,,,,,,,,,,,,,,,,repeat,number,numRpt,j,1.3497,Lo,,,,,,0,,,,,,,,low,2,0,2,0,1,,,,,,,,,
294601,2022-09-24_19h52.38.644,vts_reward_expectancy,2022.2.4,MacIntel,60.0024001,Chrome,1558,1015,,,,,10,607,,,,,,,,,,,,,,,,,S,146,circle,1,0,,,,,,,,,,,,,,,,switch,letter,lettSwt,f,1.0454,Hi,,,,,,0,,,,,,,,low,3,0,3,0,1,,,,,,,,,
294601,2022-09-24_19h52.38.644,vts_reward_expectancy,2022.2.4,MacIntel,60.0024001,Chrome,1558,1015,,,,,10,617,,,,,,,,,,,,,,,,,B,132,triangle,1,0,,,,,,,,,,,,,,,,repeat,letter,lettRpt,d,1.1604,Lo,,,,,,0,,,,,,,,low,4,0,4,0,1,,,,,,,,,
294601,2022-09-24_19h52.38.644,vts_reward_expectancy,2022.2.4,MacIntel,60.0024001,Chrome,1558,1015,,,,,0,617,,,,,,,,,,,,,,,,,F,167,circle,1,0,,,,,,,,,,,,,,,,switch,number,numSwt,k,1.3214,Hi,,,,,,0,,,,,,,,low,5,0,5,0,1,,,,,,,,,
294601,2022-09-24_19h52.38.644,vts_reward_expectancy,2022.2.4,MacIntel,60.0024001,Chrome,1558,1015,,,,,10,627,,,,,,,,,,,,,,,,,U,160,circle,1,0,,,,,,,,,,,,,,,,switch,letter,lettSwt,f,0.6866,Hi,,,,,,0,,,,,,,,low,6,0,6,0,1,,,,,,,,,
294601,2022-09-24_19h52.38.644,vts_reward_expectancy,2022.2.4,MacIntel,60.0024001,Chrome,1558,1015,,,,,10,637,,,,,,,,,,,,,,,,,Y,181,triangle,1,0,,,,,,,,,,,,,,,,repeat,letter,lettRpt,f,0.8297,Lo,,,,,,0,,,,,,,,low,7,0,7,0,1,,,,,,,,,
294601,2022-09-24_19h52.38.644,vts_reward_expectancy,2022.2.4,MacIntel,60.0024001,Chrome,1558,1015,,,,,1,638,,,,,,,,,,,,,,,,,H,174,triangle,1,0,,,,,,,,,,,,,,,,switch,number,numSwt,k,1.335,Lo,,,,,,0,,,,,,,,low,8,0,8,0,1,,,,,,,,,
294601,2022-09-24_19h52.38.644,vts_reward_expectancy,2022.2.4,MacIntel,60.0024001,Chrome,1558,1015,,,,,0,638,,,,,,,,,,,,,,,,,D,125,circle,1,0,,,,,,,,,,,,,,,,repeat,number,numRpt,j,0.9517,Hi,,,,,,0,,,,,,,,low,9,0,9,0,1,,,,,,,,,
294601,2022-09-24_19h52.38.644,vts_reward_expectancy,2022.2.4,MacIntel,60.0024001,Chrome,1558,1015,,,,,0,638,,,,,,,,,,,,,,,,,W,139,circle,1,0,,,,,,,,,,,,,,,,switch,letter,lettSwt,f,1.3286,Hi,,,,,,0,,,,,,,,low,10,0,10,0,1,,,,,,,,,
294601,2022-09-24_19h52.38.644,vts_reward_expectancy,2022.2.4,MacIntel,60.0024001,Chrome,1558,1015,,,,,10,648,,,,,,,,,,,,,,,,,S,146,triangle,1,0,,,,,,,,,,,,,,,,repeat,letter,lettRpt,f,0.562,Lo,,,,,,0,,,,,,,,low,11,0,11,0,1,,,,,,,,,
294601,2022-09-24_19h52.38.644,vts_reward_expectancy,2022.2.4,MacIntel,60.0024001,Chrome,1558,1015,,,,,0,648,,,,,,,,,,,,,,,,,B,132,triangle,0,0,,,,,,,,,,,,,,,,switch,number,NA,k,0.8281,Lo,,,,,,0,,,,,,,,low,12,0,12,0,1,,,,,,,,,
294601,2022-09-24_19h52.38.644,vts_reward_expectancy,2022.2.4,MacIntel,60.0024001,Chrome,1558,1015,,,,,1,649,,,,,,,,,,,,,,,,,F,167,circle,1,1,,,,,,,,,,,,,,,,switch,letter,lettSwt,d,0.9619,Hi,,,,,,0,,,,,,,,low,13,0,13,0,1,,,,,,,,,
294601,2022-09-24_19h52.38.644,vts_reward_expectancy,2022.2.4,MacIntel,60.0024001,Chrome,1558,1015,,,,,1,650,,,,,,,,,,,,,,,,,U,160,triangle,1,0,,,,,,,,,,,,,,,,repeat,letter,lettRpt,f,0.7856,Lo,,,,,,0,,,,,,,,low,14,0,14,0,1,,,,,,,,,
294601,2022-09-24_19h52.38.644,vts_reward_expectancy,2022.2.4,MacIntel,60.0024001,Chrome,1558,1015,,,,,0,650,,,,,,,,,,,,,,,,,Y,181,circle,1,0,,,,,,,,,,,,,,,,switch,number,numSwt,k,1.0138,Hi,,,,,,0,,,,,,,,low,15,0,15,0,1,,,,,,,,,
294601,2022-09-24_19h52.38.644,vts_reward_expectancy,2022.2.4,MacIntel,60.0024001,Chrome,1558,1015,,,,,1,651,,,,,,,,,,,,,,,,,Y,146,triangle,1,0,,,,,,,,,,,,,,,,switch,letter,lettSwt,f,0.6151,Lo,,,,,,0,,,,,,,,low,16,0,16,0,1,,,,,,,,,
294601,2022-09-24_19h52.38.644,vts_reward_expectancy,2022.2.4,MacIntel,60.0024001,Chrome,1558,1015,,,,,10,661,,,,,,,,,,,,,,,,,H,181,circle,1,0,,,,,,,,,,,,,,,,switch,number,numSwt,k,0.782,Hi,,,,,,0,,,,,,,,low,17,0,17,0,1,,,,,,,,,
294601,2022-09-24_19h52.38.644,vts_reward_expectancy,2022.2.4,MacIntel,60.0024001,Chrome,1558,1015,,,,,1,662,,,,,,,,,,,,,,,,,U,174,triangle,1,0,,,,,,,,,,,,,,,,switch,letter,lettSwt,f,0.6346,Lo,,,,,,0,,,,,,,,low,18,0,18,0,1,,,,,,,,,
294601,2022-09-24_19h52.38.644,vts_reward_expectancy,2022.2.4,MacIntel,60.0024001,Chrome,1558,1015,,,,,10,672,,,,,,,,,,,,,,,,,S,139,circle,1,0,,,,,,,,,,,,,,,,repeat,letter,lettRpt,f,0.7859,Hi,,,,,,0,,,,,,,,low,19,0,19,0,1,,,,,,,,,
294601,2022-09-24_19h52.38.644,vts_reward_expectancy,2022.2.4,MacIntel,60.0024001,Chrome,1558,1015,,,,,1,673,,,,,,,,,,,,,,,,,W,167,circle,1,0,,,,,,,,,,,,,,,,repeat,letter,lettRpt,f,0.6286,Hi,,,,,,0,,,,,,,,low,20,0,20,0,1,,,,,,,,,
294601,2022-09-24_19h52.38.644,vts_reward_expectancy,2022.2.4,MacIntel,60.0024001,Chrome,1558,1015,,,,,10,683,,,,,,,,,,,,,,,,,F,132,triangle,1,0,,,,,,,,,,,,,,,,repeat,letter,lettRpt,d,1.0633,Lo,,,,,,0,,,,,,,,low,21,0,21,0,1,,,,,,,,,
294601,2022-09-24_19h52.38.644,vts_reward_expectancy,2022.2.4,MacIntel,60.0024001,Chrome,1558,1015,,,,,0,683,,,,,,,,,,,,,,,,,D,160,circle,1,0,,,,,,,,,,,,,,,,switch,number,numSwt,k,1.6458,Hi,,,,,,0,,,,,,,,low,22,0,22,0,1,,,,,,,,,
294601,2022-09-24_19h52.38.644,vts_reward_expectancy,2022.2.4,MacIntel,60.0024001,Chrome,1558,1015,,,,,10,693,,,,,,,,,,,,,,,,,B,125,triangle,1,0,,,,,,,,,,,,,,,,repeat,number,numRpt,j,0.7511,Lo,,,,,,0,,,,,,,,low,23,0,23,0,1,,,,,,,,,
294601,2022-09-24_19h52.38.644,vts_reward_expectancy,2022.2.4,MacIntel,60.0024001,Chrome,1558,1015,,,,,0,693,,,,,,,,,,,,,,,,,B,167,circle,1,0,,,,,,,,,,,,,,,,repeat,number,numRpt,k,1.0968,Hi,,,,,,0,,,,,,,,low,24,0,24,0,1,,,,,,,,,
294601,2022-09-24_19h52.38.644,vts_reward_expectancy,2022.2.4,MacIntel,60.0024001,Chrome,1558,1015,,,,,10,703,,,,,,,,,,,,,,,,,S,146,triangle,1,0,,,,,,,,,,,,,,,,repeat,number,numRpt,j,0.7691,Lo,,,,,,0,,,,,,,,low,25,0,25,0,1,,,,,,,,,
294601,2022-09-24_19h52.38.644,vts_reward_expectancy,2022.2.4,MacIntel,60.0024001,Chrome,1558,1015,,,,,1,704,,,,,,,,,,,,,,,,,W,132,triangle,1,0,,,,,,,,,,,,,,,,repeat,number,numRpt,j,0.8343,Lo,,,,,,0,,,,,,,,low,26,0,26,0,1,,,,,,,,,
294601,2022-09-24_19h52.38.644,vts_reward_expectancy,2022.2.4,MacIntel,60.0024001,Chrome,1558,1015,,,,,1,705,,,,,,,,,,,,,,,,,U,125,circle,1,0,,,,,,,,,,,,,,,,switch,letter,lettSwt,f,0.7935,Hi,,,,,,0,,,,,,,,low,27,0,27,0,1,,,,,,,,,
294601,2022-09-24_19h52.38.644,vts_reward_expectancy,2022.2.4,MacIntel,60.0024001,Chrome,1558,1015,,,,,10,715,,,,,,,,,,,,,,,,,H,174,circle,1,0,,,,,,,,,,,,,,,,switch,number,numSwt,k,0.8288,Hi,,,,,,0,,,,,,,,low,28,0,28,0,1,,,,,,,,,
294601,2022-09-24_19h52.38.644,vts_reward_expectancy,2022.2.4,MacIntel,60.0024001,Chrome,1558,1015,,,,,1,716,,,,,,,,,,,,,,,,,F,139,triangle,1,0,,,,,,,,,,,,,,,,repeat,number,numRpt,j,0.8155,Lo,,,,,,0,,,,,,,,low,29,0,29,0,1,,,,,,,,,
294601,2022-09-24_19h52.38.644,vts_reward_expectancy,2022.2.4,MacIntel,60.0024001,Chrome,1558,1015,,,,,10,726,,,,,,,,,,,,,,,,,D,160,triangle,1,0,,,,,,,,,,,,,,,,repeat,number,numRpt,k,1.5128,Lo,,,,,,0,,,,,,,,low,30,0,30,0,1,,,,,,,,,
294601,2022-09-24_19h52.38.644,vts_reward_expectancy,2022.2.4,MacIntel,60.0024001,Chrome,1558,1015,,,,,10,736,,,,,,,,,,,,,,,,,Y,181,circle,1,0,,,,,,,,,,,,,,,,switch,letter,lettSwt,f,0.4479,Hi,,,,,,0,,,,,,,,low,31,0,31,0,1,,,,,,,,,
294601,2022-09-24_19h52.38.644,vts_reward_expectancy,2022.2.4,MacIntel,60.0024001,Chrome,1558,1015,,,,,10,746,,,,,,,,,,,,,,,,,S,146,hexagon,1,0,,,,,,,,,,,,,,,,switch,number,numSwt,j,0.7958,Lo,,,,,,1,,,,,,space,16.933,high,0,0,0,0,1,,,,,,,,,
294601,2022-09-24_19h52.38.644,vts_reward_expectancy,2022.2.4,MacIntel,60.0024001,Chrome,1558,1015,,,,,0,746,,,,,,,,,,,,,,,,,F,132,star,1,0,,,,,,,,,,,,,,,,repeat,number,numRpt,j,0.8625,Hi,,,,,,1,,,,,,,,high,1,0,1,0,1,,,,,,,,,
294601,2022-09-24_19h52.38.644,vts_reward_expectancy,2022.2.4,MacIntel,60.0024001,Chrome,1558,1015,,,,,1,747,,,,,,,,,,,,,,,,,D,160,hexagon,1,0,,,,,,,,,,,,,,,,switch,letter,lettSwt,d,0.4802,Lo,,,,,,1,,,,,,,,high,2,0,2,0,1,,,,,,,,,
294601,2022-09-24_19h52.38.644,vts_reward_expectancy,2022.2.4,MacIntel,60.0024001,Chrome,1558,1015,,,,,10,757,,,,,,,,,,,,,,,,,B,167,star,1,0,,,,,,,,,,,,,,,,switch,number,numSwt,k,0.5961,Hi,,,,,,1,,,,,,,,high,3,0,3,0,1,,,,,,,,,
294601,2022-09-24_19h52.38.644,vts_reward_expectancy,2022.2.4,MacIntel,60.0024001,Chrome,1558,1015,,,,,1,758,,,,,,,,,,,,,,,,,H,181,hexagon,1,0,,,,,,,,,,,,,,,,repeat,number,numRpt,k,1.0483,Lo,,,,,,1,,,,,,,,high,4,0,4,0,1,,,,,,,,,
294601,2022-09-24_19h52.38.644,vts_reward_expectancy,2022.2.4,MacIntel,60.0024001,Chrome,1558,1015,,,,,0,758,,,,,,,,,,,,,,,,,Y,125,star,0,0,,,,,,,,,,,,,,,,switch,letter,NA,d,1.2988,Lo,,,,,,1,,,,,,,,high,5,0,5,0,1,,,,,,,,,
294601,2022-09-24_19h52.38.644,vts_reward_expectancy,2022.2.4,MacIntel,60.0024001,Chrome,1558,1015,,,,,10,768,,,,,,,,,,,,,,,,,W,174,star,1,1,,,,,,,,,,,,,,,,switch,number,numSwt,k,0.7962,Hi,,,,,,1,,,,,,,,high,6,0,6,0,1,,,,,,,,,
294601,2022-09-24_19h52.38.644,vts_reward_expectancy,2022.2.4,MacIntel,60.0024001,Chrome,1558,1015,,,,,1,769,,,,,,,,,,,,,,,,,U,139,hexagon,1,0,,,,,,,,,,,,,,,,repeat,number,numRpt,j,0.7996,Lo,,,,,,1,,,,,,,,high,7,0,7,0,1,,,,,,,,,
294601,2022-09-24_19h52.38.644,vts_reward_expectancy,2022.2.4,MacIntel,60.0024001,Chrome,1558,1015,,,,,0,769,,,,,,,,,,,,,,,,,S,146,star,1,0,,,,,,,,,,,,,,,,repeat,number,numRpt,j,0.9694,Hi,,,,,,1,,,,,,,,high,8,0,8,0,1,,,,,,,,,
294601,2022-09-24_19h52.38.644,vts_reward_expectancy,2022.2.4,MacIntel,60.0024001,Chrome,1558,1015,,,,,1,770,,,,,,,,,,,,,,,,,F,132,hexagon,1,0,,,,,,,,,,,,,,,,switch,letter,lettSwt,d,0.8289,Lo,,,,,,1,,,,,,,,high,9,0,9,0,1,,,,,,,,,
294601,2022-09-24_19h52.38.644,vts_reward_expectancy,2022.2.4,MacIntel,60.0024001,Chrome,1558,1015,,,,,1,771,,,,,,,,,,,,,,,,,D,160,hexagon,1,0,,,,,,,,,,,,,,,,repeat,letter,lettRpt,d,0.7191,Lo,,,,,,1,,,,,,,,high,10,0,10,0,1,,,,,,,,,
294601,2022-09-24_19h52.38.644,vts_reward_expectancy,2022.2.4,MacIntel,60.0024001,Chrome,1558,1015,,,,,0,771,,,,,,,,,,,,,,,,,B,167,star,1,0,,,,,,,,,,,,,,,,repeat,letter,lettRpt,d,0.7992,Hi,,,,,,1,,,,,,,,high,11,0,11,0,1,,,,,,,,,
294601,2022-09-24_19h52.38.644,vts_reward_expectancy,2022.2.4,MacIntel,60.0024001,Chrome,1558,1015,,,,,10,781,,,,,,,,,,,,,,,,,H,181,star,1,0,,,,,,,,,,,,,,,,switch,number,numSwt,k,0.631,Hi,,,,,,1,,,,,,,,high,12,0,12,0,1,,,,,,,,,
294601,2022-09-24_19h52.38.644,vts_reward_expectancy,2022.2.4,MacIntel,60.0024001,Chrome,1558,1015,,,,,1,782,,,,,,,,,,,,,,,,,Y,125,hexagon,1,0,,,,,,,,,,,,,,,,switch,letter,lettSwt,f,0.6313,Lo,,,,,,1,,,,,,,,high,13,0,13,0,1,,,,,,,,,
294601,2022-09-24_19h52.38.644,vts_reward_expectancy,2022.2.4,MacIntel,60.0024001,Chrome,1558,1015,,,,,10,792,,,,,,,,,,,,,,,,,W,174,hexagon,1,0,,,,,,,,,,,,,,,,switch,number,numSwt,k,0.5478,Lo,,,,,,1,,,,,,,,high,14,0,14,0,1,,,,,,,,,
294601,2022-09-24_19h52.38.644,vts_reward_expectancy,2022.2.4,MacIntel,60.0024001,Chrome,1558,1015,,,,,1,793,,,,,,,,,,,,,,,,,U,139,star,1,0,,,,,,,,,,,,,,,,repeat,number,numRpt,j,0.6367,Hi,,,,,,1,,,,,,,,high,15,0,15,0,1,,,,,,,,,
294601,2022-09-24_19h52.38.644,vts_reward_expectancy,2022.2.4,MacIntel,60.0024001,Chrome,1558,1015,,,,,0,793,,,,,,,,,,,,,,,,,Y,167,star,1,0,,,,,,,,,,,,,,,,switch,letter,lettSwt,f,0.798,Hi,,,,,,1,,,,,,,,high,16,0,16,0,1,,,,,,,,,
294601,2022-09-24_19h52.38.644,vts_reward_expectancy,2022.2.4,MacIntel,60.0024001,Chrome,1558,1015,,,,,1,794,,,,,,,,,,,,,,,,,U,139,hexagon,1,0,,,,,,,,,,,,,,,,repeat,letter,lettRpt,f,0.7986,Lo,,,,,,1,,,,,,,,high,17,0,17,0,1,,,,,,,,,
294601,2022-09-24_19h52.38.644,vts_reward_expectancy,2022.2.4,MacIntel,60.0024001,Chrome,1558,1015,,,,,10,804,,,,,,,,,,,,,,,,,F,160,star,1,0,,,,,,,,,,,,,,,,switch,number,numSwt,k,0.5482,Hi,,,,,,1,,,,,,,,high,18,0,18,0,1,,,,,,,,,
294601,2022-09-24_19h52.38.644,vts_reward_expectancy,2022.2.4,MacIntel,60.0024001,Chrome,1558,1015,,,,,1,805,,,,,,,,,,,,,,,,,H,146,hexagon,1,0,,,,,,,,,,,,,,,,repeat,number,numRpt,j,0.6983,Lo,,,,,,1,,,,,,,,high,19,0,19,0,1,,,,,,,,,
294601,2022-09-24_19h52.38.644,vts_reward_expectancy,2022.2.4,MacIntel,60.0024001,Chrome,1558,1015,,,,,10,815,,,,,,,,,,,,,,,,,D,125,star,1,0,,,,,,,,,,,,,,,,repeat,number,numRpt,j,0.7369,Hi,,,,,,1,,,,,,,,high,20,0,20,0,1,,,,,,,,,
294601,2022-09-24_19h52.38.644,vts_reward_expectancy,2022.2.4,MacIntel,60.0024001,Chrome,1558,1015,,,,,1,816,,,,,,,,,,,,,,,,,B,174,hexagon,1,0,,,,,,,,,,,,,,,,repeat,number,numRpt,k,0.7819,Lo,,,,,,1,,,,,,,,high,21,0,21,0,1,,,,,,,,,
294601,2022-09-24_19h52.38.644,vts_reward_expectancy,2022.2.4,MacIntel,60.0024001,Chrome,1558,1015,,,,,0,816,,,,,,,,,,,,,,,,,S,132,star,1,0,,,,,,,,,,,,,,,,switch,letter,lettSwt,f,0.8136,Hi,,,,,,1,,,,,,,,high,22,0,22,0,1,,,,,,,,,
294601,2022-09-24_19h52.38.644,vts_reward_expectancy,2022.2.4,MacIntel,60.0024001,Chrome,1558,1015,,,,,1,817,,,,,,,,,,,,,,,,,W,181,hexagon,1,0,,,,,,,,,,,,,,,,switch,number,numSwt,k,0.6485,Lo,,,,,,1,,,,,,,,high,23,0,23,0,1,,,,,,,,,
294601,2022-09-24_19h52.38.644,vts_reward_expectancy,2022.2.4,MacIntel,60.0024001,Chrome,1558,1015,,,,,1,818,,,,,,,,,,,,,,,,,S,160,hexagon,1,0,,,,,,,,,,,,,,,,switch,letter,lettSwt,f,0.5883,Lo,,,,,,1,,,,,,,,high,24,0,24,0,1,,,,,,,,,
294601,2022-09-24_19h52.38.644,vts_reward_expectancy,2022.2.4,MacIntel,60.0024001,Chrome,1558,1015,,,,,0,818,,,,,,,,,,,,,,,,,W,125,star,1,0,,,,,,,,,,,,,,,,repeat,letter,lettRpt,f,0.9686,Hi,,,,,,1,,,,,,,,high,25,0,25,0,1,,,,,,,,,
294601,2022-09-24_19h52.38.644,vts_reward_expectancy,2022.2.4,MacIntel,60.0024001,Chrome,1558,1015,,,,,10,828,,,,,,,,,,,,,,,,,B,146,star,1,0,,,,,,,,,,,,,,,,repeat,letter,lettRpt,d,0.4979,Hi,,,,,,1,,,,,,,,high,26,0,26,0,1,,,,,,,,,
294601,2022-09-24_19h52.38.644,vts_reward_expectancy,2022.2.4,MacIntel,60.0024001,Chrome,1558,1015,,,,,10,838,,,,,,,,,,,,,,,,,Y,139,hexagon,1,0,,,,,,,,,,,,,,,,repeat,letter,lettRpt,f,0.4153,Lo,,,,,,1,,,,,,,,high,27,0,27,0,1,,,,,,,,,
294601,2022-09-24_19h52.38.644,vts_reward_expectancy,2022.2.4,MacIntel,60.0024001,Chrome,1558,1015,,,,,10,848,,,,,,,,,,,,,,,,,H,167,star,1,0,,,,,,,,,,,,,,,,switch,number,numSwt,k,0.5309,Hi,,,,,,1,,,,,,,,high,28,0,28,0,1,,,,,,,,,
294601,2022-09-24_19h52.38.644,vts_reward_expectancy,2022.2.4,MacIntel,60.0024001,Chrome,1558,1015,,,,,1,849,,,,,,,,,,,,,,,,,F,174,hexagon,1,0,,,,,,,,,,,,,,,,repeat,number,numRpt,k,0.6128,Lo,,,,,,1,,,,,,,,high,29,0,29,0,1,,,,,,,,,
294601,2022-09-24_19h52.38.644,vts_reward_expectancy,2022.2.4,MacIntel,60.0024001,Chrome,1558,1015,,,,,1,850,,,,,,,,,,,,,,,,,U,132,hexagon,1,0,,,,,,,,,,,,,,,,switch,letter,lettSwt,f,0.5849,Lo,,,,,,1,,,,,,,,high,30,0,30,0,1,,,,,,,,,
294601,2022-09-24_19h52.38.644,vts_reward_expectancy,2022.2.4,MacIntel,60.0024001,Chrome,1558,1015,,,,,10,860,,,,,,,,,,,,,,,,,D,181,star,1,0,,,,,,,,,,,,,,,,switch,number,numSwt,k,0.6311,Hi,,,,,,1,,,,,,,,high,31,0,31,0,1,,,,,,,,,
294601,2022-09-24_19h52.38.644,vts_reward_expectancy,2022.2.4,MacIntel,60.0024001,Chrome,1558,1015,,,,,0,860,,,,,,,,,,,,,,,,,F,160,star,1,0,,,,,,,,,,,,,,,,switch,letter,lettSwt,d,0.7837,Hi,,,,,,2,,,,,,space,1.128,high,0,0,0,0,1,,,,,,,,,
294601,2022-09-24_19h52.38.644,vts_reward_expectancy,2022.2.4,MacIntel,60.0024001,Chrome,1558,1015,,,,,1,861,,,,,,,,,,,,,,,,,D,146,hexagon,1,0,,,,,,,,,,,,,,,,repeat,letter,lettRpt,d,0.4647,Lo,,,,,,2,,,,,,,,high,1,0,1,0,1,,,,,,,,,
294601,2022-09-24_19h52.38.644,vts_reward_expectancy,2022.2.4,MacIntel,60.0024001,Chrome,1558,1015,,,,,10,871,,,,,,,,,,,,,,,,,B,132,star,1,0,,,,,,,,,,,,,,,,switch,number,numSwt,j,0.5206,Hi,,,,,,2,,,,,,,,high,2,0,2,0,1,,,,,,,,,
294601,2022-09-24_19h52.38.644,vts_reward_expectancy,2022.2.4,MacIntel,60.0024001,Chrome,1558,1015,,,,,0,871,,,,,,,,,,,,,,,,,U,139,hexagon,0,0,,,,,,,,,,,,,,,,repeat,number,NA,k,0.6501,Hi,,,,,,2,,,,,,,,high,3,0,3,0,1,,,,,,,,,
294601,2022-09-24_19h52.38.644,vts_reward_expectancy,2022.2.4,MacIntel,60.0024001,Chrome,1558,1015,,,,,0,871,,,,,,,,,,,,,,,,,H,167,hexagon,0,1,,,,,,,,,,,,,,,,repeat,number,NA,j,0.9956,Hi,,,,,,2,,,,,,,,high,4,0,4,0,1,,,,,,,,,
294601,2022-09-24_19h52.38.644,vts_reward_expectancy,2022.2.4,MacIntel,60.0024001,Chrome,1558,1015,,,,,10,881,,,,,,,,,,,,,,,,,S,174,star,1,1,,,,,,,,,,,,,,,,repeat,number,numRpt,k,0.6008,Hi,,,,,,2,,,,,,,,high,5,0,5,0,1,,,,,,,,,
294601,2022-09-24_19h52.38.644,vts_reward_expectancy,2022.2.4,MacIntel,60.0024001,Chrome,1558,1015,,,,,1,882,,,,,,,,,,,,,,,,,Y,181,hexagon,1,0,,,,,,,,,,,,,,,,switch,letter,lettSwt,f,0.4638,Lo,,,,,,2,,,,,,,,high,6,0,6,0,1,,,,,,,,,
294601,2022-09-24_19h52.38.644,vts_reward_expectancy,2022.2.4,MacIntel,60.0024001,Chrome,1558,1015,,,,,0,882,,,,,,,,,,,,,,,,,W,125,star,1,0,,,,,,,,,,,,,,,,repeat,letter,lettRpt,f,1.0007,Hi,,,,,,2,,,,,,,,high,7,0,7,0,1,,,,,,,,,
294601,2022-09-24_19h52.38.644,vts_reward_expectancy,2022.2.4,MacIntel,60.0024001,Chrome,1558,1015,,,,,10,892,,,,,,,,,,,,,,,,,F,160,hexagon,1,0,,,,,,,,,,,,,,,,repeat,letter,lettRpt,d,0.614,Lo,,,,,,2,,,,,,,,high,8,0,8,0,1,,,,,,,,,
294601,2022-09-24_19h52.38.644,vts_reward_expectancy,2022.2.4,MacIntel,60.0024001,Chrome,1558,1015,,,,,0,892,,,,,,,,,,,,,,,,,D,146,star,1,0,,,,,,,,,,,,,,,,repeat,letter,lettRpt,d,1.048,Hi,,,,,,2,,,,,,,,high,9,0,9,0,1,,,,,,,,,
294601,2022-09-24_19h52.38.644,vts_reward_expectancy,2022.2.4,MacIntel,60.0024001,Chrome,1558,1015,,,,,1,893,,,,,,,,,,,,,,,,,B,132,hexagon,1,0,,,,,,,,,,,,,,,,repeat,letter,lettRpt,d,0.7019,Lo,,,,,,2,,,,,,,,high,10,0,10,0,1,,,,,,,,,
294601,2022-09-24_19h52.38.644,vts_reward_expectancy,2022.2.4,MacIntel,60.0024001,Chrome,1558,1015,,,,,0,893,,,,,,,,,,,,,,,,,U,139,star,0,0,,,,,,,,,,,,,,,,repeat,letter,NA,d,0.6129,Lo,,,,,,2,,,,,,,,high,11,0,11,0,1,,,,,,,,,
294601,2022-09-24_19h52.38.644,vts_reward_expectancy,2022.2.4,MacIntel,60.0024001,Chrome,1558,1015,,,,,1,894,,,,,,,,,,,,,,,,,H,167,hexagon,1,1,,,,,,,,,,,,,,,,switch,number,numSwt,k,0.5962,Lo,,,,,,2,,,,,,,,high,12,0,12,0,1,,,,,,,,,
294601,2022-09-24_19h52.38.644,vts_reward_expectancy,2022.2.4,MacIntel,60.0024001,Chrome,1558,1015,,,,,0,894,,,,,,,,,,,,,,,,,S,174,star,1,0,,,,,,,,,,,,,,,,repeat,number,numRpt,k,0.8526,Hi,,,,,,2,,,,,,,,high,13,0,13,0,1,,,,,,,,,
294601,2022-09-24_19h52.38.644,vts_reward_expectancy,2022.2.4,MacIntel,60.0024001,Chrome,1558,1015,,,,,1,895,,,,,,,,,,,,,,,,,Y,181,hexagon,1,0,,,,,,,,,,,,,,,,repeat,number,numRpt,k,0.6967,Lo,,,,,,2,,,,,,,,high,14,0,14,0,1,,,,,,,,,
294601,2022-09-24_19h52.38.644,vts_reward_expectancy,2022.2.4,MacIntel,60.0024001,Chrome,1558,1015,,,,,10,905,,,,,,,,,,,,,,,,,W,125,star,1,0,,,,,,,,,,,,,,,,repeat,number,numRpt,j,0.5968,Hi,,,,,,2,,,,,,,,high,15,0,15,0,1,,,,,,,,,
294601,2022-09-24_19h52.38.644,vts_reward_expectancy,2022.2.4,MacIntel,60.0024001,Chrome,1558,1015,,,,,0,905,,,,,,,,,,,,,,,,,Y,181,star,1,0,,,,,,,,,,,,,,,,switch,letter,lettSwt,f,1.082,Hi,,,,,,2,,,,,,,,high,16,0,16,0,1,,,,,,,,,
294601,2022-09-24_19h52.38.644,vts_reward_expectancy,2022.2.4,MacIntel,60.0024001,Chrome,1558,1015,,,,,1,906,,,,,,,,,,,,,,,,,B,125,hexagon,1,0,,,,,,,,,,,,,,,,repeat,letter,lettRpt,d,0.788,Lo,,,,,,2,,,,,,,,high,17,0,17,0,1,,,,,,,,,
294601,2022-09-24_19h52.38.644,vts_reward_expectancy,2022.2.4,MacIntel,60.0024001,Chrome,1558,1015,,,,,0,906,,,,,,,,,,,,,,,,,W,139,star,1,0,,,,,,,,,,,,,,,,repeat,letter,lettRpt,f,1.0354,Hi,,,,,,2,,,,,,,,high,18,0,18,0,1,,,,,,,,,
294601,2022-09-24_19h52.38.644,vts_reward_expectancy,2022.2.4,MacIntel,60.0024001,Chrome,1558,1015,,,,,0,906,,,,,,,,,,,,,,,,,H,132,hexagon,0,0,,,,,,,,,,,,,,,,switch,number,NA,k,1.1517,Hi,,,,,,2,,,,,,,,high,19,0,19,0,1,,,,,,,,,
294601,2022-09-24_19h52.38.644,vts_reward_expectancy,2022.2.4,MacIntel,60.0024001,Chrome,1558,1015,,,,,0,906,,,,,,,,,,,,,,,,,D,160,hexagon,0,1,,,,,,,,,,,,,,,,repeat,number,NA,j,0.7808,Hi,,,,,,2,,,,,,,,high,20,0,20,0,1,,,,,,,,,
294601,2022-09-24_19h52.38.644,vts_reward_expectancy,2022.2.4,MacIntel,60.0024001,Chrome,1558,1015,,,,,0,906,,,,,,,,,,,,,,,,,S,167,star,1,1,,,,,,,,,,,,,,,,repeat,number,numRpt,k,0.7537,Hi,,,,,,2,,,,,,,,high,21,0,21,0,1,,,,,,,,,
294601,2022-09-24_19h52.38.644,vts_reward_expectancy,2022.2.4,MacIntel,60.0024001,Chrome,1558,1015,,,,,0,906,,,,,,,,,,,,,,,,,U,146,hexagon,0,0,,,,,,,,,,,,,,,,repeat,number,NA,k,0.8634,Hi,,,,,,2,,,,,,,,high,22,0,22,0,1,,,,,,,,,
294601,2022-09-24_19h52.38.644,vts_reward_expectancy,2022.2.4,MacIntel,60.0024001,Chrome,1558,1015,,,,,0,906,,,,,,,,,,,,,,,,,F,174,star,0,1,,,,,,,,,,,,,,,,repeat,number,NA,j,0.8947,Hi,,,,,,2,,,,,,,,high,23,0,23,0,1,,,,,,,,,
294601,2022-09-24_19h52.38.644,vts_reward_expectancy,2022.2.4,MacIntel,60.0024001,Chrome,1558,1015,,,,,1,907,,,,,,,,,,,,,,,,,H,160,hexagon,1,1,,,,,,,,,,,,,,,,switch,letter,lettSwt,d,0.9645,Lo,,,,,,2,,,,,,,,high,24,0,24,0,1,,,,,,,,,
294601,2022-09-24_19h52.38.644,vts_reward_expectancy,2022.2.4,MacIntel,60.0024001,Chrome,1558,1015,,,,,10,917,,,,,,,,,,,,,,,,,Y,146,star,1,0,,,,,,,,,,,,,,,,repeat,letter,lettRpt,f,0.5302,Hi,,,,,,2,,,,,,,,high,25,0,25,0,1,,,,,,,,,
294601,2022-09-24_19h52.38.644,vts_reward_expectancy,2022.2.4,MacIntel,60.0024001,Chrome,1558,1015,,,,,10,927,,,,,,,,,,,,,,,,,B,167,hexagon,1,0,,,,,,,,,,,,,,,,repeat,letter,lettRpt,d,0.5882,Lo,,,,,,2,,,,,,,,high,26,0,26,0,1,,,,,,,,,
294601,2022-09-24_19h52.38.644,vts_reward_expectancy,2022.2.4,MacIntel,60.0024001,Chrome,1558,1015,,,,,0,927,,,,,,,,,,,,,,,,,F,181,star,1,0,,,,,,,,,,,,,,,,repeat,letter,lettRpt,d,0.7676,Hi,,,,,,2,,,,,,,,high,27,0,27,0,1,,,,,,,,,
294601,2022-09-24_19h52.38.644,vts_reward_expectancy,2022.2.4,MacIntel,60.0024001,Chrome,1558,1015,,,,,1,928,,,,,,,,,,,,,,,,,D,139,star,1,0,,,,,,,,,,,,,,,,repeat,letter,lettRpt,d,0.6133,Hi,,,,,,2,,,,,,,,high,28,0,28,0,1,,,,,,,,,
294601,2022-09-24_19h52.38.644,vts_reward_expectancy,2022.2.4,MacIntel,60.0024001,Chrome,1558,1015,,,,,1,929,,,,,,,,,,,,,,,,,S,132,hexagon,1,0,,,,,,,,,,,,,,,,repeat,letter,lettRpt,f,0.7551,Lo,,,,,,2,,,,,,,,high,29,0,29,0,1,,,,,,,,,
294601,2022-09-24_19h52.38.644,vts_reward_expectancy,2022.2.4,MacIntel,60.0024001,Chrome,1558,1015,,,,,0,929,,,,,,,,,,,,,,,,,U,125,star,1,0,,,,,,,,,,,,,,,,repeat,letter,lettRpt,f,0.7556,Hi,,,,,,2,,,,,,,,high,30,0,30,0,1,,,,,,,,,
294601,2022-09-24_19h52.38.644,vts_reward_expectancy,2022.2.4,MacIntel,60.0024001,Chrome,1558,1015,,,,,1,930,,,,,,,,,,,,,,,,,W,174,hexagon,1,0,,,,,,,,,,,,,,,,repeat,letter,lettRpt,f,0.7126,Lo,,,,,,2,,,,,,,,high,31,0,31,0,1,,,,,,,,,
294601,2022-09-24_19h52.38.644,vts_reward_expectancy,2022.2.4,MacIntel,60.0024001,Chrome,1558,1015,,,,,0,930,,,,,,,,,,,,,,,,,Y,139,circle,1,0,,,,,,,,,,,,,,,,switch,number,numSwt,j,0.5966,Hi,,,,,,3,,,,,,space,1.0232,low,0,0,0,0,1,,,,,,,,,
294601,2022-09-24_19h52.38.644,vts_reward_expectancy,2022.2.4,MacIntel,60.0024001,Chrome,1558,1015,,,,,1,931,,,,,,,,,,,,,,,,,D,132,triangle,1,0,,,,,,,,,,,,,,,,repeat,number,numRpt,j,0.5821,Lo,,,,,,3,,,,,,,,low,1,0,1,0,1,,,,,,,,,
294601,2022-09-24_19h52.38.644,vts_reward_expectancy,2022.2.4,MacIntel,60.0024001,Chrome,1558,1015,,,,,0,931,,,,,,,,,,,,,,,,,H,181,circle,1,0,,,,,,,,,,,,,,,,repeat,number,numRpt,k,0.6455,Hi,,,,,,3,,,,,,,,low,2,0,2,0,1,,,,,,,,,
294601,2022-09-24_19h52.38.644,vts_reward_expectancy,2022.2.4,MacIntel,60.0024001,Chrome,1558,1015,,,,,10,941,,,,,,,,,,,,,,,,,W,146,triangle,1,0,,,,,,,,,,,,,,,,repeat,number,numRpt,j,0.6294,Lo,,,,,,3,,,,,,,,low,3,0,3,0,1,,,,,,,,,
294601,2022-09-24_19h52.38.644,vts_reward_expectancy,2022.2.4,MacIntel,60.0024001,Chrome,1558,1015,,,,,10,951,,,,,,,,,,,,,,,,,S,174,triangle,1,0,,,,,,,,,,,,,,,,switch,letter,lettSwt,f,0.5999,Lo,,,,,,3,,,,,,,,low,4,0,4,0,1,,,,,,,,,
294601,2022-09-24_19h52.38.644,vts_reward_expectancy,2022.2.4,MacIntel,60.0024001,Chrome,1558,1015,,,,,10,961,,,,,,,,,,,,,,,,,U,160,circle,1,0,,,,,,,,,,,,,,,,repeat,letter,lettRpt,f,0.5352,Hi,,,,,,3,,,,,,,,low,5,0,5,0,1,,,,,,,,,
294601,2022-09-24_19h52.38.644,vts_reward_expectancy,2022.2.4,MacIntel,60.0024001,Chrome,1558,1015,,,,,10,971,,,,,,,,,,,,,,,,,B,125,triangle,1,0,,,,,,,,,,,,,,,,switch,number,numSwt,j,0.6134,Lo,,,,,,3,,,,,,,,low,6,0,6,0,1,,,,,,,,,
294601,2022-09-24_19h52.38.644,vts_reward_expectancy,2022.2.4,MacIntel,60.0024001,Chrome,1558,1015,,,,,0,971,,,,,,,,,,,,,,,,,F,167,circle,1,0,,,,,,,,,,,,,,,,repeat,number,numRpt,k,1.2609,Hi,,,,,,3,,,,,,,,low,7,0,7,0,1,,,,,,,,,
294601,2022-09-24_19h52.38.644,vts_reward_expectancy,2022.2.4,MacIntel,60.0024001,Chrome,1558,1015,,,,,10,981,,,,,,,,,,,,,,,,,Y,139,circle,1,0,,,,,,,,,,,,,,,,repeat,number,numRpt,j,0.4805,Hi,,,,,,3,,,,,,,,low,8,0,8,0,1,,,,,,,,,
294601,2022-09-24_19h52.38.644,vts_reward_expectancy,2022.2.4,MacIntel,60.0024001,Chrome,1558,1015,,,,,0,981,,,,,,,,,,,,,,,,,D,132,triangle,0,0,,,,,,,,,,,,,,,,switch,letter,NA,f,0.5849,Hi,,,,,,3,,,,,,,,low,9,0,9,0,1,,,,,,,,,
294601,2022-09-24_19h52.38.644,vts_reward_expectancy,2022.2.4,MacIntel,60.0024001,Chrome,1558,1015,,,,,0,981,,,,,,,,,,,,,,,,,H,181,circle,1,1,,,,,,,,,,,,,,,,repeat,letter,lettRpt,d,0.7159,Hi,,,,,,3,,,,,,,,low,10,0,10,0,1,,,,,,,,,
294601,2022-09-24_19h52.38.644,vts_reward_expectancy,2022.2.4,MacIntel,60.0024001,Chrome,1558,1015,,,,,0,981,,,,,,,,,,,,,,,,,W,146,triangle,0,0,,,,,,,,,,,,,,,,repeat,letter,NA,d,0.6029,Hi,,,,,,3,,,,,,,,low,11,0,11,0,1,,,,,,,,,
294601,2022-09-24_19h52.38.644,vts_reward_expectancy,2022.2.4,MacIntel,60.0024001,Chrome,1558,1015,,,,,0,981,,,,,,,,,,,,,,,,,S,174,circle,1,1,,,,,,,,,,,,,,,,switch,number,numSwt,k,0.6814,Hi,,,,,,3,,,,,,,,low,12,0,12,0,1,,,,,,,,,
294601,2022-09-24_19h52.38.644,vts_reward_expectancy,2022.2.4,MacIntel,60.0024001,Chrome,1558,1015,,,,,1,982,,,,,,,,,,,,,,,,,U,160,triangle,1,0,,,,,,,,,,,,,,,,repeat,number,numRpt,k,0.463,Lo,,,,,,3,,,,,,,,low,13,0,13,0,1,,,,,,,,,
294601,2022-09-24_19h52.38.644,vts_reward_expectancy,2022.2.4,MacIntel,60.0024001,Chrome,1558,1015,,,,,10,992,,,,,,,,,,,,,,,,,B,125,circle,1,0,,,,,,,,,,,,,,,,repeat,number,numRpt,j,0.5961,Hi,,,,,,3,,,,,,,,low,14,0,14,0,1,,,,,,,,,
294601,2022-09-24_19h52.38.644,vts_reward_expectancy,2022.2.4,MacIntel,60.0024001,Chrome,1558,1015,,,,,1,993,,,,,,,,,,,,,,,,,F,167,triangle,1,0,,,,,,,,,,,,,,,,repeat,number,numRpt,k,0.5828,Lo,,,,,,3,,,,,,,,low,15,0,15,0,1,,,,,,,,,
294601,2022-09-24_19h52.38.644,vts_reward_expectancy,2022.2.4,MacIntel,60.0024001,Chrome,1558,1015,,,,,10,1003,,,,,,,,,,,,,,,,,D,139,triangle,1,0,,,,,,,,,,,,,,,,switch,letter,lettSwt,d,0.6121,Lo,,,,,,3,,,,,,,,low,16,0,16,0,1,,,,,,,,,
294601,2022-09-24_19h52.38.644,vts_reward_expectancy,2022.2.4,MacIntel,60.0024001,Chrome,1558,1015,,,,,10,1013,,,,,,,,,,,,,,,,,B,167,circle,1,0,,,,,,,,,,,,,,,,repeat,letter,lettRpt,d,0.4653,Hi,,,,,,3,,,,,,,,low,17,0,17,0,1,,,,,,,,,
294601,2022-09-24_19h52.38.644,vts_reward_expectancy,2022.2.4,MacIntel,60.0024001,Chrome,1558,1015,,,,,0,1013,,,,,,,,,,,,,,,,,W,174,circle,1,0,,,,,,,,,,,,,,,,repeat,letter,lettRpt,f,0.7318,Hi,,,,,,3,,,,,,,,low,18,0,18,0,1,,,,,,,,,
294601,2022-09-24_19h52.38.644,vts_reward_expectancy,2022.2.4,MacIntel,60.0024001,Chrome,1558,1015,,,,,1,1014,,,,,,,,,,,,,,,,,Y,181,triangle,1,0,,,,,,,,,,,,,,,,switch,number,numSwt,k,0.5968,Lo,,,,,,3,,,,,,,,low,19,0,19,0,1,,,,,,,,,
294601,2022-09-24_19h52.38.644,vts_reward_expectancy,2022.2.4,MacIntel,60.0024001,Chrome,1558,1015,,,,,10,1024,,,,,,,,,,,,,,,,,U,160,circle,1,0,,,,,,,,,,,,,,,,switch,letter,lettSwt,f,0.5817,Hi,,,,,,3,,,,,,,,low,20,0,20,0,1,,,,,,,,,
294601,2022-09-24_19h52.38.644,vts_reward_expectancy,2022.2.4,MacIntel,60.0024001,Chrome,1558,1015,,,,,1,1025,,,,,,,,,,,,,,,,,H,146,triangle,1,0,,,,,,,,,,,,,,,,repeat,letter,lettRpt,d,0.6504,Lo,,,,,,3,,,,,,,,low,21,0,21,0,1,,,,,,,,,
294601,2022-09-24_19h52.38.644,vts_reward_expectancy,2022.2.4,MacIntel,60.0024001,Chrome,1558,1015,,,,,10,1035,,,,,,,,,,,,,,,,,S,125,triangle,1,0,,,,,,,,,,,,,,,,switch,number,numSwt,j,0.7528,Lo,,,,,,3,,,,,,,,low,22,0,22,0,1,,,,,,,,,
294601,2022-09-24_19h52.38.644,vts_reward_expectancy,2022.2.4,MacIntel,60.0024001,Chrome,1558,1015,,,,,0,1035,,,,,,,,,,,,,,,,,F,132,circle,1,0,,,,,,,,,,,,,,,,repeat,number,numRpt,j,0.696,Hi,,,,,,3,,,,,,,,low,23,0,23,0,1,,,,,,,,,
294601,2022-09-24_19h52.38.644,vts_reward_expectancy,2022.2.4,MacIntel,60.0024001,Chrome,1558,1015,,,,,1,1036,,,,,,,,,,,,,,,,,D,167,triangle,1,0,,,,,,,,,,,,,,,,repeat,number,numRpt,k,0.8481,Lo,,,,,,3,,,,,,,,low,24,0,24,0,1,,,,,,,,,
294601,2022-09-24_19h52.38.644,vts_reward_expectancy,2022.2.4,MacIntel,60.0024001,Chrome,1558,1015,,,,,0,1036,,,,,,,,,,,,,,,,,B,125,circle,0,0,,,,,,,,,,,,,,,,repeat,number,NA,k,0.9473,Lo,,,,,,3,,,,,,,,low,25,0,25,0,1,,,,,,,,,
294601,2022-09-24_19h52.38.644,vts_reward_expectancy,2022.2.4,MacIntel,60.0024001,Chrome,1558,1015,,,,,1,1037,,,,,,,,,,,,,,,,,H,174,triangle,1,1,,,,,,,,,,,,,,,,switch,letter,lettSwt,d,0.6538,Lo,,,,,,3,,,,,,,,low,26,0,26,0,1,,,,,,,,,
294601,2022-09-24_19h52.38.644,vts_reward_expectancy,2022.2.4,MacIntel,60.0024001,Chrome,1558,1015,,,,,0,1037,,,,,,,,,,,,,,,,,S,160,circle,1,0,,,,,,,,,,,,,,,,repeat,letter,lettRpt,f,0.7328,Hi,,,,,,3,,,,,,,,low,27,0,27,0,1,,,,,,,,,
294601,2022-09-24_19h52.38.644,vts_reward_expectancy,2022.2.4,MacIntel,60.0024001,Chrome,1558,1015,,,,,10,1047,,,,,,,,,,,,,,,,,F,146,circle,1,0,,,,,,,,,,,,,,,,repeat,letter,lettRpt,d,0.6139,Hi,,,,,,3,,,,,,,,low,28,0,28,0,1,,,,,,,,,
294601,2022-09-24_19h52.38.644,vts_reward_expectancy,2022.2.4,MacIntel,60.0024001,Chrome,1558,1015,,,,,1,1048,,,,,,,,,,,,,,,,,U,132,triangle,1,0,,,,,,,,,,,,,,,,repeat,letter,lettRpt,f,0.8704,Lo,,,,,,3,,,,,,,,low,29,0,29,0,1,,,,,,,,,
294601,2022-09-24_19h52.38.644,vts_reward_expectancy,2022.2.4,MacIntel,60.0024001,Chrome,1558,1015,,,,,10,1058,,,,,,,,,,,,,,,,,W,139,circle,1,0,,,,,,,,,,,,,,,,repeat,letter,lettRpt,f,0.6136,Hi,,,,,,3,,,,,,,,low,30,0,30,0,1,,,,,,,,,
294601,2022-09-24_19h52.38.644,vts_reward_expectancy,2022.2.4,MacIntel,60.0024001,Chrome,1558,1015,,,,,1,1059,,,,,,,,,,,,,,,,,Y,181,triangle,1,0,,,,,,,,,,,,,,,,repeat,letter,lettRpt,f,0.6806,Lo,,,,,,3,,,,,,,,low,31,0,31,0,1,,,,,,,,,
294601,2022-09-24_19h52.38.644,vts_reward_expectancy,2022.2.4,MacIntel,60.0024001,Chrome,1558,1015,,,,,1,1060,,,,,,,,,,,,,,,,,S,125,triangle,1,0,,,,,,,,,,,,,,,,switch,number,numSwt,j,0.6437,Lo,,,,,,4,,,,,,space,1.1559,low,0,0,0,0,1,,,,,,,,,
294601,2022-09-24_19h52.38.644,vts_reward_expectancy,2022.2.4,MacIntel,60.0024001,Chrome,1558,1015,,,,,10,1070,,,,,,,,,,,,,,,,,W,139,circle,1,0,,,,,,,,,,,,,,,,repeat,number,numRpt,j,0.5039,Hi,,,,,,4,,,,,,,,low,1,0,1,0,1,,,,,,,,,
294601,2022-09-24_19h52.38.644,vts_reward_expectancy,2022.2.4,MacIntel,60.0024001,Chrome,1558,1015,,,,,1,1071,,,,,,,,,,,,,,,,,D,181,triangle,1,0,,,,,,,,,,,,,,,,repeat,number,numRpt,k,0.5644,Lo,,,,,,4,,,,,,,,low,2,0,2,0,1,,,,,,,,,
294601,2022-09-24_19h52.38.644,vts_reward_expectancy,2022.2.4,MacIntel,60.0024001,Chrome,1558,1015,,,,,0,1071,,,,,,,,,,,,,,,,,B,132,circle,1,0,,,,,,,,,,,,,,,,repeat,number,numRpt,j,0.6111,Hi,,,,,,4,,,,,,,,low,3,0,3,0,1,,,,,,,,,
294601,2022-09-24_19h52.38.644,vts_reward_expectancy,2022.2.4,MacIntel,60.0024001,Chrome,1558,1015,,,,,0,1071,,,,,,,,,,,,,,,,,H,174,circle,1,0,,,,,,,,,,,,,,,,switch,letter,lettSwt,d,0.7339,Hi,,,,,,4,,,,,,,,low,4,0,4,0,1,,,,,,,,,
294601,2022-09-24_19h52.38.644,vts_reward_expectancy,2022.2.4,MacIntel,60.0024001,Chrome,1558,1015,,,,,10,1081,,,,,,,,,,,,,,,,,F,146,triangle,1,0,,,,,,,,,,,,,,,,repeat,letter,lettRpt,d,0.652,Lo,,,,,,4,,,,,,,,low,5,0,5,0,1,,,,,,,,,
294601,2022-09-24_19h52.38.644,vts_reward_expectancy,2022.2.4,MacIntel,60.0024001,Chrome,1558,1015,,,,,1,1082,,,,,,,,,,,,,,,,,U,160,triangle,1,0,,,,,,,,,,,,,,,,repeat,letter,lettRpt,f,0.7621,Lo,,,,,,4,,,,,,,,low,6,0,6,0,1,,,,,,,,,
294601,2022-09-24_19h52.38.644,vts_reward_expectancy,2022.2.4,MacIntel,60.0024001,Chrome,1558,1015,,,,,0,1082,,,,,,,,,,,,,,,,,Y,167,circle,1,0,,,,,,,,,,,,,,,,repeat,letter,lettRpt,f,0.6188,Hi,,,,,,4,,,,,,,,low,7,0,7,0,1,,,,,,,,,
294601,2022-09-24_19h52.38.644,vts_reward_expectancy,2022.2.4,MacIntel,60.0024001,Chrome,1558,1015,,,,,1,1083,,,,,,,,,,,,,,,,,S,125,circle,1,0,,,,,,,,,,,,,,,,repeat,letter,lettRpt,f,0.6025,Hi,,,,,,4,,,,,,,,low,8,0,8,0,1,,,,,,,,,
294601,2022-09-24_19h52.38.644,vts_reward_expectancy,2022.2.4,MacIntel,60.0024001,Chrome,1558,1015,,,,,10,1093,,,,,,,,,,,,,,,,,W,139,triangle,1,0,,,,,,,,,,,,,,,,switch,number,numSwt,j,0.6797,Lo,,,,,,4,,,,,,,,low,9,0,9,0,1,,,,,,,,,
294601,2022-09-24_19h52.38.644,vts_reward_expectancy,2022.2.4,MacIntel,60.0024001,Chrome,1558,1015,,,,,10,1103,,,,,,,,,,,,,,,,,D,181,triangle,1,0,,,,,,,,,,,,,,,,repeat,number,numRpt,k,0.9618,Lo,,,,,,4,,,,,,,,low,10,0,10,0,1,,,,,,,,,
294601,2022-09-24_19h52.38.644,vts_reward_expectancy,2022.2.4,MacIntel,60.0024001,Chrome,1558,1015,,,,,0,1103,,,,,,,,,,,,,,,,,B,132,circle,1,0,,,,,,,,,,,,,,,,repeat,number,numRpt,j,0.6784,Hi,,,,,,4,,,,,,,,low,11,0,11,0,1,,,,,,,,,
294601,2022-09-24_19h52.38.644,vts_reward_expectancy,2022.2.4,MacIntel,60.0024001,Chrome,1558,1015,,,,,0,1103,,,,,,,,,,,,,,,,,H,174,circle,1,0,,,,,,,,,,,,,,,,repeat,number,numRpt,k,0.7494,Hi,,,,,,4,,,,,,,,low,12,0,12,0,1,,,,,,,,,
294601,2022-09-24_19h52.38.644,vts_reward_expectancy,2022.2.4,MacIntel,60.0024001,Chrome,1558,1015,,,,,0,1103,,,,,,,,,,,,,,,,,F,146,triangle,0,0,,,,,,,,,,,,,,,,switch,letter,NA,f,0.4337,Hi,,,,,,4,,,,,,,,low,13,0,13,0,1,,,,,,,,,
294601,2022-09-24_19h52.38.644,vts_reward_expectancy,2022.2.4,MacIntel,60.0024001,Chrome,1558,1015,,,,,1,1104,,,,,,,,,,,,,,,,,U,160,triangle,1,1,,,,,,,,,,,,,,,,repeat,letter,lettRpt,f,1.1961,Lo,,,,,,4,,,,,,,,low,14,0,14,0,1,,,,,,,,,
294601,2022-09-24_19h52.38.644,vts_reward_expectancy,2022.2.4,MacIntel,60.0024001,Chrome,1558,1015,,,,,1,1105,,,,,,,,,,,,,,,,,Y,167,circle,1,0,,,,,,,,,,,,,,,,repeat,letter,lettRpt,f,0.547,Hi,,,,,,4,,,,,,,,low,15,0,15,0,1,,,,,,,,,
294601,2022-09-24_19h52.38.644,vts_reward_expectancy,2022.2.4,MacIntel,60.0024001,Chrome,1558,1015,,,,,1,1106,,,,,,,,,,,,,,,,,W,160,triangle,1,0,,,,,,,,,,,,,,,,repeat,letter,lettRpt,f,0.718,Lo,,,,,,4,,,,,,,,low,16,0,16,0,1,,,,,,,,,
294601,2022-09-24_19h52.38.644,vts_reward_expectancy,2022.2.4,MacIntel,60.0024001,Chrome,1558,1015,,,,,0,1106,,,,,,,,,,,,,,,,,U,132,circle,1,0,,,,,,,,,,,,,,,,repeat,letter,lettRpt,f,0.6192,Hi,,,,,,4,,,,,,,,low,17,0,17,0,1,,,,,,,,,
294601,2022-09-24_19h52.38.644,vts_reward_expectancy,2022.2.4,MacIntel,60.0024001,Chrome,1558,1015,,,,,10,1116,,,,,,,,,,,,,,,,,Y,174,triangle,1,0,,,,,,,,,,,,,,,,repeat,letter,lettRpt,f,0.8618,Lo,,,,,,4,,,,,,,,low,18,0,18,0,1,,,,,,,,,
294601,2022-09-24_19h52.38.644,vts_reward_expectancy,2022.2.4,MacIntel,60.0024001,Chrome,1558,1015,,,,,10,1126,,,,,,,,,,,,,,,,,B,146,circle,1,0,,,,,,,,,,,,,,,,switch,number,numSwt,j,0.5669,Hi,,,,,,4,,,,,,,,low,19,0,19,0,1,,,,,,,,,
294601,2022-09-24_19h52.38.644,vts_reward_expectancy,2022.2.4,MacIntel,60.0024001,Chrome,1558,1015,,,,,1,1127,,,,,,,,,,,,,,,,,S,125,circle,1,0,,,,,,,,,,,,,,,,repeat,number,numRpt,j,0.4291,Hi,,,,,,4,,,,,,,,low,20,0,20,0,1,,,,,,,,,
294601,2022-09-24_19h52.38.644,vts_reward_expectancy,2022.2.4,MacIntel,60.0024001,Chrome,1558,1015,,,,,1,1128,,,,,,,,,,,,,,,,,H,139,triangle,1,0,,,,,,,,,,,,,,,,repeat,number,numRpt,j,0.53,Lo,,,,,,4,,,,,,,,low,21,0,21,0,1,,,,,,,,,
294601,2022-09-24_19h52.38.644,vts_reward_expectancy,2022.2.4,MacIntel,60.0024001,Chrome,1558,1015,,,,,1,1129,,,,,,,,,,,,,,,,,F,167,triangle,1,0,,,,,,,,,,,,,,,,repeat,number,numRpt,k,0.5707,Lo,,,,,,4,,,,,,,,low,22,0,22,0,1,,,,,,,,,
294601,2022-09-24_19h52.38.644,vts_reward_expectancy,2022.2.4,MacIntel,60.0024001,Chrome,1558,1015,,,,,1,1130,,,,,,,,,,,,,,,,,D,181,circle,1,0,,,,,,,,,,,,,,,,switch,letter,lettSwt,d,0.5358,Hi,,,,,,4,,,,,,,,low,23,0,23,0,1,,,,,,,,,
294601,2022-09-24_19h52.38.644,vts_reward_expectancy,2022.2.4,MacIntel,60.0024001,Chrome,1558,1015,,,,,10,1140,,,,,,,,,,,,,,,,,U,181,triangle,1,0,,,,,,,,,,,,,,,,repeat,letter,lettRpt,f,0.5624,Lo,,,,,,4,,,,,,,,low,24,0,24,0,1,,,,,,,,,
294601,2022-09-24_19h52.38.644,vts_reward_expectancy,2022.2.4,MacIntel,60.0024001,Chrome,1558,1015,,,,,0,1140,,,,,,,,,,,,,,,,,Y,146,circle,1,0,,,,,,,,,,,,,,,,repeat,letter,lettRpt,f,0.6298,Hi,,,,,,4,,,,,,,,low,25,0,25,0,1,,,,,,,,,
294601,2022-09-24_19h52.38.644,vts_reward_expectancy,2022.2.4,MacIntel,60.0024001,Chrome,1558,1015,,,,,1,1141,,,,,,,,,,,,,,,,,B,125,triangle,1,0,,,,,,,,,,,,,,,,repeat,letter,lettRpt,d,0.7197,Lo,,,,,,4,,,,,,,,low,26,0,26,0,1,,,,,,,,,
294601,2022-09-24_19h52.38.644,vts_reward_expectancy,2022.2.4,MacIntel,60.0024001,Chrome,1558,1015,,,,,0,1141,,,,,,,,,,,,,,,,,S,160,circle,1,0,,,,,,,,,,,,,,,,repeat,letter,lettRpt,f,0.7338,Hi,,,,,,4,,,,,,,,low,27,0,27,0,1,,,,,,,,,
294601,2022-09-24_19h52.38.644,vts_reward_expectancy,2022.2.4,MacIntel,60.0024001,Chrome,1558,1015,,,,,0,1141,,,,,,,,,,,,,,,,,H,174,circle,0,0,,,,,,,,,,,,,,,,repeat,letter,NA,f,0.5185,Hi,,,,,,4,,,,,,,,low,28,0,28,0,1,,,,,,,,,
294601,2022-09-24_19h52.38.644,vts_reward_expectancy,2022.2.4,MacIntel,60.0024001,Chrome,1558,1015,,,,,1,1142,,,,,,,,,,,,,,,,,D,139,triangle,1,1,,,,,,,,,,,,,,,,switch,number,numSwt,j,0.7656,Lo,,,,,,4,,,,,,,,low,29,0,29,0,1,,,,,,,,,
294601,2022-09-24_19h52.38.644,vts_reward_expectancy,2022.2.4,MacIntel,60.0024001,Chrome,1558,1015,,,,,0,1142,,,,,,,,,,,,,,,,,W,132,circle,1,0,,,,,,,,,,,,,,,,repeat,number,numRpt,j,0.6814,Hi,,,,,,4,,,,,,,,low,30,0,30,0,1,,,,,,,,,
294601,2022-09-24_19h52.38.644,vts_reward_expectancy,2022.2.4,MacIntel,60.0024001,Chrome,1558,1015,,,,,10,1152,,,,,,,,,,,,,,,,,F,167,triangle,1,0,,,,,,,,,,,,,,,,switch,letter,lettSwt,d,1.0479,Lo,,,,,,4,,,,,,,,low,31,0,31,0,1,,,,,,,,,
294601,2022-09-24_19h52.38.644,vts_reward_expectancy,2022.2.4,MacIntel,60.0024001,Chrome,1558,1015,,,,,0,1152,,,,,,,,,,,,,,,,,S,160,star,1,0,,,,,,,,,,,,,,,,switch,number,numSwt,k,0.8182,Hi,,,,,,5,,,,,,space,1.2382,high,0,0,0,0,1,,,,,,,,,
294601,2022-09-24_19h52.38.644,vts_reward_expectancy,2022.2.4,MacIntel,60.0024001,Chrome,1558,1015,,,,,10,1162,,,,,,,,,,,,,,,,,D,132,hexagon,1,0,,,,,,,,,,,,,,,,repeat,number,numRpt,j,0.6807,Lo,,,,,,5,,,,,,,,high,1,0,1,0,1,,,,,,,,,
294601,2022-09-24_19h52.38.644,vts_reward_expectancy,2022.2.4,MacIntel,60.0024001,Chrome,1558,1015,,,,,0,1162,,,,,,,,,,,,,,,,,Y,174,star,1,0,,,,,,,,,,,,,,,,repeat,number,numRpt,k,0.6013,Hi,,,,,,5,,,,,,,,high,2,0,2,0,1,,,,,,,,,
294601,2022-09-24_19h52.38.644,vts_reward_expectancy,2022.2.4,MacIntel,60.0024001,Chrome,1558,1015,,,,,1,1163,,,,,,,,,,,,,,,,,U,139,hexagon,1,0,,,,,,,,,,,,,,,,repeat,number,numRpt,j,0.6145,Lo,,,,,,5,,,,,,,,high,3,0,3,0,1,,,,,,,,,
294601,2022-09-24_19h52.38.644,vts_reward_expectancy,2022.2.4,MacIntel,60.0024001,Chrome,1558,1015,,,,,0,1163,,,,,,,,,,,,,,,,,F,181,star,1,0,,,,,,,,,,,,,,,,repeat,number,numRpt,k,0.7961,Hi,,,,,,5,,,,,,,,high,4,0,4,0,1,,,,,,,,,
294601,2022-09-24_19h52.38.644,vts_reward_expectancy,2022.2.4,MacIntel,60.0024001,Chrome,1558,1015,,,,,10,1173,,,,,,,,,,,,,,,,,W,146,hexagon,1,0,,,,,,,,,,,,,,,,switch,letter,lettSwt,f,0.6456,Lo,,,,,,5,,,,,,,,high,5,0,5,0,1,,,,,,,,,
294601,2022-09-24_19h52.38.644,vts_reward_expectancy,2022.2.4,MacIntel,60.0024001,Chrome,1558,1015,,,,,1,1174,,,,,,,,,,,,,,,,,B,125,hexagon,1,0,,,,,,,,,,,,,,,,repeat,letter,lettRpt,d,0.6461,Lo,,,,,,5,,,,,,,,high,6,0,6,0,1,,,,,,,,,
294601,2022-09-24_19h52.38.644,vts_reward_expectancy,2022.2.4,MacIntel,60.0024001,Chrome,1558,1015,,,,,0,1174,,,,,,,,,,,,,,,,,H,167,star,1,0,,,,,,,,,,,,,,,,repeat,letter,lettRpt,d,0.9666,Hi,,,,,,5,,,,,,,,high,7,0,7,0,1,,,,,,,,,
294601,2022-09-24_19h52.38.644,vts_reward_expectancy,2022.2.4,MacIntel,60.0024001,Chrome,1558,1015,,,,,0,1174,,,,,,,,,,,,,,,,,S,160,star,1,0,,,,,,,,,,,,,,,,repeat,letter,lettRpt,f,1.3045,Hi,,,,,,5,,,,,,,,high,8,0,8,0,1,,,,,,,,,
294601,2022-09-24_19h52.38.644,vts_reward_expectancy,2022.2.4,MacIntel,60.0024001,Chrome,1558,1015,,,,,1,1175,,,,,,,,,,,,,,,,,D,132,hexagon,1,0,,,,,,,,,,,,,,,,repeat,letter,lettRpt,d,1.136,Lo,,,,,,5,,,,,,,,high,9,0,9,0,1,,,,,,,,,
294601,2022-09-24_19h52.38.644,vts_reward_expectancy,2022.2.4,MacIntel,60.0024001,Chrome,1558,1015,,,,,10,1185,,,,,,,,,,,,,,,,,Y,174,star,1,0,,,,,,,,,,,,,,,,repeat,letter,lettRpt,f,0.5461,Hi,,,,,,5,,,,,,,,high,10,0,10,0,1,,,,,,,,,
294601,2022-09-24_19h52.38.644,vts_reward_expectancy,2022.2.4,MacIntel,60.0024001,Chrome,1558,1015,,,,,10,1195,,,,,,,,,,,,,,,,,U,139,hexagon,1,0,,,,,,,,,,,,,,,,switch,number,numSwt,j,0.7854,Lo,,,,,,5,,,,,,,,high,11,0,11,0,1,,,,,,,,,
294601,2022-09-24_19h52.38.644,vts_reward_expectancy,2022.2.4,MacIntel,60.0024001,Chrome,1558,1015,,,,,1,1196,,,,,,,,,,,,,,,,,F,181,hexagon,1,0,,,,,,,,,,,,,,,,repeat,number,numRpt,k,0.6302,Lo,,,,,,5,,,,,,,,high,12,0,12,0,1,,,,,,,,,
294601,2022-09-24_19h52.38.644,vts_reward_expectancy,2022.2.4,MacIntel,60.0024001,Chrome,1558,1015,,,,,0,1196,,,,,,,,,,,,,,,,,W,146,star,1,0,,,,,,,,,,,,,,,,repeat,number,numRpt,j,0.6198,Hi,,,,,,5,,,,,,,,high,13,0,13,0,1,,,,,,,,,
294601,2022-09-24_19h52.38.644,vts_reward_expectancy,2022.2.4,MacIntel,60.0024001,Chrome,1558,1015,,,,,1,1197,,,,,,,,,,,,,,,,,B,125,hexagon,1,0,,,,,,,,,,,,,,,,repeat,number,numRpt,j,0.6478,Lo,,,,,,5,,,,,,,,high,14,0,14,0,1,,,,,,,,,
294601,2022-09-24_19h52.38.644,vts_reward_expectancy,2022.2.4,MacIntel,60.0024001,Chrome,1558,1015,,,,,0,1197,,,,,,,,,,,,,,,,,H,167,star,0,0,,,,,,,,,,,,,,,,repeat,number,NA,j,1.0669,Lo,,,,,,5,,,,,,,,high,15,0,15,0,1,,,,,,,,,
294601,2022-09-24_19h52.38.644,vts_reward_expectancy,2022.2.4,MacIntel,60.0024001,Chrome,1558,1015,,,,,0,1197,,,,,,,,,,,,,,,,,H,174,star,1,1,,,,,,,,,,,,,,,,repeat,number,numRpt,k,0.7888,Hi,,,,,,5,,,,,,,,high,16,0,16,0,1,,,,,,,,,
294601,2022-09-24_19h52.38.644,vts_reward_expectancy,2022.2.4,MacIntel,60.0024001,Chrome,1558,1015,,,,,1,1198,,,,,,,,,,,,,,,,,S,139,hexagon,1,0,,,,,,,,,,,,,,,,switch,letter,lettSwt,f,0.6965,Lo,,,,,,5,,,,,,,,high,17,0,17,0,1,,,,,,,,,
294601,2022-09-24_19h52.38.644,vts_reward_expectancy,2022.2.4,MacIntel,60.0024001,Chrome,1558,1015,,,,,10,1208,,,,,,,,,,,,,,,,,D,160,star,1,0,,,,,,,,,,,,,,,,repeat,letter,lettRpt,d,0.6139,Hi,,,,,,5,,,,,,,,high,18,0,18,0,1,,,,,,,,,
294601,2022-09-24_19h52.38.644,vts_reward_expectancy,2022.2.4,MacIntel,60.0024001,Chrome,1558,1015,,,,,1,1209,,,,,,,,,,,,,,,,,U,125,hexagon,1,0,,,,,,,,,,,,,,,,repeat,letter,lettRpt,f,0.7679,Lo,,,,,,5,,,,,,,,high,19,0,19,0,1,,,,,,,,,
294601,2022-09-24_19h52.38.644,vts_reward_expectancy,2022.2.4,MacIntel,60.0024001,Chrome,1558,1015,,,,,0,1209,,,,,,,,,,,,,,,,,F,181,star,1,0,,,,,,,,,,,,,,,,repeat,letter,lettRpt,d,0.6627,Hi,,,,,,5,,,,,,,,high,20,0,20,0,1,,,,,,,,,
294601,2022-09-24_19h52.38.644,vts_reward_expectancy,2022.2.4,MacIntel,60.0024001,Chrome,1558,1015,,,,,1,1210,,,,,,,,,,,,,,,,,W,167,hexagon,1,0,,,,,,,,,,,,,,,,repeat,letter,lettRpt,f,0.6803,Lo,,,,,,5,,,,,,,,high,21,0,21,0,1,,,,,,,,,
294601,2022-09-24_19h52.38.644,vts_reward_expectancy,2022.2.4,MacIntel,60.0024001,Chrome,1558,1015,,,,,0,1210,,,,,,,,,,,,,,,,,B,146,star,1,0,,,,,,,,,,,,,,,,repeat,letter,lettRpt,d,0.7297,Hi,,,,,,5,,,,,,,,high,22,0,22,0,1,,,,,,,,,
294601,2022-09-24_19h52.38.644,vts_reward_expectancy,2022.2.4,MacIntel,60.0024001,Chrome,1558,1015,,,,,1,1211,,,,,,,,,,,,,,,,,Y,132,hexagon,1,0,,,,,,,,,,,,,,,,repeat,letter,lettRpt,f,0.846,Lo,,,,,,5,,,,,,,,high,23,0,23,0,1,,,,,,,,,
294601,2022-09-24_19h52.38.644,vts_reward_expectancy,2022.2.4,MacIntel,60.0024001,Chrome,1558,1015,,,,,1,1212,,,,,,,,,,,,,,,,,F,160,hexagon,1,0,,,,,,,,,,,,,,,,switch,number,numSwt,k,0.6812,Lo,,,,,,5,,,,,,,,high,24,0,24,0,1,,,,,,,,,
294601,2022-09-24_19h52.38.644,vts_reward_expectancy,2022.2.4,MacIntel,60.0024001,Chrome,1558,1015,,,,,0,1212,,,,,,,,,,,,,,,,,S,139,star,1,0,,,,,,,,,,,,,,,,repeat,number,numRpt,j,0.663,Hi,,,,,,5,,,,,,,,high,25,0,25,0,1,,,,,,,,,
294601,2022-09-24_19h52.38.644,vts_reward_expectancy,2022.2.4,MacIntel,60.0024001,Chrome,1558,1015,,,,,0,1212,,,,,,,,,,,,,,,,,Y,167,star,0,0,,,,,,,,,,,,,,,,repeat,number,NA,j,1.0133,Hi,,,,,,5,,,,,,,,high,26,0,26,0,1,,,,,,,,,
294601,2022-09-24_19h52.38.644,vts_reward_expectancy,2022.2.4,MacIntel,60.0024001,Chrome,1558,1015,,,,,1,1213,,,,,,,,,,,,,,,,,H,132,hexagon,1,1,,,,,,,,,,,,,,,,switch,letter,lettSwt,d,0.6475,Lo,,,,,,5,,,,,,,,high,27,0,27,0,1,,,,,,,,,
294601,2022-09-24_19h52.38.644,vts_reward_expectancy,2022.2.4,MacIntel,60.0024001,Chrome,1558,1015,,,,,0,1213,,,,,,,,,,,,,,,,,D,146,star,1,0,,,,,,,,,,,,,,,,repeat,letter,lettRpt,d,0.8182,Hi,,,,,,5,,,,,,,,high,28,0,28,0,1,,,,,,,,,
294601,2022-09-24_19h52.38.644,vts_reward_expectancy,2022.2.4,MacIntel,60.0024001,Chrome,1558,1015,,,,,1,1214,,,,,,,,,,,,,,,,,B,181,hexagon,1,0,,,,,,,,,,,,,,,,repeat,letter,lettRpt,d,0.6961,Lo,,,,,,5,,,,,,,,high,29,0,29,0,1,,,,,,,,,
294601,2022-09-24_19h52.38.644,vts_reward_expectancy,2022.2.4,MacIntel,60.0024001,Chrome,1558,1015,,,,,0,1214,,,,,,,,,,,,,,,,,W,125,star,1,0,,,,,,,,,,,,,,,,repeat,letter,lettRpt,f,0.6683,Hi,,,,,,5,,,,,,,,high,30,0,30,0,1,,,,,,,,,
294601,2022-09-24_19h52.38.644,vts_reward_expectancy,2022.2.4,MacIntel,60.0024001,Chrome,1558,1015,,,,,1,1215,,,,,,,,,,,,,,,,,U,174,hexagon,1,0,,,,,,,,,,,,,,,,switch,number,numSwt,k,0.5832,Lo,,,,,,5,,,,,,,,high,31,0,31,0,1,,,,,,,,,
294601,2022-09-24_19h52.38.644,vts_reward_expectancy,2022.2.4,MacIntel,60.0024001,Chrome,1558,1015,,,,,,,,,,,,,,,,,,,,,,,,,,,,,,,,,,,,,,,,,,,,,,,,,,,,,,6,,,,,,,,,,,,,,Declare if letters were closer to A or Z and if numbers were above 153 or below,2,The impact of the shapes in the last part,4,3,,2,1792,1120
