participant,date,expName,psychopyVersion,OS,frameRate,browser,xResolution,yResolution,key_resp.keys,key_resp.rt,training_resp.keys,training_resp.rt,points_trial,points_cumul,trainBlock,training.thisRepN,training.thisTrialN,training.thisN,training.thisIndex,training.ran,LTriangleOpac,LCircleOpac,LHexagonOpac,LStarOpac,RTriangleOpac,RCircleOpac,RHexagonOpac,RStarOpac,LShape_ID,RShape_ID,curr_topStim,curr_bottStim,curr_shape,acc,E1,target_resp_prac1.keys,pracBlock,task1_prac_trials.thisRepN,task1_prac_trials.thisTrialN,task1_prac_trials.thisN,task1_prac_trials.thisIndex,task1_prac_trials.ran,target_resp_prac1.rt,target_resp_prac2.keys,target_resp_prac2.rt,task2_praac_trials.thisRepN,task2_praac_trials.thisTrialN,task2_praac_trials.thisN,task2_praac_trials.thisIndex,task2_praac_trials.ran,alt,task,condition,target_resp.keys,target_resp.rt,rewCond,vts_practice_trials.thisRepN,vts_practice_trials.thisTrialN,vts_practice_trials.thisN,vts_practice_trials.thisIndex,vts_practice_trials.ran,blockNum,trials_norew.thisRepN,trials_norew.thisTrialN,trials_norew.thisN,trials_norew.thisIndex,trials_norew.ran,key_resp_2.keys,key_resp_2.rt,rewExpect,trials_rew.thisRepN,trials_rew.thisTrialN,trials_rew.thisN,trials_rew.thisIndex,trials_rew.ran,Q1,Q2,Q2_text,Q3,Q4,Q5,Q5_text,xRes,yRes
292726,2022-09-30_12h03.29.035,vts_reward_expectancy,2022.2.4,Win32,165.0165017,Firefox,1920,1080,,,,,,,,,,,,,,,,,,,,,,,,,,,,,,,,,,,,,,,,,,,,,,,,,,,,,,,,,,,,,,,,,,,,,,,,,,,,
292726,2022-09-30_12h03.29.035,vts_reward_expectancy,2022.2.4,Win32,165.0165017,Firefox,1920,1080,space,18.761,,,,,,,,,,,,,,,,,,,,,,,,,,,,,,,,,,,,,,,,,,,,,,,,,,,,,,,,,,,,,,,,,,,,,,,,,,
292726,2022-09-30_12h03.29.035,vts_reward_expectancy,2022.2.4,Win32,165.0165017,Firefox,1920,1080,,,,,,,,,,,,,,,,,,,,,,,,,,,,,,,,,,,,,,,,,,,,,,,,,,,,,,,,,,,,,,,,,,,,,,,,,,,,
292726,2022-09-30_12h03.29.035,vts_reward_expectancy,2022.2.4,Win32,165.0165017,Firefox,1920,1080,,,a,0.884,1,1,0,0,0,0,4,1,0,1,0,0,0,0,1,0,circle,hexagon,,,,,,,,,,,,,,,,,,,,,,,,,,,,,,,,,,,,,,,,,,,,,,,,,,,,,,
292726,2022-09-30_12h03.29.035,vts_reward_expectancy,2022.2.4,Win32,165.0165017,Firefox,1920,1080,,,a,1.139,1,2,0,0,1,1,2,1,1,0,0,0,0,0,0,1,triangle,star,,,,,,,,,,,,,,,,,,,,,,,,,,,,,,,,,,,,,,,,,,,,,,,,,,,,,,
292726,2022-09-30_12h03.29.035,vts_reward_expectancy,2022.2.4,Win32,165.0165017,Firefox,1920,1080,,,l,1.638,1,3,0,0,2,2,8,1,0,0,1,0,0,0,0,1,hexagon,star,,,,,,,,,,,,,,,,,,,,,,,,,,,,,,,,,,,,,,,,,,,,,,,,,,,,,,
292726,2022-09-30_12h03.29.035,vts_reward_expectancy,2022.2.4,Win32,165.0165017,Firefox,1920,1080,,,l,1.137,1,4,0,0,3,3,1,1,1,0,0,0,0,0,1,0,triangle,hexagon,,,,,,,,,,,,,,,,,,,,,,,,,,,,,,,,,,,,,,,,,,,,,,,,,,,,,,
292726,2022-09-30_12h03.29.035,vts_reward_expectancy,2022.2.4,Win32,165.0165017,Firefox,1920,1080,,,a,1.323,1,5,0,0,4,4,9,1,0,0,0,1,1,0,0,0,star,triangle,,,,,,,,,,,,,,,,,,,,,,,,,,,,,,,,,,,,,,,,,,,,,,,,,,,,,,
292726,2022-09-30_12h03.29.035,vts_reward_expectancy,2022.2.4,Win32,165.0165017,Firefox,1920,1080,,,l,1.983,1,6,0,0,5,5,10,1,0,0,0,1,0,1,0,0,star ,circle,,,,,,,,,,,,,,,,,,,,,,,,,,,,,,,,,,,,,,,,,,,,,,,,,,,,,,
292726,2022-09-30_12h03.29.035,vts_reward_expectancy,2022.2.4,Win32,165.0165017,Firefox,1920,1080,,,l,1.129,1,7,0,0,6,6,5,1,0,1,0,0,0,0,0,1,circle,star,,,,,,,,,,,,,,,,,,,,,,,,,,,,,,,,,,,,,,,,,,,,,,,,,,,,,,
292726,2022-09-30_12h03.29.035,vts_reward_expectancy,2022.2.4,Win32,165.0165017,Firefox,1920,1080,,,l,1.022,1,8,0,0,7,7,11,1,0,0,0,1,0,0,1,0,star,hexagon,,,,,,,,,,,,,,,,,,,,,,,,,,,,,,,,,,,,,,,,,,,,,,,,,,,,,,
292726,2022-09-30_12h03.29.035,vts_reward_expectancy,2022.2.4,Win32,165.0165017,Firefox,1920,1080,,,a,1.061,10,18,0,0,8,8,7,1,0,0,1,0,0,1,0,0,hexagon,circle,,,,,,,,,,,,,,,,,,,,,,,,,,,,,,,,,,,,,,,,,,,,,,,,,,,,,,
292726,2022-09-30_12h03.29.035,vts_reward_expectancy,2022.2.4,Win32,165.0165017,Firefox,1920,1080,,,a,1.328,10,28,0,0,9,9,0,1,1,0,0,0,0,1,0,0,triangle,circle,,,,,,,,,,,,,,,,,,,,,,,,,,,,,,,,,,,,,,,,,,,,,,,,,,,,,,
292726,2022-09-30_12h03.29.035,vts_reward_expectancy,2022.2.4,Win32,165.0165017,Firefox,1920,1080,,,a,1.176,10,38,0,0,10,10,6,1,0,0,1,0,1,0,0,0,hexagon,triangle,,,,,,,,,,,,,,,,,,,,,,,,,,,,,,,,,,,,,,,,,,,,,,,,,,,,,,
292726,2022-09-30_12h03.29.035,vts_reward_expectancy,2022.2.4,Win32,165.0165017,Firefox,1920,1080,,,l,2.111,10,48,0,0,11,11,3,1,0,1,0,0,1,0,0,0,circle,triangle,,,,,,,,,,,,,,,,,,,,,,,,,,,,,,,,,,,,,,,,,,,,,,,,,,,,,,
292726,2022-09-30_12h03.29.035,vts_reward_expectancy,2022.2.4,Win32,165.0165017,Firefox,1920,1080,,,l,1.436,1,49,0,1,0,12,10,1,0,0,0,1,0,1,0,0,star ,circle,,,,,,,,,,,,,,,,,,,,,,,,,,,,,,,,,,,,,,,,,,,,,,,,,,,,,,
292726,2022-09-30_12h03.29.035,vts_reward_expectancy,2022.2.4,Win32,165.0165017,Firefox,1920,1080,,,a,0.833,10,59,0,1,1,13,0,1,1,0,0,0,0,1,0,0,triangle,circle,,,,,,,,,,,,,,,,,,,,,,,,,,,,,,,,,,,,,,,,,,,,,,,,,,,,,,
292726,2022-09-30_12h03.29.035,vts_reward_expectancy,2022.2.4,Win32,165.0165017,Firefox,1920,1080,,,a,1.522,1,60,0,1,2,14,2,1,1,0,0,0,0,0,0,1,triangle,star,,,,,,,,,,,,,,,,,,,,,,,,,,,,,,,,,,,,,,,,,,,,,,,,,,,,,,
292726,2022-09-30_12h03.29.035,vts_reward_expectancy,2022.2.4,Win32,165.0165017,Firefox,1920,1080,,,l,3.01,10,70,0,1,3,15,3,1,0,1,0,0,1,0,0,0,circle,triangle,,,,,,,,,,,,,,,,,,,,,,,,,,,,,,,,,,,,,,,,,,,,,,,,,,,,,,
292726,2022-09-30_12h03.29.035,vts_reward_expectancy,2022.2.4,Win32,165.0165017,Firefox,1920,1080,,,a,0.978,1,71,0,1,4,16,6,1,0,0,1,0,1,0,0,0,hexagon,triangle,,,,,,,,,,,,,,,,,,,,,,,,,,,,,,,,,,,,,,,,,,,,,,,,,,,,,,
292726,2022-09-30_12h03.29.035,vts_reward_expectancy,2022.2.4,Win32,165.0165017,Firefox,1920,1080,,,a,1.237,1,72,0,1,5,17,9,1,0,0,0,1,1,0,0,0,star,triangle,,,,,,,,,,,,,,,,,,,,,,,,,,,,,,,,,,,,,,,,,,,,,,,,,,,,,,
292726,2022-09-30_12h03.29.035,vts_reward_expectancy,2022.2.4,Win32,165.0165017,Firefox,1920,1080,,,a,1.678,1,73,0,1,6,18,5,1,0,1,0,0,0,0,0,1,circle,star,,,,,,,,,,,,,,,,,,,,,,,,,,,,,,,,,,,,,,,,,,,,,,,,,,,,,,
292726,2022-09-30_12h03.29.035,vts_reward_expectancy,2022.2.4,Win32,165.0165017,Firefox,1920,1080,,,a,1.364,10,83,0,1,7,19,7,1,0,0,1,0,0,1,0,0,hexagon,circle,,,,,,,,,,,,,,,,,,,,,,,,,,,,,,,,,,,,,,,,,,,,,,,,,,,,,,
292726,2022-09-30_12h03.29.035,vts_reward_expectancy,2022.2.4,Win32,165.0165017,Firefox,1920,1080,,,l,1.061,1,84,0,1,8,20,4,1,0,1,0,0,0,0,1,0,circle,hexagon,,,,,,,,,,,,,,,,,,,,,,,,,,,,,,,,,,,,,,,,,,,,,,,,,,,,,,
292726,2022-09-30_12h03.29.035,vts_reward_expectancy,2022.2.4,Win32,165.0165017,Firefox,1920,1080,,,a,1.129,1,85,0,1,9,21,1,1,1,0,0,0,0,0,1,0,triangle,hexagon,,,,,,,,,,,,,,,,,,,,,,,,,,,,,,,,,,,,,,,,,,,,,,,,,,,,,,
292726,2022-09-30_12h03.29.035,vts_reward_expectancy,2022.2.4,Win32,165.0165017,Firefox,1920,1080,,,a,5.154,1,86,0,1,10,22,11,1,0,0,0,1,0,0,1,0,star,hexagon,,,,,,,,,,,,,,,,,,,,,,,,,,,,,,,,,,,,,,,,,,,,,,,,,,,,,,
292726,2022-09-30_12h03.29.035,vts_reward_expectancy,2022.2.4,Win32,165.0165017,Firefox,1920,1080,,,l,2.059,1,87,0,1,11,23,8,1,0,0,1,0,0,0,0,1,hexagon,star,,,,,,,,,,,,,,,,,,,,,,,,,,,,,,,,,,,,,,,,,,,,,,,,,,,,,,
292726,2022-09-30_12h03.29.035,vts_reward_expectancy,2022.2.4,Win32,165.0165017,Firefox,1920,1080,,,l,4.124,10,97,0,2,0,24,5,1,0,1,0,0,0,0,0,1,circle,star,,,,,,,,,,,,,,,,,,,,,,,,,,,,,,,,,,,,,,,,,,,,,,,,,,,,,,
292726,2022-09-30_12h03.29.035,vts_reward_expectancy,2022.2.4,Win32,165.0165017,Firefox,1920,1080,,,a,2.255,1,98,0,2,1,25,6,1,0,0,1,0,1,0,0,0,hexagon,triangle,,,,,,,,,,,,,,,,,,,,,,,,,,,,,,,,,,,,,,,,,,,,,,,,,,,,,,
292726,2022-09-30_12h03.29.035,vts_reward_expectancy,2022.2.4,Win32,165.0165017,Firefox,1920,1080,,,l,1.213,1,99,0,2,2,26,4,1,0,1,0,0,0,0,1,0,circle,hexagon,,,,,,,,,,,,,,,,,,,,,,,,,,,,,,,,,,,,,,,,,,,,,,,,,,,,,,
292726,2022-09-30_12h03.29.035,vts_reward_expectancy,2022.2.4,Win32,165.0165017,Firefox,1920,1080,,,l,1.257,10,109,0,2,3,27,9,1,0,0,0,1,1,0,0,0,star,triangle,,,,,,,,,,,,,,,,,,,,,,,,,,,,,,,,,,,,,,,,,,,,,,,,,,,,,,
292726,2022-09-30_12h03.29.035,vts_reward_expectancy,2022.2.4,Win32,165.0165017,Firefox,1920,1080,,,a,1.777,10,119,0,2,4,28,10,1,0,0,0,1,0,1,0,0,star ,circle,,,,,,,,,,,,,,,,,,,,,,,,,,,,,,,,,,,,,,,,,,,,,,,,,,,,,,
292726,2022-09-30_12h03.29.035,vts_reward_expectancy,2022.2.4,Win32,165.0165017,Firefox,1920,1080,,,a,1.341,10,129,0,2,5,29,2,1,1,0,0,0,0,0,0,1,triangle,star,,,,,,,,,,,,,,,,,,,,,,,,,,,,,,,,,,,,,,,,,,,,,,,,,,,,,,
292726,2022-09-30_12h03.29.035,vts_reward_expectancy,2022.2.4,Win32,165.0165017,Firefox,1920,1080,,,a,0.972,1,130,0,2,6,30,7,1,0,0,1,0,0,1,0,0,hexagon,circle,,,,,,,,,,,,,,,,,,,,,,,,,,,,,,,,,,,,,,,,,,,,,,,,,,,,,,
292726,2022-09-30_12h03.29.035,vts_reward_expectancy,2022.2.4,Win32,165.0165017,Firefox,1920,1080,,,a,0.959,10,140,0,2,7,31,0,1,1,0,0,0,0,1,0,0,triangle,circle,,,,,,,,,,,,,,,,,,,,,,,,,,,,,,,,,,,,,,,,,,,,,,,,,,,,,,
292726,2022-09-30_12h03.29.035,vts_reward_expectancy,2022.2.4,Win32,165.0165017,Firefox,1920,1080,,,l,2.147,10,150,0,2,8,32,11,1,0,0,0,1,0,0,1,0,star,hexagon,,,,,,,,,,,,,,,,,,,,,,,,,,,,,,,,,,,,,,,,,,,,,,,,,,,,,,
292726,2022-09-30_12h03.29.035,vts_reward_expectancy,2022.2.4,Win32,165.0165017,Firefox,1920,1080,,,a,1.28,1,151,0,2,9,33,8,1,0,0,1,0,0,0,0,1,hexagon,star,,,,,,,,,,,,,,,,,,,,,,,,,,,,,,,,,,,,,,,,,,,,,,,,,,,,,,
292726,2022-09-30_12h03.29.035,vts_reward_expectancy,2022.2.4,Win32,165.0165017,Firefox,1920,1080,,,a,5.101,10,161,0,2,10,34,1,1,1,0,0,0,0,0,1,0,triangle,hexagon,,,,,,,,,,,,,,,,,,,,,,,,,,,,,,,,,,,,,,,,,,,,,,,,,,,,,,
292726,2022-09-30_12h03.29.035,vts_reward_expectancy,2022.2.4,Win32,165.0165017,Firefox,1920,1080,,,a,1.723,1,162,0,2,11,35,3,1,0,1,0,0,1,0,0,0,circle,triangle,,,,,,,,,,,,,,,,,,,,,,,,,,,,,,,,,,,,,,,,,,,,,,,,,,,,,,
292726,2022-09-30_12h03.29.035,vts_reward_expectancy,2022.2.4,Win32,165.0165017,Firefox,1920,1080,,,l,1.08,1,163,1,0,0,0,3,1,0,1,0,0,1,0,0,0,circle,triangle,,,,,,,,,,,,,,,,,,,,,,,,,,,,,,,,,,,,,,,,,,,,,,,,,,,,,,
292726,2022-09-30_12h03.29.035,vts_reward_expectancy,2022.2.4,Win32,165.0165017,Firefox,1920,1080,,,a,1.039,10,173,1,0,1,1,9,1,0,0,0,1,1,0,0,0,star,triangle,,,,,,,,,,,,,,,,,,,,,,,,,,,,,,,,,,,,,,,,,,,,,,,,,,,,,,
292726,2022-09-30_12h03.29.035,vts_reward_expectancy,2022.2.4,Win32,165.0165017,Firefox,1920,1080,,,a,1.084,10,183,1,0,2,2,0,1,1,0,0,0,0,1,0,0,triangle,circle,,,,,,,,,,,,,,,,,,,,,,,,,,,,,,,,,,,,,,,,,,,,,,,,,,,,,,
292726,2022-09-30_12h03.29.035,vts_reward_expectancy,2022.2.4,Win32,165.0165017,Firefox,1920,1080,,,a,1.116,10,193,1,0,3,3,10,1,0,0,0,1,0,1,0,0,star ,circle,,,,,,,,,,,,,,,,,,,,,,,,,,,,,,,,,,,,,,,,,,,,,,,,,,,,,,
292726,2022-09-30_12h03.29.035,vts_reward_expectancy,2022.2.4,Win32,165.0165017,Firefox,1920,1080,,,a,0.983,1,194,1,0,4,4,11,1,0,0,0,1,0,0,1,0,star,hexagon,,,,,,,,,,,,,,,,,,,,,,,,,,,,,,,,,,,,,,,,,,,,,,,,,,,,,,
292726,2022-09-30_12h03.29.035,vts_reward_expectancy,2022.2.4,Win32,165.0165017,Firefox,1920,1080,,,a,3.009,1,195,1,0,5,5,6,1,0,0,1,0,1,0,0,0,hexagon,triangle,,,,,,,,,,,,,,,,,,,,,,,,,,,,,,,,,,,,,,,,,,,,,,,,,,,,,,
292726,2022-09-30_12h03.29.035,vts_reward_expectancy,2022.2.4,Win32,165.0165017,Firefox,1920,1080,,,l,3.183,10,205,1,0,6,6,1,1,1,0,0,0,0,0,1,0,triangle,hexagon,,,,,,,,,,,,,,,,,,,,,,,,,,,,,,,,,,,,,,,,,,,,,,,,,,,,,,
292726,2022-09-30_12h03.29.035,vts_reward_expectancy,2022.2.4,Win32,165.0165017,Firefox,1920,1080,,,a,3.687,1,206,1,0,7,7,8,1,0,0,1,0,0,0,0,1,hexagon,star,,,,,,,,,,,,,,,,,,,,,,,,,,,,,,,,,,,,,,,,,,,,,,,,,,,,,,
292726,2022-09-30_12h03.29.035,vts_reward_expectancy,2022.2.4,Win32,165.0165017,Firefox,1920,1080,,,l,1.306,10,216,1,0,8,8,2,1,1,0,0,0,0,0,0,1,triangle,star,,,,,,,,,,,,,,,,,,,,,,,,,,,,,,,,,,,,,,,,,,,,,,,,,,,,,,
292726,2022-09-30_12h03.29.035,vts_reward_expectancy,2022.2.4,Win32,165.0165017,Firefox,1920,1080,,,a,1.953,10,226,1,0,9,9,7,1,0,0,1,0,0,1,0,0,hexagon,circle,,,,,,,,,,,,,,,,,,,,,,,,,,,,,,,,,,,,,,,,,,,,,,,,,,,,,,
292726,2022-09-30_12h03.29.035,vts_reward_expectancy,2022.2.4,Win32,165.0165017,Firefox,1920,1080,,,l,2.007,10,236,1,0,10,10,5,1,0,1,0,0,0,0,0,1,circle,star,,,,,,,,,,,,,,,,,,,,,,,,,,,,,,,,,,,,,,,,,,,,,,,,,,,,,,
292726,2022-09-30_12h03.29.035,vts_reward_expectancy,2022.2.4,Win32,165.0165017,Firefox,1920,1080,,,l,1.165,10,246,1,0,11,11,4,1,0,1,0,0,0,0,1,0,circle,hexagon,,,,,,,,,,,,,,,,,,,,,,,,,,,,,,,,,,,,,,,,,,,,,,,,,,,,,,
292726,2022-09-30_12h03.29.035,vts_reward_expectancy,2022.2.4,Win32,165.0165017,Firefox,1920,1080,,,l,2.679,1,247,1,1,0,12,8,1,0,0,1,0,0,0,0,1,hexagon,star,,,,,,,,,,,,,,,,,,,,,,,,,,,,,,,,,,,,,,,,,,,,,,,,,,,,,,
292726,2022-09-30_12h03.29.035,vts_reward_expectancy,2022.2.4,Win32,165.0165017,Firefox,1920,1080,,,l,1.133,10,257,1,1,1,13,3,1,0,1,0,0,1,0,0,0,circle,triangle,,,,,,,,,,,,,,,,,,,,,,,,,,,,,,,,,,,,,,,,,,,,,,,,,,,,,,
292726,2022-09-30_12h03.29.035,vts_reward_expectancy,2022.2.4,Win32,165.0165017,Firefox,1920,1080,,,a,2.256,10,267,1,1,2,14,0,1,1,0,0,0,0,1,0,0,triangle,circle,,,,,,,,,,,,,,,,,,,,,,,,,,,,,,,,,,,,,,,,,,,,,,,,,,,,,,
292726,2022-09-30_12h03.29.035,vts_reward_expectancy,2022.2.4,Win32,165.0165017,Firefox,1920,1080,,,a,1.074,1,268,1,1,3,15,6,1,0,0,1,0,1,0,0,0,hexagon,triangle,,,,,,,,,,,,,,,,,,,,,,,,,,,,,,,,,,,,,,,,,,,,,,,,,,,,,,
292726,2022-09-30_12h03.29.035,vts_reward_expectancy,2022.2.4,Win32,165.0165017,Firefox,1920,1080,,,l,2.422,1,269,1,1,4,16,11,1,0,0,0,1,0,0,1,0,star,hexagon,,,,,,,,,,,,,,,,,,,,,,,,,,,,,,,,,,,,,,,,,,,,,,,,,,,,,,
292726,2022-09-30_12h03.29.035,vts_reward_expectancy,2022.2.4,Win32,165.0165017,Firefox,1920,1080,,,a,0.9,1,270,1,1,5,17,7,1,0,0,1,0,0,1,0,0,hexagon,circle,,,,,,,,,,,,,,,,,,,,,,,,,,,,,,,,,,,,,,,,,,,,,,,,,,,,,,
292726,2022-09-30_12h03.29.035,vts_reward_expectancy,2022.2.4,Win32,165.0165017,Firefox,1920,1080,,,a,3.071,1,271,1,1,6,18,9,1,0,0,0,1,1,0,0,0,star,triangle,,,,,,,,,,,,,,,,,,,,,,,,,,,,,,,,,,,,,,,,,,,,,,,,,,,,,,
292726,2022-09-30_12h03.29.035,vts_reward_expectancy,2022.2.4,Win32,165.0165017,Firefox,1920,1080,,,a,0.785,10,281,1,1,7,19,1,1,1,0,0,0,0,0,1,0,triangle,hexagon,,,,,,,,,,,,,,,,,,,,,,,,,,,,,,,,,,,,,,,,,,,,,,,,,,,,,,
292726,2022-09-30_12h03.29.035,vts_reward_expectancy,2022.2.4,Win32,165.0165017,Firefox,1920,1080,,,a,1.86,1,282,1,1,8,20,4,1,0,1,0,0,0,0,1,0,circle,hexagon,,,,,,,,,,,,,,,,,,,,,,,,,,,,,,,,,,,,,,,,,,,,,,,,,,,,,,
292726,2022-09-30_12h03.29.035,vts_reward_expectancy,2022.2.4,Win32,165.0165017,Firefox,1920,1080,,,a,1.982,10,292,1,1,9,21,2,1,1,0,0,0,0,0,0,1,triangle,star,,,,,,,,,,,,,,,,,,,,,,,,,,,,,,,,,,,,,,,,,,,,,,,,,,,,,,
292726,2022-09-30_12h03.29.035,vts_reward_expectancy,2022.2.4,Win32,165.0165017,Firefox,1920,1080,,,l,1.126,1,293,1,1,10,22,5,1,0,1,0,0,0,0,0,1,circle,star,,,,,,,,,,,,,,,,,,,,,,,,,,,,,,,,,,,,,,,,,,,,,,,,,,,,,,
292726,2022-09-30_12h03.29.035,vts_reward_expectancy,2022.2.4,Win32,165.0165017,Firefox,1920,1080,,,l,1.109,1,294,1,1,11,23,10,1,0,0,0,1,0,1,0,0,star ,circle,,,,,,,,,,,,,,,,,,,,,,,,,,,,,,,,,,,,,,,,,,,,,,,,,,,,,,
292726,2022-09-30_12h03.29.035,vts_reward_expectancy,2022.2.4,Win32,165.0165017,Firefox,1920,1080,,,l,1.869,10,304,1,2,0,24,11,1,0,0,0,1,0,0,1,0,star,hexagon,,,,,,,,,,,,,,,,,,,,,,,,,,,,,,,,,,,,,,,,,,,,,,,,,,,,,,
292726,2022-09-30_12h03.29.035,vts_reward_expectancy,2022.2.4,Win32,165.0165017,Firefox,1920,1080,,,a,1.265,1,305,1,2,1,25,5,1,0,1,0,0,0,0,0,1,circle,star,,,,,,,,,,,,,,,,,,,,,,,,,,,,,,,,,,,,,,,,,,,,,,,,,,,,,,
292726,2022-09-30_12h03.29.035,vts_reward_expectancy,2022.2.4,Win32,165.0165017,Firefox,1920,1080,,,a,1.237,1,306,1,2,2,26,10,1,0,0,0,1,0,1,0,0,star ,circle,,,,,,,,,,,,,,,,,,,,,,,,,,,,,,,,,,,,,,,,,,,,,,,,,,,,,,
292726,2022-09-30_12h03.29.035,vts_reward_expectancy,2022.2.4,Win32,165.0165017,Firefox,1920,1080,,,l,2.239,10,316,1,2,3,27,4,1,0,1,0,0,0,0,1,0,circle,hexagon,,,,,,,,,,,,,,,,,,,,,,,,,,,,,,,,,,,,,,,,,,,,,,,,,,,,,,
292726,2022-09-30_12h03.29.035,vts_reward_expectancy,2022.2.4,Win32,165.0165017,Firefox,1920,1080,,,l,1.26,10,326,1,2,4,28,6,1,0,0,1,0,1,0,0,0,hexagon,triangle,,,,,,,,,,,,,,,,,,,,,,,,,,,,,,,,,,,,,,,,,,,,,,,,,,,,,,
292726,2022-09-30_12h03.29.035,vts_reward_expectancy,2022.2.4,Win32,165.0165017,Firefox,1920,1080,,,a,2.305,1,327,1,2,5,29,7,1,0,0,1,0,0,1,0,0,hexagon,circle,,,,,,,,,,,,,,,,,,,,,,,,,,,,,,,,,,,,,,,,,,,,,,,,,,,,,,
292726,2022-09-30_12h03.29.035,vts_reward_expectancy,2022.2.4,Win32,165.0165017,Firefox,1920,1080,,,a,3.874,1,328,1,2,6,30,9,1,0,0,0,1,1,0,0,0,star,triangle,,,,,,,,,,,,,,,,,,,,,,,,,,,,,,,,,,,,,,,,,,,,,,,,,,,,,,
292726,2022-09-30_12h03.29.035,vts_reward_expectancy,2022.2.4,Win32,165.0165017,Firefox,1920,1080,,,a,0.971,10,338,1,2,7,31,8,1,0,0,1,0,0,0,0,1,hexagon,star,,,,,,,,,,,,,,,,,,,,,,,,,,,,,,,,,,,,,,,,,,,,,,,,,,,,,,
292726,2022-09-30_12h03.29.035,vts_reward_expectancy,2022.2.4,Win32,165.0165017,Firefox,1920,1080,,,a,1.996,10,348,1,2,8,32,2,1,1,0,0,0,0,0,0,1,triangle,star,,,,,,,,,,,,,,,,,,,,,,,,,,,,,,,,,,,,,,,,,,,,,,,,,,,,,,
292726,2022-09-30_12h03.29.035,vts_reward_expectancy,2022.2.4,Win32,165.0165017,Firefox,1920,1080,,,a,1.288,10,358,1,2,9,33,1,1,1,0,0,0,0,0,1,0,triangle,hexagon,,,,,,,,,,,,,,,,,,,,,,,,,,,,,,,,,,,,,,,,,,,,,,,,,,,,,,
292726,2022-09-30_12h03.29.035,vts_reward_expectancy,2022.2.4,Win32,165.0165017,Firefox,1920,1080,,,a,1.178,10,368,1,2,10,34,0,1,1,0,0,0,0,1,0,0,triangle,circle,,,,,,,,,,,,,,,,,,,,,,,,,,,,,,,,,,,,,,,,,,,,,,,,,,,,,,
292726,2022-09-30_12h03.29.035,vts_reward_expectancy,2022.2.4,Win32,165.0165017,Firefox,1920,1080,,,l,1.263,1,369,1,2,11,35,3,1,0,1,0,0,1,0,0,0,circle,triangle,,,,,,,,,,,,,,,,,,,,,,,,,,,,,,,,,,,,,,,,,,,,,,,,,,,,,,
292726,2022-09-30_12h03.29.035,vts_reward_expectancy,2022.2.4,Win32,165.0165017,Firefox,1920,1080,,,a,1.339,1,370,2,0,0,0,2,1,1,0,0,0,0,0,0,1,triangle,star,,,,,,,,,,,,,,,,,,,,,,,,,,,,,,,,,,,,,,,,,,,,,,,,,,,,,,
292726,2022-09-30_12h03.29.035,vts_reward_expectancy,2022.2.4,Win32,165.0165017,Firefox,1920,1080,,,a,1.046,1,371,2,0,1,1,8,1,0,0,1,0,0,0,0,1,hexagon,star,,,,,,,,,,,,,,,,,,,,,,,,,,,,,,,,,,,,,,,,,,,,,,,,,,,,,,
292726,2022-09-30_12h03.29.035,vts_reward_expectancy,2022.2.4,Win32,165.0165017,Firefox,1920,1080,,,l,2.194,1,372,2,0,2,2,11,1,0,0,0,1,0,0,1,0,star,hexagon,,,,,,,,,,,,,,,,,,,,,,,,,,,,,,,,,,,,,,,,,,,,,,,,,,,,,,
292726,2022-09-30_12h03.29.035,vts_reward_expectancy,2022.2.4,Win32,165.0165017,Firefox,1920,1080,,,a,2.912,1,373,2,0,3,3,10,1,0,0,0,1,0,1,0,0,star ,circle,,,,,,,,,,,,,,,,,,,,,,,,,,,,,,,,,,,,,,,,,,,,,,,,,,,,,,
292726,2022-09-30_12h03.29.035,vts_reward_expectancy,2022.2.4,Win32,165.0165017,Firefox,1920,1080,,,a,0.675,1,374,2,0,4,4,1,1,1,0,0,0,0,0,1,0,triangle,hexagon,,,,,,,,,,,,,,,,,,,,,,,,,,,,,,,,,,,,,,,,,,,,,,,,,,,,,,
292726,2022-09-30_12h03.29.035,vts_reward_expectancy,2022.2.4,Win32,165.0165017,Firefox,1920,1080,,,l,1.008,10,384,2,0,5,5,6,1,0,0,1,0,1,0,0,0,hexagon,triangle,,,,,,,,,,,,,,,,,,,,,,,,,,,,,,,,,,,,,,,,,,,,,,,,,,,,,,
292726,2022-09-30_12h03.29.035,vts_reward_expectancy,2022.2.4,Win32,165.0165017,Firefox,1920,1080,,,a,1.225,1,385,2,0,6,6,5,1,0,1,0,0,0,0,0,1,circle,star,,,,,,,,,,,,,,,,,,,,,,,,,,,,,,,,,,,,,,,,,,,,,,,,,,,,,,
292726,2022-09-30_12h03.29.035,vts_reward_expectancy,2022.2.4,Win32,165.0165017,Firefox,1920,1080,,,l,0.828,10,395,2,0,7,7,3,1,0,1,0,0,1,0,0,0,circle,triangle,,,,,,,,,,,,,,,,,,,,,,,,,,,,,,,,,,,,,,,,,,,,,,,,,,,,,,
292726,2022-09-30_12h03.29.035,vts_reward_expectancy,2022.2.4,Win32,165.0165017,Firefox,1920,1080,,,l,0.814,10,405,2,0,8,8,9,1,0,0,0,1,1,0,0,0,star,triangle,,,,,,,,,,,,,,,,,,,,,,,,,,,,,,,,,,,,,,,,,,,,,,,,,,,,,,
292726,2022-09-30_12h03.29.035,vts_reward_expectancy,2022.2.4,Win32,165.0165017,Firefox,1920,1080,,,l,1.362,1,406,2,0,9,9,4,1,0,1,0,0,0,0,1,0,circle,hexagon,,,,,,,,,,,,,,,,,,,,,,,,,,,,,,,,,,,,,,,,,,,,,,,,,,,,,,
292726,2022-09-30_12h03.29.035,vts_reward_expectancy,2022.2.4,Win32,165.0165017,Firefox,1920,1080,,,a,1.006,10,416,2,0,10,10,7,1,0,0,1,0,0,1,0,0,hexagon,circle,,,,,,,,,,,,,,,,,,,,,,,,,,,,,,,,,,,,,,,,,,,,,,,,,,,,,,
292726,2022-09-30_12h03.29.035,vts_reward_expectancy,2022.2.4,Win32,165.0165017,Firefox,1920,1080,,,a,0.728,10,426,2,0,11,11,0,1,1,0,0,0,0,1,0,0,triangle,circle,,,,,,,,,,,,,,,,,,,,,,,,,,,,,,,,,,,,,,,,,,,,,,,,,,,,,,
292726,2022-09-30_12h03.29.035,vts_reward_expectancy,2022.2.4,Win32,165.0165017,Firefox,1920,1080,,,a,1.079,10,436,2,1,0,12,1,1,1,0,0,0,0,0,1,0,triangle,hexagon,,,,,,,,,,,,,,,,,,,,,,,,,,,,,,,,,,,,,,,,,,,,,,,,,,,,,,
292726,2022-09-30_12h03.29.035,vts_reward_expectancy,2022.2.4,Win32,165.0165017,Firefox,1920,1080,,,a,0.99,10,446,2,1,1,13,2,1,1,0,0,0,0,0,0,1,triangle,star,,,,,,,,,,,,,,,,,,,,,,,,,,,,,,,,,,,,,,,,,,,,,,,,,,,,,,
292726,2022-09-30_12h03.29.035,vts_reward_expectancy,2022.2.4,Win32,165.0165017,Firefox,1920,1080,,,a,0.765,1,447,2,1,2,14,5,1,0,1,0,0,0,0,0,1,circle,star,,,,,,,,,,,,,,,,,,,,,,,,,,,,,,,,,,,,,,,,,,,,,,,,,,,,,,
292726,2022-09-30_12h03.29.035,vts_reward_expectancy,2022.2.4,Win32,165.0165017,Firefox,1920,1080,,,a,0.972,10,457,2,1,3,15,7,1,0,0,1,0,0,1,0,0,hexagon,circle,,,,,,,,,,,,,,,,,,,,,,,,,,,,,,,,,,,,,,,,,,,,,,,,,,,,,,
292726,2022-09-30_12h03.29.035,vts_reward_expectancy,2022.2.4,Win32,165.0165017,Firefox,1920,1080,,,l,1.418,10,467,2,1,4,16,6,1,0,0,1,0,1,0,0,0,hexagon,triangle,,,,,,,,,,,,,,,,,,,,,,,,,,,,,,,,,,,,,,,,,,,,,,,,,,,,,,
292726,2022-09-30_12h03.29.035,vts_reward_expectancy,2022.2.4,Win32,165.0165017,Firefox,1920,1080,,,a,1.461,10,477,2,1,5,17,11,1,0,0,0,1,0,0,1,0,star,hexagon,,,,,,,,,,,,,,,,,,,,,,,,,,,,,,,,,,,,,,,,,,,,,,,,,,,,,,
292726,2022-09-30_12h03.29.035,vts_reward_expectancy,2022.2.4,Win32,165.0165017,Firefox,1920,1080,,,l,0.987,10,487,2,1,6,18,8,1,0,0,1,0,0,0,0,1,hexagon,star,,,,,,,,,,,,,,,,,,,,,,,,,,,,,,,,,,,,,,,,,,,,,,,,,,,,,,
292726,2022-09-30_12h03.29.035,vts_reward_expectancy,2022.2.4,Win32,165.0165017,Firefox,1920,1080,,,l,0.709,10,497,2,1,7,19,3,1,0,1,0,0,1,0,0,0,circle,triangle,,,,,,,,,,,,,,,,,,,,,,,,,,,,,,,,,,,,,,,,,,,,,,,,,,,,,,
292726,2022-09-30_12h03.29.035,vts_reward_expectancy,2022.2.4,Win32,165.0165017,Firefox,1920,1080,,,a,2.105,1,498,2,1,8,20,4,1,0,1,0,0,0,0,1,0,circle,hexagon,,,,,,,,,,,,,,,,,,,,,,,,,,,,,,,,,,,,,,,,,,,,,,,,,,,,,,
292726,2022-09-30_12h03.29.035,vts_reward_expectancy,2022.2.4,Win32,165.0165017,Firefox,1920,1080,,,a,1.068,1,499,2,1,9,21,10,1,0,0,0,1,0,1,0,0,star ,circle,,,,,,,,,,,,,,,,,,,,,,,,,,,,,,,,,,,,,,,,,,,,,,,,,,,,,,
292726,2022-09-30_12h03.29.035,vts_reward_expectancy,2022.2.4,Win32,165.0165017,Firefox,1920,1080,,,l,1.069,1,500,2,1,10,22,9,1,0,0,0,1,1,0,0,0,star,triangle,,,,,,,,,,,,,,,,,,,,,,,,,,,,,,,,,,,,,,,,,,,,,,,,,,,,,,
292726,2022-09-30_12h03.29.035,vts_reward_expectancy,2022.2.4,Win32,165.0165017,Firefox,1920,1080,,,a,1.203,10,510,2,1,11,23,0,1,1,0,0,0,0,1,0,0,triangle,circle,,,,,,,,,,,,,,,,,,,,,,,,,,,,,,,,,,,,,,,,,,,,,,,,,,,,,,
292726,2022-09-30_12h03.29.035,vts_reward_expectancy,2022.2.4,Win32,165.0165017,Firefox,1920,1080,,,a,1.34,1,511,2,2,0,24,7,1,0,0,1,0,0,1,0,0,hexagon,circle,,,,,,,,,,,,,,,,,,,,,,,,,,,,,,,,,,,,,,,,,,,,,,,,,,,,,,
292726,2022-09-30_12h03.29.035,vts_reward_expectancy,2022.2.4,Win32,165.0165017,Firefox,1920,1080,,,a,0.822,1,512,2,2,1,25,5,1,0,1,0,0,0,0,0,1,circle,star,,,,,,,,,,,,,,,,,,,,,,,,,,,,,,,,,,,,,,,,,,,,,,,,,,,,,,
292726,2022-09-30_12h03.29.035,vts_reward_expectancy,2022.2.4,Win32,165.0165017,Firefox,1920,1080,,,a,1.595,1,513,2,2,2,26,4,1,0,1,0,0,0,0,1,0,circle,hexagon,,,,,,,,,,,,,,,,,,,,,,,,,,,,,,,,,,,,,,,,,,,,,,,,,,,,,,
292726,2022-09-30_12h03.29.035,vts_reward_expectancy,2022.2.4,Win32,165.0165017,Firefox,1920,1080,,,l,2.161,1,514,2,2,3,27,11,1,0,0,0,1,0,0,1,0,star,hexagon,,,,,,,,,,,,,,,,,,,,,,,,,,,,,,,,,,,,,,,,,,,,,,,,,,,,,,
292726,2022-09-30_12h03.29.035,vts_reward_expectancy,2022.2.4,Win32,165.0165017,Firefox,1920,1080,,,a,0.68,10,524,2,2,4,28,1,1,1,0,0,0,0,0,1,0,triangle,hexagon,,,,,,,,,,,,,,,,,,,,,,,,,,,,,,,,,,,,,,,,,,,,,,,,,,,,,,
292726,2022-09-30_12h03.29.035,vts_reward_expectancy,2022.2.4,Win32,165.0165017,Firefox,1920,1080,,,a,0.573,10,534,2,2,5,29,2,1,1,0,0,0,0,0,0,1,triangle,star,,,,,,,,,,,,,,,,,,,,,,,,,,,,,,,,,,,,,,,,,,,,,,,,,,,,,,
292726,2022-09-30_12h03.29.035,vts_reward_expectancy,2022.2.4,Win32,165.0165017,Firefox,1920,1080,,,l,1.461,1,535,2,2,6,30,8,1,0,0,1,0,0,0,0,1,hexagon,star,,,,,,,,,,,,,,,,,,,,,,,,,,,,,,,,,,,,,,,,,,,,,,,,,,,,,,
292726,2022-09-30_12h03.29.035,vts_reward_expectancy,2022.2.4,Win32,165.0165017,Firefox,1920,1080,,,l,1.067,10,545,2,2,7,31,6,1,0,0,1,0,1,0,0,0,hexagon,triangle,,,,,,,,,,,,,,,,,,,,,,,,,,,,,,,,,,,,,,,,,,,,,,,,,,,,,,
292726,2022-09-30_12h03.29.035,vts_reward_expectancy,2022.2.4,Win32,165.0165017,Firefox,1920,1080,,,l,2.041,1,546,2,2,8,32,3,1,0,1,0,0,1,0,0,0,circle,triangle,,,,,,,,,,,,,,,,,,,,,,,,,,,,,,,,,,,,,,,,,,,,,,,,,,,,,,
292726,2022-09-30_12h03.29.035,vts_reward_expectancy,2022.2.4,Win32,165.0165017,Firefox,1920,1080,,,l,0.802,10,556,2,2,9,33,9,1,0,0,0,1,1,0,0,0,star,triangle,,,,,,,,,,,,,,,,,,,,,,,,,,,,,,,,,,,,,,,,,,,,,,,,,,,,,,
292726,2022-09-30_12h03.29.035,vts_reward_expectancy,2022.2.4,Win32,165.0165017,Firefox,1920,1080,,,a,2.033,10,566,2,2,10,34,10,1,0,0,0,1,0,1,0,0,star ,circle,,,,,,,,,,,,,,,,,,,,,,,,,,,,,,,,,,,,,,,,,,,,,,,,,,,,,,
292726,2022-09-30_12h03.29.035,vts_reward_expectancy,2022.2.4,Win32,165.0165017,Firefox,1920,1080,,,a,0.983,10,576,2,2,11,35,0,1,1,0,0,0,0,1,0,0,triangle,circle,,,,,,,,,,,,,,,,,,,,,,,,,,,,,,,,,,,,,,,,,,,,,,,,,,,,,,
292726,2022-09-30_12h03.29.035,vts_reward_expectancy,2022.2.4,Win32,165.0165017,Firefox,1920,1080,,,,,,,,,,,,,,,,,,,,,,,160,H,circle,0,0,,0,0,0,0,0,1,,,,,,,,,,,,,,,,,,,,,,,,,,,,,,,,,,,,,,,,,,
292726,2022-09-30_12h03.29.035,vts_reward_expectancy,2022.2.4,Win32,165.0165017,Firefox,1920,1080,,,,,,,,,,,,,,,,,,,,,,,174,Y,triangle,1,1,f,0,1,0,1,0,1,0.63,,,,,,,,,,,,,,,,,,,,,,,,,,,,,,,,,,,,,,,,,
292726,2022-09-30_12h03.29.035,vts_reward_expectancy,2022.2.4,Win32,165.0165017,Firefox,1920,1080,,,,,,,,,,,,,,,,,,,,,,,181,F,star,1,0,f,0,2,0,2,0,1,0.575,,,,,,,,,,,,,,,,,,,,,,,,,,,,,,,,,,,,,,,,,
292726,2022-09-30_12h03.29.035,vts_reward_expectancy,2022.2.4,Win32,165.0165017,Firefox,1920,1080,,,,,,,,,,,,,,,,,,,,,,,167,U,hexagon,1,0,f,0,3,0,3,0,1,0.477,,,,,,,,,,,,,,,,,,,,,,,,,,,,,,,,,,,,,,,,,
292726,2022-09-30_12h03.29.035,vts_reward_expectancy,2022.2.4,Win32,165.0165017,Firefox,1920,1080,,,,,,,,,,,,,,,,,,,,,,,146,B,circle,1,0,d,0,4,0,4,0,1,0.485,,,,,,,,,,,,,,,,,,,,,,,,,,,,,,,,,,,,,,,,,
292726,2022-09-30_12h03.29.035,vts_reward_expectancy,2022.2.4,Win32,165.0165017,Firefox,1920,1080,,,,,,,,,,,,,,,,,,,,,,,139,D,triangle,1,0,d,0,5,0,5,0,1,0.537,,,,,,,,,,,,,,,,,,,,,,,,,,,,,,,,,,,,,,,,,
292726,2022-09-30_12h03.29.035,vts_reward_expectancy,2022.2.4,Win32,165.0165017,Firefox,1920,1080,,,,,,,,,,,,,,,,,,,,,,,125,W,star,1,0,d,0,6,0,6,0,1,0.465,,,,,,,,,,,,,,,,,,,,,,,,,,,,,,,,,,,,,,,,,
292726,2022-09-30_12h03.29.035,vts_reward_expectancy,2022.2.4,Win32,165.0165017,Firefox,1920,1080,,,,,,,,,,,,,,,,,,,,,,,132,S,hexagon,1,0,d,0,7,0,7,0,1,0.468,,,,,,,,,,,,,,,,,,,,,,,,,,,,,,,,,,,,,,,,,
292726,2022-09-30_12h03.29.035,vts_reward_expectancy,2022.2.4,Win32,165.0165017,Firefox,1920,1080,,,,,,,,,,,,,,,,,,,,,,,160,H,circle,1,0,f,0,8,0,8,0,1,0.684,,,,,,,,,,,,,,,,,,,,,,,,,,,,,,,,,,,,,,,,,
292726,2022-09-30_12h03.29.035,vts_reward_expectancy,2022.2.4,Win32,165.0165017,Firefox,1920,1080,,,,,,,,,,,,,,,,,,,,,,,174,Y,triangle,1,0,f,0,9,0,9,0,1,0.553,,,,,,,,,,,,,,,,,,,,,,,,,,,,,,,,,,,,,,,,,
292726,2022-09-30_12h03.29.035,vts_reward_expectancy,2022.2.4,Win32,165.0165017,Firefox,1920,1080,,,,,,,,,,,,,,,,,,,,,,,132,U,hexagon,1,0,,1,,,,,,,k,0.766,0,0,0,0,1,,,,,,,,,,,,,,,,,,,,,,,,,,,,,,,,,,
292726,2022-09-30_12h03.29.035,vts_reward_expectancy,2022.2.4,Win32,165.0165017,Firefox,1920,1080,,,,,,,,,,,,,,,,,,,,,,,146,D,circle,1,0,,1,,,,,,,j,0.654,1,0,1,0,1,,,,,,,,,,,,,,,,,,,,,,,,,,,,,,,,,,
292726,2022-09-30_12h03.29.035,vts_reward_expectancy,2022.2.4,Win32,165.0165017,Firefox,1920,1080,,,,,,,,,,,,,,,,,,,,,,,181,W,triangle,1,0,,1,,,,,,,k,0.563,2,0,2,0,1,,,,,,,,,,,,,,,,,,,,,,,,,,,,,,,,,,
292726,2022-09-30_12h03.29.035,vts_reward_expectancy,2022.2.4,Win32,165.0165017,Firefox,1920,1080,,,,,,,,,,,,,,,,,,,,,,,160,S,star,1,0,,1,,,,,,,k,1.005,3,0,3,0,1,,,,,,,,,,,,,,,,,,,,,,,,,,,,,,,,,,
292726,2022-09-30_12h03.29.035,vts_reward_expectancy,2022.2.4,Win32,165.0165017,Firefox,1920,1080,,,,,,,,,,,,,,,,,,,,,,,174,H,hexagon,1,0,,1,,,,,,,j,0.714,4,0,4,0,1,,,,,,,,,,,,,,,,,,,,,,,,,,,,,,,,,,
292726,2022-09-30_12h03.29.035,vts_reward_expectancy,2022.2.4,Win32,165.0165017,Firefox,1920,1080,,,,,,,,,,,,,,,,,,,,,,,139,Y,circle,1,0,,1,,,,,,,k,0.593,5,0,5,0,1,,,,,,,,,,,,,,,,,,,,,,,,,,,,,,,,,,
292726,2022-09-30_12h03.29.035,vts_reward_expectancy,2022.2.4,Win32,165.0165017,Firefox,1920,1080,,,,,,,,,,,,,,,,,,,,,,,167,F,triangle,1,0,,1,,,,,,,j,0.875,6,0,6,0,1,,,,,,,,,,,,,,,,,,,,,,,,,,,,,,,,,,
292726,2022-09-30_12h03.29.035,vts_reward_expectancy,2022.2.4,Win32,165.0165017,Firefox,1920,1080,,,,,,,,,,,,,,,,,,,,,,,125,B,star,1,0,,1,,,,,,,j,0.605,7,0,7,0,1,,,,,,,,,,,,,,,,,,,,,,,,,,,,,,,,,,
292726,2022-09-30_12h03.29.035,vts_reward_expectancy,2022.2.4,Win32,165.0165017,Firefox,1920,1080,,,,,,,,,,,,,,,,,,,,,,,132,U,triangle,1,0,,1,,,,,,,k,0.552,8,0,8,0,1,,,,,,,,,,,,,,,,,,,,,,,,,,,,,,,,,,
292726,2022-09-30_12h03.29.035,vts_reward_expectancy,2022.2.4,Win32,165.0165017,Firefox,1920,1080,,,,,,,,,,,,,,,,,,,,,,,146,D,circle,1,0,,1,,,,,,,j,1.018,9,0,9,0,1,,,,,,,,,,,,,,,,,,,,,,,,,,,,,,,,,,
292726,2022-09-30_12h03.29.035,vts_reward_expectancy,2022.2.4,Win32,165.0165017,Firefox,1920,1080,,,,,0,576,,,,,,,,,,,,,,,,,146,S,star,0,0,,2,,,,,,,,,,,,,,-1,number,NA,f,2.363,vtsPrac,0,0,0,0,1,,,,,,,,,,,,,,,,,,,,,,,
292726,2022-09-30_12h03.29.035,vts_reward_expectancy,2022.2.4,Win32,165.0165017,Firefox,1920,1080,,,,,0,576,,,,,,,,,,,,,,,,,139,D,triangle,1,1,,2,,,,,,,,,,,,,,repeat,number,numRpt,d,1.726,vtsPrac,1,0,1,0,1,,,,,,,,,,,,,,,,,,,,,,,
292726,2022-09-30_12h03.29.035,vts_reward_expectancy,2022.2.4,Win32,165.0165017,Firefox,1920,1080,,,,,0,576,,,,,,,,,,,,,,,,,132,W,star,1,0,,2,,,,,,,,,,,,,,switch,letter,lettSwt,k,0.999,vtsPrac,2,0,2,0,1,,,,,,,,,,,,,,,,,,,,,,,
292726,2022-09-30_12h03.29.035,vts_reward_expectancy,2022.2.4,Win32,165.0165017,Firefox,1920,1080,,,,,0,576,,,,,,,,,,,,,,,,,181,U,triangle,1,0,,2,,,,,,,,,,,,,,repeat,letter,lettRpt,k,0.702,vtsPrac,3,0,3,0,1,,,,,,,,,,,,,,,,,,,,,,,
292726,2022-09-30_12h03.29.035,vts_reward_expectancy,2022.2.4,Win32,165.0165017,Firefox,1920,1080,,,,,0,576,,,,,,,,,,,,,,,,,146,S,hexagon,1,0,,2,,,,,,,,,,,,,,repeat,letter,lettRpt,k,1.245,vtsPrac,4,0,4,0,1,,,,,,,,,,,,,,,,,,,,,,,
292726,2022-09-30_12h03.29.035,vts_reward_expectancy,2022.2.4,Win32,165.0165017,Firefox,1920,1080,,,,,0,576,,,,,,,,,,,,,,,,,139,D,triangle,1,0,,2,,,,,,,,,,,,,,switch,number,numSwt,d,0.629,vtsPrac,5,0,5,0,1,,,,,,,,,,,,,,,,,,,,,,,
292726,2022-09-30_12h03.29.035,vts_reward_expectancy,2022.2.4,Win32,165.0165017,Firefox,1920,1080,,,,,0,576,,,,,,,,,,,,,,,,,132,W,circle,1,0,,2,,,,,,,,,,,,,,repeat,number,numRpt,d,0.934,vtsPrac,6,0,6,0,1,,,,,,,,,,,,,,,,,,,,,,,
292726,2022-09-30_12h03.29.035,vts_reward_expectancy,2022.2.4,Win32,165.0165017,Firefox,1920,1080,,,,,0,576,,,,,,,,,,,,,,,,,181,U,star,1,0,,2,,,,,,,,,,,,,,repeat,number,numRpt,f,0.728,vtsPrac,7,0,7,0,1,,,,,,,,,,,,,,,,,,,,,,,
292726,2022-09-30_12h03.29.035,vts_reward_expectancy,2022.2.4,Win32,165.0165017,Firefox,1920,1080,,,,,0,576,,,,,,,,,,,,,,,,,167,S,hexagon,1,0,,2,,,,,,,,,,,,,,repeat,number,numRpt,f,0.81,vtsPrac,8,0,8,0,1,,,,,,,,,,,,,,,,,,,,,,,
292726,2022-09-30_12h03.29.035,vts_reward_expectancy,2022.2.4,Win32,165.0165017,Firefox,1920,1080,,,,,0,576,,,,,,,,,,,,,,,,,132,H,circle,1,0,,2,,,,,,,,,,,,,,repeat,number,numRpt,d,0.709,vtsPrac,9,0,9,0,1,,,,,,,,,,,,,,,,,,,,,,,
292726,2022-09-30_12h03.29.035,vts_reward_expectancy,2022.2.4,Win32,165.0165017,Firefox,1920,1080,,,,,0,576,,,,,,,,,,,,,,,,,139,W,hexagon,1,0,,2,,,,,,,,,,,,,,repeat,number,numRpt,d,0.788,vtsPrac,10,0,10,0,1,,,,,,,,,,,,,,,,,,,,,,,
292726,2022-09-30_12h03.29.035,vts_reward_expectancy,2022.2.4,Win32,165.0165017,Firefox,1920,1080,,,,,0,576,,,,,,,,,,,,,,,,,146,F,circle,0,0,,2,,,,,,,,,,,,,,repeat,number,NA,f,1.194,vtsPrac,11,0,11,0,1,,,,,,,,,,,,,,,,,,,,,,,
292726,2022-09-30_12h03.29.035,vts_reward_expectancy,2022.2.4,Win32,165.0165017,Firefox,1920,1080,,,,,0,576,,,,,,,,,,,,,,,,,174,W,hexagon,1,1,,2,,,,,,,,,,,,,,repeat,number,numRpt,f,0.837,vtsPrac,12,0,12,0,1,,,,,,,,,,,,,,,,,,,,,,,
292726,2022-09-30_12h03.29.035,vts_reward_expectancy,2022.2.4,Win32,165.0165017,Firefox,1920,1080,,,,,0,576,,,,,,,,,,,,,,,,,146,S,star,1,0,,2,,,,,,,,,,,,,,repeat,number,numRpt,d,0.645,vtsPrac,13,0,13,0,1,,,,,,,,,,,,,,,,,,,,,,,
292726,2022-09-30_12h03.29.035,vts_reward_expectancy,2022.2.4,Win32,165.0165017,Firefox,1920,1080,,,,,0,576,,,,,,,,,,,,,,,,,167,H,circle,1,0,,2,,,,,,,,,,,,,,repeat,number,numRpt,f,1.543,vtsPrac,14,0,14,0,1,,,,,,,,,,,,,,,,,,,,,,,
292726,2022-09-30_12h03.29.035,vts_reward_expectancy,2022.2.4,Win32,165.0165017,Firefox,1920,1080,,,,,0,576,,,,,,,,,,,,,,,,,181,B,hexagon,1,0,,2,,,,,,,,,,,,,,repeat,number,numRpt,f,1.11,vtsPrac,15,0,15,0,1,,,,,,,,,,,,,,,,,,,,,,,
292726,2022-09-30_12h03.29.035,vts_reward_expectancy,2022.2.4,Win32,165.0165017,Firefox,1920,1080,,,,,0,576,,,,,,,,,,,,,,,,,132,F,star,1,0,,3,,,,,,,,,,,,,,repeat,number,numRpt,d,0.629,vtsPrac,0,0,0,0,1,,,,,,,,,,,,,,,,,,,,,,,
292726,2022-09-30_12h03.29.035,vts_reward_expectancy,2022.2.4,Win32,165.0165017,Firefox,1920,1080,,,,,0,576,,,,,,,,,,,,,,,,,125,S,circle,1,0,,3,,,,,,,,,,,,,,repeat,number,numRpt,d,1.376,vtsPrac,1,0,1,0,1,,,,,,,,,,,,,,,,,,,,,,,
292726,2022-09-30_12h03.29.035,vts_reward_expectancy,2022.2.4,Win32,165.0165017,Firefox,1920,1080,,,,,0,576,,,,,,,,,,,,,,,,,160,W,star,1,0,,3,,,,,,,,,,,,,,switch,letter,lettSwt,k,0.849,vtsPrac,2,0,2,0,1,,,,,,,,,,,,,,,,,,,,,,,
292726,2022-09-30_12h03.29.035,vts_reward_expectancy,2022.2.4,Win32,165.0165017,Firefox,1920,1080,,,,,0,576,,,,,,,,,,,,,,,,,139,H,circle,0,0,,3,,,,,,,,,,,,,,repeat,letter,NA,k,0.649,vtsPrac,3,0,3,0,1,,,,,,,,,,,,,,,,,,,,,,,
292726,2022-09-30_12h03.29.035,vts_reward_expectancy,2022.2.4,Win32,165.0165017,Firefox,1920,1080,,,,,0,576,,,,,,,,,,,,,,,,,132,F,triangle,1,1,,3,,,,,,,,,,,,,,repeat,letter,lettRpt,j,0.885,vtsPrac,4,0,4,0,1,,,,,,,,,,,,,,,,,,,,,,,
292726,2022-09-30_12h03.29.035,vts_reward_expectancy,2022.2.4,Win32,165.0165017,Firefox,1920,1080,,,,,0,576,,,,,,,,,,,,,,,,,125,S,star,1,0,,3,,,,,,,,,,,,,,repeat,letter,lettRpt,k,1.359,vtsPrac,5,0,5,0,1,,,,,,,,,,,,,,,,,,,,,,,
292726,2022-09-30_12h03.29.035,vts_reward_expectancy,2022.2.4,Win32,165.0165017,Firefox,1920,1080,,,,,0,576,,,,,,,,,,,,,,,,,160,W,triangle,1,0,,3,,,,,,,,,,,,,,switch,number,numSwt,f,0.501,vtsPrac,6,0,6,0,1,,,,,,,,,,,,,,,,,,,,,,,
292726,2022-09-30_12h03.29.035,vts_reward_expectancy,2022.2.4,Win32,165.0165017,Firefox,1920,1080,,,,,0,576,,,,,,,,,,,,,,,,,139,H,circle,1,0,,3,,,,,,,,,,,,,,repeat,number,numRpt,d,0.681,vtsPrac,7,0,7,0,1,,,,,,,,,,,,,,,,,,,,,,,
292726,2022-09-30_12h03.29.035,vts_reward_expectancy,2022.2.4,Win32,165.0165017,Firefox,1920,1080,,,,,0,576,,,,,,,,,,,,,,,,,139,Y,circle,1,0,,3,,,,,,,,,,,,,,repeat,number,numRpt,d,1.292,vtsPrac,8,0,8,0,1,,,,,,,,,,,,,,,,,,,,,,,
292726,2022-09-30_12h03.29.035,vts_reward_expectancy,2022.2.4,Win32,165.0165017,Firefox,1920,1080,,,,,0,576,,,,,,,,,,,,,,,,,125,D,triangle,1,0,,3,,,,,,,,,,,,,,switch,letter,lettSwt,j,1.091,vtsPrac,9,0,9,0,1,,,,,,,,,,,,,,,,,,,,,,,
292726,2022-09-30_12h03.29.035,vts_reward_expectancy,2022.2.4,Win32,165.0165017,Firefox,1920,1080,,,,,0,576,,,,,,,,,,,,,,,,,132,U,hexagon,1,0,,3,,,,,,,,,,,,,,switch,number,numSwt,d,0.485,vtsPrac,10,0,10,0,1,,,,,,,,,,,,,,,,,,,,,,,
292726,2022-09-30_12h03.29.035,vts_reward_expectancy,2022.2.4,Win32,165.0165017,Firefox,1920,1080,,,,,0,576,,,,,,,,,,,,,,,,,167,S,star,1,0,,3,,,,,,,,,,,,,,switch,letter,lettSwt,k,0.744,vtsPrac,11,0,11,0,1,,,,,,,,,,,,,,,,,,,,,,,
292726,2022-09-30_12h03.29.035,vts_reward_expectancy,2022.2.4,Win32,165.0165017,Firefox,1920,1080,,,,,0,576,,,,,,,,,,,,,,,,,167,B,circle,1,0,,3,,,,,,,,,,,,,,repeat,letter,lettRpt,j,0.487,vtsPrac,12,0,12,0,1,,,,,,,,,,,,,,,,,,,,,,,
292726,2022-09-30_12h03.29.035,vts_reward_expectancy,2022.2.4,Win32,165.0165017,Firefox,1920,1080,,,,,0,576,,,,,,,,,,,,,,,,,132,Y,hexagon,1,0,,3,,,,,,,,,,,,,,repeat,letter,lettRpt,k,0.629,vtsPrac,13,0,13,0,1,,,,,,,,,,,,,,,,,,,,,,,
292726,2022-09-30_12h03.29.035,vts_reward_expectancy,2022.2.4,Win32,165.0165017,Firefox,1920,1080,,,,,0,576,,,,,,,,,,,,,,,,,139,S,circle,1,0,,3,,,,,,,,,,,,,,switch,number,numSwt,d,0.801,vtsPrac,14,0,14,0,1,,,,,,,,,,,,,,,,,,,,,,,
292726,2022-09-30_12h03.29.035,vts_reward_expectancy,2022.2.4,Win32,165.0165017,Firefox,1920,1080,,,,,0,576,,,,,,,,,,,,,,,,,181,F,star,1,0,,3,,,,,,,,,,,,,,switch,letter,lettSwt,j,0.571,vtsPrac,15,0,15,0,1,,,,,,,,,,,,,,,,,,,,,,,
292726,2022-09-30_12h03.29.035,vts_reward_expectancy,2022.2.4,Win32,165.0165017,Firefox,1920,1080,,,,,,,,,,,,,,,,,,,,,,,,,,,,,,,,,,,,,,,,,,,,,,,,,,,,,,,,,,,,,,,,,,,,,,,,,,,,
292726,2022-09-30_12h03.29.035,vts_reward_expectancy,2022.2.4,Win32,165.0165017,Firefox,1920,1080,,,,,,,,,,,,,,,,,,,,,,,,,,,,,,,,,,,,,,,,,,,,,,,,,,,,,,,,,,,,,,,,,,,,,,,,,,,,
292726,2022-09-30_12h03.29.035,vts_reward_expectancy,2022.2.4,Win32,165.0165017,Firefox,1920,1080,,,,,0,576,,,,,,,,,,,,,,,,,167,S,star,1,0,,,,,,,,,,,,,,,,repeat,letter,lettRpt,k,1.115,noRew,,,,,,0,0,0,0,0,1,,,,,,,,,,,,,,,,,
292726,2022-09-30_12h03.29.035,vts_reward_expectancy,2022.2.4,Win32,165.0165017,Firefox,1920,1080,,,,,0,576,,,,,,,,,,,,,,,,,132,W,hexagon,1,0,,,,,,,,,,,,,,,,repeat,letter,lettRpt,k,0.699,noRew,,,,,,0,1,0,1,0,1,,,,,,,,,,,,,,,,,
292726,2022-09-30_12h03.29.035,vts_reward_expectancy,2022.2.4,Win32,165.0165017,Firefox,1920,1080,,,,,0,576,,,,,,,,,,,,,,,,,139,D,star,1,0,,,,,,,,,,,,,,,,switch,number,numSwt,d,0.582,noRew,,,,,,0,2,0,2,0,1,,,,,,,,,,,,,,,,,
292726,2022-09-30_12h03.29.035,vts_reward_expectancy,2022.2.4,Win32,165.0165017,Firefox,1920,1080,,,,,0,576,,,,,,,,,,,,,,,,,125,H,hexagon,1,0,,,,,,,,,,,,,,,,repeat,number,numRpt,d,0.861,noRew,,,,,,0,3,0,3,0,1,,,,,,,,,,,,,,,,,
292726,2022-09-30_12h03.29.035,vts_reward_expectancy,2022.2.4,Win32,165.0165017,Firefox,1920,1080,,,,,0,576,,,,,,,,,,,,,,,,,167,S,circle,1,0,,,,,,,,,,,,,,,,switch,letter,lettSwt,k,0.745,noRew,,,,,,0,4,0,4,0,1,,,,,,,,,,,,,,,,,
292726,2022-09-30_12h03.29.035,vts_reward_expectancy,2022.2.4,Win32,165.0165017,Firefox,1920,1080,,,,,0,576,,,,,,,,,,,,,,,,,132,W,star,1,0,,,,,,,,,,,,,,,,switch,number,numSwt,d,0.558,noRew,,,,,,0,5,0,5,0,1,,,,,,,,,,,,,,,,,
292726,2022-09-30_12h03.29.035,vts_reward_expectancy,2022.2.4,Win32,165.0165017,Firefox,1920,1080,,,,,0,576,,,,,,,,,,,,,,,,,139,D,star,1,0,,,,,,,,,,,,,,,,repeat,number,numRpt,d,0.573,noRew,,,,,,0,6,0,6,0,1,,,,,,,,,,,,,,,,,
292726,2022-09-30_12h03.29.035,vts_reward_expectancy,2022.2.4,Win32,165.0165017,Firefox,1920,1080,,,,,0,576,,,,,,,,,,,,,,,,,125,H,triangle,1,0,,,,,,,,,,,,,,,,repeat,number,numRpt,d,0.456,noRew,,,,,,0,7,0,7,0,1,,,,,,,,,,,,,,,,,
292726,2022-09-30_12h03.29.035,vts_reward_expectancy,2022.2.4,Win32,165.0165017,Firefox,1920,1080,,,,,0,576,,,,,,,,,,,,,,,,,181,S,star,1,0,,,,,,,,,,,,,,,,switch,letter,lettSwt,k,0.8,noRew,,,,,,0,8,0,8,0,1,,,,,,,,,,,,,,,,,
292726,2022-09-30_12h03.29.035,vts_reward_expectancy,2022.2.4,Win32,165.0165017,Firefox,1920,1080,,,,,0,576,,,,,,,,,,,,,,,,,139,D,triangle,1,0,,,,,,,,,,,,,,,,switch,number,numSwt,d,0.49,noRew,,,,,,0,9,0,9,0,1,,,,,,,,,,,,,,,,,
292726,2022-09-30_12h03.29.035,vts_reward_expectancy,2022.2.4,Win32,165.0165017,Firefox,1920,1080,,,,,0,576,,,,,,,,,,,,,,,,,125,F,hexagon,1,0,,,,,,,,,,,,,,,,repeat,number,numRpt,d,0.636,noRew,,,,,,0,10,0,10,0,1,,,,,,,,,,,,,,,,,
292726,2022-09-30_12h03.29.035,vts_reward_expectancy,2022.2.4,Win32,165.0165017,Firefox,1920,1080,,,,,0,576,,,,,,,,,,,,,,,,,167,W,star,1,0,,,,,,,,,,,,,,,,switch,letter,lettSwt,k,0.666,noRew,,,,,,0,11,0,11,0,1,,,,,,,,,,,,,,,,,
292726,2022-09-30_12h03.29.035,vts_reward_expectancy,2022.2.4,Win32,165.0165017,Firefox,1920,1080,,,,,0,576,,,,,,,,,,,,,,,,,146,F,circle,1,0,,,,,,,,,,,,,,,,repeat,letter,lettRpt,j,0.674,noRew,,,,,,0,12,0,12,0,1,,,,,,,,,,,,,,,,,
292726,2022-09-30_12h03.29.035,vts_reward_expectancy,2022.2.4,Win32,165.0165017,Firefox,1920,1080,,,,,0,576,,,,,,,,,,,,,,,,,181,D,hexagon,0,0,,,,,,,,,,,,,,,,repeat,letter,NA,k,1.227,noRew,,,,,,0,13,0,13,0,1,,,,,,,,,,,,,,,,,
292726,2022-09-30_12h03.29.035,vts_reward_expectancy,2022.2.4,Win32,165.0165017,Firefox,1920,1080,,,,,0,576,,,,,,,,,,,,,,,,,174,S,triangle,1,1,,,,,,,,,,,,,,,,switch,number,numSwt,f,0.855,noRew,,,,,,0,14,0,14,0,1,,,,,,,,,,,,,,,,,
292726,2022-09-30_12h03.29.035,vts_reward_expectancy,2022.2.4,Win32,165.0165017,Firefox,1920,1080,,,,,0,576,,,,,,,,,,,,,,,,,132,H,circle,1,0,,,,,,,,,,,,,,,,switch,letter,lettSwt,j,0.757,noRew,,,,,,0,15,0,15,0,1,,,,,,,,,,,,,,,,,
292726,2022-09-30_12h03.29.035,vts_reward_expectancy,2022.2.4,Win32,165.0165017,Firefox,1920,1080,,,,,0,576,,,,,,,,,,,,,,,,,174,Y,triangle,1,0,,,,,,,,,,,,,,,,repeat,letter,lettRpt,k,0.589,noRew,,,,,,0,16,0,16,0,1,,,,,,,,,,,,,,,,,
292726,2022-09-30_12h03.29.035,vts_reward_expectancy,2022.2.4,Win32,165.0165017,Firefox,1920,1080,,,,,0,576,,,,,,,,,,,,,,,,,146,D,star,1,0,,,,,,,,,,,,,,,,switch,number,numSwt,d,0.66,noRew,,,,,,0,17,0,17,0,1,,,,,,,,,,,,,,,,,
292726,2022-09-30_12h03.29.035,vts_reward_expectancy,2022.2.4,Win32,165.0165017,Firefox,1920,1080,,,,,0,576,,,,,,,,,,,,,,,,,132,F,star,1,0,,,,,,,,,,,,,,,,repeat,number,numRpt,d,0.671,noRew,,,,,,0,18,0,18,0,1,,,,,,,,,,,,,,,,,
292726,2022-09-30_12h03.29.035,vts_reward_expectancy,2022.2.4,Win32,165.0165017,Firefox,1920,1080,,,,,0,576,,,,,,,,,,,,,,,,,181,H,triangle,1,0,,,,,,,,,,,,,,,,switch,letter,lettSwt,j,0.709,noRew,,,,,,0,19,0,19,0,1,,,,,,,,,,,,,,,,,
292726,2022-09-30_12h03.29.035,vts_reward_expectancy,2022.2.4,Win32,165.0165017,Firefox,1920,1080,,,,,0,576,,,,,,,,,,,,,,,,,146,U,triangle,1,0,,,,,,,,,,,,,,,,repeat,letter,lettRpt,k,0.654,noRew,,,,,,0,20,0,20,0,1,,,,,,,,,,,,,,,,,
292726,2022-09-30_12h03.29.035,vts_reward_expectancy,2022.2.4,Win32,165.0165017,Firefox,1920,1080,,,,,0,576,,,,,,,,,,,,,,,,,174,W,hexagon,1,0,,,,,,,,,,,,,,,,repeat,letter,lettRpt,k,0.978,noRew,,,,,,0,21,0,21,0,1,,,,,,,,,,,,,,,,,
292726,2022-09-30_12h03.29.035,vts_reward_expectancy,2022.2.4,Win32,165.0165017,Firefox,1920,1080,,,,,0,576,,,,,,,,,,,,,,,,,125,B,circle,1,0,,,,,,,,,,,,,,,,switch,number,numSwt,d,0.533,noRew,,,,,,0,22,0,22,0,1,,,,,,,,,,,,,,,,,
292726,2022-09-30_12h03.29.035,vts_reward_expectancy,2022.2.4,Win32,165.0165017,Firefox,1920,1080,,,,,0,576,,,,,,,,,,,,,,,,,160,F,hexagon,1,0,,,,,,,,,,,,,,,,repeat,number,numRpt,f,0.633,noRew,,,,,,0,23,0,23,0,1,,,,,,,,,,,,,,,,,
292726,2022-09-30_12h03.29.035,vts_reward_expectancy,2022.2.4,Win32,165.0165017,Firefox,1920,1080,,,,,0,576,,,,,,,,,,,,,,,,,139,H,triangle,1,0,,,,,,,,,,,,,,,,repeat,number,numRpt,d,0.841,noRew,,,,,,0,24,0,24,0,1,,,,,,,,,,,,,,,,,
292726,2022-09-30_12h03.29.035,vts_reward_expectancy,2022.2.4,Win32,165.0165017,Firefox,1920,1080,,,,,0,576,,,,,,,,,,,,,,,,,174,D,hexagon,0,0,,,,,,,,,,,,,,,,switch,letter,NA,k,0.873,noRew,,,,,,0,25,0,25,0,1,,,,,,,,,,,,,,,,,
292726,2022-09-30_12h03.29.035,vts_reward_expectancy,2022.2.4,Win32,165.0165017,Firefox,1920,1080,,,,,0,576,,,,,,,,,,,,,,,,,167,U,triangle,1,1,,,,,,,,,,,,,,,,repeat,letter,lettRpt,k,0.626,noRew,,,,,,0,26,0,26,0,1,,,,,,,,,,,,,,,,,
292726,2022-09-30_12h03.29.035,vts_reward_expectancy,2022.2.4,Win32,165.0165017,Firefox,1920,1080,,,,,0,576,,,,,,,,,,,,,,,,,125,Y,star,1,0,,,,,,,,,,,,,,,,repeat,letter,lettRpt,k,0.637,noRew,,,,,,0,27,0,27,0,1,,,,,,,,,,,,,,,,,
292726,2022-09-30_12h03.29.035,vts_reward_expectancy,2022.2.4,Win32,165.0165017,Firefox,1920,1080,,,,,0,576,,,,,,,,,,,,,,,,,174,D,star,1,0,,,,,,,,,,,,,,,,switch,number,numSwt,f,0.756,noRew,,,,,,0,28,0,28,0,1,,,,,,,,,,,,,,,,,
292726,2022-09-30_12h03.29.035,vts_reward_expectancy,2022.2.4,Win32,165.0165017,Firefox,1920,1080,,,,,0,576,,,,,,,,,,,,,,,,,167,B,triangle,1,0,,,,,,,,,,,,,,,,switch,letter,lettSwt,j,1.352,noRew,,,,,,0,29,0,29,0,1,,,,,,,,,,,,,,,,,
292726,2022-09-30_12h03.29.035,vts_reward_expectancy,2022.2.4,Win32,165.0165017,Firefox,1920,1080,,,,,0,576,,,,,,,,,,,,,,,,,160,F,hexagon,1,0,,,,,,,,,,,,,,,,repeat,letter,lettRpt,j,1.2,noRew,,,,,,0,30,0,30,0,1,,,,,,,,,,,,,,,,,
292726,2022-09-30_12h03.29.035,vts_reward_expectancy,2022.2.4,Win32,165.0165017,Firefox,1920,1080,,,,,0,576,,,,,,,,,,,,,,,,,132,U,triangle,1,0,,,,,,,,,,,,,,,,repeat,letter,lettRpt,k,0.836,noRew,,,,,,0,31,0,31,0,1,,,,,,,,,,,,,,,,,
292726,2022-09-30_12h03.29.035,vts_reward_expectancy,2022.2.4,Win32,165.0165017,Firefox,1920,1080,,,,,0,576,,,,,,,,,,,,,,,,,132,D,star,1,0,,,,,,,,,,,,,,,,switch,number,numSwt,d,0.834,noRew,,,,,,0,32,0,32,0,1,,,,,,,,,,,,,,,,,
292726,2022-09-30_12h03.29.035,vts_reward_expectancy,2022.2.4,Win32,165.0165017,Firefox,1920,1080,,,,,0,576,,,,,,,,,,,,,,,,,181,F,triangle,1,0,,,,,,,,,,,,,,,,repeat,number,numRpt,f,0.731,noRew,,,,,,0,33,0,33,0,1,,,,,,,,,,,,,,,,,
292726,2022-09-30_12h03.29.035,vts_reward_expectancy,2022.2.4,Win32,165.0165017,Firefox,1920,1080,,,,,0,576,,,,,,,,,,,,,,,,,139,Y,triangle,1,0,,,,,,,,,,,,,,,,repeat,number,numRpt,d,0.852,noRew,,,,,,0,34,0,34,0,1,,,,,,,,,,,,,,,,,
292726,2022-09-30_12h03.29.035,vts_reward_expectancy,2022.2.4,Win32,165.0165017,Firefox,1920,1080,,,,,0,576,,,,,,,,,,,,,,,,,160,U,hexagon,1,0,,,,,,,,,,,,,,,,repeat,number,numRpt,f,0.721,noRew,,,,,,0,35,0,35,0,1,,,,,,,,,,,,,,,,,
292726,2022-09-30_12h03.29.035,vts_reward_expectancy,2022.2.4,Win32,165.0165017,Firefox,1920,1080,,,,,0,576,,,,,,,,,,,,,,,,,125,H,circle,1,0,,,,,,,,,,,,,,,,repeat,number,numRpt,d,0.622,noRew,,,,,,0,36,0,36,0,1,,,,,,,,,,,,,,,,,
292726,2022-09-30_12h03.29.035,vts_reward_expectancy,2022.2.4,Win32,165.0165017,Firefox,1920,1080,,,,,0,576,,,,,,,,,,,,,,,,,181,S,hexagon,1,0,,,,,,,,,,,,,,,,repeat,number,numRpt,f,0.832,noRew,,,,,,0,37,0,37,0,1,,,,,,,,,,,,,,,,,
292726,2022-09-30_12h03.29.035,vts_reward_expectancy,2022.2.4,Win32,165.0165017,Firefox,1920,1080,,,,,0,576,,,,,,,,,,,,,,,,,167,W,circle,1,0,,,,,,,,,,,,,,,,switch,letter,lettSwt,k,0.976,noRew,,,,,,0,38,0,38,0,1,,,,,,,,,,,,,,,,,
292726,2022-09-30_12h03.29.035,vts_reward_expectancy,2022.2.4,Win32,165.0165017,Firefox,1920,1080,,,,,0,576,,,,,,,,,,,,,,,,,132,B,triangle,1,0,,,,,,,,,,,,,,,,repeat,letter,lettRpt,j,0.879,noRew,,,,,,0,39,0,39,0,1,,,,,,,,,,,,,,,,,
292726,2022-09-30_12h03.29.035,vts_reward_expectancy,2022.2.4,Win32,165.0165017,Firefox,1920,1080,,,,,0,576,,,,,,,,,,,,,,,,,181,Y,star,1,0,,,,,,,,,,,,,,,,switch,number,numSwt,f,0.661,noRew,,,,,,0,40,0,40,0,1,,,,,,,,,,,,,,,,,
292726,2022-09-30_12h03.29.035,vts_reward_expectancy,2022.2.4,Win32,165.0165017,Firefox,1920,1080,,,,,0,576,,,,,,,,,,,,,,,,,139,S,triangle,1,0,,,,,,,,,,,,,,,,switch,letter,lettSwt,k,0.569,noRew,,,,,,0,41,0,41,0,1,,,,,,,,,,,,,,,,,
292726,2022-09-30_12h03.29.035,vts_reward_expectancy,2022.2.4,Win32,165.0165017,Firefox,1920,1080,,,,,0,576,,,,,,,,,,,,,,,,,160,D,circle,1,0,,,,,,,,,,,,,,,,repeat,letter,lettRpt,j,0.757,noRew,,,,,,0,42,0,42,0,1,,,,,,,,,,,,,,,,,
292726,2022-09-30_12h03.29.035,vts_reward_expectancy,2022.2.4,Win32,165.0165017,Firefox,1920,1080,,,,,0,576,,,,,,,,,,,,,,,,,174,U,triangle,1,0,,,,,,,,,,,,,,,,repeat,letter,lettRpt,k,0.571,noRew,,,,,,0,43,0,43,0,1,,,,,,,,,,,,,,,,,
292726,2022-09-30_12h03.29.035,vts_reward_expectancy,2022.2.4,Win32,165.0165017,Firefox,1920,1080,,,,,0,576,,,,,,,,,,,,,,,,,146,F,hexagon,1,0,,,,,,,,,,,,,,,,switch,number,numSwt,d,0.826,noRew,,,,,,0,44,0,44,0,1,,,,,,,,,,,,,,,,,
292726,2022-09-30_12h03.29.035,vts_reward_expectancy,2022.2.4,Win32,165.0165017,Firefox,1920,1080,,,,,0,576,,,,,,,,,,,,,,,,,132,D,triangle,1,0,,,,,,,,,,,,,,,,repeat,number,numRpt,d,0.557,noRew,,,,,,0,45,0,45,0,1,,,,,,,,,,,,,,,,,
292726,2022-09-30_12h03.29.035,vts_reward_expectancy,2022.2.4,Win32,165.0165017,Firefox,1920,1080,,,,,0,576,,,,,,,,,,,,,,,,,167,S,triangle,1,0,,,,,,,,,,,,,,,,repeat,number,numRpt,f,0.666,noRew,,,,,,0,46,0,46,0,1,,,,,,,,,,,,,,,,,
292726,2022-09-30_12h03.29.035,vts_reward_expectancy,2022.2.4,Win32,165.0165017,Firefox,1920,1080,,,,,0,576,,,,,,,,,,,,,,,,,174,W,circle,1,0,,,,,,,,,,,,,,,,switch,letter,lettSwt,k,0.551,noRew,,,,,,0,47,0,47,0,1,,,,,,,,,,,,,,,,,
292726,2022-09-30_12h03.29.035,vts_reward_expectancy,2022.2.4,Win32,165.0165017,Firefox,1920,1080,,,,,0,576,,,,,,,,,,,,,,,,,125,W,hexagon,1,0,,,,,,,,,,,,,,,,repeat,letter,lettRpt,k,0.667,noRew,,,,,,0,48,0,48,0,1,,,,,,,,,,,,,,,,,
292726,2022-09-30_12h03.29.035,vts_reward_expectancy,2022.2.4,Win32,165.0165017,Firefox,1920,1080,,,,,0,576,,,,,,,,,,,,,,,,,167,D,star,1,0,,,,,,,,,,,,,,,,repeat,letter,lettRpt,j,1.023,noRew,,,,,,0,49,0,49,0,1,,,,,,,,,,,,,,,,,
292726,2022-09-30_12h03.29.035,vts_reward_expectancy,2022.2.4,Win32,165.0165017,Firefox,1920,1080,,,,,0,576,,,,,,,,,,,,,,,,,146,U,triangle,1,0,,,,,,,,,,,,,,,,switch,number,numSwt,d,0.636,noRew,,,,,,0,50,0,50,0,1,,,,,,,,,,,,,,,,,
292726,2022-09-30_12h03.29.035,vts_reward_expectancy,2022.2.4,Win32,165.0165017,Firefox,1920,1080,,,,,0,576,,,,,,,,,,,,,,,,,160,S,star,1,0,,,,,,,,,,,,,,,,repeat,number,numRpt,f,0.57,noRew,,,,,,0,51,0,51,0,1,,,,,,,,,,,,,,,,,
292726,2022-09-30_12h03.29.035,vts_reward_expectancy,2022.2.4,Win32,165.0165017,Firefox,1920,1080,,,,,0,576,,,,,,,,,,,,,,,,,174,B,star,1,0,,,,,,,,,,,,,,,,switch,letter,lettSwt,j,0.595,noRew,,,,,,0,52,0,52,0,1,,,,,,,,,,,,,,,,,
292726,2022-09-30_12h03.29.035,vts_reward_expectancy,2022.2.4,Win32,165.0165017,Firefox,1920,1080,,,,,0,576,,,,,,,,,,,,,,,,,160,W,triangle,1,0,,,,,,,,,,,,,,,,switch,number,numSwt,f,0.72,noRew,,,,,,0,53,0,53,0,1,,,,,,,,,,,,,,,,,
292726,2022-09-30_12h03.29.035,vts_reward_expectancy,2022.2.4,Win32,165.0165017,Firefox,1920,1080,,,,,0,576,,,,,,,,,,,,,,,,,125,U,triangle,1,0,,,,,,,,,,,,,,,,repeat,number,numRpt,d,0.602,noRew,,,,,,0,54,0,54,0,1,,,,,,,,,,,,,,,,,
292726,2022-09-30_12h03.29.035,vts_reward_expectancy,2022.2.4,Win32,165.0165017,Firefox,1920,1080,,,,,0,576,,,,,,,,,,,,,,,,,181,Y,circle,1,0,,,,,,,,,,,,,,,,repeat,number,numRpt,f,0.734,noRew,,,,,,0,55,0,55,0,1,,,,,,,,,,,,,,,,,
292726,2022-09-30_12h03.29.035,vts_reward_expectancy,2022.2.4,Win32,165.0165017,Firefox,1920,1080,,,,,0,576,,,,,,,,,,,,,,,,,146,W,hexagon,1,0,,,,,,,,,,,,,,,,repeat,number,numRpt,d,0.747,noRew,,,,,,0,56,0,56,0,1,,,,,,,,,,,,,,,,,
292726,2022-09-30_12h03.29.035,vts_reward_expectancy,2022.2.4,Win32,165.0165017,Firefox,1920,1080,,,,,0,576,,,,,,,,,,,,,,,,,181,D,triangle,1,0,,,,,,,,,,,,,,,,repeat,number,numRpt,f,0.562,noRew,,,,,,0,57,0,57,0,1,,,,,,,,,,,,,,,,,
292726,2022-09-30_12h03.29.035,vts_reward_expectancy,2022.2.4,Win32,165.0165017,Firefox,1920,1080,,,,,0,576,,,,,,,,,,,,,,,,,125,B,hexagon,1,0,,,,,,,,,,,,,,,,switch,letter,lettSwt,j,1.801,noRew,,,,,,0,58,0,58,0,1,,,,,,,,,,,,,,,,,
292726,2022-09-30_12h03.29.035,vts_reward_expectancy,2022.2.4,Win32,165.0165017,Firefox,1920,1080,,,,,0,576,,,,,,,,,,,,,,,,,167,U,circle,1,0,,,,,,,,,,,,,,,,repeat,letter,lettRpt,k,1.346,noRew,,,,,,0,59,0,59,0,1,,,,,,,,,,,,,,,,,
292726,2022-09-30_12h03.29.035,vts_reward_expectancy,2022.2.4,Win32,165.0165017,Firefox,1920,1080,,,,,0,576,,,,,,,,,,,,,,,,,174,H,circle,1,0,,,,,,,,,,,,,,,,repeat,letter,lettRpt,j,0.769,noRew,,,,,,0,60,0,60,0,1,,,,,,,,,,,,,,,,,
292726,2022-09-30_12h03.29.035,vts_reward_expectancy,2022.2.4,Win32,165.0165017,Firefox,1920,1080,,,,,0,576,,,,,,,,,,,,,,,,,125,W,star,1,0,,,,,,,,,,,,,,,,switch,number,numSwt,d,0.656,noRew,,,,,,0,61,0,61,0,1,,,,,,,,,,,,,,,,,
292726,2022-09-30_12h03.29.035,vts_reward_expectancy,2022.2.4,Win32,165.0165017,Firefox,1920,1080,,,,,0,576,,,,,,,,,,,,,,,,,132,S,star,1,0,,,,,,,,,,,,,,,,repeat,number,numRpt,d,0.642,noRew,,,,,,0,62,0,62,0,1,,,,,,,,,,,,,,,,,
292726,2022-09-30_12h03.29.035,vts_reward_expectancy,2022.2.4,Win32,165.0165017,Firefox,1920,1080,,,,,0,576,,,,,,,,,,,,,,,,,146,F,circle,1,0,,,,,,,,,,,,,,,,repeat,number,numRpt,d,0.908,noRew,,,,,,0,63,0,63,0,1,,,,,,,,,,,,,,,,,
292726,2022-09-30_12h03.29.035,vts_reward_expectancy,2022.2.4,Win32,165.0165017,Firefox,1920,1080,,,,,,,,,,,,,,,,,,,,,,,,,,,,,,,,,,,,,,,,,,,,,,,,,,,,,,,,,,,,,,,,,,,,,,,,,,,,
292726,2022-09-30_12h03.29.035,vts_reward_expectancy,2022.2.4,Win32,165.0165017,Firefox,1920,1080,,,,,0,576,,,,,,,,,,,,,,,,,132,Y,star,0,0,,,,,,,,,,,,,,,,repeat,number,NA,f,0.429,noRew,,,,,,0,,,,,,space,2.796,low,0,0,0,0,1,,,,,,,,,
292726,2022-09-30_12h03.29.035,vts_reward_expectancy,2022.2.4,Win32,165.0165017,Firefox,1920,1080,,,,,1,577,,,,,,,,,,,,,,,,,174,F,hexagon,1,1,,,,,,,,,,,,,,,,repeat,number,numRpt,f,0.473,Lo,,,,,,0,,,,,,,,low,1,0,1,0,1,,,,,,,,,
292726,2022-09-30_12h03.29.035,vts_reward_expectancy,2022.2.4,Win32,165.0165017,Firefox,1920,1080,,,,,0,577,,,,,,,,,,,,,,,,,125,W,star,1,0,,,,,,,,,,,,,,,,repeat,number,numRpt,d,0.659,Hi,,,,,,0,,,,,,,,low,2,0,2,0,1,,,,,,,,,
292726,2022-09-30_12h03.29.035,vts_reward_expectancy,2022.2.4,Win32,165.0165017,Firefox,1920,1080,,,,,1,578,,,,,,,,,,,,,,,,,146,S,hexagon,1,0,,,,,,,,,,,,,,,,repeat,number,numRpt,d,0.678,Lo,,,,,,0,,,,,,,,low,3,0,3,0,1,,,,,,,,,
292726,2022-09-30_12h03.29.035,vts_reward_expectancy,2022.2.4,Win32,165.0165017,Firefox,1920,1080,,,,,0,578,,,,,,,,,,,,,,,,,139,H,hexagon,0,0,,,,,,,,,,,,,,,,switch,letter,NA,k,0.479,Lo,,,,,,0,,,,,,,,low,4,0,4,0,1,,,,,,,,,
292726,2022-09-30_12h03.29.035,vts_reward_expectancy,2022.2.4,Win32,165.0165017,Firefox,1920,1080,,,,,1,579,,,,,,,,,,,,,,,,,167,B,star,1,1,,,,,,,,,,,,,,,,repeat,letter,lettRpt,j,0.456,Hi,,,,,,0,,,,,,,,low,5,0,5,0,1,,,,,,,,,
292726,2022-09-30_12h03.29.035,vts_reward_expectancy,2022.2.4,Win32,165.0165017,Firefox,1920,1080,,,,,0,579,,,,,,,,,,,,,,,,,160,U,hexagon,0,0,,,,,,,,,,,,,,,,switch,number,NA,d,0.513,Hi,,,,,,0,,,,,,,,low,6,0,6,0,1,,,,,,,,,
292726,2022-09-30_12h03.29.035,vts_reward_expectancy,2022.2.4,Win32,165.0165017,Firefox,1920,1080,,,,,1,580,,,,,,,,,,,,,,,,,181,D,star,1,1,,,,,,,,,,,,,,,,repeat,number,numRpt,f,0.618,Hi,,,,,,0,,,,,,,,low,7,0,7,0,1,,,,,,,,,
292726,2022-09-30_12h03.29.035,vts_reward_expectancy,2022.2.4,Win32,165.0165017,Firefox,1920,1080,,,,,10,590,,,,,,,,,,,,,,,,,132,Y,star,1,0,,,,,,,,,,,,,,,,repeat,number,numRpt,d,0.401,Hi,,,,,,0,,,,,,,,low,8,0,8,0,1,,,,,,,,,
292726,2022-09-30_12h03.29.035,vts_reward_expectancy,2022.2.4,Win32,165.0165017,Firefox,1920,1080,,,,,1,591,,,,,,,,,,,,,,,,,174,F,hexagon,1,0,,,,,,,,,,,,,,,,switch,letter,lettSwt,j,0.624,Lo,,,,,,0,,,,,,,,low,9,0,9,0,1,,,,,,,,,
292726,2022-09-30_12h03.29.035,vts_reward_expectancy,2022.2.4,Win32,165.0165017,Firefox,1920,1080,,,,,10,601,,,,,,,,,,,,,,,,,125,W,hexagon,1,0,,,,,,,,,,,,,,,,repeat,letter,lettRpt,k,0.419,Lo,,,,,,0,,,,,,,,low,10,0,10,0,1,,,,,,,,,
292726,2022-09-30_12h03.29.035,vts_reward_expectancy,2022.2.4,Win32,165.0165017,Firefox,1920,1080,,,,,10,611,,,,,,,,,,,,,,,,,146,S,star,1,0,,,,,,,,,,,,,,,,switch,number,numSwt,d,0.612,Hi,,,,,,0,,,,,,,,low,11,0,11,0,1,,,,,,,,,
292726,2022-09-30_12h03.29.035,vts_reward_expectancy,2022.2.4,Win32,165.0165017,Firefox,1920,1080,,,,,10,621,,,,,,,,,,,,,,,,,139,H,hexagon,1,0,,,,,,,,,,,,,,,,repeat,number,numRpt,d,0.505,Lo,,,,,,0,,,,,,,,low,12,0,12,0,1,,,,,,,,,
292726,2022-09-30_12h03.29.035,vts_reward_expectancy,2022.2.4,Win32,165.0165017,Firefox,1920,1080,,,,,1,622,,,,,,,,,,,,,,,,,167,B,star,1,0,,,,,,,,,,,,,,,,switch,letter,lettSwt,j,0.411,Hi,,,,,,0,,,,,,,,low,13,0,13,0,1,,,,,,,,,
292726,2022-09-30_12h03.29.035,vts_reward_expectancy,2022.2.4,Win32,165.0165017,Firefox,1920,1080,,,,,10,632,,,,,,,,,,,,,,,,,160,U,star,1,0,,,,,,,,,,,,,,,,switch,number,numSwt,f,0.51,Hi,,,,,,0,,,,,,,,low,14,0,14,0,1,,,,,,,,,
292726,2022-09-30_12h03.29.035,vts_reward_expectancy,2022.2.4,Win32,165.0165017,Firefox,1920,1080,,,,,0,632,,,,,,,,,,,,,,,,,181,D,hexagon,0,0,,,,,,,,,,,,,,,,switch,letter,NA,k,0.384,Hi,,,,,,0,,,,,,,,low,15,0,15,0,1,,,,,,,,,
292726,2022-09-30_12h03.29.035,vts_reward_expectancy,2022.2.4,Win32,165.0165017,Firefox,1920,1080,,,,,0,632,,,,,,,,,,,,,,,,,146,W,hexagon,0,1,,,,,,,,,,,,,,,,repeat,letter,NA,j,0.539,Hi,,,,,,0,,,,,,,,low,16,0,16,0,1,,,,,,,,,
292726,2022-09-30_12h03.29.035,vts_reward_expectancy,2022.2.4,Win32,165.0165017,Firefox,1920,1080,,,,,0,632,,,,,,,,,,,,,,,,,167,D,star,0,1,,,,,,,,,,,,,,,,switch,number,NA,d,0.469,Hi,,,,,,0,,,,,,,,low,17,0,17,0,1,,,,,,,,,
292726,2022-09-30_12h03.29.035,vts_reward_expectancy,2022.2.4,Win32,165.0165017,Firefox,1920,1080,,,,,1,633,,,,,,,,,,,,,,,,,132,Y,star,1,1,,,,,,,,,,,,,,,,repeat,number,numRpt,d,0.424,Hi,,,,,,0,,,,,,,,low,18,0,18,0,1,,,,,,,,,
292726,2022-09-30_12h03.29.035,vts_reward_expectancy,2022.2.4,Win32,165.0165017,Firefox,1920,1080,,,,,10,643,,,,,,,,,,,,,,,,,174,B,hexagon,1,0,,,,,,,,,,,,,,,,switch,letter,lettSwt,j,0.375,Lo,,,,,,0,,,,,,,,low,19,0,19,0,1,,,,,,,,,
292726,2022-09-30_12h03.29.035,vts_reward_expectancy,2022.2.4,Win32,165.0165017,Firefox,1920,1080,,,,,10,653,,,,,,,,,,,,,,,,,139,U,star,1,0,,,,,,,,,,,,,,,,switch,number,numSwt,d,0.353,Hi,,,,,,0,,,,,,,,low,20,0,20,0,1,,,,,,,,,
292726,2022-09-30_12h03.29.035,vts_reward_expectancy,2022.2.4,Win32,165.0165017,Firefox,1920,1080,,,,,0,653,,,,,,,,,,,,,,,,,160,S,hexagon,0,0,,,,,,,,,,,,,,,,switch,letter,NA,j,0.393,Hi,,,,,,0,,,,,,,,low,21,0,21,0,1,,,,,,,,,
292726,2022-09-30_12h03.29.035,vts_reward_expectancy,2022.2.4,Win32,165.0165017,Firefox,1920,1080,,,,,10,663,,,,,,,,,,,,,,,,,125,F,star,1,1,,,,,,,,,,,,,,,,switch,number,numSwt,d,0.43,Hi,,,,,,0,,,,,,,,low,22,0,22,0,1,,,,,,,,,
292726,2022-09-30_12h03.29.035,vts_reward_expectancy,2022.2.4,Win32,165.0165017,Firefox,1920,1080,,,,,1,664,,,,,,,,,,,,,,,,,181,H,hexagon,1,0,,,,,,,,,,,,,,,,switch,letter,lettSwt,j,0.654,Lo,,,,,,0,,,,,,,,low,23,0,23,0,1,,,,,,,,,
292726,2022-09-30_12h03.29.035,vts_reward_expectancy,2022.2.4,Win32,165.0165017,Firefox,1920,1080,,,,,1,665,,,,,,,,,,,,,,,,,167,H,hexagon,1,0,,,,,,,,,,,,,,,,repeat,letter,lettRpt,j,0.413,Lo,,,,,,0,,,,,,,,low,24,0,24,0,1,,,,,,,,,
292726,2022-09-30_12h03.29.035,vts_reward_expectancy,2022.2.4,Win32,165.0165017,Firefox,1920,1080,,,,,10,675,,,,,,,,,,,,,,,,,125,D,star,1,0,,,,,,,,,,,,,,,,repeat,letter,lettRpt,j,0.599,Hi,,,,,,0,,,,,,,,low,25,0,25,0,1,,,,,,,,,
292726,2022-09-30_12h03.29.035,vts_reward_expectancy,2022.2.4,Win32,165.0165017,Firefox,1920,1080,,,,,10,685,,,,,,,,,,,,,,,,,139,F,hexagon,1,0,,,,,,,,,,,,,,,,repeat,letter,lettRpt,j,0.636,Lo,,,,,,0,,,,,,,,low,26,0,26,0,1,,,,,,,,,
292726,2022-09-30_12h03.29.035,vts_reward_expectancy,2022.2.4,Win32,165.0165017,Firefox,1920,1080,,,,,0,685,,,,,,,,,,,,,,,,,181,W,star,0,0,,,,,,,,,,,,,,,,switch,number,NA,d,0.677,Lo,,,,,,0,,,,,,,,low,27,0,27,0,1,,,,,,,,,
292726,2022-09-30_12h03.29.035,vts_reward_expectancy,2022.2.4,Win32,165.0165017,Firefox,1920,1080,,,,,1,686,,,,,,,,,,,,,,,,,174,Y,hexagon,1,1,,,,,,,,,,,,,,,,switch,letter,lettSwt,k,0.537,Lo,,,,,,0,,,,,,,,low,28,0,28,0,1,,,,,,,,,
292726,2022-09-30_12h03.29.035,vts_reward_expectancy,2022.2.4,Win32,165.0165017,Firefox,1920,1080,,,,,1,687,,,,,,,,,,,,,,,,,132,B,star,1,0,,,,,,,,,,,,,,,,switch,number,numSwt,d,0.363,Hi,,,,,,0,,,,,,,,low,29,0,29,0,1,,,,,,,,,
292726,2022-09-30_12h03.29.035,vts_reward_expectancy,2022.2.4,Win32,165.0165017,Firefox,1920,1080,,,,,1,688,,,,,,,,,,,,,,,,,146,S,hexagon,1,0,,,,,,,,,,,,,,,,repeat,number,numRpt,d,0.587,Lo,,,,,,0,,,,,,,,low,30,0,30,0,1,,,,,,,,,
292726,2022-09-30_12h03.29.035,vts_reward_expectancy,2022.2.4,Win32,165.0165017,Firefox,1920,1080,,,,,10,698,,,,,,,,,,,,,,,,,160,U,star,1,0,,,,,,,,,,,,,,,,repeat,number,numRpt,f,0.449,Hi,,,,,,0,,,,,,,,low,31,0,31,0,1,,,,,,,,,
292726,2022-09-30_12h03.29.035,vts_reward_expectancy,2022.2.4,Win32,165.0165017,Firefox,1920,1080,,,,,0,698,,,,,,,,,,,,,,,,,167,Y,triangle,1,0,,,,,,,,,,,,,,,,repeat,number,numRpt,f,0.472,Hi,,,,,,1,,,,,,space,2.109,high,0,0,0,0,1,,,,,,,,,
292726,2022-09-30_12h03.29.035,vts_reward_expectancy,2022.2.4,Win32,165.0165017,Firefox,1920,1080,,,,,1,699,,,,,,,,,,,,,,,,,181,U,circle,1,0,,,,,,,,,,,,,,,,switch,letter,lettSwt,k,0.587,Lo,,,,,,1,,,,,,,,high,1,0,1,0,1,,,,,,,,,
292726,2022-09-30_12h03.29.035,vts_reward_expectancy,2022.2.4,Win32,165.0165017,Firefox,1920,1080,,,,,0,699,,,,,,,,,,,,,,,,,146,F,triangle,1,0,,,,,,,,,,,,,,,,switch,number,numSwt,d,0.419,Hi,,,,,,1,,,,,,,,high,2,0,2,0,1,,,,,,,,,
292726,2022-09-30_12h03.29.035,vts_reward_expectancy,2022.2.4,Win32,165.0165017,Firefox,1920,1080,,,,,0,699,,,,,,,,,,,,,,,,,125,S,circle,0,0,,,,,,,,,,,,,,,,switch,letter,NA,j,0.33,Hi,,,,,,1,,,,,,,,high,3,0,3,0,1,,,,,,,,,
292726,2022-09-30_12h03.29.035,vts_reward_expectancy,2022.2.4,Win32,165.0165017,Firefox,1920,1080,,,,,10,709,,,,,,,,,,,,,,,,,174,B,triangle,1,1,,,,,,,,,,,,,,,,switch,number,numSwt,f,0.373,Hi,,,,,,1,,,,,,,,high,4,0,4,0,1,,,,,,,,,
292726,2022-09-30_12h03.29.035,vts_reward_expectancy,2022.2.4,Win32,165.0165017,Firefox,1920,1080,,,,,0,709,,,,,,,,,,,,,,,,,132,H,circle,0,0,,,,,,,,,,,,,,,,switch,letter,NA,k,0.45,Hi,,,,,,1,,,,,,,,high,5,0,5,0,1,,,,,,,,,
292726,2022-09-30_12h03.29.035,vts_reward_expectancy,2022.2.4,Win32,165.0165017,Firefox,1920,1080,,,,,10,719,,,,,,,,,,,,,,,,,139,W,triangle,1,1,,,,,,,,,,,,,,,,switch,number,numSwt,d,0.381,Hi,,,,,,1,,,,,,,,high,6,0,6,0,1,,,,,,,,,
292726,2022-09-30_12h03.29.035,vts_reward_expectancy,2022.2.4,Win32,165.0165017,Firefox,1920,1080,,,,,1,720,,,,,,,,,,,,,,,,,160,D,circle,1,0,,,,,,,,,,,,,,,,switch,letter,lettSwt,j,0.447,Lo,,,,,,1,,,,,,,,high,7,0,7,0,1,,,,,,,,,
292726,2022-09-30_12h03.29.035,vts_reward_expectancy,2022.2.4,Win32,165.0165017,Firefox,1920,1080,,,,,0,720,,,,,,,,,,,,,,,,,167,Y,triangle,1,0,,,,,,,,,,,,,,,,switch,number,numSwt,f,0.418,Hi,,,,,,1,,,,,,,,high,8,0,8,0,1,,,,,,,,,
292726,2022-09-30_12h03.29.035,vts_reward_expectancy,2022.2.4,Win32,165.0165017,Firefox,1920,1080,,,,,0,720,,,,,,,,,,,,,,,,,181,U,circle,0,0,,,,,,,,,,,,,,,,repeat,number,NA,d,0.521,Hi,,,,,,1,,,,,,,,high,9,0,9,0,1,,,,,,,,,
292726,2022-09-30_12h03.29.035,vts_reward_expectancy,2022.2.4,Win32,165.0165017,Firefox,1920,1080,,,,,1,721,,,,,,,,,,,,,,,,,146,F,circle,1,1,,,,,,,,,,,,,,,,repeat,number,numRpt,d,0.424,Lo,,,,,,1,,,,,,,,high,10,0,10,0,1,,,,,,,,,
292726,2022-09-30_12h03.29.035,vts_reward_expectancy,2022.2.4,Win32,165.0165017,Firefox,1920,1080,,,,,1,722,,,,,,,,,,,,,,,,,125,S,triangle,1,0,,,,,,,,,,,,,,,,repeat,number,numRpt,d,0.364,Hi,,,,,,1,,,,,,,,high,11,0,11,0,1,,,,,,,,,
292726,2022-09-30_12h03.29.035,vts_reward_expectancy,2022.2.4,Win32,165.0165017,Firefox,1920,1080,,,,,0,722,,,,,,,,,,,,,,,,,174,B,triangle,0,0,,,,,,,,,,,,,,,,repeat,number,NA,d,0.356,Hi,,,,,,1,,,,,,,,high,12,0,12,0,1,,,,,,,,,
292726,2022-09-30_12h03.29.035,vts_reward_expectancy,2022.2.4,Win32,165.0165017,Firefox,1920,1080,,,,,1,723,,,,,,,,,,,,,,,,,132,H,circle,1,1,,,,,,,,,,,,,,,,repeat,number,numRpt,d,0.393,Lo,,,,,,1,,,,,,,,high,13,0,13,0,1,,,,,,,,,
292726,2022-09-30_12h03.29.035,vts_reward_expectancy,2022.2.4,Win32,165.0165017,Firefox,1920,1080,,,,,10,733,,,,,,,,,,,,,,,,,139,W,triangle,1,0,,,,,,,,,,,,,,,,repeat,number,numRpt,d,0.323,Hi,,,,,,1,,,,,,,,high,14,0,14,0,1,,,,,,,,,
292726,2022-09-30_12h03.29.035,vts_reward_expectancy,2022.2.4,Win32,165.0165017,Firefox,1920,1080,,,,,1,734,,,,,,,,,,,,,,,,,160,D,circle,1,0,,,,,,,,,,,,,,,,switch,letter,lettSwt,j,0.623,Lo,,,,,,1,,,,,,,,high,15,0,15,0,1,,,,,,,,,
292726,2022-09-30_12h03.29.035,vts_reward_expectancy,2022.2.4,Win32,165.0165017,Firefox,1920,1080,,,,,1,735,,,,,,,,,,,,,,,,,125,S,circle,1,0,,,,,,,,,,,,,,,,switch,number,numSwt,d,0.479,Lo,,,,,,1,,,,,,,,high,16,0,16,0,1,,,,,,,,,
292726,2022-09-30_12h03.29.035,vts_reward_expectancy,2022.2.4,Win32,165.0165017,Firefox,1920,1080,,,,,0,735,,,,,,,,,,,,,,,,,132,Y,triangle,1,0,,,,,,,,,,,,,,,,switch,letter,lettSwt,k,0.544,Hi,,,,,,1,,,,,,,,high,17,0,17,0,1,,,,,,,,,
292726,2022-09-30_12h03.29.035,vts_reward_expectancy,2022.2.4,Win32,165.0165017,Firefox,1920,1080,,,,,10,745,,,,,,,,,,,,,,,,,146,D,circle,1,0,,,,,,,,,,,,,,,,switch,number,numSwt,d,0.43,Lo,,,,,,1,,,,,,,,high,18,0,18,0,1,,,,,,,,,
292726,2022-09-30_12h03.29.035,vts_reward_expectancy,2022.2.4,Win32,165.0165017,Firefox,1920,1080,,,,,10,755,,,,,,,,,,,,,,,,,160,U,triangle,1,0,,,,,,,,,,,,,,,,repeat,number,numRpt,f,0.358,Hi,,,,,,1,,,,,,,,high,19,0,19,0,1,,,,,,,,,
292726,2022-09-30_12h03.29.035,vts_reward_expectancy,2022.2.4,Win32,165.0165017,Firefox,1920,1080,,,,,1,756,,,,,,,,,,,,,,,,,139,B,circle,1,0,,,,,,,,,,,,,,,,repeat,number,numRpt,d,0.539,Lo,,,,,,1,,,,,,,,high,20,0,20,0,1,,,,,,,,,
292726,2022-09-30_12h03.29.035,vts_reward_expectancy,2022.2.4,Win32,165.0165017,Firefox,1920,1080,,,,,0,756,,,,,,,,,,,,,,,,,181,H,triangle,1,0,,,,,,,,,,,,,,,,repeat,number,numRpt,f,0.478,Hi,,,,,,1,,,,,,,,high,21,0,21,0,1,,,,,,,,,
292726,2022-09-30_12h03.29.035,vts_reward_expectancy,2022.2.4,Win32,165.0165017,Firefox,1920,1080,,,,,1,757,,,,,,,,,,,,,,,,,174,W,triangle,1,0,,,,,,,,,,,,,,,,repeat,number,numRpt,f,0.357,Hi,,,,,,1,,,,,,,,high,22,0,22,0,1,,,,,,,,,
292726,2022-09-30_12h03.29.035,vts_reward_expectancy,2022.2.4,Win32,165.0165017,Firefox,1920,1080,,,,,1,758,,,,,,,,,,,,,,,,,167,F,circle,1,0,,,,,,,,,,,,,,,,switch,letter,lettSwt,j,0.58,Lo,,,,,,1,,,,,,,,high,23,0,23,0,1,,,,,,,,,
292726,2022-09-30_12h03.29.035,vts_reward_expectancy,2022.2.4,Win32,165.0165017,Firefox,1920,1080,,,,,0,758,,,,,,,,,,,,,,,,,132,S,triangle,0,0,,,,,,,,,,,,,,,,switch,number,NA,f,0.326,Lo,,,,,,1,,,,,,,,high,24,0,24,0,1,,,,,,,,,
292726,2022-09-30_12h03.29.035,vts_reward_expectancy,2022.2.4,Win32,165.0165017,Firefox,1920,1080,,,,,10,768,,,,,,,,,,,,,,,,,160,H,circle,1,1,,,,,,,,,,,,,,,,switch,letter,lettSwt,j,0.346,Lo,,,,,,1,,,,,,,,high,25,0,25,0,1,,,,,,,,,
292726,2022-09-30_12h03.29.035,vts_reward_expectancy,2022.2.4,Win32,165.0165017,Firefox,1920,1080,,,,,0,768,,,,,,,,,,,,,,,,,174,U,triangle,0,0,,,,,,,,,,,,,,,,switch,number,NA,d,0.382,Lo,,,,,,1,,,,,,,,high,26,0,26,0,1,,,,,,,,,
292726,2022-09-30_12h03.29.035,vts_reward_expectancy,2022.2.4,Win32,165.0165017,Firefox,1920,1080,,,,,0,768,,,,,,,,,,,,,,,,,181,Y,circle,0,1,,,,,,,,,,,,,,,,switch,letter,NA,j,0.432,Lo,,,,,,1,,,,,,,,high,27,0,27,0,1,,,,,,,,,
292726,2022-09-30_12h03.29.035,vts_reward_expectancy,2022.2.4,Win32,165.0165017,Firefox,1920,1080,,,,,0,768,,,,,,,,,,,,,,,,,125,D,circle,0,1,,,,,,,,,,,,,,,,switch,number,NA,f,0.599,Lo,,,,,,1,,,,,,,,high,28,0,28,0,1,,,,,,,,,
292726,2022-09-30_12h03.29.035,vts_reward_expectancy,2022.2.4,Win32,165.0165017,Firefox,1920,1080,,,,,1,769,,,,,,,,,,,,,,,,,167,F,triangle,1,1,,,,,,,,,,,,,,,,repeat,number,numRpt,f,0.436,Hi,,,,,,1,,,,,,,,high,29,0,29,0,1,,,,,,,,,
292726,2022-09-30_12h03.29.035,vts_reward_expectancy,2022.2.4,Win32,165.0165017,Firefox,1920,1080,,,,,10,779,,,,,,,,,,,,,,,,,139,B,circle,1,0,,,,,,,,,,,,,,,,repeat,number,numRpt,d,0.456,Lo,,,,,,1,,,,,,,,high,30,0,30,0,1,,,,,,,,,
292726,2022-09-30_12h03.29.035,vts_reward_expectancy,2022.2.4,Win32,165.0165017,Firefox,1920,1080,,,,,1,780,,,,,,,,,,,,,,,,,146,W,triangle,1,0,,,,,,,,,,,,,,,,switch,letter,lettSwt,k,0.429,Hi,,,,,,1,,,,,,,,high,31,0,31,0,1,,,,,,,,,
292726,2022-09-30_12h03.29.035,vts_reward_expectancy,2022.2.4,Win32,165.0165017,Firefox,1920,1080,,,,,0,780,,,,,,,,,,,,,,,,,132,W,triangle,1,0,,,,,,,,,,,,,,,,switch,number,numSwt,d,0.406,Hi,,,,,,2,,,,,,space,0.678,high,0,0,0,0,1,,,,,,,,,
292726,2022-09-30_12h03.29.035,vts_reward_expectancy,2022.2.4,Win32,165.0165017,Firefox,1920,1080,,,,,1,781,,,,,,,,,,,,,,,,,160,F,circle,1,0,,,,,,,,,,,,,,,,switch,letter,lettSwt,j,0.418,Lo,,,,,,2,,,,,,,,high,1,0,1,0,1,,,,,,,,,
292726,2022-09-30_12h03.29.035,vts_reward_expectancy,2022.2.4,Win32,165.0165017,Firefox,1920,1080,,,,,10,791,,,,,,,,,,,,,,,,,181,H,triangle,1,0,,,,,,,,,,,,,,,,switch,number,numSwt,f,0.309,Hi,,,,,,2,,,,,,,,high,2,0,2,0,1,,,,,,,,,
292726,2022-09-30_12h03.29.035,vts_reward_expectancy,2022.2.4,Win32,165.0165017,Firefox,1920,1080,,,,,0,791,,,,,,,,,,,,,,,,,167,S,circle,0,0,,,,,,,,,,,,,,,,switch,letter,NA,j,0.594,Hi,,,,,,2,,,,,,,,high,3,0,3,0,1,,,,,,,,,
292726,2022-09-30_12h03.29.035,vts_reward_expectancy,2022.2.4,Win32,165.0165017,Firefox,1920,1080,,,,,0,791,,,,,,,,,,,,,,,,,174,U,triangle,0,1,,,,,,,,,,,,,,,,switch,number,NA,d,0.372,Hi,,,,,,2,,,,,,,,high,4,0,4,0,1,,,,,,,,,
292726,2022-09-30_12h03.29.035,vts_reward_expectancy,2022.2.4,Win32,165.0165017,Firefox,1920,1080,,,,,1,792,,,,,,,,,,,,,,,,,139,B,circle,1,1,,,,,,,,,,,,,,,,switch,letter,lettSwt,j,0.399,Lo,,,,,,2,,,,,,,,high,5,0,5,0,1,,,,,,,,,
292726,2022-09-30_12h03.29.035,vts_reward_expectancy,2022.2.4,Win32,165.0165017,Firefox,1920,1080,,,,,0,792,,,,,,,,,,,,,,,,,146,Y,circle,0,0,,,,,,,,,,,,,,,,repeat,letter,NA,j,0.571,Lo,,,,,,2,,,,,,,,high,6,0,6,0,1,,,,,,,,,
292726,2022-09-30_12h03.29.035,vts_reward_expectancy,2022.2.4,Win32,165.0165017,Firefox,1920,1080,,,,,0,792,,,,,,,,,,,,,,,,,125,D,triangle,1,1,,,,,,,,,,,,,,,,switch,number,numSwt,d,0.418,Hi,,,,,,2,,,,,,,,high,7,0,7,0,1,,,,,,,,,
292726,2022-09-30_12h03.29.035,vts_reward_expectancy,2022.2.4,Win32,165.0165017,Firefox,1920,1080,,,,,1,793,,,,,,,,,,,,,,,,,132,W,circle,1,0,,,,,,,,,,,,,,,,repeat,number,numRpt,d,0.48,Lo,,,,,,2,,,,,,,,high,8,0,8,0,1,,,,,,,,,
292726,2022-09-30_12h03.29.035,vts_reward_expectancy,2022.2.4,Win32,165.0165017,Firefox,1920,1080,,,,,0,793,,,,,,,,,,,,,,,,,160,F,triangle,1,0,,,,,,,,,,,,,,,,repeat,number,numRpt,f,0.386,Hi,,,,,,2,,,,,,,,high,9,0,9,0,1,,,,,,,,,
292726,2022-09-30_12h03.29.035,vts_reward_expectancy,2022.2.4,Win32,165.0165017,Firefox,1920,1080,,,,,0,793,,,,,,,,,,,,,,,,,181,H,circle,0,0,,,,,,,,,,,,,,,,switch,letter,NA,k,0.606,Hi,,,,,,2,,,,,,,,high,10,0,10,0,1,,,,,,,,,
292726,2022-09-30_12h03.29.035,vts_reward_expectancy,2022.2.4,Win32,165.0165017,Firefox,1920,1080,,,,,0,793,,,,,,,,,,,,,,,,,167,S,triangle,1,1,,,,,,,,,,,,,,,,switch,number,numSwt,f,0.504,Hi,,,,,,2,,,,,,,,high,11,0,11,0,1,,,,,,,,,
292726,2022-09-30_12h03.29.035,vts_reward_expectancy,2022.2.4,Win32,165.0165017,Firefox,1920,1080,,,,,0,793,,,,,,,,,,,,,,,,,174,U,triangle,1,0,,,,,,,,,,,,,,,,repeat,number,numRpt,f,0.478,Hi,,,,,,2,,,,,,,,high,12,0,12,0,1,,,,,,,,,
292726,2022-09-30_12h03.29.035,vts_reward_expectancy,2022.2.4,Win32,165.0165017,Firefox,1920,1080,,,,,10,803,,,,,,,,,,,,,,,,,139,B,circle,1,0,,,,,,,,,,,,,,,,repeat,number,numRpt,d,0.46,Lo,,,,,,2,,,,,,,,high,13,0,13,0,1,,,,,,,,,
292726,2022-09-30_12h03.29.035,vts_reward_expectancy,2022.2.4,Win32,165.0165017,Firefox,1920,1080,,,,,1,804,,,,,,,,,,,,,,,,,146,Y,triangle,1,0,,,,,,,,,,,,,,,,switch,letter,lettSwt,k,0.412,Hi,,,,,,2,,,,,,,,high,14,0,14,0,1,,,,,,,,,
292726,2022-09-30_12h03.29.035,vts_reward_expectancy,2022.2.4,Win32,165.0165017,Firefox,1920,1080,,,,,10,814,,,,,,,,,,,,,,,,,125,D,circle,1,0,,,,,,,,,,,,,,,,switch,number,numSwt,d,0.397,Lo,,,,,,2,,,,,,,,high,15,0,15,0,1,,,,,,,,,
292726,2022-09-30_12h03.29.035,vts_reward_expectancy,2022.2.4,Win32,165.0165017,Firefox,1920,1080,,,,,0,814,,,,,,,,,,,,,,,,,181,Y,triangle,1,0,,,,,,,,,,,,,,,,repeat,number,numRpt,f,0.411,Hi,,,,,,2,,,,,,,,high,16,0,16,0,1,,,,,,,,,
292726,2022-09-30_12h03.29.035,vts_reward_expectancy,2022.2.4,Win32,165.0165017,Firefox,1920,1080,,,,,1,815,,,,,,,,,,,,,,,,,132,H,circle,1,0,,,,,,,,,,,,,,,,repeat,number,numRpt,d,0.449,Lo,,,,,,2,,,,,,,,high,17,0,17,0,1,,,,,,,,,
292726,2022-09-30_12h03.29.035,vts_reward_expectancy,2022.2.4,Win32,165.0165017,Firefox,1920,1080,,,,,1,816,,,,,,,,,,,,,,,,,125,D,triangle,1,0,,,,,,,,,,,,,,,,repeat,number,numRpt,d,0.352,Hi,,,,,,2,,,,,,,,high,18,0,18,0,1,,,,,,,,,
292726,2022-09-30_12h03.29.035,vts_reward_expectancy,2022.2.4,Win32,165.0165017,Firefox,1920,1080,,,,,0,816,,,,,,,,,,,,,,,,,174,F,circle,0,0,,,,,,,,,,,,,,,,repeat,number,NA,d,0.309,Hi,,,,,,2,,,,,,,,high,19,0,19,0,1,,,,,,,,,
292726,2022-09-30_12h03.29.035,vts_reward_expectancy,2022.2.4,Win32,165.0165017,Firefox,1920,1080,,,,,10,826,,,,,,,,,,,,,,,,,139,W,circle,1,1,,,,,,,,,,,,,,,,switch,letter,lettSwt,k,0.435,Lo,,,,,,2,,,,,,,,high,20,0,20,0,1,,,,,,,,,
292726,2022-09-30_12h03.29.035,vts_reward_expectancy,2022.2.4,Win32,165.0165017,Firefox,1920,1080,,,,,1,827,,,,,,,,,,,,,,,,,160,U,triangle,1,0,,,,,,,,,,,,,,,,repeat,letter,lettRpt,k,0.436,Hi,,,,,,2,,,,,,,,high,21,0,21,0,1,,,,,,,,,
292726,2022-09-30_12h03.29.035,vts_reward_expectancy,2022.2.4,Win32,165.0165017,Firefox,1920,1080,,,,,10,837,,,,,,,,,,,,,,,,,146,S,triangle,1,0,,,,,,,,,,,,,,,,switch,number,numSwt,d,0.377,Hi,,,,,,2,,,,,,,,high,22,0,22,0,1,,,,,,,,,
292726,2022-09-30_12h03.29.035,vts_reward_expectancy,2022.2.4,Win32,165.0165017,Firefox,1920,1080,,,,,1,838,,,,,,,,,,,,,,,,,167,B,circle,1,0,,,,,,,,,,,,,,,,switch,letter,lettSwt,j,0.395,Lo,,,,,,2,,,,,,,,high,23,0,23,0,1,,,,,,,,,
292726,2022-09-30_12h03.29.035,vts_reward_expectancy,2022.2.4,Win32,165.0165017,Firefox,1920,1080,,,,,1,839,,,,,,,,,,,,,,,,,174,H,circle,1,0,,,,,,,,,,,,,,,,repeat,letter,lettRpt,j,0.454,Lo,,,,,,2,,,,,,,,high,24,0,24,0,1,,,,,,,,,
292726,2022-09-30_12h03.29.035,vts_reward_expectancy,2022.2.4,Win32,165.0165017,Firefox,1920,1080,,,,,10,849,,,,,,,,,,,,,,,,,181,W,triangle,1,0,,,,,,,,,,,,,,,,switch,number,numSwt,f,0.375,Hi,,,,,,2,,,,,,,,high,25,0,25,0,1,,,,,,,,,
292726,2022-09-30_12h03.29.035,vts_reward_expectancy,2022.2.4,Win32,165.0165017,Firefox,1920,1080,,,,,10,859,,,,,,,,,,,,,,,,,125,B,circle,1,0,,,,,,,,,,,,,,,,switch,letter,lettSwt,j,0.371,Lo,,,,,,2,,,,,,,,high,26,0,26,0,1,,,,,,,,,
292726,2022-09-30_12h03.29.035,vts_reward_expectancy,2022.2.4,Win32,165.0165017,Firefox,1920,1080,,,,,1,860,,,,,,,,,,,,,,,,,139,F,triangle,1,0,,,,,,,,,,,,,,,,switch,number,numSwt,d,0.387,Hi,,,,,,2,,,,,,,,high,27,0,27,0,1,,,,,,,,,
292726,2022-09-30_12h03.29.035,vts_reward_expectancy,2022.2.4,Win32,165.0165017,Firefox,1920,1080,,,,,0,860,,,,,,,,,,,,,,,,,132,S,triangle,0,0,,,,,,,,,,,,,,,,switch,letter,NA,j,0.583,Hi,,,,,,2,,,,,,,,high,28,0,28,0,1,,,,,,,,,
292726,2022-09-30_12h03.29.035,vts_reward_expectancy,2022.2.4,Win32,165.0165017,Firefox,1920,1080,,,,,1,861,,,,,,,,,,,,,,,,,167,U,circle,1,1,,,,,,,,,,,,,,,,repeat,letter,lettRpt,k,0.732,Lo,,,,,,2,,,,,,,,high,29,0,29,0,1,,,,,,,,,
292726,2022-09-30_12h03.29.035,vts_reward_expectancy,2022.2.4,Win32,165.0165017,Firefox,1920,1080,,,,,10,871,,,,,,,,,,,,,,,,,160,Y,triangle,1,0,,,,,,,,,,,,,,,,switch,number,numSwt,f,0.386,Hi,,,,,,2,,,,,,,,high,30,0,30,0,1,,,,,,,,,
292726,2022-09-30_12h03.29.035,vts_reward_expectancy,2022.2.4,Win32,165.0165017,Firefox,1920,1080,,,,,1,872,,,,,,,,,,,,,,,,,146,D,circle,1,0,,,,,,,,,,,,,,,,repeat,number,numRpt,d,0.562,Lo,,,,,,2,,,,,,,,high,31,0,31,0,1,,,,,,,,,
292726,2022-09-30_12h03.29.035,vts_reward_expectancy,2022.2.4,Win32,165.0165017,Firefox,1920,1080,,,,,0,872,,,,,,,,,,,,,,,,,160,H,circle,0,0,,,,,,,,,,,,,,,,switch,letter,NA,k,0.437,Lo,,,,,,3,,,,,,space,2.965,high,0,0,0,0,1,,,,,,,,,
292726,2022-09-30_12h03.29.035,vts_reward_expectancy,2022.2.4,Win32,165.0165017,Firefox,1920,1080,,,,,0,872,,,,,,,,,,,,,,,,,167,W,triangle,1,1,,,,,,,,,,,,,,,,switch,number,numSwt,f,0.455,Hi,,,,,,3,,,,,,,,high,1,0,1,0,1,,,,,,,,,
292726,2022-09-30_12h03.29.035,vts_reward_expectancy,2022.2.4,Win32,165.0165017,Firefox,1920,1080,,,,,1,873,,,,,,,,,,,,,,,,,132,D,circle,1,0,,,,,,,,,,,,,,,,repeat,number,numRpt,d,0.387,Lo,,,,,,3,,,,,,,,high,2,0,2,0,1,,,,,,,,,
292726,2022-09-30_12h03.29.035,vts_reward_expectancy,2022.2.4,Win32,165.0165017,Firefox,1920,1080,,,,,10,883,,,,,,,,,,,,,,,,,146,F,triangle,1,0,,,,,,,,,,,,,,,,repeat,number,numRpt,d,0.335,Hi,,,,,,3,,,,,,,,high,3,0,3,0,1,,,,,,,,,
292726,2022-09-30_12h03.29.035,vts_reward_expectancy,2022.2.4,Win32,165.0165017,Firefox,1920,1080,,,,,10,893,,,,,,,,,,,,,,,,,125,B,triangle,1,0,,,,,,,,,,,,,,,,repeat,number,numRpt,d,0.358,Hi,,,,,,3,,,,,,,,high,4,0,4,0,1,,,,,,,,,
292726,2022-09-30_12h03.29.035,vts_reward_expectancy,2022.2.4,Win32,165.0165017,Firefox,1920,1080,,,,,10,903,,,,,,,,,,,,,,,,,139,U,circle,1,0,,,,,,,,,,,,,,,,repeat,number,numRpt,d,0.491,Lo,,,,,,3,,,,,,,,high,5,0,5,0,1,,,,,,,,,
292726,2022-09-30_12h03.29.035,vts_reward_expectancy,2022.2.4,Win32,165.0165017,Firefox,1920,1080,,,,,0,903,,,,,,,,,,,,,,,,,174,S,triangle,0,0,,,,,,,,,,,,,,,,switch,letter,NA,j,0.498,Lo,,,,,,3,,,,,,,,high,6,0,6,0,1,,,,,,,,,
292726,2022-09-30_12h03.29.035,vts_reward_expectancy,2022.2.4,Win32,165.0165017,Firefox,1920,1080,,,,,1,904,,,,,,,,,,,,,,,,,181,Y,circle,1,1,,,,,,,,,,,,,,,,repeat,letter,lettRpt,k,0.425,Lo,,,,,,3,,,,,,,,high,7,0,7,0,1,,,,,,,,,
292726,2022-09-30_12h03.29.035,vts_reward_expectancy,2022.2.4,Win32,165.0165017,Firefox,1920,1080,,,,,0,904,,,,,,,,,,,,,,,,,160,H,triangle,1,0,,,,,,,,,,,,,,,,repeat,letter,lettRpt,j,0.509,Hi,,,,,,3,,,,,,,,high,8,0,8,0,1,,,,,,,,,
292726,2022-09-30_12h03.29.035,vts_reward_expectancy,2022.2.4,Win32,165.0165017,Firefox,1920,1080,,,,,1,905,,,,,,,,,,,,,,,,,167,W,circle,1,0,,,,,,,,,,,,,,,,repeat,letter,lettRpt,k,0.538,Lo,,,,,,3,,,,,,,,high,9,0,9,0,1,,,,,,,,,
292726,2022-09-30_12h03.29.035,vts_reward_expectancy,2022.2.4,Win32,165.0165017,Firefox,1920,1080,,,,,10,915,,,,,,,,,,,,,,,,,132,D,circle,1,0,,,,,,,,,,,,,,,,repeat,letter,lettRpt,j,0.483,Lo,,,,,,3,,,,,,,,high,10,0,10,0,1,,,,,,,,,
292726,2022-09-30_12h03.29.035,vts_reward_expectancy,2022.2.4,Win32,165.0165017,Firefox,1920,1080,,,,,0,915,,,,,,,,,,,,,,,,,146,F,triangle,1,0,,,,,,,,,,,,,,,,repeat,letter,lettRpt,j,0.55,Hi,,,,,,3,,,,,,,,high,11,0,11,0,1,,,,,,,,,
292726,2022-09-30_12h03.29.035,vts_reward_expectancy,2022.2.4,Win32,165.0165017,Firefox,1920,1080,,,,,1,916,,,,,,,,,,,,,,,,,125,B,circle,1,0,,,,,,,,,,,,,,,,repeat,letter,lettRpt,j,0.395,Lo,,,,,,3,,,,,,,,high,12,0,12,0,1,,,,,,,,,
292726,2022-09-30_12h03.29.035,vts_reward_expectancy,2022.2.4,Win32,165.0165017,Firefox,1920,1080,,,,,10,926,,,,,,,,,,,,,,,,,139,U,triangle,1,0,,,,,,,,,,,,,,,,switch,number,numSwt,d,0.354,Hi,,,,,,3,,,,,,,,high,13,0,13,0,1,,,,,,,,,
292726,2022-09-30_12h03.29.035,vts_reward_expectancy,2022.2.4,Win32,165.0165017,Firefox,1920,1080,,,,,10,936,,,,,,,,,,,,,,,,,174,S,triangle,1,0,,,,,,,,,,,,,,,,repeat,number,numRpt,f,0.333,Hi,,,,,,3,,,,,,,,high,14,0,14,0,1,,,,,,,,,
292726,2022-09-30_12h03.29.035,vts_reward_expectancy,2022.2.4,Win32,165.0165017,Firefox,1920,1080,,,,,1,937,,,,,,,,,,,,,,,,,181,Y,circle,1,0,,,,,,,,,,,,,,,,switch,letter,lettSwt,k,0.398,Lo,,,,,,3,,,,,,,,high,15,0,15,0,1,,,,,,,,,
292726,2022-09-30_12h03.29.035,vts_reward_expectancy,2022.2.4,Win32,165.0165017,Firefox,1920,1080,,,,,10,947,,,,,,,,,,,,,,,,,139,W,triangle,1,0,,,,,,,,,,,,,,,,repeat,letter,lettRpt,k,0.407,Hi,,,,,,3,,,,,,,,high,16,0,16,0,1,,,,,,,,,
292726,2022-09-30_12h03.29.035,vts_reward_expectancy,2022.2.4,Win32,165.0165017,Firefox,1920,1080,,,,,1,948,,,,,,,,,,,,,,,,,181,Y,circle,1,0,,,,,,,,,,,,,,,,repeat,letter,lettRpt,k,0.504,Lo,,,,,,3,,,,,,,,high,17,0,17,0,1,,,,,,,,,
292726,2022-09-30_12h03.29.035,vts_reward_expectancy,2022.2.4,Win32,165.0165017,Firefox,1920,1080,,,,,1,949,,,,,,,,,,,,,,,,,132,F,circle,1,0,,,,,,,,,,,,,,,,repeat,letter,lettRpt,j,0.594,Lo,,,,,,3,,,,,,,,high,18,0,18,0,1,,,,,,,,,
292726,2022-09-30_12h03.29.035,vts_reward_expectancy,2022.2.4,Win32,165.0165017,Firefox,1920,1080,,,,,0,949,,,,,,,,,,,,,,,,,146,S,triangle,1,0,,,,,,,,,,,,,,,,switch,number,numSwt,d,0.386,Hi,,,,,,3,,,,,,,,high,19,0,19,0,1,,,,,,,,,
292726,2022-09-30_12h03.29.035,vts_reward_expectancy,2022.2.4,Win32,165.0165017,Firefox,1920,1080,,,,,10,959,,,,,,,,,,,,,,,,,125,B,triangle,1,0,,,,,,,,,,,,,,,,repeat,number,numRpt,d,0.334,Hi,,,,,,3,,,,,,,,high,20,0,20,0,1,,,,,,,,,
292726,2022-09-30_12h03.29.035,vts_reward_expectancy,2022.2.4,Win32,165.0165017,Firefox,1920,1080,,,,,1,960,,,,,,,,,,,,,,,,,174,U,circle,1,0,,,,,,,,,,,,,,,,repeat,number,numRpt,f,0.356,Lo,,,,,,3,,,,,,,,high,21,0,21,0,1,,,,,,,,,
292726,2022-09-30_12h03.29.035,vts_reward_expectancy,2022.2.4,Win32,165.0165017,Firefox,1920,1080,,,,,10,970,,,,,,,,,,,,,,,,,160,H,triangle,1,0,,,,,,,,,,,,,,,,switch,letter,lettSwt,j,0.376,Hi,,,,,,3,,,,,,,,high,22,0,22,0,1,,,,,,,,,
292726,2022-09-30_12h03.29.035,vts_reward_expectancy,2022.2.4,Win32,165.0165017,Firefox,1920,1080,,,,,1,971,,,,,,,,,,,,,,,,,167,D,circle,1,0,,,,,,,,,,,,,,,,repeat,letter,lettRpt,j,0.563,Lo,,,,,,3,,,,,,,,high,23,0,23,0,1,,,,,,,,,
292726,2022-09-30_12h03.29.035,vts_reward_expectancy,2022.2.4,Win32,165.0165017,Firefox,1920,1080,,,,,1,972,,,,,,,,,,,,,,,,,132,D,circle,1,0,,,,,,,,,,,,,,,,switch,number,numSwt,d,0.317,Lo,,,,,,3,,,,,,,,high,24,0,24,0,1,,,,,,,,,
292726,2022-09-30_12h03.29.035,vts_reward_expectancy,2022.2.4,Win32,165.0165017,Firefox,1920,1080,,,,,10,982,,,,,,,,,,,,,,,,,146,B,triangle,1,0,,,,,,,,,,,,,,,,switch,letter,lettSwt,j,0.304,Hi,,,,,,3,,,,,,,,high,25,0,25,0,1,,,,,,,,,
292726,2022-09-30_12h03.29.035,vts_reward_expectancy,2022.2.4,Win32,165.0165017,Firefox,1920,1080,,,,,0,982,,,,,,,,,,,,,,,,,167,S,triangle,0,0,,,,,,,,,,,,,,,,repeat,letter,NA,j,0.346,Hi,,,,,,3,,,,,,,,high,26,0,26,0,1,,,,,,,,,
292726,2022-09-30_12h03.29.035,vts_reward_expectancy,2022.2.4,Win32,165.0165017,Firefox,1920,1080,,,,,1,983,,,,,,,,,,,,,,,,,160,W,circle,1,1,,,,,,,,,,,,,,,,repeat,letter,lettRpt,k,0.435,Lo,,,,,,3,,,,,,,,high,27,0,27,0,1,,,,,,,,,
292726,2022-09-30_12h03.29.035,vts_reward_expectancy,2022.2.4,Win32,165.0165017,Firefox,1920,1080,,,,,0,983,,,,,,,,,,,,,,,,,174,U,triangle,0,0,,,,,,,,,,,,,,,,switch,number,NA,d,0.291,Lo,,,,,,3,,,,,,,,high,28,0,28,0,1,,,,,,,,,
292726,2022-09-30_12h03.29.035,vts_reward_expectancy,2022.2.4,Win32,165.0165017,Firefox,1920,1080,,,,,1,984,,,,,,,,,,,,,,,,,125,F,circle,1,1,,,,,,,,,,,,,,,,repeat,number,numRpt,d,0.337,Lo,,,,,,3,,,,,,,,high,29,0,29,0,1,,,,,,,,,
292726,2022-09-30_12h03.29.035,vts_reward_expectancy,2022.2.4,Win32,165.0165017,Firefox,1920,1080,,,,,10,994,,,,,,,,,,,,,,,,,139,H,circle,1,0,,,,,,,,,,,,,,,,switch,letter,lettSwt,j,0.611,Lo,,,,,,3,,,,,,,,high,30,0,30,0,1,,,,,,,,,
292726,2022-09-30_12h03.29.035,vts_reward_expectancy,2022.2.4,Win32,165.0165017,Firefox,1920,1080,,,,,0,994,,,,,,,,,,,,,,,,,181,Y,triangle,1,0,,,,,,,,,,,,,,,,repeat,letter,lettRpt,k,0.484,Hi,,,,,,3,,,,,,,,high,31,0,31,0,1,,,,,,,,,
292726,2022-09-30_12h03.29.035,vts_reward_expectancy,2022.2.4,Win32,165.0165017,Firefox,1920,1080,,,,,0,994,,,,,,,,,,,,,,,,,146,F,hexagon,0,0,,,,,,,,,,,,,,,,switch,number,NA,f,0.325,Hi,,,,,,4,,,,,,space,59.202,low,0,0,0,0,1,,,,,,,,,
292726,2022-09-30_12h03.29.035,vts_reward_expectancy,2022.2.4,Win32,165.0165017,Firefox,1920,1080,,,,,0,994,,,,,,,,,,,,,,,,,125,S,star,1,1,,,,,,,,,,,,,,,,repeat,number,numRpt,d,0.389,Hi,,,,,,4,,,,,,,,low,1,0,1,0,1,,,,,,,,,
292726,2022-09-30_12h03.29.035,vts_reward_expectancy,2022.2.4,Win32,165.0165017,Firefox,1920,1080,,,,,0,994,,,,,,,,,,,,,,,,,160,B,hexagon,0,0,,,,,,,,,,,,,,,,repeat,number,NA,d,0.328,Hi,,,,,,4,,,,,,,,low,2,0,2,0,1,,,,,,,,,
292726,2022-09-30_12h03.29.035,vts_reward_expectancy,2022.2.4,Win32,165.0165017,Firefox,1920,1080,,,,,0,994,,,,,,,,,,,,,,,,,167,H,star,1,1,,,,,,,,,,,,,,,,repeat,number,numRpt,f,0.428,Hi,,,,,,4,,,,,,,,low,3,0,3,0,1,,,,,,,,,
292726,2022-09-30_12h03.29.035,vts_reward_expectancy,2022.2.4,Win32,165.0165017,Firefox,1920,1080,,,,,0,994,,,,,,,,,,,,,,,,,132,U,hexagon,0,0,,,,,,,,,,,,,,,,switch,letter,NA,j,0.417,Hi,,,,,,4,,,,,,,,low,4,0,4,0,1,,,,,,,,,
292726,2022-09-30_12h03.29.035,vts_reward_expectancy,2022.2.4,Win32,165.0165017,Firefox,1920,1080,,,,,10,1004,,,,,,,,,,,,,,,,,174,Y,star,1,1,,,,,,,,,,,,,,,,repeat,letter,lettRpt,k,0.341,Hi,,,,,,4,,,,,,,,low,5,0,5,0,1,,,,,,,,,
292726,2022-09-30_12h03.29.035,vts_reward_expectancy,2022.2.4,Win32,165.0165017,Firefox,1920,1080,,,,,1,1005,,,,,,,,,,,,,,,,,181,D,hexagon,1,0,,,,,,,,,,,,,,,,repeat,letter,lettRpt,j,0.382,Lo,,,,,,4,,,,,,,,low,6,0,6,0,1,,,,,,,,,
292726,2022-09-30_12h03.29.035,vts_reward_expectancy,2022.2.4,Win32,165.0165017,Firefox,1920,1080,,,,,10,1015,,,,,,,,,,,,,,,,,139,W,star,1,0,,,,,,,,,,,,,,,,switch,number,numSwt,d,0.351,Hi,,,,,,4,,,,,,,,low,7,0,7,0,1,,,,,,,,,
292726,2022-09-30_12h03.29.035,vts_reward_expectancy,2022.2.4,Win32,165.0165017,Firefox,1920,1080,,,,,10,1025,,,,,,,,,,,,,,,,,146,F,hexagon,1,0,,,,,,,,,,,,,,,,repeat,number,numRpt,d,0.321,Lo,,,,,,4,,,,,,,,low,8,0,8,0,1,,,,,,,,,
292726,2022-09-30_12h03.29.035,vts_reward_expectancy,2022.2.4,Win32,165.0165017,Firefox,1920,1080,,,,,0,1025,,,,,,,,,,,,,,,,,125,S,star,1,0,,,,,,,,,,,,,,,,repeat,number,numRpt,d,0.426,Hi,,,,,,4,,,,,,,,low,9,0,9,0,1,,,,,,,,,
292726,2022-09-30_12h03.29.035,vts_reward_expectancy,2022.2.4,Win32,165.0165017,Firefox,1920,1080,,,,,0,1025,,,,,,,,,,,,,,,,,160,B,hexagon,0,0,,,,,,,,,,,,,,,,repeat,number,NA,d,0.307,Hi,,,,,,4,,,,,,,,low,10,0,10,0,1,,,,,,,,,
292726,2022-09-30_12h03.29.035,vts_reward_expectancy,2022.2.4,Win32,165.0165017,Firefox,1920,1080,,,,,0,1025,,,,,,,,,,,,,,,,,167,H,star,1,1,,,,,,,,,,,,,,,,repeat,number,numRpt,f,0.383,Hi,,,,,,4,,,,,,,,low,11,0,11,0,1,,,,,,,,,
292726,2022-09-30_12h03.29.035,vts_reward_expectancy,2022.2.4,Win32,165.0165017,Firefox,1920,1080,,,,,10,1035,,,,,,,,,,,,,,,,,132,U,star,1,0,,,,,,,,,,,,,,,,repeat,number,numRpt,d,0.303,Hi,,,,,,4,,,,,,,,low,12,0,12,0,1,,,,,,,,,
292726,2022-09-30_12h03.29.035,vts_reward_expectancy,2022.2.4,Win32,165.0165017,Firefox,1920,1080,,,,,1,1036,,,,,,,,,,,,,,,,,174,Y,hexagon,1,0,,,,,,,,,,,,,,,,repeat,number,numRpt,f,0.442,Lo,,,,,,4,,,,,,,,low,13,0,13,0,1,,,,,,,,,
292726,2022-09-30_12h03.29.035,vts_reward_expectancy,2022.2.4,Win32,165.0165017,Firefox,1920,1080,,,,,0,1036,,,,,,,,,,,,,,,,,181,D,star,0,0,,,,,,,,,,,,,,,,switch,letter,NA,k,0.345,Lo,,,,,,4,,,,,,,,low,14,0,14,0,1,,,,,,,,,
292726,2022-09-30_12h03.29.035,vts_reward_expectancy,2022.2.4,Win32,165.0165017,Firefox,1920,1080,,,,,1,1037,,,,,,,,,,,,,,,,,139,W,hexagon,1,1,,,,,,,,,,,,,,,,repeat,letter,lettRpt,k,0.431,Lo,,,,,,4,,,,,,,,low,15,0,15,0,1,,,,,,,,,
292726,2022-09-30_12h03.29.035,vts_reward_expectancy,2022.2.4,Win32,165.0165017,Firefox,1920,1080,,,,,1,1038,,,,,,,,,,,,,,,,,139,D,hexagon,1,0,,,,,,,,,,,,,,,,switch,number,numSwt,d,0.388,Lo,,,,,,4,,,,,,,,low,16,0,16,0,1,,,,,,,,,
292726,2022-09-30_12h03.29.035,vts_reward_expectancy,2022.2.4,Win32,165.0165017,Firefox,1920,1080,,,,,1,1039,,,,,,,,,,,,,,,,,125,B,star,1,0,,,,,,,,,,,,,,,,switch,letter,lettSwt,j,0.357,Hi,,,,,,4,,,,,,,,low,17,0,17,0,1,,,,,,,,,
292726,2022-09-30_12h03.29.035,vts_reward_expectancy,2022.2.4,Win32,165.0165017,Firefox,1920,1080,,,,,1,1040,,,,,,,,,,,,,,,,,146,Y,hexagon,1,0,,,,,,,,,,,,,,,,switch,number,numSwt,d,0.441,Lo,,,,,,4,,,,,,,,low,18,0,18,0,1,,,,,,,,,
292726,2022-09-30_12h03.29.035,vts_reward_expectancy,2022.2.4,Win32,165.0165017,Firefox,1920,1080,,,,,0,1040,,,,,,,,,,,,,,,,,167,H,star,1,0,,,,,,,,,,,,,,,,repeat,number,numRpt,f,0.406,Hi,,,,,,4,,,,,,,,low,19,0,19,0,1,,,,,,,,,
292726,2022-09-30_12h03.29.035,vts_reward_expectancy,2022.2.4,Win32,165.0165017,Firefox,1920,1080,,,,,0,1040,,,,,,,,,,,,,,,,,181,W,star,1,0,,,,,,,,,,,,,,,,repeat,number,numRpt,f,0.385,Hi,,,,,,4,,,,,,,,low,20,0,20,0,1,,,,,,,,,
292726,2022-09-30_12h03.29.035,vts_reward_expectancy,2022.2.4,Win32,165.0165017,Firefox,1920,1080,,,,,1,1041,,,,,,,,,,,,,,,,,132,S,hexagon,1,0,,,,,,,,,,,,,,,,switch,letter,lettSwt,k,0.411,Lo,,,,,,4,,,,,,,,low,21,0,21,0,1,,,,,,,,,
292726,2022-09-30_12h03.29.035,vts_reward_expectancy,2022.2.4,Win32,165.0165017,Firefox,1920,1080,,,,,1,1042,,,,,,,,,,,,,,,,,160,U,hexagon,1,0,,,,,,,,,,,,,,,,switch,number,numSwt,f,0.387,Lo,,,,,,4,,,,,,,,low,22,0,22,0,1,,,,,,,,,
292726,2022-09-30_12h03.29.035,vts_reward_expectancy,2022.2.4,Win32,165.0165017,Firefox,1920,1080,,,,,0,1042,,,,,,,,,,,,,,,,,174,F,star,0,0,,,,,,,,,,,,,,,,repeat,number,NA,d,0.46,Lo,,,,,,4,,,,,,,,low,23,0,23,0,1,,,,,,,,,
292726,2022-09-30_12h03.29.035,vts_reward_expectancy,2022.2.4,Win32,165.0165017,Firefox,1920,1080,,,,,10,1052,,,,,,,,,,,,,,,,,132,D,star,1,1,,,,,,,,,,,,,,,,repeat,number,numRpt,d,0.309,Hi,,,,,,4,,,,,,,,low,24,0,24,0,1,,,,,,,,,
292726,2022-09-30_12h03.29.035,vts_reward_expectancy,2022.2.4,Win32,165.0165017,Firefox,1920,1080,,,,,1,1053,,,,,,,,,,,,,,,,,160,U,hexagon,1,0,,,,,,,,,,,,,,,,switch,letter,lettSwt,k,0.395,Lo,,,,,,4,,,,,,,,low,25,0,25,0,1,,,,,,,,,
292726,2022-09-30_12h03.29.035,vts_reward_expectancy,2022.2.4,Win32,165.0165017,Firefox,1920,1080,,,,,10,1063,,,,,,,,,,,,,,,,,125,B,star,1,0,,,,,,,,,,,,,,,,switch,number,numSwt,d,0.325,Hi,,,,,,4,,,,,,,,low,26,0,26,0,1,,,,,,,,,
292726,2022-09-30_12h03.29.035,vts_reward_expectancy,2022.2.4,Win32,165.0165017,Firefox,1920,1080,,,,,1,1064,,,,,,,,,,,,,,,,,139,H,hexagon,1,0,,,,,,,,,,,,,,,,repeat,number,numRpt,d,0.393,Lo,,,,,,4,,,,,,,,low,27,0,27,0,1,,,,,,,,,
292726,2022-09-30_12h03.29.035,vts_reward_expectancy,2022.2.4,Win32,165.0165017,Firefox,1920,1080,,,,,0,1064,,,,,,,,,,,,,,,,,146,W,star,0,0,,,,,,,,,,,,,,,,repeat,number,NA,f,0.326,Lo,,,,,,4,,,,,,,,low,28,0,28,0,1,,,,,,,,,
292726,2022-09-30_12h03.29.035,vts_reward_expectancy,2022.2.4,Win32,165.0165017,Firefox,1920,1080,,,,,1,1065,,,,,,,,,,,,,,,,,167,Y,hexagon,1,1,,,,,,,,,,,,,,,,repeat,number,numRpt,f,0.387,Lo,,,,,,4,,,,,,,,low,29,0,29,0,1,,,,,,,,,
292726,2022-09-30_12h03.29.035,vts_reward_expectancy,2022.2.4,Win32,165.0165017,Firefox,1920,1080,,,,,10,1075,,,,,,,,,,,,,,,,,174,S,hexagon,1,0,,,,,,,,,,,,,,,,switch,letter,lettSwt,k,0.395,Lo,,,,,,4,,,,,,,,low,30,0,30,0,1,,,,,,,,,
292726,2022-09-30_12h03.29.035,vts_reward_expectancy,2022.2.4,Win32,165.0165017,Firefox,1920,1080,,,,,0,1075,,,,,,,,,,,,,,,,,181,F,star,0,0,,,,,,,,,,,,,,,,repeat,letter,NA,k,0.332,Lo,,,,,,4,,,,,,,,low,31,0,31,0,1,,,,,,,,,
292726,2022-09-30_12h03.29.035,vts_reward_expectancy,2022.2.4,Win32,165.0165017,Firefox,1920,1080,,,,,1,1076,,,,,,,,,,,,,,,,,125,Y,hexagon,1,1,,,,,,,,,,,,,,,,repeat,letter,lettRpt,k,0.465,Lo,,,,,,5,,,,,,space,0.75,low,0,0,0,0,1,,,,,,,,,
292726,2022-09-30_12h03.29.035,vts_reward_expectancy,2022.2.4,Win32,165.0165017,Firefox,1920,1080,,,,,0,1076,,,,,,,,,,,,,,,,,146,U,star,0,0,,,,,,,,,,,,,,,,switch,number,NA,f,0.431,Lo,,,,,,5,,,,,,,,low,1,0,1,0,1,,,,,,,,,
292726,2022-09-30_12h03.29.035,vts_reward_expectancy,2022.2.4,Win32,165.0165017,Firefox,1920,1080,,,,,1,1077,,,,,,,,,,,,,,,,,174,W,hexagon,1,1,,,,,,,,,,,,,,,,repeat,number,numRpt,f,0.507,Lo,,,,,,5,,,,,,,,low,2,0,2,0,1,,,,,,,,,
292726,2022-09-30_12h03.29.035,vts_reward_expectancy,2022.2.4,Win32,165.0165017,Firefox,1920,1080,,,,,0,1077,,,,,,,,,,,,,,,,,167,B,star,1,0,,,,,,,,,,,,,,,,switch,letter,lettSwt,j,0.405,Hi,,,,,,5,,,,,,,,low,3,0,3,0,1,,,,,,,,,
292726,2022-09-30_12h03.29.035,vts_reward_expectancy,2022.2.4,Win32,165.0165017,Firefox,1920,1080,,,,,0,1077,,,,,,,,,,,,,,,,,160,H,star,0,0,,,,,,,,,,,,,,,,repeat,letter,NA,k,0.412,Hi,,,,,,5,,,,,,,,low,4,0,4,0,1,,,,,,,,,
292726,2022-09-30_12h03.29.035,vts_reward_expectancy,2022.2.4,Win32,165.0165017,Firefox,1920,1080,,,,,0,1077,,,,,,,,,,,,,,,,,132,S,hexagon,0,1,,,,,,,,,,,,,,,,repeat,letter,NA,j,0.399,Hi,,,,,,5,,,,,,,,low,5,0,5,0,1,,,,,,,,,
292726,2022-09-30_12h03.29.035,vts_reward_expectancy,2022.2.4,Win32,165.0165017,Firefox,1920,1080,,,,,10,1087,,,,,,,,,,,,,,,,,181,F,star,1,1,,,,,,,,,,,,,,,,repeat,letter,lettRpt,j,0.358,Hi,,,,,,5,,,,,,,,low,6,0,6,0,1,,,,,,,,,
292726,2022-09-30_12h03.29.035,vts_reward_expectancy,2022.2.4,Win32,165.0165017,Firefox,1920,1080,,,,,0,1087,,,,,,,,,,,,,,,,,139,D,hexagon,0,0,,,,,,,,,,,,,,,,repeat,letter,NA,k,0.341,Hi,,,,,,5,,,,,,,,low,7,0,7,0,1,,,,,,,,,
292726,2022-09-30_12h03.29.035,vts_reward_expectancy,2022.2.4,Win32,165.0165017,Firefox,1920,1080,,,,,1,1088,,,,,,,,,,,,,,,,,125,Y,hexagon,1,1,,,,,,,,,,,,,,,,repeat,letter,lettRpt,k,0.399,Lo,,,,,,5,,,,,,,,low,8,0,8,0,1,,,,,,,,,
292726,2022-09-30_12h03.29.035,vts_reward_expectancy,2022.2.4,Win32,165.0165017,Firefox,1920,1080,,,,,0,1088,,,,,,,,,,,,,,,,,146,U,star,1,0,,,,,,,,,,,,,,,,switch,number,numSwt,d,0.399,Hi,,,,,,5,,,,,,,,low,9,0,9,0,1,,,,,,,,,
292726,2022-09-30_12h03.29.035,vts_reward_expectancy,2022.2.4,Win32,165.0165017,Firefox,1920,1080,,,,,10,1098,,,,,,,,,,,,,,,,,174,W,hexagon,1,0,,,,,,,,,,,,,,,,repeat,number,numRpt,f,0.401,Lo,,,,,,5,,,,,,,,low,10,0,10,0,1,,,,,,,,,
292726,2022-09-30_12h03.29.035,vts_reward_expectancy,2022.2.4,Win32,165.0165017,Firefox,1920,1080,,,,,10,1108,,,,,,,,,,,,,,,,,167,B,star,1,0,,,,,,,,,,,,,,,,repeat,number,numRpt,f,0.335,Hi,,,,,,5,,,,,,,,low,11,0,11,0,1,,,,,,,,,
292726,2022-09-30_12h03.29.035,vts_reward_expectancy,2022.2.4,Win32,165.0165017,Firefox,1920,1080,,,,,10,1118,,,,,,,,,,,,,,,,,160,H,star,1,0,,,,,,,,,,,,,,,,repeat,number,numRpt,f,0.362,Hi,,,,,,5,,,,,,,,low,12,0,12,0,1,,,,,,,,,
292726,2022-09-30_12h03.29.035,vts_reward_expectancy,2022.2.4,Win32,165.0165017,Firefox,1920,1080,,,,,1,1119,,,,,,,,,,,,,,,,,132,S,hexagon,1,0,,,,,,,,,,,,,,,,repeat,number,numRpt,d,0.462,Lo,,,,,,5,,,,,,,,low,13,0,13,0,1,,,,,,,,,
292726,2022-09-30_12h03.29.035,vts_reward_expectancy,2022.2.4,Win32,165.0165017,Firefox,1920,1080,,,,,1,1120,,,,,,,,,,,,,,,,,181,F,hexagon,1,0,,,,,,,,,,,,,,,,switch,letter,lettSwt,j,0.412,Lo,,,,,,5,,,,,,,,low,14,0,14,0,1,,,,,,,,,
292726,2022-09-30_12h03.29.035,vts_reward_expectancy,2022.2.4,Win32,165.0165017,Firefox,1920,1080,,,,,0,1120,,,,,,,,,,,,,,,,,139,D,star,1,0,,,,,,,,,,,,,,,,switch,number,numSwt,d,0.389,Hi,,,,,,5,,,,,,,,low,15,0,15,0,1,,,,,,,,,
292726,2022-09-30_12h03.29.035,vts_reward_expectancy,2022.2.4,Win32,165.0165017,Firefox,1920,1080,,,,,1,1121,,,,,,,,,,,,,,,,,125,W,hexagon,1,0,,,,,,,,,,,,,,,,repeat,number,numRpt,d,0.455,Lo,,,,,,5,,,,,,,,low,16,0,16,0,1,,,,,,,,,
292726,2022-09-30_12h03.29.035,vts_reward_expectancy,2022.2.4,Win32,165.0165017,Firefox,1920,1080,,,,,1,1122,,,,,,,,,,,,,,,,,132,B,star,1,0,,,,,,,,,,,,,,,,switch,letter,lettSwt,j,0.35,Hi,,,,,,5,,,,,,,,low,17,0,17,0,1,,,,,,,,,
292726,2022-09-30_12h03.29.035,vts_reward_expectancy,2022.2.4,Win32,165.0165017,Firefox,1920,1080,,,,,1,1123,,,,,,,,,,,,,,,,,139,Y,star,1,0,,,,,,,,,,,,,,,,repeat,letter,lettRpt,k,0.32,Hi,,,,,,5,,,,,,,,low,18,0,18,0,1,,,,,,,,,
292726,2022-09-30_12h03.29.035,vts_reward_expectancy,2022.2.4,Win32,165.0165017,Firefox,1920,1080,,,,,1,1124,,,,,,,,,,,,,,,,,167,H,hexagon,1,0,,,,,,,,,,,,,,,,switch,number,numSwt,f,0.437,Lo,,,,,,5,,,,,,,,low,19,0,19,0,1,,,,,,,,,
292726,2022-09-30_12h03.29.035,vts_reward_expectancy,2022.2.4,Win32,165.0165017,Firefox,1920,1080,,,,,1,1125,,,,,,,,,,,,,,,,,181,F,hexagon,1,0,,,,,,,,,,,,,,,,switch,letter,lettSwt,j,0.532,Lo,,,,,,5,,,,,,,,low,20,0,20,0,1,,,,,,,,,
292726,2022-09-30_12h03.29.035,vts_reward_expectancy,2022.2.4,Win32,165.0165017,Firefox,1920,1080,,,,,0,1125,,,,,,,,,,,,,,,,,146,U,star,1,0,,,,,,,,,,,,,,,,switch,number,numSwt,d,0.408,Hi,,,,,,5,,,,,,,,low,21,0,21,0,1,,,,,,,,,
292726,2022-09-30_12h03.29.035,vts_reward_expectancy,2022.2.4,Win32,165.0165017,Firefox,1920,1080,,,,,10,1135,,,,,,,,,,,,,,,,,160,S,star,1,0,,,,,,,,,,,,,,,,repeat,number,numRpt,f,0.356,Hi,,,,,,5,,,,,,,,low,22,0,22,0,1,,,,,,,,,
292726,2022-09-30_12h03.29.035,vts_reward_expectancy,2022.2.4,Win32,165.0165017,Firefox,1920,1080,,,,,0,1135,,,,,,,,,,,,,,,,,174,D,hexagon,0,0,,,,,,,,,,,,,,,,repeat,number,NA,d,0.29,Hi,,,,,,5,,,,,,,,low,23,0,23,0,1,,,,,,,,,
292726,2022-09-30_12h03.29.035,vts_reward_expectancy,2022.2.4,Win32,165.0165017,Firefox,1920,1080,,,,,1,1136,,,,,,,,,,,,,,,,,174,D,star,1,1,,,,,,,,,,,,,,,,repeat,number,numRpt,f,0.349,Hi,,,,,,5,,,,,,,,low,24,0,24,0,1,,,,,,,,,
292726,2022-09-30_12h03.29.035,vts_reward_expectancy,2022.2.4,Win32,165.0165017,Firefox,1920,1080,,,,,10,1146,,,,,,,,,,,,,,,,,125,F,hexagon,1,0,,,,,,,,,,,,,,,,switch,letter,lettSwt,j,0.382,Lo,,,,,,5,,,,,,,,low,25,0,25,0,1,,,,,,,,,
292726,2022-09-30_12h03.29.035,vts_reward_expectancy,2022.2.4,Win32,165.0165017,Firefox,1920,1080,,,,,1,1147,,,,,,,,,,,,,,,,,139,U,hexagon,1,0,,,,,,,,,,,,,,,,repeat,letter,lettRpt,k,0.429,Lo,,,,,,5,,,,,,,,low,26,0,26,0,1,,,,,,,,,
292726,2022-09-30_12h03.29.035,vts_reward_expectancy,2022.2.4,Win32,165.0165017,Firefox,1920,1080,,,,,0,1147,,,,,,,,,,,,,,,,,146,S,star,1,0,,,,,,,,,,,,,,,,switch,number,numSwt,d,0.406,Hi,,,,,,5,,,,,,,,low,27,0,27,0,1,,,,,,,,,
292726,2022-09-30_12h03.29.035,vts_reward_expectancy,2022.2.4,Win32,165.0165017,Firefox,1920,1080,,,,,0,1147,,,,,,,,,,,,,,,,,160,B,star,0,0,,,,,,,,,,,,,,,,repeat,number,NA,d,0.332,Hi,,,,,,5,,,,,,,,low,28,0,28,0,1,,,,,,,,,
292726,2022-09-30_12h03.29.035,vts_reward_expectancy,2022.2.4,Win32,165.0165017,Firefox,1920,1080,,,,,1,1148,,,,,,,,,,,,,,,,,167,Y,hexagon,1,1,,,,,,,,,,,,,,,,repeat,number,numRpt,f,0.405,Lo,,,,,,5,,,,,,,,low,29,0,29,0,1,,,,,,,,,
292726,2022-09-30_12h03.29.035,vts_reward_expectancy,2022.2.4,Win32,165.0165017,Firefox,1920,1080,,,,,10,1158,,,,,,,,,,,,,,,,,181,H,hexagon,1,0,,,,,,,,,,,,,,,,switch,letter,lettSwt,j,0.381,Lo,,,,,,5,,,,,,,,low,30,0,30,0,1,,,,,,,,,
292726,2022-09-30_12h03.29.035,vts_reward_expectancy,2022.2.4,Win32,165.0165017,Firefox,1920,1080,,,,,0,1158,,,,,,,,,,,,,,,,,132,W,star,1,0,,,,,,,,,,,,,,,,switch,number,numSwt,d,0.443,Hi,,,,,,5,,,,,,,,low,31,0,31,0,1,,,,,,,,,
292726,2022-09-30_12h03.29.035,vts_reward_expectancy,2022.2.4,Win32,165.0165017,Firefox,1920,1080,,,,,,,,,,,,,,,,,,,,,,,,,,,,,,,,,,,,,,,,,,,,,,,,,,,,,,6,,,,,,,,,,,,,,Click keys based on the number or letter on the screen,1,,4,2,1,I think I figured out how it worked right on the last shape lol,1920,1080
