participant,date,expName,psychopyVersion,OS,frameRate,browser,xResolution,yResolution,key_resp.keys,key_resp.rt,training_resp.keys,training_resp.rt,points_trial,points_cumul,trainBlock,training.thisRepN,training.thisTrialN,training.thisN,training.thisIndex,training.ran,LTriangleOpac,LCircleOpac,LHexagonOpac,LStarOpac,RTriangleOpac,RCircleOpac,RHexagonOpac,RStarOpac,LShape_ID,RShape_ID,curr_topStim,curr_bottStim,curr_shape,acc,E1,target_resp_prac1.keys,target_resp_prac1.rt,pracBlock,task1_prac_trials.thisRepN,task1_prac_trials.thisTrialN,task1_prac_trials.thisN,task1_prac_trials.thisIndex,task1_prac_trials.ran,target_resp_prac2.keys,target_resp_prac2.rt,task2_praac_trials.thisRepN,task2_praac_trials.thisTrialN,task2_praac_trials.thisN,task2_praac_trials.thisIndex,task2_praac_trials.ran,alt,task,condition,target_resp.keys,target_resp.rt,rewCond,vts_practice_trials.thisRepN,vts_practice_trials.thisTrialN,vts_practice_trials.thisN,vts_practice_trials.thisIndex,vts_practice_trials.ran,blockNum,trials_norew.thisRepN,trials_norew.thisTrialN,trials_norew.thisN,trials_norew.thisIndex,trials_norew.ran,key_resp_2.keys,key_resp_2.rt,rewExpect,trials_rew.thisRepN,trials_rew.thisTrialN,trials_rew.thisN,trials_rew.thisIndex,trials_rew.ran,Q1,Q2,Q2_text,Q3,Q4,Q5_text,Q5,xRes,yRes
292792,2022-10-04_15h01.05.621,vts_reward_expectancy,2022.2.4,MacIntel,60.0024001,Chrome,1553,971,,,,,,,,,,,,,,,,,,,,,,,,,,,,,,,,,,,,,,,,,,,,,,,,,,,,,,,,,,,,,,,,,,,,,,,,,,,,
292792,2022-10-04_15h01.05.621,vts_reward_expectancy,2022.2.4,MacIntel,60.0024001,Chrome,1553,971,space,16.3447,,,,,,,,,,,,,,,,,,,,,,,,,,,,,,,,,,,,,,,,,,,,,,,,,,,,,,,,,,,,,,,,,,,,,,,,,,
292792,2022-10-04_15h01.05.621,vts_reward_expectancy,2022.2.4,MacIntel,60.0024001,Chrome,1553,971,,,,,,,,,,,,,,,,,,,,,,,,,,,,,,,,,,,,,,,,,,,,,,,,,,,,,,,,,,,,,,,,,,,,,,,,,,,,
292792,2022-10-04_15h01.05.621,vts_reward_expectancy,2022.2.4,MacIntel,60.0024001,Chrome,1553,971,,,l,1.06,1,1,0,0,0,0,5,1,0,1,0,0,0,0,0,1,circle,star,,,,,,,,,,,,,,,,,,,,,,,,,,,,,,,,,,,,,,,,,,,,,,,,,,,,,,
292792,2022-10-04_15h01.05.621,vts_reward_expectancy,2022.2.4,MacIntel,60.0024001,Chrome,1553,971,,,a,0.8492,10,11,0,0,1,1,3,1,0,1,0,0,1,0,0,0,circle,triangle,,,,,,,,,,,,,,,,,,,,,,,,,,,,,,,,,,,,,,,,,,,,,,,,,,,,,,
292792,2022-10-04_15h01.05.621,vts_reward_expectancy,2022.2.4,MacIntel,60.0024001,Chrome,1553,971,,,a,1.4333,1,12,0,0,2,2,2,1,1,0,0,0,0,0,0,1,triangle,star,,,,,,,,,,,,,,,,,,,,,,,,,,,,,,,,,,,,,,,,,,,,,,,,,,,,,,
292792,2022-10-04_15h01.05.621,vts_reward_expectancy,2022.2.4,MacIntel,60.0024001,Chrome,1553,971,,,a,0.6656,10,22,0,0,3,3,4,1,0,1,0,0,0,0,1,0,circle,hexagon,,,,,,,,,,,,,,,,,,,,,,,,,,,,,,,,,,,,,,,,,,,,,,,,,,,,,,
292792,2022-10-04_15h01.05.621,vts_reward_expectancy,2022.2.4,MacIntel,60.0024001,Chrome,1553,971,,,l,0.9708,1,23,0,0,4,4,7,1,0,0,1,0,0,1,0,0,hexagon,circle,,,,,,,,,,,,,,,,,,,,,,,,,,,,,,,,,,,,,,,,,,,,,,,,,,,,,,
292792,2022-10-04_15h01.05.621,vts_reward_expectancy,2022.2.4,MacIntel,60.0024001,Chrome,1553,971,,,a,1.2727,10,33,0,0,5,5,8,1,0,0,1,0,0,0,0,1,hexagon,star,,,,,,,,,,,,,,,,,,,,,,,,,,,,,,,,,,,,,,,,,,,,,,,,,,,,,,
292792,2022-10-04_15h01.05.621,vts_reward_expectancy,2022.2.4,MacIntel,60.0024001,Chrome,1553,971,,,l,1.4499,10,43,0,0,6,6,10,1,0,0,0,1,0,1,0,0,star ,circle,,,,,,,,,,,,,,,,,,,,,,,,,,,,,,,,,,,,,,,,,,,,,,,,,,,,,,
292792,2022-10-04_15h01.05.621,vts_reward_expectancy,2022.2.4,MacIntel,60.0024001,Chrome,1553,971,,,l,0.9165,1,44,0,0,7,7,0,1,1,0,0,0,0,1,0,0,triangle,circle,,,,,,,,,,,,,,,,,,,,,,,,,,,,,,,,,,,,,,,,,,,,,,,,,,,,,,
292792,2022-10-04_15h01.05.621,vts_reward_expectancy,2022.2.4,MacIntel,60.0024001,Chrome,1553,971,,,a,0.8379,1,45,0,0,8,8,6,1,0,0,1,0,1,0,0,0,hexagon,triangle,,,,,,,,,,,,,,,,,,,,,,,,,,,,,,,,,,,,,,,,,,,,,,,,,,,,,,
292792,2022-10-04_15h01.05.621,vts_reward_expectancy,2022.2.4,MacIntel,60.0024001,Chrome,1553,971,,,l,0.7838,10,55,0,0,9,9,11,1,0,0,0,1,0,0,1,0,star,hexagon,,,,,,,,,,,,,,,,,,,,,,,,,,,,,,,,,,,,,,,,,,,,,,,,,,,,,,
292792,2022-10-04_15h01.05.621,vts_reward_expectancy,2022.2.4,MacIntel,60.0024001,Chrome,1553,971,,,l,1.1667,1,56,0,0,10,10,9,1,0,0,0,1,1,0,0,0,star,triangle,,,,,,,,,,,,,,,,,,,,,,,,,,,,,,,,,,,,,,,,,,,,,,,,,,,,,,
292792,2022-10-04_15h01.05.621,vts_reward_expectancy,2022.2.4,MacIntel,60.0024001,Chrome,1553,971,,,a,1.5052,1,57,0,0,11,11,1,1,1,0,0,0,0,0,1,0,triangle,hexagon,,,,,,,,,,,,,,,,,,,,,,,,,,,,,,,,,,,,,,,,,,,,,,,,,,,,,,
292792,2022-10-04_15h01.05.621,vts_reward_expectancy,2022.2.4,MacIntel,60.0024001,Chrome,1553,971,,,a,1.5334,1,58,0,1,0,12,0,1,1,0,0,0,0,1,0,0,triangle,circle,,,,,,,,,,,,,,,,,,,,,,,,,,,,,,,,,,,,,,,,,,,,,,,,,,,,,,
292792,2022-10-04_15h01.05.621,vts_reward_expectancy,2022.2.4,MacIntel,60.0024001,Chrome,1553,971,,,a,0.7656,10,68,0,1,1,13,4,1,0,1,0,0,0,0,1,0,circle,hexagon,,,,,,,,,,,,,,,,,,,,,,,,,,,,,,,,,,,,,,,,,,,,,,,,,,,,,,
292792,2022-10-04_15h01.05.621,vts_reward_expectancy,2022.2.4,MacIntel,60.0024001,Chrome,1553,971,,,l,1.2514,1,69,0,1,2,14,6,1,0,0,1,0,1,0,0,0,hexagon,triangle,,,,,,,,,,,,,,,,,,,,,,,,,,,,,,,,,,,,,,,,,,,,,,,,,,,,,,
292792,2022-10-04_15h01.05.621,vts_reward_expectancy,2022.2.4,MacIntel,60.0024001,Chrome,1553,971,,,a,0.7993,10,79,0,1,3,15,8,1,0,0,1,0,0,0,0,1,hexagon,star,,,,,,,,,,,,,,,,,,,,,,,,,,,,,,,,,,,,,,,,,,,,,,,,,,,,,,
292792,2022-10-04_15h01.05.621,vts_reward_expectancy,2022.2.4,MacIntel,60.0024001,Chrome,1553,971,,,l,1.4171,1,80,0,1,4,16,10,1,0,0,0,1,0,1,0,0,star ,circle,,,,,,,,,,,,,,,,,,,,,,,,,,,,,,,,,,,,,,,,,,,,,,,,,,,,,,
292792,2022-10-04_15h01.05.621,vts_reward_expectancy,2022.2.4,MacIntel,60.0024001,Chrome,1553,971,,,a,0.9492,1,81,0,1,5,17,9,1,0,0,0,1,1,0,0,0,star,triangle,,,,,,,,,,,,,,,,,,,,,,,,,,,,,,,,,,,,,,,,,,,,,,,,,,,,,,
292792,2022-10-04_15h01.05.621,vts_reward_expectancy,2022.2.4,MacIntel,60.0024001,Chrome,1553,971,,,a,1.4338,1,82,0,1,6,18,11,1,0,0,0,1,0,0,1,0,star,hexagon,,,,,,,,,,,,,,,,,,,,,,,,,,,,,,,,,,,,,,,,,,,,,,,,,,,,,,
292792,2022-10-04_15h01.05.621,vts_reward_expectancy,2022.2.4,MacIntel,60.0024001,Chrome,1553,971,,,a,0.7337,1,83,0,1,7,19,3,1,0,1,0,0,1,0,0,0,circle,triangle,,,,,,,,,,,,,,,,,,,,,,,,,,,,,,,,,,,,,,,,,,,,,,,,,,,,,,
292792,2022-10-04_15h01.05.621,vts_reward_expectancy,2022.2.4,MacIntel,60.0024001,Chrome,1553,971,,,a,2.2996,1,84,0,1,8,20,1,1,1,0,0,0,0,0,1,0,triangle,hexagon,,,,,,,,,,,,,,,,,,,,,,,,,,,,,,,,,,,,,,,,,,,,,,,,,,,,,,
292792,2022-10-04_15h01.05.621,vts_reward_expectancy,2022.2.4,MacIntel,60.0024001,Chrome,1553,971,,,a,0.6674,1,85,0,1,9,21,5,1,0,1,0,0,0,0,0,1,circle,star,,,,,,,,,,,,,,,,,,,,,,,,,,,,,,,,,,,,,,,,,,,,,,,,,,,,,,
292792,2022-10-04_15h01.05.621,vts_reward_expectancy,2022.2.4,MacIntel,60.0024001,Chrome,1553,971,,,l,1.2156,10,95,0,1,10,22,7,1,0,0,1,0,0,1,0,0,hexagon,circle,,,,,,,,,,,,,,,,,,,,,,,,,,,,,,,,,,,,,,,,,,,,,,,,,,,,,,
292792,2022-10-04_15h01.05.621,vts_reward_expectancy,2022.2.4,MacIntel,60.0024001,Chrome,1553,971,,,a,0.8661,10,105,0,1,11,23,2,1,1,0,0,0,0,0,0,1,triangle,star,,,,,,,,,,,,,,,,,,,,,,,,,,,,,,,,,,,,,,,,,,,,,,,,,,,,,,
292792,2022-10-04_15h01.05.621,vts_reward_expectancy,2022.2.4,MacIntel,60.0024001,Chrome,1553,971,,,l,0.7836,1,106,0,2,0,24,10,1,0,0,0,1,0,1,0,0,star ,circle,,,,,,,,,,,,,,,,,,,,,,,,,,,,,,,,,,,,,,,,,,,,,,,,,,,,,,
292792,2022-10-04_15h01.05.621,vts_reward_expectancy,2022.2.4,MacIntel,60.0024001,Chrome,1553,971,,,a,1.6003,10,116,0,2,1,25,6,1,0,0,1,0,1,0,0,0,hexagon,triangle,,,,,,,,,,,,,,,,,,,,,,,,,,,,,,,,,,,,,,,,,,,,,,,,,,,,,,
292792,2022-10-04_15h01.05.621,vts_reward_expectancy,2022.2.4,MacIntel,60.0024001,Chrome,1553,971,,,l,1.2167,10,126,0,2,2,26,7,1,0,0,1,0,0,1,0,0,hexagon,circle,,,,,,,,,,,,,,,,,,,,,,,,,,,,,,,,,,,,,,,,,,,,,,,,,,,,,,
292792,2022-10-04_15h01.05.621,vts_reward_expectancy,2022.2.4,MacIntel,60.0024001,Chrome,1553,971,,,l,1.3497,10,136,0,2,3,27,1,1,1,0,0,0,0,0,1,0,triangle,hexagon,,,,,,,,,,,,,,,,,,,,,,,,,,,,,,,,,,,,,,,,,,,,,,,,,,,,,,
292792,2022-10-04_15h01.05.621,vts_reward_expectancy,2022.2.4,MacIntel,60.0024001,Chrome,1553,971,,,a,1.2162,1,137,0,2,4,28,4,1,0,1,0,0,0,0,1,0,circle,hexagon,,,,,,,,,,,,,,,,,,,,,,,,,,,,,,,,,,,,,,,,,,,,,,,,,,,,,,
292792,2022-10-04_15h01.05.621,vts_reward_expectancy,2022.2.4,MacIntel,60.0024001,Chrome,1553,971,,,l,1.1492,10,147,0,2,5,29,11,1,0,0,0,1,0,0,1,0,star,hexagon,,,,,,,,,,,,,,,,,,,,,,,,,,,,,,,,,,,,,,,,,,,,,,,,,,,,,,
292792,2022-10-04_15h01.05.621,vts_reward_expectancy,2022.2.4,MacIntel,60.0024001,Chrome,1553,971,,,a,0.9203,10,157,0,2,6,30,3,1,0,1,0,0,1,0,0,0,circle,triangle,,,,,,,,,,,,,,,,,,,,,,,,,,,,,,,,,,,,,,,,,,,,,,,,,,,,,,
292792,2022-10-04_15h01.05.621,vts_reward_expectancy,2022.2.4,MacIntel,60.0024001,Chrome,1553,971,,,l,1.099,1,158,0,2,7,31,9,1,0,0,0,1,1,0,0,0,star,triangle,,,,,,,,,,,,,,,,,,,,,,,,,,,,,,,,,,,,,,,,,,,,,,,,,,,,,,
292792,2022-10-04_15h01.05.621,vts_reward_expectancy,2022.2.4,MacIntel,60.0024001,Chrome,1553,971,,,a,1.1385,10,168,0,2,8,32,8,1,0,0,1,0,0,0,0,1,hexagon,star,,,,,,,,,,,,,,,,,,,,,,,,,,,,,,,,,,,,,,,,,,,,,,,,,,,,,,
292792,2022-10-04_15h01.05.621,vts_reward_expectancy,2022.2.4,MacIntel,60.0024001,Chrome,1553,971,,,a,0.6295,10,178,0,2,9,33,5,1,0,1,0,0,0,0,0,1,circle,star,,,,,,,,,,,,,,,,,,,,,,,,,,,,,,,,,,,,,,,,,,,,,,,,,,,,,,
292792,2022-10-04_15h01.05.621,vts_reward_expectancy,2022.2.4,MacIntel,60.0024001,Chrome,1553,971,,,a,1.4998,1,179,0,2,10,34,2,1,1,0,0,0,0,0,0,1,triangle,star,,,,,,,,,,,,,,,,,,,,,,,,,,,,,,,,,,,,,,,,,,,,,,,,,,,,,,
292792,2022-10-04_15h01.05.621,vts_reward_expectancy,2022.2.4,MacIntel,60.0024001,Chrome,1553,971,,,a,2.0323,1,180,0,2,11,35,0,1,1,0,0,0,0,1,0,0,triangle,circle,,,,,,,,,,,,,,,,,,,,,,,,,,,,,,,,,,,,,,,,,,,,,,,,,,,,,,
292792,2022-10-04_15h01.05.621,vts_reward_expectancy,2022.2.4,MacIntel,60.0024001,Chrome,1553,971,,,a,0.6672,1,181,1,0,0,0,4,1,0,1,0,0,0,0,1,0,circle,hexagon,,,,,,,,,,,,,,,,,,,,,,,,,,,,,,,,,,,,,,,,,,,,,,,,,,,,,,
292792,2022-10-04_15h01.05.621,vts_reward_expectancy,2022.2.4,MacIntel,60.0024001,Chrome,1553,971,,,l,0.8673,10,191,1,0,1,1,11,1,0,0,0,1,0,0,1,0,star,hexagon,,,,,,,,,,,,,,,,,,,,,,,,,,,,,,,,,,,,,,,,,,,,,,,,,,,,,,
292792,2022-10-04_15h01.05.621,vts_reward_expectancy,2022.2.4,MacIntel,60.0024001,Chrome,1553,971,,,a,0.7217,10,201,1,0,2,2,3,1,0,1,0,0,1,0,0,0,circle,triangle,,,,,,,,,,,,,,,,,,,,,,,,,,,,,,,,,,,,,,,,,,,,,,,,,,,,,,
292792,2022-10-04_15h01.05.621,vts_reward_expectancy,2022.2.4,MacIntel,60.0024001,Chrome,1553,971,,,a,1.5826,1,202,1,0,3,3,7,1,0,0,1,0,0,1,0,0,hexagon,circle,,,,,,,,,,,,,,,,,,,,,,,,,,,,,,,,,,,,,,,,,,,,,,,,,,,,,,
292792,2022-10-04_15h01.05.621,vts_reward_expectancy,2022.2.4,MacIntel,60.0024001,Chrome,1553,971,,,a,1.3505,10,212,1,0,4,4,8,1,0,0,1,0,0,0,0,1,hexagon,star,,,,,,,,,,,,,,,,,,,,,,,,,,,,,,,,,,,,,,,,,,,,,,,,,,,,,,
292792,2022-10-04_15h01.05.621,vts_reward_expectancy,2022.2.4,MacIntel,60.0024001,Chrome,1553,971,,,a,1.5182,10,222,1,0,5,5,1,1,1,0,0,0,0,0,1,0,triangle,hexagon,,,,,,,,,,,,,,,,,,,,,,,,,,,,,,,,,,,,,,,,,,,,,,,,,,,,,,
292792,2022-10-04_15h01.05.621,vts_reward_expectancy,2022.2.4,MacIntel,60.0024001,Chrome,1553,971,,,l,0.769,1,223,1,0,6,6,10,1,0,0,0,1,0,1,0,0,star ,circle,,,,,,,,,,,,,,,,,,,,,,,,,,,,,,,,,,,,,,,,,,,,,,,,,,,,,,
292792,2022-10-04_15h01.05.621,vts_reward_expectancy,2022.2.4,MacIntel,60.0024001,Chrome,1553,971,,,l,1.8,1,224,1,0,7,7,6,1,0,0,1,0,1,0,0,0,hexagon,triangle,,,,,,,,,,,,,,,,,,,,,,,,,,,,,,,,,,,,,,,,,,,,,,,,,,,,,,
292792,2022-10-04_15h01.05.621,vts_reward_expectancy,2022.2.4,MacIntel,60.0024001,Chrome,1553,971,,,a,0.9847,10,234,1,0,8,8,9,1,0,0,0,1,1,0,0,0,star,triangle,,,,,,,,,,,,,,,,,,,,,,,,,,,,,,,,,,,,,,,,,,,,,,,,,,,,,,
292792,2022-10-04_15h01.05.621,vts_reward_expectancy,2022.2.4,MacIntel,60.0024001,Chrome,1553,971,,,a,1.1145,1,235,1,0,9,9,0,1,1,0,0,0,0,1,0,0,triangle,circle,,,,,,,,,,,,,,,,,,,,,,,,,,,,,,,,,,,,,,,,,,,,,,,,,,,,,,
292792,2022-10-04_15h01.05.621,vts_reward_expectancy,2022.2.4,MacIntel,60.0024001,Chrome,1553,971,,,a,1.95,10,245,1,0,10,10,2,1,1,0,0,0,0,0,0,1,triangle,star,,,,,,,,,,,,,,,,,,,,,,,,,,,,,,,,,,,,,,,,,,,,,,,,,,,,,,
292792,2022-10-04_15h01.05.621,vts_reward_expectancy,2022.2.4,MacIntel,60.0024001,Chrome,1553,971,,,a,1.0334,10,255,1,0,11,11,5,1,0,1,0,0,0,0,0,1,circle,star,,,,,,,,,,,,,,,,,,,,,,,,,,,,,,,,,,,,,,,,,,,,,,,,,,,,,,
292792,2022-10-04_15h01.05.621,vts_reward_expectancy,2022.2.4,MacIntel,60.0024001,Chrome,1553,971,,,a,1.005,1,256,1,1,0,12,5,1,0,1,0,0,0,0,0,1,circle,star,,,,,,,,,,,,,,,,,,,,,,,,,,,,,,,,,,,,,,,,,,,,,,,,,,,,,,
292792,2022-10-04_15h01.05.621,vts_reward_expectancy,2022.2.4,MacIntel,60.0024001,Chrome,1553,971,,,a,1.3507,1,257,1,1,1,13,4,1,0,1,0,0,0,0,1,0,circle,hexagon,,,,,,,,,,,,,,,,,,,,,,,,,,,,,,,,,,,,,,,,,,,,,,,,,,,,,,
292792,2022-10-04_15h01.05.621,vts_reward_expectancy,2022.2.4,MacIntel,60.0024001,Chrome,1553,971,,,a,1.4866,10,267,1,1,2,14,8,1,0,0,1,0,0,0,0,1,hexagon,star,,,,,,,,,,,,,,,,,,,,,,,,,,,,,,,,,,,,,,,,,,,,,,,,,,,,,,
292792,2022-10-04_15h01.05.621,vts_reward_expectancy,2022.2.4,MacIntel,60.0024001,Chrome,1553,971,,,l,1.0497,10,277,1,1,3,15,10,1,0,0,0,1,0,1,0,0,star ,circle,,,,,,,,,,,,,,,,,,,,,,,,,,,,,,,,,,,,,,,,,,,,,,,,,,,,,,
292792,2022-10-04_15h01.05.621,vts_reward_expectancy,2022.2.4,MacIntel,60.0024001,Chrome,1553,971,,,a,1.5996,1,278,1,1,4,16,0,1,1,0,0,0,0,1,0,0,triangle,circle,,,,,,,,,,,,,,,,,,,,,,,,,,,,,,,,,,,,,,,,,,,,,,,,,,,,,,
292792,2022-10-04_15h01.05.621,vts_reward_expectancy,2022.2.4,MacIntel,60.0024001,Chrome,1553,971,,,a,1.9329,1,279,1,1,5,17,1,1,1,0,0,0,0,0,1,0,triangle,hexagon,,,,,,,,,,,,,,,,,,,,,,,,,,,,,,,,,,,,,,,,,,,,,,,,,,,,,,
292792,2022-10-04_15h01.05.621,vts_reward_expectancy,2022.2.4,MacIntel,60.0024001,Chrome,1553,971,,,l,1.8835,10,289,1,1,6,18,11,1,0,0,0,1,0,0,1,0,star,hexagon,,,,,,,,,,,,,,,,,,,,,,,,,,,,,,,,,,,,,,,,,,,,,,,,,,,,,,
292792,2022-10-04_15h01.05.621,vts_reward_expectancy,2022.2.4,MacIntel,60.0024001,Chrome,1553,971,,,a,0.8182,1,290,1,1,7,19,3,1,0,1,0,0,1,0,0,0,circle,triangle,,,,,,,,,,,,,,,,,,,,,,,,,,,,,,,,,,,,,,,,,,,,,,,,,,,,,,
292792,2022-10-04_15h01.05.621,vts_reward_expectancy,2022.2.4,MacIntel,60.0024001,Chrome,1553,971,,,a,1.6048,1,291,1,1,8,20,9,1,0,0,0,1,1,0,0,0,star,triangle,,,,,,,,,,,,,,,,,,,,,,,,,,,,,,,,,,,,,,,,,,,,,,,,,,,,,,
292792,2022-10-04_15h01.05.621,vts_reward_expectancy,2022.2.4,MacIntel,60.0024001,Chrome,1553,971,,,a,3.066,10,301,1,1,9,21,6,1,0,0,1,0,1,0,0,0,hexagon,triangle,,,,,,,,,,,,,,,,,,,,,,,,,,,,,,,,,,,,,,,,,,,,,,,,,,,,,,
292792,2022-10-04_15h01.05.621,vts_reward_expectancy,2022.2.4,MacIntel,60.0024001,Chrome,1553,971,,,l,1.8497,10,311,1,1,10,22,7,1,0,0,1,0,0,1,0,0,hexagon,circle,,,,,,,,,,,,,,,,,,,,,,,,,,,,,,,,,,,,,,,,,,,,,,,,,,,,,,
292792,2022-10-04_15h01.05.621,vts_reward_expectancy,2022.2.4,MacIntel,60.0024001,Chrome,1553,971,,,a,1.0159,10,321,1,1,11,23,2,1,1,0,0,0,0,0,0,1,triangle,star,,,,,,,,,,,,,,,,,,,,,,,,,,,,,,,,,,,,,,,,,,,,,,,,,,,,,,
292792,2022-10-04_15h01.05.621,vts_reward_expectancy,2022.2.4,MacIntel,60.0024001,Chrome,1553,971,,,l,1.3334,10,331,1,2,0,24,1,1,1,0,0,0,0,0,1,0,triangle,hexagon,,,,,,,,,,,,,,,,,,,,,,,,,,,,,,,,,,,,,,,,,,,,,,,,,,,,,,
292792,2022-10-04_15h01.05.621,vts_reward_expectancy,2022.2.4,MacIntel,60.0024001,Chrome,1553,971,,,l,1.7166,10,341,1,2,1,25,0,1,1,0,0,0,0,1,0,0,triangle,circle,,,,,,,,,,,,,,,,,,,,,,,,,,,,,,,,,,,,,,,,,,,,,,,,,,,,,,
292792,2022-10-04_15h01.05.621,vts_reward_expectancy,2022.2.4,MacIntel,60.0024001,Chrome,1553,971,,,a,1.2877,10,351,1,2,2,26,10,1,0,0,0,1,0,1,0,0,star ,circle,,,,,,,,,,,,,,,,,,,,,,,,,,,,,,,,,,,,,,,,,,,,,,,,,,,,,,
292792,2022-10-04_15h01.05.621,vts_reward_expectancy,2022.2.4,MacIntel,60.0024001,Chrome,1553,971,,,l,1.5143,10,361,1,2,3,27,11,1,0,0,0,1,0,0,1,0,star,hexagon,,,,,,,,,,,,,,,,,,,,,,,,,,,,,,,,,,,,,,,,,,,,,,,,,,,,,,
292792,2022-10-04_15h01.05.621,vts_reward_expectancy,2022.2.4,MacIntel,60.0024001,Chrome,1553,971,,,a,1.6974,1,362,1,2,4,28,2,1,1,0,0,0,0,0,0,1,triangle,star,,,,,,,,,,,,,,,,,,,,,,,,,,,,,,,,,,,,,,,,,,,,,,,,,,,,,,
292792,2022-10-04_15h01.05.621,vts_reward_expectancy,2022.2.4,MacIntel,60.0024001,Chrome,1553,971,,,a,1.0665,1,363,1,2,5,29,5,1,0,1,0,0,0,0,0,1,circle,star,,,,,,,,,,,,,,,,,,,,,,,,,,,,,,,,,,,,,,,,,,,,,,,,,,,,,,
292792,2022-10-04_15h01.05.621,vts_reward_expectancy,2022.2.4,MacIntel,60.0024001,Chrome,1553,971,,,l,1.0502,1,364,1,2,6,30,4,1,0,1,0,0,0,0,1,0,circle,hexagon,,,,,,,,,,,,,,,,,,,,,,,,,,,,,,,,,,,,,,,,,,,,,,,,,,,,,,
292792,2022-10-04_15h01.05.621,vts_reward_expectancy,2022.2.4,MacIntel,60.0024001,Chrome,1553,971,,,a,3.483,1,365,1,2,7,31,6,1,0,0,1,0,1,0,0,0,hexagon,triangle,,,,,,,,,,,,,,,,,,,,,,,,,,,,,,,,,,,,,,,,,,,,,,,,,,,,,,
292792,2022-10-04_15h01.05.621,vts_reward_expectancy,2022.2.4,MacIntel,60.0024001,Chrome,1553,971,,,a,2.4032,10,375,1,2,8,32,8,1,0,0,1,0,0,0,0,1,hexagon,star,,,,,,,,,,,,,,,,,,,,,,,,,,,,,,,,,,,,,,,,,,,,,,,,,,,,,,
292792,2022-10-04_15h01.05.621,vts_reward_expectancy,2022.2.4,MacIntel,60.0024001,Chrome,1553,971,,,l,1.4165,10,385,1,2,9,33,7,1,0,0,1,0,0,1,0,0,hexagon,circle,,,,,,,,,,,,,,,,,,,,,,,,,,,,,,,,,,,,,,,,,,,,,,,,,,,,,,
292792,2022-10-04_15h01.05.621,vts_reward_expectancy,2022.2.4,MacIntel,60.0024001,Chrome,1553,971,,,a,1.0995,10,395,1,2,10,34,9,1,0,0,0,1,1,0,0,0,star,triangle,,,,,,,,,,,,,,,,,,,,,,,,,,,,,,,,,,,,,,,,,,,,,,,,,,,,,,
292792,2022-10-04_15h01.05.621,vts_reward_expectancy,2022.2.4,MacIntel,60.0024001,Chrome,1553,971,,,l,1.8711,10,405,1,2,11,35,3,1,0,1,0,0,1,0,0,0,circle,triangle,,,,,,,,,,,,,,,,,,,,,,,,,,,,,,,,,,,,,,,,,,,,,,,,,,,,,,
292792,2022-10-04_15h01.05.621,vts_reward_expectancy,2022.2.4,MacIntel,60.0024001,Chrome,1553,971,,,a,0.7339,1,406,2,0,0,0,3,1,0,1,0,0,1,0,0,0,circle,triangle,,,,,,,,,,,,,,,,,,,,,,,,,,,,,,,,,,,,,,,,,,,,,,,,,,,,,,
292792,2022-10-04_15h01.05.621,vts_reward_expectancy,2022.2.4,MacIntel,60.0024001,Chrome,1553,971,,,l,2.4182,10,416,2,0,1,1,1,1,1,0,0,0,0,0,1,0,triangle,hexagon,,,,,,,,,,,,,,,,,,,,,,,,,,,,,,,,,,,,,,,,,,,,,,,,,,,,,,
292792,2022-10-04_15h01.05.621,vts_reward_expectancy,2022.2.4,MacIntel,60.0024001,Chrome,1553,971,,,l,1.7825,10,426,2,0,2,2,7,1,0,0,1,0,0,1,0,0,hexagon,circle,,,,,,,,,,,,,,,,,,,,,,,,,,,,,,,,,,,,,,,,,,,,,,,,,,,,,,
292792,2022-10-04_15h01.05.621,vts_reward_expectancy,2022.2.4,MacIntel,60.0024001,Chrome,1553,971,,,a,0.9,10,436,2,0,3,3,4,1,0,1,0,0,0,0,1,0,circle,hexagon,,,,,,,,,,,,,,,,,,,,,,,,,,,,,,,,,,,,,,,,,,,,,,,,,,,,,,
292792,2022-10-04_15h01.05.621,vts_reward_expectancy,2022.2.4,MacIntel,60.0024001,Chrome,1553,971,,,a,1.1855,10,446,2,0,4,4,10,1,0,0,0,1,0,1,0,0,star ,circle,,,,,,,,,,,,,,,,,,,,,,,,,,,,,,,,,,,,,,,,,,,,,,,,,,,,,,
292792,2022-10-04_15h01.05.621,vts_reward_expectancy,2022.2.4,MacIntel,60.0024001,Chrome,1553,971,,,l,1.8662,1,447,2,0,5,5,6,1,0,0,1,0,1,0,0,0,hexagon,triangle,,,,,,,,,,,,,,,,,,,,,,,,,,,,,,,,,,,,,,,,,,,,,,,,,,,,,,
292792,2022-10-04_15h01.05.621,vts_reward_expectancy,2022.2.4,MacIntel,60.0024001,Chrome,1553,971,,,a,1.0824,10,457,2,0,6,6,5,1,0,1,0,0,0,0,0,1,circle,star,,,,,,,,,,,,,,,,,,,,,,,,,,,,,,,,,,,,,,,,,,,,,,,,,,,,,,
292792,2022-10-04_15h01.05.621,vts_reward_expectancy,2022.2.4,MacIntel,60.0024001,Chrome,1553,971,,,a,1.6311,10,467,2,0,7,7,2,1,1,0,0,0,0,0,0,1,triangle,star,,,,,,,,,,,,,,,,,,,,,,,,,,,,,,,,,,,,,,,,,,,,,,,,,,,,,,
292792,2022-10-04_15h01.05.621,vts_reward_expectancy,2022.2.4,MacIntel,60.0024001,Chrome,1553,971,,,a,0.8332,10,477,2,0,8,8,8,1,0,0,1,0,0,0,0,1,hexagon,star,,,,,,,,,,,,,,,,,,,,,,,,,,,,,,,,,,,,,,,,,,,,,,,,,,,,,,
292792,2022-10-04_15h01.05.621,vts_reward_expectancy,2022.2.4,MacIntel,60.0024001,Chrome,1553,971,,,l,1.4353,10,487,2,0,9,9,0,1,1,0,0,0,0,1,0,0,triangle,circle,,,,,,,,,,,,,,,,,,,,,,,,,,,,,,,,,,,,,,,,,,,,,,,,,,,,,,
292792,2022-10-04_15h01.05.621,vts_reward_expectancy,2022.2.4,MacIntel,60.0024001,Chrome,1553,971,,,a,0.9341,1,488,2,0,10,10,9,1,0,0,0,1,1,0,0,0,star,triangle,,,,,,,,,,,,,,,,,,,,,,,,,,,,,,,,,,,,,,,,,,,,,,,,,,,,,,
292792,2022-10-04_15h01.05.621,vts_reward_expectancy,2022.2.4,MacIntel,60.0024001,Chrome,1553,971,,,a,1.5001,10,498,2,0,11,11,11,1,0,0,0,1,0,0,1,0,star,hexagon,,,,,,,,,,,,,,,,,,,,,,,,,,,,,,,,,,,,,,,,,,,,,,,,,,,,,,
292792,2022-10-04_15h01.05.621,vts_reward_expectancy,2022.2.4,MacIntel,60.0024001,Chrome,1553,971,,,l,1.266,1,499,2,1,0,12,10,1,0,0,0,1,0,1,0,0,star ,circle,,,,,,,,,,,,,,,,,,,,,,,,,,,,,,,,,,,,,,,,,,,,,,,,,,,,,,
292792,2022-10-04_15h01.05.621,vts_reward_expectancy,2022.2.4,MacIntel,60.0024001,Chrome,1553,971,,,l,2.6191,10,509,2,1,1,13,1,1,1,0,0,0,0,0,1,0,triangle,hexagon,,,,,,,,,,,,,,,,,,,,,,,,,,,,,,,,,,,,,,,,,,,,,,,,,,,,,,
292792,2022-10-04_15h01.05.621,vts_reward_expectancy,2022.2.4,MacIntel,60.0024001,Chrome,1553,971,,,a,0.9166,1,510,2,1,2,14,9,1,0,0,0,1,1,0,0,0,star,triangle,,,,,,,,,,,,,,,,,,,,,,,,,,,,,,,,,,,,,,,,,,,,,,,,,,,,,,
292792,2022-10-04_15h01.05.621,vts_reward_expectancy,2022.2.4,MacIntel,60.0024001,Chrome,1553,971,,,a,1.5202,1,511,2,1,3,15,0,1,1,0,0,0,0,1,0,0,triangle,circle,,,,,,,,,,,,,,,,,,,,,,,,,,,,,,,,,,,,,,,,,,,,,,,,,,,,,,
292792,2022-10-04_15h01.05.621,vts_reward_expectancy,2022.2.4,MacIntel,60.0024001,Chrome,1553,971,,,a,1.1826,10,521,2,1,4,16,5,1,0,1,0,0,0,0,0,1,circle,star,,,,,,,,,,,,,,,,,,,,,,,,,,,,,,,,,,,,,,,,,,,,,,,,,,,,,,
292792,2022-10-04_15h01.05.621,vts_reward_expectancy,2022.2.4,MacIntel,60.0024001,Chrome,1553,971,,,a,1.2213,1,522,2,1,5,17,2,1,1,0,0,0,0,0,0,1,triangle,star,,,,,,,,,,,,,,,,,,,,,,,,,,,,,,,,,,,,,,,,,,,,,,,,,,,,,,
292792,2022-10-04_15h01.05.621,vts_reward_expectancy,2022.2.4,MacIntel,60.0024001,Chrome,1553,971,,,a,1.1148,10,532,2,1,6,18,8,1,0,0,1,0,0,0,0,1,hexagon,star,,,,,,,,,,,,,,,,,,,,,,,,,,,,,,,,,,,,,,,,,,,,,,,,,,,,,,
292792,2022-10-04_15h01.05.621,vts_reward_expectancy,2022.2.4,MacIntel,60.0024001,Chrome,1553,971,,,l,1.5858,1,533,2,1,7,19,3,1,0,1,0,0,1,0,0,0,circle,triangle,,,,,,,,,,,,,,,,,,,,,,,,,,,,,,,,,,,,,,,,,,,,,,,,,,,,,,
292792,2022-10-04_15h01.05.621,vts_reward_expectancy,2022.2.4,MacIntel,60.0024001,Chrome,1553,971,,,l,1.0663,10,543,2,1,8,20,7,1,0,0,1,0,0,1,0,0,hexagon,circle,,,,,,,,,,,,,,,,,,,,,,,,,,,,,,,,,,,,,,,,,,,,,,,,,,,,,,
292792,2022-10-04_15h01.05.621,vts_reward_expectancy,2022.2.4,MacIntel,60.0024001,Chrome,1553,971,,,a,1.5491,1,544,2,1,9,21,11,1,0,0,0,1,0,0,1,0,star,hexagon,,,,,,,,,,,,,,,,,,,,,,,,,,,,,,,,,,,,,,,,,,,,,,,,,,,,,,
292792,2022-10-04_15h01.05.621,vts_reward_expectancy,2022.2.4,MacIntel,60.0024001,Chrome,1553,971,,,l,2.7825,1,545,2,1,10,22,6,1,0,0,1,0,1,0,0,0,hexagon,triangle,,,,,,,,,,,,,,,,,,,,,,,,,,,,,,,,,,,,,,,,,,,,,,,,,,,,,,
292792,2022-10-04_15h01.05.621,vts_reward_expectancy,2022.2.4,MacIntel,60.0024001,Chrome,1553,971,,,a,0.7495,1,546,2,1,11,23,4,1,0,1,0,0,0,0,1,0,circle,hexagon,,,,,,,,,,,,,,,,,,,,,,,,,,,,,,,,,,,,,,,,,,,,,,,,,,,,,,
292792,2022-10-04_15h01.05.621,vts_reward_expectancy,2022.2.4,MacIntel,60.0024001,Chrome,1553,971,,,a,1.9375,1,547,2,2,0,24,6,1,0,0,1,0,1,0,0,0,hexagon,triangle,,,,,,,,,,,,,,,,,,,,,,,,,,,,,,,,,,,,,,,,,,,,,,,,,,,,,,
292792,2022-10-04_15h01.05.621,vts_reward_expectancy,2022.2.4,MacIntel,60.0024001,Chrome,1553,971,,,a,0.7035,1,548,2,2,1,25,3,1,0,1,0,0,1,0,0,0,circle,triangle,,,,,,,,,,,,,,,,,,,,,,,,,,,,,,,,,,,,,,,,,,,,,,,,,,,,,,
292792,2022-10-04_15h01.05.621,vts_reward_expectancy,2022.2.4,MacIntel,60.0024001,Chrome,1553,971,,,a,1.3329,10,558,2,2,2,26,8,1,0,0,1,0,0,0,0,1,hexagon,star,,,,,,,,,,,,,,,,,,,,,,,,,,,,,,,,,,,,,,,,,,,,,,,,,,,,,,
292792,2022-10-04_15h01.05.621,vts_reward_expectancy,2022.2.4,MacIntel,60.0024001,Chrome,1553,971,,,a,0.6222,10,568,2,2,3,27,4,1,0,1,0,0,0,0,1,0,circle,hexagon,,,,,,,,,,,,,,,,,,,,,,,,,,,,,,,,,,,,,,,,,,,,,,,,,,,,,,
292792,2022-10-04_15h01.05.621,vts_reward_expectancy,2022.2.4,MacIntel,60.0024001,Chrome,1553,971,,,l,1.4831,1,569,2,2,4,28,2,1,1,0,0,0,0,0,0,1,triangle,star,,,,,,,,,,,,,,,,,,,,,,,,,,,,,,,,,,,,,,,,,,,,,,,,,,,,,,
292792,2022-10-04_15h01.05.621,vts_reward_expectancy,2022.2.4,MacIntel,60.0024001,Chrome,1553,971,,,l,0.9503,1,570,2,2,5,29,7,1,0,0,1,0,0,1,0,0,hexagon,circle,,,,,,,,,,,,,,,,,,,,,,,,,,,,,,,,,,,,,,,,,,,,,,,,,,,,,,
292792,2022-10-04_15h01.05.621,vts_reward_expectancy,2022.2.4,MacIntel,60.0024001,Chrome,1553,971,,,a,1.9531,1,571,2,2,6,30,9,1,0,0,0,1,1,0,0,0,star,triangle,,,,,,,,,,,,,,,,,,,,,,,,,,,,,,,,,,,,,,,,,,,,,,,,,,,,,,
292792,2022-10-04_15h01.05.621,vts_reward_expectancy,2022.2.4,MacIntel,60.0024001,Chrome,1553,971,,,l,1.3501,10,581,2,2,7,31,11,1,0,0,0,1,0,0,1,0,star,hexagon,,,,,,,,,,,,,,,,,,,,,,,,,,,,,,,,,,,,,,,,,,,,,,,,,,,,,,
292792,2022-10-04_15h01.05.621,vts_reward_expectancy,2022.2.4,MacIntel,60.0024001,Chrome,1553,971,,,a,1.9847,10,591,2,2,8,32,10,1,0,0,0,1,0,1,0,0,star ,circle,,,,,,,,,,,,,,,,,,,,,,,,,,,,,,,,,,,,,,,,,,,,,,,,,,,,,,
292792,2022-10-04_15h01.05.621,vts_reward_expectancy,2022.2.4,MacIntel,60.0024001,Chrome,1553,971,,,l,1.1497,10,601,2,2,9,33,0,1,1,0,0,0,0,1,0,0,triangle,circle,,,,,,,,,,,,,,,,,,,,,,,,,,,,,,,,,,,,,,,,,,,,,,,,,,,,,,
292792,2022-10-04_15h01.05.621,vts_reward_expectancy,2022.2.4,MacIntel,60.0024001,Chrome,1553,971,,,a,1.6828,10,611,2,2,10,34,5,1,0,1,0,0,0,0,0,1,circle,star,,,,,,,,,,,,,,,,,,,,,,,,,,,,,,,,,,,,,,,,,,,,,,,,,,,,,,
292792,2022-10-04_15h01.05.621,vts_reward_expectancy,2022.2.4,MacIntel,60.0024001,Chrome,1553,971,,,l,1.0887,10,621,2,2,11,35,1,1,1,0,0,0,0,0,1,0,triangle,hexagon,,,,,,,,,,,,,,,,,,,,,,,,,,,,,,,,,,,,,,,,,,,,,,,,,,,,,,
292792,2022-10-04_15h01.05.621,vts_reward_expectancy,2022.2.4,MacIntel,60.0024001,Chrome,1553,971,,,,,,,,,,,,,,,,,,,,,,,181,W,circle,0,0,d,1.0489,0,0,0,0,0,1,,,,,,,,,,,,,,,,,,,,,,,,,,,,,,,,,,,,,,,,,
292792,2022-10-04_15h01.05.621,vts_reward_expectancy,2022.2.4,MacIntel,60.0024001,Chrome,1553,971,,,,,,,,,,,,,,,,,,,,,,,146,S,hexagon,1,1,d,0.5167,0,1,0,1,0,1,,,,,,,,,,,,,,,,,,,,,,,,,,,,,,,,,,,,,,,,,
292792,2022-10-04_15h01.05.621,vts_reward_expectancy,2022.2.4,MacIntel,60.0024001,Chrome,1553,971,,,,,,,,,,,,,,,,,,,,,,,160,H,star,1,0,f,0.5159,0,2,0,2,0,1,,,,,,,,,,,,,,,,,,,,,,,,,,,,,,,,,,,,,,,,,
292792,2022-10-04_15h01.05.621,vts_reward_expectancy,2022.2.4,MacIntel,60.0024001,Chrome,1553,971,,,,,,,,,,,,,,,,,,,,,,,139,F,triangle,1,0,d,0.4172,0,3,0,3,0,1,,,,,,,,,,,,,,,,,,,,,,,,,,,,,,,,,,,,,,,,,
292792,2022-10-04_15h01.05.621,vts_reward_expectancy,2022.2.4,MacIntel,60.0024001,Chrome,1553,971,,,,,,,,,,,,,,,,,,,,,,,125,B,circle,1,0,d,0.5478,0,4,0,4,0,1,,,,,,,,,,,,,,,,,,,,,,,,,,,,,,,,,,,,,,,,,
292792,2022-10-04_15h01.05.621,vts_reward_expectancy,2022.2.4,MacIntel,60.0024001,Chrome,1553,971,,,,,,,,,,,,,,,,,,,,,,,167,D,hexagon,1,0,f,0.4659,0,5,0,5,0,1,,,,,,,,,,,,,,,,,,,,,,,,,,,,,,,,,,,,,,,,,
292792,2022-10-04_15h01.05.621,vts_reward_expectancy,2022.2.4,MacIntel,60.0024001,Chrome,1553,971,,,,,,,,,,,,,,,,,,,,,,,132,U,star,1,0,d,0.4492,0,6,0,6,0,1,,,,,,,,,,,,,,,,,,,,,,,,,,,,,,,,,,,,,,,,,
292792,2022-10-04_15h01.05.621,vts_reward_expectancy,2022.2.4,MacIntel,60.0024001,Chrome,1553,971,,,,,,,,,,,,,,,,,,,,,,,174,Y,triangle,1,0,f,0.5148,0,7,0,7,0,1,,,,,,,,,,,,,,,,,,,,,,,,,,,,,,,,,,,,,,,,,
292792,2022-10-04_15h01.05.621,vts_reward_expectancy,2022.2.4,MacIntel,60.0024001,Chrome,1553,971,,,,,,,,,,,,,,,,,,,,,,,181,W,circle,1,0,f,0.5367,0,8,0,8,0,1,,,,,,,,,,,,,,,,,,,,,,,,,,,,,,,,,,,,,,,,,
292792,2022-10-04_15h01.05.621,vts_reward_expectancy,2022.2.4,MacIntel,60.0024001,Chrome,1553,971,,,,,,,,,,,,,,,,,,,,,,,146,S,triangle,1,0,d,0.4812,0,9,0,9,0,1,,,,,,,,,,,,,,,,,,,,,,,,,,,,,,,,,,,,,,,,,
292792,2022-10-04_15h01.05.621,vts_reward_expectancy,2022.2.4,MacIntel,60.0024001,Chrome,1553,971,,,,,,,,,,,,,,,,,,,,,,,181,S,circle,1,0,,,1,,,,,,k,0.585,0,0,0,0,1,,,,,,,,,,,,,,,,,,,,,,,,,,,,,,,,,,
292792,2022-10-04_15h01.05.621,vts_reward_expectancy,2022.2.4,MacIntel,60.0024001,Chrome,1553,971,,,,,,,,,,,,,,,,,,,,,,,139,U,triangle,1,0,,,1,,,,,,k,0.6155,1,0,1,0,1,,,,,,,,,,,,,,,,,,,,,,,,,,,,,,,,,,
292792,2022-10-04_15h01.05.621,vts_reward_expectancy,2022.2.4,MacIntel,60.0024001,Chrome,1553,971,,,,,,,,,,,,,,,,,,,,,,,160,W,hexagon,1,0,,,1,,,,,,k,0.5835,2,0,2,0,1,,,,,,,,,,,,,,,,,,,,,,,,,,,,,,,,,,
292792,2022-10-04_15h01.05.621,vts_reward_expectancy,2022.2.4,MacIntel,60.0024001,Chrome,1553,971,,,,,,,,,,,,,,,,,,,,,,,132,H,star,1,0,,,1,,,,,,j,0.6661,3,0,3,0,1,,,,,,,,,,,,,,,,,,,,,,,,,,,,,,,,,,
292792,2022-10-04_15h01.05.621,vts_reward_expectancy,2022.2.4,MacIntel,60.0024001,Chrome,1553,971,,,,,,,,,,,,,,,,,,,,,,,174,D,circle,1,0,,,1,,,,,,j,0.5655,4,0,4,0,1,,,,,,,,,,,,,,,,,,,,,,,,,,,,,,,,,,
292792,2022-10-04_15h01.05.621,vts_reward_expectancy,2022.2.4,MacIntel,60.0024001,Chrome,1553,971,,,,,,,,,,,,,,,,,,,,,,,125,Y,triangle,1,0,,,1,,,,,,k,0.5822,5,0,5,0,1,,,,,,,,,,,,,,,,,,,,,,,,,,,,,,,,,,
292792,2022-10-04_15h01.05.621,vts_reward_expectancy,2022.2.4,MacIntel,60.0024001,Chrome,1553,971,,,,,,,,,,,,,,,,,,,,,,,167,B,hexagon,1,0,,,1,,,,,,j,0.6306,6,0,6,0,1,,,,,,,,,,,,,,,,,,,,,,,,,,,,,,,,,,
292792,2022-10-04_15h01.05.621,vts_reward_expectancy,2022.2.4,MacIntel,60.0024001,Chrome,1553,971,,,,,,,,,,,,,,,,,,,,,,,146,F,star,1,0,,,1,,,,,,j,0.6991,7,0,7,0,1,,,,,,,,,,,,,,,,,,,,,,,,,,,,,,,,,,
292792,2022-10-04_15h01.05.621,vts_reward_expectancy,2022.2.4,MacIntel,60.0024001,Chrome,1553,971,,,,,,,,,,,,,,,,,,,,,,,181,S,circle,1,0,,,1,,,,,,k,0.5828,8,0,8,0,1,,,,,,,,,,,,,,,,,,,,,,,,,,,,,,,,,,
292792,2022-10-04_15h01.05.621,vts_reward_expectancy,2022.2.4,MacIntel,60.0024001,Chrome,1553,971,,,,,,,,,,,,,,,,,,,,,,,139,U,star,1,0,,,1,,,,,,k,0.5833,9,0,9,0,1,,,,,,,,,,,,,,,,,,,,,,,,,,,,,,,,,,
292792,2022-10-04_15h01.05.621,vts_reward_expectancy,2022.2.4,MacIntel,60.0024001,Chrome,1553,971,,,,,0,621,,,,,,,,,,,,,,,,,181,F,triangle,0,0,,,2,,,,,,,,,,,,,-1,letter,NA,k,0.8455,vtsPrac,0,0,0,0,1,,,,,,,,,,,,,,,,,,,,,,,
292792,2022-10-04_15h01.05.621,vts_reward_expectancy,2022.2.4,MacIntel,60.0024001,Chrome,1553,971,,,,,0,621,,,,,,,,,,,,,,,,,174,U,hexagon,0,1,,,2,,,,,,,,,,,,,switch,number,NA,d,0.0663,vtsPrac,1,0,1,0,1,,,,,,,,,,,,,,,,,,,,,,,
292792,2022-10-04_15h01.05.621,vts_reward_expectancy,2022.2.4,MacIntel,60.0024001,Chrome,1553,971,,,,,0,621,,,,,,,,,,,,,,,,,125,W,triangle,0,1,,,2,,,,,,,,,,,,,repeat,number,NA,f,0.583,vtsPrac,2,0,2,0,1,,,,,,,,,,,,,,,,,,,,,,,
292792,2022-10-04_15h01.05.621,vts_reward_expectancy,2022.2.4,MacIntel,60.0024001,Chrome,1553,971,,,,,0,621,,,,,,,,,,,,,,,,,160,S,hexagon,1,1,,,2,,,,,,,,,,,,,repeat,number,numRpt,f,0.5827,vtsPrac,3,0,3,0,1,,,,,,,,,,,,,,,,,,,,,,,
292792,2022-10-04_15h01.05.621,vts_reward_expectancy,2022.2.4,MacIntel,60.0024001,Chrome,1553,971,,,,,0,621,,,,,,,,,,,,,,,,,181,F,star,0,0,,,2,,,,,,,,,,,,,switch,letter,NA,k,0.5159,vtsPrac,4,0,4,0,1,,,,,,,,,,,,,,,,,,,,,,,
292792,2022-10-04_15h01.05.621,vts_reward_expectancy,2022.2.4,MacIntel,60.0024001,Chrome,1553,971,,,,,0,621,,,,,,,,,,,,,,,,,174,U,circle,1,1,,,2,,,,,,,,,,,,,switch,number,numSwt,f,0.5662,vtsPrac,5,0,5,0,1,,,,,,,,,,,,,,,,,,,,,,,
292792,2022-10-04_15h01.05.621,vts_reward_expectancy,2022.2.4,MacIntel,60.0024001,Chrome,1553,971,,,,,0,621,,,,,,,,,,,,,,,,,125,W,hexagon,1,0,,,2,,,,,,,,,,,,,repeat,number,numRpt,d,0.6326,vtsPrac,6,0,6,0,1,,,,,,,,,,,,,,,,,,,,,,,
292792,2022-10-04_15h01.05.621,vts_reward_expectancy,2022.2.4,MacIntel,60.0024001,Chrome,1553,971,,,,,0,621,,,,,,,,,,,,,,,,,160,S,circle,1,0,,,2,,,,,,,,,,,,,switch,letter,lettSwt,k,0.7974,vtsPrac,7,0,7,0,1,,,,,,,,,,,,,,,,,,,,,,,
292792,2022-10-04_15h01.05.621,vts_reward_expectancy,2022.2.4,MacIntel,60.0024001,Chrome,1553,971,,,,,0,621,,,,,,,,,,,,,,,,,146,Y,hexagon,1,0,,,2,,,,,,,,,,,,,switch,number,numSwt,d,0.866,vtsPrac,8,0,8,0,1,,,,,,,,,,,,,,,,,,,,,,,
292792,2022-10-04_15h01.05.621,vts_reward_expectancy,2022.2.4,MacIntel,60.0024001,Chrome,1553,971,,,,,0,621,,,,,,,,,,,,,,,,,181,D,triangle,1,0,,,2,,,,,,,,,,,,,repeat,number,numRpt,f,0.5652,vtsPrac,9,0,9,0,1,,,,,,,,,,,,,,,,,,,,,,,
292792,2022-10-04_15h01.05.621,vts_reward_expectancy,2022.2.4,MacIntel,60.0024001,Chrome,1553,971,,,,,0,621,,,,,,,,,,,,,,,,,132,S,circle,1,0,,,2,,,,,,,,,,,,,switch,letter,lettSwt,k,0.4983,vtsPrac,10,0,10,0,1,,,,,,,,,,,,,,,,,,,,,,,
292792,2022-10-04_15h01.05.621,vts_reward_expectancy,2022.2.4,MacIntel,60.0024001,Chrome,1553,971,,,,,0,621,,,,,,,,,,,,,,,,,160,B,star,1,0,,,2,,,,,,,,,,,,,repeat,letter,lettRpt,j,0.5799,vtsPrac,11,0,11,0,1,,,,,,,,,,,,,,,,,,,,,,,
292792,2022-10-04_15h01.05.621,vts_reward_expectancy,2022.2.4,MacIntel,60.0024001,Chrome,1553,971,,,,,0,621,,,,,,,,,,,,,,,,,132,H,circle,1,0,,,2,,,,,,,,,,,,,switch,number,numSwt,d,0.4804,vtsPrac,12,0,12,0,1,,,,,,,,,,,,,,,,,,,,,,,
292792,2022-10-04_15h01.05.621,vts_reward_expectancy,2022.2.4,MacIntel,60.0024001,Chrome,1553,971,,,,,0,621,,,,,,,,,,,,,,,,,160,S,triangle,1,0,,,2,,,,,,,,,,,,,repeat,number,numRpt,f,0.5513,vtsPrac,13,0,13,0,1,,,,,,,,,,,,,,,,,,,,,,,
292792,2022-10-04_15h01.05.621,vts_reward_expectancy,2022.2.4,MacIntel,60.0024001,Chrome,1553,971,,,,,0,621,,,,,,,,,,,,,,,,,146,Y,star,1,0,,,2,,,,,,,,,,,,,switch,letter,lettSwt,k,0.6003,vtsPrac,14,0,14,0,1,,,,,,,,,,,,,,,,,,,,,,,
292792,2022-10-04_15h01.05.621,vts_reward_expectancy,2022.2.4,MacIntel,60.0024001,Chrome,1553,971,,,,,0,621,,,,,,,,,,,,,,,,,174,W,hexagon,1,0,,,2,,,,,,,,,,,,,switch,number,numSwt,f,0.6652,vtsPrac,15,0,15,0,1,,,,,,,,,,,,,,,,,,,,,,,
292792,2022-10-04_15h01.05.621,vts_reward_expectancy,2022.2.4,MacIntel,60.0024001,Chrome,1553,971,,,,,0,621,,,,,,,,,,,,,,,,,146,W,star,-1,0,,,3,,,,,,,,,,,,,switch,no_choice,NA,,,vtsPrac,0,0,0,0,1,,,,,,,,,,,,,,,,,,,,,,,
292792,2022-10-04_15h01.05.621,vts_reward_expectancy,2022.2.4,MacIntel,60.0024001,Chrome,1553,971,,,,,0,621,,,,,,,,,,,,,,,,,167,H,circle,1,0,,,3,,,,,,,,,,,,,switch,number,numSwt,f,0.6213,vtsPrac,1,0,1,0,1,,,,,,,,,,,,,,,,,,,,,,,
292792,2022-10-04_15h01.05.621,vts_reward_expectancy,2022.2.4,MacIntel,60.0024001,Chrome,1553,971,,,,,0,621,,,,,,,,,,,,,,,,,139,S,star,1,0,,,3,,,,,,,,,,,,,switch,letter,lettSwt,k,0.9148,vtsPrac,2,0,2,0,1,,,,,,,,,,,,,,,,,,,,,,,
292792,2022-10-04_15h01.05.621,vts_reward_expectancy,2022.2.4,MacIntel,60.0024001,Chrome,1553,971,,,,,0,621,,,,,,,,,,,,,,,,,125,F,circle,1,0,,,3,,,,,,,,,,,,,repeat,letter,lettRpt,j,0.6493,vtsPrac,3,0,3,0,1,,,,,,,,,,,,,,,,,,,,,,,
292792,2022-10-04_15h01.05.621,vts_reward_expectancy,2022.2.4,MacIntel,60.0024001,Chrome,1553,971,,,,,0,621,,,,,,,,,,,,,,,,,146,W,circle,1,0,,,3,,,,,,,,,,,,,repeat,letter,lettRpt,k,0.7321,vtsPrac,4,0,4,0,1,,,,,,,,,,,,,,,,,,,,,,,
292792,2022-10-04_15h01.05.621,vts_reward_expectancy,2022.2.4,MacIntel,60.0024001,Chrome,1553,971,,,,,0,621,,,,,,,,,,,,,,,,,167,H,hexagon,1,0,,,3,,,,,,,,,,,,,switch,number,numSwt,f,0.7162,vtsPrac,5,0,5,0,1,,,,,,,,,,,,,,,,,,,,,,,
292792,2022-10-04_15h01.05.621,vts_reward_expectancy,2022.2.4,MacIntel,60.0024001,Chrome,1553,971,,,,,0,621,,,,,,,,,,,,,,,,,139,S,triangle,1,0,,,3,,,,,,,,,,,,,repeat,number,numRpt,d,0.436,vtsPrac,6,0,6,0,1,,,,,,,,,,,,,,,,,,,,,,,
292792,2022-10-04_15h01.05.621,vts_reward_expectancy,2022.2.4,MacIntel,60.0024001,Chrome,1553,971,,,,,0,621,,,,,,,,,,,,,,,,,125,F,star,1,0,,,3,,,,,,,,,,,,,switch,letter,lettSwt,j,0.8048,vtsPrac,7,0,7,0,1,,,,,,,,,,,,,,,,,,,,,,,
292792,2022-10-04_15h01.05.621,vts_reward_expectancy,2022.2.4,MacIntel,60.0024001,Chrome,1553,971,,,,,0,621,,,,,,,,,,,,,,,,,160,F,hexagon,1,0,,,3,,,,,,,,,,,,,repeat,letter,lettRpt,j,0.7487,vtsPrac,8,0,8,0,1,,,,,,,,,,,,,,,,,,,,,,,
292792,2022-10-04_15h01.05.621,vts_reward_expectancy,2022.2.4,MacIntel,60.0024001,Chrome,1553,971,,,,,0,621,,,,,,,,,,,,,,,,,181,Y,star,1,0,,,3,,,,,,,,,,,,,switch,number,numSwt,f,0.5486,vtsPrac,9,0,9,0,1,,,,,,,,,,,,,,,,,,,,,,,
292792,2022-10-04_15h01.05.621,vts_reward_expectancy,2022.2.4,MacIntel,60.0024001,Chrome,1553,971,,,,,0,621,,,,,,,,,,,,,,,,,132,W,star,1,0,,,3,,,,,,,,,,,,,switch,letter,lettSwt,k,0.5841,vtsPrac,10,0,10,0,1,,,,,,,,,,,,,,,,,,,,,,,
292792,2022-10-04_15h01.05.621,vts_reward_expectancy,2022.2.4,MacIntel,60.0024001,Chrome,1553,971,,,,,0,621,,,,,,,,,,,,,,,,,167,D,circle,1,0,,,3,,,,,,,,,,,,,switch,number,numSwt,f,0.7852,vtsPrac,11,0,11,0,1,,,,,,,,,,,,,,,,,,,,,,,
292792,2022-10-04_15h01.05.621,vts_reward_expectancy,2022.2.4,MacIntel,60.0024001,Chrome,1553,971,,,,,0,621,,,,,,,,,,,,,,,,,146,Y,star,1,0,,,3,,,,,,,,,,,,,switch,letter,lettSwt,k,0.6867,vtsPrac,12,0,12,0,1,,,,,,,,,,,,,,,,,,,,,,,
292792,2022-10-04_15h01.05.621,vts_reward_expectancy,2022.2.4,MacIntel,60.0024001,Chrome,1553,971,,,,,0,621,,,,,,,,,,,,,,,,,181,F,triangle,1,0,,,3,,,,,,,,,,,,,repeat,letter,lettRpt,j,0.6201,vtsPrac,13,0,13,0,1,,,,,,,,,,,,,,,,,,,,,,,
292792,2022-10-04_15h01.05.621,vts_reward_expectancy,2022.2.4,MacIntel,60.0024001,Chrome,1553,971,,,,,0,621,,,,,,,,,,,,,,,,,132,H,triangle,1,0,,,3,,,,,,,,,,,,,repeat,letter,lettRpt,j,0.5802,vtsPrac,14,0,14,0,1,,,,,,,,,,,,,,,,,,,,,,,
292792,2022-10-04_15h01.05.621,vts_reward_expectancy,2022.2.4,MacIntel,60.0024001,Chrome,1553,971,,,,,0,621,,,,,,,,,,,,,,,,,167,B,circle,1,0,,,3,,,,,,,,,,,,,switch,number,numSwt,f,0.5806,vtsPrac,15,0,15,0,1,,,,,,,,,,,,,,,,,,,,,,,
292792,2022-10-04_15h01.05.621,vts_reward_expectancy,2022.2.4,MacIntel,60.0024001,Chrome,1553,971,,,,,,,,,,,,,,,,,,,,,,,,,,,,,,,,,,,,,,,,,,,,,,,,,,,,,,,,,,,,,,,,,,,,,,,,,,,,
292792,2022-10-04_15h01.05.621,vts_reward_expectancy,2022.2.4,MacIntel,60.0024001,Chrome,1553,971,,,,,,,,,,,,,,,,,,,,,,,,,,,,,,,,,,,,,,,,,,,,,,,,,,,,,,,,,,,,,,,,,,,,,,,,,,,,
292792,2022-10-04_15h01.05.621,vts_reward_expectancy,2022.2.4,MacIntel,60.0024001,Chrome,1553,971,,,,,0,621,,,,,,,,,,,,,,,,,174,H,circle,1,0,,,,,,,,,,,,,,,,repeat,number,numRpt,f,0.5151,noRew,,,,,,0,0,0,0,0,1,,,,,,,,,,,,,,,,,
292792,2022-10-04_15h01.05.621,vts_reward_expectancy,2022.2.4,MacIntel,60.0024001,Chrome,1553,971,,,,,0,621,,,,,,,,,,,,,,,,,139,D,star,1,0,,,,,,,,,,,,,,,,repeat,number,numRpt,d,0.4035,noRew,,,,,,0,1,0,1,0,1,,,,,,,,,,,,,,,,,
292792,2022-10-04_15h01.05.621,vts_reward_expectancy,2022.2.4,MacIntel,60.0024001,Chrome,1553,971,,,,,0,621,,,,,,,,,,,,,,,,,160,F,circle,1,0,,,,,,,,,,,,,,,,switch,letter,lettSwt,j,0.7346,noRew,,,,,,0,2,0,2,0,1,,,,,,,,,,,,,,,,,
292792,2022-10-04_15h01.05.621,vts_reward_expectancy,2022.2.4,MacIntel,60.0024001,Chrome,1553,971,,,,,0,621,,,,,,,,,,,,,,,,,125,Y,star,1,0,,,,,,,,,,,,,,,,switch,number,numSwt,d,0.5324,noRew,,,,,,0,3,0,3,0,1,,,,,,,,,,,,,,,,,
292792,2022-10-04_15h01.05.621,vts_reward_expectancy,2022.2.4,MacIntel,60.0024001,Chrome,1553,971,,,,,0,621,,,,,,,,,,,,,,,,,174,H,triangle,1,0,,,,,,,,,,,,,,,,repeat,number,numRpt,f,0.5992,noRew,,,,,,0,4,0,4,0,1,,,,,,,,,,,,,,,,,
292792,2022-10-04_15h01.05.621,vts_reward_expectancy,2022.2.4,MacIntel,60.0024001,Chrome,1553,971,,,,,0,621,,,,,,,,,,,,,,,,,139,D,circle,1,0,,,,,,,,,,,,,,,,repeat,number,numRpt,d,0.5324,noRew,,,,,,0,5,0,5,0,1,,,,,,,,,,,,,,,,,
292792,2022-10-04_15h01.05.621,vts_reward_expectancy,2022.2.4,MacIntel,60.0024001,Chrome,1553,971,,,,,0,621,,,,,,,,,,,,,,,,,160,F,star,1,0,,,,,,,,,,,,,,,,switch,letter,lettSwt,j,0.7549,noRew,,,,,,0,6,0,6,0,1,,,,,,,,,,,,,,,,,
292792,2022-10-04_15h01.05.621,vts_reward_expectancy,2022.2.4,MacIntel,60.0024001,Chrome,1553,971,,,,,0,621,,,,,,,,,,,,,,,,,125,Y,triangle,1,0,,,,,,,,,,,,,,,,repeat,letter,lettRpt,k,0.4669,noRew,,,,,,0,7,0,7,0,1,,,,,,,,,,,,,,,,,
292792,2022-10-04_15h01.05.621,vts_reward_expectancy,2022.2.4,MacIntel,60.0024001,Chrome,1553,971,,,,,0,621,,,,,,,,,,,,,,,,,146,S,star,0,0,,,,,,,,,,,,,,,,switch,number,NA,f,0.5972,noRew,,,,,,0,8,0,8,0,1,,,,,,,,,,,,,,,,,
292792,2022-10-04_15h01.05.621,vts_reward_expectancy,2022.2.4,MacIntel,60.0024001,Chrome,1553,971,,,,,0,621,,,,,,,,,,,,,,,,,174,H,triangle,1,1,,,,,,,,,,,,,,,,switch,letter,lettSwt,j,0.9168,noRew,,,,,,0,9,0,9,0,1,,,,,,,,,,,,,,,,,
292792,2022-10-04_15h01.05.621,vts_reward_expectancy,2022.2.4,MacIntel,60.0024001,Chrome,1553,971,,,,,0,621,,,,,,,,,,,,,,,,,181,B,triangle,1,0,,,,,,,,,,,,,,,,switch,number,numSwt,f,0.5824,noRew,,,,,,0,10,0,10,0,1,,,,,,,,,,,,,,,,,
292792,2022-10-04_15h01.05.621,vts_reward_expectancy,2022.2.4,MacIntel,60.0024001,Chrome,1553,971,,,,,0,621,,,,,,,,,,,,,,,,,167,W,star,1,0,,,,,,,,,,,,,,,,switch,letter,lettSwt,k,0.5663,noRew,,,,,,0,11,0,11,0,1,,,,,,,,,,,,,,,,,
292792,2022-10-04_15h01.05.621,vts_reward_expectancy,2022.2.4,MacIntel,60.0024001,Chrome,1553,971,,,,,0,621,,,,,,,,,,,,,,,,,125,U,hexagon,1,0,,,,,,,,,,,,,,,,switch,number,numSwt,d,0.5483,noRew,,,,,,0,12,0,12,0,1,,,,,,,,,,,,,,,,,
292792,2022-10-04_15h01.05.621,vts_reward_expectancy,2022.2.4,MacIntel,60.0024001,Chrome,1553,971,,,,,0,621,,,,,,,,,,,,,,,,,132,W,star,1,0,,,,,,,,,,,,,,,,switch,letter,lettSwt,k,0.6178,noRew,,,,,,0,13,0,13,0,1,,,,,,,,,,,,,,,,,
292792,2022-10-04_15h01.05.621,vts_reward_expectancy,2022.2.4,MacIntel,60.0024001,Chrome,1553,971,,,,,0,621,,,,,,,,,,,,,,,,,160,D,triangle,1,0,,,,,,,,,,,,,,,,repeat,letter,lettRpt,j,0.6321,noRew,,,,,,0,14,0,14,0,1,,,,,,,,,,,,,,,,,
292792,2022-10-04_15h01.05.621,vts_reward_expectancy,2022.2.4,MacIntel,60.0024001,Chrome,1553,971,,,,,0,621,,,,,,,,,,,,,,,,,167,F,star,1,0,,,,,,,,,,,,,,,,switch,number,numSwt,f,0.5802,noRew,,,,,,0,15,0,15,0,1,,,,,,,,,,,,,,,,,
292792,2022-10-04_15h01.05.621,vts_reward_expectancy,2022.2.4,MacIntel,60.0024001,Chrome,1553,971,,,,,0,621,,,,,,,,,,,,,,,,,132,U,circle,1,0,,,,,,,,,,,,,,,,repeat,number,numRpt,d,0.5138,noRew,,,,,,0,16,0,16,0,1,,,,,,,,,,,,,,,,,
292792,2022-10-04_15h01.05.621,vts_reward_expectancy,2022.2.4,MacIntel,60.0024001,Chrome,1553,971,,,,,0,621,,,,,,,,,,,,,,,,,167,D,triangle,1,0,,,,,,,,,,,,,,,,repeat,number,numRpt,f,0.6168,noRew,,,,,,0,17,0,17,0,1,,,,,,,,,,,,,,,,,
292792,2022-10-04_15h01.05.621,vts_reward_expectancy,2022.2.4,MacIntel,60.0024001,Chrome,1553,971,,,,,0,621,,,,,,,,,,,,,,,,,174,W,hexagon,1,0,,,,,,,,,,,,,,,,repeat,number,numRpt,f,0.7872,noRew,,,,,,0,18,0,18,0,1,,,,,,,,,,,,,,,,,
292792,2022-10-04_15h01.05.621,vts_reward_expectancy,2022.2.4,MacIntel,60.0024001,Chrome,1553,971,,,,,0,621,,,,,,,,,,,,,,,,,146,H,star,1,0,,,,,,,,,,,,,,,,switch,letter,lettSwt,j,0.5851,noRew,,,,,,0,19,0,19,0,1,,,,,,,,,,,,,,,,,
292792,2022-10-04_15h01.05.621,vts_reward_expectancy,2022.2.4,MacIntel,60.0024001,Chrome,1553,971,,,,,0,621,,,,,,,,,,,,,,,,,146,B,hexagon,1,0,,,,,,,,,,,,,,,,repeat,letter,lettRpt,j,0.5833,noRew,,,,,,0,20,0,20,0,1,,,,,,,,,,,,,,,,,
292792,2022-10-04_15h01.05.621,vts_reward_expectancy,2022.2.4,MacIntel,60.0024001,Chrome,1553,971,,,,,0,621,,,,,,,,,,,,,,,,,132,S,triangle,1,0,,,,,,,,,,,,,,,,switch,number,numSwt,d,0.6191,noRew,,,,,,0,21,0,21,0,1,,,,,,,,,,,,,,,,,
292792,2022-10-04_15h01.05.621,vts_reward_expectancy,2022.2.4,MacIntel,60.0024001,Chrome,1553,971,,,,,0,621,,,,,,,,,,,,,,,,,139,W,circle,1,0,,,,,,,,,,,,,,,,switch,letter,lettSwt,k,0.5504,noRew,,,,,,0,22,0,22,0,1,,,,,,,,,,,,,,,,,
292792,2022-10-04_15h01.05.621,vts_reward_expectancy,2022.2.4,MacIntel,60.0024001,Chrome,1553,971,,,,,0,621,,,,,,,,,,,,,,,,,181,Y,triangle,1,0,,,,,,,,,,,,,,,,repeat,letter,lettRpt,k,0.5044,noRew,,,,,,0,23,0,23,0,1,,,,,,,,,,,,,,,,,
292792,2022-10-04_15h01.05.621,vts_reward_expectancy,2022.2.4,MacIntel,60.0024001,Chrome,1553,971,,,,,0,621,,,,,,,,,,,,,,,,,181,W,star,1,0,,,,,,,,,,,,,,,,switch,number,numSwt,f,0.5167,noRew,,,,,,0,24,0,24,0,1,,,,,,,,,,,,,,,,,
292792,2022-10-04_15h01.05.621,vts_reward_expectancy,2022.2.4,MacIntel,60.0024001,Chrome,1553,971,,,,,0,621,,,,,,,,,,,,,,,,,167,B,triangle,1,0,,,,,,,,,,,,,,,,switch,letter,lettSwt,j,0.6319,noRew,,,,,,0,25,0,25,0,1,,,,,,,,,,,,,,,,,
292792,2022-10-04_15h01.05.621,vts_reward_expectancy,2022.2.4,MacIntel,60.0024001,Chrome,1553,971,,,,,0,621,,,,,,,,,,,,,,,,,132,U,triangle,1,0,,,,,,,,,,,,,,,,repeat,letter,lettRpt,k,0.8304,noRew,,,,,,0,26,0,26,0,1,,,,,,,,,,,,,,,,,
292792,2022-10-04_15h01.05.621,vts_reward_expectancy,2022.2.4,MacIntel,60.0024001,Chrome,1553,971,,,,,0,621,,,,,,,,,,,,,,,,,174,S,star,1,0,,,,,,,,,,,,,,,,switch,number,numSwt,f,0.5297,noRew,,,,,,0,27,0,27,0,1,,,,,,,,,,,,,,,,,
292792,2022-10-04_15h01.05.621,vts_reward_expectancy,2022.2.4,MacIntel,60.0024001,Chrome,1553,971,,,,,0,621,,,,,,,,,,,,,,,,,181,H,star,1,0,,,,,,,,,,,,,,,,repeat,number,numRpt,f,0.6017,noRew,,,,,,0,28,0,28,0,1,,,,,,,,,,,,,,,,,
292792,2022-10-04_15h01.05.621,vts_reward_expectancy,2022.2.4,MacIntel,60.0024001,Chrome,1553,971,,,,,0,621,,,,,,,,,,,,,,,,,160,B,hexagon,1,0,,,,,,,,,,,,,,,,switch,letter,lettSwt,j,0.4816,noRew,,,,,,0,29,0,29,0,1,,,,,,,,,,,,,,,,,
292792,2022-10-04_15h01.05.621,vts_reward_expectancy,2022.2.4,MacIntel,60.0024001,Chrome,1553,971,,,,,0,621,,,,,,,,,,,,,,,,,167,W,hexagon,1,0,,,,,,,,,,,,,,,,repeat,letter,lettRpt,k,0.5362,noRew,,,,,,0,30,0,30,0,1,,,,,,,,,,,,,,,,,
292792,2022-10-04_15h01.05.621,vts_reward_expectancy,2022.2.4,MacIntel,60.0024001,Chrome,1553,971,,,,,0,621,,,,,,,,,,,,,,,,,125,F,triangle,1,0,,,,,,,,,,,,,,,,switch,number,numSwt,d,0.549,noRew,,,,,,0,31,0,31,0,1,,,,,,,,,,,,,,,,,
292792,2022-10-04_15h01.05.621,vts_reward_expectancy,2022.2.4,MacIntel,60.0024001,Chrome,1553,971,,,,,0,621,,,,,,,,,,,,,,,,,139,W,hexagon,1,0,,,,,,,,,,,,,,,,switch,letter,lettSwt,k,0.6161,noRew,,,,,,0,32,0,32,0,1,,,,,,,,,,,,,,,,,
292792,2022-10-04_15h01.05.621,vts_reward_expectancy,2022.2.4,MacIntel,60.0024001,Chrome,1553,971,,,,,0,621,,,,,,,,,,,,,,,,,160,S,circle,1,0,,,,,,,,,,,,,,,,repeat,letter,lettRpt,k,0.6494,noRew,,,,,,0,33,0,33,0,1,,,,,,,,,,,,,,,,,
292792,2022-10-04_15h01.05.621,vts_reward_expectancy,2022.2.4,MacIntel,60.0024001,Chrome,1553,971,,,,,0,621,,,,,,,,,,,,,,,,,174,H,star,1,0,,,,,,,,,,,,,,,,repeat,letter,lettRpt,j,0.6493,noRew,,,,,,0,34,0,34,0,1,,,,,,,,,,,,,,,,,
292792,2022-10-04_15h01.05.621,vts_reward_expectancy,2022.2.4,MacIntel,60.0024001,Chrome,1553,971,,,,,0,621,,,,,,,,,,,,,,,,,167,Y,circle,1,0,,,,,,,,,,,,,,,,repeat,letter,lettRpt,k,0.615,noRew,,,,,,0,35,0,35,0,1,,,,,,,,,,,,,,,,,
292792,2022-10-04_15h01.05.621,vts_reward_expectancy,2022.2.4,MacIntel,60.0024001,Chrome,1553,971,,,,,0,621,,,,,,,,,,,,,,,,,139,B,star,1,0,,,,,,,,,,,,,,,,switch,number,numSwt,d,0.6863,noRew,,,,,,0,36,0,36,0,1,,,,,,,,,,,,,,,,,
292792,2022-10-04_15h01.05.621,vts_reward_expectancy,2022.2.4,MacIntel,60.0024001,Chrome,1553,971,,,,,0,621,,,,,,,,,,,,,,,,,125,D,circle,1,0,,,,,,,,,,,,,,,,repeat,number,numRpt,d,0.6163,noRew,,,,,,0,37,0,37,0,1,,,,,,,,,,,,,,,,,
292792,2022-10-04_15h01.05.621,vts_reward_expectancy,2022.2.4,MacIntel,60.0024001,Chrome,1553,971,,,,,0,621,,,,,,,,,,,,,,,,,132,U,hexagon,1,0,,,,,,,,,,,,,,,,switch,letter,lettSwt,k,0.7525,noRew,,,,,,0,38,0,38,0,1,,,,,,,,,,,,,,,,,
292792,2022-10-04_15h01.05.621,vts_reward_expectancy,2022.2.4,MacIntel,60.0024001,Chrome,1553,971,,,,,0,621,,,,,,,,,,,,,,,,,181,S,triangle,1,0,,,,,,,,,,,,,,,,repeat,letter,lettRpt,k,0.5827,noRew,,,,,,0,39,0,39,0,1,,,,,,,,,,,,,,,,,
292792,2022-10-04_15h01.05.621,vts_reward_expectancy,2022.2.4,MacIntel,60.0024001,Chrome,1553,971,,,,,0,621,,,,,,,,,,,,,,,,,139,Y,triangle,1,0,,,,,,,,,,,,,,,,switch,number,numSwt,d,0.5703,noRew,,,,,,0,40,0,40,0,1,,,,,,,,,,,,,,,,,
292792,2022-10-04_15h01.05.621,vts_reward_expectancy,2022.2.4,MacIntel,60.0024001,Chrome,1553,971,,,,,0,621,,,,,,,,,,,,,,,,,160,D,hexagon,1,0,,,,,,,,,,,,,,,,repeat,number,numRpt,f,0.6183,noRew,,,,,,0,41,0,41,0,1,,,,,,,,,,,,,,,,,
292792,2022-10-04_15h01.05.621,vts_reward_expectancy,2022.2.4,MacIntel,60.0024001,Chrome,1553,971,,,,,0,621,,,,,,,,,,,,,,,,,167,H,triangle,1,0,,,,,,,,,,,,,,,,repeat,number,numRpt,f,0.6327,noRew,,,,,,0,42,0,42,0,1,,,,,,,,,,,,,,,,,
292792,2022-10-04_15h01.05.621,vts_reward_expectancy,2022.2.4,MacIntel,60.0024001,Chrome,1553,971,,,,,0,621,,,,,,,,,,,,,,,,,125,U,hexagon,1,0,,,,,,,,,,,,,,,,switch,letter,lettSwt,k,0.548,noRew,,,,,,0,43,0,43,0,1,,,,,,,,,,,,,,,,,
292792,2022-10-04_15h01.05.621,vts_reward_expectancy,2022.2.4,MacIntel,60.0024001,Chrome,1553,971,,,,,0,621,,,,,,,,,,,,,,,,,132,H,circle,1,0,,,,,,,,,,,,,,,,repeat,letter,lettRpt,j,0.6025,noRew,,,,,,0,44,0,44,0,1,,,,,,,,,,,,,,,,,
292792,2022-10-04_15h01.05.621,vts_reward_expectancy,2022.2.4,MacIntel,60.0024001,Chrome,1553,971,,,,,0,621,,,,,,,,,,,,,,,,,174,F,triangle,1,0,,,,,,,,,,,,,,,,switch,number,numSwt,f,0.6645,noRew,,,,,,0,45,0,45,0,1,,,,,,,,,,,,,,,,,
292792,2022-10-04_15h01.05.621,vts_reward_expectancy,2022.2.4,MacIntel,60.0024001,Chrome,1553,971,,,,,0,621,,,,,,,,,,,,,,,,,181,Y,star,1,0,,,,,,,,,,,,,,,,repeat,number,numRpt,f,0.7214,noRew,,,,,,0,46,0,46,0,1,,,,,,,,,,,,,,,,,
292792,2022-10-04_15h01.05.621,vts_reward_expectancy,2022.2.4,MacIntel,60.0024001,Chrome,1553,971,,,,,0,621,,,,,,,,,,,,,,,,,125,D,hexagon,1,0,,,,,,,,,,,,,,,,switch,letter,lettSwt,j,0.5652,noRew,,,,,,0,47,0,47,0,1,,,,,,,,,,,,,,,,,
292792,2022-10-04_15h01.05.621,vts_reward_expectancy,2022.2.4,MacIntel,60.0024001,Chrome,1553,971,,,,,0,621,,,,,,,,,,,,,,,,,125,W,circle,1,0,,,,,,,,,,,,,,,,switch,number,numSwt,d,0.7331,noRew,,,,,,0,48,0,48,0,1,,,,,,,,,,,,,,,,,
292792,2022-10-04_15h01.05.621,vts_reward_expectancy,2022.2.4,MacIntel,60.0024001,Chrome,1553,971,,,,,0,621,,,,,,,,,,,,,,,,,167,U,hexagon,1,0,,,,,,,,,,,,,,,,repeat,number,numRpt,f,0.6665,noRew,,,,,,0,49,0,49,0,1,,,,,,,,,,,,,,,,,
292792,2022-10-04_15h01.05.621,vts_reward_expectancy,2022.2.4,MacIntel,60.0024001,Chrome,1553,971,,,,,0,621,,,,,,,,,,,,,,,,,160,H,hexagon,1,0,,,,,,,,,,,,,,,,repeat,number,numRpt,f,0.5344,noRew,,,,,,0,50,0,50,0,1,,,,,,,,,,,,,,,,,
292792,2022-10-04_15h01.05.621,vts_reward_expectancy,2022.2.4,MacIntel,60.0024001,Chrome,1553,971,,,,,0,621,,,,,,,,,,,,,,,,,174,D,star,1,0,,,,,,,,,,,,,,,,repeat,number,numRpt,f,0.6161,noRew,,,,,,0,51,0,51,0,1,,,,,,,,,,,,,,,,,
292792,2022-10-04_15h01.05.621,vts_reward_expectancy,2022.2.4,MacIntel,60.0024001,Chrome,1553,971,,,,,0,621,,,,,,,,,,,,,,,,,132,B,star,1,0,,,,,,,,,,,,,,,,switch,letter,lettSwt,j,0.4633,noRew,,,,,,0,52,0,52,0,1,,,,,,,,,,,,,,,,,
292792,2022-10-04_15h01.05.621,vts_reward_expectancy,2022.2.4,MacIntel,60.0024001,Chrome,1553,971,,,,,0,621,,,,,,,,,,,,,,,,,139,S,triangle,1,0,,,,,,,,,,,,,,,,repeat,letter,lettRpt,k,0.5692,noRew,,,,,,0,53,0,53,0,1,,,,,,,,,,,,,,,,,
292792,2022-10-04_15h01.05.621,vts_reward_expectancy,2022.2.4,MacIntel,60.0024001,Chrome,1553,971,,,,,0,621,,,,,,,,,,,,,,,,,125,W,circle,1,0,,,,,,,,,,,,,,,,switch,number,numSwt,d,0.5641,noRew,,,,,,0,54,0,54,0,1,,,,,,,,,,,,,,,,,
292792,2022-10-04_15h01.05.621,vts_reward_expectancy,2022.2.4,MacIntel,60.0024001,Chrome,1553,971,,,,,0,621,,,,,,,,,,,,,,,,,174,U,star,1,0,,,,,,,,,,,,,,,,switch,letter,lettSwt,k,0.6505,noRew,,,,,,0,55,0,55,0,1,,,,,,,,,,,,,,,,,
292792,2022-10-04_15h01.05.621,vts_reward_expectancy,2022.2.4,MacIntel,60.0024001,Chrome,1553,971,,,,,0,621,,,,,,,,,,,,,,,,,132,F,triangle,1,0,,,,,,,,,,,,,,,,switch,number,numSwt,d,0.7034,noRew,,,,,,0,56,0,56,0,1,,,,,,,,,,,,,,,,,
292792,2022-10-04_15h01.05.621,vts_reward_expectancy,2022.2.4,MacIntel,60.0024001,Chrome,1553,971,,,,,0,621,,,,,,,,,,,,,,,,,125,H,hexagon,1,0,,,,,,,,,,,,,,,,switch,letter,lettSwt,j,0.8045,noRew,,,,,,0,57,0,57,0,1,,,,,,,,,,,,,,,,,
292792,2022-10-04_15h01.05.621,vts_reward_expectancy,2022.2.4,MacIntel,60.0024001,Chrome,1553,971,,,,,0,621,,,,,,,,,,,,,,,,,146,Y,circle,1,0,,,,,,,,,,,,,,,,switch,number,numSwt,d,0.7359,noRew,,,,,,0,58,0,58,0,1,,,,,,,,,,,,,,,,,
292792,2022-10-04_15h01.05.621,vts_reward_expectancy,2022.2.4,MacIntel,60.0024001,Chrome,1553,971,,,,,0,621,,,,,,,,,,,,,,,,,181,S,triangle,1,0,,,,,,,,,,,,,,,,switch,letter,lettSwt,k,0.6633,noRew,,,,,,0,59,0,59,0,1,,,,,,,,,,,,,,,,,
292792,2022-10-04_15h01.05.621,vts_reward_expectancy,2022.2.4,MacIntel,60.0024001,Chrome,1553,971,,,,,0,621,,,,,,,,,,,,,,,,,174,H,triangle,1,0,,,,,,,,,,,,,,,,switch,number,numSwt,f,0.5813,noRew,,,,,,0,60,0,60,0,1,,,,,,,,,,,,,,,,,
292792,2022-10-04_15h01.05.621,vts_reward_expectancy,2022.2.4,MacIntel,60.0024001,Chrome,1553,971,,,,,0,621,,,,,,,,,,,,,,,,,167,W,star,1,0,,,,,,,,,,,,,,,,repeat,number,numRpt,f,0.6654,noRew,,,,,,0,61,0,61,0,1,,,,,,,,,,,,,,,,,
292792,2022-10-04_15h01.05.621,vts_reward_expectancy,2022.2.4,MacIntel,60.0024001,Chrome,1553,971,,,,,0,621,,,,,,,,,,,,,,,,,160,F,triangle,1,0,,,,,,,,,,,,,,,,switch,letter,lettSwt,j,0.6651,noRew,,,,,,0,62,0,62,0,1,,,,,,,,,,,,,,,,,
292792,2022-10-04_15h01.05.621,vts_reward_expectancy,2022.2.4,MacIntel,60.0024001,Chrome,1553,971,,,,,0,621,,,,,,,,,,,,,,,,,181,S,star,1,0,,,,,,,,,,,,,,,,switch,number,numSwt,f,0.5157,noRew,,,,,,0,63,0,63,0,1,,,,,,,,,,,,,,,,,
292792,2022-10-04_15h01.05.621,vts_reward_expectancy,2022.2.4,MacIntel,60.0024001,Chrome,1553,971,,,,,,,,,,,,,,,,,,,,,,,,,,,,,,,,,,,,,,,,,,,,,,,,,,,,,,,,,,,,,,,,,,,,,,,,,,,,
292792,2022-10-04_15h01.05.621,vts_reward_expectancy,2022.2.4,MacIntel,60.0024001,Chrome,1553,971,,,,,1,622,,,,,,,,,,,,,,,,,139,U,triangle,1,0,,,,,,,,,,,,,,,,switch,letter,lettSwt,k,0.6367,Lo,,,,,,0,,,,,,space,4.5204,low,0,0,0,0,1,,,,,,,,,
292792,2022-10-04_15h01.05.621,vts_reward_expectancy,2022.2.4,MacIntel,60.0024001,Chrome,1553,971,,,,,1,623,,,,,,,,,,,,,,,,,132,D,circle,1,0,,,,,,,,,,,,,,,,switch,number,numSwt,d,0.4857,Hi,,,,,,0,,,,,,,,low,1,0,1,0,1,,,,,,,,,
292792,2022-10-04_15h01.05.621,vts_reward_expectancy,2022.2.4,MacIntel,60.0024001,Chrome,1553,971,,,,,1,624,,,,,,,,,,,,,,,,,160,S,triangle,1,0,,,,,,,,,,,,,,,,switch,letter,lettSwt,k,0.632,Lo,,,,,,0,,,,,,,,low,2,0,2,0,1,,,,,,,,,
292792,2022-10-04_15h01.05.621,vts_reward_expectancy,2022.2.4,MacIntel,60.0024001,Chrome,1553,971,,,,,0,624,,,,,,,,,,,,,,,,,125,B,circle,1,0,,,,,,,,,,,,,,,,repeat,letter,lettRpt,j,0.755,Hi,,,,,,0,,,,,,,,low,3,0,3,0,1,,,,,,,,,
292792,2022-10-04_15h01.05.621,vts_reward_expectancy,2022.2.4,MacIntel,60.0024001,Chrome,1553,971,,,,,10,634,,,,,,,,,,,,,,,,,174,F,circle,1,0,,,,,,,,,,,,,,,,repeat,letter,lettRpt,j,0.566,Hi,,,,,,0,,,,,,,,low,4,0,4,0,1,,,,,,,,,
292792,2022-10-04_15h01.05.621,vts_reward_expectancy,2022.2.4,MacIntel,60.0024001,Chrome,1553,971,,,,,1,635,,,,,,,,,,,,,,,,,167,Y,triangle,1,0,,,,,,,,,,,,,,,,switch,number,numSwt,f,0.7465,Lo,,,,,,0,,,,,,,,low,5,0,5,0,1,,,,,,,,,
292792,2022-10-04_15h01.05.621,vts_reward_expectancy,2022.2.4,MacIntel,60.0024001,Chrome,1553,971,,,,,1,636,,,,,,,,,,,,,,,,,146,H,circle,1,0,,,,,,,,,,,,,,,,switch,letter,lettSwt,j,0.4495,Hi,,,,,,0,,,,,,,,low,6,0,6,0,1,,,,,,,,,
292792,2022-10-04_15h01.05.621,vts_reward_expectancy,2022.2.4,MacIntel,60.0024001,Chrome,1553,971,,,,,1,637,,,,,,,,,,,,,,,,,181,W,triangle,1,0,,,,,,,,,,,,,,,,switch,number,numSwt,f,0.5491,Lo,,,,,,0,,,,,,,,low,7,0,7,0,1,,,,,,,,,
292792,2022-10-04_15h01.05.621,vts_reward_expectancy,2022.2.4,MacIntel,60.0024001,Chrome,1553,971,,,,,10,647,,,,,,,,,,,,,,,,,139,U,triangle,1,0,,,,,,,,,,,,,,,,repeat,number,numRpt,d,0.6156,Lo,,,,,,0,,,,,,,,low,8,0,8,0,1,,,,,,,,,
292792,2022-10-04_15h01.05.621,vts_reward_expectancy,2022.2.4,MacIntel,60.0024001,Chrome,1553,971,,,,,10,657,,,,,,,,,,,,,,,,,132,D,circle,1,0,,,,,,,,,,,,,,,,switch,letter,lettSwt,j,0.5489,Hi,,,,,,0,,,,,,,,low,9,0,9,0,1,,,,,,,,,
292792,2022-10-04_15h01.05.621,vts_reward_expectancy,2022.2.4,MacIntel,60.0024001,Chrome,1553,971,,,,,0,657,,,,,,,,,,,,,,,,,160,S,circle,1,0,,,,,,,,,,,,,,,,repeat,letter,lettRpt,k,0.6536,Hi,,,,,,0,,,,,,,,low,10,0,10,0,1,,,,,,,,,
292792,2022-10-04_15h01.05.621,vts_reward_expectancy,2022.2.4,MacIntel,60.0024001,Chrome,1553,971,,,,,1,658,,,,,,,,,,,,,,,,,125,B,triangle,1,0,,,,,,,,,,,,,,,,switch,number,numSwt,d,0.482,Lo,,,,,,0,,,,,,,,low,11,0,11,0,1,,,,,,,,,
292792,2022-10-04_15h01.05.621,vts_reward_expectancy,2022.2.4,MacIntel,60.0024001,Chrome,1553,971,,,,,1,659,,,,,,,,,,,,,,,,,174,F,triangle,1,0,,,,,,,,,,,,,,,,switch,letter,lettSwt,j,0.4653,Lo,,,,,,0,,,,,,,,low,12,0,12,0,1,,,,,,,,,
292792,2022-10-04_15h01.05.621,vts_reward_expectancy,2022.2.4,MacIntel,60.0024001,Chrome,1553,971,,,,,0,659,,,,,,,,,,,,,,,,,167,Y,circle,1,0,,,,,,,,,,,,,,,,switch,number,numSwt,f,0.7311,Hi,,,,,,0,,,,,,,,low,13,0,13,0,1,,,,,,,,,
292792,2022-10-04_15h01.05.621,vts_reward_expectancy,2022.2.4,MacIntel,60.0024001,Chrome,1553,971,,,,,1,660,,,,,,,,,,,,,,,,,146,H,triangle,1,0,,,,,,,,,,,,,,,,repeat,number,numRpt,d,0.5313,Lo,,,,,,0,,,,,,,,low,14,0,14,0,1,,,,,,,,,
292792,2022-10-04_15h01.05.621,vts_reward_expectancy,2022.2.4,MacIntel,60.0024001,Chrome,1553,971,,,,,10,670,,,,,,,,,,,,,,,,,181,W,circle,1,0,,,,,,,,,,,,,,,,repeat,number,numRpt,f,0.4491,Hi,,,,,,0,,,,,,,,low,15,0,15,0,1,,,,,,,,,
292792,2022-10-04_15h01.05.621,vts_reward_expectancy,2022.2.4,MacIntel,60.0024001,Chrome,1553,971,,,,,1,671,,,,,,,,,,,,,,,,,160,F,triangle,1,0,,,,,,,,,,,,,,,,switch,letter,lettSwt,j,0.7139,Lo,,,,,,0,,,,,,,,low,16,0,16,0,1,,,,,,,,,
292792,2022-10-04_15h01.05.621,vts_reward_expectancy,2022.2.4,MacIntel,60.0024001,Chrome,1553,971,,,,,0,671,,,,,,,,,,,,,,,,,181,S,circle,1,0,,,,,,,,,,,,,,,,switch,number,numSwt,f,0.5724,Hi,,,,,,0,,,,,,,,low,17,0,17,0,1,,,,,,,,,
292792,2022-10-04_15h01.05.621,vts_reward_expectancy,2022.2.4,MacIntel,60.0024001,Chrome,1553,971,,,,,10,681,,,,,,,,,,,,,,,,,174,Y,triangle,1,0,,,,,,,,,,,,,,,,switch,letter,lettSwt,k,0.7351,Lo,,,,,,0,,,,,,,,low,18,0,18,0,1,,,,,,,,,
292792,2022-10-04_15h01.05.621,vts_reward_expectancy,2022.2.4,MacIntel,60.0024001,Chrome,1553,971,,,,,10,691,,,,,,,,,,,,,,,,,132,D,circle,1,0,,,,,,,,,,,,,,,,switch,number,numSwt,d,0.363,Hi,,,,,,0,,,,,,,,low,19,0,19,0,1,,,,,,,,,
292792,2022-10-04_15h01.05.621,vts_reward_expectancy,2022.2.4,MacIntel,60.0024001,Chrome,1553,971,,,,,0,691,,,,,,,,,,,,,,,,,139,H,triangle,0,0,,,,,,,,,,,,,,,,switch,letter,NA,k,0.5319,Hi,,,,,,0,,,,,,,,low,20,0,20,0,1,,,,,,,,,
292792,2022-10-04_15h01.05.621,vts_reward_expectancy,2022.2.4,MacIntel,60.0024001,Chrome,1553,971,,,,,10,701,,,,,,,,,,,,,,,,,167,U,circle,1,1,,,,,,,,,,,,,,,,switch,number,numSwt,f,0.5508,Hi,,,,,,0,,,,,,,,low,21,0,21,0,1,,,,,,,,,
292792,2022-10-04_15h01.05.621,vts_reward_expectancy,2022.2.4,MacIntel,60.0024001,Chrome,1553,971,,,,,10,711,,,,,,,,,,,,,,,,,125,W,triangle,1,0,,,,,,,,,,,,,,,,switch,letter,lettSwt,k,0.6329,Lo,,,,,,0,,,,,,,,low,22,0,22,0,1,,,,,,,,,
292792,2022-10-04_15h01.05.621,vts_reward_expectancy,2022.2.4,MacIntel,60.0024001,Chrome,1553,971,,,,,10,721,,,,,,,,,,,,,,,,,146,B,circle,1,0,,,,,,,,,,,,,,,,switch,number,numSwt,d,0.4665,Hi,,,,,,0,,,,,,,,low,23,0,23,0,1,,,,,,,,,
292792,2022-10-04_15h01.05.621,vts_reward_expectancy,2022.2.4,MacIntel,60.0024001,Chrome,1553,971,,,,,10,731,,,,,,,,,,,,,,,,,181,S,triangle,1,0,,,,,,,,,,,,,,,,switch,letter,lettSwt,k,0.5993,Lo,,,,,,0,,,,,,,,low,24,0,24,0,1,,,,,,,,,
292792,2022-10-04_15h01.05.621,vts_reward_expectancy,2022.2.4,MacIntel,60.0024001,Chrome,1553,971,,,,,1,732,,,,,,,,,,,,,,,,,146,W,circle,1,0,,,,,,,,,,,,,,,,switch,number,numSwt,d,0.4653,Hi,,,,,,0,,,,,,,,low,25,0,25,0,1,,,,,,,,,
292792,2022-10-04_15h01.05.621,vts_reward_expectancy,2022.2.4,MacIntel,60.0024001,Chrome,1553,971,,,,,10,742,,,,,,,,,,,,,,,,,174,B,circle,1,0,,,,,,,,,,,,,,,,repeat,number,numRpt,f,0.5488,Hi,,,,,,0,,,,,,,,low,26,0,26,0,1,,,,,,,,,
292792,2022-10-04_15h01.05.621,vts_reward_expectancy,2022.2.4,MacIntel,60.0024001,Chrome,1553,971,,,,,1,743,,,,,,,,,,,,,,,,,132,D,triangle,1,0,,,,,,,,,,,,,,,,switch,letter,lettSwt,j,0.5817,Lo,,,,,,0,,,,,,,,low,27,0,27,0,1,,,,,,,,,
292792,2022-10-04_15h01.05.621,vts_reward_expectancy,2022.2.4,MacIntel,60.0024001,Chrome,1553,971,,,,,1,744,,,,,,,,,,,,,,,,,167,U,triangle,1,0,,,,,,,,,,,,,,,,switch,number,numSwt,f,0.4319,Lo,,,,,,0,,,,,,,,low,28,0,28,0,1,,,,,,,,,
292792,2022-10-04_15h01.05.621,vts_reward_expectancy,2022.2.4,MacIntel,60.0024001,Chrome,1553,971,,,,,0,744,,,,,,,,,,,,,,,,,139,F,circle,1,0,,,,,,,,,,,,,,,,repeat,number,numRpt,d,0.637,Hi,,,,,,0,,,,,,,,low,29,0,29,0,1,,,,,,,,,
292792,2022-10-04_15h01.05.621,vts_reward_expectancy,2022.2.4,MacIntel,60.0024001,Chrome,1553,971,,,,,1,745,,,,,,,,,,,,,,,,,160,H,circle,1,0,,,,,,,,,,,,,,,,repeat,number,numRpt,f,0.4999,Hi,,,,,,0,,,,,,,,low,30,0,30,0,1,,,,,,,,,
292792,2022-10-04_15h01.05.621,vts_reward_expectancy,2022.2.4,MacIntel,60.0024001,Chrome,1553,971,,,,,10,755,,,,,,,,,,,,,,,,,125,Y,triangle,1,0,,,,,,,,,,,,,,,,switch,letter,lettSwt,k,0.4651,Lo,,,,,,0,,,,,,,,low,31,0,31,0,1,,,,,,,,,
292792,2022-10-04_15h01.05.621,vts_reward_expectancy,2022.2.4,MacIntel,60.0024001,Chrome,1553,971,,,,,0,755,,,,,,,,,,,,,,,,,160,H,hexagon,1,0,,,,,,,,,,,,,,,,switch,number,numSwt,f,0.5654,Hi,,,,,,1,,,,,,space,1.0387,high,0,0,0,0,1,,,,,,,,,
292792,2022-10-04_15h01.05.621,vts_reward_expectancy,2022.2.4,MacIntel,60.0024001,Chrome,1553,971,,,,,10,765,,,,,,,,,,,,,,,,,174,W,star,1,0,,,,,,,,,,,,,,,,switch,letter,lettSwt,k,0.4688,Lo,,,,,,1,,,,,,,,high,1,0,1,0,1,,,,,,,,,
292792,2022-10-04_15h01.05.621,vts_reward_expectancy,2022.2.4,MacIntel,60.0024001,Chrome,1553,971,,,,,10,775,,,,,,,,,,,,,,,,,139,D,hexagon,1,0,,,,,,,,,,,,,,,,switch,number,numSwt,d,0.3322,Hi,,,,,,1,,,,,,,,high,2,0,2,0,1,,,,,,,,,
292792,2022-10-04_15h01.05.621,vts_reward_expectancy,2022.2.4,MacIntel,60.0024001,Chrome,1553,971,,,,,1,776,,,,,,,,,,,,,,,,,132,B,star,1,0,,,,,,,,,,,,,,,,switch,letter,lettSwt,j,0.5186,Lo,,,,,,1,,,,,,,,high,3,0,3,0,1,,,,,,,,,
292792,2022-10-04_15h01.05.621,vts_reward_expectancy,2022.2.4,MacIntel,60.0024001,Chrome,1553,971,,,,,1,777,,,,,,,,,,,,,,,,,125,Y,star,1,0,,,,,,,,,,,,,,,,repeat,letter,lettRpt,k,0.5319,Lo,,,,,,1,,,,,,,,high,4,0,4,0,1,,,,,,,,,
292792,2022-10-04_15h01.05.621,vts_reward_expectancy,2022.2.4,MacIntel,60.0024001,Chrome,1553,971,,,,,10,787,,,,,,,,,,,,,,,,,181,F,hexagon,1,0,,,,,,,,,,,,,,,,switch,number,numSwt,f,0.449,Hi,,,,,,1,,,,,,,,high,5,0,5,0,1,,,,,,,,,
292792,2022-10-04_15h01.05.621,vts_reward_expectancy,2022.2.4,MacIntel,60.0024001,Chrome,1553,971,,,,,0,787,,,,,,,,,,,,,,,,,146,S,star,0,0,,,,,,,,,,,,,,,,repeat,number,NA,f,0.4999,Hi,,,,,,1,,,,,,,,high,6,0,6,0,1,,,,,,,,,
292792,2022-10-04_15h01.05.621,vts_reward_expectancy,2022.2.4,MacIntel,60.0024001,Chrome,1553,971,,,,,0,787,,,,,,,,,,,,,,,,,167,U,hexagon,1,1,,,,,,,,,,,,,,,,repeat,number,numRpt,f,0.6375,Hi,,,,,,1,,,,,,,,high,7,0,7,0,1,,,,,,,,,
292792,2022-10-04_15h01.05.621,vts_reward_expectancy,2022.2.4,MacIntel,60.0024001,Chrome,1553,971,,,,,1,788,,,,,,,,,,,,,,,,,160,H,star,1,0,,,,,,,,,,,,,,,,switch,letter,lettSwt,j,0.4145,Lo,,,,,,1,,,,,,,,high,8,0,8,0,1,,,,,,,,,
292792,2022-10-04_15h01.05.621,vts_reward_expectancy,2022.2.4,MacIntel,60.0024001,Chrome,1553,971,,,,,0,788,,,,,,,,,,,,,,,,,174,W,hexagon,1,0,,,,,,,,,,,,,,,,switch,number,numSwt,f,0.5157,Hi,,,,,,1,,,,,,,,high,9,0,9,0,1,,,,,,,,,
292792,2022-10-04_15h01.05.621,vts_reward_expectancy,2022.2.4,MacIntel,60.0024001,Chrome,1553,971,,,,,0,788,,,,,,,,,,,,,,,,,139,D,hexagon,0,0,,,,,,,,,,,,,,,,repeat,number,NA,f,0.335,Hi,,,,,,1,,,,,,,,high,10,0,10,0,1,,,,,,,,,
292792,2022-10-04_15h01.05.621,vts_reward_expectancy,2022.2.4,MacIntel,60.0024001,Chrome,1553,971,,,,,0,788,,,,,,,,,,,,,,,,,132,B,star,0,1,,,,,,,,,,,,,,,,switch,letter,NA,k,0.5201,Hi,,,,,,1,,,,,,,,high,11,0,11,0,1,,,,,,,,,
292792,2022-10-04_15h01.05.621,vts_reward_expectancy,2022.2.4,MacIntel,60.0024001,Chrome,1553,971,,,,,1,789,,,,,,,,,,,,,,,,,125,Y,star,1,1,,,,,,,,,,,,,,,,repeat,letter,lettRpt,k,0.516,Lo,,,,,,1,,,,,,,,high,12,0,12,0,1,,,,,,,,,
292792,2022-10-04_15h01.05.621,vts_reward_expectancy,2022.2.4,MacIntel,60.0024001,Chrome,1553,971,,,,,0,789,,,,,,,,,,,,,,,,,181,F,hexagon,1,0,,,,,,,,,,,,,,,,switch,number,numSwt,f,0.4815,Hi,,,,,,1,,,,,,,,high,13,0,13,0,1,,,,,,,,,
292792,2022-10-04_15h01.05.621,vts_reward_expectancy,2022.2.4,MacIntel,60.0024001,Chrome,1553,971,,,,,1,790,,,,,,,,,,,,,,,,,146,S,star,1,0,,,,,,,,,,,,,,,,repeat,number,numRpt,d,0.5506,Lo,,,,,,1,,,,,,,,high,14,0,14,0,1,,,,,,,,,
292792,2022-10-04_15h01.05.621,vts_reward_expectancy,2022.2.4,MacIntel,60.0024001,Chrome,1553,971,,,,,0,790,,,,,,,,,,,,,,,,,167,U,hexagon,0,0,,,,,,,,,,,,,,,,repeat,number,NA,d,0.3688,Lo,,,,,,1,,,,,,,,high,15,0,15,0,1,,,,,,,,,
292792,2022-10-04_15h01.05.621,vts_reward_expectancy,2022.2.4,MacIntel,60.0024001,Chrome,1553,971,,,,,1,791,,,,,,,,,,,,,,,,,139,U,hexagon,1,1,,,,,,,,,,,,,,,,repeat,number,numRpt,d,0.3836,Hi,,,,,,1,,,,,,,,high,16,0,16,0,1,,,,,,,,,
292792,2022-10-04_15h01.05.621,vts_reward_expectancy,2022.2.4,MacIntel,60.0024001,Chrome,1553,971,,,,,0,791,,,,,,,,,,,,,,,,,146,F,star,0,0,,,,,,,,,,,,,,,,switch,letter,NA,k,0.4827,Hi,,,,,,1,,,,,,,,high,17,0,17,0,1,,,,,,,,,
292792,2022-10-04_15h01.05.621,vts_reward_expectancy,2022.2.4,MacIntel,60.0024001,Chrome,1553,971,,,,,10,801,,,,,,,,,,,,,,,,,167,B,hexagon,1,1,,,,,,,,,,,,,,,,switch,number,numSwt,f,0.3814,Hi,,,,,,1,,,,,,,,high,18,0,18,0,1,,,,,,,,,
292792,2022-10-04_15h01.05.621,vts_reward_expectancy,2022.2.4,MacIntel,60.0024001,Chrome,1553,971,,,,,0,801,,,,,,,,,,,,,,,,,132,H,star,0,0,,,,,,,,,,,,,,,,switch,letter,NA,k,0.4534,Hi,,,,,,1,,,,,,,,high,19,0,19,0,1,,,,,,,,,
292792,2022-10-04_15h01.05.621,vts_reward_expectancy,2022.2.4,MacIntel,60.0024001,Chrome,1553,971,,,,,0,801,,,,,,,,,,,,,,,,,160,S,hexagon,1,1,,,,,,,,,,,,,,,,switch,number,numSwt,f,0.4829,Hi,,,,,,1,,,,,,,,high,20,0,20,0,1,,,,,,,,,
292792,2022-10-04_15h01.05.621,vts_reward_expectancy,2022.2.4,MacIntel,60.0024001,Chrome,1553,971,,,,,1,802,,,,,,,,,,,,,,,,,125,Y,star,1,0,,,,,,,,,,,,,,,,repeat,number,numRpt,d,0.3969,Lo,,,,,,1,,,,,,,,high,21,0,21,0,1,,,,,,,,,
292792,2022-10-04_15h01.05.621,vts_reward_expectancy,2022.2.4,MacIntel,60.0024001,Chrome,1553,971,,,,,1,803,,,,,,,,,,,,,,,,,181,D,star,1,0,,,,,,,,,,,,,,,,repeat,number,numRpt,f,0.5325,Lo,,,,,,1,,,,,,,,high,22,0,22,0,1,,,,,,,,,
292792,2022-10-04_15h01.05.621,vts_reward_expectancy,2022.2.4,MacIntel,60.0024001,Chrome,1553,971,,,,,10,813,,,,,,,,,,,,,,,,,174,W,hexagon,1,0,,,,,,,,,,,,,,,,switch,letter,lettSwt,k,0.5367,Hi,,,,,,1,,,,,,,,high,23,0,23,0,1,,,,,,,,,
292792,2022-10-04_15h01.05.621,vts_reward_expectancy,2022.2.4,MacIntel,60.0024001,Chrome,1553,971,,,,,0,813,,,,,,,,,,,,,,,,,167,U,hexagon,1,0,,,,,,,,,,,,,,,,switch,number,numSwt,f,0.5215,Hi,,,,,,1,,,,,,,,high,24,0,24,0,1,,,,,,,,,
292792,2022-10-04_15h01.05.621,vts_reward_expectancy,2022.2.4,MacIntel,60.0024001,Chrome,1553,971,,,,,0,813,,,,,,,,,,,,,,,,,132,S,star,0,0,,,,,,,,,,,,,,,,repeat,number,NA,f,0.4158,Hi,,,,,,1,,,,,,,,high,25,0,25,0,1,,,,,,,,,
292792,2022-10-04_15h01.05.621,vts_reward_expectancy,2022.2.4,MacIntel,60.0024001,Chrome,1553,971,,,,,1,814,,,,,,,,,,,,,,,,,125,B,star,1,1,,,,,,,,,,,,,,,,repeat,number,numRpt,d,0.4367,Lo,,,,,,1,,,,,,,,high,26,0,26,0,1,,,,,,,,,
292792,2022-10-04_15h01.05.621,vts_reward_expectancy,2022.2.4,MacIntel,60.0024001,Chrome,1553,971,,,,,10,824,,,,,,,,,,,,,,,,,139,D,hexagon,1,0,,,,,,,,,,,,,,,,repeat,number,numRpt,d,0.4541,Hi,,,,,,1,,,,,,,,high,27,0,27,0,1,,,,,,,,,
292792,2022-10-04_15h01.05.621,vts_reward_expectancy,2022.2.4,MacIntel,60.0024001,Chrome,1553,971,,,,,10,834,,,,,,,,,,,,,,,,,181,W,hexagon,1,0,,,,,,,,,,,,,,,,switch,letter,lettSwt,k,0.4492,Hi,,,,,,1,,,,,,,,high,28,0,28,0,1,,,,,,,,,
292792,2022-10-04_15h01.05.621,vts_reward_expectancy,2022.2.4,MacIntel,60.0024001,Chrome,1553,971,,,,,1,835,,,,,,,,,,,,,,,,,160,F,star,1,0,,,,,,,,,,,,,,,,switch,number,numSwt,f,0.5835,Lo,,,,,,1,,,,,,,,high,29,0,29,0,1,,,,,,,,,
292792,2022-10-04_15h01.05.621,vts_reward_expectancy,2022.2.4,MacIntel,60.0024001,Chrome,1553,971,,,,,1,836,,,,,,,,,,,,,,,,,146,Y,star,1,0,,,,,,,,,,,,,,,,repeat,number,numRpt,d,0.5151,Lo,,,,,,1,,,,,,,,high,30,0,30,0,1,,,,,,,,,
292792,2022-10-04_15h01.05.621,vts_reward_expectancy,2022.2.4,MacIntel,60.0024001,Chrome,1553,971,,,,,10,846,,,,,,,,,,,,,,,,,174,H,hexagon,1,0,,,,,,,,,,,,,,,,repeat,number,numRpt,f,0.4983,Hi,,,,,,1,,,,,,,,high,31,0,31,0,1,,,,,,,,,
292792,2022-10-04_15h01.05.621,vts_reward_expectancy,2022.2.4,MacIntel,60.0024001,Chrome,1553,971,,,,,0,846,,,,,,,,,,,,,,,,,174,B,circle,1,0,,,,,,,,,,,,,,,,switch,letter,lettSwt,j,0.5335,Hi,,,,,,2,,,,,,space,0.9795,low,0,0,0,0,1,,,,,,,,,
292792,2022-10-04_15h01.05.621,vts_reward_expectancy,2022.2.4,MacIntel,60.0024001,Chrome,1553,971,,,,,1,847,,,,,,,,,,,,,,,,,181,U,triangle,1,0,,,,,,,,,,,,,,,,repeat,letter,lettRpt,k,0.5478,Lo,,,,,,2,,,,,,,,low,1,0,1,0,1,,,,,,,,,
292792,2022-10-04_15h01.05.621,vts_reward_expectancy,2022.2.4,MacIntel,60.0024001,Chrome,1553,971,,,,,0,847,,,,,,,,,,,,,,,,,139,W,circle,0,0,,,,,,,,,,,,,,,,switch,number,NA,f,0.4355,Lo,,,,,,2,,,,,,,,low,2,0,2,0,1,,,,,,,,,
292792,2022-10-04_15h01.05.621,vts_reward_expectancy,2022.2.4,MacIntel,60.0024001,Chrome,1553,971,,,,,10,857,,,,,,,,,,,,,,,,,125,H,triangle,1,1,,,,,,,,,,,,,,,,repeat,number,numRpt,d,0.5652,Lo,,,,,,2,,,,,,,,low,3,0,3,0,1,,,,,,,,,
292792,2022-10-04_15h01.05.621,vts_reward_expectancy,2022.2.4,MacIntel,60.0024001,Chrome,1553,971,,,,,10,867,,,,,,,,,,,,,,,,,132,Y,circle,1,0,,,,,,,,,,,,,,,,switch,letter,lettSwt,k,0.4305,Hi,,,,,,2,,,,,,,,low,4,0,4,0,1,,,,,,,,,
292792,2022-10-04_15h01.05.621,vts_reward_expectancy,2022.2.4,MacIntel,60.0024001,Chrome,1553,971,,,,,10,877,,,,,,,,,,,,,,,,,167,S,triangle,1,0,,,,,,,,,,,,,,,,switch,number,numSwt,f,0.4449,Lo,,,,,,2,,,,,,,,low,5,0,5,0,1,,,,,,,,,
292792,2022-10-04_15h01.05.621,vts_reward_expectancy,2022.2.4,MacIntel,60.0024001,Chrome,1553,971,,,,,1,878,,,,,,,,,,,,,,,,,146,F,triangle,1,0,,,,,,,,,,,,,,,,switch,letter,lettSwt,j,0.6325,Lo,,,,,,2,,,,,,,,low,6,0,6,0,1,,,,,,,,,
292792,2022-10-04_15h01.05.621,vts_reward_expectancy,2022.2.4,MacIntel,60.0024001,Chrome,1553,971,,,,,0,878,,,,,,,,,,,,,,,,,160,D,circle,1,0,,,,,,,,,,,,,,,,switch,number,numSwt,f,0.6055,Hi,,,,,,2,,,,,,,,low,7,0,7,0,1,,,,,,,,,
292792,2022-10-04_15h01.05.621,vts_reward_expectancy,2022.2.4,MacIntel,60.0024001,Chrome,1553,971,,,,,1,879,,,,,,,,,,,,,,,,,174,B,triangle,1,0,,,,,,,,,,,,,,,,switch,letter,lettSwt,j,0.4356,Lo,,,,,,2,,,,,,,,low,8,0,8,0,1,,,,,,,,,
292792,2022-10-04_15h01.05.621,vts_reward_expectancy,2022.2.4,MacIntel,60.0024001,Chrome,1553,971,,,,,0,879,,,,,,,,,,,,,,,,,181,U,circle,1,0,,,,,,,,,,,,,,,,switch,number,numSwt,f,0.5496,Hi,,,,,,2,,,,,,,,low,9,0,9,0,1,,,,,,,,,
292792,2022-10-04_15h01.05.621,vts_reward_expectancy,2022.2.4,MacIntel,60.0024001,Chrome,1553,971,,,,,0,879,,,,,,,,,,,,,,,,,139,W,circle,1,0,,,,,,,,,,,,,,,,repeat,number,numRpt,d,0.5486,Hi,,,,,,2,,,,,,,,low,10,0,10,0,1,,,,,,,,,
292792,2022-10-04_15h01.05.621,vts_reward_expectancy,2022.2.4,MacIntel,60.0024001,Chrome,1553,971,,,,,1,880,,,,,,,,,,,,,,,,,125,H,triangle,1,0,,,,,,,,,,,,,,,,repeat,number,numRpt,d,0.5137,Lo,,,,,,2,,,,,,,,low,11,0,11,0,1,,,,,,,,,
292792,2022-10-04_15h01.05.621,vts_reward_expectancy,2022.2.4,MacIntel,60.0024001,Chrome,1553,971,,,,,0,880,,,,,,,,,,,,,,,,,132,Y,circle,1,0,,,,,,,,,,,,,,,,repeat,number,numRpt,d,0.551,Hi,,,,,,2,,,,,,,,low,12,0,12,0,1,,,,,,,,,
292792,2022-10-04_15h01.05.621,vts_reward_expectancy,2022.2.4,MacIntel,60.0024001,Chrome,1553,971,,,,,10,890,,,,,,,,,,,,,,,,,167,S,triangle,1,0,,,,,,,,,,,,,,,,repeat,number,numRpt,f,0.5658,Lo,,,,,,2,,,,,,,,low,13,0,13,0,1,,,,,,,,,
292792,2022-10-04_15h01.05.621,vts_reward_expectancy,2022.2.4,MacIntel,60.0024001,Chrome,1553,971,,,,,1,891,,,,,,,,,,,,,,,,,146,F,triangle,1,0,,,,,,,,,,,,,,,,switch,letter,lettSwt,j,0.4148,Lo,,,,,,2,,,,,,,,low,14,0,14,0,1,,,,,,,,,
292792,2022-10-04_15h01.05.621,vts_reward_expectancy,2022.2.4,MacIntel,60.0024001,Chrome,1553,971,,,,,0,891,,,,,,,,,,,,,,,,,160,D,circle,1,0,,,,,,,,,,,,,,,,switch,number,numSwt,f,0.5199,Hi,,,,,,2,,,,,,,,low,15,0,15,0,1,,,,,,,,,
292792,2022-10-04_15h01.05.621,vts_reward_expectancy,2022.2.4,MacIntel,60.0024001,Chrome,1553,971,,,,,0,891,,,,,,,,,,,,,,,,,125,H,circle,1,0,,,,,,,,,,,,,,,,repeat,number,numRpt,d,0.5192,Hi,,,,,,2,,,,,,,,low,16,0,16,0,1,,,,,,,,,
292792,2022-10-04_15h01.05.621,vts_reward_expectancy,2022.2.4,MacIntel,60.0024001,Chrome,1553,971,,,,,1,892,,,,,,,,,,,,,,,,,139,F,triangle,1,0,,,,,,,,,,,,,,,,switch,letter,lettSwt,j,0.4954,Lo,,,,,,2,,,,,,,,low,17,0,17,0,1,,,,,,,,,
292792,2022-10-04_15h01.05.621,vts_reward_expectancy,2022.2.4,MacIntel,60.0024001,Chrome,1553,971,,,,,1,893,,,,,,,,,,,,,,,,,160,B,circle,1,0,,,,,,,,,,,,,,,,switch,number,numSwt,f,0.401,Hi,,,,,,2,,,,,,,,low,18,0,18,0,1,,,,,,,,,
292792,2022-10-04_15h01.05.621,vts_reward_expectancy,2022.2.4,MacIntel,60.0024001,Chrome,1553,971,,,,,1,894,,,,,,,,,,,,,,,,,146,S,triangle,1,0,,,,,,,,,,,,,,,,switch,letter,lettSwt,k,0.4219,Lo,,,,,,2,,,,,,,,low,19,0,19,0,1,,,,,,,,,
292792,2022-10-04_15h01.05.621,vts_reward_expectancy,2022.2.4,MacIntel,60.0024001,Chrome,1553,971,,,,,10,904,,,,,,,,,,,,,,,,,167,U,circle,1,0,,,,,,,,,,,,,,,,switch,number,numSwt,f,0.386,Hi,,,,,,2,,,,,,,,low,20,0,20,0,1,,,,,,,,,
292792,2022-10-04_15h01.05.621,vts_reward_expectancy,2022.2.4,MacIntel,60.0024001,Chrome,1553,971,,,,,0,904,,,,,,,,,,,,,,,,,132,W,triangle,0,0,,,,,,,,,,,,,,,,switch,letter,NA,j,0.5846,Hi,,,,,,2,,,,,,,,low,21,0,21,0,1,,,,,,,,,
292792,2022-10-04_15h01.05.621,vts_reward_expectancy,2022.2.4,MacIntel,60.0024001,Chrome,1553,971,,,,,1,905,,,,,,,,,,,,,,,,,181,D,triangle,1,1,,,,,,,,,,,,,,,,switch,number,numSwt,f,0.482,Lo,,,,,,2,,,,,,,,low,22,0,22,0,1,,,,,,,,,
292792,2022-10-04_15h01.05.621,vts_reward_expectancy,2022.2.4,MacIntel,60.0024001,Chrome,1553,971,,,,,0,905,,,,,,,,,,,,,,,,,174,Y,circle,1,0,,,,,,,,,,,,,,,,switch,letter,lettSwt,k,0.5495,Hi,,,,,,2,,,,,,,,low,23,0,23,0,1,,,,,,,,,
292792,2022-10-04_15h01.05.621,vts_reward_expectancy,2022.2.4,MacIntel,60.0024001,Chrome,1553,971,,,,,0,905,,,,,,,,,,,,,,,,,181,H,circle,0,0,,,,,,,,,,,,,,,,repeat,letter,NA,k,0.4492,Hi,,,,,,2,,,,,,,,low,24,0,24,0,1,,,,,,,,,
292792,2022-10-04_15h01.05.621,vts_reward_expectancy,2022.2.4,MacIntel,60.0024001,Chrome,1553,971,,,,,1,906,,,,,,,,,,,,,,,,,167,B,triangle,1,1,,,,,,,,,,,,,,,,repeat,letter,lettRpt,j,0.4315,Lo,,,,,,2,,,,,,,,low,25,0,25,0,1,,,,,,,,,
292792,2022-10-04_15h01.05.621,vts_reward_expectancy,2022.2.4,MacIntel,60.0024001,Chrome,1553,971,,,,,0,906,,,,,,,,,,,,,,,,,125,F,triangle,0,0,,,,,,,,,,,,,,,,repeat,letter,NA,k,0.4513,Lo,,,,,,2,,,,,,,,low,26,0,26,0,1,,,,,,,,,
292792,2022-10-04_15h01.05.621,vts_reward_expectancy,2022.2.4,MacIntel,60.0024001,Chrome,1553,971,,,,,0,906,,,,,,,,,,,,,,,,,174,Y,circle,1,1,,,,,,,,,,,,,,,,repeat,letter,lettRpt,k,0.6161,Hi,,,,,,2,,,,,,,,low,27,0,27,0,1,,,,,,,,,
292792,2022-10-04_15h01.05.621,vts_reward_expectancy,2022.2.4,MacIntel,60.0024001,Chrome,1553,971,,,,,1,907,,,,,,,,,,,,,,,,,132,D,triangle,1,0,,,,,,,,,,,,,,,,repeat,letter,lettRpt,j,0.4988,Lo,,,,,,2,,,,,,,,low,28,0,28,0,1,,,,,,,,,
292792,2022-10-04_15h01.05.621,vts_reward_expectancy,2022.2.4,MacIntel,60.0024001,Chrome,1553,971,,,,,0,907,,,,,,,,,,,,,,,,,146,U,circle,1,0,,,,,,,,,,,,,,,,switch,number,numSwt,d,0.4858,Hi,,,,,,2,,,,,,,,low,29,0,29,0,1,,,,,,,,,
292792,2022-10-04_15h01.05.621,vts_reward_expectancy,2022.2.4,MacIntel,60.0024001,Chrome,1553,971,,,,,0,907,,,,,,,,,,,,,,,,,139,W,circle,1,0,,,,,,,,,,,,,,,,repeat,number,numRpt,d,0.4491,Hi,,,,,,2,,,,,,,,low,30,0,30,0,1,,,,,,,,,
292792,2022-10-04_15h01.05.621,vts_reward_expectancy,2022.2.4,MacIntel,60.0024001,Chrome,1553,971,,,,,1,908,,,,,,,,,,,,,,,,,160,S,triangle,1,0,,,,,,,,,,,,,,,,switch,letter,lettSwt,k,0.5006,Lo,,,,,,2,,,,,,,,low,31,0,31,0,1,,,,,,,,,
292792,2022-10-04_15h01.05.621,vts_reward_expectancy,2022.2.4,MacIntel,60.0024001,Chrome,1553,971,,,,,1,909,,,,,,,,,,,,,,,,,125,W,triangle,1,0,,,,,,,,,,,,,,,,repeat,letter,lettRpt,k,0.665,Lo,,,,,,3,,,,,,space,0.7239,low,0,0,0,0,1,,,,,,,,,
292792,2022-10-04_15h01.05.621,vts_reward_expectancy,2022.2.4,MacIntel,60.0024001,Chrome,1553,971,,,,,10,919,,,,,,,,,,,,,,,,,167,D,circle,1,0,,,,,,,,,,,,,,,,repeat,letter,lettRpt,j,0.4504,Hi,,,,,,3,,,,,,,,low,1,0,1,0,1,,,,,,,,,
292792,2022-10-04_15h01.05.621,vts_reward_expectancy,2022.2.4,MacIntel,60.0024001,Chrome,1553,971,,,,,1,920,,,,,,,,,,,,,,,,,174,Y,triangle,1,0,,,,,,,,,,,,,,,,switch,number,numSwt,f,0.5199,Lo,,,,,,3,,,,,,,,low,2,0,2,0,1,,,,,,,,,
292792,2022-10-04_15h01.05.621,vts_reward_expectancy,2022.2.4,MacIntel,60.0024001,Chrome,1553,971,,,,,0,920,,,,,,,,,,,,,,,,,132,U,circle,1,0,,,,,,,,,,,,,,,,switch,letter,lettSwt,k,0.6333,Hi,,,,,,3,,,,,,,,low,3,0,3,0,1,,,,,,,,,
292792,2022-10-04_15h01.05.621,vts_reward_expectancy,2022.2.4,MacIntel,60.0024001,Chrome,1553,971,,,,,0,920,,,,,,,,,,,,,,,,,160,B,circle,1,0,,,,,,,,,,,,,,,,repeat,letter,lettRpt,j,0.5161,Hi,,,,,,3,,,,,,,,low,4,0,4,0,1,,,,,,,,,
292792,2022-10-04_15h01.05.621,vts_reward_expectancy,2022.2.4,MacIntel,60.0024001,Chrome,1553,971,,,,,0,920,,,,,,,,,,,,,,,,,146,F,triangle,0,0,,,,,,,,,,,,,,,,repeat,letter,NA,k,0.3993,Hi,,,,,,3,,,,,,,,low,5,0,5,0,1,,,,,,,,,
292792,2022-10-04_15h01.05.621,vts_reward_expectancy,2022.2.4,MacIntel,60.0024001,Chrome,1553,971,,,,,1,921,,,,,,,,,,,,,,,,,181,S,triangle,1,1,,,,,,,,,,,,,,,,switch,number,numSwt,f,0.4992,Lo,,,,,,3,,,,,,,,low,6,0,6,0,1,,,,,,,,,
292792,2022-10-04_15h01.05.621,vts_reward_expectancy,2022.2.4,MacIntel,60.0024001,Chrome,1553,971,,,,,0,921,,,,,,,,,,,,,,,,,139,H,circle,1,0,,,,,,,,,,,,,,,,switch,letter,lettSwt,j,0.4991,Hi,,,,,,3,,,,,,,,low,7,0,7,0,1,,,,,,,,,
292792,2022-10-04_15h01.05.621,vts_reward_expectancy,2022.2.4,MacIntel,60.0024001,Chrome,1553,971,,,,,10,931,,,,,,,,,,,,,,,,,125,W,triangle,1,0,,,,,,,,,,,,,,,,switch,number,numSwt,d,0.4318,Lo,,,,,,3,,,,,,,,low,8,0,8,0,1,,,,,,,,,
292792,2022-10-04_15h01.05.621,vts_reward_expectancy,2022.2.4,MacIntel,60.0024001,Chrome,1553,971,,,,,0,931,,,,,,,,,,,,,,,,,167,D,circle,0,0,,,,,,,,,,,,,,,,switch,letter,NA,k,0.4328,Lo,,,,,,3,,,,,,,,low,9,0,9,0,1,,,,,,,,,
292792,2022-10-04_15h01.05.621,vts_reward_expectancy,2022.2.4,MacIntel,60.0024001,Chrome,1553,971,,,,,10,941,,,,,,,,,,,,,,,,,174,Y,circle,1,1,,,,,,,,,,,,,,,,repeat,letter,lettRpt,k,0.4157,Hi,,,,,,3,,,,,,,,low,10,0,10,0,1,,,,,,,,,
292792,2022-10-04_15h01.05.621,vts_reward_expectancy,2022.2.4,MacIntel,60.0024001,Chrome,1553,971,,,,,10,951,,,,,,,,,,,,,,,,,132,U,triangle,1,0,,,,,,,,,,,,,,,,switch,number,numSwt,d,0.3679,Lo,,,,,,3,,,,,,,,low,11,0,11,0,1,,,,,,,,,
292792,2022-10-04_15h01.05.621,vts_reward_expectancy,2022.2.4,MacIntel,60.0024001,Chrome,1553,971,,,,,0,951,,,,,,,,,,,,,,,,,160,B,circle,1,0,,,,,,,,,,,,,,,,switch,letter,lettSwt,j,0.4662,Hi,,,,,,3,,,,,,,,low,12,0,12,0,1,,,,,,,,,
292792,2022-10-04_15h01.05.621,vts_reward_expectancy,2022.2.4,MacIntel,60.0024001,Chrome,1553,971,,,,,10,961,,,,,,,,,,,,,,,,,146,F,triangle,1,0,,,,,,,,,,,,,,,,repeat,letter,lettRpt,j,0.5293,Lo,,,,,,3,,,,,,,,low,13,0,13,0,1,,,,,,,,,
292792,2022-10-04_15h01.05.621,vts_reward_expectancy,2022.2.4,MacIntel,60.0024001,Chrome,1553,971,,,,,0,961,,,,,,,,,,,,,,,,,181,S,circle,0,0,,,,,,,,,,,,,,,,switch,number,NA,d,0.419,Lo,,,,,,3,,,,,,,,low,14,0,14,0,1,,,,,,,,,
292792,2022-10-04_15h01.05.621,vts_reward_expectancy,2022.2.4,MacIntel,60.0024001,Chrome,1553,971,,,,,10,971,,,,,,,,,,,,,,,,,139,H,triangle,1,1,,,,,,,,,,,,,,,,repeat,number,numRpt,d,0.3658,Lo,,,,,,3,,,,,,,,low,15,0,15,0,1,,,,,,,,,
292792,2022-10-04_15h01.05.621,vts_reward_expectancy,2022.2.4,MacIntel,60.0024001,Chrome,1553,971,,,,,1,972,,,,,,,,,,,,,,,,,132,H,circle,1,0,,,,,,,,,,,,,,,,switch,letter,lettSwt,j,0.4,Hi,,,,,,3,,,,,,,,low,16,0,16,0,1,,,,,,,,,
292792,2022-10-04_15h01.05.621,vts_reward_expectancy,2022.2.4,MacIntel,60.0024001,Chrome,1553,971,,,,,0,972,,,,,,,,,,,,,,,,,139,D,triangle,0,0,,,,,,,,,,,,,,,,switch,number,NA,f,0.3857,Hi,,,,,,3,,,,,,,,low,17,0,17,0,1,,,,,,,,,
292792,2022-10-04_15h01.05.621,vts_reward_expectancy,2022.2.4,MacIntel,60.0024001,Chrome,1553,971,,,,,1,973,,,,,,,,,,,,,,,,,167,Y,triangle,1,1,,,,,,,,,,,,,,,,switch,letter,lettSwt,k,0.4669,Lo,,,,,,3,,,,,,,,low,18,0,18,0,1,,,,,,,,,
292792,2022-10-04_15h01.05.621,vts_reward_expectancy,2022.2.4,MacIntel,60.0024001,Chrome,1553,971,,,,,1,974,,,,,,,,,,,,,,,,,160,U,circle,1,0,,,,,,,,,,,,,,,,switch,number,numSwt,f,0.4535,Hi,,,,,,3,,,,,,,,low,19,0,19,0,1,,,,,,,,,
292792,2022-10-04_15h01.05.621,vts_reward_expectancy,2022.2.4,MacIntel,60.0024001,Chrome,1553,971,,,,,1,975,,,,,,,,,,,,,,,,,125,W,triangle,1,0,,,,,,,,,,,,,,,,repeat,number,numRpt,d,0.4864,Lo,,,,,,3,,,,,,,,low,20,0,20,0,1,,,,,,,,,
292792,2022-10-04_15h01.05.621,vts_reward_expectancy,2022.2.4,MacIntel,60.0024001,Chrome,1553,971,,,,,0,975,,,,,,,,,,,,,,,,,174,S,circle,1,0,,,,,,,,,,,,,,,,switch,letter,lettSwt,k,0.5026,Hi,,,,,,3,,,,,,,,low,21,0,21,0,1,,,,,,,,,
292792,2022-10-04_15h01.05.621,vts_reward_expectancy,2022.2.4,MacIntel,60.0024001,Chrome,1553,971,,,,,0,975,,,,,,,,,,,,,,,,,181,F,circle,1,0,,,,,,,,,,,,,,,,repeat,letter,lettRpt,j,0.6321,Hi,,,,,,3,,,,,,,,low,22,0,22,0,1,,,,,,,,,
292792,2022-10-04_15h01.05.621,vts_reward_expectancy,2022.2.4,MacIntel,60.0024001,Chrome,1553,971,,,,,10,985,,,,,,,,,,,,,,,,,146,B,triangle,1,0,,,,,,,,,,,,,,,,repeat,letter,lettRpt,j,0.4662,Lo,,,,,,3,,,,,,,,low,23,0,23,0,1,,,,,,,,,
292792,2022-10-04_15h01.05.621,vts_reward_expectancy,2022.2.4,MacIntel,60.0024001,Chrome,1553,971,,,,,1,986,,,,,,,,,,,,,,,,,174,W,triangle,1,0,,,,,,,,,,,,,,,,repeat,letter,lettRpt,k,0.504,Lo,,,,,,3,,,,,,,,low,24,0,24,0,1,,,,,,,,,
292792,2022-10-04_15h01.05.621,vts_reward_expectancy,2022.2.4,MacIntel,60.0024001,Chrome,1553,971,,,,,0,986,,,,,,,,,,,,,,,,,146,F,circle,1,0,,,,,,,,,,,,,,,,switch,number,numSwt,d,0.5325,Hi,,,,,,3,,,,,,,,low,25,0,25,0,1,,,,,,,,,
292792,2022-10-04_15h01.05.621,vts_reward_expectancy,2022.2.4,MacIntel,60.0024001,Chrome,1553,971,,,,,1,987,,,,,,,,,,,,,,,,,160,Y,triangle,1,0,,,,,,,,,,,,,,,,repeat,number,numRpt,f,0.6186,Lo,,,,,,3,,,,,,,,low,26,0,26,0,1,,,,,,,,,
292792,2022-10-04_15h01.05.621,vts_reward_expectancy,2022.2.4,MacIntel,60.0024001,Chrome,1553,971,,,,,0,987,,,,,,,,,,,,,,,,,181,D,circle,0,0,,,,,,,,,,,,,,,,switch,letter,NA,k,0.3821,Lo,,,,,,3,,,,,,,,low,27,0,27,0,1,,,,,,,,,
292792,2022-10-04_15h01.05.621,vts_reward_expectancy,2022.2.4,MacIntel,60.0024001,Chrome,1553,971,,,,,1,988,,,,,,,,,,,,,,,,,125,B,triangle,1,1,,,,,,,,,,,,,,,,repeat,letter,lettRpt,j,0.4053,Lo,,,,,,3,,,,,,,,low,28,0,28,0,1,,,,,,,,,
292792,2022-10-04_15h01.05.621,vts_reward_expectancy,2022.2.4,MacIntel,60.0024001,Chrome,1553,971,,,,,0,988,,,,,,,,,,,,,,,,,132,H,circle,0,0,,,,,,,,,,,,,,,,repeat,letter,NA,k,0.4161,Lo,,,,,,3,,,,,,,,low,29,0,29,0,1,,,,,,,,,
292792,2022-10-04_15h01.05.621,vts_reward_expectancy,2022.2.4,MacIntel,60.0024001,Chrome,1553,971,,,,,0,988,,,,,,,,,,,,,,,,,139,S,triangle,0,1,,,,,,,,,,,,,,,,repeat,letter,NA,j,0.4662,Lo,,,,,,3,,,,,,,,low,30,0,30,0,1,,,,,,,,,
292792,2022-10-04_15h01.05.621,vts_reward_expectancy,2022.2.4,MacIntel,60.0024001,Chrome,1553,971,,,,,0,988,,,,,,,,,,,,,,,,,167,U,circle,1,1,,,,,,,,,,,,,,,,switch,number,numSwt,f,0.5334,Hi,,,,,,3,,,,,,,,low,31,0,31,0,1,,,,,,,,,
292792,2022-10-04_15h01.05.621,vts_reward_expectancy,2022.2.4,MacIntel,60.0024001,Chrome,1553,971,,,,,1,989,,,,,,,,,,,,,,,,,160,B,hexagon,1,0,,,,,,,,,,,,,,,,switch,letter,lettSwt,j,0.4328,Hi,,,,,,4,,,,,,space,0.3312,high,0,0,0,0,1,,,,,,,,,
292792,2022-10-04_15h01.05.621,vts_reward_expectancy,2022.2.4,MacIntel,60.0024001,Chrome,1553,971,,,,,1,990,,,,,,,,,,,,,,,,,167,W,star,1,0,,,,,,,,,,,,,,,,switch,number,numSwt,f,0.4864,Lo,,,,,,4,,,,,,,,high,1,0,1,0,1,,,,,,,,,
292792,2022-10-04_15h01.05.621,vts_reward_expectancy,2022.2.4,MacIntel,60.0024001,Chrome,1553,971,,,,,10,1000,,,,,,,,,,,,,,,,,132,F,hexagon,1,0,,,,,,,,,,,,,,,,repeat,number,numRpt,d,0.3014,Hi,,,,,,4,,,,,,,,high,2,0,2,0,1,,,,,,,,,
292792,2022-10-04_15h01.05.621,vts_reward_expectancy,2022.2.4,MacIntel,60.0024001,Chrome,1553,971,,,,,1,1001,,,,,,,,,,,,,,,,,125,Y,star,1,0,,,,,,,,,,,,,,,,switch,letter,lettSwt,k,0.5034,Lo,,,,,,4,,,,,,,,high,3,0,3,0,1,,,,,,,,,
292792,2022-10-04_15h01.05.621,vts_reward_expectancy,2022.2.4,MacIntel,60.0024001,Chrome,1553,971,,,,,0,1001,,,,,,,,,,,,,,,,,139,D,hexagon,0,0,,,,,,,,,,,,,,,,switch,number,NA,f,0.4653,Lo,,,,,,4,,,,,,,,high,4,0,4,0,1,,,,,,,,,
292792,2022-10-04_15h01.05.621,vts_reward_expectancy,2022.2.4,MacIntel,60.0024001,Chrome,1553,971,,,,,1,1002,,,,,,,,,,,,,,,,,146,U,star,1,1,,,,,,,,,,,,,,,,switch,letter,lettSwt,k,0.5313,Lo,,,,,,4,,,,,,,,high,5,0,5,0,1,,,,,,,,,
292792,2022-10-04_15h01.05.621,vts_reward_expectancy,2022.2.4,MacIntel,60.0024001,Chrome,1553,971,,,,,1,1003,,,,,,,,,,,,,,,,,181,S,star,1,0,,,,,,,,,,,,,,,,repeat,letter,lettRpt,k,0.5149,Lo,,,,,,4,,,,,,,,high,6,0,6,0,1,,,,,,,,,
292792,2022-10-04_15h01.05.621,vts_reward_expectancy,2022.2.4,MacIntel,60.0024001,Chrome,1553,971,,,,,0,1003,,,,,,,,,,,,,,,,,174,H,hexagon,1,0,,,,,,,,,,,,,,,,switch,number,numSwt,f,0.5326,Hi,,,,,,4,,,,,,,,high,7,0,7,0,1,,,,,,,,,
292792,2022-10-04_15h01.05.621,vts_reward_expectancy,2022.2.4,MacIntel,60.0024001,Chrome,1553,971,,,,,0,1003,,,,,,,,,,,,,,,,,160,B,hexagon,1,0,,,,,,,,,,,,,,,,repeat,number,numRpt,f,0.5048,Hi,,,,,,4,,,,,,,,high,8,0,8,0,1,,,,,,,,,
292792,2022-10-04_15h01.05.621,vts_reward_expectancy,2022.2.4,MacIntel,60.0024001,Chrome,1553,971,,,,,1,1004,,,,,,,,,,,,,,,,,167,W,star,1,0,,,,,,,,,,,,,,,,repeat,number,numRpt,f,0.4985,Lo,,,,,,4,,,,,,,,high,9,0,9,0,1,,,,,,,,,
292792,2022-10-04_15h01.05.621,vts_reward_expectancy,2022.2.4,MacIntel,60.0024001,Chrome,1553,971,,,,,0,1004,,,,,,,,,,,,,,,,,132,F,star,0,0,,,,,,,,,,,,,,,,switch,letter,NA,k,0.4865,Lo,,,,,,4,,,,,,,,high,10,0,10,0,1,,,,,,,,,
292792,2022-10-04_15h01.05.621,vts_reward_expectancy,2022.2.4,MacIntel,60.0024001,Chrome,1553,971,,,,,1,1005,,,,,,,,,,,,,,,,,125,Y,hexagon,1,1,,,,,,,,,,,,,,,,repeat,letter,lettRpt,k,0.4324,Hi,,,,,,4,,,,,,,,high,11,0,11,0,1,,,,,,,,,
292792,2022-10-04_15h01.05.621,vts_reward_expectancy,2022.2.4,MacIntel,60.0024001,Chrome,1553,971,,,,,0,1005,,,,,,,,,,,,,,,,,139,D,hexagon,0,0,,,,,,,,,,,,,,,,switch,number,NA,f,0.4668,Hi,,,,,,4,,,,,,,,high,12,0,12,0,1,,,,,,,,,
292792,2022-10-04_15h01.05.621,vts_reward_expectancy,2022.2.4,MacIntel,60.0024001,Chrome,1553,971,,,,,10,1015,,,,,,,,,,,,,,,,,146,U,star,1,1,,,,,,,,,,,,,,,,repeat,number,numRpt,d,0.4324,Lo,,,,,,4,,,,,,,,high,13,0,13,0,1,,,,,,,,,
292792,2022-10-04_15h01.05.621,vts_reward_expectancy,2022.2.4,MacIntel,60.0024001,Chrome,1553,971,,,,,0,1015,,,,,,,,,,,,,,,,,181,S,hexagon,1,0,,,,,,,,,,,,,,,,switch,letter,lettSwt,k,0.4864,Hi,,,,,,4,,,,,,,,high,14,0,14,0,1,,,,,,,,,
292792,2022-10-04_15h01.05.621,vts_reward_expectancy,2022.2.4,MacIntel,60.0024001,Chrome,1553,971,,,,,0,1015,,,,,,,,,,,,,,,,,174,H,star,0,0,,,,,,,,,,,,,,,,repeat,letter,NA,k,0.5649,Hi,,,,,,4,,,,,,,,high,15,0,15,0,1,,,,,,,,,
292792,2022-10-04_15h01.05.621,vts_reward_expectancy,2022.2.4,MacIntel,60.0024001,Chrome,1553,971,,,,,1,1016,,,,,,,,,,,,,,,,,174,H,star,1,1,,,,,,,,,,,,,,,,switch,number,numSwt,f,0.4984,Lo,,,,,,4,,,,,,,,high,16,0,16,0,1,,,,,,,,,
292792,2022-10-04_15h01.05.621,vts_reward_expectancy,2022.2.4,MacIntel,60.0024001,Chrome,1553,971,,,,,0,1016,,,,,,,,,,,,,,,,,160,B,hexagon,1,0,,,,,,,,,,,,,,,,switch,letter,lettSwt,j,0.5666,Hi,,,,,,4,,,,,,,,high,17,0,17,0,1,,,,,,,,,
292792,2022-10-04_15h01.05.621,vts_reward_expectancy,2022.2.4,MacIntel,60.0024001,Chrome,1553,971,,,,,1,1017,,,,,,,,,,,,,,,,,146,D,star,1,0,,,,,,,,,,,,,,,,repeat,letter,lettRpt,j,0.5652,Lo,,,,,,4,,,,,,,,high,18,0,18,0,1,,,,,,,,,
292792,2022-10-04_15h01.05.621,vts_reward_expectancy,2022.2.4,MacIntel,60.0024001,Chrome,1553,971,,,,,0,1017,,,,,,,,,,,,,,,,,125,Y,hexagon,1,0,,,,,,,,,,,,,,,,repeat,letter,lettRpt,k,0.5661,Hi,,,,,,4,,,,,,,,high,19,0,19,0,1,,,,,,,,,
292792,2022-10-04_15h01.05.621,vts_reward_expectancy,2022.2.4,MacIntel,60.0024001,Chrome,1553,971,,,,,1,1018,,,,,,,,,,,,,,,,,181,S,star,1,0,,,,,,,,,,,,,,,,switch,number,numSwt,f,0.5647,Lo,,,,,,4,,,,,,,,high,20,0,20,0,1,,,,,,,,,
292792,2022-10-04_15h01.05.621,vts_reward_expectancy,2022.2.4,MacIntel,60.0024001,Chrome,1553,971,,,,,0,1018,,,,,,,,,,,,,,,,,139,W,hexagon,0,0,,,,,,,,,,,,,,,,switch,letter,NA,j,0.4862,Lo,,,,,,4,,,,,,,,high,21,0,21,0,1,,,,,,,,,
292792,2022-10-04_15h01.05.621,vts_reward_expectancy,2022.2.4,MacIntel,60.0024001,Chrome,1553,971,,,,,0,1018,,,,,,,,,,,,,,,,,132,F,star,0,1,,,,,,,,,,,,,,,,repeat,letter,NA,k,0.4492,Lo,,,,,,4,,,,,,,,high,22,0,22,0,1,,,,,,,,,
292792,2022-10-04_15h01.05.621,vts_reward_expectancy,2022.2.4,MacIntel,60.0024001,Chrome,1553,971,,,,,10,1028,,,,,,,,,,,,,,,,,167,U,hexagon,1,1,,,,,,,,,,,,,,,,switch,number,numSwt,f,0.4492,Hi,,,,,,4,,,,,,,,high,23,0,23,0,1,,,,,,,,,
292792,2022-10-04_15h01.05.621,vts_reward_expectancy,2022.2.4,MacIntel,60.0024001,Chrome,1553,971,,,,,10,1038,,,,,,,,,,,,,,,,,125,F,hexagon,1,0,,,,,,,,,,,,,,,,repeat,number,numRpt,d,0.3345,Hi,,,,,,4,,,,,,,,high,24,0,24,0,1,,,,,,,,,
292792,2022-10-04_15h01.05.621,vts_reward_expectancy,2022.2.4,MacIntel,60.0024001,Chrome,1553,971,,,,,1,1039,,,,,,,,,,,,,,,,,160,S,star,1,0,,,,,,,,,,,,,,,,switch,letter,lettSwt,k,0.5135,Lo,,,,,,4,,,,,,,,high,25,0,25,0,1,,,,,,,,,
292792,2022-10-04_15h01.05.621,vts_reward_expectancy,2022.2.4,MacIntel,60.0024001,Chrome,1553,971,,,,,10,1049,,,,,,,,,,,,,,,,,174,W,hexagon,1,0,,,,,,,,,,,,,,,,switch,number,numSwt,f,0.446,Hi,,,,,,4,,,,,,,,high,26,0,26,0,1,,,,,,,,,
292792,2022-10-04_15h01.05.621,vts_reward_expectancy,2022.2.4,MacIntel,60.0024001,Chrome,1553,971,,,,,1,1050,,,,,,,,,,,,,,,,,139,D,star,1,0,,,,,,,,,,,,,,,,switch,letter,lettSwt,j,0.5216,Lo,,,,,,4,,,,,,,,high,27,0,27,0,1,,,,,,,,,
292792,2022-10-04_15h01.05.621,vts_reward_expectancy,2022.2.4,MacIntel,60.0024001,Chrome,1553,971,,,,,10,1060,,,,,,,,,,,,,,,,,181,H,star,1,0,,,,,,,,,,,,,,,,switch,number,numSwt,f,0.4985,Lo,,,,,,4,,,,,,,,high,28,0,28,0,1,,,,,,,,,
292792,2022-10-04_15h01.05.621,vts_reward_expectancy,2022.2.4,MacIntel,60.0024001,Chrome,1553,971,,,,,0,1060,,,,,,,,,,,,,,,,,132,B,hexagon,0,0,,,,,,,,,,,,,,,,repeat,number,NA,f,0.4498,Lo,,,,,,4,,,,,,,,high,29,0,29,0,1,,,,,,,,,
292792,2022-10-04_15h01.05.621,vts_reward_expectancy,2022.2.4,MacIntel,60.0024001,Chrome,1553,971,,,,,0,1060,,,,,,,,,,,,,,,,,167,Y,hexagon,1,1,,,,,,,,,,,,,,,,repeat,number,numRpt,f,0.483,Hi,,,,,,4,,,,,,,,high,30,0,30,0,1,,,,,,,,,
292792,2022-10-04_15h01.05.621,vts_reward_expectancy,2022.2.4,MacIntel,60.0024001,Chrome,1553,971,,,,,10,1070,,,,,,,,,,,,,,,,,146,U,star,1,0,,,,,,,,,,,,,,,,repeat,number,numRpt,d,0.453,Lo,,,,,,4,,,,,,,,high,31,0,31,0,1,,,,,,,,,
292792,2022-10-04_15h01.05.621,vts_reward_expectancy,2022.2.4,MacIntel,60.0024001,Chrome,1553,971,,,,,0,1070,,,,,,,,,,,,,,,,,160,B,star,0,0,,,,,,,,,,,,,,,,repeat,number,NA,d,0.4892,Lo,,,,,,5,,,,,,space,0.9093,high,0,0,0,0,1,,,,,,,,,
292792,2022-10-04_15h01.05.621,vts_reward_expectancy,2022.2.4,MacIntel,60.0024001,Chrome,1553,971,,,,,0,1070,,,,,,,,,,,,,,,,,125,S,hexagon,1,1,,,,,,,,,,,,,,,,repeat,number,numRpt,d,2.0154,Hi,,,,,,5,,,,,,,,high,1,0,1,0,1,,,,,,,,,
292792,2022-10-04_15h01.05.621,vts_reward_expectancy,2022.2.4,MacIntel,60.0024001,Chrome,1553,971,,,,,0,1070,,,,,,,,,,,,,,,,,167,U,star,0,0,,,,,,,,,,,,,,,,repeat,number,NA,d,0.5494,Hi,,,,,,5,,,,,,,,high,2,0,2,0,1,,,,,,,,,
292792,2022-10-04_15h01.05.621,vts_reward_expectancy,2022.2.4,MacIntel,60.0024001,Chrome,1553,971,,,,,0,1070,,,,,,,,,,,,,,,,,174,Y,hexagon,1,1,,,,,,,,,,,,,,,,repeat,number,numRpt,f,0.4825,Hi,,,,,,5,,,,,,,,high,3,0,3,0,1,,,,,,,,,
292792,2022-10-04_15h01.05.621,vts_reward_expectancy,2022.2.4,MacIntel,60.0024001,Chrome,1553,971,,,,,0,1070,,,,,,,,,,,,,,,,,139,W,hexagon,1,0,,,,,,,,,,,,,,,,switch,letter,lettSwt,k,0.5671,Hi,,,,,,5,,,,,,,,high,4,0,4,0,1,,,,,,,,,
292792,2022-10-04_15h01.05.621,vts_reward_expectancy,2022.2.4,MacIntel,60.0024001,Chrome,1553,971,,,,,1,1071,,,,,,,,,,,,,,,,,146,F,star,1,0,,,,,,,,,,,,,,,,switch,number,numSwt,d,0.3996,Lo,,,,,,5,,,,,,,,high,5,0,5,0,1,,,,,,,,,
292792,2022-10-04_15h01.05.621,vts_reward_expectancy,2022.2.4,MacIntel,60.0024001,Chrome,1553,971,,,,,10,1081,,,,,,,,,,,,,,,,,181,D,hexagon,1,0,,,,,,,,,,,,,,,,switch,letter,lettSwt,j,0.4996,Hi,,,,,,5,,,,,,,,high,6,0,6,0,1,,,,,,,,,
292792,2022-10-04_15h01.05.621,vts_reward_expectancy,2022.2.4,MacIntel,60.0024001,Chrome,1553,971,,,,,1,1082,,,,,,,,,,,,,,,,,132,H,star,1,0,,,,,,,,,,,,,,,,repeat,letter,lettRpt,j,0.4463,Lo,,,,,,5,,,,,,,,high,7,0,7,0,1,,,,,,,,,
292792,2022-10-04_15h01.05.621,vts_reward_expectancy,2022.2.4,MacIntel,60.0024001,Chrome,1553,971,,,,,10,1092,,,,,,,,,,,,,,,,,160,B,star,1,0,,,,,,,,,,,,,,,,repeat,letter,lettRpt,j,0.3994,Lo,,,,,,5,,,,,,,,high,8,0,8,0,1,,,,,,,,,
292792,2022-10-04_15h01.05.621,vts_reward_expectancy,2022.2.4,MacIntel,60.0024001,Chrome,1553,971,,,,,1,1093,,,,,,,,,,,,,,,,,125,S,hexagon,1,0,,,,,,,,,,,,,,,,repeat,letter,lettRpt,k,0.5001,Hi,,,,,,5,,,,,,,,high,9,0,9,0,1,,,,,,,,,
292792,2022-10-04_15h01.05.621,vts_reward_expectancy,2022.2.4,MacIntel,60.0024001,Chrome,1553,971,,,,,10,1103,,,,,,,,,,,,,,,,,167,U,hexagon,1,0,,,,,,,,,,,,,,,,switch,number,numSwt,f,0.417,Hi,,,,,,5,,,,,,,,high,10,0,10,0,1,,,,,,,,,
292792,2022-10-04_15h01.05.621,vts_reward_expectancy,2022.2.4,MacIntel,60.0024001,Chrome,1553,971,,,,,10,1113,,,,,,,,,,,,,,,,,174,Y,star,1,0,,,,,,,,,,,,,,,,repeat,number,numRpt,f,0.5487,Lo,,,,,,5,,,,,,,,high,11,0,11,0,1,,,,,,,,,
292792,2022-10-04_15h01.05.621,vts_reward_expectancy,2022.2.4,MacIntel,60.0024001,Chrome,1553,971,,,,,0,1113,,,,,,,,,,,,,,,,,139,W,hexagon,1,0,,,,,,,,,,,,,,,,repeat,number,numRpt,d,0.4464,Hi,,,,,,5,,,,,,,,high,12,0,12,0,1,,,,,,,,,
292792,2022-10-04_15h01.05.621,vts_reward_expectancy,2022.2.4,MacIntel,60.0024001,Chrome,1553,971,,,,,0,1113,,,,,,,,,,,,,,,,,146,F,star,0,0,,,,,,,,,,,,,,,,switch,letter,NA,k,0.5001,Hi,,,,,,5,,,,,,,,high,13,0,13,0,1,,,,,,,,,
292792,2022-10-04_15h01.05.621,vts_reward_expectancy,2022.2.4,MacIntel,60.0024001,Chrome,1553,971,,,,,10,1123,,,,,,,,,,,,,,,,,181,D,star,1,1,,,,,,,,,,,,,,,,repeat,letter,lettRpt,j,0.4171,Lo,,,,,,5,,,,,,,,high,14,0,14,0,1,,,,,,,,,
292792,2022-10-04_15h01.05.621,vts_reward_expectancy,2022.2.4,MacIntel,60.0024001,Chrome,1553,971,,,,,1,1124,,,,,,,,,,,,,,,,,132,H,hexagon,1,0,,,,,,,,,,,,,,,,switch,number,numSwt,d,0.4331,Hi,,,,,,5,,,,,,,,high,15,0,15,0,1,,,,,,,,,
292792,2022-10-04_15h01.05.621,vts_reward_expectancy,2022.2.4,MacIntel,60.0024001,Chrome,1553,971,,,,,0,1124,,,,,,,,,,,,,,,,,174,F,star,0,0,,,,,,,,,,,,,,,,switch,letter,NA,k,0.5156,Hi,,,,,,5,,,,,,,,high,16,0,16,0,1,,,,,,,,,
292792,2022-10-04_15h01.05.621,vts_reward_expectancy,2022.2.4,MacIntel,60.0024001,Chrome,1553,971,,,,,0,1124,,,,,,,,,,,,,,,,,160,U,hexagon,1,1,,,,,,,,,,,,,,,,switch,number,numSwt,f,0.5494,Hi,,,,,,5,,,,,,,,high,17,0,17,0,1,,,,,,,,,
292792,2022-10-04_15h01.05.621,vts_reward_expectancy,2022.2.4,MacIntel,60.0024001,Chrome,1553,971,,,,,1,1125,,,,,,,,,,,,,,,,,167,W,star,1,0,,,,,,,,,,,,,,,,switch,letter,lettSwt,k,0.45,Lo,,,,,,5,,,,,,,,high,18,0,18,0,1,,,,,,,,,
292792,2022-10-04_15h01.05.621,vts_reward_expectancy,2022.2.4,MacIntel,60.0024001,Chrome,1553,971,,,,,0,1125,,,,,,,,,,,,,,,,,146,H,hexagon,0,0,,,,,,,,,,,,,,,,switch,number,NA,f,0.4823,Lo,,,,,,5,,,,,,,,high,19,0,19,0,1,,,,,,,,,
292792,2022-10-04_15h01.05.621,vts_reward_expectancy,2022.2.4,MacIntel,60.0024001,Chrome,1553,971,,,,,1,1126,,,,,,,,,,,,,,,,,139,D,star,1,1,,,,,,,,,,,,,,,,repeat,number,numRpt,d,0.499,Lo,,,,,,5,,,,,,,,high,20,0,20,0,1,,,,,,,,,
292792,2022-10-04_15h01.05.621,vts_reward_expectancy,2022.2.4,MacIntel,60.0024001,Chrome,1553,971,,,,,0,1126,,,,,,,,,,,,,,,,,125,S,hexagon,1,0,,,,,,,,,,,,,,,,switch,letter,lettSwt,k,0.7166,Hi,,,,,,5,,,,,,,,high,21,0,21,0,1,,,,,,,,,
292792,2022-10-04_15h01.05.621,vts_reward_expectancy,2022.2.4,MacIntel,60.0024001,Chrome,1553,971,,,,,0,1126,,,,,,,,,,,,,,,,,132,B,hexagon,1,0,,,,,,,,,,,,,,,,repeat,letter,lettRpt,j,0.5636,Hi,,,,,,5,,,,,,,,high,22,0,22,0,1,,,,,,,,,
292792,2022-10-04_15h01.05.621,vts_reward_expectancy,2022.2.4,MacIntel,60.0024001,Chrome,1553,971,,,,,1,1127,,,,,,,,,,,,,,,,,181,Y,star,1,0,,,,,,,,,,,,,,,,repeat,letter,lettRpt,k,0.3989,Lo,,,,,,5,,,,,,,,high,23,0,23,0,1,,,,,,,,,
292792,2022-10-04_15h01.05.621,vts_reward_expectancy,2022.2.4,MacIntel,60.0024001,Chrome,1553,971,,,,,0,1127,,,,,,,,,,,,,,,,,132,F,hexagon,0,0,,,,,,,,,,,,,,,,repeat,letter,NA,k,0.4662,Lo,,,,,,5,,,,,,,,high,24,0,24,0,1,,,,,,,,,
292792,2022-10-04_15h01.05.621,vts_reward_expectancy,2022.2.4,MacIntel,60.0024001,Chrome,1553,971,,,,,1,1128,,,,,,,,,,,,,,,,,174,Y,star,1,1,,,,,,,,,,,,,,,,switch,number,numSwt,f,0.4652,Lo,,,,,,5,,,,,,,,high,25,0,25,0,1,,,,,,,,,
292792,2022-10-04_15h01.05.621,vts_reward_expectancy,2022.2.4,MacIntel,60.0024001,Chrome,1553,971,,,,,1,1129,,,,,,,,,,,,,,,,,167,W,star,1,0,,,,,,,,,,,,,,,,repeat,number,numRpt,f,0.4535,Lo,,,,,,5,,,,,,,,high,26,0,26,0,1,,,,,,,,,
292792,2022-10-04_15h01.05.621,vts_reward_expectancy,2022.2.4,MacIntel,60.0024001,Chrome,1553,971,,,,,10,1139,,,,,,,,,,,,,,,,,139,S,hexagon,1,0,,,,,,,,,,,,,,,,repeat,number,numRpt,d,0.4126,Hi,,,,,,5,,,,,,,,high,27,0,27,0,1,,,,,,,,,
292792,2022-10-04_15h01.05.621,vts_reward_expectancy,2022.2.4,MacIntel,60.0024001,Chrome,1553,971,,,,,1,1140,,,,,,,,,,,,,,,,,125,U,star,1,0,,,,,,,,,,,,,,,,repeat,number,numRpt,d,0.413,Lo,,,,,,5,,,,,,,,high,28,0,28,0,1,,,,,,,,,
292792,2022-10-04_15h01.05.621,vts_reward_expectancy,2022.2.4,MacIntel,60.0024001,Chrome,1553,971,,,,,0,1140,,,,,,,,,,,,,,,,,146,D,hexagon,0,0,,,,,,,,,,,,,,,,switch,letter,NA,k,0.333,Lo,,,,,,5,,,,,,,,high,29,0,29,0,1,,,,,,,,,
292792,2022-10-04_15h01.05.621,vts_reward_expectancy,2022.2.4,MacIntel,60.0024001,Chrome,1553,971,,,,,10,1150,,,,,,,,,,,,,,,,,181,B,hexagon,1,1,,,,,,,,,,,,,,,,repeat,letter,lettRpt,j,0.4194,Hi,,,,,,5,,,,,,,,high,30,0,30,0,1,,,,,,,,,
292792,2022-10-04_15h01.05.621,vts_reward_expectancy,2022.2.4,MacIntel,60.0024001,Chrome,1553,971,,,,,1,1151,,,,,,,,,,,,,,,,,160,H,star,1,0,,,,,,,,,,,,,,,,switch,number,numSwt,f,0.5321,Lo,,,,,,5,,,,,,,,high,31,0,31,0,1,,,,,,,,,
292792,2022-10-04_15h01.05.621,vts_reward_expectancy,2022.2.4,MacIntel,60.0024001,Chrome,1553,971,,,,,,,,,,,,,,,,,,,,,,,,,,,,,,,,,,,,,,,,,,,,,,,,,,,,,,6,,,,,,,,,,,,,,switch between the tasks and do the tasks correctly,1,,5,3,,2,1792,1120
