participant,date,expName,psychopyVersion,OS,frameRate,browser,xResolution,yResolution,key_resp.keys,key_resp.rt,training_resp.keys,training_resp.rt,points_trial,points_cumul,trainBlock,training.thisRepN,training.thisTrialN,training.thisN,training.thisIndex,training.ran,LTriangleOpac,LCircleOpac,LHexagonOpac,LStarOpac,RTriangleOpac,RCircleOpac,RHexagonOpac,RStarOpac,LShape_ID,RShape_ID,curr_topStim,curr_bottStim,curr_shape,acc,E1,target_resp_prac1.keys,target_resp_prac1.rt,pracBlock,task1_prac_trials.thisRepN,task1_prac_trials.thisTrialN,task1_prac_trials.thisN,task1_prac_trials.thisIndex,task1_prac_trials.ran,target_resp_prac2.keys,task2_praac_trials.thisRepN,task2_praac_trials.thisTrialN,task2_praac_trials.thisN,task2_praac_trials.thisIndex,task2_praac_trials.ran,target_resp_prac2.rt,alt,task,condition,target_resp.keys,target_resp.rt,rewCond,vts_practice_trials.thisRepN,vts_practice_trials.thisTrialN,vts_practice_trials.thisN,vts_practice_trials.thisIndex,vts_practice_trials.ran,blockNum,trials_norew.thisRepN,trials_norew.thisTrialN,trials_norew.thisN,trials_norew.thisIndex,trials_norew.ran,key_resp_2.keys,key_resp_2.rt,rewExpect,trials_rew.thisRepN,trials_rew.thisTrialN,trials_rew.thisN,trials_rew.thisIndex,trials_rew.ran,Q1,Q2,Q2_text,Q3,Q4,Q5_text,Q5,xRes,yRes
292765,2022-09-28_18h00.02.799,vts_reward_expectancy,2022.2.4,Win32,59.56280898,Chrome,1366,768,,,,,,,,,,,,,,,,,,,,,,,,,,,,,,,,,,,,,,,,,,,,,,,,,,,,,,,,,,,,,,,,,,,,,,,,,,,,
292765,2022-09-28_18h00.02.799,vts_reward_expectancy,2022.2.4,Win32,59.56280898,Chrome,1366,768,space,8.1255,,,,,,,,,,,,,,,,,,,,,,,,,,,,,,,,,,,,,,,,,,,,,,,,,,,,,,,,,,,,,,,,,,,,,,,,,,
292765,2022-09-28_18h00.02.799,vts_reward_expectancy,2022.2.4,Win32,59.56280898,Chrome,1366,768,,,,,,,,,,,,,,,,,,,,,,,,,,,,,,,,,,,,,,,,,,,,,,,,,,,,,,,,,,,,,,,,,,,,,,,,,,,,
292765,2022-09-28_18h00.02.799,vts_reward_expectancy,2022.2.4,Win32,59.56280898,Chrome,1366,768,,,l,1.8575,10,10,0,0,0,0,5,1,0,1,0,0,0,0,0,1,circle,star,,,,,,,,,,,,,,,,,,,,,,,,,,,,,,,,,,,,,,,,,,,,,,,,,,,,,,
292765,2022-09-28_18h00.02.799,vts_reward_expectancy,2022.2.4,Win32,59.56280898,Chrome,1366,768,,,a,1.2605,10,20,0,0,1,1,6,1,0,0,1,0,1,0,0,0,hexagon,triangle,,,,,,,,,,,,,,,,,,,,,,,,,,,,,,,,,,,,,,,,,,,,,,,,,,,,,,
292765,2022-09-28_18h00.02.799,vts_reward_expectancy,2022.2.4,Win32,59.56280898,Chrome,1366,768,,,a,0.7759,10,30,0,0,2,2,10,1,0,0,0,1,0,1,0,0,star ,circle,,,,,,,,,,,,,,,,,,,,,,,,,,,,,,,,,,,,,,,,,,,,,,,,,,,,,,
292765,2022-09-28_18h00.02.799,vts_reward_expectancy,2022.2.4,Win32,59.56280898,Chrome,1366,768,,,l,1.3184,1,31,0,0,3,3,2,1,1,0,0,0,0,0,0,1,triangle,star,,,,,,,,,,,,,,,,,,,,,,,,,,,,,,,,,,,,,,,,,,,,,,,,,,,,,,
292765,2022-09-28_18h00.02.799,vts_reward_expectancy,2022.2.4,Win32,59.56280898,Chrome,1366,768,,,a,3.7185,1,32,0,0,4,4,4,1,0,1,0,0,0,0,1,0,circle,hexagon,,,,,,,,,,,,,,,,,,,,,,,,,,,,,,,,,,,,,,,,,,,,,,,,,,,,,,
292765,2022-09-28_18h00.02.799,vts_reward_expectancy,2022.2.4,Win32,59.56280898,Chrome,1366,768,,,l,0.6657,1,33,0,0,5,5,8,1,0,0,1,0,0,0,0,1,hexagon,star,,,,,,,,,,,,,,,,,,,,,,,,,,,,,,,,,,,,,,,,,,,,,,,,,,,,,,
292765,2022-09-28_18h00.02.799,vts_reward_expectancy,2022.2.4,Win32,59.56280898,Chrome,1366,768,,,a,1.1009,1,34,0,0,6,6,11,1,0,0,0,1,0,0,1,0,star,hexagon,,,,,,,,,,,,,,,,,,,,,,,,,,,,,,,,,,,,,,,,,,,,,,,,,,,,,,
292765,2022-09-28_18h00.02.799,vts_reward_expectancy,2022.2.4,Win32,59.56280898,Chrome,1366,768,,,a,1.2187,10,44,0,0,7,7,7,1,0,0,1,0,0,1,0,0,hexagon,circle,,,,,,,,,,,,,,,,,,,,,,,,,,,,,,,,,,,,,,,,,,,,,,,,,,,,,,
292765,2022-09-28_18h00.02.799,vts_reward_expectancy,2022.2.4,Win32,59.56280898,Chrome,1366,768,,,a,1.0015,1,45,0,0,8,8,0,1,1,0,0,0,0,1,0,0,triangle,circle,,,,,,,,,,,,,,,,,,,,,,,,,,,,,,,,,,,,,,,,,,,,,,,,,,,,,,
292765,2022-09-28_18h00.02.799,vts_reward_expectancy,2022.2.4,Win32,59.56280898,Chrome,1366,768,,,a,0.8904,1,46,0,0,9,9,9,1,0,0,0,1,1,0,0,0,star,triangle,,,,,,,,,,,,,,,,,,,,,,,,,,,,,,,,,,,,,,,,,,,,,,,,,,,,,,
292765,2022-09-28_18h00.02.799,vts_reward_expectancy,2022.2.4,Win32,59.56280898,Chrome,1366,768,,,l,0.9176,10,56,0,0,10,10,3,1,0,1,0,0,1,0,0,0,circle,triangle,,,,,,,,,,,,,,,,,,,,,,,,,,,,,,,,,,,,,,,,,,,,,,,,,,,,,,
292765,2022-09-28_18h00.02.799,vts_reward_expectancy,2022.2.4,Win32,59.56280898,Chrome,1366,768,,,l,0.9348,10,66,0,0,11,11,1,1,1,0,0,0,0,0,1,0,triangle,hexagon,,,,,,,,,,,,,,,,,,,,,,,,,,,,,,,,,,,,,,,,,,,,,,,,,,,,,,
292765,2022-09-28_18h00.02.799,vts_reward_expectancy,2022.2.4,Win32,59.56280898,Chrome,1366,768,,,a,0.5854,1,67,0,1,0,12,7,1,0,0,1,0,0,1,0,0,hexagon,circle,,,,,,,,,,,,,,,,,,,,,,,,,,,,,,,,,,,,,,,,,,,,,,,,,,,,,,
292765,2022-09-28_18h00.02.799,vts_reward_expectancy,2022.2.4,Win32,59.56280898,Chrome,1366,768,,,l,2.1365,10,77,0,1,1,13,1,1,1,0,0,0,0,0,1,0,triangle,hexagon,,,,,,,,,,,,,,,,,,,,,,,,,,,,,,,,,,,,,,,,,,,,,,,,,,,,,,
292765,2022-09-28_18h00.02.799,vts_reward_expectancy,2022.2.4,Win32,59.56280898,Chrome,1366,768,,,a,0.8858,1,78,0,1,2,14,0,1,1,0,0,0,0,1,0,0,triangle,circle,,,,,,,,,,,,,,,,,,,,,,,,,,,,,,,,,,,,,,,,,,,,,,,,,,,,,,
292765,2022-09-28_18h00.02.799,vts_reward_expectancy,2022.2.4,Win32,59.56280898,Chrome,1366,768,,,a,1.2749,10,88,0,1,3,15,6,1,0,0,1,0,1,0,0,0,hexagon,triangle,,,,,,,,,,,,,,,,,,,,,,,,,,,,,,,,,,,,,,,,,,,,,,,,,,,,,,
292765,2022-09-28_18h00.02.799,vts_reward_expectancy,2022.2.4,Win32,59.56280898,Chrome,1366,768,,,l,0.867,10,98,0,1,4,16,3,1,0,1,0,0,1,0,0,0,circle,triangle,,,,,,,,,,,,,,,,,,,,,,,,,,,,,,,,,,,,,,,,,,,,,,,,,,,,,,
292765,2022-09-28_18h00.02.799,vts_reward_expectancy,2022.2.4,Win32,59.56280898,Chrome,1366,768,,,l,1.14,1,99,0,1,5,17,9,1,0,0,0,1,1,0,0,0,star,triangle,,,,,,,,,,,,,,,,,,,,,,,,,,,,,,,,,,,,,,,,,,,,,,,,,,,,,,
292765,2022-09-28_18h00.02.799,vts_reward_expectancy,2022.2.4,Win32,59.56280898,Chrome,1366,768,,,a,0.7508,1,100,0,1,6,18,10,1,0,0,0,1,0,1,0,0,star ,circle,,,,,,,,,,,,,,,,,,,,,,,,,,,,,,,,,,,,,,,,,,,,,,,,,,,,,,
292765,2022-09-28_18h00.02.799,vts_reward_expectancy,2022.2.4,Win32,59.56280898,Chrome,1366,768,,,l,0.6722,1,101,0,1,7,19,4,1,0,1,0,0,0,0,1,0,circle,hexagon,,,,,,,,,,,,,,,,,,,,,,,,,,,,,,,,,,,,,,,,,,,,,,,,,,,,,,
292765,2022-09-28_18h00.02.799,vts_reward_expectancy,2022.2.4,Win32,59.56280898,Chrome,1366,768,,,a,1.6775,1,102,0,1,8,20,11,1,0,0,0,1,0,0,1,0,star,hexagon,,,,,,,,,,,,,,,,,,,,,,,,,,,,,,,,,,,,,,,,,,,,,,,,,,,,,,
292765,2022-09-28_18h00.02.799,vts_reward_expectancy,2022.2.4,Win32,59.56280898,Chrome,1366,768,,,a,2.5022,1,103,0,1,9,21,2,1,1,0,0,0,0,0,0,1,triangle,star,,,,,,,,,,,,,,,,,,,,,,,,,,,,,,,,,,,,,,,,,,,,,,,,,,,,,,
292765,2022-09-28_18h00.02.799,vts_reward_expectancy,2022.2.4,Win32,59.56280898,Chrome,1366,768,,,l,0.6524,1,104,0,1,10,22,8,1,0,0,1,0,0,0,0,1,hexagon,star,,,,,,,,,,,,,,,,,,,,,,,,,,,,,,,,,,,,,,,,,,,,,,,,,,,,,,
292765,2022-09-28_18h00.02.799,vts_reward_expectancy,2022.2.4,Win32,59.56280898,Chrome,1366,768,,,l,0.3555,1,105,0,1,11,23,5,1,0,1,0,0,0,0,0,1,circle,star,,,,,,,,,,,,,,,,,,,,,,,,,,,,,,,,,,,,,,,,,,,,,,,,,,,,,,
292765,2022-09-28_18h00.02.799,vts_reward_expectancy,2022.2.4,Win32,59.56280898,Chrome,1366,768,,,l,0.6181,1,106,0,2,0,24,8,1,0,0,1,0,0,0,0,1,hexagon,star,,,,,,,,,,,,,,,,,,,,,,,,,,,,,,,,,,,,,,,,,,,,,,,,,,,,,,
292765,2022-09-28_18h00.02.799,vts_reward_expectancy,2022.2.4,Win32,59.56280898,Chrome,1366,768,,,l,1.4179,1,107,0,2,1,25,3,1,0,1,0,0,1,0,0,0,circle,triangle,,,,,,,,,,,,,,,,,,,,,,,,,,,,,,,,,,,,,,,,,,,,,,,,,,,,,,
292765,2022-09-28_18h00.02.799,vts_reward_expectancy,2022.2.4,Win32,59.56280898,Chrome,1366,768,,,a,0.8342,1,108,0,2,2,26,11,1,0,0,0,1,0,0,1,0,star,hexagon,,,,,,,,,,,,,,,,,,,,,,,,,,,,,,,,,,,,,,,,,,,,,,,,,,,,,,
292765,2022-09-28_18h00.02.799,vts_reward_expectancy,2022.2.4,Win32,59.56280898,Chrome,1366,768,,,a,0.3514,10,118,0,2,3,27,4,1,0,1,0,0,0,0,1,0,circle,hexagon,,,,,,,,,,,,,,,,,,,,,,,,,,,,,,,,,,,,,,,,,,,,,,,,,,,,,,
292765,2022-09-28_18h00.02.799,vts_reward_expectancy,2022.2.4,Win32,59.56280898,Chrome,1366,768,,,a,0.8186,10,128,0,2,4,28,0,1,1,0,0,0,0,1,0,0,triangle,circle,,,,,,,,,,,,,,,,,,,,,,,,,,,,,,,,,,,,,,,,,,,,,,,,,,,,,,
292765,2022-09-28_18h00.02.799,vts_reward_expectancy,2022.2.4,Win32,59.56280898,Chrome,1366,768,,,a,0.6231,10,138,0,2,5,29,1,1,1,0,0,0,0,0,1,0,triangle,hexagon,,,,,,,,,,,,,,,,,,,,,,,,,,,,,,,,,,,,,,,,,,,,,,,,,,,,,,
292765,2022-09-28_18h00.02.799,vts_reward_expectancy,2022.2.4,Win32,59.56280898,Chrome,1366,768,,,l,0.9007,1,139,0,2,6,30,5,1,0,1,0,0,0,0,0,1,circle,star,,,,,,,,,,,,,,,,,,,,,,,,,,,,,,,,,,,,,,,,,,,,,,,,,,,,,,
292765,2022-09-28_18h00.02.799,vts_reward_expectancy,2022.2.4,Win32,59.56280898,Chrome,1366,768,,,a,0.7517,10,149,0,2,7,31,6,1,0,0,1,0,1,0,0,0,hexagon,triangle,,,,,,,,,,,,,,,,,,,,,,,,,,,,,,,,,,,,,,,,,,,,,,,,,,,,,,
292765,2022-09-28_18h00.02.799,vts_reward_expectancy,2022.2.4,Win32,59.56280898,Chrome,1366,768,,,a,0.7702,10,159,0,2,8,32,7,1,0,0,1,0,0,1,0,0,hexagon,circle,,,,,,,,,,,,,,,,,,,,,,,,,,,,,,,,,,,,,,,,,,,,,,,,,,,,,,
292765,2022-09-28_18h00.02.799,vts_reward_expectancy,2022.2.4,Win32,59.56280898,Chrome,1366,768,,,a,0.4186,10,169,0,2,9,33,9,1,0,0,0,1,1,0,0,0,star,triangle,,,,,,,,,,,,,,,,,,,,,,,,,,,,,,,,,,,,,,,,,,,,,,,,,,,,,,
292765,2022-09-28_18h00.02.799,vts_reward_expectancy,2022.2.4,Win32,59.56280898,Chrome,1366,768,,,a,0.6011,10,179,0,2,10,34,10,1,0,0,0,1,0,1,0,0,star ,circle,,,,,,,,,,,,,,,,,,,,,,,,,,,,,,,,,,,,,,,,,,,,,,,,,,,,,,
292765,2022-09-28_18h00.02.799,vts_reward_expectancy,2022.2.4,Win32,59.56280898,Chrome,1366,768,,,a,1.1328,10,189,0,2,11,35,2,1,1,0,0,0,0,0,0,1,triangle,star,,,,,,,,,,,,,,,,,,,,,,,,,,,,,,,,,,,,,,,,,,,,,,,,,,,,,,
292765,2022-09-28_18h00.02.799,vts_reward_expectancy,2022.2.4,Win32,59.56280898,Chrome,1366,768,,,a,1.025,10,199,1,0,0,0,0,1,1,0,0,0,0,1,0,0,triangle,circle,,,,,,,,,,,,,,,,,,,,,,,,,,,,,,,,,,,,,,,,,,,,,,,,,,,,,,
292765,2022-09-28_18h00.02.799,vts_reward_expectancy,2022.2.4,Win32,59.56280898,Chrome,1366,768,,,a,0.4723,1,200,1,0,1,1,1,1,1,0,0,0,0,0,1,0,triangle,hexagon,,,,,,,,,,,,,,,,,,,,,,,,,,,,,,,,,,,,,,,,,,,,,,,,,,,,,,
292765,2022-09-28_18h00.02.799,vts_reward_expectancy,2022.2.4,Win32,59.56280898,Chrome,1366,768,,,l,0.6406,1,201,1,0,2,2,11,1,0,0,0,1,0,0,1,0,star,hexagon,,,,,,,,,,,,,,,,,,,,,,,,,,,,,,,,,,,,,,,,,,,,,,,,,,,,,,
292765,2022-09-28_18h00.02.799,vts_reward_expectancy,2022.2.4,Win32,59.56280898,Chrome,1366,768,,,l,0.7678,10,211,1,0,3,3,3,1,0,1,0,0,1,0,0,0,circle,triangle,,,,,,,,,,,,,,,,,,,,,,,,,,,,,,,,,,,,,,,,,,,,,,,,,,,,,,
292765,2022-09-28_18h00.02.799,vts_reward_expectancy,2022.2.4,Win32,59.56280898,Chrome,1366,768,,,l,0.7354,10,221,1,0,4,4,9,1,0,0,0,1,1,0,0,0,star,triangle,,,,,,,,,,,,,,,,,,,,,,,,,,,,,,,,,,,,,,,,,,,,,,,,,,,,,,
292765,2022-09-28_18h00.02.799,vts_reward_expectancy,2022.2.4,Win32,59.56280898,Chrome,1366,768,,,l,0.7233,1,222,1,0,5,5,6,1,0,0,1,0,1,0,0,0,hexagon,triangle,,,,,,,,,,,,,,,,,,,,,,,,,,,,,,,,,,,,,,,,,,,,,,,,,,,,,,
292765,2022-09-28_18h00.02.799,vts_reward_expectancy,2022.2.4,Win32,59.56280898,Chrome,1366,768,,,l,2.0216,1,223,1,0,6,6,5,1,0,1,0,0,0,0,0,1,circle,star,,,,,,,,,,,,,,,,,,,,,,,,,,,,,,,,,,,,,,,,,,,,,,,,,,,,,,
292765,2022-09-28_18h00.02.799,vts_reward_expectancy,2022.2.4,Win32,59.56280898,Chrome,1366,768,,,l,0.995,1,224,1,0,7,7,8,1,0,0,1,0,0,0,0,1,hexagon,star,,,,,,,,,,,,,,,,,,,,,,,,,,,,,,,,,,,,,,,,,,,,,,,,,,,,,,
292765,2022-09-28_18h00.02.799,vts_reward_expectancy,2022.2.4,Win32,59.56280898,Chrome,1366,768,,,a,0.752,1,225,1,0,8,8,2,1,1,0,0,0,0,0,0,1,triangle,star,,,,,,,,,,,,,,,,,,,,,,,,,,,,,,,,,,,,,,,,,,,,,,,,,,,,,,
292765,2022-09-28_18h00.02.799,vts_reward_expectancy,2022.2.4,Win32,59.56280898,Chrome,1366,768,,,l,0.7605,1,226,1,0,9,9,4,1,0,1,0,0,0,0,1,0,circle,hexagon,,,,,,,,,,,,,,,,,,,,,,,,,,,,,,,,,,,,,,,,,,,,,,,,,,,,,,
292765,2022-09-28_18h00.02.799,vts_reward_expectancy,2022.2.4,Win32,59.56280898,Chrome,1366,768,,,a,0.3501,10,236,1,0,10,10,7,1,0,0,1,0,0,1,0,0,hexagon,circle,,,,,,,,,,,,,,,,,,,,,,,,,,,,,,,,,,,,,,,,,,,,,,,,,,,,,,
292765,2022-09-28_18h00.02.799,vts_reward_expectancy,2022.2.4,Win32,59.56280898,Chrome,1366,768,,,a,0.5522,10,246,1,0,11,11,10,1,0,0,0,1,0,1,0,0,star ,circle,,,,,,,,,,,,,,,,,,,,,,,,,,,,,,,,,,,,,,,,,,,,,,,,,,,,,,
292765,2022-09-28_18h00.02.799,vts_reward_expectancy,2022.2.4,Win32,59.56280898,Chrome,1366,768,,,a,1.54,10,256,1,1,0,12,4,1,0,1,0,0,0,0,1,0,circle,hexagon,,,,,,,,,,,,,,,,,,,,,,,,,,,,,,,,,,,,,,,,,,,,,,,,,,,,,,
292765,2022-09-28_18h00.02.799,vts_reward_expectancy,2022.2.4,Win32,59.56280898,Chrome,1366,768,,,l,1.5375,10,266,1,1,1,13,11,1,0,0,0,1,0,0,1,0,star,hexagon,,,,,,,,,,,,,,,,,,,,,,,,,,,,,,,,,,,,,,,,,,,,,,,,,,,,,,
292765,2022-09-28_18h00.02.799,vts_reward_expectancy,2022.2.4,Win32,59.56280898,Chrome,1366,768,,,l,0.8658,10,276,1,1,2,14,9,1,0,0,0,1,1,0,0,0,star,triangle,,,,,,,,,,,,,,,,,,,,,,,,,,,,,,,,,,,,,,,,,,,,,,,,,,,,,,
292765,2022-09-28_18h00.02.799,vts_reward_expectancy,2022.2.4,Win32,59.56280898,Chrome,1366,768,,,a,1.9419,1,277,1,1,3,15,3,1,0,1,0,0,1,0,0,0,circle,triangle,,,,,,,,,,,,,,,,,,,,,,,,,,,,,,,,,,,,,,,,,,,,,,,,,,,,,,
292765,2022-09-28_18h00.02.799,vts_reward_expectancy,2022.2.4,Win32,59.56280898,Chrome,1366,768,,,l,0.683,1,278,1,1,4,16,5,1,0,1,0,0,0,0,0,1,circle,star,,,,,,,,,,,,,,,,,,,,,,,,,,,,,,,,,,,,,,,,,,,,,,,,,,,,,,
292765,2022-09-28_18h00.02.799,vts_reward_expectancy,2022.2.4,Win32,59.56280898,Chrome,1366,768,,,a,0.4241,10,288,1,1,5,17,2,1,1,0,0,0,0,0,0,1,triangle,star,,,,,,,,,,,,,,,,,,,,,,,,,,,,,,,,,,,,,,,,,,,,,,,,,,,,,,
292765,2022-09-28_18h00.02.799,vts_reward_expectancy,2022.2.4,Win32,59.56280898,Chrome,1366,768,,,a,0.3673,10,298,1,1,6,18,8,1,0,0,1,0,0,0,0,1,hexagon,star,,,,,,,,,,,,,,,,,,,,,,,,,,,,,,,,,,,,,,,,,,,,,,,,,,,,,,
292765,2022-09-28_18h00.02.799,vts_reward_expectancy,2022.2.4,Win32,59.56280898,Chrome,1366,768,,,a,0.5258,1,299,1,1,7,19,6,1,0,0,1,0,1,0,0,0,hexagon,triangle,,,,,,,,,,,,,,,,,,,,,,,,,,,,,,,,,,,,,,,,,,,,,,,,,,,,,,
292765,2022-09-28_18h00.02.799,vts_reward_expectancy,2022.2.4,Win32,59.56280898,Chrome,1366,768,,,l,0.4254,1,300,1,1,8,20,10,1,0,0,0,1,0,1,0,0,star ,circle,,,,,,,,,,,,,,,,,,,,,,,,,,,,,,,,,,,,,,,,,,,,,,,,,,,,,,
292765,2022-09-28_18h00.02.799,vts_reward_expectancy,2022.2.4,Win32,59.56280898,Chrome,1366,768,,,l,0.4842,1,301,1,1,9,21,0,1,1,0,0,0,0,1,0,0,triangle,circle,,,,,,,,,,,,,,,,,,,,,,,,,,,,,,,,,,,,,,,,,,,,,,,,,,,,,,
292765,2022-09-28_18h00.02.799,vts_reward_expectancy,2022.2.4,Win32,59.56280898,Chrome,1366,768,,,a,1.0343,10,311,1,1,10,22,7,1,0,0,1,0,0,1,0,0,hexagon,circle,,,,,,,,,,,,,,,,,,,,,,,,,,,,,,,,,,,,,,,,,,,,,,,,,,,,,,
292765,2022-09-28_18h00.02.799,vts_reward_expectancy,2022.2.4,Win32,59.56280898,Chrome,1366,768,,,a,0.7602,10,321,1,1,11,23,1,1,1,0,0,0,0,0,1,0,triangle,hexagon,,,,,,,,,,,,,,,,,,,,,,,,,,,,,,,,,,,,,,,,,,,,,,,,,,,,,,
292765,2022-09-28_18h00.02.799,vts_reward_expectancy,2022.2.4,Win32,59.56280898,Chrome,1366,768,,,l,2.1179,10,331,1,2,0,24,6,1,0,0,1,0,1,0,0,0,hexagon,triangle,,,,,,,,,,,,,,,,,,,,,,,,,,,,,,,,,,,,,,,,,,,,,,,,,,,,,,
292765,2022-09-28_18h00.02.799,vts_reward_expectancy,2022.2.4,Win32,59.56280898,Chrome,1366,768,,,l,2.4617,1,332,1,2,1,25,5,1,0,1,0,0,0,0,0,1,circle,star,,,,,,,,,,,,,,,,,,,,,,,,,,,,,,,,,,,,,,,,,,,,,,,,,,,,,,
292765,2022-09-28_18h00.02.799,vts_reward_expectancy,2022.2.4,Win32,59.56280898,Chrome,1366,768,,,l,3.0692,10,342,1,2,2,26,3,1,0,1,0,0,1,0,0,0,circle,triangle,,,,,,,,,,,,,,,,,,,,,,,,,,,,,,,,,,,,,,,,,,,,,,,,,,,,,,
292765,2022-09-28_18h00.02.799,vts_reward_expectancy,2022.2.4,Win32,59.56280898,Chrome,1366,768,,,l,1.5331,1,343,1,2,3,27,11,1,0,0,0,1,0,0,1,0,star,hexagon,,,,,,,,,,,,,,,,,,,,,,,,,,,,,,,,,,,,,,,,,,,,,,,,,,,,,,
292765,2022-09-28_18h00.02.799,vts_reward_expectancy,2022.2.4,Win32,59.56280898,Chrome,1366,768,,,a,3.3847,10,353,1,2,4,28,1,1,1,0,0,0,0,0,1,0,triangle,hexagon,,,,,,,,,,,,,,,,,,,,,,,,,,,,,,,,,,,,,,,,,,,,,,,,,,,,,,
292765,2022-09-28_18h00.02.799,vts_reward_expectancy,2022.2.4,Win32,59.56280898,Chrome,1366,768,,,l,0.7842,1,354,1,2,5,29,8,1,0,0,1,0,0,0,0,1,hexagon,star,,,,,,,,,,,,,,,,,,,,,,,,,,,,,,,,,,,,,,,,,,,,,,,,,,,,,,
292765,2022-09-28_18h00.02.799,vts_reward_expectancy,2022.2.4,Win32,59.56280898,Chrome,1366,768,,,a,1.1526,1,355,1,2,6,30,9,1,0,0,0,1,1,0,0,0,star,triangle,,,,,,,,,,,,,,,,,,,,,,,,,,,,,,,,,,,,,,,,,,,,,,,,,,,,,,
292765,2022-09-28_18h00.02.799,vts_reward_expectancy,2022.2.4,Win32,59.56280898,Chrome,1366,768,,,a,1.6398,1,356,1,2,7,31,0,1,1,0,0,0,0,1,0,0,triangle,circle,,,,,,,,,,,,,,,,,,,,,,,,,,,,,,,,,,,,,,,,,,,,,,,,,,,,,,
292765,2022-09-28_18h00.02.799,vts_reward_expectancy,2022.2.4,Win32,59.56280898,Chrome,1366,768,,,l,1.6168,10,366,1,2,8,32,4,1,0,1,0,0,0,0,1,0,circle,hexagon,,,,,,,,,,,,,,,,,,,,,,,,,,,,,,,,,,,,,,,,,,,,,,,,,,,,,,
292765,2022-09-28_18h00.02.799,vts_reward_expectancy,2022.2.4,Win32,59.56280898,Chrome,1366,768,,,a,2.2511,10,376,1,2,9,33,10,1,0,0,0,1,0,1,0,0,star ,circle,,,,,,,,,,,,,,,,,,,,,,,,,,,,,,,,,,,,,,,,,,,,,,,,,,,,,,
292765,2022-09-28_18h00.02.799,vts_reward_expectancy,2022.2.4,Win32,59.56280898,Chrome,1366,768,,,a,1.5854,1,377,1,2,10,34,7,1,0,0,1,0,0,1,0,0,hexagon,circle,,,,,,,,,,,,,,,,,,,,,,,,,,,,,,,,,,,,,,,,,,,,,,,,,,,,,,
292765,2022-09-28_18h00.02.799,vts_reward_expectancy,2022.2.4,Win32,59.56280898,Chrome,1366,768,,,a,1.8678,1,378,1,2,11,35,2,1,1,0,0,0,0,0,0,1,triangle,star,,,,,,,,,,,,,,,,,,,,,,,,,,,,,,,,,,,,,,,,,,,,,,,,,,,,,,
292765,2022-09-28_18h00.02.799,vts_reward_expectancy,2022.2.4,Win32,59.56280898,Chrome,1366,768,,,l,1.305,10,388,2,0,0,0,4,1,0,1,0,0,0,0,1,0,circle,hexagon,,,,,,,,,,,,,,,,,,,,,,,,,,,,,,,,,,,,,,,,,,,,,,,,,,,,,,
292765,2022-09-28_18h00.02.799,vts_reward_expectancy,2022.2.4,Win32,59.56280898,Chrome,1366,768,,,a,0.8183,10,398,2,0,1,1,7,1,0,0,1,0,0,1,0,0,hexagon,circle,,,,,,,,,,,,,,,,,,,,,,,,,,,,,,,,,,,,,,,,,,,,,,,,,,,,,,
292765,2022-09-28_18h00.02.799,vts_reward_expectancy,2022.2.4,Win32,59.56280898,Chrome,1366,768,,,a,1.5229,1,399,2,0,2,2,8,1,0,0,1,0,0,0,0,1,hexagon,star,,,,,,,,,,,,,,,,,,,,,,,,,,,,,,,,,,,,,,,,,,,,,,,,,,,,,,
292765,2022-09-28_18h00.02.799,vts_reward_expectancy,2022.2.4,Win32,59.56280898,Chrome,1366,768,,,a,2.1679,1,400,2,0,3,3,10,1,0,0,0,1,0,1,0,0,star ,circle,,,,,,,,,,,,,,,,,,,,,,,,,,,,,,,,,,,,,,,,,,,,,,,,,,,,,,
292765,2022-09-28_18h00.02.799,vts_reward_expectancy,2022.2.4,Win32,59.56280898,Chrome,1366,768,,,a,0.502,1,401,2,0,4,4,9,1,0,0,0,1,1,0,0,0,star,triangle,,,,,,,,,,,,,,,,,,,,,,,,,,,,,,,,,,,,,,,,,,,,,,,,,,,,,,
292765,2022-09-28_18h00.02.799,vts_reward_expectancy,2022.2.4,Win32,59.56280898,Chrome,1366,768,,,a,0.6477,10,411,2,0,5,5,1,1,1,0,0,0,0,0,1,0,triangle,hexagon,,,,,,,,,,,,,,,,,,,,,,,,,,,,,,,,,,,,,,,,,,,,,,,,,,,,,,
292765,2022-09-28_18h00.02.799,vts_reward_expectancy,2022.2.4,Win32,59.56280898,Chrome,1366,768,,,a,0.4163,10,421,2,0,6,6,0,1,1,0,0,0,0,1,0,0,triangle,circle,,,,,,,,,,,,,,,,,,,,,,,,,,,,,,,,,,,,,,,,,,,,,,,,,,,,,,
292765,2022-09-28_18h00.02.799,vts_reward_expectancy,2022.2.4,Win32,59.56280898,Chrome,1366,768,,,l,1.1316,10,431,2,0,7,7,3,1,0,1,0,0,1,0,0,0,circle,triangle,,,,,,,,,,,,,,,,,,,,,,,,,,,,,,,,,,,,,,,,,,,,,,,,,,,,,,
292765,2022-09-28_18h00.02.799,vts_reward_expectancy,2022.2.4,Win32,59.56280898,Chrome,1366,768,,,l,1.9848,10,441,2,0,8,8,11,1,0,0,0,1,0,0,1,0,star,hexagon,,,,,,,,,,,,,,,,,,,,,,,,,,,,,,,,,,,,,,,,,,,,,,,,,,,,,,
292765,2022-09-28_18h00.02.799,vts_reward_expectancy,2022.2.4,Win32,59.56280898,Chrome,1366,768,,,a,0.9921,10,451,2,0,9,9,2,1,1,0,0,0,0,0,0,1,triangle,star,,,,,,,,,,,,,,,,,,,,,,,,,,,,,,,,,,,,,,,,,,,,,,,,,,,,,,
292765,2022-09-28_18h00.02.799,vts_reward_expectancy,2022.2.4,Win32,59.56280898,Chrome,1366,768,,,l,0.8353,1,452,2,0,10,10,6,1,0,0,1,0,1,0,0,0,hexagon,triangle,,,,,,,,,,,,,,,,,,,,,,,,,,,,,,,,,,,,,,,,,,,,,,,,,,,,,,
292765,2022-09-28_18h00.02.799,vts_reward_expectancy,2022.2.4,Win32,59.56280898,Chrome,1366,768,,,l,1.5559,1,453,2,0,11,11,5,1,0,1,0,0,0,0,0,1,circle,star,,,,,,,,,,,,,,,,,,,,,,,,,,,,,,,,,,,,,,,,,,,,,,,,,,,,,,
292765,2022-09-28_18h00.02.799,vts_reward_expectancy,2022.2.4,Win32,59.56280898,Chrome,1366,768,,,a,0.5377,1,454,2,1,0,12,8,1,0,0,1,0,0,0,0,1,hexagon,star,,,,,,,,,,,,,,,,,,,,,,,,,,,,,,,,,,,,,,,,,,,,,,,,,,,,,,
292765,2022-09-28_18h00.02.799,vts_reward_expectancy,2022.2.4,Win32,59.56280898,Chrome,1366,768,,,a,0.5504,1,455,2,1,1,13,4,1,0,1,0,0,0,0,1,0,circle,hexagon,,,,,,,,,,,,,,,,,,,,,,,,,,,,,,,,,,,,,,,,,,,,,,,,,,,,,,
292765,2022-09-28_18h00.02.799,vts_reward_expectancy,2022.2.4,Win32,59.56280898,Chrome,1366,768,,,a,1.0311,1,456,2,1,2,14,7,1,0,0,1,0,0,1,0,0,hexagon,circle,,,,,,,,,,,,,,,,,,,,,,,,,,,,,,,,,,,,,,,,,,,,,,,,,,,,,,
292765,2022-09-28_18h00.02.799,vts_reward_expectancy,2022.2.4,Win32,59.56280898,Chrome,1366,768,,,a,0.8092,1,457,2,1,3,15,6,1,0,0,1,0,1,0,0,0,hexagon,triangle,,,,,,,,,,,,,,,,,,,,,,,,,,,,,,,,,,,,,,,,,,,,,,,,,,,,,,
292765,2022-09-28_18h00.02.799,vts_reward_expectancy,2022.2.4,Win32,59.56280898,Chrome,1366,768,,,a,0.4834,10,467,2,1,4,16,1,1,1,0,0,0,0,0,1,0,triangle,hexagon,,,,,,,,,,,,,,,,,,,,,,,,,,,,,,,,,,,,,,,,,,,,,,,,,,,,,,
292765,2022-09-28_18h00.02.799,vts_reward_expectancy,2022.2.4,Win32,59.56280898,Chrome,1366,768,,,l,0.9823,10,477,2,1,5,17,11,1,0,0,0,1,0,0,1,0,star,hexagon,,,,,,,,,,,,,,,,,,,,,,,,,,,,,,,,,,,,,,,,,,,,,,,,,,,,,,
292765,2022-09-28_18h00.02.799,vts_reward_expectancy,2022.2.4,Win32,59.56280898,Chrome,1366,768,,,l,0.282,10,487,2,1,6,18,0,1,1,0,0,0,0,1,0,0,triangle,circle,,,,,,,,,,,,,,,,,,,,,,,,,,,,,,,,,,,,,,,,,,,,,,,,,,,,,,
292765,2022-09-28_18h00.02.799,vts_reward_expectancy,2022.2.4,Win32,59.56280898,Chrome,1366,768,,,a,0.4861,10,497,2,1,7,19,10,1,0,0,0,1,0,1,0,0,star ,circle,,,,,,,,,,,,,,,,,,,,,,,,,,,,,,,,,,,,,,,,,,,,,,,,,,,,,,
292765,2022-09-28_18h00.02.799,vts_reward_expectancy,2022.2.4,Win32,59.56280898,Chrome,1366,768,,,l,0.333,1,498,2,1,8,20,5,1,0,1,0,0,0,0,0,1,circle,star,,,,,,,,,,,,,,,,,,,,,,,,,,,,,,,,,,,,,,,,,,,,,,,,,,,,,,
292765,2022-09-28_18h00.02.799,vts_reward_expectancy,2022.2.4,Win32,59.56280898,Chrome,1366,768,,,a,0.5663,10,508,2,1,9,21,3,1,0,1,0,0,1,0,0,0,circle,triangle,,,,,,,,,,,,,,,,,,,,,,,,,,,,,,,,,,,,,,,,,,,,,,,,,,,,,,
292765,2022-09-28_18h00.02.799,vts_reward_expectancy,2022.2.4,Win32,59.56280898,Chrome,1366,768,,,a,0.5995,1,509,2,1,10,22,9,1,0,0,0,1,1,0,0,0,star,triangle,,,,,,,,,,,,,,,,,,,,,,,,,,,,,,,,,,,,,,,,,,,,,,,,,,,,,,
292765,2022-09-28_18h00.02.799,vts_reward_expectancy,2022.2.4,Win32,59.56280898,Chrome,1366,768,,,l,0.5166,1,510,2,1,11,23,2,1,1,0,0,0,0,0,0,1,triangle,star,,,,,,,,,,,,,,,,,,,,,,,,,,,,,,,,,,,,,,,,,,,,,,,,,,,,,,
292765,2022-09-28_18h00.02.799,vts_reward_expectancy,2022.2.4,Win32,59.56280898,Chrome,1366,768,,,l,0.5054,10,520,2,2,0,24,4,1,0,1,0,0,0,0,1,0,circle,hexagon,,,,,,,,,,,,,,,,,,,,,,,,,,,,,,,,,,,,,,,,,,,,,,,,,,,,,,
292765,2022-09-28_18h00.02.799,vts_reward_expectancy,2022.2.4,Win32,59.56280898,Chrome,1366,768,,,l,0.5757,1,521,2,2,1,25,3,1,0,1,0,0,1,0,0,0,circle,triangle,,,,,,,,,,,,,,,,,,,,,,,,,,,,,,,,,,,,,,,,,,,,,,,,,,,,,,
292765,2022-09-28_18h00.02.799,vts_reward_expectancy,2022.2.4,Win32,59.56280898,Chrome,1366,768,,,l,1.5836,10,531,2,2,2,26,9,1,0,0,0,1,1,0,0,0,star,triangle,,,,,,,,,,,,,,,,,,,,,,,,,,,,,,,,,,,,,,,,,,,,,,,,,,,,,,
292765,2022-09-28_18h00.02.799,vts_reward_expectancy,2022.2.4,Win32,59.56280898,Chrome,1366,768,,,a,1.0338,1,532,2,2,3,27,8,1,0,0,1,0,0,0,0,1,hexagon,star,,,,,,,,,,,,,,,,,,,,,,,,,,,,,,,,,,,,,,,,,,,,,,,,,,,,,,
292765,2022-09-28_18h00.02.799,vts_reward_expectancy,2022.2.4,Win32,59.56280898,Chrome,1366,768,,,l,2.2749,1,533,2,2,4,28,1,1,1,0,0,0,0,0,1,0,triangle,hexagon,,,,,,,,,,,,,,,,,,,,,,,,,,,,,,,,,,,,,,,,,,,,,,,,,,,,,,
292765,2022-09-28_18h00.02.799,vts_reward_expectancy,2022.2.4,Win32,59.56280898,Chrome,1366,768,,,a,1.0483,10,543,2,2,5,29,5,1,0,1,0,0,0,0,0,1,circle,star,,,,,,,,,,,,,,,,,,,,,,,,,,,,,,,,,,,,,,,,,,,,,,,,,,,,,,
292765,2022-09-28_18h00.02.799,vts_reward_expectancy,2022.2.4,Win32,59.56280898,Chrome,1366,768,,,a,2.018,10,553,2,2,6,30,2,1,1,0,0,0,0,0,0,1,triangle,star,,,,,,,,,,,,,,,,,,,,,,,,,,,,,,,,,,,,,,,,,,,,,,,,,,,,,,
292765,2022-09-28_18h00.02.799,vts_reward_expectancy,2022.2.4,Win32,59.56280898,Chrome,1366,768,,,l,2.0691,10,563,2,2,7,31,7,1,0,0,1,0,0,1,0,0,hexagon,circle,,,,,,,,,,,,,,,,,,,,,,,,,,,,,,,,,,,,,,,,,,,,,,,,,,,,,,
292765,2022-09-28_18h00.02.799,vts_reward_expectancy,2022.2.4,Win32,59.56280898,Chrome,1366,768,,,a,1.7494,10,573,2,2,8,32,10,1,0,0,0,1,0,1,0,0,star ,circle,,,,,,,,,,,,,,,,,,,,,,,,,,,,,,,,,,,,,,,,,,,,,,,,,,,,,,
292765,2022-09-28_18h00.02.799,vts_reward_expectancy,2022.2.4,Win32,59.56280898,Chrome,1366,768,,,a,1.2419,10,583,2,2,9,33,0,1,1,0,0,0,0,1,0,0,triangle,circle,,,,,,,,,,,,,,,,,,,,,,,,,,,,,,,,,,,,,,,,,,,,,,,,,,,,,,
292765,2022-09-28_18h00.02.799,vts_reward_expectancy,2022.2.4,Win32,59.56280898,Chrome,1366,768,,,a,2.1498,1,584,2,2,10,34,6,1,0,0,1,0,1,0,0,0,hexagon,triangle,,,,,,,,,,,,,,,,,,,,,,,,,,,,,,,,,,,,,,,,,,,,,,,,,,,,,,
292765,2022-09-28_18h00.02.799,vts_reward_expectancy,2022.2.4,Win32,59.56280898,Chrome,1366,768,,,a,2.4798,1,585,2,2,11,35,11,1,0,0,0,1,0,0,1,0,star,hexagon,,,,,,,,,,,,,,,,,,,,,,,,,,,,,,,,,,,,,,,,,,,,,,,,,,,,,,
292765,2022-09-28_18h00.02.799,vts_reward_expectancy,2022.2.4,Win32,59.56280898,Chrome,1366,768,,,,,,,,,,,,,,,,,,,,,,,U,181,circle,1,0,f,2.0903,0,0,0,0,0,1,,,,,,,,,,,,,,,,,,,,,,,,,,,,,,,,,,,,,,,,,
292765,2022-09-28_18h00.02.799,vts_reward_expectancy,2022.2.4,Win32,59.56280898,Chrome,1366,768,,,,,,,,,,,,,,,,,,,,,,,F,174,triangle,1,0,d,1.4781,0,1,0,1,0,1,,,,,,,,,,,,,,,,,,,,,,,,,,,,,,,,,,,,,,,,,
292765,2022-09-28_18h00.02.799,vts_reward_expectancy,2022.2.4,Win32,59.56280898,Chrome,1366,768,,,,,,,,,,,,,,,,,,,,,,,D,160,star,1,0,d,0.8252,0,2,0,2,0,1,,,,,,,,,,,,,,,,,,,,,,,,,,,,,,,,,,,,,,,,,
292765,2022-09-28_18h00.02.799,vts_reward_expectancy,2022.2.4,Win32,59.56280898,Chrome,1366,768,,,,,,,,,,,,,,,,,,,,,,,Y,132,hexagon,1,0,f,0.8023,0,3,0,3,0,1,,,,,,,,,,,,,,,,,,,,,,,,,,,,,,,,,,,,,,,,,
292765,2022-09-28_18h00.02.799,vts_reward_expectancy,2022.2.4,Win32,59.56280898,Chrome,1366,768,,,,,,,,,,,,,,,,,,,,,,,S,139,circle,1,0,f,0.9521,0,4,0,4,0,1,,,,,,,,,,,,,,,,,,,,,,,,,,,,,,,,,,,,,,,,,
292765,2022-09-28_18h00.02.799,vts_reward_expectancy,2022.2.4,Win32,59.56280898,Chrome,1366,768,,,,,,,,,,,,,,,,,,,,,,,B,146,triangle,1,0,d,0.7018,0,5,0,5,0,1,,,,,,,,,,,,,,,,,,,,,,,,,,,,,,,,,,,,,,,,,
292765,2022-09-28_18h00.02.799,vts_reward_expectancy,2022.2.4,Win32,59.56280898,Chrome,1366,768,,,,,,,,,,,,,,,,,,,,,,,H,125,star,0,0,,,0,6,0,6,0,1,,,,,,,,,,,,,,,,,,,,,,,,,,,,,,,,,,,,,,,,,
292765,2022-09-28_18h00.02.799,vts_reward_expectancy,2022.2.4,Win32,59.56280898,Chrome,1366,768,,,,,,,,,,,,,,,,,,,,,,,W,167,hexagon,1,1,f,0.7856,0,7,0,7,0,1,,,,,,,,,,,,,,,,,,,,,,,,,,,,,,,,,,,,,,,,,
292765,2022-09-28_18h00.02.799,vts_reward_expectancy,2022.2.4,Win32,59.56280898,Chrome,1366,768,,,,,,,,,,,,,,,,,,,,,,,U,181,star,1,0,f,0.677,0,8,0,8,0,1,,,,,,,,,,,,,,,,,,,,,,,,,,,,,,,,,,,,,,,,,
292765,2022-09-28_18h00.02.799,vts_reward_expectancy,2022.2.4,Win32,59.56280898,Chrome,1366,768,,,,,,,,,,,,,,,,,,,,,,,F,174,hexagon,1,0,d,0.7234,0,9,0,9,0,1,,,,,,,,,,,,,,,,,,,,,,,,,,,,,,,,,,,,,,,,,
292765,2022-09-28_18h00.02.799,vts_reward_expectancy,2022.2.4,Win32,59.56280898,Chrome,1366,768,,,,,,,,,,,,,,,,,,,,,,,W,160,triangle,0,0,,,1,,,,,,,0,0,0,0,1,,,,,,,,,,,,,,,,,,,,,,,,,,,,,,,,,,,
292765,2022-09-28_18h00.02.799,vts_reward_expectancy,2022.2.4,Win32,59.56280898,Chrome,1366,768,,,,,,,,,,,,,,,,,,,,,,,U,181,circle,1,1,,,1,,,,,,k,1,0,1,0,1,1.3356,,,,,,,,,,,,,,,,,,,,,,,,,,,,,,,,,,
292765,2022-09-28_18h00.02.799,vts_reward_expectancy,2022.2.4,Win32,59.56280898,Chrome,1366,768,,,,,,,,,,,,,,,,,,,,,,,D,125,hexagon,1,0,,,1,,,,,,j,2,0,2,0,1,0.6746,,,,,,,,,,,,,,,,,,,,,,,,,,,,,,,,,,
292765,2022-09-28_18h00.02.799,vts_reward_expectancy,2022.2.4,Win32,59.56280898,Chrome,1366,768,,,,,,,,,,,,,,,,,,,,,,,B,174,star,1,0,,,1,,,,,,k,3,0,3,0,1,0.6285,,,,,,,,,,,,,,,,,,,,,,,,,,,,,,,,,,
292765,2022-09-28_18h00.02.799,vts_reward_expectancy,2022.2.4,Win32,59.56280898,Chrome,1366,768,,,,,,,,,,,,,,,,,,,,,,,F,132,triangle,1,0,,,1,,,,,,j,4,0,4,0,1,0.5194,,,,,,,,,,,,,,,,,,,,,,,,,,,,,,,,,,
292765,2022-09-28_18h00.02.799,vts_reward_expectancy,2022.2.4,Win32,59.56280898,Chrome,1366,768,,,,,,,,,,,,,,,,,,,,,,,S,139,circle,1,0,,,1,,,,,,j,5,0,5,0,1,0.6566,,,,,,,,,,,,,,,,,,,,,,,,,,,,,,,,,,
292765,2022-09-28_18h00.02.799,vts_reward_expectancy,2022.2.4,Win32,59.56280898,Chrome,1366,768,,,,,,,,,,,,,,,,,,,,,,,Y,146,hexagon,1,0,,,1,,,,,,j,6,0,6,0,1,0.6694,,,,,,,,,,,,,,,,,,,,,,,,,,,,,,,,,,
292765,2022-09-28_18h00.02.799,vts_reward_expectancy,2022.2.4,Win32,59.56280898,Chrome,1366,768,,,,,,,,,,,,,,,,,,,,,,,H,167,star,1,0,,,1,,,,,,k,7,0,7,0,1,0.6577,,,,,,,,,,,,,,,,,,,,,,,,,,,,,,,,,,
292765,2022-09-28_18h00.02.799,vts_reward_expectancy,2022.2.4,Win32,59.56280898,Chrome,1366,768,,,,,,,,,,,,,,,,,,,,,,,W,160,star,1,0,,,1,,,,,,k,8,0,8,0,1,0.9535,,,,,,,,,,,,,,,,,,,,,,,,,,,,,,,,,,
292765,2022-09-28_18h00.02.799,vts_reward_expectancy,2022.2.4,Win32,59.56280898,Chrome,1366,768,,,,,,,,,,,,,,,,,,,,,,,U,181,circle,1,0,,,1,,,,,,k,9,0,9,0,1,0.4983,,,,,,,,,,,,,,,,,,,,,,,,,,,,,,,,,,
292765,2022-09-28_18h00.02.799,vts_reward_expectancy,2022.2.4,Win32,59.56280898,Chrome,1366,768,,,,,0,585,,,,,,,,,,,,,,,,,F,181,circle,1,0,,,2,,,,,,,,,,,,,-1,letter,NA,d,1.9968,vtsPrac,0,0,0,0,1,,,,,,,,,,,,,,,,,,,,,,,
292765,2022-09-28_18h00.02.799,vts_reward_expectancy,2022.2.4,Win32,59.56280898,Chrome,1366,768,,,,,0,585,,,,,,,,,,,,,,,,,B,167,star,1,0,,,2,,,,,,,,,,,,,repeat,letter,lettRpt,d,1.4791,vtsPrac,1,0,1,0,1,,,,,,,,,,,,,,,,,,,,,,,
292765,2022-09-28_18h00.02.799,vts_reward_expectancy,2022.2.4,Win32,59.56280898,Chrome,1366,768,,,,,0,585,,,,,,,,,,,,,,,,,D,125,circle,1,0,,,2,,,,,,,,,,,,,switch,number,numSwt,j,1.6845,vtsPrac,2,0,2,0,1,,,,,,,,,,,,,,,,,,,,,,,
292765,2022-09-28_18h00.02.799,vts_reward_expectancy,2022.2.4,Win32,59.56280898,Chrome,1366,768,,,,,0,585,,,,,,,,,,,,,,,,,Y,132,star,1,0,,,2,,,,,,,,,,,,,repeat,number,numRpt,j,0.7496,vtsPrac,3,0,3,0,1,,,,,,,,,,,,,,,,,,,,,,,
292765,2022-09-28_18h00.02.799,vts_reward_expectancy,2022.2.4,Win32,59.56280898,Chrome,1366,768,,,,,0,585,,,,,,,,,,,,,,,,,F,181,circle,1,0,,,2,,,,,,,,,,,,,switch,letter,lettSwt,d,0.96,vtsPrac,4,0,4,0,1,,,,,,,,,,,,,,,,,,,,,,,
292765,2022-09-28_18h00.02.799,vts_reward_expectancy,2022.2.4,Win32,59.56280898,Chrome,1366,768,,,,,0,585,,,,,,,,,,,,,,,,,B,167,hexagon,1,0,,,2,,,,,,,,,,,,,switch,number,numSwt,k,0.5581,vtsPrac,5,0,5,0,1,,,,,,,,,,,,,,,,,,,,,,,
292765,2022-09-28_18h00.02.799,vts_reward_expectancy,2022.2.4,Win32,59.56280898,Chrome,1366,768,,,,,0,585,,,,,,,,,,,,,,,,,D,125,star,1,0,,,2,,,,,,,,,,,,,switch,letter,lettSwt,d,0.6948,vtsPrac,6,0,6,0,1,,,,,,,,,,,,,,,,,,,,,,,
292765,2022-09-28_18h00.02.799,vts_reward_expectancy,2022.2.4,Win32,59.56280898,Chrome,1366,768,,,,,0,585,,,,,,,,,,,,,,,,,Y,132,hexagon,1,0,,,2,,,,,,,,,,,,,switch,number,numSwt,j,0.7662,vtsPrac,7,0,7,0,1,,,,,,,,,,,,,,,,,,,,,,,
292765,2022-09-28_18h00.02.799,vts_reward_expectancy,2022.2.4,Win32,59.56280898,Chrome,1366,768,,,,,0,585,,,,,,,,,,,,,,,,,S,132,star,1,0,,,2,,,,,,,,,,,,,repeat,number,numRpt,j,0.6065,vtsPrac,8,0,8,0,1,,,,,,,,,,,,,,,,,,,,,,,
292765,2022-09-28_18h00.02.799,vts_reward_expectancy,2022.2.4,Win32,59.56280898,Chrome,1366,768,,,,,0,585,,,,,,,,,,,,,,,,,U,174,hexagon,1,0,,,2,,,,,,,,,,,,,switch,letter,lettSwt,f,0.6212,vtsPrac,9,0,9,0,1,,,,,,,,,,,,,,,,,,,,,,,
292765,2022-09-28_18h00.02.799,vts_reward_expectancy,2022.2.4,Win32,59.56280898,Chrome,1366,768,,,,,0,585,,,,,,,,,,,,,,,,,F,125,hexagon,1,0,,,2,,,,,,,,,,,,,switch,number,numSwt,j,0.643,vtsPrac,10,0,10,0,1,,,,,,,,,,,,,,,,,,,,,,,
292765,2022-09-28_18h00.02.799,vts_reward_expectancy,2022.2.4,Win32,59.56280898,Chrome,1366,768,,,,,0,585,,,,,,,,,,,,,,,,,Y,167,circle,1,0,,,2,,,,,,,,,,,,,switch,letter,lettSwt,f,0.6929,vtsPrac,11,0,11,0,1,,,,,,,,,,,,,,,,,,,,,,,
292765,2022-09-28_18h00.02.799,vts_reward_expectancy,2022.2.4,Win32,59.56280898,Chrome,1366,768,,,,,0,585,,,,,,,,,,,,,,,,,H,160,hexagon,1,0,,,2,,,,,,,,,,,,,repeat,letter,lettRpt,d,0.6449,vtsPrac,12,0,12,0,1,,,,,,,,,,,,,,,,,,,,,,,
292765,2022-09-28_18h00.02.799,vts_reward_expectancy,2022.2.4,Win32,59.56280898,Chrome,1366,768,,,,,0,585,,,,,,,,,,,,,,,,,B,132,star,1,0,,,2,,,,,,,,,,,,,repeat,letter,lettRpt,d,0.5692,vtsPrac,13,0,13,0,1,,,,,,,,,,,,,,,,,,,,,,,
292765,2022-09-28_18h00.02.799,vts_reward_expectancy,2022.2.4,Win32,59.56280898,Chrome,1366,768,,,,,0,585,,,,,,,,,,,,,,,,,U,181,circle,1,0,,,2,,,,,,,,,,,,,switch,number,numSwt,k,0.5111,vtsPrac,14,0,14,0,1,,,,,,,,,,,,,,,,,,,,,,,
292765,2022-09-28_18h00.02.799,vts_reward_expectancy,2022.2.4,Win32,59.56280898,Chrome,1366,768,,,,,0,585,,,,,,,,,,,,,,,,,Y,167,hexagon,1,0,,,2,,,,,,,,,,,,,switch,letter,lettSwt,f,0.5418,vtsPrac,15,0,15,0,1,,,,,,,,,,,,,,,,,,,,,,,
292765,2022-09-28_18h00.02.799,vts_reward_expectancy,2022.2.4,Win32,59.56280898,Chrome,1366,768,,,,,,,,,,,,,,,,,,,,,,,,,,,,,,,,,,,,,,,,,,,,,,,,,,,,,,,,,,,,,,,,,,,,,,,,,,,,
292765,2022-09-28_18h00.02.799,vts_reward_expectancy,2022.2.4,Win32,59.56280898,Chrome,1366,768,,,,,,,,,,,,,,,,,,,,,,,,,,,,,,,,,,,,,,,,,,,,,,,,,,,,,,,,,,,,,,,,,,,,,,,,,,,,
292765,2022-09-28_18h00.02.799,vts_reward_expectancy,2022.2.4,Win32,59.56280898,Chrome,1366,768,,,,,0,585,,,,,,,,,,,,,,,,,W,146,triangle,1,0,,,,,,,,,,,,,,,,repeat,letter,lettRpt,f,0.8759,noRew,,,,,,0,0,0,0,0,1,,,,,,,,,,,,,,,,,
292765,2022-09-28_18h00.02.799,vts_reward_expectancy,2022.2.4,Win32,59.56280898,Chrome,1366,768,,,,,0,585,,,,,,,,,,,,,,,,,F,167,star,1,0,,,,,,,,,,,,,,,,repeat,letter,lettRpt,d,0.6286,noRew,,,,,,0,1,0,1,0,1,,,,,,,,,,,,,,,,,
292765,2022-09-28_18h00.02.799,vts_reward_expectancy,2022.2.4,Win32,59.56280898,Chrome,1366,768,,,,,0,585,,,,,,,,,,,,,,,,,B,160,triangle,1,0,,,,,,,,,,,,,,,,switch,number,numSwt,k,0.551,noRew,,,,,,0,2,0,2,0,1,,,,,,,,,,,,,,,,,
292765,2022-09-28_18h00.02.799,vts_reward_expectancy,2022.2.4,Win32,59.56280898,Chrome,1366,768,,,,,0,585,,,,,,,,,,,,,,,,,D,139,star,1,0,,,,,,,,,,,,,,,,switch,letter,lettSwt,d,0.4937,noRew,,,,,,0,3,0,3,0,1,,,,,,,,,,,,,,,,,
292765,2022-09-28_18h00.02.799,vts_reward_expectancy,2022.2.4,Win32,59.56280898,Chrome,1366,768,,,,,0,585,,,,,,,,,,,,,,,,,W,146,triangle,1,0,,,,,,,,,,,,,,,,repeat,letter,lettRpt,f,0.7139,noRew,,,,,,0,4,0,4,0,1,,,,,,,,,,,,,,,,,
292765,2022-09-28_18h00.02.799,vts_reward_expectancy,2022.2.4,Win32,59.56280898,Chrome,1366,768,,,,,0,585,,,,,,,,,,,,,,,,,F,167,hexagon,1,0,,,,,,,,,,,,,,,,switch,number,numSwt,k,0.6267,noRew,,,,,,0,5,0,5,0,1,,,,,,,,,,,,,,,,,
292765,2022-09-28_18h00.02.799,vts_reward_expectancy,2022.2.4,Win32,59.56280898,Chrome,1366,768,,,,,0,585,,,,,,,,,,,,,,,,,B,160,circle,1,0,,,,,,,,,,,,,,,,repeat,number,numRpt,k,0.8447,noRew,,,,,,0,6,0,6,0,1,,,,,,,,,,,,,,,,,
292765,2022-09-28_18h00.02.799,vts_reward_expectancy,2022.2.4,Win32,59.56280898,Chrome,1366,768,,,,,0,585,,,,,,,,,,,,,,,,,D,139,triangle,1,0,,,,,,,,,,,,,,,,repeat,number,numRpt,j,0.76,noRew,,,,,,0,7,0,7,0,1,,,,,,,,,,,,,,,,,
292765,2022-09-28_18h00.02.799,vts_reward_expectancy,2022.2.4,Win32,59.56280898,Chrome,1366,768,,,,,0,585,,,,,,,,,,,,,,,,,W,160,star,1,0,,,,,,,,,,,,,,,,switch,letter,lettSwt,f,0.545,noRew,,,,,,0,8,0,8,0,1,,,,,,,,,,,,,,,,,
292765,2022-09-28_18h00.02.799,vts_reward_expectancy,2022.2.4,Win32,59.56280898,Chrome,1366,768,,,,,0,585,,,,,,,,,,,,,,,,,F,146,circle,1,0,,,,,,,,,,,,,,,,repeat,letter,lettRpt,d,0.5104,noRew,,,,,,0,9,0,9,0,1,,,,,,,,,,,,,,,,,
292765,2022-09-28_18h00.02.799,vts_reward_expectancy,2022.2.4,Win32,59.56280898,Chrome,1366,768,,,,,0,585,,,,,,,,,,,,,,,,,H,139,circle,1,0,,,,,,,,,,,,,,,,switch,number,numSwt,j,0.6602,noRew,,,,,,0,10,0,10,0,1,,,,,,,,,,,,,,,,,
292765,2022-09-28_18h00.02.799,vts_reward_expectancy,2022.2.4,Win32,59.56280898,Chrome,1366,768,,,,,0,585,,,,,,,,,,,,,,,,,U,132,triangle,1,0,,,,,,,,,,,,,,,,repeat,number,numRpt,j,0.5111,noRew,,,,,,0,11,0,11,0,1,,,,,,,,,,,,,,,,,
292765,2022-09-28_18h00.02.799,vts_reward_expectancy,2022.2.4,Win32,59.56280898,Chrome,1366,768,,,,,0,585,,,,,,,,,,,,,,,,,D,125,hexagon,1,0,,,,,,,,,,,,,,,,repeat,number,numRpt,j,0.5852,noRew,,,,,,0,12,0,12,0,1,,,,,,,,,,,,,,,,,
292765,2022-09-28_18h00.02.799,vts_reward_expectancy,2022.2.4,Win32,59.56280898,Chrome,1366,768,,,,,0,585,,,,,,,,,,,,,,,,,B,181,star,1,0,,,,,,,,,,,,,,,,switch,letter,lettSwt,d,0.5958,noRew,,,,,,0,13,0,13,0,1,,,,,,,,,,,,,,,,,
292765,2022-09-28_18h00.02.799,vts_reward_expectancy,2022.2.4,Win32,59.56280898,Chrome,1366,768,,,,,0,585,,,,,,,,,,,,,,,,,H,174,star,1,0,,,,,,,,,,,,,,,,switch,number,numSwt,k,0.579,noRew,,,,,,0,14,0,14,0,1,,,,,,,,,,,,,,,,,
292765,2022-09-28_18h00.02.799,vts_reward_expectancy,2022.2.4,Win32,59.56280898,Chrome,1366,768,,,,,0,585,,,,,,,,,,,,,,,,,F,160,circle,1,0,,,,,,,,,,,,,,,,switch,letter,lettSwt,d,0.8944,noRew,,,,,,0,15,0,15,0,1,,,,,,,,,,,,,,,,,
292765,2022-09-28_18h00.02.799,vts_reward_expectancy,2022.2.4,Win32,59.56280898,Chrome,1366,768,,,,,0,585,,,,,,,,,,,,,,,,,Y,139,star,1,0,,,,,,,,,,,,,,,,switch,number,numSwt,j,0.4937,noRew,,,,,,0,16,0,16,0,1,,,,,,,,,,,,,,,,,
292765,2022-09-28_18h00.02.799,vts_reward_expectancy,2022.2.4,Win32,59.56280898,Chrome,1366,768,,,,,0,585,,,,,,,,,,,,,,,,,H,181,circle,1,0,,,,,,,,,,,,,,,,switch,letter,lettSwt,d,0.566,noRew,,,,,,0,17,0,17,0,1,,,,,,,,,,,,,,,,,
292765,2022-09-28_18h00.02.799,vts_reward_expectancy,2022.2.4,Win32,59.56280898,Chrome,1366,768,,,,,0,585,,,,,,,,,,,,,,,,,S,160,star,1,0,,,,,,,,,,,,,,,,switch,number,numSwt,k,0.6946,noRew,,,,,,0,18,0,18,0,1,,,,,,,,,,,,,,,,,
292765,2022-09-28_18h00.02.799,vts_reward_expectancy,2022.2.4,Win32,59.56280898,Chrome,1366,768,,,,,0,585,,,,,,,,,,,,,,,,,F,174,triangle,1,0,,,,,,,,,,,,,,,,repeat,number,numRpt,k,0.7947,noRew,,,,,,0,19,0,19,0,1,,,,,,,,,,,,,,,,,
292765,2022-09-28_18h00.02.799,vts_reward_expectancy,2022.2.4,Win32,59.56280898,Chrome,1366,768,,,,,0,585,,,,,,,,,,,,,,,,,B,174,star,1,0,,,,,,,,,,,,,,,,repeat,number,numRpt,k,0.4808,noRew,,,,,,0,20,0,20,0,1,,,,,,,,,,,,,,,,,
292765,2022-09-28_18h00.02.799,vts_reward_expectancy,2022.2.4,Win32,59.56280898,Chrome,1366,768,,,,,0,585,,,,,,,,,,,,,,,,,S,160,hexagon,1,0,,,,,,,,,,,,,,,,switch,letter,lettSwt,f,0.5943,noRew,,,,,,0,21,0,21,0,1,,,,,,,,,,,,,,,,,
292765,2022-09-28_18h00.02.799,vts_reward_expectancy,2022.2.4,Win32,59.56280898,Chrome,1366,768,,,,,0,585,,,,,,,,,,,,,,,,,D,167,star,1,0,,,,,,,,,,,,,,,,repeat,letter,lettRpt,d,0.5271,noRew,,,,,,0,22,0,22,0,1,,,,,,,,,,,,,,,,,
292765,2022-09-28_18h00.02.799,vts_reward_expectancy,2022.2.4,Win32,59.56280898,Chrome,1366,768,,,,,0,585,,,,,,,,,,,,,,,,,F,125,circle,1,0,,,,,,,,,,,,,,,,repeat,letter,lettRpt,d,0.7302,noRew,,,,,,0,23,0,23,0,1,,,,,,,,,,,,,,,,,
292765,2022-09-28_18h00.02.799,vts_reward_expectancy,2022.2.4,Win32,59.56280898,Chrome,1366,768,,,,,0,585,,,,,,,,,,,,,,,,,H,146,circle,1,0,,,,,,,,,,,,,,,,switch,number,numSwt,j,0.797,noRew,,,,,,0,24,0,24,0,1,,,,,,,,,,,,,,,,,
292765,2022-09-28_18h00.02.799,vts_reward_expectancy,2022.2.4,Win32,59.56280898,Chrome,1366,768,,,,,0,585,,,,,,,,,,,,,,,,,W,181,hexagon,1,0,,,,,,,,,,,,,,,,repeat,number,numRpt,k,0.5687,noRew,,,,,,0,25,0,25,0,1,,,,,,,,,,,,,,,,,
292765,2022-09-28_18h00.02.799,vts_reward_expectancy,2022.2.4,Win32,59.56280898,Chrome,1366,768,,,,,0,585,,,,,,,,,,,,,,,,,U,174,hexagon,1,0,,,,,,,,,,,,,,,,switch,letter,lettSwt,f,0.6442,noRew,,,,,,0,26,0,26,0,1,,,,,,,,,,,,,,,,,
292765,2022-09-28_18h00.02.799,vts_reward_expectancy,2022.2.4,Win32,59.56280898,Chrome,1366,768,,,,,0,585,,,,,,,,,,,,,,,,,F,132,triangle,1,0,,,,,,,,,,,,,,,,switch,number,numSwt,j,0.5491,noRew,,,,,,0,27,0,27,0,1,,,,,,,,,,,,,,,,,
292765,2022-09-28_18h00.02.799,vts_reward_expectancy,2022.2.4,Win32,59.56280898,Chrome,1366,768,,,,,0,585,,,,,,,,,,,,,,,,,B,167,triangle,1,0,,,,,,,,,,,,,,,,repeat,number,numRpt,k,0.5699,noRew,,,,,,0,28,0,28,0,1,,,,,,,,,,,,,,,,,
292765,2022-09-28_18h00.02.799,vts_reward_expectancy,2022.2.4,Win32,59.56280898,Chrome,1366,768,,,,,0,585,,,,,,,,,,,,,,,,,F,146,circle,1,0,,,,,,,,,,,,,,,,repeat,number,numRpt,j,0.6962,noRew,,,,,,0,29,0,29,0,1,,,,,,,,,,,,,,,,,
292765,2022-09-28_18h00.02.799,vts_reward_expectancy,2022.2.4,Win32,59.56280898,Chrome,1366,768,,,,,0,585,,,,,,,,,,,,,,,,,U,139,hexagon,1,0,,,,,,,,,,,,,,,,switch,letter,lettSwt,f,0.565,noRew,,,,,,0,30,0,30,0,1,,,,,,,,,,,,,,,,,
292765,2022-09-28_18h00.02.799,vts_reward_expectancy,2022.2.4,Win32,59.56280898,Chrome,1366,768,,,,,0,585,,,,,,,,,,,,,,,,,Y,174,star,1,0,,,,,,,,,,,,,,,,repeat,letter,lettRpt,f,0.5667,noRew,,,,,,0,31,0,31,0,1,,,,,,,,,,,,,,,,,
292765,2022-09-28_18h00.02.799,vts_reward_expectancy,2022.2.4,Win32,59.56280898,Chrome,1366,768,,,,,0,585,,,,,,,,,,,,,,,,,H,160,triangle,1,0,,,,,,,,,,,,,,,,switch,number,numSwt,k,0.4766,noRew,,,,,,0,32,0,32,0,1,,,,,,,,,,,,,,,,,
292765,2022-09-28_18h00.02.799,vts_reward_expectancy,2022.2.4,Win32,59.56280898,Chrome,1366,768,,,,,0,585,,,,,,,,,,,,,,,,,F,132,circle,1,0,,,,,,,,,,,,,,,,switch,letter,lettSwt,d,0.5442,noRew,,,,,,0,33,0,33,0,1,,,,,,,,,,,,,,,,,
292765,2022-09-28_18h00.02.799,vts_reward_expectancy,2022.2.4,Win32,59.56280898,Chrome,1366,768,,,,,0,585,,,,,,,,,,,,,,,,,W,139,star,1,0,,,,,,,,,,,,,,,,switch,number,numSwt,j,0.9435,noRew,,,,,,0,34,0,34,0,1,,,,,,,,,,,,,,,,,
292765,2022-09-28_18h00.02.799,vts_reward_expectancy,2022.2.4,Win32,59.56280898,Chrome,1366,768,,,,,0,585,,,,,,,,,,,,,,,,,Y,181,hexagon,1,0,,,,,,,,,,,,,,,,switch,letter,lettSwt,f,0.6535,noRew,,,,,,0,35,0,35,0,1,,,,,,,,,,,,,,,,,
292765,2022-09-28_18h00.02.799,vts_reward_expectancy,2022.2.4,Win32,59.56280898,Chrome,1366,768,,,,,0,585,,,,,,,,,,,,,,,,,H,174,star,1,0,,,,,,,,,,,,,,,,switch,number,numSwt,k,0.5663,noRew,,,,,,0,36,0,36,0,1,,,,,,,,,,,,,,,,,
292765,2022-09-28_18h00.02.799,vts_reward_expectancy,2022.2.4,Win32,59.56280898,Chrome,1366,768,,,,,0,585,,,,,,,,,,,,,,,,,Y,160,triangle,1,0,,,,,,,,,,,,,,,,switch,letter,lettSwt,f,0.7755,noRew,,,,,,0,37,0,37,0,1,,,,,,,,,,,,,,,,,
292765,2022-09-28_18h00.02.799,vts_reward_expectancy,2022.2.4,Win32,59.56280898,Chrome,1366,768,,,,,0,585,,,,,,,,,,,,,,,,,B,146,circle,1,0,,,,,,,,,,,,,,,,switch,number,numSwt,j,1.098,noRew,,,,,,0,38,0,38,0,1,,,,,,,,,,,,,,,,,
292765,2022-09-28_18h00.02.799,vts_reward_expectancy,2022.2.4,Win32,59.56280898,Chrome,1366,768,,,,,0,585,,,,,,,,,,,,,,,,,F,132,star,1,0,,,,,,,,,,,,,,,,repeat,number,numRpt,j,0.5503,noRew,,,,,,0,39,0,39,0,1,,,,,,,,,,,,,,,,,
292765,2022-09-28_18h00.02.799,vts_reward_expectancy,2022.2.4,Win32,59.56280898,Chrome,1366,768,,,,,0,585,,,,,,,,,,,,,,,,,F,125,hexagon,1,0,,,,,,,,,,,,,,,,repeat,number,numRpt,j,0.6474,noRew,,,,,,0,40,0,40,0,1,,,,,,,,,,,,,,,,,
292765,2022-09-28_18h00.02.799,vts_reward_expectancy,2022.2.4,Win32,59.56280898,Chrome,1366,768,,,,,0,585,,,,,,,,,,,,,,,,,W,160,circle,1,0,,,,,,,,,,,,,,,,switch,letter,lettSwt,f,0.5621,noRew,,,,,,0,41,0,41,0,1,,,,,,,,,,,,,,,,,
292765,2022-09-28_18h00.02.799,vts_reward_expectancy,2022.2.4,Win32,59.56280898,Chrome,1366,768,,,,,0,585,,,,,,,,,,,,,,,,,D,167,star,1,0,,,,,,,,,,,,,,,,repeat,letter,lettRpt,d,0.5825,noRew,,,,,,0,42,0,42,0,1,,,,,,,,,,,,,,,,,
292765,2022-09-28_18h00.02.799,vts_reward_expectancy,2022.2.4,Win32,59.56280898,Chrome,1366,768,,,,,0,585,,,,,,,,,,,,,,,,,H,174,circle,1,0,,,,,,,,,,,,,,,,repeat,letter,lettRpt,d,0.7485,noRew,,,,,,0,43,0,43,0,1,,,,,,,,,,,,,,,,,
292765,2022-09-28_18h00.02.799,vts_reward_expectancy,2022.2.4,Win32,59.56280898,Chrome,1366,768,,,,,0,585,,,,,,,,,,,,,,,,,S,160,star,1,0,,,,,,,,,,,,,,,,switch,number,numSwt,k,0.6107,noRew,,,,,,0,44,0,44,0,1,,,,,,,,,,,,,,,,,
292765,2022-09-28_18h00.02.799,vts_reward_expectancy,2022.2.4,Win32,59.56280898,Chrome,1366,768,,,,,0,585,,,,,,,,,,,,,,,,,U,139,hexagon,1,0,,,,,,,,,,,,,,,,repeat,number,numRpt,j,1.147,noRew,,,,,,0,45,0,45,0,1,,,,,,,,,,,,,,,,,
292765,2022-09-28_18h00.02.799,vts_reward_expectancy,2022.2.4,Win32,59.56280898,Chrome,1366,768,,,,,0,585,,,,,,,,,,,,,,,,,Y,174,hexagon,1,0,,,,,,,,,,,,,,,,switch,letter,lettSwt,f,0.6342,noRew,,,,,,0,46,0,46,0,1,,,,,,,,,,,,,,,,,
292765,2022-09-28_18h00.02.799,vts_reward_expectancy,2022.2.4,Win32,59.56280898,Chrome,1366,768,,,,,0,585,,,,,,,,,,,,,,,,,W,146,star,1,0,,,,,,,,,,,,,,,,repeat,letter,lettRpt,f,0.7595,noRew,,,,,,0,47,0,47,0,1,,,,,,,,,,,,,,,,,
292765,2022-09-28_18h00.02.799,vts_reward_expectancy,2022.2.4,Win32,59.56280898,Chrome,1366,768,,,,,0,585,,,,,,,,,,,,,,,,,D,146,star,1,0,,,,,,,,,,,,,,,,repeat,letter,lettRpt,d,0.6067,noRew,,,,,,0,48,0,48,0,1,,,,,,,,,,,,,,,,,
292765,2022-09-28_18h00.02.799,vts_reward_expectancy,2022.2.4,Win32,59.56280898,Chrome,1366,768,,,,,0,585,,,,,,,,,,,,,,,,,W,125,hexagon,1,0,,,,,,,,,,,,,,,,switch,number,numSwt,j,0.661,noRew,,,,,,0,49,0,49,0,1,,,,,,,,,,,,,,,,,
292765,2022-09-28_18h00.02.799,vts_reward_expectancy,2022.2.4,Win32,59.56280898,Chrome,1366,768,,,,,0,585,,,,,,,,,,,,,,,,,S,181,star,1,0,,,,,,,,,,,,,,,,repeat,number,numRpt,k,0.5476,noRew,,,,,,0,50,0,50,0,1,,,,,,,,,,,,,,,,,
292765,2022-09-28_18h00.02.799,vts_reward_expectancy,2022.2.4,Win32,59.56280898,Chrome,1366,768,,,,,0,585,,,,,,,,,,,,,,,,,H,139,triangle,1,0,,,,,,,,,,,,,,,,repeat,number,numRpt,j,0.6334,noRew,,,,,,0,51,0,51,0,1,,,,,,,,,,,,,,,,,
292765,2022-09-28_18h00.02.799,vts_reward_expectancy,2022.2.4,Win32,59.56280898,Chrome,1366,768,,,,,0,585,,,,,,,,,,,,,,,,,Y,160,circle,1,0,,,,,,,,,,,,,,,,switch,letter,lettSwt,f,0.6264,noRew,,,,,,0,52,0,52,0,1,,,,,,,,,,,,,,,,,
292765,2022-09-28_18h00.02.799,vts_reward_expectancy,2022.2.4,Win32,59.56280898,Chrome,1366,768,,,,,0,585,,,,,,,,,,,,,,,,,H,139,star,1,0,,,,,,,,,,,,,,,,switch,number,numSwt,j,0.6696,noRew,,,,,,0,53,0,53,0,1,,,,,,,,,,,,,,,,,
292765,2022-09-28_18h00.02.799,vts_reward_expectancy,2022.2.4,Win32,59.56280898,Chrome,1366,768,,,,,0,585,,,,,,,,,,,,,,,,,W,167,hexagon,1,0,,,,,,,,,,,,,,,,switch,letter,lettSwt,f,0.5178,noRew,,,,,,0,54,0,54,0,1,,,,,,,,,,,,,,,,,
292765,2022-09-28_18h00.02.799,vts_reward_expectancy,2022.2.4,Win32,59.56280898,Chrome,1366,768,,,,,0,585,,,,,,,,,,,,,,,,,S,146,triangle,1,0,,,,,,,,,,,,,,,,repeat,letter,lettRpt,f,0.5964,noRew,,,,,,0,55,0,55,0,1,,,,,,,,,,,,,,,,,
292765,2022-09-28_18h00.02.799,vts_reward_expectancy,2022.2.4,Win32,59.56280898,Chrome,1366,768,,,,,0,585,,,,,,,,,,,,,,,,,F,181,star,1,0,,,,,,,,,,,,,,,,repeat,letter,lettRpt,d,0.6444,noRew,,,,,,0,56,0,56,0,1,,,,,,,,,,,,,,,,,
292765,2022-09-28_18h00.02.799,vts_reward_expectancy,2022.2.4,Win32,59.56280898,Chrome,1366,768,,,,,0,585,,,,,,,,,,,,,,,,,D,125,hexagon,1,0,,,,,,,,,,,,,,,,switch,number,numSwt,j,0.4693,noRew,,,,,,0,57,0,57,0,1,,,,,,,,,,,,,,,,,
292765,2022-09-28_18h00.02.799,vts_reward_expectancy,2022.2.4,Win32,59.56280898,Chrome,1366,768,,,,,0,585,,,,,,,,,,,,,,,,,Y,174,triangle,1,0,,,,,,,,,,,,,,,,repeat,number,numRpt,k,0.5605,noRew,,,,,,0,58,0,58,0,1,,,,,,,,,,,,,,,,,
292765,2022-09-28_18h00.02.799,vts_reward_expectancy,2022.2.4,Win32,59.56280898,Chrome,1366,768,,,,,0,585,,,,,,,,,,,,,,,,,H,146,star,1,0,,,,,,,,,,,,,,,,repeat,number,numRpt,j,0.7224,noRew,,,,,,0,59,0,59,0,1,,,,,,,,,,,,,,,,,
292765,2022-09-28_18h00.02.799,vts_reward_expectancy,2022.2.4,Win32,59.56280898,Chrome,1366,768,,,,,0,585,,,,,,,,,,,,,,,,,D,139,star,1,0,,,,,,,,,,,,,,,,repeat,number,numRpt,j,0.6102,noRew,,,,,,0,60,0,60,0,1,,,,,,,,,,,,,,,,,
292765,2022-09-28_18h00.02.799,vts_reward_expectancy,2022.2.4,Win32,59.56280898,Chrome,1366,768,,,,,0,585,,,,,,,,,,,,,,,,,S,132,circle,1,0,,,,,,,,,,,,,,,,switch,letter,lettSwt,f,1.0253,noRew,,,,,,0,61,0,61,0,1,,,,,,,,,,,,,,,,,
292765,2022-09-28_18h00.02.799,vts_reward_expectancy,2022.2.4,Win32,59.56280898,Chrome,1366,768,,,,,0,585,,,,,,,,,,,,,,,,,Y,125,triangle,1,0,,,,,,,,,,,,,,,,switch,number,numSwt,j,0.7777,noRew,,,,,,0,62,0,62,0,1,,,,,,,,,,,,,,,,,
292765,2022-09-28_18h00.02.799,vts_reward_expectancy,2022.2.4,Win32,59.56280898,Chrome,1366,768,,,,,0,585,,,,,,,,,,,,,,,,,H,181,star,1,0,,,,,,,,,,,,,,,,switch,letter,lettSwt,d,0.8834,noRew,,,,,,0,63,0,63,0,1,,,,,,,,,,,,,,,,,
292765,2022-09-28_18h00.02.799,vts_reward_expectancy,2022.2.4,Win32,59.56280898,Chrome,1366,768,,,,,,,,,,,,,,,,,,,,,,,,,,,,,,,,,,,,,,,,,,,,,,,,,,,,,,,,,,,,,,,,,,,,,,,,,,,,
292765,2022-09-28_18h00.02.799,vts_reward_expectancy,2022.2.4,Win32,59.56280898,Chrome,1366,768,,,,,1,586,,,,,,,,,,,,,,,,,H,146,circle,1,0,,,,,,,,,,,,,,,,repeat,letter,lettRpt,d,0.8402,Lo,,,,,,0,,,,,,space,9.1362,low,0,0,0,0,1,,,,,,,,,
292765,2022-09-28_18h00.02.799,vts_reward_expectancy,2022.2.4,Win32,59.56280898,Chrome,1366,768,,,,,0,586,,,,,,,,,,,,,,,,,W,181,hexagon,1,0,,,,,,,,,,,,,,,,switch,number,numSwt,k,1.0189,Hi,,,,,,0,,,,,,,,low,1,0,1,0,1,,,,,,,,,
292765,2022-09-28_18h00.02.799,vts_reward_expectancy,2022.2.4,Win32,59.56280898,Chrome,1366,768,,,,,1,587,,,,,,,,,,,,,,,,,U,139,circle,1,0,,,,,,,,,,,,,,,,switch,letter,lettSwt,f,0.5189,Lo,,,,,,0,,,,,,,,low,2,0,2,0,1,,,,,,,,,
292765,2022-09-28_18h00.02.799,vts_reward_expectancy,2022.2.4,Win32,59.56280898,Chrome,1366,768,,,,,10,597,,,,,,,,,,,,,,,,,Y,174,hexagon,1,0,,,,,,,,,,,,,,,,repeat,letter,lettRpt,f,0.513,Hi,,,,,,0,,,,,,,,low,3,0,3,0,1,,,,,,,,,
292765,2022-09-28_18h00.02.799,vts_reward_expectancy,2022.2.4,Win32,59.56280898,Chrome,1366,768,,,,,1,598,,,,,,,,,,,,,,,,,S,132,circle,1,0,,,,,,,,,,,,,,,,repeat,letter,lettRpt,f,0.5778,Lo,,,,,,0,,,,,,,,low,4,0,4,0,1,,,,,,,,,
292765,2022-09-28_18h00.02.799,vts_reward_expectancy,2022.2.4,Win32,59.56280898,Chrome,1366,768,,,,,10,608,,,,,,,,,,,,,,,,,B,160,hexagon,1,0,,,,,,,,,,,,,,,,repeat,letter,lettRpt,d,0.5673,Hi,,,,,,0,,,,,,,,low,5,0,5,0,1,,,,,,,,,
292765,2022-09-28_18h00.02.799,vts_reward_expectancy,2022.2.4,Win32,59.56280898,Chrome,1366,768,,,,,1,609,,,,,,,,,,,,,,,,,F,167,circle,1,0,,,,,,,,,,,,,,,,switch,number,numSwt,k,0.5185,Lo,,,,,,0,,,,,,,,low,6,0,6,0,1,,,,,,,,,
292765,2022-09-28_18h00.02.799,vts_reward_expectancy,2022.2.4,Win32,59.56280898,Chrome,1366,768,,,,,1,610,,,,,,,,,,,,,,,,,D,125,hexagon,1,0,,,,,,,,,,,,,,,,switch,letter,lettSwt,d,0.5095,Hi,,,,,,0,,,,,,,,low,7,0,7,0,1,,,,,,,,,
292765,2022-09-28_18h00.02.799,vts_reward_expectancy,2022.2.4,Win32,59.56280898,Chrome,1366,768,,,,,0,610,,,,,,,,,,,,,,,,,H,146,hexagon,1,0,,,,,,,,,,,,,,,,repeat,letter,lettRpt,d,0.7366,Hi,,,,,,0,,,,,,,,low,8,0,8,0,1,,,,,,,,,
292765,2022-09-28_18h00.02.799,vts_reward_expectancy,2022.2.4,Win32,59.56280898,Chrome,1366,768,,,,,1,611,,,,,,,,,,,,,,,,,W,181,circle,1,0,,,,,,,,,,,,,,,,switch,number,numSwt,k,0.4593,Lo,,,,,,0,,,,,,,,low,9,0,9,0,1,,,,,,,,,
292765,2022-09-28_18h00.02.799,vts_reward_expectancy,2022.2.4,Win32,59.56280898,Chrome,1366,768,,,,,0,611,,,,,,,,,,,,,,,,,U,139,circle,0,0,,,,,,,,,,,,,,,,repeat,number,NA,k,0.6123,Lo,,,,,,0,,,,,,,,low,10,0,10,0,1,,,,,,,,,
292765,2022-09-28_18h00.02.799,vts_reward_expectancy,2022.2.4,Win32,59.56280898,Chrome,1366,768,,,,,10,621,,,,,,,,,,,,,,,,,Y,174,hexagon,1,1,,,,,,,,,,,,,,,,repeat,number,numRpt,k,0.5621,Hi,,,,,,0,,,,,,,,low,11,0,11,0,1,,,,,,,,,
292765,2022-09-28_18h00.02.799,vts_reward_expectancy,2022.2.4,Win32,59.56280898,Chrome,1366,768,,,,,0,621,,,,,,,,,,,,,,,,,S,132,hexagon,1,0,,,,,,,,,,,,,,,,repeat,number,numRpt,j,0.7515,Hi,,,,,,0,,,,,,,,low,12,0,12,0,1,,,,,,,,,
292765,2022-09-28_18h00.02.799,vts_reward_expectancy,2022.2.4,Win32,59.56280898,Chrome,1366,768,,,,,1,622,,,,,,,,,,,,,,,,,B,160,circle,1,0,,,,,,,,,,,,,,,,repeat,number,numRpt,k,0.6273,Lo,,,,,,0,,,,,,,,low,13,0,13,0,1,,,,,,,,,
292765,2022-09-28_18h00.02.799,vts_reward_expectancy,2022.2.4,Win32,59.56280898,Chrome,1366,768,,,,,10,632,,,,,,,,,,,,,,,,,F,167,circle,1,0,,,,,,,,,,,,,,,,switch,letter,lettSwt,d,0.5525,Lo,,,,,,0,,,,,,,,low,14,0,14,0,1,,,,,,,,,
292765,2022-09-28_18h00.02.799,vts_reward_expectancy,2022.2.4,Win32,59.56280898,Chrome,1366,768,,,,,10,642,,,,,,,,,,,,,,,,,D,125,hexagon,1,0,,,,,,,,,,,,,,,,switch,number,numSwt,j,0.5285,Hi,,,,,,0,,,,,,,,low,15,0,15,0,1,,,,,,,,,
292765,2022-09-28_18h00.02.799,vts_reward_expectancy,2022.2.4,Win32,59.56280898,Chrome,1366,768,,,,,10,652,,,,,,,,,,,,,,,,,W,132,circle,1,0,,,,,,,,,,,,,,,,switch,letter,lettSwt,f,0.6255,Lo,,,,,,0,,,,,,,,low,16,0,16,0,1,,,,,,,,,
292765,2022-09-28_18h00.02.799,vts_reward_expectancy,2022.2.4,Win32,59.56280898,Chrome,1366,768,,,,,10,662,,,,,,,,,,,,,,,,,D,139,hexagon,1,0,,,,,,,,,,,,,,,,switch,number,numSwt,j,0.5603,Hi,,,,,,0,,,,,,,,low,17,0,17,0,1,,,,,,,,,
292765,2022-09-28_18h00.02.799,vts_reward_expectancy,2022.2.4,Win32,59.56280898,Chrome,1366,768,,,,,1,663,,,,,,,,,,,,,,,,,F,160,circle,1,0,,,,,,,,,,,,,,,,switch,letter,lettSwt,d,0.544,Lo,,,,,,0,,,,,,,,low,18,0,18,0,1,,,,,,,,,
292765,2022-09-28_18h00.02.799,vts_reward_expectancy,2022.2.4,Win32,59.56280898,Chrome,1366,768,,,,,1,664,,,,,,,,,,,,,,,,,H,181,hexagon,1,0,,,,,,,,,,,,,,,,switch,number,numSwt,k,0.4679,Hi,,,,,,0,,,,,,,,low,19,0,19,0,1,,,,,,,,,
292765,2022-09-28_18h00.02.799,vts_reward_expectancy,2022.2.4,Win32,59.56280898,Chrome,1366,768,,,,,1,665,,,,,,,,,,,,,,,,,U,125,hexagon,1,0,,,,,,,,,,,,,,,,repeat,number,numRpt,j,0.4127,Hi,,,,,,0,,,,,,,,low,20,0,20,0,1,,,,,,,,,
292765,2022-09-28_18h00.02.799,vts_reward_expectancy,2022.2.4,Win32,59.56280898,Chrome,1366,768,,,,,10,675,,,,,,,,,,,,,,,,,Y,174,circle,1,0,,,,,,,,,,,,,,,,repeat,number,numRpt,k,0.4454,Lo,,,,,,0,,,,,,,,low,21,0,21,0,1,,,,,,,,,
292765,2022-09-28_18h00.02.799,vts_reward_expectancy,2022.2.4,Win32,59.56280898,Chrome,1366,768,,,,,1,676,,,,,,,,,,,,,,,,,B,146,circle,1,0,,,,,,,,,,,,,,,,repeat,number,numRpt,j,0.6351,Lo,,,,,,0,,,,,,,,low,22,0,22,0,1,,,,,,,,,
292765,2022-09-28_18h00.02.799,vts_reward_expectancy,2022.2.4,Win32,59.56280898,Chrome,1366,768,,,,,10,686,,,,,,,,,,,,,,,,,S,167,hexagon,1,0,,,,,,,,,,,,,,,,switch,letter,lettSwt,f,0.4679,Hi,,,,,,0,,,,,,,,low,23,0,23,0,1,,,,,,,,,
292765,2022-09-28_18h00.02.799,vts_reward_expectancy,2022.2.4,Win32,59.56280898,Chrome,1366,768,,,,,10,696,,,,,,,,,,,,,,,,,F,160,circle,1,0,,,,,,,,,,,,,,,,repeat,letter,lettRpt,d,0.5825,Lo,,,,,,0,,,,,,,,low,24,0,24,0,1,,,,,,,,,
292765,2022-09-28_18h00.02.799,vts_reward_expectancy,2022.2.4,Win32,59.56280898,Chrome,1366,768,,,,,0,696,,,,,,,,,,,,,,,,,Y,167,hexagon,1,0,,,,,,,,,,,,,,,,repeat,letter,lettRpt,f,0.6609,Hi,,,,,,0,,,,,,,,low,25,0,25,0,1,,,,,,,,,
292765,2022-09-28_18h00.02.799,vts_reward_expectancy,2022.2.4,Win32,59.56280898,Chrome,1366,768,,,,,10,706,,,,,,,,,,,,,,,,,W,174,hexagon,1,0,,,,,,,,,,,,,,,,switch,number,numSwt,k,0.551,Hi,,,,,,0,,,,,,,,low,26,0,26,0,1,,,,,,,,,
292765,2022-09-28_18h00.02.799,vts_reward_expectancy,2022.2.4,Win32,59.56280898,Chrome,1366,768,,,,,1,707,,,,,,,,,,,,,,,,,U,139,circle,1,0,,,,,,,,,,,,,,,,repeat,number,numRpt,j,0.6773,Lo,,,,,,0,,,,,,,,low,27,0,27,0,1,,,,,,,,,
292765,2022-09-28_18h00.02.799,vts_reward_expectancy,2022.2.4,Win32,59.56280898,Chrome,1366,768,,,,,1,708,,,,,,,,,,,,,,,,,S,181,circle,1,0,,,,,,,,,,,,,,,,switch,letter,lettSwt,f,0.4122,Lo,,,,,,0,,,,,,,,low,28,0,28,0,1,,,,,,,,,
292765,2022-09-28_18h00.02.799,vts_reward_expectancy,2022.2.4,Win32,59.56280898,Chrome,1366,768,,,,,10,718,,,,,,,,,,,,,,,,,D,132,hexagon,1,0,,,,,,,,,,,,,,,,switch,number,numSwt,j,0.4908,Hi,,,,,,0,,,,,,,,low,29,0,29,0,1,,,,,,,,,
292765,2022-09-28_18h00.02.799,vts_reward_expectancy,2022.2.4,Win32,59.56280898,Chrome,1366,768,,,,,1,719,,,,,,,,,,,,,,,,,H,146,circle,1,0,,,,,,,,,,,,,,,,repeat,number,numRpt,j,0.4938,Lo,,,,,,0,,,,,,,,low,30,0,30,0,1,,,,,,,,,
292765,2022-09-28_18h00.02.799,vts_reward_expectancy,2022.2.4,Win32,59.56280898,Chrome,1366,768,,,,,1,720,,,,,,,,,,,,,,,,,B,125,hexagon,1,0,,,,,,,,,,,,,,,,switch,letter,lettSwt,d,0.4941,Hi,,,,,,0,,,,,,,,low,31,0,31,0,1,,,,,,,,,
292765,2022-09-28_18h00.02.799,vts_reward_expectancy,2022.2.4,Win32,59.56280898,Chrome,1366,768,,,,,10,730,,,,,,,,,,,,,,,,,B,160,circle,1,0,,,,,,,,,,,,,,,,repeat,letter,lettRpt,d,0.58,Lo,,,,,,1,,,,,,space,1.4771,low,0,0,0,0,1,,,,,,,,,
292765,2022-09-28_18h00.02.799,vts_reward_expectancy,2022.2.4,Win32,59.56280898,Chrome,1366,768,,,,,10,740,,,,,,,,,,,,,,,,,U,181,hexagon,1,0,,,,,,,,,,,,,,,,repeat,letter,lettRpt,f,0.5741,Hi,,,,,,1,,,,,,,,low,1,0,1,0,1,,,,,,,,,
292765,2022-09-28_18h00.02.799,vts_reward_expectancy,2022.2.4,Win32,59.56280898,Chrome,1366,768,,,,,0,740,,,,,,,,,,,,,,,,,W,167,circle,0,0,,,,,,,,,,,,,,,,switch,number,NA,j,0.3782,Hi,,,,,,1,,,,,,,,low,2,0,2,0,1,,,,,,,,,
292765,2022-09-28_18h00.02.799,vts_reward_expectancy,2022.2.4,Win32,59.56280898,Chrome,1366,768,,,,,0,740,,,,,,,,,,,,,,,,,F,146,hexagon,1,1,,,,,,,,,,,,,,,,repeat,number,numRpt,j,0.6274,Hi,,,,,,1,,,,,,,,low,3,0,3,0,1,,,,,,,,,
292765,2022-09-28_18h00.02.799,vts_reward_expectancy,2022.2.4,Win32,59.56280898,Chrome,1366,768,,,,,0,740,,,,,,,,,,,,,,,,,D,125,hexagon,1,0,,,,,,,,,,,,,,,,switch,letter,lettSwt,d,0.5433,Hi,,,,,,1,,,,,,,,low,4,0,4,0,1,,,,,,,,,
292765,2022-09-28_18h00.02.799,vts_reward_expectancy,2022.2.4,Win32,59.56280898,Chrome,1366,768,,,,,0,740,,,,,,,,,,,,,,,,,H,174,circle,0,0,,,,,,,,,,,,,,,,repeat,letter,NA,f,0.4806,Hi,,,,,,1,,,,,,,,low,5,0,5,0,1,,,,,,,,,
292765,2022-09-28_18h00.02.799,vts_reward_expectancy,2022.2.4,Win32,59.56280898,Chrome,1366,768,,,,,1,741,,,,,,,,,,,,,,,,,Y,132,circle,1,1,,,,,,,,,,,,,,,,switch,number,numSwt,j,0.4719,Lo,,,,,,1,,,,,,,,low,6,0,6,0,1,,,,,,,,,
292765,2022-09-28_18h00.02.799,vts_reward_expectancy,2022.2.4,Win32,59.56280898,Chrome,1366,768,,,,,10,751,,,,,,,,,,,,,,,,,S,139,hexagon,1,0,,,,,,,,,,,,,,,,repeat,number,numRpt,j,0.4842,Hi,,,,,,1,,,,,,,,low,7,0,7,0,1,,,,,,,,,
292765,2022-09-28_18h00.02.799,vts_reward_expectancy,2022.2.4,Win32,59.56280898,Chrome,1366,768,,,,,1,752,,,,,,,,,,,,,,,,,B,160,hexagon,1,0,,,,,,,,,,,,,,,,repeat,number,numRpt,k,0.3661,Hi,,,,,,1,,,,,,,,low,8,0,8,0,1,,,,,,,,,
292765,2022-09-28_18h00.02.799,vts_reward_expectancy,2022.2.4,Win32,59.56280898,Chrome,1366,768,,,,,1,753,,,,,,,,,,,,,,,,,U,181,circle,1,0,,,,,,,,,,,,,,,,repeat,number,numRpt,k,0.4107,Lo,,,,,,1,,,,,,,,low,9,0,9,0,1,,,,,,,,,
292765,2022-09-28_18h00.02.799,vts_reward_expectancy,2022.2.4,Win32,59.56280898,Chrome,1366,768,,,,,1,754,,,,,,,,,,,,,,,,,W,167,hexagon,1,0,,,,,,,,,,,,,,,,switch,letter,lettSwt,f,0.4392,Hi,,,,,,1,,,,,,,,low,10,0,10,0,1,,,,,,,,,
292765,2022-09-28_18h00.02.799,vts_reward_expectancy,2022.2.4,Win32,59.56280898,Chrome,1366,768,,,,,10,764,,,,,,,,,,,,,,,,,F,146,circle,1,0,,,,,,,,,,,,,,,,repeat,letter,lettRpt,d,0.5112,Lo,,,,,,1,,,,,,,,low,11,0,11,0,1,,,,,,,,,
292765,2022-09-28_18h00.02.799,vts_reward_expectancy,2022.2.4,Win32,59.56280898,Chrome,1366,768,,,,,1,765,,,,,,,,,,,,,,,,,D,125,circle,1,0,,,,,,,,,,,,,,,,repeat,letter,lettRpt,d,0.5107,Lo,,,,,,1,,,,,,,,low,12,0,12,0,1,,,,,,,,,
292765,2022-09-28_18h00.02.799,vts_reward_expectancy,2022.2.4,Win32,59.56280898,Chrome,1366,768,,,,,0,765,,,,,,,,,,,,,,,,,H,174,hexagon,1,0,,,,,,,,,,,,,,,,switch,number,numSwt,k,0.5007,Hi,,,,,,1,,,,,,,,low,13,0,13,0,1,,,,,,,,,
292765,2022-09-28_18h00.02.799,vts_reward_expectancy,2022.2.4,Win32,59.56280898,Chrome,1366,768,,,,,10,775,,,,,,,,,,,,,,,,,Y,132,circle,1,0,,,,,,,,,,,,,,,,repeat,number,numRpt,j,0.4939,Lo,,,,,,1,,,,,,,,low,14,0,14,0,1,,,,,,,,,
292765,2022-09-28_18h00.02.799,vts_reward_expectancy,2022.2.4,Win32,59.56280898,Chrome,1366,768,,,,,0,775,,,,,,,,,,,,,,,,,S,139,hexagon,1,0,,,,,,,,,,,,,,,,repeat,number,numRpt,j,0.6544,Hi,,,,,,1,,,,,,,,low,15,0,15,0,1,,,,,,,,,
292765,2022-09-28_18h00.02.799,vts_reward_expectancy,2022.2.4,Win32,59.56280898,Chrome,1366,768,,,,,10,785,,,,,,,,,,,,,,,,,H,139,hexagon,1,0,,,,,,,,,,,,,,,,repeat,number,numRpt,j,0.4125,Hi,,,,,,1,,,,,,,,low,16,0,16,0,1,,,,,,,,,
292765,2022-09-28_18h00.02.799,vts_reward_expectancy,2022.2.4,Win32,59.56280898,Chrome,1366,768,,,,,1,786,,,,,,,,,,,,,,,,,F,146,circle,1,0,,,,,,,,,,,,,,,,switch,letter,lettSwt,d,0.4017,Lo,,,,,,1,,,,,,,,low,17,0,17,0,1,,,,,,,,,
292765,2022-09-28_18h00.02.799,vts_reward_expectancy,2022.2.4,Win32,59.56280898,Chrome,1366,768,,,,,10,796,,,,,,,,,,,,,,,,,B,132,hexagon,1,0,,,,,,,,,,,,,,,,repeat,letter,lettRpt,d,0.434,Hi,,,,,,1,,,,,,,,low,18,0,18,0,1,,,,,,,,,
292765,2022-09-28_18h00.02.799,vts_reward_expectancy,2022.2.4,Win32,59.56280898,Chrome,1366,768,,,,,10,806,,,,,,,,,,,,,,,,,Y,174,circle,1,0,,,,,,,,,,,,,,,,repeat,letter,lettRpt,f,0.4031,Lo,,,,,,1,,,,,,,,low,19,0,19,0,1,,,,,,,,,
292765,2022-09-28_18h00.02.799,vts_reward_expectancy,2022.2.4,Win32,59.56280898,Chrome,1366,768,,,,,1,807,,,,,,,,,,,,,,,,,S,167,circle,1,0,,,,,,,,,,,,,,,,repeat,letter,lettRpt,f,0.5234,Lo,,,,,,1,,,,,,,,low,20,0,20,0,1,,,,,,,,,
292765,2022-09-28_18h00.02.799,vts_reward_expectancy,2022.2.4,Win32,59.56280898,Chrome,1366,768,,,,,1,808,,,,,,,,,,,,,,,,,U,160,hexagon,1,0,,,,,,,,,,,,,,,,switch,number,numSwt,k,0.4757,Hi,,,,,,1,,,,,,,,low,21,0,21,0,1,,,,,,,,,
292765,2022-09-28_18h00.02.799,vts_reward_expectancy,2022.2.4,Win32,59.56280898,Chrome,1366,768,,,,,0,808,,,,,,,,,,,,,,,,,W,181,hexagon,1,0,,,,,,,,,,,,,,,,repeat,number,numRpt,k,0.5379,Hi,,,,,,1,,,,,,,,low,22,0,22,0,1,,,,,,,,,
292765,2022-09-28_18h00.02.799,vts_reward_expectancy,2022.2.4,Win32,59.56280898,Chrome,1366,768,,,,,10,818,,,,,,,,,,,,,,,,,D,125,circle,1,0,,,,,,,,,,,,,,,,switch,letter,lettSwt,d,0.4535,Lo,,,,,,1,,,,,,,,low,23,0,23,0,1,,,,,,,,,
292765,2022-09-28_18h00.02.799,vts_reward_expectancy,2022.2.4,Win32,59.56280898,Chrome,1366,768,,,,,10,828,,,,,,,,,,,,,,,,,Y,132,circle,1,0,,,,,,,,,,,,,,,,repeat,letter,lettRpt,f,0.4523,Lo,,,,,,1,,,,,,,,low,24,0,24,0,1,,,,,,,,,
292765,2022-09-28_18h00.02.799,vts_reward_expectancy,2022.2.4,Win32,59.56280898,Chrome,1366,768,,,,,10,838,,,,,,,,,,,,,,,,,H,160,hexagon,1,0,,,,,,,,,,,,,,,,switch,number,numSwt,k,0.3677,Hi,,,,,,1,,,,,,,,low,25,0,25,0,1,,,,,,,,,
292765,2022-09-28_18h00.02.799,vts_reward_expectancy,2022.2.4,Win32,59.56280898,Chrome,1366,768,,,,,0,838,,,,,,,,,,,,,,,,,S,174,hexagon,1,0,,,,,,,,,,,,,,,,switch,letter,lettSwt,f,0.5846,Hi,,,,,,1,,,,,,,,low,26,0,26,0,1,,,,,,,,,
292765,2022-09-28_18h00.02.799,vts_reward_expectancy,2022.2.4,Win32,59.56280898,Chrome,1366,768,,,,,10,848,,,,,,,,,,,,,,,,,D,181,circle,1,0,,,,,,,,,,,,,,,,switch,number,numSwt,k,0.4043,Lo,,,,,,1,,,,,,,,low,27,0,27,0,1,,,,,,,,,
292765,2022-09-28_18h00.02.799,vts_reward_expectancy,2022.2.4,Win32,59.56280898,Chrome,1366,768,,,,,1,849,,,,,,,,,,,,,,,,,B,125,circle,1,0,,,,,,,,,,,,,,,,repeat,number,numRpt,j,0.5527,Lo,,,,,,1,,,,,,,,low,28,0,28,0,1,,,,,,,,,
292765,2022-09-28_18h00.02.799,vts_reward_expectancy,2022.2.4,Win32,59.56280898,Chrome,1366,768,,,,,0,849,,,,,,,,,,,,,,,,,U,167,hexagon,0,0,,,,,,,,,,,,,,,,repeat,number,NA,j,0.3567,Lo,,,,,,1,,,,,,,,low,29,0,29,0,1,,,,,,,,,
292765,2022-09-28_18h00.02.799,vts_reward_expectancy,2022.2.4,Win32,59.56280898,Chrome,1366,768,,,,,10,859,,,,,,,,,,,,,,,,,W,146,circle,1,1,,,,,,,,,,,,,,,,repeat,number,numRpt,j,0.5328,Lo,,,,,,1,,,,,,,,low,30,0,30,0,1,,,,,,,,,
292765,2022-09-28_18h00.02.799,vts_reward_expectancy,2022.2.4,Win32,59.56280898,Chrome,1366,768,,,,,10,869,,,,,,,,,,,,,,,,,F,139,hexagon,1,0,,,,,,,,,,,,,,,,repeat,number,numRpt,j,0.499,Hi,,,,,,1,,,,,,,,low,31,0,31,0,1,,,,,,,,,
292765,2022-09-28_18h00.02.799,vts_reward_expectancy,2022.2.4,Win32,59.56280898,Chrome,1366,768,,,,,0,869,,,,,,,,,,,,,,,,,D,181,triangle,1,0,,,,,,,,,,,,,,,,switch,letter,lettSwt,d,0.5429,Hi,,,,,,2,,,,,,space,5.3292,high,0,0,0,0,1,,,,,,,,,
292765,2022-09-28_18h00.02.799,vts_reward_expectancy,2022.2.4,Win32,59.56280898,Chrome,1366,768,,,,,1,870,,,,,,,,,,,,,,,,,B,174,star,1,0,,,,,,,,,,,,,,,,repeat,letter,lettRpt,d,0.4352,Lo,,,,,,2,,,,,,,,high,1,0,1,0,1,,,,,,,,,
292765,2022-09-28_18h00.02.799,vts_reward_expectancy,2022.2.4,Win32,59.56280898,Chrome,1366,768,,,,,1,871,,,,,,,,,,,,,,,,,S,167,triangle,1,0,,,,,,,,,,,,,,,,repeat,letter,lettRpt,f,0.3853,Hi,,,,,,2,,,,,,,,high,2,0,2,0,1,,,,,,,,,
292765,2022-09-28_18h00.02.799,vts_reward_expectancy,2022.2.4,Win32,59.56280898,Chrome,1366,768,,,,,1,872,,,,,,,,,,,,,,,,,W,146,star,1,0,,,,,,,,,,,,,,,,repeat,letter,lettRpt,f,0.3829,Lo,,,,,,2,,,,,,,,high,3,0,3,0,1,,,,,,,,,
292765,2022-09-28_18h00.02.799,vts_reward_expectancy,2022.2.4,Win32,59.56280898,Chrome,1366,768,,,,,10,882,,,,,,,,,,,,,,,,,U,139,triangle,1,0,,,,,,,,,,,,,,,,repeat,letter,lettRpt,f,0.3924,Hi,,,,,,2,,,,,,,,high,4,0,4,0,1,,,,,,,,,
292765,2022-09-28_18h00.02.799,vts_reward_expectancy,2022.2.4,Win32,59.56280898,Chrome,1366,768,,,,,1,883,,,,,,,,,,,,,,,,,F,132,star,1,0,,,,,,,,,,,,,,,,repeat,letter,lettRpt,d,0.4004,Lo,,,,,,2,,,,,,,,high,5,0,5,0,1,,,,,,,,,
292765,2022-09-28_18h00.02.799,vts_reward_expectancy,2022.2.4,Win32,59.56280898,Chrome,1366,768,,,,,1,884,,,,,,,,,,,,,,,,,H,125,star,1,0,,,,,,,,,,,,,,,,switch,number,numSwt,j,0.4104,Lo,,,,,,2,,,,,,,,high,6,0,6,0,1,,,,,,,,,
292765,2022-09-28_18h00.02.799,vts_reward_expectancy,2022.2.4,Win32,59.56280898,Chrome,1366,768,,,,,10,894,,,,,,,,,,,,,,,,,Y,160,triangle,1,0,,,,,,,,,,,,,,,,repeat,number,numRpt,k,0.4418,Hi,,,,,,2,,,,,,,,high,7,0,7,0,1,,,,,,,,,
292765,2022-09-28_18h00.02.799,vts_reward_expectancy,2022.2.4,Win32,59.56280898,Chrome,1366,768,,,,,10,904,,,,,,,,,,,,,,,,,D,181,triangle,1,0,,,,,,,,,,,,,,,,repeat,number,numRpt,k,0.4017,Hi,,,,,,2,,,,,,,,high,8,0,8,0,1,,,,,,,,,
292765,2022-09-28_18h00.02.799,vts_reward_expectancy,2022.2.4,Win32,59.56280898,Chrome,1366,768,,,,,1,905,,,,,,,,,,,,,,,,,B,174,star,1,0,,,,,,,,,,,,,,,,repeat,number,numRpt,k,0.5025,Lo,,,,,,2,,,,,,,,high,9,0,9,0,1,,,,,,,,,
292765,2022-09-28_18h00.02.799,vts_reward_expectancy,2022.2.4,Win32,59.56280898,Chrome,1366,768,,,,,10,915,,,,,,,,,,,,,,,,,S,167,triangle,1,0,,,,,,,,,,,,,,,,repeat,number,numRpt,k,0.4751,Hi,,,,,,2,,,,,,,,high,10,0,10,0,1,,,,,,,,,
292765,2022-09-28_18h00.02.799,vts_reward_expectancy,2022.2.4,Win32,59.56280898,Chrome,1366,768,,,,,1,916,,,,,,,,,,,,,,,,,W,146,star,1,0,,,,,,,,,,,,,,,,repeat,number,numRpt,j,0.65,Lo,,,,,,2,,,,,,,,high,11,0,11,0,1,,,,,,,,,
292765,2022-09-28_18h00.02.799,vts_reward_expectancy,2022.2.4,Win32,59.56280898,Chrome,1366,768,,,,,0,916,,,,,,,,,,,,,,,,,U,139,triangle,1,0,,,,,,,,,,,,,,,,switch,letter,lettSwt,f,0.4688,Hi,,,,,,2,,,,,,,,high,12,0,12,0,1,,,,,,,,,
292765,2022-09-28_18h00.02.799,vts_reward_expectancy,2022.2.4,Win32,59.56280898,Chrome,1366,768,,,,,1,917,,,,,,,,,,,,,,,,,F,132,star,1,0,,,,,,,,,,,,,,,,repeat,letter,lettRpt,d,0.357,Lo,,,,,,2,,,,,,,,high,13,0,13,0,1,,,,,,,,,
292765,2022-09-28_18h00.02.799,vts_reward_expectancy,2022.2.4,Win32,59.56280898,Chrome,1366,768,,,,,0,917,,,,,,,,,,,,,,,,,H,125,triangle,0,0,,,,,,,,,,,,,,,,repeat,letter,NA,f,0.3519,Lo,,,,,,2,,,,,,,,high,14,0,14,0,1,,,,,,,,,
292765,2022-09-28_18h00.02.799,vts_reward_expectancy,2022.2.4,Win32,59.56280898,Chrome,1366,768,,,,,10,927,,,,,,,,,,,,,,,,,Y,160,star,1,1,,,,,,,,,,,,,,,,repeat,letter,lettRpt,f,0.4407,Lo,,,,,,2,,,,,,,,high,15,0,15,0,1,,,,,,,,,
292765,2022-09-28_18h00.02.799,vts_reward_expectancy,2022.2.4,Win32,59.56280898,Chrome,1366,768,,,,,1,928,,,,,,,,,,,,,,,,,B,146,star,1,0,,,,,,,,,,,,,,,,switch,number,numSwt,j,0.5057,Lo,,,,,,2,,,,,,,,high,16,0,16,0,1,,,,,,,,,
292765,2022-09-28_18h00.02.799,vts_reward_expectancy,2022.2.4,Win32,59.56280898,Chrome,1366,768,,,,,0,928,,,,,,,,,,,,,,,,,F,160,triangle,1,0,,,,,,,,,,,,,,,,repeat,number,numRpt,k,0.5328,Hi,,,,,,2,,,,,,,,high,17,0,17,0,1,,,,,,,,,
292765,2022-09-28_18h00.02.799,vts_reward_expectancy,2022.2.4,Win32,59.56280898,Chrome,1366,768,,,,,0,928,,,,,,,,,,,,,,,,,Y,125,triangle,1,0,,,,,,,,,,,,,,,,repeat,number,numRpt,j,0.5163,Hi,,,,,,2,,,,,,,,high,18,0,18,0,1,,,,,,,,,
292765,2022-09-28_18h00.02.799,vts_reward_expectancy,2022.2.4,Win32,59.56280898,Chrome,1366,768,,,,,0,928,,,,,,,,,,,,,,,,,S,167,star,0,0,,,,,,,,,,,,,,,,repeat,number,NA,j,0.3677,Hi,,,,,,2,,,,,,,,high,19,0,19,0,1,,,,,,,,,
292765,2022-09-28_18h00.02.799,vts_reward_expectancy,2022.2.4,Win32,59.56280898,Chrome,1366,768,,,,,0,928,,,,,,,,,,,,,,,,,D,181,triangle,1,1,,,,,,,,,,,,,,,,switch,letter,lettSwt,d,0.4935,Hi,,,,,,2,,,,,,,,high,20,0,20,0,1,,,,,,,,,
292765,2022-09-28_18h00.02.799,vts_reward_expectancy,2022.2.4,Win32,59.56280898,Chrome,1366,768,,,,,1,929,,,,,,,,,,,,,,,,,W,132,star,1,0,,,,,,,,,,,,,,,,repeat,letter,lettRpt,f,0.3357,Lo,,,,,,2,,,,,,,,high,21,0,21,0,1,,,,,,,,,
292765,2022-09-28_18h00.02.799,vts_reward_expectancy,2022.2.4,Win32,59.56280898,Chrome,1366,768,,,,,10,939,,,,,,,,,,,,,,,,,U,174,triangle,1,0,,,,,,,,,,,,,,,,repeat,letter,lettRpt,f,0.4179,Hi,,,,,,2,,,,,,,,high,22,0,22,0,1,,,,,,,,,
292765,2022-09-28_18h00.02.799,vts_reward_expectancy,2022.2.4,Win32,59.56280898,Chrome,1366,768,,,,,1,940,,,,,,,,,,,,,,,,,H,139,star,1,0,,,,,,,,,,,,,,,,repeat,letter,lettRpt,d,0.4654,Lo,,,,,,2,,,,,,,,high,23,0,23,0,1,,,,,,,,,
292765,2022-09-28_18h00.02.799,vts_reward_expectancy,2022.2.4,Win32,59.56280898,Chrome,1366,768,,,,,1,941,,,,,,,,,,,,,,,,,U,125,star,1,0,,,,,,,,,,,,,,,,repeat,letter,lettRpt,f,0.3461,Lo,,,,,,2,,,,,,,,high,24,0,24,0,1,,,,,,,,,
292765,2022-09-28_18h00.02.799,vts_reward_expectancy,2022.2.4,Win32,59.56280898,Chrome,1366,768,,,,,0,941,,,,,,,,,,,,,,,,,F,146,triangle,0,0,,,,,,,,,,,,,,,,repeat,letter,NA,f,0.4348,Lo,,,,,,2,,,,,,,,high,25,0,25,0,1,,,,,,,,,
292765,2022-09-28_18h00.02.799,vts_reward_expectancy,2022.2.4,Win32,59.56280898,Chrome,1366,768,,,,,10,951,,,,,,,,,,,,,,,,,B,160,triangle,1,1,,,,,,,,,,,,,,,,repeat,letter,lettRpt,d,0.3858,Hi,,,,,,2,,,,,,,,high,26,0,26,0,1,,,,,,,,,
292765,2022-09-28_18h00.02.799,vts_reward_expectancy,2022.2.4,Win32,59.56280898,Chrome,1366,768,,,,,0,951,,,,,,,,,,,,,,,,,S,174,star,0,0,,,,,,,,,,,,,,,,repeat,letter,NA,d,0.3609,Hi,,,,,,2,,,,,,,,high,27,0,27,0,1,,,,,,,,,
292765,2022-09-28_18h00.02.799,vts_reward_expectancy,2022.2.4,Win32,59.56280898,Chrome,1366,768,,,,,10,961,,,,,,,,,,,,,,,,,H,167,triangle,1,1,,,,,,,,,,,,,,,,switch,number,numSwt,k,0.3676,Hi,,,,,,2,,,,,,,,high,28,0,28,0,1,,,,,,,,,
292765,2022-09-28_18h00.02.799,vts_reward_expectancy,2022.2.4,Win32,59.56280898,Chrome,1366,768,,,,,1,962,,,,,,,,,,,,,,,,,D,139,star,1,0,,,,,,,,,,,,,,,,repeat,number,numRpt,j,0.5681,Lo,,,,,,2,,,,,,,,high,29,0,29,0,1,,,,,,,,,
292765,2022-09-28_18h00.02.799,vts_reward_expectancy,2022.2.4,Win32,59.56280898,Chrome,1366,768,,,,,1,963,,,,,,,,,,,,,,,,,W,181,star,1,0,,,,,,,,,,,,,,,,repeat,number,numRpt,k,0.4543,Lo,,,,,,2,,,,,,,,high,30,0,30,0,1,,,,,,,,,
292765,2022-09-28_18h00.02.799,vts_reward_expectancy,2022.2.4,Win32,59.56280898,Chrome,1366,768,,,,,10,973,,,,,,,,,,,,,,,,,Y,132,triangle,1,0,,,,,,,,,,,,,,,,repeat,number,numRpt,j,0.4866,Hi,,,,,,2,,,,,,,,high,31,0,31,0,1,,,,,,,,,
292765,2022-09-28_18h00.02.799,vts_reward_expectancy,2022.2.4,Win32,59.56280898,Chrome,1366,768,,,,,0,973,,,,,,,,,,,,,,,,,H,167,circle,0,0,,,,,,,,,,,,,,,,switch,letter,NA,f,0.7831,Hi,,,,,,3,,,,,,space,3.4397,low,0,0,0,0,1,,,,,,,,,
292765,2022-09-28_18h00.02.799,vts_reward_expectancy,2022.2.4,Win32,59.56280898,Chrome,1366,768,,,,,0,973,,,,,,,,,,,,,,,,,Y,139,hexagon,1,1,,,,,,,,,,,,,,,,repeat,letter,lettRpt,f,0.4201,Hi,,,,,,3,,,,,,,,low,1,0,1,0,1,,,,,,,,,
292765,2022-09-28_18h00.02.799,vts_reward_expectancy,2022.2.4,Win32,59.56280898,Chrome,1366,768,,,,,1,974,,,,,,,,,,,,,,,,,S,125,circle,1,0,,,,,,,,,,,,,,,,switch,number,numSwt,j,0.3804,Lo,,,,,,3,,,,,,,,low,2,0,2,0,1,,,,,,,,,
292765,2022-09-28_18h00.02.799,vts_reward_expectancy,2022.2.4,Win32,59.56280898,Chrome,1366,768,,,,,10,984,,,,,,,,,,,,,,,,,D,181,hexagon,1,0,,,,,,,,,,,,,,,,repeat,number,numRpt,k,0.4125,Hi,,,,,,3,,,,,,,,low,3,0,3,0,1,,,,,,,,,
292765,2022-09-28_18h00.02.799,vts_reward_expectancy,2022.2.4,Win32,59.56280898,Chrome,1366,768,,,,,10,994,,,,,,,,,,,,,,,,,B,160,hexagon,1,0,,,,,,,,,,,,,,,,repeat,number,numRpt,k,0.4282,Hi,,,,,,3,,,,,,,,low,4,0,4,0,1,,,,,,,,,
292765,2022-09-28_18h00.02.799,vts_reward_expectancy,2022.2.4,Win32,59.56280898,Chrome,1366,768,,,,,1,995,,,,,,,,,,,,,,,,,F,132,circle,1,0,,,,,,,,,,,,,,,,repeat,number,numRpt,j,0.3029,Lo,,,,,,3,,,,,,,,low,5,0,5,0,1,,,,,,,,,
292765,2022-09-28_18h00.02.799,vts_reward_expectancy,2022.2.4,Win32,59.56280898,Chrome,1366,768,,,,,10,1005,,,,,,,,,,,,,,,,,U,174,hexagon,1,0,,,,,,,,,,,,,,,,switch,letter,lettSwt,f,0.3667,Hi,,,,,,3,,,,,,,,low,6,0,6,0,1,,,,,,,,,
292765,2022-09-28_18h00.02.799,vts_reward_expectancy,2022.2.4,Win32,59.56280898,Chrome,1366,768,,,,,10,1015,,,,,,,,,,,,,,,,,W,146,circle,1,0,,,,,,,,,,,,,,,,switch,number,numSwt,j,0.5446,Lo,,,,,,3,,,,,,,,low,7,0,7,0,1,,,,,,,,,
292765,2022-09-28_18h00.02.799,vts_reward_expectancy,2022.2.4,Win32,59.56280898,Chrome,1366,768,,,,,1,1016,,,,,,,,,,,,,,,,,H,167,circle,1,0,,,,,,,,,,,,,,,,repeat,number,numRpt,k,0.3488,Lo,,,,,,3,,,,,,,,low,8,0,8,0,1,,,,,,,,,
292765,2022-09-28_18h00.02.799,vts_reward_expectancy,2022.2.4,Win32,59.56280898,Chrome,1366,768,,,,,10,1026,,,,,,,,,,,,,,,,,Y,139,hexagon,1,0,,,,,,,,,,,,,,,,repeat,number,numRpt,j,0.4523,Hi,,,,,,3,,,,,,,,low,9,0,9,0,1,,,,,,,,,
292765,2022-09-28_18h00.02.799,vts_reward_expectancy,2022.2.4,Win32,59.56280898,Chrome,1366,768,,,,,1,1027,,,,,,,,,,,,,,,,,S,125,circle,1,0,,,,,,,,,,,,,,,,repeat,number,numRpt,j,0.4565,Lo,,,,,,3,,,,,,,,low,10,0,10,0,1,,,,,,,,,
292765,2022-09-28_18h00.02.799,vts_reward_expectancy,2022.2.4,Win32,59.56280898,Chrome,1366,768,,,,,10,1037,,,,,,,,,,,,,,,,,D,181,hexagon,1,0,,,,,,,,,,,,,,,,repeat,number,numRpt,k,0.3684,Hi,,,,,,3,,,,,,,,low,11,0,11,0,1,,,,,,,,,
292765,2022-09-28_18h00.02.799,vts_reward_expectancy,2022.2.4,Win32,59.56280898,Chrome,1366,768,,,,,10,1047,,,,,,,,,,,,,,,,,B,160,hexagon,1,0,,,,,,,,,,,,,,,,switch,letter,lettSwt,d,0.425,Hi,,,,,,3,,,,,,,,low,12,0,12,0,1,,,,,,,,,
292765,2022-09-28_18h00.02.799,vts_reward_expectancy,2022.2.4,Win32,59.56280898,Chrome,1366,768,,,,,10,1057,,,,,,,,,,,,,,,,,F,132,circle,1,0,,,,,,,,,,,,,,,,switch,number,numSwt,j,0.3652,Lo,,,,,,3,,,,,,,,low,13,0,13,0,1,,,,,,,,,
292765,2022-09-28_18h00.02.799,vts_reward_expectancy,2022.2.4,Win32,59.56280898,Chrome,1366,768,,,,,0,1057,,,,,,,,,,,,,,,,,U,174,circle,0,0,,,,,,,,,,,,,,,,switch,letter,NA,d,0.43,Lo,,,,,,3,,,,,,,,low,14,0,14,0,1,,,,,,,,,
292765,2022-09-28_18h00.02.799,vts_reward_expectancy,2022.2.4,Win32,59.56280898,Chrome,1366,768,,,,,0,1057,,,,,,,,,,,,,,,,,W,146,hexagon,1,1,,,,,,,,,,,,,,,,switch,number,numSwt,j,0.447,Hi,,,,,,3,,,,,,,,low,15,0,15,0,1,,,,,,,,,
292765,2022-09-28_18h00.02.799,vts_reward_expectancy,2022.2.4,Win32,59.56280898,Chrome,1366,768,,,,,0,1057,,,,,,,,,,,,,,,,,S,139,circle,0,0,,,,,,,,,,,,,,,,switch,letter,NA,d,0.4498,Hi,,,,,,3,,,,,,,,low,16,0,16,0,1,,,,,,,,,
292765,2022-09-28_18h00.02.799,vts_reward_expectancy,2022.2.4,Win32,59.56280898,Chrome,1366,768,,,,,0,1057,,,,,,,,,,,,,,,,,U,167,hexagon,1,1,,,,,,,,,,,,,,,,repeat,letter,lettRpt,f,0.4606,Hi,,,,,,3,,,,,,,,low,17,0,17,0,1,,,,,,,,,
292765,2022-09-28_18h00.02.799,vts_reward_expectancy,2022.2.4,Win32,59.56280898,Chrome,1366,768,,,,,1,1058,,,,,,,,,,,,,,,,,B,174,circle,1,0,,,,,,,,,,,,,,,,switch,number,numSwt,k,0.421,Lo,,,,,,3,,,,,,,,low,18,0,18,0,1,,,,,,,,,
292765,2022-09-28_18h00.02.799,vts_reward_expectancy,2022.2.4,Win32,59.56280898,Chrome,1366,768,,,,,1,1059,,,,,,,,,,,,,,,,,H,181,hexagon,1,0,,,,,,,,,,,,,,,,repeat,number,numRpt,k,0.4452,Hi,,,,,,3,,,,,,,,low,19,0,19,0,1,,,,,,,,,
292765,2022-09-28_18h00.02.799,vts_reward_expectancy,2022.2.4,Win32,59.56280898,Chrome,1366,768,,,,,1,1060,,,,,,,,,,,,,,,,,Y,160,circle,1,0,,,,,,,,,,,,,,,,repeat,number,numRpt,k,0.4525,Lo,,,,,,3,,,,,,,,low,20,0,20,0,1,,,,,,,,,
292765,2022-09-28_18h00.02.799,vts_reward_expectancy,2022.2.4,Win32,59.56280898,Chrome,1366,768,,,,,1,1061,,,,,,,,,,,,,,,,,W,146,hexagon,1,0,,,,,,,,,,,,,,,,switch,letter,lettSwt,f,0.4179,Hi,,,,,,3,,,,,,,,low,21,0,21,0,1,,,,,,,,,
292765,2022-09-28_18h00.02.799,vts_reward_expectancy,2022.2.4,Win32,59.56280898,Chrome,1366,768,,,,,1,1062,,,,,,,,,,,,,,,,,F,125,circle,1,0,,,,,,,,,,,,,,,,switch,number,numSwt,j,0.4679,Lo,,,,,,3,,,,,,,,low,22,0,22,0,1,,,,,,,,,
292765,2022-09-28_18h00.02.799,vts_reward_expectancy,2022.2.4,Win32,59.56280898,Chrome,1366,768,,,,,1,1063,,,,,,,,,,,,,,,,,D,132,hexagon,1,0,,,,,,,,,,,,,,,,repeat,number,numRpt,j,0.418,Hi,,,,,,3,,,,,,,,low,23,0,23,0,1,,,,,,,,,
292765,2022-09-28_18h00.02.799,vts_reward_expectancy,2022.2.4,Win32,59.56280898,Chrome,1366,768,,,,,10,1073,,,,,,,,,,,,,,,,,H,139,hexagon,1,0,,,,,,,,,,,,,,,,repeat,number,numRpt,j,0.4398,Hi,,,,,,3,,,,,,,,low,24,0,24,0,1,,,,,,,,,
292765,2022-09-28_18h00.02.799,vts_reward_expectancy,2022.2.4,Win32,59.56280898,Chrome,1366,768,,,,,10,1083,,,,,,,,,,,,,,,,,S,181,circle,1,0,,,,,,,,,,,,,,,,switch,letter,lettSwt,f,0.4719,Lo,,,,,,3,,,,,,,,low,25,0,25,0,1,,,,,,,,,
292765,2022-09-28_18h00.02.799,vts_reward_expectancy,2022.2.4,Win32,59.56280898,Chrome,1366,768,,,,,0,1083,,,,,,,,,,,,,,,,,D,146,hexagon,0,0,,,,,,,,,,,,,,,,switch,number,NA,k,0.3615,Lo,,,,,,3,,,,,,,,low,26,0,26,0,1,,,,,,,,,
292765,2022-09-28_18h00.02.799,vts_reward_expectancy,2022.2.4,Win32,59.56280898,Chrome,1366,768,,,,,10,1093,,,,,,,,,,,,,,,,,W,160,circle,1,1,,,,,,,,,,,,,,,,switch,letter,lettSwt,f,0.4157,Lo,,,,,,3,,,,,,,,low,27,0,27,0,1,,,,,,,,,
292765,2022-09-28_18h00.02.799,vts_reward_expectancy,2022.2.4,Win32,59.56280898,Chrome,1366,768,,,,,10,1103,,,,,,,,,,,,,,,,,B,132,circle,1,0,,,,,,,,,,,,,,,,switch,number,numSwt,j,0.3765,Lo,,,,,,3,,,,,,,,low,28,0,28,0,1,,,,,,,,,
292765,2022-09-28_18h00.02.799,vts_reward_expectancy,2022.2.4,Win32,59.56280898,Chrome,1366,768,,,,,10,1113,,,,,,,,,,,,,,,,,Y,167,hexagon,1,0,,,,,,,,,,,,,,,,switch,letter,lettSwt,f,0.411,Hi,,,,,,3,,,,,,,,low,29,0,29,0,1,,,,,,,,,
292765,2022-09-28_18h00.02.799,vts_reward_expectancy,2022.2.4,Win32,59.56280898,Chrome,1366,768,,,,,10,1123,,,,,,,,,,,,,,,,,F,125,hexagon,1,0,,,,,,,,,,,,,,,,switch,number,numSwt,j,0.3785,Hi,,,,,,3,,,,,,,,low,30,0,30,0,1,,,,,,,,,
292765,2022-09-28_18h00.02.799,vts_reward_expectancy,2022.2.4,Win32,59.56280898,Chrome,1366,768,,,,,10,1133,,,,,,,,,,,,,,,,,U,174,circle,1,0,,,,,,,,,,,,,,,,switch,letter,lettSwt,f,0.5281,Lo,,,,,,3,,,,,,,,low,31,0,31,0,1,,,,,,,,,
292765,2022-09-28_18h00.02.799,vts_reward_expectancy,2022.2.4,Win32,59.56280898,Chrome,1366,768,,,,,1,1134,,,,,,,,,,,,,,,,,U,167,star,1,0,,,,,,,,,,,,,,,,switch,number,numSwt,k,0.5957,Lo,,,,,,4,,,,,,space,2.3198,high,0,0,0,0,1,,,,,,,,,
292765,2022-09-28_18h00.02.799,vts_reward_expectancy,2022.2.4,Win32,59.56280898,Chrome,1366,768,,,,,0,1134,,,,,,,,,,,,,,,,,S,160,triangle,1,0,,,,,,,,,,,,,,,,repeat,number,numRpt,k,0.4277,Hi,,,,,,4,,,,,,,,high,1,0,1,0,1,,,,,,,,,
292765,2022-09-28_18h00.02.799,vts_reward_expectancy,2022.2.4,Win32,59.56280898,Chrome,1366,768,,,,,10,1144,,,,,,,,,,,,,,,,,B,125,star,1,0,,,,,,,,,,,,,,,,switch,letter,lettSwt,d,0.3869,Lo,,,,,,4,,,,,,,,high,2,0,2,0,1,,,,,,,,,
292765,2022-09-28_18h00.02.799,vts_reward_expectancy,2022.2.4,Win32,59.56280898,Chrome,1366,768,,,,,0,1144,,,,,,,,,,,,,,,,,H,174,triangle,1,0,,,,,,,,,,,,,,,,switch,number,numSwt,k,0.4843,Hi,,,,,,4,,,,,,,,high,3,0,3,0,1,,,,,,,,,
292765,2022-09-28_18h00.02.799,vts_reward_expectancy,2022.2.4,Win32,59.56280898,Chrome,1366,768,,,,,1,1145,,,,,,,,,,,,,,,,,W,146,star,1,0,,,,,,,,,,,,,,,,switch,letter,lettSwt,f,0.4147,Lo,,,,,,4,,,,,,,,high,4,0,4,0,1,,,,,,,,,
292765,2022-09-28_18h00.02.799,vts_reward_expectancy,2022.2.4,Win32,59.56280898,Chrome,1366,768,,,,,0,1145,,,,,,,,,,,,,,,,,D,181,triangle,1,0,,,,,,,,,,,,,,,,switch,number,numSwt,k,0.448,Hi,,,,,,4,,,,,,,,high,5,0,5,0,1,,,,,,,,,
292765,2022-09-28_18h00.02.799,vts_reward_expectancy,2022.2.4,Win32,59.56280898,Chrome,1366,768,,,,,0,1145,,,,,,,,,,,,,,,,,F,132,triangle,0,0,,,,,,,,,,,,,,,,switch,letter,NA,f,0.5342,Hi,,,,,,4,,,,,,,,high,6,0,6,0,1,,,,,,,,,
292765,2022-09-28_18h00.02.799,vts_reward_expectancy,2022.2.4,Win32,59.56280898,Chrome,1366,768,,,,,1,1146,,,,,,,,,,,,,,,,,Y,139,star,1,1,,,,,,,,,,,,,,,,repeat,letter,lettRpt,f,0.3604,Lo,,,,,,4,,,,,,,,high,7,0,7,0,1,,,,,,,,,
292765,2022-09-28_18h00.02.799,vts_reward_expectancy,2022.2.4,Win32,59.56280898,Chrome,1366,768,,,,,0,1146,,,,,,,,,,,,,,,,,U,167,star,0,0,,,,,,,,,,,,,,,,repeat,letter,NA,d,0.4024,Lo,,,,,,4,,,,,,,,high,8,0,8,0,1,,,,,,,,,
292765,2022-09-28_18h00.02.799,vts_reward_expectancy,2022.2.4,Win32,59.56280898,Chrome,1366,768,,,,,0,1146,,,,,,,,,,,,,,,,,S,160,triangle,1,1,,,,,,,,,,,,,,,,repeat,letter,lettRpt,f,0.4945,Hi,,,,,,4,,,,,,,,high,9,0,9,0,1,,,,,,,,,
292765,2022-09-28_18h00.02.799,vts_reward_expectancy,2022.2.4,Win32,59.56280898,Chrome,1366,768,,,,,10,1156,,,,,,,,,,,,,,,,,B,125,triangle,1,0,,,,,,,,,,,,,,,,switch,number,numSwt,j,0.3247,Hi,,,,,,4,,,,,,,,high,10,0,10,0,1,,,,,,,,,
292765,2022-09-28_18h00.02.799,vts_reward_expectancy,2022.2.4,Win32,59.56280898,Chrome,1366,768,,,,,0,1156,,,,,,,,,,,,,,,,,H,174,star,0,0,,,,,,,,,,,,,,,,switch,letter,NA,f,0.3443,Hi,,,,,,4,,,,,,,,high,11,0,11,0,1,,,,,,,,,
292765,2022-09-28_18h00.02.799,vts_reward_expectancy,2022.2.4,Win32,59.56280898,Chrome,1366,768,,,,,1,1157,,,,,,,,,,,,,,,,,W,146,star,1,1,,,,,,,,,,,,,,,,switch,number,numSwt,j,0.6454,Lo,,,,,,4,,,,,,,,high,12,0,12,0,1,,,,,,,,,
292765,2022-09-28_18h00.02.799,vts_reward_expectancy,2022.2.4,Win32,59.56280898,Chrome,1366,768,,,,,0,1157,,,,,,,,,,,,,,,,,D,181,triangle,0,0,,,,,,,,,,,,,,,,repeat,number,NA,j,0.4383,Lo,,,,,,4,,,,,,,,high,13,0,13,0,1,,,,,,,,,
292765,2022-09-28_18h00.02.799,vts_reward_expectancy,2022.2.4,Win32,59.56280898,Chrome,1366,768,,,,,1,1158,,,,,,,,,,,,,,,,,F,132,star,1,1,,,,,,,,,,,,,,,,repeat,number,numRpt,j,0.4105,Lo,,,,,,4,,,,,,,,high,14,0,14,0,1,,,,,,,,,
292765,2022-09-28_18h00.02.799,vts_reward_expectancy,2022.2.4,Win32,59.56280898,Chrome,1366,768,,,,,0,1158,,,,,,,,,,,,,,,,,Y,139,triangle,0,0,,,,,,,,,,,,,,,,repeat,number,NA,k,0.3204,Lo,,,,,,4,,,,,,,,high,15,0,15,0,1,,,,,,,,,
292765,2022-09-28_18h00.02.799,vts_reward_expectancy,2022.2.4,Win32,59.56280898,Chrome,1366,768,,,,,1,1159,,,,,,,,,,,,,,,,,D,132,star,1,1,,,,,,,,,,,,,,,,repeat,number,numRpt,j,0.364,Lo,,,,,,4,,,,,,,,high,16,0,16,0,1,,,,,,,,,
292765,2022-09-28_18h00.02.799,vts_reward_expectancy,2022.2.4,Win32,59.56280898,Chrome,1366,768,,,,,0,1159,,,,,,,,,,,,,,,,,W,174,triangle,1,0,,,,,,,,,,,,,,,,switch,letter,lettSwt,f,0.416,Hi,,,,,,4,,,,,,,,high,17,0,17,0,1,,,,,,,,,
292765,2022-09-28_18h00.02.799,vts_reward_expectancy,2022.2.4,Win32,59.56280898,Chrome,1366,768,,,,,1,1160,,,,,,,,,,,,,,,,,Y,139,star,1,0,,,,,,,,,,,,,,,,repeat,letter,lettRpt,f,0.4453,Lo,,,,,,4,,,,,,,,high,18,0,18,0,1,,,,,,,,,
292765,2022-09-28_18h00.02.799,vts_reward_expectancy,2022.2.4,Win32,59.56280898,Chrome,1366,768,,,,,0,1160,,,,,,,,,,,,,,,,,U,125,triangle,1,0,,,,,,,,,,,,,,,,repeat,letter,lettRpt,f,0.4519,Hi,,,,,,4,,,,,,,,high,19,0,19,0,1,,,,,,,,,
292765,2022-09-28_18h00.02.799,vts_reward_expectancy,2022.2.4,Win32,59.56280898,Chrome,1366,768,,,,,0,1160,,,,,,,,,,,,,,,,,F,160,triangle,1,0,,,,,,,,,,,,,,,,switch,number,numSwt,k,0.4177,Hi,,,,,,4,,,,,,,,high,20,0,20,0,1,,,,,,,,,
292765,2022-09-28_18h00.02.799,vts_reward_expectancy,2022.2.4,Win32,59.56280898,Chrome,1366,768,,,,,1,1161,,,,,,,,,,,,,,,,,S,181,star,1,0,,,,,,,,,,,,,,,,switch,letter,lettSwt,f,0.494,Lo,,,,,,4,,,,,,,,high,21,0,21,0,1,,,,,,,,,
292765,2022-09-28_18h00.02.799,vts_reward_expectancy,2022.2.4,Win32,59.56280898,Chrome,1366,768,,,,,0,1161,,,,,,,,,,,,,,,,,H,146,triangle,1,0,,,,,,,,,,,,,,,,repeat,letter,lettRpt,d,0.6142,Hi,,,,,,4,,,,,,,,high,22,0,22,0,1,,,,,,,,,
292765,2022-09-28_18h00.02.799,vts_reward_expectancy,2022.2.4,Win32,59.56280898,Chrome,1366,768,,,,,1,1162,,,,,,,,,,,,,,,,,B,167,star,1,0,,,,,,,,,,,,,,,,repeat,letter,lettRpt,d,0.4106,Lo,,,,,,4,,,,,,,,high,23,0,23,0,1,,,,,,,,,
292765,2022-09-28_18h00.02.799,vts_reward_expectancy,2022.2.4,Win32,59.56280898,Chrome,1366,768,,,,,1,1163,,,,,,,,,,,,,,,,,Y,181,star,1,0,,,,,,,,,,,,,,,,switch,number,numSwt,k,0.3813,Lo,,,,,,4,,,,,,,,high,24,0,24,0,1,,,,,,,,,
292765,2022-09-28_18h00.02.799,vts_reward_expectancy,2022.2.4,Win32,59.56280898,Chrome,1366,768,,,,,0,1163,,,,,,,,,,,,,,,,,B,139,triangle,1,0,,,,,,,,,,,,,,,,repeat,number,numRpt,j,0.4496,Hi,,,,,,4,,,,,,,,high,25,0,25,0,1,,,,,,,,,
292765,2022-09-28_18h00.02.799,vts_reward_expectancy,2022.2.4,Win32,59.56280898,Chrome,1366,768,,,,,0,1163,,,,,,,,,,,,,,,,,U,174,triangle,0,0,,,,,,,,,,,,,,,,repeat,number,NA,j,0.4186,Hi,,,,,,4,,,,,,,,high,26,0,26,0,1,,,,,,,,,
292765,2022-09-28_18h00.02.799,vts_reward_expectancy,2022.2.4,Win32,59.56280898,Chrome,1366,768,,,,,0,1163,,,,,,,,,,,,,,,,,W,160,star,0,1,,,,,,,,,,,,,,,,repeat,number,NA,j,0.4034,Hi,,,,,,4,,,,,,,,high,27,0,27,0,1,,,,,,,,,
292765,2022-09-28_18h00.02.799,vts_reward_expectancy,2022.2.4,Win32,59.56280898,Chrome,1366,768,,,,,1,1164,,,,,,,,,,,,,,,,,S,132,star,1,1,,,,,,,,,,,,,,,,repeat,number,numRpt,j,0.4772,Lo,,,,,,4,,,,,,,,high,28,0,28,0,1,,,,,,,,,
292765,2022-09-28_18h00.02.799,vts_reward_expectancy,2022.2.4,Win32,59.56280898,Chrome,1366,768,,,,,10,1174,,,,,,,,,,,,,,,,,F,167,triangle,1,0,,,,,,,,,,,,,,,,repeat,number,numRpt,k,0.387,Hi,,,,,,4,,,,,,,,high,29,0,29,0,1,,,,,,,,,
292765,2022-09-28_18h00.02.799,vts_reward_expectancy,2022.2.4,Win32,59.56280898,Chrome,1366,768,,,,,1,1175,,,,,,,,,,,,,,,,,D,125,star,1,0,,,,,,,,,,,,,,,,switch,letter,lettSwt,d,0.4148,Lo,,,,,,4,,,,,,,,high,30,0,30,0,1,,,,,,,,,
292765,2022-09-28_18h00.02.799,vts_reward_expectancy,2022.2.4,Win32,59.56280898,Chrome,1366,768,,,,,0,1175,,,,,,,,,,,,,,,,,H,146,triangle,1,0,,,,,,,,,,,,,,,,switch,number,numSwt,j,0.383,Hi,,,,,,4,,,,,,,,high,31,0,31,0,1,,,,,,,,,
292765,2022-09-28_18h00.02.799,vts_reward_expectancy,2022.2.4,Win32,59.56280898,Chrome,1366,768,,,,,1,1176,,,,,,,,,,,,,,,,,D,139,star,1,0,,,,,,,,,,,,,,,,repeat,number,numRpt,j,0.359,Lo,,,,,,5,,,,,,space,2.6902,high,0,0,0,0,1,,,,,,,,,
292765,2022-09-28_18h00.02.799,vts_reward_expectancy,2022.2.4,Win32,59.56280898,Chrome,1366,768,,,,,0,1176,,,,,,,,,,,,,,,,,F,181,triangle,0,0,,,,,,,,,,,,,,,,repeat,number,NA,j,0.3957,Lo,,,,,,5,,,,,,,,high,1,0,1,0,1,,,,,,,,,
292765,2022-09-28_18h00.02.799,vts_reward_expectancy,2022.2.4,Win32,59.56280898,Chrome,1366,768,,,,,1,1177,,,,,,,,,,,,,,,,,H,132,star,1,1,,,,,,,,,,,,,,,,repeat,number,numRpt,j,0.3693,Lo,,,,,,5,,,,,,,,high,2,0,2,0,1,,,,,,,,,
292765,2022-09-28_18h00.02.799,vts_reward_expectancy,2022.2.4,Win32,59.56280898,Chrome,1366,768,,,,,10,1187,,,,,,,,,,,,,,,,,B,125,triangle,1,0,,,,,,,,,,,,,,,,switch,letter,lettSwt,d,0.3893,Hi,,,,,,5,,,,,,,,high,3,0,3,0,1,,,,,,,,,
292765,2022-09-28_18h00.02.799,vts_reward_expectancy,2022.2.4,Win32,59.56280898,Chrome,1366,768,,,,,10,1197,,,,,,,,,,,,,,,,,U,160,star,1,0,,,,,,,,,,,,,,,,switch,number,numSwt,k,0.4617,Lo,,,,,,5,,,,,,,,high,4,0,4,0,1,,,,,,,,,
292765,2022-09-28_18h00.02.799,vts_reward_expectancy,2022.2.4,Win32,59.56280898,Chrome,1366,768,,,,,10,1207,,,,,,,,,,,,,,,,,W,174,triangle,1,0,,,,,,,,,,,,,,,,switch,letter,lettSwt,f,0.339,Hi,,,,,,5,,,,,,,,high,5,0,5,0,1,,,,,,,,,
292765,2022-09-28_18h00.02.799,vts_reward_expectancy,2022.2.4,Win32,59.56280898,Chrome,1366,768,,,,,1,1208,,,,,,,,,,,,,,,,,Y,146,star,1,0,,,,,,,,,,,,,,,,switch,number,numSwt,j,0.4568,Lo,,,,,,5,,,,,,,,high,6,0,6,0,1,,,,,,,,,
292765,2022-09-28_18h00.02.799,vts_reward_expectancy,2022.2.4,Win32,59.56280898,Chrome,1366,768,,,,,0,1208,,,,,,,,,,,,,,,,,S,167,triangle,1,0,,,,,,,,,,,,,,,,repeat,number,numRpt,k,0.5348,Hi,,,,,,5,,,,,,,,high,7,0,7,0,1,,,,,,,,,
292765,2022-09-28_18h00.02.799,vts_reward_expectancy,2022.2.4,Win32,59.56280898,Chrome,1366,768,,,,,0,1208,,,,,,,,,,,,,,,,,D,139,triangle,1,0,,,,,,,,,,,,,,,,repeat,number,numRpt,j,0.5116,Hi,,,,,,5,,,,,,,,high,8,0,8,0,1,,,,,,,,,
292765,2022-09-28_18h00.02.799,vts_reward_expectancy,2022.2.4,Win32,59.56280898,Chrome,1366,768,,,,,10,1218,,,,,,,,,,,,,,,,,F,181,star,1,0,,,,,,,,,,,,,,,,repeat,number,numRpt,k,0.4905,Lo,,,,,,5,,,,,,,,high,9,0,9,0,1,,,,,,,,,
292765,2022-09-28_18h00.02.799,vts_reward_expectancy,2022.2.4,Win32,59.56280898,Chrome,1366,768,,,,,0,1218,,,,,,,,,,,,,,,,,H,132,star,0,0,,,,,,,,,,,,,,,,switch,letter,NA,f,0.3819,Lo,,,,,,5,,,,,,,,high,10,0,10,0,1,,,,,,,,,
292765,2022-09-28_18h00.02.799,vts_reward_expectancy,2022.2.4,Win32,59.56280898,Chrome,1366,768,,,,,0,1218,,,,,,,,,,,,,,,,,B,125,triangle,1,1,,,,,,,,,,,,,,,,switch,number,numSwt,j,0.3993,Hi,,,,,,5,,,,,,,,high,11,0,11,0,1,,,,,,,,,
292765,2022-09-28_18h00.02.799,vts_reward_expectancy,2022.2.4,Win32,59.56280898,Chrome,1366,768,,,,,0,1218,,,,,,,,,,,,,,,,,U,160,triangle,0,0,,,,,,,,,,,,,,,,switch,letter,NA,d,0.4849,Hi,,,,,,5,,,,,,,,high,12,0,12,0,1,,,,,,,,,
292765,2022-09-28_18h00.02.799,vts_reward_expectancy,2022.2.4,Win32,59.56280898,Chrome,1366,768,,,,,1,1219,,,,,,,,,,,,,,,,,W,174,star,1,1,,,,,,,,,,,,,,,,repeat,letter,lettRpt,f,0.5102,Lo,,,,,,5,,,,,,,,high,13,0,13,0,1,,,,,,,,,
292765,2022-09-28_18h00.02.799,vts_reward_expectancy,2022.2.4,Win32,59.56280898,Chrome,1366,768,,,,,0,1219,,,,,,,,,,,,,,,,,Y,146,triangle,1,0,,,,,,,,,,,,,,,,repeat,letter,lettRpt,f,0.4705,Hi,,,,,,5,,,,,,,,high,14,0,14,0,1,,,,,,,,,
292765,2022-09-28_18h00.02.799,vts_reward_expectancy,2022.2.4,Win32,59.56280898,Chrome,1366,768,,,,,1,1220,,,,,,,,,,,,,,,,,S,167,star,1,0,,,,,,,,,,,,,,,,repeat,letter,lettRpt,f,0.4149,Lo,,,,,,5,,,,,,,,high,15,0,15,0,1,,,,,,,,,
292765,2022-09-28_18h00.02.799,vts_reward_expectancy,2022.2.4,Win32,59.56280898,Chrome,1366,768,,,,,10,1230,,,,,,,,,,,,,,,,,Y,167,triangle,1,0,,,,,,,,,,,,,,,,repeat,letter,lettRpt,f,0.3843,Hi,,,,,,5,,,,,,,,high,16,0,16,0,1,,,,,,,,,
292765,2022-09-28_18h00.02.799,vts_reward_expectancy,2022.2.4,Win32,59.56280898,Chrome,1366,768,,,,,10,1240,,,,,,,,,,,,,,,,,F,181,star,1,0,,,,,,,,,,,,,,,,switch,number,numSwt,k,0.3376,Lo,,,,,,5,,,,,,,,high,17,0,17,0,1,,,,,,,,,
292765,2022-09-28_18h00.02.799,vts_reward_expectancy,2022.2.4,Win32,59.56280898,Chrome,1366,768,,,,,10,1250,,,,,,,,,,,,,,,,,D,160,triangle,1,0,,,,,,,,,,,,,,,,repeat,number,numRpt,k,0.3944,Hi,,,,,,5,,,,,,,,high,18,0,18,0,1,,,,,,,,,
292765,2022-09-28_18h00.02.799,vts_reward_expectancy,2022.2.4,Win32,59.56280898,Chrome,1366,768,,,,,1,1251,,,,,,,,,,,,,,,,,U,125,star,1,0,,,,,,,,,,,,,,,,repeat,number,numRpt,j,0.3545,Lo,,,,,,5,,,,,,,,high,19,0,19,0,1,,,,,,,,,
292765,2022-09-28_18h00.02.799,vts_reward_expectancy,2022.2.4,Win32,59.56280898,Chrome,1366,768,,,,,1,1252,,,,,,,,,,,,,,,,,S,139,star,1,0,,,,,,,,,,,,,,,,repeat,number,numRpt,j,0.4786,Lo,,,,,,5,,,,,,,,high,20,0,20,0,1,,,,,,,,,
292765,2022-09-28_18h00.02.799,vts_reward_expectancy,2022.2.4,Win32,59.56280898,Chrome,1366,768,,,,,0,1252,,,,,,,,,,,,,,,,,B,146,triangle,1,0,,,,,,,,,,,,,,,,repeat,number,numRpt,j,0.4184,Hi,,,,,,5,,,,,,,,high,21,0,21,0,1,,,,,,,,,
292765,2022-09-28_18h00.02.799,vts_reward_expectancy,2022.2.4,Win32,59.56280898,Chrome,1366,768,,,,,1,1253,,,,,,,,,,,,,,,,,W,132,star,1,0,,,,,,,,,,,,,,,,repeat,number,numRpt,j,0.4015,Lo,,,,,,5,,,,,,,,high,22,0,22,0,1,,,,,,,,,
292765,2022-09-28_18h00.02.799,vts_reward_expectancy,2022.2.4,Win32,59.56280898,Chrome,1366,768,,,,,0,1253,,,,,,,,,,,,,,,,,H,174,triangle,0,0,,,,,,,,,,,,,,,,switch,letter,NA,f,0.3901,Lo,,,,,,5,,,,,,,,high,23,0,23,0,1,,,,,,,,,
292765,2022-09-28_18h00.02.799,vts_reward_expectancy,2022.2.4,Win32,59.56280898,Chrome,1366,768,,,,,1,1254,,,,,,,,,,,,,,,,,B,181,star,1,1,,,,,,,,,,,,,,,,repeat,letter,lettRpt,d,0.4009,Lo,,,,,,5,,,,,,,,high,24,0,24,0,1,,,,,,,,,
292765,2022-09-28_18h00.02.799,vts_reward_expectancy,2022.2.4,Win32,59.56280898,Chrome,1366,768,,,,,0,1254,,,,,,,,,,,,,,,,,H,160,triangle,1,0,,,,,,,,,,,,,,,,repeat,letter,lettRpt,d,0.6015,Hi,,,,,,5,,,,,,,,high,25,0,25,0,1,,,,,,,,,
292765,2022-09-28_18h00.02.799,vts_reward_expectancy,2022.2.4,Win32,59.56280898,Chrome,1366,768,,,,,1,1255,,,,,,,,,,,,,,,,,W,139,triangle,1,0,,,,,,,,,,,,,,,,repeat,letter,lettRpt,f,0.3831,Hi,,,,,,5,,,,,,,,high,26,0,26,0,1,,,,,,,,,
292765,2022-09-28_18h00.02.799,vts_reward_expectancy,2022.2.4,Win32,59.56280898,Chrome,1366,768,,,,,10,1265,,,,,,,,,,,,,,,,,U,174,star,1,0,,,,,,,,,,,,,,,,switch,number,numSwt,k,0.4441,Lo,,,,,,5,,,,,,,,high,27,0,27,0,1,,,,,,,,,
292765,2022-09-28_18h00.02.799,vts_reward_expectancy,2022.2.4,Win32,59.56280898,Chrome,1366,768,,,,,1,1266,,,,,,,,,,,,,,,,,F,146,star,1,0,,,,,,,,,,,,,,,,repeat,number,numRpt,j,0.4608,Lo,,,,,,5,,,,,,,,high,28,0,28,0,1,,,,,,,,,
292765,2022-09-28_18h00.02.799,vts_reward_expectancy,2022.2.4,Win32,59.56280898,Chrome,1366,768,,,,,0,1266,,,,,,,,,,,,,,,,,S,167,triangle,1,0,,,,,,,,,,,,,,,,repeat,number,numRpt,k,0.4081,Hi,,,,,,5,,,,,,,,high,29,0,29,0,1,,,,,,,,,
292765,2022-09-28_18h00.02.799,vts_reward_expectancy,2022.2.4,Win32,59.56280898,Chrome,1366,768,,,,,1,1267,,,,,,,,,,,,,,,,,D,125,star,1,0,,,,,,,,,,,,,,,,switch,letter,lettSwt,d,0.4189,Lo,,,,,,5,,,,,,,,high,30,0,30,0,1,,,,,,,,,
292765,2022-09-28_18h00.02.799,vts_reward_expectancy,2022.2.4,Win32,59.56280898,Chrome,1366,768,,,,,10,1277,,,,,,,,,,,,,,,,,Y,132,triangle,1,0,,,,,,,,,,,,,,,,switch,number,numSwt,j,0.3754,Hi,,,,,,5,,,,,,,,high,31,0,31,0,1,,,,,,,,,
292765,2022-09-28_18h00.02.799,vts_reward_expectancy,2022.2.4,Win32,59.56280898,Chrome,1366,768,,,,,,,,,,,,,,,,,,,,,,,,,,,,,,,,,,,,,,,,,,,,,,,,,,,,,,6,,,,,,,,,,,,,,I was asked to choose if th letter was closer to A and Z and also if the number was below 153 or highrt,1,,5,2,,2,1366,768
