participant,date,expName,psychopyVersion,OS,frameRate,browser,xResolution,yResolution,key_resp.keys,key_resp.rt,training_resp.keys,training_resp.rt,points_trial,points_cumul,trainBlock,training.thisRepN,training.thisTrialN,training.thisN,training.thisIndex,training.ran,LTriangleOpac,LCircleOpac,LHexagonOpac,LStarOpac,RTriangleOpac,RCircleOpac,RHexagonOpac,RStarOpac,LShape_ID,RShape_ID,curr_topStim,curr_bottStim,curr_shape,acc,E1,target_resp_prac1.keys,target_resp_prac1.rt,pracBlock,task1_prac_trials.thisRepN,task1_prac_trials.thisTrialN,task1_prac_trials.thisN,task1_prac_trials.thisIndex,task1_prac_trials.ran,target_resp_prac2.keys,target_resp_prac2.rt,task2_praac_trials.thisRepN,task2_praac_trials.thisTrialN,task2_praac_trials.thisN,task2_praac_trials.thisIndex,task2_praac_trials.ran,alt,task,condition,target_resp.keys,target_resp.rt,rewCond,vts_practice_trials.thisRepN,vts_practice_trials.thisTrialN,vts_practice_trials.thisN,vts_practice_trials.thisIndex,vts_practice_trials.ran,blockNum,trials_norew.thisRepN,trials_norew.thisTrialN,trials_norew.thisN,trials_norew.thisIndex,trials_norew.ran,key_resp_2.keys,key_resp_2.rt,rewExpect,trials_rew.thisRepN,trials_rew.thisTrialN,trials_rew.thisN,trials_rew.thisIndex,trials_rew.ran,Q1,Q2,Q2_text,Q3,Q4,Q5_text,Q5,xRes,yRes
296827,2022-09-26_24h47.42.735,vts_reward_expectancy,2022.2.4,MacIntel,60.0024001,Chrome,1680,1050,,,,,,,,,,,,,,,,,,,,,,,,,,,,,,,,,,,,,,,,,,,,,,,,,,,,,,,,,,,,,,,,,,,,,,,,,,,,
296827,2022-09-26_24h47.42.735,vts_reward_expectancy,2022.2.4,MacIntel,60.0024001,Chrome,1680,1050,space,13.1767,,,,,,,,,,,,,,,,,,,,,,,,,,,,,,,,,,,,,,,,,,,,,,,,,,,,,,,,,,,,,,,,,,,,,,,,,,
296827,2022-09-26_24h47.42.735,vts_reward_expectancy,2022.2.4,MacIntel,60.0024001,Chrome,1680,1050,,,,,,,,,,,,,,,,,,,,,,,,,,,,,,,,,,,,,,,,,,,,,,,,,,,,,,,,,,,,,,,,,,,,,,,,,,,,
296827,2022-09-26_24h47.42.735,vts_reward_expectancy,2022.2.4,MacIntel,60.0024001,Chrome,1680,1050,,,l,1.9266,1,1,0,0,0,0,7,1,0,0,1,0,0,1,0,0,hexagon,circle,,,,,,,,,,,,,,,,,,,,,,,,,,,,,,,,,,,,,,,,,,,,,,,,,,,,,,
296827,2022-09-26_24h47.42.735,vts_reward_expectancy,2022.2.4,MacIntel,60.0024001,Chrome,1680,1050,,,l,1.1817,1,2,0,0,1,1,5,1,0,1,0,0,0,0,0,1,circle,star,,,,,,,,,,,,,,,,,,,,,,,,,,,,,,,,,,,,,,,,,,,,,,,,,,,,,,
296827,2022-09-26_24h47.42.735,vts_reward_expectancy,2022.2.4,MacIntel,60.0024001,Chrome,1680,1050,,,l,1.6322,10,12,0,0,2,2,11,1,0,0,0,1,0,0,1,0,star,hexagon,,,,,,,,,,,,,,,,,,,,,,,,,,,,,,,,,,,,,,,,,,,,,,,,,,,,,,
296827,2022-09-26_24h47.42.735,vts_reward_expectancy,2022.2.4,MacIntel,60.0024001,Chrome,1680,1050,,,a,0.8667,10,22,0,0,3,3,0,1,1,0,0,0,0,1,0,0,triangle,circle,,,,,,,,,,,,,,,,,,,,,,,,,,,,,,,,,,,,,,,,,,,,,,,,,,,,,,
296827,2022-09-26_24h47.42.735,vts_reward_expectancy,2022.2.4,MacIntel,60.0024001,Chrome,1680,1050,,,l,1.6171,10,32,0,0,4,4,1,1,1,0,0,0,0,0,1,0,triangle,hexagon,,,,,,,,,,,,,,,,,,,,,,,,,,,,,,,,,,,,,,,,,,,,,,,,,,,,,,
296827,2022-09-26_24h47.42.735,vts_reward_expectancy,2022.2.4,MacIntel,60.0024001,Chrome,1680,1050,,,l,0.9332,1,33,0,0,5,5,6,1,0,0,1,0,1,0,0,0,hexagon,triangle,,,,,,,,,,,,,,,,,,,,,,,,,,,,,,,,,,,,,,,,,,,,,,,,,,,,,,
296827,2022-09-26_24h47.42.735,vts_reward_expectancy,2022.2.4,MacIntel,60.0024001,Chrome,1680,1050,,,l,0.7992,10,43,0,0,6,6,4,1,0,1,0,0,0,0,1,0,circle,hexagon,,,,,,,,,,,,,,,,,,,,,,,,,,,,,,,,,,,,,,,,,,,,,,,,,,,,,,
296827,2022-09-26_24h47.42.735,vts_reward_expectancy,2022.2.4,MacIntel,60.0024001,Chrome,1680,1050,,,a,0.8309,10,53,0,0,7,7,8,1,0,0,1,0,0,0,0,1,hexagon,star,,,,,,,,,,,,,,,,,,,,,,,,,,,,,,,,,,,,,,,,,,,,,,,,,,,,,,
296827,2022-09-26_24h47.42.735,vts_reward_expectancy,2022.2.4,MacIntel,60.0024001,Chrome,1680,1050,,,a,0.768,10,63,0,0,8,8,10,1,0,0,0,1,0,1,0,0,star ,circle,,,,,,,,,,,,,,,,,,,,,,,,,,,,,,,,,,,,,,,,,,,,,,,,,,,,,,
296827,2022-09-26_24h47.42.735,vts_reward_expectancy,2022.2.4,MacIntel,60.0024001,Chrome,1680,1050,,,l,0.784,10,73,0,0,9,9,9,1,0,0,0,1,1,0,0,0,star,triangle,,,,,,,,,,,,,,,,,,,,,,,,,,,,,,,,,,,,,,,,,,,,,,,,,,,,,,
296827,2022-09-26_24h47.42.735,vts_reward_expectancy,2022.2.4,MacIntel,60.0024001,Chrome,1680,1050,,,a,0.5169,10,83,0,0,10,10,2,1,1,0,0,0,0,0,0,1,triangle,star,,,,,,,,,,,,,,,,,,,,,,,,,,,,,,,,,,,,,,,,,,,,,,,,,,,,,,
296827,2022-09-26_24h47.42.735,vts_reward_expectancy,2022.2.4,MacIntel,60.0024001,Chrome,1680,1050,,,l,0.0354,10,93,0,0,11,11,3,1,0,1,0,0,1,0,0,0,circle,triangle,,,,,,,,,,,,,,,,,,,,,,,,,,,,,,,,,,,,,,,,,,,,,,,,,,,,,,
296827,2022-09-26_24h47.42.735,vts_reward_expectancy,2022.2.4,MacIntel,60.0024001,Chrome,1680,1050,,,l,0.3012,1,94,0,1,0,12,7,1,0,0,1,0,0,1,0,0,hexagon,circle,,,,,,,,,,,,,,,,,,,,,,,,,,,,,,,,,,,,,,,,,,,,,,,,,,,,,,
296827,2022-09-26_24h47.42.735,vts_reward_expectancy,2022.2.4,MacIntel,60.0024001,Chrome,1680,1050,,,l,0.3503,1,95,0,1,1,13,8,1,0,0,1,0,0,0,0,1,hexagon,star,,,,,,,,,,,,,,,,,,,,,,,,,,,,,,,,,,,,,,,,,,,,,,,,,,,,,,
296827,2022-09-26_24h47.42.735,vts_reward_expectancy,2022.2.4,MacIntel,60.0024001,Chrome,1680,1050,,,l,0.7497,10,105,0,1,2,14,4,1,0,1,0,0,0,0,1,0,circle,hexagon,,,,,,,,,,,,,,,,,,,,,,,,,,,,,,,,,,,,,,,,,,,,,,,,,,,,,,
296827,2022-09-26_24h47.42.735,vts_reward_expectancy,2022.2.4,MacIntel,60.0024001,Chrome,1680,1050,,,a,0.867,10,115,0,1,3,15,9,1,0,0,0,1,1,0,0,0,star,triangle,,,,,,,,,,,,,,,,,,,,,,,,,,,,,,,,,,,,,,,,,,,,,,,,,,,,,,
296827,2022-09-26_24h47.42.735,vts_reward_expectancy,2022.2.4,MacIntel,60.0024001,Chrome,1680,1050,,,a,0.8001,1,116,0,1,4,16,3,1,0,1,0,0,1,0,0,0,circle,triangle,,,,,,,,,,,,,,,,,,,,,,,,,,,,,,,,,,,,,,,,,,,,,,,,,,,,,,
296827,2022-09-26_24h47.42.735,vts_reward_expectancy,2022.2.4,MacIntel,60.0024001,Chrome,1680,1050,,,a,0.3308,10,126,0,1,5,17,1,1,1,0,0,0,0,0,1,0,triangle,hexagon,,,,,,,,,,,,,,,,,,,,,,,,,,,,,,,,,,,,,,,,,,,,,,,,,,,,,,
296827,2022-09-26_24h47.42.735,vts_reward_expectancy,2022.2.4,MacIntel,60.0024001,Chrome,1680,1050,,,l,0.3364,1,127,0,1,6,18,10,1,0,0,0,1,0,1,0,0,star ,circle,,,,,,,,,,,,,,,,,,,,,,,,,,,,,,,,,,,,,,,,,,,,,,,,,,,,,,
296827,2022-09-26_24h47.42.735,vts_reward_expectancy,2022.2.4,MacIntel,60.0024001,Chrome,1680,1050,,,a,0.3337,10,137,0,1,7,19,0,1,1,0,0,0,0,1,0,0,triangle,circle,,,,,,,,,,,,,,,,,,,,,,,,,,,,,,,,,,,,,,,,,,,,,,,,,,,,,,
296827,2022-09-26_24h47.42.735,vts_reward_expectancy,2022.2.4,MacIntel,60.0024001,Chrome,1680,1050,,,l,0.3167,10,147,0,1,8,20,5,1,0,1,0,0,0,0,0,1,circle,star,,,,,,,,,,,,,,,,,,,,,,,,,,,,,,,,,,,,,,,,,,,,,,,,,,,,,,
296827,2022-09-26_24h47.42.735,vts_reward_expectancy,2022.2.4,MacIntel,60.0024001,Chrome,1680,1050,,,a,0.2839,10,157,0,1,9,21,6,1,0,0,1,0,1,0,0,0,hexagon,triangle,,,,,,,,,,,,,,,,,,,,,,,,,,,,,,,,,,,,,,,,,,,,,,,,,,,,,,
296827,2022-09-26_24h47.42.735,vts_reward_expectancy,2022.2.4,MacIntel,60.0024001,Chrome,1680,1050,,,l,0.5174,1,158,0,1,10,22,2,1,1,0,0,0,0,0,0,1,triangle,star,,,,,,,,,,,,,,,,,,,,,,,,,,,,,,,,,,,,,,,,,,,,,,,,,,,,,,
296827,2022-09-26_24h47.42.735,vts_reward_expectancy,2022.2.4,MacIntel,60.0024001,Chrome,1680,1050,,,l,0.5156,10,168,0,1,11,23,11,1,0,0,0,1,0,0,1,0,star,hexagon,,,,,,,,,,,,,,,,,,,,,,,,,,,,,,,,,,,,,,,,,,,,,,,,,,,,,,
296827,2022-09-26_24h47.42.735,vts_reward_expectancy,2022.2.4,MacIntel,60.0024001,Chrome,1680,1050,,,a,0.4826,1,169,0,2,0,24,3,1,0,1,0,0,1,0,0,0,circle,triangle,,,,,,,,,,,,,,,,,,,,,,,,,,,,,,,,,,,,,,,,,,,,,,,,,,,,,,
296827,2022-09-26_24h47.42.735,vts_reward_expectancy,2022.2.4,MacIntel,60.0024001,Chrome,1680,1050,,,a,0.369,1,170,0,2,1,25,11,1,0,0,0,1,0,0,1,0,star,hexagon,,,,,,,,,,,,,,,,,,,,,,,,,,,,,,,,,,,,,,,,,,,,,,,,,,,,,,
296827,2022-09-26_24h47.42.735,vts_reward_expectancy,2022.2.4,MacIntel,60.0024001,Chrome,1680,1050,,,a,0.2688,1,171,0,2,2,26,8,1,0,0,1,0,0,0,0,1,hexagon,star,,,,,,,,,,,,,,,,,,,,,,,,,,,,,,,,,,,,,,,,,,,,,,,,,,,,,,
296827,2022-09-26_24h47.42.735,vts_reward_expectancy,2022.2.4,MacIntel,60.0024001,Chrome,1680,1050,,,a,0.2674,10,181,0,2,3,27,7,1,0,0,1,0,0,1,0,0,hexagon,circle,,,,,,,,,,,,,,,,,,,,,,,,,,,,,,,,,,,,,,,,,,,,,,,,,,,,,,
296827,2022-09-26_24h47.42.735,vts_reward_expectancy,2022.2.4,MacIntel,60.0024001,Chrome,1680,1050,,,a,0.7672,10,191,0,2,4,28,2,1,1,0,0,0,0,0,0,1,triangle,star,,,,,,,,,,,,,,,,,,,,,,,,,,,,,,,,,,,,,,,,,,,,,,,,,,,,,,
296827,2022-09-26_24h47.42.735,vts_reward_expectancy,2022.2.4,MacIntel,60.0024001,Chrome,1680,1050,,,l,0.3167,10,201,0,2,5,29,4,1,0,1,0,0,0,0,1,0,circle,hexagon,,,,,,,,,,,,,,,,,,,,,,,,,,,,,,,,,,,,,,,,,,,,,,,,,,,,,,
296827,2022-09-26_24h47.42.735,vts_reward_expectancy,2022.2.4,MacIntel,60.0024001,Chrome,1680,1050,,,l,0.2655,1,202,0,2,6,30,0,1,1,0,0,0,0,1,0,0,triangle,circle,,,,,,,,,,,,,,,,,,,,,,,,,,,,,,,,,,,,,,,,,,,,,,,,,,,,,,
296827,2022-09-26_24h47.42.735,vts_reward_expectancy,2022.2.4,MacIntel,60.0024001,Chrome,1680,1050,,,a,0.3854,10,212,0,2,7,31,1,1,1,0,0,0,0,0,1,0,triangle,hexagon,,,,,,,,,,,,,,,,,,,,,,,,,,,,,,,,,,,,,,,,,,,,,,,,,,,,,,
296827,2022-09-26_24h47.42.735,vts_reward_expectancy,2022.2.4,MacIntel,60.0024001,Chrome,1680,1050,,,l,0.364,10,222,0,2,8,32,9,1,0,0,0,1,1,0,0,0,star,triangle,,,,,,,,,,,,,,,,,,,,,,,,,,,,,,,,,,,,,,,,,,,,,,,,,,,,,,
296827,2022-09-26_24h47.42.735,vts_reward_expectancy,2022.2.4,MacIntel,60.0024001,Chrome,1680,1050,,,a,0.4331,10,232,0,2,9,33,10,1,0,0,0,1,0,1,0,0,star ,circle,,,,,,,,,,,,,,,,,,,,,,,,,,,,,,,,,,,,,,,,,,,,,,,,,,,,,,
296827,2022-09-26_24h47.42.735,vts_reward_expectancy,2022.2.4,MacIntel,60.0024001,Chrome,1680,1050,,,l,0.6337,10,242,0,2,10,34,5,1,0,1,0,0,0,0,0,1,circle,star,,,,,,,,,,,,,,,,,,,,,,,,,,,,,,,,,,,,,,,,,,,,,,,,,,,,,,
296827,2022-09-26_24h47.42.735,vts_reward_expectancy,2022.2.4,MacIntel,60.0024001,Chrome,1680,1050,,,a,0.5001,10,252,0,2,11,35,6,1,0,0,1,0,1,0,0,0,hexagon,triangle,,,,,,,,,,,,,,,,,,,,,,,,,,,,,,,,,,,,,,,,,,,,,,,,,,,,,,
296827,2022-09-26_24h47.42.735,vts_reward_expectancy,2022.2.4,MacIntel,60.0024001,Chrome,1680,1050,,,a,1.683,1,253,1,0,0,0,0,1,1,0,0,0,0,1,0,0,triangle,circle,,,,,,,,,,,,,,,,,,,,,,,,,,,,,,,,,,,,,,,,,,,,,,,,,,,,,,
296827,2022-09-26_24h47.42.735,vts_reward_expectancy,2022.2.4,MacIntel,60.0024001,Chrome,1680,1050,,,a,0.2698,1,254,1,0,1,1,10,1,0,0,0,1,0,1,0,0,star ,circle,,,,,,,,,,,,,,,,,,,,,,,,,,,,,,,,,,,,,,,,,,,,,,,,,,,,,,
296827,2022-09-26_24h47.42.735,vts_reward_expectancy,2022.2.4,MacIntel,60.0024001,Chrome,1680,1050,,,a,0.333,1,255,1,0,2,2,3,1,0,1,0,0,1,0,0,0,circle,triangle,,,,,,,,,,,,,,,,,,,,,,,,,,,,,,,,,,,,,,,,,,,,,,,,,,,,,,
296827,2022-09-26_24h47.42.735,vts_reward_expectancy,2022.2.4,MacIntel,60.0024001,Chrome,1680,1050,,,a,0.2665,10,265,1,0,3,3,1,1,1,0,0,0,0,0,1,0,triangle,hexagon,,,,,,,,,,,,,,,,,,,,,,,,,,,,,,,,,,,,,,,,,,,,,,,,,,,,,,
296827,2022-09-26_24h47.42.735,vts_reward_expectancy,2022.2.4,MacIntel,60.0024001,Chrome,1680,1050,,,a,0.3163,10,275,1,0,4,4,6,1,0,0,1,0,1,0,0,0,hexagon,triangle,,,,,,,,,,,,,,,,,,,,,,,,,,,,,,,,,,,,,,,,,,,,,,,,,,,,,,
296827,2022-09-26_24h47.42.735,vts_reward_expectancy,2022.2.4,MacIntel,60.0024001,Chrome,1680,1050,,,l,0.4176,1,276,1,0,5,5,2,1,1,0,0,0,0,0,0,1,triangle,star,,,,,,,,,,,,,,,,,,,,,,,,,,,,,,,,,,,,,,,,,,,,,,,,,,,,,,
296827,2022-09-26_24h47.42.735,vts_reward_expectancy,2022.2.4,MacIntel,60.0024001,Chrome,1680,1050,,,l,0.2348,1,277,1,0,6,6,4,1,0,1,0,0,0,0,1,0,circle,hexagon,,,,,,,,,,,,,,,,,,,,,,,,,,,,,,,,,,,,,,,,,,,,,,,,,,,,,,
296827,2022-09-26_24h47.42.735,vts_reward_expectancy,2022.2.4,MacIntel,60.0024001,Chrome,1680,1050,,,l,0.2839,10,287,1,0,7,7,11,1,0,0,0,1,0,0,1,0,star,hexagon,,,,,,,,,,,,,,,,,,,,,,,,,,,,,,,,,,,,,,,,,,,,,,,,,,,,,,
296827,2022-09-26_24h47.42.735,vts_reward_expectancy,2022.2.4,MacIntel,60.0024001,Chrome,1680,1050,,,a,0.3336,1,288,1,0,8,8,7,1,0,0,1,0,0,1,0,0,hexagon,circle,,,,,,,,,,,,,,,,,,,,,,,,,,,,,,,,,,,,,,,,,,,,,,,,,,,,,,
296827,2022-09-26_24h47.42.735,vts_reward_expectancy,2022.2.4,MacIntel,60.0024001,Chrome,1680,1050,,,a,0.2831,10,298,1,0,9,9,8,1,0,0,1,0,0,0,0,1,hexagon,star,,,,,,,,,,,,,,,,,,,,,,,,,,,,,,,,,,,,,,,,,,,,,,,,,,,,,,
296827,2022-09-26_24h47.42.735,vts_reward_expectancy,2022.2.4,MacIntel,60.0024001,Chrome,1680,1050,,,l,0.317,10,308,1,0,10,10,9,1,0,0,0,1,1,0,0,0,star,triangle,,,,,,,,,,,,,,,,,,,,,,,,,,,,,,,,,,,,,,,,,,,,,,,,,,,,,,
296827,2022-09-26_24h47.42.735,vts_reward_expectancy,2022.2.4,MacIntel,60.0024001,Chrome,1680,1050,,,a,0.3179,1,309,1,0,11,11,5,1,0,1,0,0,0,0,0,1,circle,star,,,,,,,,,,,,,,,,,,,,,,,,,,,,,,,,,,,,,,,,,,,,,,,,,,,,,,
296827,2022-09-26_24h47.42.735,vts_reward_expectancy,2022.2.4,MacIntel,60.0024001,Chrome,1680,1050,,,l,0.35,10,319,1,1,0,12,6,1,0,0,1,0,1,0,0,0,hexagon,triangle,,,,,,,,,,,,,,,,,,,,,,,,,,,,,,,,,,,,,,,,,,,,,,,,,,,,,,
296827,2022-09-26_24h47.42.735,vts_reward_expectancy,2022.2.4,MacIntel,60.0024001,Chrome,1680,1050,,,l,0.4498,10,329,1,1,1,13,9,1,0,0,0,1,1,0,0,0,star,triangle,,,,,,,,,,,,,,,,,,,,,,,,,,,,,,,,,,,,,,,,,,,,,,,,,,,,,,
296827,2022-09-26_24h47.42.735,vts_reward_expectancy,2022.2.4,MacIntel,60.0024001,Chrome,1680,1050,,,l,0.3671,1,330,1,1,2,14,10,1,0,0,0,1,0,1,0,0,star ,circle,,,,,,,,,,,,,,,,,,,,,,,,,,,,,,,,,,,,,,,,,,,,,,,,,,,,,,
296827,2022-09-26_24h47.42.735,vts_reward_expectancy,2022.2.4,MacIntel,60.0024001,Chrome,1680,1050,,,a,0.3665,1,331,1,1,3,15,4,1,0,1,0,0,0,0,1,0,circle,hexagon,,,,,,,,,,,,,,,,,,,,,,,,,,,,,,,,,,,,,,,,,,,,,,,,,,,,,,
296827,2022-09-26_24h47.42.735,vts_reward_expectancy,2022.2.4,MacIntel,60.0024001,Chrome,1680,1050,,,l,0.3179,10,341,1,1,4,16,11,1,0,0,0,1,0,0,1,0,star,hexagon,,,,,,,,,,,,,,,,,,,,,,,,,,,,,,,,,,,,,,,,,,,,,,,,,,,,,,
296827,2022-09-26_24h47.42.735,vts_reward_expectancy,2022.2.4,MacIntel,60.0024001,Chrome,1680,1050,,,a,0.4007,10,351,1,1,5,17,0,1,1,0,0,0,0,1,0,0,triangle,circle,,,,,,,,,,,,,,,,,,,,,,,,,,,,,,,,,,,,,,,,,,,,,,,,,,,,,,
296827,2022-09-26_24h47.42.735,vts_reward_expectancy,2022.2.4,MacIntel,60.0024001,Chrome,1680,1050,,,l,0.3027,10,361,1,1,6,18,5,1,0,1,0,0,0,0,0,1,circle,star,,,,,,,,,,,,,,,,,,,,,,,,,,,,,,,,,,,,,,,,,,,,,,,,,,,,,,
296827,2022-09-26_24h47.42.735,vts_reward_expectancy,2022.2.4,MacIntel,60.0024001,Chrome,1680,1050,,,l,0.2838,10,371,1,1,7,19,1,1,1,0,0,0,0,0,1,0,triangle,hexagon,,,,,,,,,,,,,,,,,,,,,,,,,,,,,,,,,,,,,,,,,,,,,,,,,,,,,,
296827,2022-09-26_24h47.42.735,vts_reward_expectancy,2022.2.4,MacIntel,60.0024001,Chrome,1680,1050,,,l,0.3836,1,372,1,1,8,20,7,1,0,0,1,0,0,1,0,0,hexagon,circle,,,,,,,,,,,,,,,,,,,,,,,,,,,,,,,,,,,,,,,,,,,,,,,,,,,,,,
296827,2022-09-26_24h47.42.735,vts_reward_expectancy,2022.2.4,MacIntel,60.0024001,Chrome,1680,1050,,,a,0.2669,1,373,1,1,9,21,8,1,0,0,1,0,0,0,0,1,hexagon,star,,,,,,,,,,,,,,,,,,,,,,,,,,,,,,,,,,,,,,,,,,,,,,,,,,,,,,
296827,2022-09-26_24h47.42.735,vts_reward_expectancy,2022.2.4,MacIntel,60.0024001,Chrome,1680,1050,,,l,0.2838,10,383,1,1,10,22,2,1,1,0,0,0,0,0,0,1,triangle,star,,,,,,,,,,,,,,,,,,,,,,,,,,,,,,,,,,,,,,,,,,,,,,,,,,,,,,
296827,2022-09-26_24h47.42.735,vts_reward_expectancy,2022.2.4,MacIntel,60.0024001,Chrome,1680,1050,,,l,0.6655,10,393,1,1,11,23,3,1,0,1,0,0,1,0,0,0,circle,triangle,,,,,,,,,,,,,,,,,,,,,,,,,,,,,,,,,,,,,,,,,,,,,,,,,,,,,,
296827,2022-09-26_24h47.42.735,vts_reward_expectancy,2022.2.4,MacIntel,60.0024001,Chrome,1680,1050,,,a,0.367,10,403,1,2,0,24,0,1,1,0,0,0,0,1,0,0,triangle,circle,,,,,,,,,,,,,,,,,,,,,,,,,,,,,,,,,,,,,,,,,,,,,,,,,,,,,,
296827,2022-09-26_24h47.42.735,vts_reward_expectancy,2022.2.4,MacIntel,60.0024001,Chrome,1680,1050,,,a,0.3666,1,404,1,2,1,25,1,1,1,0,0,0,0,0,1,0,triangle,hexagon,,,,,,,,,,,,,,,,,,,,,,,,,,,,,,,,,,,,,,,,,,,,,,,,,,,,,,
296827,2022-09-26_24h47.42.735,vts_reward_expectancy,2022.2.4,MacIntel,60.0024001,Chrome,1680,1050,,,l,0.3165,10,414,1,2,2,26,10,1,0,0,0,1,0,1,0,0,star ,circle,,,,,,,,,,,,,,,,,,,,,,,,,,,,,,,,,,,,,,,,,,,,,,,,,,,,,,
296827,2022-09-26_24h47.42.735,vts_reward_expectancy,2022.2.4,MacIntel,60.0024001,Chrome,1680,1050,,,a,0.817,10,424,1,2,3,27,2,1,1,0,0,0,0,0,0,1,triangle,star,,,,,,,,,,,,,,,,,,,,,,,,,,,,,,,,,,,,,,,,,,,,,,,,,,,,,,
296827,2022-09-26_24h47.42.735,vts_reward_expectancy,2022.2.4,MacIntel,60.0024001,Chrome,1680,1050,,,l,0.266,10,434,1,2,4,28,3,1,0,1,0,0,1,0,0,0,circle,triangle,,,,,,,,,,,,,,,,,,,,,,,,,,,,,,,,,,,,,,,,,,,,,,,,,,,,,,
296827,2022-09-26_24h47.42.735,vts_reward_expectancy,2022.2.4,MacIntel,60.0024001,Chrome,1680,1050,,,a,1.5002,1,435,1,2,5,29,11,1,0,0,0,1,0,0,1,0,star,hexagon,,,,,,,,,,,,,,,,,,,,,,,,,,,,,,,,,,,,,,,,,,,,,,,,,,,,,,
296827,2022-09-26_24h47.42.735,vts_reward_expectancy,2022.2.4,MacIntel,60.0024001,Chrome,1680,1050,,,l,0.2844,1,436,1,2,6,30,4,1,0,1,0,0,0,0,1,0,circle,hexagon,,,,,,,,,,,,,,,,,,,,,,,,,,,,,,,,,,,,,,,,,,,,,,,,,,,,,,
296827,2022-09-26_24h47.42.735,vts_reward_expectancy,2022.2.4,MacIntel,60.0024001,Chrome,1680,1050,,,l,0.3332,1,437,1,2,7,31,8,1,0,0,1,0,0,0,0,1,hexagon,star,,,,,,,,,,,,,,,,,,,,,,,,,,,,,,,,,,,,,,,,,,,,,,,,,,,,,,
296827,2022-09-26_24h47.42.735,vts_reward_expectancy,2022.2.4,MacIntel,60.0024001,Chrome,1680,1050,,,l,0.3004,10,447,1,2,8,32,6,1,0,0,1,0,1,0,0,0,hexagon,triangle,,,,,,,,,,,,,,,,,,,,,,,,,,,,,,,,,,,,,,,,,,,,,,,,,,,,,,
296827,2022-09-26_24h47.42.735,vts_reward_expectancy,2022.2.4,MacIntel,60.0024001,Chrome,1680,1050,,,a,0.2834,1,448,1,2,9,33,9,1,0,0,0,1,1,0,0,0,star,triangle,,,,,,,,,,,,,,,,,,,,,,,,,,,,,,,,,,,,,,,,,,,,,,,,,,,,,,
296827,2022-09-26_24h47.42.735,vts_reward_expectancy,2022.2.4,MacIntel,60.0024001,Chrome,1680,1050,,,l,0.3999,1,449,1,2,10,34,7,1,0,0,1,0,0,1,0,0,hexagon,circle,,,,,,,,,,,,,,,,,,,,,,,,,,,,,,,,,,,,,,,,,,,,,,,,,,,,,,
296827,2022-09-26_24h47.42.735,vts_reward_expectancy,2022.2.4,MacIntel,60.0024001,Chrome,1680,1050,,,l,0.2835,1,450,1,2,11,35,5,1,0,1,0,0,0,0,0,1,circle,star,,,,,,,,,,,,,,,,,,,,,,,,,,,,,,,,,,,,,,,,,,,,,,,,,,,,,,
296827,2022-09-26_24h47.42.735,vts_reward_expectancy,2022.2.4,MacIntel,60.0024001,Chrome,1680,1050,,,a,0.4006,1,451,2,0,0,0,3,1,0,1,0,0,1,0,0,0,circle,triangle,,,,,,,,,,,,,,,,,,,,,,,,,,,,,,,,,,,,,,,,,,,,,,,,,,,,,,
296827,2022-09-26_24h47.42.735,vts_reward_expectancy,2022.2.4,MacIntel,60.0024001,Chrome,1680,1050,,,l,0.317,10,461,2,0,1,1,7,1,0,0,1,0,0,1,0,0,hexagon,circle,,,,,,,,,,,,,,,,,,,,,,,,,,,,,,,,,,,,,,,,,,,,,,,,,,,,,,
296827,2022-09-26_24h47.42.735,vts_reward_expectancy,2022.2.4,MacIntel,60.0024001,Chrome,1680,1050,,,l,0.2834,1,462,2,0,2,2,10,1,0,0,0,1,0,1,0,0,star ,circle,,,,,,,,,,,,,,,,,,,,,,,,,,,,,,,,,,,,,,,,,,,,,,,,,,,,,,
296827,2022-09-26_24h47.42.735,vts_reward_expectancy,2022.2.4,MacIntel,60.0024001,Chrome,1680,1050,,,a,0.2834,10,472,2,0,3,3,0,1,1,0,0,0,0,1,0,0,triangle,circle,,,,,,,,,,,,,,,,,,,,,,,,,,,,,,,,,,,,,,,,,,,,,,,,,,,,,,
296827,2022-09-26_24h47.42.735,vts_reward_expectancy,2022.2.4,MacIntel,60.0024001,Chrome,1680,1050,,,a,0.3178,10,482,2,0,4,4,8,1,0,0,1,0,0,0,0,1,hexagon,star,,,,,,,,,,,,,,,,,,,,,,,,,,,,,,,,,,,,,,,,,,,,,,,,,,,,,,
296827,2022-09-26_24h47.42.735,vts_reward_expectancy,2022.2.4,MacIntel,60.0024001,Chrome,1680,1050,,,a,0.3842,10,492,2,0,5,5,2,1,1,0,0,0,0,0,0,1,triangle,star,,,,,,,,,,,,,,,,,,,,,,,,,,,,,,,,,,,,,,,,,,,,,,,,,,,,,,
296827,2022-09-26_24h47.42.735,vts_reward_expectancy,2022.2.4,MacIntel,60.0024001,Chrome,1680,1050,,,l,0.4172,10,502,2,0,6,6,11,1,0,0,0,1,0,0,1,0,star,hexagon,,,,,,,,,,,,,,,,,,,,,,,,,,,,,,,,,,,,,,,,,,,,,,,,,,,,,,
296827,2022-09-26_24h47.42.735,vts_reward_expectancy,2022.2.4,MacIntel,60.0024001,Chrome,1680,1050,,,a,0.2855,1,503,2,0,7,7,5,1,0,1,0,0,0,0,0,1,circle,star,,,,,,,,,,,,,,,,,,,,,,,,,,,,,,,,,,,,,,,,,,,,,,,,,,,,,,
296827,2022-09-26_24h47.42.735,vts_reward_expectancy,2022.2.4,MacIntel,60.0024001,Chrome,1680,1050,,,l,0.3651,1,504,2,0,8,8,4,1,0,1,0,0,0,0,1,0,circle,hexagon,,,,,,,,,,,,,,,,,,,,,,,,,,,,,,,,,,,,,,,,,,,,,,,,,,,,,,
296827,2022-09-26_24h47.42.735,vts_reward_expectancy,2022.2.4,MacIntel,60.0024001,Chrome,1680,1050,,,a,0.3004,10,514,2,0,9,9,1,1,1,0,0,0,0,0,1,0,triangle,hexagon,,,,,,,,,,,,,,,,,,,,,,,,,,,,,,,,,,,,,,,,,,,,,,,,,,,,,,
296827,2022-09-26_24h47.42.735,vts_reward_expectancy,2022.2.4,MacIntel,60.0024001,Chrome,1680,1050,,,a,0.5167,10,524,2,0,10,10,6,1,0,0,1,0,1,0,0,0,hexagon,triangle,,,,,,,,,,,,,,,,,,,,,,,,,,,,,,,,,,,,,,,,,,,,,,,,,,,,,,
296827,2022-09-26_24h47.42.735,vts_reward_expectancy,2022.2.4,MacIntel,60.0024001,Chrome,1680,1050,,,a,0.0838,10,534,2,0,11,11,9,1,0,0,0,1,1,0,0,0,star,triangle,,,,,,,,,,,,,,,,,,,,,,,,,,,,,,,,,,,,,,,,,,,,,,,,,,,,,,
296827,2022-09-26_24h47.42.735,vts_reward_expectancy,2022.2.4,MacIntel,60.0024001,Chrome,1680,1050,,,a,0.4687,1,535,2,1,0,12,8,1,0,0,1,0,0,0,0,1,hexagon,star,,,,,,,,,,,,,,,,,,,,,,,,,,,,,,,,,,,,,,,,,,,,,,,,,,,,,,
296827,2022-09-26_24h47.42.735,vts_reward_expectancy,2022.2.4,MacIntel,60.0024001,Chrome,1680,1050,,,l,18.2496,1,536,2,1,1,13,11,1,0,0,0,1,0,0,1,0,star,hexagon,,,,,,,,,,,,,,,,,,,,,,,,,,,,,,,,,,,,,,,,,,,,,,,,,,,,,,
296827,2022-09-26_24h47.42.735,vts_reward_expectancy,2022.2.4,MacIntel,60.0024001,Chrome,1680,1050,,,a,0.3174,1,537,2,1,2,14,5,1,0,1,0,0,0,0,0,1,circle,star,,,,,,,,,,,,,,,,,,,,,,,,,,,,,,,,,,,,,,,,,,,,,,,,,,,,,,
296827,2022-09-26_24h47.42.735,vts_reward_expectancy,2022.2.4,MacIntel,60.0024001,Chrome,1680,1050,,,l,0.5504,1,538,2,1,3,15,7,1,0,0,1,0,0,1,0,0,hexagon,circle,,,,,,,,,,,,,,,,,,,,,,,,,,,,,,,,,,,,,,,,,,,,,,,,,,,,,,
296827,2022-09-26_24h47.42.735,vts_reward_expectancy,2022.2.4,MacIntel,60.0024001,Chrome,1680,1050,,,a,0.8834,1,539,2,1,4,16,0,1,1,0,0,0,0,1,0,0,triangle,circle,,,,,,,,,,,,,,,,,,,,,,,,,,,,,,,,,,,,,,,,,,,,,,,,,,,,,,
296827,2022-09-26_24h47.42.735,vts_reward_expectancy,2022.2.4,MacIntel,60.0024001,Chrome,1680,1050,,,a,0.5367,10,549,2,1,5,17,1,1,1,0,0,0,0,0,1,0,triangle,hexagon,,,,,,,,,,,,,,,,,,,,,,,,,,,,,,,,,,,,,,,,,,,,,,,,,,,,,,
296827,2022-09-26_24h47.42.735,vts_reward_expectancy,2022.2.4,MacIntel,60.0024001,Chrome,1680,1050,,,a,0.3002,1,550,2,1,6,18,6,1,0,0,1,0,1,0,0,0,hexagon,triangle,,,,,,,,,,,,,,,,,,,,,,,,,,,,,,,,,,,,,,,,,,,,,,,,,,,,,,
296827,2022-09-26_24h47.42.735,vts_reward_expectancy,2022.2.4,MacIntel,60.0024001,Chrome,1680,1050,,,l,0.2832,1,551,2,1,7,19,10,1,0,0,0,1,0,1,0,0,star ,circle,,,,,,,,,,,,,,,,,,,,,,,,,,,,,,,,,,,,,,,,,,,,,,,,,,,,,,
296827,2022-09-26_24h47.42.735,vts_reward_expectancy,2022.2.4,MacIntel,60.0024001,Chrome,1680,1050,,,a,9.2673,10,561,2,1,8,20,2,1,1,0,0,0,0,0,0,1,triangle,star,,,,,,,,,,,,,,,,,,,,,,,,,,,,,,,,,,,,,,,,,,,,,,,,,,,,,,
296827,2022-09-26_24h47.42.735,vts_reward_expectancy,2022.2.4,MacIntel,60.0024001,Chrome,1680,1050,,,l,1.2671,10,571,2,1,9,21,3,1,0,1,0,0,1,0,0,0,circle,triangle,,,,,,,,,,,,,,,,,,,,,,,,,,,,,,,,,,,,,,,,,,,,,,,,,,,,,,
296827,2022-09-26_24h47.42.735,vts_reward_expectancy,2022.2.4,MacIntel,60.0024001,Chrome,1680,1050,,,l,0.4501,1,572,2,1,10,22,4,1,0,1,0,0,0,0,1,0,circle,hexagon,,,,,,,,,,,,,,,,,,,,,,,,,,,,,,,,,,,,,,,,,,,,,,,,,,,,,,
296827,2022-09-26_24h47.42.735,vts_reward_expectancy,2022.2.4,MacIntel,60.0024001,Chrome,1680,1050,,,a,0.4339,1,573,2,1,11,23,9,1,0,0,0,1,1,0,0,0,star,triangle,,,,,,,,,,,,,,,,,,,,,,,,,,,,,,,,,,,,,,,,,,,,,,,,,,,,,,
296827,2022-09-26_24h47.42.735,vts_reward_expectancy,2022.2.4,MacIntel,60.0024001,Chrome,1680,1050,,,a,0.5029,10,583,2,2,0,24,2,1,1,0,0,0,0,0,0,1,triangle,star,,,,,,,,,,,,,,,,,,,,,,,,,,,,,,,,,,,,,,,,,,,,,,,,,,,,,,
296827,2022-09-26_24h47.42.735,vts_reward_expectancy,2022.2.4,MacIntel,60.0024001,Chrome,1680,1050,,,a,0.5353,10,593,2,2,1,25,7,1,0,0,1,0,0,1,0,0,hexagon,circle,,,,,,,,,,,,,,,,,,,,,,,,,,,,,,,,,,,,,,,,,,,,,,,,,,,,,,
296827,2022-09-26_24h47.42.735,vts_reward_expectancy,2022.2.4,MacIntel,60.0024001,Chrome,1680,1050,,,l,0.6841,10,603,2,2,2,26,5,1,0,1,0,0,0,0,0,1,circle,star,,,,,,,,,,,,,,,,,,,,,,,,,,,,,,,,,,,,,,,,,,,,,,,,,,,,,,
296827,2022-09-26_24h47.42.735,vts_reward_expectancy,2022.2.4,MacIntel,60.0024001,Chrome,1680,1050,,,a,1.1826,1,604,2,2,3,27,4,1,0,1,0,0,0,0,1,0,circle,hexagon,,,,,,,,,,,,,,,,,,,,,,,,,,,,,,,,,,,,,,,,,,,,,,,,,,,,,,
296827,2022-09-26_24h47.42.735,vts_reward_expectancy,2022.2.4,MacIntel,60.0024001,Chrome,1680,1050,,,a,0.3853,1,605,2,2,4,28,10,1,0,0,0,1,0,1,0,0,star ,circle,,,,,,,,,,,,,,,,,,,,,,,,,,,,,,,,,,,,,,,,,,,,,,,,,,,,,,
296827,2022-09-26_24h47.42.735,vts_reward_expectancy,2022.2.4,MacIntel,60.0024001,Chrome,1680,1050,,,a,0.8337,1,606,2,2,5,29,9,1,0,0,0,1,1,0,0,0,star,triangle,,,,,,,,,,,,,,,,,,,,,,,,,,,,,,,,,,,,,,,,,,,,,,,,,,,,,,
296827,2022-09-26_24h47.42.735,vts_reward_expectancy,2022.2.4,MacIntel,60.0024001,Chrome,1680,1050,,,a,1.1836,10,616,2,2,6,30,6,1,0,0,1,0,1,0,0,0,hexagon,triangle,,,,,,,,,,,,,,,,,,,,,,,,,,,,,,,,,,,,,,,,,,,,,,,,,,,,,,
296827,2022-09-26_24h47.42.735,vts_reward_expectancy,2022.2.4,MacIntel,60.0024001,Chrome,1680,1050,,,l,7.6488,10,626,2,2,7,31,3,1,0,1,0,0,1,0,0,0,circle,triangle,,,,,,,,,,,,,,,,,,,,,,,,,,,,,,,,,,,,,,,,,,,,,,,,,,,,,,
296827,2022-09-26_24h47.42.735,vts_reward_expectancy,2022.2.4,MacIntel,60.0024001,Chrome,1680,1050,,,a,1.5974,10,636,2,2,8,32,11,1,0,0,0,1,0,0,1,0,star,hexagon,,,,,,,,,,,,,,,,,,,,,,,,,,,,,,,,,,,,,,,,,,,,,,,,,,,,,,
296827,2022-09-26_24h47.42.735,vts_reward_expectancy,2022.2.4,MacIntel,60.0024001,Chrome,1680,1050,,,l,2.8015,1,637,2,2,9,33,0,1,1,0,0,0,0,1,0,0,triangle,circle,,,,,,,,,,,,,,,,,,,,,,,,,,,,,,,,,,,,,,,,,,,,,,,,,,,,,,
296827,2022-09-26_24h47.42.735,vts_reward_expectancy,2022.2.4,MacIntel,60.0024001,Chrome,1680,1050,,,l,0.3836,1,638,2,2,10,34,8,1,0,0,1,0,0,0,0,1,hexagon,star,,,,,,,,,,,,,,,,,,,,,,,,,,,,,,,,,,,,,,,,,,,,,,,,,,,,,,
296827,2022-09-26_24h47.42.735,vts_reward_expectancy,2022.2.4,MacIntel,60.0024001,Chrome,1680,1050,,,l,0.3833,10,648,2,2,11,35,1,1,1,0,0,0,0,0,1,0,triangle,hexagon,,,,,,,,,,,,,,,,,,,,,,,,,,,,,,,,,,,,,,,,,,,,,,,,,,,,,,
296827,2022-09-26_24h47.42.735,vts_reward_expectancy,2022.2.4,MacIntel,60.0024001,Chrome,1680,1050,,,,,,,,,,,,,,,,,,,,,,,H,167,star,1,0,d,1.8319,0,0,0,0,0,1,,,,,,,,,,,,,,,,,,,,,,,,,,,,,,,,,,,,,,,,,
296827,2022-09-26_24h47.42.735,vts_reward_expectancy,2022.2.4,MacIntel,60.0024001,Chrome,1680,1050,,,,,,,,,,,,,,,,,,,,,,,F,125,triangle,1,0,d,0.7812,0,1,0,1,0,1,,,,,,,,,,,,,,,,,,,,,,,,,,,,,,,,,,,,,,,,,
296827,2022-09-26_24h47.42.735,vts_reward_expectancy,2022.2.4,MacIntel,60.0024001,Chrome,1680,1050,,,,,,,,,,,,,,,,,,,,,,,U,139,hexagon,1,0,f,1.216,0,2,0,2,0,1,,,,,,,,,,,,,,,,,,,,,,,,,,,,,,,,,,,,,,,,,
296827,2022-09-26_24h47.42.735,vts_reward_expectancy,2022.2.4,MacIntel,60.0024001,Chrome,1680,1050,,,,,,,,,,,,,,,,,,,,,,,D,174,circle,1,0,d,0.5649,0,3,0,3,0,1,,,,,,,,,,,,,,,,,,,,,,,,,,,,,,,,,,,,,,,,,
296827,2022-09-26_24h47.42.735,vts_reward_expectancy,2022.2.4,MacIntel,60.0024001,Chrome,1680,1050,,,,,,,,,,,,,,,,,,,,,,,B,181,star,1,0,d,0.7316,0,4,0,4,0,1,,,,,,,,,,,,,,,,,,,,,,,,,,,,,,,,,,,,,,,,,
296827,2022-09-26_24h47.42.735,vts_reward_expectancy,2022.2.4,MacIntel,60.0024001,Chrome,1680,1050,,,,,,,,,,,,,,,,,,,,,,,W,160,triangle,1,0,f,0.5841,0,5,0,5,0,1,,,,,,,,,,,,,,,,,,,,,,,,,,,,,,,,,,,,,,,,,
296827,2022-09-26_24h47.42.735,vts_reward_expectancy,2022.2.4,MacIntel,60.0024001,Chrome,1680,1050,,,,,,,,,,,,,,,,,,,,,,,Y,146,hexagon,1,0,f,0.5483,0,6,0,6,0,1,,,,,,,,,,,,,,,,,,,,,,,,,,,,,,,,,,,,,,,,,
296827,2022-09-26_24h47.42.735,vts_reward_expectancy,2022.2.4,MacIntel,60.0024001,Chrome,1680,1050,,,,,,,,,,,,,,,,,,,,,,,S,132,circle,1,0,f,0.6669,0,7,0,7,0,1,,,,,,,,,,,,,,,,,,,,,,,,,,,,,,,,,,,,,,,,,
296827,2022-09-26_24h47.42.735,vts_reward_expectancy,2022.2.4,MacIntel,60.0024001,Chrome,1680,1050,,,,,,,,,,,,,,,,,,,,,,,H,167,triangle,1,0,d,0.7155,0,8,0,8,0,1,,,,,,,,,,,,,,,,,,,,,,,,,,,,,,,,,,,,,,,,,
296827,2022-09-26_24h47.42.735,vts_reward_expectancy,2022.2.4,MacIntel,60.0024001,Chrome,1680,1050,,,,,,,,,,,,,,,,,,,,,,,F,125,circle,1,0,d,0.6834,0,9,0,9,0,1,,,,,,,,,,,,,,,,,,,,,,,,,,,,,,,,,,,,,,,,,
296827,2022-09-26_24h47.42.735,vts_reward_expectancy,2022.2.4,MacIntel,60.0024001,Chrome,1680,1050,,,,,,,,,,,,,,,,,,,,,,,W,160,star,1,0,,,1,,,,,,k,0.7156,0,0,0,0,1,,,,,,,,,,,,,,,,,,,,,,,,,,,,,,,,,,
296827,2022-09-26_24h47.42.735,vts_reward_expectancy,2022.2.4,MacIntel,60.0024001,Chrome,1680,1050,,,,,,,,,,,,,,,,,,,,,,,U,139,hexagon,1,0,,,1,,,,,,j,0.882,1,0,1,0,1,,,,,,,,,,,,,,,,,,,,,,,,,,,,,,,,,,
296827,2022-09-26_24h47.42.735,vts_reward_expectancy,2022.2.4,MacIntel,60.0024001,Chrome,1680,1050,,,,,,,,,,,,,,,,,,,,,,,S,146,triangle,0,0,,,1,,,,,,k,0.7821,2,0,2,0,1,,,,,,,,,,,,,,,,,,,,,,,,,,,,,,,,,,
296827,2022-09-26_24h47.42.735,vts_reward_expectancy,2022.2.4,MacIntel,60.0024001,Chrome,1680,1050,,,,,,,,,,,,,,,,,,,,,,,Y,132,circle,1,1,,,1,,,,,,j,0.6157,3,0,3,0,1,,,,,,,,,,,,,,,,,,,,,,,,,,,,,,,,,,
296827,2022-09-26_24h47.42.735,vts_reward_expectancy,2022.2.4,MacIntel,60.0024001,Chrome,1680,1050,,,,,,,,,,,,,,,,,,,,,,,D,125,star,1,0,,,1,,,,,,j,0.5171,4,0,4,0,1,,,,,,,,,,,,,,,,,,,,,,,,,,,,,,,,,,
296827,2022-09-26_24h47.42.735,vts_reward_expectancy,2022.2.4,MacIntel,60.0024001,Chrome,1680,1050,,,,,,,,,,,,,,,,,,,,,,,H,181,hexagon,1,0,,,1,,,,,,k,0.5672,5,0,5,0,1,,,,,,,,,,,,,,,,,,,,,,,,,,,,,,,,,,
296827,2022-09-26_24h47.42.735,vts_reward_expectancy,2022.2.4,MacIntel,60.0024001,Chrome,1680,1050,,,,,,,,,,,,,,,,,,,,,,,F,174,triangle,1,0,,,1,,,,,,k,0.5158,6,0,6,0,1,,,,,,,,,,,,,,,,,,,,,,,,,,,,,,,,,,
296827,2022-09-26_24h47.42.735,vts_reward_expectancy,2022.2.4,MacIntel,60.0024001,Chrome,1680,1050,,,,,,,,,,,,,,,,,,,,,,,B,167,circle,1,0,,,1,,,,,,k,0.8493,7,0,7,0,1,,,,,,,,,,,,,,,,,,,,,,,,,,,,,,,,,,
296827,2022-09-26_24h47.42.735,vts_reward_expectancy,2022.2.4,MacIntel,60.0024001,Chrome,1680,1050,,,,,,,,,,,,,,,,,,,,,,,W,160,star,1,0,,,1,,,,,,k,0.5151,8,0,8,0,1,,,,,,,,,,,,,,,,,,,,,,,,,,,,,,,,,,
296827,2022-09-26_24h47.42.735,vts_reward_expectancy,2022.2.4,MacIntel,60.0024001,Chrome,1680,1050,,,,,,,,,,,,,,,,,,,,,,,U,139,triangle,1,0,,,1,,,,,,j,0.7817,9,0,9,0,1,,,,,,,,,,,,,,,,,,,,,,,,,,,,,,,,,,
296827,2022-09-26_24h47.42.735,vts_reward_expectancy,2022.2.4,MacIntel,60.0024001,Chrome,1680,1050,,,,,0,648,,,,,,,,,,,,,,,,,S,167,hexagon,1,0,,,2,,,,,,,,,,,,,-1,letter,NA,f,2.8448,vtsPrac,0,0,0,0,1,,,,,,,,,,,,,,,,,,,,,,,
296827,2022-09-26_24h47.42.735,vts_reward_expectancy,2022.2.4,MacIntel,60.0024001,Chrome,1680,1050,,,,,0,648,,,,,,,,,,,,,,,,,Y,125,circle,1,0,,,2,,,,,,,,,,,,,repeat,letter,lettRpt,f,1.2158,vtsPrac,1,0,1,0,1,,,,,,,,,,,,,,,,,,,,,,,
296827,2022-09-26_24h47.42.735,vts_reward_expectancy,2022.2.4,MacIntel,60.0024001,Chrome,1680,1050,,,,,0,648,,,,,,,,,,,,,,,,,H,174,hexagon,0,0,,,2,,,,,,,,,,,,,repeat,letter,NA,f,0.8991,vtsPrac,2,0,2,0,1,,,,,,,,,,,,,,,,,,,,,,,
296827,2022-09-26_24h47.42.735,vts_reward_expectancy,2022.2.4,MacIntel,60.0024001,Chrome,1680,1050,,,,,0,648,,,,,,,,,,,,,,,,,F,146,circle,1,1,,,2,,,,,,,,,,,,,switch,number,numSwt,j,0.9481,vtsPrac,3,0,3,0,1,,,,,,,,,,,,,,,,,,,,,,,
296827,2022-09-26_24h47.42.735,vts_reward_expectancy,2022.2.4,MacIntel,60.0024001,Chrome,1680,1050,,,,,0,648,,,,,,,,,,,,,,,,,S,167,circle,1,0,,,2,,,,,,,,,,,,,repeat,number,numRpt,k,0.8668,vtsPrac,4,0,4,0,1,,,,,,,,,,,,,,,,,,,,,,,
296827,2022-09-26_24h47.42.735,vts_reward_expectancy,2022.2.4,MacIntel,60.0024001,Chrome,1680,1050,,,,,0,648,,,,,,,,,,,,,,,,,Y,125,star,1,0,,,2,,,,,,,,,,,,,repeat,number,numRpt,j,1.0332,vtsPrac,5,0,5,0,1,,,,,,,,,,,,,,,,,,,,,,,
296827,2022-09-26_24h47.42.735,vts_reward_expectancy,2022.2.4,MacIntel,60.0024001,Chrome,1680,1050,,,,,0,648,,,,,,,,,,,,,,,,,H,174,circle,1,0,,,2,,,,,,,,,,,,,repeat,number,numRpt,k,2.4165,vtsPrac,6,0,6,0,1,,,,,,,,,,,,,,,,,,,,,,,
296827,2022-09-26_24h47.42.735,vts_reward_expectancy,2022.2.4,MacIntel,60.0024001,Chrome,1680,1050,,,,,0,648,,,,,,,,,,,,,,,,,F,146,star,1,0,,,2,,,,,,,,,,,,,repeat,number,numRpt,j,0.5323,vtsPrac,7,0,7,0,1,,,,,,,,,,,,,,,,,,,,,,,
296827,2022-09-26_24h47.42.735,vts_reward_expectancy,2022.2.4,MacIntel,60.0024001,Chrome,1680,1050,,,,,0,648,,,,,,,,,,,,,,,,,D,174,circle,1,0,,,2,,,,,,,,,,,,,switch,letter,lettSwt,d,0.6164,vtsPrac,8,0,8,0,1,,,,,,,,,,,,,,,,,,,,,,,
296827,2022-09-26_24h47.42.735,vts_reward_expectancy,2022.2.4,MacIntel,60.0024001,Chrome,1680,1050,,,,,0,648,,,,,,,,,,,,,,,,,H,146,hexagon,0,0,,,2,,,,,,,,,,,,,repeat,letter,NA,f,0.5646,vtsPrac,9,0,9,0,1,,,,,,,,,,,,,,,,,,,,,,,
296827,2022-09-26_24h47.42.735,vts_reward_expectancy,2022.2.4,MacIntel,60.0024001,Chrome,1680,1050,,,,,0,648,,,,,,,,,,,,,,,,,S,160,triangle,1,1,,,2,,,,,,,,,,,,,repeat,letter,lettRpt,f,0.8342,vtsPrac,10,0,10,0,1,,,,,,,,,,,,,,,,,,,,,,,
296827,2022-09-26_24h47.42.735,vts_reward_expectancy,2022.2.4,MacIntel,60.0024001,Chrome,1680,1050,,,,,0,648,,,,,,,,,,,,,,,,,Y,139,circle,1,0,,,2,,,,,,,,,,,,,repeat,letter,lettRpt,f,2.7282,vtsPrac,11,0,11,0,1,,,,,,,,,,,,,,,,,,,,,,,
296827,2022-09-26_24h47.42.735,vts_reward_expectancy,2022.2.4,MacIntel,60.0024001,Chrome,1680,1050,,,,,0,648,,,,,,,,,,,,,,,,,B,181,circle,1,0,,,2,,,,,,,,,,,,,repeat,letter,lettRpt,d,0.7655,vtsPrac,12,0,12,0,1,,,,,,,,,,,,,,,,,,,,,,,
296827,2022-09-26_24h47.42.735,vts_reward_expectancy,2022.2.4,MacIntel,60.0024001,Chrome,1680,1050,,,,,0,648,,,,,,,,,,,,,,,,,U,139,hexagon,1,0,,,2,,,,,,,,,,,,,repeat,letter,lettRpt,f,0.9654,vtsPrac,13,0,13,0,1,,,,,,,,,,,,,,,,,,,,,,,
296827,2022-09-26_24h47.42.735,vts_reward_expectancy,2022.2.4,MacIntel,60.0024001,Chrome,1680,1050,,,,,0,648,,,,,,,,,,,,,,,,,D,160,star,1,0,,,2,,,,,,,,,,,,,repeat,letter,lettRpt,d,0.5827,vtsPrac,14,0,14,0,1,,,,,,,,,,,,,,,,,,,,,,,
296827,2022-09-26_24h47.42.735,vts_reward_expectancy,2022.2.4,MacIntel,60.0024001,Chrome,1680,1050,,,,,0,648,,,,,,,,,,,,,,,,,H,146,circle,1,0,,,2,,,,,,,,,,,,,repeat,letter,lettRpt,d,0.6834,vtsPrac,15,0,15,0,1,,,,,,,,,,,,,,,,,,,,,,,
296827,2022-09-26_24h47.42.735,vts_reward_expectancy,2022.2.4,MacIntel,60.0024001,Chrome,1680,1050,,,,,0,648,,,,,,,,,,,,,,,,,D,167,triangle,1,0,,,3,,,,,,,,,,,,,repeat,letter,lettRpt,d,0.9488,vtsPrac,0,0,0,0,1,,,,,,,,,,,,,,,,,,,,,,,
296827,2022-09-26_24h47.42.735,vts_reward_expectancy,2022.2.4,MacIntel,60.0024001,Chrome,1680,1050,,,,,0,648,,,,,,,,,,,,,,,,,F,125,hexagon,1,0,,,3,,,,,,,,,,,,,switch,number,numSwt,j,0.7987,vtsPrac,1,0,1,0,1,,,,,,,,,,,,,,,,,,,,,,,
296827,2022-09-26_24h47.42.735,vts_reward_expectancy,2022.2.4,MacIntel,60.0024001,Chrome,1680,1050,,,,,0,648,,,,,,,,,,,,,,,,,B,181,triangle,1,0,,,3,,,,,,,,,,,,,repeat,number,numRpt,k,0.5664,vtsPrac,2,0,2,0,1,,,,,,,,,,,,,,,,,,,,,,,
296827,2022-09-26_24h47.42.735,vts_reward_expectancy,2022.2.4,MacIntel,60.0024001,Chrome,1680,1050,,,,,0,648,,,,,,,,,,,,,,,,,S,160,hexagon,1,0,,,3,,,,,,,,,,,,,switch,letter,lettSwt,f,1.4164,vtsPrac,3,0,3,0,1,,,,,,,,,,,,,,,,,,,,,,,
296827,2022-09-26_24h47.42.735,vts_reward_expectancy,2022.2.4,MacIntel,60.0024001,Chrome,1680,1050,,,,,0,648,,,,,,,,,,,,,,,,,D,167,star,1,0,,,3,,,,,,,,,,,,,switch,number,numSwt,k,0.8318,vtsPrac,4,0,4,0,1,,,,,,,,,,,,,,,,,,,,,,,
296827,2022-09-26_24h47.42.735,vts_reward_expectancy,2022.2.4,MacIntel,60.0024001,Chrome,1680,1050,,,,,0,648,,,,,,,,,,,,,,,,,F,125,triangle,1,0,,,3,,,,,,,,,,,,,switch,letter,lettSwt,d,0.6491,vtsPrac,5,0,5,0,1,,,,,,,,,,,,,,,,,,,,,,,
296827,2022-09-26_24h47.42.735,vts_reward_expectancy,2022.2.4,MacIntel,60.0024001,Chrome,1680,1050,,,,,0,648,,,,,,,,,,,,,,,,,B,181,triangle,1,0,,,3,,,,,,,,,,,,,repeat,letter,lettRpt,d,0.7798,vtsPrac,6,0,6,0,1,,,,,,,,,,,,,,,,,,,,,,,
296827,2022-09-26_24h47.42.735,vts_reward_expectancy,2022.2.4,MacIntel,60.0024001,Chrome,1680,1050,,,,,0,648,,,,,,,,,,,,,,,,,S,160,circle,-1,0,,,3,,,,,,,,,,,,,switch,no_choice,NA,,,vtsPrac,7,0,7,0,1,,,,,,,,,,,,,,,,,,,,,,,
296827,2022-09-26_24h47.42.735,vts_reward_expectancy,2022.2.4,MacIntel,60.0024001,Chrome,1680,1050,,,,,0,648,,,,,,,,,,,,,,,,,H,139,triangle,1,0,,,3,,,,,,,,,,,,,switch,number,numSwt,j,0.5821,vtsPrac,8,0,8,0,1,,,,,,,,,,,,,,,,,,,,,,,
296827,2022-09-26_24h47.42.735,vts_reward_expectancy,2022.2.4,MacIntel,60.0024001,Chrome,1680,1050,,,,,0,648,,,,,,,,,,,,,,,,,B,125,circle,1,0,,,3,,,,,,,,,,,,,repeat,number,numRpt,j,0.7974,vtsPrac,9,0,9,0,1,,,,,,,,,,,,,,,,,,,,,,,
296827,2022-09-26_24h47.42.735,vts_reward_expectancy,2022.2.4,MacIntel,60.0024001,Chrome,1680,1050,,,,,0,648,,,,,,,,,,,,,,,,,F,167,circle,1,0,,,3,,,,,,,,,,,,,switch,letter,lettSwt,d,0.5654,vtsPrac,10,0,10,0,1,,,,,,,,,,,,,,,,,,,,,,,
296827,2022-09-26_24h47.42.735,vts_reward_expectancy,2022.2.4,MacIntel,60.0024001,Chrome,1680,1050,,,,,0,648,,,,,,,,,,,,,,,,,Y,146,hexagon,1,0,,,3,,,,,,,,,,,,,repeat,letter,lettRpt,f,0.5469,vtsPrac,11,0,11,0,1,,,,,,,,,,,,,,,,,,,,,,,
296827,2022-09-26_24h47.42.735,vts_reward_expectancy,2022.2.4,MacIntel,60.0024001,Chrome,1680,1050,,,,,0,648,,,,,,,,,,,,,,,,,W,174,hexagon,1,0,,,3,,,,,,,,,,,,,repeat,letter,lettRpt,f,0.9157,vtsPrac,12,0,12,0,1,,,,,,,,,,,,,,,,,,,,,,,
296827,2022-09-26_24h47.42.735,vts_reward_expectancy,2022.2.4,MacIntel,60.0024001,Chrome,1680,1050,,,,,0,648,,,,,,,,,,,,,,,,,Y,146,star,1,0,,,3,,,,,,,,,,,,,repeat,letter,lettRpt,f,0.7986,vtsPrac,13,0,13,0,1,,,,,,,,,,,,,,,,,,,,,,,
296827,2022-09-26_24h47.42.735,vts_reward_expectancy,2022.2.4,MacIntel,60.0024001,Chrome,1680,1050,,,,,0,648,,,,,,,,,,,,,,,,,S,181,circle,1,0,,,3,,,,,,,,,,,,,switch,number,numSwt,k,1.4488,vtsPrac,14,0,14,0,1,,,,,,,,,,,,,,,,,,,,,,,
296827,2022-09-26_24h47.42.735,vts_reward_expectancy,2022.2.4,MacIntel,60.0024001,Chrome,1680,1050,,,,,0,648,,,,,,,,,,,,,,,,,H,132,star,1,0,,,3,,,,,,,,,,,,,repeat,number,numRpt,j,0.8823,vtsPrac,15,0,15,0,1,,,,,,,,,,,,,,,,,,,,,,,
296827,2022-09-26_24h47.42.735,vts_reward_expectancy,2022.2.4,MacIntel,60.0024001,Chrome,1680,1050,,,,,,,,,,,,,,,,,,,,,,,,,,,,,,,,,,,,,,,,,,,,,,,,,,,,,,,,,,,,,,,,,,,,,,,,,,,,
296827,2022-09-26_24h47.42.735,vts_reward_expectancy,2022.2.4,MacIntel,60.0024001,Chrome,1680,1050,,,,,,,,,,,,,,,,,,,,,,,,,,,,,,,,,,,,,,,,,,,,,,,,,,,,,,,,,,,,,,,,,,,,,,,,,,,,
296827,2022-09-26_24h47.42.735,vts_reward_expectancy,2022.2.4,MacIntel,60.0024001,Chrome,1680,1050,,,,,0,648,,,,,,,,,,,,,,,,,U,139,hexagon,1,0,,,,,,,,,,,,,,,,switch,letter,lettSwt,f,1.5651,noRew,,,,,,0,0,0,0,0,1,,,,,,,,,,,,,,,,,
296827,2022-09-26_24h47.42.735,vts_reward_expectancy,2022.2.4,MacIntel,60.0024001,Chrome,1680,1050,,,,,0,648,,,,,,,,,,,,,,,,,H,167,circle,1,0,,,,,,,,,,,,,,,,repeat,letter,lettRpt,d,0.6497,noRew,,,,,,0,1,0,1,0,1,,,,,,,,,,,,,,,,,
296827,2022-09-26_24h47.42.735,vts_reward_expectancy,2022.2.4,MacIntel,60.0024001,Chrome,1680,1050,,,,,0,648,,,,,,,,,,,,,,,,,Y,132,hexagon,1,0,,,,,,,,,,,,,,,,switch,number,numSwt,j,1.1339,noRew,,,,,,0,2,0,2,0,1,,,,,,,,,,,,,,,,,
296827,2022-09-26_24h47.42.735,vts_reward_expectancy,2022.2.4,MacIntel,60.0024001,Chrome,1680,1050,,,,,0,648,,,,,,,,,,,,,,,,,F,181,circle,1,0,,,,,,,,,,,,,,,,repeat,number,numRpt,k,0.699,noRew,,,,,,0,3,0,3,0,1,,,,,,,,,,,,,,,,,
296827,2022-09-26_24h47.42.735,vts_reward_expectancy,2022.2.4,MacIntel,60.0024001,Chrome,1680,1050,,,,,0,648,,,,,,,,,,,,,,,,,U,139,triangle,1,0,,,,,,,,,,,,,,,,switch,letter,lettSwt,f,0.984,noRew,,,,,,0,4,0,4,0,1,,,,,,,,,,,,,,,,,
296827,2022-09-26_24h47.42.735,vts_reward_expectancy,2022.2.4,MacIntel,60.0024001,Chrome,1680,1050,,,,,0,648,,,,,,,,,,,,,,,,,H,167,star,1,0,,,,,,,,,,,,,,,,repeat,letter,lettRpt,d,0.7491,noRew,,,,,,0,5,0,5,0,1,,,,,,,,,,,,,,,,,
296827,2022-09-26_24h47.42.735,vts_reward_expectancy,2022.2.4,MacIntel,60.0024001,Chrome,1680,1050,,,,,0,648,,,,,,,,,,,,,,,,,Y,132,circle,1,0,,,,,,,,,,,,,,,,switch,number,numSwt,j,1.2843,noRew,,,,,,0,6,0,6,0,1,,,,,,,,,,,,,,,,,
296827,2022-09-26_24h47.42.735,vts_reward_expectancy,2022.2.4,MacIntel,60.0024001,Chrome,1680,1050,,,,,0,648,,,,,,,,,,,,,,,,,F,181,hexagon,1,0,,,,,,,,,,,,,,,,repeat,number,numRpt,k,0.7178,noRew,,,,,,0,7,0,7,0,1,,,,,,,,,,,,,,,,,
296827,2022-09-26_24h47.42.735,vts_reward_expectancy,2022.2.4,MacIntel,60.0024001,Chrome,1680,1050,,,,,0,648,,,,,,,,,,,,,,,,,S,139,hexagon,0,0,,,,,,,,,,,,,,,,switch,letter,NA,d,0.8478,noRew,,,,,,0,8,0,8,0,1,,,,,,,,,,,,,,,,,
296827,2022-09-26_24h47.42.735,vts_reward_expectancy,2022.2.4,MacIntel,60.0024001,Chrome,1680,1050,,,,,0,648,,,,,,,,,,,,,,,,,F,160,circle,1,1,,,,,,,,,,,,,,,,repeat,letter,lettRpt,d,0.6714,noRew,,,,,,0,9,0,9,0,1,,,,,,,,,,,,,,,,,
296827,2022-09-26_24h47.42.735,vts_reward_expectancy,2022.2.4,MacIntel,60.0024001,Chrome,1680,1050,,,,,0,648,,,,,,,,,,,,,,,,,W,132,star,1,0,,,,,,,,,,,,,,,,switch,number,numSwt,j,1.0151,noRew,,,,,,0,10,0,10,0,1,,,,,,,,,,,,,,,,,
296827,2022-09-26_24h47.42.735,vts_reward_expectancy,2022.2.4,MacIntel,60.0024001,Chrome,1680,1050,,,,,0,648,,,,,,,,,,,,,,,,,Y,181,triangle,1,0,,,,,,,,,,,,,,,,repeat,number,numRpt,k,1.249,noRew,,,,,,0,11,0,11,0,1,,,,,,,,,,,,,,,,,
296827,2022-09-26_24h47.42.735,vts_reward_expectancy,2022.2.4,MacIntel,60.0024001,Chrome,1680,1050,,,,,0,648,,,,,,,,,,,,,,,,,Y,139,circle,1,0,,,,,,,,,,,,,,,,switch,letter,lettSwt,f,1.3853,noRew,,,,,,0,12,0,12,0,1,,,,,,,,,,,,,,,,,
296827,2022-09-26_24h47.42.735,vts_reward_expectancy,2022.2.4,MacIntel,60.0024001,Chrome,1680,1050,,,,,0,648,,,,,,,,,,,,,,,,,U,132,hexagon,1,0,,,,,,,,,,,,,,,,repeat,letter,lettRpt,f,0.7332,noRew,,,,,,0,13,0,13,0,1,,,,,,,,,,,,,,,,,
296827,2022-09-26_24h47.42.735,vts_reward_expectancy,2022.2.4,MacIntel,60.0024001,Chrome,1680,1050,,,,,0,648,,,,,,,,,,,,,,,,,W,146,circle,0,0,,,,,,,,,,,,,,,,switch,number,NA,k,0.9146,noRew,,,,,,0,14,0,14,0,1,,,,,,,,,,,,,,,,,
296827,2022-09-26_24h47.42.735,vts_reward_expectancy,2022.2.4,MacIntel,60.0024001,Chrome,1680,1050,,,,,0,648,,,,,,,,,,,,,,,,,S,167,star,0,1,,,,,,,,,,,,,,,,repeat,number,NA,j,1.1624,noRew,,,,,,0,15,0,15,0,1,,,,,,,,,,,,,,,,,
296827,2022-09-26_24h47.42.735,vts_reward_expectancy,2022.2.4,MacIntel,60.0024001,Chrome,1680,1050,,,,,0,648,,,,,,,,,,,,,,,,,S,174,circle,1,1,,,,,,,,,,,,,,,,repeat,number,numRpt,k,0.65,noRew,,,,,,0,16,0,16,0,1,,,,,,,,,,,,,,,,,
296827,2022-09-26_24h47.42.735,vts_reward_expectancy,2022.2.4,MacIntel,60.0024001,Chrome,1680,1050,,,,,0,648,,,,,,,,,,,,,,,,,B,160,triangle,1,0,,,,,,,,,,,,,,,,repeat,number,numRpt,k,1.219,noRew,,,,,,0,17,0,17,0,1,,,,,,,,,,,,,,,,,
296827,2022-09-26_24h47.42.735,vts_reward_expectancy,2022.2.4,MacIntel,60.0024001,Chrome,1680,1050,,,,,0,648,,,,,,,,,,,,,,,,,F,146,triangle,1,0,,,,,,,,,,,,,,,,switch,letter,lettSwt,d,0.8506,noRew,,,,,,0,18,0,18,0,1,,,,,,,,,,,,,,,,,
296827,2022-09-26_24h47.42.735,vts_reward_expectancy,2022.2.4,MacIntel,60.0024001,Chrome,1680,1050,,,,,0,648,,,,,,,,,,,,,,,,,W,132,circle,1,0,,,,,,,,,,,,,,,,repeat,letter,lettRpt,f,1.1455,noRew,,,,,,0,19,0,19,0,1,,,,,,,,,,,,,,,,,
296827,2022-09-26_24h47.42.735,vts_reward_expectancy,2022.2.4,MacIntel,60.0024001,Chrome,1680,1050,,,,,0,648,,,,,,,,,,,,,,,,,D,146,star,1,0,,,,,,,,,,,,,,,,repeat,letter,lettRpt,d,0.6827,noRew,,,,,,0,20,0,20,0,1,,,,,,,,,,,,,,,,,
296827,2022-09-26_24h47.42.735,vts_reward_expectancy,2022.2.4,MacIntel,60.0024001,Chrome,1680,1050,,,,,0,648,,,,,,,,,,,,,,,,,U,125,circle,1,0,,,,,,,,,,,,,,,,switch,number,numSwt,j,0.9489,noRew,,,,,,0,21,0,21,0,1,,,,,,,,,,,,,,,,,
296827,2022-09-26_24h47.42.735,vts_reward_expectancy,2022.2.4,MacIntel,60.0024001,Chrome,1680,1050,,,,,0,648,,,,,,,,,,,,,,,,,F,160,triangle,1,0,,,,,,,,,,,,,,,,repeat,number,numRpt,k,0.8654,noRew,,,,,,0,22,0,22,0,1,,,,,,,,,,,,,,,,,
296827,2022-09-26_24h47.42.735,vts_reward_expectancy,2022.2.4,MacIntel,60.0024001,Chrome,1680,1050,,,,,0,648,,,,,,,,,,,,,,,,,S,181,circle,0,0,,,,,,,,,,,,,,,,repeat,number,NA,j,0.7494,noRew,,,,,,0,23,0,23,0,1,,,,,,,,,,,,,,,,,
296827,2022-09-26_24h47.42.735,vts_reward_expectancy,2022.2.4,MacIntel,60.0024001,Chrome,1680,1050,,,,,0,648,,,,,,,,,,,,,,,,,S,146,circle,0,1,,,,,,,,,,,,,,,,switch,letter,NA,d,0.9138,noRew,,,,,,0,24,0,24,0,1,,,,,,,,,,,,,,,,,
296827,2022-09-26_24h47.42.735,vts_reward_expectancy,2022.2.4,MacIntel,60.0024001,Chrome,1680,1050,,,,,0,648,,,,,,,,,,,,,,,,,D,174,star,1,1,,,,,,,,,,,,,,,,repeat,letter,lettRpt,d,0.6163,noRew,,,,,,0,25,0,25,0,1,,,,,,,,,,,,,,,,,
296827,2022-09-26_24h47.42.735,vts_reward_expectancy,2022.2.4,MacIntel,60.0024001,Chrome,1680,1050,,,,,0,648,,,,,,,,,,,,,,,,,F,167,triangle,1,0,,,,,,,,,,,,,,,,repeat,letter,lettRpt,d,1.1649,noRew,,,,,,0,26,0,26,0,1,,,,,,,,,,,,,,,,,
296827,2022-09-26_24h47.42.735,vts_reward_expectancy,2022.2.4,MacIntel,60.0024001,Chrome,1680,1050,,,,,0,648,,,,,,,,,,,,,,,,,Y,160,star,0,0,,,,,,,,,,,,,,,,switch,number,NA,j,0.7625,noRew,,,,,,0,27,0,27,0,1,,,,,,,,,,,,,,,,,
296827,2022-09-26_24h47.42.735,vts_reward_expectancy,2022.2.4,MacIntel,60.0024001,Chrome,1680,1050,,,,,0,648,,,,,,,,,,,,,,,,,B,167,hexagon,1,1,,,,,,,,,,,,,,,,repeat,number,numRpt,k,0.7323,noRew,,,,,,0,28,0,28,0,1,,,,,,,,,,,,,,,,,
296827,2022-09-26_24h47.42.735,vts_reward_expectancy,2022.2.4,MacIntel,60.0024001,Chrome,1680,1050,,,,,0,648,,,,,,,,,,,,,,,,,W,146,triangle,1,0,,,,,,,,,,,,,,,,repeat,number,numRpt,j,0.6325,noRew,,,,,,0,29,0,29,0,1,,,,,,,,,,,,,,,,,
296827,2022-09-26_24h47.42.735,vts_reward_expectancy,2022.2.4,MacIntel,60.0024001,Chrome,1680,1050,,,,,0,648,,,,,,,,,,,,,,,,,Y,132,star,1,0,,,,,,,,,,,,,,,,switch,letter,lettSwt,f,0.8204,noRew,,,,,,0,30,0,30,0,1,,,,,,,,,,,,,,,,,
296827,2022-09-26_24h47.42.735,vts_reward_expectancy,2022.2.4,MacIntel,60.0024001,Chrome,1680,1050,,,,,0,648,,,,,,,,,,,,,,,,,U,139,hexagon,1,0,,,,,,,,,,,,,,,,repeat,letter,lettRpt,f,0.9157,noRew,,,,,,0,31,0,31,0,1,,,,,,,,,,,,,,,,,
296827,2022-09-26_24h47.42.735,vts_reward_expectancy,2022.2.4,MacIntel,60.0024001,Chrome,1680,1050,,,,,0,648,,,,,,,,,,,,,,,,,W,139,hexagon,1,0,,,,,,,,,,,,,,,,repeat,letter,lettRpt,f,1.2179,noRew,,,,,,0,32,0,32,0,1,,,,,,,,,,,,,,,,,
296827,2022-09-26_24h47.42.735,vts_reward_expectancy,2022.2.4,MacIntel,60.0024001,Chrome,1680,1050,,,,,0,648,,,,,,,,,,,,,,,,,F,167,triangle,1,0,,,,,,,,,,,,,,,,repeat,letter,lettRpt,d,0.9656,noRew,,,,,,0,33,0,33,0,1,,,,,,,,,,,,,,,,,
296827,2022-09-26_24h47.42.735,vts_reward_expectancy,2022.2.4,MacIntel,60.0024001,Chrome,1680,1050,,,,,0,648,,,,,,,,,,,,,,,,,U,174,circle,1,0,,,,,,,,,,,,,,,,switch,number,numSwt,k,0.8978,noRew,,,,,,0,34,0,34,0,1,,,,,,,,,,,,,,,,,
296827,2022-09-26_24h47.42.735,vts_reward_expectancy,2022.2.4,MacIntel,60.0024001,Chrome,1680,1050,,,,,0,648,,,,,,,,,,,,,,,,,S,125,star,1,0,,,,,,,,,,,,,,,,repeat,number,numRpt,j,1.0492,noRew,,,,,,0,35,0,35,0,1,,,,,,,,,,,,,,,,,
296827,2022-09-26_24h47.42.735,vts_reward_expectancy,2022.2.4,MacIntel,60.0024001,Chrome,1680,1050,,,,,0,648,,,,,,,,,,,,,,,,,B,132,hexagon,0,0,,,,,,,,,,,,,,,,repeat,number,NA,k,0.8959,noRew,,,,,,0,36,0,36,0,1,,,,,,,,,,,,,,,,,
296827,2022-09-26_24h47.42.735,vts_reward_expectancy,2022.2.4,MacIntel,60.0024001,Chrome,1680,1050,,,,,0,648,,,,,,,,,,,,,,,,,W,125,circle,1,1,,,,,,,,,,,,,,,,switch,letter,lettSwt,f,0.7318,noRew,,,,,,0,37,0,37,0,1,,,,,,,,,,,,,,,,,
296827,2022-09-26_24h47.42.735,vts_reward_expectancy,2022.2.4,MacIntel,60.0024001,Chrome,1680,1050,,,,,0,648,,,,,,,,,,,,,,,,,F,160,circle,1,0,,,,,,,,,,,,,,,,switch,number,numSwt,k,1.2956,noRew,,,,,,0,38,0,38,0,1,,,,,,,,,,,,,,,,,
296827,2022-09-26_24h47.42.735,vts_reward_expectancy,2022.2.4,MacIntel,60.0024001,Chrome,1680,1050,,,,,0,648,,,,,,,,,,,,,,,,,D,139,star,1,0,,,,,,,,,,,,,,,,repeat,number,numRpt,j,0.6485,noRew,,,,,,0,39,0,39,0,1,,,,,,,,,,,,,,,,,
296827,2022-09-26_24h47.42.735,vts_reward_expectancy,2022.2.4,MacIntel,60.0024001,Chrome,1680,1050,,,,,0,648,,,,,,,,,,,,,,,,,Y,167,hexagon,1,0,,,,,,,,,,,,,,,,repeat,number,numRpt,k,0.8631,noRew,,,,,,0,40,0,40,0,1,,,,,,,,,,,,,,,,,
296827,2022-09-26_24h47.42.735,vts_reward_expectancy,2022.2.4,MacIntel,60.0024001,Chrome,1680,1050,,,,,0,648,,,,,,,,,,,,,,,,,H,174,triangle,1,0,,,,,,,,,,,,,,,,switch,letter,lettSwt,d,0.9983,noRew,,,,,,0,41,0,41,0,1,,,,,,,,,,,,,,,,,
296827,2022-09-26_24h47.42.735,vts_reward_expectancy,2022.2.4,MacIntel,60.0024001,Chrome,1680,1050,,,,,0,648,,,,,,,,,,,,,,,,,S,139,hexagon,1,0,,,,,,,,,,,,,,,,repeat,letter,lettRpt,f,0.8122,noRew,,,,,,0,42,0,42,0,1,,,,,,,,,,,,,,,,,
296827,2022-09-26_24h47.42.735,vts_reward_expectancy,2022.2.4,MacIntel,60.0024001,Chrome,1680,1050,,,,,0,648,,,,,,,,,,,,,,,,,B,125,star,1,0,,,,,,,,,,,,,,,,repeat,letter,lettRpt,d,1.131,noRew,,,,,,0,43,0,43,0,1,,,,,,,,,,,,,,,,,
296827,2022-09-26_24h47.42.735,vts_reward_expectancy,2022.2.4,MacIntel,60.0024001,Chrome,1680,1050,,,,,0,648,,,,,,,,,,,,,,,,,B,181,triangle,1,0,,,,,,,,,,,,,,,,switch,number,numSwt,k,0.4694,noRew,,,,,,0,44,0,44,0,1,,,,,,,,,,,,,,,,,
296827,2022-09-26_24h47.42.735,vts_reward_expectancy,2022.2.4,MacIntel,60.0024001,Chrome,1680,1050,,,,,0,648,,,,,,,,,,,,,,,,,W,132,hexagon,1,0,,,,,,,,,,,,,,,,repeat,number,numRpt,j,1.5317,noRew,,,,,,0,45,0,45,0,1,,,,,,,,,,,,,,,,,
296827,2022-09-26_24h47.42.735,vts_reward_expectancy,2022.2.4,MacIntel,60.0024001,Chrome,1680,1050,,,,,0,648,,,,,,,,,,,,,,,,,D,125,circle,1,0,,,,,,,,,,,,,,,,repeat,number,numRpt,j,0.6319,noRew,,,,,,0,46,0,46,0,1,,,,,,,,,,,,,,,,,
296827,2022-09-26_24h47.42.735,vts_reward_expectancy,2022.2.4,MacIntel,60.0024001,Chrome,1680,1050,,,,,0,648,,,,,,,,,,,,,,,,,H,167,hexagon,1,0,,,,,,,,,,,,,,,,switch,letter,lettSwt,d,0.6984,noRew,,,,,,0,47,0,47,0,1,,,,,,,,,,,,,,,,,
296827,2022-09-26_24h47.42.735,vts_reward_expectancy,2022.2.4,MacIntel,60.0024001,Chrome,1680,1050,,,,,0,648,,,,,,,,,,,,,,,,,W,132,star,1,0,,,,,,,,,,,,,,,,switch,number,numSwt,j,0.5682,noRew,,,,,,0,48,0,48,0,1,,,,,,,,,,,,,,,,,
296827,2022-09-26_24h47.42.735,vts_reward_expectancy,2022.2.4,MacIntel,60.0024001,Chrome,1680,1050,,,,,0,648,,,,,,,,,,,,,,,,,D,174,triangle,1,0,,,,,,,,,,,,,,,,switch,letter,lettSwt,d,0.782,noRew,,,,,,0,49,0,49,0,1,,,,,,,,,,,,,,,,,
296827,2022-09-26_24h47.42.735,vts_reward_expectancy,2022.2.4,MacIntel,60.0024001,Chrome,1680,1050,,,,,0,648,,,,,,,,,,,,,,,,,B,181,triangle,1,0,,,,,,,,,,,,,,,,repeat,letter,lettRpt,d,0.6482,noRew,,,,,,0,50,0,50,0,1,,,,,,,,,,,,,,,,,
296827,2022-09-26_24h47.42.735,vts_reward_expectancy,2022.2.4,MacIntel,60.0024001,Chrome,1680,1050,,,,,0,648,,,,,,,,,,,,,,,,,S,160,circle,1,0,,,,,,,,,,,,,,,,repeat,letter,lettRpt,f,0.6997,noRew,,,,,,0,51,0,51,0,1,,,,,,,,,,,,,,,,,
296827,2022-09-26_24h47.42.735,vts_reward_expectancy,2022.2.4,MacIntel,60.0024001,Chrome,1680,1050,,,,,0,648,,,,,,,,,,,,,,,,,W,167,circle,0,0,,,,,,,,,,,,,,,,switch,number,NA,j,0.7821,noRew,,,,,,0,52,0,52,0,1,,,,,,,,,,,,,,,,,
296827,2022-09-26_24h47.42.735,vts_reward_expectancy,2022.2.4,MacIntel,60.0024001,Chrome,1680,1050,,,,,0,648,,,,,,,,,,,,,,,,,B,139,hexagon,1,1,,,,,,,,,,,,,,,,repeat,number,numRpt,j,0.7257,noRew,,,,,,0,53,0,53,0,1,,,,,,,,,,,,,,,,,
296827,2022-09-26_24h47.42.735,vts_reward_expectancy,2022.2.4,MacIntel,60.0024001,Chrome,1680,1050,,,,,0,648,,,,,,,,,,,,,,,,,S,146,triangle,1,0,,,,,,,,,,,,,,,,repeat,number,numRpt,j,0.8359,noRew,,,,,,0,54,0,54,0,1,,,,,,,,,,,,,,,,,
296827,2022-09-26_24h47.42.735,vts_reward_expectancy,2022.2.4,MacIntel,60.0024001,Chrome,1680,1050,,,,,0,648,,,,,,,,,,,,,,,,,F,174,hexagon,1,0,,,,,,,,,,,,,,,,repeat,number,numRpt,k,0.8695,noRew,,,,,,0,55,0,55,0,1,,,,,,,,,,,,,,,,,
296827,2022-09-26_24h47.42.735,vts_reward_expectancy,2022.2.4,MacIntel,60.0024001,Chrome,1680,1050,,,,,0,648,,,,,,,,,,,,,,,,,Y,139,hexagon,1,0,,,,,,,,,,,,,,,,switch,letter,lettSwt,f,0.5987,noRew,,,,,,0,56,0,56,0,1,,,,,,,,,,,,,,,,,
296827,2022-09-26_24h47.42.735,vts_reward_expectancy,2022.2.4,MacIntel,60.0024001,Chrome,1680,1050,,,,,0,648,,,,,,,,,,,,,,,,,H,167,star,1,0,,,,,,,,,,,,,,,,repeat,letter,lettRpt,d,0.5998,noRew,,,,,,0,57,0,57,0,1,,,,,,,,,,,,,,,,,
296827,2022-09-26_24h47.42.735,vts_reward_expectancy,2022.2.4,MacIntel,60.0024001,Chrome,1680,1050,,,,,0,648,,,,,,,,,,,,,,,,,D,146,star,1,0,,,,,,,,,,,,,,,,repeat,letter,lettRpt,d,0.8498,noRew,,,,,,0,58,0,58,0,1,,,,,,,,,,,,,,,,,
296827,2022-09-26_24h47.42.735,vts_reward_expectancy,2022.2.4,MacIntel,60.0024001,Chrome,1680,1050,,,,,0,648,,,,,,,,,,,,,,,,,F,181,hexagon,1,0,,,,,,,,,,,,,,,,repeat,letter,lettRpt,d,0.7996,noRew,,,,,,0,59,0,59,0,1,,,,,,,,,,,,,,,,,
296827,2022-09-26_24h47.42.735,vts_reward_expectancy,2022.2.4,MacIntel,60.0024001,Chrome,1680,1050,,,,,0,648,,,,,,,,,,,,,,,,,D,160,circle,1,0,,,,,,,,,,,,,,,,switch,number,numSwt,k,0.8993,noRew,,,,,,0,60,0,60,0,1,,,,,,,,,,,,,,,,,
296827,2022-09-26_24h47.42.735,vts_reward_expectancy,2022.2.4,MacIntel,60.0024001,Chrome,1680,1050,,,,,0,648,,,,,,,,,,,,,,,,,U,181,hexagon,1,0,,,,,,,,,,,,,,,,switch,letter,lettSwt,f,0.6632,noRew,,,,,,0,61,0,61,0,1,,,,,,,,,,,,,,,,,
296827,2022-09-26_24h47.42.735,vts_reward_expectancy,2022.2.4,MacIntel,60.0024001,Chrome,1680,1050,,,,,0,648,,,,,,,,,,,,,,,,,Y,146,hexagon,1,0,,,,,,,,,,,,,,,,repeat,letter,lettRpt,f,0.6322,noRew,,,,,,0,62,0,62,0,1,,,,,,,,,,,,,,,,,
296827,2022-09-26_24h47.42.735,vts_reward_expectancy,2022.2.4,MacIntel,60.0024001,Chrome,1680,1050,,,,,0,648,,,,,,,,,,,,,,,,,W,132,triangle,1,0,,,,,,,,,,,,,,,,switch,number,numSwt,j,0.6998,noRew,,,,,,0,63,0,63,0,1,,,,,,,,,,,,,,,,,
296827,2022-09-26_24h47.42.735,vts_reward_expectancy,2022.2.4,MacIntel,60.0024001,Chrome,1680,1050,,,,,,,,,,,,,,,,,,,,,,,,,,,,,,,,,,,,,,,,,,,,,,,,,,,,,,,,,,,,,,,,,,,,,,,,,,,,
296827,2022-09-26_24h47.42.735,vts_reward_expectancy,2022.2.4,MacIntel,60.0024001,Chrome,1680,1050,,,,,1,649,,,,,,,,,,,,,,,,,H,125,circle,1,0,,,,,,,,,,,,,,,,switch,letter,lettSwt,d,0.8529,Lo,,,,,,0,,,,,,space,5.4921,high,0,0,0,0,1,,,,,,,,,
296827,2022-09-26_24h47.42.735,vts_reward_expectancy,2022.2.4,MacIntel,60.0024001,Chrome,1680,1050,,,,,1,650,,,,,,,,,,,,,,,,,Y,139,triangle,1,0,,,,,,,,,,,,,,,,repeat,letter,lettRpt,f,0.633,Hi,,,,,,0,,,,,,,,high,1,0,1,0,1,,,,,,,,,
296827,2022-09-26_24h47.42.735,vts_reward_expectancy,2022.2.4,MacIntel,60.0024001,Chrome,1680,1050,,,,,1,651,,,,,,,,,,,,,,,,,W,132,circle,1,0,,,,,,,,,,,,,,,,repeat,letter,lettRpt,f,0.7155,Lo,,,,,,0,,,,,,,,high,2,0,2,0,1,,,,,,,,,
296827,2022-09-26_24h47.42.735,vts_reward_expectancy,2022.2.4,MacIntel,60.0024001,Chrome,1680,1050,,,,,0,651,,,,,,,,,,,,,,,,,B,160,triangle,1,0,,,,,,,,,,,,,,,,switch,number,numSwt,k,0.9992,Hi,,,,,,0,,,,,,,,high,3,0,3,0,1,,,,,,,,,
296827,2022-09-26_24h47.42.735,vts_reward_expectancy,2022.2.4,MacIntel,60.0024001,Chrome,1680,1050,,,,,1,652,,,,,,,,,,,,,,,,,U,167,circle,1,0,,,,,,,,,,,,,,,,repeat,number,numRpt,k,0.5489,Lo,,,,,,0,,,,,,,,high,4,0,4,0,1,,,,,,,,,
296827,2022-09-26_24h47.42.735,vts_reward_expectancy,2022.2.4,MacIntel,60.0024001,Chrome,1680,1050,,,,,10,662,,,,,,,,,,,,,,,,,F,181,triangle,1,0,,,,,,,,,,,,,,,,repeat,number,numRpt,k,0.6489,Hi,,,,,,0,,,,,,,,high,5,0,5,0,1,,,,,,,,,
296827,2022-09-26_24h47.42.735,vts_reward_expectancy,2022.2.4,MacIntel,60.0024001,Chrome,1680,1050,,,,,10,672,,,,,,,,,,,,,,,,,S,146,triangle,1,0,,,,,,,,,,,,,,,,repeat,number,numRpt,j,0.533,Hi,,,,,,0,,,,,,,,high,6,0,6,0,1,,,,,,,,,
296827,2022-09-26_24h47.42.735,vts_reward_expectancy,2022.2.4,MacIntel,60.0024001,Chrome,1680,1050,,,,,1,673,,,,,,,,,,,,,,,,,D,174,circle,1,0,,,,,,,,,,,,,,,,switch,letter,lettSwt,d,0.6811,Lo,,,,,,0,,,,,,,,high,7,0,7,0,1,,,,,,,,,
296827,2022-09-26_24h47.42.735,vts_reward_expectancy,2022.2.4,MacIntel,60.0024001,Chrome,1680,1050,,,,,0,673,,,,,,,,,,,,,,,,,H,125,circle,0,0,,,,,,,,,,,,,,,,repeat,letter,NA,f,0.85,Lo,,,,,,0,,,,,,,,high,8,0,8,0,1,,,,,,,,,
296827,2022-09-26_24h47.42.735,vts_reward_expectancy,2022.2.4,MacIntel,60.0024001,Chrome,1680,1050,,,,,1,674,,,,,,,,,,,,,,,,,Y,139,triangle,1,1,,,,,,,,,,,,,,,,switch,number,numSwt,j,0.8512,Hi,,,,,,0,,,,,,,,high,9,0,9,0,1,,,,,,,,,
296827,2022-09-26_24h47.42.735,vts_reward_expectancy,2022.2.4,MacIntel,60.0024001,Chrome,1680,1050,,,,,1,675,,,,,,,,,,,,,,,,,W,132,circle,1,0,,,,,,,,,,,,,,,,repeat,number,numRpt,j,0.7657,Lo,,,,,,0,,,,,,,,high,10,0,10,0,1,,,,,,,,,
296827,2022-09-26_24h47.42.735,vts_reward_expectancy,2022.2.4,MacIntel,60.0024001,Chrome,1680,1050,,,,,0,675,,,,,,,,,,,,,,,,,B,160,triangle,0,0,,,,,,,,,,,,,,,,repeat,number,NA,j,0.8295,Lo,,,,,,0,,,,,,,,high,11,0,11,0,1,,,,,,,,,
296827,2022-09-26_24h47.42.735,vts_reward_expectancy,2022.2.4,MacIntel,60.0024001,Chrome,1680,1050,,,,,0,675,,,,,,,,,,,,,,,,,U,167,triangle,1,1,,,,,,,,,,,,,,,,repeat,number,numRpt,k,0.7324,Hi,,,,,,0,,,,,,,,high,12,0,12,0,1,,,,,,,,,
296827,2022-09-26_24h47.42.735,vts_reward_expectancy,2022.2.4,MacIntel,60.0024001,Chrome,1680,1050,,,,,1,676,,,,,,,,,,,,,,,,,F,181,circle,1,0,,,,,,,,,,,,,,,,repeat,number,numRpt,k,0.799,Lo,,,,,,0,,,,,,,,high,13,0,13,0,1,,,,,,,,,
296827,2022-09-26_24h47.42.735,vts_reward_expectancy,2022.2.4,MacIntel,60.0024001,Chrome,1680,1050,,,,,1,677,,,,,,,,,,,,,,,,,S,146,circle,1,0,,,,,,,,,,,,,,,,repeat,number,numRpt,j,0.8156,Lo,,,,,,0,,,,,,,,high,14,0,14,0,1,,,,,,,,,
296827,2022-09-26_24h47.42.735,vts_reward_expectancy,2022.2.4,MacIntel,60.0024001,Chrome,1680,1050,,,,,0,677,,,,,,,,,,,,,,,,,D,174,triangle,1,0,,,,,,,,,,,,,,,,switch,letter,lettSwt,d,0.7495,Hi,,,,,,0,,,,,,,,high,15,0,15,0,1,,,,,,,,,
296827,2022-09-26_24h47.42.735,vts_reward_expectancy,2022.2.4,MacIntel,60.0024001,Chrome,1680,1050,,,,,1,678,,,,,,,,,,,,,,,,,D,132,circle,1,0,,,,,,,,,,,,,,,,repeat,letter,lettRpt,d,0.6487,Lo,,,,,,0,,,,,,,,high,16,0,16,0,1,,,,,,,,,
296827,2022-09-26_24h47.42.735,vts_reward_expectancy,2022.2.4,MacIntel,60.0024001,Chrome,1680,1050,,,,,10,688,,,,,,,,,,,,,,,,,W,181,triangle,1,0,,,,,,,,,,,,,,,,repeat,letter,lettRpt,f,0.4837,Hi,,,,,,0,,,,,,,,high,17,0,17,0,1,,,,,,,,,
296827,2022-09-26_24h47.42.735,vts_reward_expectancy,2022.2.4,MacIntel,60.0024001,Chrome,1680,1050,,,,,0,688,,,,,,,,,,,,,,,,,S,174,triangle,1,0,,,,,,,,,,,,,,,,repeat,letter,lettRpt,f,0.9662,Hi,,,,,,0,,,,,,,,high,18,0,18,0,1,,,,,,,,,
296827,2022-09-26_24h47.42.735,vts_reward_expectancy,2022.2.4,MacIntel,60.0024001,Chrome,1680,1050,,,,,1,689,,,,,,,,,,,,,,,,,Y,167,circle,1,0,,,,,,,,,,,,,,,,repeat,letter,lettRpt,f,0.6662,Lo,,,,,,0,,,,,,,,high,19,0,19,0,1,,,,,,,,,
296827,2022-09-26_24h47.42.735,vts_reward_expectancy,2022.2.4,MacIntel,60.0024001,Chrome,1680,1050,,,,,0,689,,,,,,,,,,,,,,,,,B,146,triangle,1,0,,,,,,,,,,,,,,,,switch,number,numSwt,j,1.717,Hi,,,,,,0,,,,,,,,high,20,0,20,0,1,,,,,,,,,
296827,2022-09-26_24h47.42.735,vts_reward_expectancy,2022.2.4,MacIntel,60.0024001,Chrome,1680,1050,,,,,1,690,,,,,,,,,,,,,,,,,H,139,circle,1,0,,,,,,,,,,,,,,,,repeat,number,numRpt,j,0.6511,Lo,,,,,,0,,,,,,,,high,21,0,21,0,1,,,,,,,,,
296827,2022-09-26_24h47.42.735,vts_reward_expectancy,2022.2.4,MacIntel,60.0024001,Chrome,1680,1050,,,,,10,700,,,,,,,,,,,,,,,,,U,125,triangle,1,0,,,,,,,,,,,,,,,,repeat,number,numRpt,j,0.6333,Hi,,,,,,0,,,,,,,,high,22,0,22,0,1,,,,,,,,,
296827,2022-09-26_24h47.42.735,vts_reward_expectancy,2022.2.4,MacIntel,60.0024001,Chrome,1680,1050,,,,,1,701,,,,,,,,,,,,,,,,,F,160,circle,1,0,,,,,,,,,,,,,,,,repeat,number,numRpt,k,0.9499,Lo,,,,,,0,,,,,,,,high,23,0,23,0,1,,,,,,,,,
296827,2022-09-26_24h47.42.735,vts_reward_expectancy,2022.2.4,MacIntel,60.0024001,Chrome,1680,1050,,,,,1,702,,,,,,,,,,,,,,,,,F,125,circle,1,0,,,,,,,,,,,,,,,,repeat,number,numRpt,j,0.6664,Lo,,,,,,0,,,,,,,,high,24,0,24,0,1,,,,,,,,,
296827,2022-09-26_24h47.42.735,vts_reward_expectancy,2022.2.4,MacIntel,60.0024001,Chrome,1680,1050,,,,,1,703,,,,,,,,,,,,,,,,,D,139,triangle,1,0,,,,,,,,,,,,,,,,repeat,number,numRpt,j,0.5999,Hi,,,,,,0,,,,,,,,high,25,0,25,0,1,,,,,,,,,
296827,2022-09-26_24h47.42.735,vts_reward_expectancy,2022.2.4,MacIntel,60.0024001,Chrome,1680,1050,,,,,10,713,,,,,,,,,,,,,,,,,S,174,triangle,1,0,,,,,,,,,,,,,,,,repeat,number,numRpt,k,0.566,Hi,,,,,,0,,,,,,,,high,26,0,26,0,1,,,,,,,,,
296827,2022-09-26_24h47.42.735,vts_reward_expectancy,2022.2.4,MacIntel,60.0024001,Chrome,1680,1050,,,,,1,714,,,,,,,,,,,,,,,,,Y,146,circle,1,0,,,,,,,,,,,,,,,,repeat,number,numRpt,j,0.8492,Lo,,,,,,0,,,,,,,,high,27,0,27,0,1,,,,,,,,,
296827,2022-09-26_24h47.42.735,vts_reward_expectancy,2022.2.4,MacIntel,60.0024001,Chrome,1680,1050,,,,,10,724,,,,,,,,,,,,,,,,,H,160,circle,1,0,,,,,,,,,,,,,,,,switch,letter,lettSwt,d,1.0485,Lo,,,,,,0,,,,,,,,high,28,0,28,0,1,,,,,,,,,
296827,2022-09-26_24h47.42.735,vts_reward_expectancy,2022.2.4,MacIntel,60.0024001,Chrome,1680,1050,,,,,10,734,,,,,,,,,,,,,,,,,B,132,triangle,1,0,,,,,,,,,,,,,,,,switch,number,numSwt,j,0.6653,Hi,,,,,,0,,,,,,,,high,29,0,29,0,1,,,,,,,,,
296827,2022-09-26_24h47.42.735,vts_reward_expectancy,2022.2.4,MacIntel,60.0024001,Chrome,1680,1050,,,,,1,735,,,,,,,,,,,,,,,,,U,181,circle,1,0,,,,,,,,,,,,,,,,switch,letter,lettSwt,f,0.9826,Lo,,,,,,0,,,,,,,,high,30,0,30,0,1,,,,,,,,,
296827,2022-09-26_24h47.42.735,vts_reward_expectancy,2022.2.4,MacIntel,60.0024001,Chrome,1680,1050,,,,,0,735,,,,,,,,,,,,,,,,,W,167,triangle,1,0,,,,,,,,,,,,,,,,repeat,letter,lettRpt,f,1.3175,Hi,,,,,,0,,,,,,,,high,31,0,31,0,1,,,,,,,,,
296827,2022-09-26_24h47.42.735,vts_reward_expectancy,2022.2.4,MacIntel,60.0024001,Chrome,1680,1050,,,,,1,736,,,,,,,,,,,,,,,,,S,167,star,1,0,,,,,,,,,,,,,,,,repeat,letter,lettRpt,f,1.097,Lo,,,,,,1,,,,,,space,1.6007,low,0,0,0,0,1,,,,,,,,,
296827,2022-09-26_24h47.42.735,vts_reward_expectancy,2022.2.4,MacIntel,60.0024001,Chrome,1680,1050,,,,,0,736,,,,,,,,,,,,,,,,,W,160,hexagon,1,0,,,,,,,,,,,,,,,,switch,number,numSwt,k,0.915,Hi,,,,,,1,,,,,,,,low,1,0,1,0,1,,,,,,,,,
296827,2022-09-26_24h47.42.735,vts_reward_expectancy,2022.2.4,MacIntel,60.0024001,Chrome,1680,1050,,,,,1,737,,,,,,,,,,,,,,,,,B,181,star,1,0,,,,,,,,,,,,,,,,repeat,number,numRpt,k,0.8997,Lo,,,,,,1,,,,,,,,low,2,0,2,0,1,,,,,,,,,
296827,2022-09-26_24h47.42.735,vts_reward_expectancy,2022.2.4,MacIntel,60.0024001,Chrome,1680,1050,,,,,0,737,,,,,,,,,,,,,,,,,D,174,hexagon,1,0,,,,,,,,,,,,,,,,switch,letter,lettSwt,d,0.814,Hi,,,,,,1,,,,,,,,low,3,0,3,0,1,,,,,,,,,
296827,2022-09-26_24h47.42.735,vts_reward_expectancy,2022.2.4,MacIntel,60.0024001,Chrome,1680,1050,,,,,1,738,,,,,,,,,,,,,,,,,U,146,hexagon,1,0,,,,,,,,,,,,,,,,repeat,letter,lettRpt,f,0.567,Hi,,,,,,1,,,,,,,,low,4,0,4,0,1,,,,,,,,,
296827,2022-09-26_24h47.42.735,vts_reward_expectancy,2022.2.4,MacIntel,60.0024001,Chrome,1680,1050,,,,,10,748,,,,,,,,,,,,,,,,,H,132,star,1,0,,,,,,,,,,,,,,,,repeat,letter,lettRpt,d,0.7141,Lo,,,,,,1,,,,,,,,low,5,0,5,0,1,,,,,,,,,
296827,2022-09-26_24h47.42.735,vts_reward_expectancy,2022.2.4,MacIntel,60.0024001,Chrome,1680,1050,,,,,0,748,,,,,,,,,,,,,,,,,Y,139,hexagon,0,0,,,,,,,,,,,,,,,,switch,number,NA,k,0.7985,Lo,,,,,,1,,,,,,,,low,6,0,6,0,1,,,,,,,,,
296827,2022-09-26_24h47.42.735,vts_reward_expectancy,2022.2.4,MacIntel,60.0024001,Chrome,1680,1050,,,,,10,758,,,,,,,,,,,,,,,,,F,125,star,1,1,,,,,,,,,,,,,,,,repeat,number,numRpt,j,0.9299,Lo,,,,,,1,,,,,,,,low,7,0,7,0,1,,,,,,,,,
296827,2022-09-26_24h47.42.735,vts_reward_expectancy,2022.2.4,MacIntel,60.0024001,Chrome,1680,1050,,,,,0,758,,,,,,,,,,,,,,,,,S,167,hexagon,1,0,,,,,,,,,,,,,,,,repeat,number,numRpt,k,0.9146,Hi,,,,,,1,,,,,,,,low,8,0,8,0,1,,,,,,,,,
296827,2022-09-26_24h47.42.735,vts_reward_expectancy,2022.2.4,MacIntel,60.0024001,Chrome,1680,1050,,,,,0,758,,,,,,,,,,,,,,,,,W,160,star,0,0,,,,,,,,,,,,,,,,repeat,number,NA,j,1.3341,Hi,,,,,,1,,,,,,,,low,9,0,9,0,1,,,,,,,,,
296827,2022-09-26_24h47.42.735,vts_reward_expectancy,2022.2.4,MacIntel,60.0024001,Chrome,1680,1050,,,,,10,768,,,,,,,,,,,,,,,,,B,181,hexagon,1,1,,,,,,,,,,,,,,,,repeat,number,numRpt,k,0.5153,Hi,,,,,,1,,,,,,,,low,10,0,10,0,1,,,,,,,,,
296827,2022-09-26_24h47.42.735,vts_reward_expectancy,2022.2.4,MacIntel,60.0024001,Chrome,1680,1050,,,,,0,768,,,,,,,,,,,,,,,,,D,174,star,0,0,,,,,,,,,,,,,,,,switch,letter,NA,f,1.3493,Hi,,,,,,1,,,,,,,,low,11,0,11,0,1,,,,,,,,,
296827,2022-09-26_24h47.42.735,vts_reward_expectancy,2022.2.4,MacIntel,60.0024001,Chrome,1680,1050,,,,,0,768,,,,,,,,,,,,,,,,,U,146,hexagon,1,1,,,,,,,,,,,,,,,,repeat,letter,lettRpt,f,0.6642,Hi,,,,,,1,,,,,,,,low,12,0,12,0,1,,,,,,,,,
296827,2022-09-26_24h47.42.735,vts_reward_expectancy,2022.2.4,MacIntel,60.0024001,Chrome,1680,1050,,,,,1,769,,,,,,,,,,,,,,,,,H,132,star,1,0,,,,,,,,,,,,,,,,switch,number,numSwt,j,0.632,Lo,,,,,,1,,,,,,,,low,13,0,13,0,1,,,,,,,,,
296827,2022-09-26_24h47.42.735,vts_reward_expectancy,2022.2.4,MacIntel,60.0024001,Chrome,1680,1050,,,,,10,779,,,,,,,,,,,,,,,,,Y,139,hexagon,1,0,,,,,,,,,,,,,,,,switch,letter,lettSwt,f,0.6496,Hi,,,,,,1,,,,,,,,low,14,0,14,0,1,,,,,,,,,
296827,2022-09-26_24h47.42.735,vts_reward_expectancy,2022.2.4,MacIntel,60.0024001,Chrome,1680,1050,,,,,1,780,,,,,,,,,,,,,,,,,F,125,star,1,0,,,,,,,,,,,,,,,,switch,number,numSwt,j,0.6332,Lo,,,,,,1,,,,,,,,low,15,0,15,0,1,,,,,,,,,
296827,2022-09-26_24h47.42.735,vts_reward_expectancy,2022.2.4,MacIntel,60.0024001,Chrome,1680,1050,,,,,1,781,,,,,,,,,,,,,,,,,S,125,star,1,0,,,,,,,,,,,,,,,,repeat,number,numRpt,j,0.5499,Lo,,,,,,1,,,,,,,,low,16,0,16,0,1,,,,,,,,,
296827,2022-09-26_24h47.42.735,vts_reward_expectancy,2022.2.4,MacIntel,60.0024001,Chrome,1680,1050,,,,,1,782,,,,,,,,,,,,,,,,,D,139,hexagon,1,0,,,,,,,,,,,,,,,,switch,letter,lettSwt,d,0.7008,Hi,,,,,,1,,,,,,,,low,17,0,17,0,1,,,,,,,,,
296827,2022-09-26_24h47.42.735,vts_reward_expectancy,2022.2.4,MacIntel,60.0024001,Chrome,1680,1050,,,,,1,783,,,,,,,,,,,,,,,,,H,174,star,1,0,,,,,,,,,,,,,,,,repeat,letter,lettRpt,d,0.9975,Lo,,,,,,1,,,,,,,,low,18,0,18,0,1,,,,,,,,,
296827,2022-09-26_24h47.42.735,vts_reward_expectancy,2022.2.4,MacIntel,60.0024001,Chrome,1680,1050,,,,,1,784,,,,,,,,,,,,,,,,,Y,167,hexagon,1,0,,,,,,,,,,,,,,,,repeat,letter,lettRpt,f,0.6454,Hi,,,,,,1,,,,,,,,low,19,0,19,0,1,,,,,,,,,
296827,2022-09-26_24h47.42.735,vts_reward_expectancy,2022.2.4,MacIntel,60.0024001,Chrome,1680,1050,,,,,10,794,,,,,,,,,,,,,,,,,W,181,star,1,0,,,,,,,,,,,,,,,,repeat,letter,lettRpt,f,0.6152,Lo,,,,,,1,,,,,,,,low,20,0,20,0,1,,,,,,,,,
296827,2022-09-26_24h47.42.735,vts_reward_expectancy,2022.2.4,MacIntel,60.0024001,Chrome,1680,1050,,,,,0,794,,,,,,,,,,,,,,,,,U,132,hexagon,0,0,,,,,,,,,,,,,,,,repeat,letter,NA,d,0.7501,Lo,,,,,,1,,,,,,,,low,21,0,21,0,1,,,,,,,,,
296827,2022-09-26_24h47.42.735,vts_reward_expectancy,2022.2.4,MacIntel,60.0024001,Chrome,1680,1050,,,,,10,804,,,,,,,,,,,,,,,,,B,146,star,1,1,,,,,,,,,,,,,,,,repeat,letter,lettRpt,d,1.1347,Lo,,,,,,1,,,,,,,,low,22,0,22,0,1,,,,,,,,,
296827,2022-09-26_24h47.42.735,vts_reward_expectancy,2022.2.4,MacIntel,60.0024001,Chrome,1680,1050,,,,,0,804,,,,,,,,,,,,,,,,,F,160,hexagon,1,0,,,,,,,,,,,,,,,,repeat,letter,lettRpt,d,0.7291,Hi,,,,,,1,,,,,,,,low,23,0,23,0,1,,,,,,,,,
296827,2022-09-26_24h47.42.735,vts_reward_expectancy,2022.2.4,MacIntel,60.0024001,Chrome,1680,1050,,,,,1,805,,,,,,,,,,,,,,,,,D,181,star,1,0,,,,,,,,,,,,,,,,repeat,letter,lettRpt,d,0.5651,Lo,,,,,,1,,,,,,,,low,24,0,24,0,1,,,,,,,,,
296827,2022-09-26_24h47.42.735,vts_reward_expectancy,2022.2.4,MacIntel,60.0024001,Chrome,1680,1050,,,,,0,805,,,,,,,,,,,,,,,,,S,167,hexagon,1,0,,,,,,,,,,,,,,,,repeat,letter,lettRpt,f,0.7987,Hi,,,,,,1,,,,,,,,low,25,0,25,0,1,,,,,,,,,
296827,2022-09-26_24h47.42.735,vts_reward_expectancy,2022.2.4,MacIntel,60.0024001,Chrome,1680,1050,,,,,0,805,,,,,,,,,,,,,,,,,W,146,star,0,0,,,,,,,,,,,,,,,,repeat,letter,NA,d,1.0346,Hi,,,,,,1,,,,,,,,low,26,0,26,0,1,,,,,,,,,
296827,2022-09-26_24h47.42.735,vts_reward_expectancy,2022.2.4,MacIntel,60.0024001,Chrome,1680,1050,,,,,1,806,,,,,,,,,,,,,,,,,U,125,hexagon,1,1,,,,,,,,,,,,,,,,switch,number,numSwt,j,0.5977,Hi,,,,,,1,,,,,,,,low,27,0,27,0,1,,,,,,,,,
296827,2022-09-26_24h47.42.735,vts_reward_expectancy,2022.2.4,MacIntel,60.0024001,Chrome,1680,1050,,,,,0,806,,,,,,,,,,,,,,,,,Y,132,hexagon,1,0,,,,,,,,,,,,,,,,repeat,number,numRpt,j,0.6486,Hi,,,,,,1,,,,,,,,low,28,0,28,0,1,,,,,,,,,
296827,2022-09-26_24h47.42.735,vts_reward_expectancy,2022.2.4,MacIntel,60.0024001,Chrome,1680,1050,,,,,0,806,,,,,,,,,,,,,,,,,H,174,star,0,0,,,,,,,,,,,,,,,,repeat,number,NA,j,0.6652,Hi,,,,,,1,,,,,,,,low,29,0,29,0,1,,,,,,,,,
296827,2022-09-26_24h47.42.735,vts_reward_expectancy,2022.2.4,MacIntel,60.0024001,Chrome,1680,1050,,,,,0,806,,,,,,,,,,,,,,,,,F,139,hexagon,1,1,,,,,,,,,,,,,,,,repeat,number,numRpt,j,0.6831,Hi,,,,,,1,,,,,,,,low,30,0,30,0,1,,,,,,,,,
296827,2022-09-26_24h47.42.735,vts_reward_expectancy,2022.2.4,MacIntel,60.0024001,Chrome,1680,1050,,,,,1,807,,,,,,,,,,,,,,,,,B,160,star,1,0,,,,,,,,,,,,,,,,repeat,number,numRpt,k,0.5838,Lo,,,,,,1,,,,,,,,low,31,0,31,0,1,,,,,,,,,
296827,2022-09-26_24h47.42.735,vts_reward_expectancy,2022.2.4,MacIntel,60.0024001,Chrome,1680,1050,,,,,0,807,,,,,,,,,,,,,,,,,U,181,hexagon,1,0,,,,,,,,,,,,,,,,switch,letter,lettSwt,f,0.862,Hi,,,,,,2,,,,,,space,1.6104,low,0,0,0,0,1,,,,,,,,,
296827,2022-09-26_24h47.42.735,vts_reward_expectancy,2022.2.4,MacIntel,60.0024001,Chrome,1680,1050,,,,,10,817,,,,,,,,,,,,,,,,,H,125,star,1,0,,,,,,,,,,,,,,,,switch,number,numSwt,j,0.6324,Lo,,,,,,2,,,,,,,,low,1,0,1,0,1,,,,,,,,,
296827,2022-09-26_24h47.42.735,vts_reward_expectancy,2022.2.4,MacIntel,60.0024001,Chrome,1680,1050,,,,,0,817,,,,,,,,,,,,,,,,,D,146,hexagon,1,0,,,,,,,,,,,,,,,,switch,letter,lettSwt,d,0.9167,Hi,,,,,,2,,,,,,,,low,2,0,2,0,1,,,,,,,,,
296827,2022-09-26_24h47.42.735,vts_reward_expectancy,2022.2.4,MacIntel,60.0024001,Chrome,1680,1050,,,,,10,827,,,,,,,,,,,,,,,,,Y,139,star,1,0,,,,,,,,,,,,,,,,repeat,letter,lettRpt,f,0.5486,Lo,,,,,,2,,,,,,,,low,3,0,3,0,1,,,,,,,,,
296827,2022-09-26_24h47.42.735,vts_reward_expectancy,2022.2.4,MacIntel,60.0024001,Chrome,1680,1050,,,,,10,837,,,,,,,,,,,,,,,,,F,132,hexagon,1,0,,,,,,,,,,,,,,,,switch,number,numSwt,j,0.6148,Hi,,,,,,2,,,,,,,,low,4,0,4,0,1,,,,,,,,,
296827,2022-09-26_24h47.42.735,vts_reward_expectancy,2022.2.4,MacIntel,60.0024001,Chrome,1680,1050,,,,,1,838,,,,,,,,,,,,,,,,,S,167,star,1,0,,,,,,,,,,,,,,,,switch,letter,lettSwt,f,0.6822,Lo,,,,,,2,,,,,,,,low,5,0,5,0,1,,,,,,,,,
296827,2022-09-26_24h47.42.735,vts_reward_expectancy,2022.2.4,MacIntel,60.0024001,Chrome,1680,1050,,,,,10,848,,,,,,,,,,,,,,,,,W,174,star,1,0,,,,,,,,,,,,,,,,repeat,letter,lettRpt,f,0.5672,Lo,,,,,,2,,,,,,,,low,6,0,6,0,1,,,,,,,,,
296827,2022-09-26_24h47.42.735,vts_reward_expectancy,2022.2.4,MacIntel,60.0024001,Chrome,1680,1050,,,,,10,858,,,,,,,,,,,,,,,,,B,160,hexagon,1,0,,,,,,,,,,,,,,,,repeat,letter,lettRpt,d,0.5829,Hi,,,,,,2,,,,,,,,low,7,0,7,0,1,,,,,,,,,
296827,2022-09-26_24h47.42.735,vts_reward_expectancy,2022.2.4,MacIntel,60.0024001,Chrome,1680,1050,,,,,0,858,,,,,,,,,,,,,,,,,U,181,hexagon,1,0,,,,,,,,,,,,,,,,repeat,letter,lettRpt,f,0.9152,Hi,,,,,,2,,,,,,,,low,8,0,8,0,1,,,,,,,,,
296827,2022-09-26_24h47.42.735,vts_reward_expectancy,2022.2.4,MacIntel,60.0024001,Chrome,1680,1050,,,,,10,868,,,,,,,,,,,,,,,,,H,125,star,1,0,,,,,,,,,,,,,,,,repeat,letter,lettRpt,d,0.7341,Lo,,,,,,2,,,,,,,,low,9,0,9,0,1,,,,,,,,,
296827,2022-09-26_24h47.42.735,vts_reward_expectancy,2022.2.4,MacIntel,60.0024001,Chrome,1680,1050,,,,,0,868,,,,,,,,,,,,,,,,,D,146,hexagon,1,0,,,,,,,,,,,,,,,,switch,number,numSwt,j,0.6637,Hi,,,,,,2,,,,,,,,low,10,0,10,0,1,,,,,,,,,
296827,2022-09-26_24h47.42.735,vts_reward_expectancy,2022.2.4,MacIntel,60.0024001,Chrome,1680,1050,,,,,10,878,,,,,,,,,,,,,,,,,Y,139,star,1,0,,,,,,,,,,,,,,,,repeat,number,numRpt,j,0.4999,Lo,,,,,,2,,,,,,,,low,11,0,11,0,1,,,,,,,,,
296827,2022-09-26_24h47.42.735,vts_reward_expectancy,2022.2.4,MacIntel,60.0024001,Chrome,1680,1050,,,,,1,879,,,,,,,,,,,,,,,,,F,132,star,1,0,,,,,,,,,,,,,,,,repeat,number,numRpt,j,0.4993,Lo,,,,,,2,,,,,,,,low,12,0,12,0,1,,,,,,,,,
296827,2022-09-26_24h47.42.735,vts_reward_expectancy,2022.2.4,MacIntel,60.0024001,Chrome,1680,1050,,,,,0,879,,,,,,,,,,,,,,,,,S,167,hexagon,1,0,,,,,,,,,,,,,,,,repeat,number,numRpt,k,1.0327,Hi,,,,,,2,,,,,,,,low,13,0,13,0,1,,,,,,,,,
296827,2022-09-26_24h47.42.735,vts_reward_expectancy,2022.2.4,MacIntel,60.0024001,Chrome,1680,1050,,,,,10,889,,,,,,,,,,,,,,,,,W,174,star,1,0,,,,,,,,,,,,,,,,repeat,number,numRpt,k,0.532,Lo,,,,,,2,,,,,,,,low,14,0,14,0,1,,,,,,,,,
296827,2022-09-26_24h47.42.735,vts_reward_expectancy,2022.2.4,MacIntel,60.0024001,Chrome,1680,1050,,,,,0,889,,,,,,,,,,,,,,,,,B,160,hexagon,0,0,,,,,,,,,,,,,,,,repeat,number,NA,j,0.6485,Lo,,,,,,2,,,,,,,,low,15,0,15,0,1,,,,,,,,,
296827,2022-09-26_24h47.42.735,vts_reward_expectancy,2022.2.4,MacIntel,60.0024001,Chrome,1680,1050,,,,,1,890,,,,,,,,,,,,,,,,,S,146,star,1,1,,,,,,,,,,,,,,,,switch,letter,lettSwt,f,0.6662,Lo,,,,,,2,,,,,,,,low,16,0,16,0,1,,,,,,,,,
296827,2022-09-26_24h47.42.735,vts_reward_expectancy,2022.2.4,MacIntel,60.0024001,Chrome,1680,1050,,,,,0,890,,,,,,,,,,,,,,,,,H,139,hexagon,1,0,,,,,,,,,,,,,,,,repeat,letter,lettRpt,d,0.7984,Hi,,,,,,2,,,,,,,,low,17,0,17,0,1,,,,,,,,,
296827,2022-09-26_24h47.42.735,vts_reward_expectancy,2022.2.4,MacIntel,60.0024001,Chrome,1680,1050,,,,,0,890,,,,,,,,,,,,,,,,,F,132,star,0,0,,,,,,,,,,,,,,,,repeat,letter,NA,f,0.782,Hi,,,,,,2,,,,,,,,low,18,0,18,0,1,,,,,,,,,
296827,2022-09-26_24h47.42.735,vts_reward_expectancy,2022.2.4,MacIntel,60.0024001,Chrome,1680,1050,,,,,0,890,,,,,,,,,,,,,,,,,D,125,hexagon,0,1,,,,,,,,,,,,,,,,switch,number,NA,k,0.765,Hi,,,,,,2,,,,,,,,low,19,0,19,0,1,,,,,,,,,
296827,2022-09-26_24h47.42.735,vts_reward_expectancy,2022.2.4,MacIntel,60.0024001,Chrome,1680,1050,,,,,0,890,,,,,,,,,,,,,,,,,B,167,hexagon,0,1,,,,,,,,,,,,,,,,repeat,number,NA,j,0.5309,Hi,,,,,,2,,,,,,,,low,20,0,20,0,1,,,,,,,,,
296827,2022-09-26_24h47.42.735,vts_reward_expectancy,2022.2.4,MacIntel,60.0024001,Chrome,1680,1050,,,,,10,900,,,,,,,,,,,,,,,,,Y,160,star,1,1,,,,,,,,,,,,,,,,repeat,number,numRpt,k,0.599,Lo,,,,,,2,,,,,,,,low,21,0,21,0,1,,,,,,,,,
296827,2022-09-26_24h47.42.735,vts_reward_expectancy,2022.2.4,MacIntel,60.0024001,Chrome,1680,1050,,,,,0,900,,,,,,,,,,,,,,,,,W,181,hexagon,1,0,,,,,,,,,,,,,,,,repeat,number,numRpt,k,1.0126,Hi,,,,,,2,,,,,,,,low,22,0,22,0,1,,,,,,,,,
296827,2022-09-26_24h47.42.735,vts_reward_expectancy,2022.2.4,MacIntel,60.0024001,Chrome,1680,1050,,,,,10,910,,,,,,,,,,,,,,,,,U,174,star,1,0,,,,,,,,,,,,,,,,repeat,number,numRpt,k,0.6341,Lo,,,,,,2,,,,,,,,low,23,0,23,0,1,,,,,,,,,
296827,2022-09-26_24h47.42.735,vts_reward_expectancy,2022.2.4,MacIntel,60.0024001,Chrome,1680,1050,,,,,0,910,,,,,,,,,,,,,,,,,S,146,star,0,0,,,,,,,,,,,,,,,,repeat,number,NA,k,0.7795,Lo,,,,,,2,,,,,,,,low,24,0,24,0,1,,,,,,,,,
296827,2022-09-26_24h47.42.735,vts_reward_expectancy,2022.2.4,MacIntel,60.0024001,Chrome,1680,1050,,,,,0,910,,,,,,,,,,,,,,,,,H,139,hexagon,1,1,,,,,,,,,,,,,,,,switch,letter,lettSwt,d,0.8819,Hi,,,,,,2,,,,,,,,low,25,0,25,0,1,,,,,,,,,
296827,2022-09-26_24h47.42.735,vts_reward_expectancy,2022.2.4,MacIntel,60.0024001,Chrome,1680,1050,,,,,10,920,,,,,,,,,,,,,,,,,B,167,hexagon,1,0,,,,,,,,,,,,,,,,repeat,letter,lettRpt,d,0.6476,Hi,,,,,,2,,,,,,,,low,26,0,26,0,1,,,,,,,,,
296827,2022-09-26_24h47.42.735,vts_reward_expectancy,2022.2.4,MacIntel,60.0024001,Chrome,1680,1050,,,,,1,921,,,,,,,,,,,,,,,,,Y,174,star,1,0,,,,,,,,,,,,,,,,switch,number,numSwt,k,0.5988,Lo,,,,,,2,,,,,,,,low,27,0,27,0,1,,,,,,,,,
296827,2022-09-26_24h47.42.735,vts_reward_expectancy,2022.2.4,MacIntel,60.0024001,Chrome,1680,1050,,,,,0,921,,,,,,,,,,,,,,,,,F,132,hexagon,1,0,,,,,,,,,,,,,,,,repeat,number,numRpt,j,0.615,Hi,,,,,,2,,,,,,,,low,28,0,28,0,1,,,,,,,,,
296827,2022-09-26_24h47.42.735,vts_reward_expectancy,2022.2.4,MacIntel,60.0024001,Chrome,1680,1050,,,,,1,922,,,,,,,,,,,,,,,,,D,160,star,1,0,,,,,,,,,,,,,,,,switch,letter,lettSwt,d,0.5663,Lo,,,,,,2,,,,,,,,low,29,0,29,0,1,,,,,,,,,
296827,2022-09-26_24h47.42.735,vts_reward_expectancy,2022.2.4,MacIntel,60.0024001,Chrome,1680,1050,,,,,10,932,,,,,,,,,,,,,,,,,U,125,hexagon,1,0,,,,,,,,,,,,,,,,repeat,letter,lettRpt,f,0.5325,Hi,,,,,,2,,,,,,,,low,30,0,30,0,1,,,,,,,,,
296827,2022-09-26_24h47.42.735,vts_reward_expectancy,2022.2.4,MacIntel,60.0024001,Chrome,1680,1050,,,,,1,933,,,,,,,,,,,,,,,,,W,181,star,1,0,,,,,,,,,,,,,,,,repeat,letter,lettRpt,f,0.7296,Lo,,,,,,2,,,,,,,,low,31,0,31,0,1,,,,,,,,,
296827,2022-09-26_24h47.42.735,vts_reward_expectancy,2022.2.4,MacIntel,60.0024001,Chrome,1680,1050,,,,,1,934,,,,,,,,,,,,,,,,,B,181,circle,1,0,,,,,,,,,,,,,,,,repeat,letter,lettRpt,d,0.6834,Lo,,,,,,3,,,,,,space,1.8222,high,0,0,0,0,1,,,,,,,,,
296827,2022-09-26_24h47.42.735,vts_reward_expectancy,2022.2.4,MacIntel,60.0024001,Chrome,1680,1050,,,,,10,944,,,,,,,,,,,,,,,,,S,167,triangle,1,0,,,,,,,,,,,,,,,,repeat,letter,lettRpt,f,0.5485,Hi,,,,,,3,,,,,,,,high,1,0,1,0,1,,,,,,,,,
296827,2022-09-26_24h47.42.735,vts_reward_expectancy,2022.2.4,MacIntel,60.0024001,Chrome,1680,1050,,,,,1,945,,,,,,,,,,,,,,,,,U,125,circle,1,0,,,,,,,,,,,,,,,,switch,number,numSwt,j,0.5485,Lo,,,,,,3,,,,,,,,high,2,0,2,0,1,,,,,,,,,
296827,2022-09-26_24h47.42.735,vts_reward_expectancy,2022.2.4,MacIntel,60.0024001,Chrome,1680,1050,,,,,1,946,,,,,,,,,,,,,,,,,Y,132,triangle,1,0,,,,,,,,,,,,,,,,repeat,number,numRpt,j,0.5143,Hi,,,,,,3,,,,,,,,high,3,0,3,0,1,,,,,,,,,
296827,2022-09-26_24h47.42.735,vts_reward_expectancy,2022.2.4,MacIntel,60.0024001,Chrome,1680,1050,,,,,10,956,,,,,,,,,,,,,,,,,W,139,triangle,1,0,,,,,,,,,,,,,,,,repeat,number,numRpt,j,0.549,Hi,,,,,,3,,,,,,,,high,4,0,4,0,1,,,,,,,,,
296827,2022-09-26_24h47.42.735,vts_reward_expectancy,2022.2.4,MacIntel,60.0024001,Chrome,1680,1050,,,,,10,966,,,,,,,,,,,,,,,,,F,160,circle,1,0,,,,,,,,,,,,,,,,switch,letter,lettSwt,d,0.5318,Lo,,,,,,3,,,,,,,,high,5,0,5,0,1,,,,,,,,,
296827,2022-09-26_24h47.42.735,vts_reward_expectancy,2022.2.4,MacIntel,60.0024001,Chrome,1680,1050,,,,,0,966,,,,,,,,,,,,,,,,,H,174,triangle,1,0,,,,,,,,,,,,,,,,repeat,letter,lettRpt,d,0.6472,Hi,,,,,,3,,,,,,,,high,6,0,6,0,1,,,,,,,,,
296827,2022-09-26_24h47.42.735,vts_reward_expectancy,2022.2.4,MacIntel,60.0024001,Chrome,1680,1050,,,,,1,967,,,,,,,,,,,,,,,,,D,146,circle,1,0,,,,,,,,,,,,,,,,repeat,letter,lettRpt,d,0.649,Lo,,,,,,3,,,,,,,,high,7,0,7,0,1,,,,,,,,,
296827,2022-09-26_24h47.42.735,vts_reward_expectancy,2022.2.4,MacIntel,60.0024001,Chrome,1680,1050,,,,,0,967,,,,,,,,,,,,,,,,,B,181,triangle,1,0,,,,,,,,,,,,,,,,repeat,letter,lettRpt,d,0.6002,Hi,,,,,,3,,,,,,,,high,8,0,8,0,1,,,,,,,,,
296827,2022-09-26_24h47.42.735,vts_reward_expectancy,2022.2.4,MacIntel,60.0024001,Chrome,1680,1050,,,,,0,967,,,,,,,,,,,,,,,,,S,167,circle,0,0,,,,,,,,,,,,,,,,repeat,letter,NA,d,0.5656,Hi,,,,,,3,,,,,,,,high,9,0,9,0,1,,,,,,,,,
296827,2022-09-26_24h47.42.735,vts_reward_expectancy,2022.2.4,MacIntel,60.0024001,Chrome,1680,1050,,,,,0,967,,,,,,,,,,,,,,,,,U,125,triangle,1,1,,,,,,,,,,,,,,,,repeat,letter,lettRpt,f,0.636,Hi,,,,,,3,,,,,,,,high,10,0,10,0,1,,,,,,,,,
296827,2022-09-26_24h47.42.735,vts_reward_expectancy,2022.2.4,MacIntel,60.0024001,Chrome,1680,1050,,,,,1,968,,,,,,,,,,,,,,,,,Y,132,circle,1,0,,,,,,,,,,,,,,,,repeat,letter,lettRpt,f,0.6824,Lo,,,,,,3,,,,,,,,high,11,0,11,0,1,,,,,,,,,
296827,2022-09-26_24h47.42.735,vts_reward_expectancy,2022.2.4,MacIntel,60.0024001,Chrome,1680,1050,,,,,1,969,,,,,,,,,,,,,,,,,W,139,circle,1,0,,,,,,,,,,,,,,,,switch,number,numSwt,j,0.5966,Lo,,,,,,3,,,,,,,,high,12,0,12,0,1,,,,,,,,,
296827,2022-09-26_24h47.42.735,vts_reward_expectancy,2022.2.4,MacIntel,60.0024001,Chrome,1680,1050,,,,,0,969,,,,,,,,,,,,,,,,,F,160,triangle,0,0,,,,,,,,,,,,,,,,repeat,number,NA,j,0.6202,Lo,,,,,,3,,,,,,,,high,13,0,13,0,1,,,,,,,,,
296827,2022-09-26_24h47.42.735,vts_reward_expectancy,2022.2.4,MacIntel,60.0024001,Chrome,1680,1050,,,,,10,979,,,,,,,,,,,,,,,,,H,174,circle,1,1,,,,,,,,,,,,,,,,repeat,number,numRpt,k,0.4984,Lo,,,,,,3,,,,,,,,high,14,0,14,0,1,,,,,,,,,
296827,2022-09-26_24h47.42.735,vts_reward_expectancy,2022.2.4,MacIntel,60.0024001,Chrome,1680,1050,,,,,10,989,,,,,,,,,,,,,,,,,D,146,triangle,1,0,,,,,,,,,,,,,,,,switch,letter,lettSwt,d,0.569,Hi,,,,,,3,,,,,,,,high,15,0,15,0,1,,,,,,,,,
296827,2022-09-26_24h47.42.735,vts_reward_expectancy,2022.2.4,MacIntel,60.0024001,Chrome,1680,1050,,,,,10,999,,,,,,,,,,,,,,,,,Y,125,triangle,1,0,,,,,,,,,,,,,,,,switch,number,numSwt,j,0.5002,Hi,,,,,,3,,,,,,,,high,16,0,16,0,1,,,,,,,,,
296827,2022-09-26_24h47.42.735,vts_reward_expectancy,2022.2.4,MacIntel,60.0024001,Chrome,1680,1050,,,,,1,1000,,,,,,,,,,,,,,,,,W,139,circle,1,0,,,,,,,,,,,,,,,,repeat,number,numRpt,j,0.6668,Lo,,,,,,3,,,,,,,,high,17,0,17,0,1,,,,,,,,,
296827,2022-09-26_24h47.42.735,vts_reward_expectancy,2022.2.4,MacIntel,60.0024001,Chrome,1680,1050,,,,,10,1010,,,,,,,,,,,,,,,,,F,132,triangle,1,0,,,,,,,,,,,,,,,,switch,letter,lettSwt,d,0.5152,Hi,,,,,,3,,,,,,,,high,18,0,18,0,1,,,,,,,,,
296827,2022-09-26_24h47.42.735,vts_reward_expectancy,2022.2.4,MacIntel,60.0024001,Chrome,1680,1050,,,,,1,1011,,,,,,,,,,,,,,,,,H,146,circle,1,0,,,,,,,,,,,,,,,,repeat,letter,lettRpt,d,0.6318,Lo,,,,,,3,,,,,,,,high,19,0,19,0,1,,,,,,,,,
296827,2022-09-26_24h47.42.735,vts_reward_expectancy,2022.2.4,MacIntel,60.0024001,Chrome,1680,1050,,,,,0,1011,,,,,,,,,,,,,,,,,U,167,triangle,1,0,,,,,,,,,,,,,,,,repeat,letter,lettRpt,f,0.6005,Hi,,,,,,3,,,,,,,,high,20,0,20,0,1,,,,,,,,,
296827,2022-09-26_24h47.42.735,vts_reward_expectancy,2022.2.4,MacIntel,60.0024001,Chrome,1680,1050,,,,,1,1012,,,,,,,,,,,,,,,,,B,160,circle,1,0,,,,,,,,,,,,,,,,repeat,letter,lettRpt,d,0.4659,Lo,,,,,,3,,,,,,,,high,21,0,21,0,1,,,,,,,,,
296827,2022-09-26_24h47.42.735,vts_reward_expectancy,2022.2.4,MacIntel,60.0024001,Chrome,1680,1050,,,,,1,1013,,,,,,,,,,,,,,,,,S,181,circle,1,0,,,,,,,,,,,,,,,,repeat,letter,lettRpt,f,0.6343,Lo,,,,,,3,,,,,,,,high,22,0,22,0,1,,,,,,,,,
296827,2022-09-26_24h47.42.735,vts_reward_expectancy,2022.2.4,MacIntel,60.0024001,Chrome,1680,1050,,,,,0,1013,,,,,,,,,,,,,,,,,D,174,triangle,1,0,,,,,,,,,,,,,,,,repeat,letter,lettRpt,d,0.6665,Hi,,,,,,3,,,,,,,,high,23,0,23,0,1,,,,,,,,,
296827,2022-09-26_24h47.42.735,vts_reward_expectancy,2022.2.4,MacIntel,60.0024001,Chrome,1680,1050,,,,,1,1014,,,,,,,,,,,,,,,,,B,132,circle,1,0,,,,,,,,,,,,,,,,repeat,letter,lettRpt,d,0.6344,Lo,,,,,,3,,,,,,,,high,24,0,24,0,1,,,,,,,,,
296827,2022-09-26_24h47.42.735,vts_reward_expectancy,2022.2.4,MacIntel,60.0024001,Chrome,1680,1050,,,,,10,1024,,,,,,,,,,,,,,,,,H,160,triangle,1,0,,,,,,,,,,,,,,,,switch,number,numSwt,k,0.5308,Hi,,,,,,3,,,,,,,,high,25,0,25,0,1,,,,,,,,,
296827,2022-09-26_24h47.42.735,vts_reward_expectancy,2022.2.4,MacIntel,60.0024001,Chrome,1680,1050,,,,,1,1025,,,,,,,,,,,,,,,,,S,139,circle,1,0,,,,,,,,,,,,,,,,repeat,number,numRpt,j,0.5836,Lo,,,,,,3,,,,,,,,high,26,0,26,0,1,,,,,,,,,
296827,2022-09-26_24h47.42.735,vts_reward_expectancy,2022.2.4,MacIntel,60.0024001,Chrome,1680,1050,,,,,10,1035,,,,,,,,,,,,,,,,,F,174,triangle,1,0,,,,,,,,,,,,,,,,repeat,number,numRpt,k,0.4984,Hi,,,,,,3,,,,,,,,high,27,0,27,0,1,,,,,,,,,
296827,2022-09-26_24h47.42.735,vts_reward_expectancy,2022.2.4,MacIntel,60.0024001,Chrome,1680,1050,,,,,0,1035,,,,,,,,,,,,,,,,,W,125,triangle,0,0,,,,,,,,,,,,,,,,switch,letter,NA,d,0.5775,Hi,,,,,,3,,,,,,,,high,28,0,28,0,1,,,,,,,,,
296827,2022-09-26_24h47.42.735,vts_reward_expectancy,2022.2.4,MacIntel,60.0024001,Chrome,1680,1050,,,,,1,1036,,,,,,,,,,,,,,,,,D,146,circle,1,1,,,,,,,,,,,,,,,,repeat,letter,lettRpt,d,0.6198,Lo,,,,,,3,,,,,,,,high,29,0,29,0,1,,,,,,,,,
296827,2022-09-26_24h47.42.735,vts_reward_expectancy,2022.2.4,MacIntel,60.0024001,Chrome,1680,1050,,,,,0,1036,,,,,,,,,,,,,,,,,U,181,triangle,0,0,,,,,,,,,,,,,,,,switch,number,NA,j,0.7334,Lo,,,,,,3,,,,,,,,high,30,0,30,0,1,,,,,,,,,
296827,2022-09-26_24h47.42.735,vts_reward_expectancy,2022.2.4,MacIntel,60.0024001,Chrome,1680,1050,,,,,1,1037,,,,,,,,,,,,,,,,,Y,167,circle,1,1,,,,,,,,,,,,,,,,switch,letter,lettSwt,f,0.566,Lo,,,,,,3,,,,,,,,high,31,0,31,0,1,,,,,,,,,
296827,2022-09-26_24h47.42.735,vts_reward_expectancy,2022.2.4,MacIntel,60.0024001,Chrome,1680,1050,,,,,1,1038,,,,,,,,,,,,,,,,,D,132,star,1,0,,,,,,,,,,,,,,,,repeat,letter,lettRpt,d,0.765,Lo,,,,,,4,,,,,,space,0.7589,low,0,0,0,0,1,,,,,,,,,
296827,2022-09-26_24h47.42.735,vts_reward_expectancy,2022.2.4,MacIntel,60.0024001,Chrome,1680,1050,,,,,0,1038,,,,,,,,,,,,,,,,,H,174,hexagon,1,0,,,,,,,,,,,,,,,,repeat,letter,lettRpt,d,0.7663,Hi,,,,,,4,,,,,,,,low,1,0,1,0,1,,,,,,,,,
296827,2022-09-26_24h47.42.735,vts_reward_expectancy,2022.2.4,MacIntel,60.0024001,Chrome,1680,1050,,,,,1,1039,,,,,,,,,,,,,,,,,F,139,star,1,0,,,,,,,,,,,,,,,,switch,number,numSwt,j,0.6016,Lo,,,,,,4,,,,,,,,low,2,0,2,0,1,,,,,,,,,
296827,2022-09-26_24h47.42.735,vts_reward_expectancy,2022.2.4,MacIntel,60.0024001,Chrome,1680,1050,,,,,0,1039,,,,,,,,,,,,,,,,,W,167,hexagon,1,0,,,,,,,,,,,,,,,,switch,letter,lettSwt,f,0.7317,Hi,,,,,,4,,,,,,,,low,3,0,3,0,1,,,,,,,,,
296827,2022-09-26_24h47.42.735,vts_reward_expectancy,2022.2.4,MacIntel,60.0024001,Chrome,1680,1050,,,,,10,1049,,,,,,,,,,,,,,,,,Y,125,star,1,0,,,,,,,,,,,,,,,,switch,number,numSwt,j,0.6831,Lo,,,,,,4,,,,,,,,low,4,0,4,0,1,,,,,,,,,
296827,2022-09-26_24h47.42.735,vts_reward_expectancy,2022.2.4,MacIntel,60.0024001,Chrome,1680,1050,,,,,0,1049,,,,,,,,,,,,,,,,,B,160,hexagon,1,0,,,,,,,,,,,,,,,,switch,letter,lettSwt,d,0.6832,Hi,,,,,,4,,,,,,,,low,5,0,5,0,1,,,,,,,,,
296827,2022-09-26_24h47.42.735,vts_reward_expectancy,2022.2.4,MacIntel,60.0024001,Chrome,1680,1050,,,,,0,1049,,,,,,,,,,,,,,,,,U,146,hexagon,1,0,,,,,,,,,,,,,,,,switch,number,numSwt,j,0.6145,Hi,,,,,,4,,,,,,,,low,6,0,6,0,1,,,,,,,,,
296827,2022-09-26_24h47.42.735,vts_reward_expectancy,2022.2.4,MacIntel,60.0024001,Chrome,1680,1050,,,,,1,1050,,,,,,,,,,,,,,,,,S,181,star,1,0,,,,,,,,,,,,,,,,repeat,number,numRpt,k,0.6524,Lo,,,,,,4,,,,,,,,low,7,0,7,0,1,,,,,,,,,
296827,2022-09-26_24h47.42.735,vts_reward_expectancy,2022.2.4,MacIntel,60.0024001,Chrome,1680,1050,,,,,0,1050,,,,,,,,,,,,,,,,,D,132,hexagon,1,0,,,,,,,,,,,,,,,,repeat,number,numRpt,j,0.717,Hi,,,,,,4,,,,,,,,low,8,0,8,0,1,,,,,,,,,
296827,2022-09-26_24h47.42.735,vts_reward_expectancy,2022.2.4,MacIntel,60.0024001,Chrome,1680,1050,,,,,1,1051,,,,,,,,,,,,,,,,,H,174,star,1,0,,,,,,,,,,,,,,,,switch,letter,lettSwt,d,0.5646,Lo,,,,,,4,,,,,,,,low,9,0,9,0,1,,,,,,,,,
296827,2022-09-26_24h47.42.735,vts_reward_expectancy,2022.2.4,MacIntel,60.0024001,Chrome,1680,1050,,,,,10,1061,,,,,,,,,,,,,,,,,F,139,hexagon,1,0,,,,,,,,,,,,,,,,switch,number,numSwt,j,0.5169,Hi,,,,,,4,,,,,,,,low,10,0,10,0,1,,,,,,,,,
296827,2022-09-26_24h47.42.735,vts_reward_expectancy,2022.2.4,MacIntel,60.0024001,Chrome,1680,1050,,,,,1,1062,,,,,,,,,,,,,,,,,W,167,star,1,0,,,,,,,,,,,,,,,,switch,letter,lettSwt,f,0.5126,Lo,,,,,,4,,,,,,,,low,11,0,11,0,1,,,,,,,,,
296827,2022-09-26_24h47.42.735,vts_reward_expectancy,2022.2.4,MacIntel,60.0024001,Chrome,1680,1050,,,,,1,1063,,,,,,,,,,,,,,,,,Y,125,hexagon,1,0,,,,,,,,,,,,,,,,switch,number,numSwt,j,0.4986,Hi,,,,,,4,,,,,,,,low,12,0,12,0,1,,,,,,,,,
296827,2022-09-26_24h47.42.735,vts_reward_expectancy,2022.2.4,MacIntel,60.0024001,Chrome,1680,1050,,,,,10,1073,,,,,,,,,,,,,,,,,B,160,star,1,0,,,,,,,,,,,,,,,,switch,letter,lettSwt,d,0.6813,Lo,,,,,,4,,,,,,,,low,13,0,13,0,1,,,,,,,,,
296827,2022-09-26_24h47.42.735,vts_reward_expectancy,2022.2.4,MacIntel,60.0024001,Chrome,1680,1050,,,,,10,1083,,,,,,,,,,,,,,,,,U,146,hexagon,1,0,,,,,,,,,,,,,,,,repeat,letter,lettRpt,f,0.6157,Hi,,,,,,4,,,,,,,,low,14,0,14,0,1,,,,,,,,,
296827,2022-09-26_24h47.42.735,vts_reward_expectancy,2022.2.4,MacIntel,60.0024001,Chrome,1680,1050,,,,,0,1083,,,,,,,,,,,,,,,,,S,181,star,0,0,,,,,,,,,,,,,,,,switch,number,NA,j,0.5506,Hi,,,,,,4,,,,,,,,low,15,0,15,0,1,,,,,,,,,
296827,2022-09-26_24h47.42.735,vts_reward_expectancy,2022.2.4,MacIntel,60.0024001,Chrome,1680,1050,,,,,0,1083,,,,,,,,,,,,,,,,,Y,146,hexagon,0,1,,,,,,,,,,,,,,,,repeat,number,NA,k,0.6807,Hi,,,,,,4,,,,,,,,low,16,0,16,0,1,,,,,,,,,
296827,2022-09-26_24h47.42.735,vts_reward_expectancy,2022.2.4,MacIntel,60.0024001,Chrome,1680,1050,,,,,1,1084,,,,,,,,,,,,,,,,,F,132,star,1,1,,,,,,,,,,,,,,,,switch,letter,lettSwt,d,0.5993,Lo,,,,,,4,,,,,,,,low,17,0,17,0,1,,,,,,,,,
296827,2022-09-26_24h47.42.735,vts_reward_expectancy,2022.2.4,MacIntel,60.0024001,Chrome,1680,1050,,,,,1,1085,,,,,,,,,,,,,,,,,B,174,star,1,0,,,,,,,,,,,,,,,,repeat,letter,lettRpt,d,0.7152,Lo,,,,,,4,,,,,,,,low,18,0,18,0,1,,,,,,,,,
296827,2022-09-26_24h47.42.735,vts_reward_expectancy,2022.2.4,MacIntel,60.0024001,Chrome,1680,1050,,,,,0,1085,,,,,,,,,,,,,,,,,U,125,hexagon,1,0,,,,,,,,,,,,,,,,repeat,letter,lettRpt,f,0.6344,Hi,,,,,,4,,,,,,,,low,19,0,19,0,1,,,,,,,,,
296827,2022-09-26_24h47.42.735,vts_reward_expectancy,2022.2.4,MacIntel,60.0024001,Chrome,1680,1050,,,,,10,1095,,,,,,,,,,,,,,,,,W,160,hexagon,1,0,,,,,,,,,,,,,,,,repeat,letter,lettRpt,f,0.5837,Hi,,,,,,4,,,,,,,,low,20,0,20,0,1,,,,,,,,,
296827,2022-09-26_24h47.42.735,vts_reward_expectancy,2022.2.4,MacIntel,60.0024001,Chrome,1680,1050,,,,,1,1096,,,,,,,,,,,,,,,,,D,167,star,1,0,,,,,,,,,,,,,,,,repeat,letter,lettRpt,d,0.4817,Lo,,,,,,4,,,,,,,,low,21,0,21,0,1,,,,,,,,,
296827,2022-09-26_24h47.42.735,vts_reward_expectancy,2022.2.4,MacIntel,60.0024001,Chrome,1680,1050,,,,,0,1096,,,,,,,,,,,,,,,,,H,181,hexagon,1,0,,,,,,,,,,,,,,,,switch,number,numSwt,k,0.5326,Hi,,,,,,4,,,,,,,,low,22,0,22,0,1,,,,,,,,,
296827,2022-09-26_24h47.42.735,vts_reward_expectancy,2022.2.4,MacIntel,60.0024001,Chrome,1680,1050,,,,,1,1097,,,,,,,,,,,,,,,,,S,139,star,1,0,,,,,,,,,,,,,,,,repeat,number,numRpt,j,0.6984,Lo,,,,,,4,,,,,,,,low,23,0,23,0,1,,,,,,,,,
296827,2022-09-26_24h47.42.735,vts_reward_expectancy,2022.2.4,MacIntel,60.0024001,Chrome,1680,1050,,,,,0,1097,,,,,,,,,,,,,,,,,H,167,hexagon,1,0,,,,,,,,,,,,,,,,switch,letter,lettSwt,d,0.6323,Hi,,,,,,4,,,,,,,,low,24,0,24,0,1,,,,,,,,,
296827,2022-09-26_24h47.42.735,vts_reward_expectancy,2022.2.4,MacIntel,60.0024001,Chrome,1680,1050,,,,,1,1098,,,,,,,,,,,,,,,,,B,139,star,1,0,,,,,,,,,,,,,,,,repeat,letter,lettRpt,d,0.767,Lo,,,,,,4,,,,,,,,low,25,0,25,0,1,,,,,,,,,
296827,2022-09-26_24h47.42.735,vts_reward_expectancy,2022.2.4,MacIntel,60.0024001,Chrome,1680,1050,,,,,0,1098,,,,,,,,,,,,,,,,,W,160,star,0,0,,,,,,,,,,,,,,,,switch,number,NA,j,0.6165,Lo,,,,,,4,,,,,,,,low,26,0,26,0,1,,,,,,,,,
296827,2022-09-26_24h47.42.735,vts_reward_expectancy,2022.2.4,MacIntel,60.0024001,Chrome,1680,1050,,,,,0,1098,,,,,,,,,,,,,,,,,S,174,hexagon,1,1,,,,,,,,,,,,,,,,switch,letter,lettSwt,f,0.7148,Hi,,,,,,4,,,,,,,,low,27,0,27,0,1,,,,,,,,,
296827,2022-09-26_24h47.42.735,vts_reward_expectancy,2022.2.4,MacIntel,60.0024001,Chrome,1680,1050,,,,,0,1098,,,,,,,,,,,,,,,,,Y,125,hexagon,1,0,,,,,,,,,,,,,,,,switch,number,numSwt,j,0.5818,Hi,,,,,,4,,,,,,,,low,28,0,28,0,1,,,,,,,,,
296827,2022-09-26_24h47.42.735,vts_reward_expectancy,2022.2.4,MacIntel,60.0024001,Chrome,1680,1050,,,,,1,1099,,,,,,,,,,,,,,,,,D,181,star,1,0,,,,,,,,,,,,,,,,switch,letter,lettSwt,d,0.6341,Lo,,,,,,4,,,,,,,,low,29,0,29,0,1,,,,,,,,,
296827,2022-09-26_24h47.42.735,vts_reward_expectancy,2022.2.4,MacIntel,60.0024001,Chrome,1680,1050,,,,,0,1099,,,,,,,,,,,,,,,,,F,132,hexagon,0,0,,,,,,,,,,,,,,,,repeat,letter,NA,f,1.0165,Lo,,,,,,4,,,,,,,,low,30,0,30,0,1,,,,,,,,,
296827,2022-09-26_24h47.42.735,vts_reward_expectancy,2022.2.4,MacIntel,60.0024001,Chrome,1680,1050,,,,,0,1099,,,,,,,,,,,,,,,,,U,146,star,0,1,,,,,,,,,,,,,,,,switch,number,NA,k,0.5328,Lo,,,,,,4,,,,,,,,low,31,0,31,0,1,,,,,,,,,
296827,2022-09-26_24h47.42.735,vts_reward_expectancy,2022.2.4,MacIntel,60.0024001,Chrome,1680,1050,,,,,10,1109,,,,,,,,,,,,,,,,,D,132,circle,1,1,,,,,,,,,,,,,,,,repeat,number,numRpt,j,0.6337,Lo,,,,,,5,,,,,,space,0.7761,high,0,0,0,0,1,,,,,,,,,
296827,2022-09-26_24h47.42.735,vts_reward_expectancy,2022.2.4,MacIntel,60.0024001,Chrome,1680,1050,,,,,10,1119,,,,,,,,,,,,,,,,,S,125,triangle,1,0,,,,,,,,,,,,,,,,switch,letter,lettSwt,f,0.5989,Hi,,,,,,5,,,,,,,,high,1,0,1,0,1,,,,,,,,,
296827,2022-09-26_24h47.42.735,vts_reward_expectancy,2022.2.4,MacIntel,60.0024001,Chrome,1680,1050,,,,,1,1120,,,,,,,,,,,,,,,,,W,146,circle,1,0,,,,,,,,,,,,,,,,repeat,letter,lettRpt,f,0.5658,Lo,,,,,,5,,,,,,,,high,2,0,2,0,1,,,,,,,,,
296827,2022-09-26_24h47.42.735,vts_reward_expectancy,2022.2.4,MacIntel,60.0024001,Chrome,1680,1050,,,,,10,1130,,,,,,,,,,,,,,,,,B,160,triangle,1,0,,,,,,,,,,,,,,,,switch,number,numSwt,k,0.5165,Hi,,,,,,5,,,,,,,,high,3,0,3,0,1,,,,,,,,,
296827,2022-09-26_24h47.42.735,vts_reward_expectancy,2022.2.4,MacIntel,60.0024001,Chrome,1680,1050,,,,,1,1131,,,,,,,,,,,,,,,,,Y,181,circle,1,0,,,,,,,,,,,,,,,,repeat,number,numRpt,k,0.536,Lo,,,,,,5,,,,,,,,high,4,0,4,0,1,,,,,,,,,
296827,2022-09-26_24h47.42.735,vts_reward_expectancy,2022.2.4,MacIntel,60.0024001,Chrome,1680,1050,,,,,10,1141,,,,,,,,,,,,,,,,,U,167,triangle,1,0,,,,,,,,,,,,,,,,repeat,number,numRpt,k,0.5493,Hi,,,,,,5,,,,,,,,high,5,0,5,0,1,,,,,,,,,
296827,2022-09-26_24h47.42.735,vts_reward_expectancy,2022.2.4,MacIntel,60.0024001,Chrome,1680,1050,,,,,1,1142,,,,,,,,,,,,,,,,,H,174,circle,1,0,,,,,,,,,,,,,,,,switch,letter,lettSwt,d,0.6997,Lo,,,,,,5,,,,,,,,high,6,0,6,0,1,,,,,,,,,
296827,2022-09-26_24h47.42.735,vts_reward_expectancy,2022.2.4,MacIntel,60.0024001,Chrome,1680,1050,,,,,0,1142,,,,,,,,,,,,,,,,,F,139,triangle,1,0,,,,,,,,,,,,,,,,repeat,letter,lettRpt,d,0.7327,Hi,,,,,,5,,,,,,,,high,7,0,7,0,1,,,,,,,,,
296827,2022-09-26_24h47.42.735,vts_reward_expectancy,2022.2.4,MacIntel,60.0024001,Chrome,1680,1050,,,,,0,1142,,,,,,,,,,,,,,,,,D,132,triangle,1,0,,,,,,,,,,,,,,,,repeat,letter,lettRpt,d,0.8002,Hi,,,,,,5,,,,,,,,high,8,0,8,0,1,,,,,,,,,
296827,2022-09-26_24h47.42.735,vts_reward_expectancy,2022.2.4,MacIntel,60.0024001,Chrome,1680,1050,,,,,1,1143,,,,,,,,,,,,,,,,,S,125,circle,1,0,,,,,,,,,,,,,,,,repeat,letter,lettRpt,f,0.8165,Lo,,,,,,5,,,,,,,,high,9,0,9,0,1,,,,,,,,,
296827,2022-09-26_24h47.42.735,vts_reward_expectancy,2022.2.4,MacIntel,60.0024001,Chrome,1680,1050,,,,,0,1143,,,,,,,,,,,,,,,,,W,146,triangle,1,0,,,,,,,,,,,,,,,,repeat,letter,lettRpt,f,0.815,Hi,,,,,,5,,,,,,,,high,10,0,10,0,1,,,,,,,,,
296827,2022-09-26_24h47.42.735,vts_reward_expectancy,2022.2.4,MacIntel,60.0024001,Chrome,1680,1050,,,,,10,1153,,,,,,,,,,,,,,,,,B,160,circle,1,0,,,,,,,,,,,,,,,,repeat,letter,lettRpt,d,0.7523,Lo,,,,,,5,,,,,,,,high,11,0,11,0,1,,,,,,,,,
296827,2022-09-26_24h47.42.735,vts_reward_expectancy,2022.2.4,MacIntel,60.0024001,Chrome,1680,1050,,,,,1,1154,,,,,,,,,,,,,,,,,Y,181,circle,1,0,,,,,,,,,,,,,,,,repeat,letter,lettRpt,f,0.6487,Lo,,,,,,5,,,,,,,,high,12,0,12,0,1,,,,,,,,,
296827,2022-09-26_24h47.42.735,vts_reward_expectancy,2022.2.4,MacIntel,60.0024001,Chrome,1680,1050,,,,,0,1154,,,,,,,,,,,,,,,,,U,167,triangle,1,0,,,,,,,,,,,,,,,,repeat,letter,lettRpt,f,0.732,Hi,,,,,,5,,,,,,,,high,13,0,13,0,1,,,,,,,,,
296827,2022-09-26_24h47.42.735,vts_reward_expectancy,2022.2.4,MacIntel,60.0024001,Chrome,1680,1050,,,,,0,1154,,,,,,,,,,,,,,,,,H,174,circle,0,0,,,,,,,,,,,,,,,,repeat,letter,NA,f,0.6489,Hi,,,,,,5,,,,,,,,high,14,0,14,0,1,,,,,,,,,
296827,2022-09-26_24h47.42.735,vts_reward_expectancy,2022.2.4,MacIntel,60.0024001,Chrome,1680,1050,,,,,0,1154,,,,,,,,,,,,,,,,,F,139,triangle,1,1,,,,,,,,,,,,,,,,switch,number,numSwt,j,0.6339,Hi,,,,,,5,,,,,,,,high,15,0,15,0,1,,,,,,,,,
296827,2022-09-26_24h47.42.735,vts_reward_expectancy,2022.2.4,MacIntel,60.0024001,Chrome,1680,1050,,,,,10,1164,,,,,,,,,,,,,,,,,H,146,triangle,1,0,,,,,,,,,,,,,,,,repeat,number,numRpt,j,0.6155,Hi,,,,,,5,,,,,,,,high,16,0,16,0,1,,,,,,,,,
296827,2022-09-26_24h47.42.735,vts_reward_expectancy,2022.2.4,MacIntel,60.0024001,Chrome,1680,1050,,,,,1,1165,,,,,,,,,,,,,,,,,U,160,circle,1,0,,,,,,,,,,,,,,,,repeat,number,numRpt,k,0.6989,Lo,,,,,,5,,,,,,,,high,17,0,17,0,1,,,,,,,,,
296827,2022-09-26_24h47.42.735,vts_reward_expectancy,2022.2.4,MacIntel,60.0024001,Chrome,1680,1050,,,,,0,1165,,,,,,,,,,,,,,,,,B,174,circle,0,0,,,,,,,,,,,,,,,,repeat,number,NA,j,0.6669,Lo,,,,,,5,,,,,,,,high,18,0,18,0,1,,,,,,,,,
296827,2022-09-26_24h47.42.735,vts_reward_expectancy,2022.2.4,MacIntel,60.0024001,Chrome,1680,1050,,,,,0,1165,,,,,,,,,,,,,,,,,W,167,triangle,0,1,,,,,,,,,,,,,,,,repeat,number,NA,j,0.5665,Lo,,,,,,5,,,,,,,,high,19,0,19,0,1,,,,,,,,,
296827,2022-09-26_24h47.42.735,vts_reward_expectancy,2022.2.4,MacIntel,60.0024001,Chrome,1680,1050,,,,,0,1165,,,,,,,,,,,,,,,,,F,125,triangle,1,1,,,,,,,,,,,,,,,,switch,letter,lettSwt,d,0.6532,Hi,,,,,,5,,,,,,,,high,20,0,20,0,1,,,,,,,,,
296827,2022-09-26_24h47.42.735,vts_reward_expectancy,2022.2.4,MacIntel,60.0024001,Chrome,1680,1050,,,,,1,1166,,,,,,,,,,,,,,,,,D,181,circle,1,0,,,,,,,,,,,,,,,,repeat,letter,lettRpt,d,0.4643,Lo,,,,,,5,,,,,,,,high,21,0,21,0,1,,,,,,,,,
296827,2022-09-26_24h47.42.735,vts_reward_expectancy,2022.2.4,MacIntel,60.0024001,Chrome,1680,1050,,,,,10,1176,,,,,,,,,,,,,,,,,Y,132,triangle,1,0,,,,,,,,,,,,,,,,switch,number,numSwt,j,0.5161,Hi,,,,,,5,,,,,,,,high,22,0,22,0,1,,,,,,,,,
296827,2022-09-26_24h47.42.735,vts_reward_expectancy,2022.2.4,MacIntel,60.0024001,Chrome,1680,1050,,,,,1,1177,,,,,,,,,,,,,,,,,S,139,circle,1,0,,,,,,,,,,,,,,,,switch,letter,lettSwt,f,0.5489,Lo,,,,,,5,,,,,,,,high,23,0,23,0,1,,,,,,,,,
296827,2022-09-26_24h47.42.735,vts_reward_expectancy,2022.2.4,MacIntel,60.0024001,Chrome,1680,1050,,,,,0,1177,,,,,,,,,,,,,,,,,U,132,circle,0,0,,,,,,,,,,,,,,,,repeat,letter,NA,d,0.2505,Lo,,,,,,5,,,,,,,,high,24,0,24,0,1,,,,,,,,,
296827,2022-09-26_24h47.42.735,vts_reward_expectancy,2022.2.4,MacIntel,60.0024001,Chrome,1680,1050,,,,,10,1187,,,,,,,,,,,,,,,,,B,174,triangle,1,1,,,,,,,,,,,,,,,,repeat,letter,lettRpt,d,0.5004,Hi,,,,,,5,,,,,,,,high,25,0,25,0,1,,,,,,,,,
296827,2022-09-26_24h47.42.735,vts_reward_expectancy,2022.2.4,MacIntel,60.0024001,Chrome,1680,1050,,,,,10,1197,,,,,,,,,,,,,,,,,W,181,circle,1,0,,,,,,,,,,,,,,,,switch,number,numSwt,k,0.5191,Lo,,,,,,5,,,,,,,,high,26,0,26,0,1,,,,,,,,,
296827,2022-09-26_24h47.42.735,vts_reward_expectancy,2022.2.4,MacIntel,60.0024001,Chrome,1680,1050,,,,,10,1207,,,,,,,,,,,,,,,,,D,125,triangle,1,0,,,,,,,,,,,,,,,,repeat,number,numRpt,j,0.5812,Hi,,,,,,5,,,,,,,,high,27,0,27,0,1,,,,,,,,,
296827,2022-09-26_24h47.42.735,vts_reward_expectancy,2022.2.4,MacIntel,60.0024001,Chrome,1680,1050,,,,,0,1207,,,,,,,,,,,,,,,,,F,167,triangle,1,0,,,,,,,,,,,,,,,,switch,letter,lettSwt,d,0.7196,Hi,,,,,,5,,,,,,,,high,28,0,28,0,1,,,,,,,,,
296827,2022-09-26_24h47.42.735,vts_reward_expectancy,2022.2.4,MacIntel,60.0024001,Chrome,1680,1050,,,,,1,1208,,,,,,,,,,,,,,,,,S,139,circle,1,0,,,,,,,,,,,,,,,,repeat,letter,lettRpt,f,0.5311,Lo,,,,,,5,,,,,,,,high,29,0,29,0,1,,,,,,,,,
296827,2022-09-26_24h47.42.735,vts_reward_expectancy,2022.2.4,MacIntel,60.0024001,Chrome,1680,1050,,,,,10,1218,,,,,,,,,,,,,,,,,Y,146,triangle,1,0,,,,,,,,,,,,,,,,repeat,letter,lettRpt,f,0.6002,Hi,,,,,,5,,,,,,,,high,30,0,30,0,1,,,,,,,,,
296827,2022-09-26_24h47.42.735,vts_reward_expectancy,2022.2.4,MacIntel,60.0024001,Chrome,1680,1050,,,,,1,1219,,,,,,,,,,,,,,,,,H,160,circle,1,0,,,,,,,,,,,,,,,,switch,number,numSwt,k,0.616,Lo,,,,,,5,,,,,,,,high,31,0,31,0,1,,,,,,,,,
296827,2022-09-26_24h47.42.735,vts_reward_expectancy,2022.2.4,MacIntel,60.0024001,Chrome,1680,1050,,,,,,,,,,,,,,,,,,,,,,,,,,,,,,,,,,,,,,,,,,,,,,,,,,,,,,6,,,,,,,,,,,,,,anwer to see if. letter was closer to a or z or a number was greater than 153,1,,4,3,,2,1680,1050
