participant,date,expName,psychopyVersion,OS,frameRate,browser,xResolution,yResolution,key_resp.keys,key_resp.rt,training_resp.keys,training_resp.rt,points_trial,points_cumul,trainBlock,training.thisRepN,training.thisTrialN,training.thisN,training.thisIndex,training.ran,LTriangleOpac,LCircleOpac,LHexagonOpac,LStarOpac,RTriangleOpac,RCircleOpac,RHexagonOpac,RStarOpac,LShape_ID,RShape_ID,curr_topStim,curr_bottStim,curr_shape,acc,E1,target_resp_prac1.keys,target_resp_prac1.rt,pracBlock,task1_prac_trials.thisRepN,task1_prac_trials.thisTrialN,task1_prac_trials.thisN,task1_prac_trials.thisIndex,task1_prac_trials.ran,target_resp_prac2.keys,target_resp_prac2.rt,task2_praac_trials.thisRepN,task2_praac_trials.thisTrialN,task2_praac_trials.thisN,task2_praac_trials.thisIndex,task2_praac_trials.ran,alt,task,condition,target_resp.keys,target_resp.rt,rewCond,vts_practice_trials.thisRepN,vts_practice_trials.thisTrialN,vts_practice_trials.thisN,vts_practice_trials.thisIndex,vts_practice_trials.ran,blockNum,trials_norew.thisRepN,trials_norew.thisTrialN,trials_norew.thisN,trials_norew.thisIndex,trials_norew.ran,key_resp_2.keys,key_resp_2.rt,rewExpect,trials_rew.thisRepN,trials_rew.thisTrialN,trials_rew.thisN,trials_rew.thisIndex,trials_rew.ran,Q1,Q2,Q2_text,Q3,Q4,Q5_text,Q5,xRes,yRes
295282,2022-10-06_17h14.36.050,vts_reward_expectancy,2022.2.4,MacIntel,60.0024001,Chrome,1440,900,,,,,,,,,,,,,,,,,,,,,,,,,,,,,,,,,,,,,,,,,,,,,,,,,,,,,,,,,,,,,,,,,,,,,,,,,,,,
295282,2022-10-06_17h14.36.050,vts_reward_expectancy,2022.2.4,MacIntel,60.0024001,Chrome,1440,900,space,1.9775,,,,,,,,,,,,,,,,,,,,,,,,,,,,,,,,,,,,,,,,,,,,,,,,,,,,,,,,,,,,,,,,,,,,,,,,,,
295282,2022-10-06_17h14.36.050,vts_reward_expectancy,2022.2.4,MacIntel,60.0024001,Chrome,1440,900,,,,,,,,,,,,,,,,,,,,,,,,,,,,,,,,,,,,,,,,,,,,,,,,,,,,,,,,,,,,,,,,,,,,,,,,,,,,
295282,2022-10-06_17h14.36.050,vts_reward_expectancy,2022.2.4,MacIntel,60.0024001,Chrome,1440,900,,,l,6.0698,1,1,0,0,0,0,4,1,0,1,0,0,0,0,1,0,circle,hexagon,,,,,,,,,,,,,,,,,,,,,,,,,,,,,,,,,,,,,,,,,,,,,,,,,,,,,,
295282,2022-10-06_17h14.36.050,vts_reward_expectancy,2022.2.4,MacIntel,60.0024001,Chrome,1440,900,,,a,1.5723,1,2,0,0,1,1,10,1,0,0,0,1,0,1,0,0,star ,circle,,,,,,,,,,,,,,,,,,,,,,,,,,,,,,,,,,,,,,,,,,,,,,,,,,,,,,
295282,2022-10-06_17h14.36.050,vts_reward_expectancy,2022.2.4,MacIntel,60.0024001,Chrome,1440,900,,,l,0.748,1,3,0,0,2,2,5,1,0,1,0,0,0,0,0,1,circle,star,,,,,,,,,,,,,,,,,,,,,,,,,,,,,,,,,,,,,,,,,,,,,,,,,,,,,,
295282,2022-10-06_17h14.36.050,vts_reward_expectancy,2022.2.4,MacIntel,60.0024001,Chrome,1440,900,,,a,0.5667,10,13,0,0,3,3,3,1,0,1,0,0,1,0,0,0,circle,triangle,,,,,,,,,,,,,,,,,,,,,,,,,,,,,,,,,,,,,,,,,,,,,,,,,,,,,,
295282,2022-10-06_17h14.36.050,vts_reward_expectancy,2022.2.4,MacIntel,60.0024001,Chrome,1440,900,,,l,2.6338,10,23,0,0,4,4,9,1,0,0,0,1,1,0,0,0,star,triangle,,,,,,,,,,,,,,,,,,,,,,,,,,,,,,,,,,,,,,,,,,,,,,,,,,,,,,
295282,2022-10-06_17h14.36.050,vts_reward_expectancy,2022.2.4,MacIntel,60.0024001,Chrome,1440,900,,,l,1.2474,10,33,0,0,5,5,0,1,1,0,0,0,0,1,0,0,triangle,circle,,,,,,,,,,,,,,,,,,,,,,,,,,,,,,,,,,,,,,,,,,,,,,,,,,,,,,
295282,2022-10-06_17h14.36.050,vts_reward_expectancy,2022.2.4,MacIntel,60.0024001,Chrome,1440,900,,,a,0.742,1,34,0,0,6,6,1,1,1,0,0,0,0,0,1,0,triangle,hexagon,,,,,,,,,,,,,,,,,,,,,,,,,,,,,,,,,,,,,,,,,,,,,,,,,,,,,,
295282,2022-10-06_17h14.36.050,vts_reward_expectancy,2022.2.4,MacIntel,60.0024001,Chrome,1440,900,,,l,1.359,10,44,0,0,7,7,7,1,0,0,1,0,0,1,0,0,hexagon,circle,,,,,,,,,,,,,,,,,,,,,,,,,,,,,,,,,,,,,,,,,,,,,,,,,,,,,,
295282,2022-10-06_17h14.36.050,vts_reward_expectancy,2022.2.4,MacIntel,60.0024001,Chrome,1440,900,,,a,2.1428,1,45,0,0,8,8,6,1,0,0,1,0,1,0,0,0,hexagon,triangle,,,,,,,,,,,,,,,,,,,,,,,,,,,,,,,,,,,,,,,,,,,,,,,,,,,,,,
295282,2022-10-06_17h14.36.050,vts_reward_expectancy,2022.2.4,MacIntel,60.0024001,Chrome,1440,900,,,l,1.4758,1,46,0,0,9,9,11,1,0,0,0,1,0,0,1,0,star,hexagon,,,,,,,,,,,,,,,,,,,,,,,,,,,,,,,,,,,,,,,,,,,,,,,,,,,,,,
295282,2022-10-06_17h14.36.050,vts_reward_expectancy,2022.2.4,MacIntel,60.0024001,Chrome,1440,900,,,a,0.950799999,1,47,0,0,10,10,2,1,1,0,0,0,0,0,0,1,triangle,star,,,,,,,,,,,,,,,,,,,,,,,,,,,,,,,,,,,,,,,,,,,,,,,,,,,,,,
295282,2022-10-06_17h14.36.050,vts_reward_expectancy,2022.2.4,MacIntel,60.0024001,Chrome,1440,900,,,l,0.685400001,10,57,0,0,11,11,8,1,0,0,1,0,0,0,0,1,hexagon,star,,,,,,,,,,,,,,,,,,,,,,,,,,,,,,,,,,,,,,,,,,,,,,,,,,,,,,
295282,2022-10-06_17h14.36.050,vts_reward_expectancy,2022.2.4,MacIntel,60.0024001,Chrome,1440,900,,,a,1.066099999,10,67,0,1,0,12,3,1,0,1,0,0,1,0,0,0,circle,triangle,,,,,,,,,,,,,,,,,,,,,,,,,,,,,,,,,,,,,,,,,,,,,,,,,,,,,,
295282,2022-10-06_17h14.36.050,vts_reward_expectancy,2022.2.4,MacIntel,60.0024001,Chrome,1440,900,,,a,1.1351,1,68,0,1,1,13,11,1,0,0,0,1,0,0,1,0,star,hexagon,,,,,,,,,,,,,,,,,,,,,,,,,,,,,,,,,,,,,,,,,,,,,,,,,,,,,,
295282,2022-10-06_17h14.36.050,vts_reward_expectancy,2022.2.4,MacIntel,60.0024001,Chrome,1440,900,,,a,1.4507,1,69,0,1,2,14,1,1,1,0,0,0,0,0,1,0,triangle,hexagon,,,,,,,,,,,,,,,,,,,,,,,,,,,,,,,,,,,,,,,,,,,,,,,,,,,,,,
295282,2022-10-06_17h14.36.050,vts_reward_expectancy,2022.2.4,MacIntel,60.0024001,Chrome,1440,900,,,l,0.6169,1,70,0,1,3,15,2,1,1,0,0,0,0,0,0,1,triangle,star,,,,,,,,,,,,,,,,,,,,,,,,,,,,,,,,,,,,,,,,,,,,,,,,,,,,,,
295282,2022-10-06_17h14.36.050,vts_reward_expectancy,2022.2.4,MacIntel,60.0024001,Chrome,1440,900,,,l,1.0173,10,80,0,1,4,16,6,1,0,0,1,0,1,0,0,0,hexagon,triangle,,,,,,,,,,,,,,,,,,,,,,,,,,,,,,,,,,,,,,,,,,,,,,,,,,,,,,
295282,2022-10-06_17h14.36.050,vts_reward_expectancy,2022.2.4,MacIntel,60.0024001,Chrome,1440,900,,,a,0.617400001,10,90,0,1,5,17,4,1,0,1,0,0,0,0,1,0,circle,hexagon,,,,,,,,,,,,,,,,,,,,,,,,,,,,,,,,,,,,,,,,,,,,,,,,,,,,,,
295282,2022-10-06_17h14.36.050,vts_reward_expectancy,2022.2.4,MacIntel,60.0024001,Chrome,1440,900,,,l,0.7677,1,91,0,1,6,18,9,1,0,0,0,1,1,0,0,0,star,triangle,,,,,,,,,,,,,,,,,,,,,,,,,,,,,,,,,,,,,,,,,,,,,,,,,,,,,,
295282,2022-10-06_17h14.36.050,vts_reward_expectancy,2022.2.4,MacIntel,60.0024001,Chrome,1440,900,,,l,0.595599999,10,101,0,1,7,19,0,1,1,0,0,0,0,1,0,0,triangle,circle,,,,,,,,,,,,,,,,,,,,,,,,,,,,,,,,,,,,,,,,,,,,,,,,,,,,,,
295282,2022-10-06_17h14.36.050,vts_reward_expectancy,2022.2.4,MacIntel,60.0024001,Chrome,1440,900,,,a,0.6485,10,111,0,1,8,20,5,1,0,1,0,0,0,0,0,1,circle,star,,,,,,,,,,,,,,,,,,,,,,,,,,,,,,,,,,,,,,,,,,,,,,,,,,,,,,
295282,2022-10-06_17h14.36.050,vts_reward_expectancy,2022.2.4,MacIntel,60.0024001,Chrome,1440,900,,,l,0.953,1,112,0,1,9,21,8,1,0,0,1,0,0,0,0,1,hexagon,star,,,,,,,,,,,,,,,,,,,,,,,,,,,,,,,,,,,,,,,,,,,,,,,,,,,,,,
295282,2022-10-06_17h14.36.050,vts_reward_expectancy,2022.2.4,MacIntel,60.0024001,Chrome,1440,900,,,l,0.7177,10,122,0,1,10,22,10,1,0,0,0,1,0,1,0,0,star ,circle,,,,,,,,,,,,,,,,,,,,,,,,,,,,,,,,,,,,,,,,,,,,,,,,,,,,,,
295282,2022-10-06_17h14.36.050,vts_reward_expectancy,2022.2.4,MacIntel,60.0024001,Chrome,1440,900,,,a,0.803099999,10,132,0,1,11,23,7,1,0,0,1,0,0,1,0,0,hexagon,circle,,,,,,,,,,,,,,,,,,,,,,,,,,,,,,,,,,,,,,,,,,,,,,,,,,,,,,
295282,2022-10-06_17h14.36.050,vts_reward_expectancy,2022.2.4,MacIntel,60.0024001,Chrome,1440,900,,,l,1.1999,10,142,0,2,0,24,2,1,1,0,0,0,0,0,0,1,triangle,star,,,,,,,,,,,,,,,,,,,,,,,,,,,,,,,,,,,,,,,,,,,,,,,,,,,,,,
295282,2022-10-06_17h14.36.050,vts_reward_expectancy,2022.2.4,MacIntel,60.0024001,Chrome,1440,900,,,l,0.6186,1,143,0,2,1,25,9,1,0,0,0,1,1,0,0,0,star,triangle,,,,,,,,,,,,,,,,,,,,,,,,,,,,,,,,,,,,,,,,,,,,,,,,,,,,,,
295282,2022-10-06_17h14.36.050,vts_reward_expectancy,2022.2.4,MacIntel,60.0024001,Chrome,1440,900,,,a,1.1876,10,153,0,2,2,26,5,1,0,1,0,0,0,0,0,1,circle,star,,,,,,,,,,,,,,,,,,,,,,,,,,,,,,,,,,,,,,,,,,,,,,,,,,,,,,
295282,2022-10-06_17h14.36.050,vts_reward_expectancy,2022.2.4,MacIntel,60.0024001,Chrome,1440,900,,,l,0.9963,10,163,0,2,3,27,7,1,0,0,1,0,0,1,0,0,hexagon,circle,,,,,,,,,,,,,,,,,,,,,,,,,,,,,,,,,,,,,,,,,,,,,,,,,,,,,,
295282,2022-10-06_17h14.36.050,vts_reward_expectancy,2022.2.4,MacIntel,60.0024001,Chrome,1440,900,,,a,0.5982,10,173,0,2,4,28,3,1,0,1,0,0,1,0,0,0,circle,triangle,,,,,,,,,,,,,,,,,,,,,,,,,,,,,,,,,,,,,,,,,,,,,,,,,,,,,,
295282,2022-10-06_17h14.36.050,vts_reward_expectancy,2022.2.4,MacIntel,60.0024001,Chrome,1440,900,,,a,0.6994,1,174,0,2,5,29,4,1,0,1,0,0,0,0,1,0,circle,hexagon,,,,,,,,,,,,,,,,,,,,,,,,,,,,,,,,,,,,,,,,,,,,,,,,,,,,,,
295282,2022-10-06_17h14.36.050,vts_reward_expectancy,2022.2.4,MacIntel,60.0024001,Chrome,1440,900,,,l,0.7228,10,184,0,2,6,30,0,1,1,0,0,0,0,1,0,0,triangle,circle,,,,,,,,,,,,,,,,,,,,,,,,,,,,,,,,,,,,,,,,,,,,,,,,,,,,,,
295282,2022-10-06_17h14.36.050,vts_reward_expectancy,2022.2.4,MacIntel,60.0024001,Chrome,1440,900,,,a,0.8597,1,185,0,2,7,31,1,1,1,0,0,0,0,0,1,0,triangle,hexagon,,,,,,,,,,,,,,,,,,,,,,,,,,,,,,,,,,,,,,,,,,,,,,,,,,,,,,
295282,2022-10-06_17h14.36.050,vts_reward_expectancy,2022.2.4,MacIntel,60.0024001,Chrome,1440,900,,,l,0.9112,1,186,0,2,8,32,6,1,0,0,1,0,1,0,0,0,hexagon,triangle,,,,,,,,,,,,,,,,,,,,,,,,,,,,,,,,,,,,,,,,,,,,,,,,,,,,,,
295282,2022-10-06_17h14.36.050,vts_reward_expectancy,2022.2.4,MacIntel,60.0024001,Chrome,1440,900,,,a,1.090299999,10,196,0,2,9,33,11,1,0,0,0,1,0,0,1,0,star,hexagon,,,,,,,,,,,,,,,,,,,,,,,,,,,,,,,,,,,,,,,,,,,,,,,,,,,,,,
295282,2022-10-06_17h14.36.050,vts_reward_expectancy,2022.2.4,MacIntel,60.0024001,Chrome,1440,900,,,l,0.724599999,1,197,0,2,10,34,8,1,0,0,1,0,0,0,0,1,hexagon,star,,,,,,,,,,,,,,,,,,,,,,,,,,,,,,,,,,,,,,,,,,,,,,,,,,,,,,
295282,2022-10-06_17h14.36.050,vts_reward_expectancy,2022.2.4,MacIntel,60.0024001,Chrome,1440,900,,,l,0.416,10,207,0,2,11,35,10,1,0,0,0,1,0,1,0,0,star ,circle,,,,,,,,,,,,,,,,,,,,,,,,,,,,,,,,,,,,,,,,,,,,,,,,,,,,,,
295282,2022-10-06_17h14.36.050,vts_reward_expectancy,2022.2.4,MacIntel,60.0024001,Chrome,1440,900,,,a,1.0427,1,208,1,0,0,0,5,1,0,1,0,0,0,0,0,1,circle,star,,,,,,,,,,,,,,,,,,,,,,,,,,,,,,,,,,,,,,,,,,,,,,,,,,,,,,
295282,2022-10-06_17h14.36.050,vts_reward_expectancy,2022.2.4,MacIntel,60.0024001,Chrome,1440,900,,,a,0.9,1,209,1,0,1,1,1,1,1,0,0,0,0,0,1,0,triangle,hexagon,,,,,,,,,,,,,,,,,,,,,,,,,,,,,,,,,,,,,,,,,,,,,,,,,,,,,,
295282,2022-10-06_17h14.36.050,vts_reward_expectancy,2022.2.4,MacIntel,60.0024001,Chrome,1440,900,,,a,1.129299999,1,210,1,0,2,2,9,1,0,0,0,1,1,0,0,0,star,triangle,,,,,,,,,,,,,,,,,,,,,,,,,,,,,,,,,,,,,,,,,,,,,,,,,,,,,,
295282,2022-10-06_17h14.36.050,vts_reward_expectancy,2022.2.4,MacIntel,60.0024001,Chrome,1440,900,,,a,1.1338,1,211,1,0,3,3,8,1,0,0,1,0,0,0,0,1,hexagon,star,,,,,,,,,,,,,,,,,,,,,,,,,,,,,,,,,,,,,,,,,,,,,,,,,,,,,,
295282,2022-10-06_17h14.36.050,vts_reward_expectancy,2022.2.4,MacIntel,60.0024001,Chrome,1440,900,,,l,1.267,1,212,1,0,4,4,6,1,0,0,1,0,1,0,0,0,hexagon,triangle,,,,,,,,,,,,,,,,,,,,,,,,,,,,,,,,,,,,,,,,,,,,,,,,,,,,,,
295282,2022-10-06_17h14.36.050,vts_reward_expectancy,2022.2.4,MacIntel,60.0024001,Chrome,1440,900,,,a,0.680900001,1,213,1,0,5,5,3,1,0,1,0,0,1,0,0,0,circle,triangle,,,,,,,,,,,,,,,,,,,,,,,,,,,,,,,,,,,,,,,,,,,,,,,,,,,,,,
295282,2022-10-06_17h14.36.050,vts_reward_expectancy,2022.2.4,MacIntel,60.0024001,Chrome,1440,900,,,l,0.5383,10,223,1,0,6,6,7,1,0,0,1,0,0,1,0,0,hexagon,circle,,,,,,,,,,,,,,,,,,,,,,,,,,,,,,,,,,,,,,,,,,,,,,,,,,,,,,
295282,2022-10-06_17h14.36.050,vts_reward_expectancy,2022.2.4,MacIntel,60.0024001,Chrome,1440,900,,,l,0.749599999,10,233,1,0,7,7,10,1,0,0,0,1,0,1,0,0,star ,circle,,,,,,,,,,,,,,,,,,,,,,,,,,,,,,,,,,,,,,,,,,,,,,,,,,,,,,
295282,2022-10-06_17h14.36.050,vts_reward_expectancy,2022.2.4,MacIntel,60.0024001,Chrome,1440,900,,,a,1.1658,10,243,1,0,8,8,0,1,1,0,0,0,0,1,0,0,triangle,circle,,,,,,,,,,,,,,,,,,,,,,,,,,,,,,,,,,,,,,,,,,,,,,,,,,,,,,
295282,2022-10-06_17h14.36.050,vts_reward_expectancy,2022.2.4,MacIntel,60.0024001,Chrome,1440,900,,,a,0.7473,10,253,1,0,9,9,11,1,0,0,0,1,0,0,1,0,star,hexagon,,,,,,,,,,,,,,,,,,,,,,,,,,,,,,,,,,,,,,,,,,,,,,,,,,,,,,
295282,2022-10-06_17h14.36.050,vts_reward_expectancy,2022.2.4,MacIntel,60.0024001,Chrome,1440,900,,,l,0.830900001,1,254,1,0,10,10,4,1,0,1,0,0,0,0,1,0,circle,hexagon,,,,,,,,,,,,,,,,,,,,,,,,,,,,,,,,,,,,,,,,,,,,,,,,,,,,,,
295282,2022-10-06_17h14.36.050,vts_reward_expectancy,2022.2.4,MacIntel,60.0024001,Chrome,1440,900,,,a,1.008599999,10,264,1,0,11,11,2,1,1,0,0,0,0,0,0,1,triangle,star,,,,,,,,,,,,,,,,,,,,,,,,,,,,,,,,,,,,,,,,,,,,,,,,,,,,,,
295282,2022-10-06_17h14.36.050,vts_reward_expectancy,2022.2.4,MacIntel,60.0024001,Chrome,1440,900,,,l,0.3483,1,265,1,1,0,12,11,1,0,0,0,1,0,0,1,0,star,hexagon,,,,,,,,,,,,,,,,,,,,,,,,,,,,,,,,,,,,,,,,,,,,,,,,,,,,,,
295282,2022-10-06_17h14.36.050,vts_reward_expectancy,2022.2.4,MacIntel,60.0024001,Chrome,1440,900,,,a,0.859,1,266,1,1,1,13,1,1,1,0,0,0,0,0,1,0,triangle,hexagon,,,,,,,,,,,,,,,,,,,,,,,,,,,,,,,,,,,,,,,,,,,,,,,,,,,,,,
295282,2022-10-06_17h14.36.050,vts_reward_expectancy,2022.2.4,MacIntel,60.0024001,Chrome,1440,900,,,l,0.9972,10,276,1,1,2,14,3,1,0,1,0,0,1,0,0,0,circle,triangle,,,,,,,,,,,,,,,,,,,,,,,,,,,,,,,,,,,,,,,,,,,,,,,,,,,,,,
295282,2022-10-06_17h14.36.050,vts_reward_expectancy,2022.2.4,MacIntel,60.0024001,Chrome,1440,900,,,a,1.2315,1,277,1,1,3,15,7,1,0,0,1,0,0,1,0,0,hexagon,circle,,,,,,,,,,,,,,,,,,,,,,,,,,,,,,,,,,,,,,,,,,,,,,,,,,,,,,
295282,2022-10-06_17h14.36.050,vts_reward_expectancy,2022.2.4,MacIntel,60.0024001,Chrome,1440,900,,,l,1.2177,10,287,1,1,4,16,6,1,0,0,1,0,1,0,0,0,hexagon,triangle,,,,,,,,,,,,,,,,,,,,,,,,,,,,,,,,,,,,,,,,,,,,,,,,,,,,,,
295282,2022-10-06_17h14.36.050,vts_reward_expectancy,2022.2.4,MacIntel,60.0024001,Chrome,1440,900,,,l,1.2495,10,297,1,1,5,17,5,1,0,1,0,0,0,0,0,1,circle,star,,,,,,,,,,,,,,,,,,,,,,,,,,,,,,,,,,,,,,,,,,,,,,,,,,,,,,
295282,2022-10-06_17h14.36.050,vts_reward_expectancy,2022.2.4,MacIntel,60.0024001,Chrome,1440,900,,,a,0.984,10,307,1,1,6,18,10,1,0,0,0,1,0,1,0,0,star ,circle,,,,,,,,,,,,,,,,,,,,,,,,,,,,,,,,,,,,,,,,,,,,,,,,,,,,,,
295282,2022-10-06_17h14.36.050,vts_reward_expectancy,2022.2.4,MacIntel,60.0024001,Chrome,1440,900,,,a,1.6833,10,317,1,1,7,19,4,1,0,1,0,0,0,0,1,0,circle,hexagon,,,,,,,,,,,,,,,,,,,,,,,,,,,,,,,,,,,,,,,,,,,,,,,,,,,,,,
295282,2022-10-06_17h14.36.050,vts_reward_expectancy,2022.2.4,MacIntel,60.0024001,Chrome,1440,900,,,a,0.8343,10,327,1,1,8,20,2,1,1,0,0,0,0,0,0,1,triangle,star,,,,,,,,,,,,,,,,,,,,,,,,,,,,,,,,,,,,,,,,,,,,,,,,,,,,,,
295282,2022-10-06_17h14.36.050,vts_reward_expectancy,2022.2.4,MacIntel,60.0024001,Chrome,1440,900,,,a,0.7864,1,328,1,1,9,21,0,1,1,0,0,0,0,1,0,0,triangle,circle,,,,,,,,,,,,,,,,,,,,,,,,,,,,,,,,,,,,,,,,,,,,,,,,,,,,,,
295282,2022-10-06_17h14.36.050,vts_reward_expectancy,2022.2.4,MacIntel,60.0024001,Chrome,1440,900,,,l,0.951299999,1,329,1,1,10,22,8,1,0,0,1,0,0,0,0,1,hexagon,star,,,,,,,,,,,,,,,,,,,,,,,,,,,,,,,,,,,,,,,,,,,,,,,,,,,,,,
295282,2022-10-06_17h14.36.050,vts_reward_expectancy,2022.2.4,MacIntel,60.0024001,Chrome,1440,900,,,l,0.3846,10,339,1,1,11,23,9,1,0,0,0,1,1,0,0,0,star,triangle,,,,,,,,,,,,,,,,,,,,,,,,,,,,,,,,,,,,,,,,,,,,,,,,,,,,,,
295282,2022-10-06_17h14.36.050,vts_reward_expectancy,2022.2.4,MacIntel,60.0024001,Chrome,1440,900,,,a,0.517099999,1,340,1,2,0,24,5,1,0,1,0,0,0,0,0,1,circle,star,,,,,,,,,,,,,,,,,,,,,,,,,,,,,,,,,,,,,,,,,,,,,,,,,,,,,,
295282,2022-10-06_17h14.36.050,vts_reward_expectancy,2022.2.4,MacIntel,60.0024001,Chrome,1440,900,,,l,0.6168,1,341,1,2,1,25,11,1,0,0,0,1,0,0,1,0,star,hexagon,,,,,,,,,,,,,,,,,,,,,,,,,,,,,,,,,,,,,,,,,,,,,,,,,,,,,,
295282,2022-10-06_17h14.36.050,vts_reward_expectancy,2022.2.4,MacIntel,60.0024001,Chrome,1440,900,,,a,0.333900001,1,342,1,2,2,26,1,1,1,0,0,0,0,0,1,0,triangle,hexagon,,,,,,,,,,,,,,,,,,,,,,,,,,,,,,,,,,,,,,,,,,,,,,,,,,,,,,
295282,2022-10-06_17h14.36.050,vts_reward_expectancy,2022.2.4,MacIntel,60.0024001,Chrome,1440,900,,,a,0.4333,1,343,1,2,3,27,8,1,0,0,1,0,0,0,0,1,hexagon,star,,,,,,,,,,,,,,,,,,,,,,,,,,,,,,,,,,,,,,,,,,,,,,,,,,,,,,
295282,2022-10-06_17h14.36.050,vts_reward_expectancy,2022.2.4,MacIntel,60.0024001,Chrome,1440,900,,,l,0.6526,10,353,1,2,4,28,9,1,0,0,0,1,1,0,0,0,star,triangle,,,,,,,,,,,,,,,,,,,,,,,,,,,,,,,,,,,,,,,,,,,,,,,,,,,,,,
295282,2022-10-06_17h14.36.050,vts_reward_expectancy,2022.2.4,MacIntel,60.0024001,Chrome,1440,900,,,l,0.4675,1,354,1,2,5,29,0,1,1,0,0,0,0,1,0,0,triangle,circle,,,,,,,,,,,,,,,,,,,,,,,,,,,,,,,,,,,,,,,,,,,,,,,,,,,,,,
295282,2022-10-06_17h14.36.050,vts_reward_expectancy,2022.2.4,MacIntel,60.0024001,Chrome,1440,900,,,a,0.4478,10,364,1,2,6,30,3,1,0,1,0,0,1,0,0,0,circle,triangle,,,,,,,,,,,,,,,,,,,,,,,,,,,,,,,,,,,,,,,,,,,,,,,,,,,,,,
295282,2022-10-06_17h14.36.050,vts_reward_expectancy,2022.2.4,MacIntel,60.0024001,Chrome,1440,900,,,l,0.4538,1,365,1,2,7,31,7,1,0,0,1,0,0,1,0,0,hexagon,circle,,,,,,,,,,,,,,,,,,,,,,,,,,,,,,,,,,,,,,,,,,,,,,,,,,,,,,
295282,2022-10-06_17h14.36.050,vts_reward_expectancy,2022.2.4,MacIntel,60.0024001,Chrome,1440,900,,,a,0.5047,10,375,1,2,8,32,4,1,0,1,0,0,0,0,1,0,circle,hexagon,,,,,,,,,,,,,,,,,,,,,,,,,,,,,,,,,,,,,,,,,,,,,,,,,,,,,,
295282,2022-10-06_17h14.36.050,vts_reward_expectancy,2022.2.4,MacIntel,60.0024001,Chrome,1440,900,,,l,0.7731,1,376,1,2,9,33,10,1,0,0,0,1,0,1,0,0,star ,circle,,,,,,,,,,,,,,,,,,,,,,,,,,,,,,,,,,,,,,,,,,,,,,,,,,,,,,
295282,2022-10-06_17h14.36.050,vts_reward_expectancy,2022.2.4,MacIntel,60.0024001,Chrome,1440,900,,,l,0.6903,1,377,1,2,10,34,2,1,1,0,0,0,0,0,0,1,triangle,star,,,,,,,,,,,,,,,,,,,,,,,,,,,,,,,,,,,,,,,,,,,,,,,,,,,,,,
295282,2022-10-06_17h14.36.050,vts_reward_expectancy,2022.2.4,MacIntel,60.0024001,Chrome,1440,900,,,l,0.8665,10,387,1,2,11,35,6,1,0,0,1,0,1,0,0,0,hexagon,triangle,,,,,,,,,,,,,,,,,,,,,,,,,,,,,,,,,,,,,,,,,,,,,,,,,,,,,,
295282,2022-10-06_17h14.36.050,vts_reward_expectancy,2022.2.4,MacIntel,60.0024001,Chrome,1440,900,,,l,1.2172,1,388,2,0,0,0,6,1,0,0,1,0,1,0,0,0,hexagon,triangle,,,,,,,,,,,,,,,,,,,,,,,,,,,,,,,,,,,,,,,,,,,,,,,,,,,,,,
295282,2022-10-06_17h14.36.050,vts_reward_expectancy,2022.2.4,MacIntel,60.0024001,Chrome,1440,900,,,l,0.5669,1,389,2,0,1,1,11,1,0,0,0,1,0,0,1,0,star,hexagon,,,,,,,,,,,,,,,,,,,,,,,,,,,,,,,,,,,,,,,,,,,,,,,,,,,,,,
295282,2022-10-06_17h14.36.050,vts_reward_expectancy,2022.2.4,MacIntel,60.0024001,Chrome,1440,900,,,a,0.3327,10,399,2,0,2,2,2,1,1,0,0,0,0,0,0,1,triangle,star,,,,,,,,,,,,,,,,,,,,,,,,,,,,,,,,,,,,,,,,,,,,,,,,,,,,,,
295282,2022-10-06_17h14.36.050,vts_reward_expectancy,2022.2.4,MacIntel,60.0024001,Chrome,1440,900,,,l,0.626,1,400,2,0,3,3,1,1,1,0,0,0,0,0,1,0,triangle,hexagon,,,,,,,,,,,,,,,,,,,,,,,,,,,,,,,,,,,,,,,,,,,,,,,,,,,,,,
295282,2022-10-06_17h14.36.050,vts_reward_expectancy,2022.2.4,MacIntel,60.0024001,Chrome,1440,900,,,a,0.632,10,410,2,0,4,4,5,1,0,1,0,0,0,0,0,1,circle,star,,,,,,,,,,,,,,,,,,,,,,,,,,,,,,,,,,,,,,,,,,,,,,,,,,,,,,
295282,2022-10-06_17h14.36.050,vts_reward_expectancy,2022.2.4,MacIntel,60.0024001,Chrome,1440,900,,,a,0.575,10,420,2,0,5,5,4,1,0,1,0,0,0,0,1,0,circle,hexagon,,,,,,,,,,,,,,,,,,,,,,,,,,,,,,,,,,,,,,,,,,,,,,,,,,,,,,
295282,2022-10-06_17h14.36.050,vts_reward_expectancy,2022.2.4,MacIntel,60.0024001,Chrome,1440,900,,,l,1.4005,1,421,2,0,6,6,8,1,0,0,1,0,0,0,0,1,hexagon,star,,,,,,,,,,,,,,,,,,,,,,,,,,,,,,,,,,,,,,,,,,,,,,,,,,,,,,
295282,2022-10-06_17h14.36.050,vts_reward_expectancy,2022.2.4,MacIntel,60.0024001,Chrome,1440,900,,,l,0.4415,10,431,2,0,7,7,0,1,1,0,0,0,0,1,0,0,triangle,circle,,,,,,,,,,,,,,,,,,,,,,,,,,,,,,,,,,,,,,,,,,,,,,,,,,,,,,
295282,2022-10-06_17h14.36.050,vts_reward_expectancy,2022.2.4,MacIntel,60.0024001,Chrome,1440,900,,,l,0.4549,1,432,2,0,8,8,9,1,0,0,0,1,1,0,0,0,star,triangle,,,,,,,,,,,,,,,,,,,,,,,,,,,,,,,,,,,,,,,,,,,,,,,,,,,,,,
295282,2022-10-06_17h14.36.050,vts_reward_expectancy,2022.2.4,MacIntel,60.0024001,Chrome,1440,900,,,l,0.5311,10,442,2,0,9,9,10,1,0,0,0,1,0,1,0,0,star ,circle,,,,,,,,,,,,,,,,,,,,,,,,,,,,,,,,,,,,,,,,,,,,,,,,,,,,,,
295282,2022-10-06_17h14.36.050,vts_reward_expectancy,2022.2.4,MacIntel,60.0024001,Chrome,1440,900,,,a,0.4915,10,452,2,0,10,10,3,1,0,1,0,0,1,0,0,0,circle,triangle,,,,,,,,,,,,,,,,,,,,,,,,,,,,,,,,,,,,,,,,,,,,,,,,,,,,,,
295282,2022-10-06_17h14.36.050,vts_reward_expectancy,2022.2.4,MacIntel,60.0024001,Chrome,1440,900,,,l,0.472,10,462,2,0,11,11,7,1,0,0,1,0,0,1,0,0,hexagon,circle,,,,,,,,,,,,,,,,,,,,,,,,,,,,,,,,,,,,,,,,,,,,,,,,,,,,,,
295282,2022-10-06_17h14.36.050,vts_reward_expectancy,2022.2.4,MacIntel,60.0024001,Chrome,1440,900,,,l,0.351299999,10,472,2,1,0,12,10,1,0,0,0,1,0,1,0,0,star ,circle,,,,,,,,,,,,,,,,,,,,,,,,,,,,,,,,,,,,,,,,,,,,,,,,,,,,,,
295282,2022-10-06_17h14.36.050,vts_reward_expectancy,2022.2.4,MacIntel,60.0024001,Chrome,1440,900,,,a,0.359900001,10,482,2,1,1,13,3,1,0,1,0,0,1,0,0,0,circle,triangle,,,,,,,,,,,,,,,,,,,,,,,,,,,,,,,,,,,,,,,,,,,,,,,,,,,,,,
295282,2022-10-06_17h14.36.050,vts_reward_expectancy,2022.2.4,MacIntel,60.0024001,Chrome,1440,900,,,a,0.435,1,483,2,1,2,14,5,1,0,1,0,0,0,0,0,1,circle,star,,,,,,,,,,,,,,,,,,,,,,,,,,,,,,,,,,,,,,,,,,,,,,,,,,,,,,
295282,2022-10-06_17h14.36.050,vts_reward_expectancy,2022.2.4,MacIntel,60.0024001,Chrome,1440,900,,,l,1.036,1,484,2,1,3,15,2,1,1,0,0,0,0,0,0,1,triangle,star,,,,,,,,,,,,,,,,,,,,,,,,,,,,,,,,,,,,,,,,,,,,,,,,,,,,,,
295282,2022-10-06_17h14.36.050,vts_reward_expectancy,2022.2.4,MacIntel,60.0024001,Chrome,1440,900,,,a,0.4003,1,485,2,1,4,16,6,1,0,0,1,0,1,0,0,0,hexagon,triangle,,,,,,,,,,,,,,,,,,,,,,,,,,,,,,,,,,,,,,,,,,,,,,,,,,,,,,
295282,2022-10-06_17h14.36.050,vts_reward_expectancy,2022.2.4,MacIntel,60.0024001,Chrome,1440,900,,,l,0.520700001,10,495,2,1,5,17,9,1,0,0,0,1,1,0,0,0,star,triangle,,,,,,,,,,,,,,,,,,,,,,,,,,,,,,,,,,,,,,,,,,,,,,,,,,,,,,
295282,2022-10-06_17h14.36.050,vts_reward_expectancy,2022.2.4,MacIntel,60.0024001,Chrome,1440,900,,,l,0.5037,1,496,2,1,6,18,7,1,0,0,1,0,0,1,0,0,hexagon,circle,,,,,,,,,,,,,,,,,,,,,,,,,,,,,,,,,,,,,,,,,,,,,,,,,,,,,,
295282,2022-10-06_17h14.36.050,vts_reward_expectancy,2022.2.4,MacIntel,60.0024001,Chrome,1440,900,,,a,0.607900001,1,497,2,1,7,19,0,1,1,0,0,0,0,1,0,0,triangle,circle,,,,,,,,,,,,,,,,,,,,,,,,,,,,,,,,,,,,,,,,,,,,,,,,,,,,,,
295282,2022-10-06_17h14.36.050,vts_reward_expectancy,2022.2.4,MacIntel,60.0024001,Chrome,1440,900,,,l,0.4579,1,498,2,1,8,20,11,1,0,0,0,1,0,0,1,0,star,hexagon,,,,,,,,,,,,,,,,,,,,,,,,,,,,,,,,,,,,,,,,,,,,,,,,,,,,,,
295282,2022-10-06_17h14.36.050,vts_reward_expectancy,2022.2.4,MacIntel,60.0024001,Chrome,1440,900,,,a,0.3083,10,508,2,1,9,21,8,1,0,0,1,0,0,0,0,1,hexagon,star,,,,,,,,,,,,,,,,,,,,,,,,,,,,,,,,,,,,,,,,,,,,,,,,,,,,,,
295282,2022-10-06_17h14.36.050,vts_reward_expectancy,2022.2.4,MacIntel,60.0024001,Chrome,1440,900,,,a,0.4526,10,518,2,1,10,22,4,1,0,1,0,0,0,0,1,0,circle,hexagon,,,,,,,,,,,,,,,,,,,,,,,,,,,,,,,,,,,,,,,,,,,,,,,,,,,,,,
295282,2022-10-06_17h14.36.050,vts_reward_expectancy,2022.2.4,MacIntel,60.0024001,Chrome,1440,900,,,l,0.2653,1,519,2,1,11,23,1,1,1,0,0,0,0,0,1,0,triangle,hexagon,,,,,,,,,,,,,,,,,,,,,,,,,,,,,,,,,,,,,,,,,,,,,,,,,,,,,,
295282,2022-10-06_17h14.36.050,vts_reward_expectancy,2022.2.4,MacIntel,60.0024001,Chrome,1440,900,,,a,0.4737,10,529,2,2,0,24,4,1,0,1,0,0,0,0,1,0,circle,hexagon,,,,,,,,,,,,,,,,,,,,,,,,,,,,,,,,,,,,,,,,,,,,,,,,,,,,,,
295282,2022-10-06_17h14.36.050,vts_reward_expectancy,2022.2.4,MacIntel,60.0024001,Chrome,1440,900,,,l,0.538900001,1,530,2,2,1,25,0,1,1,0,0,0,0,1,0,0,triangle,circle,,,,,,,,,,,,,,,,,,,,,,,,,,,,,,,,,,,,,,,,,,,,,,,,,,,,,,
295282,2022-10-06_17h14.36.050,vts_reward_expectancy,2022.2.4,MacIntel,60.0024001,Chrome,1440,900,,,l,0.3915,10,540,2,2,2,26,10,1,0,0,0,1,0,1,0,0,star ,circle,,,,,,,,,,,,,,,,,,,,,,,,,,,,,,,,,,,,,,,,,,,,,,,,,,,,,,
295282,2022-10-06_17h14.36.050,vts_reward_expectancy,2022.2.4,MacIntel,60.0024001,Chrome,1440,900,,,a,0.641099999,1,541,2,2,3,27,11,1,0,0,0,1,0,0,1,0,star,hexagon,,,,,,,,,,,,,,,,,,,,,,,,,,,,,,,,,,,,,,,,,,,,,,,,,,,,,,
295282,2022-10-06_17h14.36.050,vts_reward_expectancy,2022.2.4,MacIntel,60.0024001,Chrome,1440,900,,,a,0.4137,10,551,2,2,4,28,3,1,0,1,0,0,1,0,0,0,circle,triangle,,,,,,,,,,,,,,,,,,,,,,,,,,,,,,,,,,,,,,,,,,,,,,,,,,,,,,
295282,2022-10-06_17h14.36.050,vts_reward_expectancy,2022.2.4,MacIntel,60.0024001,Chrome,1440,900,,,l,0.4424,10,561,2,2,5,29,9,1,0,0,0,1,1,0,0,0,star,triangle,,,,,,,,,,,,,,,,,,,,,,,,,,,,,,,,,,,,,,,,,,,,,,,,,,,,,,
295282,2022-10-06_17h14.36.050,vts_reward_expectancy,2022.2.4,MacIntel,60.0024001,Chrome,1440,900,,,a,0.4042,1,562,2,2,6,30,7,1,0,0,1,0,0,1,0,0,hexagon,circle,,,,,,,,,,,,,,,,,,,,,,,,,,,,,,,,,,,,,,,,,,,,,,,,,,,,,,
295282,2022-10-06_17h14.36.050,vts_reward_expectancy,2022.2.4,MacIntel,60.0024001,Chrome,1440,900,,,a,0.3832,1,563,2,2,7,31,1,1,1,0,0,0,0,0,1,0,triangle,hexagon,,,,,,,,,,,,,,,,,,,,,,,,,,,,,,,,,,,,,,,,,,,,,,,,,,,,,,
295282,2022-10-06_17h14.36.050,vts_reward_expectancy,2022.2.4,MacIntel,60.0024001,Chrome,1440,900,,,a,0.3236,1,564,2,2,8,32,2,1,1,0,0,0,0,0,0,1,triangle,star,,,,,,,,,,,,,,,,,,,,,,,,,,,,,,,,,,,,,,,,,,,,,,,,,,,,,,
295282,2022-10-06_17h14.36.050,vts_reward_expectancy,2022.2.4,MacIntel,60.0024001,Chrome,1440,900,,,a,0.4288,10,574,2,2,9,33,5,1,0,1,0,0,0,0,0,1,circle,star,,,,,,,,,,,,,,,,,,,,,,,,,,,,,,,,,,,,,,,,,,,,,,,,,,,,,,
295282,2022-10-06_17h14.36.050,vts_reward_expectancy,2022.2.4,MacIntel,60.0024001,Chrome,1440,900,,,l,0.7076,10,584,2,2,10,34,6,1,0,0,1,0,1,0,0,0,hexagon,triangle,,,,,,,,,,,,,,,,,,,,,,,,,,,,,,,,,,,,,,,,,,,,,,,,,,,,,,
295282,2022-10-06_17h14.36.050,vts_reward_expectancy,2022.2.4,MacIntel,60.0024001,Chrome,1440,900,,,l,0.851,1,585,2,2,11,35,8,1,0,0,1,0,0,0,0,1,hexagon,star,,,,,,,,,,,,,,,,,,,,,,,,,,,,,,,,,,,,,,,,,,,,,,,,,,,,,,
295282,2022-10-06_17h14.36.050,vts_reward_expectancy,2022.2.4,MacIntel,60.0024001,Chrome,1440,900,,,,,,,,,,,,,,,,,,,,,,,125,U,star,1,0,d,1.9972,0,0,0,0,0,1,,,,,,,,,,,,,,,,,,,,,,,,,,,,,,,,,,,,,,,,,
295282,2022-10-06_17h14.36.050,vts_reward_expectancy,2022.2.4,MacIntel,60.0024001,Chrome,1440,900,,,,,,,,,,,,,,,,,,,,,,,174,W,hexagon,1,0,f,0.8378,0,1,0,1,0,1,,,,,,,,,,,,,,,,,,,,,,,,,,,,,,,,,,,,,,,,,
295282,2022-10-06_17h14.36.050,vts_reward_expectancy,2022.2.4,MacIntel,60.0024001,Chrome,1440,900,,,,,,,,,,,,,,,,,,,,,,,132,Y,circle,1,0,d,0.647700001,0,2,0,2,0,1,,,,,,,,,,,,,,,,,,,,,,,,,,,,,,,,,,,,,,,,,
295282,2022-10-06_17h14.36.050,vts_reward_expectancy,2022.2.4,MacIntel,60.0024001,Chrome,1440,900,,,,,,,,,,,,,,,,,,,,,,,181,D,triangle,1,0,f,0.5319,0,3,0,3,0,1,,,,,,,,,,,,,,,,,,,,,,,,,,,,,,,,,,,,,,,,,
295282,2022-10-06_17h14.36.050,vts_reward_expectancy,2022.2.4,MacIntel,60.0024001,Chrome,1440,900,,,,,,,,,,,,,,,,,,,,,,,167,H,star,1,0,f,0.8652,0,4,0,4,0,1,,,,,,,,,,,,,,,,,,,,,,,,,,,,,,,,,,,,,,,,,
295282,2022-10-06_17h14.36.050,vts_reward_expectancy,2022.2.4,MacIntel,60.0024001,Chrome,1440,900,,,,,,,,,,,,,,,,,,,,,,,146,B,hexagon,1,0,d,0.5154,0,5,0,5,0,1,,,,,,,,,,,,,,,,,,,,,,,,,,,,,,,,,,,,,,,,,
295282,2022-10-06_17h14.36.050,vts_reward_expectancy,2022.2.4,MacIntel,60.0024001,Chrome,1440,900,,,,,,,,,,,,,,,,,,,,,,,160,F,circle,1,0,f,0.848599999,0,6,0,6,0,1,,,,,,,,,,,,,,,,,,,,,,,,,,,,,,,,,,,,,,,,,
295282,2022-10-06_17h14.36.050,vts_reward_expectancy,2022.2.4,MacIntel,60.0024001,Chrome,1440,900,,,,,,,,,,,,,,,,,,,,,,,139,S,triangle,1,0,d,0.7519,0,7,0,7,0,1,,,,,,,,,,,,,,,,,,,,,,,,,,,,,,,,,,,,,,,,,
295282,2022-10-06_17h14.36.050,vts_reward_expectancy,2022.2.4,MacIntel,60.0024001,Chrome,1440,900,,,,,,,,,,,,,,,,,,,,,,,125,U,star,1,0,d,0.6485,0,8,0,8,0,1,,,,,,,,,,,,,,,,,,,,,,,,,,,,,,,,,,,,,,,,,
295282,2022-10-06_17h14.36.050,vts_reward_expectancy,2022.2.4,MacIntel,60.0024001,Chrome,1440,900,,,,,,,,,,,,,,,,,,,,,,,174,W,triangle,1,0,f,0.6485,0,9,0,9,0,1,,,,,,,,,,,,,,,,,,,,,,,,,,,,,,,,,,,,,,,,,
295282,2022-10-06_17h14.36.050,vts_reward_expectancy,2022.2.4,MacIntel,60.0024001,Chrome,1440,900,,,,,,,,,,,,,,,,,,,,,,,125,D,triangle,1,0,,,1,,,,,,j,1.7688,0,0,0,0,1,,,,,,,,,,,,,,,,,,,,,,,,,,,,,,,,,,
295282,2022-10-06_17h14.36.050,vts_reward_expectancy,2022.2.4,MacIntel,60.0024001,Chrome,1440,900,,,,,,,,,,,,,,,,,,,,,,,139,B,star,1,0,,,1,,,,,,j,0.7133,1,0,1,0,1,,,,,,,,,,,,,,,,,,,,,,,,,,,,,,,,,,
295282,2022-10-06_17h14.36.050,vts_reward_expectancy,2022.2.4,MacIntel,60.0024001,Chrome,1440,900,,,,,,,,,,,,,,,,,,,,,,,160,W,circle,1,0,,,1,,,,,,k,0.731599999,2,0,2,0,1,,,,,,,,,,,,,,,,,,,,,,,,,,,,,,,,,,
295282,2022-10-06_17h14.36.050,vts_reward_expectancy,2022.2.4,MacIntel,60.0024001,Chrome,1440,900,,,,,,,,,,,,,,,,,,,,,,,167,U,hexagon,1,0,,,1,,,,,,k,0.674,3,0,3,0,1,,,,,,,,,,,,,,,,,,,,,,,,,,,,,,,,,,
295282,2022-10-06_17h14.36.050,vts_reward_expectancy,2022.2.4,MacIntel,60.0024001,Chrome,1440,900,,,,,,,,,,,,,,,,,,,,,,,174,S,triangle,1,0,,,1,,,,,,k,0.614299999,4,0,4,0,1,,,,,,,,,,,,,,,,,,,,,,,,,,,,,,,,,,
295282,2022-10-06_17h14.36.050,vts_reward_expectancy,2022.2.4,MacIntel,60.0024001,Chrome,1440,900,,,,,,,,,,,,,,,,,,,,,,,181,F,star,1,0,,,1,,,,,,j,0.6793,5,0,5,0,1,,,,,,,,,,,,,,,,,,,,,,,,,,,,,,,,,,
295282,2022-10-06_17h14.36.050,vts_reward_expectancy,2022.2.4,MacIntel,60.0024001,Chrome,1440,900,,,,,,,,,,,,,,,,,,,,,,,146,H,circle,1,0,,,1,,,,,,j,0.6882,6,0,6,0,1,,,,,,,,,,,,,,,,,,,,,,,,,,,,,,,,,,
295282,2022-10-06_17h14.36.050,vts_reward_expectancy,2022.2.4,MacIntel,60.0024001,Chrome,1440,900,,,,,,,,,,,,,,,,,,,,,,,132,Y,hexagon,1,0,,,1,,,,,,k,0.664,7,0,7,0,1,,,,,,,,,,,,,,,,,,,,,,,,,,,,,,,,,,
295282,2022-10-06_17h14.36.050,vts_reward_expectancy,2022.2.4,MacIntel,60.0024001,Chrome,1440,900,,,,,,,,,,,,,,,,,,,,,,,125,D,triangle,1,0,,,1,,,,,,j,0.6448,8,0,8,0,1,,,,,,,,,,,,,,,,,,,,,,,,,,,,,,,,,,
295282,2022-10-06_17h14.36.050,vts_reward_expectancy,2022.2.4,MacIntel,60.0024001,Chrome,1440,900,,,,,,,,,,,,,,,,,,,,,,,139,B,circle,1,0,,,1,,,,,,j,0.556900001,9,0,9,0,1,,,,,,,,,,,,,,,,,,,,,,,,,,,,,,,,,,
295282,2022-10-06_17h14.36.050,vts_reward_expectancy,2022.2.4,MacIntel,60.0024001,Chrome,1440,900,,,,,0,585,,,,,,,,,,,,,,,,,174,S,circle,1,0,,,2,,,,,,,,,,,,,-1,letter,NA,k,1.642400001,vtsPrac,0,0,0,0,1,,,,,,,,,,,,,,,,,,,,,,,
295282,2022-10-06_17h14.36.050,vts_reward_expectancy,2022.2.4,MacIntel,60.0024001,Chrome,1440,900,,,,,0,585,,,,,,,,,,,,,,,,,125,U,hexagon,1,0,,,2,,,,,,,,,,,,,repeat,letter,lettRpt,k,1.4459,vtsPrac,1,0,1,0,1,,,,,,,,,,,,,,,,,,,,,,,
295282,2022-10-06_17h14.36.050,vts_reward_expectancy,2022.2.4,MacIntel,60.0024001,Chrome,1440,900,,,,,0,585,,,,,,,,,,,,,,,,,181,H,circle,1,0,,,2,,,,,,,,,,,,,switch,number,numSwt,f,0.6729,vtsPrac,2,0,2,0,1,,,,,,,,,,,,,,,,,,,,,,,
295282,2022-10-06_17h14.36.050,vts_reward_expectancy,2022.2.4,MacIntel,60.0024001,Chrome,1440,900,,,,,0,585,,,,,,,,,,,,,,,,,167,D,hexagon,1,0,,,2,,,,,,,,,,,,,switch,letter,lettSwt,j,1.341299999,vtsPrac,3,0,3,0,1,,,,,,,,,,,,,,,,,,,,,,,
295282,2022-10-06_17h14.36.050,vts_reward_expectancy,2022.2.4,MacIntel,60.0024001,Chrome,1440,900,,,,,0,585,,,,,,,,,,,,,,,,,174,S,circle,1,0,,,2,,,,,,,,,,,,,repeat,letter,lettRpt,k,0.5913,vtsPrac,4,0,4,0,1,,,,,,,,,,,,,,,,,,,,,,,
295282,2022-10-06_17h14.36.050,vts_reward_expectancy,2022.2.4,MacIntel,60.0024001,Chrome,1440,900,,,,,0,585,,,,,,,,,,,,,,,,,125,U,triangle,1,0,,,2,,,,,,,,,,,,,repeat,letter,lettRpt,k,0.6939,vtsPrac,5,0,5,0,1,,,,,,,,,,,,,,,,,,,,,,,
295282,2022-10-06_17h14.36.050,vts_reward_expectancy,2022.2.4,MacIntel,60.0024001,Chrome,1440,900,,,,,0,585,,,,,,,,,,,,,,,,,181,H,star,1,0,,,2,,,,,,,,,,,,,switch,number,numSwt,f,0.8791,vtsPrac,6,0,6,0,1,,,,,,,,,,,,,,,,,,,,,,,
295282,2022-10-06_17h14.36.050,vts_reward_expectancy,2022.2.4,MacIntel,60.0024001,Chrome,1440,900,,,,,0,585,,,,,,,,,,,,,,,,,167,D,triangle,1,0,,,2,,,,,,,,,,,,,repeat,number,numRpt,f,1.262200001,vtsPrac,7,0,7,0,1,,,,,,,,,,,,,,,,,,,,,,,
295282,2022-10-06_17h14.36.050,vts_reward_expectancy,2022.2.4,MacIntel,60.0024001,Chrome,1440,900,,,,,0,585,,,,,,,,,,,,,,,,,139,H,hexagon,1,0,,,2,,,,,,,,,,,,,repeat,number,numRpt,d,1.9206,vtsPrac,8,0,8,0,1,,,,,,,,,,,,,,,,,,,,,,,
295282,2022-10-06_17h14.36.050,vts_reward_expectancy,2022.2.4,MacIntel,60.0024001,Chrome,1440,900,,,,,0,585,,,,,,,,,,,,,,,,,125,Y,star,1,0,,,2,,,,,,,,,,,,,repeat,number,numRpt,d,0.7351,vtsPrac,9,0,9,0,1,,,,,,,,,,,,,,,,,,,,,,,
295282,2022-10-06_17h14.36.050,vts_reward_expectancy,2022.2.4,MacIntel,60.0024001,Chrome,1440,900,,,,,0,585,,,,,,,,,,,,,,,,,160,W,star,1,0,,,2,,,,,,,,,,,,,switch,letter,lettSwt,k,0.5713,vtsPrac,10,0,10,0,1,,,,,,,,,,,,,,,,,,,,,,,
295282,2022-10-06_17h14.36.050,vts_reward_expectancy,2022.2.4,MacIntel,60.0024001,Chrome,1440,900,,,,,0,585,,,,,,,,,,,,,,,,,132,F,circle,1,0,,,2,,,,,,,,,,,,,switch,number,numSwt,d,0.536099999,vtsPrac,11,0,11,0,1,,,,,,,,,,,,,,,,,,,,,,,
295282,2022-10-06_17h14.36.050,vts_reward_expectancy,2022.2.4,MacIntel,60.0024001,Chrome,1440,900,,,,,0,585,,,,,,,,,,,,,,,,,181,U,circle,1,0,,,2,,,,,,,,,,,,,switch,letter,lettSwt,k,1.1038,vtsPrac,12,0,12,0,1,,,,,,,,,,,,,,,,,,,,,,,
295282,2022-10-06_17h14.36.050,vts_reward_expectancy,2022.2.4,MacIntel,60.0024001,Chrome,1440,900,,,,,0,585,,,,,,,,,,,,,,,,,167,D,star,1,0,,,2,,,,,,,,,,,,,repeat,letter,lettRpt,j,1.3477,vtsPrac,13,0,13,0,1,,,,,,,,,,,,,,,,,,,,,,,
295282,2022-10-06_17h14.36.050,vts_reward_expectancy,2022.2.4,MacIntel,60.0024001,Chrome,1440,900,,,,,0,585,,,,,,,,,,,,,,,,,160,H,triangle,0,0,,,2,,,,,,,,,,,,,switch,number,NA,d,0.9393,vtsPrac,14,0,14,0,1,,,,,,,,,,,,,,,,,,,,,,,
295282,2022-10-06_17h14.36.050,vts_reward_expectancy,2022.2.4,MacIntel,60.0024001,Chrome,1440,900,,,,,0,585,,,,,,,,,,,,,,,,,132,S,hexagon,1,1,,,2,,,,,,,,,,,,,repeat,number,numRpt,d,0.6974,vtsPrac,15,0,15,0,1,,,,,,,,,,,,,,,,,,,,,,,
295282,2022-10-06_17h14.36.050,vts_reward_expectancy,2022.2.4,MacIntel,60.0024001,Chrome,1440,900,,,,,,,,,,,,,,,,,,,,,,,,,,,,,,,,,,,,,,,,,,,,,,,,,,,,,,,,,,,,,,,,,,,,,,,,,,,,
295282,2022-10-06_17h14.36.050,vts_reward_expectancy,2022.2.4,MacIntel,60.0024001,Chrome,1440,900,,,,,,,,,,,,,,,,,,,,,,,,,,,,,,,,,,,,,,,,,,,,,,,,,,,,,,,,,,,,,,,,,,,,,,,,,,,,
295282,2022-10-06_17h14.36.050,vts_reward_expectancy,2022.2.4,MacIntel,60.0024001,Chrome,1440,900,,,,,0,585,,,,,,,,,,,,,,,,,160,F,star,1,0,,,,,,,,,,,,,,,,repeat,number,numRpt,f,1.8326,noRew,,,,,,0,0,0,0,0,1,,,,,,,,,,,,,,,,,
295282,2022-10-06_17h14.36.050,vts_reward_expectancy,2022.2.4,MacIntel,60.0024001,Chrome,1440,900,,,,,0,585,,,,,,,,,,,,,,,,,167,Y,circle,1,0,,,,,,,,,,,,,,,,repeat,number,numRpt,f,0.7882,noRew,,,,,,0,1,0,1,0,1,,,,,,,,,,,,,,,,,
295282,2022-10-06_17h14.36.050,vts_reward_expectancy,2022.2.4,MacIntel,60.0024001,Chrome,1440,900,,,,,0,585,,,,,,,,,,,,,,,,,174,U,star,1,0,,,,,,,,,,,,,,,,switch,letter,lettSwt,k,0.649,noRew,,,,,,0,2,0,2,0,1,,,,,,,,,,,,,,,,,
295282,2022-10-06_17h14.36.050,vts_reward_expectancy,2022.2.4,MacIntel,60.0024001,Chrome,1440,900,,,,,0,585,,,,,,,,,,,,,,,,,139,B,circle,1,0,,,,,,,,,,,,,,,,switch,number,numSwt,d,0.782099999,noRew,,,,,,0,3,0,3,0,1,,,,,,,,,,,,,,,,,
295282,2022-10-06_17h14.36.050,vts_reward_expectancy,2022.2.4,MacIntel,60.0024001,Chrome,1440,900,,,,,0,585,,,,,,,,,,,,,,,,,160,F,star,1,0,,,,,,,,,,,,,,,,repeat,number,numRpt,f,1.0813,noRew,,,,,,0,4,0,4,0,1,,,,,,,,,,,,,,,,,
295282,2022-10-06_17h14.36.050,vts_reward_expectancy,2022.2.4,MacIntel,60.0024001,Chrome,1440,900,,,,,0,585,,,,,,,,,,,,,,,,,167,Y,triangle,1,0,,,,,,,,,,,,,,,,repeat,number,numRpt,f,1.064400001,noRew,,,,,,0,5,0,5,0,1,,,,,,,,,,,,,,,,,
295282,2022-10-06_17h14.36.050,vts_reward_expectancy,2022.2.4,MacIntel,60.0024001,Chrome,1440,900,,,,,0,585,,,,,,,,,,,,,,,,,174,U,star,1,0,,,,,,,,,,,,,,,,switch,letter,lettSwt,k,0.6345,noRew,,,,,,0,6,0,6,0,1,,,,,,,,,,,,,,,,,
295282,2022-10-06_17h14.36.050,vts_reward_expectancy,2022.2.4,MacIntel,60.0024001,Chrome,1440,900,,,,,0,585,,,,,,,,,,,,,,,,,139,B,circle,1,0,,,,,,,,,,,,,,,,repeat,letter,lettRpt,j,0.9598,noRew,,,,,,0,7,0,7,0,1,,,,,,,,,,,,,,,,,
295282,2022-10-06_17h14.36.050,vts_reward_expectancy,2022.2.4,MacIntel,60.0024001,Chrome,1440,900,,,,,0,585,,,,,,,,,,,,,,,,,139,F,star,1,0,,,,,,,,,,,,,,,,repeat,letter,lettRpt,j,0.972799999,noRew,,,,,,0,8,0,8,0,1,,,,,,,,,,,,,,,,,
295282,2022-10-06_17h14.36.050,vts_reward_expectancy,2022.2.4,MacIntel,60.0024001,Chrome,1440,900,,,,,0,585,,,,,,,,,,,,,,,,,167,Y,circle,1,0,,,,,,,,,,,,,,,,switch,number,numSwt,f,0.838400001,noRew,,,,,,0,9,0,9,0,1,,,,,,,,,,,,,,,,,
295282,2022-10-06_17h14.36.050,vts_reward_expectancy,2022.2.4,MacIntel,60.0024001,Chrome,1440,900,,,,,0,585,,,,,,,,,,,,,,,,,125,H,hexagon,1,0,,,,,,,,,,,,,,,,repeat,number,numRpt,d,1.3728,noRew,,,,,,0,10,0,10,0,1,,,,,,,,,,,,,,,,,
295282,2022-10-06_17h14.36.050,vts_reward_expectancy,2022.2.4,MacIntel,60.0024001,Chrome,1440,900,,,,,0,585,,,,,,,,,,,,,,,,,174,B,star,1,0,,,,,,,,,,,,,,,,repeat,number,numRpt,f,0.7967,noRew,,,,,,0,11,0,11,0,1,,,,,,,,,,,,,,,,,
295282,2022-10-06_17h14.36.050,vts_reward_expectancy,2022.2.4,MacIntel,60.0024001,Chrome,1440,900,,,,,0,585,,,,,,,,,,,,,,,,,167,U,circle,1,0,,,,,,,,,,,,,,,,switch,letter,lettSwt,k,0.5569,noRew,,,,,,0,12,0,12,0,1,,,,,,,,,,,,,,,,,
295282,2022-10-06_17h14.36.050,vts_reward_expectancy,2022.2.4,MacIntel,60.0024001,Chrome,1440,900,,,,,0,585,,,,,,,,,,,,,,,,,146,S,star,1,0,,,,,,,,,,,,,,,,repeat,letter,lettRpt,k,0.8475,noRew,,,,,,0,13,0,13,0,1,,,,,,,,,,,,,,,,,
295282,2022-10-06_17h14.36.050,vts_reward_expectancy,2022.2.4,MacIntel,60.0024001,Chrome,1440,900,,,,,0,585,,,,,,,,,,,,,,,,,160,H,circle,1,0,,,,,,,,,,,,,,,,repeat,letter,lettRpt,j,1.1403,noRew,,,,,,0,14,0,14,0,1,,,,,,,,,,,,,,,,,
295282,2022-10-06_17h14.36.050,vts_reward_expectancy,2022.2.4,MacIntel,60.0024001,Chrome,1440,900,,,,,0,585,,,,,,,,,,,,,,,,,174,F,hexagon,1,0,,,,,,,,,,,,,,,,repeat,letter,lettRpt,j,0.9641,noRew,,,,,,0,15,0,15,0,1,,,,,,,,,,,,,,,,,
295282,2022-10-06_17h14.36.050,vts_reward_expectancy,2022.2.4,MacIntel,60.0024001,Chrome,1440,900,,,,,0,585,,,,,,,,,,,,,,,,,139,F,hexagon,1,0,,,,,,,,,,,,,,,,repeat,letter,lettRpt,j,0.7147,noRew,,,,,,0,16,0,16,0,1,,,,,,,,,,,,,,,,,
295282,2022-10-06_17h14.36.050,vts_reward_expectancy,2022.2.4,MacIntel,60.0024001,Chrome,1440,900,,,,,0,585,,,,,,,,,,,,,,,,,181,Y,triangle,1,0,,,,,,,,,,,,,,,,switch,number,numSwt,f,1.1811,noRew,,,,,,0,17,0,17,0,1,,,,,,,,,,,,,,,,,
295282,2022-10-06_17h14.36.050,vts_reward_expectancy,2022.2.4,MacIntel,60.0024001,Chrome,1440,900,,,,,0,585,,,,,,,,,,,,,,,,,146,B,star,1,0,,,,,,,,,,,,,,,,repeat,number,numRpt,d,0.8146,noRew,,,,,,0,18,0,18,0,1,,,,,,,,,,,,,,,,,
295282,2022-10-06_17h14.36.050,vts_reward_expectancy,2022.2.4,MacIntel,60.0024001,Chrome,1440,900,,,,,0,585,,,,,,,,,,,,,,,,,125,U,triangle,1,0,,,,,,,,,,,,,,,,repeat,number,numRpt,d,1.3817,noRew,,,,,,0,19,0,19,0,1,,,,,,,,,,,,,,,,,
295282,2022-10-06_17h14.36.050,vts_reward_expectancy,2022.2.4,MacIntel,60.0024001,Chrome,1440,900,,,,,0,585,,,,,,,,,,,,,,,,,146,F,circle,1,0,,,,,,,,,,,,,,,,repeat,number,numRpt,d,1.452400001,noRew,,,,,,0,20,0,20,0,1,,,,,,,,,,,,,,,,,
295282,2022-10-06_17h14.36.050,vts_reward_expectancy,2022.2.4,MacIntel,60.0024001,Chrome,1440,900,,,,,0,585,,,,,,,,,,,,,,,,,139,W,hexagon,1,0,,,,,,,,,,,,,,,,repeat,number,numRpt,d,0.995700001,noRew,,,,,,0,21,0,21,0,1,,,,,,,,,,,,,,,,,
295282,2022-10-06_17h14.36.050,vts_reward_expectancy,2022.2.4,MacIntel,60.0024001,Chrome,1440,900,,,,,0,585,,,,,,,,,,,,,,,,,132,U,hexagon,1,0,,,,,,,,,,,,,,,,repeat,number,numRpt,d,0.583400001,noRew,,,,,,0,22,0,22,0,1,,,,,,,,,,,,,,,,,
295282,2022-10-06_17h14.36.050,vts_reward_expectancy,2022.2.4,MacIntel,60.0024001,Chrome,1440,900,,,,,0,585,,,,,,,,,,,,,,,,,160,Y,star,1,0,,,,,,,,,,,,,,,,switch,letter,lettSwt,k,0.5379,noRew,,,,,,0,23,0,23,0,1,,,,,,,,,,,,,,,,,
295282,2022-10-06_17h14.36.050,vts_reward_expectancy,2022.2.4,MacIntel,60.0024001,Chrome,1440,900,,,,,0,585,,,,,,,,,,,,,,,,,132,B,hexagon,1,0,,,,,,,,,,,,,,,,repeat,letter,lettRpt,j,0.8239,noRew,,,,,,0,24,0,24,0,1,,,,,,,,,,,,,,,,,
295282,2022-10-06_17h14.36.050,vts_reward_expectancy,2022.2.4,MacIntel,60.0024001,Chrome,1440,900,,,,,0,585,,,,,,,,,,,,,,,,,174,U,triangle,1,0,,,,,,,,,,,,,,,,repeat,letter,lettRpt,k,0.714200001,noRew,,,,,,0,25,0,25,0,1,,,,,,,,,,,,,,,,,
295282,2022-10-06_17h14.36.050,vts_reward_expectancy,2022.2.4,MacIntel,60.0024001,Chrome,1440,900,,,,,0,585,,,,,,,,,,,,,,,,,167,D,hexagon,1,0,,,,,,,,,,,,,,,,repeat,letter,lettRpt,j,1.672599999,noRew,,,,,,0,26,0,26,0,1,,,,,,,,,,,,,,,,,
295282,2022-10-06_17h14.36.050,vts_reward_expectancy,2022.2.4,MacIntel,60.0024001,Chrome,1440,900,,,,,0,585,,,,,,,,,,,,,,,,,139,Y,circle,1,0,,,,,,,,,,,,,,,,repeat,letter,lettRpt,k,0.6305,noRew,,,,,,0,27,0,27,0,1,,,,,,,,,,,,,,,,,
295282,2022-10-06_17h14.36.050,vts_reward_expectancy,2022.2.4,MacIntel,60.0024001,Chrome,1440,900,,,,,0,585,,,,,,,,,,,,,,,,,125,B,hexagon,1,0,,,,,,,,,,,,,,,,repeat,letter,lettRpt,j,0.5645,noRew,,,,,,0,28,0,28,0,1,,,,,,,,,,,,,,,,,
295282,2022-10-06_17h14.36.050,vts_reward_expectancy,2022.2.4,MacIntel,60.0024001,Chrome,1440,900,,,,,0,585,,,,,,,,,,,,,,,,,167,Y,circle,1,0,,,,,,,,,,,,,,,,repeat,letter,lettRpt,k,0.5703,noRew,,,,,,0,29,0,29,0,1,,,,,,,,,,,,,,,,,
295282,2022-10-06_17h14.36.050,vts_reward_expectancy,2022.2.4,MacIntel,60.0024001,Chrome,1440,900,,,,,0,585,,,,,,,,,,,,,,,,,139,U,triangle,1,0,,,,,,,,,,,,,,,,switch,number,numSwt,d,1.3315,noRew,,,,,,0,30,0,30,0,1,,,,,,,,,,,,,,,,,
295282,2022-10-06_17h14.36.050,vts_reward_expectancy,2022.2.4,MacIntel,60.0024001,Chrome,1440,900,,,,,0,585,,,,,,,,,,,,,,,,,132,W,circle,1,0,,,,,,,,,,,,,,,,switch,letter,lettSwt,k,0.8536,noRew,,,,,,0,31,0,31,0,1,,,,,,,,,,,,,,,,,
295282,2022-10-06_17h14.36.050,vts_reward_expectancy,2022.2.4,MacIntel,60.0024001,Chrome,1440,900,,,,,0,585,,,,,,,,,,,,,,,,,146,Y,hexagon,1,0,,,,,,,,,,,,,,,,switch,number,numSwt,d,1.6698,noRew,,,,,,0,32,0,32,0,1,,,,,,,,,,,,,,,,,
295282,2022-10-06_17h14.36.050,vts_reward_expectancy,2022.2.4,MacIntel,60.0024001,Chrome,1440,900,,,,,0,585,,,,,,,,,,,,,,,,,181,W,circle,1,0,,,,,,,,,,,,,,,,repeat,number,numRpt,f,1.1945,noRew,,,,,,0,33,0,33,0,1,,,,,,,,,,,,,,,,,
295282,2022-10-06_17h14.36.050,vts_reward_expectancy,2022.2.4,MacIntel,60.0024001,Chrome,1440,900,,,,,0,585,,,,,,,,,,,,,,,,,160,F,star,1,0,,,,,,,,,,,,,,,,repeat,number,numRpt,f,1.491400001,noRew,,,,,,0,34,0,34,0,1,,,,,,,,,,,,,,,,,
295282,2022-10-06_17h14.36.050,vts_reward_expectancy,2022.2.4,MacIntel,60.0024001,Chrome,1440,900,,,,,0,585,,,,,,,,,,,,,,,,,139,D,circle,1,0,,,,,,,,,,,,,,,,repeat,number,numRpt,d,1.0117,noRew,,,,,,0,35,0,35,0,1,,,,,,,,,,,,,,,,,
295282,2022-10-06_17h14.36.050,vts_reward_expectancy,2022.2.4,MacIntel,60.0024001,Chrome,1440,900,,,,,0,585,,,,,,,,,,,,,,,,,146,B,circle,1,0,,,,,,,,,,,,,,,,repeat,number,numRpt,d,0.9651,noRew,,,,,,0,36,0,36,0,1,,,,,,,,,,,,,,,,,
295282,2022-10-06_17h14.36.050,vts_reward_expectancy,2022.2.4,MacIntel,60.0024001,Chrome,1440,900,,,,,0,585,,,,,,,,,,,,,,,,,132,Y,hexagon,1,0,,,,,,,,,,,,,,,,repeat,number,numRpt,d,0.904400001,noRew,,,,,,0,37,0,37,0,1,,,,,,,,,,,,,,,,,
295282,2022-10-06_17h14.36.050,vts_reward_expectancy,2022.2.4,MacIntel,60.0024001,Chrome,1440,900,,,,,0,585,,,,,,,,,,,,,,,,,181,D,hexagon,1,0,,,,,,,,,,,,,,,,repeat,number,numRpt,f,0.78,noRew,,,,,,0,38,0,38,0,1,,,,,,,,,,,,,,,,,
295282,2022-10-06_17h14.36.050,vts_reward_expectancy,2022.2.4,MacIntel,60.0024001,Chrome,1440,900,,,,,0,585,,,,,,,,,,,,,,,,,139,F,star,1,0,,,,,,,,,,,,,,,,switch,letter,lettSwt,j,1.7233,noRew,,,,,,0,39,0,39,0,1,,,,,,,,,,,,,,,,,
295282,2022-10-06_17h14.36.050,vts_reward_expectancy,2022.2.4,MacIntel,60.0024001,Chrome,1440,900,,,,,0,585,,,,,,,,,,,,,,,,,139,S,star,1,0,,,,,,,,,,,,,,,,repeat,letter,lettRpt,k,0.6264,noRew,,,,,,0,40,0,40,0,1,,,,,,,,,,,,,,,,,
295282,2022-10-06_17h14.36.050,vts_reward_expectancy,2022.2.4,MacIntel,60.0024001,Chrome,1440,900,,,,,0,585,,,,,,,,,,,,,,,,,167,W,triangle,1,0,,,,,,,,,,,,,,,,repeat,letter,lettRpt,k,0.768099999,noRew,,,,,,0,41,0,41,0,1,,,,,,,,,,,,,,,,,
295282,2022-10-06_17h14.36.050,vts_reward_expectancy,2022.2.4,MacIntel,60.0024001,Chrome,1440,900,,,,,0,585,,,,,,,,,,,,,,,,,181,Y,hexagon,1,0,,,,,,,,,,,,,,,,switch,number,numSwt,f,0.565,noRew,,,,,,0,42,0,42,0,1,,,,,,,,,,,,,,,,,
295282,2022-10-06_17h14.36.050,vts_reward_expectancy,2022.2.4,MacIntel,60.0024001,Chrome,1440,900,,,,,0,585,,,,,,,,,,,,,,,,,160,F,star,1,0,,,,,,,,,,,,,,,,repeat,number,numRpt,f,0.9474,noRew,,,,,,0,43,0,43,0,1,,,,,,,,,,,,,,,,,
295282,2022-10-06_17h14.36.050,vts_reward_expectancy,2022.2.4,MacIntel,60.0024001,Chrome,1440,900,,,,,0,585,,,,,,,,,,,,,,,,,132,H,circle,1,0,,,,,,,,,,,,,,,,switch,letter,lettSwt,j,1.483099999,noRew,,,,,,0,44,0,44,0,1,,,,,,,,,,,,,,,,,
295282,2022-10-06_17h14.36.050,vts_reward_expectancy,2022.2.4,MacIntel,60.0024001,Chrome,1440,900,,,,,0,585,,,,,,,,,,,,,,,,,174,Y,hexagon,1,0,,,,,,,,,,,,,,,,repeat,letter,lettRpt,k,0.913299999,noRew,,,,,,0,45,0,45,0,1,,,,,,,,,,,,,,,,,
295282,2022-10-06_17h14.36.050,vts_reward_expectancy,2022.2.4,MacIntel,60.0024001,Chrome,1440,900,,,,,0,585,,,,,,,,,,,,,,,,,167,S,triangle,1,0,,,,,,,,,,,,,,,,switch,number,numSwt,f,0.8553,noRew,,,,,,0,46,0,46,0,1,,,,,,,,,,,,,,,,,
295282,2022-10-06_17h14.36.050,vts_reward_expectancy,2022.2.4,MacIntel,60.0024001,Chrome,1440,900,,,,,0,585,,,,,,,,,,,,,,,,,125,F,star,1,0,,,,,,,,,,,,,,,,repeat,number,numRpt,d,0.5785,noRew,,,,,,0,47,0,47,0,1,,,,,,,,,,,,,,,,,
295282,2022-10-06_17h14.36.050,vts_reward_expectancy,2022.2.4,MacIntel,60.0024001,Chrome,1440,900,,,,,0,585,,,,,,,,,,,,,,,,,174,S,hexagon,1,0,,,,,,,,,,,,,,,,repeat,number,numRpt,f,1.8797,noRew,,,,,,0,48,0,48,0,1,,,,,,,,,,,,,,,,,
295282,2022-10-06_17h14.36.050,vts_reward_expectancy,2022.2.4,MacIntel,60.0024001,Chrome,1440,900,,,,,0,585,,,,,,,,,,,,,,,,,132,D,circle,1,0,,,,,,,,,,,,,,,,repeat,number,numRpt,d,1.6448,noRew,,,,,,0,49,0,49,0,1,,,,,,,,,,,,,,,,,
295282,2022-10-06_17h14.36.050,vts_reward_expectancy,2022.2.4,MacIntel,60.0024001,Chrome,1440,900,,,,,0,585,,,,,,,,,,,,,,,,,181,H,star,1,0,,,,,,,,,,,,,,,,repeat,number,numRpt,f,0.7837,noRew,,,,,,0,50,0,50,0,1,,,,,,,,,,,,,,,,,
295282,2022-10-06_17h14.36.050,vts_reward_expectancy,2022.2.4,MacIntel,60.0024001,Chrome,1440,900,,,,,0,585,,,,,,,,,,,,,,,,,139,W,hexagon,1,0,,,,,,,,,,,,,,,,switch,letter,lettSwt,k,0.5446,noRew,,,,,,0,51,0,51,0,1,,,,,,,,,,,,,,,,,
295282,2022-10-06_17h14.36.050,vts_reward_expectancy,2022.2.4,MacIntel,60.0024001,Chrome,1440,900,,,,,0,585,,,,,,,,,,,,,,,,,167,F,circle,0,0,,,,,,,,,,,,,,,,repeat,letter,NA,k,1.0277,noRew,,,,,,0,52,0,52,0,1,,,,,,,,,,,,,,,,,
295282,2022-10-06_17h14.36.050,vts_reward_expectancy,2022.2.4,MacIntel,60.0024001,Chrome,1440,900,,,,,0,585,,,,,,,,,,,,,,,,,146,S,triangle,1,1,,,,,,,,,,,,,,,,repeat,letter,lettRpt,k,0.7115,noRew,,,,,,0,53,0,53,0,1,,,,,,,,,,,,,,,,,
295282,2022-10-06_17h14.36.050,vts_reward_expectancy,2022.2.4,MacIntel,60.0024001,Chrome,1440,900,,,,,0,585,,,,,,,,,,,,,,,,,132,D,hexagon,1,0,,,,,,,,,,,,,,,,repeat,letter,lettRpt,j,1.430400001,noRew,,,,,,0,54,0,54,0,1,,,,,,,,,,,,,,,,,
295282,2022-10-06_17h14.36.050,vts_reward_expectancy,2022.2.4,MacIntel,60.0024001,Chrome,1440,900,,,,,0,585,,,,,,,,,,,,,,,,,125,U,circle,1,0,,,,,,,,,,,,,,,,switch,number,numSwt,d,0.728099999,noRew,,,,,,0,55,0,55,0,1,,,,,,,,,,,,,,,,,
295282,2022-10-06_17h14.36.050,vts_reward_expectancy,2022.2.4,MacIntel,60.0024001,Chrome,1440,900,,,,,0,585,,,,,,,,,,,,,,,,,139,H,hexagon,1,0,,,,,,,,,,,,,,,,repeat,number,numRpt,d,0.9443,noRew,,,,,,0,56,0,56,0,1,,,,,,,,,,,,,,,,,
295282,2022-10-06_17h14.36.050,vts_reward_expectancy,2022.2.4,MacIntel,60.0024001,Chrome,1440,900,,,,,0,585,,,,,,,,,,,,,,,,,125,U,triangle,1,0,,,,,,,,,,,,,,,,repeat,number,numRpt,d,0.8609,noRew,,,,,,0,57,0,57,0,1,,,,,,,,,,,,,,,,,
295282,2022-10-06_17h14.36.050,vts_reward_expectancy,2022.2.4,MacIntel,60.0024001,Chrome,1440,900,,,,,0,585,,,,,,,,,,,,,,,,,146,D,star,1,0,,,,,,,,,,,,,,,,switch,letter,lettSwt,j,1.0629,noRew,,,,,,0,58,0,58,0,1,,,,,,,,,,,,,,,,,
295282,2022-10-06_17h14.36.050,vts_reward_expectancy,2022.2.4,MacIntel,60.0024001,Chrome,1440,900,,,,,0,585,,,,,,,,,,,,,,,,,167,B,hexagon,1,0,,,,,,,,,,,,,,,,repeat,letter,lettRpt,j,0.695099999,noRew,,,,,,0,59,0,59,0,1,,,,,,,,,,,,,,,,,
295282,2022-10-06_17h14.36.050,vts_reward_expectancy,2022.2.4,MacIntel,60.0024001,Chrome,1440,900,,,,,0,585,,,,,,,,,,,,,,,,,167,W,star,1,0,,,,,,,,,,,,,,,,repeat,letter,lettRpt,k,0.8813,noRew,,,,,,0,60,0,60,0,1,,,,,,,,,,,,,,,,,
295282,2022-10-06_17h14.36.050,vts_reward_expectancy,2022.2.4,MacIntel,60.0024001,Chrome,1440,900,,,,,0,585,,,,,,,,,,,,,,,,,160,F,triangle,0,0,,,,,,,,,,,,,,,,repeat,letter,NA,k,0.7281,noRew,,,,,,0,61,0,61,0,1,,,,,,,,,,,,,,,,,
295282,2022-10-06_17h14.36.050,vts_reward_expectancy,2022.2.4,MacIntel,60.0024001,Chrome,1440,900,,,,,0,585,,,,,,,,,,,,,,,,,132,D,hexagon,1,1,,,,,,,,,,,,,,,,repeat,letter,lettRpt,j,1.2645,noRew,,,,,,0,62,0,62,0,1,,,,,,,,,,,,,,,,,
295282,2022-10-06_17h14.36.050,vts_reward_expectancy,2022.2.4,MacIntel,60.0024001,Chrome,1440,900,,,,,0,585,,,,,,,,,,,,,,,,,174,U,triangle,1,0,,,,,,,,,,,,,,,,repeat,letter,lettRpt,k,0.8987,noRew,,,,,,0,63,0,63,0,1,,,,,,,,,,,,,,,,,
295282,2022-10-06_17h14.36.050,vts_reward_expectancy,2022.2.4,MacIntel,60.0024001,Chrome,1440,900,,,,,,,,,,,,,,,,,,,,,,,,,,,,,,,,,,,,,,,,,,,,,,,,,,,,,,,,,,,,,,,,,,,,,,,,,,,,
295282,2022-10-06_17h14.36.050,vts_reward_expectancy,2022.2.4,MacIntel,60.0024001,Chrome,1440,900,,,,,0,585,,,,,,,,,,,,,,,,,139,F,circle,1,0,,,,,,,,,,,,,,,,repeat,letter,lettRpt,j,1.561599999,Hi,,,,,,0,,,,,,space,5.6668,high,0,0,0,0,1,,,,,,,,,
295282,2022-10-06_17h14.36.050,vts_reward_expectancy,2022.2.4,MacIntel,60.0024001,Chrome,1440,900,,,,,0,585,,,,,,,,,,,,,,,,,160,S,hexagon,0,0,,,,,,,,,,,,,,,,switch,number,NA,d,0.6819,Hi,,,,,,0,,,,,,,,high,1,0,1,0,1,,,,,,,,,
295282,2022-10-06_17h14.36.050,vts_reward_expectancy,2022.2.4,MacIntel,60.0024001,Chrome,1440,900,,,,,10,595,,,,,,,,,,,,,,,,,181,U,circle,1,1,,,,,,,,,,,,,,,,switch,letter,lettSwt,k,0.3955,Hi,,,,,,0,,,,,,,,high,2,0,2,0,1,,,,,,,,,
295282,2022-10-06_17h14.36.050,vts_reward_expectancy,2022.2.4,MacIntel,60.0024001,Chrome,1440,900,,,,,1,596,,,,,,,,,,,,,,,,,125,D,hexagon,1,0,,,,,,,,,,,,,,,,switch,number,numSwt,d,0.578400001,Lo,,,,,,0,,,,,,,,high,3,0,3,0,1,,,,,,,,,
295282,2022-10-06_17h14.36.050,vts_reward_expectancy,2022.2.4,MacIntel,60.0024001,Chrome,1440,900,,,,,10,606,,,,,,,,,,,,,,,,,146,B,circle,1,0,,,,,,,,,,,,,,,,repeat,number,numRpt,d,0.4462,Hi,,,,,,0,,,,,,,,high,4,0,4,0,1,,,,,,,,,
295282,2022-10-06_17h14.36.050,vts_reward_expectancy,2022.2.4,MacIntel,60.0024001,Chrome,1440,900,,,,,1,607,,,,,,,,,,,,,,,,,132,W,hexagon,1,0,,,,,,,,,,,,,,,,switch,letter,lettSwt,k,0.4469,Lo,,,,,,0,,,,,,,,high,5,0,5,0,1,,,,,,,,,
295282,2022-10-06_17h14.36.050,vts_reward_expectancy,2022.2.4,MacIntel,60.0024001,Chrome,1440,900,,,,,1,608,,,,,,,,,,,,,,,,,167,Y,hexagon,1,0,,,,,,,,,,,,,,,,repeat,letter,lettRpt,k,0.628,Lo,,,,,,0,,,,,,,,high,6,0,6,0,1,,,,,,,,,
295282,2022-10-06_17h14.36.050,vts_reward_expectancy,2022.2.4,MacIntel,60.0024001,Chrome,1440,900,,,,,1,609,,,,,,,,,,,,,,,,,174,H,circle,1,0,,,,,,,,,,,,,,,,switch,number,numSwt,f,0.5612,Hi,,,,,,0,,,,,,,,high,7,0,7,0,1,,,,,,,,,
295282,2022-10-06_17h14.36.050,vts_reward_expectancy,2022.2.4,MacIntel,60.0024001,Chrome,1440,900,,,,,1,610,,,,,,,,,,,,,,,,,139,F,circle,1,0,,,,,,,,,,,,,,,,switch,letter,lettSwt,j,0.5624,Hi,,,,,,0,,,,,,,,high,8,0,8,0,1,,,,,,,,,
295282,2022-10-06_17h14.36.050,vts_reward_expectancy,2022.2.4,MacIntel,60.0024001,Chrome,1440,900,,,,,1,611,,,,,,,,,,,,,,,,,160,S,hexagon,1,0,,,,,,,,,,,,,,,,repeat,letter,lettRpt,k,0.712900001,Lo,,,,,,0,,,,,,,,high,9,0,9,0,1,,,,,,,,,
295282,2022-10-06_17h14.36.050,vts_reward_expectancy,2022.2.4,MacIntel,60.0024001,Chrome,1440,900,,,,,10,621,,,,,,,,,,,,,,,,,181,U,circle,1,0,,,,,,,,,,,,,,,,repeat,letter,lettRpt,k,0.643599999,Hi,,,,,,0,,,,,,,,high,10,0,10,0,1,,,,,,,,,
295282,2022-10-06_17h14.36.050,vts_reward_expectancy,2022.2.4,MacIntel,60.0024001,Chrome,1440,900,,,,,1,622,,,,,,,,,,,,,,,,,125,D,hexagon,1,0,,,,,,,,,,,,,,,,switch,number,numSwt,d,0.7124,Lo,,,,,,0,,,,,,,,high,11,0,11,0,1,,,,,,,,,
295282,2022-10-06_17h14.36.050,vts_reward_expectancy,2022.2.4,MacIntel,60.0024001,Chrome,1440,900,,,,,1,623,,,,,,,,,,,,,,,,,146,B,hexagon,1,0,,,,,,,,,,,,,,,,switch,letter,lettSwt,j,1.329599999,Lo,,,,,,0,,,,,,,,high,12,0,12,0,1,,,,,,,,,
295282,2022-10-06_17h14.36.050,vts_reward_expectancy,2022.2.4,MacIntel,60.0024001,Chrome,1440,900,,,,,0,623,,,,,,,,,,,,,,,,,132,W,circle,1,0,,,,,,,,,,,,,,,,switch,number,numSwt,d,0.878400001,Hi,,,,,,0,,,,,,,,high,13,0,13,0,1,,,,,,,,,
295282,2022-10-06_17h14.36.050,vts_reward_expectancy,2022.2.4,MacIntel,60.0024001,Chrome,1440,900,,,,,1,624,,,,,,,,,,,,,,,,,167,Y,hexagon,1,0,,,,,,,,,,,,,,,,repeat,number,numRpt,f,0.7171,Lo,,,,,,0,,,,,,,,high,14,0,14,0,1,,,,,,,,,
295282,2022-10-06_17h14.36.050,vts_reward_expectancy,2022.2.4,MacIntel,60.0024001,Chrome,1440,900,,,,,0,624,,,,,,,,,,,,,,,,,174,H,circle,1,0,,,,,,,,,,,,,,,,switch,letter,lettSwt,j,0.651,Hi,,,,,,0,,,,,,,,high,15,0,15,0,1,,,,,,,,,
295282,2022-10-06_17h14.36.050,vts_reward_expectancy,2022.2.4,MacIntel,60.0024001,Chrome,1440,900,,,,,0,624,,,,,,,,,,,,,,,,,181,F,circle,1,0,,,,,,,,,,,,,,,,repeat,letter,lettRpt,j,0.8358,Hi,,,,,,0,,,,,,,,high,16,0,16,0,1,,,,,,,,,
295282,2022-10-06_17h14.36.050,vts_reward_expectancy,2022.2.4,MacIntel,60.0024001,Chrome,1440,900,,,,,10,634,,,,,,,,,,,,,,,,,132,D,hexagon,1,0,,,,,,,,,,,,,,,,switch,number,numSwt,d,0.6536,Lo,,,,,,0,,,,,,,,high,17,0,17,0,1,,,,,,,,,
295282,2022-10-06_17h14.36.050,vts_reward_expectancy,2022.2.4,MacIntel,60.0024001,Chrome,1440,900,,,,,0,634,,,,,,,,,,,,,,,,,167,S,circle,1,0,,,,,,,,,,,,,,,,switch,letter,lettSwt,k,0.6379,Hi,,,,,,0,,,,,,,,high,18,0,18,0,1,,,,,,,,,
295282,2022-10-06_17h14.36.050,vts_reward_expectancy,2022.2.4,MacIntel,60.0024001,Chrome,1440,900,,,,,1,635,,,,,,,,,,,,,,,,,146,B,hexagon,1,0,,,,,,,,,,,,,,,,switch,number,numSwt,d,0.46,Lo,,,,,,0,,,,,,,,high,19,0,19,0,1,,,,,,,,,
295282,2022-10-06_17h14.36.050,vts_reward_expectancy,2022.2.4,MacIntel,60.0024001,Chrome,1440,900,,,,,10,645,,,,,,,,,,,,,,,,,160,W,circle,1,0,,,,,,,,,,,,,,,,switch,letter,lettSwt,k,0.4827,Hi,,,,,,0,,,,,,,,high,20,0,20,0,1,,,,,,,,,
295282,2022-10-06_17h14.36.050,vts_reward_expectancy,2022.2.4,MacIntel,60.0024001,Chrome,1440,900,,,,,1,646,,,,,,,,,,,,,,,,,139,H,hexagon,1,0,,,,,,,,,,,,,,,,repeat,letter,lettRpt,j,0.6633,Lo,,,,,,0,,,,,,,,high,21,0,21,0,1,,,,,,,,,
295282,2022-10-06_17h14.36.050,vts_reward_expectancy,2022.2.4,MacIntel,60.0024001,Chrome,1440,900,,,,,1,647,,,,,,,,,,,,,,,,,125,U,hexagon,1,0,,,,,,,,,,,,,,,,switch,number,numSwt,d,0.3967,Lo,,,,,,0,,,,,,,,high,22,0,22,0,1,,,,,,,,,
295282,2022-10-06_17h14.36.050,vts_reward_expectancy,2022.2.4,MacIntel,60.0024001,Chrome,1440,900,,,,,1,648,,,,,,,,,,,,,,,,,174,Y,circle,1,0,,,,,,,,,,,,,,,,repeat,number,numRpt,f,0.579099999,Hi,,,,,,0,,,,,,,,high,23,0,23,0,1,,,,,,,,,
295282,2022-10-06_17h14.36.050,vts_reward_expectancy,2022.2.4,MacIntel,60.0024001,Chrome,1440,900,,,,,1,649,,,,,,,,,,,,,,,,,174,W,hexagon,1,0,,,,,,,,,,,,,,,,repeat,number,numRpt,f,0.4649,Lo,,,,,,0,,,,,,,,high,24,0,24,0,1,,,,,,,,,
295282,2022-10-06_17h14.36.050,vts_reward_expectancy,2022.2.4,MacIntel,60.0024001,Chrome,1440,900,,,,,0,649,,,,,,,,,,,,,,,,,132,H,circle,1,0,,,,,,,,,,,,,,,,switch,letter,lettSwt,j,0.6113,Hi,,,,,,0,,,,,,,,high,25,0,25,0,1,,,,,,,,,
295282,2022-10-06_17h14.36.050,vts_reward_expectancy,2022.2.4,MacIntel,60.0024001,Chrome,1440,900,,,,,0,649,,,,,,,,,,,,,,,,,181,S,hexagon,0,0,,,,,,,,,,,,,,,,repeat,letter,NA,j,0.8673,Hi,,,,,,0,,,,,,,,high,26,0,26,0,1,,,,,,,,,
295282,2022-10-06_17h14.36.050,vts_reward_expectancy,2022.2.4,MacIntel,60.0024001,Chrome,1440,900,,,,,10,659,,,,,,,,,,,,,,,,,167,F,circle,1,1,,,,,,,,,,,,,,,,switch,number,numSwt,f,0.752099999,Hi,,,,,,0,,,,,,,,high,27,0,27,0,1,,,,,,,,,
295282,2022-10-06_17h14.36.050,vts_reward_expectancy,2022.2.4,MacIntel,60.0024001,Chrome,1440,900,,,,,1,660,,,,,,,,,,,,,,,,,125,Y,hexagon,1,0,,,,,,,,,,,,,,,,switch,letter,lettSwt,k,0.8008,Lo,,,,,,0,,,,,,,,high,28,0,28,0,1,,,,,,,,,
295282,2022-10-06_17h14.36.050,vts_reward_expectancy,2022.2.4,MacIntel,60.0024001,Chrome,1440,900,,,,,10,670,,,,,,,,,,,,,,,,,139,U,circle,1,0,,,,,,,,,,,,,,,,switch,number,numSwt,d,0.5201,Hi,,,,,,0,,,,,,,,high,29,0,29,0,1,,,,,,,,,
295282,2022-10-06_17h14.36.050,vts_reward_expectancy,2022.2.4,MacIntel,60.0024001,Chrome,1440,900,,,,,1,671,,,,,,,,,,,,,,,,,146,D,hexagon,1,0,,,,,,,,,,,,,,,,switch,letter,lettSwt,j,0.6122,Lo,,,,,,0,,,,,,,,high,30,0,30,0,1,,,,,,,,,
295282,2022-10-06_17h14.36.050,vts_reward_expectancy,2022.2.4,MacIntel,60.0024001,Chrome,1440,900,,,,,0,671,,,,,,,,,,,,,,,,,160,B,circle,1,0,,,,,,,,,,,,,,,,switch,number,numSwt,f,0.853400001,Hi,,,,,,0,,,,,,,,high,31,0,31,0,1,,,,,,,,,
295282,2022-10-06_17h14.36.050,vts_reward_expectancy,2022.2.4,MacIntel,60.0024001,Chrome,1440,900,,,,,0,671,,,,,,,,,,,,,,,,,160,Y,circle,1,0,,,,,,,,,,,,,,,,repeat,number,numRpt,f,0.7666,Hi,,,,,,1,,,,,,space,25.2177,high,0,0,0,0,1,,,,,,,,,
295282,2022-10-06_17h14.36.050,vts_reward_expectancy,2022.2.4,MacIntel,60.0024001,Chrome,1440,900,,,,,1,672,,,,,,,,,,,,,,,,,146,U,hexagon,1,0,,,,,,,,,,,,,,,,repeat,number,numRpt,d,0.8473,Lo,,,,,,1,,,,,,,,high,1,0,1,0,1,,,,,,,,,
295282,2022-10-06_17h14.36.050,vts_reward_expectancy,2022.2.4,MacIntel,60.0024001,Chrome,1440,900,,,,,10,682,,,,,,,,,,,,,,,,,125,F,circle,1,0,,,,,,,,,,,,,,,,switch,letter,lettSwt,j,0.413299999,Hi,,,,,,1,,,,,,,,high,2,0,2,0,1,,,,,,,,,
295282,2022-10-06_17h14.36.050,vts_reward_expectancy,2022.2.4,MacIntel,60.0024001,Chrome,1440,900,,,,,1,683,,,,,,,,,,,,,,,,,181,S,hexagon,1,0,,,,,,,,,,,,,,,,switch,number,numSwt,f,0.762599999,Lo,,,,,,1,,,,,,,,high,3,0,3,0,1,,,,,,,,,
295282,2022-10-06_17h14.36.050,vts_reward_expectancy,2022.2.4,MacIntel,60.0024001,Chrome,1440,900,,,,,1,684,,,,,,,,,,,,,,,,,174,D,hexagon,1,0,,,,,,,,,,,,,,,,switch,letter,lettSwt,j,0.734099999,Lo,,,,,,1,,,,,,,,high,4,0,4,0,1,,,,,,,,,
295282,2022-10-06_17h14.36.050,vts_reward_expectancy,2022.2.4,MacIntel,60.0024001,Chrome,1440,900,,,,,10,694,,,,,,,,,,,,,,,,,139,B,circle,1,0,,,,,,,,,,,,,,,,repeat,letter,lettRpt,j,0.4618,Hi,,,,,,1,,,,,,,,high,5,0,5,0,1,,,,,,,,,
295282,2022-10-06_17h14.36.050,vts_reward_expectancy,2022.2.4,MacIntel,60.0024001,Chrome,1440,900,,,,,1,695,,,,,,,,,,,,,,,,,132,H,hexagon,1,0,,,,,,,,,,,,,,,,switch,number,numSwt,d,0.5209,Lo,,,,,,1,,,,,,,,high,6,0,6,0,1,,,,,,,,,
295282,2022-10-06_17h14.36.050,vts_reward_expectancy,2022.2.4,MacIntel,60.0024001,Chrome,1440,900,,,,,1,696,,,,,,,,,,,,,,,,,167,W,circle,1,0,,,,,,,,,,,,,,,,switch,letter,lettSwt,k,0.4963,Hi,,,,,,1,,,,,,,,high,7,0,7,0,1,,,,,,,,,
295282,2022-10-06_17h14.36.050,vts_reward_expectancy,2022.2.4,MacIntel,60.0024001,Chrome,1440,900,,,,,1,697,,,,,,,,,,,,,,,,,160,Y,hexagon,1,0,,,,,,,,,,,,,,,,repeat,letter,lettRpt,k,0.6134,Lo,,,,,,1,,,,,,,,high,8,0,8,0,1,,,,,,,,,
295282,2022-10-06_17h14.36.050,vts_reward_expectancy,2022.2.4,MacIntel,60.0024001,Chrome,1440,900,,,,,1,698,,,,,,,,,,,,,,,,,146,U,circle,1,0,,,,,,,,,,,,,,,,repeat,letter,lettRpt,k,0.63,Hi,,,,,,1,,,,,,,,high,9,0,9,0,1,,,,,,,,,
295282,2022-10-06_17h14.36.050,vts_reward_expectancy,2022.2.4,MacIntel,60.0024001,Chrome,1440,900,,,,,10,708,,,,,,,,,,,,,,,,,125,F,hexagon,1,0,,,,,,,,,,,,,,,,switch,number,numSwt,d,0.56,Lo,,,,,,1,,,,,,,,high,10,0,10,0,1,,,,,,,,,
295282,2022-10-06_17h14.36.050,vts_reward_expectancy,2022.2.4,MacIntel,60.0024001,Chrome,1440,900,,,,,0,708,,,,,,,,,,,,,,,,,181,S,circle,0,0,,,,,,,,,,,,,,,,repeat,number,NA,d,0.5675,Lo,,,,,,1,,,,,,,,high,11,0,11,0,1,,,,,,,,,
295282,2022-10-06_17h14.36.050,vts_reward_expectancy,2022.2.4,MacIntel,60.0024001,Chrome,1440,900,,,,,0,708,,,,,,,,,,,,,,,,,174,D,circle,1,1,,,,,,,,,,,,,,,,repeat,number,numRpt,f,0.5727,Hi,,,,,,1,,,,,,,,high,12,0,12,0,1,,,,,,,,,
295282,2022-10-06_17h14.36.050,vts_reward_expectancy,2022.2.4,MacIntel,60.0024001,Chrome,1440,900,,,,,10,718,,,,,,,,,,,,,,,,,139,B,hexagon,1,0,,,,,,,,,,,,,,,,switch,letter,lettSwt,j,0.5972,Lo,,,,,,1,,,,,,,,high,13,0,13,0,1,,,,,,,,,
295282,2022-10-06_17h14.36.050,vts_reward_expectancy,2022.2.4,MacIntel,60.0024001,Chrome,1440,900,,,,,1,719,,,,,,,,,,,,,,,,,132,H,hexagon,1,0,,,,,,,,,,,,,,,,switch,number,numSwt,d,0.5681,Lo,,,,,,1,,,,,,,,high,14,0,14,0,1,,,,,,,,,
295282,2022-10-06_17h14.36.050,vts_reward_expectancy,2022.2.4,MacIntel,60.0024001,Chrome,1440,900,,,,,0,719,,,,,,,,,,,,,,,,,167,W,circle,1,0,,,,,,,,,,,,,,,,repeat,number,numRpt,f,0.917400001,Hi,,,,,,1,,,,,,,,high,15,0,15,0,1,,,,,,,,,
295282,2022-10-06_17h14.36.050,vts_reward_expectancy,2022.2.4,MacIntel,60.0024001,Chrome,1440,900,,,,,0,719,,,,,,,,,,,,,,,,,174,F,circle,1,0,,,,,,,,,,,,,,,,switch,letter,lettSwt,j,0.5803,Hi,,,,,,1,,,,,,,,high,16,0,16,0,1,,,,,,,,,
295282,2022-10-06_17h14.36.050,vts_reward_expectancy,2022.2.4,MacIntel,60.0024001,Chrome,1440,900,,,,,1,720,,,,,,,,,,,,,,,,,167,H,hexagon,1,0,,,,,,,,,,,,,,,,switch,number,numSwt,f,0.7635,Lo,,,,,,1,,,,,,,,high,17,0,17,0,1,,,,,,,,,
295282,2022-10-06_17h14.36.050,vts_reward_expectancy,2022.2.4,MacIntel,60.0024001,Chrome,1440,900,,,,,10,730,,,,,,,,,,,,,,,,,125,B,circle,1,0,,,,,,,,,,,,,,,,repeat,number,numRpt,d,0.4436,Hi,,,,,,1,,,,,,,,high,18,0,18,0,1,,,,,,,,,
295282,2022-10-06_17h14.36.050,vts_reward_expectancy,2022.2.4,MacIntel,60.0024001,Chrome,1440,900,,,,,1,731,,,,,,,,,,,,,,,,,160,W,hexagon,1,0,,,,,,,,,,,,,,,,switch,letter,lettSwt,k,0.5462,Lo,,,,,,1,,,,,,,,high,19,0,19,0,1,,,,,,,,,
295282,2022-10-06_17h14.36.050,vts_reward_expectancy,2022.2.4,MacIntel,60.0024001,Chrome,1440,900,,,,,1,732,,,,,,,,,,,,,,,,,146,D,hexagon,1,0,,,,,,,,,,,,,,,,switch,number,numSwt,d,0.8482,Lo,,,,,,1,,,,,,,,high,20,0,20,0,1,,,,,,,,,
295282,2022-10-06_17h14.36.050,vts_reward_expectancy,2022.2.4,MacIntel,60.0024001,Chrome,1440,900,,,,,0,732,,,,,,,,,,,,,,,,,181,U,circle,1,0,,,,,,,,,,,,,,,,switch,letter,lettSwt,k,0.6982,Hi,,,,,,1,,,,,,,,high,21,0,21,0,1,,,,,,,,,
295282,2022-10-06_17h14.36.050,vts_reward_expectancy,2022.2.4,MacIntel,60.0024001,Chrome,1440,900,,,,,1,733,,,,,,,,,,,,,,,,,132,Y,hexagon,1,0,,,,,,,,,,,,,,,,repeat,letter,lettRpt,k,0.463900001,Lo,,,,,,1,,,,,,,,high,22,0,22,0,1,,,,,,,,,
295282,2022-10-06_17h14.36.050,vts_reward_expectancy,2022.2.4,MacIntel,60.0024001,Chrome,1440,900,,,,,0,733,,,,,,,,,,,,,,,,,139,S,circle,1,0,,,,,,,,,,,,,,,,switch,number,numSwt,d,0.5632,Hi,,,,,,1,,,,,,,,high,23,0,23,0,1,,,,,,,,,
295282,2022-10-06_17h14.36.050,vts_reward_expectancy,2022.2.4,MacIntel,60.0024001,Chrome,1440,900,,,,,0,733,,,,,,,,,,,,,,,,,146,Y,circle,1,0,,,,,,,,,,,,,,,,repeat,number,numRpt,d,0.8703,Hi,,,,,,1,,,,,,,,high,24,0,24,0,1,,,,,,,,,
295282,2022-10-06_17h14.36.050,vts_reward_expectancy,2022.2.4,MacIntel,60.0024001,Chrome,1440,900,,,,,1,734,,,,,,,,,,,,,,,,,174,F,hexagon,1,0,,,,,,,,,,,,,,,,repeat,number,numRpt,f,0.4205,Lo,,,,,,1,,,,,,,,high,25,0,25,0,1,,,,,,,,,
295282,2022-10-06_17h14.36.050,vts_reward_expectancy,2022.2.4,MacIntel,60.0024001,Chrome,1440,900,,,,,0,734,,,,,,,,,,,,,,,,,167,D,hexagon,0,0,,,,,,,,,,,,,,,,switch,letter,NA,k,0.497799999,Lo,,,,,,1,,,,,,,,high,26,0,26,0,1,,,,,,,,,
295282,2022-10-06_17h14.36.050,vts_reward_expectancy,2022.2.4,MacIntel,60.0024001,Chrome,1440,900,,,,,10,744,,,,,,,,,,,,,,,,,125,U,circle,1,1,,,,,,,,,,,,,,,,repeat,letter,lettRpt,k,0.6453,Hi,,,,,,1,,,,,,,,high,27,0,27,0,1,,,,,,,,,
295282,2022-10-06_17h14.36.050,vts_reward_expectancy,2022.2.4,MacIntel,60.0024001,Chrome,1440,900,,,,,10,754,,,,,,,,,,,,,,,,,160,W,circle,1,0,,,,,,,,,,,,,,,,repeat,letter,lettRpt,k,0.5038,Hi,,,,,,1,,,,,,,,high,28,0,28,0,1,,,,,,,,,
295282,2022-10-06_17h14.36.050,vts_reward_expectancy,2022.2.4,MacIntel,60.0024001,Chrome,1440,900,,,,,1,755,,,,,,,,,,,,,,,,,132,H,hexagon,1,0,,,,,,,,,,,,,,,,switch,number,numSwt,d,0.8014,Lo,,,,,,1,,,,,,,,high,29,0,29,0,1,,,,,,,,,
295282,2022-10-06_17h14.36.050,vts_reward_expectancy,2022.2.4,MacIntel,60.0024001,Chrome,1440,900,,,,,1,756,,,,,,,,,,,,,,,,,181,B,hexagon,1,0,,,,,,,,,,,,,,,,repeat,number,numRpt,f,0.9985,Lo,,,,,,1,,,,,,,,high,30,0,30,0,1,,,,,,,,,
295282,2022-10-06_17h14.36.050,vts_reward_expectancy,2022.2.4,MacIntel,60.0024001,Chrome,1440,900,,,,,10,766,,,,,,,,,,,,,,,,,139,S,circle,1,0,,,,,,,,,,,,,,,,switch,letter,lettSwt,k,0.5142,Hi,,,,,,1,,,,,,,,high,31,0,31,0,1,,,,,,,,,
295282,2022-10-06_17h14.36.050,vts_reward_expectancy,2022.2.4,MacIntel,60.0024001,Chrome,1440,900,,,,,1,767,,,,,,,,,,,,,,,,,125,B,hexagon,1,0,,,,,,,,,,,,,,,,switch,number,numSwt,d,0.695599999,Lo,,,,,,2,,,,,,space,0.8641,high,0,0,0,0,1,,,,,,,,,
295282,2022-10-06_17h14.36.050,vts_reward_expectancy,2022.2.4,MacIntel,60.0024001,Chrome,1440,900,,,,,0,767,,,,,,,,,,,,,,,,,132,D,circle,1,0,,,,,,,,,,,,,,,,switch,letter,lettSwt,j,0.7479,Hi,,,,,,2,,,,,,,,high,1,0,1,0,1,,,,,,,,,
295282,2022-10-06_17h14.36.050,vts_reward_expectancy,2022.2.4,MacIntel,60.0024001,Chrome,1440,900,,,,,1,768,,,,,,,,,,,,,,,,,146,U,hexagon,1,0,,,,,,,,,,,,,,,,repeat,letter,lettRpt,k,0.870700001,Lo,,,,,,2,,,,,,,,high,2,0,2,0,1,,,,,,,,,
295282,2022-10-06_17h14.36.050,vts_reward_expectancy,2022.2.4,MacIntel,60.0024001,Chrome,1440,900,,,,,0,768,,,,,,,,,,,,,,,,,174,F,circle,1,0,,,,,,,,,,,,,,,,switch,number,numSwt,f,0.6867,Hi,,,,,,2,,,,,,,,high,3,0,3,0,1,,,,,,,,,
295282,2022-10-06_17h14.36.050,vts_reward_expectancy,2022.2.4,MacIntel,60.0024001,Chrome,1440,900,,,,,0,768,,,,,,,,,,,,,,,,,167,Y,circle,1,0,,,,,,,,,,,,,,,,switch,letter,lettSwt,k,0.563099999,Hi,,,,,,2,,,,,,,,high,4,0,4,0,1,,,,,,,,,
295282,2022-10-06_17h14.36.050,vts_reward_expectancy,2022.2.4,MacIntel,60.0024001,Chrome,1440,900,,,,,1,769,,,,,,,,,,,,,,,,,160,H,hexagon,1,0,,,,,,,,,,,,,,,,switch,number,numSwt,f,0.7383,Lo,,,,,,2,,,,,,,,high,5,0,5,0,1,,,,,,,,,
295282,2022-10-06_17h14.36.050,vts_reward_expectancy,2022.2.4,MacIntel,60.0024001,Chrome,1440,900,,,,,10,779,,,,,,,,,,,,,,,,,181,W,circle,1,0,,,,,,,,,,,,,,,,repeat,number,numRpt,f,0.4965,Hi,,,,,,2,,,,,,,,high,6,0,6,0,1,,,,,,,,,
295282,2022-10-06_17h14.36.050,vts_reward_expectancy,2022.2.4,MacIntel,60.0024001,Chrome,1440,900,,,,,1,780,,,,,,,,,,,,,,,,,139,S,hexagon,1,0,,,,,,,,,,,,,,,,repeat,number,numRpt,d,0.5802,Lo,,,,,,2,,,,,,,,high,7,0,7,0,1,,,,,,,,,
295282,2022-10-06_17h14.36.050,vts_reward_expectancy,2022.2.4,MacIntel,60.0024001,Chrome,1440,900,,,,,10,790,,,,,,,,,,,,,,,,,125,B,hexagon,1,0,,,,,,,,,,,,,,,,switch,letter,lettSwt,j,0.7303,Lo,,,,,,2,,,,,,,,high,8,0,8,0,1,,,,,,,,,
295282,2022-10-06_17h14.36.050,vts_reward_expectancy,2022.2.4,MacIntel,60.0024001,Chrome,1440,900,,,,,0,790,,,,,,,,,,,,,,,,,132,D,circle,1,0,,,,,,,,,,,,,,,,switch,number,numSwt,d,0.682,Hi,,,,,,2,,,,,,,,high,9,0,9,0,1,,,,,,,,,
295282,2022-10-06_17h14.36.050,vts_reward_expectancy,2022.2.4,MacIntel,60.0024001,Chrome,1440,900,,,,,0,790,,,,,,,,,,,,,,,,,146,U,circle,1,0,,,,,,,,,,,,,,,,switch,letter,lettSwt,k,0.6508,Hi,,,,,,2,,,,,,,,high,10,0,10,0,1,,,,,,,,,
295282,2022-10-06_17h14.36.050,vts_reward_expectancy,2022.2.4,MacIntel,60.0024001,Chrome,1440,900,,,,,10,800,,,,,,,,,,,,,,,,,174,F,hexagon,1,0,,,,,,,,,,,,,,,,switch,number,numSwt,f,1.3926,Lo,,,,,,2,,,,,,,,high,11,0,11,0,1,,,,,,,,,
295282,2022-10-06_17h14.36.050,vts_reward_expectancy,2022.2.4,MacIntel,60.0024001,Chrome,1440,900,,,,,0,800,,,,,,,,,,,,,,,,,167,Y,hexagon,0,0,,,,,,,,,,,,,,,,switch,letter,NA,j,0.7155,Lo,,,,,,2,,,,,,,,high,12,0,12,0,1,,,,,,,,,
295282,2022-10-06_17h14.36.050,vts_reward_expectancy,2022.2.4,MacIntel,60.0024001,Chrome,1440,900,,,,,0,800,,,,,,,,,,,,,,,,,160,H,circle,1,1,,,,,,,,,,,,,,,,switch,number,numSwt,f,0.6815,Hi,,,,,,2,,,,,,,,high,13,0,13,0,1,,,,,,,,,
295282,2022-10-06_17h14.36.050,vts_reward_expectancy,2022.2.4,MacIntel,60.0024001,Chrome,1440,900,,,,,0,800,,,,,,,,,,,,,,,,,181,W,circle,1,0,,,,,,,,,,,,,,,,switch,letter,lettSwt,k,0.6657,Hi,,,,,,2,,,,,,,,high,14,0,14,0,1,,,,,,,,,
295282,2022-10-06_17h14.36.050,vts_reward_expectancy,2022.2.4,MacIntel,60.0024001,Chrome,1440,900,,,,,1,801,,,,,,,,,,,,,,,,,139,S,hexagon,1,0,,,,,,,,,,,,,,,,switch,number,numSwt,d,0.634900001,Lo,,,,,,2,,,,,,,,high,15,0,15,0,1,,,,,,,,,
295282,2022-10-06_17h14.36.050,vts_reward_expectancy,2022.2.4,MacIntel,60.0024001,Chrome,1440,900,,,,,1,802,,,,,,,,,,,,,,,,,132,H,hexagon,1,0,,,,,,,,,,,,,,,,switch,letter,lettSwt,j,0.731799999,Lo,,,,,,2,,,,,,,,high,16,0,16,0,1,,,,,,,,,
295282,2022-10-06_17h14.36.050,vts_reward_expectancy,2022.2.4,MacIntel,60.0024001,Chrome,1440,900,,,,,0,802,,,,,,,,,,,,,,,,,139,F,circle,1,0,,,,,,,,,,,,,,,,switch,number,numSwt,d,0.7483,Hi,,,,,,2,,,,,,,,high,17,0,17,0,1,,,,,,,,,
295282,2022-10-06_17h14.36.050,vts_reward_expectancy,2022.2.4,MacIntel,60.0024001,Chrome,1440,900,,,,,0,802,,,,,,,,,,,,,,,,,181,Y,circle,1,0,,,,,,,,,,,,,,,,switch,letter,lettSwt,k,0.598099999,Hi,,,,,,2,,,,,,,,high,18,0,18,0,1,,,,,,,,,
295282,2022-10-06_17h14.36.050,vts_reward_expectancy,2022.2.4,MacIntel,60.0024001,Chrome,1440,900,,,,,1,803,,,,,,,,,,,,,,,,,167,S,hexagon,1,0,,,,,,,,,,,,,,,,switch,number,numSwt,f,0.7987,Lo,,,,,,2,,,,,,,,high,19,0,19,0,1,,,,,,,,,
295282,2022-10-06_17h14.36.050,vts_reward_expectancy,2022.2.4,MacIntel,60.0024001,Chrome,1440,900,,,,,1,804,,,,,,,,,,,,,,,,,160,U,hexagon,1,0,,,,,,,,,,,,,,,,repeat,number,numRpt,f,1.0647,Lo,,,,,,2,,,,,,,,high,20,0,20,0,1,,,,,,,,,
295282,2022-10-06_17h14.36.050,vts_reward_expectancy,2022.2.4,MacIntel,60.0024001,Chrome,1440,900,,,,,0,804,,,,,,,,,,,,,,,,,146,B,circle,1,0,,,,,,,,,,,,,,,,switch,letter,lettSwt,j,0.5995,Hi,,,,,,2,,,,,,,,high,21,0,21,0,1,,,,,,,,,
295282,2022-10-06_17h14.36.050,vts_reward_expectancy,2022.2.4,MacIntel,60.0024001,Chrome,1440,900,,,,,1,805,,,,,,,,,,,,,,,,,125,W,hexagon,1,0,,,,,,,,,,,,,,,,switch,number,numSwt,d,0.465900001,Lo,,,,,,2,,,,,,,,high,22,0,22,0,1,,,,,,,,,
295282,2022-10-06_17h14.36.050,vts_reward_expectancy,2022.2.4,MacIntel,60.0024001,Chrome,1440,900,,,,,10,815,,,,,,,,,,,,,,,,,174,D,circle,1,0,,,,,,,,,,,,,,,,repeat,number,numRpt,f,0.4487,Hi,,,,,,2,,,,,,,,high,23,0,23,0,1,,,,,,,,,
295282,2022-10-06_17h14.36.050,vts_reward_expectancy,2022.2.4,MacIntel,60.0024001,Chrome,1440,900,,,,,0,815,,,,,,,,,,,,,,,,,181,S,circle,1,0,,,,,,,,,,,,,,,,switch,letter,lettSwt,k,0.8667,Hi,,,,,,2,,,,,,,,high,24,0,24,0,1,,,,,,,,,
295282,2022-10-06_17h14.36.050,vts_reward_expectancy,2022.2.4,MacIntel,60.0024001,Chrome,1440,900,,,,,1,816,,,,,,,,,,,,,,,,,139,U,hexagon,1,0,,,,,,,,,,,,,,,,repeat,letter,lettRpt,k,0.5345,Lo,,,,,,2,,,,,,,,high,25,0,25,0,1,,,,,,,,,
295282,2022-10-06_17h14.36.050,vts_reward_expectancy,2022.2.4,MacIntel,60.0024001,Chrome,1440,900,,,,,1,817,,,,,,,,,,,,,,,,,167,H,hexagon,1,0,,,,,,,,,,,,,,,,repeat,letter,lettRpt,j,0.483,Lo,,,,,,2,,,,,,,,high,26,0,26,0,1,,,,,,,,,
295282,2022-10-06_17h14.36.050,vts_reward_expectancy,2022.2.4,MacIntel,60.0024001,Chrome,1440,900,,,,,1,818,,,,,,,,,,,,,,,,,125,W,circle,1,0,,,,,,,,,,,,,,,,switch,number,numSwt,d,0.4321,Hi,,,,,,2,,,,,,,,high,27,0,27,0,1,,,,,,,,,
295282,2022-10-06_17h14.36.050,vts_reward_expectancy,2022.2.4,MacIntel,60.0024001,Chrome,1440,900,,,,,0,818,,,,,,,,,,,,,,,,,146,F,circle,1,0,,,,,,,,,,,,,,,,repeat,number,numRpt,d,0.6986,Hi,,,,,,2,,,,,,,,high,28,0,28,0,1,,,,,,,,,
295282,2022-10-06_17h14.36.050,vts_reward_expectancy,2022.2.4,MacIntel,60.0024001,Chrome,1440,900,,,,,1,819,,,,,,,,,,,,,,,,,160,B,hexagon,1,0,,,,,,,,,,,,,,,,repeat,number,numRpt,f,0.6823,Lo,,,,,,2,,,,,,,,high,29,0,29,0,1,,,,,,,,,
295282,2022-10-06_17h14.36.050,vts_reward_expectancy,2022.2.4,MacIntel,60.0024001,Chrome,1440,900,,,,,1,820,,,,,,,,,,,,,,,,,132,D,hexagon,1,0,,,,,,,,,,,,,,,,repeat,number,numRpt,d,0.5819,Lo,,,,,,2,,,,,,,,high,30,0,30,0,1,,,,,,,,,
295282,2022-10-06_17h14.36.050,vts_reward_expectancy,2022.2.4,MacIntel,60.0024001,Chrome,1440,900,,,,,0,820,,,,,,,,,,,,,,,,,174,Y,circle,1,0,,,,,,,,,,,,,,,,switch,letter,lettSwt,k,0.697900001,Hi,,,,,,2,,,,,,,,high,31,0,31,0,1,,,,,,,,,
295282,2022-10-06_17h14.36.050,vts_reward_expectancy,2022.2.4,MacIntel,60.0024001,Chrome,1440,900,,,,,0,820,,,,,,,,,,,,,,,,,174,S,triangle,0,0,,,,,,,,,,,,,,,,switch,number,NA,d,0.4975,Hi,,,,,,3,,,,,,space,0.8839,low,0,0,0,0,1,,,,,,,,,
295282,2022-10-06_17h14.36.050,vts_reward_expectancy,2022.2.4,MacIntel,60.0024001,Chrome,1440,900,,,,,10,830,,,,,,,,,,,,,,,,,139,H,star,1,1,,,,,,,,,,,,,,,,switch,letter,lettSwt,j,0.4033,Lo,,,,,,3,,,,,,,,low,1,0,1,0,1,,,,,,,,,
295282,2022-10-06_17h14.36.050,vts_reward_expectancy,2022.2.4,MacIntel,60.0024001,Chrome,1440,900,,,,,1,831,,,,,,,,,,,,,,,,,146,B,triangle,1,0,,,,,,,,,,,,,,,,switch,number,numSwt,d,0.622,Hi,,,,,,3,,,,,,,,low,2,0,2,0,1,,,,,,,,,
295282,2022-10-06_17h14.36.050,vts_reward_expectancy,2022.2.4,MacIntel,60.0024001,Chrome,1440,900,,,,,10,841,,,,,,,,,,,,,,,,,132,Y,star,1,0,,,,,,,,,,,,,,,,switch,letter,lettSwt,k,0.627599999,Lo,,,,,,3,,,,,,,,low,3,0,3,0,1,,,,,,,,,
295282,2022-10-06_17h14.36.050,vts_reward_expectancy,2022.2.4,MacIntel,60.0024001,Chrome,1440,900,,,,,1,842,,,,,,,,,,,,,,,,,125,D,triangle,1,0,,,,,,,,,,,,,,,,switch,number,numSwt,d,0.464,Hi,,,,,,3,,,,,,,,low,4,0,4,0,1,,,,,,,,,
295282,2022-10-06_17h14.36.050,vts_reward_expectancy,2022.2.4,MacIntel,60.0024001,Chrome,1440,900,,,,,1,843,,,,,,,,,,,,,,,,,181,W,star,1,0,,,,,,,,,,,,,,,,switch,letter,lettSwt,k,0.632099999,Lo,,,,,,3,,,,,,,,low,5,0,5,0,1,,,,,,,,,
295282,2022-10-06_17h14.36.050,vts_reward_expectancy,2022.2.4,MacIntel,60.0024001,Chrome,1440,900,,,,,0,843,,,,,,,,,,,,,,,,,167,F,triangle,1,0,,,,,,,,,,,,,,,,repeat,letter,lettRpt,j,0.768900001,Hi,,,,,,3,,,,,,,,low,6,0,6,0,1,,,,,,,,,
295282,2022-10-06_17h14.36.050,vts_reward_expectancy,2022.2.4,MacIntel,60.0024001,Chrome,1440,900,,,,,1,844,,,,,,,,,,,,,,,,,160,U,star,1,0,,,,,,,,,,,,,,,,repeat,letter,lettRpt,k,0.6325,Lo,,,,,,3,,,,,,,,low,7,0,7,0,1,,,,,,,,,
295282,2022-10-06_17h14.36.050,vts_reward_expectancy,2022.2.4,MacIntel,60.0024001,Chrome,1440,900,,,,,10,854,,,,,,,,,,,,,,,,,174,S,triangle,1,0,,,,,,,,,,,,,,,,switch,number,numSwt,f,0.631799999,Hi,,,,,,3,,,,,,,,low,8,0,8,0,1,,,,,,,,,
295282,2022-10-06_17h14.36.050,vts_reward_expectancy,2022.2.4,MacIntel,60.0024001,Chrome,1440,900,,,,,1,855,,,,,,,,,,,,,,,,,139,H,star,1,0,,,,,,,,,,,,,,,,repeat,number,numRpt,d,1.7982,Lo,,,,,,3,,,,,,,,low,9,0,9,0,1,,,,,,,,,
295282,2022-10-06_17h14.36.050,vts_reward_expectancy,2022.2.4,MacIntel,60.0024001,Chrome,1440,900,,,,,0,855,,,,,,,,,,,,,,,,,146,B,triangle,1,0,,,,,,,,,,,,,,,,switch,letter,lettSwt,j,1.9154,Hi,,,,,,3,,,,,,,,low,10,0,10,0,1,,,,,,,,,
295282,2022-10-06_17h14.36.050,vts_reward_expectancy,2022.2.4,MacIntel,60.0024001,Chrome,1440,900,,,,,1,856,,,,,,,,,,,,,,,,,132,Y,star,1,0,,,,,,,,,,,,,,,,repeat,letter,lettRpt,k,0.581900001,Lo,,,,,,3,,,,,,,,low,11,0,11,0,1,,,,,,,,,
295282,2022-10-06_17h14.36.050,vts_reward_expectancy,2022.2.4,MacIntel,60.0024001,Chrome,1440,900,,,,,10,866,,,,,,,,,,,,,,,,,125,D,triangle,1,0,,,,,,,,,,,,,,,,switch,number,numSwt,d,0.6657,Hi,,,,,,3,,,,,,,,low,12,0,12,0,1,,,,,,,,,
295282,2022-10-06_17h14.36.050,vts_reward_expectancy,2022.2.4,MacIntel,60.0024001,Chrome,1440,900,,,,,10,876,,,,,,,,,,,,,,,,,181,W,star,1,0,,,,,,,,,,,,,,,,switch,letter,lettSwt,k,0.782099999,Lo,,,,,,3,,,,,,,,low,13,0,13,0,1,,,,,,,,,
295282,2022-10-06_17h14.36.050,vts_reward_expectancy,2022.2.4,MacIntel,60.0024001,Chrome,1440,900,,,,,1,877,,,,,,,,,,,,,,,,,167,F,star,1,0,,,,,,,,,,,,,,,,switch,number,numSwt,f,0.648,Lo,,,,,,3,,,,,,,,low,14,0,14,0,1,,,,,,,,,
295282,2022-10-06_17h14.36.050,vts_reward_expectancy,2022.2.4,MacIntel,60.0024001,Chrome,1440,900,,,,,0,877,,,,,,,,,,,,,,,,,160,U,triangle,1,0,,,,,,,,,,,,,,,,switch,letter,lettSwt,k,0.999,Hi,,,,,,3,,,,,,,,low,15,0,15,0,1,,,,,,,,,
295282,2022-10-06_17h14.36.050,vts_reward_expectancy,2022.2.4,MacIntel,60.0024001,Chrome,1440,900,,,,,0,877,,,,,,,,,,,,,,,,,160,S,triangle,1,0,,,,,,,,,,,,,,,,repeat,letter,lettRpt,k,0.7496,Hi,,,,,,3,,,,,,,,low,16,0,16,0,1,,,,,,,,,
295282,2022-10-06_17h14.36.050,vts_reward_expectancy,2022.2.4,MacIntel,60.0024001,Chrome,1440,900,,,,,0,877,,,,,,,,,,,,,,,,,139,H,star,0,0,,,,,,,,,,,,,,,,repeat,letter,NA,k,1.282200001,Hi,,,,,,3,,,,,,,,low,17,0,17,0,1,,,,,,,,,
295282,2022-10-06_17h14.36.050,vts_reward_expectancy,2022.2.4,MacIntel,60.0024001,Chrome,1440,900,,,,,0,877,,,,,,,,,,,,,,,,,174,U,triangle,1,1,,,,,,,,,,,,,,,,switch,number,numSwt,f,0.7314,Hi,,,,,,3,,,,,,,,low,18,0,18,0,1,,,,,,,,,
295282,2022-10-06_17h14.36.050,vts_reward_expectancy,2022.2.4,MacIntel,60.0024001,Chrome,1440,900,,,,,1,878,,,,,,,,,,,,,,,,,167,W,star,1,0,,,,,,,,,,,,,,,,switch,letter,lettSwt,k,0.815,Lo,,,,,,3,,,,,,,,low,19,0,19,0,1,,,,,,,,,
295282,2022-10-06_17h14.36.050,vts_reward_expectancy,2022.2.4,MacIntel,60.0024001,Chrome,1440,900,,,,,1,879,,,,,,,,,,,,,,,,,132,B,star,1,0,,,,,,,,,,,,,,,,repeat,letter,lettRpt,j,0.749400001,Lo,,,,,,3,,,,,,,,low,20,0,20,0,1,,,,,,,,,
295282,2022-10-06_17h14.36.050,vts_reward_expectancy,2022.2.4,MacIntel,60.0024001,Chrome,1440,900,,,,,0,879,,,,,,,,,,,,,,,,,146,F,triangle,1,0,,,,,,,,,,,,,,,,switch,number,numSwt,d,0.9828,Hi,,,,,,3,,,,,,,,low,21,0,21,0,1,,,,,,,,,
295282,2022-10-06_17h14.36.050,vts_reward_expectancy,2022.2.4,MacIntel,60.0024001,Chrome,1440,900,,,,,1,880,,,,,,,,,,,,,,,,,181,Y,star,1,0,,,,,,,,,,,,,,,,repeat,number,numRpt,f,0.6642,Lo,,,,,,3,,,,,,,,low,22,0,22,0,1,,,,,,,,,
295282,2022-10-06_17h14.36.050,vts_reward_expectancy,2022.2.4,MacIntel,60.0024001,Chrome,1440,900,,,,,0,880,,,,,,,,,,,,,,,,,125,D,triangle,1,0,,,,,,,,,,,,,,,,switch,letter,lettSwt,j,1.0988,Hi,,,,,,3,,,,,,,,low,23,0,23,0,1,,,,,,,,,
295282,2022-10-06_17h14.36.050,vts_reward_expectancy,2022.2.4,MacIntel,60.0024001,Chrome,1440,900,,,,,10,890,,,,,,,,,,,,,,,,,174,D,star,1,0,,,,,,,,,,,,,,,,switch,number,numSwt,f,0.8842,Lo,,,,,,3,,,,,,,,low,24,0,24,0,1,,,,,,,,,
295282,2022-10-06_17h14.36.050,vts_reward_expectancy,2022.2.4,MacIntel,60.0024001,Chrome,1440,900,,,,,0,890,,,,,,,,,,,,,,,,,160,H,triangle,1,0,,,,,,,,,,,,,,,,repeat,number,numRpt,f,0.5996,Hi,,,,,,3,,,,,,,,low,25,0,25,0,1,,,,,,,,,
295282,2022-10-06_17h14.36.050,vts_reward_expectancy,2022.2.4,MacIntel,60.0024001,Chrome,1440,900,,,,,10,900,,,,,,,,,,,,,,,,,167,S,triangle,1,0,,,,,,,,,,,,,,,,switch,letter,lettSwt,k,0.649,Hi,,,,,,3,,,,,,,,low,26,0,26,0,1,,,,,,,,,
295282,2022-10-06_17h14.36.050,vts_reward_expectancy,2022.2.4,MacIntel,60.0024001,Chrome,1440,900,,,,,1,901,,,,,,,,,,,,,,,,,132,W,star,1,0,,,,,,,,,,,,,,,,repeat,letter,lettRpt,k,0.9483,Lo,,,,,,3,,,,,,,,low,27,0,27,0,1,,,,,,,,,
295282,2022-10-06_17h14.36.050,vts_reward_expectancy,2022.2.4,MacIntel,60.0024001,Chrome,1440,900,,,,,1,902,,,,,,,,,,,,,,,,,125,F,triangle,1,0,,,,,,,,,,,,,,,,switch,number,numSwt,d,0.5486,Hi,,,,,,3,,,,,,,,low,28,0,28,0,1,,,,,,,,,
295282,2022-10-06_17h14.36.050,vts_reward_expectancy,2022.2.4,MacIntel,60.0024001,Chrome,1440,900,,,,,1,903,,,,,,,,,,,,,,,,,139,U,star,1,0,,,,,,,,,,,,,,,,switch,letter,lettSwt,k,0.6488,Lo,,,,,,3,,,,,,,,low,29,0,29,0,1,,,,,,,,,
295282,2022-10-06_17h14.36.050,vts_reward_expectancy,2022.2.4,MacIntel,60.0024001,Chrome,1440,900,,,,,10,913,,,,,,,,,,,,,,,,,181,B,triangle,1,0,,,,,,,,,,,,,,,,repeat,letter,lettRpt,j,0.515299999,Hi,,,,,,3,,,,,,,,low,30,0,30,0,1,,,,,,,,,
295282,2022-10-06_17h14.36.050,vts_reward_expectancy,2022.2.4,MacIntel,60.0024001,Chrome,1440,900,,,,,10,923,,,,,,,,,,,,,,,,,146,Y,star,1,0,,,,,,,,,,,,,,,,switch,number,numSwt,d,0.965900001,Lo,,,,,,3,,,,,,,,low,31,0,31,0,1,,,,,,,,,
295282,2022-10-06_17h14.36.050,vts_reward_expectancy,2022.2.4,MacIntel,60.0024001,Chrome,1440,900,,,,,0,923,,,,,,,,,,,,,,,,,167,W,triangle,1,0,,,,,,,,,,,,,,,,repeat,number,numRpt,f,0.6985,Hi,,,,,,4,,,,,,space,3.358700001,low,0,0,0,0,1,,,,,,,,,
295282,2022-10-06_17h14.36.050,vts_reward_expectancy,2022.2.4,MacIntel,60.0024001,Chrome,1440,900,,,,,1,924,,,,,,,,,,,,,,,,,174,S,star,1,0,,,,,,,,,,,,,,,,switch,letter,lettSwt,k,0.6154,Lo,,,,,,4,,,,,,,,low,1,0,1,0,1,,,,,,,,,
295282,2022-10-06_17h14.36.050,vts_reward_expectancy,2022.2.4,MacIntel,60.0024001,Chrome,1440,900,,,,,0,924,,,,,,,,,,,,,,,,,146,D,triangle,1,0,,,,,,,,,,,,,,,,switch,number,numSwt,d,0.931599999,Hi,,,,,,4,,,,,,,,low,2,0,2,0,1,,,,,,,,,
295282,2022-10-06_17h14.36.050,vts_reward_expectancy,2022.2.4,MacIntel,60.0024001,Chrome,1440,900,,,,,10,934,,,,,,,,,,,,,,,,,160,F,star,1,0,,,,,,,,,,,,,,,,switch,letter,lettSwt,j,0.5986,Lo,,,,,,4,,,,,,,,low,3,0,3,0,1,,,,,,,,,
295282,2022-10-06_17h14.36.050,vts_reward_expectancy,2022.2.4,MacIntel,60.0024001,Chrome,1440,900,,,,,10,944,,,,,,,,,,,,,,,,,181,H,star,1,0,,,,,,,,,,,,,,,,switch,number,numSwt,f,0.7155,Lo,,,,,,4,,,,,,,,low,4,0,4,0,1,,,,,,,,,
295282,2022-10-06_17h14.36.050,vts_reward_expectancy,2022.2.4,MacIntel,60.0024001,Chrome,1440,900,,,,,1,945,,,,,,,,,,,,,,,,,125,Y,triangle,1,0,,,,,,,,,,,,,,,,repeat,number,numRpt,d,0.6325,Hi,,,,,,4,,,,,,,,low,5,0,5,0,1,,,,,,,,,
295282,2022-10-06_17h14.36.050,vts_reward_expectancy,2022.2.4,MacIntel,60.0024001,Chrome,1440,900,,,,,10,955,,,,,,,,,,,,,,,,,139,B,star,1,0,,,,,,,,,,,,,,,,switch,letter,lettSwt,j,0.6986,Lo,,,,,,4,,,,,,,,low,6,0,6,0,1,,,,,,,,,
295282,2022-10-06_17h14.36.050,vts_reward_expectancy,2022.2.4,MacIntel,60.0024001,Chrome,1440,900,,,,,0,955,,,,,,,,,,,,,,,,,132,U,triangle,1,0,,,,,,,,,,,,,,,,switch,number,numSwt,d,1.183,Hi,,,,,,4,,,,,,,,low,7,0,7,0,1,,,,,,,,,
295282,2022-10-06_17h14.36.050,vts_reward_expectancy,2022.2.4,MacIntel,60.0024001,Chrome,1440,900,,,,,1,956,,,,,,,,,,,,,,,,,167,W,star,1,0,,,,,,,,,,,,,,,,switch,letter,lettSwt,k,0.7155,Lo,,,,,,4,,,,,,,,low,8,0,8,0,1,,,,,,,,,
295282,2022-10-06_17h14.36.050,vts_reward_expectancy,2022.2.4,MacIntel,60.0024001,Chrome,1440,900,,,,,0,956,,,,,,,,,,,,,,,,,174,S,triangle,1,0,,,,,,,,,,,,,,,,switch,number,numSwt,f,0.7815,Hi,,,,,,4,,,,,,,,low,9,0,9,0,1,,,,,,,,,
295282,2022-10-06_17h14.36.050,vts_reward_expectancy,2022.2.4,MacIntel,60.0024001,Chrome,1440,900,,,,,1,957,,,,,,,,,,,,,,,,,146,D,star,1,0,,,,,,,,,,,,,,,,repeat,number,numRpt,d,0.6486,Lo,,,,,,4,,,,,,,,low,10,0,10,0,1,,,,,,,,,
295282,2022-10-06_17h14.36.050,vts_reward_expectancy,2022.2.4,MacIntel,60.0024001,Chrome,1440,900,,,,,0,957,,,,,,,,,,,,,,,,,160,F,triangle,1,0,,,,,,,,,,,,,,,,switch,letter,lettSwt,j,0.7153,Hi,,,,,,4,,,,,,,,low,11,0,11,0,1,,,,,,,,,
295282,2022-10-06_17h14.36.050,vts_reward_expectancy,2022.2.4,MacIntel,60.0024001,Chrome,1440,900,,,,,0,957,,,,,,,,,,,,,,,,,181,H,triangle,1,0,,,,,,,,,,,,,,,,switch,number,numSwt,f,0.9653,Hi,,,,,,4,,,,,,,,low,12,0,12,0,1,,,,,,,,,
295282,2022-10-06_17h14.36.050,vts_reward_expectancy,2022.2.4,MacIntel,60.0024001,Chrome,1440,900,,,,,1,958,,,,,,,,,,,,,,,,,125,Y,star,1,0,,,,,,,,,,,,,,,,repeat,number,numRpt,d,0.665,Lo,,,,,,4,,,,,,,,low,13,0,13,0,1,,,,,,,,,
295282,2022-10-06_17h14.36.050,vts_reward_expectancy,2022.2.4,MacIntel,60.0024001,Chrome,1440,900,,,,,0,958,,,,,,,,,,,,,,,,,139,B,triangle,1,0,,,,,,,,,,,,,,,,switch,letter,lettSwt,j,0.8848,Hi,,,,,,4,,,,,,,,low,14,0,14,0,1,,,,,,,,,
295282,2022-10-06_17h14.36.050,vts_reward_expectancy,2022.2.4,MacIntel,60.0024001,Chrome,1440,900,,,,,1,959,,,,,,,,,,,,,,,,,132,U,star,1,0,,,,,,,,,,,,,,,,switch,number,numSwt,d,0.5649,Lo,,,,,,4,,,,,,,,low,15,0,15,0,1,,,,,,,,,
295282,2022-10-06_17h14.36.050,vts_reward_expectancy,2022.2.4,MacIntel,60.0024001,Chrome,1440,900,,,,,10,969,,,,,,,,,,,,,,,,,181,H,star,1,0,,,,,,,,,,,,,,,,switch,letter,lettSwt,j,0.5357,Lo,,,,,,4,,,,,,,,low,16,0,16,0,1,,,,,,,,,
295282,2022-10-06_17h14.36.050,vts_reward_expectancy,2022.2.4,MacIntel,60.0024001,Chrome,1440,900,,,,,10,979,,,,,,,,,,,,,,,,,167,U,triangle,1,0,,,,,,,,,,,,,,,,repeat,letter,lettRpt,k,0.565,Hi,,,,,,4,,,,,,,,low,17,0,17,0,1,,,,,,,,,
295282,2022-10-06_17h14.36.050,vts_reward_expectancy,2022.2.4,MacIntel,60.0024001,Chrome,1440,900,,,,,10,989,,,,,,,,,,,,,,,,,146,Y,triangle,1,0,,,,,,,,,,,,,,,,switch,number,numSwt,d,0.565299999,Hi,,,,,,4,,,,,,,,low,18,0,18,0,1,,,,,,,,,
295282,2022-10-06_17h14.36.050,vts_reward_expectancy,2022.2.4,MacIntel,60.0024001,Chrome,1440,900,,,,,10,999,,,,,,,,,,,,,,,,,139,B,star,1,0,,,,,,,,,,,,,,,,repeat,number,numRpt,d,0.7323,Lo,,,,,,4,,,,,,,,low,19,0,19,0,1,,,,,,,,,
295282,2022-10-06_17h14.36.050,vts_reward_expectancy,2022.2.4,MacIntel,60.0024001,Chrome,1440,900,,,,,0,999,,,,,,,,,,,,,,,,,160,F,triangle,0,0,,,,,,,,,,,,,,,,repeat,number,NA,d,0.7561,Lo,,,,,,4,,,,,,,,low,20,0,20,0,1,,,,,,,,,
295282,2022-10-06_17h14.36.050,vts_reward_expectancy,2022.2.4,MacIntel,60.0024001,Chrome,1440,900,,,,,1,1000,,,,,,,,,,,,,,,,,125,D,star,1,1,,,,,,,,,,,,,,,,switch,letter,lettSwt,j,1.4496,Lo,,,,,,4,,,,,,,,low,21,0,21,0,1,,,,,,,,,
295282,2022-10-06_17h14.36.050,vts_reward_expectancy,2022.2.4,MacIntel,60.0024001,Chrome,1440,900,,,,,1,1001,,,,,,,,,,,,,,,,,174,S,star,1,0,,,,,,,,,,,,,,,,switch,number,numSwt,f,0.782,Lo,,,,,,4,,,,,,,,low,22,0,22,0,1,,,,,,,,,
295282,2022-10-06_17h14.36.050,vts_reward_expectancy,2022.2.4,MacIntel,60.0024001,Chrome,1440,900,,,,,1,1002,,,,,,,,,,,,,,,,,132,W,triangle,1,0,,,,,,,,,,,,,,,,switch,letter,lettSwt,k,0.548599999,Hi,,,,,,4,,,,,,,,low,23,0,23,0,1,,,,,,,,,
295282,2022-10-06_17h14.36.050,vts_reward_expectancy,2022.2.4,MacIntel,60.0024001,Chrome,1440,900,,,,,0,1002,,,,,,,,,,,,,,,,,160,S,triangle,1,0,,,,,,,,,,,,,,,,repeat,letter,lettRpt,k,0.682,Hi,,,,,,4,,,,,,,,low,24,0,24,0,1,,,,,,,,,
295282,2022-10-06_17h14.36.050,vts_reward_expectancy,2022.2.4,MacIntel,60.0024001,Chrome,1440,900,,,,,1,1003,,,,,,,,,,,,,,,,,125,W,star,1,0,,,,,,,,,,,,,,,,switch,number,numSwt,d,0.8986,Lo,,,,,,4,,,,,,,,low,25,0,25,0,1,,,,,,,,,
295282,2022-10-06_17h14.36.050,vts_reward_expectancy,2022.2.4,MacIntel,60.0024001,Chrome,1440,900,,,,,1,1004,,,,,,,,,,,,,,,,,174,H,star,1,0,,,,,,,,,,,,,,,,repeat,number,numRpt,f,0.781599999,Lo,,,,,,4,,,,,,,,low,26,0,26,0,1,,,,,,,,,
295282,2022-10-06_17h14.36.050,vts_reward_expectancy,2022.2.4,MacIntel,60.0024001,Chrome,1440,900,,,,,0,1004,,,,,,,,,,,,,,,,,146,F,triangle,0,0,,,,,,,,,,,,,,,,switch,letter,NA,k,0.684700001,Lo,,,,,,4,,,,,,,,low,27,0,27,0,1,,,,,,,,,
295282,2022-10-06_17h14.36.050,vts_reward_expectancy,2022.2.4,MacIntel,60.0024001,Chrome,1440,900,,,,,0,1004,,,,,,,,,,,,,,,,,181,D,triangle,1,1,,,,,,,,,,,,,,,,switch,number,numSwt,f,0.8828,Hi,,,,,,4,,,,,,,,low,28,0,28,0,1,,,,,,,,,
295282,2022-10-06_17h14.36.050,vts_reward_expectancy,2022.2.4,MacIntel,60.0024001,Chrome,1440,900,,,,,10,1014,,,,,,,,,,,,,,,,,139,Y,star,1,0,,,,,,,,,,,,,,,,repeat,number,numRpt,d,0.8823,Lo,,,,,,4,,,,,,,,low,29,0,29,0,1,,,,,,,,,
295282,2022-10-06_17h14.36.050,vts_reward_expectancy,2022.2.4,MacIntel,60.0024001,Chrome,1440,900,,,,,0,1014,,,,,,,,,,,,,,,,,167,U,triangle,1,0,,,,,,,,,,,,,,,,repeat,number,numRpt,f,1.182,Hi,,,,,,4,,,,,,,,low,30,0,30,0,1,,,,,,,,,
295282,2022-10-06_17h14.36.050,vts_reward_expectancy,2022.2.4,MacIntel,60.0024001,Chrome,1440,900,,,,,10,1024,,,,,,,,,,,,,,,,,132,B,star,1,0,,,,,,,,,,,,,,,,switch,letter,lettSwt,j,0.566200001,Lo,,,,,,4,,,,,,,,low,31,0,31,0,1,,,,,,,,,
295282,2022-10-06_17h14.36.050,vts_reward_expectancy,2022.2.4,MacIntel,60.0024001,Chrome,1440,900,,,,,10,1034,,,,,,,,,,,,,,,,,174,F,star,1,0,,,,,,,,,,,,,,,,repeat,letter,lettRpt,j,1.396099999,Lo,,,,,,5,,,,,,space,2.062,low,0,0,0,0,1,,,,,,,,,
295282,2022-10-06_17h14.36.050,vts_reward_expectancy,2022.2.4,MacIntel,60.0024001,Chrome,1440,900,,,,,10,1044,,,,,,,,,,,,,,,,,132,S,triangle,1,0,,,,,,,,,,,,,,,,switch,number,numSwt,d,0.740599999,Hi,,,,,,5,,,,,,,,low,1,0,1,0,1,,,,,,,,,
295282,2022-10-06_17h14.36.050,vts_reward_expectancy,2022.2.4,MacIntel,60.0024001,Chrome,1440,900,,,,,1,1045,,,,,,,,,,,,,,,,,146,W,star,1,0,,,,,,,,,,,,,,,,repeat,number,numRpt,d,0.8752,Lo,,,,,,5,,,,,,,,low,2,0,2,0,1,,,,,,,,,
295282,2022-10-06_17h14.36.050,vts_reward_expectancy,2022.2.4,MacIntel,60.0024001,Chrome,1440,900,,,,,0,1045,,,,,,,,,,,,,,,,,160,B,triangle,1,0,,,,,,,,,,,,,,,,switch,letter,lettSwt,j,1.997,Hi,,,,,,5,,,,,,,,low,3,0,3,0,1,,,,,,,,,
295282,2022-10-06_17h14.36.050,vts_reward_expectancy,2022.2.4,MacIntel,60.0024001,Chrome,1440,900,,,,,1,1046,,,,,,,,,,,,,,,,,125,H,triangle,1,0,,,,,,,,,,,,,,,,switch,number,numSwt,d,0.733099999,Hi,,,,,,5,,,,,,,,low,4,0,4,0,1,,,,,,,,,
295282,2022-10-06_17h14.36.050,vts_reward_expectancy,2022.2.4,MacIntel,60.0024001,Chrome,1440,900,,,,,1,1047,,,,,,,,,,,,,,,,,139,U,star,1,0,,,,,,,,,,,,,,,,repeat,number,numRpt,d,0.9632,Lo,,,,,,5,,,,,,,,low,5,0,5,0,1,,,,,,,,,
295282,2022-10-06_17h14.36.050,vts_reward_expectancy,2022.2.4,MacIntel,60.0024001,Chrome,1440,900,,,,,0,1047,,,,,,,,,,,,,,,,,167,D,triangle,1,0,,,,,,,,,,,,,,,,switch,letter,lettSwt,j,0.6363,Hi,,,,,,5,,,,,,,,low,6,0,6,0,1,,,,,,,,,
295282,2022-10-06_17h14.36.050,vts_reward_expectancy,2022.2.4,MacIntel,60.0024001,Chrome,1440,900,,,,,1,1048,,,,,,,,,,,,,,,,,181,Y,star,1,0,,,,,,,,,,,,,,,,switch,number,numSwt,f,0.6144,Lo,,,,,,5,,,,,,,,low,7,0,7,0,1,,,,,,,,,
295282,2022-10-06_17h14.36.050,vts_reward_expectancy,2022.2.4,MacIntel,60.0024001,Chrome,1440,900,,,,,10,1058,,,,,,,,,,,,,,,,,174,F,star,1,0,,,,,,,,,,,,,,,,switch,letter,lettSwt,j,0.7126,Lo,,,,,,5,,,,,,,,low,8,0,8,0,1,,,,,,,,,
295282,2022-10-06_17h14.36.050,vts_reward_expectancy,2022.2.4,MacIntel,60.0024001,Chrome,1440,900,,,,,0,1058,,,,,,,,,,,,,,,,,132,S,triangle,1,0,,,,,,,,,,,,,,,,switch,number,numSwt,d,1.147,Hi,,,,,,5,,,,,,,,low,9,0,9,0,1,,,,,,,,,
295282,2022-10-06_17h14.36.050,vts_reward_expectancy,2022.2.4,MacIntel,60.0024001,Chrome,1440,900,,,,,10,1068,,,,,,,,,,,,,,,,,146,W,star,1,0,,,,,,,,,,,,,,,,switch,letter,lettSwt,k,1.056099999,Lo,,,,,,5,,,,,,,,low,10,0,10,0,1,,,,,,,,,
295282,2022-10-06_17h14.36.050,vts_reward_expectancy,2022.2.4,MacIntel,60.0024001,Chrome,1440,900,,,,,1,1069,,,,,,,,,,,,,,,,,160,B,triangle,1,0,,,,,,,,,,,,,,,,switch,number,numSwt,f,0.7696,Hi,,,,,,5,,,,,,,,low,11,0,11,0,1,,,,,,,,,
295282,2022-10-06_17h14.36.050,vts_reward_expectancy,2022.2.4,MacIntel,60.0024001,Chrome,1440,900,,,,,1,1070,,,,,,,,,,,,,,,,,125,H,star,1,0,,,,,,,,,,,,,,,,repeat,number,numRpt,d,0.632599999,Lo,,,,,,5,,,,,,,,low,12,0,12,0,1,,,,,,,,,
295282,2022-10-06_17h14.36.050,vts_reward_expectancy,2022.2.4,MacIntel,60.0024001,Chrome,1440,900,,,,,0,1070,,,,,,,,,,,,,,,,,139,U,triangle,1,0,,,,,,,,,,,,,,,,switch,letter,lettSwt,k,0.663,Hi,,,,,,5,,,,,,,,low,13,0,13,0,1,,,,,,,,,
295282,2022-10-06_17h14.36.050,vts_reward_expectancy,2022.2.4,MacIntel,60.0024001,Chrome,1440,900,,,,,0,1070,,,,,,,,,,,,,,,,,167,D,triangle,1,0,,,,,,,,,,,,,,,,switch,number,numSwt,f,0.7977,Hi,,,,,,5,,,,,,,,low,14,0,14,0,1,,,,,,,,,
295282,2022-10-06_17h14.36.050,vts_reward_expectancy,2022.2.4,MacIntel,60.0024001,Chrome,1440,900,,,,,1,1071,,,,,,,,,,,,,,,,,181,Y,star,1,0,,,,,,,,,,,,,,,,switch,letter,lettSwt,k,0.7306,Lo,,,,,,5,,,,,,,,low,15,0,15,0,1,,,,,,,,,
295282,2022-10-06_17h14.36.050,vts_reward_expectancy,2022.2.4,MacIntel,60.0024001,Chrome,1440,900,,,,,10,1081,,,,,,,,,,,,,,,,,139,F,star,1,0,,,,,,,,,,,,,,,,repeat,letter,lettRpt,j,0.683099999,Lo,,,,,,5,,,,,,,,low,16,0,16,0,1,,,,,,,,,
295282,2022-10-06_17h14.36.050,vts_reward_expectancy,2022.2.4,MacIntel,60.0024001,Chrome,1440,900,,,,,0,1081,,,,,,,,,,,,,,,,,132,S,triangle,1,0,,,,,,,,,,,,,,,,repeat,letter,lettRpt,k,0.7891,Hi,,,,,,5,,,,,,,,low,17,0,17,0,1,,,,,,,,,
295282,2022-10-06_17h14.36.050,vts_reward_expectancy,2022.2.4,MacIntel,60.0024001,Chrome,1440,900,,,,,1,1082,,,,,,,,,,,,,,,,,174,B,triangle,1,0,,,,,,,,,,,,,,,,switch,number,numSwt,f,0.67,Hi,,,,,,5,,,,,,,,low,18,0,18,0,1,,,,,,,,,
295282,2022-10-06_17h14.36.050,vts_reward_expectancy,2022.2.4,MacIntel,60.0024001,Chrome,1440,900,,,,,1,1083,,,,,,,,,,,,,,,,,125,D,star,1,0,,,,,,,,,,,,,,,,repeat,number,numRpt,d,0.7889,Lo,,,,,,5,,,,,,,,low,19,0,19,0,1,,,,,,,,,
295282,2022-10-06_17h14.36.050,vts_reward_expectancy,2022.2.4,MacIntel,60.0024001,Chrome,1440,900,,,,,10,1093,,,,,,,,,,,,,,,,,181,H,star,1,0,,,,,,,,,,,,,,,,switch,letter,lettSwt,j,0.6208,Lo,,,,,,5,,,,,,,,low,20,0,20,0,1,,,,,,,,,
295282,2022-10-06_17h14.36.050,vts_reward_expectancy,2022.2.4,MacIntel,60.0024001,Chrome,1440,900,,,,,0,1093,,,,,,,,,,,,,,,,,167,Y,triangle,1,0,,,,,,,,,,,,,,,,repeat,letter,lettRpt,k,0.693,Hi,,,,,,5,,,,,,,,low,21,0,21,0,1,,,,,,,,,
295282,2022-10-06_17h14.36.050,vts_reward_expectancy,2022.2.4,MacIntel,60.0024001,Chrome,1440,900,,,,,10,1103,,,,,,,,,,,,,,,,,146,U,star,1,0,,,,,,,,,,,,,,,,repeat,letter,lettRpt,k,0.6888,Lo,,,,,,5,,,,,,,,low,22,0,22,0,1,,,,,,,,,
295282,2022-10-06_17h14.36.050,vts_reward_expectancy,2022.2.4,MacIntel,60.0024001,Chrome,1440,900,,,,,0,1103,,,,,,,,,,,,,,,,,160,W,triangle,1,0,,,,,,,,,,,,,,,,switch,number,numSwt,f,0.9222,Hi,,,,,,5,,,,,,,,low,23,0,23,0,1,,,,,,,,,
295282,2022-10-06_17h14.36.050,vts_reward_expectancy,2022.2.4,MacIntel,60.0024001,Chrome,1440,900,,,,,0,1103,,,,,,,,,,,,,,,,,181,B,triangle,1,0,,,,,,,,,,,,,,,,switch,letter,lettSwt,j,0.6686,Hi,,,,,,5,,,,,,,,low,24,0,24,0,1,,,,,,,,,
295282,2022-10-06_17h14.36.050,vts_reward_expectancy,2022.2.4,MacIntel,60.0024001,Chrome,1440,900,,,,,1,1104,,,,,,,,,,,,,,,,,167,S,star,1,0,,,,,,,,,,,,,,,,switch,number,numSwt,f,0.720700001,Lo,,,,,,5,,,,,,,,low,25,0,25,0,1,,,,,,,,,
295282,2022-10-06_17h14.36.050,vts_reward_expectancy,2022.2.4,MacIntel,60.0024001,Chrome,1440,900,,,,,1,1105,,,,,,,,,,,,,,,,,132,W,star,1,0,,,,,,,,,,,,,,,,switch,letter,lettSwt,k,1.191,Lo,,,,,,5,,,,,,,,low,26,0,26,0,1,,,,,,,,,
295282,2022-10-06_17h14.36.050,vts_reward_expectancy,2022.2.4,MacIntel,60.0024001,Chrome,1440,900,,,,,1,1106,,,,,,,,,,,,,,,,,174,D,triangle,1,0,,,,,,,,,,,,,,,,switch,number,numSwt,f,0.7297,Hi,,,,,,5,,,,,,,,low,27,0,27,0,1,,,,,,,,,
295282,2022-10-06_17h14.36.050,vts_reward_expectancy,2022.2.4,MacIntel,60.0024001,Chrome,1440,900,,,,,1,1107,,,,,,,,,,,,,,,,,160,H,star,1,0,,,,,,,,,,,,,,,,switch,letter,lettSwt,j,0.6726,Lo,,,,,,5,,,,,,,,low,28,0,28,0,1,,,,,,,,,
295282,2022-10-06_17h14.36.050,vts_reward_expectancy,2022.2.4,MacIntel,60.0024001,Chrome,1440,900,,,,,10,1117,,,,,,,,,,,,,,,,,125,U,triangle,1,0,,,,,,,,,,,,,,,,repeat,letter,lettRpt,k,0.462900001,Hi,,,,,,5,,,,,,,,low,29,0,29,0,1,,,,,,,,,
295282,2022-10-06_17h14.36.050,vts_reward_expectancy,2022.2.4,MacIntel,60.0024001,Chrome,1440,900,,,,,10,1127,,,,,,,,,,,,,,,,,146,F,star,1,0,,,,,,,,,,,,,,,,repeat,letter,lettRpt,j,0.7178,Lo,,,,,,5,,,,,,,,low,30,0,30,0,1,,,,,,,,,
295282,2022-10-06_17h14.36.050,vts_reward_expectancy,2022.2.4,MacIntel,60.0024001,Chrome,1440,900,,,,,0,1127,,,,,,,,,,,,,,,,,139,Y,triangle,1,0,,,,,,,,,,,,,,,,switch,number,numSwt,d,1.0813,Hi,,,,,,5,,,,,,,,low,31,0,31,0,1,,,,,,,,,
295282,2022-10-06_17h14.36.050,vts_reward_expectancy,2022.2.4,MacIntel,60.0024001,Chrome,1440,900,,,,,,,,,,,,,,,,,,,,,,,,,,,,,,,,,,,,,,,,,,,,,,,,,,,,,,6,,,,,,,,,,,,,,choose a number or a letter and answer,2,the idea of the shapes,3,2,,2,1440,900
