participant,date,expName,psychopyVersion,OS,frameRate,browser,xResolution,yResolution,key_resp.keys,key_resp.rt,training_resp.keys,training_resp.rt,points_trial,points_cumul,trainBlock,training.thisRepN,training.thisTrialN,training.thisN,training.thisIndex,training.ran,LTriangleOpac,LCircleOpac,LHexagonOpac,LStarOpac,RTriangleOpac,RCircleOpac,RHexagonOpac,RStarOpac,LShape_ID,RShape_ID,curr_topStim,curr_bottStim,curr_shape,acc,E1,target_resp_prac1.keys,target_resp_prac1.rt,pracBlock,task1_prac_trials.thisRepN,task1_prac_trials.thisTrialN,task1_prac_trials.thisN,task1_prac_trials.thisIndex,task1_prac_trials.ran,target_resp_prac2.keys,target_resp_prac2.rt,task2_praac_trials.thisRepN,task2_praac_trials.thisTrialN,task2_praac_trials.thisN,task2_praac_trials.thisIndex,task2_praac_trials.ran,alt,task,condition,target_resp.keys,target_resp.rt,rewCond,vts_practice_trials.thisRepN,vts_practice_trials.thisTrialN,vts_practice_trials.thisN,vts_practice_trials.thisIndex,vts_practice_trials.ran,blockNum,trials_norew.thisRepN,trials_norew.thisTrialN,trials_norew.thisN,trials_norew.thisIndex,trials_norew.ran,key_resp_2.keys,key_resp_2.rt,rewExpect,trials_rew.thisRepN,trials_rew.thisTrialN,trials_rew.thisN,trials_rew.thisIndex,trials_rew.ran,Q1,Q2,Q2_text,Q3,Q4,Q5_text,Q5,xRes,yRes
293386,2022-10-05_13h04.44.475,vts_reward_expectancy,2022.2.4,MacIntel,59.99880002,Chrome,920,695,,,,,,,,,,,,,,,,,,,,,,,,,,,,,,,,,,,,,,,,,,,,,,,,,,,,,,,,,,,,,,,,,,,,,,,,,,,,
293386,2022-10-05_13h04.44.475,vts_reward_expectancy,2022.2.4,MacIntel,59.99880002,Chrome,920,695,space,1.9161,,,,,,,,,,,,,,,,,,,,,,,,,,,,,,,,,,,,,,,,,,,,,,,,,,,,,,,,,,,,,,,,,,,,,,,,,,
293386,2022-10-05_13h04.44.475,vts_reward_expectancy,2022.2.4,MacIntel,59.99880002,Chrome,920,695,,,,,,,,,,,,,,,,,,,,,,,,,,,,,,,,,,,,,,,,,,,,,,,,,,,,,,,,,,,,,,,,,,,,,,,,,,,,
293386,2022-10-05_13h04.44.475,vts_reward_expectancy,2022.2.4,MacIntel,59.99880002,Chrome,920,695,,,a,1.6632,10,10,0,0,0,0,1,1,1,0,0,0,0,0,1,0,triangle,hexagon,,,,,,,,,,,,,,,,,,,,,,,,,,,,,,,,,,,,,,,,,,,,,,,,,,,,,,
293386,2022-10-05_13h04.44.475,vts_reward_expectancy,2022.2.4,MacIntel,59.99880002,Chrome,920,695,,,l,2.1048,1,11,0,0,1,1,11,1,0,0,0,1,0,0,1,0,star,hexagon,,,,,,,,,,,,,,,,,,,,,,,,,,,,,,,,,,,,,,,,,,,,,,,,,,,,,,
293386,2022-10-05_13h04.44.475,vts_reward_expectancy,2022.2.4,MacIntel,59.99880002,Chrome,920,695,,,l,2.721,1,12,0,0,2,2,4,1,0,1,0,0,0,0,1,0,circle,hexagon,,,,,,,,,,,,,,,,,,,,,,,,,,,,,,,,,,,,,,,,,,,,,,,,,,,,,,
293386,2022-10-05_13h04.44.475,vts_reward_expectancy,2022.2.4,MacIntel,59.99880002,Chrome,920,695,,,l,1.3155,10,22,0,0,3,3,7,1,0,0,1,0,0,1,0,0,hexagon,circle,,,,,,,,,,,,,,,,,,,,,,,,,,,,,,,,,,,,,,,,,,,,,,,,,,,,,,
293386,2022-10-05_13h04.44.475,vts_reward_expectancy,2022.2.4,MacIntel,59.99880002,Chrome,920,695,,,l,1.4665,10,32,0,0,4,4,9,1,0,0,0,1,1,0,0,0,star,triangle,,,,,,,,,,,,,,,,,,,,,,,,,,,,,,,,,,,,,,,,,,,,,,,,,,,,,,
293386,2022-10-05_13h04.44.475,vts_reward_expectancy,2022.2.4,MacIntel,59.99880002,Chrome,920,695,,,l,1.7669,10,42,0,0,5,5,0,1,1,0,0,0,0,1,0,0,triangle,circle,,,,,,,,,,,,,,,,,,,,,,,,,,,,,,,,,,,,,,,,,,,,,,,,,,,,,,
293386,2022-10-05_13h04.44.475,vts_reward_expectancy,2022.2.4,MacIntel,59.99880002,Chrome,920,695,,,l,0.8996,10,52,0,0,6,6,6,1,0,0,1,0,1,0,0,0,hexagon,triangle,,,,,,,,,,,,,,,,,,,,,,,,,,,,,,,,,,,,,,,,,,,,,,,,,,,,,,
293386,2022-10-05_13h04.44.475,vts_reward_expectancy,2022.2.4,MacIntel,59.99880002,Chrome,920,695,,,a,1.2672,1,53,0,0,7,7,5,1,0,1,0,0,0,0,0,1,circle,star,,,,,,,,,,,,,,,,,,,,,,,,,,,,,,,,,,,,,,,,,,,,,,,,,,,,,,
293386,2022-10-05_13h04.44.475,vts_reward_expectancy,2022.2.4,MacIntel,59.99880002,Chrome,920,695,,,l,1.2537,10,63,0,0,8,8,8,1,0,0,1,0,0,0,0,1,hexagon,star,,,,,,,,,,,,,,,,,,,,,,,,,,,,,,,,,,,,,,,,,,,,,,,,,,,,,,
293386,2022-10-05_13h04.44.475,vts_reward_expectancy,2022.2.4,MacIntel,59.99880002,Chrome,920,695,,,a,1.2332,10,73,0,0,9,9,2,1,1,0,0,0,0,0,0,1,triangle,star,,,,,,,,,,,,,,,,,,,,,,,,,,,,,,,,,,,,,,,,,,,,,,,,,,,,,,
293386,2022-10-05_13h04.44.475,vts_reward_expectancy,2022.2.4,MacIntel,59.99880002,Chrome,920,695,,,l,1.3,10,83,0,0,10,10,3,1,0,1,0,0,1,0,0,0,circle,triangle,,,,,,,,,,,,,,,,,,,,,,,,,,,,,,,,,,,,,,,,,,,,,,,,,,,,,,
293386,2022-10-05_13h04.44.475,vts_reward_expectancy,2022.2.4,MacIntel,59.99880002,Chrome,920,695,,,a,1.5694,10,93,0,0,11,11,10,1,0,0,0,1,0,1,0,0,star ,circle,,,,,,,,,,,,,,,,,,,,,,,,,,,,,,,,,,,,,,,,,,,,,,,,,,,,,,
293386,2022-10-05_13h04.44.475,vts_reward_expectancy,2022.2.4,MacIntel,59.99880002,Chrome,920,695,,,a,1.4832,10,103,0,1,0,12,0,1,1,0,0,0,0,1,0,0,triangle,circle,,,,,,,,,,,,,,,,,,,,,,,,,,,,,,,,,,,,,,,,,,,,,,,,,,,,,,
293386,2022-10-05_13h04.44.475,vts_reward_expectancy,2022.2.4,MacIntel,59.99880002,Chrome,920,695,,,l,1.9498,1,104,0,1,1,13,9,1,0,0,0,1,1,0,0,0,star,triangle,,,,,,,,,,,,,,,,,,,,,,,,,,,,,,,,,,,,,,,,,,,,,,,,,,,,,,
293386,2022-10-05_13h04.44.475,vts_reward_expectancy,2022.2.4,MacIntel,59.99880002,Chrome,920,695,,,a,1.7073,1,105,0,1,2,14,10,1,0,0,0,1,0,1,0,0,star ,circle,,,,,,,,,,,,,,,,,,,,,,,,,,,,,,,,,,,,,,,,,,,,,,,,,,,,,,
293386,2022-10-05_13h04.44.475,vts_reward_expectancy,2022.2.4,MacIntel,59.99880002,Chrome,920,695,,,a,1.184,1,106,0,1,3,15,4,1,0,1,0,0,0,0,1,0,circle,hexagon,,,,,,,,,,,,,,,,,,,,,,,,,,,,,,,,,,,,,,,,,,,,,,,,,,,,,,
293386,2022-10-05_13h04.44.475,vts_reward_expectancy,2022.2.4,MacIntel,59.99880002,Chrome,920,695,,,a,1.2666,1,107,0,1,4,16,2,1,1,0,0,0,0,0,0,1,triangle,star,,,,,,,,,,,,,,,,,,,,,,,,,,,,,,,,,,,,,,,,,,,,,,,,,,,,,,
293386,2022-10-05_13h04.44.475,vts_reward_expectancy,2022.2.4,MacIntel,59.99880002,Chrome,920,695,,,a,1.2156,10,117,0,1,5,17,3,1,0,1,0,0,1,0,0,0,circle,triangle,,,,,,,,,,,,,,,,,,,,,,,,,,,,,,,,,,,,,,,,,,,,,,,,,,,,,,
293386,2022-10-05_13h04.44.475,vts_reward_expectancy,2022.2.4,MacIntel,59.99880002,Chrome,920,695,,,a,0.9327,1,118,0,1,6,18,5,1,0,1,0,0,0,0,0,1,circle,star,,,,,,,,,,,,,,,,,,,,,,,,,,,,,,,,,,,,,,,,,,,,,,,,,,,,,,
293386,2022-10-05_13h04.44.475,vts_reward_expectancy,2022.2.4,MacIntel,59.99880002,Chrome,920,695,,,l,2.083,10,128,0,1,7,19,6,1,0,0,1,0,1,0,0,0,hexagon,triangle,,,,,,,,,,,,,,,,,,,,,,,,,,,,,,,,,,,,,,,,,,,,,,,,,,,,,,
293386,2022-10-05_13h04.44.475,vts_reward_expectancy,2022.2.4,MacIntel,59.99880002,Chrome,920,695,,,l,1.2829,10,138,0,1,8,20,8,1,0,0,1,0,0,0,0,1,hexagon,star,,,,,,,,,,,,,,,,,,,,,,,,,,,,,,,,,,,,,,,,,,,,,,,,,,,,,,
293386,2022-10-05_13h04.44.475,vts_reward_expectancy,2022.2.4,MacIntel,59.99880002,Chrome,920,695,,,a,1.6163,10,148,0,1,9,21,7,1,0,0,1,0,0,1,0,0,hexagon,circle,,,,,,,,,,,,,,,,,,,,,,,,,,,,,,,,,,,,,,,,,,,,,,,,,,,,,,
293386,2022-10-05_13h04.44.475,vts_reward_expectancy,2022.2.4,MacIntel,59.99880002,Chrome,920,695,,,a,1.2504,1,149,0,1,10,22,11,1,0,0,0,1,0,0,1,0,star,hexagon,,,,,,,,,,,,,,,,,,,,,,,,,,,,,,,,,,,,,,,,,,,,,,,,,,,,,,
293386,2022-10-05_13h04.44.475,vts_reward_expectancy,2022.2.4,MacIntel,59.99880002,Chrome,920,695,,,a,1.2339,10,159,0,1,11,23,1,1,1,0,0,0,0,0,1,0,triangle,hexagon,,,,,,,,,,,,,,,,,,,,,,,,,,,,,,,,,,,,,,,,,,,,,,,,,,,,,,
293386,2022-10-05_13h04.44.475,vts_reward_expectancy,2022.2.4,MacIntel,59.99880002,Chrome,920,695,,,a,1.1338,10,169,0,2,0,24,0,1,1,0,0,0,0,1,0,0,triangle,circle,,,,,,,,,,,,,,,,,,,,,,,,,,,,,,,,,,,,,,,,,,,,,,,,,,,,,,
293386,2022-10-05_13h04.44.475,vts_reward_expectancy,2022.2.4,MacIntel,59.99880002,Chrome,920,695,,,l,1.1174,10,179,0,2,1,25,6,1,0,0,1,0,1,0,0,0,hexagon,triangle,,,,,,,,,,,,,,,,,,,,,,,,,,,,,,,,,,,,,,,,,,,,,,,,,,,,,,
293386,2022-10-05_13h04.44.475,vts_reward_expectancy,2022.2.4,MacIntel,59.99880002,Chrome,920,695,,,a,1.0075,10,189,0,2,2,26,1,1,1,0,0,0,0,0,1,0,triangle,hexagon,,,,,,,,,,,,,,,,,,,,,,,,,,,,,,,,,,,,,,,,,,,,,,,,,,,,,,
293386,2022-10-05_13h04.44.475,vts_reward_expectancy,2022.2.4,MacIntel,59.99880002,Chrome,920,695,,,a,1.7486,10,199,0,2,3,27,8,1,0,0,1,0,0,0,0,1,hexagon,star,,,,,,,,,,,,,,,,,,,,,,,,,,,,,,,,,,,,,,,,,,,,,,,,,,,,,,
293386,2022-10-05_13h04.44.475,vts_reward_expectancy,2022.2.4,MacIntel,59.99880002,Chrome,920,695,,,l,1.5323,10,209,0,2,4,28,3,1,0,1,0,0,1,0,0,0,circle,triangle,,,,,,,,,,,,,,,,,,,,,,,,,,,,,,,,,,,,,,,,,,,,,,,,,,,,,,
293386,2022-10-05_13h04.44.475,vts_reward_expectancy,2022.2.4,MacIntel,59.99880002,Chrome,920,695,,,a,1.2824,1,210,0,2,5,29,7,1,0,0,1,0,0,1,0,0,hexagon,circle,,,,,,,,,,,,,,,,,,,,,,,,,,,,,,,,,,,,,,,,,,,,,,,,,,,,,,
293386,2022-10-05_13h04.44.475,vts_reward_expectancy,2022.2.4,MacIntel,59.99880002,Chrome,920,695,,,a,1.1838,1,211,0,2,6,30,9,1,0,0,0,1,1,0,0,0,star,triangle,,,,,,,,,,,,,,,,,,,,,,,,,,,,,,,,,,,,,,,,,,,,,,,,,,,,,,
293386,2022-10-05_13h04.44.475,vts_reward_expectancy,2022.2.4,MacIntel,59.99880002,Chrome,920,695,,,a,1.9829,1,212,0,2,7,31,10,1,0,0,0,1,0,1,0,0,star ,circle,,,,,,,,,,,,,,,,,,,,,,,,,,,,,,,,,,,,,,,,,,,,,,,,,,,,,,
293386,2022-10-05_13h04.44.475,vts_reward_expectancy,2022.2.4,MacIntel,59.99880002,Chrome,920,695,,,a,1.3656,10,222,0,2,8,32,5,1,0,1,0,0,0,0,0,1,circle,star,,,,,,,,,,,,,,,,,,,,,,,,,,,,,,,,,,,,,,,,,,,,,,,,,,,,,,
293386,2022-10-05_13h04.44.475,vts_reward_expectancy,2022.2.4,MacIntel,59.99880002,Chrome,920,695,,,l,1.0844,1,223,0,2,9,33,2,1,1,0,0,0,0,0,0,1,triangle,star,,,,,,,,,,,,,,,,,,,,,,,,,,,,,,,,,,,,,,,,,,,,,,,,,,,,,,
293386,2022-10-05_13h04.44.475,vts_reward_expectancy,2022.2.4,MacIntel,59.99880002,Chrome,920,695,,,a,0.9748,10,233,0,2,10,34,11,1,0,0,0,1,0,0,1,0,star,hexagon,,,,,,,,,,,,,,,,,,,,,,,,,,,,,,,,,,,,,,,,,,,,,,,,,,,,,,
293386,2022-10-05_13h04.44.475,vts_reward_expectancy,2022.2.4,MacIntel,59.99880002,Chrome,920,695,,,l,1.3035,10,243,0,2,11,35,4,1,0,1,0,0,0,0,1,0,circle,hexagon,,,,,,,,,,,,,,,,,,,,,,,,,,,,,,,,,,,,,,,,,,,,,,,,,,,,,,
293386,2022-10-05_13h04.44.475,vts_reward_expectancy,2022.2.4,MacIntel,59.99880002,Chrome,920,695,,,l,0.8829,10,253,1,0,0,0,6,1,0,0,1,0,1,0,0,0,hexagon,triangle,,,,,,,,,,,,,,,,,,,,,,,,,,,,,,,,,,,,,,,,,,,,,,,,,,,,,,
293386,2022-10-05_13h04.44.475,vts_reward_expectancy,2022.2.4,MacIntel,59.99880002,Chrome,920,695,,,a,0.9153,1,254,1,0,1,1,7,1,0,0,1,0,0,1,0,0,hexagon,circle,,,,,,,,,,,,,,,,,,,,,,,,,,,,,,,,,,,,,,,,,,,,,,,,,,,,,,
293386,2022-10-05_13h04.44.475,vts_reward_expectancy,2022.2.4,MacIntel,59.99880002,Chrome,920,695,,,l,1.0159,1,255,1,0,2,2,2,1,1,0,0,0,0,0,0,1,triangle,star,,,,,,,,,,,,,,,,,,,,,,,,,,,,,,,,,,,,,,,,,,,,,,,,,,,,,,
293386,2022-10-05_13h04.44.475,vts_reward_expectancy,2022.2.4,MacIntel,59.99880002,Chrome,920,695,,,a,0.8504,10,265,1,0,3,3,0,1,1,0,0,0,0,1,0,0,triangle,circle,,,,,,,,,,,,,,,,,,,,,,,,,,,,,,,,,,,,,,,,,,,,,,,,,,,,,,
293386,2022-10-05_13h04.44.475,vts_reward_expectancy,2022.2.4,MacIntel,59.99880002,Chrome,920,695,,,a,1.8999,10,275,1,0,4,4,11,1,0,0,0,1,0,0,1,0,star,hexagon,,,,,,,,,,,,,,,,,,,,,,,,,,,,,,,,,,,,,,,,,,,,,,,,,,,,,,
293386,2022-10-05_13h04.44.475,vts_reward_expectancy,2022.2.4,MacIntel,59.99880002,Chrome,920,695,,,a,0.6335,10,285,1,0,5,5,10,1,0,0,0,1,0,1,0,0,star ,circle,,,,,,,,,,,,,,,,,,,,,,,,,,,,,,,,,,,,,,,,,,,,,,,,,,,,,,
293386,2022-10-05_13h04.44.475,vts_reward_expectancy,2022.2.4,MacIntel,59.99880002,Chrome,920,695,,,l,0.6498,10,295,1,0,6,6,3,1,0,1,0,0,1,0,0,0,circle,triangle,,,,,,,,,,,,,,,,,,,,,,,,,,,,,,,,,,,,,,,,,,,,,,,,,,,,,,
293386,2022-10-05_13h04.44.475,vts_reward_expectancy,2022.2.4,MacIntel,59.99880002,Chrome,920,695,,,a,0.5861,10,305,1,0,7,7,1,1,1,0,0,0,0,0,1,0,triangle,hexagon,,,,,,,,,,,,,,,,,,,,,,,,,,,,,,,,,,,,,,,,,,,,,,,,,,,,,,
293386,2022-10-05_13h04.44.475,vts_reward_expectancy,2022.2.4,MacIntel,59.99880002,Chrome,920,695,,,a,0.4657,1,306,1,0,8,8,9,1,0,0,0,1,1,0,0,0,star,triangle,,,,,,,,,,,,,,,,,,,,,,,,,,,,,,,,,,,,,,,,,,,,,,,,,,,,,,
293386,2022-10-05_13h04.44.475,vts_reward_expectancy,2022.2.4,MacIntel,59.99880002,Chrome,920,695,,,a,0.8499,1,307,1,0,9,9,8,1,0,0,1,0,0,0,0,1,hexagon,star,,,,,,,,,,,,,,,,,,,,,,,,,,,,,,,,,,,,,,,,,,,,,,,,,,,,,,
293386,2022-10-05_13h04.44.475,vts_reward_expectancy,2022.2.4,MacIntel,59.99880002,Chrome,920,695,,,a,1.1165,1,308,1,0,10,10,4,1,0,1,0,0,0,0,1,0,circle,hexagon,,,,,,,,,,,,,,,,,,,,,,,,,,,,,,,,,,,,,,,,,,,,,,,,,,,,,,
293386,2022-10-05_13h04.44.475,vts_reward_expectancy,2022.2.4,MacIntel,59.99880002,Chrome,920,695,,,l,0.9847,10,318,1,0,11,11,5,1,0,1,0,0,0,0,0,1,circle,star,,,,,,,,,,,,,,,,,,,,,,,,,,,,,,,,,,,,,,,,,,,,,,,,,,,,,,
293386,2022-10-05_13h04.44.475,vts_reward_expectancy,2022.2.4,MacIntel,59.99880002,Chrome,920,695,,,l,1.9678,1,319,1,1,0,12,4,1,0,1,0,0,0,0,1,0,circle,hexagon,,,,,,,,,,,,,,,,,,,,,,,,,,,,,,,,,,,,,,,,,,,,,,,,,,,,,,
293386,2022-10-05_13h04.44.475,vts_reward_expectancy,2022.2.4,MacIntel,59.99880002,Chrome,920,695,,,l,0.6339,10,329,1,1,1,13,5,1,0,1,0,0,0,0,0,1,circle,star,,,,,,,,,,,,,,,,,,,,,,,,,,,,,,,,,,,,,,,,,,,,,,,,,,,,,,
293386,2022-10-05_13h04.44.475,vts_reward_expectancy,2022.2.4,MacIntel,59.99880002,Chrome,920,695,,,l,1.0846,10,339,1,1,2,14,6,1,0,0,1,0,1,0,0,0,hexagon,triangle,,,,,,,,,,,,,,,,,,,,,,,,,,,,,,,,,,,,,,,,,,,,,,,,,,,,,,
293386,2022-10-05_13h04.44.475,vts_reward_expectancy,2022.2.4,MacIntel,59.99880002,Chrome,920,695,,,a,0.8917,1,340,1,1,3,15,11,1,0,0,0,1,0,0,1,0,star,hexagon,,,,,,,,,,,,,,,,,,,,,,,,,,,,,,,,,,,,,,,,,,,,,,,,,,,,,,
293386,2022-10-05_13h04.44.475,vts_reward_expectancy,2022.2.4,MacIntel,59.99880002,Chrome,920,695,,,a,1.9706,1,341,1,1,4,16,7,1,0,0,1,0,0,1,0,0,hexagon,circle,,,,,,,,,,,,,,,,,,,,,,,,,,,,,,,,,,,,,,,,,,,,,,,,,,,,,,
293386,2022-10-05_13h04.44.475,vts_reward_expectancy,2022.2.4,MacIntel,59.99880002,Chrome,920,695,,,l,1.1657,10,351,1,1,5,17,8,1,0,0,1,0,0,0,0,1,hexagon,star,,,,,,,,,,,,,,,,,,,,,,,,,,,,,,,,,,,,,,,,,,,,,,,,,,,,,,
293386,2022-10-05_13h04.44.475,vts_reward_expectancy,2022.2.4,MacIntel,59.99880002,Chrome,920,695,,,a,0.8832,1,352,1,1,6,18,0,1,1,0,0,0,0,1,0,0,triangle,circle,,,,,,,,,,,,,,,,,,,,,,,,,,,,,,,,,,,,,,,,,,,,,,,,,,,,,,
293386,2022-10-05_13h04.44.475,vts_reward_expectancy,2022.2.4,MacIntel,59.99880002,Chrome,920,695,,,l,0.9646,1,353,1,1,7,19,1,1,1,0,0,0,0,0,1,0,triangle,hexagon,,,,,,,,,,,,,,,,,,,,,,,,,,,,,,,,,,,,,,,,,,,,,,,,,,,,,,
293386,2022-10-05_13h04.44.475,vts_reward_expectancy,2022.2.4,MacIntel,59.99880002,Chrome,920,695,,,l,0.5372,10,363,1,1,8,20,3,1,0,1,0,0,1,0,0,0,circle,triangle,,,,,,,,,,,,,,,,,,,,,,,,,,,,,,,,,,,,,,,,,,,,,,,,,,,,,,
293386,2022-10-05_13h04.44.475,vts_reward_expectancy,2022.2.4,MacIntel,59.99880002,Chrome,920,695,,,l,0.5007,10,373,1,1,9,21,9,1,0,0,0,1,1,0,0,0,star,triangle,,,,,,,,,,,,,,,,,,,,,,,,,,,,,,,,,,,,,,,,,,,,,,,,,,,,,,
293386,2022-10-05_13h04.44.475,vts_reward_expectancy,2022.2.4,MacIntel,59.99880002,Chrome,920,695,,,a,0.3572,10,383,1,1,10,22,10,1,0,0,0,1,0,1,0,0,star ,circle,,,,,,,,,,,,,,,,,,,,,,,,,,,,,,,,,,,,,,,,,,,,,,,,,,,,,,
293386,2022-10-05_13h04.44.475,vts_reward_expectancy,2022.2.4,MacIntel,59.99880002,Chrome,920,695,,,l,0.3497,10,393,1,1,11,23,2,1,1,0,0,0,0,0,0,1,triangle,star,,,,,,,,,,,,,,,,,,,,,,,,,,,,,,,,,,,,,,,,,,,,,,,,,,,,,,
293386,2022-10-05_13h04.44.475,vts_reward_expectancy,2022.2.4,MacIntel,59.99880002,Chrome,920,695,,,l,0.3837,10,403,1,2,0,24,2,1,1,0,0,0,0,0,0,1,triangle,star,,,,,,,,,,,,,,,,,,,,,,,,,,,,,,,,,,,,,,,,,,,,,,,,,,,,,,
293386,2022-10-05_13h04.44.475,vts_reward_expectancy,2022.2.4,MacIntel,59.99880002,Chrome,920,695,,,a,0.402,10,413,1,2,1,25,4,1,0,1,0,0,0,0,1,0,circle,hexagon,,,,,,,,,,,,,,,,,,,,,,,,,,,,,,,,,,,,,,,,,,,,,,,,,,,,,,
293386,2022-10-05_13h04.44.475,vts_reward_expectancy,2022.2.4,MacIntel,59.99880002,Chrome,920,695,,,a,0.5183,1,414,1,2,2,26,7,1,0,0,1,0,0,1,0,0,hexagon,circle,,,,,,,,,,,,,,,,,,,,,,,,,,,,,,,,,,,,,,,,,,,,,,,,,,,,,,
293386,2022-10-05_13h04.44.475,vts_reward_expectancy,2022.2.4,MacIntel,59.99880002,Chrome,920,695,,,a,0.3674,1,415,1,2,3,27,3,1,0,1,0,0,1,0,0,0,circle,triangle,,,,,,,,,,,,,,,,,,,,,,,,,,,,,,,,,,,,,,,,,,,,,,,,,,,,,,
293386,2022-10-05_13h04.44.475,vts_reward_expectancy,2022.2.4,MacIntel,59.99880002,Chrome,920,695,,,a,0.349,1,416,1,2,4,28,10,1,0,0,0,1,0,1,0,0,star ,circle,,,,,,,,,,,,,,,,,,,,,,,,,,,,,,,,,,,,,,,,,,,,,,,,,,,,,,
293386,2022-10-05_13h04.44.475,vts_reward_expectancy,2022.2.4,MacIntel,59.99880002,Chrome,920,695,,,l,0.4094,10,426,1,2,5,29,11,1,0,0,0,1,0,0,1,0,star,hexagon,,,,,,,,,,,,,,,,,,,,,,,,,,,,,,,,,,,,,,,,,,,,,,,,,,,,,,
293386,2022-10-05_13h04.44.475,vts_reward_expectancy,2022.2.4,MacIntel,59.99880002,Chrome,920,695,,,a,1.0007,10,436,1,2,6,30,1,1,1,0,0,0,0,0,1,0,triangle,hexagon,,,,,,,,,,,,,,,,,,,,,,,,,,,,,,,,,,,,,,,,,,,,,,,,,,,,,,
293386,2022-10-05_13h04.44.475,vts_reward_expectancy,2022.2.4,MacIntel,59.99880002,Chrome,920,695,,,l,0.5076,10,446,1,2,7,31,5,1,0,1,0,0,0,0,0,1,circle,star,,,,,,,,,,,,,,,,,,,,,,,,,,,,,,,,,,,,,,,,,,,,,,,,,,,,,,
293386,2022-10-05_13h04.44.475,vts_reward_expectancy,2022.2.4,MacIntel,59.99880002,Chrome,920,695,,,a,0.5,1,447,1,2,8,32,6,1,0,0,1,0,1,0,0,0,hexagon,triangle,,,,,,,,,,,,,,,,,,,,,,,,,,,,,,,,,,,,,,,,,,,,,,,,,,,,,,
293386,2022-10-05_13h04.44.475,vts_reward_expectancy,2022.2.4,MacIntel,59.99880002,Chrome,920,695,,,a,0.5539,10,457,1,2,9,33,0,1,1,0,0,0,0,1,0,0,triangle,circle,,,,,,,,,,,,,,,,,,,,,,,,,,,,,,,,,,,,,,,,,,,,,,,,,,,,,,
293386,2022-10-05_13h04.44.475,vts_reward_expectancy,2022.2.4,MacIntel,59.99880002,Chrome,920,695,,,l,0.4334,10,467,1,2,10,34,8,1,0,0,1,0,0,0,0,1,hexagon,star,,,,,,,,,,,,,,,,,,,,,,,,,,,,,,,,,,,,,,,,,,,,,,,,,,,,,,
293386,2022-10-05_13h04.44.475,vts_reward_expectancy,2022.2.4,MacIntel,59.99880002,Chrome,920,695,,,a,0.5072,1,468,1,2,11,35,9,1,0,0,0,1,1,0,0,0,star,triangle,,,,,,,,,,,,,,,,,,,,,,,,,,,,,,,,,,,,,,,,,,,,,,,,,,,,,,
293386,2022-10-05_13h04.44.475,vts_reward_expectancy,2022.2.4,MacIntel,59.99880002,Chrome,920,695,,,l,1.848,1,469,2,0,0,0,7,1,0,0,1,0,0,1,0,0,hexagon,circle,,,,,,,,,,,,,,,,,,,,,,,,,,,,,,,,,,,,,,,,,,,,,,,,,,,,,,
293386,2022-10-05_13h04.44.475,vts_reward_expectancy,2022.2.4,MacIntel,59.99880002,Chrome,920,695,,,a,0.2828,10,479,2,0,1,1,8,1,0,0,1,0,0,0,0,1,hexagon,star,,,,,,,,,,,,,,,,,,,,,,,,,,,,,,,,,,,,,,,,,,,,,,,,,,,,,,
293386,2022-10-05_13h04.44.475,vts_reward_expectancy,2022.2.4,MacIntel,59.99880002,Chrome,920,695,,,l,0.2031,1,480,2,0,2,2,1,1,1,0,0,0,0,0,1,0,triangle,hexagon,,,,,,,,,,,,,,,,,,,,,,,,,,,,,,,,,,,,,,,,,,,,,,,,,,,,,,
293386,2022-10-05_13h04.44.475,vts_reward_expectancy,2022.2.4,MacIntel,59.99880002,Chrome,920,695,,,a,0.1038,1,481,2,0,3,3,3,1,0,1,0,0,1,0,0,0,circle,triangle,,,,,,,,,,,,,,,,,,,,,,,,,,,,,,,,,,,,,,,,,,,,,,,,,,,,,,
293386,2022-10-05_13h04.44.475,vts_reward_expectancy,2022.2.4,MacIntel,59.99880002,Chrome,920,695,,,l,0.3894,1,482,2,0,4,4,10,1,0,0,0,1,0,1,0,0,star ,circle,,,,,,,,,,,,,,,,,,,,,,,,,,,,,,,,,,,,,,,,,,,,,,,,,,,,,,
293386,2022-10-05_13h04.44.475,vts_reward_expectancy,2022.2.4,MacIntel,59.99880002,Chrome,920,695,,,l,0.4497,1,483,2,0,5,5,4,1,0,1,0,0,0,0,1,0,circle,hexagon,,,,,,,,,,,,,,,,,,,,,,,,,,,,,,,,,,,,,,,,,,,,,,,,,,,,,,
293386,2022-10-05_13h04.44.475,vts_reward_expectancy,2022.2.4,MacIntel,59.99880002,Chrome,920,695,,,l,0.3872,1,484,2,0,6,6,5,1,0,1,0,0,0,0,0,1,circle,star,,,,,,,,,,,,,,,,,,,,,,,,,,,,,,,,,,,,,,,,,,,,,,,,,,,,,,
293386,2022-10-05_13h04.44.475,vts_reward_expectancy,2022.2.4,MacIntel,59.99880002,Chrome,920,695,,,l,0.3385,10,494,2,0,7,7,6,1,0,0,1,0,1,0,0,0,hexagon,triangle,,,,,,,,,,,,,,,,,,,,,,,,,,,,,,,,,,,,,,,,,,,,,,,,,,,,,,
293386,2022-10-05_13h04.44.475,vts_reward_expectancy,2022.2.4,MacIntel,59.99880002,Chrome,920,695,,,a,0.3484,10,504,2,0,8,8,0,1,1,0,0,0,0,1,0,0,triangle,circle,,,,,,,,,,,,,,,,,,,,,,,,,,,,,,,,,,,,,,,,,,,,,,,,,,,,,,
293386,2022-10-05_13h04.44.475,vts_reward_expectancy,2022.2.4,MacIntel,59.99880002,Chrome,920,695,,,l,0.4382,10,514,2,0,9,9,9,1,0,0,0,1,1,0,0,0,star,triangle,,,,,,,,,,,,,,,,,,,,,,,,,,,,,,,,,,,,,,,,,,,,,,,,,,,,,,
293386,2022-10-05_13h04.44.475,vts_reward_expectancy,2022.2.4,MacIntel,59.99880002,Chrome,920,695,,,a,0.4252,10,524,2,0,10,10,11,1,0,0,0,1,0,0,1,0,star,hexagon,,,,,,,,,,,,,,,,,,,,,,,,,,,,,,,,,,,,,,,,,,,,,,,,,,,,,,
293386,2022-10-05_13h04.44.475,vts_reward_expectancy,2022.2.4,MacIntel,59.99880002,Chrome,920,695,,,l,0.3825,1,525,2,0,11,11,2,1,1,0,0,0,0,0,0,1,triangle,star,,,,,,,,,,,,,,,,,,,,,,,,,,,,,,,,,,,,,,,,,,,,,,,,,,,,,,
293386,2022-10-05_13h04.44.475,vts_reward_expectancy,2022.2.4,MacIntel,59.99880002,Chrome,920,695,,,l,0.6,10,535,2,1,0,12,6,1,0,0,1,0,1,0,0,0,hexagon,triangle,,,,,,,,,,,,,,,,,,,,,,,,,,,,,,,,,,,,,,,,,,,,,,,,,,,,,,
293386,2022-10-05_13h04.44.475,vts_reward_expectancy,2022.2.4,MacIntel,59.99880002,Chrome,920,695,,,l,0.5694,10,545,2,1,1,13,2,1,1,0,0,0,0,0,0,1,triangle,star,,,,,,,,,,,,,,,,,,,,,,,,,,,,,,,,,,,,,,,,,,,,,,,,,,,,,,
293386,2022-10-05_13h04.44.475,vts_reward_expectancy,2022.2.4,MacIntel,59.99880002,Chrome,920,695,,,a,0.7396,10,555,2,1,2,14,10,1,0,0,0,1,0,1,0,0,star ,circle,,,,,,,,,,,,,,,,,,,,,,,,,,,,,,,,,,,,,,,,,,,,,,,,,,,,,,
293386,2022-10-05_13h04.44.475,vts_reward_expectancy,2022.2.4,MacIntel,59.99880002,Chrome,920,695,,,a,0.5331,10,565,2,1,3,15,11,1,0,0,0,1,0,0,1,0,star,hexagon,,,,,,,,,,,,,,,,,,,,,,,,,,,,,,,,,,,,,,,,,,,,,,,,,,,,,,
293386,2022-10-05_13h04.44.475,vts_reward_expectancy,2022.2.4,MacIntel,59.99880002,Chrome,920,695,,,a,0.8004,1,566,2,1,4,16,0,1,1,0,0,0,0,1,0,0,triangle,circle,,,,,,,,,,,,,,,,,,,,,,,,,,,,,,,,,,,,,,,,,,,,,,,,,,,,,,
293386,2022-10-05_13h04.44.475,vts_reward_expectancy,2022.2.4,MacIntel,59.99880002,Chrome,920,695,,,l,0.5342,1,567,2,1,5,17,4,1,0,1,0,0,0,0,1,0,circle,hexagon,,,,,,,,,,,,,,,,,,,,,,,,,,,,,,,,,,,,,,,,,,,,,,,,,,,,,,
293386,2022-10-05_13h04.44.475,vts_reward_expectancy,2022.2.4,MacIntel,59.99880002,Chrome,920,695,,,l,0.9494,10,577,2,1,6,18,8,1,0,0,1,0,0,0,0,1,hexagon,star,,,,,,,,,,,,,,,,,,,,,,,,,,,,,,,,,,,,,,,,,,,,,,,,,,,,,,
293386,2022-10-05_13h04.44.475,vts_reward_expectancy,2022.2.4,MacIntel,59.99880002,Chrome,920,695,,,l,0.5173,10,587,2,1,7,19,5,1,0,1,0,0,0,0,0,1,circle,star,,,,,,,,,,,,,,,,,,,,,,,,,,,,,,,,,,,,,,,,,,,,,,,,,,,,,,
293386,2022-10-05_13h04.44.475,vts_reward_expectancy,2022.2.4,MacIntel,59.99880002,Chrome,920,695,,,l,0.7324,10,597,2,1,8,20,9,1,0,0,0,1,1,0,0,0,star,triangle,,,,,,,,,,,,,,,,,,,,,,,,,,,,,,,,,,,,,,,,,,,,,,,,,,,,,,
293386,2022-10-05_13h04.44.475,vts_reward_expectancy,2022.2.4,MacIntel,59.99880002,Chrome,920,695,,,l,0.6172,10,607,2,1,9,21,3,1,0,1,0,0,1,0,0,0,circle,triangle,,,,,,,,,,,,,,,,,,,,,,,,,,,,,,,,,,,,,,,,,,,,,,,,,,,,,,
293386,2022-10-05_13h04.44.475,vts_reward_expectancy,2022.2.4,MacIntel,59.99880002,Chrome,920,695,,,l,1.7835,1,608,2,1,10,22,1,1,1,0,0,0,0,0,1,0,triangle,hexagon,,,,,,,,,,,,,,,,,,,,,,,,,,,,,,,,,,,,,,,,,,,,,,,,,,,,,,
293386,2022-10-05_13h04.44.475,vts_reward_expectancy,2022.2.4,MacIntel,59.99880002,Chrome,920,695,,,l,1.5534,10,618,2,1,11,23,7,1,0,0,1,0,0,1,0,0,hexagon,circle,,,,,,,,,,,,,,,,,,,,,,,,,,,,,,,,,,,,,,,,,,,,,,,,,,,,,,
293386,2022-10-05_13h04.44.475,vts_reward_expectancy,2022.2.4,MacIntel,59.99880002,Chrome,920,695,,,l,1.0687,10,628,2,2,0,24,7,1,0,0,1,0,0,1,0,0,hexagon,circle,,,,,,,,,,,,,,,,,,,,,,,,,,,,,,,,,,,,,,,,,,,,,,,,,,,,,,
293386,2022-10-05_13h04.44.475,vts_reward_expectancy,2022.2.4,MacIntel,59.99880002,Chrome,920,695,,,l,0.8229,1,629,2,2,1,25,2,1,1,0,0,0,0,0,0,1,triangle,star,,,,,,,,,,,,,,,,,,,,,,,,,,,,,,,,,,,,,,,,,,,,,,,,,,,,,,
293386,2022-10-05_13h04.44.475,vts_reward_expectancy,2022.2.4,MacIntel,59.99880002,Chrome,920,695,,,a,0.6327,10,639,2,2,2,26,5,1,0,1,0,0,0,0,0,1,circle,star,,,,,,,,,,,,,,,,,,,,,,,,,,,,,,,,,,,,,,,,,,,,,,,,,,,,,,
293386,2022-10-05_13h04.44.475,vts_reward_expectancy,2022.2.4,MacIntel,59.99880002,Chrome,920,695,,,l,0.5668,10,649,2,2,3,27,3,1,0,1,0,0,1,0,0,0,circle,triangle,,,,,,,,,,,,,,,,,,,,,,,,,,,,,,,,,,,,,,,,,,,,,,,,,,,,,,
293386,2022-10-05_13h04.44.475,vts_reward_expectancy,2022.2.4,MacIntel,59.99880002,Chrome,920,695,,,l,0.4341,10,659,2,2,4,28,6,1,0,0,1,0,1,0,0,0,hexagon,triangle,,,,,,,,,,,,,,,,,,,,,,,,,,,,,,,,,,,,,,,,,,,,,,,,,,,,,,
293386,2022-10-05_13h04.44.475,vts_reward_expectancy,2022.2.4,MacIntel,59.99880002,Chrome,920,695,,,a,0.8161,10,669,2,2,5,29,0,1,1,0,0,0,0,1,0,0,triangle,circle,,,,,,,,,,,,,,,,,,,,,,,,,,,,,,,,,,,,,,,,,,,,,,,,,,,,,,
293386,2022-10-05_13h04.44.475,vts_reward_expectancy,2022.2.4,MacIntel,59.99880002,Chrome,920,695,,,l,0.4157,10,679,2,2,6,30,9,1,0,0,0,1,1,0,0,0,star,triangle,,,,,,,,,,,,,,,,,,,,,,,,,,,,,,,,,,,,,,,,,,,,,,,,,,,,,,
293386,2022-10-05_13h04.44.475,vts_reward_expectancy,2022.2.4,MacIntel,59.99880002,Chrome,920,695,,,a,0.3992,10,689,2,2,7,31,1,1,1,0,0,0,0,0,1,0,triangle,hexagon,,,,,,,,,,,,,,,,,,,,,,,,,,,,,,,,,,,,,,,,,,,,,,,,,,,,,,
293386,2022-10-05_13h04.44.475,vts_reward_expectancy,2022.2.4,MacIntel,59.99880002,Chrome,920,695,,,l,0.8503,1,690,2,2,8,32,8,1,0,0,1,0,0,0,0,1,hexagon,star,,,,,,,,,,,,,,,,,,,,,,,,,,,,,,,,,,,,,,,,,,,,,,,,,,,,,,
293386,2022-10-05_13h04.44.475,vts_reward_expectancy,2022.2.4,MacIntel,59.99880002,Chrome,920,695,,,l,0.4559,1,691,2,2,9,33,11,1,0,0,0,1,0,0,1,0,star,hexagon,,,,,,,,,,,,,,,,,,,,,,,,,,,,,,,,,,,,,,,,,,,,,,,,,,,,,,
293386,2022-10-05_13h04.44.475,vts_reward_expectancy,2022.2.4,MacIntel,59.99880002,Chrome,920,695,,,a,0.7707,1,692,2,2,10,34,4,1,0,1,0,0,0,0,1,0,circle,hexagon,,,,,,,,,,,,,,,,,,,,,,,,,,,,,,,,,,,,,,,,,,,,,,,,,,,,,,
293386,2022-10-05_13h04.44.475,vts_reward_expectancy,2022.2.4,MacIntel,59.99880002,Chrome,920,695,,,l,0.4665,1,693,2,2,11,35,10,1,0,0,0,1,0,1,0,0,star ,circle,,,,,,,,,,,,,,,,,,,,,,,,,,,,,,,,,,,,,,,,,,,,,,,,,,,,,,
293386,2022-10-05_13h04.44.475,vts_reward_expectancy,2022.2.4,MacIntel,59.99880002,Chrome,920,695,,,,,,,,,,,,,,,,,,,,,,,125,H,hexagon,1,0,d,0.9137,0,0,0,0,0,1,,,,,,,,,,,,,,,,,,,,,,,,,,,,,,,,,,,,,,,,,
293386,2022-10-05_13h04.44.475,vts_reward_expectancy,2022.2.4,MacIntel,59.99880002,Chrome,920,695,,,,,,,,,,,,,,,,,,,,,,,160,U,triangle,1,0,f,0.4613,0,1,0,1,0,1,,,,,,,,,,,,,,,,,,,,,,,,,,,,,,,,,,,,,,,,,
293386,2022-10-05_13h04.44.475,vts_reward_expectancy,2022.2.4,MacIntel,59.99880002,Chrome,920,695,,,,,,,,,,,,,,,,,,,,,,,139,W,star,1,0,d,0.5486,0,2,0,2,0,1,,,,,,,,,,,,,,,,,,,,,,,,,,,,,,,,,,,,,,,,,
293386,2022-10-05_13h04.44.475,vts_reward_expectancy,2022.2.4,MacIntel,59.99880002,Chrome,920,695,,,,,,,,,,,,,,,,,,,,,,,132,B,circle,1,0,d,0.6125,0,3,0,3,0,1,,,,,,,,,,,,,,,,,,,,,,,,,,,,,,,,,,,,,,,,,
293386,2022-10-05_13h04.44.475,vts_reward_expectancy,2022.2.4,MacIntel,59.99880002,Chrome,920,695,,,,,,,,,,,,,,,,,,,,,,,167,F,hexagon,1,0,f,0.531,0,4,0,4,0,1,,,,,,,,,,,,,,,,,,,,,,,,,,,,,,,,,,,,,,,,,
293386,2022-10-05_13h04.44.475,vts_reward_expectancy,2022.2.4,MacIntel,59.99880002,Chrome,920,695,,,,,,,,,,,,,,,,,,,,,,,174,Y,triangle,1,0,f,0.579,0,5,0,5,0,1,,,,,,,,,,,,,,,,,,,,,,,,,,,,,,,,,,,,,,,,,
293386,2022-10-05_13h04.44.475,vts_reward_expectancy,2022.2.4,MacIntel,59.99880002,Chrome,920,695,,,,,,,,,,,,,,,,,,,,,,,146,D,star,1,0,d,1.3889,0,6,0,6,0,1,,,,,,,,,,,,,,,,,,,,,,,,,,,,,,,,,,,,,,,,,
293386,2022-10-05_13h04.44.475,vts_reward_expectancy,2022.2.4,MacIntel,59.99880002,Chrome,920,695,,,,,,,,,,,,,,,,,,,,,,,181,S,circle,1,0,f,0.7832,0,7,0,7,0,1,,,,,,,,,,,,,,,,,,,,,,,,,,,,,,,,,,,,,,,,,
293386,2022-10-05_13h04.44.475,vts_reward_expectancy,2022.2.4,MacIntel,59.99880002,Chrome,920,695,,,,,,,,,,,,,,,,,,,,,,,125,H,triangle,1,0,d,0.6467,0,8,0,8,0,1,,,,,,,,,,,,,,,,,,,,,,,,,,,,,,,,,,,,,,,,,
293386,2022-10-05_13h04.44.475,vts_reward_expectancy,2022.2.4,MacIntel,59.99880002,Chrome,920,695,,,,,,,,,,,,,,,,,,,,,,,160,U,circle,1,0,f,0.6204,0,9,0,9,0,1,,,,,,,,,,,,,,,,,,,,,,,,,,,,,,,,,,,,,,,,,
293386,2022-10-05_13h04.44.475,vts_reward_expectancy,2022.2.4,MacIntel,59.99880002,Chrome,920,695,,,,,,,,,,,,,,,,,,,,,,,125,W,hexagon,2,0,,,1,,,,,,f,0.6466,0,0,0,0,1,,,,,,,,,,,,,,,,,,,,,,,,,,,,,,,,,,
293386,2022-10-05_13h04.44.475,vts_reward_expectancy,2022.2.4,MacIntel,59.99880002,Chrome,920,695,,,,,,,,,,,,,,,,,,,,,,,167,B,circle,2,0,,,1,,,,,,d,0.7655,1,0,1,0,1,,,,,,,,,,,,,,,,,,,,,,,,,,,,,,,,,,
293386,2022-10-05_13h04.44.475,vts_reward_expectancy,2022.2.4,MacIntel,59.99880002,Chrome,920,695,,,,,,,,,,,,,,,,,,,,,,,181,U,triangle,2,0,,,1,,,,,,d,0.9806,2,0,2,0,1,,,,,,,,,,,,,,,,,,,,,,,,,,,,,,,,,,
293386,2022-10-05_13h04.44.475,vts_reward_expectancy,2022.2.4,MacIntel,59.99880002,Chrome,920,695,,,,,,,,,,,,,,,,,,,,,,,139,H,star,2,0,,,1,,,,,,f,1.1955,3,0,3,0,1,,,,,,,,,,,,,,,,,,,,,,,,,,,,,,,,,,
293386,2022-10-05_13h04.44.475,vts_reward_expectancy,2022.2.4,MacIntel,59.99880002,Chrome,920,695,,,,,,,,,,,,,,,,,,,,,,,160,D,hexagon,2,0,,,1,,,,,,d,0.2517,4,0,4,0,1,,,,,,,,,,,,,,,,,,,,,,,,,,,,,,,,,,
293386,2022-10-05_13h04.44.475,vts_reward_expectancy,2022.2.4,MacIntel,59.99880002,Chrome,920,695,,,,,,,,,,,,,,,,,,,,,,,146,S,circle,2,0,,,1,,,,,,d,0.4367,5,0,5,0,1,,,,,,,,,,,,,,,,,,,,,,,,,,,,,,,,,,
293386,2022-10-05_13h04.44.475,vts_reward_expectancy,2022.2.4,MacIntel,59.99880002,Chrome,920,695,,,,,,,,,,,,,,,,,,,,,,,174,Y,triangle,2,0,,,1,,,,,,d,1.5679,6,0,6,0,1,,,,,,,,,,,,,,,,,,,,,,,,,,,,,,,,,,
293386,2022-10-05_13h04.44.475,vts_reward_expectancy,2022.2.4,MacIntel,59.99880002,Chrome,920,695,,,,,,,,,,,,,,,,,,,,,,,132,F,star,2,0,,,1,,,,,,d,1.8468,7,0,7,0,1,,,,,,,,,,,,,,,,,,,,,,,,,,,,,,,,,,
293386,2022-10-05_13h04.44.475,vts_reward_expectancy,2022.2.4,MacIntel,59.99880002,Chrome,920,695,,,,,,,,,,,,,,,,,,,,,,,125,W,star,2,0,,,1,,,,,,f,0.4617,8,0,8,0,1,,,,,,,,,,,,,,,,,,,,,,,,,,,,,,,,,,
293386,2022-10-05_13h04.44.475,vts_reward_expectancy,2022.2.4,MacIntel,59.99880002,Chrome,920,695,,,,,,,,,,,,,,,,,,,,,,,167,B,hexagon,2,0,,,1,,,,,,d,0.5311,9,0,9,0,1,,,,,,,,,,,,,,,,,,,,,,,,,,,,,,,,,,
293386,2022-10-05_13h04.44.475,vts_reward_expectancy,2022.2.4,MacIntel,59.99880002,Chrome,920,695,,,,,,,,,,,,,,,,,,,,,,,125,U,star,1,0,,,2,,,,,,k,0.7463,0,0,0,0,1,,,,,,,,,,,,,,,,,,,,,,,,,,,,,,,,,,
293386,2022-10-05_13h04.44.475,vts_reward_expectancy,2022.2.4,MacIntel,59.99880002,Chrome,920,695,,,,,,,,,,,,,,,,,,,,,,,139,Y,hexagon,1,0,,,2,,,,,,k,0.5135,1,0,1,0,1,,,,,,,,,,,,,,,,,,,,,,,,,,,,,,,,,,
293386,2022-10-05_13h04.44.475,vts_reward_expectancy,2022.2.4,MacIntel,59.99880002,Chrome,920,695,,,,,,,,,,,,,,,,,,,,,,,174,B,triangle,1,0,,,2,,,,,,j,0.3547,2,0,2,0,1,,,,,,,,,,,,,,,,,,,,,,,,,,,,,,,,,,
293386,2022-10-05_13h04.44.475,vts_reward_expectancy,2022.2.4,MacIntel,59.99880002,Chrome,920,695,,,,,,,,,,,,,,,,,,,,,,,181,S,circle,1,0,,,2,,,,,,k,0.661,3,0,3,0,1,,,,,,,,,,,,,,,,,,,,,,,,,,,,,,,,,,
293386,2022-10-05_13h04.44.475,vts_reward_expectancy,2022.2.4,MacIntel,59.99880002,Chrome,920,695,,,,,,,,,,,,,,,,,,,,,,,167,F,star,1,0,,,2,,,,,,j,0.546,4,0,4,0,1,,,,,,,,,,,,,,,,,,,,,,,,,,,,,,,,,,
293386,2022-10-05_13h04.44.475,vts_reward_expectancy,2022.2.4,MacIntel,59.99880002,Chrome,920,695,,,,,,,,,,,,,,,,,,,,,,,160,D,hexagon,0,0,,,2,,,,,,k,0.5309,5,0,5,0,1,,,,,,,,,,,,,,,,,,,,,,,,,,,,,,,,,,
293386,2022-10-05_13h04.44.475,vts_reward_expectancy,2022.2.4,MacIntel,59.99880002,Chrome,920,695,,,,,,,,,,,,,,,,,,,,,,,132,W,triangle,1,1,,,2,,,,,,k,0.5802,6,0,6,0,1,,,,,,,,,,,,,,,,,,,,,,,,,,,,,,,,,,
293386,2022-10-05_13h04.44.475,vts_reward_expectancy,2022.2.4,MacIntel,59.99880002,Chrome,920,695,,,,,,,,,,,,,,,,,,,,,,,146,H,circle,1,0,,,2,,,,,,j,0.6214,7,0,7,0,1,,,,,,,,,,,,,,,,,,,,,,,,,,,,,,,,,,
293386,2022-10-05_13h04.44.475,vts_reward_expectancy,2022.2.4,MacIntel,59.99880002,Chrome,920,695,,,,,,,,,,,,,,,,,,,,,,,125,U,circle,1,0,,,2,,,,,,k,0.7304,8,0,8,0,1,,,,,,,,,,,,,,,,,,,,,,,,,,,,,,,,,,
293386,2022-10-05_13h04.44.475,vts_reward_expectancy,2022.2.4,MacIntel,59.99880002,Chrome,920,695,,,,,,,,,,,,,,,,,,,,,,,139,Y,triangle,1,0,,,2,,,,,,k,1.5177,9,0,9,0,1,,,,,,,,,,,,,,,,,,,,,,,,,,,,,,,,,,
293386,2022-10-05_13h04.44.475,vts_reward_expectancy,2022.2.4,MacIntel,59.99880002,Chrome,920,695,,,,,0,693,,,,,,,,,,,,,,,,,139,U,triangle,1,0,,,3,,,,,,,,,,,,,-1,number,NA,d,1.3741,vtsPrac,0,0,0,0,1,,,,,,,,,,,,,,,,,,,,,,,
293386,2022-10-05_13h04.44.475,vts_reward_expectancy,2022.2.4,MacIntel,59.99880002,Chrome,920,695,,,,,0,693,,,,,,,,,,,,,,,,,160,F,circle,1,0,,,3,,,,,,,,,,,,,repeat,number,numRpt,f,0.7682,vtsPrac,1,0,1,0,1,,,,,,,,,,,,,,,,,,,,,,,
293386,2022-10-05_13h04.44.475,vts_reward_expectancy,2022.2.4,MacIntel,59.99880002,Chrome,920,695,,,,,0,693,,,,,,,,,,,,,,,,,125,H,triangle,1,0,,,3,,,,,,,,,,,,,switch,letter,lettSwt,j,0.5962,vtsPrac,2,0,2,0,1,,,,,,,,,,,,,,,,,,,,,,,
293386,2022-10-05_13h04.44.475,vts_reward_expectancy,2022.2.4,MacIntel,59.99880002,Chrome,920,695,,,,,0,693,,,,,,,,,,,,,,,,,167,S,circle,1,0,,,3,,,,,,,,,,,,,repeat,letter,lettRpt,k,0.684,vtsPrac,3,0,3,0,1,,,,,,,,,,,,,,,,,,,,,,,
293386,2022-10-05_13h04.44.475,vts_reward_expectancy,2022.2.4,MacIntel,59.99880002,Chrome,920,695,,,,,0,693,,,,,,,,,,,,,,,,,139,U,circle,1,0,,,3,,,,,,,,,,,,,switch,number,numSwt,d,0.9477,vtsPrac,4,0,4,0,1,,,,,,,,,,,,,,,,,,,,,,,
293386,2022-10-05_13h04.44.475,vts_reward_expectancy,2022.2.4,MacIntel,59.99880002,Chrome,920,695,,,,,0,693,,,,,,,,,,,,,,,,,160,F,star,1,0,,,3,,,,,,,,,,,,,repeat,number,numRpt,f,1.2293,vtsPrac,5,0,5,0,1,,,,,,,,,,,,,,,,,,,,,,,
293386,2022-10-05_13h04.44.475,vts_reward_expectancy,2022.2.4,MacIntel,59.99880002,Chrome,920,695,,,,,0,693,,,,,,,,,,,,,,,,,125,H,circle,1,0,,,3,,,,,,,,,,,,,switch,letter,lettSwt,j,0.5971,vtsPrac,6,0,6,0,1,,,,,,,,,,,,,,,,,,,,,,,
293386,2022-10-05_13h04.44.475,vts_reward_expectancy,2022.2.4,MacIntel,59.99880002,Chrome,920,695,,,,,0,693,,,,,,,,,,,,,,,,,167,S,hexagon,1,0,,,3,,,,,,,,,,,,,repeat,letter,lettRpt,k,0.6967,vtsPrac,7,0,7,0,1,,,,,,,,,,,,,,,,,,,,,,,
293386,2022-10-05_13h04.44.475,vts_reward_expectancy,2022.2.4,MacIntel,59.99880002,Chrome,920,695,,,,,0,693,,,,,,,,,,,,,,,,,167,W,circle,1,0,,,3,,,,,,,,,,,,,switch,number,numSwt,f,0.7036,vtsPrac,8,0,8,0,1,,,,,,,,,,,,,,,,,,,,,,,
293386,2022-10-05_13h04.44.475,vts_reward_expectancy,2022.2.4,MacIntel,59.99880002,Chrome,920,695,,,,,0,693,,,,,,,,,,,,,,,,,181,U,star,1,0,,,3,,,,,,,,,,,,,repeat,number,numRpt,f,0.7785,vtsPrac,9,0,9,0,1,,,,,,,,,,,,,,,,,,,,,,,
293386,2022-10-05_13h04.44.475,vts_reward_expectancy,2022.2.4,MacIntel,59.99880002,Chrome,920,695,,,,,0,693,,,,,,,,,,,,,,,,,160,B,triangle,1,0,,,3,,,,,,,,,,,,,switch,letter,lettSwt,j,0.6309,vtsPrac,10,0,10,0,1,,,,,,,,,,,,,,,,,,,,,,,
293386,2022-10-05_13h04.44.475,vts_reward_expectancy,2022.2.4,MacIntel,59.99880002,Chrome,920,695,,,,,0,693,,,,,,,,,,,,,,,,,174,F,hexagon,1,0,,,3,,,,,,,,,,,,,repeat,letter,lettRpt,j,0.5342,vtsPrac,11,0,11,0,1,,,,,,,,,,,,,,,,,,,,,,,
293386,2022-10-05_13h04.44.475,vts_reward_expectancy,2022.2.4,MacIntel,59.99880002,Chrome,920,695,,,,,0,693,,,,,,,,,,,,,,,,,181,D,circle,1,0,,,3,,,,,,,,,,,,,switch,number,numSwt,f,0.4964,vtsPrac,12,0,12,0,1,,,,,,,,,,,,,,,,,,,,,,,
293386,2022-10-05_13h04.44.475,vts_reward_expectancy,2022.2.4,MacIntel,59.99880002,Chrome,920,695,,,,,0,693,,,,,,,,,,,,,,,,,160,F,hexagon,1,0,,,3,,,,,,,,,,,,,repeat,number,numRpt,f,1.1361,vtsPrac,13,0,13,0,1,,,,,,,,,,,,,,,,,,,,,,,
293386,2022-10-05_13h04.44.475,vts_reward_expectancy,2022.2.4,MacIntel,59.99880002,Chrome,920,695,,,,,0,693,,,,,,,,,,,,,,,,,146,B,triangle,1,0,,,3,,,,,,,,,,,,,switch,letter,lettSwt,j,0.7977,vtsPrac,14,0,14,0,1,,,,,,,,,,,,,,,,,,,,,,,
293386,2022-10-05_13h04.44.475,vts_reward_expectancy,2022.2.4,MacIntel,59.99880002,Chrome,920,695,,,,,0,693,,,,,,,,,,,,,,,,,139,U,hexagon,1,0,,,3,,,,,,,,,,,,,repeat,letter,lettRpt,k,0.7351,vtsPrac,15,0,15,0,1,,,,,,,,,,,,,,,,,,,,,,,
293386,2022-10-05_13h04.44.475,vts_reward_expectancy,2022.2.4,MacIntel,59.99880002,Chrome,920,695,,,,,,,,,,,,,,,,,,,,,,,,,,,,,,,,,,,,,,,,,,,,,,,,,,,,,,,,,,,,,,,,,,,,,,,,,,,,
293386,2022-10-05_13h04.44.475,vts_reward_expectancy,2022.2.4,MacIntel,59.99880002,Chrome,920,695,,,,,,,,,,,,,,,,,,,,,,,,,,,,,,,,,,,,,,,,,,,,,,,,,,,,,,,,,,,,,,,,,,,,,,,,,,,,
293386,2022-10-05_13h04.44.475,vts_reward_expectancy,2022.2.4,MacIntel,59.99880002,Chrome,920,695,,,,,0,693,,,,,,,,,,,,,,,,,132,S,circle,-1,0,,,,,,,,,,,,,,,,switch,no_choice,NA,,,noRew,,,,,,0,0,0,0,0,1,,,,,,,,,,,,,,,,,
293386,2022-10-05_13h04.44.475,vts_reward_expectancy,2022.2.4,MacIntel,59.99880002,Chrome,920,695,,,,,0,693,,,,,,,,,,,,,,,,,139,U,star,-1,0,,,,,,,,,,,,,,,,repeat,no_choice,NA,,,noRew,,,,,,0,1,0,1,0,1,,,,,,,,,,,,,,,,,
293386,2022-10-05_13h04.44.475,vts_reward_expectancy,2022.2.4,MacIntel,59.99880002,Chrome,920,695,,,,,0,693,,,,,,,,,,,,,,,,,167,B,circle,-1,0,,,,,,,,,,,,,,,,repeat,no_choice,NA,,,noRew,,,,,,0,2,0,2,0,1,,,,,,,,,,,,,,,,,
293386,2022-10-05_13h04.44.475,vts_reward_expectancy,2022.2.4,MacIntel,59.99880002,Chrome,920,695,,,,,0,693,,,,,,,,,,,,,,,,,160,W,star,-1,0,,,,,,,,,,,,,,,,repeat,no_choice,NA,,,noRew,,,,,,0,3,0,3,0,1,,,,,,,,,,,,,,,,,
293386,2022-10-05_13h04.44.475,vts_reward_expectancy,2022.2.4,MacIntel,59.99880002,Chrome,920,695,,,,,0,693,,,,,,,,,,,,,,,,,132,S,triangle,-1,0,,,,,,,,,,,,,,,,repeat,no_choice,NA,,,noRew,,,,,,0,4,0,4,0,1,,,,,,,,,,,,,,,,,
293386,2022-10-05_13h04.44.475,vts_reward_expectancy,2022.2.4,MacIntel,59.99880002,Chrome,920,695,,,,,0,693,,,,,,,,,,,,,,,,,139,U,star,-1,0,,,,,,,,,,,,,,,,repeat,no_choice,NA,,,noRew,,,,,,0,5,0,5,0,1,,,,,,,,,,,,,,,,,
293386,2022-10-05_13h04.44.475,vts_reward_expectancy,2022.2.4,MacIntel,59.99880002,Chrome,920,695,,,,,0,693,,,,,,,,,,,,,,,,,167,B,hexagon,1,0,,,,,,,,,,,,,,,,switch,number,numSwt,f,0.538,noRew,,,,,,0,6,0,6,0,1,,,,,,,,,,,,,,,,,
293386,2022-10-05_13h04.44.475,vts_reward_expectancy,2022.2.4,MacIntel,59.99880002,Chrome,920,695,,,,,0,693,,,,,,,,,,,,,,,,,160,W,triangle,1,0,,,,,,,,,,,,,,,,switch,letter,lettSwt,k,0.7275,noRew,,,,,,0,7,0,7,0,1,,,,,,,,,,,,,,,,,
293386,2022-10-05_13h04.44.475,vts_reward_expectancy,2022.2.4,MacIntel,59.99880002,Chrome,920,695,,,,,0,693,,,,,,,,,,,,,,,,,160,F,star,1,0,,,,,,,,,,,,,,,,switch,number,numSwt,f,0.4699,noRew,,,,,,0,8,0,8,0,1,,,,,,,,,,,,,,,,,
293386,2022-10-05_13h04.44.475,vts_reward_expectancy,2022.2.4,MacIntel,59.99880002,Chrome,920,695,,,,,0,693,,,,,,,,,,,,,,,,,174,Y,circle,1,0,,,,,,,,,,,,,,,,switch,letter,lettSwt,k,0.5803,noRew,,,,,,0,9,0,9,0,1,,,,,,,,,,,,,,,,,
293386,2022-10-05_13h04.44.475,vts_reward_expectancy,2022.2.4,MacIntel,59.99880002,Chrome,920,695,,,,,0,693,,,,,,,,,,,,,,,,,146,S,hexagon,1,0,,,,,,,,,,,,,,,,switch,number,numSwt,d,0.9148,noRew,,,,,,0,10,0,10,0,1,,,,,,,,,,,,,,,,,
293386,2022-10-05_13h04.44.475,vts_reward_expectancy,2022.2.4,MacIntel,59.99880002,Chrome,920,695,,,,,0,693,,,,,,,,,,,,,,,,,167,W,circle,1,0,,,,,,,,,,,,,,,,switch,letter,lettSwt,k,0.5211,noRew,,,,,,0,11,0,11,0,1,,,,,,,,,,,,,,,,,
293386,2022-10-05_13h04.44.475,vts_reward_expectancy,2022.2.4,MacIntel,59.99880002,Chrome,920,695,,,,,0,693,,,,,,,,,,,,,,,,,174,F,star,1,0,,,,,,,,,,,,,,,,switch,number,numSwt,f,0.5311,noRew,,,,,,0,12,0,12,0,1,,,,,,,,,,,,,,,,,
293386,2022-10-05_13h04.44.475,vts_reward_expectancy,2022.2.4,MacIntel,59.99880002,Chrome,920,695,,,,,0,693,,,,,,,,,,,,,,,,,125,H,triangle,1,0,,,,,,,,,,,,,,,,switch,letter,lettSwt,j,0.6692,noRew,,,,,,0,13,0,13,0,1,,,,,,,,,,,,,,,,,
293386,2022-10-05_13h04.44.475,vts_reward_expectancy,2022.2.4,MacIntel,59.99880002,Chrome,920,695,,,,,0,693,,,,,,,,,,,,,,,,,167,U,hexagon,1,0,,,,,,,,,,,,,,,,switch,number,numSwt,f,0.7296,noRew,,,,,,0,14,0,14,0,1,,,,,,,,,,,,,,,,,
293386,2022-10-05_13h04.44.475,vts_reward_expectancy,2022.2.4,MacIntel,59.99880002,Chrome,920,695,,,,,0,693,,,,,,,,,,,,,,,,,132,S,triangle,1,0,,,,,,,,,,,,,,,,switch,letter,lettSwt,k,0.6524,noRew,,,,,,0,15,0,15,0,1,,,,,,,,,,,,,,,,,
293386,2022-10-05_13h04.44.475,vts_reward_expectancy,2022.2.4,MacIntel,59.99880002,Chrome,920,695,,,,,0,693,,,,,,,,,,,,,,,,,125,U,circle,1,0,,,,,,,,,,,,,,,,switch,number,numSwt,d,0.5987,noRew,,,,,,0,16,0,16,0,1,,,,,,,,,,,,,,,,,
293386,2022-10-05_13h04.44.475,vts_reward_expectancy,2022.2.4,MacIntel,59.99880002,Chrome,920,695,,,,,0,693,,,,,,,,,,,,,,,,,146,B,hexagon,1,0,,,,,,,,,,,,,,,,switch,letter,lettSwt,j,0.4805,noRew,,,,,,0,17,0,17,0,1,,,,,,,,,,,,,,,,,
293386,2022-10-05_13h04.44.475,vts_reward_expectancy,2022.2.4,MacIntel,59.99880002,Chrome,920,695,,,,,0,693,,,,,,,,,,,,,,,,,174,H,star,1,0,,,,,,,,,,,,,,,,switch,number,numSwt,f,0.4959,noRew,,,,,,0,18,0,18,0,1,,,,,,,,,,,,,,,,,
293386,2022-10-05_13h04.44.475,vts_reward_expectancy,2022.2.4,MacIntel,59.99880002,Chrome,920,695,,,,,0,693,,,,,,,,,,,,,,,,,132,W,hexagon,1,0,,,,,,,,,,,,,,,,switch,letter,lettSwt,k,0.4971,noRew,,,,,,0,19,0,19,0,1,,,,,,,,,,,,,,,,,
293386,2022-10-05_13h04.44.475,vts_reward_expectancy,2022.2.4,MacIntel,59.99880002,Chrome,920,695,,,,,0,693,,,,,,,,,,,,,,,,,181,H,star,1,0,,,,,,,,,,,,,,,,switch,number,numSwt,f,0.6475,noRew,,,,,,0,20,0,20,0,1,,,,,,,,,,,,,,,,,
293386,2022-10-05_13h04.44.475,vts_reward_expectancy,2022.2.4,MacIntel,59.99880002,Chrome,920,695,,,,,0,693,,,,,,,,,,,,,,,,,160,D,hexagon,1,0,,,,,,,,,,,,,,,,switch,letter,lettSwt,j,2.9483,noRew,,,,,,0,21,0,21,0,1,,,,,,,,,,,,,,,,,
293386,2022-10-05_13h04.44.475,vts_reward_expectancy,2022.2.4,MacIntel,59.99880002,Chrome,920,695,,,,,0,693,,,,,,,,,,,,,,,,,146,B,hexagon,1,0,,,,,,,,,,,,,,,,switch,number,numSwt,d,0.8792,noRew,,,,,,0,22,0,22,0,1,,,,,,,,,,,,,,,,,
293386,2022-10-05_13h04.44.475,vts_reward_expectancy,2022.2.4,MacIntel,59.99880002,Chrome,920,695,,,,,0,693,,,,,,,,,,,,,,,,,139,F,circle,1,0,,,,,,,,,,,,,,,,switch,letter,lettSwt,j,0.7002,noRew,,,,,,0,23,0,23,0,1,,,,,,,,,,,,,,,,,
293386,2022-10-05_13h04.44.475,vts_reward_expectancy,2022.2.4,MacIntel,59.99880002,Chrome,920,695,,,,,0,693,,,,,,,,,,,,,,,,,146,B,star,1,0,,,,,,,,,,,,,,,,switch,number,numSwt,d,0.847,noRew,,,,,,0,24,0,24,0,1,,,,,,,,,,,,,,,,,
293386,2022-10-05_13h04.44.475,vts_reward_expectancy,2022.2.4,MacIntel,59.99880002,Chrome,920,695,,,,,0,693,,,,,,,,,,,,,,,,,139,Y,circle,1,0,,,,,,,,,,,,,,,,switch,letter,lettSwt,k,0.5983,noRew,,,,,,0,25,0,25,0,1,,,,,,,,,,,,,,,,,
293386,2022-10-05_13h04.44.475,vts_reward_expectancy,2022.2.4,MacIntel,59.99880002,Chrome,920,695,,,,,0,693,,,,,,,,,,,,,,,,,132,U,circle,1,0,,,,,,,,,,,,,,,,switch,number,numSwt,d,0.8173,noRew,,,,,,0,26,0,26,0,1,,,,,,,,,,,,,,,,,
293386,2022-10-05_13h04.44.475,vts_reward_expectancy,2022.2.4,MacIntel,59.99880002,Chrome,920,695,,,,,0,693,,,,,,,,,,,,,,,,,125,S,triangle,1,0,,,,,,,,,,,,,,,,switch,letter,lettSwt,k,0.7502,noRew,,,,,,0,27,0,27,0,1,,,,,,,,,,,,,,,,,
293386,2022-10-05_13h04.44.475,vts_reward_expectancy,2022.2.4,MacIntel,59.99880002,Chrome,920,695,,,,,0,693,,,,,,,,,,,,,,,,,181,W,circle,1,0,,,,,,,,,,,,,,,,repeat,letter,lettRpt,k,0.7305,noRew,,,,,,0,28,0,28,0,1,,,,,,,,,,,,,,,,,
293386,2022-10-05_13h04.44.475,vts_reward_expectancy,2022.2.4,MacIntel,59.99880002,Chrome,920,695,,,,,0,693,,,,,,,,,,,,,,,,,174,H,hexagon,1,0,,,,,,,,,,,,,,,,switch,number,numSwt,f,0.65,noRew,,,,,,0,29,0,29,0,1,,,,,,,,,,,,,,,,,
293386,2022-10-05_13h04.44.475,vts_reward_expectancy,2022.2.4,MacIntel,59.99880002,Chrome,920,695,,,,,0,693,,,,,,,,,,,,,,,,,146,S,circle,1,0,,,,,,,,,,,,,,,,repeat,number,numRpt,d,0.6002,noRew,,,,,,0,30,0,30,0,1,,,,,,,,,,,,,,,,,
293386,2022-10-05_13h04.44.475,vts_reward_expectancy,2022.2.4,MacIntel,59.99880002,Chrome,920,695,,,,,0,693,,,,,,,,,,,,,,,,,125,Y,star,1,0,,,,,,,,,,,,,,,,switch,letter,lettSwt,k,0.6043,noRew,,,,,,0,31,0,31,0,1,,,,,,,,,,,,,,,,,
293386,2022-10-05_13h04.44.475,vts_reward_expectancy,2022.2.4,MacIntel,59.99880002,Chrome,920,695,,,,,0,693,,,,,,,,,,,,,,,,,125,H,triangle,1,0,,,,,,,,,,,,,,,,switch,number,numSwt,d,0.9824,noRew,,,,,,0,32,0,32,0,1,,,,,,,,,,,,,,,,,
293386,2022-10-05_13h04.44.475,vts_reward_expectancy,2022.2.4,MacIntel,59.99880002,Chrome,920,695,,,,,0,693,,,,,,,,,,,,,,,,,132,F,star,1,0,,,,,,,,,,,,,,,,switch,letter,lettSwt,j,0.78,noRew,,,,,,0,33,0,33,0,1,,,,,,,,,,,,,,,,,
293386,2022-10-05_13h04.44.475,vts_reward_expectancy,2022.2.4,MacIntel,59.99880002,Chrome,920,695,,,,,0,693,,,,,,,,,,,,,,,,,174,B,triangle,1,0,,,,,,,,,,,,,,,,switch,number,numSwt,f,0.6634,noRew,,,,,,0,34,0,34,0,1,,,,,,,,,,,,,,,,,
293386,2022-10-05_13h04.44.475,vts_reward_expectancy,2022.2.4,MacIntel,59.99880002,Chrome,920,695,,,,,0,693,,,,,,,,,,,,,,,,,167,Y,hexagon,1,0,,,,,,,,,,,,,,,,switch,letter,lettSwt,k,0.603,noRew,,,,,,0,35,0,35,0,1,,,,,,,,,,,,,,,,,
293386,2022-10-05_13h04.44.475,vts_reward_expectancy,2022.2.4,MacIntel,59.99880002,Chrome,920,695,,,,,0,693,,,,,,,,,,,,,,,,,181,D,hexagon,1,0,,,,,,,,,,,,,,,,switch,number,numSwt,f,0.5873,noRew,,,,,,0,36,0,36,0,1,,,,,,,,,,,,,,,,,
293386,2022-10-05_13h04.44.475,vts_reward_expectancy,2022.2.4,MacIntel,59.99880002,Chrome,920,695,,,,,0,693,,,,,,,,,,,,,,,,,132,U,triangle,1,0,,,,,,,,,,,,,,,,switch,letter,lettSwt,k,0.704,noRew,,,,,,0,37,0,37,0,1,,,,,,,,,,,,,,,,,
293386,2022-10-05_13h04.44.475,vts_reward_expectancy,2022.2.4,MacIntel,59.99880002,Chrome,920,695,,,,,0,693,,,,,,,,,,,,,,,,,139,B,hexagon,1,0,,,,,,,,,,,,,,,,repeat,letter,lettRpt,j,0.7645,noRew,,,,,,0,38,0,38,0,1,,,,,,,,,,,,,,,,,
293386,2022-10-05_13h04.44.475,vts_reward_expectancy,2022.2.4,MacIntel,59.99880002,Chrome,920,695,,,,,0,693,,,,,,,,,,,,,,,,,160,S,circle,0,0,,,,,,,,,,,,,,,,switch,number,NA,d,0.6505,noRew,,,,,,0,39,0,39,0,1,,,,,,,,,,,,,,,,,
293386,2022-10-05_13h04.44.475,vts_reward_expectancy,2022.2.4,MacIntel,59.99880002,Chrome,920,695,,,,,0,693,,,,,,,,,,,,,,,,,139,H,triangle,1,1,,,,,,,,,,,,,,,,repeat,number,numRpt,d,0.5465,noRew,,,,,,0,40,0,40,0,1,,,,,,,,,,,,,,,,,
293386,2022-10-05_13h04.44.475,vts_reward_expectancy,2022.2.4,MacIntel,59.99880002,Chrome,920,695,,,,,0,693,,,,,,,,,,,,,,,,,146,F,star,1,0,,,,,,,,,,,,,,,,switch,letter,lettSwt,j,2.1877,noRew,,,,,,0,41,0,41,0,1,,,,,,,,,,,,,,,,,
293386,2022-10-05_13h04.44.475,vts_reward_expectancy,2022.2.4,MacIntel,59.99880002,Chrome,920,695,,,,,0,693,,,,,,,,,,,,,,,,,132,U,circle,1,0,,,,,,,,,,,,,,,,repeat,letter,lettRpt,k,0.8974,noRew,,,,,,0,42,0,42,0,1,,,,,,,,,,,,,,,,,
293386,2022-10-05_13h04.44.475,vts_reward_expectancy,2022.2.4,MacIntel,59.99880002,Chrome,920,695,,,,,0,693,,,,,,,,,,,,,,,,,125,W,triangle,1,0,,,,,,,,,,,,,,,,repeat,letter,lettRpt,k,0.5467,noRew,,,,,,0,43,0,43,0,1,,,,,,,,,,,,,,,,,
293386,2022-10-05_13h04.44.475,vts_reward_expectancy,2022.2.4,MacIntel,59.99880002,Chrome,920,695,,,,,0,693,,,,,,,,,,,,,,,,,181,F,hexagon,1,0,,,,,,,,,,,,,,,,repeat,letter,lettRpt,j,0.7965,noRew,,,,,,0,44,0,44,0,1,,,,,,,,,,,,,,,,,
293386,2022-10-05_13h04.44.475,vts_reward_expectancy,2022.2.4,MacIntel,59.99880002,Chrome,920,695,,,,,0,693,,,,,,,,,,,,,,,,,160,D,circle,1,0,,,,,,,,,,,,,,,,repeat,letter,lettRpt,j,0.6456,noRew,,,,,,0,45,0,45,0,1,,,,,,,,,,,,,,,,,
293386,2022-10-05_13h04.44.475,vts_reward_expectancy,2022.2.4,MacIntel,59.99880002,Chrome,920,695,,,,,0,693,,,,,,,,,,,,,,,,,167,W,hexagon,1,0,,,,,,,,,,,,,,,,repeat,letter,lettRpt,k,0.5311,noRew,,,,,,0,46,0,46,0,1,,,,,,,,,,,,,,,,,
293386,2022-10-05_13h04.44.475,vts_reward_expectancy,2022.2.4,MacIntel,59.99880002,Chrome,920,695,,,,,0,693,,,,,,,,,,,,,,,,,125,S,star,1,0,,,,,,,,,,,,,,,,repeat,letter,lettRpt,k,0.5644,noRew,,,,,,0,47,0,47,0,1,,,,,,,,,,,,,,,,,
293386,2022-10-05_13h04.44.475,vts_reward_expectancy,2022.2.4,MacIntel,59.99880002,Chrome,920,695,,,,,0,693,,,,,,,,,,,,,,,,,181,H,hexagon,1,0,,,,,,,,,,,,,,,,repeat,letter,lettRpt,j,0.786,noRew,,,,,,0,48,0,48,0,1,,,,,,,,,,,,,,,,,
293386,2022-10-05_13h04.44.475,vts_reward_expectancy,2022.2.4,MacIntel,59.99880002,Chrome,920,695,,,,,0,693,,,,,,,,,,,,,,,,,160,Y,circle,1,0,,,,,,,,,,,,,,,,repeat,letter,lettRpt,k,0.5654,noRew,,,,,,0,49,0,49,0,1,,,,,,,,,,,,,,,,,
293386,2022-10-05_13h04.44.475,vts_reward_expectancy,2022.2.4,MacIntel,59.99880002,Chrome,920,695,,,,,0,693,,,,,,,,,,,,,,,,,132,W,triangle,1,0,,,,,,,,,,,,,,,,repeat,letter,lettRpt,k,0.5513,noRew,,,,,,0,50,0,50,0,1,,,,,,,,,,,,,,,,,
293386,2022-10-05_13h04.44.475,vts_reward_expectancy,2022.2.4,MacIntel,59.99880002,Chrome,920,695,,,,,0,693,,,,,,,,,,,,,,,,,146,U,hexagon,1,0,,,,,,,,,,,,,,,,repeat,letter,lettRpt,k,0.4475,noRew,,,,,,0,51,0,51,0,1,,,,,,,,,,,,,,,,,
293386,2022-10-05_13h04.44.475,vts_reward_expectancy,2022.2.4,MacIntel,59.99880002,Chrome,920,695,,,,,0,693,,,,,,,,,,,,,,,,,167,F,hexagon,0,0,,,,,,,,,,,,,,,,repeat,letter,NA,k,0.5505,noRew,,,,,,0,52,0,52,0,1,,,,,,,,,,,,,,,,,
293386,2022-10-05_13h04.44.475,vts_reward_expectancy,2022.2.4,MacIntel,59.99880002,Chrome,920,695,,,,,0,693,,,,,,,,,,,,,,,,,174,U,star,1,1,,,,,,,,,,,,,,,,repeat,letter,lettRpt,k,0.5788,noRew,,,,,,0,53,0,53,0,1,,,,,,,,,,,,,,,,,
293386,2022-10-05_13h04.44.475,vts_reward_expectancy,2022.2.4,MacIntel,59.99880002,Chrome,920,695,,,,,0,693,,,,,,,,,,,,,,,,,125,W,circle,1,0,,,,,,,,,,,,,,,,repeat,letter,lettRpt,k,1.1131,noRew,,,,,,0,54,0,54,0,1,,,,,,,,,,,,,,,,,
293386,2022-10-05_13h04.44.475,vts_reward_expectancy,2022.2.4,MacIntel,59.99880002,Chrome,920,695,,,,,0,693,,,,,,,,,,,,,,,,,146,Y,star,1,0,,,,,,,,,,,,,,,,repeat,letter,lettRpt,k,0.5336,noRew,,,,,,0,55,0,55,0,1,,,,,,,,,,,,,,,,,
293386,2022-10-05_13h04.44.475,vts_reward_expectancy,2022.2.4,MacIntel,59.99880002,Chrome,920,695,,,,,0,693,,,,,,,,,,,,,,,,,160,H,hexagon,1,0,,,,,,,,,,,,,,,,repeat,letter,lettRpt,j,0.5953,noRew,,,,,,0,56,0,56,0,1,,,,,,,,,,,,,,,,,
293386,2022-10-05_13h04.44.475,vts_reward_expectancy,2022.2.4,MacIntel,59.99880002,Chrome,920,695,,,,,0,693,,,,,,,,,,,,,,,,,167,U,circle,1,0,,,,,,,,,,,,,,,,switch,number,numSwt,f,0.5002,noRew,,,,,,0,57,0,57,0,1,,,,,,,,,,,,,,,,,
293386,2022-10-05_13h04.44.475,vts_reward_expectancy,2022.2.4,MacIntel,59.99880002,Chrome,920,695,,,,,0,693,,,,,,,,,,,,,,,,,146,Y,star,0,0,,,,,,,,,,,,,,,,repeat,number,NA,f,0.6458,noRew,,,,,,0,58,0,58,0,1,,,,,,,,,,,,,,,,,
293386,2022-10-05_13h04.44.475,vts_reward_expectancy,2022.2.4,MacIntel,59.99880002,Chrome,920,695,,,,,0,693,,,,,,,,,,,,,,,,,181,F,circle,1,1,,,,,,,,,,,,,,,,repeat,number,numRpt,f,0.4033,noRew,,,,,,0,59,0,59,0,1,,,,,,,,,,,,,,,,,
293386,2022-10-05_13h04.44.475,vts_reward_expectancy,2022.2.4,MacIntel,59.99880002,Chrome,920,695,,,,,0,693,,,,,,,,,,,,,,,,,139,B,star,1,0,,,,,,,,,,,,,,,,repeat,number,numRpt,d,0.7183,noRew,,,,,,0,60,0,60,0,1,,,,,,,,,,,,,,,,,
293386,2022-10-05_13h04.44.475,vts_reward_expectancy,2022.2.4,MacIntel,59.99880002,Chrome,920,695,,,,,0,693,,,,,,,,,,,,,,,,,146,H,hexagon,1,0,,,,,,,,,,,,,,,,repeat,number,numRpt,d,0.5619,noRew,,,,,,0,61,0,61,0,1,,,,,,,,,,,,,,,,,
293386,2022-10-05_13h04.44.475,vts_reward_expectancy,2022.2.4,MacIntel,59.99880002,Chrome,920,695,,,,,0,693,,,,,,,,,,,,,,,,,125,Y,hexagon,1,0,,,,,,,,,,,,,,,,repeat,number,numRpt,d,0.5478,noRew,,,,,,0,62,0,62,0,1,,,,,,,,,,,,,,,,,
293386,2022-10-05_13h04.44.475,vts_reward_expectancy,2022.2.4,MacIntel,59.99880002,Chrome,920,695,,,,,0,693,,,,,,,,,,,,,,,,,181,S,star,1,0,,,,,,,,,,,,,,,,repeat,number,numRpt,f,0.6139,noRew,,,,,,0,63,0,63,0,1,,,,,,,,,,,,,,,,,
293386,2022-10-05_13h04.44.475,vts_reward_expectancy,2022.2.4,MacIntel,59.99880002,Chrome,920,695,,,,,,,,,,,,,,,,,,,,,,,,,,,,,,,,,,,,,,,,,,,,,,,,,,,,,,,,,,,,,,,,,,,,,,,,,,,,
293386,2022-10-05_13h04.44.475,vts_reward_expectancy,2022.2.4,MacIntel,59.99880002,Chrome,920,695,,,,,10,703,,,,,,,,,,,,,,,,,181,Y,hexagon,1,0,,,,,,,,,,,,,,,,repeat,number,numRpt,f,1.2833,Lo,,,,,,0,,,,,,space,16.2881,high,0,0,0,0,1,,,,,,,,,
293386,2022-10-05_13h04.44.475,vts_reward_expectancy,2022.2.4,MacIntel,59.99880002,Chrome,920,695,,,,,0,703,,,,,,,,,,,,,,,,,160,D,triangle,0,0,,,,,,,,,,,,,,,,repeat,number,NA,d,0.7136,Lo,,,,,,0,,,,,,,,high,1,0,1,0,1,,,,,,,,,
293386,2022-10-05_13h04.44.475,vts_reward_expectancy,2022.2.4,MacIntel,59.99880002,Chrome,920,695,,,,,1,704,,,,,,,,,,,,,,,,,132,S,hexagon,1,1,,,,,,,,,,,,,,,,switch,letter,lettSwt,k,0.5132,Lo,,,,,,0,,,,,,,,high,2,0,2,0,1,,,,,,,,,
293386,2022-10-05_13h04.44.475,vts_reward_expectancy,2022.2.4,MacIntel,59.99880002,Chrome,920,695,,,,,10,714,,,,,,,,,,,,,,,,,139,W,triangle,1,0,,,,,,,,,,,,,,,,repeat,letter,lettRpt,k,0.5356,Hi,,,,,,0,,,,,,,,high,3,0,3,0,1,,,,,,,,,
293386,2022-10-05_13h04.44.475,vts_reward_expectancy,2022.2.4,MacIntel,59.99880002,Chrome,920,695,,,,,0,714,,,,,,,,,,,,,,,,,167,U,triangle,1,0,,,,,,,,,,,,,,,,repeat,letter,lettRpt,k,0.6548,Hi,,,,,,0,,,,,,,,high,4,0,4,0,1,,,,,,,,,
293386,2022-10-05_13h04.44.475,vts_reward_expectancy,2022.2.4,MacIntel,59.99880002,Chrome,920,695,,,,,1,715,,,,,,,,,,,,,,,,,174,F,hexagon,1,0,,,,,,,,,,,,,,,,repeat,letter,lettRpt,j,0.5132,Lo,,,,,,0,,,,,,,,high,5,0,5,0,1,,,,,,,,,
293386,2022-10-05_13h04.44.475,vts_reward_expectancy,2022.2.4,MacIntel,59.99880002,Chrome,920,695,,,,,0,715,,,,,,,,,,,,,,,,,146,B,hexagon,0,0,,,,,,,,,,,,,,,,repeat,letter,NA,k,0.347,Lo,,,,,,0,,,,,,,,high,6,0,6,0,1,,,,,,,,,
293386,2022-10-05_13h04.44.475,vts_reward_expectancy,2022.2.4,MacIntel,59.99880002,Chrome,920,695,,,,,0,715,,,,,,,,,,,,,,,,,125,H,triangle,0,1,,,,,,,,,,,,,,,,repeat,letter,NA,k,0.5131,Lo,,,,,,0,,,,,,,,high,7,0,7,0,1,,,,,,,,,
293386,2022-10-05_13h04.44.475,vts_reward_expectancy,2022.2.4,MacIntel,59.99880002,Chrome,920,695,,,,,10,725,,,,,,,,,,,,,,,,,181,Y,triangle,1,1,,,,,,,,,,,,,,,,repeat,letter,lettRpt,k,0.4675,Hi,,,,,,0,,,,,,,,high,8,0,8,0,1,,,,,,,,,
293386,2022-10-05_13h04.44.475,vts_reward_expectancy,2022.2.4,MacIntel,59.99880002,Chrome,920,695,,,,,1,726,,,,,,,,,,,,,,,,,160,D,hexagon,1,0,,,,,,,,,,,,,,,,repeat,letter,lettRpt,j,0.5774,Lo,,,,,,0,,,,,,,,high,9,0,9,0,1,,,,,,,,,
293386,2022-10-05_13h04.44.475,vts_reward_expectancy,2022.2.4,MacIntel,59.99880002,Chrome,920,695,,,,,1,727,,,,,,,,,,,,,,,,,132,S,hexagon,1,0,,,,,,,,,,,,,,,,repeat,letter,lettRpt,k,0.4684,Lo,,,,,,0,,,,,,,,high,10,0,10,0,1,,,,,,,,,
293386,2022-10-05_13h04.44.475,vts_reward_expectancy,2022.2.4,MacIntel,59.99880002,Chrome,920,695,,,,,10,737,,,,,,,,,,,,,,,,,139,W,triangle,1,0,,,,,,,,,,,,,,,,repeat,letter,lettRpt,k,0.4635,Hi,,,,,,0,,,,,,,,high,11,0,11,0,1,,,,,,,,,
293386,2022-10-05_13h04.44.475,vts_reward_expectancy,2022.2.4,MacIntel,59.99880002,Chrome,920,695,,,,,10,747,,,,,,,,,,,,,,,,,167,U,hexagon,1,0,,,,,,,,,,,,,,,,repeat,letter,lettRpt,k,0.5134,Lo,,,,,,0,,,,,,,,high,12,0,12,0,1,,,,,,,,,
293386,2022-10-05_13h04.44.475,vts_reward_expectancy,2022.2.4,MacIntel,59.99880002,Chrome,920,695,,,,,0,747,,,,,,,,,,,,,,,,,174,F,triangle,0,0,,,,,,,,,,,,,,,,repeat,letter,NA,k,0.3964,Lo,,,,,,0,,,,,,,,high,13,0,13,0,1,,,,,,,,,
293386,2022-10-05_13h04.44.475,vts_reward_expectancy,2022.2.4,MacIntel,59.99880002,Chrome,920,695,,,,,1,748,,,,,,,,,,,,,,,,,146,B,hexagon,1,1,,,,,,,,,,,,,,,,switch,number,numSwt,d,0.5361,Lo,,,,,,0,,,,,,,,high,14,0,14,0,1,,,,,,,,,
293386,2022-10-05_13h04.44.475,vts_reward_expectancy,2022.2.4,MacIntel,59.99880002,Chrome,920,695,,,,,10,758,,,,,,,,,,,,,,,,,125,H,triangle,1,0,,,,,,,,,,,,,,,,repeat,number,numRpt,d,0.4178,Hi,,,,,,0,,,,,,,,high,15,0,15,0,1,,,,,,,,,
293386,2022-10-05_13h04.44.475,vts_reward_expectancy,2022.2.4,MacIntel,59.99880002,Chrome,920,695,,,,,1,759,,,,,,,,,,,,,,,,,146,Y,hexagon,1,0,,,,,,,,,,,,,,,,repeat,number,numRpt,d,0.4806,Lo,,,,,,0,,,,,,,,high,16,0,16,0,1,,,,,,,,,
293386,2022-10-05_13h04.44.475,vts_reward_expectancy,2022.2.4,MacIntel,59.99880002,Chrome,920,695,,,,,10,769,,,,,,,,,,,,,,,,,132,W,triangle,1,0,,,,,,,,,,,,,,,,repeat,number,numRpt,d,0.4956,Hi,,,,,,0,,,,,,,,high,17,0,17,0,1,,,,,,,,,
293386,2022-10-05_13h04.44.475,vts_reward_expectancy,2022.2.4,MacIntel,59.99880002,Chrome,920,695,,,,,10,779,,,,,,,,,,,,,,,,,174,B,triangle,1,0,,,,,,,,,,,,,,,,repeat,number,numRpt,f,0.5312,Hi,,,,,,0,,,,,,,,high,18,0,18,0,1,,,,,,,,,
293386,2022-10-05_13h04.44.475,vts_reward_expectancy,2022.2.4,MacIntel,59.99880002,Chrome,920,695,,,,,1,780,,,,,,,,,,,,,,,,,139,F,hexagon,1,0,,,,,,,,,,,,,,,,repeat,number,numRpt,d,0.501,Lo,,,,,,0,,,,,,,,high,19,0,19,0,1,,,,,,,,,
293386,2022-10-05_13h04.44.475,vts_reward_expectancy,2022.2.4,MacIntel,59.99880002,Chrome,920,695,,,,,10,790,,,,,,,,,,,,,,,,,167,U,triangle,1,0,,,,,,,,,,,,,,,,repeat,number,numRpt,f,0.4964,Hi,,,,,,0,,,,,,,,high,20,0,20,0,1,,,,,,,,,
293386,2022-10-05_13h04.44.475,vts_reward_expectancy,2022.2.4,MacIntel,59.99880002,Chrome,920,695,,,,,1,791,,,,,,,,,,,,,,,,,125,S,hexagon,1,0,,,,,,,,,,,,,,,,repeat,number,numRpt,d,0.6829,Lo,,,,,,0,,,,,,,,high,21,0,21,0,1,,,,,,,,,
293386,2022-10-05_13h04.44.475,vts_reward_expectancy,2022.2.4,MacIntel,59.99880002,Chrome,920,695,,,,,0,791,,,,,,,,,,,,,,,,,181,H,triangle,1,0,,,,,,,,,,,,,,,,repeat,number,numRpt,f,0.5623,Hi,,,,,,0,,,,,,,,high,22,0,22,0,1,,,,,,,,,
293386,2022-10-05_13h04.44.475,vts_reward_expectancy,2022.2.4,MacIntel,59.99880002,Chrome,920,695,,,,,1,792,,,,,,,,,,,,,,,,,160,D,hexagon,1,0,,,,,,,,,,,,,,,,repeat,number,numRpt,f,0.5349,Lo,,,,,,0,,,,,,,,high,23,0,23,0,1,,,,,,,,,
293386,2022-10-05_13h04.44.475,vts_reward_expectancy,2022.2.4,MacIntel,59.99880002,Chrome,920,695,,,,,0,792,,,,,,,,,,,,,,,,,146,D,hexagon,0,0,,,,,,,,,,,,,,,,repeat,number,NA,f,0.5047,Lo,,,,,,0,,,,,,,,high,24,0,24,0,1,,,,,,,,,
293386,2022-10-05_13h04.44.475,vts_reward_expectancy,2022.2.4,MacIntel,59.99880002,Chrome,920,695,,,,,1,793,,,,,,,,,,,,,,,,,125,H,triangle,1,1,,,,,,,,,,,,,,,,repeat,number,numRpt,d,0.4809,Hi,,,,,,0,,,,,,,,high,25,0,25,0,1,,,,,,,,,
293386,2022-10-05_13h04.44.475,vts_reward_expectancy,2022.2.4,MacIntel,59.99880002,Chrome,920,695,,,,,1,794,,,,,,,,,,,,,,,,,181,S,hexagon,1,0,,,,,,,,,,,,,,,,repeat,number,numRpt,f,0.4637,Lo,,,,,,0,,,,,,,,high,26,0,26,0,1,,,,,,,,,
293386,2022-10-05_13h04.44.475,vts_reward_expectancy,2022.2.4,MacIntel,59.99880002,Chrome,920,695,,,,,10,804,,,,,,,,,,,,,,,,,132,Y,triangle,1,0,,,,,,,,,,,,,,,,repeat,number,numRpt,d,0.4389,Hi,,,,,,0,,,,,,,,high,27,0,27,0,1,,,,,,,,,
293386,2022-10-05_13h04.44.475,vts_reward_expectancy,2022.2.4,MacIntel,59.99880002,Chrome,920,695,,,,,1,805,,,,,,,,,,,,,,,,,174,B,hexagon,1,0,,,,,,,,,,,,,,,,repeat,number,numRpt,f,0.564,Lo,,,,,,0,,,,,,,,high,28,0,28,0,1,,,,,,,,,
293386,2022-10-05_13h04.44.475,vts_reward_expectancy,2022.2.4,MacIntel,59.99880002,Chrome,920,695,,,,,0,805,,,,,,,,,,,,,,,,,160,W,triangle,0,0,,,,,,,,,,,,,,,,repeat,number,NA,d,0.3735,Lo,,,,,,0,,,,,,,,high,29,0,29,0,1,,,,,,,,,
293386,2022-10-05_13h04.44.475,vts_reward_expectancy,2022.2.4,MacIntel,59.99880002,Chrome,920,695,,,,,10,815,,,,,,,,,,,,,,,,,167,F,hexagon,1,1,,,,,,,,,,,,,,,,repeat,number,numRpt,f,0.4299,Lo,,,,,,0,,,,,,,,high,30,0,30,0,1,,,,,,,,,
293386,2022-10-05_13h04.44.475,vts_reward_expectancy,2022.2.4,MacIntel,59.99880002,Chrome,920,695,,,,,0,815,,,,,,,,,,,,,,,,,139,U,triangle,1,0,,,,,,,,,,,,,,,,repeat,number,numRpt,d,0.5632,Hi,,,,,,0,,,,,,,,high,31,0,31,0,1,,,,,,,,,
293386,2022-10-05_13h04.44.475,vts_reward_expectancy,2022.2.4,MacIntel,59.99880002,Chrome,920,695,,,,,0,815,,,,,,,,,,,,,,,,,167,B,star,1,0,,,,,,,,,,,,,,,,repeat,number,numRpt,f,1.4003,Hi,,,,,,1,,,,,,space,0.9242,low,0,0,0,0,1,,,,,,,,,
293386,2022-10-05_13h04.44.475,vts_reward_expectancy,2022.2.4,MacIntel,59.99880002,Chrome,920,695,,,,,1,816,,,,,,,,,,,,,,,,,181,H,circle,1,0,,,,,,,,,,,,,,,,repeat,number,numRpt,f,0.5971,Lo,,,,,,1,,,,,,,,low,1,0,1,0,1,,,,,,,,,
293386,2022-10-05_13h04.44.475,vts_reward_expectancy,2022.2.4,MacIntel,59.99880002,Chrome,920,695,,,,,0,816,,,,,,,,,,,,,,,,,139,W,star,0,0,,,,,,,,,,,,,,,,repeat,number,NA,f,0.5131,Lo,,,,,,1,,,,,,,,low,2,0,2,0,1,,,,,,,,,
293386,2022-10-05_13h04.44.475,vts_reward_expectancy,2022.2.4,MacIntel,59.99880002,Chrome,920,695,,,,,0,816,,,,,,,,,,,,,,,,,125,Y,circle,0,1,,,,,,,,,,,,,,,,repeat,number,NA,f,0.3471,Lo,,,,,,1,,,,,,,,low,3,0,3,0,1,,,,,,,,,
293386,2022-10-05_13h04.44.475,vts_reward_expectancy,2022.2.4,MacIntel,59.99880002,Chrome,920,695,,,,,0,816,,,,,,,,,,,,,,,,,132,U,star,1,1,,,,,,,,,,,,,,,,repeat,number,numRpt,d,0.5132,Hi,,,,,,1,,,,,,,,low,4,0,4,0,1,,,,,,,,,
293386,2022-10-05_13h04.44.475,vts_reward_expectancy,2022.2.4,MacIntel,59.99880002,Chrome,920,695,,,,,1,817,,,,,,,,,,,,,,,,,160,S,circle,1,0,,,,,,,,,,,,,,,,repeat,number,numRpt,f,0.5798,Lo,,,,,,1,,,,,,,,low,5,0,5,0,1,,,,,,,,,
293386,2022-10-05_13h04.44.475,vts_reward_expectancy,2022.2.4,MacIntel,59.99880002,Chrome,920,695,,,,,0,817,,,,,,,,,,,,,,,,,174,F,star,1,0,,,,,,,,,,,,,,,,repeat,number,numRpt,f,0.5461,Hi,,,,,,1,,,,,,,,low,6,0,6,0,1,,,,,,,,,
293386,2022-10-05_13h04.44.475,vts_reward_expectancy,2022.2.4,MacIntel,59.99880002,Chrome,920,695,,,,,1,818,,,,,,,,,,,,,,,,,146,D,circle,1,0,,,,,,,,,,,,,,,,repeat,number,numRpt,d,0.5627,Lo,,,,,,1,,,,,,,,low,7,0,7,0,1,,,,,,,,,
293386,2022-10-05_13h04.44.475,vts_reward_expectancy,2022.2.4,MacIntel,59.99880002,Chrome,920,695,,,,,1,819,,,,,,,,,,,,,,,,,167,B,circle,1,0,,,,,,,,,,,,,,,,repeat,number,numRpt,f,0.947,Lo,,,,,,1,,,,,,,,low,8,0,8,0,1,,,,,,,,,
293386,2022-10-05_13h04.44.475,vts_reward_expectancy,2022.2.4,MacIntel,59.99880002,Chrome,920,695,,,,,0,819,,,,,,,,,,,,,,,,,181,H,star,1,0,,,,,,,,,,,,,,,,repeat,number,numRpt,f,0.5872,Hi,,,,,,1,,,,,,,,low,9,0,9,0,1,,,,,,,,,
293386,2022-10-05_13h04.44.475,vts_reward_expectancy,2022.2.4,MacIntel,59.99880002,Chrome,920,695,,,,,0,819,,,,,,,,,,,,,,,,,139,W,star,1,0,,,,,,,,,,,,,,,,repeat,number,numRpt,d,0.9668,Hi,,,,,,1,,,,,,,,low,10,0,10,0,1,,,,,,,,,
293386,2022-10-05_13h04.44.475,vts_reward_expectancy,2022.2.4,MacIntel,59.99880002,Chrome,920,695,,,,,1,820,,,,,,,,,,,,,,,,,125,Y,circle,1,0,,,,,,,,,,,,,,,,repeat,number,numRpt,d,0.4978,Lo,,,,,,1,,,,,,,,low,11,0,11,0,1,,,,,,,,,
293386,2022-10-05_13h04.44.475,vts_reward_expectancy,2022.2.4,MacIntel,59.99880002,Chrome,920,695,,,,,0,820,,,,,,,,,,,,,,,,,132,U,star,0,0,,,,,,,,,,,,,,,,repeat,number,NA,f,0.4296,Lo,,,,,,1,,,,,,,,low,12,0,12,0,1,,,,,,,,,
293386,2022-10-05_13h04.44.475,vts_reward_expectancy,2022.2.4,MacIntel,59.99880002,Chrome,920,695,,,,,0,820,,,,,,,,,,,,,,,,,160,S,circle,0,1,,,,,,,,,,,,,,,,repeat,number,NA,d,0.3532,Lo,,,,,,1,,,,,,,,low,13,0,13,0,1,,,,,,,,,
293386,2022-10-05_13h04.44.475,vts_reward_expectancy,2022.2.4,MacIntel,59.99880002,Chrome,920,695,,,,,0,820,,,,,,,,,,,,,,,,,174,F,star,1,1,,,,,,,,,,,,,,,,repeat,number,numRpt,f,0.5372,Hi,,,,,,1,,,,,,,,low,14,0,14,0,1,,,,,,,,,
293386,2022-10-05_13h04.44.475,vts_reward_expectancy,2022.2.4,MacIntel,59.99880002,Chrome,920,695,,,,,1,821,,,,,,,,,,,,,,,,,146,D,circle,1,0,,,,,,,,,,,,,,,,repeat,number,numRpt,d,0.4122,Lo,,,,,,1,,,,,,,,low,15,0,15,0,1,,,,,,,,,
293386,2022-10-05_13h04.44.475,vts_reward_expectancy,2022.2.4,MacIntel,59.99880002,Chrome,920,695,,,,,0,821,,,,,,,,,,,,,,,,,125,U,star,1,0,,,,,,,,,,,,,,,,repeat,number,numRpt,d,0.5131,Hi,,,,,,1,,,,,,,,low,16,0,16,0,1,,,,,,,,,
293386,2022-10-05_13h04.44.475,vts_reward_expectancy,2022.2.4,MacIntel,59.99880002,Chrome,920,695,,,,,1,822,,,,,,,,,,,,,,,,,132,F,circle,1,0,,,,,,,,,,,,,,,,repeat,number,numRpt,d,0.5466,Lo,,,,,,1,,,,,,,,low,17,0,17,0,1,,,,,,,,,
293386,2022-10-05_13h04.44.475,vts_reward_expectancy,2022.2.4,MacIntel,59.99880002,Chrome,920,695,,,,,1,823,,,,,,,,,,,,,,,,,181,Y,circle,1,0,,,,,,,,,,,,,,,,repeat,number,numRpt,f,0.3807,Lo,,,,,,1,,,,,,,,low,18,0,18,0,1,,,,,,,,,
293386,2022-10-05_13h04.44.475,vts_reward_expectancy,2022.2.4,MacIntel,59.99880002,Chrome,920,695,,,,,0,823,,,,,,,,,,,,,,,,,146,S,star,1,0,,,,,,,,,,,,,,,,repeat,number,numRpt,d,0.5457,Hi,,,,,,1,,,,,,,,low,19,0,19,0,1,,,,,,,,,
293386,2022-10-05_13h04.44.475,vts_reward_expectancy,2022.2.4,MacIntel,59.99880002,Chrome,920,695,,,,,0,823,,,,,,,,,,,,,,,,,160,H,circle,0,0,,,,,,,,,,,,,,,,repeat,number,NA,d,0.6125,Hi,,,,,,1,,,,,,,,low,20,0,20,0,1,,,,,,,,,
293386,2022-10-05_13h04.44.475,vts_reward_expectancy,2022.2.4,MacIntel,59.99880002,Chrome,920,695,,,,,0,823,,,,,,,,,,,,,,,,,139,D,star,0,1,,,,,,,,,,,,,,,,repeat,number,NA,f,0.7131,Hi,,,,,,1,,,,,,,,low,21,0,21,0,1,,,,,,,,,
293386,2022-10-05_13h04.44.475,vts_reward_expectancy,2022.2.4,MacIntel,59.99880002,Chrome,920,695,,,,,10,833,,,,,,,,,,,,,,,,,167,B,circle,1,1,,,,,,,,,,,,,,,,repeat,number,numRpt,f,0.5335,Lo,,,,,,1,,,,,,,,low,22,0,22,0,1,,,,,,,,,
293386,2022-10-05_13h04.44.475,vts_reward_expectancy,2022.2.4,MacIntel,59.99880002,Chrome,920,695,,,,,10,843,,,,,,,,,,,,,,,,,174,W,star,1,0,,,,,,,,,,,,,,,,repeat,number,numRpt,f,0.4635,Hi,,,,,,1,,,,,,,,low,23,0,23,0,1,,,,,,,,,
293386,2022-10-05_13h04.44.475,vts_reward_expectancy,2022.2.4,MacIntel,59.99880002,Chrome,920,695,,,,,0,843,,,,,,,,,,,,,,,,,181,D,star,1,0,,,,,,,,,,,,,,,,repeat,number,numRpt,f,0.6027,Hi,,,,,,1,,,,,,,,low,24,0,24,0,1,,,,,,,,,
293386,2022-10-05_13h04.44.475,vts_reward_expectancy,2022.2.4,MacIntel,59.99880002,Chrome,920,695,,,,,0,843,,,,,,,,,,,,,,,,,132,U,circle,0,0,,,,,,,,,,,,,,,,repeat,number,NA,f,0.7133,Hi,,,,,,1,,,,,,,,low,25,0,25,0,1,,,,,,,,,
293386,2022-10-05_13h04.44.475,vts_reward_expectancy,2022.2.4,MacIntel,59.99880002,Chrome,920,695,,,,,0,843,,,,,,,,,,,,,,,,,160,F,star,1,1,,,,,,,,,,,,,,,,repeat,number,numRpt,f,0.5303,Hi,,,,,,1,,,,,,,,low,26,0,26,0,1,,,,,,,,,
293386,2022-10-05_13h04.44.475,vts_reward_expectancy,2022.2.4,MacIntel,59.99880002,Chrome,920,695,,,,,0,843,,,,,,,,,,,,,,,,,174,S,circle,0,0,,,,,,,,,,,,,,,,repeat,number,NA,d,0.5106,Hi,,,,,,1,,,,,,,,low,27,0,27,0,1,,,,,,,,,
293386,2022-10-05_13h04.44.475,vts_reward_expectancy,2022.2.4,MacIntel,59.99880002,Chrome,920,695,,,,,0,843,,,,,,,,,,,,,,,,,139,H,star,0,1,,,,,,,,,,,,,,,,repeat,number,NA,f,0.5814,Hi,,,,,,1,,,,,,,,low,28,0,28,0,1,,,,,,,,,
293386,2022-10-05_13h04.44.475,vts_reward_expectancy,2022.2.4,MacIntel,59.99880002,Chrome,920,695,,,,,10,853,,,,,,,,,,,,,,,,,146,W,circle,1,1,,,,,,,,,,,,,,,,repeat,number,numRpt,d,0.9518,Lo,,,,,,1,,,,,,,,low,29,0,29,0,1,,,,,,,,,
293386,2022-10-05_13h04.44.475,vts_reward_expectancy,2022.2.4,MacIntel,59.99880002,Chrome,920,695,,,,,0,853,,,,,,,,,,,,,,,,,125,Y,star,1,0,,,,,,,,,,,,,,,,repeat,number,numRpt,d,0.5208,Hi,,,,,,1,,,,,,,,low,30,0,30,0,1,,,,,,,,,
293386,2022-10-05_13h04.44.475,vts_reward_expectancy,2022.2.4,MacIntel,59.99880002,Chrome,920,695,,,,,1,854,,,,,,,,,,,,,,,,,167,B,circle,1,0,,,,,,,,,,,,,,,,repeat,number,numRpt,f,0.703,Lo,,,,,,1,,,,,,,,low,31,0,31,0,1,,,,,,,,,
293386,2022-10-05_13h04.44.475,vts_reward_expectancy,2022.2.4,MacIntel,59.99880002,Chrome,920,695,,,,,10,864,,,,,,,,,,,,,,,,,132,B,triangle,1,0,,,,,,,,,,,,,,,,switch,letter,lettSwt,j,0.5977,Hi,,,,,,2,,,,,,space,0.5187,high,0,0,0,0,1,,,,,,,,,
293386,2022-10-05_13h04.44.475,vts_reward_expectancy,2022.2.4,MacIntel,59.99880002,Chrome,920,695,,,,,1,865,,,,,,,,,,,,,,,,,125,S,hexagon,1,0,,,,,,,,,,,,,,,,repeat,letter,lettRpt,k,0.3146,Lo,,,,,,2,,,,,,,,high,1,0,1,0,1,,,,,,,,,
293386,2022-10-05_13h04.44.475,vts_reward_expectancy,2022.2.4,MacIntel,59.99880002,Chrome,920,695,,,,,0,865,,,,,,,,,,,,,,,,,181,U,triangle,0,0,,,,,,,,,,,,,,,,repeat,letter,NA,j,0.3969,Lo,,,,,,2,,,,,,,,high,2,0,2,0,1,,,,,,,,,
293386,2022-10-05_13h04.44.475,vts_reward_expectancy,2022.2.4,MacIntel,59.99880002,Chrome,920,695,,,,,0,865,,,,,,,,,,,,,,,,,139,D,hexagon,0,1,,,,,,,,,,,,,,,,repeat,letter,NA,k,0.4141,Lo,,,,,,2,,,,,,,,high,3,0,3,0,1,,,,,,,,,
293386,2022-10-05_13h04.44.475,vts_reward_expectancy,2022.2.4,MacIntel,59.99880002,Chrome,920,695,,,,,1,866,,,,,,,,,,,,,,,,,167,Y,hexagon,1,1,,,,,,,,,,,,,,,,repeat,letter,lettRpt,k,0.2715,Lo,,,,,,2,,,,,,,,high,4,0,4,0,1,,,,,,,,,
293386,2022-10-05_13h04.44.475,vts_reward_expectancy,2022.2.4,MacIntel,59.99880002,Chrome,920,695,,,,,0,866,,,,,,,,,,,,,,,,,146,W,triangle,0,0,,,,,,,,,,,,,,,,repeat,letter,NA,j,0.3014,Lo,,,,,,2,,,,,,,,high,5,0,5,0,1,,,,,,,,,
293386,2022-10-05_13h04.44.475,vts_reward_expectancy,2022.2.4,MacIntel,59.99880002,Chrome,920,695,,,,,0,866,,,,,,,,,,,,,,,,,160,F,hexagon,0,1,,,,,,,,,,,,,,,,repeat,letter,NA,k,0.3294,Lo,,,,,,2,,,,,,,,high,6,0,6,0,1,,,,,,,,,
293386,2022-10-05_13h04.44.475,vts_reward_expectancy,2022.2.4,MacIntel,59.99880002,Chrome,920,695,,,,,0,866,,,,,,,,,,,,,,,,,174,H,triangle,0,1,,,,,,,,,,,,,,,,repeat,letter,NA,k,0.3309,Lo,,,,,,2,,,,,,,,high,7,0,7,0,1,,,,,,,,,
293386,2022-10-05_13h04.44.475,vts_reward_expectancy,2022.2.4,MacIntel,59.99880002,Chrome,920,695,,,,,10,876,,,,,,,,,,,,,,,,,132,B,triangle,1,1,,,,,,,,,,,,,,,,repeat,letter,lettRpt,j,0.2957,Hi,,,,,,2,,,,,,,,high,8,0,8,0,1,,,,,,,,,
293386,2022-10-05_13h04.44.475,vts_reward_expectancy,2022.2.4,MacIntel,59.99880002,Chrome,920,695,,,,,0,876,,,,,,,,,,,,,,,,,125,S,hexagon,0,0,,,,,,,,,,,,,,,,repeat,letter,NA,j,0.382,Hi,,,,,,2,,,,,,,,high,9,0,9,0,1,,,,,,,,,
293386,2022-10-05_13h04.44.475,vts_reward_expectancy,2022.2.4,MacIntel,59.99880002,Chrome,920,695,,,,,10,886,,,,,,,,,,,,,,,,,181,U,triangle,1,1,,,,,,,,,,,,,,,,repeat,letter,lettRpt,k,0.2803,Hi,,,,,,2,,,,,,,,high,10,0,10,0,1,,,,,,,,,
293386,2022-10-05_13h04.44.475,vts_reward_expectancy,2022.2.4,MacIntel,59.99880002,Chrome,920,695,,,,,0,886,,,,,,,,,,,,,,,,,139,D,hexagon,0,0,,,,,,,,,,,,,,,,repeat,letter,NA,k,0.2985,Hi,,,,,,2,,,,,,,,high,11,0,11,0,1,,,,,,,,,
293386,2022-10-05_13h04.44.475,vts_reward_expectancy,2022.2.4,MacIntel,59.99880002,Chrome,920,695,,,,,10,896,,,,,,,,,,,,,,,,,167,Y,triangle,1,1,,,,,,,,,,,,,,,,repeat,letter,lettRpt,k,0.2523,Hi,,,,,,2,,,,,,,,high,12,0,12,0,1,,,,,,,,,
293386,2022-10-05_13h04.44.475,vts_reward_expectancy,2022.2.4,MacIntel,59.99880002,Chrome,920,695,,,,,1,897,,,,,,,,,,,,,,,,,146,W,hexagon,1,0,,,,,,,,,,,,,,,,repeat,letter,lettRpt,k,0.2684,Lo,,,,,,2,,,,,,,,high,13,0,13,0,1,,,,,,,,,
293386,2022-10-05_13h04.44.475,vts_reward_expectancy,2022.2.4,MacIntel,59.99880002,Chrome,920,695,,,,,0,897,,,,,,,,,,,,,,,,,160,F,triangle,0,0,,,,,,,,,,,,,,,,repeat,letter,NA,k,0.2311,Lo,,,,,,2,,,,,,,,high,14,0,14,0,1,,,,,,,,,
293386,2022-10-05_13h04.44.475,vts_reward_expectancy,2022.2.4,MacIntel,59.99880002,Chrome,920,695,,,,,1,898,,,,,,,,,,,,,,,,,174,H,hexagon,1,1,,,,,,,,,,,,,,,,switch,number,numSwt,f,0.2665,Lo,,,,,,2,,,,,,,,high,15,0,15,0,1,,,,,,,,,
293386,2022-10-05_13h04.44.475,vts_reward_expectancy,2022.2.4,MacIntel,59.99880002,Chrome,920,695,,,,,1,899,,,,,,,,,,,,,,,,,139,Y,hexagon,1,0,,,,,,,,,,,,,,,,repeat,number,numRpt,d,0.4894,Lo,,,,,,2,,,,,,,,high,16,0,16,0,1,,,,,,,,,
293386,2022-10-05_13h04.44.475,vts_reward_expectancy,2022.2.4,MacIntel,59.99880002,Chrome,920,695,,,,,0,899,,,,,,,,,,,,,,,,,181,D,triangle,0,0,,,,,,,,,,,,,,,,repeat,number,NA,d,0.2811,Lo,,,,,,2,,,,,,,,high,17,0,17,0,1,,,,,,,,,
293386,2022-10-05_13h04.44.475,vts_reward_expectancy,2022.2.4,MacIntel,59.99880002,Chrome,920,695,,,,,0,899,,,,,,,,,,,,,,,,,125,U,hexagon,0,1,,,,,,,,,,,,,,,,repeat,number,NA,f,0.3131,Lo,,,,,,2,,,,,,,,high,18,0,18,0,1,,,,,,,,,
293386,2022-10-05_13h04.44.475,vts_reward_expectancy,2022.2.4,MacIntel,59.99880002,Chrome,920,695,,,,,10,909,,,,,,,,,,,,,,,,,174,H,triangle,1,1,,,,,,,,,,,,,,,,switch,letter,lettSwt,j,0.3147,Hi,,,,,,2,,,,,,,,high,19,0,19,0,1,,,,,,,,,
293386,2022-10-05_13h04.44.475,vts_reward_expectancy,2022.2.4,MacIntel,59.99880002,Chrome,920,695,,,,,0,909,,,,,,,,,,,,,,,,,167,S,hexagon,0,0,,,,,,,,,,,,,,,,repeat,letter,NA,j,0.4295,Hi,,,,,,2,,,,,,,,high,20,0,20,0,1,,,,,,,,,
293386,2022-10-05_13h04.44.475,vts_reward_expectancy,2022.2.4,MacIntel,59.99880002,Chrome,920,695,,,,,0,909,,,,,,,,,,,,,,,,,132,B,triangle,0,1,,,,,,,,,,,,,,,,repeat,letter,NA,k,0.4282,Hi,,,,,,2,,,,,,,,high,21,0,21,0,1,,,,,,,,,
293386,2022-10-05_13h04.44.475,vts_reward_expectancy,2022.2.4,MacIntel,59.99880002,Chrome,920,695,,,,,1,910,,,,,,,,,,,,,,,,,146,W,hexagon,1,1,,,,,,,,,,,,,,,,repeat,letter,lettRpt,k,0.4145,Lo,,,,,,2,,,,,,,,high,22,0,22,0,1,,,,,,,,,
293386,2022-10-05_13h04.44.475,vts_reward_expectancy,2022.2.4,MacIntel,59.99880002,Chrome,920,695,,,,,10,920,,,,,,,,,,,,,,,,,160,F,triangle,1,0,,,,,,,,,,,,,,,,repeat,letter,lettRpt,j,0.3501,Hi,,,,,,2,,,,,,,,high,23,0,23,0,1,,,,,,,,,
293386,2022-10-05_13h04.44.475,vts_reward_expectancy,2022.2.4,MacIntel,59.99880002,Chrome,920,695,,,,,0,920,,,,,,,,,,,,,,,,,167,U,triangle,0,0,,,,,,,,,,,,,,,,repeat,letter,NA,j,0.4146,Hi,,,,,,2,,,,,,,,high,24,0,24,0,1,,,,,,,,,
293386,2022-10-05_13h04.44.475,vts_reward_expectancy,2022.2.4,MacIntel,59.99880002,Chrome,920,695,,,,,0,920,,,,,,,,,,,,,,,,,174,F,hexagon,0,1,,,,,,,,,,,,,,,,repeat,letter,NA,k,0.43,Hi,,,,,,2,,,,,,,,high,25,0,25,0,1,,,,,,,,,
293386,2022-10-05_13h04.44.475,vts_reward_expectancy,2022.2.4,MacIntel,59.99880002,Chrome,920,695,,,,,10,930,,,,,,,,,,,,,,,,,160,W,triangle,1,1,,,,,,,,,,,,,,,,repeat,letter,lettRpt,k,0.6964,Hi,,,,,,2,,,,,,,,high,26,0,26,0,1,,,,,,,,,
293386,2022-10-05_13h04.44.475,vts_reward_expectancy,2022.2.4,MacIntel,59.99880002,Chrome,920,695,,,,,1,931,,,,,,,,,,,,,,,,,132,B,hexagon,1,0,,,,,,,,,,,,,,,,repeat,letter,lettRpt,j,0.9801,Lo,,,,,,2,,,,,,,,high,27,0,27,0,1,,,,,,,,,
293386,2022-10-05_13h04.44.475,vts_reward_expectancy,2022.2.4,MacIntel,59.99880002,Chrome,920,695,,,,,1,932,,,,,,,,,,,,,,,,,125,Y,hexagon,1,0,,,,,,,,,,,,,,,,repeat,letter,lettRpt,k,0.5374,Lo,,,,,,2,,,,,,,,high,28,0,28,0,1,,,,,,,,,
293386,2022-10-05_13h04.44.475,vts_reward_expectancy,2022.2.4,MacIntel,59.99880002,Chrome,920,695,,,,,0,932,,,,,,,,,,,,,,,,,139,S,triangle,0,0,,,,,,,,,,,,,,,,repeat,letter,NA,j,0.5027,Lo,,,,,,2,,,,,,,,high,29,0,29,0,1,,,,,,,,,
293386,2022-10-05_13h04.44.475,vts_reward_expectancy,2022.2.4,MacIntel,59.99880002,Chrome,920,695,,,,,0,932,,,,,,,,,,,,,,,,,181,H,hexagon,0,1,,,,,,,,,,,,,,,,repeat,letter,NA,k,0.3788,Lo,,,,,,2,,,,,,,,high,30,0,30,0,1,,,,,,,,,
293386,2022-10-05_13h04.44.475,vts_reward_expectancy,2022.2.4,MacIntel,59.99880002,Chrome,920,695,,,,,10,942,,,,,,,,,,,,,,,,,146,D,triangle,1,1,,,,,,,,,,,,,,,,repeat,letter,lettRpt,j,0.4629,Hi,,,,,,2,,,,,,,,high,31,0,31,0,1,,,,,,,,,
293386,2022-10-05_13h04.44.475,vts_reward_expectancy,2022.2.4,MacIntel,59.99880002,Chrome,920,695,,,,,0,942,,,,,,,,,,,,,,,,,167,Y,triangle,1,0,,,,,,,,,,,,,,,,repeat,letter,lettRpt,k,0.5166,Hi,,,,,,3,,,,,,space,0.5725,high,0,0,0,0,1,,,,,,,,,
293386,2022-10-05_13h04.44.475,vts_reward_expectancy,2022.2.4,MacIntel,59.99880002,Chrome,920,695,,,,,0,942,,,,,,,,,,,,,,,,,174,S,hexagon,0,0,,,,,,,,,,,,,,,,repeat,letter,NA,j,0.4469,Hi,,,,,,3,,,,,,,,high,1,0,1,0,1,,,,,,,,,
293386,2022-10-05_13h04.44.475,vts_reward_expectancy,2022.2.4,MacIntel,59.99880002,Chrome,920,695,,,,,0,942,,,,,,,,,,,,,,,,,139,U,triangle,0,1,,,,,,,,,,,,,,,,repeat,letter,NA,j,0.2686,Hi,,,,,,3,,,,,,,,high,2,0,2,0,1,,,,,,,,,
293386,2022-10-05_13h04.44.475,vts_reward_expectancy,2022.2.4,MacIntel,59.99880002,Chrome,920,695,,,,,0,942,,,,,,,,,,,,,,,,,160,D,hexagon,0,1,,,,,,,,,,,,,,,,repeat,letter,NA,k,0.3171,Hi,,,,,,3,,,,,,,,high,3,0,3,0,1,,,,,,,,,
293386,2022-10-05_13h04.44.475,vts_reward_expectancy,2022.2.4,MacIntel,59.99880002,Chrome,920,695,,,,,0,942,,,,,,,,,,,,,,,,,125,B,triangle,0,1,,,,,,,,,,,,,,,,repeat,letter,NA,k,0.3798,Hi,,,,,,3,,,,,,,,high,4,0,4,0,1,,,,,,,,,
293386,2022-10-05_13h04.44.475,vts_reward_expectancy,2022.2.4,MacIntel,59.99880002,Chrome,920,695,,,,,0,942,,,,,,,,,,,,,,,,,132,H,hexagon,0,1,,,,,,,,,,,,,,,,repeat,letter,NA,k,0.3634,Hi,,,,,,3,,,,,,,,high,5,0,5,0,1,,,,,,,,,
293386,2022-10-05_13h04.44.475,vts_reward_expectancy,2022.2.4,MacIntel,59.99880002,Chrome,920,695,,,,,0,942,,,,,,,,,,,,,,,,,181,W,triangle,0,1,,,,,,,,,,,,,,,,repeat,letter,NA,j,0.8147,Hi,,,,,,3,,,,,,,,high,6,0,6,0,1,,,,,,,,,
293386,2022-10-05_13h04.44.475,vts_reward_expectancy,2022.2.4,MacIntel,59.99880002,Chrome,920,695,,,,,1,943,,,,,,,,,,,,,,,,,146,F,hexagon,1,1,,,,,,,,,,,,,,,,repeat,letter,lettRpt,j,0.3988,Lo,,,,,,3,,,,,,,,high,7,0,7,0,1,,,,,,,,,
293386,2022-10-05_13h04.44.475,vts_reward_expectancy,2022.2.4,MacIntel,59.99880002,Chrome,920,695,,,,,0,943,,,,,,,,,,,,,,,,,167,Y,triangle,0,0,,,,,,,,,,,,,,,,repeat,letter,NA,j,0.4642,Lo,,,,,,3,,,,,,,,high,8,0,8,0,1,,,,,,,,,
293386,2022-10-05_13h04.44.475,vts_reward_expectancy,2022.2.4,MacIntel,59.99880002,Chrome,920,695,,,,,0,943,,,,,,,,,,,,,,,,,174,S,hexagon,-1,1,,,,,,,,,,,,,,,,switch,no_choice,NA,,,Lo,,,,,,3,,,,,,,,high,9,0,9,0,1,,,,,,,,,
293386,2022-10-05_13h04.44.475,vts_reward_expectancy,2022.2.4,MacIntel,59.99880002,Chrome,920,695,,,,,0,943,,,,,,,,,,,,,,,,,139,U,hexagon,0,0,,,,,,,,,,,,,,,,switch,letter,NA,j,0.5306,Lo,,,,,,3,,,,,,,,high,10,0,10,0,1,,,,,,,,,
293386,2022-10-05_13h04.44.475,vts_reward_expectancy,2022.2.4,MacIntel,59.99880002,Chrome,920,695,,,,,0,943,,,,,,,,,,,,,,,,,160,D,triangle,0,1,,,,,,,,,,,,,,,,repeat,letter,NA,k,0.4317,Lo,,,,,,3,,,,,,,,high,11,0,11,0,1,,,,,,,,,
293386,2022-10-05_13h04.44.475,vts_reward_expectancy,2022.2.4,MacIntel,59.99880002,Chrome,920,695,,,,,0,943,,,,,,,,,,,,,,,,,125,B,triangle,1,1,,,,,,,,,,,,,,,,repeat,letter,lettRpt,j,0.812,Hi,,,,,,3,,,,,,,,high,12,0,12,0,1,,,,,,,,,
293386,2022-10-05_13h04.44.475,vts_reward_expectancy,2022.2.4,MacIntel,59.99880002,Chrome,920,695,,,,,0,943,,,,,,,,,,,,,,,,,132,H,hexagon,0,0,,,,,,,,,,,,,,,,repeat,letter,NA,k,0.3789,Hi,,,,,,3,,,,,,,,high,13,0,13,0,1,,,,,,,,,
293386,2022-10-05_13h04.44.475,vts_reward_expectancy,2022.2.4,MacIntel,59.99880002,Chrome,920,695,,,,,0,943,,,,,,,,,,,,,,,,,181,W,triangle,1,1,,,,,,,,,,,,,,,,repeat,letter,lettRpt,k,0.4169,Hi,,,,,,3,,,,,,,,high,14,0,14,0,1,,,,,,,,,
293386,2022-10-05_13h04.44.475,vts_reward_expectancy,2022.2.4,MacIntel,59.99880002,Chrome,920,695,,,,,1,944,,,,,,,,,,,,,,,,,146,F,hexagon,1,0,,,,,,,,,,,,,,,,repeat,letter,lettRpt,j,0.3469,Lo,,,,,,3,,,,,,,,high,15,0,15,0,1,,,,,,,,,
293386,2022-10-05_13h04.44.475,vts_reward_expectancy,2022.2.4,MacIntel,59.99880002,Chrome,920,695,,,,,1,945,,,,,,,,,,,,,,,,,160,D,hexagon,1,0,,,,,,,,,,,,,,,,repeat,letter,lettRpt,j,0.2814,Lo,,,,,,3,,,,,,,,high,16,0,16,0,1,,,,,,,,,
293386,2022-10-05_13h04.44.475,vts_reward_expectancy,2022.2.4,MacIntel,59.99880002,Chrome,920,695,,,,,0,945,,,,,,,,,,,,,,,,,146,W,triangle,0,0,,,,,,,,,,,,,,,,repeat,letter,NA,j,0.4463,Lo,,,,,,3,,,,,,,,high,17,0,17,0,1,,,,,,,,,
293386,2022-10-05_13h04.44.475,vts_reward_expectancy,2022.2.4,MacIntel,59.99880002,Chrome,920,695,,,,,0,945,,,,,,,,,,,,,,,,,139,U,hexagon,0,1,,,,,,,,,,,,,,,,repeat,letter,NA,j,0.2712,Lo,,,,,,3,,,,,,,,high,18,0,18,0,1,,,,,,,,,
293386,2022-10-05_13h04.44.475,vts_reward_expectancy,2022.2.4,MacIntel,59.99880002,Chrome,920,695,,,,,10,955,,,,,,,,,,,,,,,,,167,B,triangle,1,1,,,,,,,,,,,,,,,,repeat,letter,lettRpt,j,0.2284,Hi,,,,,,3,,,,,,,,high,19,0,19,0,1,,,,,,,,,
293386,2022-10-05_13h04.44.475,vts_reward_expectancy,2022.2.4,MacIntel,59.99880002,Chrome,920,695,,,,,0,955,,,,,,,,,,,,,,,,,181,F,triangle,0,0,,,,,,,,,,,,,,,,repeat,letter,NA,k,0.2635,Hi,,,,,,3,,,,,,,,high,20,0,20,0,1,,,,,,,,,
293386,2022-10-05_13h04.44.475,vts_reward_expectancy,2022.2.4,MacIntel,59.99880002,Chrome,920,695,,,,,1,956,,,,,,,,,,,,,,,,,132,H,hexagon,1,1,,,,,,,,,,,,,,,,repeat,letter,lettRpt,j,0.0628,Lo,,,,,,3,,,,,,,,high,21,0,21,0,1,,,,,,,,,
293386,2022-10-05_13h04.44.475,vts_reward_expectancy,2022.2.4,MacIntel,59.99880002,Chrome,920,695,,,,,10,966,,,,,,,,,,,,,,,,,174,S,hexagon,1,0,,,,,,,,,,,,,,,,repeat,letter,lettRpt,k,0.0957,Lo,,,,,,3,,,,,,,,high,22,0,22,0,1,,,,,,,,,
293386,2022-10-05_13h04.44.475,vts_reward_expectancy,2022.2.4,MacIntel,59.99880002,Chrome,920,695,,,,,10,976,,,,,,,,,,,,,,,,,125,Y,triangle,1,0,,,,,,,,,,,,,,,,repeat,letter,lettRpt,k,0.1462,Hi,,,,,,3,,,,,,,,high,23,0,23,0,1,,,,,,,,,
293386,2022-10-05_13h04.44.475,vts_reward_expectancy,2022.2.4,MacIntel,59.99880002,Chrome,920,695,,,,,0,976,,,,,,,,,,,,,,,,,174,S,hexagon,0,0,,,,,,,,,,,,,,,,repeat,letter,NA,j,0.1133,Hi,,,,,,3,,,,,,,,high,24,0,24,0,1,,,,,,,,,
293386,2022-10-05_13h04.44.475,vts_reward_expectancy,2022.2.4,MacIntel,59.99880002,Chrome,920,695,,,,,10,986,,,,,,,,,,,,,,,,,139,B,triangle,1,1,,,,,,,,,,,,,,,,repeat,letter,lettRpt,j,0.0014,Hi,,,,,,3,,,,,,,,high,25,0,25,0,1,,,,,,,,,
293386,2022-10-05_13h04.44.475,vts_reward_expectancy,2022.2.4,MacIntel,59.99880002,Chrome,920,695,,,,,0,986,,,,,,,,,,,,,,,,,146,H,hexagon,0,0,,,,,,,,,,,,,,,,repeat,letter,NA,k,0.0803,Hi,,,,,,3,,,,,,,,high,26,0,26,0,1,,,,,,,,,
293386,2022-10-05_13h04.44.475,vts_reward_expectancy,2022.2.4,MacIntel,59.99880002,Chrome,920,695,,,,,0,986,,,,,,,,,,,,,,,,,181,D,triangle,1,1,,,,,,,,,,,,,,,,repeat,letter,lettRpt,j,0.4219,Hi,,,,,,3,,,,,,,,high,27,0,27,0,1,,,,,,,,,
293386,2022-10-05_13h04.44.475,vts_reward_expectancy,2022.2.4,MacIntel,59.99880002,Chrome,920,695,,,,,0,986,,,,,,,,,,,,,,,,,125,W,triangle,0,0,,,,,,,,,,,,,,,,repeat,letter,NA,j,0.229,Hi,,,,,,3,,,,,,,,high,28,0,28,0,1,,,,,,,,,
293386,2022-10-05_13h04.44.475,vts_reward_expectancy,2022.2.4,MacIntel,59.99880002,Chrome,920,695,,,,,0,986,,,,,,,,,,,,,,,,,167,Y,hexagon,0,1,,,,,,,,,,,,,,,,repeat,letter,NA,j,0.0299,Hi,,,,,,3,,,,,,,,high,29,0,29,0,1,,,,,,,,,
293386,2022-10-05_13h04.44.475,vts_reward_expectancy,2022.2.4,MacIntel,59.99880002,Chrome,920,695,,,,,0,986,,,,,,,,,,,,,,,,,160,U,hexagon,0,1,,,,,,,,,,,,,,,,repeat,letter,NA,j,0.2795,Hi,,,,,,3,,,,,,,,high,30,0,30,0,1,,,,,,,,,
293386,2022-10-05_13h04.44.475,vts_reward_expectancy,2022.2.4,MacIntel,59.99880002,Chrome,920,695,,,,,10,996,,,,,,,,,,,,,,,,,132,F,triangle,1,1,,,,,,,,,,,,,,,,repeat,letter,lettRpt,j,0.0105,Hi,,,,,,3,,,,,,,,high,31,0,31,0,1,,,,,,,,,
293386,2022-10-05_13h04.44.475,vts_reward_expectancy,2022.2.4,MacIntel,59.99880002,Chrome,920,695,,,,,0,996,,,,,,,,,,,,,,,,,146,W,star,0,0,,,,,,,,,,,,,,,,switch,number,NA,f,0.4161,Hi,,,,,,4,,,,,,space,2.7699,low,0,0,0,0,1,,,,,,,,,
293386,2022-10-05_13h04.44.475,vts_reward_expectancy,2022.2.4,MacIntel,59.99880002,Chrome,920,695,,,,,0,996,,,,,,,,,,,,,,,,,167,D,circle,0,1,,,,,,,,,,,,,,,,repeat,number,NA,d,0.363,Hi,,,,,,4,,,,,,,,low,1,0,1,0,1,,,,,,,,,
293386,2022-10-05_13h04.44.475,vts_reward_expectancy,2022.2.4,MacIntel,59.99880002,Chrome,920,695,,,,,10,1006,,,,,,,,,,,,,,,,,174,B,star,1,1,,,,,,,,,,,,,,,,repeat,number,numRpt,f,0.4179,Hi,,,,,,4,,,,,,,,low,2,0,2,0,1,,,,,,,,,
293386,2022-10-05_13h04.44.475,vts_reward_expectancy,2022.2.4,MacIntel,59.99880002,Chrome,920,695,,,,,1,1007,,,,,,,,,,,,,,,,,160,U,circle,1,0,,,,,,,,,,,,,,,,repeat,number,numRpt,f,0.4468,Lo,,,,,,4,,,,,,,,low,3,0,3,0,1,,,,,,,,,
293386,2022-10-05_13h04.44.475,vts_reward_expectancy,2022.2.4,MacIntel,59.99880002,Chrome,920,695,,,,,10,1017,,,,,,,,,,,,,,,,,139,H,star,1,0,,,,,,,,,,,,,,,,repeat,number,numRpt,d,0.1179,Hi,,,,,,4,,,,,,,,low,4,0,4,0,1,,,,,,,,,
293386,2022-10-05_13h04.44.475,vts_reward_expectancy,2022.2.4,MacIntel,59.99880002,Chrome,920,695,,,,,1,1018,,,,,,,,,,,,,,,,,181,S,circle,1,0,,,,,,,,,,,,,,,,repeat,number,numRpt,f,0.114,Lo,,,,,,4,,,,,,,,low,5,0,5,0,1,,,,,,,,,
293386,2022-10-05_13h04.44.475,vts_reward_expectancy,2022.2.4,MacIntel,59.99880002,Chrome,920,695,,,,,10,1028,,,,,,,,,,,,,,,,,132,Y,circle,1,0,,,,,,,,,,,,,,,,repeat,number,numRpt,d,0.3985,Lo,,,,,,4,,,,,,,,low,6,0,6,0,1,,,,,,,,,
293386,2022-10-05_13h04.44.475,vts_reward_expectancy,2022.2.4,MacIntel,59.99880002,Chrome,920,695,,,,,0,1028,,,,,,,,,,,,,,,,,125,F,star,0,0,,,,,,,,,,,,,,,,repeat,number,NA,f,0.3626,Lo,,,,,,4,,,,,,,,low,7,0,7,0,1,,,,,,,,,
293386,2022-10-05_13h04.44.475,vts_reward_expectancy,2022.2.4,MacIntel,59.99880002,Chrome,920,695,,,,,10,1038,,,,,,,,,,,,,,,,,146,W,circle,1,1,,,,,,,,,,,,,,,,repeat,number,numRpt,d,0.2961,Lo,,,,,,4,,,,,,,,low,8,0,8,0,1,,,,,,,,,
293386,2022-10-05_13h04.44.475,vts_reward_expectancy,2022.2.4,MacIntel,59.99880002,Chrome,920,695,,,,,10,1048,,,,,,,,,,,,,,,,,167,D,star,1,0,,,,,,,,,,,,,,,,repeat,number,numRpt,f,0.2652,Hi,,,,,,4,,,,,,,,low,9,0,9,0,1,,,,,,,,,
293386,2022-10-05_13h04.44.475,vts_reward_expectancy,2022.2.4,MacIntel,59.99880002,Chrome,920,695,,,,,1,1049,,,,,,,,,,,,,,,,,174,B,circle,1,0,,,,,,,,,,,,,,,,repeat,number,numRpt,f,0.3981,Lo,,,,,,4,,,,,,,,low,10,0,10,0,1,,,,,,,,,
293386,2022-10-05_13h04.44.475,vts_reward_expectancy,2022.2.4,MacIntel,59.99880002,Chrome,920,695,,,,,0,1049,,,,,,,,,,,,,,,,,160,U,star,0,0,,,,,,,,,,,,,,,,repeat,number,NA,d,0.2729,Lo,,,,,,4,,,,,,,,low,11,0,11,0,1,,,,,,,,,
293386,2022-10-05_13h04.44.475,vts_reward_expectancy,2022.2.4,MacIntel,59.99880002,Chrome,920,695,,,,,0,1049,,,,,,,,,,,,,,,,,139,H,star,0,1,,,,,,,,,,,,,,,,repeat,number,NA,f,0.4217,Lo,,,,,,4,,,,,,,,low,12,0,12,0,1,,,,,,,,,
293386,2022-10-05_13h04.44.475,vts_reward_expectancy,2022.2.4,MacIntel,59.99880002,Chrome,920,695,,,,,0,1049,,,,,,,,,,,,,,,,,181,S,circle,0,1,,,,,,,,,,,,,,,,repeat,number,NA,d,0.3964,Lo,,,,,,4,,,,,,,,low,13,0,13,0,1,,,,,,,,,
293386,2022-10-05_13h04.44.475,vts_reward_expectancy,2022.2.4,MacIntel,59.99880002,Chrome,920,695,,,,,0,1049,,,,,,,,,,,,,,,,,132,Y,circle,0,1,,,,,,,,,,,,,,,,repeat,number,NA,f,0.3,Lo,,,,,,4,,,,,,,,low,14,0,14,0,1,,,,,,,,,
293386,2022-10-05_13h04.44.475,vts_reward_expectancy,2022.2.4,MacIntel,59.99880002,Chrome,920,695,,,,,1,1050,,,,,,,,,,,,,,,,,125,F,star,1,1,,,,,,,,,,,,,,,,repeat,number,numRpt,d,0.4546,Hi,,,,,,4,,,,,,,,low,15,0,15,0,1,,,,,,,,,
293386,2022-10-05_13h04.44.475,vts_reward_expectancy,2022.2.4,MacIntel,59.99880002,Chrome,920,695,,,,,0,1050,,,,,,,,,,,,,,,,,146,W,star,0,0,,,,,,,,,,,,,,,,repeat,number,NA,f,0.3515,Hi,,,,,,4,,,,,,,,low,16,0,16,0,1,,,,,,,,,
293386,2022-10-05_13h04.44.475,vts_reward_expectancy,2022.2.4,MacIntel,59.99880002,Chrome,920,695,,,,,0,1050,,,,,,,,,,,,,,,,,125,F,circle,0,1,,,,,,,,,,,,,,,,repeat,number,NA,f,0.0722,Hi,,,,,,4,,,,,,,,low,17,0,17,0,1,,,,,,,,,
293386,2022-10-05_13h04.44.475,vts_reward_expectancy,2022.2.4,MacIntel,59.99880002,Chrome,920,695,,,,,10,1060,,,,,,,,,,,,,,,,,167,B,star,1,1,,,,,,,,,,,,,,,,repeat,number,numRpt,f,0.063,Hi,,,,,,4,,,,,,,,low,18,0,18,0,1,,,,,,,,,
293386,2022-10-05_13h04.44.475,vts_reward_expectancy,2022.2.4,MacIntel,59.99880002,Chrome,920,695,,,,,0,1060,,,,,,,,,,,,,,,,,132,H,circle,0,0,,,,,,,,,,,,,,,,repeat,number,NA,f,0.6298,Hi,,,,,,4,,,,,,,,low,19,0,19,0,1,,,,,,,,,
293386,2022-10-05_13h04.44.475,vts_reward_expectancy,2022.2.4,MacIntel,59.99880002,Chrome,920,695,,,,,0,1060,,,,,,,,,,,,,,,,,174,Y,circle,0,1,,,,,,,,,,,,,,,,repeat,number,NA,d,0.4869,Hi,,,,,,4,,,,,,,,low,20,0,20,0,1,,,,,,,,,
293386,2022-10-05_13h04.44.475,vts_reward_expectancy,2022.2.4,MacIntel,59.99880002,Chrome,920,695,,,,,10,1070,,,,,,,,,,,,,,,,,160,U,star,1,1,,,,,,,,,,,,,,,,repeat,number,numRpt,f,0.3469,Hi,,,,,,4,,,,,,,,low,21,0,21,0,1,,,,,,,,,
293386,2022-10-05_13h04.44.475,vts_reward_expectancy,2022.2.4,MacIntel,59.99880002,Chrome,920,695,,,,,0,1070,,,,,,,,,,,,,,,,,139,D,circle,0,0,,,,,,,,,,,,,,,,repeat,number,NA,f,0.4295,Hi,,,,,,4,,,,,,,,low,22,0,22,0,1,,,,,,,,,
293386,2022-10-05_13h04.44.475,vts_reward_expectancy,2022.2.4,MacIntel,59.99880002,Chrome,920,695,,,,,0,1070,,,,,,,,,,,,,,,,,181,S,star,0,1,,,,,,,,,,,,,,,,repeat,number,NA,d,0.3164,Hi,,,,,,4,,,,,,,,low,23,0,23,0,1,,,,,,,,,
293386,2022-10-05_13h04.44.475,vts_reward_expectancy,2022.2.4,MacIntel,59.99880002,Chrome,920,695,,,,,0,1070,,,,,,,,,,,,,,,,,132,B,circle,0,1,,,,,,,,,,,,,,,,repeat,number,NA,f,0.2714,Hi,,,,,,4,,,,,,,,low,24,0,24,0,1,,,,,,,,,
293386,2022-10-05_13h04.44.475,vts_reward_expectancy,2022.2.4,MacIntel,59.99880002,Chrome,920,695,,,,,10,1080,,,,,,,,,,,,,,,,,174,Y,star,1,1,,,,,,,,,,,,,,,,repeat,number,numRpt,f,0.2718,Hi,,,,,,4,,,,,,,,low,25,0,25,0,1,,,,,,,,,
293386,2022-10-05_13h04.44.475,vts_reward_expectancy,2022.2.4,MacIntel,59.99880002,Chrome,920,695,,,,,1,1081,,,,,,,,,,,,,,,,,146,U,star,1,0,,,,,,,,,,,,,,,,repeat,number,numRpt,d,0.2887,Hi,,,,,,4,,,,,,,,low,26,0,26,0,1,,,,,,,,,
293386,2022-10-05_13h04.44.475,vts_reward_expectancy,2022.2.4,MacIntel,59.99880002,Chrome,920,695,,,,,1,1082,,,,,,,,,,,,,,,,,125,F,circle,1,0,,,,,,,,,,,,,,,,repeat,number,numRpt,d,0.3829,Lo,,,,,,4,,,,,,,,low,27,0,27,0,1,,,,,,,,,
293386,2022-10-05_13h04.44.475,vts_reward_expectancy,2022.2.4,MacIntel,59.99880002,Chrome,920,695,,,,,1,1083,,,,,,,,,,,,,,,,,167,W,circle,1,0,,,,,,,,,,,,,,,,repeat,number,numRpt,f,0.2475,Lo,,,,,,4,,,,,,,,low,28,0,28,0,1,,,,,,,,,
293386,2022-10-05_13h04.44.475,vts_reward_expectancy,2022.2.4,MacIntel,59.99880002,Chrome,920,695,,,,,0,1083,,,,,,,,,,,,,,,,,160,H,star,0,0,,,,,,,,,,,,,,,,repeat,number,NA,d,0.4306,Lo,,,,,,4,,,,,,,,low,29,0,29,0,1,,,,,,,,,
293386,2022-10-05_13h04.44.475,vts_reward_expectancy,2022.2.4,MacIntel,59.99880002,Chrome,920,695,,,,,0,1083,,,,,,,,,,,,,,,,,139,D,star,0,1,,,,,,,,,,,,,,,,repeat,number,NA,f,0.2671,Lo,,,,,,4,,,,,,,,low,30,0,30,0,1,,,,,,,,,
293386,2022-10-05_13h04.44.475,vts_reward_expectancy,2022.2.4,MacIntel,59.99880002,Chrome,920,695,,,,,0,1083,,,,,,,,,,,,,,,,,181,S,circle,0,1,,,,,,,,,,,,,,,,repeat,number,NA,d,0.2484,Lo,,,,,,4,,,,,,,,low,31,0,31,0,1,,,,,,,,,
293386,2022-10-05_13h04.44.475,vts_reward_expectancy,2022.2.4,MacIntel,59.99880002,Chrome,920,695,,,,,10,1093,,,,,,,,,,,,,,,,,139,H,circle,1,1,,,,,,,,,,,,,,,,switch,letter,lettSwt,j,0.3052,Lo,,,,,,5,,,,,,space,1.4157,low,0,0,0,0,1,,,,,,,,,
293386,2022-10-05_13h04.44.475,vts_reward_expectancy,2022.2.4,MacIntel,59.99880002,Chrome,920,695,,,,,10,1103,,,,,,,,,,,,,,,,,167,Y,star,1,0,,,,,,,,,,,,,,,,repeat,letter,lettRpt,k,0.2451,Hi,,,,,,5,,,,,,,,low,1,0,1,0,1,,,,,,,,,
293386,2022-10-05_13h04.44.475,vts_reward_expectancy,2022.2.4,MacIntel,59.99880002,Chrome,920,695,,,,,10,1113,,,,,,,,,,,,,,,,,181,S,circle,1,0,,,,,,,,,,,,,,,,repeat,letter,lettRpt,k,0.2963,Lo,,,,,,5,,,,,,,,low,2,0,2,0,1,,,,,,,,,
293386,2022-10-05_13h04.44.475,vts_reward_expectancy,2022.2.4,MacIntel,59.99880002,Chrome,920,695,,,,,1,1114,,,,,,,,,,,,,,,,,174,D,star,1,0,,,,,,,,,,,,,,,,repeat,letter,lettRpt,j,0.4464,Hi,,,,,,5,,,,,,,,low,3,0,3,0,1,,,,,,,,,
293386,2022-10-05_13h04.44.475,vts_reward_expectancy,2022.2.4,MacIntel,59.99880002,Chrome,920,695,,,,,1,1115,,,,,,,,,,,,,,,,,132,W,circle,1,0,,,,,,,,,,,,,,,,repeat,letter,lettRpt,k,0.3685,Lo,,,,,,5,,,,,,,,low,4,0,4,0,1,,,,,,,,,
293386,2022-10-05_13h04.44.475,vts_reward_expectancy,2022.2.4,MacIntel,59.99880002,Chrome,920,695,,,,,0,1115,,,,,,,,,,,,,,,,,146,U,star,0,0,,,,,,,,,,,,,,,,repeat,letter,NA,j,0.4026,Lo,,,,,,5,,,,,,,,low,5,0,5,0,1,,,,,,,,,
293386,2022-10-05_13h04.44.475,vts_reward_expectancy,2022.2.4,MacIntel,59.99880002,Chrome,920,695,,,,,1,1116,,,,,,,,,,,,,,,,,160,B,circle,1,1,,,,,,,,,,,,,,,,repeat,letter,lettRpt,j,0.3697,Lo,,,,,,5,,,,,,,,low,6,0,6,0,1,,,,,,,,,
293386,2022-10-05_13h04.44.475,vts_reward_expectancy,2022.2.4,MacIntel,59.99880002,Chrome,920,695,,,,,0,1116,,,,,,,,,,,,,,,,,125,F,star,0,0,,,,,,,,,,,,,,,,repeat,letter,NA,k,0.3481,Lo,,,,,,5,,,,,,,,low,7,0,7,0,1,,,,,,,,,
293386,2022-10-05_13h04.44.475,vts_reward_expectancy,2022.2.4,MacIntel,59.99880002,Chrome,920,695,,,,,0,1116,,,,,,,,,,,,,,,,,139,H,star,0,1,,,,,,,,,,,,,,,,repeat,letter,NA,k,0.336,Lo,,,,,,5,,,,,,,,low,8,0,8,0,1,,,,,,,,,
293386,2022-10-05_13h04.44.475,vts_reward_expectancy,2022.2.4,MacIntel,59.99880002,Chrome,920,695,,,,,1,1117,,,,,,,,,,,,,,,,,167,Y,circle,1,1,,,,,,,,,,,,,,,,repeat,letter,lettRpt,k,0.429,Lo,,,,,,5,,,,,,,,low,9,0,9,0,1,,,,,,,,,
293386,2022-10-05_13h04.44.475,vts_reward_expectancy,2022.2.4,MacIntel,59.99880002,Chrome,920,695,,,,,0,1117,,,,,,,,,,,,,,,,,181,S,circle,0,0,,,,,,,,,,,,,,,,repeat,letter,NA,j,0.3978,Lo,,,,,,5,,,,,,,,low,10,0,10,0,1,,,,,,,,,
293386,2022-10-05_13h04.44.475,vts_reward_expectancy,2022.2.4,MacIntel,59.99880002,Chrome,920,695,,,,,1,1118,,,,,,,,,,,,,,,,,174,D,star,1,1,,,,,,,,,,,,,,,,repeat,letter,lettRpt,j,0.6131,Hi,,,,,,5,,,,,,,,low,11,0,11,0,1,,,,,,,,,
293386,2022-10-05_13h04.44.475,vts_reward_expectancy,2022.2.4,MacIntel,59.99880002,Chrome,920,695,,,,,1,1119,,,,,,,,,,,,,,,,,132,W,circle,1,0,,,,,,,,,,,,,,,,repeat,letter,lettRpt,k,0.4301,Lo,,,,,,5,,,,,,,,low,12,0,12,0,1,,,,,,,,,
293386,2022-10-05_13h04.44.475,vts_reward_expectancy,2022.2.4,MacIntel,59.99880002,Chrome,920,695,,,,,0,1119,,,,,,,,,,,,,,,,,146,U,star,0,0,,,,,,,,,,,,,,,,repeat,letter,NA,j,0.4783,Lo,,,,,,5,,,,,,,,low,13,0,13,0,1,,,,,,,,,
293386,2022-10-05_13h04.44.475,vts_reward_expectancy,2022.2.4,MacIntel,59.99880002,Chrome,920,695,,,,,10,1129,,,,,,,,,,,,,,,,,160,B,circle,1,1,,,,,,,,,,,,,,,,repeat,letter,lettRpt,j,0.5307,Lo,,,,,,5,,,,,,,,low,14,0,14,0,1,,,,,,,,,
293386,2022-10-05_13h04.44.475,vts_reward_expectancy,2022.2.4,MacIntel,59.99880002,Chrome,920,695,,,,,0,1129,,,,,,,,,,,,,,,,,125,F,star,0,0,,,,,,,,,,,,,,,,repeat,letter,NA,k,0.3013,Lo,,,,,,5,,,,,,,,low,15,0,15,0,1,,,,,,,,,
293386,2022-10-05_13h04.44.475,vts_reward_expectancy,2022.2.4,MacIntel,59.99880002,Chrome,920,695,,,,,0,1129,,,,,,,,,,,,,,,,,139,H,star,0,1,,,,,,,,,,,,,,,,repeat,letter,NA,k,0.1961,Lo,,,,,,5,,,,,,,,low,16,0,16,0,1,,,,,,,,,
293386,2022-10-05_13h04.44.475,vts_reward_expectancy,2022.2.4,MacIntel,59.99880002,Chrome,920,695,,,,,1,1130,,,,,,,,,,,,,,,,,125,F,circle,1,1,,,,,,,,,,,,,,,,repeat,letter,lettRpt,j,0.5132,Lo,,,,,,5,,,,,,,,low,17,0,17,0,1,,,,,,,,,
293386,2022-10-05_13h04.44.475,vts_reward_expectancy,2022.2.4,MacIntel,59.99880002,Chrome,920,695,,,,,0,1130,,,,,,,,,,,,,,,,,146,B,star,0,0,,,,,,,,,,,,,,,,repeat,letter,NA,k,0.5642,Lo,,,,,,5,,,,,,,,low,18,0,18,0,1,,,,,,,,,
293386,2022-10-05_13h04.44.475,vts_reward_expectancy,2022.2.4,MacIntel,59.99880002,Chrome,920,695,,,,,10,1140,,,,,,,,,,,,,,,,,160,Y,circle,1,1,,,,,,,,,,,,,,,,repeat,letter,lettRpt,k,0.618,Lo,,,,,,5,,,,,,,,low,19,0,19,0,1,,,,,,,,,
293386,2022-10-05_13h04.44.475,vts_reward_expectancy,2022.2.4,MacIntel,59.99880002,Chrome,920,695,,,,,1,1141,,,,,,,,,,,,,,,,,181,W,circle,1,0,,,,,,,,,,,,,,,,repeat,letter,lettRpt,k,0.57,Lo,,,,,,5,,,,,,,,low,20,0,20,0,1,,,,,,,,,
293386,2022-10-05_13h04.44.475,vts_reward_expectancy,2022.2.4,MacIntel,59.99880002,Chrome,920,695,,,,,1,1142,,,,,,,,,,,,,,,,,132,U,star,1,0,,,,,,,,,,,,,,,,repeat,letter,lettRpt,k,0.5537,Hi,,,,,,5,,,,,,,,low,21,0,21,0,1,,,,,,,,,
293386,2022-10-05_13h04.44.475,vts_reward_expectancy,2022.2.4,MacIntel,59.99880002,Chrome,920,695,,,,,10,1152,,,,,,,,,,,,,,,,,174,S,circle,1,0,,,,,,,,,,,,,,,,repeat,letter,lettRpt,k,0.5802,Lo,,,,,,5,,,,,,,,low,22,0,22,0,1,,,,,,,,,
293386,2022-10-05_13h04.44.475,vts_reward_expectancy,2022.2.4,MacIntel,59.99880002,Chrome,920,695,,,,,0,1152,,,,,,,,,,,,,,,,,167,D,star,0,0,,,,,,,,,,,,,,,,repeat,letter,NA,k,0.5807,Lo,,,,,,5,,,,,,,,low,23,0,23,0,1,,,,,,,,,
293386,2022-10-05_13h04.44.475,vts_reward_expectancy,2022.2.4,MacIntel,59.99880002,Chrome,920,695,,,,,1,1153,,,,,,,,,,,,,,,,,181,S,circle,1,1,,,,,,,,,,,,,,,,repeat,letter,lettRpt,k,0.6132,Lo,,,,,,5,,,,,,,,low,24,0,24,0,1,,,,,,,,,
293386,2022-10-05_13h04.44.475,vts_reward_expectancy,2022.2.4,MacIntel,59.99880002,Chrome,920,695,,,,,0,1153,,,,,,,,,,,,,,,,,167,D,star,0,0,,,,,,,,,,,,,,,,repeat,letter,NA,k,0.63,Lo,,,,,,5,,,,,,,,low,25,0,25,0,1,,,,,,,,,
293386,2022-10-05_13h04.44.475,vts_reward_expectancy,2022.2.4,MacIntel,59.99880002,Chrome,920,695,,,,,10,1163,,,,,,,,,,,,,,,,,160,W,circle,1,1,,,,,,,,,,,,,,,,repeat,letter,lettRpt,k,0.4051,Lo,,,,,,5,,,,,,,,low,26,0,26,0,1,,,,,,,,,
293386,2022-10-05_13h04.44.475,vts_reward_expectancy,2022.2.4,MacIntel,59.99880002,Chrome,920,695,,,,,0,1163,,,,,,,,,,,,,,,,,125,U,star,0,0,,,,,,,,,,,,,,,,repeat,letter,NA,j,0.4803,Lo,,,,,,5,,,,,,,,low,27,0,27,0,1,,,,,,,,,
293386,2022-10-05_13h04.44.475,vts_reward_expectancy,2022.2.4,MacIntel,59.99880002,Chrome,920,695,,,,,1,1164,,,,,,,,,,,,,,,,,174,F,circle,1,1,,,,,,,,,,,,,,,,repeat,letter,lettRpt,j,0.2184,Lo,,,,,,5,,,,,,,,low,28,0,28,0,1,,,,,,,,,
293386,2022-10-05_13h04.44.475,vts_reward_expectancy,2022.2.4,MacIntel,59.99880002,Chrome,920,695,,,,,0,1164,,,,,,,,,,,,,,,,,132,B,star,0,0,,,,,,,,,,,,,,,,repeat,letter,NA,k,0.1965,Lo,,,,,,5,,,,,,,,low,29,0,29,0,1,,,,,,,,,
293386,2022-10-05_13h04.44.475,vts_reward_expectancy,2022.2.4,MacIntel,59.99880002,Chrome,920,695,,,,,1,1165,,,,,,,,,,,,,,,,,139,H,circle,1,1,,,,,,,,,,,,,,,,repeat,letter,lettRpt,j,0.2493,Lo,,,,,,5,,,,,,,,low,30,0,30,0,1,,,,,,,,,
293386,2022-10-05_13h04.44.475,vts_reward_expectancy,2022.2.4,MacIntel,59.99880002,Chrome,920,695,,,,,0,1165,,,,,,,,,,,,,,,,,146,Y,star,0,0,,,,,,,,,,,,,,,,repeat,letter,NA,j,0.067,Lo,,,,,,5,,,,,,,,low,31,0,31,0,1,,,,,,,,,
293386,2022-10-05_13h04.44.475,vts_reward_expectancy,2022.2.4,MacIntel,59.99880002,Chrome,920,695,,,,,,,,,,,,,,,,,,,,,,,,,,,,,,,,,,,,,,,,,,,,,,,,,,,,,,6,,,,,,,,,,,,,,pick a shape or number.,1,,3,1,,2,1440,900
