participant,date,expName,psychopyVersion,OS,frameRate,browser,xResolution,yResolution,key_resp.keys,key_resp.rt,training_resp.keys,training_resp.rt,points_trial,points_cumul,trainBlock,training.thisRepN,training.thisTrialN,training.thisN,training.thisIndex,training.ran,LTriangleOpac,LCircleOpac,LHexagonOpac,LStarOpac,RTriangleOpac,RCircleOpac,RHexagonOpac,RStarOpac,LShape_ID,RShape_ID,curr_topStim,curr_bottStim,curr_shape,acc,E1,target_resp_prac1.keys,pracBlock,task1_prac_trials.thisRepN,task1_prac_trials.thisTrialN,task1_prac_trials.thisN,task1_prac_trials.thisIndex,task1_prac_trials.ran,target_resp_prac1.rt,target_resp_prac2.keys,target_resp_prac2.rt,task2_praac_trials.thisRepN,task2_praac_trials.thisTrialN,task2_praac_trials.thisN,task2_praac_trials.thisIndex,task2_praac_trials.ran,alt,task,condition,target_resp.keys,rewCond,vts_practice_trials.thisRepN,vts_practice_trials.thisTrialN,vts_practice_trials.thisN,vts_practice_trials.thisIndex,vts_practice_trials.ran,target_resp.rt,blockNum,trials_norew.thisRepN,trials_norew.thisTrialN,trials_norew.thisN,trials_norew.thisIndex,trials_norew.ran,key_resp_2.keys,key_resp_2.rt,rewExpect,trials_rew.thisRepN,trials_rew.thisTrialN,trials_rew.thisN,trials_rew.thisIndex,trials_rew.ran,Q1,Q2,Q2_text,Q3,Q4,Q5_text,Q5,xRes,yRes
296635,2022-10-07_24h10.51.353,vts_reward_expectancy,2022.2.4,Win32,60.84575601,Chrome,1280,720,,,,,,,,,,,,,,,,,,,,,,,,,,,,,,,,,,,,,,,,,,,,,,,,,,,,,,,,,,,,,,,,,,,,,,,,,,,,
296635,2022-10-07_24h10.51.353,vts_reward_expectancy,2022.2.4,Win32,60.84575601,Chrome,1280,720,space,157.3834,,,,,,,,,,,,,,,,,,,,,,,,,,,,,,,,,,,,,,,,,,,,,,,,,,,,,,,,,,,,,,,,,,,,,,,,,,
296635,2022-10-07_24h10.51.353,vts_reward_expectancy,2022.2.4,Win32,60.84575601,Chrome,1280,720,,,,,,,,,,,,,,,,,,,,,,,,,,,,,,,,,,,,,,,,,,,,,,,,,,,,,,,,,,,,,,,,,,,,,,,,,,,,
296635,2022-10-07_24h10.51.353,vts_reward_expectancy,2022.2.4,Win32,60.84575601,Chrome,1280,720,,,l,3.9761,10,10,0,0,0,0,4,1,0,1,0,0,0,0,1,0,circle,hexagon,,,,,,,,,,,,,,,,,,,,,,,,,,,,,,,,,,,,,,,,,,,,,,,,,,,,,,
296635,2022-10-07_24h10.51.353,vts_reward_expectancy,2022.2.4,Win32,60.84575601,Chrome,1280,720,,,a,15.0015,1,11,0,0,1,1,7,1,0,0,1,0,0,1,0,0,hexagon,circle,,,,,,,,,,,,,,,,,,,,,,,,,,,,,,,,,,,,,,,,,,,,,,,,,,,,,,
296635,2022-10-07_24h10.51.353,vts_reward_expectancy,2022.2.4,Win32,60.84575601,Chrome,1280,720,,,a,4.4371,1,12,0,0,2,2,10,1,0,0,0,1,0,1,0,0,star ,circle,,,,,,,,,,,,,,,,,,,,,,,,,,,,,,,,,,,,,,,,,,,,,,,,,,,,,,
296635,2022-10-07_24h10.51.353,vts_reward_expectancy,2022.2.4,Win32,60.84575601,Chrome,1280,720,,,l,7.3182,1,13,0,0,3,3,1,1,1,0,0,0,0,0,1,0,triangle,hexagon,,,,,,,,,,,,,,,,,,,,,,,,,,,,,,,,,,,,,,,,,,,,,,,,,,,,,,
296635,2022-10-07_24h10.51.353,vts_reward_expectancy,2022.2.4,Win32,60.84575601,Chrome,1280,720,,,l,6.1006,10,23,0,0,4,4,5,1,0,1,0,0,0,0,0,1,circle,star,,,,,,,,,,,,,,,,,,,,,,,,,,,,,,,,,,,,,,,,,,,,,,,,,,,,,,
296635,2022-10-07_24h10.51.353,vts_reward_expectancy,2022.2.4,Win32,60.84575601,Chrome,1280,720,,,l,6.2078,10,33,0,0,5,5,11,1,0,0,0,1,0,0,1,0,star,hexagon,,,,,,,,,,,,,,,,,,,,,,,,,,,,,,,,,,,,,,,,,,,,,,,,,,,,,,
296635,2022-10-07_24h10.51.353,vts_reward_expectancy,2022.2.4,Win32,60.84575601,Chrome,1280,720,,,l,5.5174,1,34,0,0,6,6,0,1,1,0,0,0,0,1,0,0,triangle,circle,,,,,,,,,,,,,,,,,,,,,,,,,,,,,,,,,,,,,,,,,,,,,,,,,,,,,,
296635,2022-10-07_24h10.51.353,vts_reward_expectancy,2022.2.4,Win32,60.84575601,Chrome,1280,720,,,a,3.8171,10,44,0,0,7,7,2,1,1,0,0,0,0,0,0,1,triangle,star,,,,,,,,,,,,,,,,,,,,,,,,,,,,,,,,,,,,,,,,,,,,,,,,,,,,,,
296635,2022-10-07_24h10.51.353,vts_reward_expectancy,2022.2.4,Win32,60.84575601,Chrome,1280,720,,,l,5.8575,10,54,0,0,8,8,6,1,0,0,1,0,1,0,0,0,hexagon,triangle,,,,,,,,,,,,,,,,,,,,,,,,,,,,,,,,,,,,,,,,,,,,,,,,,,,,,,
296635,2022-10-07_24h10.51.353,vts_reward_expectancy,2022.2.4,Win32,60.84575601,Chrome,1280,720,,,l,3.1503,10,64,0,0,9,9,8,1,0,0,1,0,0,0,0,1,hexagon,star,,,,,,,,,,,,,,,,,,,,,,,,,,,,,,,,,,,,,,,,,,,,,,,,,,,,,,
296635,2022-10-07_24h10.51.353,vts_reward_expectancy,2022.2.4,Win32,60.84575601,Chrome,1280,720,,,l,3.9332,10,74,0,0,10,10,9,1,0,0,0,1,1,0,0,0,star,triangle,,,,,,,,,,,,,,,,,,,,,,,,,,,,,,,,,,,,,,,,,,,,,,,,,,,,,,
296635,2022-10-07_24h10.51.353,vts_reward_expectancy,2022.2.4,Win32,60.84575601,Chrome,1280,720,,,l,3.617,1,75,0,0,11,11,3,1,0,1,0,0,1,0,0,0,circle,triangle,,,,,,,,,,,,,,,,,,,,,,,,,,,,,,,,,,,,,,,,,,,,,,,,,,,,,,
296635,2022-10-07_24h10.51.353,vts_reward_expectancy,2022.2.4,Win32,60.84575601,Chrome,1280,720,,,l,3.2085,10,85,0,1,0,12,4,1,0,1,0,0,0,0,1,0,circle,hexagon,,,,,,,,,,,,,,,,,,,,,,,,,,,,,,,,,,,,,,,,,,,,,,,,,,,,,,
296635,2022-10-07_24h10.51.353,vts_reward_expectancy,2022.2.4,Win32,60.84575601,Chrome,1280,720,,,l,3.6639,1,86,0,1,1,13,11,1,0,0,0,1,0,0,1,0,star,hexagon,,,,,,,,,,,,,,,,,,,,,,,,,,,,,,,,,,,,,,,,,,,,,,,,,,,,,,
296635,2022-10-07_24h10.51.353,vts_reward_expectancy,2022.2.4,Win32,60.84575601,Chrome,1280,720,,,l,3.32,10,96,0,1,2,14,10,1,0,0,0,1,0,1,0,0,star ,circle,,,,,,,,,,,,,,,,,,,,,,,,,,,,,,,,,,,,,,,,,,,,,,,,,,,,,,
296635,2022-10-07_24h10.51.353,vts_reward_expectancy,2022.2.4,Win32,60.84575601,Chrome,1280,720,,,a,5.2751,1,97,0,1,3,15,0,1,1,0,0,0,0,1,0,0,triangle,circle,,,,,,,,,,,,,,,,,,,,,,,,,,,,,,,,,,,,,,,,,,,,,,,,,,,,,,
296635,2022-10-07_24h10.51.353,vts_reward_expectancy,2022.2.4,Win32,60.84575601,Chrome,1280,720,,,a,3.1508,10,107,0,1,4,16,3,1,0,1,0,0,1,0,0,0,circle,triangle,,,,,,,,,,,,,,,,,,,,,,,,,,,,,,,,,,,,,,,,,,,,,,,,,,,,,,
296635,2022-10-07_24h10.51.353,vts_reward_expectancy,2022.2.4,Win32,60.84575601,Chrome,1280,720,,,l,2.6839,10,117,0,1,5,17,9,1,0,0,0,1,1,0,0,0,star,triangle,,,,,,,,,,,,,,,,,,,,,,,,,,,,,,,,,,,,,,,,,,,,,,,,,,,,,,
296635,2022-10-07_24h10.51.353,vts_reward_expectancy,2022.2.4,Win32,60.84575601,Chrome,1280,720,,,l,3.2169,10,127,0,1,6,18,5,1,0,1,0,0,0,0,0,1,circle,star,,,,,,,,,,,,,,,,,,,,,,,,,,,,,,,,,,,,,,,,,,,,,,,,,,,,,,
296635,2022-10-07_24h10.51.353,vts_reward_expectancy,2022.2.4,Win32,60.84575601,Chrome,1280,720,,,l,4.0203,1,128,0,1,7,19,8,1,0,0,1,0,0,0,0,1,hexagon,star,,,,,,,,,,,,,,,,,,,,,,,,,,,,,,,,,,,,,,,,,,,,,,,,,,,,,,
296635,2022-10-07_24h10.51.353,vts_reward_expectancy,2022.2.4,Win32,60.84575601,Chrome,1280,720,,,l,2.0954,10,138,0,1,8,20,6,1,0,0,1,0,1,0,0,0,hexagon,triangle,,,,,,,,,,,,,,,,,,,,,,,,,,,,,,,,,,,,,,,,,,,,,,,,,,,,,,
296635,2022-10-07_24h10.51.353,vts_reward_expectancy,2022.2.4,Win32,60.84575601,Chrome,1280,720,,,a,3.3629,1,139,0,1,9,21,1,1,1,0,0,0,0,0,1,0,triangle,hexagon,,,,,,,,,,,,,,,,,,,,,,,,,,,,,,,,,,,,,,,,,,,,,,,,,,,,,,
296635,2022-10-07_24h10.51.353,vts_reward_expectancy,2022.2.4,Win32,60.84575601,Chrome,1280,720,,,a,1.3697,10,149,0,1,10,22,2,1,1,0,0,0,0,0,0,1,triangle,star,,,,,,,,,,,,,,,,,,,,,,,,,,,,,,,,,,,,,,,,,,,,,,,,,,,,,,
296635,2022-10-07_24h10.51.353,vts_reward_expectancy,2022.2.4,Win32,60.84575601,Chrome,1280,720,,,l,3.3917,1,150,0,1,11,23,7,1,0,0,1,0,0,1,0,0,hexagon,circle,,,,,,,,,,,,,,,,,,,,,,,,,,,,,,,,,,,,,,,,,,,,,,,,,,,,,,
296635,2022-10-07_24h10.51.353,vts_reward_expectancy,2022.2.4,Win32,60.84575601,Chrome,1280,720,,,l,1.4336,10,160,0,2,0,24,8,1,0,0,1,0,0,0,0,1,hexagon,star,,,,,,,,,,,,,,,,,,,,,,,,,,,,,,,,,,,,,,,,,,,,,,,,,,,,,,
296635,2022-10-07_24h10.51.353,vts_reward_expectancy,2022.2.4,Win32,60.84575601,Chrome,1280,720,,,a,4.217,10,170,0,2,1,25,2,1,1,0,0,0,0,0,0,1,triangle,star,,,,,,,,,,,,,,,,,,,,,,,,,,,,,,,,,,,,,,,,,,,,,,,,,,,,,,
296635,2022-10-07_24h10.51.353,vts_reward_expectancy,2022.2.4,Win32,60.84575601,Chrome,1280,720,,,l,2.1608,10,180,0,2,2,26,9,1,0,0,0,1,1,0,0,0,star,triangle,,,,,,,,,,,,,,,,,,,,,,,,,,,,,,,,,,,,,,,,,,,,,,,,,,,,,,
296635,2022-10-07_24h10.51.353,vts_reward_expectancy,2022.2.4,Win32,60.84575601,Chrome,1280,720,,,a,3.9542,10,190,0,2,3,27,1,1,1,0,0,0,0,0,1,0,triangle,hexagon,,,,,,,,,,,,,,,,,,,,,,,,,,,,,,,,,,,,,,,,,,,,,,,,,,,,,,
296635,2022-10-07_24h10.51.353,vts_reward_expectancy,2022.2.4,Win32,60.84575601,Chrome,1280,720,,,l,3.2004,1,191,0,2,4,28,7,1,0,0,1,0,0,1,0,0,hexagon,circle,,,,,,,,,,,,,,,,,,,,,,,,,,,,,,,,,,,,,,,,,,,,,,,,,,,,,,
296635,2022-10-07_24h10.51.353,vts_reward_expectancy,2022.2.4,Win32,60.84575601,Chrome,1280,720,,,l,3.6337,1,192,0,2,5,29,10,1,0,0,0,1,0,1,0,0,star ,circle,,,,,,,,,,,,,,,,,,,,,,,,,,,,,,,,,,,,,,,,,,,,,,,,,,,,,,
296635,2022-10-07_24h10.51.353,vts_reward_expectancy,2022.2.4,Win32,60.84575601,Chrome,1280,720,,,a,2.9147,1,193,0,2,6,30,3,1,0,1,0,0,1,0,0,0,circle,triangle,,,,,,,,,,,,,,,,,,,,,,,,,,,,,,,,,,,,,,,,,,,,,,,,,,,,,,
296635,2022-10-07_24h10.51.353,vts_reward_expectancy,2022.2.4,Win32,60.84575601,Chrome,1280,720,,,l,3.2676,1,194,0,2,7,31,11,1,0,0,0,1,0,0,1,0,star,hexagon,,,,,,,,,,,,,,,,,,,,,,,,,,,,,,,,,,,,,,,,,,,,,,,,,,,,,,
296635,2022-10-07_24h10.51.353,vts_reward_expectancy,2022.2.4,Win32,60.84575601,Chrome,1280,720,,,l,4.1873,10,204,0,2,8,32,5,1,0,1,0,0,0,0,0,1,circle,star,,,,,,,,,,,,,,,,,,,,,,,,,,,,,,,,,,,,,,,,,,,,,,,,,,,,,,
296635,2022-10-07_24h10.51.353,vts_reward_expectancy,2022.2.4,Win32,60.84575601,Chrome,1280,720,,,l,1.918,1,205,0,2,9,33,6,1,0,0,1,0,1,0,0,0,hexagon,triangle,,,,,,,,,,,,,,,,,,,,,,,,,,,,,,,,,,,,,,,,,,,,,,,,,,,,,,
296635,2022-10-07_24h10.51.353,vts_reward_expectancy,2022.2.4,Win32,60.84575601,Chrome,1280,720,,,l,3.4009,1,206,0,2,10,34,4,1,0,1,0,0,0,0,1,0,circle,hexagon,,,,,,,,,,,,,,,,,,,,,,,,,,,,,,,,,,,,,,,,,,,,,,,,,,,,,,
296635,2022-10-07_24h10.51.353,vts_reward_expectancy,2022.2.4,Win32,60.84575601,Chrome,1280,720,,,a,3.1315,10,216,0,2,11,35,0,1,1,0,0,0,0,1,0,0,triangle,circle,,,,,,,,,,,,,,,,,,,,,,,,,,,,,,,,,,,,,,,,,,,,,,,,,,,,,,
296635,2022-10-07_24h10.51.353,vts_reward_expectancy,2022.2.4,Win32,60.84575601,Chrome,1280,720,,,l,2.5533,10,226,1,0,0,0,9,1,0,0,0,1,1,0,0,0,star,triangle,,,,,,,,,,,,,,,,,,,,,,,,,,,,,,,,,,,,,,,,,,,,,,,,,,,,,,
296635,2022-10-07_24h10.51.353,vts_reward_expectancy,2022.2.4,Win32,60.84575601,Chrome,1280,720,,,l,2.9786,1,227,1,0,1,1,5,1,0,1,0,0,0,0,0,1,circle,star,,,,,,,,,,,,,,,,,,,,,,,,,,,,,,,,,,,,,,,,,,,,,,,,,,,,,,
296635,2022-10-07_24h10.51.353,vts_reward_expectancy,2022.2.4,Win32,60.84575601,Chrome,1280,720,,,a,3.7703,10,237,1,0,2,2,0,1,1,0,0,0,0,1,0,0,triangle,circle,,,,,,,,,,,,,,,,,,,,,,,,,,,,,,,,,,,,,,,,,,,,,,,,,,,,,,
296635,2022-10-07_24h10.51.353,vts_reward_expectancy,2022.2.4,Win32,60.84575601,Chrome,1280,720,,,a,3.7385,1,238,1,0,3,3,7,1,0,0,1,0,0,1,0,0,hexagon,circle,,,,,,,,,,,,,,,,,,,,,,,,,,,,,,,,,,,,,,,,,,,,,,,,,,,,,,
296635,2022-10-07_24h10.51.353,vts_reward_expectancy,2022.2.4,Win32,60.84575601,Chrome,1280,720,,,a,3.7521,10,248,1,0,4,4,1,1,1,0,0,0,0,0,1,0,triangle,hexagon,,,,,,,,,,,,,,,,,,,,,,,,,,,,,,,,,,,,,,,,,,,,,,,,,,,,,,
296635,2022-10-07_24h10.51.353,vts_reward_expectancy,2022.2.4,Win32,60.84575601,Chrome,1280,720,,,l,4.3024,1,249,1,0,5,5,10,1,0,0,0,1,0,1,0,0,star ,circle,,,,,,,,,,,,,,,,,,,,,,,,,,,,,,,,,,,,,,,,,,,,,,,,,,,,,,
296635,2022-10-07_24h10.51.353,vts_reward_expectancy,2022.2.4,Win32,60.84575601,Chrome,1280,720,,,a,4.1506,10,259,1,0,6,6,2,1,1,0,0,0,0,0,0,1,triangle,star,,,,,,,,,,,,,,,,,,,,,,,,,,,,,,,,,,,,,,,,,,,,,,,,,,,,,,
296635,2022-10-07_24h10.51.353,vts_reward_expectancy,2022.2.4,Win32,60.84575601,Chrome,1280,720,,,a,2.3881,1,260,1,0,7,7,3,1,0,1,0,0,1,0,0,0,circle,triangle,,,,,,,,,,,,,,,,,,,,,,,,,,,,,,,,,,,,,,,,,,,,,,,,,,,,,,
296635,2022-10-07_24h10.51.353,vts_reward_expectancy,2022.2.4,Win32,60.84575601,Chrome,1280,720,,,l,3.7672,10,270,1,0,8,8,6,1,0,0,1,0,1,0,0,0,hexagon,triangle,,,,,,,,,,,,,,,,,,,,,,,,,,,,,,,,,,,,,,,,,,,,,,,,,,,,,,
296635,2022-10-07_24h10.51.353,vts_reward_expectancy,2022.2.4,Win32,60.84575601,Chrome,1280,720,,,l,3.0685,1,271,1,0,9,9,8,1,0,0,1,0,0,0,0,1,hexagon,star,,,,,,,,,,,,,,,,,,,,,,,,,,,,,,,,,,,,,,,,,,,,,,,,,,,,,,
296635,2022-10-07_24h10.51.353,vts_reward_expectancy,2022.2.4,Win32,60.84575601,Chrome,1280,720,,,l,3.3685,1,272,1,0,10,10,11,1,0,0,0,1,0,0,1,0,star,hexagon,,,,,,,,,,,,,,,,,,,,,,,,,,,,,,,,,,,,,,,,,,,,,,,,,,,,,,
296635,2022-10-07_24h10.51.353,vts_reward_expectancy,2022.2.4,Win32,60.84575601,Chrome,1280,720,,,l,3.6542,1,273,1,0,11,11,4,1,0,1,0,0,0,0,1,0,circle,hexagon,,,,,,,,,,,,,,,,,,,,,,,,,,,,,,,,,,,,,,,,,,,,,,,,,,,,,,
296635,2022-10-07_24h10.51.353,vts_reward_expectancy,2022.2.4,Win32,60.84575601,Chrome,1280,720,,,l,0.6258,10,283,1,1,0,12,3,1,0,1,0,0,1,0,0,0,circle,triangle,,,,,,,,,,,,,,,,,,,,,,,,,,,,,,,,,,,,,,,,,,,,,,,,,,,,,,
296635,2022-10-07_24h10.51.353,vts_reward_expectancy,2022.2.4,Win32,60.84575601,Chrome,1280,720,,,a,0.7877,10,293,1,1,1,13,10,1,0,0,0,1,0,1,0,0,star ,circle,,,,,,,,,,,,,,,,,,,,,,,,,,,,,,,,,,,,,,,,,,,,,,,,,,,,,,
296635,2022-10-07_24h10.51.353,vts_reward_expectancy,2022.2.4,Win32,60.84575601,Chrome,1280,720,,,l,0.6107,10,303,1,1,2,14,6,1,0,0,1,0,1,0,0,0,hexagon,triangle,,,,,,,,,,,,,,,,,,,,,,,,,,,,,,,,,,,,,,,,,,,,,,,,,,,,,,
296635,2022-10-07_24h10.51.353,vts_reward_expectancy,2022.2.4,Win32,60.84575601,Chrome,1280,720,,,a,1.3195,10,313,1,1,3,15,4,1,0,1,0,0,0,0,1,0,circle,hexagon,,,,,,,,,,,,,,,,,,,,,,,,,,,,,,,,,,,,,,,,,,,,,,,,,,,,,,
296635,2022-10-07_24h10.51.353,vts_reward_expectancy,2022.2.4,Win32,60.84575601,Chrome,1280,720,,,l,0.9766,1,314,1,1,4,16,5,1,0,1,0,0,0,0,0,1,circle,star,,,,,,,,,,,,,,,,,,,,,,,,,,,,,,,,,,,,,,,,,,,,,,,,,,,,,,
296635,2022-10-07_24h10.51.353,vts_reward_expectancy,2022.2.4,Win32,60.84575601,Chrome,1280,720,,,l,1.5867,1,315,1,1,5,17,1,1,1,0,0,0,0,0,1,0,triangle,hexagon,,,,,,,,,,,,,,,,,,,,,,,,,,,,,,,,,,,,,,,,,,,,,,,,,,,,,,
296635,2022-10-07_24h10.51.353,vts_reward_expectancy,2022.2.4,Win32,60.84575601,Chrome,1280,720,,,a,1.2515,1,316,1,1,6,18,7,1,0,0,1,0,0,1,0,0,hexagon,circle,,,,,,,,,,,,,,,,,,,,,,,,,,,,,,,,,,,,,,,,,,,,,,,,,,,,,,
296635,2022-10-07_24h10.51.353,vts_reward_expectancy,2022.2.4,Win32,60.84575601,Chrome,1280,720,,,a,1.5506,10,326,1,1,7,19,0,1,1,0,0,0,0,1,0,0,triangle,circle,,,,,,,,,,,,,,,,,,,,,,,,,,,,,,,,,,,,,,,,,,,,,,,,,,,,,,
296635,2022-10-07_24h10.51.353,vts_reward_expectancy,2022.2.4,Win32,60.84575601,Chrome,1280,720,,,l,1.6088,10,336,1,1,8,20,8,1,0,0,1,0,0,0,0,1,hexagon,star,,,,,,,,,,,,,,,,,,,,,,,,,,,,,,,,,,,,,,,,,,,,,,,,,,,,,,
296635,2022-10-07_24h10.51.353,vts_reward_expectancy,2022.2.4,Win32,60.84575601,Chrome,1280,720,,,l,0.7863,10,346,1,1,9,21,9,1,0,0,0,1,1,0,0,0,star,triangle,,,,,,,,,,,,,,,,,,,,,,,,,,,,,,,,,,,,,,,,,,,,,,,,,,,,,,
296635,2022-10-07_24h10.51.353,vts_reward_expectancy,2022.2.4,Win32,60.84575601,Chrome,1280,720,,,l,1.6054,10,356,1,1,10,22,2,1,1,0,0,0,0,0,0,1,triangle,star,,,,,,,,,,,,,,,,,,,,,,,,,,,,,,,,,,,,,,,,,,,,,,,,,,,,,,
296635,2022-10-07_24h10.51.353,vts_reward_expectancy,2022.2.4,Win32,60.84575601,Chrome,1280,720,,,a,1.0361,10,366,1,1,11,23,11,1,0,0,0,1,0,0,1,0,star,hexagon,,,,,,,,,,,,,,,,,,,,,,,,,,,,,,,,,,,,,,,,,,,,,,,,,,,,,,
296635,2022-10-07_24h10.51.353,vts_reward_expectancy,2022.2.4,Win32,60.84575601,Chrome,1280,720,,,l,0.7867,1,367,1,2,0,24,6,1,0,0,1,0,1,0,0,0,hexagon,triangle,,,,,,,,,,,,,,,,,,,,,,,,,,,,,,,,,,,,,,,,,,,,,,,,,,,,,,
296635,2022-10-07_24h10.51.353,vts_reward_expectancy,2022.2.4,Win32,60.84575601,Chrome,1280,720,,,l,0.9013,10,377,1,2,1,25,8,1,0,0,1,0,0,0,0,1,hexagon,star,,,,,,,,,,,,,,,,,,,,,,,,,,,,,,,,,,,,,,,,,,,,,,,,,,,,,,
296635,2022-10-07_24h10.51.353,vts_reward_expectancy,2022.2.4,Win32,60.84575601,Chrome,1280,720,,,a,1.5625,1,378,1,2,2,26,2,1,1,0,0,0,0,0,0,1,triangle,star,,,,,,,,,,,,,,,,,,,,,,,,,,,,,,,,,,,,,,,,,,,,,,,,,,,,,,
296635,2022-10-07_24h10.51.353,vts_reward_expectancy,2022.2.4,Win32,60.84575601,Chrome,1280,720,,,a,1.5068,10,388,1,2,3,27,4,1,0,1,0,0,0,0,1,0,circle,hexagon,,,,,,,,,,,,,,,,,,,,,,,,,,,,,,,,,,,,,,,,,,,,,,,,,,,,,,
296635,2022-10-07_24h10.51.353,vts_reward_expectancy,2022.2.4,Win32,60.84575601,Chrome,1280,720,,,l,1.084,1,389,1,2,4,28,3,1,0,1,0,0,1,0,0,0,circle,triangle,,,,,,,,,,,,,,,,,,,,,,,,,,,,,,,,,,,,,,,,,,,,,,,,,,,,,,
296635,2022-10-07_24h10.51.353,vts_reward_expectancy,2022.2.4,Win32,60.84575601,Chrome,1280,720,,,l,1.2838,10,399,1,2,5,29,5,1,0,1,0,0,0,0,0,1,circle,star,,,,,,,,,,,,,,,,,,,,,,,,,,,,,,,,,,,,,,,,,,,,,,,,,,,,,,
296635,2022-10-07_24h10.51.353,vts_reward_expectancy,2022.2.4,Win32,60.84575601,Chrome,1280,720,,,a,2.0513,1,400,1,2,6,30,7,1,0,0,1,0,0,1,0,0,hexagon,circle,,,,,,,,,,,,,,,,,,,,,,,,,,,,,,,,,,,,,,,,,,,,,,,,,,,,,,
296635,2022-10-07_24h10.51.353,vts_reward_expectancy,2022.2.4,Win32,60.84575601,Chrome,1280,720,,,l,0.6044,10,410,1,2,7,31,9,1,0,0,0,1,1,0,0,0,star,triangle,,,,,,,,,,,,,,,,,,,,,,,,,,,,,,,,,,,,,,,,,,,,,,,,,,,,,,
296635,2022-10-07_24h10.51.353,vts_reward_expectancy,2022.2.4,Win32,60.84575601,Chrome,1280,720,,,l,1.3762,10,420,1,2,8,32,11,1,0,0,0,1,0,0,1,0,star,hexagon,,,,,,,,,,,,,,,,,,,,,,,,,,,,,,,,,,,,,,,,,,,,,,,,,,,,,,
296635,2022-10-07_24h10.51.353,vts_reward_expectancy,2022.2.4,Win32,60.84575601,Chrome,1280,720,,,a,0.7351,10,430,1,2,9,33,10,1,0,0,0,1,0,1,0,0,star ,circle,,,,,,,,,,,,,,,,,,,,,,,,,,,,,,,,,,,,,,,,,,,,,,,,,,,,,,
296635,2022-10-07_24h10.51.353,vts_reward_expectancy,2022.2.4,Win32,60.84575601,Chrome,1280,720,,,a,0.867,10,440,1,2,10,34,1,1,1,0,0,0,0,0,1,0,triangle,hexagon,,,,,,,,,,,,,,,,,,,,,,,,,,,,,,,,,,,,,,,,,,,,,,,,,,,,,,
296635,2022-10-07_24h10.51.353,vts_reward_expectancy,2022.2.4,Win32,60.84575601,Chrome,1280,720,,,l,2.2268,10,450,1,2,11,35,0,1,1,0,0,0,0,1,0,0,triangle,circle,,,,,,,,,,,,,,,,,,,,,,,,,,,,,,,,,,,,,,,,,,,,,,,,,,,,,,
296635,2022-10-07_24h10.51.353,vts_reward_expectancy,2022.2.4,Win32,60.84575601,Chrome,1280,720,,,l,1.1245,10,460,2,0,0,0,5,1,0,1,0,0,0,0,0,1,circle,star,,,,,,,,,,,,,,,,,,,,,,,,,,,,,,,,,,,,,,,,,,,,,,,,,,,,,,
296635,2022-10-07_24h10.51.353,vts_reward_expectancy,2022.2.4,Win32,60.84575601,Chrome,1280,720,,,a,0.9021,10,470,2,0,1,1,1,1,1,0,0,0,0,0,1,0,triangle,hexagon,,,,,,,,,,,,,,,,,,,,,,,,,,,,,,,,,,,,,,,,,,,,,,,,,,,,,,
296635,2022-10-07_24h10.51.353,vts_reward_expectancy,2022.2.4,Win32,60.84575601,Chrome,1280,720,,,a,0.7715,10,480,2,0,2,2,9,1,0,0,0,1,1,0,0,0,star,triangle,,,,,,,,,,,,,,,,,,,,,,,,,,,,,,,,,,,,,,,,,,,,,,,,,,,,,,
296635,2022-10-07_24h10.51.353,vts_reward_expectancy,2022.2.4,Win32,60.84575601,Chrome,1280,720,,,l,1.4188,1,481,2,0,3,3,11,1,0,0,0,1,0,0,1,0,star,hexagon,,,,,,,,,,,,,,,,,,,,,,,,,,,,,,,,,,,,,,,,,,,,,,,,,,,,,,
296635,2022-10-07_24h10.51.353,vts_reward_expectancy,2022.2.4,Win32,60.84575601,Chrome,1280,720,,,a,1.2857,1,482,2,0,4,4,7,1,0,0,1,0,0,1,0,0,hexagon,circle,,,,,,,,,,,,,,,,,,,,,,,,,,,,,,,,,,,,,,,,,,,,,,,,,,,,,,
296635,2022-10-07_24h10.51.353,vts_reward_expectancy,2022.2.4,Win32,60.84575601,Chrome,1280,720,,,l,1.4011,1,483,2,0,5,5,10,1,0,0,0,1,0,1,0,0,star ,circle,,,,,,,,,,,,,,,,,,,,,,,,,,,,,,,,,,,,,,,,,,,,,,,,,,,,,,
296635,2022-10-07_24h10.51.353,vts_reward_expectancy,2022.2.4,Win32,60.84575601,Chrome,1280,720,,,l,1.0936,1,484,2,0,6,6,4,1,0,1,0,0,0,0,1,0,circle,hexagon,,,,,,,,,,,,,,,,,,,,,,,,,,,,,,,,,,,,,,,,,,,,,,,,,,,,,,
296635,2022-10-07_24h10.51.353,vts_reward_expectancy,2022.2.4,Win32,60.84575601,Chrome,1280,720,,,l,0.5223,1,485,2,0,7,7,3,1,0,1,0,0,1,0,0,0,circle,triangle,,,,,,,,,,,,,,,,,,,,,,,,,,,,,,,,,,,,,,,,,,,,,,,,,,,,,,
296635,2022-10-07_24h10.51.353,vts_reward_expectancy,2022.2.4,Win32,60.84575601,Chrome,1280,720,,,l,2.0835,1,486,2,0,8,8,8,1,0,0,1,0,0,0,0,1,hexagon,star,,,,,,,,,,,,,,,,,,,,,,,,,,,,,,,,,,,,,,,,,,,,,,,,,,,,,,
296635,2022-10-07_24h10.51.353,vts_reward_expectancy,2022.2.4,Win32,60.84575601,Chrome,1280,720,,,a,1.1817,10,496,2,0,9,9,0,1,1,0,0,0,0,1,0,0,triangle,circle,,,,,,,,,,,,,,,,,,,,,,,,,,,,,,,,,,,,,,,,,,,,,,,,,,,,,,
296635,2022-10-07_24h10.51.353,vts_reward_expectancy,2022.2.4,Win32,60.84575601,Chrome,1280,720,,,l,0.8963,1,497,2,0,10,10,6,1,0,0,1,0,1,0,0,0,hexagon,triangle,,,,,,,,,,,,,,,,,,,,,,,,,,,,,,,,,,,,,,,,,,,,,,,,,,,,,,
296635,2022-10-07_24h10.51.353,vts_reward_expectancy,2022.2.4,Win32,60.84575601,Chrome,1280,720,,,l,0.9657,10,507,2,0,11,11,2,1,1,0,0,0,0,0,0,1,triangle,star,,,,,,,,,,,,,,,,,,,,,,,,,,,,,,,,,,,,,,,,,,,,,,,,,,,,,,
296635,2022-10-07_24h10.51.353,vts_reward_expectancy,2022.2.4,Win32,60.84575601,Chrome,1280,720,,,l,0.6643,1,508,2,1,0,12,5,1,0,1,0,0,0,0,0,1,circle,star,,,,,,,,,,,,,,,,,,,,,,,,,,,,,,,,,,,,,,,,,,,,,,,,,,,,,,
296635,2022-10-07_24h10.51.353,vts_reward_expectancy,2022.2.4,Win32,60.84575601,Chrome,1280,720,,,l,0.8393,10,518,2,1,1,13,10,1,0,0,0,1,0,1,0,0,star ,circle,,,,,,,,,,,,,,,,,,,,,,,,,,,,,,,,,,,,,,,,,,,,,,,,,,,,,,
296635,2022-10-07_24h10.51.353,vts_reward_expectancy,2022.2.4,Win32,60.84575601,Chrome,1280,720,,,l,0.767,1,519,2,1,2,14,11,1,0,0,0,1,0,0,1,0,star,hexagon,,,,,,,,,,,,,,,,,,,,,,,,,,,,,,,,,,,,,,,,,,,,,,,,,,,,,,
296635,2022-10-07_24h10.51.353,vts_reward_expectancy,2022.2.4,Win32,60.84575601,Chrome,1280,720,,,a,0.7002,1,520,2,1,3,15,2,1,1,0,0,0,0,0,0,1,triangle,star,,,,,,,,,,,,,,,,,,,,,,,,,,,,,,,,,,,,,,,,,,,,,,,,,,,,,,
296635,2022-10-07_24h10.51.353,vts_reward_expectancy,2022.2.4,Win32,60.84575601,Chrome,1280,720,,,l,0.7494,10,530,2,1,4,16,9,1,0,0,0,1,1,0,0,0,star,triangle,,,,,,,,,,,,,,,,,,,,,,,,,,,,,,,,,,,,,,,,,,,,,,,,,,,,,,
296635,2022-10-07_24h10.51.353,vts_reward_expectancy,2022.2.4,Win32,60.84575601,Chrome,1280,720,,,a,0.6194,1,531,2,1,5,17,8,1,0,0,1,0,0,0,0,1,hexagon,star,,,,,,,,,,,,,,,,,,,,,,,,,,,,,,,,,,,,,,,,,,,,,,,,,,,,,,
296635,2022-10-07_24h10.51.353,vts_reward_expectancy,2022.2.4,Win32,60.84575601,Chrome,1280,720,,,a,1.3572,1,532,2,1,6,18,1,1,1,0,0,0,0,0,1,0,triangle,hexagon,,,,,,,,,,,,,,,,,,,,,,,,,,,,,,,,,,,,,,,,,,,,,,,,,,,,,,
296635,2022-10-07_24h10.51.353,vts_reward_expectancy,2022.2.4,Win32,60.84575601,Chrome,1280,720,,,l,1.4164,1,533,2,1,7,19,4,1,0,1,0,0,0,0,1,0,circle,hexagon,,,,,,,,,,,,,,,,,,,,,,,,,,,,,,,,,,,,,,,,,,,,,,,,,,,,,,
296635,2022-10-07_24h10.51.353,vts_reward_expectancy,2022.2.4,Win32,60.84575601,Chrome,1280,720,,,a,0.7491,1,534,2,1,8,20,3,1,0,1,0,0,1,0,0,0,circle,triangle,,,,,,,,,,,,,,,,,,,,,,,,,,,,,,,,,,,,,,,,,,,,,,,,,,,,,,
296635,2022-10-07_24h10.51.353,vts_reward_expectancy,2022.2.4,Win32,60.84575601,Chrome,1280,720,,,l,0.6606,10,544,2,1,9,21,7,1,0,0,1,0,0,1,0,0,hexagon,circle,,,,,,,,,,,,,,,,,,,,,,,,,,,,,,,,,,,,,,,,,,,,,,,,,,,,,,
296635,2022-10-07_24h10.51.353,vts_reward_expectancy,2022.2.4,Win32,60.84575601,Chrome,1280,720,,,l,0.5193,10,554,2,1,10,22,6,1,0,0,1,0,1,0,0,0,hexagon,triangle,,,,,,,,,,,,,,,,,,,,,,,,,,,,,,,,,,,,,,,,,,,,,,,,,,,,,,
296635,2022-10-07_24h10.51.353,vts_reward_expectancy,2022.2.4,Win32,60.84575601,Chrome,1280,720,,,l,0.5423,10,564,2,1,11,23,0,1,1,0,0,0,0,1,0,0,triangle,circle,,,,,,,,,,,,,,,,,,,,,,,,,,,,,,,,,,,,,,,,,,,,,,,,,,,,,,
296635,2022-10-07_24h10.51.353,vts_reward_expectancy,2022.2.4,Win32,60.84575601,Chrome,1280,720,,,l,1.2999,10,574,2,2,0,24,7,1,0,0,1,0,0,1,0,0,hexagon,circle,,,,,,,,,,,,,,,,,,,,,,,,,,,,,,,,,,,,,,,,,,,,,,,,,,,,,,
296635,2022-10-07_24h10.51.353,vts_reward_expectancy,2022.2.4,Win32,60.84575601,Chrome,1280,720,,,l,0.874,10,584,2,2,1,25,2,1,1,0,0,0,0,0,0,1,triangle,star,,,,,,,,,,,,,,,,,,,,,,,,,,,,,,,,,,,,,,,,,,,,,,,,,,,,,,
296635,2022-10-07_24h10.51.353,vts_reward_expectancy,2022.2.4,Win32,60.84575601,Chrome,1280,720,,,a,1.3771,10,594,2,2,2,26,9,1,0,0,0,1,1,0,0,0,star,triangle,,,,,,,,,,,,,,,,,,,,,,,,,,,,,,,,,,,,,,,,,,,,,,,,,,,,,,
296635,2022-10-07_24h10.51.353,vts_reward_expectancy,2022.2.4,Win32,60.84575601,Chrome,1280,720,,,l,0.8996,1,595,2,2,3,27,10,1,0,0,0,1,0,1,0,0,star ,circle,,,,,,,,,,,,,,,,,,,,,,,,,,,,,,,,,,,,,,,,,,,,,,,,,,,,,,
296635,2022-10-07_24h10.51.353,vts_reward_expectancy,2022.2.4,Win32,60.84575601,Chrome,1280,720,,,l,1.1758,1,596,2,2,4,28,1,1,1,0,0,0,0,0,1,0,triangle,hexagon,,,,,,,,,,,,,,,,,,,,,,,,,,,,,,,,,,,,,,,,,,,,,,,,,,,,,,
296635,2022-10-07_24h10.51.353,vts_reward_expectancy,2022.2.4,Win32,60.84575601,Chrome,1280,720,,,l,0.9778,10,606,2,2,5,29,0,1,1,0,0,0,0,1,0,0,triangle,circle,,,,,,,,,,,,,,,,,,,,,,,,,,,,,,,,,,,,,,,,,,,,,,,,,,,,,,
296635,2022-10-07_24h10.51.353,vts_reward_expectancy,2022.2.4,Win32,60.84575601,Chrome,1280,720,,,l,1.0087,1,607,2,2,6,30,4,1,0,1,0,0,0,0,1,0,circle,hexagon,,,,,,,,,,,,,,,,,,,,,,,,,,,,,,,,,,,,,,,,,,,,,,,,,,,,,,
296635,2022-10-07_24h10.51.353,vts_reward_expectancy,2022.2.4,Win32,60.84575601,Chrome,1280,720,,,l,0.9108,1,608,2,2,7,31,5,1,0,1,0,0,0,0,0,1,circle,star,,,,,,,,,,,,,,,,,,,,,,,,,,,,,,,,,,,,,,,,,,,,,,,,,,,,,,
296635,2022-10-07_24h10.51.353,vts_reward_expectancy,2022.2.4,Win32,60.84575601,Chrome,1280,720,,,a,0.7878,10,618,2,2,8,32,11,1,0,0,0,1,0,0,1,0,star,hexagon,,,,,,,,,,,,,,,,,,,,,,,,,,,,,,,,,,,,,,,,,,,,,,,,,,,,,,
296635,2022-10-07_24h10.51.353,vts_reward_expectancy,2022.2.4,Win32,60.84575601,Chrome,1280,720,,,a,0.6109,1,619,2,2,9,33,3,1,0,1,0,0,1,0,0,0,circle,triangle,,,,,,,,,,,,,,,,,,,,,,,,,,,,,,,,,,,,,,,,,,,,,,,,,,,,,,
296635,2022-10-07_24h10.51.353,vts_reward_expectancy,2022.2.4,Win32,60.84575601,Chrome,1280,720,,,l,0.7329,10,629,2,2,10,34,8,1,0,0,1,0,0,0,0,1,hexagon,star,,,,,,,,,,,,,,,,,,,,,,,,,,,,,,,,,,,,,,,,,,,,,,,,,,,,,,
296635,2022-10-07_24h10.51.353,vts_reward_expectancy,2022.2.4,Win32,60.84575601,Chrome,1280,720,,,l,1.5938,10,639,2,2,11,35,6,1,0,0,1,0,1,0,0,0,hexagon,triangle,,,,,,,,,,,,,,,,,,,,,,,,,,,,,,,,,,,,,,,,,,,,,,,,,,,,,,
296635,2022-10-07_24h10.51.353,vts_reward_expectancy,2022.2.4,Win32,60.84575601,Chrome,1280,720,,,,,,,,,,,,,,,,,,,,,,,W,146,hexagon,0,0,,0,0,0,0,0,1,,,,,,,,,,,,,,,,,,,,,,,,,,,,,,,,,,,,,,,,,,
296635,2022-10-07_24h10.51.353,vts_reward_expectancy,2022.2.4,Win32,60.84575601,Chrome,1280,720,,,,,,,,,,,,,,,,,,,,,,,B,125,circle,1,1,d,0,1,0,1,0,1,1.3809,,,,,,,,,,,,,,,,,,,,,,,,,,,,,,,,,,,,,,,,,
296635,2022-10-07_24h10.51.353,vts_reward_expectancy,2022.2.4,Win32,60.84575601,Chrome,1280,720,,,,,,,,,,,,,,,,,,,,,,,U,174,star,1,0,f,0,2,0,2,0,1,1.4525,,,,,,,,,,,,,,,,,,,,,,,,,,,,,,,,,,,,,,,,,
296635,2022-10-07_24h10.51.353,vts_reward_expectancy,2022.2.4,Win32,60.84575601,Chrome,1280,720,,,,,,,,,,,,,,,,,,,,,,,H,160,triangle,1,0,d,0,3,0,3,0,1,1.0308,,,,,,,,,,,,,,,,,,,,,,,,,,,,,,,,,,,,,,,,,
296635,2022-10-07_24h10.51.353,vts_reward_expectancy,2022.2.4,Win32,60.84575601,Chrome,1280,720,,,,,,,,,,,,,,,,,,,,,,,D,181,hexagon,1,0,d,0,4,0,4,0,1,1.0531,,,,,,,,,,,,,,,,,,,,,,,,,,,,,,,,,,,,,,,,,
296635,2022-10-07_24h10.51.353,vts_reward_expectancy,2022.2.4,Win32,60.84575601,Chrome,1280,720,,,,,,,,,,,,,,,,,,,,,,,Y,139,circle,1,0,f,0,5,0,5,0,1,1.0711,,,,,,,,,,,,,,,,,,,,,,,,,,,,,,,,,,,,,,,,,
296635,2022-10-07_24h10.51.353,vts_reward_expectancy,2022.2.4,Win32,60.84575601,Chrome,1280,720,,,,,,,,,,,,,,,,,,,,,,,F,132,star,1,0,d,0,6,0,6,0,1,1.2708,,,,,,,,,,,,,,,,,,,,,,,,,,,,,,,,,,,,,,,,,
296635,2022-10-07_24h10.51.353,vts_reward_expectancy,2022.2.4,Win32,60.84575601,Chrome,1280,720,,,,,,,,,,,,,,,,,,,,,,,S,167,triangle,1,0,f,0,7,0,7,0,1,1.6303,,,,,,,,,,,,,,,,,,,,,,,,,,,,,,,,,,,,,,,,,
296635,2022-10-07_24h10.51.353,vts_reward_expectancy,2022.2.4,Win32,60.84575601,Chrome,1280,720,,,,,,,,,,,,,,,,,,,,,,,W,146,circle,1,0,f,0,8,0,8,0,1,1.2129,,,,,,,,,,,,,,,,,,,,,,,,,,,,,,,,,,,,,,,,,
296635,2022-10-07_24h10.51.353,vts_reward_expectancy,2022.2.4,Win32,60.84575601,Chrome,1280,720,,,,,,,,,,,,,,,,,,,,,,,B,125,star,1,0,d,0,9,0,9,0,1,0.6402,,,,,,,,,,,,,,,,,,,,,,,,,,,,,,,,,,,,,,,,,
296635,2022-10-07_24h10.51.353,vts_reward_expectancy,2022.2.4,Win32,60.84575601,Chrome,1280,720,,,,,,,,,,,,,,,,,,,,,,,Y,181,triangle,1,0,,1,,,,,,,k,0.9826,0,0,0,0,1,,,,,,,,,,,,,,,,,,,,,,,,,,,,,,,,,,
296635,2022-10-07_24h10.51.353,vts_reward_expectancy,2022.2.4,Win32,60.84575601,Chrome,1280,720,,,,,,,,,,,,,,,,,,,,,,,F,125,circle,1,0,,1,,,,,,,j,1.0497,1,0,1,0,1,,,,,,,,,,,,,,,,,,,,,,,,,,,,,,,,,,
296635,2022-10-07_24h10.51.353,vts_reward_expectancy,2022.2.4,Win32,60.84575601,Chrome,1280,720,,,,,,,,,,,,,,,,,,,,,,,B,160,star,1,0,,1,,,,,,,k,1.648,2,0,2,0,1,,,,,,,,,,,,,,,,,,,,,,,,,,,,,,,,,,
296635,2022-10-07_24h10.51.353,vts_reward_expectancy,2022.2.4,Win32,60.84575601,Chrome,1280,720,,,,,,,,,,,,,,,,,,,,,,,H,174,hexagon,1,0,,1,,,,,,,k,0.9592,3,0,3,0,1,,,,,,,,,,,,,,,,,,,,,,,,,,,,,,,,,,
296635,2022-10-07_24h10.51.353,vts_reward_expectancy,2022.2.4,Win32,60.84575601,Chrome,1280,720,,,,,,,,,,,,,,,,,,,,,,,W,146,triangle,1,0,,1,,,,,,,j,0.8801,4,0,4,0,1,,,,,,,,,,,,,,,,,,,,,,,,,,,,,,,,,,
296635,2022-10-07_24h10.51.353,vts_reward_expectancy,2022.2.4,Win32,60.84575601,Chrome,1280,720,,,,,,,,,,,,,,,,,,,,,,,S,139,circle,1,0,,1,,,,,,,j,0.6526,5,0,5,0,1,,,,,,,,,,,,,,,,,,,,,,,,,,,,,,,,,,
296635,2022-10-07_24h10.51.353,vts_reward_expectancy,2022.2.4,Win32,60.84575601,Chrome,1280,720,,,,,,,,,,,,,,,,,,,,,,,U,167,star,1,0,,1,,,,,,,k,0.6629,6,0,6,0,1,,,,,,,,,,,,,,,,,,,,,,,,,,,,,,,,,,
296635,2022-10-07_24h10.51.353,vts_reward_expectancy,2022.2.4,Win32,60.84575601,Chrome,1280,720,,,,,,,,,,,,,,,,,,,,,,,D,132,hexagon,1,0,,1,,,,,,,j,0.8363,7,0,7,0,1,,,,,,,,,,,,,,,,,,,,,,,,,,,,,,,,,,
296635,2022-10-07_24h10.51.353,vts_reward_expectancy,2022.2.4,Win32,60.84575601,Chrome,1280,720,,,,,,,,,,,,,,,,,,,,,,,Y,181,circle,1,0,,1,,,,,,,k,1.0325,8,0,8,0,1,,,,,,,,,,,,,,,,,,,,,,,,,,,,,,,,,,
296635,2022-10-07_24h10.51.353,vts_reward_expectancy,2022.2.4,Win32,60.84575601,Chrome,1280,720,,,,,,,,,,,,,,,,,,,,,,,F,125,star,1,0,,1,,,,,,,j,0.7367,9,0,9,0,1,,,,,,,,,,,,,,,,,,,,,,,,,,,,,,,,,,
296635,2022-10-07_24h10.51.353,vts_reward_expectancy,2022.2.4,Win32,60.84575601,Chrome,1280,720,,,,,0,639,,,,,,,,,,,,,,,,,D,167,star,-1,0,,2,,,,,,,,,,,,,,-1,no_choice,NA,,vtsPrac,0,0,0,0,1,,,,,,,,,,,,,,,,,,,,,,,,
296635,2022-10-07_24h10.51.353,vts_reward_expectancy,2022.2.4,Win32,60.84575601,Chrome,1280,720,,,,,0,639,,,,,,,,,,,,,,,,,U,160,triangle,1,0,,2,,,,,,,,,,,,,,switch,number,numSwt,k,vtsPrac,1,0,1,0,1,1.5206,,,,,,,,,,,,,,,,,,,,,,,
296635,2022-10-07_24h10.51.353,vts_reward_expectancy,2022.2.4,Win32,60.84575601,Chrome,1280,720,,,,,0,639,,,,,,,,,,,,,,,,,S,125,star,1,0,,2,,,,,,,,,,,,,,switch,letter,lettSwt,f,vtsPrac,2,0,2,0,1,1.2024,,,,,,,,,,,,,,,,,,,,,,,
296635,2022-10-07_24h10.51.353,vts_reward_expectancy,2022.2.4,Win32,60.84575601,Chrome,1280,720,,,,,0,639,,,,,,,,,,,,,,,,,H,146,triangle,1,0,,2,,,,,,,,,,,,,,switch,number,numSwt,j,vtsPrac,3,0,3,0,1,1.3646,,,,,,,,,,,,,,,,,,,,,,,
296635,2022-10-07_24h10.51.353,vts_reward_expectancy,2022.2.4,Win32,60.84575601,Chrome,1280,720,,,,,0,639,,,,,,,,,,,,,,,,,D,167,star,1,0,,2,,,,,,,,,,,,,,switch,letter,lettSwt,d,vtsPrac,4,0,4,0,1,0.6548,,,,,,,,,,,,,,,,,,,,,,,
296635,2022-10-07_24h10.51.353,vts_reward_expectancy,2022.2.4,Win32,60.84575601,Chrome,1280,720,,,,,0,639,,,,,,,,,,,,,,,,,U,160,circle,1,0,,2,,,,,,,,,,,,,,repeat,letter,lettRpt,f,vtsPrac,5,0,5,0,1,1.1855,,,,,,,,,,,,,,,,,,,,,,,
296635,2022-10-07_24h10.51.353,vts_reward_expectancy,2022.2.4,Win32,60.84575601,Chrome,1280,720,,,,,0,639,,,,,,,,,,,,,,,,,S,125,hexagon,1,0,,2,,,,,,,,,,,,,,switch,number,numSwt,j,vtsPrac,6,0,6,0,1,0.6264,,,,,,,,,,,,,,,,,,,,,,,
296635,2022-10-07_24h10.51.353,vts_reward_expectancy,2022.2.4,Win32,60.84575601,Chrome,1280,720,,,,,0,639,,,,,,,,,,,,,,,,,H,146,circle,1,0,,2,,,,,,,,,,,,,,repeat,number,numRpt,j,vtsPrac,7,0,7,0,1,0.7189,,,,,,,,,,,,,,,,,,,,,,,
296635,2022-10-07_24h10.51.353,vts_reward_expectancy,2022.2.4,Win32,60.84575601,Chrome,1280,720,,,,,0,639,,,,,,,,,,,,,,,,,U,160,star,1,0,,2,,,,,,,,,,,,,,switch,letter,lettSwt,f,vtsPrac,8,0,8,0,1,0.8421,,,,,,,,,,,,,,,,,,,,,,,
296635,2022-10-07_24h10.51.353,vts_reward_expectancy,2022.2.4,Win32,60.84575601,Chrome,1280,720,,,,,0,639,,,,,,,,,,,,,,,,,S,146,circle,1,0,,2,,,,,,,,,,,,,,switch,number,numSwt,j,vtsPrac,9,0,9,0,1,0.8812,,,,,,,,,,,,,,,,,,,,,,,
296635,2022-10-07_24h10.51.353,vts_reward_expectancy,2022.2.4,Win32,60.84575601,Chrome,1280,720,,,,,0,639,,,,,,,,,,,,,,,,,W,174,hexagon,1,0,,2,,,,,,,,,,,,,,repeat,number,numRpt,k,vtsPrac,10,0,10,0,1,1.2685,,,,,,,,,,,,,,,,,,,,,,,
296635,2022-10-07_24h10.51.353,vts_reward_expectancy,2022.2.4,Win32,60.84575601,Chrome,1280,720,,,,,0,639,,,,,,,,,,,,,,,,,B,167,triangle,1,0,,2,,,,,,,,,,,,,,switch,letter,lettSwt,d,vtsPrac,11,0,11,0,1,0.5938,,,,,,,,,,,,,,,,,,,,,,,
296635,2022-10-07_24h10.51.353,vts_reward_expectancy,2022.2.4,Win32,60.84575601,Chrome,1280,720,,,,,0,639,,,,,,,,,,,,,,,,,W,174,hexagon,1,0,,2,,,,,,,,,,,,,,repeat,letter,lettRpt,f,vtsPrac,12,0,12,0,1,0.7525,,,,,,,,,,,,,,,,,,,,,,,
296635,2022-10-07_24h10.51.353,vts_reward_expectancy,2022.2.4,Win32,60.84575601,Chrome,1280,720,,,,,0,639,,,,,,,,,,,,,,,,,B,146,circle,1,0,,2,,,,,,,,,,,,,,repeat,letter,lettRpt,d,vtsPrac,13,0,13,0,1,0.6828,,,,,,,,,,,,,,,,,,,,,,,
296635,2022-10-07_24h10.51.353,vts_reward_expectancy,2022.2.4,Win32,60.84575601,Chrome,1280,720,,,,,0,639,,,,,,,,,,,,,,,,,H,167,triangle,1,0,,2,,,,,,,,,,,,,,switch,number,numSwt,k,vtsPrac,14,0,14,0,1,1.3223,,,,,,,,,,,,,,,,,,,,,,,
296635,2022-10-07_24h10.51.353,vts_reward_expectancy,2022.2.4,Win32,60.84575601,Chrome,1280,720,,,,,0,639,,,,,,,,,,,,,,,,,U,160,circle,1,0,,2,,,,,,,,,,,,,,switch,letter,lettSwt,f,vtsPrac,15,0,15,0,1,0.7467,,,,,,,,,,,,,,,,,,,,,,,
296635,2022-10-07_24h10.51.353,vts_reward_expectancy,2022.2.4,Win32,60.84575601,Chrome,1280,720,,,,,,,,,,,,,,,,,,,,,,,,,,,,,,,,,,,,,,,,,,,,,,,,,,,,,,,,,,,,,,,,,,,,,,,,,,,,
296635,2022-10-07_24h10.51.353,vts_reward_expectancy,2022.2.4,Win32,60.84575601,Chrome,1280,720,,,,,,,,,,,,,,,,,,,,,,,,,,,,,,,,,,,,,,,,,,,,,,,,,,,,,,,,,,,,,,,,,,,,,,,,,,,,
296635,2022-10-07_24h10.51.353,vts_reward_expectancy,2022.2.4,Win32,60.84575601,Chrome,1280,720,,,,,0,639,,,,,,,,,,,,,,,,,F,167,triangle,1,0,,,,,,,,,,,,,,,,repeat,letter,lettRpt,d,noRew,,,,,,1.6988,0,0,0,0,0,1,,,,,,,,,,,,,,,,,
296635,2022-10-07_24h10.51.353,vts_reward_expectancy,2022.2.4,Win32,60.84575601,Chrome,1280,720,,,,,0,639,,,,,,,,,,,,,,,,,H,181,circle,1,0,,,,,,,,,,,,,,,,repeat,letter,lettRpt,d,noRew,,,,,,1.801,0,1,0,1,0,1,,,,,,,,,,,,,,,,,
296635,2022-10-07_24h10.51.353,vts_reward_expectancy,2022.2.4,Win32,60.84575601,Chrome,1280,720,,,,,0,639,,,,,,,,,,,,,,,,,S,139,triangle,1,0,,,,,,,,,,,,,,,,switch,number,numSwt,j,noRew,,,,,,0.8493,0,2,0,2,0,1,,,,,,,,,,,,,,,,,
296635,2022-10-07_24h10.51.353,vts_reward_expectancy,2022.2.4,Win32,60.84575601,Chrome,1280,720,,,,,0,639,,,,,,,,,,,,,,,,,Y,146,circle,1,0,,,,,,,,,,,,,,,,repeat,number,numRpt,j,noRew,,,,,,1.4971,0,3,0,3,0,1,,,,,,,,,,,,,,,,,
296635,2022-10-07_24h10.51.353,vts_reward_expectancy,2022.2.4,Win32,60.84575601,Chrome,1280,720,,,,,0,639,,,,,,,,,,,,,,,,,F,167,hexagon,1,0,,,,,,,,,,,,,,,,repeat,number,numRpt,k,noRew,,,,,,0.8861,0,4,0,4,0,1,,,,,,,,,,,,,,,,,
296635,2022-10-07_24h10.51.353,vts_reward_expectancy,2022.2.4,Win32,60.84575601,Chrome,1280,720,,,,,0,639,,,,,,,,,,,,,,,,,H,181,star,1,0,,,,,,,,,,,,,,,,switch,letter,lettSwt,d,noRew,,,,,,1.5081,0,5,0,5,0,1,,,,,,,,,,,,,,,,,
296635,2022-10-07_24h10.51.353,vts_reward_expectancy,2022.2.4,Win32,60.84575601,Chrome,1280,720,,,,,0,639,,,,,,,,,,,,,,,,,S,139,star,1,0,,,,,,,,,,,,,,,,repeat,letter,lettRpt,f,noRew,,,,,,1.1911,0,6,0,6,0,1,,,,,,,,,,,,,,,,,
296635,2022-10-07_24h10.51.353,vts_reward_expectancy,2022.2.4,Win32,60.84575601,Chrome,1280,720,,,,,0,639,,,,,,,,,,,,,,,,,Y,146,hexagon,1,0,,,,,,,,,,,,,,,,switch,number,numSwt,j,noRew,,,,,,1.1424,0,7,0,7,0,1,,,,,,,,,,,,,,,,,
296635,2022-10-07_24h10.51.353,vts_reward_expectancy,2022.2.4,Win32,60.84575601,Chrome,1280,720,,,,,0,639,,,,,,,,,,,,,,,,,H,125,triangle,1,0,,,,,,,,,,,,,,,,switch,letter,lettSwt,d,noRew,,,,,,1.2406,0,8,0,8,0,1,,,,,,,,,,,,,,,,,
296635,2022-10-07_24h10.51.353,vts_reward_expectancy,2022.2.4,Win32,60.84575601,Chrome,1280,720,,,,,0,639,,,,,,,,,,,,,,,,,S,132,hexagon,1,0,,,,,,,,,,,,,,,,repeat,letter,lettRpt,f,noRew,,,,,,1.268,0,9,0,9,0,1,,,,,,,,,,,,,,,,,
296635,2022-10-07_24h10.51.353,vts_reward_expectancy,2022.2.4,Win32,60.84575601,Chrome,1280,720,,,,,0,639,,,,,,,,,,,,,,,,,F,160,circle,1,0,,,,,,,,,,,,,,,,repeat,letter,lettRpt,d,noRew,,,,,,0.9396,0,10,0,10,0,1,,,,,,,,,,,,,,,,,
296635,2022-10-07_24h10.51.353,vts_reward_expectancy,2022.2.4,Win32,60.84575601,Chrome,1280,720,,,,,0,639,,,,,,,,,,,,,,,,,D,174,triangle,1,0,,,,,,,,,,,,,,,,switch,number,numSwt,k,noRew,,,,,,0.8688,0,11,0,11,0,1,,,,,,,,,,,,,,,,,
296635,2022-10-07_24h10.51.353,vts_reward_expectancy,2022.2.4,Win32,60.84575601,Chrome,1280,720,,,,,0,639,,,,,,,,,,,,,,,,,H,181,triangle,1,0,,,,,,,,,,,,,,,,repeat,number,numRpt,k,noRew,,,,,,0.7475,0,12,0,12,0,1,,,,,,,,,,,,,,,,,
296635,2022-10-07_24h10.51.353,vts_reward_expectancy,2022.2.4,Win32,60.84575601,Chrome,1280,720,,,,,0,639,,,,,,,,,,,,,,,,,W,146,circle,1,0,,,,,,,,,,,,,,,,switch,letter,lettSwt,f,noRew,,,,,,1.0849,0,13,0,13,0,1,,,,,,,,,,,,,,,,,
296635,2022-10-07_24h10.51.353,vts_reward_expectancy,2022.2.4,Win32,60.84575601,Chrome,1280,720,,,,,0,639,,,,,,,,,,,,,,,,,F,174,hexagon,1,0,,,,,,,,,,,,,,,,switch,number,numSwt,k,noRew,,,,,,1.0187,0,14,0,14,0,1,,,,,,,,,,,,,,,,,
296635,2022-10-07_24h10.51.353,vts_reward_expectancy,2022.2.4,Win32,60.84575601,Chrome,1280,720,,,,,0,639,,,,,,,,,,,,,,,,,B,132,circle,1,0,,,,,,,,,,,,,,,,switch,letter,lettSwt,d,noRew,,,,,,0.7483,0,15,0,15,0,1,,,,,,,,,,,,,,,,,
296635,2022-10-07_24h10.51.353,vts_reward_expectancy,2022.2.4,Win32,60.84575601,Chrome,1280,720,,,,,0,639,,,,,,,,,,,,,,,,,Y,139,triangle,1,0,,,,,,,,,,,,,,,,repeat,letter,lettRpt,f,noRew,,,,,,0.9221,0,16,0,16,0,1,,,,,,,,,,,,,,,,,
296635,2022-10-07_24h10.51.353,vts_reward_expectancy,2022.2.4,Win32,60.84575601,Chrome,1280,720,,,,,0,639,,,,,,,,,,,,,,,,,U,167,hexagon,1,0,,,,,,,,,,,,,,,,repeat,letter,lettRpt,f,noRew,,,,,,0.7755,0,17,0,17,0,1,,,,,,,,,,,,,,,,,
296635,2022-10-07_24h10.51.353,vts_reward_expectancy,2022.2.4,Win32,60.84575601,Chrome,1280,720,,,,,0,639,,,,,,,,,,,,,,,,,S,146,hexagon,1,0,,,,,,,,,,,,,,,,switch,number,numSwt,j,noRew,,,,,,1.8801,0,18,0,18,0,1,,,,,,,,,,,,,,,,,
296635,2022-10-07_24h10.51.353,vts_reward_expectancy,2022.2.4,Win32,60.84575601,Chrome,1280,720,,,,,0,639,,,,,,,,,,,,,,,,,H,125,triangle,1,0,,,,,,,,,,,,,,,,repeat,number,numRpt,j,noRew,,,,,,1.4642,0,19,0,19,0,1,,,,,,,,,,,,,,,,,
296635,2022-10-07_24h10.51.353,vts_reward_expectancy,2022.2.4,Win32,60.84575601,Chrome,1280,720,,,,,0,639,,,,,,,,,,,,,,,,,U,125,star,1,0,,,,,,,,,,,,,,,,switch,letter,lettSwt,f,noRew,,,,,,0.8605,0,20,0,20,0,1,,,,,,,,,,,,,,,,,
296635,2022-10-07_24h10.51.353,vts_reward_expectancy,2022.2.4,Win32,60.84575601,Chrome,1280,720,,,,,0,639,,,,,,,,,,,,,,,,,F,139,triangle,1,0,,,,,,,,,,,,,,,,switch,number,numSwt,j,noRew,,,,,,1.1212,0,21,0,21,0,1,,,,,,,,,,,,,,,,,
296635,2022-10-07_24h10.51.353,vts_reward_expectancy,2022.2.4,Win32,60.84575601,Chrome,1280,720,,,,,0,639,,,,,,,,,,,,,,,,,Y,160,star,1,0,,,,,,,,,,,,,,,,switch,letter,lettSwt,f,noRew,,,,,,0.7967,0,22,0,22,0,1,,,,,,,,,,,,,,,,,
296635,2022-10-07_24h10.51.353,vts_reward_expectancy,2022.2.4,Win32,60.84575601,Chrome,1280,720,,,,,0,639,,,,,,,,,,,,,,,,,D,167,triangle,1,0,,,,,,,,,,,,,,,,repeat,letter,lettRpt,d,noRew,,,,,,1.0712,0,23,0,23,0,1,,,,,,,,,,,,,,,,,
296635,2022-10-07_24h10.51.353,vts_reward_expectancy,2022.2.4,Win32,60.84575601,Chrome,1280,720,,,,,0,639,,,,,,,,,,,,,,,,,D,181,triangle,1,0,,,,,,,,,,,,,,,,switch,number,numSwt,k,noRew,,,,,,0.7419,0,24,0,24,0,1,,,,,,,,,,,,,,,,,
296635,2022-10-07_24h10.51.353,vts_reward_expectancy,2022.2.4,Win32,60.84575601,Chrome,1280,720,,,,,0,639,,,,,,,,,,,,,,,,,S,139,circle,1,0,,,,,,,,,,,,,,,,repeat,number,numRpt,j,noRew,,,,,,0.9871,0,25,0,25,0,1,,,,,,,,,,,,,,,,,
296635,2022-10-07_24h10.51.353,vts_reward_expectancy,2022.2.4,Win32,60.84575601,Chrome,1280,720,,,,,0,639,,,,,,,,,,,,,,,,,U,167,triangle,1,0,,,,,,,,,,,,,,,,repeat,number,numRpt,k,noRew,,,,,,0.9719,0,26,0,26,0,1,,,,,,,,,,,,,,,,,
296635,2022-10-07_24h10.51.353,vts_reward_expectancy,2022.2.4,Win32,60.84575601,Chrome,1280,720,,,,,0,639,,,,,,,,,,,,,,,,,W,160,circle,1,0,,,,,,,,,,,,,,,,switch,letter,lettSwt,f,noRew,,,,,,0.6329,0,27,0,27,0,1,,,,,,,,,,,,,,,,,
296635,2022-10-07_24h10.51.353,vts_reward_expectancy,2022.2.4,Win32,60.84575601,Chrome,1280,720,,,,,0,639,,,,,,,,,,,,,,,,,U,160,star,1,0,,,,,,,,,,,,,,,,repeat,letter,lettRpt,f,noRew,,,,,,0.9752,0,28,0,28,0,1,,,,,,,,,,,,,,,,,
296635,2022-10-07_24h10.51.353,vts_reward_expectancy,2022.2.4,Win32,60.84575601,Chrome,1280,720,,,,,0,639,,,,,,,,,,,,,,,,,H,132,hexagon,1,0,,,,,,,,,,,,,,,,switch,number,numSwt,j,noRew,,,,,,0.6027,0,29,0,29,0,1,,,,,,,,,,,,,,,,,
296635,2022-10-07_24h10.51.353,vts_reward_expectancy,2022.2.4,Win32,60.84575601,Chrome,1280,720,,,,,0,639,,,,,,,,,,,,,,,,,F,125,circle,1,0,,,,,,,,,,,,,,,,switch,letter,lettSwt,d,noRew,,,,,,1.5712,0,30,0,30,0,1,,,,,,,,,,,,,,,,,
296635,2022-10-07_24h10.51.353,vts_reward_expectancy,2022.2.4,Win32,60.84575601,Chrome,1280,720,,,,,0,639,,,,,,,,,,,,,,,,,B,167,triangle,1,0,,,,,,,,,,,,,,,,repeat,letter,lettRpt,d,noRew,,,,,,0.4889,0,31,0,31,0,1,,,,,,,,,,,,,,,,,
296635,2022-10-07_24h10.51.353,vts_reward_expectancy,2022.2.4,Win32,60.84575601,Chrome,1280,720,,,,,0,639,,,,,,,,,,,,,,,,,F,146,triangle,1,0,,,,,,,,,,,,,,,,switch,number,numSwt,j,noRew,,,,,,1.8904,0,32,0,32,0,1,,,,,,,,,,,,,,,,,
296635,2022-10-07_24h10.51.353,vts_reward_expectancy,2022.2.4,Win32,60.84575601,Chrome,1280,720,,,,,0,639,,,,,,,,,,,,,,,,,H,181,star,1,0,,,,,,,,,,,,,,,,repeat,number,numRpt,k,noRew,,,,,,1.0171,0,33,0,33,0,1,,,,,,,,,,,,,,,,,
296635,2022-10-07_24h10.51.353,vts_reward_expectancy,2022.2.4,Win32,60.84575601,Chrome,1280,720,,,,,0,639,,,,,,,,,,,,,,,,,D,174,hexagon,1,0,,,,,,,,,,,,,,,,repeat,number,numRpt,k,noRew,,,,,,0.8653,0,34,0,34,0,1,,,,,,,,,,,,,,,,,
296635,2022-10-07_24h10.51.353,vts_reward_expectancy,2022.2.4,Win32,60.84575601,Chrome,1280,720,,,,,0,639,,,,,,,,,,,,,,,,,S,167,triangle,1,0,,,,,,,,,,,,,,,,switch,letter,lettSwt,f,noRew,,,,,,1.3077,0,35,0,35,0,1,,,,,,,,,,,,,,,,,
296635,2022-10-07_24h10.51.353,vts_reward_expectancy,2022.2.4,Win32,60.84575601,Chrome,1280,720,,,,,0,639,,,,,,,,,,,,,,,,,B,160,star,1,0,,,,,,,,,,,,,,,,repeat,letter,lettRpt,d,noRew,,,,,,0.7045,0,36,0,36,0,1,,,,,,,,,,,,,,,,,
296635,2022-10-07_24h10.51.353,vts_reward_expectancy,2022.2.4,Win32,60.84575601,Chrome,1280,720,,,,,0,639,,,,,,,,,,,,,,,,,H,181,hexagon,1,0,,,,,,,,,,,,,,,,switch,number,numSwt,k,noRew,,,,,,0.6837,0,37,0,37,0,1,,,,,,,,,,,,,,,,,
296635,2022-10-07_24h10.51.353,vts_reward_expectancy,2022.2.4,Win32,60.84575601,Chrome,1280,720,,,,,0,639,,,,,,,,,,,,,,,,,U,146,triangle,1,0,,,,,,,,,,,,,,,,switch,letter,lettSwt,f,noRew,,,,,,0.8135,0,38,0,38,0,1,,,,,,,,,,,,,,,,,
296635,2022-10-07_24h10.51.353,vts_reward_expectancy,2022.2.4,Win32,60.84575601,Chrome,1280,720,,,,,0,639,,,,,,,,,,,,,,,,,F,132,star,1,0,,,,,,,,,,,,,,,,switch,number,numSwt,j,noRew,,,,,,1.0826,0,39,0,39,0,1,,,,,,,,,,,,,,,,,
296635,2022-10-07_24h10.51.353,vts_reward_expectancy,2022.2.4,Win32,60.84575601,Chrome,1280,720,,,,,0,639,,,,,,,,,,,,,,,,,D,125,star,1,0,,,,,,,,,,,,,,,,repeat,number,numRpt,j,noRew,,,,,,0.9861,0,40,0,40,0,1,,,,,,,,,,,,,,,,,
296635,2022-10-07_24h10.51.353,vts_reward_expectancy,2022.2.4,Win32,60.84575601,Chrome,1280,720,,,,,0,639,,,,,,,,,,,,,,,,,U,146,hexagon,1,0,,,,,,,,,,,,,,,,repeat,number,numRpt,j,noRew,,,,,,1.1656,0,41,0,41,0,1,,,,,,,,,,,,,,,,,
296635,2022-10-07_24h10.51.353,vts_reward_expectancy,2022.2.4,Win32,60.84575601,Chrome,1280,720,,,,,0,639,,,,,,,,,,,,,,,,,S,160,triangle,1,0,,,,,,,,,,,,,,,,repeat,number,numRpt,k,noRew,,,,,,1.3182,0,42,0,42,0,1,,,,,,,,,,,,,,,,,
296635,2022-10-07_24h10.51.353,vts_reward_expectancy,2022.2.4,Win32,60.84575601,Chrome,1280,720,,,,,0,639,,,,,,,,,,,,,,,,,Y,132,star,1,0,,,,,,,,,,,,,,,,switch,letter,lettSwt,f,noRew,,,,,,1.3648,0,43,0,43,0,1,,,,,,,,,,,,,,,,,
296635,2022-10-07_24h10.51.353,vts_reward_expectancy,2022.2.4,Win32,60.84575601,Chrome,1280,720,,,,,0,639,,,,,,,,,,,,,,,,,D,139,hexagon,1,0,,,,,,,,,,,,,,,,repeat,letter,lettRpt,d,noRew,,,,,,1.0975,0,44,0,44,0,1,,,,,,,,,,,,,,,,,
296635,2022-10-07_24h10.51.353,vts_reward_expectancy,2022.2.4,Win32,60.84575601,Chrome,1280,720,,,,,0,639,,,,,,,,,,,,,,,,,S,160,circle,1,0,,,,,,,,,,,,,,,,switch,number,numSwt,k,noRew,,,,,,1.1326,0,45,0,45,0,1,,,,,,,,,,,,,,,,,
296635,2022-10-07_24h10.51.353,vts_reward_expectancy,2022.2.4,Win32,60.84575601,Chrome,1280,720,,,,,0,639,,,,,,,,,,,,,,,,,B,132,triangle,1,0,,,,,,,,,,,,,,,,switch,letter,lettSwt,d,noRew,,,,,,0.6662,0,46,0,46,0,1,,,,,,,,,,,,,,,,,
296635,2022-10-07_24h10.51.353,vts_reward_expectancy,2022.2.4,Win32,60.84575601,Chrome,1280,720,,,,,0,639,,,,,,,,,,,,,,,,,F,146,star,1,0,,,,,,,,,,,,,,,,repeat,letter,lettRpt,d,noRew,,,,,,1.3748,0,47,0,47,0,1,,,,,,,,,,,,,,,,,
296635,2022-10-07_24h10.51.353,vts_reward_expectancy,2022.2.4,Win32,60.84575601,Chrome,1280,720,,,,,0,639,,,,,,,,,,,,,,,,,B,160,circle,1,0,,,,,,,,,,,,,,,,repeat,letter,lettRpt,d,noRew,,,,,,0.58,0,48,0,48,0,1,,,,,,,,,,,,,,,,,
296635,2022-10-07_24h10.51.353,vts_reward_expectancy,2022.2.4,Win32,60.84575601,Chrome,1280,720,,,,,0,639,,,,,,,,,,,,,,,,,Y,125,star,1,0,,,,,,,,,,,,,,,,repeat,letter,lettRpt,f,noRew,,,,,,0.989,0,49,0,49,0,1,,,,,,,,,,,,,,,,,
296635,2022-10-07_24h10.51.353,vts_reward_expectancy,2022.2.4,Win32,60.84575601,Chrome,1280,720,,,,,0,639,,,,,,,,,,,,,,,,,D,181,circle,1,0,,,,,,,,,,,,,,,,switch,number,numSwt,k,noRew,,,,,,1.1143,0,50,0,50,0,1,,,,,,,,,,,,,,,,,
296635,2022-10-07_24h10.51.353,vts_reward_expectancy,2022.2.4,Win32,60.84575601,Chrome,1280,720,,,,,0,639,,,,,,,,,,,,,,,,,F,132,triangle,1,0,,,,,,,,,,,,,,,,repeat,number,numRpt,j,noRew,,,,,,1.1475,0,51,0,51,0,1,,,,,,,,,,,,,,,,,
296635,2022-10-07_24h10.51.353,vts_reward_expectancy,2022.2.4,Win32,60.84575601,Chrome,1280,720,,,,,0,639,,,,,,,,,,,,,,,,,H,181,triangle,1,0,,,,,,,,,,,,,,,,switch,letter,lettSwt,d,noRew,,,,,,1.7813,0,52,0,52,0,1,,,,,,,,,,,,,,,,,
296635,2022-10-07_24h10.51.353,vts_reward_expectancy,2022.2.4,Win32,60.84575601,Chrome,1280,720,,,,,0,639,,,,,,,,,,,,,,,,,D,167,star,1,0,,,,,,,,,,,,,,,,switch,number,numSwt,k,noRew,,,,,,1.349,0,53,0,53,0,1,,,,,,,,,,,,,,,,,
296635,2022-10-07_24h10.51.353,vts_reward_expectancy,2022.2.4,Win32,60.84575601,Chrome,1280,720,,,,,0,639,,,,,,,,,,,,,,,,,B,146,circle,1,0,,,,,,,,,,,,,,,,repeat,number,numRpt,j,noRew,,,,,,1.005,0,54,0,54,0,1,,,,,,,,,,,,,,,,,
296635,2022-10-07_24h10.51.353,vts_reward_expectancy,2022.2.4,Win32,60.84575601,Chrome,1280,720,,,,,0,639,,,,,,,,,,,,,,,,,F,139,triangle,1,0,,,,,,,,,,,,,,,,repeat,number,numRpt,j,noRew,,,,,,1.5838,0,55,0,55,0,1,,,,,,,,,,,,,,,,,
296635,2022-10-07_24h10.51.353,vts_reward_expectancy,2022.2.4,Win32,60.84575601,Chrome,1280,720,,,,,0,639,,,,,,,,,,,,,,,,,B,125,circle,1,0,,,,,,,,,,,,,,,,switch,letter,lettSwt,d,noRew,,,,,,0.6479,0,56,0,56,0,1,,,,,,,,,,,,,,,,,
296635,2022-10-07_24h10.51.353,vts_reward_expectancy,2022.2.4,Win32,60.84575601,Chrome,1280,720,,,,,0,639,,,,,,,,,,,,,,,,,F,139,hexagon,1,0,,,,,,,,,,,,,,,,repeat,letter,lettRpt,d,noRew,,,,,,1.1958,0,57,0,57,0,1,,,,,,,,,,,,,,,,,
296635,2022-10-07_24h10.51.353,vts_reward_expectancy,2022.2.4,Win32,60.84575601,Chrome,1280,720,,,,,0,639,,,,,,,,,,,,,,,,,U,174,triangle,1,0,,,,,,,,,,,,,,,,repeat,letter,lettRpt,f,noRew,,,,,,0.9832,0,58,0,58,0,1,,,,,,,,,,,,,,,,,
296635,2022-10-07_24h10.51.353,vts_reward_expectancy,2022.2.4,Win32,60.84575601,Chrome,1280,720,,,,,0,639,,,,,,,,,,,,,,,,,S,160,circle,1,0,,,,,,,,,,,,,,,,switch,number,numSwt,k,noRew,,,,,,0.6751,0,59,0,59,0,1,,,,,,,,,,,,,,,,,
296635,2022-10-07_24h10.51.353,vts_reward_expectancy,2022.2.4,Win32,60.84575601,Chrome,1280,720,,,,,0,639,,,,,,,,,,,,,,,,,S,125,star,1,0,,,,,,,,,,,,,,,,repeat,number,numRpt,j,noRew,,,,,,0.8806,0,60,0,60,0,1,,,,,,,,,,,,,,,,,
296635,2022-10-07_24h10.51.353,vts_reward_expectancy,2022.2.4,Win32,60.84575601,Chrome,1280,720,,,,,0,639,,,,,,,,,,,,,,,,,U,160,triangle,1,0,,,,,,,,,,,,,,,,switch,letter,lettSwt,f,noRew,,,,,,0.885,0,61,0,61,0,1,,,,,,,,,,,,,,,,,
296635,2022-10-07_24h10.51.353,vts_reward_expectancy,2022.2.4,Win32,60.84575601,Chrome,1280,720,,,,,0,639,,,,,,,,,,,,,,,,,B,167,circle,1,0,,,,,,,,,,,,,,,,switch,number,numSwt,k,noRew,,,,,,1.3338,0,62,0,62,0,1,,,,,,,,,,,,,,,,,
296635,2022-10-07_24h10.51.353,vts_reward_expectancy,2022.2.4,Win32,60.84575601,Chrome,1280,720,,,,,0,639,,,,,,,,,,,,,,,,,W,146,star,1,0,,,,,,,,,,,,,,,,repeat,number,numRpt,j,noRew,,,,,,1.0513,0,63,0,63,0,1,,,,,,,,,,,,,,,,,
296635,2022-10-07_24h10.51.353,vts_reward_expectancy,2022.2.4,Win32,60.84575601,Chrome,1280,720,,,,,,,,,,,,,,,,,,,,,,,,,,,,,,,,,,,,,,,,,,,,,,,,,,,,,,,,,,,,,,,,,,,,,,,,,,,,
296635,2022-10-07_24h10.51.353,vts_reward_expectancy,2022.2.4,Win32,60.84575601,Chrome,1280,720,,,,,1,640,,,,,,,,,,,,,,,,,Y,174,circle,1,0,,,,,,,,,,,,,,,,switch,letter,lettSwt,f,Lo,,,,,,1.0999,0,,,,,,space,115.0051,low,0,0,0,0,1,,,,,,,,,
296635,2022-10-07_24h10.51.353,vts_reward_expectancy,2022.2.4,Win32,60.84575601,Chrome,1280,720,,,,,0,640,,,,,,,,,,,,,,,,,U,181,triangle,1,0,,,,,,,,,,,,,,,,switch,number,numSwt,k,Hi,,,,,,0.91,0,,,,,,,,low,1,0,1,0,1,,,,,,,,,
296635,2022-10-07_24h10.51.353,vts_reward_expectancy,2022.2.4,Win32,60.84575601,Chrome,1280,720,,,,,1,641,,,,,,,,,,,,,,,,,F,146,circle,1,0,,,,,,,,,,,,,,,,repeat,number,numRpt,j,Lo,,,,,,0.5903,0,,,,,,,,low,2,0,2,0,1,,,,,,,,,
296635,2022-10-07_24h10.51.353,vts_reward_expectancy,2022.2.4,Win32,60.84575601,Chrome,1280,720,,,,,10,651,,,,,,,,,,,,,,,,,H,160,triangle,1,0,,,,,,,,,,,,,,,,repeat,number,numRpt,k,Hi,,,,,,0.7179,0,,,,,,,,low,3,0,3,0,1,,,,,,,,,
296635,2022-10-07_24h10.51.353,vts_reward_expectancy,2022.2.4,Win32,60.84575601,Chrome,1280,720,,,,,10,661,,,,,,,,,,,,,,,,,S,139,circle,1,0,,,,,,,,,,,,,,,,switch,letter,lettSwt,f,Lo,,,,,,0.7569,0,,,,,,,,low,4,0,4,0,1,,,,,,,,,
296635,2022-10-07_24h10.51.353,vts_reward_expectancy,2022.2.4,Win32,60.84575601,Chrome,1280,720,,,,,10,671,,,,,,,,,,,,,,,,,W,125,triangle,1,0,,,,,,,,,,,,,,,,repeat,letter,lettRpt,f,Hi,,,,,,0.6084,0,,,,,,,,low,5,0,5,0,1,,,,,,,,,
296635,2022-10-07_24h10.51.353,vts_reward_expectancy,2022.2.4,Win32,60.84575601,Chrome,1280,720,,,,,1,672,,,,,,,,,,,,,,,,,D,167,circle,1,0,,,,,,,,,,,,,,,,switch,number,numSwt,k,Lo,,,,,,0.8428,0,,,,,,,,low,6,0,6,0,1,,,,,,,,,
296635,2022-10-07_24h10.51.353,vts_reward_expectancy,2022.2.4,Win32,60.84575601,Chrome,1280,720,,,,,10,682,,,,,,,,,,,,,,,,,B,132,triangle,1,0,,,,,,,,,,,,,,,,repeat,number,numRpt,j,Hi,,,,,,0.6431,0,,,,,,,,low,7,0,7,0,1,,,,,,,,,
296635,2022-10-07_24h10.51.353,vts_reward_expectancy,2022.2.4,Win32,60.84575601,Chrome,1280,720,,,,,1,683,,,,,,,,,,,,,,,,,Y,174,triangle,1,0,,,,,,,,,,,,,,,,switch,letter,lettSwt,f,Hi,,,,,,0.7004,0,,,,,,,,low,8,0,8,0,1,,,,,,,,,
296635,2022-10-07_24h10.51.353,vts_reward_expectancy,2022.2.4,Win32,60.84575601,Chrome,1280,720,,,,,1,684,,,,,,,,,,,,,,,,,U,181,circle,1,0,,,,,,,,,,,,,,,,switch,number,numSwt,k,Lo,,,,,,1.0335,0,,,,,,,,low,9,0,9,0,1,,,,,,,,,
296635,2022-10-07_24h10.51.353,vts_reward_expectancy,2022.2.4,Win32,60.84575601,Chrome,1280,720,,,,,0,684,,,,,,,,,,,,,,,,,F,146,circle,0,0,,,,,,,,,,,,,,,,switch,letter,NA,f,Lo,,,,,,1.1005,0,,,,,,,,low,10,0,10,0,1,,,,,,,,,
296635,2022-10-07_24h10.51.353,vts_reward_expectancy,2022.2.4,Win32,60.84575601,Chrome,1280,720,,,,,0,684,,,,,,,,,,,,,,,,,H,160,triangle,1,1,,,,,,,,,,,,,,,,switch,number,numSwt,k,Hi,,,,,,1.1172,0,,,,,,,,low,11,0,11,0,1,,,,,,,,,
296635,2022-10-07_24h10.51.353,vts_reward_expectancy,2022.2.4,Win32,60.84575601,Chrome,1280,720,,,,,10,694,,,,,,,,,,,,,,,,,S,139,circle,1,0,,,,,,,,,,,,,,,,switch,letter,lettSwt,f,Lo,,,,,,0.7331,0,,,,,,,,low,12,0,12,0,1,,,,,,,,,
296635,2022-10-07_24h10.51.353,vts_reward_expectancy,2022.2.4,Win32,60.84575601,Chrome,1280,720,,,,,10,704,,,,,,,,,,,,,,,,,W,125,triangle,1,0,,,,,,,,,,,,,,,,switch,number,numSwt,j,Hi,,,,,,0.5667,0,,,,,,,,low,13,0,13,0,1,,,,,,,,,
296635,2022-10-07_24h10.51.353,vts_reward_expectancy,2022.2.4,Win32,60.84575601,Chrome,1280,720,,,,,10,714,,,,,,,,,,,,,,,,,D,167,triangle,1,0,,,,,,,,,,,,,,,,repeat,number,numRpt,k,Hi,,,,,,0.6461,0,,,,,,,,low,14,0,14,0,1,,,,,,,,,
296635,2022-10-07_24h10.51.353,vts_reward_expectancy,2022.2.4,Win32,60.84575601,Chrome,1280,720,,,,,1,715,,,,,,,,,,,,,,,,,B,132,circle,1,0,,,,,,,,,,,,,,,,switch,letter,lettSwt,d,Lo,,,,,,0.6838,0,,,,,,,,low,15,0,15,0,1,,,,,,,,,
296635,2022-10-07_24h10.51.353,vts_reward_expectancy,2022.2.4,Win32,60.84575601,Chrome,1280,720,,,,,10,725,,,,,,,,,,,,,,,,,D,125,circle,1,0,,,,,,,,,,,,,,,,repeat,letter,lettRpt,d,Lo,,,,,,0.8671,0,,,,,,,,low,16,0,16,0,1,,,,,,,,,
296635,2022-10-07_24h10.51.353,vts_reward_expectancy,2022.2.4,Win32,60.84575601,Chrome,1280,720,,,,,10,735,,,,,,,,,,,,,,,,,U,181,triangle,1,0,,,,,,,,,,,,,,,,switch,number,numSwt,k,Hi,,,,,,0.5444,0,,,,,,,,low,17,0,17,0,1,,,,,,,,,
296635,2022-10-07_24h10.51.353,vts_reward_expectancy,2022.2.4,Win32,60.84575601,Chrome,1280,720,,,,,10,745,,,,,,,,,,,,,,,,,H,160,triangle,1,0,,,,,,,,,,,,,,,,repeat,number,numRpt,k,Hi,,,,,,0.6011,0,,,,,,,,low,18,0,18,0,1,,,,,,,,,
296635,2022-10-07_24h10.51.353,vts_reward_expectancy,2022.2.4,Win32,60.84575601,Chrome,1280,720,,,,,10,755,,,,,,,,,,,,,,,,,F,167,circle,1,0,,,,,,,,,,,,,,,,switch,letter,lettSwt,d,Lo,,,,,,1.0566,0,,,,,,,,low,19,0,19,0,1,,,,,,,,,
296635,2022-10-07_24h10.51.353,vts_reward_expectancy,2022.2.4,Win32,60.84575601,Chrome,1280,720,,,,,0,755,,,,,,,,,,,,,,,,,S,139,circle,0,0,,,,,,,,,,,,,,,,repeat,letter,NA,d,Lo,,,,,,1.0703,0,,,,,,,,low,20,0,20,0,1,,,,,,,,,
296635,2022-10-07_24h10.51.353,vts_reward_expectancy,2022.2.4,Win32,60.84575601,Chrome,1280,720,,,,,1,756,,,,,,,,,,,,,,,,,Y,132,triangle,1,1,,,,,,,,,,,,,,,,switch,number,numSwt,j,Hi,,,,,,0.5985,0,,,,,,,,low,21,0,21,0,1,,,,,,,,,
296635,2022-10-07_24h10.51.353,vts_reward_expectancy,2022.2.4,Win32,60.84575601,Chrome,1280,720,,,,,10,766,,,,,,,,,,,,,,,,,W,174,triangle,1,0,,,,,,,,,,,,,,,,repeat,number,numRpt,k,Hi,,,,,,0.5283,0,,,,,,,,low,22,0,22,0,1,,,,,,,,,
296635,2022-10-07_24h10.51.353,vts_reward_expectancy,2022.2.4,Win32,60.84575601,Chrome,1280,720,,,,,1,767,,,,,,,,,,,,,,,,,B,146,circle,1,0,,,,,,,,,,,,,,,,switch,letter,lettSwt,d,Lo,,,,,,0.5236,0,,,,,,,,low,23,0,23,0,1,,,,,,,,,
296635,2022-10-07_24h10.51.353,vts_reward_expectancy,2022.2.4,Win32,60.84575601,Chrome,1280,720,,,,,10,777,,,,,,,,,,,,,,,,,F,125,circle,1,0,,,,,,,,,,,,,,,,repeat,letter,lettRpt,d,Lo,,,,,,1.1256,0,,,,,,,,low,24,0,24,0,1,,,,,,,,,
296635,2022-10-07_24h10.51.353,vts_reward_expectancy,2022.2.4,Win32,60.84575601,Chrome,1280,720,,,,,10,787,,,,,,,,,,,,,,,,,B,139,triangle,1,0,,,,,,,,,,,,,,,,switch,number,numSwt,j,Hi,,,,,,0.3887,0,,,,,,,,low,25,0,25,0,1,,,,,,,,,
296635,2022-10-07_24h10.51.353,vts_reward_expectancy,2022.2.4,Win32,60.84575601,Chrome,1280,720,,,,,10,797,,,,,,,,,,,,,,,,,U,146,triangle,1,0,,,,,,,,,,,,,,,,repeat,number,numRpt,j,Hi,,,,,,0.9351,0,,,,,,,,low,26,0,26,0,1,,,,,,,,,
296635,2022-10-07_24h10.51.353,vts_reward_expectancy,2022.2.4,Win32,60.84575601,Chrome,1280,720,,,,,10,807,,,,,,,,,,,,,,,,,H,160,circle,1,0,,,,,,,,,,,,,,,,switch,letter,lettSwt,d,Lo,,,,,,1.1921,0,,,,,,,,low,27,0,27,0,1,,,,,,,,,
296635,2022-10-07_24h10.51.353,vts_reward_expectancy,2022.2.4,Win32,60.84575601,Chrome,1280,720,,,,,1,808,,,,,,,,,,,,,,,,,S,181,circle,1,0,,,,,,,,,,,,,,,,repeat,letter,lettRpt,f,Lo,,,,,,0.7298,0,,,,,,,,low,28,0,28,0,1,,,,,,,,,
296635,2022-10-07_24h10.51.353,vts_reward_expectancy,2022.2.4,Win32,60.84575601,Chrome,1280,720,,,,,1,809,,,,,,,,,,,,,,,,,D,174,triangle,1,0,,,,,,,,,,,,,,,,switch,number,numSwt,k,Hi,,,,,,0.618,0,,,,,,,,low,29,0,29,0,1,,,,,,,,,
296635,2022-10-07_24h10.51.353,vts_reward_expectancy,2022.2.4,Win32,60.84575601,Chrome,1280,720,,,,,1,810,,,,,,,,,,,,,,,,,W,132,circle,1,0,,,,,,,,,,,,,,,,switch,letter,lettSwt,f,Lo,,,,,,0.6174,0,,,,,,,,low,30,0,30,0,1,,,,,,,,,
296635,2022-10-07_24h10.51.353,vts_reward_expectancy,2022.2.4,Win32,60.84575601,Chrome,1280,720,,,,,1,811,,,,,,,,,,,,,,,,,Y,167,triangle,1,0,,,,,,,,,,,,,,,,repeat,letter,lettRpt,f,Hi,,,,,,0.6623,0,,,,,,,,low,31,0,31,0,1,,,,,,,,,
296635,2022-10-07_24h10.51.353,vts_reward_expectancy,2022.2.4,Win32,60.84575601,Chrome,1280,720,,,,,0,811,,,,,,,,,,,,,,,,,D,139,star,1,0,,,,,,,,,,,,,,,,repeat,letter,lettRpt,d,Hi,,,,,,1.3542,1,,,,,,space,7.5014,high,0,0,0,0,1,,,,,,,,,
296635,2022-10-07_24h10.51.353,vts_reward_expectancy,2022.2.4,Win32,60.84575601,Chrome,1280,720,,,,,10,821,,,,,,,,,,,,,,,,,H,132,hexagon,1,0,,,,,,,,,,,,,,,,switch,number,numSwt,j,Lo,,,,,,0.5417,1,,,,,,,,high,1,0,1,0,1,,,,,,,,,
296635,2022-10-07_24h10.51.353,vts_reward_expectancy,2022.2.4,Win32,60.84575601,Chrome,1280,720,,,,,0,821,,,,,,,,,,,,,,,,,Y,181,star,1,0,,,,,,,,,,,,,,,,switch,letter,lettSwt,f,Hi,,,,,,1.0723,1,,,,,,,,high,2,0,2,0,1,,,,,,,,,
296635,2022-10-07_24h10.51.353,vts_reward_expectancy,2022.2.4,Win32,60.84575601,Chrome,1280,720,,,,,0,821,,,,,,,,,,,,,,,,,U,160,hexagon,0,0,,,,,,,,,,,,,,,,switch,number,NA,j,Hi,,,,,,0.6796,1,,,,,,,,high,3,0,3,0,1,,,,,,,,,
296635,2022-10-07_24h10.51.353,vts_reward_expectancy,2022.2.4,Win32,60.84575601,Chrome,1280,720,,,,,0,821,,,,,,,,,,,,,,,,,F,146,star,0,1,,,,,,,,,,,,,,,,switch,letter,NA,f,Hi,,,,,,1.1054,1,,,,,,,,high,4,0,4,0,1,,,,,,,,,
296635,2022-10-07_24h10.51.353,vts_reward_expectancy,2022.2.4,Win32,60.84575601,Chrome,1280,720,,,,,1,822,,,,,,,,,,,,,,,,,B,174,hexagon,1,1,,,,,,,,,,,,,,,,repeat,letter,lettRpt,d,Lo,,,,,,0.4405,1,,,,,,,,high,5,0,5,0,1,,,,,,,,,
296635,2022-10-07_24h10.51.353,vts_reward_expectancy,2022.2.4,Win32,60.84575601,Chrome,1280,720,,,,,1,823,,,,,,,,,,,,,,,,,S,167,hexagon,1,0,,,,,,,,,,,,,,,,switch,number,numSwt,k,Lo,,,,,,0.5128,1,,,,,,,,high,6,0,6,0,1,,,,,,,,,
296635,2022-10-07_24h10.51.353,vts_reward_expectancy,2022.2.4,Win32,60.84575601,Chrome,1280,720,,,,,0,823,,,,,,,,,,,,,,,,,W,125,star,1,0,,,,,,,,,,,,,,,,switch,letter,lettSwt,f,Hi,,,,,,0.7639,1,,,,,,,,high,7,0,7,0,1,,,,,,,,,
296635,2022-10-07_24h10.51.353,vts_reward_expectancy,2022.2.4,Win32,60.84575601,Chrome,1280,720,,,,,10,833,,,,,,,,,,,,,,,,,D,139,star,1,0,,,,,,,,,,,,,,,,repeat,letter,lettRpt,d,Hi,,,,,,0.5119,1,,,,,,,,high,8,0,8,0,1,,,,,,,,,
296635,2022-10-07_24h10.51.353,vts_reward_expectancy,2022.2.4,Win32,60.84575601,Chrome,1280,720,,,,,1,834,,,,,,,,,,,,,,,,,H,132,hexagon,1,0,,,,,,,,,,,,,,,,switch,number,numSwt,j,Lo,,,,,,0.4175,1,,,,,,,,high,9,0,9,0,1,,,,,,,,,
296635,2022-10-07_24h10.51.353,vts_reward_expectancy,2022.2.4,Win32,60.84575601,Chrome,1280,720,,,,,1,835,,,,,,,,,,,,,,,,,Y,181,star,1,0,,,,,,,,,,,,,,,,switch,letter,lettSwt,f,Hi,,,,,,0.5923,1,,,,,,,,high,10,0,10,0,1,,,,,,,,,
296635,2022-10-07_24h10.51.353,vts_reward_expectancy,2022.2.4,Win32,60.84575601,Chrome,1280,720,,,,,1,836,,,,,,,,,,,,,,,,,U,160,hexagon,1,0,,,,,,,,,,,,,,,,switch,number,numSwt,k,Lo,,,,,,0.6726,1,,,,,,,,high,11,0,11,0,1,,,,,,,,,
296635,2022-10-07_24h10.51.353,vts_reward_expectancy,2022.2.4,Win32,60.84575601,Chrome,1280,720,,,,,0,836,,,,,,,,,,,,,,,,,F,146,star,1,0,,,,,,,,,,,,,,,,repeat,number,numRpt,j,Hi,,,,,,0.7667,1,,,,,,,,high,12,0,12,0,1,,,,,,,,,
296635,2022-10-07_24h10.51.353,vts_reward_expectancy,2022.2.4,Win32,60.84575601,Chrome,1280,720,,,,,0,836,,,,,,,,,,,,,,,,,B,174,hexagon,0,0,,,,,,,,,,,,,,,,repeat,number,NA,j,Hi,,,,,,0.5216,1,,,,,,,,high,13,0,13,0,1,,,,,,,,,
296635,2022-10-07_24h10.51.353,vts_reward_expectancy,2022.2.4,Win32,60.84575601,Chrome,1280,720,,,,,1,837,,,,,,,,,,,,,,,,,S,167,hexagon,1,1,,,,,,,,,,,,,,,,repeat,number,numRpt,k,Lo,,,,,,0.7122,1,,,,,,,,high,14,0,14,0,1,,,,,,,,,
296635,2022-10-07_24h10.51.353,vts_reward_expectancy,2022.2.4,Win32,60.84575601,Chrome,1280,720,,,,,10,847,,,,,,,,,,,,,,,,,W,125,star,1,0,,,,,,,,,,,,,,,,switch,letter,lettSwt,f,Hi,,,,,,0.6289,1,,,,,,,,high,15,0,15,0,1,,,,,,,,,
296635,2022-10-07_24h10.51.353,vts_reward_expectancy,2022.2.4,Win32,60.84575601,Chrome,1280,720,,,,,1,848,,,,,,,,,,,,,,,,,F,146,hexagon,1,0,,,,,,,,,,,,,,,,repeat,letter,lettRpt,d,Lo,,,,,,0.9551,1,,,,,,,,high,16,0,16,0,1,,,,,,,,,
296635,2022-10-07_24h10.51.353,vts_reward_expectancy,2022.2.4,Win32,60.84575601,Chrome,1280,720,,,,,0,848,,,,,,,,,,,,,,,,,W,125,star,1,0,,,,,,,,,,,,,,,,repeat,letter,lettRpt,f,Hi,,,,,,0.7839,1,,,,,,,,high,17,0,17,0,1,,,,,,,,,
296635,2022-10-07_24h10.51.353,vts_reward_expectancy,2022.2.4,Win32,60.84575601,Chrome,1280,720,,,,,0,848,,,,,,,,,,,,,,,,,U,160,star,1,0,,,,,,,,,,,,,,,,switch,number,numSwt,k,Hi,,,,,,0.6375,1,,,,,,,,high,18,0,18,0,1,,,,,,,,,
296635,2022-10-07_24h10.51.353,vts_reward_expectancy,2022.2.4,Win32,60.84575601,Chrome,1280,720,,,,,1,849,,,,,,,,,,,,,,,,,D,174,hexagon,1,0,,,,,,,,,,,,,,,,repeat,number,numRpt,k,Lo,,,,,,0.5078,1,,,,,,,,high,19,0,19,0,1,,,,,,,,,
296635,2022-10-07_24h10.51.353,vts_reward_expectancy,2022.2.4,Win32,60.84575601,Chrome,1280,720,,,,,1,850,,,,,,,,,,,,,,,,,Y,167,hexagon,1,0,,,,,,,,,,,,,,,,repeat,number,numRpt,k,Lo,,,,,,0.5388,1,,,,,,,,high,20,0,20,0,1,,,,,,,,,
296635,2022-10-07_24h10.51.353,vts_reward_expectancy,2022.2.4,Win32,60.84575601,Chrome,1280,720,,,,,10,860,,,,,,,,,,,,,,,,,B,132,star,1,0,,,,,,,,,,,,,,,,repeat,number,numRpt,j,Hi,,,,,,0.5342,1,,,,,,,,high,21,0,21,0,1,,,,,,,,,
296635,2022-10-07_24h10.51.353,vts_reward_expectancy,2022.2.4,Win32,60.84575601,Chrome,1280,720,,,,,10,870,,,,,,,,,,,,,,,,,H,139,star,1,0,,,,,,,,,,,,,,,,repeat,number,numRpt,j,Hi,,,,,,0.4529,1,,,,,,,,high,22,0,22,0,1,,,,,,,,,
296635,2022-10-07_24h10.51.353,vts_reward_expectancy,2022.2.4,Win32,60.84575601,Chrome,1280,720,,,,,1,871,,,,,,,,,,,,,,,,,S,181,hexagon,1,0,,,,,,,,,,,,,,,,switch,letter,lettSwt,f,Lo,,,,,,0.702,1,,,,,,,,high,23,0,23,0,1,,,,,,,,,
296635,2022-10-07_24h10.51.353,vts_reward_expectancy,2022.2.4,Win32,60.84575601,Chrome,1280,720,,,,,10,881,,,,,,,,,,,,,,,,,D,181,star,1,0,,,,,,,,,,,,,,,,repeat,letter,lettRpt,d,Hi,,,,,,0.5699,1,,,,,,,,high,24,0,24,0,1,,,,,,,,,
296635,2022-10-07_24h10.51.353,vts_reward_expectancy,2022.2.4,Win32,60.84575601,Chrome,1280,720,,,,,1,882,,,,,,,,,,,,,,,,,S,160,hexagon,1,0,,,,,,,,,,,,,,,,switch,number,numSwt,k,Lo,,,,,,0.4671,1,,,,,,,,high,25,0,25,0,1,,,,,,,,,
296635,2022-10-07_24h10.51.353,vts_reward_expectancy,2022.2.4,Win32,60.84575601,Chrome,1280,720,,,,,0,882,,,,,,,,,,,,,,,,,W,139,star,1,0,,,,,,,,,,,,,,,,repeat,number,numRpt,j,Hi,,,,,,0.6771,1,,,,,,,,high,26,0,26,0,1,,,,,,,,,
296635,2022-10-07_24h10.51.353,vts_reward_expectancy,2022.2.4,Win32,60.84575601,Chrome,1280,720,,,,,1,883,,,,,,,,,,,,,,,,,U,174,hexagon,1,0,,,,,,,,,,,,,,,,repeat,number,numRpt,k,Lo,,,,,,0.4846,1,,,,,,,,high,27,0,27,0,1,,,,,,,,,
296635,2022-10-07_24h10.51.353,vts_reward_expectancy,2022.2.4,Win32,60.84575601,Chrome,1280,720,,,,,10,893,,,,,,,,,,,,,,,,,H,132,star,1,0,,,,,,,,,,,,,,,,repeat,number,numRpt,j,Hi,,,,,,0.534,1,,,,,,,,high,28,0,28,0,1,,,,,,,,,
296635,2022-10-07_24h10.51.353,vts_reward_expectancy,2022.2.4,Win32,60.84575601,Chrome,1280,720,,,,,1,894,,,,,,,,,,,,,,,,,Y,146,hexagon,1,0,,,,,,,,,,,,,,,,repeat,number,numRpt,j,Lo,,,,,,0.6958,1,,,,,,,,high,29,0,29,0,1,,,,,,,,,
296635,2022-10-07_24h10.51.353,vts_reward_expectancy,2022.2.4,Win32,60.84575601,Chrome,1280,720,,,,,1,895,,,,,,,,,,,,,,,,,F,125,hexagon,1,0,,,,,,,,,,,,,,,,switch,letter,lettSwt,d,Lo,,,,,,0.64,1,,,,,,,,high,30,0,30,0,1,,,,,,,,,
296635,2022-10-07_24h10.51.353,vts_reward_expectancy,2022.2.4,Win32,60.84575601,Chrome,1280,720,,,,,10,905,,,,,,,,,,,,,,,,,B,167,star,1,0,,,,,,,,,,,,,,,,repeat,letter,lettRpt,d,Hi,,,,,,0.5006,1,,,,,,,,high,31,0,31,0,1,,,,,,,,,
296635,2022-10-07_24h10.51.353,vts_reward_expectancy,2022.2.4,Win32,60.84575601,Chrome,1280,720,,,,,0,905,,,,,,,,,,,,,,,,,H,125,triangle,1,0,,,,,,,,,,,,,,,,switch,number,numSwt,j,Hi,,,,,,0.5094,2,,,,,,space,2.4175,low,0,0,0,0,1,,,,,,,,,
296635,2022-10-07_24h10.51.353,vts_reward_expectancy,2022.2.4,Win32,60.84575601,Chrome,1280,720,,,,,0,905,,,,,,,,,,,,,,,,,W,167,circle,0,0,,,,,,,,,,,,,,,,repeat,number,NA,j,Hi,,,,,,0.4675,2,,,,,,,,low,1,0,1,0,1,,,,,,,,,
296635,2022-10-07_24h10.51.353,vts_reward_expectancy,2022.2.4,Win32,60.84575601,Chrome,1280,720,,,,,10,915,,,,,,,,,,,,,,,,,S,132,triangle,1,1,,,,,,,,,,,,,,,,repeat,number,numRpt,j,Hi,,,,,,0.404,2,,,,,,,,low,2,0,2,0,1,,,,,,,,,
296635,2022-10-07_24h10.51.353,vts_reward_expectancy,2022.2.4,Win32,60.84575601,Chrome,1280,720,,,,,10,925,,,,,,,,,,,,,,,,,U,181,circle,1,0,,,,,,,,,,,,,,,,repeat,number,numRpt,k,Lo,,,,,,0.5375,2,,,,,,,,low,3,0,3,0,1,,,,,,,,,
296635,2022-10-07_24h10.51.353,vts_reward_expectancy,2022.2.4,Win32,60.84575601,Chrome,1280,720,,,,,1,926,,,,,,,,,,,,,,,,,B,174,triangle,1,0,,,,,,,,,,,,,,,,repeat,number,numRpt,k,Hi,,,,,,0.4734,2,,,,,,,,low,4,0,4,0,1,,,,,,,,,
296635,2022-10-07_24h10.51.353,vts_reward_expectancy,2022.2.4,Win32,60.84575601,Chrome,1280,720,,,,,1,927,,,,,,,,,,,,,,,,,D,139,circle,1,0,,,,,,,,,,,,,,,,switch,letter,lettSwt,d,Lo,,,,,,0.6007,2,,,,,,,,low,5,0,5,0,1,,,,,,,,,
296635,2022-10-07_24h10.51.353,vts_reward_expectancy,2022.2.4,Win32,60.84575601,Chrome,1280,720,,,,,10,937,,,,,,,,,,,,,,,,,Y,146,circle,1,0,,,,,,,,,,,,,,,,repeat,letter,lettRpt,f,Lo,,,,,,0.6679,2,,,,,,,,low,6,0,6,0,1,,,,,,,,,
296635,2022-10-07_24h10.51.353,vts_reward_expectancy,2022.2.4,Win32,60.84575601,Chrome,1280,720,,,,,0,937,,,,,,,,,,,,,,,,,F,160,triangle,1,0,,,,,,,,,,,,,,,,repeat,letter,lettRpt,d,Hi,,,,,,0.9279,2,,,,,,,,low,7,0,7,0,1,,,,,,,,,
296635,2022-10-07_24h10.51.353,vts_reward_expectancy,2022.2.4,Win32,60.84575601,Chrome,1280,720,,,,,1,938,,,,,,,,,,,,,,,,,H,125,circle,1,0,,,,,,,,,,,,,,,,repeat,letter,lettRpt,d,Lo,,,,,,0.8233,2,,,,,,,,low,8,0,8,0,1,,,,,,,,,
296635,2022-10-07_24h10.51.353,vts_reward_expectancy,2022.2.4,Win32,60.84575601,Chrome,1280,720,,,,,0,938,,,,,,,,,,,,,,,,,W,167,triangle,1,0,,,,,,,,,,,,,,,,switch,number,numSwt,k,Hi,,,,,,0.8519,2,,,,,,,,low,9,0,9,0,1,,,,,,,,,
296635,2022-10-07_24h10.51.353,vts_reward_expectancy,2022.2.4,Win32,60.84575601,Chrome,1280,720,,,,,1,939,,,,,,,,,,,,,,,,,S,132,triangle,1,0,,,,,,,,,,,,,,,,repeat,number,numRpt,j,Hi,,,,,,0.4038,2,,,,,,,,low,10,0,10,0,1,,,,,,,,,
296635,2022-10-07_24h10.51.353,vts_reward_expectancy,2022.2.4,Win32,60.84575601,Chrome,1280,720,,,,,1,940,,,,,,,,,,,,,,,,,U,181,circle,1,0,,,,,,,,,,,,,,,,repeat,number,numRpt,k,Lo,,,,,,0.5846,2,,,,,,,,low,11,0,11,0,1,,,,,,,,,
296635,2022-10-07_24h10.51.353,vts_reward_expectancy,2022.2.4,Win32,60.84575601,Chrome,1280,720,,,,,0,940,,,,,,,,,,,,,,,,,B,174,triangle,1,0,,,,,,,,,,,,,,,,repeat,number,numRpt,k,Hi,,,,,,0.5559,2,,,,,,,,low,12,0,12,0,1,,,,,,,,,
296635,2022-10-07_24h10.51.353,vts_reward_expectancy,2022.2.4,Win32,60.84575601,Chrome,1280,720,,,,,1,941,,,,,,,,,,,,,,,,,D,139,circle,1,0,,,,,,,,,,,,,,,,repeat,number,numRpt,j,Lo,,,,,,0.452,2,,,,,,,,low,13,0,13,0,1,,,,,,,,,
296635,2022-10-07_24h10.51.353,vts_reward_expectancy,2022.2.4,Win32,60.84575601,Chrome,1280,720,,,,,0,941,,,,,,,,,,,,,,,,,Y,146,triangle,1,0,,,,,,,,,,,,,,,,repeat,number,numRpt,j,Hi,,,,,,0.5862,2,,,,,,,,low,14,0,14,0,1,,,,,,,,,
296635,2022-10-07_24h10.51.353,vts_reward_expectancy,2022.2.4,Win32,60.84575601,Chrome,1280,720,,,,,1,942,,,,,,,,,,,,,,,,,F,160,circle,1,0,,,,,,,,,,,,,,,,repeat,number,numRpt,k,Lo,,,,,,0.5501,2,,,,,,,,low,15,0,15,0,1,,,,,,,,,
296635,2022-10-07_24h10.51.353,vts_reward_expectancy,2022.2.4,Win32,60.84575601,Chrome,1280,720,,,,,10,952,,,,,,,,,,,,,,,,,B,139,circle,1,0,,,,,,,,,,,,,,,,repeat,number,numRpt,j,Lo,,,,,,0.4675,2,,,,,,,,low,16,0,16,0,1,,,,,,,,,
296635,2022-10-07_24h10.51.353,vts_reward_expectancy,2022.2.4,Win32,60.84575601,Chrome,1280,720,,,,,0,952,,,,,,,,,,,,,,,,,U,132,triangle,1,0,,,,,,,,,,,,,,,,repeat,number,numRpt,j,Hi,,,,,,0.5462,2,,,,,,,,low,17,0,17,0,1,,,,,,,,,
296635,2022-10-07_24h10.51.353,vts_reward_expectancy,2022.2.4,Win32,60.84575601,Chrome,1280,720,,,,,1,953,,,,,,,,,,,,,,,,,F,160,circle,1,0,,,,,,,,,,,,,,,,repeat,number,numRpt,k,Lo,,,,,,0.947,2,,,,,,,,low,18,0,18,0,1,,,,,,,,,
296635,2022-10-07_24h10.51.353,vts_reward_expectancy,2022.2.4,Win32,60.84575601,Chrome,1280,720,,,,,10,963,,,,,,,,,,,,,,,,,H,181,triangle,1,0,,,,,,,,,,,,,,,,repeat,number,numRpt,k,Hi,,,,,,0.5038,2,,,,,,,,low,19,0,19,0,1,,,,,,,,,
296635,2022-10-07_24h10.51.353,vts_reward_expectancy,2022.2.4,Win32,60.84575601,Chrome,1280,720,,,,,10,973,,,,,,,,,,,,,,,,,W,174,triangle,1,0,,,,,,,,,,,,,,,,repeat,number,numRpt,k,Hi,,,,,,0.4513,2,,,,,,,,low,20,0,20,0,1,,,,,,,,,
296635,2022-10-07_24h10.51.353,vts_reward_expectancy,2022.2.4,Win32,60.84575601,Chrome,1280,720,,,,,10,983,,,,,,,,,,,,,,,,,S,125,circle,1,0,,,,,,,,,,,,,,,,repeat,number,numRpt,j,Lo,,,,,,0.5196,2,,,,,,,,low,21,0,21,0,1,,,,,,,,,
296635,2022-10-07_24h10.51.353,vts_reward_expectancy,2022.2.4,Win32,60.84575601,Chrome,1280,720,,,,,10,993,,,,,,,,,,,,,,,,,D,167,circle,1,0,,,,,,,,,,,,,,,,repeat,number,numRpt,k,Lo,,,,,,0.7074,2,,,,,,,,low,22,0,22,0,1,,,,,,,,,
296635,2022-10-07_24h10.51.353,vts_reward_expectancy,2022.2.4,Win32,60.84575601,Chrome,1280,720,,,,,0,993,,,,,,,,,,,,,,,,,Y,146,triangle,0,0,,,,,,,,,,,,,,,,repeat,number,NA,k,Lo,,,,,,0.6256,2,,,,,,,,low,23,0,23,0,1,,,,,,,,,
296635,2022-10-07_24h10.51.353,vts_reward_expectancy,2022.2.4,Win32,60.84575601,Chrome,1280,720,,,,,10,1003,,,,,,,,,,,,,,,,,U,181,triangle,1,1,,,,,,,,,,,,,,,,repeat,number,numRpt,k,Hi,,,,,,0.4252,2,,,,,,,,low,24,0,24,0,1,,,,,,,,,
296635,2022-10-07_24h10.51.353,vts_reward_expectancy,2022.2.4,Win32,60.84575601,Chrome,1280,720,,,,,1,1004,,,,,,,,,,,,,,,,,W,174,circle,1,0,,,,,,,,,,,,,,,,repeat,number,numRpt,k,Lo,,,,,,0.4363,2,,,,,,,,low,25,0,25,0,1,,,,,,,,,
296635,2022-10-07_24h10.51.353,vts_reward_expectancy,2022.2.4,Win32,60.84575601,Chrome,1280,720,,,,,10,1014,,,,,,,,,,,,,,,,,F,146,circle,1,0,,,,,,,,,,,,,,,,repeat,number,numRpt,j,Lo,,,,,,1.1672,2,,,,,,,,low,26,0,26,0,1,,,,,,,,,
296635,2022-10-07_24h10.51.353,vts_reward_expectancy,2022.2.4,Win32,60.84575601,Chrome,1280,720,,,,,10,1024,,,,,,,,,,,,,,,,,Y,125,triangle,1,0,,,,,,,,,,,,,,,,repeat,number,numRpt,j,Hi,,,,,,0.5008,2,,,,,,,,low,27,0,27,0,1,,,,,,,,,
296635,2022-10-07_24h10.51.353,vts_reward_expectancy,2022.2.4,Win32,60.84575601,Chrome,1280,720,,,,,1,1025,,,,,,,,,,,,,,,,,H,132,triangle,1,0,,,,,,,,,,,,,,,,repeat,number,numRpt,j,Hi,,,,,,0.4646,2,,,,,,,,low,28,0,28,0,1,,,,,,,,,
296635,2022-10-07_24h10.51.353,vts_reward_expectancy,2022.2.4,Win32,60.84575601,Chrome,1280,720,,,,,1,1026,,,,,,,,,,,,,,,,,S,139,circle,1,0,,,,,,,,,,,,,,,,repeat,number,numRpt,j,Lo,,,,,,0.4933,2,,,,,,,,low,29,0,29,0,1,,,,,,,,,
296635,2022-10-07_24h10.51.353,vts_reward_expectancy,2022.2.4,Win32,60.84575601,Chrome,1280,720,,,,,0,1026,,,,,,,,,,,,,,,,,B,160,triangle,1,0,,,,,,,,,,,,,,,,repeat,number,numRpt,k,Hi,,,,,,0.6768,2,,,,,,,,low,30,0,30,0,1,,,,,,,,,
296635,2022-10-07_24h10.51.353,vts_reward_expectancy,2022.2.4,Win32,60.84575601,Chrome,1280,720,,,,,10,1036,,,,,,,,,,,,,,,,,D,167,circle,1,0,,,,,,,,,,,,,,,,repeat,number,numRpt,k,Lo,,,,,,0.6669,2,,,,,,,,low,31,0,31,0,1,,,,,,,,,
296635,2022-10-07_24h10.51.353,vts_reward_expectancy,2022.2.4,Win32,60.84575601,Chrome,1280,720,,,,,1,1037,,,,,,,,,,,,,,,,,W,181,star,1,0,,,,,,,,,,,,,,,,switch,letter,lettSwt,f,Hi,,,,,,0.5672,3,,,,,,space,4.6977,high,0,0,0,0,1,,,,,,,,,
296635,2022-10-07_24h10.51.353,vts_reward_expectancy,2022.2.4,Win32,60.84575601,Chrome,1280,720,,,,,1,1038,,,,,,,,,,,,,,,,,H,160,hexagon,1,0,,,,,,,,,,,,,,,,repeat,letter,lettRpt,d,Lo,,,,,,0.5758,3,,,,,,,,high,1,0,1,0,1,,,,,,,,,
296635,2022-10-07_24h10.51.353,vts_reward_expectancy,2022.2.4,Win32,60.84575601,Chrome,1280,720,,,,,10,1048,,,,,,,,,,,,,,,,,B,146,star,1,0,,,,,,,,,,,,,,,,repeat,letter,lettRpt,d,Hi,,,,,,0.4717,3,,,,,,,,high,2,0,2,0,1,,,,,,,,,
296635,2022-10-07_24h10.51.353,vts_reward_expectancy,2022.2.4,Win32,60.84575601,Chrome,1280,720,,,,,1,1049,,,,,,,,,,,,,,,,,S,167,hexagon,1,0,,,,,,,,,,,,,,,,switch,number,numSwt,k,Lo,,,,,,0.4278,3,,,,,,,,high,3,0,3,0,1,,,,,,,,,
296635,2022-10-07_24h10.51.353,vts_reward_expectancy,2022.2.4,Win32,60.84575601,Chrome,1280,720,,,,,0,1049,,,,,,,,,,,,,,,,,D,132,star,1,0,,,,,,,,,,,,,,,,repeat,number,numRpt,j,Hi,,,,,,0.5008,3,,,,,,,,high,4,0,4,0,1,,,,,,,,,
296635,2022-10-07_24h10.51.353,vts_reward_expectancy,2022.2.4,Win32,60.84575601,Chrome,1280,720,,,,,1,1050,,,,,,,,,,,,,,,,,F,125,hexagon,1,0,,,,,,,,,,,,,,,,repeat,number,numRpt,j,Lo,,,,,,0.5834,3,,,,,,,,high,5,0,5,0,1,,,,,,,,,
296635,2022-10-07_24h10.51.353,vts_reward_expectancy,2022.2.4,Win32,60.84575601,Chrome,1280,720,,,,,0,1050,,,,,,,,,,,,,,,,,Y,174,star,1,0,,,,,,,,,,,,,,,,repeat,number,numRpt,k,Hi,,,,,,0.5774,3,,,,,,,,high,6,0,6,0,1,,,,,,,,,
296635,2022-10-07_24h10.51.353,vts_reward_expectancy,2022.2.4,Win32,60.84575601,Chrome,1280,720,,,,,1,1051,,,,,,,,,,,,,,,,,U,139,hexagon,1,0,,,,,,,,,,,,,,,,repeat,number,numRpt,j,Lo,,,,,,0.384,3,,,,,,,,high,7,0,7,0,1,,,,,,,,,
296635,2022-10-07_24h10.51.353,vts_reward_expectancy,2022.2.4,Win32,60.84575601,Chrome,1280,720,,,,,0,1051,,,,,,,,,,,,,,,,,W,181,star,0,0,,,,,,,,,,,,,,,,switch,letter,NA,d,Lo,,,,,,0.8132,3,,,,,,,,high,8,0,8,0,1,,,,,,,,,
296635,2022-10-07_24h10.51.353,vts_reward_expectancy,2022.2.4,Win32,60.84575601,Chrome,1280,720,,,,,0,1051,,,,,,,,,,,,,,,,,H,160,hexagon,0,1,,,,,,,,,,,,,,,,repeat,letter,NA,f,Lo,,,,,,1.0399,3,,,,,,,,high,9,0,9,0,1,,,,,,,,,
296635,2022-10-07_24h10.51.353,vts_reward_expectancy,2022.2.4,Win32,60.84575601,Chrome,1280,720,,,,,10,1061,,,,,,,,,,,,,,,,,B,146,hexagon,1,1,,,,,,,,,,,,,,,,repeat,letter,lettRpt,d,Lo,,,,,,0.4669,3,,,,,,,,high,10,0,10,0,1,,,,,,,,,
296635,2022-10-07_24h10.51.353,vts_reward_expectancy,2022.2.4,Win32,60.84575601,Chrome,1280,720,,,,,0,1061,,,,,,,,,,,,,,,,,S,167,star,1,0,,,,,,,,,,,,,,,,repeat,letter,lettRpt,f,Hi,,,,,,0.9031,3,,,,,,,,high,11,0,11,0,1,,,,,,,,,
296635,2022-10-07_24h10.51.353,vts_reward_expectancy,2022.2.4,Win32,60.84575601,Chrome,1280,720,,,,,1,1062,,,,,,,,,,,,,,,,,D,132,hexagon,1,0,,,,,,,,,,,,,,,,repeat,letter,lettRpt,d,Lo,,,,,,0.4839,3,,,,,,,,high,12,0,12,0,1,,,,,,,,,
296635,2022-10-07_24h10.51.353,vts_reward_expectancy,2022.2.4,Win32,60.84575601,Chrome,1280,720,,,,,10,1072,,,,,,,,,,,,,,,,,F,125,star,1,0,,,,,,,,,,,,,,,,repeat,letter,lettRpt,d,Hi,,,,,,0.7119,3,,,,,,,,high,13,0,13,0,1,,,,,,,,,
296635,2022-10-07_24h10.51.353,vts_reward_expectancy,2022.2.4,Win32,60.84575601,Chrome,1280,720,,,,,10,1082,,,,,,,,,,,,,,,,,Y,174,hexagon,1,0,,,,,,,,,,,,,,,,repeat,letter,lettRpt,f,Lo,,,,,,0.6465,3,,,,,,,,high,14,0,14,0,1,,,,,,,,,
296635,2022-10-07_24h10.51.353,vts_reward_expectancy,2022.2.4,Win32,60.84575601,Chrome,1280,720,,,,,10,1092,,,,,,,,,,,,,,,,,U,139,star,1,0,,,,,,,,,,,,,,,,repeat,letter,lettRpt,f,Hi,,,,,,0.6506,3,,,,,,,,high,15,0,15,0,1,,,,,,,,,
296635,2022-10-07_24h10.51.353,vts_reward_expectancy,2022.2.4,Win32,60.84575601,Chrome,1280,720,,,,,0,1092,,,,,,,,,,,,,,,,,H,146,star,0,0,,,,,,,,,,,,,,,,repeat,letter,NA,f,Hi,,,,,,0.8415,3,,,,,,,,high,16,0,16,0,1,,,,,,,,,
296635,2022-10-07_24h10.51.353,vts_reward_expectancy,2022.2.4,Win32,60.84575601,Chrome,1280,720,,,,,1,1093,,,,,,,,,,,,,,,,,U,160,hexagon,1,1,,,,,,,,,,,,,,,,switch,number,numSwt,k,Lo,,,,,,0.5114,3,,,,,,,,high,17,0,17,0,1,,,,,,,,,
296635,2022-10-07_24h10.51.353,vts_reward_expectancy,2022.2.4,Win32,60.84575601,Chrome,1280,720,,,,,1,1094,,,,,,,,,,,,,,,,,Y,139,star,1,0,,,,,,,,,,,,,,,,repeat,number,numRpt,j,Hi,,,,,,0.4347,3,,,,,,,,high,18,0,18,0,1,,,,,,,,,
296635,2022-10-07_24h10.51.353,vts_reward_expectancy,2022.2.4,Win32,60.84575601,Chrome,1280,720,,,,,1,1095,,,,,,,,,,,,,,,,,B,181,hexagon,1,0,,,,,,,,,,,,,,,,repeat,number,numRpt,k,Lo,,,,,,0.4673,3,,,,,,,,high,19,0,19,0,1,,,,,,,,,
296635,2022-10-07_24h10.51.353,vts_reward_expectancy,2022.2.4,Win32,60.84575601,Chrome,1280,720,,,,,0,1095,,,,,,,,,,,,,,,,,W,174,star,1,0,,,,,,,,,,,,,,,,repeat,number,numRpt,k,Hi,,,,,,0.4722,3,,,,,,,,high,20,0,20,0,1,,,,,,,,,
296635,2022-10-07_24h10.51.353,vts_reward_expectancy,2022.2.4,Win32,60.84575601,Chrome,1280,720,,,,,1,1096,,,,,,,,,,,,,,,,,F,132,hexagon,1,0,,,,,,,,,,,,,,,,repeat,number,numRpt,j,Lo,,,,,,0.4928,3,,,,,,,,high,21,0,21,0,1,,,,,,,,,
296635,2022-10-07_24h10.51.353,vts_reward_expectancy,2022.2.4,Win32,60.84575601,Chrome,1280,720,,,,,1,1097,,,,,,,,,,,,,,,,,S,125,hexagon,1,0,,,,,,,,,,,,,,,,repeat,number,numRpt,j,Lo,,,,,,0.484,3,,,,,,,,high,22,0,22,0,1,,,,,,,,,
296635,2022-10-07_24h10.51.353,vts_reward_expectancy,2022.2.4,Win32,60.84575601,Chrome,1280,720,,,,,0,1097,,,,,,,,,,,,,,,,,D,167,star,1,0,,,,,,,,,,,,,,,,repeat,number,numRpt,k,Hi,,,,,,0.4903,3,,,,,,,,high,23,0,23,0,1,,,,,,,,,
296635,2022-10-07_24h10.51.353,vts_reward_expectancy,2022.2.4,Win32,60.84575601,Chrome,1280,720,,,,,0,1097,,,,,,,,,,,,,,,,,H,160,star,1,0,,,,,,,,,,,,,,,,repeat,number,numRpt,k,Hi,,,,,,0.6339,3,,,,,,,,high,24,0,24,0,1,,,,,,,,,
296635,2022-10-07_24h10.51.353,vts_reward_expectancy,2022.2.4,Win32,60.84575601,Chrome,1280,720,,,,,1,1098,,,,,,,,,,,,,,,,,B,167,hexagon,1,0,,,,,,,,,,,,,,,,switch,letter,lettSwt,d,Lo,,,,,,0.4214,3,,,,,,,,high,25,0,25,0,1,,,,,,,,,
296635,2022-10-07_24h10.51.353,vts_reward_expectancy,2022.2.4,Win32,60.84575601,Chrome,1280,720,,,,,10,1108,,,,,,,,,,,,,,,,,S,125,star,1,0,,,,,,,,,,,,,,,,repeat,letter,lettRpt,f,Hi,,,,,,0.4344,3,,,,,,,,high,26,0,26,0,1,,,,,,,,,
296635,2022-10-07_24h10.51.353,vts_reward_expectancy,2022.2.4,Win32,60.84575601,Chrome,1280,720,,,,,10,1118,,,,,,,,,,,,,,,,,U,146,hexagon,1,0,,,,,,,,,,,,,,,,repeat,letter,lettRpt,f,Lo,,,,,,0.4565,3,,,,,,,,high,27,0,27,0,1,,,,,,,,,
296635,2022-10-07_24h10.51.353,vts_reward_expectancy,2022.2.4,Win32,60.84575601,Chrome,1280,720,,,,,1,1119,,,,,,,,,,,,,,,,,D,174,hexagon,1,0,,,,,,,,,,,,,,,,repeat,letter,lettRpt,d,Lo,,,,,,0.4521,3,,,,,,,,high,28,0,28,0,1,,,,,,,,,
296635,2022-10-07_24h10.51.353,vts_reward_expectancy,2022.2.4,Win32,60.84575601,Chrome,1280,720,,,,,0,1119,,,,,,,,,,,,,,,,,Y,132,star,1,0,,,,,,,,,,,,,,,,repeat,letter,lettRpt,f,Hi,,,,,,0.8112,3,,,,,,,,high,29,0,29,0,1,,,,,,,,,
296635,2022-10-07_24h10.51.353,vts_reward_expectancy,2022.2.4,Win32,60.84575601,Chrome,1280,720,,,,,10,1129,,,,,,,,,,,,,,,,,W,139,hexagon,1,0,,,,,,,,,,,,,,,,repeat,letter,lettRpt,f,Lo,,,,,,0.5534,3,,,,,,,,high,30,0,30,0,1,,,,,,,,,
296635,2022-10-07_24h10.51.353,vts_reward_expectancy,2022.2.4,Win32,60.84575601,Chrome,1280,720,,,,,0,1129,,,,,,,,,,,,,,,,,F,181,star,0,0,,,,,,,,,,,,,,,,repeat,letter,NA,f,Lo,,,,,,0.6806,3,,,,,,,,high,31,0,31,0,1,,,,,,,,,
296635,2022-10-07_24h10.51.353,vts_reward_expectancy,2022.2.4,Win32,60.84575601,Chrome,1280,720,,,,,1,1130,,,,,,,,,,,,,,,,,Y,181,circle,1,1,,,,,,,,,,,,,,,,repeat,letter,lettRpt,f,Lo,,,,,,0.6181,4,,,,,,space,2.6202,low,0,0,0,0,1,,,,,,,,,
296635,2022-10-07_24h10.51.353,vts_reward_expectancy,2022.2.4,Win32,60.84575601,Chrome,1280,720,,,,,0,1130,,,,,,,,,,,,,,,,,F,174,triangle,0,0,,,,,,,,,,,,,,,,repeat,letter,NA,f,Lo,,,,,,1.094,4,,,,,,,,low,1,0,1,0,1,,,,,,,,,
296635,2022-10-07_24h10.51.353,vts_reward_expectancy,2022.2.4,Win32,60.84575601,Chrome,1280,720,,,,,1,1131,,,,,,,,,,,,,,,,,W,125,circle,1,1,,,,,,,,,,,,,,,,repeat,letter,lettRpt,f,Lo,,,,,,0.5392,4,,,,,,,,low,2,0,2,0,1,,,,,,,,,
296635,2022-10-07_24h10.51.353,vts_reward_expectancy,2022.2.4,Win32,60.84575601,Chrome,1280,720,,,,,10,1141,,,,,,,,,,,,,,,,,D,160,triangle,1,0,,,,,,,,,,,,,,,,repeat,letter,lettRpt,d,Hi,,,,,,0.4671,4,,,,,,,,low,3,0,3,0,1,,,,,,,,,
296635,2022-10-07_24h10.51.353,vts_reward_expectancy,2022.2.4,Win32,60.84575601,Chrome,1280,720,,,,,0,1141,,,,,,,,,,,,,,,,,H,167,triangle,1,0,,,,,,,,,,,,,,,,repeat,letter,lettRpt,d,Hi,,,,,,0.9348,4,,,,,,,,low,4,0,4,0,1,,,,,,,,,
296635,2022-10-07_24h10.51.353,vts_reward_expectancy,2022.2.4,Win32,60.84575601,Chrome,1280,720,,,,,10,1151,,,,,,,,,,,,,,,,,B,132,circle,1,0,,,,,,,,,,,,,,,,repeat,letter,lettRpt,d,Lo,,,,,,0.4676,4,,,,,,,,low,5,0,5,0,1,,,,,,,,,
296635,2022-10-07_24h10.51.353,vts_reward_expectancy,2022.2.4,Win32,60.84575601,Chrome,1280,720,,,,,1,1152,,,,,,,,,,,,,,,,,U,139,circle,1,0,,,,,,,,,,,,,,,,repeat,letter,lettRpt,f,Lo,,,,,,0.5004,4,,,,,,,,low,6,0,6,0,1,,,,,,,,,
296635,2022-10-07_24h10.51.353,vts_reward_expectancy,2022.2.4,Win32,60.84575601,Chrome,1280,720,,,,,0,1152,,,,,,,,,,,,,,,,,S,146,triangle,1,0,,,,,,,,,,,,,,,,repeat,letter,lettRpt,f,Hi,,,,,,0.7051,4,,,,,,,,low,7,0,7,0,1,,,,,,,,,
296635,2022-10-07_24h10.51.353,vts_reward_expectancy,2022.2.4,Win32,60.84575601,Chrome,1280,720,,,,,10,1162,,,,,,,,,,,,,,,,,Y,181,circle,1,0,,,,,,,,,,,,,,,,switch,number,numSwt,k,Lo,,,,,,0.4003,4,,,,,,,,low,8,0,8,0,1,,,,,,,,,
296635,2022-10-07_24h10.51.353,vts_reward_expectancy,2022.2.4,Win32,60.84575601,Chrome,1280,720,,,,,10,1172,,,,,,,,,,,,,,,,,F,174,triangle,1,0,,,,,,,,,,,,,,,,repeat,number,numRpt,k,Hi,,,,,,0.4346,4,,,,,,,,low,9,0,9,0,1,,,,,,,,,
296635,2022-10-07_24h10.51.353,vts_reward_expectancy,2022.2.4,Win32,60.84575601,Chrome,1280,720,,,,,1,1173,,,,,,,,,,,,,,,,,W,125,circle,1,0,,,,,,,,,,,,,,,,repeat,number,numRpt,j,Lo,,,,,,0.3712,4,,,,,,,,low,10,0,10,0,1,,,,,,,,,
296635,2022-10-07_24h10.51.353,vts_reward_expectancy,2022.2.4,Win32,60.84575601,Chrome,1280,720,,,,,1,1174,,,,,,,,,,,,,,,,,D,160,triangle,1,0,,,,,,,,,,,,,,,,repeat,number,numRpt,k,Hi,,,,,,0.4172,4,,,,,,,,low,11,0,11,0,1,,,,,,,,,
296635,2022-10-07_24h10.51.353,vts_reward_expectancy,2022.2.4,Win32,60.84575601,Chrome,1280,720,,,,,0,1174,,,,,,,,,,,,,,,,,H,167,circle,0,0,,,,,,,,,,,,,,,,repeat,number,NA,j,Hi,,,,,,0.3726,4,,,,,,,,low,12,0,12,0,1,,,,,,,,,
296635,2022-10-07_24h10.51.353,vts_reward_expectancy,2022.2.4,Win32,60.84575601,Chrome,1280,720,,,,,0,1174,,,,,,,,,,,,,,,,,B,132,triangle,1,1,,,,,,,,,,,,,,,,repeat,number,numRpt,j,Hi,,,,,,0.4944,4,,,,,,,,low,13,0,13,0,1,,,,,,,,,
296635,2022-10-07_24h10.51.353,vts_reward_expectancy,2022.2.4,Win32,60.84575601,Chrome,1280,720,,,,,10,1184,,,,,,,,,,,,,,,,,U,139,triangle,1,0,,,,,,,,,,,,,,,,repeat,number,numRpt,j,Hi,,,,,,0.4441,4,,,,,,,,low,14,0,14,0,1,,,,,,,,,
296635,2022-10-07_24h10.51.353,vts_reward_expectancy,2022.2.4,Win32,60.84575601,Chrome,1280,720,,,,,1,1185,,,,,,,,,,,,,,,,,S,146,circle,1,0,,,,,,,,,,,,,,,,repeat,number,numRpt,j,Lo,,,,,,0.4464,4,,,,,,,,low,15,0,15,0,1,,,,,,,,,
296635,2022-10-07_24h10.51.353,vts_reward_expectancy,2022.2.4,Win32,60.84575601,Chrome,1280,720,,,,,1,1186,,,,,,,,,,,,,,,,,B,174,triangle,1,0,,,,,,,,,,,,,,,,repeat,number,numRpt,k,Hi,,,,,,0.4674,4,,,,,,,,low,16,0,16,0,1,,,,,,,,,
296635,2022-10-07_24h10.51.353,vts_reward_expectancy,2022.2.4,Win32,60.84575601,Chrome,1280,720,,,,,10,1196,,,,,,,,,,,,,,,,,W,167,circle,1,0,,,,,,,,,,,,,,,,repeat,number,numRpt,k,Lo,,,,,,0.3879,4,,,,,,,,low,17,0,17,0,1,,,,,,,,,
296635,2022-10-07_24h10.51.353,vts_reward_expectancy,2022.2.4,Win32,60.84575601,Chrome,1280,720,,,,,0,1196,,,,,,,,,,,,,,,,,F,125,triangle,1,0,,,,,,,,,,,,,,,,repeat,number,numRpt,j,Hi,,,,,,0.5671,4,,,,,,,,low,18,0,18,0,1,,,,,,,,,
296635,2022-10-07_24h10.51.353,vts_reward_expectancy,2022.2.4,Win32,60.84575601,Chrome,1280,720,,,,,1,1197,,,,,,,,,,,,,,,,,S,160,circle,1,0,,,,,,,,,,,,,,,,repeat,number,numRpt,k,Lo,,,,,,0.5171,4,,,,,,,,low,19,0,19,0,1,,,,,,,,,
296635,2022-10-07_24h10.51.353,vts_reward_expectancy,2022.2.4,Win32,60.84575601,Chrome,1280,720,,,,,10,1207,,,,,,,,,,,,,,,,,Y,146,circle,1,0,,,,,,,,,,,,,,,,switch,letter,lettSwt,f,Lo,,,,,,0.4838,4,,,,,,,,low,20,0,20,0,1,,,,,,,,,
296635,2022-10-07_24h10.51.353,vts_reward_expectancy,2022.2.4,Win32,60.84575601,Chrome,1280,720,,,,,0,1207,,,,,,,,,,,,,,,,,D,139,triangle,1,0,,,,,,,,,,,,,,,,repeat,letter,lettRpt,d,Hi,,,,,,0.5577,4,,,,,,,,low,21,0,21,0,1,,,,,,,,,
296635,2022-10-07_24h10.51.353,vts_reward_expectancy,2022.2.4,Win32,60.84575601,Chrome,1280,720,,,,,0,1207,,,,,,,,,,,,,,,,,H,181,triangle,1,0,,,,,,,,,,,,,,,,repeat,letter,lettRpt,d,Hi,,,,,,0.5295,4,,,,,,,,low,22,0,22,0,1,,,,,,,,,
296635,2022-10-07_24h10.51.353,vts_reward_expectancy,2022.2.4,Win32,60.84575601,Chrome,1280,720,,,,,1,1208,,,,,,,,,,,,,,,,,U,132,circle,1,0,,,,,,,,,,,,,,,,repeat,letter,lettRpt,f,Lo,,,,,,0.5838,4,,,,,,,,low,23,0,23,0,1,,,,,,,,,
296635,2022-10-07_24h10.51.353,vts_reward_expectancy,2022.2.4,Win32,60.84575601,Chrome,1280,720,,,,,10,1218,,,,,,,,,,,,,,,,,W,132,triangle,1,0,,,,,,,,,,,,,,,,repeat,letter,lettRpt,f,Hi,,,,,,0.4672,4,,,,,,,,low,24,0,24,0,1,,,,,,,,,
296635,2022-10-07_24h10.51.353,vts_reward_expectancy,2022.2.4,Win32,60.84575601,Chrome,1280,720,,,,,1,1219,,,,,,,,,,,,,,,,,B,146,circle,1,0,,,,,,,,,,,,,,,,repeat,letter,lettRpt,d,Lo,,,,,,0.4842,4,,,,,,,,low,25,0,25,0,1,,,,,,,,,
296635,2022-10-07_24h10.51.353,vts_reward_expectancy,2022.2.4,Win32,60.84575601,Chrome,1280,720,,,,,0,1219,,,,,,,,,,,,,,,,,D,125,triangle,1,0,,,,,,,,,,,,,,,,repeat,letter,lettRpt,d,Hi,,,,,,0.5672,4,,,,,,,,low,26,0,26,0,1,,,,,,,,,
296635,2022-10-07_24h10.51.353,vts_reward_expectancy,2022.2.4,Win32,60.84575601,Chrome,1280,720,,,,,10,1229,,,,,,,,,,,,,,,,,Y,167,circle,1,0,,,,,,,,,,,,,,,,repeat,letter,lettRpt,f,Lo,,,,,,0.5037,4,,,,,,,,low,27,0,27,0,1,,,,,,,,,
296635,2022-10-07_24h10.51.353,vts_reward_expectancy,2022.2.4,Win32,60.84575601,Chrome,1280,720,,,,,0,1229,,,,,,,,,,,,,,,,,F,181,triangle,0,0,,,,,,,,,,,,,,,,repeat,letter,NA,f,Lo,,,,,,0.718,4,,,,,,,,low,28,0,28,0,1,,,,,,,,,
296635,2022-10-07_24h10.51.353,vts_reward_expectancy,2022.2.4,Win32,60.84575601,Chrome,1280,720,,,,,1,1230,,,,,,,,,,,,,,,,,S,174,circle,1,1,,,,,,,,,,,,,,,,repeat,letter,lettRpt,f,Lo,,,,,,0.3665,4,,,,,,,,low,29,0,29,0,1,,,,,,,,,
296635,2022-10-07_24h10.51.353,vts_reward_expectancy,2022.2.4,Win32,60.84575601,Chrome,1280,720,,,,,1,1231,,,,,,,,,,,,,,,,,U,160,circle,1,0,,,,,,,,,,,,,,,,repeat,letter,lettRpt,f,Lo,,,,,,0.7086,4,,,,,,,,low,30,0,30,0,1,,,,,,,,,
296635,2022-10-07_24h10.51.353,vts_reward_expectancy,2022.2.4,Win32,60.84575601,Chrome,1280,720,,,,,0,1231,,,,,,,,,,,,,,,,,H,139,triangle,1,0,,,,,,,,,,,,,,,,repeat,letter,lettRpt,d,Hi,,,,,,0.5506,4,,,,,,,,low,31,0,31,0,1,,,,,,,,,
296635,2022-10-07_24h10.51.353,vts_reward_expectancy,2022.2.4,Win32,60.84575601,Chrome,1280,720,,,,,1,1232,,,,,,,,,,,,,,,,,U,132,hexagon,1,0,,,,,,,,,,,,,,,,switch,number,numSwt,j,Lo,,,,,,0.4259,5,,,,,,space,0.4104,high,0,0,0,0,1,,,,,,,,,
296635,2022-10-07_24h10.51.353,vts_reward_expectancy,2022.2.4,Win32,60.84575601,Chrome,1280,720,,,,,0,1232,,,,,,,,,,,,,,,,,F,146,star,1,0,,,,,,,,,,,,,,,,repeat,number,numRpt,j,Hi,,,,,,0.7179,5,,,,,,,,high,1,0,1,0,1,,,,,,,,,
296635,2022-10-07_24h10.51.353,vts_reward_expectancy,2022.2.4,Win32,60.84575601,Chrome,1280,720,,,,,1,1233,,,,,,,,,,,,,,,,,H,167,hexagon,1,0,,,,,,,,,,,,,,,,repeat,number,numRpt,k,Lo,,,,,,0.3761,5,,,,,,,,high,2,0,2,0,1,,,,,,,,,
296635,2022-10-07_24h10.51.353,vts_reward_expectancy,2022.2.4,Win32,60.84575601,Chrome,1280,720,,,,,0,1233,,,,,,,,,,,,,,,,,Y,160,star,0,0,,,,,,,,,,,,,,,,repeat,number,NA,j,Lo,,,,,,0.3752,5,,,,,,,,high,3,0,3,0,1,,,,,,,,,
296635,2022-10-07_24h10.51.353,vts_reward_expectancy,2022.2.4,Win32,60.84575601,Chrome,1280,720,,,,,0,1233,,,,,,,,,,,,,,,,,S,181,star,1,1,,,,,,,,,,,,,,,,switch,letter,lettSwt,f,Hi,,,,,,0.6456,5,,,,,,,,high,4,0,4,0,1,,,,,,,,,
296635,2022-10-07_24h10.51.353,vts_reward_expectancy,2022.2.4,Win32,60.84575601,Chrome,1280,720,,,,,1,1234,,,,,,,,,,,,,,,,,D,139,hexagon,1,0,,,,,,,,,,,,,,,,repeat,letter,lettRpt,d,Lo,,,,,,0.434,5,,,,,,,,high,5,0,5,0,1,,,,,,,,,
296635,2022-10-07_24h10.51.353,vts_reward_expectancy,2022.2.4,Win32,60.84575601,Chrome,1280,720,,,,,10,1244,,,,,,,,,,,,,,,,,B,125,star,1,0,,,,,,,,,,,,,,,,repeat,letter,lettRpt,d,Hi,,,,,,0.434,5,,,,,,,,high,6,0,6,0,1,,,,,,,,,
296635,2022-10-07_24h10.51.353,vts_reward_expectancy,2022.2.4,Win32,60.84575601,Chrome,1280,720,,,,,1,1245,,,,,,,,,,,,,,,,,W,174,hexagon,1,0,,,,,,,,,,,,,,,,repeat,letter,lettRpt,f,Lo,,,,,,0.4669,5,,,,,,,,high,7,0,7,0,1,,,,,,,,,
296635,2022-10-07_24h10.51.353,vts_reward_expectancy,2022.2.4,Win32,60.84575601,Chrome,1280,720,,,,,0,1245,,,,,,,,,,,,,,,,,U,132,star,1,0,,,,,,,,,,,,,,,,repeat,letter,lettRpt,f,Hi,,,,,,0.5894,5,,,,,,,,high,8,0,8,0,1,,,,,,,,,
296635,2022-10-07_24h10.51.353,vts_reward_expectancy,2022.2.4,Win32,60.84575601,Chrome,1280,720,,,,,1,1246,,,,,,,,,,,,,,,,,F,146,hexagon,1,0,,,,,,,,,,,,,,,,repeat,letter,lettRpt,d,Lo,,,,,,0.3363,5,,,,,,,,high,9,0,9,0,1,,,,,,,,,
296635,2022-10-07_24h10.51.353,vts_reward_expectancy,2022.2.4,Win32,60.84575601,Chrome,1280,720,,,,,1,1247,,,,,,,,,,,,,,,,,H,167,star,1,0,,,,,,,,,,,,,,,,repeat,letter,lettRpt,d,Hi,,,,,,0.322,5,,,,,,,,high,10,0,10,0,1,,,,,,,,,
296635,2022-10-07_24h10.51.353,vts_reward_expectancy,2022.2.4,Win32,60.84575601,Chrome,1280,720,,,,,1,1248,,,,,,,,,,,,,,,,,Y,160,hexagon,1,0,,,,,,,,,,,,,,,,repeat,letter,lettRpt,f,Lo,,,,,,0.417,5,,,,,,,,high,11,0,11,0,1,,,,,,,,,
296635,2022-10-07_24h10.51.353,vts_reward_expectancy,2022.2.4,Win32,60.84575601,Chrome,1280,720,,,,,1,1249,,,,,,,,,,,,,,,,,S,181,hexagon,1,0,,,,,,,,,,,,,,,,repeat,letter,lettRpt,f,Lo,,,,,,0.4338,5,,,,,,,,high,12,0,12,0,1,,,,,,,,,
296635,2022-10-07_24h10.51.353,vts_reward_expectancy,2022.2.4,Win32,60.84575601,Chrome,1280,720,,,,,0,1249,,,,,,,,,,,,,,,,,D,139,star,1,0,,,,,,,,,,,,,,,,repeat,letter,lettRpt,d,Hi,,,,,,0.6284,5,,,,,,,,high,13,0,13,0,1,,,,,,,,,
296635,2022-10-07_24h10.51.353,vts_reward_expectancy,2022.2.4,Win32,60.84575601,Chrome,1280,720,,,,,1,1250,,,,,,,,,,,,,,,,,B,125,hexagon,1,0,,,,,,,,,,,,,,,,repeat,letter,lettRpt,d,Lo,,,,,,0.4341,5,,,,,,,,high,14,0,14,0,1,,,,,,,,,
296635,2022-10-07_24h10.51.353,vts_reward_expectancy,2022.2.4,Win32,60.84575601,Chrome,1280,720,,,,,0,1250,,,,,,,,,,,,,,,,,W,174,star,0,0,,,,,,,,,,,,,,,,repeat,letter,NA,d,Lo,,,,,,0.3945,5,,,,,,,,high,15,0,15,0,1,,,,,,,,,
296635,2022-10-07_24h10.51.353,vts_reward_expectancy,2022.2.4,Win32,60.84575601,Chrome,1280,720,,,,,10,1260,,,,,,,,,,,,,,,,,B,146,star,1,1,,,,,,,,,,,,,,,,repeat,letter,lettRpt,d,Hi,,,,,,0.4901,5,,,,,,,,high,16,0,16,0,1,,,,,,,,,
296635,2022-10-07_24h10.51.353,vts_reward_expectancy,2022.2.4,Win32,60.84575601,Chrome,1280,720,,,,,1,1261,,,,,,,,,,,,,,,,,F,167,hexagon,1,0,,,,,,,,,,,,,,,,repeat,letter,lettRpt,d,Lo,,,,,,0.4787,5,,,,,,,,high,17,0,17,0,1,,,,,,,,,
296635,2022-10-07_24h10.51.353,vts_reward_expectancy,2022.2.4,Win32,60.84575601,Chrome,1280,720,,,,,1,1262,,,,,,,,,,,,,,,,,Y,174,hexagon,1,0,,,,,,,,,,,,,,,,repeat,letter,lettRpt,f,Lo,,,,,,0.4287,5,,,,,,,,high,18,0,18,0,1,,,,,,,,,
296635,2022-10-07_24h10.51.353,vts_reward_expectancy,2022.2.4,Win32,60.84575601,Chrome,1280,720,,,,,0,1262,,,,,,,,,,,,,,,,,H,139,star,1,0,,,,,,,,,,,,,,,,repeat,letter,lettRpt,d,Hi,,,,,,0.5174,5,,,,,,,,high,19,0,19,0,1,,,,,,,,,
296635,2022-10-07_24h10.51.353,vts_reward_expectancy,2022.2.4,Win32,60.84575601,Chrome,1280,720,,,,,0,1262,,,,,,,,,,,,,,,,,U,160,star,1,0,,,,,,,,,,,,,,,,switch,number,numSwt,k,Hi,,,,,,0.4053,5,,,,,,,,high,20,0,20,0,1,,,,,,,,,
296635,2022-10-07_24h10.51.353,vts_reward_expectancy,2022.2.4,Win32,60.84575601,Chrome,1280,720,,,,,1,1263,,,,,,,,,,,,,,,,,D,132,hexagon,1,0,,,,,,,,,,,,,,,,repeat,number,numRpt,j,Lo,,,,,,0.3692,5,,,,,,,,high,21,0,21,0,1,,,,,,,,,
296635,2022-10-07_24h10.51.353,vts_reward_expectancy,2022.2.4,Win32,60.84575601,Chrome,1280,720,,,,,10,1273,,,,,,,,,,,,,,,,,S,181,star,1,0,,,,,,,,,,,,,,,,repeat,number,numRpt,k,Hi,,,,,,0.3717,5,,,,,,,,high,22,0,22,0,1,,,,,,,,,
296635,2022-10-07_24h10.51.353,vts_reward_expectancy,2022.2.4,Win32,60.84575601,Chrome,1280,720,,,,,1,1274,,,,,,,,,,,,,,,,,W,125,hexagon,1,0,,,,,,,,,,,,,,,,repeat,number,numRpt,j,Lo,,,,,,0.4352,5,,,,,,,,high,23,0,23,0,1,,,,,,,,,
296635,2022-10-07_24h10.51.353,vts_reward_expectancy,2022.2.4,Win32,60.84575601,Chrome,1280,720,,,,,10,1284,,,,,,,,,,,,,,,,,S,125,hexagon,1,0,,,,,,,,,,,,,,,,repeat,number,numRpt,j,Lo,,,,,,0.3937,5,,,,,,,,high,24,0,24,0,1,,,,,,,,,
296635,2022-10-07_24h10.51.353,vts_reward_expectancy,2022.2.4,Win32,60.84575601,Chrome,1280,720,,,,,0,1284,,,,,,,,,,,,,,,,,H,167,star,1,0,,,,,,,,,,,,,,,,repeat,number,numRpt,k,Hi,,,,,,0.5684,5,,,,,,,,high,25,0,25,0,1,,,,,,,,,
296635,2022-10-07_24h10.51.353,vts_reward_expectancy,2022.2.4,Win32,60.84575601,Chrome,1280,720,,,,,0,1284,,,,,,,,,,,,,,,,,F,146,hexagon,0,0,,,,,,,,,,,,,,,,repeat,number,NA,k,Hi,,,,,,0.3625,5,,,,,,,,high,26,0,26,0,1,,,,,,,,,
296635,2022-10-07_24h10.51.353,vts_reward_expectancy,2022.2.4,Win32,60.84575601,Chrome,1280,720,,,,,0,1284,,,,,,,,,,,,,,,,,D,181,star,1,1,,,,,,,,,,,,,,,,repeat,number,numRpt,k,Hi,,,,,,0.4713,5,,,,,,,,high,27,0,27,0,1,,,,,,,,,
296635,2022-10-07_24h10.51.353,vts_reward_expectancy,2022.2.4,Win32,60.84575601,Chrome,1280,720,,,,,1,1285,,,,,,,,,,,,,,,,,W,139,hexagon,1,0,,,,,,,,,,,,,,,,repeat,number,numRpt,j,Lo,,,,,,0.451,5,,,,,,,,high,28,0,28,0,1,,,,,,,,,
296635,2022-10-07_24h10.51.353,vts_reward_expectancy,2022.2.4,Win32,60.84575601,Chrome,1280,720,,,,,1,1286,,,,,,,,,,,,,,,,,Y,160,star,1,0,,,,,,,,,,,,,,,,repeat,number,numRpt,k,Hi,,,,,,0.3679,5,,,,,,,,high,29,0,29,0,1,,,,,,,,,
296635,2022-10-07_24h10.51.353,vts_reward_expectancy,2022.2.4,Win32,60.84575601,Chrome,1280,720,,,,,1,1287,,,,,,,,,,,,,,,,,U,132,hexagon,1,0,,,,,,,,,,,,,,,,repeat,number,numRpt,j,Lo,,,,,,0.4359,5,,,,,,,,high,30,0,30,0,1,,,,,,,,,
296635,2022-10-07_24h10.51.353,vts_reward_expectancy,2022.2.4,Win32,60.84575601,Chrome,1280,720,,,,,0,1287,,,,,,,,,,,,,,,,,B,174,star,1,0,,,,,,,,,,,,,,,,repeat,number,numRpt,k,Hi,,,,,,0.4345,5,,,,,,,,high,31,0,31,0,1,,,,,,,,,
296635,2022-10-07_24h10.51.353,vts_reward_expectancy,2022.2.4,Win32,60.84575601,Chrome,1280,720,,,,,,,,,,,,,,,,,,,,,,,,,,,,,,,,,,,,,,,,,,,,,,,,,,,,,,6,,,,,,,,,,,,,,Use keys d&f to determine whether letter provided was closer to a or z. Used keys j&k to determine whether the number provided was lower or higher than 153. ,1,,5,2,,2,1280,720
