participant,date,expName,psychopyVersion,OS,frameRate,browser,xResolution,yResolution,key_resp.keys,key_resp.rt,training_resp.keys,training_resp.rt,points_trial,points_cumul,trainBlock,training.thisRepN,training.thisTrialN,training.thisN,training.thisIndex,training.ran,LTriangleOpac,LCircleOpac,LHexagonOpac,LStarOpac,RTriangleOpac,RCircleOpac,RHexagonOpac,RStarOpac,LShape_ID,RShape_ID,curr_topStim,curr_bottStim,curr_shape,acc,E1,target_resp_prac1.keys,target_resp_prac1.rt,pracBlock,task1_prac_trials.thisRepN,task1_prac_trials.thisTrialN,task1_prac_trials.thisN,task1_prac_trials.thisIndex,task1_prac_trials.ran,target_resp_prac2.keys,target_resp_prac2.rt,task2_praac_trials.thisRepN,task2_praac_trials.thisTrialN,task2_praac_trials.thisN,task2_praac_trials.thisIndex,task2_praac_trials.ran,alt,task,condition,target_resp.keys,target_resp.rt,rewCond,vts_practice_trials.thisRepN,vts_practice_trials.thisTrialN,vts_practice_trials.thisN,vts_practice_trials.thisIndex,vts_practice_trials.ran,blockNum,trials_norew.thisRepN,trials_norew.thisTrialN,trials_norew.thisN,trials_norew.thisIndex,trials_norew.ran,key_resp_2.keys,key_resp_2.rt,rewExpect,trials_rew.thisRepN,trials_rew.thisTrialN,trials_rew.thisN,trials_rew.thisIndex,trials_rew.ran,Q1,Q2,Q2_text,Q3,Q4,Q5,Q5_text,xRes,yRes
297133,2022-10-04_19h25.01.210,vts_reward_expectancy,2022.2.4,MacIntel,60.0024001,Chrome,1440,900,,,,,,,,,,,,,,,,,,,,,,,,,,,,,,,,,,,,,,,,,,,,,,,,,,,,,,,,,,,,,,,,,,,,,,,,,,,,
297133,2022-10-04_19h25.01.210,vts_reward_expectancy,2022.2.4,MacIntel,60.0024001,Chrome,1440,900,space,24.1667,,,,,,,,,,,,,,,,,,,,,,,,,,,,,,,,,,,,,,,,,,,,,,,,,,,,,,,,,,,,,,,,,,,,,,,,,,
297133,2022-10-04_19h25.01.210,vts_reward_expectancy,2022.2.4,MacIntel,60.0024001,Chrome,1440,900,,,,,,,,,,,,,,,,,,,,,,,,,,,,,,,,,,,,,,,,,,,,,,,,,,,,,,,,,,,,,,,,,,,,,,,,,,,,
297133,2022-10-04_19h25.01.210,vts_reward_expectancy,2022.2.4,MacIntel,60.0024001,Chrome,1440,900,,,a,1.1594,1,1,0,0,0,0,4,1,0,1,0,0,0,0,1,0,circle,hexagon,,,,,,,,,,,,,,,,,,,,,,,,,,,,,,,,,,,,,,,,,,,,,,,,,,,,,,
297133,2022-10-04_19h25.01.210,vts_reward_expectancy,2022.2.4,MacIntel,60.0024001,Chrome,1440,900,,,l,0.7912,10,11,0,0,1,1,1,1,1,0,0,0,0,0,1,0,triangle,hexagon,,,,,,,,,,,,,,,,,,,,,,,,,,,,,,,,,,,,,,,,,,,,,,,,,,,,,,
297133,2022-10-04_19h25.01.210,vts_reward_expectancy,2022.2.4,MacIntel,60.0024001,Chrome,1440,900,,,a,1.1514,10,21,0,0,2,2,10,1,0,0,0,1,0,1,0,0,star ,circle,,,,,,,,,,,,,,,,,,,,,,,,,,,,,,,,,,,,,,,,,,,,,,,,,,,,,,
297133,2022-10-04_19h25.01.210,vts_reward_expectancy,2022.2.4,MacIntel,60.0024001,Chrome,1440,900,,,a,0.5653,10,31,0,0,3,3,7,1,0,0,1,0,0,1,0,0,hexagon,circle,,,,,,,,,,,,,,,,,,,,,,,,,,,,,,,,,,,,,,,,,,,,,,,,,,,,,,
297133,2022-10-04_19h25.01.210,vts_reward_expectancy,2022.2.4,MacIntel,60.0024001,Chrome,1440,900,,,a,0.524,10,41,0,0,4,4,9,1,0,0,0,1,1,0,0,0,star,triangle,,,,,,,,,,,,,,,,,,,,,,,,,,,,,,,,,,,,,,,,,,,,,,,,,,,,,,
297133,2022-10-04_19h25.01.210,vts_reward_expectancy,2022.2.4,MacIntel,60.0024001,Chrome,1440,900,,,l,0.4757,1,42,0,0,5,5,2,1,1,0,0,0,0,0,0,1,triangle,star,,,,,,,,,,,,,,,,,,,,,,,,,,,,,,,,,,,,,,,,,,,,,,,,,,,,,,
297133,2022-10-04_19h25.01.210,vts_reward_expectancy,2022.2.4,MacIntel,60.0024001,Chrome,1440,900,,,a,3.1677,10,52,0,0,6,6,5,1,0,1,0,0,0,0,0,1,circle,star,,,,,,,,,,,,,,,,,,,,,,,,,,,,,,,,,,,,,,,,,,,,,,,,,,,,,,
297133,2022-10-04_19h25.01.210,vts_reward_expectancy,2022.2.4,MacIntel,60.0024001,Chrome,1440,900,,,a,3.7208,1,53,0,0,7,7,3,1,0,1,0,0,1,0,0,0,circle,triangle,,,,,,,,,,,,,,,,,,,,,,,,,,,,,,,,,,,,,,,,,,,,,,,,,,,,,,
297133,2022-10-04_19h25.01.210,vts_reward_expectancy,2022.2.4,MacIntel,60.0024001,Chrome,1440,900,,,l,1.9641,10,63,0,0,8,8,11,1,0,0,0,1,0,0,1,0,star,hexagon,,,,,,,,,,,,,,,,,,,,,,,,,,,,,,,,,,,,,,,,,,,,,,,,,,,,,,
297133,2022-10-04_19h25.01.210,vts_reward_expectancy,2022.2.4,MacIntel,60.0024001,Chrome,1440,900,,,a,1.2389,1,64,0,0,9,9,8,1,0,0,1,0,0,0,0,1,hexagon,star,,,,,,,,,,,,,,,,,,,,,,,,,,,,,,,,,,,,,,,,,,,,,,,,,,,,,,
297133,2022-10-04_19h25.01.210,vts_reward_expectancy,2022.2.4,MacIntel,60.0024001,Chrome,1440,900,,,l,1.7444,1,65,0,0,10,10,6,1,0,0,1,0,1,0,0,0,hexagon,triangle,,,,,,,,,,,,,,,,,,,,,,,,,,,,,,,,,,,,,,,,,,,,,,,,,,,,,,
297133,2022-10-04_19h25.01.210,vts_reward_expectancy,2022.2.4,MacIntel,60.0024001,Chrome,1440,900,,,l,1.1991,10,75,0,0,11,11,0,1,1,0,0,0,0,1,0,0,triangle,circle,,,,,,,,,,,,,,,,,,,,,,,,,,,,,,,,,,,,,,,,,,,,,,,,,,,,,,
297133,2022-10-04_19h25.01.210,vts_reward_expectancy,2022.2.4,MacIntel,60.0024001,Chrome,1440,900,,,a,1.9346,10,85,0,1,0,12,7,1,0,0,1,0,0,1,0,0,hexagon,circle,,,,,,,,,,,,,,,,,,,,,,,,,,,,,,,,,,,,,,,,,,,,,,,,,,,,,,
297133,2022-10-04_19h25.01.210,vts_reward_expectancy,2022.2.4,MacIntel,60.0024001,Chrome,1440,900,,,l,1.5198,10,95,0,1,1,13,11,1,0,0,0,1,0,0,1,0,star,hexagon,,,,,,,,,,,,,,,,,,,,,,,,,,,,,,,,,,,,,,,,,,,,,,,,,,,,,,
297133,2022-10-04_19h25.01.210,vts_reward_expectancy,2022.2.4,MacIntel,60.0024001,Chrome,1440,900,,,l,4.0596,10,105,0,1,2,14,8,1,0,0,1,0,0,0,0,1,hexagon,star,,,,,,,,,,,,,,,,,,,,,,,,,,,,,,,,,,,,,,,,,,,,,,,,,,,,,,
297133,2022-10-04_19h25.01.210,vts_reward_expectancy,2022.2.4,MacIntel,60.0024001,Chrome,1440,900,,,a,1.3151,10,115,0,1,3,15,5,1,0,1,0,0,0,0,0,1,circle,star,,,,,,,,,,,,,,,,,,,,,,,,,,,,,,,,,,,,,,,,,,,,,,,,,,,,,,
297133,2022-10-04_19h25.01.210,vts_reward_expectancy,2022.2.4,MacIntel,60.0024001,Chrome,1440,900,,,l,2.987,10,125,0,1,4,16,4,1,0,1,0,0,0,0,1,0,circle,hexagon,,,,,,,,,,,,,,,,,,,,,,,,,,,,,,,,,,,,,,,,,,,,,,,,,,,,,,
297133,2022-10-04_19h25.01.210,vts_reward_expectancy,2022.2.4,MacIntel,60.0024001,Chrome,1440,900,,,a,1.2517,1,126,0,1,5,17,3,1,0,1,0,0,1,0,0,0,circle,triangle,,,,,,,,,,,,,,,,,,,,,,,,,,,,,,,,,,,,,,,,,,,,,,,,,,,,,,
297133,2022-10-04_19h25.01.210,vts_reward_expectancy,2022.2.4,MacIntel,60.0024001,Chrome,1440,900,,,l,1.8175,1,127,0,1,6,18,2,1,1,0,0,0,0,0,0,1,triangle,star,,,,,,,,,,,,,,,,,,,,,,,,,,,,,,,,,,,,,,,,,,,,,,,,,,,,,,
297133,2022-10-04_19h25.01.210,vts_reward_expectancy,2022.2.4,MacIntel,60.0024001,Chrome,1440,900,,,l,1.355,1,128,0,1,7,19,9,1,0,0,0,1,1,0,0,0,star,triangle,,,,,,,,,,,,,,,,,,,,,,,,,,,,,,,,,,,,,,,,,,,,,,,,,,,,,,
297133,2022-10-04_19h25.01.210,vts_reward_expectancy,2022.2.4,MacIntel,60.0024001,Chrome,1440,900,,,l,5.5593,1,129,0,1,8,20,0,1,1,0,0,0,0,1,0,0,triangle,circle,,,,,,,,,,,,,,,,,,,,,,,,,,,,,,,,,,,,,,,,,,,,,,,,,,,,,,
297133,2022-10-04_19h25.01.210,vts_reward_expectancy,2022.2.4,MacIntel,60.0024001,Chrome,1440,900,,,l,1.7864,10,139,0,1,9,21,1,1,1,0,0,0,0,0,1,0,triangle,hexagon,,,,,,,,,,,,,,,,,,,,,,,,,,,,,,,,,,,,,,,,,,,,,,,,,,,,,,
297133,2022-10-04_19h25.01.210,vts_reward_expectancy,2022.2.4,MacIntel,60.0024001,Chrome,1440,900,,,l,2.0494,1,140,0,1,10,22,10,1,0,0,0,1,0,1,0,0,star ,circle,,,,,,,,,,,,,,,,,,,,,,,,,,,,,,,,,,,,,,,,,,,,,,,,,,,,,,
297133,2022-10-04_19h25.01.210,vts_reward_expectancy,2022.2.4,MacIntel,60.0024001,Chrome,1440,900,,,a,1.7915,10,150,0,1,11,23,6,1,0,0,1,0,1,0,0,0,hexagon,triangle,,,,,,,,,,,,,,,,,,,,,,,,,,,,,,,,,,,,,,,,,,,,,,,,,,,,,,
297133,2022-10-04_19h25.01.210,vts_reward_expectancy,2022.2.4,MacIntel,60.0024001,Chrome,1440,900,,,a,6.0325,10,160,0,2,0,24,4,1,0,1,0,0,0,0,1,0,circle,hexagon,,,,,,,,,,,,,,,,,,,,,,,,,,,,,,,,,,,,,,,,,,,,,,,,,,,,,,
297133,2022-10-04_19h25.01.210,vts_reward_expectancy,2022.2.4,MacIntel,60.0024001,Chrome,1440,900,,,a,10.4159,1,161,0,2,1,25,11,1,0,0,0,1,0,0,1,0,star,hexagon,,,,,,,,,,,,,,,,,,,,,,,,,,,,,,,,,,,,,,,,,,,,,,,,,,,,,,
297133,2022-10-04_19h25.01.210,vts_reward_expectancy,2022.2.4,MacIntel,60.0024001,Chrome,1440,900,,,l,1.3315,1,162,0,2,2,26,7,1,0,0,1,0,0,1,0,0,hexagon,circle,,,,,,,,,,,,,,,,,,,,,,,,,,,,,,,,,,,,,,,,,,,,,,,,,,,,,,
297133,2022-10-04_19h25.01.210,vts_reward_expectancy,2022.2.4,MacIntel,60.0024001,Chrome,1440,900,,,a,1.4763,1,163,0,2,3,27,2,1,1,0,0,0,0,0,0,1,triangle,star,,,,,,,,,,,,,,,,,,,,,,,,,,,,,,,,,,,,,,,,,,,,,,,,,,,,,,
297133,2022-10-04_19h25.01.210,vts_reward_expectancy,2022.2.4,MacIntel,60.0024001,Chrome,1440,900,,,a,0.9995,10,173,0,2,4,28,8,1,0,0,1,0,0,0,0,1,hexagon,star,,,,,,,,,,,,,,,,,,,,,,,,,,,,,,,,,,,,,,,,,,,,,,,,,,,,,,
297133,2022-10-04_19h25.01.210,vts_reward_expectancy,2022.2.4,MacIntel,60.0024001,Chrome,1440,900,,,l,0.9703,1,174,0,2,5,29,1,1,1,0,0,0,0,0,1,0,triangle,hexagon,,,,,,,,,,,,,,,,,,,,,,,,,,,,,,,,,,,,,,,,,,,,,,,,,,,,,,
297133,2022-10-04_19h25.01.210,vts_reward_expectancy,2022.2.4,MacIntel,60.0024001,Chrome,1440,900,,,a,20.9757,1,175,0,2,6,30,5,1,0,1,0,0,0,0,0,1,circle,star,,,,,,,,,,,,,,,,,,,,,,,,,,,,,,,,,,,,,,,,,,,,,,,,,,,,,,
297133,2022-10-04_19h25.01.210,vts_reward_expectancy,2022.2.4,MacIntel,60.0024001,Chrome,1440,900,,,a,1.1853,1,176,0,2,7,31,3,1,0,1,0,0,1,0,0,0,circle,triangle,,,,,,,,,,,,,,,,,,,,,,,,,,,,,,,,,,,,,,,,,,,,,,,,,,,,,,
297133,2022-10-04_19h25.01.210,vts_reward_expectancy,2022.2.4,MacIntel,60.0024001,Chrome,1440,900,,,l,1.8448,10,186,0,2,8,32,10,1,0,0,0,1,0,1,0,0,star ,circle,,,,,,,,,,,,,,,,,,,,,,,,,,,,,,,,,,,,,,,,,,,,,,,,,,,,,,
297133,2022-10-04_19h25.01.210,vts_reward_expectancy,2022.2.4,MacIntel,60.0024001,Chrome,1440,900,,,a,1.4028,1,187,0,2,9,33,0,1,1,0,0,0,0,1,0,0,triangle,circle,,,,,,,,,,,,,,,,,,,,,,,,,,,,,,,,,,,,,,,,,,,,,,,,,,,,,,
297133,2022-10-04_19h25.01.210,vts_reward_expectancy,2022.2.4,MacIntel,60.0024001,Chrome,1440,900,,,l,1.9004,1,188,0,2,10,34,9,1,0,0,0,1,1,0,0,0,star,triangle,,,,,,,,,,,,,,,,,,,,,,,,,,,,,,,,,,,,,,,,,,,,,,,,,,,,,,
297133,2022-10-04_19h25.01.210,vts_reward_expectancy,2022.2.4,MacIntel,60.0024001,Chrome,1440,900,,,a,1.6001,10,198,0,2,11,35,6,1,0,0,1,0,1,0,0,0,hexagon,triangle,,,,,,,,,,,,,,,,,,,,,,,,,,,,,,,,,,,,,,,,,,,,,,,,,,,,,,
297133,2022-10-04_19h25.01.210,vts_reward_expectancy,2022.2.4,MacIntel,60.0024001,Chrome,1440,900,,,a,1.4164,1,199,1,0,0,0,3,1,0,1,0,0,1,0,0,0,circle,triangle,,,,,,,,,,,,,,,,,,,,,,,,,,,,,,,,,,,,,,,,,,,,,,,,,,,,,,
297133,2022-10-04_19h25.01.210,vts_reward_expectancy,2022.2.4,MacIntel,60.0024001,Chrome,1440,900,,,l,0.7698,10,209,1,0,1,1,2,1,1,0,0,0,0,0,0,1,triangle,star,,,,,,,,,,,,,,,,,,,,,,,,,,,,,,,,,,,,,,,,,,,,,,,,,,,,,,
297133,2022-10-04_19h25.01.210,vts_reward_expectancy,2022.2.4,MacIntel,60.0024001,Chrome,1440,900,,,a,0.8142,10,219,1,0,2,2,9,1,0,0,0,1,1,0,0,0,star,triangle,,,,,,,,,,,,,,,,,,,,,,,,,,,,,,,,,,,,,,,,,,,,,,,,,,,,,,
297133,2022-10-04_19h25.01.210,vts_reward_expectancy,2022.2.4,MacIntel,60.0024001,Chrome,1440,900,,,l,1.179,10,229,1,0,3,3,4,1,0,1,0,0,0,0,1,0,circle,hexagon,,,,,,,,,,,,,,,,,,,,,,,,,,,,,,,,,,,,,,,,,,,,,,,,,,,,,,
297133,2022-10-04_19h25.01.210,vts_reward_expectancy,2022.2.4,MacIntel,60.0024001,Chrome,1440,900,,,a,1.0423,10,239,1,0,4,4,6,1,0,0,1,0,1,0,0,0,hexagon,triangle,,,,,,,,,,,,,,,,,,,,,,,,,,,,,,,,,,,,,,,,,,,,,,,,,,,,,,
297133,2022-10-04_19h25.01.210,vts_reward_expectancy,2022.2.4,MacIntel,60.0024001,Chrome,1440,900,,,l,0.7836,10,249,1,0,5,5,1,1,1,0,0,0,0,0,1,0,triangle,hexagon,,,,,,,,,,,,,,,,,,,,,,,,,,,,,,,,,,,,,,,,,,,,,,,,,,,,,,
297133,2022-10-04_19h25.01.210,vts_reward_expectancy,2022.2.4,MacIntel,60.0024001,Chrome,1440,900,,,l,1.8428,10,259,1,0,6,6,11,1,0,0,0,1,0,0,1,0,star,hexagon,,,,,,,,,,,,,,,,,,,,,,,,,,,,,,,,,,,,,,,,,,,,,,,,,,,,,,
297133,2022-10-04_19h25.01.210,vts_reward_expectancy,2022.2.4,MacIntel,60.0024001,Chrome,1440,900,,,l,0.8194,1,260,1,0,7,7,5,1,0,1,0,0,0,0,0,1,circle,star,,,,,,,,,,,,,,,,,,,,,,,,,,,,,,,,,,,,,,,,,,,,,,,,,,,,,,
297133,2022-10-04_19h25.01.210,vts_reward_expectancy,2022.2.4,MacIntel,60.0024001,Chrome,1440,900,,,a,0.7228,10,270,1,0,8,8,7,1,0,0,1,0,0,1,0,0,hexagon,circle,,,,,,,,,,,,,,,,,,,,,,,,,,,,,,,,,,,,,,,,,,,,,,,,,,,,,,
297133,2022-10-04_19h25.01.210,vts_reward_expectancy,2022.2.4,MacIntel,60.0024001,Chrome,1440,900,,,a,1.215,10,280,1,0,9,9,8,1,0,0,1,0,0,0,0,1,hexagon,star,,,,,,,,,,,,,,,,,,,,,,,,,,,,,,,,,,,,,,,,,,,,,,,,,,,,,,
297133,2022-10-04_19h25.01.210,vts_reward_expectancy,2022.2.4,MacIntel,60.0024001,Chrome,1440,900,,,l,1.18,10,290,1,0,10,10,0,1,1,0,0,0,0,1,0,0,triangle,circle,,,,,,,,,,,,,,,,,,,,,,,,,,,,,,,,,,,,,,,,,,,,,,,,,,,,,,
297133,2022-10-04_19h25.01.210,vts_reward_expectancy,2022.2.4,MacIntel,60.0024001,Chrome,1440,900,,,a,1.1029,10,300,1,0,11,11,10,1,0,0,0,1,0,1,0,0,star ,circle,,,,,,,,,,,,,,,,,,,,,,,,,,,,,,,,,,,,,,,,,,,,,,,,,,,,,,
297133,2022-10-04_19h25.01.210,vts_reward_expectancy,2022.2.4,MacIntel,60.0024001,Chrome,1440,900,,,l,1.5698,1,301,1,1,0,12,5,1,0,1,0,0,0,0,0,1,circle,star,,,,,,,,,,,,,,,,,,,,,,,,,,,,,,,,,,,,,,,,,,,,,,,,,,,,,,
297133,2022-10-04_19h25.01.210,vts_reward_expectancy,2022.2.4,MacIntel,60.0024001,Chrome,1440,900,,,a,0.9797,10,311,1,1,1,13,7,1,0,0,1,0,0,1,0,0,hexagon,circle,,,,,,,,,,,,,,,,,,,,,,,,,,,,,,,,,,,,,,,,,,,,,,,,,,,,,,
297133,2022-10-04_19h25.01.210,vts_reward_expectancy,2022.2.4,MacIntel,60.0024001,Chrome,1440,900,,,a,2.2022,10,321,1,1,2,14,9,1,0,0,0,1,1,0,0,0,star,triangle,,,,,,,,,,,,,,,,,,,,,,,,,,,,,,,,,,,,,,,,,,,,,,,,,,,,,,
297133,2022-10-04_19h25.01.210,vts_reward_expectancy,2022.2.4,MacIntel,60.0024001,Chrome,1440,900,,,a,3.3067,1,322,1,1,3,15,6,1,0,0,1,0,1,0,0,0,hexagon,triangle,,,,,,,,,,,,,,,,,,,,,,,,,,,,,,,,,,,,,,,,,,,,,,,,,,,,,,
297133,2022-10-04_19h25.01.210,vts_reward_expectancy,2022.2.4,MacIntel,60.0024001,Chrome,1440,900,,,l,2.8849,10,332,1,1,4,16,0,1,1,0,0,0,0,1,0,0,triangle,circle,,,,,,,,,,,,,,,,,,,,,,,,,,,,,,,,,,,,,,,,,,,,,,,,,,,,,,
297133,2022-10-04_19h25.01.210,vts_reward_expectancy,2022.2.4,MacIntel,60.0024001,Chrome,1440,900,,,a,1.083,10,342,1,1,5,17,10,1,0,0,0,1,0,1,0,0,star ,circle,,,,,,,,,,,,,,,,,,,,,,,,,,,,,,,,,,,,,,,,,,,,,,,,,,,,,,
297133,2022-10-04_19h25.01.210,vts_reward_expectancy,2022.2.4,MacIntel,60.0024001,Chrome,1440,900,,,l,2.6287,10,352,1,1,6,18,2,1,1,0,0,0,0,0,0,1,triangle,star,,,,,,,,,,,,,,,,,,,,,,,,,,,,,,,,,,,,,,,,,,,,,,,,,,,,,,
297133,2022-10-04_19h25.01.210,vts_reward_expectancy,2022.2.4,MacIntel,60.0024001,Chrome,1440,900,,,a,1.6224,1,353,1,1,7,19,3,1,0,1,0,0,1,0,0,0,circle,triangle,,,,,,,,,,,,,,,,,,,,,,,,,,,,,,,,,,,,,,,,,,,,,,,,,,,,,,
297133,2022-10-04_19h25.01.210,vts_reward_expectancy,2022.2.4,MacIntel,60.0024001,Chrome,1440,900,,,l,0.9539,10,363,1,1,8,20,1,1,1,0,0,0,0,0,1,0,triangle,hexagon,,,,,,,,,,,,,,,,,,,,,,,,,,,,,,,,,,,,,,,,,,,,,,,,,,,,,,
297133,2022-10-04_19h25.01.210,vts_reward_expectancy,2022.2.4,MacIntel,60.0024001,Chrome,1440,900,,,a,1.121,10,373,1,1,9,21,8,1,0,0,1,0,0,0,0,1,hexagon,star,,,,,,,,,,,,,,,,,,,,,,,,,,,,,,,,,,,,,,,,,,,,,,,,,,,,,,
297133,2022-10-04_19h25.01.210,vts_reward_expectancy,2022.2.4,MacIntel,60.0024001,Chrome,1440,900,,,l,1.065,10,383,1,1,10,22,4,1,0,1,0,0,0,0,1,0,circle,hexagon,,,,,,,,,,,,,,,,,,,,,,,,,,,,,,,,,,,,,,,,,,,,,,,,,,,,,,
297133,2022-10-04_19h25.01.210,vts_reward_expectancy,2022.2.4,MacIntel,60.0024001,Chrome,1440,900,,,l,1.0401,10,393,1,1,11,23,11,1,0,0,0,1,0,0,1,0,star,hexagon,,,,,,,,,,,,,,,,,,,,,,,,,,,,,,,,,,,,,,,,,,,,,,,,,,,,,,
297133,2022-10-04_19h25.01.210,vts_reward_expectancy,2022.2.4,MacIntel,60.0024001,Chrome,1440,900,,,a,2.1014,1,394,1,2,0,24,8,1,0,0,1,0,0,0,0,1,hexagon,star,,,,,,,,,,,,,,,,,,,,,,,,,,,,,,,,,,,,,,,,,,,,,,,,,,,,,,
297133,2022-10-04_19h25.01.210,vts_reward_expectancy,2022.2.4,MacIntel,60.0024001,Chrome,1440,900,,,a,0.6402,1,395,1,2,1,25,6,1,0,0,1,0,1,0,0,0,hexagon,triangle,,,,,,,,,,,,,,,,,,,,,,,,,,,,,,,,,,,,,,,,,,,,,,,,,,,,,,
297133,2022-10-04_19h25.01.210,vts_reward_expectancy,2022.2.4,MacIntel,60.0024001,Chrome,1440,900,,,l,0.5678,10,405,1,2,2,26,4,1,0,1,0,0,0,0,1,0,circle,hexagon,,,,,,,,,,,,,,,,,,,,,,,,,,,,,,,,,,,,,,,,,,,,,,,,,,,,,,
297133,2022-10-04_19h25.01.210,vts_reward_expectancy,2022.2.4,MacIntel,60.0024001,Chrome,1440,900,,,a,1.4171,10,415,1,2,3,27,11,1,0,0,0,1,0,0,1,0,star,hexagon,,,,,,,,,,,,,,,,,,,,,,,,,,,,,,,,,,,,,,,,,,,,,,,,,,,,,,
297133,2022-10-04_19h25.01.210,vts_reward_expectancy,2022.2.4,MacIntel,60.0024001,Chrome,1440,900,,,l,0.652,1,416,1,2,4,28,2,1,1,0,0,0,0,0,0,1,triangle,star,,,,,,,,,,,,,,,,,,,,,,,,,,,,,,,,,,,,,,,,,,,,,,,,,,,,,,
297133,2022-10-04_19h25.01.210,vts_reward_expectancy,2022.2.4,MacIntel,60.0024001,Chrome,1440,900,,,l,0.7911,1,417,1,2,5,29,5,1,0,1,0,0,0,0,0,1,circle,star,,,,,,,,,,,,,,,,,,,,,,,,,,,,,,,,,,,,,,,,,,,,,,,,,,,,,,
297133,2022-10-04_19h25.01.210,vts_reward_expectancy,2022.2.4,MacIntel,60.0024001,Chrome,1440,900,,,a,0.7581,1,418,1,2,6,30,10,1,0,0,0,1,0,1,0,0,star ,circle,,,,,,,,,,,,,,,,,,,,,,,,,,,,,,,,,,,,,,,,,,,,,,,,,,,,,,
297133,2022-10-04_19h25.01.210,vts_reward_expectancy,2022.2.4,MacIntel,60.0024001,Chrome,1440,900,,,a,1.1282,1,419,1,2,7,31,3,1,0,1,0,0,1,0,0,0,circle,triangle,,,,,,,,,,,,,,,,,,,,,,,,,,,,,,,,,,,,,,,,,,,,,,,,,,,,,,
297133,2022-10-04_19h25.01.210,vts_reward_expectancy,2022.2.4,MacIntel,60.0024001,Chrome,1440,900,,,l,0.7998,1,420,1,2,8,32,7,1,0,0,1,0,0,1,0,0,hexagon,circle,,,,,,,,,,,,,,,,,,,,,,,,,,,,,,,,,,,,,,,,,,,,,,,,,,,,,,
297133,2022-10-04_19h25.01.210,vts_reward_expectancy,2022.2.4,MacIntel,60.0024001,Chrome,1440,900,,,l,0.7363,10,430,1,2,9,33,0,1,1,0,0,0,0,1,0,0,triangle,circle,,,,,,,,,,,,,,,,,,,,,,,,,,,,,,,,,,,,,,,,,,,,,,,,,,,,,,
297133,2022-10-04_19h25.01.210,vts_reward_expectancy,2022.2.4,MacIntel,60.0024001,Chrome,1440,900,,,l,0.8982,1,431,1,2,10,34,1,1,1,0,0,0,0,0,1,0,triangle,hexagon,,,,,,,,,,,,,,,,,,,,,,,,,,,,,,,,,,,,,,,,,,,,,,,,,,,,,,
297133,2022-10-04_19h25.01.210,vts_reward_expectancy,2022.2.4,MacIntel,60.0024001,Chrome,1440,900,,,l,0.9148,1,432,1,2,11,35,9,1,0,0,0,1,1,0,0,0,star,triangle,,,,,,,,,,,,,,,,,,,,,,,,,,,,,,,,,,,,,,,,,,,,,,,,,,,,,,
297133,2022-10-04_19h25.01.210,vts_reward_expectancy,2022.2.4,MacIntel,60.0024001,Chrome,1440,900,,,l,1.574,10,442,2,0,0,0,5,1,0,1,0,0,0,0,0,1,circle,star,,,,,,,,,,,,,,,,,,,,,,,,,,,,,,,,,,,,,,,,,,,,,,,,,,,,,,
297133,2022-10-04_19h25.01.210,vts_reward_expectancy,2022.2.4,MacIntel,60.0024001,Chrome,1440,900,,,a,1.3443,1,443,2,0,1,1,2,1,1,0,0,0,0,0,0,1,triangle,star,,,,,,,,,,,,,,,,,,,,,,,,,,,,,,,,,,,,,,,,,,,,,,,,,,,,,,
297133,2022-10-04_19h25.01.210,vts_reward_expectancy,2022.2.4,MacIntel,60.0024001,Chrome,1440,900,,,a,1.1688,10,453,2,0,2,2,11,1,0,0,0,1,0,0,1,0,star,hexagon,,,,,,,,,,,,,,,,,,,,,,,,,,,,,,,,,,,,,,,,,,,,,,,,,,,,,,
297133,2022-10-04_19h25.01.210,vts_reward_expectancy,2022.2.4,MacIntel,60.0024001,Chrome,1440,900,,,a,1.5308,10,463,2,0,3,3,6,1,0,0,1,0,1,0,0,0,hexagon,triangle,,,,,,,,,,,,,,,,,,,,,,,,,,,,,,,,,,,,,,,,,,,,,,,,,,,,,,
297133,2022-10-04_19h25.01.210,vts_reward_expectancy,2022.2.4,MacIntel,60.0024001,Chrome,1440,900,,,l,1.3414,10,473,2,0,4,4,0,1,1,0,0,0,0,1,0,0,triangle,circle,,,,,,,,,,,,,,,,,,,,,,,,,,,,,,,,,,,,,,,,,,,,,,,,,,,,,,
297133,2022-10-04_19h25.01.210,vts_reward_expectancy,2022.2.4,MacIntel,60.0024001,Chrome,1440,900,,,l,1.7043,10,483,2,0,5,5,1,1,1,0,0,0,0,0,1,0,triangle,hexagon,,,,,,,,,,,,,,,,,,,,,,,,,,,,,,,,,,,,,,,,,,,,,,,,,,,,,,
297133,2022-10-04_19h25.01.210,vts_reward_expectancy,2022.2.4,MacIntel,60.0024001,Chrome,1440,900,,,a,0.922,10,493,2,0,6,6,10,1,0,0,0,1,0,1,0,0,star ,circle,,,,,,,,,,,,,,,,,,,,,,,,,,,,,,,,,,,,,,,,,,,,,,,,,,,,,,
297133,2022-10-04_19h25.01.210,vts_reward_expectancy,2022.2.4,MacIntel,60.0024001,Chrome,1440,900,,,a,1.0012,10,503,2,0,7,7,9,1,0,0,0,1,1,0,0,0,star,triangle,,,,,,,,,,,,,,,,,,,,,,,,,,,,,,,,,,,,,,,,,,,,,,,,,,,,,,
297133,2022-10-04_19h25.01.210,vts_reward_expectancy,2022.2.4,MacIntel,60.0024001,Chrome,1440,900,,,a,1.2213,1,504,2,0,8,8,3,1,0,1,0,0,1,0,0,0,circle,triangle,,,,,,,,,,,,,,,,,,,,,,,,,,,,,,,,,,,,,,,,,,,,,,,,,,,,,,
297133,2022-10-04_19h25.01.210,vts_reward_expectancy,2022.2.4,MacIntel,60.0024001,Chrome,1440,900,,,l,1.6573,10,514,2,0,9,9,4,1,0,1,0,0,0,0,1,0,circle,hexagon,,,,,,,,,,,,,,,,,,,,,,,,,,,,,,,,,,,,,,,,,,,,,,,,,,,,,,
297133,2022-10-04_19h25.01.210,vts_reward_expectancy,2022.2.4,MacIntel,60.0024001,Chrome,1440,900,,,a,2.1681,10,524,2,0,10,10,7,1,0,0,1,0,0,1,0,0,hexagon,circle,,,,,,,,,,,,,,,,,,,,,,,,,,,,,,,,,,,,,,,,,,,,,,,,,,,,,,
297133,2022-10-04_19h25.01.210,vts_reward_expectancy,2022.2.4,MacIntel,60.0024001,Chrome,1440,900,,,l,0.9693,10,534,2,0,11,11,8,1,0,0,1,0,0,0,0,1,hexagon,star,,,,,,,,,,,,,,,,,,,,,,,,,,,,,,,,,,,,,,,,,,,,,,,,,,,,,,
297133,2022-10-04_19h25.01.210,vts_reward_expectancy,2022.2.4,MacIntel,60.0024001,Chrome,1440,900,,,a,1.0054,1,535,2,1,0,12,9,1,0,0,0,1,1,0,0,0,star,triangle,,,,,,,,,,,,,,,,,,,,,,,,,,,,,,,,,,,,,,,,,,,,,,,,,,,,,,
297133,2022-10-04_19h25.01.210,vts_reward_expectancy,2022.2.4,MacIntel,60.0024001,Chrome,1440,900,,,l,0.584,10,545,2,1,1,13,8,1,0,0,1,0,0,0,0,1,hexagon,star,,,,,,,,,,,,,,,,,,,,,,,,,,,,,,,,,,,,,,,,,,,,,,,,,,,,,,
297133,2022-10-04_19h25.01.210,vts_reward_expectancy,2022.2.4,MacIntel,60.0024001,Chrome,1440,900,,,a,0.8914,10,555,2,1,2,14,7,1,0,0,1,0,0,1,0,0,hexagon,circle,,,,,,,,,,,,,,,,,,,,,,,,,,,,,,,,,,,,,,,,,,,,,,,,,,,,,,
297133,2022-10-04_19h25.01.210,vts_reward_expectancy,2022.2.4,MacIntel,60.0024001,Chrome,1440,900,,,l,0.5674,10,565,2,1,3,15,2,1,1,0,0,0,0,0,0,1,triangle,star,,,,,,,,,,,,,,,,,,,,,,,,,,,,,,,,,,,,,,,,,,,,,,,,,,,,,,
297133,2022-10-04_19h25.01.210,vts_reward_expectancy,2022.2.4,MacIntel,60.0024001,Chrome,1440,900,,,a,0.7497,10,575,2,1,4,16,6,1,0,0,1,0,1,0,0,0,hexagon,triangle,,,,,,,,,,,,,,,,,,,,,,,,,,,,,,,,,,,,,,,,,,,,,,,,,,,,,,
297133,2022-10-04_19h25.01.210,vts_reward_expectancy,2022.2.4,MacIntel,60.0024001,Chrome,1440,900,,,l,0.9909,10,585,2,1,5,17,4,1,0,1,0,0,0,0,1,0,circle,hexagon,,,,,,,,,,,,,,,,,,,,,,,,,,,,,,,,,,,,,,,,,,,,,,,,,,,,,,
297133,2022-10-04_19h25.01.210,vts_reward_expectancy,2022.2.4,MacIntel,60.0024001,Chrome,1440,900,,,a,0.4401,10,595,2,1,6,18,11,1,0,0,0,1,0,0,1,0,star,hexagon,,,,,,,,,,,,,,,,,,,,,,,,,,,,,,,,,,,,,,,,,,,,,,,,,,,,,,
297133,2022-10-04_19h25.01.210,vts_reward_expectancy,2022.2.4,MacIntel,60.0024001,Chrome,1440,900,,,a,1.0484,10,605,2,1,7,19,3,1,0,1,0,0,1,0,0,0,circle,triangle,,,,,,,,,,,,,,,,,,,,,,,,,,,,,,,,,,,,,,,,,,,,,,,,,,,,,,
297133,2022-10-04_19h25.01.210,vts_reward_expectancy,2022.2.4,MacIntel,60.0024001,Chrome,1440,900,,,l,1.1311,10,615,2,1,8,20,1,1,1,0,0,0,0,0,1,0,triangle,hexagon,,,,,,,,,,,,,,,,,,,,,,,,,,,,,,,,,,,,,,,,,,,,,,,,,,,,,,
297133,2022-10-04_19h25.01.210,vts_reward_expectancy,2022.2.4,MacIntel,60.0024001,Chrome,1440,900,,,l,0.8031,1,616,2,1,9,21,5,1,0,1,0,0,0,0,0,1,circle,star,,,,,,,,,,,,,,,,,,,,,,,,,,,,,,,,,,,,,,,,,,,,,,,,,,,,,,
297133,2022-10-04_19h25.01.210,vts_reward_expectancy,2022.2.4,MacIntel,60.0024001,Chrome,1440,900,,,a,0.6834,1,617,2,1,10,22,10,1,0,0,0,1,0,1,0,0,star ,circle,,,,,,,,,,,,,,,,,,,,,,,,,,,,,,,,,,,,,,,,,,,,,,,,,,,,,,
297133,2022-10-04_19h25.01.210,vts_reward_expectancy,2022.2.4,MacIntel,60.0024001,Chrome,1440,900,,,l,0.9137,10,627,2,1,11,23,0,1,1,0,0,0,0,1,0,0,triangle,circle,,,,,,,,,,,,,,,,,,,,,,,,,,,,,,,,,,,,,,,,,,,,,,,,,,,,,,
297133,2022-10-04_19h25.01.210,vts_reward_expectancy,2022.2.4,MacIntel,60.0024001,Chrome,1440,900,,,a,1.1151,10,637,2,2,0,24,7,1,0,0,1,0,0,1,0,0,hexagon,circle,,,,,,,,,,,,,,,,,,,,,,,,,,,,,,,,,,,,,,,,,,,,,,,,,,,,,,
297133,2022-10-04_19h25.01.210,vts_reward_expectancy,2022.2.4,MacIntel,60.0024001,Chrome,1440,900,,,a,2.4242,1,638,2,2,1,25,9,1,0,0,0,1,1,0,0,0,star,triangle,,,,,,,,,,,,,,,,,,,,,,,,,,,,,,,,,,,,,,,,,,,,,,,,,,,,,,
297133,2022-10-04_19h25.01.210,vts_reward_expectancy,2022.2.4,MacIntel,60.0024001,Chrome,1440,900,,,l,0.7474,10,648,2,2,2,26,1,1,1,0,0,0,0,0,1,0,triangle,hexagon,,,,,,,,,,,,,,,,,,,,,,,,,,,,,,,,,,,,,,,,,,,,,,,,,,,,,,
297133,2022-10-04_19h25.01.210,vts_reward_expectancy,2022.2.4,MacIntel,60.0024001,Chrome,1440,900,,,a,0.7831,10,658,2,2,3,27,3,1,0,1,0,0,1,0,0,0,circle,triangle,,,,,,,,,,,,,,,,,,,,,,,,,,,,,,,,,,,,,,,,,,,,,,,,,,,,,,
297133,2022-10-04_19h25.01.210,vts_reward_expectancy,2022.2.4,MacIntel,60.0024001,Chrome,1440,900,,,l,0.6188,10,668,2,2,4,28,5,1,0,1,0,0,0,0,0,1,circle,star,,,,,,,,,,,,,,,,,,,,,,,,,,,,,,,,,,,,,,,,,,,,,,,,,,,,,,
297133,2022-10-04_19h25.01.210,vts_reward_expectancy,2022.2.4,MacIntel,60.0024001,Chrome,1440,900,,,l,0.6187,1,669,2,2,5,29,4,1,0,1,0,0,0,0,1,0,circle,hexagon,,,,,,,,,,,,,,,,,,,,,,,,,,,,,,,,,,,,,,,,,,,,,,,,,,,,,,
297133,2022-10-04_19h25.01.210,vts_reward_expectancy,2022.2.4,MacIntel,60.0024001,Chrome,1440,900,,,l,0.8877,1,670,2,2,6,30,8,1,0,0,1,0,0,0,0,1,hexagon,star,,,,,,,,,,,,,,,,,,,,,,,,,,,,,,,,,,,,,,,,,,,,,,,,,,,,,,
297133,2022-10-04_19h25.01.210,vts_reward_expectancy,2022.2.4,MacIntel,60.0024001,Chrome,1440,900,,,l,0.9795,10,680,2,2,7,31,10,1,0,0,0,1,0,1,0,0,star ,circle,,,,,,,,,,,,,,,,,,,,,,,,,,,,,,,,,,,,,,,,,,,,,,,,,,,,,,
297133,2022-10-04_19h25.01.210,vts_reward_expectancy,2022.2.4,MacIntel,60.0024001,Chrome,1440,900,,,a,1.0181,10,690,2,2,8,32,6,1,0,0,1,0,1,0,0,0,hexagon,triangle,,,,,,,,,,,,,,,,,,,,,,,,,,,,,,,,,,,,,,,,,,,,,,,,,,,,,,
297133,2022-10-04_19h25.01.210,vts_reward_expectancy,2022.2.4,MacIntel,60.0024001,Chrome,1440,900,,,l,0.848,10,700,2,2,9,33,2,1,1,0,0,0,0,0,0,1,triangle,star,,,,,,,,,,,,,,,,,,,,,,,,,,,,,,,,,,,,,,,,,,,,,,,,,,,,,,
297133,2022-10-04_19h25.01.210,vts_reward_expectancy,2022.2.4,MacIntel,60.0024001,Chrome,1440,900,,,l,0.9083,10,710,2,2,10,34,0,1,1,0,0,0,0,1,0,0,triangle,circle,,,,,,,,,,,,,,,,,,,,,,,,,,,,,,,,,,,,,,,,,,,,,,,,,,,,,,
297133,2022-10-04_19h25.01.210,vts_reward_expectancy,2022.2.4,MacIntel,60.0024001,Chrome,1440,900,,,a,1.2981,1,711,2,2,11,35,11,1,0,0,0,1,0,0,1,0,star,hexagon,,,,,,,,,,,,,,,,,,,,,,,,,,,,,,,,,,,,,,,,,,,,,,,,,,,,,,
297133,2022-10-04_19h25.01.210,vts_reward_expectancy,2022.2.4,MacIntel,60.0024001,Chrome,1440,900,,,,,,,,,,,,,,,,,,,,,,,W,146,star,1,0,f,1.4802,0,0,0,0,0,1,,,,,,,,,,,,,,,,,,,,,,,,,,,,,,,,,,,,,,,,,
297133,2022-10-04_19h25.01.210,vts_reward_expectancy,2022.2.4,MacIntel,60.0024001,Chrome,1440,900,,,,,,,,,,,,,,,,,,,,,,,B,181,triangle,1,0,d,0.6726,0,1,0,1,0,1,,,,,,,,,,,,,,,,,,,,,,,,,,,,,,,,,,,,,,,,,
297133,2022-10-04_19h25.01.210,vts_reward_expectancy,2022.2.4,MacIntel,60.0024001,Chrome,1440,900,,,,,,,,,,,,,,,,,,,,,,,F,174,circle,1,0,d,0.8303,0,2,0,2,0,1,,,,,,,,,,,,,,,,,,,,,,,,,,,,,,,,,,,,,,,,,
297133,2022-10-04_19h25.01.210,vts_reward_expectancy,2022.2.4,MacIntel,60.0024001,Chrome,1440,900,,,,,,,,,,,,,,,,,,,,,,,S,167,hexagon,1,0,f,1.0451,0,3,0,3,0,1,,,,,,,,,,,,,,,,,,,,,,,,,,,,,,,,,,,,,,,,,
297133,2022-10-04_19h25.01.210,vts_reward_expectancy,2022.2.4,MacIntel,60.0024001,Chrome,1440,900,,,,,,,,,,,,,,,,,,,,,,,D,139,star,1,0,d,0.763,0,4,0,4,0,1,,,,,,,,,,,,,,,,,,,,,,,,,,,,,,,,,,,,,,,,,
297133,2022-10-04_19h25.01.210,vts_reward_expectancy,2022.2.4,MacIntel,60.0024001,Chrome,1440,900,,,,,,,,,,,,,,,,,,,,,,,Y,125,triangle,1,0,f,0.6119,0,5,0,5,0,1,,,,,,,,,,,,,,,,,,,,,,,,,,,,,,,,,,,,,,,,,
297133,2022-10-04_19h25.01.210,vts_reward_expectancy,2022.2.4,MacIntel,60.0024001,Chrome,1440,900,,,,,,,,,,,,,,,,,,,,,,,U,132,circle,1,0,f,0.6669,0,6,0,6,0,1,,,,,,,,,,,,,,,,,,,,,,,,,,,,,,,,,,,,,,,,,
297133,2022-10-04_19h25.01.210,vts_reward_expectancy,2022.2.4,MacIntel,60.0024001,Chrome,1440,900,,,,,,,,,,,,,,,,,,,,,,,H,160,hexagon,1,0,d,0.8282,0,7,0,7,0,1,,,,,,,,,,,,,,,,,,,,,,,,,,,,,,,,,,,,,,,,,
297133,2022-10-04_19h25.01.210,vts_reward_expectancy,2022.2.4,MacIntel,60.0024001,Chrome,1440,900,,,,,,,,,,,,,,,,,,,,,,,W,146,hexagon,1,0,f,0.6292,0,8,0,8,0,1,,,,,,,,,,,,,,,,,,,,,,,,,,,,,,,,,,,,,,,,,
297133,2022-10-04_19h25.01.210,vts_reward_expectancy,2022.2.4,MacIntel,60.0024001,Chrome,1440,900,,,,,,,,,,,,,,,,,,,,,,,B,181,star,1,0,d,0.608,0,9,0,9,0,1,,,,,,,,,,,,,,,,,,,,,,,,,,,,,,,,,,,,,,,,,
297133,2022-10-04_19h25.01.210,vts_reward_expectancy,2022.2.4,MacIntel,60.0024001,Chrome,1440,900,,,,,,,,,,,,,,,,,,,,,,,D,174,star,1,0,,,1,,,,,,k,1.3628,0,0,0,0,1,,,,,,,,,,,,,,,,,,,,,,,,,,,,,,,,,,
297133,2022-10-04_19h25.01.210,vts_reward_expectancy,2022.2.4,MacIntel,60.0024001,Chrome,1440,900,,,,,,,,,,,,,,,,,,,,,,,S,139,triangle,1,0,,,1,,,,,,j,0.4793,1,0,1,0,1,,,,,,,,,,,,,,,,,,,,,,,,,,,,,,,,,,
297133,2022-10-04_19h25.01.210,vts_reward_expectancy,2022.2.4,MacIntel,60.0024001,Chrome,1440,900,,,,,,,,,,,,,,,,,,,,,,,W,125,hexagon,1,0,,,1,,,,,,j,1.1003,2,0,2,0,1,,,,,,,,,,,,,,,,,,,,,,,,,,,,,,,,,,
297133,2022-10-04_19h25.01.210,vts_reward_expectancy,2022.2.4,MacIntel,60.0024001,Chrome,1440,900,,,,,,,,,,,,,,,,,,,,,,,F,181,circle,1,0,,,1,,,,,,k,0.5249,3,0,3,0,1,,,,,,,,,,,,,,,,,,,,,,,,,,,,,,,,,,
297133,2022-10-04_19h25.01.210,vts_reward_expectancy,2022.2.4,MacIntel,60.0024001,Chrome,1440,900,,,,,,,,,,,,,,,,,,,,,,,H,146,star,1,0,,,1,,,,,,j,1.1792,4,0,4,0,1,,,,,,,,,,,,,,,,,,,,,,,,,,,,,,,,,,
297133,2022-10-04_19h25.01.210,vts_reward_expectancy,2022.2.4,MacIntel,60.0024001,Chrome,1440,900,,,,,,,,,,,,,,,,,,,,,,,Y,167,triangle,1,0,,,1,,,,,,k,0.7487,5,0,5,0,1,,,,,,,,,,,,,,,,,,,,,,,,,,,,,,,,,,
297133,2022-10-04_19h25.01.210,vts_reward_expectancy,2022.2.4,MacIntel,60.0024001,Chrome,1440,900,,,,,,,,,,,,,,,,,,,,,,,U,160,hexagon,1,0,,,1,,,,,,k,0.7646,6,0,6,0,1,,,,,,,,,,,,,,,,,,,,,,,,,,,,,,,,,,
297133,2022-10-04_19h25.01.210,vts_reward_expectancy,2022.2.4,MacIntel,60.0024001,Chrome,1440,900,,,,,,,,,,,,,,,,,,,,,,,B,132,circle,1,0,,,1,,,,,,j,0.8285,7,0,7,0,1,,,,,,,,,,,,,,,,,,,,,,,,,,,,,,,,,,
297133,2022-10-04_19h25.01.210,vts_reward_expectancy,2022.2.4,MacIntel,60.0024001,Chrome,1440,900,,,,,,,,,,,,,,,,,,,,,,,D,174,hexagon,1,0,,,1,,,,,,k,0.8449,8,0,8,0,1,,,,,,,,,,,,,,,,,,,,,,,,,,,,,,,,,,
297133,2022-10-04_19h25.01.210,vts_reward_expectancy,2022.2.4,MacIntel,60.0024001,Chrome,1440,900,,,,,,,,,,,,,,,,,,,,,,,S,139,star,1,0,,,1,,,,,,j,0.7137,9,0,9,0,1,,,,,,,,,,,,,,,,,,,,,,,,,,,,,,,,,,
297133,2022-10-04_19h25.01.210,vts_reward_expectancy,2022.2.4,MacIntel,60.0024001,Chrome,1440,900,,,,,0,711,,,,,,,,,,,,,,,,,U,181,hexagon,1,0,,,2,,,,,,,,,,,,,-1,letter,NA,f,2.2695,vtsPrac,0,0,0,0,1,,,,,,,,,,,,,,,,,,,,,,,
297133,2022-10-04_19h25.01.210,vts_reward_expectancy,2022.2.4,MacIntel,60.0024001,Chrome,1440,900,,,,,0,711,,,,,,,,,,,,,,,,,F,167,star,1,0,,,2,,,,,,,,,,,,,repeat,letter,lettRpt,d,1.1778,vtsPrac,1,0,1,0,1,,,,,,,,,,,,,,,,,,,,,,,
297133,2022-10-04_19h25.01.210,vts_reward_expectancy,2022.2.4,MacIntel,60.0024001,Chrome,1440,900,,,,,0,711,,,,,,,,,,,,,,,,,Y,174,hexagon,1,0,,,2,,,,,,,,,,,,,switch,number,numSwt,k,0.8193,vtsPrac,2,0,2,0,1,,,,,,,,,,,,,,,,,,,,,,,
297133,2022-10-04_19h25.01.210,vts_reward_expectancy,2022.2.4,MacIntel,60.0024001,Chrome,1440,900,,,,,0,711,,,,,,,,,,,,,,,,,W,160,star,1,0,,,2,,,,,,,,,,,,,repeat,number,numRpt,k,0.8239,vtsPrac,3,0,3,0,1,,,,,,,,,,,,,,,,,,,,,,,
297133,2022-10-04_19h25.01.210,vts_reward_expectancy,2022.2.4,MacIntel,60.0024001,Chrome,1440,900,,,,,0,711,,,,,,,,,,,,,,,,,U,181,circle,1,0,,,2,,,,,,,,,,,,,repeat,number,numRpt,k,0.5319,vtsPrac,4,0,4,0,1,,,,,,,,,,,,,,,,,,,,,,,
297133,2022-10-04_19h25.01.210,vts_reward_expectancy,2022.2.4,MacIntel,60.0024001,Chrome,1440,900,,,,,0,711,,,,,,,,,,,,,,,,,F,167,hexagon,1,0,,,2,,,,,,,,,,,,,switch,letter,lettSwt,d,0.7301,vtsPrac,5,0,5,0,1,,,,,,,,,,,,,,,,,,,,,,,
297133,2022-10-04_19h25.01.210,vts_reward_expectancy,2022.2.4,MacIntel,60.0024001,Chrome,1440,900,,,,,0,711,,,,,,,,,,,,,,,,,Y,174,triangle,1,0,,,2,,,,,,,,,,,,,switch,number,numSwt,k,0.44,vtsPrac,6,0,6,0,1,,,,,,,,,,,,,,,,,,,,,,,
297133,2022-10-04_19h25.01.210,vts_reward_expectancy,2022.2.4,MacIntel,60.0024001,Chrome,1440,900,,,,,0,711,,,,,,,,,,,,,,,,,W,160,star,1,0,,,2,,,,,,,,,,,,,repeat,number,numRpt,k,0.5881,vtsPrac,7,0,7,0,1,,,,,,,,,,,,,,,,,,,,,,,
297133,2022-10-04_19h25.01.210,vts_reward_expectancy,2022.2.4,MacIntel,60.0024001,Chrome,1440,900,,,,,0,711,,,,,,,,,,,,,,,,,H,181,star,1,0,,,2,,,,,,,,,,,,,switch,letter,lettSwt,d,0.7525,vtsPrac,8,0,8,0,1,,,,,,,,,,,,,,,,,,,,,,,
297133,2022-10-04_19h25.01.210,vts_reward_expectancy,2022.2.4,MacIntel,60.0024001,Chrome,1440,900,,,,,0,711,,,,,,,,,,,,,,,,,B,132,circle,1,0,,,2,,,,,,,,,,,,,repeat,letter,lettRpt,d,0.5687,vtsPrac,9,0,9,0,1,,,,,,,,,,,,,,,,,,,,,,,
297133,2022-10-04_19h25.01.210,vts_reward_expectancy,2022.2.4,MacIntel,60.0024001,Chrome,1440,900,,,,,0,711,,,,,,,,,,,,,,,,,S,125,triangle,1,0,,,2,,,,,,,,,,,,,switch,number,numSwt,j,0.4681,vtsPrac,10,0,10,0,1,,,,,,,,,,,,,,,,,,,,,,,
297133,2022-10-04_19h25.01.210,vts_reward_expectancy,2022.2.4,MacIntel,60.0024001,Chrome,1440,900,,,,,0,711,,,,,,,,,,,,,,,,,F,174,star,1,0,,,2,,,,,,,,,,,,,switch,letter,lettSwt,d,0.5765,vtsPrac,11,0,11,0,1,,,,,,,,,,,,,,,,,,,,,,,
297133,2022-10-04_19h25.01.210,vts_reward_expectancy,2022.2.4,MacIntel,60.0024001,Chrome,1440,900,,,,,0,711,,,,,,,,,,,,,,,,,F,125,triangle,1,0,,,2,,,,,,,,,,,,,repeat,letter,lettRpt,d,0.6531,vtsPrac,12,0,12,0,1,,,,,,,,,,,,,,,,,,,,,,,
297133,2022-10-04_19h25.01.210,vts_reward_expectancy,2022.2.4,MacIntel,60.0024001,Chrome,1440,900,,,,,0,711,,,,,,,,,,,,,,,,,B,174,star,1,0,,,2,,,,,,,,,,,,,repeat,letter,lettRpt,d,0.5615,vtsPrac,13,0,13,0,1,,,,,,,,,,,,,,,,,,,,,,,
297133,2022-10-04_19h25.01.210,vts_reward_expectancy,2022.2.4,MacIntel,60.0024001,Chrome,1440,900,,,,,0,711,,,,,,,,,,,,,,,,,D,132,hexagon,1,0,,,2,,,,,,,,,,,,,switch,number,numSwt,j,0.5998,vtsPrac,14,0,14,0,1,,,,,,,,,,,,,,,,,,,,,,,
297133,2022-10-04_19h25.01.210,vts_reward_expectancy,2022.2.4,MacIntel,60.0024001,Chrome,1440,900,,,,,0,711,,,,,,,,,,,,,,,,,U,181,circle,1,0,,,2,,,,,,,,,,,,,repeat,number,numRpt,k,0.5609,vtsPrac,15,0,15,0,1,,,,,,,,,,,,,,,,,,,,,,,
297133,2022-10-04_19h25.01.210,vts_reward_expectancy,2022.2.4,MacIntel,60.0024001,Chrome,1440,900,,,,,,,,,,,,,,,,,,,,,,,,,,,,,,,,,,,,,,,,,,,,,,,,,,,,,,,,,,,,,,,,,,,,,,,,,,,,
297133,2022-10-04_19h25.01.210,vts_reward_expectancy,2022.2.4,MacIntel,60.0024001,Chrome,1440,900,,,,,,,,,,,,,,,,,,,,,,,,,,,,,,,,,,,,,,,,,,,,,,,,,,,,,,,,,,,,,,,,,,,,,,,,,,,,
297133,2022-10-04_19h25.01.210,vts_reward_expectancy,2022.2.4,MacIntel,60.0024001,Chrome,1440,900,,,,,0,711,,,,,,,,,,,,,,,,,U,146,circle,1,0,,,,,,,,,,,,,,,,switch,letter,lettSwt,f,1.0381,noRew,,,,,,0,0,0,0,0,1,,,,,,,,,,,,,,,,,
297133,2022-10-04_19h25.01.210,vts_reward_expectancy,2022.2.4,MacIntel,60.0024001,Chrome,1440,900,,,,,0,711,,,,,,,,,,,,,,,,,S,125,star,1,0,,,,,,,,,,,,,,,,switch,number,numSwt,j,0.8785,noRew,,,,,,0,1,0,1,0,1,,,,,,,,,,,,,,,,,
297133,2022-10-04_19h25.01.210,vts_reward_expectancy,2022.2.4,MacIntel,60.0024001,Chrome,1440,900,,,,,0,711,,,,,,,,,,,,,,,,,F,174,circle,1,0,,,,,,,,,,,,,,,,repeat,number,numRpt,k,0.4774,noRew,,,,,,0,2,0,2,0,1,,,,,,,,,,,,,,,,,
297133,2022-10-04_19h25.01.210,vts_reward_expectancy,2022.2.4,MacIntel,60.0024001,Chrome,1440,900,,,,,0,711,,,,,,,,,,,,,,,,,B,160,star,1,0,,,,,,,,,,,,,,,,repeat,number,numRpt,k,0.7131,noRew,,,,,,0,3,0,3,0,1,,,,,,,,,,,,,,,,,
297133,2022-10-04_19h25.01.210,vts_reward_expectancy,2022.2.4,MacIntel,60.0024001,Chrome,1440,900,,,,,0,711,,,,,,,,,,,,,,,,,U,146,triangle,1,0,,,,,,,,,,,,,,,,switch,letter,lettSwt,f,0.5377,noRew,,,,,,0,4,0,4,0,1,,,,,,,,,,,,,,,,,
297133,2022-10-04_19h25.01.210,vts_reward_expectancy,2022.2.4,MacIntel,60.0024001,Chrome,1440,900,,,,,0,711,,,,,,,,,,,,,,,,,S,125,circle,1,0,,,,,,,,,,,,,,,,switch,number,numSwt,j,0.4757,noRew,,,,,,0,5,0,5,0,1,,,,,,,,,,,,,,,,,
297133,2022-10-04_19h25.01.210,vts_reward_expectancy,2022.2.4,MacIntel,60.0024001,Chrome,1440,900,,,,,0,711,,,,,,,,,,,,,,,,,F,174,circle,1,0,,,,,,,,,,,,,,,,switch,letter,lettSwt,d,1.263,noRew,,,,,,0,6,0,6,0,1,,,,,,,,,,,,,,,,,
297133,2022-10-04_19h25.01.210,vts_reward_expectancy,2022.2.4,MacIntel,60.0024001,Chrome,1440,900,,,,,0,711,,,,,,,,,,,,,,,,,B,160,triangle,1,0,,,,,,,,,,,,,,,,repeat,letter,lettRpt,d,0.4986,noRew,,,,,,0,7,0,7,0,1,,,,,,,,,,,,,,,,,
297133,2022-10-04_19h25.01.210,vts_reward_expectancy,2022.2.4,MacIntel,60.0024001,Chrome,1440,900,,,,,0,711,,,,,,,,,,,,,,,,,Y,174,hexagon,1,0,,,,,,,,,,,,,,,,repeat,letter,lettRpt,f,0.7487,noRew,,,,,,0,8,0,8,0,1,,,,,,,,,,,,,,,,,
297133,2022-10-04_19h25.01.210,vts_reward_expectancy,2022.2.4,MacIntel,60.0024001,Chrome,1440,900,,,,,0,711,,,,,,,,,,,,,,,,,W,125,circle,1,0,,,,,,,,,,,,,,,,switch,number,numSwt,j,0.5593,noRew,,,,,,0,9,0,9,0,1,,,,,,,,,,,,,,,,,
297133,2022-10-04_19h25.01.210,vts_reward_expectancy,2022.2.4,MacIntel,60.0024001,Chrome,1440,900,,,,,0,711,,,,,,,,,,,,,,,,,S,146,circle,1,0,,,,,,,,,,,,,,,,switch,letter,lettSwt,f,0.6716,noRew,,,,,,0,10,0,10,0,1,,,,,,,,,,,,,,,,,
297133,2022-10-04_19h25.01.210,vts_reward_expectancy,2022.2.4,MacIntel,60.0024001,Chrome,1440,900,,,,,0,711,,,,,,,,,,,,,,,,,D,167,triangle,0,0,,,,,,,,,,,,,,,,switch,number,NA,j,0.4953,noRew,,,,,,0,11,0,11,0,1,,,,,,,,,,,,,,,,,
297133,2022-10-04_19h25.01.210,vts_reward_expectancy,2022.2.4,MacIntel,60.0024001,Chrome,1440,900,,,,,0,711,,,,,,,,,,,,,,,,,B,174,triangle,1,1,,,,,,,,,,,,,,,,repeat,number,numRpt,k,0.6818,noRew,,,,,,0,12,0,12,0,1,,,,,,,,,,,,,,,,,
297133,2022-10-04_19h25.01.210,vts_reward_expectancy,2022.2.4,MacIntel,60.0024001,Chrome,1440,900,,,,,0,711,,,,,,,,,,,,,,,,,H,132,hexagon,1,0,,,,,,,,,,,,,,,,switch,letter,lettSwt,d,0.9856,noRew,,,,,,0,13,0,13,0,1,,,,,,,,,,,,,,,,,
297133,2022-10-04_19h25.01.210,vts_reward_expectancy,2022.2.4,MacIntel,60.0024001,Chrome,1440,900,,,,,0,711,,,,,,,,,,,,,,,,,Y,146,hexagon,1,0,,,,,,,,,,,,,,,,repeat,letter,lettRpt,f,0.9417,noRew,,,,,,0,14,0,14,0,1,,,,,,,,,,,,,,,,,
297133,2022-10-04_19h25.01.210,vts_reward_expectancy,2022.2.4,MacIntel,60.0024001,Chrome,1440,900,,,,,0,711,,,,,,,,,,,,,,,,,S,139,triangle,0,0,,,,,,,,,,,,,,,,switch,number,NA,k,0.5135,noRew,,,,,,0,15,0,15,0,1,,,,,,,,,,,,,,,,,
297133,2022-10-04_19h25.01.210,vts_reward_expectancy,2022.2.4,MacIntel,60.0024001,Chrome,1440,900,,,,,0,711,,,,,,,,,,,,,,,,,Y,125,circle,1,1,,,,,,,,,,,,,,,,switch,letter,lettSwt,f,0.6702,noRew,,,,,,0,16,0,16,0,1,,,,,,,,,,,,,,,,,
297133,2022-10-04_19h25.01.210,vts_reward_expectancy,2022.2.4,MacIntel,60.0024001,Chrome,1440,900,,,,,0,711,,,,,,,,,,,,,,,,,D,167,triangle,1,0,,,,,,,,,,,,,,,,repeat,letter,lettRpt,d,0.6788,noRew,,,,,,0,17,0,17,0,1,,,,,,,,,,,,,,,,,
297133,2022-10-04_19h25.01.210,vts_reward_expectancy,2022.2.4,MacIntel,60.0024001,Chrome,1440,900,,,,,0,711,,,,,,,,,,,,,,,,,B,132,triangle,1,0,,,,,,,,,,,,,,,,switch,number,numSwt,j,0.5204,noRew,,,,,,0,18,0,18,0,1,,,,,,,,,,,,,,,,,
297133,2022-10-04_19h25.01.210,vts_reward_expectancy,2022.2.4,MacIntel,60.0024001,Chrome,1440,900,,,,,0,711,,,,,,,,,,,,,,,,,U,181,circle,1,0,,,,,,,,,,,,,,,,repeat,number,numRpt,k,0.6717,noRew,,,,,,0,19,0,19,0,1,,,,,,,,,,,,,,,,,
297133,2022-10-04_19h25.01.210,vts_reward_expectancy,2022.2.4,MacIntel,60.0024001,Chrome,1440,900,,,,,0,711,,,,,,,,,,,,,,,,,H,125,star,1,0,,,,,,,,,,,,,,,,switch,letter,lettSwt,d,0.6119,noRew,,,,,,0,20,0,20,0,1,,,,,,,,,,,,,,,,,
297133,2022-10-04_19h25.01.210,vts_reward_expectancy,2022.2.4,MacIntel,60.0024001,Chrome,1440,900,,,,,0,711,,,,,,,,,,,,,,,,,W,160,circle,1,0,,,,,,,,,,,,,,,,switch,number,numSwt,k,0.7627,noRew,,,,,,0,21,0,21,0,1,,,,,,,,,,,,,,,,,
297133,2022-10-04_19h25.01.210,vts_reward_expectancy,2022.2.4,MacIntel,60.0024001,Chrome,1440,900,,,,,0,711,,,,,,,,,,,,,,,,,U,132,triangle,1,0,,,,,,,,,,,,,,,,switch,letter,lettSwt,f,1.3445,noRew,,,,,,0,22,0,22,0,1,,,,,,,,,,,,,,,,,
297133,2022-10-04_19h25.01.210,vts_reward_expectancy,2022.2.4,MacIntel,60.0024001,Chrome,1440,900,,,,,0,711,,,,,,,,,,,,,,,,,D,174,star,1,0,,,,,,,,,,,,,,,,repeat,letter,lettRpt,d,0.5623,noRew,,,,,,0,23,0,23,0,1,,,,,,,,,,,,,,,,,
297133,2022-10-04_19h25.01.210,vts_reward_expectancy,2022.2.4,MacIntel,60.0024001,Chrome,1440,900,,,,,0,711,,,,,,,,,,,,,,,,,F,174,hexagon,1,0,,,,,,,,,,,,,,,,switch,number,numSwt,k,0.9178,noRew,,,,,,0,24,0,24,0,1,,,,,,,,,,,,,,,,,
297133,2022-10-04_19h25.01.210,vts_reward_expectancy,2022.2.4,MacIntel,60.0024001,Chrome,1440,900,,,,,0,711,,,,,,,,,,,,,,,,,H,132,triangle,1,0,,,,,,,,,,,,,,,,switch,letter,lettSwt,d,0.8695,noRew,,,,,,0,25,0,25,0,1,,,,,,,,,,,,,,,,,
297133,2022-10-04_19h25.01.210,vts_reward_expectancy,2022.2.4,MacIntel,60.0024001,Chrome,1440,900,,,,,0,711,,,,,,,,,,,,,,,,,D,146,triangle,1,0,,,,,,,,,,,,,,,,switch,number,numSwt,j,0.6104,noRew,,,,,,0,26,0,26,0,1,,,,,,,,,,,,,,,,,
297133,2022-10-04_19h25.01.210,vts_reward_expectancy,2022.2.4,MacIntel,60.0024001,Chrome,1440,900,,,,,0,711,,,,,,,,,,,,,,,,,B,160,hexagon,1,0,,,,,,,,,,,,,,,,switch,letter,lettSwt,d,0.7782,noRew,,,,,,0,27,0,27,0,1,,,,,,,,,,,,,,,,,
297133,2022-10-04_19h25.01.210,vts_reward_expectancy,2022.2.4,MacIntel,60.0024001,Chrome,1440,900,,,,,0,711,,,,,,,,,,,,,,,,,B,139,triangle,1,0,,,,,,,,,,,,,,,,repeat,letter,lettRpt,d,0.7732,noRew,,,,,,0,28,0,28,0,1,,,,,,,,,,,,,,,,,
297133,2022-10-04_19h25.01.210,vts_reward_expectancy,2022.2.4,MacIntel,60.0024001,Chrome,1440,900,,,,,0,711,,,,,,,,,,,,,,,,,H,125,hexagon,1,0,,,,,,,,,,,,,,,,switch,number,numSwt,j,0.5665,noRew,,,,,,0,29,0,29,0,1,,,,,,,,,,,,,,,,,
297133,2022-10-04_19h25.01.210,vts_reward_expectancy,2022.2.4,MacIntel,60.0024001,Chrome,1440,900,,,,,0,711,,,,,,,,,,,,,,,,,Y,160,hexagon,1,0,,,,,,,,,,,,,,,,repeat,number,numRpt,k,0.5918,noRew,,,,,,0,30,0,30,0,1,,,,,,,,,,,,,,,,,
297133,2022-10-04_19h25.01.210,vts_reward_expectancy,2022.2.4,MacIntel,60.0024001,Chrome,1440,900,,,,,0,711,,,,,,,,,,,,,,,,,U,146,circle,1,0,,,,,,,,,,,,,,,,repeat,number,numRpt,j,0.4932,noRew,,,,,,0,31,0,31,0,1,,,,,,,,,,,,,,,,,
297133,2022-10-04_19h25.01.210,vts_reward_expectancy,2022.2.4,MacIntel,60.0024001,Chrome,1440,900,,,,,0,711,,,,,,,,,,,,,,,,,Y,139,hexagon,1,0,,,,,,,,,,,,,,,,switch,letter,lettSwt,f,1.227,noRew,,,,,,0,32,0,32,0,1,,,,,,,,,,,,,,,,,
297133,2022-10-04_19h25.01.210,vts_reward_expectancy,2022.2.4,MacIntel,60.0024001,Chrome,1440,900,,,,,0,711,,,,,,,,,,,,,,,,,S,167,circle,1,0,,,,,,,,,,,,,,,,repeat,letter,lettRpt,f,0.8612,noRew,,,,,,0,33,0,33,0,1,,,,,,,,,,,,,,,,,
297133,2022-10-04_19h25.01.210,vts_reward_expectancy,2022.2.4,MacIntel,60.0024001,Chrome,1440,900,,,,,0,711,,,,,,,,,,,,,,,,,B,174,hexagon,1,0,,,,,,,,,,,,,,,,switch,number,numSwt,k,0.9189,noRew,,,,,,0,34,0,34,0,1,,,,,,,,,,,,,,,,,
297133,2022-10-04_19h25.01.210,vts_reward_expectancy,2022.2.4,MacIntel,60.0024001,Chrome,1440,900,,,,,0,711,,,,,,,,,,,,,,,,,H,160,circle,1,0,,,,,,,,,,,,,,,,switch,letter,lettSwt,d,0.827,noRew,,,,,,0,35,0,35,0,1,,,,,,,,,,,,,,,,,
297133,2022-10-04_19h25.01.210,vts_reward_expectancy,2022.2.4,MacIntel,60.0024001,Chrome,1440,900,,,,,0,711,,,,,,,,,,,,,,,,,Y,174,triangle,1,0,,,,,,,,,,,,,,,,switch,number,numSwt,k,0.6677,noRew,,,,,,0,36,0,36,0,1,,,,,,,,,,,,,,,,,
297133,2022-10-04_19h25.01.210,vts_reward_expectancy,2022.2.4,MacIntel,60.0024001,Chrome,1440,900,,,,,0,711,,,,,,,,,,,,,,,,,B,139,circle,1,0,,,,,,,,,,,,,,,,repeat,number,numRpt,j,0.7607,noRew,,,,,,0,37,0,37,0,1,,,,,,,,,,,,,,,,,
297133,2022-10-04_19h25.01.210,vts_reward_expectancy,2022.2.4,MacIntel,60.0024001,Chrome,1440,900,,,,,0,711,,,,,,,,,,,,,,,,,F,125,circle,1,0,,,,,,,,,,,,,,,,repeat,number,numRpt,j,0.6182,noRew,,,,,,0,38,0,38,0,1,,,,,,,,,,,,,,,,,
297133,2022-10-04_19h25.01.210,vts_reward_expectancy,2022.2.4,MacIntel,60.0024001,Chrome,1440,900,,,,,0,711,,,,,,,,,,,,,,,,,W,132,hexagon,1,0,,,,,,,,,,,,,,,,repeat,number,numRpt,j,0.6535,noRew,,,,,,0,39,0,39,0,1,,,,,,,,,,,,,,,,,
297133,2022-10-04_19h25.01.210,vts_reward_expectancy,2022.2.4,MacIntel,60.0024001,Chrome,1440,900,,,,,0,711,,,,,,,,,,,,,,,,,W,139,triangle,1,0,,,,,,,,,,,,,,,,switch,letter,lettSwt,f,0.6462,noRew,,,,,,0,40,0,40,0,1,,,,,,,,,,,,,,,,,
297133,2022-10-04_19h25.01.210,vts_reward_expectancy,2022.2.4,MacIntel,60.0024001,Chrome,1440,900,,,,,0,711,,,,,,,,,,,,,,,,,Y,160,star,1,0,,,,,,,,,,,,,,,,repeat,letter,lettRpt,f,0.5617,noRew,,,,,,0,41,0,41,0,1,,,,,,,,,,,,,,,,,
297133,2022-10-04_19h25.01.210,vts_reward_expectancy,2022.2.4,MacIntel,60.0024001,Chrome,1440,900,,,,,0,711,,,,,,,,,,,,,,,,,S,132,triangle,1,0,,,,,,,,,,,,,,,,switch,number,numSwt,j,0.6029,noRew,,,,,,0,42,0,42,0,1,,,,,,,,,,,,,,,,,
297133,2022-10-04_19h25.01.210,vts_reward_expectancy,2022.2.4,MacIntel,60.0024001,Chrome,1440,900,,,,,0,711,,,,,,,,,,,,,,,,,H,174,hexagon,1,0,,,,,,,,,,,,,,,,switch,letter,lettSwt,d,0.5529,noRew,,,,,,0,43,0,43,0,1,,,,,,,,,,,,,,,,,
297133,2022-10-04_19h25.01.210,vts_reward_expectancy,2022.2.4,MacIntel,60.0024001,Chrome,1440,900,,,,,0,711,,,,,,,,,,,,,,,,,S,132,triangle,1,0,,,,,,,,,,,,,,,,switch,number,numSwt,j,0.6291,noRew,,,,,,0,44,0,44,0,1,,,,,,,,,,,,,,,,,
297133,2022-10-04_19h25.01.210,vts_reward_expectancy,2022.2.4,MacIntel,60.0024001,Chrome,1440,900,,,,,0,711,,,,,,,,,,,,,,,,,B,146,hexagon,1,0,,,,,,,,,,,,,,,,switch,letter,lettSwt,d,0.5927,noRew,,,,,,0,45,0,45,0,1,,,,,,,,,,,,,,,,,
297133,2022-10-04_19h25.01.210,vts_reward_expectancy,2022.2.4,MacIntel,60.0024001,Chrome,1440,900,,,,,0,711,,,,,,,,,,,,,,,,,W,181,circle,1,0,,,,,,,,,,,,,,,,repeat,letter,lettRpt,f,0.6642,noRew,,,,,,0,46,0,46,0,1,,,,,,,,,,,,,,,,,
297133,2022-10-04_19h25.01.210,vts_reward_expectancy,2022.2.4,MacIntel,60.0024001,Chrome,1440,900,,,,,0,711,,,,,,,,,,,,,,,,,H,125,triangle,1,0,,,,,,,,,,,,,,,,switch,number,numSwt,j,0.651,noRew,,,,,,0,47,0,47,0,1,,,,,,,,,,,,,,,,,
297133,2022-10-04_19h25.01.210,vts_reward_expectancy,2022.2.4,MacIntel,60.0024001,Chrome,1440,900,,,,,0,711,,,,,,,,,,,,,,,,,F,160,hexagon,1,0,,,,,,,,,,,,,,,,switch,letter,lettSwt,d,1.0326,noRew,,,,,,0,48,0,48,0,1,,,,,,,,,,,,,,,,,
297133,2022-10-04_19h25.01.210,vts_reward_expectancy,2022.2.4,MacIntel,60.0024001,Chrome,1440,900,,,,,0,711,,,,,,,,,,,,,,,,,S,139,circle,1,0,,,,,,,,,,,,,,,,switch,number,numSwt,j,0.575,noRew,,,,,,0,49,0,49,0,1,,,,,,,,,,,,,,,,,
297133,2022-10-04_19h25.01.210,vts_reward_expectancy,2022.2.4,MacIntel,60.0024001,Chrome,1440,900,,,,,0,711,,,,,,,,,,,,,,,,,H,132,star,1,0,,,,,,,,,,,,,,,,repeat,number,numRpt,j,0.5433,noRew,,,,,,0,50,0,50,0,1,,,,,,,,,,,,,,,,,
297133,2022-10-04_19h25.01.210,vts_reward_expectancy,2022.2.4,MacIntel,60.0024001,Chrome,1440,900,,,,,0,711,,,,,,,,,,,,,,,,,U,125,hexagon,1,0,,,,,,,,,,,,,,,,repeat,number,numRpt,j,0.6098,noRew,,,,,,0,51,0,51,0,1,,,,,,,,,,,,,,,,,
297133,2022-10-04_19h25.01.210,vts_reward_expectancy,2022.2.4,MacIntel,60.0024001,Chrome,1440,900,,,,,0,711,,,,,,,,,,,,,,,,,H,132,triangle,1,0,,,,,,,,,,,,,,,,switch,letter,lettSwt,d,0.6282,noRew,,,,,,0,52,0,52,0,1,,,,,,,,,,,,,,,,,
297133,2022-10-04_19h25.01.210,vts_reward_expectancy,2022.2.4,MacIntel,60.0024001,Chrome,1440,900,,,,,0,711,,,,,,,,,,,,,,,,,D,146,circle,1,0,,,,,,,,,,,,,,,,switch,number,numSwt,j,0.4427,noRew,,,,,,0,53,0,53,0,1,,,,,,,,,,,,,,,,,
297133,2022-10-04_19h25.01.210,vts_reward_expectancy,2022.2.4,MacIntel,60.0024001,Chrome,1440,900,,,,,0,711,,,,,,,,,,,,,,,,,W,181,triangle,1,0,,,,,,,,,,,,,,,,switch,letter,lettSwt,f,0.6614,noRew,,,,,,0,54,0,54,0,1,,,,,,,,,,,,,,,,,
297133,2022-10-04_19h25.01.210,vts_reward_expectancy,2022.2.4,MacIntel,60.0024001,Chrome,1440,900,,,,,0,711,,,,,,,,,,,,,,,,,U,167,hexagon,0,0,,,,,,,,,,,,,,,,switch,number,NA,j,0.843,noRew,,,,,,0,55,0,55,0,1,,,,,,,,,,,,,,,,,
297133,2022-10-04_19h25.01.210,vts_reward_expectancy,2022.2.4,MacIntel,60.0024001,Chrome,1440,900,,,,,0,711,,,,,,,,,,,,,,,,,W,132,star,1,1,,,,,,,,,,,,,,,,repeat,number,numRpt,j,0.756,noRew,,,,,,0,56,0,56,0,1,,,,,,,,,,,,,,,,,
297133,2022-10-04_19h25.01.210,vts_reward_expectancy,2022.2.4,MacIntel,60.0024001,Chrome,1440,900,,,,,0,711,,,,,,,,,,,,,,,,,F,139,hexagon,1,0,,,,,,,,,,,,,,,,switch,letter,lettSwt,d,0.6586,noRew,,,,,,0,57,0,57,0,1,,,,,,,,,,,,,,,,,
297133,2022-10-04_19h25.01.210,vts_reward_expectancy,2022.2.4,MacIntel,60.0024001,Chrome,1440,900,,,,,0,711,,,,,,,,,,,,,,,,,S,125,star,1,0,,,,,,,,,,,,,,,,repeat,letter,lettRpt,f,0.8102,noRew,,,,,,0,58,0,58,0,1,,,,,,,,,,,,,,,,,
297133,2022-10-04_19h25.01.210,vts_reward_expectancy,2022.2.4,MacIntel,60.0024001,Chrome,1440,900,,,,,0,711,,,,,,,,,,,,,,,,,Y,181,hexagon,1,0,,,,,,,,,,,,,,,,switch,number,numSwt,k,1.2105,noRew,,,,,,0,59,0,59,0,1,,,,,,,,,,,,,,,,,
297133,2022-10-04_19h25.01.210,vts_reward_expectancy,2022.2.4,MacIntel,60.0024001,Chrome,1440,900,,,,,0,711,,,,,,,,,,,,,,,,,F,139,circle,1,0,,,,,,,,,,,,,,,,repeat,number,numRpt,j,0.6352,noRew,,,,,,0,60,0,60,0,1,,,,,,,,,,,,,,,,,
297133,2022-10-04_19h25.01.210,vts_reward_expectancy,2022.2.4,MacIntel,60.0024001,Chrome,1440,900,,,,,0,711,,,,,,,,,,,,,,,,,D,181,star,1,0,,,,,,,,,,,,,,,,switch,letter,lettSwt,d,0.8091,noRew,,,,,,0,61,0,61,0,1,,,,,,,,,,,,,,,,,
297133,2022-10-04_19h25.01.210,vts_reward_expectancy,2022.2.4,MacIntel,60.0024001,Chrome,1440,900,,,,,0,711,,,,,,,,,,,,,,,,,Y,160,circle,1,0,,,,,,,,,,,,,,,,switch,number,numSwt,k,0.698,noRew,,,,,,0,62,0,62,0,1,,,,,,,,,,,,,,,,,
297133,2022-10-04_19h25.01.210,vts_reward_expectancy,2022.2.4,MacIntel,60.0024001,Chrome,1440,900,,,,,0,711,,,,,,,,,,,,,,,,,W,132,star,0,0,,,,,,,,,,,,,,,,repeat,number,NA,k,0.775,noRew,,,,,,0,63,0,63,0,1,,,,,,,,,,,,,,,,,
297133,2022-10-04_19h25.01.210,vts_reward_expectancy,2022.2.4,MacIntel,60.0024001,Chrome,1440,900,,,,,,,,,,,,,,,,,,,,,,,,,,,,,,,,,,,,,,,,,,,,,,,,,,,,,,,,,,,,,,,,,,,,,,,,,,,,
297133,2022-10-04_19h25.01.210,vts_reward_expectancy,2022.2.4,MacIntel,60.0024001,Chrome,1440,900,,,,,0,711,,,,,,,,,,,,,,,,,W,146,hexagon,1,1,,,,,,,,,,,,,,,,switch,letter,lettSwt,f,0.9272,Hi,,,,,,0,,,,,,space,6.1761,high,0,0,0,0,1,,,,,,,,,
297133,2022-10-04_19h25.01.210,vts_reward_expectancy,2022.2.4,MacIntel,60.0024001,Chrome,1440,900,,,,,1,712,,,,,,,,,,,,,,,,,F,174,triangle,1,0,,,,,,,,,,,,,,,,repeat,letter,lettRpt,d,0.3768,Lo,,,,,,0,,,,,,,,high,1,0,1,0,1,,,,,,,,,
297133,2022-10-04_19h25.01.210,vts_reward_expectancy,2022.2.4,MacIntel,60.0024001,Chrome,1440,900,,,,,10,722,,,,,,,,,,,,,,,,,Y,125,hexagon,1,0,,,,,,,,,,,,,,,,repeat,letter,lettRpt,f,0.4168,Hi,,,,,,0,,,,,,,,high,2,0,2,0,1,,,,,,,,,
297133,2022-10-04_19h25.01.210,vts_reward_expectancy,2022.2.4,MacIntel,60.0024001,Chrome,1440,900,,,,,0,722,,,,,,,,,,,,,,,,,U,139,triangle,0,0,,,,,,,,,,,,,,,,switch,number,NA,k,0.3683,Hi,,,,,,0,,,,,,,,high,3,0,3,0,1,,,,,,,,,
297133,2022-10-04_19h25.01.210,vts_reward_expectancy,2022.2.4,MacIntel,60.0024001,Chrome,1440,900,,,,,0,722,,,,,,,,,,,,,,,,,B,181,triangle,0,1,,,,,,,,,,,,,,,,repeat,number,NA,j,0.4077,Hi,,,,,,0,,,,,,,,high,4,0,4,0,1,,,,,,,,,
297133,2022-10-04_19h25.01.210,vts_reward_expectancy,2022.2.4,MacIntel,60.0024001,Chrome,1440,900,,,,,1,723,,,,,,,,,,,,,,,,,D,167,hexagon,1,1,,,,,,,,,,,,,,,,repeat,number,numRpt,k,0.4157,Hi,,,,,,0,,,,,,,,high,5,0,5,0,1,,,,,,,,,
297133,2022-10-04_19h25.01.210,vts_reward_expectancy,2022.2.4,MacIntel,60.0024001,Chrome,1440,900,,,,,0,723,,,,,,,,,,,,,,,,,H,132,triangle,0,0,,,,,,,,,,,,,,,,repeat,number,NA,k,0.4386,Hi,,,,,,0,,,,,,,,high,6,0,6,0,1,,,,,,,,,
297133,2022-10-04_19h25.01.210,vts_reward_expectancy,2022.2.4,MacIntel,60.0024001,Chrome,1440,900,,,,,10,733,,,,,,,,,,,,,,,,,S,160,hexagon,1,1,,,,,,,,,,,,,,,,repeat,number,numRpt,k,0.4283,Hi,,,,,,0,,,,,,,,high,7,0,7,0,1,,,,,,,,,
297133,2022-10-04_19h25.01.210,vts_reward_expectancy,2022.2.4,MacIntel,60.0024001,Chrome,1440,900,,,,,10,743,,,,,,,,,,,,,,,,,W,146,hexagon,1,0,,,,,,,,,,,,,,,,switch,letter,lettSwt,f,0.5139,Hi,,,,,,0,,,,,,,,high,8,0,8,0,1,,,,,,,,,
297133,2022-10-04_19h25.01.210,vts_reward_expectancy,2022.2.4,MacIntel,60.0024001,Chrome,1440,900,,,,,0,743,,,,,,,,,,,,,,,,,F,174,triangle,0,0,,,,,,,,,,,,,,,,repeat,letter,NA,f,0.4331,Hi,,,,,,0,,,,,,,,high,9,0,9,0,1,,,,,,,,,
297133,2022-10-04_19h25.01.210,vts_reward_expectancy,2022.2.4,MacIntel,60.0024001,Chrome,1440,900,,,,,10,753,,,,,,,,,,,,,,,,,Y,125,hexagon,1,1,,,,,,,,,,,,,,,,repeat,letter,lettRpt,f,0.3976,Hi,,,,,,0,,,,,,,,high,10,0,10,0,1,,,,,,,,,
297133,2022-10-04_19h25.01.210,vts_reward_expectancy,2022.2.4,MacIntel,60.0024001,Chrome,1440,900,,,,,0,753,,,,,,,,,,,,,,,,,U,139,triangle,0,0,,,,,,,,,,,,,,,,repeat,letter,NA,d,0.4571,Hi,,,,,,0,,,,,,,,high,11,0,11,0,1,,,,,,,,,
297133,2022-10-04_19h25.01.210,vts_reward_expectancy,2022.2.4,MacIntel,60.0024001,Chrome,1440,900,,,,,1,754,,,,,,,,,,,,,,,,,B,181,triangle,1,1,,,,,,,,,,,,,,,,switch,number,numSwt,k,0.4455,Lo,,,,,,0,,,,,,,,high,12,0,12,0,1,,,,,,,,,
297133,2022-10-04_19h25.01.210,vts_reward_expectancy,2022.2.4,MacIntel,60.0024001,Chrome,1440,900,,,,,10,764,,,,,,,,,,,,,,,,,D,167,hexagon,1,0,,,,,,,,,,,,,,,,repeat,number,numRpt,k,0.4283,Hi,,,,,,0,,,,,,,,high,13,0,13,0,1,,,,,,,,,
297133,2022-10-04_19h25.01.210,vts_reward_expectancy,2022.2.4,MacIntel,60.0024001,Chrome,1440,900,,,,,0,764,,,,,,,,,,,,,,,,,H,132,hexagon,0,0,,,,,,,,,,,,,,,,repeat,number,NA,k,0.4941,Hi,,,,,,0,,,,,,,,high,14,0,14,0,1,,,,,,,,,
297133,2022-10-04_19h25.01.210,vts_reward_expectancy,2022.2.4,MacIntel,60.0024001,Chrome,1440,900,,,,,1,765,,,,,,,,,,,,,,,,,S,160,triangle,1,1,,,,,,,,,,,,,,,,repeat,number,numRpt,k,0.5321,Lo,,,,,,0,,,,,,,,high,15,0,15,0,1,,,,,,,,,
297133,2022-10-04_19h25.01.210,vts_reward_expectancy,2022.2.4,MacIntel,60.0024001,Chrome,1440,900,,,,,10,775,,,,,,,,,,,,,,,,,Y,181,hexagon,1,0,,,,,,,,,,,,,,,,repeat,number,numRpt,k,0.4944,Hi,,,,,,0,,,,,,,,high,16,0,16,0,1,,,,,,,,,
297133,2022-10-04_19h25.01.210,vts_reward_expectancy,2022.2.4,MacIntel,60.0024001,Chrome,1440,900,,,,,1,776,,,,,,,,,,,,,,,,,S,167,triangle,1,0,,,,,,,,,,,,,,,,switch,letter,lettSwt,f,0.5925,Lo,,,,,,0,,,,,,,,high,17,0,17,0,1,,,,,,,,,
297133,2022-10-04_19h25.01.210,vts_reward_expectancy,2022.2.4,MacIntel,60.0024001,Chrome,1440,900,,,,,0,776,,,,,,,,,,,,,,,,,F,174,triangle,0,0,,,,,,,,,,,,,,,,repeat,letter,NA,f,0.5498,Lo,,,,,,0,,,,,,,,high,18,0,18,0,1,,,,,,,,,
297133,2022-10-04_19h25.01.210,vts_reward_expectancy,2022.2.4,MacIntel,60.0024001,Chrome,1440,900,,,,,10,786,,,,,,,,,,,,,,,,,D,132,hexagon,1,1,,,,,,,,,,,,,,,,repeat,letter,lettRpt,d,0.5979,Hi,,,,,,0,,,,,,,,high,19,0,19,0,1,,,,,,,,,
297133,2022-10-04_19h25.01.210,vts_reward_expectancy,2022.2.4,MacIntel,60.0024001,Chrome,1440,900,,,,,10,796,,,,,,,,,,,,,,,,,U,146,hexagon,1,0,,,,,,,,,,,,,,,,repeat,letter,lettRpt,f,0.5802,Hi,,,,,,0,,,,,,,,high,20,0,20,0,1,,,,,,,,,
297133,2022-10-04_19h25.01.210,vts_reward_expectancy,2022.2.4,MacIntel,60.0024001,Chrome,1440,900,,,,,1,797,,,,,,,,,,,,,,,,,W,125,triangle,1,0,,,,,,,,,,,,,,,,switch,number,numSwt,j,0.5016,Lo,,,,,,0,,,,,,,,high,21,0,21,0,1,,,,,,,,,
297133,2022-10-04_19h25.01.210,vts_reward_expectancy,2022.2.4,MacIntel,60.0024001,Chrome,1440,900,,,,,0,797,,,,,,,,,,,,,,,,,B,139,triangle,0,0,,,,,,,,,,,,,,,,repeat,number,NA,k,0.5276,Lo,,,,,,0,,,,,,,,high,22,0,22,0,1,,,,,,,,,
297133,2022-10-04_19h25.01.210,vts_reward_expectancy,2022.2.4,MacIntel,60.0024001,Chrome,1440,900,,,,,10,807,,,,,,,,,,,,,,,,,H,160,hexagon,1,1,,,,,,,,,,,,,,,,repeat,number,numRpt,k,0.4934,Hi,,,,,,0,,,,,,,,high,23,0,23,0,1,,,,,,,,,
297133,2022-10-04_19h25.01.210,vts_reward_expectancy,2022.2.4,MacIntel,60.0024001,Chrome,1440,900,,,,,1,808,,,,,,,,,,,,,,,,,H,181,triangle,1,0,,,,,,,,,,,,,,,,switch,letter,lettSwt,d,0.6971,Lo,,,,,,0,,,,,,,,high,24,0,24,0,1,,,,,,,,,
297133,2022-10-04_19h25.01.210,vts_reward_expectancy,2022.2.4,MacIntel,60.0024001,Chrome,1440,900,,,,,10,818,,,,,,,,,,,,,,,,,Y,132,hexagon,1,0,,,,,,,,,,,,,,,,switch,number,numSwt,j,0.4279,Hi,,,,,,0,,,,,,,,high,25,0,25,0,1,,,,,,,,,
297133,2022-10-04_19h25.01.210,vts_reward_expectancy,2022.2.4,MacIntel,60.0024001,Chrome,1440,900,,,,,10,828,,,,,,,,,,,,,,,,,F,174,hexagon,1,0,,,,,,,,,,,,,,,,repeat,number,numRpt,k,0.503,Hi,,,,,,0,,,,,,,,high,26,0,26,0,1,,,,,,,,,
297133,2022-10-04_19h25.01.210,vts_reward_expectancy,2022.2.4,MacIntel,60.0024001,Chrome,1440,900,,,,,10,838,,,,,,,,,,,,,,,,,W,125,triangle,1,0,,,,,,,,,,,,,,,,repeat,number,numRpt,j,0.4165,Lo,,,,,,0,,,,,,,,high,27,0,27,0,1,,,,,,,,,
297133,2022-10-04_19h25.01.210,vts_reward_expectancy,2022.2.4,MacIntel,60.0024001,Chrome,1440,900,,,,,1,839,,,,,,,,,,,,,,,,,S,146,triangle,1,0,,,,,,,,,,,,,,,,repeat,number,numRpt,j,0.4138,Lo,,,,,,0,,,,,,,,high,28,0,28,0,1,,,,,,,,,
297133,2022-10-04_19h25.01.210,vts_reward_expectancy,2022.2.4,MacIntel,60.0024001,Chrome,1440,900,,,,,10,849,,,,,,,,,,,,,,,,,B,139,hexagon,1,0,,,,,,,,,,,,,,,,switch,letter,lettSwt,d,0.5698,Hi,,,,,,0,,,,,,,,high,29,0,29,0,1,,,,,,,,,
297133,2022-10-04_19h25.01.210,vts_reward_expectancy,2022.2.4,MacIntel,60.0024001,Chrome,1440,900,,,,,10,859,,,,,,,,,,,,,,,,,U,167,hexagon,1,0,,,,,,,,,,,,,,,,repeat,letter,lettRpt,f,0.5861,Hi,,,,,,0,,,,,,,,high,30,0,30,0,1,,,,,,,,,
297133,2022-10-04_19h25.01.210,vts_reward_expectancy,2022.2.4,MacIntel,60.0024001,Chrome,1440,900,,,,,0,859,,,,,,,,,,,,,,,,,D,160,triangle,0,0,,,,,,,,,,,,,,,,switch,number,NA,j,0.6936,Hi,,,,,,0,,,,,,,,high,31,0,31,0,1,,,,,,,,,
297133,2022-10-04_19h25.01.210,vts_reward_expectancy,2022.2.4,MacIntel,60.0024001,Chrome,1440,900,,,,,0,859,,,,,,,,,,,,,,,,,F,181,star,1,1,,,,,,,,,,,,,,,,switch,letter,lettSwt,d,0.6693,Hi,,,,,,1,,,,,,space,1.2407,low,0,0,0,0,1,,,,,,,,,
297133,2022-10-04_19h25.01.210,vts_reward_expectancy,2022.2.4,MacIntel,60.0024001,Chrome,1440,900,,,,,1,860,,,,,,,,,,,,,,,,,B,125,circle,1,0,,,,,,,,,,,,,,,,repeat,letter,lettRpt,d,0.4668,Lo,,,,,,1,,,,,,,,low,1,0,1,0,1,,,,,,,,,
297133,2022-10-04_19h25.01.210,vts_reward_expectancy,2022.2.4,MacIntel,60.0024001,Chrome,1440,900,,,,,10,870,,,,,,,,,,,,,,,,,Y,132,star,1,0,,,,,,,,,,,,,,,,switch,number,numSwt,j,0.4279,Hi,,,,,,1,,,,,,,,low,2,0,2,0,1,,,,,,,,,
297133,2022-10-04_19h25.01.210,vts_reward_expectancy,2022.2.4,MacIntel,60.0024001,Chrome,1440,900,,,,,0,870,,,,,,,,,,,,,,,,,H,167,circle,0,0,,,,,,,,,,,,,,,,repeat,number,NA,j,0.5146,Hi,,,,,,1,,,,,,,,low,3,0,3,0,1,,,,,,,,,
297133,2022-10-04_19h25.01.210,vts_reward_expectancy,2022.2.4,MacIntel,60.0024001,Chrome,1440,900,,,,,0,870,,,,,,,,,,,,,,,,,W,160,star,1,1,,,,,,,,,,,,,,,,repeat,number,numRpt,k,0.5324,Hi,,,,,,1,,,,,,,,low,4,0,4,0,1,,,,,,,,,
297133,2022-10-04_19h25.01.210,vts_reward_expectancy,2022.2.4,MacIntel,60.0024001,Chrome,1440,900,,,,,1,871,,,,,,,,,,,,,,,,,D,139,circle,1,0,,,,,,,,,,,,,,,,repeat,number,numRpt,j,0.4949,Lo,,,,,,1,,,,,,,,low,5,0,5,0,1,,,,,,,,,
297133,2022-10-04_19h25.01.210,vts_reward_expectancy,2022.2.4,MacIntel,60.0024001,Chrome,1440,900,,,,,0,871,,,,,,,,,,,,,,,,,S,146,star,0,0,,,,,,,,,,,,,,,,repeat,number,NA,k,0.4959,Lo,,,,,,1,,,,,,,,low,6,0,6,0,1,,,,,,,,,
297133,2022-10-04_19h25.01.210,vts_reward_expectancy,2022.2.4,MacIntel,60.0024001,Chrome,1440,900,,,,,10,881,,,,,,,,,,,,,,,,,U,174,circle,1,1,,,,,,,,,,,,,,,,switch,letter,lettSwt,f,0.5022,Lo,,,,,,1,,,,,,,,low,7,0,7,0,1,,,,,,,,,
297133,2022-10-04_19h25.01.210,vts_reward_expectancy,2022.2.4,MacIntel,60.0024001,Chrome,1440,900,,,,,1,882,,,,,,,,,,,,,,,,,F,181,circle,1,0,,,,,,,,,,,,,,,,repeat,letter,lettRpt,d,0.5348,Lo,,,,,,1,,,,,,,,low,8,0,8,0,1,,,,,,,,,
297133,2022-10-04_19h25.01.210,vts_reward_expectancy,2022.2.4,MacIntel,60.0024001,Chrome,1440,900,,,,,0,882,,,,,,,,,,,,,,,,,B,125,star,1,0,,,,,,,,,,,,,,,,repeat,letter,lettRpt,d,0.4582,Hi,,,,,,1,,,,,,,,low,9,0,9,0,1,,,,,,,,,
297133,2022-10-04_19h25.01.210,vts_reward_expectancy,2022.2.4,MacIntel,60.0024001,Chrome,1440,900,,,,,0,882,,,,,,,,,,,,,,,,,Y,132,circle,0,0,,,,,,,,,,,,,,,,repeat,letter,NA,d,0.4223,Hi,,,,,,1,,,,,,,,low,10,0,10,0,1,,,,,,,,,
297133,2022-10-04_19h25.01.210,vts_reward_expectancy,2022.2.4,MacIntel,60.0024001,Chrome,1440,900,,,,,0,882,,,,,,,,,,,,,,,,,H,167,star,0,1,,,,,,,,,,,,,,,,repeat,letter,NA,f,0.4829,Hi,,,,,,1,,,,,,,,low,11,0,11,0,1,,,,,,,,,
297133,2022-10-04_19h25.01.210,vts_reward_expectancy,2022.2.4,MacIntel,60.0024001,Chrome,1440,900,,,,,1,883,,,,,,,,,,,,,,,,,W,160,circle,1,1,,,,,,,,,,,,,,,,switch,number,numSwt,k,0.6458,Lo,,,,,,1,,,,,,,,low,12,0,12,0,1,,,,,,,,,
297133,2022-10-04_19h25.01.210,vts_reward_expectancy,2022.2.4,MacIntel,60.0024001,Chrome,1440,900,,,,,0,883,,,,,,,,,,,,,,,,,D,139,star,1,0,,,,,,,,,,,,,,,,repeat,number,numRpt,j,0.5784,Hi,,,,,,1,,,,,,,,low,13,0,13,0,1,,,,,,,,,
297133,2022-10-04_19h25.01.210,vts_reward_expectancy,2022.2.4,MacIntel,60.0024001,Chrome,1440,900,,,,,1,884,,,,,,,,,,,,,,,,,S,146,circle,1,0,,,,,,,,,,,,,,,,repeat,number,numRpt,j,0.6112,Lo,,,,,,1,,,,,,,,low,14,0,14,0,1,,,,,,,,,
297133,2022-10-04_19h25.01.210,vts_reward_expectancy,2022.2.4,MacIntel,60.0024001,Chrome,1440,900,,,,,0,884,,,,,,,,,,,,,,,,,U,174,star,0,0,,,,,,,,,,,,,,,,repeat,number,NA,j,0.3603,Lo,,,,,,1,,,,,,,,low,15,0,15,0,1,,,,,,,,,
297133,2022-10-04_19h25.01.210,vts_reward_expectancy,2022.2.4,MacIntel,60.0024001,Chrome,1440,900,,,,,10,894,,,,,,,,,,,,,,,,,U,146,circle,1,1,,,,,,,,,,,,,,,,repeat,number,numRpt,j,0.7319,Lo,,,,,,1,,,,,,,,low,16,0,16,0,1,,,,,,,,,
297133,2022-10-04_19h25.01.210,vts_reward_expectancy,2022.2.4,MacIntel,60.0024001,Chrome,1440,900,,,,,0,894,,,,,,,,,,,,,,,,,H,160,star,0,0,,,,,,,,,,,,,,,,switch,letter,NA,f,0.4334,Lo,,,,,,1,,,,,,,,low,17,0,17,0,1,,,,,,,,,
297133,2022-10-04_19h25.01.210,vts_reward_expectancy,2022.2.4,MacIntel,60.0024001,Chrome,1440,900,,,,,10,904,,,,,,,,,,,,,,,,,F,139,circle,1,1,,,,,,,,,,,,,,,,repeat,letter,lettRpt,d,0.4012,Lo,,,,,,1,,,,,,,,low,18,0,18,0,1,,,,,,,,,
297133,2022-10-04_19h25.01.210,vts_reward_expectancy,2022.2.4,MacIntel,60.0024001,Chrome,1440,900,,,,,0,904,,,,,,,,,,,,,,,,,D,132,star,1,0,,,,,,,,,,,,,,,,repeat,letter,lettRpt,d,0.5443,Hi,,,,,,1,,,,,,,,low,19,0,19,0,1,,,,,,,,,
297133,2022-10-04_19h25.01.210,vts_reward_expectancy,2022.2.4,MacIntel,60.0024001,Chrome,1440,900,,,,,0,904,,,,,,,,,,,,,,,,,Y,125,star,0,0,,,,,,,,,,,,,,,,repeat,letter,NA,d,0.3602,Hi,,,,,,1,,,,,,,,low,20,0,20,0,1,,,,,,,,,
297133,2022-10-04_19h25.01.210,vts_reward_expectancy,2022.2.4,MacIntel,60.0024001,Chrome,1440,900,,,,,1,905,,,,,,,,,,,,,,,,,W,181,circle,1,1,,,,,,,,,,,,,,,,repeat,letter,lettRpt,f,0.5314,Lo,,,,,,1,,,,,,,,low,21,0,21,0,1,,,,,,,,,
297133,2022-10-04_19h25.01.210,vts_reward_expectancy,2022.2.4,MacIntel,60.0024001,Chrome,1440,900,,,,,1,906,,,,,,,,,,,,,,,,,B,167,circle,1,0,,,,,,,,,,,,,,,,switch,number,numSwt,k,0.452,Lo,,,,,,1,,,,,,,,low,22,0,22,0,1,,,,,,,,,
297133,2022-10-04_19h25.01.210,vts_reward_expectancy,2022.2.4,MacIntel,60.0024001,Chrome,1440,900,,,,,0,906,,,,,,,,,,,,,,,,,S,174,star,0,0,,,,,,,,,,,,,,,,repeat,number,NA,j,0.4378,Lo,,,,,,1,,,,,,,,low,23,0,23,0,1,,,,,,,,,
297133,2022-10-04_19h25.01.210,vts_reward_expectancy,2022.2.4,MacIntel,60.0024001,Chrome,1440,900,,,,,1,907,,,,,,,,,,,,,,,,,U,174,circle,1,1,,,,,,,,,,,,,,,,repeat,number,numRpt,k,0.4081,Lo,,,,,,1,,,,,,,,low,24,0,24,0,1,,,,,,,,,
297133,2022-10-04_19h25.01.210,vts_reward_expectancy,2022.2.4,MacIntel,60.0024001,Chrome,1440,900,,,,,0,907,,,,,,,,,,,,,,,,,B,139,star,1,0,,,,,,,,,,,,,,,,repeat,number,numRpt,j,0.6376,Hi,,,,,,1,,,,,,,,low,25,0,25,0,1,,,,,,,,,
297133,2022-10-04_19h25.01.210,vts_reward_expectancy,2022.2.4,MacIntel,60.0024001,Chrome,1440,900,,,,,1,908,,,,,,,,,,,,,,,,,W,181,circle,1,0,,,,,,,,,,,,,,,,switch,letter,lettSwt,f,0.518,Lo,,,,,,1,,,,,,,,low,26,0,26,0,1,,,,,,,,,
297133,2022-10-04_19h25.01.210,vts_reward_expectancy,2022.2.4,MacIntel,60.0024001,Chrome,1440,900,,,,,1,909,,,,,,,,,,,,,,,,,H,146,star,1,0,,,,,,,,,,,,,,,,switch,number,numSwt,j,0.4154,Hi,,,,,,1,,,,,,,,low,27,0,27,0,1,,,,,,,,,
297133,2022-10-04_19h25.01.210,vts_reward_expectancy,2022.2.4,MacIntel,60.0024001,Chrome,1440,900,,,,,0,909,,,,,,,,,,,,,,,,,S,167,star,1,0,,,,,,,,,,,,,,,,repeat,number,numRpt,k,0.5324,Hi,,,,,,1,,,,,,,,low,28,0,28,0,1,,,,,,,,,
297133,2022-10-04_19h25.01.210,vts_reward_expectancy,2022.2.4,MacIntel,60.0024001,Chrome,1440,900,,,,,1,910,,,,,,,,,,,,,,,,,Y,132,circle,1,0,,,,,,,,,,,,,,,,switch,letter,lettSwt,f,1.2934,Lo,,,,,,1,,,,,,,,low,29,0,29,0,1,,,,,,,,,
297133,2022-10-04_19h25.01.210,vts_reward_expectancy,2022.2.4,MacIntel,60.0024001,Chrome,1440,900,,,,,0,910,,,,,,,,,,,,,,,,,D,160,star,1,0,,,,,,,,,,,,,,,,repeat,letter,lettRpt,d,0.4587,Hi,,,,,,1,,,,,,,,low,30,0,30,0,1,,,,,,,,,
297133,2022-10-04_19h25.01.210,vts_reward_expectancy,2022.2.4,MacIntel,60.0024001,Chrome,1440,900,,,,,0,910,,,,,,,,,,,,,,,,,F,125,circle,0,0,,,,,,,,,,,,,,,,repeat,letter,NA,f,0.545,Hi,,,,,,1,,,,,,,,low,31,0,31,0,1,,,,,,,,,
297133,2022-10-04_19h25.01.210,vts_reward_expectancy,2022.2.4,MacIntel,60.0024001,Chrome,1440,900,,,,,0,910,,,,,,,,,,,,,,,,,S,174,star,1,1,,,,,,,,,,,,,,,,repeat,letter,lettRpt,f,0.4841,Hi,,,,,,2,,,,,,space,1.1491,low,0,0,0,0,1,,,,,,,,,
297133,2022-10-04_19h25.01.210,vts_reward_expectancy,2022.2.4,MacIntel,60.0024001,Chrome,1440,900,,,,,10,920,,,,,,,,,,,,,,,,,H,132,circle,1,0,,,,,,,,,,,,,,,,repeat,letter,lettRpt,d,0.591,Lo,,,,,,2,,,,,,,,low,1,0,1,0,1,,,,,,,,,
297133,2022-10-04_19h25.01.210,vts_reward_expectancy,2022.2.4,MacIntel,60.0024001,Chrome,1440,900,,,,,0,920,,,,,,,,,,,,,,,,,W,125,star,0,0,,,,,,,,,,,,,,,,repeat,letter,NA,d,0.4196,Lo,,,,,,2,,,,,,,,low,2,0,2,0,1,,,,,,,,,
297133,2022-10-04_19h25.01.210,vts_reward_expectancy,2022.2.4,MacIntel,60.0024001,Chrome,1440,900,,,,,10,930,,,,,,,,,,,,,,,,,U,181,circle,1,1,,,,,,,,,,,,,,,,switch,number,numSwt,k,0.4432,Lo,,,,,,2,,,,,,,,low,3,0,3,0,1,,,,,,,,,
297133,2022-10-04_19h25.01.210,vts_reward_expectancy,2022.2.4,MacIntel,60.0024001,Chrome,1440,900,,,,,1,931,,,,,,,,,,,,,,,,,F,139,circle,1,0,,,,,,,,,,,,,,,,repeat,number,numRpt,j,0.5337,Lo,,,,,,2,,,,,,,,low,4,0,4,0,1,,,,,,,,,
297133,2022-10-04_19h25.01.210,vts_reward_expectancy,2022.2.4,MacIntel,60.0024001,Chrome,1440,900,,,,,0,931,,,,,,,,,,,,,,,,,Y,146,star,1,0,,,,,,,,,,,,,,,,switch,letter,lettSwt,f,0.526,Hi,,,,,,2,,,,,,,,low,5,0,5,0,1,,,,,,,,,
297133,2022-10-04_19h25.01.210,vts_reward_expectancy,2022.2.4,MacIntel,60.0024001,Chrome,1440,900,,,,,10,941,,,,,,,,,,,,,,,,,D,160,circle,1,0,,,,,,,,,,,,,,,,repeat,letter,lettRpt,d,0.4134,Lo,,,,,,2,,,,,,,,low,6,0,6,0,1,,,,,,,,,
297133,2022-10-04_19h25.01.210,vts_reward_expectancy,2022.2.4,MacIntel,60.0024001,Chrome,1440,900,,,,,10,951,,,,,,,,,,,,,,,,,B,167,star,1,0,,,,,,,,,,,,,,,,switch,number,numSwt,k,0.4208,Hi,,,,,,2,,,,,,,,low,7,0,7,0,1,,,,,,,,,
297133,2022-10-04_19h25.01.210,vts_reward_expectancy,2022.2.4,MacIntel,60.0024001,Chrome,1440,900,,,,,1,952,,,,,,,,,,,,,,,,,S,174,circle,1,0,,,,,,,,,,,,,,,,repeat,number,numRpt,k,0.5392,Lo,,,,,,2,,,,,,,,low,8,0,8,0,1,,,,,,,,,
297133,2022-10-04_19h25.01.210,vts_reward_expectancy,2022.2.4,MacIntel,60.0024001,Chrome,1440,900,,,,,10,962,,,,,,,,,,,,,,,,,H,132,star,1,0,,,,,,,,,,,,,,,,switch,letter,lettSwt,d,0.5026,Hi,,,,,,2,,,,,,,,low,9,0,9,0,1,,,,,,,,,
297133,2022-10-04_19h25.01.210,vts_reward_expectancy,2022.2.4,MacIntel,60.0024001,Chrome,1440,900,,,,,10,972,,,,,,,,,,,,,,,,,W,125,circle,1,0,,,,,,,,,,,,,,,,repeat,letter,lettRpt,f,0.5122,Lo,,,,,,2,,,,,,,,low,10,0,10,0,1,,,,,,,,,
297133,2022-10-04_19h25.01.210,vts_reward_expectancy,2022.2.4,MacIntel,60.0024001,Chrome,1440,900,,,,,0,972,,,,,,,,,,,,,,,,,U,181,star,0,0,,,,,,,,,,,,,,,,repeat,letter,NA,d,0.4625,Lo,,,,,,2,,,,,,,,low,11,0,11,0,1,,,,,,,,,
297133,2022-10-04_19h25.01.210,vts_reward_expectancy,2022.2.4,MacIntel,60.0024001,Chrome,1440,900,,,,,0,972,,,,,,,,,,,,,,,,,F,139,star,1,1,,,,,,,,,,,,,,,,switch,number,numSwt,j,0.5373,Hi,,,,,,2,,,,,,,,low,12,0,12,0,1,,,,,,,,,
297133,2022-10-04_19h25.01.210,vts_reward_expectancy,2022.2.4,MacIntel,60.0024001,Chrome,1440,900,,,,,10,982,,,,,,,,,,,,,,,,,Y,146,circle,1,0,,,,,,,,,,,,,,,,repeat,number,numRpt,j,0.4283,Lo,,,,,,2,,,,,,,,low,13,0,13,0,1,,,,,,,,,
297133,2022-10-04_19h25.01.210,vts_reward_expectancy,2022.2.4,MacIntel,60.0024001,Chrome,1440,900,,,,,10,992,,,,,,,,,,,,,,,,,D,160,star,1,0,,,,,,,,,,,,,,,,repeat,number,numRpt,k,0.531,Hi,,,,,,2,,,,,,,,low,14,0,14,0,1,,,,,,,,,
297133,2022-10-04_19h25.01.210,vts_reward_expectancy,2022.2.4,MacIntel,60.0024001,Chrome,1440,900,,,,,1,993,,,,,,,,,,,,,,,,,B,167,circle,1,0,,,,,,,,,,,,,,,,repeat,number,numRpt,k,0.3966,Lo,,,,,,2,,,,,,,,low,15,0,15,0,1,,,,,,,,,
297133,2022-10-04_19h25.01.210,vts_reward_expectancy,2022.2.4,MacIntel,60.0024001,Chrome,1440,900,,,,,0,993,,,,,,,,,,,,,,,,,H,132,star,0,0,,,,,,,,,,,,,,,,switch,letter,NA,f,0.4816,Lo,,,,,,2,,,,,,,,low,16,0,16,0,1,,,,,,,,,
297133,2022-10-04_19h25.01.210,vts_reward_expectancy,2022.2.4,MacIntel,60.0024001,Chrome,1440,900,,,,,1,994,,,,,,,,,,,,,,,,,S,174,circle,1,1,,,,,,,,,,,,,,,,switch,number,numSwt,k,0.4203,Lo,,,,,,2,,,,,,,,low,17,0,17,0,1,,,,,,,,,
297133,2022-10-04_19h25.01.210,vts_reward_expectancy,2022.2.4,MacIntel,60.0024001,Chrome,1440,900,,,,,1,995,,,,,,,,,,,,,,,,,F,160,star,1,0,,,,,,,,,,,,,,,,repeat,number,numRpt,k,0.3809,Hi,,,,,,2,,,,,,,,low,18,0,18,0,1,,,,,,,,,
297133,2022-10-04_19h25.01.210,vts_reward_expectancy,2022.2.4,MacIntel,60.0024001,Chrome,1440,900,,,,,1,996,,,,,,,,,,,,,,,,,D,125,circle,1,0,,,,,,,,,,,,,,,,repeat,number,numRpt,j,0.526,Lo,,,,,,2,,,,,,,,low,19,0,19,0,1,,,,,,,,,
297133,2022-10-04_19h25.01.210,vts_reward_expectancy,2022.2.4,MacIntel,60.0024001,Chrome,1440,900,,,,,1,997,,,,,,,,,,,,,,,,,B,181,star,1,0,,,,,,,,,,,,,,,,switch,letter,lettSwt,d,0.4854,Hi,,,,,,2,,,,,,,,low,20,0,20,0,1,,,,,,,,,
297133,2022-10-04_19h25.01.210,vts_reward_expectancy,2022.2.4,MacIntel,60.0024001,Chrome,1440,900,,,,,10,1007,,,,,,,,,,,,,,,,,W,167,circle,1,0,,,,,,,,,,,,,,,,repeat,letter,lettRpt,f,0.4132,Lo,,,,,,2,,,,,,,,low,21,0,21,0,1,,,,,,,,,
297133,2022-10-04_19h25.01.210,vts_reward_expectancy,2022.2.4,MacIntel,60.0024001,Chrome,1440,900,,,,,10,1017,,,,,,,,,,,,,,,,,Y,139,star,1,0,,,,,,,,,,,,,,,,repeat,letter,lettRpt,f,0.4466,Hi,,,,,,2,,,,,,,,low,22,0,22,0,1,,,,,,,,,
297133,2022-10-04_19h25.01.210,vts_reward_expectancy,2022.2.4,MacIntel,60.0024001,Chrome,1440,900,,,,,1,1018,,,,,,,,,,,,,,,,,U,146,circle,1,0,,,,,,,,,,,,,,,,repeat,letter,lettRpt,f,0.5334,Lo,,,,,,2,,,,,,,,low,23,0,23,0,1,,,,,,,,,
297133,2022-10-04_19h25.01.210,vts_reward_expectancy,2022.2.4,MacIntel,60.0024001,Chrome,1440,900,,,,,0,1018,,,,,,,,,,,,,,,,,W,160,star,1,0,,,,,,,,,,,,,,,,switch,number,numSwt,k,0.5391,Hi,,,,,,2,,,,,,,,low,24,0,24,0,1,,,,,,,,,
297133,2022-10-04_19h25.01.210,vts_reward_expectancy,2022.2.4,MacIntel,60.0024001,Chrome,1440,900,,,,,0,1018,,,,,,,,,,,,,,,,,S,146,circle,0,0,,,,,,,,,,,,,,,,repeat,number,NA,k,0.4005,Hi,,,,,,2,,,,,,,,low,25,0,25,0,1,,,,,,,,,
297133,2022-10-04_19h25.01.210,vts_reward_expectancy,2022.2.4,MacIntel,60.0024001,Chrome,1440,900,,,,,0,1018,,,,,,,,,,,,,,,,,B,181,circle,0,1,,,,,,,,,,,,,,,,switch,letter,NA,f,0.542,Hi,,,,,,2,,,,,,,,low,26,0,26,0,1,,,,,,,,,
297133,2022-10-04_19h25.01.210,vts_reward_expectancy,2022.2.4,MacIntel,60.0024001,Chrome,1440,900,,,,,0,1018,,,,,,,,,,,,,,,,,F,125,star,1,1,,,,,,,,,,,,,,,,repeat,letter,lettRpt,d,0.593,Hi,,,,,,2,,,,,,,,low,27,0,27,0,1,,,,,,,,,
297133,2022-10-04_19h25.01.210,vts_reward_expectancy,2022.2.4,MacIntel,60.0024001,Chrome,1440,900,,,,,0,1018,,,,,,,,,,,,,,,,,U,174,star,1,0,,,,,,,,,,,,,,,,switch,number,numSwt,k,0.4472,Hi,,,,,,2,,,,,,,,low,28,0,28,0,1,,,,,,,,,
297133,2022-10-04_19h25.01.210,vts_reward_expectancy,2022.2.4,MacIntel,60.0024001,Chrome,1440,900,,,,,10,1028,,,,,,,,,,,,,,,,,Y,167,circle,1,0,,,,,,,,,,,,,,,,repeat,number,numRpt,k,0.3928,Lo,,,,,,2,,,,,,,,low,29,0,29,0,1,,,,,,,,,
297133,2022-10-04_19h25.01.210,vts_reward_expectancy,2022.2.4,MacIntel,60.0024001,Chrome,1440,900,,,,,0,1028,,,,,,,,,,,,,,,,,H,139,star,0,0,,,,,,,,,,,,,,,,switch,letter,NA,f,0.4335,Lo,,,,,,2,,,,,,,,low,30,0,30,0,1,,,,,,,,,
297133,2022-10-04_19h25.01.210,vts_reward_expectancy,2022.2.4,MacIntel,60.0024001,Chrome,1440,900,,,,,1,1029,,,,,,,,,,,,,,,,,D,132,circle,1,1,,,,,,,,,,,,,,,,repeat,letter,lettRpt,d,0.3378,Lo,,,,,,2,,,,,,,,low,31,0,31,0,1,,,,,,,,,
297133,2022-10-04_19h25.01.210,vts_reward_expectancy,2022.2.4,MacIntel,60.0024001,Chrome,1440,900,,,,,1,1030,,,,,,,,,,,,,,,,,S,160,triangle,1,0,,,,,,,,,,,,,,,,repeat,letter,lettRpt,f,0.6442,Lo,,,,,,3,,,,,,space,3.7048,high,0,0,0,0,1,,,,,,,,,
297133,2022-10-04_19h25.01.210,vts_reward_expectancy,2022.2.4,MacIntel,60.0024001,Chrome,1440,900,,,,,10,1040,,,,,,,,,,,,,,,,,Y,167,hexagon,1,0,,,,,,,,,,,,,,,,switch,number,numSwt,k,0.3823,Hi,,,,,,3,,,,,,,,high,1,0,1,0,1,,,,,,,,,
297133,2022-10-04_19h25.01.210,vts_reward_expectancy,2022.2.4,MacIntel,60.0024001,Chrome,1440,900,,,,,0,1040,,,,,,,,,,,,,,,,,F,181,triangle,0,0,,,,,,,,,,,,,,,,switch,letter,NA,f,0.4196,Hi,,,,,,3,,,,,,,,high,2,0,2,0,1,,,,,,,,,
297133,2022-10-04_19h25.01.210,vts_reward_expectancy,2022.2.4,MacIntel,60.0024001,Chrome,1440,900,,,,,0,1040,,,,,,,,,,,,,,,,,U,139,hexagon,1,1,,,,,,,,,,,,,,,,switch,number,numSwt,j,2.6372,Hi,,,,,,3,,,,,,,,high,3,0,3,0,1,,,,,,,,,
297133,2022-10-04_19h25.01.210,vts_reward_expectancy,2022.2.4,MacIntel,60.0024001,Chrome,1440,900,,,,,10,1050,,,,,,,,,,,,,,,,,W,125,triangle,1,0,,,,,,,,,,,,,,,,repeat,number,numRpt,j,0.4687,Lo,,,,,,3,,,,,,,,high,4,0,4,0,1,,,,,,,,,
297133,2022-10-04_19h25.01.210,vts_reward_expectancy,2022.2.4,MacIntel,60.0024001,Chrome,1440,900,,,,,10,1060,,,,,,,,,,,,,,,,,B,146,hexagon,1,0,,,,,,,,,,,,,,,,switch,letter,lettSwt,d,0.455,Hi,,,,,,3,,,,,,,,high,5,0,5,0,1,,,,,,,,,
297133,2022-10-04_19h25.01.210,vts_reward_expectancy,2022.2.4,MacIntel,60.0024001,Chrome,1440,900,,,,,1,1061,,,,,,,,,,,,,,,,,D,132,triangle,1,0,,,,,,,,,,,,,,,,repeat,letter,lettRpt,d,0.3909,Lo,,,,,,3,,,,,,,,high,6,0,6,0,1,,,,,,,,,
297133,2022-10-04_19h25.01.210,vts_reward_expectancy,2022.2.4,MacIntel,60.0024001,Chrome,1440,900,,,,,0,1061,,,,,,,,,,,,,,,,,H,174,hexagon,1,0,,,,,,,,,,,,,,,,repeat,letter,lettRpt,d,0.4441,Hi,,,,,,3,,,,,,,,high,7,0,7,0,1,,,,,,,,,
297133,2022-10-04_19h25.01.210,vts_reward_expectancy,2022.2.4,MacIntel,60.0024001,Chrome,1440,900,,,,,0,1061,,,,,,,,,,,,,,,,,S,160,triangle,0,0,,,,,,,,,,,,,,,,switch,number,NA,j,0.4203,Hi,,,,,,3,,,,,,,,high,8,0,8,0,1,,,,,,,,,
297133,2022-10-04_19h25.01.210,vts_reward_expectancy,2022.2.4,MacIntel,60.0024001,Chrome,1440,900,,,,,10,1071,,,,,,,,,,,,,,,,,Y,167,hexagon,1,1,,,,,,,,,,,,,,,,repeat,number,numRpt,k,0.3625,Hi,,,,,,3,,,,,,,,high,9,0,9,0,1,,,,,,,,,
297133,2022-10-04_19h25.01.210,vts_reward_expectancy,2022.2.4,MacIntel,60.0024001,Chrome,1440,900,,,,,1,1072,,,,,,,,,,,,,,,,,F,181,triangle,1,0,,,,,,,,,,,,,,,,repeat,number,numRpt,k,0.4123,Lo,,,,,,3,,,,,,,,high,10,0,10,0,1,,,,,,,,,
297133,2022-10-04_19h25.01.210,vts_reward_expectancy,2022.2.4,MacIntel,60.0024001,Chrome,1440,900,,,,,10,1082,,,,,,,,,,,,,,,,,U,139,hexagon,1,0,,,,,,,,,,,,,,,,switch,letter,lettSwt,f,0.479,Hi,,,,,,3,,,,,,,,high,11,0,11,0,1,,,,,,,,,
297133,2022-10-04_19h25.01.210,vts_reward_expectancy,2022.2.4,MacIntel,60.0024001,Chrome,1440,900,,,,,0,1082,,,,,,,,,,,,,,,,,W,125,hexagon,0,0,,,,,,,,,,,,,,,,switch,number,NA,k,0.4094,Hi,,,,,,3,,,,,,,,high,12,0,12,0,1,,,,,,,,,
297133,2022-10-04_19h25.01.210,vts_reward_expectancy,2022.2.4,MacIntel,60.0024001,Chrome,1440,900,,,,,1,1083,,,,,,,,,,,,,,,,,B,146,triangle,1,1,,,,,,,,,,,,,,,,switch,letter,lettSwt,d,0.4812,Lo,,,,,,3,,,,,,,,high,13,0,13,0,1,,,,,,,,,
297133,2022-10-04_19h25.01.210,vts_reward_expectancy,2022.2.4,MacIntel,60.0024001,Chrome,1440,900,,,,,0,1083,,,,,,,,,,,,,,,,,D,132,hexagon,0,0,,,,,,,,,,,,,,,,repeat,letter,NA,f,0.4364,Lo,,,,,,3,,,,,,,,high,14,0,14,0,1,,,,,,,,,
297133,2022-10-04_19h25.01.210,vts_reward_expectancy,2022.2.4,MacIntel,60.0024001,Chrome,1440,900,,,,,10,1093,,,,,,,,,,,,,,,,,H,174,triangle,1,1,,,,,,,,,,,,,,,,repeat,letter,lettRpt,d,0.2458,Lo,,,,,,3,,,,,,,,high,15,0,15,0,1,,,,,,,,,
297133,2022-10-04_19h25.01.210,vts_reward_expectancy,2022.2.4,MacIntel,60.0024001,Chrome,1440,900,,,,,0,1093,,,,,,,,,,,,,,,,,W,160,triangle,0,0,,,,,,,,,,,,,,,,repeat,letter,NA,d,0.4695,Lo,,,,,,3,,,,,,,,high,16,0,16,0,1,,,,,,,,,
297133,2022-10-04_19h25.01.210,vts_reward_expectancy,2022.2.4,MacIntel,60.0024001,Chrome,1440,900,,,,,0,1093,,,,,,,,,,,,,,,,,F,139,hexagon,0,1,,,,,,,,,,,,,,,,switch,number,NA,k,0.4346,Lo,,,,,,3,,,,,,,,high,17,0,17,0,1,,,,,,,,,
297133,2022-10-04_19h25.01.210,vts_reward_expectancy,2022.2.4,MacIntel,60.0024001,Chrome,1440,900,,,,,1,1094,,,,,,,,,,,,,,,,,Y,174,triangle,1,1,,,,,,,,,,,,,,,,repeat,number,numRpt,k,0.4412,Lo,,,,,,3,,,,,,,,high,18,0,18,0,1,,,,,,,,,
297133,2022-10-04_19h25.01.210,vts_reward_expectancy,2022.2.4,MacIntel,60.0024001,Chrome,1440,900,,,,,10,1104,,,,,,,,,,,,,,,,,B,125,hexagon,1,0,,,,,,,,,,,,,,,,repeat,number,numRpt,j,0.3417,Hi,,,,,,3,,,,,,,,high,19,0,19,0,1,,,,,,,,,
297133,2022-10-04_19h25.01.210,vts_reward_expectancy,2022.2.4,MacIntel,60.0024001,Chrome,1440,900,,,,,10,1114,,,,,,,,,,,,,,,,,D,146,triangle,1,0,,,,,,,,,,,,,,,,switch,letter,lettSwt,d,0.5046,Lo,,,,,,3,,,,,,,,high,20,0,20,0,1,,,,,,,,,
297133,2022-10-04_19h25.01.210,vts_reward_expectancy,2022.2.4,MacIntel,60.0024001,Chrome,1440,900,,,,,0,1114,,,,,,,,,,,,,,,,,U,181,hexagon,1,0,,,,,,,,,,,,,,,,repeat,letter,lettRpt,f,0.6345,Hi,,,,,,3,,,,,,,,high,21,0,21,0,1,,,,,,,,,
297133,2022-10-04_19h25.01.210,vts_reward_expectancy,2022.2.4,MacIntel,60.0024001,Chrome,1440,900,,,,,1,1115,,,,,,,,,,,,,,,,,H,132,hexagon,1,0,,,,,,,,,,,,,,,,repeat,letter,lettRpt,d,0.4114,Hi,,,,,,3,,,,,,,,high,22,0,22,0,1,,,,,,,,,
297133,2022-10-04_19h25.01.210,vts_reward_expectancy,2022.2.4,MacIntel,60.0024001,Chrome,1440,900,,,,,10,1125,,,,,,,,,,,,,,,,,S,167,triangle,1,0,,,,,,,,,,,,,,,,switch,number,numSwt,k,0.5142,Lo,,,,,,3,,,,,,,,high,23,0,23,0,1,,,,,,,,,
297133,2022-10-04_19h25.01.210,vts_reward_expectancy,2022.2.4,MacIntel,60.0024001,Chrome,1440,900,,,,,0,1125,,,,,,,,,,,,,,,,,U,174,hexagon,0,0,,,,,,,,,,,,,,,,repeat,number,NA,j,0.4123,Lo,,,,,,3,,,,,,,,high,24,0,24,0,1,,,,,,,,,
297133,2022-10-04_19h25.01.210,vts_reward_expectancy,2022.2.4,MacIntel,60.0024001,Chrome,1440,900,,,,,1,1126,,,,,,,,,,,,,,,,,Y,132,triangle,1,1,,,,,,,,,,,,,,,,repeat,number,numRpt,j,0.5351,Lo,,,,,,3,,,,,,,,high,25,0,25,0,1,,,,,,,,,
297133,2022-10-04_19h25.01.210,vts_reward_expectancy,2022.2.4,MacIntel,60.0024001,Chrome,1440,900,,,,,0,1126,,,,,,,,,,,,,,,,,H,160,triangle,0,0,,,,,,,,,,,,,,,,switch,letter,NA,f,0.3917,Lo,,,,,,3,,,,,,,,high,26,0,26,0,1,,,,,,,,,
297133,2022-10-04_19h25.01.210,vts_reward_expectancy,2022.2.4,MacIntel,60.0024001,Chrome,1440,900,,,,,0,1126,,,,,,,,,,,,,,,,,B,139,hexagon,1,1,,,,,,,,,,,,,,,,repeat,letter,lettRpt,d,0.4452,Hi,,,,,,3,,,,,,,,high,27,0,27,0,1,,,,,,,,,
297133,2022-10-04_19h25.01.210,vts_reward_expectancy,2022.2.4,MacIntel,60.0024001,Chrome,1440,900,,,,,0,1126,,,,,,,,,,,,,,,,,W,167,triangle,0,0,,,,,,,,,,,,,,,,repeat,letter,NA,d,0.5125,Hi,,,,,,3,,,,,,,,high,28,0,28,0,1,,,,,,,,,
297133,2022-10-04_19h25.01.210,vts_reward_expectancy,2022.2.4,MacIntel,60.0024001,Chrome,1440,900,,,,,0,1126,,,,,,,,,,,,,,,,,S,125,hexagon,0,1,,,,,,,,,,,,,,,,repeat,letter,NA,d,0.3914,Hi,,,,,,3,,,,,,,,high,29,0,29,0,1,,,,,,,,,
297133,2022-10-04_19h25.01.210,vts_reward_expectancy,2022.2.4,MacIntel,60.0024001,Chrome,1440,900,,,,,0,1126,,,,,,,,,,,,,,,,,F,146,hexagon,1,1,,,,,,,,,,,,,,,,repeat,letter,lettRpt,d,0.4438,Hi,,,,,,3,,,,,,,,high,30,0,30,0,1,,,,,,,,,
297133,2022-10-04_19h25.01.210,vts_reward_expectancy,2022.2.4,MacIntel,60.0024001,Chrome,1440,900,,,,,1,1127,,,,,,,,,,,,,,,,,D,181,triangle,1,0,,,,,,,,,,,,,,,,switch,number,numSwt,k,0.4586,Lo,,,,,,3,,,,,,,,high,31,0,31,0,1,,,,,,,,,
297133,2022-10-04_19h25.01.210,vts_reward_expectancy,2022.2.4,MacIntel,60.0024001,Chrome,1440,900,,,,,1,1128,,,,,,,,,,,,,,,,,D,160,circle,1,0,,,,,,,,,,,,,,,,repeat,number,numRpt,k,0.4219,Lo,,,,,,4,,,,,,space,0.7052,low,0,0,0,0,1,,,,,,,,,
297133,2022-10-04_19h25.01.210,vts_reward_expectancy,2022.2.4,MacIntel,60.0024001,Chrome,1440,900,,,,,0,1128,,,,,,,,,,,,,,,,,U,174,star,1,0,,,,,,,,,,,,,,,,repeat,number,numRpt,k,0.5322,Hi,,,,,,4,,,,,,,,low,1,0,1,0,1,,,,,,,,,
297133,2022-10-04_19h25.01.210,vts_reward_expectancy,2022.2.4,MacIntel,60.0024001,Chrome,1440,900,,,,,1,1129,,,,,,,,,,,,,,,,,S,125,circle,1,0,,,,,,,,,,,,,,,,switch,letter,lettSwt,f,0.5638,Lo,,,,,,4,,,,,,,,low,2,0,2,0,1,,,,,,,,,
297133,2022-10-04_19h25.01.210,vts_reward_expectancy,2022.2.4,MacIntel,60.0024001,Chrome,1440,900,,,,,0,1129,,,,,,,,,,,,,,,,,F,181,star,1,0,,,,,,,,,,,,,,,,repeat,letter,lettRpt,d,0.5397,Hi,,,,,,4,,,,,,,,low,3,0,3,0,1,,,,,,,,,
297133,2022-10-04_19h25.01.210,vts_reward_expectancy,2022.2.4,MacIntel,60.0024001,Chrome,1440,900,,,,,0,1129,,,,,,,,,,,,,,,,,B,146,star,1,0,,,,,,,,,,,,,,,,switch,number,numSwt,j,0.6291,Hi,,,,,,4,,,,,,,,low,4,0,4,0,1,,,,,,,,,
297133,2022-10-04_19h25.01.210,vts_reward_expectancy,2022.2.4,MacIntel,60.0024001,Chrome,1440,900,,,,,1,1130,,,,,,,,,,,,,,,,,H,167,circle,1,0,,,,,,,,,,,,,,,,repeat,number,numRpt,k,0.3938,Lo,,,,,,4,,,,,,,,low,5,0,5,0,1,,,,,,,,,
297133,2022-10-04_19h25.01.210,vts_reward_expectancy,2022.2.4,MacIntel,60.0024001,Chrome,1440,900,,,,,10,1140,,,,,,,,,,,,,,,,,W,139,circle,1,0,,,,,,,,,,,,,,,,repeat,number,numRpt,j,0.4848,Lo,,,,,,4,,,,,,,,low,6,0,6,0,1,,,,,,,,,
297133,2022-10-04_19h25.01.210,vts_reward_expectancy,2022.2.4,MacIntel,60.0024001,Chrome,1440,900,,,,,0,1140,,,,,,,,,,,,,,,,,Y,132,star,1,0,,,,,,,,,,,,,,,,repeat,number,numRpt,j,0.4654,Hi,,,,,,4,,,,,,,,low,7,0,7,0,1,,,,,,,,,
297133,2022-10-04_19h25.01.210,vts_reward_expectancy,2022.2.4,MacIntel,60.0024001,Chrome,1440,900,,,,,1,1141,,,,,,,,,,,,,,,,,D,160,circle,1,0,,,,,,,,,,,,,,,,switch,letter,lettSwt,d,0.5329,Lo,,,,,,4,,,,,,,,low,8,0,8,0,1,,,,,,,,,
297133,2022-10-04_19h25.01.210,vts_reward_expectancy,2022.2.4,MacIntel,60.0024001,Chrome,1440,900,,,,,0,1141,,,,,,,,,,,,,,,,,U,174,star,0,0,,,,,,,,,,,,,,,,repeat,letter,NA,d,0.3464,Lo,,,,,,4,,,,,,,,low,9,0,9,0,1,,,,,,,,,
297133,2022-10-04_19h25.01.210,vts_reward_expectancy,2022.2.4,MacIntel,60.0024001,Chrome,1440,900,,,,,0,1141,,,,,,,,,,,,,,,,,S,125,star,1,1,,,,,,,,,,,,,,,,repeat,letter,lettRpt,f,0.5085,Hi,,,,,,4,,,,,,,,low,10,0,10,0,1,,,,,,,,,
297133,2022-10-04_19h25.01.210,vts_reward_expectancy,2022.2.4,MacIntel,60.0024001,Chrome,1440,900,,,,,1,1142,,,,,,,,,,,,,,,,,F,181,circle,1,0,,,,,,,,,,,,,,,,switch,number,numSwt,k,0.3937,Lo,,,,,,4,,,,,,,,low,11,0,11,0,1,,,,,,,,,
297133,2022-10-04_19h25.01.210,vts_reward_expectancy,2022.2.4,MacIntel,60.0024001,Chrome,1440,900,,,,,10,1152,,,,,,,,,,,,,,,,,B,146,circle,1,0,,,,,,,,,,,,,,,,repeat,number,numRpt,j,0.4131,Lo,,,,,,4,,,,,,,,low,12,0,12,0,1,,,,,,,,,
297133,2022-10-04_19h25.01.210,vts_reward_expectancy,2022.2.4,MacIntel,60.0024001,Chrome,1440,900,,,,,0,1152,,,,,,,,,,,,,,,,,H,167,star,1,0,,,,,,,,,,,,,,,,switch,letter,lettSwt,d,0.5099,Hi,,,,,,4,,,,,,,,low,13,0,13,0,1,,,,,,,,,
297133,2022-10-04_19h25.01.210,vts_reward_expectancy,2022.2.4,MacIntel,60.0024001,Chrome,1440,900,,,,,0,1152,,,,,,,,,,,,,,,,,W,139,star,0,0,,,,,,,,,,,,,,,,repeat,letter,NA,d,0.3561,Hi,,,,,,4,,,,,,,,low,14,0,14,0,1,,,,,,,,,
297133,2022-10-04_19h25.01.210,vts_reward_expectancy,2022.2.4,MacIntel,60.0024001,Chrome,1440,900,,,,,10,1162,,,,,,,,,,,,,,,,,Y,132,circle,1,1,,,,,,,,,,,,,,,,repeat,letter,lettRpt,f,0.6274,Lo,,,,,,4,,,,,,,,low,15,0,15,0,1,,,,,,,,,
297133,2022-10-04_19h25.01.210,vts_reward_expectancy,2022.2.4,MacIntel,60.0024001,Chrome,1440,900,,,,,0,1162,,,,,,,,,,,,,,,,,U,174,circle,0,0,,,,,,,,,,,,,,,,repeat,letter,NA,d,0.47,Lo,,,,,,4,,,,,,,,low,16,0,16,0,1,,,,,,,,,
297133,2022-10-04_19h25.01.210,vts_reward_expectancy,2022.2.4,MacIntel,60.0024001,Chrome,1440,900,,,,,0,1162,,,,,,,,,,,,,,,,,H,146,star,1,1,,,,,,,,,,,,,,,,repeat,letter,lettRpt,d,0.5355,Hi,,,,,,4,,,,,,,,low,17,0,17,0,1,,,,,,,,,
297133,2022-10-04_19h25.01.210,vts_reward_expectancy,2022.2.4,MacIntel,60.0024001,Chrome,1440,900,,,,,0,1162,,,,,,,,,,,,,,,,,F,167,circle,0,0,,,,,,,,,,,,,,,,repeat,letter,NA,f,0.3853,Hi,,,,,,4,,,,,,,,low,18,0,18,0,1,,,,,,,,,
297133,2022-10-04_19h25.01.210,vts_reward_expectancy,2022.2.4,MacIntel,60.0024001,Chrome,1440,900,,,,,0,1162,,,,,,,,,,,,,,,,,B,181,star,1,1,,,,,,,,,,,,,,,,repeat,letter,lettRpt,d,0.4422,Hi,,,,,,4,,,,,,,,low,19,0,19,0,1,,,,,,,,,
297133,2022-10-04_19h25.01.210,vts_reward_expectancy,2022.2.4,MacIntel,60.0024001,Chrome,1440,900,,,,,10,1172,,,,,,,,,,,,,,,,,W,160,circle,1,0,,,,,,,,,,,,,,,,switch,number,numSwt,k,0.5119,Lo,,,,,,4,,,,,,,,low,20,0,20,0,1,,,,,,,,,
297133,2022-10-04_19h25.01.210,vts_reward_expectancy,2022.2.4,MacIntel,60.0024001,Chrome,1440,900,,,,,0,1172,,,,,,,,,,,,,,,,,S,132,star,1,0,,,,,,,,,,,,,,,,repeat,number,numRpt,j,0.4723,Hi,,,,,,4,,,,,,,,low,21,0,21,0,1,,,,,,,,,
297133,2022-10-04_19h25.01.210,vts_reward_expectancy,2022.2.4,MacIntel,60.0024001,Chrome,1440,900,,,,,0,1172,,,,,,,,,,,,,,,,,D,125,circle,0,0,,,,,,,,,,,,,,,,switch,letter,NA,f,0.4886,Hi,,,,,,4,,,,,,,,low,22,0,22,0,1,,,,,,,,,
297133,2022-10-04_19h25.01.210,vts_reward_expectancy,2022.2.4,MacIntel,60.0024001,Chrome,1440,900,,,,,0,1172,,,,,,,,,,,,,,,,,Y,139,star,1,1,,,,,,,,,,,,,,,,repeat,letter,lettRpt,f,0.4826,Hi,,,,,,4,,,,,,,,low,23,0,23,0,1,,,,,,,,,
297133,2022-10-04_19h25.01.210,vts_reward_expectancy,2022.2.4,MacIntel,60.0024001,Chrome,1440,900,,,,,10,1182,,,,,,,,,,,,,,,,,U,160,circle,1,0,,,,,,,,,,,,,,,,switch,number,numSwt,k,0.433,Lo,,,,,,4,,,,,,,,low,24,0,24,0,1,,,,,,,,,
297133,2022-10-04_19h25.01.210,vts_reward_expectancy,2022.2.4,MacIntel,60.0024001,Chrome,1440,900,,,,,0,1182,,,,,,,,,,,,,,,,,H,181,star,1,0,,,,,,,,,,,,,,,,repeat,number,numRpt,k,0.4483,Hi,,,,,,4,,,,,,,,low,25,0,25,0,1,,,,,,,,,
297133,2022-10-04_19h25.01.210,vts_reward_expectancy,2022.2.4,MacIntel,60.0024001,Chrome,1440,900,,,,,0,1182,,,,,,,,,,,,,,,,,B,174,star,1,0,,,,,,,,,,,,,,,,repeat,number,numRpt,k,0.4143,Hi,,,,,,4,,,,,,,,low,26,0,26,0,1,,,,,,,,,
297133,2022-10-04_19h25.01.210,vts_reward_expectancy,2022.2.4,MacIntel,60.0024001,Chrome,1440,900,,,,,1,1183,,,,,,,,,,,,,,,,,D,167,circle,1,0,,,,,,,,,,,,,,,,repeat,number,numRpt,k,0.3977,Lo,,,,,,4,,,,,,,,low,27,0,27,0,1,,,,,,,,,
297133,2022-10-04_19h25.01.210,vts_reward_expectancy,2022.2.4,MacIntel,60.0024001,Chrome,1440,900,,,,,0,1183,,,,,,,,,,,,,,,,,Y,132,star,1,0,,,,,,,,,,,,,,,,repeat,number,numRpt,j,0.4705,Hi,,,,,,4,,,,,,,,low,28,0,28,0,1,,,,,,,,,
297133,2022-10-04_19h25.01.210,vts_reward_expectancy,2022.2.4,MacIntel,60.0024001,Chrome,1440,900,,,,,0,1183,,,,,,,,,,,,,,,,,S,139,circle,0,0,,,,,,,,,,,,,,,,repeat,number,NA,k,0.4287,Hi,,,,,,4,,,,,,,,low,29,0,29,0,1,,,,,,,,,
297133,2022-10-04_19h25.01.210,vts_reward_expectancy,2022.2.4,MacIntel,60.0024001,Chrome,1440,900,,,,,1,1184,,,,,,,,,,,,,,,,,F,146,circle,1,1,,,,,,,,,,,,,,,,switch,letter,lettSwt,d,0.3962,Lo,,,,,,4,,,,,,,,low,30,0,30,0,1,,,,,,,,,
297133,2022-10-04_19h25.01.210,vts_reward_expectancy,2022.2.4,MacIntel,60.0024001,Chrome,1440,900,,,,,0,1184,,,,,,,,,,,,,,,,,W,125,star,0,0,,,,,,,,,,,,,,,,repeat,letter,NA,d,0.5265,Lo,,,,,,4,,,,,,,,low,31,0,31,0,1,,,,,,,,,
297133,2022-10-04_19h25.01.210,vts_reward_expectancy,2022.2.4,MacIntel,60.0024001,Chrome,1440,900,,,,,0,1184,,,,,,,,,,,,,,,,,F,146,hexagon,0,1,,,,,,,,,,,,,,,,repeat,letter,NA,f,0.4478,Lo,,,,,,5,,,,,,space,1.009,high,0,0,0,0,1,,,,,,,,,
297133,2022-10-04_19h25.01.210,vts_reward_expectancy,2022.2.4,MacIntel,60.0024001,Chrome,1440,900,,,,,0,1184,,,,,,,,,,,,,,,,,U,160,triangle,0,1,,,,,,,,,,,,,,,,repeat,letter,NA,d,0.4082,Lo,,,,,,5,,,,,,,,high,1,0,1,0,1,,,,,,,,,
297133,2022-10-04_19h25.01.210,vts_reward_expectancy,2022.2.4,MacIntel,60.0024001,Chrome,1440,900,,,,,1,1185,,,,,,,,,,,,,,,,,D,167,hexagon,1,1,,,,,,,,,,,,,,,,repeat,letter,lettRpt,d,0.4625,Hi,,,,,,5,,,,,,,,high,2,0,2,0,1,,,,,,,,,
297133,2022-10-04_19h25.01.210,vts_reward_expectancy,2022.2.4,MacIntel,60.0024001,Chrome,1440,900,,,,,1,1186,,,,,,,,,,,,,,,,,Y,174,triangle,1,0,,,,,,,,,,,,,,,,repeat,letter,lettRpt,f,0.4697,Lo,,,,,,5,,,,,,,,high,3,0,3,0,1,,,,,,,,,
297133,2022-10-04_19h25.01.210,vts_reward_expectancy,2022.2.4,MacIntel,60.0024001,Chrome,1440,900,,,,,10,1196,,,,,,,,,,,,,,,,,S,132,hexagon,1,0,,,,,,,,,,,,,,,,repeat,letter,lettRpt,f,0.493,Hi,,,,,,5,,,,,,,,high,4,0,4,0,1,,,,,,,,,
297133,2022-10-04_19h25.01.210,vts_reward_expectancy,2022.2.4,MacIntel,60.0024001,Chrome,1440,900,,,,,0,1196,,,,,,,,,,,,,,,,,H,125,triangle,0,0,,,,,,,,,,,,,,,,repeat,letter,NA,f,0.4345,Hi,,,,,,5,,,,,,,,high,5,0,5,0,1,,,,,,,,,
297133,2022-10-04_19h25.01.210,vts_reward_expectancy,2022.2.4,MacIntel,60.0024001,Chrome,1440,900,,,,,1,1197,,,,,,,,,,,,,,,,,W,181,triangle,1,1,,,,,,,,,,,,,,,,switch,number,numSwt,k,0.3922,Lo,,,,,,5,,,,,,,,high,6,0,6,0,1,,,,,,,,,
297133,2022-10-04_19h25.01.210,vts_reward_expectancy,2022.2.4,MacIntel,60.0024001,Chrome,1440,900,,,,,0,1197,,,,,,,,,,,,,,,,,B,139,hexagon,1,0,,,,,,,,,,,,,,,,repeat,number,numRpt,j,0.4202,Hi,,,,,,5,,,,,,,,high,7,0,7,0,1,,,,,,,,,
297133,2022-10-04_19h25.01.210,vts_reward_expectancy,2022.2.4,MacIntel,60.0024001,Chrome,1440,900,,,,,0,1197,,,,,,,,,,,,,,,,,F,146,triangle,0,0,,,,,,,,,,,,,,,,repeat,number,NA,k,0.4438,Hi,,,,,,5,,,,,,,,high,8,0,8,0,1,,,,,,,,,
297133,2022-10-04_19h25.01.210,vts_reward_expectancy,2022.2.4,MacIntel,60.0024001,Chrome,1440,900,,,,,0,1197,,,,,,,,,,,,,,,,,U,160,hexagon,0,1,,,,,,,,,,,,,,,,repeat,number,NA,j,0.3834,Hi,,,,,,5,,,,,,,,high,9,0,9,0,1,,,,,,,,,
297133,2022-10-04_19h25.01.210,vts_reward_expectancy,2022.2.4,MacIntel,60.0024001,Chrome,1440,900,,,,,1,1198,,,,,,,,,,,,,,,,,D,167,triangle,1,1,,,,,,,,,,,,,,,,switch,letter,lettSwt,d,0.4575,Lo,,,,,,5,,,,,,,,high,10,0,10,0,1,,,,,,,,,
297133,2022-10-04_19h25.01.210,vts_reward_expectancy,2022.2.4,MacIntel,60.0024001,Chrome,1440,900,,,,,0,1198,,,,,,,,,,,,,,,,,Y,174,hexagon,0,0,,,,,,,,,,,,,,,,repeat,letter,NA,d,0.4164,Lo,,,,,,5,,,,,,,,high,11,0,11,0,1,,,,,,,,,
297133,2022-10-04_19h25.01.210,vts_reward_expectancy,2022.2.4,MacIntel,60.0024001,Chrome,1440,900,,,,,0,1198,,,,,,,,,,,,,,,,,S,132,hexagon,1,1,,,,,,,,,,,,,,,,repeat,letter,lettRpt,f,0.5111,Hi,,,,,,5,,,,,,,,high,12,0,12,0,1,,,,,,,,,
297133,2022-10-04_19h25.01.210,vts_reward_expectancy,2022.2.4,MacIntel,60.0024001,Chrome,1440,900,,,,,0,1198,,,,,,,,,,,,,,,,,H,125,triangle,0,0,,,,,,,,,,,,,,,,repeat,letter,NA,f,0.4617,Hi,,,,,,5,,,,,,,,high,13,0,13,0,1,,,,,,,,,
297133,2022-10-04_19h25.01.210,vts_reward_expectancy,2022.2.4,MacIntel,60.0024001,Chrome,1440,900,,,,,1,1199,,,,,,,,,,,,,,,,,W,181,triangle,1,1,,,,,,,,,,,,,,,,repeat,letter,lettRpt,f,0.3988,Lo,,,,,,5,,,,,,,,high,14,0,14,0,1,,,,,,,,,
297133,2022-10-04_19h25.01.210,vts_reward_expectancy,2022.2.4,MacIntel,60.0024001,Chrome,1440,900,,,,,0,1199,,,,,,,,,,,,,,,,,B,139,hexagon,1,0,,,,,,,,,,,,,,,,repeat,letter,lettRpt,d,0.5333,Hi,,,,,,5,,,,,,,,high,15,0,15,0,1,,,,,,,,,
297133,2022-10-04_19h25.01.210,vts_reward_expectancy,2022.2.4,MacIntel,60.0024001,Chrome,1440,900,,,,,1,1200,,,,,,,,,,,,,,,,,Y,132,triangle,1,0,,,,,,,,,,,,,,,,repeat,letter,lettRpt,f,0.4645,Lo,,,,,,5,,,,,,,,high,16,0,16,0,1,,,,,,,,,
297133,2022-10-04_19h25.01.210,vts_reward_expectancy,2022.2.4,MacIntel,60.0024001,Chrome,1440,900,,,,,1,1201,,,,,,,,,,,,,,,,,U,181,hexagon,1,0,,,,,,,,,,,,,,,,repeat,letter,lettRpt,f,0.4196,Hi,,,,,,5,,,,,,,,high,17,0,17,0,1,,,,,,,,,
297133,2022-10-04_19h25.01.210,vts_reward_expectancy,2022.2.4,MacIntel,60.0024001,Chrome,1440,900,,,,,1,1202,,,,,,,,,,,,,,,,,S,174,hexagon,1,0,,,,,,,,,,,,,,,,switch,number,numSwt,k,0.4165,Hi,,,,,,5,,,,,,,,high,18,0,18,0,1,,,,,,,,,
297133,2022-10-04_19h25.01.210,vts_reward_expectancy,2022.2.4,MacIntel,60.0024001,Chrome,1440,900,,,,,10,1212,,,,,,,,,,,,,,,,,F,167,triangle,1,0,,,,,,,,,,,,,,,,repeat,number,numRpt,k,0.4441,Lo,,,,,,5,,,,,,,,high,19,0,19,0,1,,,,,,,,,
297133,2022-10-04_19h25.01.210,vts_reward_expectancy,2022.2.4,MacIntel,60.0024001,Chrome,1440,900,,,,,0,1212,,,,,,,,,,,,,,,,,H,125,hexagon,1,0,,,,,,,,,,,,,,,,repeat,number,numRpt,j,0.546,Hi,,,,,,5,,,,,,,,high,20,0,20,0,1,,,,,,,,,
297133,2022-10-04_19h25.01.210,vts_reward_expectancy,2022.2.4,MacIntel,60.0024001,Chrome,1440,900,,,,,1,1213,,,,,,,,,,,,,,,,,W,139,triangle,1,0,,,,,,,,,,,,,,,,repeat,number,numRpt,j,0.3815,Lo,,,,,,5,,,,,,,,high,21,0,21,0,1,,,,,,,,,
297133,2022-10-04_19h25.01.210,vts_reward_expectancy,2022.2.4,MacIntel,60.0024001,Chrome,1440,900,,,,,0,1213,,,,,,,,,,,,,,,,,D,146,hexagon,1,0,,,,,,,,,,,,,,,,switch,letter,lettSwt,d,0.5479,Hi,,,,,,5,,,,,,,,high,22,0,22,0,1,,,,,,,,,
297133,2022-10-04_19h25.01.210,vts_reward_expectancy,2022.2.4,MacIntel,60.0024001,Chrome,1440,900,,,,,1,1214,,,,,,,,,,,,,,,,,B,160,triangle,1,0,,,,,,,,,,,,,,,,repeat,letter,lettRpt,d,0.4159,Lo,,,,,,5,,,,,,,,high,23,0,23,0,1,,,,,,,,,
297133,2022-10-04_19h25.01.210,vts_reward_expectancy,2022.2.4,MacIntel,60.0024001,Chrome,1440,900,,,,,0,1214,,,,,,,,,,,,,,,,,F,139,triangle,0,0,,,,,,,,,,,,,,,,repeat,letter,NA,f,0.3913,Lo,,,,,,5,,,,,,,,high,24,0,24,0,1,,,,,,,,,
297133,2022-10-04_19h25.01.210,vts_reward_expectancy,2022.2.4,MacIntel,60.0024001,Chrome,1440,900,,,,,0,1214,,,,,,,,,,,,,,,,,Y,160,hexagon,0,1,,,,,,,,,,,,,,,,repeat,letter,NA,d,0.4638,Lo,,,,,,5,,,,,,,,high,25,0,25,0,1,,,,,,,,,
297133,2022-10-04_19h25.01.210,vts_reward_expectancy,2022.2.4,MacIntel,60.0024001,Chrome,1440,900,,,,,0,1214,,,,,,,,,,,,,,,,,W,181,hexagon,1,1,,,,,,,,,,,,,,,,switch,number,numSwt,k,0.5667,Hi,,,,,,5,,,,,,,,high,26,0,26,0,1,,,,,,,,,
297133,2022-10-04_19h25.01.210,vts_reward_expectancy,2022.2.4,MacIntel,60.0024001,Chrome,1440,900,,,,,0,1214,,,,,,,,,,,,,,,,,H,146,triangle,0,0,,,,,,,,,,,,,,,,repeat,number,NA,k,0.3771,Hi,,,,,,5,,,,,,,,high,27,0,27,0,1,,,,,,,,,
297133,2022-10-04_19h25.01.210,vts_reward_expectancy,2022.2.4,MacIntel,60.0024001,Chrome,1440,900,,,,,1,1215,,,,,,,,,,,,,,,,,S,174,triangle,1,1,,,,,,,,,,,,,,,,repeat,number,numRpt,k,0.496,Lo,,,,,,5,,,,,,,,high,28,0,28,0,1,,,,,,,,,
297133,2022-10-04_19h25.01.210,vts_reward_expectancy,2022.2.4,MacIntel,60.0024001,Chrome,1440,900,,,,,0,1215,,,,,,,,,,,,,,,,,U,132,hexagon,1,0,,,,,,,,,,,,,,,,repeat,number,numRpt,j,0.5216,Hi,,,,,,5,,,,,,,,high,29,0,29,0,1,,,,,,,,,
297133,2022-10-04_19h25.01.210,vts_reward_expectancy,2022.2.4,MacIntel,60.0024001,Chrome,1440,900,,,,,10,1225,,,,,,,,,,,,,,,,,B,167,triangle,1,0,,,,,,,,,,,,,,,,repeat,number,numRpt,k,0.4803,Lo,,,,,,5,,,,,,,,high,30,0,30,0,1,,,,,,,,,
297133,2022-10-04_19h25.01.210,vts_reward_expectancy,2022.2.4,MacIntel,60.0024001,Chrome,1440,900,,,,,10,1235,,,,,,,,,,,,,,,,,D,125,hexagon,1,0,,,,,,,,,,,,,,,,repeat,number,numRpt,j,0.4033,Hi,,,,,,5,,,,,,,,high,31,0,31,0,1,,,,,,,,,
297133,2022-10-04_19h25.01.210,vts_reward_expectancy,2022.2.4,MacIntel,60.0024001,Chrome,1440,900,,,,,,,,,,,,,,,,,,,,,,,,,,,,,,,,,,,,,,,,,,,,,,,,,,,,,,6,,,,,,,,,,,,,,Choose between options to associate something into a certain category,2,I would choose f as closer to z over and over because my brain saw the f and typed the f key,4,2,1,that was so hard,1440,900
