participant,date,expName,psychopyVersion,OS,frameRate,browser,xResolution,yResolution,key_resp.keys,key_resp.rt,training_resp.keys,training_resp.rt,points_trial,points_cumul,trainBlock,training.thisRepN,training.thisTrialN,training.thisN,training.thisIndex,training.ran,LTriangleOpac,LCircleOpac,LHexagonOpac,LStarOpac,RTriangleOpac,RCircleOpac,RHexagonOpac,RStarOpac,LShape_ID,RShape_ID,curr_topStim,curr_bottStim,curr_shape,acc,E1,target_resp_prac1.keys,pracBlock,task1_prac_trials.thisRepN,task1_prac_trials.thisTrialN,task1_prac_trials.thisN,task1_prac_trials.thisIndex,task1_prac_trials.ran,target_resp_prac1.rt,target_resp_prac2.keys,target_resp_prac2.rt,task2_praac_trials.thisRepN,task2_praac_trials.thisTrialN,task2_praac_trials.thisN,task2_praac_trials.thisIndex,task2_praac_trials.ran,alt,task,condition,target_resp.keys,target_resp.rt,rewCond,vts_practice_trials.thisRepN,vts_practice_trials.thisTrialN,vts_practice_trials.thisN,vts_practice_trials.thisIndex,vts_practice_trials.ran,blockNum,trials_norew.thisRepN,trials_norew.thisTrialN,trials_norew.thisN,trials_norew.thisIndex,trials_norew.ran,key_resp_2.keys,key_resp_2.rt,rewExpect,trials_rew.thisRepN,trials_rew.thisTrialN,trials_rew.thisN,trials_rew.thisIndex,trials_rew.ran,Q1,Q2,Q2_text,Q3,Q4,Q5_text,Q5,xRes,yRes
294367,2022-09-25_21h33.18.984,vts_reward_expectancy,2022.2.4,MacIntel,14.92537313,Safari,1440,900,,,,,,,,,,,,,,,,,,,,,,,,,,,,,,,,,,,,,,,,,,,,,,,,,,,,,,,,,,,,,,,,,,,,,,,,,,,,
294367,2022-09-25_21h33.18.984,vts_reward_expectancy,2022.2.4,MacIntel,14.92537313,Safari,1440,900,space,64.579,,,,,,,,,,,,,,,,,,,,,,,,,,,,,,,,,,,,,,,,,,,,,,,,,,,,,,,,,,,,,,,,,,,,,,,,,,
294367,2022-09-25_21h33.18.984,vts_reward_expectancy,2022.2.4,MacIntel,14.92537313,Safari,1440,900,,,,,,,,,,,,,,,,,,,,,,,,,,,,,,,,,,,,,,,,,,,,,,,,,,,,,,,,,,,,,,,,,,,,,,,,,,,,
294367,2022-09-25_21h33.18.984,vts_reward_expectancy,2022.2.4,MacIntel,14.92537313,Safari,1440,900,,,l,1.665,1,1,0,0,0,0,8,1,0,0,1,0,0,0,0,1,hexagon,star,,,,,,,,,,,,,,,,,,,,,,,,,,,,,,,,,,,,,,,,,,,,,,,,,,,,,,
294367,2022-09-25_21h33.18.984,vts_reward_expectancy,2022.2.4,MacIntel,14.92537313,Safari,1440,900,,,a,0.877,10,11,0,0,1,1,7,1,0,0,1,0,0,1,0,0,hexagon,circle,,,,,,,,,,,,,,,,,,,,,,,,,,,,,,,,,,,,,,,,,,,,,,,,,,,,,,
294367,2022-09-25_21h33.18.984,vts_reward_expectancy,2022.2.4,MacIntel,14.92537313,Safari,1440,900,,,a,0.816,10,21,0,0,2,2,5,1,0,1,0,0,0,0,0,1,circle,star,,,,,,,,,,,,,,,,,,,,,,,,,,,,,,,,,,,,,,,,,,,,,,,,,,,,,,
294367,2022-09-25_21h33.18.984,vts_reward_expectancy,2022.2.4,MacIntel,14.92537313,Safari,1440,900,,,a,1.227,10,31,0,0,3,3,3,1,0,1,0,0,1,0,0,0,circle,triangle,,,,,,,,,,,,,,,,,,,,,,,,,,,,,,,,,,,,,,,,,,,,,,,,,,,,,,
294367,2022-09-25_21h33.18.984,vts_reward_expectancy,2022.2.4,MacIntel,14.92537313,Safari,1440,900,,,l,0.782,10,41,0,0,4,4,0,1,1,0,0,0,0,1,0,0,triangle,circle,,,,,,,,,,,,,,,,,,,,,,,,,,,,,,,,,,,,,,,,,,,,,,,,,,,,,,
294367,2022-09-25_21h33.18.984,vts_reward_expectancy,2022.2.4,MacIntel,14.92537313,Safari,1440,900,,,l,0.928,10,51,0,0,5,5,4,1,0,1,0,0,0,0,1,0,circle,hexagon,,,,,,,,,,,,,,,,,,,,,,,,,,,,,,,,,,,,,,,,,,,,,,,,,,,,,,
294367,2022-09-25_21h33.18.984,vts_reward_expectancy,2022.2.4,MacIntel,14.92537313,Safari,1440,900,,,l,2.212,10,61,0,0,6,6,9,1,0,0,0,1,1,0,0,0,star,triangle,,,,,,,,,,,,,,,,,,,,,,,,,,,,,,,,,,,,,,,,,,,,,,,,,,,,,,
294367,2022-09-25_21h33.18.984,vts_reward_expectancy,2022.2.4,MacIntel,14.92537313,Safari,1440,900,,,l,0.928,1,62,0,0,7,7,10,1,0,0,0,1,0,1,0,0,star ,circle,,,,,,,,,,,,,,,,,,,,,,,,,,,,,,,,,,,,,,,,,,,,,,,,,,,,,,
294367,2022-09-25_21h33.18.984,vts_reward_expectancy,2022.2.4,MacIntel,14.92537313,Safari,1440,900,,,l,1.036,1,63,0,0,8,8,11,1,0,0,0,1,0,0,1,0,star,hexagon,,,,,,,,,,,,,,,,,,,,,,,,,,,,,,,,,,,,,,,,,,,,,,,,,,,,,,
294367,2022-09-25_21h33.18.984,vts_reward_expectancy,2022.2.4,MacIntel,14.92537313,Safari,1440,900,,,l,1.135,1,64,0,0,9,9,2,1,1,0,0,0,0,0,0,1,triangle,star,,,,,,,,,,,,,,,,,,,,,,,,,,,,,,,,,,,,,,,,,,,,,,,,,,,,,,
294367,2022-09-25_21h33.18.984,vts_reward_expectancy,2022.2.4,MacIntel,14.92537313,Safari,1440,900,,,a,1.239,10,74,0,0,10,10,6,1,0,0,1,0,1,0,0,0,hexagon,triangle,,,,,,,,,,,,,,,,,,,,,,,,,,,,,,,,,,,,,,,,,,,,,,,,,,,,,,
294367,2022-09-25_21h33.18.984,vts_reward_expectancy,2022.2.4,MacIntel,14.92537313,Safari,1440,900,,,a,1.863,1,75,0,0,11,11,1,1,1,0,0,0,0,0,1,0,triangle,hexagon,,,,,,,,,,,,,,,,,,,,,,,,,,,,,,,,,,,,,,,,,,,,,,,,,,,,,,
294367,2022-09-25_21h33.18.984,vts_reward_expectancy,2022.2.4,MacIntel,14.92537313,Safari,1440,900,,,l,1.834,10,85,0,1,0,12,5,1,0,1,0,0,0,0,0,1,circle,star,,,,,,,,,,,,,,,,,,,,,,,,,,,,,,,,,,,,,,,,,,,,,,,,,,,,,,
294367,2022-09-25_21h33.18.984,vts_reward_expectancy,2022.2.4,MacIntel,14.92537313,Safari,1440,900,,,a,2.731,10,95,0,1,1,13,4,1,0,1,0,0,0,0,1,0,circle,hexagon,,,,,,,,,,,,,,,,,,,,,,,,,,,,,,,,,,,,,,,,,,,,,,,,,,,,,,
294367,2022-09-25_21h33.18.984,vts_reward_expectancy,2022.2.4,MacIntel,14.92537313,Safari,1440,900,,,l,1.531,10,105,0,1,2,14,1,1,1,0,0,0,0,0,1,0,triangle,hexagon,,,,,,,,,,,,,,,,,,,,,,,,,,,,,,,,,,,,,,,,,,,,,,,,,,,,,,
294367,2022-09-25_21h33.18.984,vts_reward_expectancy,2022.2.4,MacIntel,14.92537313,Safari,1440,900,,,l,2.053,1,106,0,1,3,15,3,1,0,1,0,0,1,0,0,0,circle,triangle,,,,,,,,,,,,,,,,,,,,,,,,,,,,,,,,,,,,,,,,,,,,,,,,,,,,,,
294367,2022-09-25_21h33.18.984,vts_reward_expectancy,2022.2.4,MacIntel,14.92537313,Safari,1440,900,,,a,0.895,1,107,0,1,4,16,11,1,0,0,0,1,0,0,1,0,star,hexagon,,,,,,,,,,,,,,,,,,,,,,,,,,,,,,,,,,,,,,,,,,,,,,,,,,,,,,
294367,2022-09-25_21h33.18.984,vts_reward_expectancy,2022.2.4,MacIntel,14.92537313,Safari,1440,900,,,l,1.701,1,108,0,1,5,17,8,1,0,0,1,0,0,0,0,1,hexagon,star,,,,,,,,,,,,,,,,,,,,,,,,,,,,,,,,,,,,,,,,,,,,,,,,,,,,,,
294367,2022-09-25_21h33.18.984,vts_reward_expectancy,2022.2.4,MacIntel,14.92537313,Safari,1440,900,,,l,1.102,10,118,0,1,6,18,2,1,1,0,0,0,0,0,0,1,triangle,star,,,,,,,,,,,,,,,,,,,,,,,,,,,,,,,,,,,,,,,,,,,,,,,,,,,,,,
294367,2022-09-25_21h33.18.984,vts_reward_expectancy,2022.2.4,MacIntel,14.92537313,Safari,1440,900,,,l,1.2,1,119,0,1,7,19,0,1,1,0,0,0,0,1,0,0,triangle,circle,,,,,,,,,,,,,,,,,,,,,,,,,,,,,,,,,,,,,,,,,,,,,,,,,,,,,,
294367,2022-09-25_21h33.18.984,vts_reward_expectancy,2022.2.4,MacIntel,14.92537313,Safari,1440,900,,,a,0.973,1,120,0,1,8,20,9,1,0,0,0,1,1,0,0,0,star,triangle,,,,,,,,,,,,,,,,,,,,,,,,,,,,,,,,,,,,,,,,,,,,,,,,,,,,,,
294367,2022-09-25_21h33.18.984,vts_reward_expectancy,2022.2.4,MacIntel,14.92537313,Safari,1440,900,,,a,1.232,1,121,0,1,9,21,7,1,0,0,1,0,0,1,0,0,hexagon,circle,,,,,,,,,,,,,,,,,,,,,,,,,,,,,,,,,,,,,,,,,,,,,,,,,,,,,,
294367,2022-09-25_21h33.18.984,vts_reward_expectancy,2022.2.4,MacIntel,14.92537313,Safari,1440,900,,,l,0.636,1,122,0,1,10,22,10,1,0,0,0,1,0,1,0,0,star ,circle,,,,,,,,,,,,,,,,,,,,,,,,,,,,,,,,,,,,,,,,,,,,,,,,,,,,,,
294367,2022-09-25_21h33.18.984,vts_reward_expectancy,2022.2.4,MacIntel,14.92537313,Safari,1440,900,,,a,1.529,10,132,0,1,11,23,6,1,0,0,1,0,1,0,0,0,hexagon,triangle,,,,,,,,,,,,,,,,,,,,,,,,,,,,,,,,,,,,,,,,,,,,,,,,,,,,,,
294367,2022-09-25_21h33.18.984,vts_reward_expectancy,2022.2.4,MacIntel,14.92537313,Safari,1440,900,,,a,1.161,1,133,0,2,0,24,4,1,0,1,0,0,0,0,1,0,circle,hexagon,,,,,,,,,,,,,,,,,,,,,,,,,,,,,,,,,,,,,,,,,,,,,,,,,,,,,,
294367,2022-09-25_21h33.18.984,vts_reward_expectancy,2022.2.4,MacIntel,14.92537313,Safari,1440,900,,,l,1.148,1,134,0,2,1,25,2,1,1,0,0,0,0,0,0,1,triangle,star,,,,,,,,,,,,,,,,,,,,,,,,,,,,,,,,,,,,,,,,,,,,,,,,,,,,,,
294367,2022-09-25_21h33.18.984,vts_reward_expectancy,2022.2.4,MacIntel,14.92537313,Safari,1440,900,,,l,1.853,10,144,0,2,2,26,8,1,0,0,1,0,0,0,0,1,hexagon,star,,,,,,,,,,,,,,,,,,,,,,,,,,,,,,,,,,,,,,,,,,,,,,,,,,,,,,
294367,2022-09-25_21h33.18.984,vts_reward_expectancy,2022.2.4,MacIntel,14.92537313,Safari,1440,900,,,a,1.519,1,145,0,2,3,27,11,1,0,0,0,1,0,0,1,0,star,hexagon,,,,,,,,,,,,,,,,,,,,,,,,,,,,,,,,,,,,,,,,,,,,,,,,,,,,,,
294367,2022-09-25_21h33.18.984,vts_reward_expectancy,2022.2.4,MacIntel,14.92537313,Safari,1440,900,,,l,2.363,10,155,0,2,4,28,1,1,1,0,0,0,0,0,1,0,triangle,hexagon,,,,,,,,,,,,,,,,,,,,,,,,,,,,,,,,,,,,,,,,,,,,,,,,,,,,,,
294367,2022-09-25_21h33.18.984,vts_reward_expectancy,2022.2.4,MacIntel,14.92537313,Safari,1440,900,,,l,1.132,10,165,0,2,5,29,7,1,0,0,1,0,0,1,0,0,hexagon,circle,,,,,,,,,,,,,,,,,,,,,,,,,,,,,,,,,,,,,,,,,,,,,,,,,,,,,,
294367,2022-09-25_21h33.18.984,vts_reward_expectancy,2022.2.4,MacIntel,14.92537313,Safari,1440,900,,,a,0.896,1,166,0,2,6,30,9,1,0,0,0,1,1,0,0,0,star,triangle,,,,,,,,,,,,,,,,,,,,,,,,,,,,,,,,,,,,,,,,,,,,,,,,,,,,,,
294367,2022-09-25_21h33.18.984,vts_reward_expectancy,2022.2.4,MacIntel,14.92537313,Safari,1440,900,,,l,1.046,1,167,0,2,7,31,0,1,1,0,0,0,0,1,0,0,triangle,circle,,,,,,,,,,,,,,,,,,,,,,,,,,,,,,,,,,,,,,,,,,,,,,,,,,,,,,
294367,2022-09-25_21h33.18.984,vts_reward_expectancy,2022.2.4,MacIntel,14.92537313,Safari,1440,900,,,a,3.014,1,168,0,2,8,32,3,1,0,1,0,0,1,0,0,0,circle,triangle,,,,,,,,,,,,,,,,,,,,,,,,,,,,,,,,,,,,,,,,,,,,,,,,,,,,,,
294367,2022-09-25_21h33.18.984,vts_reward_expectancy,2022.2.4,MacIntel,14.92537313,Safari,1440,900,,,a,2.256,1,169,0,2,9,33,10,1,0,0,0,1,0,1,0,0,star ,circle,,,,,,,,,,,,,,,,,,,,,,,,,,,,,,,,,,,,,,,,,,,,,,,,,,,,,,
294367,2022-09-25_21h33.18.984,vts_reward_expectancy,2022.2.4,MacIntel,14.92537313,Safari,1440,900,,,a,2.409,10,179,0,2,10,34,5,1,0,1,0,0,0,0,0,1,circle,star,,,,,,,,,,,,,,,,,,,,,,,,,,,,,,,,,,,,,,,,,,,,,,,,,,,,,,
294367,2022-09-25_21h33.18.984,vts_reward_expectancy,2022.2.4,MacIntel,14.92537313,Safari,1440,900,,,l,1.429,1,180,0,2,11,35,6,1,0,0,1,0,1,0,0,0,hexagon,triangle,,,,,,,,,,,,,,,,,,,,,,,,,,,,,,,,,,,,,,,,,,,,,,,,,,,,,,
294367,2022-09-25_21h33.18.984,vts_reward_expectancy,2022.2.4,MacIntel,14.92537313,Safari,1440,900,,,l,1.519,1,181,1,0,0,0,2,1,1,0,0,0,0,0,0,1,triangle,star,,,,,,,,,,,,,,,,,,,,,,,,,,,,,,,,,,,,,,,,,,,,,,,,,,,,,,
294367,2022-09-25_21h33.18.984,vts_reward_expectancy,2022.2.4,MacIntel,14.92537313,Safari,1440,900,,,l,1.735,1,182,1,0,1,1,8,1,0,0,1,0,0,0,0,1,hexagon,star,,,,,,,,,,,,,,,,,,,,,,,,,,,,,,,,,,,,,,,,,,,,,,,,,,,,,,
294367,2022-09-25_21h33.18.984,vts_reward_expectancy,2022.2.4,MacIntel,14.92537313,Safari,1440,900,,,a,1.056,10,192,1,0,2,2,9,1,0,0,0,1,1,0,0,0,star,triangle,,,,,,,,,,,,,,,,,,,,,,,,,,,,,,,,,,,,,,,,,,,,,,,,,,,,,,
294367,2022-09-25_21h33.18.984,vts_reward_expectancy,2022.2.4,MacIntel,14.92537313,Safari,1440,900,,,a,0.961,10,202,1,0,3,3,4,1,0,1,0,0,0,0,1,0,circle,hexagon,,,,,,,,,,,,,,,,,,,,,,,,,,,,,,,,,,,,,,,,,,,,,,,,,,,,,,
294367,2022-09-25_21h33.18.984,vts_reward_expectancy,2022.2.4,MacIntel,14.92537313,Safari,1440,900,,,l,1.64,1,203,1,0,4,4,1,1,1,0,0,0,0,0,1,0,triangle,hexagon,,,,,,,,,,,,,,,,,,,,,,,,,,,,,,,,,,,,,,,,,,,,,,,,,,,,,,
294367,2022-09-25_21h33.18.984,vts_reward_expectancy,2022.2.4,MacIntel,14.92537313,Safari,1440,900,,,l,1.183,1,204,1,0,5,5,6,1,0,0,1,0,1,0,0,0,hexagon,triangle,,,,,,,,,,,,,,,,,,,,,,,,,,,,,,,,,,,,,,,,,,,,,,,,,,,,,,
294367,2022-09-25_21h33.18.984,vts_reward_expectancy,2022.2.4,MacIntel,14.92537313,Safari,1440,900,,,a,10.623,1,205,1,0,6,6,11,1,0,0,0,1,0,0,1,0,star,hexagon,,,,,,,,,,,,,,,,,,,,,,,,,,,,,,,,,,,,,,,,,,,,,,,,,,,,,,
294367,2022-09-25_21h33.18.984,vts_reward_expectancy,2022.2.4,MacIntel,14.92537313,Safari,1440,900,,,l,3.563,10,215,1,0,7,7,0,1,1,0,0,0,0,1,0,0,triangle,circle,,,,,,,,,,,,,,,,,,,,,,,,,,,,,,,,,,,,,,,,,,,,,,,,,,,,,,
294367,2022-09-25_21h33.18.984,vts_reward_expectancy,2022.2.4,MacIntel,14.92537313,Safari,1440,900,,,l,1.46,1,216,1,0,8,8,5,1,0,1,0,0,0,0,0,1,circle,star,,,,,,,,,,,,,,,,,,,,,,,,,,,,,,,,,,,,,,,,,,,,,,,,,,,,,,
294367,2022-09-25_21h33.18.984,vts_reward_expectancy,2022.2.4,MacIntel,14.92537313,Safari,1440,900,,,l,0.628,10,226,1,0,9,9,7,1,0,0,1,0,0,1,0,0,hexagon,circle,,,,,,,,,,,,,,,,,,,,,,,,,,,,,,,,,,,,,,,,,,,,,,,,,,,,,,
294367,2022-09-25_21h33.18.984,vts_reward_expectancy,2022.2.4,MacIntel,14.92537313,Safari,1440,900,,,a,0.621,1,227,1,0,10,10,3,1,0,1,0,0,1,0,0,0,circle,triangle,,,,,,,,,,,,,,,,,,,,,,,,,,,,,,,,,,,,,,,,,,,,,,,,,,,,,,
294367,2022-09-25_21h33.18.984,vts_reward_expectancy,2022.2.4,MacIntel,14.92537313,Safari,1440,900,,,a,1.73,1,228,1,0,11,11,10,1,0,0,0,1,0,1,0,0,star ,circle,,,,,,,,,,,,,,,,,,,,,,,,,,,,,,,,,,,,,,,,,,,,,,,,,,,,,,
294367,2022-09-25_21h33.18.984,vts_reward_expectancy,2022.2.4,MacIntel,14.92537313,Safari,1440,900,,,l,2.374,1,229,1,1,0,12,0,1,1,0,0,0,0,1,0,0,triangle,circle,,,,,,,,,,,,,,,,,,,,,,,,,,,,,,,,,,,,,,,,,,,,,,,,,,,,,,
294367,2022-09-25_21h33.18.984,vts_reward_expectancy,2022.2.4,MacIntel,14.92537313,Safari,1440,900,,,l,2.323,1,230,1,1,1,13,8,1,0,0,1,0,0,0,0,1,hexagon,star,,,,,,,,,,,,,,,,,,,,,,,,,,,,,,,,,,,,,,,,,,,,,,,,,,,,,,
294367,2022-09-25_21h33.18.984,vts_reward_expectancy,2022.2.4,MacIntel,14.92537313,Safari,1440,900,,,a,1.998,10,240,1,1,2,14,4,1,0,1,0,0,0,0,1,0,circle,hexagon,,,,,,,,,,,,,,,,,,,,,,,,,,,,,,,,,,,,,,,,,,,,,,,,,,,,,,
294367,2022-09-25_21h33.18.984,vts_reward_expectancy,2022.2.4,MacIntel,14.92537313,Safari,1440,900,,,a,1.427,10,250,1,1,3,15,7,1,0,0,1,0,0,1,0,0,hexagon,circle,,,,,,,,,,,,,,,,,,,,,,,,,,,,,,,,,,,,,,,,,,,,,,,,,,,,,,
294367,2022-09-25_21h33.18.984,vts_reward_expectancy,2022.2.4,MacIntel,14.92537313,Safari,1440,900,,,l,1.203,10,260,1,1,4,16,2,1,1,0,0,0,0,0,0,1,triangle,star,,,,,,,,,,,,,,,,,,,,,,,,,,,,,,,,,,,,,,,,,,,,,,,,,,,,,,
294367,2022-09-25_21h33.18.984,vts_reward_expectancy,2022.2.4,MacIntel,14.92537313,Safari,1440,900,,,l,2.274,1,261,1,1,5,17,9,1,0,0,0,1,1,0,0,0,star,triangle,,,,,,,,,,,,,,,,,,,,,,,,,,,,,,,,,,,,,,,,,,,,,,,,,,,,,,
294367,2022-09-25_21h33.18.984,vts_reward_expectancy,2022.2.4,MacIntel,14.92537313,Safari,1440,900,,,a,3.131,1,262,1,1,6,18,1,1,1,0,0,0,0,0,1,0,triangle,hexagon,,,,,,,,,,,,,,,,,,,,,,,,,,,,,,,,,,,,,,,,,,,,,,,,,,,,,,
294367,2022-09-25_21h33.18.984,vts_reward_expectancy,2022.2.4,MacIntel,14.92537313,Safari,1440,900,,,l,3.046,1,263,1,1,7,19,10,1,0,0,0,1,0,1,0,0,star ,circle,,,,,,,,,,,,,,,,,,,,,,,,,,,,,,,,,,,,,,,,,,,,,,,,,,,,,,
294367,2022-09-25_21h33.18.984,vts_reward_expectancy,2022.2.4,MacIntel,14.92537313,Safari,1440,900,,,l,2.853,10,273,1,1,8,20,11,1,0,0,0,1,0,0,1,0,star,hexagon,,,,,,,,,,,,,,,,,,,,,,,,,,,,,,,,,,,,,,,,,,,,,,,,,,,,,,
294367,2022-09-25_21h33.18.984,vts_reward_expectancy,2022.2.4,MacIntel,14.92537313,Safari,1440,900,,,l,2.506,10,283,1,1,9,21,5,1,0,1,0,0,0,0,0,1,circle,star,,,,,,,,,,,,,,,,,,,,,,,,,,,,,,,,,,,,,,,,,,,,,,,,,,,,,,
294367,2022-09-25_21h33.18.984,vts_reward_expectancy,2022.2.4,MacIntel,14.92537313,Safari,1440,900,,,l,3.453,10,293,1,1,10,22,6,1,0,0,1,0,1,0,0,0,hexagon,triangle,,,,,,,,,,,,,,,,,,,,,,,,,,,,,,,,,,,,,,,,,,,,,,,,,,,,,,
294367,2022-09-25_21h33.18.984,vts_reward_expectancy,2022.2.4,MacIntel,14.92537313,Safari,1440,900,,,l,2.037,1,294,1,1,11,23,3,1,0,1,0,0,1,0,0,0,circle,triangle,,,,,,,,,,,,,,,,,,,,,,,,,,,,,,,,,,,,,,,,,,,,,,,,,,,,,,
294367,2022-09-25_21h33.18.984,vts_reward_expectancy,2022.2.4,MacIntel,14.92537313,Safari,1440,900,,,l,1.265,1,295,1,2,0,24,0,1,1,0,0,0,0,1,0,0,triangle,circle,,,,,,,,,,,,,,,,,,,,,,,,,,,,,,,,,,,,,,,,,,,,,,,,,,,,,,
294367,2022-09-25_21h33.18.984,vts_reward_expectancy,2022.2.4,MacIntel,14.92537313,Safari,1440,900,,,l,18.019,10,305,1,2,1,25,8,1,0,0,1,0,0,0,0,1,hexagon,star,,,,,,,,,,,,,,,,,,,,,,,,,,,,,,,,,,,,,,,,,,,,,,,,,,,,,,
294367,2022-09-25_21h33.18.984,vts_reward_expectancy,2022.2.4,MacIntel,14.92537313,Safari,1440,900,,,l,2.563,10,315,1,2,2,26,7,1,0,0,1,0,0,1,0,0,hexagon,circle,,,,,,,,,,,,,,,,,,,,,,,,,,,,,,,,,,,,,,,,,,,,,,,,,,,,,,
294367,2022-09-25_21h33.18.984,vts_reward_expectancy,2022.2.4,MacIntel,14.92537313,Safari,1440,900,,,a,4.458,1,316,1,2,3,27,2,1,1,0,0,0,0,0,0,1,triangle,star,,,,,,,,,,,,,,,,,,,,,,,,,,,,,,,,,,,,,,,,,,,,,,,,,,,,,,
294367,2022-09-25_21h33.18.984,vts_reward_expectancy,2022.2.4,MacIntel,14.92537313,Safari,1440,900,,,l,3.666,10,326,1,2,4,28,10,1,0,0,0,1,0,1,0,0,star ,circle,,,,,,,,,,,,,,,,,,,,,,,,,,,,,,,,,,,,,,,,,,,,,,,,,,,,,,
294367,2022-09-25_21h33.18.984,vts_reward_expectancy,2022.2.4,MacIntel,14.92537313,Safari,1440,900,,,a,13.239,10,336,1,2,5,29,6,1,0,0,1,0,1,0,0,0,hexagon,triangle,,,,,,,,,,,,,,,,,,,,,,,,,,,,,,,,,,,,,,,,,,,,,,,,,,,,,,
294367,2022-09-25_21h33.18.984,vts_reward_expectancy,2022.2.4,MacIntel,14.92537313,Safari,1440,900,,,a,2.027,1,337,1,2,6,30,5,1,0,1,0,0,0,0,0,1,circle,star,,,,,,,,,,,,,,,,,,,,,,,,,,,,,,,,,,,,,,,,,,,,,,,,,,,,,,
294367,2022-09-25_21h33.18.984,vts_reward_expectancy,2022.2.4,MacIntel,14.92537313,Safari,1440,900,,,a,1.029,10,347,1,2,7,31,11,1,0,0,0,1,0,0,1,0,star,hexagon,,,,,,,,,,,,,,,,,,,,,,,,,,,,,,,,,,,,,,,,,,,,,,,,,,,,,,
294367,2022-09-25_21h33.18.984,vts_reward_expectancy,2022.2.4,MacIntel,14.92537313,Safari,1440,900,,,l,1.432,1,348,1,2,8,32,9,1,0,0,0,1,1,0,0,0,star,triangle,,,,,,,,,,,,,,,,,,,,,,,,,,,,,,,,,,,,,,,,,,,,,,,,,,,,,,
294367,2022-09-25_21h33.18.984,vts_reward_expectancy,2022.2.4,MacIntel,14.92537313,Safari,1440,900,,,l,2.772,10,358,1,2,9,33,1,1,1,0,0,0,0,0,1,0,triangle,hexagon,,,,,,,,,,,,,,,,,,,,,,,,,,,,,,,,,,,,,,,,,,,,,,,,,,,,,,
294367,2022-09-25_21h33.18.984,vts_reward_expectancy,2022.2.4,MacIntel,14.92537313,Safari,1440,900,,,a,1.533,10,368,1,2,10,34,3,1,0,1,0,0,1,0,0,0,circle,triangle,,,,,,,,,,,,,,,,,,,,,,,,,,,,,,,,,,,,,,,,,,,,,,,,,,,,,,
294367,2022-09-25_21h33.18.984,vts_reward_expectancy,2022.2.4,MacIntel,14.92537313,Safari,1440,900,,,l,1.878,10,378,1,2,11,35,4,1,0,1,0,0,0,0,1,0,circle,hexagon,,,,,,,,,,,,,,,,,,,,,,,,,,,,,,,,,,,,,,,,,,,,,,,,,,,,,,
294367,2022-09-25_21h33.18.984,vts_reward_expectancy,2022.2.4,MacIntel,14.92537313,Safari,1440,900,,,l,4.912,1,379,2,0,0,0,10,1,0,0,0,1,0,1,0,0,star ,circle,,,,,,,,,,,,,,,,,,,,,,,,,,,,,,,,,,,,,,,,,,,,,,,,,,,,,,
294367,2022-09-25_21h33.18.984,vts_reward_expectancy,2022.2.4,MacIntel,14.92537313,Safari,1440,900,,,l,1.369,10,389,2,0,1,1,5,1,0,1,0,0,0,0,0,1,circle,star,,,,,,,,,,,,,,,,,,,,,,,,,,,,,,,,,,,,,,,,,,,,,,,,,,,,,,
294367,2022-09-25_21h33.18.984,vts_reward_expectancy,2022.2.4,MacIntel,14.92537313,Safari,1440,900,,,l,2.042,1,390,2,0,2,2,6,1,0,0,1,0,1,0,0,0,hexagon,triangle,,,,,,,,,,,,,,,,,,,,,,,,,,,,,,,,,,,,,,,,,,,,,,,,,,,,,,
294367,2022-09-25_21h33.18.984,vts_reward_expectancy,2022.2.4,MacIntel,14.92537313,Safari,1440,900,,,l,1.593,10,400,2,0,3,3,11,1,0,0,0,1,0,0,1,0,star,hexagon,,,,,,,,,,,,,,,,,,,,,,,,,,,,,,,,,,,,,,,,,,,,,,,,,,,,,,
294367,2022-09-25_21h33.18.984,vts_reward_expectancy,2022.2.4,MacIntel,14.92537313,Safari,1440,900,,,a,1.297,10,410,2,0,4,4,4,1,0,1,0,0,0,0,1,0,circle,hexagon,,,,,,,,,,,,,,,,,,,,,,,,,,,,,,,,,,,,,,,,,,,,,,,,,,,,,,
294367,2022-09-25_21h33.18.984,vts_reward_expectancy,2022.2.4,MacIntel,14.92537313,Safari,1440,900,,,l,1.99,1,411,2,0,5,5,7,1,0,0,1,0,0,1,0,0,hexagon,circle,,,,,,,,,,,,,,,,,,,,,,,,,,,,,,,,,,,,,,,,,,,,,,,,,,,,,,
294367,2022-09-25_21h33.18.984,vts_reward_expectancy,2022.2.4,MacIntel,14.92537313,Safari,1440,900,,,l,4.269,10,421,2,0,6,6,3,1,0,1,0,0,1,0,0,0,circle,triangle,,,,,,,,,,,,,,,,,,,,,,,,,,,,,,,,,,,,,,,,,,,,,,,,,,,,,,
294367,2022-09-25_21h33.18.984,vts_reward_expectancy,2022.2.4,MacIntel,14.92537313,Safari,1440,900,,,a,1.183,10,431,2,0,7,7,2,1,1,0,0,0,0,0,0,1,triangle,star,,,,,,,,,,,,,,,,,,,,,,,,,,,,,,,,,,,,,,,,,,,,,,,,,,,,,,
294367,2022-09-25_21h33.18.984,vts_reward_expectancy,2022.2.4,MacIntel,14.92537313,Safari,1440,900,,,a,6.127,1,432,2,0,8,8,9,1,0,0,0,1,1,0,0,0,star,triangle,,,,,,,,,,,,,,,,,,,,,,,,,,,,,,,,,,,,,,,,,,,,,,,,,,,,,,
294367,2022-09-25_21h33.18.984,vts_reward_expectancy,2022.2.4,MacIntel,14.92537313,Safari,1440,900,,,a,38.042,10,442,2,0,9,9,1,1,1,0,0,0,0,0,1,0,triangle,hexagon,,,,,,,,,,,,,,,,,,,,,,,,,,,,,,,,,,,,,,,,,,,,,,,,,,,,,,
294367,2022-09-25_21h33.18.984,vts_reward_expectancy,2022.2.4,MacIntel,14.92537313,Safari,1440,900,,,l,0.845,1,443,2,0,10,10,0,1,1,0,0,0,0,1,0,0,triangle,circle,,,,,,,,,,,,,,,,,,,,,,,,,,,,,,,,,,,,,,,,,,,,,,,,,,,,,,
294367,2022-09-25_21h33.18.984,vts_reward_expectancy,2022.2.4,MacIntel,14.92537313,Safari,1440,900,,,a,1.961,10,453,2,0,11,11,8,1,0,0,1,0,0,0,0,1,hexagon,star,,,,,,,,,,,,,,,,,,,,,,,,,,,,,,,,,,,,,,,,,,,,,,,,,,,,,,
294367,2022-09-25_21h33.18.984,vts_reward_expectancy,2022.2.4,MacIntel,14.92537313,Safari,1440,900,,,l,1.952,10,463,2,1,0,12,7,1,0,0,1,0,0,1,0,0,hexagon,circle,,,,,,,,,,,,,,,,,,,,,,,,,,,,,,,,,,,,,,,,,,,,,,,,,,,,,,
294367,2022-09-25_21h33.18.984,vts_reward_expectancy,2022.2.4,MacIntel,14.92537313,Safari,1440,900,,,a,1.134,10,473,2,1,1,13,11,1,0,0,0,1,0,0,1,0,star,hexagon,,,,,,,,,,,,,,,,,,,,,,,,,,,,,,,,,,,,,,,,,,,,,,,,,,,,,,
294367,2022-09-25_21h33.18.984,vts_reward_expectancy,2022.2.4,MacIntel,14.92537313,Safari,1440,900,,,a,1.171,10,483,2,1,2,14,0,1,1,0,0,0,0,1,0,0,triangle,circle,,,,,,,,,,,,,,,,,,,,,,,,,,,,,,,,,,,,,,,,,,,,,,,,,,,,,,
294367,2022-09-25_21h33.18.984,vts_reward_expectancy,2022.2.4,MacIntel,14.92537313,Safari,1440,900,,,l,1.576,1,484,2,1,3,15,6,1,0,0,1,0,1,0,0,0,hexagon,triangle,,,,,,,,,,,,,,,,,,,,,,,,,,,,,,,,,,,,,,,,,,,,,,,,,,,,,,
294367,2022-09-25_21h33.18.984,vts_reward_expectancy,2022.2.4,MacIntel,14.92537313,Safari,1440,900,,,l,2.78,10,494,2,1,4,16,10,1,0,0,0,1,0,1,0,0,star ,circle,,,,,,,,,,,,,,,,,,,,,,,,,,,,,,,,,,,,,,,,,,,,,,,,,,,,,,
294367,2022-09-25_21h33.18.984,vts_reward_expectancy,2022.2.4,MacIntel,14.92537313,Safari,1440,900,,,a,1.384,10,504,2,1,5,17,4,1,0,1,0,0,0,0,1,0,circle,hexagon,,,,,,,,,,,,,,,,,,,,,,,,,,,,,,,,,,,,,,,,,,,,,,,,,,,,,,
294367,2022-09-25_21h33.18.984,vts_reward_expectancy,2022.2.4,MacIntel,14.92537313,Safari,1440,900,,,a,1.584,1,505,2,1,6,18,1,1,1,0,0,0,0,0,1,0,triangle,hexagon,,,,,,,,,,,,,,,,,,,,,,,,,,,,,,,,,,,,,,,,,,,,,,,,,,,,,,
294367,2022-09-25_21h33.18.984,vts_reward_expectancy,2022.2.4,MacIntel,14.92537313,Safari,1440,900,,,l,2.01,1,506,2,1,7,19,9,1,0,0,0,1,1,0,0,0,star,triangle,,,,,,,,,,,,,,,,,,,,,,,,,,,,,,,,,,,,,,,,,,,,,,,,,,,,,,
294367,2022-09-25_21h33.18.984,vts_reward_expectancy,2022.2.4,MacIntel,14.92537313,Safari,1440,900,,,l,2.89,1,507,2,1,8,20,8,1,0,0,1,0,0,0,0,1,hexagon,star,,,,,,,,,,,,,,,,,,,,,,,,,,,,,,,,,,,,,,,,,,,,,,,,,,,,,,
294367,2022-09-25_21h33.18.984,vts_reward_expectancy,2022.2.4,MacIntel,14.92537313,Safari,1440,900,,,l,1.409,1,508,2,1,9,21,2,1,1,0,0,0,0,0,0,1,triangle,star,,,,,,,,,,,,,,,,,,,,,,,,,,,,,,,,,,,,,,,,,,,,,,,,,,,,,,
294367,2022-09-25_21h33.18.984,vts_reward_expectancy,2022.2.4,MacIntel,14.92537313,Safari,1440,900,,,a,0.749,1,509,2,1,10,22,5,1,0,1,0,0,0,0,0,1,circle,star,,,,,,,,,,,,,,,,,,,,,,,,,,,,,,,,,,,,,,,,,,,,,,,,,,,,,,
294367,2022-09-25_21h33.18.984,vts_reward_expectancy,2022.2.4,MacIntel,14.92537313,Safari,1440,900,,,l,1.323,10,519,2,1,11,23,3,1,0,1,0,0,1,0,0,0,circle,triangle,,,,,,,,,,,,,,,,,,,,,,,,,,,,,,,,,,,,,,,,,,,,,,,,,,,,,,
294367,2022-09-25_21h33.18.984,vts_reward_expectancy,2022.2.4,MacIntel,14.92537313,Safari,1440,900,,,a,3.199,10,529,2,2,0,24,5,1,0,1,0,0,0,0,0,1,circle,star,,,,,,,,,,,,,,,,,,,,,,,,,,,,,,,,,,,,,,,,,,,,,,,,,,,,,,
294367,2022-09-25_21h33.18.984,vts_reward_expectancy,2022.2.4,MacIntel,14.92537313,Safari,1440,900,,,a,2.949,10,539,2,2,1,25,3,1,0,1,0,0,1,0,0,0,circle,triangle,,,,,,,,,,,,,,,,,,,,,,,,,,,,,,,,,,,,,,,,,,,,,,,,,,,,,,
294367,2022-09-25_21h33.18.984,vts_reward_expectancy,2022.2.4,MacIntel,14.92537313,Safari,1440,900,,,l,5.967,10,549,2,2,2,26,11,1,0,0,0,1,0,0,1,0,star,hexagon,,,,,,,,,,,,,,,,,,,,,,,,,,,,,,,,,,,,,,,,,,,,,,,,,,,,,,
294367,2022-09-25_21h33.18.984,vts_reward_expectancy,2022.2.4,MacIntel,14.92537313,Safari,1440,900,,,l,2.393,10,559,2,2,3,27,7,1,0,0,1,0,0,1,0,0,hexagon,circle,,,,,,,,,,,,,,,,,,,,,,,,,,,,,,,,,,,,,,,,,,,,,,,,,,,,,,
294367,2022-09-25_21h33.18.984,vts_reward_expectancy,2022.2.4,MacIntel,14.92537313,Safari,1440,900,,,l,3.164,10,569,2,2,4,28,10,1,0,0,0,1,0,1,0,0,star ,circle,,,,,,,,,,,,,,,,,,,,,,,,,,,,,,,,,,,,,,,,,,,,,,,,,,,,,,
294367,2022-09-25_21h33.18.984,vts_reward_expectancy,2022.2.4,MacIntel,14.92537313,Safari,1440,900,,,a,3.168,1,570,2,2,5,29,1,1,1,0,0,0,0,0,1,0,triangle,hexagon,,,,,,,,,,,,,,,,,,,,,,,,,,,,,,,,,,,,,,,,,,,,,,,,,,,,,,
294367,2022-09-25_21h33.18.984,vts_reward_expectancy,2022.2.4,MacIntel,14.92537313,Safari,1440,900,,,a,2.486,1,571,2,2,6,30,8,1,0,0,1,0,0,0,0,1,hexagon,star,,,,,,,,,,,,,,,,,,,,,,,,,,,,,,,,,,,,,,,,,,,,,,,,,,,,,,
294367,2022-09-25_21h33.18.984,vts_reward_expectancy,2022.2.4,MacIntel,14.92537313,Safari,1440,900,,,a,2.003,10,581,2,2,7,31,4,1,0,1,0,0,0,0,1,0,circle,hexagon,,,,,,,,,,,,,,,,,,,,,,,,,,,,,,,,,,,,,,,,,,,,,,,,,,,,,,
294367,2022-09-25_21h33.18.984,vts_reward_expectancy,2022.2.4,MacIntel,14.92537313,Safari,1440,900,,,a,5.799,10,591,2,2,8,32,6,1,0,0,1,0,1,0,0,0,hexagon,triangle,,,,,,,,,,,,,,,,,,,,,,,,,,,,,,,,,,,,,,,,,,,,,,,,,,,,,,
294367,2022-09-25_21h33.18.984,vts_reward_expectancy,2022.2.4,MacIntel,14.92537313,Safari,1440,900,,,l,1.753,10,601,2,2,9,33,0,1,1,0,0,0,0,1,0,0,triangle,circle,,,,,,,,,,,,,,,,,,,,,,,,,,,,,,,,,,,,,,,,,,,,,,,,,,,,,,
294367,2022-09-25_21h33.18.984,vts_reward_expectancy,2022.2.4,MacIntel,14.92537313,Safari,1440,900,,,a,3.647,10,611,2,2,10,34,9,1,0,0,0,1,1,0,0,0,star,triangle,,,,,,,,,,,,,,,,,,,,,,,,,,,,,,,,,,,,,,,,,,,,,,,,,,,,,,
294367,2022-09-25_21h33.18.984,vts_reward_expectancy,2022.2.4,MacIntel,14.92537313,Safari,1440,900,,,l,3.865,10,621,2,2,11,35,2,1,1,0,0,0,0,0,0,1,triangle,star,,,,,,,,,,,,,,,,,,,,,,,,,,,,,,,,,,,,,,,,,,,,,,,,,,,,,,
294367,2022-09-25_21h33.18.984,vts_reward_expectancy,2022.2.4,MacIntel,14.92537313,Safari,1440,900,,,,,,,,,,,,,,,,,,,,,,,H,174,circle,0,0,,0,0,0,0,0,1,,,,,,,,,,,,,,,,,,,,,,,,,,,,,,,,,,,,,,,,,,
294367,2022-09-25_21h33.18.984,vts_reward_expectancy,2022.2.4,MacIntel,14.92537313,Safari,1440,900,,,,,,,,,,,,,,,,,,,,,,,D,125,hexagon,1,1,d,0,1,0,1,0,1,0.886,,,,,,,,,,,,,,,,,,,,,,,,,,,,,,,,,,,,,,,,,
294367,2022-09-25_21h33.18.984,vts_reward_expectancy,2022.2.4,MacIntel,14.92537313,Safari,1440,900,,,,,,,,,,,,,,,,,,,,,,,F,181,star,1,0,d,0,2,0,2,0,1,0.717,,,,,,,,,,,,,,,,,,,,,,,,,,,,,,,,,,,,,,,,,
294367,2022-09-25_21h33.18.984,vts_reward_expectancy,2022.2.4,MacIntel,14.92537313,Safari,1440,900,,,,,,,,,,,,,,,,,,,,,,,S,132,triangle,1,0,f,0,3,0,3,0,1,0.615,,,,,,,,,,,,,,,,,,,,,,,,,,,,,,,,,,,,,,,,,
294367,2022-09-25_21h33.18.984,vts_reward_expectancy,2022.2.4,MacIntel,14.92537313,Safari,1440,900,,,,,,,,,,,,,,,,,,,,,,,U,146,circle,1,0,f,0,4,0,4,0,1,0.703,,,,,,,,,,,,,,,,,,,,,,,,,,,,,,,,,,,,,,,,,
294367,2022-09-25_21h33.18.984,vts_reward_expectancy,2022.2.4,MacIntel,14.92537313,Safari,1440,900,,,,,,,,,,,,,,,,,,,,,,,B,139,hexagon,1,0,d,0,5,0,5,0,1,0.622,,,,,,,,,,,,,,,,,,,,,,,,,,,,,,,,,,,,,,,,,
294367,2022-09-25_21h33.18.984,vts_reward_expectancy,2022.2.4,MacIntel,14.92537313,Safari,1440,900,,,,,,,,,,,,,,,,,,,,,,,Y,160,star,1,0,f,0,6,0,6,0,1,0.567,,,,,,,,,,,,,,,,,,,,,,,,,,,,,,,,,,,,,,,,,
294367,2022-09-25_21h33.18.984,vts_reward_expectancy,2022.2.4,MacIntel,14.92537313,Safari,1440,900,,,,,,,,,,,,,,,,,,,,,,,W,167,triangle,0,0,d,0,7,0,7,0,1,0.785,,,,,,,,,,,,,,,,,,,,,,,,,,,,,,,,,,,,,,,,,
294367,2022-09-25_21h33.18.984,vts_reward_expectancy,2022.2.4,MacIntel,14.92537313,Safari,1440,900,,,,,,,,,,,,,,,,,,,,,,,H,174,hexagon,1,1,d,0,8,0,8,0,1,0.621,,,,,,,,,,,,,,,,,,,,,,,,,,,,,,,,,,,,,,,,,
294367,2022-09-25_21h33.18.984,vts_reward_expectancy,2022.2.4,MacIntel,14.92537313,Safari,1440,900,,,,,,,,,,,,,,,,,,,,,,,D,125,circle,1,0,d,0,9,0,9,0,1,0.575,,,,,,,,,,,,,,,,,,,,,,,,,,,,,,,,,,,,,,,,,
294367,2022-09-25_21h33.18.984,vts_reward_expectancy,2022.2.4,MacIntel,14.92537313,Safari,1440,900,,,,,,,,,,,,,,,,,,,,,,,W,125,triangle,1,0,f,1,0,0,0,0,1,0.739,,,,,,,,,,,,,,,,,,,,,,,,,,,,,,,,,,,,,,,,,
294367,2022-09-25_21h33.18.984,vts_reward_expectancy,2022.2.4,MacIntel,14.92537313,Safari,1440,900,,,,,,,,,,,,,,,,,,,,,,,Y,160,hexagon,1,0,f,1,1,0,1,0,1,0.577,,,,,,,,,,,,,,,,,,,,,,,,,,,,,,,,,,,,,,,,,
294367,2022-09-25_21h33.18.984,vts_reward_expectancy,2022.2.4,MacIntel,14.92537313,Safari,1440,900,,,,,,,,,,,,,,,,,,,,,,,B,174,circle,1,0,d,1,2,0,2,0,1,0.526,,,,,,,,,,,,,,,,,,,,,,,,,,,,,,,,,,,,,,,,,
294367,2022-09-25_21h33.18.984,vts_reward_expectancy,2022.2.4,MacIntel,14.92537313,Safari,1440,900,,,,,,,,,,,,,,,,,,,,,,,D,139,star,1,0,d,1,3,0,3,0,1,0.434,,,,,,,,,,,,,,,,,,,,,,,,,,,,,,,,,,,,,,,,,
294367,2022-09-25_21h33.18.984,vts_reward_expectancy,2022.2.4,MacIntel,14.92537313,Safari,1440,900,,,,,,,,,,,,,,,,,,,,,,,F,167,triangle,0,0,f,1,4,0,4,0,1,0.537,,,,,,,,,,,,,,,,,,,,,,,,,,,,,,,,,,,,,,,,,
294367,2022-09-25_21h33.18.984,vts_reward_expectancy,2022.2.4,MacIntel,14.92537313,Safari,1440,900,,,,,,,,,,,,,,,,,,,,,,,U,132,hexagon,1,1,f,1,5,0,5,0,1,0.678,,,,,,,,,,,,,,,,,,,,,,,,,,,,,,,,,,,,,,,,,
294367,2022-09-25_21h33.18.984,vts_reward_expectancy,2022.2.4,MacIntel,14.92537313,Safari,1440,900,,,,,,,,,,,,,,,,,,,,,,,H,181,circle,1,0,d,1,6,0,6,0,1,0.612,,,,,,,,,,,,,,,,,,,,,,,,,,,,,,,,,,,,,,,,,
294367,2022-09-25_21h33.18.984,vts_reward_expectancy,2022.2.4,MacIntel,14.92537313,Safari,1440,900,,,,,,,,,,,,,,,,,,,,,,,S,146,star,1,0,f,1,7,0,7,0,1,0.69,,,,,,,,,,,,,,,,,,,,,,,,,,,,,,,,,,,,,,,,,
294367,2022-09-25_21h33.18.984,vts_reward_expectancy,2022.2.4,MacIntel,14.92537313,Safari,1440,900,,,,,,,,,,,,,,,,,,,,,,,W,125,hexagon,1,0,f,1,8,0,8,0,1,0.588,,,,,,,,,,,,,,,,,,,,,,,,,,,,,,,,,,,,,,,,,
294367,2022-09-25_21h33.18.984,vts_reward_expectancy,2022.2.4,MacIntel,14.92537313,Safari,1440,900,,,,,,,,,,,,,,,,,,,,,,,Y,160,star,1,0,f,1,9,0,9,0,1,0.489,,,,,,,,,,,,,,,,,,,,,,,,,,,,,,,,,,,,,,,,,
294367,2022-09-25_21h33.18.984,vts_reward_expectancy,2022.2.4,MacIntel,14.92537313,Safari,1440,900,,,,,,,,,,,,,,,,,,,,,,,U,174,triangle,1,0,,2,,,,,,,k,1.969,0,0,0,0,1,,,,,,,,,,,,,,,,,,,,,,,,,,,,,,,,,,
294367,2022-09-25_21h33.18.984,vts_reward_expectancy,2022.2.4,MacIntel,14.92537313,Safari,1440,900,,,,,,,,,,,,,,,,,,,,,,,S,139,circle,1,0,,2,,,,,,,j,0.853,1,0,1,0,1,,,,,,,,,,,,,,,,,,,,,,,,,,,,,,,,,,
294367,2022-09-25_21h33.18.984,vts_reward_expectancy,2022.2.4,MacIntel,14.92537313,Safari,1440,900,,,,,,,,,,,,,,,,,,,,,,,H,167,hexagon,1,0,,2,,,,,,,k,0.539,2,0,2,0,1,,,,,,,,,,,,,,,,,,,,,,,,,,,,,,,,,,
294367,2022-09-25_21h33.18.984,vts_reward_expectancy,2022.2.4,MacIntel,14.92537313,Safari,1440,900,,,,,,,,,,,,,,,,,,,,,,,D,181,star,1,0,,2,,,,,,,k,0.578,3,0,3,0,1,,,,,,,,,,,,,,,,,,,,,,,,,,,,,,,,,,
294367,2022-09-25_21h33.18.984,vts_reward_expectancy,2022.2.4,MacIntel,14.92537313,Safari,1440,900,,,,,,,,,,,,,,,,,,,,,,,F,125,triangle,1,0,,2,,,,,,,j,0.663,4,0,4,0,1,,,,,,,,,,,,,,,,,,,,,,,,,,,,,,,,,,
294367,2022-09-25_21h33.18.984,vts_reward_expectancy,2022.2.4,MacIntel,14.92537313,Safari,1440,900,,,,,,,,,,,,,,,,,,,,,,,Y,160,circle,1,0,,2,,,,,,,k,0.51,5,0,5,0,1,,,,,,,,,,,,,,,,,,,,,,,,,,,,,,,,,,
294367,2022-09-25_21h33.18.984,vts_reward_expectancy,2022.2.4,MacIntel,14.92537313,Safari,1440,900,,,,,,,,,,,,,,,,,,,,,,,B,132,hexagon,1,0,,2,,,,,,,j,0.572,6,0,6,0,1,,,,,,,,,,,,,,,,,,,,,,,,,,,,,,,,,,
294367,2022-09-25_21h33.18.984,vts_reward_expectancy,2022.2.4,MacIntel,14.92537313,Safari,1440,900,,,,,,,,,,,,,,,,,,,,,,,W,146,star,1,0,,2,,,,,,,j,0.596,7,0,7,0,1,,,,,,,,,,,,,,,,,,,,,,,,,,,,,,,,,,
294367,2022-09-25_21h33.18.984,vts_reward_expectancy,2022.2.4,MacIntel,14.92537313,Safari,1440,900,,,,,,,,,,,,,,,,,,,,,,,U,174,hexagon,1,0,,2,,,,,,,k,0.65,8,0,8,0,1,,,,,,,,,,,,,,,,,,,,,,,,,,,,,,,,,,
294367,2022-09-25_21h33.18.984,vts_reward_expectancy,2022.2.4,MacIntel,14.92537313,Safari,1440,900,,,,,,,,,,,,,,,,,,,,,,,S,139,star,1,0,,2,,,,,,,j,0.726,9,0,9,0,1,,,,,,,,,,,,,,,,,,,,,,,,,,,,,,,,,,
294367,2022-09-25_21h33.18.984,vts_reward_expectancy,2022.2.4,MacIntel,14.92537313,Safari,1440,900,,,,,0,621,,,,,,,,,,,,,,,,,D,125,circle,1,0,,3,,,,,,,,,,,,,,-1,letter,NA,d,1.715,vtsPrac,0,0,0,0,1,,,,,,,,,,,,,,,,,,,,,,,
294367,2022-09-25_21h33.18.984,vts_reward_expectancy,2022.2.4,MacIntel,14.92537313,Safari,1440,900,,,,,0,621,,,,,,,,,,,,,,,,,U,174,hexagon,1,0,,3,,,,,,,,,,,,,,repeat,letter,lettRpt,f,1.015,vtsPrac,1,0,1,0,1,,,,,,,,,,,,,,,,,,,,,,,
294367,2022-09-25_21h33.18.984,vts_reward_expectancy,2022.2.4,MacIntel,14.92537313,Safari,1440,900,,,,,0,621,,,,,,,,,,,,,,,,,F,167,circle,1,0,,3,,,,,,,,,,,,,,switch,number,numSwt,k,0.392,vtsPrac,2,0,2,0,1,,,,,,,,,,,,,,,,,,,,,,,
294367,2022-09-25_21h33.18.984,vts_reward_expectancy,2022.2.4,MacIntel,14.92537313,Safari,1440,900,,,,,0,621,,,,,,,,,,,,,,,,,H,139,hexagon,1,0,,3,,,,,,,,,,,,,,switch,letter,lettSwt,d,0.711,vtsPrac,3,0,3,0,1,,,,,,,,,,,,,,,,,,,,,,,
294367,2022-09-25_21h33.18.984,vts_reward_expectancy,2022.2.4,MacIntel,14.92537313,Safari,1440,900,,,,,0,621,,,,,,,,,,,,,,,,,D,125,hexagon,1,0,,3,,,,,,,,,,,,,,switch,number,numSwt,j,0.616,vtsPrac,4,0,4,0,1,,,,,,,,,,,,,,,,,,,,,,,
294367,2022-09-25_21h33.18.984,vts_reward_expectancy,2022.2.4,MacIntel,14.92537313,Safari,1440,900,,,,,0,621,,,,,,,,,,,,,,,,,U,174,star,0,0,,3,,,,,,,,,,,,,,repeat,number,NA,j,0.568,vtsPrac,5,0,5,0,1,,,,,,,,,,,,,,,,,,,,,,,
294367,2022-09-25_21h33.18.984,vts_reward_expectancy,2022.2.4,MacIntel,14.92537313,Safari,1440,900,,,,,0,621,,,,,,,,,,,,,,,,,F,167,triangle,1,1,,3,,,,,,,,,,,,,,repeat,number,numRpt,k,0.69,vtsPrac,6,0,6,0,1,,,,,,,,,,,,,,,,,,,,,,,
294367,2022-09-25_21h33.18.984,vts_reward_expectancy,2022.2.4,MacIntel,14.92537313,Safari,1440,900,,,,,0,621,,,,,,,,,,,,,,,,,H,139,circle,1,0,,3,,,,,,,,,,,,,,repeat,number,numRpt,j,0.503,vtsPrac,7,0,7,0,1,,,,,,,,,,,,,,,,,,,,,,,
294367,2022-09-25_21h33.18.984,vts_reward_expectancy,2022.2.4,MacIntel,14.92537313,Safari,1440,900,,,,,0,621,,,,,,,,,,,,,,,,,H,139,hexagon,1,0,,3,,,,,,,,,,,,,,switch,letter,lettSwt,d,0.601,vtsPrac,8,0,8,0,1,,,,,,,,,,,,,,,,,,,,,,,
294367,2022-09-25_21h33.18.984,vts_reward_expectancy,2022.2.4,MacIntel,14.92537313,Safari,1440,900,,,,,0,621,,,,,,,,,,,,,,,,,B,167,triangle,1,0,,3,,,,,,,,,,,,,,switch,number,numSwt,k,0.658,vtsPrac,9,0,9,0,1,,,,,,,,,,,,,,,,,,,,,,,
294367,2022-09-25_21h33.18.984,vts_reward_expectancy,2022.2.4,MacIntel,14.92537313,Safari,1440,900,,,,,0,621,,,,,,,,,,,,,,,,,W,160,circle,1,0,,3,,,,,,,,,,,,,,repeat,number,numRpt,k,0.53,vtsPrac,10,0,10,0,1,,,,,,,,,,,,,,,,,,,,,,,
294367,2022-09-25_21h33.18.984,vts_reward_expectancy,2022.2.4,MacIntel,14.92537313,Safari,1440,900,,,,,0,621,,,,,,,,,,,,,,,,,S,146,star,1,0,,3,,,,,,,,,,,,,,switch,letter,lettSwt,f,0.704,vtsPrac,11,0,11,0,1,,,,,,,,,,,,,,,,,,,,,,,
294367,2022-09-25_21h33.18.984,vts_reward_expectancy,2022.2.4,MacIntel,14.92537313,Safari,1440,900,,,,,0,621,,,,,,,,,,,,,,,,,W,125,triangle,1,0,,3,,,,,,,,,,,,,,repeat,letter,lettRpt,f,0.69,vtsPrac,12,0,12,0,1,,,,,,,,,,,,,,,,,,,,,,,
294367,2022-09-25_21h33.18.984,vts_reward_expectancy,2022.2.4,MacIntel,14.92537313,Safari,1440,900,,,,,0,621,,,,,,,,,,,,,,,,,B,139,hexagon,1,0,,3,,,,,,,,,,,,,,repeat,letter,lettRpt,d,0.555,vtsPrac,13,0,13,0,1,,,,,,,,,,,,,,,,,,,,,,,
294367,2022-09-25_21h33.18.984,vts_reward_expectancy,2022.2.4,MacIntel,14.92537313,Safari,1440,900,,,,,0,621,,,,,,,,,,,,,,,,,U,132,circle,0,0,,3,,,,,,,,,,,,,,repeat,letter,NA,d,0.546,vtsPrac,14,0,14,0,1,,,,,,,,,,,,,,,,,,,,,,,
294367,2022-09-25_21h33.18.984,vts_reward_expectancy,2022.2.4,MacIntel,14.92537313,Safari,1440,900,,,,,0,621,,,,,,,,,,,,,,,,,S,174,triangle,1,1,,3,,,,,,,,,,,,,,repeat,letter,lettRpt,f,0.494,vtsPrac,15,0,15,0,1,,,,,,,,,,,,,,,,,,,,,,,
294367,2022-09-25_21h33.18.984,vts_reward_expectancy,2022.2.4,MacIntel,14.92537313,Safari,1440,900,,,,,,,,,,,,,,,,,,,,,,,,,,,,,,,,,,,,,,,,,,,,,,,,,,,,,,,,,,,,,,,,,,,,,,,,,,,,
294367,2022-09-25_21h33.18.984,vts_reward_expectancy,2022.2.4,MacIntel,14.92537313,Safari,1440,900,,,,,,,,,,,,,,,,,,,,,,,,,,,,,,,,,,,,,,,,,,,,,,,,,,,,,,,,,,,,,,,,,,,,,,,,,,,,
294367,2022-09-25_21h33.18.984,vts_reward_expectancy,2022.2.4,MacIntel,14.92537313,Safari,1440,900,,,,,0,621,,,,,,,,,,,,,,,,,H,174,star,1,0,,,,,,,,,,,,,,,,repeat,letter,lettRpt,d,0.551,noRew,,,,,,0,0,0,0,0,1,,,,,,,,,,,,,,,,,
294367,2022-09-25_21h33.18.984,vts_reward_expectancy,2022.2.4,MacIntel,14.92537313,Safari,1440,900,,,,,0,621,,,,,,,,,,,,,,,,,B,139,circle,0,0,,,,,,,,,,,,,,,,switch,number,NA,k,0.493,noRew,,,,,,0,1,0,1,0,1,,,,,,,,,,,,,,,,,
294367,2022-09-25_21h33.18.984,vts_reward_expectancy,2022.2.4,MacIntel,14.92537313,Safari,1440,900,,,,,0,621,,,,,,,,,,,,,,,,,S,167,star,1,1,,,,,,,,,,,,,,,,repeat,number,numRpt,k,0.603,noRew,,,,,,0,2,0,2,0,1,,,,,,,,,,,,,,,,,
294367,2022-09-25_21h33.18.984,vts_reward_expectancy,2022.2.4,MacIntel,14.92537313,Safari,1440,900,,,,,0,621,,,,,,,,,,,,,,,,,U,181,circle,1,0,,,,,,,,,,,,,,,,repeat,number,numRpt,k,0.737,noRew,,,,,,0,3,0,3,0,1,,,,,,,,,,,,,,,,,
294367,2022-09-25_21h33.18.984,vts_reward_expectancy,2022.2.4,MacIntel,14.92537313,Safari,1440,900,,,,,0,621,,,,,,,,,,,,,,,,,H,174,circle,1,0,,,,,,,,,,,,,,,,switch,letter,lettSwt,d,0.466,noRew,,,,,,0,4,0,4,0,1,,,,,,,,,,,,,,,,,
294367,2022-09-25_21h33.18.984,vts_reward_expectancy,2022.2.4,MacIntel,14.92537313,Safari,1440,900,,,,,0,621,,,,,,,,,,,,,,,,,B,139,hexagon,1,0,,,,,,,,,,,,,,,,repeat,letter,lettRpt,d,0.521,noRew,,,,,,0,5,0,5,0,1,,,,,,,,,,,,,,,,,
294367,2022-09-25_21h33.18.984,vts_reward_expectancy,2022.2.4,MacIntel,14.92537313,Safari,1440,900,,,,,0,621,,,,,,,,,,,,,,,,,S,167,hexagon,1,0,,,,,,,,,,,,,,,,switch,number,numSwt,k,0.956,noRew,,,,,,0,6,0,6,0,1,,,,,,,,,,,,,,,,,
294367,2022-09-25_21h33.18.984,vts_reward_expectancy,2022.2.4,MacIntel,14.92537313,Safari,1440,900,,,,,0,621,,,,,,,,,,,,,,,,,U,181,circle,1,0,,,,,,,,,,,,,,,,switch,letter,lettSwt,f,0.937,noRew,,,,,,0,7,0,7,0,1,,,,,,,,,,,,,,,,,
294367,2022-09-25_21h33.18.984,vts_reward_expectancy,2022.2.4,MacIntel,14.92537313,Safari,1440,900,,,,,0,621,,,,,,,,,,,,,,,,,Y,125,star,0,0,,,,,,,,,,,,,,,,repeat,letter,NA,d,2.69,noRew,,,,,,0,8,0,8,0,1,,,,,,,,,,,,,,,,,
294367,2022-09-25_21h33.18.984,vts_reward_expectancy,2022.2.4,MacIntel,14.92537313,Safari,1440,900,,,,,0,621,,,,,,,,,,,,,,,,,B,167,circle,1,1,,,,,,,,,,,,,,,,repeat,letter,lettRpt,d,2.585,noRew,,,,,,0,9,0,9,0,1,,,,,,,,,,,,,,,,,
294367,2022-09-25_21h33.18.984,vts_reward_expectancy,2022.2.4,MacIntel,14.92537313,Safari,1440,900,,,,,0,621,,,,,,,,,,,,,,,,,W,132,hexagon,0,0,,,,,,,,,,,,,,,,switch,number,NA,k,1.379,noRew,,,,,,0,10,0,10,0,1,,,,,,,,,,,,,,,,,
294367,2022-09-25_21h33.18.984,vts_reward_expectancy,2022.2.4,MacIntel,14.92537313,Safari,1440,900,,,,,0,621,,,,,,,,,,,,,,,,,F,181,triangle,1,1,,,,,,,,,,,,,,,,repeat,number,numRpt,k,1.854,noRew,,,,,,0,11,0,11,0,1,,,,,,,,,,,,,,,,,
294367,2022-09-25_21h33.18.984,vts_reward_expectancy,2022.2.4,MacIntel,14.92537313,Safari,1440,900,,,,,0,621,,,,,,,,,,,,,,,,,D,174,hexagon,1,0,,,,,,,,,,,,,,,,switch,letter,lettSwt,d,0.756,noRew,,,,,,0,12,0,12,0,1,,,,,,,,,,,,,,,,,
294367,2022-09-25_21h33.18.984,vts_reward_expectancy,2022.2.4,MacIntel,14.92537313,Safari,1440,900,,,,,0,621,,,,,,,,,,,,,,,,,S,146,star,1,0,,,,,,,,,,,,,,,,repeat,letter,lettRpt,f,0.651,noRew,,,,,,0,13,0,13,0,1,,,,,,,,,,,,,,,,,
294367,2022-09-25_21h33.18.984,vts_reward_expectancy,2022.2.4,MacIntel,14.92537313,Safari,1440,900,,,,,0,621,,,,,,,,,,,,,,,,,W,132,triangle,1,0,,,,,,,,,,,,,,,,repeat,letter,lettRpt,f,1.282,noRew,,,,,,0,14,0,14,0,1,,,,,,,,,,,,,,,,,
294367,2022-09-25_21h33.18.984,vts_reward_expectancy,2022.2.4,MacIntel,14.92537313,Safari,1440,900,,,,,0,621,,,,,,,,,,,,,,,,,U,125,hexagon,1,0,,,,,,,,,,,,,,,,repeat,letter,lettRpt,f,0.799,noRew,,,,,,0,15,0,15,0,1,,,,,,,,,,,,,,,,,
294367,2022-09-25_21h33.18.984,vts_reward_expectancy,2022.2.4,MacIntel,14.92537313,Safari,1440,900,,,,,0,621,,,,,,,,,,,,,,,,,W,181,hexagon,1,0,,,,,,,,,,,,,,,,switch,number,numSwt,k,0.579,noRew,,,,,,0,16,0,16,0,1,,,,,,,,,,,,,,,,,
294367,2022-09-25_21h33.18.984,vts_reward_expectancy,2022.2.4,MacIntel,14.92537313,Safari,1440,900,,,,,0,621,,,,,,,,,,,,,,,,,S,132,triangle,1,0,,,,,,,,,,,,,,,,repeat,number,numRpt,j,0.65,noRew,,,,,,0,17,0,17,0,1,,,,,,,,,,,,,,,,,
294367,2022-09-25_21h33.18.984,vts_reward_expectancy,2022.2.4,MacIntel,14.92537313,Safari,1440,900,,,,,0,621,,,,,,,,,,,,,,,,,Y,146,hexagon,1,0,,,,,,,,,,,,,,,,repeat,number,numRpt,j,0.622,noRew,,,,,,0,18,0,18,0,1,,,,,,,,,,,,,,,,,
294367,2022-09-25_21h33.18.984,vts_reward_expectancy,2022.2.4,MacIntel,14.92537313,Safari,1440,900,,,,,0,621,,,,,,,,,,,,,,,,,D,125,star,1,0,,,,,,,,,,,,,,,,switch,letter,lettSwt,d,1.638,noRew,,,,,,0,19,0,19,0,1,,,,,,,,,,,,,,,,,
294367,2022-09-25_21h33.18.984,vts_reward_expectancy,2022.2.4,MacIntel,14.92537313,Safari,1440,900,,,,,0,621,,,,,,,,,,,,,,,,,S,139,circle,1,0,,,,,,,,,,,,,,,,repeat,letter,lettRpt,f,1.097,noRew,,,,,,0,20,0,20,0,1,,,,,,,,,,,,,,,,,
294367,2022-09-25_21h33.18.984,vts_reward_expectancy,2022.2.4,MacIntel,14.92537313,Safari,1440,900,,,,,0,621,,,,,,,,,,,,,,,,,B,181,star,1,0,,,,,,,,,,,,,,,,repeat,letter,lettRpt,d,0.593,noRew,,,,,,0,21,0,21,0,1,,,,,,,,,,,,,,,,,
294367,2022-09-25_21h33.18.984,vts_reward_expectancy,2022.2.4,MacIntel,14.92537313,Safari,1440,900,,,,,0,621,,,,,,,,,,,,,,,,,D,125,star,1,0,,,,,,,,,,,,,,,,repeat,letter,lettRpt,d,0.707,noRew,,,,,,0,22,0,22,0,1,,,,,,,,,,,,,,,,,
294367,2022-09-25_21h33.18.984,vts_reward_expectancy,2022.2.4,MacIntel,14.92537313,Safari,1440,900,,,,,0,621,,,,,,,,,,,,,,,,,F,160,hexagon,1,0,,,,,,,,,,,,,,,,repeat,letter,lettRpt,d,0.879,noRew,,,,,,0,23,0,23,0,1,,,,,,,,,,,,,,,,,
294367,2022-09-25_21h33.18.984,vts_reward_expectancy,2022.2.4,MacIntel,14.92537313,Safari,1440,900,,,,,0,621,,,,,,,,,,,,,,,,,H,181,hexagon,1,0,,,,,,,,,,,,,,,,switch,number,numSwt,k,0.849,noRew,,,,,,0,24,0,24,0,1,,,,,,,,,,,,,,,,,
294367,2022-09-25_21h33.18.984,vts_reward_expectancy,2022.2.4,MacIntel,14.92537313,Safari,1440,900,,,,,0,621,,,,,,,,,,,,,,,,,S,174,circle,1,0,,,,,,,,,,,,,,,,switch,letter,lettSwt,f,1.038,noRew,,,,,,0,25,0,25,0,1,,,,,,,,,,,,,,,,,
294367,2022-09-25_21h33.18.984,vts_reward_expectancy,2022.2.4,MacIntel,14.92537313,Safari,1440,900,,,,,0,621,,,,,,,,,,,,,,,,,B,146,hexagon,1,0,,,,,,,,,,,,,,,,switch,number,numSwt,j,1.687,noRew,,,,,,0,26,0,26,0,1,,,,,,,,,,,,,,,,,
294367,2022-09-25_21h33.18.984,vts_reward_expectancy,2022.2.4,MacIntel,14.92537313,Safari,1440,900,,,,,0,621,,,,,,,,,,,,,,,,,F,132,star,1,0,,,,,,,,,,,,,,,,switch,letter,lettSwt,d,1.937,noRew,,,,,,0,27,0,27,0,1,,,,,,,,,,,,,,,,,
294367,2022-09-25_21h33.18.984,vts_reward_expectancy,2022.2.4,MacIntel,14.92537313,Safari,1440,900,,,,,0,621,,,,,,,,,,,,,,,,,W,125,hexagon,1,0,,,,,,,,,,,,,,,,repeat,letter,lettRpt,f,0.692,noRew,,,,,,0,28,0,28,0,1,,,,,,,,,,,,,,,,,
294367,2022-09-25_21h33.18.984,vts_reward_expectancy,2022.2.4,MacIntel,14.92537313,Safari,1440,900,,,,,0,621,,,,,,,,,,,,,,,,,B,146,circle,1,0,,,,,,,,,,,,,,,,switch,number,numSwt,j,0.94,noRew,,,,,,0,29,0,29,0,1,,,,,,,,,,,,,,,,,
294367,2022-09-25_21h33.18.984,vts_reward_expectancy,2022.2.4,MacIntel,14.92537313,Safari,1440,900,,,,,0,621,,,,,,,,,,,,,,,,,H,139,star,0,0,,,,,,,,,,,,,,,,switch,letter,NA,f,0.779,noRew,,,,,,0,30,0,30,0,1,,,,,,,,,,,,,,,,,
294367,2022-09-25_21h33.18.984,vts_reward_expectancy,2022.2.4,MacIntel,14.92537313,Safari,1440,900,,,,,0,621,,,,,,,,,,,,,,,,,Y,167,hexagon,1,1,,,,,,,,,,,,,,,,repeat,letter,lettRpt,f,0.735,noRew,,,,,,0,31,0,31,0,1,,,,,,,,,,,,,,,,,
294367,2022-09-25_21h33.18.984,vts_reward_expectancy,2022.2.4,MacIntel,14.92537313,Safari,1440,900,,,,,0,621,,,,,,,,,,,,,,,,,W,174,star,1,0,,,,,,,,,,,,,,,,switch,number,numSwt,k,0.705,noRew,,,,,,0,32,0,32,0,1,,,,,,,,,,,,,,,,,
294367,2022-09-25_21h33.18.984,vts_reward_expectancy,2022.2.4,MacIntel,14.92537313,Safari,1440,900,,,,,0,621,,,,,,,,,,,,,,,,,D,125,circle,1,0,,,,,,,,,,,,,,,,repeat,number,numRpt,j,0.438,noRew,,,,,,0,33,0,33,0,1,,,,,,,,,,,,,,,,,
294367,2022-09-25_21h33.18.984,vts_reward_expectancy,2022.2.4,MacIntel,14.92537313,Safari,1440,900,,,,,0,621,,,,,,,,,,,,,,,,,Y,146,star,0,0,,,,,,,,,,,,,,,,repeat,number,NA,k,0.478,noRew,,,,,,0,34,0,34,0,1,,,,,,,,,,,,,,,,,
294367,2022-09-25_21h33.18.984,vts_reward_expectancy,2022.2.4,MacIntel,14.92537313,Safari,1440,900,,,,,0,621,,,,,,,,,,,,,,,,,U,181,hexagon,1,1,,,,,,,,,,,,,,,,repeat,number,numRpt,k,0.676,noRew,,,,,,0,35,0,35,0,1,,,,,,,,,,,,,,,,,
294367,2022-09-25_21h33.18.984,vts_reward_expectancy,2022.2.4,MacIntel,14.92537313,Safari,1440,900,,,,,0,621,,,,,,,,,,,,,,,,,W,181,hexagon,1,0,,,,,,,,,,,,,,,,switch,letter,lettSwt,f,0.618,noRew,,,,,,0,36,0,36,0,1,,,,,,,,,,,,,,,,,
294367,2022-09-25_21h33.18.984,vts_reward_expectancy,2022.2.4,MacIntel,14.92537313,Safari,1440,900,,,,,0,621,,,,,,,,,,,,,,,,,F,132,circle,1,0,,,,,,,,,,,,,,,,switch,number,numSwt,j,1.229,noRew,,,,,,0,37,0,37,0,1,,,,,,,,,,,,,,,,,
294367,2022-09-25_21h33.18.984,vts_reward_expectancy,2022.2.4,MacIntel,14.92537313,Safari,1440,900,,,,,0,621,,,,,,,,,,,,,,,,,D,125,star,1,0,,,,,,,,,,,,,,,,repeat,number,numRpt,j,0.581,noRew,,,,,,0,38,0,38,0,1,,,,,,,,,,,,,,,,,
294367,2022-09-25_21h33.18.984,vts_reward_expectancy,2022.2.4,MacIntel,14.92537313,Safari,1440,900,,,,,0,621,,,,,,,,,,,,,,,,,B,174,circle,1,0,,,,,,,,,,,,,,,,repeat,number,numRpt,k,0.592,noRew,,,,,,0,39,0,39,0,1,,,,,,,,,,,,,,,,,
294367,2022-09-25_21h33.18.984,vts_reward_expectancy,2022.2.4,MacIntel,14.92537313,Safari,1440,900,,,,,0,621,,,,,,,,,,,,,,,,,H,146,circle,1,0,,,,,,,,,,,,,,,,repeat,number,numRpt,j,0.611,noRew,,,,,,0,40,0,40,0,1,,,,,,,,,,,,,,,,,
294367,2022-09-25_21h33.18.984,vts_reward_expectancy,2022.2.4,MacIntel,14.92537313,Safari,1440,900,,,,,0,621,,,,,,,,,,,,,,,,,Y,139,star,1,0,,,,,,,,,,,,,,,,repeat,number,numRpt,j,0.575,noRew,,,,,,0,41,0,41,0,1,,,,,,,,,,,,,,,,,
294367,2022-09-25_21h33.18.984,vts_reward_expectancy,2022.2.4,MacIntel,14.92537313,Safari,1440,900,,,,,0,621,,,,,,,,,,,,,,,,,U,181,circle,1,0,,,,,,,,,,,,,,,,switch,letter,lettSwt,f,0.689,noRew,,,,,,0,42,0,42,0,1,,,,,,,,,,,,,,,,,
294367,2022-09-25_21h33.18.984,vts_reward_expectancy,2022.2.4,MacIntel,14.92537313,Safari,1440,900,,,,,0,621,,,,,,,,,,,,,,,,,W,174,star,1,0,,,,,,,,,,,,,,,,repeat,letter,lettRpt,f,0.611,noRew,,,,,,0,43,0,43,0,1,,,,,,,,,,,,,,,,,
294367,2022-09-25_21h33.18.984,vts_reward_expectancy,2022.2.4,MacIntel,14.92537313,Safari,1440,900,,,,,0,621,,,,,,,,,,,,,,,,,D,160,circle,1,0,,,,,,,,,,,,,,,,switch,number,numSwt,k,1.166,noRew,,,,,,0,44,0,44,0,1,,,,,,,,,,,,,,,,,
294367,2022-09-25_21h33.18.984,vts_reward_expectancy,2022.2.4,MacIntel,14.92537313,Safari,1440,900,,,,,0,621,,,,,,,,,,,,,,,,,B,174,star,1,0,,,,,,,,,,,,,,,,repeat,number,numRpt,k,0.852,noRew,,,,,,0,45,0,45,0,1,,,,,,,,,,,,,,,,,
294367,2022-09-25_21h33.18.984,vts_reward_expectancy,2022.2.4,MacIntel,14.92537313,Safari,1440,900,,,,,0,621,,,,,,,,,,,,,,,,,F,146,circle,1,0,,,,,,,,,,,,,,,,repeat,number,numRpt,j,0.658,noRew,,,,,,0,46,0,46,0,1,,,,,,,,,,,,,,,,,
294367,2022-09-25_21h33.18.984,vts_reward_expectancy,2022.2.4,MacIntel,14.92537313,Safari,1440,900,,,,,0,621,,,,,,,,,,,,,,,,,U,125,triangle,1,0,,,,,,,,,,,,,,,,switch,letter,lettSwt,f,0.725,noRew,,,,,,0,47,0,47,0,1,,,,,,,,,,,,,,,,,
294367,2022-09-25_21h33.18.984,vts_reward_expectancy,2022.2.4,MacIntel,14.92537313,Safari,1440,900,,,,,0,621,,,,,,,,,,,,,,,,,U,160,hexagon,1,0,,,,,,,,,,,,,,,,switch,number,numSwt,k,0.579,noRew,,,,,,0,48,0,48,0,1,,,,,,,,,,,,,,,,,
294367,2022-09-25_21h33.18.984,vts_reward_expectancy,2022.2.4,MacIntel,14.92537313,Safari,1440,900,,,,,0,621,,,,,,,,,,,,,,,,,S,132,triangle,1,0,,,,,,,,,,,,,,,,repeat,number,numRpt,j,0.814,noRew,,,,,,0,49,0,49,0,1,,,,,,,,,,,,,,,,,
294367,2022-09-25_21h33.18.984,vts_reward_expectancy,2022.2.4,MacIntel,14.92537313,Safari,1440,900,,,,,0,621,,,,,,,,,,,,,,,,,W,125,triangle,1,0,,,,,,,,,,,,,,,,repeat,number,numRpt,j,0.587,noRew,,,,,,0,50,0,50,0,1,,,,,,,,,,,,,,,,,
294367,2022-09-25_21h33.18.984,vts_reward_expectancy,2022.2.4,MacIntel,14.92537313,Safari,1440,900,,,,,0,621,,,,,,,,,,,,,,,,,H,167,star,0,0,,,,,,,,,,,,,,,,switch,letter,NA,f,0.774,noRew,,,,,,0,51,0,51,0,1,,,,,,,,,,,,,,,,,
294367,2022-09-25_21h33.18.984,vts_reward_expectancy,2022.2.4,MacIntel,14.92537313,Safari,1440,900,,,,,0,621,,,,,,,,,,,,,,,,,D,160,triangle,1,1,,,,,,,,,,,,,,,,repeat,letter,lettRpt,d,0.61,noRew,,,,,,0,52,0,52,0,1,,,,,,,,,,,,,,,,,
294367,2022-09-25_21h33.18.984,vts_reward_expectancy,2022.2.4,MacIntel,14.92537313,Safari,1440,900,,,,,0,621,,,,,,,,,,,,,,,,,W,181,star,1,0,,,,,,,,,,,,,,,,repeat,letter,lettRpt,f,0.596,noRew,,,,,,0,53,0,53,0,1,,,,,,,,,,,,,,,,,
294367,2022-09-25_21h33.18.984,vts_reward_expectancy,2022.2.4,MacIntel,14.92537313,Safari,1440,900,,,,,0,621,,,,,,,,,,,,,,,,,Y,139,hexagon,1,0,,,,,,,,,,,,,,,,switch,number,numSwt,j,0.737,noRew,,,,,,0,54,0,54,0,1,,,,,,,,,,,,,,,,,
294367,2022-09-25_21h33.18.984,vts_reward_expectancy,2022.2.4,MacIntel,14.92537313,Safari,1440,900,,,,,0,621,,,,,,,,,,,,,,,,,S,125,circle,1,0,,,,,,,,,,,,,,,,switch,letter,lettSwt,f,0.692,noRew,,,,,,0,55,0,55,0,1,,,,,,,,,,,,,,,,,
294367,2022-09-25_21h33.18.984,vts_reward_expectancy,2022.2.4,MacIntel,14.92537313,Safari,1440,900,,,,,0,621,,,,,,,,,,,,,,,,,U,139,star,1,0,,,,,,,,,,,,,,,,repeat,letter,lettRpt,f,0.583,noRew,,,,,,0,56,0,56,0,1,,,,,,,,,,,,,,,,,
294367,2022-09-25_21h33.18.984,vts_reward_expectancy,2022.2.4,MacIntel,14.92537313,Safari,1440,900,,,,,0,621,,,,,,,,,,,,,,,,,Y,167,circle,1,0,,,,,,,,,,,,,,,,repeat,letter,lettRpt,f,0.843,noRew,,,,,,0,57,0,57,0,1,,,,,,,,,,,,,,,,,
294367,2022-09-25_21h33.18.984,vts_reward_expectancy,2022.2.4,MacIntel,14.92537313,Safari,1440,900,,,,,0,621,,,,,,,,,,,,,,,,,B,174,triangle,1,0,,,,,,,,,,,,,,,,switch,number,numSwt,k,0.84,noRew,,,,,,0,58,0,58,0,1,,,,,,,,,,,,,,,,,
294367,2022-09-25_21h33.18.984,vts_reward_expectancy,2022.2.4,MacIntel,14.92537313,Safari,1440,900,,,,,0,621,,,,,,,,,,,,,,,,,D,160,circle,0,0,,,,,,,,,,,,,,,,switch,letter,NA,f,0.609,noRew,,,,,,0,59,0,59,0,1,,,,,,,,,,,,,,,,,
294367,2022-09-25_21h33.18.984,vts_reward_expectancy,2022.2.4,MacIntel,14.92537313,Safari,1440,900,,,,,0,621,,,,,,,,,,,,,,,,,H,132,triangle,1,1,,,,,,,,,,,,,,,,repeat,letter,lettRpt,d,0.613,noRew,,,,,,0,60,0,60,0,1,,,,,,,,,,,,,,,,,
294367,2022-09-25_21h33.18.984,vts_reward_expectancy,2022.2.4,MacIntel,14.92537313,Safari,1440,900,,,,,0,621,,,,,,,,,,,,,,,,,W,181,circle,0,0,,,,,,,,,,,,,,,,switch,number,NA,j,0.775,noRew,,,,,,0,61,0,61,0,1,,,,,,,,,,,,,,,,,
294367,2022-09-25_21h33.18.984,vts_reward_expectancy,2022.2.4,MacIntel,14.92537313,Safari,1440,900,,,,,0,621,,,,,,,,,,,,,,,,,F,146,hexagon,1,1,,,,,,,,,,,,,,,,repeat,number,numRpt,j,0.957,noRew,,,,,,0,62,0,62,0,1,,,,,,,,,,,,,,,,,
294367,2022-09-25_21h33.18.984,vts_reward_expectancy,2022.2.4,MacIntel,14.92537313,Safari,1440,900,,,,,0,621,,,,,,,,,,,,,,,,,B,167,circle,1,0,,,,,,,,,,,,,,,,repeat,number,numRpt,k,0.787,noRew,,,,,,0,63,0,63,0,1,,,,,,,,,,,,,,,,,
294367,2022-09-25_21h33.18.984,vts_reward_expectancy,2022.2.4,MacIntel,14.92537313,Safari,1440,900,,,,,,,,,,,,,,,,,,,,,,,,,,,,,,,,,,,,,,,,,,,,,,,,,,,,,,,,,,,,,,,,,,,,,,,,,,,,
294367,2022-09-25_21h33.18.984,vts_reward_expectancy,2022.2.4,MacIntel,14.92537313,Safari,1440,900,,,,,0,621,,,,,,,,,,,,,,,,,H,132,circle,1,0,,,,,,,,,,,,,,,,switch,letter,lettSwt,d,0.856,Hi,,,,,,0,,,,,,space,7.715,low,0,0,0,0,1,,,,,,,,,
294367,2022-09-25_21h33.18.984,vts_reward_expectancy,2022.2.4,MacIntel,14.92537313,Safari,1440,900,,,,,1,622,,,,,,,,,,,,,,,,,Y,139,star,1,0,,,,,,,,,,,,,,,,switch,number,numSwt,j,0.499,Lo,,,,,,0,,,,,,,,low,1,0,1,0,1,,,,,,,,,
294367,2022-09-25_21h33.18.984,vts_reward_expectancy,2022.2.4,MacIntel,14.92537313,Safari,1440,900,,,,,10,632,,,,,,,,,,,,,,,,,S,160,circle,1,0,,,,,,,,,,,,,,,,repeat,number,numRpt,k,0.459,Hi,,,,,,0,,,,,,,,low,2,0,2,0,1,,,,,,,,,
294367,2022-09-25_21h33.18.984,vts_reward_expectancy,2022.2.4,MacIntel,14.92537313,Safari,1440,900,,,,,0,632,,,,,,,,,,,,,,,,,W,181,star,0,0,,,,,,,,,,,,,,,,switch,letter,NA,d,0.693,Hi,,,,,,0,,,,,,,,low,3,0,3,0,1,,,,,,,,,
294367,2022-09-25_21h33.18.984,vts_reward_expectancy,2022.2.4,MacIntel,14.92537313,Safari,1440,900,,,,,1,633,,,,,,,,,,,,,,,,,D,146,star,1,1,,,,,,,,,,,,,,,,switch,number,numSwt,j,0.68,Lo,,,,,,0,,,,,,,,low,4,0,4,0,1,,,,,,,,,
294367,2022-09-25_21h33.18.984,vts_reward_expectancy,2022.2.4,MacIntel,14.92537313,Safari,1440,900,,,,,10,643,,,,,,,,,,,,,,,,,B,125,circle,1,0,,,,,,,,,,,,,,,,switch,letter,lettSwt,d,0.636,Hi,,,,,,0,,,,,,,,low,5,0,5,0,1,,,,,,,,,
294367,2022-09-25_21h33.18.984,vts_reward_expectancy,2022.2.4,MacIntel,14.92537313,Safari,1440,900,,,,,0,643,,,,,,,,,,,,,,,,,F,167,circle,1,0,,,,,,,,,,,,,,,,repeat,letter,lettRpt,d,0.7,Hi,,,,,,0,,,,,,,,low,6,0,6,0,1,,,,,,,,,
294367,2022-09-25_21h33.18.984,vts_reward_expectancy,2022.2.4,MacIntel,14.92537313,Safari,1440,900,,,,,10,653,,,,,,,,,,,,,,,,,U,174,star,1,0,,,,,,,,,,,,,,,,switch,number,numSwt,k,0.713,Lo,,,,,,0,,,,,,,,low,7,0,7,0,1,,,,,,,,,
294367,2022-09-25_21h33.18.984,vts_reward_expectancy,2022.2.4,MacIntel,14.92537313,Safari,1440,900,,,,,1,654,,,,,,,,,,,,,,,,,H,132,star,1,0,,,,,,,,,,,,,,,,repeat,number,numRpt,j,0.417,Lo,,,,,,0,,,,,,,,low,8,0,8,0,1,,,,,,,,,
294367,2022-09-25_21h33.18.984,vts_reward_expectancy,2022.2.4,MacIntel,14.92537313,Safari,1440,900,,,,,10,664,,,,,,,,,,,,,,,,,Y,139,circle,1,0,,,,,,,,,,,,,,,,switch,letter,lettSwt,f,0.659,Hi,,,,,,0,,,,,,,,low,9,0,9,0,1,,,,,,,,,
294367,2022-09-25_21h33.18.984,vts_reward_expectancy,2022.2.4,MacIntel,14.92537313,Safari,1440,900,,,,,1,665,,,,,,,,,,,,,,,,,S,160,star,1,0,,,,,,,,,,,,,,,,switch,number,numSwt,k,0.558,Lo,,,,,,0,,,,,,,,low,10,0,10,0,1,,,,,,,,,
294367,2022-09-25_21h33.18.984,vts_reward_expectancy,2022.2.4,MacIntel,14.92537313,Safari,1440,900,,,,,0,665,,,,,,,,,,,,,,,,,W,181,circle,1,0,,,,,,,,,,,,,,,,repeat,number,numRpt,k,0.804,Hi,,,,,,0,,,,,,,,low,11,0,11,0,1,,,,,,,,,
294367,2022-09-25_21h33.18.984,vts_reward_expectancy,2022.2.4,MacIntel,14.92537313,Safari,1440,900,,,,,0,665,,,,,,,,,,,,,,,,,D,146,circle,1,0,,,,,,,,,,,,,,,,repeat,number,numRpt,j,0.618,Hi,,,,,,0,,,,,,,,low,12,0,12,0,1,,,,,,,,,
294367,2022-09-25_21h33.18.984,vts_reward_expectancy,2022.2.4,MacIntel,14.92537313,Safari,1440,900,,,,,1,666,,,,,,,,,,,,,,,,,B,125,star,1,0,,,,,,,,,,,,,,,,repeat,number,numRpt,j,0.469,Lo,,,,,,0,,,,,,,,low,13,0,13,0,1,,,,,,,,,
294367,2022-09-25_21h33.18.984,vts_reward_expectancy,2022.2.4,MacIntel,14.92537313,Safari,1440,900,,,,,1,667,,,,,,,,,,,,,,,,,F,167,circle,1,0,,,,,,,,,,,,,,,,switch,letter,lettSwt,d,0.442,Hi,,,,,,0,,,,,,,,low,14,0,14,0,1,,,,,,,,,
294367,2022-09-25_21h33.18.984,vts_reward_expectancy,2022.2.4,MacIntel,14.92537313,Safari,1440,900,,,,,1,668,,,,,,,,,,,,,,,,,U,174,star,1,0,,,,,,,,,,,,,,,,repeat,letter,lettRpt,f,0.493,Lo,,,,,,0,,,,,,,,low,15,0,15,0,1,,,,,,,,,
294367,2022-09-25_21h33.18.984,vts_reward_expectancy,2022.2.4,MacIntel,14.92537313,Safari,1440,900,,,,,1,669,,,,,,,,,,,,,,,,,W,146,star,1,0,,,,,,,,,,,,,,,,switch,number,numSwt,j,0.497,Lo,,,,,,0,,,,,,,,low,16,0,16,0,1,,,,,,,,,
294367,2022-09-25_21h33.18.984,vts_reward_expectancy,2022.2.4,MacIntel,14.92537313,Safari,1440,900,,,,,10,679,,,,,,,,,,,,,,,,,Y,160,circle,1,0,,,,,,,,,,,,,,,,repeat,number,numRpt,k,0.43,Hi,,,,,,0,,,,,,,,low,17,0,17,0,1,,,,,,,,,
294367,2022-09-25_21h33.18.984,vts_reward_expectancy,2022.2.4,MacIntel,14.92537313,Safari,1440,900,,,,,0,679,,,,,,,,,,,,,,,,,U,132,circle,0,0,,,,,,,,,,,,,,,,switch,letter,NA,d,0.393,Hi,,,,,,0,,,,,,,,low,18,0,18,0,1,,,,,,,,,
294367,2022-09-25_21h33.18.984,vts_reward_expectancy,2022.2.4,MacIntel,14.92537313,Safari,1440,900,,,,,0,679,,,,,,,,,,,,,,,,,F,139,star,0,1,,,,,,,,,,,,,,,,repeat,letter,NA,f,0.449,Hi,,,,,,0,,,,,,,,low,19,0,19,0,1,,,,,,,,,
294367,2022-09-25_21h33.18.984,vts_reward_expectancy,2022.2.4,MacIntel,14.92537313,Safari,1440,900,,,,,10,689,,,,,,,,,,,,,,,,,S,174,star,1,1,,,,,,,,,,,,,,,,repeat,letter,lettRpt,f,0.627,Lo,,,,,,0,,,,,,,,low,20,0,20,0,1,,,,,,,,,
294367,2022-09-25_21h33.18.984,vts_reward_expectancy,2022.2.4,MacIntel,14.92537313,Safari,1440,900,,,,,10,699,,,,,,,,,,,,,,,,,B,125,circle,1,0,,,,,,,,,,,,,,,,repeat,letter,lettRpt,d,0.534,Hi,,,,,,0,,,,,,,,low,21,0,21,0,1,,,,,,,,,
294367,2022-09-25_21h33.18.984,vts_reward_expectancy,2022.2.4,MacIntel,14.92537313,Safari,1440,900,,,,,1,700,,,,,,,,,,,,,,,,,D,167,star,1,0,,,,,,,,,,,,,,,,switch,number,numSwt,k,0.557,Lo,,,,,,0,,,,,,,,low,22,0,22,0,1,,,,,,,,,
294367,2022-09-25_21h33.18.984,vts_reward_expectancy,2022.2.4,MacIntel,14.92537313,Safari,1440,900,,,,,0,700,,,,,,,,,,,,,,,,,H,181,circle,0,0,,,,,,,,,,,,,,,,switch,letter,NA,f,0.786,Lo,,,,,,0,,,,,,,,low,23,0,23,0,1,,,,,,,,,
294367,2022-09-25_21h33.18.984,vts_reward_expectancy,2022.2.4,MacIntel,14.92537313,Safari,1440,900,,,,,1,701,,,,,,,,,,,,,,,,,H,181,star,1,1,,,,,,,,,,,,,,,,repeat,letter,lettRpt,d,0.533,Lo,,,,,,0,,,,,,,,low,24,0,24,0,1,,,,,,,,,
294367,2022-09-25_21h33.18.984,vts_reward_expectancy,2022.2.4,MacIntel,14.92537313,Safari,1440,900,,,,,1,702,,,,,,,,,,,,,,,,,D,132,circle,1,0,,,,,,,,,,,,,,,,switch,number,numSwt,j,0.674,Hi,,,,,,0,,,,,,,,low,25,0,25,0,1,,,,,,,,,
294367,2022-09-25_21h33.18.984,vts_reward_expectancy,2022.2.4,MacIntel,14.92537313,Safari,1440,900,,,,,10,712,,,,,,,,,,,,,,,,,Y,139,star,1,0,,,,,,,,,,,,,,,,switch,letter,lettSwt,f,0.756,Lo,,,,,,0,,,,,,,,low,26,0,26,0,1,,,,,,,,,
294367,2022-09-25_21h33.18.984,vts_reward_expectancy,2022.2.4,MacIntel,14.92537313,Safari,1440,900,,,,,10,722,,,,,,,,,,,,,,,,,S,160,circle,1,0,,,,,,,,,,,,,,,,repeat,letter,lettRpt,f,0.556,Hi,,,,,,0,,,,,,,,low,27,0,27,0,1,,,,,,,,,
294367,2022-09-25_21h33.18.984,vts_reward_expectancy,2022.2.4,MacIntel,14.92537313,Safari,1440,900,,,,,0,722,,,,,,,,,,,,,,,,,U,174,circle,1,0,,,,,,,,,,,,,,,,repeat,letter,lettRpt,f,0.634,Hi,,,,,,0,,,,,,,,low,28,0,28,0,1,,,,,,,,,
294367,2022-09-25_21h33.18.984,vts_reward_expectancy,2022.2.4,MacIntel,14.92537313,Safari,1440,900,,,,,0,722,,,,,,,,,,,,,,,,,F,146,star,0,0,,,,,,,,,,,,,,,,switch,number,NA,k,0.891,Hi,,,,,,0,,,,,,,,low,29,0,29,0,1,,,,,,,,,
294367,2022-09-25_21h33.18.984,vts_reward_expectancy,2022.2.4,MacIntel,14.92537313,Safari,1440,900,,,,,1,723,,,,,,,,,,,,,,,,,W,125,star,1,1,,,,,,,,,,,,,,,,repeat,number,numRpt,j,0.536,Lo,,,,,,0,,,,,,,,low,30,0,30,0,1,,,,,,,,,
294367,2022-09-25_21h33.18.984,vts_reward_expectancy,2022.2.4,MacIntel,14.92537313,Safari,1440,900,,,,,0,723,,,,,,,,,,,,,,,,,B,167,circle,1,0,,,,,,,,,,,,,,,,switch,letter,lettSwt,d,0.739,Hi,,,,,,0,,,,,,,,low,31,0,31,0,1,,,,,,,,,
294367,2022-09-25_21h33.18.984,vts_reward_expectancy,2022.2.4,MacIntel,14.92537313,Safari,1440,900,,,,,1,724,,,,,,,,,,,,,,,,,B,160,triangle,1,0,,,,,,,,,,,,,,,,repeat,letter,lettRpt,d,0.559,Lo,,,,,,1,,,,,,space,3.437,high,0,0,0,0,1,,,,,,,,,
294367,2022-09-25_21h33.18.984,vts_reward_expectancy,2022.2.4,MacIntel,14.92537313,Safari,1440,900,,,,,0,724,,,,,,,,,,,,,,,,,H,125,hexagon,1,0,,,,,,,,,,,,,,,,repeat,letter,lettRpt,d,1.036,Hi,,,,,,1,,,,,,,,high,1,0,1,0,1,,,,,,,,,
294367,2022-09-25_21h33.18.984,vts_reward_expectancy,2022.2.4,MacIntel,14.92537313,Safari,1440,900,,,,,1,725,,,,,,,,,,,,,,,,,F,146,triangle,1,0,,,,,,,,,,,,,,,,repeat,letter,lettRpt,d,0.644,Lo,,,,,,1,,,,,,,,high,2,0,2,0,1,,,,,,,,,
294367,2022-09-25_21h33.18.984,vts_reward_expectancy,2022.2.4,MacIntel,14.92537313,Safari,1440,900,,,,,0,725,,,,,,,,,,,,,,,,,W,167,hexagon,0,0,,,,,,,,,,,,,,,,switch,number,NA,j,0.622,Lo,,,,,,1,,,,,,,,high,3,0,3,0,1,,,,,,,,,
294367,2022-09-25_21h33.18.984,vts_reward_expectancy,2022.2.4,MacIntel,14.92537313,Safari,1440,900,,,,,1,726,,,,,,,,,,,,,,,,,U,181,triangle,1,1,,,,,,,,,,,,,,,,switch,letter,lettSwt,f,0.74,Lo,,,,,,1,,,,,,,,high,4,0,4,0,1,,,,,,,,,
294367,2022-09-25_21h33.18.984,vts_reward_expectancy,2022.2.4,MacIntel,14.92537313,Safari,1440,900,,,,,0,726,,,,,,,,,,,,,,,,,D,132,hexagon,1,0,,,,,,,,,,,,,,,,switch,number,numSwt,j,0.582,Hi,,,,,,1,,,,,,,,high,5,0,5,0,1,,,,,,,,,
294367,2022-09-25_21h33.18.984,vts_reward_expectancy,2022.2.4,MacIntel,14.92537313,Safari,1440,900,,,,,10,736,,,,,,,,,,,,,,,,,Y,174,hexagon,1,0,,,,,,,,,,,,,,,,repeat,number,numRpt,k,0.447,Hi,,,,,,1,,,,,,,,high,6,0,6,0,1,,,,,,,,,
294367,2022-09-25_21h33.18.984,vts_reward_expectancy,2022.2.4,MacIntel,14.92537313,Safari,1440,900,,,,,10,746,,,,,,,,,,,,,,,,,S,139,triangle,1,0,,,,,,,,,,,,,,,,repeat,number,numRpt,j,0.514,Lo,,,,,,1,,,,,,,,high,7,0,7,0,1,,,,,,,,,
294367,2022-09-25_21h33.18.984,vts_reward_expectancy,2022.2.4,MacIntel,14.92537313,Safari,1440,900,,,,,0,746,,,,,,,,,,,,,,,,,B,160,hexagon,0,0,,,,,,,,,,,,,,,,repeat,number,NA,j,0.5,Lo,,,,,,1,,,,,,,,high,8,0,8,0,1,,,,,,,,,
294367,2022-09-25_21h33.18.984,vts_reward_expectancy,2022.2.4,MacIntel,14.92537313,Safari,1440,900,,,,,1,747,,,,,,,,,,,,,,,,,H,125,triangle,1,1,,,,,,,,,,,,,,,,repeat,number,numRpt,j,0.445,Lo,,,,,,1,,,,,,,,high,9,0,9,0,1,,,,,,,,,
294367,2022-09-25_21h33.18.984,vts_reward_expectancy,2022.2.4,MacIntel,14.92537313,Safari,1440,900,,,,,0,747,,,,,,,,,,,,,,,,,F,146,hexagon,1,0,,,,,,,,,,,,,,,,switch,letter,lettSwt,d,0.805,Hi,,,,,,1,,,,,,,,high,10,0,10,0,1,,,,,,,,,
294367,2022-09-25_21h33.18.984,vts_reward_expectancy,2022.2.4,MacIntel,14.92537313,Safari,1440,900,,,,,10,757,,,,,,,,,,,,,,,,,W,167,triangle,1,0,,,,,,,,,,,,,,,,repeat,letter,lettRpt,f,0.756,Lo,,,,,,1,,,,,,,,high,11,0,11,0,1,,,,,,,,,
294367,2022-09-25_21h33.18.984,vts_reward_expectancy,2022.2.4,MacIntel,14.92537313,Safari,1440,900,,,,,10,767,,,,,,,,,,,,,,,,,U,181,triangle,1,0,,,,,,,,,,,,,,,,switch,number,numSwt,k,0.504,Lo,,,,,,1,,,,,,,,high,12,0,12,0,1,,,,,,,,,
294367,2022-09-25_21h33.18.984,vts_reward_expectancy,2022.2.4,MacIntel,14.92537313,Safari,1440,900,,,,,10,777,,,,,,,,,,,,,,,,,D,132,hexagon,1,0,,,,,,,,,,,,,,,,switch,letter,lettSwt,d,0.514,Hi,,,,,,1,,,,,,,,high,13,0,13,0,1,,,,,,,,,
294367,2022-09-25_21h33.18.984,vts_reward_expectancy,2022.2.4,MacIntel,14.92537313,Safari,1440,900,,,,,0,777,,,,,,,,,,,,,,,,,Y,174,hexagon,1,0,,,,,,,,,,,,,,,,repeat,letter,lettRpt,f,0.548,Hi,,,,,,1,,,,,,,,high,14,0,14,0,1,,,,,,,,,
294367,2022-09-25_21h33.18.984,vts_reward_expectancy,2022.2.4,MacIntel,14.92537313,Safari,1440,900,,,,,0,777,,,,,,,,,,,,,,,,,S,139,triangle,0,0,,,,,,,,,,,,,,,,repeat,letter,NA,d,0.576,Hi,,,,,,1,,,,,,,,high,15,0,15,0,1,,,,,,,,,
294367,2022-09-25_21h33.18.984,vts_reward_expectancy,2022.2.4,MacIntel,14.92537313,Safari,1440,900,,,,,0,777,,,,,,,,,,,,,,,,,F,132,hexagon,1,1,,,,,,,,,,,,,,,,repeat,letter,lettRpt,d,0.6,Hi,,,,,,1,,,,,,,,high,16,0,16,0,1,,,,,,,,,
294367,2022-09-25_21h33.18.984,vts_reward_expectancy,2022.2.4,MacIntel,14.92537313,Safari,1440,900,,,,,1,778,,,,,,,,,,,,,,,,,S,160,triangle,1,0,,,,,,,,,,,,,,,,switch,number,numSwt,k,0.645,Lo,,,,,,1,,,,,,,,high,17,0,17,0,1,,,,,,,,,
294367,2022-09-25_21h33.18.984,vts_reward_expectancy,2022.2.4,MacIntel,14.92537313,Safari,1440,900,,,,,0,778,,,,,,,,,,,,,,,,,B,181,hexagon,1,0,,,,,,,,,,,,,,,,switch,letter,lettSwt,d,0.937,Hi,,,,,,1,,,,,,,,high,18,0,18,0,1,,,,,,,,,
294367,2022-09-25_21h33.18.984,vts_reward_expectancy,2022.2.4,MacIntel,14.92537313,Safari,1440,900,,,,,1,779,,,,,,,,,,,,,,,,,H,167,triangle,1,0,,,,,,,,,,,,,,,,switch,number,numSwt,k,0.511,Lo,,,,,,1,,,,,,,,high,19,0,19,0,1,,,,,,,,,
294367,2022-09-25_21h33.18.984,vts_reward_expectancy,2022.2.4,MacIntel,14.92537313,Safari,1440,900,,,,,0,779,,,,,,,,,,,,,,,,,Y,146,hexagon,1,0,,,,,,,,,,,,,,,,repeat,number,numRpt,j,0.633,Hi,,,,,,1,,,,,,,,high,20,0,20,0,1,,,,,,,,,
294367,2022-09-25_21h33.18.984,vts_reward_expectancy,2022.2.4,MacIntel,14.92537313,Safari,1440,900,,,,,10,789,,,,,,,,,,,,,,,,,W,139,triangle,1,0,,,,,,,,,,,,,,,,switch,letter,lettSwt,f,0.514,Lo,,,,,,1,,,,,,,,high,21,0,21,0,1,,,,,,,,,
294367,2022-09-25_21h33.18.984,vts_reward_expectancy,2022.2.4,MacIntel,14.92537313,Safari,1440,900,,,,,1,790,,,,,,,,,,,,,,,,,D,174,triangle,1,0,,,,,,,,,,,,,,,,switch,number,numSwt,k,0.555,Lo,,,,,,1,,,,,,,,high,22,0,22,0,1,,,,,,,,,
294367,2022-09-25_21h33.18.984,vts_reward_expectancy,2022.2.4,MacIntel,14.92537313,Safari,1440,900,,,,,1,791,,,,,,,,,,,,,,,,,U,125,hexagon,1,0,,,,,,,,,,,,,,,,switch,letter,lettSwt,f,0.642,Hi,,,,,,1,,,,,,,,high,23,0,23,0,1,,,,,,,,,
294367,2022-09-25_21h33.18.984,vts_reward_expectancy,2022.2.4,MacIntel,14.92537313,Safari,1440,900,,,,,10,801,,,,,,,,,,,,,,,,,W,167,triangle,1,0,,,,,,,,,,,,,,,,switch,number,numSwt,k,0.58,Lo,,,,,,1,,,,,,,,high,24,0,24,0,1,,,,,,,,,
294367,2022-09-25_21h33.18.984,vts_reward_expectancy,2022.2.4,MacIntel,14.92537313,Safari,1440,900,,,,,10,811,,,,,,,,,,,,,,,,,B,160,hexagon,1,0,,,,,,,,,,,,,,,,switch,letter,lettSwt,d,0.505,Hi,,,,,,1,,,,,,,,high,25,0,25,0,1,,,,,,,,,
294367,2022-09-25_21h33.18.984,vts_reward_expectancy,2022.2.4,MacIntel,14.92537313,Safari,1440,900,,,,,0,811,,,,,,,,,,,,,,,,,D,174,hexagon,1,0,,,,,,,,,,,,,,,,repeat,letter,lettRpt,d,0.54,Hi,,,,,,1,,,,,,,,high,26,0,26,0,1,,,,,,,,,
294367,2022-09-25_21h33.18.984,vts_reward_expectancy,2022.2.4,MacIntel,14.92537313,Safari,1440,900,,,,,1,812,,,,,,,,,,,,,,,,,Y,125,triangle,1,0,,,,,,,,,,,,,,,,repeat,letter,lettRpt,f,0.55,Lo,,,,,,1,,,,,,,,high,27,0,27,0,1,,,,,,,,,
294367,2022-09-25_21h33.18.984,vts_reward_expectancy,2022.2.4,MacIntel,14.92537313,Safari,1440,900,,,,,1,813,,,,,,,,,,,,,,,,,F,132,triangle,1,0,,,,,,,,,,,,,,,,switch,number,numSwt,j,0.598,Lo,,,,,,1,,,,,,,,high,28,0,28,0,1,,,,,,,,,
294367,2022-09-25_21h33.18.984,vts_reward_expectancy,2022.2.4,MacIntel,14.92537313,Safari,1440,900,,,,,10,823,,,,,,,,,,,,,,,,,H,181,hexagon,1,0,,,,,,,,,,,,,,,,switch,letter,lettSwt,d,0.535,Hi,,,,,,1,,,,,,,,high,29,0,29,0,1,,,,,,,,,
294367,2022-09-25_21h33.18.984,vts_reward_expectancy,2022.2.4,MacIntel,14.92537313,Safari,1440,900,,,,,1,824,,,,,,,,,,,,,,,,,U,139,triangle,1,0,,,,,,,,,,,,,,,,switch,number,numSwt,j,0.582,Lo,,,,,,1,,,,,,,,high,30,0,30,0,1,,,,,,,,,
294367,2022-09-25_21h33.18.984,vts_reward_expectancy,2022.2.4,MacIntel,14.92537313,Safari,1440,900,,,,,10,834,,,,,,,,,,,,,,,,,S,146,hexagon,1,0,,,,,,,,,,,,,,,,switch,letter,lettSwt,f,0.596,Hi,,,,,,1,,,,,,,,high,31,0,31,0,1,,,,,,,,,
294367,2022-09-25_21h33.18.984,vts_reward_expectancy,2022.2.4,MacIntel,14.92537313,Safari,1440,900,,,,,0,834,,,,,,,,,,,,,,,,,U,167,hexagon,1,0,,,,,,,,,,,,,,,,repeat,letter,lettRpt,f,0.594,Hi,,,,,,2,,,,,,space,2.86,high,0,0,0,0,1,,,,,,,,,
294367,2022-09-25_21h33.18.984,vts_reward_expectancy,2022.2.4,MacIntel,14.92537313,Safari,1440,900,,,,,0,834,,,,,,,,,,,,,,,,,H,139,triangle,0,0,,,,,,,,,,,,,,,,switch,number,NA,k,0.314,Hi,,,,,,2,,,,,,,,high,1,0,1,0,1,,,,,,,,,
294367,2022-09-25_21h33.18.984,vts_reward_expectancy,2022.2.4,MacIntel,14.92537313,Safari,1440,900,,,,,10,844,,,,,,,,,,,,,,,,,B,181,hexagon,1,1,,,,,,,,,,,,,,,,repeat,number,numRpt,k,0.44,Hi,,,,,,2,,,,,,,,high,2,0,2,0,1,,,,,,,,,
294367,2022-09-25_21h33.18.984,vts_reward_expectancy,2022.2.4,MacIntel,14.92537313,Safari,1440,900,,,,,1,845,,,,,,,,,,,,,,,,,D,146,triangle,1,0,,,,,,,,,,,,,,,,repeat,number,numRpt,j,0.392,Lo,,,,,,2,,,,,,,,high,3,0,3,0,1,,,,,,,,,
294367,2022-09-25_21h33.18.984,vts_reward_expectancy,2022.2.4,MacIntel,14.92537313,Safari,1440,900,,,,,10,855,,,,,,,,,,,,,,,,,F,132,hexagon,1,0,,,,,,,,,,,,,,,,switch,letter,lettSwt,d,0.492,Hi,,,,,,2,,,,,,,,high,4,0,4,0,1,,,,,,,,,
294367,2022-09-25_21h33.18.984,vts_reward_expectancy,2022.2.4,MacIntel,14.92537313,Safari,1440,900,,,,,1,856,,,,,,,,,,,,,,,,,W,174,triangle,1,0,,,,,,,,,,,,,,,,switch,number,numSwt,k,0.526,Lo,,,,,,2,,,,,,,,high,5,0,5,0,1,,,,,,,,,
294367,2022-09-25_21h33.18.984,vts_reward_expectancy,2022.2.4,MacIntel,14.92537313,Safari,1440,900,,,,,1,857,,,,,,,,,,,,,,,,,Y,125,triangle,1,0,,,,,,,,,,,,,,,,switch,letter,lettSwt,f,0.756,Lo,,,,,,2,,,,,,,,high,6,0,6,0,1,,,,,,,,,
294367,2022-09-25_21h33.18.984,vts_reward_expectancy,2022.2.4,MacIntel,14.92537313,Safari,1440,900,,,,,0,857,,,,,,,,,,,,,,,,,S,160,hexagon,1,0,,,,,,,,,,,,,,,,repeat,letter,lettRpt,f,0.719,Hi,,,,,,2,,,,,,,,high,7,0,7,0,1,,,,,,,,,
294367,2022-09-25_21h33.18.984,vts_reward_expectancy,2022.2.4,MacIntel,14.92537313,Safari,1440,900,,,,,10,867,,,,,,,,,,,,,,,,,U,167,hexagon,1,0,,,,,,,,,,,,,,,,switch,number,numSwt,k,0.454,Hi,,,,,,2,,,,,,,,high,8,0,8,0,1,,,,,,,,,
294367,2022-09-25_21h33.18.984,vts_reward_expectancy,2022.2.4,MacIntel,14.92537313,Safari,1440,900,,,,,1,868,,,,,,,,,,,,,,,,,H,139,triangle,1,0,,,,,,,,,,,,,,,,switch,letter,lettSwt,d,0.575,Lo,,,,,,2,,,,,,,,high,9,0,9,0,1,,,,,,,,,
294367,2022-09-25_21h33.18.984,vts_reward_expectancy,2022.2.4,MacIntel,14.92537313,Safari,1440,900,,,,,1,869,,,,,,,,,,,,,,,,,B,181,triangle,1,0,,,,,,,,,,,,,,,,repeat,letter,lettRpt,d,0.476,Lo,,,,,,2,,,,,,,,high,10,0,10,0,1,,,,,,,,,
294367,2022-09-25_21h33.18.984,vts_reward_expectancy,2022.2.4,MacIntel,14.92537313,Safari,1440,900,,,,,0,869,,,,,,,,,,,,,,,,,D,146,hexagon,1,0,,,,,,,,,,,,,,,,switch,number,numSwt,j,0.659,Hi,,,,,,2,,,,,,,,high,11,0,11,0,1,,,,,,,,,
294367,2022-09-25_21h33.18.984,vts_reward_expectancy,2022.2.4,MacIntel,14.92537313,Safari,1440,900,,,,,1,870,,,,,,,,,,,,,,,,,F,132,triangle,1,0,,,,,,,,,,,,,,,,repeat,number,numRpt,j,0.68,Lo,,,,,,2,,,,,,,,high,12,0,12,0,1,,,,,,,,,
294367,2022-09-25_21h33.18.984,vts_reward_expectancy,2022.2.4,MacIntel,14.92537313,Safari,1440,900,,,,,0,870,,,,,,,,,,,,,,,,,W,174,hexagon,1,0,,,,,,,,,,,,,,,,switch,letter,lettSwt,f,0.61,Hi,,,,,,2,,,,,,,,high,13,0,13,0,1,,,,,,,,,
294367,2022-09-25_21h33.18.984,vts_reward_expectancy,2022.2.4,MacIntel,14.92537313,Safari,1440,900,,,,,0,870,,,,,,,,,,,,,,,,,Y,125,hexagon,1,0,,,,,,,,,,,,,,,,repeat,letter,lettRpt,f,0.567,Hi,,,,,,2,,,,,,,,high,14,0,14,0,1,,,,,,,,,
294367,2022-09-25_21h33.18.984,vts_reward_expectancy,2022.2.4,MacIntel,14.92537313,Safari,1440,900,,,,,0,870,,,,,,,,,,,,,,,,,S,160,triangle,0,0,,,,,,,,,,,,,,,,repeat,letter,NA,d,0.527,Hi,,,,,,2,,,,,,,,high,15,0,15,0,1,,,,,,,,,
294367,2022-09-25_21h33.18.984,vts_reward_expectancy,2022.2.4,MacIntel,14.92537313,Safari,1440,900,,,,,0,870,,,,,,,,,,,,,,,,,H,160,hexagon,1,1,,,,,,,,,,,,,,,,repeat,letter,lettRpt,d,0.6,Hi,,,,,,2,,,,,,,,high,16,0,16,0,1,,,,,,,,,
294367,2022-09-25_21h33.18.984,vts_reward_expectancy,2022.2.4,MacIntel,14.92537313,Safari,1440,900,,,,,10,880,,,,,,,,,,,,,,,,,S,146,triangle,1,0,,,,,,,,,,,,,,,,switch,number,numSwt,j,0.519,Lo,,,,,,2,,,,,,,,high,17,0,17,0,1,,,,,,,,,
294367,2022-09-25_21h33.18.984,vts_reward_expectancy,2022.2.4,MacIntel,14.92537313,Safari,1440,900,,,,,1,881,,,,,,,,,,,,,,,,,Y,167,triangle,1,0,,,,,,,,,,,,,,,,switch,letter,lettSwt,f,0.46,Lo,,,,,,2,,,,,,,,high,18,0,18,0,1,,,,,,,,,
294367,2022-09-25_21h33.18.984,vts_reward_expectancy,2022.2.4,MacIntel,14.92537313,Safari,1440,900,,,,,0,881,,,,,,,,,,,,,,,,,W,174,hexagon,1,0,,,,,,,,,,,,,,,,repeat,letter,lettRpt,f,0.666,Hi,,,,,,2,,,,,,,,high,19,0,19,0,1,,,,,,,,,
294367,2022-09-25_21h33.18.984,vts_reward_expectancy,2022.2.4,MacIntel,14.92537313,Safari,1440,900,,,,,1,882,,,,,,,,,,,,,,,,,U,132,triangle,1,0,,,,,,,,,,,,,,,,repeat,letter,lettRpt,f,0.535,Lo,,,,,,2,,,,,,,,high,20,0,20,0,1,,,,,,,,,
294367,2022-09-25_21h33.18.984,vts_reward_expectancy,2022.2.4,MacIntel,14.92537313,Safari,1440,900,,,,,10,892,,,,,,,,,,,,,,,,,B,181,hexagon,1,0,,,,,,,,,,,,,,,,repeat,letter,lettRpt,d,0.429,Hi,,,,,,2,,,,,,,,high,21,0,21,0,1,,,,,,,,,
294367,2022-09-25_21h33.18.984,vts_reward_expectancy,2022.2.4,MacIntel,14.92537313,Safari,1440,900,,,,,0,892,,,,,,,,,,,,,,,,,D,139,hexagon,0,0,,,,,,,,,,,,,,,,repeat,letter,NA,f,0.35,Hi,,,,,,2,,,,,,,,high,22,0,22,0,1,,,,,,,,,
294367,2022-09-25_21h33.18.984,vts_reward_expectancy,2022.2.4,MacIntel,14.92537313,Safari,1440,900,,,,,1,893,,,,,,,,,,,,,,,,,F,125,triangle,1,1,,,,,,,,,,,,,,,,repeat,letter,lettRpt,d,0.53,Lo,,,,,,2,,,,,,,,high,23,0,23,0,1,,,,,,,,,
294367,2022-09-25_21h33.18.984,vts_reward_expectancy,2022.2.4,MacIntel,14.92537313,Safari,1440,900,,,,,10,903,,,,,,,,,,,,,,,,,F,125,hexagon,1,0,,,,,,,,,,,,,,,,repeat,letter,lettRpt,d,0.496,Hi,,,,,,2,,,,,,,,high,24,0,24,0,1,,,,,,,,,
294367,2022-09-25_21h33.18.984,vts_reward_expectancy,2022.2.4,MacIntel,14.92537313,Safari,1440,900,,,,,1,904,,,,,,,,,,,,,,,,,W,132,triangle,1,0,,,,,,,,,,,,,,,,repeat,letter,lettRpt,f,0.395,Lo,,,,,,2,,,,,,,,high,25,0,25,0,1,,,,,,,,,
294367,2022-09-25_21h33.18.984,vts_reward_expectancy,2022.2.4,MacIntel,14.92537313,Safari,1440,900,,,,,1,905,,,,,,,,,,,,,,,,,B,139,triangle,1,0,,,,,,,,,,,,,,,,repeat,letter,lettRpt,d,0.423,Lo,,,,,,2,,,,,,,,high,26,0,26,0,1,,,,,,,,,
294367,2022-09-25_21h33.18.984,vts_reward_expectancy,2022.2.4,MacIntel,14.92537313,Safari,1440,900,,,,,0,905,,,,,,,,,,,,,,,,,U,181,hexagon,1,0,,,,,,,,,,,,,,,,switch,number,numSwt,k,0.678,Hi,,,,,,2,,,,,,,,high,27,0,27,0,1,,,,,,,,,
294367,2022-09-25_21h33.18.984,vts_reward_expectancy,2022.2.4,MacIntel,14.92537313,Safari,1440,900,,,,,1,906,,,,,,,,,,,,,,,,,H,146,triangle,1,0,,,,,,,,,,,,,,,,repeat,number,numRpt,j,0.492,Lo,,,,,,2,,,,,,,,high,28,0,28,0,1,,,,,,,,,
294367,2022-09-25_21h33.18.984,vts_reward_expectancy,2022.2.4,MacIntel,14.92537313,Safari,1440,900,,,,,0,906,,,,,,,,,,,,,,,,,D,174,hexagon,1,0,,,,,,,,,,,,,,,,repeat,number,numRpt,k,0.586,Hi,,,,,,2,,,,,,,,high,29,0,29,0,1,,,,,,,,,
294367,2022-09-25_21h33.18.984,vts_reward_expectancy,2022.2.4,MacIntel,14.92537313,Safari,1440,900,,,,,1,907,,,,,,,,,,,,,,,,,S,160,triangle,1,0,,,,,,,,,,,,,,,,repeat,number,numRpt,k,0.414,Lo,,,,,,2,,,,,,,,high,30,0,30,0,1,,,,,,,,,
294367,2022-09-25_21h33.18.984,vts_reward_expectancy,2022.2.4,MacIntel,14.92537313,Safari,1440,900,,,,,0,907,,,,,,,,,,,,,,,,,Y,167,hexagon,0,0,,,,,,,,,,,,,,,,repeat,number,NA,j,0.653,Lo,,,,,,2,,,,,,,,high,31,0,31,0,1,,,,,,,,,
294367,2022-09-25_21h33.18.984,vts_reward_expectancy,2022.2.4,MacIntel,14.92537313,Safari,1440,900,,,,,1,908,,,,,,,,,,,,,,,,,D,125,star,1,1,,,,,,,,,,,,,,,,switch,letter,lettSwt,d,0.71,Lo,,,,,,3,,,,,,space,1.92,low,0,0,0,0,1,,,,,,,,,
294367,2022-09-25_21h33.18.984,vts_reward_expectancy,2022.2.4,MacIntel,14.92537313,Safari,1440,900,,,,,0,908,,,,,,,,,,,,,,,,,H,146,circle,1,0,,,,,,,,,,,,,,,,repeat,letter,lettRpt,d,0.587,Hi,,,,,,3,,,,,,,,low,1,0,1,0,1,,,,,,,,,
294367,2022-09-25_21h33.18.984,vts_reward_expectancy,2022.2.4,MacIntel,14.92537313,Safari,1440,900,,,,,1,909,,,,,,,,,,,,,,,,,U,160,star,1,0,,,,,,,,,,,,,,,,repeat,letter,lettRpt,f,0.49,Lo,,,,,,3,,,,,,,,low,2,0,2,0,1,,,,,,,,,
294367,2022-09-25_21h33.18.984,vts_reward_expectancy,2022.2.4,MacIntel,14.92537313,Safari,1440,900,,,,,0,909,,,,,,,,,,,,,,,,,S,167,circle,1,0,,,,,,,,,,,,,,,,repeat,letter,lettRpt,f,0.566,Hi,,,,,,3,,,,,,,,low,3,0,3,0,1,,,,,,,,,
294367,2022-09-25_21h33.18.984,vts_reward_expectancy,2022.2.4,MacIntel,14.92537313,Safari,1440,900,,,,,10,919,,,,,,,,,,,,,,,,,B,132,star,1,0,,,,,,,,,,,,,,,,repeat,letter,lettRpt,d,0.518,Lo,,,,,,3,,,,,,,,low,4,0,4,0,1,,,,,,,,,
294367,2022-09-25_21h33.18.984,vts_reward_expectancy,2022.2.4,MacIntel,14.92537313,Safari,1440,900,,,,,1,920,,,,,,,,,,,,,,,,,Y,181,circle,1,0,,,,,,,,,,,,,,,,repeat,letter,lettRpt,f,0.484,Hi,,,,,,3,,,,,,,,low,5,0,5,0,1,,,,,,,,,
294367,2022-09-25_21h33.18.984,vts_reward_expectancy,2022.2.4,MacIntel,14.92537313,Safari,1440,900,,,,,0,920,,,,,,,,,,,,,,,,,F,174,circle,1,0,,,,,,,,,,,,,,,,switch,number,numSwt,k,0.569,Hi,,,,,,3,,,,,,,,low,6,0,6,0,1,,,,,,,,,
294367,2022-09-25_21h33.18.984,vts_reward_expectancy,2022.2.4,MacIntel,14.92537313,Safari,1440,900,,,,,1,921,,,,,,,,,,,,,,,,,W,139,star,1,0,,,,,,,,,,,,,,,,repeat,number,numRpt,j,0.504,Lo,,,,,,3,,,,,,,,low,7,0,7,0,1,,,,,,,,,
294367,2022-09-25_21h33.18.984,vts_reward_expectancy,2022.2.4,MacIntel,14.92537313,Safari,1440,900,,,,,1,922,,,,,,,,,,,,,,,,,D,125,circle,1,0,,,,,,,,,,,,,,,,switch,letter,lettSwt,d,0.437,Hi,,,,,,3,,,,,,,,low,8,0,8,0,1,,,,,,,,,
294367,2022-09-25_21h33.18.984,vts_reward_expectancy,2022.2.4,MacIntel,14.92537313,Safari,1440,900,,,,,10,932,,,,,,,,,,,,,,,,,H,146,star,1,0,,,,,,,,,,,,,,,,switch,number,numSwt,j,0.525,Lo,,,,,,3,,,,,,,,low,9,0,9,0,1,,,,,,,,,
294367,2022-09-25_21h33.18.984,vts_reward_expectancy,2022.2.4,MacIntel,14.92537313,Safari,1440,900,,,,,0,932,,,,,,,,,,,,,,,,,U,160,star,0,0,,,,,,,,,,,,,,,,switch,letter,NA,d,0.442,Lo,,,,,,3,,,,,,,,low,10,0,10,0,1,,,,,,,,,
294367,2022-09-25_21h33.18.984,vts_reward_expectancy,2022.2.4,MacIntel,14.92537313,Safari,1440,900,,,,,10,942,,,,,,,,,,,,,,,,,S,167,circle,1,1,,,,,,,,,,,,,,,,switch,number,numSwt,k,0.462,Hi,,,,,,3,,,,,,,,low,11,0,11,0,1,,,,,,,,,
294367,2022-09-25_21h33.18.984,vts_reward_expectancy,2022.2.4,MacIntel,14.92537313,Safari,1440,900,,,,,1,943,,,,,,,,,,,,,,,,,B,132,circle,1,0,,,,,,,,,,,,,,,,switch,letter,lettSwt,d,0.498,Hi,,,,,,3,,,,,,,,low,12,0,12,0,1,,,,,,,,,
294367,2022-09-25_21h33.18.984,vts_reward_expectancy,2022.2.4,MacIntel,14.92537313,Safari,1440,900,,,,,10,953,,,,,,,,,,,,,,,,,Y,181,star,1,0,,,,,,,,,,,,,,,,repeat,letter,lettRpt,f,0.496,Lo,,,,,,3,,,,,,,,low,13,0,13,0,1,,,,,,,,,
294367,2022-09-25_21h33.18.984,vts_reward_expectancy,2022.2.4,MacIntel,14.92537313,Safari,1440,900,,,,,0,953,,,,,,,,,,,,,,,,,F,174,circle,0,0,,,,,,,,,,,,,,,,switch,number,NA,j,0.499,Lo,,,,,,3,,,,,,,,low,14,0,14,0,1,,,,,,,,,
294367,2022-09-25_21h33.18.984,vts_reward_expectancy,2022.2.4,MacIntel,14.92537313,Safari,1440,900,,,,,10,963,,,,,,,,,,,,,,,,,W,139,star,1,1,,,,,,,,,,,,,,,,repeat,number,numRpt,j,0.648,Lo,,,,,,3,,,,,,,,low,15,0,15,0,1,,,,,,,,,
294367,2022-09-25_21h33.18.984,vts_reward_expectancy,2022.2.4,MacIntel,14.92537313,Safari,1440,900,,,,,1,964,,,,,,,,,,,,,,,,,D,181,star,1,0,,,,,,,,,,,,,,,,switch,letter,lettSwt,d,0.94,Lo,,,,,,3,,,,,,,,low,16,0,16,0,1,,,,,,,,,
294367,2022-09-25_21h33.18.984,vts_reward_expectancy,2022.2.4,MacIntel,14.92537313,Safari,1440,900,,,,,0,964,,,,,,,,,,,,,,,,,W,160,circle,1,0,,,,,,,,,,,,,,,,repeat,letter,lettRpt,f,0.573,Hi,,,,,,3,,,,,,,,low,17,0,17,0,1,,,,,,,,,
294367,2022-09-25_21h33.18.984,vts_reward_expectancy,2022.2.4,MacIntel,14.92537313,Safari,1440,900,,,,,10,974,,,,,,,,,,,,,,,,,F,146,circle,1,0,,,,,,,,,,,,,,,,repeat,letter,lettRpt,d,0.405,Hi,,,,,,3,,,,,,,,low,18,0,18,0,1,,,,,,,,,
294367,2022-09-25_21h33.18.984,vts_reward_expectancy,2022.2.4,MacIntel,14.92537313,Safari,1440,900,,,,,1,975,,,,,,,,,,,,,,,,,B,139,star,1,0,,,,,,,,,,,,,,,,switch,number,numSwt,j,0.542,Lo,,,,,,3,,,,,,,,low,19,0,19,0,1,,,,,,,,,
294367,2022-09-25_21h33.18.984,vts_reward_expectancy,2022.2.4,MacIntel,14.92537313,Safari,1440,900,,,,,1,976,,,,,,,,,,,,,,,,,H,132,star,1,0,,,,,,,,,,,,,,,,repeat,number,numRpt,j,0.405,Lo,,,,,,3,,,,,,,,low,20,0,20,0,1,,,,,,,,,
294367,2022-09-25_21h33.18.984,vts_reward_expectancy,2022.2.4,MacIntel,14.92537313,Safari,1440,900,,,,,0,976,,,,,,,,,,,,,,,,,U,167,circle,0,0,,,,,,,,,,,,,,,,repeat,number,NA,j,0.489,Lo,,,,,,3,,,,,,,,low,21,0,21,0,1,,,,,,,,,
294367,2022-09-25_21h33.18.984,vts_reward_expectancy,2022.2.4,MacIntel,14.92537313,Safari,1440,900,,,,,0,976,,,,,,,,,,,,,,,,,S,125,circle,1,1,,,,,,,,,,,,,,,,repeat,number,numRpt,j,0.448,Hi,,,,,,3,,,,,,,,low,22,0,22,0,1,,,,,,,,,
294367,2022-09-25_21h33.18.984,vts_reward_expectancy,2022.2.4,MacIntel,14.92537313,Safari,1440,900,,,,,10,986,,,,,,,,,,,,,,,,,Y,174,star,1,0,,,,,,,,,,,,,,,,repeat,number,numRpt,k,0.442,Lo,,,,,,3,,,,,,,,low,23,0,23,0,1,,,,,,,,,
294367,2022-09-25_21h33.18.984,vts_reward_expectancy,2022.2.4,MacIntel,14.92537313,Safari,1440,900,,,,,10,996,,,,,,,,,,,,,,,,,H,139,star,1,0,,,,,,,,,,,,,,,,repeat,number,numRpt,j,0.519,Lo,,,,,,3,,,,,,,,low,24,0,24,0,1,,,,,,,,,
294367,2022-09-25_21h33.18.984,vts_reward_expectancy,2022.2.4,MacIntel,14.92537313,Safari,1440,900,,,,,0,996,,,,,,,,,,,,,,,,,Y,125,circle,1,0,,,,,,,,,,,,,,,,repeat,number,numRpt,j,0.587,Hi,,,,,,3,,,,,,,,low,25,0,25,0,1,,,,,,,,,
294367,2022-09-25_21h33.18.984,vts_reward_expectancy,2022.2.4,MacIntel,14.92537313,Safari,1440,900,,,,,10,1006,,,,,,,,,,,,,,,,,S,132,star,1,0,,,,,,,,,,,,,,,,repeat,number,numRpt,j,0.506,Lo,,,,,,3,,,,,,,,low,26,0,26,0,1,,,,,,,,,
294367,2022-09-25_21h33.18.984,vts_reward_expectancy,2022.2.4,MacIntel,14.92537313,Safari,1440,900,,,,,0,1006,,,,,,,,,,,,,,,,,F,181,circle,1,0,,,,,,,,,,,,,,,,repeat,number,numRpt,k,0.504,Hi,,,,,,3,,,,,,,,low,27,0,27,0,1,,,,,,,,,
294367,2022-09-25_21h33.18.984,vts_reward_expectancy,2022.2.4,MacIntel,14.92537313,Safari,1440,900,,,,,0,1006,,,,,,,,,,,,,,,,,W,174,circle,0,0,,,,,,,,,,,,,,,,switch,letter,NA,d,0.497,Hi,,,,,,3,,,,,,,,low,28,0,28,0,1,,,,,,,,,
294367,2022-09-25_21h33.18.984,vts_reward_expectancy,2022.2.4,MacIntel,14.92537313,Safari,1440,900,,,,,0,1006,,,,,,,,,,,,,,,,,U,160,star,0,1,,,,,,,,,,,,,,,,repeat,letter,NA,d,0.446,Hi,,,,,,3,,,,,,,,low,29,0,29,0,1,,,,,,,,,
294367,2022-09-25_21h33.18.984,vts_reward_expectancy,2022.2.4,MacIntel,14.92537313,Safari,1440,900,,,,,0,1006,,,,,,,,,,,,,,,,,B,167,circle,1,1,,,,,,,,,,,,,,,,repeat,letter,lettRpt,d,0.508,Hi,,,,,,3,,,,,,,,low,30,0,30,0,1,,,,,,,,,
294367,2022-09-25_21h33.18.984,vts_reward_expectancy,2022.2.4,MacIntel,14.92537313,Safari,1440,900,,,,,10,1016,,,,,,,,,,,,,,,,,D,146,star,1,0,,,,,,,,,,,,,,,,repeat,letter,lettRpt,d,0.48,Lo,,,,,,3,,,,,,,,low,31,0,31,0,1,,,,,,,,,
294367,2022-09-25_21h33.18.984,vts_reward_expectancy,2022.2.4,MacIntel,14.92537313,Safari,1440,900,,,,,1,1017,,,,,,,,,,,,,,,,,B,125,circle,1,0,,,,,,,,,,,,,,,,repeat,letter,lettRpt,d,0.423,Hi,,,,,,4,,,,,,space,1.49,low,0,0,0,0,1,,,,,,,,,
294367,2022-09-25_21h33.18.984,vts_reward_expectancy,2022.2.4,MacIntel,14.92537313,Safari,1440,900,,,,,1,1018,,,,,,,,,,,,,,,,,Y,181,star,1,0,,,,,,,,,,,,,,,,switch,number,numSwt,k,0.763,Lo,,,,,,4,,,,,,,,low,1,0,1,0,1,,,,,,,,,
294367,2022-09-25_21h33.18.984,vts_reward_expectancy,2022.2.4,MacIntel,14.92537313,Safari,1440,900,,,,,0,1018,,,,,,,,,,,,,,,,,W,174,circle,1,0,,,,,,,,,,,,,,,,switch,letter,lettSwt,f,0.618,Hi,,,,,,4,,,,,,,,low,2,0,2,0,1,,,,,,,,,
294367,2022-09-25_21h33.18.984,vts_reward_expectancy,2022.2.4,MacIntel,14.92537313,Safari,1440,900,,,,,1,1019,,,,,,,,,,,,,,,,,D,132,star,1,0,,,,,,,,,,,,,,,,switch,number,numSwt,j,0.775,Lo,,,,,,4,,,,,,,,low,3,0,3,0,1,,,,,,,,,
294367,2022-09-25_21h33.18.984,vts_reward_expectancy,2022.2.4,MacIntel,14.92537313,Safari,1440,900,,,,,0,1019,,,,,,,,,,,,,,,,,S,146,circle,1,0,,,,,,,,,,,,,,,,switch,letter,lettSwt,f,0.692,Hi,,,,,,4,,,,,,,,low,4,0,4,0,1,,,,,,,,,
294367,2022-09-25_21h33.18.984,vts_reward_expectancy,2022.2.4,MacIntel,14.92537313,Safari,1440,900,,,,,10,1029,,,,,,,,,,,,,,,,,H,160,star,1,0,,,,,,,,,,,,,,,,switch,number,numSwt,k,0.69,Lo,,,,,,4,,,,,,,,low,5,0,5,0,1,,,,,,,,,
294367,2022-09-25_21h33.18.984,vts_reward_expectancy,2022.2.4,MacIntel,14.92537313,Safari,1440,900,,,,,0,1029,,,,,,,,,,,,,,,,,F,139,circle,1,0,,,,,,,,,,,,,,,,switch,letter,lettSwt,d,0.53,Hi,,,,,,4,,,,,,,,low,6,0,6,0,1,,,,,,,,,
294367,2022-09-25_21h33.18.984,vts_reward_expectancy,2022.2.4,MacIntel,14.92537313,Safari,1440,900,,,,,1,1030,,,,,,,,,,,,,,,,,U,167,star,1,0,,,,,,,,,,,,,,,,repeat,letter,lettRpt,f,0.565,Lo,,,,,,4,,,,,,,,low,7,0,7,0,1,,,,,,,,,
294367,2022-09-25_21h33.18.984,vts_reward_expectancy,2022.2.4,MacIntel,14.92537313,Safari,1440,900,,,,,0,1030,,,,,,,,,,,,,,,,,B,125,circle,1,0,,,,,,,,,,,,,,,,repeat,letter,lettRpt,d,0.509,Hi,,,,,,4,,,,,,,,low,8,0,8,0,1,,,,,,,,,
294367,2022-09-25_21h33.18.984,vts_reward_expectancy,2022.2.4,MacIntel,14.92537313,Safari,1440,900,,,,,10,1040,,,,,,,,,,,,,,,,,Y,181,star,1,0,,,,,,,,,,,,,,,,repeat,letter,lettRpt,f,0.501,Lo,,,,,,4,,,,,,,,low,9,0,9,0,1,,,,,,,,,
294367,2022-09-25_21h33.18.984,vts_reward_expectancy,2022.2.4,MacIntel,14.92537313,Safari,1440,900,,,,,1,1041,,,,,,,,,,,,,,,,,W,174,star,1,0,,,,,,,,,,,,,,,,repeat,letter,lettRpt,f,0.46,Lo,,,,,,4,,,,,,,,low,10,0,10,0,1,,,,,,,,,
294367,2022-09-25_21h33.18.984,vts_reward_expectancy,2022.2.4,MacIntel,14.92537313,Safari,1440,900,,,,,1,1042,,,,,,,,,,,,,,,,,D,132,circle,1,0,,,,,,,,,,,,,,,,repeat,letter,lettRpt,d,0.481,Hi,,,,,,4,,,,,,,,low,11,0,11,0,1,,,,,,,,,
294367,2022-09-25_21h33.18.984,vts_reward_expectancy,2022.2.4,MacIntel,14.92537313,Safari,1440,900,,,,,0,1042,,,,,,,,,,,,,,,,,S,146,circle,1,0,,,,,,,,,,,,,,,,repeat,letter,lettRpt,f,0.57,Hi,,,,,,4,,,,,,,,low,12,0,12,0,1,,,,,,,,,
294367,2022-09-25_21h33.18.984,vts_reward_expectancy,2022.2.4,MacIntel,14.92537313,Safari,1440,900,,,,,0,1042,,,,,,,,,,,,,,,,,H,160,star,0,0,,,,,,,,,,,,,,,,repeat,letter,NA,f,0.489,Hi,,,,,,4,,,,,,,,low,13,0,13,0,1,,,,,,,,,
294367,2022-09-25_21h33.18.984,vts_reward_expectancy,2022.2.4,MacIntel,14.92537313,Safari,1440,900,,,,,1,1043,,,,,,,,,,,,,,,,,F,139,star,1,1,,,,,,,,,,,,,,,,repeat,letter,lettRpt,d,0.526,Lo,,,,,,4,,,,,,,,low,14,0,14,0,1,,,,,,,,,
294367,2022-09-25_21h33.18.984,vts_reward_expectancy,2022.2.4,MacIntel,14.92537313,Safari,1440,900,,,,,0,1043,,,,,,,,,,,,,,,,,U,167,circle,1,0,,,,,,,,,,,,,,,,switch,number,numSwt,k,0.6,Hi,,,,,,4,,,,,,,,low,15,0,15,0,1,,,,,,,,,
294367,2022-09-25_21h33.18.984,vts_reward_expectancy,2022.2.4,MacIntel,14.92537313,Safari,1440,900,,,,,0,1043,,,,,,,,,,,,,,,,,B,167,circle,0,0,,,,,,,,,,,,,,,,repeat,number,NA,j,0.62,Hi,,,,,,4,,,,,,,,low,16,0,16,0,1,,,,,,,,,
294367,2022-09-25_21h33.18.984,vts_reward_expectancy,2022.2.4,MacIntel,14.92537313,Safari,1440,900,,,,,1,1044,,,,,,,,,,,,,,,,,F,181,star,1,1,,,,,,,,,,,,,,,,repeat,number,numRpt,k,0.492,Lo,,,,,,4,,,,,,,,low,17,0,17,0,1,,,,,,,,,
294367,2022-09-25_21h33.18.984,vts_reward_expectancy,2022.2.4,MacIntel,14.92537313,Safari,1440,900,,,,,1,1045,,,,,,,,,,,,,,,,,H,139,star,1,0,,,,,,,,,,,,,,,,repeat,number,numRpt,j,0.584,Lo,,,,,,4,,,,,,,,low,18,0,18,0,1,,,,,,,,,
294367,2022-09-25_21h33.18.984,vts_reward_expectancy,2022.2.4,MacIntel,14.92537313,Safari,1440,900,,,,,1,1046,,,,,,,,,,,,,,,,,Y,125,circle,1,0,,,,,,,,,,,,,,,,repeat,number,numRpt,j,0.433,Hi,,,,,,4,,,,,,,,low,19,0,19,0,1,,,,,,,,,
294367,2022-09-25_21h33.18.984,vts_reward_expectancy,2022.2.4,MacIntel,14.92537313,Safari,1440,900,,,,,0,1046,,,,,,,,,,,,,,,,,U,160,circle,1,0,,,,,,,,,,,,,,,,repeat,number,numRpt,k,0.843,Hi,,,,,,4,,,,,,,,low,20,0,20,0,1,,,,,,,,,
294367,2022-09-25_21h33.18.984,vts_reward_expectancy,2022.2.4,MacIntel,14.92537313,Safari,1440,900,,,,,1,1047,,,,,,,,,,,,,,,,,S,146,star,1,0,,,,,,,,,,,,,,,,repeat,number,numRpt,j,0.583,Lo,,,,,,4,,,,,,,,low,21,0,21,0,1,,,,,,,,,
294367,2022-09-25_21h33.18.984,vts_reward_expectancy,2022.2.4,MacIntel,14.92537313,Safari,1440,900,,,,,1,1048,,,,,,,,,,,,,,,,,W,132,star,1,0,,,,,,,,,,,,,,,,switch,letter,lettSwt,f,0.524,Lo,,,,,,4,,,,,,,,low,22,0,22,0,1,,,,,,,,,
294367,2022-09-25_21h33.18.984,vts_reward_expectancy,2022.2.4,MacIntel,14.92537313,Safari,1440,900,,,,,0,1048,,,,,,,,,,,,,,,,,D,174,circle,1,0,,,,,,,,,,,,,,,,repeat,letter,lettRpt,d,0.49,Hi,,,,,,4,,,,,,,,low,23,0,23,0,1,,,,,,,,,
294367,2022-09-25_21h33.18.984,vts_reward_expectancy,2022.2.4,MacIntel,14.92537313,Safari,1440,900,,,,,1,1049,,,,,,,,,,,,,,,,,Y,125,star,1,0,,,,,,,,,,,,,,,,switch,number,numSwt,j,0.49,Lo,,,,,,4,,,,,,,,low,24,0,24,0,1,,,,,,,,,
294367,2022-09-25_21h33.18.984,vts_reward_expectancy,2022.2.4,MacIntel,14.92537313,Safari,1440,900,,,,,0,1049,,,,,,,,,,,,,,,,,D,174,circle,0,0,,,,,,,,,,,,,,,,repeat,number,NA,j,0.429,Lo,,,,,,4,,,,,,,,low,25,0,25,0,1,,,,,,,,,
294367,2022-09-25_21h33.18.984,vts_reward_expectancy,2022.2.4,MacIntel,14.92537313,Safari,1440,900,,,,,1,1050,,,,,,,,,,,,,,,,,S,139,star,1,1,,,,,,,,,,,,,,,,repeat,number,numRpt,j,0.579,Lo,,,,,,4,,,,,,,,low,26,0,26,0,1,,,,,,,,,
294367,2022-09-25_21h33.18.984,vts_reward_expectancy,2022.2.4,MacIntel,14.92537313,Safari,1440,900,,,,,10,1060,,,,,,,,,,,,,,,,,B,181,circle,1,0,,,,,,,,,,,,,,,,switch,letter,lettSwt,d,0.486,Hi,,,,,,4,,,,,,,,low,27,0,27,0,1,,,,,,,,,
294367,2022-09-25_21h33.18.984,vts_reward_expectancy,2022.2.4,MacIntel,14.92537313,Safari,1440,900,,,,,1,1061,,,,,,,,,,,,,,,,,F,167,star,1,0,,,,,,,,,,,,,,,,switch,number,numSwt,k,0.625,Lo,,,,,,4,,,,,,,,low,28,0,28,0,1,,,,,,,,,
294367,2022-09-25_21h33.18.984,vts_reward_expectancy,2022.2.4,MacIntel,14.92537313,Safari,1440,900,,,,,0,1061,,,,,,,,,,,,,,,,,H,132,circle,1,0,,,,,,,,,,,,,,,,repeat,number,numRpt,j,0.884,Hi,,,,,,4,,,,,,,,low,29,0,29,0,1,,,,,,,,,
294367,2022-09-25_21h33.18.984,vts_reward_expectancy,2022.2.4,MacIntel,14.92537313,Safari,1440,900,,,,,1,1062,,,,,,,,,,,,,,,,,W,160,star,1,0,,,,,,,,,,,,,,,,switch,letter,lettSwt,f,0.526,Lo,,,,,,4,,,,,,,,low,30,0,30,0,1,,,,,,,,,
294367,2022-09-25_21h33.18.984,vts_reward_expectancy,2022.2.4,MacIntel,14.92537313,Safari,1440,900,,,,,0,1062,,,,,,,,,,,,,,,,,U,146,circle,1,0,,,,,,,,,,,,,,,,repeat,letter,lettRpt,f,0.607,Hi,,,,,,4,,,,,,,,low,31,0,31,0,1,,,,,,,,,
294367,2022-09-25_21h33.18.984,vts_reward_expectancy,2022.2.4,MacIntel,14.92537313,Safari,1440,900,,,,,10,1072,,,,,,,,,,,,,,,,,U,174,hexagon,1,0,,,,,,,,,,,,,,,,switch,number,numSwt,k,0.595,Hi,,,,,,5,,,,,,space,0.562,high,0,0,0,0,1,,,,,,,,,
294367,2022-09-25_21h33.18.984,vts_reward_expectancy,2022.2.4,MacIntel,14.92537313,Safari,1440,900,,,,,1,1073,,,,,,,,,,,,,,,,,B,146,triangle,1,0,,,,,,,,,,,,,,,,repeat,number,numRpt,j,0.62,Lo,,,,,,5,,,,,,,,high,1,0,1,0,1,,,,,,,,,
294367,2022-09-25_21h33.18.984,vts_reward_expectancy,2022.2.4,MacIntel,14.92537313,Safari,1440,900,,,,,0,1073,,,,,,,,,,,,,,,,,Y,160,hexagon,1,0,,,,,,,,,,,,,,,,switch,letter,lettSwt,f,0.688,Hi,,,,,,5,,,,,,,,high,2,0,2,0,1,,,,,,,,,
294367,2022-09-25_21h33.18.984,vts_reward_expectancy,2022.2.4,MacIntel,14.92537313,Safari,1440,900,,,,,10,1083,,,,,,,,,,,,,,,,,F,139,triangle,1,0,,,,,,,,,,,,,,,,switch,number,numSwt,j,0.521,Lo,,,,,,5,,,,,,,,high,3,0,3,0,1,,,,,,,,,
294367,2022-09-25_21h33.18.984,vts_reward_expectancy,2022.2.4,MacIntel,14.92537313,Safari,1440,900,,,,,0,1083,,,,,,,,,,,,,,,,,D,132,hexagon,1,0,,,,,,,,,,,,,,,,repeat,number,numRpt,j,0.597,Hi,,,,,,5,,,,,,,,high,4,0,4,0,1,,,,,,,,,
294367,2022-09-25_21h33.18.984,vts_reward_expectancy,2022.2.4,MacIntel,14.92537313,Safari,1440,900,,,,,1,1084,,,,,,,,,,,,,,,,,S,181,triangle,1,0,,,,,,,,,,,,,,,,repeat,number,numRpt,k,0.473,Lo,,,,,,5,,,,,,,,high,5,0,5,0,1,,,,,,,,,
294367,2022-09-25_21h33.18.984,vts_reward_expectancy,2022.2.4,MacIntel,14.92537313,Safari,1440,900,,,,,0,1084,,,,,,,,,,,,,,,,,H,167,hexagon,1,0,,,,,,,,,,,,,,,,repeat,number,numRpt,k,0.614,Hi,,,,,,5,,,,,,,,high,6,0,6,0,1,,,,,,,,,
294367,2022-09-25_21h33.18.984,vts_reward_expectancy,2022.2.4,MacIntel,14.92537313,Safari,1440,900,,,,,1,1085,,,,,,,,,,,,,,,,,W,125,triangle,1,0,,,,,,,,,,,,,,,,switch,letter,lettSwt,f,0.586,Lo,,,,,,5,,,,,,,,high,7,0,7,0,1,,,,,,,,,
294367,2022-09-25_21h33.18.984,vts_reward_expectancy,2022.2.4,MacIntel,14.92537313,Safari,1440,900,,,,,10,1095,,,,,,,,,,,,,,,,,U,174,hexagon,1,0,,,,,,,,,,,,,,,,switch,number,numSwt,k,0.583,Hi,,,,,,5,,,,,,,,high,8,0,8,0,1,,,,,,,,,
294367,2022-09-25_21h33.18.984,vts_reward_expectancy,2022.2.4,MacIntel,14.92537313,Safari,1440,900,,,,,1,1096,,,,,,,,,,,,,,,,,B,146,triangle,1,0,,,,,,,,,,,,,,,,repeat,number,numRpt,j,0.651,Lo,,,,,,5,,,,,,,,high,9,0,9,0,1,,,,,,,,,
294367,2022-09-25_21h33.18.984,vts_reward_expectancy,2022.2.4,MacIntel,14.92537313,Safari,1440,900,,,,,0,1096,,,,,,,,,,,,,,,,,Y,160,hexagon,0,0,,,,,,,,,,,,,,,,repeat,number,NA,j,0.547,Lo,,,,,,5,,,,,,,,high,10,0,10,0,1,,,,,,,,,
294367,2022-09-25_21h33.18.984,vts_reward_expectancy,2022.2.4,MacIntel,14.92537313,Safari,1440,900,,,,,1,1097,,,,,,,,,,,,,,,,,F,139,triangle,1,1,,,,,,,,,,,,,,,,repeat,number,numRpt,j,0.589,Lo,,,,,,5,,,,,,,,high,11,0,11,0,1,,,,,,,,,
294367,2022-09-25_21h33.18.984,vts_reward_expectancy,2022.2.4,MacIntel,14.92537313,Safari,1440,900,,,,,0,1097,,,,,,,,,,,,,,,,,D,132,hexagon,1,0,,,,,,,,,,,,,,,,switch,letter,lettSwt,d,0.567,Hi,,,,,,5,,,,,,,,high,12,0,12,0,1,,,,,,,,,
294367,2022-09-25_21h33.18.984,vts_reward_expectancy,2022.2.4,MacIntel,14.92537313,Safari,1440,900,,,,,1,1098,,,,,,,,,,,,,,,,,S,181,triangle,1,0,,,,,,,,,,,,,,,,switch,number,numSwt,k,0.525,Lo,,,,,,5,,,,,,,,high,13,0,13,0,1,,,,,,,,,
294367,2022-09-25_21h33.18.984,vts_reward_expectancy,2022.2.4,MacIntel,14.92537313,Safari,1440,900,,,,,0,1098,,,,,,,,,,,,,,,,,H,167,triangle,0,0,,,,,,,,,,,,,,,,switch,letter,NA,f,0.483,Lo,,,,,,5,,,,,,,,high,14,0,14,0,1,,,,,,,,,
294367,2022-09-25_21h33.18.984,vts_reward_expectancy,2022.2.4,MacIntel,14.92537313,Safari,1440,900,,,,,0,1098,,,,,,,,,,,,,,,,,W,125,hexagon,1,1,,,,,,,,,,,,,,,,repeat,letter,lettRpt,f,0.575,Hi,,,,,,5,,,,,,,,high,15,0,15,0,1,,,,,,,,,
294367,2022-09-25_21h33.18.984,vts_reward_expectancy,2022.2.4,MacIntel,14.92537313,Safari,1440,900,,,,,0,1098,,,,,,,,,,,,,,,,,B,174,hexagon,1,0,,,,,,,,,,,,,,,,repeat,letter,lettRpt,d,0.579,Hi,,,,,,5,,,,,,,,high,16,0,16,0,1,,,,,,,,,
294367,2022-09-25_21h33.18.984,vts_reward_expectancy,2022.2.4,MacIntel,14.92537313,Safari,1440,900,,,,,10,1108,,,,,,,,,,,,,,,,,W,167,triangle,1,0,,,,,,,,,,,,,,,,repeat,letter,lettRpt,f,0.395,Lo,,,,,,5,,,,,,,,high,17,0,17,0,1,,,,,,,,,
294367,2022-09-25_21h33.18.984,vts_reward_expectancy,2022.2.4,MacIntel,14.92537313,Safari,1440,900,,,,,1,1109,,,,,,,,,,,,,,,,,U,146,triangle,1,0,,,,,,,,,,,,,,,,repeat,letter,lettRpt,f,0.516,Lo,,,,,,5,,,,,,,,high,18,0,18,0,1,,,,,,,,,
294367,2022-09-25_21h33.18.984,vts_reward_expectancy,2022.2.4,MacIntel,14.92537313,Safari,1440,900,,,,,10,1119,,,,,,,,,,,,,,,,,H,181,hexagon,1,0,,,,,,,,,,,,,,,,repeat,letter,lettRpt,d,0.368,Hi,,,,,,5,,,,,,,,high,19,0,19,0,1,,,,,,,,,
294367,2022-09-25_21h33.18.984,vts_reward_expectancy,2022.2.4,MacIntel,14.92537313,Safari,1440,900,,,,,0,1119,,,,,,,,,,,,,,,,,Y,125,hexagon,1,0,,,,,,,,,,,,,,,,repeat,letter,lettRpt,f,0.517,Hi,,,,,,5,,,,,,,,high,20,0,20,0,1,,,,,,,,,
294367,2022-09-25_21h33.18.984,vts_reward_expectancy,2022.2.4,MacIntel,14.92537313,Safari,1440,900,,,,,0,1119,,,,,,,,,,,,,,,,,F,160,triangle,0,0,,,,,,,,,,,,,,,,repeat,letter,NA,f,0.504,Hi,,,,,,5,,,,,,,,high,21,0,21,0,1,,,,,,,,,
294367,2022-09-25_21h33.18.984,vts_reward_expectancy,2022.2.4,MacIntel,14.92537313,Safari,1440,900,,,,,0,1119,,,,,,,,,,,,,,,,,S,132,triangle,0,1,,,,,,,,,,,,,,,,repeat,letter,NA,d,0.415,Hi,,,,,,5,,,,,,,,high,22,0,22,0,1,,,,,,,,,
294367,2022-09-25_21h33.18.984,vts_reward_expectancy,2022.2.4,MacIntel,14.92537313,Safari,1440,900,,,,,10,1129,,,,,,,,,,,,,,,,,D,139,hexagon,1,1,,,,,,,,,,,,,,,,repeat,letter,lettRpt,d,0.467,Hi,,,,,,5,,,,,,,,high,23,0,23,0,1,,,,,,,,,
294367,2022-09-25_21h33.18.984,vts_reward_expectancy,2022.2.4,MacIntel,14.92537313,Safari,1440,900,,,,,1,1130,,,,,,,,,,,,,,,,,S,132,triangle,1,0,,,,,,,,,,,,,,,,switch,number,numSwt,j,0.601,Lo,,,,,,5,,,,,,,,high,24,0,24,0,1,,,,,,,,,
294367,2022-09-25_21h33.18.984,vts_reward_expectancy,2022.2.4,MacIntel,14.92537313,Safari,1440,900,,,,,0,1130,,,,,,,,,,,,,,,,,F,181,hexagon,1,0,,,,,,,,,,,,,,,,repeat,number,numRpt,k,0.877,Hi,,,,,,5,,,,,,,,high,25,0,25,0,1,,,,,,,,,
294367,2022-09-25_21h33.18.984,vts_reward_expectancy,2022.2.4,MacIntel,14.92537313,Safari,1440,900,,,,,0,1130,,,,,,,,,,,,,,,,,Y,167,triangle,0,0,,,,,,,,,,,,,,,,repeat,number,NA,j,0.551,Hi,,,,,,5,,,,,,,,high,26,0,26,0,1,,,,,,,,,
294367,2022-09-25_21h33.18.984,vts_reward_expectancy,2022.2.4,MacIntel,14.92537313,Safari,1440,900,,,,,1,1131,,,,,,,,,,,,,,,,,D,174,hexagon,1,1,,,,,,,,,,,,,,,,repeat,number,numRpt,k,0.475,Hi,,,,,,5,,,,,,,,high,27,0,27,0,1,,,,,,,,,
294367,2022-09-25_21h33.18.984,vts_reward_expectancy,2022.2.4,MacIntel,14.92537313,Safari,1440,900,,,,,10,1141,,,,,,,,,,,,,,,,,W,146,hexagon,1,0,,,,,,,,,,,,,,,,repeat,number,numRpt,j,0.534,Hi,,,,,,5,,,,,,,,high,28,0,28,0,1,,,,,,,,,
294367,2022-09-25_21h33.18.984,vts_reward_expectancy,2022.2.4,MacIntel,14.92537313,Safari,1440,900,,,,,1,1142,,,,,,,,,,,,,,,,,U,139,triangle,1,0,,,,,,,,,,,,,,,,repeat,number,numRpt,j,0.595,Lo,,,,,,5,,,,,,,,high,29,0,29,0,1,,,,,,,,,
294367,2022-09-25_21h33.18.984,vts_reward_expectancy,2022.2.4,MacIntel,14.92537313,Safari,1440,900,,,,,0,1142,,,,,,,,,,,,,,,,,B,160,hexagon,1,0,,,,,,,,,,,,,,,,switch,letter,lettSwt,d,1.682,Hi,,,,,,5,,,,,,,,high,30,0,30,0,1,,,,,,,,,
294367,2022-09-25_21h33.18.984,vts_reward_expectancy,2022.2.4,MacIntel,14.92537313,Safari,1440,900,,,,,10,1152,,,,,,,,,,,,,,,,,H,125,triangle,1,0,,,,,,,,,,,,,,,,repeat,letter,lettRpt,d,0.526,Lo,,,,,,5,,,,,,,,high,31,0,31,0,1,,,,,,,,,
294367,2022-09-25_21h33.18.984,vts_reward_expectancy,2022.2.4,MacIntel,14.92537313,Safari,1440,900,,,,,,,,,,,,,,,,,,,,,,,,,,,,,,,,,,,,,,,,,,,,,,,,,,,,,,6,,,,,,,,,,,,,,I was asked to do a series of tasks using shapes and numbers and letters. ,2,"In the last set of 6 tasks, the significance of the shapes was a little confusing. ",3,2,,2,1440,900
