participant,date,expName,psychopyVersion,OS,frameRate,browser,xResolution,yResolution,key_resp.keys,key_resp.rt,training_resp.keys,training_resp.rt,points_trial,points_cumul,trainBlock,training.thisRepN,training.thisTrialN,training.thisN,training.thisIndex,training.ran,LTriangleOpac,LCircleOpac,LHexagonOpac,LStarOpac,RTriangleOpac,RCircleOpac,RHexagonOpac,RStarOpac,LShape_ID,RShape_ID,curr_topStim,curr_bottStim,curr_shape,acc,E1,target_resp_prac1.keys,pracBlock,task1_prac_trials.thisRepN,task1_prac_trials.thisTrialN,task1_prac_trials.thisN,task1_prac_trials.thisIndex,task1_prac_trials.ran,target_resp_prac1.rt,target_resp_prac2.keys,target_resp_prac2.rt,task2_praac_trials.thisRepN,task2_praac_trials.thisTrialN,task2_praac_trials.thisN,task2_praac_trials.thisIndex,task2_praac_trials.ran,alt,task,condition,target_resp.keys,rewCond,vts_practice_trials.thisRepN,vts_practice_trials.thisTrialN,vts_practice_trials.thisN,vts_practice_trials.thisIndex,vts_practice_trials.ran,target_resp.rt,blockNum,trials_norew.thisRepN,trials_norew.thisTrialN,trials_norew.thisN,trials_norew.thisIndex,trials_norew.ran,key_resp_2.keys,key_resp_2.rt,rewExpect,trials_rew.thisRepN,trials_rew.thisTrialN,trials_rew.thisN,trials_rew.thisIndex,trials_rew.ran,Q1,Q2,Q2_text,Q3,Q4,Q5_text,Q5,xRes,yRes
294244,2022-09-21_12h33.27.684,vts_reward_expectancy,2022.2.4,Win32,20,Firefox,1920,1080,,,,,,,,,,,,,,,,,,,,,,,,,,,,,,,,,,,,,,,,,,,,,,,,,,,,,,,,,,,,,,,,,,,,,,,,,,,,
294244,2022-09-21_12h33.27.684,vts_reward_expectancy,2022.2.4,Win32,20,Firefox,1920,1080,space,2.737,,,,,,,,,,,,,,,,,,,,,,,,,,,,,,,,,,,,,,,,,,,,,,,,,,,,,,,,,,,,,,,,,,,,,,,,,,
294244,2022-09-21_12h33.27.684,vts_reward_expectancy,2022.2.4,Win32,20,Firefox,1920,1080,,,,,,,,,,,,,,,,,,,,,,,,,,,,,,,,,,,,,,,,,,,,,,,,,,,,,,,,,,,,,,,,,,,,,,,,,,,,
294244,2022-09-21_12h33.27.684,vts_reward_expectancy,2022.2.4,Win32,20,Firefox,1920,1080,,,a,2.898,0,0,0,0,0,0,10,1,0,0,0,1,0,1,0,0,star ,circle,,,,,,,,,,,,,,,,,,,,,,,,,,,,,,,,,,,,,,,,,,,,,,,,,,,,,,
294244,2022-09-21_12h33.27.684,vts_reward_expectancy,2022.2.4,Win32,20,Firefox,1920,1080,,,l,2.353,10,10,0,0,1,1,7,1,0,0,1,0,0,1,0,0,hexagon,circle,,,,,,,,,,,,,,,,,,,,,,,,,,,,,,,,,,,,,,,,,,,,,,,,,,,,,,
294244,2022-09-21_12h33.27.684,vts_reward_expectancy,2022.2.4,Win32,20,Firefox,1920,1080,,,a,1.608,10,20,0,0,2,2,0,1,1,0,0,0,0,1,0,0,triangle,circle,,,,,,,,,,,,,,,,,,,,,,,,,,,,,,,,,,,,,,,,,,,,,,,,,,,,,,
294244,2022-09-21_12h33.27.684,vts_reward_expectancy,2022.2.4,Win32,20,Firefox,1920,1080,,,l,2.069,10,30,0,0,3,3,1,1,1,0,0,0,0,0,1,0,triangle,hexagon,,,,,,,,,,,,,,,,,,,,,,,,,,,,,,,,,,,,,,,,,,,,,,,,,,,,,,
294244,2022-09-21_12h33.27.684,vts_reward_expectancy,2022.2.4,Win32,20,Firefox,1920,1080,,,a,0.949,1,31,0,0,4,4,11,1,0,0,0,1,0,0,1,0,star,hexagon,,,,,,,,,,,,,,,,,,,,,,,,,,,,,,,,,,,,,,,,,,,,,,,,,,,,,,
294244,2022-09-21_12h33.27.684,vts_reward_expectancy,2022.2.4,Win32,20,Firefox,1920,1080,,,a,1.471,10,41,0,0,5,5,5,1,0,1,0,0,0,0,0,1,circle,star,,,,,,,,,,,,,,,,,,,,,,,,,,,,,,,,,,,,,,,,,,,,,,,,,,,,,,
294244,2022-09-21_12h33.27.684,vts_reward_expectancy,2022.2.4,Win32,20,Firefox,1920,1080,,,l,1.041,1,42,0,0,6,6,2,1,1,0,0,0,0,0,0,1,triangle,star,,,,,,,,,,,,,,,,,,,,,,,,,,,,,,,,,,,,,,,,,,,,,,,,,,,,,,
294244,2022-09-21_12h33.27.684,vts_reward_expectancy,2022.2.4,Win32,20,Firefox,1920,1080,,,l,14.338,10,52,0,0,7,7,4,1,0,1,0,0,0,0,1,0,circle,hexagon,,,,,,,,,,,,,,,,,,,,,,,,,,,,,,,,,,,,,,,,,,,,,,,,,,,,,,
294244,2022-09-21_12h33.27.684,vts_reward_expectancy,2022.2.4,Win32,20,Firefox,1920,1080,,,a,4.526,1,53,0,0,8,8,8,1,0,0,1,0,0,0,0,1,hexagon,star,,,,,,,,,,,,,,,,,,,,,,,,,,,,,,,,,,,,,,,,,,,,,,,,,,,,,,
294244,2022-09-21_12h33.27.684,vts_reward_expectancy,2022.2.4,Win32,20,Firefox,1920,1080,,,a,2.205,10,63,0,0,9,9,3,1,0,1,0,0,1,0,0,0,circle,triangle,,,,,,,,,,,,,,,,,,,,,,,,,,,,,,,,,,,,,,,,,,,,,,,,,,,,,,
294244,2022-09-21_12h33.27.684,vts_reward_expectancy,2022.2.4,Win32,20,Firefox,1920,1080,,,l,1.803,10,73,0,0,10,10,9,1,0,0,0,1,1,0,0,0,star,triangle,,,,,,,,,,,,,,,,,,,,,,,,,,,,,,,,,,,,,,,,,,,,,,,,,,,,,,
294244,2022-09-21_12h33.27.684,vts_reward_expectancy,2022.2.4,Win32,20,Firefox,1920,1080,,,a,1.413,1,74,0,0,11,11,6,1,0,0,1,0,1,0,0,0,hexagon,triangle,,,,,,,,,,,,,,,,,,,,,,,,,,,,,,,,,,,,,,,,,,,,,,,,,,,,,,
294244,2022-09-21_12h33.27.684,vts_reward_expectancy,2022.2.4,Win32,20,Firefox,1920,1080,,,l,0.736,10,84,0,1,0,12,7,1,0,0,1,0,0,1,0,0,hexagon,circle,,,,,,,,,,,,,,,,,,,,,,,,,,,,,,,,,,,,,,,,,,,,,,,,,,,,,,
294244,2022-09-21_12h33.27.684,vts_reward_expectancy,2022.2.4,Win32,20,Firefox,1920,1080,,,l,0.802,10,94,0,1,1,13,10,1,0,0,0,1,0,1,0,0,star ,circle,,,,,,,,,,,,,,,,,,,,,,,,,,,,,,,,,,,,,,,,,,,,,,,,,,,,,,
294244,2022-09-21_12h33.27.684,vts_reward_expectancy,2022.2.4,Win32,20,Firefox,1920,1080,,,a,0.651,1,95,0,1,2,14,1,1,1,0,0,0,0,0,1,0,triangle,hexagon,,,,,,,,,,,,,,,,,,,,,,,,,,,,,,,,,,,,,,,,,,,,,,,,,,,,,,
294244,2022-09-21_12h33.27.684,vts_reward_expectancy,2022.2.4,Win32,20,Firefox,1920,1080,,,a,0.652,10,105,0,1,3,15,5,1,0,1,0,0,0,0,0,1,circle,star,,,,,,,,,,,,,,,,,,,,,,,,,,,,,,,,,,,,,,,,,,,,,,,,,,,,,,
294244,2022-09-21_12h33.27.684,vts_reward_expectancy,2022.2.4,Win32,20,Firefox,1920,1080,,,a,0.973,1,106,0,1,4,16,4,1,0,1,0,0,0,0,1,0,circle,hexagon,,,,,,,,,,,,,,,,,,,,,,,,,,,,,,,,,,,,,,,,,,,,,,,,,,,,,,
294244,2022-09-21_12h33.27.684,vts_reward_expectancy,2022.2.4,Win32,20,Firefox,1920,1080,,,l,1.319,1,107,0,1,5,17,8,1,0,0,1,0,0,0,0,1,hexagon,star,,,,,,,,,,,,,,,,,,,,,,,,,,,,,,,,,,,,,,,,,,,,,,,,,,,,,,
294244,2022-09-21_12h33.27.684,vts_reward_expectancy,2022.2.4,Win32,20,Firefox,1920,1080,,,a,0.701,1,108,0,1,6,18,3,1,0,1,0,0,1,0,0,0,circle,triangle,,,,,,,,,,,,,,,,,,,,,,,,,,,,,,,,,,,,,,,,,,,,,,,,,,,,,,
294244,2022-09-21_12h33.27.684,vts_reward_expectancy,2022.2.4,Win32,20,Firefox,1920,1080,,,a,0.985,1,109,0,1,7,19,2,1,1,0,0,0,0,0,0,1,triangle,star,,,,,,,,,,,,,,,,,,,,,,,,,,,,,,,,,,,,,,,,,,,,,,,,,,,,,,
294244,2022-09-21_12h33.27.684,vts_reward_expectancy,2022.2.4,Win32,20,Firefox,1920,1080,,,l,0.7,1,110,0,1,8,20,11,1,0,0,0,1,0,0,1,0,star,hexagon,,,,,,,,,,,,,,,,,,,,,,,,,,,,,,,,,,,,,,,,,,,,,,,,,,,,,,
294244,2022-09-21_12h33.27.684,vts_reward_expectancy,2022.2.4,Win32,20,Firefox,1920,1080,,,l,0.793,1,111,0,1,9,21,6,1,0,0,1,0,1,0,0,0,hexagon,triangle,,,,,,,,,,,,,,,,,,,,,,,,,,,,,,,,,,,,,,,,,,,,,,,,,,,,,,
294244,2022-09-21_12h33.27.684,vts_reward_expectancy,2022.2.4,Win32,20,Firefox,1920,1080,,,a,1.018,10,121,0,1,10,22,9,1,0,0,0,1,1,0,0,0,star,triangle,,,,,,,,,,,,,,,,,,,,,,,,,,,,,,,,,,,,,,,,,,,,,,,,,,,,,,
294244,2022-09-21_12h33.27.684,vts_reward_expectancy,2022.2.4,Win32,20,Firefox,1920,1080,,,l,1.318,1,122,0,1,11,23,0,1,1,0,0,0,0,1,0,0,triangle,circle,,,,,,,,,,,,,,,,,,,,,,,,,,,,,,,,,,,,,,,,,,,,,,,,,,,,,,
294244,2022-09-21_12h33.27.684,vts_reward_expectancy,2022.2.4,Win32,20,Firefox,1920,1080,,,a,0.584,10,132,0,2,0,24,8,1,0,0,1,0,0,0,0,1,hexagon,star,,,,,,,,,,,,,,,,,,,,,,,,,,,,,,,,,,,,,,,,,,,,,,,,,,,,,,
294244,2022-09-21_12h33.27.684,vts_reward_expectancy,2022.2.4,Win32,20,Firefox,1920,1080,,,l,4.046,1,133,0,2,1,25,9,1,0,0,0,1,1,0,0,0,star,triangle,,,,,,,,,,,,,,,,,,,,,,,,,,,,,,,,,,,,,,,,,,,,,,,,,,,,,,
294244,2022-09-21_12h33.27.684,vts_reward_expectancy,2022.2.4,Win32,20,Firefox,1920,1080,,,a,0.984,1,134,0,2,2,26,10,1,0,0,0,1,0,1,0,0,star ,circle,,,,,,,,,,,,,,,,,,,,,,,,,,,,,,,,,,,,,,,,,,,,,,,,,,,,,,
294244,2022-09-21_12h33.27.684,vts_reward_expectancy,2022.2.4,Win32,20,Firefox,1920,1080,,,l,0.036,10,144,0,2,3,27,0,1,1,0,0,0,0,1,0,0,triangle,circle,,,,,,,,,,,,,,,,,,,,,,,,,,,,,,,,,,,,,,,,,,,,,,,,,,,,,,
294244,2022-09-21_12h33.27.684,vts_reward_expectancy,2022.2.4,Win32,20,Firefox,1920,1080,,,l,0.053,1,145,0,2,4,28,11,1,0,0,0,1,0,0,1,0,star,hexagon,,,,,,,,,,,,,,,,,,,,,,,,,,,,,,,,,,,,,,,,,,,,,,,,,,,,,,
294244,2022-09-21_12h33.27.684,vts_reward_expectancy,2022.2.4,Win32,20,Firefox,1920,1080,,,l,0.069,10,155,0,2,5,29,4,1,0,1,0,0,0,0,1,0,circle,hexagon,,,,,,,,,,,,,,,,,,,,,,,,,,,,,,,,,,,,,,,,,,,,,,,,,,,,,,
294244,2022-09-21_12h33.27.684,vts_reward_expectancy,2022.2.4,Win32,20,Firefox,1920,1080,,,a,0.104,1,156,0,2,6,30,1,1,1,0,0,0,0,0,1,0,triangle,hexagon,,,,,,,,,,,,,,,,,,,,,,,,,,,,,,,,,,,,,,,,,,,,,,,,,,,,,,
294244,2022-09-21_12h33.27.684,vts_reward_expectancy,2022.2.4,Win32,20,Firefox,1920,1080,,,l,0.003,10,166,0,2,7,31,7,1,0,0,1,0,0,1,0,0,hexagon,circle,,,,,,,,,,,,,,,,,,,,,,,,,,,,,,,,,,,,,,,,,,,,,,,,,,,,,,
294244,2022-09-21_12h33.27.684,vts_reward_expectancy,2022.2.4,Win32,20,Firefox,1920,1080,,,l,0.083,1,167,0,2,8,32,3,1,0,1,0,0,1,0,0,0,circle,triangle,,,,,,,,,,,,,,,,,,,,,,,,,,,,,,,,,,,,,,,,,,,,,,,,,,,,,,
294244,2022-09-21_12h33.27.684,vts_reward_expectancy,2022.2.4,Win32,20,Firefox,1920,1080,,,l,0.524,1,168,0,2,9,33,6,1,0,0,1,0,1,0,0,0,hexagon,triangle,,,,,,,,,,,,,,,,,,,,,,,,,,,,,,,,,,,,,,,,,,,,,,,,,,,,,,
294244,2022-09-21_12h33.27.684,vts_reward_expectancy,2022.2.4,Win32,20,Firefox,1920,1080,,,l,1.803,1,169,0,2,10,34,5,1,0,1,0,0,0,0,0,1,circle,star,,,,,,,,,,,,,,,,,,,,,,,,,,,,,,,,,,,,,,,,,,,,,,,,,,,,,,
294244,2022-09-21_12h33.27.684,vts_reward_expectancy,2022.2.4,Win32,20,Firefox,1920,1080,,,a,0.719,1,170,0,2,11,35,2,1,1,0,0,0,0,0,0,1,triangle,star,,,,,,,,,,,,,,,,,,,,,,,,,,,,,,,,,,,,,,,,,,,,,,,,,,,,,,
294244,2022-09-21_12h33.27.684,vts_reward_expectancy,2022.2.4,Win32,20,Firefox,1920,1080,,,l,1.254,10,180,1,0,0,0,1,1,1,0,0,0,0,0,1,0,triangle,hexagon,,,,,,,,,,,,,,,,,,,,,,,,,,,,,,,,,,,,,,,,,,,,,,,,,,,,,,
294244,2022-09-21_12h33.27.684,vts_reward_expectancy,2022.2.4,Win32,20,Firefox,1920,1080,,,l,1.58,1,181,1,0,1,1,0,1,1,0,0,0,0,1,0,0,triangle,circle,,,,,,,,,,,,,,,,,,,,,,,,,,,,,,,,,,,,,,,,,,,,,,,,,,,,,,
294244,2022-09-21_12h33.27.684,vts_reward_expectancy,2022.2.4,Win32,20,Firefox,1920,1080,,,a,1.188,10,191,1,0,2,2,9,1,0,0,0,1,1,0,0,0,star,triangle,,,,,,,,,,,,,,,,,,,,,,,,,,,,,,,,,,,,,,,,,,,,,,,,,,,,,,
294244,2022-09-21_12h33.27.684,vts_reward_expectancy,2022.2.4,Win32,20,Firefox,1920,1080,,,l,1.125,10,201,1,0,3,3,10,1,0,0,0,1,0,1,0,0,star ,circle,,,,,,,,,,,,,,,,,,,,,,,,,,,,,,,,,,,,,,,,,,,,,,,,,,,,,,
294244,2022-09-21_12h33.27.684,vts_reward_expectancy,2022.2.4,Win32,20,Firefox,1920,1080,,,l,1.917,10,211,1,0,4,4,2,1,1,0,0,0,0,0,0,1,triangle,star,,,,,,,,,,,,,,,,,,,,,,,,,,,,,,,,,,,,,,,,,,,,,,,,,,,,,,
294244,2022-09-21_12h33.27.684,vts_reward_expectancy,2022.2.4,Win32,20,Firefox,1920,1080,,,a,1.856,1,212,1,0,5,5,6,1,0,0,1,0,1,0,0,0,hexagon,triangle,,,,,,,,,,,,,,,,,,,,,,,,,,,,,,,,,,,,,,,,,,,,,,,,,,,,,,
294244,2022-09-21_12h33.27.684,vts_reward_expectancy,2022.2.4,Win32,20,Firefox,1920,1080,,,a,1.666,10,222,1,0,6,6,8,1,0,0,1,0,0,0,0,1,hexagon,star,,,,,,,,,,,,,,,,,,,,,,,,,,,,,,,,,,,,,,,,,,,,,,,,,,,,,,
294244,2022-09-21_12h33.27.684,vts_reward_expectancy,2022.2.4,Win32,20,Firefox,1920,1080,,,l,1.485,10,232,1,0,7,7,11,1,0,0,0,1,0,0,1,0,star,hexagon,,,,,,,,,,,,,,,,,,,,,,,,,,,,,,,,,,,,,,,,,,,,,,,,,,,,,,
294244,2022-09-21_12h33.27.684,vts_reward_expectancy,2022.2.4,Win32,20,Firefox,1920,1080,,,l,2.363,10,242,1,0,8,8,3,1,0,1,0,0,1,0,0,0,circle,triangle,,,,,,,,,,,,,,,,,,,,,,,,,,,,,,,,,,,,,,,,,,,,,,,,,,,,,,
294244,2022-09-21_12h33.27.684,vts_reward_expectancy,2022.2.4,Win32,20,Firefox,1920,1080,,,l,1.349,1,243,1,0,9,9,4,1,0,1,0,0,0,0,1,0,circle,hexagon,,,,,,,,,,,,,,,,,,,,,,,,,,,,,,,,,,,,,,,,,,,,,,,,,,,,,,
294244,2022-09-21_12h33.27.684,vts_reward_expectancy,2022.2.4,Win32,20,Firefox,1920,1080,,,a,0.738,1,244,1,0,10,10,5,1,0,1,0,0,0,0,0,1,circle,star,,,,,,,,,,,,,,,,,,,,,,,,,,,,,,,,,,,,,,,,,,,,,,,,,,,,,,
294244,2022-09-21_12h33.27.684,vts_reward_expectancy,2022.2.4,Win32,20,Firefox,1920,1080,,,a,1.637,10,254,1,0,11,11,7,1,0,0,1,0,0,1,0,0,hexagon,circle,,,,,,,,,,,,,,,,,,,,,,,,,,,,,,,,,,,,,,,,,,,,,,,,,,,,,,
294244,2022-09-21_12h33.27.684,vts_reward_expectancy,2022.2.4,Win32,20,Firefox,1920,1080,,,a,1.037,10,264,1,1,0,12,7,1,0,0,1,0,0,1,0,0,hexagon,circle,,,,,,,,,,,,,,,,,,,,,,,,,,,,,,,,,,,,,,,,,,,,,,,,,,,,,,
294244,2022-09-21_12h33.27.684,vts_reward_expectancy,2022.2.4,Win32,20,Firefox,1920,1080,,,a,3.718,1,265,1,1,1,13,9,1,0,0,0,1,1,0,0,0,star,triangle,,,,,,,,,,,,,,,,,,,,,,,,,,,,,,,,,,,,,,,,,,,,,,,,,,,,,,
294244,2022-09-21_12h33.27.684,vts_reward_expectancy,2022.2.4,Win32,20,Firefox,1920,1080,,,l,2.158,1,266,1,1,2,14,3,1,0,1,0,0,1,0,0,0,circle,triangle,,,,,,,,,,,,,,,,,,,,,,,,,,,,,,,,,,,,,,,,,,,,,,,,,,,,,,
294244,2022-09-21_12h33.27.684,vts_reward_expectancy,2022.2.4,Win32,20,Firefox,1920,1080,,,l,0.946,1,267,1,1,3,15,4,1,0,1,0,0,0,0,1,0,circle,hexagon,,,,,,,,,,,,,,,,,,,,,,,,,,,,,,,,,,,,,,,,,,,,,,,,,,,,,,
294244,2022-09-21_12h33.27.684,vts_reward_expectancy,2022.2.4,Win32,20,Firefox,1920,1080,,,l,1.609,1,268,1,1,4,16,2,1,1,0,0,0,0,0,0,1,triangle,star,,,,,,,,,,,,,,,,,,,,,,,,,,,,,,,,,,,,,,,,,,,,,,,,,,,,,,
294244,2022-09-21_12h33.27.684,vts_reward_expectancy,2022.2.4,Win32,20,Firefox,1920,1080,,,a,0.85,1,269,1,1,5,17,5,1,0,1,0,0,0,0,0,1,circle,star,,,,,,,,,,,,,,,,,,,,,,,,,,,,,,,,,,,,,,,,,,,,,,,,,,,,,,
294244,2022-09-21_12h33.27.684,vts_reward_expectancy,2022.2.4,Win32,20,Firefox,1920,1080,,,l,0.655,10,279,1,1,6,18,1,1,1,0,0,0,0,0,1,0,triangle,hexagon,,,,,,,,,,,,,,,,,,,,,,,,,,,,,,,,,,,,,,,,,,,,,,,,,,,,,,
294244,2022-09-21_12h33.27.684,vts_reward_expectancy,2022.2.4,Win32,20,Firefox,1920,1080,,,l,2.191,10,289,1,1,7,19,11,1,0,0,0,1,0,0,1,0,star,hexagon,,,,,,,,,,,,,,,,,,,,,,,,,,,,,,,,,,,,,,,,,,,,,,,,,,,,,,
294244,2022-09-21_12h33.27.684,vts_reward_expectancy,2022.2.4,Win32,20,Firefox,1920,1080,,,a,1.667,10,299,1,1,8,20,10,1,0,0,0,1,0,1,0,0,star ,circle,,,,,,,,,,,,,,,,,,,,,,,,,,,,,,,,,,,,,,,,,,,,,,,,,,,,,,
294244,2022-09-21_12h33.27.684,vts_reward_expectancy,2022.2.4,Win32,20,Firefox,1920,1080,,,l,1.449,10,309,1,1,9,21,0,1,1,0,0,0,0,1,0,0,triangle,circle,,,,,,,,,,,,,,,,,,,,,,,,,,,,,,,,,,,,,,,,,,,,,,,,,,,,,,
294244,2022-09-21_12h33.27.684,vts_reward_expectancy,2022.2.4,Win32,20,Firefox,1920,1080,,,a,1.154,10,319,1,1,10,22,6,1,0,0,1,0,1,0,0,0,hexagon,triangle,,,,,,,,,,,,,,,,,,,,,,,,,,,,,,,,,,,,,,,,,,,,,,,,,,,,,,
294244,2022-09-21_12h33.27.684,vts_reward_expectancy,2022.2.4,Win32,20,Firefox,1920,1080,,,a,1.157,10,329,1,1,11,23,8,1,0,0,1,0,0,0,0,1,hexagon,star,,,,,,,,,,,,,,,,,,,,,,,,,,,,,,,,,,,,,,,,,,,,,,,,,,,,,,
294244,2022-09-21_12h33.27.684,vts_reward_expectancy,2022.2.4,Win32,20,Firefox,1920,1080,,,l,0.938,10,339,1,2,0,24,1,1,1,0,0,0,0,0,1,0,triangle,hexagon,,,,,,,,,,,,,,,,,,,,,,,,,,,,,,,,,,,,,,,,,,,,,,,,,,,,,,
294244,2022-09-21_12h33.27.684,vts_reward_expectancy,2022.2.4,Win32,20,Firefox,1920,1080,,,a,0.666,10,349,1,2,1,25,8,1,0,0,1,0,0,0,0,1,hexagon,star,,,,,,,,,,,,,,,,,,,,,,,,,,,,,,,,,,,,,,,,,,,,,,,,,,,,,,
294244,2022-09-21_12h33.27.684,vts_reward_expectancy,2022.2.4,Win32,20,Firefox,1920,1080,,,l,1.422,1,350,1,2,2,26,2,1,1,0,0,0,0,0,0,1,triangle,star,,,,,,,,,,,,,,,,,,,,,,,,,,,,,,,,,,,,,,,,,,,,,,,,,,,,,,
294244,2022-09-21_12h33.27.684,vts_reward_expectancy,2022.2.4,Win32,20,Firefox,1920,1080,,,l,0.772,10,360,1,2,3,27,11,1,0,0,0,1,0,0,1,0,star,hexagon,,,,,,,,,,,,,,,,,,,,,,,,,,,,,,,,,,,,,,,,,,,,,,,,,,,,,,
294244,2022-09-21_12h33.27.684,vts_reward_expectancy,2022.2.4,Win32,20,Firefox,1920,1080,,,a,1.125,10,370,1,2,4,28,0,1,1,0,0,0,0,1,0,0,triangle,circle,,,,,,,,,,,,,,,,,,,,,,,,,,,,,,,,,,,,,,,,,,,,,,,,,,,,,,
294244,2022-09-21_12h33.27.684,vts_reward_expectancy,2022.2.4,Win32,20,Firefox,1920,1080,,,l,1.32,1,371,1,2,5,29,5,1,0,1,0,0,0,0,0,1,circle,star,,,,,,,,,,,,,,,,,,,,,,,,,,,,,,,,,,,,,,,,,,,,,,,,,,,,,,
294244,2022-09-21_12h33.27.684,vts_reward_expectancy,2022.2.4,Win32,20,Firefox,1920,1080,,,a,0.714,10,381,1,2,6,30,6,1,0,0,1,0,1,0,0,0,hexagon,triangle,,,,,,,,,,,,,,,,,,,,,,,,,,,,,,,,,,,,,,,,,,,,,,,,,,,,,,
294244,2022-09-21_12h33.27.684,vts_reward_expectancy,2022.2.4,Win32,20,Firefox,1920,1080,,,l,0.639,10,391,1,2,7,31,4,1,0,1,0,0,0,0,1,0,circle,hexagon,,,,,,,,,,,,,,,,,,,,,,,,,,,,,,,,,,,,,,,,,,,,,,,,,,,,,,
294244,2022-09-21_12h33.27.684,vts_reward_expectancy,2022.2.4,Win32,20,Firefox,1920,1080,,,a,0.787,1,392,1,2,8,32,9,1,0,0,0,1,1,0,0,0,star,triangle,,,,,,,,,,,,,,,,,,,,,,,,,,,,,,,,,,,,,,,,,,,,,,,,,,,,,,
294244,2022-09-21_12h33.27.684,vts_reward_expectancy,2022.2.4,Win32,20,Firefox,1920,1080,,,a,0.658,10,402,1,2,9,33,3,1,0,1,0,0,1,0,0,0,circle,triangle,,,,,,,,,,,,,,,,,,,,,,,,,,,,,,,,,,,,,,,,,,,,,,,,,,,,,,
294244,2022-09-21_12h33.27.684,vts_reward_expectancy,2022.2.4,Win32,20,Firefox,1920,1080,,,l,0.678,10,412,1,2,10,34,10,1,0,0,0,1,0,1,0,0,star ,circle,,,,,,,,,,,,,,,,,,,,,,,,,,,,,,,,,,,,,,,,,,,,,,,,,,,,,,
294244,2022-09-21_12h33.27.684,vts_reward_expectancy,2022.2.4,Win32,20,Firefox,1920,1080,,,a,0.586,10,422,1,2,11,35,7,1,0,0,1,0,0,1,0,0,hexagon,circle,,,,,,,,,,,,,,,,,,,,,,,,,,,,,,,,,,,,,,,,,,,,,,,,,,,,,,
294244,2022-09-21_12h33.27.684,vts_reward_expectancy,2022.2.4,Win32,20,Firefox,1920,1080,,,l,1.338,10,432,2,0,0,0,11,1,0,0,0,1,0,0,1,0,star,hexagon,,,,,,,,,,,,,,,,,,,,,,,,,,,,,,,,,,,,,,,,,,,,,,,,,,,,,,
294244,2022-09-21_12h33.27.684,vts_reward_expectancy,2022.2.4,Win32,20,Firefox,1920,1080,,,a,0.867,1,433,2,0,1,1,9,1,0,0,0,1,1,0,0,0,star,triangle,,,,,,,,,,,,,,,,,,,,,,,,,,,,,,,,,,,,,,,,,,,,,,,,,,,,,,
294244,2022-09-21_12h33.27.684,vts_reward_expectancy,2022.2.4,Win32,20,Firefox,1920,1080,,,l,0.704,10,443,2,0,2,2,4,1,0,1,0,0,0,0,1,0,circle,hexagon,,,,,,,,,,,,,,,,,,,,,,,,,,,,,,,,,,,,,,,,,,,,,,,,,,,,,,
294244,2022-09-21_12h33.27.684,vts_reward_expectancy,2022.2.4,Win32,20,Firefox,1920,1080,,,l,0.657,10,453,2,0,3,3,1,1,1,0,0,0,0,0,1,0,triangle,hexagon,,,,,,,,,,,,,,,,,,,,,,,,,,,,,,,,,,,,,,,,,,,,,,,,,,,,,,
294244,2022-09-21_12h33.27.684,vts_reward_expectancy,2022.2.4,Win32,20,Firefox,1920,1080,,,a,0.494,10,463,2,0,4,4,6,1,0,0,1,0,1,0,0,0,hexagon,triangle,,,,,,,,,,,,,,,,,,,,,,,,,,,,,,,,,,,,,,,,,,,,,,,,,,,,,,
294244,2022-09-21_12h33.27.684,vts_reward_expectancy,2022.2.4,Win32,20,Firefox,1920,1080,,,a,0.618,10,473,2,0,5,5,8,1,0,0,1,0,0,0,0,1,hexagon,star,,,,,,,,,,,,,,,,,,,,,,,,,,,,,,,,,,,,,,,,,,,,,,,,,,,,,,
294244,2022-09-21_12h33.27.684,vts_reward_expectancy,2022.2.4,Win32,20,Firefox,1920,1080,,,a,1.053,10,483,2,0,6,6,5,1,0,1,0,0,0,0,0,1,circle,star,,,,,,,,,,,,,,,,,,,,,,,,,,,,,,,,,,,,,,,,,,,,,,,,,,,,,,
294244,2022-09-21_12h33.27.684,vts_reward_expectancy,2022.2.4,Win32,20,Firefox,1920,1080,,,a,0.85,10,493,2,0,7,7,3,1,0,1,0,0,1,0,0,0,circle,triangle,,,,,,,,,,,,,,,,,,,,,,,,,,,,,,,,,,,,,,,,,,,,,,,,,,,,,,
294244,2022-09-21_12h33.27.684,vts_reward_expectancy,2022.2.4,Win32,20,Firefox,1920,1080,,,l,0.677,10,503,2,0,8,8,10,1,0,0,0,1,0,1,0,0,star ,circle,,,,,,,,,,,,,,,,,,,,,,,,,,,,,,,,,,,,,,,,,,,,,,,,,,,,,,
294244,2022-09-21_12h33.27.684,vts_reward_expectancy,2022.2.4,Win32,20,Firefox,1920,1080,,,l,0.706,1,504,2,0,9,9,0,1,1,0,0,0,0,1,0,0,triangle,circle,,,,,,,,,,,,,,,,,,,,,,,,,,,,,,,,,,,,,,,,,,,,,,,,,,,,,,
294244,2022-09-21_12h33.27.684,vts_reward_expectancy,2022.2.4,Win32,20,Firefox,1920,1080,,,a,0.64,10,514,2,0,10,10,7,1,0,0,1,0,0,1,0,0,hexagon,circle,,,,,,,,,,,,,,,,,,,,,,,,,,,,,,,,,,,,,,,,,,,,,,,,,,,,,,
294244,2022-09-21_12h33.27.684,vts_reward_expectancy,2022.2.4,Win32,20,Firefox,1920,1080,,,l,0.954,1,515,2,0,11,11,2,1,1,0,0,0,0,0,0,1,triangle,star,,,,,,,,,,,,,,,,,,,,,,,,,,,,,,,,,,,,,,,,,,,,,,,,,,,,,,
294244,2022-09-21_12h33.27.684,vts_reward_expectancy,2022.2.4,Win32,20,Firefox,1920,1080,,,l,0.07,10,525,2,1,0,12,4,1,0,1,0,0,0,0,1,0,circle,hexagon,,,,,,,,,,,,,,,,,,,,,,,,,,,,,,,,,,,,,,,,,,,,,,,,,,,,,,
294244,2022-09-21_12h33.27.684,vts_reward_expectancy,2022.2.4,Win32,20,Firefox,1920,1080,,,a,0.077,10,535,2,1,1,13,10,1,0,0,0,1,0,1,0,0,star ,circle,,,,,,,,,,,,,,,,,,,,,,,,,,,,,,,,,,,,,,,,,,,,,,,,,,,,,,
294244,2022-09-21_12h33.27.684,vts_reward_expectancy,2022.2.4,Win32,20,Firefox,1920,1080,,,a,0.045,1,536,2,1,2,14,9,1,0,0,0,1,1,0,0,0,star,triangle,,,,,,,,,,,,,,,,,,,,,,,,,,,,,,,,,,,,,,,,,,,,,,,,,,,,,,
294244,2022-09-21_12h33.27.684,vts_reward_expectancy,2022.2.4,Win32,20,Firefox,1920,1080,,,l,0.038,10,546,2,1,3,15,6,1,0,0,1,0,1,0,0,0,hexagon,triangle,,,,,,,,,,,,,,,,,,,,,,,,,,,,,,,,,,,,,,,,,,,,,,,,,,,,,,
294244,2022-09-21_12h33.27.684,vts_reward_expectancy,2022.2.4,Win32,20,Firefox,1920,1080,,,l,0.044,1,547,2,1,4,16,2,1,1,0,0,0,0,0,0,1,triangle,star,,,,,,,,,,,,,,,,,,,,,,,,,,,,,,,,,,,,,,,,,,,,,,,,,,,,,,
294244,2022-09-21_12h33.27.684,vts_reward_expectancy,2022.2.4,Win32,20,Firefox,1920,1080,,,a,0.076,10,557,2,1,5,17,1,1,1,0,0,0,0,0,1,0,triangle,hexagon,,,,,,,,,,,,,,,,,,,,,,,,,,,,,,,,,,,,,,,,,,,,,,,,,,,,,,
294244,2022-09-21_12h33.27.684,vts_reward_expectancy,2022.2.4,Win32,20,Firefox,1920,1080,,,a,0.034,10,567,2,1,6,18,7,1,0,0,1,0,0,1,0,0,hexagon,circle,,,,,,,,,,,,,,,,,,,,,,,,,,,,,,,,,,,,,,,,,,,,,,,,,,,,,,
294244,2022-09-21_12h33.27.684,vts_reward_expectancy,2022.2.4,Win32,20,Firefox,1920,1080,,,a,0.003,10,577,2,1,7,19,5,1,0,1,0,0,0,0,0,1,circle,star,,,,,,,,,,,,,,,,,,,,,,,,,,,,,,,,,,,,,,,,,,,,,,,,,,,,,,
294244,2022-09-21_12h33.27.684,vts_reward_expectancy,2022.2.4,Win32,20,Firefox,1920,1080,,,a,0.084,10,587,2,1,8,20,3,1,0,1,0,0,1,0,0,0,circle,triangle,,,,,,,,,,,,,,,,,,,,,,,,,,,,,,,,,,,,,,,,,,,,,,,,,,,,,,
294244,2022-09-21_12h33.27.684,vts_reward_expectancy,2022.2.4,Win32,20,Firefox,1920,1080,,,a,0.036,10,597,2,1,9,21,0,1,1,0,0,0,0,1,0,0,triangle,circle,,,,,,,,,,,,,,,,,,,,,,,,,,,,,,,,,,,,,,,,,,,,,,,,,,,,,,
294244,2022-09-21_12h33.27.684,vts_reward_expectancy,2022.2.4,Win32,20,Firefox,1920,1080,,,a,0.042,1,598,2,1,10,22,11,1,0,0,0,1,0,0,1,0,star,hexagon,,,,,,,,,,,,,,,,,,,,,,,,,,,,,,,,,,,,,,,,,,,,,,,,,,,,,,
294244,2022-09-21_12h33.27.684,vts_reward_expectancy,2022.2.4,Win32,20,Firefox,1920,1080,,,a,0.004,10,608,2,1,11,23,8,1,0,0,1,0,0,0,0,1,hexagon,star,,,,,,,,,,,,,,,,,,,,,,,,,,,,,,,,,,,,,,,,,,,,,,,,,,,,,,
294244,2022-09-21_12h33.27.684,vts_reward_expectancy,2022.2.4,Win32,20,Firefox,1920,1080,,,l,0.121,10,618,2,2,0,24,1,1,1,0,0,0,0,0,1,0,triangle,hexagon,,,,,,,,,,,,,,,,,,,,,,,,,,,,,,,,,,,,,,,,,,,,,,,,,,,,,,
294244,2022-09-21_12h33.27.684,vts_reward_expectancy,2022.2.4,Win32,20,Firefox,1920,1080,,,a,0.003,1,619,2,2,1,25,11,1,0,0,0,1,0,0,1,0,star,hexagon,,,,,,,,,,,,,,,,,,,,,,,,,,,,,,,,,,,,,,,,,,,,,,,,,,,,,,
294244,2022-09-21_12h33.27.684,vts_reward_expectancy,2022.2.4,Win32,20,Firefox,1920,1080,,,a,0.136,10,629,2,2,2,26,2,1,1,0,0,0,0,0,0,1,triangle,star,,,,,,,,,,,,,,,,,,,,,,,,,,,,,,,,,,,,,,,,,,,,,,,,,,,,,,
294244,2022-09-21_12h33.27.684,vts_reward_expectancy,2022.2.4,Win32,20,Firefox,1920,1080,,,l,0.115,1,630,2,2,3,27,5,1,0,1,0,0,0,0,0,1,circle,star,,,,,,,,,,,,,,,,,,,,,,,,,,,,,,,,,,,,,,,,,,,,,,,,,,,,,,
294244,2022-09-21_12h33.27.684,vts_reward_expectancy,2022.2.4,Win32,20,Firefox,1920,1080,,,l,0.117,1,631,2,2,4,28,6,1,0,0,1,0,1,0,0,0,hexagon,triangle,,,,,,,,,,,,,,,,,,,,,,,,,,,,,,,,,,,,,,,,,,,,,,,,,,,,,,
294244,2022-09-21_12h33.27.684,vts_reward_expectancy,2022.2.4,Win32,20,Firefox,1920,1080,,,a,0.628,10,641,2,2,5,29,7,1,0,0,1,0,0,1,0,0,hexagon,circle,,,,,,,,,,,,,,,,,,,,,,,,,,,,,,,,,,,,,,,,,,,,,,,,,,,,,,
294244,2022-09-21_12h33.27.684,vts_reward_expectancy,2022.2.4,Win32,20,Firefox,1920,1080,,,l,1.508,10,651,2,2,6,30,9,1,0,0,0,1,1,0,0,0,star,triangle,,,,,,,,,,,,,,,,,,,,,,,,,,,,,,,,,,,,,,,,,,,,,,,,,,,,,,
294244,2022-09-21_12h33.27.684,vts_reward_expectancy,2022.2.4,Win32,20,Firefox,1920,1080,,,a,1.186,10,661,2,2,7,31,8,1,0,0,1,0,0,0,0,1,hexagon,star,,,,,,,,,,,,,,,,,,,,,,,,,,,,,,,,,,,,,,,,,,,,,,,,,,,,,,
294244,2022-09-21_12h33.27.684,vts_reward_expectancy,2022.2.4,Win32,20,Firefox,1920,1080,,,l,0.952,1,662,2,2,8,32,4,1,0,1,0,0,0,0,1,0,circle,hexagon,,,,,,,,,,,,,,,,,,,,,,,,,,,,,,,,,,,,,,,,,,,,,,,,,,,,,,
294244,2022-09-21_12h33.27.684,vts_reward_expectancy,2022.2.4,Win32,20,Firefox,1920,1080,,,a,1.412,10,672,2,2,9,33,3,1,0,1,0,0,1,0,0,0,circle,triangle,,,,,,,,,,,,,,,,,,,,,,,,,,,,,,,,,,,,,,,,,,,,,,,,,,,,,,
294244,2022-09-21_12h33.27.684,vts_reward_expectancy,2022.2.4,Win32,20,Firefox,1920,1080,,,l,1.121,10,682,2,2,10,34,10,1,0,0,0,1,0,1,0,0,star ,circle,,,,,,,,,,,,,,,,,,,,,,,,,,,,,,,,,,,,,,,,,,,,,,,,,,,,,,
294244,2022-09-21_12h33.27.684,vts_reward_expectancy,2022.2.4,Win32,20,Firefox,1920,1080,,,l,1.023,10,692,2,2,11,35,0,1,1,0,0,0,0,1,0,0,triangle,circle,,,,,,,,,,,,,,,,,,,,,,,,,,,,,,,,,,,,,,,,,,,,,,,,,,,,,,
294244,2022-09-21_12h33.27.684,vts_reward_expectancy,2022.2.4,Win32,20,Firefox,1920,1080,,,,,,,,,,,,,,,,,,,,,,,139,B,star,0,0,,0,0,0,0,0,1,,,,,,,,,,,,,,,,,,,,,,,,,,,,,,,,,,,,,,,,,,
294244,2022-09-21_12h33.27.684,vts_reward_expectancy,2022.2.4,Win32,20,Firefox,1920,1080,,,,,,,,,,,,,,,,,,,,,,,125,H,circle,1,1,d,0,1,0,1,0,1,2.208,,,,,,,,,,,,,,,,,,,,,,,,,,,,,,,,,,,,,,,,,
294244,2022-09-21_12h33.27.684,vts_reward_expectancy,2022.2.4,Win32,20,Firefox,1920,1080,,,,,,,,,,,,,,,,,,,,,,,167,U,hexagon,1,0,f,0,2,0,2,0,1,0.753,,,,,,,,,,,,,,,,,,,,,,,,,,,,,,,,,,,,,,,,,
294244,2022-09-21_12h33.27.684,vts_reward_expectancy,2022.2.4,Win32,20,Firefox,1920,1080,,,,,,,,,,,,,,,,,,,,,,,160,Y,triangle,1,0,f,0,3,0,3,0,1,0.931,,,,,,,,,,,,,,,,,,,,,,,,,,,,,,,,,,,,,,,,,
294244,2022-09-21_12h33.27.684,vts_reward_expectancy,2022.2.4,Win32,20,Firefox,1920,1080,,,,,,,,,,,,,,,,,,,,,,,132,D,star,1,0,d,0,4,0,4,0,1,1.383,,,,,,,,,,,,,,,,,,,,,,,,,,,,,,,,,,,,,,,,,
294244,2022-09-21_12h33.27.684,vts_reward_expectancy,2022.2.4,Win32,20,Firefox,1920,1080,,,,,,,,,,,,,,,,,,,,,,,146,W,circle,1,0,d,0,5,0,5,0,1,1.89,,,,,,,,,,,,,,,,,,,,,,,,,,,,,,,,,,,,,,,,,
294244,2022-09-21_12h33.27.684,vts_reward_expectancy,2022.2.4,Win32,20,Firefox,1920,1080,,,,,,,,,,,,,,,,,,,,,,,174,F,hexagon,1,0,f,0,6,0,6,0,1,0.57,,,,,,,,,,,,,,,,,,,,,,,,,,,,,,,,,,,,,,,,,
294244,2022-09-21_12h33.27.684,vts_reward_expectancy,2022.2.4,Win32,20,Firefox,1920,1080,,,,,,,,,,,,,,,,,,,,,,,181,S,triangle,1,0,f,0,7,0,7,0,1,0.539,,,,,,,,,,,,,,,,,,,,,,,,,,,,,,,,,,,,,,,,,
294244,2022-09-21_12h33.27.684,vts_reward_expectancy,2022.2.4,Win32,20,Firefox,1920,1080,,,,,,,,,,,,,,,,,,,,,,,139,B,star,1,0,d,0,8,0,8,0,1,0.656,,,,,,,,,,,,,,,,,,,,,,,,,,,,,,,,,,,,,,,,,
294244,2022-09-21_12h33.27.684,vts_reward_expectancy,2022.2.4,Win32,20,Firefox,1920,1080,,,,,,,,,,,,,,,,,,,,,,,125,H,circle,1,0,d,0,9,0,9,0,1,0.917,,,,,,,,,,,,,,,,,,,,,,,,,,,,,,,,,,,,,,,,,
294244,2022-09-21_12h33.27.684,vts_reward_expectancy,2022.2.4,Win32,20,Firefox,1920,1080,,,,,,,,,,,,,,,,,,,,,,,146,W,star,1,0,,1,,,,,,,k,2.128,0,0,0,0,1,,,,,,,,,,,,,,,,,,,,,,,,,,,,,,,,,,
294244,2022-09-21_12h33.27.684,vts_reward_expectancy,2022.2.4,Win32,20,Firefox,1920,1080,,,,,,,,,,,,,,,,,,,,,,,181,F,circle,1,0,,1,,,,,,,j,0.918,1,0,1,0,1,,,,,,,,,,,,,,,,,,,,,,,,,,,,,,,,,,
294244,2022-09-21_12h33.27.684,vts_reward_expectancy,2022.2.4,Win32,20,Firefox,1920,1080,,,,,,,,,,,,,,,,,,,,,,,125,B,triangle,1,0,,1,,,,,,,j,1.696,2,0,2,0,1,,,,,,,,,,,,,,,,,,,,,,,,,,,,,,,,,,
294244,2022-09-21_12h33.27.684,vts_reward_expectancy,2022.2.4,Win32,20,Firefox,1920,1080,,,,,,,,,,,,,,,,,,,,,,,132,S,hexagon,1,0,,1,,,,,,,k,2.367,3,0,3,0,1,,,,,,,,,,,,,,,,,,,,,,,,,,,,,,,,,,
294244,2022-09-21_12h33.27.684,vts_reward_expectancy,2022.2.4,Win32,20,Firefox,1920,1080,,,,,,,,,,,,,,,,,,,,,,,160,H,star,1,0,,1,,,,,,,j,1.874,4,0,4,0,1,,,,,,,,,,,,,,,,,,,,,,,,,,,,,,,,,,
294244,2022-09-21_12h33.27.684,vts_reward_expectancy,2022.2.4,Win32,20,Firefox,1920,1080,,,,,,,,,,,,,,,,,,,,,,,174,Y,circle,1,0,,1,,,,,,,k,0.747,5,0,5,0,1,,,,,,,,,,,,,,,,,,,,,,,,,,,,,,,,,,
294244,2022-09-21_12h33.27.684,vts_reward_expectancy,2022.2.4,Win32,20,Firefox,1920,1080,,,,,,,,,,,,,,,,,,,,,,,139,D,triangle,1,0,,1,,,,,,,j,0.685,6,0,6,0,1,,,,,,,,,,,,,,,,,,,,,,,,,,,,,,,,,,
294244,2022-09-21_12h33.27.684,vts_reward_expectancy,2022.2.4,Win32,20,Firefox,1920,1080,,,,,,,,,,,,,,,,,,,,,,,167,U,hexagon,1,0,,1,,,,,,,k,0.884,7,0,7,0,1,,,,,,,,,,,,,,,,,,,,,,,,,,,,,,,,,,
294244,2022-09-21_12h33.27.684,vts_reward_expectancy,2022.2.4,Win32,20,Firefox,1920,1080,,,,,,,,,,,,,,,,,,,,,,,146,W,circle,1,0,,1,,,,,,,k,0.764,8,0,8,0,1,,,,,,,,,,,,,,,,,,,,,,,,,,,,,,,,,,
294244,2022-09-21_12h33.27.684,vts_reward_expectancy,2022.2.4,Win32,20,Firefox,1920,1080,,,,,,,,,,,,,,,,,,,,,,,181,F,star,1,0,,1,,,,,,,j,0.925,9,0,9,0,1,,,,,,,,,,,,,,,,,,,,,,,,,,,,,,,,,,
294244,2022-09-21_12h33.27.684,vts_reward_expectancy,2022.2.4,Win32,20,Firefox,1920,1080,,,,,0,692,,,,,,,,,,,,,,,,,167,B,star,-1,0,,2,,,,,,,,,,,,,,-1,no_choice,NA,,vtsPrac,0,0,0,0,1,,,,,,,,,,,,,,,,,,,,,,,,
294244,2022-09-21_12h33.27.684,vts_reward_expectancy,2022.2.4,Win32,20,Firefox,1920,1080,,,,,0,692,,,,,,,,,,,,,,,,,174,D,triangle,1,0,,2,,,,,,,,,,,,,,switch,number,numSwt,f,vtsPrac,1,0,1,0,1,1.969,,,,,,,,,,,,,,,,,,,,,,,
294244,2022-09-21_12h33.27.684,vts_reward_expectancy,2022.2.4,Win32,20,Firefox,1920,1080,,,,,0,692,,,,,,,,,,,,,,,,,160,W,star,1,0,,2,,,,,,,,,,,,,,repeat,number,numRpt,f,vtsPrac,2,0,2,0,1,1.997,,,,,,,,,,,,,,,,,,,,,,,
294244,2022-09-21_12h33.27.684,vts_reward_expectancy,2022.2.4,Win32,20,Firefox,1920,1080,,,,,0,692,,,,,,,,,,,,,,,,,181,U,triangle,1,0,,2,,,,,,,,,,,,,,switch,letter,lettSwt,k,vtsPrac,3,0,3,0,1,0.915,,,,,,,,,,,,,,,,,,,,,,,
294244,2022-09-21_12h33.27.684,vts_reward_expectancy,2022.2.4,Win32,20,Firefox,1920,1080,,,,,0,692,,,,,,,,,,,,,,,,,167,B,star,1,0,,2,,,,,,,,,,,,,,switch,number,numSwt,f,vtsPrac,4,0,4,0,1,0.97,,,,,,,,,,,,,,,,,,,,,,,
294244,2022-09-21_12h33.27.684,vts_reward_expectancy,2022.2.4,Win32,20,Firefox,1920,1080,,,,,0,692,,,,,,,,,,,,,,,,,174,D,circle,1,0,,2,,,,,,,,,,,,,,switch,letter,lettSwt,j,vtsPrac,5,0,5,0,1,0.997,,,,,,,,,,,,,,,,,,,,,,,
294244,2022-09-21_12h33.27.684,vts_reward_expectancy,2022.2.4,Win32,20,Firefox,1920,1080,,,,,0,692,,,,,,,,,,,,,,,,,160,W,star,1,0,,2,,,,,,,,,,,,,,switch,number,numSwt,f,vtsPrac,6,0,6,0,1,0.66,,,,,,,,,,,,,,,,,,,,,,,
294244,2022-09-21_12h33.27.684,vts_reward_expectancy,2022.2.4,Win32,20,Firefox,1920,1080,,,,,0,692,,,,,,,,,,,,,,,,,181,U,triangle,1,0,,2,,,,,,,,,,,,,,repeat,number,numRpt,f,vtsPrac,7,0,7,0,1,0.699,,,,,,,,,,,,,,,,,,,,,,,
294244,2022-09-21_12h33.27.684,vts_reward_expectancy,2022.2.4,Win32,20,Firefox,1920,1080,,,,,0,692,,,,,,,,,,,,,,,,,132,Y,triangle,1,0,,2,,,,,,,,,,,,,,switch,letter,lettSwt,k,vtsPrac,8,0,8,0,1,0.614,,,,,,,,,,,,,,,,,,,,,,,
294244,2022-09-21_12h33.27.684,vts_reward_expectancy,2022.2.4,Win32,20,Firefox,1920,1080,,,,,0,692,,,,,,,,,,,,,,,,,139,U,star,1,0,,2,,,,,,,,,,,,,,switch,number,numSwt,d,vtsPrac,9,0,9,0,1,0.529,,,,,,,,,,,,,,,,,,,,,,,
294244,2022-09-21_12h33.27.684,vts_reward_expectancy,2022.2.4,Win32,20,Firefox,1920,1080,,,,,0,692,,,,,,,,,,,,,,,,,125,H,hexagon,1,0,,2,,,,,,,,,,,,,,repeat,number,numRpt,d,vtsPrac,10,0,10,0,1,0.91,,,,,,,,,,,,,,,,,,,,,,,
294244,2022-09-21_12h33.27.684,vts_reward_expectancy,2022.2.4,Win32,20,Firefox,1920,1080,,,,,0,692,,,,,,,,,,,,,,,,,174,S,triangle,1,0,,2,,,,,,,,,,,,,,switch,letter,lettSwt,k,vtsPrac,11,0,11,0,1,0.982,,,,,,,,,,,,,,,,,,,,,,,
294244,2022-09-21_12h33.27.684,vts_reward_expectancy,2022.2.4,Win32,20,Firefox,1920,1080,,,,,0,692,,,,,,,,,,,,,,,,,160,Y,circle,1,0,,2,,,,,,,,,,,,,,repeat,letter,lettRpt,k,vtsPrac,12,0,12,0,1,0.882,,,,,,,,,,,,,,,,,,,,,,,
294244,2022-09-21_12h33.27.684,vts_reward_expectancy,2022.2.4,Win32,20,Firefox,1920,1080,,,,,0,692,,,,,,,,,,,,,,,,,125,S,triangle,1,0,,2,,,,,,,,,,,,,,switch,number,numSwt,d,vtsPrac,13,0,13,0,1,0.886,,,,,,,,,,,,,,,,,,,,,,,
294244,2022-09-21_12h33.27.684,vts_reward_expectancy,2022.2.4,Win32,20,Firefox,1920,1080,,,,,0,692,,,,,,,,,,,,,,,,,167,W,circle,1,0,,2,,,,,,,,,,,,,,switch,letter,lettSwt,k,vtsPrac,14,0,14,0,1,0.613,,,,,,,,,,,,,,,,,,,,,,,
294244,2022-09-21_12h33.27.684,vts_reward_expectancy,2022.2.4,Win32,20,Firefox,1920,1080,,,,,0,692,,,,,,,,,,,,,,,,,132,B,hexagon,1,0,,2,,,,,,,,,,,,,,switch,number,numSwt,d,vtsPrac,15,0,15,0,1,0.751,,,,,,,,,,,,,,,,,,,,,,,
294244,2022-09-21_12h33.27.684,vts_reward_expectancy,2022.2.4,Win32,20,Firefox,1920,1080,,,,,,,,,,,,,,,,,,,,,,,,,,,,,,,,,,,,,,,,,,,,,,,,,,,,,,,,,,,,,,,,,,,,,,,,,,,,
294244,2022-09-21_12h33.27.684,vts_reward_expectancy,2022.2.4,Win32,20,Firefox,1920,1080,,,,,,,,,,,,,,,,,,,,,,,,,,,,,,,,,,,,,,,,,,,,,,,,,,,,,,,,,,,,,,,,,,,,,,,,,,,,
294244,2022-09-21_12h33.27.684,vts_reward_expectancy,2022.2.4,Win32,20,Firefox,1920,1080,,,,,0,692,,,,,,,,,,,,,,,,,125,F,star,1,0,,,,,,,,,,,,,,,,repeat,number,numRpt,d,noRew,,,,,,0.795,0,0,0,0,0,1,,,,,,,,,,,,,,,,,
294244,2022-09-21_12h33.27.684,vts_reward_expectancy,2022.2.4,Win32,20,Firefox,1920,1080,,,,,0,692,,,,,,,,,,,,,,,,,139,U,circle,1,0,,,,,,,,,,,,,,,,switch,letter,lettSwt,k,noRew,,,,,,1.307,0,1,0,1,0,1,,,,,,,,,,,,,,,,,
294244,2022-09-21_12h33.27.684,vts_reward_expectancy,2022.2.4,Win32,20,Firefox,1920,1080,,,,,0,692,,,,,,,,,,,,,,,,,174,H,star,1,0,,,,,,,,,,,,,,,,switch,number,numSwt,f,noRew,,,,,,0.571,0,2,0,2,0,1,,,,,,,,,,,,,,,,,
294244,2022-09-21_12h33.27.684,vts_reward_expectancy,2022.2.4,Win32,20,Firefox,1920,1080,,,,,0,692,,,,,,,,,,,,,,,,,181,D,circle,1,0,,,,,,,,,,,,,,,,repeat,number,numRpt,f,noRew,,,,,,0.725,0,3,0,3,0,1,,,,,,,,,,,,,,,,,
294244,2022-09-21_12h33.27.684,vts_reward_expectancy,2022.2.4,Win32,20,Firefox,1920,1080,,,,,0,692,,,,,,,,,,,,,,,,,125,F,circle,1,0,,,,,,,,,,,,,,,,switch,letter,lettSwt,j,noRew,,,,,,0.972,0,4,0,4,0,1,,,,,,,,,,,,,,,,,
294244,2022-09-21_12h33.27.684,vts_reward_expectancy,2022.2.4,Win32,20,Firefox,1920,1080,,,,,0,692,,,,,,,,,,,,,,,,,139,U,triangle,1,0,,,,,,,,,,,,,,,,switch,number,numSwt,d,noRew,,,,,,1.113,0,5,0,5,0,1,,,,,,,,,,,,,,,,,
294244,2022-09-21_12h33.27.684,vts_reward_expectancy,2022.2.4,Win32,20,Firefox,1920,1080,,,,,0,692,,,,,,,,,,,,,,,,,174,H,hexagon,1,0,,,,,,,,,,,,,,,,switch,letter,lettSwt,j,noRew,,,,,,1.2,0,6,0,6,0,1,,,,,,,,,,,,,,,,,
294244,2022-09-21_12h33.27.684,vts_reward_expectancy,2022.2.4,Win32,20,Firefox,1920,1080,,,,,0,692,,,,,,,,,,,,,,,,,181,D,triangle,1,0,,,,,,,,,,,,,,,,repeat,letter,lettRpt,j,noRew,,,,,,0.883,0,7,0,7,0,1,,,,,,,,,,,,,,,,,
294244,2022-09-21_12h33.27.684,vts_reward_expectancy,2022.2.4,Win32,20,Firefox,1920,1080,,,,,0,692,,,,,,,,,,,,,,,,,125,W,triangle,1,0,,,,,,,,,,,,,,,,repeat,letter,lettRpt,k,noRew,,,,,,0.966,0,8,0,8,0,1,,,,,,,,,,,,,,,,,
294244,2022-09-21_12h33.27.684,vts_reward_expectancy,2022.2.4,Win32,20,Firefox,1920,1080,,,,,0,692,,,,,,,,,,,,,,,,,181,S,circle,1,0,,,,,,,,,,,,,,,,switch,number,numSwt,f,noRew,,,,,,0.601,0,9,0,9,0,1,,,,,,,,,,,,,,,,,
294244,2022-09-21_12h33.27.684,vts_reward_expectancy,2022.2.4,Win32,20,Firefox,1920,1080,,,,,0,692,,,,,,,,,,,,,,,,,174,Y,circle,1,0,,,,,,,,,,,,,,,,switch,letter,lettSwt,k,noRew,,,,,,1.034,0,10,0,10,0,1,,,,,,,,,,,,,,,,,
294244,2022-09-21_12h33.27.684,vts_reward_expectancy,2022.2.4,Win32,20,Firefox,1920,1080,,,,,0,692,,,,,,,,,,,,,,,,,132,U,triangle,1,0,,,,,,,,,,,,,,,,switch,number,numSwt,d,noRew,,,,,,1.182,0,11,0,11,0,1,,,,,,,,,,,,,,,,,
294244,2022-09-21_12h33.27.684,vts_reward_expectancy,2022.2.4,Win32,20,Firefox,1920,1080,,,,,0,692,,,,,,,,,,,,,,,,,125,S,star,1,0,,,,,,,,,,,,,,,,switch,letter,lettSwt,k,noRew,,,,,,1.016,0,12,0,12,0,1,,,,,,,,,,,,,,,,,
294244,2022-09-21_12h33.27.684,vts_reward_expectancy,2022.2.4,Win32,20,Firefox,1920,1080,,,,,0,692,,,,,,,,,,,,,,,,,181,U,hexagon,1,0,,,,,,,,,,,,,,,,switch,number,numSwt,f,noRew,,,,,,1.831,0,13,0,13,0,1,,,,,,,,,,,,,,,,,
294244,2022-09-21_12h33.27.684,vts_reward_expectancy,2022.2.4,Win32,20,Firefox,1920,1080,,,,,0,692,,,,,,,,,,,,,,,,,167,B,circle,1,0,,,,,,,,,,,,,,,,switch,letter,lettSwt,j,noRew,,,,,,1.401,0,14,0,14,0,1,,,,,,,,,,,,,,,,,
294244,2022-09-21_12h33.27.684,vts_reward_expectancy,2022.2.4,Win32,20,Firefox,1920,1080,,,,,0,692,,,,,,,,,,,,,,,,,146,F,triangle,1,0,,,,,,,,,,,,,,,,switch,number,numSwt,d,noRew,,,,,,1.196,0,15,0,15,0,1,,,,,,,,,,,,,,,,,
294244,2022-09-21_12h33.27.684,vts_reward_expectancy,2022.2.4,Win32,20,Firefox,1920,1080,,,,,0,692,,,,,,,,,,,,,,,,,125,F,hexagon,1,0,,,,,,,,,,,,,,,,switch,letter,lettSwt,j,noRew,,,,,,1.013,0,16,0,16,0,1,,,,,,,,,,,,,,,,,
294244,2022-09-21_12h33.27.684,vts_reward_expectancy,2022.2.4,Win32,20,Firefox,1920,1080,,,,,0,692,,,,,,,,,,,,,,,,,139,D,star,1,0,,,,,,,,,,,,,,,,repeat,letter,lettRpt,j,noRew,,,,,,0.774,0,17,0,17,0,1,,,,,,,,,,,,,,,,,
294244,2022-09-21_12h33.27.684,vts_reward_expectancy,2022.2.4,Win32,20,Firefox,1920,1080,,,,,0,692,,,,,,,,,,,,,,,,,132,B,star,1,0,,,,,,,,,,,,,,,,repeat,letter,lettRpt,j,noRew,,,,,,0.816,0,18,0,18,0,1,,,,,,,,,,,,,,,,,
294244,2022-09-21_12h33.27.684,vts_reward_expectancy,2022.2.4,Win32,20,Firefox,1920,1080,,,,,0,692,,,,,,,,,,,,,,,,,181,S,circle,1,0,,,,,,,,,,,,,,,,repeat,letter,lettRpt,k,noRew,,,,,,0.697,0,19,0,19,0,1,,,,,,,,,,,,,,,,,
294244,2022-09-21_12h33.27.684,vts_reward_expectancy,2022.2.4,Win32,20,Firefox,1920,1080,,,,,0,692,,,,,,,,,,,,,,,,,132,D,hexagon,1,0,,,,,,,,,,,,,,,,switch,number,numSwt,d,noRew,,,,,,0.743,0,20,0,20,0,1,,,,,,,,,,,,,,,,,
294244,2022-09-21_12h33.27.684,vts_reward_expectancy,2022.2.4,Win32,20,Firefox,1920,1080,,,,,0,692,,,,,,,,,,,,,,,,,139,Y,circle,1,0,,,,,,,,,,,,,,,,switch,letter,lettSwt,k,noRew,,,,,,0.551,0,21,0,21,0,1,,,,,,,,,,,,,,,,,
294244,2022-09-21_12h33.27.684,vts_reward_expectancy,2022.2.4,Win32,20,Firefox,1920,1080,,,,,0,692,,,,,,,,,,,,,,,,,125,F,star,1,0,,,,,,,,,,,,,,,,switch,number,numSwt,d,noRew,,,,,,1,0,22,0,22,0,1,,,,,,,,,,,,,,,,,
294244,2022-09-21_12h33.27.684,vts_reward_expectancy,2022.2.4,Win32,20,Firefox,1920,1080,,,,,0,692,,,,,,,,,,,,,,,,,167,U,hexagon,1,0,,,,,,,,,,,,,,,,repeat,number,numRpt,f,noRew,,,,,,0.827,0,23,0,23,0,1,,,,,,,,,,,,,,,,,
294244,2022-09-21_12h33.27.684,vts_reward_expectancy,2022.2.4,Win32,20,Firefox,1920,1080,,,,,0,692,,,,,,,,,,,,,,,,,167,B,circle,1,0,,,,,,,,,,,,,,,,repeat,number,numRpt,f,noRew,,,,,,1.026,0,24,0,24,0,1,,,,,,,,,,,,,,,,,
294244,2022-09-21_12h33.27.684,vts_reward_expectancy,2022.2.4,Win32,20,Firefox,1920,1080,,,,,0,692,,,,,,,,,,,,,,,,,125,W,hexagon,1,0,,,,,,,,,,,,,,,,repeat,number,numRpt,d,noRew,,,,,,0.921,0,25,0,25,0,1,,,,,,,,,,,,,,,,,
294244,2022-09-21_12h33.27.684,vts_reward_expectancy,2022.2.4,Win32,20,Firefox,1920,1080,,,,,0,692,,,,,,,,,,,,,,,,,139,S,hexagon,1,0,,,,,,,,,,,,,,,,switch,letter,lettSwt,k,noRew,,,,,,1.08,0,26,0,26,0,1,,,,,,,,,,,,,,,,,
294244,2022-09-21_12h33.27.684,vts_reward_expectancy,2022.2.4,Win32,20,Firefox,1920,1080,,,,,0,692,,,,,,,,,,,,,,,,,160,H,circle,1,0,,,,,,,,,,,,,,,,repeat,letter,lettRpt,j,noRew,,,,,,1.083,0,27,0,27,0,1,,,,,,,,,,,,,,,,,
294244,2022-09-21_12h33.27.684,vts_reward_expectancy,2022.2.4,Win32,20,Firefox,1920,1080,,,,,0,692,,,,,,,,,,,,,,,,,167,W,circle,1,0,,,,,,,,,,,,,,,,switch,number,numSwt,f,noRew,,,,,,0.696,0,28,0,28,0,1,,,,,,,,,,,,,,,,,
294244,2022-09-21_12h33.27.684,vts_reward_expectancy,2022.2.4,Win32,20,Firefox,1920,1080,,,,,0,692,,,,,,,,,,,,,,,,,139,H,star,1,0,,,,,,,,,,,,,,,,repeat,number,numRpt,d,noRew,,,,,,0.718,0,29,0,29,0,1,,,,,,,,,,,,,,,,,
294244,2022-09-21_12h33.27.684,vts_reward_expectancy,2022.2.4,Win32,20,Firefox,1920,1080,,,,,0,692,,,,,,,,,,,,,,,,,132,Y,hexagon,1,0,,,,,,,,,,,,,,,,switch,letter,lettSwt,k,noRew,,,,,,0.755,0,30,0,30,0,1,,,,,,,,,,,,,,,,,
294244,2022-09-21_12h33.27.684,vts_reward_expectancy,2022.2.4,Win32,20,Firefox,1920,1080,,,,,0,692,,,,,,,,,,,,,,,,,160,S,circle,1,0,,,,,,,,,,,,,,,,switch,number,numSwt,f,noRew,,,,,,0.575,0,31,0,31,0,1,,,,,,,,,,,,,,,,,
294244,2022-09-21_12h33.27.684,vts_reward_expectancy,2022.2.4,Win32,20,Firefox,1920,1080,,,,,0,692,,,,,,,,,,,,,,,,,125,D,star,1,0,,,,,,,,,,,,,,,,switch,letter,lettSwt,j,noRew,,,,,,0.885,0,32,0,32,0,1,,,,,,,,,,,,,,,,,
294244,2022-09-21_12h33.27.684,vts_reward_expectancy,2022.2.4,Win32,20,Firefox,1920,1080,,,,,0,692,,,,,,,,,,,,,,,,,139,B,triangle,1,0,,,,,,,,,,,,,,,,repeat,letter,lettRpt,j,noRew,,,,,,1.046,0,33,0,33,0,1,,,,,,,,,,,,,,,,,
294244,2022-09-21_12h33.27.684,vts_reward_expectancy,2022.2.4,Win32,20,Firefox,1920,1080,,,,,0,692,,,,,,,,,,,,,,,,,160,S,triangle,1,0,,,,,,,,,,,,,,,,repeat,letter,lettRpt,k,noRew,,,,,,1.212,0,34,0,34,0,1,,,,,,,,,,,,,,,,,
294244,2022-09-21_12h33.27.684,vts_reward_expectancy,2022.2.4,Win32,20,Firefox,1920,1080,,,,,0,692,,,,,,,,,,,,,,,,,167,H,star,1,0,,,,,,,,,,,,,,,,switch,number,numSwt,f,noRew,,,,,,1.481,0,35,0,35,0,1,,,,,,,,,,,,,,,,,
294244,2022-09-21_12h33.27.684,vts_reward_expectancy,2022.2.4,Win32,20,Firefox,1920,1080,,,,,0,692,,,,,,,,,,,,,,,,,160,H,triangle,1,0,,,,,,,,,,,,,,,,switch,letter,lettSwt,j,noRew,,,,,,1.486,0,36,0,36,0,1,,,,,,,,,,,,,,,,,
294244,2022-09-21_12h33.27.684,vts_reward_expectancy,2022.2.4,Win32,20,Firefox,1920,1080,,,,,0,692,,,,,,,,,,,,,,,,,167,U,hexagon,1,0,,,,,,,,,,,,,,,,repeat,letter,lettRpt,k,noRew,,,,,,1.446,0,37,0,37,0,1,,,,,,,,,,,,,,,,,
294244,2022-09-21_12h33.27.684,vts_reward_expectancy,2022.2.4,Win32,20,Firefox,1920,1080,,,,,0,692,,,,,,,,,,,,,,,,,132,F,circle,1,0,,,,,,,,,,,,,,,,switch,number,numSwt,d,noRew,,,,,,1.515,0,38,0,38,0,1,,,,,,,,,,,,,,,,,
294244,2022-09-21_12h33.27.684,vts_reward_expectancy,2022.2.4,Win32,20,Firefox,1920,1080,,,,,0,692,,,,,,,,,,,,,,,,,181,W,triangle,1,0,,,,,,,,,,,,,,,,repeat,number,numRpt,f,noRew,,,,,,1.154,0,39,0,39,0,1,,,,,,,,,,,,,,,,,
294244,2022-09-21_12h33.27.684,vts_reward_expectancy,2022.2.4,Win32,20,Firefox,1920,1080,,,,,0,692,,,,,,,,,,,,,,,,,146,F,circle,1,0,,,,,,,,,,,,,,,,switch,letter,lettSwt,j,noRew,,,,,,0.681,0,40,0,40,0,1,,,,,,,,,,,,,,,,,
294244,2022-09-21_12h33.27.684,vts_reward_expectancy,2022.2.4,Win32,20,Firefox,1920,1080,,,,,0,692,,,,,,,,,,,,,,,,,132,H,triangle,1,0,,,,,,,,,,,,,,,,repeat,letter,lettRpt,j,noRew,,,,,,0.837,0,41,0,41,0,1,,,,,,,,,,,,,,,,,
294244,2022-09-21_12h33.27.684,vts_reward_expectancy,2022.2.4,Win32,20,Firefox,1920,1080,,,,,0,692,,,,,,,,,,,,,,,,,139,D,star,1,0,,,,,,,,,,,,,,,,switch,number,numSwt,d,noRew,,,,,,1.217,0,42,0,42,0,1,,,,,,,,,,,,,,,,,
294244,2022-09-21_12h33.27.684,vts_reward_expectancy,2022.2.4,Win32,20,Firefox,1920,1080,,,,,0,692,,,,,,,,,,,,,,,,,160,B,triangle,1,0,,,,,,,,,,,,,,,,repeat,number,numRpt,f,noRew,,,,,,0.819,0,43,0,43,0,1,,,,,,,,,,,,,,,,,
294244,2022-09-21_12h33.27.684,vts_reward_expectancy,2022.2.4,Win32,20,Firefox,1920,1080,,,,,0,692,,,,,,,,,,,,,,,,,132,B,circle,1,0,,,,,,,,,,,,,,,,repeat,number,numRpt,d,noRew,,,,,,1.404,0,44,0,44,0,1,,,,,,,,,,,,,,,,,
294244,2022-09-21_12h33.27.684,vts_reward_expectancy,2022.2.4,Win32,20,Firefox,1920,1080,,,,,0,692,,,,,,,,,,,,,,,,,146,U,hexagon,1,0,,,,,,,,,,,,,,,,repeat,number,numRpt,d,noRew,,,,,,1.332,0,45,0,45,0,1,,,,,,,,,,,,,,,,,
294244,2022-09-21_12h33.27.684,vts_reward_expectancy,2022.2.4,Win32,20,Firefox,1920,1080,,,,,0,692,,,,,,,,,,,,,,,,,139,Y,star,1,0,,,,,,,,,,,,,,,,switch,letter,lettSwt,k,noRew,,,,,,0.699,0,46,0,46,0,1,,,,,,,,,,,,,,,,,
294244,2022-09-21_12h33.27.684,vts_reward_expectancy,2022.2.4,Win32,20,Firefox,1920,1080,,,,,0,692,,,,,,,,,,,,,,,,,174,W,triangle,1,0,,,,,,,,,,,,,,,,switch,number,numSwt,f,noRew,,,,,,1.316,0,47,0,47,0,1,,,,,,,,,,,,,,,,,
294244,2022-09-21_12h33.27.684,vts_reward_expectancy,2022.2.4,Win32,20,Firefox,1920,1080,,,,,0,692,,,,,,,,,,,,,,,,,132,F,star,-1,0,,,,,,,,,,,,,,,,switch,no_choice,NA,,noRew,,,,,,,0,48,0,48,0,1,,,,,,,,,,,,,,,,,
294244,2022-09-21_12h33.27.684,vts_reward_expectancy,2022.2.4,Win32,20,Firefox,1920,1080,,,,,0,692,,,,,,,,,,,,,,,,,160,S,circle,1,0,,,,,,,,,,,,,,,,switch,number,numSwt,f,noRew,,,,,,1.062,0,49,0,49,0,1,,,,,,,,,,,,,,,,,
294244,2022-09-21_12h33.27.684,vts_reward_expectancy,2022.2.4,Win32,20,Firefox,1920,1080,,,,,0,692,,,,,,,,,,,,,,,,,167,B,triangle,1,0,,,,,,,,,,,,,,,,repeat,number,numRpt,f,noRew,,,,,,1.033,0,50,0,50,0,1,,,,,,,,,,,,,,,,,
294244,2022-09-21_12h33.27.684,vts_reward_expectancy,2022.2.4,Win32,20,Firefox,1920,1080,,,,,0,692,,,,,,,,,,,,,,,,,181,W,circle,1,0,,,,,,,,,,,,,,,,repeat,number,numRpt,f,noRew,,,,,,0.731,0,51,0,51,0,1,,,,,,,,,,,,,,,,,
294244,2022-09-21_12h33.27.684,vts_reward_expectancy,2022.2.4,Win32,20,Firefox,1920,1080,,,,,0,692,,,,,,,,,,,,,,,,,174,U,hexagon,1,0,,,,,,,,,,,,,,,,switch,letter,lettSwt,k,noRew,,,,,,0.524,0,52,0,52,0,1,,,,,,,,,,,,,,,,,
294244,2022-09-21_12h33.27.684,vts_reward_expectancy,2022.2.4,Win32,20,Firefox,1920,1080,,,,,0,692,,,,,,,,,,,,,,,,,125,F,star,1,0,,,,,,,,,,,,,,,,repeat,letter,lettRpt,j,noRew,,,,,,1.329,0,53,0,53,0,1,,,,,,,,,,,,,,,,,
294244,2022-09-21_12h33.27.684,vts_reward_expectancy,2022.2.4,Win32,20,Firefox,1920,1080,,,,,0,692,,,,,,,,,,,,,,,,,139,D,triangle,1,0,,,,,,,,,,,,,,,,switch,number,numSwt,d,noRew,,,,,,0.869,0,54,0,54,0,1,,,,,,,,,,,,,,,,,
294244,2022-09-21_12h33.27.684,vts_reward_expectancy,2022.2.4,Win32,20,Firefox,1920,1080,,,,,0,692,,,,,,,,,,,,,,,,,132,W,star,1,0,,,,,,,,,,,,,,,,repeat,number,numRpt,d,noRew,,,,,,0.833,0,55,0,55,0,1,,,,,,,,,,,,,,,,,
294244,2022-09-21_12h33.27.684,vts_reward_expectancy,2022.2.4,Win32,20,Firefox,1920,1080,,,,,0,692,,,,,,,,,,,,,,,,,125,D,triangle,1,0,,,,,,,,,,,,,,,,repeat,number,numRpt,d,noRew,,,,,,0.829,0,56,0,56,0,1,,,,,,,,,,,,,,,,,
294244,2022-09-21_12h33.27.684,vts_reward_expectancy,2022.2.4,Win32,20,Firefox,1920,1080,,,,,0,692,,,,,,,,,,,,,,,,,132,Y,circle,1,0,,,,,,,,,,,,,,,,switch,letter,lettSwt,k,noRew,,,,,,0.646,0,57,0,57,0,1,,,,,,,,,,,,,,,,,
294244,2022-09-21_12h33.27.684,vts_reward_expectancy,2022.2.4,Win32,20,Firefox,1920,1080,,,,,0,692,,,,,,,,,,,,,,,,,160,F,hexagon,1,0,,,,,,,,,,,,,,,,switch,number,numSwt,f,noRew,,,,,,0.721,0,58,0,58,0,1,,,,,,,,,,,,,,,,,
294244,2022-09-21_12h33.27.684,vts_reward_expectancy,2022.2.4,Win32,20,Firefox,1920,1080,,,,,0,692,,,,,,,,,,,,,,,,,146,S,circle,1,0,,,,,,,,,,,,,,,,switch,letter,lettSwt,k,noRew,,,,,,0.907,0,59,0,59,0,1,,,,,,,,,,,,,,,,,
294244,2022-09-21_12h33.27.684,vts_reward_expectancy,2022.2.4,Win32,20,Firefox,1920,1080,,,,,0,692,,,,,,,,,,,,,,,,,174,Y,star,1,0,,,,,,,,,,,,,,,,switch,number,numSwt,f,noRew,,,,,,1.01,0,60,0,60,0,1,,,,,,,,,,,,,,,,,
294244,2022-09-21_12h33.27.684,vts_reward_expectancy,2022.2.4,Win32,20,Firefox,1920,1080,,,,,0,692,,,,,,,,,,,,,,,,,181,W,hexagon,1,0,,,,,,,,,,,,,,,,repeat,number,numRpt,f,noRew,,,,,,0.879,0,61,0,61,0,1,,,,,,,,,,,,,,,,,
294244,2022-09-21_12h33.27.684,vts_reward_expectancy,2022.2.4,Win32,20,Firefox,1920,1080,,,,,0,692,,,,,,,,,,,,,,,,,132,D,circle,1,0,,,,,,,,,,,,,,,,switch,letter,lettSwt,j,noRew,,,,,,1.533,0,62,0,62,0,1,,,,,,,,,,,,,,,,,
294244,2022-09-21_12h33.27.684,vts_reward_expectancy,2022.2.4,Win32,20,Firefox,1920,1080,,,,,0,692,,,,,,,,,,,,,,,,,125,S,star,1,0,,,,,,,,,,,,,,,,repeat,letter,lettRpt,k,noRew,,,,,,1.073,0,63,0,63,0,1,,,,,,,,,,,,,,,,,
294244,2022-09-21_12h33.27.684,vts_reward_expectancy,2022.2.4,Win32,20,Firefox,1920,1080,,,,,,,,,,,,,,,,,,,,,,,,,,,,,,,,,,,,,,,,,,,,,,,,,,,,,,,,,,,,,,,,,,,,,,,,,,,,
294244,2022-09-21_12h33.27.684,vts_reward_expectancy,2022.2.4,Win32,20,Firefox,1920,1080,,,,,1,693,,,,,,,,,,,,,,,,,139,W,star,1,0,,,,,,,,,,,,,,,,switch,number,numSwt,d,noRew,,,,,,0.993,0,,,,,,space,7.527,high,0,0,0,0,1,,,,,,,,,
294244,2022-09-21_12h33.27.684,vts_reward_expectancy,2022.2.4,Win32,20,Firefox,1920,1080,,,,,0,693,,,,,,,,,,,,,,,,,125,S,hexagon,1,0,,,,,,,,,,,,,,,,switch,letter,lettSwt,k,noRew,,,,,,1.169,0,,,,,,,,high,1,0,1,0,1,,,,,,,,,
294244,2022-09-21_12h33.27.684,vts_reward_expectancy,2022.2.4,Win32,20,Firefox,1920,1080,,,,,10,703,,,,,,,,,,,,,,,,,167,F,star,1,0,,,,,,,,,,,,,,,,switch,number,numSwt,f,noRew,,,,,,0.656,0,,,,,,,,high,2,0,2,0,1,,,,,,,,,
294244,2022-09-21_12h33.27.684,vts_reward_expectancy,2022.2.4,Win32,20,Firefox,1920,1080,,,,,10,713,,,,,,,,,,,,,,,,,132,Y,hexagon,1,0,,,,,,,,,,,,,,,,repeat,number,numRpt,d,noRew,,,,,,0.575,0,,,,,,,,high,3,0,3,0,1,,,,,,,,,
294244,2022-09-21_12h33.27.684,vts_reward_expectancy,2022.2.4,Win32,20,Firefox,1920,1080,,,,,10,723,,,,,,,,,,,,,,,,,160,U,hexagon,1,0,,,,,,,,,,,,,,,,switch,letter,lettSwt,k,noRew,,,,,,0.515,0,,,,,,,,high,4,0,4,0,1,,,,,,,,,
294244,2022-09-21_12h33.27.684,vts_reward_expectancy,2022.2.4,Win32,20,Firefox,1920,1080,,,,,1,724,,,,,,,,,,,,,,,,,174,B,star,1,0,,,,,,,,,,,,,,,,switch,number,numSwt,f,noRew,,,,,,0.554,0,,,,,,,,high,5,0,5,0,1,,,,,,,,,
294244,2022-09-21_12h33.27.684,vts_reward_expectancy,2022.2.4,Win32,20,Firefox,1920,1080,,,,,10,734,,,,,,,,,,,,,,,,,146,D,hexagon,1,0,,,,,,,,,,,,,,,,repeat,number,numRpt,d,noRew,,,,,,0.694,0,,,,,,,,high,6,0,6,0,1,,,,,,,,,
294244,2022-09-21_12h33.27.684,vts_reward_expectancy,2022.2.4,Win32,20,Firefox,1920,1080,,,,,1,735,,,,,,,,,,,,,,,,,181,H,star,1,0,,,,,,,,,,,,,,,,switch,letter,lettSwt,j,noRew,,,,,,0.678,0,,,,,,,,high,7,0,7,0,1,,,,,,,,,
294244,2022-09-21_12h33.27.684,vts_reward_expectancy,2022.2.4,Win32,20,Firefox,1920,1080,,,,,10,745,,,,,,,,,,,,,,,,,139,W,hexagon,1,0,,,,,,,,,,,,,,,,switch,number,numSwt,d,noRew,,,,,,0.761,0,,,,,,,,high,8,0,8,0,1,,,,,,,,,
294244,2022-09-21_12h33.27.684,vts_reward_expectancy,2022.2.4,Win32,20,Firefox,1920,1080,,,,,1,746,,,,,,,,,,,,,,,,,125,S,star,1,0,,,,,,,,,,,,,,,,switch,letter,lettSwt,k,noRew,,,,,,0.59,0,,,,,,,,high,9,0,9,0,1,,,,,,,,,
294244,2022-09-21_12h33.27.684,vts_reward_expectancy,2022.2.4,Win32,20,Firefox,1920,1080,,,,,10,756,,,,,,,,,,,,,,,,,167,F,hexagon,1,0,,,,,,,,,,,,,,,,repeat,letter,lettRpt,j,noRew,,,,,,0.598,0,,,,,,,,high,10,0,10,0,1,,,,,,,,,
294244,2022-09-21_12h33.27.684,vts_reward_expectancy,2022.2.4,Win32,20,Firefox,1920,1080,,,,,1,757,,,,,,,,,,,,,,,,,132,Y,star,1,0,,,,,,,,,,,,,,,,repeat,letter,lettRpt,k,noRew,,,,,,0.766,0,,,,,,,,high,11,0,11,0,1,,,,,,,,,
294244,2022-09-21_12h33.27.684,vts_reward_expectancy,2022.2.4,Win32,20,Firefox,1920,1080,,,,,0,757,,,,,,,,,,,,,,,,,160,U,hexagon,1,0,,,,,,,,,,,,,,,,switch,number,numSwt,f,noRew,,,,,,1.033,0,,,,,,,,high,12,0,12,0,1,,,,,,,,,
294244,2022-09-21_12h33.27.684,vts_reward_expectancy,2022.2.4,Win32,20,Firefox,1920,1080,,,,,10,767,,,,,,,,,,,,,,,,,174,B,star,1,0,,,,,,,,,,,,,,,,switch,letter,lettSwt,j,noRew,,,,,,0.658,0,,,,,,,,high,13,0,13,0,1,,,,,,,,,
294244,2022-09-21_12h33.27.684,vts_reward_expectancy,2022.2.4,Win32,20,Firefox,1920,1080,,,,,10,777,,,,,,,,,,,,,,,,,146,D,hexagon,1,0,,,,,,,,,,,,,,,,switch,number,numSwt,d,noRew,,,,,,0.707,0,,,,,,,,high,14,0,14,0,1,,,,,,,,,
294244,2022-09-21_12h33.27.684,vts_reward_expectancy,2022.2.4,Win32,20,Firefox,1920,1080,,,,,1,778,,,,,,,,,,,,,,,,,181,H,star,1,0,,,,,,,,,,,,,,,,repeat,number,numRpt,f,noRew,,,,,,0.915,0,,,,,,,,high,15,0,15,0,1,,,,,,,,,
294244,2022-09-21_12h33.27.684,vts_reward_expectancy,2022.2.4,Win32,20,Firefox,1920,1080,,,,,10,788,,,,,,,,,,,,,,,,,181,U,hexagon,1,0,,,,,,,,,,,,,,,,repeat,number,numRpt,f,noRew,,,,,,0.506,0,,,,,,,,high,16,0,16,0,1,,,,,,,,,
294244,2022-09-21_12h33.27.684,vts_reward_expectancy,2022.2.4,Win32,20,Firefox,1920,1080,,,,,1,789,,,,,,,,,,,,,,,,,174,H,star,1,0,,,,,,,,,,,,,,,,repeat,number,numRpt,f,noRew,,,,,,0.489,0,,,,,,,,high,17,0,17,0,1,,,,,,,,,
294244,2022-09-21_12h33.27.684,vts_reward_expectancy,2022.2.4,Win32,20,Firefox,1920,1080,,,,,1,790,,,,,,,,,,,,,,,,,125,S,star,1,0,,,,,,,,,,,,,,,,switch,letter,lettSwt,k,noRew,,,,,,0.685,0,,,,,,,,high,18,0,18,0,1,,,,,,,,,
294244,2022-09-21_12h33.27.684,vts_reward_expectancy,2022.2.4,Win32,20,Firefox,1920,1080,,,,,10,800,,,,,,,,,,,,,,,,,160,D,hexagon,1,0,,,,,,,,,,,,,,,,switch,number,numSwt,f,noRew,,,,,,0.472,0,,,,,,,,high,19,0,19,0,1,,,,,,,,,
294244,2022-09-21_12h33.27.684,vts_reward_expectancy,2022.2.4,Win32,20,Firefox,1920,1080,,,,,1,801,,,,,,,,,,,,,,,,,132,B,hexagon,1,0,,,,,,,,,,,,,,,,repeat,number,numRpt,d,noRew,,,,,,0.526,0,,,,,,,,high,20,0,20,0,1,,,,,,,,,
294244,2022-09-21_12h33.27.684,vts_reward_expectancy,2022.2.4,Win32,20,Firefox,1920,1080,,,,,1,802,,,,,,,,,,,,,,,,,139,W,star,1,0,,,,,,,,,,,,,,,,repeat,number,numRpt,d,noRew,,,,,,0.585,0,,,,,,,,high,21,0,21,0,1,,,,,,,,,
294244,2022-09-21_12h33.27.684,vts_reward_expectancy,2022.2.4,Win32,20,Firefox,1920,1080,,,,,10,812,,,,,,,,,,,,,,,,,146,F,hexagon,1,0,,,,,,,,,,,,,,,,repeat,number,numRpt,d,noRew,,,,,,0.632,0,,,,,,,,high,22,0,22,0,1,,,,,,,,,
294244,2022-09-21_12h33.27.684,vts_reward_expectancy,2022.2.4,Win32,20,Firefox,1920,1080,,,,,1,813,,,,,,,,,,,,,,,,,167,Y,star,1,0,,,,,,,,,,,,,,,,repeat,number,numRpt,f,noRew,,,,,,0.532,0,,,,,,,,high,23,0,23,0,1,,,,,,,,,
294244,2022-09-21_12h33.27.684,vts_reward_expectancy,2022.2.4,Win32,20,Firefox,1920,1080,,,,,10,823,,,,,,,,,,,,,,,,,167,H,hexagon,1,0,,,,,,,,,,,,,,,,repeat,number,numRpt,f,noRew,,,,,,0.57,0,,,,,,,,high,24,0,24,0,1,,,,,,,,,
294244,2022-09-21_12h33.27.684,vts_reward_expectancy,2022.2.4,Win32,20,Firefox,1920,1080,,,,,1,824,,,,,,,,,,,,,,,,,132,W,star,1,0,,,,,,,,,,,,,,,,switch,letter,lettSwt,k,noRew,,,,,,1.138,0,,,,,,,,high,25,0,25,0,1,,,,,,,,,
294244,2022-09-21_12h33.27.684,vts_reward_expectancy,2022.2.4,Win32,20,Firefox,1920,1080,,,,,1,825,,,,,,,,,,,,,,,,,125,D,hexagon,1,0,,,,,,,,,,,,,,,,switch,number,numSwt,d,noRew,,,,,,0.77,0,,,,,,,,high,26,0,26,0,1,,,,,,,,,
294244,2022-09-21_12h33.27.684,vts_reward_expectancy,2022.2.4,Win32,20,Firefox,1920,1080,,,,,1,826,,,,,,,,,,,,,,,,,174,F,star,1,0,,,,,,,,,,,,,,,,switch,letter,lettSwt,j,noRew,,,,,,0.658,0,,,,,,,,high,27,0,27,0,1,,,,,,,,,
294244,2022-09-21_12h33.27.684,vts_reward_expectancy,2022.2.4,Win32,20,Firefox,1920,1080,,,,,1,827,,,,,,,,,,,,,,,,,139,U,star,1,0,,,,,,,,,,,,,,,,repeat,letter,lettRpt,k,noRew,,,,,,0.667,0,,,,,,,,high,28,0,28,0,1,,,,,,,,,
294244,2022-09-21_12h33.27.684,vts_reward_expectancy,2022.2.4,Win32,20,Firefox,1920,1080,,,,,10,837,,,,,,,,,,,,,,,,,146,S,hexagon,1,0,,,,,,,,,,,,,,,,switch,number,numSwt,d,noRew,,,,,,0.76,0,,,,,,,,high,29,0,29,0,1,,,,,,,,,
294244,2022-09-21_12h33.27.684,vts_reward_expectancy,2022.2.4,Win32,20,Firefox,1920,1080,,,,,10,847,,,,,,,,,,,,,,,,,160,Y,hexagon,1,0,,,,,,,,,,,,,,,,repeat,number,numRpt,f,noRew,,,,,,0.65,0,,,,,,,,high,30,0,30,0,1,,,,,,,,,
294244,2022-09-21_12h33.27.684,vts_reward_expectancy,2022.2.4,Win32,20,Firefox,1920,1080,,,,,1,848,,,,,,,,,,,,,,,,,181,B,star,1,0,,,,,,,,,,,,,,,,repeat,number,numRpt,f,noRew,,,,,,0.649,0,,,,,,,,high,31,0,31,0,1,,,,,,,,,
294244,2022-09-21_12h33.27.684,vts_reward_expectancy,2022.2.4,Win32,20,Firefox,1920,1080,,,,,0,848,,,,,,,,,,,,,,,,,160,Y,hexagon,1,0,,,,,,,,,,,,,,,,repeat,number,numRpt,f,noRew,,,,,,0.603,1,,,,,,space,1.397,high,0,0,0,0,1,,,,,,,,,
294244,2022-09-21_12h33.27.684,vts_reward_expectancy,2022.2.4,Win32,20,Firefox,1920,1080,,,,,1,849,,,,,,,,,,,,,,,,,132,H,star,1,0,,,,,,,,,,,,,,,,repeat,number,numRpt,d,noRew,,,,,,0.531,1,,,,,,,,high,1,0,1,0,1,,,,,,,,,
294244,2022-09-21_12h33.27.684,vts_reward_expectancy,2022.2.4,Win32,20,Firefox,1920,1080,,,,,0,849,,,,,,,,,,,,,,,,,139,U,hexagon,1,0,,,,,,,,,,,,,,,,repeat,number,numRpt,d,noRew,,,,,,0.569,1,,,,,,,,high,2,0,2,0,1,,,,,,,,,
294244,2022-09-21_12h33.27.684,vts_reward_expectancy,2022.2.4,Win32,20,Firefox,1920,1080,,,,,1,850,,,,,,,,,,,,,,,,,167,B,star,1,0,,,,,,,,,,,,,,,,repeat,number,numRpt,f,noRew,,,,,,0.463,1,,,,,,,,high,3,0,3,0,1,,,,,,,,,
294244,2022-09-21_12h33.27.684,vts_reward_expectancy,2022.2.4,Win32,20,Firefox,1920,1080,,,,,10,860,,,,,,,,,,,,,,,,,125,W,hexagon,1,0,,,,,,,,,,,,,,,,repeat,number,numRpt,d,noRew,,,,,,0.419,1,,,,,,,,high,4,0,4,0,1,,,,,,,,,
294244,2022-09-21_12h33.27.684,vts_reward_expectancy,2022.2.4,Win32,20,Firefox,1920,1080,,,,,1,861,,,,,,,,,,,,,,,,,174,D,star,1,0,,,,,,,,,,,,,,,,repeat,number,numRpt,f,noRew,,,,,,0.531,1,,,,,,,,high,5,0,5,0,1,,,,,,,,,
294244,2022-09-21_12h33.27.684,vts_reward_expectancy,2022.2.4,Win32,20,Firefox,1920,1080,,,,,1,862,,,,,,,,,,,,,,,,,181,F,hexagon,1,0,,,,,,,,,,,,,,,,repeat,number,numRpt,f,noRew,,,,,,0.49,1,,,,,,,,high,6,0,6,0,1,,,,,,,,,
294244,2022-09-21_12h33.27.684,vts_reward_expectancy,2022.2.4,Win32,20,Firefox,1920,1080,,,,,1,863,,,,,,,,,,,,,,,,,146,S,star,1,0,,,,,,,,,,,,,,,,repeat,number,numRpt,d,noRew,,,,,,0.489,1,,,,,,,,high,7,0,7,0,1,,,,,,,,,
294244,2022-09-21_12h33.27.684,vts_reward_expectancy,2022.2.4,Win32,20,Firefox,1920,1080,,,,,10,873,,,,,,,,,,,,,,,,,160,Y,hexagon,1,0,,,,,,,,,,,,,,,,repeat,number,numRpt,f,noRew,,,,,,0.473,1,,,,,,,,high,8,0,8,0,1,,,,,,,,,
294244,2022-09-21_12h33.27.684,vts_reward_expectancy,2022.2.4,Win32,20,Firefox,1920,1080,,,,,1,874,,,,,,,,,,,,,,,,,132,H,star,1,0,,,,,,,,,,,,,,,,repeat,number,numRpt,d,noRew,,,,,,0.574,1,,,,,,,,high,9,0,9,0,1,,,,,,,,,
294244,2022-09-21_12h33.27.684,vts_reward_expectancy,2022.2.4,Win32,20,Firefox,1920,1080,,,,,1,875,,,,,,,,,,,,,,,,,139,U,hexagon,1,0,,,,,,,,,,,,,,,,repeat,number,numRpt,d,noRew,,,,,,0.492,1,,,,,,,,high,10,0,10,0,1,,,,,,,,,
294244,2022-09-21_12h33.27.684,vts_reward_expectancy,2022.2.4,Win32,20,Firefox,1920,1080,,,,,1,876,,,,,,,,,,,,,,,,,167,B,star,1,0,,,,,,,,,,,,,,,,repeat,number,numRpt,f,noRew,,,,,,0.454,1,,,,,,,,high,11,0,11,0,1,,,,,,,,,
294244,2022-09-21_12h33.27.684,vts_reward_expectancy,2022.2.4,Win32,20,Firefox,1920,1080,,,,,1,877,,,,,,,,,,,,,,,,,125,W,star,1,0,,,,,,,,,,,,,,,,switch,letter,lettSwt,k,noRew,,,,,,0.481,1,,,,,,,,high,12,0,12,0,1,,,,,,,,,
294244,2022-09-21_12h33.27.684,vts_reward_expectancy,2022.2.4,Win32,20,Firefox,1920,1080,,,,,10,887,,,,,,,,,,,,,,,,,174,D,hexagon,1,0,,,,,,,,,,,,,,,,repeat,letter,lettRpt,j,noRew,,,,,,0.638,1,,,,,,,,high,13,0,13,0,1,,,,,,,,,
294244,2022-09-21_12h33.27.684,vts_reward_expectancy,2022.2.4,Win32,20,Firefox,1920,1080,,,,,1,888,,,,,,,,,,,,,,,,,181,F,star,1,0,,,,,,,,,,,,,,,,repeat,letter,lettRpt,j,noRew,,,,,,0.882,1,,,,,,,,high,14,0,14,0,1,,,,,,,,,
294244,2022-09-21_12h33.27.684,vts_reward_expectancy,2022.2.4,Win32,20,Firefox,1920,1080,,,,,0,888,,,,,,,,,,,,,,,,,146,S,hexagon,1,0,,,,,,,,,,,,,,,,switch,number,numSwt,d,noRew,,,,,,0.757,1,,,,,,,,high,15,0,15,0,1,,,,,,,,,
294244,2022-09-21_12h33.27.684,vts_reward_expectancy,2022.2.4,Win32,20,Firefox,1920,1080,,,,,1,889,,,,,,,,,,,,,,,,,139,B,star,1,0,,,,,,,,,,,,,,,,repeat,number,numRpt,d,noRew,,,,,,0.664,1,,,,,,,,high,16,0,16,0,1,,,,,,,,,
294244,2022-09-21_12h33.27.684,vts_reward_expectancy,2022.2.4,Win32,20,Firefox,1920,1080,,,,,10,899,,,,,,,,,,,,,,,,,125,D,hexagon,1,0,,,,,,,,,,,,,,,,switch,letter,lettSwt,j,noRew,,,,,,0.549,1,,,,,,,,high,17,0,17,0,1,,,,,,,,,
294244,2022-09-21_12h33.27.684,vts_reward_expectancy,2022.2.4,Win32,20,Firefox,1920,1080,,,,,10,909,,,,,,,,,,,,,,,,,132,U,hexagon,1,0,,,,,,,,,,,,,,,,switch,number,numSwt,d,noRew,,,,,,0.501,1,,,,,,,,high,18,0,18,0,1,,,,,,,,,
294244,2022-09-21_12h33.27.684,vts_reward_expectancy,2022.2.4,Win32,20,Firefox,1920,1080,,,,,1,910,,,,,,,,,,,,,,,,,167,F,star,1,0,,,,,,,,,,,,,,,,repeat,number,numRpt,f,noRew,,,,,,0.564,1,,,,,,,,high,19,0,19,0,1,,,,,,,,,
294244,2022-09-21_12h33.27.684,vts_reward_expectancy,2022.2.4,Win32,20,Firefox,1920,1080,,,,,1,911,,,,,,,,,,,,,,,,,160,S,star,1,0,,,,,,,,,,,,,,,,repeat,number,numRpt,f,noRew,,,,,,0.773,1,,,,,,,,high,20,0,20,0,1,,,,,,,,,
294244,2022-09-21_12h33.27.684,vts_reward_expectancy,2022.2.4,Win32,20,Firefox,1920,1080,,,,,10,921,,,,,,,,,,,,,,,,,174,Y,hexagon,1,0,,,,,,,,,,,,,,,,repeat,number,numRpt,f,noRew,,,,,,0.508,1,,,,,,,,high,21,0,21,0,1,,,,,,,,,
294244,2022-09-21_12h33.27.684,vts_reward_expectancy,2022.2.4,Win32,20,Firefox,1920,1080,,,,,10,931,,,,,,,,,,,,,,,,,181,H,hexagon,1,0,,,,,,,,,,,,,,,,switch,letter,lettSwt,j,noRew,,,,,,0.642,1,,,,,,,,high,22,0,22,0,1,,,,,,,,,
294244,2022-09-21_12h33.27.684,vts_reward_expectancy,2022.2.4,Win32,20,Firefox,1920,1080,,,,,1,932,,,,,,,,,,,,,,,,,146,W,star,1,0,,,,,,,,,,,,,,,,switch,number,numSwt,d,noRew,,,,,,0.831,1,,,,,,,,high,23,0,23,0,1,,,,,,,,,
294244,2022-09-21_12h33.27.684,vts_reward_expectancy,2022.2.4,Win32,20,Firefox,1920,1080,,,,,10,942,,,,,,,,,,,,,,,,,125,W,hexagon,1,0,,,,,,,,,,,,,,,,repeat,number,numRpt,d,noRew,,,,,,0.505,1,,,,,,,,high,24,0,24,0,1,,,,,,,,,
294244,2022-09-21_12h33.27.684,vts_reward_expectancy,2022.2.4,Win32,20,Firefox,1920,1080,,,,,1,943,,,,,,,,,,,,,,,,,167,S,star,1,0,,,,,,,,,,,,,,,,repeat,number,numRpt,f,noRew,,,,,,0.492,1,,,,,,,,high,25,0,25,0,1,,,,,,,,,
294244,2022-09-21_12h33.27.684,vts_reward_expectancy,2022.2.4,Win32,20,Firefox,1920,1080,,,,,10,953,,,,,,,,,,,,,,,,,181,U,hexagon,1,0,,,,,,,,,,,,,,,,switch,letter,lettSwt,k,noRew,,,,,,0.49,1,,,,,,,,high,26,0,26,0,1,,,,,,,,,
294244,2022-09-21_12h33.27.684,vts_reward_expectancy,2022.2.4,Win32,20,Firefox,1920,1080,,,,,1,954,,,,,,,,,,,,,,,,,174,D,star,1,0,,,,,,,,,,,,,,,,switch,number,numSwt,f,noRew,,,,,,0.507,1,,,,,,,,high,27,0,27,0,1,,,,,,,,,
294244,2022-09-21_12h33.27.684,vts_reward_expectancy,2022.2.4,Win32,20,Firefox,1920,1080,,,,,1,955,,,,,,,,,,,,,,,,,146,B,star,1,0,,,,,,,,,,,,,,,,repeat,number,numRpt,d,noRew,,,,,,0.61,1,,,,,,,,high,28,0,28,0,1,,,,,,,,,
294244,2022-09-21_12h33.27.684,vts_reward_expectancy,2022.2.4,Win32,20,Firefox,1920,1080,,,,,1,956,,,,,,,,,,,,,,,,,160,Y,hexagon,1,0,,,,,,,,,,,,,,,,repeat,number,numRpt,f,noRew,,,,,,0.514,1,,,,,,,,high,29,0,29,0,1,,,,,,,,,
294244,2022-09-21_12h33.27.684,vts_reward_expectancy,2022.2.4,Win32,20,Firefox,1920,1080,,,,,1,957,,,,,,,,,,,,,,,,,132,H,star,1,0,,,,,,,,,,,,,,,,repeat,number,numRpt,d,noRew,,,,,,0.942,1,,,,,,,,high,30,0,30,0,1,,,,,,,,,
294244,2022-09-21_12h33.27.684,vts_reward_expectancy,2022.2.4,Win32,20,Firefox,1920,1080,,,,,10,967,,,,,,,,,,,,,,,,,139,F,hexagon,1,0,,,,,,,,,,,,,,,,switch,letter,lettSwt,j,noRew,,,,,,0.61,1,,,,,,,,high,31,0,31,0,1,,,,,,,,,
294244,2022-09-21_12h33.27.684,vts_reward_expectancy,2022.2.4,Win32,20,Firefox,1920,1080,,,,,10,977,,,,,,,,,,,,,,,,,139,U,triangle,1,0,,,,,,,,,,,,,,,,switch,number,numSwt,d,noRew,,,,,,0.667,2,,,,,,space,1.341,low,0,0,0,0,1,,,,,,,,,
294244,2022-09-21_12h33.27.684,vts_reward_expectancy,2022.2.4,Win32,20,Firefox,1920,1080,,,,,0,977,,,,,,,,,,,,,,,,,160,F,circle,1,0,,,,,,,,,,,,,,,,repeat,number,numRpt,f,noRew,,,,,,0.744,2,,,,,,,,low,1,0,1,0,1,,,,,,,,,
294244,2022-09-21_12h33.27.684,vts_reward_expectancy,2022.2.4,Win32,20,Firefox,1920,1080,,,,,1,978,,,,,,,,,,,,,,,,,132,Y,triangle,1,0,,,,,,,,,,,,,,,,repeat,number,numRpt,d,noRew,,,,,,0.512,2,,,,,,,,low,2,0,2,0,1,,,,,,,,,
294244,2022-09-21_12h33.27.684,vts_reward_expectancy,2022.2.4,Win32,20,Firefox,1920,1080,,,,,1,979,,,,,,,,,,,,,,,,,146,W,circle,1,0,,,,,,,,,,,,,,,,repeat,number,numRpt,d,noRew,,,,,,0.487,2,,,,,,,,low,3,0,3,0,1,,,,,,,,,
294244,2022-09-21_12h33.27.684,vts_reward_expectancy,2022.2.4,Win32,20,Firefox,1920,1080,,,,,0,979,,,,,,,,,,,,,,,,,125,S,circle,1,0,,,,,,,,,,,,,,,,switch,letter,lettSwt,k,noRew,,,,,,0.835,2,,,,,,,,low,4,0,4,0,1,,,,,,,,,
294244,2022-09-21_12h33.27.684,vts_reward_expectancy,2022.2.4,Win32,20,Firefox,1920,1080,,,,,1,980,,,,,,,,,,,,,,,,,174,D,triangle,1,0,,,,,,,,,,,,,,,,repeat,letter,lettRpt,j,noRew,,,,,,0.579,2,,,,,,,,low,5,0,5,0,1,,,,,,,,,
294244,2022-09-21_12h33.27.684,vts_reward_expectancy,2022.2.4,Win32,20,Firefox,1920,1080,,,,,10,990,,,,,,,,,,,,,,,,,167,H,triangle,1,0,,,,,,,,,,,,,,,,switch,number,numSwt,f,noRew,,,,,,0.65,2,,,,,,,,low,6,0,6,0,1,,,,,,,,,
294244,2022-09-21_12h33.27.684,vts_reward_expectancy,2022.2.4,Win32,20,Firefox,1920,1080,,,,,0,990,,,,,,,,,,,,,,,,,181,B,circle,1,0,,,,,,,,,,,,,,,,repeat,number,numRpt,f,noRew,,,,,,0.854,2,,,,,,,,low,7,0,7,0,1,,,,,,,,,
294244,2022-09-21_12h33.27.684,vts_reward_expectancy,2022.2.4,Win32,20,Firefox,1920,1080,,,,,1,991,,,,,,,,,,,,,,,,,139,U,triangle,1,0,,,,,,,,,,,,,,,,repeat,number,numRpt,d,noRew,,,,,,0.882,2,,,,,,,,low,8,0,8,0,1,,,,,,,,,
294244,2022-09-21_12h33.27.684,vts_reward_expectancy,2022.2.4,Win32,20,Firefox,1920,1080,,,,,0,991,,,,,,,,,,,,,,,,,160,F,circle,1,0,,,,,,,,,,,,,,,,repeat,number,numRpt,f,noRew,,,,,,0.539,2,,,,,,,,low,9,0,9,0,1,,,,,,,,,
294244,2022-09-21_12h33.27.684,vts_reward_expectancy,2022.2.4,Win32,20,Firefox,1920,1080,,,,,1,992,,,,,,,,,,,,,,,,,132,Y,triangle,1,0,,,,,,,,,,,,,,,,repeat,number,numRpt,d,noRew,,,,,,0.566,2,,,,,,,,low,10,0,10,0,1,,,,,,,,,
294244,2022-09-21_12h33.27.684,vts_reward_expectancy,2022.2.4,Win32,20,Firefox,1920,1080,,,,,0,992,,,,,,,,,,,,,,,,,146,W,circle,1,0,,,,,,,,,,,,,,,,repeat,number,numRpt,d,noRew,,,,,,0.719,2,,,,,,,,low,11,0,11,0,1,,,,,,,,,
294244,2022-09-21_12h33.27.684,vts_reward_expectancy,2022.2.4,Win32,20,Firefox,1920,1080,,,,,1,993,,,,,,,,,,,,,,,,,125,S,triangle,1,0,,,,,,,,,,,,,,,,repeat,number,numRpt,d,noRew,,,,,,0.523,2,,,,,,,,low,12,0,12,0,1,,,,,,,,,
294244,2022-09-21_12h33.27.684,vts_reward_expectancy,2022.2.4,Win32,20,Firefox,1920,1080,,,,,0,993,,,,,,,,,,,,,,,,,174,D,circle,1,0,,,,,,,,,,,,,,,,repeat,number,numRpt,f,noRew,,,,,,0.649,2,,,,,,,,low,13,0,13,0,1,,,,,,,,,
294244,2022-09-21_12h33.27.684,vts_reward_expectancy,2022.2.4,Win32,20,Firefox,1920,1080,,,,,0,993,,,,,,,,,,,,,,,,,167,H,circle,0,0,,,,,,,,,,,,,,,,repeat,number,NA,d,noRew,,,,,,0.003,2,,,,,,,,low,14,0,14,0,1,,,,,,,,,
294244,2022-09-21_12h33.27.684,vts_reward_expectancy,2022.2.4,Win32,20,Firefox,1920,1080,,,,,10,1003,,,,,,,,,,,,,,,,,181,B,triangle,1,1,,,,,,,,,,,,,,,,switch,letter,lettSwt,j,noRew,,,,,,0.732,2,,,,,,,,low,15,0,15,0,1,,,,,,,,,
294244,2022-09-21_12h33.27.684,vts_reward_expectancy,2022.2.4,Win32,20,Firefox,1920,1080,,,,,0,1003,,,,,,,,,,,,,,,,,181,W,circle,1,0,,,,,,,,,,,,,,,,switch,number,numSwt,f,noRew,,,,,,0.678,2,,,,,,,,low,16,0,16,0,1,,,,,,,,,
294244,2022-09-21_12h33.27.684,vts_reward_expectancy,2022.2.4,Win32,20,Firefox,1920,1080,,,,,10,1013,,,,,,,,,,,,,,,,,167,Y,triangle,1,0,,,,,,,,,,,,,,,,repeat,number,numRpt,f,noRew,,,,,,0.606,2,,,,,,,,low,17,0,17,0,1,,,,,,,,,
294244,2022-09-21_12h33.27.684,vts_reward_expectancy,2022.2.4,Win32,20,Firefox,1920,1080,,,,,10,1023,,,,,,,,,,,,,,,,,132,D,triangle,1,0,,,,,,,,,,,,,,,,repeat,number,numRpt,d,noRew,,,,,,0.566,2,,,,,,,,low,18,0,18,0,1,,,,,,,,,
294244,2022-09-21_12h33.27.684,vts_reward_expectancy,2022.2.4,Win32,20,Firefox,1920,1080,,,,,0,1023,,,,,,,,,,,,,,,,,146,U,circle,1,0,,,,,,,,,,,,,,,,repeat,number,numRpt,d,noRew,,,,,,0.654,2,,,,,,,,low,19,0,19,0,1,,,,,,,,,
294244,2022-09-21_12h33.27.684,vts_reward_expectancy,2022.2.4,Win32,20,Firefox,1920,1080,,,,,1,1024,,,,,,,,,,,,,,,,,174,S,triangle,1,0,,,,,,,,,,,,,,,,repeat,number,numRpt,f,noRew,,,,,,0.512,2,,,,,,,,low,20,0,20,0,1,,,,,,,,,
294244,2022-09-21_12h33.27.684,vts_reward_expectancy,2022.2.4,Win32,20,Firefox,1920,1080,,,,,0,1024,,,,,,,,,,,,,,,,,139,B,circle,1,0,,,,,,,,,,,,,,,,repeat,number,numRpt,d,noRew,,,,,,0.502,2,,,,,,,,low,21,0,21,0,1,,,,,,,,,
294244,2022-09-21_12h33.27.684,vts_reward_expectancy,2022.2.4,Win32,20,Firefox,1920,1080,,,,,0,1024,,,,,,,,,,,,,,,,,125,F,circle,1,0,,,,,,,,,,,,,,,,repeat,number,numRpt,d,noRew,,,,,,0.493,2,,,,,,,,low,22,0,22,0,1,,,,,,,,,
294244,2022-09-21_12h33.27.684,vts_reward_expectancy,2022.2.4,Win32,20,Firefox,1920,1080,,,,,1,1025,,,,,,,,,,,,,,,,,160,H,triangle,1,0,,,,,,,,,,,,,,,,repeat,number,numRpt,f,noRew,,,,,,0.429,2,,,,,,,,low,23,0,23,0,1,,,,,,,,,
294244,2022-09-21_12h33.27.684,vts_reward_expectancy,2022.2.4,Win32,20,Firefox,1920,1080,,,,,1,1026,,,,,,,,,,,,,,,,,132,S,triangle,1,0,,,,,,,,,,,,,,,,repeat,number,numRpt,d,noRew,,,,,,0.421,2,,,,,,,,low,24,0,24,0,1,,,,,,,,,
294244,2022-09-21_12h33.27.684,vts_reward_expectancy,2022.2.4,Win32,20,Firefox,1920,1080,,,,,10,1036,,,,,,,,,,,,,,,,,181,D,circle,1,0,,,,,,,,,,,,,,,,repeat,number,numRpt,f,noRew,,,,,,0.443,2,,,,,,,,low,25,0,25,0,1,,,,,,,,,
294244,2022-09-21_12h33.27.684,vts_reward_expectancy,2022.2.4,Win32,20,Firefox,1920,1080,,,,,0,1036,,,,,,,,,,,,,,,,,146,U,triangle,0,0,,,,,,,,,,,,,,,,repeat,number,NA,f,noRew,,,,,,0.411,2,,,,,,,,low,26,0,26,0,1,,,,,,,,,
294244,2022-09-21_12h33.27.684,vts_reward_expectancy,2022.2.4,Win32,20,Firefox,1920,1080,,,,,0,1036,,,,,,,,,,,,,,,,,139,F,circle,1,1,,,,,,,,,,,,,,,,repeat,number,numRpt,d,noRew,,,,,,0.529,2,,,,,,,,low,27,0,27,0,1,,,,,,,,,
294244,2022-09-21_12h33.27.684,vts_reward_expectancy,2022.2.4,Win32,20,Firefox,1920,1080,,,,,1,1037,,,,,,,,,,,,,,,,,125,Y,triangle,1,0,,,,,,,,,,,,,,,,repeat,number,numRpt,d,noRew,,,,,,0.535,2,,,,,,,,low,28,0,28,0,1,,,,,,,,,
294244,2022-09-21_12h33.27.684,vts_reward_expectancy,2022.2.4,Win32,20,Firefox,1920,1080,,,,,10,1047,,,,,,,,,,,,,,,,,167,W,circle,1,0,,,,,,,,,,,,,,,,repeat,number,numRpt,f,noRew,,,,,,0.426,2,,,,,,,,low,29,0,29,0,1,,,,,,,,,
294244,2022-09-21_12h33.27.684,vts_reward_expectancy,2022.2.4,Win32,20,Firefox,1920,1080,,,,,0,1047,,,,,,,,,,,,,,,,,160,H,circle,1,0,,,,,,,,,,,,,,,,repeat,number,numRpt,f,noRew,,,,,,0.663,2,,,,,,,,low,30,0,30,0,1,,,,,,,,,
294244,2022-09-21_12h33.27.684,vts_reward_expectancy,2022.2.4,Win32,20,Firefox,1920,1080,,,,,1,1048,,,,,,,,,,,,,,,,,174,B,triangle,1,0,,,,,,,,,,,,,,,,repeat,number,numRpt,f,noRew,,,,,,0.465,2,,,,,,,,low,31,0,31,0,1,,,,,,,,,
294244,2022-09-21_12h33.27.684,vts_reward_expectancy,2022.2.4,Win32,20,Firefox,1920,1080,,,,,0,1048,,,,,,,,,,,,,,,,,160,Y,circle,1,0,,,,,,,,,,,,,,,,repeat,number,numRpt,f,noRew,,,,,,0.509,3,,,,,,space,1.906,low,0,0,0,0,1,,,,,,,,,
294244,2022-09-21_12h33.27.684,vts_reward_expectancy,2022.2.4,Win32,20,Firefox,1920,1080,,,,,10,1058,,,,,,,,,,,,,,,,,139,B,triangle,1,0,,,,,,,,,,,,,,,,repeat,number,numRpt,d,noRew,,,,,,0.518,3,,,,,,,,low,1,0,1,0,1,,,,,,,,,
294244,2022-09-21_12h33.27.684,vts_reward_expectancy,2022.2.4,Win32,20,Firefox,1920,1080,,,,,10,1068,,,,,,,,,,,,,,,,,167,W,circle,1,0,,,,,,,,,,,,,,,,repeat,number,numRpt,f,noRew,,,,,,0.446,3,,,,,,,,low,2,0,2,0,1,,,,,,,,,
294244,2022-09-21_12h33.27.684,vts_reward_expectancy,2022.2.4,Win32,20,Firefox,1920,1080,,,,,1,1069,,,,,,,,,,,,,,,,,125,D,triangle,1,0,,,,,,,,,,,,,,,,repeat,number,numRpt,d,noRew,,,,,,0.457,3,,,,,,,,low,3,0,3,0,1,,,,,,,,,
294244,2022-09-21_12h33.27.684,vts_reward_expectancy,2022.2.4,Win32,20,Firefox,1920,1080,,,,,1,1070,,,,,,,,,,,,,,,,,174,F,triangle,1,0,,,,,,,,,,,,,,,,repeat,number,numRpt,f,noRew,,,,,,0.43,3,,,,,,,,low,4,0,4,0,1,,,,,,,,,
294244,2022-09-21_12h33.27.684,vts_reward_expectancy,2022.2.4,Win32,20,Firefox,1920,1080,,,,,10,1080,,,,,,,,,,,,,,,,,181,U,circle,1,0,,,,,,,,,,,,,,,,repeat,number,numRpt,f,noRew,,,,,,0.453,3,,,,,,,,low,5,0,5,0,1,,,,,,,,,
294244,2022-09-21_12h33.27.684,vts_reward_expectancy,2022.2.4,Win32,20,Firefox,1920,1080,,,,,1,1081,,,,,,,,,,,,,,,,,132,H,triangle,1,0,,,,,,,,,,,,,,,,repeat,number,numRpt,d,noRew,,,,,,0.463,3,,,,,,,,low,6,0,6,0,1,,,,,,,,,
294244,2022-09-21_12h33.27.684,vts_reward_expectancy,2022.2.4,Win32,20,Firefox,1920,1080,,,,,0,1081,,,,,,,,,,,,,,,,,146,S,circle,0,0,,,,,,,,,,,,,,,,repeat,number,NA,f,noRew,,,,,,0.328,3,,,,,,,,low,7,0,7,0,1,,,,,,,,,
294244,2022-09-21_12h33.27.684,vts_reward_expectancy,2022.2.4,Win32,20,Firefox,1920,1080,,,,,0,1081,,,,,,,,,,,,,,,,,160,Y,circle,1,1,,,,,,,,,,,,,,,,repeat,number,numRpt,f,noRew,,,,,,0.6,3,,,,,,,,low,8,0,8,0,1,,,,,,,,,
294244,2022-09-21_12h33.27.684,vts_reward_expectancy,2022.2.4,Win32,20,Firefox,1920,1080,,,,,1,1082,,,,,,,,,,,,,,,,,139,B,triangle,1,0,,,,,,,,,,,,,,,,repeat,number,numRpt,d,noRew,,,,,,0.383,3,,,,,,,,low,9,0,9,0,1,,,,,,,,,
294244,2022-09-21_12h33.27.684,vts_reward_expectancy,2022.2.4,Win32,20,Firefox,1920,1080,,,,,1,1083,,,,,,,,,,,,,,,,,167,W,triangle,1,0,,,,,,,,,,,,,,,,repeat,number,numRpt,f,noRew,,,,,,0.346,3,,,,,,,,low,10,0,10,0,1,,,,,,,,,
294244,2022-09-21_12h33.27.684,vts_reward_expectancy,2022.2.4,Win32,20,Firefox,1920,1080,,,,,10,1093,,,,,,,,,,,,,,,,,125,D,circle,1,0,,,,,,,,,,,,,,,,repeat,number,numRpt,d,noRew,,,,,,0.399,3,,,,,,,,low,11,0,11,0,1,,,,,,,,,
294244,2022-09-21_12h33.27.684,vts_reward_expectancy,2022.2.4,Win32,20,Firefox,1920,1080,,,,,1,1094,,,,,,,,,,,,,,,,,174,F,circle,1,0,,,,,,,,,,,,,,,,repeat,number,numRpt,f,noRew,,,,,,0.419,3,,,,,,,,low,12,0,12,0,1,,,,,,,,,
294244,2022-09-21_12h33.27.684,vts_reward_expectancy,2022.2.4,Win32,20,Firefox,1920,1080,,,,,0,1094,,,,,,,,,,,,,,,,,181,U,triangle,0,0,,,,,,,,,,,,,,,,repeat,number,NA,d,noRew,,,,,,0.366,3,,,,,,,,low,13,0,13,0,1,,,,,,,,,
294244,2022-09-21_12h33.27.684,vts_reward_expectancy,2022.2.4,Win32,20,Firefox,1920,1080,,,,,1,1095,,,,,,,,,,,,,,,,,132,H,triangle,1,1,,,,,,,,,,,,,,,,repeat,number,numRpt,d,noRew,,,,,,0.571,3,,,,,,,,low,14,0,14,0,1,,,,,,,,,
294244,2022-09-21_12h33.27.684,vts_reward_expectancy,2022.2.4,Win32,20,Firefox,1920,1080,,,,,0,1095,,,,,,,,,,,,,,,,,146,S,circle,1,0,,,,,,,,,,,,,,,,repeat,number,numRpt,d,noRew,,,,,,0.603,3,,,,,,,,low,15,0,15,0,1,,,,,,,,,
294244,2022-09-21_12h33.27.684,vts_reward_expectancy,2022.2.4,Win32,20,Firefox,1920,1080,,,,,1,1096,,,,,,,,,,,,,,,,,160,S,triangle,1,0,,,,,,,,,,,,,,,,repeat,number,numRpt,f,noRew,,,,,,0.369,3,,,,,,,,low,16,0,16,0,1,,,,,,,,,
294244,2022-09-21_12h33.27.684,vts_reward_expectancy,2022.2.4,Win32,20,Firefox,1920,1080,,,,,0,1096,,,,,,,,,,,,,,,,,167,W,circle,1,0,,,,,,,,,,,,,,,,repeat,number,numRpt,f,noRew,,,,,,0.541,3,,,,,,,,low,17,0,17,0,1,,,,,,,,,
294244,2022-09-21_12h33.27.684,vts_reward_expectancy,2022.2.4,Win32,20,Firefox,1920,1080,,,,,1,1097,,,,,,,,,,,,,,,,,125,D,triangle,1,0,,,,,,,,,,,,,,,,repeat,number,numRpt,d,noRew,,,,,,0.342,3,,,,,,,,low,18,0,18,0,1,,,,,,,,,
294244,2022-09-21_12h33.27.684,vts_reward_expectancy,2022.2.4,Win32,20,Firefox,1920,1080,,,,,10,1107,,,,,,,,,,,,,,,,,146,B,circle,1,0,,,,,,,,,,,,,,,,repeat,number,numRpt,d,noRew,,,,,,0.459,3,,,,,,,,low,19,0,19,0,1,,,,,,,,,
294244,2022-09-21_12h33.27.684,vts_reward_expectancy,2022.2.4,Win32,20,Firefox,1920,1080,,,,,1,1108,,,,,,,,,,,,,,,,,181,H,triangle,1,0,,,,,,,,,,,,,,,,repeat,number,numRpt,f,noRew,,,,,,0.376,3,,,,,,,,low,20,0,20,0,1,,,,,,,,,
294244,2022-09-21_12h33.27.684,vts_reward_expectancy,2022.2.4,Win32,20,Firefox,1920,1080,,,,,1,1109,,,,,,,,,,,,,,,,,132,U,circle,1,0,,,,,,,,,,,,,,,,repeat,number,numRpt,d,noRew,,,,,,0.386,3,,,,,,,,low,21,0,21,0,1,,,,,,,,,
294244,2022-09-21_12h33.27.684,vts_reward_expectancy,2022.2.4,Win32,20,Firefox,1920,1080,,,,,10,1119,,,,,,,,,,,,,,,,,174,Y,triangle,1,0,,,,,,,,,,,,,,,,repeat,number,numRpt,f,noRew,,,,,,0.419,3,,,,,,,,low,22,0,22,0,1,,,,,,,,,
294244,2022-09-21_12h33.27.684,vts_reward_expectancy,2022.2.4,Win32,20,Firefox,1920,1080,,,,,0,1119,,,,,,,,,,,,,,,,,139,F,circle,1,0,,,,,,,,,,,,,,,,repeat,number,numRpt,d,noRew,,,,,,0.653,3,,,,,,,,low,23,0,23,0,1,,,,,,,,,
294244,2022-09-21_12h33.27.684,vts_reward_expectancy,2022.2.4,Win32,20,Firefox,1920,1080,,,,,1,1120,,,,,,,,,,,,,,,,,139,D,triangle,1,0,,,,,,,,,,,,,,,,repeat,number,numRpt,d,noRew,,,,,,0.453,3,,,,,,,,low,24,0,24,0,1,,,,,,,,,
294244,2022-09-21_12h33.27.684,vts_reward_expectancy,2022.2.4,Win32,20,Firefox,1920,1080,,,,,1,1121,,,,,,,,,,,,,,,,,160,H,circle,1,0,,,,,,,,,,,,,,,,repeat,number,numRpt,f,noRew,,,,,,0.26,3,,,,,,,,low,25,0,25,0,1,,,,,,,,,
294244,2022-09-21_12h33.27.684,vts_reward_expectancy,2022.2.4,Win32,20,Firefox,1920,1080,,,,,1,1122,,,,,,,,,,,,,,,,,146,B,triangle,1,0,,,,,,,,,,,,,,,,repeat,number,numRpt,d,noRew,,,,,,0.376,3,,,,,,,,low,26,0,26,0,1,,,,,,,,,
294244,2022-09-21_12h33.27.684,vts_reward_expectancy,2022.2.4,Win32,20,Firefox,1920,1080,,,,,10,1132,,,,,,,,,,,,,,,,,167,W,circle,1,0,,,,,,,,,,,,,,,,repeat,number,numRpt,f,noRew,,,,,,0.378,3,,,,,,,,low,27,0,27,0,1,,,,,,,,,
294244,2022-09-21_12h33.27.684,vts_reward_expectancy,2022.2.4,Win32,20,Firefox,1920,1080,,,,,0,1132,,,,,,,,,,,,,,,,,174,S,circle,1,0,,,,,,,,,,,,,,,,repeat,number,numRpt,f,noRew,,,,,,0.558,3,,,,,,,,low,28,0,28,0,1,,,,,,,,,
294244,2022-09-21_12h33.27.684,vts_reward_expectancy,2022.2.4,Win32,20,Firefox,1920,1080,,,,,1,1133,,,,,,,,,,,,,,,,,132,U,triangle,1,0,,,,,,,,,,,,,,,,repeat,number,numRpt,d,noRew,,,,,,0.334,3,,,,,,,,low,29,0,29,0,1,,,,,,,,,
294244,2022-09-21_12h33.27.684,vts_reward_expectancy,2022.2.4,Win32,20,Firefox,1920,1080,,,,,10,1143,,,,,,,,,,,,,,,,,181,Y,triangle,1,0,,,,,,,,,,,,,,,,repeat,number,numRpt,f,noRew,,,,,,0.456,3,,,,,,,,low,30,0,30,0,1,,,,,,,,,
294244,2022-09-21_12h33.27.684,vts_reward_expectancy,2022.2.4,Win32,20,Firefox,1920,1080,,,,,10,1153,,,,,,,,,,,,,,,,,125,F,circle,1,0,,,,,,,,,,,,,,,,repeat,number,numRpt,d,noRew,,,,,,0.339,3,,,,,,,,low,31,0,31,0,1,,,,,,,,,
294244,2022-09-21_12h33.27.684,vts_reward_expectancy,2022.2.4,Win32,20,Firefox,1920,1080,,,,,0,1153,,,,,,,,,,,,,,,,,181,D,circle,1,0,,,,,,,,,,,,,,,,repeat,number,numRpt,f,noRew,,,,,,0.411,4,,,,,,space,0.895,low,0,0,0,0,1,,,,,,,,,
294244,2022-09-21_12h33.27.684,vts_reward_expectancy,2022.2.4,Win32,20,Firefox,1920,1080,,,,,10,1163,,,,,,,,,,,,,,,,,139,H,triangle,1,0,,,,,,,,,,,,,,,,repeat,number,numRpt,d,noRew,,,,,,0.232,4,,,,,,,,low,1,0,1,0,1,,,,,,,,,
294244,2022-09-21_12h33.27.684,vts_reward_expectancy,2022.2.4,Win32,20,Firefox,1920,1080,,,,,0,1163,,,,,,,,,,,,,,,,,132,U,circle,1,0,,,,,,,,,,,,,,,,repeat,number,numRpt,d,noRew,,,,,,0.457,4,,,,,,,,low,2,0,2,0,1,,,,,,,,,
294244,2022-09-21_12h33.27.684,vts_reward_expectancy,2022.2.4,Win32,20,Firefox,1920,1080,,,,,0,1163,,,,,,,,,,,,,,,,,125,W,triangle,0,0,,,,,,,,,,,,,,,,repeat,number,NA,f,noRew,,,,,,0.353,4,,,,,,,,low,3,0,3,0,1,,,,,,,,,
294244,2022-09-21_12h33.27.684,vts_reward_expectancy,2022.2.4,Win32,20,Firefox,1920,1080,,,,,0,1163,,,,,,,,,,,,,,,,,146,F,circle,0,1,,,,,,,,,,,,,,,,repeat,number,NA,f,noRew,,,,,,0.394,4,,,,,,,,low,4,0,4,0,1,,,,,,,,,
294244,2022-09-21_12h33.27.684,vts_reward_expectancy,2022.2.4,Win32,20,Firefox,1920,1080,,,,,1,1164,,,,,,,,,,,,,,,,,174,B,triangle,1,1,,,,,,,,,,,,,,,,repeat,number,numRpt,f,noRew,,,,,,0.396,4,,,,,,,,low,5,0,5,0,1,,,,,,,,,
294244,2022-09-21_12h33.27.684,vts_reward_expectancy,2022.2.4,Win32,20,Firefox,1920,1080,,,,,0,1164,,,,,,,,,,,,,,,,,167,S,circle,0,0,,,,,,,,,,,,,,,,repeat,number,NA,d,noRew,,,,,,0.347,4,,,,,,,,low,6,0,6,0,1,,,,,,,,,
294244,2022-09-21_12h33.27.684,vts_reward_expectancy,2022.2.4,Win32,20,Firefox,1920,1080,,,,,0,1164,,,,,,,,,,,,,,,,,160,Y,triangle,0,1,,,,,,,,,,,,,,,,repeat,number,NA,d,noRew,,,,,,0.406,4,,,,,,,,low,7,0,7,0,1,,,,,,,,,
294244,2022-09-21_12h33.27.684,vts_reward_expectancy,2022.2.4,Win32,20,Firefox,1920,1080,,,,,0,1164,,,,,,,,,,,,,,,,,181,D,circle,1,1,,,,,,,,,,,,,,,,repeat,number,numRpt,f,noRew,,,,,,0.579,4,,,,,,,,low,8,0,8,0,1,,,,,,,,,
294244,2022-09-21_12h33.27.684,vts_reward_expectancy,2022.2.4,Win32,20,Firefox,1920,1080,,,,,1,1165,,,,,,,,,,,,,,,,,139,H,triangle,1,0,,,,,,,,,,,,,,,,repeat,number,numRpt,d,noRew,,,,,,0.532,4,,,,,,,,low,9,0,9,0,1,,,,,,,,,
294244,2022-09-21_12h33.27.684,vts_reward_expectancy,2022.2.4,Win32,20,Firefox,1920,1080,,,,,0,1165,,,,,,,,,,,,,,,,,132,U,circle,0,0,,,,,,,,,,,,,,,,repeat,number,NA,f,noRew,,,,,,0.428,4,,,,,,,,low,10,0,10,0,1,,,,,,,,,
294244,2022-09-21_12h33.27.684,vts_reward_expectancy,2022.2.4,Win32,20,Firefox,1920,1080,,,,,1,1166,,,,,,,,,,,,,,,,,125,W,triangle,1,1,,,,,,,,,,,,,,,,repeat,number,numRpt,d,noRew,,,,,,0.473,4,,,,,,,,low,11,0,11,0,1,,,,,,,,,
294244,2022-09-21_12h33.27.684,vts_reward_expectancy,2022.2.4,Win32,20,Firefox,1920,1080,,,,,1,1167,,,,,,,,,,,,,,,,,146,F,triangle,1,0,,,,,,,,,,,,,,,,repeat,number,numRpt,d,noRew,,,,,,0.488,4,,,,,,,,low,12,0,12,0,1,,,,,,,,,
294244,2022-09-21_12h33.27.684,vts_reward_expectancy,2022.2.4,Win32,20,Firefox,1920,1080,,,,,0,1167,,,,,,,,,,,,,,,,,174,B,circle,1,0,,,,,,,,,,,,,,,,repeat,number,numRpt,f,noRew,,,,,,0.425,4,,,,,,,,low,13,0,13,0,1,,,,,,,,,
294244,2022-09-21_12h33.27.684,vts_reward_expectancy,2022.2.4,Win32,20,Firefox,1920,1080,,,,,1,1168,,,,,,,,,,,,,,,,,167,S,triangle,1,0,,,,,,,,,,,,,,,,repeat,number,numRpt,f,noRew,,,,,,0.423,4,,,,,,,,low,14,0,14,0,1,,,,,,,,,
294244,2022-09-21_12h33.27.684,vts_reward_expectancy,2022.2.4,Win32,20,Firefox,1920,1080,,,,,0,1168,,,,,,,,,,,,,,,,,160,Y,circle,1,0,,,,,,,,,,,,,,,,repeat,number,numRpt,f,noRew,,,,,,0.496,4,,,,,,,,low,15,0,15,0,1,,,,,,,,,
294244,2022-09-21_12h33.27.684,vts_reward_expectancy,2022.2.4,Win32,20,Firefox,1920,1080,,,,,1,1169,,,,,,,,,,,,,,,,,160,S,triangle,1,0,,,,,,,,,,,,,,,,repeat,number,numRpt,f,noRew,,,,,,0.467,4,,,,,,,,low,16,0,16,0,1,,,,,,,,,
294244,2022-09-21_12h33.27.684,vts_reward_expectancy,2022.2.4,Win32,20,Firefox,1920,1080,,,,,0,1169,,,,,,,,,,,,,,,,,174,U,circle,0,0,,,,,,,,,,,,,,,,repeat,number,NA,d,noRew,,,,,,0.363,4,,,,,,,,low,17,0,17,0,1,,,,,,,,,
294244,2022-09-21_12h33.27.684,vts_reward_expectancy,2022.2.4,Win32,20,Firefox,1920,1080,,,,,0,1169,,,,,,,,,,,,,,,,,181,D,circle,1,1,,,,,,,,,,,,,,,,repeat,number,numRpt,f,noRew,,,,,,0.462,4,,,,,,,,low,18,0,18,0,1,,,,,,,,,
294244,2022-09-21_12h33.27.684,vts_reward_expectancy,2022.2.4,Win32,20,Firefox,1920,1080,,,,,1,1170,,,,,,,,,,,,,,,,,132,Y,triangle,1,0,,,,,,,,,,,,,,,,repeat,number,numRpt,d,noRew,,,,,,0.444,4,,,,,,,,low,19,0,19,0,1,,,,,,,,,
294244,2022-09-21_12h33.27.684,vts_reward_expectancy,2022.2.4,Win32,20,Firefox,1920,1080,,,,,0,1170,,,,,,,,,,,,,,,,,125,B,circle,1,0,,,,,,,,,,,,,,,,repeat,number,numRpt,d,noRew,,,,,,0.429,4,,,,,,,,low,20,0,20,0,1,,,,,,,,,
294244,2022-09-21_12h33.27.684,vts_reward_expectancy,2022.2.4,Win32,20,Firefox,1920,1080,,,,,1,1171,,,,,,,,,,,,,,,,,167,F,triangle,1,0,,,,,,,,,,,,,,,,repeat,number,numRpt,f,noRew,,,,,,0.442,4,,,,,,,,low,21,0,21,0,1,,,,,,,,,
294244,2022-09-21_12h33.27.684,vts_reward_expectancy,2022.2.4,Win32,20,Firefox,1920,1080,,,,,0,1171,,,,,,,,,,,,,,,,,139,W,circle,0,0,,,,,,,,,,,,,,,,repeat,number,NA,f,noRew,,,,,,0.364,4,,,,,,,,low,22,0,22,0,1,,,,,,,,,
294244,2022-09-21_12h33.27.684,vts_reward_expectancy,2022.2.4,Win32,20,Firefox,1920,1080,,,,,0,1171,,,,,,,,,,,,,,,,,146,H,triangle,0,1,,,,,,,,,,,,,,,,repeat,number,NA,f,noRew,,,,,,0.422,4,,,,,,,,low,23,0,23,0,1,,,,,,,,,
294244,2022-09-21_12h33.27.684,vts_reward_expectancy,2022.2.4,Win32,20,Firefox,1920,1080,,,,,0,1171,,,,,,,,,,,,,,,,,181,F,circle,1,1,,,,,,,,,,,,,,,,repeat,number,numRpt,f,noRew,,,,,,0.41,4,,,,,,,,low,24,0,24,0,1,,,,,,,,,
294244,2022-09-21_12h33.27.684,vts_reward_expectancy,2022.2.4,Win32,20,Firefox,1920,1080,,,,,1,1172,,,,,,,,,,,,,,,,,139,S,triangle,1,0,,,,,,,,,,,,,,,,repeat,number,numRpt,d,noRew,,,,,,0.493,4,,,,,,,,low,25,0,25,0,1,,,,,,,,,
294244,2022-09-21_12h33.27.684,vts_reward_expectancy,2022.2.4,Win32,20,Firefox,1920,1080,,,,,1,1173,,,,,,,,,,,,,,,,,167,U,triangle,1,0,,,,,,,,,,,,,,,,repeat,number,numRpt,f,noRew,,,,,,0.409,4,,,,,,,,low,26,0,26,0,1,,,,,,,,,
294244,2022-09-21_12h33.27.684,vts_reward_expectancy,2022.2.4,Win32,20,Firefox,1920,1080,,,,,0,1173,,,,,,,,,,,,,,,,,132,W,circle,1,0,,,,,,,,,,,,,,,,repeat,number,numRpt,d,noRew,,,,,,0.486,4,,,,,,,,low,27,0,27,0,1,,,,,,,,,
294244,2022-09-21_12h33.27.684,vts_reward_expectancy,2022.2.4,Win32,20,Firefox,1920,1080,,,,,0,1173,,,,,,,,,,,,,,,,,146,Y,triangle,0,0,,,,,,,,,,,,,,,,repeat,number,NA,f,noRew,,,,,,0.582,4,,,,,,,,low,28,0,28,0,1,,,,,,,,,
294244,2022-09-21_12h33.27.684,vts_reward_expectancy,2022.2.4,Win32,20,Firefox,1920,1080,,,,,0,1173,,,,,,,,,,,,,,,,,174,H,circle,1,1,,,,,,,,,,,,,,,,repeat,number,numRpt,f,noRew,,,,,,0.515,4,,,,,,,,low,29,0,29,0,1,,,,,,,,,
294244,2022-09-21_12h33.27.684,vts_reward_expectancy,2022.2.4,Win32,20,Firefox,1920,1080,,,,,1,1174,,,,,,,,,,,,,,,,,160,B,triangle,1,0,,,,,,,,,,,,,,,,repeat,number,numRpt,f,noRew,,,,,,0.546,4,,,,,,,,low,30,0,30,0,1,,,,,,,,,
294244,2022-09-21_12h33.27.684,vts_reward_expectancy,2022.2.4,Win32,20,Firefox,1920,1080,,,,,10,1184,,,,,,,,,,,,,,,,,125,D,circle,1,0,,,,,,,,,,,,,,,,repeat,number,numRpt,d,noRew,,,,,,0.367,4,,,,,,,,low,31,0,31,0,1,,,,,,,,,
294244,2022-09-21_12h33.27.684,vts_reward_expectancy,2022.2.4,Win32,20,Firefox,1920,1080,,,,,0,1184,,,,,,,,,,,,,,,,,132,S,hexagon,1,0,,,,,,,,,,,,,,,,repeat,number,numRpt,d,noRew,,,,,,0.564,5,,,,,,space,0.794,high,0,0,0,0,1,,,,,,,,,
294244,2022-09-21_12h33.27.684,vts_reward_expectancy,2022.2.4,Win32,20,Firefox,1920,1080,,,,,10,1194,,,,,,,,,,,,,,,,,167,H,star,1,0,,,,,,,,,,,,,,,,repeat,number,numRpt,f,noRew,,,,,,0.489,5,,,,,,,,high,1,0,1,0,1,,,,,,,,,
294244,2022-09-21_12h33.27.684,vts_reward_expectancy,2022.2.4,Win32,20,Firefox,1920,1080,,,,,0,1194,,,,,,,,,,,,,,,,,174,Y,hexagon,1,0,,,,,,,,,,,,,,,,repeat,number,numRpt,f,noRew,,,,,,0.45,5,,,,,,,,high,2,0,2,0,1,,,,,,,,,
294244,2022-09-21_12h33.27.684,vts_reward_expectancy,2022.2.4,Win32,20,Firefox,1920,1080,,,,,10,1204,,,,,,,,,,,,,,,,,139,U,star,1,0,,,,,,,,,,,,,,,,repeat,number,numRpt,d,noRew,,,,,,0.457,5,,,,,,,,high,3,0,3,0,1,,,,,,,,,
294244,2022-09-21_12h33.27.684,vts_reward_expectancy,2022.2.4,Win32,20,Firefox,1920,1080,,,,,0,1204,,,,,,,,,,,,,,,,,125,W,hexagon,1,0,,,,,,,,,,,,,,,,repeat,number,numRpt,d,noRew,,,,,,0.499,5,,,,,,,,high,4,0,4,0,1,,,,,,,,,
294244,2022-09-21_12h33.27.684,vts_reward_expectancy,2022.2.4,Win32,20,Firefox,1920,1080,,,,,1,1205,,,,,,,,,,,,,,,,,181,B,star,1,0,,,,,,,,,,,,,,,,repeat,number,numRpt,f,noRew,,,,,,0.434,5,,,,,,,,high,5,0,5,0,1,,,,,,,,,
294244,2022-09-21_12h33.27.684,vts_reward_expectancy,2022.2.4,Win32,20,Firefox,1920,1080,,,,,0,1205,,,,,,,,,,,,,,,,,160,F,hexagon,1,0,,,,,,,,,,,,,,,,repeat,number,numRpt,f,noRew,,,,,,0.441,5,,,,,,,,high,6,0,6,0,1,,,,,,,,,
294244,2022-09-21_12h33.27.684,vts_reward_expectancy,2022.2.4,Win32,20,Firefox,1920,1080,,,,,0,1205,,,,,,,,,,,,,,,,,146,D,star,0,0,,,,,,,,,,,,,,,,repeat,number,NA,f,noRew,,,,,,0.458,5,,,,,,,,high,7,0,7,0,1,,,,,,,,,
294244,2022-09-21_12h33.27.684,vts_reward_expectancy,2022.2.4,Win32,20,Firefox,1920,1080,,,,,1,1206,,,,,,,,,,,,,,,,,132,S,star,1,1,,,,,,,,,,,,,,,,repeat,number,numRpt,d,noRew,,,,,,0.413,5,,,,,,,,high,8,0,8,0,1,,,,,,,,,
294244,2022-09-21_12h33.27.684,vts_reward_expectancy,2022.2.4,Win32,20,Firefox,1920,1080,,,,,10,1216,,,,,,,,,,,,,,,,,167,H,hexagon,1,0,,,,,,,,,,,,,,,,repeat,number,numRpt,f,noRew,,,,,,0.404,5,,,,,,,,high,9,0,9,0,1,,,,,,,,,
294244,2022-09-21_12h33.27.684,vts_reward_expectancy,2022.2.4,Win32,20,Firefox,1920,1080,,,,,1,1217,,,,,,,,,,,,,,,,,174,Y,hexagon,1,0,,,,,,,,,,,,,,,,repeat,number,numRpt,f,noRew,,,,,,0.42,5,,,,,,,,high,10,0,10,0,1,,,,,,,,,
294244,2022-09-21_12h33.27.684,vts_reward_expectancy,2022.2.4,Win32,20,Firefox,1920,1080,,,,,1,1218,,,,,,,,,,,,,,,,,139,U,star,1,0,,,,,,,,,,,,,,,,repeat,number,numRpt,d,noRew,,,,,,0.416,5,,,,,,,,high,11,0,11,0,1,,,,,,,,,
294244,2022-09-21_12h33.27.684,vts_reward_expectancy,2022.2.4,Win32,20,Firefox,1920,1080,,,,,0,1218,,,,,,,,,,,,,,,,,125,W,hexagon,1,0,,,,,,,,,,,,,,,,repeat,number,numRpt,d,noRew,,,,,,0.527,5,,,,,,,,high,12,0,12,0,1,,,,,,,,,
294244,2022-09-21_12h33.27.684,vts_reward_expectancy,2022.2.4,Win32,20,Firefox,1920,1080,,,,,10,1228,,,,,,,,,,,,,,,,,181,B,star,1,0,,,,,,,,,,,,,,,,repeat,number,numRpt,f,noRew,,,,,,0.396,5,,,,,,,,high,13,0,13,0,1,,,,,,,,,
294244,2022-09-21_12h33.27.684,vts_reward_expectancy,2022.2.4,Win32,20,Firefox,1920,1080,,,,,0,1228,,,,,,,,,,,,,,,,,160,F,hexagon,1,0,,,,,,,,,,,,,,,,repeat,number,numRpt,f,noRew,,,,,,0.492,5,,,,,,,,high,14,0,14,0,1,,,,,,,,,
294244,2022-09-21_12h33.27.684,vts_reward_expectancy,2022.2.4,Win32,20,Firefox,1920,1080,,,,,1,1229,,,,,,,,,,,,,,,,,146,D,star,1,0,,,,,,,,,,,,,,,,repeat,number,numRpt,d,noRew,,,,,,0.39,5,,,,,,,,high,15,0,15,0,1,,,,,,,,,
294244,2022-09-21_12h33.27.684,vts_reward_expectancy,2022.2.4,Win32,20,Firefox,1920,1080,,,,,0,1229,,,,,,,,,,,,,,,,,146,H,hexagon,0,0,,,,,,,,,,,,,,,,repeat,number,NA,f,noRew,,,,,,0.355,5,,,,,,,,high,16,0,16,0,1,,,,,,,,,
294244,2022-09-21_12h33.27.684,vts_reward_expectancy,2022.2.4,Win32,20,Firefox,1920,1080,,,,,0,1229,,,,,,,,,,,,,,,,,174,U,star,0,1,,,,,,,,,,,,,,,,repeat,number,NA,d,noRew,,,,,,0.429,5,,,,,,,,high,17,0,17,0,1,,,,,,,,,
294244,2022-09-21_12h33.27.684,vts_reward_expectancy,2022.2.4,Win32,20,Firefox,1920,1080,,,,,1,1230,,,,,,,,,,,,,,,,,139,D,star,1,1,,,,,,,,,,,,,,,,repeat,number,numRpt,d,noRew,,,,,,0.535,5,,,,,,,,high,18,0,18,0,1,,,,,,,,,
294244,2022-09-21_12h33.27.684,vts_reward_expectancy,2022.2.4,Win32,20,Firefox,1920,1080,,,,,0,1230,,,,,,,,,,,,,,,,,181,S,hexagon,1,0,,,,,,,,,,,,,,,,repeat,number,numRpt,f,noRew,,,,,,0.464,5,,,,,,,,high,19,0,19,0,1,,,,,,,,,
294244,2022-09-21_12h33.27.684,vts_reward_expectancy,2022.2.4,Win32,20,Firefox,1920,1080,,,,,0,1230,,,,,,,,,,,,,,,,,125,Y,hexagon,1,0,,,,,,,,,,,,,,,,repeat,number,numRpt,d,noRew,,,,,,0.449,5,,,,,,,,high,20,0,20,0,1,,,,,,,,,
294244,2022-09-21_12h33.27.684,vts_reward_expectancy,2022.2.4,Win32,20,Firefox,1920,1080,,,,,1,1231,,,,,,,,,,,,,,,,,167,F,star,1,0,,,,,,,,,,,,,,,,repeat,number,numRpt,f,noRew,,,,,,0.426,5,,,,,,,,high,21,0,21,0,1,,,,,,,,,
294244,2022-09-21_12h33.27.684,vts_reward_expectancy,2022.2.4,Win32,20,Firefox,1920,1080,,,,,1,1232,,,,,,,,,,,,,,,,,132,W,star,1,0,,,,,,,,,,,,,,,,repeat,number,numRpt,d,noRew,,,,,,0.341,5,,,,,,,,high,22,0,22,0,1,,,,,,,,,
294244,2022-09-21_12h33.27.684,vts_reward_expectancy,2022.2.4,Win32,20,Firefox,1920,1080,,,,,10,1242,,,,,,,,,,,,,,,,,160,B,hexagon,1,0,,,,,,,,,,,,,,,,repeat,number,numRpt,f,noRew,,,,,,0.398,5,,,,,,,,high,23,0,23,0,1,,,,,,,,,
294244,2022-09-21_12h33.27.684,vts_reward_expectancy,2022.2.4,Win32,20,Firefox,1920,1080,,,,,0,1242,,,,,,,,,,,,,,,,,174,B,star,0,0,,,,,,,,,,,,,,,,repeat,number,NA,d,noRew,,,,,,0.356,5,,,,,,,,high,24,0,24,0,1,,,,,,,,,
294244,2022-09-21_12h33.27.684,vts_reward_expectancy,2022.2.4,Win32,20,Firefox,1920,1080,,,,,0,1242,,,,,,,,,,,,,,,,,125,U,hexagon,0,1,,,,,,,,,,,,,,,,repeat,number,NA,f,noRew,,,,,,0.441,5,,,,,,,,high,25,0,25,0,1,,,,,,,,,
294244,2022-09-21_12h33.27.684,vts_reward_expectancy,2022.2.4,Win32,20,Firefox,1920,1080,,,,,0,1242,,,,,,,,,,,,,,,,,181,D,hexagon,1,1,,,,,,,,,,,,,,,,repeat,number,numRpt,f,noRew,,,,,,0.498,5,,,,,,,,high,26,0,26,0,1,,,,,,,,,
294244,2022-09-21_12h33.27.684,vts_reward_expectancy,2022.2.4,Win32,20,Firefox,1920,1080,,,,,0,1242,,,,,,,,,,,,,,,,,167,Y,star,0,0,,,,,,,,,,,,,,,,repeat,number,NA,d,noRew,,,,,,0.522,5,,,,,,,,high,27,0,27,0,1,,,,,,,,,
294244,2022-09-21_12h33.27.684,vts_reward_expectancy,2022.2.4,Win32,20,Firefox,1920,1080,,,,,1,1243,,,,,,,,,,,,,,,,,132,S,star,1,1,,,,,,,,,,,,,,,,repeat,number,numRpt,d,noRew,,,,,,0.398,5,,,,,,,,high,28,0,28,0,1,,,,,,,,,
294244,2022-09-21_12h33.27.684,vts_reward_expectancy,2022.2.4,Win32,20,Firefox,1920,1080,,,,,0,1243,,,,,,,,,,,,,,,,,160,W,hexagon,1,0,,,,,,,,,,,,,,,,repeat,number,numRpt,f,noRew,,,,,,0.505,5,,,,,,,,high,29,0,29,0,1,,,,,,,,,
294244,2022-09-21_12h33.27.684,vts_reward_expectancy,2022.2.4,Win32,20,Firefox,1920,1080,,,,,0,1243,,,,,,,,,,,,,,,,,146,F,hexagon,1,0,,,,,,,,,,,,,,,,repeat,number,numRpt,d,noRew,,,,,,0.447,5,,,,,,,,high,30,0,30,0,1,,,,,,,,,
294244,2022-09-21_12h33.27.684,vts_reward_expectancy,2022.2.4,Win32,20,Firefox,1920,1080,,,,,1,1244,,,,,,,,,,,,,,,,,139,H,star,1,0,,,,,,,,,,,,,,,,repeat,number,numRpt,d,noRew,,,,,,0.531,5,,,,,,,,high,31,0,31,0,1,,,,,,,,,
294244,2022-09-21_12h33.27.684,vts_reward_expectancy,2022.2.4,Win32,20,Firefox,1920,1080,,,,,,,,,,,,,,,,,,,,,,,,,,,,,,,,,,,,,,,,,,,,,,,,,,,,,,6,,,,,,,,,,,,,,Click buttons based on criteria,2,,3,2,,2,1920,1080
