participant,date,expName,psychopyVersion,OS,frameRate,browser,xResolution,yResolution,key_resp.keys,key_resp.rt,training_resp.keys,training_resp.rt,points_trial,points_cumul,trainBlock,training.thisRepN,training.thisTrialN,training.thisN,training.thisIndex,training.ran,LTriangleOpac,LCircleOpac,LHexagonOpac,LStarOpac,RTriangleOpac,RCircleOpac,RHexagonOpac,RStarOpac,LShape_ID,RShape_ID,curr_topStim,curr_bottStim,curr_shape,acc,E1,target_resp_prac1.keys,pracBlock,task1_prac_trials.thisRepN,task1_prac_trials.thisTrialN,task1_prac_trials.thisN,task1_prac_trials.thisIndex,task1_prac_trials.ran,target_resp_prac1.rt,target_resp_prac2.keys,target_resp_prac2.rt,task2_praac_trials.thisRepN,task2_praac_trials.thisTrialN,task2_praac_trials.thisN,task2_praac_trials.thisIndex,task2_praac_trials.ran,alt,task,condition,target_resp.keys,target_resp.rt,rewCond,vts_practice_trials.thisRepN,vts_practice_trials.thisTrialN,vts_practice_trials.thisN,vts_practice_trials.thisIndex,vts_practice_trials.ran,blockNum,trials_norew.thisRepN,trials_norew.thisTrialN,trials_norew.thisN,trials_norew.thisIndex,trials_norew.ran,key_resp_2.keys,key_resp_2.rt,rewExpect,trials_rew.thisRepN,trials_rew.thisTrialN,trials_rew.thisN,trials_rew.thisIndex,trials_rew.ran,Q1,Q2,Q2_text,Q3,Q4,Q5_text,Q5,xRes,yRes
294793,2022-10-03_10h14.27.984,vts_reward_expectancy,2022.2.4,Win32,30.01290555,Chrome,1536,864,,,,,,,,,,,,,,,,,,,,,,,,,,,,,,,,,,,,,,,,,,,,,,,,,,,,,,,,,,,,,,,,,,,,,,,,,,,,
294793,2022-10-03_10h14.27.984,vts_reward_expectancy,2022.2.4,Win32,30.01290555,Chrome,1536,864,space,21.1433,,,,,,,,,,,,,,,,,,,,,,,,,,,,,,,,,,,,,,,,,,,,,,,,,,,,,,,,,,,,,,,,,,,,,,,,,,
294793,2022-10-03_10h14.27.984,vts_reward_expectancy,2022.2.4,Win32,30.01290555,Chrome,1536,864,,,,,,,,,,,,,,,,,,,,,,,,,,,,,,,,,,,,,,,,,,,,,,,,,,,,,,,,,,,,,,,,,,,,,,,,,,,,
294793,2022-10-03_10h14.27.984,vts_reward_expectancy,2022.2.4,Win32,30.01290555,Chrome,1536,864,,,a,2.4831,10,10,0,0,0,0,9,1,0,0,0,1,1,0,0,0,star,triangle,,,,,,,,,,,,,,,,,,,,,,,,,,,,,,,,,,,,,,,,,,,,,,,,,,,,,,
294793,2022-10-03_10h14.27.984,vts_reward_expectancy,2022.2.4,Win32,30.01290555,Chrome,1536,864,,,l,1.9071,10,20,0,0,1,1,3,1,0,1,0,0,1,0,0,0,circle,triangle,,,,,,,,,,,,,,,,,,,,,,,,,,,,,,,,,,,,,,,,,,,,,,,,,,,,,,
294793,2022-10-03_10h14.27.984,vts_reward_expectancy,2022.2.4,Win32,30.01290555,Chrome,1536,864,,,a,2.1836,10,30,0,0,2,2,0,1,1,0,0,0,0,1,0,0,triangle,circle,,,,,,,,,,,,,,,,,,,,,,,,,,,,,,,,,,,,,,,,,,,,,,,,,,,,,,
294793,2022-10-03_10h14.27.984,vts_reward_expectancy,2022.2.4,Win32,30.01290555,Chrome,1536,864,,,a,1.0621,10,40,0,0,3,3,7,1,0,0,1,0,0,1,0,0,hexagon,circle,,,,,,,,,,,,,,,,,,,,,,,,,,,,,,,,,,,,,,,,,,,,,,,,,,,,,,
294793,2022-10-03_10h14.27.984,vts_reward_expectancy,2022.2.4,Win32,30.01290555,Chrome,1536,864,,,l,1.6389,1,41,0,0,4,4,1,1,1,0,0,0,0,0,1,0,triangle,hexagon,,,,,,,,,,,,,,,,,,,,,,,,,,,,,,,,,,,,,,,,,,,,,,,,,,,,,,
294793,2022-10-03_10h14.27.984,vts_reward_expectancy,2022.2.4,Win32,30.01290555,Chrome,1536,864,,,a,0.6953,1,42,0,0,5,5,10,1,0,0,0,1,0,1,0,0,star ,circle,,,,,,,,,,,,,,,,,,,,,,,,,,,,,,,,,,,,,,,,,,,,,,,,,,,,,,
294793,2022-10-03_10h14.27.984,vts_reward_expectancy,2022.2.4,Win32,30.01290555,Chrome,1536,864,,,a,0.9668,10,52,0,0,6,6,2,1,1,0,0,0,0,0,0,1,triangle,star,,,,,,,,,,,,,,,,,,,,,,,,,,,,,,,,,,,,,,,,,,,,,,,,,,,,,,
294793,2022-10-03_10h14.27.984,vts_reward_expectancy,2022.2.4,Win32,30.01290555,Chrome,1536,864,,,l,1.1657,1,53,0,0,7,7,8,1,0,0,1,0,0,0,0,1,hexagon,star,,,,,,,,,,,,,,,,,,,,,,,,,,,,,,,,,,,,,,,,,,,,,,,,,,,,,,
294793,2022-10-03_10h14.27.984,vts_reward_expectancy,2022.2.4,Win32,30.01290555,Chrome,1536,864,,,a,1.5164,10,63,0,0,8,8,6,1,0,0,1,0,1,0,0,0,hexagon,triangle,,,,,,,,,,,,,,,,,,,,,,,,,,,,,,,,,,,,,,,,,,,,,,,,,,,,,,
294793,2022-10-03_10h14.27.984,vts_reward_expectancy,2022.2.4,Win32,30.01290555,Chrome,1536,864,,,a,1.2089,10,73,0,0,9,9,5,1,0,1,0,0,0,0,0,1,circle,star,,,,,,,,,,,,,,,,,,,,,,,,,,,,,,,,,,,,,,,,,,,,,,,,,,,,,,
294793,2022-10-03_10h14.27.984,vts_reward_expectancy,2022.2.4,Win32,30.01290555,Chrome,1536,864,,,a,1.2037,1,74,0,0,10,10,4,1,0,1,0,0,0,0,1,0,circle,hexagon,,,,,,,,,,,,,,,,,,,,,,,,,,,,,,,,,,,,,,,,,,,,,,,,,,,,,,
294793,2022-10-03_10h14.27.984,vts_reward_expectancy,2022.2.4,Win32,30.01290555,Chrome,1536,864,,,a,1.0862,1,75,0,0,11,11,11,1,0,0,0,1,0,0,1,0,star,hexagon,,,,,,,,,,,,,,,,,,,,,,,,,,,,,,,,,,,,,,,,,,,,,,,,,,,,,,
294793,2022-10-03_10h14.27.984,vts_reward_expectancy,2022.2.4,Win32,30.01290555,Chrome,1536,864,,,l,0.6461,10,85,0,1,0,12,4,1,0,1,0,0,0,0,1,0,circle,hexagon,,,,,,,,,,,,,,,,,,,,,,,,,,,,,,,,,,,,,,,,,,,,,,,,,,,,,,
294793,2022-10-03_10h14.27.984,vts_reward_expectancy,2022.2.4,Win32,30.01290555,Chrome,1536,864,,,l,0.8385,10,95,0,1,1,13,9,1,0,0,0,1,1,0,0,0,star,triangle,,,,,,,,,,,,,,,,,,,,,,,,,,,,,,,,,,,,,,,,,,,,,,,,,,,,,,
294793,2022-10-03_10h14.27.984,vts_reward_expectancy,2022.2.4,Win32,30.01290555,Chrome,1536,864,,,l,0.7854,1,96,0,1,2,14,3,1,0,1,0,0,1,0,0,0,circle,triangle,,,,,,,,,,,,,,,,,,,,,,,,,,,,,,,,,,,,,,,,,,,,,,,,,,,,,,
294793,2022-10-03_10h14.27.984,vts_reward_expectancy,2022.2.4,Win32,30.01290555,Chrome,1536,864,,,a,0.9817,1,97,0,1,3,15,1,1,1,0,0,0,0,0,1,0,triangle,hexagon,,,,,,,,,,,,,,,,,,,,,,,,,,,,,,,,,,,,,,,,,,,,,,,,,,,,,,
294793,2022-10-03_10h14.27.984,vts_reward_expectancy,2022.2.4,Win32,30.01290555,Chrome,1536,864,,,a,0.7931,1,98,0,1,4,16,0,1,1,0,0,0,0,1,0,0,triangle,circle,,,,,,,,,,,,,,,,,,,,,,,,,,,,,,,,,,,,,,,,,,,,,,,,,,,,,,
294793,2022-10-03_10h14.27.984,vts_reward_expectancy,2022.2.4,Win32,30.01290555,Chrome,1536,864,,,l,0.5787,10,108,0,1,5,17,11,1,0,0,0,1,0,0,1,0,star,hexagon,,,,,,,,,,,,,,,,,,,,,,,,,,,,,,,,,,,,,,,,,,,,,,,,,,,,,,
294793,2022-10-03_10h14.27.984,vts_reward_expectancy,2022.2.4,Win32,30.01290555,Chrome,1536,864,,,a,0.5125,1,109,0,1,6,18,7,1,0,0,1,0,0,1,0,0,hexagon,circle,,,,,,,,,,,,,,,,,,,,,,,,,,,,,,,,,,,,,,,,,,,,,,,,,,,,,,
294793,2022-10-03_10h14.27.984,vts_reward_expectancy,2022.2.4,Win32,30.01290555,Chrome,1536,864,,,l,0.6732,1,110,0,1,7,19,8,1,0,0,1,0,0,0,0,1,hexagon,star,,,,,,,,,,,,,,,,,,,,,,,,,,,,,,,,,,,,,,,,,,,,,,,,,,,,,,
294793,2022-10-03_10h14.27.984,vts_reward_expectancy,2022.2.4,Win32,30.01290555,Chrome,1536,864,,,a,0.6484,1,111,0,1,8,20,2,1,1,0,0,0,0,0,0,1,triangle,star,,,,,,,,,,,,,,,,,,,,,,,,,,,,,,,,,,,,,,,,,,,,,,,,,,,,,,
294793,2022-10-03_10h14.27.984,vts_reward_expectancy,2022.2.4,Win32,30.01290555,Chrome,1536,864,,,a,0.5411,1,112,0,1,9,21,10,1,0,0,0,1,0,1,0,0,star ,circle,,,,,,,,,,,,,,,,,,,,,,,,,,,,,,,,,,,,,,,,,,,,,,,,,,,,,,
294793,2022-10-03_10h14.27.984,vts_reward_expectancy,2022.2.4,Win32,30.01290555,Chrome,1536,864,,,l,0.5476,1,113,0,1,10,22,6,1,0,0,1,0,1,0,0,0,hexagon,triangle,,,,,,,,,,,,,,,,,,,,,,,,,,,,,,,,,,,,,,,,,,,,,,,,,,,,,,
294793,2022-10-03_10h14.27.984,vts_reward_expectancy,2022.2.4,Win32,30.01290555,Chrome,1536,864,,,a,0.6948,10,123,0,1,11,23,5,1,0,1,0,0,0,0,0,1,circle,star,,,,,,,,,,,,,,,,,,,,,,,,,,,,,,,,,,,,,,,,,,,,,,,,,,,,,,
294793,2022-10-03_10h14.27.984,vts_reward_expectancy,2022.2.4,Win32,30.01290555,Chrome,1536,864,,,a,1.0967,1,124,0,2,0,24,11,1,0,0,0,1,0,0,1,0,star,hexagon,,,,,,,,,,,,,,,,,,,,,,,,,,,,,,,,,,,,,,,,,,,,,,,,,,,,,,
294793,2022-10-03_10h14.27.984,vts_reward_expectancy,2022.2.4,Win32,30.01290555,Chrome,1536,864,,,a,0.7405,1,125,0,2,1,25,1,1,1,0,0,0,0,0,1,0,triangle,hexagon,,,,,,,,,,,,,,,,,,,,,,,,,,,,,,,,,,,,,,,,,,,,,,,,,,,,,,
294793,2022-10-03_10h14.27.984,vts_reward_expectancy,2022.2.4,Win32,30.01290555,Chrome,1536,864,,,l,0.68,10,135,0,2,2,26,10,1,0,0,0,1,0,1,0,0,star ,circle,,,,,,,,,,,,,,,,,,,,,,,,,,,,,,,,,,,,,,,,,,,,,,,,,,,,,,
294793,2022-10-03_10h14.27.984,vts_reward_expectancy,2022.2.4,Win32,30.01290555,Chrome,1536,864,,,a,0.5704,1,136,0,2,3,27,2,1,1,0,0,0,0,0,0,1,triangle,star,,,,,,,,,,,,,,,,,,,,,,,,,,,,,,,,,,,,,,,,,,,,,,,,,,,,,,
294793,2022-10-03_10h14.27.984,vts_reward_expectancy,2022.2.4,Win32,30.01290555,Chrome,1536,864,,,l,0.645,10,146,0,2,4,28,3,1,0,1,0,0,1,0,0,0,circle,triangle,,,,,,,,,,,,,,,,,,,,,,,,,,,,,,,,,,,,,,,,,,,,,,,,,,,,,,
294793,2022-10-03_10h14.27.984,vts_reward_expectancy,2022.2.4,Win32,30.01290555,Chrome,1536,864,,,a,1.9363,10,156,0,2,5,29,4,1,0,1,0,0,0,0,1,0,circle,hexagon,,,,,,,,,,,,,,,,,,,,,,,,,,,,,,,,,,,,,,,,,,,,,,,,,,,,,,
294793,2022-10-03_10h14.27.984,vts_reward_expectancy,2022.2.4,Win32,30.01290555,Chrome,1536,864,,,l,0.5919,1,157,0,2,6,30,8,1,0,0,1,0,0,0,0,1,hexagon,star,,,,,,,,,,,,,,,,,,,,,,,,,,,,,,,,,,,,,,,,,,,,,,,,,,,,,,
294793,2022-10-03_10h14.27.984,vts_reward_expectancy,2022.2.4,Win32,30.01290555,Chrome,1536,864,,,l,1.023,1,158,0,2,7,31,6,1,0,0,1,0,1,0,0,0,hexagon,triangle,,,,,,,,,,,,,,,,,,,,,,,,,,,,,,,,,,,,,,,,,,,,,,,,,,,,,,
294793,2022-10-03_10h14.27.984,vts_reward_expectancy,2022.2.4,Win32,30.01290555,Chrome,1536,864,,,l,0.8003,1,159,0,2,8,32,5,1,0,1,0,0,0,0,0,1,circle,star,,,,,,,,,,,,,,,,,,,,,,,,,,,,,,,,,,,,,,,,,,,,,,,,,,,,,,
294793,2022-10-03_10h14.27.984,vts_reward_expectancy,2022.2.4,Win32,30.01290555,Chrome,1536,864,,,l,0.8365,1,160,0,2,9,33,9,1,0,0,0,1,1,0,0,0,star,triangle,,,,,,,,,,,,,,,,,,,,,,,,,,,,,,,,,,,,,,,,,,,,,,,,,,,,,,
294793,2022-10-03_10h14.27.984,vts_reward_expectancy,2022.2.4,Win32,30.01290555,Chrome,1536,864,,,l,0.619,10,170,0,2,10,34,7,1,0,0,1,0,0,1,0,0,hexagon,circle,,,,,,,,,,,,,,,,,,,,,,,,,,,,,,,,,,,,,,,,,,,,,,,,,,,,,,
294793,2022-10-03_10h14.27.984,vts_reward_expectancy,2022.2.4,Win32,30.01290555,Chrome,1536,864,,,a,0.3956,1,171,0,2,11,35,0,1,1,0,0,0,0,1,0,0,triangle,circle,,,,,,,,,,,,,,,,,,,,,,,,,,,,,,,,,,,,,,,,,,,,,,,,,,,,,,
294793,2022-10-03_10h14.27.984,vts_reward_expectancy,2022.2.4,Win32,30.01290555,Chrome,1536,864,,,a,1.2713,1,172,1,0,0,0,2,1,1,0,0,0,0,0,0,1,triangle,star,,,,,,,,,,,,,,,,,,,,,,,,,,,,,,,,,,,,,,,,,,,,,,,,,,,,,,
294793,2022-10-03_10h14.27.984,vts_reward_expectancy,2022.2.4,Win32,30.01290555,Chrome,1536,864,,,l,0.5067,10,182,1,0,1,1,10,1,0,0,0,1,0,1,0,0,star ,circle,,,,,,,,,,,,,,,,,,,,,,,,,,,,,,,,,,,,,,,,,,,,,,,,,,,,,,
294793,2022-10-03_10h14.27.984,vts_reward_expectancy,2022.2.4,Win32,30.01290555,Chrome,1536,864,,,l,0.8757,1,183,1,0,2,2,1,1,1,0,0,0,0,0,1,0,triangle,hexagon,,,,,,,,,,,,,,,,,,,,,,,,,,,,,,,,,,,,,,,,,,,,,,,,,,,,,,
294793,2022-10-03_10h14.27.984,vts_reward_expectancy,2022.2.4,Win32,30.01290555,Chrome,1536,864,,,a,0.4886,10,193,1,0,3,3,0,1,1,0,0,0,0,1,0,0,triangle,circle,,,,,,,,,,,,,,,,,,,,,,,,,,,,,,,,,,,,,,,,,,,,,,,,,,,,,,
294793,2022-10-03_10h14.27.984,vts_reward_expectancy,2022.2.4,Win32,30.01290555,Chrome,1536,864,,,a,0.5218,1,194,1,0,4,4,9,1,0,0,0,1,1,0,0,0,star,triangle,,,,,,,,,,,,,,,,,,,,,,,,,,,,,,,,,,,,,,,,,,,,,,,,,,,,,,
294793,2022-10-03_10h14.27.984,vts_reward_expectancy,2022.2.4,Win32,30.01290555,Chrome,1536,864,,,l,0.3708,1,195,1,0,5,5,8,1,0,0,1,0,0,0,0,1,hexagon,star,,,,,,,,,,,,,,,,,,,,,,,,,,,,,,,,,,,,,,,,,,,,,,,,,,,,,,
294793,2022-10-03_10h14.27.984,vts_reward_expectancy,2022.2.4,Win32,30.01290555,Chrome,1536,864,,,a,0.484,10,205,1,0,6,6,7,1,0,0,1,0,0,1,0,0,hexagon,circle,,,,,,,,,,,,,,,,,,,,,,,,,,,,,,,,,,,,,,,,,,,,,,,,,,,,,,
294793,2022-10-03_10h14.27.984,vts_reward_expectancy,2022.2.4,Win32,30.01290555,Chrome,1536,864,,,a,0.5291,10,215,1,0,7,7,4,1,0,1,0,0,0,0,1,0,circle,hexagon,,,,,,,,,,,,,,,,,,,,,,,,,,,,,,,,,,,,,,,,,,,,,,,,,,,,,,
294793,2022-10-03_10h14.27.984,vts_reward_expectancy,2022.2.4,Win32,30.01290555,Chrome,1536,864,,,a,0.6691,10,225,1,0,8,8,6,1,0,0,1,0,1,0,0,0,hexagon,triangle,,,,,,,,,,,,,,,,,,,,,,,,,,,,,,,,,,,,,,,,,,,,,,,,,,,,,,
294793,2022-10-03_10h14.27.984,vts_reward_expectancy,2022.2.4,Win32,30.01290555,Chrome,1536,864,,,a,1.6777,10,235,1,0,9,9,3,1,0,1,0,0,1,0,0,0,circle,triangle,,,,,,,,,,,,,,,,,,,,,,,,,,,,,,,,,,,,,,,,,,,,,,,,,,,,,,
294793,2022-10-03_10h14.27.984,vts_reward_expectancy,2022.2.4,Win32,30.01290555,Chrome,1536,864,,,l,1.1711,1,236,1,0,10,10,5,1,0,1,0,0,0,0,0,1,circle,star,,,,,,,,,,,,,,,,,,,,,,,,,,,,,,,,,,,,,,,,,,,,,,,,,,,,,,
294793,2022-10-03_10h14.27.984,vts_reward_expectancy,2022.2.4,Win32,30.01290555,Chrome,1536,864,,,a,0.5001,10,246,1,0,11,11,11,1,0,0,0,1,0,0,1,0,star,hexagon,,,,,,,,,,,,,,,,,,,,,,,,,,,,,,,,,,,,,,,,,,,,,,,,,,,,,,
294793,2022-10-03_10h14.27.984,vts_reward_expectancy,2022.2.4,Win32,30.01290555,Chrome,1536,864,,,a,0.8316,10,256,1,1,0,12,1,1,1,0,0,0,0,0,1,0,triangle,hexagon,,,,,,,,,,,,,,,,,,,,,,,,,,,,,,,,,,,,,,,,,,,,,,,,,,,,,,
294793,2022-10-03_10h14.27.984,vts_reward_expectancy,2022.2.4,Win32,30.01290555,Chrome,1536,864,,,a,0.6997,1,257,1,1,1,13,9,1,0,0,0,1,1,0,0,0,star,triangle,,,,,,,,,,,,,,,,,,,,,,,,,,,,,,,,,,,,,,,,,,,,,,,,,,,,,,
294793,2022-10-03_10h14.27.984,vts_reward_expectancy,2022.2.4,Win32,30.01290555,Chrome,1536,864,,,a,0.9377,10,267,1,1,2,14,7,1,0,0,1,0,0,1,0,0,hexagon,circle,,,,,,,,,,,,,,,,,,,,,,,,,,,,,,,,,,,,,,,,,,,,,,,,,,,,,,
294793,2022-10-03_10h14.27.984,vts_reward_expectancy,2022.2.4,Win32,30.01290555,Chrome,1536,864,,,a,1.0866,10,277,1,1,3,15,3,1,0,1,0,0,1,0,0,0,circle,triangle,,,,,,,,,,,,,,,,,,,,,,,,,,,,,,,,,,,,,,,,,,,,,,,,,,,,,,
294793,2022-10-03_10h14.27.984,vts_reward_expectancy,2022.2.4,Win32,30.01290555,Chrome,1536,864,,,l,2.1077,10,287,1,1,4,16,6,1,0,0,1,0,1,0,0,0,hexagon,triangle,,,,,,,,,,,,,,,,,,,,,,,,,,,,,,,,,,,,,,,,,,,,,,,,,,,,,,
294793,2022-10-03_10h14.27.984,vts_reward_expectancy,2022.2.4,Win32,30.01290555,Chrome,1536,864,,,a,1.3196,1,288,1,1,5,17,4,1,0,1,0,0,0,0,1,0,circle,hexagon,,,,,,,,,,,,,,,,,,,,,,,,,,,,,,,,,,,,,,,,,,,,,,,,,,,,,,
294793,2022-10-03_10h14.27.984,vts_reward_expectancy,2022.2.4,Win32,30.01290555,Chrome,1536,864,,,l,0.8325,1,289,1,1,6,18,11,1,0,0,0,1,0,0,1,0,star,hexagon,,,,,,,,,,,,,,,,,,,,,,,,,,,,,,,,,,,,,,,,,,,,,,,,,,,,,,
294793,2022-10-03_10h14.27.984,vts_reward_expectancy,2022.2.4,Win32,30.01290555,Chrome,1536,864,,,l,0.9263,1,290,1,1,7,19,2,1,1,0,0,0,0,0,0,1,triangle,star,,,,,,,,,,,,,,,,,,,,,,,,,,,,,,,,,,,,,,,,,,,,,,,,,,,,,,
294793,2022-10-03_10h14.27.984,vts_reward_expectancy,2022.2.4,Win32,30.01290555,Chrome,1536,864,,,a,0.5506,10,300,1,1,8,20,8,1,0,0,1,0,0,0,0,1,hexagon,star,,,,,,,,,,,,,,,,,,,,,,,,,,,,,,,,,,,,,,,,,,,,,,,,,,,,,,
294793,2022-10-03_10h14.27.984,vts_reward_expectancy,2022.2.4,Win32,30.01290555,Chrome,1536,864,,,a,0.4307,10,310,1,1,9,21,5,1,0,1,0,0,0,0,0,1,circle,star,,,,,,,,,,,,,,,,,,,,,,,,,,,,,,,,,,,,,,,,,,,,,,,,,,,,,,
294793,2022-10-03_10h14.27.984,vts_reward_expectancy,2022.2.4,Win32,30.01290555,Chrome,1536,864,,,a,0.5314,10,320,1,1,10,22,10,1,0,0,0,1,0,1,0,0,star ,circle,,,,,,,,,,,,,,,,,,,,,,,,,,,,,,,,,,,,,,,,,,,,,,,,,,,,,,
294793,2022-10-03_10h14.27.984,vts_reward_expectancy,2022.2.4,Win32,30.01290555,Chrome,1536,864,,,a,0.7199,1,321,1,1,11,23,0,1,1,0,0,0,0,1,0,0,triangle,circle,,,,,,,,,,,,,,,,,,,,,,,,,,,,,,,,,,,,,,,,,,,,,,,,,,,,,,
294793,2022-10-03_10h14.27.984,vts_reward_expectancy,2022.2.4,Win32,30.01290555,Chrome,1536,864,,,a,0.5711,1,322,1,2,0,24,0,1,1,0,0,0,0,1,0,0,triangle,circle,,,,,,,,,,,,,,,,,,,,,,,,,,,,,,,,,,,,,,,,,,,,,,,,,,,,,,
294793,2022-10-03_10h14.27.984,vts_reward_expectancy,2022.2.4,Win32,30.01290555,Chrome,1536,864,,,l,0.4222,10,332,1,2,1,25,10,1,0,0,0,1,0,1,0,0,star ,circle,,,,,,,,,,,,,,,,,,,,,,,,,,,,,,,,,,,,,,,,,,,,,,,,,,,,,,
294793,2022-10-03_10h14.27.984,vts_reward_expectancy,2022.2.4,Win32,30.01290555,Chrome,1536,864,,,a,0.8222,1,333,1,2,2,26,9,1,0,0,0,1,1,0,0,0,star,triangle,,,,,,,,,,,,,,,,,,,,,,,,,,,,,,,,,,,,,,,,,,,,,,,,,,,,,,
294793,2022-10-03_10h14.27.984,vts_reward_expectancy,2022.2.4,Win32,30.01290555,Chrome,1536,864,,,l,0.4743,10,343,1,2,3,27,4,1,0,1,0,0,0,0,1,0,circle,hexagon,,,,,,,,,,,,,,,,,,,,,,,,,,,,,,,,,,,,,,,,,,,,,,,,,,,,,,
294793,2022-10-03_10h14.27.984,vts_reward_expectancy,2022.2.4,Win32,30.01290555,Chrome,1536,864,,,l,0.6544,1,344,1,2,4,28,2,1,1,0,0,0,0,0,0,1,triangle,star,,,,,,,,,,,,,,,,,,,,,,,,,,,,,,,,,,,,,,,,,,,,,,,,,,,,,,
294793,2022-10-03_10h14.27.984,vts_reward_expectancy,2022.2.4,Win32,30.01290555,Chrome,1536,864,,,a,0.4207,1,345,1,2,5,29,8,1,0,0,1,0,0,0,0,1,hexagon,star,,,,,,,,,,,,,,,,,,,,,,,,,,,,,,,,,,,,,,,,,,,,,,,,,,,,,,
294793,2022-10-03_10h14.27.984,vts_reward_expectancy,2022.2.4,Win32,30.01290555,Chrome,1536,864,,,a,0.4845,10,355,1,2,6,30,5,1,0,1,0,0,0,0,0,1,circle,star,,,,,,,,,,,,,,,,,,,,,,,,,,,,,,,,,,,,,,,,,,,,,,,,,,,,,,
294793,2022-10-03_10h14.27.984,vts_reward_expectancy,2022.2.4,Win32,30.01290555,Chrome,1536,864,,,a,0.4934,1,356,1,2,7,31,6,1,0,0,1,0,1,0,0,0,hexagon,triangle,,,,,,,,,,,,,,,,,,,,,,,,,,,,,,,,,,,,,,,,,,,,,,,,,,,,,,
294793,2022-10-03_10h14.27.984,vts_reward_expectancy,2022.2.4,Win32,30.01290555,Chrome,1536,864,,,l,0.2894,10,366,1,2,8,32,7,1,0,0,1,0,0,1,0,0,hexagon,circle,,,,,,,,,,,,,,,,,,,,,,,,,,,,,,,,,,,,,,,,,,,,,,,,,,,,,,
294793,2022-10-03_10h14.27.984,vts_reward_expectancy,2022.2.4,Win32,30.01290555,Chrome,1536,864,,,a,0.5041,1,367,1,2,9,33,3,1,0,1,0,0,1,0,0,0,circle,triangle,,,,,,,,,,,,,,,,,,,,,,,,,,,,,,,,,,,,,,,,,,,,,,,,,,,,,,
294793,2022-10-03_10h14.27.984,vts_reward_expectancy,2022.2.4,Win32,30.01290555,Chrome,1536,864,,,a,0.5252,1,368,1,2,10,34,11,1,0,0,0,1,0,0,1,0,star,hexagon,,,,,,,,,,,,,,,,,,,,,,,,,,,,,,,,,,,,,,,,,,,,,,,,,,,,,,
294793,2022-10-03_10h14.27.984,vts_reward_expectancy,2022.2.4,Win32,30.01290555,Chrome,1536,864,,,a,0.9733,1,369,1,2,11,35,1,1,1,0,0,0,0,0,1,0,triangle,hexagon,,,,,,,,,,,,,,,,,,,,,,,,,,,,,,,,,,,,,,,,,,,,,,,,,,,,,,
294793,2022-10-03_10h14.27.984,vts_reward_expectancy,2022.2.4,Win32,30.01290555,Chrome,1536,864,,,l,0.7167,10,379,2,0,0,0,0,1,1,0,0,0,0,1,0,0,triangle,circle,,,,,,,,,,,,,,,,,,,,,,,,,,,,,,,,,,,,,,,,,,,,,,,,,,,,,,
294793,2022-10-03_10h14.27.984,vts_reward_expectancy,2022.2.4,Win32,30.01290555,Chrome,1536,864,,,a,4.6189,10,389,2,0,1,1,11,1,0,0,0,1,0,0,1,0,star,hexagon,,,,,,,,,,,,,,,,,,,,,,,,,,,,,,,,,,,,,,,,,,,,,,,,,,,,,,
294793,2022-10-03_10h14.27.984,vts_reward_expectancy,2022.2.4,Win32,30.01290555,Chrome,1536,864,,,l,1.8633,1,390,2,0,2,2,1,1,1,0,0,0,0,0,1,0,triangle,hexagon,,,,,,,,,,,,,,,,,,,,,,,,,,,,,,,,,,,,,,,,,,,,,,,,,,,,,,
294793,2022-10-03_10h14.27.984,vts_reward_expectancy,2022.2.4,Win32,30.01290555,Chrome,1536,864,,,l,1.179,1,391,2,0,3,3,10,1,0,0,0,1,0,1,0,0,star ,circle,,,,,,,,,,,,,,,,,,,,,,,,,,,,,,,,,,,,,,,,,,,,,,,,,,,,,,
294793,2022-10-03_10h14.27.984,vts_reward_expectancy,2022.2.4,Win32,30.01290555,Chrome,1536,864,,,a,1.208,10,401,2,0,4,4,5,1,0,1,0,0,0,0,0,1,circle,star,,,,,,,,,,,,,,,,,,,,,,,,,,,,,,,,,,,,,,,,,,,,,,,,,,,,,,
294793,2022-10-03_10h14.27.984,vts_reward_expectancy,2022.2.4,Win32,30.01290555,Chrome,1536,864,,,a,1.3288,1,402,2,0,5,5,9,1,0,0,0,1,1,0,0,0,star,triangle,,,,,,,,,,,,,,,,,,,,,,,,,,,,,,,,,,,,,,,,,,,,,,,,,,,,,,
294793,2022-10-03_10h14.27.984,vts_reward_expectancy,2022.2.4,Win32,30.01290555,Chrome,1536,864,,,l,0.8267,10,412,2,0,6,6,7,1,0,0,1,0,0,1,0,0,hexagon,circle,,,,,,,,,,,,,,,,,,,,,,,,,,,,,,,,,,,,,,,,,,,,,,,,,,,,,,
294793,2022-10-03_10h14.27.984,vts_reward_expectancy,2022.2.4,Win32,30.01290555,Chrome,1536,864,,,l,0.6,1,413,2,0,7,7,6,1,0,0,1,0,1,0,0,0,hexagon,triangle,,,,,,,,,,,,,,,,,,,,,,,,,,,,,,,,,,,,,,,,,,,,,,,,,,,,,,
294793,2022-10-03_10h14.27.984,vts_reward_expectancy,2022.2.4,Win32,30.01290555,Chrome,1536,864,,,a,0.5939,10,423,2,0,8,8,8,1,0,0,1,0,0,0,0,1,hexagon,star,,,,,,,,,,,,,,,,,,,,,,,,,,,,,,,,,,,,,,,,,,,,,,,,,,,,,,
294793,2022-10-03_10h14.27.984,vts_reward_expectancy,2022.2.4,Win32,30.01290555,Chrome,1536,864,,,a,0.4825,10,433,2,0,9,9,4,1,0,1,0,0,0,0,1,0,circle,hexagon,,,,,,,,,,,,,,,,,,,,,,,,,,,,,,,,,,,,,,,,,,,,,,,,,,,,,,
294793,2022-10-03_10h14.27.984,vts_reward_expectancy,2022.2.4,Win32,30.01290555,Chrome,1536,864,,,a,0.483,10,443,2,0,10,10,3,1,0,1,0,0,1,0,0,0,circle,triangle,,,,,,,,,,,,,,,,,,,,,,,,,,,,,,,,,,,,,,,,,,,,,,,,,,,,,,
294793,2022-10-03_10h14.27.984,vts_reward_expectancy,2022.2.4,Win32,30.01290555,Chrome,1536,864,,,a,1.3931,10,453,2,0,11,11,2,1,1,0,0,0,0,0,0,1,triangle,star,,,,,,,,,,,,,,,,,,,,,,,,,,,,,,,,,,,,,,,,,,,,,,,,,,,,,,
294793,2022-10-03_10h14.27.984,vts_reward_expectancy,2022.2.4,Win32,30.01290555,Chrome,1536,864,,,a,0.5737,10,463,2,1,0,12,3,1,0,1,0,0,1,0,0,0,circle,triangle,,,,,,,,,,,,,,,,,,,,,,,,,,,,,,,,,,,,,,,,,,,,,,,,,,,,,,
294793,2022-10-03_10h14.27.984,vts_reward_expectancy,2022.2.4,Win32,30.01290555,Chrome,1536,864,,,a,0.9336,10,473,2,1,1,13,10,1,0,0,0,1,0,1,0,0,star ,circle,,,,,,,,,,,,,,,,,,,,,,,,,,,,,,,,,,,,,,,,,,,,,,,,,,,,,,
294793,2022-10-03_10h14.27.984,vts_reward_expectancy,2022.2.4,Win32,30.01290555,Chrome,1536,864,,,a,0.6142,10,483,2,1,2,14,8,1,0,0,1,0,0,0,0,1,hexagon,star,,,,,,,,,,,,,,,,,,,,,,,,,,,,,,,,,,,,,,,,,,,,,,,,,,,,,,
294793,2022-10-03_10h14.27.984,vts_reward_expectancy,2022.2.4,Win32,30.01290555,Chrome,1536,864,,,a,0.5597,10,493,2,1,3,15,7,1,0,0,1,0,0,1,0,0,hexagon,circle,,,,,,,,,,,,,,,,,,,,,,,,,,,,,,,,,,,,,,,,,,,,,,,,,,,,,,
294793,2022-10-03_10h14.27.984,vts_reward_expectancy,2022.2.4,Win32,30.01290555,Chrome,1536,864,,,l,0.8081,10,503,2,1,4,16,5,1,0,1,0,0,0,0,0,1,circle,star,,,,,,,,,,,,,,,,,,,,,,,,,,,,,,,,,,,,,,,,,,,,,,,,,,,,,,
294793,2022-10-03_10h14.27.984,vts_reward_expectancy,2022.2.4,Win32,30.01290555,Chrome,1536,864,,,l,0.8729,1,504,2,1,5,17,4,1,0,1,0,0,0,0,1,0,circle,hexagon,,,,,,,,,,,,,,,,,,,,,,,,,,,,,,,,,,,,,,,,,,,,,,,,,,,,,,
294793,2022-10-03_10h14.27.984,vts_reward_expectancy,2022.2.4,Win32,30.01290555,Chrome,1536,864,,,a,0.4078,1,505,2,1,6,18,6,1,0,0,1,0,1,0,0,0,hexagon,triangle,,,,,,,,,,,,,,,,,,,,,,,,,,,,,,,,,,,,,,,,,,,,,,,,,,,,,,
294793,2022-10-03_10h14.27.984,vts_reward_expectancy,2022.2.4,Win32,30.01290555,Chrome,1536,864,,,a,1.347,1,506,2,1,7,19,0,1,1,0,0,0,0,1,0,0,triangle,circle,,,,,,,,,,,,,,,,,,,,,,,,,,,,,,,,,,,,,,,,,,,,,,,,,,,,,,
294793,2022-10-03_10h14.27.984,vts_reward_expectancy,2022.2.4,Win32,30.01290555,Chrome,1536,864,,,a,1.5121,1,507,2,1,8,20,9,1,0,0,0,1,1,0,0,0,star,triangle,,,,,,,,,,,,,,,,,,,,,,,,,,,,,,,,,,,,,,,,,,,,,,,,,,,,,,
294793,2022-10-03_10h14.27.984,vts_reward_expectancy,2022.2.4,Win32,30.01290555,Chrome,1536,864,,,a,1.076,10,517,2,1,9,21,11,1,0,0,0,1,0,0,1,0,star,hexagon,,,,,,,,,,,,,,,,,,,,,,,,,,,,,,,,,,,,,,,,,,,,,,,,,,,,,,
294793,2022-10-03_10h14.27.984,vts_reward_expectancy,2022.2.4,Win32,30.01290555,Chrome,1536,864,,,a,2.3823,10,527,2,1,10,22,2,1,1,0,0,0,0,0,0,1,triangle,star,,,,,,,,,,,,,,,,,,,,,,,,,,,,,,,,,,,,,,,,,,,,,,,,,,,,,,
294793,2022-10-03_10h14.27.984,vts_reward_expectancy,2022.2.4,Win32,30.01290555,Chrome,1536,864,,,l,1.574,10,537,2,1,11,23,1,1,1,0,0,0,0,0,1,0,triangle,hexagon,,,,,,,,,,,,,,,,,,,,,,,,,,,,,,,,,,,,,,,,,,,,,,,,,,,,,,
294793,2022-10-03_10h14.27.984,vts_reward_expectancy,2022.2.4,Win32,30.01290555,Chrome,1536,864,,,a,0.8052,10,547,2,2,0,24,5,1,0,1,0,0,0,0,0,1,circle,star,,,,,,,,,,,,,,,,,,,,,,,,,,,,,,,,,,,,,,,,,,,,,,,,,,,,,,
294793,2022-10-03_10h14.27.984,vts_reward_expectancy,2022.2.4,Win32,30.01290555,Chrome,1536,864,,,a,1.5444,10,557,2,2,1,25,10,1,0,0,0,1,0,1,0,0,star ,circle,,,,,,,,,,,,,,,,,,,,,,,,,,,,,,,,,,,,,,,,,,,,,,,,,,,,,,
294793,2022-10-03_10h14.27.984,vts_reward_expectancy,2022.2.4,Win32,30.01290555,Chrome,1536,864,,,l,1.3543,1,558,2,2,2,26,9,1,0,0,0,1,1,0,0,0,star,triangle,,,,,,,,,,,,,,,,,,,,,,,,,,,,,,,,,,,,,,,,,,,,,,,,,,,,,,
294793,2022-10-03_10h14.27.984,vts_reward_expectancy,2022.2.4,Win32,30.01290555,Chrome,1536,864,,,a,0.8866,1,559,2,2,3,27,11,1,0,0,0,1,0,0,1,0,star,hexagon,,,,,,,,,,,,,,,,,,,,,,,,,,,,,,,,,,,,,,,,,,,,,,,,,,,,,,
294793,2022-10-03_10h14.27.984,vts_reward_expectancy,2022.2.4,Win32,30.01290555,Chrome,1536,864,,,l,1.1885,10,569,2,2,4,28,7,1,0,0,1,0,0,1,0,0,hexagon,circle,,,,,,,,,,,,,,,,,,,,,,,,,,,,,,,,,,,,,,,,,,,,,,,,,,,,,,
294793,2022-10-03_10h14.27.984,vts_reward_expectancy,2022.2.4,Win32,30.01290555,Chrome,1536,864,,,a,1.1115,10,579,2,2,5,29,4,1,0,1,0,0,0,0,1,0,circle,hexagon,,,,,,,,,,,,,,,,,,,,,,,,,,,,,,,,,,,,,,,,,,,,,,,,,,,,,,
294793,2022-10-03_10h14.27.984,vts_reward_expectancy,2022.2.4,Win32,30.01290555,Chrome,1536,864,,,a,0.5096,10,589,2,2,6,30,3,1,0,1,0,0,1,0,0,0,circle,triangle,,,,,,,,,,,,,,,,,,,,,,,,,,,,,,,,,,,,,,,,,,,,,,,,,,,,,,
294793,2022-10-03_10h14.27.984,vts_reward_expectancy,2022.2.4,Win32,30.01290555,Chrome,1536,864,,,a,0.926,10,599,2,2,7,31,8,1,0,0,1,0,0,0,0,1,hexagon,star,,,,,,,,,,,,,,,,,,,,,,,,,,,,,,,,,,,,,,,,,,,,,,,,,,,,,,
294793,2022-10-03_10h14.27.984,vts_reward_expectancy,2022.2.4,Win32,30.01290555,Chrome,1536,864,,,a,0.6894,10,609,2,2,8,32,2,1,1,0,0,0,0,0,0,1,triangle,star,,,,,,,,,,,,,,,,,,,,,,,,,,,,,,,,,,,,,,,,,,,,,,,,,,,,,,
294793,2022-10-03_10h14.27.984,vts_reward_expectancy,2022.2.4,Win32,30.01290555,Chrome,1536,864,,,l,0.671,1,610,2,2,9,33,0,1,1,0,0,0,0,1,0,0,triangle,circle,,,,,,,,,,,,,,,,,,,,,,,,,,,,,,,,,,,,,,,,,,,,,,,,,,,,,,
294793,2022-10-03_10h14.27.984,vts_reward_expectancy,2022.2.4,Win32,30.01290555,Chrome,1536,864,,,a,0.5811,1,611,2,2,10,34,1,1,1,0,0,0,0,0,1,0,triangle,hexagon,,,,,,,,,,,,,,,,,,,,,,,,,,,,,,,,,,,,,,,,,,,,,,,,,,,,,,
294793,2022-10-03_10h14.27.984,vts_reward_expectancy,2022.2.4,Win32,30.01290555,Chrome,1536,864,,,a,1.6769,10,621,2,2,11,35,6,1,0,0,1,0,1,0,0,0,hexagon,triangle,,,,,,,,,,,,,,,,,,,,,,,,,,,,,,,,,,,,,,,,,,,,,,,,,,,,,,
294793,2022-10-03_10h14.27.984,vts_reward_expectancy,2022.2.4,Win32,30.01290555,Chrome,1536,864,,,,,,,,,,,,,,,,,,,,,,,Y,160,circle,0,0,,0,0,0,0,0,1,,,,,,,,,,,,,,,,,,,,,,,,,,,,,,,,,,,,,,,,,,
294793,2022-10-03_10h14.27.984,vts_reward_expectancy,2022.2.4,Win32,30.01290555,Chrome,1536,864,,,,,,,,,,,,,,,,,,,,,,,W,174,star,1,1,f,0,1,0,1,0,1,0.9864,,,,,,,,,,,,,,,,,,,,,,,,,,,,,,,,,,,,,,,,,
294793,2022-10-03_10h14.27.984,vts_reward_expectancy,2022.2.4,Win32,30.01290555,Chrome,1536,864,,,,,,,,,,,,,,,,,,,,,,,F,132,triangle,1,0,d,0,2,0,2,0,1,0.95,,,,,,,,,,,,,,,,,,,,,,,,,,,,,,,,,,,,,,,,,
294793,2022-10-03_10h14.27.984,vts_reward_expectancy,2022.2.4,Win32,30.01290555,Chrome,1536,864,,,,,,,,,,,,,,,,,,,,,,,H,146,hexagon,1,0,d,0,3,0,3,0,1,0.7468,,,,,,,,,,,,,,,,,,,,,,,,,,,,,,,,,,,,,,,,,
294793,2022-10-03_10h14.27.984,vts_reward_expectancy,2022.2.4,Win32,30.01290555,Chrome,1536,864,,,,,,,,,,,,,,,,,,,,,,,B,181,circle,1,0,d,0,4,0,4,0,1,0.756,,,,,,,,,,,,,,,,,,,,,,,,,,,,,,,,,,,,,,,,,
294793,2022-10-03_10h14.27.984,vts_reward_expectancy,2022.2.4,Win32,30.01290555,Chrome,1536,864,,,,,,,,,,,,,,,,,,,,,,,U,125,star,1,0,f,0,5,0,5,0,1,0.9933,,,,,,,,,,,,,,,,,,,,,,,,,,,,,,,,,,,,,,,,,
294793,2022-10-03_10h14.27.984,vts_reward_expectancy,2022.2.4,Win32,30.01290555,Chrome,1536,864,,,,,,,,,,,,,,,,,,,,,,,D,167,triangle,1,0,d,0,6,0,6,0,1,1.1711,,,,,,,,,,,,,,,,,,,,,,,,,,,,,,,,,,,,,,,,,
294793,2022-10-03_10h14.27.984,vts_reward_expectancy,2022.2.4,Win32,30.01290555,Chrome,1536,864,,,,,,,,,,,,,,,,,,,,,,,S,139,hexagon,0,0,d,0,7,0,7,0,1,1.9895,,,,,,,,,,,,,,,,,,,,,,,,,,,,,,,,,,,,,,,,,
294793,2022-10-03_10h14.27.984,vts_reward_expectancy,2022.2.4,Win32,30.01290555,Chrome,1536,864,,,,,,,,,,,,,,,,,,,,,,,Y,160,circle,1,1,f,0,8,0,8,0,1,0.9169,,,,,,,,,,,,,,,,,,,,,,,,,,,,,,,,,,,,,,,,,
294793,2022-10-03_10h14.27.984,vts_reward_expectancy,2022.2.4,Win32,30.01290555,Chrome,1536,864,,,,,,,,,,,,,,,,,,,,,,,W,174,hexagon,1,0,f,0,9,0,9,0,1,0.7256,,,,,,,,,,,,,,,,,,,,,,,,,,,,,,,,,,,,,,,,,
294793,2022-10-03_10h14.27.984,vts_reward_expectancy,2022.2.4,Win32,30.01290555,Chrome,1536,864,,,,,,,,,,,,,,,,,,,,,,,F,181,circle,1,0,d,1,0,0,0,0,1,1.9654,,,,,,,,,,,,,,,,,,,,,,,,,,,,,,,,,,,,,,,,,
294793,2022-10-03_10h14.27.984,vts_reward_expectancy,2022.2.4,Win32,30.01290555,Chrome,1536,864,,,,,,,,,,,,,,,,,,,,,,,W,167,hexagon,1,0,f,1,1,0,1,0,1,0.9054,,,,,,,,,,,,,,,,,,,,,,,,,,,,,,,,,,,,,,,,,
294793,2022-10-03_10h14.27.984,vts_reward_expectancy,2022.2.4,Win32,30.01290555,Chrome,1536,864,,,,,,,,,,,,,,,,,,,,,,,H,132,triangle,1,0,d,1,2,0,2,0,1,0.6493,,,,,,,,,,,,,,,,,,,,,,,,,,,,,,,,,,,,,,,,,
294793,2022-10-03_10h14.27.984,vts_reward_expectancy,2022.2.4,Win32,30.01290555,Chrome,1536,864,,,,,,,,,,,,,,,,,,,,,,,B,125,star,1,0,d,1,3,0,3,0,1,0.8158,,,,,,,,,,,,,,,,,,,,,,,,,,,,,,,,,,,,,,,,,
294793,2022-10-03_10h14.27.984,vts_reward_expectancy,2022.2.4,Win32,30.01290555,Chrome,1536,864,,,,,,,,,,,,,,,,,,,,,,,S,139,circle,1,0,f,1,4,0,4,0,1,1.0051,,,,,,,,,,,,,,,,,,,,,,,,,,,,,,,,,,,,,,,,,
294793,2022-10-03_10h14.27.984,vts_reward_expectancy,2022.2.4,Win32,30.01290555,Chrome,1536,864,,,,,,,,,,,,,,,,,,,,,,,Y,160,hexagon,1,0,f,1,5,0,5,0,1,0.5514,,,,,,,,,,,,,,,,,,,,,,,,,,,,,,,,,,,,,,,,,
294793,2022-10-03_10h14.27.984,vts_reward_expectancy,2022.2.4,Win32,30.01290555,Chrome,1536,864,,,,,,,,,,,,,,,,,,,,,,,U,146,triangle,1,0,f,1,6,0,6,0,1,0.6784,,,,,,,,,,,,,,,,,,,,,,,,,,,,,,,,,,,,,,,,,
294793,2022-10-03_10h14.27.984,vts_reward_expectancy,2022.2.4,Win32,30.01290555,Chrome,1536,864,,,,,,,,,,,,,,,,,,,,,,,D,174,star,0,0,f,1,7,0,7,0,1,0.642,,,,,,,,,,,,,,,,,,,,,,,,,,,,,,,,,,,,,,,,,
294793,2022-10-03_10h14.27.984,vts_reward_expectancy,2022.2.4,Win32,30.01290555,Chrome,1536,864,,,,,,,,,,,,,,,,,,,,,,,F,181,triangle,1,1,d,1,8,0,8,0,1,0.8346,,,,,,,,,,,,,,,,,,,,,,,,,,,,,,,,,,,,,,,,,
294793,2022-10-03_10h14.27.984,vts_reward_expectancy,2022.2.4,Win32,30.01290555,Chrome,1536,864,,,,,,,,,,,,,,,,,,,,,,,W,167,circle,1,0,f,1,9,0,9,0,1,0.7388,,,,,,,,,,,,,,,,,,,,,,,,,,,,,,,,,,,,,,,,,
294793,2022-10-03_10h14.27.984,vts_reward_expectancy,2022.2.4,Win32,30.01290555,Chrome,1536,864,,,,,,,,,,,,,,,,,,,,,,,Y,181,star,1,0,,2,,,,,,,k,1.7917,0,0,0,0,1,,,,,,,,,,,,,,,,,,,,,,,,,,,,,,,,,,
294793,2022-10-03_10h14.27.984,vts_reward_expectancy,2022.2.4,Win32,30.01290555,Chrome,1536,864,,,,,,,,,,,,,,,,,,,,,,,F,146,circle,0,0,,2,,,,,,,k,1.27,1,0,1,0,1,,,,,,,,,,,,,,,,,,,,,,,,,,,,,,,,,,
294793,2022-10-03_10h14.27.984,vts_reward_expectancy,2022.2.4,Win32,30.01290555,Chrome,1536,864,,,,,,,,,,,,,,,,,,,,,,,S,132,hexagon,1,1,,2,,,,,,,j,0.5891,2,0,2,0,1,,,,,,,,,,,,,,,,,,,,,,,,,,,,,,,,,,
294793,2022-10-03_10h14.27.984,vts_reward_expectancy,2022.2.4,Win32,30.01290555,Chrome,1536,864,,,,,,,,,,,,,,,,,,,,,,,U,167,triangle,1,0,,2,,,,,,,k,0.8891,3,0,3,0,1,,,,,,,,,,,,,,,,,,,,,,,,,,,,,,,,,,
294793,2022-10-03_10h14.27.984,vts_reward_expectancy,2022.2.4,Win32,30.01290555,Chrome,1536,864,,,,,,,,,,,,,,,,,,,,,,,B,160,star,1,0,,2,,,,,,,k,1.9152,4,0,4,0,1,,,,,,,,,,,,,,,,,,,,,,,,,,,,,,,,,,
294793,2022-10-03_10h14.27.984,vts_reward_expectancy,2022.2.4,Win32,30.01290555,Chrome,1536,864,,,,,,,,,,,,,,,,,,,,,,,D,139,circle,1,0,,2,,,,,,,j,0.6691,5,0,5,0,1,,,,,,,,,,,,,,,,,,,,,,,,,,,,,,,,,,
294793,2022-10-03_10h14.27.984,vts_reward_expectancy,2022.2.4,Win32,30.01290555,Chrome,1536,864,,,,,,,,,,,,,,,,,,,,,,,W,174,hexagon,1,0,,2,,,,,,,k,0.6078,6,0,6,0,1,,,,,,,,,,,,,,,,,,,,,,,,,,,,,,,,,,
294793,2022-10-03_10h14.27.984,vts_reward_expectancy,2022.2.4,Win32,30.01290555,Chrome,1536,864,,,,,,,,,,,,,,,,,,,,,,,H,125,triangle,1,0,,2,,,,,,,j,1.5901,7,0,7,0,1,,,,,,,,,,,,,,,,,,,,,,,,,,,,,,,,,,
294793,2022-10-03_10h14.27.984,vts_reward_expectancy,2022.2.4,Win32,30.01290555,Chrome,1536,864,,,,,,,,,,,,,,,,,,,,,,,Y,181,star,1,0,,2,,,,,,,k,0.8553,8,0,8,0,1,,,,,,,,,,,,,,,,,,,,,,,,,,,,,,,,,,
294793,2022-10-03_10h14.27.984,vts_reward_expectancy,2022.2.4,Win32,30.01290555,Chrome,1536,864,,,,,,,,,,,,,,,,,,,,,,,F,146,circle,1,0,,2,,,,,,,j,0.6848,9,0,9,0,1,,,,,,,,,,,,,,,,,,,,,,,,,,,,,,,,,,
294793,2022-10-03_10h14.27.984,vts_reward_expectancy,2022.2.4,Win32,30.01290555,Chrome,1536,864,,,,,0,621,,,,,,,,,,,,,,,,,W,146,triangle,1,0,,3,,,,,,,,,,,,,,-1,letter,NA,f,2.4553,vtsPrac,0,0,0,0,1,,,,,,,,,,,,,,,,,,,,,,,
294793,2022-10-03_10h14.27.984,vts_reward_expectancy,2022.2.4,Win32,30.01290555,Chrome,1536,864,,,,,0,621,,,,,,,,,,,,,,,,,U,132,circle,1,0,,3,,,,,,,,,,,,,,repeat,letter,lettRpt,f,0.8365,vtsPrac,1,0,1,0,1,,,,,,,,,,,,,,,,,,,,,,,
294793,2022-10-03_10h14.27.984,vts_reward_expectancy,2022.2.4,Win32,30.01290555,Chrome,1536,864,,,,,0,621,,,,,,,,,,,,,,,,,F,174,triangle,1,0,,3,,,,,,,,,,,,,,repeat,letter,lettRpt,d,1.9103,vtsPrac,2,0,2,0,1,,,,,,,,,,,,,,,,,,,,,,,
294793,2022-10-03_10h14.27.984,vts_reward_expectancy,2022.2.4,Win32,30.01290555,Chrome,1536,864,,,,,0,621,,,,,,,,,,,,,,,,,S,125,circle,1,0,,3,,,,,,,,,,,,,,switch,number,numSwt,j,1.1658,vtsPrac,3,0,3,0,1,,,,,,,,,,,,,,,,,,,,,,,
294793,2022-10-03_10h14.27.984,vts_reward_expectancy,2022.2.4,Win32,30.01290555,Chrome,1536,864,,,,,0,621,,,,,,,,,,,,,,,,,W,146,hexagon,1,0,,3,,,,,,,,,,,,,,switch,letter,lettSwt,f,0.8917,vtsPrac,4,0,4,0,1,,,,,,,,,,,,,,,,,,,,,,,
294793,2022-10-03_10h14.27.984,vts_reward_expectancy,2022.2.4,Win32,30.01290555,Chrome,1536,864,,,,,0,621,,,,,,,,,,,,,,,,,U,132,triangle,1,0,,3,,,,,,,,,,,,,,switch,number,numSwt,j,0.6425,vtsPrac,5,0,5,0,1,,,,,,,,,,,,,,,,,,,,,,,
294793,2022-10-03_10h14.27.984,vts_reward_expectancy,2022.2.4,Win32,30.01290555,Chrome,1536,864,,,,,0,621,,,,,,,,,,,,,,,,,F,174,triangle,1,0,,3,,,,,,,,,,,,,,repeat,number,numRpt,k,0.8017,vtsPrac,6,0,6,0,1,,,,,,,,,,,,,,,,,,,,,,,
294793,2022-10-03_10h14.27.984,vts_reward_expectancy,2022.2.4,Win32,30.01290555,Chrome,1536,864,,,,,0,621,,,,,,,,,,,,,,,,,S,125,circle,1,0,,3,,,,,,,,,,,,,,repeat,number,numRpt,j,0.738,vtsPrac,7,0,7,0,1,,,,,,,,,,,,,,,,,,,,,,,
294793,2022-10-03_10h14.27.984,vts_reward_expectancy,2022.2.4,Win32,30.01290555,Chrome,1536,864,,,,,0,621,,,,,,,,,,,,,,,,,U,174,star,1,0,,3,,,,,,,,,,,,,,repeat,number,numRpt,k,0.8709,vtsPrac,8,0,8,0,1,,,,,,,,,,,,,,,,,,,,,,,
294793,2022-10-03_10h14.27.984,vts_reward_expectancy,2022.2.4,Win32,30.01290555,Chrome,1536,864,,,,,0,621,,,,,,,,,,,,,,,,,W,181,circle,1,0,,3,,,,,,,,,,,,,,repeat,number,numRpt,k,0.6658,vtsPrac,9,0,9,0,1,,,,,,,,,,,,,,,,,,,,,,,
294793,2022-10-03_10h14.27.984,vts_reward_expectancy,2022.2.4,Win32,30.01290555,Chrome,1536,864,,,,,0,621,,,,,,,,,,,,,,,,,B,125,triangle,1,0,,3,,,,,,,,,,,,,,repeat,number,numRpt,j,0.8324,vtsPrac,10,0,10,0,1,,,,,,,,,,,,,,,,,,,,,,,
294793,2022-10-03_10h14.27.984,vts_reward_expectancy,2022.2.4,Win32,30.01290555,Chrome,1536,864,,,,,0,621,,,,,,,,,,,,,,,,,F,160,hexagon,1,0,,3,,,,,,,,,,,,,,switch,letter,lettSwt,d,0.7831,vtsPrac,11,0,11,0,1,,,,,,,,,,,,,,,,,,,,,,,
294793,2022-10-03_10h14.27.984,vts_reward_expectancy,2022.2.4,Win32,30.01290555,Chrome,1536,864,,,,,0,621,,,,,,,,,,,,,,,,,U,125,star,1,0,,3,,,,,,,,,,,,,,switch,number,numSwt,j,0.7216,vtsPrac,12,0,12,0,1,,,,,,,,,,,,,,,,,,,,,,,
294793,2022-10-03_10h14.27.984,vts_reward_expectancy,2022.2.4,Win32,30.01290555,Chrome,1536,864,,,,,0,621,,,,,,,,,,,,,,,,,B,160,triangle,1,0,,3,,,,,,,,,,,,,,switch,letter,lettSwt,d,1.1054,vtsPrac,13,0,13,0,1,,,,,,,,,,,,,,,,,,,,,,,
294793,2022-10-03_10h14.27.984,vts_reward_expectancy,2022.2.4,Win32,30.01290555,Chrome,1536,864,,,,,0,621,,,,,,,,,,,,,,,,,S,167,triangle,1,0,,3,,,,,,,,,,,,,,switch,number,numSwt,k,2.0768,vtsPrac,14,0,14,0,1,,,,,,,,,,,,,,,,,,,,,,,
294793,2022-10-03_10h14.27.984,vts_reward_expectancy,2022.2.4,Win32,30.01290555,Chrome,1536,864,,,,,0,621,,,,,,,,,,,,,,,,,F,132,star,1,0,,3,,,,,,,,,,,,,,switch,letter,lettSwt,d,0.6449,vtsPrac,15,0,15,0,1,,,,,,,,,,,,,,,,,,,,,,,
294793,2022-10-03_10h14.27.984,vts_reward_expectancy,2022.2.4,Win32,30.01290555,Chrome,1536,864,,,,,,,,,,,,,,,,,,,,,,,,,,,,,,,,,,,,,,,,,,,,,,,,,,,,,,,,,,,,,,,,,,,,,,,,,,,,
294793,2022-10-03_10h14.27.984,vts_reward_expectancy,2022.2.4,Win32,30.01290555,Chrome,1536,864,,,,,,,,,,,,,,,,,,,,,,,,,,,,,,,,,,,,,,,,,,,,,,,,,,,,,,,,,,,,,,,,,,,,,,,,,,,,
294793,2022-10-03_10h14.27.984,vts_reward_expectancy,2022.2.4,Win32,30.01290555,Chrome,1536,864,,,,,0,621,,,,,,,,,,,,,,,,,B,139,triangle,1,0,,,,,,,,,,,,,,,,switch,number,numSwt,j,0.8158,noRew,,,,,,0,0,0,0,0,1,,,,,,,,,,,,,,,,,
294793,2022-10-03_10h14.27.984,vts_reward_expectancy,2022.2.4,Win32,30.01290555,Chrome,1536,864,,,,,0,621,,,,,,,,,,,,,,,,,S,174,hexagon,1,0,,,,,,,,,,,,,,,,repeat,number,numRpt,k,0.7833,noRew,,,,,,0,1,0,1,0,1,,,,,,,,,,,,,,,,,
294793,2022-10-03_10h14.27.984,vts_reward_expectancy,2022.2.4,Win32,30.01290555,Chrome,1536,864,,,,,0,621,,,,,,,,,,,,,,,,,Y,125,triangle,1,0,,,,,,,,,,,,,,,,switch,letter,lettSwt,f,0.7351,noRew,,,,,,0,2,0,2,0,1,,,,,,,,,,,,,,,,,
294793,2022-10-03_10h14.27.984,vts_reward_expectancy,2022.2.4,Win32,30.01290555,Chrome,1536,864,,,,,0,621,,,,,,,,,,,,,,,,,W,167,hexagon,1,0,,,,,,,,,,,,,,,,repeat,letter,lettRpt,f,1.1277,noRew,,,,,,0,3,0,3,0,1,,,,,,,,,,,,,,,,,
294793,2022-10-03_10h14.27.984,vts_reward_expectancy,2022.2.4,Win32,30.01290555,Chrome,1536,864,,,,,0,621,,,,,,,,,,,,,,,,,B,139,triangle,1,0,,,,,,,,,,,,,,,,repeat,letter,lettRpt,d,0.6348,noRew,,,,,,0,4,0,4,0,1,,,,,,,,,,,,,,,,,
294793,2022-10-03_10h14.27.984,vts_reward_expectancy,2022.2.4,Win32,30.01290555,Chrome,1536,864,,,,,0,621,,,,,,,,,,,,,,,,,S,174,star,1,0,,,,,,,,,,,,,,,,switch,number,numSwt,k,1.6914,noRew,,,,,,0,5,0,5,0,1,,,,,,,,,,,,,,,,,
294793,2022-10-03_10h14.27.984,vts_reward_expectancy,2022.2.4,Win32,30.01290555,Chrome,1536,864,,,,,0,621,,,,,,,,,,,,,,,,,Y,125,circle,1,0,,,,,,,,,,,,,,,,repeat,number,numRpt,j,1.0441,noRew,,,,,,0,6,0,6,0,1,,,,,,,,,,,,,,,,,
294793,2022-10-03_10h14.27.984,vts_reward_expectancy,2022.2.4,Win32,30.01290555,Chrome,1536,864,,,,,0,621,,,,,,,,,,,,,,,,,W,167,triangle,1,0,,,,,,,,,,,,,,,,repeat,number,numRpt,k,0.5125,noRew,,,,,,0,7,0,7,0,1,,,,,,,,,,,,,,,,,
294793,2022-10-03_10h14.27.984,vts_reward_expectancy,2022.2.4,Win32,30.01290555,Chrome,1536,864,,,,,0,621,,,,,,,,,,,,,,,,,S,146,star,1,0,,,,,,,,,,,,,,,,repeat,number,numRpt,j,1.3319,noRew,,,,,,0,8,0,8,0,1,,,,,,,,,,,,,,,,,
294793,2022-10-03_10h14.27.984,vts_reward_expectancy,2022.2.4,Win32,30.01290555,Chrome,1536,864,,,,,0,621,,,,,,,,,,,,,,,,,W,139,circle,1,0,,,,,,,,,,,,,,,,switch,letter,lettSwt,f,0.9402,noRew,,,,,,0,9,0,9,0,1,,,,,,,,,,,,,,,,,
294793,2022-10-03_10h14.27.984,vts_reward_expectancy,2022.2.4,Win32,30.01290555,Chrome,1536,864,,,,,0,621,,,,,,,,,,,,,,,,,U,167,star,1,0,,,,,,,,,,,,,,,,switch,number,numSwt,k,0.7161,noRew,,,,,,0,10,0,10,0,1,,,,,,,,,,,,,,,,,
294793,2022-10-03_10h14.27.984,vts_reward_expectancy,2022.2.4,Win32,30.01290555,Chrome,1536,864,,,,,0,621,,,,,,,,,,,,,,,,,H,174,triangle,1,0,,,,,,,,,,,,,,,,repeat,number,numRpt,k,0.799,noRew,,,,,,0,11,0,11,0,1,,,,,,,,,,,,,,,,,
294793,2022-10-03_10h14.27.984,vts_reward_expectancy,2022.2.4,Win32,30.01290555,Chrome,1536,864,,,,,0,621,,,,,,,,,,,,,,,,,D,160,triangle,1,0,,,,,,,,,,,,,,,,switch,letter,lettSwt,d,0.9755,noRew,,,,,,0,12,0,12,0,1,,,,,,,,,,,,,,,,,
294793,2022-10-03_10h14.27.984,vts_reward_expectancy,2022.2.4,Win32,30.01290555,Chrome,1536,864,,,,,0,621,,,,,,,,,,,,,,,,,Y,125,hexagon,1,0,,,,,,,,,,,,,,,,repeat,letter,lettRpt,f,0.5664,noRew,,,,,,0,13,0,13,0,1,,,,,,,,,,,,,,,,,
294793,2022-10-03_10h14.27.984,vts_reward_expectancy,2022.2.4,Win32,30.01290555,Chrome,1536,864,,,,,0,621,,,,,,,,,,,,,,,,,S,181,circle,1,0,,,,,,,,,,,,,,,,switch,number,numSwt,k,0.5665,noRew,,,,,,0,14,0,14,0,1,,,,,,,,,,,,,,,,,
294793,2022-10-03_10h14.27.984,vts_reward_expectancy,2022.2.4,Win32,30.01290555,Chrome,1536,864,,,,,0,621,,,,,,,,,,,,,,,,,F,167,triangle,1,0,,,,,,,,,,,,,,,,switch,letter,lettSwt,d,0.7825,noRew,,,,,,0,15,0,15,0,1,,,,,,,,,,,,,,,,,
294793,2022-10-03_10h14.27.984,vts_reward_expectancy,2022.2.4,Win32,30.01290555,Chrome,1536,864,,,,,0,621,,,,,,,,,,,,,,,,,S,132,hexagon,1,0,,,,,,,,,,,,,,,,repeat,letter,lettRpt,f,0.803,noRew,,,,,,0,16,0,16,0,1,,,,,,,,,,,,,,,,,
294793,2022-10-03_10h14.27.984,vts_reward_expectancy,2022.2.4,Win32,30.01290555,Chrome,1536,864,,,,,0,621,,,,,,,,,,,,,,,,,H,181,star,1,0,,,,,,,,,,,,,,,,repeat,letter,lettRpt,d,0.7047,noRew,,,,,,0,17,0,17,0,1,,,,,,,,,,,,,,,,,
294793,2022-10-03_10h14.27.984,vts_reward_expectancy,2022.2.4,Win32,30.01290555,Chrome,1536,864,,,,,0,621,,,,,,,,,,,,,,,,,D,139,star,1,0,,,,,,,,,,,,,,,,switch,number,numSwt,j,0.6724,noRew,,,,,,0,18,0,18,0,1,,,,,,,,,,,,,,,,,
294793,2022-10-03_10h14.27.984,vts_reward_expectancy,2022.2.4,Win32,30.01290555,Chrome,1536,864,,,,,0,621,,,,,,,,,,,,,,,,,W,167,circle,1,0,,,,,,,,,,,,,,,,repeat,number,numRpt,k,0.6167,noRew,,,,,,0,19,0,19,0,1,,,,,,,,,,,,,,,,,
294793,2022-10-03_10h14.27.984,vts_reward_expectancy,2022.2.4,Win32,30.01290555,Chrome,1536,864,,,,,0,621,,,,,,,,,,,,,,,,,F,132,star,1,0,,,,,,,,,,,,,,,,switch,letter,lettSwt,d,0.5667,noRew,,,,,,0,20,0,20,0,1,,,,,,,,,,,,,,,,,
294793,2022-10-03_10h14.27.984,vts_reward_expectancy,2022.2.4,Win32,30.01290555,Chrome,1536,864,,,,,0,621,,,,,,,,,,,,,,,,,S,139,hexagon,1,0,,,,,,,,,,,,,,,,repeat,letter,lettRpt,f,0.849,noRew,,,,,,0,21,0,21,0,1,,,,,,,,,,,,,,,,,
294793,2022-10-03_10h14.27.984,vts_reward_expectancy,2022.2.4,Win32,30.01290555,Chrome,1536,864,,,,,0,621,,,,,,,,,,,,,,,,,B,125,star,1,0,,,,,,,,,,,,,,,,repeat,letter,lettRpt,d,0.5451,noRew,,,,,,0,22,0,22,0,1,,,,,,,,,,,,,,,,,
294793,2022-10-03_10h14.27.984,vts_reward_expectancy,2022.2.4,Win32,30.01290555,Chrome,1536,864,,,,,0,621,,,,,,,,,,,,,,,,,H,181,hexagon,1,0,,,,,,,,,,,,,,,,repeat,letter,lettRpt,d,0.5331,noRew,,,,,,0,23,0,23,0,1,,,,,,,,,,,,,,,,,
294793,2022-10-03_10h14.27.984,vts_reward_expectancy,2022.2.4,Win32,30.01290555,Chrome,1536,864,,,,,0,621,,,,,,,,,,,,,,,,,D,167,star,1,0,,,,,,,,,,,,,,,,switch,number,numSwt,k,0.9118,noRew,,,,,,0,24,0,24,0,1,,,,,,,,,,,,,,,,,
294793,2022-10-03_10h14.27.984,vts_reward_expectancy,2022.2.4,Win32,30.01290555,Chrome,1536,864,,,,,0,621,,,,,,,,,,,,,,,,,W,146,circle,1,0,,,,,,,,,,,,,,,,switch,letter,lettSwt,f,0.6167,noRew,,,,,,0,25,0,25,0,1,,,,,,,,,,,,,,,,,
294793,2022-10-03_10h14.27.984,vts_reward_expectancy,2022.2.4,Win32,30.01290555,Chrome,1536,864,,,,,0,621,,,,,,,,,,,,,,,,,S,132,triangle,1,0,,,,,,,,,,,,,,,,repeat,letter,lettRpt,f,0.5528,noRew,,,,,,0,26,0,26,0,1,,,,,,,,,,,,,,,,,
294793,2022-10-03_10h14.27.984,vts_reward_expectancy,2022.2.4,Win32,30.01290555,Chrome,1536,864,,,,,0,621,,,,,,,,,,,,,,,,,H,139,star,1,0,,,,,,,,,,,,,,,,repeat,letter,lettRpt,d,0.5222,noRew,,,,,,0,27,0,27,0,1,,,,,,,,,,,,,,,,,
294793,2022-10-03_10h14.27.984,vts_reward_expectancy,2022.2.4,Win32,30.01290555,Chrome,1536,864,,,,,0,621,,,,,,,,,,,,,,,,,B,181,hexagon,1,0,,,,,,,,,,,,,,,,switch,number,numSwt,k,0.6164,noRew,,,,,,0,28,0,28,0,1,,,,,,,,,,,,,,,,,
294793,2022-10-03_10h14.27.984,vts_reward_expectancy,2022.2.4,Win32,30.01290555,Chrome,1536,864,,,,,0,621,,,,,,,,,,,,,,,,,W,174,star,1,0,,,,,,,,,,,,,,,,repeat,number,numRpt,k,0.5673,noRew,,,,,,0,29,0,29,0,1,,,,,,,,,,,,,,,,,
294793,2022-10-03_10h14.27.984,vts_reward_expectancy,2022.2.4,Win32,30.01290555,Chrome,1536,864,,,,,0,621,,,,,,,,,,,,,,,,,S,139,hexagon,1,0,,,,,,,,,,,,,,,,repeat,number,numRpt,j,0.8976,noRew,,,,,,0,30,0,30,0,1,,,,,,,,,,,,,,,,,
294793,2022-10-03_10h14.27.984,vts_reward_expectancy,2022.2.4,Win32,30.01290555,Chrome,1536,864,,,,,0,621,,,,,,,,,,,,,,,,,D,132,circle,1,0,,,,,,,,,,,,,,,,repeat,number,numRpt,j,0.5666,noRew,,,,,,0,31,0,31,0,1,,,,,,,,,,,,,,,,,
294793,2022-10-03_10h14.27.984,vts_reward_expectancy,2022.2.4,Win32,30.01290555,Chrome,1536,864,,,,,0,621,,,,,,,,,,,,,,,,,F,125,star,1,0,,,,,,,,,,,,,,,,switch,letter,lettSwt,d,0.585,noRew,,,,,,0,32,0,32,0,1,,,,,,,,,,,,,,,,,
294793,2022-10-03_10h14.27.984,vts_reward_expectancy,2022.2.4,Win32,30.01290555,Chrome,1536,864,,,,,0,621,,,,,,,,,,,,,,,,,D,174,hexagon,1,0,,,,,,,,,,,,,,,,repeat,letter,lettRpt,d,1.4049,noRew,,,,,,0,33,0,33,0,1,,,,,,,,,,,,,,,,,
294793,2022-10-03_10h14.27.984,vts_reward_expectancy,2022.2.4,Win32,30.01290555,Chrome,1536,864,,,,,0,621,,,,,,,,,,,,,,,,,W,160,triangle,1,0,,,,,,,,,,,,,,,,switch,number,numSwt,k,0.5994,noRew,,,,,,0,34,0,34,0,1,,,,,,,,,,,,,,,,,
294793,2022-10-03_10h14.27.984,vts_reward_expectancy,2022.2.4,Win32,30.01290555,Chrome,1536,864,,,,,0,621,,,,,,,,,,,,,,,,,H,132,circle,1,0,,,,,,,,,,,,,,,,switch,letter,lettSwt,d,1.3045,noRew,,,,,,0,35,0,35,0,1,,,,,,,,,,,,,,,,,
294793,2022-10-03_10h14.27.984,vts_reward_expectancy,2022.2.4,Win32,30.01290555,Chrome,1536,864,,,,,0,621,,,,,,,,,,,,,,,,,D,132,star,1,0,,,,,,,,,,,,,,,,switch,number,numSwt,j,1.2491,noRew,,,,,,0,36,0,36,0,1,,,,,,,,,,,,,,,,,
294793,2022-10-03_10h14.27.984,vts_reward_expectancy,2022.2.4,Win32,30.01290555,Chrome,1536,864,,,,,0,621,,,,,,,,,,,,,,,,,Y,181,hexagon,1,0,,,,,,,,,,,,,,,,repeat,number,numRpt,k,0.8992,noRew,,,,,,0,37,0,37,0,1,,,,,,,,,,,,,,,,,
294793,2022-10-03_10h14.27.984,vts_reward_expectancy,2022.2.4,Win32,30.01290555,Chrome,1536,864,,,,,0,621,,,,,,,,,,,,,,,,,F,174,triangle,1,0,,,,,,,,,,,,,,,,repeat,number,numRpt,k,0.5866,noRew,,,,,,0,38,0,38,0,1,,,,,,,,,,,,,,,,,
294793,2022-10-03_10h14.27.984,vts_reward_expectancy,2022.2.4,Win32,30.01290555,Chrome,1536,864,,,,,0,621,,,,,,,,,,,,,,,,,W,139,circle,1,0,,,,,,,,,,,,,,,,switch,letter,lettSwt,f,0.8109,noRew,,,,,,0,39,0,39,0,1,,,,,,,,,,,,,,,,,
294793,2022-10-03_10h14.27.984,vts_reward_expectancy,2022.2.4,Win32,30.01290555,Chrome,1536,864,,,,,0,621,,,,,,,,,,,,,,,,,W,125,triangle,1,0,,,,,,,,,,,,,,,,switch,number,numSwt,j,0.6266,noRew,,,,,,0,40,0,40,0,1,,,,,,,,,,,,,,,,,
294793,2022-10-03_10h14.27.984,vts_reward_expectancy,2022.2.4,Win32,30.01290555,Chrome,1536,864,,,,,0,621,,,,,,,,,,,,,,,,,F,146,star,1,0,,,,,,,,,,,,,,,,repeat,number,numRpt,j,0.5856,noRew,,,,,,0,41,0,41,0,1,,,,,,,,,,,,,,,,,
294793,2022-10-03_10h14.27.984,vts_reward_expectancy,2022.2.4,Win32,30.01290555,Chrome,1536,864,,,,,0,621,,,,,,,,,,,,,,,,,U,139,hexagon,1,0,,,,,,,,,,,,,,,,repeat,number,numRpt,j,0.5182,noRew,,,,,,0,42,0,42,0,1,,,,,,,,,,,,,,,,,
294793,2022-10-03_10h14.27.984,vts_reward_expectancy,2022.2.4,Win32,30.01290555,Chrome,1536,864,,,,,0,621,,,,,,,,,,,,,,,,,S,160,triangle,1,0,,,,,,,,,,,,,,,,switch,letter,lettSwt,f,0.949,noRew,,,,,,0,43,0,43,0,1,,,,,,,,,,,,,,,,,
294793,2022-10-03_10h14.27.984,vts_reward_expectancy,2022.2.4,Win32,30.01290555,Chrome,1536,864,,,,,0,621,,,,,,,,,,,,,,,,,W,181,circle,1,0,,,,,,,,,,,,,,,,repeat,letter,lettRpt,f,0.9992,noRew,,,,,,0,44,0,44,0,1,,,,,,,,,,,,,,,,,
294793,2022-10-03_10h14.27.984,vts_reward_expectancy,2022.2.4,Win32,30.01290555,Chrome,1536,864,,,,,0,621,,,,,,,,,,,,,,,,,B,139,star,1,0,,,,,,,,,,,,,,,,repeat,letter,lettRpt,d,0.671,noRew,,,,,,0,45,0,45,0,1,,,,,,,,,,,,,,,,,
294793,2022-10-03_10h14.27.984,vts_reward_expectancy,2022.2.4,Win32,30.01290555,Chrome,1536,864,,,,,0,621,,,,,,,,,,,,,,,,,Y,167,triangle,1,0,,,,,,,,,,,,,,,,repeat,letter,lettRpt,f,1.5875,noRew,,,,,,0,46,0,46,0,1,,,,,,,,,,,,,,,,,
294793,2022-10-03_10h14.27.984,vts_reward_expectancy,2022.2.4,Win32,30.01290555,Chrome,1536,864,,,,,0,621,,,,,,,,,,,,,,,,,D,160,hexagon,1,0,,,,,,,,,,,,,,,,switch,number,numSwt,k,0.8728,noRew,,,,,,0,47,0,47,0,1,,,,,,,,,,,,,,,,,
294793,2022-10-03_10h14.27.984,vts_reward_expectancy,2022.2.4,Win32,30.01290555,Chrome,1536,864,,,,,0,621,,,,,,,,,,,,,,,,,H,167,star,1,0,,,,,,,,,,,,,,,,repeat,number,numRpt,k,0.5571,noRew,,,,,,0,48,0,48,0,1,,,,,,,,,,,,,,,,,
294793,2022-10-03_10h14.27.984,vts_reward_expectancy,2022.2.4,Win32,30.01290555,Chrome,1536,864,,,,,0,621,,,,,,,,,,,,,,,,,Y,125,circle,1,0,,,,,,,,,,,,,,,,switch,letter,lettSwt,f,0.8684,noRew,,,,,,0,49,0,49,0,1,,,,,,,,,,,,,,,,,
294793,2022-10-03_10h14.27.984,vts_reward_expectancy,2022.2.4,Win32,30.01290555,Chrome,1536,864,,,,,0,621,,,,,,,,,,,,,,,,,B,139,star,1,0,,,,,,,,,,,,,,,,repeat,letter,lettRpt,d,1.9667,noRew,,,,,,0,50,0,50,0,1,,,,,,,,,,,,,,,,,
294793,2022-10-03_10h14.27.984,vts_reward_expectancy,2022.2.4,Win32,30.01290555,Chrome,1536,864,,,,,0,621,,,,,,,,,,,,,,,,,F,174,triangle,1,0,,,,,,,,,,,,,,,,switch,number,numSwt,k,0.7173,noRew,,,,,,0,51,0,51,0,1,,,,,,,,,,,,,,,,,
294793,2022-10-03_10h14.27.984,vts_reward_expectancy,2022.2.4,Win32,30.01290555,Chrome,1536,864,,,,,0,621,,,,,,,,,,,,,,,,,H,167,circle,1,0,,,,,,,,,,,,,,,,repeat,number,numRpt,k,0.7222,noRew,,,,,,0,52,0,52,0,1,,,,,,,,,,,,,,,,,
294793,2022-10-03_10h14.27.984,vts_reward_expectancy,2022.2.4,Win32,30.01290555,Chrome,1536,864,,,,,0,621,,,,,,,,,,,,,,,,,U,146,hexagon,1,0,,,,,,,,,,,,,,,,repeat,number,numRpt,j,1.0292,noRew,,,,,,0,53,0,53,0,1,,,,,,,,,,,,,,,,,
294793,2022-10-03_10h14.27.984,vts_reward_expectancy,2022.2.4,Win32,30.01290555,Chrome,1536,864,,,,,0,621,,,,,,,,,,,,,,,,,F,132,circle,1,0,,,,,,,,,,,,,,,,repeat,number,numRpt,j,0.6255,noRew,,,,,,0,54,0,54,0,1,,,,,,,,,,,,,,,,,
294793,2022-10-03_10h14.27.984,vts_reward_expectancy,2022.2.4,Win32,30.01290555,Chrome,1536,864,,,,,0,621,,,,,,,,,,,,,,,,,W,160,triangle,1,0,,,,,,,,,,,,,,,,switch,letter,lettSwt,f,0.7041,noRew,,,,,,0,55,0,55,0,1,,,,,,,,,,,,,,,,,
294793,2022-10-03_10h14.27.984,vts_reward_expectancy,2022.2.4,Win32,30.01290555,Chrome,1536,864,,,,,0,621,,,,,,,,,,,,,,,,,F,160,star,1,0,,,,,,,,,,,,,,,,switch,number,numSwt,k,2.3917,noRew,,,,,,0,56,0,56,0,1,,,,,,,,,,,,,,,,,
294793,2022-10-03_10h14.27.984,vts_reward_expectancy,2022.2.4,Win32,30.01290555,Chrome,1536,864,,,,,0,621,,,,,,,,,,,,,,,,,W,181,circle,1,0,,,,,,,,,,,,,,,,switch,letter,lettSwt,f,0.7056,noRew,,,,,,0,57,0,57,0,1,,,,,,,,,,,,,,,,,
294793,2022-10-03_10h14.27.984,vts_reward_expectancy,2022.2.4,Win32,30.01290555,Chrome,1536,864,,,,,0,621,,,,,,,,,,,,,,,,,U,125,triangle,1,0,,,,,,,,,,,,,,,,repeat,letter,lettRpt,f,0.6629,noRew,,,,,,0,58,0,58,0,1,,,,,,,,,,,,,,,,,
294793,2022-10-03_10h14.27.984,vts_reward_expectancy,2022.2.4,Win32,30.01290555,Chrome,1536,864,,,,,0,621,,,,,,,,,,,,,,,,,S,132,hexagon,1,0,,,,,,,,,,,,,,,,repeat,letter,lettRpt,f,0.5699,noRew,,,,,,0,59,0,59,0,1,,,,,,,,,,,,,,,,,
294793,2022-10-03_10h14.27.984,vts_reward_expectancy,2022.2.4,Win32,30.01290555,Chrome,1536,864,,,,,0,621,,,,,,,,,,,,,,,,,F,181,hexagon,1,0,,,,,,,,,,,,,,,,repeat,letter,lettRpt,d,0.8666,noRew,,,,,,0,60,0,60,0,1,,,,,,,,,,,,,,,,,
294793,2022-10-03_10h14.27.984,vts_reward_expectancy,2022.2.4,Win32,30.01290555,Chrome,1536,864,,,,,0,621,,,,,,,,,,,,,,,,,D,139,triangle,1,0,,,,,,,,,,,,,,,,repeat,letter,lettRpt,d,1.1924,noRew,,,,,,0,61,0,61,0,1,,,,,,,,,,,,,,,,,
294793,2022-10-03_10h14.27.984,vts_reward_expectancy,2022.2.4,Win32,30.01290555,Chrome,1536,864,,,,,0,621,,,,,,,,,,,,,,,,,B,174,star,1,0,,,,,,,,,,,,,,,,repeat,letter,lettRpt,d,0.7538,noRew,,,,,,0,62,0,62,0,1,,,,,,,,,,,,,,,,,
294793,2022-10-03_10h14.27.984,vts_reward_expectancy,2022.2.4,Win32,30.01290555,Chrome,1536,864,,,,,0,621,,,,,,,,,,,,,,,,,Y,146,hexagon,1,0,,,,,,,,,,,,,,,,switch,number,numSwt,j,0.9886,noRew,,,,,,0,63,0,63,0,1,,,,,,,,,,,,,,,,,
294793,2022-10-03_10h14.27.984,vts_reward_expectancy,2022.2.4,Win32,30.01290555,Chrome,1536,864,,,,,,,,,,,,,,,,,,,,,,,,,,,,,,,,,,,,,,,,,,,,,,,,,,,,,,,,,,,,,,,,,,,,,,,,,,,,
294793,2022-10-03_10h14.27.984,vts_reward_expectancy,2022.2.4,Win32,30.01290555,Chrome,1536,864,,,,,1,622,,,,,,,,,,,,,,,,,Y,139,triangle,1,0,,,,,,,,,,,,,,,,repeat,number,numRpt,j,0.8009,Lo,,,,,,0,,,,,,space,9.812,low,0,0,0,0,1,,,,,,,,,
294793,2022-10-03_10h14.27.984,vts_reward_expectancy,2022.2.4,Win32,30.01290555,Chrome,1536,864,,,,,0,622,,,,,,,,,,,,,,,,,U,160,hexagon,1,0,,,,,,,,,,,,,,,,repeat,number,numRpt,k,1.1749,Hi,,,,,,0,,,,,,,,low,1,0,1,0,1,,,,,,,,,
294793,2022-10-03_10h14.27.984,vts_reward_expectancy,2022.2.4,Win32,30.01290555,Chrome,1536,864,,,,,1,623,,,,,,,,,,,,,,,,,F,132,triangle,1,0,,,,,,,,,,,,,,,,switch,letter,lettSwt,d,0.6192,Lo,,,,,,0,,,,,,,,low,2,0,2,0,1,,,,,,,,,
294793,2022-10-03_10h14.27.984,vts_reward_expectancy,2022.2.4,Win32,30.01290555,Chrome,1536,864,,,,,1,624,,,,,,,,,,,,,,,,,H,125,hexagon,1,0,,,,,,,,,,,,,,,,repeat,letter,lettRpt,d,0.5693,Hi,,,,,,0,,,,,,,,low,3,0,3,0,1,,,,,,,,,
294793,2022-10-03_10h14.27.984,vts_reward_expectancy,2022.2.4,Win32,30.01290555,Chrome,1536,864,,,,,1,625,,,,,,,,,,,,,,,,,S,174,hexagon,1,0,,,,,,,,,,,,,,,,repeat,letter,lettRpt,f,0.5328,Hi,,,,,,0,,,,,,,,low,4,0,4,0,1,,,,,,,,,
294793,2022-10-03_10h14.27.984,vts_reward_expectancy,2022.2.4,Win32,30.01290555,Chrome,1536,864,,,,,10,635,,,,,,,,,,,,,,,,,B,181,triangle,1,0,,,,,,,,,,,,,,,,repeat,letter,lettRpt,d,0.4735,Lo,,,,,,0,,,,,,,,low,5,0,5,0,1,,,,,,,,,
294793,2022-10-03_10h14.27.984,vts_reward_expectancy,2022.2.4,Win32,30.01290555,Chrome,1536,864,,,,,1,636,,,,,,,,,,,,,,,,,W,167,hexagon,1,0,,,,,,,,,,,,,,,,switch,number,numSwt,k,0.4732,Hi,,,,,,0,,,,,,,,low,6,0,6,0,1,,,,,,,,,
294793,2022-10-03_10h14.27.984,vts_reward_expectancy,2022.2.4,Win32,30.01290555,Chrome,1536,864,,,,,10,646,,,,,,,,,,,,,,,,,D,146,triangle,1,0,,,,,,,,,,,,,,,,switch,letter,lettSwt,d,0.5534,Lo,,,,,,0,,,,,,,,low,7,0,7,0,1,,,,,,,,,
294793,2022-10-03_10h14.27.984,vts_reward_expectancy,2022.2.4,Win32,30.01290555,Chrome,1536,864,,,,,0,646,,,,,,,,,,,,,,,,,Y,139,triangle,0,0,,,,,,,,,,,,,,,,repeat,letter,NA,d,0.4565,Lo,,,,,,0,,,,,,,,low,8,0,8,0,1,,,,,,,,,
294793,2022-10-03_10h14.27.984,vts_reward_expectancy,2022.2.4,Win32,30.01290555,Chrome,1536,864,,,,,10,656,,,,,,,,,,,,,,,,,U,160,hexagon,1,1,,,,,,,,,,,,,,,,switch,number,numSwt,k,0.4523,Hi,,,,,,0,,,,,,,,low,9,0,9,0,1,,,,,,,,,
294793,2022-10-03_10h14.27.984,vts_reward_expectancy,2022.2.4,Win32,30.01290555,Chrome,1536,864,,,,,1,657,,,,,,,,,,,,,,,,,F,132,triangle,1,0,,,,,,,,,,,,,,,,switch,letter,lettSwt,d,0.5305,Lo,,,,,,0,,,,,,,,low,10,0,10,0,1,,,,,,,,,
294793,2022-10-03_10h14.27.984,vts_reward_expectancy,2022.2.4,Win32,30.01290555,Chrome,1536,864,,,,,10,667,,,,,,,,,,,,,,,,,H,125,hexagon,1,0,,,,,,,,,,,,,,,,switch,number,numSwt,j,0.5671,Hi,,,,,,0,,,,,,,,low,11,0,11,0,1,,,,,,,,,
294793,2022-10-03_10h14.27.984,vts_reward_expectancy,2022.2.4,Win32,30.01290555,Chrome,1536,864,,,,,0,667,,,,,,,,,,,,,,,,,S,174,hexagon,1,0,,,,,,,,,,,,,,,,repeat,number,numRpt,k,0.6901,Hi,,,,,,0,,,,,,,,low,12,0,12,0,1,,,,,,,,,
294793,2022-10-03_10h14.27.984,vts_reward_expectancy,2022.2.4,Win32,30.01290555,Chrome,1536,864,,,,,10,677,,,,,,,,,,,,,,,,,B,181,triangle,1,0,,,,,,,,,,,,,,,,switch,letter,lettSwt,d,0.4168,Lo,,,,,,0,,,,,,,,low,13,0,13,0,1,,,,,,,,,
294793,2022-10-03_10h14.27.984,vts_reward_expectancy,2022.2.4,Win32,30.01290555,Chrome,1536,864,,,,,0,677,,,,,,,,,,,,,,,,,W,167,triangle,0,0,,,,,,,,,,,,,,,,repeat,letter,NA,d,0.3499,Lo,,,,,,0,,,,,,,,low,14,0,14,0,1,,,,,,,,,
294793,2022-10-03_10h14.27.984,vts_reward_expectancy,2022.2.4,Win32,30.01290555,Chrome,1536,864,,,,,10,687,,,,,,,,,,,,,,,,,D,146,hexagon,1,1,,,,,,,,,,,,,,,,switch,number,numSwt,j,0.4929,Hi,,,,,,0,,,,,,,,low,15,0,15,0,1,,,,,,,,,
294793,2022-10-03_10h14.27.984,vts_reward_expectancy,2022.2.4,Win32,30.01290555,Chrome,1536,864,,,,,0,687,,,,,,,,,,,,,,,,,S,139,hexagon,1,0,,,,,,,,,,,,,,,,repeat,number,numRpt,j,0.6142,Hi,,,,,,0,,,,,,,,low,16,0,16,0,1,,,,,,,,,
294793,2022-10-03_10h14.27.984,vts_reward_expectancy,2022.2.4,Win32,30.01290555,Chrome,1536,864,,,,,10,697,,,,,,,,,,,,,,,,,D,174,triangle,1,0,,,,,,,,,,,,,,,,switch,letter,lettSwt,d,0.4724,Lo,,,,,,0,,,,,,,,low,17,0,17,0,1,,,,,,,,,
294793,2022-10-03_10h14.27.984,vts_reward_expectancy,2022.2.4,Win32,30.01290555,Chrome,1536,864,,,,,1,698,,,,,,,,,,,,,,,,,B,146,hexagon,1,0,,,,,,,,,,,,,,,,switch,number,numSwt,j,0.5439,Hi,,,,,,0,,,,,,,,low,18,0,18,0,1,,,,,,,,,
294793,2022-10-03_10h14.27.984,vts_reward_expectancy,2022.2.4,Win32,30.01290555,Chrome,1536,864,,,,,10,708,,,,,,,,,,,,,,,,,F,125,triangle,1,0,,,,,,,,,,,,,,,,switch,letter,lettSwt,d,0.435,Lo,,,,,,0,,,,,,,,low,19,0,19,0,1,,,,,,,,,
294793,2022-10-03_10h14.27.984,vts_reward_expectancy,2022.2.4,Win32,30.01290555,Chrome,1536,864,,,,,0,708,,,,,,,,,,,,,,,,,U,167,hexagon,0,0,,,,,,,,,,,,,,,,switch,number,NA,j,0.6122,Lo,,,,,,0,,,,,,,,low,20,0,20,0,1,,,,,,,,,
294793,2022-10-03_10h14.27.984,vts_reward_expectancy,2022.2.4,Win32,30.01290555,Chrome,1536,864,,,,,1,709,,,,,,,,,,,,,,,,,W,181,triangle,1,1,,,,,,,,,,,,,,,,switch,letter,lettSwt,f,0.5288,Lo,,,,,,0,,,,,,,,low,21,0,21,0,1,,,,,,,,,
294793,2022-10-03_10h14.27.984,vts_reward_expectancy,2022.2.4,Win32,30.01290555,Chrome,1536,864,,,,,10,719,,,,,,,,,,,,,,,,,Y,132,hexagon,1,0,,,,,,,,,,,,,,,,switch,number,numSwt,j,0.5163,Hi,,,,,,0,,,,,,,,low,22,0,22,0,1,,,,,,,,,
294793,2022-10-03_10h14.27.984,vts_reward_expectancy,2022.2.4,Win32,30.01290555,Chrome,1536,864,,,,,0,719,,,,,,,,,,,,,,,,,H,160,triangle,0,0,,,,,,,,,,,,,,,,switch,letter,NA,f,0.4237,Hi,,,,,,0,,,,,,,,low,23,0,23,0,1,,,,,,,,,
294793,2022-10-03_10h14.27.984,vts_reward_expectancy,2022.2.4,Win32,30.01290555,Chrome,1536,864,,,,,1,720,,,,,,,,,,,,,,,,,S,160,triangle,1,1,,,,,,,,,,,,,,,,repeat,letter,lettRpt,f,0.4953,Lo,,,,,,0,,,,,,,,low,24,0,24,0,1,,,,,,,,,
294793,2022-10-03_10h14.27.984,vts_reward_expectancy,2022.2.4,Win32,30.01290555,Chrome,1536,864,,,,,10,730,,,,,,,,,,,,,,,,,B,132,hexagon,1,0,,,,,,,,,,,,,,,,switch,number,numSwt,j,0.4906,Hi,,,,,,0,,,,,,,,low,25,0,25,0,1,,,,,,,,,
294793,2022-10-03_10h14.27.984,vts_reward_expectancy,2022.2.4,Win32,30.01290555,Chrome,1536,864,,,,,1,731,,,,,,,,,,,,,,,,,F,167,triangle,1,0,,,,,,,,,,,,,,,,switch,letter,lettSwt,d,0.4991,Lo,,,,,,0,,,,,,,,low,26,0,26,0,1,,,,,,,,,
294793,2022-10-03_10h14.27.984,vts_reward_expectancy,2022.2.4,Win32,30.01290555,Chrome,1536,864,,,,,10,741,,,,,,,,,,,,,,,,,W,146,hexagon,1,0,,,,,,,,,,,,,,,,switch,number,numSwt,j,0.5557,Hi,,,,,,0,,,,,,,,low,27,0,27,0,1,,,,,,,,,
294793,2022-10-03_10h14.27.984,vts_reward_expectancy,2022.2.4,Win32,30.01290555,Chrome,1536,864,,,,,10,751,,,,,,,,,,,,,,,,,Y,174,triangle,1,0,,,,,,,,,,,,,,,,repeat,number,numRpt,k,0.6058,Lo,,,,,,0,,,,,,,,low,28,0,28,0,1,,,,,,,,,
294793,2022-10-03_10h14.27.984,vts_reward_expectancy,2022.2.4,Win32,30.01290555,Chrome,1536,864,,,,,10,761,,,,,,,,,,,,,,,,,H,125,hexagon,1,0,,,,,,,,,,,,,,,,repeat,number,numRpt,j,0.4912,Hi,,,,,,0,,,,,,,,low,29,0,29,0,1,,,,,,,,,
294793,2022-10-03_10h14.27.984,vts_reward_expectancy,2022.2.4,Win32,30.01290555,Chrome,1536,864,,,,,10,771,,,,,,,,,,,,,,,,,D,139,hexagon,1,0,,,,,,,,,,,,,,,,repeat,number,numRpt,j,0.5107,Hi,,,,,,0,,,,,,,,low,30,0,30,0,1,,,,,,,,,
294793,2022-10-03_10h14.27.984,vts_reward_expectancy,2022.2.4,Win32,30.01290555,Chrome,1536,864,,,,,10,781,,,,,,,,,,,,,,,,,U,181,triangle,1,0,,,,,,,,,,,,,,,,repeat,number,numRpt,k,0.4017,Lo,,,,,,0,,,,,,,,low,31,0,31,0,1,,,,,,,,,
294793,2022-10-03_10h14.27.984,vts_reward_expectancy,2022.2.4,Win32,30.01290555,Chrome,1536,864,,,,,10,791,,,,,,,,,,,,,,,,,H,132,hexagon,1,0,,,,,,,,,,,,,,,,repeat,number,numRpt,j,0.5335,Hi,,,,,,1,,,,,,space,0.8148,low,0,0,0,0,1,,,,,,,,,
294793,2022-10-03_10h14.27.984,vts_reward_expectancy,2022.2.4,Win32,30.01290555,Chrome,1536,864,,,,,10,801,,,,,,,,,,,,,,,,,S,174,triangle,1,0,,,,,,,,,,,,,,,,repeat,number,numRpt,k,0.5286,Lo,,,,,,1,,,,,,,,low,1,0,1,0,1,,,,,,,,,
294793,2022-10-03_10h14.27.984,vts_reward_expectancy,2022.2.4,Win32,30.01290555,Chrome,1536,864,,,,,0,801,,,,,,,,,,,,,,,,,D,125,hexagon,1,0,,,,,,,,,,,,,,,,repeat,number,numRpt,j,0.5495,Hi,,,,,,1,,,,,,,,low,2,0,2,0,1,,,,,,,,,
294793,2022-10-03_10h14.27.984,vts_reward_expectancy,2022.2.4,Win32,30.01290555,Chrome,1536,864,,,,,1,802,,,,,,,,,,,,,,,,,F,160,triangle,1,0,,,,,,,,,,,,,,,,repeat,number,numRpt,k,0.3755,Lo,,,,,,1,,,,,,,,low,3,0,3,0,1,,,,,,,,,
294793,2022-10-03_10h14.27.984,vts_reward_expectancy,2022.2.4,Win32,30.01290555,Chrome,1536,864,,,,,10,812,,,,,,,,,,,,,,,,,B,139,hexagon,1,0,,,,,,,,,,,,,,,,repeat,number,numRpt,j,0.3766,Hi,,,,,,1,,,,,,,,low,4,0,4,0,1,,,,,,,,,
294793,2022-10-03_10h14.27.984,vts_reward_expectancy,2022.2.4,Win32,30.01290555,Chrome,1536,864,,,,,10,822,,,,,,,,,,,,,,,,,Y,146,triangle,1,0,,,,,,,,,,,,,,,,switch,letter,lettSwt,f,0.5098,Lo,,,,,,1,,,,,,,,low,5,0,5,0,1,,,,,,,,,
294793,2022-10-03_10h14.27.984,vts_reward_expectancy,2022.2.4,Win32,30.01290555,Chrome,1536,864,,,,,0,822,,,,,,,,,,,,,,,,,U,181,triangle,0,0,,,,,,,,,,,,,,,,repeat,letter,NA,d,0.3869,Lo,,,,,,1,,,,,,,,low,6,0,6,0,1,,,,,,,,,
294793,2022-10-03_10h14.27.984,vts_reward_expectancy,2022.2.4,Win32,30.01290555,Chrome,1536,864,,,,,1,823,,,,,,,,,,,,,,,,,W,167,hexagon,1,1,,,,,,,,,,,,,,,,switch,number,numSwt,k,0.3513,Hi,,,,,,1,,,,,,,,low,7,0,7,0,1,,,,,,,,,
294793,2022-10-03_10h14.27.984,vts_reward_expectancy,2022.2.4,Win32,30.01290555,Chrome,1536,864,,,,,0,823,,,,,,,,,,,,,,,,,H,132,hexagon,1,0,,,,,,,,,,,,,,,,switch,letter,lettSwt,d,0.5286,Hi,,,,,,1,,,,,,,,low,8,0,8,0,1,,,,,,,,,
294793,2022-10-03_10h14.27.984,vts_reward_expectancy,2022.2.4,Win32,30.01290555,Chrome,1536,864,,,,,1,824,,,,,,,,,,,,,,,,,S,174,triangle,1,0,,,,,,,,,,,,,,,,repeat,letter,lettRpt,f,0.5242,Lo,,,,,,1,,,,,,,,low,9,0,9,0,1,,,,,,,,,
294793,2022-10-03_10h14.27.984,vts_reward_expectancy,2022.2.4,Win32,30.01290555,Chrome,1536,864,,,,,10,834,,,,,,,,,,,,,,,,,D,125,triangle,1,0,,,,,,,,,,,,,,,,repeat,letter,lettRpt,d,0.562,Lo,,,,,,1,,,,,,,,low,10,0,10,0,1,,,,,,,,,
294793,2022-10-03_10h14.27.984,vts_reward_expectancy,2022.2.4,Win32,30.01290555,Chrome,1536,864,,,,,0,834,,,,,,,,,,,,,,,,,F,160,hexagon,1,0,,,,,,,,,,,,,,,,repeat,letter,lettRpt,d,0.5167,Hi,,,,,,1,,,,,,,,low,11,0,11,0,1,,,,,,,,,
294793,2022-10-03_10h14.27.984,vts_reward_expectancy,2022.2.4,Win32,30.01290555,Chrome,1536,864,,,,,0,834,,,,,,,,,,,,,,,,,B,139,hexagon,1,0,,,,,,,,,,,,,,,,switch,number,numSwt,j,0.5496,Hi,,,,,,1,,,,,,,,low,12,0,12,0,1,,,,,,,,,
294793,2022-10-03_10h14.27.984,vts_reward_expectancy,2022.2.4,Win32,30.01290555,Chrome,1536,864,,,,,10,844,,,,,,,,,,,,,,,,,Y,146,triangle,1,0,,,,,,,,,,,,,,,,switch,letter,lettSwt,f,0.4025,Lo,,,,,,1,,,,,,,,low,13,0,13,0,1,,,,,,,,,
294793,2022-10-03_10h14.27.984,vts_reward_expectancy,2022.2.4,Win32,30.01290555,Chrome,1536,864,,,,,1,845,,,,,,,,,,,,,,,,,U,181,triangle,1,0,,,,,,,,,,,,,,,,switch,number,numSwt,k,0.4552,Lo,,,,,,1,,,,,,,,low,14,0,14,0,1,,,,,,,,,
294793,2022-10-03_10h14.27.984,vts_reward_expectancy,2022.2.4,Win32,30.01290555,Chrome,1536,864,,,,,10,855,,,,,,,,,,,,,,,,,W,167,hexagon,1,0,,,,,,,,,,,,,,,,repeat,number,numRpt,k,0.4752,Hi,,,,,,1,,,,,,,,low,15,0,15,0,1,,,,,,,,,
294793,2022-10-03_10h14.27.984,vts_reward_expectancy,2022.2.4,Win32,30.01290555,Chrome,1536,864,,,,,1,856,,,,,,,,,,,,,,,,,Y,139,triangle,1,0,,,,,,,,,,,,,,,,switch,letter,lettSwt,f,0.6511,Lo,,,,,,1,,,,,,,,low,16,0,16,0,1,,,,,,,,,
294793,2022-10-03_10h14.27.984,vts_reward_expectancy,2022.2.4,Win32,30.01290555,Chrome,1536,864,,,,,0,856,,,,,,,,,,,,,,,,,W,160,hexagon,1,0,,,,,,,,,,,,,,,,switch,number,numSwt,k,0.5253,Hi,,,,,,1,,,,,,,,low,17,0,17,0,1,,,,,,,,,
294793,2022-10-03_10h14.27.984,vts_reward_expectancy,2022.2.4,Win32,30.01290555,Chrome,1536,864,,,,,1,857,,,,,,,,,,,,,,,,,B,167,triangle,1,0,,,,,,,,,,,,,,,,repeat,number,numRpt,k,0.4143,Lo,,,,,,1,,,,,,,,low,18,0,18,0,1,,,,,,,,,
294793,2022-10-03_10h14.27.984,vts_reward_expectancy,2022.2.4,Win32,30.01290555,Chrome,1536,864,,,,,0,857,,,,,,,,,,,,,,,,,D,174,hexagon,1,0,,,,,,,,,,,,,,,,switch,letter,lettSwt,d,0.5509,Hi,,,,,,1,,,,,,,,low,19,0,19,0,1,,,,,,,,,
294793,2022-10-03_10h14.27.984,vts_reward_expectancy,2022.2.4,Win32,30.01290555,Chrome,1536,864,,,,,0,857,,,,,,,,,,,,,,,,,S,181,hexagon,1,0,,,,,,,,,,,,,,,,repeat,letter,lettRpt,f,0.585,Hi,,,,,,1,,,,,,,,low,20,0,20,0,1,,,,,,,,,
294793,2022-10-03_10h14.27.984,vts_reward_expectancy,2022.2.4,Win32,30.01290555,Chrome,1536,864,,,,,1,858,,,,,,,,,,,,,,,,,F,146,triangle,1,0,,,,,,,,,,,,,,,,switch,number,numSwt,j,0.7072,Lo,,,,,,1,,,,,,,,low,21,0,21,0,1,,,,,,,,,
294793,2022-10-03_10h14.27.984,vts_reward_expectancy,2022.2.4,Win32,30.01290555,Chrome,1536,864,,,,,0,858,,,,,,,,,,,,,,,,,U,125,hexagon,1,0,,,,,,,,,,,,,,,,switch,letter,lettSwt,f,0.5719,Hi,,,,,,1,,,,,,,,low,22,0,22,0,1,,,,,,,,,
294793,2022-10-03_10h14.27.984,vts_reward_expectancy,2022.2.4,Win32,30.01290555,Chrome,1536,864,,,,,1,859,,,,,,,,,,,,,,,,,H,132,triangle,1,0,,,,,,,,,,,,,,,,repeat,letter,lettRpt,d,0.5496,Lo,,,,,,1,,,,,,,,low,23,0,23,0,1,,,,,,,,,
294793,2022-10-03_10h14.27.984,vts_reward_expectancy,2022.2.4,Win32,30.01290555,Chrome,1536,864,,,,,1,860,,,,,,,,,,,,,,,,,F,139,triangle,1,0,,,,,,,,,,,,,,,,switch,number,numSwt,j,0.3759,Lo,,,,,,1,,,,,,,,low,24,0,24,0,1,,,,,,,,,
294793,2022-10-03_10h14.27.984,vts_reward_expectancy,2022.2.4,Win32,30.01290555,Chrome,1536,864,,,,,1,861,,,,,,,,,,,,,,,,,Y,146,hexagon,1,0,,,,,,,,,,,,,,,,repeat,number,numRpt,j,0.3704,Hi,,,,,,1,,,,,,,,low,25,0,25,0,1,,,,,,,,,
294793,2022-10-03_10h14.27.984,vts_reward_expectancy,2022.2.4,Win32,30.01290555,Chrome,1536,864,,,,,10,871,,,,,,,,,,,,,,,,,H,174,triangle,1,0,,,,,,,,,,,,,,,,repeat,number,numRpt,k,0.3952,Lo,,,,,,1,,,,,,,,low,26,0,26,0,1,,,,,,,,,
294793,2022-10-03_10h14.27.984,vts_reward_expectancy,2022.2.4,Win32,30.01290555,Chrome,1536,864,,,,,10,881,,,,,,,,,,,,,,,,,D,125,hexagon,1,0,,,,,,,,,,,,,,,,repeat,number,numRpt,j,0.5146,Hi,,,,,,1,,,,,,,,low,27,0,27,0,1,,,,,,,,,
294793,2022-10-03_10h14.27.984,vts_reward_expectancy,2022.2.4,Win32,30.01290555,Chrome,1536,864,,,,,10,891,,,,,,,,,,,,,,,,,W,181,triangle,1,0,,,,,,,,,,,,,,,,repeat,number,numRpt,k,0.484,Lo,,,,,,1,,,,,,,,low,28,0,28,0,1,,,,,,,,,
294793,2022-10-03_10h14.27.984,vts_reward_expectancy,2022.2.4,Win32,30.01290555,Chrome,1536,864,,,,,1,892,,,,,,,,,,,,,,,,,B,160,hexagon,1,0,,,,,,,,,,,,,,,,repeat,number,numRpt,k,0.4116,Hi,,,,,,1,,,,,,,,low,29,0,29,0,1,,,,,,,,,
294793,2022-10-03_10h14.27.984,vts_reward_expectancy,2022.2.4,Win32,30.01290555,Chrome,1536,864,,,,,10,902,,,,,,,,,,,,,,,,,U,132,hexagon,1,0,,,,,,,,,,,,,,,,repeat,number,numRpt,j,0.5082,Hi,,,,,,1,,,,,,,,low,30,0,30,0,1,,,,,,,,,
294793,2022-10-03_10h14.27.984,vts_reward_expectancy,2022.2.4,Win32,30.01290555,Chrome,1536,864,,,,,1,903,,,,,,,,,,,,,,,,,S,167,triangle,1,0,,,,,,,,,,,,,,,,switch,letter,lettSwt,f,0.549,Lo,,,,,,1,,,,,,,,low,31,0,31,0,1,,,,,,,,,
294793,2022-10-03_10h14.27.984,vts_reward_expectancy,2022.2.4,Win32,30.01290555,Chrome,1536,864,,,,,0,903,,,,,,,,,,,,,,,,,W,174,circle,1,0,,,,,,,,,,,,,,,,switch,number,numSwt,k,0.5329,Hi,,,,,,2,,,,,,space,0.7352,high,0,0,0,0,1,,,,,,,,,
294793,2022-10-03_10h14.27.984,vts_reward_expectancy,2022.2.4,Win32,30.01290555,Chrome,1536,864,,,,,1,904,,,,,,,,,,,,,,,,,F,181,star,1,0,,,,,,,,,,,,,,,,repeat,number,numRpt,k,0.5458,Lo,,,,,,2,,,,,,,,high,1,0,1,0,1,,,,,,,,,
294793,2022-10-03_10h14.27.984,vts_reward_expectancy,2022.2.4,Win32,30.01290555,Chrome,1536,864,,,,,0,904,,,,,,,,,,,,,,,,,H,139,circle,1,0,,,,,,,,,,,,,,,,switch,letter,lettSwt,d,0.5635,Hi,,,,,,2,,,,,,,,high,2,0,2,0,1,,,,,,,,,
294793,2022-10-03_10h14.27.984,vts_reward_expectancy,2022.2.4,Win32,30.01290555,Chrome,1536,864,,,,,10,914,,,,,,,,,,,,,,,,,S,125,star,1,0,,,,,,,,,,,,,,,,repeat,letter,lettRpt,f,0.4335,Lo,,,,,,2,,,,,,,,high,3,0,3,0,1,,,,,,,,,
294793,2022-10-03_10h14.27.984,vts_reward_expectancy,2022.2.4,Win32,30.01290555,Chrome,1536,864,,,,,1,915,,,,,,,,,,,,,,,,,Y,132,star,1,0,,,,,,,,,,,,,,,,repeat,letter,lettRpt,f,0.5159,Lo,,,,,,2,,,,,,,,high,4,0,4,0,1,,,,,,,,,
294793,2022-10-03_10h14.27.984,vts_reward_expectancy,2022.2.4,Win32,30.01290555,Chrome,1536,864,,,,,10,925,,,,,,,,,,,,,,,,,B,167,circle,1,0,,,,,,,,,,,,,,,,repeat,letter,lettRpt,d,0.4369,Hi,,,,,,2,,,,,,,,high,5,0,5,0,1,,,,,,,,,
294793,2022-10-03_10h14.27.984,vts_reward_expectancy,2022.2.4,Win32,30.01290555,Chrome,1536,864,,,,,1,926,,,,,,,,,,,,,,,,,D,146,star,1,0,,,,,,,,,,,,,,,,repeat,letter,lettRpt,d,0.517,Lo,,,,,,2,,,,,,,,high,6,0,6,0,1,,,,,,,,,
294793,2022-10-03_10h14.27.984,vts_reward_expectancy,2022.2.4,Win32,30.01290555,Chrome,1536,864,,,,,10,936,,,,,,,,,,,,,,,,,U,160,circle,1,0,,,,,,,,,,,,,,,,repeat,letter,lettRpt,f,0.4165,Hi,,,,,,2,,,,,,,,high,7,0,7,0,1,,,,,,,,,
294793,2022-10-03_10h14.27.984,vts_reward_expectancy,2022.2.4,Win32,30.01290555,Chrome,1536,864,,,,,0,936,,,,,,,,,,,,,,,,,W,174,circle,0,0,,,,,,,,,,,,,,,,switch,number,NA,j,0.4335,Hi,,,,,,2,,,,,,,,high,8,0,8,0,1,,,,,,,,,
294793,2022-10-03_10h14.27.984,vts_reward_expectancy,2022.2.4,Win32,30.01290555,Chrome,1536,864,,,,,10,946,,,,,,,,,,,,,,,,,F,181,star,1,1,,,,,,,,,,,,,,,,repeat,number,numRpt,k,0.4338,Lo,,,,,,2,,,,,,,,high,9,0,9,0,1,,,,,,,,,
294793,2022-10-03_10h14.27.984,vts_reward_expectancy,2022.2.4,Win32,30.01290555,Chrome,1536,864,,,,,0,946,,,,,,,,,,,,,,,,,H,139,circle,1,0,,,,,,,,,,,,,,,,repeat,number,numRpt,j,0.4687,Hi,,,,,,2,,,,,,,,high,10,0,10,0,1,,,,,,,,,
294793,2022-10-03_10h14.27.984,vts_reward_expectancy,2022.2.4,Win32,30.01290555,Chrome,1536,864,,,,,1,947,,,,,,,,,,,,,,,,,S,125,star,1,0,,,,,,,,,,,,,,,,repeat,number,numRpt,j,0.4578,Lo,,,,,,2,,,,,,,,high,11,0,11,0,1,,,,,,,,,
294793,2022-10-03_10h14.27.984,vts_reward_expectancy,2022.2.4,Win32,30.01290555,Chrome,1536,864,,,,,0,947,,,,,,,,,,,,,,,,,Y,132,circle,1,0,,,,,,,,,,,,,,,,repeat,number,numRpt,j,0.4331,Hi,,,,,,2,,,,,,,,high,12,0,12,0,1,,,,,,,,,
294793,2022-10-03_10h14.27.984,vts_reward_expectancy,2022.2.4,Win32,30.01290555,Chrome,1536,864,,,,,1,948,,,,,,,,,,,,,,,,,B,167,star,1,0,,,,,,,,,,,,,,,,repeat,number,numRpt,k,0.4705,Lo,,,,,,2,,,,,,,,high,13,0,13,0,1,,,,,,,,,
294793,2022-10-03_10h14.27.984,vts_reward_expectancy,2022.2.4,Win32,30.01290555,Chrome,1536,864,,,,,1,949,,,,,,,,,,,,,,,,,D,146,star,1,0,,,,,,,,,,,,,,,,repeat,number,numRpt,j,0.5001,Lo,,,,,,2,,,,,,,,high,14,0,14,0,1,,,,,,,,,
294793,2022-10-03_10h14.27.984,vts_reward_expectancy,2022.2.4,Win32,30.01290555,Chrome,1536,864,,,,,0,949,,,,,,,,,,,,,,,,,U,160,circle,1,0,,,,,,,,,,,,,,,,repeat,number,numRpt,k,0.4554,Hi,,,,,,2,,,,,,,,high,15,0,15,0,1,,,,,,,,,
294793,2022-10-03_10h14.27.984,vts_reward_expectancy,2022.2.4,Win32,30.01290555,Chrome,1536,864,,,,,10,959,,,,,,,,,,,,,,,,,F,139,circle,1,0,,,,,,,,,,,,,,,,switch,letter,lettSwt,d,0.5165,Hi,,,,,,2,,,,,,,,high,16,0,16,0,1,,,,,,,,,
294793,2022-10-03_10h14.27.984,vts_reward_expectancy,2022.2.4,Win32,30.01290555,Chrome,1536,864,,,,,1,960,,,,,,,,,,,,,,,,,H,160,star,1,0,,,,,,,,,,,,,,,,repeat,letter,lettRpt,d,0.5878,Lo,,,,,,2,,,,,,,,high,17,0,17,0,1,,,,,,,,,
294793,2022-10-03_10h14.27.984,vts_reward_expectancy,2022.2.4,Win32,30.01290555,Chrome,1536,864,,,,,1,961,,,,,,,,,,,,,,,,,D,132,star,1,0,,,,,,,,,,,,,,,,repeat,letter,lettRpt,d,0.6045,Lo,,,,,,2,,,,,,,,high,18,0,18,0,1,,,,,,,,,
294793,2022-10-03_10h14.27.984,vts_reward_expectancy,2022.2.4,Win32,30.01290555,Chrome,1536,864,,,,,0,961,,,,,,,,,,,,,,,,,S,125,circle,1,0,,,,,,,,,,,,,,,,repeat,letter,lettRpt,f,0.654,Hi,,,,,,2,,,,,,,,high,19,0,19,0,1,,,,,,,,,
294793,2022-10-03_10h14.27.984,vts_reward_expectancy,2022.2.4,Win32,30.01290555,Chrome,1536,864,,,,,10,971,,,,,,,,,,,,,,,,,B,181,star,1,0,,,,,,,,,,,,,,,,repeat,letter,lettRpt,d,0.3947,Lo,,,,,,2,,,,,,,,high,20,0,20,0,1,,,,,,,,,
294793,2022-10-03_10h14.27.984,vts_reward_expectancy,2022.2.4,Win32,30.01290555,Chrome,1536,864,,,,,10,981,,,,,,,,,,,,,,,,,W,174,circle,1,0,,,,,,,,,,,,,,,,repeat,letter,lettRpt,f,0.5075,Hi,,,,,,2,,,,,,,,high,21,0,21,0,1,,,,,,,,,
294793,2022-10-03_10h14.27.984,vts_reward_expectancy,2022.2.4,Win32,30.01290555,Chrome,1536,864,,,,,1,982,,,,,,,,,,,,,,,,,Y,167,star,1,0,,,,,,,,,,,,,,,,repeat,letter,lettRpt,f,0.4552,Lo,,,,,,2,,,,,,,,high,22,0,22,0,1,,,,,,,,,
294793,2022-10-03_10h14.27.984,vts_reward_expectancy,2022.2.4,Win32,30.01290555,Chrome,1536,864,,,,,0,982,,,,,,,,,,,,,,,,,U,146,circle,0,0,,,,,,,,,,,,,,,,repeat,letter,NA,d,0.3433,Lo,,,,,,2,,,,,,,,high,23,0,23,0,1,,,,,,,,,
294793,2022-10-03_10h14.27.984,vts_reward_expectancy,2022.2.4,Win32,30.01290555,Chrome,1536,864,,,,,0,982,,,,,,,,,,,,,,,,,H,160,circle,1,1,,,,,,,,,,,,,,,,repeat,letter,lettRpt,d,0.622,Hi,,,,,,2,,,,,,,,high,24,0,24,0,1,,,,,,,,,
294793,2022-10-03_10h14.27.984,vts_reward_expectancy,2022.2.4,Win32,30.01290555,Chrome,1536,864,,,,,1,983,,,,,,,,,,,,,,,,,D,146,star,1,0,,,,,,,,,,,,,,,,repeat,letter,lettRpt,d,0.7031,Lo,,,,,,2,,,,,,,,high,25,0,25,0,1,,,,,,,,,
294793,2022-10-03_10h14.27.984,vts_reward_expectancy,2022.2.4,Win32,30.01290555,Chrome,1536,864,,,,,1,984,,,,,,,,,,,,,,,,,F,181,star,1,0,,,,,,,,,,,,,,,,repeat,letter,lettRpt,d,0.5831,Lo,,,,,,2,,,,,,,,high,26,0,26,0,1,,,,,,,,,
294793,2022-10-03_10h14.27.984,vts_reward_expectancy,2022.2.4,Win32,30.01290555,Chrome,1536,864,,,,,1,985,,,,,,,,,,,,,,,,,W,174,circle,1,0,,,,,,,,,,,,,,,,repeat,letter,lettRpt,f,0.5107,Hi,,,,,,2,,,,,,,,high,27,0,27,0,1,,,,,,,,,
294793,2022-10-03_10h14.27.984,vts_reward_expectancy,2022.2.4,Win32,30.01290555,Chrome,1536,864,,,,,1,986,,,,,,,,,,,,,,,,,B,125,star,1,0,,,,,,,,,,,,,,,,switch,number,numSwt,j,0.4942,Lo,,,,,,2,,,,,,,,high,28,0,28,0,1,,,,,,,,,
294793,2022-10-03_10h14.27.984,vts_reward_expectancy,2022.2.4,Win32,30.01290555,Chrome,1536,864,,,,,10,996,,,,,,,,,,,,,,,,,U,167,circle,1,0,,,,,,,,,,,,,,,,switch,letter,lettSwt,f,0.4713,Hi,,,,,,2,,,,,,,,high,29,0,29,0,1,,,,,,,,,
294793,2022-10-03_10h14.27.984,vts_reward_expectancy,2022.2.4,Win32,30.01290555,Chrome,1536,864,,,,,10,1006,,,,,,,,,,,,,,,,,S,132,star,1,0,,,,,,,,,,,,,,,,switch,number,numSwt,j,0.4521,Lo,,,,,,2,,,,,,,,high,30,0,30,0,1,,,,,,,,,
294793,2022-10-03_10h14.27.984,vts_reward_expectancy,2022.2.4,Win32,30.01290555,Chrome,1536,864,,,,,10,1016,,,,,,,,,,,,,,,,,Y,139,circle,1,0,,,,,,,,,,,,,,,,switch,letter,lettSwt,f,0.5006,Hi,,,,,,2,,,,,,,,high,31,0,31,0,1,,,,,,,,,
294793,2022-10-03_10h14.27.984,vts_reward_expectancy,2022.2.4,Win32,30.01290555,Chrome,1536,864,,,,,10,1026,,,,,,,,,,,,,,,,,B,167,triangle,1,0,,,,,,,,,,,,,,,,repeat,letter,lettRpt,d,0.6702,Lo,,,,,,3,,,,,,space,0.5768,low,0,0,0,0,1,,,,,,,,,
294793,2022-10-03_10h14.27.984,vts_reward_expectancy,2022.2.4,Win32,30.01290555,Chrome,1536,864,,,,,1,1027,,,,,,,,,,,,,,,,,U,132,hexagon,1,0,,,,,,,,,,,,,,,,switch,number,numSwt,j,0.367,Hi,,,,,,3,,,,,,,,low,1,0,1,0,1,,,,,,,,,
294793,2022-10-03_10h14.27.984,vts_reward_expectancy,2022.2.4,Win32,30.01290555,Chrome,1536,864,,,,,10,1037,,,,,,,,,,,,,,,,,Y,146,triangle,1,0,,,,,,,,,,,,,,,,switch,letter,lettSwt,f,0.4743,Lo,,,,,,3,,,,,,,,low,2,0,2,0,1,,,,,,,,,
294793,2022-10-03_10h14.27.984,vts_reward_expectancy,2022.2.4,Win32,30.01290555,Chrome,1536,864,,,,,10,1047,,,,,,,,,,,,,,,,,D,125,hexagon,1,0,,,,,,,,,,,,,,,,switch,number,numSwt,j,0.3949,Hi,,,,,,3,,,,,,,,low,3,0,3,0,1,,,,,,,,,
294793,2022-10-03_10h14.27.984,vts_reward_expectancy,2022.2.4,Win32,30.01290555,Chrome,1536,864,,,,,10,1057,,,,,,,,,,,,,,,,,S,139,hexagon,1,0,,,,,,,,,,,,,,,,repeat,number,numRpt,j,0.4514,Hi,,,,,,3,,,,,,,,low,4,0,4,0,1,,,,,,,,,
294793,2022-10-03_10h14.27.984,vts_reward_expectancy,2022.2.4,Win32,30.01290555,Chrome,1536,864,,,,,10,1067,,,,,,,,,,,,,,,,,W,174,triangle,1,0,,,,,,,,,,,,,,,,switch,letter,lettSwt,f,0.5347,Lo,,,,,,3,,,,,,,,low,5,0,5,0,1,,,,,,,,,
294793,2022-10-03_10h14.27.984,vts_reward_expectancy,2022.2.4,Win32,30.01290555,Chrome,1536,864,,,,,1,1068,,,,,,,,,,,,,,,,,F,181,triangle,1,0,,,,,,,,,,,,,,,,repeat,letter,lettRpt,d,0.5625,Lo,,,,,,3,,,,,,,,low,6,0,6,0,1,,,,,,,,,
294793,2022-10-03_10h14.27.984,vts_reward_expectancy,2022.2.4,Win32,30.01290555,Chrome,1536,864,,,,,0,1068,,,,,,,,,,,,,,,,,H,160,hexagon,1,0,,,,,,,,,,,,,,,,switch,number,numSwt,k,0.5126,Hi,,,,,,3,,,,,,,,low,7,0,7,0,1,,,,,,,,,
294793,2022-10-03_10h14.27.984,vts_reward_expectancy,2022.2.4,Win32,30.01290555,Chrome,1536,864,,,,,1,1069,,,,,,,,,,,,,,,,,B,167,hexagon,1,0,,,,,,,,,,,,,,,,switch,letter,lettSwt,d,0.4405,Hi,,,,,,3,,,,,,,,low,8,0,8,0,1,,,,,,,,,
294793,2022-10-03_10h14.27.984,vts_reward_expectancy,2022.2.4,Win32,30.01290555,Chrome,1536,864,,,,,1,1070,,,,,,,,,,,,,,,,,U,132,triangle,1,0,,,,,,,,,,,,,,,,repeat,letter,lettRpt,f,0.5012,Lo,,,,,,3,,,,,,,,low,9,0,9,0,1,,,,,,,,,
294793,2022-10-03_10h14.27.984,vts_reward_expectancy,2022.2.4,Win32,30.01290555,Chrome,1536,864,,,,,10,1080,,,,,,,,,,,,,,,,,Y,146,hexagon,1,0,,,,,,,,,,,,,,,,switch,number,numSwt,j,0.3593,Hi,,,,,,3,,,,,,,,low,10,0,10,0,1,,,,,,,,,
294793,2022-10-03_10h14.27.984,vts_reward_expectancy,2022.2.4,Win32,30.01290555,Chrome,1536,864,,,,,10,1090,,,,,,,,,,,,,,,,,D,125,triangle,1,0,,,,,,,,,,,,,,,,switch,letter,lettSwt,d,0.4885,Lo,,,,,,3,,,,,,,,low,11,0,11,0,1,,,,,,,,,
294793,2022-10-03_10h14.27.984,vts_reward_expectancy,2022.2.4,Win32,30.01290555,Chrome,1536,864,,,,,0,1090,,,,,,,,,,,,,,,,,S,139,hexagon,1,0,,,,,,,,,,,,,,,,switch,number,numSwt,j,0.5064,Hi,,,,,,3,,,,,,,,low,12,0,12,0,1,,,,,,,,,
294793,2022-10-03_10h14.27.984,vts_reward_expectancy,2022.2.4,Win32,30.01290555,Chrome,1536,864,,,,,10,1100,,,,,,,,,,,,,,,,,W,174,triangle,1,0,,,,,,,,,,,,,,,,switch,letter,lettSwt,f,0.4166,Lo,,,,,,3,,,,,,,,low,13,0,13,0,1,,,,,,,,,
294793,2022-10-03_10h14.27.984,vts_reward_expectancy,2022.2.4,Win32,30.01290555,Chrome,1536,864,,,,,10,1110,,,,,,,,,,,,,,,,,F,181,hexagon,1,0,,,,,,,,,,,,,,,,switch,number,numSwt,k,0.3957,Hi,,,,,,3,,,,,,,,low,14,0,14,0,1,,,,,,,,,
294793,2022-10-03_10h14.27.984,vts_reward_expectancy,2022.2.4,Win32,30.01290555,Chrome,1536,864,,,,,1,1111,,,,,,,,,,,,,,,,,H,160,triangle,1,0,,,,,,,,,,,,,,,,repeat,number,numRpt,k,0.5868,Lo,,,,,,3,,,,,,,,low,15,0,15,0,1,,,,,,,,,
294793,2022-10-03_10h14.27.984,vts_reward_expectancy,2022.2.4,Win32,30.01290555,Chrome,1536,864,,,,,1,1112,,,,,,,,,,,,,,,,,U,167,triangle,1,0,,,,,,,,,,,,,,,,switch,letter,lettSwt,f,0.4993,Lo,,,,,,3,,,,,,,,low,16,0,16,0,1,,,,,,,,,
294793,2022-10-03_10h14.27.984,vts_reward_expectancy,2022.2.4,Win32,30.01290555,Chrome,1536,864,,,,,0,1112,,,,,,,,,,,,,,,,,H,160,hexagon,0,0,,,,,,,,,,,,,,,,switch,number,NA,j,0.4381,Lo,,,,,,3,,,,,,,,low,17,0,17,0,1,,,,,,,,,
294793,2022-10-03_10h14.27.984,vts_reward_expectancy,2022.2.4,Win32,30.01290555,Chrome,1536,864,,,,,10,1122,,,,,,,,,,,,,,,,,Y,132,triangle,1,1,,,,,,,,,,,,,,,,repeat,number,numRpt,j,0.4857,Lo,,,,,,3,,,,,,,,low,18,0,18,0,1,,,,,,,,,
294793,2022-10-03_10h14.27.984,vts_reward_expectancy,2022.2.4,Win32,30.01290555,Chrome,1536,864,,,,,10,1132,,,,,,,,,,,,,,,,,D,181,hexagon,1,0,,,,,,,,,,,,,,,,repeat,number,numRpt,k,0.3668,Hi,,,,,,3,,,,,,,,low,19,0,19,0,1,,,,,,,,,
294793,2022-10-03_10h14.27.984,vts_reward_expectancy,2022.2.4,Win32,30.01290555,Chrome,1536,864,,,,,0,1132,,,,,,,,,,,,,,,,,S,146,hexagon,0,0,,,,,,,,,,,,,,,,repeat,number,NA,k,0.416,Hi,,,,,,3,,,,,,,,low,20,0,20,0,1,,,,,,,,,
294793,2022-10-03_10h14.27.984,vts_reward_expectancy,2022.2.4,Win32,30.01290555,Chrome,1536,864,,,,,10,1142,,,,,,,,,,,,,,,,,F,174,triangle,1,1,,,,,,,,,,,,,,,,repeat,number,numRpt,k,0.4209,Lo,,,,,,3,,,,,,,,low,21,0,21,0,1,,,,,,,,,
294793,2022-10-03_10h14.27.984,vts_reward_expectancy,2022.2.4,Win32,30.01290555,Chrome,1536,864,,,,,0,1142,,,,,,,,,,,,,,,,,W,125,hexagon,1,0,,,,,,,,,,,,,,,,repeat,number,numRpt,j,0.5664,Hi,,,,,,3,,,,,,,,low,22,0,22,0,1,,,,,,,,,
294793,2022-10-03_10h14.27.984,vts_reward_expectancy,2022.2.4,Win32,30.01290555,Chrome,1536,864,,,,,10,1152,,,,,,,,,,,,,,,,,B,139,triangle,1,0,,,,,,,,,,,,,,,,repeat,number,numRpt,j,0.3604,Lo,,,,,,3,,,,,,,,low,23,0,23,0,1,,,,,,,,,
294793,2022-10-03_10h14.27.984,vts_reward_expectancy,2022.2.4,Win32,30.01290555,Chrome,1536,864,,,,,0,1152,,,,,,,,,,,,,,,,,U,132,hexagon,1,0,,,,,,,,,,,,,,,,repeat,number,numRpt,j,0.5662,Hi,,,,,,3,,,,,,,,low,24,0,24,0,1,,,,,,,,,
294793,2022-10-03_10h14.27.984,vts_reward_expectancy,2022.2.4,Win32,30.01290555,Chrome,1536,864,,,,,0,1152,,,,,,,,,,,,,,,,,Y,174,triangle,0,0,,,,,,,,,,,,,,,,repeat,number,NA,j,0.3541,Hi,,,,,,3,,,,,,,,low,25,0,25,0,1,,,,,,,,,
294793,2022-10-03_10h14.27.984,vts_reward_expectancy,2022.2.4,Win32,30.01290555,Chrome,1536,864,,,,,0,1152,,,,,,,,,,,,,,,,,S,125,hexagon,1,1,,,,,,,,,,,,,,,,switch,letter,lettSwt,f,0.6725,Hi,,,,,,3,,,,,,,,low,26,0,26,0,1,,,,,,,,,
294793,2022-10-03_10h14.27.984,vts_reward_expectancy,2022.2.4,Win32,30.01290555,Chrome,1536,864,,,,,10,1162,,,,,,,,,,,,,,,,,F,181,triangle,1,0,,,,,,,,,,,,,,,,repeat,letter,lettRpt,d,0.6231,Lo,,,,,,3,,,,,,,,low,27,0,27,0,1,,,,,,,,,
294793,2022-10-03_10h14.27.984,vts_reward_expectancy,2022.2.4,Win32,30.01290555,Chrome,1536,864,,,,,0,1162,,,,,,,,,,,,,,,,,H,167,hexagon,1,0,,,,,,,,,,,,,,,,repeat,letter,lettRpt,d,0.5096,Hi,,,,,,3,,,,,,,,low,28,0,28,0,1,,,,,,,,,
294793,2022-10-03_10h14.27.984,vts_reward_expectancy,2022.2.4,Win32,30.01290555,Chrome,1536,864,,,,,1,1163,,,,,,,,,,,,,,,,,D,146,triangle,1,0,,,,,,,,,,,,,,,,switch,number,numSwt,j,0.6339,Lo,,,,,,3,,,,,,,,low,29,0,29,0,1,,,,,,,,,
294793,2022-10-03_10h14.27.984,vts_reward_expectancy,2022.2.4,Win32,30.01290555,Chrome,1536,864,,,,,1,1164,,,,,,,,,,,,,,,,,B,160,triangle,1,0,,,,,,,,,,,,,,,,switch,letter,lettSwt,d,0.6417,Lo,,,,,,3,,,,,,,,low,30,0,30,0,1,,,,,,,,,
294793,2022-10-03_10h14.27.984,vts_reward_expectancy,2022.2.4,Win32,30.01290555,Chrome,1536,864,,,,,0,1164,,,,,,,,,,,,,,,,,W,139,hexagon,1,0,,,,,,,,,,,,,,,,repeat,letter,lettRpt,f,0.5095,Hi,,,,,,3,,,,,,,,low,31,0,31,0,1,,,,,,,,,
294793,2022-10-03_10h14.27.984,vts_reward_expectancy,2022.2.4,Win32,30.01290555,Chrome,1536,864,,,,,1,1165,,,,,,,,,,,,,,,,,H,139,star,1,0,,,,,,,,,,,,,,,,switch,number,numSwt,j,0.5024,Lo,,,,,,4,,,,,,space,3.3043,high,0,0,0,0,1,,,,,,,,,
294793,2022-10-03_10h14.27.984,vts_reward_expectancy,2022.2.4,Win32,30.01290555,Chrome,1536,864,,,,,0,1165,,,,,,,,,,,,,,,,,W,160,circle,1,0,,,,,,,,,,,,,,,,switch,letter,lettSwt,f,0.543,Hi,,,,,,4,,,,,,,,high,1,0,1,0,1,,,,,,,,,
294793,2022-10-03_10h14.27.984,vts_reward_expectancy,2022.2.4,Win32,30.01290555,Chrome,1536,864,,,,,10,1175,,,,,,,,,,,,,,,,,Y,146,star,1,0,,,,,,,,,,,,,,,,repeat,letter,lettRpt,f,0.4324,Lo,,,,,,4,,,,,,,,high,2,0,2,0,1,,,,,,,,,
294793,2022-10-03_10h14.27.984,vts_reward_expectancy,2022.2.4,Win32,30.01290555,Chrome,1536,864,,,,,0,1175,,,,,,,,,,,,,,,,,D,132,circle,0,0,,,,,,,,,,,,,,,,switch,number,NA,k,0.4412,Lo,,,,,,4,,,,,,,,high,3,0,3,0,1,,,,,,,,,
294793,2022-10-03_10h14.27.984,vts_reward_expectancy,2022.2.4,Win32,30.01290555,Chrome,1536,864,,,,,10,1185,,,,,,,,,,,,,,,,,F,181,circle,1,1,,,,,,,,,,,,,,,,repeat,number,numRpt,k,0.423,Hi,,,,,,4,,,,,,,,high,4,0,4,0,1,,,,,,,,,
294793,2022-10-03_10h14.27.984,vts_reward_expectancy,2022.2.4,Win32,30.01290555,Chrome,1536,864,,,,,10,1195,,,,,,,,,,,,,,,,,S,125,star,1,0,,,,,,,,,,,,,,,,repeat,number,numRpt,j,0.5176,Lo,,,,,,4,,,,,,,,high,5,0,5,0,1,,,,,,,,,
294793,2022-10-03_10h14.27.984,vts_reward_expectancy,2022.2.4,Win32,30.01290555,Chrome,1536,864,,,,,0,1195,,,,,,,,,,,,,,,,,B,174,circle,1,0,,,,,,,,,,,,,,,,repeat,number,numRpt,k,0.5164,Hi,,,,,,4,,,,,,,,high,6,0,6,0,1,,,,,,,,,
294793,2022-10-03_10h14.27.984,vts_reward_expectancy,2022.2.4,Win32,30.01290555,Chrome,1536,864,,,,,1,1196,,,,,,,,,,,,,,,,,U,167,star,1,0,,,,,,,,,,,,,,,,switch,letter,lettSwt,f,0.441,Lo,,,,,,4,,,,,,,,high,7,0,7,0,1,,,,,,,,,
294793,2022-10-03_10h14.27.984,vts_reward_expectancy,2022.2.4,Win32,30.01290555,Chrome,1536,864,,,,,1,1197,,,,,,,,,,,,,,,,,H,139,star,1,0,,,,,,,,,,,,,,,,repeat,letter,lettRpt,d,0.54,Lo,,,,,,4,,,,,,,,high,8,0,8,0,1,,,,,,,,,
294793,2022-10-03_10h14.27.984,vts_reward_expectancy,2022.2.4,Win32,30.01290555,Chrome,1536,864,,,,,0,1197,,,,,,,,,,,,,,,,,W,160,circle,1,0,,,,,,,,,,,,,,,,repeat,letter,lettRpt,f,0.7331,Hi,,,,,,4,,,,,,,,high,9,0,9,0,1,,,,,,,,,
294793,2022-10-03_10h14.27.984,vts_reward_expectancy,2022.2.4,Win32,30.01290555,Chrome,1536,864,,,,,10,1207,,,,,,,,,,,,,,,,,Y,146,star,1,0,,,,,,,,,,,,,,,,repeat,letter,lettRpt,f,1.0895,Lo,,,,,,4,,,,,,,,high,10,0,10,0,1,,,,,,,,,
294793,2022-10-03_10h14.27.984,vts_reward_expectancy,2022.2.4,Win32,30.01290555,Chrome,1536,864,,,,,0,1207,,,,,,,,,,,,,,,,,D,132,circle,1,0,,,,,,,,,,,,,,,,switch,number,numSwt,j,0.5843,Hi,,,,,,4,,,,,,,,high,11,0,11,0,1,,,,,,,,,
294793,2022-10-03_10h14.27.984,vts_reward_expectancy,2022.2.4,Win32,30.01290555,Chrome,1536,864,,,,,0,1207,,,,,,,,,,,,,,,,,F,181,circle,0,0,,,,,,,,,,,,,,,,switch,letter,NA,f,0.6693,Hi,,,,,,4,,,,,,,,high,12,0,12,0,1,,,,,,,,,
294793,2022-10-03_10h14.27.984,vts_reward_expectancy,2022.2.4,Win32,30.01290555,Chrome,1536,864,,,,,1,1208,,,,,,,,,,,,,,,,,S,125,star,1,1,,,,,,,,,,,,,,,,switch,number,numSwt,j,0.4663,Lo,,,,,,4,,,,,,,,high,13,0,13,0,1,,,,,,,,,
294793,2022-10-03_10h14.27.984,vts_reward_expectancy,2022.2.4,Win32,30.01290555,Chrome,1536,864,,,,,0,1208,,,,,,,,,,,,,,,,,B,174,circle,1,0,,,,,,,,,,,,,,,,switch,letter,lettSwt,d,0.4856,Hi,,,,,,4,,,,,,,,high,14,0,14,0,1,,,,,,,,,
294793,2022-10-03_10h14.27.984,vts_reward_expectancy,2022.2.4,Win32,30.01290555,Chrome,1536,864,,,,,1,1209,,,,,,,,,,,,,,,,,U,167,star,1,0,,,,,,,,,,,,,,,,repeat,letter,lettRpt,f,0.4893,Lo,,,,,,4,,,,,,,,high,15,0,15,0,1,,,,,,,,,
294793,2022-10-03_10h14.27.984,vts_reward_expectancy,2022.2.4,Win32,30.01290555,Chrome,1536,864,,,,,1,1210,,,,,,,,,,,,,,,,,S,132,star,1,0,,,,,,,,,,,,,,,,repeat,letter,lettRpt,f,0.4417,Lo,,,,,,4,,,,,,,,high,16,0,16,0,1,,,,,,,,,
294793,2022-10-03_10h14.27.984,vts_reward_expectancy,2022.2.4,Win32,30.01290555,Chrome,1536,864,,,,,1,1211,,,,,,,,,,,,,,,,,W,181,circle,1,0,,,,,,,,,,,,,,,,repeat,letter,lettRpt,f,0.5003,Hi,,,,,,4,,,,,,,,high,17,0,17,0,1,,,,,,,,,
294793,2022-10-03_10h14.27.984,vts_reward_expectancy,2022.2.4,Win32,30.01290555,Chrome,1536,864,,,,,1,1212,,,,,,,,,,,,,,,,,U,167,star,1,0,,,,,,,,,,,,,,,,switch,number,numSwt,k,0.4878,Lo,,,,,,4,,,,,,,,high,18,0,18,0,1,,,,,,,,,
294793,2022-10-03_10h14.27.984,vts_reward_expectancy,2022.2.4,Win32,30.01290555,Chrome,1536,864,,,,,0,1212,,,,,,,,,,,,,,,,,Y,174,circle,1,0,,,,,,,,,,,,,,,,repeat,number,numRpt,k,0.4698,Hi,,,,,,4,,,,,,,,high,19,0,19,0,1,,,,,,,,,
294793,2022-10-03_10h14.27.984,vts_reward_expectancy,2022.2.4,Win32,30.01290555,Chrome,1536,864,,,,,10,1222,,,,,,,,,,,,,,,,,B,146,circle,1,0,,,,,,,,,,,,,,,,switch,letter,lettSwt,d,0.4403,Hi,,,,,,4,,,,,,,,high,20,0,20,0,1,,,,,,,,,
294793,2022-10-03_10h14.27.984,vts_reward_expectancy,2022.2.4,Win32,30.01290555,Chrome,1536,864,,,,,0,1222,,,,,,,,,,,,,,,,,D,125,star,0,0,,,,,,,,,,,,,,,,switch,number,NA,k,0.405,Hi,,,,,,4,,,,,,,,high,21,0,21,0,1,,,,,,,,,
294793,2022-10-03_10h14.27.984,vts_reward_expectancy,2022.2.4,Win32,30.01290555,Chrome,1536,864,,,,,1,1223,,,,,,,,,,,,,,,,,H,160,star,1,1,,,,,,,,,,,,,,,,switch,letter,lettSwt,d,0.417,Lo,,,,,,4,,,,,,,,high,22,0,22,0,1,,,,,,,,,
294793,2022-10-03_10h14.27.984,vts_reward_expectancy,2022.2.4,Win32,30.01290555,Chrome,1536,864,,,,,0,1223,,,,,,,,,,,,,,,,,F,139,circle,1,0,,,,,,,,,,,,,,,,switch,number,numSwt,j,0.4833,Hi,,,,,,4,,,,,,,,high,23,0,23,0,1,,,,,,,,,
294793,2022-10-03_10h14.27.984,vts_reward_expectancy,2022.2.4,Win32,30.01290555,Chrome,1536,864,,,,,1,1224,,,,,,,,,,,,,,,,,H,167,star,1,0,,,,,,,,,,,,,,,,repeat,number,numRpt,k,0.5664,Lo,,,,,,4,,,,,,,,high,24,0,24,0,1,,,,,,,,,
294793,2022-10-03_10h14.27.984,vts_reward_expectancy,2022.2.4,Win32,30.01290555,Chrome,1536,864,,,,,0,1224,,,,,,,,,,,,,,,,,Y,146,circle,1,0,,,,,,,,,,,,,,,,repeat,number,numRpt,j,0.4738,Hi,,,,,,4,,,,,,,,high,25,0,25,0,1,,,,,,,,,
294793,2022-10-03_10h14.27.984,vts_reward_expectancy,2022.2.4,Win32,30.01290555,Chrome,1536,864,,,,,0,1224,,,,,,,,,,,,,,,,,F,181,circle,1,0,,,,,,,,,,,,,,,,repeat,number,numRpt,k,0.5503,Hi,,,,,,4,,,,,,,,high,26,0,26,0,1,,,,,,,,,
294793,2022-10-03_10h14.27.984,vts_reward_expectancy,2022.2.4,Win32,30.01290555,Chrome,1536,864,,,,,1,1225,,,,,,,,,,,,,,,,,U,125,star,1,0,,,,,,,,,,,,,,,,switch,letter,lettSwt,f,0.5578,Lo,,,,,,4,,,,,,,,high,27,0,27,0,1,,,,,,,,,
294793,2022-10-03_10h14.27.984,vts_reward_expectancy,2022.2.4,Win32,30.01290555,Chrome,1536,864,,,,,0,1225,,,,,,,,,,,,,,,,,S,174,star,0,0,,,,,,,,,,,,,,,,repeat,letter,NA,d,0.418,Lo,,,,,,4,,,,,,,,high,28,0,28,0,1,,,,,,,,,
294793,2022-10-03_10h14.27.984,vts_reward_expectancy,2022.2.4,Win32,30.01290555,Chrome,1536,864,,,,,0,1225,,,,,,,,,,,,,,,,,W,160,circle,0,1,,,,,,,,,,,,,,,,switch,number,NA,j,0.4661,Lo,,,,,,4,,,,,,,,high,29,0,29,0,1,,,,,,,,,
294793,2022-10-03_10h14.27.984,vts_reward_expectancy,2022.2.4,Win32,30.01290555,Chrome,1536,864,,,,,0,1225,,,,,,,,,,,,,,,,,B,132,circle,1,1,,,,,,,,,,,,,,,,repeat,number,numRpt,j,0.5179,Hi,,,,,,4,,,,,,,,high,30,0,30,0,1,,,,,,,,,
294793,2022-10-03_10h14.27.984,vts_reward_expectancy,2022.2.4,Win32,30.01290555,Chrome,1536,864,,,,,1,1226,,,,,,,,,,,,,,,,,D,139,star,1,0,,,,,,,,,,,,,,,,switch,letter,lettSwt,d,0.6353,Lo,,,,,,4,,,,,,,,high,31,0,31,0,1,,,,,,,,,
294793,2022-10-03_10h14.27.984,vts_reward_expectancy,2022.2.4,Win32,30.01290555,Chrome,1536,864,,,,,0,1226,,,,,,,,,,,,,,,,,W,146,circle,1,0,,,,,,,,,,,,,,,,switch,number,numSwt,j,0.5716,Hi,,,,,,5,,,,,,space,0.6853,high,0,0,0,0,1,,,,,,,,,
294793,2022-10-03_10h14.27.984,vts_reward_expectancy,2022.2.4,Win32,30.01290555,Chrome,1536,864,,,,,1,1227,,,,,,,,,,,,,,,,,H,125,star,1,0,,,,,,,,,,,,,,,,switch,letter,lettSwt,d,0.5144,Lo,,,,,,5,,,,,,,,high,1,0,1,0,1,,,,,,,,,
294793,2022-10-03_10h14.27.984,vts_reward_expectancy,2022.2.4,Win32,30.01290555,Chrome,1536,864,,,,,0,1227,,,,,,,,,,,,,,,,,F,139,circle,1,0,,,,,,,,,,,,,,,,switch,number,numSwt,j,0.7416,Hi,,,,,,5,,,,,,,,high,2,0,2,0,1,,,,,,,,,
294793,2022-10-03_10h14.27.984,vts_reward_expectancy,2022.2.4,Win32,30.01290555,Chrome,1536,864,,,,,10,1237,,,,,,,,,,,,,,,,,Y,132,star,1,0,,,,,,,,,,,,,,,,switch,letter,lettSwt,f,0.4891,Lo,,,,,,5,,,,,,,,high,3,0,3,0,1,,,,,,,,,
294793,2022-10-03_10h14.27.984,vts_reward_expectancy,2022.2.4,Win32,30.01290555,Chrome,1536,864,,,,,0,1237,,,,,,,,,,,,,,,,,B,174,circle,1,0,,,,,,,,,,,,,,,,switch,number,numSwt,k,0.5163,Hi,,,,,,5,,,,,,,,high,4,0,4,0,1,,,,,,,,,
294793,2022-10-03_10h14.27.984,vts_reward_expectancy,2022.2.4,Win32,30.01290555,Chrome,1536,864,,,,,1,1238,,,,,,,,,,,,,,,,,U,167,star,1,0,,,,,,,,,,,,,,,,repeat,number,numRpt,k,0.554,Lo,,,,,,5,,,,,,,,high,5,0,5,0,1,,,,,,,,,
294793,2022-10-03_10h14.27.984,vts_reward_expectancy,2022.2.4,Win32,30.01290555,Chrome,1536,864,,,,,1,1239,,,,,,,,,,,,,,,,,S,181,star,1,0,,,,,,,,,,,,,,,,repeat,number,numRpt,k,0.5084,Lo,,,,,,5,,,,,,,,high,6,0,6,0,1,,,,,,,,,
294793,2022-10-03_10h14.27.984,vts_reward_expectancy,2022.2.4,Win32,30.01290555,Chrome,1536,864,,,,,0,1239,,,,,,,,,,,,,,,,,D,160,circle,1,0,,,,,,,,,,,,,,,,switch,letter,lettSwt,d,0.6228,Hi,,,,,,5,,,,,,,,high,7,0,7,0,1,,,,,,,,,
294793,2022-10-03_10h14.27.984,vts_reward_expectancy,2022.2.4,Win32,30.01290555,Chrome,1536,864,,,,,10,1249,,,,,,,,,,,,,,,,,W,146,star,1,0,,,,,,,,,,,,,,,,switch,number,numSwt,j,0.7453,Lo,,,,,,5,,,,,,,,high,8,0,8,0,1,,,,,,,,,
294793,2022-10-03_10h14.27.984,vts_reward_expectancy,2022.2.4,Win32,30.01290555,Chrome,1536,864,,,,,0,1249,,,,,,,,,,,,,,,,,H,125,circle,1,0,,,,,,,,,,,,,,,,repeat,number,numRpt,j,1.1165,Hi,,,,,,5,,,,,,,,high,9,0,9,0,1,,,,,,,,,
294793,2022-10-03_10h14.27.984,vts_reward_expectancy,2022.2.4,Win32,30.01290555,Chrome,1536,864,,,,,0,1249,,,,,,,,,,,,,,,,,F,139,circle,1,0,,,,,,,,,,,,,,,,switch,letter,lettSwt,d,0.7359,Hi,,,,,,5,,,,,,,,high,10,0,10,0,1,,,,,,,,,
294793,2022-10-03_10h14.27.984,vts_reward_expectancy,2022.2.4,Win32,30.01290555,Chrome,1536,864,,,,,1,1250,,,,,,,,,,,,,,,,,Y,132,star,1,0,,,,,,,,,,,,,,,,repeat,letter,lettRpt,f,0.5501,Lo,,,,,,5,,,,,,,,high,11,0,11,0,1,,,,,,,,,
294793,2022-10-03_10h14.27.984,vts_reward_expectancy,2022.2.4,Win32,30.01290555,Chrome,1536,864,,,,,1,1251,,,,,,,,,,,,,,,,,B,174,star,1,0,,,,,,,,,,,,,,,,switch,number,numSwt,k,0.5085,Lo,,,,,,5,,,,,,,,high,12,0,12,0,1,,,,,,,,,
294793,2022-10-03_10h14.27.984,vts_reward_expectancy,2022.2.4,Win32,30.01290555,Chrome,1536,864,,,,,0,1251,,,,,,,,,,,,,,,,,U,167,circle,1,0,,,,,,,,,,,,,,,,switch,letter,lettSwt,f,0.5746,Hi,,,,,,5,,,,,,,,high,13,0,13,0,1,,,,,,,,,
294793,2022-10-03_10h14.27.984,vts_reward_expectancy,2022.2.4,Win32,30.01290555,Chrome,1536,864,,,,,0,1251,,,,,,,,,,,,,,,,,S,181,circle,1,0,,,,,,,,,,,,,,,,switch,number,numSwt,k,0.7162,Hi,,,,,,5,,,,,,,,high,14,0,14,0,1,,,,,,,,,
294793,2022-10-03_10h14.27.984,vts_reward_expectancy,2022.2.4,Win32,30.01290555,Chrome,1536,864,,,,,1,1252,,,,,,,,,,,,,,,,,D,160,star,1,0,,,,,,,,,,,,,,,,switch,letter,lettSwt,d,0.576,Lo,,,,,,5,,,,,,,,high,15,0,15,0,1,,,,,,,,,
294793,2022-10-03_10h14.27.984,vts_reward_expectancy,2022.2.4,Win32,30.01290555,Chrome,1536,864,,,,,1,1253,,,,,,,,,,,,,,,,,U,146,star,1,0,,,,,,,,,,,,,,,,switch,number,numSwt,j,0.5837,Lo,,,,,,5,,,,,,,,high,16,0,16,0,1,,,,,,,,,
294793,2022-10-03_10h14.27.984,vts_reward_expectancy,2022.2.4,Win32,30.01290555,Chrome,1536,864,,,,,0,1253,,,,,,,,,,,,,,,,,W,139,circle,1,0,,,,,,,,,,,,,,,,repeat,number,numRpt,j,0.5906,Hi,,,,,,5,,,,,,,,high,17,0,17,0,1,,,,,,,,,
294793,2022-10-03_10h14.27.984,vts_reward_expectancy,2022.2.4,Win32,30.01290555,Chrome,1536,864,,,,,10,1263,,,,,,,,,,,,,,,,,B,174,star,1,0,,,,,,,,,,,,,,,,switch,letter,lettSwt,d,0.5827,Lo,,,,,,5,,,,,,,,high,18,0,18,0,1,,,,,,,,,
294793,2022-10-03_10h14.27.984,vts_reward_expectancy,2022.2.4,Win32,30.01290555,Chrome,1536,864,,,,,10,1273,,,,,,,,,,,,,,,,,Y,125,circle,1,0,,,,,,,,,,,,,,,,switch,number,numSwt,j,0.4589,Hi,,,,,,5,,,,,,,,high,19,0,19,0,1,,,,,,,,,
294793,2022-10-03_10h14.27.984,vts_reward_expectancy,2022.2.4,Win32,30.01290555,Chrome,1536,864,,,,,0,1273,,,,,,,,,,,,,,,,,F,132,circle,1,0,,,,,,,,,,,,,,,,switch,letter,lettSwt,d,0.5508,Hi,,,,,,5,,,,,,,,high,20,0,20,0,1,,,,,,,,,
294793,2022-10-03_10h14.27.984,vts_reward_expectancy,2022.2.4,Win32,30.01290555,Chrome,1536,864,,,,,10,1283,,,,,,,,,,,,,,,,,D,160,star,1,0,,,,,,,,,,,,,,,,switch,number,numSwt,k,0.4581,Lo,,,,,,5,,,,,,,,high,21,0,21,0,1,,,,,,,,,
294793,2022-10-03_10h14.27.984,vts_reward_expectancy,2022.2.4,Win32,30.01290555,Chrome,1536,864,,,,,1,1284,,,,,,,,,,,,,,,,,H,181,star,1,0,,,,,,,,,,,,,,,,switch,letter,lettSwt,d,0.4173,Lo,,,,,,5,,,,,,,,high,22,0,22,0,1,,,,,,,,,
294793,2022-10-03_10h14.27.984,vts_reward_expectancy,2022.2.4,Win32,30.01290555,Chrome,1536,864,,,,,10,1294,,,,,,,,,,,,,,,,,S,167,circle,1,0,,,,,,,,,,,,,,,,switch,number,numSwt,k,0.4001,Hi,,,,,,5,,,,,,,,high,23,0,23,0,1,,,,,,,,,
294793,2022-10-03_10h14.27.984,vts_reward_expectancy,2022.2.4,Win32,30.01290555,Chrome,1536,864,,,,,1,1295,,,,,,,,,,,,,,,,,W,146,star,1,0,,,,,,,,,,,,,,,,switch,letter,lettSwt,f,0.5413,Lo,,,,,,5,,,,,,,,high,24,0,24,0,1,,,,,,,,,
294793,2022-10-03_10h14.27.984,vts_reward_expectancy,2022.2.4,Win32,30.01290555,Chrome,1536,864,,,,,10,1305,,,,,,,,,,,,,,,,,H,181,circle,1,0,,,,,,,,,,,,,,,,switch,number,numSwt,k,0.3742,Hi,,,,,,5,,,,,,,,high,25,0,25,0,1,,,,,,,,,
294793,2022-10-03_10h14.27.984,vts_reward_expectancy,2022.2.4,Win32,30.01290555,Chrome,1536,864,,,,,1,1306,,,,,,,,,,,,,,,,,S,139,star,1,0,,,,,,,,,,,,,,,,switch,letter,lettSwt,f,0.5727,Lo,,,,,,5,,,,,,,,high,26,0,26,0,1,,,,,,,,,
294793,2022-10-03_10h14.27.984,vts_reward_expectancy,2022.2.4,Win32,30.01290555,Chrome,1536,864,,,,,0,1306,,,,,,,,,,,,,,,,,Y,132,circle,1,0,,,,,,,,,,,,,,,,switch,number,numSwt,j,0.655,Hi,,,,,,5,,,,,,,,high,27,0,27,0,1,,,,,,,,,
294793,2022-10-03_10h14.27.984,vts_reward_expectancy,2022.2.4,Win32,30.01290555,Chrome,1536,864,,,,,10,1316,,,,,,,,,,,,,,,,,F,125,circle,1,0,,,,,,,,,,,,,,,,switch,letter,lettSwt,d,0.4225,Hi,,,,,,5,,,,,,,,high,28,0,28,0,1,,,,,,,,,
294793,2022-10-03_10h14.27.984,vts_reward_expectancy,2022.2.4,Win32,30.01290555,Chrome,1536,864,,,,,1,1317,,,,,,,,,,,,,,,,,B,167,star,1,0,,,,,,,,,,,,,,,,switch,number,numSwt,k,0.4235,Lo,,,,,,5,,,,,,,,high,29,0,29,0,1,,,,,,,,,
294793,2022-10-03_10h14.27.984,vts_reward_expectancy,2022.2.4,Win32,30.01290555,Chrome,1536,864,,,,,1,1318,,,,,,,,,,,,,,,,,U,160,star,1,0,,,,,,,,,,,,,,,,switch,letter,lettSwt,f,0.5831,Lo,,,,,,5,,,,,,,,high,30,0,30,0,1,,,,,,,,,
294793,2022-10-03_10h14.27.984,vts_reward_expectancy,2022.2.4,Win32,30.01290555,Chrome,1536,864,,,,,0,1318,,,,,,,,,,,,,,,,,D,174,circle,1,0,,,,,,,,,,,,,,,,switch,number,numSwt,k,0.5375,Hi,,,,,,5,,,,,,,,high,31,0,31,0,1,,,,,,,,,
294793,2022-10-03_10h14.27.984,vts_reward_expectancy,2022.2.4,Win32,30.01290555,Chrome,1536,864,,,,,,,,,,,,,,,,,,,,,,,,,,,,,,,,,,,,,,,,,,,,,,,,,,,,,,6,,,,,,,,,,,,,,switch between the tasks of looking at the letter displayed and pressing 'd' if its closer to 'a' or 'f' if the letter is closer to 'z'. The other task was to look at the number displayed and if it was greater than 153 press  'k' if it was less then 153 press 'j',1,,4,1,,2,1536,864
