participant,date,expName,psychopyVersion,OS,frameRate,browser,xResolution,yResolution,key_resp.keys,key_resp.rt,training_resp.keys,training_resp.rt,points_trial,points_cumul,trainBlock,training.thisRepN,training.thisTrialN,training.thisN,training.thisIndex,training.ran,LTriangleOpac,LCircleOpac,LHexagonOpac,LStarOpac,RTriangleOpac,RCircleOpac,RHexagonOpac,RStarOpac,LShape_ID,RShape_ID,curr_topStim,curr_bottStim,curr_shape,acc,E1,target_resp_prac1.keys,pracBlock,task1_prac_trials.thisRepN,task1_prac_trials.thisTrialN,task1_prac_trials.thisN,task1_prac_trials.thisIndex,task1_prac_trials.ran,target_resp_prac1.rt,target_resp_prac2.keys,target_resp_prac2.rt,task2_praac_trials.thisRepN,task2_praac_trials.thisTrialN,task2_praac_trials.thisN,task2_praac_trials.thisIndex,task2_praac_trials.ran,alt,task,condition,target_resp.keys,target_resp.rt,rewCond,vts_practice_trials.thisRepN,vts_practice_trials.thisTrialN,vts_practice_trials.thisN,vts_practice_trials.thisIndex,vts_practice_trials.ran,blockNum,trials_norew.thisRepN,trials_norew.thisTrialN,trials_norew.thisN,trials_norew.thisIndex,trials_norew.ran,key_resp_2.keys,key_resp_2.rt,rewExpect,trials_rew.thisRepN,trials_rew.thisTrialN,trials_rew.thisN,trials_rew.thisIndex,trials_rew.ran,Q1,Q2,Q2_text,Q3,Q4,Q5_text,Q5,xRes,yRes
296782,2022-09-22_21h57.17.097,vts_reward_expectancy,2022.2.4,MacIntel,59.84082341,Chrome,1440,900,,,,,,,,,,,,,,,,,,,,,,,,,,,,,,,,,,,,,,,,,,,,,,,,,,,,,,,,,,,,,,,,,,,,,,,,,,,,
296782,2022-09-22_21h57.17.097,vts_reward_expectancy,2022.2.4,MacIntel,59.84082341,Chrome,1440,900,space,11.9758,,,,,,,,,,,,,,,,,,,,,,,,,,,,,,,,,,,,,,,,,,,,,,,,,,,,,,,,,,,,,,,,,,,,,,,,,,
296782,2022-09-22_21h57.17.097,vts_reward_expectancy,2022.2.4,MacIntel,59.84082341,Chrome,1440,900,,,,,,,,,,,,,,,,,,,,,,,,,,,,,,,,,,,,,,,,,,,,,,,,,,,,,,,,,,,,,,,,,,,,,,,,,,,,
296782,2022-09-22_21h57.17.097,vts_reward_expectancy,2022.2.4,MacIntel,59.84082341,Chrome,1440,900,,,a,3.0835,10,10,0,0,0,0,3,1,0,1,0,0,1,0,0,0,circle,triangle,,,,,,,,,,,,,,,,,,,,,,,,,,,,,,,,,,,,,,,,,,,,,,,,,,,,,,
296782,2022-09-22_21h57.17.097,vts_reward_expectancy,2022.2.4,MacIntel,59.84082341,Chrome,1440,900,,,l,1.7239,1,11,0,0,1,1,1,1,1,0,0,0,0,0,1,0,triangle,hexagon,,,,,,,,,,,,,,,,,,,,,,,,,,,,,,,,,,,,,,,,,,,,,,,,,,,,,,
296782,2022-09-22_21h57.17.097,vts_reward_expectancy,2022.2.4,MacIntel,59.84082341,Chrome,1440,900,,,a,1.153,10,21,0,0,2,2,6,1,0,0,1,0,1,0,0,0,hexagon,triangle,,,,,,,,,,,,,,,,,,,,,,,,,,,,,,,,,,,,,,,,,,,,,,,,,,,,,,
296782,2022-09-22_21h57.17.097,vts_reward_expectancy,2022.2.4,MacIntel,59.84082341,Chrome,1440,900,,,l,1.0777,10,31,0,0,3,3,2,1,1,0,0,0,0,0,0,1,triangle,star,,,,,,,,,,,,,,,,,,,,,,,,,,,,,,,,,,,,,,,,,,,,,,,,,,,,,,
296782,2022-09-22_21h57.17.097,vts_reward_expectancy,2022.2.4,MacIntel,59.84082341,Chrome,1440,900,,,a,1.1188,10,41,0,0,4,4,10,1,0,0,0,1,0,1,0,0,star ,circle,,,,,,,,,,,,,,,,,,,,,,,,,,,,,,,,,,,,,,,,,,,,,,,,,,,,,,
296782,2022-09-22_21h57.17.097,vts_reward_expectancy,2022.2.4,MacIntel,59.84082341,Chrome,1440,900,,,a,1.3679,1,42,0,0,5,5,8,1,0,0,1,0,0,0,0,1,hexagon,star,,,,,,,,,,,,,,,,,,,,,,,,,,,,,,,,,,,,,,,,,,,,,,,,,,,,,,
296782,2022-09-22_21h57.17.097,vts_reward_expectancy,2022.2.4,MacIntel,59.84082341,Chrome,1440,900,,,a,1.408,1,43,0,0,6,6,7,1,0,0,1,0,0,1,0,0,hexagon,circle,,,,,,,,,,,,,,,,,,,,,,,,,,,,,,,,,,,,,,,,,,,,,,,,,,,,,,
296782,2022-09-22_21h57.17.097,vts_reward_expectancy,2022.2.4,MacIntel,59.84082341,Chrome,1440,900,,,l,0.9179,1,44,0,0,7,7,11,1,0,0,0,1,0,0,1,0,star,hexagon,,,,,,,,,,,,,,,,,,,,,,,,,,,,,,,,,,,,,,,,,,,,,,,,,,,,,,
296782,2022-09-22_21h57.17.097,vts_reward_expectancy,2022.2.4,MacIntel,59.84082341,Chrome,1440,900,,,l,1.1398,10,54,0,0,8,8,4,1,0,1,0,0,0,0,1,0,circle,hexagon,,,,,,,,,,,,,,,,,,,,,,,,,,,,,,,,,,,,,,,,,,,,,,,,,,,,,,
296782,2022-09-22_21h57.17.097,vts_reward_expectancy,2022.2.4,MacIntel,59.84082341,Chrome,1440,900,,,a,0.9527,1,55,0,0,9,9,0,1,1,0,0,0,0,1,0,0,triangle,circle,,,,,,,,,,,,,,,,,,,,,,,,,,,,,,,,,,,,,,,,,,,,,,,,,,,,,,
296782,2022-09-22_21h57.17.097,vts_reward_expectancy,2022.2.4,MacIntel,59.84082341,Chrome,1440,900,,,l,0.6333,10,65,0,0,10,10,5,1,0,1,0,0,0,0,0,1,circle,star,,,,,,,,,,,,,,,,,,,,,,,,,,,,,,,,,,,,,,,,,,,,,,,,,,,,,,
296782,2022-09-22_21h57.17.097,vts_reward_expectancy,2022.2.4,MacIntel,59.84082341,Chrome,1440,900,,,a,0.9231,10,75,0,0,11,11,9,1,0,0,0,1,1,0,0,0,star,triangle,,,,,,,,,,,,,,,,,,,,,,,,,,,,,,,,,,,,,,,,,,,,,,,,,,,,,,
296782,2022-09-22_21h57.17.097,vts_reward_expectancy,2022.2.4,MacIntel,59.84082341,Chrome,1440,900,,,l,0.6275,1,76,0,1,0,12,0,1,1,0,0,0,0,1,0,0,triangle,circle,,,,,,,,,,,,,,,,,,,,,,,,,,,,,,,,,,,,,,,,,,,,,,,,,,,,,,
296782,2022-09-22_21h57.17.097,vts_reward_expectancy,2022.2.4,MacIntel,59.84082341,Chrome,1440,900,,,a,1.255,1,77,0,1,1,13,3,1,0,1,0,0,1,0,0,0,circle,triangle,,,,,,,,,,,,,,,,,,,,,,,,,,,,,,,,,,,,,,,,,,,,,,,,,,,,,,
296782,2022-09-22_21h57.17.097,vts_reward_expectancy,2022.2.4,MacIntel,59.84082341,Chrome,1440,900,,,l,0.5992,10,87,0,1,2,14,1,1,1,0,0,0,0,0,1,0,triangle,hexagon,,,,,,,,,,,,,,,,,,,,,,,,,,,,,,,,,,,,,,,,,,,,,,,,,,,,,,
296782,2022-09-22_21h57.17.097,vts_reward_expectancy,2022.2.4,MacIntel,59.84082341,Chrome,1440,900,,,a,1.1034,10,97,0,1,3,15,9,1,0,0,0,1,1,0,0,0,star,triangle,,,,,,,,,,,,,,,,,,,,,,,,,,,,,,,,,,,,,,,,,,,,,,,,,,,,,,
296782,2022-09-22_21h57.17.097,vts_reward_expectancy,2022.2.4,MacIntel,59.84082341,Chrome,1440,900,,,l,0.7396,1,98,0,1,4,16,11,1,0,0,0,1,0,0,1,0,star,hexagon,,,,,,,,,,,,,,,,,,,,,,,,,,,,,,,,,,,,,,,,,,,,,,,,,,,,,,
296782,2022-09-22_21h57.17.097,vts_reward_expectancy,2022.2.4,MacIntel,59.84082341,Chrome,1440,900,,,a,0.5002,10,108,0,1,5,17,2,1,1,0,0,0,0,0,0,1,triangle,star,,,,,,,,,,,,,,,,,,,,,,,,,,,,,,,,,,,,,,,,,,,,,,,,,,,,,,
296782,2022-09-22_21h57.17.097,vts_reward_expectancy,2022.2.4,MacIntel,59.84082341,Chrome,1440,900,,,l,0.9574,1,109,0,1,6,18,7,1,0,0,1,0,0,1,0,0,hexagon,circle,,,,,,,,,,,,,,,,,,,,,,,,,,,,,,,,,,,,,,,,,,,,,,,,,,,,,,
296782,2022-09-22_21h57.17.097,vts_reward_expectancy,2022.2.4,MacIntel,59.84082341,Chrome,1440,900,,,a,0.639,1,110,0,1,7,19,6,1,0,0,1,0,1,0,0,0,hexagon,triangle,,,,,,,,,,,,,,,,,,,,,,,,,,,,,,,,,,,,,,,,,,,,,,,,,,,,,,
296782,2022-09-22_21h57.17.097,vts_reward_expectancy,2022.2.4,MacIntel,59.84082341,Chrome,1440,900,,,l,0.5197,10,120,0,1,8,20,5,1,0,1,0,0,0,0,0,1,circle,star,,,,,,,,,,,,,,,,,,,,,,,,,,,,,,,,,,,,,,,,,,,,,,,,,,,,,,
296782,2022-09-22_21h57.17.097,vts_reward_expectancy,2022.2.4,MacIntel,59.84082341,Chrome,1440,900,,,a,0.4829,10,130,0,1,9,21,10,1,0,0,0,1,0,1,0,0,star ,circle,,,,,,,,,,,,,,,,,,,,,,,,,,,,,,,,,,,,,,,,,,,,,,,,,,,,,,
296782,2022-09-22_21h57.17.097,vts_reward_expectancy,2022.2.4,MacIntel,59.84082341,Chrome,1440,900,,,l,0.3018,1,131,0,1,10,22,4,1,0,1,0,0,0,0,1,0,circle,hexagon,,,,,,,,,,,,,,,,,,,,,,,,,,,,,,,,,,,,,,,,,,,,,,,,,,,,,,
296782,2022-09-22_21h57.17.097,vts_reward_expectancy,2022.2.4,MacIntel,59.84082341,Chrome,1440,900,,,a,0.6548,1,132,0,1,11,23,8,1,0,0,1,0,0,0,0,1,hexagon,star,,,,,,,,,,,,,,,,,,,,,,,,,,,,,,,,,,,,,,,,,,,,,,,,,,,,,,
296782,2022-09-22_21h57.17.097,vts_reward_expectancy,2022.2.4,MacIntel,59.84082341,Chrome,1440,900,,,l,0.439,10,142,0,2,0,24,8,1,0,0,1,0,0,0,0,1,hexagon,star,,,,,,,,,,,,,,,,,,,,,,,,,,,,,,,,,,,,,,,,,,,,,,,,,,,,,,
296782,2022-09-22_21h57.17.097,vts_reward_expectancy,2022.2.4,MacIntel,59.84082341,Chrome,1440,900,,,a,0.5486,1,143,0,2,1,25,7,1,0,0,1,0,0,1,0,0,hexagon,circle,,,,,,,,,,,,,,,,,,,,,,,,,,,,,,,,,,,,,,,,,,,,,,,,,,,,,,
296782,2022-09-22_21h57.17.097,vts_reward_expectancy,2022.2.4,MacIntel,59.84082341,Chrome,1440,900,,,a,0.9741,1,144,0,2,2,26,4,1,0,1,0,0,0,0,1,0,circle,hexagon,,,,,,,,,,,,,,,,,,,,,,,,,,,,,,,,,,,,,,,,,,,,,,,,,,,,,,
296782,2022-09-22_21h57.17.097,vts_reward_expectancy,2022.2.4,MacIntel,59.84082341,Chrome,1440,900,,,l,0.3883,10,154,0,2,3,27,9,1,0,0,0,1,1,0,0,0,star,triangle,,,,,,,,,,,,,,,,,,,,,,,,,,,,,,,,,,,,,,,,,,,,,,,,,,,,,,
296782,2022-09-22_21h57.17.097,vts_reward_expectancy,2022.2.4,MacIntel,59.84082341,Chrome,1440,900,,,a,0.469,10,164,0,2,4,28,11,1,0,0,0,1,0,0,1,0,star,hexagon,,,,,,,,,,,,,,,,,,,,,,,,,,,,,,,,,,,,,,,,,,,,,,,,,,,,,,
296782,2022-09-22_21h57.17.097,vts_reward_expectancy,2022.2.4,MacIntel,59.84082341,Chrome,1440,900,,,l,0.4375,10,174,0,2,5,29,2,1,1,0,0,0,0,0,0,1,triangle,star,,,,,,,,,,,,,,,,,,,,,,,,,,,,,,,,,,,,,,,,,,,,,,,,,,,,,,
296782,2022-09-22_21h57.17.097,vts_reward_expectancy,2022.2.4,MacIntel,59.84082341,Chrome,1440,900,,,l,0.9229,1,175,0,2,6,30,1,1,1,0,0,0,0,0,1,0,triangle,hexagon,,,,,,,,,,,,,,,,,,,,,,,,,,,,,,,,,,,,,,,,,,,,,,,,,,,,,,
296782,2022-09-22_21h57.17.097,vts_reward_expectancy,2022.2.4,MacIntel,59.84082341,Chrome,1440,900,,,a,0.7701,1,176,0,2,7,31,6,1,0,0,1,0,1,0,0,0,hexagon,triangle,,,,,,,,,,,,,,,,,,,,,,,,,,,,,,,,,,,,,,,,,,,,,,,,,,,,,,
296782,2022-09-22_21h57.17.097,vts_reward_expectancy,2022.2.4,MacIntel,59.84082341,Chrome,1440,900,,,l,0.325,10,186,0,2,8,32,0,1,1,0,0,0,0,1,0,0,triangle,circle,,,,,,,,,,,,,,,,,,,,,,,,,,,,,,,,,,,,,,,,,,,,,,,,,,,,,,
296782,2022-09-22_21h57.17.097,vts_reward_expectancy,2022.2.4,MacIntel,59.84082341,Chrome,1440,900,,,a,0.551,1,187,0,2,9,33,5,1,0,1,0,0,0,0,0,1,circle,star,,,,,,,,,,,,,,,,,,,,,,,,,,,,,,,,,,,,,,,,,,,,,,,,,,,,,,
296782,2022-09-22_21h57.17.097,vts_reward_expectancy,2022.2.4,MacIntel,59.84082341,Chrome,1440,900,,,a,1.2549,10,197,0,2,10,34,3,1,0,1,0,0,1,0,0,0,circle,triangle,,,,,,,,,,,,,,,,,,,,,,,,,,,,,,,,,,,,,,,,,,,,,,,,,,,,,,
296782,2022-09-22_21h57.17.097,vts_reward_expectancy,2022.2.4,MacIntel,59.84082341,Chrome,1440,900,,,a,1.1363,10,207,0,2,11,35,10,1,0,0,0,1,0,1,0,0,star ,circle,,,,,,,,,,,,,,,,,,,,,,,,,,,,,,,,,,,,,,,,,,,,,,,,,,,,,,
296782,2022-09-22_21h57.17.097,vts_reward_expectancy,2022.2.4,MacIntel,59.84082341,Chrome,1440,900,,,a,0.5562,10,217,1,0,0,0,11,1,0,0,0,1,0,0,1,0,star,hexagon,,,,,,,,,,,,,,,,,,,,,,,,,,,,,,,,,,,,,,,,,,,,,,,,,,,,,,
296782,2022-09-22_21h57.17.097,vts_reward_expectancy,2022.2.4,MacIntel,59.84082341,Chrome,1440,900,,,l,0.4218,10,227,1,0,1,1,1,1,1,0,0,0,0,0,1,0,triangle,hexagon,,,,,,,,,,,,,,,,,,,,,,,,,,,,,,,,,,,,,,,,,,,,,,,,,,,,,,
296782,2022-09-22_21h57.17.097,vts_reward_expectancy,2022.2.4,MacIntel,59.84082341,Chrome,1440,900,,,l,0.8217,1,228,1,0,2,2,4,1,0,1,0,0,0,0,1,0,circle,hexagon,,,,,,,,,,,,,,,,,,,,,,,,,,,,,,,,,,,,,,,,,,,,,,,,,,,,,,
296782,2022-09-22_21h57.17.097,vts_reward_expectancy,2022.2.4,MacIntel,59.84082341,Chrome,1440,900,,,a,0.3697,1,229,1,0,3,3,8,1,0,0,1,0,0,0,0,1,hexagon,star,,,,,,,,,,,,,,,,,,,,,,,,,,,,,,,,,,,,,,,,,,,,,,,,,,,,,,
296782,2022-09-22_21h57.17.097,vts_reward_expectancy,2022.2.4,MacIntel,59.84082341,Chrome,1440,900,,,a,0.5705,10,239,1,0,4,4,9,1,0,0,0,1,1,0,0,0,star,triangle,,,,,,,,,,,,,,,,,,,,,,,,,,,,,,,,,,,,,,,,,,,,,,,,,,,,,,
296782,2022-09-22_21h57.17.097,vts_reward_expectancy,2022.2.4,MacIntel,59.84082341,Chrome,1440,900,,,a,0.5347,1,240,1,0,5,5,6,1,0,0,1,0,1,0,0,0,hexagon,triangle,,,,,,,,,,,,,,,,,,,,,,,,,,,,,,,,,,,,,,,,,,,,,,,,,,,,,,
296782,2022-09-22_21h57.17.097,vts_reward_expectancy,2022.2.4,MacIntel,59.84082341,Chrome,1440,900,,,l,0.9881,1,241,1,0,6,6,0,1,1,0,0,0,0,1,0,0,triangle,circle,,,,,,,,,,,,,,,,,,,,,,,,,,,,,,,,,,,,,,,,,,,,,,,,,,,,,,
296782,2022-09-22_21h57.17.097,vts_reward_expectancy,2022.2.4,MacIntel,59.84082341,Chrome,1440,900,,,a,0.4372,10,251,1,0,7,7,3,1,0,1,0,0,1,0,0,0,circle,triangle,,,,,,,,,,,,,,,,,,,,,,,,,,,,,,,,,,,,,,,,,,,,,,,,,,,,,,
296782,2022-09-22_21h57.17.097,vts_reward_expectancy,2022.2.4,MacIntel,59.84082341,Chrome,1440,900,,,l,0.7375,10,261,1,0,8,8,5,1,0,1,0,0,0,0,0,1,circle,star,,,,,,,,,,,,,,,,,,,,,,,,,,,,,,,,,,,,,,,,,,,,,,,,,,,,,,
296782,2022-09-22_21h57.17.097,vts_reward_expectancy,2022.2.4,MacIntel,59.84082341,Chrome,1440,900,,,a,0.5002,10,271,1,0,9,9,10,1,0,0,0,1,0,1,0,0,star ,circle,,,,,,,,,,,,,,,,,,,,,,,,,,,,,,,,,,,,,,,,,,,,,,,,,,,,,,
296782,2022-09-22_21h57.17.097,vts_reward_expectancy,2022.2.4,MacIntel,59.84082341,Chrome,1440,900,,,a,0.5495,1,272,1,0,10,10,7,1,0,0,1,0,0,1,0,0,hexagon,circle,,,,,,,,,,,,,,,,,,,,,,,,,,,,,,,,,,,,,,,,,,,,,,,,,,,,,,
296782,2022-09-22_21h57.17.097,vts_reward_expectancy,2022.2.4,MacIntel,59.84082341,Chrome,1440,900,,,l,0.5663,10,282,1,0,11,11,2,1,1,0,0,0,0,0,0,1,triangle,star,,,,,,,,,,,,,,,,,,,,,,,,,,,,,,,,,,,,,,,,,,,,,,,,,,,,,,
296782,2022-09-22_21h57.17.097,vts_reward_expectancy,2022.2.4,MacIntel,59.84082341,Chrome,1440,900,,,a,0.7038,10,292,1,1,0,12,6,1,0,0,1,0,1,0,0,0,hexagon,triangle,,,,,,,,,,,,,,,,,,,,,,,,,,,,,,,,,,,,,,,,,,,,,,,,,,,,,,
296782,2022-09-22_21h57.17.097,vts_reward_expectancy,2022.2.4,MacIntel,59.84082341,Chrome,1440,900,,,a,0.5514,1,293,1,1,1,13,7,1,0,0,1,0,0,1,0,0,hexagon,circle,,,,,,,,,,,,,,,,,,,,,,,,,,,,,,,,,,,,,,,,,,,,,,,,,,,,,,
296782,2022-09-22_21h57.17.097,vts_reward_expectancy,2022.2.4,MacIntel,59.84082341,Chrome,1440,900,,,l,0.5546,10,303,1,1,2,14,3,1,0,1,0,0,1,0,0,0,circle,triangle,,,,,,,,,,,,,,,,,,,,,,,,,,,,,,,,,,,,,,,,,,,,,,,,,,,,,,
296782,2022-09-22_21h57.17.097,vts_reward_expectancy,2022.2.4,MacIntel,59.84082341,Chrome,1440,900,,,a,0.8231,10,313,1,1,3,15,9,1,0,0,0,1,1,0,0,0,star,triangle,,,,,,,,,,,,,,,,,,,,,,,,,,,,,,,,,,,,,,,,,,,,,,,,,,,,,,
296782,2022-09-22_21h57.17.097,vts_reward_expectancy,2022.2.4,MacIntel,59.84082341,Chrome,1440,900,,,l,0.6067,10,323,1,1,4,16,1,1,1,0,0,0,0,0,1,0,triangle,hexagon,,,,,,,,,,,,,,,,,,,,,,,,,,,,,,,,,,,,,,,,,,,,,,,,,,,,,,
296782,2022-09-22_21h57.17.097,vts_reward_expectancy,2022.2.4,MacIntel,59.84082341,Chrome,1440,900,,,a,0.67,10,333,1,1,5,17,10,1,0,0,0,1,0,1,0,0,star ,circle,,,,,,,,,,,,,,,,,,,,,,,,,,,,,,,,,,,,,,,,,,,,,,,,,,,,,,
296782,2022-09-22_21h57.17.097,vts_reward_expectancy,2022.2.4,MacIntel,59.84082341,Chrome,1440,900,,,l,0.4549,10,343,1,1,6,18,8,1,0,0,1,0,0,0,0,1,hexagon,star,,,,,,,,,,,,,,,,,,,,,,,,,,,,,,,,,,,,,,,,,,,,,,,,,,,,,,
296782,2022-09-22_21h57.17.097,vts_reward_expectancy,2022.2.4,MacIntel,59.84082341,Chrome,1440,900,,,l,0.5861,10,353,1,1,7,19,5,1,0,1,0,0,0,0,0,1,circle,star,,,,,,,,,,,,,,,,,,,,,,,,,,,,,,,,,,,,,,,,,,,,,,,,,,,,,,
296782,2022-09-22_21h57.17.097,vts_reward_expectancy,2022.2.4,MacIntel,59.84082341,Chrome,1440,900,,,l,1.1696,1,354,1,1,8,20,4,1,0,1,0,0,0,0,1,0,circle,hexagon,,,,,,,,,,,,,,,,,,,,,,,,,,,,,,,,,,,,,,,,,,,,,,,,,,,,,,
296782,2022-09-22_21h57.17.097,vts_reward_expectancy,2022.2.4,MacIntel,59.84082341,Chrome,1440,900,,,a,0.5212,10,364,1,1,9,21,11,1,0,0,0,1,0,0,1,0,star,hexagon,,,,,,,,,,,,,,,,,,,,,,,,,,,,,,,,,,,,,,,,,,,,,,,,,,,,,,
296782,2022-09-22_21h57.17.097,vts_reward_expectancy,2022.2.4,MacIntel,59.84082341,Chrome,1440,900,,,a,1.1344,10,374,1,1,10,22,0,1,1,0,0,0,0,1,0,0,triangle,circle,,,,,,,,,,,,,,,,,,,,,,,,,,,,,,,,,,,,,,,,,,,,,,,,,,,,,,
296782,2022-09-22_21h57.17.097,vts_reward_expectancy,2022.2.4,MacIntel,59.84082341,Chrome,1440,900,,,l,0.6913,10,384,1,1,11,23,2,1,1,0,0,0,0,0,0,1,triangle,star,,,,,,,,,,,,,,,,,,,,,,,,,,,,,,,,,,,,,,,,,,,,,,,,,,,,,,
296782,2022-09-22_21h57.17.097,vts_reward_expectancy,2022.2.4,MacIntel,59.84082341,Chrome,1440,900,,,l,0.7026,10,394,1,2,0,24,4,1,0,1,0,0,0,0,1,0,circle,hexagon,,,,,,,,,,,,,,,,,,,,,,,,,,,,,,,,,,,,,,,,,,,,,,,,,,,,,,
296782,2022-09-22_21h57.17.097,vts_reward_expectancy,2022.2.4,MacIntel,59.84082341,Chrome,1440,900,,,l,0.3877,10,404,1,2,1,25,2,1,1,0,0,0,0,0,0,1,triangle,star,,,,,,,,,,,,,,,,,,,,,,,,,,,,,,,,,,,,,,,,,,,,,,,,,,,,,,
296782,2022-09-22_21h57.17.097,vts_reward_expectancy,2022.2.4,MacIntel,59.84082341,Chrome,1440,900,,,a,0.4362,10,414,1,2,2,26,9,1,0,0,0,1,1,0,0,0,star,triangle,,,,,,,,,,,,,,,,,,,,,,,,,,,,,,,,,,,,,,,,,,,,,,,,,,,,,,
296782,2022-09-22_21h57.17.097,vts_reward_expectancy,2022.2.4,MacIntel,59.84082341,Chrome,1440,900,,,l,0.4067,10,424,1,2,3,27,8,1,0,0,1,0,0,0,0,1,hexagon,star,,,,,,,,,,,,,,,,,,,,,,,,,,,,,,,,,,,,,,,,,,,,,,,,,,,,,,
296782,2022-09-22_21h57.17.097,vts_reward_expectancy,2022.2.4,MacIntel,59.84082341,Chrome,1440,900,,,l,0.4716,10,434,1,2,4,28,5,1,0,1,0,0,0,0,0,1,circle,star,,,,,,,,,,,,,,,,,,,,,,,,,,,,,,,,,,,,,,,,,,,,,,,,,,,,,,
296782,2022-09-22_21h57.17.097,vts_reward_expectancy,2022.2.4,MacIntel,59.84082341,Chrome,1440,900,,,a,0.8737,1,435,1,2,5,29,0,1,1,0,0,0,0,1,0,0,triangle,circle,,,,,,,,,,,,,,,,,,,,,,,,,,,,,,,,,,,,,,,,,,,,,,,,,,,,,,
296782,2022-09-22_21h57.17.097,vts_reward_expectancy,2022.2.4,MacIntel,59.84082341,Chrome,1440,900,,,a,0.7031,10,445,1,2,6,30,11,1,0,0,0,1,0,0,1,0,star,hexagon,,,,,,,,,,,,,,,,,,,,,,,,,,,,,,,,,,,,,,,,,,,,,,,,,,,,,,
296782,2022-09-22_21h57.17.097,vts_reward_expectancy,2022.2.4,MacIntel,59.84082341,Chrome,1440,900,,,a,0.9046,1,446,1,2,7,31,7,1,0,0,1,0,0,1,0,0,hexagon,circle,,,,,,,,,,,,,,,,,,,,,,,,,,,,,,,,,,,,,,,,,,,,,,,,,,,,,,
296782,2022-09-22_21h57.17.097,vts_reward_expectancy,2022.2.4,MacIntel,59.84082341,Chrome,1440,900,,,l,0.5879,1,447,1,2,8,32,1,1,1,0,0,0,0,0,1,0,triangle,hexagon,,,,,,,,,,,,,,,,,,,,,,,,,,,,,,,,,,,,,,,,,,,,,,,,,,,,,,
296782,2022-09-22_21h57.17.097,vts_reward_expectancy,2022.2.4,MacIntel,59.84082341,Chrome,1440,900,,,a,0.4189,10,457,1,2,9,33,6,1,0,0,1,0,1,0,0,0,hexagon,triangle,,,,,,,,,,,,,,,,,,,,,,,,,,,,,,,,,,,,,,,,,,,,,,,,,,,,,,
296782,2022-09-22_21h57.17.097,vts_reward_expectancy,2022.2.4,MacIntel,59.84082341,Chrome,1440,900,,,a,0.5579,1,458,1,2,10,34,3,1,0,1,0,0,1,0,0,0,circle,triangle,,,,,,,,,,,,,,,,,,,,,,,,,,,,,,,,,,,,,,,,,,,,,,,,,,,,,,
296782,2022-09-22_21h57.17.097,vts_reward_expectancy,2022.2.4,MacIntel,59.84082341,Chrome,1440,900,,,l,0.3831,1,459,1,2,11,35,10,1,0,0,0,1,0,1,0,0,star ,circle,,,,,,,,,,,,,,,,,,,,,,,,,,,,,,,,,,,,,,,,,,,,,,,,,,,,,,
296782,2022-09-22_21h57.17.097,vts_reward_expectancy,2022.2.4,MacIntel,59.84082341,Chrome,1440,900,,,l,0.4997,1,460,2,0,0,0,2,1,1,0,0,0,0,0,0,1,triangle,star,,,,,,,,,,,,,,,,,,,,,,,,,,,,,,,,,,,,,,,,,,,,,,,,,,,,,,
296782,2022-09-22_21h57.17.097,vts_reward_expectancy,2022.2.4,MacIntel,59.84082341,Chrome,1440,900,,,a,0.307,1,461,2,0,1,1,10,1,0,0,0,1,0,1,0,0,star ,circle,,,,,,,,,,,,,,,,,,,,,,,,,,,,,,,,,,,,,,,,,,,,,,,,,,,,,,
296782,2022-09-22_21h57.17.097,vts_reward_expectancy,2022.2.4,MacIntel,59.84082341,Chrome,1440,900,,,l,0.6446,1,462,2,0,2,2,0,1,1,0,0,0,0,1,0,0,triangle,circle,,,,,,,,,,,,,,,,,,,,,,,,,,,,,,,,,,,,,,,,,,,,,,,,,,,,,,
296782,2022-09-22_21h57.17.097,vts_reward_expectancy,2022.2.4,MacIntel,59.84082341,Chrome,1440,900,,,a,0.5498,10,472,2,0,3,3,11,1,0,0,0,1,0,0,1,0,star,hexagon,,,,,,,,,,,,,,,,,,,,,,,,,,,,,,,,,,,,,,,,,,,,,,,,,,,,,,
296782,2022-09-22_21h57.17.097,vts_reward_expectancy,2022.2.4,MacIntel,59.84082341,Chrome,1440,900,,,l,0.557,1,473,2,0,4,4,1,1,1,0,0,0,0,0,1,0,triangle,hexagon,,,,,,,,,,,,,,,,,,,,,,,,,,,,,,,,,,,,,,,,,,,,,,,,,,,,,,
296782,2022-09-22_21h57.17.097,vts_reward_expectancy,2022.2.4,MacIntel,59.84082341,Chrome,1440,900,,,l,1.0024,10,483,2,0,5,5,5,1,0,1,0,0,0,0,0,1,circle,star,,,,,,,,,,,,,,,,,,,,,,,,,,,,,,,,,,,,,,,,,,,,,,,,,,,,,,
296782,2022-09-22_21h57.17.097,vts_reward_expectancy,2022.2.4,MacIntel,59.84082341,Chrome,1440,900,,,l,0.5769,10,493,2,0,6,6,8,1,0,0,1,0,0,0,0,1,hexagon,star,,,,,,,,,,,,,,,,,,,,,,,,,,,,,,,,,,,,,,,,,,,,,,,,,,,,,,
296782,2022-09-22_21h57.17.097,vts_reward_expectancy,2022.2.4,MacIntel,59.84082341,Chrome,1440,900,,,a,0.9712,1,494,2,0,7,7,4,1,0,1,0,0,0,0,1,0,circle,hexagon,,,,,,,,,,,,,,,,,,,,,,,,,,,,,,,,,,,,,,,,,,,,,,,,,,,,,,
296782,2022-09-22_21h57.17.097,vts_reward_expectancy,2022.2.4,MacIntel,59.84082341,Chrome,1440,900,,,l,0.3708,1,495,2,0,8,8,7,1,0,0,1,0,0,1,0,0,hexagon,circle,,,,,,,,,,,,,,,,,,,,,,,,,,,,,,,,,,,,,,,,,,,,,,,,,,,,,,
296782,2022-09-22_21h57.17.097,vts_reward_expectancy,2022.2.4,MacIntel,59.84082341,Chrome,1440,900,,,a,0.3221,10,505,2,0,9,9,6,1,0,0,1,0,1,0,0,0,hexagon,triangle,,,,,,,,,,,,,,,,,,,,,,,,,,,,,,,,,,,,,,,,,,,,,,,,,,,,,,
296782,2022-09-22_21h57.17.097,vts_reward_expectancy,2022.2.4,MacIntel,59.84082341,Chrome,1440,900,,,a,0.5646,10,515,2,0,10,10,9,1,0,0,0,1,1,0,0,0,star,triangle,,,,,,,,,,,,,,,,,,,,,,,,,,,,,,,,,,,,,,,,,,,,,,,,,,,,,,
296782,2022-09-22_21h57.17.097,vts_reward_expectancy,2022.2.4,MacIntel,59.84082341,Chrome,1440,900,,,l,0.939,10,525,2,0,11,11,3,1,0,1,0,0,1,0,0,0,circle,triangle,,,,,,,,,,,,,,,,,,,,,,,,,,,,,,,,,,,,,,,,,,,,,,,,,,,,,,
296782,2022-09-22_21h57.17.097,vts_reward_expectancy,2022.2.4,MacIntel,59.84082341,Chrome,1440,900,,,a,0.0409,10,535,2,1,0,12,4,1,0,1,0,0,0,0,1,0,circle,hexagon,,,,,,,,,,,,,,,,,,,,,,,,,,,,,,,,,,,,,,,,,,,,,,,,,,,,,,
296782,2022-09-22_21h57.17.097,vts_reward_expectancy,2022.2.4,MacIntel,59.84082341,Chrome,1440,900,,,l,0.7438,10,545,2,1,1,13,8,1,0,0,1,0,0,0,0,1,hexagon,star,,,,,,,,,,,,,,,,,,,,,,,,,,,,,,,,,,,,,,,,,,,,,,,,,,,,,,
296782,2022-09-22_21h57.17.097,vts_reward_expectancy,2022.2.4,MacIntel,59.84082341,Chrome,1440,900,,,a,0.622,10,555,2,1,2,14,9,1,0,0,0,1,1,0,0,0,star,triangle,,,,,,,,,,,,,,,,,,,,,,,,,,,,,,,,,,,,,,,,,,,,,,,,,,,,,,
296782,2022-09-22_21h57.17.097,vts_reward_expectancy,2022.2.4,MacIntel,59.84082341,Chrome,1440,900,,,l,0.4756,10,565,2,1,3,15,2,1,1,0,0,0,0,0,0,1,triangle,star,,,,,,,,,,,,,,,,,,,,,,,,,,,,,,,,,,,,,,,,,,,,,,,,,,,,,,
296782,2022-09-22_21h57.17.097,vts_reward_expectancy,2022.2.4,MacIntel,59.84082341,Chrome,1440,900,,,a,0.7187,1,566,2,1,4,16,6,1,0,0,1,0,1,0,0,0,hexagon,triangle,,,,,,,,,,,,,,,,,,,,,,,,,,,,,,,,,,,,,,,,,,,,,,,,,,,,,,
296782,2022-09-22_21h57.17.097,vts_reward_expectancy,2022.2.4,MacIntel,59.84082341,Chrome,1440,900,,,a,0.5616,10,576,2,1,5,17,11,1,0,0,0,1,0,0,1,0,star,hexagon,,,,,,,,,,,,,,,,,,,,,,,,,,,,,,,,,,,,,,,,,,,,,,,,,,,,,,
296782,2022-09-22_21h57.17.097,vts_reward_expectancy,2022.2.4,MacIntel,59.84082341,Chrome,1440,900,,,l,0.6535,10,586,2,1,6,18,3,1,0,1,0,0,1,0,0,0,circle,triangle,,,,,,,,,,,,,,,,,,,,,,,,,,,,,,,,,,,,,,,,,,,,,,,,,,,,,,
296782,2022-09-22_21h57.17.097,vts_reward_expectancy,2022.2.4,MacIntel,59.84082341,Chrome,1440,900,,,a,0.6174,1,587,2,1,7,19,7,1,0,0,1,0,0,1,0,0,hexagon,circle,,,,,,,,,,,,,,,,,,,,,,,,,,,,,,,,,,,,,,,,,,,,,,,,,,,,,,
296782,2022-09-22_21h57.17.097,vts_reward_expectancy,2022.2.4,MacIntel,59.84082341,Chrome,1440,900,,,l,0.5734,1,588,2,1,8,20,1,1,1,0,0,0,0,0,1,0,triangle,hexagon,,,,,,,,,,,,,,,,,,,,,,,,,,,,,,,,,,,,,,,,,,,,,,,,,,,,,,
296782,2022-09-22_21h57.17.097,vts_reward_expectancy,2022.2.4,MacIntel,59.84082341,Chrome,1440,900,,,l,0.7181,10,598,2,1,9,21,5,1,0,1,0,0,0,0,0,1,circle,star,,,,,,,,,,,,,,,,,,,,,,,,,,,,,,,,,,,,,,,,,,,,,,,,,,,,,,
296782,2022-09-22_21h57.17.097,vts_reward_expectancy,2022.2.4,MacIntel,59.84082341,Chrome,1440,900,,,a,0.6353,10,608,2,1,10,22,10,1,0,0,0,1,0,1,0,0,star ,circle,,,,,,,,,,,,,,,,,,,,,,,,,,,,,,,,,,,,,,,,,,,,,,,,,,,,,,
296782,2022-09-22_21h57.17.097,vts_reward_expectancy,2022.2.4,MacIntel,59.84082341,Chrome,1440,900,,,l,1.7435,10,618,2,1,11,23,0,1,1,0,0,0,0,1,0,0,triangle,circle,,,,,,,,,,,,,,,,,,,,,,,,,,,,,,,,,,,,,,,,,,,,,,,,,,,,,,
296782,2022-09-22_21h57.17.097,vts_reward_expectancy,2022.2.4,MacIntel,59.84082341,Chrome,1440,900,,,l,0.7687,10,628,2,2,0,24,8,1,0,0,1,0,0,0,0,1,hexagon,star,,,,,,,,,,,,,,,,,,,,,,,,,,,,,,,,,,,,,,,,,,,,,,,,,,,,,,
296782,2022-09-22_21h57.17.097,vts_reward_expectancy,2022.2.4,MacIntel,59.84082341,Chrome,1440,900,,,a,0.4381,10,638,2,2,1,25,11,1,0,0,0,1,0,0,1,0,star,hexagon,,,,,,,,,,,,,,,,,,,,,,,,,,,,,,,,,,,,,,,,,,,,,,,,,,,,,,
296782,2022-09-22_21h57.17.097,vts_reward_expectancy,2022.2.4,MacIntel,59.84082341,Chrome,1440,900,,,l,0.555,1,639,2,2,2,26,2,1,1,0,0,0,0,0,0,1,triangle,star,,,,,,,,,,,,,,,,,,,,,,,,,,,,,,,,,,,,,,,,,,,,,,,,,,,,,,
296782,2022-09-22_21h57.17.097,vts_reward_expectancy,2022.2.4,MacIntel,59.84082341,Chrome,1440,900,,,a,0.5691,1,640,2,2,3,27,9,1,0,0,0,1,1,0,0,0,star,triangle,,,,,,,,,,,,,,,,,,,,,,,,,,,,,,,,,,,,,,,,,,,,,,,,,,,,,,
296782,2022-09-22_21h57.17.097,vts_reward_expectancy,2022.2.4,MacIntel,59.84082341,Chrome,1440,900,,,l,0.885,1,641,2,2,4,28,1,1,1,0,0,0,0,0,1,0,triangle,hexagon,,,,,,,,,,,,,,,,,,,,,,,,,,,,,,,,,,,,,,,,,,,,,,,,,,,,,,
296782,2022-09-22_21h57.17.097,vts_reward_expectancy,2022.2.4,MacIntel,59.84082341,Chrome,1440,900,,,l,0.6319,10,651,2,2,5,29,5,1,0,1,0,0,0,0,0,1,circle,star,,,,,,,,,,,,,,,,,,,,,,,,,,,,,,,,,,,,,,,,,,,,,,,,,,,,,,
296782,2022-09-22_21h57.17.097,vts_reward_expectancy,2022.2.4,MacIntel,59.84082341,Chrome,1440,900,,,a,0.984,1,652,2,2,6,30,0,1,1,0,0,0,0,1,0,0,triangle,circle,,,,,,,,,,,,,,,,,,,,,,,,,,,,,,,,,,,,,,,,,,,,,,,,,,,,,,
296782,2022-09-22_21h57.17.097,vts_reward_expectancy,2022.2.4,MacIntel,59.84082341,Chrome,1440,900,,,a,0.7726,1,653,2,2,7,31,4,1,0,1,0,0,0,0,1,0,circle,hexagon,,,,,,,,,,,,,,,,,,,,,,,,,,,,,,,,,,,,,,,,,,,,,,,,,,,,,,
296782,2022-09-22_21h57.17.097,vts_reward_expectancy,2022.2.4,MacIntel,59.84082341,Chrome,1440,900,,,a,0.8528,1,654,2,2,8,32,6,1,0,0,1,0,1,0,0,0,hexagon,triangle,,,,,,,,,,,,,,,,,,,,,,,,,,,,,,,,,,,,,,,,,,,,,,,,,,,,,,
296782,2022-09-22_21h57.17.097,vts_reward_expectancy,2022.2.4,MacIntel,59.84082341,Chrome,1440,900,,,a,0.7018,1,655,2,2,9,33,7,1,0,0,1,0,0,1,0,0,hexagon,circle,,,,,,,,,,,,,,,,,,,,,,,,,,,,,,,,,,,,,,,,,,,,,,,,,,,,,,
296782,2022-09-22_21h57.17.097,vts_reward_expectancy,2022.2.4,MacIntel,59.84082341,Chrome,1440,900,,,a,0.6379,1,656,2,2,10,34,10,1,0,0,0,1,0,1,0,0,star ,circle,,,,,,,,,,,,,,,,,,,,,,,,,,,,,,,,,,,,,,,,,,,,,,,,,,,,,,
296782,2022-09-22_21h57.17.097,vts_reward_expectancy,2022.2.4,MacIntel,59.84082341,Chrome,1440,900,,,l,1.5069,10,666,2,2,11,35,3,1,0,1,0,0,1,0,0,0,circle,triangle,,,,,,,,,,,,,,,,,,,,,,,,,,,,,,,,,,,,,,,,,,,,,,,,,,,,,,
296782,2022-09-22_21h57.17.097,vts_reward_expectancy,2022.2.4,MacIntel,59.84082341,Chrome,1440,900,,,,,,,,,,,,,,,,,,,,,,,160,S,star,0,0,,0,0,0,0,0,1,,,,,,,,,,,,,,,,,,,,,,,,,,,,,,,,,,,,,,,,,,
296782,2022-09-22_21h57.17.097,vts_reward_expectancy,2022.2.4,MacIntel,59.84082341,Chrome,1440,900,,,,,,,,,,,,,,,,,,,,,,,181,D,hexagon,1,1,f,0,1,0,1,0,1,1.0977,,,,,,,,,,,,,,,,,,,,,,,,,,,,,,,,,,,,,,,,,
296782,2022-09-22_21h57.17.097,vts_reward_expectancy,2022.2.4,MacIntel,59.84082341,Chrome,1440,900,,,,,,,,,,,,,,,,,,,,,,,174,U,circle,1,0,f,0,2,0,2,0,1,0.5548,,,,,,,,,,,,,,,,,,,,,,,,,,,,,,,,,,,,,,,,,
296782,2022-09-22_21h57.17.097,vts_reward_expectancy,2022.2.4,MacIntel,59.84082341,Chrome,1440,900,,,,,,,,,,,,,,,,,,,,,,,167,F,triangle,1,0,f,0,3,0,3,0,1,0.7994,,,,,,,,,,,,,,,,,,,,,,,,,,,,,,,,,,,,,,,,,
296782,2022-09-22_21h57.17.097,vts_reward_expectancy,2022.2.4,MacIntel,59.84082341,Chrome,1440,900,,,,,,,,,,,,,,,,,,,,,,,146,W,star,1,0,d,0,4,0,4,0,1,0.6048,,,,,,,,,,,,,,,,,,,,,,,,,,,,,,,,,,,,,,,,,
296782,2022-09-22_21h57.17.097,vts_reward_expectancy,2022.2.4,MacIntel,59.84082341,Chrome,1440,900,,,,,,,,,,,,,,,,,,,,,,,125,B,hexagon,1,0,d,0,5,0,5,0,1,0.5757,,,,,,,,,,,,,,,,,,,,,,,,,,,,,,,,,,,,,,,,,
296782,2022-09-22_21h57.17.097,vts_reward_expectancy,2022.2.4,MacIntel,59.84082341,Chrome,1440,900,,,,,,,,,,,,,,,,,,,,,,,139,Y,circle,1,0,d,0,6,0,6,0,1,0.8508,,,,,,,,,,,,,,,,,,,,,,,,,,,,,,,,,,,,,,,,,
296782,2022-09-22_21h57.17.097,vts_reward_expectancy,2022.2.4,MacIntel,59.84082341,Chrome,1440,900,,,,,,,,,,,,,,,,,,,,,,,132,H,triangle,1,0,d,0,7,0,7,0,1,0.484,,,,,,,,,,,,,,,,,,,,,,,,,,,,,,,,,,,,,,,,,
296782,2022-09-22_21h57.17.097,vts_reward_expectancy,2022.2.4,MacIntel,59.84082341,Chrome,1440,900,,,,,,,,,,,,,,,,,,,,,,,160,S,circle,0,0,d,0,8,0,8,0,1,0.4976,,,,,,,,,,,,,,,,,,,,,,,,,,,,,,,,,,,,,,,,,
296782,2022-09-22_21h57.17.097,vts_reward_expectancy,2022.2.4,MacIntel,59.84082341,Chrome,1440,900,,,,,,,,,,,,,,,,,,,,,,,181,D,star,1,1,f,0,9,0,9,0,1,0.5381,,,,,,,,,,,,,,,,,,,,,,,,,,,,,,,,,,,,,,,,,
296782,2022-09-22_21h57.17.097,vts_reward_expectancy,2022.2.4,MacIntel,59.84082341,Chrome,1440,900,,,,,,,,,,,,,,,,,,,,,,,146,U,hexagon,0,0,,1,0,0,0,0,1,,,,,,,,,,,,,,,,,,,,,,,,,,,,,,,,,,,,,,,,,,
296782,2022-09-22_21h57.17.097,vts_reward_expectancy,2022.2.4,MacIntel,59.84082341,Chrome,1440,900,,,,,,,,,,,,,,,,,,,,,,,132,F,circle,0,1,,1,1,0,1,0,1,,,,,,,,,,,,,,,,,,,,,,,,,,,,,,,,,,,,,,,,,,
296782,2022-09-22_21h57.17.097,vts_reward_expectancy,2022.2.4,MacIntel,59.84082341,Chrome,1440,900,,,,,,,,,,,,,,,,,,,,,,,181,H,triangle,1,1,f,1,2,0,2,0,1,0.9335,,,,,,,,,,,,,,,,,,,,,,,,,,,,,,,,,,,,,,,,,
296782,2022-09-22_21h57.17.097,vts_reward_expectancy,2022.2.4,MacIntel,59.84082341,Chrome,1440,900,,,,,,,,,,,,,,,,,,,,,,,174,B,star,1,0,f,1,3,0,3,0,1,2.2357,,,,,,,,,,,,,,,,,,,,,,,,,,,,,,,,,,,,,,,,,
296782,2022-09-22_21h57.17.097,vts_reward_expectancy,2022.2.4,MacIntel,59.84082341,Chrome,1440,900,,,,,,,,,,,,,,,,,,,,,,,125,S,hexagon,1,0,d,1,4,0,4,0,1,0.7803,,,,,,,,,,,,,,,,,,,,,,,,,,,,,,,,,,,,,,,,,
296782,2022-09-22_21h57.17.097,vts_reward_expectancy,2022.2.4,MacIntel,59.84082341,Chrome,1440,900,,,,,,,,,,,,,,,,,,,,,,,167,D,circle,1,0,f,1,5,0,5,0,1,1.0001,,,,,,,,,,,,,,,,,,,,,,,,,,,,,,,,,,,,,,,,,
296782,2022-09-22_21h57.17.097,vts_reward_expectancy,2022.2.4,MacIntel,59.84082341,Chrome,1440,900,,,,,,,,,,,,,,,,,,,,,,,139,W,triangle,1,0,d,1,6,0,6,0,1,2.0697,,,,,,,,,,,,,,,,,,,,,,,,,,,,,,,,,,,,,,,,,
296782,2022-09-22_21h57.17.097,vts_reward_expectancy,2022.2.4,MacIntel,59.84082341,Chrome,1440,900,,,,,,,,,,,,,,,,,,,,,,,160,Y,star,1,0,f,1,7,0,7,0,1,0.5514,,,,,,,,,,,,,,,,,,,,,,,,,,,,,,,,,,,,,,,,,
296782,2022-09-22_21h57.17.097,vts_reward_expectancy,2022.2.4,MacIntel,59.84082341,Chrome,1440,900,,,,,,,,,,,,,,,,,,,,,,,146,U,star,1,0,d,1,8,0,8,0,1,0.7675,,,,,,,,,,,,,,,,,,,,,,,,,,,,,,,,,,,,,,,,,
296782,2022-09-22_21h57.17.097,vts_reward_expectancy,2022.2.4,MacIntel,59.84082341,Chrome,1440,900,,,,,,,,,,,,,,,,,,,,,,,132,F,hexagon,1,0,d,1,9,0,9,0,1,0.9214,,,,,,,,,,,,,,,,,,,,,,,,,,,,,,,,,,,,,,,,,
296782,2022-09-22_21h57.17.097,vts_reward_expectancy,2022.2.4,MacIntel,59.84082341,Chrome,1440,900,,,,,,,,,,,,,,,,,,,,,,,181,H,circle,1,0,f,2,0,0,0,0,1,0.9179,,,,,,,,,,,,,,,,,,,,,,,,,,,,,,,,,,,,,,,,,
296782,2022-09-22_21h57.17.097,vts_reward_expectancy,2022.2.4,MacIntel,59.84082341,Chrome,1440,900,,,,,,,,,,,,,,,,,,,,,,,146,U,triangle,1,0,d,2,1,0,1,0,1,1.4854,,,,,,,,,,,,,,,,,,,,,,,,,,,,,,,,,,,,,,,,,
296782,2022-09-22_21h57.17.097,vts_reward_expectancy,2022.2.4,MacIntel,59.84082341,Chrome,1440,900,,,,,,,,,,,,,,,,,,,,,,,174,B,star,1,0,f,2,2,0,2,0,1,0.625,,,,,,,,,,,,,,,,,,,,,,,,,,,,,,,,,,,,,,,,,
296782,2022-09-22_21h57.17.097,vts_reward_expectancy,2022.2.4,MacIntel,59.84082341,Chrome,1440,900,,,,,,,,,,,,,,,,,,,,,,,132,W,hexagon,1,0,d,2,3,0,3,0,1,0.5727,,,,,,,,,,,,,,,,,,,,,,,,,,,,,,,,,,,,,,,,,
296782,2022-09-22_21h57.17.097,vts_reward_expectancy,2022.2.4,MacIntel,59.84082341,Chrome,1440,900,,,,,,,,,,,,,,,,,,,,,,,160,S,circle,1,0,f,2,4,0,4,0,1,1.0811,,,,,,,,,,,,,,,,,,,,,,,,,,,,,,,,,,,,,,,,,
296782,2022-09-22_21h57.17.097,vts_reward_expectancy,2022.2.4,MacIntel,59.84082341,Chrome,1440,900,,,,,,,,,,,,,,,,,,,,,,,167,D,triangle,1,0,f,2,5,0,5,0,1,1.1654,,,,,,,,,,,,,,,,,,,,,,,,,,,,,,,,,,,,,,,,,
296782,2022-09-22_21h57.17.097,vts_reward_expectancy,2022.2.4,MacIntel,59.84082341,Chrome,1440,900,,,,,,,,,,,,,,,,,,,,,,,125,F,star,1,0,d,2,6,0,6,0,1,0.7176,,,,,,,,,,,,,,,,,,,,,,,,,,,,,,,,,,,,,,,,,
296782,2022-09-22_21h57.17.097,vts_reward_expectancy,2022.2.4,MacIntel,59.84082341,Chrome,1440,900,,,,,,,,,,,,,,,,,,,,,,,139,Y,hexagon,1,0,d,2,7,0,7,0,1,0.6378,,,,,,,,,,,,,,,,,,,,,,,,,,,,,,,,,,,,,,,,,
296782,2022-09-22_21h57.17.097,vts_reward_expectancy,2022.2.4,MacIntel,59.84082341,Chrome,1440,900,,,,,,,,,,,,,,,,,,,,,,,181,H,circle,1,0,f,2,8,0,8,0,1,0.7005,,,,,,,,,,,,,,,,,,,,,,,,,,,,,,,,,,,,,,,,,
296782,2022-09-22_21h57.17.097,vts_reward_expectancy,2022.2.4,MacIntel,59.84082341,Chrome,1440,900,,,,,,,,,,,,,,,,,,,,,,,146,U,star,1,0,d,2,9,0,9,0,1,1.0702,,,,,,,,,,,,,,,,,,,,,,,,,,,,,,,,,,,,,,,,,
296782,2022-09-22_21h57.17.097,vts_reward_expectancy,2022.2.4,MacIntel,59.84082341,Chrome,1440,900,,,,,,,,,,,,,,,,,,,,,,,167,B,star,1,0,,3,,,,,,,j,1.8723,0,0,0,0,1,,,,,,,,,,,,,,,,,,,,,,,,,,,,,,,,,,
296782,2022-09-22_21h57.17.097,vts_reward_expectancy,2022.2.4,MacIntel,59.84082341,Chrome,1440,900,,,,,,,,,,,,,,,,,,,,,,,146,S,circle,1,0,,3,,,,,,,k,0.735,1,0,1,0,1,,,,,,,,,,,,,,,,,,,,,,,,,,,,,,,,,,
296782,2022-09-22_21h57.17.097,vts_reward_expectancy,2022.2.4,MacIntel,59.84082341,Chrome,1440,900,,,,,,,,,,,,,,,,,,,,,,,160,W,triangle,1,0,,3,,,,,,,k,0.5878,2,0,2,0,1,,,,,,,,,,,,,,,,,,,,,,,,,,,,,,,,,,
296782,2022-09-22_21h57.17.097,vts_reward_expectancy,2022.2.4,MacIntel,59.84082341,Chrome,1440,900,,,,,,,,,,,,,,,,,,,,,,,174,F,hexagon,1,0,,3,,,,,,,j,0.736,3,0,3,0,1,,,,,,,,,,,,,,,,,,,,,,,,,,,,,,,,,,
296782,2022-09-22_21h57.17.097,vts_reward_expectancy,2022.2.4,MacIntel,59.84082341,Chrome,1440,900,,,,,,,,,,,,,,,,,,,,,,,125,Y,star,1,0,,3,,,,,,,k,0.7156,4,0,4,0,1,,,,,,,,,,,,,,,,,,,,,,,,,,,,,,,,,,
296782,2022-09-22_21h57.17.097,vts_reward_expectancy,2022.2.4,MacIntel,59.84082341,Chrome,1440,900,,,,,,,,,,,,,,,,,,,,,,,139,H,circle,1,0,,3,,,,,,,j,0.7337,5,0,5,0,1,,,,,,,,,,,,,,,,,,,,,,,,,,,,,,,,,,
296782,2022-09-22_21h57.17.097,vts_reward_expectancy,2022.2.4,MacIntel,59.84082341,Chrome,1440,900,,,,,,,,,,,,,,,,,,,,,,,181,D,triangle,1,0,,3,,,,,,,j,0.5723,6,0,6,0,1,,,,,,,,,,,,,,,,,,,,,,,,,,,,,,,,,,
296782,2022-09-22_21h57.17.097,vts_reward_expectancy,2022.2.4,MacIntel,59.84082341,Chrome,1440,900,,,,,,,,,,,,,,,,,,,,,,,132,U,hexagon,1,0,,3,,,,,,,k,0.6016,7,0,7,0,1,,,,,,,,,,,,,,,,,,,,,,,,,,,,,,,,,,
296782,2022-09-22_21h57.17.097,vts_reward_expectancy,2022.2.4,MacIntel,59.84082341,Chrome,1440,900,,,,,,,,,,,,,,,,,,,,,,,167,B,circle,1,0,,3,,,,,,,j,0.5304,8,0,8,0,1,,,,,,,,,,,,,,,,,,,,,,,,,,,,,,,,,,
296782,2022-09-22_21h57.17.097,vts_reward_expectancy,2022.2.4,MacIntel,59.84082341,Chrome,1440,900,,,,,,,,,,,,,,,,,,,,,,,146,S,triangle,1,0,,3,,,,,,,k,0.6322,9,0,9,0,1,,,,,,,,,,,,,,,,,,,,,,,,,,,,,,,,,,
296782,2022-09-22_21h57.17.097,vts_reward_expectancy,2022.2.4,MacIntel,59.84082341,Chrome,1440,900,,,,,0,666,,,,,,,,,,,,,,,,,160,U,triangle,1,0,,4,,,,,,,,,,,,,,-1,number,NA,f,2.8105,vtsPrac,0,0,0,0,1,,,,,,,,,,,,,,,,,,,,,,,
296782,2022-09-22_21h57.17.097,vts_reward_expectancy,2022.2.4,MacIntel,59.84082341,Chrome,1440,900,,,,,0,666,,,,,,,,,,,,,,,,,139,B,star,1,0,,4,,,,,,,,,,,,,,repeat,number,numRpt,d,1.0045,vtsPrac,1,0,1,0,1,,,,,,,,,,,,,,,,,,,,,,,
296782,2022-09-22_21h57.17.097,vts_reward_expectancy,2022.2.4,MacIntel,59.84082341,Chrome,1440,900,,,,,0,666,,,,,,,,,,,,,,,,,174,Y,triangle,1,0,,4,,,,,,,,,,,,,,repeat,number,numRpt,f,0.8999,vtsPrac,2,0,2,0,1,,,,,,,,,,,,,,,,,,,,,,,
296782,2022-09-22_21h57.17.097,vts_reward_expectancy,2022.2.4,MacIntel,59.84082341,Chrome,1440,900,,,,,0,666,,,,,,,,,,,,,,,,,132,W,star,1,0,,4,,,,,,,,,,,,,,repeat,number,numRpt,d,0.7928,vtsPrac,3,0,3,0,1,,,,,,,,,,,,,,,,,,,,,,,
296782,2022-09-22_21h57.17.097,vts_reward_expectancy,2022.2.4,MacIntel,59.84082341,Chrome,1440,900,,,,,0,666,,,,,,,,,,,,,,,,,160,U,hexagon,1,0,,4,,,,,,,,,,,,,,repeat,number,numRpt,f,0.4151,vtsPrac,4,0,4,0,1,,,,,,,,,,,,,,,,,,,,,,,
296782,2022-09-22_21h57.17.097,vts_reward_expectancy,2022.2.4,MacIntel,59.84082341,Chrome,1440,900,,,,,0,666,,,,,,,,,,,,,,,,,139,B,triangle,1,0,,4,,,,,,,,,,,,,,repeat,number,numRpt,d,0.903,vtsPrac,5,0,5,0,1,,,,,,,,,,,,,,,,,,,,,,,
296782,2022-09-22_21h57.17.097,vts_reward_expectancy,2022.2.4,MacIntel,59.84082341,Chrome,1440,900,,,,,0,666,,,,,,,,,,,,,,,,,174,Y,triangle,1,0,,4,,,,,,,,,,,,,,repeat,number,numRpt,f,1.2057,vtsPrac,6,0,6,0,1,,,,,,,,,,,,,,,,,,,,,,,
296782,2022-09-22_21h57.17.097,vts_reward_expectancy,2022.2.4,MacIntel,59.84082341,Chrome,1440,900,,,,,0,666,,,,,,,,,,,,,,,,,132,W,hexagon,1,0,,4,,,,,,,,,,,,,,repeat,number,numRpt,d,1.1962,vtsPrac,7,0,7,0,1,,,,,,,,,,,,,,,,,,,,,,,
296782,2022-09-22_21h57.17.097,vts_reward_expectancy,2022.2.4,MacIntel,59.84082341,Chrome,1440,900,,,,,0,666,,,,,,,,,,,,,,,,,174,H,circle,0,0,,4,,,,,,,,,,,,,,repeat,number,NA,d,0.5034,vtsPrac,8,0,8,0,1,,,,,,,,,,,,,,,,,,,,,,,
296782,2022-09-22_21h57.17.097,vts_reward_expectancy,2022.2.4,MacIntel,59.84082341,Chrome,1440,900,,,,,0,666,,,,,,,,,,,,,,,,,132,Y,star,1,1,,4,,,,,,,,,,,,,,repeat,number,numRpt,d,0.7,vtsPrac,9,0,9,0,1,,,,,,,,,,,,,,,,,,,,,,,
296782,2022-09-22_21h57.17.097,vts_reward_expectancy,2022.2.4,MacIntel,59.84082341,Chrome,1440,900,,,,,0,666,,,,,,,,,,,,,,,,,125,U,circle,1,0,,4,,,,,,,,,,,,,,repeat,number,numRpt,d,0.901,vtsPrac,10,0,10,0,1,,,,,,,,,,,,,,,,,,,,,,,
296782,2022-09-22_21h57.17.097,vts_reward_expectancy,2022.2.4,MacIntel,59.84082341,Chrome,1440,900,,,,,0,666,,,,,,,,,,,,,,,,,139,F,triangle,1,0,,4,,,,,,,,,,,,,,switch,letter,lettSwt,j,1.1332,vtsPrac,11,0,11,0,1,,,,,,,,,,,,,,,,,,,,,,,
296782,2022-09-22_21h57.17.097,vts_reward_expectancy,2022.2.4,MacIntel,59.84082341,Chrome,1440,900,,,,,0,666,,,,,,,,,,,,,,,,,181,D,hexagon,1,0,,4,,,,,,,,,,,,,,repeat,letter,lettRpt,j,0.764,vtsPrac,12,0,12,0,1,,,,,,,,,,,,,,,,,,,,,,,
296782,2022-09-22_21h57.17.097,vts_reward_expectancy,2022.2.4,MacIntel,59.84082341,Chrome,1440,900,,,,,0,666,,,,,,,,,,,,,,,,,139,S,star,1,0,,4,,,,,,,,,,,,,,repeat,letter,lettRpt,k,0.6053,vtsPrac,13,0,13,0,1,,,,,,,,,,,,,,,,,,,,,,,
296782,2022-09-22_21h57.17.097,vts_reward_expectancy,2022.2.4,MacIntel,59.84082341,Chrome,1440,900,,,,,0,666,,,,,,,,,,,,,,,,,132,W,triangle,1,0,,4,,,,,,,,,,,,,,repeat,letter,lettRpt,k,0.6637,vtsPrac,14,0,14,0,1,,,,,,,,,,,,,,,,,,,,,,,
296782,2022-09-22_21h57.17.097,vts_reward_expectancy,2022.2.4,MacIntel,59.84082341,Chrome,1440,900,,,,,0,666,,,,,,,,,,,,,,,,,146,F,hexagon,1,0,,4,,,,,,,,,,,,,,repeat,letter,lettRpt,j,0.484,vtsPrac,15,0,15,0,1,,,,,,,,,,,,,,,,,,,,,,,
296782,2022-09-22_21h57.17.097,vts_reward_expectancy,2022.2.4,MacIntel,59.84082341,Chrome,1440,900,,,,,0,666,,,,,,,,,,,,,,,,,125,S,star,1,0,,5,,,,,,,,,,,,,,switch,number,numSwt,d,1.1186,vtsPrac,0,0,0,0,1,,,,,,,,,,,,,,,,,,,,,,,
296782,2022-09-22_21h57.17.097,vts_reward_expectancy,2022.2.4,MacIntel,59.84082341,Chrome,1440,900,,,,,0,666,,,,,,,,,,,,,,,,,160,U,circle,1,0,,5,,,,,,,,,,,,,,switch,letter,lettSwt,k,0.6845,vtsPrac,1,0,1,0,1,,,,,,,,,,,,,,,,,,,,,,,
296782,2022-09-22_21h57.17.097,vts_reward_expectancy,2022.2.4,MacIntel,59.84082341,Chrome,1440,900,,,,,0,666,,,,,,,,,,,,,,,,,132,H,star,1,0,,5,,,,,,,,,,,,,,switch,number,numSwt,d,0.6827,vtsPrac,2,0,2,0,1,,,,,,,,,,,,,,,,,,,,,,,
296782,2022-09-22_21h57.17.097,vts_reward_expectancy,2022.2.4,MacIntel,59.84082341,Chrome,1440,900,,,,,0,666,,,,,,,,,,,,,,,,,174,B,circle,1,0,,5,,,,,,,,,,,,,,switch,letter,lettSwt,j,0.8174,vtsPrac,3,0,3,0,1,,,,,,,,,,,,,,,,,,,,,,,
296782,2022-09-22_21h57.17.097,vts_reward_expectancy,2022.2.4,MacIntel,59.84082341,Chrome,1440,900,,,,,0,666,,,,,,,,,,,,,,,,,125,S,triangle,1,0,,5,,,,,,,,,,,,,,switch,number,numSwt,d,0.5828,vtsPrac,4,0,4,0,1,,,,,,,,,,,,,,,,,,,,,,,
296782,2022-09-22_21h57.17.097,vts_reward_expectancy,2022.2.4,MacIntel,59.84082341,Chrome,1440,900,,,,,0,666,,,,,,,,,,,,,,,,,160,U,circle,1,0,,5,,,,,,,,,,,,,,switch,letter,lettSwt,k,0.6037,vtsPrac,5,0,5,0,1,,,,,,,,,,,,,,,,,,,,,,,
296782,2022-09-22_21h57.17.097,vts_reward_expectancy,2022.2.4,MacIntel,59.84082341,Chrome,1440,900,,,,,0,666,,,,,,,,,,,,,,,,,132,H,circle,1,0,,5,,,,,,,,,,,,,,switch,number,numSwt,d,1.3728,vtsPrac,6,0,6,0,1,,,,,,,,,,,,,,,,,,,,,,,
296782,2022-09-22_21h57.17.097,vts_reward_expectancy,2022.2.4,MacIntel,59.84082341,Chrome,1440,900,,,,,0,666,,,,,,,,,,,,,,,,,174,B,hexagon,1,0,,5,,,,,,,,,,,,,,switch,letter,lettSwt,j,0.9179,vtsPrac,7,0,7,0,1,,,,,,,,,,,,,,,,,,,,,,,
296782,2022-09-22_21h57.17.097,vts_reward_expectancy,2022.2.4,MacIntel,59.84082341,Chrome,1440,900,,,,,0,666,,,,,,,,,,,,,,,,,174,F,hexagon,1,0,,5,,,,,,,,,,,,,,switch,number,numSwt,f,1.3529,vtsPrac,8,0,8,0,1,,,,,,,,,,,,,,,,,,,,,,,
296782,2022-09-22_21h57.17.097,vts_reward_expectancy,2022.2.4,MacIntel,59.84082341,Chrome,1440,900,,,,,0,666,,,,,,,,,,,,,,,,,139,U,star,1,0,,5,,,,,,,,,,,,,,switch,letter,lettSwt,k,0.7857,vtsPrac,9,0,9,0,1,,,,,,,,,,,,,,,,,,,,,,,
296782,2022-09-22_21h57.17.097,vts_reward_expectancy,2022.2.4,MacIntel,59.84082341,Chrome,1440,900,,,,,0,666,,,,,,,,,,,,,,,,,160,H,hexagon,1,0,,5,,,,,,,,,,,,,,switch,number,numSwt,f,0.7651,vtsPrac,10,0,10,0,1,,,,,,,,,,,,,,,,,,,,,,,
296782,2022-09-22_21h57.17.097,vts_reward_expectancy,2022.2.4,MacIntel,59.84082341,Chrome,1440,900,,,,,0,666,,,,,,,,,,,,,,,,,132,Y,star,1,0,,5,,,,,,,,,,,,,,switch,letter,lettSwt,k,1.8049,vtsPrac,11,0,11,0,1,,,,,,,,,,,,,,,,,,,,,,,
296782,2022-09-22_21h57.17.097,vts_reward_expectancy,2022.2.4,MacIntel,59.84082341,Chrome,1440,900,,,,,0,666,,,,,,,,,,,,,,,,,160,D,star,1,0,,5,,,,,,,,,,,,,,switch,number,numSwt,f,1.3664,vtsPrac,12,0,12,0,1,,,,,,,,,,,,,,,,,,,,,,,
296782,2022-09-22_21h57.17.097,vts_reward_expectancy,2022.2.4,MacIntel,59.84082341,Chrome,1440,900,,,,,0,666,,,,,,,,,,,,,,,,,167,S,circle,1,0,,5,,,,,,,,,,,,,,switch,letter,lettSwt,k,0.8492,vtsPrac,13,0,13,0,1,,,,,,,,,,,,,,,,,,,,,,,
296782,2022-09-22_21h57.17.097,vts_reward_expectancy,2022.2.4,MacIntel,59.84082341,Chrome,1440,900,,,,,0,666,,,,,,,,,,,,,,,,,181,H,hexagon,1,0,,5,,,,,,,,,,,,,,switch,number,numSwt,f,1.387,vtsPrac,14,0,14,0,1,,,,,,,,,,,,,,,,,,,,,,,
296782,2022-09-22_21h57.17.097,vts_reward_expectancy,2022.2.4,MacIntel,59.84082341,Chrome,1440,900,,,,,0,666,,,,,,,,,,,,,,,,,146,W,circle,1,0,,5,,,,,,,,,,,,,,switch,letter,lettSwt,k,0.734,vtsPrac,15,0,15,0,1,,,,,,,,,,,,,,,,,,,,,,,
296782,2022-09-22_21h57.17.097,vts_reward_expectancy,2022.2.4,MacIntel,59.84082341,Chrome,1440,900,,,,,0,666,,,,,,,,,,,,,,,,,139,W,circle,1,0,,6,,,,,,,,,,,,,,switch,number,numSwt,d,1.4032,vtsPrac,0,0,0,0,1,,,,,,,,,,,,,,,,,,,,,,,
296782,2022-09-22_21h57.17.097,vts_reward_expectancy,2022.2.4,MacIntel,59.84082341,Chrome,1440,900,,,,,0,666,,,,,,,,,,,,,,,,,125,F,triangle,1,0,,6,,,,,,,,,,,,,,repeat,number,numRpt,d,1.0767,vtsPrac,1,0,1,0,1,,,,,,,,,,,,,,,,,,,,,,,
296782,2022-09-22_21h57.17.097,vts_reward_expectancy,2022.2.4,MacIntel,59.84082341,Chrome,1440,900,,,,,0,666,,,,,,,,,,,,,,,,,146,D,circle,1,0,,6,,,,,,,,,,,,,,switch,letter,lettSwt,j,1.5693,vtsPrac,2,0,2,0,1,,,,,,,,,,,,,,,,,,,,,,,
296782,2022-09-22_21h57.17.097,vts_reward_expectancy,2022.2.4,MacIntel,59.84082341,Chrome,1440,900,,,,,0,666,,,,,,,,,,,,,,,,,160,Y,triangle,1,0,,6,,,,,,,,,,,,,,switch,number,numSwt,f,0.8178,vtsPrac,3,0,3,0,1,,,,,,,,,,,,,,,,,,,,,,,
296782,2022-09-22_21h57.17.097,vts_reward_expectancy,2022.2.4,MacIntel,59.84082341,Chrome,1440,900,,,,,0,666,,,,,,,,,,,,,,,,,139,W,star,1,0,,6,,,,,,,,,,,,,,repeat,number,numRpt,d,1.1496,vtsPrac,4,0,4,0,1,,,,,,,,,,,,,,,,,,,,,,,
296782,2022-09-22_21h57.17.097,vts_reward_expectancy,2022.2.4,MacIntel,59.84082341,Chrome,1440,900,,,,,0,666,,,,,,,,,,,,,,,,,125,F,hexagon,1,0,,6,,,,,,,,,,,,,,repeat,number,numRpt,d,0.8709,vtsPrac,5,0,5,0,1,,,,,,,,,,,,,,,,,,,,,,,
296782,2022-09-22_21h57.17.097,vts_reward_expectancy,2022.2.4,MacIntel,59.84082341,Chrome,1440,900,,,,,0,666,,,,,,,,,,,,,,,,,146,D,hexagon,1,0,,6,,,,,,,,,,,,,,repeat,number,numRpt,d,0.9891,vtsPrac,6,0,6,0,1,,,,,,,,,,,,,,,,,,,,,,,
296782,2022-09-22_21h57.17.097,vts_reward_expectancy,2022.2.4,MacIntel,59.84082341,Chrome,1440,900,,,,,0,666,,,,,,,,,,,,,,,,,160,Y,triangle,1,0,,6,,,,,,,,,,,,,,switch,letter,lettSwt,k,0.9487,vtsPrac,7,0,7,0,1,,,,,,,,,,,,,,,,,,,,,,,
296782,2022-09-22_21h57.17.097,vts_reward_expectancy,2022.2.4,MacIntel,59.84082341,Chrome,1440,900,,,,,0,666,,,,,,,,,,,,,,,,,132,B,hexagon,1,0,,6,,,,,,,,,,,,,,repeat,letter,lettRpt,j,1.0853,vtsPrac,8,0,8,0,1,,,,,,,,,,,,,,,,,,,,,,,
296782,2022-09-22_21h57.17.097,vts_reward_expectancy,2022.2.4,MacIntel,59.84082341,Chrome,1440,900,,,,,0,666,,,,,,,,,,,,,,,,,139,F,circle,1,0,,6,,,,,,,,,,,,,,repeat,letter,lettRpt,j,1.0189,vtsPrac,9,0,9,0,1,,,,,,,,,,,,,,,,,,,,,,,
296782,2022-09-22_21h57.17.097,vts_reward_expectancy,2022.2.4,MacIntel,59.84082341,Chrome,1440,900,,,,,0,666,,,,,,,,,,,,,,,,,146,U,hexagon,1,0,,6,,,,,,,,,,,,,,repeat,letter,lettRpt,k,0.7676,vtsPrac,10,0,10,0,1,,,,,,,,,,,,,,,,,,,,,,,
296782,2022-09-22_21h57.17.097,vts_reward_expectancy,2022.2.4,MacIntel,59.84082341,Chrome,1440,900,,,,,0,666,,,,,,,,,,,,,,,,,167,W,circle,1,0,,6,,,,,,,,,,,,,,repeat,letter,lettRpt,k,0.6885,vtsPrac,11,0,11,0,1,,,,,,,,,,,,,,,,,,,,,,,
296782,2022-09-22_21h57.17.097,vts_reward_expectancy,2022.2.4,MacIntel,59.84082341,Chrome,1440,900,,,,,0,666,,,,,,,,,,,,,,,,,181,F,triangle,1,0,,6,,,,,,,,,,,,,,switch,number,numSwt,f,0.6007,vtsPrac,12,0,12,0,1,,,,,,,,,,,,,,,,,,,,,,,
296782,2022-09-22_21h57.17.097,vts_reward_expectancy,2022.2.4,MacIntel,59.84082341,Chrome,1440,900,,,,,0,666,,,,,,,,,,,,,,,,,160,U,circle,1,0,,6,,,,,,,,,,,,,,repeat,number,numRpt,f,1.1843,vtsPrac,13,0,13,0,1,,,,,,,,,,,,,,,,,,,,,,,
296782,2022-09-22_21h57.17.097,vts_reward_expectancy,2022.2.4,MacIntel,59.84082341,Chrome,1440,900,,,,,0,666,,,,,,,,,,,,,,,,,167,W,hexagon,1,0,,6,,,,,,,,,,,,,,repeat,number,numRpt,f,1.0313,vtsPrac,14,0,14,0,1,,,,,,,,,,,,,,,,,,,,,,,
296782,2022-09-22_21h57.17.097,vts_reward_expectancy,2022.2.4,MacIntel,59.84082341,Chrome,1440,900,,,,,0,666,,,,,,,,,,,,,,,,,174,Y,star,1,0,,6,,,,,,,,,,,,,,switch,letter,lettSwt,k,0.7833,vtsPrac,15,0,15,0,1,,,,,,,,,,,,,,,,,,,,,,,
296782,2022-09-22_21h57.17.097,vts_reward_expectancy,2022.2.4,MacIntel,59.84082341,Chrome,1440,900,,,,,,,,,,,,,,,,,,,,,,,,,,,,,,,,,,,,,,,,,,,,,,,,,,,,,,,,,,,,,,,,,,,,,,,,,,,,
296782,2022-09-22_21h57.17.097,vts_reward_expectancy,2022.2.4,MacIntel,59.84082341,Chrome,1440,900,,,,,,,,,,,,,,,,,,,,,,,,,,,,,,,,,,,,,,,,,,,,,,,,,,,,,,,,,,,,,,,,,,,,,,,,,,,,
296782,2022-09-22_21h57.17.097,vts_reward_expectancy,2022.2.4,MacIntel,59.84082341,Chrome,1440,900,,,,,0,666,,,,,,,,,,,,,,,,,167,U,circle,1,0,,,,,,,,,,,,,,,,switch,number,numSwt,f,1.6196,noRew,,,,,,0,0,0,0,0,1,,,,,,,,,,,,,,,,,
296782,2022-09-22_21h57.17.097,vts_reward_expectancy,2022.2.4,MacIntel,59.84082341,Chrome,1440,900,,,,,0,666,,,,,,,,,,,,,,,,,125,B,hexagon,1,0,,,,,,,,,,,,,,,,repeat,number,numRpt,d,1.351,noRew,,,,,,0,1,0,1,0,1,,,,,,,,,,,,,,,,,
296782,2022-09-22_21h57.17.097,vts_reward_expectancy,2022.2.4,MacIntel,59.84082341,Chrome,1440,900,,,,,0,666,,,,,,,,,,,,,,,,,174,F,circle,1,0,,,,,,,,,,,,,,,,repeat,number,numRpt,f,0.8567,noRew,,,,,,0,2,0,2,0,1,,,,,,,,,,,,,,,,,
296782,2022-09-22_21h57.17.097,vts_reward_expectancy,2022.2.4,MacIntel,59.84082341,Chrome,1440,900,,,,,0,666,,,,,,,,,,,,,,,,,139,D,hexagon,1,0,,,,,,,,,,,,,,,,switch,letter,lettSwt,j,1.4993,noRew,,,,,,0,3,0,3,0,1,,,,,,,,,,,,,,,,,
296782,2022-09-22_21h57.17.097,vts_reward_expectancy,2022.2.4,MacIntel,59.84082341,Chrome,1440,900,,,,,0,666,,,,,,,,,,,,,,,,,167,U,star,1,0,,,,,,,,,,,,,,,,repeat,letter,lettRpt,k,1.453,noRew,,,,,,0,4,0,4,0,1,,,,,,,,,,,,,,,,,
296782,2022-09-22_21h57.17.097,vts_reward_expectancy,2022.2.4,MacIntel,59.84082341,Chrome,1440,900,,,,,0,666,,,,,,,,,,,,,,,,,125,B,hexagon,1,0,,,,,,,,,,,,,,,,repeat,letter,lettRpt,j,0.7716,noRew,,,,,,0,5,0,5,0,1,,,,,,,,,,,,,,,,,
296782,2022-09-22_21h57.17.097,vts_reward_expectancy,2022.2.4,MacIntel,59.84082341,Chrome,1440,900,,,,,0,666,,,,,,,,,,,,,,,,,174,F,hexagon,1,0,,,,,,,,,,,,,,,,switch,number,numSwt,f,1.0002,noRew,,,,,,0,6,0,6,0,1,,,,,,,,,,,,,,,,,
296782,2022-09-22_21h57.17.097,vts_reward_expectancy,2022.2.4,MacIntel,59.84082341,Chrome,1440,900,,,,,0,666,,,,,,,,,,,,,,,,,139,D,circle,1,0,,,,,,,,,,,,,,,,repeat,number,numRpt,d,1.8407,noRew,,,,,,0,7,0,7,0,1,,,,,,,,,,,,,,,,,
296782,2022-09-22_21h57.17.097,vts_reward_expectancy,2022.2.4,MacIntel,59.84082341,Chrome,1440,900,,,,,0,666,,,,,,,,,,,,,,,,,125,W,hexagon,1,0,,,,,,,,,,,,,,,,switch,letter,lettSwt,k,1.4991,noRew,,,,,,0,8,0,8,0,1,,,,,,,,,,,,,,,,,
296782,2022-09-22_21h57.17.097,vts_reward_expectancy,2022.2.4,MacIntel,59.84082341,Chrome,1440,900,,,,,0,666,,,,,,,,,,,,,,,,,139,F,star,-1,0,,,,,,,,,,,,,,,,switch,no_choice,NA,,,noRew,,,,,,0,9,0,9,0,1,,,,,,,,,,,,,,,,,
296782,2022-09-22_21h57.17.097,vts_reward_expectancy,2022.2.4,MacIntel,59.84082341,Chrome,1440,900,,,,,0,666,,,,,,,,,,,,,,,,,146,Y,triangle,1,0,,,,,,,,,,,,,,,,switch,number,numSwt,d,1.7375,noRew,,,,,,0,10,0,10,0,1,,,,,,,,,,,,,,,,,
296782,2022-09-22_21h57.17.097,vts_reward_expectancy,2022.2.4,MacIntel,59.84082341,Chrome,1440,900,,,,,0,666,,,,,,,,,,,,,,,,,132,S,hexagon,1,0,,,,,,,,,,,,,,,,repeat,number,numRpt,d,2.1104,noRew,,,,,,0,11,0,11,0,1,,,,,,,,,,,,,,,,,
296782,2022-09-22_21h57.17.097,vts_reward_expectancy,2022.2.4,MacIntel,59.84082341,Chrome,1440,900,,,,,0,666,,,,,,,,,,,,,,,,,146,U,hexagon,1,0,,,,,,,,,,,,,,,,switch,letter,lettSwt,k,0.8045,noRew,,,,,,0,12,0,12,0,1,,,,,,,,,,,,,,,,,
296782,2022-09-22_21h57.17.097,vts_reward_expectancy,2022.2.4,MacIntel,59.84082341,Chrome,1440,900,,,,,0,666,,,,,,,,,,,,,,,,,181,D,triangle,1,0,,,,,,,,,,,,,,,,repeat,letter,lettRpt,j,1.0012,noRew,,,,,,0,13,0,13,0,1,,,,,,,,,,,,,,,,,
296782,2022-09-22_21h57.17.097,vts_reward_expectancy,2022.2.4,MacIntel,59.84082341,Chrome,1440,900,,,,,0,666,,,,,,,,,,,,,,,,,125,F,triangle,1,0,,,,,,,,,,,,,,,,repeat,letter,lettRpt,j,0.8711,noRew,,,,,,0,14,0,14,0,1,,,,,,,,,,,,,,,,,
296782,2022-09-22_21h57.17.097,vts_reward_expectancy,2022.2.4,MacIntel,59.84082341,Chrome,1440,900,,,,,0,666,,,,,,,,,,,,,,,,,167,S,hexagon,1,0,,,,,,,,,,,,,,,,repeat,letter,lettRpt,k,0.8171,noRew,,,,,,0,15,0,15,0,1,,,,,,,,,,,,,,,,,
296782,2022-09-22_21h57.17.097,vts_reward_expectancy,2022.2.4,MacIntel,59.84082341,Chrome,1440,900,,,,,0,666,,,,,,,,,,,,,,,,,167,B,hexagon,1,0,,,,,,,,,,,,,,,,switch,number,numSwt,f,0.8856,noRew,,,,,,0,16,0,16,0,1,,,,,,,,,,,,,,,,,
296782,2022-09-22_21h57.17.097,vts_reward_expectancy,2022.2.4,MacIntel,59.84082341,Chrome,1440,900,,,,,0,666,,,,,,,,,,,,,,,,,125,U,circle,1,0,,,,,,,,,,,,,,,,repeat,number,numRpt,d,1.467,noRew,,,,,,0,17,0,17,0,1,,,,,,,,,,,,,,,,,
296782,2022-09-22_21h57.17.097,vts_reward_expectancy,2022.2.4,MacIntel,59.84082341,Chrome,1440,900,,,,,0,666,,,,,,,,,,,,,,,,,181,Y,triangle,1,0,,,,,,,,,,,,,,,,repeat,number,numRpt,f,0.9686,noRew,,,,,,0,18,0,18,0,1,,,,,,,,,,,,,,,,,
296782,2022-09-22_21h57.17.097,vts_reward_expectancy,2022.2.4,MacIntel,59.84082341,Chrome,1440,900,,,,,0,666,,,,,,,,,,,,,,,,,160,W,hexagon,1,0,,,,,,,,,,,,,,,,switch,letter,lettSwt,k,1.2177,noRew,,,,,,0,19,0,19,0,1,,,,,,,,,,,,,,,,,
296782,2022-09-22_21h57.17.097,vts_reward_expectancy,2022.2.4,MacIntel,59.84082341,Chrome,1440,900,,,,,0,666,,,,,,,,,,,,,,,,,132,H,star,1,0,,,,,,,,,,,,,,,,repeat,letter,lettRpt,j,1.4539,noRew,,,,,,0,20,0,20,0,1,,,,,,,,,,,,,,,,,
296782,2022-09-22_21h57.17.097,vts_reward_expectancy,2022.2.4,MacIntel,59.84082341,Chrome,1440,900,,,,,0,666,,,,,,,,,,,,,,,,,125,D,circle,1,0,,,,,,,,,,,,,,,,repeat,letter,lettRpt,j,0.9982,noRew,,,,,,0,21,0,21,0,1,,,,,,,,,,,,,,,,,
296782,2022-09-22_21h57.17.097,vts_reward_expectancy,2022.2.4,MacIntel,59.84082341,Chrome,1440,900,,,,,0,666,,,,,,,,,,,,,,,,,174,F,triangle,1,0,,,,,,,,,,,,,,,,repeat,letter,lettRpt,j,1.6741,noRew,,,,,,0,22,0,22,0,1,,,,,,,,,,,,,,,,,
296782,2022-09-22_21h57.17.097,vts_reward_expectancy,2022.2.4,MacIntel,59.84082341,Chrome,1440,900,,,,,0,666,,,,,,,,,,,,,,,,,160,S,hexagon,1,0,,,,,,,,,,,,,,,,switch,number,numSwt,f,0.6001,noRew,,,,,,0,23,0,23,0,1,,,,,,,,,,,,,,,,,
296782,2022-09-22_21h57.17.097,vts_reward_expectancy,2022.2.4,MacIntel,59.84082341,Chrome,1440,900,,,,,0,666,,,,,,,,,,,,,,,,,146,F,triangle,1,0,,,,,,,,,,,,,,,,repeat,number,numRpt,d,1.4884,noRew,,,,,,0,24,0,24,0,1,,,,,,,,,,,,,,,,,
296782,2022-09-22_21h57.17.097,vts_reward_expectancy,2022.2.4,MacIntel,59.84082341,Chrome,1440,900,,,,,0,666,,,,,,,,,,,,,,,,,132,W,circle,1,0,,,,,,,,,,,,,,,,repeat,number,numRpt,d,1.1987,noRew,,,,,,0,25,0,25,0,1,,,,,,,,,,,,,,,,,
296782,2022-09-22_21h57.17.097,vts_reward_expectancy,2022.2.4,MacIntel,59.84082341,Chrome,1440,900,,,,,0,666,,,,,,,,,,,,,,,,,139,Y,circle,1,0,,,,,,,,,,,,,,,,switch,letter,lettSwt,k,1.7159,noRew,,,,,,0,26,0,26,0,1,,,,,,,,,,,,,,,,,
296782,2022-09-22_21h57.17.097,vts_reward_expectancy,2022.2.4,MacIntel,59.84082341,Chrome,1440,900,,,,,0,666,,,,,,,,,,,,,,,,,174,U,hexagon,1,0,,,,,,,,,,,,,,,,repeat,letter,lettRpt,k,1.251,noRew,,,,,,0,27,0,27,0,1,,,,,,,,,,,,,,,,,
296782,2022-09-22_21h57.17.097,vts_reward_expectancy,2022.2.4,MacIntel,59.84082341,Chrome,1440,900,,,,,0,666,,,,,,,,,,,,,,,,,139,B,circle,1,0,,,,,,,,,,,,,,,,repeat,letter,lettRpt,j,0.6231,noRew,,,,,,0,28,0,28,0,1,,,,,,,,,,,,,,,,,
296782,2022-09-22_21h57.17.097,vts_reward_expectancy,2022.2.4,MacIntel,59.84082341,Chrome,1440,900,,,,,0,666,,,,,,,,,,,,,,,,,181,H,triangle,1,0,,,,,,,,,,,,,,,,repeat,letter,lettRpt,j,1.0305,noRew,,,,,,0,29,0,29,0,1,,,,,,,,,,,,,,,,,
296782,2022-09-22_21h57.17.097,vts_reward_expectancy,2022.2.4,MacIntel,59.84082341,Chrome,1440,900,,,,,0,666,,,,,,,,,,,,,,,,,146,W,star,1,0,,,,,,,,,,,,,,,,repeat,letter,lettRpt,k,0.9363,noRew,,,,,,0,30,0,30,0,1,,,,,,,,,,,,,,,,,
296782,2022-09-22_21h57.17.097,vts_reward_expectancy,2022.2.4,MacIntel,59.84082341,Chrome,1440,900,,,,,0,666,,,,,,,,,,,,,,,,,167,S,hexagon,1,0,,,,,,,,,,,,,,,,switch,number,numSwt,f,1.1529,noRew,,,,,,0,31,0,31,0,1,,,,,,,,,,,,,,,,,
296782,2022-09-22_21h57.17.097,vts_reward_expectancy,2022.2.4,MacIntel,59.84082341,Chrome,1440,900,,,,,0,666,,,,,,,,,,,,,,,,,160,B,hexagon,1,0,,,,,,,,,,,,,,,,repeat,number,numRpt,f,1.0894,noRew,,,,,,0,32,0,32,0,1,,,,,,,,,,,,,,,,,
296782,2022-09-22_21h57.17.097,vts_reward_expectancy,2022.2.4,MacIntel,59.84082341,Chrome,1440,900,,,,,0,666,,,,,,,,,,,,,,,,,125,S,triangle,1,0,,,,,,,,,,,,,,,,switch,letter,lettSwt,k,1.1883,noRew,,,,,,0,33,0,33,0,1,,,,,,,,,,,,,,,,,
296782,2022-09-22_21h57.17.097,vts_reward_expectancy,2022.2.4,MacIntel,59.84082341,Chrome,1440,900,,,,,0,666,,,,,,,,,,,,,,,,,139,D,hexagon,1,0,,,,,,,,,,,,,,,,switch,number,numSwt,d,1.15,noRew,,,,,,0,34,0,34,0,1,,,,,,,,,,,,,,,,,
296782,2022-09-22_21h57.17.097,vts_reward_expectancy,2022.2.4,MacIntel,59.84082341,Chrome,1440,900,,,,,0,666,,,,,,,,,,,,,,,,,174,U,triangle,1,0,,,,,,,,,,,,,,,,switch,letter,lettSwt,k,0.6828,noRew,,,,,,0,35,0,35,0,1,,,,,,,,,,,,,,,,,
296782,2022-09-22_21h57.17.097,vts_reward_expectancy,2022.2.4,MacIntel,59.84082341,Chrome,1440,900,,,,,0,666,,,,,,,,,,,,,,,,,167,Y,hexagon,1,0,,,,,,,,,,,,,,,,switch,number,numSwt,f,1.286,noRew,,,,,,0,36,0,36,0,1,,,,,,,,,,,,,,,,,
296782,2022-09-22_21h57.17.097,vts_reward_expectancy,2022.2.4,MacIntel,59.84082341,Chrome,1440,900,,,,,0,666,,,,,,,,,,,,,,,,,125,F,star,1,0,,,,,,,,,,,,,,,,switch,letter,lettSwt,j,1.3016,noRew,,,,,,0,37,0,37,0,1,,,,,,,,,,,,,,,,,
296782,2022-09-22_21h57.17.097,vts_reward_expectancy,2022.2.4,MacIntel,59.84082341,Chrome,1440,900,,,,,0,666,,,,,,,,,,,,,,,,,181,H,circle,1,0,,,,,,,,,,,,,,,,repeat,letter,lettRpt,j,1.404,noRew,,,,,,0,38,0,38,0,1,,,,,,,,,,,,,,,,,
296782,2022-09-22_21h57.17.097,vts_reward_expectancy,2022.2.4,MacIntel,59.84082341,Chrome,1440,900,,,,,0,666,,,,,,,,,,,,,,,,,174,D,star,1,0,,,,,,,,,,,,,,,,switch,number,numSwt,f,1.6044,noRew,,,,,,0,39,0,39,0,1,,,,,,,,,,,,,,,,,
296782,2022-09-22_21h57.17.097,vts_reward_expectancy,2022.2.4,MacIntel,59.84082341,Chrome,1440,900,,,,,0,666,,,,,,,,,,,,,,,,,181,S,star,1,0,,,,,,,,,,,,,,,,repeat,number,numRpt,f,0.7389,noRew,,,,,,0,40,0,40,0,1,,,,,,,,,,,,,,,,,
296782,2022-09-22_21h57.17.097,vts_reward_expectancy,2022.2.4,MacIntel,59.84082341,Chrome,1440,900,,,,,0,666,,,,,,,,,,,,,,,,,160,B,triangle,1,0,,,,,,,,,,,,,,,,repeat,number,numRpt,f,1.486,noRew,,,,,,0,41,0,41,0,1,,,,,,,,,,,,,,,,,
296782,2022-09-22_21h57.17.097,vts_reward_expectancy,2022.2.4,MacIntel,59.84082341,Chrome,1440,900,,,,,0,666,,,,,,,,,,,,,,,,,132,F,triangle,1,0,,,,,,,,,,,,,,,,switch,letter,lettSwt,j,1.0994,noRew,,,,,,0,42,0,42,0,1,,,,,,,,,,,,,,,,,
296782,2022-09-22_21h57.17.097,vts_reward_expectancy,2022.2.4,MacIntel,59.84082341,Chrome,1440,900,,,,,0,666,,,,,,,,,,,,,,,,,174,U,hexagon,1,0,,,,,,,,,,,,,,,,repeat,letter,lettRpt,k,0.7704,noRew,,,,,,0,43,0,43,0,1,,,,,,,,,,,,,,,,,
296782,2022-09-22_21h57.17.097,vts_reward_expectancy,2022.2.4,MacIntel,59.84082341,Chrome,1440,900,,,,,0,666,,,,,,,,,,,,,,,,,181,D,star,1,0,,,,,,,,,,,,,,,,repeat,letter,lettRpt,j,0.7008,noRew,,,,,,0,44,0,44,0,1,,,,,,,,,,,,,,,,,
296782,2022-09-22_21h57.17.097,vts_reward_expectancy,2022.2.4,MacIntel,59.84082341,Chrome,1440,900,,,,,0,666,,,,,,,,,,,,,,,,,139,H,circle,1,0,,,,,,,,,,,,,,,,switch,number,numSwt,d,0.7922,noRew,,,,,,0,45,0,45,0,1,,,,,,,,,,,,,,,,,
296782,2022-09-22_21h57.17.097,vts_reward_expectancy,2022.2.4,MacIntel,59.84082341,Chrome,1440,900,,,,,0,666,,,,,,,,,,,,,,,,,125,S,triangle,1,0,,,,,,,,,,,,,,,,repeat,number,numRpt,d,0.8815,noRew,,,,,,0,46,0,46,0,1,,,,,,,,,,,,,,,,,
296782,2022-09-22_21h57.17.097,vts_reward_expectancy,2022.2.4,MacIntel,59.84082341,Chrome,1440,900,,,,,0,666,,,,,,,,,,,,,,,,,160,Y,hexagon,1,0,,,,,,,,,,,,,,,,repeat,number,numRpt,f,1.0995,noRew,,,,,,0,47,0,47,0,1,,,,,,,,,,,,,,,,,
296782,2022-09-22_21h57.17.097,vts_reward_expectancy,2022.2.4,MacIntel,59.84082341,Chrome,1440,900,,,,,0,666,,,,,,,,,,,,,,,,,167,B,circle,1,0,,,,,,,,,,,,,,,,repeat,number,numRpt,f,0.9495,noRew,,,,,,0,48,0,48,0,1,,,,,,,,,,,,,,,,,
296782,2022-09-22_21h57.17.097,vts_reward_expectancy,2022.2.4,MacIntel,59.84082341,Chrome,1440,900,,,,,0,666,,,,,,,,,,,,,,,,,125,Y,hexagon,1,0,,,,,,,,,,,,,,,,switch,letter,lettSwt,k,1.3715,noRew,,,,,,0,49,0,49,0,1,,,,,,,,,,,,,,,,,
296782,2022-09-22_21h57.17.097,vts_reward_expectancy,2022.2.4,MacIntel,59.84082341,Chrome,1440,900,,,,,0,666,,,,,,,,,,,,,,,,,139,F,circle,1,0,,,,,,,,,,,,,,,,repeat,letter,lettRpt,j,1.3176,noRew,,,,,,0,50,0,50,0,1,,,,,,,,,,,,,,,,,
296782,2022-09-22_21h57.17.097,vts_reward_expectancy,2022.2.4,MacIntel,59.84082341,Chrome,1440,900,,,,,0,666,,,,,,,,,,,,,,,,,160,H,triangle,1,0,,,,,,,,,,,,,,,,repeat,letter,lettRpt,j,1.2841,noRew,,,,,,0,51,0,51,0,1,,,,,,,,,,,,,,,,,
296782,2022-09-22_21h57.17.097,vts_reward_expectancy,2022.2.4,MacIntel,59.84082341,Chrome,1440,900,,,,,0,666,,,,,,,,,,,,,,,,,139,U,circle,1,0,,,,,,,,,,,,,,,,repeat,letter,lettRpt,k,0.8033,noRew,,,,,,0,52,0,52,0,1,,,,,,,,,,,,,,,,,
296782,2022-09-22_21h57.17.097,vts_reward_expectancy,2022.2.4,MacIntel,59.84082341,Chrome,1440,900,,,,,0,666,,,,,,,,,,,,,,,,,167,H,star,1,0,,,,,,,,,,,,,,,,repeat,letter,lettRpt,j,0.9908,noRew,,,,,,0,53,0,53,0,1,,,,,,,,,,,,,,,,,
296782,2022-09-22_21h57.17.097,vts_reward_expectancy,2022.2.4,MacIntel,59.84082341,Chrome,1440,900,,,,,0,666,,,,,,,,,,,,,,,,,181,Y,hexagon,1,0,,,,,,,,,,,,,,,,repeat,letter,lettRpt,k,0.9483,noRew,,,,,,0,54,0,54,0,1,,,,,,,,,,,,,,,,,
296782,2022-09-22_21h57.17.097,vts_reward_expectancy,2022.2.4,MacIntel,59.84082341,Chrome,1440,900,,,,,0,666,,,,,,,,,,,,,,,,,132,S,triangle,1,0,,,,,,,,,,,,,,,,switch,number,numSwt,d,1.0202,noRew,,,,,,0,55,0,55,0,1,,,,,,,,,,,,,,,,,
296782,2022-09-22_21h57.17.097,vts_reward_expectancy,2022.2.4,MacIntel,59.84082341,Chrome,1440,900,,,,,0,666,,,,,,,,,,,,,,,,,139,U,triangle,1,0,,,,,,,,,,,,,,,,repeat,number,numRpt,d,0.842,noRew,,,,,,0,56,0,56,0,1,,,,,,,,,,,,,,,,,
296782,2022-09-22_21h57.17.097,vts_reward_expectancy,2022.2.4,MacIntel,59.84082341,Chrome,1440,900,,,,,0,666,,,,,,,,,,,,,,,,,125,Y,circle,1,0,,,,,,,,,,,,,,,,repeat,number,numRpt,d,0.7541,noRew,,,,,,0,57,0,57,0,1,,,,,,,,,,,,,,,,,
296782,2022-09-22_21h57.17.097,vts_reward_expectancy,2022.2.4,MacIntel,59.84082341,Chrome,1440,900,,,,,0,666,,,,,,,,,,,,,,,,,146,D,hexagon,1,0,,,,,,,,,,,,,,,,repeat,number,numRpt,d,1.8078,noRew,,,,,,0,58,0,58,0,1,,,,,,,,,,,,,,,,,
296782,2022-09-22_21h57.17.097,vts_reward_expectancy,2022.2.4,MacIntel,59.84082341,Chrome,1440,900,,,,,0,666,,,,,,,,,,,,,,,,,174,W,circle,1,0,,,,,,,,,,,,,,,,repeat,number,numRpt,f,0.9822,noRew,,,,,,0,59,0,59,0,1,,,,,,,,,,,,,,,,,
296782,2022-09-22_21h57.17.097,vts_reward_expectancy,2022.2.4,MacIntel,59.84082341,Chrome,1440,900,,,,,0,666,,,,,,,,,,,,,,,,,160,B,triangle,1,0,,,,,,,,,,,,,,,,switch,letter,lettSwt,j,0.9343,noRew,,,,,,0,60,0,60,0,1,,,,,,,,,,,,,,,,,
296782,2022-09-22_21h57.17.097,vts_reward_expectancy,2022.2.4,MacIntel,59.84082341,Chrome,1440,900,,,,,0,666,,,,,,,,,,,,,,,,,139,W,star,1,0,,,,,,,,,,,,,,,,repeat,letter,lettRpt,k,0.6824,noRew,,,,,,0,61,0,61,0,1,,,,,,,,,,,,,,,,,
296782,2022-09-22_21h57.17.097,vts_reward_expectancy,2022.2.4,MacIntel,59.84082341,Chrome,1440,900,,,,,0,666,,,,,,,,,,,,,,,,,132,H,circle,1,0,,,,,,,,,,,,,,,,repeat,letter,lettRpt,j,0.9199,noRew,,,,,,0,62,0,62,0,1,,,,,,,,,,,,,,,,,
296782,2022-09-22_21h57.17.097,vts_reward_expectancy,2022.2.4,MacIntel,59.84082341,Chrome,1440,900,,,,,0,666,,,,,,,,,,,,,,,,,125,Y,hexagon,1,0,,,,,,,,,,,,,,,,repeat,letter,lettRpt,k,1.1854,noRew,,,,,,0,63,0,63,0,1,,,,,,,,,,,,,,,,,
296782,2022-09-22_21h57.17.097,vts_reward_expectancy,2022.2.4,MacIntel,59.84082341,Chrome,1440,900,,,,,,,,,,,,,,,,,,,,,,,,,,,,,,,,,,,,,,,,,,,,,,,,,,,,,,,,,,,,,,,,,,,,,,,,,,,,
296782,2022-09-22_21h57.17.097,vts_reward_expectancy,2022.2.4,MacIntel,59.84082341,Chrome,1440,900,,,,,10,676,,,,,,,,,,,,,,,,,174,U,circle,1,0,,,,,,,,,,,,,,,,switch,number,numSwt,f,1.3715,Lo,,,,,,0,,,,,,space,8.1884,high,0,0,0,0,1,,,,,,,,,
296782,2022-09-22_21h57.17.097,vts_reward_expectancy,2022.2.4,MacIntel,59.84082341,Chrome,1440,900,,,,,0,676,,,,,,,,,,,,,,,,,146,F,star,1,0,,,,,,,,,,,,,,,,switch,letter,lettSwt,j,1.2504,Hi,,,,,,0,,,,,,,,high,1,0,1,0,1,,,,,,,,,
296782,2022-09-22_21h57.17.097,vts_reward_expectancy,2022.2.4,MacIntel,59.84082341,Chrome,1440,900,,,,,1,677,,,,,,,,,,,,,,,,,139,S,circle,1,0,,,,,,,,,,,,,,,,switch,number,numSwt,d,1.1044,Lo,,,,,,0,,,,,,,,high,2,0,2,0,1,,,,,,,,,
296782,2022-09-22_21h57.17.097,vts_reward_expectancy,2022.2.4,MacIntel,59.84082341,Chrome,1440,900,,,,,0,677,,,,,,,,,,,,,,,,,167,D,star,1,0,,,,,,,,,,,,,,,,repeat,number,numRpt,f,1.0339,Hi,,,,,,0,,,,,,,,high,3,0,3,0,1,,,,,,,,,
296782,2022-09-22_21h57.17.097,vts_reward_expectancy,2022.2.4,MacIntel,59.84082341,Chrome,1440,900,,,,,1,678,,,,,,,,,,,,,,,,,125,H,circle,1,0,,,,,,,,,,,,,,,,repeat,number,numRpt,d,0.7652,Lo,,,,,,0,,,,,,,,high,4,0,4,0,1,,,,,,,,,
296782,2022-09-22_21h57.17.097,vts_reward_expectancy,2022.2.4,MacIntel,59.84082341,Chrome,1440,900,,,,,10,688,,,,,,,,,,,,,,,,,160,Y,star,1,0,,,,,,,,,,,,,,,,repeat,number,numRpt,f,0.6011,Hi,,,,,,0,,,,,,,,high,5,0,5,0,1,,,,,,,,,
296782,2022-09-22_21h57.17.097,vts_reward_expectancy,2022.2.4,MacIntel,59.84082341,Chrome,1440,900,,,,,10,698,,,,,,,,,,,,,,,,,132,B,star,1,0,,,,,,,,,,,,,,,,repeat,number,numRpt,d,0.8212,Hi,,,,,,0,,,,,,,,high,6,0,6,0,1,,,,,,,,,
296782,2022-09-22_21h57.17.097,vts_reward_expectancy,2022.2.4,MacIntel,59.84082341,Chrome,1440,900,,,,,1,699,,,,,,,,,,,,,,,,,181,W,circle,1,0,,,,,,,,,,,,,,,,repeat,number,numRpt,f,0.6375,Lo,,,,,,0,,,,,,,,high,7,0,7,0,1,,,,,,,,,
296782,2022-09-22_21h57.17.097,vts_reward_expectancy,2022.2.4,MacIntel,59.84082341,Chrome,1440,900,,,,,0,699,,,,,,,,,,,,,,,,,174,U,star,1,0,,,,,,,,,,,,,,,,repeat,number,numRpt,f,0.9817,Hi,,,,,,0,,,,,,,,high,8,0,8,0,1,,,,,,,,,
296782,2022-09-22_21h57.17.097,vts_reward_expectancy,2022.2.4,MacIntel,59.84082341,Chrome,1440,900,,,,,1,700,,,,,,,,,,,,,,,,,146,F,circle,1,0,,,,,,,,,,,,,,,,switch,letter,lettSwt,j,1.0537,Lo,,,,,,0,,,,,,,,high,9,0,9,0,1,,,,,,,,,
296782,2022-09-22_21h57.17.097,vts_reward_expectancy,2022.2.4,MacIntel,59.84082341,Chrome,1440,900,,,,,1,701,,,,,,,,,,,,,,,,,139,S,circle,1,0,,,,,,,,,,,,,,,,repeat,letter,lettRpt,k,0.6513,Lo,,,,,,0,,,,,,,,high,10,0,10,0,1,,,,,,,,,
296782,2022-09-22_21h57.17.097,vts_reward_expectancy,2022.2.4,MacIntel,59.84082341,Chrome,1440,900,,,,,1,702,,,,,,,,,,,,,,,,,167,D,star,1,0,,,,,,,,,,,,,,,,repeat,letter,lettRpt,j,0.8703,Hi,,,,,,0,,,,,,,,high,11,0,11,0,1,,,,,,,,,
296782,2022-09-22_21h57.17.097,vts_reward_expectancy,2022.2.4,MacIntel,59.84082341,Chrome,1440,900,,,,,1,703,,,,,,,,,,,,,,,,,125,H,circle,1,0,,,,,,,,,,,,,,,,repeat,letter,lettRpt,j,1.053,Lo,,,,,,0,,,,,,,,high,12,0,12,0,1,,,,,,,,,
296782,2022-09-22_21h57.17.097,vts_reward_expectancy,2022.2.4,MacIntel,59.84082341,Chrome,1440,900,,,,,10,713,,,,,,,,,,,,,,,,,160,Y,star,1,0,,,,,,,,,,,,,,,,switch,number,numSwt,f,0.9995,Hi,,,,,,0,,,,,,,,high,13,0,13,0,1,,,,,,,,,
296782,2022-09-22_21h57.17.097,vts_reward_expectancy,2022.2.4,MacIntel,59.84082341,Chrome,1440,900,,,,,1,714,,,,,,,,,,,,,,,,,132,B,circle,1,0,,,,,,,,,,,,,,,,repeat,number,numRpt,d,1.2684,Lo,,,,,,0,,,,,,,,high,14,0,14,0,1,,,,,,,,,
296782,2022-09-22_21h57.17.097,vts_reward_expectancy,2022.2.4,MacIntel,59.84082341,Chrome,1440,900,,,,,0,714,,,,,,,,,,,,,,,,,181,W,star,1,0,,,,,,,,,,,,,,,,repeat,number,numRpt,f,1.1506,Hi,,,,,,0,,,,,,,,high,15,0,15,0,1,,,,,,,,,
296782,2022-09-22_21h57.17.097,vts_reward_expectancy,2022.2.4,MacIntel,59.84082341,Chrome,1440,900,,,,,0,714,,,,,,,,,,,,,,,,,160,W,star,1,0,,,,,,,,,,,,,,,,repeat,number,numRpt,f,1.6957,Hi,,,,,,0,,,,,,,,high,16,0,16,0,1,,,,,,,,,
296782,2022-09-22_21h57.17.097,vts_reward_expectancy,2022.2.4,MacIntel,59.84082341,Chrome,1440,900,,,,,1,715,,,,,,,,,,,,,,,,,139,D,circle,1,0,,,,,,,,,,,,,,,,repeat,number,numRpt,d,1.4685,Lo,,,,,,0,,,,,,,,high,17,0,17,0,1,,,,,,,,,
296782,2022-09-22_21h57.17.097,vts_reward_expectancy,2022.2.4,MacIntel,59.84082341,Chrome,1440,900,,,,,10,725,,,,,,,,,,,,,,,,,146,F,star,1,0,,,,,,,,,,,,,,,,switch,letter,lettSwt,j,1.0511,Hi,,,,,,0,,,,,,,,high,18,0,18,0,1,,,,,,,,,
296782,2022-09-22_21h57.17.097,vts_reward_expectancy,2022.2.4,MacIntel,59.84082341,Chrome,1440,900,,,,,1,726,,,,,,,,,,,,,,,,,181,Y,circle,1,0,,,,,,,,,,,,,,,,repeat,letter,lettRpt,k,0.7172,Lo,,,,,,0,,,,,,,,high,19,0,19,0,1,,,,,,,,,
296782,2022-09-22_21h57.17.097,vts_reward_expectancy,2022.2.4,MacIntel,59.84082341,Chrome,1440,900,,,,,1,727,,,,,,,,,,,,,,,,,174,U,circle,1,0,,,,,,,,,,,,,,,,repeat,letter,lettRpt,k,0.6429,Lo,,,,,,0,,,,,,,,high,20,0,20,0,1,,,,,,,,,
296782,2022-09-22_21h57.17.097,vts_reward_expectancy,2022.2.4,MacIntel,59.84082341,Chrome,1440,900,,,,,10,737,,,,,,,,,,,,,,,,,125,B,star,1,0,,,,,,,,,,,,,,,,repeat,letter,lettRpt,j,0.6653,Hi,,,,,,0,,,,,,,,high,21,0,21,0,1,,,,,,,,,
296782,2022-09-22_21h57.17.097,vts_reward_expectancy,2022.2.4,MacIntel,59.84082341,Chrome,1440,900,,,,,1,738,,,,,,,,,,,,,,,,,132,H,circle,1,0,,,,,,,,,,,,,,,,repeat,letter,lettRpt,j,0.9009,Lo,,,,,,0,,,,,,,,high,22,0,22,0,1,,,,,,,,,
296782,2022-09-22_21h57.17.097,vts_reward_expectancy,2022.2.4,MacIntel,59.84082341,Chrome,1440,900,,,,,10,748,,,,,,,,,,,,,,,,,167,S,star,1,0,,,,,,,,,,,,,,,,switch,number,numSwt,f,0.586,Hi,,,,,,0,,,,,,,,high,23,0,23,0,1,,,,,,,,,
296782,2022-09-22_21h57.17.097,vts_reward_expectancy,2022.2.4,MacIntel,59.84082341,Chrome,1440,900,,,,,1,749,,,,,,,,,,,,,,,,,181,U,circle,1,0,,,,,,,,,,,,,,,,repeat,number,numRpt,f,0.5989,Lo,,,,,,0,,,,,,,,high,24,0,24,0,1,,,,,,,,,
296782,2022-09-22_21h57.17.097,vts_reward_expectancy,2022.2.4,MacIntel,59.84082341,Chrome,1440,900,,,,,1,750,,,,,,,,,,,,,,,,,167,D,star,1,0,,,,,,,,,,,,,,,,repeat,number,numRpt,f,0.9217,Hi,,,,,,0,,,,,,,,high,25,0,25,0,1,,,,,,,,,
296782,2022-09-22_21h57.17.097,vts_reward_expectancy,2022.2.4,MacIntel,59.84082341,Chrome,1440,900,,,,,1,751,,,,,,,,,,,,,,,,,125,B,star,1,0,,,,,,,,,,,,,,,,repeat,number,numRpt,d,0.8508,Hi,,,,,,0,,,,,,,,high,26,0,26,0,1,,,,,,,,,
296782,2022-09-22_21h57.17.097,vts_reward_expectancy,2022.2.4,MacIntel,59.84082341,Chrome,1440,900,,,,,1,752,,,,,,,,,,,,,,,,,132,Y,circle,1,0,,,,,,,,,,,,,,,,switch,letter,lettSwt,k,0.7421,Lo,,,,,,0,,,,,,,,high,27,0,27,0,1,,,,,,,,,
296782,2022-09-22_21h57.17.097,vts_reward_expectancy,2022.2.4,MacIntel,59.84082341,Chrome,1440,900,,,,,10,762,,,,,,,,,,,,,,,,,146,W,star,1,0,,,,,,,,,,,,,,,,repeat,letter,lettRpt,k,0.5657,Hi,,,,,,0,,,,,,,,high,28,0,28,0,1,,,,,,,,,
296782,2022-09-22_21h57.17.097,vts_reward_expectancy,2022.2.4,MacIntel,59.84082341,Chrome,1440,900,,,,,10,772,,,,,,,,,,,,,,,,,160,F,circle,1,0,,,,,,,,,,,,,,,,repeat,letter,lettRpt,j,0.7973,Lo,,,,,,0,,,,,,,,high,29,0,29,0,1,,,,,,,,,
296782,2022-09-22_21h57.17.097,vts_reward_expectancy,2022.2.4,MacIntel,59.84082341,Chrome,1440,900,,,,,10,782,,,,,,,,,,,,,,,,,174,H,circle,1,0,,,,,,,,,,,,,,,,repeat,letter,lettRpt,j,1.065,Lo,,,,,,0,,,,,,,,high,30,0,30,0,1,,,,,,,,,
296782,2022-09-22_21h57.17.097,vts_reward_expectancy,2022.2.4,MacIntel,59.84082341,Chrome,1440,900,,,,,0,782,,,,,,,,,,,,,,,,,139,S,star,1,0,,,,,,,,,,,,,,,,switch,number,numSwt,d,1.4693,Hi,,,,,,0,,,,,,,,high,31,0,31,0,1,,,,,,,,,
296782,2022-09-22_21h57.17.097,vts_reward_expectancy,2022.2.4,MacIntel,59.84082341,Chrome,1440,900,,,,,1,783,,,,,,,,,,,,,,,,,125,S,hexagon,1,0,,,,,,,,,,,,,,,,repeat,number,numRpt,d,1.2194,Lo,,,,,,1,,,,,,space,5.6099,low,0,0,0,0,1,,,,,,,,,
296782,2022-09-22_21h57.17.097,vts_reward_expectancy,2022.2.4,MacIntel,59.84082341,Chrome,1440,900,,,,,1,784,,,,,,,,,,,,,,,,,181,Y,triangle,1,0,,,,,,,,,,,,,,,,repeat,number,numRpt,f,0.6035,Hi,,,,,,1,,,,,,,,low,1,0,1,0,1,,,,,,,,,
296782,2022-09-22_21h57.17.097,vts_reward_expectancy,2022.2.4,MacIntel,59.84082341,Chrome,1440,900,,,,,0,784,,,,,,,,,,,,,,,,,167,W,hexagon,0,0,,,,,,,,,,,,,,,,repeat,number,NA,d,0.9027,Hi,,,,,,1,,,,,,,,low,2,0,2,0,1,,,,,,,,,
296782,2022-09-22_21h57.17.097,vts_reward_expectancy,2022.2.4,MacIntel,59.84082341,Chrome,1440,900,,,,,1,785,,,,,,,,,,,,,,,,,174,F,triangle,1,1,,,,,,,,,,,,,,,,repeat,number,numRpt,f,0.6325,Hi,,,,,,1,,,,,,,,low,3,0,3,0,1,,,,,,,,,
296782,2022-09-22_21h57.17.097,vts_reward_expectancy,2022.2.4,MacIntel,59.84082341,Chrome,1440,900,,,,,1,786,,,,,,,,,,,,,,,,,132,H,triangle,1,0,,,,,,,,,,,,,,,,repeat,number,numRpt,d,0.7489,Hi,,,,,,1,,,,,,,,low,4,0,4,0,1,,,,,,,,,
296782,2022-09-22_21h57.17.097,vts_reward_expectancy,2022.2.4,MacIntel,59.84082341,Chrome,1440,900,,,,,10,796,,,,,,,,,,,,,,,,,139,D,hexagon,1,0,,,,,,,,,,,,,,,,repeat,number,numRpt,d,0.7868,Lo,,,,,,1,,,,,,,,low,5,0,5,0,1,,,,,,,,,
296782,2022-09-22_21h57.17.097,vts_reward_expectancy,2022.2.4,MacIntel,59.84082341,Chrome,1440,900,,,,,0,796,,,,,,,,,,,,,,,,,146,U,hexagon,0,0,,,,,,,,,,,,,,,,repeat,number,NA,f,1.3003,Lo,,,,,,1,,,,,,,,low,6,0,6,0,1,,,,,,,,,
296782,2022-09-22_21h57.17.097,vts_reward_expectancy,2022.2.4,MacIntel,59.84082341,Chrome,1440,900,,,,,10,806,,,,,,,,,,,,,,,,,160,B,triangle,1,1,,,,,,,,,,,,,,,,switch,letter,lettSwt,j,0.9703,Hi,,,,,,1,,,,,,,,low,7,0,7,0,1,,,,,,,,,
296782,2022-09-22_21h57.17.097,vts_reward_expectancy,2022.2.4,MacIntel,59.84082341,Chrome,1440,900,,,,,1,807,,,,,,,,,,,,,,,,,125,S,hexagon,1,0,,,,,,,,,,,,,,,,repeat,letter,lettRpt,k,0.8016,Lo,,,,,,1,,,,,,,,low,8,0,8,0,1,,,,,,,,,
296782,2022-09-22_21h57.17.097,vts_reward_expectancy,2022.2.4,MacIntel,59.84082341,Chrome,1440,900,,,,,0,807,,,,,,,,,,,,,,,,,181,Y,triangle,1,0,,,,,,,,,,,,,,,,repeat,letter,lettRpt,k,1.0241,Hi,,,,,,1,,,,,,,,low,9,0,9,0,1,,,,,,,,,
296782,2022-09-22_21h57.17.097,vts_reward_expectancy,2022.2.4,MacIntel,59.84082341,Chrome,1440,900,,,,,0,807,,,,,,,,,,,,,,,,,167,W,hexagon,-1,0,,,,,,,,,,,,,,,,switch,no_choice,NA,,,Hi,,,,,,1,,,,,,,,low,10,0,10,0,1,,,,,,,,,
296782,2022-09-22_21h57.17.097,vts_reward_expectancy,2022.2.4,MacIntel,59.84082341,Chrome,1440,900,,,,,0,807,,,,,,,,,,,,,,,,,174,F,triangle,1,0,,,,,,,,,,,,,,,,switch,number,numSwt,f,1.4521,Hi,,,,,,1,,,,,,,,low,11,0,11,0,1,,,,,,,,,
296782,2022-09-22_21h57.17.097,vts_reward_expectancy,2022.2.4,MacIntel,59.84082341,Chrome,1440,900,,,,,0,807,,,,,,,,,,,,,,,,,132,H,triangle,1,0,,,,,,,,,,,,,,,,repeat,number,numRpt,d,0.9727,Hi,,,,,,1,,,,,,,,low,12,0,12,0,1,,,,,,,,,
296782,2022-09-22_21h57.17.097,vts_reward_expectancy,2022.2.4,MacIntel,59.84082341,Chrome,1440,900,,,,,1,808,,,,,,,,,,,,,,,,,139,D,hexagon,1,0,,,,,,,,,,,,,,,,repeat,number,numRpt,d,0.8539,Lo,,,,,,1,,,,,,,,low,13,0,13,0,1,,,,,,,,,
296782,2022-09-22_21h57.17.097,vts_reward_expectancy,2022.2.4,MacIntel,59.84082341,Chrome,1440,900,,,,,1,809,,,,,,,,,,,,,,,,,146,U,triangle,1,0,,,,,,,,,,,,,,,,switch,letter,lettSwt,k,1.0141,Hi,,,,,,1,,,,,,,,low,14,0,14,0,1,,,,,,,,,
296782,2022-09-22_21h57.17.097,vts_reward_expectancy,2022.2.4,MacIntel,59.84082341,Chrome,1440,900,,,,,1,810,,,,,,,,,,,,,,,,,160,B,hexagon,1,0,,,,,,,,,,,,,,,,repeat,letter,lettRpt,j,1.0515,Lo,,,,,,1,,,,,,,,low,15,0,15,0,1,,,,,,,,,
296782,2022-09-22_21h57.17.097,vts_reward_expectancy,2022.2.4,MacIntel,59.84082341,Chrome,1440,900,,,,,0,810,,,,,,,,,,,,,,,,,174,H,triangle,0,0,,,,,,,,,,,,,,,,repeat,letter,NA,k,0.7021,Lo,,,,,,1,,,,,,,,low,16,0,16,0,1,,,,,,,,,
296782,2022-09-22_21h57.17.097,vts_reward_expectancy,2022.2.4,MacIntel,59.84082341,Chrome,1440,900,,,,,1,811,,,,,,,,,,,,,,,,,181,F,hexagon,1,1,,,,,,,,,,,,,,,,repeat,letter,lettRpt,j,0.6015,Lo,,,,,,1,,,,,,,,low,17,0,17,0,1,,,,,,,,,
296782,2022-09-22_21h57.17.097,vts_reward_expectancy,2022.2.4,MacIntel,59.84082341,Chrome,1440,900,,,,,1,812,,,,,,,,,,,,,,,,,139,B,hexagon,1,0,,,,,,,,,,,,,,,,repeat,letter,lettRpt,j,1.3449,Lo,,,,,,1,,,,,,,,low,18,0,18,0,1,,,,,,,,,
296782,2022-09-22_21h57.17.097,vts_reward_expectancy,2022.2.4,MacIntel,59.84082341,Chrome,1440,900,,,,,0,812,,,,,,,,,,,,,,,,,146,D,triangle,1,0,,,,,,,,,,,,,,,,switch,number,numSwt,d,1.0681,Hi,,,,,,1,,,,,,,,low,19,0,19,0,1,,,,,,,,,
296782,2022-09-22_21h57.17.097,vts_reward_expectancy,2022.2.4,MacIntel,59.84082341,Chrome,1440,900,,,,,1,813,,,,,,,,,,,,,,,,,132,U,hexagon,1,0,,,,,,,,,,,,,,,,repeat,number,numRpt,d,0.5843,Lo,,,,,,1,,,,,,,,low,20,0,20,0,1,,,,,,,,,
296782,2022-09-22_21h57.17.097,vts_reward_expectancy,2022.2.4,MacIntel,59.84082341,Chrome,1440,900,,,,,10,823,,,,,,,,,,,,,,,,,125,Y,triangle,1,0,,,,,,,,,,,,,,,,repeat,number,numRpt,d,0.6661,Hi,,,,,,1,,,,,,,,low,21,0,21,0,1,,,,,,,,,
296782,2022-09-22_21h57.17.097,vts_reward_expectancy,2022.2.4,MacIntel,59.84082341,Chrome,1440,900,,,,,0,823,,,,,,,,,,,,,,,,,160,S,hexagon,0,0,,,,,,,,,,,,,,,,repeat,number,NA,d,0.5839,Hi,,,,,,1,,,,,,,,low,22,0,22,0,1,,,,,,,,,
296782,2022-09-22_21h57.17.097,vts_reward_expectancy,2022.2.4,MacIntel,59.84082341,Chrome,1440,900,,,,,0,823,,,,,,,,,,,,,,,,,167,W,triangle,1,1,,,,,,,,,,,,,,,,repeat,number,numRpt,f,0.9163,Hi,,,,,,1,,,,,,,,low,23,0,23,0,1,,,,,,,,,
296782,2022-09-22_21h57.17.097,vts_reward_expectancy,2022.2.4,MacIntel,59.84082341,Chrome,1440,900,,,,,10,833,,,,,,,,,,,,,,,,,139,S,triangle,1,0,,,,,,,,,,,,,,,,repeat,number,numRpt,d,0.8032,Hi,,,,,,1,,,,,,,,low,24,0,24,0,1,,,,,,,,,
296782,2022-09-22_21h57.17.097,vts_reward_expectancy,2022.2.4,MacIntel,59.84082341,Chrome,1440,900,,,,,1,834,,,,,,,,,,,,,,,,,174,U,hexagon,1,0,,,,,,,,,,,,,,,,switch,letter,lettSwt,k,0.8634,Lo,,,,,,1,,,,,,,,low,25,0,25,0,1,,,,,,,,,
296782,2022-09-22_21h57.17.097,vts_reward_expectancy,2022.2.4,MacIntel,59.84082341,Chrome,1440,900,,,,,1,835,,,,,,,,,,,,,,,,,146,Y,hexagon,1,0,,,,,,,,,,,,,,,,repeat,letter,lettRpt,k,0.8354,Lo,,,,,,1,,,,,,,,low,26,0,26,0,1,,,,,,,,,
296782,2022-09-22_21h57.17.097,vts_reward_expectancy,2022.2.4,MacIntel,59.84082341,Chrome,1440,900,,,,,0,835,,,,,,,,,,,,,,,,,167,B,triangle,1,0,,,,,,,,,,,,,,,,repeat,letter,lettRpt,j,0.7549,Hi,,,,,,1,,,,,,,,low,27,0,27,0,1,,,,,,,,,
296782,2022-09-22_21h57.17.097,vts_reward_expectancy,2022.2.4,MacIntel,59.84082341,Chrome,1440,900,,,,,1,836,,,,,,,,,,,,,,,,,160,W,hexagon,1,0,,,,,,,,,,,,,,,,repeat,letter,lettRpt,k,0.5968,Lo,,,,,,1,,,,,,,,low,28,0,28,0,1,,,,,,,,,
296782,2022-09-22_21h57.17.097,vts_reward_expectancy,2022.2.4,MacIntel,59.84082341,Chrome,1440,900,,,,,10,846,,,,,,,,,,,,,,,,,125,F,triangle,1,0,,,,,,,,,,,,,,,,switch,number,numSwt,d,1.0029,Hi,,,,,,1,,,,,,,,low,29,0,29,0,1,,,,,,,,,
296782,2022-09-22_21h57.17.097,vts_reward_expectancy,2022.2.4,MacIntel,59.84082341,Chrome,1440,900,,,,,10,856,,,,,,,,,,,,,,,,,132,D,hexagon,1,0,,,,,,,,,,,,,,,,repeat,number,numRpt,d,1.1093,Lo,,,,,,1,,,,,,,,low,30,0,30,0,1,,,,,,,,,
296782,2022-09-22_21h57.17.097,vts_reward_expectancy,2022.2.4,MacIntel,59.84082341,Chrome,1440,900,,,,,0,856,,,,,,,,,,,,,,,,,181,H,triangle,1,0,,,,,,,,,,,,,,,,repeat,number,numRpt,f,1.1665,Hi,,,,,,1,,,,,,,,low,31,0,31,0,1,,,,,,,,,
296782,2022-09-22_21h57.17.097,vts_reward_expectancy,2022.2.4,MacIntel,59.84082341,Chrome,1440,900,,,,,1,857,,,,,,,,,,,,,,,,,160,F,circle,1,0,,,,,,,,,,,,,,,,repeat,number,numRpt,f,0.8308,Lo,,,,,,2,,,,,,space,4.8867,high,0,0,0,0,1,,,,,,,,,
296782,2022-09-22_21h57.17.097,vts_reward_expectancy,2022.2.4,MacIntel,59.84082341,Chrome,1440,900,,,,,0,857,,,,,,,,,,,,,,,,,132,D,star,1,0,,,,,,,,,,,,,,,,repeat,number,numRpt,d,0.8362,Hi,,,,,,2,,,,,,,,high,1,0,1,0,1,,,,,,,,,
296782,2022-09-22_21h57.17.097,vts_reward_expectancy,2022.2.4,MacIntel,59.84082341,Chrome,1440,900,,,,,1,858,,,,,,,,,,,,,,,,,181,U,circle,1,0,,,,,,,,,,,,,,,,repeat,number,numRpt,f,1.2691,Lo,,,,,,2,,,,,,,,high,2,0,2,0,1,,,,,,,,,
296782,2022-09-22_21h57.17.097,vts_reward_expectancy,2022.2.4,MacIntel,59.84082341,Chrome,1440,900,,,,,0,858,,,,,,,,,,,,,,,,,139,H,star,1,0,,,,,,,,,,,,,,,,repeat,number,numRpt,d,0.7783,Hi,,,,,,2,,,,,,,,high,3,0,3,0,1,,,,,,,,,
296782,2022-09-22_21h57.17.097,vts_reward_expectancy,2022.2.4,MacIntel,59.84082341,Chrome,1440,900,,,,,1,859,,,,,,,,,,,,,,,,,125,S,circle,1,0,,,,,,,,,,,,,,,,repeat,number,numRpt,d,0.9365,Lo,,,,,,2,,,,,,,,high,4,0,4,0,1,,,,,,,,,
296782,2022-09-22_21h57.17.097,vts_reward_expectancy,2022.2.4,MacIntel,59.84082341,Chrome,1440,900,,,,,0,859,,,,,,,,,,,,,,,,,146,B,star,1,0,,,,,,,,,,,,,,,,repeat,number,numRpt,d,1.7401,Hi,,,,,,2,,,,,,,,high,5,0,5,0,1,,,,,,,,,
296782,2022-09-22_21h57.17.097,vts_reward_expectancy,2022.2.4,MacIntel,59.84082341,Chrome,1440,900,,,,,10,869,,,,,,,,,,,,,,,,,167,Y,circle,1,0,,,,,,,,,,,,,,,,switch,letter,lettSwt,k,2.0043,Lo,,,,,,2,,,,,,,,high,6,0,6,0,1,,,,,,,,,
296782,2022-09-22_21h57.17.097,vts_reward_expectancy,2022.2.4,MacIntel,59.84082341,Chrome,1440,900,,,,,0,869,,,,,,,,,,,,,,,,,174,W,star,1,0,,,,,,,,,,,,,,,,repeat,letter,lettRpt,k,0.8008,Hi,,,,,,2,,,,,,,,high,7,0,7,0,1,,,,,,,,,
296782,2022-09-22_21h57.17.097,vts_reward_expectancy,2022.2.4,MacIntel,59.84082341,Chrome,1440,900,,,,,0,869,,,,,,,,,,,,,,,,,160,F,star,1,0,,,,,,,,,,,,,,,,repeat,letter,lettRpt,j,0.8533,Hi,,,,,,2,,,,,,,,high,8,0,8,0,1,,,,,,,,,
296782,2022-09-22_21h57.17.097,vts_reward_expectancy,2022.2.4,MacIntel,59.84082341,Chrome,1440,900,,,,,10,879,,,,,,,,,,,,,,,,,132,D,circle,1,0,,,,,,,,,,,,,,,,switch,number,numSwt,d,1.514,Lo,,,,,,2,,,,,,,,high,9,0,9,0,1,,,,,,,,,
296782,2022-09-22_21h57.17.097,vts_reward_expectancy,2022.2.4,MacIntel,59.84082341,Chrome,1440,900,,,,,0,879,,,,,,,,,,,,,,,,,181,U,star,1,0,,,,,,,,,,,,,,,,repeat,number,numRpt,f,1.0013,Hi,,,,,,2,,,,,,,,high,10,0,10,0,1,,,,,,,,,
296782,2022-09-22_21h57.17.097,vts_reward_expectancy,2022.2.4,MacIntel,59.84082341,Chrome,1440,900,,,,,1,880,,,,,,,,,,,,,,,,,139,H,circle,1,0,,,,,,,,,,,,,,,,switch,letter,lettSwt,j,1.3201,Lo,,,,,,2,,,,,,,,high,11,0,11,0,1,,,,,,,,,
296782,2022-09-22_21h57.17.097,vts_reward_expectancy,2022.2.4,MacIntel,59.84082341,Chrome,1440,900,,,,,1,881,,,,,,,,,,,,,,,,,125,S,circle,1,0,,,,,,,,,,,,,,,,repeat,letter,lettRpt,k,0.649,Lo,,,,,,2,,,,,,,,high,12,0,12,0,1,,,,,,,,,
296782,2022-09-22_21h57.17.097,vts_reward_expectancy,2022.2.4,MacIntel,59.84082341,Chrome,1440,900,,,,,10,891,,,,,,,,,,,,,,,,,146,B,star,1,0,,,,,,,,,,,,,,,,repeat,letter,lettRpt,j,0.6226,Hi,,,,,,2,,,,,,,,high,13,0,13,0,1,,,,,,,,,
296782,2022-09-22_21h57.17.097,vts_reward_expectancy,2022.2.4,MacIntel,59.84082341,Chrome,1440,900,,,,,1,892,,,,,,,,,,,,,,,,,167,Y,circle,1,0,,,,,,,,,,,,,,,,repeat,letter,lettRpt,k,0.8206,Lo,,,,,,2,,,,,,,,high,14,0,14,0,1,,,,,,,,,
296782,2022-09-22_21h57.17.097,vts_reward_expectancy,2022.2.4,MacIntel,59.84082341,Chrome,1440,900,,,,,10,902,,,,,,,,,,,,,,,,,174,W,star,1,0,,,,,,,,,,,,,,,,repeat,letter,lettRpt,k,0.6371,Hi,,,,,,2,,,,,,,,high,15,0,15,0,1,,,,,,,,,
296782,2022-09-22_21h57.17.097,vts_reward_expectancy,2022.2.4,MacIntel,59.84082341,Chrome,1440,900,,,,,1,903,,,,,,,,,,,,,,,,,132,Y,circle,1,0,,,,,,,,,,,,,,,,repeat,letter,lettRpt,k,0.6499,Lo,,,,,,2,,,,,,,,high,16,0,16,0,1,,,,,,,,,
296782,2022-09-22_21h57.17.097,vts_reward_expectancy,2022.2.4,MacIntel,59.84082341,Chrome,1440,900,,,,,0,903,,,,,,,,,,,,,,,,,174,S,star,1,0,,,,,,,,,,,,,,,,repeat,letter,lettRpt,k,1.6039,Hi,,,,,,2,,,,,,,,high,17,0,17,0,1,,,,,,,,,
296782,2022-09-22_21h57.17.097,vts_reward_expectancy,2022.2.4,MacIntel,59.84082341,Chrome,1440,900,,,,,0,903,,,,,,,,,,,,,,,,,125,F,star,1,0,,,,,,,,,,,,,,,,repeat,letter,lettRpt,j,1.3338,Hi,,,,,,2,,,,,,,,high,18,0,18,0,1,,,,,,,,,
296782,2022-09-22_21h57.17.097,vts_reward_expectancy,2022.2.4,MacIntel,59.84082341,Chrome,1440,900,,,,,1,904,,,,,,,,,,,,,,,,,181,H,circle,1,0,,,,,,,,,,,,,,,,switch,number,numSwt,f,1.6308,Lo,,,,,,2,,,,,,,,high,19,0,19,0,1,,,,,,,,,
296782,2022-09-22_21h57.17.097,vts_reward_expectancy,2022.2.4,MacIntel,59.84082341,Chrome,1440,900,,,,,0,904,,,,,,,,,,,,,,,,,167,B,star,1,0,,,,,,,,,,,,,,,,repeat,number,numRpt,f,1.0496,Hi,,,,,,2,,,,,,,,high,20,0,20,0,1,,,,,,,,,
296782,2022-09-22_21h57.17.097,vts_reward_expectancy,2022.2.4,MacIntel,59.84082341,Chrome,1440,900,,,,,1,905,,,,,,,,,,,,,,,,,160,W,circle,1,0,,,,,,,,,,,,,,,,repeat,number,numRpt,f,1.0649,Lo,,,,,,2,,,,,,,,high,21,0,21,0,1,,,,,,,,,
296782,2022-09-22_21h57.17.097,vts_reward_expectancy,2022.2.4,MacIntel,59.84082341,Chrome,1440,900,,,,,1,906,,,,,,,,,,,,,,,,,139,U,circle,1,0,,,,,,,,,,,,,,,,repeat,number,numRpt,d,0.9522,Lo,,,,,,2,,,,,,,,high,22,0,22,0,1,,,,,,,,,
296782,2022-09-22_21h57.17.097,vts_reward_expectancy,2022.2.4,MacIntel,59.84082341,Chrome,1440,900,,,,,0,906,,,,,,,,,,,,,,,,,146,D,star,1,0,,,,,,,,,,,,,,,,repeat,number,numRpt,d,1.3528,Hi,,,,,,2,,,,,,,,high,23,0,23,0,1,,,,,,,,,
296782,2022-09-22_21h57.17.097,vts_reward_expectancy,2022.2.4,MacIntel,59.84082341,Chrome,1440,900,,,,,10,916,,,,,,,,,,,,,,,,,181,S,star,1,0,,,,,,,,,,,,,,,,switch,letter,lettSwt,k,0.7826,Hi,,,,,,2,,,,,,,,high,24,0,24,0,1,,,,,,,,,
296782,2022-09-22_21h57.17.097,vts_reward_expectancy,2022.2.4,MacIntel,59.84082341,Chrome,1440,900,,,,,1,917,,,,,,,,,,,,,,,,,132,U,circle,1,0,,,,,,,,,,,,,,,,repeat,letter,lettRpt,k,0.7539,Lo,,,,,,2,,,,,,,,high,25,0,25,0,1,,,,,,,,,
296782,2022-09-22_21h57.17.097,vts_reward_expectancy,2022.2.4,MacIntel,59.84082341,Chrome,1440,900,,,,,10,927,,,,,,,,,,,,,,,,,139,B,star,1,0,,,,,,,,,,,,,,,,repeat,letter,lettRpt,j,0.682,Hi,,,,,,2,,,,,,,,high,26,0,26,0,1,,,,,,,,,
296782,2022-09-22_21h57.17.097,vts_reward_expectancy,2022.2.4,MacIntel,59.84082341,Chrome,1440,900,,,,,1,928,,,,,,,,,,,,,,,,,160,Y,circle,1,0,,,,,,,,,,,,,,,,repeat,letter,lettRpt,k,1.3347,Lo,,,,,,2,,,,,,,,high,27,0,27,0,1,,,,,,,,,
296782,2022-09-22_21h57.17.097,vts_reward_expectancy,2022.2.4,MacIntel,59.84082341,Chrome,1440,900,,,,,0,928,,,,,,,,,,,,,,,,,125,H,star,1,0,,,,,,,,,,,,,,,,repeat,letter,lettRpt,j,0.865,Hi,,,,,,2,,,,,,,,high,28,0,28,0,1,,,,,,,,,
296782,2022-09-22_21h57.17.097,vts_reward_expectancy,2022.2.4,MacIntel,59.84082341,Chrome,1440,900,,,,,1,929,,,,,,,,,,,,,,,,,146,D,circle,1,0,,,,,,,,,,,,,,,,switch,number,numSwt,d,1.4339,Lo,,,,,,2,,,,,,,,high,29,0,29,0,1,,,,,,,,,
296782,2022-09-22_21h57.17.097,vts_reward_expectancy,2022.2.4,MacIntel,59.84082341,Chrome,1440,900,,,,,1,930,,,,,,,,,,,,,,,,,174,F,circle,1,0,,,,,,,,,,,,,,,,repeat,number,numRpt,f,1.4003,Lo,,,,,,2,,,,,,,,high,30,0,30,0,1,,,,,,,,,
296782,2022-09-22_21h57.17.097,vts_reward_expectancy,2022.2.4,MacIntel,59.84082341,Chrome,1440,900,,,,,10,940,,,,,,,,,,,,,,,,,167,W,star,1,0,,,,,,,,,,,,,,,,switch,letter,lettSwt,k,0.8302,Hi,,,,,,2,,,,,,,,high,31,0,31,0,1,,,,,,,,,
296782,2022-09-22_21h57.17.097,vts_reward_expectancy,2022.2.4,MacIntel,59.84082341,Chrome,1440,900,,,,,1,941,,,,,,,,,,,,,,,,,174,F,hexagon,1,0,,,,,,,,,,,,,,,,switch,number,numSwt,f,1.7027,Lo,,,,,,3,,,,,,space,1.2444,low,0,0,0,0,1,,,,,,,,,
296782,2022-09-22_21h57.17.097,vts_reward_expectancy,2022.2.4,MacIntel,59.84082341,Chrome,1440,900,,,,,0,941,,,,,,,,,,,,,,,,,139,Y,triangle,1,0,,,,,,,,,,,,,,,,repeat,number,numRpt,d,2.9063,Hi,,,,,,3,,,,,,,,low,1,0,1,0,1,,,,,,,,,
296782,2022-09-22_21h57.17.097,vts_reward_expectancy,2022.2.4,MacIntel,59.84082341,Chrome,1440,900,,,,,1,942,,,,,,,,,,,,,,,,,132,B,hexagon,1,0,,,,,,,,,,,,,,,,repeat,number,numRpt,d,1.2686,Lo,,,,,,3,,,,,,,,low,2,0,2,0,1,,,,,,,,,
296782,2022-09-22_21h57.17.097,vts_reward_expectancy,2022.2.4,MacIntel,59.84082341,Chrome,1440,900,,,,,0,942,,,,,,,,,,,,,,,,,181,S,triangle,1,0,,,,,,,,,,,,,,,,switch,letter,lettSwt,k,0.883,Hi,,,,,,3,,,,,,,,low,3,0,3,0,1,,,,,,,,,
296782,2022-09-22_21h57.17.097,vts_reward_expectancy,2022.2.4,MacIntel,59.84082341,Chrome,1440,900,,,,,0,942,,,,,,,,,,,,,,,,,125,D,triangle,1,0,,,,,,,,,,,,,,,,repeat,letter,lettRpt,j,0.7174,Hi,,,,,,3,,,,,,,,low,4,0,4,0,1,,,,,,,,,
296782,2022-09-22_21h57.17.097,vts_reward_expectancy,2022.2.4,MacIntel,59.84082341,Chrome,1440,900,,,,,1,943,,,,,,,,,,,,,,,,,160,H,hexagon,1,0,,,,,,,,,,,,,,,,switch,number,numSwt,f,1.6516,Lo,,,,,,3,,,,,,,,low,5,0,5,0,1,,,,,,,,,
296782,2022-09-22_21h57.17.097,vts_reward_expectancy,2022.2.4,MacIntel,59.84082341,Chrome,1440,900,,,,,0,943,,,,,,,,,,,,,,,,,146,U,triangle,1,0,,,,,,,,,,,,,,,,repeat,number,numRpt,d,0.9657,Hi,,,,,,3,,,,,,,,low,6,0,6,0,1,,,,,,,,,
296782,2022-09-22_21h57.17.097,vts_reward_expectancy,2022.2.4,MacIntel,59.84082341,Chrome,1440,900,,,,,1,944,,,,,,,,,,,,,,,,,167,W,hexagon,1,0,,,,,,,,,,,,,,,,repeat,number,numRpt,f,1.7364,Lo,,,,,,3,,,,,,,,low,7,0,7,0,1,,,,,,,,,
296782,2022-09-22_21h57.17.097,vts_reward_expectancy,2022.2.4,MacIntel,59.84082341,Chrome,1440,900,,,,,0,944,,,,,,,,,,,,,,,,,174,F,triangle,1,0,,,,,,,,,,,,,,,,repeat,number,numRpt,f,1.3871,Hi,,,,,,3,,,,,,,,low,8,0,8,0,1,,,,,,,,,
296782,2022-09-22_21h57.17.097,vts_reward_expectancy,2022.2.4,MacIntel,59.84082341,Chrome,1440,900,,,,,10,954,,,,,,,,,,,,,,,,,139,Y,hexagon,1,0,,,,,,,,,,,,,,,,repeat,number,numRpt,d,0.4236,Lo,,,,,,3,,,,,,,,low,9,0,9,0,1,,,,,,,,,
296782,2022-09-22_21h57.17.097,vts_reward_expectancy,2022.2.4,MacIntel,59.84082341,Chrome,1440,900,,,,,1,955,,,,,,,,,,,,,,,,,132,B,hexagon,1,0,,,,,,,,,,,,,,,,switch,letter,lettSwt,j,2.2515,Lo,,,,,,3,,,,,,,,low,10,0,10,0,1,,,,,,,,,
296782,2022-09-22_21h57.17.097,vts_reward_expectancy,2022.2.4,MacIntel,59.84082341,Chrome,1440,900,,,,,0,955,,,,,,,,,,,,,,,,,181,S,triangle,1,0,,,,,,,,,,,,,,,,repeat,letter,lettRpt,k,1.1675,Hi,,,,,,3,,,,,,,,low,11,0,11,0,1,,,,,,,,,
296782,2022-09-22_21h57.17.097,vts_reward_expectancy,2022.2.4,MacIntel,59.84082341,Chrome,1440,900,,,,,0,955,,,,,,,,,,,,,,,,,125,D,triangle,1,0,,,,,,,,,,,,,,,,repeat,letter,lettRpt,j,0.7703,Hi,,,,,,3,,,,,,,,low,12,0,12,0,1,,,,,,,,,
296782,2022-09-22_21h57.17.097,vts_reward_expectancy,2022.2.4,MacIntel,59.84082341,Chrome,1440,900,,,,,1,956,,,,,,,,,,,,,,,,,160,H,hexagon,1,0,,,,,,,,,,,,,,,,repeat,letter,lettRpt,j,0.6673,Lo,,,,,,3,,,,,,,,low,13,0,13,0,1,,,,,,,,,
296782,2022-09-22_21h57.17.097,vts_reward_expectancy,2022.2.4,MacIntel,59.84082341,Chrome,1440,900,,,,,1,957,,,,,,,,,,,,,,,,,146,U,hexagon,1,0,,,,,,,,,,,,,,,,switch,number,numSwt,d,0.8535,Lo,,,,,,3,,,,,,,,low,14,0,14,0,1,,,,,,,,,
296782,2022-09-22_21h57.17.097,vts_reward_expectancy,2022.2.4,MacIntel,59.84082341,Chrome,1440,900,,,,,0,957,,,,,,,,,,,,,,,,,167,W,triangle,0,0,,,,,,,,,,,,,,,,repeat,number,NA,d,1.068,Lo,,,,,,3,,,,,,,,low,15,0,15,0,1,,,,,,,,,
296782,2022-09-22_21h57.17.097,vts_reward_expectancy,2022.2.4,MacIntel,59.84082341,Chrome,1440,900,,,,,1,958,,,,,,,,,,,,,,,,,146,F,hexagon,1,1,,,,,,,,,,,,,,,,repeat,number,numRpt,d,1.2353,Lo,,,,,,3,,,,,,,,low,16,0,16,0,1,,,,,,,,,
296782,2022-09-22_21h57.17.097,vts_reward_expectancy,2022.2.4,MacIntel,59.84082341,Chrome,1440,900,,,,,0,958,,,,,,,,,,,,,,,,,125,W,triangle,1,0,,,,,,,,,,,,,,,,switch,letter,lettSwt,k,1.1856,Hi,,,,,,3,,,,,,,,low,17,0,17,0,1,,,,,,,,,
296782,2022-09-22_21h57.17.097,vts_reward_expectancy,2022.2.4,MacIntel,59.84082341,Chrome,1440,900,,,,,10,968,,,,,,,,,,,,,,,,,132,U,triangle,1,0,,,,,,,,,,,,,,,,switch,number,numSwt,d,1.1336,Hi,,,,,,3,,,,,,,,low,18,0,18,0,1,,,,,,,,,
296782,2022-09-22_21h57.17.097,vts_reward_expectancy,2022.2.4,MacIntel,59.84082341,Chrome,1440,900,,,,,0,968,,,,,,,,,,,,,,,,,160,B,hexagon,0,0,,,,,,,,,,,,,,,,repeat,number,NA,d,1.2186,Hi,,,,,,3,,,,,,,,low,19,0,19,0,1,,,,,,,,,
296782,2022-09-22_21h57.17.097,vts_reward_expectancy,2022.2.4,MacIntel,59.84082341,Chrome,1440,900,,,,,0,968,,,,,,,,,,,,,,,,,174,Y,triangle,1,1,,,,,,,,,,,,,,,,repeat,number,numRpt,f,1.2524,Hi,,,,,,3,,,,,,,,low,20,0,20,0,1,,,,,,,,,
296782,2022-09-22_21h57.17.097,vts_reward_expectancy,2022.2.4,MacIntel,59.84082341,Chrome,1440,900,,,,,1,969,,,,,,,,,,,,,,,,,181,H,hexagon,1,0,,,,,,,,,,,,,,,,switch,letter,lettSwt,j,1.8226,Lo,,,,,,3,,,,,,,,low,21,0,21,0,1,,,,,,,,,
296782,2022-09-22_21h57.17.097,vts_reward_expectancy,2022.2.4,MacIntel,59.84082341,Chrome,1440,900,,,,,1,970,,,,,,,,,,,,,,,,,167,S,triangle,1,0,,,,,,,,,,,,,,,,switch,number,numSwt,f,1.3179,Hi,,,,,,3,,,,,,,,low,22,0,22,0,1,,,,,,,,,
296782,2022-09-22_21h57.17.097,vts_reward_expectancy,2022.2.4,MacIntel,59.84082341,Chrome,1440,900,,,,,10,980,,,,,,,,,,,,,,,,,139,D,hexagon,1,0,,,,,,,,,,,,,,,,switch,letter,lettSwt,j,0.8983,Lo,,,,,,3,,,,,,,,low,23,0,23,0,1,,,,,,,,,
296782,2022-09-22_21h57.17.097,vts_reward_expectancy,2022.2.4,MacIntel,59.84082341,Chrome,1440,900,,,,,0,980,,,,,,,,,,,,,,,,,146,B,triangle,1,0,,,,,,,,,,,,,,,,switch,number,numSwt,d,1.9673,Hi,,,,,,3,,,,,,,,low,24,0,24,0,1,,,,,,,,,
296782,2022-09-22_21h57.17.097,vts_reward_expectancy,2022.2.4,MacIntel,59.84082341,Chrome,1440,900,,,,,10,990,,,,,,,,,,,,,,,,,174,S,hexagon,1,0,,,,,,,,,,,,,,,,switch,letter,lettSwt,k,1.0682,Lo,,,,,,3,,,,,,,,low,25,0,25,0,1,,,,,,,,,
296782,2022-09-22_21h57.17.097,vts_reward_expectancy,2022.2.4,MacIntel,59.84082341,Chrome,1440,900,,,,,0,990,,,,,,,,,,,,,,,,,132,U,triangle,1,0,,,,,,,,,,,,,,,,repeat,letter,lettRpt,k,1.5052,Hi,,,,,,3,,,,,,,,low,26,0,26,0,1,,,,,,,,,
296782,2022-09-22_21h57.17.097,vts_reward_expectancy,2022.2.4,MacIntel,59.84082341,Chrome,1440,900,,,,,10,1000,,,,,,,,,,,,,,,,,167,D,hexagon,1,0,,,,,,,,,,,,,,,,repeat,letter,lettRpt,j,0.5313,Lo,,,,,,3,,,,,,,,low,27,0,27,0,1,,,,,,,,,
296782,2022-09-22_21h57.17.097,vts_reward_expectancy,2022.2.4,MacIntel,59.84082341,Chrome,1440,900,,,,,10,1010,,,,,,,,,,,,,,,,,125,F,hexagon,1,0,,,,,,,,,,,,,,,,repeat,letter,lettRpt,j,1.0479,Lo,,,,,,3,,,,,,,,low,28,0,28,0,1,,,,,,,,,
296782,2022-09-22_21h57.17.097,vts_reward_expectancy,2022.2.4,MacIntel,59.84082341,Chrome,1440,900,,,,,0,1010,,,,,,,,,,,,,,,,,160,W,triangle,1,0,,,,,,,,,,,,,,,,switch,number,numSwt,f,1.787,Hi,,,,,,3,,,,,,,,low,29,0,29,0,1,,,,,,,,,
296782,2022-09-22_21h57.17.097,vts_reward_expectancy,2022.2.4,MacIntel,59.84082341,Chrome,1440,900,,,,,10,1020,,,,,,,,,,,,,,,,,139,H,triangle,1,0,,,,,,,,,,,,,,,,repeat,number,numRpt,d,0.8238,Hi,,,,,,3,,,,,,,,low,30,0,30,0,1,,,,,,,,,
296782,2022-09-22_21h57.17.097,vts_reward_expectancy,2022.2.4,MacIntel,59.84082341,Chrome,1440,900,,,,,10,1030,,,,,,,,,,,,,,,,,181,Y,hexagon,1,0,,,,,,,,,,,,,,,,repeat,number,numRpt,f,0.8337,Lo,,,,,,3,,,,,,,,low,31,0,31,0,1,,,,,,,,,
296782,2022-09-22_21h57.17.097,vts_reward_expectancy,2022.2.4,MacIntel,59.84082341,Chrome,1440,900,,,,,0,1030,,,,,,,,,,,,,,,,,181,B,triangle,1,0,,,,,,,,,,,,,,,,repeat,number,numRpt,f,0.9997,Hi,,,,,,4,,,,,,space,1.6551,low,0,0,0,0,1,,,,,,,,,
296782,2022-09-22_21h57.17.097,vts_reward_expectancy,2022.2.4,MacIntel,59.84082341,Chrome,1440,900,,,,,10,1040,,,,,,,,,,,,,,,,,125,D,hexagon,1,0,,,,,,,,,,,,,,,,repeat,number,numRpt,d,0.4128,Lo,,,,,,4,,,,,,,,low,1,0,1,0,1,,,,,,,,,
296782,2022-09-22_21h57.17.097,vts_reward_expectancy,2022.2.4,MacIntel,59.84082341,Chrome,1440,900,,,,,10,1050,,,,,,,,,,,,,,,,,139,H,triangle,1,0,,,,,,,,,,,,,,,,repeat,number,numRpt,d,0.6283,Hi,,,,,,4,,,,,,,,low,2,0,2,0,1,,,,,,,,,
296782,2022-09-22_21h57.17.097,vts_reward_expectancy,2022.2.4,MacIntel,59.84082341,Chrome,1440,900,,,,,10,1060,,,,,,,,,,,,,,,,,132,F,hexagon,1,0,,,,,,,,,,,,,,,,repeat,number,numRpt,d,0.6366,Lo,,,,,,4,,,,,,,,low,3,0,3,0,1,,,,,,,,,
296782,2022-09-22_21h57.17.097,vts_reward_expectancy,2022.2.4,MacIntel,59.84082341,Chrome,1440,900,,,,,0,1060,,,,,,,,,,,,,,,,,174,W,triangle,1,0,,,,,,,,,,,,,,,,switch,letter,lettSwt,k,1.1241,Hi,,,,,,4,,,,,,,,low,4,0,4,0,1,,,,,,,,,
296782,2022-09-22_21h57.17.097,vts_reward_expectancy,2022.2.4,MacIntel,59.84082341,Chrome,1440,900,,,,,1,1061,,,,,,,,,,,,,,,,,146,Y,hexagon,1,0,,,,,,,,,,,,,,,,switch,number,numSwt,d,1.1652,Lo,,,,,,4,,,,,,,,low,5,0,5,0,1,,,,,,,,,
296782,2022-09-22_21h57.17.097,vts_reward_expectancy,2022.2.4,MacIntel,59.84082341,Chrome,1440,900,,,,,10,1071,,,,,,,,,,,,,,,,,160,S,hexagon,1,0,,,,,,,,,,,,,,,,switch,letter,lettSwt,k,1.054,Lo,,,,,,4,,,,,,,,low,6,0,6,0,1,,,,,,,,,
296782,2022-09-22_21h57.17.097,vts_reward_expectancy,2022.2.4,MacIntel,59.84082341,Chrome,1440,900,,,,,10,1081,,,,,,,,,,,,,,,,,167,U,triangle,1,0,,,,,,,,,,,,,,,,repeat,letter,lettRpt,k,0.6825,Hi,,,,,,4,,,,,,,,low,7,0,7,0,1,,,,,,,,,
296782,2022-09-22_21h57.17.097,vts_reward_expectancy,2022.2.4,MacIntel,59.84082341,Chrome,1440,900,,,,,0,1081,,,,,,,,,,,,,,,,,181,B,triangle,1,0,,,,,,,,,,,,,,,,repeat,letter,lettRpt,j,0.8548,Hi,,,,,,4,,,,,,,,low,8,0,8,0,1,,,,,,,,,
296782,2022-09-22_21h57.17.097,vts_reward_expectancy,2022.2.4,MacIntel,59.84082341,Chrome,1440,900,,,,,1,1082,,,,,,,,,,,,,,,,,125,D,hexagon,1,0,,,,,,,,,,,,,,,,repeat,letter,lettRpt,j,0.8401,Lo,,,,,,4,,,,,,,,low,9,0,9,0,1,,,,,,,,,
296782,2022-09-22_21h57.17.097,vts_reward_expectancy,2022.2.4,MacIntel,59.84082341,Chrome,1440,900,,,,,0,1082,,,,,,,,,,,,,,,,,139,H,triangle,1,0,,,,,,,,,,,,,,,,repeat,letter,lettRpt,j,1.4656,Hi,,,,,,4,,,,,,,,low,10,0,10,0,1,,,,,,,,,
296782,2022-09-22_21h57.17.097,vts_reward_expectancy,2022.2.4,MacIntel,59.84082341,Chrome,1440,900,,,,,1,1083,,,,,,,,,,,,,,,,,132,F,hexagon,1,0,,,,,,,,,,,,,,,,repeat,letter,lettRpt,j,0.6653,Lo,,,,,,4,,,,,,,,low,11,0,11,0,1,,,,,,,,,
296782,2022-09-22_21h57.17.097,vts_reward_expectancy,2022.2.4,MacIntel,59.84082341,Chrome,1440,900,,,,,1,1084,,,,,,,,,,,,,,,,,174,W,hexagon,1,0,,,,,,,,,,,,,,,,repeat,letter,lettRpt,k,0.6135,Lo,,,,,,4,,,,,,,,low,12,0,12,0,1,,,,,,,,,
296782,2022-09-22_21h57.17.097,vts_reward_expectancy,2022.2.4,MacIntel,59.84082341,Chrome,1440,900,,,,,0,1084,,,,,,,,,,,,,,,,,146,Y,triangle,1,0,,,,,,,,,,,,,,,,repeat,letter,lettRpt,k,0.8698,Hi,,,,,,4,,,,,,,,low,13,0,13,0,1,,,,,,,,,
296782,2022-09-22_21h57.17.097,vts_reward_expectancy,2022.2.4,MacIntel,59.84082341,Chrome,1440,900,,,,,10,1094,,,,,,,,,,,,,,,,,160,S,hexagon,1,0,,,,,,,,,,,,,,,,switch,number,numSwt,f,0.5517,Lo,,,,,,4,,,,,,,,low,14,0,14,0,1,,,,,,,,,
296782,2022-09-22_21h57.17.097,vts_reward_expectancy,2022.2.4,MacIntel,59.84082341,Chrome,1440,900,,,,,1,1095,,,,,,,,,,,,,,,,,167,U,triangle,1,0,,,,,,,,,,,,,,,,repeat,number,numRpt,f,0.6339,Hi,,,,,,4,,,,,,,,low,15,0,15,0,1,,,,,,,,,
296782,2022-09-22_21h57.17.097,vts_reward_expectancy,2022.2.4,MacIntel,59.84082341,Chrome,1440,900,,,,,1,1096,,,,,,,,,,,,,,,,,139,Y,hexagon,1,0,,,,,,,,,,,,,,,,repeat,number,numRpt,d,0.668,Lo,,,,,,4,,,,,,,,low,16,0,16,0,1,,,,,,,,,
296782,2022-09-22_21h57.17.097,vts_reward_expectancy,2022.2.4,MacIntel,59.84082341,Chrome,1440,900,,,,,1,1097,,,,,,,,,,,,,,,,,167,H,triangle,1,0,,,,,,,,,,,,,,,,repeat,number,numRpt,f,0.8155,Hi,,,,,,4,,,,,,,,low,17,0,17,0,1,,,,,,,,,
296782,2022-09-22_21h57.17.097,vts_reward_expectancy,2022.2.4,MacIntel,59.84082341,Chrome,1440,900,,,,,10,1107,,,,,,,,,,,,,,,,,174,B,triangle,1,0,,,,,,,,,,,,,,,,repeat,number,numRpt,f,0.6667,Hi,,,,,,4,,,,,,,,low,18,0,18,0,1,,,,,,,,,
296782,2022-09-22_21h57.17.097,vts_reward_expectancy,2022.2.4,MacIntel,59.84082341,Chrome,1440,900,,,,,1,1108,,,,,,,,,,,,,,,,,132,U,hexagon,1,0,,,,,,,,,,,,,,,,repeat,number,numRpt,d,0.6673,Lo,,,,,,4,,,,,,,,low,19,0,19,0,1,,,,,,,,,
296782,2022-09-22_21h57.17.097,vts_reward_expectancy,2022.2.4,MacIntel,59.84082341,Chrome,1440,900,,,,,1,1109,,,,,,,,,,,,,,,,,181,D,hexagon,1,0,,,,,,,,,,,,,,,,repeat,number,numRpt,f,0.6142,Lo,,,,,,4,,,,,,,,low,20,0,20,0,1,,,,,,,,,
296782,2022-09-22_21h57.17.097,vts_reward_expectancy,2022.2.4,MacIntel,59.84082341,Chrome,1440,900,,,,,0,1109,,,,,,,,,,,,,,,,,125,W,triangle,1,0,,,,,,,,,,,,,,,,switch,letter,lettSwt,k,1.2188,Hi,,,,,,4,,,,,,,,low,21,0,21,0,1,,,,,,,,,
296782,2022-09-22_21h57.17.097,vts_reward_expectancy,2022.2.4,MacIntel,59.84082341,Chrome,1440,900,,,,,1,1110,,,,,,,,,,,,,,,,,146,S,hexagon,1,0,,,,,,,,,,,,,,,,switch,number,numSwt,d,1.3364,Lo,,,,,,4,,,,,,,,low,22,0,22,0,1,,,,,,,,,
296782,2022-09-22_21h57.17.097,vts_reward_expectancy,2022.2.4,MacIntel,59.84082341,Chrome,1440,900,,,,,0,1110,,,,,,,,,,,,,,,,,160,F,triangle,1,0,,,,,,,,,,,,,,,,switch,letter,lettSwt,j,1.0838,Hi,,,,,,4,,,,,,,,low,23,0,23,0,1,,,,,,,,,
296782,2022-09-22_21h57.17.097,vts_reward_expectancy,2022.2.4,MacIntel,59.84082341,Chrome,1440,900,,,,,10,1120,,,,,,,,,,,,,,,,,181,F,hexagon,1,0,,,,,,,,,,,,,,,,repeat,letter,lettRpt,j,0.9839,Lo,,,,,,4,,,,,,,,low,24,0,24,0,1,,,,,,,,,
296782,2022-09-22_21h57.17.097,vts_reward_expectancy,2022.2.4,MacIntel,59.84082341,Chrome,1440,900,,,,,0,1120,,,,,,,,,,,,,,,,,160,H,triangle,1,0,,,,,,,,,,,,,,,,repeat,letter,lettRpt,j,0.8504,Hi,,,,,,4,,,,,,,,low,25,0,25,0,1,,,,,,,,,
296782,2022-09-22_21h57.17.097,vts_reward_expectancy,2022.2.4,MacIntel,59.84082341,Chrome,1440,900,,,,,0,1120,,,,,,,,,,,,,,,,,146,W,triangle,1,0,,,,,,,,,,,,,,,,repeat,letter,lettRpt,k,0.849,Hi,,,,,,4,,,,,,,,low,26,0,26,0,1,,,,,,,,,
296782,2022-09-22_21h57.17.097,vts_reward_expectancy,2022.2.4,MacIntel,59.84082341,Chrome,1440,900,,,,,1,1121,,,,,,,,,,,,,,,,,174,B,hexagon,1,0,,,,,,,,,,,,,,,,repeat,letter,lettRpt,j,0.9542,Lo,,,,,,4,,,,,,,,low,27,0,27,0,1,,,,,,,,,
296782,2022-09-22_21h57.17.097,vts_reward_expectancy,2022.2.4,MacIntel,59.84082341,Chrome,1440,900,,,,,10,1131,,,,,,,,,,,,,,,,,125,U,hexagon,1,0,,,,,,,,,,,,,,,,repeat,letter,lettRpt,k,1.3046,Lo,,,,,,4,,,,,,,,low,28,0,28,0,1,,,,,,,,,
296782,2022-09-22_21h57.17.097,vts_reward_expectancy,2022.2.4,MacIntel,59.84082341,Chrome,1440,900,,,,,1,1132,,,,,,,,,,,,,,,,,132,S,triangle,1,0,,,,,,,,,,,,,,,,repeat,letter,lettRpt,k,0.6515,Hi,,,,,,4,,,,,,,,low,29,0,29,0,1,,,,,,,,,
296782,2022-09-22_21h57.17.097,vts_reward_expectancy,2022.2.4,MacIntel,59.84082341,Chrome,1440,900,,,,,10,1142,,,,,,,,,,,,,,,,,139,Y,hexagon,1,0,,,,,,,,,,,,,,,,repeat,letter,lettRpt,k,0.5831,Lo,,,,,,4,,,,,,,,low,30,0,30,0,1,,,,,,,,,
296782,2022-09-22_21h57.17.097,vts_reward_expectancy,2022.2.4,MacIntel,59.84082341,Chrome,1440,900,,,,,1,1143,,,,,,,,,,,,,,,,,167,D,triangle,1,0,,,,,,,,,,,,,,,,switch,number,numSwt,f,0.8653,Hi,,,,,,4,,,,,,,,low,31,0,31,0,1,,,,,,,,,
296782,2022-09-22_21h57.17.097,vts_reward_expectancy,2022.2.4,MacIntel,59.84082341,Chrome,1440,900,,,,,0,1143,,,,,,,,,,,,,,,,,132,B,star,1,0,,,,,,,,,,,,,,,,repeat,number,numRpt,d,1.05,Hi,,,,,,5,,,,,,space,2.4763,high,0,0,0,0,1,,,,,,,,,
296782,2022-09-22_21h57.17.097,vts_reward_expectancy,2022.2.4,MacIntel,59.84082341,Chrome,1440,900,,,,,10,1153,,,,,,,,,,,,,,,,,139,W,circle,1,0,,,,,,,,,,,,,,,,switch,letter,lettSwt,k,0.899,Lo,,,,,,5,,,,,,,,high,1,0,1,0,1,,,,,,,,,
296782,2022-09-22_21h57.17.097,vts_reward_expectancy,2022.2.4,MacIntel,59.84082341,Chrome,1440,900,,,,,0,1153,,,,,,,,,,,,,,,,,160,Y,star,1,0,,,,,,,,,,,,,,,,repeat,letter,lettRpt,k,1.2212,Hi,,,,,,5,,,,,,,,high,2,0,2,0,1,,,,,,,,,
296782,2022-09-22_21h57.17.097,vts_reward_expectancy,2022.2.4,MacIntel,59.84082341,Chrome,1440,900,,,,,1,1154,,,,,,,,,,,,,,,,,181,S,circle,1,0,,,,,,,,,,,,,,,,repeat,letter,lettRpt,k,0.6147,Lo,,,,,,5,,,,,,,,high,3,0,3,0,1,,,,,,,,,
296782,2022-09-22_21h57.17.097,vts_reward_expectancy,2022.2.4,MacIntel,59.84082341,Chrome,1440,900,,,,,1,1155,,,,,,,,,,,,,,,,,125,D,circle,1,0,,,,,,,,,,,,,,,,switch,number,numSwt,d,0.8006,Lo,,,,,,5,,,,,,,,high,4,0,4,0,1,,,,,,,,,
296782,2022-09-22_21h57.17.097,vts_reward_expectancy,2022.2.4,MacIntel,59.84082341,Chrome,1440,900,,,,,10,1165,,,,,,,,,,,,,,,,,174,F,star,1,0,,,,,,,,,,,,,,,,repeat,number,numRpt,f,0.5701,Hi,,,,,,5,,,,,,,,high,5,0,5,0,1,,,,,,,,,
296782,2022-09-22_21h57.17.097,vts_reward_expectancy,2022.2.4,MacIntel,59.84082341,Chrome,1440,900,,,,,1,1166,,,,,,,,,,,,,,,,,167,U,circle,1,0,,,,,,,,,,,,,,,,repeat,number,numRpt,f,0.8324,Lo,,,,,,5,,,,,,,,high,6,0,6,0,1,,,,,,,,,
296782,2022-09-22_21h57.17.097,vts_reward_expectancy,2022.2.4,MacIntel,59.84082341,Chrome,1440,900,,,,,0,1166,,,,,,,,,,,,,,,,,146,H,star,1,0,,,,,,,,,,,,,,,,repeat,number,numRpt,d,0.7517,Hi,,,,,,5,,,,,,,,high,7,0,7,0,1,,,,,,,,,
296782,2022-09-22_21h57.17.097,vts_reward_expectancy,2022.2.4,MacIntel,59.84082341,Chrome,1440,900,,,,,1,1167,,,,,,,,,,,,,,,,,132,B,circle,1,0,,,,,,,,,,,,,,,,repeat,number,numRpt,d,1.0564,Lo,,,,,,5,,,,,,,,high,8,0,8,0,1,,,,,,,,,
296782,2022-09-22_21h57.17.097,vts_reward_expectancy,2022.2.4,MacIntel,59.84082341,Chrome,1440,900,,,,,10,1177,,,,,,,,,,,,,,,,,139,W,star,1,0,,,,,,,,,,,,,,,,switch,letter,lettSwt,k,0.5826,Hi,,,,,,5,,,,,,,,high,9,0,9,0,1,,,,,,,,,
296782,2022-09-22_21h57.17.097,vts_reward_expectancy,2022.2.4,MacIntel,59.84082341,Chrome,1440,900,,,,,1,1178,,,,,,,,,,,,,,,,,160,Y,circle,1,0,,,,,,,,,,,,,,,,repeat,letter,lettRpt,k,0.8049,Lo,,,,,,5,,,,,,,,high,10,0,10,0,1,,,,,,,,,
296782,2022-09-22_21h57.17.097,vts_reward_expectancy,2022.2.4,MacIntel,59.84082341,Chrome,1440,900,,,,,1,1179,,,,,,,,,,,,,,,,,181,S,star,1,0,,,,,,,,,,,,,,,,repeat,letter,lettRpt,k,0.6647,Hi,,,,,,5,,,,,,,,high,11,0,11,0,1,,,,,,,,,
296782,2022-09-22_21h57.17.097,vts_reward_expectancy,2022.2.4,MacIntel,59.84082341,Chrome,1440,900,,,,,10,1189,,,,,,,,,,,,,,,,,125,D,star,1,0,,,,,,,,,,,,,,,,repeat,letter,lettRpt,j,0.5519,Hi,,,,,,5,,,,,,,,high,12,0,12,0,1,,,,,,,,,
296782,2022-09-22_21h57.17.097,vts_reward_expectancy,2022.2.4,MacIntel,59.84082341,Chrome,1440,900,,,,,1,1190,,,,,,,,,,,,,,,,,174,F,circle,1,0,,,,,,,,,,,,,,,,switch,number,numSwt,f,1.0156,Lo,,,,,,5,,,,,,,,high,13,0,13,0,1,,,,,,,,,
296782,2022-09-22_21h57.17.097,vts_reward_expectancy,2022.2.4,MacIntel,59.84082341,Chrome,1440,900,,,,,10,1200,,,,,,,,,,,,,,,,,167,U,circle,1,0,,,,,,,,,,,,,,,,switch,letter,lettSwt,k,0.6148,Lo,,,,,,5,,,,,,,,high,14,0,14,0,1,,,,,,,,,
