participant,date,expName,psychopyVersion,OS,frameRate,browser,xResolution,yResolution,key_resp.keys,key_resp.rt,training_resp.keys,training_resp.rt,points_trial,points_cumul,trainBlock,training.thisRepN,training.thisTrialN,training.thisN,training.thisIndex,training.ran,LTriangleOpac,LCircleOpac,LHexagonOpac,LStarOpac,RTriangleOpac,RCircleOpac,RHexagonOpac,RStarOpac,LShape_ID,RShape_ID,curr_topStim,curr_bottStim,curr_shape,acc,E1,target_resp_prac1.keys,pracBlock,task1_prac_trials.thisRepN,task1_prac_trials.thisTrialN,task1_prac_trials.thisN,task1_prac_trials.thisIndex,task1_prac_trials.ran,target_resp_prac1.rt,target_resp_prac2.keys,target_resp_prac2.rt,task2_praac_trials.thisRepN,task2_praac_trials.thisTrialN,task2_praac_trials.thisN,task2_praac_trials.thisIndex,task2_praac_trials.ran,alt,task,condition,target_resp.keys,target_resp.rt,rewCond,vts_practice_trials.thisRepN,vts_practice_trials.thisTrialN,vts_practice_trials.thisN,vts_practice_trials.thisIndex,vts_practice_trials.ran,blockNum,trials_norew.thisRepN,trials_norew.thisTrialN,trials_norew.thisN,trials_norew.thisIndex,trials_norew.ran,key_resp_2.keys,key_resp_2.rt,rewExpect,trials_rew.thisRepN,trials_rew.thisTrialN,trials_rew.thisN,trials_rew.thisIndex,trials_rew.ran,Q1,Q2,Q2_text,Q3,Q4,Q5_text,Q5,xRes,yRes
294259,2022-09-25_22h44.52.607,vts_reward_expectancy,2022.2.4,MacIntel,59.99880002,Chrome,1440,900,,,,,,,,,,,,,,,,,,,,,,,,,,,,,,,,,,,,,,,,,,,,,,,,,,,,,,,,,,,,,,,,,,,,,,,,,,,,
294259,2022-09-25_22h44.52.607,vts_reward_expectancy,2022.2.4,MacIntel,59.99880002,Chrome,1440,900,space,27.4168,,,,,,,,,,,,,,,,,,,,,,,,,,,,,,,,,,,,,,,,,,,,,,,,,,,,,,,,,,,,,,,,,,,,,,,,,,
294259,2022-09-25_22h44.52.607,vts_reward_expectancy,2022.2.4,MacIntel,59.99880002,Chrome,1440,900,,,,,,,,,,,,,,,,,,,,,,,,,,,,,,,,,,,,,,,,,,,,,,,,,,,,,,,,,,,,,,,,,,,,,,,,,,,,
294259,2022-09-25_22h44.52.607,vts_reward_expectancy,2022.2.4,MacIntel,59.99880002,Chrome,1440,900,,,a,2.1832,1,1,0,0,0,0,9,1,0,0,0,1,1,0,0,0,star,triangle,,,,,,,,,,,,,,,,,,,,,,,,,,,,,,,,,,,,,,,,,,,,,,,,,,,,,,
294259,2022-09-25_22h44.52.607,vts_reward_expectancy,2022.2.4,MacIntel,59.99880002,Chrome,1440,900,,,l,2.326,1,2,0,0,1,1,11,1,0,0,0,1,0,0,1,0,star,hexagon,,,,,,,,,,,,,,,,,,,,,,,,,,,,,,,,,,,,,,,,,,,,,,,,,,,,,,
294259,2022-09-25_22h44.52.607,vts_reward_expectancy,2022.2.4,MacIntel,59.99880002,Chrome,1440,900,,,a,1.4884,1,3,0,0,2,2,2,1,1,0,0,0,0,0,0,1,triangle,star,,,,,,,,,,,,,,,,,,,,,,,,,,,,,,,,,,,,,,,,,,,,,,,,,,,,,,
294259,2022-09-25_22h44.52.607,vts_reward_expectancy,2022.2.4,MacIntel,59.99880002,Chrome,1440,900,,,a,1.7376,1,4,0,0,3,3,1,1,1,0,0,0,0,0,1,0,triangle,hexagon,,,,,,,,,,,,,,,,,,,,,,,,,,,,,,,,,,,,,,,,,,,,,,,,,,,,,,
294259,2022-09-25_22h44.52.607,vts_reward_expectancy,2022.2.4,MacIntel,59.99880002,Chrome,1440,900,,,a,1.8165,10,14,0,0,4,4,3,1,0,1,0,0,1,0,0,0,circle,triangle,,,,,,,,,,,,,,,,,,,,,,,,,,,,,,,,,,,,,,,,,,,,,,,,,,,,,,
294259,2022-09-25_22h44.52.607,vts_reward_expectancy,2022.2.4,MacIntel,59.99880002,Chrome,1440,900,,,l,2.4523,1,15,0,0,5,5,8,1,0,0,1,0,0,0,0,1,hexagon,star,,,,,,,,,,,,,,,,,,,,,,,,,,,,,,,,,,,,,,,,,,,,,,,,,,,,,,
294259,2022-09-25_22h44.52.607,vts_reward_expectancy,2022.2.4,MacIntel,59.99880002,Chrome,1440,900,,,l,1.1443,1,16,0,0,6,6,10,1,0,0,0,1,0,1,0,0,star ,circle,,,,,,,,,,,,,,,,,,,,,,,,,,,,,,,,,,,,,,,,,,,,,,,,,,,,,,
294259,2022-09-25_22h44.52.607,vts_reward_expectancy,2022.2.4,MacIntel,59.99880002,Chrome,1440,900,,,a,9.6502,10,26,0,0,7,7,4,1,0,1,0,0,0,0,1,0,circle,hexagon,,,,,,,,,,,,,,,,,,,,,,,,,,,,,,,,,,,,,,,,,,,,,,,,,,,,,,
294259,2022-09-25_22h44.52.607,vts_reward_expectancy,2022.2.4,MacIntel,59.99880002,Chrome,1440,900,,,l,1.8317,10,36,0,0,8,8,7,1,0,0,1,0,0,1,0,0,hexagon,circle,,,,,,,,,,,,,,,,,,,,,,,,,,,,,,,,,,,,,,,,,,,,,,,,,,,,,,
294259,2022-09-25_22h44.52.607,vts_reward_expectancy,2022.2.4,MacIntel,59.99880002,Chrome,1440,900,,,l,1.1867,10,46,0,0,9,9,0,1,1,0,0,0,0,1,0,0,triangle,circle,,,,,,,,,,,,,,,,,,,,,,,,,,,,,,,,,,,,,,,,,,,,,,,,,,,,,,
294259,2022-09-25_22h44.52.607,vts_reward_expectancy,2022.2.4,MacIntel,59.99880002,Chrome,1440,900,,,a,3.1489,10,56,0,0,10,10,6,1,0,0,1,0,1,0,0,0,hexagon,triangle,,,,,,,,,,,,,,,,,,,,,,,,,,,,,,,,,,,,,,,,,,,,,,,,,,,,,,
294259,2022-09-25_22h44.52.607,vts_reward_expectancy,2022.2.4,MacIntel,59.99880002,Chrome,1440,900,,,a,2.0874,10,66,0,0,11,11,5,1,0,1,0,0,0,0,0,1,circle,star,,,,,,,,,,,,,,,,,,,,,,,,,,,,,,,,,,,,,,,,,,,,,,,,,,,,,,
294259,2022-09-25_22h44.52.607,vts_reward_expectancy,2022.2.4,MacIntel,59.99880002,Chrome,1440,900,,,l,2.9345,1,67,0,1,0,12,9,1,0,0,0,1,1,0,0,0,star,triangle,,,,,,,,,,,,,,,,,,,,,,,,,,,,,,,,,,,,,,,,,,,,,,,,,,,,,,
294259,2022-09-25_22h44.52.607,vts_reward_expectancy,2022.2.4,MacIntel,59.99880002,Chrome,1440,900,,,l,1.8016,10,77,0,1,1,13,1,1,1,0,0,0,0,0,1,0,triangle,hexagon,,,,,,,,,,,,,,,,,,,,,,,,,,,,,,,,,,,,,,,,,,,,,,,,,,,,,,
294259,2022-09-25_22h44.52.607,vts_reward_expectancy,2022.2.4,MacIntel,59.99880002,Chrome,1440,900,,,l,1.2181,10,87,0,1,2,14,11,1,0,0,0,1,0,0,1,0,star,hexagon,,,,,,,,,,,,,,,,,,,,,,,,,,,,,,,,,,,,,,,,,,,,,,,,,,,,,,
294259,2022-09-25_22h44.52.607,vts_reward_expectancy,2022.2.4,MacIntel,59.99880002,Chrome,1440,900,,,l,1.6543,10,97,0,1,3,15,0,1,1,0,0,0,0,1,0,0,triangle,circle,,,,,,,,,,,,,,,,,,,,,,,,,,,,,,,,,,,,,,,,,,,,,,,,,,,,,,
294259,2022-09-25_22h44.52.607,vts_reward_expectancy,2022.2.4,MacIntel,59.99880002,Chrome,1440,900,,,a,1.0709,10,107,0,1,4,16,5,1,0,1,0,0,0,0,0,1,circle,star,,,,,,,,,,,,,,,,,,,,,,,,,,,,,,,,,,,,,,,,,,,,,,,,,,,,,,
294259,2022-09-25_22h44.52.607,vts_reward_expectancy,2022.2.4,MacIntel,59.99880002,Chrome,1440,900,,,l,0.8645,1,108,0,1,5,17,10,1,0,0,0,1,0,1,0,0,star ,circle,,,,,,,,,,,,,,,,,,,,,,,,,,,,,,,,,,,,,,,,,,,,,,,,,,,,,,
294259,2022-09-25_22h44.52.607,vts_reward_expectancy,2022.2.4,MacIntel,59.99880002,Chrome,1440,900,,,l,1.7834,1,109,0,1,6,18,7,1,0,0,1,0,0,1,0,0,hexagon,circle,,,,,,,,,,,,,,,,,,,,,,,,,,,,,,,,,,,,,,,,,,,,,,,,,,,,,,
294259,2022-09-25_22h44.52.607,vts_reward_expectancy,2022.2.4,MacIntel,59.99880002,Chrome,1440,900,,,a,1.6181,10,119,0,1,7,19,2,1,1,0,0,0,0,0,0,1,triangle,star,,,,,,,,,,,,,,,,,,,,,,,,,,,,,,,,,,,,,,,,,,,,,,,,,,,,,,
294259,2022-09-25_22h44.52.607,vts_reward_expectancy,2022.2.4,MacIntel,59.99880002,Chrome,1440,900,,,a,4.7198,1,120,0,1,8,20,8,1,0,0,1,0,0,0,0,1,hexagon,star,,,,,,,,,,,,,,,,,,,,,,,,,,,,,,,,,,,,,,,,,,,,,,,,,,,,,,
294259,2022-09-25_22h44.52.607,vts_reward_expectancy,2022.2.4,MacIntel,59.99880002,Chrome,1440,900,,,a,1.5328,10,130,0,1,9,21,4,1,0,1,0,0,0,0,1,0,circle,hexagon,,,,,,,,,,,,,,,,,,,,,,,,,,,,,,,,,,,,,,,,,,,,,,,,,,,,,,
294259,2022-09-25_22h44.52.607,vts_reward_expectancy,2022.2.4,MacIntel,59.99880002,Chrome,1440,900,,,l,2.5099,10,140,0,1,10,22,6,1,0,0,1,0,1,0,0,0,hexagon,triangle,,,,,,,,,,,,,,,,,,,,,,,,,,,,,,,,,,,,,,,,,,,,,,,,,,,,,,
294259,2022-09-25_22h44.52.607,vts_reward_expectancy,2022.2.4,MacIntel,59.99880002,Chrome,1440,900,,,a,2.0824,1,141,0,1,11,23,3,1,0,1,0,0,1,0,0,0,circle,triangle,,,,,,,,,,,,,,,,,,,,,,,,,,,,,,,,,,,,,,,,,,,,,,,,,,,,,,
294259,2022-09-25_22h44.52.607,vts_reward_expectancy,2022.2.4,MacIntel,59.99880002,Chrome,1440,900,,,l,1.5375,1,142,0,2,0,24,3,1,0,1,0,0,1,0,0,0,circle,triangle,,,,,,,,,,,,,,,,,,,,,,,,,,,,,,,,,,,,,,,,,,,,,,,,,,,,,,
294259,2022-09-25_22h44.52.607,vts_reward_expectancy,2022.2.4,MacIntel,59.99880002,Chrome,1440,900,,,a,4.1341,10,152,0,2,1,25,6,1,0,0,1,0,1,0,0,0,hexagon,triangle,,,,,,,,,,,,,,,,,,,,,,,,,,,,,,,,,,,,,,,,,,,,,,,,,,,,,,
294259,2022-09-25_22h44.52.607,vts_reward_expectancy,2022.2.4,MacIntel,59.99880002,Chrome,1440,900,,,a,2.1201,10,162,0,2,2,26,5,1,0,1,0,0,0,0,0,1,circle,star,,,,,,,,,,,,,,,,,,,,,,,,,,,,,,,,,,,,,,,,,,,,,,,,,,,,,,
294259,2022-09-25_22h44.52.607,vts_reward_expectancy,2022.2.4,MacIntel,59.99880002,Chrome,1440,900,,,a,1.3026,10,172,0,2,3,27,4,1,0,1,0,0,0,0,1,0,circle,hexagon,,,,,,,,,,,,,,,,,,,,,,,,,,,,,,,,,,,,,,,,,,,,,,,,,,,,,,
294259,2022-09-25_22h44.52.607,vts_reward_expectancy,2022.2.4,MacIntel,59.99880002,Chrome,1440,900,,,l,1.9011,1,173,0,2,4,28,2,1,1,0,0,0,0,0,0,1,triangle,star,,,,,,,,,,,,,,,,,,,,,,,,,,,,,,,,,,,,,,,,,,,,,,,,,,,,,,
294259,2022-09-25_22h44.52.607,vts_reward_expectancy,2022.2.4,MacIntel,59.99880002,Chrome,1440,900,,,l,3.0818,1,174,0,2,5,29,9,1,0,0,0,1,1,0,0,0,star,triangle,,,,,,,,,,,,,,,,,,,,,,,,,,,,,,,,,,,,,,,,,,,,,,,,,,,,,,
294259,2022-09-25_22h44.52.607,vts_reward_expectancy,2022.2.4,MacIntel,59.99880002,Chrome,1440,900,,,l,1.3175,10,184,0,2,6,30,11,1,0,0,0,1,0,0,1,0,star,hexagon,,,,,,,,,,,,,,,,,,,,,,,,,,,,,,,,,,,,,,,,,,,,,,,,,,,,,,
294259,2022-09-25_22h44.52.607,vts_reward_expectancy,2022.2.4,MacIntel,59.99880002,Chrome,1440,900,,,l,2.5347,1,185,0,2,7,31,7,1,0,0,1,0,0,1,0,0,hexagon,circle,,,,,,,,,,,,,,,,,,,,,,,,,,,,,,,,,,,,,,,,,,,,,,,,,,,,,,
294259,2022-09-25_22h44.52.607,vts_reward_expectancy,2022.2.4,MacIntel,59.99880002,Chrome,1440,900,,,l,1.6887,10,195,0,2,8,32,10,1,0,0,0,1,0,1,0,0,star ,circle,,,,,,,,,,,,,,,,,,,,,,,,,,,,,,,,,,,,,,,,,,,,,,,,,,,,,,
294259,2022-09-25_22h44.52.607,vts_reward_expectancy,2022.2.4,MacIntel,59.99880002,Chrome,1440,900,,,a,2.0532,1,196,0,2,9,33,1,1,1,0,0,0,0,0,1,0,triangle,hexagon,,,,,,,,,,,,,,,,,,,,,,,,,,,,,,,,,,,,,,,,,,,,,,,,,,,,,,
294259,2022-09-25_22h44.52.607,vts_reward_expectancy,2022.2.4,MacIntel,59.99880002,Chrome,1440,900,,,l,1.4163,10,206,0,2,10,34,0,1,1,0,0,0,0,1,0,0,triangle,circle,,,,,,,,,,,,,,,,,,,,,,,,,,,,,,,,,,,,,,,,,,,,,,,,,,,,,,
294259,2022-09-25_22h44.52.607,vts_reward_expectancy,2022.2.4,MacIntel,59.99880002,Chrome,1440,900,,,a,6.9155,10,216,0,2,11,35,8,1,0,0,1,0,0,0,0,1,hexagon,star,,,,,,,,,,,,,,,,,,,,,,,,,,,,,,,,,,,,,,,,,,,,,,,,,,,,,,
294259,2022-09-25_22h44.52.607,vts_reward_expectancy,2022.2.4,MacIntel,59.99880002,Chrome,1440,900,,,a,2.2191,10,226,1,0,0,0,8,1,0,0,1,0,0,0,0,1,hexagon,star,,,,,,,,,,,,,,,,,,,,,,,,,,,,,,,,,,,,,,,,,,,,,,,,,,,,,,
294259,2022-09-25_22h44.52.607,vts_reward_expectancy,2022.2.4,MacIntel,59.99880002,Chrome,1440,900,,,l,1.1665,1,227,1,0,1,1,6,1,0,0,1,0,1,0,0,0,hexagon,triangle,,,,,,,,,,,,,,,,,,,,,,,,,,,,,,,,,,,,,,,,,,,,,,,,,,,,,,
294259,2022-09-25_22h44.52.607,vts_reward_expectancy,2022.2.4,MacIntel,59.99880002,Chrome,1440,900,,,l,2.6687,1,228,1,0,2,2,1,1,1,0,0,0,0,0,1,0,triangle,hexagon,,,,,,,,,,,,,,,,,,,,,,,,,,,,,,,,,,,,,,,,,,,,,,,,,,,,,,
294259,2022-09-25_22h44.52.607,vts_reward_expectancy,2022.2.4,MacIntel,59.99880002,Chrome,1440,900,,,l,1.3157,1,229,1,0,3,3,10,1,0,0,0,1,0,1,0,0,star ,circle,,,,,,,,,,,,,,,,,,,,,,,,,,,,,,,,,,,,,,,,,,,,,,,,,,,,,,
294259,2022-09-25_22h44.52.607,vts_reward_expectancy,2022.2.4,MacIntel,59.99880002,Chrome,1440,900,,,l,1.4539,1,230,1,0,4,4,7,1,0,0,1,0,0,1,0,0,hexagon,circle,,,,,,,,,,,,,,,,,,,,,,,,,,,,,,,,,,,,,,,,,,,,,,,,,,,,,,
294259,2022-09-25_22h44.52.607,vts_reward_expectancy,2022.2.4,MacIntel,59.99880002,Chrome,1440,900,,,a,1.1175,1,231,1,0,5,5,2,1,1,0,0,0,0,0,0,1,triangle,star,,,,,,,,,,,,,,,,,,,,,,,,,,,,,,,,,,,,,,,,,,,,,,,,,,,,,,
294259,2022-09-25_22h44.52.607,vts_reward_expectancy,2022.2.4,MacIntel,59.99880002,Chrome,1440,900,,,a,1.2668,10,241,1,0,6,6,4,1,0,1,0,0,0,0,1,0,circle,hexagon,,,,,,,,,,,,,,,,,,,,,,,,,,,,,,,,,,,,,,,,,,,,,,,,,,,,,,
294259,2022-09-25_22h44.52.607,vts_reward_expectancy,2022.2.4,MacIntel,59.99880002,Chrome,1440,900,,,l,1.2335,10,251,1,0,7,7,0,1,1,0,0,0,0,1,0,0,triangle,circle,,,,,,,,,,,,,,,,,,,,,,,,,,,,,,,,,,,,,,,,,,,,,,,,,,,,,,
294259,2022-09-25_22h44.52.607,vts_reward_expectancy,2022.2.4,MacIntel,59.99880002,Chrome,1440,900,,,a,1.3509,1,252,1,0,8,8,11,1,0,0,0,1,0,0,1,0,star,hexagon,,,,,,,,,,,,,,,,,,,,,,,,,,,,,,,,,,,,,,,,,,,,,,,,,,,,,,
294259,2022-09-25_22h44.52.607,vts_reward_expectancy,2022.2.4,MacIntel,59.99880002,Chrome,1440,900,,,a,0.882,10,262,1,0,9,9,5,1,0,1,0,0,0,0,0,1,circle,star,,,,,,,,,,,,,,,,,,,,,,,,,,,,,,,,,,,,,,,,,,,,,,,,,,,,,,
294259,2022-09-25_22h44.52.607,vts_reward_expectancy,2022.2.4,MacIntel,59.99880002,Chrome,1440,900,,,l,5.7716,1,263,1,0,10,10,9,1,0,0,0,1,1,0,0,0,star,triangle,,,,,,,,,,,,,,,,,,,,,,,,,,,,,,,,,,,,,,,,,,,,,,,,,,,,,,
294259,2022-09-25_22h44.52.607,vts_reward_expectancy,2022.2.4,MacIntel,59.99880002,Chrome,1440,900,,,a,7.088,10,273,1,0,11,11,3,1,0,1,0,0,1,0,0,0,circle,triangle,,,,,,,,,,,,,,,,,,,,,,,,,,,,,,,,,,,,,,,,,,,,,,,,,,,,,,
294259,2022-09-25_22h44.52.607,vts_reward_expectancy,2022.2.4,MacIntel,59.99880002,Chrome,1440,900,,,a,2.1856,10,283,1,1,0,12,4,1,0,1,0,0,0,0,1,0,circle,hexagon,,,,,,,,,,,,,,,,,,,,,,,,,,,,,,,,,,,,,,,,,,,,,,,,,,,,,,
294259,2022-09-25_22h44.52.607,vts_reward_expectancy,2022.2.4,MacIntel,59.99880002,Chrome,1440,900,,,l,2.5363,10,293,1,1,1,13,10,1,0,0,0,1,0,1,0,0,star ,circle,,,,,,,,,,,,,,,,,,,,,,,,,,,,,,,,,,,,,,,,,,,,,,,,,,,,,,
294259,2022-09-25_22h44.52.607,vts_reward_expectancy,2022.2.4,MacIntel,59.99880002,Chrome,1440,900,,,a,1.8495,1,294,1,1,2,14,11,1,0,0,0,1,0,0,1,0,star,hexagon,,,,,,,,,,,,,,,,,,,,,,,,,,,,,,,,,,,,,,,,,,,,,,,,,,,,,,
294259,2022-09-25_22h44.52.607,vts_reward_expectancy,2022.2.4,MacIntel,59.99880002,Chrome,1440,900,,,a,3.1747,10,304,1,1,3,15,8,1,0,0,1,0,0,0,0,1,hexagon,star,,,,,,,,,,,,,,,,,,,,,,,,,,,,,,,,,,,,,,,,,,,,,,,,,,,,,,
294259,2022-09-25_22h44.52.607,vts_reward_expectancy,2022.2.4,MacIntel,59.99880002,Chrome,1440,900,,,a,5.5676,10,314,1,1,4,16,3,1,0,1,0,0,1,0,0,0,circle,triangle,,,,,,,,,,,,,,,,,,,,,,,,,,,,,,,,,,,,,,,,,,,,,,,,,,,,,,
294259,2022-09-25_22h44.52.607,vts_reward_expectancy,2022.2.4,MacIntel,59.99880002,Chrome,1440,900,,,a,2.356,10,324,1,1,5,17,6,1,0,0,1,0,1,0,0,0,hexagon,triangle,,,,,,,,,,,,,,,,,,,,,,,,,,,,,,,,,,,,,,,,,,,,,,,,,,,,,,
294259,2022-09-25_22h44.52.607,vts_reward_expectancy,2022.2.4,MacIntel,59.99880002,Chrome,1440,900,,,l,1.9198,1,325,1,1,6,18,1,1,1,0,0,0,0,0,1,0,triangle,hexagon,,,,,,,,,,,,,,,,,,,,,,,,,,,,,,,,,,,,,,,,,,,,,,,,,,,,,,
294259,2022-09-25_22h44.52.607,vts_reward_expectancy,2022.2.4,MacIntel,59.99880002,Chrome,1440,900,,,l,3.5109,10,335,1,1,7,19,0,1,1,0,0,0,0,1,0,0,triangle,circle,,,,,,,,,,,,,,,,,,,,,,,,,,,,,,,,,,,,,,,,,,,,,,,,,,,,,,
294259,2022-09-25_22h44.52.607,vts_reward_expectancy,2022.2.4,MacIntel,59.99880002,Chrome,1440,900,,,l,1.6026,10,345,1,1,8,20,7,1,0,0,1,0,0,1,0,0,hexagon,circle,,,,,,,,,,,,,,,,,,,,,,,,,,,,,,,,,,,,,,,,,,,,,,,,,,,,,,
294259,2022-09-25_22h44.52.607,vts_reward_expectancy,2022.2.4,MacIntel,59.99880002,Chrome,1440,900,,,a,2.6343,1,346,1,1,9,21,9,1,0,0,0,1,1,0,0,0,star,triangle,,,,,,,,,,,,,,,,,,,,,,,,,,,,,,,,,,,,,,,,,,,,,,,,,,,,,,
294259,2022-09-25_22h44.52.607,vts_reward_expectancy,2022.2.4,MacIntel,59.99880002,Chrome,1440,900,,,a,2.4495,10,356,1,1,10,22,5,1,0,1,0,0,0,0,0,1,circle,star,,,,,,,,,,,,,,,,,,,,,,,,,,,,,,,,,,,,,,,,,,,,,,,,,,,,,,
294259,2022-09-25_22h44.52.607,vts_reward_expectancy,2022.2.4,MacIntel,59.99880002,Chrome,1440,900,,,a,4.2514,1,357,1,1,11,23,2,1,1,0,0,0,0,0,0,1,triangle,star,,,,,,,,,,,,,,,,,,,,,,,,,,,,,,,,,,,,,,,,,,,,,,,,,,,,,,
294259,2022-09-25_22h44.52.607,vts_reward_expectancy,2022.2.4,MacIntel,59.99880002,Chrome,1440,900,,,l,0.9816,10,367,1,2,0,24,10,1,0,0,0,1,0,1,0,0,star ,circle,,,,,,,,,,,,,,,,,,,,,,,,,,,,,,,,,,,,,,,,,,,,,,,,,,,,,,
294259,2022-09-25_22h44.52.607,vts_reward_expectancy,2022.2.4,MacIntel,59.99880002,Chrome,1440,900,,,a,5.8701,1,368,1,2,1,25,9,1,0,0,0,1,1,0,0,0,star,triangle,,,,,,,,,,,,,,,,,,,,,,,,,,,,,,,,,,,,,,,,,,,,,,,,,,,,,,
294259,2022-09-25_22h44.52.607,vts_reward_expectancy,2022.2.4,MacIntel,59.99880002,Chrome,1440,900,,,a,7.402,10,378,1,2,2,26,6,1,0,0,1,0,1,0,0,0,hexagon,triangle,,,,,,,,,,,,,,,,,,,,,,,,,,,,,,,,,,,,,,,,,,,,,,,,,,,,,,
294259,2022-09-25_22h44.52.607,vts_reward_expectancy,2022.2.4,MacIntel,59.99880002,Chrome,1440,900,,,l,0.9923,1,379,1,2,3,27,0,1,1,0,0,0,0,1,0,0,triangle,circle,,,,,,,,,,,,,,,,,,,,,,,,,,,,,,,,,,,,,,,,,,,,,,,,,,,,,,
294259,2022-09-25_22h44.52.607,vts_reward_expectancy,2022.2.4,MacIntel,59.99880002,Chrome,1440,900,,,a,3.9352,1,380,1,2,4,28,8,1,0,0,1,0,0,0,0,1,hexagon,star,,,,,,,,,,,,,,,,,,,,,,,,,,,,,,,,,,,,,,,,,,,,,,,,,,,,,,
294259,2022-09-25_22h44.52.607,vts_reward_expectancy,2022.2.4,MacIntel,59.99880002,Chrome,1440,900,,,a,0.9395,1,381,1,2,5,29,3,1,0,1,0,0,1,0,0,0,circle,triangle,,,,,,,,,,,,,,,,,,,,,,,,,,,,,,,,,,,,,,,,,,,,,,,,,,,,,,
294259,2022-09-25_22h44.52.607,vts_reward_expectancy,2022.2.4,MacIntel,59.99880002,Chrome,1440,900,,,a,1.3336,10,391,1,2,6,30,4,1,0,1,0,0,0,0,1,0,circle,hexagon,,,,,,,,,,,,,,,,,,,,,,,,,,,,,,,,,,,,,,,,,,,,,,,,,,,,,,
294259,2022-09-25_22h44.52.607,vts_reward_expectancy,2022.2.4,MacIntel,59.99880002,Chrome,1440,900,,,l,2.9082,1,392,1,2,7,31,1,1,1,0,0,0,0,0,1,0,triangle,hexagon,,,,,,,,,,,,,,,,,,,,,,,,,,,,,,,,,,,,,,,,,,,,,,,,,,,,,,
294259,2022-09-25_22h44.52.607,vts_reward_expectancy,2022.2.4,MacIntel,59.99880002,Chrome,1440,900,,,a,1.5354,10,402,1,2,8,32,5,1,0,1,0,0,0,0,0,1,circle,star,,,,,,,,,,,,,,,,,,,,,,,,,,,,,,,,,,,,,,,,,,,,,,,,,,,,,,
294259,2022-09-25_22h44.52.607,vts_reward_expectancy,2022.2.4,MacIntel,59.99880002,Chrome,1440,900,,,a,1.9009,10,412,1,2,9,33,2,1,1,0,0,0,0,0,0,1,triangle,star,,,,,,,,,,,,,,,,,,,,,,,,,,,,,,,,,,,,,,,,,,,,,,,,,,,,,,
294259,2022-09-25_22h44.52.607,vts_reward_expectancy,2022.2.4,MacIntel,59.99880002,Chrome,1440,900,,,l,1.8048,1,413,1,2,10,34,11,1,0,0,0,1,0,0,1,0,star,hexagon,,,,,,,,,,,,,,,,,,,,,,,,,,,,,,,,,,,,,,,,,,,,,,,,,,,,,,
294259,2022-09-25_22h44.52.607,vts_reward_expectancy,2022.2.4,MacIntel,59.99880002,Chrome,1440,900,,,l,1.1555,10,423,1,2,11,35,7,1,0,0,1,0,0,1,0,0,hexagon,circle,,,,,,,,,,,,,,,,,,,,,,,,,,,,,,,,,,,,,,,,,,,,,,,,,,,,,,
294259,2022-09-25_22h44.52.607,vts_reward_expectancy,2022.2.4,MacIntel,59.99880002,Chrome,1440,900,,,l,3.0382,1,424,2,0,0,0,6,1,0,0,1,0,1,0,0,0,hexagon,triangle,,,,,,,,,,,,,,,,,,,,,,,,,,,,,,,,,,,,,,,,,,,,,,,,,,,,,,
294259,2022-09-25_22h44.52.607,vts_reward_expectancy,2022.2.4,MacIntel,59.99880002,Chrome,1440,900,,,l,1.1659,10,434,2,0,1,1,10,1,0,0,0,1,0,1,0,0,star ,circle,,,,,,,,,,,,,,,,,,,,,,,,,,,,,,,,,,,,,,,,,,,,,,,,,,,,,,
294259,2022-09-25_22h44.52.607,vts_reward_expectancy,2022.2.4,MacIntel,59.99880002,Chrome,1440,900,,,l,1.437,10,444,2,0,2,2,9,1,0,0,0,1,1,0,0,0,star,triangle,,,,,,,,,,,,,,,,,,,,,,,,,,,,,,,,,,,,,,,,,,,,,,,,,,,,,,
294259,2022-09-25_22h44.52.607,vts_reward_expectancy,2022.2.4,MacIntel,59.99880002,Chrome,1440,900,,,a,2.6031,1,445,2,0,3,3,1,1,1,0,0,0,0,0,1,0,triangle,hexagon,,,,,,,,,,,,,,,,,,,,,,,,,,,,,,,,,,,,,,,,,,,,,,,,,,,,,,
294259,2022-09-25_22h44.52.607,vts_reward_expectancy,2022.2.4,MacIntel,59.99880002,Chrome,1440,900,,,l,0.9359,10,455,2,0,4,4,7,1,0,0,1,0,0,1,0,0,hexagon,circle,,,,,,,,,,,,,,,,,,,,,,,,,,,,,,,,,,,,,,,,,,,,,,,,,,,,,,
294259,2022-09-25_22h44.52.607,vts_reward_expectancy,2022.2.4,MacIntel,59.99880002,Chrome,1440,900,,,a,1.2882,10,465,2,0,5,5,4,1,0,1,0,0,0,0,1,0,circle,hexagon,,,,,,,,,,,,,,,,,,,,,,,,,,,,,,,,,,,,,,,,,,,,,,,,,,,,,,
294259,2022-09-25_22h44.52.607,vts_reward_expectancy,2022.2.4,MacIntel,59.99880002,Chrome,1440,900,,,a,0.8174,10,475,2,0,6,6,3,1,0,1,0,0,1,0,0,0,circle,triangle,,,,,,,,,,,,,,,,,,,,,,,,,,,,,,,,,,,,,,,,,,,,,,,,,,,,,,
294259,2022-09-25_22h44.52.607,vts_reward_expectancy,2022.2.4,MacIntel,59.99880002,Chrome,1440,900,,,a,1.0552,10,485,2,0,7,7,5,1,0,1,0,0,0,0,0,1,circle,star,,,,,,,,,,,,,,,,,,,,,,,,,,,,,,,,,,,,,,,,,,,,,,,,,,,,,,
294259,2022-09-25_22h44.52.607,vts_reward_expectancy,2022.2.4,MacIntel,59.99880002,Chrome,1440,900,,,a,1.9671,10,495,2,0,8,8,2,1,1,0,0,0,0,0,0,1,triangle,star,,,,,,,,,,,,,,,,,,,,,,,,,,,,,,,,,,,,,,,,,,,,,,,,,,,,,,
294259,2022-09-25_22h44.52.607,vts_reward_expectancy,2022.2.4,MacIntel,59.99880002,Chrome,1440,900,,,l,1.8187,10,505,2,0,9,9,8,1,0,0,1,0,0,0,0,1,hexagon,star,,,,,,,,,,,,,,,,,,,,,,,,,,,,,,,,,,,,,,,,,,,,,,,,,,,,,,
294259,2022-09-25_22h44.52.607,vts_reward_expectancy,2022.2.4,MacIntel,59.99880002,Chrome,1440,900,,,a,1.6165,1,506,2,0,10,10,11,1,0,0,0,1,0,0,1,0,star,hexagon,,,,,,,,,,,,,,,,,,,,,,,,,,,,,,,,,,,,,,,,,,,,,,,,,,,,,,
294259,2022-09-25_22h44.52.607,vts_reward_expectancy,2022.2.4,MacIntel,59.99880002,Chrome,1440,900,,,l,1.2482,10,516,2,0,11,11,0,1,1,0,0,0,0,1,0,0,triangle,circle,,,,,,,,,,,,,,,,,,,,,,,,,,,,,,,,,,,,,,,,,,,,,,,,,,,,,,
294259,2022-09-25_22h44.52.607,vts_reward_expectancy,2022.2.4,MacIntel,59.99880002,Chrome,1440,900,,,l,1.6674,1,517,2,1,0,12,8,1,0,0,1,0,0,0,0,1,hexagon,star,,,,,,,,,,,,,,,,,,,,,,,,,,,,,,,,,,,,,,,,,,,,,,,,,,,,,,
294259,2022-09-25_22h44.52.607,vts_reward_expectancy,2022.2.4,MacIntel,59.99880002,Chrome,1440,900,,,l,1.3505,1,518,2,1,1,13,9,1,0,0,0,1,1,0,0,0,star,triangle,,,,,,,,,,,,,,,,,,,,,,,,,,,,,,,,,,,,,,,,,,,,,,,,,,,,,,
294259,2022-09-25_22h44.52.607,vts_reward_expectancy,2022.2.4,MacIntel,59.99880002,Chrome,1440,900,,,a,9.392,10,528,2,1,2,14,2,1,1,0,0,0,0,0,0,1,triangle,star,,,,,,,,,,,,,,,,,,,,,,,,,,,,,,,,,,,,,,,,,,,,,,,,,,,,,,
294259,2022-09-25_22h44.52.607,vts_reward_expectancy,2022.2.4,MacIntel,59.99880002,Chrome,1440,900,,,l,1.518,10,538,2,1,3,15,10,1,0,0,0,1,0,1,0,0,star ,circle,,,,,,,,,,,,,,,,,,,,,,,,,,,,,,,,,,,,,,,,,,,,,,,,,,,,,,
294259,2022-09-25_22h44.52.607,vts_reward_expectancy,2022.2.4,MacIntel,59.99880002,Chrome,1440,900,,,l,2.6703,1,539,2,1,4,16,6,1,0,0,1,0,1,0,0,0,hexagon,triangle,,,,,,,,,,,,,,,,,,,,,,,,,,,,,,,,,,,,,,,,,,,,,,,,,,,,,,
294259,2022-09-25_22h44.52.607,vts_reward_expectancy,2022.2.4,MacIntel,59.99880002,Chrome,1440,900,,,l,2.8344,10,549,2,1,5,17,0,1,1,0,0,0,0,1,0,0,triangle,circle,,,,,,,,,,,,,,,,,,,,,,,,,,,,,,,,,,,,,,,,,,,,,,,,,,,,,,
294259,2022-09-25_22h44.52.607,vts_reward_expectancy,2022.2.4,MacIntel,59.99880002,Chrome,1440,900,,,a,1.1713,10,559,2,1,6,18,4,1,0,1,0,0,0,0,1,0,circle,hexagon,,,,,,,,,,,,,,,,,,,,,,,,,,,,,,,,,,,,,,,,,,,,,,,,,,,,,,
294259,2022-09-25_22h44.52.607,vts_reward_expectancy,2022.2.4,MacIntel,59.99880002,Chrome,1440,900,,,a,2.9053,1,560,2,1,7,19,1,1,1,0,0,0,0,0,1,0,triangle,hexagon,,,,,,,,,,,,,,,,,,,,,,,,,,,,,,,,,,,,,,,,,,,,,,,,,,,,,,
294259,2022-09-25_22h44.52.607,vts_reward_expectancy,2022.2.4,MacIntel,59.99880002,Chrome,1440,900,,,l,5.4853,1,561,2,1,8,20,11,1,0,0,0,1,0,0,1,0,star,hexagon,,,,,,,,,,,,,,,,,,,,,,,,,,,,,,,,,,,,,,,,,,,,,,,,,,,,,,
294259,2022-09-25_22h44.52.607,vts_reward_expectancy,2022.2.4,MacIntel,59.99880002,Chrome,1440,900,,,a,0.7704,10,571,2,1,9,21,3,1,0,1,0,0,1,0,0,0,circle,triangle,,,,,,,,,,,,,,,,,,,,,,,,,,,,,,,,,,,,,,,,,,,,,,,,,,,,,,
294259,2022-09-25_22h44.52.607,vts_reward_expectancy,2022.2.4,MacIntel,59.99880002,Chrome,1440,900,,,l,0.6329,1,572,2,1,10,22,7,1,0,0,1,0,0,1,0,0,hexagon,circle,,,,,,,,,,,,,,,,,,,,,,,,,,,,,,,,,,,,,,,,,,,,,,,,,,,,,,
294259,2022-09-25_22h44.52.607,vts_reward_expectancy,2022.2.4,MacIntel,59.99880002,Chrome,1440,900,,,a,0.5692,10,582,2,1,11,23,5,1,0,1,0,0,0,0,0,1,circle,star,,,,,,,,,,,,,,,,,,,,,,,,,,,,,,,,,,,,,,,,,,,,,,,,,,,,,,
294259,2022-09-25_22h44.52.607,vts_reward_expectancy,2022.2.4,MacIntel,59.99880002,Chrome,1440,900,,,a,8.2684,1,583,2,2,0,24,11,1,0,0,0,1,0,0,1,0,star,hexagon,,,,,,,,,,,,,,,,,,,,,,,,,,,,,,,,,,,,,,,,,,,,,,,,,,,,,,
294259,2022-09-25_22h44.52.607,vts_reward_expectancy,2022.2.4,MacIntel,59.99880002,Chrome,1440,900,,,l,0.5831,10,593,2,2,1,25,10,1,0,0,0,1,0,1,0,0,star ,circle,,,,,,,,,,,,,,,,,,,,,,,,,,,,,,,,,,,,,,,,,,,,,,,,,,,,,,
294259,2022-09-25_22h44.52.607,vts_reward_expectancy,2022.2.4,MacIntel,59.99880002,Chrome,1440,900,,,l,1.7845,10,603,2,2,2,26,8,1,0,0,1,0,0,0,0,1,hexagon,star,,,,,,,,,,,,,,,,,,,,,,,,,,,,,,,,,,,,,,,,,,,,,,,,,,,,,,
294259,2022-09-25_22h44.52.607,vts_reward_expectancy,2022.2.4,MacIntel,59.99880002,Chrome,1440,900,,,a,0.7489,10,613,2,2,3,27,4,1,0,1,0,0,0,0,1,0,circle,hexagon,,,,,,,,,,,,,,,,,,,,,,,,,,,,,,,,,,,,,,,,,,,,,,,,,,,,,,
294259,2022-09-25_22h44.52.607,vts_reward_expectancy,2022.2.4,MacIntel,59.99880002,Chrome,1440,900,,,l,1.1859,10,623,2,2,4,28,0,1,1,0,0,0,0,1,0,0,triangle,circle,,,,,,,,,,,,,,,,,,,,,,,,,,,,,,,,,,,,,,,,,,,,,,,,,,,,,,
294259,2022-09-25_22h44.52.607,vts_reward_expectancy,2022.2.4,MacIntel,59.99880002,Chrome,1440,900,,,l,2.5358,10,633,2,2,5,29,6,1,0,0,1,0,1,0,0,0,hexagon,triangle,,,,,,,,,,,,,,,,,,,,,,,,,,,,,,,,,,,,,,,,,,,,,,,,,,,,,,
294259,2022-09-25_22h44.52.607,vts_reward_expectancy,2022.2.4,MacIntel,59.99880002,Chrome,1440,900,,,l,1.0187,10,643,2,2,6,30,7,1,0,0,1,0,0,1,0,0,hexagon,circle,,,,,,,,,,,,,,,,,,,,,,,,,,,,,,,,,,,,,,,,,,,,,,,,,,,,,,
294259,2022-09-25_22h44.52.607,vts_reward_expectancy,2022.2.4,MacIntel,59.99880002,Chrome,1440,900,,,a,6.2494,1,644,2,2,7,31,2,1,1,0,0,0,0,0,0,1,triangle,star,,,,,,,,,,,,,,,,,,,,,,,,,,,,,,,,,,,,,,,,,,,,,,,,,,,,,,
294259,2022-09-25_22h44.52.607,vts_reward_expectancy,2022.2.4,MacIntel,59.99880002,Chrome,1440,900,,,l,3.2374,1,645,2,2,8,32,9,1,0,0,0,1,1,0,0,0,star,triangle,,,,,,,,,,,,,,,,,,,,,,,,,,,,,,,,,,,,,,,,,,,,,,,,,,,,,,
294259,2022-09-25_22h44.52.607,vts_reward_expectancy,2022.2.4,MacIntel,59.99880002,Chrome,1440,900,,,a,1.1362,10,655,2,2,9,33,5,1,0,1,0,0,0,0,0,1,circle,star,,,,,,,,,,,,,,,,,,,,,,,,,,,,,,,,,,,,,,,,,,,,,,,,,,,,,,
294259,2022-09-25_22h44.52.607,vts_reward_expectancy,2022.2.4,MacIntel,59.99880002,Chrome,1440,900,,,a,1.6522,10,665,2,2,10,34,3,1,0,1,0,0,1,0,0,0,circle,triangle,,,,,,,,,,,,,,,,,,,,,,,,,,,,,,,,,,,,,,,,,,,,,,,,,,,,,,
294259,2022-09-25_22h44.52.607,vts_reward_expectancy,2022.2.4,MacIntel,59.99880002,Chrome,1440,900,,,a,1.8574,1,666,2,2,11,35,1,1,1,0,0,0,0,0,1,0,triangle,hexagon,,,,,,,,,,,,,,,,,,,,,,,,,,,,,,,,,,,,,,,,,,,,,,,,,,,,,,
294259,2022-09-25_22h44.52.607,vts_reward_expectancy,2022.2.4,MacIntel,59.99880002,Chrome,1440,900,,,,,,,,,,,,,,,,,,,,,,,D,132,triangle,0,0,,0,0,0,0,0,1,,,,,,,,,,,,,,,,,,,,,,,,,,,,,,,,,,,,,,,,,,
294259,2022-09-25_22h44.52.607,vts_reward_expectancy,2022.2.4,MacIntel,59.99880002,Chrome,1440,900,,,,,,,,,,,,,,,,,,,,,,,W,181,circle,1,1,f,0,1,0,1,0,1,1.0176,,,,,,,,,,,,,,,,,,,,,,,,,,,,,,,,,,,,,,,,,
294259,2022-09-25_22h44.52.607,vts_reward_expectancy,2022.2.4,MacIntel,59.99880002,Chrome,1440,900,,,,,,,,,,,,,,,,,,,,,,,Y,174,hexagon,1,0,f,0,2,0,2,0,1,0.8327,,,,,,,,,,,,,,,,,,,,,,,,,,,,,,,,,,,,,,,,,
294259,2022-09-25_22h44.52.607,vts_reward_expectancy,2022.2.4,MacIntel,59.99880002,Chrome,1440,900,,,,,,,,,,,,,,,,,,,,,,,S,125,star,1,0,f,0,3,0,3,0,1,0.7803,,,,,,,,,,,,,,,,,,,,,,,,,,,,,,,,,,,,,,,,,
294259,2022-09-25_22h44.52.607,vts_reward_expectancy,2022.2.4,MacIntel,59.99880002,Chrome,1440,900,,,,,,,,,,,,,,,,,,,,,,,F,167,triangle,0,0,f,0,4,0,4,0,1,0.9857,,,,,,,,,,,,,,,,,,,,,,,,,,,,,,,,,,,,,,,,,
294259,2022-09-25_22h44.52.607,vts_reward_expectancy,2022.2.4,MacIntel,59.99880002,Chrome,1440,900,,,,,,,,,,,,,,,,,,,,,,,U,146,circle,1,1,f,0,5,0,5,0,1,0.7471,,,,,,,,,,,,,,,,,,,,,,,,,,,,,,,,,,,,,,,,,
294259,2022-09-25_22h44.52.607,vts_reward_expectancy,2022.2.4,MacIntel,59.99880002,Chrome,1440,900,,,,,,,,,,,,,,,,,,,,,,,H,139,hexagon,1,0,d,0,6,0,6,0,1,0.5649,,,,,,,,,,,,,,,,,,,,,,,,,,,,,,,,,,,,,,,,,
294259,2022-09-25_22h44.52.607,vts_reward_expectancy,2022.2.4,MacIntel,59.99880002,Chrome,1440,900,,,,,,,,,,,,,,,,,,,,,,,B,160,star,1,0,d,0,7,0,7,0,1,0.5007,,,,,,,,,,,,,,,,,,,,,,,,,,,,,,,,,,,,,,,,,
294259,2022-09-25_22h44.52.607,vts_reward_expectancy,2022.2.4,MacIntel,59.99880002,Chrome,1440,900,,,,,,,,,,,,,,,,,,,,,,,D,132,triangle,1,0,d,0,8,0,8,0,1,0.5685,,,,,,,,,,,,,,,,,,,,,,,,,,,,,,,,,,,,,,,,,
294259,2022-09-25_22h44.52.607,vts_reward_expectancy,2022.2.4,MacIntel,59.99880002,Chrome,1440,900,,,,,,,,,,,,,,,,,,,,,,,W,181,hexagon,1,0,f,0,9,0,9,0,1,0.6497,,,,,,,,,,,,,,,,,,,,,,,,,,,,,,,,,,,,,,,,,
294259,2022-09-25_22h44.52.607,vts_reward_expectancy,2022.2.4,MacIntel,59.99880002,Chrome,1440,900,,,,,,,,,,,,,,,,,,,,,,,Y,160,star,1,0,f,1,0,0,0,0,1,1.0482,,,,,,,,,,,,,,,,,,,,,,,,,,,,,,,,,,,,,,,,,
294259,2022-09-25_22h44.52.607,vts_reward_expectancy,2022.2.4,MacIntel,59.99880002,Chrome,1440,900,,,,,,,,,,,,,,,,,,,,,,,U,132,circle,1,0,f,1,1,0,1,0,1,0.7495,,,,,,,,,,,,,,,,,,,,,,,,,,,,,,,,,,,,,,,,,
294259,2022-09-25_22h44.52.607,vts_reward_expectancy,2022.2.4,MacIntel,59.99880002,Chrome,1440,900,,,,,,,,,,,,,,,,,,,,,,,D,181,triangle,1,0,d,1,2,0,2,0,1,1.3039,,,,,,,,,,,,,,,,,,,,,,,,,,,,,,,,,,,,,,,,,
294259,2022-09-25_22h44.52.607,vts_reward_expectancy,2022.2.4,MacIntel,59.99880002,Chrome,1440,900,,,,,,,,,,,,,,,,,,,,,,,B,125,hexagon,1,0,d,1,3,0,3,0,1,0.93,,,,,,,,,,,,,,,,,,,,,,,,,,,,,,,,,,,,,,,,,
294259,2022-09-25_22h44.52.607,vts_reward_expectancy,2022.2.4,MacIntel,59.99880002,Chrome,1440,900,,,,,,,,,,,,,,,,,,,,,,,W,167,star,1,0,f,1,4,0,4,0,1,1.431,,,,,,,,,,,,,,,,,,,,,,,,,,,,,,,,,,,,,,,,,
294259,2022-09-25_22h44.52.607,vts_reward_expectancy,2022.2.4,MacIntel,59.99880002,Chrome,1440,900,,,,,,,,,,,,,,,,,,,,,,,H,174,circle,1,0,d,1,5,0,5,0,1,1.0451,,,,,,,,,,,,,,,,,,,,,,,,,,,,,,,,,,,,,,,,,
294259,2022-09-25_22h44.52.607,vts_reward_expectancy,2022.2.4,MacIntel,59.99880002,Chrome,1440,900,,,,,,,,,,,,,,,,,,,,,,,S,139,triangle,1,0,f,1,6,0,6,0,1,1.3256,,,,,,,,,,,,,,,,,,,,,,,,,,,,,,,,,,,,,,,,,
294259,2022-09-25_22h44.52.607,vts_reward_expectancy,2022.2.4,MacIntel,59.99880002,Chrome,1440,900,,,,,,,,,,,,,,,,,,,,,,,F,146,hexagon,1,0,d,1,7,0,7,0,1,1.1633,,,,,,,,,,,,,,,,,,,,,,,,,,,,,,,,,,,,,,,,,
294259,2022-09-25_22h44.52.607,vts_reward_expectancy,2022.2.4,MacIntel,59.99880002,Chrome,1440,900,,,,,,,,,,,,,,,,,,,,,,,Y,160,triangle,1,0,f,1,8,0,8,0,1,1.2321,,,,,,,,,,,,,,,,,,,,,,,,,,,,,,,,,,,,,,,,,
294259,2022-09-25_22h44.52.607,vts_reward_expectancy,2022.2.4,MacIntel,59.99880002,Chrome,1440,900,,,,,,,,,,,,,,,,,,,,,,,U,132,hexagon,1,0,f,1,9,0,9,0,1,1.2307,,,,,,,,,,,,,,,,,,,,,,,,,,,,,,,,,,,,,,,,,
294259,2022-09-25_22h44.52.607,vts_reward_expectancy,2022.2.4,MacIntel,59.99880002,Chrome,1440,900,,,,,,,,,,,,,,,,,,,,,,,H,146,hexagon,1,0,,2,,,,,,,j,1.5496,0,0,0,0,1,,,,,,,,,,,,,,,,,,,,,,,,,,,,,,,,,,
294259,2022-09-25_22h44.52.607,vts_reward_expectancy,2022.2.4,MacIntel,59.99880002,Chrome,1440,900,,,,,,,,,,,,,,,,,,,,,,,F,167,circle,2,0,,2,,,,,,,d,1.3947,1,0,1,0,1,,,,,,,,,,,,,,,,,,,,,,,,,,,,,,,,,,
294259,2022-09-25_22h44.52.607,vts_reward_expectancy,2022.2.4,MacIntel,59.99880002,Chrome,1440,900,,,,,,,,,,,,,,,,,,,,,,,U,181,star,1,0,,2,,,,,,,k,1.0839,2,0,2,0,1,,,,,,,,,,,,,,,,,,,,,,,,,,,,,,,,,,
294259,2022-09-25_22h44.52.607,vts_reward_expectancy,2022.2.4,MacIntel,59.99880002,Chrome,1440,900,,,,,,,,,,,,,,,,,,,,,,,Y,139,triangle,1,0,,2,,,,,,,j,0.9872,3,0,3,0,1,,,,,,,,,,,,,,,,,,,,,,,,,,,,,,,,,,
294259,2022-09-25_22h44.52.607,vts_reward_expectancy,2022.2.4,MacIntel,59.99880002,Chrome,1440,900,,,,,,,,,,,,,,,,,,,,,,,D,174,hexagon,1,0,,2,,,,,,,k,0.9029,4,0,4,0,1,,,,,,,,,,,,,,,,,,,,,,,,,,,,,,,,,,
294259,2022-09-25_22h44.52.607,vts_reward_expectancy,2022.2.4,MacIntel,59.99880002,Chrome,1440,900,,,,,,,,,,,,,,,,,,,,,,,W,125,circle,1,0,,2,,,,,,,j,0.7136,5,0,5,0,1,,,,,,,,,,,,,,,,,,,,,,,,,,,,,,,,,,
294259,2022-09-25_22h44.52.607,vts_reward_expectancy,2022.2.4,MacIntel,59.99880002,Chrome,1440,900,,,,,,,,,,,,,,,,,,,,,,,S,132,star,1,0,,2,,,,,,,j,0.6511,6,0,6,0,1,,,,,,,,,,,,,,,,,,,,,,,,,,,,,,,,,,
294259,2022-09-25_22h44.52.607,vts_reward_expectancy,2022.2.4,MacIntel,59.99880002,Chrome,1440,900,,,,,,,,,,,,,,,,,,,,,,,B,160,triangle,1,0,,2,,,,,,,k,0.8807,7,0,7,0,1,,,,,,,,,,,,,,,,,,,,,,,,,,,,,,,,,,
294259,2022-09-25_22h44.52.607,vts_reward_expectancy,2022.2.4,MacIntel,59.99880002,Chrome,1440,900,,,,,,,,,,,,,,,,,,,,,,,H,146,hexagon,1,0,,2,,,,,,,j,0.8709,8,0,8,0,1,,,,,,,,,,,,,,,,,,,,,,,,,,,,,,,,,,
294259,2022-09-25_22h44.52.607,vts_reward_expectancy,2022.2.4,MacIntel,59.99880002,Chrome,1440,900,,,,,,,,,,,,,,,,,,,,,,,F,167,circle,1,0,,2,,,,,,,k,0.8239,9,0,9,0,1,,,,,,,,,,,,,,,,,,,,,,,,,,,,,,,,,,
294259,2022-09-25_22h44.52.607,vts_reward_expectancy,2022.2.4,MacIntel,59.99880002,Chrome,1440,900,,,,,0,666,,,,,,,,,,,,,,,,,S,139,circle,1,0,,3,,,,,,,,,,,,,,-1,letter,NA,f,1.9476,vtsPrac,0,0,0,0,1,,,,,,,,,,,,,,,,,,,,,,,
294259,2022-09-25_22h44.52.607,vts_reward_expectancy,2022.2.4,MacIntel,59.99880002,Chrome,1440,900,,,,,0,666,,,,,,,,,,,,,,,,,Y,132,triangle,1,0,,3,,,,,,,,,,,,,,switch,number,numSwt,j,1.5809,vtsPrac,1,0,1,0,1,,,,,,,,,,,,,,,,,,,,,,,
294259,2022-09-25_22h44.52.607,vts_reward_expectancy,2022.2.4,MacIntel,59.99880002,Chrome,1440,900,,,,,0,666,,,,,,,,,,,,,,,,,W,125,circle,1,0,,3,,,,,,,,,,,,,,switch,letter,lettSwt,f,0.7182,vtsPrac,2,0,2,0,1,,,,,,,,,,,,,,,,,,,,,,,
294259,2022-09-25_22h44.52.607,vts_reward_expectancy,2022.2.4,MacIntel,59.99880002,Chrome,1440,900,,,,,0,666,,,,,,,,,,,,,,,,,U,167,triangle,1,0,,3,,,,,,,,,,,,,,repeat,letter,lettRpt,f,0.734,vtsPrac,3,0,3,0,1,,,,,,,,,,,,,,,,,,,,,,,
294259,2022-09-25_22h44.52.607,vts_reward_expectancy,2022.2.4,MacIntel,59.99880002,Chrome,1440,900,,,,,0,666,,,,,,,,,,,,,,,,,S,139,star,1,0,,3,,,,,,,,,,,,,,repeat,letter,lettRpt,f,0.6963,vtsPrac,4,0,4,0,1,,,,,,,,,,,,,,,,,,,,,,,
294259,2022-09-25_22h44.52.607,vts_reward_expectancy,2022.2.4,MacIntel,59.99880002,Chrome,1440,900,,,,,0,666,,,,,,,,,,,,,,,,,Y,132,triangle,1,0,,3,,,,,,,,,,,,,,switch,number,numSwt,j,0.85,vtsPrac,5,0,5,0,1,,,,,,,,,,,,,,,,,,,,,,,
294259,2022-09-25_22h44.52.607,vts_reward_expectancy,2022.2.4,MacIntel,59.99880002,Chrome,1440,900,,,,,0,666,,,,,,,,,,,,,,,,,W,125,triangle,1,0,,3,,,,,,,,,,,,,,repeat,number,numRpt,j,1.0086,vtsPrac,6,0,6,0,1,,,,,,,,,,,,,,,,,,,,,,,
294259,2022-09-25_22h44.52.607,vts_reward_expectancy,2022.2.4,MacIntel,59.99880002,Chrome,1440,900,,,,,0,666,,,,,,,,,,,,,,,,,U,167,circle,1,0,,3,,,,,,,,,,,,,,repeat,number,numRpt,k,1.0144,vtsPrac,7,0,7,0,1,,,,,,,,,,,,,,,,,,,,,,,
294259,2022-09-25_22h44.52.607,vts_reward_expectancy,2022.2.4,MacIntel,59.99880002,Chrome,1440,900,,,,,0,666,,,,,,,,,,,,,,,,,U,160,circle,1,0,,3,,,,,,,,,,,,,,switch,letter,lettSwt,f,1.1204,vtsPrac,8,0,8,0,1,,,,,,,,,,,,,,,,,,,,,,,
294259,2022-09-25_22h44.52.607,vts_reward_expectancy,2022.2.4,MacIntel,59.99880002,Chrome,1440,900,,,,,0,666,,,,,,,,,,,,,,,,,S,167,hexagon,1,0,,3,,,,,,,,,,,,,,switch,number,numSwt,k,0.9814,vtsPrac,9,0,9,0,1,,,,,,,,,,,,,,,,,,,,,,,
294259,2022-09-25_22h44.52.607,vts_reward_expectancy,2022.2.4,MacIntel,59.99880002,Chrome,1440,900,,,,,0,666,,,,,,,,,,,,,,,,,F,125,circle,1,0,,3,,,,,,,,,,,,,,switch,letter,lettSwt,d,0.7335,vtsPrac,10,0,10,0,1,,,,,,,,,,,,,,,,,,,,,,,
294259,2022-09-25_22h44.52.607,vts_reward_expectancy,2022.2.4,MacIntel,59.99880002,Chrome,1440,900,,,,,0,666,,,,,,,,,,,,,,,,,Y,132,star,1,0,,3,,,,,,,,,,,,,,repeat,letter,lettRpt,f,0.7317,vtsPrac,11,0,11,0,1,,,,,,,,,,,,,,,,,,,,,,,
294259,2022-09-25_22h44.52.607,vts_reward_expectancy,2022.2.4,MacIntel,59.99880002,Chrome,1440,900,,,,,0,666,,,,,,,,,,,,,,,,,F,181,hexagon,1,0,,3,,,,,,,,,,,,,,switch,number,numSwt,k,1.0641,vtsPrac,12,0,12,0,1,,,,,,,,,,,,,,,,,,,,,,,
294259,2022-09-25_22h44.52.607,vts_reward_expectancy,2022.2.4,MacIntel,59.99880002,Chrome,1440,900,,,,,0,666,,,,,,,,,,,,,,,,,D,125,triangle,1,0,,3,,,,,,,,,,,,,,repeat,number,numRpt,j,1.1276,vtsPrac,13,0,13,0,1,,,,,,,,,,,,,,,,,,,,,,,
294259,2022-09-25_22h44.52.607,vts_reward_expectancy,2022.2.4,MacIntel,59.99880002,Chrome,1440,900,,,,,0,666,,,,,,,,,,,,,,,,,S,139,star,1,0,,3,,,,,,,,,,,,,,switch,letter,lettSwt,f,0.9123,vtsPrac,14,0,14,0,1,,,,,,,,,,,,,,,,,,,,,,,
294259,2022-09-25_22h44.52.607,vts_reward_expectancy,2022.2.4,MacIntel,59.99880002,Chrome,1440,900,,,,,0,666,,,,,,,,,,,,,,,,,W,132,triangle,1,0,,3,,,,,,,,,,,,,,switch,number,numSwt,j,0.683,vtsPrac,15,0,15,0,1,,,,,,,,,,,,,,,,,,,,,,,
294259,2022-09-25_22h44.52.607,vts_reward_expectancy,2022.2.4,MacIntel,59.99880002,Chrome,1440,900,,,,,,,,,,,,,,,,,,,,,,,,,,,,,,,,,,,,,,,,,,,,,,,,,,,,,,,,,,,,,,,,,,,,,,,,,,,,
294259,2022-09-25_22h44.52.607,vts_reward_expectancy,2022.2.4,MacIntel,59.99880002,Chrome,1440,900,,,,,,,,,,,,,,,,,,,,,,,,,,,,,,,,,,,,,,,,,,,,,,,,,,,,,,,,,,,,,,,,,,,,,,,,,,,,
294259,2022-09-25_22h44.52.607,vts_reward_expectancy,2022.2.4,MacIntel,59.99880002,Chrome,1440,900,,,,,0,666,,,,,,,,,,,,,,,,,U,167,triangle,1,0,,,,,,,,,,,,,,,,switch,letter,lettSwt,f,0.6809,noRew,,,,,,0,0,0,0,0,1,,,,,,,,,,,,,,,,,
294259,2022-09-25_22h44.52.607,vts_reward_expectancy,2022.2.4,MacIntel,59.99880002,Chrome,1440,900,,,,,0,666,,,,,,,,,,,,,,,,,H,181,hexagon,1,0,,,,,,,,,,,,,,,,repeat,letter,lettRpt,d,0.6482,noRew,,,,,,0,1,0,1,0,1,,,,,,,,,,,,,,,,,
294259,2022-09-25_22h44.52.607,vts_reward_expectancy,2022.2.4,MacIntel,59.99880002,Chrome,1440,900,,,,,0,666,,,,,,,,,,,,,,,,,F,125,triangle,1,0,,,,,,,,,,,,,,,,repeat,letter,lettRpt,d,0.7995,noRew,,,,,,0,2,0,2,0,1,,,,,,,,,,,,,,,,,
294259,2022-09-25_22h44.52.607,vts_reward_expectancy,2022.2.4,MacIntel,59.99880002,Chrome,1440,900,,,,,0,666,,,,,,,,,,,,,,,,,Y,174,hexagon,1,0,,,,,,,,,,,,,,,,switch,number,numSwt,k,1.4479,noRew,,,,,,0,3,0,3,0,1,,,,,,,,,,,,,,,,,
294259,2022-09-25_22h44.52.607,vts_reward_expectancy,2022.2.4,MacIntel,59.99880002,Chrome,1440,900,,,,,0,666,,,,,,,,,,,,,,,,,U,167,triangle,1,0,,,,,,,,,,,,,,,,repeat,number,numRpt,k,0.6969,noRew,,,,,,0,4,0,4,0,1,,,,,,,,,,,,,,,,,
294259,2022-09-25_22h44.52.607,vts_reward_expectancy,2022.2.4,MacIntel,59.99880002,Chrome,1440,900,,,,,0,666,,,,,,,,,,,,,,,,,H,181,circle,1,0,,,,,,,,,,,,,,,,switch,letter,lettSwt,d,0.6002,noRew,,,,,,0,5,0,5,0,1,,,,,,,,,,,,,,,,,
294259,2022-09-25_22h44.52.607,vts_reward_expectancy,2022.2.4,MacIntel,59.99880002,Chrome,1440,900,,,,,0,666,,,,,,,,,,,,,,,,,F,125,star,1,0,,,,,,,,,,,,,,,,switch,number,numSwt,j,0.8191,noRew,,,,,,0,6,0,6,0,1,,,,,,,,,,,,,,,,,
294259,2022-09-25_22h44.52.607,vts_reward_expectancy,2022.2.4,MacIntel,59.99880002,Chrome,1440,900,,,,,0,666,,,,,,,,,,,,,,,,,Y,174,triangle,1,0,,,,,,,,,,,,,,,,repeat,number,numRpt,k,0.7478,noRew,,,,,,0,7,0,7,0,1,,,,,,,,,,,,,,,,,
294259,2022-09-25_22h44.52.607,vts_reward_expectancy,2022.2.4,MacIntel,59.99880002,Chrome,1440,900,,,,,0,666,,,,,,,,,,,,,,,,,Y,132,triangle,1,0,,,,,,,,,,,,,,,,repeat,number,numRpt,j,0.6836,noRew,,,,,,0,8,0,8,0,1,,,,,,,,,,,,,,,,,
294259,2022-09-25_22h44.52.607,vts_reward_expectancy,2022.2.4,MacIntel,59.99880002,Chrome,1440,900,,,,,0,666,,,,,,,,,,,,,,,,,B,167,star,0,0,,,,,,,,,,,,,,,,repeat,number,NA,j,0.95,noRew,,,,,,0,9,0,9,0,1,,,,,,,,,,,,,,,,,
294259,2022-09-25_22h44.52.607,vts_reward_expectancy,2022.2.4,MacIntel,59.99880002,Chrome,1440,900,,,,,0,666,,,,,,,,,,,,,,,,,S,181,circle,1,1,,,,,,,,,,,,,,,,switch,letter,lettSwt,f,1.0974,noRew,,,,,,0,10,0,10,0,1,,,,,,,,,,,,,,,,,
294259,2022-09-25_22h44.52.607,vts_reward_expectancy,2022.2.4,MacIntel,59.99880002,Chrome,1440,900,,,,,0,666,,,,,,,,,,,,,,,,,H,160,triangle,1,0,,,,,,,,,,,,,,,,repeat,letter,lettRpt,d,0.7977,noRew,,,,,,0,11,0,11,0,1,,,,,,,,,,,,,,,,,
294259,2022-09-25_22h44.52.607,vts_reward_expectancy,2022.2.4,MacIntel,59.99880002,Chrome,1440,900,,,,,0,666,,,,,,,,,,,,,,,,,H,160,star,1,0,,,,,,,,,,,,,,,,repeat,letter,lettRpt,d,1.0506,noRew,,,,,,0,12,0,12,0,1,,,,,,,,,,,,,,,,,
294259,2022-09-25_22h44.52.607,vts_reward_expectancy,2022.2.4,MacIntel,59.99880002,Chrome,1440,900,,,,,0,666,,,,,,,,,,,,,,,,,Y,139,circle,1,0,,,,,,,,,,,,,,,,switch,number,numSwt,j,0.6665,noRew,,,,,,0,13,0,13,0,1,,,,,,,,,,,,,,,,,
294259,2022-09-25_22h44.52.607,vts_reward_expectancy,2022.2.4,MacIntel,59.99880002,Chrome,1440,900,,,,,0,666,,,,,,,,,,,,,,,,,B,167,triangle,1,0,,,,,,,,,,,,,,,,repeat,number,numRpt,k,0.7197,noRew,,,,,,0,14,0,14,0,1,,,,,,,,,,,,,,,,,
294259,2022-09-25_22h44.52.607,vts_reward_expectancy,2022.2.4,MacIntel,59.99880002,Chrome,1440,900,,,,,0,666,,,,,,,,,,,,,,,,,U,181,circle,1,0,,,,,,,,,,,,,,,,switch,letter,lettSwt,f,0.7822,noRew,,,,,,0,15,0,15,0,1,,,,,,,,,,,,,,,,,
294259,2022-09-25_22h44.52.607,vts_reward_expectancy,2022.2.4,MacIntel,59.99880002,Chrome,1440,900,,,,,0,666,,,,,,,,,,,,,,,,,H,125,hexagon,1,0,,,,,,,,,,,,,,,,repeat,letter,lettRpt,d,0.5985,noRew,,,,,,0,16,0,16,0,1,,,,,,,,,,,,,,,,,
294259,2022-09-25_22h44.52.607,vts_reward_expectancy,2022.2.4,MacIntel,59.99880002,Chrome,1440,900,,,,,0,666,,,,,,,,,,,,,,,,,B,160,circle,1,0,,,,,,,,,,,,,,,,switch,number,numSwt,k,0.7634,noRew,,,,,,0,17,0,17,0,1,,,,,,,,,,,,,,,,,
294259,2022-09-25_22h44.52.607,vts_reward_expectancy,2022.2.4,MacIntel,59.99880002,Chrome,1440,900,,,,,0,666,,,,,,,,,,,,,,,,,S,139,hexagon,1,0,,,,,,,,,,,,,,,,repeat,number,numRpt,j,0.7002,noRew,,,,,,0,18,0,18,0,1,,,,,,,,,,,,,,,,,
294259,2022-09-25_22h44.52.607,vts_reward_expectancy,2022.2.4,MacIntel,59.99880002,Chrome,1440,900,,,,,0,666,,,,,,,,,,,,,,,,,U,146,star,1,0,,,,,,,,,,,,,,,,repeat,number,numRpt,j,0.8114,noRew,,,,,,0,19,0,19,0,1,,,,,,,,,,,,,,,,,
294259,2022-09-25_22h44.52.607,vts_reward_expectancy,2022.2.4,MacIntel,59.99880002,Chrome,1440,900,,,,,0,666,,,,,,,,,,,,,,,,,U,174,hexagon,1,0,,,,,,,,,,,,,,,,repeat,number,numRpt,k,0.7178,noRew,,,,,,0,20,0,20,0,1,,,,,,,,,,,,,,,,,
294259,2022-09-25_22h44.52.607,vts_reward_expectancy,2022.2.4,MacIntel,59.99880002,Chrome,1440,900,,,,,0,666,,,,,,,,,,,,,,,,,S,146,star,1,0,,,,,,,,,,,,,,,,switch,letter,lettSwt,f,0.8823,noRew,,,,,,0,21,0,21,0,1,,,,,,,,,,,,,,,,,
294259,2022-09-25_22h44.52.607,vts_reward_expectancy,2022.2.4,MacIntel,59.99880002,Chrome,1440,900,,,,,0,666,,,,,,,,,,,,,,,,,W,125,hexagon,1,0,,,,,,,,,,,,,,,,repeat,letter,lettRpt,f,0.7492,noRew,,,,,,0,22,0,22,0,1,,,,,,,,,,,,,,,,,
294259,2022-09-25_22h44.52.607,vts_reward_expectancy,2022.2.4,MacIntel,59.99880002,Chrome,1440,900,,,,,0,666,,,,,,,,,,,,,,,,,F,160,triangle,0,0,,,,,,,,,,,,,,,,repeat,letter,NA,f,0.6141,noRew,,,,,,0,23,0,23,0,1,,,,,,,,,,,,,,,,,
294259,2022-09-25_22h44.52.607,vts_reward_expectancy,2022.2.4,MacIntel,59.99880002,Chrome,1440,900,,,,,0,666,,,,,,,,,,,,,,,,,Y,181,hexagon,1,1,,,,,,,,,,,,,,,,repeat,letter,lettRpt,f,0.6177,noRew,,,,,,0,24,0,24,0,1,,,,,,,,,,,,,,,,,
294259,2022-09-25_22h44.52.607,vts_reward_expectancy,2022.2.4,MacIntel,59.99880002,Chrome,1440,900,,,,,0,666,,,,,,,,,,,,,,,,,S,139,circle,1,0,,,,,,,,,,,,,,,,repeat,letter,lettRpt,f,0.6038,noRew,,,,,,0,25,0,25,0,1,,,,,,,,,,,,,,,,,
294259,2022-09-25_22h44.52.607,vts_reward_expectancy,2022.2.4,MacIntel,59.99880002,Chrome,1440,900,,,,,0,666,,,,,,,,,,,,,,,,,W,160,circle,1,0,,,,,,,,,,,,,,,,switch,number,numSwt,k,0.8208,noRew,,,,,,0,26,0,26,0,1,,,,,,,,,,,,,,,,,
294259,2022-09-25_22h44.52.607,vts_reward_expectancy,2022.2.4,MacIntel,59.99880002,Chrome,1440,900,,,,,0,666,,,,,,,,,,,,,,,,,F,174,star,1,0,,,,,,,,,,,,,,,,repeat,number,numRpt,k,0.6504,noRew,,,,,,0,27,0,27,0,1,,,,,,,,,,,,,,,,,
294259,2022-09-25_22h44.52.607,vts_reward_expectancy,2022.2.4,MacIntel,59.99880002,Chrome,1440,900,,,,,0,666,,,,,,,,,,,,,,,,,B,125,triangle,1,0,,,,,,,,,,,,,,,,repeat,number,numRpt,j,1.3372,noRew,,,,,,0,28,0,28,0,1,,,,,,,,,,,,,,,,,
294259,2022-09-25_22h44.52.607,vts_reward_expectancy,2022.2.4,MacIntel,59.99880002,Chrome,1440,900,,,,,0,666,,,,,,,,,,,,,,,,,D,181,star,1,0,,,,,,,,,,,,,,,,repeat,number,numRpt,k,0.6468,noRew,,,,,,0,29,0,29,0,1,,,,,,,,,,,,,,,,,
294259,2022-09-25_22h44.52.607,vts_reward_expectancy,2022.2.4,MacIntel,59.99880002,Chrome,1440,900,,,,,0,666,,,,,,,,,,,,,,,,,H,139,circle,1,0,,,,,,,,,,,,,,,,switch,letter,lettSwt,d,0.6843,noRew,,,,,,0,30,0,30,0,1,,,,,,,,,,,,,,,,,
294259,2022-09-25_22h44.52.607,vts_reward_expectancy,2022.2.4,MacIntel,59.99880002,Chrome,1440,900,,,,,0,666,,,,,,,,,,,,,,,,,Y,160,triangle,1,0,,,,,,,,,,,,,,,,repeat,letter,lettRpt,f,0.778,noRew,,,,,,0,31,0,31,0,1,,,,,,,,,,,,,,,,,
294259,2022-09-25_22h44.52.607,vts_reward_expectancy,2022.2.4,MacIntel,59.99880002,Chrome,1440,900,,,,,0,666,,,,,,,,,,,,,,,,,B,181,circle,1,0,,,,,,,,,,,,,,,,repeat,letter,lettRpt,d,0.6638,noRew,,,,,,0,32,0,32,0,1,,,,,,,,,,,,,,,,,
294259,2022-09-25_22h44.52.607,vts_reward_expectancy,2022.2.4,MacIntel,59.99880002,Chrome,1440,900,,,,,0,666,,,,,,,,,,,,,,,,,Y,167,triangle,1,0,,,,,,,,,,,,,,,,switch,number,numSwt,k,0.7945,noRew,,,,,,0,33,0,33,0,1,,,,,,,,,,,,,,,,,
294259,2022-09-25_22h44.52.607,vts_reward_expectancy,2022.2.4,MacIntel,59.99880002,Chrome,1440,900,,,,,0,666,,,,,,,,,,,,,,,,,F,132,triangle,1,0,,,,,,,,,,,,,,,,switch,letter,lettSwt,d,0.7669,noRew,,,,,,0,34,0,34,0,1,,,,,,,,,,,,,,,,,
294259,2022-09-25_22h44.52.607,vts_reward_expectancy,2022.2.4,MacIntel,59.99880002,Chrome,1440,900,,,,,0,666,,,,,,,,,,,,,,,,,W,174,hexagon,1,0,,,,,,,,,,,,,,,,repeat,letter,lettRpt,f,0.763,noRew,,,,,,0,35,0,35,0,1,,,,,,,,,,,,,,,,,
294259,2022-09-25_22h44.52.607,vts_reward_expectancy,2022.2.4,MacIntel,59.99880002,Chrome,1440,900,,,,,0,666,,,,,,,,,,,,,,,,,D,160,star,1,0,,,,,,,,,,,,,,,,switch,number,numSwt,k,0.832,noRew,,,,,,0,36,0,36,0,1,,,,,,,,,,,,,,,,,
294259,2022-09-25_22h44.52.607,vts_reward_expectancy,2022.2.4,MacIntel,59.99880002,Chrome,1440,900,,,,,0,666,,,,,,,,,,,,,,,,,F,139,triangle,1,0,,,,,,,,,,,,,,,,switch,letter,lettSwt,d,0.7783,noRew,,,,,,0,37,0,37,0,1,,,,,,,,,,,,,,,,,
294259,2022-09-25_22h44.52.607,vts_reward_expectancy,2022.2.4,MacIntel,59.99880002,Chrome,1440,900,,,,,0,666,,,,,,,,,,,,,,,,,H,167,star,1,0,,,,,,,,,,,,,,,,repeat,letter,lettRpt,d,0.5449,noRew,,,,,,0,38,0,38,0,1,,,,,,,,,,,,,,,,,
294259,2022-09-25_22h44.52.607,vts_reward_expectancy,2022.2.4,MacIntel,59.99880002,Chrome,1440,900,,,,,0,666,,,,,,,,,,,,,,,,,S,174,circle,1,0,,,,,,,,,,,,,,,,switch,number,numSwt,k,1.3156,noRew,,,,,,0,39,0,39,0,1,,,,,,,,,,,,,,,,,
294259,2022-09-25_22h44.52.607,vts_reward_expectancy,2022.2.4,MacIntel,59.99880002,Chrome,1440,900,,,,,0,666,,,,,,,,,,,,,,,,,Y,139,triangle,1,0,,,,,,,,,,,,,,,,switch,letter,lettSwt,f,0.9953,noRew,,,,,,0,40,0,40,0,1,,,,,,,,,,,,,,,,,
294259,2022-09-25_22h44.52.607,vts_reward_expectancy,2022.2.4,MacIntel,59.99880002,Chrome,1440,900,,,,,0,666,,,,,,,,,,,,,,,,,H,181,star,1,0,,,,,,,,,,,,,,,,switch,number,numSwt,k,0.6461,noRew,,,,,,0,41,0,41,0,1,,,,,,,,,,,,,,,,,
294259,2022-09-25_22h44.52.607,vts_reward_expectancy,2022.2.4,MacIntel,59.99880002,Chrome,1440,900,,,,,0,666,,,,,,,,,,,,,,,,,U,146,hexagon,1,0,,,,,,,,,,,,,,,,switch,letter,lettSwt,f,0.6633,noRew,,,,,,0,42,0,42,0,1,,,,,,,,,,,,,,,,,
294259,2022-09-25_22h44.52.607,vts_reward_expectancy,2022.2.4,MacIntel,59.99880002,Chrome,1440,900,,,,,0,666,,,,,,,,,,,,,,,,,W,174,star,1,0,,,,,,,,,,,,,,,,switch,number,numSwt,k,0.6136,noRew,,,,,,0,43,0,43,0,1,,,,,,,,,,,,,,,,,
294259,2022-09-25_22h44.52.607,vts_reward_expectancy,2022.2.4,MacIntel,59.99880002,Chrome,1440,900,,,,,0,666,,,,,,,,,,,,,,,,,F,174,circle,1,0,,,,,,,,,,,,,,,,repeat,number,numRpt,k,0.5632,noRew,,,,,,0,44,0,44,0,1,,,,,,,,,,,,,,,,,
294259,2022-09-25_22h44.52.607,vts_reward_expectancy,2022.2.4,MacIntel,59.99880002,Chrome,1440,900,,,,,0,666,,,,,,,,,,,,,,,,,S,160,triangle,1,0,,,,,,,,,,,,,,,,switch,letter,lettSwt,f,0.6854,noRew,,,,,,0,45,0,45,0,1,,,,,,,,,,,,,,,,,
294259,2022-09-25_22h44.52.607,vts_reward_expectancy,2022.2.4,MacIntel,59.99880002,Chrome,1440,900,,,,,0,666,,,,,,,,,,,,,,,,,U,132,hexagon,1,0,,,,,,,,,,,,,,,,repeat,letter,lettRpt,f,0.6136,noRew,,,,,,0,46,0,46,0,1,,,,,,,,,,,,,,,,,
294259,2022-09-25_22h44.52.607,vts_reward_expectancy,2022.2.4,MacIntel,59.99880002,Chrome,1440,900,,,,,0,666,,,,,,,,,,,,,,,,,W,139,star,1,0,,,,,,,,,,,,,,,,repeat,letter,lettRpt,f,0.6673,noRew,,,,,,0,47,0,47,0,1,,,,,,,,,,,,,,,,,
294259,2022-09-25_22h44.52.607,vts_reward_expectancy,2022.2.4,MacIntel,59.99880002,Chrome,1440,900,,,,,0,666,,,,,,,,,,,,,,,,,U,181,star,1,0,,,,,,,,,,,,,,,,repeat,letter,lettRpt,f,0.8794,noRew,,,,,,0,48,0,48,0,1,,,,,,,,,,,,,,,,,
294259,2022-09-25_22h44.52.607,vts_reward_expectancy,2022.2.4,MacIntel,59.99880002,Chrome,1440,900,,,,,0,666,,,,,,,,,,,,,,,,,S,174,hexagon,1,0,,,,,,,,,,,,,,,,switch,number,numSwt,k,0.7963,noRew,,,,,,0,49,0,49,0,1,,,,,,,,,,,,,,,,,
294259,2022-09-25_22h44.52.607,vts_reward_expectancy,2022.2.4,MacIntel,59.99880002,Chrome,1440,900,,,,,0,666,,,,,,,,,,,,,,,,,Y,125,triangle,1,0,,,,,,,,,,,,,,,,repeat,number,numRpt,j,0.9646,noRew,,,,,,0,50,0,50,0,1,,,,,,,,,,,,,,,,,
294259,2022-09-25_22h44.52.607,vts_reward_expectancy,2022.2.4,MacIntel,59.99880002,Chrome,1440,900,,,,,0,666,,,,,,,,,,,,,,,,,H,160,star,1,0,,,,,,,,,,,,,,,,repeat,number,numRpt,k,0.7647,noRew,,,,,,0,51,0,51,0,1,,,,,,,,,,,,,,,,,
294259,2022-09-25_22h44.52.607,vts_reward_expectancy,2022.2.4,MacIntel,59.99880002,Chrome,1440,900,,,,,0,666,,,,,,,,,,,,,,,,,H,146,circle,1,0,,,,,,,,,,,,,,,,switch,letter,lettSwt,d,0.7507,noRew,,,,,,0,52,0,52,0,1,,,,,,,,,,,,,,,,,
294259,2022-09-25_22h44.52.607,vts_reward_expectancy,2022.2.4,MacIntel,59.99880002,Chrome,1440,900,,,,,0,666,,,,,,,,,,,,,,,,,D,181,triangle,1,0,,,,,,,,,,,,,,,,repeat,letter,lettRpt,d,0.585,noRew,,,,,,0,53,0,53,0,1,,,,,,,,,,,,,,,,,
294259,2022-09-25_22h44.52.607,vts_reward_expectancy,2022.2.4,MacIntel,59.99880002,Chrome,1440,900,,,,,0,666,,,,,,,,,,,,,,,,,F,139,hexagon,1,0,,,,,,,,,,,,,,,,repeat,letter,lettRpt,d,1.0886,noRew,,,,,,0,54,0,54,0,1,,,,,,,,,,,,,,,,,
294259,2022-09-25_22h44.52.607,vts_reward_expectancy,2022.2.4,MacIntel,59.99880002,Chrome,1440,900,,,,,0,666,,,,,,,,,,,,,,,,,B,132,circle,1,0,,,,,,,,,,,,,,,,repeat,letter,lettRpt,d,0.5813,noRew,,,,,,0,55,0,55,0,1,,,,,,,,,,,,,,,,,
294259,2022-09-25_22h44.52.607,vts_reward_expectancy,2022.2.4,MacIntel,59.99880002,Chrome,1440,900,,,,,0,666,,,,,,,,,,,,,,,,,B,160,triangle,1,0,,,,,,,,,,,,,,,,switch,number,numSwt,k,1.0482,noRew,,,,,,0,56,0,56,0,1,,,,,,,,,,,,,,,,,
294259,2022-09-25_22h44.52.607,vts_reward_expectancy,2022.2.4,MacIntel,59.99880002,Chrome,1440,900,,,,,0,666,,,,,,,,,,,,,,,,,D,139,star,1,0,,,,,,,,,,,,,,,,repeat,number,numRpt,j,1.651,noRew,,,,,,0,57,0,57,0,1,,,,,,,,,,,,,,,,,
294259,2022-09-25_22h44.52.607,vts_reward_expectancy,2022.2.4,MacIntel,59.99880002,Chrome,1440,900,,,,,0,666,,,,,,,,,,,,,,,,,S,167,star,1,0,,,,,,,,,,,,,,,,repeat,number,numRpt,k,0.8123,noRew,,,,,,0,58,0,58,0,1,,,,,,,,,,,,,,,,,
294259,2022-09-25_22h44.52.607,vts_reward_expectancy,2022.2.4,MacIntel,59.99880002,Chrome,1440,900,,,,,0,666,,,,,,,,,,,,,,,,,Y,132,hexagon,1,0,,,,,,,,,,,,,,,,switch,letter,lettSwt,f,0.6483,noRew,,,,,,0,59,0,59,0,1,,,,,,,,,,,,,,,,,
294259,2022-09-25_22h44.52.607,vts_reward_expectancy,2022.2.4,MacIntel,59.99880002,Chrome,1440,900,,,,,0,666,,,,,,,,,,,,,,,,,U,160,circle,1,0,,,,,,,,,,,,,,,,repeat,letter,lettRpt,f,0.6787,noRew,,,,,,0,60,0,60,0,1,,,,,,,,,,,,,,,,,
294259,2022-09-25_22h44.52.607,vts_reward_expectancy,2022.2.4,MacIntel,59.99880002,Chrome,1440,900,,,,,0,666,,,,,,,,,,,,,,,,,Y,181,triangle,1,0,,,,,,,,,,,,,,,,switch,number,numSwt,k,0.6983,noRew,,,,,,0,61,0,61,0,1,,,,,,,,,,,,,,,,,
294259,2022-09-25_22h44.52.607,vts_reward_expectancy,2022.2.4,MacIntel,59.99880002,Chrome,1440,900,,,,,0,666,,,,,,,,,,,,,,,,,W,125,triangle,1,0,,,,,,,,,,,,,,,,repeat,number,numRpt,j,0.5664,noRew,,,,,,0,62,0,62,0,1,,,,,,,,,,,,,,,,,
294259,2022-09-25_22h44.52.607,vts_reward_expectancy,2022.2.4,MacIntel,59.99880002,Chrome,1440,900,,,,,0,666,,,,,,,,,,,,,,,,,S,167,circle,1,0,,,,,,,,,,,,,,,,switch,letter,lettSwt,f,0.8302,noRew,,,,,,0,63,0,63,0,1,,,,,,,,,,,,,,,,,
294259,2022-09-25_22h44.52.607,vts_reward_expectancy,2022.2.4,MacIntel,59.99880002,Chrome,1440,900,,,,,,,,,,,,,,,,,,,,,,,,,,,,,,,,,,,,,,,,,,,,,,,,,,,,,,,,,,,,,,,,,,,,,,,,,,,,
294259,2022-09-25_22h44.52.607,vts_reward_expectancy,2022.2.4,MacIntel,59.99880002,Chrome,1440,900,,,,,0,666,,,,,,,,,,,,,,,,,U,174,circle,1,0,,,,,,,,,,,,,,,,repeat,letter,lettRpt,f,0.7954,Hi,,,,,,0,,,,,,space,5.8591,high,0,0,0,0,1,,,,,,,,,
294259,2022-09-25_22h44.52.607,vts_reward_expectancy,2022.2.4,MacIntel,59.99880002,Chrome,1440,900,,,,,1,667,,,,,,,,,,,,,,,,,W,181,star,1,0,,,,,,,,,,,,,,,,switch,number,numSwt,k,0.6468,Lo,,,,,,0,,,,,,,,high,1,0,1,0,1,,,,,,,,,
294259,2022-09-25_22h44.52.607,vts_reward_expectancy,2022.2.4,MacIntel,59.99880002,Chrome,1440,900,,,,,10,677,,,,,,,,,,,,,,,,,S,139,circle,1,0,,,,,,,,,,,,,,,,switch,letter,lettSwt,f,0.5618,Hi,,,,,,0,,,,,,,,high,2,0,2,0,1,,,,,,,,,
294259,2022-09-25_22h44.52.607,vts_reward_expectancy,2022.2.4,MacIntel,59.99880002,Chrome,1440,900,,,,,0,677,,,,,,,,,,,,,,,,,H,146,star,0,0,,,,,,,,,,,,,,,,switch,number,NA,k,0.4309,Hi,,,,,,0,,,,,,,,high,3,0,3,0,1,,,,,,,,,
294259,2022-09-25_22h44.52.607,vts_reward_expectancy,2022.2.4,MacIntel,59.99880002,Chrome,1440,900,,,,,1,678,,,,,,,,,,,,,,,,,Y,132,star,1,1,,,,,,,,,,,,,,,,repeat,number,numRpt,j,0.6783,Lo,,,,,,0,,,,,,,,high,4,0,4,0,1,,,,,,,,,
294259,2022-09-25_22h44.52.607,vts_reward_expectancy,2022.2.4,MacIntel,59.99880002,Chrome,1440,900,,,,,10,688,,,,,,,,,,,,,,,,,D,125,circle,1,0,,,,,,,,,,,,,,,,switch,letter,lettSwt,d,0.6273,Hi,,,,,,0,,,,,,,,high,5,0,5,0,1,,,,,,,,,
294259,2022-09-25_22h44.52.607,vts_reward_expectancy,2022.2.4,MacIntel,59.99880002,Chrome,1440,900,,,,,10,698,,,,,,,,,,,,,,,,,F,167,circle,1,0,,,,,,,,,,,,,,,,repeat,letter,lettRpt,d,0.5049,Hi,,,,,,0,,,,,,,,high,6,0,6,0,1,,,,,,,,,
294259,2022-09-25_22h44.52.607,vts_reward_expectancy,2022.2.4,MacIntel,59.99880002,Chrome,1440,900,,,,,1,699,,,,,,,,,,,,,,,,,B,160,star,1,0,,,,,,,,,,,,,,,,repeat,letter,lettRpt,d,0.5449,Lo,,,,,,0,,,,,,,,high,7,0,7,0,1,,,,,,,,,
294259,2022-09-25_22h44.52.607,vts_reward_expectancy,2022.2.4,MacIntel,59.99880002,Chrome,1440,900,,,,,10,709,,,,,,,,,,,,,,,,,U,174,star,1,0,,,,,,,,,,,,,,,,switch,number,numSwt,k,0.5971,Lo,,,,,,0,,,,,,,,high,8,0,8,0,1,,,,,,,,,
294259,2022-09-25_22h44.52.607,vts_reward_expectancy,2022.2.4,MacIntel,59.99880002,Chrome,1440,900,,,,,0,709,,,,,,,,,,,,,,,,,W,181,circle,1,0,,,,,,,,,,,,,,,,switch,letter,lettSwt,f,0.7988,Hi,,,,,,0,,,,,,,,high,9,0,9,0,1,,,,,,,,,
294259,2022-09-25_22h44.52.607,vts_reward_expectancy,2022.2.4,MacIntel,59.99880002,Chrome,1440,900,,,,,1,710,,,,,,,,,,,,,,,,,S,139,star,1,0,,,,,,,,,,,,,,,,switch,number,numSwt,j,0.6491,Lo,,,,,,0,,,,,,,,high,10,0,10,0,1,,,,,,,,,
294259,2022-09-25_22h44.52.607,vts_reward_expectancy,2022.2.4,MacIntel,59.99880002,Chrome,1440,900,,,,,10,720,,,,,,,,,,,,,,,,,H,146,circle,1,0,,,,,,,,,,,,,,,,switch,letter,lettSwt,d,0.5243,Hi,,,,,,0,,,,,,,,high,11,0,11,0,1,,,,,,,,,
294259,2022-09-25_22h44.52.607,vts_reward_expectancy,2022.2.4,MacIntel,59.99880002,Chrome,1440,900,,,,,1,721,,,,,,,,,,,,,,,,,Y,132,star,1,0,,,,,,,,,,,,,,,,switch,number,numSwt,j,0.5182,Lo,,,,,,0,,,,,,,,high,12,0,12,0,1,,,,,,,,,
294259,2022-09-25_22h44.52.607,vts_reward_expectancy,2022.2.4,MacIntel,59.99880002,Chrome,1440,900,,,,,0,721,,,,,,,,,,,,,,,,,D,125,circle,0,0,,,,,,,,,,,,,,,,switch,letter,NA,f,0.5976,Lo,,,,,,0,,,,,,,,high,13,0,13,0,1,,,,,,,,,
294259,2022-09-25_22h44.52.607,vts_reward_expectancy,2022.2.4,MacIntel,59.99880002,Chrome,1440,900,,,,,1,722,,,,,,,,,,,,,,,,,F,167,star,1,1,,,,,,,,,,,,,,,,repeat,letter,lettRpt,d,0.5363,Lo,,,,,,0,,,,,,,,high,14,0,14,0,1,,,,,,,,,
294259,2022-09-25_22h44.52.607,vts_reward_expectancy,2022.2.4,MacIntel,59.99880002,Chrome,1440,900,,,,,10,732,,,,,,,,,,,,,,,,,B,160,circle,1,0,,,,,,,,,,,,,,,,repeat,letter,lettRpt,d,0.398,Hi,,,,,,0,,,,,,,,high,15,0,15,0,1,,,,,,,,,
294259,2022-09-25_22h44.52.607,vts_reward_expectancy,2022.2.4,MacIntel,59.99880002,Chrome,1440,900,,,,,1,733,,,,,,,,,,,,,,,,,H,160,star,1,0,,,,,,,,,,,,,,,,switch,number,numSwt,k,0.6019,Lo,,,,,,0,,,,,,,,high,16,0,16,0,1,,,,,,,,,
294259,2022-09-25_22h44.52.607,vts_reward_expectancy,2022.2.4,MacIntel,59.99880002,Chrome,1440,900,,,,,0,733,,,,,,,,,,,,,,,,,U,146,circle,0,0,,,,,,,,,,,,,,,,switch,letter,NA,d,0.7818,Lo,,,,,,0,,,,,,,,high,17,0,17,0,1,,,,,,,,,
294259,2022-09-25_22h44.52.607,vts_reward_expectancy,2022.2.4,MacIntel,59.99880002,Chrome,1440,900,,,,,0,733,,,,,,,,,,,,,,,,,F,167,star,0,1,,,,,,,,,,,,,,,,switch,number,NA,j,0.6818,Lo,,,,,,0,,,,,,,,high,18,0,18,0,1,,,,,,,,,
294259,2022-09-25_22h44.52.607,vts_reward_expectancy,2022.2.4,MacIntel,59.99880002,Chrome,1440,900,,,,,10,743,,,,,,,,,,,,,,,,,B,139,circle,1,1,,,,,,,,,,,,,,,,switch,letter,lettSwt,d,0.515,Hi,,,,,,0,,,,,,,,high,19,0,19,0,1,,,,,,,,,
294259,2022-09-25_22h44.52.607,vts_reward_expectancy,2022.2.4,MacIntel,59.99880002,Chrome,1440,900,,,,,0,743,,,,,,,,,,,,,,,,,W,174,circle,1,0,,,,,,,,,,,,,,,,repeat,letter,lettRpt,f,0.697,Hi,,,,,,0,,,,,,,,high,20,0,20,0,1,,,,,,,,,
294259,2022-09-25_22h44.52.607,vts_reward_expectancy,2022.2.4,MacIntel,59.99880002,Chrome,1440,900,,,,,1,744,,,,,,,,,,,,,,,,,D,132,star,1,0,,,,,,,,,,,,,,,,switch,number,numSwt,j,0.6629,Lo,,,,,,0,,,,,,,,high,21,0,21,0,1,,,,,,,,,
294259,2022-09-25_22h44.52.607,vts_reward_expectancy,2022.2.4,MacIntel,59.99880002,Chrome,1440,900,,,,,0,744,,,,,,,,,,,,,,,,,S,125,circle,1,0,,,,,,,,,,,,,,,,switch,letter,lettSwt,f,0.7944,Hi,,,,,,0,,,,,,,,high,22,0,22,0,1,,,,,,,,,
294259,2022-09-25_22h44.52.607,vts_reward_expectancy,2022.2.4,MacIntel,59.99880002,Chrome,1440,900,,,,,1,745,,,,,,,,,,,,,,,,,Y,181,star,1,0,,,,,,,,,,,,,,,,repeat,letter,lettRpt,f,0.4956,Lo,,,,,,0,,,,,,,,high,23,0,23,0,1,,,,,,,,,
294259,2022-09-25_22h44.52.607,vts_reward_expectancy,2022.2.4,MacIntel,59.99880002,Chrome,1440,900,,,,,0,745,,,,,,,,,,,,,,,,,D,174,star,0,0,,,,,,,,,,,,,,,,repeat,letter,NA,f,0.4877,Lo,,,,,,0,,,,,,,,high,24,0,24,0,1,,,,,,,,,
294259,2022-09-25_22h44.52.607,vts_reward_expectancy,2022.2.4,MacIntel,59.99880002,Chrome,1440,900,,,,,10,755,,,,,,,,,,,,,,,,,H,160,circle,1,1,,,,,,,,,,,,,,,,repeat,letter,lettRpt,d,0.4435,Hi,,,,,,0,,,,,,,,high,25,0,25,0,1,,,,,,,,,
294259,2022-09-25_22h44.52.607,vts_reward_expectancy,2022.2.4,MacIntel,59.99880002,Chrome,1440,900,,,,,10,765,,,,,,,,,,,,,,,,,F,167,circle,1,0,,,,,,,,,,,,,,,,repeat,letter,lettRpt,d,0.4488,Hi,,,,,,0,,,,,,,,high,26,0,26,0,1,,,,,,,,,
294259,2022-09-25_22h44.52.607,vts_reward_expectancy,2022.2.4,MacIntel,59.99880002,Chrome,1440,900,,,,,1,766,,,,,,,,,,,,,,,,,S,139,star,1,0,,,,,,,,,,,,,,,,switch,number,numSwt,j,0.4619,Lo,,,,,,0,,,,,,,,high,27,0,27,0,1,,,,,,,,,
294259,2022-09-25_22h44.52.607,vts_reward_expectancy,2022.2.4,MacIntel,59.99880002,Chrome,1440,900,,,,,0,766,,,,,,,,,,,,,,,,,U,132,circle,0,0,,,,,,,,,,,,,,,,switch,letter,NA,d,0.5101,Lo,,,,,,0,,,,,,,,high,28,0,28,0,1,,,,,,,,,
294259,2022-09-25_22h44.52.607,vts_reward_expectancy,2022.2.4,MacIntel,59.99880002,Chrome,1440,900,,,,,0,766,,,,,,,,,,,,,,,,,W,146,star,0,1,,,,,,,,,,,,,,,,repeat,letter,NA,d,0.4994,Lo,,,,,,0,,,,,,,,high,29,0,29,0,1,,,,,,,,,
294259,2022-09-25_22h44.52.607,vts_reward_expectancy,2022.2.4,MacIntel,59.99880002,Chrome,1440,900,,,,,1,767,,,,,,,,,,,,,,,,,B,181,star,1,1,,,,,,,,,,,,,,,,repeat,letter,lettRpt,d,0.4973,Lo,,,,,,0,,,,,,,,high,30,0,30,0,1,,,,,,,,,
294259,2022-09-25_22h44.52.607,vts_reward_expectancy,2022.2.4,MacIntel,59.99880002,Chrome,1440,900,,,,,10,777,,,,,,,,,,,,,,,,,Y,125,circle,1,0,,,,,,,,,,,,,,,,repeat,letter,lettRpt,f,0.5534,Hi,,,,,,0,,,,,,,,high,31,0,31,0,1,,,,,,,,,
294259,2022-09-25_22h44.52.607,vts_reward_expectancy,2022.2.4,MacIntel,59.99880002,Chrome,1440,900,,,,,0,777,,,,,,,,,,,,,,,,,Y,174,hexagon,0,0,,,,,,,,,,,,,,,,repeat,letter,NA,d,0.5496,Hi,,,,,,1,,,,,,space,2.4768,low,0,0,0,0,1,,,,,,,,,
294259,2022-09-25_22h44.52.607,vts_reward_expectancy,2022.2.4,MacIntel,59.99880002,Chrome,1440,900,,,,,1,778,,,,,,,,,,,,,,,,,H,125,triangle,1,1,,,,,,,,,,,,,,,,repeat,letter,lettRpt,d,0.5142,Lo,,,,,,1,,,,,,,,low,1,0,1,0,1,,,,,,,,,
294259,2022-09-25_22h44.52.607,vts_reward_expectancy,2022.2.4,MacIntel,59.99880002,Chrome,1440,900,,,,,0,778,,,,,,,,,,,,,,,,,D,167,hexagon,1,0,,,,,,,,,,,,,,,,repeat,letter,lettRpt,d,0.5165,Hi,,,,,,1,,,,,,,,low,2,0,2,0,1,,,,,,,,,
294259,2022-09-25_22h44.52.607,vts_reward_expectancy,2022.2.4,MacIntel,59.99880002,Chrome,1440,900,,,,,1,779,,,,,,,,,,,,,,,,,F,139,triangle,1,0,,,,,,,,,,,,,,,,repeat,letter,lettRpt,d,0.4133,Lo,,,,,,1,,,,,,,,low,3,0,3,0,1,,,,,,,,,
294259,2022-09-25_22h44.52.607,vts_reward_expectancy,2022.2.4,MacIntel,59.99880002,Chrome,1440,900,,,,,10,789,,,,,,,,,,,,,,,,,B,132,hexagon,1,0,,,,,,,,,,,,,,,,repeat,letter,lettRpt,d,0.3315,Hi,,,,,,1,,,,,,,,low,4,0,4,0,1,,,,,,,,,
294259,2022-09-25_22h44.52.607,vts_reward_expectancy,2022.2.4,MacIntel,59.99880002,Chrome,1440,900,,,,,10,799,,,,,,,,,,,,,,,,,S,160,triangle,1,0,,,,,,,,,,,,,,,,switch,number,numSwt,k,0.4968,Lo,,,,,,1,,,,,,,,low,5,0,5,0,1,,,,,,,,,
294259,2022-09-25_22h44.52.607,vts_reward_expectancy,2022.2.4,MacIntel,59.99880002,Chrome,1440,900,,,,,1,800,,,,,,,,,,,,,,,,,U,146,triangle,1,0,,,,,,,,,,,,,,,,repeat,number,numRpt,j,0.5324,Lo,,,,,,1,,,,,,,,low,6,0,6,0,1,,,,,,,,,
294259,2022-09-25_22h44.52.607,vts_reward_expectancy,2022.2.4,MacIntel,59.99880002,Chrome,1440,900,,,,,0,800,,,,,,,,,,,,,,,,,W,181,hexagon,0,0,,,,,,,,,,,,,,,,switch,letter,NA,d,0.3982,Lo,,,,,,1,,,,,,,,low,7,0,7,0,1,,,,,,,,,
294259,2022-09-25_22h44.52.607,vts_reward_expectancy,2022.2.4,MacIntel,59.99880002,Chrome,1440,900,,,,,10,810,,,,,,,,,,,,,,,,,Y,174,hexagon,1,1,,,,,,,,,,,,,,,,repeat,letter,lettRpt,f,0.4779,Hi,,,,,,1,,,,,,,,low,8,0,8,0,1,,,,,,,,,
294259,2022-09-25_22h44.52.607,vts_reward_expectancy,2022.2.4,MacIntel,59.99880002,Chrome,1440,900,,,,,10,820,,,,,,,,,,,,,,,,,H,125,triangle,1,0,,,,,,,,,,,,,,,,switch,number,numSwt,j,0.4156,Lo,,,,,,1,,,,,,,,low,9,0,9,0,1,,,,,,,,,
294259,2022-09-25_22h44.52.607,vts_reward_expectancy,2022.2.4,MacIntel,59.99880002,Chrome,1440,900,,,,,10,830,,,,,,,,,,,,,,,,,D,167,triangle,1,0,,,,,,,,,,,,,,,,repeat,number,numRpt,k,0.4498,Lo,,,,,,1,,,,,,,,low,10,0,10,0,1,,,,,,,,,
294259,2022-09-25_22h44.52.607,vts_reward_expectancy,2022.2.4,MacIntel,59.99880002,Chrome,1440,900,,,,,1,831,,,,,,,,,,,,,,,,,F,139,hexagon,1,0,,,,,,,,,,,,,,,,switch,letter,lettSwt,d,0.3816,Hi,,,,,,1,,,,,,,,low,11,0,11,0,1,,,,,,,,,
294259,2022-09-25_22h44.52.607,vts_reward_expectancy,2022.2.4,MacIntel,59.99880002,Chrome,1440,900,,,,,1,832,,,,,,,,,,,,,,,,,B,132,triangle,1,0,,,,,,,,,,,,,,,,switch,number,numSwt,j,0.4473,Lo,,,,,,1,,,,,,,,low,12,0,12,0,1,,,,,,,,,
294259,2022-09-25_22h44.52.607,vts_reward_expectancy,2022.2.4,MacIntel,59.99880002,Chrome,1440,900,,,,,1,833,,,,,,,,,,,,,,,,,S,160,hexagon,1,0,,,,,,,,,,,,,,,,switch,letter,lettSwt,f,0.4814,Hi,,,,,,1,,,,,,,,low,13,0,13,0,1,,,,,,,,,
294259,2022-09-25_22h44.52.607,vts_reward_expectancy,2022.2.4,MacIntel,59.99880002,Chrome,1440,900,,,,,1,834,,,,,,,,,,,,,,,,,U,146,triangle,1,0,,,,,,,,,,,,,,,,switch,number,numSwt,j,0.4273,Lo,,,,,,1,,,,,,,,low,14,0,14,0,1,,,,,,,,,
294259,2022-09-25_22h44.52.607,vts_reward_expectancy,2022.2.4,MacIntel,59.99880002,Chrome,1440,900,,,,,0,834,,,,,,,,,,,,,,,,,W,181,hexagon,0,0,,,,,,,,,,,,,,,,switch,letter,NA,d,0.5973,Lo,,,,,,1,,,,,,,,low,15,0,15,0,1,,,,,,,,,
294259,2022-09-25_22h44.52.607,vts_reward_expectancy,2022.2.4,MacIntel,59.99880002,Chrome,1440,900,,,,,1,835,,,,,,,,,,,,,,,,,B,125,triangle,1,1,,,,,,,,,,,,,,,,switch,number,numSwt,j,1.4185,Lo,,,,,,1,,,,,,,,low,16,0,16,0,1,,,,,,,,,
294259,2022-09-25_22h44.52.607,vts_reward_expectancy,2022.2.4,MacIntel,59.99880002,Chrome,1440,900,,,,,0,835,,,,,,,,,,,,,,,,,S,146,hexagon,1,0,,,,,,,,,,,,,,,,switch,letter,lettSwt,f,1.1329,Hi,,,,,,1,,,,,,,,low,17,0,17,0,1,,,,,,,,,
294259,2022-09-25_22h44.52.607,vts_reward_expectancy,2022.2.4,MacIntel,59.99880002,Chrome,1440,900,,,,,1,836,,,,,,,,,,,,,,,,,W,160,triangle,1,0,,,,,,,,,,,,,,,,switch,number,numSwt,k,1.0826,Lo,,,,,,1,,,,,,,,low,18,0,18,0,1,,,,,,,,,
294259,2022-09-25_22h44.52.607,vts_reward_expectancy,2022.2.4,MacIntel,59.99880002,Chrome,1440,900,,,,,0,836,,,,,,,,,,,,,,,,,H,132,hexagon,1,0,,,,,,,,,,,,,,,,switch,letter,lettSwt,d,0.5983,Hi,,,,,,1,,,,,,,,low,19,0,19,0,1,,,,,,,,,
294259,2022-09-25_22h44.52.607,vts_reward_expectancy,2022.2.4,MacIntel,59.99880002,Chrome,1440,900,,,,,10,846,,,,,,,,,,,,,,,,,U,181,triangle,1,0,,,,,,,,,,,,,,,,switch,number,numSwt,k,2.2462,Lo,,,,,,1,,,,,,,,low,20,0,20,0,1,,,,,,,,,
294259,2022-09-25_22h44.52.607,vts_reward_expectancy,2022.2.4,MacIntel,59.99880002,Chrome,1440,900,,,,,0,846,,,,,,,,,,,,,,,,,Y,167,hexagon,1,0,,,,,,,,,,,,,,,,switch,letter,lettSwt,f,0.6985,Hi,,,,,,1,,,,,,,,low,21,0,21,0,1,,,,,,,,,
294259,2022-09-25_22h44.52.607,vts_reward_expectancy,2022.2.4,MacIntel,59.99880002,Chrome,1440,900,,,,,0,846,,,,,,,,,,,,,,,,,F,139,hexagon,0,0,,,,,,,,,,,,,,,,repeat,letter,NA,f,0.5673,Hi,,,,,,1,,,,,,,,low,22,0,22,0,1,,,,,,,,,
294259,2022-09-25_22h44.52.607,vts_reward_expectancy,2022.2.4,MacIntel,59.99880002,Chrome,1440,900,,,,,1,847,,,,,,,,,,,,,,,,,D,174,triangle,1,1,,,,,,,,,,,,,,,,switch,number,numSwt,k,1.6138,Lo,,,,,,1,,,,,,,,low,23,0,23,0,1,,,,,,,,,
294259,2022-09-25_22h44.52.607,vts_reward_expectancy,2022.2.4,MacIntel,59.99880002,Chrome,1440,900,,,,,0,847,,,,,,,,,,,,,,,,,U,174,hexagon,1,0,,,,,,,,,,,,,,,,switch,letter,lettSwt,f,0.6372,Hi,,,,,,1,,,,,,,,low,24,0,24,0,1,,,,,,,,,
294259,2022-09-25_22h44.52.607,vts_reward_expectancy,2022.2.4,MacIntel,59.99880002,Chrome,1440,900,,,,,1,848,,,,,,,,,,,,,,,,,F,167,triangle,1,0,,,,,,,,,,,,,,,,switch,number,numSwt,k,2.1069,Lo,,,,,,1,,,,,,,,low,25,0,25,0,1,,,,,,,,,
294259,2022-09-25_22h44.52.607,vts_reward_expectancy,2022.2.4,MacIntel,59.99880002,Chrome,1440,900,,,,,0,848,,,,,,,,,,,,,,,,,W,181,triangle,-1,0,,,,,,,,,,,,,,,,switch,no_choice,NA,,,Lo,,,,,,1,,,,,,,,low,26,0,26,0,1,,,,,,,,,
294259,2022-09-25_22h44.52.607,vts_reward_expectancy,2022.2.4,MacIntel,59.99880002,Chrome,1440,900,,,,,0,848,,,,,,,,,,,,,,,,,S,139,hexagon,1,0,,,,,,,,,,,,,,,,switch,letter,lettSwt,f,0.6782,Hi,,,,,,1,,,,,,,,low,27,0,27,0,1,,,,,,,,,
294259,2022-09-25_22h44.52.607,vts_reward_expectancy,2022.2.4,MacIntel,59.99880002,Chrome,1440,900,,,,,10,858,,,,,,,,,,,,,,,,,B,132,triangle,1,0,,,,,,,,,,,,,,,,switch,number,numSwt,j,0.8134,Lo,,,,,,1,,,,,,,,low,28,0,28,0,1,,,,,,,,,
294259,2022-09-25_22h44.52.607,vts_reward_expectancy,2022.2.4,MacIntel,59.99880002,Chrome,1440,900,,,,,0,858,,,,,,,,,,,,,,,,,H,160,hexagon,1,0,,,,,,,,,,,,,,,,switch,letter,lettSwt,d,0.7669,Hi,,,,,,1,,,,,,,,low,29,0,29,0,1,,,,,,,,,
294259,2022-09-25_22h44.52.607,vts_reward_expectancy,2022.2.4,MacIntel,59.99880002,Chrome,1440,900,,,,,0,858,,,,,,,,,,,,,,,,,Y,146,hexagon,0,0,,,,,,,,,,,,,,,,repeat,letter,NA,d,0.4172,Hi,,,,,,1,,,,,,,,low,30,0,30,0,1,,,,,,,,,
294259,2022-09-25_22h44.52.607,vts_reward_expectancy,2022.2.4,MacIntel,59.99880002,Chrome,1440,900,,,,,1,859,,,,,,,,,,,,,,,,,D,125,triangle,1,1,,,,,,,,,,,,,,,,repeat,letter,lettRpt,d,0.6138,Lo,,,,,,1,,,,,,,,low,31,0,31,0,1,,,,,,,,,
294259,2022-09-25_22h44.52.607,vts_reward_expectancy,2022.2.4,MacIntel,59.99880002,Chrome,1440,900,,,,,10,869,,,,,,,,,,,,,,,,,D,139,hexagon,1,0,,,,,,,,,,,,,,,,repeat,letter,lettRpt,d,0.4313,Hi,,,,,,2,,,,,,space,1.494,low,0,0,0,0,1,,,,,,,,,
294259,2022-09-25_22h44.52.607,vts_reward_expectancy,2022.2.4,MacIntel,59.99880002,Chrome,1440,900,,,,,10,879,,,,,,,,,,,,,,,,,H,132,triangle,1,0,,,,,,,,,,,,,,,,switch,number,numSwt,j,1.2795,Lo,,,,,,2,,,,,,,,low,1,0,1,0,1,,,,,,,,,
294259,2022-09-25_22h44.52.607,vts_reward_expectancy,2022.2.4,MacIntel,59.99880002,Chrome,1440,900,,,,,10,889,,,,,,,,,,,,,,,,,F,167,hexagon,1,0,,,,,,,,,,,,,,,,switch,letter,lettSwt,d,0.5662,Hi,,,,,,2,,,,,,,,low,2,0,2,0,1,,,,,,,,,
294259,2022-09-25_22h44.52.607,vts_reward_expectancy,2022.2.4,MacIntel,59.99880002,Chrome,1440,900,,,,,1,890,,,,,,,,,,,,,,,,,U,181,triangle,1,0,,,,,,,,,,,,,,,,switch,number,numSwt,k,1.3642,Lo,,,,,,2,,,,,,,,low,3,0,3,0,1,,,,,,,,,
294259,2022-09-25_22h44.52.607,vts_reward_expectancy,2022.2.4,MacIntel,59.99880002,Chrome,1440,900,,,,,10,900,,,,,,,,,,,,,,,,,B,174,hexagon,1,0,,,,,,,,,,,,,,,,switch,letter,lettSwt,d,0.4811,Hi,,,,,,2,,,,,,,,low,4,0,4,0,1,,,,,,,,,
294259,2022-09-25_22h44.52.607,vts_reward_expectancy,2022.2.4,MacIntel,59.99880002,Chrome,1440,900,,,,,0,900,,,,,,,,,,,,,,,,,Y,160,triangle,0,0,,,,,,,,,,,,,,,,switch,number,NA,j,1.1122,Hi,,,,,,2,,,,,,,,low,5,0,5,0,1,,,,,,,,,
294259,2022-09-25_22h44.52.607,vts_reward_expectancy,2022.2.4,MacIntel,59.99880002,Chrome,1440,900,,,,,1,901,,,,,,,,,,,,,,,,,W,125,hexagon,1,1,,,,,,,,,,,,,,,,switch,letter,lettSwt,f,0.4847,Hi,,,,,,2,,,,,,,,low,6,0,6,0,1,,,,,,,,,
294259,2022-09-25_22h44.52.607,vts_reward_expectancy,2022.2.4,MacIntel,59.99880002,Chrome,1440,900,,,,,10,911,,,,,,,,,,,,,,,,,S,146,triangle,1,0,,,,,,,,,,,,,,,,switch,number,numSwt,j,1.6141,Lo,,,,,,2,,,,,,,,low,7,0,7,0,1,,,,,,,,,
294259,2022-09-25_22h44.52.607,vts_reward_expectancy,2022.2.4,MacIntel,59.99880002,Chrome,1440,900,,,,,0,911,,,,,,,,,,,,,,,,,D,139,hexagon,1,0,,,,,,,,,,,,,,,,switch,letter,lettSwt,d,0.8317,Hi,,,,,,2,,,,,,,,low,8,0,8,0,1,,,,,,,,,
294259,2022-09-25_22h44.52.607,vts_reward_expectancy,2022.2.4,MacIntel,59.99880002,Chrome,1440,900,,,,,10,921,,,,,,,,,,,,,,,,,H,132,triangle,1,0,,,,,,,,,,,,,,,,switch,number,numSwt,j,1.0492,Lo,,,,,,2,,,,,,,,low,9,0,9,0,1,,,,,,,,,
294259,2022-09-25_22h44.52.607,vts_reward_expectancy,2022.2.4,MacIntel,59.99880002,Chrome,1440,900,,,,,1,922,,,,,,,,,,,,,,,,,F,167,triangle,1,0,,,,,,,,,,,,,,,,repeat,number,numRpt,k,1.5625,Lo,,,,,,2,,,,,,,,low,10,0,10,0,1,,,,,,,,,
294259,2022-09-25_22h44.52.607,vts_reward_expectancy,2022.2.4,MacIntel,59.99880002,Chrome,1440,900,,,,,0,922,,,,,,,,,,,,,,,,,U,181,hexagon,0,0,,,,,,,,,,,,,,,,switch,letter,NA,d,1.2918,Lo,,,,,,2,,,,,,,,low,11,0,11,0,1,,,,,,,,,
294259,2022-09-25_22h44.52.607,vts_reward_expectancy,2022.2.4,MacIntel,59.99880002,Chrome,1440,900,,,,,1,923,,,,,,,,,,,,,,,,,B,174,triangle,1,1,,,,,,,,,,,,,,,,repeat,letter,lettRpt,d,0.6133,Lo,,,,,,2,,,,,,,,low,12,0,12,0,1,,,,,,,,,
294259,2022-09-25_22h44.52.607,vts_reward_expectancy,2022.2.4,MacIntel,59.99880002,Chrome,1440,900,,,,,0,923,,,,,,,,,,,,,,,,,Y,160,hexagon,0,0,,,,,,,,,,,,,,,,repeat,letter,NA,d,0.3803,Lo,,,,,,2,,,,,,,,low,13,0,13,0,1,,,,,,,,,
294259,2022-09-25_22h44.52.607,vts_reward_expectancy,2022.2.4,MacIntel,59.99880002,Chrome,1440,900,,,,,1,924,,,,,,,,,,,,,,,,,W,125,triangle,1,1,,,,,,,,,,,,,,,,switch,number,numSwt,j,1.3123,Lo,,,,,,2,,,,,,,,low,14,0,14,0,1,,,,,,,,,
294259,2022-09-25_22h44.52.607,vts_reward_expectancy,2022.2.4,MacIntel,59.99880002,Chrome,1440,900,,,,,10,934,,,,,,,,,,,,,,,,,S,146,hexagon,1,0,,,,,,,,,,,,,,,,switch,letter,lettSwt,f,0.5311,Hi,,,,,,2,,,,,,,,low,15,0,15,0,1,,,,,,,,,
294259,2022-09-25_22h44.52.607,vts_reward_expectancy,2022.2.4,MacIntel,59.99880002,Chrome,1440,900,,,,,1,935,,,,,,,,,,,,,,,,,U,125,triangle,1,0,,,,,,,,,,,,,,,,switch,number,numSwt,j,1.0013,Lo,,,,,,2,,,,,,,,low,16,0,16,0,1,,,,,,,,,
294259,2022-09-25_22h44.52.607,vts_reward_expectancy,2022.2.4,MacIntel,59.99880002,Chrome,1440,900,,,,,1,936,,,,,,,,,,,,,,,,,W,167,hexagon,1,0,,,,,,,,,,,,,,,,switch,letter,lettSwt,f,0.5959,Hi,,,,,,2,,,,,,,,low,17,0,17,0,1,,,,,,,,,
294259,2022-09-25_22h44.52.607,vts_reward_expectancy,2022.2.4,MacIntel,59.99880002,Chrome,1440,900,,,,,0,936,,,,,,,,,,,,,,,,,D,132,hexagon,0,0,,,,,,,,,,,,,,,,repeat,letter,NA,f,0.429,Hi,,,,,,2,,,,,,,,low,18,0,18,0,1,,,,,,,,,
294259,2022-09-25_22h44.52.607,vts_reward_expectancy,2022.2.4,MacIntel,59.99880002,Chrome,1440,900,,,,,10,946,,,,,,,,,,,,,,,,,S,139,triangle,1,1,,,,,,,,,,,,,,,,switch,number,numSwt,j,1.6132,Lo,,,,,,2,,,,,,,,low,19,0,19,0,1,,,,,,,,,
294259,2022-09-25_22h44.52.607,vts_reward_expectancy,2022.2.4,MacIntel,59.99880002,Chrome,1440,900,,,,,1,947,,,,,,,,,,,,,,,,,F,181,triangle,1,0,,,,,,,,,,,,,,,,switch,letter,lettSwt,d,1.6147,Lo,,,,,,2,,,,,,,,low,20,0,20,0,1,,,,,,,,,
294259,2022-09-25_22h44.52.607,vts_reward_expectancy,2022.2.4,MacIntel,59.99880002,Chrome,1440,900,,,,,10,957,,,,,,,,,,,,,,,,,H,174,hexagon,1,0,,,,,,,,,,,,,,,,repeat,letter,lettRpt,d,0.3847,Hi,,,,,,2,,,,,,,,low,21,0,21,0,1,,,,,,,,,
294259,2022-09-25_22h44.52.607,vts_reward_expectancy,2022.2.4,MacIntel,59.99880002,Chrome,1440,900,,,,,1,958,,,,,,,,,,,,,,,,,Y,160,triangle,1,0,,,,,,,,,,,,,,,,switch,number,numSwt,k,1.3792,Lo,,,,,,2,,,,,,,,low,22,0,22,0,1,,,,,,,,,
294259,2022-09-25_22h44.52.607,vts_reward_expectancy,2022.2.4,MacIntel,59.99880002,Chrome,1440,900,,,,,1,959,,,,,,,,,,,,,,,,,B,146,hexagon,1,0,,,,,,,,,,,,,,,,switch,letter,lettSwt,d,0.3682,Hi,,,,,,2,,,,,,,,low,23,0,23,0,1,,,,,,,,,
294259,2022-09-25_22h44.52.607,vts_reward_expectancy,2022.2.4,MacIntel,59.99880002,Chrome,1440,900,,,,,1,960,,,,,,,,,,,,,,,,,H,160,hexagon,1,0,,,,,,,,,,,,,,,,repeat,letter,lettRpt,d,0.4,Hi,,,,,,2,,,,,,,,low,24,0,24,0,1,,,,,,,,,
294259,2022-09-25_22h44.52.607,vts_reward_expectancy,2022.2.4,MacIntel,59.99880002,Chrome,1440,900,,,,,1,961,,,,,,,,,,,,,,,,,D,174,triangle,1,0,,,,,,,,,,,,,,,,switch,number,numSwt,k,1.6279,Lo,,,,,,2,,,,,,,,low,25,0,25,0,1,,,,,,,,,
294259,2022-09-25_22h44.52.607,vts_reward_expectancy,2022.2.4,MacIntel,59.99880002,Chrome,1440,900,,,,,0,961,,,,,,,,,,,,,,,,,U,181,hexagon,1,0,,,,,,,,,,,,,,,,repeat,number,numRpt,k,1.2471,Hi,,,,,,2,,,,,,,,low,26,0,26,0,1,,,,,,,,,
294259,2022-09-25_22h44.52.607,vts_reward_expectancy,2022.2.4,MacIntel,59.99880002,Chrome,1440,900,,,,,0,961,,,,,,,,,,,,,,,,,S,146,triangle,0,0,,,,,,,,,,,,,,,,repeat,number,NA,k,1.0802,Hi,,,,,,2,,,,,,,,low,27,0,27,0,1,,,,,,,,,
294259,2022-09-25_22h44.52.607,vts_reward_expectancy,2022.2.4,MacIntel,59.99880002,Chrome,1440,900,,,,,10,971,,,,,,,,,,,,,,,,,F,139,hexagon,1,1,,,,,,,,,,,,,,,,switch,letter,lettSwt,d,0.4936,Hi,,,,,,2,,,,,,,,low,28,0,28,0,1,,,,,,,,,
294259,2022-09-25_22h44.52.607,vts_reward_expectancy,2022.2.4,MacIntel,59.99880002,Chrome,1440,900,,,,,0,971,,,,,,,,,,,,,,,,,W,125,triangle,0,0,,,,,,,,,,,,,,,,switch,number,NA,k,0.5796,Hi,,,,,,2,,,,,,,,low,29,0,29,0,1,,,,,,,,,
294259,2022-09-25_22h44.52.607,vts_reward_expectancy,2022.2.4,MacIntel,59.99880002,Chrome,1440,900,,,,,10,981,,,,,,,,,,,,,,,,,B,167,hexagon,1,1,,,,,,,,,,,,,,,,switch,letter,lettSwt,d,0.4987,Hi,,,,,,2,,,,,,,,low,30,0,30,0,1,,,,,,,,,
294259,2022-09-25_22h44.52.607,vts_reward_expectancy,2022.2.4,MacIntel,59.99880002,Chrome,1440,900,,,,,10,991,,,,,,,,,,,,,,,,,Y,132,triangle,1,0,,,,,,,,,,,,,,,,switch,number,numSwt,j,0.815,Lo,,,,,,2,,,,,,,,low,31,0,31,0,1,,,,,,,,,
294259,2022-09-25_22h44.52.607,vts_reward_expectancy,2022.2.4,MacIntel,59.99880002,Chrome,1440,900,,,,,0,991,,,,,,,,,,,,,,,,,D,146,circle,1,0,,,,,,,,,,,,,,,,switch,letter,lettSwt,d,0.5817,Hi,,,,,,3,,,,,,space,0.8326,high,0,0,0,0,1,,,,,,,,,
294259,2022-09-25_22h44.52.607,vts_reward_expectancy,2022.2.4,MacIntel,59.99880002,Chrome,1440,900,,,,,10,1001,,,,,,,,,,,,,,,,,U,132,star,1,0,,,,,,,,,,,,,,,,switch,number,numSwt,j,0.4999,Lo,,,,,,3,,,,,,,,high,1,0,1,0,1,,,,,,,,,
294259,2022-09-25_22h44.52.607,vts_reward_expectancy,2022.2.4,MacIntel,59.99880002,Chrome,1440,900,,,,,0,1001,,,,,,,,,,,,,,,,,W,181,circle,1,0,,,,,,,,,,,,,,,,switch,letter,lettSwt,f,0.578,Hi,,,,,,3,,,,,,,,high,2,0,2,0,1,,,,,,,,,
294259,2022-09-25_22h44.52.607,vts_reward_expectancy,2022.2.4,MacIntel,59.99880002,Chrome,1440,900,,,,,1,1002,,,,,,,,,,,,,,,,,S,139,star,1,0,,,,,,,,,,,,,,,,switch,number,numSwt,j,0.4483,Lo,,,,,,3,,,,,,,,high,3,0,3,0,1,,,,,,,,,
294259,2022-09-25_22h44.52.607,vts_reward_expectancy,2022.2.4,MacIntel,59.99880002,Chrome,1440,900,,,,,1,1003,,,,,,,,,,,,,,,,,F,125,star,1,0,,,,,,,,,,,,,,,,repeat,number,numRpt,j,0.4805,Lo,,,,,,3,,,,,,,,high,4,0,4,0,1,,,,,,,,,
294259,2022-09-25_22h44.52.607,vts_reward_expectancy,2022.2.4,MacIntel,59.99880002,Chrome,1440,900,,,,,0,1003,,,,,,,,,,,,,,,,,Y,174,circle,1,0,,,,,,,,,,,,,,,,switch,letter,lettSwt,f,0.5774,Hi,,,,,,3,,,,,,,,high,5,0,5,0,1,,,,,,,,,
294259,2022-09-25_22h44.52.607,vts_reward_expectancy,2022.2.4,MacIntel,59.99880002,Chrome,1440,900,,,,,0,1003,,,,,,,,,,,,,,,,,B,160,star,0,0,,,,,,,,,,,,,,,,switch,number,NA,j,0.4291,Hi,,,,,,3,,,,,,,,high,6,0,6,0,1,,,,,,,,,
294259,2022-09-25_22h44.52.607,vts_reward_expectancy,2022.2.4,MacIntel,59.99880002,Chrome,1440,900,,,,,0,1003,,,,,,,,,,,,,,,,,H,167,circle,0,1,,,,,,,,,,,,,,,,switch,letter,NA,f,0.4402,Hi,,,,,,3,,,,,,,,high,7,0,7,0,1,,,,,,,,,
294259,2022-09-25_22h44.52.607,vts_reward_expectancy,2022.2.4,MacIntel,59.99880002,Chrome,1440,900,,,,,0,1003,,,,,,,,,,,,,,,,,D,146,circle,1,1,,,,,,,,,,,,,,,,repeat,letter,lettRpt,d,0.4614,Hi,,,,,,3,,,,,,,,high,8,0,8,0,1,,,,,,,,,
294259,2022-09-25_22h44.52.607,vts_reward_expectancy,2022.2.4,MacIntel,59.99880002,Chrome,1440,900,,,,,1,1004,,,,,,,,,,,,,,,,,U,132,star,1,0,,,,,,,,,,,,,,,,switch,number,numSwt,j,0.4619,Lo,,,,,,3,,,,,,,,high,9,0,9,0,1,,,,,,,,,
294259,2022-09-25_22h44.52.607,vts_reward_expectancy,2022.2.4,MacIntel,59.99880002,Chrome,1440,900,,,,,1,1005,,,,,,,,,,,,,,,,,W,181,star,1,0,,,,,,,,,,,,,,,,repeat,number,numRpt,k,0.4535,Lo,,,,,,3,,,,,,,,high,10,0,10,0,1,,,,,,,,,
294259,2022-09-25_22h44.52.607,vts_reward_expectancy,2022.2.4,MacIntel,59.99880002,Chrome,1440,900,,,,,0,1005,,,,,,,,,,,,,,,,,S,139,circle,0,0,,,,,,,,,,,,,,,,switch,letter,NA,d,0.4443,Lo,,,,,,3,,,,,,,,high,11,0,11,0,1,,,,,,,,,
294259,2022-09-25_22h44.52.607,vts_reward_expectancy,2022.2.4,MacIntel,59.99880002,Chrome,1440,900,,,,,0,1005,,,,,,,,,,,,,,,,,F,125,circle,1,1,,,,,,,,,,,,,,,,repeat,letter,lettRpt,d,0.5294,Hi,,,,,,3,,,,,,,,high,12,0,12,0,1,,,,,,,,,
294259,2022-09-25_22h44.52.607,vts_reward_expectancy,2022.2.4,MacIntel,59.99880002,Chrome,1440,900,,,,,1,1006,,,,,,,,,,,,,,,,,Y,174,star,1,0,,,,,,,,,,,,,,,,switch,number,numSwt,k,0.5187,Lo,,,,,,3,,,,,,,,high,13,0,13,0,1,,,,,,,,,
294259,2022-09-25_22h44.52.607,vts_reward_expectancy,2022.2.4,MacIntel,59.99880002,Chrome,1440,900,,,,,1,1007,,,,,,,,,,,,,,,,,B,160,star,1,0,,,,,,,,,,,,,,,,repeat,number,numRpt,k,1.1015,Lo,,,,,,3,,,,,,,,high,14,0,14,0,1,,,,,,,,,
294259,2022-09-25_22h44.52.607,vts_reward_expectancy,2022.2.4,MacIntel,59.99880002,Chrome,1440,900,,,,,10,1017,,,,,,,,,,,,,,,,,H,167,circle,1,0,,,,,,,,,,,,,,,,repeat,number,numRpt,k,0.9481,Hi,,,,,,3,,,,,,,,high,15,0,15,0,1,,,,,,,,,
294259,2022-09-25_22h44.52.607,vts_reward_expectancy,2022.2.4,MacIntel,59.99880002,Chrome,1440,900,,,,,10,1027,,,,,,,,,,,,,,,,,D,160,circle,1,0,,,,,,,,,,,,,,,,repeat,number,numRpt,k,1.1649,Hi,,,,,,3,,,,,,,,high,16,0,16,0,1,,,,,,,,,
294259,2022-09-25_22h44.52.607,vts_reward_expectancy,2022.2.4,MacIntel,59.99880002,Chrome,1440,900,,,,,1,1028,,,,,,,,,,,,,,,,,F,139,star,1,0,,,,,,,,,,,,,,,,switch,letter,lettSwt,d,0.8136,Lo,,,,,,3,,,,,,,,high,17,0,17,0,1,,,,,,,,,
294259,2022-09-25_22h44.52.607,vts_reward_expectancy,2022.2.4,MacIntel,59.99880002,Chrome,1440,900,,,,,10,1038,,,,,,,,,,,,,,,,,B,167,circle,1,0,,,,,,,,,,,,,,,,switch,number,numSwt,k,1.0524,Hi,,,,,,3,,,,,,,,high,18,0,18,0,1,,,,,,,,,
294259,2022-09-25_22h44.52.607,vts_reward_expectancy,2022.2.4,MacIntel,59.99880002,Chrome,1440,900,,,,,1,1039,,,,,,,,,,,,,,,,,Y,146,star,1,0,,,,,,,,,,,,,,,,repeat,number,numRpt,j,0.4942,Lo,,,,,,3,,,,,,,,high,19,0,19,0,1,,,,,,,,,
294259,2022-09-25_22h44.52.607,vts_reward_expectancy,2022.2.4,MacIntel,59.99880002,Chrome,1440,900,,,,,0,1039,,,,,,,,,,,,,,,,,S,125,circle,0,0,,,,,,,,,,,,,,,,switch,letter,NA,d,0.74,Lo,,,,,,3,,,,,,,,high,20,0,20,0,1,,,,,,,,,
294259,2022-09-25_22h44.52.607,vts_reward_expectancy,2022.2.4,MacIntel,59.99880002,Chrome,1440,900,,,,,1,1040,,,,,,,,,,,,,,,,,W,181,star,1,1,,,,,,,,,,,,,,,,switch,number,numSwt,k,1.031,Lo,,,,,,3,,,,,,,,high,21,0,21,0,1,,,,,,,,,
294259,2022-09-25_22h44.52.607,vts_reward_expectancy,2022.2.4,MacIntel,59.99880002,Chrome,1440,900,,,,,1,1041,,,,,,,,,,,,,,,,,H,132,star,1,0,,,,,,,,,,,,,,,,switch,letter,lettSwt,d,0.5644,Lo,,,,,,3,,,,,,,,high,22,0,22,0,1,,,,,,,,,
294259,2022-09-25_22h44.52.607,vts_reward_expectancy,2022.2.4,MacIntel,59.99880002,Chrome,1440,900,,,,,10,1051,,,,,,,,,,,,,,,,,U,174,circle,1,0,,,,,,,,,,,,,,,,switch,number,numSwt,k,1.1991,Hi,,,,,,3,,,,,,,,high,23,0,23,0,1,,,,,,,,,
294259,2022-09-25_22h44.52.607,vts_reward_expectancy,2022.2.4,MacIntel,59.99880002,Chrome,1440,900,,,,,10,1061,,,,,,,,,,,,,,,,,B,146,circle,1,0,,,,,,,,,,,,,,,,repeat,number,numRpt,j,1.1791,Hi,,,,,,3,,,,,,,,high,24,0,24,0,1,,,,,,,,,
294259,2022-09-25_22h44.52.607,vts_reward_expectancy,2022.2.4,MacIntel,59.99880002,Chrome,1440,900,,,,,1,1062,,,,,,,,,,,,,,,,,W,167,star,1,0,,,,,,,,,,,,,,,,switch,letter,lettSwt,f,0.8936,Lo,,,,,,3,,,,,,,,high,25,0,25,0,1,,,,,,,,,
294259,2022-09-25_22h44.52.607,vts_reward_expectancy,2022.2.4,MacIntel,59.99880002,Chrome,1440,900,,,,,10,1072,,,,,,,,,,,,,,,,,F,139,circle,1,0,,,,,,,,,,,,,,,,switch,number,numSwt,j,0.9562,Hi,,,,,,3,,,,,,,,high,26,0,26,0,1,,,,,,,,,
294259,2022-09-25_22h44.52.607,vts_reward_expectancy,2022.2.4,MacIntel,59.99880002,Chrome,1440,900,,,,,1,1073,,,,,,,,,,,,,,,,,U,181,star,1,0,,,,,,,,,,,,,,,,repeat,number,numRpt,k,0.829,Lo,,,,,,3,,,,,,,,high,27,0,27,0,1,,,,,,,,,
294259,2022-09-25_22h44.52.607,vts_reward_expectancy,2022.2.4,MacIntel,59.99880002,Chrome,1440,900,,,,,10,1083,,,,,,,,,,,,,,,,,S,174,circle,1,0,,,,,,,,,,,,,,,,repeat,number,numRpt,k,0.8704,Hi,,,,,,3,,,,,,,,high,28,0,28,0,1,,,,,,,,,
294259,2022-09-25_22h44.52.607,vts_reward_expectancy,2022.2.4,MacIntel,59.99880002,Chrome,1440,900,,,,,0,1083,,,,,,,,,,,,,,,,,Y,160,star,0,0,,,,,,,,,,,,,,,,switch,letter,NA,d,0.4313,Hi,,,,,,3,,,,,,,,high,29,0,29,0,1,,,,,,,,,
294259,2022-09-25_22h44.52.607,vts_reward_expectancy,2022.2.4,MacIntel,59.99880002,Chrome,1440,900,,,,,1,1084,,,,,,,,,,,,,,,,,D,132,star,1,1,,,,,,,,,,,,,,,,repeat,letter,lettRpt,d,0.5023,Lo,,,,,,3,,,,,,,,high,30,0,30,0,1,,,,,,,,,
294259,2022-09-25_22h44.52.607,vts_reward_expectancy,2022.2.4,MacIntel,59.99880002,Chrome,1440,900,,,,,10,1094,,,,,,,,,,,,,,,,,H,125,circle,1,0,,,,,,,,,,,,,,,,switch,number,numSwt,j,0.8027,Hi,,,,,,3,,,,,,,,high,31,0,31,0,1,,,,,,,,,
294259,2022-09-25_22h44.52.607,vts_reward_expectancy,2022.2.4,MacIntel,59.99880002,Chrome,1440,900,,,,,0,1094,,,,,,,,,,,,,,,,,U,160,circle,1,0,,,,,,,,,,,,,,,,repeat,number,numRpt,k,1.0816,Hi,,,,,,4,,,,,,space,1.184,high,0,0,0,0,1,,,,,,,,,
294259,2022-09-25_22h44.52.607,vts_reward_expectancy,2022.2.4,MacIntel,59.99880002,Chrome,1440,900,,,,,1,1095,,,,,,,,,,,,,,,,,H,125,star,1,0,,,,,,,,,,,,,,,,switch,letter,lettSwt,d,0.4975,Lo,,,,,,4,,,,,,,,high,1,0,1,0,1,,,,,,,,,
294259,2022-09-25_22h44.52.607,vts_reward_expectancy,2022.2.4,MacIntel,59.99880002,Chrome,1440,900,,,,,0,1095,,,,,,,,,,,,,,,,,D,174,circle,1,0,,,,,,,,,,,,,,,,switch,number,numSwt,k,0.799,Hi,,,,,,4,,,,,,,,high,2,0,2,0,1,,,,,,,,,
294259,2022-09-25_22h44.52.607,vts_reward_expectancy,2022.2.4,MacIntel,59.99880002,Chrome,1440,900,,,,,1,1096,,,,,,,,,,,,,,,,,B,146,star,1,0,,,,,,,,,,,,,,,,repeat,number,numRpt,j,0.9664,Lo,,,,,,4,,,,,,,,high,3,0,3,0,1,,,,,,,,,
294259,2022-09-25_22h44.52.607,vts_reward_expectancy,2022.2.4,MacIntel,59.99880002,Chrome,1440,900,,,,,0,1096,,,,,,,,,,,,,,,,,S,167,star,0,0,,,,,,,,,,,,,,,,repeat,number,NA,j,1.1448,Lo,,,,,,4,,,,,,,,high,4,0,4,0,1,,,,,,,,,
294259,2022-09-25_22h44.52.607,vts_reward_expectancy,2022.2.4,MacIntel,59.99880002,Chrome,1440,900,,,,,10,1106,,,,,,,,,,,,,,,,,W,132,circle,1,1,,,,,,,,,,,,,,,,switch,letter,lettSwt,f,0.5333,Hi,,,,,,4,,,,,,,,high,5,0,5,0,1,,,,,,,,,
294259,2022-09-25_22h44.52.607,vts_reward_expectancy,2022.2.4,MacIntel,59.99880002,Chrome,1440,900,,,,,0,1106,,,,,,,,,,,,,,,,,F,181,circle,1,0,,,,,,,,,,,,,,,,repeat,letter,lettRpt,d,0.5351,Hi,,,,,,4,,,,,,,,high,6,0,6,0,1,,,,,,,,,
294259,2022-09-25_22h44.52.607,vts_reward_expectancy,2022.2.4,MacIntel,59.99880002,Chrome,1440,900,,,,,0,1106,,,,,,,,,,,,,,,,,Y,139,star,0,0,,,,,,,,,,,,,,,,switch,number,NA,k,0.7151,Hi,,,,,,4,,,,,,,,high,7,0,7,0,1,,,,,,,,,
294259,2022-09-25_22h44.52.607,vts_reward_expectancy,2022.2.4,MacIntel,59.99880002,Chrome,1440,900,,,,,1,1107,,,,,,,,,,,,,,,,,U,160,star,1,1,,,,,,,,,,,,,,,,switch,letter,lettSwt,f,0.6146,Lo,,,,,,4,,,,,,,,high,8,0,8,0,1,,,,,,,,,
294259,2022-09-25_22h44.52.607,vts_reward_expectancy,2022.2.4,MacIntel,59.99880002,Chrome,1440,900,,,,,10,1117,,,,,,,,,,,,,,,,,H,125,circle,1,0,,,,,,,,,,,,,,,,repeat,letter,lettRpt,d,0.4355,Hi,,,,,,4,,,,,,,,high,9,0,9,0,1,,,,,,,,,
294259,2022-09-25_22h44.52.607,vts_reward_expectancy,2022.2.4,MacIntel,59.99880002,Chrome,1440,900,,,,,0,1117,,,,,,,,,,,,,,,,,D,174,star,0,0,,,,,,,,,,,,,,,,switch,number,NA,j,0.7639,Hi,,,,,,4,,,,,,,,high,10,0,10,0,1,,,,,,,,,
294259,2022-09-25_22h44.52.607,vts_reward_expectancy,2022.2.4,MacIntel,59.99880002,Chrome,1440,900,,,,,10,1127,,,,,,,,,,,,,,,,,B,146,circle,1,1,,,,,,,,,,,,,,,,switch,letter,lettSwt,d,0.4333,Hi,,,,,,4,,,,,,,,high,11,0,11,0,1,,,,,,,,,
294259,2022-09-25_22h44.52.607,vts_reward_expectancy,2022.2.4,MacIntel,59.99880002,Chrome,1440,900,,,,,1,1128,,,,,,,,,,,,,,,,,S,167,star,1,0,,,,,,,,,,,,,,,,switch,number,numSwt,k,1.1091,Lo,,,,,,4,,,,,,,,high,12,0,12,0,1,,,,,,,,,
294259,2022-09-25_22h44.52.607,vts_reward_expectancy,2022.2.4,MacIntel,59.99880002,Chrome,1440,900,,,,,10,1138,,,,,,,,,,,,,,,,,W,132,circle,1,0,,,,,,,,,,,,,,,,switch,letter,lettSwt,f,0.5315,Hi,,,,,,4,,,,,,,,high,13,0,13,0,1,,,,,,,,,
294259,2022-09-25_22h44.52.607,vts_reward_expectancy,2022.2.4,MacIntel,59.99880002,Chrome,1440,900,,,,,0,1138,,,,,,,,,,,,,,,,,F,181,circle,1,0,,,,,,,,,,,,,,,,repeat,letter,lettRpt,d,0.6629,Hi,,,,,,4,,,,,,,,high,14,0,14,0,1,,,,,,,,,
294259,2022-09-25_22h44.52.607,vts_reward_expectancy,2022.2.4,MacIntel,59.99880002,Chrome,1440,900,,,,,10,1148,,,,,,,,,,,,,,,,,Y,139,star,1,0,,,,,,,,,,,,,,,,repeat,letter,lettRpt,f,1.1124,Lo,,,,,,4,,,,,,,,high,15,0,15,0,1,,,,,,,,,
294259,2022-09-25_22h44.52.607,vts_reward_expectancy,2022.2.4,MacIntel,59.99880002,Chrome,1440,900,,,,,0,1148,,,,,,,,,,,,,,,,,S,174,circle,0,0,,,,,,,,,,,,,,,,repeat,letter,NA,d,0.6326,Lo,,,,,,4,,,,,,,,high,16,0,16,0,1,,,,,,,,,
294259,2022-09-25_22h44.52.607,vts_reward_expectancy,2022.2.4,MacIntel,59.99880002,Chrome,1440,900,,,,,1,1149,,,,,,,,,,,,,,,,,H,167,star,1,1,,,,,,,,,,,,,,,,repeat,letter,lettRpt,d,0.5149,Lo,,,,,,4,,,,,,,,high,17,0,17,0,1,,,,,,,,,
294259,2022-09-25_22h44.52.607,vts_reward_expectancy,2022.2.4,MacIntel,59.99880002,Chrome,1440,900,,,,,1,1150,,,,,,,,,,,,,,,,,B,132,circle,1,0,,,,,,,,,,,,,,,,repeat,letter,lettRpt,d,0.461,Hi,,,,,,4,,,,,,,,high,18,0,18,0,1,,,,,,,,,
294259,2022-09-25_22h44.52.607,vts_reward_expectancy,2022.2.4,MacIntel,59.99880002,Chrome,1440,900,,,,,1,1151,,,,,,,,,,,,,,,,,Y,125,star,1,0,,,,,,,,,,,,,,,,repeat,letter,lettRpt,f,0.8655,Lo,,,,,,4,,,,,,,,high,19,0,19,0,1,,,,,,,,,
294259,2022-09-25_22h44.52.607,vts_reward_expectancy,2022.2.4,MacIntel,59.99880002,Chrome,1440,900,,,,,1,1152,,,,,,,,,,,,,,,,,D,181,star,1,0,,,,,,,,,,,,,,,,repeat,letter,lettRpt,d,0.9642,Lo,,,,,,4,,,,,,,,high,20,0,20,0,1,,,,,,,,,
294259,2022-09-25_22h44.52.607,vts_reward_expectancy,2022.2.4,MacIntel,59.99880002,Chrome,1440,900,,,,,0,1152,,,,,,,,,,,,,,,,,U,146,circle,1,0,,,,,,,,,,,,,,,,repeat,letter,lettRpt,f,0.598,Hi,,,,,,4,,,,,,,,high,21,0,21,0,1,,,,,,,,,
294259,2022-09-25_22h44.52.607,vts_reward_expectancy,2022.2.4,MacIntel,59.99880002,Chrome,1440,900,,,,,1,1153,,,,,,,,,,,,,,,,,F,160,star,1,0,,,,,,,,,,,,,,,,repeat,letter,lettRpt,d,1.0792,Lo,,,,,,4,,,,,,,,high,22,0,22,0,1,,,,,,,,,
294259,2022-09-25_22h44.52.607,vts_reward_expectancy,2022.2.4,MacIntel,59.99880002,Chrome,1440,900,,,,,0,1153,,,,,,,,,,,,,,,,,W,139,circle,1,0,,,,,,,,,,,,,,,,repeat,letter,lettRpt,f,0.5166,Hi,,,,,,4,,,,,,,,high,23,0,23,0,1,,,,,,,,,
294259,2022-09-25_22h44.52.607,vts_reward_expectancy,2022.2.4,MacIntel,59.99880002,Chrome,1440,900,,,,,1,1154,,,,,,,,,,,,,,,,,F,125,star,1,0,,,,,,,,,,,,,,,,switch,number,numSwt,j,0.6287,Lo,,,,,,4,,,,,,,,high,24,0,24,0,1,,,,,,,,,
294259,2022-09-25_22h44.52.607,vts_reward_expectancy,2022.2.4,MacIntel,59.99880002,Chrome,1440,900,,,,,0,1154,,,,,,,,,,,,,,,,,Y,160,circle,1,0,,,,,,,,,,,,,,,,repeat,number,numRpt,k,0.983,Hi,,,,,,4,,,,,,,,high,25,0,25,0,1,,,,,,,,,
294259,2022-09-25_22h44.52.607,vts_reward_expectancy,2022.2.4,MacIntel,59.99880002,Chrome,1440,900,,,,,1,1155,,,,,,,,,,,,,,,,,U,174,star,1,0,,,,,,,,,,,,,,,,repeat,number,numRpt,k,0.5467,Lo,,,,,,4,,,,,,,,high,26,0,26,0,1,,,,,,,,,
294259,2022-09-25_22h44.52.607,vts_reward_expectancy,2022.2.4,MacIntel,59.99880002,Chrome,1440,900,,,,,10,1165,,,,,,,,,,,,,,,,,D,139,circle,1,0,,,,,,,,,,,,,,,,repeat,number,numRpt,j,0.5452,Hi,,,,,,4,,,,,,,,high,27,0,27,0,1,,,,,,,,,
294259,2022-09-25_22h44.52.607,vts_reward_expectancy,2022.2.4,MacIntel,59.99880002,Chrome,1440,900,,,,,10,1175,,,,,,,,,,,,,,,,,W,181,circle,1,0,,,,,,,,,,,,,,,,repeat,number,numRpt,k,0.5981,Hi,,,,,,4,,,,,,,,high,28,0,28,0,1,,,,,,,,,
294259,2022-09-25_22h44.52.607,vts_reward_expectancy,2022.2.4,MacIntel,59.99880002,Chrome,1440,900,,,,,1,1176,,,,,,,,,,,,,,,,,S,146,star,1,0,,,,,,,,,,,,,,,,switch,letter,lettSwt,f,0.6868,Lo,,,,,,4,,,,,,,,high,29,0,29,0,1,,,,,,,,,
294259,2022-09-25_22h44.52.607,vts_reward_expectancy,2022.2.4,MacIntel,59.99880002,Chrome,1440,900,,,,,1,1177,,,,,,,,,,,,,,,,,H,132,star,1,0,,,,,,,,,,,,,,,,repeat,letter,lettRpt,d,1.0931,Lo,,,,,,4,,,,,,,,high,30,0,30,0,1,,,,,,,,,
294259,2022-09-25_22h44.52.607,vts_reward_expectancy,2022.2.4,MacIntel,59.99880002,Chrome,1440,900,,,,,0,1177,,,,,,,,,,,,,,,,,B,167,circle,0,0,,,,,,,,,,,,,,,,switch,number,NA,j,0.3987,Lo,,,,,,4,,,,,,,,high,31,0,31,0,1,,,,,,,,,
294259,2022-09-25_22h44.52.607,vts_reward_expectancy,2022.2.4,MacIntel,59.99880002,Chrome,1440,900,,,,,0,1177,,,,,,,,,,,,,,,,,B,132,hexagon,1,1,,,,,,,,,,,,,,,,switch,letter,lettSwt,d,0.8192,Hi,,,,,,5,,,,,,space,0.7961,low,0,0,0,0,1,,,,,,,,,
294259,2022-09-25_22h44.52.607,vts_reward_expectancy,2022.2.4,MacIntel,59.99880002,Chrome,1440,900,,,,,1,1178,,,,,,,,,,,,,,,,,H,174,triangle,1,0,,,,,,,,,,,,,,,,repeat,letter,lettRpt,d,0.9511,Lo,,,,,,5,,,,,,,,low,1,0,1,0,1,,,,,,,,,
294259,2022-09-25_22h44.52.607,vts_reward_expectancy,2022.2.4,MacIntel,59.99880002,Chrome,1440,900,,,,,0,1178,,,,,,,,,,,,,,,,,S,139,hexagon,1,0,,,,,,,,,,,,,,,,repeat,letter,lettRpt,f,0.5477,Hi,,,,,,5,,,,,,,,low,2,0,2,0,1,,,,,,,,,
294259,2022-09-25_22h44.52.607,vts_reward_expectancy,2022.2.4,MacIntel,59.99880002,Chrome,1440,900,,,,,0,1178,,,,,,,,,,,,,,,,,D,146,triangle,0,0,,,,,,,,,,,,,,,,repeat,letter,NA,f,0.5135,Hi,,,,,,5,,,,,,,,low,3,0,3,0,1,,,,,,,,,
294259,2022-09-25_22h44.52.607,vts_reward_expectancy,2022.2.4,MacIntel,59.99880002,Chrome,1440,900,,,,,0,1178,,,,,,,,,,,,,,,,,Y,181,hexagon,1,1,,,,,,,,,,,,,,,,repeat,letter,lettRpt,f,0.5302,Hi,,,,,,5,,,,,,,,low,4,0,4,0,1,,,,,,,,,
294259,2022-09-25_22h44.52.607,vts_reward_expectancy,2022.2.4,MacIntel,59.99880002,Chrome,1440,900,,,,,1,1179,,,,,,,,,,,,,,,,,W,125,triangle,1,0,,,,,,,,,,,,,,,,switch,number,numSwt,j,0.967,Lo,,,,,,5,,,,,,,,low,5,0,5,0,1,,,,,,,,,
294259,2022-09-25_22h44.52.607,vts_reward_expectancy,2022.2.4,MacIntel,59.99880002,Chrome,1440,900,,,,,1,1180,,,,,,,,,,,,,,,,,F,167,triangle,1,0,,,,,,,,,,,,,,,,repeat,number,numRpt,k,0.5647,Lo,,,,,,5,,,,,,,,low,6,0,6,0,1,,,,,,,,,
294259,2022-09-25_22h44.52.607,vts_reward_expectancy,2022.2.4,MacIntel,59.99880002,Chrome,1440,900,,,,,0,1180,,,,,,,,,,,,,,,,,U,160,hexagon,1,0,,,,,,,,,,,,,,,,switch,letter,lettSwt,f,0.6306,Hi,,,,,,5,,,,,,,,low,7,0,7,0,1,,,,,,,,,
294259,2022-09-25_22h44.52.607,vts_reward_expectancy,2022.2.4,MacIntel,59.99880002,Chrome,1440,900,,,,,1,1181,,,,,,,,,,,,,,,,,B,132,triangle,1,0,,,,,,,,,,,,,,,,repeat,letter,lettRpt,d,1.1225,Lo,,,,,,5,,,,,,,,low,8,0,8,0,1,,,,,,,,,
294259,2022-09-25_22h44.52.607,vts_reward_expectancy,2022.2.4,MacIntel,59.99880002,Chrome,1440,900,,,,,1,1182,,,,,,,,,,,,,,,,,H,174,hexagon,1,0,,,,,,,,,,,,,,,,switch,number,numSwt,k,0.5142,Hi,,,,,,5,,,,,,,,low,9,0,9,0,1,,,,,,,,,
294259,2022-09-25_22h44.52.607,vts_reward_expectancy,2022.2.4,MacIntel,59.99880002,Chrome,1440,900,,,,,10,1192,,,,,,,,,,,,,,,,,S,139,hexagon,1,0,,,,,,,,,,,,,,,,repeat,number,numRpt,j,0.498,Hi,,,,,,5,,,,,,,,low,10,0,10,0,1,,,,,,,,,
294259,2022-09-25_22h44.52.607,vts_reward_expectancy,2022.2.4,MacIntel,59.99880002,Chrome,1440,900,,,,,10,1202,,,,,,,,,,,,,,,,,D,146,triangle,1,0,,,,,,,,,,,,,,,,repeat,number,numRpt,j,0.6635,Lo,,,,,,5,,,,,,,,low,11,0,11,0,1,,,,,,,,,
294259,2022-09-25_22h44.52.607,vts_reward_expectancy,2022.2.4,MacIntel,59.99880002,Chrome,1440,900,,,,,0,1202,,,,,,,,,,,,,,,,,Y,181,triangle,0,0,,,,,,,,,,,,,,,,repeat,number,NA,j,0.5282,Lo,,,,,,5,,,,,,,,low,12,0,12,0,1,,,,,,,,,
294259,2022-09-25_22h44.52.607,vts_reward_expectancy,2022.2.4,MacIntel,59.99880002,Chrome,1440,900,,,,,10,1212,,,,,,,,,,,,,,,,,W,125,hexagon,1,1,,,,,,,,,,,,,,,,repeat,number,numRpt,j,0.3983,Hi,,,,,,5,,,,,,,,low,13,0,13,0,1,,,,,,,,,
294259,2022-09-25_22h44.52.607,vts_reward_expectancy,2022.2.4,MacIntel,59.99880002,Chrome,1440,900,,,,,10,1222,,,,,,,,,,,,,,,,,F,167,hexagon,1,0,,,,,,,,,,,,,,,,repeat,number,numRpt,k,0.4284,Hi,,,,,,5,,,,,,,,low,14,0,14,0,1,,,,,,,,,
294259,2022-09-25_22h44.52.607,vts_reward_expectancy,2022.2.4,MacIntel,59.99880002,Chrome,1440,900,,,,,10,1232,,,,,,,,,,,,,,,,,U,160,triangle,1,0,,,,,,,,,,,,,,,,repeat,number,numRpt,k,0.4782,Lo,,,,,,5,,,,,,,,low,15,0,15,0,1,,,,,,,,,
294259,2022-09-25_22h44.52.607,vts_reward_expectancy,2022.2.4,MacIntel,59.99880002,Chrome,1440,900,,,,,10,1242,,,,,,,,,,,,,,,,,S,167,triangle,1,0,,,,,,,,,,,,,,,,repeat,number,numRpt,k,0.4883,Lo,,,,,,5,,,,,,,,low,16,0,16,0,1,,,,,,,,,
294259,2022-09-25_22h44.52.607,vts_reward_expectancy,2022.2.4,MacIntel,59.99880002,Chrome,1440,900,,,,,10,1252,,,,,,,,,,,,,,,,,W,139,hexagon,1,0,,,,,,,,,,,,,,,,repeat,number,numRpt,j,0.483,Hi,,,,,,5,,,,,,,,low,17,0,17,0,1,,,,,,,,,
294259,2022-09-25_22h44.52.607,vts_reward_expectancy,2022.2.4,MacIntel,59.99880002,Chrome,1440,900,,,,,1,1253,,,,,,,,,,,,,,,,,U,160,hexagon,1,0,,,,,,,,,,,,,,,,repeat,number,numRpt,k,0.4789,Hi,,,,,,5,,,,,,,,low,18,0,18,0,1,,,,,,,,,
294259,2022-09-25_22h44.52.607,vts_reward_expectancy,2022.2.4,MacIntel,59.99880002,Chrome,1440,900,,,,,1,1254,,,,,,,,,,,,,,,,,H,146,triangle,1,0,,,,,,,,,,,,,,,,repeat,number,numRpt,j,0.5182,Lo,,,,,,5,,,,,,,,low,19,0,19,0,1,,,,,,,,,
294259,2022-09-25_22h44.52.607,vts_reward_expectancy,2022.2.4,MacIntel,59.99880002,Chrome,1440,900,,,,,1,1255,,,,,,,,,,,,,,,,,Y,125,hexagon,1,0,,,,,,,,,,,,,,,,repeat,number,numRpt,j,0.397,Hi,,,,,,5,,,,,,,,low,20,0,20,0,1,,,,,,,,,
294259,2022-09-25_22h44.52.607,vts_reward_expectancy,2022.2.4,MacIntel,59.99880002,Chrome,1440,900,,,,,10,1265,,,,,,,,,,,,,,,,,F,181,triangle,1,0,,,,,,,,,,,,,,,,repeat,number,numRpt,k,0.9809,Lo,,,,,,5,,,,,,,,low,21,0,21,0,1,,,,,,,,,
294259,2022-09-25_22h44.52.607,vts_reward_expectancy,2022.2.4,MacIntel,59.99880002,Chrome,1440,900,,,,,0,1265,,,,,,,,,,,,,,,,,D,132,hexagon,1,0,,,,,,,,,,,,,,,,repeat,number,numRpt,j,0.9333,Hi,,,,,,5,,,,,,,,low,22,0,22,0,1,,,,,,,,,
294259,2022-09-25_22h44.52.607,vts_reward_expectancy,2022.2.4,MacIntel,59.99880002,Chrome,1440,900,,,,,10,1275,,,,,,,,,,,,,,,,,B,174,triangle,1,0,,,,,,,,,,,,,,,,repeat,number,numRpt,k,0.9976,Lo,,,,,,5,,,,,,,,low,23,0,23,0,1,,,,,,,,,
294259,2022-09-25_22h44.52.607,vts_reward_expectancy,2022.2.4,MacIntel,59.99880002,Chrome,1440,900,,,,,1,1276,,,,,,,,,,,,,,,,,S,160,triangle,1,0,,,,,,,,,,,,,,,,repeat,number,numRpt,k,0.9676,Lo,,,,,,5,,,,,,,,low,24,0,24,0,1,,,,,,,,,
294259,2022-09-25_22h44.52.607,vts_reward_expectancy,2022.2.4,MacIntel,59.99880002,Chrome,1440,900,,,,,0,1276,,,,,,,,,,,,,,,,,B,139,hexagon,1,0,,,,,,,,,,,,,,,,switch,letter,lettSwt,d,0.5213,Hi,,,,,,5,,,,,,,,low,25,0,25,0,1,,,,,,,,,
294259,2022-09-25_22h44.52.607,vts_reward_expectancy,2022.2.4,MacIntel,59.99880002,Chrome,1440,900,,,,,0,1276,,,,,,,,,,,,,,,,,Y,146,hexagon,1,0,,,,,,,,,,,,,,,,repeat,letter,lettRpt,f,0.9837,Hi,,,,,,5,,,,,,,,low,26,0,26,0,1,,,,,,,,,
294259,2022-09-25_22h44.52.607,vts_reward_expectancy,2022.2.4,MacIntel,59.99880002,Chrome,1440,900,,,,,0,1276,,,,,,,,,,,,,,,,,U,167,triangle,0,0,,,,,,,,,,,,,,,,switch,number,NA,j,0.6128,Hi,,,,,,5,,,,,,,,low,27,0,27,0,1,,,,,,,,,
294259,2022-09-25_22h44.52.607,vts_reward_expectancy,2022.2.4,MacIntel,59.99880002,Chrome,1440,900,,,,,0,1276,,,,,,,,,,,,,,,,,W,132,hexagon,0,1,,,,,,,,,,,,,,,,switch,letter,NA,d,0.4132,Hi,,,,,,5,,,,,,,,low,28,0,28,0,1,,,,,,,,,
294259,2022-09-25_22h44.52.607,vts_reward_expectancy,2022.2.4,MacIntel,59.99880002,Chrome,1440,900,,,,,1,1277,,,,,,,,,,,,,,,,,D,181,triangle,1,1,,,,,,,,,,,,,,,,switch,number,numSwt,k,0.5479,Lo,,,,,,5,,,,,,,,low,29,0,29,0,1,,,,,,,,,
294259,2022-09-25_22h44.52.607,vts_reward_expectancy,2022.2.4,MacIntel,59.99880002,Chrome,1440,900,,,,,0,1277,,,,,,,,,,,,,,,,,H,125,hexagon,1,0,,,,,,,,,,,,,,,,repeat,number,numRpt,j,0.865,Hi,,,,,,5,,,,,,,,low,30,0,30,0,1,,,,,,,,,
294259,2022-09-25_22h44.52.607,vts_reward_expectancy,2022.2.4,MacIntel,59.99880002,Chrome,1440,900,,,,,10,1287,,,,,,,,,,,,,,,,,F,174,triangle,1,0,,,,,,,,,,,,,,,,switch,letter,lettSwt,d,0.914,Lo,,,,,,5,,,,,,,,low,31,0,31,0,1,,,,,,,,,
294259,2022-09-25_22h44.52.607,vts_reward_expectancy,2022.2.4,MacIntel,59.99880002,Chrome,1440,900,,,,,,,,,,,,,,,,,,,,,,,,,,,,,,,,,,,,,,,,,,,,,,,,,,,,,,6,,,,,,,,,,,,,,"I was asked to look at letters and numbers, if I chose to work with letters I had to press d if the letter was closer to A and f if the letter was closer to Z. If I chose to work with numbers I had to chose j if the number was below 153 and k if it was above.",1,,4,4,,2,1440,900
