participant,date,expName,psychopyVersion,OS,frameRate,browser,xResolution,yResolution,key_resp.keys,key_resp.rt,training_resp.keys,training_resp.rt,points_trial,points_cumul,trainBlock,training.thisRepN,training.thisTrialN,training.thisN,training.thisIndex,training.ran,LTriangleOpac,LCircleOpac,LHexagonOpac,LStarOpac,RTriangleOpac,RCircleOpac,RHexagonOpac,RStarOpac,LShape_ID,RShape_ID,curr_topStim,curr_bottStim,curr_shape,acc,E1,target_resp_prac1.keys,target_resp_prac1.rt,pracBlock,task1_prac_trials.thisRepN,task1_prac_trials.thisTrialN,task1_prac_trials.thisN,task1_prac_trials.thisIndex,task1_prac_trials.ran,target_resp_prac2.keys,task2_praac_trials.thisRepN,task2_praac_trials.thisTrialN,task2_praac_trials.thisN,task2_praac_trials.thisIndex,task2_praac_trials.ran,target_resp_prac2.rt,alt,task,condition,target_resp.keys,target_resp.rt,rewCond,vts_practice_trials.thisRepN,vts_practice_trials.thisTrialN,vts_practice_trials.thisN,vts_practice_trials.thisIndex,vts_practice_trials.ran,blockNum,trials_norew.thisRepN,trials_norew.thisTrialN,trials_norew.thisN,trials_norew.thisIndex,trials_norew.ran,key_resp_2.keys,key_resp_2.rt,rewExpect,trials_rew.thisRepN,trials_rew.thisTrialN,trials_rew.thisN,trials_rew.thisIndex,trials_rew.ran,Q1,Q2,Q2_text,Q3,Q4,Q5_text,Q5,xRes,yRes
296377,2022-10-02_11h43.29.056,vts_reward_expectancy,2022.2.4,MacIntel,59.99160118,Chrome,1440,900,,,,,,,,,,,,,,,,,,,,,,,,,,,,,,,,,,,,,,,,,,,,,,,,,,,,,,,,,,,,,,,,,,,,,,,,,,,,
296377,2022-10-02_11h43.29.056,vts_reward_expectancy,2022.2.4,MacIntel,59.99160118,Chrome,1440,900,space,8.5505,,,,,,,,,,,,,,,,,,,,,,,,,,,,,,,,,,,,,,,,,,,,,,,,,,,,,,,,,,,,,,,,,,,,,,,,,,
296377,2022-10-02_11h43.29.056,vts_reward_expectancy,2022.2.4,MacIntel,59.99160118,Chrome,1440,900,,,,,,,,,,,,,,,,,,,,,,,,,,,,,,,,,,,,,,,,,,,,,,,,,,,,,,,,,,,,,,,,,,,,,,,,,,,,
296377,2022-10-02_11h43.29.056,vts_reward_expectancy,2022.2.4,MacIntel,59.99160118,Chrome,1440,900,,,l,2.5096,1,1,0,0,0,0,1,1,1,0,0,0,0,0,1,0,triangle,hexagon,,,,,,,,,,,,,,,,,,,,,,,,,,,,,,,,,,,,,,,,,,,,,,,,,,,,,,
296377,2022-10-02_11h43.29.056,vts_reward_expectancy,2022.2.4,MacIntel,59.99160118,Chrome,1440,900,,,l,1.3478,1,2,0,0,1,1,7,1,0,0,1,0,0,1,0,0,hexagon,circle,,,,,,,,,,,,,,,,,,,,,,,,,,,,,,,,,,,,,,,,,,,,,,,,,,,,,,
296377,2022-10-02_11h43.29.056,vts_reward_expectancy,2022.2.4,MacIntel,59.99160118,Chrome,1440,900,,,l,0.8101,1,3,0,0,2,2,3,1,0,1,0,0,1,0,0,0,circle,triangle,,,,,,,,,,,,,,,,,,,,,,,,,,,,,,,,,,,,,,,,,,,,,,,,,,,,,,
296377,2022-10-02_11h43.29.056,vts_reward_expectancy,2022.2.4,MacIntel,59.99160118,Chrome,1440,900,,,a,0.898,1,4,0,0,3,3,0,1,1,0,0,0,0,1,0,0,triangle,circle,,,,,,,,,,,,,,,,,,,,,,,,,,,,,,,,,,,,,,,,,,,,,,,,,,,,,,
296377,2022-10-02_11h43.29.056,vts_reward_expectancy,2022.2.4,MacIntel,59.99160118,Chrome,1440,900,,,l,3.2982,1,5,0,0,4,4,9,1,0,0,0,1,1,0,0,0,star,triangle,,,,,,,,,,,,,,,,,,,,,,,,,,,,,,,,,,,,,,,,,,,,,,,,,,,,,,
296377,2022-10-02_11h43.29.056,vts_reward_expectancy,2022.2.4,MacIntel,59.99160118,Chrome,1440,900,,,l,1.0525,10,15,0,0,5,5,4,1,0,1,0,0,0,0,1,0,circle,hexagon,,,,,,,,,,,,,,,,,,,,,,,,,,,,,,,,,,,,,,,,,,,,,,,,,,,,,,
296377,2022-10-02_11h43.29.056,vts_reward_expectancy,2022.2.4,MacIntel,59.99160118,Chrome,1440,900,,,l,0.8162,1,16,0,0,6,6,5,1,0,1,0,0,0,0,0,1,circle,star,,,,,,,,,,,,,,,,,,,,,,,,,,,,,,,,,,,,,,,,,,,,,,,,,,,,,,
296377,2022-10-02_11h43.29.056,vts_reward_expectancy,2022.2.4,MacIntel,59.99160118,Chrome,1440,900,,,a,1.336,10,26,0,0,7,7,11,1,0,0,0,1,0,0,1,0,star,hexagon,,,,,,,,,,,,,,,,,,,,,,,,,,,,,,,,,,,,,,,,,,,,,,,,,,,,,,
296377,2022-10-02_11h43.29.056,vts_reward_expectancy,2022.2.4,MacIntel,59.99160118,Chrome,1440,900,,,l,1.3442,10,36,0,0,8,8,10,1,0,0,0,1,0,1,0,0,star ,circle,,,,,,,,,,,,,,,,,,,,,,,,,,,,,,,,,,,,,,,,,,,,,,,,,,,,,,
296377,2022-10-02_11h43.29.056,vts_reward_expectancy,2022.2.4,MacIntel,59.99160118,Chrome,1440,900,,,a,1.13,1,37,0,0,9,9,6,1,0,0,1,0,1,0,0,0,hexagon,triangle,,,,,,,,,,,,,,,,,,,,,,,,,,,,,,,,,,,,,,,,,,,,,,,,,,,,,,
296377,2022-10-02_11h43.29.056,vts_reward_expectancy,2022.2.4,MacIntel,59.99160118,Chrome,1440,900,,,l,0.7042,1,38,0,0,10,10,2,1,1,0,0,0,0,0,0,1,triangle,star,,,,,,,,,,,,,,,,,,,,,,,,,,,,,,,,,,,,,,,,,,,,,,,,,,,,,,
296377,2022-10-02_11h43.29.056,vts_reward_expectancy,2022.2.4,MacIntel,59.99160118,Chrome,1440,900,,,l,0.715,1,39,0,0,11,11,8,1,0,0,1,0,0,0,0,1,hexagon,star,,,,,,,,,,,,,,,,,,,,,,,,,,,,,,,,,,,,,,,,,,,,,,,,,,,,,,
296377,2022-10-02_11h43.29.056,vts_reward_expectancy,2022.2.4,MacIntel,59.99160118,Chrome,1440,900,,,a,1.7784,1,40,0,1,0,12,1,1,1,0,0,0,0,0,1,0,triangle,hexagon,,,,,,,,,,,,,,,,,,,,,,,,,,,,,,,,,,,,,,,,,,,,,,,,,,,,,,
296377,2022-10-02_11h43.29.056,vts_reward_expectancy,2022.2.4,MacIntel,59.99160118,Chrome,1440,900,,,l,0.9645,1,41,0,1,1,13,4,1,0,1,0,0,0,0,1,0,circle,hexagon,,,,,,,,,,,,,,,,,,,,,,,,,,,,,,,,,,,,,,,,,,,,,,,,,,,,,,
296377,2022-10-02_11h43.29.056,vts_reward_expectancy,2022.2.4,MacIntel,59.99160118,Chrome,1440,900,,,l,0.6813,10,51,0,1,2,14,8,1,0,0,1,0,0,0,0,1,hexagon,star,,,,,,,,,,,,,,,,,,,,,,,,,,,,,,,,,,,,,,,,,,,,,,,,,,,,,,
296377,2022-10-02_11h43.29.056,vts_reward_expectancy,2022.2.4,MacIntel,59.99160118,Chrome,1440,900,,,a,1.0974,10,61,0,1,3,15,10,1,0,0,0,1,0,1,0,0,star ,circle,,,,,,,,,,,,,,,,,,,,,,,,,,,,,,,,,,,,,,,,,,,,,,,,,,,,,,
296377,2022-10-02_11h43.29.056,vts_reward_expectancy,2022.2.4,MacIntel,59.99160118,Chrome,1440,900,,,l,0.5958,10,71,0,1,4,16,5,1,0,1,0,0,0,0,0,1,circle,star,,,,,,,,,,,,,,,,,,,,,,,,,,,,,,,,,,,,,,,,,,,,,,,,,,,,,,
296377,2022-10-02_11h43.29.056,vts_reward_expectancy,2022.2.4,MacIntel,59.99160118,Chrome,1440,900,,,l,0.5723,1,72,0,1,5,17,2,1,1,0,0,0,0,0,0,1,triangle,star,,,,,,,,,,,,,,,,,,,,,,,,,,,,,,,,,,,,,,,,,,,,,,,,,,,,,,
296377,2022-10-02_11h43.29.056,vts_reward_expectancy,2022.2.4,MacIntel,59.99160118,Chrome,1440,900,,,l,0.5976,10,82,0,1,6,18,3,1,0,1,0,0,1,0,0,0,circle,triangle,,,,,,,,,,,,,,,,,,,,,,,,,,,,,,,,,,,,,,,,,,,,,,,,,,,,,,
296377,2022-10-02_11h43.29.056,vts_reward_expectancy,2022.2.4,MacIntel,59.99160118,Chrome,1440,900,,,a,0.6773,10,92,0,1,7,19,0,1,1,0,0,0,0,1,0,0,triangle,circle,,,,,,,,,,,,,,,,,,,,,,,,,,,,,,,,,,,,,,,,,,,,,,,,,,,,,,
296377,2022-10-02_11h43.29.056,vts_reward_expectancy,2022.2.4,MacIntel,59.99160118,Chrome,1440,900,,,l,1.1212,1,93,0,1,8,20,9,1,0,0,0,1,1,0,0,0,star,triangle,,,,,,,,,,,,,,,,,,,,,,,,,,,,,,,,,,,,,,,,,,,,,,,,,,,,,,
296377,2022-10-02_11h43.29.056,vts_reward_expectancy,2022.2.4,MacIntel,59.99160118,Chrome,1440,900,,,l,0.7593,1,94,0,1,9,21,6,1,0,0,1,0,1,0,0,0,hexagon,triangle,,,,,,,,,,,,,,,,,,,,,,,,,,,,,,,,,,,,,,,,,,,,,,,,,,,,,,
296377,2022-10-02_11h43.29.056,vts_reward_expectancy,2022.2.4,MacIntel,59.99160118,Chrome,1440,900,,,a,0.9179,10,104,0,1,10,22,11,1,0,0,0,1,0,0,1,0,star,hexagon,,,,,,,,,,,,,,,,,,,,,,,,,,,,,,,,,,,,,,,,,,,,,,,,,,,,,,
296377,2022-10-02_11h43.29.056,vts_reward_expectancy,2022.2.4,MacIntel,59.99160118,Chrome,1440,900,,,l,1.4854,10,114,0,1,11,23,7,1,0,0,1,0,0,1,0,0,hexagon,circle,,,,,,,,,,,,,,,,,,,,,,,,,,,,,,,,,,,,,,,,,,,,,,,,,,,,,,
296377,2022-10-02_11h43.29.056,vts_reward_expectancy,2022.2.4,MacIntel,59.99160118,Chrome,1440,900,,,a,1.1856,1,115,0,2,0,24,7,1,0,0,1,0,0,1,0,0,hexagon,circle,,,,,,,,,,,,,,,,,,,,,,,,,,,,,,,,,,,,,,,,,,,,,,,,,,,,,,
296377,2022-10-02_11h43.29.056,vts_reward_expectancy,2022.2.4,MacIntel,59.99160118,Chrome,1440,900,,,a,1.3367,1,116,0,2,1,25,1,1,1,0,0,0,0,0,1,0,triangle,hexagon,,,,,,,,,,,,,,,,,,,,,,,,,,,,,,,,,,,,,,,,,,,,,,,,,,,,,,
296377,2022-10-02_11h43.29.056,vts_reward_expectancy,2022.2.4,MacIntel,59.99160118,Chrome,1440,900,,,l,3.8307,10,126,0,2,2,26,0,1,1,0,0,0,0,1,0,0,triangle,circle,,,,,,,,,,,,,,,,,,,,,,,,,,,,,,,,,,,,,,,,,,,,,,,,,,,,,,
296377,2022-10-02_11h43.29.056,vts_reward_expectancy,2022.2.4,MacIntel,59.99160118,Chrome,1440,900,,,l,0.2701,1,127,0,2,3,27,9,1,0,0,0,1,1,0,0,0,star,triangle,,,,,,,,,,,,,,,,,,,,,,,,,,,,,,,,,,,,,,,,,,,,,,,,,,,,,,
296377,2022-10-02_11h43.29.056,vts_reward_expectancy,2022.2.4,MacIntel,59.99160118,Chrome,1440,900,,,l,0.1284,1,128,0,2,4,28,4,1,0,1,0,0,0,0,1,0,circle,hexagon,,,,,,,,,,,,,,,,,,,,,,,,,,,,,,,,,,,,,,,,,,,,,,,,,,,,,,
296377,2022-10-02_11h43.29.056,vts_reward_expectancy,2022.2.4,MacIntel,59.99160118,Chrome,1440,900,,,a,1.6178,10,138,0,2,5,29,11,1,0,0,0,1,0,0,1,0,star,hexagon,,,,,,,,,,,,,,,,,,,,,,,,,,,,,,,,,,,,,,,,,,,,,,,,,,,,,,
296377,2022-10-02_11h43.29.056,vts_reward_expectancy,2022.2.4,MacIntel,59.99160118,Chrome,1440,900,,,l,0.929,1,139,0,2,6,30,3,1,0,1,0,0,1,0,0,0,circle,triangle,,,,,,,,,,,,,,,,,,,,,,,,,,,,,,,,,,,,,,,,,,,,,,,,,,,,,,
296377,2022-10-02_11h43.29.056,vts_reward_expectancy,2022.2.4,MacIntel,59.99160118,Chrome,1440,900,,,a,0.7189,10,149,0,2,7,31,6,1,0,0,1,0,1,0,0,0,hexagon,triangle,,,,,,,,,,,,,,,,,,,,,,,,,,,,,,,,,,,,,,,,,,,,,,,,,,,,,,
296377,2022-10-02_11h43.29.056,vts_reward_expectancy,2022.2.4,MacIntel,59.99160118,Chrome,1440,900,,,a,0.8337,1,150,0,2,8,32,2,1,1,0,0,0,0,0,0,1,triangle,star,,,,,,,,,,,,,,,,,,,,,,,,,,,,,,,,,,,,,,,,,,,,,,,,,,,,,,
296377,2022-10-02_11h43.29.056,vts_reward_expectancy,2022.2.4,MacIntel,59.99160118,Chrome,1440,900,,,a,0.5862,1,151,0,2,9,33,10,1,0,0,0,1,0,1,0,0,star ,circle,,,,,,,,,,,,,,,,,,,,,,,,,,,,,,,,,,,,,,,,,,,,,,,,,,,,,,
296377,2022-10-02_11h43.29.056,vts_reward_expectancy,2022.2.4,MacIntel,59.99160118,Chrome,1440,900,,,a,1.2068,10,161,0,2,10,34,5,1,0,1,0,0,0,0,0,1,circle,star,,,,,,,,,,,,,,,,,,,,,,,,,,,,,,,,,,,,,,,,,,,,,,,,,,,,,,
296377,2022-10-02_11h43.29.056,vts_reward_expectancy,2022.2.4,MacIntel,59.99160118,Chrome,1440,900,,,l,0.86,10,171,0,2,11,35,8,1,0,0,1,0,0,0,0,1,hexagon,star,,,,,,,,,,,,,,,,,,,,,,,,,,,,,,,,,,,,,,,,,,,,,,,,,,,,,,
296377,2022-10-02_11h43.29.056,vts_reward_expectancy,2022.2.4,MacIntel,59.99160118,Chrome,1440,900,,,a,0.8654,10,181,1,0,0,0,10,1,0,0,0,1,0,1,0,0,star ,circle,,,,,,,,,,,,,,,,,,,,,,,,,,,,,,,,,,,,,,,,,,,,,,,,,,,,,,
296377,2022-10-02_11h43.29.056,vts_reward_expectancy,2022.2.4,MacIntel,59.99160118,Chrome,1440,900,,,l,0.5785,1,182,1,0,1,1,5,1,0,1,0,0,0,0,0,1,circle,star,,,,,,,,,,,,,,,,,,,,,,,,,,,,,,,,,,,,,,,,,,,,,,,,,,,,,,
296377,2022-10-02_11h43.29.056,vts_reward_expectancy,2022.2.4,MacIntel,59.99160118,Chrome,1440,900,,,a,1.0264,10,192,1,0,2,2,4,1,0,1,0,0,0,0,1,0,circle,hexagon,,,,,,,,,,,,,,,,,,,,,,,,,,,,,,,,,,,,,,,,,,,,,,,,,,,,,,
296377,2022-10-02_11h43.29.056,vts_reward_expectancy,2022.2.4,MacIntel,59.99160118,Chrome,1440,900,,,a,0.7096,1,193,1,0,3,3,7,1,0,0,1,0,0,1,0,0,hexagon,circle,,,,,,,,,,,,,,,,,,,,,,,,,,,,,,,,,,,,,,,,,,,,,,,,,,,,,,
296377,2022-10-02_11h43.29.056,vts_reward_expectancy,2022.2.4,MacIntel,59.99160118,Chrome,1440,900,,,a,0.5537,10,203,1,0,4,4,11,1,0,0,0,1,0,0,1,0,star,hexagon,,,,,,,,,,,,,,,,,,,,,,,,,,,,,,,,,,,,,,,,,,,,,,,,,,,,,,
296377,2022-10-02_11h43.29.056,vts_reward_expectancy,2022.2.4,MacIntel,59.99160118,Chrome,1440,900,,,l,0.7,1,204,1,0,5,5,1,1,1,0,0,0,0,0,1,0,triangle,hexagon,,,,,,,,,,,,,,,,,,,,,,,,,,,,,,,,,,,,,,,,,,,,,,,,,,,,,,
296377,2022-10-02_11h43.29.056,vts_reward_expectancy,2022.2.4,MacIntel,59.99160118,Chrome,1440,900,,,l,0.9789,10,214,1,0,6,6,2,1,1,0,0,0,0,0,0,1,triangle,star,,,,,,,,,,,,,,,,,,,,,,,,,,,,,,,,,,,,,,,,,,,,,,,,,,,,,,
296377,2022-10-02_11h43.29.056,vts_reward_expectancy,2022.2.4,MacIntel,59.99160118,Chrome,1440,900,,,a,0.7905,10,224,1,0,7,7,9,1,0,0,0,1,1,0,0,0,star,triangle,,,,,,,,,,,,,,,,,,,,,,,,,,,,,,,,,,,,,,,,,,,,,,,,,,,,,,
296377,2022-10-02_11h43.29.056,vts_reward_expectancy,2022.2.4,MacIntel,59.99160118,Chrome,1440,900,,,l,1.8675,10,234,1,0,8,8,0,1,1,0,0,0,0,1,0,0,triangle,circle,,,,,,,,,,,,,,,,,,,,,,,,,,,,,,,,,,,,,,,,,,,,,,,,,,,,,,
296377,2022-10-02_11h43.29.056,vts_reward_expectancy,2022.2.4,MacIntel,59.99160118,Chrome,1440,900,,,l,0.7681,10,244,1,0,9,9,8,1,0,0,1,0,0,0,0,1,hexagon,star,,,,,,,,,,,,,,,,,,,,,,,,,,,,,,,,,,,,,,,,,,,,,,,,,,,,,,
296377,2022-10-02_11h43.29.056,vts_reward_expectancy,2022.2.4,MacIntel,59.99160118,Chrome,1440,900,,,a,0.7007,1,245,1,0,10,10,6,1,0,0,1,0,1,0,0,0,hexagon,triangle,,,,,,,,,,,,,,,,,,,,,,,,,,,,,,,,,,,,,,,,,,,,,,,,,,,,,,
296377,2022-10-02_11h43.29.056,vts_reward_expectancy,2022.2.4,MacIntel,59.99160118,Chrome,1440,900,,,a,1.1991,10,255,1,0,11,11,3,1,0,1,0,0,1,0,0,0,circle,triangle,,,,,,,,,,,,,,,,,,,,,,,,,,,,,,,,,,,,,,,,,,,,,,,,,,,,,,
296377,2022-10-02_11h43.29.056,vts_reward_expectancy,2022.2.4,MacIntel,59.99160118,Chrome,1440,900,,,a,0.9114,1,256,1,1,0,12,11,1,0,0,0,1,0,0,1,0,star,hexagon,,,,,,,,,,,,,,,,,,,,,,,,,,,,,,,,,,,,,,,,,,,,,,,,,,,,,,
296377,2022-10-02_11h43.29.056,vts_reward_expectancy,2022.2.4,MacIntel,59.99160118,Chrome,1440,900,,,a,1.0386,10,266,1,1,1,13,6,1,0,0,1,0,1,0,0,0,hexagon,triangle,,,,,,,,,,,,,,,,,,,,,,,,,,,,,,,,,,,,,,,,,,,,,,,,,,,,,,
296377,2022-10-02_11h43.29.056,vts_reward_expectancy,2022.2.4,MacIntel,59.99160118,Chrome,1440,900,,,a,1.7852,10,276,1,1,2,14,3,1,0,1,0,0,1,0,0,0,circle,triangle,,,,,,,,,,,,,,,,,,,,,,,,,,,,,,,,,,,,,,,,,,,,,,,,,,,,,,
296377,2022-10-02_11h43.29.056,vts_reward_expectancy,2022.2.4,MacIntel,59.99160118,Chrome,1440,900,,,a,0.678,1,277,1,1,3,15,9,1,0,0,0,1,1,0,0,0,star,triangle,,,,,,,,,,,,,,,,,,,,,,,,,,,,,,,,,,,,,,,,,,,,,,,,,,,,,,
296377,2022-10-02_11h43.29.056,vts_reward_expectancy,2022.2.4,MacIntel,59.99160118,Chrome,1440,900,,,l,0.6649,10,287,1,1,4,16,8,1,0,0,1,0,0,0,0,1,hexagon,star,,,,,,,,,,,,,,,,,,,,,,,,,,,,,,,,,,,,,,,,,,,,,,,,,,,,,,
296377,2022-10-02_11h43.29.056,vts_reward_expectancy,2022.2.4,MacIntel,59.99160118,Chrome,1440,900,,,a,2.9309,1,288,1,1,5,17,4,1,0,1,0,0,0,0,1,0,circle,hexagon,,,,,,,,,,,,,,,,,,,,,,,,,,,,,,,,,,,,,,,,,,,,,,,,,,,,,,
296377,2022-10-02_11h43.29.056,vts_reward_expectancy,2022.2.4,MacIntel,59.99160118,Chrome,1440,900,,,l,1.0998,1,289,1,1,6,18,0,1,1,0,0,0,0,1,0,0,triangle,circle,,,,,,,,,,,,,,,,,,,,,,,,,,,,,,,,,,,,,,,,,,,,,,,,,,,,,,
296377,2022-10-02_11h43.29.056,vts_reward_expectancy,2022.2.4,MacIntel,59.99160118,Chrome,1440,900,,,a,0.7374,10,299,1,1,7,19,5,1,0,1,0,0,0,0,0,1,circle,star,,,,,,,,,,,,,,,,,,,,,,,,,,,,,,,,,,,,,,,,,,,,,,,,,,,,,,
296377,2022-10-02_11h43.29.056,vts_reward_expectancy,2022.2.4,MacIntel,59.99160118,Chrome,1440,900,,,a,1.346,10,309,1,1,8,20,7,1,0,0,1,0,0,1,0,0,hexagon,circle,,,,,,,,,,,,,,,,,,,,,,,,,,,,,,,,,,,,,,,,,,,,,,,,,,,,,,
296377,2022-10-02_11h43.29.056,vts_reward_expectancy,2022.2.4,MacIntel,59.99160118,Chrome,1440,900,,,l,4.7053,10,319,1,1,9,21,2,1,1,0,0,0,0,0,0,1,triangle,star,,,,,,,,,,,,,,,,,,,,,,,,,,,,,,,,,,,,,,,,,,,,,,,,,,,,,,
296377,2022-10-02_11h43.29.056,vts_reward_expectancy,2022.2.4,MacIntel,59.99160118,Chrome,1440,900,,,l,3.421,10,329,1,1,10,22,1,1,1,0,0,0,0,0,1,0,triangle,hexagon,,,,,,,,,,,,,,,,,,,,,,,,,,,,,,,,,,,,,,,,,,,,,,,,,,,,,,
296377,2022-10-02_11h43.29.056,vts_reward_expectancy,2022.2.4,MacIntel,59.99160118,Chrome,1440,900,,,a,3.3661,10,339,1,1,11,23,10,1,0,0,0,1,0,1,0,0,star ,circle,,,,,,,,,,,,,,,,,,,,,,,,,,,,,,,,,,,,,,,,,,,,,,,,,,,,,,
296377,2022-10-02_11h43.29.056,vts_reward_expectancy,2022.2.4,MacIntel,59.99160118,Chrome,1440,900,,,l,1.0234,10,349,1,2,0,24,1,1,1,0,0,0,0,0,1,0,triangle,hexagon,,,,,,,,,,,,,,,,,,,,,,,,,,,,,,,,,,,,,,,,,,,,,,,,,,,,,,
296377,2022-10-02_11h43.29.056,vts_reward_expectancy,2022.2.4,MacIntel,59.99160118,Chrome,1440,900,,,a,0.6757,10,359,1,2,1,25,9,1,0,0,0,1,1,0,0,0,star,triangle,,,,,,,,,,,,,,,,,,,,,,,,,,,,,,,,,,,,,,,,,,,,,,,,,,,,,,
296377,2022-10-02_11h43.29.056,vts_reward_expectancy,2022.2.4,MacIntel,59.99160118,Chrome,1440,900,,,l,0.702,10,369,1,2,2,26,8,1,0,0,1,0,0,0,0,1,hexagon,star,,,,,,,,,,,,,,,,,,,,,,,,,,,,,,,,,,,,,,,,,,,,,,,,,,,,,,
296377,2022-10-02_11h43.29.056,vts_reward_expectancy,2022.2.4,MacIntel,59.99160118,Chrome,1440,900,,,a,0.7799,10,379,1,2,3,27,7,1,0,0,1,0,0,1,0,0,hexagon,circle,,,,,,,,,,,,,,,,,,,,,,,,,,,,,,,,,,,,,,,,,,,,,,,,,,,,,,
296377,2022-10-02_11h43.29.056,vts_reward_expectancy,2022.2.4,MacIntel,59.99160118,Chrome,1440,900,,,l,0.6059,10,389,1,2,4,28,5,1,0,1,0,0,0,0,0,1,circle,star,,,,,,,,,,,,,,,,,,,,,,,,,,,,,,,,,,,,,,,,,,,,,,,,,,,,,,
296377,2022-10-02_11h43.29.056,vts_reward_expectancy,2022.2.4,MacIntel,59.99160118,Chrome,1440,900,,,l,1.4918,1,390,1,2,5,29,3,1,0,1,0,0,1,0,0,0,circle,triangle,,,,,,,,,,,,,,,,,,,,,,,,,,,,,,,,,,,,,,,,,,,,,,,,,,,,,,
296377,2022-10-02_11h43.29.056,vts_reward_expectancy,2022.2.4,MacIntel,59.99160118,Chrome,1440,900,,,a,0.7926,1,391,1,2,6,30,6,1,0,0,1,0,1,0,0,0,hexagon,triangle,,,,,,,,,,,,,,,,,,,,,,,,,,,,,,,,,,,,,,,,,,,,,,,,,,,,,,
296377,2022-10-02_11h43.29.056,vts_reward_expectancy,2022.2.4,MacIntel,59.99160118,Chrome,1440,900,,,l,1.4495,10,401,1,2,7,31,4,1,0,1,0,0,0,0,1,0,circle,hexagon,,,,,,,,,,,,,,,,,,,,,,,,,,,,,,,,,,,,,,,,,,,,,,,,,,,,,,
296377,2022-10-02_11h43.29.056,vts_reward_expectancy,2022.2.4,MacIntel,59.99160118,Chrome,1440,900,,,l,0.6574,1,402,1,2,8,32,0,1,1,0,0,0,0,1,0,0,triangle,circle,,,,,,,,,,,,,,,,,,,,,,,,,,,,,,,,,,,,,,,,,,,,,,,,,,,,,,
296377,2022-10-02_11h43.29.056,vts_reward_expectancy,2022.2.4,MacIntel,59.99160118,Chrome,1440,900,,,l,0.8234,1,403,1,2,9,33,2,1,1,0,0,0,0,0,0,1,triangle,star,,,,,,,,,,,,,,,,,,,,,,,,,,,,,,,,,,,,,,,,,,,,,,,,,,,,,,
296377,2022-10-02_11h43.29.056,vts_reward_expectancy,2022.2.4,MacIntel,59.99160118,Chrome,1440,900,,,a,0.5735,1,404,1,2,10,34,11,1,0,0,0,1,0,0,1,0,star,hexagon,,,,,,,,,,,,,,,,,,,,,,,,,,,,,,,,,,,,,,,,,,,,,,,,,,,,,,
296377,2022-10-02_11h43.29.056,vts_reward_expectancy,2022.2.4,MacIntel,59.99160118,Chrome,1440,900,,,a,0.6908,1,405,1,2,11,35,10,1,0,0,0,1,0,1,0,0,star ,circle,,,,,,,,,,,,,,,,,,,,,,,,,,,,,,,,,,,,,,,,,,,,,,,,,,,,,,
296377,2022-10-02_11h43.29.056,vts_reward_expectancy,2022.2.4,MacIntel,59.99160118,Chrome,1440,900,,,l,0.6841,10,415,2,0,0,0,4,1,0,1,0,0,0,0,1,0,circle,hexagon,,,,,,,,,,,,,,,,,,,,,,,,,,,,,,,,,,,,,,,,,,,,,,,,,,,,,,
296377,2022-10-02_11h43.29.056,vts_reward_expectancy,2022.2.4,MacIntel,59.99160118,Chrome,1440,900,,,l,0.5534,1,416,2,0,1,1,1,1,1,0,0,0,0,0,1,0,triangle,hexagon,,,,,,,,,,,,,,,,,,,,,,,,,,,,,,,,,,,,,,,,,,,,,,,,,,,,,,
296377,2022-10-02_11h43.29.056,vts_reward_expectancy,2022.2.4,MacIntel,59.99160118,Chrome,1440,900,,,a,0.5972,10,426,2,0,2,2,11,1,0,0,0,1,0,0,1,0,star,hexagon,,,,,,,,,,,,,,,,,,,,,,,,,,,,,,,,,,,,,,,,,,,,,,,,,,,,,,
296377,2022-10-02_11h43.29.056,vts_reward_expectancy,2022.2.4,MacIntel,59.99160118,Chrome,1440,900,,,l,0.5037,10,436,2,0,3,3,2,1,1,0,0,0,0,0,0,1,triangle,star,,,,,,,,,,,,,,,,,,,,,,,,,,,,,,,,,,,,,,,,,,,,,,,,,,,,,,
296377,2022-10-02_11h43.29.056,vts_reward_expectancy,2022.2.4,MacIntel,59.99160118,Chrome,1440,900,,,a,1.101,10,446,2,0,4,4,3,1,0,1,0,0,1,0,0,0,circle,triangle,,,,,,,,,,,,,,,,,,,,,,,,,,,,,,,,,,,,,,,,,,,,,,,,,,,,,,
296377,2022-10-02_11h43.29.056,vts_reward_expectancy,2022.2.4,MacIntel,59.99160118,Chrome,1440,900,,,a,1.1665,1,447,2,0,5,5,7,1,0,0,1,0,0,1,0,0,hexagon,circle,,,,,,,,,,,,,,,,,,,,,,,,,,,,,,,,,,,,,,,,,,,,,,,,,,,,,,
296377,2022-10-02_11h43.29.056,vts_reward_expectancy,2022.2.4,MacIntel,59.99160118,Chrome,1440,900,,,a,0.6992,1,448,2,0,6,6,10,1,0,0,0,1,0,1,0,0,star ,circle,,,,,,,,,,,,,,,,,,,,,,,,,,,,,,,,,,,,,,,,,,,,,,,,,,,,,,
296377,2022-10-02_11h43.29.056,vts_reward_expectancy,2022.2.4,MacIntel,59.99160118,Chrome,1440,900,,,l,0.6746,10,458,2,0,7,7,8,1,0,0,1,0,0,0,0,1,hexagon,star,,,,,,,,,,,,,,,,,,,,,,,,,,,,,,,,,,,,,,,,,,,,,,,,,,,,,,
296377,2022-10-02_11h43.29.056,vts_reward_expectancy,2022.2.4,MacIntel,59.99160118,Chrome,1440,900,,,a,0.7169,10,468,2,0,8,8,6,1,0,0,1,0,1,0,0,0,hexagon,triangle,,,,,,,,,,,,,,,,,,,,,,,,,,,,,,,,,,,,,,,,,,,,,,,,,,,,,,
296377,2022-10-02_11h43.29.056,vts_reward_expectancy,2022.2.4,MacIntel,59.99160118,Chrome,1440,900,,,a,0.6782,1,469,2,0,9,9,9,1,0,0,0,1,1,0,0,0,star,triangle,,,,,,,,,,,,,,,,,,,,,,,,,,,,,,,,,,,,,,,,,,,,,,,,,,,,,,
296377,2022-10-02_11h43.29.056,vts_reward_expectancy,2022.2.4,MacIntel,59.99160118,Chrome,1440,900,,,l,0.6983,1,470,2,0,10,10,5,1,0,1,0,0,0,0,0,1,circle,star,,,,,,,,,,,,,,,,,,,,,,,,,,,,,,,,,,,,,,,,,,,,,,,,,,,,,,
296377,2022-10-02_11h43.29.056,vts_reward_expectancy,2022.2.4,MacIntel,59.99160118,Chrome,1440,900,,,l,1.044,10,480,2,0,11,11,0,1,1,0,0,0,0,1,0,0,triangle,circle,,,,,,,,,,,,,,,,,,,,,,,,,,,,,,,,,,,,,,,,,,,,,,,,,,,,,,
296377,2022-10-02_11h43.29.056,vts_reward_expectancy,2022.2.4,MacIntel,59.99160118,Chrome,1440,900,,,l,0.4675,1,481,2,1,0,12,0,1,1,0,0,0,0,1,0,0,triangle,circle,,,,,,,,,,,,,,,,,,,,,,,,,,,,,,,,,,,,,,,,,,,,,,,,,,,,,,
296377,2022-10-02_11h43.29.056,vts_reward_expectancy,2022.2.4,MacIntel,59.99160118,Chrome,1440,900,,,a,0.8534,10,491,2,1,1,13,11,1,0,0,0,1,0,0,1,0,star,hexagon,,,,,,,,,,,,,,,,,,,,,,,,,,,,,,,,,,,,,,,,,,,,,,,,,,,,,,
296377,2022-10-02_11h43.29.056,vts_reward_expectancy,2022.2.4,MacIntel,59.99160118,Chrome,1440,900,,,a,1.0897,10,501,2,1,2,14,5,1,0,1,0,0,0,0,0,1,circle,star,,,,,,,,,,,,,,,,,,,,,,,,,,,,,,,,,,,,,,,,,,,,,,,,,,,,,,
296377,2022-10-02_11h43.29.056,vts_reward_expectancy,2022.2.4,MacIntel,59.99160118,Chrome,1440,900,,,a,1.2536,1,502,2,1,3,15,6,1,0,0,1,0,1,0,0,0,hexagon,triangle,,,,,,,,,,,,,,,,,,,,,,,,,,,,,,,,,,,,,,,,,,,,,,,,,,,,,,
296377,2022-10-02_11h43.29.056,vts_reward_expectancy,2022.2.4,MacIntel,59.99160118,Chrome,1440,900,,,l,1.0848,10,512,2,1,4,16,10,1,0,0,0,1,0,1,0,0,star ,circle,,,,,,,,,,,,,,,,,,,,,,,,,,,,,,,,,,,,,,,,,,,,,,,,,,,,,,
296377,2022-10-02_11h43.29.056,vts_reward_expectancy,2022.2.4,MacIntel,59.99160118,Chrome,1440,900,,,a,1.5057,10,522,2,1,5,17,7,1,0,0,1,0,0,1,0,0,hexagon,circle,,,,,,,,,,,,,,,,,,,,,,,,,,,,,,,,,,,,,,,,,,,,,,,,,,,,,,
296377,2022-10-02_11h43.29.056,vts_reward_expectancy,2022.2.4,MacIntel,59.99160118,Chrome,1440,900,,,l,1.0037,10,532,2,1,6,18,8,1,0,0,1,0,0,0,0,1,hexagon,star,,,,,,,,,,,,,,,,,,,,,,,,,,,,,,,,,,,,,,,,,,,,,,,,,,,,,,
296377,2022-10-02_11h43.29.056,vts_reward_expectancy,2022.2.4,MacIntel,59.99160118,Chrome,1440,900,,,a,1.0692,10,542,2,1,7,19,3,1,0,1,0,0,1,0,0,0,circle,triangle,,,,,,,,,,,,,,,,,,,,,,,,,,,,,,,,,,,,,,,,,,,,,,,,,,,,,,
296377,2022-10-02_11h43.29.056,vts_reward_expectancy,2022.2.4,MacIntel,59.99160118,Chrome,1440,900,,,l,0.8335,1,543,2,1,8,20,4,1,0,1,0,0,0,0,1,0,circle,hexagon,,,,,,,,,,,,,,,,,,,,,,,,,,,,,,,,,,,,,,,,,,,,,,,,,,,,,,
296377,2022-10-02_11h43.29.056,vts_reward_expectancy,2022.2.4,MacIntel,59.99160118,Chrome,1440,900,,,a,0.6916,1,544,2,1,9,21,9,1,0,0,0,1,1,0,0,0,star,triangle,,,,,,,,,,,,,,,,,,,,,,,,,,,,,,,,,,,,,,,,,,,,,,,,,,,,,,
296377,2022-10-02_11h43.29.056,vts_reward_expectancy,2022.2.4,MacIntel,59.99160118,Chrome,1440,900,,,l,0.7127,1,545,2,1,10,22,2,1,1,0,0,0,0,0,0,1,triangle,star,,,,,,,,,,,,,,,,,,,,,,,,,,,,,,,,,,,,,,,,,,,,,,,,,,,,,,
296377,2022-10-02_11h43.29.056,vts_reward_expectancy,2022.2.4,MacIntel,59.99160118,Chrome,1440,900,,,l,1.2677,1,546,2,1,11,23,1,1,1,0,0,0,0,0,1,0,triangle,hexagon,,,,,,,,,,,,,,,,,,,,,,,,,,,,,,,,,,,,,,,,,,,,,,,,,,,,,,
296377,2022-10-02_11h43.29.056,vts_reward_expectancy,2022.2.4,MacIntel,59.99160118,Chrome,1440,900,,,l,1.6111,10,556,2,2,0,24,8,1,0,0,1,0,0,0,0,1,hexagon,star,,,,,,,,,,,,,,,,,,,,,,,,,,,,,,,,,,,,,,,,,,,,,,,,,,,,,,
296377,2022-10-02_11h43.29.056,vts_reward_expectancy,2022.2.4,MacIntel,59.99160118,Chrome,1440,900,,,l,1.1404,1,557,2,2,1,25,5,1,0,1,0,0,0,0,0,1,circle,star,,,,,,,,,,,,,,,,,,,,,,,,,,,,,,,,,,,,,,,,,,,,,,,,,,,,,,
296377,2022-10-02_11h43.29.056,vts_reward_expectancy,2022.2.4,MacIntel,59.99160118,Chrome,1440,900,,,a,1.0948,1,558,2,2,2,26,11,1,0,0,0,1,0,0,1,0,star,hexagon,,,,,,,,,,,,,,,,,,,,,,,,,,,,,,,,,,,,,,,,,,,,,,,,,,,,,,
296377,2022-10-02_11h43.29.056,vts_reward_expectancy,2022.2.4,MacIntel,59.99160118,Chrome,1440,900,,,l,1.6802,1,559,2,2,3,27,1,1,1,0,0,0,0,0,1,0,triangle,hexagon,,,,,,,,,,,,,,,,,,,,,,,,,,,,,,,,,,,,,,,,,,,,,,,,,,,,,,
296377,2022-10-02_11h43.29.056,vts_reward_expectancy,2022.2.4,MacIntel,59.99160118,Chrome,1440,900,,,l,0.2992,1,560,2,2,4,28,3,1,0,1,0,0,1,0,0,0,circle,triangle,,,,,,,,,,,,,,,,,,,,,,,,,,,,,,,,,,,,,,,,,,,,,,,,,,,,,,
296377,2022-10-02_11h43.29.056,vts_reward_expectancy,2022.2.4,MacIntel,59.99160118,Chrome,1440,900,,,a,0.7135,1,561,2,2,5,29,10,1,0,0,0,1,0,1,0,0,star ,circle,,,,,,,,,,,,,,,,,,,,,,,,,,,,,,,,,,,,,,,,,,,,,,,,,,,,,,
296377,2022-10-02_11h43.29.056,vts_reward_expectancy,2022.2.4,MacIntel,59.99160118,Chrome,1440,900,,,a,0.6362,10,571,2,2,6,30,9,1,0,0,0,1,1,0,0,0,star,triangle,,,,,,,,,,,,,,,,,,,,,,,,,,,,,,,,,,,,,,,,,,,,,,,,,,,,,,
296377,2022-10-02_11h43.29.056,vts_reward_expectancy,2022.2.4,MacIntel,59.99160118,Chrome,1440,900,,,l,2.1408,10,581,2,2,7,31,0,1,1,0,0,0,0,1,0,0,triangle,circle,,,,,,,,,,,,,,,,,,,,,,,,,,,,,,,,,,,,,,,,,,,,,,,,,,,,,,
296377,2022-10-02_11h43.29.056,vts_reward_expectancy,2022.2.4,MacIntel,59.99160118,Chrome,1440,900,,,l,1.0941,1,582,2,2,8,32,6,1,0,0,1,0,1,0,0,0,hexagon,triangle,,,,,,,,,,,,,,,,,,,,,,,,,,,,,,,,,,,,,,,,,,,,,,,,,,,,,,
296377,2022-10-02_11h43.29.056,vts_reward_expectancy,2022.2.4,MacIntel,59.99160118,Chrome,1440,900,,,a,0.4161,1,583,2,2,9,33,2,1,1,0,0,0,0,0,0,1,triangle,star,,,,,,,,,,,,,,,,,,,,,,,,,,,,,,,,,,,,,,,,,,,,,,,,,,,,,,
296377,2022-10-02_11h43.29.056,vts_reward_expectancy,2022.2.4,MacIntel,59.99160118,Chrome,1440,900,,,l,0.7864,10,593,2,2,10,34,7,1,0,0,1,0,0,1,0,0,hexagon,circle,,,,,,,,,,,,,,,,,,,,,,,,,,,,,,,,,,,,,,,,,,,,,,,,,,,,,,
296377,2022-10-02_11h43.29.056,vts_reward_expectancy,2022.2.4,MacIntel,59.99160118,Chrome,1440,900,,,l,1.0391,10,603,2,2,11,35,4,1,0,1,0,0,0,0,1,0,circle,hexagon,,,,,,,,,,,,,,,,,,,,,,,,,,,,,,,,,,,,,,,,,,,,,,,,,,,,,,
296377,2022-10-02_11h43.29.056,vts_reward_expectancy,2022.2.4,MacIntel,59.99160118,Chrome,1440,900,,,,,,,,,,,,,,,,,,,,,,,F,181,star,1,0,d,2.733,0,0,0,0,0,1,,,,,,,,,,,,,,,,,,,,,,,,,,,,,,,,,,,,,,,,,
296377,2022-10-02_11h43.29.056,vts_reward_expectancy,2022.2.4,MacIntel,59.99160118,Chrome,1440,900,,,,,,,,,,,,,,,,,,,,,,,W,139,hexagon,1,0,f,1.573,0,1,0,1,0,1,,,,,,,,,,,,,,,,,,,,,,,,,,,,,,,,,,,,,,,,,
296377,2022-10-02_11h43.29.056,vts_reward_expectancy,2022.2.4,MacIntel,59.99160118,Chrome,1440,900,,,,,,,,,,,,,,,,,,,,,,,B,174,triangle,1,0,d,1.1037,0,2,0,2,0,1,,,,,,,,,,,,,,,,,,,,,,,,,,,,,,,,,,,,,,,,,
296377,2022-10-02_11h43.29.056,vts_reward_expectancy,2022.2.4,MacIntel,59.99160118,Chrome,1440,900,,,,,,,,,,,,,,,,,,,,,,,S,160,circle,1,0,f,1.107,0,3,0,3,0,1,,,,,,,,,,,,,,,,,,,,,,,,,,,,,,,,,,,,,,,,,
296377,2022-10-02_11h43.29.056,vts_reward_expectancy,2022.2.4,MacIntel,59.99160118,Chrome,1440,900,,,,,,,,,,,,,,,,,,,,,,,U,146,star,1,0,f,0.9814,0,4,0,4,0,1,,,,,,,,,,,,,,,,,,,,,,,,,,,,,,,,,,,,,,,,,
296377,2022-10-02_11h43.29.056,vts_reward_expectancy,2022.2.4,MacIntel,59.99160118,Chrome,1440,900,,,,,,,,,,,,,,,,,,,,,,,D,132,hexagon,1,0,d,1.1245,0,5,0,5,0,1,,,,,,,,,,,,,,,,,,,,,,,,,,,,,,,,,,,,,,,,,
296377,2022-10-02_11h43.29.056,vts_reward_expectancy,2022.2.4,MacIntel,59.99160118,Chrome,1440,900,,,,,,,,,,,,,,,,,,,,,,,H,167,triangle,1,0,d,2.2538,0,6,0,6,0,1,,,,,,,,,,,,,,,,,,,,,,,,,,,,,,,,,,,,,,,,,
296377,2022-10-02_11h43.29.056,vts_reward_expectancy,2022.2.4,MacIntel,59.99160118,Chrome,1440,900,,,,,,,,,,,,,,,,,,,,,,,Y,125,circle,1,0,f,0.8262,0,7,0,7,0,1,,,,,,,,,,,,,,,,,,,,,,,,,,,,,,,,,,,,,,,,,
296377,2022-10-02_11h43.29.056,vts_reward_expectancy,2022.2.4,MacIntel,59.99160118,Chrome,1440,900,,,,,,,,,,,,,,,,,,,,,,,F,181,star,1,0,d,1.4114,0,8,0,8,0,1,,,,,,,,,,,,,,,,,,,,,,,,,,,,,,,,,,,,,,,,,
296377,2022-10-02_11h43.29.056,vts_reward_expectancy,2022.2.4,MacIntel,59.99160118,Chrome,1440,900,,,,,,,,,,,,,,,,,,,,,,,W,139,hexagon,1,0,f,1.3632,0,9,0,9,0,1,,,,,,,,,,,,,,,,,,,,,,,,,,,,,,,,,,,,,,,,,
296377,2022-10-02_11h43.29.056,vts_reward_expectancy,2022.2.4,MacIntel,59.99160118,Chrome,1440,900,,,,,,,,,,,,,,,,,,,,,,,B,125,triangle,0,0,,,1,,,,,,,0,0,0,0,1,,,,,,,,,,,,,,,,,,,,,,,,,,,,,,,,,,,
296377,2022-10-02_11h43.29.056,vts_reward_expectancy,2022.2.4,MacIntel,59.99160118,Chrome,1440,900,,,,,,,,,,,,,,,,,,,,,,,D,139,circle,0,1,,,1,,,,,,k,1,0,1,0,1,1.4847,,,,,,,,,,,,,,,,,,,,,,,,,,,,,,,,,,
296377,2022-10-02_11h43.29.056,vts_reward_expectancy,2022.2.4,MacIntel,59.99160118,Chrome,1440,900,,,,,,,,,,,,,,,,,,,,,,,H,132,hexagon,1,1,,,1,,,,,,j,2,0,2,0,1,0.8293,,,,,,,,,,,,,,,,,,,,,,,,,,,,,,,,,,
296377,2022-10-02_11h43.29.056,vts_reward_expectancy,2022.2.4,MacIntel,59.99160118,Chrome,1440,900,,,,,,,,,,,,,,,,,,,,,,,S,146,star,1,0,,,1,,,,,,j,3,0,3,0,1,1.3138,,,,,,,,,,,,,,,,,,,,,,,,,,,,,,,,,,
296377,2022-10-02_11h43.29.056,vts_reward_expectancy,2022.2.4,MacIntel,59.99160118,Chrome,1440,900,,,,,,,,,,,,,,,,,,,,,,,W,160,triangle,1,0,,,1,,,,,,k,4,0,4,0,1,0.8662,,,,,,,,,,,,,,,,,,,,,,,,,,,,,,,,,,
296377,2022-10-02_11h43.29.056,vts_reward_expectancy,2022.2.4,MacIntel,59.99160118,Chrome,1440,900,,,,,,,,,,,,,,,,,,,,,,,F,181,circle,1,0,,,1,,,,,,k,5,0,5,0,1,0.8159,,,,,,,,,,,,,,,,,,,,,,,,,,,,,,,,,,
296377,2022-10-02_11h43.29.056,vts_reward_expectancy,2022.2.4,MacIntel,59.99160118,Chrome,1440,900,,,,,,,,,,,,,,,,,,,,,,,U,174,hexagon,1,0,,,1,,,,,,k,6,0,6,0,1,0.9734,,,,,,,,,,,,,,,,,,,,,,,,,,,,,,,,,,
296377,2022-10-02_11h43.29.056,vts_reward_expectancy,2022.2.4,MacIntel,59.99160118,Chrome,1440,900,,,,,,,,,,,,,,,,,,,,,,,Y,167,star,1,0,,,1,,,,,,k,7,0,7,0,1,1.0494,,,,,,,,,,,,,,,,,,,,,,,,,,,,,,,,,,
296377,2022-10-02_11h43.29.056,vts_reward_expectancy,2022.2.4,MacIntel,59.99160118,Chrome,1440,900,,,,,,,,,,,,,,,,,,,,,,,B,125,hexagon,1,0,,,1,,,,,,j,8,0,8,0,1,0.8317,,,,,,,,,,,,,,,,,,,,,,,,,,,,,,,,,,
296377,2022-10-02_11h43.29.056,vts_reward_expectancy,2022.2.4,MacIntel,59.99160118,Chrome,1440,900,,,,,,,,,,,,,,,,,,,,,,,D,139,triangle,1,0,,,1,,,,,,j,9,0,9,0,1,0.6609,,,,,,,,,,,,,,,,,,,,,,,,,,,,,,,,,,
296377,2022-10-02_11h43.29.056,vts_reward_expectancy,2022.2.4,MacIntel,59.99160118,Chrome,1440,900,,,,,,,,,,,,,,,,,,,,,,,U,167,star,1,0,,,2,,,,,,k,0,0,0,0,1,1.3151,,,,,,,,,,,,,,,,,,,,,,,,,,,,,,,,,,
296377,2022-10-02_11h43.29.056,vts_reward_expectancy,2022.2.4,MacIntel,59.99160118,Chrome,1440,900,,,,,,,,,,,,,,,,,,,,,,,B,132,circle,1,0,,,2,,,,,,j,1,0,1,0,1,0.8258,,,,,,,,,,,,,,,,,,,,,,,,,,,,,,,,,,
296377,2022-10-02_11h43.29.056,vts_reward_expectancy,2022.2.4,MacIntel,59.99160118,Chrome,1440,900,,,,,,,,,,,,,,,,,,,,,,,S,160,triangle,1,0,,,2,,,,,,k,2,0,2,0,1,0.6872,,,,,,,,,,,,,,,,,,,,,,,,,,,,,,,,,,
296377,2022-10-02_11h43.29.056,vts_reward_expectancy,2022.2.4,MacIntel,59.99160118,Chrome,1440,900,,,,,,,,,,,,,,,,,,,,,,,W,125,hexagon,1,0,,,2,,,,,,j,3,0,3,0,1,0.6237,,,,,,,,,,,,,,,,,,,,,,,,,,,,,,,,,,
296377,2022-10-02_11h43.29.056,vts_reward_expectancy,2022.2.4,MacIntel,59.99160118,Chrome,1440,900,,,,,,,,,,,,,,,,,,,,,,,D,181,star,1,0,,,2,,,,,,k,4,0,4,0,1,0.6599,,,,,,,,,,,,,,,,,,,,,,,,,,,,,,,,,,
296377,2022-10-02_11h43.29.056,vts_reward_expectancy,2022.2.4,MacIntel,59.99160118,Chrome,1440,900,,,,,,,,,,,,,,,,,,,,,,,F,146,circle,1,0,,,2,,,,,,j,5,0,5,0,1,0.7909,,,,,,,,,,,,,,,,,,,,,,,,,,,,,,,,,,
296377,2022-10-02_11h43.29.056,vts_reward_expectancy,2022.2.4,MacIntel,59.99160118,Chrome,1440,900,,,,,,,,,,,,,,,,,,,,,,,H,139,triangle,1,0,,,2,,,,,,j,6,0,6,0,1,0.6531,,,,,,,,,,,,,,,,,,,,,,,,,,,,,,,,,,
296377,2022-10-02_11h43.29.056,vts_reward_expectancy,2022.2.4,MacIntel,59.99160118,Chrome,1440,900,,,,,,,,,,,,,,,,,,,,,,,Y,174,hexagon,1,0,,,2,,,,,,k,7,0,7,0,1,0.7148,,,,,,,,,,,,,,,,,,,,,,,,,,,,,,,,,,
296377,2022-10-02_11h43.29.056,vts_reward_expectancy,2022.2.4,MacIntel,59.99160118,Chrome,1440,900,,,,,,,,,,,,,,,,,,,,,,,U,167,hexagon,1,0,,,2,,,,,,k,8,0,8,0,1,0.9679,,,,,,,,,,,,,,,,,,,,,,,,,,,,,,,,,,
296377,2022-10-02_11h43.29.056,vts_reward_expectancy,2022.2.4,MacIntel,59.99160118,Chrome,1440,900,,,,,,,,,,,,,,,,,,,,,,,B,132,circle,1,0,,,2,,,,,,j,9,0,9,0,1,1.291,,,,,,,,,,,,,,,,,,,,,,,,,,,,,,,,,,
296377,2022-10-02_11h43.29.056,vts_reward_expectancy,2022.2.4,MacIntel,59.99160118,Chrome,1440,900,,,,,0,603,,,,,,,,,,,,,,,,,H,174,triangle,1,0,,,3,,,,,,,,,,,,,-1,letter,NA,d,0.042,vtsPrac,0,0,0,0,1,,,,,,,,,,,,,,,,,,,,,,,
296377,2022-10-02_11h43.29.056,vts_reward_expectancy,2022.2.4,MacIntel,59.99160118,Chrome,1440,900,,,,,0,603,,,,,,,,,,,,,,,,,B,181,hexagon,0,0,,,3,,,,,,,,,,,,,repeat,letter,NA,f,0.0446,vtsPrac,1,0,1,0,1,,,,,,,,,,,,,,,,,,,,,,,
296377,2022-10-02_11h43.29.056,vts_reward_expectancy,2022.2.4,MacIntel,59.99160118,Chrome,1440,900,,,,,0,603,,,,,,,,,,,,,,,,,Y,139,triangle,1,1,,,3,,,,,,,,,,,,,switch,number,numSwt,j,0.681,vtsPrac,2,0,2,0,1,,,,,,,,,,,,,,,,,,,,,,,
296377,2022-10-02_11h43.29.056,vts_reward_expectancy,2022.2.4,MacIntel,59.99160118,Chrome,1440,900,,,,,0,603,,,,,,,,,,,,,,,,,S,160,hexagon,1,0,,,3,,,,,,,,,,,,,repeat,number,numRpt,k,1.3999,vtsPrac,3,0,3,0,1,,,,,,,,,,,,,,,,,,,,,,,
296377,2022-10-02_11h43.29.056,vts_reward_expectancy,2022.2.4,MacIntel,59.99160118,Chrome,1440,900,,,,,0,603,,,,,,,,,,,,,,,,,H,174,star,1,0,,,3,,,,,,,,,,,,,repeat,number,numRpt,k,1.1809,vtsPrac,4,0,4,0,1,,,,,,,,,,,,,,,,,,,,,,,
296377,2022-10-02_11h43.29.056,vts_reward_expectancy,2022.2.4,MacIntel,59.99160118,Chrome,1440,900,,,,,0,603,,,,,,,,,,,,,,,,,B,181,hexagon,1,0,,,3,,,,,,,,,,,,,switch,letter,lettSwt,d,0.6584,vtsPrac,5,0,5,0,1,,,,,,,,,,,,,,,,,,,,,,,
296377,2022-10-02_11h43.29.056,vts_reward_expectancy,2022.2.4,MacIntel,59.99160118,Chrome,1440,900,,,,,0,603,,,,,,,,,,,,,,,,,Y,139,hexagon,1,0,,,3,,,,,,,,,,,,,switch,number,numSwt,j,1.0881,vtsPrac,6,0,6,0,1,,,,,,,,,,,,,,,,,,,,,,,
296377,2022-10-02_11h43.29.056,vts_reward_expectancy,2022.2.4,MacIntel,59.99160118,Chrome,1440,900,,,,,0,603,,,,,,,,,,,,,,,,,S,160,triangle,1,0,,,3,,,,,,,,,,,,,switch,letter,lettSwt,f,0.9612,vtsPrac,7,0,7,0,1,,,,,,,,,,,,,,,,,,,,,,,
296377,2022-10-02_11h43.29.056,vts_reward_expectancy,2022.2.4,MacIntel,59.99160118,Chrome,1440,900,,,,,0,603,,,,,,,,,,,,,,,,,H,181,triangle,1,0,,,3,,,,,,,,,,,,,switch,number,numSwt,k,2.4745,vtsPrac,8,0,8,0,1,,,,,,,,,,,,,,,,,,,,,,,
296377,2022-10-02_11h43.29.056,vts_reward_expectancy,2022.2.4,MacIntel,59.99160118,Chrome,1440,900,,,,,0,603,,,,,,,,,,,,,,,,,B,160,hexagon,1,0,,,3,,,,,,,,,,,,,switch,letter,lettSwt,d,1.228,vtsPrac,9,0,9,0,1,,,,,,,,,,,,,,,,,,,,,,,
296377,2022-10-02_11h43.29.056,vts_reward_expectancy,2022.2.4,MacIntel,59.99160118,Chrome,1440,900,,,,,0,603,,,,,,,,,,,,,,,,,D,146,circle,1,0,,,3,,,,,,,,,,,,,repeat,letter,lettRpt,d,0.8471,vtsPrac,10,0,10,0,1,,,,,,,,,,,,,,,,,,,,,,,
296377,2022-10-02_11h43.29.056,vts_reward_expectancy,2022.2.4,MacIntel,59.99160118,Chrome,1440,900,,,,,0,603,,,,,,,,,,,,,,,,,U,132,hexagon,1,0,,,3,,,,,,,,,,,,,repeat,letter,lettRpt,f,1.601,vtsPrac,11,0,11,0,1,,,,,,,,,,,,,,,,,,,,,,,
296377,2022-10-02_11h43.29.056,vts_reward_expectancy,2022.2.4,MacIntel,59.99160118,Chrome,1440,900,,,,,0,603,,,,,,,,,,,,,,,,,D,174,triangle,1,0,,,3,,,,,,,,,,,,,switch,number,numSwt,k,1.2034,vtsPrac,12,0,12,0,1,,,,,,,,,,,,,,,,,,,,,,,
296377,2022-10-02_11h43.29.056,vts_reward_expectancy,2022.2.4,MacIntel,59.99160118,Chrome,1440,900,,,,,0,603,,,,,,,,,,,,,,,,,S,181,star,1,0,,,3,,,,,,,,,,,,,repeat,number,numRpt,k,1.0729,vtsPrac,13,0,13,0,1,,,,,,,,,,,,,,,,,,,,,,,
296377,2022-10-02_11h43.29.056,vts_reward_expectancy,2022.2.4,MacIntel,59.99160118,Chrome,1440,900,,,,,0,603,,,,,,,,,,,,,,,,,Y,139,star,1,0,,,3,,,,,,,,,,,,,switch,letter,lettSwt,f,1.9715,vtsPrac,14,0,14,0,1,,,,,,,,,,,,,,,,,,,,,,,
296377,2022-10-02_11h43.29.056,vts_reward_expectancy,2022.2.4,MacIntel,59.99160118,Chrome,1440,900,,,,,0,603,,,,,,,,,,,,,,,,,U,132,triangle,1,0,,,3,,,,,,,,,,,,,repeat,letter,lettRpt,f,1.0456,vtsPrac,15,0,15,0,1,,,,,,,,,,,,,,,,,,,,,,,
296377,2022-10-02_11h43.29.056,vts_reward_expectancy,2022.2.4,MacIntel,59.99160118,Chrome,1440,900,,,,,,,,,,,,,,,,,,,,,,,,,,,,,,,,,,,,,,,,,,,,,,,,,,,,,,,,,,,,,,,,,,,,,,,,,,,,
296377,2022-10-02_11h43.29.056,vts_reward_expectancy,2022.2.4,MacIntel,59.99160118,Chrome,1440,900,,,,,,,,,,,,,,,,,,,,,,,,,,,,,,,,,,,,,,,,,,,,,,,,,,,,,,,,,,,,,,,,,,,,,,,,,,,,
296377,2022-10-02_11h43.29.056,vts_reward_expectancy,2022.2.4,MacIntel,59.99160118,Chrome,1440,900,,,,,0,603,,,,,,,,,,,,,,,,,U,160,circle,1,0,,,,,,,,,,,,,,,,switch,number,numSwt,k,1.3448,noRew,,,,,,0,0,0,0,0,1,,,,,,,,,,,,,,,,,
296377,2022-10-02_11h43.29.056,vts_reward_expectancy,2022.2.4,MacIntel,59.99160118,Chrome,1440,900,,,,,0,603,,,,,,,,,,,,,,,,,S,146,triangle,1,0,,,,,,,,,,,,,,,,switch,letter,lettSwt,f,1.3412,noRew,,,,,,0,1,0,1,0,1,,,,,,,,,,,,,,,,,
296377,2022-10-02_11h43.29.056,vts_reward_expectancy,2022.2.4,MacIntel,59.99160118,Chrome,1440,900,,,,,0,603,,,,,,,,,,,,,,,,,W,139,circle,1,0,,,,,,,,,,,,,,,,switch,number,numSwt,j,0.8998,noRew,,,,,,0,2,0,2,0,1,,,,,,,,,,,,,,,,,
296377,2022-10-02_11h43.29.056,vts_reward_expectancy,2022.2.4,MacIntel,59.99160118,Chrome,1440,900,,,,,0,603,,,,,,,,,,,,,,,,,H,125,triangle,1,0,,,,,,,,,,,,,,,,repeat,number,numRpt,j,2.1685,noRew,,,,,,0,3,0,3,0,1,,,,,,,,,,,,,,,,,
296377,2022-10-02_11h43.29.056,vts_reward_expectancy,2022.2.4,MacIntel,59.99160118,Chrome,1440,900,,,,,0,603,,,,,,,,,,,,,,,,,U,160,triangle,1,0,,,,,,,,,,,,,,,,repeat,number,numRpt,k,1.0287,noRew,,,,,,0,4,0,4,0,1,,,,,,,,,,,,,,,,,
296377,2022-10-02_11h43.29.056,vts_reward_expectancy,2022.2.4,MacIntel,59.99160118,Chrome,1440,900,,,,,0,603,,,,,,,,,,,,,,,,,S,146,circle,1,0,,,,,,,,,,,,,,,,repeat,number,numRpt,j,0.9757,noRew,,,,,,0,5,0,5,0,1,,,,,,,,,,,,,,,,,
296377,2022-10-02_11h43.29.056,vts_reward_expectancy,2022.2.4,MacIntel,59.99160118,Chrome,1440,900,,,,,0,603,,,,,,,,,,,,,,,,,W,139,triangle,1,0,,,,,,,,,,,,,,,,repeat,number,numRpt,j,0.989,noRew,,,,,,0,6,0,6,0,1,,,,,,,,,,,,,,,,,
296377,2022-10-02_11h43.29.056,vts_reward_expectancy,2022.2.4,MacIntel,59.99160118,Chrome,1440,900,,,,,0,603,,,,,,,,,,,,,,,,,H,125,hexagon,1,0,,,,,,,,,,,,,,,,repeat,number,numRpt,j,0.7903,noRew,,,,,,0,7,0,7,0,1,,,,,,,,,,,,,,,,,
296377,2022-10-02_11h43.29.056,vts_reward_expectancy,2022.2.4,MacIntel,59.99160118,Chrome,1440,900,,,,,0,603,,,,,,,,,,,,,,,,,B,160,triangle,1,0,,,,,,,,,,,,,,,,switch,letter,lettSwt,d,0.8494,noRew,,,,,,0,8,0,8,0,1,,,,,,,,,,,,,,,,,
296377,2022-10-02_11h43.29.056,vts_reward_expectancy,2022.2.4,MacIntel,59.99160118,Chrome,1440,900,,,,,0,603,,,,,,,,,,,,,,,,,S,181,star,1,0,,,,,,,,,,,,,,,,repeat,letter,lettRpt,f,0.8324,noRew,,,,,,0,9,0,9,0,1,,,,,,,,,,,,,,,,,
296377,2022-10-02_11h43.29.056,vts_reward_expectancy,2022.2.4,MacIntel,59.99160118,Chrome,1440,900,,,,,0,603,,,,,,,,,,,,,,,,,U,167,star,1,0,,,,,,,,,,,,,,,,repeat,letter,lettRpt,f,0.9981,noRew,,,,,,0,10,0,10,0,1,,,,,,,,,,,,,,,,,
296377,2022-10-02_11h43.29.056,vts_reward_expectancy,2022.2.4,MacIntel,59.99160118,Chrome,1440,900,,,,,0,603,,,,,,,,,,,,,,,,,D,139,hexagon,1,0,,,,,,,,,,,,,,,,repeat,letter,lettRpt,d,1.5033,noRew,,,,,,0,11,0,11,0,1,,,,,,,,,,,,,,,,,
296377,2022-10-02_11h43.29.056,vts_reward_expectancy,2022.2.4,MacIntel,59.99160118,Chrome,1440,900,,,,,0,603,,,,,,,,,,,,,,,,,Y,160,hexagon,1,0,,,,,,,,,,,,,,,,switch,number,numSwt,k,2.2868,noRew,,,,,,0,12,0,12,0,1,,,,,,,,,,,,,,,,,
296377,2022-10-02_11h43.29.056,vts_reward_expectancy,2022.2.4,MacIntel,59.99160118,Chrome,1440,900,,,,,0,603,,,,,,,,,,,,,,,,,D,125,circle,1,0,,,,,,,,,,,,,,,,switch,letter,lettSwt,d,1.0719,noRew,,,,,,0,13,0,13,0,1,,,,,,,,,,,,,,,,,
296377,2022-10-02_11h43.29.056,vts_reward_expectancy,2022.2.4,MacIntel,59.99160118,Chrome,1440,900,,,,,0,603,,,,,,,,,,,,,,,,,B,181,hexagon,1,0,,,,,,,,,,,,,,,,switch,number,numSwt,k,1.5908,noRew,,,,,,0,14,0,14,0,1,,,,,,,,,,,,,,,,,
296377,2022-10-02_11h43.29.056,vts_reward_expectancy,2022.2.4,MacIntel,59.99160118,Chrome,1440,900,,,,,0,603,,,,,,,,,,,,,,,,,H,174,triangle,1,0,,,,,,,,,,,,,,,,repeat,number,numRpt,k,1.7916,noRew,,,,,,0,15,0,15,0,1,,,,,,,,,,,,,,,,,
296377,2022-10-02_11h43.29.056,vts_reward_expectancy,2022.2.4,MacIntel,59.99160118,Chrome,1440,900,,,,,0,603,,,,,,,,,,,,,,,,,S,167,triangle,1,0,,,,,,,,,,,,,,,,switch,letter,lettSwt,f,1.0204,noRew,,,,,,0,16,0,16,0,1,,,,,,,,,,,,,,,,,
296377,2022-10-02_11h43.29.056,vts_reward_expectancy,2022.2.4,MacIntel,59.99160118,Chrome,1440,900,,,,,0,603,,,,,,,,,,,,,,,,,H,125,hexagon,1,0,,,,,,,,,,,,,,,,switch,number,numSwt,j,0.9766,noRew,,,,,,0,17,0,17,0,1,,,,,,,,,,,,,,,,,
296377,2022-10-02_11h43.29.056,vts_reward_expectancy,2022.2.4,MacIntel,59.99160118,Chrome,1440,900,,,,,0,603,,,,,,,,,,,,,,,,,Y,146,triangle,1,0,,,,,,,,,,,,,,,,switch,letter,lettSwt,f,0.88,noRew,,,,,,0,18,0,18,0,1,,,,,,,,,,,,,,,,,
296377,2022-10-02_11h43.29.056,vts_reward_expectancy,2022.2.4,MacIntel,59.99160118,Chrome,1440,900,,,,,0,603,,,,,,,,,,,,,,,,,D,160,star,1,0,,,,,,,,,,,,,,,,repeat,letter,lettRpt,d,1.0462,noRew,,,,,,0,19,0,19,0,1,,,,,,,,,,,,,,,,,
296377,2022-10-02_11h43.29.056,vts_reward_expectancy,2022.2.4,MacIntel,59.99160118,Chrome,1440,900,,,,,0,603,,,,,,,,,,,,,,,,,S,174,triangle,1,0,,,,,,,,,,,,,,,,repeat,letter,lettRpt,f,1.6513,noRew,,,,,,0,20,0,20,0,1,,,,,,,,,,,,,,,,,
296377,2022-10-02_11h43.29.056,vts_reward_expectancy,2022.2.4,MacIntel,59.99160118,Chrome,1440,900,,,,,0,603,,,,,,,,,,,,,,,,,H,167,star,1,0,,,,,,,,,,,,,,,,switch,number,numSwt,k,1.3801,noRew,,,,,,0,21,0,21,0,1,,,,,,,,,,,,,,,,,
296377,2022-10-02_11h43.29.056,vts_reward_expectancy,2022.2.4,MacIntel,59.99160118,Chrome,1440,900,,,,,0,603,,,,,,,,,,,,,,,,,B,139,triangle,1,0,,,,,,,,,,,,,,,,switch,letter,lettSwt,d,0.9996,noRew,,,,,,0,22,0,22,0,1,,,,,,,,,,,,,,,,,
296377,2022-10-02_11h43.29.056,vts_reward_expectancy,2022.2.4,MacIntel,59.99160118,Chrome,1440,900,,,,,0,603,,,,,,,,,,,,,,,,,Y,125,hexagon,-1,0,,,,,,,,,,,,,,,,switch,no_choice,NA,,,noRew,,,,,,0,23,0,23,0,1,,,,,,,,,,,,,,,,,
296377,2022-10-02_11h43.29.056,vts_reward_expectancy,2022.2.4,MacIntel,59.99160118,Chrome,1440,900,,,,,0,603,,,,,,,,,,,,,,,,,H,167,circle,1,0,,,,,,,,,,,,,,,,switch,number,numSwt,k,1.2645,noRew,,,,,,0,24,0,24,0,1,,,,,,,,,,,,,,,,,
296377,2022-10-02_11h43.29.056,vts_reward_expectancy,2022.2.4,MacIntel,59.99160118,Chrome,1440,900,,,,,0,603,,,,,,,,,,,,,,,,,D,132,hexagon,1,0,,,,,,,,,,,,,,,,switch,letter,lettSwt,d,0.6594,noRew,,,,,,0,25,0,25,0,1,,,,,,,,,,,,,,,,,
296377,2022-10-02_11h43.29.056,vts_reward_expectancy,2022.2.4,MacIntel,59.99160118,Chrome,1440,900,,,,,0,603,,,,,,,,,,,,,,,,,U,139,triangle,1,0,,,,,,,,,,,,,,,,switch,number,numSwt,j,1.3541,noRew,,,,,,0,26,0,26,0,1,,,,,,,,,,,,,,,,,
296377,2022-10-02_11h43.29.056,vts_reward_expectancy,2022.2.4,MacIntel,59.99160118,Chrome,1440,900,,,,,0,603,,,,,,,,,,,,,,,,,W,146,star,1,0,,,,,,,,,,,,,,,,switch,letter,lettSwt,f,1.0641,noRew,,,,,,0,27,0,27,0,1,,,,,,,,,,,,,,,,,
296377,2022-10-02_11h43.29.056,vts_reward_expectancy,2022.2.4,MacIntel,59.99160118,Chrome,1440,900,,,,,0,603,,,,,,,,,,,,,,,,,S,132,triangle,1,0,,,,,,,,,,,,,,,,switch,number,numSwt,j,0.9878,noRew,,,,,,0,28,0,28,0,1,,,,,,,,,,,,,,,,,
296377,2022-10-02_11h43.29.056,vts_reward_expectancy,2022.2.4,MacIntel,59.99160118,Chrome,1440,900,,,,,0,603,,,,,,,,,,,,,,,,,Y,181,star,1,0,,,,,,,,,,,,,,,,repeat,number,numRpt,k,1.3061,noRew,,,,,,0,29,0,29,0,1,,,,,,,,,,,,,,,,,
296377,2022-10-02_11h43.29.056,vts_reward_expectancy,2022.2.4,MacIntel,59.99160118,Chrome,1440,900,,,,,0,603,,,,,,,,,,,,,,,,,H,167,circle,1,0,,,,,,,,,,,,,,,,repeat,number,numRpt,k,1.4575,noRew,,,,,,0,30,0,30,0,1,,,,,,,,,,,,,,,,,
296377,2022-10-02_11h43.29.056,vts_reward_expectancy,2022.2.4,MacIntel,59.99160118,Chrome,1440,900,,,,,0,603,,,,,,,,,,,,,,,,,B,146,hexagon,1,0,,,,,,,,,,,,,,,,switch,letter,lettSwt,d,1.195,noRew,,,,,,0,31,0,31,0,1,,,,,,,,,,,,,,,,,
296377,2022-10-02_11h43.29.056,vts_reward_expectancy,2022.2.4,MacIntel,59.99160118,Chrome,1440,900,,,,,0,603,,,,,,,,,,,,,,,,,H,125,circle,1,0,,,,,,,,,,,,,,,,switch,number,numSwt,j,2.7555,noRew,,,,,,0,32,0,32,0,1,,,,,,,,,,,,,,,,,
296377,2022-10-02_11h43.29.056,vts_reward_expectancy,2022.2.4,MacIntel,59.99160118,Chrome,1440,900,,,,,0,603,,,,,,,,,,,,,,,,,U,167,triangle,1,0,,,,,,,,,,,,,,,,switch,letter,lettSwt,f,1.5827,noRew,,,,,,0,33,0,33,0,1,,,,,,,,,,,,,,,,,
296377,2022-10-02_11h43.29.056,vts_reward_expectancy,2022.2.4,MacIntel,59.99160118,Chrome,1440,900,,,,,0,603,,,,,,,,,,,,,,,,,Y,139,hexagon,1,0,,,,,,,,,,,,,,,,repeat,letter,lettRpt,f,0.8036,noRew,,,,,,0,34,0,34,0,1,,,,,,,,,,,,,,,,,
296377,2022-10-02_11h43.29.056,vts_reward_expectancy,2022.2.4,MacIntel,59.99160118,Chrome,1440,900,,,,,0,603,,,,,,,,,,,,,,,,,S,181,triangle,1,0,,,,,,,,,,,,,,,,repeat,letter,lettRpt,f,0.8437,noRew,,,,,,0,35,0,35,0,1,,,,,,,,,,,,,,,,,
296377,2022-10-02_11h43.29.056,vts_reward_expectancy,2022.2.4,MacIntel,59.99160118,Chrome,1440,900,,,,,0,603,,,,,,,,,,,,,,,,,B,160,triangle,1,0,,,,,,,,,,,,,,,,repeat,letter,lettRpt,d,0.8142,noRew,,,,,,0,36,0,36,0,1,,,,,,,,,,,,,,,,,
296377,2022-10-02_11h43.29.056,vts_reward_expectancy,2022.2.4,MacIntel,59.99160118,Chrome,1440,900,,,,,0,603,,,,,,,,,,,,,,,,,U,146,star,1,0,,,,,,,,,,,,,,,,switch,number,numSwt,j,1.5285,noRew,,,,,,0,37,0,37,0,1,,,,,,,,,,,,,,,,,
296377,2022-10-02_11h43.29.056,vts_reward_expectancy,2022.2.4,MacIntel,59.99160118,Chrome,1440,900,,,,,0,603,,,,,,,,,,,,,,,,,D,174,hexagon,1,0,,,,,,,,,,,,,,,,switch,letter,lettSwt,d,0.8625,noRew,,,,,,0,38,0,38,0,1,,,,,,,,,,,,,,,,,
296377,2022-10-02_11h43.29.056,vts_reward_expectancy,2022.2.4,MacIntel,59.99160118,Chrome,1440,900,,,,,0,603,,,,,,,,,,,,,,,,,W,181,circle,1,0,,,,,,,,,,,,,,,,switch,number,numSwt,k,1.2973,noRew,,,,,,0,39,0,39,0,1,,,,,,,,,,,,,,,,,
296377,2022-10-02_11h43.29.056,vts_reward_expectancy,2022.2.4,MacIntel,59.99160118,Chrome,1440,900,,,,,0,603,,,,,,,,,,,,,,,,,W,167,star,1,0,,,,,,,,,,,,,,,,switch,letter,lettSwt,f,1.9818,noRew,,,,,,0,40,0,40,0,1,,,,,,,,,,,,,,,,,
296377,2022-10-02_11h43.29.056,vts_reward_expectancy,2022.2.4,MacIntel,59.99160118,Chrome,1440,900,,,,,0,603,,,,,,,,,,,,,,,,,H,181,circle,1,0,,,,,,,,,,,,,,,,switch,number,numSwt,k,1.2979,noRew,,,,,,0,41,0,41,0,1,,,,,,,,,,,,,,,,,
296377,2022-10-02_11h43.29.056,vts_reward_expectancy,2022.2.4,MacIntel,59.99160118,Chrome,1440,900,,,,,0,603,,,,,,,,,,,,,,,,,S,139,hexagon,1,0,,,,,,,,,,,,,,,,switch,letter,lettSwt,f,1.4092,noRew,,,,,,0,42,0,42,0,1,,,,,,,,,,,,,,,,,
296377,2022-10-02_11h43.29.056,vts_reward_expectancy,2022.2.4,MacIntel,59.99160118,Chrome,1440,900,,,,,0,603,,,,,,,,,,,,,,,,,F,132,star,1,0,,,,,,,,,,,,,,,,repeat,letter,lettRpt,d,0.8491,noRew,,,,,,0,43,0,43,0,1,,,,,,,,,,,,,,,,,
296377,2022-10-02_11h43.29.056,vts_reward_expectancy,2022.2.4,MacIntel,59.99160118,Chrome,1440,900,,,,,0,603,,,,,,,,,,,,,,,,,Y,125,triangle,1,0,,,,,,,,,,,,,,,,repeat,letter,lettRpt,f,1.6423,noRew,,,,,,0,44,0,44,0,1,,,,,,,,,,,,,,,,,
296377,2022-10-02_11h43.29.056,vts_reward_expectancy,2022.2.4,MacIntel,59.99160118,Chrome,1440,900,,,,,0,603,,,,,,,,,,,,,,,,,S,167,hexagon,1,0,,,,,,,,,,,,,,,,repeat,letter,lettRpt,f,1.5819,noRew,,,,,,0,45,0,45,0,1,,,,,,,,,,,,,,,,,
296377,2022-10-02_11h43.29.056,vts_reward_expectancy,2022.2.4,MacIntel,59.99160118,Chrome,1440,900,,,,,0,603,,,,,,,,,,,,,,,,,B,132,star,1,0,,,,,,,,,,,,,,,,switch,number,numSwt,j,1.22,noRew,,,,,,0,46,0,46,0,1,,,,,,,,,,,,,,,,,
296377,2022-10-02_11h43.29.056,vts_reward_expectancy,2022.2.4,MacIntel,59.99160118,Chrome,1440,900,,,,,0,603,,,,,,,,,,,,,,,,,W,181,circle,1,0,,,,,,,,,,,,,,,,repeat,number,numRpt,k,0.9478,noRew,,,,,,0,47,0,47,0,1,,,,,,,,,,,,,,,,,
296377,2022-10-02_11h43.29.056,vts_reward_expectancy,2022.2.4,MacIntel,59.99160118,Chrome,1440,900,,,,,0,603,,,,,,,,,,,,,,,,,H,160,star,1,0,,,,,,,,,,,,,,,,repeat,number,numRpt,k,1.4676,noRew,,,,,,0,48,0,48,0,1,,,,,,,,,,,,,,,,,
296377,2022-10-02_11h43.29.056,vts_reward_expectancy,2022.2.4,MacIntel,59.99160118,Chrome,1440,900,,,,,0,603,,,,,,,,,,,,,,,,,S,167,hexagon,1,0,,,,,,,,,,,,,,,,repeat,number,numRpt,k,1.5156,noRew,,,,,,0,49,0,49,0,1,,,,,,,,,,,,,,,,,
296377,2022-10-02_11h43.29.056,vts_reward_expectancy,2022.2.4,MacIntel,59.99160118,Chrome,1440,900,,,,,0,603,,,,,,,,,,,,,,,,,B,139,hexagon,1,0,,,,,,,,,,,,,,,,switch,letter,lettSwt,d,1.0075,noRew,,,,,,0,50,0,50,0,1,,,,,,,,,,,,,,,,,
296377,2022-10-02_11h43.29.056,vts_reward_expectancy,2022.2.4,MacIntel,59.99160118,Chrome,1440,900,,,,,0,603,,,,,,,,,,,,,,,,,F,181,circle,1,0,,,,,,,,,,,,,,,,repeat,letter,lettRpt,d,1.2101,noRew,,,,,,0,51,0,51,0,1,,,,,,,,,,,,,,,,,
296377,2022-10-02_11h43.29.056,vts_reward_expectancy,2022.2.4,MacIntel,59.99160118,Chrome,1440,900,,,,,0,603,,,,,,,,,,,,,,,,,Y,146,hexagon,1,0,,,,,,,,,,,,,,,,repeat,letter,lettRpt,f,1.1966,noRew,,,,,,0,52,0,52,0,1,,,,,,,,,,,,,,,,,
296377,2022-10-02_11h43.29.056,vts_reward_expectancy,2022.2.4,MacIntel,59.99160118,Chrome,1440,900,,,,,0,603,,,,,,,,,,,,,,,,,U,167,star,1,0,,,,,,,,,,,,,,,,repeat,letter,lettRpt,f,0.8466,noRew,,,,,,0,53,0,53,0,1,,,,,,,,,,,,,,,,,
296377,2022-10-02_11h43.29.056,vts_reward_expectancy,2022.2.4,MacIntel,59.99160118,Chrome,1440,900,,,,,0,603,,,,,,,,,,,,,,,,,H,132,hexagon,1,0,,,,,,,,,,,,,,,,repeat,letter,lettRpt,d,0.9293,noRew,,,,,,0,54,0,54,0,1,,,,,,,,,,,,,,,,,
296377,2022-10-02_11h43.29.056,vts_reward_expectancy,2022.2.4,MacIntel,59.99160118,Chrome,1440,900,,,,,0,603,,,,,,,,,,,,,,,,,B,125,star,1,0,,,,,,,,,,,,,,,,repeat,letter,lettRpt,d,0.8728,noRew,,,,,,0,55,0,55,0,1,,,,,,,,,,,,,,,,,
296377,2022-10-02_11h43.29.056,vts_reward_expectancy,2022.2.4,MacIntel,59.99160118,Chrome,1440,900,,,,,0,603,,,,,,,,,,,,,,,,,H,160,hexagon,1,0,,,,,,,,,,,,,,,,switch,number,numSwt,k,0.7768,noRew,,,,,,0,56,0,56,0,1,,,,,,,,,,,,,,,,,
296377,2022-10-02_11h43.29.056,vts_reward_expectancy,2022.2.4,MacIntel,59.99160118,Chrome,1440,900,,,,,0,603,,,,,,,,,,,,,,,,,U,146,triangle,1,0,,,,,,,,,,,,,,,,repeat,number,numRpt,j,0.967,noRew,,,,,,0,57,0,57,0,1,,,,,,,,,,,,,,,,,
296377,2022-10-02_11h43.29.056,vts_reward_expectancy,2022.2.4,MacIntel,59.99160118,Chrome,1440,900,,,,,0,603,,,,,,,,,,,,,,,,,S,167,star,1,0,,,,,,,,,,,,,,,,repeat,number,numRpt,k,0.815,noRew,,,,,,0,58,0,58,0,1,,,,,,,,,,,,,,,,,
296377,2022-10-02_11h43.29.056,vts_reward_expectancy,2022.2.4,MacIntel,59.99160118,Chrome,1440,900,,,,,0,603,,,,,,,,,,,,,,,,,F,174,triangle,1,0,,,,,,,,,,,,,,,,repeat,number,numRpt,k,0.864,noRew,,,,,,0,59,0,59,0,1,,,,,,,,,,,,,,,,,
296377,2022-10-02_11h43.29.056,vts_reward_expectancy,2022.2.4,MacIntel,59.99160118,Chrome,1440,900,,,,,0,603,,,,,,,,,,,,,,,,,H,167,circle,1,0,,,,,,,,,,,,,,,,repeat,number,numRpt,k,1.6815,noRew,,,,,,0,60,0,60,0,1,,,,,,,,,,,,,,,,,
296377,2022-10-02_11h43.29.056,vts_reward_expectancy,2022.2.4,MacIntel,59.99160118,Chrome,1440,900,,,,,0,603,,,,,,,,,,,,,,,,,B,139,hexagon,1,0,,,,,,,,,,,,,,,,switch,letter,lettSwt,d,0.8747,noRew,,,,,,0,61,0,61,0,1,,,,,,,,,,,,,,,,,
296377,2022-10-02_11h43.29.056,vts_reward_expectancy,2022.2.4,MacIntel,59.99160118,Chrome,1440,900,,,,,0,603,,,,,,,,,,,,,,,,,W,160,circle,1,0,,,,,,,,,,,,,,,,switch,number,numSwt,k,1.1061,noRew,,,,,,0,62,0,62,0,1,,,,,,,,,,,,,,,,,
296377,2022-10-02_11h43.29.056,vts_reward_expectancy,2022.2.4,MacIntel,59.99160118,Chrome,1440,900,,,,,0,603,,,,,,,,,,,,,,,,,F,132,hexagon,1,0,,,,,,,,,,,,,,,,repeat,number,numRpt,j,1.559,noRew,,,,,,0,63,0,63,0,1,,,,,,,,,,,,,,,,,
296377,2022-10-02_11h43.29.056,vts_reward_expectancy,2022.2.4,MacIntel,59.99160118,Chrome,1440,900,,,,,,,,,,,,,,,,,,,,,,,,,,,,,,,,,,,,,,,,,,,,,,,,,,,,,,,,,,,,,,,,,,,,,,,,,,,,
296377,2022-10-02_11h43.29.056,vts_reward_expectancy,2022.2.4,MacIntel,59.99160118,Chrome,1440,900,,,,,0,603,,,,,,,,,,,,,,,,,D,132,circle,1,0,,,,,,,,,,,,,,,,switch,letter,lettSwt,d,0.9826,Hi,,,,,,0,,,,,,space,1.8145,high,0,0,0,0,1,,,,,,,,,
296377,2022-10-02_11h43.29.056,vts_reward_expectancy,2022.2.4,MacIntel,59.99160118,Chrome,1440,900,,,,,1,604,,,,,,,,,,,,,,,,,W,167,triangle,1,0,,,,,,,,,,,,,,,,repeat,letter,lettRpt,f,0.8244,Lo,,,,,,0,,,,,,,,high,1,0,1,0,1,,,,,,,,,
296377,2022-10-02_11h43.29.056,vts_reward_expectancy,2022.2.4,MacIntel,59.99160118,Chrome,1440,900,,,,,1,605,,,,,,,,,,,,,,,,,F,139,circle,1,0,,,,,,,,,,,,,,,,repeat,letter,lettRpt,d,0.6669,Hi,,,,,,0,,,,,,,,high,2,0,2,0,1,,,,,,,,,
296377,2022-10-02_11h43.29.056,vts_reward_expectancy,2022.2.4,MacIntel,59.99160118,Chrome,1440,900,,,,,1,606,,,,,,,,,,,,,,,,,B,146,triangle,1,0,,,,,,,,,,,,,,,,switch,number,numSwt,j,1.0279,Lo,,,,,,0,,,,,,,,high,3,0,3,0,1,,,,,,,,,
296377,2022-10-02_11h43.29.056,vts_reward_expectancy,2022.2.4,MacIntel,59.99160118,Chrome,1440,900,,,,,10,616,,,,,,,,,,,,,,,,,H,174,triangle,1,0,,,,,,,,,,,,,,,,switch,letter,lettSwt,d,0.7972,Lo,,,,,,0,,,,,,,,high,4,0,4,0,1,,,,,,,,,
296377,2022-10-02_11h43.29.056,vts_reward_expectancy,2022.2.4,MacIntel,59.99160118,Chrome,1440,900,,,,,10,626,,,,,,,,,,,,,,,,,Y,125,circle,1,0,,,,,,,,,,,,,,,,switch,number,numSwt,j,0.7627,Hi,,,,,,0,,,,,,,,high,5,0,5,0,1,,,,,,,,,
296377,2022-10-02_11h43.29.056,vts_reward_expectancy,2022.2.4,MacIntel,59.99160118,Chrome,1440,900,,,,,10,636,,,,,,,,,,,,,,,,,U,160,circle,1,0,,,,,,,,,,,,,,,,switch,letter,lettSwt,f,0.8302,Hi,,,,,,0,,,,,,,,high,6,0,6,0,1,,,,,,,,,
296377,2022-10-02_11h43.29.056,vts_reward_expectancy,2022.2.4,MacIntel,59.99160118,Chrome,1440,900,,,,,1,637,,,,,,,,,,,,,,,,,S,181,triangle,1,0,,,,,,,,,,,,,,,,repeat,letter,lettRpt,f,0.8661,Lo,,,,,,0,,,,,,,,high,7,0,7,0,1,,,,,,,,,
296377,2022-10-02_11h43.29.056,vts_reward_expectancy,2022.2.4,MacIntel,59.99160118,Chrome,1440,900,,,,,10,647,,,,,,,,,,,,,,,,,D,132,circle,1,0,,,,,,,,,,,,,,,,switch,number,numSwt,j,0.8121,Hi,,,,,,0,,,,,,,,high,8,0,8,0,1,,,,,,,,,
296377,2022-10-02_11h43.29.056,vts_reward_expectancy,2022.2.4,MacIntel,59.99160118,Chrome,1440,900,,,,,1,648,,,,,,,,,,,,,,,,,W,167,triangle,1,0,,,,,,,,,,,,,,,,switch,letter,lettSwt,f,0.7073,Lo,,,,,,0,,,,,,,,high,9,0,9,0,1,,,,,,,,,
296377,2022-10-02_11h43.29.056,vts_reward_expectancy,2022.2.4,MacIntel,59.99160118,Chrome,1440,900,,,,,0,648,,,,,,,,,,,,,,,,,F,139,circle,1,0,,,,,,,,,,,,,,,,repeat,letter,lettRpt,d,1.0629,Hi,,,,,,0,,,,,,,,high,10,0,10,0,1,,,,,,,,,
296377,2022-10-02_11h43.29.056,vts_reward_expectancy,2022.2.4,MacIntel,59.99160118,Chrome,1440,900,,,,,1,649,,,,,,,,,,,,,,,,,B,146,triangle,1,0,,,,,,,,,,,,,,,,switch,number,numSwt,j,0.7269,Lo,,,,,,0,,,,,,,,high,11,0,11,0,1,,,,,,,,,
296377,2022-10-02_11h43.29.056,vts_reward_expectancy,2022.2.4,MacIntel,59.99160118,Chrome,1440,900,,,,,10,659,,,,,,,,,,,,,,,,,H,174,circle,1,0,,,,,,,,,,,,,,,,repeat,number,numRpt,k,0.8791,Hi,,,,,,0,,,,,,,,high,12,0,12,0,1,,,,,,,,,
296377,2022-10-02_11h43.29.056,vts_reward_expectancy,2022.2.4,MacIntel,59.99160118,Chrome,1440,900,,,,,1,660,,,,,,,,,,,,,,,,,Y,125,triangle,1,0,,,,,,,,,,,,,,,,repeat,number,numRpt,j,0.6958,Lo,,,,,,0,,,,,,,,high,13,0,13,0,1,,,,,,,,,
296377,2022-10-02_11h43.29.056,vts_reward_expectancy,2022.2.4,MacIntel,59.99160118,Chrome,1440,900,,,,,1,661,,,,,,,,,,,,,,,,,U,160,triangle,1,0,,,,,,,,,,,,,,,,repeat,number,numRpt,k,0.9365,Lo,,,,,,0,,,,,,,,high,14,0,14,0,1,,,,,,,,,
296377,2022-10-02_11h43.29.056,vts_reward_expectancy,2022.2.4,MacIntel,59.99160118,Chrome,1440,900,,,,,10,671,,,,,,,,,,,,,,,,,S,181,circle,1,0,,,,,,,,,,,,,,,,repeat,number,numRpt,k,0.7325,Hi,,,,,,0,,,,,,,,high,15,0,15,0,1,,,,,,,,,
296377,2022-10-02_11h43.29.056,vts_reward_expectancy,2022.2.4,MacIntel,59.99160118,Chrome,1440,900,,,,,0,671,,,,,,,,,,,,,,,,,B,181,triangle,0,0,,,,,,,,,,,,,,,,switch,letter,NA,f,0.6375,Hi,,,,,,0,,,,,,,,high,16,0,16,0,1,,,,,,,,,
296377,2022-10-02_11h43.29.056,vts_reward_expectancy,2022.2.4,MacIntel,59.99160118,Chrome,1440,900,,,,,10,681,,,,,,,,,,,,,,,,,F,174,circle,1,1,,,,,,,,,,,,,,,,repeat,letter,lettRpt,d,0.783,Hi,,,,,,0,,,,,,,,high,17,0,17,0,1,,,,,,,,,
296377,2022-10-02_11h43.29.056,vts_reward_expectancy,2022.2.4,MacIntel,59.99160118,Chrome,1440,900,,,,,10,691,,,,,,,,,,,,,,,,,D,125,circle,1,0,,,,,,,,,,,,,,,,repeat,letter,lettRpt,d,0.6653,Hi,,,,,,0,,,,,,,,high,18,0,18,0,1,,,,,,,,,
296377,2022-10-02_11h43.29.056,vts_reward_expectancy,2022.2.4,MacIntel,59.99160118,Chrome,1440,900,,,,,10,701,,,,,,,,,,,,,,,,,Y,146,triangle,1,0,,,,,,,,,,,,,,,,repeat,letter,lettRpt,f,0.8536,Lo,,,,,,0,,,,,,,,high,19,0,19,0,1,,,,,,,,,
296377,2022-10-02_11h43.29.056,vts_reward_expectancy,2022.2.4,MacIntel,59.99160118,Chrome,1440,900,,,,,10,711,,,,,,,,,,,,,,,,,U,167,circle,1,0,,,,,,,,,,,,,,,,switch,number,numSwt,k,0.6305,Hi,,,,,,0,,,,,,,,high,20,0,20,0,1,,,,,,,,,
296377,2022-10-02_11h43.29.056,vts_reward_expectancy,2022.2.4,MacIntel,59.99160118,Chrome,1440,900,,,,,1,712,,,,,,,,,,,,,,,,,W,132,triangle,1,0,,,,,,,,,,,,,,,,repeat,number,numRpt,j,0.6821,Lo,,,,,,0,,,,,,,,high,21,0,21,0,1,,,,,,,,,
296377,2022-10-02_11h43.29.056,vts_reward_expectancy,2022.2.4,MacIntel,59.99160118,Chrome,1440,900,,,,,10,722,,,,,,,,,,,,,,,,,H,139,circle,1,0,,,,,,,,,,,,,,,,switch,letter,lettSwt,d,0.7982,Hi,,,,,,0,,,,,,,,high,22,0,22,0,1,,,,,,,,,
296377,2022-10-02_11h43.29.056,vts_reward_expectancy,2022.2.4,MacIntel,59.99160118,Chrome,1440,900,,,,,1,723,,,,,,,,,,,,,,,,,S,160,triangle,1,0,,,,,,,,,,,,,,,,repeat,letter,lettRpt,f,1.2149,Lo,,,,,,0,,,,,,,,high,23,0,23,0,1,,,,,,,,,
296377,2022-10-02_11h43.29.056,vts_reward_expectancy,2022.2.4,MacIntel,59.99160118,Chrome,1440,900,,,,,10,733,,,,,,,,,,,,,,,,,U,181,circle,1,0,,,,,,,,,,,,,,,,repeat,letter,lettRpt,f,0.6833,Hi,,,,,,0,,,,,,,,high,24,0,24,0,1,,,,,,,,,
296377,2022-10-02_11h43.29.056,vts_reward_expectancy,2022.2.4,MacIntel,59.99160118,Chrome,1440,900,,,,,1,734,,,,,,,,,,,,,,,,,H,174,triangle,1,0,,,,,,,,,,,,,,,,switch,number,numSwt,k,0.6194,Lo,,,,,,0,,,,,,,,high,25,0,25,0,1,,,,,,,,,
296377,2022-10-02_11h43.29.056,vts_reward_expectancy,2022.2.4,MacIntel,59.99160118,Chrome,1440,900,,,,,10,744,,,,,,,,,,,,,,,,,D,139,circle,1,0,,,,,,,,,,,,,,,,repeat,number,numRpt,j,0.5142,Hi,,,,,,0,,,,,,,,high,26,0,26,0,1,,,,,,,,,
296377,2022-10-02_11h43.29.056,vts_reward_expectancy,2022.2.4,MacIntel,59.99160118,Chrome,1440,900,,,,,1,745,,,,,,,,,,,,,,,,,Y,160,triangle,1,0,,,,,,,,,,,,,,,,repeat,number,numRpt,k,0.5838,Lo,,,,,,0,,,,,,,,high,27,0,27,0,1,,,,,,,,,
296377,2022-10-02_11h43.29.056,vts_reward_expectancy,2022.2.4,MacIntel,59.99160118,Chrome,1440,900,,,,,10,755,,,,,,,,,,,,,,,,,W,167,circle,1,0,,,,,,,,,,,,,,,,repeat,number,numRpt,k,0.501,Hi,,,,,,0,,,,,,,,high,28,0,28,0,1,,,,,,,,,
296377,2022-10-02_11h43.29.056,vts_reward_expectancy,2022.2.4,MacIntel,59.99160118,Chrome,1440,900,,,,,10,765,,,,,,,,,,,,,,,,,S,132,triangle,1,0,,,,,,,,,,,,,,,,switch,letter,lettSwt,f,0.6675,Lo,,,,,,0,,,,,,,,high,29,0,29,0,1,,,,,,,,,
296377,2022-10-02_11h43.29.056,vts_reward_expectancy,2022.2.4,MacIntel,59.99160118,Chrome,1440,900,,,,,10,775,,,,,,,,,,,,,,,,,B,146,circle,1,0,,,,,,,,,,,,,,,,repeat,letter,lettRpt,d,0.5922,Hi,,,,,,0,,,,,,,,high,30,0,30,0,1,,,,,,,,,
296377,2022-10-02_11h43.29.056,vts_reward_expectancy,2022.2.4,MacIntel,59.99160118,Chrome,1440,900,,,,,1,776,,,,,,,,,,,,,,,,,F,125,triangle,1,0,,,,,,,,,,,,,,,,switch,number,numSwt,j,0.4491,Lo,,,,,,0,,,,,,,,high,31,0,31,0,1,,,,,,,,,
296377,2022-10-02_11h43.29.056,vts_reward_expectancy,2022.2.4,MacIntel,59.99160118,Chrome,1440,900,,,,,0,776,,,,,,,,,,,,,,,,,S,174,star,1,0,,,,,,,,,,,,,,,,switch,letter,lettSwt,f,0.9512,Hi,,,,,,1,,,,,,space,3.5679,low,0,0,0,0,1,,,,,,,,,
296377,2022-10-02_11h43.29.056,vts_reward_expectancy,2022.2.4,MacIntel,59.99160118,Chrome,1440,900,,,,,0,776,,,,,,,,,,,,,,,,,D,181,hexagon,0,0,,,,,,,,,,,,,,,,repeat,letter,NA,f,0.7813,Hi,,,,,,1,,,,,,,,low,1,0,1,0,1,,,,,,,,,
296377,2022-10-02_11h43.29.056,vts_reward_expectancy,2022.2.4,MacIntel,59.99160118,Chrome,1440,900,,,,,10,786,,,,,,,,,,,,,,,,,B,146,star,1,1,,,,,,,,,,,,,,,,repeat,letter,lettRpt,d,0.6317,Hi,,,,,,1,,,,,,,,low,2,0,2,0,1,,,,,,,,,
296377,2022-10-02_11h43.29.056,vts_reward_expectancy,2022.2.4,MacIntel,59.99160118,Chrome,1440,900,,,,,1,787,,,,,,,,,,,,,,,,,H,167,hexagon,1,0,,,,,,,,,,,,,,,,switch,number,numSwt,k,0.6569,Lo,,,,,,1,,,,,,,,low,3,0,3,0,1,,,,,,,,,
296377,2022-10-02_11h43.29.056,vts_reward_expectancy,2022.2.4,MacIntel,59.99160118,Chrome,1440,900,,,,,1,788,,,,,,,,,,,,,,,,,F,160,star,1,0,,,,,,,,,,,,,,,,repeat,number,numRpt,k,0.5499,Hi,,,,,,1,,,,,,,,low,4,0,4,0,1,,,,,,,,,
296377,2022-10-02_11h43.29.056,vts_reward_expectancy,2022.2.4,MacIntel,59.99160118,Chrome,1440,900,,,,,10,798,,,,,,,,,,,,,,,,,Y,125,hexagon,1,0,,,,,,,,,,,,,,,,switch,letter,lettSwt,f,0.822,Lo,,,,,,1,,,,,,,,low,5,0,5,0,1,,,,,,,,,
296377,2022-10-02_11h43.29.056,vts_reward_expectancy,2022.2.4,MacIntel,59.99160118,Chrome,1440,900,,,,,1,799,,,,,,,,,,,,,,,,,W,139,hexagon,1,0,,,,,,,,,,,,,,,,switch,number,numSwt,j,0.5794,Lo,,,,,,1,,,,,,,,low,6,0,6,0,1,,,,,,,,,
296377,2022-10-02_11h43.29.056,vts_reward_expectancy,2022.2.4,MacIntel,59.99160118,Chrome,1440,900,,,,,1,800,,,,,,,,,,,,,,,,,U,132,star,1,0,,,,,,,,,,,,,,,,repeat,number,numRpt,j,0.5077,Hi,,,,,,1,,,,,,,,low,7,0,7,0,1,,,,,,,,,
296377,2022-10-02_11h43.29.056,vts_reward_expectancy,2022.2.4,MacIntel,59.99160118,Chrome,1440,900,,,,,0,800,,,,,,,,,,,,,,,,,S,174,hexagon,0,0,,,,,,,,,,,,,,,,repeat,number,NA,j,0.4636,Hi,,,,,,1,,,,,,,,low,8,0,8,0,1,,,,,,,,,
296377,2022-10-02_11h43.29.056,vts_reward_expectancy,2022.2.4,MacIntel,59.99160118,Chrome,1440,900,,,,,10,810,,,,,,,,,,,,,,,,,D,181,star,1,1,,,,,,,,,,,,,,,,repeat,number,numRpt,k,0.4896,Hi,,,,,,1,,,,,,,,low,9,0,9,0,1,,,,,,,,,
296377,2022-10-02_11h43.29.056,vts_reward_expectancy,2022.2.4,MacIntel,59.99160118,Chrome,1440,900,,,,,10,820,,,,,,,,,,,,,,,,,B,146,hexagon,1,0,,,,,,,,,,,,,,,,switch,letter,lettSwt,d,0.5183,Lo,,,,,,1,,,,,,,,low,10,0,10,0,1,,,,,,,,,
296377,2022-10-02_11h43.29.056,vts_reward_expectancy,2022.2.4,MacIntel,59.99160118,Chrome,1440,900,,,,,0,820,,,,,,,,,,,,,,,,,H,167,star,1,0,,,,,,,,,,,,,,,,switch,number,numSwt,k,0.7523,Hi,,,,,,1,,,,,,,,low,11,0,11,0,1,,,,,,,,,
296377,2022-10-02_11h43.29.056,vts_reward_expectancy,2022.2.4,MacIntel,59.99160118,Chrome,1440,900,,,,,1,821,,,,,,,,,,,,,,,,,F,160,hexagon,1,0,,,,,,,,,,,,,,,,repeat,number,numRpt,k,0.605,Lo,,,,,,1,,,,,,,,low,12,0,12,0,1,,,,,,,,,
296377,2022-10-02_11h43.29.056,vts_reward_expectancy,2022.2.4,MacIntel,59.99160118,Chrome,1440,900,,,,,10,831,,,,,,,,,,,,,,,,,Y,125,star,1,0,,,,,,,,,,,,,,,,repeat,number,numRpt,j,0.5001,Hi,,,,,,1,,,,,,,,low,13,0,13,0,1,,,,,,,,,
296377,2022-10-02_11h43.29.056,vts_reward_expectancy,2022.2.4,MacIntel,59.99160118,Chrome,1440,900,,,,,0,831,,,,,,,,,,,,,,,,,W,139,star,1,0,,,,,,,,,,,,,,,,repeat,number,numRpt,j,0.6729,Hi,,,,,,1,,,,,,,,low,14,0,14,0,1,,,,,,,,,
296377,2022-10-02_11h43.29.056,vts_reward_expectancy,2022.2.4,MacIntel,59.99160118,Chrome,1440,900,,,,,10,841,,,,,,,,,,,,,,,,,U,132,hexagon,1,0,,,,,,,,,,,,,,,,repeat,number,numRpt,j,0.4626,Lo,,,,,,1,,,,,,,,low,15,0,15,0,1,,,,,,,,,
296377,2022-10-02_11h43.29.056,vts_reward_expectancy,2022.2.4,MacIntel,59.99160118,Chrome,1440,900,,,,,10,851,,,,,,,,,,,,,,,,,W,139,star,1,0,,,,,,,,,,,,,,,,repeat,number,numRpt,j,0.506,Hi,,,,,,1,,,,,,,,low,16,0,16,0,1,,,,,,,,,
296377,2022-10-02_11h43.29.056,vts_reward_expectancy,2022.2.4,MacIntel,59.99160118,Chrome,1440,900,,,,,1,852,,,,,,,,,,,,,,,,,S,125,hexagon,1,0,,,,,,,,,,,,,,,,repeat,number,numRpt,j,0.4814,Lo,,,,,,1,,,,,,,,low,17,0,17,0,1,,,,,,,,,
296377,2022-10-02_11h43.29.056,vts_reward_expectancy,2022.2.4,MacIntel,59.99160118,Chrome,1440,900,,,,,1,853,,,,,,,,,,,,,,,,,Y,167,hexagon,1,0,,,,,,,,,,,,,,,,repeat,number,numRpt,k,0.5317,Lo,,,,,,1,,,,,,,,low,18,0,18,0,1,,,,,,,,,
296377,2022-10-02_11h43.29.056,vts_reward_expectancy,2022.2.4,MacIntel,59.99160118,Chrome,1440,900,,,,,1,854,,,,,,,,,,,,,,,,,F,174,star,1,0,,,,,,,,,,,,,,,,repeat,number,numRpt,k,0.4695,Hi,,,,,,1,,,,,,,,low,19,0,19,0,1,,,,,,,,,
296377,2022-10-02_11h43.29.056,vts_reward_expectancy,2022.2.4,MacIntel,59.99160118,Chrome,1440,900,,,,,0,854,,,,,,,,,,,,,,,,,D,132,hexagon,0,0,,,,,,,,,,,,,,,,repeat,number,NA,k,0.604,Hi,,,,,,1,,,,,,,,low,20,0,20,0,1,,,,,,,,,
296377,2022-10-02_11h43.29.056,vts_reward_expectancy,2022.2.4,MacIntel,59.99160118,Chrome,1440,900,,,,,0,854,,,,,,,,,,,,,,,,,H,181,star,1,1,,,,,,,,,,,,,,,,repeat,number,numRpt,k,0.8035,Hi,,,,,,1,,,,,,,,low,21,0,21,0,1,,,,,,,,,
296377,2022-10-02_11h43.29.056,vts_reward_expectancy,2022.2.4,MacIntel,59.99160118,Chrome,1440,900,,,,,0,854,,,,,,,,,,,,,,,,,B,160,star,1,0,,,,,,,,,,,,,,,,repeat,number,numRpt,k,0.7003,Hi,,,,,,1,,,,,,,,low,22,0,22,0,1,,,,,,,,,
296377,2022-10-02_11h43.29.056,vts_reward_expectancy,2022.2.4,MacIntel,59.99160118,Chrome,1440,900,,,,,10,864,,,,,,,,,,,,,,,,,U,146,hexagon,1,0,,,,,,,,,,,,,,,,repeat,number,numRpt,j,0.5538,Lo,,,,,,1,,,,,,,,low,23,0,23,0,1,,,,,,,,,
296377,2022-10-02_11h43.29.056,vts_reward_expectancy,2022.2.4,MacIntel,59.99160118,Chrome,1440,900,,,,,10,874,,,,,,,,,,,,,,,,,D,139,hexagon,1,0,,,,,,,,,,,,,,,,repeat,number,numRpt,j,0.7624,Lo,,,,,,1,,,,,,,,low,24,0,24,0,1,,,,,,,,,
296377,2022-10-02_11h43.29.056,vts_reward_expectancy,2022.2.4,MacIntel,59.99160118,Chrome,1440,900,,,,,0,874,,,,,,,,,,,,,,,,,W,160,star,1,0,,,,,,,,,,,,,,,,repeat,number,numRpt,k,0.6311,Hi,,,,,,1,,,,,,,,low,25,0,25,0,1,,,,,,,,,
296377,2022-10-02_11h43.29.056,vts_reward_expectancy,2022.2.4,MacIntel,59.99160118,Chrome,1440,900,,,,,10,884,,,,,,,,,,,,,,,,,B,174,star,1,0,,,,,,,,,,,,,,,,repeat,number,numRpt,k,0.5551,Hi,,,,,,1,,,,,,,,low,26,0,26,0,1,,,,,,,,,
296377,2022-10-02_11h43.29.056,vts_reward_expectancy,2022.2.4,MacIntel,59.99160118,Chrome,1440,900,,,,,1,885,,,,,,,,,,,,,,,,,S,132,hexagon,1,0,,,,,,,,,,,,,,,,repeat,number,numRpt,j,0.6629,Lo,,,,,,1,,,,,,,,low,27,0,27,0,1,,,,,,,,,
296377,2022-10-02_11h43.29.056,vts_reward_expectancy,2022.2.4,MacIntel,59.99160118,Chrome,1440,900,,,,,1,886,,,,,,,,,,,,,,,,,H,167,hexagon,1,0,,,,,,,,,,,,,,,,repeat,number,numRpt,k,0.5783,Lo,,,,,,1,,,,,,,,low,28,0,28,0,1,,,,,,,,,
296377,2022-10-02_11h43.29.056,vts_reward_expectancy,2022.2.4,MacIntel,59.99160118,Chrome,1440,900,,,,,0,886,,,,,,,,,,,,,,,,,U,125,star,1,0,,,,,,,,,,,,,,,,repeat,number,numRpt,j,0.6305,Hi,,,,,,1,,,,,,,,low,29,0,29,0,1,,,,,,,,,
296377,2022-10-02_11h43.29.056,vts_reward_expectancy,2022.2.4,MacIntel,59.99160118,Chrome,1440,900,,,,,1,887,,,,,,,,,,,,,,,,,Y,181,hexagon,1,0,,,,,,,,,,,,,,,,repeat,number,numRpt,k,0.6294,Lo,,,,,,1,,,,,,,,low,30,0,30,0,1,,,,,,,,,
296377,2022-10-02_11h43.29.056,vts_reward_expectancy,2022.2.4,MacIntel,59.99160118,Chrome,1440,900,,,,,0,887,,,,,,,,,,,,,,,,,F,146,star,1,0,,,,,,,,,,,,,,,,switch,letter,lettSwt,d,0.9144,Hi,,,,,,1,,,,,,,,low,31,0,31,0,1,,,,,,,,,
296377,2022-10-02_11h43.29.056,vts_reward_expectancy,2022.2.4,MacIntel,59.99160118,Chrome,1440,900,,,,,0,887,,,,,,,,,,,,,,,,,H,125,circle,1,0,,,,,,,,,,,,,,,,repeat,letter,lettRpt,d,1.046,Hi,,,,,,2,,,,,,space,0.8188,high,0,0,0,0,1,,,,,,,,,
296377,2022-10-02_11h43.29.056,vts_reward_expectancy,2022.2.4,MacIntel,59.99160118,Chrome,1440,900,,,,,1,888,,,,,,,,,,,,,,,,,W,174,triangle,1,0,,,,,,,,,,,,,,,,repeat,letter,lettRpt,f,0.633,Lo,,,,,,2,,,,,,,,high,1,0,1,0,1,,,,,,,,,
296377,2022-10-02_11h43.29.056,vts_reward_expectancy,2022.2.4,MacIntel,59.99160118,Chrome,1440,900,,,,,10,898,,,,,,,,,,,,,,,,,S,181,circle,1,0,,,,,,,,,,,,,,,,switch,number,numSwt,k,0.5268,Hi,,,,,,2,,,,,,,,high,2,0,2,0,1,,,,,,,,,
296377,2022-10-02_11h43.29.056,vts_reward_expectancy,2022.2.4,MacIntel,59.99160118,Chrome,1440,900,,,,,1,899,,,,,,,,,,,,,,,,,U,132,triangle,1,0,,,,,,,,,,,,,,,,switch,letter,lettSwt,f,0.5299,Lo,,,,,,2,,,,,,,,high,3,0,3,0,1,,,,,,,,,
296377,2022-10-02_11h43.29.056,vts_reward_expectancy,2022.2.4,MacIntel,59.99160118,Chrome,1440,900,,,,,1,900,,,,,,,,,,,,,,,,,Y,146,triangle,1,0,,,,,,,,,,,,,,,,repeat,letter,lettRpt,f,0.6688,Lo,,,,,,2,,,,,,,,high,4,0,4,0,1,,,,,,,,,
296377,2022-10-02_11h43.29.056,vts_reward_expectancy,2022.2.4,MacIntel,59.99160118,Chrome,1440,900,,,,,1,901,,,,,,,,,,,,,,,,,F,167,circle,1,0,,,,,,,,,,,,,,,,repeat,letter,lettRpt,d,0.5857,Hi,,,,,,2,,,,,,,,high,5,0,5,0,1,,,,,,,,,
296377,2022-10-02_11h43.29.056,vts_reward_expectancy,2022.2.4,MacIntel,59.99160118,Chrome,1440,900,,,,,10,911,,,,,,,,,,,,,,,,,B,139,circle,1,0,,,,,,,,,,,,,,,,repeat,letter,lettRpt,d,0.5479,Hi,,,,,,2,,,,,,,,high,6,0,6,0,1,,,,,,,,,
296377,2022-10-02_11h43.29.056,vts_reward_expectancy,2022.2.4,MacIntel,59.99160118,Chrome,1440,900,,,,,1,912,,,,,,,,,,,,,,,,,D,160,triangle,1,0,,,,,,,,,,,,,,,,repeat,letter,lettRpt,d,0.4282,Lo,,,,,,2,,,,,,,,high,7,0,7,0,1,,,,,,,,,
296377,2022-10-02_11h43.29.056,vts_reward_expectancy,2022.2.4,MacIntel,59.99160118,Chrome,1440,900,,,,,1,913,,,,,,,,,,,,,,,,,H,125,triangle,1,0,,,,,,,,,,,,,,,,repeat,letter,lettRpt,d,0.5672,Lo,,,,,,2,,,,,,,,high,8,0,8,0,1,,,,,,,,,
296377,2022-10-02_11h43.29.056,vts_reward_expectancy,2022.2.4,MacIntel,59.99160118,Chrome,1440,900,,,,,1,914,,,,,,,,,,,,,,,,,W,174,circle,1,0,,,,,,,,,,,,,,,,repeat,letter,lettRpt,f,0.6164,Hi,,,,,,2,,,,,,,,high,9,0,9,0,1,,,,,,,,,
296377,2022-10-02_11h43.29.056,vts_reward_expectancy,2022.2.4,MacIntel,59.99160118,Chrome,1440,900,,,,,0,914,,,,,,,,,,,,,,,,,S,181,triangle,0,0,,,,,,,,,,,,,,,,repeat,letter,NA,d,0.6636,Hi,,,,,,2,,,,,,,,high,10,0,10,0,1,,,,,,,,,
296377,2022-10-02_11h43.29.056,vts_reward_expectancy,2022.2.4,MacIntel,59.99160118,Chrome,1440,900,,,,,10,924,,,,,,,,,,,,,,,,,U,132,circle,1,1,,,,,,,,,,,,,,,,repeat,letter,lettRpt,f,0.4811,Hi,,,,,,2,,,,,,,,high,11,0,11,0,1,,,,,,,,,
296377,2022-10-02_11h43.29.056,vts_reward_expectancy,2022.2.4,MacIntel,59.99160118,Chrome,1440,900,,,,,10,934,,,,,,,,,,,,,,,,,Y,146,circle,1,0,,,,,,,,,,,,,,,,repeat,letter,lettRpt,f,0.4489,Hi,,,,,,2,,,,,,,,high,12,0,12,0,1,,,,,,,,,
296377,2022-10-02_11h43.29.056,vts_reward_expectancy,2022.2.4,MacIntel,59.99160118,Chrome,1440,900,,,,,1,935,,,,,,,,,,,,,,,,,F,167,triangle,1,0,,,,,,,,,,,,,,,,switch,number,numSwt,k,0.6068,Lo,,,,,,2,,,,,,,,high,13,0,13,0,1,,,,,,,,,
296377,2022-10-02_11h43.29.056,vts_reward_expectancy,2022.2.4,MacIntel,59.99160118,Chrome,1440,900,,,,,10,945,,,,,,,,,,,,,,,,,B,139,triangle,1,0,,,,,,,,,,,,,,,,repeat,number,numRpt,j,0.5318,Lo,,,,,,2,,,,,,,,high,14,0,14,0,1,,,,,,,,,
296377,2022-10-02_11h43.29.056,vts_reward_expectancy,2022.2.4,MacIntel,59.99160118,Chrome,1440,900,,,,,0,945,,,,,,,,,,,,,,,,,D,160,circle,0,0,,,,,,,,,,,,,,,,switch,letter,NA,f,0.3669,Lo,,,,,,2,,,,,,,,high,15,0,15,0,1,,,,,,,,,
296377,2022-10-02_11h43.29.056,vts_reward_expectancy,2022.2.4,MacIntel,59.99160118,Chrome,1440,900,,,,,10,955,,,,,,,,,,,,,,,,,B,181,circle,1,1,,,,,,,,,,,,,,,,repeat,letter,lettRpt,d,0.511,Hi,,,,,,2,,,,,,,,high,16,0,16,0,1,,,,,,,,,
296377,2022-10-02_11h43.29.056,vts_reward_expectancy,2022.2.4,MacIntel,59.99160118,Chrome,1440,900,,,,,1,956,,,,,,,,,,,,,,,,,Y,174,triangle,1,0,,,,,,,,,,,,,,,,switch,number,numSwt,k,0.4366,Lo,,,,,,2,,,,,,,,high,17,0,17,0,1,,,,,,,,,
296377,2022-10-02_11h43.29.056,vts_reward_expectancy,2022.2.4,MacIntel,59.99160118,Chrome,1440,900,,,,,10,966,,,,,,,,,,,,,,,,,F,160,circle,1,0,,,,,,,,,,,,,,,,repeat,number,numRpt,k,0.4316,Hi,,,,,,2,,,,,,,,high,18,0,18,0,1,,,,,,,,,
296377,2022-10-02_11h43.29.056,vts_reward_expectancy,2022.2.4,MacIntel,59.99160118,Chrome,1440,900,,,,,1,967,,,,,,,,,,,,,,,,,U,125,triangle,1,0,,,,,,,,,,,,,,,,repeat,number,numRpt,j,0.4479,Lo,,,,,,2,,,,,,,,high,19,0,19,0,1,,,,,,,,,
296377,2022-10-02_11h43.29.056,vts_reward_expectancy,2022.2.4,MacIntel,59.99160118,Chrome,1440,900,,,,,10,977,,,,,,,,,,,,,,,,,W,167,triangle,1,0,,,,,,,,,,,,,,,,switch,letter,lettSwt,f,0.7789,Lo,,,,,,2,,,,,,,,high,20,0,20,0,1,,,,,,,,,
296377,2022-10-02_11h43.29.056,vts_reward_expectancy,2022.2.4,MacIntel,59.99160118,Chrome,1440,900,,,,,0,977,,,,,,,,,,,,,,,,,H,146,circle,1,0,,,,,,,,,,,,,,,,repeat,letter,lettRpt,d,0.7201,Hi,,,,,,2,,,,,,,,high,21,0,21,0,1,,,,,,,,,
296377,2022-10-02_11h43.29.056,vts_reward_expectancy,2022.2.4,MacIntel,59.99160118,Chrome,1440,900,,,,,10,987,,,,,,,,,,,,,,,,,D,139,circle,1,0,,,,,,,,,,,,,,,,repeat,letter,lettRpt,d,0.5275,Hi,,,,,,2,,,,,,,,high,22,0,22,0,1,,,,,,,,,
296377,2022-10-02_11h43.29.056,vts_reward_expectancy,2022.2.4,MacIntel,59.99160118,Chrome,1440,900,,,,,1,988,,,,,,,,,,,,,,,,,S,132,triangle,1,0,,,,,,,,,,,,,,,,repeat,letter,lettRpt,f,0.6108,Lo,,,,,,2,,,,,,,,high,23,0,23,0,1,,,,,,,,,
296377,2022-10-02_11h43.29.056,vts_reward_expectancy,2022.2.4,MacIntel,59.99160118,Chrome,1440,900,,,,,1,989,,,,,,,,,,,,,,,,,Y,167,triangle,1,0,,,,,,,,,,,,,,,,repeat,letter,lettRpt,f,0.534,Lo,,,,,,2,,,,,,,,high,24,0,24,0,1,,,,,,,,,
296377,2022-10-02_11h43.29.056,vts_reward_expectancy,2022.2.4,MacIntel,59.99160118,Chrome,1440,900,,,,,10,999,,,,,,,,,,,,,,,,,D,125,circle,1,0,,,,,,,,,,,,,,,,switch,number,numSwt,j,0.3872,Hi,,,,,,2,,,,,,,,high,25,0,25,0,1,,,,,,,,,
296377,2022-10-02_11h43.29.056,vts_reward_expectancy,2022.2.4,MacIntel,59.99160118,Chrome,1440,900,,,,,10,1009,,,,,,,,,,,,,,,,,F,160,circle,1,0,,,,,,,,,,,,,,,,switch,letter,lettSwt,d,0.8049,Hi,,,,,,2,,,,,,,,high,26,0,26,0,1,,,,,,,,,
296377,2022-10-02_11h43.29.056,vts_reward_expectancy,2022.2.4,MacIntel,59.99160118,Chrome,1440,900,,,,,1,1010,,,,,,,,,,,,,,,,,B,146,triangle,1,0,,,,,,,,,,,,,,,,switch,number,numSwt,j,0.5487,Lo,,,,,,2,,,,,,,,high,27,0,27,0,1,,,,,,,,,
296377,2022-10-02_11h43.29.056,vts_reward_expectancy,2022.2.4,MacIntel,59.99160118,Chrome,1440,900,,,,,0,1010,,,,,,,,,,,,,,,,,U,132,triangle,0,0,,,,,,,,,,,,,,,,switch,letter,NA,d,0.4432,Lo,,,,,,2,,,,,,,,high,28,0,28,0,1,,,,,,,,,
296377,2022-10-02_11h43.29.056,vts_reward_expectancy,2022.2.4,MacIntel,59.99160118,Chrome,1440,900,,,,,0,1010,,,,,,,,,,,,,,,,,H,174,circle,1,1,,,,,,,,,,,,,,,,repeat,letter,lettRpt,d,0.6317,Hi,,,,,,2,,,,,,,,high,29,0,29,0,1,,,,,,,,,
296377,2022-10-02_11h43.29.056,vts_reward_expectancy,2022.2.4,MacIntel,59.99160118,Chrome,1440,900,,,,,0,1010,,,,,,,,,,,,,,,,,S,181,circle,0,0,,,,,,,,,,,,,,,,repeat,letter,NA,d,0.6025,Hi,,,,,,2,,,,,,,,high,30,0,30,0,1,,,,,,,,,
296377,2022-10-02_11h43.29.056,vts_reward_expectancy,2022.2.4,MacIntel,59.99160118,Chrome,1440,900,,,,,10,1020,,,,,,,,,,,,,,,,,W,139,triangle,1,1,,,,,,,,,,,,,,,,repeat,letter,lettRpt,f,0.539,Lo,,,,,,2,,,,,,,,high,31,0,31,0,1,,,,,,,,,
296377,2022-10-02_11h43.29.056,vts_reward_expectancy,2022.2.4,MacIntel,59.99160118,Chrome,1440,900,,,,,0,1020,,,,,,,,,,,,,,,,,U,132,star,1,0,,,,,,,,,,,,,,,,repeat,letter,lettRpt,f,0.6169,Hi,,,,,,3,,,,,,space,216.1354,low,0,0,0,0,1,,,,,,,,,
296377,2022-10-02_11h43.29.056,vts_reward_expectancy,2022.2.4,MacIntel,59.99160118,Chrome,1440,900,,,,,10,1030,,,,,,,,,,,,,,,,,B,174,hexagon,1,0,,,,,,,,,,,,,,,,repeat,letter,lettRpt,d,0.4303,Lo,,,,,,3,,,,,,,,low,1,0,1,0,1,,,,,,,,,
296377,2022-10-02_11h43.29.056,vts_reward_expectancy,2022.2.4,MacIntel,59.99160118,Chrome,1440,900,,,,,0,1030,,,,,,,,,,,,,,,,,D,181,star,1,0,,,,,,,,,,,,,,,,switch,number,numSwt,k,0.4663,Hi,,,,,,3,,,,,,,,low,2,0,2,0,1,,,,,,,,,
296377,2022-10-02_11h43.29.056,vts_reward_expectancy,2022.2.4,MacIntel,59.99160118,Chrome,1440,900,,,,,0,1030,,,,,,,,,,,,,,,,,F,125,hexagon,0,0,,,,,,,,,,,,,,,,repeat,number,NA,k,0.3817,Hi,,,,,,3,,,,,,,,low,3,0,3,0,1,,,,,,,,,
296377,2022-10-02_11h43.29.056,vts_reward_expectancy,2022.2.4,MacIntel,59.99160118,Chrome,1440,900,,,,,0,1030,,,,,,,,,,,,,,,,,Y,160,star,0,1,,,,,,,,,,,,,,,,switch,letter,NA,d,0.6248,Hi,,,,,,3,,,,,,,,low,4,0,4,0,1,,,,,,,,,
296377,2022-10-02_11h43.29.056,vts_reward_expectancy,2022.2.4,MacIntel,59.99160118,Chrome,1440,900,,,,,10,1040,,,,,,,,,,,,,,,,,S,167,hexagon,1,1,,,,,,,,,,,,,,,,repeat,letter,lettRpt,f,0.5949,Lo,,,,,,3,,,,,,,,low,5,0,5,0,1,,,,,,,,,
296377,2022-10-02_11h43.29.056,vts_reward_expectancy,2022.2.4,MacIntel,59.99160118,Chrome,1440,900,,,,,0,1040,,,,,,,,,,,,,,,,,W,139,star,1,0,,,,,,,,,,,,,,,,switch,number,numSwt,j,0.5286,Hi,,,,,,3,,,,,,,,low,6,0,6,0,1,,,,,,,,,
296377,2022-10-02_11h43.29.056,vts_reward_expectancy,2022.2.4,MacIntel,59.99160118,Chrome,1440,900,,,,,1,1041,,,,,,,,,,,,,,,,,H,146,hexagon,1,0,,,,,,,,,,,,,,,,repeat,number,numRpt,j,0.5459,Lo,,,,,,3,,,,,,,,low,7,0,7,0,1,,,,,,,,,
296377,2022-10-02_11h43.29.056,vts_reward_expectancy,2022.2.4,MacIntel,59.99160118,Chrome,1440,900,,,,,10,1051,,,,,,,,,,,,,,,,,U,132,hexagon,1,0,,,,,,,,,,,,,,,,repeat,number,numRpt,j,0.4627,Lo,,,,,,3,,,,,,,,low,8,0,8,0,1,,,,,,,,,
296377,2022-10-02_11h43.29.056,vts_reward_expectancy,2022.2.4,MacIntel,59.99160118,Chrome,1440,900,,,,,0,1051,,,,,,,,,,,,,,,,,B,174,star,1,0,,,,,,,,,,,,,,,,repeat,number,numRpt,k,0.6085,Hi,,,,,,3,,,,,,,,low,9,0,9,0,1,,,,,,,,,
296377,2022-10-02_11h43.29.056,vts_reward_expectancy,2022.2.4,MacIntel,59.99160118,Chrome,1440,900,,,,,0,1051,,,,,,,,,,,,,,,,,D,181,star,1,0,,,,,,,,,,,,,,,,repeat,number,numRpt,k,0.5187,Hi,,,,,,3,,,,,,,,low,10,0,10,0,1,,,,,,,,,
296377,2022-10-02_11h43.29.056,vts_reward_expectancy,2022.2.4,MacIntel,59.99160118,Chrome,1440,900,,,,,1,1052,,,,,,,,,,,,,,,,,F,125,hexagon,1,0,,,,,,,,,,,,,,,,repeat,number,numRpt,j,0.7251,Lo,,,,,,3,,,,,,,,low,11,0,11,0,1,,,,,,,,,
296377,2022-10-02_11h43.29.056,vts_reward_expectancy,2022.2.4,MacIntel,59.99160118,Chrome,1440,900,,,,,1,1053,,,,,,,,,,,,,,,,,Y,160,hexagon,1,0,,,,,,,,,,,,,,,,repeat,number,numRpt,k,0.6347,Lo,,,,,,3,,,,,,,,low,12,0,12,0,1,,,,,,,,,
296377,2022-10-02_11h43.29.056,vts_reward_expectancy,2022.2.4,MacIntel,59.99160118,Chrome,1440,900,,,,,0,1053,,,,,,,,,,,,,,,,,S,167,star,1,0,,,,,,,,,,,,,,,,repeat,number,numRpt,k,0.666,Hi,,,,,,3,,,,,,,,low,13,0,13,0,1,,,,,,,,,
296377,2022-10-02_11h43.29.056,vts_reward_expectancy,2022.2.4,MacIntel,59.99160118,Chrome,1440,900,,,,,0,1053,,,,,,,,,,,,,,,,,W,139,hexagon,0,0,,,,,,,,,,,,,,,,repeat,number,NA,k,0.6454,Hi,,,,,,3,,,,,,,,low,14,0,14,0,1,,,,,,,,,
296377,2022-10-02_11h43.29.056,vts_reward_expectancy,2022.2.4,MacIntel,59.99160118,Chrome,1440,900,,,,,0,1053,,,,,,,,,,,,,,,,,H,146,star,1,1,,,,,,,,,,,,,,,,repeat,number,numRpt,j,0.5692,Hi,,,,,,3,,,,,,,,low,15,0,15,0,1,,,,,,,,,
296377,2022-10-02_11h43.29.056,vts_reward_expectancy,2022.2.4,MacIntel,59.99160118,Chrome,1440,900,,,,,0,1053,,,,,,,,,,,,,,,,,W,132,star,1,0,,,,,,,,,,,,,,,,repeat,number,numRpt,j,0.6127,Hi,,,,,,3,,,,,,,,low,16,0,16,0,1,,,,,,,,,
296377,2022-10-02_11h43.29.056,vts_reward_expectancy,2022.2.4,MacIntel,59.99160118,Chrome,1440,900,,,,,10,1063,,,,,,,,,,,,,,,,,S,174,hexagon,1,0,,,,,,,,,,,,,,,,repeat,number,numRpt,k,0.5654,Lo,,,,,,3,,,,,,,,low,17,0,17,0,1,,,,,,,,,
296377,2022-10-02_11h43.29.056,vts_reward_expectancy,2022.2.4,MacIntel,59.99160118,Chrome,1440,900,,,,,0,1063,,,,,,,,,,,,,,,,,F,139,star,1,0,,,,,,,,,,,,,,,,repeat,number,numRpt,j,0.6586,Hi,,,,,,3,,,,,,,,low,18,0,18,0,1,,,,,,,,,
296377,2022-10-02_11h43.29.056,vts_reward_expectancy,2022.2.4,MacIntel,59.99160118,Chrome,1440,900,,,,,10,1073,,,,,,,,,,,,,,,,,D,160,hexagon,1,0,,,,,,,,,,,,,,,,repeat,number,numRpt,k,0.6119,Lo,,,,,,3,,,,,,,,low,19,0,19,0,1,,,,,,,,,
296377,2022-10-02_11h43.29.056,vts_reward_expectancy,2022.2.4,MacIntel,59.99160118,Chrome,1440,900,,,,,0,1073,,,,,,,,,,,,,,,,,Y,167,star,1,0,,,,,,,,,,,,,,,,repeat,number,numRpt,k,0.5869,Hi,,,,,,3,,,,,,,,low,20,0,20,0,1,,,,,,,,,
296377,2022-10-02_11h43.29.056,vts_reward_expectancy,2022.2.4,MacIntel,59.99160118,Chrome,1440,900,,,,,1,1074,,,,,,,,,,,,,,,,,H,146,hexagon,1,0,,,,,,,,,,,,,,,,repeat,number,numRpt,j,0.8941,Lo,,,,,,3,,,,,,,,low,21,0,21,0,1,,,,,,,,,
296377,2022-10-02_11h43.29.056,vts_reward_expectancy,2022.2.4,MacIntel,59.99160118,Chrome,1440,900,,,,,1,1075,,,,,,,,,,,,,,,,,U,125,hexagon,1,0,,,,,,,,,,,,,,,,repeat,number,numRpt,j,0.6161,Lo,,,,,,3,,,,,,,,low,22,0,22,0,1,,,,,,,,,
296377,2022-10-02_11h43.29.056,vts_reward_expectancy,2022.2.4,MacIntel,59.99160118,Chrome,1440,900,,,,,0,1075,,,,,,,,,,,,,,,,,B,181,star,1,0,,,,,,,,,,,,,,,,repeat,number,numRpt,k,0.6557,Hi,,,,,,3,,,,,,,,low,23,0,23,0,1,,,,,,,,,
296377,2022-10-02_11h43.29.056,vts_reward_expectancy,2022.2.4,MacIntel,59.99160118,Chrome,1440,900,,,,,0,1075,,,,,,,,,,,,,,,,,U,160,star,1,0,,,,,,,,,,,,,,,,repeat,number,numRpt,k,0.6444,Hi,,,,,,3,,,,,,,,low,24,0,24,0,1,,,,,,,,,
296377,2022-10-02_11h43.29.056,vts_reward_expectancy,2022.2.4,MacIntel,59.99160118,Chrome,1440,900,,,,,1,1076,,,,,,,,,,,,,,,,,S,139,hexagon,1,0,,,,,,,,,,,,,,,,repeat,number,numRpt,j,0.6249,Lo,,,,,,3,,,,,,,,low,25,0,25,0,1,,,,,,,,,
296377,2022-10-02_11h43.29.056,vts_reward_expectancy,2022.2.4,MacIntel,59.99160118,Chrome,1440,900,,,,,10,1086,,,,,,,,,,,,,,,,,F,167,hexagon,1,0,,,,,,,,,,,,,,,,repeat,number,numRpt,k,0.4991,Lo,,,,,,3,,,,,,,,low,26,0,26,0,1,,,,,,,,,
296377,2022-10-02_11h43.29.056,vts_reward_expectancy,2022.2.4,MacIntel,59.99160118,Chrome,1440,900,,,,,10,1096,,,,,,,,,,,,,,,,,Y,174,star,1,0,,,,,,,,,,,,,,,,switch,letter,lettSwt,f,0.6835,Hi,,,,,,3,,,,,,,,low,27,0,27,0,1,,,,,,,,,
296377,2022-10-02_11h43.29.056,vts_reward_expectancy,2022.2.4,MacIntel,59.99160118,Chrome,1440,900,,,,,0,1096,,,,,,,,,,,,,,,,,B,181,star,1,0,,,,,,,,,,,,,,,,switch,number,numSwt,k,0.6697,Hi,,,,,,3,,,,,,,,low,28,0,28,0,1,,,,,,,,,
296377,2022-10-02_11h43.29.056,vts_reward_expectancy,2022.2.4,MacIntel,59.99160118,Chrome,1440,900,,,,,10,1106,,,,,,,,,,,,,,,,,W,146,hexagon,1,0,,,,,,,,,,,,,,,,repeat,number,numRpt,j,0.6688,Lo,,,,,,3,,,,,,,,low,29,0,29,0,1,,,,,,,,,
296377,2022-10-02_11h43.29.056,vts_reward_expectancy,2022.2.4,MacIntel,59.99160118,Chrome,1440,900,,,,,1,1107,,,,,,,,,,,,,,,,,D,132,star,1,0,,,,,,,,,,,,,,,,switch,letter,lettSwt,d,0.5367,Hi,,,,,,3,,,,,,,,low,30,0,30,0,1,,,,,,,,,
296377,2022-10-02_11h43.29.056,vts_reward_expectancy,2022.2.4,MacIntel,59.99160118,Chrome,1440,900,,,,,1,1108,,,,,,,,,,,,,,,,,H,125,hexagon,1,0,,,,,,,,,,,,,,,,switch,number,numSwt,j,0.5558,Lo,,,,,,3,,,,,,,,low,31,0,31,0,1,,,,,,,,,
296377,2022-10-02_11h43.29.056,vts_reward_expectancy,2022.2.4,MacIntel,59.99160118,Chrome,1440,900,,,,,0,1108,,,,,,,,,,,,,,,,,H,125,circle,0,0,,,,,,,,,,,,,,,,switch,letter,NA,f,0.8312,Lo,,,,,,4,,,,,,space,6.8994,high,0,0,0,0,1,,,,,,,,,
296377,2022-10-02_11h43.29.056,vts_reward_expectancy,2022.2.4,MacIntel,59.99160118,Chrome,1440,900,,,,,10,1118,,,,,,,,,,,,,,,,,S,160,triangle,1,1,,,,,,,,,,,,,,,,switch,number,numSwt,k,0.6044,Lo,,,,,,4,,,,,,,,high,1,0,1,0,1,,,,,,,,,
296377,2022-10-02_11h43.29.056,vts_reward_expectancy,2022.2.4,MacIntel,59.99160118,Chrome,1440,900,,,,,1,1119,,,,,,,,,,,,,,,,,F,181,circle,1,0,,,,,,,,,,,,,,,,switch,letter,lettSwt,d,0.5967,Hi,,,,,,4,,,,,,,,high,2,0,2,0,1,,,,,,,,,
296377,2022-10-02_11h43.29.056,vts_reward_expectancy,2022.2.4,MacIntel,59.99160118,Chrome,1440,900,,,,,1,1120,,,,,,,,,,,,,,,,,B,139,triangle,1,0,,,,,,,,,,,,,,,,switch,number,numSwt,j,0.7032,Lo,,,,,,4,,,,,,,,high,3,0,3,0,1,,,,,,,,,
296377,2022-10-02_11h43.29.056,vts_reward_expectancy,2022.2.4,MacIntel,59.99160118,Chrome,1440,900,,,,,1,1121,,,,,,,,,,,,,,,,,U,174,triangle,1,0,,,,,,,,,,,,,,,,switch,letter,lettSwt,f,0.6335,Lo,,,,,,4,,,,,,,,high,4,0,4,0,1,,,,,,,,,
296377,2022-10-02_11h43.29.056,vts_reward_expectancy,2022.2.4,MacIntel,59.99160118,Chrome,1440,900,,,,,0,1121,,,,,,,,,,,,,,,,,Y,167,circle,1,0,,,,,,,,,,,,,,,,repeat,letter,lettRpt,f,0.6668,Hi,,,,,,4,,,,,,,,high,5,0,5,0,1,,,,,,,,,
296377,2022-10-02_11h43.29.056,vts_reward_expectancy,2022.2.4,MacIntel,59.99160118,Chrome,1440,900,,,,,0,1121,,,,,,,,,,,,,,,,,D,132,circle,1,0,,,,,,,,,,,,,,,,repeat,letter,lettRpt,d,0.5533,Hi,,,,,,4,,,,,,,,high,6,0,6,0,1,,,,,,,,,
296377,2022-10-02_11h43.29.056,vts_reward_expectancy,2022.2.4,MacIntel,59.99160118,Chrome,1440,900,,,,,1,1122,,,,,,,,,,,,,,,,,W,146,triangle,1,0,,,,,,,,,,,,,,,,repeat,letter,lettRpt,f,0.9288,Lo,,,,,,4,,,,,,,,high,7,0,7,0,1,,,,,,,,,
296377,2022-10-02_11h43.29.056,vts_reward_expectancy,2022.2.4,MacIntel,59.99160118,Chrome,1440,900,,,,,0,1122,,,,,,,,,,,,,,,,,H,125,circle,1,0,,,,,,,,,,,,,,,,repeat,letter,lettRpt,d,0.5915,Hi,,,,,,4,,,,,,,,high,8,0,8,0,1,,,,,,,,,
296377,2022-10-02_11h43.29.056,vts_reward_expectancy,2022.2.4,MacIntel,59.99160118,Chrome,1440,900,,,,,1,1123,,,,,,,,,,,,,,,,,S,160,triangle,1,0,,,,,,,,,,,,,,,,repeat,letter,lettRpt,f,0.807,Lo,,,,,,4,,,,,,,,high,9,0,9,0,1,,,,,,,,,
296377,2022-10-02_11h43.29.056,vts_reward_expectancy,2022.2.4,MacIntel,59.99160118,Chrome,1440,900,,,,,1,1124,,,,,,,,,,,,,,,,,F,181,triangle,1,0,,,,,,,,,,,,,,,,repeat,letter,lettRpt,d,0.7092,Lo,,,,,,4,,,,,,,,high,10,0,10,0,1,,,,,,,,,
296377,2022-10-02_11h43.29.056,vts_reward_expectancy,2022.2.4,MacIntel,59.99160118,Chrome,1440,900,,,,,0,1124,,,,,,,,,,,,,,,,,B,139,circle,1,0,,,,,,,,,,,,,,,,repeat,letter,lettRpt,d,0.6848,Hi,,,,,,4,,,,,,,,high,11,0,11,0,1,,,,,,,,,
296377,2022-10-02_11h43.29.056,vts_reward_expectancy,2022.2.4,MacIntel,59.99160118,Chrome,1440,900,,,,,1,1125,,,,,,,,,,,,,,,,,U,174,triangle,1,0,,,,,,,,,,,,,,,,repeat,letter,lettRpt,f,0.9517,Lo,,,,,,4,,,,,,,,high,12,0,12,0,1,,,,,,,,,
296377,2022-10-02_11h43.29.056,vts_reward_expectancy,2022.2.4,MacIntel,59.99160118,Chrome,1440,900,,,,,0,1125,,,,,,,,,,,,,,,,,Y,167,circle,1,0,,,,,,,,,,,,,,,,repeat,letter,lettRpt,f,0.6378,Hi,,,,,,4,,,,,,,,high,13,0,13,0,1,,,,,,,,,
296377,2022-10-02_11h43.29.056,vts_reward_expectancy,2022.2.4,MacIntel,59.99160118,Chrome,1440,900,,,,,0,1125,,,,,,,,,,,,,,,,,D,132,circle,1,0,,,,,,,,,,,,,,,,repeat,letter,lettRpt,d,0.6968,Hi,,,,,,4,,,,,,,,high,14,0,14,0,1,,,,,,,,,
296377,2022-10-02_11h43.29.056,vts_reward_expectancy,2022.2.4,MacIntel,59.99160118,Chrome,1440,900,,,,,10,1135,,,,,,,,,,,,,,,,,W,146,triangle,1,0,,,,,,,,,,,,,,,,repeat,letter,lettRpt,f,0.5179,Lo,,,,,,4,,,,,,,,high,15,0,15,0,1,,,,,,,,,
296377,2022-10-02_11h43.29.056,vts_reward_expectancy,2022.2.4,MacIntel,59.99160118,Chrome,1440,900,,,,,1,1136,,,,,,,,,,,,,,,,,B,125,triangle,1,0,,,,,,,,,,,,,,,,repeat,letter,lettRpt,d,0.5465,Lo,,,,,,4,,,,,,,,high,16,0,16,0,1,,,,,,,,,
296377,2022-10-02_11h43.29.056,vts_reward_expectancy,2022.2.4,MacIntel,59.99160118,Chrome,1440,900,,,,,0,1136,,,,,,,,,,,,,,,,,Y,139,circle,1,0,,,,,,,,,,,,,,,,repeat,letter,lettRpt,f,0.7414,Hi,,,,,,4,,,,,,,,high,17,0,17,0,1,,,,,,,,,
296377,2022-10-02_11h43.29.056,vts_reward_expectancy,2022.2.4,MacIntel,59.99160118,Chrome,1440,900,,,,,1,1137,,,,,,,,,,,,,,,,,W,174,triangle,1,0,,,,,,,,,,,,,,,,repeat,letter,lettRpt,f,0.6049,Lo,,,,,,4,,,,,,,,high,18,0,18,0,1,,,,,,,,,
296377,2022-10-02_11h43.29.056,vts_reward_expectancy,2022.2.4,MacIntel,59.99160118,Chrome,1440,900,,,,,0,1137,,,,,,,,,,,,,,,,,F,146,circle,1,0,,,,,,,,,,,,,,,,repeat,letter,lettRpt,d,0.6629,Hi,,,,,,4,,,,,,,,high,19,0,19,0,1,,,,,,,,,
296377,2022-10-02_11h43.29.056,vts_reward_expectancy,2022.2.4,MacIntel,59.99160118,Chrome,1440,900,,,,,10,1147,,,,,,,,,,,,,,,,,S,167,circle,1,0,,,,,,,,,,,,,,,,repeat,letter,lettRpt,f,0.5306,Hi,,,,,,4,,,,,,,,high,20,0,20,0,1,,,,,,,,,
296377,2022-10-02_11h43.29.056,vts_reward_expectancy,2022.2.4,MacIntel,59.99160118,Chrome,1440,900,,,,,1,1148,,,,,,,,,,,,,,,,,H,181,triangle,1,0,,,,,,,,,,,,,,,,repeat,letter,lettRpt,d,0.781,Lo,,,,,,4,,,,,,,,high,21,0,21,0,1,,,,,,,,,
296377,2022-10-02_11h43.29.056,vts_reward_expectancy,2022.2.4,MacIntel,59.99160118,Chrome,1440,900,,,,,1,1149,,,,,,,,,,,,,,,,,D,132,triangle,1,0,,,,,,,,,,,,,,,,repeat,letter,lettRpt,d,0.6477,Lo,,,,,,4,,,,,,,,high,22,0,22,0,1,,,,,,,,,
296377,2022-10-02_11h43.29.056,vts_reward_expectancy,2022.2.4,MacIntel,59.99160118,Chrome,1440,900,,,,,0,1149,,,,,,,,,,,,,,,,,U,160,circle,0,0,,,,,,,,,,,,,,,,repeat,letter,NA,d,0.7443,Lo,,,,,,4,,,,,,,,high,23,0,23,0,1,,,,,,,,,
296377,2022-10-02_11h43.29.056,vts_reward_expectancy,2022.2.4,MacIntel,59.99160118,Chrome,1440,900,,,,,0,1149,,,,,,,,,,,,,,,,,U,181,circle,1,1,,,,,,,,,,,,,,,,repeat,letter,lettRpt,f,0.6478,Hi,,,,,,4,,,,,,,,high,24,0,24,0,1,,,,,,,,,
296377,2022-10-02_11h43.29.056,vts_reward_expectancy,2022.2.4,MacIntel,59.99160118,Chrome,1440,900,,,,,1,1150,,,,,,,,,,,,,,,,,B,139,triangle,1,0,,,,,,,,,,,,,,,,repeat,letter,lettRpt,d,0.5013,Lo,,,,,,4,,,,,,,,high,25,0,25,0,1,,,,,,,,,
296377,2022-10-02_11h43.29.056,vts_reward_expectancy,2022.2.4,MacIntel,59.99160118,Chrome,1440,900,,,,,0,1150,,,,,,,,,,,,,,,,,F,174,circle,1,0,,,,,,,,,,,,,,,,repeat,letter,lettRpt,d,0.5495,Hi,,,,,,4,,,,,,,,high,26,0,26,0,1,,,,,,,,,
296377,2022-10-02_11h43.29.056,vts_reward_expectancy,2022.2.4,MacIntel,59.99160118,Chrome,1440,900,,,,,1,1151,,,,,,,,,,,,,,,,,H,146,triangle,1,0,,,,,,,,,,,,,,,,repeat,letter,lettRpt,d,0.6683,Lo,,,,,,4,,,,,,,,high,27,0,27,0,1,,,,,,,,,
296377,2022-10-02_11h43.29.056,vts_reward_expectancy,2022.2.4,MacIntel,59.99160118,Chrome,1440,900,,,,,1,1152,,,,,,,,,,,,,,,,,S,125,triangle,1,0,,,,,,,,,,,,,,,,repeat,letter,lettRpt,f,0.5834,Lo,,,,,,4,,,,,,,,high,28,0,28,0,1,,,,,,,,,
296377,2022-10-02_11h43.29.056,vts_reward_expectancy,2022.2.4,MacIntel,59.99160118,Chrome,1440,900,,,,,0,1152,,,,,,,,,,,,,,,,,Y,160,circle,1,0,,,,,,,,,,,,,,,,repeat,letter,lettRpt,f,0.5745,Hi,,,,,,4,,,,,,,,high,29,0,29,0,1,,,,,,,,,
296377,2022-10-02_11h43.29.056,vts_reward_expectancy,2022.2.4,MacIntel,59.99160118,Chrome,1440,900,,,,,10,1162,,,,,,,,,,,,,,,,,D,167,triangle,1,0,,,,,,,,,,,,,,,,repeat,letter,lettRpt,d,0.5365,Lo,,,,,,4,,,,,,,,high,30,0,30,0,1,,,,,,,,,
296377,2022-10-02_11h43.29.056,vts_reward_expectancy,2022.2.4,MacIntel,59.99160118,Chrome,1440,900,,,,,0,1162,,,,,,,,,,,,,,,,,W,132,circle,1,0,,,,,,,,,,,,,,,,repeat,letter,lettRpt,f,0.7464,Hi,,,,,,4,,,,,,,,high,31,0,31,0,1,,,,,,,,,
296377,2022-10-02_11h43.29.056,vts_reward_expectancy,2022.2.4,MacIntel,59.99160118,Chrome,1440,900,,,,,1,1163,,,,,,,,,,,,,,,,,F,174,hexagon,1,0,,,,,,,,,,,,,,,,repeat,letter,lettRpt,d,0.6498,Lo,,,,,,5,,,,,,space,0.7678,low,0,0,0,0,1,,,,,,,,,
296377,2022-10-02_11h43.29.056,vts_reward_expectancy,2022.2.4,MacIntel,59.99160118,Chrome,1440,900,,,,,0,1163,,,,,,,,,,,,,,,,,U,132,star,0,0,,,,,,,,,,,,,,,,switch,number,NA,k,0.9346,Lo,,,,,,5,,,,,,,,low,1,0,1,0,1,,,,,,,,,
296377,2022-10-02_11h43.29.056,vts_reward_expectancy,2022.2.4,MacIntel,59.99160118,Chrome,1440,900,,,,,1,1164,,,,,,,,,,,,,,,,,D,160,hexagon,1,1,,,,,,,,,,,,,,,,repeat,number,numRpt,k,0.5487,Lo,,,,,,5,,,,,,,,low,2,0,2,0,1,,,,,,,,,
296377,2022-10-02_11h43.29.056,vts_reward_expectancy,2022.2.4,MacIntel,59.99160118,Chrome,1440,900,,,,,1,1165,,,,,,,,,,,,,,,,,Y,139,star,1,0,,,,,,,,,,,,,,,,repeat,number,numRpt,j,0.5013,Hi,,,,,,5,,,,,,,,low,3,0,3,0,1,,,,,,,,,
296377,2022-10-02_11h43.29.056,vts_reward_expectancy,2022.2.4,MacIntel,59.99160118,Chrome,1440,900,,,,,10,1175,,,,,,,,,,,,,,,,,B,167,star,1,0,,,,,,,,,,,,,,,,repeat,number,numRpt,k,0.5432,Hi,,,,,,5,,,,,,,,low,4,0,4,0,1,,,,,,,,,
296377,2022-10-02_11h43.29.056,vts_reward_expectancy,2022.2.4,MacIntel,59.99160118,Chrome,1440,900,,,,,10,1185,,,,,,,,,,,,,,,,,H,125,hexagon,1,0,,,,,,,,,,,,,,,,repeat,number,numRpt,j,0.5128,Lo,,,,,,5,,,,,,,,low,5,0,5,0,1,,,,,,,,,
296377,2022-10-02_11h43.29.056,vts_reward_expectancy,2022.2.4,MacIntel,59.99160118,Chrome,1440,900,,,,,1,1186,,,,,,,,,,,,,,,,,S,181,hexagon,1,0,,,,,,,,,,,,,,,,repeat,number,numRpt,k,0.6621,Lo,,,,,,5,,,,,,,,low,6,0,6,0,1,,,,,,,,,
296377,2022-10-02_11h43.29.056,vts_reward_expectancy,2022.2.4,MacIntel,59.99160118,Chrome,1440,900,,,,,1,1187,,,,,,,,,,,,,,,,,W,146,star,1,0,,,,,,,,,,,,,,,,repeat,number,numRpt,j,0.6685,Hi,,,,,,5,,,,,,,,low,7,0,7,0,1,,,,,,,,,
296377,2022-10-02_11h43.29.056,vts_reward_expectancy,2022.2.4,MacIntel,59.99160118,Chrome,1440,900,,,,,10,1197,,,,,,,,,,,,,,,,,F,174,hexagon,1,0,,,,,,,,,,,,,,,,repeat,number,numRpt,k,0.5363,Lo,,,,,,5,,,,,,,,low,8,0,8,0,1,,,,,,,,,
296377,2022-10-02_11h43.29.056,vts_reward_expectancy,2022.2.4,MacIntel,59.99160118,Chrome,1440,900,,,,,10,1207,,,,,,,,,,,,,,,,,U,132,star,1,0,,,,,,,,,,,,,,,,repeat,number,numRpt,j,0.5584,Hi,,,,,,5,,,,,,,,low,9,0,9,0,1,,,,,,,,,
296377,2022-10-02_11h43.29.056,vts_reward_expectancy,2022.2.4,MacIntel,59.99160118,Chrome,1440,900,,,,,1,1208,,,,,,,,,,,,,,,,,D,160,hexagon,1,0,,,,,,,,,,,,,,,,repeat,number,numRpt,k,0.5376,Lo,,,,,,5,,,,,,,,low,10,0,10,0,1,,,,,,,,,
296377,2022-10-02_11h43.29.056,vts_reward_expectancy,2022.2.4,MacIntel,59.99160118,Chrome,1440,900,,,,,10,1218,,,,,,,,,,,,,,,,,Y,139,star,1,0,,,,,,,,,,,,,,,,repeat,number,numRpt,j,0.6455,Hi,,,,,,5,,,,,,,,low,11,0,11,0,1,,,,,,,,,
296377,2022-10-02_11h43.29.056,vts_reward_expectancy,2022.2.4,MacIntel,59.99160118,Chrome,1440,900,,,,,10,1228,,,,,,,,,,,,,,,,,B,167,hexagon,1,0,,,,,,,,,,,,,,,,repeat,number,numRpt,k,0.7152,Lo,,,,,,5,,,,,,,,low,12,0,12,0,1,,,,,,,,,
296377,2022-10-02_11h43.29.056,vts_reward_expectancy,2022.2.4,MacIntel,59.99160118,Chrome,1440,900,,,,,10,1238,,,,,,,,,,,,,,,,,H,125,star,1,0,,,,,,,,,,,,,,,,repeat,number,numRpt,j,0.6478,Hi,,,,,,5,,,,,,,,low,13,0,13,0,1,,,,,,,,,
296377,2022-10-02_11h43.29.056,vts_reward_expectancy,2022.2.4,MacIntel,59.99160118,Chrome,1440,900,,,,,0,1238,,,,,,,,,,,,,,,,,S,181,star,0,0,,,,,,,,,,,,,,,,repeat,number,NA,j,0.7008,Hi,,,,,,5,,,,,,,,low,14,0,14,0,1,,,,,,,,,
296377,2022-10-02_11h43.29.056,vts_reward_expectancy,2022.2.4,MacIntel,59.99160118,Chrome,1440,900,,,,,0,1238,,,,,,,,,,,,,,,,,W,146,hexagon,0,1,,,,,,,,,,,,,,,,repeat,number,NA,k,0.5767,Hi,,,,,,5,,,,,,,,low,15,0,15,0,1,,,,,,,,,
296377,2022-10-02_11h43.29.056,vts_reward_expectancy,2022.2.4,MacIntel,59.99160118,Chrome,1440,900,,,,,1,1239,,,,,,,,,,,,,,,,,H,132,hexagon,1,1,,,,,,,,,,,,,,,,repeat,number,numRpt,j,0.5658,Lo,,,,,,5,,,,,,,,low,16,0,16,0,1,,,,,,,,,
296377,2022-10-02_11h43.29.056,vts_reward_expectancy,2022.2.4,MacIntel,59.99160118,Chrome,1440,900,,,,,10,1249,,,,,,,,,,,,,,,,,S,174,star,1,0,,,,,,,,,,,,,,,,repeat,number,numRpt,k,1.0122,Hi,,,,,,5,,,,,,,,low,17,0,17,0,1,,,,,,,,,
296377,2022-10-02_11h43.29.056,vts_reward_expectancy,2022.2.4,MacIntel,59.99160118,Chrome,1440,900,,,,,10,1259,,,,,,,,,,,,,,,,,B,125,star,1,0,,,,,,,,,,,,,,,,repeat,number,numRpt,j,0.5404,Hi,,,,,,5,,,,,,,,low,18,0,18,0,1,,,,,,,,,
296377,2022-10-02_11h43.29.056,vts_reward_expectancy,2022.2.4,MacIntel,59.99160118,Chrome,1440,900,,,,,1,1260,,,,,,,,,,,,,,,,,D,160,hexagon,1,0,,,,,,,,,,,,,,,,repeat,number,numRpt,k,0.5314,Lo,,,,,,5,,,,,,,,low,19,0,19,0,1,,,,,,,,,
296377,2022-10-02_11h43.29.056,vts_reward_expectancy,2022.2.4,MacIntel,59.99160118,Chrome,1440,900,,,,,10,1270,,,,,,,,,,,,,,,,,W,146,star,1,0,,,,,,,,,,,,,,,,repeat,number,numRpt,j,0.5881,Hi,,,,,,5,,,,,,,,low,20,0,20,0,1,,,,,,,,,
296377,2022-10-02_11h43.29.056,vts_reward_expectancy,2022.2.4,MacIntel,59.99160118,Chrome,1440,900,,,,,1,1271,,,,,,,,,,,,,,,,,U,167,hexagon,1,0,,,,,,,,,,,,,,,,repeat,number,numRpt,k,0.5369,Lo,,,,,,5,,,,,,,,low,21,0,21,0,1,,,,,,,,,
296377,2022-10-02_11h43.29.056,vts_reward_expectancy,2022.2.4,MacIntel,59.99160118,Chrome,1440,900,,,,,10,1281,,,,,,,,,,,,,,,,,Y,181,hexagon,1,0,,,,,,,,,,,,,,,,repeat,number,numRpt,k,0.514,Lo,,,,,,5,,,,,,,,low,22,0,22,0,1,,,,,,,,,
296377,2022-10-02_11h43.29.056,vts_reward_expectancy,2022.2.4,MacIntel,59.99160118,Chrome,1440,900,,,,,10,1291,,,,,,,,,,,,,,,,,F,139,star,1,0,,,,,,,,,,,,,,,,repeat,number,numRpt,j,0.8503,Hi,,,,,,5,,,,,,,,low,23,0,23,0,1,,,,,,,,,
296377,2022-10-02_11h43.29.056,vts_reward_expectancy,2022.2.4,MacIntel,59.99160118,Chrome,1440,900,,,,,10,1301,,,,,,,,,,,,,,,,,U,139,hexagon,1,0,,,,,,,,,,,,,,,,repeat,number,numRpt,j,0.5464,Lo,,,,,,5,,,,,,,,low,24,0,24,0,1,,,,,,,,,
296377,2022-10-02_11h43.29.056,vts_reward_expectancy,2022.2.4,MacIntel,59.99160118,Chrome,1440,900,,,,,10,1311,,,,,,,,,,,,,,,,,W,132,star,1,0,,,,,,,,,,,,,,,,repeat,number,numRpt,j,0.5272,Hi,,,,,,5,,,,,,,,low,25,0,25,0,1,,,,,,,,,
296377,2022-10-02_11h43.29.056,vts_reward_expectancy,2022.2.4,MacIntel,59.99160118,Chrome,1440,900,,,,,1,1312,,,,,,,,,,,,,,,,,F,160,hexagon,1,0,,,,,,,,,,,,,,,,repeat,number,numRpt,k,0.7641,Lo,,,,,,5,,,,,,,,low,26,0,26,0,1,,,,,,,,,
296377,2022-10-02_11h43.29.056,vts_reward_expectancy,2022.2.4,MacIntel,59.99160118,Chrome,1440,900,,,,,1,1313,,,,,,,,,,,,,,,,,B,167,star,1,0,,,,,,,,,,,,,,,,repeat,number,numRpt,k,0.6355,Hi,,,,,,5,,,,,,,,low,27,0,27,0,1,,,,,,,,,
296377,2022-10-02_11h43.29.056,vts_reward_expectancy,2022.2.4,MacIntel,59.99160118,Chrome,1440,900,,,,,10,1323,,,,,,,,,,,,,,,,,Y,181,star,1,0,,,,,,,,,,,,,,,,repeat,number,numRpt,k,0.8209,Hi,,,,,,5,,,,,,,,low,28,0,28,0,1,,,,,,,,,
296377,2022-10-02_11h43.29.056,vts_reward_expectancy,2022.2.4,MacIntel,59.99160118,Chrome,1440,900,,,,,0,1323,,,,,,,,,,,,,,,,,S,125,hexagon,0,0,,,,,,,,,,,,,,,,repeat,number,NA,k,1.6821,Hi,,,,,,5,,,,,,,,low,29,0,29,0,1,,,,,,,,,
296377,2022-10-02_11h43.29.056,vts_reward_expectancy,2022.2.4,MacIntel,59.99160118,Chrome,1440,900,,,,,1,1324,,,,,,,,,,,,,,,,,D,146,star,1,1,,,,,,,,,,,,,,,,repeat,number,numRpt,j,0.8037,Hi,,,,,,5,,,,,,,,low,30,0,30,0,1,,,,,,,,,
296377,2022-10-02_11h43.29.056,vts_reward_expectancy,2022.2.4,MacIntel,59.99160118,Chrome,1440,900,,,,,10,1334,,,,,,,,,,,,,,,,,H,174,hexagon,1,0,,,,,,,,,,,,,,,,repeat,number,numRpt,k,0.6964,Lo,,,,,,5,,,,,,,,low,31,0,31,0,1,,,,,,,,,
296377,2022-10-02_11h43.29.056,vts_reward_expectancy,2022.2.4,MacIntel,59.99160118,Chrome,1440,900,,,,,,,,,,,,,,,,,,,,,,,,,,,,,,,,,,,,,,,,,,,,,,,,,,,,,,6,,,,,,,,,,,,,,choose the right answer,1,,3,1,,2,1440,900
