participant,date,expName,psychopyVersion,OS,frameRate,browser,xResolution,yResolution,key_resp.keys,key_resp.rt,training_resp.keys,training_resp.rt,points_trial,points_cumul,trainBlock,training.thisRepN,training.thisTrialN,training.thisN,training.thisIndex,training.ran,LTriangleOpac,LCircleOpac,LHexagonOpac,LStarOpac,RTriangleOpac,RCircleOpac,RHexagonOpac,RStarOpac,LShape_ID,RShape_ID,curr_topStim,curr_bottStim,curr_shape,acc,E1,target_resp_prac1.keys,pracBlock,task1_prac_trials.thisRepN,task1_prac_trials.thisTrialN,task1_prac_trials.thisN,task1_prac_trials.thisIndex,task1_prac_trials.ran,target_resp_prac1.rt,target_resp_prac2.keys,target_resp_prac2.rt,task2_praac_trials.thisRepN,task2_praac_trials.thisTrialN,task2_praac_trials.thisN,task2_praac_trials.thisIndex,task2_praac_trials.ran,alt,task,condition,target_resp.keys,target_resp.rt,rewCond,vts_practice_trials.thisRepN,vts_practice_trials.thisTrialN,vts_practice_trials.thisN,vts_practice_trials.thisIndex,vts_practice_trials.ran,blockNum,trials_norew.thisRepN,trials_norew.thisTrialN,trials_norew.thisN,trials_norew.thisIndex,trials_norew.ran,key_resp_2.keys,key_resp_2.rt,rewExpect,trials_rew.thisRepN,trials_rew.thisTrialN,trials_rew.thisN,trials_rew.thisIndex,trials_rew.ran,Q1,Q2,Q2_text,Q3,Q4,Q5_text,Q5,xRes,yRes
296848,2022-09-23_16h02.24.712,vts_reward_expectancy,2022.2.4,MacIntel,60.0024001,Chrome,1440,900,,,,,,,,,,,,,,,,,,,,,,,,,,,,,,,,,,,,,,,,,,,,,,,,,,,,,,,,,,,,,,,,,,,,,,,,,,,,
296848,2022-09-23_16h02.24.712,vts_reward_expectancy,2022.2.4,MacIntel,60.0024001,Chrome,1440,900,space,11.3198,,,,,,,,,,,,,,,,,,,,,,,,,,,,,,,,,,,,,,,,,,,,,,,,,,,,,,,,,,,,,,,,,,,,,,,,,,
296848,2022-09-23_16h02.24.712,vts_reward_expectancy,2022.2.4,MacIntel,60.0024001,Chrome,1440,900,,,,,,,,,,,,,,,,,,,,,,,,,,,,,,,,,,,,,,,,,,,,,,,,,,,,,,,,,,,,,,,,,,,,,,,,,,,,
296848,2022-09-23_16h02.24.712,vts_reward_expectancy,2022.2.4,MacIntel,60.0024001,Chrome,1440,900,,,a,2.384,1,1,0,0,0,0,5,1,0,1,0,0,0,0,0,1,circle,star,,,,,,,,,,,,,,,,,,,,,,,,,,,,,,,,,,,,,,,,,,,,,,,,,,,,,,
296848,2022-09-23_16h02.24.712,vts_reward_expectancy,2022.2.4,MacIntel,60.0024001,Chrome,1440,900,,,a,2.2664,1,2,0,0,1,1,1,1,1,0,0,0,0,0,1,0,triangle,hexagon,,,,,,,,,,,,,,,,,,,,,,,,,,,,,,,,,,,,,,,,,,,,,,,,,,,,,,
296848,2022-09-23_16h02.24.712,vts_reward_expectancy,2022.2.4,MacIntel,60.0024001,Chrome,1440,900,,,a,2.3172,1,3,0,0,2,2,6,1,0,0,1,0,1,0,0,0,hexagon,triangle,,,,,,,,,,,,,,,,,,,,,,,,,,,,,,,,,,,,,,,,,,,,,,,,,,,,,,
296848,2022-09-23_16h02.24.712,vts_reward_expectancy,2022.2.4,MacIntel,60.0024001,Chrome,1440,900,,,a,3.2314,1,4,0,0,3,3,3,1,0,1,0,0,1,0,0,0,circle,triangle,,,,,,,,,,,,,,,,,,,,,,,,,,,,,,,,,,,,,,,,,,,,,,,,,,,,,,
296848,2022-09-23_16h02.24.712,vts_reward_expectancy,2022.2.4,MacIntel,60.0024001,Chrome,1440,900,,,a,1.0847,1,5,0,0,4,4,10,1,0,0,0,1,0,1,0,0,star ,circle,,,,,,,,,,,,,,,,,,,,,,,,,,,,,,,,,,,,,,,,,,,,,,,,,,,,,,
296848,2022-09-23_16h02.24.712,vts_reward_expectancy,2022.2.4,MacIntel,60.0024001,Chrome,1440,900,,,l,1.3328,1,6,0,0,5,5,2,1,1,0,0,0,0,0,0,1,triangle,star,,,,,,,,,,,,,,,,,,,,,,,,,,,,,,,,,,,,,,,,,,,,,,,,,,,,,,
296848,2022-09-23_16h02.24.712,vts_reward_expectancy,2022.2.4,MacIntel,60.0024001,Chrome,1440,900,,,l,1.4159,1,7,0,0,6,6,0,1,1,0,0,0,0,1,0,0,triangle,circle,,,,,,,,,,,,,,,,,,,,,,,,,,,,,,,,,,,,,,,,,,,,,,,,,,,,,,
296848,2022-09-23_16h02.24.712,vts_reward_expectancy,2022.2.4,MacIntel,60.0024001,Chrome,1440,900,,,a,1.2163,1,8,0,0,7,7,9,1,0,0,0,1,1,0,0,0,star,triangle,,,,,,,,,,,,,,,,,,,,,,,,,,,,,,,,,,,,,,,,,,,,,,,,,,,,,,
296848,2022-09-23_16h02.24.712,vts_reward_expectancy,2022.2.4,MacIntel,60.0024001,Chrome,1440,900,,,a,1.1833,1,9,0,0,8,8,8,1,0,0,1,0,0,0,0,1,hexagon,star,,,,,,,,,,,,,,,,,,,,,,,,,,,,,,,,,,,,,,,,,,,,,,,,,,,,,,
296848,2022-09-23_16h02.24.712,vts_reward_expectancy,2022.2.4,MacIntel,60.0024001,Chrome,1440,900,,,l,2.9491,10,19,0,0,9,9,7,1,0,0,1,0,0,1,0,0,hexagon,circle,,,,,,,,,,,,,,,,,,,,,,,,,,,,,,,,,,,,,,,,,,,,,,,,,,,,,,
296848,2022-09-23_16h02.24.712,vts_reward_expectancy,2022.2.4,MacIntel,60.0024001,Chrome,1440,900,,,l,1.5156,10,29,0,0,10,10,11,1,0,0,0,1,0,0,1,0,star,hexagon,,,,,,,,,,,,,,,,,,,,,,,,,,,,,,,,,,,,,,,,,,,,,,,,,,,,,,
296848,2022-09-23_16h02.24.712,vts_reward_expectancy,2022.2.4,MacIntel,60.0024001,Chrome,1440,900,,,a,0.8882,10,39,0,0,11,11,4,1,0,1,0,0,0,0,1,0,circle,hexagon,,,,,,,,,,,,,,,,,,,,,,,,,,,,,,,,,,,,,,,,,,,,,,,,,,,,,,
296848,2022-09-23_16h02.24.712,vts_reward_expectancy,2022.2.4,MacIntel,60.0024001,Chrome,1440,900,,,a,1.5825,10,49,0,1,0,12,9,1,0,0,0,1,1,0,0,0,star,triangle,,,,,,,,,,,,,,,,,,,,,,,,,,,,,,,,,,,,,,,,,,,,,,,,,,,,,,
296848,2022-09-23_16h02.24.712,vts_reward_expectancy,2022.2.4,MacIntel,60.0024001,Chrome,1440,900,,,l,0.7011,10,59,0,1,1,13,8,1,0,0,1,0,0,0,0,1,hexagon,star,,,,,,,,,,,,,,,,,,,,,,,,,,,,,,,,,,,,,,,,,,,,,,,,,,,,,,
296848,2022-09-23_16h02.24.712,vts_reward_expectancy,2022.2.4,MacIntel,60.0024001,Chrome,1440,900,,,a,1.2317,10,69,0,1,2,14,0,1,1,0,0,0,0,1,0,0,triangle,circle,,,,,,,,,,,,,,,,,,,,,,,,,,,,,,,,,,,,,,,,,,,,,,,,,,,,,,
296848,2022-09-23_16h02.24.712,vts_reward_expectancy,2022.2.4,MacIntel,60.0024001,Chrome,1440,900,,,a,0.634,10,79,0,1,3,15,2,1,1,0,0,0,0,0,0,1,triangle,star,,,,,,,,,,,,,,,,,,,,,,,,,,,,,,,,,,,,,,,,,,,,,,,,,,,,,,
296848,2022-09-23_16h02.24.712,vts_reward_expectancy,2022.2.4,MacIntel,60.0024001,Chrome,1440,900,,,l,1.765,1,80,0,1,4,16,7,1,0,0,1,0,0,1,0,0,hexagon,circle,,,,,,,,,,,,,,,,,,,,,,,,,,,,,,,,,,,,,,,,,,,,,,,,,,,,,,
296848,2022-09-23_16h02.24.712,vts_reward_expectancy,2022.2.4,MacIntel,60.0024001,Chrome,1440,900,,,a,1.6833,10,90,0,1,5,17,4,1,0,1,0,0,0,0,1,0,circle,hexagon,,,,,,,,,,,,,,,,,,,,,,,,,,,,,,,,,,,,,,,,,,,,,,,,,,,,,,
296848,2022-09-23_16h02.24.712,vts_reward_expectancy,2022.2.4,MacIntel,60.0024001,Chrome,1440,900,,,a,0.9823,10,100,0,1,6,18,6,1,0,0,1,0,1,0,0,0,hexagon,triangle,,,,,,,,,,,,,,,,,,,,,,,,,,,,,,,,,,,,,,,,,,,,,,,,,,,,,,
296848,2022-09-23_16h02.24.712,vts_reward_expectancy,2022.2.4,MacIntel,60.0024001,Chrome,1440,900,,,l,1.4512,1,101,0,1,7,19,5,1,0,1,0,0,0,0,0,1,circle,star,,,,,,,,,,,,,,,,,,,,,,,,,,,,,,,,,,,,,,,,,,,,,,,,,,,,,,
296848,2022-09-23_16h02.24.712,vts_reward_expectancy,2022.2.4,MacIntel,60.0024001,Chrome,1440,900,,,a,0.8177,10,111,0,1,8,20,3,1,0,1,0,0,1,0,0,0,circle,triangle,,,,,,,,,,,,,,,,,,,,,,,,,,,,,,,,,,,,,,,,,,,,,,,,,,,,,,
296848,2022-09-23_16h02.24.712,vts_reward_expectancy,2022.2.4,MacIntel,60.0024001,Chrome,1440,900,,,a,1.1041,10,121,0,1,9,21,1,1,1,0,0,0,0,0,1,0,triangle,hexagon,,,,,,,,,,,,,,,,,,,,,,,,,,,,,,,,,,,,,,,,,,,,,,,,,,,,,,
296848,2022-09-23_16h02.24.712,vts_reward_expectancy,2022.2.4,MacIntel,60.0024001,Chrome,1440,900,,,a,0.8377,10,131,0,1,10,22,10,1,0,0,0,1,0,1,0,0,star ,circle,,,,,,,,,,,,,,,,,,,,,,,,,,,,,,,,,,,,,,,,,,,,,,,,,,,,,,
296848,2022-09-23_16h02.24.712,vts_reward_expectancy,2022.2.4,MacIntel,60.0024001,Chrome,1440,900,,,a,0.6834,1,132,0,1,11,23,11,1,0,0,0,1,0,0,1,0,star,hexagon,,,,,,,,,,,,,,,,,,,,,,,,,,,,,,,,,,,,,,,,,,,,,,,,,,,,,,
296848,2022-09-23_16h02.24.712,vts_reward_expectancy,2022.2.4,MacIntel,60.0024001,Chrome,1440,900,,,l,0.9827,10,142,0,2,0,24,8,1,0,0,1,0,0,0,0,1,hexagon,star,,,,,,,,,,,,,,,,,,,,,,,,,,,,,,,,,,,,,,,,,,,,,,,,,,,,,,
296848,2022-09-23_16h02.24.712,vts_reward_expectancy,2022.2.4,MacIntel,60.0024001,Chrome,1440,900,,,l,0.6862,1,143,0,2,1,25,4,1,0,1,0,0,0,0,1,0,circle,hexagon,,,,,,,,,,,,,,,,,,,,,,,,,,,,,,,,,,,,,,,,,,,,,,,,,,,,,,
296848,2022-09-23_16h02.24.712,vts_reward_expectancy,2022.2.4,MacIntel,60.0024001,Chrome,1440,900,,,a,0.5182,10,153,0,2,2,26,2,1,1,0,0,0,0,0,0,1,triangle,star,,,,,,,,,,,,,,,,,,,,,,,,,,,,,,,,,,,,,,,,,,,,,,,,,,,,,,
296848,2022-09-23_16h02.24.712,vts_reward_expectancy,2022.2.4,MacIntel,60.0024001,Chrome,1440,900,,,a,0.5318,1,154,0,2,3,27,7,1,0,0,1,0,0,1,0,0,hexagon,circle,,,,,,,,,,,,,,,,,,,,,,,,,,,,,,,,,,,,,,,,,,,,,,,,,,,,,,
296848,2022-09-23_16h02.24.712,vts_reward_expectancy,2022.2.4,MacIntel,60.0024001,Chrome,1440,900,,,l,0.5995,10,164,0,2,4,28,9,1,0,0,0,1,1,0,0,0,star,triangle,,,,,,,,,,,,,,,,,,,,,,,,,,,,,,,,,,,,,,,,,,,,,,,,,,,,,,
296848,2022-09-23_16h02.24.712,vts_reward_expectancy,2022.2.4,MacIntel,60.0024001,Chrome,1440,900,,,a,0.5865,1,165,0,2,5,29,5,1,0,1,0,0,0,0,0,1,circle,star,,,,,,,,,,,,,,,,,,,,,,,,,,,,,,,,,,,,,,,,,,,,,,,,,,,,,,
296848,2022-09-23_16h02.24.712,vts_reward_expectancy,2022.2.4,MacIntel,60.0024001,Chrome,1440,900,,,l,0.5827,10,175,0,2,6,30,6,1,0,0,1,0,1,0,0,0,hexagon,triangle,,,,,,,,,,,,,,,,,,,,,,,,,,,,,,,,,,,,,,,,,,,,,,,,,,,,,,
296848,2022-09-23_16h02.24.712,vts_reward_expectancy,2022.2.4,MacIntel,60.0024001,Chrome,1440,900,,,l,0.4366,1,176,0,2,7,31,1,1,1,0,0,0,0,0,1,0,triangle,hexagon,,,,,,,,,,,,,,,,,,,,,,,,,,,,,,,,,,,,,,,,,,,,,,,,,,,,,,
296848,2022-09-23_16h02.24.712,vts_reward_expectancy,2022.2.4,MacIntel,60.0024001,Chrome,1440,900,,,a,0.3159,10,186,0,2,8,32,11,1,0,0,0,1,0,0,1,0,star,hexagon,,,,,,,,,,,,,,,,,,,,,,,,,,,,,,,,,,,,,,,,,,,,,,,,,,,,,,
296848,2022-09-23_16h02.24.712,vts_reward_expectancy,2022.2.4,MacIntel,60.0024001,Chrome,1440,900,,,a,0.418,10,196,0,2,9,33,10,1,0,0,0,1,0,1,0,0,star ,circle,,,,,,,,,,,,,,,,,,,,,,,,,,,,,,,,,,,,,,,,,,,,,,,,,,,,,,
296848,2022-09-23_16h02.24.712,vts_reward_expectancy,2022.2.4,MacIntel,60.0024001,Chrome,1440,900,,,a,0.651,10,206,0,2,10,34,3,1,0,1,0,0,1,0,0,0,circle,triangle,,,,,,,,,,,,,,,,,,,,,,,,,,,,,,,,,,,,,,,,,,,,,,,,,,,,,,
296848,2022-09-23_16h02.24.712,vts_reward_expectancy,2022.2.4,MacIntel,60.0024001,Chrome,1440,900,,,a,0.4499,10,216,0,2,11,35,0,1,1,0,0,0,0,1,0,0,triangle,circle,,,,,,,,,,,,,,,,,,,,,,,,,,,,,,,,,,,,,,,,,,,,,,,,,,,,,,
296848,2022-09-23_16h02.24.712,vts_reward_expectancy,2022.2.4,MacIntel,60.0024001,Chrome,1440,900,,,a,2.5002,10,226,1,0,0,0,7,1,0,0,1,0,0,1,0,0,hexagon,circle,,,,,,,,,,,,,,,,,,,,,,,,,,,,,,,,,,,,,,,,,,,,,,,,,,,,,,
296848,2022-09-23_16h02.24.712,vts_reward_expectancy,2022.2.4,MacIntel,60.0024001,Chrome,1440,900,,,a,0.7165,1,227,1,0,1,1,8,1,0,0,1,0,0,0,0,1,hexagon,star,,,,,,,,,,,,,,,,,,,,,,,,,,,,,,,,,,,,,,,,,,,,,,,,,,,,,,
296848,2022-09-23_16h02.24.712,vts_reward_expectancy,2022.2.4,MacIntel,60.0024001,Chrome,1440,900,,,l,1.0041,10,237,1,0,2,2,3,1,0,1,0,0,1,0,0,0,circle,triangle,,,,,,,,,,,,,,,,,,,,,,,,,,,,,,,,,,,,,,,,,,,,,,,,,,,,,,
296848,2022-09-23_16h02.24.712,vts_reward_expectancy,2022.2.4,MacIntel,60.0024001,Chrome,1440,900,,,a,1.1877,1,238,1,0,3,3,11,1,0,0,0,1,0,0,1,0,star,hexagon,,,,,,,,,,,,,,,,,,,,,,,,,,,,,,,,,,,,,,,,,,,,,,,,,,,,,,
296848,2022-09-23_16h02.24.712,vts_reward_expectancy,2022.2.4,MacIntel,60.0024001,Chrome,1440,900,,,l,1.4317,1,239,1,0,4,4,10,1,0,0,0,1,0,1,0,0,star ,circle,,,,,,,,,,,,,,,,,,,,,,,,,,,,,,,,,,,,,,,,,,,,,,,,,,,,,,
296848,2022-09-23_16h02.24.712,vts_reward_expectancy,2022.2.4,MacIntel,60.0024001,Chrome,1440,900,,,a,0.5336,10,249,1,0,5,5,0,1,1,0,0,0,0,1,0,0,triangle,circle,,,,,,,,,,,,,,,,,,,,,,,,,,,,,,,,,,,,,,,,,,,,,,,,,,,,,,
296848,2022-09-23_16h02.24.712,vts_reward_expectancy,2022.2.4,MacIntel,60.0024001,Chrome,1440,900,,,l,0.8045,1,250,1,0,6,6,9,1,0,0,0,1,1,0,0,0,star,triangle,,,,,,,,,,,,,,,,,,,,,,,,,,,,,,,,,,,,,,,,,,,,,,,,,,,,,,
296848,2022-09-23_16h02.24.712,vts_reward_expectancy,2022.2.4,MacIntel,60.0024001,Chrome,1440,900,,,a,0.4988,10,260,1,0,7,7,1,1,1,0,0,0,0,0,1,0,triangle,hexagon,,,,,,,,,,,,,,,,,,,,,,,,,,,,,,,,,,,,,,,,,,,,,,,,,,,,,,
296848,2022-09-23_16h02.24.712,vts_reward_expectancy,2022.2.4,MacIntel,60.0024001,Chrome,1440,900,,,a,0.5651,10,270,1,0,8,8,4,1,0,1,0,0,0,0,1,0,circle,hexagon,,,,,,,,,,,,,,,,,,,,,,,,,,,,,,,,,,,,,,,,,,,,,,,,,,,,,,
296848,2022-09-23_16h02.24.712,vts_reward_expectancy,2022.2.4,MacIntel,60.0024001,Chrome,1440,900,,,a,0.6325,1,271,1,0,9,9,6,1,0,0,1,0,1,0,0,0,hexagon,triangle,,,,,,,,,,,,,,,,,,,,,,,,,,,,,,,,,,,,,,,,,,,,,,,,,,,,,,
296848,2022-09-23_16h02.24.712,vts_reward_expectancy,2022.2.4,MacIntel,60.0024001,Chrome,1440,900,,,a,0.6174,10,281,1,0,10,10,2,1,1,0,0,0,0,0,0,1,triangle,star,,,,,,,,,,,,,,,,,,,,,,,,,,,,,,,,,,,,,,,,,,,,,,,,,,,,,,
296848,2022-09-23_16h02.24.712,vts_reward_expectancy,2022.2.4,MacIntel,60.0024001,Chrome,1440,900,,,a,0.7719,10,291,1,0,11,11,5,1,0,1,0,0,0,0,0,1,circle,star,,,,,,,,,,,,,,,,,,,,,,,,,,,,,,,,,,,,,,,,,,,,,,,,,,,,,,
296848,2022-09-23_16h02.24.712,vts_reward_expectancy,2022.2.4,MacIntel,60.0024001,Chrome,1440,900,,,a,1.1183,10,301,1,1,0,12,3,1,0,1,0,0,1,0,0,0,circle,triangle,,,,,,,,,,,,,,,,,,,,,,,,,,,,,,,,,,,,,,,,,,,,,,,,,,,,,,
296848,2022-09-23_16h02.24.712,vts_reward_expectancy,2022.2.4,MacIntel,60.0024001,Chrome,1440,900,,,l,1.616,1,302,1,1,1,13,1,1,1,0,0,0,0,0,1,0,triangle,hexagon,,,,,,,,,,,,,,,,,,,,,,,,,,,,,,,,,,,,,,,,,,,,,,,,,,,,,,
296848,2022-09-23_16h02.24.712,vts_reward_expectancy,2022.2.4,MacIntel,60.0024001,Chrome,1440,900,,,l,1.6502,1,303,1,1,2,14,7,1,0,0,1,0,0,1,0,0,hexagon,circle,,,,,,,,,,,,,,,,,,,,,,,,,,,,,,,,,,,,,,,,,,,,,,,,,,,,,,
296848,2022-09-23_16h02.24.712,vts_reward_expectancy,2022.2.4,MacIntel,60.0024001,Chrome,1440,900,,,l,1.803,10,313,1,1,3,15,6,1,0,0,1,0,1,0,0,0,hexagon,triangle,,,,,,,,,,,,,,,,,,,,,,,,,,,,,,,,,,,,,,,,,,,,,,,,,,,,,,
296848,2022-09-23_16h02.24.712,vts_reward_expectancy,2022.2.4,MacIntel,60.0024001,Chrome,1440,900,,,l,2.6482,10,323,1,1,4,16,0,1,1,0,0,0,0,1,0,0,triangle,circle,,,,,,,,,,,,,,,,,,,,,,,,,,,,,,,,,,,,,,,,,,,,,,,,,,,,,,
296848,2022-09-23_16h02.24.712,vts_reward_expectancy,2022.2.4,MacIntel,60.0024001,Chrome,1440,900,,,l,1.8657,1,324,1,1,5,17,4,1,0,1,0,0,0,0,1,0,circle,hexagon,,,,,,,,,,,,,,,,,,,,,,,,,,,,,,,,,,,,,,,,,,,,,,,,,,,,,,
296848,2022-09-23_16h02.24.712,vts_reward_expectancy,2022.2.4,MacIntel,60.0024001,Chrome,1440,900,,,a,0.9491,1,325,1,1,6,18,8,1,0,0,1,0,0,0,0,1,hexagon,star,,,,,,,,,,,,,,,,,,,,,,,,,,,,,,,,,,,,,,,,,,,,,,,,,,,,,,
296848,2022-09-23_16h02.24.712,vts_reward_expectancy,2022.2.4,MacIntel,60.0024001,Chrome,1440,900,,,l,1.066,10,335,1,1,7,19,9,1,0,0,0,1,1,0,0,0,star,triangle,,,,,,,,,,,,,,,,,,,,,,,,,,,,,,,,,,,,,,,,,,,,,,,,,,,,,,
296848,2022-09-23_16h02.24.712,vts_reward_expectancy,2022.2.4,MacIntel,60.0024001,Chrome,1440,900,,,l,1.3364,10,345,1,1,8,20,10,1,0,0,0,1,0,1,0,0,star ,circle,,,,,,,,,,,,,,,,,,,,,,,,,,,,,,,,,,,,,,,,,,,,,,,,,,,,,,
296848,2022-09-23_16h02.24.712,vts_reward_expectancy,2022.2.4,MacIntel,60.0024001,Chrome,1440,900,,,a,1.4172,1,346,1,1,9,21,5,1,0,1,0,0,0,0,0,1,circle,star,,,,,,,,,,,,,,,,,,,,,,,,,,,,,,,,,,,,,,,,,,,,,,,,,,,,,,
296848,2022-09-23_16h02.24.712,vts_reward_expectancy,2022.2.4,MacIntel,60.0024001,Chrome,1440,900,,,a,2.084,1,347,1,1,10,22,11,1,0,0,0,1,0,0,1,0,star,hexagon,,,,,,,,,,,,,,,,,,,,,,,,,,,,,,,,,,,,,,,,,,,,,,,,,,,,,,
296848,2022-09-23_16h02.24.712,vts_reward_expectancy,2022.2.4,MacIntel,60.0024001,Chrome,1440,900,,,a,4.3824,10,357,1,1,11,23,2,1,1,0,0,0,0,0,0,1,triangle,star,,,,,,,,,,,,,,,,,,,,,,,,,,,,,,,,,,,,,,,,,,,,,,,,,,,,,,
296848,2022-09-23_16h02.24.712,vts_reward_expectancy,2022.2.4,MacIntel,60.0024001,Chrome,1440,900,,,l,4.3362,10,367,1,2,0,24,11,1,0,0,0,1,0,0,1,0,star,hexagon,,,,,,,,,,,,,,,,,,,,,,,,,,,,,,,,,,,,,,,,,,,,,,,,,,,,,,
296848,2022-09-23_16h02.24.712,vts_reward_expectancy,2022.2.4,MacIntel,60.0024001,Chrome,1440,900,,,a,2.7827,10,377,1,2,1,25,2,1,1,0,0,0,0,0,0,1,triangle,star,,,,,,,,,,,,,,,,,,,,,,,,,,,,,,,,,,,,,,,,,,,,,,,,,,,,,,
296848,2022-09-23_16h02.24.712,vts_reward_expectancy,2022.2.4,MacIntel,60.0024001,Chrome,1440,900,,,a,0.7212,10,387,1,2,2,26,4,1,0,1,0,0,0,0,1,0,circle,hexagon,,,,,,,,,,,,,,,,,,,,,,,,,,,,,,,,,,,,,,,,,,,,,,,,,,,,,,
296848,2022-09-23_16h02.24.712,vts_reward_expectancy,2022.2.4,MacIntel,60.0024001,Chrome,1440,900,,,l,2.2893,10,397,1,2,3,27,9,1,0,0,0,1,1,0,0,0,star,triangle,,,,,,,,,,,,,,,,,,,,,,,,,,,,,,,,,,,,,,,,,,,,,,,,,,,,,,
296848,2022-09-23_16h02.24.712,vts_reward_expectancy,2022.2.4,MacIntel,60.0024001,Chrome,1440,900,,,a,1.116,10,407,1,2,4,28,1,1,1,0,0,0,0,0,1,0,triangle,hexagon,,,,,,,,,,,,,,,,,,,,,,,,,,,,,,,,,,,,,,,,,,,,,,,,,,,,,,
296848,2022-09-23_16h02.24.712,vts_reward_expectancy,2022.2.4,MacIntel,60.0024001,Chrome,1440,900,,,a,3.7201,10,417,1,2,5,29,3,1,0,1,0,0,1,0,0,0,circle,triangle,,,,,,,,,,,,,,,,,,,,,,,,,,,,,,,,,,,,,,,,,,,,,,,,,,,,,,
296848,2022-09-23_16h02.24.712,vts_reward_expectancy,2022.2.4,MacIntel,60.0024001,Chrome,1440,900,,,a,3.8012,10,427,1,2,6,30,0,1,1,0,0,0,0,1,0,0,triangle,circle,,,,,,,,,,,,,,,,,,,,,,,,,,,,,,,,,,,,,,,,,,,,,,,,,,,,,,
296848,2022-09-23_16h02.24.712,vts_reward_expectancy,2022.2.4,MacIntel,60.0024001,Chrome,1440,900,,,a,1.3989,1,428,1,2,7,31,8,1,0,0,1,0,0,0,0,1,hexagon,star,,,,,,,,,,,,,,,,,,,,,,,,,,,,,,,,,,,,,,,,,,,,,,,,,,,,,,
296848,2022-09-23_16h02.24.712,vts_reward_expectancy,2022.2.4,MacIntel,60.0024001,Chrome,1440,900,,,l,1.3665,10,438,1,2,8,32,6,1,0,0,1,0,1,0,0,0,hexagon,triangle,,,,,,,,,,,,,,,,,,,,,,,,,,,,,,,,,,,,,,,,,,,,,,,,,,,,,,
296848,2022-09-23_16h02.24.712,vts_reward_expectancy,2022.2.4,MacIntel,60.0024001,Chrome,1440,900,,,l,1.2911,10,448,1,2,9,33,7,1,0,0,1,0,0,1,0,0,hexagon,circle,,,,,,,,,,,,,,,,,,,,,,,,,,,,,,,,,,,,,,,,,,,,,,,,,,,,,,
296848,2022-09-23_16h02.24.712,vts_reward_expectancy,2022.2.4,MacIntel,60.0024001,Chrome,1440,900,,,a,0.6655,10,458,1,2,10,34,5,1,0,1,0,0,0,0,0,1,circle,star,,,,,,,,,,,,,,,,,,,,,,,,,,,,,,,,,,,,,,,,,,,,,,,,,,,,,,
296848,2022-09-23_16h02.24.712,vts_reward_expectancy,2022.2.4,MacIntel,60.0024001,Chrome,1440,900,,,l,0.8847,10,468,1,2,11,35,10,1,0,0,0,1,0,1,0,0,star ,circle,,,,,,,,,,,,,,,,,,,,,,,,,,,,,,,,,,,,,,,,,,,,,,,,,,,,,,
296848,2022-09-23_16h02.24.712,vts_reward_expectancy,2022.2.4,MacIntel,60.0024001,Chrome,1440,900,,,a,0.88,10,478,2,0,0,0,0,1,1,0,0,0,0,1,0,0,triangle,circle,,,,,,,,,,,,,,,,,,,,,,,,,,,,,,,,,,,,,,,,,,,,,,,,,,,,,,
296848,2022-09-23_16h02.24.712,vts_reward_expectancy,2022.2.4,MacIntel,60.0024001,Chrome,1440,900,,,a,0.5823,1,479,2,0,1,1,3,1,0,1,0,0,1,0,0,0,circle,triangle,,,,,,,,,,,,,,,,,,,,,,,,,,,,,,,,,,,,,,,,,,,,,,,,,,,,,,
296848,2022-09-23_16h02.24.712,vts_reward_expectancy,2022.2.4,MacIntel,60.0024001,Chrome,1440,900,,,l,0.7529,1,480,2,0,2,2,7,1,0,0,1,0,0,1,0,0,hexagon,circle,,,,,,,,,,,,,,,,,,,,,,,,,,,,,,,,,,,,,,,,,,,,,,,,,,,,,,
296848,2022-09-23_16h02.24.712,vts_reward_expectancy,2022.2.4,MacIntel,60.0024001,Chrome,1440,900,,,a,0.6327,1,481,2,0,3,3,1,1,1,0,0,0,0,0,1,0,triangle,hexagon,,,,,,,,,,,,,,,,,,,,,,,,,,,,,,,,,,,,,,,,,,,,,,,,,,,,,,
296848,2022-09-23_16h02.24.712,vts_reward_expectancy,2022.2.4,MacIntel,60.0024001,Chrome,1440,900,,,a,0.7495,1,482,2,0,4,4,8,1,0,0,1,0,0,0,0,1,hexagon,star,,,,,,,,,,,,,,,,,,,,,,,,,,,,,,,,,,,,,,,,,,,,,,,,,,,,,,
296848,2022-09-23_16h02.24.712,vts_reward_expectancy,2022.2.4,MacIntel,60.0024001,Chrome,1440,900,,,l,1.0884,1,483,2,0,5,5,4,1,0,1,0,0,0,0,1,0,circle,hexagon,,,,,,,,,,,,,,,,,,,,,,,,,,,,,,,,,,,,,,,,,,,,,,,,,,,,,,
296848,2022-09-23_16h02.24.712,vts_reward_expectancy,2022.2.4,MacIntel,60.0024001,Chrome,1440,900,,,a,1.0488,1,484,2,0,6,6,10,1,0,0,0,1,0,1,0,0,star ,circle,,,,,,,,,,,,,,,,,,,,,,,,,,,,,,,,,,,,,,,,,,,,,,,,,,,,,,
296848,2022-09-23_16h02.24.712,vts_reward_expectancy,2022.2.4,MacIntel,60.0024001,Chrome,1440,900,,,l,1.0646,10,494,2,0,7,7,6,1,0,0,1,0,1,0,0,0,hexagon,triangle,,,,,,,,,,,,,,,,,,,,,,,,,,,,,,,,,,,,,,,,,,,,,,,,,,,,,,
296848,2022-09-23_16h02.24.712,vts_reward_expectancy,2022.2.4,MacIntel,60.0024001,Chrome,1440,900,,,l,0.6504,10,504,2,0,8,8,9,1,0,0,0,1,1,0,0,0,star,triangle,,,,,,,,,,,,,,,,,,,,,,,,,,,,,,,,,,,,,,,,,,,,,,,,,,,,,,
296848,2022-09-23_16h02.24.712,vts_reward_expectancy,2022.2.4,MacIntel,60.0024001,Chrome,1440,900,,,a,0.5543,10,514,2,0,9,9,5,1,0,1,0,0,0,0,0,1,circle,star,,,,,,,,,,,,,,,,,,,,,,,,,,,,,,,,,,,,,,,,,,,,,,,,,,,,,,
296848,2022-09-23_16h02.24.712,vts_reward_expectancy,2022.2.4,MacIntel,60.0024001,Chrome,1440,900,,,l,0.6835,1,515,2,0,10,10,11,1,0,0,0,1,0,0,1,0,star,hexagon,,,,,,,,,,,,,,,,,,,,,,,,,,,,,,,,,,,,,,,,,,,,,,,,,,,,,,
296848,2022-09-23_16h02.24.712,vts_reward_expectancy,2022.2.4,MacIntel,60.0024001,Chrome,1440,900,,,a,0.5162,10,525,2,0,11,11,2,1,1,0,0,0,0,0,0,1,triangle,star,,,,,,,,,,,,,,,,,,,,,,,,,,,,,,,,,,,,,,,,,,,,,,,,,,,,,,
296848,2022-09-23_16h02.24.712,vts_reward_expectancy,2022.2.4,MacIntel,60.0024001,Chrome,1440,900,,,l,0.6513,1,526,2,1,0,12,11,1,0,0,0,1,0,0,1,0,star,hexagon,,,,,,,,,,,,,,,,,,,,,,,,,,,,,,,,,,,,,,,,,,,,,,,,,,,,,,
296848,2022-09-23_16h02.24.712,vts_reward_expectancy,2022.2.4,MacIntel,60.0024001,Chrome,1440,900,,,a,0.7331,1,527,2,1,1,13,8,1,0,0,1,0,0,0,0,1,hexagon,star,,,,,,,,,,,,,,,,,,,,,,,,,,,,,,,,,,,,,,,,,,,,,,,,,,,,,,
296848,2022-09-23_16h02.24.712,vts_reward_expectancy,2022.2.4,MacIntel,60.0024001,Chrome,1440,900,,,l,1.2326,10,537,2,1,2,14,10,1,0,0,0,1,0,1,0,0,star ,circle,,,,,,,,,,,,,,,,,,,,,,,,,,,,,,,,,,,,,,,,,,,,,,,,,,,,,,
296848,2022-09-23_16h02.24.712,vts_reward_expectancy,2022.2.4,MacIntel,60.0024001,Chrome,1440,900,,,l,1.4993,10,547,2,1,3,15,7,1,0,0,1,0,0,1,0,0,hexagon,circle,,,,,,,,,,,,,,,,,,,,,,,,,,,,,,,,,,,,,,,,,,,,,,,,,,,,,,
296848,2022-09-23_16h02.24.712,vts_reward_expectancy,2022.2.4,MacIntel,60.0024001,Chrome,1440,900,,,a,1.0657,10,557,2,1,4,16,4,1,0,1,0,0,0,0,1,0,circle,hexagon,,,,,,,,,,,,,,,,,,,,,,,,,,,,,,,,,,,,,,,,,,,,,,,,,,,,,,
296848,2022-09-23_16h02.24.712,vts_reward_expectancy,2022.2.4,MacIntel,60.0024001,Chrome,1440,900,,,a,0.7659,1,558,2,1,5,17,6,1,0,0,1,0,1,0,0,0,hexagon,triangle,,,,,,,,,,,,,,,,,,,,,,,,,,,,,,,,,,,,,,,,,,,,,,,,,,,,,,
296848,2022-09-23_16h02.24.712,vts_reward_expectancy,2022.2.4,MacIntel,60.0024001,Chrome,1440,900,,,a,0.8678,10,568,2,1,6,18,5,1,0,1,0,0,0,0,0,1,circle,star,,,,,,,,,,,,,,,,,,,,,,,,,,,,,,,,,,,,,,,,,,,,,,,,,,,,,,
296848,2022-09-23_16h02.24.712,vts_reward_expectancy,2022.2.4,MacIntel,60.0024001,Chrome,1440,900,,,l,0.5703,10,578,2,1,7,19,1,1,1,0,0,0,0,0,1,0,triangle,hexagon,,,,,,,,,,,,,,,,,,,,,,,,,,,,,,,,,,,,,,,,,,,,,,,,,,,,,,
296848,2022-09-23_16h02.24.712,vts_reward_expectancy,2022.2.4,MacIntel,60.0024001,Chrome,1440,900,,,l,0.6999,10,588,2,1,8,20,0,1,1,0,0,0,0,1,0,0,triangle,circle,,,,,,,,,,,,,,,,,,,,,,,,,,,,,,,,,,,,,,,,,,,,,,,,,,,,,,
296848,2022-09-23_16h02.24.712,vts_reward_expectancy,2022.2.4,MacIntel,60.0024001,Chrome,1440,900,,,a,0.6558,1,589,2,1,9,21,2,1,1,0,0,0,0,0,0,1,triangle,star,,,,,,,,,,,,,,,,,,,,,,,,,,,,,,,,,,,,,,,,,,,,,,,,,,,,,,
296848,2022-09-23_16h02.24.712,vts_reward_expectancy,2022.2.4,MacIntel,60.0024001,Chrome,1440,900,,,l,0.7163,10,599,2,1,10,22,9,1,0,0,0,1,1,0,0,0,star,triangle,,,,,,,,,,,,,,,,,,,,,,,,,,,,,,,,,,,,,,,,,,,,,,,,,,,,,,
296848,2022-09-23_16h02.24.712,vts_reward_expectancy,2022.2.4,MacIntel,60.0024001,Chrome,1440,900,,,a,0.7014,10,609,2,1,11,23,3,1,0,1,0,0,1,0,0,0,circle,triangle,,,,,,,,,,,,,,,,,,,,,,,,,,,,,,,,,,,,,,,,,,,,,,,,,,,,,,
296848,2022-09-23_16h02.24.712,vts_reward_expectancy,2022.2.4,MacIntel,60.0024001,Chrome,1440,900,,,a,0.8317,1,610,2,2,0,24,3,1,0,1,0,0,1,0,0,0,circle,triangle,,,,,,,,,,,,,,,,,,,,,,,,,,,,,,,,,,,,,,,,,,,,,,,,,,,,,,
296848,2022-09-23_16h02.24.712,vts_reward_expectancy,2022.2.4,MacIntel,60.0024001,Chrome,1440,900,,,l,0.6159,10,620,2,2,1,25,9,1,0,0,0,1,1,0,0,0,star,triangle,,,,,,,,,,,,,,,,,,,,,,,,,,,,,,,,,,,,,,,,,,,,,,,,,,,,,,
296848,2022-09-23_16h02.24.712,vts_reward_expectancy,2022.2.4,MacIntel,60.0024001,Chrome,1440,900,,,l,0.7999,10,630,2,2,2,26,7,1,0,0,1,0,0,1,0,0,hexagon,circle,,,,,,,,,,,,,,,,,,,,,,,,,,,,,,,,,,,,,,,,,,,,,,,,,,,,,,
296848,2022-09-23_16h02.24.712,vts_reward_expectancy,2022.2.4,MacIntel,60.0024001,Chrome,1440,900,,,l,2.1827,10,640,2,2,3,27,4,1,0,1,0,0,0,0,1,0,circle,hexagon,,,,,,,,,,,,,,,,,,,,,,,,,,,,,,,,,,,,,,,,,,,,,,,,,,,,,,
296848,2022-09-23_16h02.24.712,vts_reward_expectancy,2022.2.4,MacIntel,60.0024001,Chrome,1440,900,,,a,0.8742,1,641,2,2,4,28,2,1,1,0,0,0,0,0,0,1,triangle,star,,,,,,,,,,,,,,,,,,,,,,,,,,,,,,,,,,,,,,,,,,,,,,,,,,,,,,
296848,2022-09-23_16h02.24.712,vts_reward_expectancy,2022.2.4,MacIntel,60.0024001,Chrome,1440,900,,,l,0.7199,1,642,2,2,5,29,6,1,0,0,1,0,1,0,0,0,hexagon,triangle,,,,,,,,,,,,,,,,,,,,,,,,,,,,,,,,,,,,,,,,,,,,,,,,,,,,,,
296848,2022-09-23_16h02.24.712,vts_reward_expectancy,2022.2.4,MacIntel,60.0024001,Chrome,1440,900,,,a,0.4651,10,652,2,2,6,30,8,1,0,0,1,0,0,0,0,1,hexagon,star,,,,,,,,,,,,,,,,,,,,,,,,,,,,,,,,,,,,,,,,,,,,,,,,,,,,,,
296848,2022-09-23_16h02.24.712,vts_reward_expectancy,2022.2.4,MacIntel,60.0024001,Chrome,1440,900,,,a,0.782,10,662,2,2,7,31,0,1,1,0,0,0,0,1,0,0,triangle,circle,,,,,,,,,,,,,,,,,,,,,,,,,,,,,,,,,,,,,,,,,,,,,,,,,,,,,,
296848,2022-09-23_16h02.24.712,vts_reward_expectancy,2022.2.4,MacIntel,60.0024001,Chrome,1440,900,,,l,0.5162,1,663,2,2,8,32,11,1,0,0,0,1,0,0,1,0,star,hexagon,,,,,,,,,,,,,,,,,,,,,,,,,,,,,,,,,,,,,,,,,,,,,,,,,,,,,,
296848,2022-09-23_16h02.24.712,vts_reward_expectancy,2022.2.4,MacIntel,60.0024001,Chrome,1440,900,,,l,0.6157,1,664,2,2,9,33,10,1,0,0,0,1,0,1,0,0,star ,circle,,,,,,,,,,,,,,,,,,,,,,,,,,,,,,,,,,,,,,,,,,,,,,,,,,,,,,
296848,2022-09-23_16h02.24.712,vts_reward_expectancy,2022.2.4,MacIntel,60.0024001,Chrome,1440,900,,,a,0.4147,1,665,2,2,10,34,5,1,0,1,0,0,0,0,0,1,circle,star,,,,,,,,,,,,,,,,,,,,,,,,,,,,,,,,,,,,,,,,,,,,,,,,,,,,,,
296848,2022-09-23_16h02.24.712,vts_reward_expectancy,2022.2.4,MacIntel,60.0024001,Chrome,1440,900,,,a,0.9169,10,675,2,2,11,35,1,1,1,0,0,0,0,0,1,0,triangle,hexagon,,,,,,,,,,,,,,,,,,,,,,,,,,,,,,,,,,,,,,,,,,,,,,,,,,,,,,
296848,2022-09-23_16h02.24.712,vts_reward_expectancy,2022.2.4,MacIntel,60.0024001,Chrome,1440,900,,,,,,,,,,,,,,,,,,,,,,,125,H,star,0,0,,0,0,0,0,0,1,,,,,,,,,,,,,,,,,,,,,,,,,,,,,,,,,,,,,,,,,,
296848,2022-09-23_16h02.24.712,vts_reward_expectancy,2022.2.4,MacIntel,60.0024001,Chrome,1440,900,,,,,,,,,,,,,,,,,,,,,,,146,W,hexagon,0,1,,0,1,0,1,0,1,,,,,,,,,,,,,,,,,,,,,,,,,,,,,,,,,,,,,,,,,,
296848,2022-09-23_16h02.24.712,vts_reward_expectancy,2022.2.4,MacIntel,60.0024001,Chrome,1440,900,,,,,,,,,,,,,,,,,,,,,,,160,B,circle,0,1,,0,2,0,2,0,1,,,,,,,,,,,,,,,,,,,,,,,,,,,,,,,,,,,,,,,,,,
296848,2022-09-23_16h02.24.712,vts_reward_expectancy,2022.2.4,MacIntel,60.0024001,Chrome,1440,900,,,,,,,,,,,,,,,,,,,,,,,139,D,triangle,0,1,,0,3,0,3,0,1,,,,,,,,,,,,,,,,,,,,,,,,,,,,,,,,,,,,,,,,,,
296848,2022-09-23_16h02.24.712,vts_reward_expectancy,2022.2.4,MacIntel,60.0024001,Chrome,1440,900,,,,,,,,,,,,,,,,,,,,,,,167,S,star,0,1,,0,4,0,4,0,1,,,,,,,,,,,,,,,,,,,,,,,,,,,,,,,,,,,,,,,,,,
296848,2022-09-23_16h02.24.712,vts_reward_expectancy,2022.2.4,MacIntel,60.0024001,Chrome,1440,900,,,,,,,,,,,,,,,,,,,,,,,181,Y,hexagon,0,1,,0,5,0,5,0,1,,,,,,,,,,,,,,,,,,,,,,,,,,,,,,,,,,,,,,,,,,
296848,2022-09-23_16h02.24.712,vts_reward_expectancy,2022.2.4,MacIntel,60.0024001,Chrome,1440,900,,,,,,,,,,,,,,,,,,,,,,,174,U,circle,1,1,f,0,6,0,6,0,1,2.5313,,,,,,,,,,,,,,,,,,,,,,,,,,,,,,,,,,,,,,,,,
296848,2022-09-23_16h02.24.712,vts_reward_expectancy,2022.2.4,MacIntel,60.0024001,Chrome,1440,900,,,,,,,,,,,,,,,,,,,,,,,132,F,triangle,1,0,d,0,7,0,7,0,1,1.1211,,,,,,,,,,,,,,,,,,,,,,,,,,,,,,,,,,,,,,,,,
296848,2022-09-23_16h02.24.712,vts_reward_expectancy,2022.2.4,MacIntel,60.0024001,Chrome,1440,900,,,,,,,,,,,,,,,,,,,,,,,125,H,triangle,1,0,d,0,8,0,8,0,1,1.2039,,,,,,,,,,,,,,,,,,,,,,,,,,,,,,,,,,,,,,,,,
296848,2022-09-23_16h02.24.712,vts_reward_expectancy,2022.2.4,MacIntel,60.0024001,Chrome,1440,900,,,,,,,,,,,,,,,,,,,,,,,146,W,hexagon,0,0,f,0,9,0,9,0,1,1.087,,,,,,,,,,,,,,,,,,,,,,,,,,,,,,,,,,,,,,,,,
296848,2022-09-23_16h02.24.712,vts_reward_expectancy,2022.2.4,MacIntel,60.0024001,Chrome,1440,900,,,,,,,,,,,,,,,,,,,,,,,139,F,circle,1,1,d,1,0,0,0,0,1,1.5359,,,,,,,,,,,,,,,,,,,,,,,,,,,,,,,,,,,,,,,,,
296848,2022-09-23_16h02.24.712,vts_reward_expectancy,2022.2.4,MacIntel,60.0024001,Chrome,1440,900,,,,,,,,,,,,,,,,,,,,,,,125,W,triangle,1,0,d,1,1,0,1,0,1,0.6311,,,,,,,,,,,,,,,,,,,,,,,,,,,,,,,,,,,,,,,,,
296848,2022-09-23_16h02.24.712,vts_reward_expectancy,2022.2.4,MacIntel,60.0024001,Chrome,1440,900,,,,,,,,,,,,,,,,,,,,,,,160,H,hexagon,1,0,f,1,2,0,2,0,1,0.7588,,,,,,,,,,,,,,,,,,,,,,,,,,,,,,,,,,,,,,,,,
296848,2022-09-23_16h02.24.712,vts_reward_expectancy,2022.2.4,MacIntel,60.0024001,Chrome,1440,900,,,,,,,,,,,,,,,,,,,,,,,146,B,star,1,0,d,1,3,0,3,0,1,1.2317,,,,,,,,,,,,,,,,,,,,,,,,,,,,,,,,,,,,,,,,,
296848,2022-09-23_16h02.24.712,vts_reward_expectancy,2022.2.4,MacIntel,60.0024001,Chrome,1440,900,,,,,,,,,,,,,,,,,,,,,,,132,U,circle,1,0,d,1,4,0,4,0,1,0.613,,,,,,,,,,,,,,,,,,,,,,,,,,,,,,,,,,,,,,,,,
296848,2022-09-23_16h02.24.712,vts_reward_expectancy,2022.2.4,MacIntel,60.0024001,Chrome,1440,900,,,,,,,,,,,,,,,,,,,,,,,167,S,triangle,1,0,f,1,5,0,5,0,1,0.7667,,,,,,,,,,,,,,,,,,,,,,,,,,,,,,,,,,,,,,,,,
296848,2022-09-23_16h02.24.712,vts_reward_expectancy,2022.2.4,MacIntel,60.0024001,Chrome,1440,900,,,,,,,,,,,,,,,,,,,,,,,181,Y,hexagon,1,0,f,1,6,0,6,0,1,0.5705,,,,,,,,,,,,,,,,,,,,,,,,,,,,,,,,,,,,,,,,,
296848,2022-09-23_16h02.24.712,vts_reward_expectancy,2022.2.4,MacIntel,60.0024001,Chrome,1440,900,,,,,,,,,,,,,,,,,,,,,,,174,D,star,1,0,f,1,7,0,7,0,1,0.6133,,,,,,,,,,,,,,,,,,,,,,,,,,,,,,,,,,,,,,,,,
296848,2022-09-23_16h02.24.712,vts_reward_expectancy,2022.2.4,MacIntel,60.0024001,Chrome,1440,900,,,,,,,,,,,,,,,,,,,,,,,139,F,star,1,0,d,1,8,0,8,0,1,0.8638,,,,,,,,,,,,,,,,,,,,,,,,,,,,,,,,,,,,,,,,,
296848,2022-09-23_16h02.24.712,vts_reward_expectancy,2022.2.4,MacIntel,60.0024001,Chrome,1440,900,,,,,,,,,,,,,,,,,,,,,,,125,W,circle,1,0,d,1,9,0,9,0,1,0.8146,,,,,,,,,,,,,,,,,,,,,,,,,,,,,,,,,,,,,,,,,
296848,2022-09-23_16h02.24.712,vts_reward_expectancy,2022.2.4,MacIntel,60.0024001,Chrome,1440,900,,,,,,,,,,,,,,,,,,,,,,,181,U,star,1,0,,2,,,,,,,k,0.8641,0,0,0,0,1,,,,,,,,,,,,,,,,,,,,,,,,,,,,,,,,,,
296848,2022-09-23_16h02.24.712,vts_reward_expectancy,2022.2.4,MacIntel,60.0024001,Chrome,1440,900,,,,,,,,,,,,,,,,,,,,,,,167,D,triangle,1,0,,2,,,,,,,j,0.653,1,0,1,0,1,,,,,,,,,,,,,,,,,,,,,,,,,,,,,,,,,,
296848,2022-09-23_16h02.24.712,vts_reward_expectancy,2022.2.4,MacIntel,60.0024001,Chrome,1440,900,,,,,,,,,,,,,,,,,,,,,,,132,H,circle,1,0,,2,,,,,,,j,0.8799,2,0,2,0,1,,,,,,,,,,,,,,,,,,,,,,,,,,,,,,,,,,
296848,2022-09-23_16h02.24.712,vts_reward_expectancy,2022.2.4,MacIntel,60.0024001,Chrome,1440,900,,,,,,,,,,,,,,,,,,,,,,,160,W,hexagon,1,0,,2,,,,,,,k,0.6326,3,0,3,0,1,,,,,,,,,,,,,,,,,,,,,,,,,,,,,,,,,,
296848,2022-09-23_16h02.24.712,vts_reward_expectancy,2022.2.4,MacIntel,60.0024001,Chrome,1440,900,,,,,,,,,,,,,,,,,,,,,,,174,Y,star,1,0,,2,,,,,,,k,0.5794,4,0,4,0,1,,,,,,,,,,,,,,,,,,,,,,,,,,,,,,,,,,
296848,2022-09-23_16h02.24.712,vts_reward_expectancy,2022.2.4,MacIntel,60.0024001,Chrome,1440,900,,,,,,,,,,,,,,,,,,,,,,,125,F,triangle,1,0,,2,,,,,,,j,0.5815,5,0,5,0,1,,,,,,,,,,,,,,,,,,,,,,,,,,,,,,,,,,
296848,2022-09-23_16h02.24.712,vts_reward_expectancy,2022.2.4,MacIntel,60.0024001,Chrome,1440,900,,,,,,,,,,,,,,,,,,,,,,,139,B,circle,1,0,,2,,,,,,,j,0.5472,6,0,6,0,1,,,,,,,,,,,,,,,,,,,,,,,,,,,,,,,,,,
296848,2022-09-23_16h02.24.712,vts_reward_expectancy,2022.2.4,MacIntel,60.0024001,Chrome,1440,900,,,,,,,,,,,,,,,,,,,,,,,146,S,hexagon,1,0,,2,,,,,,,k,0.8975,7,0,7,0,1,,,,,,,,,,,,,,,,,,,,,,,,,,,,,,,,,,
296848,2022-09-23_16h02.24.712,vts_reward_expectancy,2022.2.4,MacIntel,60.0024001,Chrome,1440,900,,,,,,,,,,,,,,,,,,,,,,,181,U,circle,1,0,,2,,,,,,,k,0.5643,8,0,8,0,1,,,,,,,,,,,,,,,,,,,,,,,,,,,,,,,,,,
296848,2022-09-23_16h02.24.712,vts_reward_expectancy,2022.2.4,MacIntel,60.0024001,Chrome,1440,900,,,,,,,,,,,,,,,,,,,,,,,167,D,hexagon,1,0,,2,,,,,,,j,0.6627,9,0,9,0,1,,,,,,,,,,,,,,,,,,,,,,,,,,,,,,,,,,
296848,2022-09-23_16h02.24.712,vts_reward_expectancy,2022.2.4,MacIntel,60.0024001,Chrome,1440,900,,,,,0,675,,,,,,,,,,,,,,,,,160,W,hexagon,1,0,,3,,,,,,,,,,,,,,-1,number,NA,f,1.5945,vtsPrac,0,0,0,0,1,,,,,,,,,,,,,,,,,,,,,,,
296848,2022-09-23_16h02.24.712,vts_reward_expectancy,2022.2.4,MacIntel,60.0024001,Chrome,1440,900,,,,,0,675,,,,,,,,,,,,,,,,,146,S,triangle,1,0,,3,,,,,,,,,,,,,,switch,letter,lettSwt,k,2.8165,vtsPrac,1,0,1,0,1,,,,,,,,,,,,,,,,,,,,,,,
296848,2022-09-23_16h02.24.712,vts_reward_expectancy,2022.2.4,MacIntel,60.0024001,Chrome,1440,900,,,,,0,675,,,,,,,,,,,,,,,,,125,H,hexagon,1,0,,3,,,,,,,,,,,,,,repeat,letter,lettRpt,j,2.6155,vtsPrac,2,0,2,0,1,,,,,,,,,,,,,,,,,,,,,,,
296848,2022-09-23_16h02.24.712,vts_reward_expectancy,2022.2.4,MacIntel,60.0024001,Chrome,1440,900,,,,,0,675,,,,,,,,,,,,,,,,,167,F,triangle,1,0,,3,,,,,,,,,,,,,,repeat,letter,lettRpt,j,1.2968,vtsPrac,3,0,3,0,1,,,,,,,,,,,,,,,,,,,,,,,
296848,2022-09-23_16h02.24.712,vts_reward_expectancy,2022.2.4,MacIntel,60.0024001,Chrome,1440,900,,,,,0,675,,,,,,,,,,,,,,,,,160,W,star,1,0,,3,,,,,,,,,,,,,,switch,number,numSwt,f,0.9643,vtsPrac,4,0,4,0,1,,,,,,,,,,,,,,,,,,,,,,,
296848,2022-09-23_16h02.24.712,vts_reward_expectancy,2022.2.4,MacIntel,60.0024001,Chrome,1440,900,,,,,0,675,,,,,,,,,,,,,,,,,146,S,triangle,1,0,,3,,,,,,,,,,,,,,repeat,number,numRpt,d,1.629,vtsPrac,5,0,5,0,1,,,,,,,,,,,,,,,,,,,,,,,
296848,2022-09-23_16h02.24.712,vts_reward_expectancy,2022.2.4,MacIntel,60.0024001,Chrome,1440,900,,,,,0,675,,,,,,,,,,,,,,,,,125,H,circle,1,0,,3,,,,,,,,,,,,,,repeat,number,numRpt,d,0.9978,vtsPrac,6,0,6,0,1,,,,,,,,,,,,,,,,,,,,,,,
296848,2022-09-23_16h02.24.712,vts_reward_expectancy,2022.2.4,MacIntel,60.0024001,Chrome,1440,900,,,,,0,675,,,,,,,,,,,,,,,,,167,F,star,1,0,,3,,,,,,,,,,,,,,switch,letter,lettSwt,j,0.8625,vtsPrac,7,0,7,0,1,,,,,,,,,,,,,,,,,,,,,,,
296848,2022-09-23_16h02.24.712,vts_reward_expectancy,2022.2.4,MacIntel,60.0024001,Chrome,1440,900,,,,,0,675,,,,,,,,,,,,,,,,,146,W,star,1,0,,3,,,,,,,,,,,,,,switch,number,numSwt,d,1.796,vtsPrac,8,0,8,0,1,,,,,,,,,,,,,,,,,,,,,,,
296848,2022-09-23_16h02.24.712,vts_reward_expectancy,2022.2.4,MacIntel,60.0024001,Chrome,1440,900,,,,,0,675,,,,,,,,,,,,,,,,,139,F,triangle,1,0,,3,,,,,,,,,,,,,,switch,letter,lettSwt,j,0.8795,vtsPrac,9,0,9,0,1,,,,,,,,,,,,,,,,,,,,,,,
296848,2022-09-23_16h02.24.712,vts_reward_expectancy,2022.2.4,MacIntel,60.0024001,Chrome,1440,900,,,,,0,675,,,,,,,,,,,,,,,,,160,D,triangle,1,0,,3,,,,,,,,,,,,,,repeat,letter,lettRpt,j,0.7117,vtsPrac,10,0,10,0,1,,,,,,,,,,,,,,,,,,,,,,,
296848,2022-09-23_16h02.24.712,vts_reward_expectancy,2022.2.4,MacIntel,60.0024001,Chrome,1440,900,,,,,0,675,,,,,,,,,,,,,,,,,174,H,hexagon,1,0,,3,,,,,,,,,,,,,,repeat,letter,lettRpt,j,0.8546,vtsPrac,11,0,11,0,1,,,,,,,,,,,,,,,,,,,,,,,
296848,2022-09-23_16h02.24.712,vts_reward_expectancy,2022.2.4,MacIntel,60.0024001,Chrome,1440,900,,,,,0,675,,,,,,,,,,,,,,,,,146,H,hexagon,1,0,,3,,,,,,,,,,,,,,repeat,letter,lettRpt,j,0.6664,vtsPrac,12,0,12,0,1,,,,,,,,,,,,,,,,,,,,,,,
296848,2022-09-23_16h02.24.712,vts_reward_expectancy,2022.2.4,MacIntel,60.0024001,Chrome,1440,900,,,,,0,675,,,,,,,,,,,,,,,,,174,D,circle,1,0,,3,,,,,,,,,,,,,,switch,number,numSwt,f,0.8216,vtsPrac,13,0,13,0,1,,,,,,,,,,,,,,,,,,,,,,,
296848,2022-09-23_16h02.24.712,vts_reward_expectancy,2022.2.4,MacIntel,60.0024001,Chrome,1440,900,,,,,0,675,,,,,,,,,,,,,,,,,139,B,hexagon,1,0,,3,,,,,,,,,,,,,,repeat,number,numRpt,d,1.0303,vtsPrac,14,0,14,0,1,,,,,,,,,,,,,,,,,,,,,,,
296848,2022-09-23_16h02.24.712,vts_reward_expectancy,2022.2.4,MacIntel,60.0024001,Chrome,1440,900,,,,,0,675,,,,,,,,,,,,,,,,,167,U,star,1,0,,3,,,,,,,,,,,,,,repeat,number,numRpt,f,1.5982,vtsPrac,15,0,15,0,1,,,,,,,,,,,,,,,,,,,,,,,
296848,2022-09-23_16h02.24.712,vts_reward_expectancy,2022.2.4,MacIntel,60.0024001,Chrome,1440,900,,,,,,,,,,,,,,,,,,,,,,,,,,,,,,,,,,,,,,,,,,,,,,,,,,,,,,,,,,,,,,,,,,,,,,,,,,,,
296848,2022-09-23_16h02.24.712,vts_reward_expectancy,2022.2.4,MacIntel,60.0024001,Chrome,1440,900,,,,,,,,,,,,,,,,,,,,,,,,,,,,,,,,,,,,,,,,,,,,,,,,,,,,,,,,,,,,,,,,,,,,,,,,,,,,
296848,2022-09-23_16h02.24.712,vts_reward_expectancy,2022.2.4,MacIntel,60.0024001,Chrome,1440,900,,,,,0,675,,,,,,,,,,,,,,,,,132,Y,triangle,1,0,,,,,,,,,,,,,,,,repeat,number,numRpt,d,1.0311,noRew,,,,,,0,0,0,0,0,1,,,,,,,,,,,,,,,,,
296848,2022-09-23_16h02.24.712,vts_reward_expectancy,2022.2.4,MacIntel,60.0024001,Chrome,1440,900,,,,,0,675,,,,,,,,,,,,,,,,,146,W,circle,1,0,,,,,,,,,,,,,,,,repeat,number,numRpt,d,0.8488,noRew,,,,,,0,1,0,1,0,1,,,,,,,,,,,,,,,,,
296848,2022-09-23_16h02.24.712,vts_reward_expectancy,2022.2.4,MacIntel,60.0024001,Chrome,1440,900,,,,,0,675,,,,,,,,,,,,,,,,,181,B,triangle,1,0,,,,,,,,,,,,,,,,switch,letter,lettSwt,j,1.0518,noRew,,,,,,0,2,0,2,0,1,,,,,,,,,,,,,,,,,
296848,2022-09-23_16h02.24.712,vts_reward_expectancy,2022.2.4,MacIntel,60.0024001,Chrome,1440,900,,,,,0,675,,,,,,,,,,,,,,,,,174,H,circle,1,0,,,,,,,,,,,,,,,,repeat,letter,lettRpt,j,0.6974,noRew,,,,,,0,3,0,3,0,1,,,,,,,,,,,,,,,,,
296848,2022-09-23_16h02.24.712,vts_reward_expectancy,2022.2.4,MacIntel,60.0024001,Chrome,1440,900,,,,,0,675,,,,,,,,,,,,,,,,,132,Y,star,1,0,,,,,,,,,,,,,,,,repeat,letter,lettRpt,k,0.7207,noRew,,,,,,0,4,0,4,0,1,,,,,,,,,,,,,,,,,
296848,2022-09-23_16h02.24.712,vts_reward_expectancy,2022.2.4,MacIntel,60.0024001,Chrome,1440,900,,,,,0,675,,,,,,,,,,,,,,,,,146,W,hexagon,1,0,,,,,,,,,,,,,,,,switch,number,numSwt,d,0.5542,noRew,,,,,,0,5,0,5,0,1,,,,,,,,,,,,,,,,,
296848,2022-09-23_16h02.24.712,vts_reward_expectancy,2022.2.4,MacIntel,60.0024001,Chrome,1440,900,,,,,0,675,,,,,,,,,,,,,,,,,181,B,star,1,0,,,,,,,,,,,,,,,,switch,letter,lettSwt,j,1.0206,noRew,,,,,,0,6,0,6,0,1,,,,,,,,,,,,,,,,,
296848,2022-09-23_16h02.24.712,vts_reward_expectancy,2022.2.4,MacIntel,60.0024001,Chrome,1440,900,,,,,0,675,,,,,,,,,,,,,,,,,174,H,triangle,1,0,,,,,,,,,,,,,,,,switch,number,numSwt,f,0.8986,noRew,,,,,,0,7,0,7,0,1,,,,,,,,,,,,,,,,,
296848,2022-09-23_16h02.24.712,vts_reward_expectancy,2022.2.4,MacIntel,60.0024001,Chrome,1440,900,,,,,0,675,,,,,,,,,,,,,,,,,160,F,triangle,1,0,,,,,,,,,,,,,,,,repeat,number,numRpt,f,1.1805,noRew,,,,,,0,8,0,8,0,1,,,,,,,,,,,,,,,,,
296848,2022-09-23_16h02.24.712,vts_reward_expectancy,2022.2.4,MacIntel,60.0024001,Chrome,1440,900,,,,,0,675,,,,,,,,,,,,,,,,,132,H,star,1,0,,,,,,,,,,,,,,,,switch,letter,lettSwt,j,1.0135,noRew,,,,,,0,9,0,9,0,1,,,,,,,,,,,,,,,,,
296848,2022-09-23_16h02.24.712,vts_reward_expectancy,2022.2.4,MacIntel,60.0024001,Chrome,1440,900,,,,,0,675,,,,,,,,,,,,,,,,,139,W,star,1,0,,,,,,,,,,,,,,,,repeat,letter,lettRpt,k,0.9308,noRew,,,,,,0,10,0,10,0,1,,,,,,,,,,,,,,,,,
296848,2022-09-23_16h02.24.712,vts_reward_expectancy,2022.2.4,MacIntel,60.0024001,Chrome,1440,900,,,,,0,675,,,,,,,,,,,,,,,,,174,B,hexagon,1,0,,,,,,,,,,,,,,,,repeat,letter,lettRpt,j,0.5875,noRew,,,,,,0,11,0,11,0,1,,,,,,,,,,,,,,,,,
296848,2022-09-23_16h02.24.712,vts_reward_expectancy,2022.2.4,MacIntel,60.0024001,Chrome,1440,900,,,,,0,675,,,,,,,,,,,,,,,,,174,W,triangle,1,0,,,,,,,,,,,,,,,,repeat,letter,lettRpt,k,0.5241,noRew,,,,,,0,12,0,12,0,1,,,,,,,,,,,,,,,,,
296848,2022-09-23_16h02.24.712,vts_reward_expectancy,2022.2.4,MacIntel,60.0024001,Chrome,1440,900,,,,,0,675,,,,,,,,,,,,,,,,,167,S,hexagon,1,0,,,,,,,,,,,,,,,,repeat,letter,lettRpt,k,0.7366,noRew,,,,,,0,13,0,13,0,1,,,,,,,,,,,,,,,,,
296848,2022-09-23_16h02.24.712,vts_reward_expectancy,2022.2.4,MacIntel,60.0024001,Chrome,1440,900,,,,,0,675,,,,,,,,,,,,,,,,,160,Y,hexagon,1,0,,,,,,,,,,,,,,,,switch,number,numSwt,f,0.5305,noRew,,,,,,0,14,0,14,0,1,,,,,,,,,,,,,,,,,
296848,2022-09-23_16h02.24.712,vts_reward_expectancy,2022.2.4,MacIntel,60.0024001,Chrome,1440,900,,,,,0,675,,,,,,,,,,,,,,,,,132,B,triangle,1,0,,,,,,,,,,,,,,,,repeat,number,numRpt,d,0.6468,noRew,,,,,,0,15,0,15,0,1,,,,,,,,,,,,,,,,,
296848,2022-09-23_16h02.24.712,vts_reward_expectancy,2022.2.4,MacIntel,60.0024001,Chrome,1440,900,,,,,0,675,,,,,,,,,,,,,,,,,132,Y,circle,1,0,,,,,,,,,,,,,,,,repeat,number,numRpt,d,1.0164,noRew,,,,,,0,16,0,16,0,1,,,,,,,,,,,,,,,,,
296848,2022-09-23_16h02.24.712,vts_reward_expectancy,2022.2.4,MacIntel,60.0024001,Chrome,1440,900,,,,,0,675,,,,,,,,,,,,,,,,,146,D,star,1,0,,,,,,,,,,,,,,,,repeat,number,numRpt,d,0.8476,noRew,,,,,,0,17,0,17,0,1,,,,,,,,,,,,,,,,,
296848,2022-09-23_16h02.24.712,vts_reward_expectancy,2022.2.4,MacIntel,60.0024001,Chrome,1440,900,,,,,0,675,,,,,,,,,,,,,,,,,181,S,star,1,0,,,,,,,,,,,,,,,,repeat,number,numRpt,f,0.8302,noRew,,,,,,0,18,0,18,0,1,,,,,,,,,,,,,,,,,
296848,2022-09-23_16h02.24.712,vts_reward_expectancy,2022.2.4,MacIntel,60.0024001,Chrome,1440,900,,,,,0,675,,,,,,,,,,,,,,,,,125,H,triangle,1,0,,,,,,,,,,,,,,,,switch,letter,lettSwt,j,0.7315,noRew,,,,,,0,19,0,19,0,1,,,,,,,,,,,,,,,,,
296848,2022-09-23_16h02.24.712,vts_reward_expectancy,2022.2.4,MacIntel,60.0024001,Chrome,1440,900,,,,,0,675,,,,,,,,,,,,,,,,,125,B,hexagon,1,0,,,,,,,,,,,,,,,,switch,number,numSwt,d,0.9156,noRew,,,,,,0,20,0,20,0,1,,,,,,,,,,,,,,,,,
296848,2022-09-23_16h02.24.712,vts_reward_expectancy,2022.2.4,MacIntel,60.0024001,Chrome,1440,900,,,,,0,675,,,,,,,,,,,,,,,,,132,W,star,1,0,,,,,,,,,,,,,,,,switch,letter,lettSwt,k,0.5481,noRew,,,,,,0,21,0,21,0,1,,,,,,,,,,,,,,,,,
296848,2022-09-23_16h02.24.712,vts_reward_expectancy,2022.2.4,MacIntel,60.0024001,Chrome,1440,900,,,,,0,675,,,,,,,,,,,,,,,,,146,F,circle,1,0,,,,,,,,,,,,,,,,repeat,letter,lettRpt,j,0.8296,noRew,,,,,,0,22,0,22,0,1,,,,,,,,,,,,,,,,,
296848,2022-09-23_16h02.24.712,vts_reward_expectancy,2022.2.4,MacIntel,60.0024001,Chrome,1440,900,,,,,0,675,,,,,,,,,,,,,,,,,174,S,triangle,1,0,,,,,,,,,,,,,,,,repeat,letter,lettRpt,k,1.3468,noRew,,,,,,0,23,0,23,0,1,,,,,,,,,,,,,,,,,
296848,2022-09-23_16h02.24.712,vts_reward_expectancy,2022.2.4,MacIntel,60.0024001,Chrome,1440,900,,,,,0,675,,,,,,,,,,,,,,,,,125,U,circle,1,0,,,,,,,,,,,,,,,,repeat,letter,lettRpt,k,1.3372,noRew,,,,,,0,24,0,24,0,1,,,,,,,,,,,,,,,,,
296848,2022-09-23_16h02.24.712,vts_reward_expectancy,2022.2.4,MacIntel,60.0024001,Chrome,1440,900,,,,,0,675,,,,,,,,,,,,,,,,,132,B,star,1,0,,,,,,,,,,,,,,,,repeat,letter,lettRpt,j,1.02,noRew,,,,,,0,25,0,25,0,1,,,,,,,,,,,,,,,,,
296848,2022-09-23_16h02.24.712,vts_reward_expectancy,2022.2.4,MacIntel,60.0024001,Chrome,1440,900,,,,,0,675,,,,,,,,,,,,,,,,,146,H,star,-1,0,,,,,,,,,,,,,,,,switch,no_choice,NA,,,noRew,,,,,,0,26,0,26,0,1,,,,,,,,,,,,,,,,,
296848,2022-09-23_16h02.24.712,vts_reward_expectancy,2022.2.4,MacIntel,60.0024001,Chrome,1440,900,,,,,0,675,,,,,,,,,,,,,,,,,167,S,circle,1,0,,,,,,,,,,,,,,,,switch,letter,lettSwt,k,0.6475,noRew,,,,,,0,27,0,27,0,1,,,,,,,,,,,,,,,,,
296848,2022-09-23_16h02.24.712,vts_reward_expectancy,2022.2.4,MacIntel,60.0024001,Chrome,1440,900,,,,,0,675,,,,,,,,,,,,,,,,,160,D,hexagon,1,0,,,,,,,,,,,,,,,,switch,number,numSwt,f,0.7541,noRew,,,,,,0,28,0,28,0,1,,,,,,,,,,,,,,,,,
296848,2022-09-23_16h02.24.712,vts_reward_expectancy,2022.2.4,MacIntel,60.0024001,Chrome,1440,900,,,,,0,675,,,,,,,,,,,,,,,,,139,W,triangle,1,0,,,,,,,,,,,,,,,,repeat,number,numRpt,d,0.546,noRew,,,,,,0,29,0,29,0,1,,,,,,,,,,,,,,,,,
296848,2022-09-23_16h02.24.712,vts_reward_expectancy,2022.2.4,MacIntel,60.0024001,Chrome,1440,900,,,,,0,675,,,,,,,,,,,,,,,,,125,H,circle,1,0,,,,,,,,,,,,,,,,repeat,number,numRpt,d,0.5644,noRew,,,,,,0,30,0,30,0,1,,,,,,,,,,,,,,,,,
296848,2022-09-23_16h02.24.712,vts_reward_expectancy,2022.2.4,MacIntel,60.0024001,Chrome,1440,900,,,,,0,675,,,,,,,,,,,,,,,,,167,Y,hexagon,1,0,,,,,,,,,,,,,,,,repeat,number,numRpt,f,0.6695,noRew,,,,,,0,31,0,31,0,1,,,,,,,,,,,,,,,,,
296848,2022-09-23_16h02.24.712,vts_reward_expectancy,2022.2.4,MacIntel,60.0024001,Chrome,1440,900,,,,,0,675,,,,,,,,,,,,,,,,,125,U,circle,1,0,,,,,,,,,,,,,,,,repeat,number,numRpt,d,0.6152,noRew,,,,,,0,32,0,32,0,1,,,,,,,,,,,,,,,,,
296848,2022-09-23_16h02.24.712,vts_reward_expectancy,2022.2.4,MacIntel,60.0024001,Chrome,1440,900,,,,,0,675,,,,,,,,,,,,,,,,,146,W,hexagon,1,0,,,,,,,,,,,,,,,,switch,letter,lettSwt,k,0.5523,noRew,,,,,,0,33,0,33,0,1,,,,,,,,,,,,,,,,,
296848,2022-09-23_16h02.24.712,vts_reward_expectancy,2022.2.4,MacIntel,60.0024001,Chrome,1440,900,,,,,0,675,,,,,,,,,,,,,,,,,160,Y,triangle,1,0,,,,,,,,,,,,,,,,repeat,letter,lettRpt,k,0.6144,noRew,,,,,,0,34,0,34,0,1,,,,,,,,,,,,,,,,,
296848,2022-09-23_16h02.24.712,vts_reward_expectancy,2022.2.4,MacIntel,60.0024001,Chrome,1440,900,,,,,0,675,,,,,,,,,,,,,,,,,174,H,circle,1,0,,,,,,,,,,,,,,,,repeat,letter,lettRpt,j,1.4482,noRew,,,,,,0,35,0,35,0,1,,,,,,,,,,,,,,,,,
296848,2022-09-23_16h02.24.712,vts_reward_expectancy,2022.2.4,MacIntel,60.0024001,Chrome,1440,900,,,,,0,675,,,,,,,,,,,,,,,,,146,F,circle,1,0,,,,,,,,,,,,,,,,repeat,letter,lettRpt,j,0.6506,noRew,,,,,,0,36,0,36,0,1,,,,,,,,,,,,,,,,,
296848,2022-09-23_16h02.24.712,vts_reward_expectancy,2022.2.4,MacIntel,60.0024001,Chrome,1440,900,,,,,0,675,,,,,,,,,,,,,,,,,160,Y,hexagon,1,0,,,,,,,,,,,,,,,,switch,number,numSwt,f,0.6313,noRew,,,,,,0,37,0,37,0,1,,,,,,,,,,,,,,,,,
296848,2022-09-23_16h02.24.712,vts_reward_expectancy,2022.2.4,MacIntel,60.0024001,Chrome,1440,900,,,,,0,675,,,,,,,,,,,,,,,,,181,D,hexagon,1,0,,,,,,,,,,,,,,,,repeat,number,numRpt,f,0.6014,noRew,,,,,,0,38,0,38,0,1,,,,,,,,,,,,,,,,,
296848,2022-09-23_16h02.24.712,vts_reward_expectancy,2022.2.4,MacIntel,60.0024001,Chrome,1440,900,,,,,0,675,,,,,,,,,,,,,,,,,125,S,star,1,0,,,,,,,,,,,,,,,,repeat,number,numRpt,d,1.2155,noRew,,,,,,0,39,0,39,0,1,,,,,,,,,,,,,,,,,
296848,2022-09-23_16h02.24.712,vts_reward_expectancy,2022.2.4,MacIntel,60.0024001,Chrome,1440,900,,,,,0,675,,,,,,,,,,,,,,,,,132,W,circle,-1,0,,,,,,,,,,,,,,,,switch,no_choice,NA,,,noRew,,,,,,0,40,0,40,0,1,,,,,,,,,,,,,,,,,
296848,2022-09-23_16h02.24.712,vts_reward_expectancy,2022.2.4,MacIntel,60.0024001,Chrome,1440,900,,,,,0,675,,,,,,,,,,,,,,,,,146,B,star,1,0,,,,,,,,,,,,,,,,switch,letter,lettSwt,j,0.7453,noRew,,,,,,0,41,0,41,0,1,,,,,,,,,,,,,,,,,
296848,2022-09-23_16h02.24.712,vts_reward_expectancy,2022.2.4,MacIntel,60.0024001,Chrome,1440,900,,,,,0,675,,,,,,,,,,,,,,,,,139,F,circle,1,0,,,,,,,,,,,,,,,,repeat,letter,lettRpt,j,0.7139,noRew,,,,,,0,42,0,42,0,1,,,,,,,,,,,,,,,,,
296848,2022-09-23_16h02.24.712,vts_reward_expectancy,2022.2.4,MacIntel,60.0024001,Chrome,1440,900,,,,,0,675,,,,,,,,,,,,,,,,,167,S,hexagon,1,0,,,,,,,,,,,,,,,,switch,number,numSwt,f,0.5666,noRew,,,,,,0,43,0,43,0,1,,,,,,,,,,,,,,,,,
296848,2022-09-23_16h02.24.712,vts_reward_expectancy,2022.2.4,MacIntel,60.0024001,Chrome,1440,900,,,,,0,675,,,,,,,,,,,,,,,,,132,H,circle,1,0,,,,,,,,,,,,,,,,repeat,number,numRpt,d,0.9639,noRew,,,,,,0,44,0,44,0,1,,,,,,,,,,,,,,,,,
296848,2022-09-23_16h02.24.712,vts_reward_expectancy,2022.2.4,MacIntel,60.0024001,Chrome,1440,900,,,,,0,675,,,,,,,,,,,,,,,,,125,Y,triangle,1,0,,,,,,,,,,,,,,,,repeat,number,numRpt,d,0.5716,noRew,,,,,,0,45,0,45,0,1,,,,,,,,,,,,,,,,,
296848,2022-09-23_16h02.24.712,vts_reward_expectancy,2022.2.4,MacIntel,60.0024001,Chrome,1440,900,,,,,0,675,,,,,,,,,,,,,,,,,181,D,star,1,0,,,,,,,,,,,,,,,,switch,letter,lettSwt,j,1.3472,noRew,,,,,,0,46,0,46,0,1,,,,,,,,,,,,,,,,,
296848,2022-09-23_16h02.24.712,vts_reward_expectancy,2022.2.4,MacIntel,60.0024001,Chrome,1440,900,,,,,0,675,,,,,,,,,,,,,,,,,167,S,circle,1,0,,,,,,,,,,,,,,,,repeat,letter,lettRpt,k,0.9159,noRew,,,,,,0,47,0,47,0,1,,,,,,,,,,,,,,,,,
296848,2022-09-23_16h02.24.712,vts_reward_expectancy,2022.2.4,MacIntel,60.0024001,Chrome,1440,900,,,,,0,675,,,,,,,,,,,,,,,,,125,W,star,1,0,,,,,,,,,,,,,,,,repeat,letter,lettRpt,k,0.68,noRew,,,,,,0,48,0,48,0,1,,,,,,,,,,,,,,,,,
296848,2022-09-23_16h02.24.712,vts_reward_expectancy,2022.2.4,MacIntel,60.0024001,Chrome,1440,900,,,,,0,675,,,,,,,,,,,,,,,,,146,F,hexagon,1,0,,,,,,,,,,,,,,,,repeat,letter,lettRpt,j,0.6808,noRew,,,,,,0,49,0,49,0,1,,,,,,,,,,,,,,,,,
296848,2022-09-23_16h02.24.712,vts_reward_expectancy,2022.2.4,MacIntel,60.0024001,Chrome,1440,900,,,,,0,675,,,,,,,,,,,,,,,,,167,H,circle,1,0,,,,,,,,,,,,,,,,repeat,letter,lettRpt,j,0.7301,noRew,,,,,,0,50,0,50,0,1,,,,,,,,,,,,,,,,,
296848,2022-09-23_16h02.24.712,vts_reward_expectancy,2022.2.4,MacIntel,60.0024001,Chrome,1440,900,,,,,0,675,,,,,,,,,,,,,,,,,160,D,star,1,0,,,,,,,,,,,,,,,,repeat,letter,lettRpt,j,0.531,noRew,,,,,,0,51,0,51,0,1,,,,,,,,,,,,,,,,,
296848,2022-09-23_16h02.24.712,vts_reward_expectancy,2022.2.4,MacIntel,60.0024001,Chrome,1440,900,,,,,0,675,,,,,,,,,,,,,,,,,139,Y,triangle,1,0,,,,,,,,,,,,,,,,switch,number,numSwt,d,0.5364,noRew,,,,,,0,52,0,52,0,1,,,,,,,,,,,,,,,,,
296848,2022-09-23_16h02.24.712,vts_reward_expectancy,2022.2.4,MacIntel,60.0024001,Chrome,1440,900,,,,,0,675,,,,,,,,,,,,,,,,,146,B,circle,1,0,,,,,,,,,,,,,,,,repeat,number,numRpt,d,0.6315,noRew,,,,,,0,53,0,53,0,1,,,,,,,,,,,,,,,,,
296848,2022-09-23_16h02.24.712,vts_reward_expectancy,2022.2.4,MacIntel,60.0024001,Chrome,1440,900,,,,,0,675,,,,,,,,,,,,,,,,,181,H,star,1,0,,,,,,,,,,,,,,,,repeat,number,numRpt,f,0.9635,noRew,,,,,,0,54,0,54,0,1,,,,,,,,,,,,,,,,,
296848,2022-09-23_16h02.24.712,vts_reward_expectancy,2022.2.4,MacIntel,60.0024001,Chrome,1440,900,,,,,0,675,,,,,,,,,,,,,,,,,167,U,hexagon,1,0,,,,,,,,,,,,,,,,repeat,number,numRpt,f,0.8634,noRew,,,,,,0,55,0,55,0,1,,,,,,,,,,,,,,,,,
296848,2022-09-23_16h02.24.712,vts_reward_expectancy,2022.2.4,MacIntel,60.0024001,Chrome,1440,900,,,,,0,675,,,,,,,,,,,,,,,,,167,W,triangle,1,0,,,,,,,,,,,,,,,,repeat,number,numRpt,f,0.5981,noRew,,,,,,0,56,0,56,0,1,,,,,,,,,,,,,,,,,
296848,2022-09-23_16h02.24.712,vts_reward_expectancy,2022.2.4,MacIntel,60.0024001,Chrome,1440,900,,,,,0,675,,,,,,,,,,,,,,,,,125,F,star,1,0,,,,,,,,,,,,,,,,repeat,number,numRpt,d,1.6711,noRew,,,,,,0,57,0,57,0,1,,,,,,,,,,,,,,,,,
296848,2022-09-23_16h02.24.712,vts_reward_expectancy,2022.2.4,MacIntel,60.0024001,Chrome,1440,900,,,,,0,675,,,,,,,,,,,,,,,,,160,H,triangle,1,0,,,,,,,,,,,,,,,,switch,letter,lettSwt,j,0.8308,noRew,,,,,,0,58,0,58,0,1,,,,,,,,,,,,,,,,,
296848,2022-09-23_16h02.24.712,vts_reward_expectancy,2022.2.4,MacIntel,60.0024001,Chrome,1440,900,,,,,0,675,,,,,,,,,,,,,,,,,132,Y,star,1,0,,,,,,,,,,,,,,,,repeat,letter,lettRpt,k,0.7048,noRew,,,,,,0,59,0,59,0,1,,,,,,,,,,,,,,,,,
296848,2022-09-23_16h02.24.712,vts_reward_expectancy,2022.2.4,MacIntel,60.0024001,Chrome,1440,900,,,,,0,675,,,,,,,,,,,,,,,,,181,S,star,1,0,,,,,,,,,,,,,,,,repeat,letter,lettRpt,k,0.6294,noRew,,,,,,0,60,0,60,0,1,,,,,,,,,,,,,,,,,
296848,2022-09-23_16h02.24.712,vts_reward_expectancy,2022.2.4,MacIntel,60.0024001,Chrome,1440,900,,,,,0,675,,,,,,,,,,,,,,,,,146,U,circle,1,0,,,,,,,,,,,,,,,,repeat,letter,lettRpt,k,0.5811,noRew,,,,,,0,61,0,61,0,1,,,,,,,,,,,,,,,,,
296848,2022-09-23_16h02.24.712,vts_reward_expectancy,2022.2.4,MacIntel,60.0024001,Chrome,1440,900,,,,,0,675,,,,,,,,,,,,,,,,,125,Y,star,1,0,,,,,,,,,,,,,,,,repeat,letter,lettRpt,k,0.4812,noRew,,,,,,0,62,0,62,0,1,,,,,,,,,,,,,,,,,
296848,2022-09-23_16h02.24.712,vts_reward_expectancy,2022.2.4,MacIntel,60.0024001,Chrome,1440,900,,,,,0,675,,,,,,,,,,,,,,,,,160,H,circle,1,0,,,,,,,,,,,,,,,,repeat,letter,lettRpt,j,0.8359,noRew,,,,,,0,63,0,63,0,1,,,,,,,,,,,,,,,,,
296848,2022-09-23_16h02.24.712,vts_reward_expectancy,2022.2.4,MacIntel,60.0024001,Chrome,1440,900,,,,,,,,,,,,,,,,,,,,,,,,,,,,,,,,,,,,,,,,,,,,,,,,,,,,,,,,,,,,,,,,,,,,,,,,,,,,
296848,2022-09-23_16h02.24.712,vts_reward_expectancy,2022.2.4,MacIntel,60.0024001,Chrome,1440,900,,,,,0,675,,,,,,,,,,,,,,,,,132,H,circle,1,0,,,,,,,,,,,,,,,,repeat,letter,lettRpt,j,0.7319,Hi,,,,,,0,,,,,,space,8.024,low,0,0,0,0,1,,,,,,,,,
296848,2022-09-23_16h02.24.712,vts_reward_expectancy,2022.2.4,MacIntel,60.0024001,Chrome,1440,900,,,,,10,685,,,,,,,,,,,,,,,,,125,W,star,1,0,,,,,,,,,,,,,,,,switch,number,numSwt,d,0.5975,Lo,,,,,,0,,,,,,,,low,1,0,1,0,1,,,,,,,,,
296848,2022-09-23_16h02.24.712,vts_reward_expectancy,2022.2.4,MacIntel,60.0024001,Chrome,1440,900,,,,,10,695,,,,,,,,,,,,,,,,,160,Y,circle,1,0,,,,,,,,,,,,,,,,repeat,number,numRpt,f,0.6022,Hi,,,,,,0,,,,,,,,low,2,0,2,0,1,,,,,,,,,
296848,2022-09-23_16h02.24.712,vts_reward_expectancy,2022.2.4,MacIntel,60.0024001,Chrome,1440,900,,,,,1,696,,,,,,,,,,,,,,,,,139,D,star,1,0,,,,,,,,,,,,,,,,switch,letter,lettSwt,j,0.4495,Lo,,,,,,0,,,,,,,,low,3,0,3,0,1,,,,,,,,,
296848,2022-09-23_16h02.24.712,vts_reward_expectancy,2022.2.4,MacIntel,60.0024001,Chrome,1440,900,,,,,10,706,,,,,,,,,,,,,,,,,167,U,circle,1,0,,,,,,,,,,,,,,,,switch,number,numSwt,f,0.5529,Hi,,,,,,0,,,,,,,,low,4,0,4,0,1,,,,,,,,,
296848,2022-09-23_16h02.24.712,vts_reward_expectancy,2022.2.4,MacIntel,60.0024001,Chrome,1440,900,,,,,1,707,,,,,,,,,,,,,,,,,146,B,star,1,0,,,,,,,,,,,,,,,,repeat,number,numRpt,d,0.582,Lo,,,,,,0,,,,,,,,low,5,0,5,0,1,,,,,,,,,
296848,2022-09-23_16h02.24.712,vts_reward_expectancy,2022.2.4,MacIntel,60.0024001,Chrome,1440,900,,,,,0,707,,,,,,,,,,,,,,,,,174,F,circle,1,0,,,,,,,,,,,,,,,,switch,letter,lettSwt,j,0.7792,Hi,,,,,,0,,,,,,,,low,6,0,6,0,1,,,,,,,,,
296848,2022-09-23_16h02.24.712,vts_reward_expectancy,2022.2.4,MacIntel,60.0024001,Chrome,1440,900,,,,,10,717,,,,,,,,,,,,,,,,,181,S,star,1,0,,,,,,,,,,,,,,,,repeat,letter,lettRpt,k,0.4976,Lo,,,,,,0,,,,,,,,low,7,0,7,0,1,,,,,,,,,
296848,2022-09-23_16h02.24.712,vts_reward_expectancy,2022.2.4,MacIntel,60.0024001,Chrome,1440,900,,,,,10,727,,,,,,,,,,,,,,,,,132,H,star,1,0,,,,,,,,,,,,,,,,repeat,letter,lettRpt,j,0.5141,Lo,,,,,,0,,,,,,,,low,8,0,8,0,1,,,,,,,,,
296848,2022-09-23_16h02.24.712,vts_reward_expectancy,2022.2.4,MacIntel,60.0024001,Chrome,1440,900,,,,,10,737,,,,,,,,,,,,,,,,,125,W,circle,1,0,,,,,,,,,,,,,,,,repeat,letter,lettRpt,k,0.5131,Hi,,,,,,0,,,,,,,,low,9,0,9,0,1,,,,,,,,,
296848,2022-09-23_16h02.24.712,vts_reward_expectancy,2022.2.4,MacIntel,60.0024001,Chrome,1440,900,,,,,10,747,,,,,,,,,,,,,,,,,160,Y,circle,1,0,,,,,,,,,,,,,,,,switch,number,numSwt,f,0.4636,Hi,,,,,,0,,,,,,,,low,10,0,10,0,1,,,,,,,,,
296848,2022-09-23_16h02.24.712,vts_reward_expectancy,2022.2.4,MacIntel,60.0024001,Chrome,1440,900,,,,,10,757,,,,,,,,,,,,,,,,,139,D,star,1,0,,,,,,,,,,,,,,,,repeat,number,numRpt,d,0.4632,Lo,,,,,,0,,,,,,,,low,11,0,11,0,1,,,,,,,,,
296848,2022-09-23_16h02.24.712,vts_reward_expectancy,2022.2.4,MacIntel,60.0024001,Chrome,1440,900,,,,,1,758,,,,,,,,,,,,,,,,,167,U,star,1,0,,,,,,,,,,,,,,,,repeat,number,numRpt,f,0.4214,Lo,,,,,,0,,,,,,,,low,12,0,12,0,1,,,,,,,,,
296848,2022-09-23_16h02.24.712,vts_reward_expectancy,2022.2.4,MacIntel,60.0024001,Chrome,1440,900,,,,,1,759,,,,,,,,,,,,,,,,,146,B,circle,1,0,,,,,,,,,,,,,,,,switch,letter,lettSwt,j,0.3986,Hi,,,,,,0,,,,,,,,low,13,0,13,0,1,,,,,,,,,
296848,2022-09-23_16h02.24.712,vts_reward_expectancy,2022.2.4,MacIntel,60.0024001,Chrome,1440,900,,,,,1,760,,,,,,,,,,,,,,,,,174,F,star,1,0,,,,,,,,,,,,,,,,switch,number,numSwt,f,0.5877,Lo,,,,,,0,,,,,,,,low,14,0,14,0,1,,,,,,,,,
296848,2022-09-23_16h02.24.712,vts_reward_expectancy,2022.2.4,MacIntel,60.0024001,Chrome,1440,900,,,,,10,770,,,,,,,,,,,,,,,,,181,S,circle,1,0,,,,,,,,,,,,,,,,repeat,number,numRpt,f,0.4844,Hi,,,,,,0,,,,,,,,low,15,0,15,0,1,,,,,,,,,
296848,2022-09-23_16h02.24.712,vts_reward_expectancy,2022.2.4,MacIntel,60.0024001,Chrome,1440,900,,,,,10,780,,,,,,,,,,,,,,,,,146,F,circle,1,0,,,,,,,,,,,,,,,,repeat,number,numRpt,d,0.4838,Hi,,,,,,0,,,,,,,,low,16,0,16,0,1,,,,,,,,,
296848,2022-09-23_16h02.24.712,vts_reward_expectancy,2022.2.4,MacIntel,60.0024001,Chrome,1440,900,,,,,1,781,,,,,,,,,,,,,,,,,181,Y,star,1,0,,,,,,,,,,,,,,,,repeat,number,numRpt,f,0.513,Lo,,,,,,0,,,,,,,,low,17,0,17,0,1,,,,,,,,,
296848,2022-09-23_16h02.24.712,vts_reward_expectancy,2022.2.4,MacIntel,60.0024001,Chrome,1440,900,,,,,1,782,,,,,,,,,,,,,,,,,160,W,star,1,0,,,,,,,,,,,,,,,,switch,letter,lettSwt,k,1.1504,Lo,,,,,,0,,,,,,,,low,18,0,18,0,1,,,,,,,,,
296848,2022-09-23_16h02.24.712,vts_reward_expectancy,2022.2.4,MacIntel,60.0024001,Chrome,1440,900,,,,,0,782,,,,,,,,,,,,,,,,,125,H,circle,1,0,,,,,,,,,,,,,,,,repeat,letter,lettRpt,j,0.7305,Hi,,,,,,0,,,,,,,,low,19,0,19,0,1,,,,,,,,,
296848,2022-09-23_16h02.24.712,vts_reward_expectancy,2022.2.4,MacIntel,60.0024001,Chrome,1440,900,,,,,1,783,,,,,,,,,,,,,,,,,139,S,star,1,0,,,,,,,,,,,,,,,,switch,number,numSwt,d,0.5982,Lo,,,,,,0,,,,,,,,low,20,0,20,0,1,,,,,,,,,
296848,2022-09-23_16h02.24.712,vts_reward_expectancy,2022.2.4,MacIntel,60.0024001,Chrome,1440,900,,,,,1,784,,,,,,,,,,,,,,,,,167,D,circle,1,0,,,,,,,,,,,,,,,,repeat,number,numRpt,f,0.5141,Hi,,,,,,0,,,,,,,,low,21,0,21,0,1,,,,,,,,,
296848,2022-09-23_16h02.24.712,vts_reward_expectancy,2022.2.4,MacIntel,60.0024001,Chrome,1440,900,,,,,10,794,,,,,,,,,,,,,,,,,132,U,star,1,0,,,,,,,,,,,,,,,,repeat,number,numRpt,d,0.5976,Lo,,,,,,0,,,,,,,,low,22,0,22,0,1,,,,,,,,,
296848,2022-09-23_16h02.24.712,vts_reward_expectancy,2022.2.4,MacIntel,60.0024001,Chrome,1440,900,,,,,1,795,,,,,,,,,,,,,,,,,174,B,circle,1,0,,,,,,,,,,,,,,,,repeat,number,numRpt,f,0.5121,Hi,,,,,,0,,,,,,,,low,23,0,23,0,1,,,,,,,,,
296848,2022-09-23_16h02.24.712,vts_reward_expectancy,2022.2.4,MacIntel,60.0024001,Chrome,1440,900,,,,,10,805,,,,,,,,,,,,,,,,,160,F,circle,1,0,,,,,,,,,,,,,,,,switch,letter,lettSwt,j,0.5323,Hi,,,,,,0,,,,,,,,low,24,0,24,0,1,,,,,,,,,
296848,2022-09-23_16h02.24.712,vts_reward_expectancy,2022.2.4,MacIntel,60.0024001,Chrome,1440,900,,,,,10,815,,,,,,,,,,,,,,,,,146,W,star,1,0,,,,,,,,,,,,,,,,repeat,letter,lettRpt,k,0.5039,Lo,,,,,,0,,,,,,,,low,25,0,25,0,1,,,,,,,,,
296848,2022-09-23_16h02.24.712,vts_reward_expectancy,2022.2.4,MacIntel,60.0024001,Chrome,1440,900,,,,,10,825,,,,,,,,,,,,,,,,,167,H,circle,1,0,,,,,,,,,,,,,,,,repeat,letter,lettRpt,j,0.4357,Hi,,,,,,0,,,,,,,,low,26,0,26,0,1,,,,,,,,,
296848,2022-09-23_16h02.24.712,vts_reward_expectancy,2022.2.4,MacIntel,60.0024001,Chrome,1440,900,,,,,1,826,,,,,,,,,,,,,,,,,174,S,star,1,0,,,,,,,,,,,,,,,,repeat,letter,lettRpt,k,0.6305,Lo,,,,,,0,,,,,,,,low,27,0,27,0,1,,,,,,,,,
296848,2022-09-23_16h02.24.712,vts_reward_expectancy,2022.2.4,MacIntel,60.0024001,Chrome,1440,900,,,,,10,836,,,,,,,,,,,,,,,,,181,U,circle,1,0,,,,,,,,,,,,,,,,switch,number,numSwt,f,0.4698,Hi,,,,,,0,,,,,,,,low,28,0,28,0,1,,,,,,,,,
296848,2022-09-23_16h02.24.712,vts_reward_expectancy,2022.2.4,MacIntel,60.0024001,Chrome,1440,900,,,,,10,846,,,,,,,,,,,,,,,,,132,B,star,1,0,,,,,,,,,,,,,,,,repeat,number,numRpt,d,0.6001,Lo,,,,,,0,,,,,,,,low,29,0,29,0,1,,,,,,,,,
296848,2022-09-23_16h02.24.712,vts_reward_expectancy,2022.2.4,MacIntel,60.0024001,Chrome,1440,900,,,,,1,847,,,,,,,,,,,,,,,,,125,D,circle,1,0,,,,,,,,,,,,,,,,repeat,number,numRpt,d,0.5314,Hi,,,,,,0,,,,,,,,low,30,0,30,0,1,,,,,,,,,
296848,2022-09-23_16h02.24.712,vts_reward_expectancy,2022.2.4,MacIntel,60.0024001,Chrome,1440,900,,,,,1,848,,,,,,,,,,,,,,,,,139,Y,star,1,0,,,,,,,,,,,,,,,,repeat,number,numRpt,d,0.6695,Lo,,,,,,0,,,,,,,,low,31,0,31,0,1,,,,,,,,,
296848,2022-09-23_16h02.24.712,vts_reward_expectancy,2022.2.4,MacIntel,60.0024001,Chrome,1440,900,,,,,1,849,,,,,,,,,,,,,,,,,181,U,hexagon,1,0,,,,,,,,,,,,,,,,repeat,number,numRpt,f,0.7144,Lo,,,,,,1,,,,,,space,1.4391,high,0,0,0,0,1,,,,,,,,,
296848,2022-09-23_16h02.24.712,vts_reward_expectancy,2022.2.4,MacIntel,60.0024001,Chrome,1440,900,,,,,0,849,,,,,,,,,,,,,,,,,174,B,triangle,1,0,,,,,,,,,,,,,,,,repeat,number,numRpt,f,0.8469,Hi,,,,,,1,,,,,,,,high,1,0,1,0,1,,,,,,,,,
296848,2022-09-23_16h02.24.712,vts_reward_expectancy,2022.2.4,MacIntel,60.0024001,Chrome,1440,900,,,,,1,850,,,,,,,,,,,,,,,,,139,F,hexagon,1,0,,,,,,,,,,,,,,,,repeat,number,numRpt,d,0.5472,Lo,,,,,,1,,,,,,,,high,2,0,2,0,1,,,,,,,,,
296848,2022-09-23_16h02.24.712,vts_reward_expectancy,2022.2.4,MacIntel,60.0024001,Chrome,1440,900,,,,,0,850,,,,,,,,,,,,,,,,,160,S,triangle,1,0,,,,,,,,,,,,,,,,switch,letter,lettSwt,k,0.4805,Hi,,,,,,1,,,,,,,,high,3,0,3,0,1,,,,,,,,,
296848,2022-09-23_16h02.24.712,vts_reward_expectancy,2022.2.4,MacIntel,60.0024001,Chrome,1440,900,,,,,1,851,,,,,,,,,,,,,,,,,132,H,hexagon,1,0,,,,,,,,,,,,,,,,switch,number,numSwt,d,0.58,Lo,,,,,,1,,,,,,,,high,4,0,4,0,1,,,,,,,,,
296848,2022-09-23_16h02.24.712,vts_reward_expectancy,2022.2.4,MacIntel,60.0024001,Chrome,1440,900,,,,,10,861,,,,,,,,,,,,,,,,,167,W,triangle,1,0,,,,,,,,,,,,,,,,repeat,number,numRpt,f,0.4803,Hi,,,,,,1,,,,,,,,high,5,0,5,0,1,,,,,,,,,
296848,2022-09-23_16h02.24.712,vts_reward_expectancy,2022.2.4,MacIntel,60.0024001,Chrome,1440,900,,,,,0,861,,,,,,,,,,,,,,,,,146,Y,triangle,1,0,,,,,,,,,,,,,,,,repeat,number,numRpt,d,0.6192,Hi,,,,,,1,,,,,,,,high,6,0,6,0,1,,,,,,,,,
296848,2022-09-23_16h02.24.712,vts_reward_expectancy,2022.2.4,MacIntel,60.0024001,Chrome,1440,900,,,,,1,862,,,,,,,,,,,,,,,,,125,D,hexagon,1,0,,,,,,,,,,,,,,,,repeat,number,numRpt,d,0.5313,Lo,,,,,,1,,,,,,,,high,7,0,7,0,1,,,,,,,,,
296848,2022-09-23_16h02.24.712,vts_reward_expectancy,2022.2.4,MacIntel,60.0024001,Chrome,1440,900,,,,,1,863,,,,,,,,,,,,,,,,,181,U,hexagon,1,0,,,,,,,,,,,,,,,,repeat,number,numRpt,f,0.5216,Lo,,,,,,1,,,,,,,,high,8,0,8,0,1,,,,,,,,,
296848,2022-09-23_16h02.24.712,vts_reward_expectancy,2022.2.4,MacIntel,60.0024001,Chrome,1440,900,,,,,0,863,,,,,,,,,,,,,,,,,174,B,triangle,1,0,,,,,,,,,,,,,,,,repeat,number,numRpt,f,0.7341,Hi,,,,,,1,,,,,,,,high,9,0,9,0,1,,,,,,,,,
296848,2022-09-23_16h02.24.712,vts_reward_expectancy,2022.2.4,MacIntel,60.0024001,Chrome,1440,900,,,,,0,863,,,,,,,,,,,,,,,,,139,F,triangle,1,0,,,,,,,,,,,,,,,,repeat,number,numRpt,d,0.58,Hi,,,,,,1,,,,,,,,high,10,0,10,0,1,,,,,,,,,
296848,2022-09-23_16h02.24.712,vts_reward_expectancy,2022.2.4,MacIntel,60.0024001,Chrome,1440,900,,,,,10,873,,,,,,,,,,,,,,,,,160,S,hexagon,1,0,,,,,,,,,,,,,,,,switch,letter,lettSwt,k,0.4526,Lo,,,,,,1,,,,,,,,high,11,0,11,0,1,,,,,,,,,
296848,2022-09-23_16h02.24.712,vts_reward_expectancy,2022.2.4,MacIntel,60.0024001,Chrome,1440,900,,,,,0,873,,,,,,,,,,,,,,,,,132,H,triangle,1,0,,,,,,,,,,,,,,,,repeat,letter,lettRpt,j,0.5655,Hi,,,,,,1,,,,,,,,high,12,0,12,0,1,,,,,,,,,
296848,2022-09-23_16h02.24.712,vts_reward_expectancy,2022.2.4,MacIntel,60.0024001,Chrome,1440,900,,,,,10,883,,,,,,,,,,,,,,,,,167,W,hexagon,1,0,,,,,,,,,,,,,,,,repeat,letter,lettRpt,k,0.4141,Lo,,,,,,1,,,,,,,,high,13,0,13,0,1,,,,,,,,,
296848,2022-09-23_16h02.24.712,vts_reward_expectancy,2022.2.4,MacIntel,60.0024001,Chrome,1440,900,,,,,10,893,,,,,,,,,,,,,,,,,146,Y,triangle,1,0,,,,,,,,,,,,,,,,repeat,letter,lettRpt,k,0.4635,Hi,,,,,,1,,,,,,,,high,14,0,14,0,1,,,,,,,,,
296848,2022-09-23_16h02.24.712,vts_reward_expectancy,2022.2.4,MacIntel,60.0024001,Chrome,1440,900,,,,,1,894,,,,,,,,,,,,,,,,,125,D,hexagon,1,0,,,,,,,,,,,,,,,,repeat,letter,lettRpt,j,0.4635,Lo,,,,,,1,,,,,,,,high,15,0,15,0,1,,,,,,,,,
296848,2022-09-23_16h02.24.712,vts_reward_expectancy,2022.2.4,MacIntel,60.0024001,Chrome,1440,900,,,,,10,904,,,,,,,,,,,,,,,,,139,Y,hexagon,1,0,,,,,,,,,,,,,,,,switch,number,numSwt,d,0.6141,Lo,,,,,,1,,,,,,,,high,16,0,16,0,1,,,,,,,,,
296848,2022-09-23_16h02.24.712,vts_reward_expectancy,2022.2.4,MacIntel,60.0024001,Chrome,1440,900,,,,,10,914,,,,,,,,,,,,,,,,,132,B,triangle,1,0,,,,,,,,,,,,,,,,repeat,number,numRpt,d,0.4377,Hi,,,,,,1,,,,,,,,high,17,0,17,0,1,,,,,,,,,
296848,2022-09-23_16h02.24.712,vts_reward_expectancy,2022.2.4,MacIntel,60.0024001,Chrome,1440,900,,,,,1,915,,,,,,,,,,,,,,,,,181,H,hexagon,1,0,,,,,,,,,,,,,,,,repeat,number,numRpt,f,0.4041,Lo,,,,,,1,,,,,,,,high,18,0,18,0,1,,,,,,,,,
296848,2022-09-23_16h02.24.712,vts_reward_expectancy,2022.2.4,MacIntel,60.0024001,Chrome,1440,900,,,,,0,915,,,,,,,,,,,,,,,,,167,W,triangle,1,0,,,,,,,,,,,,,,,,repeat,number,numRpt,f,0.5811,Hi,,,,,,1,,,,,,,,high,19,0,19,0,1,,,,,,,,,
296848,2022-09-23_16h02.24.712,vts_reward_expectancy,2022.2.4,MacIntel,60.0024001,Chrome,1440,900,,,,,0,915,,,,,,,,,,,,,,,,,146,D,triangle,0,0,,,,,,,,,,,,,,,,repeat,number,NA,f,0.6816,Hi,,,,,,1,,,,,,,,high,20,0,20,0,1,,,,,,,,,
296848,2022-09-23_16h02.24.712,vts_reward_expectancy,2022.2.4,MacIntel,60.0024001,Chrome,1440,900,,,,,1,916,,,,,,,,,,,,,,,,,174,S,hexagon,1,1,,,,,,,,,,,,,,,,repeat,number,numRpt,f,0.6853,Lo,,,,,,1,,,,,,,,high,21,0,21,0,1,,,,,,,,,
296848,2022-09-23_16h02.24.712,vts_reward_expectancy,2022.2.4,MacIntel,60.0024001,Chrome,1440,900,,,,,1,917,,,,,,,,,,,,,,,,,160,F,hexagon,1,0,,,,,,,,,,,,,,,,repeat,number,numRpt,f,0.5792,Lo,,,,,,1,,,,,,,,high,22,0,22,0,1,,,,,,,,,
296848,2022-09-23_16h02.24.712,vts_reward_expectancy,2022.2.4,MacIntel,60.0024001,Chrome,1440,900,,,,,0,917,,,,,,,,,,,,,,,,,125,U,triangle,1,0,,,,,,,,,,,,,,,,repeat,number,numRpt,d,0.547,Hi,,,,,,1,,,,,,,,high,23,0,23,0,1,,,,,,,,,
296848,2022-09-23_16h02.24.712,vts_reward_expectancy,2022.2.4,MacIntel,60.0024001,Chrome,1440,900,,,,,0,917,,,,,,,,,,,,,,,,,146,H,triangle,1,0,,,,,,,,,,,,,,,,repeat,number,numRpt,d,0.546,Hi,,,,,,1,,,,,,,,high,24,0,24,0,1,,,,,,,,,
296848,2022-09-23_16h02.24.712,vts_reward_expectancy,2022.2.4,MacIntel,60.0024001,Chrome,1440,900,,,,,10,927,,,,,,,,,,,,,,,,,139,S,hexagon,1,0,,,,,,,,,,,,,,,,switch,letter,lettSwt,k,0.5311,Lo,,,,,,1,,,,,,,,high,25,0,25,0,1,,,,,,,,,
296848,2022-09-23_16h02.24.712,vts_reward_expectancy,2022.2.4,MacIntel,60.0024001,Chrome,1440,900,,,,,1,928,,,,,,,,,,,,,,,,,181,U,hexagon,1,0,,,,,,,,,,,,,,,,repeat,letter,lettRpt,k,0.5135,Lo,,,,,,1,,,,,,,,high,26,0,26,0,1,,,,,,,,,
296848,2022-09-23_16h02.24.712,vts_reward_expectancy,2022.2.4,MacIntel,60.0024001,Chrome,1440,900,,,,,10,938,,,,,,,,,,,,,,,,,132,Y,triangle,1,0,,,,,,,,,,,,,,,,repeat,letter,lettRpt,k,0.4808,Hi,,,,,,1,,,,,,,,high,27,0,27,0,1,,,,,,,,,
296848,2022-09-23_16h02.24.712,vts_reward_expectancy,2022.2.4,MacIntel,60.0024001,Chrome,1440,900,,,,,0,938,,,,,,,,,,,,,,,,,160,F,triangle,1,0,,,,,,,,,,,,,,,,repeat,letter,lettRpt,j,0.6138,Hi,,,,,,1,,,,,,,,high,28,0,28,0,1,,,,,,,,,
296848,2022-09-23_16h02.24.712,vts_reward_expectancy,2022.2.4,MacIntel,60.0024001,Chrome,1440,900,,,,,10,948,,,,,,,,,,,,,,,,,125,B,hexagon,1,0,,,,,,,,,,,,,,,,repeat,letter,lettRpt,j,0.5028,Lo,,,,,,1,,,,,,,,high,29,0,29,0,1,,,,,,,,,
296848,2022-09-23_16h02.24.712,vts_reward_expectancy,2022.2.4,MacIntel,60.0024001,Chrome,1440,900,,,,,1,949,,,,,,,,,,,,,,,,,167,W,hexagon,1,0,,,,,,,,,,,,,,,,repeat,letter,lettRpt,k,0.4467,Lo,,,,,,1,,,,,,,,high,30,0,30,0,1,,,,,,,,,
296848,2022-09-23_16h02.24.712,vts_reward_expectancy,2022.2.4,MacIntel,60.0024001,Chrome,1440,900,,,,,10,959,,,,,,,,,,,,,,,,,174,D,triangle,1,0,,,,,,,,,,,,,,,,repeat,letter,lettRpt,j,0.464,Hi,,,,,,1,,,,,,,,high,31,0,31,0,1,,,,,,,,,
296848,2022-09-23_16h02.24.712,vts_reward_expectancy,2022.2.4,MacIntel,60.0024001,Chrome,1440,900,,,,,1,960,,,,,,,,,,,,,,,,,160,Y,hexagon,1,0,,,,,,,,,,,,,,,,repeat,letter,lettRpt,k,0.5311,Lo,,,,,,2,,,,,,space,2.403,high,0,0,0,0,1,,,,,,,,,
296848,2022-09-23_16h02.24.712,vts_reward_expectancy,2022.2.4,MacIntel,60.0024001,Chrome,1440,900,,,,,0,960,,,,,,,,,,,,,,,,,146,W,triangle,1,0,,,,,,,,,,,,,,,,repeat,letter,lettRpt,k,0.5017,Hi,,,,,,2,,,,,,,,high,1,0,1,0,1,,,,,,,,,
296848,2022-09-23_16h02.24.712,vts_reward_expectancy,2022.2.4,MacIntel,60.0024001,Chrome,1440,900,,,,,1,961,,,,,,,,,,,,,,,,,181,H,hexagon,1,0,,,,,,,,,,,,,,,,repeat,letter,lettRpt,j,0.4157,Lo,,,,,,2,,,,,,,,high,2,0,2,0,1,,,,,,,,,
296848,2022-09-23_16h02.24.712,vts_reward_expectancy,2022.2.4,MacIntel,60.0024001,Chrome,1440,900,,,,,10,971,,,,,,,,,,,,,,,,,132,B,triangle,1,0,,,,,,,,,,,,,,,,repeat,letter,lettRpt,j,0.3544,Hi,,,,,,2,,,,,,,,high,3,0,3,0,1,,,,,,,,,
296848,2022-09-23_16h02.24.712,vts_reward_expectancy,2022.2.4,MacIntel,60.0024001,Chrome,1440,900,,,,,0,971,,,,,,,,,,,,,,,,,139,F,triangle,1,0,,,,,,,,,,,,,,,,repeat,letter,lettRpt,j,0.5114,Hi,,,,,,2,,,,,,,,high,4,0,4,0,1,,,,,,,,,
296848,2022-09-23_16h02.24.712,vts_reward_expectancy,2022.2.4,MacIntel,60.0024001,Chrome,1440,900,,,,,1,972,,,,,,,,,,,,,,,,,167,U,hexagon,1,0,,,,,,,,,,,,,,,,repeat,letter,lettRpt,k,0.5978,Lo,,,,,,2,,,,,,,,high,5,0,5,0,1,,,,,,,,,
296848,2022-09-23_16h02.24.712,vts_reward_expectancy,2022.2.4,MacIntel,60.0024001,Chrome,1440,900,,,,,0,972,,,,,,,,,,,,,,,,,125,S,triangle,1,0,,,,,,,,,,,,,,,,repeat,letter,lettRpt,k,0.4648,Hi,,,,,,2,,,,,,,,high,6,0,6,0,1,,,,,,,,,
296848,2022-09-23_16h02.24.712,vts_reward_expectancy,2022.2.4,MacIntel,60.0024001,Chrome,1440,900,,,,,1,973,,,,,,,,,,,,,,,,,174,D,hexagon,1,0,,,,,,,,,,,,,,,,switch,number,numSwt,f,0.6199,Lo,,,,,,2,,,,,,,,high,7,0,7,0,1,,,,,,,,,
296848,2022-09-23_16h02.24.712,vts_reward_expectancy,2022.2.4,MacIntel,60.0024001,Chrome,1440,900,,,,,10,983,,,,,,,,,,,,,,,,,160,Y,triangle,1,0,,,,,,,,,,,,,,,,repeat,number,numRpt,f,0.4867,Hi,,,,,,2,,,,,,,,high,8,0,8,0,1,,,,,,,,,
296848,2022-09-23_16h02.24.712,vts_reward_expectancy,2022.2.4,MacIntel,60.0024001,Chrome,1440,900,,,,,10,993,,,,,,,,,,,,,,,,,146,W,hexagon,1,0,,,,,,,,,,,,,,,,repeat,number,numRpt,d,0.4813,Lo,,,,,,2,,,,,,,,high,9,0,9,0,1,,,,,,,,,
296848,2022-09-23_16h02.24.712,vts_reward_expectancy,2022.2.4,MacIntel,60.0024001,Chrome,1440,900,,,,,1,994,,,,,,,,,,,,,,,,,181,H,hexagon,1,0,,,,,,,,,,,,,,,,repeat,number,numRpt,f,0.521,Lo,,,,,,2,,,,,,,,high,10,0,10,0,1,,,,,,,,,
296848,2022-09-23_16h02.24.712,vts_reward_expectancy,2022.2.4,MacIntel,60.0024001,Chrome,1440,900,,,,,10,1004,,,,,,,,,,,,,,,,,132,B,triangle,1,0,,,,,,,,,,,,,,,,repeat,number,numRpt,d,0.4472,Hi,,,,,,2,,,,,,,,high,11,0,11,0,1,,,,,,,,,
296848,2022-09-23_16h02.24.712,vts_reward_expectancy,2022.2.4,MacIntel,60.0024001,Chrome,1440,900,,,,,1,1005,,,,,,,,,,,,,,,,,139,F,hexagon,1,0,,,,,,,,,,,,,,,,repeat,number,numRpt,d,0.5298,Lo,,,,,,2,,,,,,,,high,12,0,12,0,1,,,,,,,,,
296848,2022-09-23_16h02.24.712,vts_reward_expectancy,2022.2.4,MacIntel,60.0024001,Chrome,1440,900,,,,,0,1005,,,,,,,,,,,,,,,,,167,U,triangle,1,0,,,,,,,,,,,,,,,,repeat,number,numRpt,f,0.5963,Hi,,,,,,2,,,,,,,,high,13,0,13,0,1,,,,,,,,,
296848,2022-09-23_16h02.24.712,vts_reward_expectancy,2022.2.4,MacIntel,60.0024001,Chrome,1440,900,,,,,10,1015,,,,,,,,,,,,,,,,,125,S,hexagon,1,0,,,,,,,,,,,,,,,,repeat,number,numRpt,d,0.4801,Lo,,,,,,2,,,,,,,,high,14,0,14,0,1,,,,,,,,,
296848,2022-09-23_16h02.24.712,vts_reward_expectancy,2022.2.4,MacIntel,60.0024001,Chrome,1440,900,,,,,10,1025,,,,,,,,,,,,,,,,,174,D,triangle,1,0,,,,,,,,,,,,,,,,repeat,number,numRpt,f,0.3963,Hi,,,,,,2,,,,,,,,high,15,0,15,0,1,,,,,,,,,
296848,2022-09-23_16h02.24.712,vts_reward_expectancy,2022.2.4,MacIntel,60.0024001,Chrome,1440,900,,,,,10,1035,,,,,,,,,,,,,,,,,146,D,triangle,1,0,,,,,,,,,,,,,,,,repeat,number,numRpt,d,0.4836,Hi,,,,,,2,,,,,,,,high,16,0,16,0,1,,,,,,,,,
296848,2022-09-23_16h02.24.712,vts_reward_expectancy,2022.2.4,MacIntel,60.0024001,Chrome,1440,900,,,,,1,1036,,,,,,,,,,,,,,,,,174,U,hexagon,1,0,,,,,,,,,,,,,,,,repeat,number,numRpt,f,0.4132,Lo,,,,,,2,,,,,,,,high,17,0,17,0,1,,,,,,,,,
296848,2022-09-23_16h02.24.712,vts_reward_expectancy,2022.2.4,MacIntel,60.0024001,Chrome,1440,900,,,,,10,1046,,,,,,,,,,,,,,,,,132,H,triangle,1,0,,,,,,,,,,,,,,,,repeat,number,numRpt,d,0.381,Hi,,,,,,2,,,,,,,,high,18,0,18,0,1,,,,,,,,,
296848,2022-09-23_16h02.24.712,vts_reward_expectancy,2022.2.4,MacIntel,60.0024001,Chrome,1440,900,,,,,1,1047,,,,,,,,,,,,,,,,,181,S,hexagon,1,0,,,,,,,,,,,,,,,,repeat,number,numRpt,f,0.3798,Lo,,,,,,2,,,,,,,,high,19,0,19,0,1,,,,,,,,,
296848,2022-09-23_16h02.24.712,vts_reward_expectancy,2022.2.4,MacIntel,60.0024001,Chrome,1440,900,,,,,0,1047,,,,,,,,,,,,,,,,,167,F,hexagon,0,0,,,,,,,,,,,,,,,,repeat,number,NA,d,0.4476,Lo,,,,,,2,,,,,,,,high,20,0,20,0,1,,,,,,,,,
296848,2022-09-23_16h02.24.712,vts_reward_expectancy,2022.2.4,MacIntel,60.0024001,Chrome,1440,900,,,,,10,1057,,,,,,,,,,,,,,,,,125,Y,triangle,1,1,,,,,,,,,,,,,,,,switch,letter,lettSwt,k,0.4646,Hi,,,,,,2,,,,,,,,high,21,0,21,0,1,,,,,,,,,
296848,2022-09-23_16h02.24.712,vts_reward_expectancy,2022.2.4,MacIntel,60.0024001,Chrome,1440,900,,,,,1,1058,,,,,,,,,,,,,,,,,160,B,triangle,1,0,,,,,,,,,,,,,,,,repeat,letter,lettRpt,j,0.4038,Hi,,,,,,2,,,,,,,,high,22,0,22,0,1,,,,,,,,,
296848,2022-09-23_16h02.24.712,vts_reward_expectancy,2022.2.4,MacIntel,60.0024001,Chrome,1440,900,,,,,1,1059,,,,,,,,,,,,,,,,,139,W,hexagon,1,0,,,,,,,,,,,,,,,,repeat,letter,lettRpt,k,0.449,Lo,,,,,,2,,,,,,,,high,23,0,23,0,1,,,,,,,,,
296848,2022-09-23_16h02.24.712,vts_reward_expectancy,2022.2.4,MacIntel,60.0024001,Chrome,1440,900,,,,,1,1060,,,,,,,,,,,,,,,,,181,F,hexagon,1,0,,,,,,,,,,,,,,,,repeat,letter,lettRpt,j,0.6,Lo,,,,,,2,,,,,,,,high,24,0,24,0,1,,,,,,,,,
296848,2022-09-23_16h02.24.712,vts_reward_expectancy,2022.2.4,MacIntel,60.0024001,Chrome,1440,900,,,,,10,1070,,,,,,,,,,,,,,,,,146,H,triangle,1,0,,,,,,,,,,,,,,,,repeat,letter,lettRpt,j,0.4451,Hi,,,,,,2,,,,,,,,high,25,0,25,0,1,,,,,,,,,
296848,2022-09-23_16h02.24.712,vts_reward_expectancy,2022.2.4,MacIntel,60.0024001,Chrome,1440,900,,,,,1,1071,,,,,,,,,,,,,,,,,139,B,hexagon,1,0,,,,,,,,,,,,,,,,repeat,letter,lettRpt,j,0.4373,Lo,,,,,,2,,,,,,,,high,26,0,26,0,1,,,,,,,,,
296848,2022-09-23_16h02.24.712,vts_reward_expectancy,2022.2.4,MacIntel,60.0024001,Chrome,1440,900,,,,,0,1071,,,,,,,,,,,,,,,,,174,W,triangle,1,0,,,,,,,,,,,,,,,,repeat,letter,lettRpt,k,0.4802,Hi,,,,,,2,,,,,,,,high,27,0,27,0,1,,,,,,,,,
296848,2022-09-23_16h02.24.712,vts_reward_expectancy,2022.2.4,MacIntel,60.0024001,Chrome,1440,900,,,,,1,1072,,,,,,,,,,,,,,,,,132,Y,hexagon,1,0,,,,,,,,,,,,,,,,repeat,letter,lettRpt,k,0.4287,Lo,,,,,,2,,,,,,,,high,28,0,28,0,1,,,,,,,,,
296848,2022-09-23_16h02.24.712,vts_reward_expectancy,2022.2.4,MacIntel,60.0024001,Chrome,1440,900,,,,,10,1082,,,,,,,,,,,,,,,,,167,D,triangle,1,0,,,,,,,,,,,,,,,,switch,number,numSwt,f,0.4977,Hi,,,,,,2,,,,,,,,high,29,0,29,0,1,,,,,,,,,
296848,2022-09-23_16h02.24.712,vts_reward_expectancy,2022.2.4,MacIntel,60.0024001,Chrome,1440,900,,,,,1,1083,,,,,,,,,,,,,,,,,125,U,hexagon,1,0,,,,,,,,,,,,,,,,repeat,number,numRpt,d,0.63,Lo,,,,,,2,,,,,,,,high,30,0,30,0,1,,,,,,,,,
296848,2022-09-23_16h02.24.712,vts_reward_expectancy,2022.2.4,MacIntel,60.0024001,Chrome,1440,900,,,,,10,1093,,,,,,,,,,,,,,,,,160,S,triangle,1,0,,,,,,,,,,,,,,,,repeat,number,numRpt,f,0.5304,Hi,,,,,,2,,,,,,,,high,31,0,31,0,1,,,,,,,,,
296848,2022-09-23_16h02.24.712,vts_reward_expectancy,2022.2.4,MacIntel,60.0024001,Chrome,1440,900,,,,,1,1094,,,,,,,,,,,,,,,,,167,U,star,1,0,,,,,,,,,,,,,,,,repeat,number,numRpt,f,0.6885,Lo,,,,,,3,,,,,,space,0.4576,low,0,0,0,0,1,,,,,,,,,
296848,2022-09-23_16h02.24.712,vts_reward_expectancy,2022.2.4,MacIntel,60.0024001,Chrome,1440,900,,,,,0,1094,,,,,,,,,,,,,,,,,174,B,circle,1,0,,,,,,,,,,,,,,,,repeat,number,numRpt,f,0.5154,Hi,,,,,,3,,,,,,,,low,1,0,1,0,1,,,,,,,,,
296848,2022-09-23_16h02.24.712,vts_reward_expectancy,2022.2.4,MacIntel,60.0024001,Chrome,1440,900,,,,,10,1104,,,,,,,,,,,,,,,,,125,H,star,1,0,,,,,,,,,,,,,,,,repeat,number,numRpt,d,0.4478,Lo,,,,,,3,,,,,,,,low,2,0,2,0,1,,,,,,,,,
296848,2022-09-23_16h02.24.712,vts_reward_expectancy,2022.2.4,MacIntel,60.0024001,Chrome,1440,900,,,,,1,1105,,,,,,,,,,,,,,,,,139,Y,circle,1,0,,,,,,,,,,,,,,,,repeat,number,numRpt,d,0.4473,Hi,,,,,,3,,,,,,,,low,3,0,3,0,1,,,,,,,,,
296848,2022-09-23_16h02.24.712,vts_reward_expectancy,2022.2.4,MacIntel,60.0024001,Chrome,1440,900,,,,,0,1105,,,,,,,,,,,,,,,,,181,F,circle,1,0,,,,,,,,,,,,,,,,repeat,number,numRpt,f,0.4846,Hi,,,,,,3,,,,,,,,low,4,0,4,0,1,,,,,,,,,
296848,2022-09-23_16h02.24.712,vts_reward_expectancy,2022.2.4,MacIntel,60.0024001,Chrome,1440,900,,,,,1,1106,,,,,,,,,,,,,,,,,146,S,star,1,0,,,,,,,,,,,,,,,,switch,letter,lettSwt,k,0.5835,Lo,,,,,,3,,,,,,,,low,5,0,5,0,1,,,,,,,,,
296848,2022-09-23_16h02.24.712,vts_reward_expectancy,2022.2.4,MacIntel,60.0024001,Chrome,1440,900,,,,,1,1107,,,,,,,,,,,,,,,,,132,W,star,1,0,,,,,,,,,,,,,,,,repeat,letter,lettRpt,k,0.581,Lo,,,,,,3,,,,,,,,low,6,0,6,0,1,,,,,,,,,
296848,2022-09-23_16h02.24.712,vts_reward_expectancy,2022.2.4,MacIntel,60.0024001,Chrome,1440,900,,,,,1,1108,,,,,,,,,,,,,,,,,160,D,circle,1,0,,,,,,,,,,,,,,,,switch,number,numSwt,f,0.4802,Hi,,,,,,3,,,,,,,,low,7,0,7,0,1,,,,,,,,,
296848,2022-09-23_16h02.24.712,vts_reward_expectancy,2022.2.4,MacIntel,60.0024001,Chrome,1440,900,,,,,1,1109,,,,,,,,,,,,,,,,,167,U,circle,1,0,,,,,,,,,,,,,,,,repeat,number,numRpt,f,0.4309,Hi,,,,,,3,,,,,,,,low,8,0,8,0,1,,,,,,,,,
296848,2022-09-23_16h02.24.712,vts_reward_expectancy,2022.2.4,MacIntel,60.0024001,Chrome,1440,900,,,,,10,1119,,,,,,,,,,,,,,,,,174,B,star,1,0,,,,,,,,,,,,,,,,repeat,number,numRpt,f,0.5097,Lo,,,,,,3,,,,,,,,low,9,0,9,0,1,,,,,,,,,
296848,2022-09-23_16h02.24.712,vts_reward_expectancy,2022.2.4,MacIntel,60.0024001,Chrome,1440,900,,,,,0,1119,,,,,,,,,,,,,,,,,125,H,circle,1,0,,,,,,,,,,,,,,,,repeat,number,numRpt,d,0.4975,Hi,,,,,,3,,,,,,,,low,10,0,10,0,1,,,,,,,,,
296848,2022-09-23_16h02.24.712,vts_reward_expectancy,2022.2.4,MacIntel,60.0024001,Chrome,1440,900,,,,,0,1119,,,,,,,,,,,,,,,,,139,Y,star,0,0,,,,,,,,,,,,,,,,repeat,number,NA,f,0.6307,Hi,,,,,,3,,,,,,,,low,11,0,11,0,1,,,,,,,,,
296848,2022-09-23_16h02.24.712,vts_reward_expectancy,2022.2.4,MacIntel,60.0024001,Chrome,1440,900,,,,,0,1119,,,,,,,,,,,,,,,,,181,F,circle,1,1,,,,,,,,,,,,,,,,switch,letter,lettSwt,j,0.5308,Hi,,,,,,3,,,,,,,,low,12,0,12,0,1,,,,,,,,,
296848,2022-09-23_16h02.24.712,vts_reward_expectancy,2022.2.4,MacIntel,60.0024001,Chrome,1440,900,,,,,1,1120,,,,,,,,,,,,,,,,,146,S,star,1,0,,,,,,,,,,,,,,,,switch,number,numSwt,d,0.7309,Lo,,,,,,3,,,,,,,,low,13,0,13,0,1,,,,,,,,,
296848,2022-09-23_16h02.24.712,vts_reward_expectancy,2022.2.4,MacIntel,60.0024001,Chrome,1440,900,,,,,1,1121,,,,,,,,,,,,,,,,,132,W,star,1,0,,,,,,,,,,,,,,,,repeat,number,numRpt,d,0.5117,Lo,,,,,,3,,,,,,,,low,14,0,14,0,1,,,,,,,,,
296848,2022-09-23_16h02.24.712,vts_reward_expectancy,2022.2.4,MacIntel,60.0024001,Chrome,1440,900,,,,,0,1121,,,,,,,,,,,,,,,,,160,D,circle,1,0,,,,,,,,,,,,,,,,repeat,number,numRpt,f,0.7133,Hi,,,,,,3,,,,,,,,low,15,0,15,0,1,,,,,,,,,
296848,2022-09-23_16h02.24.712,vts_reward_expectancy,2022.2.4,MacIntel,60.0024001,Chrome,1440,900,,,,,10,1131,,,,,,,,,,,,,,,,,132,W,star,1,0,,,,,,,,,,,,,,,,repeat,number,numRpt,d,0.4649,Lo,,,,,,3,,,,,,,,low,16,0,16,0,1,,,,,,,,,
296848,2022-09-23_16h02.24.712,vts_reward_expectancy,2022.2.4,MacIntel,60.0024001,Chrome,1440,900,,,,,0,1131,,,,,,,,,,,,,,,,,167,S,circle,1,0,,,,,,,,,,,,,,,,repeat,number,numRpt,f,0.4627,Hi,,,,,,3,,,,,,,,low,17,0,17,0,1,,,,,,,,,
296848,2022-09-23_16h02.24.712,vts_reward_expectancy,2022.2.4,MacIntel,60.0024001,Chrome,1440,900,,,,,1,1132,,,,,,,,,,,,,,,,,181,F,star,1,0,,,,,,,,,,,,,,,,repeat,number,numRpt,f,0.5486,Lo,,,,,,3,,,,,,,,low,18,0,18,0,1,,,,,,,,,
296848,2022-09-23_16h02.24.712,vts_reward_expectancy,2022.2.4,MacIntel,60.0024001,Chrome,1440,900,,,,,0,1132,,,,,,,,,,,,,,,,,146,D,circle,1,0,,,,,,,,,,,,,,,,repeat,number,numRpt,d,0.6686,Hi,,,,,,3,,,,,,,,low,19,0,19,0,1,,,,,,,,,
296848,2022-09-23_16h02.24.712,vts_reward_expectancy,2022.2.4,MacIntel,60.0024001,Chrome,1440,900,,,,,0,1132,,,,,,,,,,,,,,,,,139,Y,circle,1,0,,,,,,,,,,,,,,,,repeat,number,numRpt,d,0.5141,Hi,,,,,,3,,,,,,,,low,20,0,20,0,1,,,,,,,,,
296848,2022-09-23_16h02.24.712,vts_reward_expectancy,2022.2.4,MacIntel,60.0024001,Chrome,1440,900,,,,,10,1142,,,,,,,,,,,,,,,,,160,B,star,1,0,,,,,,,,,,,,,,,,repeat,number,numRpt,f,0.4353,Lo,,,,,,3,,,,,,,,low,21,0,21,0,1,,,,,,,,,
296848,2022-09-23_16h02.24.712,vts_reward_expectancy,2022.2.4,MacIntel,60.0024001,Chrome,1440,900,,,,,0,1142,,,,,,,,,,,,,,,,,125,H,circle,1,0,,,,,,,,,,,,,,,,repeat,number,numRpt,d,0.4638,Hi,,,,,,3,,,,,,,,low,22,0,22,0,1,,,,,,,,,
296848,2022-09-23_16h02.24.712,vts_reward_expectancy,2022.2.4,MacIntel,60.0024001,Chrome,1440,900,,,,,10,1152,,,,,,,,,,,,,,,,,174,U,star,1,0,,,,,,,,,,,,,,,,repeat,number,numRpt,f,0.5959,Lo,,,,,,3,,,,,,,,low,23,0,23,0,1,,,,,,,,,
296848,2022-09-23_16h02.24.712,vts_reward_expectancy,2022.2.4,MacIntel,60.0024001,Chrome,1440,900,,,,,10,1162,,,,,,,,,,,,,,,,,125,D,star,1,0,,,,,,,,,,,,,,,,repeat,number,numRpt,d,0.5014,Lo,,,,,,3,,,,,,,,low,24,0,24,0,1,,,,,,,,,
296848,2022-09-23_16h02.24.712,vts_reward_expectancy,2022.2.4,MacIntel,60.0024001,Chrome,1440,900,,,,,0,1162,,,,,,,,,,,,,,,,,167,H,circle,1,0,,,,,,,,,,,,,,,,repeat,number,numRpt,f,0.4972,Hi,,,,,,3,,,,,,,,low,25,0,25,0,1,,,,,,,,,
296848,2022-09-23_16h02.24.712,vts_reward_expectancy,2022.2.4,MacIntel,60.0024001,Chrome,1440,900,,,,,10,1172,,,,,,,,,,,,,,,,,181,U,star,1,0,,,,,,,,,,,,,,,,repeat,number,numRpt,f,0.4804,Lo,,,,,,3,,,,,,,,low,26,0,26,0,1,,,,,,,,,
296848,2022-09-23_16h02.24.712,vts_reward_expectancy,2022.2.4,MacIntel,60.0024001,Chrome,1440,900,,,,,1,1173,,,,,,,,,,,,,,,,,132,W,circle,1,0,,,,,,,,,,,,,,,,switch,letter,lettSwt,k,0.3959,Hi,,,,,,3,,,,,,,,low,27,0,27,0,1,,,,,,,,,
296848,2022-09-23_16h02.24.712,vts_reward_expectancy,2022.2.4,MacIntel,60.0024001,Chrome,1440,900,,,,,10,1183,,,,,,,,,,,,,,,,,139,B,star,1,0,,,,,,,,,,,,,,,,repeat,letter,lettRpt,j,0.3313,Lo,,,,,,3,,,,,,,,low,28,0,28,0,1,,,,,,,,,
296848,2022-09-23_16h02.24.712,vts_reward_expectancy,2022.2.4,MacIntel,60.0024001,Chrome,1440,900,,,,,0,1183,,,,,,,,,,,,,,,,,160,S,circle,1,0,,,,,,,,,,,,,,,,repeat,letter,lettRpt,k,0.4491,Hi,,,,,,3,,,,,,,,low,29,0,29,0,1,,,,,,,,,
296848,2022-09-23_16h02.24.712,vts_reward_expectancy,2022.2.4,MacIntel,60.0024001,Chrome,1440,900,,,,,0,1183,,,,,,,,,,,,,,,,,146,Y,circle,1,0,,,,,,,,,,,,,,,,repeat,letter,lettRpt,k,0.4829,Hi,,,,,,3,,,,,,,,low,30,0,30,0,1,,,,,,,,,
296848,2022-09-23_16h02.24.712,vts_reward_expectancy,2022.2.4,MacIntel,60.0024001,Chrome,1440,900,,,,,10,1193,,,,,,,,,,,,,,,,,174,F,star,1,0,,,,,,,,,,,,,,,,repeat,letter,lettRpt,j,0.5377,Lo,,,,,,3,,,,,,,,low,31,0,31,0,1,,,,,,,,,
296848,2022-09-23_16h02.24.712,vts_reward_expectancy,2022.2.4,MacIntel,60.0024001,Chrome,1440,900,,,,,1,1194,,,,,,,,,,,,,,,,,167,Y,hexagon,1,0,,,,,,,,,,,,,,,,switch,number,numSwt,f,0.4322,Lo,,,,,,4,,,,,,space,1.4026,high,0,0,0,0,1,,,,,,,,,
296848,2022-09-23_16h02.24.712,vts_reward_expectancy,2022.2.4,MacIntel,60.0024001,Chrome,1440,900,,,,,10,1204,,,,,,,,,,,,,,,,,181,H,triangle,1,0,,,,,,,,,,,,,,,,repeat,number,numRpt,f,0.4641,Hi,,,,,,4,,,,,,,,high,1,0,1,0,1,,,,,,,,,
296848,2022-09-23_16h02.24.712,vts_reward_expectancy,2022.2.4,MacIntel,60.0024001,Chrome,1440,900,,,,,10,1214,,,,,,,,,,,,,,,,,146,W,hexagon,1,0,,,,,,,,,,,,,,,,repeat,number,numRpt,d,0.5193,Lo,,,,,,4,,,,,,,,high,2,0,2,0,1,,,,,,,,,
296848,2022-09-23_16h02.24.712,vts_reward_expectancy,2022.2.4,MacIntel,60.0024001,Chrome,1440,900,,,,,0,1214,,,,,,,,,,,,,,,,,132,B,triangle,1,0,,,,,,,,,,,,,,,,repeat,number,numRpt,d,0.4984,Hi,,,,,,4,,,,,,,,high,3,0,3,0,1,,,,,,,,,
296848,2022-09-23_16h02.24.712,vts_reward_expectancy,2022.2.4,MacIntel,60.0024001,Chrome,1440,900,,,,,10,1224,,,,,,,,,,,,,,,,,174,F,hexagon,1,0,,,,,,,,,,,,,,,,repeat,number,numRpt,f,0.4486,Lo,,,,,,4,,,,,,,,high,4,0,4,0,1,,,,,,,,,
296848,2022-09-23_16h02.24.712,vts_reward_expectancy,2022.2.4,MacIntel,60.0024001,Chrome,1440,900,,,,,10,1234,,,,,,,,,,,,,,,,,125,U,triangle,1,0,,,,,,,,,,,,,,,,repeat,number,numRpt,d,0.3809,Hi,,,,,,4,,,,,,,,high,5,0,5,0,1,,,,,,,,,
296848,2022-09-23_16h02.24.712,vts_reward_expectancy,2022.2.4,MacIntel,60.0024001,Chrome,1440,900,,,,,0,1234,,,,,,,,,,,,,,,,,160,S,triangle,1,0,,,,,,,,,,,,,,,,repeat,number,numRpt,f,0.5023,Hi,,,,,,4,,,,,,,,high,6,0,6,0,1,,,,,,,,,
296848,2022-09-23_16h02.24.712,vts_reward_expectancy,2022.2.4,MacIntel,60.0024001,Chrome,1440,900,,,,,1,1235,,,,,,,,,,,,,,,,,139,D,hexagon,1,0,,,,,,,,,,,,,,,,repeat,number,numRpt,d,0.531,Lo,,,,,,4,,,,,,,,high,7,0,7,0,1,,,,,,,,,
296848,2022-09-23_16h02.24.712,vts_reward_expectancy,2022.2.4,MacIntel,60.0024001,Chrome,1440,900,,,,,0,1235,,,,,,,,,,,,,,,,,167,Y,triangle,1,0,,,,,,,,,,,,,,,,repeat,number,numRpt,f,0.4979,Hi,,,,,,4,,,,,,,,high,8,0,8,0,1,,,,,,,,,
296848,2022-09-23_16h02.24.712,vts_reward_expectancy,2022.2.4,MacIntel,60.0024001,Chrome,1440,900,,,,,1,1236,,,,,,,,,,,,,,,,,181,H,hexagon,1,0,,,,,,,,,,,,,,,,repeat,number,numRpt,f,0.5492,Lo,,,,,,4,,,,,,,,high,9,0,9,0,1,,,,,,,,,
296848,2022-09-23_16h02.24.712,vts_reward_expectancy,2022.2.4,MacIntel,60.0024001,Chrome,1440,900,,,,,0,1236,,,,,,,,,,,,,,,,,146,W,triangle,1,0,,,,,,,,,,,,,,,,repeat,number,numRpt,d,0.5805,Hi,,,,,,4,,,,,,,,high,10,0,10,0,1,,,,,,,,,
296848,2022-09-23_16h02.24.712,vts_reward_expectancy,2022.2.4,MacIntel,60.0024001,Chrome,1440,900,,,,,1,1237,,,,,,,,,,,,,,,,,132,B,hexagon,1,0,,,,,,,,,,,,,,,,repeat,number,numRpt,d,0.532,Lo,,,,,,4,,,,,,,,high,11,0,11,0,1,,,,,,,,,
296848,2022-09-23_16h02.24.712,vts_reward_expectancy,2022.2.4,MacIntel,60.0024001,Chrome,1440,900,,,,,10,1247,,,,,,,,,,,,,,,,,174,F,triangle,1,0,,,,,,,,,,,,,,,,repeat,number,numRpt,f,0.4317,Hi,,,,,,4,,,,,,,,high,12,0,12,0,1,,,,,,,,,
296848,2022-09-23_16h02.24.712,vts_reward_expectancy,2022.2.4,MacIntel,60.0024001,Chrome,1440,900,,,,,1,1248,,,,,,,,,,,,,,,,,125,U,hexagon,1,0,,,,,,,,,,,,,,,,repeat,number,numRpt,d,0.481,Lo,,,,,,4,,,,,,,,high,13,0,13,0,1,,,,,,,,,
296848,2022-09-23_16h02.24.712,vts_reward_expectancy,2022.2.4,MacIntel,60.0024001,Chrome,1440,900,,,,,1,1249,,,,,,,,,,,,,,,,,160,S,hexagon,1,0,,,,,,,,,,,,,,,,repeat,number,numRpt,f,0.4504,Lo,,,,,,4,,,,,,,,high,14,0,14,0,1,,,,,,,,,
296848,2022-09-23_16h02.24.712,vts_reward_expectancy,2022.2.4,MacIntel,60.0024001,Chrome,1440,900,,,,,0,1249,,,,,,,,,,,,,,,,,139,D,triangle,1,0,,,,,,,,,,,,,,,,repeat,number,numRpt,d,0.5807,Hi,,,,,,4,,,,,,,,high,15,0,15,0,1,,,,,,,,,
296848,2022-09-23_16h02.24.712,vts_reward_expectancy,2022.2.4,MacIntel,60.0024001,Chrome,1440,900,,,,,1,1250,,,,,,,,,,,,,,,,,125,F,hexagon,1,0,,,,,,,,,,,,,,,,switch,letter,lettSwt,j,0.6053,Lo,,,,,,4,,,,,,,,high,16,0,16,0,1,,,,,,,,,
296848,2022-09-23_16h02.24.712,vts_reward_expectancy,2022.2.4,MacIntel,60.0024001,Chrome,1440,900,,,,,10,1260,,,,,,,,,,,,,,,,,181,S,triangle,1,0,,,,,,,,,,,,,,,,repeat,letter,lettRpt,k,0.4483,Hi,,,,,,4,,,,,,,,high,17,0,17,0,1,,,,,,,,,
296848,2022-09-23_16h02.24.712,vts_reward_expectancy,2022.2.4,MacIntel,60.0024001,Chrome,1440,900,,,,,0,1260,,,,,,,,,,,,,,,,,139,U,triangle,1,0,,,,,,,,,,,,,,,,repeat,letter,lettRpt,k,1.0474,Hi,,,,,,4,,,,,,,,high,18,0,18,0,1,,,,,,,,,
296848,2022-09-23_16h02.24.712,vts_reward_expectancy,2022.2.4,MacIntel,60.0024001,Chrome,1440,900,,,,,1,1261,,,,,,,,,,,,,,,,,146,H,hexagon,1,0,,,,,,,,,,,,,,,,repeat,letter,lettRpt,j,0.5318,Lo,,,,,,4,,,,,,,,high,19,0,19,0,1,,,,,,,,,
296848,2022-09-23_16h02.24.712,vts_reward_expectancy,2022.2.4,MacIntel,60.0024001,Chrome,1440,900,,,,,10,1271,,,,,,,,,,,,,,,,,167,D,triangle,1,0,,,,,,,,,,,,,,,,repeat,letter,lettRpt,j,0.4541,Hi,,,,,,4,,,,,,,,high,20,0,20,0,1,,,,,,,,,
296848,2022-09-23_16h02.24.712,vts_reward_expectancy,2022.2.4,MacIntel,60.0024001,Chrome,1440,900,,,,,10,1281,,,,,,,,,,,,,,,,,160,B,hexagon,1,0,,,,,,,,,,,,,,,,repeat,letter,lettRpt,j,0.3807,Lo,,,,,,4,,,,,,,,high,21,0,21,0,1,,,,,,,,,
296848,2022-09-23_16h02.24.712,vts_reward_expectancy,2022.2.4,MacIntel,60.0024001,Chrome,1440,900,,,,,1,1282,,,,,,,,,,,,,,,,,132,W,triangle,1,0,,,,,,,,,,,,,,,,repeat,letter,lettRpt,k,0.4466,Hi,,,,,,4,,,,,,,,high,22,0,22,0,1,,,,,,,,,
296848,2022-09-23_16h02.24.712,vts_reward_expectancy,2022.2.4,MacIntel,60.0024001,Chrome,1440,900,,,,,10,1292,,,,,,,,,,,,,,,,,174,Y,hexagon,1,0,,,,,,,,,,,,,,,,repeat,letter,lettRpt,k,0.4512,Lo,,,,,,4,,,,,,,,high,23,0,23,0,1,,,,,,,,,
296848,2022-09-23_16h02.24.712,vts_reward_expectancy,2022.2.4,MacIntel,60.0024001,Chrome,1440,900,,,,,1,1293,,,,,,,,,,,,,,,,,167,Y,hexagon,1,0,,,,,,,,,,,,,,,,repeat,letter,lettRpt,k,0.5988,Lo,,,,,,4,,,,,,,,high,24,0,24,0,1,,,,,,,,,
296848,2022-09-23_16h02.24.712,vts_reward_expectancy,2022.2.4,MacIntel,60.0024001,Chrome,1440,900,,,,,0,1293,,,,,,,,,,,,,,,,,132,H,triangle,0,0,,,,,,,,,,,,,,,,repeat,letter,NA,k,0.4475,Lo,,,,,,4,,,,,,,,high,25,0,25,0,1,,,,,,,,,
296848,2022-09-23_16h02.24.712,vts_reward_expectancy,2022.2.4,MacIntel,60.0024001,Chrome,1440,900,,,,,10,1303,,,,,,,,,,,,,,,,,174,F,hexagon,1,1,,,,,,,,,,,,,,,,switch,number,numSwt,f,0.5864,Lo,,,,,,4,,,,,,,,high,26,0,26,0,1,,,,,,,,,
296848,2022-09-23_16h02.24.712,vts_reward_expectancy,2022.2.4,MacIntel,60.0024001,Chrome,1440,900,,,,,0,1303,,,,,,,,,,,,,,,,,181,B,triangle,1,0,,,,,,,,,,,,,,,,repeat,number,numRpt,f,0.5469,Hi,,,,,,4,,,,,,,,high,27,0,27,0,1,,,,,,,,,
296848,2022-09-23_16h02.24.712,vts_reward_expectancy,2022.2.4,MacIntel,60.0024001,Chrome,1440,900,,,,,0,1303,,,,,,,,,,,,,,,,,146,W,triangle,1,0,,,,,,,,,,,,,,,,repeat,number,numRpt,d,0.4969,Hi,,,,,,4,,,,,,,,high,28,0,28,0,1,,,,,,,,,
296848,2022-09-23_16h02.24.712,vts_reward_expectancy,2022.2.4,MacIntel,60.0024001,Chrome,1440,900,,,,,10,1313,,,,,,,,,,,,,,,,,160,D,hexagon,1,0,,,,,,,,,,,,,,,,repeat,number,numRpt,f,0.5804,Lo,,,,,,4,,,,,,,,high,29,0,29,0,1,,,,,,,,,
296848,2022-09-23_16h02.24.712,vts_reward_expectancy,2022.2.4,MacIntel,60.0024001,Chrome,1440,900,,,,,0,1313,,,,,,,,,,,,,,,,,139,U,triangle,1,0,,,,,,,,,,,,,,,,repeat,number,numRpt,d,0.4969,Hi,,,,,,4,,,,,,,,high,30,0,30,0,1,,,,,,,,,
296848,2022-09-23_16h02.24.712,vts_reward_expectancy,2022.2.4,MacIntel,60.0024001,Chrome,1440,900,,,,,1,1314,,,,,,,,,,,,,,,,,125,S,hexagon,1,0,,,,,,,,,,,,,,,,repeat,number,numRpt,d,0.4672,Lo,,,,,,4,,,,,,,,high,31,0,31,0,1,,,,,,,,,
296848,2022-09-23_16h02.24.712,vts_reward_expectancy,2022.2.4,MacIntel,60.0024001,Chrome,1440,900,,,,,0,1314,,,,,,,,,,,,,,,,,146,B,circle,0,0,,,,,,,,,,,,,,,,repeat,number,NA,f,0.6476,Lo,,,,,,5,,,,,,space,0.5916,low,0,0,0,0,1,,,,,,,,,
296848,2022-09-23_16h02.24.712,vts_reward_expectancy,2022.2.4,MacIntel,60.0024001,Chrome,1440,900,,,,,1,1315,,,,,,,,,,,,,,,,,174,S,star,1,1,,,,,,,,,,,,,,,,repeat,number,numRpt,f,0.8004,Lo,,,,,,5,,,,,,,,low,1,0,1,0,1,,,,,,,,,
296848,2022-09-23_16h02.24.712,vts_reward_expectancy,2022.2.4,MacIntel,60.0024001,Chrome,1440,900,,,,,10,1325,,,,,,,,,,,,,,,,,181,D,circle,1,0,,,,,,,,,,,,,,,,repeat,number,numRpt,f,0.4474,Hi,,,,,,5,,,,,,,,low,2,0,2,0,1,,,,,,,,,
296848,2022-09-23_16h02.24.712,vts_reward_expectancy,2022.2.4,MacIntel,60.0024001,Chrome,1440,900,,,,,1,1326,,,,,,,,,,,,,,,,,125,F,star,1,0,,,,,,,,,,,,,,,,repeat,number,numRpt,d,0.4829,Lo,,,,,,5,,,,,,,,low,3,0,3,0,1,,,,,,,,,
296848,2022-09-23_16h02.24.712,vts_reward_expectancy,2022.2.4,MacIntel,60.0024001,Chrome,1440,900,,,,,10,1336,,,,,,,,,,,,,,,,,132,H,star,1,0,,,,,,,,,,,,,,,,repeat,number,numRpt,d,0.5686,Lo,,,,,,5,,,,,,,,low,4,0,4,0,1,,,,,,,,,
296848,2022-09-23_16h02.24.712,vts_reward_expectancy,2022.2.4,MacIntel,60.0024001,Chrome,1440,900,,,,,1,1337,,,,,,,,,,,,,,,,,167,Y,circle,1,0,,,,,,,,,,,,,,,,repeat,number,numRpt,f,0.4129,Hi,,,,,,5,,,,,,,,low,5,0,5,0,1,,,,,,,,,
296848,2022-09-23_16h02.24.712,vts_reward_expectancy,2022.2.4,MacIntel,60.0024001,Chrome,1440,900,,,,,1,1338,,,,,,,,,,,,,,,,,139,U,star,1,0,,,,,,,,,,,,,,,,repeat,number,numRpt,d,0.5228,Lo,,,,,,5,,,,,,,,low,6,0,6,0,1,,,,,,,,,
296848,2022-09-23_16h02.24.712,vts_reward_expectancy,2022.2.4,MacIntel,60.0024001,Chrome,1440,900,,,,,10,1348,,,,,,,,,,,,,,,,,160,W,circle,1,0,,,,,,,,,,,,,,,,repeat,number,numRpt,f,0.4644,Hi,,,,,,5,,,,,,,,low,7,0,7,0,1,,,,,,,,,
296848,2022-09-23_16h02.24.712,vts_reward_expectancy,2022.2.4,MacIntel,60.0024001,Chrome,1440,900,,,,,0,1348,,,,,,,,,,,,,,,,,146,B,circle,1,0,,,,,,,,,,,,,,,,repeat,number,numRpt,d,0.5053,Hi,,,,,,5,,,,,,,,low,8,0,8,0,1,,,,,,,,,
296848,2022-09-23_16h02.24.712,vts_reward_expectancy,2022.2.4,MacIntel,60.0024001,Chrome,1440,900,,,,,10,1358,,,,,,,,,,,,,,,,,174,S,star,1,0,,,,,,,,,,,,,,,,repeat,number,numRpt,f,0.5479,Lo,,,,,,5,,,,,,,,low,9,0,9,0,1,,,,,,,,,
296848,2022-09-23_16h02.24.712,vts_reward_expectancy,2022.2.4,MacIntel,60.0024001,Chrome,1440,900,,,,,1,1359,,,,,,,,,,,,,,,,,181,D,star,1,0,,,,,,,,,,,,,,,,repeat,number,numRpt,f,0.48,Lo,,,,,,5,,,,,,,,low,10,0,10,0,1,,,,,,,,,
296848,2022-09-23_16h02.24.712,vts_reward_expectancy,2022.2.4,MacIntel,60.0024001,Chrome,1440,900,,,,,0,1359,,,,,,,,,,,,,,,,,125,F,circle,1,0,,,,,,,,,,,,,,,,repeat,number,numRpt,d,0.5494,Hi,,,,,,5,,,,,,,,low,11,0,11,0,1,,,,,,,,,
296848,2022-09-23_16h02.24.712,vts_reward_expectancy,2022.2.4,MacIntel,60.0024001,Chrome,1440,900,,,,,10,1369,,,,,,,,,,,,,,,,,132,H,star,1,0,,,,,,,,,,,,,,,,repeat,number,numRpt,d,0.4801,Lo,,,,,,5,,,,,,,,low,12,0,12,0,1,,,,,,,,,
296848,2022-09-23_16h02.24.712,vts_reward_expectancy,2022.2.4,MacIntel,60.0024001,Chrome,1440,900,,,,,10,1379,,,,,,,,,,,,,,,,,167,Y,circle,1,0,,,,,,,,,,,,,,,,repeat,number,numRpt,f,0.4644,Hi,,,,,,5,,,,,,,,low,13,0,13,0,1,,,,,,,,,
296848,2022-09-23_16h02.24.712,vts_reward_expectancy,2022.2.4,MacIntel,60.0024001,Chrome,1440,900,,,,,1,1380,,,,,,,,,,,,,,,,,139,U,star,1,0,,,,,,,,,,,,,,,,repeat,number,numRpt,d,0.8633,Lo,,,,,,5,,,,,,,,low,14,0,14,0,1,,,,,,,,,
296848,2022-09-23_16h02.24.712,vts_reward_expectancy,2022.2.4,MacIntel,60.0024001,Chrome,1440,900,,,,,0,1380,,,,,,,,,,,,,,,,,160,W,circle,1,0,,,,,,,,,,,,,,,,repeat,number,numRpt,f,0.5475,Hi,,,,,,5,,,,,,,,low,15,0,15,0,1,,,,,,,,,
296848,2022-09-23_16h02.24.712,vts_reward_expectancy,2022.2.4,MacIntel,60.0024001,Chrome,1440,900,,,,,0,1380,,,,,,,,,,,,,,,,,174,S,circle,1,0,,,,,,,,,,,,,,,,repeat,number,numRpt,f,0.5217,Hi,,,,,,5,,,,,,,,low,16,0,16,0,1,,,,,,,,,
296848,2022-09-23_16h02.24.712,vts_reward_expectancy,2022.2.4,MacIntel,60.0024001,Chrome,1440,900,,,,,10,1390,,,,,,,,,,,,,,,,,167,U,star,1,0,,,,,,,,,,,,,,,,repeat,number,numRpt,f,0.5159,Lo,,,,,,5,,,,,,,,low,17,0,17,0,1,,,,,,,,,
296848,2022-09-23_16h02.24.712,vts_reward_expectancy,2022.2.4,MacIntel,60.0024001,Chrome,1440,900,,,,,0,1390,,,,,,,,,,,,,,,,,181,D,circle,1,0,,,,,,,,,,,,,,,,repeat,number,numRpt,f,0.4981,Hi,,,,,,5,,,,,,,,low,18,0,18,0,1,,,,,,,,,
296848,2022-09-23_16h02.24.712,vts_reward_expectancy,2022.2.4,MacIntel,60.0024001,Chrome,1440,900,,,,,10,1400,,,,,,,,,,,,,,,,,132,Y,star,1,0,,,,,,,,,,,,,,,,switch,letter,lettSwt,k,0.5484,Lo,,,,,,5,,,,,,,,low,19,0,19,0,1,,,,,,,,,
296848,2022-09-23_16h02.24.712,vts_reward_expectancy,2022.2.4,MacIntel,60.0024001,Chrome,1440,900,,,,,1,1401,,,,,,,,,,,,,,,,,139,H,circle,1,0,,,,,,,,,,,,,,,,repeat,letter,lettRpt,j,0.3978,Hi,,,,,,5,,,,,,,,low,20,0,20,0,1,,,,,,,,,
296848,2022-09-23_16h02.24.712,vts_reward_expectancy,2022.2.4,MacIntel,60.0024001,Chrome,1440,900,,,,,10,1411,,,,,,,,,,,,,,,,,160,F,star,1,0,,,,,,,,,,,,,,,,repeat,letter,lettRpt,j,0.4644,Lo,,,,,,5,,,,,,,,low,21,0,21,0,1,,,,,,,,,
296848,2022-09-23_16h02.24.712,vts_reward_expectancy,2022.2.4,MacIntel,60.0024001,Chrome,1440,900,,,,,10,1421,,,,,,,,,,,,,,,,,146,B,circle,1,0,,,,,,,,,,,,,,,,repeat,letter,lettRpt,j,0.3801,Hi,,,,,,5,,,,,,,,low,22,0,22,0,1,,,,,,,,,
296848,2022-09-23_16h02.24.712,vts_reward_expectancy,2022.2.4,MacIntel,60.0024001,Chrome,1440,900,,,,,1,1422,,,,,,,,,,,,,,,,,125,W,star,1,0,,,,,,,,,,,,,,,,repeat,letter,lettRpt,k,0.5127,Lo,,,,,,5,,,,,,,,low,23,0,23,0,1,,,,,,,,,
296848,2022-09-23_16h02.24.712,vts_reward_expectancy,2022.2.4,MacIntel,60.0024001,Chrome,1440,900,,,,,10,1432,,,,,,,,,,,,,,,,,139,B,star,1,0,,,,,,,,,,,,,,,,repeat,letter,lettRpt,j,0.4817,Lo,,,,,,5,,,,,,,,low,24,0,24,0,1,,,,,,,,,
296848,2022-09-23_16h02.24.712,vts_reward_expectancy,2022.2.4,MacIntel,60.0024001,Chrome,1440,900,,,,,0,1432,,,,,,,,,,,,,,,,,160,F,circle,1,0,,,,,,,,,,,,,,,,repeat,letter,lettRpt,j,0.464,Hi,,,,,,5,,,,,,,,low,25,0,25,0,1,,,,,,,,,
296848,2022-09-23_16h02.24.712,vts_reward_expectancy,2022.2.4,MacIntel,60.0024001,Chrome,1440,900,,,,,1,1433,,,,,,,,,,,,,,,,,167,Y,star,1,0,,,,,,,,,,,,,,,,repeat,letter,lettRpt,k,0.6479,Lo,,,,,,5,,,,,,,,low,26,0,26,0,1,,,,,,,,,
296848,2022-09-23_16h02.24.712,vts_reward_expectancy,2022.2.4,MacIntel,60.0024001,Chrome,1440,900,,,,,1,1434,,,,,,,,,,,,,,,,,174,D,circle,1,0,,,,,,,,,,,,,,,,repeat,letter,lettRpt,j,0.3652,Hi,,,,,,5,,,,,,,,low,27,0,27,0,1,,,,,,,,,
296848,2022-09-23_16h02.24.712,vts_reward_expectancy,2022.2.4,MacIntel,60.0024001,Chrome,1440,900,,,,,0,1434,,,,,,,,,,,,,,,,,125,S,circle,1,0,,,,,,,,,,,,,,,,switch,number,numSwt,d,0.5152,Hi,,,,,,5,,,,,,,,low,28,0,28,0,1,,,,,,,,,
296848,2022-09-23_16h02.24.712,vts_reward_expectancy,2022.2.4,MacIntel,60.0024001,Chrome,1440,900,,,,,10,1444,,,,,,,,,,,,,,,,,146,H,star,1,0,,,,,,,,,,,,,,,,repeat,number,numRpt,d,0.5133,Lo,,,,,,5,,,,,,,,low,29,0,29,0,1,,,,,,,,,
296848,2022-09-23_16h02.24.712,vts_reward_expectancy,2022.2.4,MacIntel,60.0024001,Chrome,1440,900,,,,,10,1454,,,,,,,,,,,,,,,,,181,U,circle,1,0,,,,,,,,,,,,,,,,repeat,number,numRpt,f,0.4761,Hi,,,,,,5,,,,,,,,low,30,0,30,0,1,,,,,,,,,
296848,2022-09-23_16h02.24.712,vts_reward_expectancy,2022.2.4,MacIntel,60.0024001,Chrome,1440,900,,,,,1,1455,,,,,,,,,,,,,,,,,132,W,star,1,0,,,,,,,,,,,,,,,,repeat,number,numRpt,d,0.4635,Lo,,,,,,5,,,,,,,,low,31,0,31,0,1,,,,,,,,,
296848,2022-09-23_16h02.24.712,vts_reward_expectancy,2022.2.4,MacIntel,60.0024001,Chrome,1440,900,,,,,,,,,,,,,,,,,,,,,,,,,,,,,,,,,,,,,,,,,,,,,,,,,,,,,,6,,,,,,,,,,,,,,I was asked to determine the reward value of different shapes. I was then asked to practice task switching by choosing between number values and letters. ,1,,3,2,,2,1440,900
