participant,date,expName,psychopyVersion,OS,frameRate,browser,xResolution,yResolution,key_resp.keys,key_resp.rt,training_resp.keys,training_resp.rt,points_trial,points_cumul,trainBlock,training.thisRepN,training.thisTrialN,training.thisN,training.thisIndex,training.ran,LTriangleOpac,LCircleOpac,LHexagonOpac,LStarOpac,RTriangleOpac,RCircleOpac,RHexagonOpac,RStarOpac,LShape_ID,RShape_ID,curr_topStim,curr_bottStim,curr_shape,acc,E1,target_resp_prac1.keys,pracBlock,task1_prac_trials.thisRepN,task1_prac_trials.thisTrialN,task1_prac_trials.thisN,task1_prac_trials.thisIndex,task1_prac_trials.ran,target_resp_prac1.rt,target_resp_prac2.keys,target_resp_prac2.rt,task2_praac_trials.thisRepN,task2_praac_trials.thisTrialN,task2_praac_trials.thisN,task2_praac_trials.thisIndex,task2_praac_trials.ran,alt,task,condition,target_resp.keys,target_resp.rt,rewCond,vts_practice_trials.thisRepN,vts_practice_trials.thisTrialN,vts_practice_trials.thisN,vts_practice_trials.thisIndex,vts_practice_trials.ran,blockNum,trials_norew.thisRepN,trials_norew.thisTrialN,trials_norew.thisN,trials_norew.thisIndex,trials_norew.ran,key_resp_2.keys,key_resp_2.rt,rewExpect,trials_rew.thisRepN,trials_rew.thisTrialN,trials_rew.thisN,trials_rew.thisIndex,trials_rew.ran,Q1,Q2,Q2_text,Q3,Q4,Q5_text,Q5,xRes,yRes
293614,2022-10-03_08h27.25.739,vts_reward_expectancy,2022.2.4,Win32,60.91617934,Chrome,1664,1110,,,,,,,,,,,,,,,,,,,,,,,,,,,,,,,,,,,,,,,,,,,,,,,,,,,,,,,,,,,,,,,,,,,,,,,,,,,,
293614,2022-10-03_08h27.25.739,vts_reward_expectancy,2022.2.4,Win32,60.91617934,Chrome,1664,1110,space,8.7655,,,,,,,,,,,,,,,,,,,,,,,,,,,,,,,,,,,,,,,,,,,,,,,,,,,,,,,,,,,,,,,,,,,,,,,,,,
293614,2022-10-03_08h27.25.739,vts_reward_expectancy,2022.2.4,Win32,60.91617934,Chrome,1664,1110,,,,,,,,,,,,,,,,,,,,,,,,,,,,,,,,,,,,,,,,,,,,,,,,,,,,,,,,,,,,,,,,,,,,,,,,,,,,
293614,2022-10-03_08h27.25.739,vts_reward_expectancy,2022.2.4,Win32,60.91617934,Chrome,1664,1110,,,a,1.8877,10,10,0,0,0,0,3,1,0,1,0,0,1,0,0,0,circle,triangle,,,,,,,,,,,,,,,,,,,,,,,,,,,,,,,,,,,,,,,,,,,,,,,,,,,,,,
293614,2022-10-03_08h27.25.739,vts_reward_expectancy,2022.2.4,Win32,60.91617934,Chrome,1664,1110,,,a,1.3842,1,11,0,0,1,1,8,1,0,0,1,0,0,0,0,1,hexagon,star,,,,,,,,,,,,,,,,,,,,,,,,,,,,,,,,,,,,,,,,,,,,,,,,,,,,,,
293614,2022-10-03_08h27.25.739,vts_reward_expectancy,2022.2.4,Win32,60.91617934,Chrome,1664,1110,,,a,1.8988,1,12,0,0,2,2,5,1,0,1,0,0,0,0,0,1,circle,star,,,,,,,,,,,,,,,,,,,,,,,,,,,,,,,,,,,,,,,,,,,,,,,,,,,,,,
293614,2022-10-03_08h27.25.739,vts_reward_expectancy,2022.2.4,Win32,60.91617934,Chrome,1664,1110,,,l,1.1021,1,13,0,0,3,3,1,1,1,0,0,0,0,0,1,0,triangle,hexagon,,,,,,,,,,,,,,,,,,,,,,,,,,,,,,,,,,,,,,,,,,,,,,,,,,,,,,
293614,2022-10-03_08h27.25.739,vts_reward_expectancy,2022.2.4,Win32,60.91617934,Chrome,1664,1110,,,l,0.5684,1,14,0,0,4,4,4,1,0,1,0,0,0,0,1,0,circle,hexagon,,,,,,,,,,,,,,,,,,,,,,,,,,,,,,,,,,,,,,,,,,,,,,,,,,,,,,
293614,2022-10-03_08h27.25.739,vts_reward_expectancy,2022.2.4,Win32,60.91617934,Chrome,1664,1110,,,l,1.4142,1,15,0,0,5,5,0,1,1,0,0,0,0,1,0,0,triangle,circle,,,,,,,,,,,,,,,,,,,,,,,,,,,,,,,,,,,,,,,,,,,,,,,,,,,,,,
293614,2022-10-03_08h27.25.739,vts_reward_expectancy,2022.2.4,Win32,60.91617934,Chrome,1664,1110,,,a,2.4175,1,16,0,0,6,6,9,1,0,0,0,1,1,0,0,0,star,triangle,,,,,,,,,,,,,,,,,,,,,,,,,,,,,,,,,,,,,,,,,,,,,,,,,,,,,,
293614,2022-10-03_08h27.25.739,vts_reward_expectancy,2022.2.4,Win32,60.91617934,Chrome,1664,1110,,,a,1.8527,1,17,0,0,7,7,10,1,0,0,0,1,0,1,0,0,star ,circle,,,,,,,,,,,,,,,,,,,,,,,,,,,,,,,,,,,,,,,,,,,,,,,,,,,,,,
293614,2022-10-03_08h27.25.739,vts_reward_expectancy,2022.2.4,Win32,60.91617934,Chrome,1664,1110,,,a,0.6693,1,18,0,0,8,8,2,1,1,0,0,0,0,0,0,1,triangle,star,,,,,,,,,,,,,,,,,,,,,,,,,,,,,,,,,,,,,,,,,,,,,,,,,,,,,,
293614,2022-10-03_08h27.25.739,vts_reward_expectancy,2022.2.4,Win32,60.91617934,Chrome,1664,1110,,,l,1.1182,1,19,0,0,9,9,7,1,0,0,1,0,0,1,0,0,hexagon,circle,,,,,,,,,,,,,,,,,,,,,,,,,,,,,,,,,,,,,,,,,,,,,,,,,,,,,,
293614,2022-10-03_08h27.25.739,vts_reward_expectancy,2022.2.4,Win32,60.91617934,Chrome,1664,1110,,,a,3.4001,10,29,0,0,10,10,6,1,0,0,1,0,1,0,0,0,hexagon,triangle,,,,,,,,,,,,,,,,,,,,,,,,,,,,,,,,,,,,,,,,,,,,,,,,,,,,,,
293614,2022-10-03_08h27.25.739,vts_reward_expectancy,2022.2.4,Win32,60.91617934,Chrome,1664,1110,,,l,1.9527,10,39,0,0,11,11,11,1,0,0,0,1,0,0,1,0,star,hexagon,,,,,,,,,,,,,,,,,,,,,,,,,,,,,,,,,,,,,,,,,,,,,,,,,,,,,,
293614,2022-10-03_08h27.25.739,vts_reward_expectancy,2022.2.4,Win32,60.91617934,Chrome,1664,1110,,,l,0.7318,1,40,0,1,0,12,10,1,0,0,0,1,0,1,0,0,star ,circle,,,,,,,,,,,,,,,,,,,,,,,,,,,,,,,,,,,,,,,,,,,,,,,,,,,,,,
293614,2022-10-03_08h27.25.739,vts_reward_expectancy,2022.2.4,Win32,60.91617934,Chrome,1664,1110,,,a,2.1331,10,50,0,1,1,13,6,1,0,0,1,0,1,0,0,0,hexagon,triangle,,,,,,,,,,,,,,,,,,,,,,,,,,,,,,,,,,,,,,,,,,,,,,,,,,,,,,
293614,2022-10-03_08h27.25.739,vts_reward_expectancy,2022.2.4,Win32,60.91617934,Chrome,1664,1110,,,a,1.2314,1,51,0,1,2,14,0,1,1,0,0,0,0,1,0,0,triangle,circle,,,,,,,,,,,,,,,,,,,,,,,,,,,,,,,,,,,,,,,,,,,,,,,,,,,,,,
293614,2022-10-03_08h27.25.739,vts_reward_expectancy,2022.2.4,Win32,60.91617934,Chrome,1664,1110,,,l,2.3158,1,52,0,1,3,15,4,1,0,1,0,0,0,0,1,0,circle,hexagon,,,,,,,,,,,,,,,,,,,,,,,,,,,,,,,,,,,,,,,,,,,,,,,,,,,,,,
293614,2022-10-03_08h27.25.739,vts_reward_expectancy,2022.2.4,Win32,60.91617934,Chrome,1664,1110,,,l,1.2681,1,53,0,1,4,16,3,1,0,1,0,0,1,0,0,0,circle,triangle,,,,,,,,,,,,,,,,,,,,,,,,,,,,,,,,,,,,,,,,,,,,,,,,,,,,,,
293614,2022-10-03_08h27.25.739,vts_reward_expectancy,2022.2.4,Win32,60.91617934,Chrome,1664,1110,,,l,1.4981,1,54,0,1,5,17,7,1,0,0,1,0,0,1,0,0,hexagon,circle,,,,,,,,,,,,,,,,,,,,,,,,,,,,,,,,,,,,,,,,,,,,,,,,,,,,,,
293614,2022-10-03_08h27.25.739,vts_reward_expectancy,2022.2.4,Win32,60.91617934,Chrome,1664,1110,,,l,1.6507,10,64,0,1,6,18,2,1,1,0,0,0,0,0,0,1,triangle,star,,,,,,,,,,,,,,,,,,,,,,,,,,,,,,,,,,,,,,,,,,,,,,,,,,,,,,
293614,2022-10-03_08h27.25.739,vts_reward_expectancy,2022.2.4,Win32,60.91617934,Chrome,1664,1110,,,a,3.0017,1,65,0,1,7,19,11,1,0,0,0,1,0,0,1,0,star,hexagon,,,,,,,,,,,,,,,,,,,,,,,,,,,,,,,,,,,,,,,,,,,,,,,,,,,,,,
293614,2022-10-03_08h27.25.739,vts_reward_expectancy,2022.2.4,Win32,60.91617934,Chrome,1664,1110,,,l,3.0831,10,75,0,1,8,20,5,1,0,1,0,0,0,0,0,1,circle,star,,,,,,,,,,,,,,,,,,,,,,,,,,,,,,,,,,,,,,,,,,,,,,,,,,,,,,
293614,2022-10-03_08h27.25.739,vts_reward_expectancy,2022.2.4,Win32,60.91617934,Chrome,1664,1110,,,l,2.7014,10,85,0,1,9,21,9,1,0,0,0,1,1,0,0,0,star,triangle,,,,,,,,,,,,,,,,,,,,,,,,,,,,,,,,,,,,,,,,,,,,,,,,,,,,,,
293614,2022-10-03_08h27.25.739,vts_reward_expectancy,2022.2.4,Win32,60.91617934,Chrome,1664,1110,,,a,1.5837,1,86,0,1,10,22,8,1,0,0,1,0,0,0,0,1,hexagon,star,,,,,,,,,,,,,,,,,,,,,,,,,,,,,,,,,,,,,,,,,,,,,,,,,,,,,,
293614,2022-10-03_08h27.25.739,vts_reward_expectancy,2022.2.4,Win32,60.91617934,Chrome,1664,1110,,,l,4.1517,1,87,0,1,11,23,1,1,1,0,0,0,0,0,1,0,triangle,hexagon,,,,,,,,,,,,,,,,,,,,,,,,,,,,,,,,,,,,,,,,,,,,,,,,,,,,,,
293614,2022-10-03_08h27.25.739,vts_reward_expectancy,2022.2.4,Win32,60.91617934,Chrome,1664,1110,,,l,1.7196,10,97,0,2,0,24,2,1,1,0,0,0,0,0,0,1,triangle,star,,,,,,,,,,,,,,,,,,,,,,,,,,,,,,,,,,,,,,,,,,,,,,,,,,,,,,
293614,2022-10-03_08h27.25.739,vts_reward_expectancy,2022.2.4,Win32,60.91617934,Chrome,1664,1110,,,a,1.9839,1,98,0,2,1,25,8,1,0,0,1,0,0,0,0,1,hexagon,star,,,,,,,,,,,,,,,,,,,,,,,,,,,,,,,,,,,,,,,,,,,,,,,,,,,,,,
293614,2022-10-03_08h27.25.739,vts_reward_expectancy,2022.2.4,Win32,60.91617934,Chrome,1664,1110,,,l,1.7341,1,99,0,2,2,26,7,1,0,0,1,0,0,1,0,0,hexagon,circle,,,,,,,,,,,,,,,,,,,,,,,,,,,,,,,,,,,,,,,,,,,,,,,,,,,,,,
293614,2022-10-03_08h27.25.739,vts_reward_expectancy,2022.2.4,Win32,60.91617934,Chrome,1664,1110,,,a,0.8686,10,109,0,2,3,27,11,1,0,0,0,1,0,0,1,0,star,hexagon,,,,,,,,,,,,,,,,,,,,,,,,,,,,,,,,,,,,,,,,,,,,,,,,,,,,,,
293614,2022-10-03_08h27.25.739,vts_reward_expectancy,2022.2.4,Win32,60.91617934,Chrome,1664,1110,,,a,7.2184,10,119,0,2,4,28,0,1,1,0,0,0,0,1,0,0,triangle,circle,,,,,,,,,,,,,,,,,,,,,,,,,,,,,,,,,,,,,,,,,,,,,,,,,,,,,,
293614,2022-10-03_08h27.25.739,vts_reward_expectancy,2022.2.4,Win32,60.91617934,Chrome,1664,1110,,,a,2.6841,1,120,0,2,5,29,6,1,0,0,1,0,1,0,0,0,hexagon,triangle,,,,,,,,,,,,,,,,,,,,,,,,,,,,,,,,,,,,,,,,,,,,,,,,,,,,,,
293614,2022-10-03_08h27.25.739,vts_reward_expectancy,2022.2.4,Win32,60.91617934,Chrome,1664,1110,,,l,0.7167,10,130,0,2,6,30,5,1,0,1,0,0,0,0,0,1,circle,star,,,,,,,,,,,,,,,,,,,,,,,,,,,,,,,,,,,,,,,,,,,,,,,,,,,,,,
293614,2022-10-03_08h27.25.739,vts_reward_expectancy,2022.2.4,Win32,60.91617934,Chrome,1664,1110,,,a,0.5978,1,131,0,2,7,31,1,1,1,0,0,0,0,0,1,0,triangle,hexagon,,,,,,,,,,,,,,,,,,,,,,,,,,,,,,,,,,,,,,,,,,,,,,,,,,,,,,
293614,2022-10-03_08h27.25.739,vts_reward_expectancy,2022.2.4,Win32,60.91617934,Chrome,1664,1110,,,a,0.5669,10,141,0,2,8,32,9,1,0,0,0,1,1,0,0,0,star,triangle,,,,,,,,,,,,,,,,,,,,,,,,,,,,,,,,,,,,,,,,,,,,,,,,,,,,,,
293614,2022-10-03_08h27.25.739,vts_reward_expectancy,2022.2.4,Win32,60.91617934,Chrome,1664,1110,,,a,0.6001,10,151,0,2,9,33,10,1,0,0,0,1,0,1,0,0,star ,circle,,,,,,,,,,,,,,,,,,,,,,,,,,,,,,,,,,,,,,,,,,,,,,,,,,,,,,
293614,2022-10-03_08h27.25.739,vts_reward_expectancy,2022.2.4,Win32,60.91617934,Chrome,1664,1110,,,l,1.568,1,152,0,2,10,34,4,1,0,1,0,0,0,0,1,0,circle,hexagon,,,,,,,,,,,,,,,,,,,,,,,,,,,,,,,,,,,,,,,,,,,,,,,,,,,,,,
293614,2022-10-03_08h27.25.739,vts_reward_expectancy,2022.2.4,Win32,60.91617934,Chrome,1664,1110,,,l,1.8088,10,162,0,2,11,35,3,1,0,1,0,0,1,0,0,0,circle,triangle,,,,,,,,,,,,,,,,,,,,,,,,,,,,,,,,,,,,,,,,,,,,,,,,,,,,,,
293614,2022-10-03_08h27.25.739,vts_reward_expectancy,2022.2.4,Win32,60.91617934,Chrome,1664,1110,,,l,3.2179,10,172,1,0,0,0,8,1,0,0,1,0,0,0,0,1,hexagon,star,,,,,,,,,,,,,,,,,,,,,,,,,,,,,,,,,,,,,,,,,,,,,,,,,,,,,,
293614,2022-10-03_08h27.25.739,vts_reward_expectancy,2022.2.4,Win32,60.91617934,Chrome,1664,1110,,,a,1.0824,10,182,1,0,1,1,11,1,0,0,0,1,0,0,1,0,star,hexagon,,,,,,,,,,,,,,,,,,,,,,,,,,,,,,,,,,,,,,,,,,,,,,,,,,,,,,
293614,2022-10-03_08h27.25.739,vts_reward_expectancy,2022.2.4,Win32,60.91617934,Chrome,1664,1110,,,l,0.7659,1,183,1,0,2,2,2,1,1,0,0,0,0,0,0,1,triangle,star,,,,,,,,,,,,,,,,,,,,,,,,,,,,,,,,,,,,,,,,,,,,,,,,,,,,,,
293614,2022-10-03_08h27.25.739,vts_reward_expectancy,2022.2.4,Win32,60.91617934,Chrome,1664,1110,,,a,0.9674,1,184,1,0,3,3,4,1,0,1,0,0,0,0,1,0,circle,hexagon,,,,,,,,,,,,,,,,,,,,,,,,,,,,,,,,,,,,,,,,,,,,,,,,,,,,,,
293614,2022-10-03_08h27.25.739,vts_reward_expectancy,2022.2.4,Win32,60.91617934,Chrome,1664,1110,,,a,0.5321,10,194,1,0,4,4,3,1,0,1,0,0,1,0,0,0,circle,triangle,,,,,,,,,,,,,,,,,,,,,,,,,,,,,,,,,,,,,,,,,,,,,,,,,,,,,,
293614,2022-10-03_08h27.25.739,vts_reward_expectancy,2022.2.4,Win32,60.91617934,Chrome,1664,1110,,,l,4.3358,10,204,1,0,5,5,5,1,0,1,0,0,0,0,0,1,circle,star,,,,,,,,,,,,,,,,,,,,,,,,,,,,,,,,,,,,,,,,,,,,,,,,,,,,,,
293614,2022-10-03_08h27.25.739,vts_reward_expectancy,2022.2.4,Win32,60.91617934,Chrome,1664,1110,,,a,0.6652,10,214,1,0,6,6,9,1,0,0,0,1,1,0,0,0,star,triangle,,,,,,,,,,,,,,,,,,,,,,,,,,,,,,,,,,,,,,,,,,,,,,,,,,,,,,
293614,2022-10-03_08h27.25.739,vts_reward_expectancy,2022.2.4,Win32,60.91617934,Chrome,1664,1110,,,l,0.666,1,215,1,0,7,7,10,1,0,0,0,1,0,1,0,0,star ,circle,,,,,,,,,,,,,,,,,,,,,,,,,,,,,,,,,,,,,,,,,,,,,,,,,,,,,,
293614,2022-10-03_08h27.25.739,vts_reward_expectancy,2022.2.4,Win32,60.91617934,Chrome,1664,1110,,,l,1.0192,10,225,1,0,8,8,7,1,0,0,1,0,0,1,0,0,hexagon,circle,,,,,,,,,,,,,,,,,,,,,,,,,,,,,,,,,,,,,,,,,,,,,,,,,,,,,,
293614,2022-10-03_08h27.25.739,vts_reward_expectancy,2022.2.4,Win32,60.91617934,Chrome,1664,1110,,,a,1.5027,10,235,1,0,9,9,1,1,1,0,0,0,0,0,1,0,triangle,hexagon,,,,,,,,,,,,,,,,,,,,,,,,,,,,,,,,,,,,,,,,,,,,,,,,,,,,,,
293614,2022-10-03_08h27.25.739,vts_reward_expectancy,2022.2.4,Win32,60.91617934,Chrome,1664,1110,,,a,0.7165,1,236,1,0,10,10,6,1,0,0,1,0,1,0,0,0,hexagon,triangle,,,,,,,,,,,,,,,,,,,,,,,,,,,,,,,,,,,,,,,,,,,,,,,,,,,,,,
293614,2022-10-03_08h27.25.739,vts_reward_expectancy,2022.2.4,Win32,60.91617934,Chrome,1664,1110,,,a,2.1668,10,246,1,0,11,11,0,1,1,0,0,0,0,1,0,0,triangle,circle,,,,,,,,,,,,,,,,,,,,,,,,,,,,,,,,,,,,,,,,,,,,,,,,,,,,,,
293614,2022-10-03_08h27.25.739,vts_reward_expectancy,2022.2.4,Win32,60.91617934,Chrome,1664,1110,,,l,1.3819,1,247,1,1,0,12,11,1,0,0,0,1,0,0,1,0,star,hexagon,,,,,,,,,,,,,,,,,,,,,,,,,,,,,,,,,,,,,,,,,,,,,,,,,,,,,,
293614,2022-10-03_08h27.25.739,vts_reward_expectancy,2022.2.4,Win32,60.91617934,Chrome,1664,1110,,,a,0.8166,1,248,1,1,1,13,2,1,1,0,0,0,0,0,0,1,triangle,star,,,,,,,,,,,,,,,,,,,,,,,,,,,,,,,,,,,,,,,,,,,,,,,,,,,,,,
293614,2022-10-03_08h27.25.739,vts_reward_expectancy,2022.2.4,Win32,60.91617934,Chrome,1664,1110,,,a,0.7829,1,249,1,1,2,14,6,1,0,0,1,0,1,0,0,0,hexagon,triangle,,,,,,,,,,,,,,,,,,,,,,,,,,,,,,,,,,,,,,,,,,,,,,,,,,,,,,
293614,2022-10-03_08h27.25.739,vts_reward_expectancy,2022.2.4,Win32,60.91617934,Chrome,1664,1110,,,l,0.3839,1,250,1,1,3,15,0,1,1,0,0,0,0,1,0,0,triangle,circle,,,,,,,,,,,,,,,,,,,,,,,,,,,,,,,,,,,,,,,,,,,,,,,,,,,,,,
293614,2022-10-03_08h27.25.739,vts_reward_expectancy,2022.2.4,Win32,60.91617934,Chrome,1664,1110,,,l,0.6665,1,251,1,1,4,16,3,1,0,1,0,0,1,0,0,0,circle,triangle,,,,,,,,,,,,,,,,,,,,,,,,,,,,,,,,,,,,,,,,,,,,,,,,,,,,,,
293614,2022-10-03_08h27.25.739,vts_reward_expectancy,2022.2.4,Win32,60.91617934,Chrome,1664,1110,,,l,0.919,1,252,1,1,5,17,10,1,0,0,0,1,0,1,0,0,star ,circle,,,,,,,,,,,,,,,,,,,,,,,,,,,,,,,,,,,,,,,,,,,,,,,,,,,,,,
293614,2022-10-03_08h27.25.739,vts_reward_expectancy,2022.2.4,Win32,60.91617934,Chrome,1664,1110,,,l,1.0656,10,262,1,1,6,18,8,1,0,0,1,0,0,0,0,1,hexagon,star,,,,,,,,,,,,,,,,,,,,,,,,,,,,,,,,,,,,,,,,,,,,,,,,,,,,,,
293614,2022-10-03_08h27.25.739,vts_reward_expectancy,2022.2.4,Win32,60.91617934,Chrome,1664,1110,,,l,1.3004,10,272,1,1,7,19,5,1,0,1,0,0,0,0,0,1,circle,star,,,,,,,,,,,,,,,,,,,,,,,,,,,,,,,,,,,,,,,,,,,,,,,,,,,,,,
293614,2022-10-03_08h27.25.739,vts_reward_expectancy,2022.2.4,Win32,60.91617934,Chrome,1664,1110,,,l,0.9991,1,273,1,1,8,20,4,1,0,1,0,0,0,0,1,0,circle,hexagon,,,,,,,,,,,,,,,,,,,,,,,,,,,,,,,,,,,,,,,,,,,,,,,,,,,,,,
293614,2022-10-03_08h27.25.739,vts_reward_expectancy,2022.2.4,Win32,60.91617934,Chrome,1664,1110,,,a,0.6663,1,274,1,1,9,21,1,1,1,0,0,0,0,0,1,0,triangle,hexagon,,,,,,,,,,,,,,,,,,,,,,,,,,,,,,,,,,,,,,,,,,,,,,,,,,,,,,
293614,2022-10-03_08h27.25.739,vts_reward_expectancy,2022.2.4,Win32,60.91617934,Chrome,1664,1110,,,a,0.9662,1,275,1,1,10,22,7,1,0,0,1,0,0,1,0,0,hexagon,circle,,,,,,,,,,,,,,,,,,,,,,,,,,,,,,,,,,,,,,,,,,,,,,,,,,,,,,
293614,2022-10-03_08h27.25.739,vts_reward_expectancy,2022.2.4,Win32,60.91617934,Chrome,1664,1110,,,a,2.0509,10,285,1,1,11,23,9,1,0,0,0,1,1,0,0,0,star,triangle,,,,,,,,,,,,,,,,,,,,,,,,,,,,,,,,,,,,,,,,,,,,,,,,,,,,,,
293614,2022-10-03_08h27.25.739,vts_reward_expectancy,2022.2.4,Win32,60.91617934,Chrome,1664,1110,,,a,1.9852,1,286,1,2,0,24,3,1,0,1,0,0,1,0,0,0,circle,triangle,,,,,,,,,,,,,,,,,,,,,,,,,,,,,,,,,,,,,,,,,,,,,,,,,,,,,,
293614,2022-10-03_08h27.25.739,vts_reward_expectancy,2022.2.4,Win32,60.91617934,Chrome,1664,1110,,,a,2.117,1,287,1,2,1,25,10,1,0,0,0,1,0,1,0,0,star ,circle,,,,,,,,,,,,,,,,,,,,,,,,,,,,,,,,,,,,,,,,,,,,,,,,,,,,,,
293614,2022-10-03_08h27.25.739,vts_reward_expectancy,2022.2.4,Win32,60.91617934,Chrome,1664,1110,,,l,3.6506,10,297,1,2,2,26,7,1,0,0,1,0,0,1,0,0,hexagon,circle,,,,,,,,,,,,,,,,,,,,,,,,,,,,,,,,,,,,,,,,,,,,,,,,,,,,,,
293614,2022-10-03_08h27.25.739,vts_reward_expectancy,2022.2.4,Win32,60.91617934,Chrome,1664,1110,,,l,2.4328,10,307,1,2,3,27,8,1,0,0,1,0,0,0,0,1,hexagon,star,,,,,,,,,,,,,,,,,,,,,,,,,,,,,,,,,,,,,,,,,,,,,,,,,,,,,,
293614,2022-10-03_08h27.25.739,vts_reward_expectancy,2022.2.4,Win32,60.91617934,Chrome,1664,1110,,,l,4.1843,10,317,1,2,4,28,5,1,0,1,0,0,0,0,0,1,circle,star,,,,,,,,,,,,,,,,,,,,,,,,,,,,,,,,,,,,,,,,,,,,,,,,,,,,,,
293614,2022-10-03_08h27.25.739,vts_reward_expectancy,2022.2.4,Win32,60.91617934,Chrome,1664,1110,,,a,5.7347,1,318,1,2,5,29,6,1,0,0,1,0,1,0,0,0,hexagon,triangle,,,,,,,,,,,,,,,,,,,,,,,,,,,,,,,,,,,,,,,,,,,,,,,,,,,,,,
293614,2022-10-03_08h27.25.739,vts_reward_expectancy,2022.2.4,Win32,60.91617934,Chrome,1664,1110,,,a,4.6522,1,319,1,2,6,30,0,1,1,0,0,0,0,1,0,0,triangle,circle,,,,,,,,,,,,,,,,,,,,,,,,,,,,,,,,,,,,,,,,,,,,,,,,,,,,,,
293614,2022-10-03_08h27.25.739,vts_reward_expectancy,2022.2.4,Win32,60.91617934,Chrome,1664,1110,,,a,2.085,1,320,1,2,7,31,4,1,0,1,0,0,0,0,1,0,circle,hexagon,,,,,,,,,,,,,,,,,,,,,,,,,,,,,,,,,,,,,,,,,,,,,,,,,,,,,,
293614,2022-10-03_08h27.25.739,vts_reward_expectancy,2022.2.4,Win32,60.91617934,Chrome,1664,1110,,,l,2.3671,10,330,1,2,8,32,2,1,1,0,0,0,0,0,0,1,triangle,star,,,,,,,,,,,,,,,,,,,,,,,,,,,,,,,,,,,,,,,,,,,,,,,,,,,,,,
293614,2022-10-03_08h27.25.739,vts_reward_expectancy,2022.2.4,Win32,60.91617934,Chrome,1664,1110,,,a,9.3859,10,340,1,2,9,33,9,1,0,0,0,1,1,0,0,0,star,triangle,,,,,,,,,,,,,,,,,,,,,,,,,,,,,,,,,,,,,,,,,,,,,,,,,,,,,,
293614,2022-10-03_08h27.25.739,vts_reward_expectancy,2022.2.4,Win32,60.91617934,Chrome,1664,1110,,,l,1.5508,1,341,1,2,10,34,11,1,0,0,0,1,0,0,1,0,star,hexagon,,,,,,,,,,,,,,,,,,,,,,,,,,,,,,,,,,,,,,,,,,,,,,,,,,,,,,
293614,2022-10-03_08h27.25.739,vts_reward_expectancy,2022.2.4,Win32,60.91617934,Chrome,1664,1110,,,l,1.1354,10,351,1,2,11,35,1,1,1,0,0,0,0,0,1,0,triangle,hexagon,,,,,,,,,,,,,,,,,,,,,,,,,,,,,,,,,,,,,,,,,,,,,,,,,,,,,,
293614,2022-10-03_08h27.25.739,vts_reward_expectancy,2022.2.4,Win32,60.91617934,Chrome,1664,1110,,,a,9.802,10,361,2,0,0,0,1,1,1,0,0,0,0,0,1,0,triangle,hexagon,,,,,,,,,,,,,,,,,,,,,,,,,,,,,,,,,,,,,,,,,,,,,,,,,,,,,,
293614,2022-10-03_08h27.25.739,vts_reward_expectancy,2022.2.4,Win32,60.91617934,Chrome,1664,1110,,,a,3.5342,1,362,2,0,1,1,2,1,1,0,0,0,0,0,0,1,triangle,star,,,,,,,,,,,,,,,,,,,,,,,,,,,,,,,,,,,,,,,,,,,,,,,,,,,,,,
293614,2022-10-03_08h27.25.739,vts_reward_expectancy,2022.2.4,Win32,60.91617934,Chrome,1664,1110,,,a,1.5672,1,363,2,0,2,2,6,1,0,0,1,0,1,0,0,0,hexagon,triangle,,,,,,,,,,,,,,,,,,,,,,,,,,,,,,,,,,,,,,,,,,,,,,,,,,,,,,
293614,2022-10-03_08h27.25.739,vts_reward_expectancy,2022.2.4,Win32,60.91617934,Chrome,1664,1110,,,l,0.2494,1,364,2,0,3,3,9,1,0,0,0,1,1,0,0,0,star,triangle,,,,,,,,,,,,,,,,,,,,,,,,,,,,,,,,,,,,,,,,,,,,,,,,,,,,,,
293614,2022-10-03_08h27.25.739,vts_reward_expectancy,2022.2.4,Win32,60.91617934,Chrome,1664,1110,,,l,1.2851,1,365,2,0,4,4,0,1,1,0,0,0,0,1,0,0,triangle,circle,,,,,,,,,,,,,,,,,,,,,,,,,,,,,,,,,,,,,,,,,,,,,,,,,,,,,,
293614,2022-10-03_08h27.25.739,vts_reward_expectancy,2022.2.4,Win32,60.91617934,Chrome,1664,1110,,,a,0.4483,10,375,2,0,5,5,7,1,0,0,1,0,0,1,0,0,hexagon,circle,,,,,,,,,,,,,,,,,,,,,,,,,,,,,,,,,,,,,,,,,,,,,,,,,,,,,,
293614,2022-10-03_08h27.25.739,vts_reward_expectancy,2022.2.4,Win32,60.91617934,Chrome,1664,1110,,,l,0.851,1,376,2,0,6,6,11,1,0,0,0,1,0,0,1,0,star,hexagon,,,,,,,,,,,,,,,,,,,,,,,,,,,,,,,,,,,,,,,,,,,,,,,,,,,,,,
293614,2022-10-03_08h27.25.739,vts_reward_expectancy,2022.2.4,Win32,60.91617934,Chrome,1664,1110,,,a,3.6367,1,377,2,0,7,7,5,1,0,1,0,0,0,0,0,1,circle,star,,,,,,,,,,,,,,,,,,,,,,,,,,,,,,,,,,,,,,,,,,,,,,,,,,,,,,
293614,2022-10-03_08h27.25.739,vts_reward_expectancy,2022.2.4,Win32,60.91617934,Chrome,1664,1110,,,l,1.1167,10,387,2,0,8,8,8,1,0,0,1,0,0,0,0,1,hexagon,star,,,,,,,,,,,,,,,,,,,,,,,,,,,,,,,,,,,,,,,,,,,,,,,,,,,,,,
293614,2022-10-03_08h27.25.739,vts_reward_expectancy,2022.2.4,Win32,60.91617934,Chrome,1664,1110,,,a,1.3333,1,388,2,0,9,9,4,1,0,1,0,0,0,0,1,0,circle,hexagon,,,,,,,,,,,,,,,,,,,,,,,,,,,,,,,,,,,,,,,,,,,,,,,,,,,,,,
293614,2022-10-03_08h27.25.739,vts_reward_expectancy,2022.2.4,Win32,60.91617934,Chrome,1664,1110,,,l,1.5177,1,389,2,0,10,10,10,1,0,0,0,1,0,1,0,0,star ,circle,,,,,,,,,,,,,,,,,,,,,,,,,,,,,,,,,,,,,,,,,,,,,,,,,,,,,,
293614,2022-10-03_08h27.25.739,vts_reward_expectancy,2022.2.4,Win32,60.91617934,Chrome,1664,1110,,,l,1.3667,1,390,2,0,11,11,3,1,0,1,0,0,1,0,0,0,circle,triangle,,,,,,,,,,,,,,,,,,,,,,,,,,,,,,,,,,,,,,,,,,,,,,,,,,,,,,
293614,2022-10-03_08h27.25.739,vts_reward_expectancy,2022.2.4,Win32,60.91617934,Chrome,1664,1110,,,l,0.9519,1,391,2,1,0,12,0,1,1,0,0,0,0,1,0,0,triangle,circle,,,,,,,,,,,,,,,,,,,,,,,,,,,,,,,,,,,,,,,,,,,,,,,,,,,,,,
293614,2022-10-03_08h27.25.739,vts_reward_expectancy,2022.2.4,Win32,60.91617934,Chrome,1664,1110,,,l,1.1502,10,401,2,1,1,13,8,1,0,0,1,0,0,0,0,1,hexagon,star,,,,,,,,,,,,,,,,,,,,,,,,,,,,,,,,,,,,,,,,,,,,,,,,,,,,,,
293614,2022-10-03_08h27.25.739,vts_reward_expectancy,2022.2.4,Win32,60.91617934,Chrome,1664,1110,,,l,0.8681,10,411,2,1,2,14,5,1,0,1,0,0,0,0,0,1,circle,star,,,,,,,,,,,,,,,,,,,,,,,,,,,,,,,,,,,,,,,,,,,,,,,,,,,,,,
293614,2022-10-03_08h27.25.739,vts_reward_expectancy,2022.2.4,Win32,60.91617934,Chrome,1664,1110,,,a,0.7549,10,421,2,1,3,15,10,1,0,0,0,1,0,1,0,0,star ,circle,,,,,,,,,,,,,,,,,,,,,,,,,,,,,,,,,,,,,,,,,,,,,,,,,,,,,,
293614,2022-10-03_08h27.25.739,vts_reward_expectancy,2022.2.4,Win32,60.91617934,Chrome,1664,1110,,,a,1.2674,10,431,2,1,4,16,3,1,0,1,0,0,1,0,0,0,circle,triangle,,,,,,,,,,,,,,,,,,,,,,,,,,,,,,,,,,,,,,,,,,,,,,,,,,,,,,
293614,2022-10-03_08h27.25.739,vts_reward_expectancy,2022.2.4,Win32,60.91617934,Chrome,1664,1110,,,a,0.7665,10,441,2,1,5,17,11,1,0,0,0,1,0,0,1,0,star,hexagon,,,,,,,,,,,,,,,,,,,,,,,,,,,,,,,,,,,,,,,,,,,,,,,,,,,,,,
293614,2022-10-03_08h27.25.739,vts_reward_expectancy,2022.2.4,Win32,60.91617934,Chrome,1664,1110,,,l,0.4333,1,442,2,1,6,18,7,1,0,0,1,0,0,1,0,0,hexagon,circle,,,,,,,,,,,,,,,,,,,,,,,,,,,,,,,,,,,,,,,,,,,,,,,,,,,,,,
293614,2022-10-03_08h27.25.739,vts_reward_expectancy,2022.2.4,Win32,60.91617934,Chrome,1664,1110,,,l,0.5167,10,452,2,1,7,19,2,1,1,0,0,0,0,0,0,1,triangle,star,,,,,,,,,,,,,,,,,,,,,,,,,,,,,,,,,,,,,,,,,,,,,,,,,,,,,,
293614,2022-10-03_08h27.25.739,vts_reward_expectancy,2022.2.4,Win32,60.91617934,Chrome,1664,1110,,,l,1.6341,10,462,2,1,8,20,9,1,0,0,0,1,1,0,0,0,star,triangle,,,,,,,,,,,,,,,,,,,,,,,,,,,,,,,,,,,,,,,,,,,,,,,,,,,,,,
293614,2022-10-03_08h27.25.739,vts_reward_expectancy,2022.2.4,Win32,60.91617934,Chrome,1664,1110,,,l,0.5335,10,472,2,1,9,21,6,1,0,0,1,0,1,0,0,0,hexagon,triangle,,,,,,,,,,,,,,,,,,,,,,,,,,,,,,,,,,,,,,,,,,,,,,,,,,,,,,
293614,2022-10-03_08h27.25.739,vts_reward_expectancy,2022.2.4,Win32,60.91617934,Chrome,1664,1110,,,l,0.0851,10,482,2,1,10,22,1,1,1,0,0,0,0,0,1,0,triangle,hexagon,,,,,,,,,,,,,,,,,,,,,,,,,,,,,,,,,,,,,,,,,,,,,,,,,,,,,,
293614,2022-10-03_08h27.25.739,vts_reward_expectancy,2022.2.4,Win32,60.91617934,Chrome,1664,1110,,,a,0.9497,10,492,2,1,11,23,4,1,0,1,0,0,0,0,1,0,circle,hexagon,,,,,,,,,,,,,,,,,,,,,,,,,,,,,,,,,,,,,,,,,,,,,,,,,,,,,,
293614,2022-10-03_08h27.25.739,vts_reward_expectancy,2022.2.4,Win32,60.91617934,Chrome,1664,1110,,,a,0.3833,10,502,2,2,0,24,9,1,0,0,0,1,1,0,0,0,star,triangle,,,,,,,,,,,,,,,,,,,,,,,,,,,,,,,,,,,,,,,,,,,,,,,,,,,,,,
293614,2022-10-03_08h27.25.739,vts_reward_expectancy,2022.2.4,Win32,60.91617934,Chrome,1664,1110,,,a,0.4,1,503,2,2,1,25,1,1,1,0,0,0,0,0,1,0,triangle,hexagon,,,,,,,,,,,,,,,,,,,,,,,,,,,,,,,,,,,,,,,,,,,,,,,,,,,,,,
293614,2022-10-03_08h27.25.739,vts_reward_expectancy,2022.2.4,Win32,60.91617934,Chrome,1664,1110,,,a,1.2686,1,504,2,2,2,26,3,1,0,1,0,0,1,0,0,0,circle,triangle,,,,,,,,,,,,,,,,,,,,,,,,,,,,,,,,,,,,,,,,,,,,,,,,,,,,,,
293614,2022-10-03_08h27.25.739,vts_reward_expectancy,2022.2.4,Win32,60.91617934,Chrome,1664,1110,,,a,0.018,10,514,2,2,3,27,11,1,0,0,0,1,0,0,1,0,star,hexagon,,,,,,,,,,,,,,,,,,,,,,,,,,,,,,,,,,,,,,,,,,,,,,,,,,,,,,
293614,2022-10-03_08h27.25.739,vts_reward_expectancy,2022.2.4,Win32,60.91617934,Chrome,1664,1110,,,a,1.8341,1,515,2,2,4,28,5,1,0,1,0,0,0,0,0,1,circle,star,,,,,,,,,,,,,,,,,,,,,,,,,,,,,,,,,,,,,,,,,,,,,,,,,,,,,,
293614,2022-10-03_08h27.25.739,vts_reward_expectancy,2022.2.4,Win32,60.91617934,Chrome,1664,1110,,,l,1.4502,1,516,2,2,5,29,0,1,1,0,0,0,0,1,0,0,triangle,circle,,,,,,,,,,,,,,,,,,,,,,,,,,,,,,,,,,,,,,,,,,,,,,,,,,,,,,
293614,2022-10-03_08h27.25.739,vts_reward_expectancy,2022.2.4,Win32,60.91617934,Chrome,1664,1110,,,l,0.533,1,517,2,2,6,30,10,1,0,0,0,1,0,1,0,0,star ,circle,,,,,,,,,,,,,,,,,,,,,,,,,,,,,,,,,,,,,,,,,,,,,,,,,,,,,,
293614,2022-10-03_08h27.25.739,vts_reward_expectancy,2022.2.4,Win32,60.91617934,Chrome,1664,1110,,,l,0.017,1,518,2,2,7,31,4,1,0,1,0,0,0,0,1,0,circle,hexagon,,,,,,,,,,,,,,,,,,,,,,,,,,,,,,,,,,,,,,,,,,,,,,,,,,,,,,
293614,2022-10-03_08h27.25.739,vts_reward_expectancy,2022.2.4,Win32,60.91617934,Chrome,1664,1110,,,l,0.4014,10,528,2,2,8,32,2,1,1,0,0,0,0,0,0,1,triangle,star,,,,,,,,,,,,,,,,,,,,,,,,,,,,,,,,,,,,,,,,,,,,,,,,,,,,,,
293614,2022-10-03_08h27.25.739,vts_reward_expectancy,2022.2.4,Win32,60.91617934,Chrome,1664,1110,,,l,0.769,1,529,2,2,9,33,7,1,0,0,1,0,0,1,0,0,hexagon,circle,,,,,,,,,,,,,,,,,,,,,,,,,,,,,,,,,,,,,,,,,,,,,,,,,,,,,,
293614,2022-10-03_08h27.25.739,vts_reward_expectancy,2022.2.4,Win32,60.91617934,Chrome,1664,1110,,,a,0.8348,1,530,2,2,10,34,8,1,0,0,1,0,0,0,0,1,hexagon,star,,,,,,,,,,,,,,,,,,,,,,,,,,,,,,,,,,,,,,,,,,,,,,,,,,,,,,
293614,2022-10-03_08h27.25.739,vts_reward_expectancy,2022.2.4,Win32,60.91617934,Chrome,1664,1110,,,a,1.1714,1,531,2,2,11,35,6,1,0,0,1,0,1,0,0,0,hexagon,triangle,,,,,,,,,,,,,,,,,,,,,,,,,,,,,,,,,,,,,,,,,,,,,,,,,,,,,,
293614,2022-10-03_08h27.25.739,vts_reward_expectancy,2022.2.4,Win32,60.91617934,Chrome,1664,1110,,,,,,,,,,,,,,,,,,,,,,,125,W,star,0,0,,0,0,0,0,0,1,,,,,,,,,,,,,,,,,,,,,,,,,,,,,,,,,,,,,,,,,,
293614,2022-10-03_08h27.25.739,vts_reward_expectancy,2022.2.4,Win32,60.91617934,Chrome,1664,1110,,,,,,,,,,,,,,,,,,,,,,,132,H,hexagon,1,1,d,0,1,0,1,0,1,1.5619,,,,,,,,,,,,,,,,,,,,,,,,,,,,,,,,,,,,,,,,,
293614,2022-10-03_08h27.25.739,vts_reward_expectancy,2022.2.4,Win32,60.91617934,Chrome,1664,1110,,,,,,,,,,,,,,,,,,,,,,,146,B,circle,1,0,d,0,2,0,2,0,1,1.6284,,,,,,,,,,,,,,,,,,,,,,,,,,,,,,,,,,,,,,,,,
293614,2022-10-03_08h27.25.739,vts_reward_expectancy,2022.2.4,Win32,60.91617934,Chrome,1664,1110,,,,,,,,,,,,,,,,,,,,,,,160,Y,triangle,1,0,f,0,3,0,3,0,1,1.0962,,,,,,,,,,,,,,,,,,,,,,,,,,,,,,,,,,,,,,,,,
293614,2022-10-03_08h27.25.739,vts_reward_expectancy,2022.2.4,Win32,60.91617934,Chrome,1664,1110,,,,,,,,,,,,,,,,,,,,,,,181,D,star,1,0,f,0,4,0,4,0,1,1.2282,,,,,,,,,,,,,,,,,,,,,,,,,,,,,,,,,,,,,,,,,
293614,2022-10-03_08h27.25.739,vts_reward_expectancy,2022.2.4,Win32,60.91617934,Chrome,1664,1110,,,,,,,,,,,,,,,,,,,,,,,139,U,hexagon,1,0,d,0,5,0,5,0,1,0.9314,,,,,,,,,,,,,,,,,,,,,,,,,,,,,,,,,,,,,,,,,
293614,2022-10-03_08h27.25.739,vts_reward_expectancy,2022.2.4,Win32,60.91617934,Chrome,1664,1110,,,,,,,,,,,,,,,,,,,,,,,167,S,circle,1,0,f,0,6,0,6,0,1,0.7634,,,,,,,,,,,,,,,,,,,,,,,,,,,,,,,,,,,,,,,,,
293614,2022-10-03_08h27.25.739,vts_reward_expectancy,2022.2.4,Win32,60.91617934,Chrome,1664,1110,,,,,,,,,,,,,,,,,,,,,,,174,F,triangle,1,0,f,0,7,0,7,0,1,0.8299,,,,,,,,,,,,,,,,,,,,,,,,,,,,,,,,,,,,,,,,,
293614,2022-10-03_08h27.25.739,vts_reward_expectancy,2022.2.4,Win32,60.91617934,Chrome,1664,1110,,,,,,,,,,,,,,,,,,,,,,,125,W,triangle,1,0,d,0,8,0,8,0,1,1.0326,,,,,,,,,,,,,,,,,,,,,,,,,,,,,,,,,,,,,,,,,
293614,2022-10-03_08h27.25.739,vts_reward_expectancy,2022.2.4,Win32,60.91617934,Chrome,1664,1110,,,,,,,,,,,,,,,,,,,,,,,132,H,circle,1,0,d,0,9,0,9,0,1,1.283,,,,,,,,,,,,,,,,,,,,,,,,,,,,,,,,,,,,,,,,,
293614,2022-10-03_08h27.25.739,vts_reward_expectancy,2022.2.4,Win32,60.91617934,Chrome,1664,1110,,,,,,,,,,,,,,,,,,,,,,,174,D,triangle,1,0,,1,,,,,,,j,0.6512,0,0,0,0,1,,,,,,,,,,,,,,,,,,,,,,,,,,,,,,,,,,
293614,2022-10-03_08h27.25.739,vts_reward_expectancy,2022.2.4,Win32,60.91617934,Chrome,1664,1110,,,,,,,,,,,,,,,,,,,,,,,132,B,circle,1,0,,1,,,,,,,j,0.6315,1,0,1,0,1,,,,,,,,,,,,,,,,,,,,,,,,,,,,,,,,,,
293614,2022-10-03_08h27.25.739,vts_reward_expectancy,2022.2.4,Win32,60.91617934,Chrome,1664,1110,,,,,,,,,,,,,,,,,,,,,,,160,U,hexagon,1,0,,1,,,,,,,k,0.7459,2,0,2,0,1,,,,,,,,,,,,,,,,,,,,,,,,,,,,,,,,,,
293614,2022-10-03_08h27.25.739,vts_reward_expectancy,2022.2.4,Win32,60.91617934,Chrome,1664,1110,,,,,,,,,,,,,,,,,,,,,,,181,S,star,0,0,,1,,,,,,,,,3,0,3,0,1,,,,,,,,,,,,,,,,,,,,,,,,,,,,,,,,,,
293614,2022-10-03_08h27.25.739,vts_reward_expectancy,2022.2.4,Win32,60.91617934,Chrome,1664,1110,,,,,,,,,,,,,,,,,,,,,,,125,F,triangle,1,1,,1,,,,,,,j,0.8982,4,0,4,0,1,,,,,,,,,,,,,,,,,,,,,,,,,,,,,,,,,,
293614,2022-10-03_08h27.25.739,vts_reward_expectancy,2022.2.4,Win32,60.91617934,Chrome,1664,1110,,,,,,,,,,,,,,,,,,,,,,,139,Y,circle,1,0,,1,,,,,,,k,0.7312,5,0,5,0,1,,,,,,,,,,,,,,,,,,,,,,,,,,,,,,,,,,
293614,2022-10-03_08h27.25.739,vts_reward_expectancy,2022.2.4,Win32,60.91617934,Chrome,1664,1110,,,,,,,,,,,,,,,,,,,,,,,167,H,hexagon,1,0,,1,,,,,,,j,0.6805,6,0,6,0,1,,,,,,,,,,,,,,,,,,,,,,,,,,,,,,,,,,
293614,2022-10-03_08h27.25.739,vts_reward_expectancy,2022.2.4,Win32,60.91617934,Chrome,1664,1110,,,,,,,,,,,,,,,,,,,,,,,146,W,star,1,0,,1,,,,,,,k,0.6462,7,0,7,0,1,,,,,,,,,,,,,,,,,,,,,,,,,,,,,,,,,,
293614,2022-10-03_08h27.25.739,vts_reward_expectancy,2022.2.4,Win32,60.91617934,Chrome,1664,1110,,,,,,,,,,,,,,,,,,,,,,,174,D,star,1,0,,1,,,,,,,j,0.6314,8,0,8,0,1,,,,,,,,,,,,,,,,,,,,,,,,,,,,,,,,,,
293614,2022-10-03_08h27.25.739,vts_reward_expectancy,2022.2.4,Win32,60.91617934,Chrome,1664,1110,,,,,,,,,,,,,,,,,,,,,,,132,B,hexagon,1,0,,1,,,,,,,j,2.0643,9,0,9,0,1,,,,,,,,,,,,,,,,,,,,,,,,,,,,,,,,,,
293614,2022-10-03_08h27.25.739,vts_reward_expectancy,2022.2.4,Win32,60.91617934,Chrome,1664,1110,,,,,0,531,,,,,,,,,,,,,,,,,174,D,circle,1,0,,2,,,,,,,,,,,,,,-1,number,NA,f,1.5592,vtsPrac,0,0,0,0,1,,,,,,,,,,,,,,,,,,,,,,,
293614,2022-10-03_08h27.25.739,vts_reward_expectancy,2022.2.4,Win32,60.91617934,Chrome,1664,1110,,,,,0,531,,,,,,,,,,,,,,,,,167,S,triangle,1,0,,2,,,,,,,,,,,,,,repeat,number,numRpt,f,0.6306,vtsPrac,1,0,1,0,1,,,,,,,,,,,,,,,,,,,,,,,
293614,2022-10-03_08h27.25.739,vts_reward_expectancy,2022.2.4,Win32,60.91617934,Chrome,1664,1110,,,,,0,531,,,,,,,,,,,,,,,,,125,W,circle,1,0,,2,,,,,,,,,,,,,,repeat,number,numRpt,d,1.0803,vtsPrac,2,0,2,0,1,,,,,,,,,,,,,,,,,,,,,,,
293614,2022-10-03_08h27.25.739,vts_reward_expectancy,2022.2.4,Win32,60.91617934,Chrome,1664,1110,,,,,0,531,,,,,,,,,,,,,,,,,160,F,triangle,1,0,,2,,,,,,,,,,,,,,switch,letter,lettSwt,j,2.3489,vtsPrac,3,0,3,0,1,,,,,,,,,,,,,,,,,,,,,,,
293614,2022-10-03_08h27.25.739,vts_reward_expectancy,2022.2.4,Win32,60.91617934,Chrome,1664,1110,,,,,0,531,,,,,,,,,,,,,,,,,174,D,triangle,1,0,,2,,,,,,,,,,,,,,repeat,letter,lettRpt,j,0.5814,vtsPrac,4,0,4,0,1,,,,,,,,,,,,,,,,,,,,,,,
293614,2022-10-03_08h27.25.739,vts_reward_expectancy,2022.2.4,Win32,60.91617934,Chrome,1664,1110,,,,,0,531,,,,,,,,,,,,,,,,,167,S,circle,1,0,,2,,,,,,,,,,,,,,switch,number,numSwt,f,2.4489,vtsPrac,5,0,5,0,1,,,,,,,,,,,,,,,,,,,,,,,
293614,2022-10-03_08h27.25.739,vts_reward_expectancy,2022.2.4,Win32,60.91617934,Chrome,1664,1110,,,,,0,531,,,,,,,,,,,,,,,,,125,W,star,1,0,,2,,,,,,,,,,,,,,repeat,number,numRpt,d,0.8311,vtsPrac,6,0,6,0,1,,,,,,,,,,,,,,,,,,,,,,,
293614,2022-10-03_08h27.25.739,vts_reward_expectancy,2022.2.4,Win32,60.91617934,Chrome,1664,1110,,,,,0,531,,,,,,,,,,,,,,,,,160,F,triangle,1,0,,2,,,,,,,,,,,,,,switch,letter,lettSwt,j,1.4329,vtsPrac,7,0,7,0,1,,,,,,,,,,,,,,,,,,,,,,,
293614,2022-10-03_08h27.25.739,vts_reward_expectancy,2022.2.4,Win32,60.91617934,Chrome,1664,1110,,,,,0,531,,,,,,,,,,,,,,,,,132,Y,hexagon,1,0,,2,,,,,,,,,,,,,,repeat,letter,lettRpt,k,1.1636,vtsPrac,8,0,8,0,1,,,,,,,,,,,,,,,,,,,,,,,
293614,2022-10-03_08h27.25.739,vts_reward_expectancy,2022.2.4,Win32,60.91617934,Chrome,1664,1110,,,,,0,531,,,,,,,,,,,,,,,,,160,F,star,1,0,,2,,,,,,,,,,,,,,repeat,letter,lettRpt,j,0.6309,vtsPrac,9,0,9,0,1,,,,,,,,,,,,,,,,,,,,,,,
293614,2022-10-03_08h27.25.739,vts_reward_expectancy,2022.2.4,Win32,60.91617934,Chrome,1664,1110,,,,,0,531,,,,,,,,,,,,,,,,,125,W,circle,1,0,,2,,,,,,,,,,,,,,switch,number,numSwt,d,1.3143,vtsPrac,10,0,10,0,1,,,,,,,,,,,,,,,,,,,,,,,
293614,2022-10-03_08h27.25.739,vts_reward_expectancy,2022.2.4,Win32,60.91617934,Chrome,1664,1110,,,,,0,531,,,,,,,,,,,,,,,,,167,D,star,1,0,,2,,,,,,,,,,,,,,repeat,number,numRpt,f,1.1212,vtsPrac,11,0,11,0,1,,,,,,,,,,,,,,,,,,,,,,,
293614,2022-10-03_08h27.25.739,vts_reward_expectancy,2022.2.4,Win32,60.91617934,Chrome,1664,1110,,,,,0,531,,,,,,,,,,,,,,,,,125,D,hexagon,1,0,,2,,,,,,,,,,,,,,switch,letter,lettSwt,j,1.0689,vtsPrac,12,0,12,0,1,,,,,,,,,,,,,,,,,,,,,,,
293614,2022-10-03_08h27.25.739,vts_reward_expectancy,2022.2.4,Win32,60.91617934,Chrome,1664,1110,,,,,0,531,,,,,,,,,,,,,,,,,167,B,triangle,1,0,,2,,,,,,,,,,,,,,switch,number,numSwt,f,0.7202,vtsPrac,13,0,13,0,1,,,,,,,,,,,,,,,,,,,,,,,
293614,2022-10-03_08h27.25.739,vts_reward_expectancy,2022.2.4,Win32,60.91617934,Chrome,1664,1110,,,,,0,531,,,,,,,,,,,,,,,,,160,F,star,1,0,,2,,,,,,,,,,,,,,switch,letter,lettSwt,j,1.9489,vtsPrac,14,0,14,0,1,,,,,,,,,,,,,,,,,,,,,,,
293614,2022-10-03_08h27.25.739,vts_reward_expectancy,2022.2.4,Win32,60.91617934,Chrome,1664,1110,,,,,0,531,,,,,,,,,,,,,,,,,132,Y,hexagon,1,0,,2,,,,,,,,,,,,,,repeat,letter,lettRpt,k,1.0482,vtsPrac,15,0,15,0,1,,,,,,,,,,,,,,,,,,,,,,,
293614,2022-10-03_08h27.25.739,vts_reward_expectancy,2022.2.4,Win32,60.91617934,Chrome,1664,1110,,,,,,,,,,,,,,,,,,,,,,,,,,,,,,,,,,,,,,,,,,,,,,,,,,,,,,,,,,,,,,,,,,,,,,,,,,,,
293614,2022-10-03_08h27.25.739,vts_reward_expectancy,2022.2.4,Win32,60.91617934,Chrome,1664,1110,,,,,,,,,,,,,,,,,,,,,,,,,,,,,,,,,,,,,,,,,,,,,,,,,,,,,,,,,,,,,,,,,,,,,,,,,,,,
293614,2022-10-03_08h27.25.739,vts_reward_expectancy,2022.2.4,Win32,60.91617934,Chrome,1664,1110,,,,,0,531,,,,,,,,,,,,,,,,,167,H,circle,1,0,,,,,,,,,,,,,,,,switch,number,numSwt,f,1.41,noRew,,,,,,0,0,0,0,0,1,,,,,,,,,,,,,,,,,
293614,2022-10-03_08h27.25.739,vts_reward_expectancy,2022.2.4,Win32,60.91617934,Chrome,1664,1110,,,,,0,531,,,,,,,,,,,,,,,,,139,F,triangle,1,0,,,,,,,,,,,,,,,,repeat,number,numRpt,d,0.9183,noRew,,,,,,0,1,0,1,0,1,,,,,,,,,,,,,,,,,
293614,2022-10-03_08h27.25.739,vts_reward_expectancy,2022.2.4,Win32,60.91617934,Chrome,1664,1110,,,,,0,531,,,,,,,,,,,,,,,,,174,B,circle,0,0,,,,,,,,,,,,,,,,repeat,number,NA,d,1.7175,noRew,,,,,,0,2,0,2,0,1,,,,,,,,,,,,,,,,,
293614,2022-10-03_08h27.25.739,vts_reward_expectancy,2022.2.4,Win32,60.91617934,Chrome,1664,1110,,,,,0,531,,,,,,,,,,,,,,,,,160,S,triangle,1,1,,,,,,,,,,,,,,,,switch,letter,lettSwt,k,1.485,noRew,,,,,,0,3,0,3,0,1,,,,,,,,,,,,,,,,,
293614,2022-10-03_08h27.25.739,vts_reward_expectancy,2022.2.4,Win32,60.91617934,Chrome,1664,1110,,,,,0,531,,,,,,,,,,,,,,,,,167,H,star,-1,0,,,,,,,,,,,,,,,,switch,no_choice,NA,,,noRew,,,,,,0,4,0,4,0,1,,,,,,,,,,,,,,,,,
293614,2022-10-03_08h27.25.739,vts_reward_expectancy,2022.2.4,Win32,60.91617934,Chrome,1664,1110,,,,,0,531,,,,,,,,,,,,,,,,,139,F,hexagon,1,0,,,,,,,,,,,,,,,,switch,letter,lettSwt,j,1.4685,noRew,,,,,,0,5,0,5,0,1,,,,,,,,,,,,,,,,,
293614,2022-10-03_08h27.25.739,vts_reward_expectancy,2022.2.4,Win32,60.91617934,Chrome,1664,1110,,,,,0,531,,,,,,,,,,,,,,,,,174,B,hexagon,1,0,,,,,,,,,,,,,,,,switch,number,numSwt,f,0.7843,noRew,,,,,,0,6,0,6,0,1,,,,,,,,,,,,,,,,,
293614,2022-10-03_08h27.25.739,vts_reward_expectancy,2022.2.4,Win32,60.91617934,Chrome,1664,1110,,,,,0,531,,,,,,,,,,,,,,,,,160,S,star,1,0,,,,,,,,,,,,,,,,repeat,number,numRpt,f,0.8851,noRew,,,,,,0,7,0,7,0,1,,,,,,,,,,,,,,,,,
293614,2022-10-03_08h27.25.739,vts_reward_expectancy,2022.2.4,Win32,60.91617934,Chrome,1664,1110,,,,,0,531,,,,,,,,,,,,,,,,,174,F,triangle,1,0,,,,,,,,,,,,,,,,switch,letter,lettSwt,j,1.069,noRew,,,,,,0,8,0,8,0,1,,,,,,,,,,,,,,,,,
293614,2022-10-03_08h27.25.739,vts_reward_expectancy,2022.2.4,Win32,60.91617934,Chrome,1664,1110,,,,,0,531,,,,,,,,,,,,,,,,,146,B,hexagon,0,0,,,,,,,,,,,,,,,,repeat,letter,NA,k,0.818,noRew,,,,,,0,9,0,9,0,1,,,,,,,,,,,,,,,,,
293614,2022-10-03_08h27.25.739,vts_reward_expectancy,2022.2.4,Win32,60.91617934,Chrome,1664,1110,,,,,0,531,,,,,,,,,,,,,,,,,181,U,hexagon,1,1,,,,,,,,,,,,,,,,repeat,letter,lettRpt,k,0.9701,noRew,,,,,,0,10,0,10,0,1,,,,,,,,,,,,,,,,,
293614,2022-10-03_08h27.25.739,vts_reward_expectancy,2022.2.4,Win32,60.91617934,Chrome,1664,1110,,,,,0,531,,,,,,,,,,,,,,,,,132,Y,triangle,1,0,,,,,,,,,,,,,,,,switch,number,numSwt,d,1.3359,noRew,,,,,,0,11,0,11,0,1,,,,,,,,,,,,,,,,,
293614,2022-10-03_08h27.25.739,vts_reward_expectancy,2022.2.4,Win32,60.91617934,Chrome,1664,1110,,,,,0,531,,,,,,,,,,,,,,,,,181,B,triangle,1,0,,,,,,,,,,,,,,,,repeat,number,numRpt,f,0.8506,noRew,,,,,,0,12,0,12,0,1,,,,,,,,,,,,,,,,,
293614,2022-10-03_08h27.25.739,vts_reward_expectancy,2022.2.4,Win32,60.91617934,Chrome,1664,1110,,,,,0,531,,,,,,,,,,,,,,,,,132,S,hexagon,1,0,,,,,,,,,,,,,,,,repeat,number,numRpt,d,0.5937,noRew,,,,,,0,13,0,13,0,1,,,,,,,,,,,,,,,,,
293614,2022-10-03_08h27.25.739,vts_reward_expectancy,2022.2.4,Win32,60.91617934,Chrome,1664,1110,,,,,0,531,,,,,,,,,,,,,,,,,160,H,triangle,1,0,,,,,,,,,,,,,,,,switch,letter,lettSwt,j,1.1815,noRew,,,,,,0,14,0,14,0,1,,,,,,,,,,,,,,,,,
293614,2022-10-03_08h27.25.739,vts_reward_expectancy,2022.2.4,Win32,60.91617934,Chrome,1664,1110,,,,,0,531,,,,,,,,,,,,,,,,,167,D,circle,1,0,,,,,,,,,,,,,,,,repeat,letter,lettRpt,j,0.613,noRew,,,,,,0,15,0,15,0,1,,,,,,,,,,,,,,,,,
293614,2022-10-03_08h27.25.739,vts_reward_expectancy,2022.2.4,Win32,60.91617934,Chrome,1664,1110,,,,,0,531,,,,,,,,,,,,,,,,,160,H,circle,1,0,,,,,,,,,,,,,,,,switch,number,numSwt,f,0.5294,noRew,,,,,,0,16,0,16,0,1,,,,,,,,,,,,,,,,,
293614,2022-10-03_08h27.25.739,vts_reward_expectancy,2022.2.4,Win32,60.91617934,Chrome,1664,1110,,,,,0,531,,,,,,,,,,,,,,,,,139,S,hexagon,1,0,,,,,,,,,,,,,,,,switch,letter,lettSwt,k,1.0482,noRew,,,,,,0,17,0,17,0,1,,,,,,,,,,,,,,,,,
293614,2022-10-03_08h27.25.739,vts_reward_expectancy,2022.2.4,Win32,60.91617934,Chrome,1664,1110,,,,,0,531,,,,,,,,,,,,,,,,,132,D,hexagon,1,0,,,,,,,,,,,,,,,,switch,number,numSwt,d,1.2482,noRew,,,,,,0,18,0,18,0,1,,,,,,,,,,,,,,,,,
293614,2022-10-03_08h27.25.739,vts_reward_expectancy,2022.2.4,Win32,60.91617934,Chrome,1664,1110,,,,,0,531,,,,,,,,,,,,,,,,,174,W,star,1,0,,,,,,,,,,,,,,,,repeat,number,numRpt,f,0.5484,noRew,,,,,,0,19,0,19,0,1,,,,,,,,,,,,,,,,,
293614,2022-10-03_08h27.25.739,vts_reward_expectancy,2022.2.4,Win32,60.91617934,Chrome,1664,1110,,,,,0,531,,,,,,,,,,,,,,,,,125,S,triangle,1,0,,,,,,,,,,,,,,,,repeat,number,numRpt,d,0.7789,noRew,,,,,,0,20,0,20,0,1,,,,,,,,,,,,,,,,,
293614,2022-10-03_08h27.25.739,vts_reward_expectancy,2022.2.4,Win32,60.91617934,Chrome,1664,1110,,,,,0,531,,,,,,,,,,,,,,,,,160,B,hexagon,1,0,,,,,,,,,,,,,,,,switch,letter,lettSwt,j,0.7138,noRew,,,,,,0,21,0,21,0,1,,,,,,,,,,,,,,,,,
293614,2022-10-03_08h27.25.739,vts_reward_expectancy,2022.2.4,Win32,60.91617934,Chrome,1664,1110,,,,,0,531,,,,,,,,,,,,,,,,,146,U,circle,1,0,,,,,,,,,,,,,,,,repeat,letter,lettRpt,k,0.7335,noRew,,,,,,0,22,0,22,0,1,,,,,,,,,,,,,,,,,
293614,2022-10-03_08h27.25.739,vts_reward_expectancy,2022.2.4,Win32,60.91617934,Chrome,1664,1110,,,,,0,531,,,,,,,,,,,,,,,,,139,D,star,1,0,,,,,,,,,,,,,,,,repeat,letter,lettRpt,j,0.7853,noRew,,,,,,0,23,0,23,0,1,,,,,,,,,,,,,,,,,
293614,2022-10-03_08h27.25.739,vts_reward_expectancy,2022.2.4,Win32,60.91617934,Chrome,1664,1110,,,,,0,531,,,,,,,,,,,,,,,,,125,D,star,1,0,,,,,,,,,,,,,,,,repeat,letter,lettRpt,j,0.854,noRew,,,,,,0,24,0,24,0,1,,,,,,,,,,,,,,,,,
293614,2022-10-03_08h27.25.739,vts_reward_expectancy,2022.2.4,Win32,60.91617934,Chrome,1664,1110,,,,,0,531,,,,,,,,,,,,,,,,,146,W,triangle,1,0,,,,,,,,,,,,,,,,switch,number,numSwt,d,1.3492,noRew,,,,,,0,25,0,25,0,1,,,,,,,,,,,,,,,,,
293614,2022-10-03_08h27.25.739,vts_reward_expectancy,2022.2.4,Win32,60.91617934,Chrome,1664,1110,,,,,0,531,,,,,,,,,,,,,,,,,132,B,hexagon,1,0,,,,,,,,,,,,,,,,switch,letter,lettSwt,j,1.1464,noRew,,,,,,0,26,0,26,0,1,,,,,,,,,,,,,,,,,
293614,2022-10-03_08h27.25.739,vts_reward_expectancy,2022.2.4,Win32,60.91617934,Chrome,1664,1110,,,,,0,531,,,,,,,,,,,,,,,,,160,F,star,1,0,,,,,,,,,,,,,,,,switch,number,numSwt,f,2.1804,noRew,,,,,,0,27,0,27,0,1,,,,,,,,,,,,,,,,,
293614,2022-10-03_08h27.25.739,vts_reward_expectancy,2022.2.4,Win32,60.91617934,Chrome,1664,1110,,,,,0,531,,,,,,,,,,,,,,,,,167,U,hexagon,1,0,,,,,,,,,,,,,,,,repeat,number,numRpt,f,1.498,noRew,,,,,,0,28,0,28,0,1,,,,,,,,,,,,,,,,,
293614,2022-10-03_08h27.25.739,vts_reward_expectancy,2022.2.4,Win32,60.91617934,Chrome,1664,1110,,,,,0,531,,,,,,,,,,,,,,,,,139,H,circle,1,0,,,,,,,,,,,,,,,,repeat,number,numRpt,d,0.6975,noRew,,,,,,0,29,0,29,0,1,,,,,,,,,,,,,,,,,
293614,2022-10-03_08h27.25.739,vts_reward_expectancy,2022.2.4,Win32,60.91617934,Chrome,1664,1110,,,,,0,531,,,,,,,,,,,,,,,,,125,D,triangle,1,0,,,,,,,,,,,,,,,,switch,letter,lettSwt,j,1.7642,noRew,,,,,,0,30,0,30,0,1,,,,,,,,,,,,,,,,,
293614,2022-10-03_08h27.25.739,vts_reward_expectancy,2022.2.4,Win32,60.91617934,Chrome,1664,1110,,,,,0,531,,,,,,,,,,,,,,,,,132,S,star,1,0,,,,,,,,,,,,,,,,repeat,letter,lettRpt,k,0.7655,noRew,,,,,,0,31,0,31,0,1,,,,,,,,,,,,,,,,,
293614,2022-10-03_08h27.25.739,vts_reward_expectancy,2022.2.4,Win32,60.91617934,Chrome,1664,1110,,,,,0,531,,,,,,,,,,,,,,,,,132,S,star,1,0,,,,,,,,,,,,,,,,repeat,letter,lettRpt,k,1.2034,noRew,,,,,,0,32,0,32,0,1,,,,,,,,,,,,,,,,,
293614,2022-10-03_08h27.25.739,vts_reward_expectancy,2022.2.4,Win32,60.91617934,Chrome,1664,1110,,,,,0,531,,,,,,,,,,,,,,,,,146,H,circle,1,0,,,,,,,,,,,,,,,,repeat,letter,lettRpt,j,0.9323,noRew,,,,,,0,33,0,33,0,1,,,,,,,,,,,,,,,,,
293614,2022-10-03_08h27.25.739,vts_reward_expectancy,2022.2.4,Win32,60.91617934,Chrome,1664,1110,,,,,0,531,,,,,,,,,,,,,,,,,167,B,hexagon,1,0,,,,,,,,,,,,,,,,repeat,letter,lettRpt,j,2.1813,noRew,,,,,,0,34,0,34,0,1,,,,,,,,,,,,,,,,,
293614,2022-10-03_08h27.25.739,vts_reward_expectancy,2022.2.4,Win32,60.91617934,Chrome,1664,1110,,,,,0,531,,,,,,,,,,,,,,,,,125,D,triangle,1,0,,,,,,,,,,,,,,,,switch,number,numSwt,d,0.554,noRew,,,,,,0,35,0,35,0,1,,,,,,,,,,,,,,,,,
293614,2022-10-03_08h27.25.739,vts_reward_expectancy,2022.2.4,Win32,60.91617934,Chrome,1664,1110,,,,,0,531,,,,,,,,,,,,,,,,,146,D,star,1,0,,,,,,,,,,,,,,,,repeat,number,numRpt,d,0.9725,noRew,,,,,,0,36,0,36,0,1,,,,,,,,,,,,,,,,,
293614,2022-10-03_08h27.25.739,vts_reward_expectancy,2022.2.4,Win32,60.91617934,Chrome,1664,1110,,,,,0,531,,,,,,,,,,,,,,,,,160,U,circle,1,0,,,,,,,,,,,,,,,,switch,letter,lettSwt,k,1.201,noRew,,,,,,0,37,0,37,0,1,,,,,,,,,,,,,,,,,
293614,2022-10-03_08h27.25.739,vts_reward_expectancy,2022.2.4,Win32,60.91617934,Chrome,1664,1110,,,,,0,531,,,,,,,,,,,,,,,,,167,B,circle,1,0,,,,,,,,,,,,,,,,switch,number,numSwt,f,1.1813,noRew,,,,,,0,38,0,38,0,1,,,,,,,,,,,,,,,,,
293614,2022-10-03_08h27.25.739,vts_reward_expectancy,2022.2.4,Win32,60.91617934,Chrome,1664,1110,,,,,0,531,,,,,,,,,,,,,,,,,132,S,star,1,0,,,,,,,,,,,,,,,,repeat,number,numRpt,d,1.4153,noRew,,,,,,0,39,0,39,0,1,,,,,,,,,,,,,,,,,
293614,2022-10-03_08h27.25.739,vts_reward_expectancy,2022.2.4,Win32,60.91617934,Chrome,1664,1110,,,,,0,531,,,,,,,,,,,,,,,,,146,B,circle,1,0,,,,,,,,,,,,,,,,repeat,number,numRpt,d,0.6472,noRew,,,,,,0,40,0,40,0,1,,,,,,,,,,,,,,,,,
293614,2022-10-03_08h27.25.739,vts_reward_expectancy,2022.2.4,Win32,60.91617934,Chrome,1664,1110,,,,,0,531,,,,,,,,,,,,,,,,,174,D,hexagon,1,0,,,,,,,,,,,,,,,,repeat,number,numRpt,f,2.2316,noRew,,,,,,0,41,0,41,0,1,,,,,,,,,,,,,,,,,
293614,2022-10-03_08h27.25.739,vts_reward_expectancy,2022.2.4,Win32,60.91617934,Chrome,1664,1110,,,,,0,531,,,,,,,,,,,,,,,,,132,S,circle,1,0,,,,,,,,,,,,,,,,repeat,number,numRpt,d,0.5162,noRew,,,,,,0,42,0,42,0,1,,,,,,,,,,,,,,,,,
293614,2022-10-03_08h27.25.739,vts_reward_expectancy,2022.2.4,Win32,60.91617934,Chrome,1664,1110,,,,,0,531,,,,,,,,,,,,,,,,,160,W,triangle,1,0,,,,,,,,,,,,,,,,switch,letter,lettSwt,k,1.0131,noRew,,,,,,0,43,0,43,0,1,,,,,,,,,,,,,,,,,
293614,2022-10-03_08h27.25.739,vts_reward_expectancy,2022.2.4,Win32,60.91617934,Chrome,1664,1110,,,,,0,531,,,,,,,,,,,,,,,,,167,U,triangle,1,0,,,,,,,,,,,,,,,,repeat,letter,lettRpt,k,1.5161,noRew,,,,,,0,44,0,44,0,1,,,,,,,,,,,,,,,,,
293614,2022-10-03_08h27.25.739,vts_reward_expectancy,2022.2.4,Win32,60.91617934,Chrome,1664,1110,,,,,0,531,,,,,,,,,,,,,,,,,174,B,circle,1,0,,,,,,,,,,,,,,,,switch,number,numSwt,f,1.1643,noRew,,,,,,0,45,0,45,0,1,,,,,,,,,,,,,,,,,
293614,2022-10-03_08h27.25.739,vts_reward_expectancy,2022.2.4,Win32,60.91617934,Chrome,1664,1110,,,,,0,531,,,,,,,,,,,,,,,,,139,D,hexagon,1,0,,,,,,,,,,,,,,,,repeat,number,numRpt,d,1.0813,noRew,,,,,,0,46,0,46,0,1,,,,,,,,,,,,,,,,,
293614,2022-10-03_08h27.25.739,vts_reward_expectancy,2022.2.4,Win32,60.91617934,Chrome,1664,1110,,,,,0,531,,,,,,,,,,,,,,,,,146,S,triangle,1,0,,,,,,,,,,,,,,,,switch,letter,lettSwt,k,2.7809,noRew,,,,,,0,47,0,47,0,1,,,,,,,,,,,,,,,,,
293614,2022-10-03_08h27.25.739,vts_reward_expectancy,2022.2.4,Win32,60.91617934,Chrome,1664,1110,,,,,0,531,,,,,,,,,,,,,,,,,125,Y,hexagon,1,0,,,,,,,,,,,,,,,,repeat,letter,lettRpt,k,0.9154,noRew,,,,,,0,48,0,48,0,1,,,,,,,,,,,,,,,,,
293614,2022-10-03_08h27.25.739,vts_reward_expectancy,2022.2.4,Win32,60.91617934,Chrome,1664,1110,,,,,0,531,,,,,,,,,,,,,,,,,160,W,star,1,0,,,,,,,,,,,,,,,,repeat,letter,lettRpt,k,1.1499,noRew,,,,,,0,49,0,49,0,1,,,,,,,,,,,,,,,,,
293614,2022-10-03_08h27.25.739,vts_reward_expectancy,2022.2.4,Win32,60.91617934,Chrome,1664,1110,,,,,0,531,,,,,,,,,,,,,,,,,139,U,hexagon,1,0,,,,,,,,,,,,,,,,repeat,letter,lettRpt,k,1.1145,noRew,,,,,,0,50,0,50,0,1,,,,,,,,,,,,,,,,,
293614,2022-10-03_08h27.25.739,vts_reward_expectancy,2022.2.4,Win32,60.91617934,Chrome,1664,1110,,,,,0,531,,,,,,,,,,,,,,,,,146,S,triangle,1,0,,,,,,,,,,,,,,,,repeat,letter,lettRpt,k,0.9979,noRew,,,,,,0,51,0,51,0,1,,,,,,,,,,,,,,,,,
293614,2022-10-03_08h27.25.739,vts_reward_expectancy,2022.2.4,Win32,60.91617934,Chrome,1664,1110,,,,,0,531,,,,,,,,,,,,,,,,,125,F,star,1,0,,,,,,,,,,,,,,,,switch,number,numSwt,d,1.2664,noRew,,,,,,0,52,0,52,0,1,,,,,,,,,,,,,,,,,
293614,2022-10-03_08h27.25.739,vts_reward_expectancy,2022.2.4,Win32,60.91617934,Chrome,1664,1110,,,,,0,531,,,,,,,,,,,,,,,,,146,W,triangle,1,0,,,,,,,,,,,,,,,,repeat,number,numRpt,d,2.5467,noRew,,,,,,0,53,0,53,0,1,,,,,,,,,,,,,,,,,
293614,2022-10-03_08h27.25.739,vts_reward_expectancy,2022.2.4,Win32,60.91617934,Chrome,1664,1110,,,,,0,531,,,,,,,,,,,,,,,,,167,B,circle,1,0,,,,,,,,,,,,,,,,switch,letter,lettSwt,j,2.2145,noRew,,,,,,0,54,0,54,0,1,,,,,,,,,,,,,,,,,
293614,2022-10-03_08h27.25.739,vts_reward_expectancy,2022.2.4,Win32,60.91617934,Chrome,1664,1110,,,,,0,531,,,,,,,,,,,,,,,,,160,H,triangle,1,0,,,,,,,,,,,,,,,,switch,number,numSwt,f,0.8636,noRew,,,,,,0,55,0,55,0,1,,,,,,,,,,,,,,,,,
293614,2022-10-03_08h27.25.739,vts_reward_expectancy,2022.2.4,Win32,60.91617934,Chrome,1664,1110,,,,,0,531,,,,,,,,,,,,,,,,,160,F,hexagon,1,0,,,,,,,,,,,,,,,,repeat,number,numRpt,f,0.9508,noRew,,,,,,0,56,0,56,0,1,,,,,,,,,,,,,,,,,
293614,2022-10-03_08h27.25.739,vts_reward_expectancy,2022.2.4,Win32,60.91617934,Chrome,1664,1110,,,,,0,531,,,,,,,,,,,,,,,,,167,H,triangle,1,0,,,,,,,,,,,,,,,,repeat,number,numRpt,f,0.5969,noRew,,,,,,0,57,0,57,0,1,,,,,,,,,,,,,,,,,
293614,2022-10-03_08h27.25.739,vts_reward_expectancy,2022.2.4,Win32,60.91617934,Chrome,1664,1110,,,,,0,531,,,,,,,,,,,,,,,,,139,U,hexagon,1,0,,,,,,,,,,,,,,,,repeat,number,numRpt,d,0.8325,noRew,,,,,,0,58,0,58,0,1,,,,,,,,,,,,,,,,,
293614,2022-10-03_08h27.25.739,vts_reward_expectancy,2022.2.4,Win32,60.91617934,Chrome,1664,1110,,,,,0,531,,,,,,,,,,,,,,,,,132,S,star,1,0,,,,,,,,,,,,,,,,switch,letter,lettSwt,k,1.164,noRew,,,,,,0,59,0,59,0,1,,,,,,,,,,,,,,,,,
293614,2022-10-03_08h27.25.739,vts_reward_expectancy,2022.2.4,Win32,60.91617934,Chrome,1664,1110,,,,,0,531,,,,,,,,,,,,,,,,,139,W,star,1,0,,,,,,,,,,,,,,,,switch,number,numSwt,d,1.3484,noRew,,,,,,0,60,0,60,0,1,,,,,,,,,,,,,,,,,
293614,2022-10-03_08h27.25.739,vts_reward_expectancy,2022.2.4,Win32,60.91617934,Chrome,1664,1110,,,,,0,531,,,,,,,,,,,,,,,,,160,S,hexagon,1,0,,,,,,,,,,,,,,,,switch,letter,lettSwt,k,1.681,noRew,,,,,,0,61,0,61,0,1,,,,,,,,,,,,,,,,,
293614,2022-10-03_08h27.25.739,vts_reward_expectancy,2022.2.4,Win32,60.91617934,Chrome,1664,1110,,,,,0,531,,,,,,,,,,,,,,,,,167,Y,hexagon,1,0,,,,,,,,,,,,,,,,repeat,letter,lettRpt,k,0.7314,noRew,,,,,,0,62,0,62,0,1,,,,,,,,,,,,,,,,,
293614,2022-10-03_08h27.25.739,vts_reward_expectancy,2022.2.4,Win32,60.91617934,Chrome,1664,1110,,,,,0,531,,,,,,,,,,,,,,,,,146,B,circle,1,0,,,,,,,,,,,,,,,,switch,number,numSwt,d,1.2348,noRew,,,,,,0,63,0,63,0,1,,,,,,,,,,,,,,,,,
293614,2022-10-03_08h27.25.739,vts_reward_expectancy,2022.2.4,Win32,60.91617934,Chrome,1664,1110,,,,,,,,,,,,,,,,,,,,,,,,,,,,,,,,,,,,,,,,,,,,,,,,,,,,,,,,,,,,,,,,,,,,,,,,,,,,
293614,2022-10-03_08h27.25.739,vts_reward_expectancy,2022.2.4,Win32,60.91617934,Chrome,1664,1110,,,,,0,531,,,,,,,,,,,,,,,,,146,S,hexagon,0,0,,,,,,,,,,,,,,,,repeat,number,NA,f,1.1814,noRew,,,,,,0,,,,,,space,6.0224,high,0,0,0,0,1,,,,,,,,,
293614,2022-10-03_08h27.25.739,vts_reward_expectancy,2022.2.4,Win32,60.91617934,Chrome,1664,1110,,,,,0,531,,,,,,,,,,,,,,,,,160,W,star,1,1,,,,,,,,,,,,,,,,repeat,number,numRpt,f,1.1321,Hi,,,,,,0,,,,,,,,high,1,0,1,0,1,,,,,,,,,
293614,2022-10-03_08h27.25.739,vts_reward_expectancy,2022.2.4,Win32,60.91617934,Chrome,1664,1110,,,,,1,532,,,,,,,,,,,,,,,,,167,U,hexagon,1,0,,,,,,,,,,,,,,,,repeat,number,numRpt,f,0.7127,Lo,,,,,,0,,,,,,,,high,2,0,2,0,1,,,,,,,,,
293614,2022-10-03_08h27.25.739,vts_reward_expectancy,2022.2.4,Win32,60.91617934,Chrome,1664,1110,,,,,0,532,,,,,,,,,,,,,,,,,139,F,star,1,0,,,,,,,,,,,,,,,,switch,letter,lettSwt,j,1.9621,Hi,,,,,,0,,,,,,,,high,3,0,3,0,1,,,,,,,,,
293614,2022-10-03_08h27.25.739,vts_reward_expectancy,2022.2.4,Win32,60.91617934,Chrome,1664,1110,,,,,10,542,,,,,,,,,,,,,,,,,181,H,hexagon,1,0,,,,,,,,,,,,,,,,switch,number,numSwt,f,0.8793,Lo,,,,,,0,,,,,,,,high,4,0,4,0,1,,,,,,,,,
293614,2022-10-03_08h27.25.739,vts_reward_expectancy,2022.2.4,Win32,60.91617934,Chrome,1664,1110,,,,,10,552,,,,,,,,,,,,,,,,,125,D,star,1,0,,,,,,,,,,,,,,,,repeat,number,numRpt,d,0.4301,Hi,,,,,,0,,,,,,,,high,5,0,5,0,1,,,,,,,,,
293614,2022-10-03_08h27.25.739,vts_reward_expectancy,2022.2.4,Win32,60.91617934,Chrome,1664,1110,,,,,1,553,,,,,,,,,,,,,,,,,174,B,star,1,0,,,,,,,,,,,,,,,,switch,letter,lettSwt,j,0.3946,Hi,,,,,,0,,,,,,,,high,6,0,6,0,1,,,,,,,,,
293614,2022-10-03_08h27.25.739,vts_reward_expectancy,2022.2.4,Win32,60.91617934,Chrome,1664,1110,,,,,10,563,,,,,,,,,,,,,,,,,132,Y,hexagon,1,0,,,,,,,,,,,,,,,,repeat,letter,lettRpt,k,1.562,Lo,,,,,,0,,,,,,,,high,7,0,7,0,1,,,,,,,,,
293614,2022-10-03_08h27.25.739,vts_reward_expectancy,2022.2.4,Win32,60.91617934,Chrome,1664,1110,,,,,1,564,,,,,,,,,,,,,,,,,146,S,hexagon,1,0,,,,,,,,,,,,,,,,repeat,letter,lettRpt,k,2.1968,Lo,,,,,,0,,,,,,,,high,8,0,8,0,1,,,,,,,,,
293614,2022-10-03_08h27.25.739,vts_reward_expectancy,2022.2.4,Win32,60.91617934,Chrome,1664,1110,,,,,0,564,,,,,,,,,,,,,,,,,160,W,star,0,0,,,,,,,,,,,,,,,,switch,number,NA,d,0.8457,Lo,,,,,,0,,,,,,,,high,9,0,9,0,1,,,,,,,,,
293614,2022-10-03_08h27.25.739,vts_reward_expectancy,2022.2.4,Win32,60.91617934,Chrome,1664,1110,,,,,0,564,,,,,,,,,,,,,,,,,167,U,star,0,1,,,,,,,,,,,,,,,,repeat,number,NA,d,0.645,Lo,,,,,,0,,,,,,,,high,10,0,10,0,1,,,,,,,,,
293614,2022-10-03_08h27.25.739,vts_reward_expectancy,2022.2.4,Win32,60.91617934,Chrome,1664,1110,,,,,1,565,,,,,,,,,,,,,,,,,139,F,hexagon,1,1,,,,,,,,,,,,,,,,repeat,number,numRpt,d,1.2452,Lo,,,,,,0,,,,,,,,high,11,0,11,0,1,,,,,,,,,
293614,2022-10-03_08h27.25.739,vts_reward_expectancy,2022.2.4,Win32,60.91617934,Chrome,1664,1110,,,,,1,566,,,,,,,,,,,,,,,,,181,H,hexagon,1,0,,,,,,,,,,,,,,,,switch,letter,lettSwt,j,1.115,Lo,,,,,,0,,,,,,,,high,12,0,12,0,1,,,,,,,,,
293614,2022-10-03_08h27.25.739,vts_reward_expectancy,2022.2.4,Win32,60.91617934,Chrome,1664,1110,,,,,0,566,,,,,,,,,,,,,,,,,125,D,star,1,0,,,,,,,,,,,,,,,,switch,number,numSwt,d,1.2163,Hi,,,,,,0,,,,,,,,high,13,0,13,0,1,,,,,,,,,
293614,2022-10-03_08h27.25.739,vts_reward_expectancy,2022.2.4,Win32,60.91617934,Chrome,1664,1110,,,,,10,576,,,,,,,,,,,,,,,,,174,B,hexagon,1,0,,,,,,,,,,,,,,,,repeat,number,numRpt,f,2.2305,Lo,,,,,,0,,,,,,,,high,14,0,14,0,1,,,,,,,,,
293614,2022-10-03_08h27.25.739,vts_reward_expectancy,2022.2.4,Win32,60.91617934,Chrome,1664,1110,,,,,10,586,,,,,,,,,,,,,,,,,132,Y,star,1,0,,,,,,,,,,,,,,,,repeat,number,numRpt,d,0.4989,Hi,,,,,,0,,,,,,,,high,15,0,15,0,1,,,,,,,,,
293614,2022-10-03_08h27.25.739,vts_reward_expectancy,2022.2.4,Win32,60.91617934,Chrome,1664,1110,,,,,10,596,,,,,,,,,,,,,,,,,125,H,star,1,0,,,,,,,,,,,,,,,,repeat,number,numRpt,d,0.4982,Hi,,,,,,0,,,,,,,,high,16,0,16,0,1,,,,,,,,,
293614,2022-10-03_08h27.25.739,vts_reward_expectancy,2022.2.4,Win32,60.91617934,Chrome,1664,1110,,,,,1,597,,,,,,,,,,,,,,,,,160,U,hexagon,1,0,,,,,,,,,,,,,,,,switch,letter,lettSwt,k,2.249,Lo,,,,,,0,,,,,,,,high,17,0,17,0,1,,,,,,,,,
293614,2022-10-03_08h27.25.739,vts_reward_expectancy,2022.2.4,Win32,60.91617934,Chrome,1664,1110,,,,,0,597,,,,,,,,,,,,,,,,,174,S,star,1,0,,,,,,,,,,,,,,,,repeat,letter,lettRpt,k,0.9163,Hi,,,,,,0,,,,,,,,high,18,0,18,0,1,,,,,,,,,
293614,2022-10-03_08h27.25.739,vts_reward_expectancy,2022.2.4,Win32,60.91617934,Chrome,1664,1110,,,,,1,598,,,,,,,,,,,,,,,,,132,Y,hexagon,1,0,,,,,,,,,,,,,,,,repeat,letter,lettRpt,k,1.0011,Lo,,,,,,0,,,,,,,,high,19,0,19,0,1,,,,,,,,,
293614,2022-10-03_08h27.25.739,vts_reward_expectancy,2022.2.4,Win32,60.91617934,Chrome,1664,1110,,,,,0,598,,,,,,,,,,,,,,,,,181,B,star,0,0,,,,,,,,,,,,,,,,switch,number,NA,d,0.4507,Lo,,,,,,0,,,,,,,,high,20,0,20,0,1,,,,,,,,,
293614,2022-10-03_08h27.25.739,vts_reward_expectancy,2022.2.4,Win32,60.91617934,Chrome,1664,1110,,,,,1,599,,,,,,,,,,,,,,,,,139,W,hexagon,1,1,,,,,,,,,,,,,,,,switch,letter,lettSwt,k,1.7837,Lo,,,,,,0,,,,,,,,high,21,0,21,0,1,,,,,,,,,
293614,2022-10-03_08h27.25.739,vts_reward_expectancy,2022.2.4,Win32,60.91617934,Chrome,1664,1110,,,,,10,609,,,,,,,,,,,,,,,,,146,F,star,1,0,,,,,,,,,,,,,,,,switch,number,numSwt,d,1.1493,Hi,,,,,,0,,,,,,,,high,22,0,22,0,1,,,,,,,,,
293614,2022-10-03_08h27.25.739,vts_reward_expectancy,2022.2.4,Win32,60.91617934,Chrome,1664,1110,,,,,1,610,,,,,,,,,,,,,,,,,167,D,hexagon,1,0,,,,,,,,,,,,,,,,repeat,number,numRpt,f,1.3,Lo,,,,,,0,,,,,,,,high,23,0,23,0,1,,,,,,,,,
293614,2022-10-03_08h27.25.739,vts_reward_expectancy,2022.2.4,Win32,60.91617934,Chrome,1664,1110,,,,,0,610,,,,,,,,,,,,,,,,,132,D,hexagon,0,0,,,,,,,,,,,,,,,,repeat,number,NA,f,2.7681,Lo,,,,,,0,,,,,,,,high,24,0,24,0,1,,,,,,,,,
293614,2022-10-03_08h27.25.739,vts_reward_expectancy,2022.2.4,Win32,60.91617934,Chrome,1664,1110,,,,,0,610,,,,,,,,,,,,,,,,,146,S,star,0,1,,,,,,,,,,,,,,,,repeat,number,NA,f,0.749,Lo,,,,,,0,,,,,,,,high,25,0,25,0,1,,,,,,,,,
293614,2022-10-03_08h27.25.739,vts_reward_expectancy,2022.2.4,Win32,60.91617934,Chrome,1664,1110,,,,,0,610,,,,,,,,,,,,,,,,,139,W,star,-1,1,,,,,,,,,,,,,,,,switch,no_choice,NA,,,Lo,,,,,,0,,,,,,,,high,26,0,26,0,1,,,,,,,,,
293614,2022-10-03_08h27.25.739,vts_reward_expectancy,2022.2.4,Win32,60.91617934,Chrome,1664,1110,,,,,1,611,,,,,,,,,,,,,,,,,181,U,hexagon,1,0,,,,,,,,,,,,,,,,switch,number,numSwt,f,1.3826,Lo,,,,,,0,,,,,,,,high,27,0,27,0,1,,,,,,,,,
293614,2022-10-03_08h27.25.739,vts_reward_expectancy,2022.2.4,Win32,60.91617934,Chrome,1664,1110,,,,,0,611,,,,,,,,,,,,,,,,,167,F,star,1,0,,,,,,,,,,,,,,,,repeat,number,numRpt,f,1.2343,Hi,,,,,,0,,,,,,,,high,28,0,28,0,1,,,,,,,,,
293614,2022-10-03_08h27.25.739,vts_reward_expectancy,2022.2.4,Win32,60.91617934,Chrome,1664,1110,,,,,0,611,,,,,,,,,,,,,,,,,125,B,hexagon,-1,0,,,,,,,,,,,,,,,,switch,no_choice,NA,,,Hi,,,,,,0,,,,,,,,high,29,0,29,0,1,,,,,,,,,
293614,2022-10-03_08h27.25.739,vts_reward_expectancy,2022.2.4,Win32,60.91617934,Chrome,1664,1110,,,,,10,621,,,,,,,,,,,,,,,,,160,Y,star,1,0,,,,,,,,,,,,,,,,switch,number,numSwt,f,0.917,Hi,,,,,,0,,,,,,,,high,30,0,30,0,1,,,,,,,,,
293614,2022-10-03_08h27.25.739,vts_reward_expectancy,2022.2.4,Win32,60.91617934,Chrome,1664,1110,,,,,1,622,,,,,,,,,,,,,,,,,174,H,hexagon,1,0,,,,,,,,,,,,,,,,switch,letter,lettSwt,j,2.299,Lo,,,,,,0,,,,,,,,high,31,0,31,0,1,,,,,,,,,
293614,2022-10-03_08h27.25.739,vts_reward_expectancy,2022.2.4,Win32,60.91617934,Chrome,1664,1110,,,,,10,632,,,,,,,,,,,,,,,,,125,S,triangle,1,0,,,,,,,,,,,,,,,,repeat,letter,lettRpt,k,0.7319,Hi,,,,,,1,,,,,,space,4.8545,low,0,0,0,0,1,,,,,,,,,
293614,2022-10-03_08h27.25.739,vts_reward_expectancy,2022.2.4,Win32,60.91617934,Chrome,1664,1110,,,,,1,633,,,,,,,,,,,,,,,,,174,Y,circle,1,0,,,,,,,,,,,,,,,,switch,number,numSwt,f,0.5325,Lo,,,,,,1,,,,,,,,low,1,0,1,0,1,,,,,,,,,
293614,2022-10-03_08h27.25.739,vts_reward_expectancy,2022.2.4,Win32,60.91617934,Chrome,1664,1110,,,,,0,633,,,,,,,,,,,,,,,,,160,B,triangle,1,0,,,,,,,,,,,,,,,,switch,letter,lettSwt,j,2.0842,Hi,,,,,,1,,,,,,,,low,2,0,2,0,1,,,,,,,,,
293614,2022-10-03_08h27.25.739,vts_reward_expectancy,2022.2.4,Win32,60.91617934,Chrome,1664,1110,,,,,0,633,,,,,,,,,,,,,,,,,139,W,circle,0,0,,,,,,,,,,,,,,,,switch,number,NA,f,0.9504,Hi,,,,,,1,,,,,,,,low,3,0,3,0,1,,,,,,,,,
293614,2022-10-03_08h27.25.739,vts_reward_expectancy,2022.2.4,Win32,60.91617934,Chrome,1664,1110,,,,,1,634,,,,,,,,,,,,,,,,,181,U,circle,1,1,,,,,,,,,,,,,,,,repeat,number,numRpt,f,0.6004,Lo,,,,,,1,,,,,,,,low,4,0,4,0,1,,,,,,,,,
293614,2022-10-03_08h27.25.739,vts_reward_expectancy,2022.2.4,Win32,60.91617934,Chrome,1664,1110,,,,,0,634,,,,,,,,,,,,,,,,,146,H,triangle,1,0,,,,,,,,,,,,,,,,repeat,number,numRpt,d,0.6492,Hi,,,,,,1,,,,,,,,low,5,0,5,0,1,,,,,,,,,
293614,2022-10-03_08h27.25.739,vts_reward_expectancy,2022.2.4,Win32,60.91617934,Chrome,1664,1110,,,,,0,634,,,,,,,,,,,,,,,,,167,F,triangle,1,0,,,,,,,,,,,,,,,,repeat,number,numRpt,f,1.0322,Hi,,,,,,1,,,,,,,,low,6,0,6,0,1,,,,,,,,,
293614,2022-10-03_08h27.25.739,vts_reward_expectancy,2022.2.4,Win32,60.91617934,Chrome,1664,1110,,,,,10,644,,,,,,,,,,,,,,,,,132,D,circle,1,0,,,,,,,,,,,,,,,,switch,letter,lettSwt,j,1.6664,Lo,,,,,,1,,,,,,,,low,7,0,7,0,1,,,,,,,,,
293614,2022-10-03_08h27.25.739,vts_reward_expectancy,2022.2.4,Win32,60.91617934,Chrome,1664,1110,,,,,10,654,,,,,,,,,,,,,,,,,125,S,circle,1,0,,,,,,,,,,,,,,,,switch,number,numSwt,d,0.9508,Lo,,,,,,1,,,,,,,,low,8,0,8,0,1,,,,,,,,,
293614,2022-10-03_08h27.25.739,vts_reward_expectancy,2022.2.4,Win32,60.91617934,Chrome,1664,1110,,,,,10,664,,,,,,,,,,,,,,,,,174,Y,triangle,1,0,,,,,,,,,,,,,,,,switch,letter,lettSwt,k,0.8337,Hi,,,,,,1,,,,,,,,low,9,0,9,0,1,,,,,,,,,
293614,2022-10-03_08h27.25.739,vts_reward_expectancy,2022.2.4,Win32,60.91617934,Chrome,1664,1110,,,,,1,665,,,,,,,,,,,,,,,,,160,B,circle,1,0,,,,,,,,,,,,,,,,repeat,letter,lettRpt,j,1.5854,Lo,,,,,,1,,,,,,,,low,10,0,10,0,1,,,,,,,,,
293614,2022-10-03_08h27.25.739,vts_reward_expectancy,2022.2.4,Win32,60.91617934,Chrome,1664,1110,,,,,10,675,,,,,,,,,,,,,,,,,139,W,triangle,1,0,,,,,,,,,,,,,,,,repeat,letter,lettRpt,k,0.7315,Hi,,,,,,1,,,,,,,,low,11,0,11,0,1,,,,,,,,,
293614,2022-10-03_08h27.25.739,vts_reward_expectancy,2022.2.4,Win32,60.91617934,Chrome,1664,1110,,,,,1,676,,,,,,,,,,,,,,,,,181,U,circle,1,0,,,,,,,,,,,,,,,,switch,number,numSwt,f,1.9669,Lo,,,,,,1,,,,,,,,low,12,0,12,0,1,,,,,,,,,
293614,2022-10-03_08h27.25.739,vts_reward_expectancy,2022.2.4,Win32,60.91617934,Chrome,1664,1110,,,,,1,677,,,,,,,,,,,,,,,,,146,H,triangle,1,0,,,,,,,,,,,,,,,,repeat,number,numRpt,d,0.4173,Hi,,,,,,1,,,,,,,,low,13,0,13,0,1,,,,,,,,,
293614,2022-10-03_08h27.25.739,vts_reward_expectancy,2022.2.4,Win32,60.91617934,Chrome,1664,1110,,,,,0,677,,,,,,,,,,,,,,,,,167,F,triangle,1,0,,,,,,,,,,,,,,,,repeat,number,numRpt,f,1.3154,Hi,,,,,,1,,,,,,,,low,14,0,14,0,1,,,,,,,,,
293614,2022-10-03_08h27.25.739,vts_reward_expectancy,2022.2.4,Win32,60.91617934,Chrome,1664,1110,,,,,1,678,,,,,,,,,,,,,,,,,132,D,circle,1,0,,,,,,,,,,,,,,,,repeat,number,numRpt,d,1.234,Lo,,,,,,1,,,,,,,,low,15,0,15,0,1,,,,,,,,,
293614,2022-10-03_08h27.25.739,vts_reward_expectancy,2022.2.4,Win32,60.91617934,Chrome,1664,1110,,,,,10,688,,,,,,,,,,,,,,,,,181,W,circle,1,0,,,,,,,,,,,,,,,,switch,letter,lettSwt,k,0.5504,Lo,,,,,,1,,,,,,,,low,16,0,16,0,1,,,,,,,,,
293614,2022-10-03_08h27.25.739,vts_reward_expectancy,2022.2.4,Win32,60.91617934,Chrome,1664,1110,,,,,10,698,,,,,,,,,,,,,,,,,167,Y,triangle,1,0,,,,,,,,,,,,,,,,switch,number,numSwt,f,0.5314,Hi,,,,,,1,,,,,,,,low,17,0,17,0,1,,,,,,,,,
293614,2022-10-03_08h27.25.739,vts_reward_expectancy,2022.2.4,Win32,60.91617934,Chrome,1664,1110,,,,,1,699,,,,,,,,,,,,,,,,,146,S,circle,1,0,,,,,,,,,,,,,,,,switch,letter,lettSwt,k,0.9647,Lo,,,,,,1,,,,,,,,low,18,0,18,0,1,,,,,,,,,
293614,2022-10-03_08h27.25.739,vts_reward_expectancy,2022.2.4,Win32,60.91617934,Chrome,1664,1110,,,,,10,709,,,,,,,,,,,,,,,,,139,H,triangle,1,0,,,,,,,,,,,,,,,,switch,number,numSwt,d,0.6187,Hi,,,,,,1,,,,,,,,low,19,0,19,0,1,,,,,,,,,
293614,2022-10-03_08h27.25.739,vts_reward_expectancy,2022.2.4,Win32,60.91617934,Chrome,1664,1110,,,,,10,719,,,,,,,,,,,,,,,,,160,D,triangle,1,0,,,,,,,,,,,,,,,,repeat,number,numRpt,f,0.5331,Hi,,,,,,1,,,,,,,,low,20,0,20,0,1,,,,,,,,,
293614,2022-10-03_08h27.25.739,vts_reward_expectancy,2022.2.4,Win32,60.91617934,Chrome,1664,1110,,,,,1,720,,,,,,,,,,,,,,,,,125,B,circle,1,0,,,,,,,,,,,,,,,,switch,letter,lettSwt,j,0.8007,Lo,,,,,,1,,,,,,,,low,21,0,21,0,1,,,,,,,,,
293614,2022-10-03_08h27.25.739,vts_reward_expectancy,2022.2.4,Win32,60.91617934,Chrome,1664,1110,,,,,10,730,,,,,,,,,,,,,,,,,174,F,circle,1,0,,,,,,,,,,,,,,,,switch,number,numSwt,f,0.8006,Lo,,,,,,1,,,,,,,,low,22,0,22,0,1,,,,,,,,,
293614,2022-10-03_08h27.25.739,vts_reward_expectancy,2022.2.4,Win32,60.91617934,Chrome,1664,1110,,,,,0,730,,,,,,,,,,,,,,,,,132,U,triangle,1,0,,,,,,,,,,,,,,,,repeat,number,numRpt,d,0.7331,Hi,,,,,,1,,,,,,,,low,23,0,23,0,1,,,,,,,,,
293614,2022-10-03_08h27.25.739,vts_reward_expectancy,2022.2.4,Win32,60.91617934,Chrome,1664,1110,,,,,1,731,,,,,,,,,,,,,,,,,160,U,triangle,1,0,,,,,,,,,,,,,,,,switch,letter,lettSwt,k,1.1686,Hi,,,,,,1,,,,,,,,low,24,0,24,0,1,,,,,,,,,
293614,2022-10-03_08h27.25.739,vts_reward_expectancy,2022.2.4,Win32,60.91617934,Chrome,1664,1110,,,,,10,741,,,,,,,,,,,,,,,,,181,B,circle,1,0,,,,,,,,,,,,,,,,switch,number,numSwt,f,0.5859,Lo,,,,,,1,,,,,,,,low,25,0,25,0,1,,,,,,,,,
293614,2022-10-03_08h27.25.739,vts_reward_expectancy,2022.2.4,Win32,60.91617934,Chrome,1664,1110,,,,,10,751,,,,,,,,,,,,,,,,,125,W,triangle,1,0,,,,,,,,,,,,,,,,repeat,number,numRpt,d,0.5001,Hi,,,,,,1,,,,,,,,low,26,0,26,0,1,,,,,,,,,
293614,2022-10-03_08h27.25.739,vts_reward_expectancy,2022.2.4,Win32,60.91617934,Chrome,1664,1110,,,,,10,761,,,,,,,,,,,,,,,,,167,S,circle,1,0,,,,,,,,,,,,,,,,repeat,number,numRpt,f,0.4837,Lo,,,,,,1,,,,,,,,low,27,0,27,0,1,,,,,,,,,
293614,2022-10-03_08h27.25.739,vts_reward_expectancy,2022.2.4,Win32,60.91617934,Chrome,1664,1110,,,,,10,771,,,,,,,,,,,,,,,,,174,D,triangle,1,0,,,,,,,,,,,,,,,,repeat,number,numRpt,f,0.5007,Hi,,,,,,1,,,,,,,,low,28,0,28,0,1,,,,,,,,,
293614,2022-10-03_08h27.25.739,vts_reward_expectancy,2022.2.4,Win32,60.91617934,Chrome,1664,1110,,,,,10,781,,,,,,,,,,,,,,,,,132,Y,circle,1,0,,,,,,,,,,,,,,,,repeat,number,numRpt,d,0.7009,Lo,,,,,,1,,,,,,,,low,29,0,29,0,1,,,,,,,,,
293614,2022-10-03_08h27.25.739,vts_reward_expectancy,2022.2.4,Win32,60.91617934,Chrome,1664,1110,,,,,0,781,,,,,,,,,,,,,,,,,139,H,triangle,0,0,,,,,,,,,,,,,,,,repeat,number,NA,f,0.7166,Lo,,,,,,1,,,,,,,,low,30,0,30,0,1,,,,,,,,,
293614,2022-10-03_08h27.25.739,vts_reward_expectancy,2022.2.4,Win32,60.91617934,Chrome,1664,1110,,,,,1,782,,,,,,,,,,,,,,,,,146,F,circle,1,1,,,,,,,,,,,,,,,,switch,letter,lettSwt,j,0.9851,Lo,,,,,,1,,,,,,,,low,31,0,31,0,1,,,,,,,,,
293614,2022-10-03_08h27.25.739,vts_reward_expectancy,2022.2.4,Win32,60.91617934,Chrome,1664,1110,,,,,0,782,,,,,,,,,,,,,,,,,146,B,star,1,0,,,,,,,,,,,,,,,,repeat,letter,lettRpt,j,1.0013,Hi,,,,,,2,,,,,,space,1.1245,high,0,0,0,0,1,,,,,,,,,
293614,2022-10-03_08h27.25.739,vts_reward_expectancy,2022.2.4,Win32,60.91617934,Chrome,1664,1110,,,,,10,792,,,,,,,,,,,,,,,,,132,U,hexagon,1,0,,,,,,,,,,,,,,,,switch,number,numSwt,d,0.7843,Lo,,,,,,2,,,,,,,,high,1,0,1,0,1,,,,,,,,,
293614,2022-10-03_08h27.25.739,vts_reward_expectancy,2022.2.4,Win32,60.91617934,Chrome,1664,1110,,,,,0,792,,,,,,,,,,,,,,,,,174,S,star,1,0,,,,,,,,,,,,,,,,repeat,number,numRpt,f,0.5664,Hi,,,,,,2,,,,,,,,high,2,0,2,0,1,,,,,,,,,
293614,2022-10-03_08h27.25.739,vts_reward_expectancy,2022.2.4,Win32,60.91617934,Chrome,1664,1110,,,,,0,792,,,,,,,,,,,,,,,,,160,F,hexagon,0,0,,,,,,,,,,,,,,,,repeat,number,NA,d,0.4671,Hi,,,,,,2,,,,,,,,high,3,0,3,0,1,,,,,,,,,
293614,2022-10-03_08h27.25.739,vts_reward_expectancy,2022.2.4,Win32,60.91617934,Chrome,1664,1110,,,,,10,802,,,,,,,,,,,,,,,,,139,Y,star,1,1,,,,,,,,,,,,,,,,repeat,number,numRpt,d,0.4337,Hi,,,,,,2,,,,,,,,high,4,0,4,0,1,,,,,,,,,
293614,2022-10-03_08h27.25.739,vts_reward_expectancy,2022.2.4,Win32,60.91617934,Chrome,1664,1110,,,,,1,803,,,,,,,,,,,,,,,,,167,H,hexagon,1,0,,,,,,,,,,,,,,,,repeat,number,numRpt,f,0.3856,Lo,,,,,,2,,,,,,,,high,5,0,5,0,1,,,,,,,,,
293614,2022-10-03_08h27.25.739,vts_reward_expectancy,2022.2.4,Win32,60.91617934,Chrome,1664,1110,,,,,10,813,,,,,,,,,,,,,,,,,181,D,star,1,0,,,,,,,,,,,,,,,,repeat,number,numRpt,f,0.4676,Hi,,,,,,2,,,,,,,,high,6,0,6,0,1,,,,,,,,,
293614,2022-10-03_08h27.25.739,vts_reward_expectancy,2022.2.4,Win32,60.91617934,Chrome,1664,1110,,,,,1,814,,,,,,,,,,,,,,,,,125,W,hexagon,1,0,,,,,,,,,,,,,,,,repeat,number,numRpt,d,0.9142,Lo,,,,,,2,,,,,,,,high,7,0,7,0,1,,,,,,,,,
293614,2022-10-03_08h27.25.739,vts_reward_expectancy,2022.2.4,Win32,60.91617934,Chrome,1664,1110,,,,,1,815,,,,,,,,,,,,,,,,,146,B,hexagon,1,0,,,,,,,,,,,,,,,,switch,letter,lettSwt,j,1.7173,Lo,,,,,,2,,,,,,,,high,8,0,8,0,1,,,,,,,,,
293614,2022-10-03_08h27.25.739,vts_reward_expectancy,2022.2.4,Win32,60.91617934,Chrome,1664,1110,,,,,10,825,,,,,,,,,,,,,,,,,132,U,star,1,0,,,,,,,,,,,,,,,,switch,number,numSwt,d,0.5824,Hi,,,,,,2,,,,,,,,high,9,0,9,0,1,,,,,,,,,
293614,2022-10-03_08h27.25.739,vts_reward_expectancy,2022.2.4,Win32,60.91617934,Chrome,1664,1110,,,,,0,825,,,,,,,,,,,,,,,,,174,S,star,1,0,,,,,,,,,,,,,,,,switch,letter,lettSwt,k,1.8829,Hi,,,,,,2,,,,,,,,high,10,0,10,0,1,,,,,,,,,
293614,2022-10-03_08h27.25.739,vts_reward_expectancy,2022.2.4,Win32,60.91617934,Chrome,1664,1110,,,,,1,826,,,,,,,,,,,,,,,,,160,F,hexagon,1,0,,,,,,,,,,,,,,,,switch,number,numSwt,f,1.4001,Lo,,,,,,2,,,,,,,,high,11,0,11,0,1,,,,,,,,,
293614,2022-10-03_08h27.25.739,vts_reward_expectancy,2022.2.4,Win32,60.91617934,Chrome,1664,1110,,,,,0,826,,,,,,,,,,,,,,,,,139,Y,hexagon,-1,0,,,,,,,,,,,,,,,,switch,no_choice,NA,,,Lo,,,,,,2,,,,,,,,high,12,0,12,0,1,,,,,,,,,
293614,2022-10-03_08h27.25.739,vts_reward_expectancy,2022.2.4,Win32,60.91617934,Chrome,1664,1110,,,,,10,836,,,,,,,,,,,,,,,,,167,H,star,1,0,,,,,,,,,,,,,,,,switch,number,numSwt,f,0.5511,Hi,,,,,,2,,,,,,,,high,13,0,13,0,1,,,,,,,,,
293614,2022-10-03_08h27.25.739,vts_reward_expectancy,2022.2.4,Win32,60.91617934,Chrome,1664,1110,,,,,1,837,,,,,,,,,,,,,,,,,181,D,hexagon,1,0,,,,,,,,,,,,,,,,repeat,number,numRpt,f,0.8164,Lo,,,,,,2,,,,,,,,high,14,0,14,0,1,,,,,,,,,
293614,2022-10-03_08h27.25.739,vts_reward_expectancy,2022.2.4,Win32,60.91617934,Chrome,1664,1110,,,,,0,837,,,,,,,,,,,,,,,,,125,W,star,1,0,,,,,,,,,,,,,,,,repeat,number,numRpt,d,0.5322,Hi,,,,,,2,,,,,,,,high,15,0,15,0,1,,,,,,,,,
293614,2022-10-03_08h27.25.739,vts_reward_expectancy,2022.2.4,Win32,60.91617934,Chrome,1664,1110,,,,,1,838,,,,,,,,,,,,,,,,,125,Y,hexagon,1,0,,,,,,,,,,,,,,,,switch,letter,lettSwt,k,1.7837,Lo,,,,,,2,,,,,,,,high,16,0,16,0,1,,,,,,,,,
293614,2022-10-03_08h27.25.739,vts_reward_expectancy,2022.2.4,Win32,60.91617934,Chrome,1664,1110,,,,,10,848,,,,,,,,,,,,,,,,,160,S,star,1,0,,,,,,,,,,,,,,,,repeat,letter,lettRpt,k,0.5841,Hi,,,,,,2,,,,,,,,high,17,0,17,0,1,,,,,,,,,
293614,2022-10-03_08h27.25.739,vts_reward_expectancy,2022.2.4,Win32,60.91617934,Chrome,1664,1110,,,,,0,848,,,,,,,,,,,,,,,,,146,W,star,1,0,,,,,,,,,,,,,,,,switch,number,numSwt,d,0.617,Hi,,,,,,2,,,,,,,,high,18,0,18,0,1,,,,,,,,,
293614,2022-10-03_08h27.25.739,vts_reward_expectancy,2022.2.4,Win32,60.91617934,Chrome,1664,1110,,,,,0,848,,,,,,,,,,,,,,,,,139,B,hexagon,0,0,,,,,,,,,,,,,,,,switch,letter,NA,k,0.4986,Hi,,,,,,2,,,,,,,,high,19,0,19,0,1,,,,,,,,,
293614,2022-10-03_08h27.25.739,vts_reward_expectancy,2022.2.4,Win32,60.91617934,Chrome,1664,1110,,,,,0,848,,,,,,,,,,,,,,,,,167,F,star,1,1,,,,,,,,,,,,,,,,repeat,letter,lettRpt,j,0.934,Hi,,,,,,2,,,,,,,,high,20,0,20,0,1,,,,,,,,,
293614,2022-10-03_08h27.25.739,vts_reward_expectancy,2022.2.4,Win32,60.91617934,Chrome,1664,1110,,,,,1,849,,,,,,,,,,,,,,,,,132,H,hexagon,1,0,,,,,,,,,,,,,,,,repeat,letter,lettRpt,j,1.2173,Lo,,,,,,2,,,,,,,,high,21,0,21,0,1,,,,,,,,,
293614,2022-10-03_08h27.25.739,vts_reward_expectancy,2022.2.4,Win32,60.91617934,Chrome,1664,1110,,,,,0,849,,,,,,,,,,,,,,,,,174,U,hexagon,0,0,,,,,,,,,,,,,,,,switch,number,NA,d,0.7341,Lo,,,,,,2,,,,,,,,high,22,0,22,0,1,,,,,,,,,
293614,2022-10-03_08h27.25.739,vts_reward_expectancy,2022.2.4,Win32,60.91617934,Chrome,1664,1110,,,,,10,859,,,,,,,,,,,,,,,,,181,D,star,1,1,,,,,,,,,,,,,,,,repeat,number,numRpt,f,0.518,Hi,,,,,,2,,,,,,,,high,23,0,23,0,1,,,,,,,,,
293614,2022-10-03_08h27.25.739,vts_reward_expectancy,2022.2.4,Win32,60.91617934,Chrome,1664,1110,,,,,1,860,,,,,,,,,,,,,,,,,174,U,hexagon,1,0,,,,,,,,,,,,,,,,repeat,number,numRpt,f,0.9513,Lo,,,,,,2,,,,,,,,high,24,0,24,0,1,,,,,,,,,
293614,2022-10-03_08h27.25.739,vts_reward_expectancy,2022.2.4,Win32,60.91617934,Chrome,1664,1110,,,,,0,860,,,,,,,,,,,,,,,,,167,F,star,1,0,,,,,,,,,,,,,,,,repeat,number,numRpt,f,1.2829,Hi,,,,,,2,,,,,,,,high,25,0,25,0,1,,,,,,,,,
293614,2022-10-03_08h27.25.739,vts_reward_expectancy,2022.2.4,Win32,60.91617934,Chrome,1664,1110,,,,,10,870,,,,,,,,,,,,,,,,,132,S,star,1,0,,,,,,,,,,,,,,,,switch,letter,lettSwt,k,0.5172,Hi,,,,,,2,,,,,,,,high,26,0,26,0,1,,,,,,,,,
293614,2022-10-03_08h27.25.739,vts_reward_expectancy,2022.2.4,Win32,60.91617934,Chrome,1664,1110,,,,,1,871,,,,,,,,,,,,,,,,,160,W,hexagon,1,0,,,,,,,,,,,,,,,,repeat,letter,lettRpt,k,0.6018,Lo,,,,,,2,,,,,,,,high,27,0,27,0,1,,,,,,,,,
293614,2022-10-03_08h27.25.739,vts_reward_expectancy,2022.2.4,Win32,60.91617934,Chrome,1664,1110,,,,,0,871,,,,,,,,,,,,,,,,,125,H,star,0,0,,,,,,,,,,,,,,,,repeat,letter,NA,k,1.0834,Lo,,,,,,2,,,,,,,,high,28,0,28,0,1,,,,,,,,,
293614,2022-10-03_08h27.25.739,vts_reward_expectancy,2022.2.4,Win32,60.91617934,Chrome,1664,1110,,,,,1,872,,,,,,,,,,,,,,,,,146,Y,hexagon,1,1,,,,,,,,,,,,,,,,switch,number,numSwt,d,1.7681,Lo,,,,,,2,,,,,,,,high,29,0,29,0,1,,,,,,,,,
293614,2022-10-03_08h27.25.739,vts_reward_expectancy,2022.2.4,Win32,60.91617934,Chrome,1664,1110,,,,,1,873,,,,,,,,,,,,,,,,,139,D,hexagon,1,0,,,,,,,,,,,,,,,,repeat,number,numRpt,d,1.3484,Lo,,,,,,2,,,,,,,,high,30,0,30,0,1,,,,,,,,,
293614,2022-10-03_08h27.25.739,vts_reward_expectancy,2022.2.4,Win32,60.91617934,Chrome,1664,1110,,,,,10,883,,,,,,,,,,,,,,,,,181,B,star,1,0,,,,,,,,,,,,,,,,switch,letter,lettSwt,j,0.4506,Hi,,,,,,2,,,,,,,,high,31,0,31,0,1,,,,,,,,,
293614,2022-10-03_08h27.25.739,vts_reward_expectancy,2022.2.4,Win32,60.91617934,Chrome,1664,1110,,,,,1,884,,,,,,,,,,,,,,,,,146,U,circle,1,0,,,,,,,,,,,,,,,,repeat,letter,lettRpt,k,1.0822,Lo,,,,,,3,,,,,,space,1.0579,low,0,0,0,0,1,,,,,,,,,
293614,2022-10-03_08h27.25.739,vts_reward_expectancy,2022.2.4,Win32,60.91617934,Chrome,1664,1110,,,,,0,884,,,,,,,,,,,,,,,,,125,D,triangle,1,0,,,,,,,,,,,,,,,,repeat,letter,lettRpt,j,0.7167,Hi,,,,,,3,,,,,,,,low,1,0,1,0,1,,,,,,,,,
293614,2022-10-03_08h27.25.739,vts_reward_expectancy,2022.2.4,Win32,60.91617934,Chrome,1664,1110,,,,,0,884,,,,,,,,,,,,,,,,,132,H,circle,0,0,,,,,,,,,,,,,,,,switch,number,NA,f,0.9666,Hi,,,,,,3,,,,,,,,low,2,0,2,0,1,,,,,,,,,
293614,2022-10-03_08h27.25.739,vts_reward_expectancy,2022.2.4,Win32,60.91617934,Chrome,1664,1110,,,,,0,884,,,,,,,,,,,,,,,,,160,Y,triangle,1,1,,,,,,,,,,,,,,,,repeat,number,numRpt,f,1.1175,Hi,,,,,,3,,,,,,,,low,3,0,3,0,1,,,,,,,,,
293614,2022-10-03_08h27.25.739,vts_reward_expectancy,2022.2.4,Win32,60.91617934,Chrome,1664,1110,,,,,10,894,,,,,,,,,,,,,,,,,167,B,triangle,1,0,,,,,,,,,,,,,,,,switch,letter,lettSwt,j,0.85,Hi,,,,,,3,,,,,,,,low,4,0,4,0,1,,,,,,,,,
293614,2022-10-03_08h27.25.739,vts_reward_expectancy,2022.2.4,Win32,60.91617934,Chrome,1664,1110,,,,,10,904,,,,,,,,,,,,,,,,,139,F,circle,1,0,,,,,,,,,,,,,,,,switch,number,numSwt,d,1.2663,Lo,,,,,,3,,,,,,,,low,5,0,5,0,1,,,,,,,,,
293614,2022-10-03_08h27.25.739,vts_reward_expectancy,2022.2.4,Win32,60.91617934,Chrome,1664,1110,,,,,1,905,,,,,,,,,,,,,,,,,181,W,circle,1,0,,,,,,,,,,,,,,,,switch,letter,lettSwt,k,0.683,Lo,,,,,,3,,,,,,,,low,6,0,6,0,1,,,,,,,,,
293614,2022-10-03_08h27.25.739,vts_reward_expectancy,2022.2.4,Win32,60.91617934,Chrome,1664,1110,,,,,0,905,,,,,,,,,,,,,,,,,174,S,triangle,1,0,,,,,,,,,,,,,,,,repeat,letter,lettRpt,k,0.9334,Hi,,,,,,3,,,,,,,,low,7,0,7,0,1,,,,,,,,,
293614,2022-10-03_08h27.25.739,vts_reward_expectancy,2022.2.4,Win32,60.91617934,Chrome,1664,1110,,,,,1,906,,,,,,,,,,,,,,,,,146,U,circle,1,0,,,,,,,,,,,,,,,,switch,number,numSwt,d,0.9167,Lo,,,,,,3,,,,,,,,low,8,0,8,0,1,,,,,,,,,
293614,2022-10-03_08h27.25.739,vts_reward_expectancy,2022.2.4,Win32,60.91617934,Chrome,1664,1110,,,,,0,906,,,,,,,,,,,,,,,,,125,D,triangle,1,0,,,,,,,,,,,,,,,,repeat,number,numRpt,d,0.7338,Hi,,,,,,3,,,,,,,,low,9,0,9,0,1,,,,,,,,,
293614,2022-10-03_08h27.25.739,vts_reward_expectancy,2022.2.4,Win32,60.91617934,Chrome,1664,1110,,,,,10,916,,,,,,,,,,,,,,,,,132,H,triangle,1,0,,,,,,,,,,,,,,,,repeat,number,numRpt,d,0.4827,Hi,,,,,,3,,,,,,,,low,10,0,10,0,1,,,,,,,,,
293614,2022-10-03_08h27.25.739,vts_reward_expectancy,2022.2.4,Win32,60.91617934,Chrome,1664,1110,,,,,10,926,,,,,,,,,,,,,,,,,160,Y,circle,1,0,,,,,,,,,,,,,,,,repeat,number,numRpt,f,0.7518,Lo,,,,,,3,,,,,,,,low,11,0,11,0,1,,,,,,,,,
293614,2022-10-03_08h27.25.739,vts_reward_expectancy,2022.2.4,Win32,60.91617934,Chrome,1664,1110,,,,,0,926,,,,,,,,,,,,,,,,,167,B,triangle,1,0,,,,,,,,,,,,,,,,repeat,number,numRpt,f,0.7016,Hi,,,,,,3,,,,,,,,low,12,0,12,0,1,,,,,,,,,
293614,2022-10-03_08h27.25.739,vts_reward_expectancy,2022.2.4,Win32,60.91617934,Chrome,1664,1110,,,,,1,927,,,,,,,,,,,,,,,,,139,F,circle,1,0,,,,,,,,,,,,,,,,switch,letter,lettSwt,j,1.9315,Lo,,,,,,3,,,,,,,,low,13,0,13,0,1,,,,,,,,,
293614,2022-10-03_08h27.25.739,vts_reward_expectancy,2022.2.4,Win32,60.91617934,Chrome,1664,1110,,,,,10,937,,,,,,,,,,,,,,,,,181,W,circle,1,0,,,,,,,,,,,,,,,,switch,number,numSwt,f,0.6672,Lo,,,,,,3,,,,,,,,low,14,0,14,0,1,,,,,,,,,
293614,2022-10-03_08h27.25.739,vts_reward_expectancy,2022.2.4,Win32,60.91617934,Chrome,1664,1110,,,,,1,938,,,,,,,,,,,,,,,,,174,S,triangle,1,0,,,,,,,,,,,,,,,,switch,letter,lettSwt,k,0.4674,Hi,,,,,,3,,,,,,,,low,15,0,15,0,1,,,,,,,,,
293614,2022-10-03_08h27.25.739,vts_reward_expectancy,2022.2.4,Win32,60.91617934,Chrome,1664,1110,,,,,1,939,,,,,,,,,,,,,,,,,181,F,circle,1,0,,,,,,,,,,,,,,,,repeat,letter,lettRpt,j,1.0519,Lo,,,,,,3,,,,,,,,low,16,0,16,0,1,,,,,,,,,
293614,2022-10-03_08h27.25.739,vts_reward_expectancy,2022.2.4,Win32,60.91617934,Chrome,1664,1110,,,,,0,939,,,,,,,,,,,,,,,,,146,Y,triangle,1,0,,,,,,,,,,,,,,,,switch,number,numSwt,d,0.6516,Hi,,,,,,3,,,,,,,,low,17,0,17,0,1,,,,,,,,,
293614,2022-10-03_08h27.25.739,vts_reward_expectancy,2022.2.4,Win32,60.91617934,Chrome,1664,1110,,,,,1,940,,,,,,,,,,,,,,,,,160,D,circle,1,0,,,,,,,,,,,,,,,,repeat,number,numRpt,f,1.0349,Lo,,,,,,3,,,,,,,,low,18,0,18,0,1,,,,,,,,,
293614,2022-10-03_08h27.25.739,vts_reward_expectancy,2022.2.4,Win32,60.91617934,Chrome,1664,1110,,,,,1,941,,,,,,,,,,,,,,,,,132,B,triangle,1,0,,,,,,,,,,,,,,,,repeat,number,numRpt,d,0.4674,Hi,,,,,,3,,,,,,,,low,19,0,19,0,1,,,,,,,,,
293614,2022-10-03_08h27.25.739,vts_reward_expectancy,2022.2.4,Win32,60.91617934,Chrome,1664,1110,,,,,10,951,,,,,,,,,,,,,,,,,174,U,circle,1,0,,,,,,,,,,,,,,,,repeat,number,numRpt,f,0.9324,Lo,,,,,,3,,,,,,,,low,20,0,20,0,1,,,,,,,,,
293614,2022-10-03_08h27.25.739,vts_reward_expectancy,2022.2.4,Win32,60.91617934,Chrome,1664,1110,,,,,0,951,,,,,,,,,,,,,,,,,167,H,triangle,1,0,,,,,,,,,,,,,,,,switch,letter,lettSwt,j,1.1002,Hi,,,,,,3,,,,,,,,low,21,0,21,0,1,,,,,,,,,
293614,2022-10-03_08h27.25.739,vts_reward_expectancy,2022.2.4,Win32,60.91617934,Chrome,1664,1110,,,,,1,952,,,,,,,,,,,,,,,,,139,W,circle,1,0,,,,,,,,,,,,,,,,repeat,letter,lettRpt,k,1.2983,Lo,,,,,,3,,,,,,,,low,22,0,22,0,1,,,,,,,,,
293614,2022-10-03_08h27.25.739,vts_reward_expectancy,2022.2.4,Win32,60.91617934,Chrome,1664,1110,,,,,1,953,,,,,,,,,,,,,,,,,125,S,triangle,1,0,,,,,,,,,,,,,,,,repeat,letter,lettRpt,k,0.6011,Hi,,,,,,3,,,,,,,,low,23,0,23,0,1,,,,,,,,,
293614,2022-10-03_08h27.25.739,vts_reward_expectancy,2022.2.4,Win32,60.91617934,Chrome,1664,1110,,,,,10,963,,,,,,,,,,,,,,,,,132,B,circle,1,0,,,,,,,,,,,,,,,,switch,number,numSwt,d,1.2504,Lo,,,,,,3,,,,,,,,low,24,0,24,0,1,,,,,,,,,
293614,2022-10-03_08h27.25.739,vts_reward_expectancy,2022.2.4,Win32,60.91617934,Chrome,1664,1110,,,,,0,963,,,,,,,,,,,,,,,,,146,D,triangle,0,0,,,,,,,,,,,,,,,,repeat,number,NA,f,1.5158,Lo,,,,,,3,,,,,,,,low,25,0,25,0,1,,,,,,,,,
293614,2022-10-03_08h27.25.739,vts_reward_expectancy,2022.2.4,Win32,60.91617934,Chrome,1664,1110,,,,,10,973,,,,,,,,,,,,,,,,,160,S,circle,1,1,,,,,,,,,,,,,,,,switch,letter,lettSwt,k,1.0349,Lo,,,,,,3,,,,,,,,low,26,0,26,0,1,,,,,,,,,
293614,2022-10-03_08h27.25.739,vts_reward_expectancy,2022.2.4,Win32,60.91617934,Chrome,1664,1110,,,,,1,974,,,,,,,,,,,,,,,,,167,F,triangle,1,0,,,,,,,,,,,,,,,,repeat,letter,lettRpt,j,0.549,Hi,,,,,,3,,,,,,,,low,27,0,27,0,1,,,,,,,,,
293614,2022-10-03_08h27.25.739,vts_reward_expectancy,2022.2.4,Win32,60.91617934,Chrome,1664,1110,,,,,10,984,,,,,,,,,,,,,,,,,174,Y,triangle,1,0,,,,,,,,,,,,,,,,switch,number,numSwt,f,0.4201,Hi,,,,,,3,,,,,,,,low,28,0,28,0,1,,,,,,,,,
293614,2022-10-03_08h27.25.739,vts_reward_expectancy,2022.2.4,Win32,60.91617934,Chrome,1664,1110,,,,,10,994,,,,,,,,,,,,,,,,,181,W,circle,1,0,,,,,,,,,,,,,,,,repeat,number,numRpt,f,1.5226,Lo,,,,,,3,,,,,,,,low,29,0,29,0,1,,,,,,,,,
293614,2022-10-03_08h27.25.739,vts_reward_expectancy,2022.2.4,Win32,60.91617934,Chrome,1664,1110,,,,,10,1004,,,,,,,,,,,,,,,,,125,U,circle,1,0,,,,,,,,,,,,,,,,repeat,number,numRpt,d,1.5377,Lo,,,,,,3,,,,,,,,low,30,0,30,0,1,,,,,,,,,
293614,2022-10-03_08h27.25.739,vts_reward_expectancy,2022.2.4,Win32,60.91617934,Chrome,1664,1110,,,,,0,1004,,,,,,,,,,,,,,,,,139,H,triangle,1,0,,,,,,,,,,,,,,,,repeat,number,numRpt,d,0.541,Hi,,,,,,3,,,,,,,,low,31,0,31,0,1,,,,,,,,,
293614,2022-10-03_08h27.25.739,vts_reward_expectancy,2022.2.4,Win32,60.91617934,Chrome,1664,1110,,,,,10,1014,,,,,,,,,,,,,,,,,139,W,circle,1,0,,,,,,,,,,,,,,,,repeat,number,numRpt,d,0.652,Lo,,,,,,4,,,,,,space,0.7247,low,0,0,0,0,1,,,,,,,,,
293614,2022-10-03_08h27.25.739,vts_reward_expectancy,2022.2.4,Win32,60.91617934,Chrome,1664,1110,,,,,0,1014,,,,,,,,,,,,,,,,,146,H,triangle,0,0,,,,,,,,,,,,,,,,repeat,number,NA,f,0.4153,Lo,,,,,,4,,,,,,,,low,1,0,1,0,1,,,,,,,,,
293614,2022-10-03_08h27.25.739,vts_reward_expectancy,2022.2.4,Win32,60.91617934,Chrome,1664,1110,,,,,10,1024,,,,,,,,,,,,,,,,,125,Y,circle,1,1,,,,,,,,,,,,,,,,switch,letter,lettSwt,k,1.2668,Lo,,,,,,4,,,,,,,,low,2,0,2,0,1,,,,,,,,,
293614,2022-10-03_08h27.25.739,vts_reward_expectancy,2022.2.4,Win32,60.91617934,Chrome,1664,1110,,,,,0,1024,,,,,,,,,,,,,,,,,160,U,triangle,0,0,,,,,,,,,,,,,,,,repeat,letter,NA,j,0.4174,Lo,,,,,,4,,,,,,,,low,3,0,3,0,1,,,,,,,,,
293614,2022-10-03_08h27.25.739,vts_reward_expectancy,2022.2.4,Win32,60.91617934,Chrome,1664,1110,,,,,1,1025,,,,,,,,,,,,,,,,,181,S,circle,1,1,,,,,,,,,,,,,,,,switch,number,numSwt,f,2.3703,Lo,,,,,,4,,,,,,,,low,4,0,4,0,1,,,,,,,,,
293614,2022-10-03_08h27.25.739,vts_reward_expectancy,2022.2.4,Win32,60.91617934,Chrome,1664,1110,,,,,0,1025,,,,,,,,,,,,,,,,,174,D,triangle,1,0,,,,,,,,,,,,,,,,repeat,number,numRpt,f,0.8974,Hi,,,,,,4,,,,,,,,low,5,0,5,0,1,,,,,,,,,
293614,2022-10-03_08h27.25.739,vts_reward_expectancy,2022.2.4,Win32,60.91617934,Chrome,1664,1110,,,,,10,1035,,,,,,,,,,,,,,,,,167,F,triangle,1,0,,,,,,,,,,,,,,,,repeat,number,numRpt,f,0.5834,Hi,,,,,,4,,,,,,,,low,6,0,6,0,1,,,,,,,,,
293614,2022-10-03_08h27.25.739,vts_reward_expectancy,2022.2.4,Win32,60.91617934,Chrome,1664,1110,,,,,1,1036,,,,,,,,,,,,,,,,,132,B,circle,1,0,,,,,,,,,,,,,,,,repeat,number,numRpt,d,0.6182,Lo,,,,,,4,,,,,,,,low,7,0,7,0,1,,,,,,,,,
293614,2022-10-03_08h27.25.739,vts_reward_expectancy,2022.2.4,Win32,60.91617934,Chrome,1664,1110,,,,,0,1036,,,,,,,,,,,,,,,,,139,W,triangle,1,0,,,,,,,,,,,,,,,,repeat,number,numRpt,d,1.5671,Hi,,,,,,4,,,,,,,,low,8,0,8,0,1,,,,,,,,,
293614,2022-10-03_08h27.25.739,vts_reward_expectancy,2022.2.4,Win32,60.91617934,Chrome,1664,1110,,,,,10,1046,,,,,,,,,,,,,,,,,146,H,circle,1,0,,,,,,,,,,,,,,,,switch,letter,lettSwt,j,2.1028,Lo,,,,,,4,,,,,,,,low,9,0,9,0,1,,,,,,,,,
293614,2022-10-03_08h27.25.739,vts_reward_expectancy,2022.2.4,Win32,60.91617934,Chrome,1664,1110,,,,,1,1047,,,,,,,,,,,,,,,,,125,Y,circle,1,0,,,,,,,,,,,,,,,,repeat,letter,lettRpt,k,1.3182,Lo,,,,,,4,,,,,,,,low,10,0,10,0,1,,,,,,,,,
293614,2022-10-03_08h27.25.739,vts_reward_expectancy,2022.2.4,Win32,60.91617934,Chrome,1664,1110,,,,,1,1048,,,,,,,,,,,,,,,,,160,U,triangle,1,0,,,,,,,,,,,,,,,,repeat,letter,lettRpt,k,0.6852,Hi,,,,,,4,,,,,,,,low,11,0,11,0,1,,,,,,,,,
293614,2022-10-03_08h27.25.739,vts_reward_expectancy,2022.2.4,Win32,60.91617934,Chrome,1664,1110,,,,,0,1048,,,,,,,,,,,,,,,,,181,S,triangle,0,0,,,,,,,,,,,,,,,,repeat,letter,NA,j,0.6179,Hi,,,,,,4,,,,,,,,low,12,0,12,0,1,,,,,,,,,
293614,2022-10-03_08h27.25.739,vts_reward_expectancy,2022.2.4,Win32,60.91617934,Chrome,1664,1110,,,,,1,1049,,,,,,,,,,,,,,,,,174,D,circle,1,1,,,,,,,,,,,,,,,,switch,number,numSwt,f,1.7684,Lo,,,,,,4,,,,,,,,low,13,0,13,0,1,,,,,,,,,
293614,2022-10-03_08h27.25.739,vts_reward_expectancy,2022.2.4,Win32,60.91617934,Chrome,1664,1110,,,,,10,1059,,,,,,,,,,,,,,,,,167,F,circle,1,0,,,,,,,,,,,,,,,,repeat,number,numRpt,f,0.7355,Lo,,,,,,4,,,,,,,,low,14,0,14,0,1,,,,,,,,,
293614,2022-10-03_08h27.25.739,vts_reward_expectancy,2022.2.4,Win32,60.91617934,Chrome,1664,1110,,,,,1,1060,,,,,,,,,,,,,,,,,132,B,triangle,1,0,,,,,,,,,,,,,,,,repeat,number,numRpt,d,0.4513,Hi,,,,,,4,,,,,,,,low,15,0,15,0,1,,,,,,,,,
293614,2022-10-03_08h27.25.739,vts_reward_expectancy,2022.2.4,Win32,60.91617934,Chrome,1664,1110,,,,,1,1061,,,,,,,,,,,,,,,,,146,B,circle,1,0,,,,,,,,,,,,,,,,switch,letter,lettSwt,j,0.6844,Lo,,,,,,4,,,,,,,,low,16,0,16,0,1,,,,,,,,,
293614,2022-10-03_08h27.25.739,vts_reward_expectancy,2022.2.4,Win32,60.91617934,Chrome,1664,1110,,,,,10,1071,,,,,,,,,,,,,,,,,181,W,triangle,1,0,,,,,,,,,,,,,,,,repeat,letter,lettRpt,k,0.4835,Hi,,,,,,4,,,,,,,,low,17,0,17,0,1,,,,,,,,,
293614,2022-10-03_08h27.25.739,vts_reward_expectancy,2022.2.4,Win32,60.91617934,Chrome,1664,1110,,,,,1,1072,,,,,,,,,,,,,,,,,167,S,circle,1,0,,,,,,,,,,,,,,,,repeat,letter,lettRpt,k,0.9563,Lo,,,,,,4,,,,,,,,low,18,0,18,0,1,,,,,,,,,
293614,2022-10-03_08h27.25.739,vts_reward_expectancy,2022.2.4,Win32,60.91617934,Chrome,1664,1110,,,,,10,1082,,,,,,,,,,,,,,,,,139,U,triangle,1,0,,,,,,,,,,,,,,,,repeat,letter,lettRpt,k,0.5731,Hi,,,,,,4,,,,,,,,low,19,0,19,0,1,,,,,,,,,
293614,2022-10-03_08h27.25.739,vts_reward_expectancy,2022.2.4,Win32,60.91617934,Chrome,1664,1110,,,,,1,1083,,,,,,,,,,,,,,,,,125,H,circle,1,0,,,,,,,,,,,,,,,,switch,number,numSwt,d,0.617,Lo,,,,,,4,,,,,,,,low,20,0,20,0,1,,,,,,,,,
293614,2022-10-03_08h27.25.739,vts_reward_expectancy,2022.2.4,Win32,60.91617934,Chrome,1664,1110,,,,,1,1084,,,,,,,,,,,,,,,,,132,F,triangle,1,0,,,,,,,,,,,,,,,,repeat,number,numRpt,d,0.4496,Hi,,,,,,4,,,,,,,,low,21,0,21,0,1,,,,,,,,,
293614,2022-10-03_08h27.25.739,vts_reward_expectancy,2022.2.4,Win32,60.91617934,Chrome,1664,1110,,,,,1,1085,,,,,,,,,,,,,,,,,174,Y,circle,1,0,,,,,,,,,,,,,,,,repeat,number,numRpt,f,0.4836,Lo,,,,,,4,,,,,,,,low,22,0,22,0,1,,,,,,,,,
293614,2022-10-03_08h27.25.739,vts_reward_expectancy,2022.2.4,Win32,60.91617934,Chrome,1664,1110,,,,,10,1095,,,,,,,,,,,,,,,,,160,D,triangle,1,0,,,,,,,,,,,,,,,,repeat,number,numRpt,f,0.6671,Hi,,,,,,4,,,,,,,,low,23,0,23,0,1,,,,,,,,,
293614,2022-10-03_08h27.25.739,vts_reward_expectancy,2022.2.4,Win32,60.91617934,Chrome,1664,1110,,,,,10,1105,,,,,,,,,,,,,,,,,174,B,circle,1,0,,,,,,,,,,,,,,,,repeat,number,numRpt,f,0.5968,Lo,,,,,,4,,,,,,,,low,24,0,24,0,1,,,,,,,,,
293614,2022-10-03_08h27.25.739,vts_reward_expectancy,2022.2.4,Win32,60.91617934,Chrome,1664,1110,,,,,1,1106,,,,,,,,,,,,,,,,,181,F,triangle,1,0,,,,,,,,,,,,,,,,repeat,number,numRpt,f,0.6178,Hi,,,,,,4,,,,,,,,low,25,0,25,0,1,,,,,,,,,
293614,2022-10-03_08h27.25.739,vts_reward_expectancy,2022.2.4,Win32,60.91617934,Chrome,1664,1110,,,,,1,1107,,,,,,,,,,,,,,,,,125,Y,triangle,1,0,,,,,,,,,,,,,,,,switch,letter,lettSwt,k,0.4845,Hi,,,,,,4,,,,,,,,low,26,0,26,0,1,,,,,,,,,
293614,2022-10-03_08h27.25.739,vts_reward_expectancy,2022.2.4,Win32,60.91617934,Chrome,1664,1110,,,,,1,1108,,,,,,,,,,,,,,,,,146,W,circle,1,0,,,,,,,,,,,,,,,,repeat,letter,lettRpt,k,0.7999,Lo,,,,,,4,,,,,,,,low,27,0,27,0,1,,,,,,,,,
293614,2022-10-03_08h27.25.739,vts_reward_expectancy,2022.2.4,Win32,60.91617934,Chrome,1664,1110,,,,,1,1109,,,,,,,,,,,,,,,,,160,H,circle,1,0,,,,,,,,,,,,,,,,repeat,letter,lettRpt,j,0.9003,Lo,,,,,,4,,,,,,,,low,28,0,28,0,1,,,,,,,,,
293614,2022-10-03_08h27.25.739,vts_reward_expectancy,2022.2.4,Win32,60.91617934,Chrome,1664,1110,,,,,10,1119,,,,,,,,,,,,,,,,,167,U,triangle,1,0,,,,,,,,,,,,,,,,repeat,letter,lettRpt,k,0.5338,Hi,,,,,,4,,,,,,,,low,29,0,29,0,1,,,,,,,,,
293614,2022-10-03_08h27.25.739,vts_reward_expectancy,2022.2.4,Win32,60.91617934,Chrome,1664,1110,,,,,10,1129,,,,,,,,,,,,,,,,,139,D,circle,1,0,,,,,,,,,,,,,,,,switch,number,numSwt,d,1.3341,Lo,,,,,,4,,,,,,,,low,30,0,30,0,1,,,,,,,,,
293614,2022-10-03_08h27.25.739,vts_reward_expectancy,2022.2.4,Win32,60.91617934,Chrome,1664,1110,,,,,0,1129,,,,,,,,,,,,,,,,,132,S,triangle,0,0,,,,,,,,,,,,,,,,repeat,number,NA,f,0.6313,Lo,,,,,,4,,,,,,,,low,31,0,31,0,1,,,,,,,,,
293614,2022-10-03_08h27.25.739,vts_reward_expectancy,2022.2.4,Win32,60.91617934,Chrome,1664,1110,,,,,0,1129,,,,,,,,,,,,,,,,,132,H,star,0,1,,,,,,,,,,,,,,,,repeat,number,NA,f,0.7005,Lo,,,,,,5,,,,,,space,0.8082,high,0,0,0,0,1,,,,,,,,,
293614,2022-10-03_08h27.25.739,vts_reward_expectancy,2022.2.4,Win32,60.91617934,Chrome,1664,1110,,,,,1,1130,,,,,,,,,,,,,,,,,146,S,hexagon,1,1,,,,,,,,,,,,,,,,repeat,number,numRpt,d,1.6345,Lo,,,,,,5,,,,,,,,high,1,0,1,0,1,,,,,,,,,
293614,2022-10-03_08h27.25.739,vts_reward_expectancy,2022.2.4,Win32,60.91617934,Chrome,1664,1110,,,,,10,1140,,,,,,,,,,,,,,,,,125,F,star,1,0,,,,,,,,,,,,,,,,repeat,number,numRpt,d,0.4665,Hi,,,,,,5,,,,,,,,high,2,0,2,0,1,,,,,,,,,
293614,2022-10-03_08h27.25.739,vts_reward_expectancy,2022.2.4,Win32,60.91617934,Chrome,1664,1110,,,,,1,1141,,,,,,,,,,,,,,,,,139,U,hexagon,1,0,,,,,,,,,,,,,,,,repeat,number,numRpt,d,0.6157,Lo,,,,,,5,,,,,,,,high,3,0,3,0,1,,,,,,,,,
293614,2022-10-03_08h27.25.739,vts_reward_expectancy,2022.2.4,Win32,60.91617934,Chrome,1664,1110,,,,,1,1142,,,,,,,,,,,,,,,,,174,W,hexagon,1,0,,,,,,,,,,,,,,,,switch,letter,lettSwt,k,1.5011,Lo,,,,,,5,,,,,,,,high,4,0,4,0,1,,,,,,,,,
293614,2022-10-03_08h27.25.739,vts_reward_expectancy,2022.2.4,Win32,60.91617934,Chrome,1664,1110,,,,,0,1142,,,,,,,,,,,,,,,,,167,D,star,1,0,,,,,,,,,,,,,,,,repeat,letter,lettRpt,j,0.6336,Hi,,,,,,5,,,,,,,,high,5,0,5,0,1,,,,,,,,,
293614,2022-10-03_08h27.25.739,vts_reward_expectancy,2022.2.4,Win32,60.91617934,Chrome,1664,1110,,,,,10,1152,,,,,,,,,,,,,,,,,181,B,hexagon,1,0,,,,,,,,,,,,,,,,switch,number,numSwt,f,1.0667,Lo,,,,,,5,,,,,,,,high,6,0,6,0,1,,,,,,,,,
293614,2022-10-03_08h27.25.739,vts_reward_expectancy,2022.2.4,Win32,60.91617934,Chrome,1664,1110,,,,,10,1162,,,,,,,,,,,,,,,,,160,Y,star,1,0,,,,,,,,,,,,,,,,switch,letter,lettSwt,k,0.5346,Hi,,,,,,5,,,,,,,,high,7,0,7,0,1,,,,,,,,,
293614,2022-10-03_08h27.25.739,vts_reward_expectancy,2022.2.4,Win32,60.91617934,Chrome,1664,1110,,,,,10,1172,,,,,,,,,,,,,,,,,132,H,hexagon,1,0,,,,,,,,,,,,,,,,switch,number,numSwt,d,1.4004,Lo,,,,,,5,,,,,,,,high,8,0,8,0,1,,,,,,,,,
293614,2022-10-03_08h27.25.739,vts_reward_expectancy,2022.2.4,Win32,60.91617934,Chrome,1664,1110,,,,,10,1182,,,,,,,,,,,,,,,,,146,S,star,1,0,,,,,,,,,,,,,,,,switch,letter,lettSwt,k,0.4325,Hi,,,,,,5,,,,,,,,high,9,0,9,0,1,,,,,,,,,
293614,2022-10-03_08h27.25.739,vts_reward_expectancy,2022.2.4,Win32,60.91617934,Chrome,1664,1110,,,,,1,1183,,,,,,,,,,,,,,,,,125,F,hexagon,1,0,,,,,,,,,,,,,,,,switch,number,numSwt,d,1.0498,Lo,,,,,,5,,,,,,,,high,10,0,10,0,1,,,,,,,,,
293614,2022-10-03_08h27.25.739,vts_reward_expectancy,2022.2.4,Win32,60.91617934,Chrome,1664,1110,,,,,1,1184,,,,,,,,,,,,,,,,,139,U,star,1,0,,,,,,,,,,,,,,,,repeat,number,numRpt,d,0.5178,Hi,,,,,,5,,,,,,,,high,11,0,11,0,1,,,,,,,,,
293614,2022-10-03_08h27.25.739,vts_reward_expectancy,2022.2.4,Win32,60.91617934,Chrome,1664,1110,,,,,1,1185,,,,,,,,,,,,,,,,,174,W,star,1,0,,,,,,,,,,,,,,,,repeat,number,numRpt,f,0.4674,Hi,,,,,,5,,,,,,,,high,12,0,12,0,1,,,,,,,,,
293614,2022-10-03_08h27.25.739,vts_reward_expectancy,2022.2.4,Win32,60.91617934,Chrome,1664,1110,,,,,1,1186,,,,,,,,,,,,,,,,,167,D,hexagon,1,0,,,,,,,,,,,,,,,,repeat,number,numRpt,f,0.717,Lo,,,,,,5,,,,,,,,high,13,0,13,0,1,,,,,,,,,
293614,2022-10-03_08h27.25.739,vts_reward_expectancy,2022.2.4,Win32,60.91617934,Chrome,1664,1110,,,,,1,1187,,,,,,,,,,,,,,,,,181,B,hexagon,1,0,,,,,,,,,,,,,,,,repeat,number,numRpt,f,0.6494,Lo,,,,,,5,,,,,,,,high,14,0,14,0,1,,,,,,,,,
293614,2022-10-03_08h27.25.739,vts_reward_expectancy,2022.2.4,Win32,60.91617934,Chrome,1664,1110,,,,,0,1187,,,,,,,,,,,,,,,,,160,Y,star,1,0,,,,,,,,,,,,,,,,repeat,number,numRpt,f,0.7009,Hi,,,,,,5,,,,,,,,high,15,0,15,0,1,,,,,,,,,
293614,2022-10-03_08h27.25.739,vts_reward_expectancy,2022.2.4,Win32,60.91617934,Chrome,1664,1110,,,,,0,1187,,,,,,,,,,,,,,,,,146,U,star,1,0,,,,,,,,,,,,,,,,repeat,number,numRpt,d,0.6163,Hi,,,,,,5,,,,,,,,high,16,0,16,0,1,,,,,,,,,
293614,2022-10-03_08h27.25.739,vts_reward_expectancy,2022.2.4,Win32,60.91617934,Chrome,1664,1110,,,,,1,1188,,,,,,,,,,,,,,,,,174,Y,hexagon,1,0,,,,,,,,,,,,,,,,switch,letter,lettSwt,k,1.4525,Lo,,,,,,5,,,,,,,,high,17,0,17,0,1,,,,,,,,,
293614,2022-10-03_08h27.25.739,vts_reward_expectancy,2022.2.4,Win32,60.91617934,Chrome,1664,1110,,,,,1,1189,,,,,,,,,,,,,,,,,167,S,hexagon,1,0,,,,,,,,,,,,,,,,repeat,letter,lettRpt,k,1.3678,Lo,,,,,,5,,,,,,,,high,18,0,18,0,1,,,,,,,,,
293614,2022-10-03_08h27.25.739,vts_reward_expectancy,2022.2.4,Win32,60.91617934,Chrome,1664,1110,,,,,0,1189,,,,,,,,,,,,,,,,,160,B,star,1,0,,,,,,,,,,,,,,,,repeat,letter,lettRpt,j,0.6221,Hi,,,,,,5,,,,,,,,high,19,0,19,0,1,,,,,,,,,
293614,2022-10-03_08h27.25.739,vts_reward_expectancy,2022.2.4,Win32,60.91617934,Chrome,1664,1110,,,,,1,1190,,,,,,,,,,,,,,,,,125,D,hexagon,1,0,,,,,,,,,,,,,,,,repeat,letter,lettRpt,j,0.7686,Lo,,,,,,5,,,,,,,,high,20,0,20,0,1,,,,,,,,,
293614,2022-10-03_08h27.25.739,vts_reward_expectancy,2022.2.4,Win32,60.91617934,Chrome,1664,1110,,,,,10,1200,,,,,,,,,,,,,,,,,139,W,star,1,0,,,,,,,,,,,,,,,,repeat,letter,lettRpt,k,0.4508,Hi,,,,,,5,,,,,,,,high,21,0,21,0,1,,,,,,,,,
293614,2022-10-03_08h27.25.739,vts_reward_expectancy,2022.2.4,Win32,60.91617934,Chrome,1664,1110,,,,,0,1200,,,,,,,,,,,,,,,,,181,F,star,0,0,,,,,,,,,,,,,,,,switch,number,NA,d,0.7012,Hi,,,,,,5,,,,,,,,high,22,0,22,0,1,,,,,,,,,
293614,2022-10-03_08h27.25.739,vts_reward_expectancy,2022.2.4,Win32,60.91617934,Chrome,1664,1110,,,,,1,1201,,,,,,,,,,,,,,,,,132,H,hexagon,1,1,,,,,,,,,,,,,,,,repeat,number,numRpt,d,1.7999,Lo,,,,,,5,,,,,,,,high,23,0,23,0,1,,,,,,,,,
293614,2022-10-03_08h27.25.739,vts_reward_expectancy,2022.2.4,Win32,60.91617934,Chrome,1664,1110,,,,,1,1202,,,,,,,,,,,,,,,,,125,W,hexagon,1,0,,,,,,,,,,,,,,,,repeat,number,numRpt,d,0.9508,Lo,,,,,,5,,,,,,,,high,24,0,24,0,1,,,,,,,,,
293614,2022-10-03_08h27.25.739,vts_reward_expectancy,2022.2.4,Win32,60.91617934,Chrome,1664,1110,,,,,0,1202,,,,,,,,,,,,,,,,,160,Y,star,1,0,,,,,,,,,,,,,,,,repeat,number,numRpt,f,2.1507,Hi,,,,,,5,,,,,,,,high,25,0,25,0,1,,,,,,,,,
293614,2022-10-03_08h27.25.739,vts_reward_expectancy,2022.2.4,Win32,60.91617934,Chrome,1664,1110,,,,,0,1202,,,,,,,,,,,,,,,,,139,B,star,1,0,,,,,,,,,,,,,,,,switch,letter,lettSwt,j,0.8681,Hi,,,,,,5,,,,,,,,high,26,0,26,0,1,,,,,,,,,
293614,2022-10-03_08h27.25.739,vts_reward_expectancy,2022.2.4,Win32,60.91617934,Chrome,1664,1110,,,,,1,1203,,,,,,,,,,,,,,,,,174,F,hexagon,1,0,,,,,,,,,,,,,,,,repeat,letter,lettRpt,j,1.0008,Lo,,,,,,5,,,,,,,,high,27,0,27,0,1,,,,,,,,,
293614,2022-10-03_08h27.25.739,vts_reward_expectancy,2022.2.4,Win32,60.91617934,Chrome,1664,1110,,,,,0,1203,,,,,,,,,,,,,,,,,146,H,star,1,0,,,,,,,,,,,,,,,,repeat,letter,lettRpt,j,0.6999,Hi,,,,,,5,,,,,,,,high,28,0,28,0,1,,,,,,,,,
293614,2022-10-03_08h27.25.739,vts_reward_expectancy,2022.2.4,Win32,60.91617934,Chrome,1664,1110,,,,,1,1204,,,,,,,,,,,,,,,,,132,S,hexagon,1,0,,,,,,,,,,,,,,,,repeat,letter,lettRpt,k,1.0164,Lo,,,,,,5,,,,,,,,high,29,0,29,0,1,,,,,,,,,
293614,2022-10-03_08h27.25.739,vts_reward_expectancy,2022.2.4,Win32,60.91617934,Chrome,1664,1110,,,,,1,1205,,,,,,,,,,,,,,,,,167,U,hexagon,1,0,,,,,,,,,,,,,,,,repeat,letter,lettRpt,k,1.1349,Lo,,,,,,5,,,,,,,,high,30,0,30,0,1,,,,,,,,,
293614,2022-10-03_08h27.25.739,vts_reward_expectancy,2022.2.4,Win32,60.91617934,Chrome,1664,1110,,,,,10,1215,,,,,,,,,,,,,,,,,181,D,star,1,0,,,,,,,,,,,,,,,,repeat,letter,lettRpt,j,0.5133,Hi,,,,,,5,,,,,,,,high,31,0,31,0,1,,,,,,,,,
293614,2022-10-03_08h27.25.739,vts_reward_expectancy,2022.2.4,Win32,60.91617934,Chrome,1664,1110,,,,,,,,,,,,,,,,,,,,,,,,,,,,,,,,,,,,,,,,,,,,,,,,,,,,,,6,,,,,,,,,,,,,,Remember certain shapes while also knowing the patter,2,I could not figure out the shape thing,4,3,,2,1664,1110
