participant,date,expName,psychopyVersion,OS,frameRate,browser,xResolution,yResolution,key_resp.keys,key_resp.rt,training_resp.keys,training_resp.rt,points_trial,points_cumul,trainBlock,training.thisRepN,training.thisTrialN,training.thisN,training.thisIndex,training.ran,LTriangleOpac,LCircleOpac,LHexagonOpac,LStarOpac,RTriangleOpac,RCircleOpac,RHexagonOpac,RStarOpac,LShape_ID,RShape_ID,curr_topStim,curr_bottStim,curr_shape,acc,E1,target_resp_prac1.keys,target_resp_prac1.rt,pracBlock,task1_prac_trials.thisRepN,task1_prac_trials.thisTrialN,task1_prac_trials.thisN,task1_prac_trials.thisIndex,task1_prac_trials.ran,target_resp_prac2.keys,target_resp_prac2.rt,task2_praac_trials.thisRepN,task2_praac_trials.thisTrialN,task2_praac_trials.thisN,task2_praac_trials.thisIndex,task2_praac_trials.ran,alt,task,condition,target_resp.keys,target_resp.rt,rewCond,vts_practice_trials.thisRepN,vts_practice_trials.thisTrialN,vts_practice_trials.thisN,vts_practice_trials.thisIndex,vts_practice_trials.ran,blockNum,trials_norew.thisRepN,trials_norew.thisTrialN,trials_norew.thisN,trials_norew.thisIndex,trials_norew.ran,key_resp_2.keys,key_resp_2.rt,rewExpect,trials_rew.thisRepN,trials_rew.thisTrialN,trials_rew.thisN,trials_rew.thisIndex,trials_rew.ran,Q1,Q2,Q2_text,Q3,Q4,Q5_text,Q5,xRes,yRes
295234,2022-09-24_23h04.48.543,vts_reward_expectancy,2022.2.4,MacIntel,60.0024001,Chrome,1440,900,,,,,,,,,,,,,,,,,,,,,,,,,,,,,,,,,,,,,,,,,,,,,,,,,,,,,,,,,,,,,,,,,,,,,,,,,,,,
295234,2022-09-24_23h04.48.543,vts_reward_expectancy,2022.2.4,MacIntel,60.0024001,Chrome,1440,900,space,0.8951,,,,,,,,,,,,,,,,,,,,,,,,,,,,,,,,,,,,,,,,,,,,,,,,,,,,,,,,,,,,,,,,,,,,,,,,,,
295234,2022-09-24_23h04.48.543,vts_reward_expectancy,2022.2.4,MacIntel,60.0024001,Chrome,1440,900,,,,,,,,,,,,,,,,,,,,,,,,,,,,,,,,,,,,,,,,,,,,,,,,,,,,,,,,,,,,,,,,,,,,,,,,,,,,
295234,2022-09-24_23h04.48.543,vts_reward_expectancy,2022.2.4,MacIntel,60.0024001,Chrome,1440,900,,,a,1.6565,10,10,0,0,0,0,6,1,0,0,1,0,1,0,0,0,hexagon,triangle,,,,,,,,,,,,,,,,,,,,,,,,,,,,,,,,,,,,,,,,,,,,,,,,,,,,,,
295234,2022-09-24_23h04.48.543,vts_reward_expectancy,2022.2.4,MacIntel,60.0024001,Chrome,1440,900,,,a,0.7215,1,11,0,0,1,1,1,1,1,0,0,0,0,0,1,0,triangle,hexagon,,,,,,,,,,,,,,,,,,,,,,,,,,,,,,,,,,,,,,,,,,,,,,,,,,,,,,
295234,2022-09-24_23h04.48.543,vts_reward_expectancy,2022.2.4,MacIntel,60.0024001,Chrome,1440,900,,,a,0.6508,10,21,0,0,2,2,0,1,1,0,0,0,0,1,0,0,triangle,circle,,,,,,,,,,,,,,,,,,,,,,,,,,,,,,,,,,,,,,,,,,,,,,,,,,,,,,
295234,2022-09-24_23h04.48.543,vts_reward_expectancy,2022.2.4,MacIntel,60.0024001,Chrome,1440,900,,,l,0.9169,1,22,0,0,3,3,7,1,0,0,1,0,0,1,0,0,hexagon,circle,,,,,,,,,,,,,,,,,,,,,,,,,,,,,,,,,,,,,,,,,,,,,,,,,,,,,,
295234,2022-09-24_23h04.48.543,vts_reward_expectancy,2022.2.4,MacIntel,60.0024001,Chrome,1440,900,,,a,0.561,10,32,0,0,4,4,2,1,1,0,0,0,0,0,0,1,triangle,star,,,,,,,,,,,,,,,,,,,,,,,,,,,,,,,,,,,,,,,,,,,,,,,,,,,,,,
295234,2022-09-24_23h04.48.543,vts_reward_expectancy,2022.2.4,MacIntel,60.0024001,Chrome,1440,900,,,a,0.5248,10,42,0,0,5,5,9,1,0,0,0,1,1,0,0,0,star,triangle,,,,,,,,,,,,,,,,,,,,,,,,,,,,,,,,,,,,,,,,,,,,,,,,,,,,,,
295234,2022-09-24_23h04.48.543,vts_reward_expectancy,2022.2.4,MacIntel,60.0024001,Chrome,1440,900,,,l,1.5452,1,43,0,0,6,6,5,1,0,1,0,0,0,0,0,1,circle,star,,,,,,,,,,,,,,,,,,,,,,,,,,,,,,,,,,,,,,,,,,,,,,,,,,,,,,
295234,2022-09-24_23h04.48.543,vts_reward_expectancy,2022.2.4,MacIntel,60.0024001,Chrome,1440,900,,,a,0.6825,10,53,0,0,7,7,4,1,0,1,0,0,0,0,1,0,circle,hexagon,,,,,,,,,,,,,,,,,,,,,,,,,,,,,,,,,,,,,,,,,,,,,,,,,,,,,,
295234,2022-09-24_23h04.48.543,vts_reward_expectancy,2022.2.4,MacIntel,60.0024001,Chrome,1440,900,,,l,1.1339,1,54,0,0,8,8,3,1,0,1,0,0,1,0,0,0,circle,triangle,,,,,,,,,,,,,,,,,,,,,,,,,,,,,,,,,,,,,,,,,,,,,,,,,,,,,,
295234,2022-09-24_23h04.48.543,vts_reward_expectancy,2022.2.4,MacIntel,60.0024001,Chrome,1440,900,,,l,0.5507,10,64,0,0,9,9,11,1,0,0,0,1,0,0,1,0,star,hexagon,,,,,,,,,,,,,,,,,,,,,,,,,,,,,,,,,,,,,,,,,,,,,,,,,,,,,,
295234,2022-09-24_23h04.48.543,vts_reward_expectancy,2022.2.4,MacIntel,60.0024001,Chrome,1440,900,,,l,0.501,1,65,0,0,10,10,10,1,0,0,0,1,0,1,0,0,star ,circle,,,,,,,,,,,,,,,,,,,,,,,,,,,,,,,,,,,,,,,,,,,,,,,,,,,,,,
295234,2022-09-24_23h04.48.543,vts_reward_expectancy,2022.2.4,MacIntel,60.0024001,Chrome,1440,900,,,a,0.5677,10,75,0,0,11,11,8,1,0,0,1,0,0,0,0,1,hexagon,star,,,,,,,,,,,,,,,,,,,,,,,,,,,,,,,,,,,,,,,,,,,,,,,,,,,,,,
295234,2022-09-24_23h04.48.543,vts_reward_expectancy,2022.2.4,MacIntel,60.0024001,Chrome,1440,900,,,a,0.6989,10,85,0,1,0,12,4,1,0,1,0,0,0,0,1,0,circle,hexagon,,,,,,,,,,,,,,,,,,,,,,,,,,,,,,,,,,,,,,,,,,,,,,,,,,,,,,
295234,2022-09-24_23h04.48.543,vts_reward_expectancy,2022.2.4,MacIntel,60.0024001,Chrome,1440,900,,,a,1.1501,1,86,0,1,1,13,0,1,1,0,0,0,0,1,0,0,triangle,circle,,,,,,,,,,,,,,,,,,,,,,,,,,,,,,,,,,,,,,,,,,,,,,,,,,,,,,
295234,2022-09-24_23h04.48.543,vts_reward_expectancy,2022.2.4,MacIntel,60.0024001,Chrome,1440,900,,,l,0.4673,1,87,0,1,2,14,10,1,0,0,0,1,0,1,0,0,star ,circle,,,,,,,,,,,,,,,,,,,,,,,,,,,,,,,,,,,,,,,,,,,,,,,,,,,,,,
295234,2022-09-24_23h04.48.543,vts_reward_expectancy,2022.2.4,MacIntel,60.0024001,Chrome,1440,900,,,a,0.5696,1,88,0,1,3,15,3,1,0,1,0,0,1,0,0,0,circle,triangle,,,,,,,,,,,,,,,,,,,,,,,,,,,,,,,,,,,,,,,,,,,,,,,,,,,,,,
295234,2022-09-24_23h04.48.543,vts_reward_expectancy,2022.2.4,MacIntel,60.0024001,Chrome,1440,900,,,a,0.4682,1,89,0,1,4,16,1,1,1,0,0,0,0,0,1,0,triangle,hexagon,,,,,,,,,,,,,,,,,,,,,,,,,,,,,,,,,,,,,,,,,,,,,,,,,,,,,,
295234,2022-09-24_23h04.48.543,vts_reward_expectancy,2022.2.4,MacIntel,60.0024001,Chrome,1440,900,,,a,1.7163,1,90,0,1,5,17,7,1,0,0,1,0,0,1,0,0,hexagon,circle,,,,,,,,,,,,,,,,,,,,,,,,,,,,,,,,,,,,,,,,,,,,,,,,,,,,,,
295234,2022-09-24_23h04.48.543,vts_reward_expectancy,2022.2.4,MacIntel,60.0024001,Chrome,1440,900,,,l,0.7099,10,100,0,1,6,18,11,1,0,0,0,1,0,0,1,0,star,hexagon,,,,,,,,,,,,,,,,,,,,,,,,,,,,,,,,,,,,,,,,,,,,,,,,,,,,,,
295234,2022-09-24_23h04.48.543,vts_reward_expectancy,2022.2.4,MacIntel,60.0024001,Chrome,1440,900,,,a,0.5901,1,101,0,1,7,19,8,1,0,0,1,0,0,0,0,1,hexagon,star,,,,,,,,,,,,,,,,,,,,,,,,,,,,,,,,,,,,,,,,,,,,,,,,,,,,,,
295234,2022-09-24_23h04.48.543,vts_reward_expectancy,2022.2.4,MacIntel,60.0024001,Chrome,1440,900,,,l,0.5063,1,102,0,1,8,20,9,1,0,0,0,1,1,0,0,0,star,triangle,,,,,,,,,,,,,,,,,,,,,,,,,,,,,,,,,,,,,,,,,,,,,,,,,,,,,,
295234,2022-09-24_23h04.48.543,vts_reward_expectancy,2022.2.4,MacIntel,60.0024001,Chrome,1440,900,,,a,0.4506,10,112,0,1,9,21,5,1,0,1,0,0,0,0,0,1,circle,star,,,,,,,,,,,,,,,,,,,,,,,,,,,,,,,,,,,,,,,,,,,,,,,,,,,,,,
295234,2022-09-24_23h04.48.543,vts_reward_expectancy,2022.2.4,MacIntel,60.0024001,Chrome,1440,900,,,a,0.4648,10,122,0,1,10,22,2,1,1,0,0,0,0,0,0,1,triangle,star,,,,,,,,,,,,,,,,,,,,,,,,,,,,,,,,,,,,,,,,,,,,,,,,,,,,,,
295234,2022-09-24_23h04.48.543,vts_reward_expectancy,2022.2.4,MacIntel,60.0024001,Chrome,1440,900,,,l,0.8671,1,123,0,1,11,23,6,1,0,0,1,0,1,0,0,0,hexagon,triangle,,,,,,,,,,,,,,,,,,,,,,,,,,,,,,,,,,,,,,,,,,,,,,,,,,,,,,
295234,2022-09-24_23h04.48.543,vts_reward_expectancy,2022.2.4,MacIntel,60.0024001,Chrome,1440,900,,,l,0.4882,1,124,0,2,0,24,10,1,0,0,0,1,0,1,0,0,star ,circle,,,,,,,,,,,,,,,,,,,,,,,,,,,,,,,,,,,,,,,,,,,,,,,,,,,,,,
295234,2022-09-24_23h04.48.543,vts_reward_expectancy,2022.2.4,MacIntel,60.0024001,Chrome,1440,900,,,l,0.474,1,125,0,2,1,25,9,1,0,0,0,1,1,0,0,0,star,triangle,,,,,,,,,,,,,,,,,,,,,,,,,,,,,,,,,,,,,,,,,,,,,,,,,,,,,,
295234,2022-09-24_23h04.48.543,vts_reward_expectancy,2022.2.4,MacIntel,60.0024001,Chrome,1440,900,,,a,0.4189,1,126,0,2,2,26,0,1,1,0,0,0,0,1,0,0,triangle,circle,,,,,,,,,,,,,,,,,,,,,,,,,,,,,,,,,,,,,,,,,,,,,,,,,,,,,,
295234,2022-09-24_23h04.48.543,vts_reward_expectancy,2022.2.4,MacIntel,60.0024001,Chrome,1440,900,,,a,0.3967,1,127,0,2,3,27,2,1,1,0,0,0,0,0,0,1,triangle,star,,,,,,,,,,,,,,,,,,,,,,,,,,,,,,,,,,,,,,,,,,,,,,,,,,,,,,
295234,2022-09-24_23h04.48.543,vts_reward_expectancy,2022.2.4,MacIntel,60.0024001,Chrome,1440,900,,,l,0.4573,1,128,0,2,4,28,11,1,0,0,0,1,0,0,1,0,star,hexagon,,,,,,,,,,,,,,,,,,,,,,,,,,,,,,,,,,,,,,,,,,,,,,,,,,,,,,
295234,2022-09-24_23h04.48.543,vts_reward_expectancy,2022.2.4,MacIntel,60.0024001,Chrome,1440,900,,,a,0.3688,10,138,0,2,5,29,8,1,0,0,1,0,0,0,0,1,hexagon,star,,,,,,,,,,,,,,,,,,,,,,,,,,,,,,,,,,,,,,,,,,,,,,,,,,,,,,
295234,2022-09-24_23h04.48.543,vts_reward_expectancy,2022.2.4,MacIntel,60.0024001,Chrome,1440,900,,,a,1.0224,1,139,0,2,6,30,5,1,0,1,0,0,0,0,0,1,circle,star,,,,,,,,,,,,,,,,,,,,,,,,,,,,,,,,,,,,,,,,,,,,,,,,,,,,,,
295234,2022-09-24_23h04.48.543,vts_reward_expectancy,2022.2.4,MacIntel,60.0024001,Chrome,1440,900,,,l,0.5616,1,140,0,2,7,31,7,1,0,0,1,0,0,1,0,0,hexagon,circle,,,,,,,,,,,,,,,,,,,,,,,,,,,,,,,,,,,,,,,,,,,,,,,,,,,,,,
295234,2022-09-24_23h04.48.543,vts_reward_expectancy,2022.2.4,MacIntel,60.0024001,Chrome,1440,900,,,a,0.5052,10,150,0,2,8,32,4,1,0,1,0,0,0,0,1,0,circle,hexagon,,,,,,,,,,,,,,,,,,,,,,,,,,,,,,,,,,,,,,,,,,,,,,,,,,,,,,
295234,2022-09-24_23h04.48.543,vts_reward_expectancy,2022.2.4,MacIntel,60.0024001,Chrome,1440,900,,,a,0.451,10,160,0,2,9,33,3,1,0,1,0,0,1,0,0,0,circle,triangle,,,,,,,,,,,,,,,,,,,,,,,,,,,,,,,,,,,,,,,,,,,,,,,,,,,,,,
295234,2022-09-24_23h04.48.543,vts_reward_expectancy,2022.2.4,MacIntel,60.0024001,Chrome,1440,900,,,a,0.5183,1,161,0,2,10,34,1,1,1,0,0,0,0,0,1,0,triangle,hexagon,,,,,,,,,,,,,,,,,,,,,,,,,,,,,,,,,,,,,,,,,,,,,,,,,,,,,,
295234,2022-09-24_23h04.48.543,vts_reward_expectancy,2022.2.4,MacIntel,60.0024001,Chrome,1440,900,,,a,0.6208,1,162,0,2,11,35,6,1,0,0,1,0,1,0,0,0,hexagon,triangle,,,,,,,,,,,,,,,,,,,,,,,,,,,,,,,,,,,,,,,,,,,,,,,,,,,,,,
295234,2022-09-24_23h04.48.543,vts_reward_expectancy,2022.2.4,MacIntel,60.0024001,Chrome,1440,900,,,a,1.2789,1,163,1,0,0,0,8,1,0,0,1,0,0,0,0,1,hexagon,star,,,,,,,,,,,,,,,,,,,,,,,,,,,,,,,,,,,,,,,,,,,,,,,,,,,,,,
295234,2022-09-24_23h04.48.543,vts_reward_expectancy,2022.2.4,MacIntel,60.0024001,Chrome,1440,900,,,a,0.4416,1,164,1,0,1,1,5,1,0,1,0,0,0,0,0,1,circle,star,,,,,,,,,,,,,,,,,,,,,,,,,,,,,,,,,,,,,,,,,,,,,,,,,,,,,,
295234,2022-09-24_23h04.48.543,vts_reward_expectancy,2022.2.4,MacIntel,60.0024001,Chrome,1440,900,,,a,0.6329,10,174,1,0,2,2,4,1,0,1,0,0,0,0,1,0,circle,hexagon,,,,,,,,,,,,,,,,,,,,,,,,,,,,,,,,,,,,,,,,,,,,,,,,,,,,,,
295234,2022-09-24_23h04.48.543,vts_reward_expectancy,2022.2.4,MacIntel,60.0024001,Chrome,1440,900,,,l,0.6663,1,175,1,0,3,3,0,1,1,0,0,0,0,1,0,0,triangle,circle,,,,,,,,,,,,,,,,,,,,,,,,,,,,,,,,,,,,,,,,,,,,,,,,,,,,,,
295234,2022-09-24_23h04.48.543,vts_reward_expectancy,2022.2.4,MacIntel,60.0024001,Chrome,1440,900,,,l,0.6774,10,185,1,0,4,4,7,1,0,0,1,0,0,1,0,0,hexagon,circle,,,,,,,,,,,,,,,,,,,,,,,,,,,,,,,,,,,,,,,,,,,,,,,,,,,,,,
295234,2022-09-24_23h04.48.543,vts_reward_expectancy,2022.2.4,MacIntel,60.0024001,Chrome,1440,900,,,a,0.4342,1,186,1,0,5,5,3,1,0,1,0,0,1,0,0,0,circle,triangle,,,,,,,,,,,,,,,,,,,,,,,,,,,,,,,,,,,,,,,,,,,,,,,,,,,,,,
295234,2022-09-24_23h04.48.543,vts_reward_expectancy,2022.2.4,MacIntel,60.0024001,Chrome,1440,900,,,l,0.6188,1,187,1,0,6,6,10,1,0,0,0,1,0,1,0,0,star ,circle,,,,,,,,,,,,,,,,,,,,,,,,,,,,,,,,,,,,,,,,,,,,,,,,,,,,,,
295234,2022-09-24_23h04.48.543,vts_reward_expectancy,2022.2.4,MacIntel,60.0024001,Chrome,1440,900,,,l,0.4417,1,188,1,0,7,7,9,1,0,0,0,1,1,0,0,0,star,triangle,,,,,,,,,,,,,,,,,,,,,,,,,,,,,,,,,,,,,,,,,,,,,,,,,,,,,,
295234,2022-09-24_23h04.48.543,vts_reward_expectancy,2022.2.4,MacIntel,60.0024001,Chrome,1440,900,,,l,0.4753,1,189,1,0,8,8,11,1,0,0,0,1,0,0,1,0,star,hexagon,,,,,,,,,,,,,,,,,,,,,,,,,,,,,,,,,,,,,,,,,,,,,,,,,,,,,,
295234,2022-09-24_23h04.48.543,vts_reward_expectancy,2022.2.4,MacIntel,60.0024001,Chrome,1440,900,,,a,0.5015,1,190,1,0,9,9,6,1,0,0,1,0,1,0,0,0,hexagon,triangle,,,,,,,,,,,,,,,,,,,,,,,,,,,,,,,,,,,,,,,,,,,,,,,,,,,,,,
295234,2022-09-24_23h04.48.543,vts_reward_expectancy,2022.2.4,MacIntel,60.0024001,Chrome,1440,900,,,a,0.5458,1,191,1,0,10,10,2,1,1,0,0,0,0,0,0,1,triangle,star,,,,,,,,,,,,,,,,,,,,,,,,,,,,,,,,,,,,,,,,,,,,,,,,,,,,,,
295234,2022-09-24_23h04.48.543,vts_reward_expectancy,2022.2.4,MacIntel,60.0024001,Chrome,1440,900,,,l,1.1021,10,201,1,0,11,11,1,1,1,0,0,0,0,0,1,0,triangle,hexagon,,,,,,,,,,,,,,,,,,,,,,,,,,,,,,,,,,,,,,,,,,,,,,,,,,,,,,
295234,2022-09-24_23h04.48.543,vts_reward_expectancy,2022.2.4,MacIntel,60.0024001,Chrome,1440,900,,,a,1.2458,10,211,1,1,0,12,10,1,0,0,0,1,0,1,0,0,star ,circle,,,,,,,,,,,,,,,,,,,,,,,,,,,,,,,,,,,,,,,,,,,,,,,,,,,,,,
295234,2022-09-24_23h04.48.543,vts_reward_expectancy,2022.2.4,MacIntel,60.0024001,Chrome,1440,900,,,l,0.9315,1,212,1,1,1,13,0,1,1,0,0,0,0,1,0,0,triangle,circle,,,,,,,,,,,,,,,,,,,,,,,,,,,,,,,,,,,,,,,,,,,,,,,,,,,,,,
295234,2022-09-24_23h04.48.543,vts_reward_expectancy,2022.2.4,MacIntel,60.0024001,Chrome,1440,900,,,l,0.7434,1,213,1,1,2,14,9,1,0,0,0,1,1,0,0,0,star,triangle,,,,,,,,,,,,,,,,,,,,,,,,,,,,,,,,,,,,,,,,,,,,,,,,,,,,,,
295234,2022-09-24_23h04.48.543,vts_reward_expectancy,2022.2.4,MacIntel,60.0024001,Chrome,1440,900,,,a,0.6377,1,214,1,1,3,15,7,1,0,0,1,0,0,1,0,0,hexagon,circle,,,,,,,,,,,,,,,,,,,,,,,,,,,,,,,,,,,,,,,,,,,,,,,,,,,,,,
295234,2022-09-24_23h04.48.543,vts_reward_expectancy,2022.2.4,MacIntel,60.0024001,Chrome,1440,900,,,a,0.6921,10,224,1,1,4,16,11,1,0,0,0,1,0,0,1,0,star,hexagon,,,,,,,,,,,,,,,,,,,,,,,,,,,,,,,,,,,,,,,,,,,,,,,,,,,,,,
295234,2022-09-24_23h04.48.543,vts_reward_expectancy,2022.2.4,MacIntel,60.0024001,Chrome,1440,900,,,l,0.7403,1,225,1,1,5,17,4,1,0,1,0,0,0,0,1,0,circle,hexagon,,,,,,,,,,,,,,,,,,,,,,,,,,,,,,,,,,,,,,,,,,,,,,,,,,,,,,
295234,2022-09-24_23h04.48.543,vts_reward_expectancy,2022.2.4,MacIntel,60.0024001,Chrome,1440,900,,,l,1.7677,1,226,1,1,6,18,1,1,1,0,0,0,0,0,1,0,triangle,hexagon,,,,,,,,,,,,,,,,,,,,,,,,,,,,,,,,,,,,,,,,,,,,,,,,,,,,,,
295234,2022-09-24_23h04.48.543,vts_reward_expectancy,2022.2.4,MacIntel,60.0024001,Chrome,1440,900,,,a,0.802,10,236,1,1,7,19,6,1,0,0,1,0,1,0,0,0,hexagon,triangle,,,,,,,,,,,,,,,,,,,,,,,,,,,,,,,,,,,,,,,,,,,,,,,,,,,,,,
295234,2022-09-24_23h04.48.543,vts_reward_expectancy,2022.2.4,MacIntel,60.0024001,Chrome,1440,900,,,a,0.7768,10,246,1,1,8,20,3,1,0,1,0,0,1,0,0,0,circle,triangle,,,,,,,,,,,,,,,,,,,,,,,,,,,,,,,,,,,,,,,,,,,,,,,,,,,,,,
295234,2022-09-24_23h04.48.543,vts_reward_expectancy,2022.2.4,MacIntel,60.0024001,Chrome,1440,900,,,a,0.5729,1,247,1,1,9,21,2,1,1,0,0,0,0,0,0,1,triangle,star,,,,,,,,,,,,,,,,,,,,,,,,,,,,,,,,,,,,,,,,,,,,,,,,,,,,,,
295234,2022-09-24_23h04.48.543,vts_reward_expectancy,2022.2.4,MacIntel,60.0024001,Chrome,1440,900,,,l,1.082,10,257,1,1,10,22,5,1,0,1,0,0,0,0,0,1,circle,star,,,,,,,,,,,,,,,,,,,,,,,,,,,,,,,,,,,,,,,,,,,,,,,,,,,,,,
295234,2022-09-24_23h04.48.543,vts_reward_expectancy,2022.2.4,MacIntel,60.0024001,Chrome,1440,900,,,l,0.6021,10,267,1,1,11,23,8,1,0,0,1,0,0,0,0,1,hexagon,star,,,,,,,,,,,,,,,,,,,,,,,,,,,,,,,,,,,,,,,,,,,,,,,,,,,,,,
295234,2022-09-24_23h04.48.543,vts_reward_expectancy,2022.2.4,MacIntel,60.0024001,Chrome,1440,900,,,l,0.5993,10,277,1,2,0,24,8,1,0,0,1,0,0,0,0,1,hexagon,star,,,,,,,,,,,,,,,,,,,,,,,,,,,,,,,,,,,,,,,,,,,,,,,,,,,,,,
295234,2022-09-24_23h04.48.543,vts_reward_expectancy,2022.2.4,MacIntel,60.0024001,Chrome,1440,900,,,l,0.8904,1,278,1,2,1,25,1,1,1,0,0,0,0,0,1,0,triangle,hexagon,,,,,,,,,,,,,,,,,,,,,,,,,,,,,,,,,,,,,,,,,,,,,,,,,,,,,,
295234,2022-09-24_23h04.48.543,vts_reward_expectancy,2022.2.4,MacIntel,60.0024001,Chrome,1440,900,,,a,0.5617,1,279,1,2,2,26,3,1,0,1,0,0,1,0,0,0,circle,triangle,,,,,,,,,,,,,,,,,,,,,,,,,,,,,,,,,,,,,,,,,,,,,,,,,,,,,,
295234,2022-09-24_23h04.48.543,vts_reward_expectancy,2022.2.4,MacIntel,60.0024001,Chrome,1440,900,,,l,0.588,1,280,1,2,3,27,0,1,1,0,0,0,0,1,0,0,triangle,circle,,,,,,,,,,,,,,,,,,,,,,,,,,,,,,,,,,,,,,,,,,,,,,,,,,,,,,
295234,2022-09-24_23h04.48.543,vts_reward_expectancy,2022.2.4,MacIntel,60.0024001,Chrome,1440,900,,,a,0.5304,10,290,1,2,4,28,6,1,0,0,1,0,1,0,0,0,hexagon,triangle,,,,,,,,,,,,,,,,,,,,,,,,,,,,,,,,,,,,,,,,,,,,,,,,,,,,,,
295234,2022-09-24_23h04.48.543,vts_reward_expectancy,2022.2.4,MacIntel,60.0024001,Chrome,1440,900,,,a,0.3736,10,300,1,2,5,29,10,1,0,0,0,1,0,1,0,0,star ,circle,,,,,,,,,,,,,,,,,,,,,,,,,,,,,,,,,,,,,,,,,,,,,,,,,,,,,,
295234,2022-09-24_23h04.48.543,vts_reward_expectancy,2022.2.4,MacIntel,60.0024001,Chrome,1440,900,,,a,0.4353,1,301,1,2,6,30,11,1,0,0,0,1,0,0,1,0,star,hexagon,,,,,,,,,,,,,,,,,,,,,,,,,,,,,,,,,,,,,,,,,,,,,,,,,,,,,,
295234,2022-09-24_23h04.48.543,vts_reward_expectancy,2022.2.4,MacIntel,60.0024001,Chrome,1440,900,,,l,0.718,1,302,1,2,7,31,2,1,1,0,0,0,0,0,0,1,triangle,star,,,,,,,,,,,,,,,,,,,,,,,,,,,,,,,,,,,,,,,,,,,,,,,,,,,,,,
295234,2022-09-24_23h04.48.543,vts_reward_expectancy,2022.2.4,MacIntel,60.0024001,Chrome,1440,900,,,a,0.8356,1,303,1,2,8,32,7,1,0,0,1,0,0,1,0,0,hexagon,circle,,,,,,,,,,,,,,,,,,,,,,,,,,,,,,,,,,,,,,,,,,,,,,,,,,,,,,
295234,2022-09-24_23h04.48.543,vts_reward_expectancy,2022.2.4,MacIntel,60.0024001,Chrome,1440,900,,,l,0.6116,1,304,1,2,9,33,4,1,0,1,0,0,0,0,1,0,circle,hexagon,,,,,,,,,,,,,,,,,,,,,,,,,,,,,,,,,,,,,,,,,,,,,,,,,,,,,,
295234,2022-09-24_23h04.48.543,vts_reward_expectancy,2022.2.4,MacIntel,60.0024001,Chrome,1440,900,,,a,0.7572,10,314,1,2,10,34,9,1,0,0,0,1,1,0,0,0,star,triangle,,,,,,,,,,,,,,,,,,,,,,,,,,,,,,,,,,,,,,,,,,,,,,,,,,,,,,
295234,2022-09-24_23h04.48.543,vts_reward_expectancy,2022.2.4,MacIntel,60.0024001,Chrome,1440,900,,,l,0.4893,10,324,1,2,11,35,5,1,0,1,0,0,0,0,0,1,circle,star,,,,,,,,,,,,,,,,,,,,,,,,,,,,,,,,,,,,,,,,,,,,,,,,,,,,,,
295234,2022-09-24_23h04.48.543,vts_reward_expectancy,2022.2.4,MacIntel,60.0024001,Chrome,1440,900,,,a,1.0106,10,334,2,0,0,0,11,1,0,0,0,1,0,0,1,0,star,hexagon,,,,,,,,,,,,,,,,,,,,,,,,,,,,,,,,,,,,,,,,,,,,,,,,,,,,,,
295234,2022-09-24_23h04.48.543,vts_reward_expectancy,2022.2.4,MacIntel,60.0024001,Chrome,1440,900,,,a,0.4005,10,344,2,0,1,1,9,1,0,0,0,1,1,0,0,0,star,triangle,,,,,,,,,,,,,,,,,,,,,,,,,,,,,,,,,,,,,,,,,,,,,,,,,,,,,,
295234,2022-09-24_23h04.48.543,vts_reward_expectancy,2022.2.4,MacIntel,60.0024001,Chrome,1440,900,,,l,0.4908,10,354,2,0,2,2,5,1,0,1,0,0,0,0,0,1,circle,star,,,,,,,,,,,,,,,,,,,,,,,,,,,,,,,,,,,,,,,,,,,,,,,,,,,,,,
295234,2022-09-24_23h04.48.543,vts_reward_expectancy,2022.2.4,MacIntel,60.0024001,Chrome,1440,900,,,a,0.5076,1,355,2,0,3,3,0,1,1,0,0,0,0,1,0,0,triangle,circle,,,,,,,,,,,,,,,,,,,,,,,,,,,,,,,,,,,,,,,,,,,,,,,,,,,,,,
295234,2022-09-24_23h04.48.543,vts_reward_expectancy,2022.2.4,MacIntel,60.0024001,Chrome,1440,900,,,l,0.387,10,365,2,0,4,4,8,1,0,0,1,0,0,0,0,1,hexagon,star,,,,,,,,,,,,,,,,,,,,,,,,,,,,,,,,,,,,,,,,,,,,,,,,,,,,,,
295234,2022-09-24_23h04.48.543,vts_reward_expectancy,2022.2.4,MacIntel,60.0024001,Chrome,1440,900,,,l,0.602,10,375,2,0,5,5,1,1,1,0,0,0,0,0,1,0,triangle,hexagon,,,,,,,,,,,,,,,,,,,,,,,,,,,,,,,,,,,,,,,,,,,,,,,,,,,,,,
295234,2022-09-24_23h04.48.543,vts_reward_expectancy,2022.2.4,MacIntel,60.0024001,Chrome,1440,900,,,l,0.5399,10,385,2,0,6,6,2,1,1,0,0,0,0,0,0,1,triangle,star,,,,,,,,,,,,,,,,,,,,,,,,,,,,,,,,,,,,,,,,,,,,,,,,,,,,,,
295234,2022-09-24_23h04.48.543,vts_reward_expectancy,2022.2.4,MacIntel,60.0024001,Chrome,1440,900,,,l,0.7348,10,395,2,0,7,7,4,1,0,1,0,0,0,0,1,0,circle,hexagon,,,,,,,,,,,,,,,,,,,,,,,,,,,,,,,,,,,,,,,,,,,,,,,,,,,,,,
295234,2022-09-24_23h04.48.543,vts_reward_expectancy,2022.2.4,MacIntel,60.0024001,Chrome,1440,900,,,l,0.6531,1,396,2,0,8,8,3,1,0,1,0,0,1,0,0,0,circle,triangle,,,,,,,,,,,,,,,,,,,,,,,,,,,,,,,,,,,,,,,,,,,,,,,,,,,,,,
295234,2022-09-24_23h04.48.543,vts_reward_expectancy,2022.2.4,MacIntel,60.0024001,Chrome,1440,900,,,a,0.5218,1,397,2,0,9,9,10,1,0,0,0,1,0,1,0,0,star ,circle,,,,,,,,,,,,,,,,,,,,,,,,,,,,,,,,,,,,,,,,,,,,,,,,,,,,,,
295234,2022-09-24_23h04.48.543,vts_reward_expectancy,2022.2.4,MacIntel,60.0024001,Chrome,1440,900,,,a,0.6404,1,398,2,0,10,10,6,1,0,0,1,0,1,0,0,0,hexagon,triangle,,,,,,,,,,,,,,,,,,,,,,,,,,,,,,,,,,,,,,,,,,,,,,,,,,,,,,
295234,2022-09-24_23h04.48.543,vts_reward_expectancy,2022.2.4,MacIntel,60.0024001,Chrome,1440,900,,,a,0.7516,1,399,2,0,11,11,7,1,0,0,1,0,0,1,0,0,hexagon,circle,,,,,,,,,,,,,,,,,,,,,,,,,,,,,,,,,,,,,,,,,,,,,,,,,,,,,,
295234,2022-09-24_23h04.48.543,vts_reward_expectancy,2022.2.4,MacIntel,60.0024001,Chrome,1440,900,,,l,0.5019,10,409,2,1,0,12,5,1,0,1,0,0,0,0,0,1,circle,star,,,,,,,,,,,,,,,,,,,,,,,,,,,,,,,,,,,,,,,,,,,,,,,,,,,,,,
295234,2022-09-24_23h04.48.543,vts_reward_expectancy,2022.2.4,MacIntel,60.0024001,Chrome,1440,900,,,l,0.5523,1,410,2,1,1,13,4,1,0,1,0,0,0,0,1,0,circle,hexagon,,,,,,,,,,,,,,,,,,,,,,,,,,,,,,,,,,,,,,,,,,,,,,,,,,,,,,
295234,2022-09-24_23h04.48.543,vts_reward_expectancy,2022.2.4,MacIntel,60.0024001,Chrome,1440,900,,,l,0.9507,10,420,2,1,2,14,3,1,0,1,0,0,1,0,0,0,circle,triangle,,,,,,,,,,,,,,,,,,,,,,,,,,,,,,,,,,,,,,,,,,,,,,,,,,,,,,
295234,2022-09-24_23h04.48.543,vts_reward_expectancy,2022.2.4,MacIntel,60.0024001,Chrome,1440,900,,,l,0.4658,1,421,2,1,3,15,8,1,0,0,1,0,0,0,0,1,hexagon,star,,,,,,,,,,,,,,,,,,,,,,,,,,,,,,,,,,,,,,,,,,,,,,,,,,,,,,
295234,2022-09-24_23h04.48.543,vts_reward_expectancy,2022.2.4,MacIntel,60.0024001,Chrome,1440,900,,,l,0.7848,10,431,2,1,4,16,7,1,0,0,1,0,0,1,0,0,hexagon,circle,,,,,,,,,,,,,,,,,,,,,,,,,,,,,,,,,,,,,,,,,,,,,,,,,,,,,,
295234,2022-09-24_23h04.48.543,vts_reward_expectancy,2022.2.4,MacIntel,60.0024001,Chrome,1440,900,,,a,0.4682,10,441,2,1,5,17,10,1,0,0,0,1,0,1,0,0,star ,circle,,,,,,,,,,,,,,,,,,,,,,,,,,,,,,,,,,,,,,,,,,,,,,,,,,,,,,
295234,2022-09-24_23h04.48.543,vts_reward_expectancy,2022.2.4,MacIntel,60.0024001,Chrome,1440,900,,,a,0.3576,10,451,2,1,6,18,11,1,0,0,0,1,0,0,1,0,star,hexagon,,,,,,,,,,,,,,,,,,,,,,,,,,,,,,,,,,,,,,,,,,,,,,,,,,,,,,
295234,2022-09-24_23h04.48.543,vts_reward_expectancy,2022.2.4,MacIntel,60.0024001,Chrome,1440,900,,,l,0.6673,1,452,2,1,7,19,1,1,1,0,0,0,0,0,1,0,triangle,hexagon,,,,,,,,,,,,,,,,,,,,,,,,,,,,,,,,,,,,,,,,,,,,,,,,,,,,,,
295234,2022-09-24_23h04.48.543,vts_reward_expectancy,2022.2.4,MacIntel,60.0024001,Chrome,1440,900,,,a,0.449,10,462,2,1,8,20,6,1,0,0,1,0,1,0,0,0,hexagon,triangle,,,,,,,,,,,,,,,,,,,,,,,,,,,,,,,,,,,,,,,,,,,,,,,,,,,,,,
295234,2022-09-24_23h04.48.543,vts_reward_expectancy,2022.2.4,MacIntel,60.0024001,Chrome,1440,900,,,a,0.4999,1,463,2,1,9,21,0,1,1,0,0,0,0,1,0,0,triangle,circle,,,,,,,,,,,,,,,,,,,,,,,,,,,,,,,,,,,,,,,,,,,,,,,,,,,,,,
295234,2022-09-24_23h04.48.543,vts_reward_expectancy,2022.2.4,MacIntel,60.0024001,Chrome,1440,900,,,a,0.4088,10,473,2,1,10,22,9,1,0,0,0,1,1,0,0,0,star,triangle,,,,,,,,,,,,,,,,,,,,,,,,,,,,,,,,,,,,,,,,,,,,,,,,,,,,,,
295234,2022-09-24_23h04.48.543,vts_reward_expectancy,2022.2.4,MacIntel,60.0024001,Chrome,1440,900,,,l,0.5175,10,483,2,1,11,23,2,1,1,0,0,0,0,0,0,1,triangle,star,,,,,,,,,,,,,,,,,,,,,,,,,,,,,,,,,,,,,,,,,,,,,,,,,,,,,,
295234,2022-09-24_23h04.48.543,vts_reward_expectancy,2022.2.4,MacIntel,60.0024001,Chrome,1440,900,,,a,1.4867,1,484,2,2,0,24,0,1,1,0,0,0,0,1,0,0,triangle,circle,,,,,,,,,,,,,,,,,,,,,,,,,,,,,,,,,,,,,,,,,,,,,,,,,,,,,,
295234,2022-09-24_23h04.48.543,vts_reward_expectancy,2022.2.4,MacIntel,60.0024001,Chrome,1440,900,,,a,1.042,10,494,2,2,1,25,6,1,0,0,1,0,1,0,0,0,hexagon,triangle,,,,,,,,,,,,,,,,,,,,,,,,,,,,,,,,,,,,,,,,,,,,,,,,,,,,,,
295234,2022-09-24_23h04.48.543,vts_reward_expectancy,2022.2.4,MacIntel,60.0024001,Chrome,1440,900,,,a,0.5744,10,504,2,2,2,26,10,1,0,0,0,1,0,1,0,0,star ,circle,,,,,,,,,,,,,,,,,,,,,,,,,,,,,,,,,,,,,,,,,,,,,,,,,,,,,,
295234,2022-09-24_23h04.48.543,vts_reward_expectancy,2022.2.4,MacIntel,60.0024001,Chrome,1440,900,,,l,0.6355,10,514,2,2,3,27,1,1,1,0,0,0,0,0,1,0,triangle,hexagon,,,,,,,,,,,,,,,,,,,,,,,,,,,,,,,,,,,,,,,,,,,,,,,,,,,,,,
295234,2022-09-24_23h04.48.543,vts_reward_expectancy,2022.2.4,MacIntel,60.0024001,Chrome,1440,900,,,a,0.4249,1,515,2,2,4,28,9,1,0,0,0,1,1,0,0,0,star,triangle,,,,,,,,,,,,,,,,,,,,,,,,,,,,,,,,,,,,,,,,,,,,,,,,,,,,,,
295234,2022-09-24_23h04.48.543,vts_reward_expectancy,2022.2.4,MacIntel,60.0024001,Chrome,1440,900,,,l,0.652,1,516,2,2,5,29,2,1,1,0,0,0,0,0,0,1,triangle,star,,,,,,,,,,,,,,,,,,,,,,,,,,,,,,,,,,,,,,,,,,,,,,,,,,,,,,
295234,2022-09-24_23h04.48.543,vts_reward_expectancy,2022.2.4,MacIntel,60.0024001,Chrome,1440,900,,,l,0.5659,1,517,2,2,6,30,8,1,0,0,1,0,0,0,0,1,hexagon,star,,,,,,,,,,,,,,,,,,,,,,,,,,,,,,,,,,,,,,,,,,,,,,,,,,,,,,
295234,2022-09-24_23h04.48.543,vts_reward_expectancy,2022.2.4,MacIntel,60.0024001,Chrome,1440,900,,,a,0.4938,10,527,2,2,7,31,11,1,0,0,0,1,0,0,1,0,star,hexagon,,,,,,,,,,,,,,,,,,,,,,,,,,,,,,,,,,,,,,,,,,,,,,,,,,,,,,
295234,2022-09-24_23h04.48.543,vts_reward_expectancy,2022.2.4,MacIntel,60.0024001,Chrome,1440,900,,,a,0.7328,1,528,2,2,8,32,7,1,0,0,1,0,0,1,0,0,hexagon,circle,,,,,,,,,,,,,,,,,,,,,,,,,,,,,,,,,,,,,,,,,,,,,,,,,,,,,,
295234,2022-09-24_23h04.48.543,vts_reward_expectancy,2022.2.4,MacIntel,60.0024001,Chrome,1440,900,,,a,1.3666,1,529,2,2,9,33,3,1,0,1,0,0,1,0,0,0,circle,triangle,,,,,,,,,,,,,,,,,,,,,,,,,,,,,,,,,,,,,,,,,,,,,,,,,,,,,,
295234,2022-09-24_23h04.48.543,vts_reward_expectancy,2022.2.4,MacIntel,60.0024001,Chrome,1440,900,,,l,0.7759,10,539,2,2,10,34,4,1,0,1,0,0,0,0,1,0,circle,hexagon,,,,,,,,,,,,,,,,,,,,,,,,,,,,,,,,,,,,,,,,,,,,,,,,,,,,,,
295234,2022-09-24_23h04.48.543,vts_reward_expectancy,2022.2.4,MacIntel,60.0024001,Chrome,1440,900,,,l,0.4581,1,540,2,2,11,35,5,1,0,1,0,0,0,0,0,1,circle,star,,,,,,,,,,,,,,,,,,,,,,,,,,,,,,,,,,,,,,,,,,,,,,,,,,,,,,
295234,2022-09-24_23h04.48.543,vts_reward_expectancy,2022.2.4,MacIntel,60.0024001,Chrome,1440,900,,,,,,,,,,,,,,,,,,,,,,,146,S,circle,1,0,d,2.5106,0,0,0,0,0,1,,,,,,,,,,,,,,,,,,,,,,,,,,,,,,,,,,,,,,,,,
295234,2022-09-24_23h04.48.543,vts_reward_expectancy,2022.2.4,MacIntel,60.0024001,Chrome,1440,900,,,,,,,,,,,,,,,,,,,,,,,125,B,hexagon,1,0,d,0.5975,0,1,0,1,0,1,,,,,,,,,,,,,,,,,,,,,,,,,,,,,,,,,,,,,,,,,
295234,2022-09-24_23h04.48.543,vts_reward_expectancy,2022.2.4,MacIntel,60.0024001,Chrome,1440,900,,,,,,,,,,,,,,,,,,,,,,,139,F,star,1,0,d,0.4857,0,2,0,2,0,1,,,,,,,,,,,,,,,,,,,,,,,,,,,,,,,,,,,,,,,,,
295234,2022-09-24_23h04.48.543,vts_reward_expectancy,2022.2.4,MacIntel,60.0024001,Chrome,1440,900,,,,,,,,,,,,,,,,,,,,,,,132,W,triangle,1,0,d,0.699,0,3,0,3,0,1,,,,,,,,,,,,,,,,,,,,,,,,,,,,,,,,,,,,,,,,,
295234,2022-09-24_23h04.48.543,vts_reward_expectancy,2022.2.4,MacIntel,60.0024001,Chrome,1440,900,,,,,,,,,,,,,,,,,,,,,,,174,U,circle,1,0,f,0.6777,0,4,0,4,0,1,,,,,,,,,,,,,,,,,,,,,,,,,,,,,,,,,,,,,,,,,
295234,2022-09-24_23h04.48.543,vts_reward_expectancy,2022.2.4,MacIntel,60.0024001,Chrome,1440,900,,,,,,,,,,,,,,,,,,,,,,,167,H,hexagon,1,0,f,0.98,0,5,0,5,0,1,,,,,,,,,,,,,,,,,,,,,,,,,,,,,,,,,,,,,,,,,
295234,2022-09-24_23h04.48.543,vts_reward_expectancy,2022.2.4,MacIntel,60.0024001,Chrome,1440,900,,,,,,,,,,,,,,,,,,,,,,,160,Y,star,1,0,f,0.8174,0,6,0,6,0,1,,,,,,,,,,,,,,,,,,,,,,,,,,,,,,,,,,,,,,,,,
295234,2022-09-24_23h04.48.543,vts_reward_expectancy,2022.2.4,MacIntel,60.0024001,Chrome,1440,900,,,,,,,,,,,,,,,,,,,,,,,181,D,triangle,0,0,,,0,7,0,7,0,1,,,,,,,,,,,,,,,,,,,,,,,,,,,,,,,,,,,,,,,,,
295234,2022-09-24_23h04.48.543,vts_reward_expectancy,2022.2.4,MacIntel,60.0024001,Chrome,1440,900,,,,,,,,,,,,,,,,,,,,,,,146,S,triangle,1,1,d,2.0565,0,8,0,8,0,1,,,,,,,,,,,,,,,,,,,,,,,,,,,,,,,,,,,,,,,,,
295234,2022-09-24_23h04.48.543,vts_reward_expectancy,2022.2.4,MacIntel,60.0024001,Chrome,1440,900,,,,,,,,,,,,,,,,,,,,,,,125,B,star,1,0,d,1.3349,0,9,0,9,0,1,,,,,,,,,,,,,,,,,,,,,,,,,,,,,,,,,,,,,,,,,
295234,2022-09-24_23h04.48.543,vts_reward_expectancy,2022.2.4,MacIntel,60.0024001,Chrome,1440,900,,,,,,,,,,,,,,,,,,,,,,,167,D,star,1,0,,,1,,,,,,j,1.7537,0,0,0,0,1,,,,,,,,,,,,,,,,,,,,,,,,,,,,,,,,,,
295234,2022-09-24_23h04.48.543,vts_reward_expectancy,2022.2.4,MacIntel,60.0024001,Chrome,1440,900,,,,,,,,,,,,,,,,,,,,,,,139,Y,triangle,1,0,,,1,,,,,,k,1.0185,1,0,1,0,1,,,,,,,,,,,,,,,,,,,,,,,,,,,,,,,,,,
295234,2022-09-24_23h04.48.543,vts_reward_expectancy,2022.2.4,MacIntel,60.0024001,Chrome,1440,900,,,,,,,,,,,,,,,,,,,,,,,181,U,circle,1,0,,,1,,,,,,k,1.2192,2,0,2,0,1,,,,,,,,,,,,,,,,,,,,,,,,,,,,,,,,,,
295234,2022-09-24_23h04.48.543,vts_reward_expectancy,2022.2.4,MacIntel,60.0024001,Chrome,1440,900,,,,,,,,,,,,,,,,,,,,,,,132,F,hexagon,0,0,,,1,,,,,,k,0.9575,3,0,3,0,1,,,,,,,,,,,,,,,,,,,,,,,,,,,,,,,,,,
295234,2022-09-24_23h04.48.543,vts_reward_expectancy,2022.2.4,MacIntel,60.0024001,Chrome,1440,900,,,,,,,,,,,,,,,,,,,,,,,160,B,star,1,1,,,1,,,,,,j,0.9905,4,0,4,0,1,,,,,,,,,,,,,,,,,,,,,,,,,,,,,,,,,,
295234,2022-09-24_23h04.48.543,vts_reward_expectancy,2022.2.4,MacIntel,60.0024001,Chrome,1440,900,,,,,,,,,,,,,,,,,,,,,,,125,W,triangle,1,0,,,1,,,,,,k,0.9002,5,0,5,0,1,,,,,,,,,,,,,,,,,,,,,,,,,,,,,,,,,,
295234,2022-09-24_23h04.48.543,vts_reward_expectancy,2022.2.4,MacIntel,60.0024001,Chrome,1440,900,,,,,,,,,,,,,,,,,,,,,,,146,H,circle,1,0,,,1,,,,,,j,0.9216,6,0,6,0,1,,,,,,,,,,,,,,,,,,,,,,,,,,,,,,,,,,
295234,2022-09-24_23h04.48.543,vts_reward_expectancy,2022.2.4,MacIntel,60.0024001,Chrome,1440,900,,,,,,,,,,,,,,,,,,,,,,,174,S,hexagon,1,0,,,1,,,,,,k,0.9074,7,0,7,0,1,,,,,,,,,,,,,,,,,,,,,,,,,,,,,,,,,,
295234,2022-09-24_23h04.48.543,vts_reward_expectancy,2022.2.4,MacIntel,60.0024001,Chrome,1440,900,,,,,,,,,,,,,,,,,,,,,,,167,D,hexagon,1,0,,,1,,,,,,j,0.8459,8,0,8,0,1,,,,,,,,,,,,,,,,,,,,,,,,,,,,,,,,,,
295234,2022-09-24_23h04.48.543,vts_reward_expectancy,2022.2.4,MacIntel,60.0024001,Chrome,1440,900,,,,,,,,,,,,,,,,,,,,,,,139,Y,triangle,1,0,,,1,,,,,,k,0.6688,9,0,9,0,1,,,,,,,,,,,,,,,,,,,,,,,,,,,,,,,,,,
295234,2022-09-24_23h04.48.543,vts_reward_expectancy,2022.2.4,MacIntel,60.0024001,Chrome,1440,900,,,,,0,540,,,,,,,,,,,,,,,,,174,D,triangle,1,0,,,2,,,,,,,,,,,,,-1,letter,NA,j,1.5202,vtsPrac,0,0,0,0,1,,,,,,,,,,,,,,,,,,,,,,,
295234,2022-09-24_23h04.48.543,vts_reward_expectancy,2022.2.4,MacIntel,60.0024001,Chrome,1440,900,,,,,0,540,,,,,,,,,,,,,,,,,167,B,hexagon,1,0,,,2,,,,,,,,,,,,,repeat,letter,lettRpt,j,0.9469,vtsPrac,1,0,1,0,1,,,,,,,,,,,,,,,,,,,,,,,
295234,2022-09-24_23h04.48.543,vts_reward_expectancy,2022.2.4,MacIntel,60.0024001,Chrome,1440,900,,,,,0,540,,,,,,,,,,,,,,,,,181,Y,triangle,1,0,,,2,,,,,,,,,,,,,switch,number,numSwt,f,1.5308,vtsPrac,2,0,2,0,1,,,,,,,,,,,,,,,,,,,,,,,
295234,2022-09-24_23h04.48.543,vts_reward_expectancy,2022.2.4,MacIntel,60.0024001,Chrome,1440,900,,,,,0,540,,,,,,,,,,,,,,,,,132,H,hexagon,1,0,,,2,,,,,,,,,,,,,switch,letter,lettSwt,j,0.8125,vtsPrac,3,0,3,0,1,,,,,,,,,,,,,,,,,,,,,,,
295234,2022-09-24_23h04.48.543,vts_reward_expectancy,2022.2.4,MacIntel,60.0024001,Chrome,1440,900,,,,,0,540,,,,,,,,,,,,,,,,,174,D,star,1,0,,,2,,,,,,,,,,,,,switch,number,numSwt,f,1.368,vtsPrac,4,0,4,0,1,,,,,,,,,,,,,,,,,,,,,,,
295234,2022-09-24_23h04.48.543,vts_reward_expectancy,2022.2.4,MacIntel,60.0024001,Chrome,1440,900,,,,,0,540,,,,,,,,,,,,,,,,,167,B,hexagon,1,0,,,2,,,,,,,,,,,,,repeat,number,numRpt,f,0.7794,vtsPrac,5,0,5,0,1,,,,,,,,,,,,,,,,,,,,,,,
295234,2022-09-24_23h04.48.543,vts_reward_expectancy,2022.2.4,MacIntel,60.0024001,Chrome,1440,900,,,,,0,540,,,,,,,,,,,,,,,,,181,Y,star,1,0,,,2,,,,,,,,,,,,,repeat,number,numRpt,f,0.6094,vtsPrac,6,0,6,0,1,,,,,,,,,,,,,,,,,,,,,,,
295234,2022-09-24_23h04.48.543,vts_reward_expectancy,2022.2.4,MacIntel,60.0024001,Chrome,1440,900,,,,,0,540,,,,,,,,,,,,,,,,,132,H,triangle,1,0,,,2,,,,,,,,,,,,,switch,letter,lettSwt,j,0.922,vtsPrac,7,0,7,0,1,,,,,,,,,,,,,,,,,,,,,,,
295234,2022-09-24_23h04.48.543,vts_reward_expectancy,2022.2.4,MacIntel,60.0024001,Chrome,1440,900,,,,,0,540,,,,,,,,,,,,,,,,,146,U,triangle,1,0,,,2,,,,,,,,,,,,,repeat,letter,lettRpt,k,0.7837,vtsPrac,8,0,8,0,1,,,,,,,,,,,,,,,,,,,,,,,
295234,2022-09-24_23h04.48.543,vts_reward_expectancy,2022.2.4,MacIntel,60.0024001,Chrome,1440,900,,,,,0,540,,,,,,,,,,,,,,,,,167,D,circle,1,0,,,2,,,,,,,,,,,,,repeat,letter,lettRpt,j,0.8156,vtsPrac,9,0,9,0,1,,,,,,,,,,,,,,,,,,,,,,,
295234,2022-09-24_23h04.48.543,vts_reward_expectancy,2022.2.4,MacIntel,60.0024001,Chrome,1440,900,,,,,0,540,,,,,,,,,,,,,,,,,125,H,circle,1,0,,,2,,,,,,,,,,,,,switch,number,numSwt,d,1.088,vtsPrac,10,0,10,0,1,,,,,,,,,,,,,,,,,,,,,,,
295234,2022-09-24_23h04.48.543,vts_reward_expectancy,2022.2.4,MacIntel,60.0024001,Chrome,1440,900,,,,,0,540,,,,,,,,,,,,,,,,,139,F,triangle,1,0,,,2,,,,,,,,,,,,,switch,letter,lettSwt,j,0.9833,vtsPrac,11,0,11,0,1,,,,,,,,,,,,,,,,,,,,,,,
295234,2022-09-24_23h04.48.543,vts_reward_expectancy,2022.2.4,MacIntel,60.0024001,Chrome,1440,900,,,,,0,540,,,,,,,,,,,,,,,,,132,F,triangle,1,0,,,2,,,,,,,,,,,,,switch,number,numSwt,d,1.4841,vtsPrac,12,0,12,0,1,,,,,,,,,,,,,,,,,,,,,,,
295234,2022-09-24_23h04.48.543,vts_reward_expectancy,2022.2.4,MacIntel,60.0024001,Chrome,1440,900,,,,,0,540,,,,,,,,,,,,,,,,,146,U,circle,1,0,,,2,,,,,,,,,,,,,repeat,number,numRpt,d,1.1307,vtsPrac,13,0,13,0,1,,,,,,,,,,,,,,,,,,,,,,,
295234,2022-09-24_23h04.48.543,vts_reward_expectancy,2022.2.4,MacIntel,60.0024001,Chrome,1440,900,,,,,0,540,,,,,,,,,,,,,,,,,167,D,hexagon,1,0,,,2,,,,,,,,,,,,,switch,letter,lettSwt,j,0.8451,vtsPrac,14,0,14,0,1,,,,,,,,,,,,,,,,,,,,,,,
295234,2022-09-24_23h04.48.543,vts_reward_expectancy,2022.2.4,MacIntel,60.0024001,Chrome,1440,900,,,,,0,540,,,,,,,,,,,,,,,,,160,Y,star,1,0,,,2,,,,,,,,,,,,,switch,number,numSwt,f,2.8836,vtsPrac,15,0,15,0,1,,,,,,,,,,,,,,,,,,,,,,,
295234,2022-09-24_23h04.48.543,vts_reward_expectancy,2022.2.4,MacIntel,60.0024001,Chrome,1440,900,,,,,,,,,,,,,,,,,,,,,,,,,,,,,,,,,,,,,,,,,,,,,,,,,,,,,,,,,,,,,,,,,,,,,,,,,,,,
295234,2022-09-24_23h04.48.543,vts_reward_expectancy,2022.2.4,MacIntel,60.0024001,Chrome,1440,900,,,,,,,,,,,,,,,,,,,,,,,,,,,,,,,,,,,,,,,,,,,,,,,,,,,,,,,,,,,,,,,,,,,,,,,,,,,,
295234,2022-09-24_23h04.48.543,vts_reward_expectancy,2022.2.4,MacIntel,60.0024001,Chrome,1440,900,,,,,0,540,,,,,,,,,,,,,,,,,125,S,star,1,0,,,,,,,,,,,,,,,,repeat,number,numRpt,d,2.031,noRew,,,,,,0,0,0,0,0,1,,,,,,,,,,,,,,,,,
295234,2022-09-24_23h04.48.543,vts_reward_expectancy,2022.2.4,MacIntel,60.0024001,Chrome,1440,900,,,,,0,540,,,,,,,,,,,,,,,,,167,B,triangle,1,0,,,,,,,,,,,,,,,,switch,letter,lettSwt,j,0.8126,noRew,,,,,,0,1,0,1,0,1,,,,,,,,,,,,,,,,,
295234,2022-09-24_23h04.48.543,vts_reward_expectancy,2022.2.4,MacIntel,60.0024001,Chrome,1440,900,,,,,0,540,,,,,,,,,,,,,,,,,160,D,star,1,0,,,,,,,,,,,,,,,,switch,number,numSwt,f,1.5348,noRew,,,,,,0,2,0,2,0,1,,,,,,,,,,,,,,,,,
295234,2022-09-24_23h04.48.543,vts_reward_expectancy,2022.2.4,MacIntel,60.0024001,Chrome,1440,900,,,,,0,540,,,,,,,,,,,,,,,,,181,H,triangle,1,0,,,,,,,,,,,,,,,,switch,letter,lettSwt,j,0.7421,noRew,,,,,,0,3,0,3,0,1,,,,,,,,,,,,,,,,,
295234,2022-09-24_23h04.48.543,vts_reward_expectancy,2022.2.4,MacIntel,60.0024001,Chrome,1440,900,,,,,0,540,,,,,,,,,,,,,,,,,125,S,hexagon,1,0,,,,,,,,,,,,,,,,repeat,letter,lettRpt,k,0.6073,noRew,,,,,,0,4,0,4,0,1,,,,,,,,,,,,,,,,,
295234,2022-09-24_23h04.48.543,vts_reward_expectancy,2022.2.4,MacIntel,60.0024001,Chrome,1440,900,,,,,0,540,,,,,,,,,,,,,,,,,167,B,triangle,1,0,,,,,,,,,,,,,,,,repeat,letter,lettRpt,j,0.7119,noRew,,,,,,0,5,0,5,0,1,,,,,,,,,,,,,,,,,
295234,2022-09-24_23h04.48.543,vts_reward_expectancy,2022.2.4,MacIntel,60.0024001,Chrome,1440,900,,,,,0,540,,,,,,,,,,,,,,,,,160,D,hexagon,1,0,,,,,,,,,,,,,,,,switch,number,numSwt,f,0.8834,noRew,,,,,,0,6,0,6,0,1,,,,,,,,,,,,,,,,,
295234,2022-09-24_23h04.48.543,vts_reward_expectancy,2022.2.4,MacIntel,60.0024001,Chrome,1440,900,,,,,0,540,,,,,,,,,,,,,,,,,181,H,triangle,1,0,,,,,,,,,,,,,,,,switch,letter,lettSwt,j,0.8851,noRew,,,,,,0,7,0,7,0,1,,,,,,,,,,,,,,,,,
295234,2022-09-24_23h04.48.543,vts_reward_expectancy,2022.2.4,MacIntel,60.0024001,Chrome,1440,900,,,,,0,540,,,,,,,,,,,,,,,,,167,S,star,1,0,,,,,,,,,,,,,,,,switch,number,numSwt,f,0.9926,noRew,,,,,,0,8,0,8,0,1,,,,,,,,,,,,,,,,,
295234,2022-09-24_23h04.48.543,vts_reward_expectancy,2022.2.4,MacIntel,60.0024001,Chrome,1440,900,,,,,0,540,,,,,,,,,,,,,,,,,132,W,circle,1,0,,,,,,,,,,,,,,,,repeat,number,numRpt,d,1.2116,noRew,,,,,,0,9,0,9,0,1,,,,,,,,,,,,,,,,,
295234,2022-09-24_23h04.48.543,vts_reward_expectancy,2022.2.4,MacIntel,60.0024001,Chrome,1440,900,,,,,0,540,,,,,,,,,,,,,,,,,181,H,circle,1,0,,,,,,,,,,,,,,,,repeat,number,numRpt,f,0.7862,noRew,,,,,,0,10,0,10,0,1,,,,,,,,,,,,,,,,,
295234,2022-09-24_23h04.48.543,vts_reward_expectancy,2022.2.4,MacIntel,60.0024001,Chrome,1440,900,,,,,0,540,,,,,,,,,,,,,,,,,160,Y,star,1,0,,,,,,,,,,,,,,,,repeat,number,numRpt,f,0.8848,noRew,,,,,,0,11,0,11,0,1,,,,,,,,,,,,,,,,,
295234,2022-09-24_23h04.48.543,vts_reward_expectancy,2022.2.4,MacIntel,60.0024001,Chrome,1440,900,,,,,0,540,,,,,,,,,,,,,,,,,181,H,star,1,0,,,,,,,,,,,,,,,,switch,letter,lettSwt,j,1.1975,noRew,,,,,,0,12,0,12,0,1,,,,,,,,,,,,,,,,,
295234,2022-09-24_23h04.48.543,vts_reward_expectancy,2022.2.4,MacIntel,60.0024001,Chrome,1440,900,,,,,0,540,,,,,,,,,,,,,,,,,146,U,hexagon,1,0,,,,,,,,,,,,,,,,repeat,letter,lettRpt,k,0.6363,noRew,,,,,,0,13,0,13,0,1,,,,,,,,,,,,,,,,,
295234,2022-09-24_23h04.48.543,vts_reward_expectancy,2022.2.4,MacIntel,60.0024001,Chrome,1440,900,,,,,0,540,,,,,,,,,,,,,,,,,174,B,hexagon,1,0,,,,,,,,,,,,,,,,repeat,letter,lettRpt,j,0.7851,noRew,,,,,,0,14,0,14,0,1,,,,,,,,,,,,,,,,,
295234,2022-09-24_23h04.48.543,vts_reward_expectancy,2022.2.4,MacIntel,60.0024001,Chrome,1440,900,,,,,0,540,,,,,,,,,,,,,,,,,160,W,star,1,0,,,,,,,,,,,,,,,,switch,number,numSwt,f,1.9378,noRew,,,,,,0,15,0,15,0,1,,,,,,,,,,,,,,,,,
295234,2022-09-24_23h04.48.543,vts_reward_expectancy,2022.2.4,MacIntel,60.0024001,Chrome,1440,900,,,,,0,540,,,,,,,,,,,,,,,,,146,H,star,1,0,,,,,,,,,,,,,,,,switch,letter,lettSwt,j,0.9453,noRew,,,,,,0,16,0,16,0,1,,,,,,,,,,,,,,,,,
295234,2022-09-24_23h04.48.543,vts_reward_expectancy,2022.2.4,MacIntel,60.0024001,Chrome,1440,900,,,,,0,540,,,,,,,,,,,,,,,,,125,F,circle,1,0,,,,,,,,,,,,,,,,switch,number,numSwt,d,0.7492,noRew,,,,,,0,17,0,17,0,1,,,,,,,,,,,,,,,,,
295234,2022-09-24_23h04.48.543,vts_reward_expectancy,2022.2.4,MacIntel,60.0024001,Chrome,1440,900,,,,,0,540,,,,,,,,,,,,,,,,,181,B,star,1,0,,,,,,,,,,,,,,,,repeat,number,numRpt,f,0.6821,noRew,,,,,,0,18,0,18,0,1,,,,,,,,,,,,,,,,,
295234,2022-09-24_23h04.48.543,vts_reward_expectancy,2022.2.4,MacIntel,60.0024001,Chrome,1440,900,,,,,0,540,,,,,,,,,,,,,,,,,139,Y,circle,1,0,,,,,,,,,,,,,,,,repeat,number,numRpt,d,1.2965,noRew,,,,,,0,19,0,19,0,1,,,,,,,,,,,,,,,,,
295234,2022-09-24_23h04.48.543,vts_reward_expectancy,2022.2.4,MacIntel,60.0024001,Chrome,1440,900,,,,,0,540,,,,,,,,,,,,,,,,,139,Y,circle,1,0,,,,,,,,,,,,,,,,repeat,number,numRpt,d,1.7552,noRew,,,,,,0,20,0,20,0,1,,,,,,,,,,,,,,,,,
295234,2022-09-24_23h04.48.543,vts_reward_expectancy,2022.2.4,MacIntel,60.0024001,Chrome,1440,900,,,,,0,540,,,,,,,,,,,,,,,,,146,B,triangle,1,0,,,,,,,,,,,,,,,,switch,letter,lettSwt,j,0.7436,noRew,,,,,,0,21,0,21,0,1,,,,,,,,,,,,,,,,,
295234,2022-09-24_23h04.48.543,vts_reward_expectancy,2022.2.4,MacIntel,60.0024001,Chrome,1440,900,,,,,0,540,,,,,,,,,,,,,,,,,132,H,star,1,0,,,,,,,,,,,,,,,,repeat,letter,lettRpt,j,0.9202,noRew,,,,,,0,22,0,22,0,1,,,,,,,,,,,,,,,,,
295234,2022-09-24_23h04.48.543,vts_reward_expectancy,2022.2.4,MacIntel,60.0024001,Chrome,1440,900,,,,,0,540,,,,,,,,,,,,,,,,,181,D,triangle,1,0,,,,,,,,,,,,,,,,repeat,letter,lettRpt,j,0.8046,noRew,,,,,,0,23,0,23,0,1,,,,,,,,,,,,,,,,,
295234,2022-09-24_23h04.48.543,vts_reward_expectancy,2022.2.4,MacIntel,60.0024001,Chrome,1440,900,,,,,0,540,,,,,,,,,,,,,,,,,181,D,hexagon,1,0,,,,,,,,,,,,,,,,repeat,letter,lettRpt,j,1.0507,noRew,,,,,,0,24,0,24,0,1,,,,,,,,,,,,,,,,,
295234,2022-09-24_23h04.48.543,vts_reward_expectancy,2022.2.4,MacIntel,60.0024001,Chrome,1440,900,,,,,0,540,,,,,,,,,,,,,,,,,167,W,star,1,0,,,,,,,,,,,,,,,,switch,number,numSwt,f,1.0848,noRew,,,,,,0,25,0,25,0,1,,,,,,,,,,,,,,,,,
295234,2022-09-24_23h04.48.543,vts_reward_expectancy,2022.2.4,MacIntel,60.0024001,Chrome,1440,900,,,,,0,540,,,,,,,,,,,,,,,,,132,S,circle,1,0,,,,,,,,,,,,,,,,repeat,number,numRpt,d,1.714,noRew,,,,,,0,26,0,26,0,1,,,,,,,,,,,,,,,,,
295234,2022-09-24_23h04.48.543,vts_reward_expectancy,2022.2.4,MacIntel,60.0024001,Chrome,1440,900,,,,,0,540,,,,,,,,,,,,,,,,,139,U,triangle,1,0,,,,,,,,,,,,,,,,switch,letter,lettSwt,k,0.5368,noRew,,,,,,0,27,0,27,0,1,,,,,,,,,,,,,,,,,
295234,2022-09-24_23h04.48.543,vts_reward_expectancy,2022.2.4,MacIntel,60.0024001,Chrome,1440,900,,,,,0,540,,,,,,,,,,,,,,,,,174,U,star,1,0,,,,,,,,,,,,,,,,switch,number,numSwt,f,0.8737,noRew,,,,,,0,28,0,28,0,1,,,,,,,,,,,,,,,,,
295234,2022-09-24_23h04.48.543,vts_reward_expectancy,2022.2.4,MacIntel,60.0024001,Chrome,1440,900,,,,,0,540,,,,,,,,,,,,,,,,,181,Y,triangle,1,0,,,,,,,,,,,,,,,,switch,letter,lettSwt,k,0.8807,noRew,,,,,,0,29,0,29,0,1,,,,,,,,,,,,,,,,,
295234,2022-09-24_23h04.48.543,vts_reward_expectancy,2022.2.4,MacIntel,60.0024001,Chrome,1440,900,,,,,0,540,,,,,,,,,,,,,,,,,160,H,star,1,0,,,,,,,,,,,,,,,,switch,number,numSwt,f,0.8017,noRew,,,,,,0,30,0,30,0,1,,,,,,,,,,,,,,,,,
295234,2022-09-24_23h04.48.543,vts_reward_expectancy,2022.2.4,MacIntel,60.0024001,Chrome,1440,900,,,,,0,540,,,,,,,,,,,,,,,,,167,F,circle,1,0,,,,,,,,,,,,,,,,repeat,number,numRpt,f,1.0138,noRew,,,,,,0,31,0,31,0,1,,,,,,,,,,,,,,,,,
295234,2022-09-24_23h04.48.543,vts_reward_expectancy,2022.2.4,MacIntel,60.0024001,Chrome,1440,900,,,,,0,540,,,,,,,,,,,,,,,,,132,F,hexagon,1,0,,,,,,,,,,,,,,,,switch,letter,lettSwt,j,0.83,noRew,,,,,,0,32,0,32,0,1,,,,,,,,,,,,,,,,,
295234,2022-09-24_23h04.48.543,vts_reward_expectancy,2022.2.4,MacIntel,60.0024001,Chrome,1440,900,,,,,0,540,,,,,,,,,,,,,,,,,181,W,triangle,1,0,,,,,,,,,,,,,,,,repeat,letter,lettRpt,k,0.6071,noRew,,,,,,0,33,0,33,0,1,,,,,,,,,,,,,,,,,
295234,2022-09-24_23h04.48.543,vts_reward_expectancy,2022.2.4,MacIntel,60.0024001,Chrome,1440,900,,,,,0,540,,,,,,,,,,,,,,,,,160,S,triangle,1,0,,,,,,,,,,,,,,,,repeat,letter,lettRpt,k,0.6945,noRew,,,,,,0,34,0,34,0,1,,,,,,,,,,,,,,,,,
295234,2022-09-24_23h04.48.543,vts_reward_expectancy,2022.2.4,MacIntel,60.0024001,Chrome,1440,900,,,,,0,540,,,,,,,,,,,,,,,,,139,D,hexagon,1,0,,,,,,,,,,,,,,,,repeat,letter,lettRpt,j,0.7421,noRew,,,,,,0,35,0,35,0,1,,,,,,,,,,,,,,,,,
295234,2022-09-24_23h04.48.543,vts_reward_expectancy,2022.2.4,MacIntel,60.0024001,Chrome,1440,900,,,,,0,540,,,,,,,,,,,,,,,,,181,S,star,1,0,,,,,,,,,,,,,,,,switch,number,numSwt,f,0.895,noRew,,,,,,0,36,0,36,0,1,,,,,,,,,,,,,,,,,
295234,2022-09-24_23h04.48.543,vts_reward_expectancy,2022.2.4,MacIntel,60.0024001,Chrome,1440,900,,,,,0,540,,,,,,,,,,,,,,,,,174,Y,circle,1,0,,,,,,,,,,,,,,,,repeat,number,numRpt,f,0.8513,noRew,,,,,,0,37,0,37,0,1,,,,,,,,,,,,,,,,,
295234,2022-09-24_23h04.48.543,vts_reward_expectancy,2022.2.4,MacIntel,60.0024001,Chrome,1440,900,,,,,0,540,,,,,,,,,,,,,,,,,160,F,hexagon,1,0,,,,,,,,,,,,,,,,repeat,number,numRpt,f,0.6126,noRew,,,,,,0,38,0,38,0,1,,,,,,,,,,,,,,,,,
295234,2022-09-24_23h04.48.543,vts_reward_expectancy,2022.2.4,MacIntel,60.0024001,Chrome,1440,900,,,,,0,540,,,,,,,,,,,,,,,,,132,D,triangle,1,0,,,,,,,,,,,,,,,,switch,letter,lettSwt,j,0.7316,noRew,,,,,,0,39,0,39,0,1,,,,,,,,,,,,,,,,,
295234,2022-09-24_23h04.48.543,vts_reward_expectancy,2022.2.4,MacIntel,60.0024001,Chrome,1440,900,,,,,0,540,,,,,,,,,,,,,,,,,174,W,circle,1,0,,,,,,,,,,,,,,,,repeat,letter,lettRpt,k,0.6627,noRew,,,,,,0,40,0,40,0,1,,,,,,,,,,,,,,,,,
295234,2022-09-24_23h04.48.543,vts_reward_expectancy,2022.2.4,MacIntel,60.0024001,Chrome,1440,900,,,,,0,540,,,,,,,,,,,,,,,,,146,H,triangle,1,0,,,,,,,,,,,,,,,,switch,number,numSwt,d,0.8264,noRew,,,,,,0,41,0,41,0,1,,,,,,,,,,,,,,,,,
295234,2022-09-24_23h04.48.543,vts_reward_expectancy,2022.2.4,MacIntel,60.0024001,Chrome,1440,900,,,,,0,540,,,,,,,,,,,,,,,,,167,U,hexagon,1,0,,,,,,,,,,,,,,,,repeat,number,numRpt,f,1.1964,noRew,,,,,,0,42,0,42,0,1,,,,,,,,,,,,,,,,,
295234,2022-09-24_23h04.48.543,vts_reward_expectancy,2022.2.4,MacIntel,60.0024001,Chrome,1440,900,,,,,0,540,,,,,,,,,,,,,,,,,132,B,star,1,0,,,,,,,,,,,,,,,,repeat,number,numRpt,d,0.7697,noRew,,,,,,0,43,0,43,0,1,,,,,,,,,,,,,,,,,
295234,2022-09-24_23h04.48.543,vts_reward_expectancy,2022.2.4,MacIntel,60.0024001,Chrome,1440,900,,,,,0,540,,,,,,,,,,,,,,,,,167,F,hexagon,1,0,,,,,,,,,,,,,,,,repeat,number,numRpt,f,1.2778,noRew,,,,,,0,44,0,44,0,1,,,,,,,,,,,,,,,,,
295234,2022-09-24_23h04.48.543,vts_reward_expectancy,2022.2.4,MacIntel,60.0024001,Chrome,1440,900,,,,,0,540,,,,,,,,,,,,,,,,,160,B,circle,1,0,,,,,,,,,,,,,,,,repeat,number,numRpt,f,2.0298,noRew,,,,,,0,45,0,45,0,1,,,,,,,,,,,,,,,,,
295234,2022-09-24_23h04.48.543,vts_reward_expectancy,2022.2.4,MacIntel,60.0024001,Chrome,1440,900,,,,,0,540,,,,,,,,,,,,,,,,,181,S,hexagon,1,0,,,,,,,,,,,,,,,,switch,letter,lettSwt,k,0.8857,noRew,,,,,,0,46,0,46,0,1,,,,,,,,,,,,,,,,,
295234,2022-09-24_23h04.48.543,vts_reward_expectancy,2022.2.4,MacIntel,60.0024001,Chrome,1440,900,,,,,0,540,,,,,,,,,,,,,,,,,125,H,triangle,1,0,,,,,,,,,,,,,,,,repeat,letter,lettRpt,j,2.0035,noRew,,,,,,0,47,0,47,0,1,,,,,,,,,,,,,,,,,
295234,2022-09-24_23h04.48.543,vts_reward_expectancy,2022.2.4,MacIntel,60.0024001,Chrome,1440,900,,,,,0,540,,,,,,,,,,,,,,,,,174,F,circle,0,0,,,,,,,,,,,,,,,,repeat,letter,NA,k,0.8179,noRew,,,,,,0,48,0,48,0,1,,,,,,,,,,,,,,,,,
295234,2022-09-24_23h04.48.543,vts_reward_expectancy,2022.2.4,MacIntel,60.0024001,Chrome,1440,900,,,,,0,540,,,,,,,,,,,,,,,,,181,B,hexagon,1,1,,,,,,,,,,,,,,,,switch,number,numSwt,f,1.22,noRew,,,,,,0,49,0,49,0,1,,,,,,,,,,,,,,,,,
295234,2022-09-24_23h04.48.543,vts_reward_expectancy,2022.2.4,MacIntel,60.0024001,Chrome,1440,900,,,,,0,540,,,,,,,,,,,,,,,,,160,D,circle,1,0,,,,,,,,,,,,,,,,switch,letter,lettSwt,j,0.6516,noRew,,,,,,0,50,0,50,0,1,,,,,,,,,,,,,,,,,
295234,2022-09-24_23h04.48.543,vts_reward_expectancy,2022.2.4,MacIntel,60.0024001,Chrome,1440,900,,,,,0,540,,,,,,,,,,,,,,,,,167,Y,star,1,0,,,,,,,,,,,,,,,,repeat,letter,lettRpt,k,0.706,noRew,,,,,,0,51,0,51,0,1,,,,,,,,,,,,,,,,,
295234,2022-09-24_23h04.48.543,vts_reward_expectancy,2022.2.4,MacIntel,60.0024001,Chrome,1440,900,,,,,0,540,,,,,,,,,,,,,,,,,174,S,hexagon,1,0,,,,,,,,,,,,,,,,switch,number,numSwt,f,0.8396,noRew,,,,,,0,52,0,52,0,1,,,,,,,,,,,,,,,,,
295234,2022-09-24_23h04.48.543,vts_reward_expectancy,2022.2.4,MacIntel,60.0024001,Chrome,1440,900,,,,,0,540,,,,,,,,,,,,,,,,,125,U,star,1,0,,,,,,,,,,,,,,,,repeat,number,numRpt,d,0.5467,noRew,,,,,,0,53,0,53,0,1,,,,,,,,,,,,,,,,,
295234,2022-09-24_23h04.48.543,vts_reward_expectancy,2022.2.4,MacIntel,60.0024001,Chrome,1440,900,,,,,0,540,,,,,,,,,,,,,,,,,146,Y,star,1,0,,,,,,,,,,,,,,,,switch,letter,lettSwt,k,0.706,noRew,,,,,,0,54,0,54,0,1,,,,,,,,,,,,,,,,,
295234,2022-09-24_23h04.48.543,vts_reward_expectancy,2022.2.4,MacIntel,60.0024001,Chrome,1440,900,,,,,0,540,,,,,,,,,,,,,,,,,139,H,triangle,1,0,,,,,,,,,,,,,,,,switch,number,numSwt,d,1.5958,noRew,,,,,,0,55,0,55,0,1,,,,,,,,,,,,,,,,,
295234,2022-09-24_23h04.48.543,vts_reward_expectancy,2022.2.4,MacIntel,60.0024001,Chrome,1440,900,,,,,0,540,,,,,,,,,,,,,,,,,181,Y,star,1,0,,,,,,,,,,,,,,,,repeat,number,numRpt,f,1.2832,noRew,,,,,,0,56,0,56,0,1,,,,,,,,,,,,,,,,,
295234,2022-09-24_23h04.48.543,vts_reward_expectancy,2022.2.4,MacIntel,60.0024001,Chrome,1440,900,,,,,0,540,,,,,,,,,,,,,,,,,146,W,hexagon,1,0,,,,,,,,,,,,,,,,repeat,number,numRpt,d,1.2595,noRew,,,,,,0,57,0,57,0,1,,,,,,,,,,,,,,,,,
295234,2022-09-24_23h04.48.543,vts_reward_expectancy,2022.2.4,MacIntel,60.0024001,Chrome,1440,900,,,,,0,540,,,,,,,,,,,,,,,,,160,S,triangle,1,0,,,,,,,,,,,,,,,,switch,letter,lettSwt,k,1.3682,noRew,,,,,,0,58,0,58,0,1,,,,,,,,,,,,,,,,,
295234,2022-09-24_23h04.48.543,vts_reward_expectancy,2022.2.4,MacIntel,60.0024001,Chrome,1440,900,,,,,0,540,,,,,,,,,,,,,,,,,174,U,star,1,0,,,,,,,,,,,,,,,,repeat,letter,lettRpt,k,0.7692,noRew,,,,,,0,59,0,59,0,1,,,,,,,,,,,,,,,,,
295234,2022-09-24_23h04.48.543,vts_reward_expectancy,2022.2.4,MacIntel,60.0024001,Chrome,1440,900,,,,,0,540,,,,,,,,,,,,,,,,,174,S,triangle,1,0,,,,,,,,,,,,,,,,repeat,letter,lettRpt,k,0.7659,noRew,,,,,,0,60,0,60,0,1,,,,,,,,,,,,,,,,,
295234,2022-09-24_23h04.48.543,vts_reward_expectancy,2022.2.4,MacIntel,60.0024001,Chrome,1440,900,,,,,0,540,,,,,,,,,,,,,,,,,125,U,circle,1,0,,,,,,,,,,,,,,,,switch,number,numSwt,d,1.0972,noRew,,,,,,0,61,0,61,0,1,,,,,,,,,,,,,,,,,
295234,2022-09-24_23h04.48.543,vts_reward_expectancy,2022.2.4,MacIntel,60.0024001,Chrome,1440,900,,,,,0,540,,,,,,,,,,,,,,,,,139,D,star,1,0,,,,,,,,,,,,,,,,repeat,number,numRpt,d,1.1667,noRew,,,,,,0,62,0,62,0,1,,,,,,,,,,,,,,,,,
295234,2022-09-24_23h04.48.543,vts_reward_expectancy,2022.2.4,MacIntel,60.0024001,Chrome,1440,900,,,,,0,540,,,,,,,,,,,,,,,,,160,B,hexagon,1,0,,,,,,,,,,,,,,,,switch,letter,lettSwt,j,0.9829,noRew,,,,,,0,63,0,63,0,1,,,,,,,,,,,,,,,,,
295234,2022-09-24_23h04.48.543,vts_reward_expectancy,2022.2.4,MacIntel,60.0024001,Chrome,1440,900,,,,,,,,,,,,,,,,,,,,,,,,,,,,,,,,,,,,,,,,,,,,,,,,,,,,,,,,,,,,,,,,,,,,,,,,,,,,
295234,2022-09-24_23h04.48.543,vts_reward_expectancy,2022.2.4,MacIntel,60.0024001,Chrome,1440,900,,,,,0,540,,,,,,,,,,,,,,,,,174,U,star,1,0,,,,,,,,,,,,,,,,switch,number,numSwt,f,0.9745,Hi,,,,,,0,,,,,,space,5.5772,high,0,0,0,0,1,,,,,,,,,
295234,2022-09-24_23h04.48.543,vts_reward_expectancy,2022.2.4,MacIntel,60.0024001,Chrome,1440,900,,,,,1,541,,,,,,,,,,,,,,,,,167,H,triangle,1,0,,,,,,,,,,,,,,,,switch,letter,lettSwt,j,0.6143,Lo,,,,,,0,,,,,,,,high,1,0,1,0,1,,,,,,,,,
295234,2022-09-24_23h04.48.543,vts_reward_expectancy,2022.2.4,MacIntel,60.0024001,Chrome,1440,900,,,,,0,541,,,,,,,,,,,,,,,,,181,B,star,0,0,,,,,,,,,,,,,,,,switch,number,NA,d,0.6859,Lo,,,,,,0,,,,,,,,high,2,0,2,0,1,,,,,,,,,
295234,2022-09-24_23h04.48.543,vts_reward_expectancy,2022.2.4,MacIntel,60.0024001,Chrome,1440,900,,,,,1,542,,,,,,,,,,,,,,,,,160,W,triangle,1,1,,,,,,,,,,,,,,,,repeat,number,numRpt,f,0.6307,Lo,,,,,,0,,,,,,,,high,3,0,3,0,1,,,,,,,,,
295234,2022-09-24_23h04.48.543,vts_reward_expectancy,2022.2.4,MacIntel,60.0024001,Chrome,1440,900,,,,,10,552,,,,,,,,,,,,,,,,,132,F,star,1,0,,,,,,,,,,,,,,,,repeat,number,numRpt,d,0.6109,Hi,,,,,,0,,,,,,,,high,4,0,4,0,1,,,,,,,,,
295234,2022-09-24_23h04.48.543,vts_reward_expectancy,2022.2.4,MacIntel,60.0024001,Chrome,1440,900,,,,,0,552,,,,,,,,,,,,,,,,,146,S,triangle,0,0,,,,,,,,,,,,,,,,repeat,number,NA,f,0.7398,Hi,,,,,,0,,,,,,,,high,5,0,5,0,1,,,,,,,,,
295234,2022-09-24_23h04.48.543,vts_reward_expectancy,2022.2.4,MacIntel,60.0024001,Chrome,1440,900,,,,,10,562,,,,,,,,,,,,,,,,,125,D,star,1,1,,,,,,,,,,,,,,,,switch,letter,lettSwt,j,0.6313,Hi,,,,,,0,,,,,,,,high,6,0,6,0,1,,,,,,,,,
295234,2022-09-24_23h04.48.543,vts_reward_expectancy,2022.2.4,MacIntel,60.0024001,Chrome,1440,900,,,,,10,572,,,,,,,,,,,,,,,,,139,Y,triangle,1,0,,,,,,,,,,,,,,,,repeat,letter,lettRpt,k,0.5945,Lo,,,,,,0,,,,,,,,high,7,0,7,0,1,,,,,,,,,
295234,2022-09-24_23h04.48.543,vts_reward_expectancy,2022.2.4,MacIntel,60.0024001,Chrome,1440,900,,,,,10,582,,,,,,,,,,,,,,,,,174,U,triangle,1,0,,,,,,,,,,,,,,,,repeat,letter,lettRpt,k,0.869,Lo,,,,,,0,,,,,,,,high,8,0,8,0,1,,,,,,,,,
295234,2022-09-24_23h04.48.543,vts_reward_expectancy,2022.2.4,MacIntel,60.0024001,Chrome,1440,900,,,,,10,592,,,,,,,,,,,,,,,,,167,H,star,1,0,,,,,,,,,,,,,,,,switch,number,numSwt,f,0.5193,Hi,,,,,,0,,,,,,,,high,9,0,9,0,1,,,,,,,,,
295234,2022-09-24_23h04.48.543,vts_reward_expectancy,2022.2.4,MacIntel,60.0024001,Chrome,1440,900,,,,,10,602,,,,,,,,,,,,,,,,,181,B,triangle,1,0,,,,,,,,,,,,,,,,repeat,number,numRpt,f,0.6138,Lo,,,,,,0,,,,,,,,high,10,0,10,0,1,,,,,,,,,
295234,2022-09-24_23h04.48.543,vts_reward_expectancy,2022.2.4,MacIntel,60.0024001,Chrome,1440,900,,,,,1,603,,,,,,,,,,,,,,,,,160,W,star,1,0,,,,,,,,,,,,,,,,switch,letter,lettSwt,k,0.6199,Hi,,,,,,0,,,,,,,,high,11,0,11,0,1,,,,,,,,,
295234,2022-09-24_23h04.48.543,vts_reward_expectancy,2022.2.4,MacIntel,60.0024001,Chrome,1440,900,,,,,0,603,,,,,,,,,,,,,,,,,132,F,triangle,0,0,,,,,,,,,,,,,,,,repeat,letter,NA,k,0.4466,Hi,,,,,,0,,,,,,,,high,12,0,12,0,1,,,,,,,,,
295234,2022-09-24_23h04.48.543,vts_reward_expectancy,2022.2.4,MacIntel,60.0024001,Chrome,1440,900,,,,,0,603,,,,,,,,,,,,,,,,,146,S,star,1,1,,,,,,,,,,,,,,,,switch,number,numSwt,d,1.3202,Hi,,,,,,0,,,,,,,,high,13,0,13,0,1,,,,,,,,,
295234,2022-09-24_23h04.48.543,vts_reward_expectancy,2022.2.4,MacIntel,60.0024001,Chrome,1440,900,,,,,10,613,,,,,,,,,,,,,,,,,125,D,star,1,0,,,,,,,,,,,,,,,,switch,letter,lettSwt,j,0.647,Hi,,,,,,0,,,,,,,,high,14,0,14,0,1,,,,,,,,,
295234,2022-09-24_23h04.48.543,vts_reward_expectancy,2022.2.4,MacIntel,60.0024001,Chrome,1440,900,,,,,1,614,,,,,,,,,,,,,,,,,139,Y,triangle,1,0,,,,,,,,,,,,,,,,switch,number,numSwt,d,0.836,Lo,,,,,,0,,,,,,,,high,15,0,15,0,1,,,,,,,,,
295234,2022-09-24_23h04.48.543,vts_reward_expectancy,2022.2.4,MacIntel,60.0024001,Chrome,1440,900,,,,,1,615,,,,,,,,,,,,,,,,,174,H,triangle,1,0,,,,,,,,,,,,,,,,repeat,number,numRpt,f,0.5295,Lo,,,,,,0,,,,,,,,high,16,0,16,0,1,,,,,,,,,
295234,2022-09-24_23h04.48.543,vts_reward_expectancy,2022.2.4,MacIntel,60.0024001,Chrome,1440,900,,,,,0,615,,,,,,,,,,,,,,,,,139,U,star,1,0,,,,,,,,,,,,,,,,switch,letter,lettSwt,k,0.7766,Hi,,,,,,0,,,,,,,,high,17,0,17,0,1,,,,,,,,,
295234,2022-09-24_23h04.48.543,vts_reward_expectancy,2022.2.4,MacIntel,60.0024001,Chrome,1440,900,,,,,0,615,,,,,,,,,,,,,,,,,167,B,star,1,0,,,,,,,,,,,,,,,,repeat,letter,lettRpt,j,0.7663,Hi,,,,,,0,,,,,,,,high,18,0,18,0,1,,,,,,,,,
295234,2022-09-24_23h04.48.543,vts_reward_expectancy,2022.2.4,MacIntel,60.0024001,Chrome,1440,900,,,,,1,616,,,,,,,,,,,,,,,,,181,Y,triangle,1,0,,,,,,,,,,,,,,,,switch,number,numSwt,f,0.5026,Lo,,,,,,0,,,,,,,,high,19,0,19,0,1,,,,,,,,,
295234,2022-09-24_23h04.48.543,vts_reward_expectancy,2022.2.4,MacIntel,60.0024001,Chrome,1440,900,,,,,10,626,,,,,,,,,,,,,,,,,146,S,star,1,0,,,,,,,,,,,,,,,,switch,letter,lettSwt,k,0.4618,Hi,,,,,,0,,,,,,,,high,20,0,20,0,1,,,,,,,,,
295234,2022-09-24_23h04.48.543,vts_reward_expectancy,2022.2.4,MacIntel,60.0024001,Chrome,1440,900,,,,,1,627,,,,,,,,,,,,,,,,,132,D,triangle,1,0,,,,,,,,,,,,,,,,switch,number,numSwt,d,1.0149,Lo,,,,,,0,,,,,,,,high,21,0,21,0,1,,,,,,,,,
295234,2022-09-24_23h04.48.543,vts_reward_expectancy,2022.2.4,MacIntel,60.0024001,Chrome,1440,900,,,,,1,628,,,,,,,,,,,,,,,,,125,W,triangle,1,0,,,,,,,,,,,,,,,,repeat,number,numRpt,d,0.732,Lo,,,,,,0,,,,,,,,high,22,0,22,0,1,,,,,,,,,
295234,2022-09-24_23h04.48.543,vts_reward_expectancy,2022.2.4,MacIntel,60.0024001,Chrome,1440,900,,,,,0,628,,,,,,,,,,,,,,,,,160,F,star,0,0,,,,,,,,,,,,,,,,switch,letter,NA,k,0.6283,Lo,,,,,,0,,,,,,,,high,23,0,23,0,1,,,,,,,,,
295234,2022-09-24_23h04.48.543,vts_reward_expectancy,2022.2.4,MacIntel,60.0024001,Chrome,1440,900,,,,,10,638,,,,,,,,,,,,,,,,,139,W,star,1,1,,,,,,,,,,,,,,,,repeat,letter,lettRpt,k,0.4987,Hi,,,,,,0,,,,,,,,high,24,0,24,0,1,,,,,,,,,
295234,2022-09-24_23h04.48.543,vts_reward_expectancy,2022.2.4,MacIntel,60.0024001,Chrome,1440,900,,,,,0,638,,,,,,,,,,,,,,,,,160,U,triangle,0,0,,,,,,,,,,,,,,,,switch,number,NA,d,0.6695,Hi,,,,,,0,,,,,,,,high,25,0,25,0,1,,,,,,,,,
295234,2022-09-24_23h04.48.543,vts_reward_expectancy,2022.2.4,MacIntel,60.0024001,Chrome,1440,900,,,,,0,638,,,,,,,,,,,,,,,,,167,F,star,0,1,,,,,,,,,,,,,,,,switch,letter,NA,k,0.727,Hi,,,,,,0,,,,,,,,high,26,0,26,0,1,,,,,,,,,
295234,2022-09-24_23h04.48.543,vts_reward_expectancy,2022.2.4,MacIntel,60.0024001,Chrome,1440,900,,,,,10,648,,,,,,,,,,,,,,,,,132,H,triangle,1,1,,,,,,,,,,,,,,,,switch,number,numSwt,d,0.9698,Lo,,,,,,0,,,,,,,,high,27,0,27,0,1,,,,,,,,,
295234,2022-09-24_23h04.48.543,vts_reward_expectancy,2022.2.4,MacIntel,60.0024001,Chrome,1440,900,,,,,10,658,,,,,,,,,,,,,,,,,125,Y,star,1,0,,,,,,,,,,,,,,,,switch,letter,lettSwt,k,0.5839,Hi,,,,,,0,,,,,,,,high,28,0,28,0,1,,,,,,,,,
295234,2022-09-24_23h04.48.543,vts_reward_expectancy,2022.2.4,MacIntel,60.0024001,Chrome,1440,900,,,,,1,659,,,,,,,,,,,,,,,,,181,B,triangle,1,0,,,,,,,,,,,,,,,,switch,number,numSwt,f,0.8525,Lo,,,,,,0,,,,,,,,high,29,0,29,0,1,,,,,,,,,
295234,2022-09-24_23h04.48.543,vts_reward_expectancy,2022.2.4,MacIntel,60.0024001,Chrome,1440,900,,,,,10,669,,,,,,,,,,,,,,,,,146,D,triangle,1,0,,,,,,,,,,,,,,,,repeat,number,numRpt,d,0.9899,Lo,,,,,,0,,,,,,,,high,30,0,30,0,1,,,,,,,,,
295234,2022-09-24_23h04.48.543,vts_reward_expectancy,2022.2.4,MacIntel,60.0024001,Chrome,1440,900,,,,,1,670,,,,,,,,,,,,,,,,,174,S,star,1,0,,,,,,,,,,,,,,,,switch,letter,lettSwt,k,0.7397,Hi,,,,,,0,,,,,,,,high,31,0,31,0,1,,,,,,,,,
295234,2022-09-24_23h04.48.543,vts_reward_expectancy,2022.2.4,MacIntel,60.0024001,Chrome,1440,900,,,,,0,670,,,,,,,,,,,,,,,,,125,F,star,1,0,,,,,,,,,,,,,,,,repeat,letter,lettRpt,j,0.6418,Hi,,,,,,1,,,,,,space,1.8605,high,0,0,0,0,1,,,,,,,,,
295234,2022-09-24_23h04.48.543,vts_reward_expectancy,2022.2.4,MacIntel,60.0024001,Chrome,1440,900,,,,,1,671,,,,,,,,,,,,,,,,,181,U,triangle,1,0,,,,,,,,,,,,,,,,switch,number,numSwt,f,0.5729,Lo,,,,,,1,,,,,,,,high,1,0,1,0,1,,,,,,,,,
295234,2022-09-24_23h04.48.543,vts_reward_expectancy,2022.2.4,MacIntel,60.0024001,Chrome,1440,900,,,,,1,672,,,,,,,,,,,,,,,,,167,S,star,1,0,,,,,,,,,,,,,,,,switch,letter,lettSwt,k,0.535,Hi,,,,,,1,,,,,,,,high,2,0,2,0,1,,,,,,,,,
295234,2022-09-24_23h04.48.543,vts_reward_expectancy,2022.2.4,MacIntel,60.0024001,Chrome,1440,900,,,,,0,672,,,,,,,,,,,,,,,,,174,B,triangle,0,0,,,,,,,,,,,,,,,,switch,number,NA,d,0.4518,Hi,,,,,,1,,,,,,,,high,3,0,3,0,1,,,,,,,,,
295234,2022-09-24_23h04.48.543,vts_reward_expectancy,2022.2.4,MacIntel,60.0024001,Chrome,1440,900,,,,,0,672,,,,,,,,,,,,,,,,,139,Y,star,1,1,,,,,,,,,,,,,,,,repeat,number,numRpt,d,0.7514,Hi,,,,,,1,,,,,,,,high,4,0,4,0,1,,,,,,,,,
295234,2022-09-24_23h04.48.543,vts_reward_expectancy,2022.2.4,MacIntel,60.0024001,Chrome,1440,900,,,,,1,673,,,,,,,,,,,,,,,,,132,W,triangle,1,0,,,,,,,,,,,,,,,,repeat,number,numRpt,d,0.5497,Lo,,,,,,1,,,,,,,,high,5,0,5,0,1,,,,,,,,,
295234,2022-09-24_23h04.48.543,vts_reward_expectancy,2022.2.4,MacIntel,60.0024001,Chrome,1440,900,,,,,1,674,,,,,,,,,,,,,,,,,160,D,triangle,1,0,,,,,,,,,,,,,,,,switch,letter,lettSwt,j,0.5968,Lo,,,,,,1,,,,,,,,high,6,0,6,0,1,,,,,,,,,
295234,2022-09-24_23h04.48.543,vts_reward_expectancy,2022.2.4,MacIntel,60.0024001,Chrome,1440,900,,,,,10,684,,,,,,,,,,,,,,,,,146,H,star,1,0,,,,,,,,,,,,,,,,repeat,letter,lettRpt,j,0.5632,Hi,,,,,,1,,,,,,,,high,7,0,7,0,1,,,,,,,,,
295234,2022-09-24_23h04.48.543,vts_reward_expectancy,2022.2.4,MacIntel,60.0024001,Chrome,1440,900,,,,,1,685,,,,,,,,,,,,,,,,,125,F,triangle,1,0,,,,,,,,,,,,,,,,repeat,letter,lettRpt,j,0.6355,Lo,,,,,,1,,,,,,,,high,8,0,8,0,1,,,,,,,,,
295234,2022-09-24_23h04.48.543,vts_reward_expectancy,2022.2.4,MacIntel,60.0024001,Chrome,1440,900,,,,,10,695,,,,,,,,,,,,,,,,,181,U,star,1,0,,,,,,,,,,,,,,,,switch,number,numSwt,f,0.5023,Hi,,,,,,1,,,,,,,,high,9,0,9,0,1,,,,,,,,,
295234,2022-09-24_23h04.48.543,vts_reward_expectancy,2022.2.4,MacIntel,60.0024001,Chrome,1440,900,,,,,0,695,,,,,,,,,,,,,,,,,167,S,star,1,0,,,,,,,,,,,,,,,,repeat,number,numRpt,f,0.6851,Hi,,,,,,1,,,,,,,,high,10,0,10,0,1,,,,,,,,,
295234,2022-09-24_23h04.48.543,vts_reward_expectancy,2022.2.4,MacIntel,60.0024001,Chrome,1440,900,,,,,10,705,,,,,,,,,,,,,,,,,174,B,triangle,1,0,,,,,,,,,,,,,,,,repeat,number,numRpt,f,0.6186,Lo,,,,,,1,,,,,,,,high,11,0,11,0,1,,,,,,,,,
295234,2022-09-24_23h04.48.543,vts_reward_expectancy,2022.2.4,MacIntel,60.0024001,Chrome,1440,900,,,,,1,706,,,,,,,,,,,,,,,,,139,Y,star,1,0,,,,,,,,,,,,,,,,repeat,number,numRpt,d,0.5427,Hi,,,,,,1,,,,,,,,high,12,0,12,0,1,,,,,,,,,
295234,2022-09-24_23h04.48.543,vts_reward_expectancy,2022.2.4,MacIntel,60.0024001,Chrome,1440,900,,,,,1,707,,,,,,,,,,,,,,,,,132,W,triangle,1,0,,,,,,,,,,,,,,,,repeat,number,numRpt,d,0.5029,Lo,,,,,,1,,,,,,,,high,13,0,13,0,1,,,,,,,,,
295234,2022-09-24_23h04.48.543,vts_reward_expectancy,2022.2.4,MacIntel,60.0024001,Chrome,1440,900,,,,,0,707,,,,,,,,,,,,,,,,,160,D,star,1,0,,,,,,,,,,,,,,,,repeat,number,numRpt,f,0.8283,Hi,,,,,,1,,,,,,,,high,14,0,14,0,1,,,,,,,,,
295234,2022-09-24_23h04.48.543,vts_reward_expectancy,2022.2.4,MacIntel,60.0024001,Chrome,1440,900,,,,,1,708,,,,,,,,,,,,,,,,,146,H,triangle,1,0,,,,,,,,,,,,,,,,repeat,number,numRpt,d,0.6175,Lo,,,,,,1,,,,,,,,high,15,0,15,0,1,,,,,,,,,
295234,2022-09-24_23h04.48.543,vts_reward_expectancy,2022.2.4,MacIntel,60.0024001,Chrome,1440,900,,,,,1,709,,,,,,,,,,,,,,,,,160,W,triangle,1,0,,,,,,,,,,,,,,,,switch,letter,lettSwt,k,0.5456,Lo,,,,,,1,,,,,,,,high,16,0,16,0,1,,,,,,,,,
295234,2022-09-24_23h04.48.543,vts_reward_expectancy,2022.2.4,MacIntel,60.0024001,Chrome,1440,900,,,,,0,709,,,,,,,,,,,,,,,,,146,D,star,1,0,,,,,,,,,,,,,,,,repeat,letter,lettRpt,j,0.6211,Hi,,,,,,1,,,,,,,,high,17,0,17,0,1,,,,,,,,,
295234,2022-09-24_23h04.48.543,vts_reward_expectancy,2022.2.4,MacIntel,60.0024001,Chrome,1440,900,,,,,1,710,,,,,,,,,,,,,,,,,167,F,triangle,1,0,,,,,,,,,,,,,,,,repeat,letter,lettRpt,j,0.6519,Lo,,,,,,1,,,,,,,,high,18,0,18,0,1,,,,,,,,,
295234,2022-09-24_23h04.48.543,vts_reward_expectancy,2022.2.4,MacIntel,60.0024001,Chrome,1440,900,,,,,0,710,,,,,,,,,,,,,,,,,139,Y,star,0,0,,,,,,,,,,,,,,,,repeat,letter,NA,j,0.4302,Lo,,,,,,1,,,,,,,,high,19,0,19,0,1,,,,,,,,,
295234,2022-09-24_23h04.48.543,vts_reward_expectancy,2022.2.4,MacIntel,60.0024001,Chrome,1440,900,,,,,10,720,,,,,,,,,,,,,,,,,174,B,star,1,1,,,,,,,,,,,,,,,,repeat,letter,lettRpt,j,0.5643,Hi,,,,,,1,,,,,,,,high,20,0,20,0,1,,,,,,,,,
295234,2022-09-24_23h04.48.543,vts_reward_expectancy,2022.2.4,MacIntel,60.0024001,Chrome,1440,900,,,,,1,721,,,,,,,,,,,,,,,,,132,H,triangle,1,0,,,,,,,,,,,,,,,,switch,number,numSwt,d,0.5843,Lo,,,,,,1,,,,,,,,high,21,0,21,0,1,,,,,,,,,
295234,2022-09-24_23h04.48.543,vts_reward_expectancy,2022.2.4,MacIntel,60.0024001,Chrome,1440,900,,,,,1,722,,,,,,,,,,,,,,,,,181,U,triangle,1,0,,,,,,,,,,,,,,,,repeat,number,numRpt,f,0.387,Lo,,,,,,1,,,,,,,,high,22,0,22,0,1,,,,,,,,,
295234,2022-09-24_23h04.48.543,vts_reward_expectancy,2022.2.4,MacIntel,60.0024001,Chrome,1440,900,,,,,10,732,,,,,,,,,,,,,,,,,125,S,star,1,0,,,,,,,,,,,,,,,,repeat,number,numRpt,d,0.4637,Hi,,,,,,1,,,,,,,,high,23,0,23,0,1,,,,,,,,,
295234,2022-09-24_23h04.48.543,vts_reward_expectancy,2022.2.4,MacIntel,60.0024001,Chrome,1440,900,,,,,10,742,,,,,,,,,,,,,,,,,146,Y,star,1,0,,,,,,,,,,,,,,,,repeat,number,numRpt,d,0.5973,Hi,,,,,,1,,,,,,,,high,24,0,24,0,1,,,,,,,,,
295234,2022-09-24_23h04.48.543,vts_reward_expectancy,2022.2.4,MacIntel,60.0024001,Chrome,1440,900,,,,,1,743,,,,,,,,,,,,,,,,,181,S,triangle,1,0,,,,,,,,,,,,,,,,repeat,number,numRpt,f,0.6178,Lo,,,,,,1,,,,,,,,high,25,0,25,0,1,,,,,,,,,
295234,2022-09-24_23h04.48.543,vts_reward_expectancy,2022.2.4,MacIntel,60.0024001,Chrome,1440,900,,,,,10,753,,,,,,,,,,,,,,,,,132,U,star,1,0,,,,,,,,,,,,,,,,switch,letter,lettSwt,k,0.584,Hi,,,,,,1,,,,,,,,high,26,0,26,0,1,,,,,,,,,
295234,2022-09-24_23h04.48.543,vts_reward_expectancy,2022.2.4,MacIntel,60.0024001,Chrome,1440,900,,,,,1,754,,,,,,,,,,,,,,,,,139,H,triangle,1,0,,,,,,,,,,,,,,,,repeat,letter,lettRpt,j,0.7252,Lo,,,,,,1,,,,,,,,high,27,0,27,0,1,,,,,,,,,
295234,2022-09-24_23h04.48.543,vts_reward_expectancy,2022.2.4,MacIntel,60.0024001,Chrome,1440,900,,,,,10,764,,,,,,,,,,,,,,,,,160,F,star,1,0,,,,,,,,,,,,,,,,switch,number,numSwt,f,0.7779,Hi,,,,,,1,,,,,,,,high,28,0,28,0,1,,,,,,,,,
295234,2022-09-24_23h04.48.543,vts_reward_expectancy,2022.2.4,MacIntel,60.0024001,Chrome,1440,900,,,,,1,765,,,,,,,,,,,,,,,,,167,D,triangle,1,0,,,,,,,,,,,,,,,,switch,letter,lettSwt,j,0.8993,Lo,,,,,,1,,,,,,,,high,29,0,29,0,1,,,,,,,,,
295234,2022-09-24_23h04.48.543,vts_reward_expectancy,2022.2.4,MacIntel,60.0024001,Chrome,1440,900,,,,,10,775,,,,,,,,,,,,,,,,,125,W,star,1,0,,,,,,,,,,,,,,,,repeat,letter,lettRpt,k,0.5464,Hi,,,,,,1,,,,,,,,high,30,0,30,0,1,,,,,,,,,
295234,2022-09-24_23h04.48.543,vts_reward_expectancy,2022.2.4,MacIntel,60.0024001,Chrome,1440,900,,,,,1,776,,,,,,,,,,,,,,,,,174,B,triangle,1,0,,,,,,,,,,,,,,,,repeat,letter,lettRpt,j,0.5608,Lo,,,,,,1,,,,,,,,high,31,0,31,0,1,,,,,,,,,
295234,2022-09-24_23h04.48.543,vts_reward_expectancy,2022.2.4,MacIntel,60.0024001,Chrome,1440,900,,,,,0,776,,,,,,,,,,,,,,,,,125,W,circle,1,0,,,,,,,,,,,,,,,,repeat,letter,lettRpt,k,0.7844,Hi,,,,,,2,,,,,,space,1.1147,low,0,0,0,0,1,,,,,,,,,
295234,2022-09-24_23h04.48.543,vts_reward_expectancy,2022.2.4,MacIntel,60.0024001,Chrome,1440,900,,,,,10,786,,,,,,,,,,,,,,,,,132,F,hexagon,1,0,,,,,,,,,,,,,,,,repeat,letter,lettRpt,j,0.4137,Lo,,,,,,2,,,,,,,,low,1,0,1,0,1,,,,,,,,,
295234,2022-09-24_23h04.48.543,vts_reward_expectancy,2022.2.4,MacIntel,60.0024001,Chrome,1440,900,,,,,0,786,,,,,,,,,,,,,,,,,146,U,circle,0,0,,,,,,,,,,,,,,,,switch,number,NA,f,0.6224,Lo,,,,,,2,,,,,,,,low,2,0,2,0,1,,,,,,,,,
295234,2022-09-24_23h04.48.543,vts_reward_expectancy,2022.2.4,MacIntel,60.0024001,Chrome,1440,900,,,,,10,796,,,,,,,,,,,,,,,,,139,Y,hexagon,1,1,,,,,,,,,,,,,,,,repeat,number,numRpt,d,0.4961,Lo,,,,,,2,,,,,,,,low,3,0,3,0,1,,,,,,,,,
295234,2022-09-24_23h04.48.543,vts_reward_expectancy,2022.2.4,MacIntel,60.0024001,Chrome,1440,900,,,,,1,797,,,,,,,,,,,,,,,,,167,B,circle,1,0,,,,,,,,,,,,,,,,switch,letter,lettSwt,j,0.4132,Hi,,,,,,2,,,,,,,,low,4,0,4,0,1,,,,,,,,,
295234,2022-09-24_23h04.48.543,vts_reward_expectancy,2022.2.4,MacIntel,60.0024001,Chrome,1440,900,,,,,0,797,,,,,,,,,,,,,,,,,181,H,hexagon,0,0,,,,,,,,,,,,,,,,repeat,letter,NA,k,0.5674,Hi,,,,,,2,,,,,,,,low,5,0,5,0,1,,,,,,,,,
295234,2022-09-24_23h04.48.543,vts_reward_expectancy,2022.2.4,MacIntel,60.0024001,Chrome,1440,900,,,,,1,798,,,,,,,,,,,,,,,,,160,D,hexagon,1,1,,,,,,,,,,,,,,,,repeat,letter,lettRpt,j,0.5216,Lo,,,,,,2,,,,,,,,low,6,0,6,0,1,,,,,,,,,
295234,2022-09-24_23h04.48.543,vts_reward_expectancy,2022.2.4,MacIntel,60.0024001,Chrome,1440,900,,,,,0,798,,,,,,,,,,,,,,,,,174,S,circle,1,0,,,,,,,,,,,,,,,,switch,number,numSwt,f,0.6964,Hi,,,,,,2,,,,,,,,low,7,0,7,0,1,,,,,,,,,
295234,2022-09-24_23h04.48.543,vts_reward_expectancy,2022.2.4,MacIntel,60.0024001,Chrome,1440,900,,,,,1,799,,,,,,,,,,,,,,,,,125,W,circle,1,0,,,,,,,,,,,,,,,,repeat,number,numRpt,d,0.5364,Hi,,,,,,2,,,,,,,,low,8,0,8,0,1,,,,,,,,,
295234,2022-09-24_23h04.48.543,vts_reward_expectancy,2022.2.4,MacIntel,60.0024001,Chrome,1440,900,,,,,1,800,,,,,,,,,,,,,,,,,132,F,hexagon,1,0,,,,,,,,,,,,,,,,repeat,number,numRpt,d,0.4595,Lo,,,,,,2,,,,,,,,low,9,0,9,0,1,,,,,,,,,
295234,2022-09-24_23h04.48.543,vts_reward_expectancy,2022.2.4,MacIntel,60.0024001,Chrome,1440,900,,,,,1,801,,,,,,,,,,,,,,,,,146,U,hexagon,1,0,,,,,,,,,,,,,,,,repeat,number,numRpt,d,0.4787,Lo,,,,,,2,,,,,,,,low,10,0,10,0,1,,,,,,,,,
295234,2022-09-24_23h04.48.543,vts_reward_expectancy,2022.2.4,MacIntel,60.0024001,Chrome,1440,900,,,,,10,811,,,,,,,,,,,,,,,,,139,Y,circle,1,0,,,,,,,,,,,,,,,,switch,letter,lettSwt,k,0.5198,Hi,,,,,,2,,,,,,,,low,11,0,11,0,1,,,,,,,,,
295234,2022-09-24_23h04.48.543,vts_reward_expectancy,2022.2.4,MacIntel,60.0024001,Chrome,1440,900,,,,,10,821,,,,,,,,,,,,,,,,,167,B,circle,1,0,,,,,,,,,,,,,,,,repeat,letter,lettRpt,j,0.4709,Hi,,,,,,2,,,,,,,,low,12,0,12,0,1,,,,,,,,,
295234,2022-09-24_23h04.48.543,vts_reward_expectancy,2022.2.4,MacIntel,60.0024001,Chrome,1440,900,,,,,10,831,,,,,,,,,,,,,,,,,181,H,hexagon,1,0,,,,,,,,,,,,,,,,repeat,letter,lettRpt,j,0.8802,Lo,,,,,,2,,,,,,,,low,13,0,13,0,1,,,,,,,,,
295234,2022-09-24_23h04.48.543,vts_reward_expectancy,2022.2.4,MacIntel,60.0024001,Chrome,1440,900,,,,,1,832,,,,,,,,,,,,,,,,,160,D,hexagon,1,0,,,,,,,,,,,,,,,,repeat,letter,lettRpt,j,0.4513,Lo,,,,,,2,,,,,,,,low,14,0,14,0,1,,,,,,,,,
295234,2022-09-24_23h04.48.543,vts_reward_expectancy,2022.2.4,MacIntel,60.0024001,Chrome,1440,900,,,,,0,832,,,,,,,,,,,,,,,,,174,S,circle,1,0,,,,,,,,,,,,,,,,repeat,letter,lettRpt,k,0.8485,Hi,,,,,,2,,,,,,,,low,15,0,15,0,1,,,,,,,,,
295234,2022-09-24_23h04.48.543,vts_reward_expectancy,2022.2.4,MacIntel,60.0024001,Chrome,1440,900,,,,,0,832,,,,,,,,,,,,,,,,,167,H,circle,1,0,,,,,,,,,,,,,,,,repeat,letter,lettRpt,j,0.6254,Hi,,,,,,2,,,,,,,,low,16,0,16,0,1,,,,,,,,,
295234,2022-09-24_23h04.48.543,vts_reward_expectancy,2022.2.4,MacIntel,60.0024001,Chrome,1440,900,,,,,10,842,,,,,,,,,,,,,,,,,139,B,hexagon,1,0,,,,,,,,,,,,,,,,switch,number,numSwt,d,0.5445,Lo,,,,,,2,,,,,,,,low,17,0,17,0,1,,,,,,,,,
295234,2022-09-24_23h04.48.543,vts_reward_expectancy,2022.2.4,MacIntel,60.0024001,Chrome,1440,900,,,,,1,843,,,,,,,,,,,,,,,,,181,F,hexagon,1,0,,,,,,,,,,,,,,,,repeat,number,numRpt,f,0.5171,Lo,,,,,,2,,,,,,,,low,18,0,18,0,1,,,,,,,,,
295234,2022-09-24_23h04.48.543,vts_reward_expectancy,2022.2.4,MacIntel,60.0024001,Chrome,1440,900,,,,,10,853,,,,,,,,,,,,,,,,,132,S,circle,1,0,,,,,,,,,,,,,,,,repeat,number,numRpt,d,0.4807,Hi,,,,,,2,,,,,,,,low,19,0,19,0,1,,,,,,,,,
295234,2022-09-24_23h04.48.543,vts_reward_expectancy,2022.2.4,MacIntel,60.0024001,Chrome,1440,900,,,,,1,854,,,,,,,,,,,,,,,,,160,D,hexagon,1,0,,,,,,,,,,,,,,,,repeat,number,numRpt,f,0.7699,Lo,,,,,,2,,,,,,,,low,20,0,20,0,1,,,,,,,,,
295234,2022-09-24_23h04.48.543,vts_reward_expectancy,2022.2.4,MacIntel,60.0024001,Chrome,1440,900,,,,,0,854,,,,,,,,,,,,,,,,,146,Y,circle,0,0,,,,,,,,,,,,,,,,switch,letter,NA,j,0.6191,Lo,,,,,,2,,,,,,,,low,21,0,21,0,1,,,,,,,,,
295234,2022-09-24_23h04.48.543,vts_reward_expectancy,2022.2.4,MacIntel,60.0024001,Chrome,1440,900,,,,,1,855,,,,,,,,,,,,,,,,,174,W,circle,1,1,,,,,,,,,,,,,,,,repeat,letter,lettRpt,k,0.4832,Hi,,,,,,2,,,,,,,,low,22,0,22,0,1,,,,,,,,,
295234,2022-09-24_23h04.48.543,vts_reward_expectancy,2022.2.4,MacIntel,60.0024001,Chrome,1440,900,,,,,1,856,,,,,,,,,,,,,,,,,125,U,hexagon,1,0,,,,,,,,,,,,,,,,repeat,letter,lettRpt,k,0.4605,Lo,,,,,,2,,,,,,,,low,23,0,23,0,1,,,,,,,,,
295234,2022-09-24_23h04.48.543,vts_reward_expectancy,2022.2.4,MacIntel,60.0024001,Chrome,1440,900,,,,,0,856,,,,,,,,,,,,,,,,,125,U,circle,1,0,,,,,,,,,,,,,,,,switch,number,numSwt,d,0.5856,Hi,,,,,,2,,,,,,,,low,24,0,24,0,1,,,,,,,,,
295234,2022-09-24_23h04.48.543,vts_reward_expectancy,2022.2.4,MacIntel,60.0024001,Chrome,1440,900,,,,,1,857,,,,,,,,,,,,,,,,,181,H,hexagon,1,0,,,,,,,,,,,,,,,,repeat,number,numRpt,f,0.5508,Lo,,,,,,2,,,,,,,,low,25,0,25,0,1,,,,,,,,,
295234,2022-09-24_23h04.48.543,vts_reward_expectancy,2022.2.4,MacIntel,60.0024001,Chrome,1440,900,,,,,10,867,,,,,,,,,,,,,,,,,174,B,hexagon,1,0,,,,,,,,,,,,,,,,repeat,number,numRpt,f,0.4849,Lo,,,,,,2,,,,,,,,low,26,0,26,0,1,,,,,,,,,
295234,2022-09-24_23h04.48.543,vts_reward_expectancy,2022.2.4,MacIntel,60.0024001,Chrome,1440,900,,,,,1,868,,,,,,,,,,,,,,,,,167,Y,circle,1,0,,,,,,,,,,,,,,,,repeat,number,numRpt,f,0.4306,Hi,,,,,,2,,,,,,,,low,27,0,27,0,1,,,,,,,,,
295234,2022-09-24_23h04.48.543,vts_reward_expectancy,2022.2.4,MacIntel,60.0024001,Chrome,1440,900,,,,,10,878,,,,,,,,,,,,,,,,,132,S,circle,1,0,,,,,,,,,,,,,,,,repeat,number,numRpt,d,0.5142,Hi,,,,,,2,,,,,,,,low,28,0,28,0,1,,,,,,,,,
295234,2022-09-24_23h04.48.543,vts_reward_expectancy,2022.2.4,MacIntel,60.0024001,Chrome,1440,900,,,,,0,878,,,,,,,,,,,,,,,,,139,D,hexagon,0,0,,,,,,,,,,,,,,,,switch,letter,NA,k,0.6348,Hi,,,,,,2,,,,,,,,low,29,0,29,0,1,,,,,,,,,
295234,2022-09-24_23h04.48.543,vts_reward_expectancy,2022.2.4,MacIntel,60.0024001,Chrome,1440,900,,,,,10,888,,,,,,,,,,,,,,,,,146,W,hexagon,1,1,,,,,,,,,,,,,,,,repeat,letter,lettRpt,k,0.6134,Lo,,,,,,2,,,,,,,,low,30,0,30,0,1,,,,,,,,,
295234,2022-09-24_23h04.48.543,vts_reward_expectancy,2022.2.4,MacIntel,60.0024001,Chrome,1440,900,,,,,0,888,,,,,,,,,,,,,,,,,160,F,circle,0,0,,,,,,,,,,,,,,,,repeat,letter,NA,k,0.7374,Lo,,,,,,2,,,,,,,,low,31,0,31,0,1,,,,,,,,,
295234,2022-09-24_23h04.48.543,vts_reward_expectancy,2022.2.4,MacIntel,60.0024001,Chrome,1440,900,,,,,1,889,,,,,,,,,,,,,,,,,181,D,triangle,1,1,,,,,,,,,,,,,,,,repeat,letter,lettRpt,j,0.4803,Lo,,,,,,3,,,,,,space,1.2514,high,0,0,0,0,1,,,,,,,,,
295234,2022-09-24_23h04.48.543,vts_reward_expectancy,2022.2.4,MacIntel,60.0024001,Chrome,1440,900,,,,,0,889,,,,,,,,,,,,,,,,,174,S,star,1,0,,,,,,,,,,,,,,,,repeat,letter,lettRpt,k,0.5343,Hi,,,,,,3,,,,,,,,high,1,0,1,0,1,,,,,,,,,
295234,2022-09-24_23h04.48.543,vts_reward_expectancy,2022.2.4,MacIntel,60.0024001,Chrome,1440,900,,,,,1,890,,,,,,,,,,,,,,,,,139,W,triangle,1,0,,,,,,,,,,,,,,,,repeat,letter,lettRpt,k,0.5619,Lo,,,,,,3,,,,,,,,high,2,0,2,0,1,,,,,,,,,
295234,2022-09-24_23h04.48.543,vts_reward_expectancy,2022.2.4,MacIntel,60.0024001,Chrome,1440,900,,,,,10,900,,,,,,,,,,,,,,,,,167,U,star,1,0,,,,,,,,,,,,,,,,switch,number,numSwt,f,0.3959,Hi,,,,,,3,,,,,,,,high,3,0,3,0,1,,,,,,,,,
295234,2022-09-24_23h04.48.543,vts_reward_expectancy,2022.2.4,MacIntel,60.0024001,Chrome,1440,900,,,,,0,900,,,,,,,,,,,,,,,,,160,Y,star,1,0,,,,,,,,,,,,,,,,repeat,number,numRpt,f,0.5056,Hi,,,,,,3,,,,,,,,high,4,0,4,0,1,,,,,,,,,
295234,2022-09-24_23h04.48.543,vts_reward_expectancy,2022.2.4,MacIntel,60.0024001,Chrome,1440,900,,,,,1,901,,,,,,,,,,,,,,,,,132,F,triangle,1,0,,,,,,,,,,,,,,,,repeat,number,numRpt,d,0.5194,Lo,,,,,,3,,,,,,,,high,5,0,5,0,1,,,,,,,,,
295234,2022-09-24_23h04.48.543,vts_reward_expectancy,2022.2.4,MacIntel,60.0024001,Chrome,1440,900,,,,,10,911,,,,,,,,,,,,,,,,,125,B,star,1,0,,,,,,,,,,,,,,,,repeat,number,numRpt,d,0.4571,Hi,,,,,,3,,,,,,,,high,6,0,6,0,1,,,,,,,,,
295234,2022-09-24_23h04.48.543,vts_reward_expectancy,2022.2.4,MacIntel,60.0024001,Chrome,1440,900,,,,,1,912,,,,,,,,,,,,,,,,,146,H,triangle,1,0,,,,,,,,,,,,,,,,repeat,number,numRpt,d,0.485,Lo,,,,,,3,,,,,,,,high,7,0,7,0,1,,,,,,,,,
295234,2022-09-24_23h04.48.543,vts_reward_expectancy,2022.2.4,MacIntel,60.0024001,Chrome,1440,900,,,,,0,912,,,,,,,,,,,,,,,,,181,D,triangle,0,0,,,,,,,,,,,,,,,,switch,letter,NA,k,0.4507,Lo,,,,,,3,,,,,,,,high,8,0,8,0,1,,,,,,,,,
295234,2022-09-24_23h04.48.543,vts_reward_expectancy,2022.2.4,MacIntel,60.0024001,Chrome,1440,900,,,,,0,912,,,,,,,,,,,,,,,,,174,S,star,1,1,,,,,,,,,,,,,,,,repeat,letter,lettRpt,k,0.5496,Hi,,,,,,3,,,,,,,,high,9,0,9,0,1,,,,,,,,,
295234,2022-09-24_23h04.48.543,vts_reward_expectancy,2022.2.4,MacIntel,60.0024001,Chrome,1440,900,,,,,0,912,,,,,,,,,,,,,,,,,139,W,star,1,0,,,,,,,,,,,,,,,,switch,number,numSwt,d,0.6195,Hi,,,,,,3,,,,,,,,high,10,0,10,0,1,,,,,,,,,
295234,2022-09-24_23h04.48.543,vts_reward_expectancy,2022.2.4,MacIntel,60.0024001,Chrome,1440,900,,,,,10,922,,,,,,,,,,,,,,,,,167,U,triangle,1,0,,,,,,,,,,,,,,,,repeat,number,numRpt,f,0.7313,Lo,,,,,,3,,,,,,,,high,11,0,11,0,1,,,,,,,,,
295234,2022-09-24_23h04.48.543,vts_reward_expectancy,2022.2.4,MacIntel,60.0024001,Chrome,1440,900,,,,,1,923,,,,,,,,,,,,,,,,,160,Y,triangle,1,0,,,,,,,,,,,,,,,,repeat,number,numRpt,f,0.4716,Lo,,,,,,3,,,,,,,,high,12,0,12,0,1,,,,,,,,,
295234,2022-09-24_23h04.48.543,vts_reward_expectancy,2022.2.4,MacIntel,60.0024001,Chrome,1440,900,,,,,10,933,,,,,,,,,,,,,,,,,132,F,star,1,0,,,,,,,,,,,,,,,,switch,letter,lettSwt,j,0.3869,Hi,,,,,,3,,,,,,,,high,13,0,13,0,1,,,,,,,,,
295234,2022-09-24_23h04.48.543,vts_reward_expectancy,2022.2.4,MacIntel,60.0024001,Chrome,1440,900,,,,,1,934,,,,,,,,,,,,,,,,,125,B,triangle,1,0,,,,,,,,,,,,,,,,repeat,letter,lettRpt,j,0.5352,Lo,,,,,,3,,,,,,,,high,14,0,14,0,1,,,,,,,,,
295234,2022-09-24_23h04.48.543,vts_reward_expectancy,2022.2.4,MacIntel,60.0024001,Chrome,1440,900,,,,,0,934,,,,,,,,,,,,,,,,,146,H,star,1,0,,,,,,,,,,,,,,,,repeat,letter,lettRpt,j,0.5282,Hi,,,,,,3,,,,,,,,high,15,0,15,0,1,,,,,,,,,
295234,2022-09-24_23h04.48.543,vts_reward_expectancy,2022.2.4,MacIntel,60.0024001,Chrome,1440,900,,,,,0,934,,,,,,,,,,,,,,,,,181,F,star,1,0,,,,,,,,,,,,,,,,repeat,letter,lettRpt,j,0.602,Hi,,,,,,3,,,,,,,,high,16,0,16,0,1,,,,,,,,,
295234,2022-09-24_23h04.48.543,vts_reward_expectancy,2022.2.4,MacIntel,60.0024001,Chrome,1440,900,,,,,1,935,,,,,,,,,,,,,,,,,139,S,triangle,1,0,,,,,,,,,,,,,,,,repeat,letter,lettRpt,k,0.5395,Lo,,,,,,3,,,,,,,,high,17,0,17,0,1,,,,,,,,,
295234,2022-09-24_23h04.48.543,vts_reward_expectancy,2022.2.4,MacIntel,60.0024001,Chrome,1440,900,,,,,0,935,,,,,,,,,,,,,,,,,146,Y,triangle,0,0,,,,,,,,,,,,,,,,switch,number,NA,f,0.4849,Lo,,,,,,3,,,,,,,,high,18,0,18,0,1,,,,,,,,,
295234,2022-09-24_23h04.48.543,vts_reward_expectancy,2022.2.4,MacIntel,60.0024001,Chrome,1440,900,,,,,0,935,,,,,,,,,,,,,,,,,167,B,star,1,1,,,,,,,,,,,,,,,,repeat,number,numRpt,f,0.52,Hi,,,,,,3,,,,,,,,high,19,0,19,0,1,,,,,,,,,
295234,2022-09-24_23h04.48.543,vts_reward_expectancy,2022.2.4,MacIntel,60.0024001,Chrome,1440,900,,,,,0,935,,,,,,,,,,,,,,,,,174,W,star,1,0,,,,,,,,,,,,,,,,repeat,number,numRpt,f,0.5279,Hi,,,,,,3,,,,,,,,high,20,0,20,0,1,,,,,,,,,
295234,2022-09-24_23h04.48.543,vts_reward_expectancy,2022.2.4,MacIntel,60.0024001,Chrome,1440,900,,,,,1,936,,,,,,,,,,,,,,,,,132,D,triangle,1,0,,,,,,,,,,,,,,,,repeat,number,numRpt,d,0.48,Lo,,,,,,3,,,,,,,,high,21,0,21,0,1,,,,,,,,,
295234,2022-09-24_23h04.48.543,vts_reward_expectancy,2022.2.4,MacIntel,60.0024001,Chrome,1440,900,,,,,1,937,,,,,,,,,,,,,,,,,160,U,triangle,1,0,,,,,,,,,,,,,,,,switch,letter,lettSwt,k,0.5048,Lo,,,,,,3,,,,,,,,high,22,0,22,0,1,,,,,,,,,
295234,2022-09-24_23h04.48.543,vts_reward_expectancy,2022.2.4,MacIntel,60.0024001,Chrome,1440,900,,,,,0,937,,,,,,,,,,,,,,,,,125,H,star,1,0,,,,,,,,,,,,,,,,repeat,letter,lettRpt,j,0.6028,Hi,,,,,,3,,,,,,,,high,23,0,23,0,1,,,,,,,,,
295234,2022-09-24_23h04.48.543,vts_reward_expectancy,2022.2.4,MacIntel,60.0024001,Chrome,1440,900,,,,,0,937,,,,,,,,,,,,,,,,,125,B,star,1,0,,,,,,,,,,,,,,,,repeat,letter,lettRpt,j,0.5004,Hi,,,,,,3,,,,,,,,high,24,0,24,0,1,,,,,,,,,
295234,2022-09-24_23h04.48.543,vts_reward_expectancy,2022.2.4,MacIntel,60.0024001,Chrome,1440,900,,,,,1,938,,,,,,,,,,,,,,,,,181,D,triangle,1,0,,,,,,,,,,,,,,,,switch,number,numSwt,f,0.4532,Lo,,,,,,3,,,,,,,,high,25,0,25,0,1,,,,,,,,,
295234,2022-09-24_23h04.48.543,vts_reward_expectancy,2022.2.4,MacIntel,60.0024001,Chrome,1440,900,,,,,1,939,,,,,,,,,,,,,,,,,139,U,triangle,1,0,,,,,,,,,,,,,,,,switch,letter,lettSwt,k,0.3972,Lo,,,,,,3,,,,,,,,high,26,0,26,0,1,,,,,,,,,
295234,2022-09-24_23h04.48.543,vts_reward_expectancy,2022.2.4,MacIntel,60.0024001,Chrome,1440,900,,,,,10,949,,,,,,,,,,,,,,,,,160,Y,star,1,0,,,,,,,,,,,,,,,,switch,number,numSwt,f,0.4533,Hi,,,,,,3,,,,,,,,high,27,0,27,0,1,,,,,,,,,
295234,2022-09-24_23h04.48.543,vts_reward_expectancy,2022.2.4,MacIntel,60.0024001,Chrome,1440,900,,,,,10,959,,,,,,,,,,,,,,,,,174,S,triangle,1,0,,,,,,,,,,,,,,,,repeat,number,numRpt,f,0.5359,Lo,,,,,,3,,,,,,,,high,28,0,28,0,1,,,,,,,,,
295234,2022-09-24_23h04.48.543,vts_reward_expectancy,2022.2.4,MacIntel,60.0024001,Chrome,1440,900,,,,,0,959,,,,,,,,,,,,,,,,,167,H,star,0,0,,,,,,,,,,,,,,,,switch,letter,NA,k,0.6248,Lo,,,,,,3,,,,,,,,high,29,0,29,0,1,,,,,,,,,
295234,2022-09-24_23h04.48.543,vts_reward_expectancy,2022.2.4,MacIntel,60.0024001,Chrome,1440,900,,,,,0,959,,,,,,,,,,,,,,,,,132,W,star,0,1,,,,,,,,,,,,,,,,switch,number,NA,f,0.4639,Lo,,,,,,3,,,,,,,,high,30,0,30,0,1,,,,,,,,,
295234,2022-09-24_23h04.48.543,vts_reward_expectancy,2022.2.4,MacIntel,60.0024001,Chrome,1440,900,,,,,1,960,,,,,,,,,,,,,,,,,146,F,triangle,1,1,,,,,,,,,,,,,,,,repeat,number,numRpt,d,0.9336,Lo,,,,,,3,,,,,,,,high,31,0,31,0,1,,,,,,,,,
295234,2022-09-24_23h04.48.543,vts_reward_expectancy,2022.2.4,MacIntel,60.0024001,Chrome,1440,900,,,,,10,970,,,,,,,,,,,,,,,,,167,F,hexagon,1,0,,,,,,,,,,,,,,,,repeat,number,numRpt,f,0.7211,Lo,,,,,,4,,,,,,space,1.1353,low,0,0,0,0,1,,,,,,,,,
295234,2022-09-24_23h04.48.543,vts_reward_expectancy,2022.2.4,MacIntel,60.0024001,Chrome,1440,900,,,,,0,970,,,,,,,,,,,,,,,,,125,H,circle,1,0,,,,,,,,,,,,,,,,repeat,number,numRpt,d,0.5796,Hi,,,,,,4,,,,,,,,low,1,0,1,0,1,,,,,,,,,
295234,2022-09-24_23h04.48.543,vts_reward_expectancy,2022.2.4,MacIntel,60.0024001,Chrome,1440,900,,,,,1,971,,,,,,,,,,,,,,,,,146,S,hexagon,1,0,,,,,,,,,,,,,,,,switch,letter,lettSwt,k,0.5522,Lo,,,,,,4,,,,,,,,low,2,0,2,0,1,,,,,,,,,
295234,2022-09-24_23h04.48.543,vts_reward_expectancy,2022.2.4,MacIntel,60.0024001,Chrome,1440,900,,,,,10,981,,,,,,,,,,,,,,,,,181,Y,circle,1,0,,,,,,,,,,,,,,,,repeat,letter,lettRpt,k,0.4794,Hi,,,,,,4,,,,,,,,low,3,0,3,0,1,,,,,,,,,
295234,2022-09-24_23h04.48.543,vts_reward_expectancy,2022.2.4,MacIntel,60.0024001,Chrome,1440,900,,,,,0,981,,,,,,,,,,,,,,,,,132,W,circle,1,0,,,,,,,,,,,,,,,,switch,number,numSwt,d,0.4619,Hi,,,,,,4,,,,,,,,low,4,0,4,0,1,,,,,,,,,
295234,2022-09-24_23h04.48.543,vts_reward_expectancy,2022.2.4,MacIntel,60.0024001,Chrome,1440,900,,,,,1,982,,,,,,,,,,,,,,,,,139,U,hexagon,1,0,,,,,,,,,,,,,,,,switch,letter,lettSwt,k,0.6436,Lo,,,,,,4,,,,,,,,low,5,0,5,0,1,,,,,,,,,
295234,2022-09-24_23h04.48.543,vts_reward_expectancy,2022.2.4,MacIntel,60.0024001,Chrome,1440,900,,,,,0,982,,,,,,,,,,,,,,,,,160,D,circle,0,0,,,,,,,,,,,,,,,,switch,number,NA,d,1.2675,Lo,,,,,,4,,,,,,,,low,6,0,6,0,1,,,,,,,,,
295234,2022-09-24_23h04.48.543,vts_reward_expectancy,2022.2.4,MacIntel,60.0024001,Chrome,1440,900,,,,,10,992,,,,,,,,,,,,,,,,,174,B,hexagon,1,1,,,,,,,,,,,,,,,,repeat,number,numRpt,f,0.9986,Lo,,,,,,4,,,,,,,,low,7,0,7,0,1,,,,,,,,,
295234,2022-09-24_23h04.48.543,vts_reward_expectancy,2022.2.4,MacIntel,60.0024001,Chrome,1440,900,,,,,0,992,,,,,,,,,,,,,,,,,167,F,circle,1,0,,,,,,,,,,,,,,,,repeat,number,numRpt,f,0.8063,Hi,,,,,,4,,,,,,,,low,8,0,8,0,1,,,,,,,,,
295234,2022-09-24_23h04.48.543,vts_reward_expectancy,2022.2.4,MacIntel,60.0024001,Chrome,1440,900,,,,,10,1002,,,,,,,,,,,,,,,,,125,H,hexagon,1,0,,,,,,,,,,,,,,,,repeat,number,numRpt,d,0.5018,Lo,,,,,,4,,,,,,,,low,9,0,9,0,1,,,,,,,,,
295234,2022-09-24_23h04.48.543,vts_reward_expectancy,2022.2.4,MacIntel,60.0024001,Chrome,1440,900,,,,,0,1002,,,,,,,,,,,,,,,,,146,S,circle,1,0,,,,,,,,,,,,,,,,repeat,number,numRpt,d,0.6233,Hi,,,,,,4,,,,,,,,low,10,0,10,0,1,,,,,,,,,
295234,2022-09-24_23h04.48.543,vts_reward_expectancy,2022.2.4,MacIntel,60.0024001,Chrome,1440,900,,,,,0,1002,,,,,,,,,,,,,,,,,181,Y,hexagon,0,0,,,,,,,,,,,,,,,,switch,letter,NA,j,0.4908,Hi,,,,,,4,,,,,,,,low,11,0,11,0,1,,,,,,,,,
295234,2022-09-24_23h04.48.543,vts_reward_expectancy,2022.2.4,MacIntel,60.0024001,Chrome,1440,900,,,,,0,1002,,,,,,,,,,,,,,,,,132,W,circle,1,1,,,,,,,,,,,,,,,,repeat,letter,lettRpt,k,0.549,Hi,,,,,,4,,,,,,,,low,12,0,12,0,1,,,,,,,,,
295234,2022-09-24_23h04.48.543,vts_reward_expectancy,2022.2.4,MacIntel,60.0024001,Chrome,1440,900,,,,,0,1002,,,,,,,,,,,,,,,,,139,U,hexagon,0,0,,,,,,,,,,,,,,,,switch,number,NA,f,0.6867,Hi,,,,,,4,,,,,,,,low,13,0,13,0,1,,,,,,,,,
295234,2022-09-24_23h04.48.543,vts_reward_expectancy,2022.2.4,MacIntel,60.0024001,Chrome,1440,900,,,,,0,1002,,,,,,,,,,,,,,,,,160,D,circle,1,1,,,,,,,,,,,,,,,,repeat,number,numRpt,f,0.5926,Hi,,,,,,4,,,,,,,,low,14,0,14,0,1,,,,,,,,,
295234,2022-09-24_23h04.48.543,vts_reward_expectancy,2022.2.4,MacIntel,60.0024001,Chrome,1440,900,,,,,1,1003,,,,,,,,,,,,,,,,,174,B,hexagon,1,0,,,,,,,,,,,,,,,,repeat,number,numRpt,f,0.5449,Lo,,,,,,4,,,,,,,,low,15,0,15,0,1,,,,,,,,,
295234,2022-09-24_23h04.48.543,vts_reward_expectancy,2022.2.4,MacIntel,60.0024001,Chrome,1440,900,,,,,0,1003,,,,,,,,,,,,,,,,,181,B,circle,1,0,,,,,,,,,,,,,,,,repeat,number,numRpt,f,0.5879,Hi,,,,,,4,,,,,,,,low,16,0,16,0,1,,,,,,,,,
295234,2022-09-24_23h04.48.543,vts_reward_expectancy,2022.2.4,MacIntel,60.0024001,Chrome,1440,900,,,,,1,1004,,,,,,,,,,,,,,,,,139,H,hexagon,1,0,,,,,,,,,,,,,,,,repeat,number,numRpt,d,0.532,Lo,,,,,,4,,,,,,,,low,17,0,17,0,1,,,,,,,,,
295234,2022-09-24_23h04.48.543,vts_reward_expectancy,2022.2.4,MacIntel,60.0024001,Chrome,1440,900,,,,,0,1004,,,,,,,,,,,,,,,,,167,D,circle,1,0,,,,,,,,,,,,,,,,switch,letter,lettSwt,j,0.6146,Hi,,,,,,4,,,,,,,,low,18,0,18,0,1,,,,,,,,,
295234,2022-09-24_23h04.48.543,vts_reward_expectancy,2022.2.4,MacIntel,60.0024001,Chrome,1440,900,,,,,10,1014,,,,,,,,,,,,,,,,,174,U,hexagon,1,0,,,,,,,,,,,,,,,,repeat,letter,lettRpt,k,0.6563,Lo,,,,,,4,,,,,,,,low,19,0,19,0,1,,,,,,,,,
295234,2022-09-24_23h04.48.543,vts_reward_expectancy,2022.2.4,MacIntel,60.0024001,Chrome,1440,900,,,,,0,1014,,,,,,,,,,,,,,,,,125,F,hexagon,0,0,,,,,,,,,,,,,,,,repeat,letter,NA,k,0.4862,Lo,,,,,,4,,,,,,,,low,20,0,20,0,1,,,,,,,,,
295234,2022-09-24_23h04.48.543,vts_reward_expectancy,2022.2.4,MacIntel,60.0024001,Chrome,1440,900,,,,,0,1014,,,,,,,,,,,,,,,,,146,W,circle,1,1,,,,,,,,,,,,,,,,switch,number,numSwt,d,0.6982,Hi,,,,,,4,,,,,,,,low,21,0,21,0,1,,,,,,,,,
295234,2022-09-24_23h04.48.543,vts_reward_expectancy,2022.2.4,MacIntel,60.0024001,Chrome,1440,900,,,,,1,1015,,,,,,,,,,,,,,,,,160,S,hexagon,1,0,,,,,,,,,,,,,,,,repeat,number,numRpt,f,0.5799,Lo,,,,,,4,,,,,,,,low,22,0,22,0,1,,,,,,,,,
295234,2022-09-24_23h04.48.543,vts_reward_expectancy,2022.2.4,MacIntel,60.0024001,Chrome,1440,900,,,,,0,1015,,,,,,,,,,,,,,,,,132,Y,circle,1,0,,,,,,,,,,,,,,,,repeat,number,numRpt,d,0.5925,Hi,,,,,,4,,,,,,,,low,23,0,23,0,1,,,,,,,,,
295234,2022-09-24_23h04.48.543,vts_reward_expectancy,2022.2.4,MacIntel,60.0024001,Chrome,1440,900,,,,,10,1025,,,,,,,,,,,,,,,,,160,H,hexagon,1,0,,,,,,,,,,,,,,,,repeat,number,numRpt,f,0.4601,Lo,,,,,,4,,,,,,,,low,24,0,24,0,1,,,,,,,,,
295234,2022-09-24_23h04.48.543,vts_reward_expectancy,2022.2.4,MacIntel,60.0024001,Chrome,1440,900,,,,,0,1025,,,,,,,,,,,,,,,,,167,W,circle,1,0,,,,,,,,,,,,,,,,switch,letter,lettSwt,k,0.52,Hi,,,,,,4,,,,,,,,low,25,0,25,0,1,,,,,,,,,
295234,2022-09-24_23h04.48.543,vts_reward_expectancy,2022.2.4,MacIntel,60.0024001,Chrome,1440,900,,,,,10,1035,,,,,,,,,,,,,,,,,125,B,circle,1,0,,,,,,,,,,,,,,,,repeat,letter,lettRpt,j,0.4857,Hi,,,,,,4,,,,,,,,low,26,0,26,0,1,,,,,,,,,
295234,2022-09-24_23h04.48.543,vts_reward_expectancy,2022.2.4,MacIntel,60.0024001,Chrome,1440,900,,,,,0,1035,,,,,,,,,,,,,,,,,132,F,hexagon,0,0,,,,,,,,,,,,,,,,repeat,letter,NA,k,0.5463,Hi,,,,,,4,,,,,,,,low,27,0,27,0,1,,,,,,,,,
295234,2022-09-24_23h04.48.543,vts_reward_expectancy,2022.2.4,MacIntel,60.0024001,Chrome,1440,900,,,,,1,1036,,,,,,,,,,,,,,,,,174,S,hexagon,1,1,,,,,,,,,,,,,,,,repeat,letter,lettRpt,k,0.5162,Lo,,,,,,4,,,,,,,,low,28,0,28,0,1,,,,,,,,,
295234,2022-09-24_23h04.48.543,vts_reward_expectancy,2022.2.4,MacIntel,60.0024001,Chrome,1440,900,,,,,0,1036,,,,,,,,,,,,,,,,,146,U,circle,0,0,,,,,,,,,,,,,,,,repeat,letter,NA,j,0.6537,Lo,,,,,,4,,,,,,,,low,29,0,29,0,1,,,,,,,,,
295234,2022-09-24_23h04.48.543,vts_reward_expectancy,2022.2.4,MacIntel,60.0024001,Chrome,1440,900,,,,,1,1037,,,,,,,,,,,,,,,,,139,Y,hexagon,1,1,,,,,,,,,,,,,,,,switch,number,numSwt,d,0.3629,Lo,,,,,,4,,,,,,,,low,30,0,30,0,1,,,,,,,,,
295234,2022-09-24_23h04.48.543,vts_reward_expectancy,2022.2.4,MacIntel,60.0024001,Chrome,1440,900,,,,,10,1047,,,,,,,,,,,,,,,,,181,D,circle,1,0,,,,,,,,,,,,,,,,repeat,number,numRpt,f,0.365,Hi,,,,,,4,,,,,,,,low,31,0,31,0,1,,,,,,,,,
295234,2022-09-24_23h04.48.543,vts_reward_expectancy,2022.2.4,MacIntel,60.0024001,Chrome,1440,900,,,,,1,1048,,,,,,,,,,,,,,,,,146,Y,hexagon,1,0,,,,,,,,,,,,,,,,repeat,number,numRpt,d,0.7079,Lo,,,,,,5,,,,,,space,0.9127,low,0,0,0,0,1,,,,,,,,,
295234,2022-09-24_23h04.48.543,vts_reward_expectancy,2022.2.4,MacIntel,60.0024001,Chrome,1440,900,,,,,0,1048,,,,,,,,,,,,,,,,,139,H,circle,1,0,,,,,,,,,,,,,,,,switch,letter,lettSwt,j,0.6602,Hi,,,,,,5,,,,,,,,low,1,0,1,0,1,,,,,,,,,
295234,2022-09-24_23h04.48.543,vts_reward_expectancy,2022.2.4,MacIntel,60.0024001,Chrome,1440,900,,,,,1,1049,,,,,,,,,,,,,,,,,174,U,hexagon,1,0,,,,,,,,,,,,,,,,repeat,letter,lettRpt,k,0.5368,Lo,,,,,,5,,,,,,,,low,2,0,2,0,1,,,,,,,,,
295234,2022-09-24_23h04.48.543,vts_reward_expectancy,2022.2.4,MacIntel,60.0024001,Chrome,1440,900,,,,,0,1049,,,,,,,,,,,,,,,,,125,S,circle,1,0,,,,,,,,,,,,,,,,switch,number,numSwt,d,0.4537,Hi,,,,,,5,,,,,,,,low,3,0,3,0,1,,,,,,,,,
295234,2022-09-24_23h04.48.543,vts_reward_expectancy,2022.2.4,MacIntel,60.0024001,Chrome,1440,900,,,,,1,1050,,,,,,,,,,,,,,,,,181,W,hexagon,1,0,,,,,,,,,,,,,,,,repeat,number,numRpt,f,0.6047,Lo,,,,,,5,,,,,,,,low,4,0,4,0,1,,,,,,,,,
295234,2022-09-24_23h04.48.543,vts_reward_expectancy,2022.2.4,MacIntel,60.0024001,Chrome,1440,900,,,,,0,1050,,,,,,,,,,,,,,,,,160,F,circle,1,0,,,,,,,,,,,,,,,,repeat,number,numRpt,f,0.562,Hi,,,,,,5,,,,,,,,low,5,0,5,0,1,,,,,,,,,
295234,2022-09-24_23h04.48.543,vts_reward_expectancy,2022.2.4,MacIntel,60.0024001,Chrome,1440,900,,,,,1,1051,,,,,,,,,,,,,,,,,167,D,hexagon,1,0,,,,,,,,,,,,,,,,switch,letter,lettSwt,j,0.6099,Lo,,,,,,5,,,,,,,,low,6,0,6,0,1,,,,,,,,,
295234,2022-09-24_23h04.48.543,vts_reward_expectancy,2022.2.4,MacIntel,60.0024001,Chrome,1440,900,,,,,10,1061,,,,,,,,,,,,,,,,,132,B,circle,1,0,,,,,,,,,,,,,,,,repeat,letter,lettRpt,j,0.4336,Hi,,,,,,5,,,,,,,,low,7,0,7,0,1,,,,,,,,,
295234,2022-09-24_23h04.48.543,vts_reward_expectancy,2022.2.4,MacIntel,60.0024001,Chrome,1440,900,,,,,1,1062,,,,,,,,,,,,,,,,,146,Y,hexagon,1,0,,,,,,,,,,,,,,,,switch,number,numSwt,d,0.4115,Lo,,,,,,5,,,,,,,,low,8,0,8,0,1,,,,,,,,,
295234,2022-09-24_23h04.48.543,vts_reward_expectancy,2022.2.4,MacIntel,60.0024001,Chrome,1440,900,,,,,0,1062,,,,,,,,,,,,,,,,,139,H,circle,1,0,,,,,,,,,,,,,,,,repeat,number,numRpt,d,0.5802,Hi,,,,,,5,,,,,,,,low,9,0,9,0,1,,,,,,,,,
295234,2022-09-24_23h04.48.543,vts_reward_expectancy,2022.2.4,MacIntel,60.0024001,Chrome,1440,900,,,,,1,1063,,,,,,,,,,,,,,,,,174,U,hexagon,1,0,,,,,,,,,,,,,,,,switch,letter,lettSwt,k,0.5333,Lo,,,,,,5,,,,,,,,low,10,0,10,0,1,,,,,,,,,
295234,2022-09-24_23h04.48.543,vts_reward_expectancy,2022.2.4,MacIntel,60.0024001,Chrome,1440,900,,,,,0,1063,,,,,,,,,,,,,,,,,125,S,circle,1,0,,,,,,,,,,,,,,,,repeat,letter,lettRpt,k,0.5374,Hi,,,,,,5,,,,,,,,low,11,0,11,0,1,,,,,,,,,
295234,2022-09-24_23h04.48.543,vts_reward_expectancy,2022.2.4,MacIntel,60.0024001,Chrome,1440,900,,,,,1,1064,,,,,,,,,,,,,,,,,181,W,circle,1,0,,,,,,,,,,,,,,,,repeat,letter,lettRpt,k,0.4942,Hi,,,,,,5,,,,,,,,low,12,0,12,0,1,,,,,,,,,
295234,2022-09-24_23h04.48.543,vts_reward_expectancy,2022.2.4,MacIntel,60.0024001,Chrome,1440,900,,,,,0,1064,,,,,,,,,,,,,,,,,160,F,hexagon,0,0,,,,,,,,,,,,,,,,repeat,letter,NA,k,0.4342,Hi,,,,,,5,,,,,,,,low,13,0,13,0,1,,,,,,,,,
295234,2022-09-24_23h04.48.543,vts_reward_expectancy,2022.2.4,MacIntel,60.0024001,Chrome,1440,900,,,,,10,1074,,,,,,,,,,,,,,,,,167,D,hexagon,1,1,,,,,,,,,,,,,,,,repeat,letter,lettRpt,j,0.695,Lo,,,,,,5,,,,,,,,low,14,0,14,0,1,,,,,,,,,
295234,2022-09-24_23h04.48.543,vts_reward_expectancy,2022.2.4,MacIntel,60.0024001,Chrome,1440,900,,,,,1,1075,,,,,,,,,,,,,,,,,132,B,circle,1,0,,,,,,,,,,,,,,,,repeat,letter,lettRpt,j,0.4705,Hi,,,,,,5,,,,,,,,low,15,0,15,0,1,,,,,,,,,
295234,2022-09-24_23h04.48.543,vts_reward_expectancy,2022.2.4,MacIntel,60.0024001,Chrome,1440,900,,,,,10,1085,,,,,,,,,,,,,,,,,125,W,hexagon,1,0,,,,,,,,,,,,,,,,repeat,letter,lettRpt,k,0.5503,Lo,,,,,,5,,,,,,,,low,16,0,16,0,1,,,,,,,,,
295234,2022-09-24_23h04.48.543,vts_reward_expectancy,2022.2.4,MacIntel,60.0024001,Chrome,1440,900,,,,,0,1085,,,,,,,,,,,,,,,,,139,B,circle,1,0,,,,,,,,,,,,,,,,switch,number,numSwt,d,0.5921,Hi,,,,,,5,,,,,,,,low,17,0,17,0,1,,,,,,,,,
295234,2022-09-24_23h04.48.543,vts_reward_expectancy,2022.2.4,MacIntel,60.0024001,Chrome,1440,900,,,,,1,1086,,,,,,,,,,,,,,,,,160,S,hexagon,1,0,,,,,,,,,,,,,,,,repeat,number,numRpt,f,0.4199,Lo,,,,,,5,,,,,,,,low,18,0,18,0,1,,,,,,,,,
295234,2022-09-24_23h04.48.543,vts_reward_expectancy,2022.2.4,MacIntel,60.0024001,Chrome,1440,900,,,,,10,1096,,,,,,,,,,,,,,,,,132,D,circle,1,0,,,,,,,,,,,,,,,,repeat,number,numRpt,d,0.4802,Hi,,,,,,5,,,,,,,,low,19,0,19,0,1,,,,,,,,,
295234,2022-09-24_23h04.48.543,vts_reward_expectancy,2022.2.4,MacIntel,60.0024001,Chrome,1440,900,,,,,10,1106,,,,,,,,,,,,,,,,,181,Y,hexagon,1,0,,,,,,,,,,,,,,,,repeat,number,numRpt,f,0.5866,Lo,,,,,,5,,,,,,,,low,20,0,20,0,1,,,,,,,,,
295234,2022-09-24_23h04.48.543,vts_reward_expectancy,2022.2.4,MacIntel,60.0024001,Chrome,1440,900,,,,,10,1116,,,,,,,,,,,,,,,,,146,U,circle,1,0,,,,,,,,,,,,,,,,switch,letter,lettSwt,k,0.459,Hi,,,,,,5,,,,,,,,low,21,0,21,0,1,,,,,,,,,
295234,2022-09-24_23h04.48.543,vts_reward_expectancy,2022.2.4,MacIntel,60.0024001,Chrome,1440,900,,,,,1,1117,,,,,,,,,,,,,,,,,167,F,circle,1,0,,,,,,,,,,,,,,,,repeat,letter,lettRpt,j,0.4651,Hi,,,,,,5,,,,,,,,low,22,0,22,0,1,,,,,,,,,
295234,2022-09-24_23h04.48.543,vts_reward_expectancy,2022.2.4,MacIntel,60.0024001,Chrome,1440,900,,,,,1,1118,,,,,,,,,,,,,,,,,174,H,hexagon,1,0,,,,,,,,,,,,,,,,repeat,letter,lettRpt,j,0.5022,Lo,,,,,,5,,,,,,,,low,23,0,23,0,1,,,,,,,,,
295234,2022-09-24_23h04.48.543,vts_reward_expectancy,2022.2.4,MacIntel,60.0024001,Chrome,1440,900,,,,,1,1119,,,,,,,,,,,,,,,,,139,W,hexagon,1,0,,,,,,,,,,,,,,,,repeat,letter,lettRpt,k,0.6188,Lo,,,,,,5,,,,,,,,low,24,0,24,0,1,,,,,,,,,
295234,2022-09-24_23h04.48.543,vts_reward_expectancy,2022.2.4,MacIntel,60.0024001,Chrome,1440,900,,,,,0,1119,,,,,,,,,,,,,,,,,146,H,circle,1,0,,,,,,,,,,,,,,,,switch,number,numSwt,d,0.7328,Hi,,,,,,5,,,,,,,,low,25,0,25,0,1,,,,,,,,,
295234,2022-09-24_23h04.48.543,vts_reward_expectancy,2022.2.4,MacIntel,60.0024001,Chrome,1440,900,,,,,1,1120,,,,,,,,,,,,,,,,,174,F,circle,1,0,,,,,,,,,,,,,,,,repeat,number,numRpt,f,0.5065,Hi,,,,,,5,,,,,,,,low,26,0,26,0,1,,,,,,,,,
295234,2022-09-24_23h04.48.543,vts_reward_expectancy,2022.2.4,MacIntel,60.0024001,Chrome,1440,900,,,,,10,1130,,,,,,,,,,,,,,,,,181,S,hexagon,1,0,,,,,,,,,,,,,,,,repeat,number,numRpt,f,0.513,Lo,,,,,,5,,,,,,,,low,27,0,27,0,1,,,,,,,,,
295234,2022-09-24_23h04.48.543,vts_reward_expectancy,2022.2.4,MacIntel,60.0024001,Chrome,1440,900,,,,,0,1130,,,,,,,,,,,,,,,,,132,Y,circle,1,0,,,,,,,,,,,,,,,,repeat,number,numRpt,d,0.5621,Hi,,,,,,5,,,,,,,,low,28,0,28,0,1,,,,,,,,,
295234,2022-09-24_23h04.48.543,vts_reward_expectancy,2022.2.4,MacIntel,60.0024001,Chrome,1440,900,,,,,1,1131,,,,,,,,,,,,,,,,,125,U,hexagon,1,0,,,,,,,,,,,,,,,,repeat,number,numRpt,d,0.5315,Lo,,,,,,5,,,,,,,,low,29,0,29,0,1,,,,,,,,,
295234,2022-09-24_23h04.48.543,vts_reward_expectancy,2022.2.4,MacIntel,60.0024001,Chrome,1440,900,,,,,0,1131,,,,,,,,,,,,,,,,,167,D,circle,1,0,,,,,,,,,,,,,,,,repeat,number,numRpt,f,0.6825,Hi,,,,,,5,,,,,,,,low,30,0,30,0,1,,,,,,,,,
295234,2022-09-24_23h04.48.543,vts_reward_expectancy,2022.2.4,MacIntel,60.0024001,Chrome,1440,900,,,,,0,1131,,,,,,,,,,,,,,,,,160,B,hexagon,0,0,,,,,,,,,,,,,,,,repeat,number,NA,d,0.7797,Hi,,,,,,5,,,,,,,,low,31,0,31,0,1,,,,,,,,,
295234,2022-09-24_23h04.48.543,vts_reward_expectancy,2022.2.4,MacIntel,60.0024001,Chrome,1440,900,,,,,,,,,,,,,,,,,,,,,,,,,,,,,,,,,,,,,,,,,,,,,,,,,,,,,,6,,,,,,,,,,,,,,"I was to answer to press the keys/answer the questions as quickly as possible and randomly choose which category to choose, while sometimes using the shapes to influence how fast I answer",1,,4,3,,2,1440,900
