participant,date,expName,psychopyVersion,OS,frameRate,browser,xResolution,yResolution,key_resp.keys,key_resp.rt,training_resp.keys,training_resp.rt,points_trial,points_cumul,trainBlock,training.thisRepN,training.thisTrialN,training.thisN,training.thisIndex,training.ran,LTriangleOpac,LCircleOpac,LHexagonOpac,LStarOpac,RTriangleOpac,RCircleOpac,RHexagonOpac,RStarOpac,LShape_ID,RShape_ID,curr_topStim,curr_bottStim,curr_shape,acc,E1,target_resp_prac1.keys,pracBlock,task1_prac_trials.thisRepN,task1_prac_trials.thisTrialN,task1_prac_trials.thisN,task1_prac_trials.thisIndex,task1_prac_trials.ran,target_resp_prac1.rt,target_resp_prac2.keys,target_resp_prac2.rt,task2_praac_trials.thisRepN,task2_praac_trials.thisTrialN,task2_praac_trials.thisN,task2_praac_trials.thisIndex,task2_praac_trials.ran,alt,task,condition,target_resp.keys,target_resp.rt,rewCond,vts_practice_trials.thisRepN,vts_practice_trials.thisTrialN,vts_practice_trials.thisN,vts_practice_trials.thisIndex,vts_practice_trials.ran,blockNum,trials_norew.thisRepN,trials_norew.thisTrialN,trials_norew.thisN,trials_norew.thisIndex,trials_norew.ran,key_resp_2.keys,key_resp_2.rt,rewExpect,trials_rew.thisRepN,trials_rew.thisTrialN,trials_rew.thisN,trials_rew.thisIndex,trials_rew.ran,Q1,Q2,Q2_text,Q3,Q4,Q5_text,Q5,xRes,yRes
292906,2022-09-21_21h26.33.940,vts_reward_expectancy,2022.2.4,MacIntel,59.99880002,Chrome,1440,900,,,,,,,,,,,,,,,,,,,,,,,,,,,,,,,,,,,,,,,,,,,,,,,,,,,,,,,,,,,,,,,,,,,,,,,,,,,,
292906,2022-09-21_21h26.33.940,vts_reward_expectancy,2022.2.4,MacIntel,59.99880002,Chrome,1440,900,space,11.5415,,,,,,,,,,,,,,,,,,,,,,,,,,,,,,,,,,,,,,,,,,,,,,,,,,,,,,,,,,,,,,,,,,,,,,,,,,
292906,2022-09-21_21h26.33.940,vts_reward_expectancy,2022.2.4,MacIntel,59.99880002,Chrome,1440,900,,,,,,,,,,,,,,,,,,,,,,,,,,,,,,,,,,,,,,,,,,,,,,,,,,,,,,,,,,,,,,,,,,,,,,,,,,,,
292906,2022-09-21_21h26.33.940,vts_reward_expectancy,2022.2.4,MacIntel,59.99880002,Chrome,1440,900,,,a,0.928,10,10,0,0,0,0,9,1,0,0,0,1,1,0,0,0,star,triangle,,,,,,,,,,,,,,,,,,,,,,,,,,,,,,,,,,,,,,,,,,,,,,,,,,,,,,
292906,2022-09-21_21h26.33.940,vts_reward_expectancy,2022.2.4,MacIntel,59.99880002,Chrome,1440,900,,,a,2.137,10,20,0,0,1,1,7,1,0,0,1,0,0,1,0,0,hexagon,circle,,,,,,,,,,,,,,,,,,,,,,,,,,,,,,,,,,,,,,,,,,,,,,,,,,,,,,
292906,2022-09-21_21h26.33.940,vts_reward_expectancy,2022.2.4,MacIntel,59.99880002,Chrome,1440,900,,,l,0.8318,10,30,0,0,2,2,3,1,0,1,0,0,1,0,0,0,circle,triangle,,,,,,,,,,,,,,,,,,,,,,,,,,,,,,,,,,,,,,,,,,,,,,,,,,,,,,
292906,2022-09-21_21h26.33.940,vts_reward_expectancy,2022.2.4,MacIntel,59.99880002,Chrome,1440,900,,,a,0.8666,1,31,0,0,3,3,6,1,0,0,1,0,1,0,0,0,hexagon,triangle,,,,,,,,,,,,,,,,,,,,,,,,,,,,,,,,,,,,,,,,,,,,,,,,,,,,,,
292906,2022-09-21_21h26.33.940,vts_reward_expectancy,2022.2.4,MacIntel,59.99880002,Chrome,1440,900,,,l,1.0685,10,41,0,0,4,4,5,1,0,1,0,0,0,0,0,1,circle,star,,,,,,,,,,,,,,,,,,,,,,,,,,,,,,,,,,,,,,,,,,,,,,,,,,,,,,
292906,2022-09-21_21h26.33.940,vts_reward_expectancy,2022.2.4,MacIntel,59.99880002,Chrome,1440,900,,,a,3.2346,1,42,0,0,5,5,8,1,0,0,1,0,0,0,0,1,hexagon,star,,,,,,,,,,,,,,,,,,,,,,,,,,,,,,,,,,,,,,,,,,,,,,,,,,,,,,
292906,2022-09-21_21h26.33.940,vts_reward_expectancy,2022.2.4,MacIntel,59.99880002,Chrome,1440,900,,,a,1.0164,1,43,0,0,6,6,10,1,0,0,0,1,0,1,0,0,star ,circle,,,,,,,,,,,,,,,,,,,,,,,,,,,,,,,,,,,,,,,,,,,,,,,,,,,,,,
292906,2022-09-21_21h26.33.940,vts_reward_expectancy,2022.2.4,MacIntel,59.99880002,Chrome,1440,900,,,a,2.5989,10,53,0,0,7,7,2,1,1,0,0,0,0,0,0,1,triangle,star,,,,,,,,,,,,,,,,,,,,,,,,,,,,,,,,,,,,,,,,,,,,,,,,,,,,,,
292906,2022-09-21_21h26.33.940,vts_reward_expectancy,2022.2.4,MacIntel,59.99880002,Chrome,1440,900,,,a,1.6497,10,63,0,0,8,8,0,1,1,0,0,0,0,1,0,0,triangle,circle,,,,,,,,,,,,,,,,,,,,,,,,,,,,,,,,,,,,,,,,,,,,,,,,,,,,,,
292906,2022-09-21_21h26.33.940,vts_reward_expectancy,2022.2.4,MacIntel,59.99880002,Chrome,1440,900,,,l,3.1734,10,73,0,0,9,9,1,1,1,0,0,0,0,0,1,0,triangle,hexagon,,,,,,,,,,,,,,,,,,,,,,,,,,,,,,,,,,,,,,,,,,,,,,,,,,,,,,
292906,2022-09-21_21h26.33.940,vts_reward_expectancy,2022.2.4,MacIntel,59.99880002,Chrome,1440,900,,,l,1.9559,1,74,0,0,10,10,11,1,0,0,0,1,0,0,1,0,star,hexagon,,,,,,,,,,,,,,,,,,,,,,,,,,,,,,,,,,,,,,,,,,,,,,,,,,,,,,
292906,2022-09-21_21h26.33.940,vts_reward_expectancy,2022.2.4,MacIntel,59.99880002,Chrome,1440,900,,,l,2.9511,1,75,0,0,11,11,4,1,0,1,0,0,0,0,1,0,circle,hexagon,,,,,,,,,,,,,,,,,,,,,,,,,,,,,,,,,,,,,,,,,,,,,,,,,,,,,,
292906,2022-09-21_21h26.33.940,vts_reward_expectancy,2022.2.4,MacIntel,59.99880002,Chrome,1440,900,,,l,1.2343,10,85,0,1,0,12,2,1,1,0,0,0,0,0,0,1,triangle,star,,,,,,,,,,,,,,,,,,,,,,,,,,,,,,,,,,,,,,,,,,,,,,,,,,,,,,
292906,2022-09-21_21h26.33.940,vts_reward_expectancy,2022.2.4,MacIntel,59.99880002,Chrome,1440,900,,,a,2.5156,1,86,0,1,1,13,9,1,0,0,0,1,1,0,0,0,star,triangle,,,,,,,,,,,,,,,,,,,,,,,,,,,,,,,,,,,,,,,,,,,,,,,,,,,,,,
292906,2022-09-21_21h26.33.940,vts_reward_expectancy,2022.2.4,MacIntel,59.99880002,Chrome,1440,900,,,a,5.1259,1,87,0,1,2,14,6,1,0,0,1,0,1,0,0,0,hexagon,triangle,,,,,,,,,,,,,,,,,,,,,,,,,,,,,,,,,,,,,,,,,,,,,,,,,,,,,,
292906,2022-09-21_21h26.33.940,vts_reward_expectancy,2022.2.4,MacIntel,59.99880002,Chrome,1440,900,,,l,4.3649,10,97,0,1,3,15,3,1,0,1,0,0,1,0,0,0,circle,triangle,,,,,,,,,,,,,,,,,,,,,,,,,,,,,,,,,,,,,,,,,,,,,,,,,,,,,,
292906,2022-09-21_21h26.33.940,vts_reward_expectancy,2022.2.4,MacIntel,59.99880002,Chrome,1440,900,,,l,1.3339,1,98,0,1,4,16,10,1,0,0,0,1,0,1,0,0,star ,circle,,,,,,,,,,,,,,,,,,,,,,,,,,,,,,,,,,,,,,,,,,,,,,,,,,,,,,
292906,2022-09-21_21h26.33.940,vts_reward_expectancy,2022.2.4,MacIntel,59.99880002,Chrome,1440,900,,,a,1.3525,10,108,0,1,5,17,0,1,1,0,0,0,0,1,0,0,triangle,circle,,,,,,,,,,,,,,,,,,,,,,,,,,,,,,,,,,,,,,,,,,,,,,,,,,,,,,
292906,2022-09-21_21h26.33.940,vts_reward_expectancy,2022.2.4,MacIntel,59.99880002,Chrome,1440,900,,,l,4.2185,10,118,0,1,6,18,8,1,0,0,1,0,0,0,0,1,hexagon,star,,,,,,,,,,,,,,,,,,,,,,,,,,,,,,,,,,,,,,,,,,,,,,,,,,,,,,
292906,2022-09-21_21h26.33.940,vts_reward_expectancy,2022.2.4,MacIntel,59.99880002,Chrome,1440,900,,,a,2.1306,1,119,0,1,7,19,5,1,0,1,0,0,0,0,0,1,circle,star,,,,,,,,,,,,,,,,,,,,,,,,,,,,,,,,,,,,,,,,,,,,,,,,,,,,,,
292906,2022-09-21_21h26.33.940,vts_reward_expectancy,2022.2.4,MacIntel,59.99880002,Chrome,1440,900,,,a,2.2175,1,120,0,1,8,20,1,1,1,0,0,0,0,0,1,0,triangle,hexagon,,,,,,,,,,,,,,,,,,,,,,,,,,,,,,,,,,,,,,,,,,,,,,,,,,,,,,
292906,2022-09-21_21h26.33.940,vts_reward_expectancy,2022.2.4,MacIntel,59.99880002,Chrome,1440,900,,,l,2.6484,1,121,0,1,9,21,7,1,0,0,1,0,0,1,0,0,hexagon,circle,,,,,,,,,,,,,,,,,,,,,,,,,,,,,,,,,,,,,,,,,,,,,,,,,,,,,,
292906,2022-09-21_21h26.33.940,vts_reward_expectancy,2022.2.4,MacIntel,59.99880002,Chrome,1440,900,,,l,0.9805,10,131,0,1,10,22,4,1,0,1,0,0,0,0,1,0,circle,hexagon,,,,,,,,,,,,,,,,,,,,,,,,,,,,,,,,,,,,,,,,,,,,,,,,,,,,,,
292906,2022-09-21_21h26.33.940,vts_reward_expectancy,2022.2.4,MacIntel,59.99880002,Chrome,1440,900,,,a,1.9912,10,141,0,1,11,23,11,1,0,0,0,1,0,0,1,0,star,hexagon,,,,,,,,,,,,,,,,,,,,,,,,,,,,,,,,,,,,,,,,,,,,,,,,,,,,,,
292906,2022-09-21_21h26.33.940,vts_reward_expectancy,2022.2.4,MacIntel,59.99880002,Chrome,1440,900,,,l,2.171,1,142,0,2,0,24,1,1,1,0,0,0,0,0,1,0,triangle,hexagon,,,,,,,,,,,,,,,,,,,,,,,,,,,,,,,,,,,,,,,,,,,,,,,,,,,,,,
292906,2022-09-21_21h26.33.940,vts_reward_expectancy,2022.2.4,MacIntel,59.99880002,Chrome,1440,900,,,l,2.2307,1,143,0,2,1,25,0,1,1,0,0,0,0,1,0,0,triangle,circle,,,,,,,,,,,,,,,,,,,,,,,,,,,,,,,,,,,,,,,,,,,,,,,,,,,,,,
292906,2022-09-21_21h26.33.940,vts_reward_expectancy,2022.2.4,MacIntel,59.99880002,Chrome,1440,900,,,a,1.215,1,144,0,2,2,26,6,1,0,0,1,0,1,0,0,0,hexagon,triangle,,,,,,,,,,,,,,,,,,,,,,,,,,,,,,,,,,,,,,,,,,,,,,,,,,,,,,
292906,2022-09-21_21h26.33.940,vts_reward_expectancy,2022.2.4,MacIntel,59.99880002,Chrome,1440,900,,,a,0.9724,10,154,0,2,3,27,9,1,0,0,0,1,1,0,0,0,star,triangle,,,,,,,,,,,,,,,,,,,,,,,,,,,,,,,,,,,,,,,,,,,,,,,,,,,,,,
292906,2022-09-21_21h26.33.940,vts_reward_expectancy,2022.2.4,MacIntel,59.99880002,Chrome,1440,900,,,a,1.1687,10,164,0,2,4,28,11,1,0,0,0,1,0,0,1,0,star,hexagon,,,,,,,,,,,,,,,,,,,,,,,,,,,,,,,,,,,,,,,,,,,,,,,,,,,,,,
292906,2022-09-21_21h26.33.940,vts_reward_expectancy,2022.2.4,MacIntel,59.99880002,Chrome,1440,900,,,l,1.8149,1,165,0,2,5,29,4,1,0,1,0,0,0,0,1,0,circle,hexagon,,,,,,,,,,,,,,,,,,,,,,,,,,,,,,,,,,,,,,,,,,,,,,,,,,,,,,
292906,2022-09-21_21h26.33.940,vts_reward_expectancy,2022.2.4,MacIntel,59.99880002,Chrome,1440,900,,,l,1.2327,1,166,0,2,6,30,2,1,1,0,0,0,0,0,0,1,triangle,star,,,,,,,,,,,,,,,,,,,,,,,,,,,,,,,,,,,,,,,,,,,,,,,,,,,,,,
292906,2022-09-21_21h26.33.940,vts_reward_expectancy,2022.2.4,MacIntel,59.99880002,Chrome,1440,900,,,l,1.0162,10,176,0,2,7,31,5,1,0,1,0,0,0,0,0,1,circle,star,,,,,,,,,,,,,,,,,,,,,,,,,,,,,,,,,,,,,,,,,,,,,,,,,,,,,,
292906,2022-09-21_21h26.33.940,vts_reward_expectancy,2022.2.4,MacIntel,59.99880002,Chrome,1440,900,,,l,2.8481,10,186,0,2,8,32,8,1,0,0,1,0,0,0,0,1,hexagon,star,,,,,,,,,,,,,,,,,,,,,,,,,,,,,,,,,,,,,,,,,,,,,,,,,,,,,,
292906,2022-09-21_21h26.33.940,vts_reward_expectancy,2022.2.4,MacIntel,59.99880002,Chrome,1440,900,,,l,0.8321,1,187,0,2,9,33,7,1,0,0,1,0,0,1,0,0,hexagon,circle,,,,,,,,,,,,,,,,,,,,,,,,,,,,,,,,,,,,,,,,,,,,,,,,,,,,,,
292906,2022-09-21_21h26.33.940,vts_reward_expectancy,2022.2.4,MacIntel,59.99880002,Chrome,1440,900,,,a,0.7297,1,188,0,2,10,34,10,1,0,0,0,1,0,1,0,0,star ,circle,,,,,,,,,,,,,,,,,,,,,,,,,,,,,,,,,,,,,,,,,,,,,,,,,,,,,,
292906,2022-09-21_21h26.33.940,vts_reward_expectancy,2022.2.4,MacIntel,59.99880002,Chrome,1440,900,,,l,0.6825,1,189,0,2,11,35,3,1,0,1,0,0,1,0,0,0,circle,triangle,,,,,,,,,,,,,,,,,,,,,,,,,,,,,,,,,,,,,,,,,,,,,,,,,,,,,,
292906,2022-09-21_21h26.33.940,vts_reward_expectancy,2022.2.4,MacIntel,59.99880002,Chrome,1440,900,,,l,2.785,10,199,1,0,0,0,4,1,0,1,0,0,0,0,1,0,circle,hexagon,,,,,,,,,,,,,,,,,,,,,,,,,,,,,,,,,,,,,,,,,,,,,,,,,,,,,,
292906,2022-09-21_21h26.33.940,vts_reward_expectancy,2022.2.4,MacIntel,59.99880002,Chrome,1440,900,,,l,1.8493,1,200,1,0,1,1,8,1,0,0,1,0,0,0,0,1,hexagon,star,,,,,,,,,,,,,,,,,,,,,,,,,,,,,,,,,,,,,,,,,,,,,,,,,,,,,,
292906,2022-09-21_21h26.33.940,vts_reward_expectancy,2022.2.4,MacIntel,59.99880002,Chrome,1440,900,,,l,2.0907,1,201,1,0,2,2,3,1,0,1,0,0,1,0,0,0,circle,triangle,,,,,,,,,,,,,,,,,,,,,,,,,,,,,,,,,,,,,,,,,,,,,,,,,,,,,,
292906,2022-09-21_21h26.33.940,vts_reward_expectancy,2022.2.4,MacIntel,59.99880002,Chrome,1440,900,,,l,0.9741,10,211,1,0,3,3,5,1,0,1,0,0,0,0,0,1,circle,star,,,,,,,,,,,,,,,,,,,,,,,,,,,,,,,,,,,,,,,,,,,,,,,,,,,,,,
292906,2022-09-21_21h26.33.940,vts_reward_expectancy,2022.2.4,MacIntel,59.99880002,Chrome,1440,900,,,a,2.2812,10,221,1,0,4,4,10,1,0,0,0,1,0,1,0,0,star ,circle,,,,,,,,,,,,,,,,,,,,,,,,,,,,,,,,,,,,,,,,,,,,,,,,,,,,,,
292906,2022-09-21_21h26.33.940,vts_reward_expectancy,2022.2.4,MacIntel,59.99880002,Chrome,1440,900,,,l,1.3172,1,222,1,0,5,5,0,1,1,0,0,0,0,1,0,0,triangle,circle,,,,,,,,,,,,,,,,,,,,,,,,,,,,,,,,,,,,,,,,,,,,,,,,,,,,,,
292906,2022-09-21_21h26.33.940,vts_reward_expectancy,2022.2.4,MacIntel,59.99880002,Chrome,1440,900,,,l,1.4338,1,223,1,0,6,6,1,1,1,0,0,0,0,0,1,0,triangle,hexagon,,,,,,,,,,,,,,,,,,,,,,,,,,,,,,,,,,,,,,,,,,,,,,,,,,,,,,
292906,2022-09-21_21h26.33.940,vts_reward_expectancy,2022.2.4,MacIntel,59.99880002,Chrome,1440,900,,,l,1.0734,10,233,1,0,7,7,2,1,1,0,0,0,0,0,0,1,triangle,star,,,,,,,,,,,,,,,,,,,,,,,,,,,,,,,,,,,,,,,,,,,,,,,,,,,,,,
292906,2022-09-21_21h26.33.940,vts_reward_expectancy,2022.2.4,MacIntel,59.99880002,Chrome,1440,900,,,a,1.7522,10,243,1,0,8,8,7,1,0,0,1,0,0,1,0,0,hexagon,circle,,,,,,,,,,,,,,,,,,,,,,,,,,,,,,,,,,,,,,,,,,,,,,,,,,,,,,
292906,2022-09-21_21h26.33.940,vts_reward_expectancy,2022.2.4,MacIntel,59.99880002,Chrome,1440,900,,,a,1.8845,1,244,1,0,9,9,6,1,0,0,1,0,1,0,0,0,hexagon,triangle,,,,,,,,,,,,,,,,,,,,,,,,,,,,,,,,,,,,,,,,,,,,,,,,,,,,,,
292906,2022-09-21_21h26.33.940,vts_reward_expectancy,2022.2.4,MacIntel,59.99880002,Chrome,1440,900,,,a,1.133,10,254,1,0,10,10,9,1,0,0,0,1,1,0,0,0,star,triangle,,,,,,,,,,,,,,,,,,,,,,,,,,,,,,,,,,,,,,,,,,,,,,,,,,,,,,
292906,2022-09-21_21h26.33.940,vts_reward_expectancy,2022.2.4,MacIntel,59.99880002,Chrome,1440,900,,,a,1.2161,10,264,1,0,11,11,11,1,0,0,0,1,0,0,1,0,star,hexagon,,,,,,,,,,,,,,,,,,,,,,,,,,,,,,,,,,,,,,,,,,,,,,,,,,,,,,
292906,2022-09-21_21h26.33.940,vts_reward_expectancy,2022.2.4,MacIntel,59.99880002,Chrome,1440,900,,,l,0.9796,1,265,1,1,0,12,0,1,1,0,0,0,0,1,0,0,triangle,circle,,,,,,,,,,,,,,,,,,,,,,,,,,,,,,,,,,,,,,,,,,,,,,,,,,,,,,
292906,2022-09-21_21h26.33.940,vts_reward_expectancy,2022.2.4,MacIntel,59.99880002,Chrome,1440,900,,,l,1.1816,10,275,1,1,1,13,8,1,0,0,1,0,0,0,0,1,hexagon,star,,,,,,,,,,,,,,,,,,,,,,,,,,,,,,,,,,,,,,,,,,,,,,,,,,,,,,
292906,2022-09-21_21h26.33.940,vts_reward_expectancy,2022.2.4,MacIntel,59.99880002,Chrome,1440,900,,,a,3.7721,1,276,1,1,2,14,2,1,1,0,0,0,0,0,0,1,triangle,star,,,,,,,,,,,,,,,,,,,,,,,,,,,,,,,,,,,,,,,,,,,,,,,,,,,,,,
292906,2022-09-21_21h26.33.940,vts_reward_expectancy,2022.2.4,MacIntel,59.99880002,Chrome,1440,900,,,a,1.7507,1,277,1,1,3,15,6,1,0,0,1,0,1,0,0,0,hexagon,triangle,,,,,,,,,,,,,,,,,,,,,,,,,,,,,,,,,,,,,,,,,,,,,,,,,,,,,,
292906,2022-09-21_21h26.33.940,vts_reward_expectancy,2022.2.4,MacIntel,59.99880002,Chrome,1440,900,,,l,1.9495,10,287,1,1,4,16,3,1,0,1,0,0,1,0,0,0,circle,triangle,,,,,,,,,,,,,,,,,,,,,,,,,,,,,,,,,,,,,,,,,,,,,,,,,,,,,,
292906,2022-09-21_21h26.33.940,vts_reward_expectancy,2022.2.4,MacIntel,59.99880002,Chrome,1440,900,,,a,1.1988,1,288,1,1,5,17,7,1,0,0,1,0,0,1,0,0,hexagon,circle,,,,,,,,,,,,,,,,,,,,,,,,,,,,,,,,,,,,,,,,,,,,,,,,,,,,,,
292906,2022-09-21_21h26.33.940,vts_reward_expectancy,2022.2.4,MacIntel,59.99880002,Chrome,1440,900,,,a,0.9182,10,298,1,1,6,18,11,1,0,0,0,1,0,0,1,0,star,hexagon,,,,,,,,,,,,,,,,,,,,,,,,,,,,,,,,,,,,,,,,,,,,,,,,,,,,,,
292906,2022-09-21_21h26.33.940,vts_reward_expectancy,2022.2.4,MacIntel,59.99880002,Chrome,1440,900,,,a,1.5518,1,299,1,1,7,19,1,1,1,0,0,0,0,0,1,0,triangle,hexagon,,,,,,,,,,,,,,,,,,,,,,,,,,,,,,,,,,,,,,,,,,,,,,,,,,,,,,
292906,2022-09-21_21h26.33.940,vts_reward_expectancy,2022.2.4,MacIntel,59.99880002,Chrome,1440,900,,,l,0.6824,10,309,1,1,8,20,5,1,0,1,0,0,0,0,0,1,circle,star,,,,,,,,,,,,,,,,,,,,,,,,,,,,,,,,,,,,,,,,,,,,,,,,,,,,,,
292906,2022-09-21_21h26.33.940,vts_reward_expectancy,2022.2.4,MacIntel,59.99880002,Chrome,1440,900,,,a,1.2509,10,319,1,1,9,21,9,1,0,0,0,1,1,0,0,0,star,triangle,,,,,,,,,,,,,,,,,,,,,,,,,,,,,,,,,,,,,,,,,,,,,,,,,,,,,,
292906,2022-09-21_21h26.33.940,vts_reward_expectancy,2022.2.4,MacIntel,59.99880002,Chrome,1440,900,,,a,1.4878,10,329,1,1,10,22,10,1,0,0,0,1,0,1,0,0,star ,circle,,,,,,,,,,,,,,,,,,,,,,,,,,,,,,,,,,,,,,,,,,,,,,,,,,,,,,
292906,2022-09-21_21h26.33.940,vts_reward_expectancy,2022.2.4,MacIntel,59.99880002,Chrome,1440,900,,,a,2.1882,1,330,1,1,11,23,4,1,0,1,0,0,0,0,1,0,circle,hexagon,,,,,,,,,,,,,,,,,,,,,,,,,,,,,,,,,,,,,,,,,,,,,,,,,,,,,,
292906,2022-09-21_21h26.33.940,vts_reward_expectancy,2022.2.4,MacIntel,59.99880002,Chrome,1440,900,,,l,1.401,1,331,1,2,0,24,1,1,1,0,0,0,0,0,1,0,triangle,hexagon,,,,,,,,,,,,,,,,,,,,,,,,,,,,,,,,,,,,,,,,,,,,,,,,,,,,,,
292906,2022-09-21_21h26.33.940,vts_reward_expectancy,2022.2.4,MacIntel,59.99880002,Chrome,1440,900,,,l,3.3854,1,332,1,2,1,25,3,1,0,1,0,0,1,0,0,0,circle,triangle,,,,,,,,,,,,,,,,,,,,,,,,,,,,,,,,,,,,,,,,,,,,,,,,,,,,,,
292906,2022-09-21_21h26.33.940,vts_reward_expectancy,2022.2.4,MacIntel,59.99880002,Chrome,1440,900,,,a,1.9334,1,333,1,2,2,26,7,1,0,0,1,0,0,1,0,0,hexagon,circle,,,,,,,,,,,,,,,,,,,,,,,,,,,,,,,,,,,,,,,,,,,,,,,,,,,,,,
292906,2022-09-21_21h26.33.940,vts_reward_expectancy,2022.2.4,MacIntel,59.99880002,Chrome,1440,900,,,l,1.0042,10,343,1,2,3,27,5,1,0,1,0,0,0,0,0,1,circle,star,,,,,,,,,,,,,,,,,,,,,,,,,,,,,,,,,,,,,,,,,,,,,,,,,,,,,,
292906,2022-09-21_21h26.33.940,vts_reward_expectancy,2022.2.4,MacIntel,59.99880002,Chrome,1440,900,,,a,1.7577,10,353,1,2,4,28,9,1,0,0,0,1,1,0,0,0,star,triangle,,,,,,,,,,,,,,,,,,,,,,,,,,,,,,,,,,,,,,,,,,,,,,,,,,,,,,
292906,2022-09-21_21h26.33.940,vts_reward_expectancy,2022.2.4,MacIntel,59.99880002,Chrome,1440,900,,,l,1.7347,10,363,1,2,5,29,2,1,1,0,0,0,0,0,0,1,triangle,star,,,,,,,,,,,,,,,,,,,,,,,,,,,,,,,,,,,,,,,,,,,,,,,,,,,,,,
292906,2022-09-21_21h26.33.940,vts_reward_expectancy,2022.2.4,MacIntel,59.99880002,Chrome,1440,900,,,l,1.3185,10,373,1,2,6,30,8,1,0,0,1,0,0,0,0,1,hexagon,star,,,,,,,,,,,,,,,,,,,,,,,,,,,,,,,,,,,,,,,,,,,,,,,,,,,,,,
292906,2022-09-21_21h26.33.940,vts_reward_expectancy,2022.2.4,MacIntel,59.99880002,Chrome,1440,900,,,a,2.6347,1,374,1,2,7,31,6,1,0,0,1,0,1,0,0,0,hexagon,triangle,,,,,,,,,,,,,,,,,,,,,,,,,,,,,,,,,,,,,,,,,,,,,,,,,,,,,,
292906,2022-09-21_21h26.33.940,vts_reward_expectancy,2022.2.4,MacIntel,59.99880002,Chrome,1440,900,,,l,1.2152,10,384,1,2,8,32,4,1,0,1,0,0,0,0,1,0,circle,hexagon,,,,,,,,,,,,,,,,,,,,,,,,,,,,,,,,,,,,,,,,,,,,,,,,,,,,,,
292906,2022-09-21_21h26.33.940,vts_reward_expectancy,2022.2.4,MacIntel,59.99880002,Chrome,1440,900,,,a,1.0317,10,394,1,2,9,33,10,1,0,0,0,1,0,1,0,0,star ,circle,,,,,,,,,,,,,,,,,,,,,,,,,,,,,,,,,,,,,,,,,,,,,,,,,,,,,,
292906,2022-09-21_21h26.33.940,vts_reward_expectancy,2022.2.4,MacIntel,59.99880002,Chrome,1440,900,,,a,1.842,10,404,1,2,10,34,11,1,0,0,0,1,0,0,1,0,star,hexagon,,,,,,,,,,,,,,,,,,,,,,,,,,,,,,,,,,,,,,,,,,,,,,,,,,,,,,
292906,2022-09-21_21h26.33.940,vts_reward_expectancy,2022.2.4,MacIntel,59.99880002,Chrome,1440,900,,,l,8.4021,1,405,1,2,11,35,0,1,1,0,0,0,0,1,0,0,triangle,circle,,,,,,,,,,,,,,,,,,,,,,,,,,,,,,,,,,,,,,,,,,,,,,,,,,,,,,
292906,2022-09-21_21h26.33.940,vts_reward_expectancy,2022.2.4,MacIntel,59.99880002,Chrome,1440,900,,,l,2.9863,1,406,2,0,0,0,0,1,1,0,0,0,0,1,0,0,triangle,circle,,,,,,,,,,,,,,,,,,,,,,,,,,,,,,,,,,,,,,,,,,,,,,,,,,,,,,
292906,2022-09-21_21h26.33.940,vts_reward_expectancy,2022.2.4,MacIntel,59.99880002,Chrome,1440,900,,,l,1.1315,10,416,2,0,1,1,8,1,0,0,1,0,0,0,0,1,hexagon,star,,,,,,,,,,,,,,,,,,,,,,,,,,,,,,,,,,,,,,,,,,,,,,,,,,,,,,
292906,2022-09-21_21h26.33.940,vts_reward_expectancy,2022.2.4,MacIntel,59.99880002,Chrome,1440,900,,,l,1.3544,1,417,2,0,2,2,4,1,0,1,0,0,0,0,1,0,circle,hexagon,,,,,,,,,,,,,,,,,,,,,,,,,,,,,,,,,,,,,,,,,,,,,,,,,,,,,,
292906,2022-09-21_21h26.33.940,vts_reward_expectancy,2022.2.4,MacIntel,59.99880002,Chrome,1440,900,,,l,1.2538,10,427,2,0,3,3,5,1,0,1,0,0,0,0,0,1,circle,star,,,,,,,,,,,,,,,,,,,,,,,,,,,,,,,,,,,,,,,,,,,,,,,,,,,,,,
292906,2022-09-21_21h26.33.940,vts_reward_expectancy,2022.2.4,MacIntel,59.99880002,Chrome,1440,900,,,a,2.0494,1,428,2,0,4,4,9,1,0,0,0,1,1,0,0,0,star,triangle,,,,,,,,,,,,,,,,,,,,,,,,,,,,,,,,,,,,,,,,,,,,,,,,,,,,,,
292906,2022-09-21_21h26.33.940,vts_reward_expectancy,2022.2.4,MacIntel,59.99880002,Chrome,1440,900,,,a,1.2831,10,438,2,0,5,5,6,1,0,0,1,0,1,0,0,0,hexagon,triangle,,,,,,,,,,,,,,,,,,,,,,,,,,,,,,,,,,,,,,,,,,,,,,,,,,,,,,
292906,2022-09-21_21h26.33.940,vts_reward_expectancy,2022.2.4,MacIntel,59.99880002,Chrome,1440,900,,,a,1.3132,10,448,2,0,6,6,7,1,0,0,1,0,0,1,0,0,hexagon,circle,,,,,,,,,,,,,,,,,,,,,,,,,,,,,,,,,,,,,,,,,,,,,,,,,,,,,,
292906,2022-09-21_21h26.33.940,vts_reward_expectancy,2022.2.4,MacIntel,59.99880002,Chrome,1440,900,,,a,1.3987,1,449,2,0,7,7,11,1,0,0,0,1,0,0,1,0,star,hexagon,,,,,,,,,,,,,,,,,,,,,,,,,,,,,,,,,,,,,,,,,,,,,,,,,,,,,,
292906,2022-09-21_21h26.33.940,vts_reward_expectancy,2022.2.4,MacIntel,59.99880002,Chrome,1440,900,,,l,15.2814,10,459,2,0,8,8,3,1,0,1,0,0,1,0,0,0,circle,triangle,,,,,,,,,,,,,,,,,,,,,,,,,,,,,,,,,,,,,,,,,,,,,,,,,,,,,,
292906,2022-09-21_21h26.33.940,vts_reward_expectancy,2022.2.4,MacIntel,59.99880002,Chrome,1440,900,,,a,1.049,10,469,2,0,9,9,10,1,0,0,0,1,0,1,0,0,star ,circle,,,,,,,,,,,,,,,,,,,,,,,,,,,,,,,,,,,,,,,,,,,,,,,,,,,,,,
292906,2022-09-21_21h26.33.940,vts_reward_expectancy,2022.2.4,MacIntel,59.99880002,Chrome,1440,900,,,l,0.8787,10,479,2,0,10,10,2,1,1,0,0,0,0,0,0,1,triangle,star,,,,,,,,,,,,,,,,,,,,,,,,,,,,,,,,,,,,,,,,,,,,,,,,,,,,,,
292906,2022-09-21_21h26.33.940,vts_reward_expectancy,2022.2.4,MacIntel,59.99880002,Chrome,1440,900,,,l,1.4766,10,489,2,0,11,11,1,1,1,0,0,0,0,0,1,0,triangle,hexagon,,,,,,,,,,,,,,,,,,,,,,,,,,,,,,,,,,,,,,,,,,,,,,,,,,,,,,
292906,2022-09-21_21h26.33.940,vts_reward_expectancy,2022.2.4,MacIntel,59.99880002,Chrome,1440,900,,,l,0.9986,10,499,2,1,0,12,8,1,0,0,1,0,0,0,0,1,hexagon,star,,,,,,,,,,,,,,,,,,,,,,,,,,,,,,,,,,,,,,,,,,,,,,,,,,,,,,
292906,2022-09-21_21h26.33.940,vts_reward_expectancy,2022.2.4,MacIntel,59.99880002,Chrome,1440,900,,,l,1.5659,1,500,2,1,1,13,1,1,1,0,0,0,0,0,1,0,triangle,hexagon,,,,,,,,,,,,,,,,,,,,,,,,,,,,,,,,,,,,,,,,,,,,,,,,,,,,,,
292906,2022-09-21_21h26.33.940,vts_reward_expectancy,2022.2.4,MacIntel,59.99880002,Chrome,1440,900,,,l,1.6888,1,501,2,1,2,14,6,1,0,0,1,0,1,0,0,0,hexagon,triangle,,,,,,,,,,,,,,,,,,,,,,,,,,,,,,,,,,,,,,,,,,,,,,,,,,,,,,
292906,2022-09-21_21h26.33.940,vts_reward_expectancy,2022.2.4,MacIntel,59.99880002,Chrome,1440,900,,,a,1.6336,1,502,2,1,3,15,10,1,0,0,0,1,0,1,0,0,star ,circle,,,,,,,,,,,,,,,,,,,,,,,,,,,,,,,,,,,,,,,,,,,,,,,,,,,,,,
292906,2022-09-21_21h26.33.940,vts_reward_expectancy,2022.2.4,MacIntel,59.99880002,Chrome,1440,900,,,l,3.9988,10,512,2,1,4,16,3,1,0,1,0,0,1,0,0,0,circle,triangle,,,,,,,,,,,,,,,,,,,,,,,,,,,,,,,,,,,,,,,,,,,,,,,,,,,,,,
292906,2022-09-21_21h26.33.940,vts_reward_expectancy,2022.2.4,MacIntel,59.99880002,Chrome,1440,900,,,a,1.0651,1,513,2,1,5,17,11,1,0,0,0,1,0,0,1,0,star,hexagon,,,,,,,,,,,,,,,,,,,,,,,,,,,,,,,,,,,,,,,,,,,,,,,,,,,,,,
292906,2022-09-21_21h26.33.940,vts_reward_expectancy,2022.2.4,MacIntel,59.99880002,Chrome,1440,900,,,a,2.7496,10,523,2,1,6,18,9,1,0,0,0,1,1,0,0,0,star,triangle,,,,,,,,,,,,,,,,,,,,,,,,,,,,,,,,,,,,,,,,,,,,,,,,,,,,,,
292906,2022-09-21_21h26.33.940,vts_reward_expectancy,2022.2.4,MacIntel,59.99880002,Chrome,1440,900,,,l,1.6717,1,524,2,1,7,19,7,1,0,0,1,0,0,1,0,0,hexagon,circle,,,,,,,,,,,,,,,,,,,,,,,,,,,,,,,,,,,,,,,,,,,,,,,,,,,,,,
292906,2022-09-21_21h26.33.940,vts_reward_expectancy,2022.2.4,MacIntel,59.99880002,Chrome,1440,900,,,l,0.8826,10,534,2,1,8,20,2,1,1,0,0,0,0,0,0,1,triangle,star,,,,,,,,,,,,,,,,,,,,,,,,,,,,,,,,,,,,,,,,,,,,,,,,,,,,,,
292906,2022-09-21_21h26.33.940,vts_reward_expectancy,2022.2.4,MacIntel,59.99880002,Chrome,1440,900,,,a,1.9661,10,544,2,1,9,21,0,1,1,0,0,0,0,1,0,0,triangle,circle,,,,,,,,,,,,,,,,,,,,,,,,,,,,,,,,,,,,,,,,,,,,,,,,,,,,,,
292906,2022-09-21_21h26.33.940,vts_reward_expectancy,2022.2.4,MacIntel,59.99880002,Chrome,1440,900,,,l,2.0661,1,545,2,1,10,22,4,1,0,1,0,0,0,0,1,0,circle,hexagon,,,,,,,,,,,,,,,,,,,,,,,,,,,,,,,,,,,,,,,,,,,,,,,,,,,,,,
292906,2022-09-21_21h26.33.940,vts_reward_expectancy,2022.2.4,MacIntel,59.99880002,Chrome,1440,900,,,l,1.0844,1,546,2,1,11,23,5,1,0,1,0,0,0,0,0,1,circle,star,,,,,,,,,,,,,,,,,,,,,,,,,,,,,,,,,,,,,,,,,,,,,,,,,,,,,,
292906,2022-09-21_21h26.33.940,vts_reward_expectancy,2022.2.4,MacIntel,59.99880002,Chrome,1440,900,,,l,1.7702,1,547,2,2,0,24,1,1,1,0,0,0,0,0,1,0,triangle,hexagon,,,,,,,,,,,,,,,,,,,,,,,,,,,,,,,,,,,,,,,,,,,,,,,,,,,,,,
292906,2022-09-21_21h26.33.940,vts_reward_expectancy,2022.2.4,MacIntel,59.99880002,Chrome,1440,900,,,l,0.8905,10,557,2,2,1,25,2,1,1,0,0,0,0,0,0,1,triangle,star,,,,,,,,,,,,,,,,,,,,,,,,,,,,,,,,,,,,,,,,,,,,,,,,,,,,,,
292906,2022-09-21_21h26.33.940,vts_reward_expectancy,2022.2.4,MacIntel,59.99880002,Chrome,1440,900,,,l,1.1322,10,567,2,2,2,26,3,1,0,1,0,0,1,0,0,0,circle,triangle,,,,,,,,,,,,,,,,,,,,,,,,,,,,,,,,,,,,,,,,,,,,,,,,,,,,,,
292906,2022-09-21_21h26.33.940,vts_reward_expectancy,2022.2.4,MacIntel,59.99880002,Chrome,1440,900,,,a,1.459,1,568,2,2,3,27,4,1,0,1,0,0,0,0,1,0,circle,hexagon,,,,,,,,,,,,,,,,,,,,,,,,,,,,,,,,,,,,,,,,,,,,,,,,,,,,,,
292906,2022-09-21_21h26.33.940,vts_reward_expectancy,2022.2.4,MacIntel,59.99880002,Chrome,1440,900,,,l,0.9895,10,578,2,2,4,28,8,1,0,0,1,0,0,0,0,1,hexagon,star,,,,,,,,,,,,,,,,,,,,,,,,,,,,,,,,,,,,,,,,,,,,,,,,,,,,,,
292906,2022-09-21_21h26.33.940,vts_reward_expectancy,2022.2.4,MacIntel,59.99880002,Chrome,1440,900,,,a,1.8996,10,588,2,2,5,29,9,1,0,0,0,1,1,0,0,0,star,triangle,,,,,,,,,,,,,,,,,,,,,,,,,,,,,,,,,,,,,,,,,,,,,,,,,,,,,,
292906,2022-09-21_21h26.33.940,vts_reward_expectancy,2022.2.4,MacIntel,59.99880002,Chrome,1440,900,,,a,1.4169,1,589,2,2,6,30,0,1,1,0,0,0,0,1,0,0,triangle,circle,,,,,,,,,,,,,,,,,,,,,,,,,,,,,,,,,,,,,,,,,,,,,,,,,,,,,,
292906,2022-09-21_21h26.33.940,vts_reward_expectancy,2022.2.4,MacIntel,59.99880002,Chrome,1440,900,,,a,0.9969,10,599,2,2,7,31,11,1,0,0,0,1,0,0,1,0,star,hexagon,,,,,,,,,,,,,,,,,,,,,,,,,,,,,,,,,,,,,,,,,,,,,,,,,,,,,,
292906,2022-09-21_21h26.33.940,vts_reward_expectancy,2022.2.4,MacIntel,59.99880002,Chrome,1440,900,,,l,1.3652,10,609,2,2,8,32,10,1,0,0,0,1,0,1,0,0,star ,circle,,,,,,,,,,,,,,,,,,,,,,,,,,,,,,,,,,,,,,,,,,,,,,,,,,,,,,
292906,2022-09-21_21h26.33.940,vts_reward_expectancy,2022.2.4,MacIntel,59.99880002,Chrome,1440,900,,,a,3.3674,10,619,2,2,9,33,7,1,0,0,1,0,0,1,0,0,hexagon,circle,,,,,,,,,,,,,,,,,,,,,,,,,,,,,,,,,,,,,,,,,,,,,,,,,,,,,,
292906,2022-09-21_21h26.33.940,vts_reward_expectancy,2022.2.4,MacIntel,59.99880002,Chrome,1440,900,,,a,2.826,1,620,2,2,10,34,5,1,0,1,0,0,0,0,0,1,circle,star,,,,,,,,,,,,,,,,,,,,,,,,,,,,,,,,,,,,,,,,,,,,,,,,,,,,,,
292906,2022-09-21_21h26.33.940,vts_reward_expectancy,2022.2.4,MacIntel,59.99880002,Chrome,1440,900,,,l,2.0823,1,621,2,2,11,35,6,1,0,0,1,0,1,0,0,0,hexagon,triangle,,,,,,,,,,,,,,,,,,,,,,,,,,,,,,,,,,,,,,,,,,,,,,,,,,,,,,
292906,2022-09-21_21h26.33.940,vts_reward_expectancy,2022.2.4,MacIntel,59.99880002,Chrome,1440,900,,,,,,,,,,,,,,,,,,,,,,,167,H,hexagon,0,0,,0,0,0,0,0,1,,,,,,,,,,,,,,,,,,,,,,,,,,,,,,,,,,,,,,,,,,
292906,2022-09-21_21h26.33.940,vts_reward_expectancy,2022.2.4,MacIntel,59.99880002,Chrome,1440,900,,,,,,,,,,,,,,,,,,,,,,,146,S,triangle,1,1,d,0,1,0,1,0,1,0.8136,,,,,,,,,,,,,,,,,,,,,,,,,,,,,,,,,,,,,,,,,
292906,2022-09-21_21h26.33.940,vts_reward_expectancy,2022.2.4,MacIntel,59.99880002,Chrome,1440,900,,,,,,,,,,,,,,,,,,,,,,,125,W,star,1,0,d,0,2,0,2,0,1,0.7253,,,,,,,,,,,,,,,,,,,,,,,,,,,,,,,,,,,,,,,,,
292906,2022-09-21_21h26.33.940,vts_reward_expectancy,2022.2.4,MacIntel,59.99880002,Chrome,1440,900,,,,,,,,,,,,,,,,,,,,,,,160,B,circle,1,0,f,0,3,0,3,0,1,0.7483,,,,,,,,,,,,,,,,,,,,,,,,,,,,,,,,,,,,,,,,,
292906,2022-09-21_21h26.33.940,vts_reward_expectancy,2022.2.4,MacIntel,59.99880002,Chrome,1440,900,,,,,,,,,,,,,,,,,,,,,,,181,D,hexagon,1,0,f,0,4,0,4,0,1,0.6125,,,,,,,,,,,,,,,,,,,,,,,,,,,,,,,,,,,,,,,,,
292906,2022-09-21_21h26.33.940,vts_reward_expectancy,2022.2.4,MacIntel,59.99880002,Chrome,1440,900,,,,,,,,,,,,,,,,,,,,,,,139,U,triangle,1,0,d,0,5,0,5,0,1,0.6273,,,,,,,,,,,,,,,,,,,,,,,,,,,,,,,,,,,,,,,,,
292906,2022-09-21_21h26.33.940,vts_reward_expectancy,2022.2.4,MacIntel,59.99880002,Chrome,1440,900,,,,,,,,,,,,,,,,,,,,,,,132,Y,star,1,0,d,0,6,0,6,0,1,0.5745,,,,,,,,,,,,,,,,,,,,,,,,,,,,,,,,,,,,,,,,,
292906,2022-09-21_21h26.33.940,vts_reward_expectancy,2022.2.4,MacIntel,59.99880002,Chrome,1440,900,,,,,,,,,,,,,,,,,,,,,,,174,F,circle,1,0,f,0,7,0,7,0,1,0.5866,,,,,,,,,,,,,,,,,,,,,,,,,,,,,,,,,,,,,,,,,
292906,2022-09-21_21h26.33.940,vts_reward_expectancy,2022.2.4,MacIntel,59.99880002,Chrome,1440,900,,,,,,,,,,,,,,,,,,,,,,,167,H,circle,1,0,f,0,8,0,8,0,1,0.4957,,,,,,,,,,,,,,,,,,,,,,,,,,,,,,,,,,,,,,,,,
292906,2022-09-21_21h26.33.940,vts_reward_expectancy,2022.2.4,MacIntel,59.99880002,Chrome,1440,900,,,,,,,,,,,,,,,,,,,,,,,146,S,star,1,0,d,0,9,0,9,0,1,0.55,,,,,,,,,,,,,,,,,,,,,,,,,,,,,,,,,,,,,,,,,
292906,2022-09-21_21h26.33.940,vts_reward_expectancy,2022.2.4,MacIntel,59.99880002,Chrome,1440,900,,,,,,,,,,,,,,,,,,,,,,,160,Y,circle,1,0,,1,,,,,,,k,0.9529,0,0,0,0,1,,,,,,,,,,,,,,,,,,,,,,,,,,,,,,,,,,
292906,2022-09-21_21h26.33.940,vts_reward_expectancy,2022.2.4,MacIntel,59.99880002,Chrome,1440,900,,,,,,,,,,,,,,,,,,,,,,,125,H,star,1,0,,1,,,,,,,j,0.7026,1,0,1,0,1,,,,,,,,,,,,,,,,,,,,,,,,,,,,,,,,,,
292906,2022-09-21_21h26.33.940,vts_reward_expectancy,2022.2.4,MacIntel,59.99880002,Chrome,1440,900,,,,,,,,,,,,,,,,,,,,,,,167,D,triangle,1,0,,1,,,,,,,j,0.5854,2,0,2,0,1,,,,,,,,,,,,,,,,,,,,,,,,,,,,,,,,,,
292906,2022-09-21_21h26.33.940,vts_reward_expectancy,2022.2.4,MacIntel,59.99880002,Chrome,1440,900,,,,,,,,,,,,,,,,,,,,,,,174,B,hexagon,1,0,,1,,,,,,,j,0.5137,3,0,3,0,1,,,,,,,,,,,,,,,,,,,,,,,,,,,,,,,,,,
292906,2022-09-21_21h26.33.940,vts_reward_expectancy,2022.2.4,MacIntel,59.99880002,Chrome,1440,900,,,,,,,,,,,,,,,,,,,,,,,139,W,circle,1,0,,1,,,,,,,k,0.5533,4,0,4,0,1,,,,,,,,,,,,,,,,,,,,,,,,,,,,,,,,,,
292906,2022-09-21_21h26.33.940,vts_reward_expectancy,2022.2.4,MacIntel,59.99880002,Chrome,1440,900,,,,,,,,,,,,,,,,,,,,,,,132,S,star,1,0,,1,,,,,,,k,1.8461,5,0,5,0,1,,,,,,,,,,,,,,,,,,,,,,,,,,,,,,,,,,
292906,2022-09-21_21h26.33.940,vts_reward_expectancy,2022.2.4,MacIntel,59.99880002,Chrome,1440,900,,,,,,,,,,,,,,,,,,,,,,,146,F,triangle,1,0,,1,,,,,,,j,0.7022,6,0,6,0,1,,,,,,,,,,,,,,,,,,,,,,,,,,,,,,,,,,
292906,2022-09-21_21h26.33.940,vts_reward_expectancy,2022.2.4,MacIntel,59.99880002,Chrome,1440,900,,,,,,,,,,,,,,,,,,,,,,,181,U,hexagon,1,0,,1,,,,,,,k,0.8157,7,0,7,0,1,,,,,,,,,,,,,,,,,,,,,,,,,,,,,,,,,,
292906,2022-09-21_21h26.33.940,vts_reward_expectancy,2022.2.4,MacIntel,59.99880002,Chrome,1440,900,,,,,,,,,,,,,,,,,,,,,,,160,Y,star,1,0,,1,,,,,,,k,0.5657,8,0,8,0,1,,,,,,,,,,,,,,,,,,,,,,,,,,,,,,,,,,
292906,2022-09-21_21h26.33.940,vts_reward_expectancy,2022.2.4,MacIntel,59.99880002,Chrome,1440,900,,,,,,,,,,,,,,,,,,,,,,,125,H,hexagon,1,0,,1,,,,,,,j,0.9766,9,0,9,0,1,,,,,,,,,,,,,,,,,,,,,,,,,,,,,,,,,,
292906,2022-09-21_21h26.33.940,vts_reward_expectancy,2022.2.4,MacIntel,59.99880002,Chrome,1440,900,,,,,0,621,,,,,,,,,,,,,,,,,167,D,circle,1,0,,2,,,,,,,,,,,,,,-1,number,NA,f,1.3187,vtsPrac,0,0,0,0,1,,,,,,,,,,,,,,,,,,,,,,,
292906,2022-09-21_21h26.33.940,vts_reward_expectancy,2022.2.4,MacIntel,59.99880002,Chrome,1440,900,,,,,0,621,,,,,,,,,,,,,,,,,174,U,triangle,1,0,,2,,,,,,,,,,,,,,switch,letter,lettSwt,k,1.0285,vtsPrac,1,0,1,0,1,,,,,,,,,,,,,,,,,,,,,,,
292906,2022-09-21_21h26.33.940,vts_reward_expectancy,2022.2.4,MacIntel,59.99880002,Chrome,1440,900,,,,,0,621,,,,,,,,,,,,,,,,,132,H,circle,1,0,,2,,,,,,,,,,,,,,switch,number,numSwt,d,0.9463,vtsPrac,2,0,2,0,1,,,,,,,,,,,,,,,,,,,,,,,
292906,2022-09-21_21h26.33.940,vts_reward_expectancy,2022.2.4,MacIntel,59.99880002,Chrome,1440,900,,,,,0,621,,,,,,,,,,,,,,,,,125,S,triangle,1,0,,2,,,,,,,,,,,,,,repeat,number,numRpt,d,0.8299,vtsPrac,3,0,3,0,1,,,,,,,,,,,,,,,,,,,,,,,
292906,2022-09-21_21h26.33.940,vts_reward_expectancy,2022.2.4,MacIntel,59.99880002,Chrome,1440,900,,,,,0,621,,,,,,,,,,,,,,,,,167,D,star,1,0,,2,,,,,,,,,,,,,,switch,letter,lettSwt,j,0.8944,vtsPrac,4,0,4,0,1,,,,,,,,,,,,,,,,,,,,,,,
292906,2022-09-21_21h26.33.940,vts_reward_expectancy,2022.2.4,MacIntel,59.99880002,Chrome,1440,900,,,,,0,621,,,,,,,,,,,,,,,,,174,U,hexagon,1,0,,2,,,,,,,,,,,,,,switch,number,numSwt,f,0.6434,vtsPrac,5,0,5,0,1,,,,,,,,,,,,,,,,,,,,,,,
292906,2022-09-21_21h26.33.940,vts_reward_expectancy,2022.2.4,MacIntel,59.99880002,Chrome,1440,900,,,,,0,621,,,,,,,,,,,,,,,,,132,H,hexagon,1,0,,2,,,,,,,,,,,,,,repeat,number,numRpt,d,0.9546,vtsPrac,6,0,6,0,1,,,,,,,,,,,,,,,,,,,,,,,
292906,2022-09-21_21h26.33.940,vts_reward_expectancy,2022.2.4,MacIntel,59.99880002,Chrome,1440,900,,,,,0,621,,,,,,,,,,,,,,,,,125,S,star,1,0,,2,,,,,,,,,,,,,,repeat,number,numRpt,d,1.518,vtsPrac,7,0,7,0,1,,,,,,,,,,,,,,,,,,,,,,,
292906,2022-09-21_21h26.33.940,vts_reward_expectancy,2022.2.4,MacIntel,59.99880002,Chrome,1440,900,,,,,0,621,,,,,,,,,,,,,,,,,167,U,circle,1,0,,2,,,,,,,,,,,,,,switch,letter,lettSwt,k,0.6969,vtsPrac,8,0,8,0,1,,,,,,,,,,,,,,,,,,,,,,,
292906,2022-09-21_21h26.33.940,vts_reward_expectancy,2022.2.4,MacIntel,59.99880002,Chrome,1440,900,,,,,0,621,,,,,,,,,,,,,,,,,146,H,star,1,0,,2,,,,,,,,,,,,,,switch,number,numSwt,d,1.0111,vtsPrac,9,0,9,0,1,,,,,,,,,,,,,,,,,,,,,,,
292906,2022-09-21_21h26.33.940,vts_reward_expectancy,2022.2.4,MacIntel,59.99880002,Chrome,1440,900,,,,,0,621,,,,,,,,,,,,,,,,,174,D,hexagon,1,0,,2,,,,,,,,,,,,,,switch,letter,lettSwt,j,0.7309,vtsPrac,10,0,10,0,1,,,,,,,,,,,,,,,,,,,,,,,
292906,2022-09-21_21h26.33.940,vts_reward_expectancy,2022.2.4,MacIntel,59.99880002,Chrome,1440,900,,,,,0,621,,,,,,,,,,,,,,,,,160,W,circle,1,0,,2,,,,,,,,,,,,,,switch,number,numSwt,f,0.6259,vtsPrac,11,0,11,0,1,,,,,,,,,,,,,,,,,,,,,,,
292906,2022-09-21_21h26.33.940,vts_reward_expectancy,2022.2.4,MacIntel,59.99880002,Chrome,1440,900,,,,,0,621,,,,,,,,,,,,,,,,,132,W,triangle,1,0,,2,,,,,,,,,,,,,,switch,letter,lettSwt,k,0.95,vtsPrac,12,0,12,0,1,,,,,,,,,,,,,,,,,,,,,,,
292906,2022-09-21_21h26.33.940,vts_reward_expectancy,2022.2.4,MacIntel,59.99880002,Chrome,1440,900,,,,,0,621,,,,,,,,,,,,,,,,,125,D,star,1,0,,2,,,,,,,,,,,,,,switch,number,numSwt,d,0.6348,vtsPrac,13,0,13,0,1,,,,,,,,,,,,,,,,,,,,,,,
292906,2022-09-21_21h26.33.940,vts_reward_expectancy,2022.2.4,MacIntel,59.99880002,Chrome,1440,900,,,,,0,621,,,,,,,,,,,,,,,,,167,U,hexagon,1,0,,2,,,,,,,,,,,,,,switch,letter,lettSwt,k,0.6444,vtsPrac,14,0,14,0,1,,,,,,,,,,,,,,,,,,,,,,,
292906,2022-09-21_21h26.33.940,vts_reward_expectancy,2022.2.4,MacIntel,59.99880002,Chrome,1440,900,,,,,0,621,,,,,,,,,,,,,,,,,146,B,star,1,0,,2,,,,,,,,,,,,,,switch,number,numSwt,d,0.7467,vtsPrac,15,0,15,0,1,,,,,,,,,,,,,,,,,,,,,,,
292906,2022-09-21_21h26.33.940,vts_reward_expectancy,2022.2.4,MacIntel,59.99880002,Chrome,1440,900,,,,,,,,,,,,,,,,,,,,,,,,,,,,,,,,,,,,,,,,,,,,,,,,,,,,,,,,,,,,,,,,,,,,,,,,,,,,
292906,2022-09-21_21h26.33.940,vts_reward_expectancy,2022.2.4,MacIntel,59.99880002,Chrome,1440,900,,,,,,,,,,,,,,,,,,,,,,,,,,,,,,,,,,,,,,,,,,,,,,,,,,,,,,,,,,,,,,,,,,,,,,,,,,,,
292906,2022-09-21_21h26.33.940,vts_reward_expectancy,2022.2.4,MacIntel,59.99880002,Chrome,1440,900,,,,,0,621,,,,,,,,,,,,,,,,,139,F,hexagon,1,0,,,,,,,,,,,,,,,,repeat,number,numRpt,d,0.6053,noRew,,,,,,0,0,0,0,0,1,,,,,,,,,,,,,,,,,
292906,2022-09-21_21h26.33.940,vts_reward_expectancy,2022.2.4,MacIntel,59.99880002,Chrome,1440,900,,,,,0,621,,,,,,,,,,,,,,,,,146,H,star,1,0,,,,,,,,,,,,,,,,switch,letter,lettSwt,j,0.6452,noRew,,,,,,0,1,0,1,0,1,,,,,,,,,,,,,,,,,
292906,2022-09-21_21h26.33.940,vts_reward_expectancy,2022.2.4,MacIntel,59.99880002,Chrome,1440,900,,,,,0,621,,,,,,,,,,,,,,,,,132,S,hexagon,1,0,,,,,,,,,,,,,,,,switch,number,numSwt,d,1.1446,noRew,,,,,,0,2,0,2,0,1,,,,,,,,,,,,,,,,,
292906,2022-09-21_21h26.33.940,vts_reward_expectancy,2022.2.4,MacIntel,59.99880002,Chrome,1440,900,,,,,0,621,,,,,,,,,,,,,,,,,174,Y,star,1,0,,,,,,,,,,,,,,,,repeat,number,numRpt,f,0.6033,noRew,,,,,,0,3,0,3,0,1,,,,,,,,,,,,,,,,,
292906,2022-09-21_21h26.33.940,vts_reward_expectancy,2022.2.4,MacIntel,59.99880002,Chrome,1440,900,,,,,0,621,,,,,,,,,,,,,,,,,139,F,circle,1,0,,,,,,,,,,,,,,,,switch,letter,lettSwt,j,0.6959,noRew,,,,,,0,4,0,4,0,1,,,,,,,,,,,,,,,,,
292906,2022-09-21_21h26.33.940,vts_reward_expectancy,2022.2.4,MacIntel,59.99880002,Chrome,1440,900,,,,,0,621,,,,,,,,,,,,,,,,,146,H,star,1,0,,,,,,,,,,,,,,,,switch,number,numSwt,d,0.6947,noRew,,,,,,0,5,0,5,0,1,,,,,,,,,,,,,,,,,
292906,2022-09-21_21h26.33.940,vts_reward_expectancy,2022.2.4,MacIntel,59.99880002,Chrome,1440,900,,,,,0,621,,,,,,,,,,,,,,,,,132,S,hexagon,1,0,,,,,,,,,,,,,,,,repeat,number,numRpt,d,1.1635,noRew,,,,,,0,6,0,6,0,1,,,,,,,,,,,,,,,,,
292906,2022-09-21_21h26.33.940,vts_reward_expectancy,2022.2.4,MacIntel,59.99880002,Chrome,1440,900,,,,,0,621,,,,,,,,,,,,,,,,,174,Y,circle,1,0,,,,,,,,,,,,,,,,switch,letter,lettSwt,k,0.5948,noRew,,,,,,0,7,0,7,0,1,,,,,,,,,,,,,,,,,
292906,2022-09-21_21h26.33.940,vts_reward_expectancy,2022.2.4,MacIntel,59.99880002,Chrome,1440,900,,,,,0,621,,,,,,,,,,,,,,,,,160,W,triangle,1,0,,,,,,,,,,,,,,,,repeat,letter,lettRpt,k,0.7281,noRew,,,,,,0,8,0,8,0,1,,,,,,,,,,,,,,,,,
292906,2022-09-21_21h26.33.940,vts_reward_expectancy,2022.2.4,MacIntel,59.99880002,Chrome,1440,900,,,,,0,621,,,,,,,,,,,,,,,,,146,H,star,1,0,,,,,,,,,,,,,,,,switch,number,numSwt,d,0.5453,noRew,,,,,,0,9,0,9,0,1,,,,,,,,,,,,,,,,,
292906,2022-09-21_21h26.33.940,vts_reward_expectancy,2022.2.4,MacIntel,59.99880002,Chrome,1440,900,,,,,0,621,,,,,,,,,,,,,,,,,167,S,circle,1,0,,,,,,,,,,,,,,,,repeat,number,numRpt,f,1.6347,noRew,,,,,,0,10,0,10,0,1,,,,,,,,,,,,,,,,,
292906,2022-09-21_21h26.33.940,vts_reward_expectancy,2022.2.4,MacIntel,59.99880002,Chrome,1440,900,,,,,0,621,,,,,,,,,,,,,,,,,132,Y,star,1,0,,,,,,,,,,,,,,,,switch,letter,lettSwt,k,0.5626,noRew,,,,,,0,11,0,11,0,1,,,,,,,,,,,,,,,,,
292906,2022-09-21_21h26.33.940,vts_reward_expectancy,2022.2.4,MacIntel,59.99880002,Chrome,1440,900,,,,,0,621,,,,,,,,,,,,,,,,,160,D,circle,1,0,,,,,,,,,,,,,,,,switch,number,numSwt,f,0.5473,noRew,,,,,,0,12,0,12,0,1,,,,,,,,,,,,,,,,,
292906,2022-09-21_21h26.33.940,vts_reward_expectancy,2022.2.4,MacIntel,59.99880002,Chrome,1440,900,,,,,0,621,,,,,,,,,,,,,,,,,167,U,hexagon,1,0,,,,,,,,,,,,,,,,switch,letter,lettSwt,k,0.6088,noRew,,,,,,0,13,0,13,0,1,,,,,,,,,,,,,,,,,
292906,2022-09-21_21h26.33.940,vts_reward_expectancy,2022.2.4,MacIntel,59.99880002,Chrome,1440,900,,,,,0,621,,,,,,,,,,,,,,,,,181,H,circle,1,0,,,,,,,,,,,,,,,,switch,number,numSwt,f,0.5117,noRew,,,,,,0,14,0,14,0,1,,,,,,,,,,,,,,,,,
292906,2022-09-21_21h26.33.940,vts_reward_expectancy,2022.2.4,MacIntel,59.99880002,Chrome,1440,900,,,,,0,621,,,,,,,,,,,,,,,,,132,Y,triangle,1,0,,,,,,,,,,,,,,,,switch,letter,lettSwt,k,0.4787,noRew,,,,,,0,15,0,15,0,1,,,,,,,,,,,,,,,,,
292906,2022-09-21_21h26.33.940,vts_reward_expectancy,2022.2.4,MacIntel,59.99880002,Chrome,1440,900,,,,,0,621,,,,,,,,,,,,,,,,,174,B,hexagon,1,0,,,,,,,,,,,,,,,,repeat,letter,lettRpt,j,0.7687,noRew,,,,,,0,16,0,16,0,1,,,,,,,,,,,,,,,,,
292906,2022-09-21_21h26.33.940,vts_reward_expectancy,2022.2.4,MacIntel,59.99880002,Chrome,1440,900,,,,,0,621,,,,,,,,,,,,,,,,,139,F,circle,1,0,,,,,,,,,,,,,,,,switch,number,numSwt,d,0.8632,noRew,,,,,,0,17,0,17,0,1,,,,,,,,,,,,,,,,,
292906,2022-09-21_21h26.33.940,vts_reward_expectancy,2022.2.4,MacIntel,59.99880002,Chrome,1440,900,,,,,0,621,,,,,,,,,,,,,,,,,160,U,star,1,0,,,,,,,,,,,,,,,,repeat,number,numRpt,f,0.6387,noRew,,,,,,0,18,0,18,0,1,,,,,,,,,,,,,,,,,
292906,2022-09-21_21h26.33.940,vts_reward_expectancy,2022.2.4,MacIntel,59.99880002,Chrome,1440,900,,,,,0,621,,,,,,,,,,,,,,,,,146,Y,hexagon,1,0,,,,,,,,,,,,,,,,repeat,number,numRpt,d,0.5444,noRew,,,,,,0,19,0,19,0,1,,,,,,,,,,,,,,,,,
292906,2022-09-21_21h26.33.940,vts_reward_expectancy,2022.2.4,MacIntel,59.99880002,Chrome,1440,900,,,,,0,621,,,,,,,,,,,,,,,,,139,Y,star,1,0,,,,,,,,,,,,,,,,repeat,number,numRpt,d,0.7138,noRew,,,,,,0,20,0,20,0,1,,,,,,,,,,,,,,,,,
292906,2022-09-21_21h26.33.940,vts_reward_expectancy,2022.2.4,MacIntel,59.99880002,Chrome,1440,900,,,,,0,621,,,,,,,,,,,,,,,,,132,F,triangle,1,0,,,,,,,,,,,,,,,,switch,letter,lettSwt,j,0.6,noRew,,,,,,0,21,0,21,0,1,,,,,,,,,,,,,,,,,
292906,2022-09-21_21h26.33.940,vts_reward_expectancy,2022.2.4,MacIntel,59.99880002,Chrome,1440,900,,,,,0,621,,,,,,,,,,,,,,,,,146,S,circle,1,0,,,,,,,,,,,,,,,,switch,number,numSwt,d,1.0111,noRew,,,,,,0,22,0,22,0,1,,,,,,,,,,,,,,,,,
292906,2022-09-21_21h26.33.940,vts_reward_expectancy,2022.2.4,MacIntel,59.99880002,Chrome,1440,900,,,,,0,621,,,,,,,,,,,,,,,,,174,U,star,1,0,,,,,,,,,,,,,,,,switch,letter,lettSwt,k,1.2494,noRew,,,,,,0,23,0,23,0,1,,,,,,,,,,,,,,,,,
292906,2022-09-21_21h26.33.940,vts_reward_expectancy,2022.2.4,MacIntel,59.99880002,Chrome,1440,900,,,,,0,621,,,,,,,,,,,,,,,,,132,H,star,1,0,,,,,,,,,,,,,,,,switch,number,numSwt,d,0.8187,noRew,,,,,,0,24,0,24,0,1,,,,,,,,,,,,,,,,,
292906,2022-09-21_21h26.33.940,vts_reward_expectancy,2022.2.4,MacIntel,59.99880002,Chrome,1440,900,,,,,0,621,,,,,,,,,,,,,,,,,146,B,hexagon,1,0,,,,,,,,,,,,,,,,repeat,number,numRpt,d,0.7096,noRew,,,,,,0,25,0,25,0,1,,,,,,,,,,,,,,,,,
292906,2022-09-21_21h26.33.940,vts_reward_expectancy,2022.2.4,MacIntel,59.99880002,Chrome,1440,900,,,,,0,621,,,,,,,,,,,,,,,,,167,Y,circle,1,0,,,,,,,,,,,,,,,,switch,letter,lettSwt,k,0.8652,noRew,,,,,,0,26,0,26,0,1,,,,,,,,,,,,,,,,,
292906,2022-09-21_21h26.33.940,vts_reward_expectancy,2022.2.4,MacIntel,59.99880002,Chrome,1440,900,,,,,0,621,,,,,,,,,,,,,,,,,174,U,triangle,1,0,,,,,,,,,,,,,,,,switch,number,numSwt,f,1.0337,noRew,,,,,,0,27,0,27,0,1,,,,,,,,,,,,,,,,,
292906,2022-09-21_21h26.33.940,vts_reward_expectancy,2022.2.4,MacIntel,59.99880002,Chrome,1440,900,,,,,0,621,,,,,,,,,,,,,,,,,146,H,star,1,0,,,,,,,,,,,,,,,,repeat,number,numRpt,d,1.247,noRew,,,,,,0,28,0,28,0,1,,,,,,,,,,,,,,,,,
292906,2022-09-21_21h26.33.940,vts_reward_expectancy,2022.2.4,MacIntel,59.99880002,Chrome,1440,900,,,,,0,621,,,,,,,,,,,,,,,,,132,S,triangle,1,0,,,,,,,,,,,,,,,,repeat,number,numRpt,d,1.1202,noRew,,,,,,0,29,0,29,0,1,,,,,,,,,,,,,,,,,
292906,2022-09-21_21h26.33.940,vts_reward_expectancy,2022.2.4,MacIntel,59.99880002,Chrome,1440,900,,,,,0,621,,,,,,,,,,,,,,,,,167,U,star,1,0,,,,,,,,,,,,,,,,switch,letter,lettSwt,k,0.7098,noRew,,,,,,0,30,0,30,0,1,,,,,,,,,,,,,,,,,
292906,2022-09-21_21h26.33.940,vts_reward_expectancy,2022.2.4,MacIntel,59.99880002,Chrome,1440,900,,,,,0,621,,,,,,,,,,,,,,,,,174,B,triangle,0,0,,,,,,,,,,,,,,,,repeat,letter,NA,k,0.7911,noRew,,,,,,0,31,0,31,0,1,,,,,,,,,,,,,,,,,
292906,2022-09-21_21h26.33.940,vts_reward_expectancy,2022.2.4,MacIntel,59.99880002,Chrome,1440,900,,,,,0,621,,,,,,,,,,,,,,,,,139,Y,circle,1,1,,,,,,,,,,,,,,,,repeat,letter,lettRpt,k,0.7708,noRew,,,,,,0,32,0,32,0,1,,,,,,,,,,,,,,,,,
292906,2022-09-21_21h26.33.940,vts_reward_expectancy,2022.2.4,MacIntel,59.99880002,Chrome,1440,900,,,,,0,621,,,,,,,,,,,,,,,,,167,H,triangle,1,0,,,,,,,,,,,,,,,,repeat,letter,lettRpt,j,1.7179,noRew,,,,,,0,33,0,33,0,1,,,,,,,,,,,,,,,,,
292906,2022-09-21_21h26.33.940,vts_reward_expectancy,2022.2.4,MacIntel,59.99880002,Chrome,1440,900,,,,,0,621,,,,,,,,,,,,,,,,,125,W,circle,1,0,,,,,,,,,,,,,,,,switch,number,numSwt,d,0.9947,noRew,,,,,,0,34,0,34,0,1,,,,,,,,,,,,,,,,,
292906,2022-09-21_21h26.33.940,vts_reward_expectancy,2022.2.4,MacIntel,59.99880002,Chrome,1440,900,,,,,0,621,,,,,,,,,,,,,,,,,160,F,star,1,0,,,,,,,,,,,,,,,,switch,letter,lettSwt,j,1.3698,noRew,,,,,,0,35,0,35,0,1,,,,,,,,,,,,,,,,,
292906,2022-09-21_21h26.33.940,vts_reward_expectancy,2022.2.4,MacIntel,59.99880002,Chrome,1440,900,,,,,0,621,,,,,,,,,,,,,,,,,174,W,hexagon,1,0,,,,,,,,,,,,,,,,switch,number,numSwt,f,1.7358,noRew,,,,,,0,36,0,36,0,1,,,,,,,,,,,,,,,,,
292906,2022-09-21_21h26.33.940,vts_reward_expectancy,2022.2.4,MacIntel,59.99880002,Chrome,1440,900,,,,,0,621,,,,,,,,,,,,,,,,,146,U,circle,1,0,,,,,,,,,,,,,,,,switch,letter,lettSwt,k,1.2859,noRew,,,,,,0,37,0,37,0,1,,,,,,,,,,,,,,,,,
292906,2022-09-21_21h26.33.940,vts_reward_expectancy,2022.2.4,MacIntel,59.99880002,Chrome,1440,900,,,,,0,621,,,,,,,,,,,,,,,,,181,S,circle,1,0,,,,,,,,,,,,,,,,repeat,letter,lettRpt,k,1.2046,noRew,,,,,,0,38,0,38,0,1,,,,,,,,,,,,,,,,,
292906,2022-09-21_21h26.33.940,vts_reward_expectancy,2022.2.4,MacIntel,59.99880002,Chrome,1440,900,,,,,0,621,,,,,,,,,,,,,,,,,125,H,triangle,1,0,,,,,,,,,,,,,,,,switch,number,numSwt,d,0.781,noRew,,,,,,0,39,0,39,0,1,,,,,,,,,,,,,,,,,
292906,2022-09-21_21h26.33.940,vts_reward_expectancy,2022.2.4,MacIntel,59.99880002,Chrome,1440,900,,,,,0,621,,,,,,,,,,,,,,,,,132,W,triangle,1,0,,,,,,,,,,,,,,,,repeat,number,numRpt,d,0.9226,noRew,,,,,,0,40,0,40,0,1,,,,,,,,,,,,,,,,,
292906,2022-09-21_21h26.33.940,vts_reward_expectancy,2022.2.4,MacIntel,59.99880002,Chrome,1440,900,,,,,0,621,,,,,,,,,,,,,,,,,125,U,star,1,0,,,,,,,,,,,,,,,,switch,letter,lettSwt,k,1.1951,noRew,,,,,,0,41,0,41,0,1,,,,,,,,,,,,,,,,,
292906,2022-09-21_21h26.33.940,vts_reward_expectancy,2022.2.4,MacIntel,59.99880002,Chrome,1440,900,,,,,0,621,,,,,,,,,,,,,,,,,174,B,hexagon,1,0,,,,,,,,,,,,,,,,switch,number,numSwt,f,1.3478,noRew,,,,,,0,42,0,42,0,1,,,,,,,,,,,,,,,,,
292906,2022-09-21_21h26.33.940,vts_reward_expectancy,2022.2.4,MacIntel,59.99880002,Chrome,1440,900,,,,,0,621,,,,,,,,,,,,,,,,,167,Y,circle,1,0,,,,,,,,,,,,,,,,switch,letter,lettSwt,k,1.3632,noRew,,,,,,0,43,0,43,0,1,,,,,,,,,,,,,,,,,
292906,2022-09-21_21h26.33.940,vts_reward_expectancy,2022.2.4,MacIntel,59.99880002,Chrome,1440,900,,,,,0,621,,,,,,,,,,,,,,,,,139,Y,hexagon,1,0,,,,,,,,,,,,,,,,repeat,letter,lettRpt,k,1.1197,noRew,,,,,,0,44,0,44,0,1,,,,,,,,,,,,,,,,,
292906,2022-09-21_21h26.33.940,vts_reward_expectancy,2022.2.4,MacIntel,59.99880002,Chrome,1440,900,,,,,0,621,,,,,,,,,,,,,,,,,174,F,star,1,0,,,,,,,,,,,,,,,,switch,number,numSwt,f,1.3662,noRew,,,,,,0,45,0,45,0,1,,,,,,,,,,,,,,,,,
292906,2022-09-21_21h26.33.940,vts_reward_expectancy,2022.2.4,MacIntel,59.99880002,Chrome,1440,900,,,,,0,621,,,,,,,,,,,,,,,,,132,H,circle,1,0,,,,,,,,,,,,,,,,repeat,number,numRpt,d,1.1476,noRew,,,,,,0,46,0,46,0,1,,,,,,,,,,,,,,,,,
292906,2022-09-21_21h26.33.940,vts_reward_expectancy,2022.2.4,MacIntel,59.99880002,Chrome,1440,900,,,,,0,621,,,,,,,,,,,,,,,,,181,W,triangle,1,0,,,,,,,,,,,,,,,,repeat,number,numRpt,f,1.065,noRew,,,,,,0,47,0,47,0,1,,,,,,,,,,,,,,,,,
292906,2022-09-21_21h26.33.940,vts_reward_expectancy,2022.2.4,MacIntel,59.99880002,Chrome,1440,900,,,,,0,621,,,,,,,,,,,,,,,,,181,H,triangle,1,0,,,,,,,,,,,,,,,,repeat,number,numRpt,f,0.649,noRew,,,,,,0,48,0,48,0,1,,,,,,,,,,,,,,,,,
292906,2022-09-21_21h26.33.940,vts_reward_expectancy,2022.2.4,MacIntel,59.99880002,Chrome,1440,900,,,,,0,621,,,,,,,,,,,,,,,,,174,W,star,1,0,,,,,,,,,,,,,,,,repeat,number,numRpt,f,0.7303,noRew,,,,,,0,49,0,49,0,1,,,,,,,,,,,,,,,,,
292906,2022-09-21_21h26.33.940,vts_reward_expectancy,2022.2.4,MacIntel,59.99880002,Chrome,1440,900,,,,,0,621,,,,,,,,,,,,,,,,,139,U,hexagon,1,0,,,,,,,,,,,,,,,,switch,letter,lettSwt,k,1.5792,noRew,,,,,,0,50,0,50,0,1,,,,,,,,,,,,,,,,,
292906,2022-09-21_21h26.33.940,vts_reward_expectancy,2022.2.4,MacIntel,59.99880002,Chrome,1440,900,,,,,0,621,,,,,,,,,,,,,,,,,125,B,triangle,1,0,,,,,,,,,,,,,,,,switch,number,numSwt,d,0.7506,noRew,,,,,,0,51,0,51,0,1,,,,,,,,,,,,,,,,,
292906,2022-09-21_21h26.33.940,vts_reward_expectancy,2022.2.4,MacIntel,59.99880002,Chrome,1440,900,,,,,0,621,,,,,,,,,,,,,,,,,174,F,triangle,1,0,,,,,,,,,,,,,,,,repeat,number,numRpt,f,1.4477,noRew,,,,,,0,52,0,52,0,1,,,,,,,,,,,,,,,,,
292906,2022-09-21_21h26.33.940,vts_reward_expectancy,2022.2.4,MacIntel,59.99880002,Chrome,1440,900,,,,,0,621,,,,,,,,,,,,,,,,,125,B,hexagon,1,0,,,,,,,,,,,,,,,,switch,letter,lettSwt,j,1.1697,noRew,,,,,,0,53,0,53,0,1,,,,,,,,,,,,,,,,,
292906,2022-09-21_21h26.33.940,vts_reward_expectancy,2022.2.4,MacIntel,59.99880002,Chrome,1440,900,,,,,0,621,,,,,,,,,,,,,,,,,139,H,triangle,1,0,,,,,,,,,,,,,,,,repeat,letter,lettRpt,j,0.8047,noRew,,,,,,0,54,0,54,0,1,,,,,,,,,,,,,,,,,
292906,2022-09-21_21h26.33.940,vts_reward_expectancy,2022.2.4,MacIntel,59.99880002,Chrome,1440,900,,,,,0,621,,,,,,,,,,,,,,,,,146,S,star,1,0,,,,,,,,,,,,,,,,switch,number,numSwt,d,1.4685,noRew,,,,,,0,55,0,55,0,1,,,,,,,,,,,,,,,,,
292906,2022-09-21_21h26.33.940,vts_reward_expectancy,2022.2.4,MacIntel,59.99880002,Chrome,1440,900,,,,,0,621,,,,,,,,,,,,,,,,,160,F,hexagon,1,0,,,,,,,,,,,,,,,,repeat,number,numRpt,f,0.8846,noRew,,,,,,0,56,0,56,0,1,,,,,,,,,,,,,,,,,
292906,2022-09-21_21h26.33.940,vts_reward_expectancy,2022.2.4,MacIntel,59.99880002,Chrome,1440,900,,,,,0,621,,,,,,,,,,,,,,,,,167,W,circle,1,0,,,,,,,,,,,,,,,,repeat,number,numRpt,f,0.63,noRew,,,,,,0,57,0,57,0,1,,,,,,,,,,,,,,,,,
292906,2022-09-21_21h26.33.940,vts_reward_expectancy,2022.2.4,MacIntel,59.99880002,Chrome,1440,900,,,,,0,621,,,,,,,,,,,,,,,,,132,U,circle,1,0,,,,,,,,,,,,,,,,switch,letter,lettSwt,k,1.1447,noRew,,,,,,0,58,0,58,0,1,,,,,,,,,,,,,,,,,
292906,2022-09-21_21h26.33.940,vts_reward_expectancy,2022.2.4,MacIntel,59.99880002,Chrome,1440,900,,,,,0,621,,,,,,,,,,,,,,,,,146,S,hexagon,1,0,,,,,,,,,,,,,,,,switch,number,numSwt,d,1.7142,noRew,,,,,,0,59,0,59,0,1,,,,,,,,,,,,,,,,,
292906,2022-09-21_21h26.33.940,vts_reward_expectancy,2022.2.4,MacIntel,59.99880002,Chrome,1440,900,,,,,0,621,,,,,,,,,,,,,,,,,125,W,circle,1,0,,,,,,,,,,,,,,,,repeat,number,numRpt,d,0.9132,noRew,,,,,,0,60,0,60,0,1,,,,,,,,,,,,,,,,,
292906,2022-09-21_21h26.33.940,vts_reward_expectancy,2022.2.4,MacIntel,59.99880002,Chrome,1440,900,,,,,0,621,,,,,,,,,,,,,,,,,160,B,star,1,0,,,,,,,,,,,,,,,,switch,letter,lettSwt,j,0.9416,noRew,,,,,,0,61,0,61,0,1,,,,,,,,,,,,,,,,,
292906,2022-09-21_21h26.33.940,vts_reward_expectancy,2022.2.4,MacIntel,59.99880002,Chrome,1440,900,,,,,0,621,,,,,,,,,,,,,,,,,139,H,circle,1,0,,,,,,,,,,,,,,,,repeat,letter,lettRpt,j,1.1006,noRew,,,,,,0,62,0,62,0,1,,,,,,,,,,,,,,,,,
292906,2022-09-21_21h26.33.940,vts_reward_expectancy,2022.2.4,MacIntel,59.99880002,Chrome,1440,900,,,,,0,621,,,,,,,,,,,,,,,,,167,S,star,1,0,,,,,,,,,,,,,,,,switch,number,numSwt,f,1.7054,noRew,,,,,,0,63,0,63,0,1,,,,,,,,,,,,,,,,,
292906,2022-09-21_21h26.33.940,vts_reward_expectancy,2022.2.4,MacIntel,59.99880002,Chrome,1440,900,,,,,,,,,,,,,,,,,,,,,,,,,,,,,,,,,,,,,,,,,,,,,,,,,,,,,,,,,,,,,,,,,,,,,,,,,,,,
292906,2022-09-21_21h26.33.940,vts_reward_expectancy,2022.2.4,MacIntel,59.99880002,Chrome,1440,900,,,,,0,621,,,,,,,,,,,,,,,,,146,Y,star,1,0,,,,,,,,,,,,,,,,repeat,number,numRpt,d,1.4604,Hi,,,,,,0,,,,,,space,2.167,high,0,0,0,0,1,,,,,,,,,
292906,2022-09-21_21h26.33.940,vts_reward_expectancy,2022.2.4,MacIntel,59.99880002,Chrome,1440,900,,,,,1,622,,,,,,,,,,,,,,,,,174,U,circle,1,0,,,,,,,,,,,,,,,,switch,letter,lettSwt,k,0.7176,Lo,,,,,,0,,,,,,,,high,1,0,1,0,1,,,,,,,,,
292906,2022-09-21_21h26.33.940,vts_reward_expectancy,2022.2.4,MacIntel,59.99880002,Chrome,1440,900,,,,,10,632,,,,,,,,,,,,,,,,,181,H,star,1,0,,,,,,,,,,,,,,,,switch,number,numSwt,f,0.6851,Hi,,,,,,0,,,,,,,,high,2,0,2,0,1,,,,,,,,,
292906,2022-09-21_21h26.33.940,vts_reward_expectancy,2022.2.4,MacIntel,59.99880002,Chrome,1440,900,,,,,1,633,,,,,,,,,,,,,,,,,125,B,circle,1,0,,,,,,,,,,,,,,,,repeat,number,numRpt,d,0.6764,Lo,,,,,,0,,,,,,,,high,3,0,3,0,1,,,,,,,,,
292906,2022-09-21_21h26.33.940,vts_reward_expectancy,2022.2.4,MacIntel,59.99880002,Chrome,1440,900,,,,,10,643,,,,,,,,,,,,,,,,,167,S,circle,1,0,,,,,,,,,,,,,,,,repeat,number,numRpt,f,1.1302,Lo,,,,,,0,,,,,,,,high,4,0,4,0,1,,,,,,,,,
292906,2022-09-21_21h26.33.940,vts_reward_expectancy,2022.2.4,MacIntel,59.99880002,Chrome,1440,900,,,,,10,653,,,,,,,,,,,,,,,,,160,F,star,1,0,,,,,,,,,,,,,,,,repeat,number,numRpt,f,0.6967,Hi,,,,,,0,,,,,,,,high,5,0,5,0,1,,,,,,,,,
292906,2022-09-21_21h26.33.940,vts_reward_expectancy,2022.2.4,MacIntel,59.99880002,Chrome,1440,900,,,,,1,654,,,,,,,,,,,,,,,,,132,D,circle,1,0,,,,,,,,,,,,,,,,switch,letter,lettSwt,j,1.7275,Lo,,,,,,0,,,,,,,,high,6,0,6,0,1,,,,,,,,,
292906,2022-09-21_21h26.33.940,vts_reward_expectancy,2022.2.4,MacIntel,59.99880002,Chrome,1440,900,,,,,1,655,,,,,,,,,,,,,,,,,139,W,star,1,0,,,,,,,,,,,,,,,,switch,number,numSwt,d,0.7143,Hi,,,,,,0,,,,,,,,high,7,0,7,0,1,,,,,,,,,
292906,2022-09-21_21h26.33.940,vts_reward_expectancy,2022.2.4,MacIntel,59.99880002,Chrome,1440,900,,,,,0,655,,,,,,,,,,,,,,,,,146,Y,star,1,0,,,,,,,,,,,,,,,,repeat,number,numRpt,d,0.741,Hi,,,,,,0,,,,,,,,high,8,0,8,0,1,,,,,,,,,
292906,2022-09-21_21h26.33.940,vts_reward_expectancy,2022.2.4,MacIntel,59.99880002,Chrome,1440,900,,,,,1,656,,,,,,,,,,,,,,,,,174,U,circle,1,0,,,,,,,,,,,,,,,,repeat,number,numRpt,f,0.7168,Lo,,,,,,0,,,,,,,,high,9,0,9,0,1,,,,,,,,,
292906,2022-09-21_21h26.33.940,vts_reward_expectancy,2022.2.4,MacIntel,59.99880002,Chrome,1440,900,,,,,10,666,,,,,,,,,,,,,,,,,181,H,star,1,0,,,,,,,,,,,,,,,,repeat,number,numRpt,f,0.5333,Hi,,,,,,0,,,,,,,,high,10,0,10,0,1,,,,,,,,,
292906,2022-09-21_21h26.33.940,vts_reward_expectancy,2022.2.4,MacIntel,59.99880002,Chrome,1440,900,,,,,1,667,,,,,,,,,,,,,,,,,125,B,circle,1,0,,,,,,,,,,,,,,,,repeat,number,numRpt,d,0.9105,Lo,,,,,,0,,,,,,,,high,11,0,11,0,1,,,,,,,,,
292906,2022-09-21_21h26.33.940,vts_reward_expectancy,2022.2.4,MacIntel,59.99880002,Chrome,1440,900,,,,,10,677,,,,,,,,,,,,,,,,,167,S,star,1,0,,,,,,,,,,,,,,,,repeat,number,numRpt,f,0.5121,Hi,,,,,,0,,,,,,,,high,12,0,12,0,1,,,,,,,,,
292906,2022-09-21_21h26.33.940,vts_reward_expectancy,2022.2.4,MacIntel,59.99880002,Chrome,1440,900,,,,,1,678,,,,,,,,,,,,,,,,,160,F,circle,1,0,,,,,,,,,,,,,,,,switch,letter,lettSwt,j,0.6336,Lo,,,,,,0,,,,,,,,high,13,0,13,0,1,,,,,,,,,
292906,2022-09-21_21h26.33.940,vts_reward_expectancy,2022.2.4,MacIntel,59.99880002,Chrome,1440,900,,,,,10,688,,,,,,,,,,,,,,,,,132,D,star,1,0,,,,,,,,,,,,,,,,switch,number,numSwt,d,0.4516,Hi,,,,,,0,,,,,,,,high,14,0,14,0,1,,,,,,,,,
292906,2022-09-21_21h26.33.940,vts_reward_expectancy,2022.2.4,MacIntel,59.99880002,Chrome,1440,900,,,,,1,689,,,,,,,,,,,,,,,,,139,W,circle,1,0,,,,,,,,,,,,,,,,repeat,number,numRpt,d,0.4434,Lo,,,,,,0,,,,,,,,high,15,0,15,0,1,,,,,,,,,
292906,2022-09-21_21h26.33.940,vts_reward_expectancy,2022.2.4,MacIntel,59.99880002,Chrome,1440,900,,,,,1,690,,,,,,,,,,,,,,,,,139,F,star,1,0,,,,,,,,,,,,,,,,repeat,number,numRpt,d,0.4198,Hi,,,,,,0,,,,,,,,high,16,0,16,0,1,,,,,,,,,
292906,2022-09-21_21h26.33.940,vts_reward_expectancy,2022.2.4,MacIntel,59.99880002,Chrome,1440,900,,,,,1,691,,,,,,,,,,,,,,,,,132,S,circle,1,0,,,,,,,,,,,,,,,,repeat,number,numRpt,d,1.2462,Lo,,,,,,0,,,,,,,,high,17,0,17,0,1,,,,,,,,,
292906,2022-09-21_21h26.33.940,vts_reward_expectancy,2022.2.4,MacIntel,59.99880002,Chrome,1440,900,,,,,1,692,,,,,,,,,,,,,,,,,146,B,star,1,0,,,,,,,,,,,,,,,,repeat,number,numRpt,d,0.5152,Hi,,,,,,0,,,,,,,,high,18,0,18,0,1,,,,,,,,,
292906,2022-09-21_21h26.33.940,vts_reward_expectancy,2022.2.4,MacIntel,59.99880002,Chrome,1440,900,,,,,1,693,,,,,,,,,,,,,,,,,181,W,circle,1,0,,,,,,,,,,,,,,,,repeat,number,numRpt,f,1.3976,Lo,,,,,,0,,,,,,,,high,19,0,19,0,1,,,,,,,,,
292906,2022-09-21_21h26.33.940,vts_reward_expectancy,2022.2.4,MacIntel,59.99880002,Chrome,1440,900,,,,,1,694,,,,,,,,,,,,,,,,,174,U,circle,1,0,,,,,,,,,,,,,,,,repeat,number,numRpt,f,0.563,Lo,,,,,,0,,,,,,,,high,20,0,20,0,1,,,,,,,,,
292906,2022-09-21_21h26.33.940,vts_reward_expectancy,2022.2.4,MacIntel,59.99880002,Chrome,1440,900,,,,,10,704,,,,,,,,,,,,,,,,,167,H,star,1,0,,,,,,,,,,,,,,,,repeat,number,numRpt,f,0.4717,Hi,,,,,,0,,,,,,,,high,21,0,21,0,1,,,,,,,,,
292906,2022-09-21_21h26.33.940,vts_reward_expectancy,2022.2.4,MacIntel,59.99880002,Chrome,1440,900,,,,,10,714,,,,,,,,,,,,,,,,,160,D,star,1,0,,,,,,,,,,,,,,,,repeat,number,numRpt,f,0.5629,Hi,,,,,,0,,,,,,,,high,22,0,22,0,1,,,,,,,,,
292906,2022-09-21_21h26.33.940,vts_reward_expectancy,2022.2.4,MacIntel,59.99880002,Chrome,1440,900,,,,,10,724,,,,,,,,,,,,,,,,,125,Y,circle,1,0,,,,,,,,,,,,,,,,switch,letter,lettSwt,k,0.598,Lo,,,,,,0,,,,,,,,high,23,0,23,0,1,,,,,,,,,
292906,2022-09-21_21h26.33.940,vts_reward_expectancy,2022.2.4,MacIntel,59.99880002,Chrome,1440,900,,,,,10,734,,,,,,,,,,,,,,,,,160,B,star,1,0,,,,,,,,,,,,,,,,switch,number,numSwt,f,0.5692,Hi,,,,,,0,,,,,,,,high,24,0,24,0,1,,,,,,,,,
292906,2022-09-21_21h26.33.940,vts_reward_expectancy,2022.2.4,MacIntel,59.99880002,Chrome,1440,900,,,,,1,735,,,,,,,,,,,,,,,,,146,H,circle,1,0,,,,,,,,,,,,,,,,switch,letter,lettSwt,j,0.6794,Lo,,,,,,0,,,,,,,,high,25,0,25,0,1,,,,,,,,,
292906,2022-09-21_21h26.33.940,vts_reward_expectancy,2022.2.4,MacIntel,59.99880002,Chrome,1440,900,,,,,10,745,,,,,,,,,,,,,,,,,125,D,star,1,0,,,,,,,,,,,,,,,,repeat,letter,lettRpt,j,0.4975,Hi,,,,,,0,,,,,,,,high,26,0,26,0,1,,,,,,,,,
292906,2022-09-21_21h26.33.940,vts_reward_expectancy,2022.2.4,MacIntel,59.99880002,Chrome,1440,900,,,,,10,755,,,,,,,,,,,,,,,,,167,W,circle,1,0,,,,,,,,,,,,,,,,repeat,letter,lettRpt,k,0.5394,Lo,,,,,,0,,,,,,,,high,27,0,27,0,1,,,,,,,,,
292906,2022-09-21_21h26.33.940,vts_reward_expectancy,2022.2.4,MacIntel,59.99880002,Chrome,1440,900,,,,,1,756,,,,,,,,,,,,,,,,,181,U,circle,1,0,,,,,,,,,,,,,,,,switch,number,numSwt,f,0.472,Lo,,,,,,0,,,,,,,,high,28,0,28,0,1,,,,,,,,,
292906,2022-09-21_21h26.33.940,vts_reward_expectancy,2022.2.4,MacIntel,59.99880002,Chrome,1440,900,,,,,1,757,,,,,,,,,,,,,,,,,174,Y,star,1,0,,,,,,,,,,,,,,,,switch,letter,lettSwt,k,0.4586,Hi,,,,,,0,,,,,,,,high,29,0,29,0,1,,,,,,,,,
292906,2022-09-21_21h26.33.940,vts_reward_expectancy,2022.2.4,MacIntel,59.99880002,Chrome,1440,900,,,,,1,758,,,,,,,,,,,,,,,,,132,F,circle,1,0,,,,,,,,,,,,,,,,switch,number,numSwt,d,0.5699,Lo,,,,,,0,,,,,,,,high,30,0,30,0,1,,,,,,,,,
292906,2022-09-21_21h26.33.940,vts_reward_expectancy,2022.2.4,MacIntel,59.99880002,Chrome,1440,900,,,,,1,759,,,,,,,,,,,,,,,,,139,S,star,1,0,,,,,,,,,,,,,,,,repeat,number,numRpt,d,0.5783,Hi,,,,,,0,,,,,,,,high,31,0,31,0,1,,,,,,,,,
292906,2022-09-21_21h26.33.940,vts_reward_expectancy,2022.2.4,MacIntel,59.99880002,Chrome,1440,900,,,,,0,759,,,,,,,,,,,,,,,,,139,Y,triangle,1,0,,,,,,,,,,,,,,,,repeat,number,numRpt,d,0.5661,Hi,,,,,,1,,,,,,space,2.3674,low,0,0,0,0,1,,,,,,,,,
292906,2022-09-21_21h26.33.940,vts_reward_expectancy,2022.2.4,MacIntel,59.99880002,Chrome,1440,900,,,,,1,760,,,,,,,,,,,,,,,,,125,D,hexagon,1,0,,,,,,,,,,,,,,,,switch,letter,lettSwt,j,0.9437,Lo,,,,,,1,,,,,,,,low,1,0,1,0,1,,,,,,,,,
292906,2022-09-21_21h26.33.940,vts_reward_expectancy,2022.2.4,MacIntel,59.99880002,Chrome,1440,900,,,,,0,760,,,,,,,,,,,,,,,,,160,H,triangle,1,0,,,,,,,,,,,,,,,,repeat,letter,lettRpt,j,0.6082,Hi,,,,,,1,,,,,,,,low,2,0,2,0,1,,,,,,,,,
292906,2022-09-21_21h26.33.940,vts_reward_expectancy,2022.2.4,MacIntel,59.99880002,Chrome,1440,900,,,,,1,761,,,,,,,,,,,,,,,,,132,S,hexagon,1,0,,,,,,,,,,,,,,,,switch,number,numSwt,d,0.726,Lo,,,,,,1,,,,,,,,low,3,0,3,0,1,,,,,,,,,
292906,2022-09-21_21h26.33.940,vts_reward_expectancy,2022.2.4,MacIntel,59.99880002,Chrome,1440,900,,,,,10,771,,,,,,,,,,,,,,,,,167,F,hexagon,1,0,,,,,,,,,,,,,,,,switch,letter,lettSwt,j,0.6634,Lo,,,,,,1,,,,,,,,low,4,0,4,0,1,,,,,,,,,
292906,2022-09-21_21h26.33.940,vts_reward_expectancy,2022.2.4,MacIntel,59.99880002,Chrome,1440,900,,,,,0,771,,,,,,,,,,,,,,,,,174,W,triangle,1,0,,,,,,,,,,,,,,,,switch,number,numSwt,f,0.5516,Hi,,,,,,1,,,,,,,,low,5,0,5,0,1,,,,,,,,,
292906,2022-09-21_21h26.33.940,vts_reward_expectancy,2022.2.4,MacIntel,59.99880002,Chrome,1440,900,,,,,0,771,,,,,,,,,,,,,,,,,146,U,triangle,1,0,,,,,,,,,,,,,,,,switch,letter,lettSwt,k,0.8441,Hi,,,,,,1,,,,,,,,low,6,0,6,0,1,,,,,,,,,
292906,2022-09-21_21h26.33.940,vts_reward_expectancy,2022.2.4,MacIntel,59.99880002,Chrome,1440,900,,,,,10,781,,,,,,,,,,,,,,,,,181,B,hexagon,1,0,,,,,,,,,,,,,,,,switch,number,numSwt,f,0.4649,Lo,,,,,,1,,,,,,,,low,7,0,7,0,1,,,,,,,,,
292906,2022-09-21_21h26.33.940,vts_reward_expectancy,2022.2.4,MacIntel,59.99880002,Chrome,1440,900,,,,,10,791,,,,,,,,,,,,,,,,,139,Y,triangle,1,0,,,,,,,,,,,,,,,,switch,letter,lettSwt,k,0.5532,Hi,,,,,,1,,,,,,,,low,8,0,8,0,1,,,,,,,,,
292906,2022-09-21_21h26.33.940,vts_reward_expectancy,2022.2.4,MacIntel,59.99880002,Chrome,1440,900,,,,,10,801,,,,,,,,,,,,,,,,,125,D,hexagon,1,0,,,,,,,,,,,,,,,,switch,number,numSwt,d,0.7805,Lo,,,,,,1,,,,,,,,low,9,0,9,0,1,,,,,,,,,
292906,2022-09-21_21h26.33.940,vts_reward_expectancy,2022.2.4,MacIntel,59.99880002,Chrome,1440,900,,,,,10,811,,,,,,,,,,,,,,,,,160,H,hexagon,1,0,,,,,,,,,,,,,,,,repeat,number,numRpt,f,0.6007,Lo,,,,,,1,,,,,,,,low,10,0,10,0,1,,,,,,,,,
292906,2022-09-21_21h26.33.940,vts_reward_expectancy,2022.2.4,MacIntel,59.99880002,Chrome,1440,900,,,,,1,812,,,,,,,,,,,,,,,,,132,S,triangle,1,0,,,,,,,,,,,,,,,,repeat,number,numRpt,d,0.5119,Hi,,,,,,1,,,,,,,,low,11,0,11,0,1,,,,,,,,,
292906,2022-09-21_21h26.33.940,vts_reward_expectancy,2022.2.4,MacIntel,59.99880002,Chrome,1440,900,,,,,1,813,,,,,,,,,,,,,,,,,167,F,hexagon,1,0,,,,,,,,,,,,,,,,repeat,number,numRpt,f,0.5449,Lo,,,,,,1,,,,,,,,low,12,0,12,0,1,,,,,,,,,
292906,2022-09-21_21h26.33.940,vts_reward_expectancy,2022.2.4,MacIntel,59.99880002,Chrome,1440,900,,,,,10,823,,,,,,,,,,,,,,,,,174,W,triangle,1,0,,,,,,,,,,,,,,,,switch,letter,lettSwt,k,0.5625,Hi,,,,,,1,,,,,,,,low,13,0,13,0,1,,,,,,,,,
292906,2022-09-21_21h26.33.940,vts_reward_expectancy,2022.2.4,MacIntel,59.99880002,Chrome,1440,900,,,,,0,823,,,,,,,,,,,,,,,,,146,U,triangle,1,0,,,,,,,,,,,,,,,,switch,number,numSwt,d,0.6624,Hi,,,,,,1,,,,,,,,low,14,0,14,0,1,,,,,,,,,
292906,2022-09-21_21h26.33.940,vts_reward_expectancy,2022.2.4,MacIntel,59.99880002,Chrome,1440,900,,,,,1,824,,,,,,,,,,,,,,,,,181,B,hexagon,1,0,,,,,,,,,,,,,,,,repeat,number,numRpt,f,0.6696,Lo,,,,,,1,,,,,,,,low,15,0,15,0,1,,,,,,,,,
292906,2022-09-21_21h26.33.940,vts_reward_expectancy,2022.2.4,MacIntel,59.99880002,Chrome,1440,900,,,,,1,825,,,,,,,,,,,,,,,,,139,Y,hexagon,1,0,,,,,,,,,,,,,,,,repeat,number,numRpt,d,0.5878,Lo,,,,,,1,,,,,,,,low,16,0,16,0,1,,,,,,,,,
292906,2022-09-21_21h26.33.940,vts_reward_expectancy,2022.2.4,MacIntel,59.99880002,Chrome,1440,900,,,,,0,825,,,,,,,,,,,,,,,,,181,S,triangle,1,0,,,,,,,,,,,,,,,,repeat,number,numRpt,f,0.5671,Hi,,,,,,1,,,,,,,,low,17,0,17,0,1,,,,,,,,,
292906,2022-09-21_21h26.33.940,vts_reward_expectancy,2022.2.4,MacIntel,59.99880002,Chrome,1440,900,,,,,1,826,,,,,,,,,,,,,,,,,125,D,hexagon,1,0,,,,,,,,,,,,,,,,repeat,number,numRpt,d,0.5065,Lo,,,,,,1,,,,,,,,low,18,0,18,0,1,,,,,,,,,
292906,2022-09-21_21h26.33.940,vts_reward_expectancy,2022.2.4,MacIntel,59.99880002,Chrome,1440,900,,,,,1,827,,,,,,,,,,,,,,,,,167,F,triangle,1,0,,,,,,,,,,,,,,,,repeat,number,numRpt,f,0.5444,Hi,,,,,,1,,,,,,,,low,19,0,19,0,1,,,,,,,,,
292906,2022-09-21_21h26.33.940,vts_reward_expectancy,2022.2.4,MacIntel,59.99880002,Chrome,1440,900,,,,,10,837,,,,,,,,,,,,,,,,,174,U,triangle,1,0,,,,,,,,,,,,,,,,switch,letter,lettSwt,k,0.563,Hi,,,,,,1,,,,,,,,low,20,0,20,0,1,,,,,,,,,
292906,2022-09-21_21h26.33.940,vts_reward_expectancy,2022.2.4,MacIntel,59.99880002,Chrome,1440,900,,,,,10,847,,,,,,,,,,,,,,,,,160,W,hexagon,1,0,,,,,,,,,,,,,,,,repeat,letter,lettRpt,k,0.5193,Lo,,,,,,1,,,,,,,,low,21,0,21,0,1,,,,,,,,,
292906,2022-09-21_21h26.33.940,vts_reward_expectancy,2022.2.4,MacIntel,59.99880002,Chrome,1440,900,,,,,0,847,,,,,,,,,,,,,,,,,146,H,triangle,1,0,,,,,,,,,,,,,,,,repeat,letter,lettRpt,j,0.5511,Hi,,,,,,1,,,,,,,,low,22,0,22,0,1,,,,,,,,,
292906,2022-09-21_21h26.33.940,vts_reward_expectancy,2022.2.4,MacIntel,59.99880002,Chrome,1440,900,,,,,10,857,,,,,,,,,,,,,,,,,132,B,hexagon,1,0,,,,,,,,,,,,,,,,repeat,letter,lettRpt,j,0.4803,Lo,,,,,,1,,,,,,,,low,23,0,23,0,1,,,,,,,,,
292906,2022-09-21_21h26.33.940,vts_reward_expectancy,2022.2.4,MacIntel,59.99880002,Chrome,1440,900,,,,,10,867,,,,,,,,,,,,,,,,,132,F,hexagon,1,0,,,,,,,,,,,,,,,,switch,number,numSwt,d,0.5001,Lo,,,,,,1,,,,,,,,low,24,0,24,0,1,,,,,,,,,
292906,2022-09-21_21h26.33.940,vts_reward_expectancy,2022.2.4,MacIntel,59.99880002,Chrome,1440,900,,,,,10,877,,,,,,,,,,,,,,,,,167,B,triangle,1,0,,,,,,,,,,,,,,,,repeat,number,numRpt,f,0.5266,Hi,,,,,,1,,,,,,,,low,25,0,25,0,1,,,,,,,,,
292906,2022-09-21_21h26.33.940,vts_reward_expectancy,2022.2.4,MacIntel,59.99880002,Chrome,1440,900,,,,,10,887,,,,,,,,,,,,,,,,,139,S,triangle,1,0,,,,,,,,,,,,,,,,repeat,number,numRpt,d,0.4643,Hi,,,,,,1,,,,,,,,low,26,0,26,0,1,,,,,,,,,
292906,2022-09-21_21h26.33.940,vts_reward_expectancy,2022.2.4,MacIntel,59.99880002,Chrome,1440,900,,,,,1,888,,,,,,,,,,,,,,,,,174,H,hexagon,1,0,,,,,,,,,,,,,,,,repeat,number,numRpt,f,0.5203,Lo,,,,,,1,,,,,,,,low,27,0,27,0,1,,,,,,,,,
292906,2022-09-21_21h26.33.940,vts_reward_expectancy,2022.2.4,MacIntel,59.99880002,Chrome,1440,900,,,,,0,888,,,,,,,,,,,,,,,,,146,D,triangle,1,0,,,,,,,,,,,,,,,,repeat,number,numRpt,d,0.776,Hi,,,,,,1,,,,,,,,low,28,0,28,0,1,,,,,,,,,
292906,2022-09-21_21h26.33.940,vts_reward_expectancy,2022.2.4,MacIntel,59.99880002,Chrome,1440,900,,,,,10,898,,,,,,,,,,,,,,,,,160,W,hexagon,1,0,,,,,,,,,,,,,,,,repeat,number,numRpt,f,0.4955,Lo,,,,,,1,,,,,,,,low,29,0,29,0,1,,,,,,,,,
292906,2022-09-21_21h26.33.940,vts_reward_expectancy,2022.2.4,MacIntel,59.99880002,Chrome,1440,900,,,,,10,908,,,,,,,,,,,,,,,,,181,Y,hexagon,1,0,,,,,,,,,,,,,,,,repeat,number,numRpt,f,0.4757,Lo,,,,,,1,,,,,,,,low,30,0,30,0,1,,,,,,,,,
292906,2022-09-21_21h26.33.940,vts_reward_expectancy,2022.2.4,MacIntel,59.99880002,Chrome,1440,900,,,,,0,908,,,,,,,,,,,,,,,,,125,U,triangle,1,0,,,,,,,,,,,,,,,,repeat,number,numRpt,d,0.6913,Hi,,,,,,1,,,,,,,,low,31,0,31,0,1,,,,,,,,,
292906,2022-09-21_21h26.33.940,vts_reward_expectancy,2022.2.4,MacIntel,59.99880002,Chrome,1440,900,,,,,10,918,,,,,,,,,,,,,,,,,174,S,hexagon,1,0,,,,,,,,,,,,,,,,repeat,number,numRpt,f,0.6837,Lo,,,,,,2,,,,,,space,8.0258,low,0,0,0,0,1,,,,,,,,,
292906,2022-09-21_21h26.33.940,vts_reward_expectancy,2022.2.4,MacIntel,59.99880002,Chrome,1440,900,,,,,0,918,,,,,,,,,,,,,,,,,160,U,triangle,1,0,,,,,,,,,,,,,,,,repeat,number,numRpt,f,0.5794,Hi,,,,,,2,,,,,,,,low,1,0,1,0,1,,,,,,,,,
292906,2022-09-21_21h26.33.940,vts_reward_expectancy,2022.2.4,MacIntel,59.99880002,Chrome,1440,900,,,,,1,919,,,,,,,,,,,,,,,,,146,D,hexagon,1,0,,,,,,,,,,,,,,,,repeat,number,numRpt,d,0.5635,Lo,,,,,,2,,,,,,,,low,2,0,2,0,1,,,,,,,,,
292906,2022-09-21_21h26.33.940,vts_reward_expectancy,2022.2.4,MacIntel,59.99880002,Chrome,1440,900,,,,,0,919,,,,,,,,,,,,,,,,,132,F,triangle,1,0,,,,,,,,,,,,,,,,repeat,number,numRpt,d,0.6832,Hi,,,,,,2,,,,,,,,low,3,0,3,0,1,,,,,,,,,
292906,2022-09-21_21h26.33.940,vts_reward_expectancy,2022.2.4,MacIntel,59.99880002,Chrome,1440,900,,,,,1,920,,,,,,,,,,,,,,,,,139,W,hexagon,1,0,,,,,,,,,,,,,,,,switch,letter,lettSwt,k,0.6829,Lo,,,,,,2,,,,,,,,low,4,0,4,0,1,,,,,,,,,
292906,2022-09-21_21h26.33.940,vts_reward_expectancy,2022.2.4,MacIntel,59.99880002,Chrome,1440,900,,,,,0,920,,,,,,,,,,,,,,,,,167,H,triangle,1,0,,,,,,,,,,,,,,,,switch,number,numSwt,f,0.5871,Hi,,,,,,2,,,,,,,,low,5,0,5,0,1,,,,,,,,,
292906,2022-09-21_21h26.33.940,vts_reward_expectancy,2022.2.4,MacIntel,59.99880002,Chrome,1440,900,,,,,10,930,,,,,,,,,,,,,,,,,125,Y,hexagon,1,0,,,,,,,,,,,,,,,,repeat,number,numRpt,d,0.554,Lo,,,,,,2,,,,,,,,low,6,0,6,0,1,,,,,,,,,
292906,2022-09-21_21h26.33.940,vts_reward_expectancy,2022.2.4,MacIntel,59.99880002,Chrome,1440,900,,,,,10,940,,,,,,,,,,,,,,,,,181,B,triangle,1,0,,,,,,,,,,,,,,,,repeat,number,numRpt,f,0.4975,Hi,,,,,,2,,,,,,,,low,7,0,7,0,1,,,,,,,,,
292906,2022-09-21_21h26.33.940,vts_reward_expectancy,2022.2.4,MacIntel,59.99880002,Chrome,1440,900,,,,,1,941,,,,,,,,,,,,,,,,,174,S,hexagon,1,0,,,,,,,,,,,,,,,,repeat,number,numRpt,f,0.5945,Lo,,,,,,2,,,,,,,,low,8,0,8,0,1,,,,,,,,,
292906,2022-09-21_21h26.33.940,vts_reward_expectancy,2022.2.4,MacIntel,59.99880002,Chrome,1440,900,,,,,0,941,,,,,,,,,,,,,,,,,160,U,triangle,1,0,,,,,,,,,,,,,,,,repeat,number,numRpt,f,0.8232,Hi,,,,,,2,,,,,,,,low,9,0,9,0,1,,,,,,,,,
292906,2022-09-21_21h26.33.940,vts_reward_expectancy,2022.2.4,MacIntel,59.99880002,Chrome,1440,900,,,,,10,951,,,,,,,,,,,,,,,,,146,D,hexagon,1,0,,,,,,,,,,,,,,,,repeat,number,numRpt,d,0.8133,Lo,,,,,,2,,,,,,,,low,10,0,10,0,1,,,,,,,,,
292906,2022-09-21_21h26.33.940,vts_reward_expectancy,2022.2.4,MacIntel,59.99880002,Chrome,1440,900,,,,,0,951,,,,,,,,,,,,,,,,,132,F,triangle,1,0,,,,,,,,,,,,,,,,repeat,number,numRpt,d,2.3807,Hi,,,,,,2,,,,,,,,low,11,0,11,0,1,,,,,,,,,
292906,2022-09-21_21h26.33.940,vts_reward_expectancy,2022.2.4,MacIntel,59.99880002,Chrome,1440,900,,,,,1,952,,,,,,,,,,,,,,,,,139,W,hexagon,1,0,,,,,,,,,,,,,,,,repeat,number,numRpt,d,0.6289,Lo,,,,,,2,,,,,,,,low,12,0,12,0,1,,,,,,,,,
292906,2022-09-21_21h26.33.940,vts_reward_expectancy,2022.2.4,MacIntel,59.99880002,Chrome,1440,900,,,,,0,952,,,,,,,,,,,,,,,,,167,H,triangle,1,0,,,,,,,,,,,,,,,,repeat,number,numRpt,f,0.5625,Hi,,,,,,2,,,,,,,,low,13,0,13,0,1,,,,,,,,,
292906,2022-09-21_21h26.33.940,vts_reward_expectancy,2022.2.4,MacIntel,59.99880002,Chrome,1440,900,,,,,0,952,,,,,,,,,,,,,,,,,125,Y,triangle,1,0,,,,,,,,,,,,,,,,repeat,number,numRpt,d,0.5453,Hi,,,,,,2,,,,,,,,low,14,0,14,0,1,,,,,,,,,
292906,2022-09-21_21h26.33.940,vts_reward_expectancy,2022.2.4,MacIntel,59.99880002,Chrome,1440,900,,,,,10,962,,,,,,,,,,,,,,,,,181,B,hexagon,1,0,,,,,,,,,,,,,,,,switch,letter,lettSwt,j,0.6541,Lo,,,,,,2,,,,,,,,low,15,0,15,0,1,,,,,,,,,
292906,2022-09-21_21h26.33.940,vts_reward_expectancy,2022.2.4,MacIntel,59.99880002,Chrome,1440,900,,,,,10,972,,,,,,,,,,,,,,,,,160,D,triangle,1,0,,,,,,,,,,,,,,,,switch,number,numSwt,f,0.4456,Hi,,,,,,2,,,,,,,,low,16,0,16,0,1,,,,,,,,,
292906,2022-09-21_21h26.33.940,vts_reward_expectancy,2022.2.4,MacIntel,59.99880002,Chrome,1440,900,,,,,10,982,,,,,,,,,,,,,,,,,167,U,hexagon,1,0,,,,,,,,,,,,,,,,repeat,number,numRpt,f,0.6971,Lo,,,,,,2,,,,,,,,low,17,0,17,0,1,,,,,,,,,
292906,2022-09-21_21h26.33.940,vts_reward_expectancy,2022.2.4,MacIntel,59.99880002,Chrome,1440,900,,,,,10,992,,,,,,,,,,,,,,,,,139,H,triangle,1,0,,,,,,,,,,,,,,,,switch,letter,lettSwt,j,0.5401,Hi,,,,,,2,,,,,,,,low,18,0,18,0,1,,,,,,,,,
292906,2022-09-21_21h26.33.940,vts_reward_expectancy,2022.2.4,MacIntel,59.99880002,Chrome,1440,900,,,,,10,1002,,,,,,,,,,,,,,,,,181,F,hexagon,1,0,,,,,,,,,,,,,,,,switch,number,numSwt,f,0.4915,Lo,,,,,,2,,,,,,,,low,19,0,19,0,1,,,,,,,,,
292906,2022-09-21_21h26.33.940,vts_reward_expectancy,2022.2.4,MacIntel,59.99880002,Chrome,1440,900,,,,,10,1012,,,,,,,,,,,,,,,,,125,Y,triangle,1,0,,,,,,,,,,,,,,,,switch,letter,lettSwt,k,0.4828,Hi,,,,,,2,,,,,,,,low,20,0,20,0,1,,,,,,,,,
292906,2022-09-21_21h26.33.940,vts_reward_expectancy,2022.2.4,MacIntel,59.99880002,Chrome,1440,900,,,,,1,1013,,,,,,,,,,,,,,,,,174,S,hexagon,1,0,,,,,,,,,,,,,,,,switch,number,numSwt,f,0.469,Lo,,,,,,2,,,,,,,,low,21,0,21,0,1,,,,,,,,,
292906,2022-09-21_21h26.33.940,vts_reward_expectancy,2022.2.4,MacIntel,59.99880002,Chrome,1440,900,,,,,1,1014,,,,,,,,,,,,,,,,,132,W,hexagon,1,0,,,,,,,,,,,,,,,,switch,letter,lettSwt,k,0.4318,Lo,,,,,,2,,,,,,,,low,22,0,22,0,1,,,,,,,,,
292906,2022-09-21_21h26.33.940,vts_reward_expectancy,2022.2.4,MacIntel,59.99880002,Chrome,1440,900,,,,,0,1014,,,,,,,,,,,,,,,,,146,B,triangle,1,0,,,,,,,,,,,,,,,,switch,number,numSwt,d,0.5464,Hi,,,,,,2,,,,,,,,low,23,0,23,0,1,,,,,,,,,
292906,2022-09-21_21h26.33.940,vts_reward_expectancy,2022.2.4,MacIntel,59.99880002,Chrome,1440,900,,,,,0,1014,,,,,,,,,,,,,,,,,160,H,triangle,1,0,,,,,,,,,,,,,,,,switch,letter,lettSwt,j,0.7168,Hi,,,,,,2,,,,,,,,low,24,0,24,0,1,,,,,,,,,
292906,2022-09-21_21h26.33.940,vts_reward_expectancy,2022.2.4,MacIntel,59.99880002,Chrome,1440,900,,,,,10,1024,,,,,,,,,,,,,,,,,146,W,hexagon,1,0,,,,,,,,,,,,,,,,switch,number,numSwt,d,0.7209,Lo,,,,,,2,,,,,,,,low,25,0,25,0,1,,,,,,,,,
292906,2022-09-21_21h26.33.940,vts_reward_expectancy,2022.2.4,MacIntel,59.99880002,Chrome,1440,900,,,,,0,1024,,,,,,,,,,,,,,,,,174,F,triangle,1,0,,,,,,,,,,,,,,,,repeat,number,numRpt,f,0.7032,Hi,,,,,,2,,,,,,,,low,26,0,26,0,1,,,,,,,,,
292906,2022-09-21_21h26.33.940,vts_reward_expectancy,2022.2.4,MacIntel,59.99880002,Chrome,1440,900,,,,,10,1034,,,,,,,,,,,,,,,,,139,U,hexagon,1,0,,,,,,,,,,,,,,,,repeat,number,numRpt,d,1.0407,Lo,,,,,,2,,,,,,,,low,27,0,27,0,1,,,,,,,,,
292906,2022-09-21_21h26.33.940,vts_reward_expectancy,2022.2.4,MacIntel,59.99880002,Chrome,1440,900,,,,,10,1044,,,,,,,,,,,,,,,,,132,S,hexagon,1,0,,,,,,,,,,,,,,,,repeat,number,numRpt,d,1.1128,Lo,,,,,,2,,,,,,,,low,28,0,28,0,1,,,,,,,,,
292906,2022-09-21_21h26.33.940,vts_reward_expectancy,2022.2.4,MacIntel,59.99880002,Chrome,1440,900,,,,,0,1044,,,,,,,,,,,,,,,,,125,B,triangle,1,0,,,,,,,,,,,,,,,,repeat,number,numRpt,d,0.6247,Hi,,,,,,2,,,,,,,,low,29,0,29,0,1,,,,,,,,,
292906,2022-09-21_21h26.33.940,vts_reward_expectancy,2022.2.4,MacIntel,59.99880002,Chrome,1440,900,,,,,1,1045,,,,,,,,,,,,,,,,,181,D,hexagon,1,0,,,,,,,,,,,,,,,,repeat,number,numRpt,f,0.8495,Lo,,,,,,2,,,,,,,,low,30,0,30,0,1,,,,,,,,,
292906,2022-09-21_21h26.33.940,vts_reward_expectancy,2022.2.4,MacIntel,59.99880002,Chrome,1440,900,,,,,0,1045,,,,,,,,,,,,,,,,,167,Y,triangle,1,0,,,,,,,,,,,,,,,,switch,letter,lettSwt,k,1.1005,Hi,,,,,,2,,,,,,,,low,31,0,31,0,1,,,,,,,,,
292906,2022-09-21_21h26.33.940,vts_reward_expectancy,2022.2.4,MacIntel,59.99880002,Chrome,1440,900,,,,,0,1045,,,,,,,,,,,,,,,,,132,B,triangle,1,0,,,,,,,,,,,,,,,,switch,number,numSwt,d,0.5114,Hi,,,,,,3,,,,,,space,1.8189,low,0,0,0,0,1,,,,,,,,,
292906,2022-09-21_21h26.33.940,vts_reward_expectancy,2022.2.4,MacIntel,59.99880002,Chrome,1440,900,,,,,1,1046,,,,,,,,,,,,,,,,,174,D,hexagon,1,0,,,,,,,,,,,,,,,,repeat,number,numRpt,f,0.6395,Lo,,,,,,3,,,,,,,,low,1,0,1,0,1,,,,,,,,,
292906,2022-09-21_21h26.33.940,vts_reward_expectancy,2022.2.4,MacIntel,59.99880002,Chrome,1440,900,,,,,0,1046,,,,,,,,,,,,,,,,,139,S,triangle,1,0,,,,,,,,,,,,,,,,repeat,number,numRpt,d,1.0179,Hi,,,,,,3,,,,,,,,low,2,0,2,0,1,,,,,,,,,
292906,2022-09-21_21h26.33.940,vts_reward_expectancy,2022.2.4,MacIntel,59.99880002,Chrome,1440,900,,,,,1,1047,,,,,,,,,,,,,,,,,181,H,hexagon,1,0,,,,,,,,,,,,,,,,repeat,number,numRpt,f,0.5726,Lo,,,,,,3,,,,,,,,low,3,0,3,0,1,,,,,,,,,
292906,2022-09-21_21h26.33.940,vts_reward_expectancy,2022.2.4,MacIntel,59.99880002,Chrome,1440,900,,,,,1,1048,,,,,,,,,,,,,,,,,125,Y,hexagon,1,0,,,,,,,,,,,,,,,,switch,letter,lettSwt,k,0.7975,Lo,,,,,,3,,,,,,,,low,4,0,4,0,1,,,,,,,,,
292906,2022-09-21_21h26.33.940,vts_reward_expectancy,2022.2.4,MacIntel,59.99880002,Chrome,1440,900,,,,,0,1048,,,,,,,,,,,,,,,,,167,W,triangle,1,0,,,,,,,,,,,,,,,,switch,number,numSwt,f,0.6012,Hi,,,,,,3,,,,,,,,low,5,0,5,0,1,,,,,,,,,
292906,2022-09-21_21h26.33.940,vts_reward_expectancy,2022.2.4,MacIntel,59.99880002,Chrome,1440,900,,,,,1,1049,,,,,,,,,,,,,,,,,146,U,hexagon,1,0,,,,,,,,,,,,,,,,repeat,number,numRpt,d,1.3109,Lo,,,,,,3,,,,,,,,low,6,0,6,0,1,,,,,,,,,
292906,2022-09-21_21h26.33.940,vts_reward_expectancy,2022.2.4,MacIntel,59.99880002,Chrome,1440,900,,,,,0,1049,,,,,,,,,,,,,,,,,160,F,triangle,1,0,,,,,,,,,,,,,,,,repeat,number,numRpt,f,0.8152,Hi,,,,,,3,,,,,,,,low,7,0,7,0,1,,,,,,,,,
292906,2022-09-21_21h26.33.940,vts_reward_expectancy,2022.2.4,MacIntel,59.99880002,Chrome,1440,900,,,,,0,1049,,,,,,,,,,,,,,,,,132,B,triangle,1,0,,,,,,,,,,,,,,,,switch,letter,lettSwt,j,0.6315,Hi,,,,,,3,,,,,,,,low,8,0,8,0,1,,,,,,,,,
292906,2022-09-21_21h26.33.940,vts_reward_expectancy,2022.2.4,MacIntel,59.99880002,Chrome,1440,900,,,,,1,1050,,,,,,,,,,,,,,,,,174,D,hexagon,1,0,,,,,,,,,,,,,,,,repeat,letter,lettRpt,j,0.8315,Lo,,,,,,3,,,,,,,,low,9,0,9,0,1,,,,,,,,,
292906,2022-09-21_21h26.33.940,vts_reward_expectancy,2022.2.4,MacIntel,59.99880002,Chrome,1440,900,,,,,1,1051,,,,,,,,,,,,,,,,,139,S,hexagon,1,0,,,,,,,,,,,,,,,,switch,number,numSwt,d,1.1361,Lo,,,,,,3,,,,,,,,low,10,0,10,0,1,,,,,,,,,
292906,2022-09-21_21h26.33.940,vts_reward_expectancy,2022.2.4,MacIntel,59.99880002,Chrome,1440,900,,,,,0,1051,,,,,,,,,,,,,,,,,181,H,triangle,1,0,,,,,,,,,,,,,,,,switch,letter,lettSwt,j,0.6802,Hi,,,,,,3,,,,,,,,low,11,0,11,0,1,,,,,,,,,
292906,2022-09-21_21h26.33.940,vts_reward_expectancy,2022.2.4,MacIntel,59.99880002,Chrome,1440,900,,,,,0,1051,,,,,,,,,,,,,,,,,125,Y,triangle,1,0,,,,,,,,,,,,,,,,switch,number,numSwt,d,0.6377,Hi,,,,,,3,,,,,,,,low,12,0,12,0,1,,,,,,,,,
292906,2022-09-21_21h26.33.940,vts_reward_expectancy,2022.2.4,MacIntel,59.99880002,Chrome,1440,900,,,,,1,1052,,,,,,,,,,,,,,,,,167,W,hexagon,1,0,,,,,,,,,,,,,,,,switch,letter,lettSwt,k,0.6641,Lo,,,,,,3,,,,,,,,low,13,0,13,0,1,,,,,,,,,
292906,2022-09-21_21h26.33.940,vts_reward_expectancy,2022.2.4,MacIntel,59.99880002,Chrome,1440,900,,,,,0,1052,,,,,,,,,,,,,,,,,146,U,triangle,1,0,,,,,,,,,,,,,,,,switch,number,numSwt,d,0.8632,Hi,,,,,,3,,,,,,,,low,14,0,14,0,1,,,,,,,,,
292906,2022-09-21_21h26.33.940,vts_reward_expectancy,2022.2.4,MacIntel,59.99880002,Chrome,1440,900,,,,,1,1053,,,,,,,,,,,,,,,,,160,F,hexagon,1,0,,,,,,,,,,,,,,,,repeat,number,numRpt,f,0.7005,Lo,,,,,,3,,,,,,,,low,15,0,15,0,1,,,,,,,,,
292906,2022-09-21_21h26.33.940,vts_reward_expectancy,2022.2.4,MacIntel,59.99880002,Chrome,1440,900,,,,,0,1053,,,,,,,,,,,,,,,,,174,S,triangle,1,0,,,,,,,,,,,,,,,,repeat,number,numRpt,f,0.6131,Hi,,,,,,3,,,,,,,,low,16,0,16,0,1,,,,,,,,,
292906,2022-09-21_21h26.33.940,vts_reward_expectancy,2022.2.4,MacIntel,59.99880002,Chrome,1440,900,,,,,10,1063,,,,,,,,,,,,,,,,,160,F,hexagon,1,0,,,,,,,,,,,,,,,,repeat,number,numRpt,f,0.8688,Lo,,,,,,3,,,,,,,,low,17,0,17,0,1,,,,,,,,,
292906,2022-09-21_21h26.33.940,vts_reward_expectancy,2022.2.4,MacIntel,59.99880002,Chrome,1440,900,,,,,1,1064,,,,,,,,,,,,,,,,,167,H,hexagon,1,0,,,,,,,,,,,,,,,,repeat,number,numRpt,f,1.03,Lo,,,,,,3,,,,,,,,low,18,0,18,0,1,,,,,,,,,
292906,2022-09-21_21h26.33.940,vts_reward_expectancy,2022.2.4,MacIntel,59.99880002,Chrome,1440,900,,,,,0,1064,,,,,,,,,,,,,,,,,146,U,triangle,1,0,,,,,,,,,,,,,,,,switch,letter,lettSwt,k,1.5557,Hi,,,,,,3,,,,,,,,low,19,0,19,0,1,,,,,,,,,
292906,2022-09-21_21h26.33.940,vts_reward_expectancy,2022.2.4,MacIntel,59.99880002,Chrome,1440,900,,,,,10,1074,,,,,,,,,,,,,,,,,132,B,triangle,1,0,,,,,,,,,,,,,,,,repeat,letter,lettRpt,j,0.7976,Hi,,,,,,3,,,,,,,,low,20,0,20,0,1,,,,,,,,,
292906,2022-09-21_21h26.33.940,vts_reward_expectancy,2022.2.4,MacIntel,59.99880002,Chrome,1440,900,,,,,1,1075,,,,,,,,,,,,,,,,,181,D,hexagon,1,0,,,,,,,,,,,,,,,,switch,number,numSwt,f,1.2473,Lo,,,,,,3,,,,,,,,low,21,0,21,0,1,,,,,,,,,
292906,2022-09-21_21h26.33.940,vts_reward_expectancy,2022.2.4,MacIntel,59.99880002,Chrome,1440,900,,,,,1,1076,,,,,,,,,,,,,,,,,139,W,hexagon,1,0,,,,,,,,,,,,,,,,switch,letter,lettSwt,k,1.0284,Lo,,,,,,3,,,,,,,,low,22,0,22,0,1,,,,,,,,,
292906,2022-09-21_21h26.33.940,vts_reward_expectancy,2022.2.4,MacIntel,59.99880002,Chrome,1440,900,,,,,1,1077,,,,,,,,,,,,,,,,,125,Y,triangle,1,0,,,,,,,,,,,,,,,,repeat,letter,lettRpt,k,0.9454,Hi,,,,,,3,,,,,,,,low,23,0,23,0,1,,,,,,,,,
292906,2022-09-21_21h26.33.940,vts_reward_expectancy,2022.2.4,MacIntel,59.99880002,Chrome,1440,900,,,,,1,1078,,,,,,,,,,,,,,,,,160,U,hexagon,1,0,,,,,,,,,,,,,,,,repeat,letter,lettRpt,k,0.9634,Lo,,,,,,3,,,,,,,,low,24,0,24,0,1,,,,,,,,,
292906,2022-09-21_21h26.33.940,vts_reward_expectancy,2022.2.4,MacIntel,59.99880002,Chrome,1440,900,,,,,1,1079,,,,,,,,,,,,,,,,,174,H,triangle,1,0,,,,,,,,,,,,,,,,repeat,letter,lettRpt,j,1.0958,Hi,,,,,,3,,,,,,,,low,25,0,25,0,1,,,,,,,,,
292906,2022-09-21_21h26.33.940,vts_reward_expectancy,2022.2.4,MacIntel,59.99880002,Chrome,1440,900,,,,,1,1080,,,,,,,,,,,,,,,,,146,S,hexagon,1,0,,,,,,,,,,,,,,,,switch,number,numSwt,d,1.328,Lo,,,,,,3,,,,,,,,low,26,0,26,0,1,,,,,,,,,
292906,2022-09-21_21h26.33.940,vts_reward_expectancy,2022.2.4,MacIntel,59.99880002,Chrome,1440,900,,,,,0,1080,,,,,,,,,,,,,,,,,167,Y,triangle,1,0,,,,,,,,,,,,,,,,repeat,number,numRpt,f,0.6888,Hi,,,,,,3,,,,,,,,low,27,0,27,0,1,,,,,,,,,
292906,2022-09-21_21h26.33.940,vts_reward_expectancy,2022.2.4,MacIntel,59.99880002,Chrome,1440,900,,,,,1,1081,,,,,,,,,,,,,,,,,181,F,hexagon,1,0,,,,,,,,,,,,,,,,switch,letter,lettSwt,j,0.8768,Lo,,,,,,3,,,,,,,,low,28,0,28,0,1,,,,,,,,,
292906,2022-09-21_21h26.33.940,vts_reward_expectancy,2022.2.4,MacIntel,59.99880002,Chrome,1440,900,,,,,10,1091,,,,,,,,,,,,,,,,,125,D,triangle,1,0,,,,,,,,,,,,,,,,repeat,letter,lettRpt,j,1.0092,Hi,,,,,,3,,,,,,,,low,29,0,29,0,1,,,,,,,,,
292906,2022-09-21_21h26.33.940,vts_reward_expectancy,2022.2.4,MacIntel,59.99880002,Chrome,1440,900,,,,,10,1101,,,,,,,,,,,,,,,,,132,W,hexagon,1,0,,,,,,,,,,,,,,,,repeat,letter,lettRpt,k,0.8806,Lo,,,,,,3,,,,,,,,low,30,0,30,0,1,,,,,,,,,
292906,2022-09-21_21h26.33.940,vts_reward_expectancy,2022.2.4,MacIntel,59.99880002,Chrome,1440,900,,,,,10,1111,,,,,,,,,,,,,,,,,139,B,triangle,1,0,,,,,,,,,,,,,,,,repeat,letter,lettRpt,j,0.8013,Hi,,,,,,3,,,,,,,,low,31,0,31,0,1,,,,,,,,,
292906,2022-09-21_21h26.33.940,vts_reward_expectancy,2022.2.4,MacIntel,59.99880002,Chrome,1440,900,,,,,10,1121,,,,,,,,,,,,,,,,,181,Y,star,1,0,,,,,,,,,,,,,,,,repeat,letter,lettRpt,k,0.6946,Hi,,,,,,4,,,,,,space,0.4134,high,0,0,0,0,1,,,,,,,,,
292906,2022-09-21_21h26.33.940,vts_reward_expectancy,2022.2.4,MacIntel,59.99880002,Chrome,1440,900,,,,,1,1122,,,,,,,,,,,,,,,,,160,B,circle,1,0,,,,,,,,,,,,,,,,repeat,letter,lettRpt,j,0.8115,Lo,,,,,,4,,,,,,,,high,1,0,1,0,1,,,,,,,,,
292906,2022-09-21_21h26.33.940,vts_reward_expectancy,2022.2.4,MacIntel,59.99880002,Chrome,1440,900,,,,,10,1132,,,,,,,,,,,,,,,,,125,F,star,1,0,,,,,,,,,,,,,,,,repeat,letter,lettRpt,j,0.8291,Hi,,,,,,4,,,,,,,,high,2,0,2,0,1,,,,,,,,,
292906,2022-09-21_21h26.33.940,vts_reward_expectancy,2022.2.4,MacIntel,59.99880002,Chrome,1440,900,,,,,1,1133,,,,,,,,,,,,,,,,,167,W,circle,1,0,,,,,,,,,,,,,,,,repeat,letter,lettRpt,k,0.6814,Lo,,,,,,4,,,,,,,,high,3,0,3,0,1,,,,,,,,,
292906,2022-09-21_21h26.33.940,vts_reward_expectancy,2022.2.4,MacIntel,59.99880002,Chrome,1440,900,,,,,1,1134,,,,,,,,,,,,,,,,,132,S,circle,1,0,,,,,,,,,,,,,,,,switch,number,numSwt,d,0.6162,Lo,,,,,,4,,,,,,,,high,4,0,4,0,1,,,,,,,,,
292906,2022-09-21_21h26.33.940,vts_reward_expectancy,2022.2.4,MacIntel,59.99880002,Chrome,1440,900,,,,,0,1134,,,,,,,,,,,,,,,,,139,U,star,1,0,,,,,,,,,,,,,,,,repeat,number,numRpt,d,1.2788,Hi,,,,,,4,,,,,,,,high,5,0,5,0,1,,,,,,,,,
292906,2022-09-21_21h26.33.940,vts_reward_expectancy,2022.2.4,MacIntel,59.99880002,Chrome,1440,900,,,,,0,1134,,,,,,,,,,,,,,,,,146,D,star,1,0,,,,,,,,,,,,,,,,switch,letter,lettSwt,j,0.8471,Hi,,,,,,4,,,,,,,,high,6,0,6,0,1,,,,,,,,,
292906,2022-09-21_21h26.33.940,vts_reward_expectancy,2022.2.4,MacIntel,59.99880002,Chrome,1440,900,,,,,10,1144,,,,,,,,,,,,,,,,,174,H,circle,1,0,,,,,,,,,,,,,,,,switch,number,numSwt,f,0.5808,Lo,,,,,,4,,,,,,,,high,7,0,7,0,1,,,,,,,,,
292906,2022-09-21_21h26.33.940,vts_reward_expectancy,2022.2.4,MacIntel,59.99880002,Chrome,1440,900,,,,,1,1145,,,,,,,,,,,,,,,,,181,Y,circle,1,0,,,,,,,,,,,,,,,,repeat,number,numRpt,f,0.4794,Lo,,,,,,4,,,,,,,,high,8,0,8,0,1,,,,,,,,,
292906,2022-09-21_21h26.33.940,vts_reward_expectancy,2022.2.4,MacIntel,59.99880002,Chrome,1440,900,,,,,10,1155,,,,,,,,,,,,,,,,,160,B,star,1,0,,,,,,,,,,,,,,,,switch,letter,lettSwt,j,0.4453,Hi,,,,,,4,,,,,,,,high,9,0,9,0,1,,,,,,,,,
292906,2022-09-21_21h26.33.940,vts_reward_expectancy,2022.2.4,MacIntel,59.99880002,Chrome,1440,900,,,,,1,1156,,,,,,,,,,,,,,,,,125,F,circle,1,0,,,,,,,,,,,,,,,,repeat,letter,lettRpt,j,0.6118,Lo,,,,,,4,,,,,,,,high,10,0,10,0,1,,,,,,,,,
292906,2022-09-21_21h26.33.940,vts_reward_expectancy,2022.2.4,MacIntel,59.99880002,Chrome,1440,900,,,,,1,1157,,,,,,,,,,,,,,,,,167,W,star,1,0,,,,,,,,,,,,,,,,switch,number,numSwt,f,0.484,Hi,,,,,,4,,,,,,,,high,11,0,11,0,1,,,,,,,,,
292906,2022-09-21_21h26.33.940,vts_reward_expectancy,2022.2.4,MacIntel,59.99880002,Chrome,1440,900,,,,,0,1157,,,,,,,,,,,,,,,,,132,S,star,1,0,,,,,,,,,,,,,,,,repeat,number,numRpt,d,1.1167,Hi,,,,,,4,,,,,,,,high,12,0,12,0,1,,,,,,,,,
292906,2022-09-21_21h26.33.940,vts_reward_expectancy,2022.2.4,MacIntel,59.99880002,Chrome,1440,900,,,,,1,1158,,,,,,,,,,,,,,,,,139,U,circle,1,0,,,,,,,,,,,,,,,,switch,letter,lettSwt,k,0.8977,Lo,,,,,,4,,,,,,,,high,13,0,13,0,1,,,,,,,,,
292906,2022-09-21_21h26.33.940,vts_reward_expectancy,2022.2.4,MacIntel,59.99880002,Chrome,1440,900,,,,,0,1158,,,,,,,,,,,,,,,,,146,D,star,1,0,,,,,,,,,,,,,,,,switch,number,numSwt,d,0.8793,Hi,,,,,,4,,,,,,,,high,14,0,14,0,1,,,,,,,,,
292906,2022-09-21_21h26.33.940,vts_reward_expectancy,2022.2.4,MacIntel,59.99880002,Chrome,1440,900,,,,,1,1159,,,,,,,,,,,,,,,,,174,H,circle,1,0,,,,,,,,,,,,,,,,repeat,number,numRpt,f,0.7639,Lo,,,,,,4,,,,,,,,high,15,0,15,0,1,,,,,,,,,
292906,2022-09-21_21h26.33.940,vts_reward_expectancy,2022.2.4,MacIntel,59.99880002,Chrome,1440,900,,,,,10,1169,,,,,,,,,,,,,,,,,174,W,star,1,0,,,,,,,,,,,,,,,,repeat,number,numRpt,f,0.5238,Hi,,,,,,4,,,,,,,,high,16,0,16,0,1,,,,,,,,,
292906,2022-09-21_21h26.33.940,vts_reward_expectancy,2022.2.4,MacIntel,59.99880002,Chrome,1440,900,,,,,1,1170,,,,,,,,,,,,,,,,,132,U,circle,1,0,,,,,,,,,,,,,,,,switch,letter,lettSwt,k,0.8301,Lo,,,,,,4,,,,,,,,high,17,0,17,0,1,,,,,,,,,
292906,2022-09-21_21h26.33.940,vts_reward_expectancy,2022.2.4,MacIntel,59.99880002,Chrome,1440,900,,,,,1,1171,,,,,,,,,,,,,,,,,167,F,circle,1,0,,,,,,,,,,,,,,,,switch,number,numSwt,f,0.6077,Lo,,,,,,4,,,,,,,,high,18,0,18,0,1,,,,,,,,,
292906,2022-09-21_21h26.33.940,vts_reward_expectancy,2022.2.4,MacIntel,59.99880002,Chrome,1440,900,,,,,10,1181,,,,,,,,,,,,,,,,,146,Y,star,1,0,,,,,,,,,,,,,,,,switch,letter,lettSwt,k,0.5313,Hi,,,,,,4,,,,,,,,high,19,0,19,0,1,,,,,,,,,
292906,2022-09-21_21h26.33.940,vts_reward_expectancy,2022.2.4,MacIntel,59.99880002,Chrome,1440,900,,,,,1,1182,,,,,,,,,,,,,,,,,160,D,circle,1,0,,,,,,,,,,,,,,,,repeat,letter,lettRpt,j,0.6673,Lo,,,,,,4,,,,,,,,high,20,0,20,0,1,,,,,,,,,
292906,2022-09-21_21h26.33.940,vts_reward_expectancy,2022.2.4,MacIntel,59.99880002,Chrome,1440,900,,,,,0,1182,,,,,,,,,,,,,,,,,125,H,star,1,0,,,,,,,,,,,,,,,,switch,number,numSwt,d,0.7328,Hi,,,,,,4,,,,,,,,high,21,0,21,0,1,,,,,,,,,
292906,2022-09-21_21h26.33.940,vts_reward_expectancy,2022.2.4,MacIntel,59.99880002,Chrome,1440,900,,,,,10,1192,,,,,,,,,,,,,,,,,181,S,star,1,0,,,,,,,,,,,,,,,,repeat,number,numRpt,f,0.5454,Hi,,,,,,4,,,,,,,,high,22,0,22,0,1,,,,,,,,,
292906,2022-09-21_21h26.33.940,vts_reward_expectancy,2022.2.4,MacIntel,59.99880002,Chrome,1440,900,,,,,1,1193,,,,,,,,,,,,,,,,,139,B,circle,1,0,,,,,,,,,,,,,,,,repeat,number,numRpt,d,0.5323,Lo,,,,,,4,,,,,,,,high,23,0,23,0,1,,,,,,,,,
292906,2022-09-21_21h26.33.940,vts_reward_expectancy,2022.2.4,MacIntel,59.99880002,Chrome,1440,900,,,,,1,1194,,,,,,,,,,,,,,,,,181,H,circle,1,0,,,,,,,,,,,,,,,,switch,letter,lettSwt,j,0.6117,Lo,,,,,,4,,,,,,,,high,24,0,24,0,1,,,,,,,,,
292906,2022-09-21_21h26.33.940,vts_reward_expectancy,2022.2.4,MacIntel,59.99880002,Chrome,1440,900,,,,,10,1204,,,,,,,,,,,,,,,,,125,B,star,1,0,,,,,,,,,,,,,,,,repeat,letter,lettRpt,j,0.6022,Hi,,,,,,4,,,,,,,,high,25,0,25,0,1,,,,,,,,,
292906,2022-09-21_21h26.33.940,vts_reward_expectancy,2022.2.4,MacIntel,59.99880002,Chrome,1440,900,,,,,1,1205,,,,,,,,,,,,,,,,,167,S,star,1,0,,,,,,,,,,,,,,,,switch,number,numSwt,f,0.5229,Hi,,,,,,4,,,,,,,,high,26,0,26,0,1,,,,,,,,,
292906,2022-09-21_21h26.33.940,vts_reward_expectancy,2022.2.4,MacIntel,59.99880002,Chrome,1440,900,,,,,1,1206,,,,,,,,,,,,,,,,,160,D,circle,1,0,,,,,,,,,,,,,,,,repeat,number,numRpt,f,0.5625,Lo,,,,,,4,,,,,,,,high,27,0,27,0,1,,,,,,,,,
292906,2022-09-21_21h26.33.940,vts_reward_expectancy,2022.2.4,MacIntel,59.99880002,Chrome,1440,900,,,,,0,1206,,,,,,,,,,,,,,,,,132,U,star,0,0,,,,,,,,,,,,,,,,repeat,number,NA,f,0.6448,Lo,,,,,,4,,,,,,,,high,28,0,28,0,1,,,,,,,,,
292906,2022-09-21_21h26.33.940,vts_reward_expectancy,2022.2.4,MacIntel,59.99880002,Chrome,1440,900,,,,,1,1207,,,,,,,,,,,,,,,,,174,W,circle,1,1,,,,,,,,,,,,,,,,switch,letter,lettSwt,k,0.7851,Lo,,,,,,4,,,,,,,,high,29,0,29,0,1,,,,,,,,,
292906,2022-09-21_21h26.33.940,vts_reward_expectancy,2022.2.4,MacIntel,59.99880002,Chrome,1440,900,,,,,10,1217,,,,,,,,,,,,,,,,,146,Y,star,1,0,,,,,,,,,,,,,,,,switch,number,numSwt,d,0.5806,Hi,,,,,,4,,,,,,,,high,30,0,30,0,1,,,,,,,,,
292906,2022-09-21_21h26.33.940,vts_reward_expectancy,2022.2.4,MacIntel,59.99880002,Chrome,1440,900,,,,,1,1218,,,,,,,,,,,,,,,,,139,F,circle,1,0,,,,,,,,,,,,,,,,repeat,number,numRpt,d,0.6597,Lo,,,,,,4,,,,,,,,high,31,0,31,0,1,,,,,,,,,
292906,2022-09-21_21h26.33.940,vts_reward_expectancy,2022.2.4,MacIntel,59.99880002,Chrome,1440,900,,,,,0,1218,,,,,,,,,,,,,,,,,146,U,star,1,0,,,,,,,,,,,,,,,,repeat,number,numRpt,d,0.5786,Hi,,,,,,5,,,,,,space,18.2213,high,0,0,0,0,1,,,,,,,,,
292906,2022-09-21_21h26.33.940,vts_reward_expectancy,2022.2.4,MacIntel,59.99880002,Chrome,1440,900,,,,,1,1219,,,,,,,,,,,,,,,,,181,F,circle,1,0,,,,,,,,,,,,,,,,switch,letter,lettSwt,j,0.5816,Lo,,,,,,5,,,,,,,,high,1,0,1,0,1,,,,,,,,,
292906,2022-09-21_21h26.33.940,vts_reward_expectancy,2022.2.4,MacIntel,59.99880002,Chrome,1440,900,,,,,0,1219,,,,,,,,,,,,,,,,,167,S,star,1,0,,,,,,,,,,,,,,,,switch,number,numSwt,f,0.6657,Hi,,,,,,5,,,,,,,,high,2,0,2,0,1,,,,,,,,,
292906,2022-09-21_21h26.33.940,vts_reward_expectancy,2022.2.4,MacIntel,59.99880002,Chrome,1440,900,,,,,1,1220,,,,,,,,,,,,,,,,,132,W,circle,1,0,,,,,,,,,,,,,,,,repeat,number,numRpt,d,0.6139,Lo,,,,,,5,,,,,,,,high,3,0,3,0,1,,,,,,,,,
292906,2022-09-21_21h26.33.940,vts_reward_expectancy,2022.2.4,MacIntel,59.99880002,Chrome,1440,900,,,,,1,1221,,,,,,,,,,,,,,,,,174,Y,circle,1,0,,,,,,,,,,,,,,,,repeat,number,numRpt,f,0.6213,Lo,,,,,,5,,,,,,,,high,4,0,4,0,1,,,,,,,,,
292906,2022-09-21_21h26.33.940,vts_reward_expectancy,2022.2.4,MacIntel,59.99880002,Chrome,1440,900,,,,,0,1221,,,,,,,,,,,,,,,,,125,H,star,1,0,,,,,,,,,,,,,,,,repeat,number,numRpt,d,1.4974,Hi,,,,,,5,,,,,,,,high,5,0,5,0,1,,,,,,,,,
292906,2022-09-21_21h26.33.940,vts_reward_expectancy,2022.2.4,MacIntel,59.99880002,Chrome,1440,900,,,,,1,1222,,,,,,,,,,,,,,,,,139,D,circle,1,0,,,,,,,,,,,,,,,,repeat,number,numRpt,d,0.5979,Lo,,,,,,5,,,,,,,,high,6,0,6,0,1,,,,,,,,,
292906,2022-09-21_21h26.33.940,vts_reward_expectancy,2022.2.4,MacIntel,59.99880002,Chrome,1440,900,,,,,0,1222,,,,,,,,,,,,,,,,,160,B,star,0,0,,,,,,,,,,,,,,,,repeat,number,NA,d,0.6719,Lo,,,,,,5,,,,,,,,high,7,0,7,0,1,,,,,,,,,
292906,2022-09-21_21h26.33.940,vts_reward_expectancy,2022.2.4,MacIntel,59.99880002,Chrome,1440,900,,,,,0,1222,,,,,,,,,,,,,,,,,146,U,star,1,1,,,,,,,,,,,,,,,,repeat,number,numRpt,d,0.6465,Hi,,,,,,5,,,,,,,,high,8,0,8,0,1,,,,,,,,,
292906,2022-09-21_21h26.33.940,vts_reward_expectancy,2022.2.4,MacIntel,59.99880002,Chrome,1440,900,,,,,1,1223,,,,,,,,,,,,,,,,,181,F,circle,1,0,,,,,,,,,,,,,,,,repeat,number,numRpt,f,0.5358,Lo,,,,,,5,,,,,,,,high,9,0,9,0,1,,,,,,,,,
292906,2022-09-21_21h26.33.940,vts_reward_expectancy,2022.2.4,MacIntel,59.99880002,Chrome,1440,900,,,,,10,1233,,,,,,,,,,,,,,,,,167,S,circle,1,0,,,,,,,,,,,,,,,,repeat,number,numRpt,f,1.3442,Lo,,,,,,5,,,,,,,,high,10,0,10,0,1,,,,,,,,,
292906,2022-09-21_21h26.33.940,vts_reward_expectancy,2022.2.4,MacIntel,59.99880002,Chrome,1440,900,,,,,0,1233,,,,,,,,,,,,,,,,,132,W,star,1,0,,,,,,,,,,,,,,,,switch,letter,lettSwt,k,0.7601,Hi,,,,,,5,,,,,,,,high,11,0,11,0,1,,,,,,,,,
292906,2022-09-21_21h26.33.940,vts_reward_expectancy,2022.2.4,MacIntel,59.99880002,Chrome,1440,900,,,,,1,1234,,,,,,,,,,,,,,,,,174,Y,circle,1,0,,,,,,,,,,,,,,,,switch,number,numSwt,f,0.6632,Lo,,,,,,5,,,,,,,,high,12,0,12,0,1,,,,,,,,,
292906,2022-09-21_21h26.33.940,vts_reward_expectancy,2022.2.4,MacIntel,59.99880002,Chrome,1440,900,,,,,0,1234,,,,,,,,,,,,,,,,,125,H,star,1,0,,,,,,,,,,,,,,,,repeat,number,numRpt,d,0.7957,Hi,,,,,,5,,,,,,,,high,13,0,13,0,1,,,,,,,,,
292906,2022-09-21_21h26.33.940,vts_reward_expectancy,2022.2.4,MacIntel,59.99880002,Chrome,1440,900,,,,,1,1235,,,,,,,,,,,,,,,,,139,D,circle,1,0,,,,,,,,,,,,,,,,repeat,number,numRpt,d,0.7631,Lo,,,,,,5,,,,,,,,high,14,0,14,0,1,,,,,,,,,
292906,2022-09-21_21h26.33.940,vts_reward_expectancy,2022.2.4,MacIntel,59.99880002,Chrome,1440,900,,,,,0,1235,,,,,,,,,,,,,,,,,160,B,star,1,0,,,,,,,,,,,,,,,,switch,letter,lettSwt,j,0.6999,Hi,,,,,,5,,,,,,,,high,15,0,15,0,1,,,,,,,,,
292906,2022-09-21_21h26.33.940,vts_reward_expectancy,2022.2.4,MacIntel,59.99880002,Chrome,1440,900,,,,,0,1235,,,,,,,,,,,,,,,,,174,F,star,1,0,,,,,,,,,,,,,,,,switch,number,numSwt,f,0.6459,Hi,,,,,,5,,,,,,,,high,16,0,16,0,1,,,,,,,,,
292906,2022-09-21_21h26.33.940,vts_reward_expectancy,2022.2.4,MacIntel,59.99880002,Chrome,1440,900,,,,,10,1245,,,,,,,,,,,,,,,,,146,D,circle,1,0,,,,,,,,,,,,,,,,switch,letter,lettSwt,j,0.5247,Lo,,,,,,5,,,,,,,,high,17,0,17,0,1,,,,,,,,,
292906,2022-09-21_21h26.33.940,vts_reward_expectancy,2022.2.4,MacIntel,59.99880002,Chrome,1440,900,,,,,1,1246,,,,,,,,,,,,,,,,,181,H,star,1,0,,,,,,,,,,,,,,,,repeat,letter,lettRpt,j,0.5726,Hi,,,,,,5,,,,,,,,high,18,0,18,0,1,,,,,,,,,
292906,2022-09-21_21h26.33.940,vts_reward_expectancy,2022.2.4,MacIntel,59.99880002,Chrome,1440,900,,,,,10,1256,,,,,,,,,,,,,,,,,125,W,circle,1,0,,,,,,,,,,,,,,,,switch,number,numSwt,d,0.5281,Lo,,,,,,5,,,,,,,,high,19,0,19,0,1,,,,,,,,,
292906,2022-09-21_21h26.33.940,vts_reward_expectancy,2022.2.4,MacIntel,59.99880002,Chrome,1440,900,,,,,10,1266,,,,,,,,,,,,,,,,,160,B,circle,1,0,,,,,,,,,,,,,,,,switch,letter,lettSwt,j,0.6469,Lo,,,,,,5,,,,,,,,high,20,0,20,0,1,,,,,,,,,
292906,2022-09-21_21h26.33.940,vts_reward_expectancy,2022.2.4,MacIntel,59.99880002,Chrome,1440,900,,,,,0,1266,,,,,,,,,,,,,,,,,167,Y,star,1,0,,,,,,,,,,,,,,,,repeat,letter,lettRpt,k,0.7299,Hi,,,,,,5,,,,,,,,high,21,0,21,0,1,,,,,,,,,
292906,2022-09-21_21h26.33.940,vts_reward_expectancy,2022.2.4,MacIntel,59.99880002,Chrome,1440,900,,,,,0,1266,,,,,,,,,,,,,,,,,139,U,star,1,0,,,,,,,,,,,,,,,,switch,number,numSwt,d,0.894,Hi,,,,,,5,,,,,,,,high,22,0,22,0,1,,,,,,,,,
292906,2022-09-21_21h26.33.940,vts_reward_expectancy,2022.2.4,MacIntel,59.99880002,Chrome,1440,900,,,,,1,1267,,,,,,,,,,,,,,,,,132,S,circle,1,0,,,,,,,,,,,,,,,,repeat,number,numRpt,d,0.6533,Lo,,,,,,5,,,,,,,,high,23,0,23,0,1,,,,,,,,,
292906,2022-09-21_21h26.33.940,vts_reward_expectancy,2022.2.4,MacIntel,59.99880002,Chrome,1440,900,,,,,0,1267,,,,,,,,,,,,,,,,,125,Y,star,1,0,,,,,,,,,,,,,,,,repeat,number,numRpt,d,0.7756,Hi,,,,,,5,,,,,,,,high,24,0,24,0,1,,,,,,,,,
292906,2022-09-21_21h26.33.940,vts_reward_expectancy,2022.2.4,MacIntel,59.99880002,Chrome,1440,900,,,,,1,1268,,,,,,,,,,,,,,,,,174,H,circle,1,0,,,,,,,,,,,,,,,,repeat,number,numRpt,f,0.6482,Lo,,,,,,5,,,,,,,,high,25,0,25,0,1,,,,,,,,,
292906,2022-09-21_21h26.33.940,vts_reward_expectancy,2022.2.4,MacIntel,59.99880002,Chrome,1440,900,,,,,0,1268,,,,,,,,,,,,,,,,,181,D,star,1,0,,,,,,,,,,,,,,,,repeat,number,numRpt,f,0.7482,Hi,,,,,,5,,,,,,,,high,26,0,26,0,1,,,,,,,,,
292906,2022-09-21_21h26.33.940,vts_reward_expectancy,2022.2.4,MacIntel,59.99880002,Chrome,1440,900,,,,,10,1278,,,,,,,,,,,,,,,,,160,F,circle,1,0,,,,,,,,,,,,,,,,repeat,number,numRpt,f,1.0356,Lo,,,,,,5,,,,,,,,high,27,0,27,0,1,,,,,,,,,
292906,2022-09-21_21h26.33.940,vts_reward_expectancy,2022.2.4,MacIntel,59.99880002,Chrome,1440,900,,,,,1,1279,,,,,,,,,,,,,,,,,167,U,circle,1,0,,,,,,,,,,,,,,,,repeat,number,numRpt,f,0.9817,Lo,,,,,,5,,,,,,,,high,28,0,28,0,1,,,,,,,,,
292906,2022-09-21_21h26.33.940,vts_reward_expectancy,2022.2.4,MacIntel,59.99880002,Chrome,1440,900,,,,,0,1279,,,,,,,,,,,,,,,,,139,S,star,1,0,,,,,,,,,,,,,,,,repeat,number,numRpt,d,0.7004,Hi,,,,,,5,,,,,,,,high,29,0,29,0,1,,,,,,,,,
292906,2022-09-21_21h26.33.940,vts_reward_expectancy,2022.2.4,MacIntel,59.99880002,Chrome,1440,900,,,,,1,1280,,,,,,,,,,,,,,,,,132,B,circle,1,0,,,,,,,,,,,,,,,,switch,letter,lettSwt,j,1.5971,Lo,,,,,,5,,,,,,,,high,30,0,30,0,1,,,,,,,,,
292906,2022-09-21_21h26.33.940,vts_reward_expectancy,2022.2.4,MacIntel,59.99880002,Chrome,1440,900,,,,,0,1280,,,,,,,,,,,,,,,,,146,W,star,1,0,,,,,,,,,,,,,,,,switch,number,numSwt,d,0.8094,Hi,,,,,,5,,,,,,,,high,31,0,31,0,1,,,,,,,,,
292906,2022-09-21_21h26.33.940,vts_reward_expectancy,2022.2.4,MacIntel,59.99880002,Chrome,1440,900,,,,,,,,,,,,,,,,,,,,,,,,,,,,,,,,,,,,,,,,,,,,,,,,,,,,,,6,,,,,,,,,,,,,,"press d if number less than 153, press f if the number is higher than 153, press j if letter closer to a, press k if letter closer to z",1,,4,3,,2,1440,900
