participant,date,expName,psychopyVersion,OS,frameRate,browser,xResolution,yResolution,key_resp.keys,key_resp.rt,training_resp.keys,training_resp.rt,points_trial,points_cumul,trainBlock,training.thisRepN,training.thisTrialN,training.thisN,training.thisIndex,training.ran,LTriangleOpac,LCircleOpac,LHexagonOpac,LStarOpac,RTriangleOpac,RCircleOpac,RHexagonOpac,RStarOpac,LShape_ID,RShape_ID,curr_topStim,curr_bottStim,curr_shape,acc,E1,target_resp_prac1.keys,pracBlock,task1_prac_trials.thisRepN,task1_prac_trials.thisTrialN,task1_prac_trials.thisN,task1_prac_trials.thisIndex,task1_prac_trials.ran,target_resp_prac1.rt,target_resp_prac2.keys,target_resp_prac2.rt,task2_praac_trials.thisRepN,task2_praac_trials.thisTrialN,task2_praac_trials.thisN,task2_praac_trials.thisIndex,task2_praac_trials.ran,alt,task,condition,target_resp.keys,target_resp.rt,rewCond,vts_practice_trials.thisRepN,vts_practice_trials.thisTrialN,vts_practice_trials.thisN,vts_practice_trials.thisIndex,vts_practice_trials.ran,blockNum,trials_norew.thisRepN,trials_norew.thisTrialN,trials_norew.thisN,trials_norew.thisIndex,trials_norew.ran,key_resp_2.keys,key_resp_2.rt,rewExpect,trials_rew.thisRepN,trials_rew.thisTrialN,trials_rew.thisN,trials_rew.thisIndex,trials_rew.ran,Q1,Q2,Q2_text,Q3,Q4,Q5_text,Q5,xRes,yRes
297775,2022-09-30_15h25.50.596,vts_reward_expectancy,2022.2.4,MacIntel,59.99880002,Chrome,1440,900,,,,,,,,,,,,,,,,,,,,,,,,,,,,,,,,,,,,,,,,,,,,,,,,,,,,,,,,,,,,,,,,,,,,,,,,,,,,
297775,2022-09-30_15h25.50.596,vts_reward_expectancy,2022.2.4,MacIntel,59.99880002,Chrome,1440,900,space,1.267,,,,,,,,,,,,,,,,,,,,,,,,,,,,,,,,,,,,,,,,,,,,,,,,,,,,,,,,,,,,,,,,,,,,,,,,,,
297775,2022-09-30_15h25.50.596,vts_reward_expectancy,2022.2.4,MacIntel,59.99880002,Chrome,1440,900,,,,,,,,,,,,,,,,,,,,,,,,,,,,,,,,,,,,,,,,,,,,,,,,,,,,,,,,,,,,,,,,,,,,,,,,,,,,
297775,2022-09-30_15h25.50.596,vts_reward_expectancy,2022.2.4,MacIntel,59.99880002,Chrome,1440,900,,,a,5.3421,10,10,0,0,0,0,0,1,1,0,0,0,0,1,0,0,triangle,circle,,,,,,,,,,,,,,,,,,,,,,,,,,,,,,,,,,,,,,,,,,,,,,,,,,,,,,
297775,2022-09-30_15h25.50.596,vts_reward_expectancy,2022.2.4,MacIntel,59.99880002,Chrome,1440,900,,,l,0.6161,10,20,0,0,1,1,8,1,0,0,1,0,0,0,0,1,hexagon,star,,,,,,,,,,,,,,,,,,,,,,,,,,,,,,,,,,,,,,,,,,,,,,,,,,,,,,
297775,2022-09-30_15h25.50.596,vts_reward_expectancy,2022.2.4,MacIntel,59.99880002,Chrome,1440,900,,,a,0.4935,1,21,0,0,2,2,6,1,0,0,1,0,1,0,0,0,hexagon,triangle,,,,,,,,,,,,,,,,,,,,,,,,,,,,,,,,,,,,,,,,,,,,,,,,,,,,,,
297775,2022-09-30_15h25.50.596,vts_reward_expectancy,2022.2.4,MacIntel,59.99880002,Chrome,1440,900,,,l,0.4328,1,22,0,0,3,3,4,1,0,1,0,0,0,0,1,0,circle,hexagon,,,,,,,,,,,,,,,,,,,,,,,,,,,,,,,,,,,,,,,,,,,,,,,,,,,,,,
297775,2022-09-30_15h25.50.596,vts_reward_expectancy,2022.2.4,MacIntel,59.99880002,Chrome,1440,900,,,a,0.4661,10,32,0,0,4,4,3,1,0,1,0,0,1,0,0,0,circle,triangle,,,,,,,,,,,,,,,,,,,,,,,,,,,,,,,,,,,,,,,,,,,,,,,,,,,,,,
297775,2022-09-30_15h25.50.596,vts_reward_expectancy,2022.2.4,MacIntel,59.99880002,Chrome,1440,900,,,a,0.5496,10,42,0,0,5,5,9,1,0,0,0,1,1,0,0,0,star,triangle,,,,,,,,,,,,,,,,,,,,,,,,,,,,,,,,,,,,,,,,,,,,,,,,,,,,,,
297775,2022-09-30_15h25.50.596,vts_reward_expectancy,2022.2.4,MacIntel,59.99880002,Chrome,1440,900,,,l,0.5204,10,52,0,0,6,6,2,1,1,0,0,0,0,0,0,1,triangle,star,,,,,,,,,,,,,,,,,,,,,,,,,,,,,,,,,,,,,,,,,,,,,,,,,,,,,,
297775,2022-09-30_15h25.50.596,vts_reward_expectancy,2022.2.4,MacIntel,59.99880002,Chrome,1440,900,,,l,0.5518,1,53,0,0,7,7,1,1,1,0,0,0,0,0,1,0,triangle,hexagon,,,,,,,,,,,,,,,,,,,,,,,,,,,,,,,,,,,,,,,,,,,,,,,,,,,,,,
297775,2022-09-30_15h25.50.596,vts_reward_expectancy,2022.2.4,MacIntel,59.99880002,Chrome,1440,900,,,a,0.3818,1,54,0,0,8,8,7,1,0,0,1,0,0,1,0,0,hexagon,circle,,,,,,,,,,,,,,,,,,,,,,,,,,,,,,,,,,,,,,,,,,,,,,,,,,,,,,
297775,2022-09-30_15h25.50.596,vts_reward_expectancy,2022.2.4,MacIntel,59.99880002,Chrome,1440,900,,,a,0.5492,1,55,0,0,9,9,10,1,0,0,0,1,0,1,0,0,star ,circle,,,,,,,,,,,,,,,,,,,,,,,,,,,,,,,,,,,,,,,,,,,,,,,,,,,,,,
297775,2022-09-30_15h25.50.596,vts_reward_expectancy,2022.2.4,MacIntel,59.99880002,Chrome,1440,900,,,a,0.4858,1,56,0,0,10,10,11,1,0,0,0,1,0,0,1,0,star,hexagon,,,,,,,,,,,,,,,,,,,,,,,,,,,,,,,,,,,,,,,,,,,,,,,,,,,,,,
297775,2022-09-30_15h25.50.596,vts_reward_expectancy,2022.2.4,MacIntel,59.99880002,Chrome,1440,900,,,l,0.4473,10,66,0,0,11,11,5,1,0,1,0,0,0,0,0,1,circle,star,,,,,,,,,,,,,,,,,,,,,,,,,,,,,,,,,,,,,,,,,,,,,,,,,,,,,,
297775,2022-09-30_15h25.50.596,vts_reward_expectancy,2022.2.4,MacIntel,59.99880002,Chrome,1440,900,,,a,0.5329,1,67,0,1,0,12,0,1,1,0,0,0,0,1,0,0,triangle,circle,,,,,,,,,,,,,,,,,,,,,,,,,,,,,,,,,,,,,,,,,,,,,,,,,,,,,,
297775,2022-09-30_15h25.50.596,vts_reward_expectancy,2022.2.4,MacIntel,59.99880002,Chrome,1440,900,,,l,0.55,10,77,0,1,1,13,2,1,1,0,0,0,0,0,0,1,triangle,star,,,,,,,,,,,,,,,,,,,,,,,,,,,,,,,,,,,,,,,,,,,,,,,,,,,,,,
297775,2022-09-30_15h25.50.596,vts_reward_expectancy,2022.2.4,MacIntel,59.99880002,Chrome,1440,900,,,l,0.5669,10,87,0,1,2,14,5,1,0,1,0,0,0,0,0,1,circle,star,,,,,,,,,,,,,,,,,,,,,,,,,,,,,,,,,,,,,,,,,,,,,,,,,,,,,,
297775,2022-09-30_15h25.50.596,vts_reward_expectancy,2022.2.4,MacIntel,59.99880002,Chrome,1440,900,,,a,0.974,10,97,0,1,3,15,3,1,0,1,0,0,1,0,0,0,circle,triangle,,,,,,,,,,,,,,,,,,,,,,,,,,,,,,,,,,,,,,,,,,,,,,,,,,,,,,
297775,2022-09-30_15h25.50.596,vts_reward_expectancy,2022.2.4,MacIntel,59.99880002,Chrome,1440,900,,,a,0.8352,1,98,0,1,4,16,11,1,0,0,0,1,0,0,1,0,star,hexagon,,,,,,,,,,,,,,,,,,,,,,,,,,,,,,,,,,,,,,,,,,,,,,,,,,,,,,
297775,2022-09-30_15h25.50.596,vts_reward_expectancy,2022.2.4,MacIntel,59.99880002,Chrome,1440,900,,,a,0.6832,1,99,0,1,5,17,7,1,0,0,1,0,0,1,0,0,hexagon,circle,,,,,,,,,,,,,,,,,,,,,,,,,,,,,,,,,,,,,,,,,,,,,,,,,,,,,,
297775,2022-09-30_15h25.50.596,vts_reward_expectancy,2022.2.4,MacIntel,59.99880002,Chrome,1440,900,,,l,1.006,1,100,0,1,6,18,1,1,1,0,0,0,0,0,1,0,triangle,hexagon,,,,,,,,,,,,,,,,,,,,,,,,,,,,,,,,,,,,,,,,,,,,,,,,,,,,,,
297775,2022-09-30_15h25.50.596,vts_reward_expectancy,2022.2.4,MacIntel,59.99880002,Chrome,1440,900,,,a,0.6779,10,110,0,1,7,19,4,1,0,1,0,0,0,0,1,0,circle,hexagon,,,,,,,,,,,,,,,,,,,,,,,,,,,,,,,,,,,,,,,,,,,,,,,,,,,,,,
297775,2022-09-30_15h25.50.596,vts_reward_expectancy,2022.2.4,MacIntel,59.99880002,Chrome,1440,900,,,a,0.4831,10,120,0,1,8,20,10,1,0,0,0,1,0,1,0,0,star ,circle,,,,,,,,,,,,,,,,,,,,,,,,,,,,,,,,,,,,,,,,,,,,,,,,,,,,,,
297775,2022-09-30_15h25.50.596,vts_reward_expectancy,2022.2.4,MacIntel,59.99880002,Chrome,1440,900,,,l,0.5019,1,121,0,1,9,21,8,1,0,0,1,0,0,0,0,1,hexagon,star,,,,,,,,,,,,,,,,,,,,,,,,,,,,,,,,,,,,,,,,,,,,,,,,,,,,,,
297775,2022-09-30_15h25.50.596,vts_reward_expectancy,2022.2.4,MacIntel,59.99880002,Chrome,1440,900,,,a,0.382,10,131,0,1,10,22,6,1,0,0,1,0,1,0,0,0,hexagon,triangle,,,,,,,,,,,,,,,,,,,,,,,,,,,,,,,,,,,,,,,,,,,,,,,,,,,,,,
297775,2022-09-30_15h25.50.596,vts_reward_expectancy,2022.2.4,MacIntel,59.99880002,Chrome,1440,900,,,l,0.4666,10,141,0,1,11,23,9,1,0,0,0,1,1,0,0,0,star,triangle,,,,,,,,,,,,,,,,,,,,,,,,,,,,,,,,,,,,,,,,,,,,,,,,,,,,,,
297775,2022-09-30_15h25.50.596,vts_reward_expectancy,2022.2.4,MacIntel,59.99880002,Chrome,1440,900,,,a,0.4157,10,151,0,2,0,24,11,1,0,0,0,1,0,0,1,0,star,hexagon,,,,,,,,,,,,,,,,,,,,,,,,,,,,,,,,,,,,,,,,,,,,,,,,,,,,,,
297775,2022-09-30_15h25.50.596,vts_reward_expectancy,2022.2.4,MacIntel,59.99880002,Chrome,1440,900,,,a,0.4987,10,161,0,2,1,25,10,1,0,0,0,1,0,1,0,0,star ,circle,,,,,,,,,,,,,,,,,,,,,,,,,,,,,,,,,,,,,,,,,,,,,,,,,,,,,,
297775,2022-09-30_15h25.50.596,vts_reward_expectancy,2022.2.4,MacIntel,59.99880002,Chrome,1440,900,,,l,0.4823,10,171,0,2,2,26,8,1,0,0,1,0,0,0,0,1,hexagon,star,,,,,,,,,,,,,,,,,,,,,,,,,,,,,,,,,,,,,,,,,,,,,,,,,,,,,,
297775,2022-09-30_15h25.50.596,vts_reward_expectancy,2022.2.4,MacIntel,59.99880002,Chrome,1440,900,,,a,0.5655,1,172,0,2,3,27,1,1,1,0,0,0,0,0,1,0,triangle,hexagon,,,,,,,,,,,,,,,,,,,,,,,,,,,,,,,,,,,,,,,,,,,,,,,,,,,,,,
297775,2022-09-30_15h25.50.596,vts_reward_expectancy,2022.2.4,MacIntel,59.99880002,Chrome,1440,900,,,a,0.4885,1,173,0,2,4,28,6,1,0,0,1,0,1,0,0,0,hexagon,triangle,,,,,,,,,,,,,,,,,,,,,,,,,,,,,,,,,,,,,,,,,,,,,,,,,,,,,,
297775,2022-09-30_15h25.50.596,vts_reward_expectancy,2022.2.4,MacIntel,59.99880002,Chrome,1440,900,,,l,0.4657,1,174,0,2,5,29,3,1,0,1,0,0,1,0,0,0,circle,triangle,,,,,,,,,,,,,,,,,,,,,,,,,,,,,,,,,,,,,,,,,,,,,,,,,,,,,,
297775,2022-09-30_15h25.50.596,vts_reward_expectancy,2022.2.4,MacIntel,59.99880002,Chrome,1440,900,,,l,0.615,10,184,0,2,6,30,7,1,0,0,1,0,0,1,0,0,hexagon,circle,,,,,,,,,,,,,,,,,,,,,,,,,,,,,,,,,,,,,,,,,,,,,,,,,,,,,,
297775,2022-09-30_15h25.50.596,vts_reward_expectancy,2022.2.4,MacIntel,59.99880002,Chrome,1440,900,,,l,0.4819,10,194,0,2,7,31,0,1,1,0,0,0,0,1,0,0,triangle,circle,,,,,,,,,,,,,,,,,,,,,,,,,,,,,,,,,,,,,,,,,,,,,,,,,,,,,,
297775,2022-09-30_15h25.50.596,vts_reward_expectancy,2022.2.4,MacIntel,59.99880002,Chrome,1440,900,,,a,0.5648,1,195,0,2,8,32,9,1,0,0,0,1,1,0,0,0,star,triangle,,,,,,,,,,,,,,,,,,,,,,,,,,,,,,,,,,,,,,,,,,,,,,,,,,,,,,
297775,2022-09-30_15h25.50.596,vts_reward_expectancy,2022.2.4,MacIntel,59.99880002,Chrome,1440,900,,,l,0.4515,1,196,0,2,9,33,5,1,0,1,0,0,0,0,0,1,circle,star,,,,,,,,,,,,,,,,,,,,,,,,,,,,,,,,,,,,,,,,,,,,,,,,,,,,,,
297775,2022-09-30_15h25.50.596,vts_reward_expectancy,2022.2.4,MacIntel,59.99880002,Chrome,1440,900,,,a,0.77,10,206,0,2,10,34,4,1,0,1,0,0,0,0,1,0,circle,hexagon,,,,,,,,,,,,,,,,,,,,,,,,,,,,,,,,,,,,,,,,,,,,,,,,,,,,,,
297775,2022-09-30_15h25.50.596,vts_reward_expectancy,2022.2.4,MacIntel,59.99880002,Chrome,1440,900,,,l,0.5826,1,207,0,2,11,35,2,1,1,0,0,0,0,0,0,1,triangle,star,,,,,,,,,,,,,,,,,,,,,,,,,,,,,,,,,,,,,,,,,,,,,,,,,,,,,,
297775,2022-09-30_15h25.50.596,vts_reward_expectancy,2022.2.4,MacIntel,59.99880002,Chrome,1440,900,,,l,1.7514,1,208,1,0,0,0,6,1,0,0,1,0,1,0,0,0,hexagon,triangle,,,,,,,,,,,,,,,,,,,,,,,,,,,,,,,,,,,,,,,,,,,,,,,,,,,,,,
297775,2022-09-30_15h25.50.596,vts_reward_expectancy,2022.2.4,MacIntel,59.99880002,Chrome,1440,900,,,a,0.7689,10,218,1,0,1,1,9,1,0,0,0,1,1,0,0,0,star,triangle,,,,,,,,,,,,,,,,,,,,,,,,,,,,,,,,,,,,,,,,,,,,,,,,,,,,,,
297775,2022-09-30_15h25.50.596,vts_reward_expectancy,2022.2.4,MacIntel,59.99880002,Chrome,1440,900,,,l,0.5998,10,228,1,0,2,2,0,1,1,0,0,0,0,1,0,0,triangle,circle,,,,,,,,,,,,,,,,,,,,,,,,,,,,,,,,,,,,,,,,,,,,,,,,,,,,,,
297775,2022-09-30_15h25.50.596,vts_reward_expectancy,2022.2.4,MacIntel,59.99880002,Chrome,1440,900,,,a,0.4148,10,238,1,0,3,3,10,1,0,0,0,1,0,1,0,0,star ,circle,,,,,,,,,,,,,,,,,,,,,,,,,,,,,,,,,,,,,,,,,,,,,,,,,,,,,,
297775,2022-09-30_15h25.50.596,vts_reward_expectancy,2022.2.4,MacIntel,59.99880002,Chrome,1440,900,,,l,0.4664,1,239,1,0,4,4,4,1,0,1,0,0,0,0,1,0,circle,hexagon,,,,,,,,,,,,,,,,,,,,,,,,,,,,,,,,,,,,,,,,,,,,,,,,,,,,,,
297775,2022-09-30_15h25.50.596,vts_reward_expectancy,2022.2.4,MacIntel,59.99880002,Chrome,1440,900,,,l,0.4828,10,249,1,0,5,5,8,1,0,0,1,0,0,0,0,1,hexagon,star,,,,,,,,,,,,,,,,,,,,,,,,,,,,,,,,,,,,,,,,,,,,,,,,,,,,,,
297775,2022-09-30_15h25.50.596,vts_reward_expectancy,2022.2.4,MacIntel,59.99880002,Chrome,1440,900,,,a,0.5717,10,259,1,0,6,6,1,1,1,0,0,0,0,0,1,0,triangle,hexagon,,,,,,,,,,,,,,,,,,,,,,,,,,,,,,,,,,,,,,,,,,,,,,,,,,,,,,
297775,2022-09-30_15h25.50.596,vts_reward_expectancy,2022.2.4,MacIntel,59.99880002,Chrome,1440,900,,,l,0.4372,10,269,1,0,7,7,5,1,0,1,0,0,0,0,0,1,circle,star,,,,,,,,,,,,,,,,,,,,,,,,,,,,,,,,,,,,,,,,,,,,,,,,,,,,,,
297775,2022-09-30_15h25.50.596,vts_reward_expectancy,2022.2.4,MacIntel,59.99880002,Chrome,1440,900,,,a,0.4332,1,270,1,0,8,8,11,1,0,0,0,1,0,0,1,0,star,hexagon,,,,,,,,,,,,,,,,,,,,,,,,,,,,,,,,,,,,,,,,,,,,,,,,,,,,,,
297775,2022-09-30_15h25.50.596,vts_reward_expectancy,2022.2.4,MacIntel,59.99880002,Chrome,1440,900,,,l,0.7481,10,280,1,0,9,9,7,1,0,0,1,0,0,1,0,0,hexagon,circle,,,,,,,,,,,,,,,,,,,,,,,,,,,,,,,,,,,,,,,,,,,,,,,,,,,,,,
297775,2022-09-30_15h25.50.596,vts_reward_expectancy,2022.2.4,MacIntel,59.99880002,Chrome,1440,900,,,l,0.5172,10,290,1,0,10,10,2,1,1,0,0,0,0,0,0,1,triangle,star,,,,,,,,,,,,,,,,,,,,,,,,,,,,,,,,,,,,,,,,,,,,,,,,,,,,,,
297775,2022-09-30_15h25.50.596,vts_reward_expectancy,2022.2.4,MacIntel,59.99880002,Chrome,1440,900,,,l,0.9982,1,291,1,0,11,11,3,1,0,1,0,0,1,0,0,0,circle,triangle,,,,,,,,,,,,,,,,,,,,,,,,,,,,,,,,,,,,,,,,,,,,,,,,,,,,,,
297775,2022-09-30_15h25.50.596,vts_reward_expectancy,2022.2.4,MacIntel,59.99880002,Chrome,1440,900,,,l,0.6808,1,292,1,1,0,12,5,1,0,1,0,0,0,0,0,1,circle,star,,,,,,,,,,,,,,,,,,,,,,,,,,,,,,,,,,,,,,,,,,,,,,,,,,,,,,
297775,2022-09-30_15h25.50.596,vts_reward_expectancy,2022.2.4,MacIntel,59.99880002,Chrome,1440,900,,,l,0.6369,1,293,1,1,1,13,1,1,1,0,0,0,0,0,1,0,triangle,hexagon,,,,,,,,,,,,,,,,,,,,,,,,,,,,,,,,,,,,,,,,,,,,,,,,,,,,,,
297775,2022-09-30_15h25.50.596,vts_reward_expectancy,2022.2.4,MacIntel,59.99880002,Chrome,1440,900,,,a,1.0648,1,294,1,1,2,14,10,1,0,0,0,1,0,1,0,0,star ,circle,,,,,,,,,,,,,,,,,,,,,,,,,,,,,,,,,,,,,,,,,,,,,,,,,,,,,,
297775,2022-09-30_15h25.50.596,vts_reward_expectancy,2022.2.4,MacIntel,59.99880002,Chrome,1440,900,,,a,0.549,10,304,1,1,3,15,9,1,0,0,0,1,1,0,0,0,star,triangle,,,,,,,,,,,,,,,,,,,,,,,,,,,,,,,,,,,,,,,,,,,,,,,,,,,,,,
297775,2022-09-30_15h25.50.596,vts_reward_expectancy,2022.2.4,MacIntel,59.99880002,Chrome,1440,900,,,l,0.5822,10,314,1,1,4,16,2,1,1,0,0,0,0,0,0,1,triangle,star,,,,,,,,,,,,,,,,,,,,,,,,,,,,,,,,,,,,,,,,,,,,,,,,,,,,,,
297775,2022-09-30_15h25.50.596,vts_reward_expectancy,2022.2.4,MacIntel,59.99880002,Chrome,1440,900,,,l,0.8341,1,315,1,1,5,17,0,1,1,0,0,0,0,1,0,0,triangle,circle,,,,,,,,,,,,,,,,,,,,,,,,,,,,,,,,,,,,,,,,,,,,,,,,,,,,,,
297775,2022-09-30_15h25.50.596,vts_reward_expectancy,2022.2.4,MacIntel,59.99880002,Chrome,1440,900,,,l,0.9986,1,316,1,1,6,18,8,1,0,0,1,0,0,0,0,1,hexagon,star,,,,,,,,,,,,,,,,,,,,,,,,,,,,,,,,,,,,,,,,,,,,,,,,,,,,,,
297775,2022-09-30_15h25.50.596,vts_reward_expectancy,2022.2.4,MacIntel,59.99880002,Chrome,1440,900,,,l,0.6332,10,326,1,1,7,19,7,1,0,0,1,0,0,1,0,0,hexagon,circle,,,,,,,,,,,,,,,,,,,,,,,,,,,,,,,,,,,,,,,,,,,,,,,,,,,,,,
297775,2022-09-30_15h25.50.596,vts_reward_expectancy,2022.2.4,MacIntel,59.99880002,Chrome,1440,900,,,a,1.067,10,336,1,1,8,20,4,1,0,1,0,0,0,0,1,0,circle,hexagon,,,,,,,,,,,,,,,,,,,,,,,,,,,,,,,,,,,,,,,,,,,,,,,,,,,,,,
297775,2022-09-30_15h25.50.596,vts_reward_expectancy,2022.2.4,MacIntel,59.99880002,Chrome,1440,900,,,l,0.5156,1,337,1,1,9,21,6,1,0,0,1,0,1,0,0,0,hexagon,triangle,,,,,,,,,,,,,,,,,,,,,,,,,,,,,,,,,,,,,,,,,,,,,,,,,,,,,,
297775,2022-09-30_15h25.50.596,vts_reward_expectancy,2022.2.4,MacIntel,59.99880002,Chrome,1440,900,,,a,0.4993,10,347,1,1,10,22,11,1,0,0,0,1,0,0,1,0,star,hexagon,,,,,,,,,,,,,,,,,,,,,,,,,,,,,,,,,,,,,,,,,,,,,,,,,,,,,,
297775,2022-09-30_15h25.50.596,vts_reward_expectancy,2022.2.4,MacIntel,59.99880002,Chrome,1440,900,,,a,0.6387,10,357,1,1,11,23,3,1,0,1,0,0,1,0,0,0,circle,triangle,,,,,,,,,,,,,,,,,,,,,,,,,,,,,,,,,,,,,,,,,,,,,,,,,,,,,,
297775,2022-09-30_15h25.50.596,vts_reward_expectancy,2022.2.4,MacIntel,59.99880002,Chrome,1440,900,,,l,0.4736,1,358,1,2,0,24,8,1,0,0,1,0,0,0,0,1,hexagon,star,,,,,,,,,,,,,,,,,,,,,,,,,,,,,,,,,,,,,,,,,,,,,,,,,,,,,,
297775,2022-09-30_15h25.50.596,vts_reward_expectancy,2022.2.4,MacIntel,59.99880002,Chrome,1440,900,,,l,0.8676,1,359,1,2,1,25,6,1,0,0,1,0,1,0,0,0,hexagon,triangle,,,,,,,,,,,,,,,,,,,,,,,,,,,,,,,,,,,,,,,,,,,,,,,,,,,,,,
297775,2022-09-30_15h25.50.596,vts_reward_expectancy,2022.2.4,MacIntel,59.99880002,Chrome,1440,900,,,l,0.7989,1,360,1,2,2,26,5,1,0,1,0,0,0,0,0,1,circle,star,,,,,,,,,,,,,,,,,,,,,,,,,,,,,,,,,,,,,,,,,,,,,,,,,,,,,,
297775,2022-09-30_15h25.50.596,vts_reward_expectancy,2022.2.4,MacIntel,59.99880002,Chrome,1440,900,,,l,0.7164,10,370,1,2,3,27,0,1,1,0,0,0,0,1,0,0,triangle,circle,,,,,,,,,,,,,,,,,,,,,,,,,,,,,,,,,,,,,,,,,,,,,,,,,,,,,,
297775,2022-09-30_15h25.50.596,vts_reward_expectancy,2022.2.4,MacIntel,59.99880002,Chrome,1440,900,,,l,0.5899,1,371,1,2,4,28,2,1,1,0,0,0,0,0,0,1,triangle,star,,,,,,,,,,,,,,,,,,,,,,,,,,,,,,,,,,,,,,,,,,,,,,,,,,,,,,
297775,2022-09-30_15h25.50.596,vts_reward_expectancy,2022.2.4,MacIntel,59.99880002,Chrome,1440,900,,,a,0.5864,10,381,1,2,5,29,11,1,0,0,0,1,0,0,1,0,star,hexagon,,,,,,,,,,,,,,,,,,,,,,,,,,,,,,,,,,,,,,,,,,,,,,,,,,,,,,
297775,2022-09-30_15h25.50.596,vts_reward_expectancy,2022.2.4,MacIntel,59.99880002,Chrome,1440,900,,,a,1.3503,10,391,1,2,6,30,1,1,1,0,0,0,0,0,1,0,triangle,hexagon,,,,,,,,,,,,,,,,,,,,,,,,,,,,,,,,,,,,,,,,,,,,,,,,,,,,,,
297775,2022-09-30_15h25.50.596,vts_reward_expectancy,2022.2.4,MacIntel,59.99880002,Chrome,1440,900,,,l,0.8866,10,401,1,2,7,31,10,1,0,0,0,1,0,1,0,0,star ,circle,,,,,,,,,,,,,,,,,,,,,,,,,,,,,,,,,,,,,,,,,,,,,,,,,,,,,,
297775,2022-09-30_15h25.50.596,vts_reward_expectancy,2022.2.4,MacIntel,59.99880002,Chrome,1440,900,,,a,0.9226,10,411,1,2,8,32,3,1,0,1,0,0,1,0,0,0,circle,triangle,,,,,,,,,,,,,,,,,,,,,,,,,,,,,,,,,,,,,,,,,,,,,,,,,,,,,,
297775,2022-09-30_15h25.50.596,vts_reward_expectancy,2022.2.4,MacIntel,59.99880002,Chrome,1440,900,,,a,1.0983,10,421,1,2,9,33,4,1,0,1,0,0,0,0,1,0,circle,hexagon,,,,,,,,,,,,,,,,,,,,,,,,,,,,,,,,,,,,,,,,,,,,,,,,,,,,,,
297775,2022-09-30_15h25.50.596,vts_reward_expectancy,2022.2.4,MacIntel,59.99880002,Chrome,1440,900,,,l,0.8155,10,431,1,2,10,34,7,1,0,0,1,0,0,1,0,0,hexagon,circle,,,,,,,,,,,,,,,,,,,,,,,,,,,,,,,,,,,,,,,,,,,,,,,,,,,,,,
297775,2022-09-30_15h25.50.596,vts_reward_expectancy,2022.2.4,MacIntel,59.99880002,Chrome,1440,900,,,l,1.2549,1,432,1,2,11,35,9,1,0,0,0,1,1,0,0,0,star,triangle,,,,,,,,,,,,,,,,,,,,,,,,,,,,,,,,,,,,,,,,,,,,,,,,,,,,,,
297775,2022-09-30_15h25.50.596,vts_reward_expectancy,2022.2.4,MacIntel,59.99880002,Chrome,1440,900,,,l,2.0332,10,442,2,0,0,0,10,1,0,0,0,1,0,1,0,0,star ,circle,,,,,,,,,,,,,,,,,,,,,,,,,,,,,,,,,,,,,,,,,,,,,,,,,,,,,,
297775,2022-09-30_15h25.50.596,vts_reward_expectancy,2022.2.4,MacIntel,59.99880002,Chrome,1440,900,,,a,0.5181,1,443,2,0,1,1,5,1,0,1,0,0,0,0,0,1,circle,star,,,,,,,,,,,,,,,,,,,,,,,,,,,,,,,,,,,,,,,,,,,,,,,,,,,,,,
297775,2022-09-30_15h25.50.596,vts_reward_expectancy,2022.2.4,MacIntel,59.99880002,Chrome,1440,900,,,a,0.7682,10,453,2,0,2,2,4,1,0,1,0,0,0,0,1,0,circle,hexagon,,,,,,,,,,,,,,,,,,,,,,,,,,,,,,,,,,,,,,,,,,,,,,,,,,,,,,
297775,2022-09-30_15h25.50.596,vts_reward_expectancy,2022.2.4,MacIntel,59.99880002,Chrome,1440,900,,,l,1.034,10,463,2,0,3,3,8,1,0,0,1,0,0,0,0,1,hexagon,star,,,,,,,,,,,,,,,,,,,,,,,,,,,,,,,,,,,,,,,,,,,,,,,,,,,,,,
297775,2022-09-30_15h25.50.596,vts_reward_expectancy,2022.2.4,MacIntel,59.99880002,Chrome,1440,900,,,l,0.7824,10,473,2,0,4,4,0,1,1,0,0,0,0,1,0,0,triangle,circle,,,,,,,,,,,,,,,,,,,,,,,,,,,,,,,,,,,,,,,,,,,,,,,,,,,,,,
297775,2022-09-30_15h25.50.596,vts_reward_expectancy,2022.2.4,MacIntel,59.99880002,Chrome,1440,900,,,a,0.7674,1,474,2,0,5,5,11,1,0,0,0,1,0,0,1,0,star,hexagon,,,,,,,,,,,,,,,,,,,,,,,,,,,,,,,,,,,,,,,,,,,,,,,,,,,,,,
297775,2022-09-30_15h25.50.596,vts_reward_expectancy,2022.2.4,MacIntel,59.99880002,Chrome,1440,900,,,a,0.9835,10,484,2,0,6,6,1,1,1,0,0,0,0,0,1,0,triangle,hexagon,,,,,,,,,,,,,,,,,,,,,,,,,,,,,,,,,,,,,,,,,,,,,,,,,,,,,,
297775,2022-09-30_15h25.50.596,vts_reward_expectancy,2022.2.4,MacIntel,59.99880002,Chrome,1440,900,,,a,0.7666,1,485,2,0,7,7,9,1,0,0,0,1,1,0,0,0,star,triangle,,,,,,,,,,,,,,,,,,,,,,,,,,,,,,,,,,,,,,,,,,,,,,,,,,,,,,
297775,2022-09-30_15h25.50.596,vts_reward_expectancy,2022.2.4,MacIntel,59.99880002,Chrome,1440,900,,,l,0.7832,1,486,2,0,8,8,6,1,0,0,1,0,1,0,0,0,hexagon,triangle,,,,,,,,,,,,,,,,,,,,,,,,,,,,,,,,,,,,,,,,,,,,,,,,,,,,,,
297775,2022-09-30_15h25.50.596,vts_reward_expectancy,2022.2.4,MacIntel,59.99880002,Chrome,1440,900,,,a,0.632,10,496,2,0,9,9,3,1,0,1,0,0,1,0,0,0,circle,triangle,,,,,,,,,,,,,,,,,,,,,,,,,,,,,,,,,,,,,,,,,,,,,,,,,,,,,,
297775,2022-09-30_15h25.50.596,vts_reward_expectancy,2022.2.4,MacIntel,59.99880002,Chrome,1440,900,,,l,0.5993,10,506,2,0,10,10,7,1,0,0,1,0,0,1,0,0,hexagon,circle,,,,,,,,,,,,,,,,,,,,,,,,,,,,,,,,,,,,,,,,,,,,,,,,,,,,,,
297775,2022-09-30_15h25.50.596,vts_reward_expectancy,2022.2.4,MacIntel,59.99880002,Chrome,1440,900,,,a,1.4024,1,507,2,0,11,11,2,1,1,0,0,0,0,0,0,1,triangle,star,,,,,,,,,,,,,,,,,,,,,,,,,,,,,,,,,,,,,,,,,,,,,,,,,,,,,,
297775,2022-09-30_15h25.50.596,vts_reward_expectancy,2022.2.4,MacIntel,59.99880002,Chrome,1440,900,,,l,0.6705,1,508,2,1,0,12,1,1,1,0,0,0,0,0,1,0,triangle,hexagon,,,,,,,,,,,,,,,,,,,,,,,,,,,,,,,,,,,,,,,,,,,,,,,,,,,,,,
297775,2022-09-30_15h25.50.596,vts_reward_expectancy,2022.2.4,MacIntel,59.99880002,Chrome,1440,900,,,l,1.6834,10,518,2,1,1,13,0,1,1,0,0,0,0,1,0,0,triangle,circle,,,,,,,,,,,,,,,,,,,,,,,,,,,,,,,,,,,,,,,,,,,,,,,,,,,,,,
297775,2022-09-30_15h25.50.596,vts_reward_expectancy,2022.2.4,MacIntel,59.99880002,Chrome,1440,900,,,a,0.867,10,528,2,1,2,14,11,1,0,0,0,1,0,0,1,0,star,hexagon,,,,,,,,,,,,,,,,,,,,,,,,,,,,,,,,,,,,,,,,,,,,,,,,,,,,,,
297775,2022-09-30_15h25.50.596,vts_reward_expectancy,2022.2.4,MacIntel,59.99880002,Chrome,1440,900,,,l,1.2833,1,529,2,1,3,15,6,1,0,0,1,0,1,0,0,0,hexagon,triangle,,,,,,,,,,,,,,,,,,,,,,,,,,,,,,,,,,,,,,,,,,,,,,,,,,,,,,
297775,2022-09-30_15h25.50.596,vts_reward_expectancy,2022.2.4,MacIntel,59.99880002,Chrome,1440,900,,,a,0.9493,1,530,2,1,4,16,3,1,0,1,0,0,1,0,0,0,circle,triangle,,,,,,,,,,,,,,,,,,,,,,,,,,,,,,,,,,,,,,,,,,,,,,,,,,,,,,
297775,2022-09-30_15h25.50.596,vts_reward_expectancy,2022.2.4,MacIntel,59.99880002,Chrome,1440,900,,,a,1.2349,10,540,2,1,5,17,5,1,0,1,0,0,0,0,0,1,circle,star,,,,,,,,,,,,,,,,,,,,,,,,,,,,,,,,,,,,,,,,,,,,,,,,,,,,,,
297775,2022-09-30_15h25.50.596,vts_reward_expectancy,2022.2.4,MacIntel,59.99880002,Chrome,1440,900,,,l,0.9163,10,550,2,1,6,18,8,1,0,0,1,0,0,0,0,1,hexagon,star,,,,,,,,,,,,,,,,,,,,,,,,,,,,,,,,,,,,,,,,,,,,,,,,,,,,,,
297775,2022-09-30_15h25.50.596,vts_reward_expectancy,2022.2.4,MacIntel,59.99880002,Chrome,1440,900,,,a,0.748,10,560,2,1,7,19,4,1,0,1,0,0,0,0,1,0,circle,hexagon,,,,,,,,,,,,,,,,,,,,,,,,,,,,,,,,,,,,,,,,,,,,,,,,,,,,,,
297775,2022-09-30_15h25.50.596,vts_reward_expectancy,2022.2.4,MacIntel,59.99880002,Chrome,1440,900,,,l,0.7326,10,570,2,1,8,20,7,1,0,0,1,0,0,1,0,0,hexagon,circle,,,,,,,,,,,,,,,,,,,,,,,,,,,,,,,,,,,,,,,,,,,,,,,,,,,,,,
297775,2022-09-30_15h25.50.596,vts_reward_expectancy,2022.2.4,MacIntel,59.99880002,Chrome,1440,900,,,l,1.185,10,580,2,1,9,21,10,1,0,0,0,1,0,1,0,0,star ,circle,,,,,,,,,,,,,,,,,,,,,,,,,,,,,,,,,,,,,,,,,,,,,,,,,,,,,,
297775,2022-09-30_15h25.50.596,vts_reward_expectancy,2022.2.4,MacIntel,59.99880002,Chrome,1440,900,,,l,1.9152,10,590,2,1,10,22,2,1,1,0,0,0,0,0,0,1,triangle,star,,,,,,,,,,,,,,,,,,,,,,,,,,,,,,,,,,,,,,,,,,,,,,,,,,,,,,
297775,2022-09-30_15h25.50.596,vts_reward_expectancy,2022.2.4,MacIntel,59.99880002,Chrome,1440,900,,,a,0.5494,1,591,2,1,11,23,9,1,0,0,0,1,1,0,0,0,star,triangle,,,,,,,,,,,,,,,,,,,,,,,,,,,,,,,,,,,,,,,,,,,,,,,,,,,,,,
297775,2022-09-30_15h25.50.596,vts_reward_expectancy,2022.2.4,MacIntel,59.99880002,Chrome,1440,900,,,l,0.9485,10,601,2,2,0,24,10,1,0,0,0,1,0,1,0,0,star ,circle,,,,,,,,,,,,,,,,,,,,,,,,,,,,,,,,,,,,,,,,,,,,,,,,,,,,,,
297775,2022-09-30_15h25.50.596,vts_reward_expectancy,2022.2.4,MacIntel,59.99880002,Chrome,1440,900,,,a,0.8002,10,611,2,2,1,25,11,1,0,0,0,1,0,0,1,0,star,hexagon,,,,,,,,,,,,,,,,,,,,,,,,,,,,,,,,,,,,,,,,,,,,,,,,,,,,,,
297775,2022-09-30_15h25.50.596,vts_reward_expectancy,2022.2.4,MacIntel,59.99880002,Chrome,1440,900,,,a,0.751,10,621,2,2,2,26,9,1,0,0,0,1,1,0,0,0,star,triangle,,,,,,,,,,,,,,,,,,,,,,,,,,,,,,,,,,,,,,,,,,,,,,,,,,,,,,
297775,2022-09-30_15h25.50.596,vts_reward_expectancy,2022.2.4,MacIntel,59.99880002,Chrome,1440,900,,,l,2.8155,1,622,2,2,3,27,6,1,0,0,1,0,1,0,0,0,hexagon,triangle,,,,,,,,,,,,,,,,,,,,,,,,,,,,,,,,,,,,,,,,,,,,,,,,,,,,,,
297775,2022-09-30_15h25.50.596,vts_reward_expectancy,2022.2.4,MacIntel,59.99880002,Chrome,1440,900,,,a,1.1895,1,623,2,2,4,28,1,1,1,0,0,0,0,0,1,0,triangle,hexagon,,,,,,,,,,,,,,,,,,,,,,,,,,,,,,,,,,,,,,,,,,,,,,,,,,,,,,
297775,2022-09-30_15h25.50.596,vts_reward_expectancy,2022.2.4,MacIntel,59.99880002,Chrome,1440,900,,,l,0.8203,1,624,2,2,5,29,8,1,0,0,1,0,0,0,0,1,hexagon,star,,,,,,,,,,,,,,,,,,,,,,,,,,,,,,,,,,,,,,,,,,,,,,,,,,,,,,
297775,2022-09-30_15h25.50.596,vts_reward_expectancy,2022.2.4,MacIntel,59.99880002,Chrome,1440,900,,,l,0.7328,10,634,2,2,6,30,0,1,1,0,0,0,0,1,0,0,triangle,circle,,,,,,,,,,,,,,,,,,,,,,,,,,,,,,,,,,,,,,,,,,,,,,,,,,,,,,
297775,2022-09-30_15h25.50.596,vts_reward_expectancy,2022.2.4,MacIntel,59.99880002,Chrome,1440,900,,,a,1.1004,10,644,2,2,7,31,2,1,1,0,0,0,0,0,0,1,triangle,star,,,,,,,,,,,,,,,,,,,,,,,,,,,,,,,,,,,,,,,,,,,,,,,,,,,,,,
297775,2022-09-30_15h25.50.596,vts_reward_expectancy,2022.2.4,MacIntel,59.99880002,Chrome,1440,900,,,l,0.8818,10,654,2,2,8,32,7,1,0,0,1,0,0,1,0,0,hexagon,circle,,,,,,,,,,,,,,,,,,,,,,,,,,,,,,,,,,,,,,,,,,,,,,,,,,,,,,
297775,2022-09-30_15h25.50.596,vts_reward_expectancy,2022.2.4,MacIntel,59.99880002,Chrome,1440,900,,,a,0.7159,1,655,2,2,9,33,4,1,0,1,0,0,0,0,1,0,circle,hexagon,,,,,,,,,,,,,,,,,,,,,,,,,,,,,,,,,,,,,,,,,,,,,,,,,,,,,,
297775,2022-09-30_15h25.50.596,vts_reward_expectancy,2022.2.4,MacIntel,59.99880002,Chrome,1440,900,,,a,1.5064,10,665,2,2,10,34,5,1,0,1,0,0,0,0,0,1,circle,star,,,,,,,,,,,,,,,,,,,,,,,,,,,,,,,,,,,,,,,,,,,,,,,,,,,,,,
297775,2022-09-30_15h25.50.596,vts_reward_expectancy,2022.2.4,MacIntel,59.99880002,Chrome,1440,900,,,a,0.7484,1,666,2,2,11,35,3,1,0,1,0,0,1,0,0,0,circle,triangle,,,,,,,,,,,,,,,,,,,,,,,,,,,,,,,,,,,,,,,,,,,,,,,,,,,,,,
297775,2022-09-30_15h25.50.596,vts_reward_expectancy,2022.2.4,MacIntel,59.99880002,Chrome,1440,900,,,,,,,,,,,,,,,,,,,,,,,F,160,triangle,0,0,,0,0,0,0,0,1,,,,,,,,,,,,,,,,,,,,,,,,,,,,,,,,,,,,,,,,,,
297775,2022-09-30_15h25.50.596,vts_reward_expectancy,2022.2.4,MacIntel,59.99880002,Chrome,1440,900,,,,,,,,,,,,,,,,,,,,,,,U,146,circle,0,1,d,0,1,0,1,0,1,0.8628,,,,,,,,,,,,,,,,,,,,,,,,,,,,,,,,,,,,,,,,,
297775,2022-09-30_15h25.50.596,vts_reward_expectancy,2022.2.4,MacIntel,59.99880002,Chrome,1440,900,,,,,,,,,,,,,,,,,,,,,,,H,132,star,0,1,f,0,2,0,2,0,1,0.3443,,,,,,,,,,,,,,,,,,,,,,,,,,,,,,,,,,,,,,,,,
297775,2022-09-30_15h25.50.596,vts_reward_expectancy,2022.2.4,MacIntel,59.99880002,Chrome,1440,900,,,,,,,,,,,,,,,,,,,,,,,D,174,hexagon,2,1,j,0,3,0,3,0,1,2.4304,,,,,,,,,,,,,,,,,,,,,,,,,,,,,,,,,,,,,,,,,
297775,2022-09-30_15h25.50.596,vts_reward_expectancy,2022.2.4,MacIntel,59.99880002,Chrome,1440,900,,,,,,,,,,,,,,,,,,,,,,,Y,181,triangle,2,0,j,0,4,0,4,0,1,0.6327,,,,,,,,,,,,,,,,,,,,,,,,,,,,,,,,,,,,,,,,,
297775,2022-09-30_15h25.50.596,vts_reward_expectancy,2022.2.4,MacIntel,59.99880002,Chrome,1440,900,,,,,,,,,,,,,,,,,,,,,,,W,125,circle,2,0,j,0,5,0,5,0,1,1.88,,,,,,,,,,,,,,,,,,,,,,,,,,,,,,,,,,,,,,,,,
297775,2022-09-30_15h25.50.596,vts_reward_expectancy,2022.2.4,MacIntel,59.99880002,Chrome,1440,900,,,,,,,,,,,,,,,,,,,,,,,S,167,star,0,0,,0,6,0,6,0,1,,,,,,,,,,,,,,,,,,,,,,,,,,,,,,,,,,,,,,,,,,
297775,2022-09-30_15h25.50.596,vts_reward_expectancy,2022.2.4,MacIntel,59.99880002,Chrome,1440,900,,,,,,,,,,,,,,,,,,,,,,,B,139,hexagon,2,1,j,0,7,0,7,0,1,2.4638,,,,,,,,,,,,,,,,,,,,,,,,,,,,,,,,,,,,,,,,,
297775,2022-09-30_15h25.50.596,vts_reward_expectancy,2022.2.4,MacIntel,59.99880002,Chrome,1440,900,,,,,,,,,,,,,,,,,,,,,,,F,160,hexagon,1,0,d,0,8,0,8,0,1,0.6643,,,,,,,,,,,,,,,,,,,,,,,,,,,,,,,,,,,,,,,,,
297775,2022-09-30_15h25.50.596,vts_reward_expectancy,2022.2.4,MacIntel,59.99880002,Chrome,1440,900,,,,,,,,,,,,,,,,,,,,,,,U,146,star,0,0,d,0,9,0,9,0,1,0.5303,,,,,,,,,,,,,,,,,,,,,,,,,,,,,,,,,,,,,,,,,
297775,2022-09-30_15h25.50.596,vts_reward_expectancy,2022.2.4,MacIntel,59.99880002,Chrome,1440,900,,,,,,,,,,,,,,,,,,,,,,,S,160,star,1,1,f,1,0,0,0,0,1,0.9281,,,,,,,,,,,,,,,,,,,,,,,,,,,,,,,,,,,,,,,,,
297775,2022-09-30_15h25.50.596,vts_reward_expectancy,2022.2.4,MacIntel,59.99880002,Chrome,1440,900,,,,,,,,,,,,,,,,,,,,,,,U,167,triangle,1,0,f,1,1,0,1,0,1,0.7009,,,,,,,,,,,,,,,,,,,,,,,,,,,,,,,,,,,,,,,,,
297775,2022-09-30_15h25.50.596,vts_reward_expectancy,2022.2.4,MacIntel,59.99880002,Chrome,1440,900,,,,,,,,,,,,,,,,,,,,,,,B,139,circle,1,0,d,1,2,0,2,0,1,0.6798,,,,,,,,,,,,,,,,,,,,,,,,,,,,,,,,,,,,,,,,,
297775,2022-09-30_15h25.50.596,vts_reward_expectancy,2022.2.4,MacIntel,59.99880002,Chrome,1440,900,,,,,,,,,,,,,,,,,,,,,,,Y,174,hexagon,1,0,f,1,3,0,3,0,1,0.6637,,,,,,,,,,,,,,,,,,,,,,,,,,,,,,,,,,,,,,,,,
297775,2022-09-30_15h25.50.596,vts_reward_expectancy,2022.2.4,MacIntel,59.99880002,Chrome,1440,900,,,,,,,,,,,,,,,,,,,,,,,F,132,star,1,0,d,1,4,0,4,0,1,0.8147,,,,,,,,,,,,,,,,,,,,,,,,,,,,,,,,,,,,,,,,,
297775,2022-09-30_15h25.50.596,vts_reward_expectancy,2022.2.4,MacIntel,59.99880002,Chrome,1440,900,,,,,,,,,,,,,,,,,,,,,,,W,181,triangle,1,0,f,1,5,0,5,0,1,0.6998,,,,,,,,,,,,,,,,,,,,,,,,,,,,,,,,,,,,,,,,,
297775,2022-09-30_15h25.50.596,vts_reward_expectancy,2022.2.4,MacIntel,59.99880002,Chrome,1440,900,,,,,,,,,,,,,,,,,,,,,,,H,125,circle,1,0,d,1,6,0,6,0,1,1.3659,,,,,,,,,,,,,,,,,,,,,,,,,,,,,,,,,,,,,,,,,
297775,2022-09-30_15h25.50.596,vts_reward_expectancy,2022.2.4,MacIntel,59.99880002,Chrome,1440,900,,,,,,,,,,,,,,,,,,,,,,,D,146,hexagon,1,0,d,1,7,0,7,0,1,0.7645,,,,,,,,,,,,,,,,,,,,,,,,,,,,,,,,,,,,,,,,,
297775,2022-09-30_15h25.50.596,vts_reward_expectancy,2022.2.4,MacIntel,59.99880002,Chrome,1440,900,,,,,,,,,,,,,,,,,,,,,,,S,160,hexagon,1,0,f,1,8,0,8,0,1,0.8369,,,,,,,,,,,,,,,,,,,,,,,,,,,,,,,,,,,,,,,,,
297775,2022-09-30_15h25.50.596,vts_reward_expectancy,2022.2.4,MacIntel,59.99880002,Chrome,1440,900,,,,,,,,,,,,,,,,,,,,,,,U,167,circle,1,0,f,1,9,0,9,0,1,0.6685,,,,,,,,,,,,,,,,,,,,,,,,,,,,,,,,,,,,,,,,,
297775,2022-09-30_15h25.50.596,vts_reward_expectancy,2022.2.4,MacIntel,59.99880002,Chrome,1440,900,,,,,,,,,,,,,,,,,,,,,,,S,125,hexagon,1,0,,2,,,,,,,j,1.6296,0,0,0,0,1,,,,,,,,,,,,,,,,,,,,,,,,,,,,,,,,,,
297775,2022-09-30_15h25.50.596,vts_reward_expectancy,2022.2.4,MacIntel,59.99880002,Chrome,1440,900,,,,,,,,,,,,,,,,,,,,,,,B,181,triangle,1,0,,2,,,,,,,k,0.6444,1,0,1,0,1,,,,,,,,,,,,,,,,,,,,,,,,,,,,,,,,,,
297775,2022-09-30_15h25.50.596,vts_reward_expectancy,2022.2.4,MacIntel,59.99880002,Chrome,1440,900,,,,,,,,,,,,,,,,,,,,,,,F,139,circle,1,0,,2,,,,,,,j,1.2808,2,0,2,0,1,,,,,,,,,,,,,,,,,,,,,,,,,,,,,,,,,,
297775,2022-09-30_15h25.50.596,vts_reward_expectancy,2022.2.4,MacIntel,59.99880002,Chrome,1440,900,,,,,,,,,,,,,,,,,,,,,,,W,167,star,1,0,,2,,,,,,,k,0.6298,3,0,3,0,1,,,,,,,,,,,,,,,,,,,,,,,,,,,,,,,,,,
297775,2022-09-30_15h25.50.596,vts_reward_expectancy,2022.2.4,MacIntel,59.99880002,Chrome,1440,900,,,,,,,,,,,,,,,,,,,,,,,D,146,hexagon,1,0,,2,,,,,,,j,1.1364,4,0,4,0,1,,,,,,,,,,,,,,,,,,,,,,,,,,,,,,,,,,
297775,2022-09-30_15h25.50.596,vts_reward_expectancy,2022.2.4,MacIntel,59.99880002,Chrome,1440,900,,,,,,,,,,,,,,,,,,,,,,,Y,160,triangle,1,0,,2,,,,,,,k,1.4011,5,0,5,0,1,,,,,,,,,,,,,,,,,,,,,,,,,,,,,,,,,,
297775,2022-09-30_15h25.50.596,vts_reward_expectancy,2022.2.4,MacIntel,59.99880002,Chrome,1440,900,,,,,,,,,,,,,,,,,,,,,,,U,174,circle,1,0,,2,,,,,,,k,1.279,6,0,6,0,1,,,,,,,,,,,,,,,,,,,,,,,,,,,,,,,,,,
297775,2022-09-30_15h25.50.596,vts_reward_expectancy,2022.2.4,MacIntel,59.99880002,Chrome,1440,900,,,,,,,,,,,,,,,,,,,,,,,H,132,star,1,0,,2,,,,,,,j,1.0306,7,0,7,0,1,,,,,,,,,,,,,,,,,,,,,,,,,,,,,,,,,,
297775,2022-09-30_15h25.50.596,vts_reward_expectancy,2022.2.4,MacIntel,59.99880002,Chrome,1440,900,,,,,,,,,,,,,,,,,,,,,,,S,125,star,1,0,,2,,,,,,,j,0.8642,8,0,8,0,1,,,,,,,,,,,,,,,,,,,,,,,,,,,,,,,,,,
297775,2022-09-30_15h25.50.596,vts_reward_expectancy,2022.2.4,MacIntel,59.99880002,Chrome,1440,900,,,,,,,,,,,,,,,,,,,,,,,B,181,hexagon,1,0,,2,,,,,,,k,0.8333,9,0,9,0,1,,,,,,,,,,,,,,,,,,,,,,,,,,,,,,,,,,
297775,2022-09-30_15h25.50.596,vts_reward_expectancy,2022.2.4,MacIntel,59.99880002,Chrome,1440,900,,,,,0,666,,,,,,,,,,,,,,,,,H,174,hexagon,1,0,,3,,,,,,,,,,,,,,-1,letter,NA,d,1.284,vtsPrac,0,0,0,0,1,,,,,,,,,,,,,,,,,,,,,,,
297775,2022-09-30_15h25.50.596,vts_reward_expectancy,2022.2.4,MacIntel,59.99880002,Chrome,1440,900,,,,,0,666,,,,,,,,,,,,,,,,,F,139,circle,1,0,,3,,,,,,,,,,,,,,switch,number,numSwt,j,1.2785,vtsPrac,1,0,1,0,1,,,,,,,,,,,,,,,,,,,,,,,
297775,2022-09-30_15h25.50.596,vts_reward_expectancy,2022.2.4,MacIntel,59.99880002,Chrome,1440,900,,,,,0,666,,,,,,,,,,,,,,,,,W,146,hexagon,1,0,,3,,,,,,,,,,,,,,switch,letter,lettSwt,f,1.4127,vtsPrac,2,0,2,0,1,,,,,,,,,,,,,,,,,,,,,,,
297775,2022-09-30_15h25.50.596,vts_reward_expectancy,2022.2.4,MacIntel,59.99880002,Chrome,1440,900,,,,,0,666,,,,,,,,,,,,,,,,,B,181,circle,1,0,,3,,,,,,,,,,,,,,switch,number,numSwt,k,1.079,vtsPrac,3,0,3,0,1,,,,,,,,,,,,,,,,,,,,,,,
297775,2022-09-30_15h25.50.596,vts_reward_expectancy,2022.2.4,MacIntel,59.99880002,Chrome,1440,900,,,,,0,666,,,,,,,,,,,,,,,,,H,174,triangle,1,0,,3,,,,,,,,,,,,,,repeat,number,numRpt,k,1.2803,vtsPrac,4,0,4,0,1,,,,,,,,,,,,,,,,,,,,,,,
297775,2022-09-30_15h25.50.596,vts_reward_expectancy,2022.2.4,MacIntel,59.99880002,Chrome,1440,900,,,,,0,666,,,,,,,,,,,,,,,,,F,139,circle,1,0,,3,,,,,,,,,,,,,,repeat,number,numRpt,j,0.9625,vtsPrac,5,0,5,0,1,,,,,,,,,,,,,,,,,,,,,,,
297775,2022-09-30_15h25.50.596,vts_reward_expectancy,2022.2.4,MacIntel,59.99880002,Chrome,1440,900,,,,,0,666,,,,,,,,,,,,,,,,,W,146,circle,0,0,,3,,,,,,,,,,,,,,switch,letter,NA,d,1.2818,vtsPrac,6,0,6,0,1,,,,,,,,,,,,,,,,,,,,,,,
297775,2022-09-30_15h25.50.596,vts_reward_expectancy,2022.2.4,MacIntel,59.99880002,Chrome,1440,900,,,,,0,666,,,,,,,,,,,,,,,,,B,181,star,1,1,,3,,,,,,,,,,,,,,repeat,letter,lettRpt,d,1.1987,vtsPrac,7,0,7,0,1,,,,,,,,,,,,,,,,,,,,,,,
297775,2022-09-30_15h25.50.596,vts_reward_expectancy,2022.2.4,MacIntel,59.99880002,Chrome,1440,900,,,,,0,666,,,,,,,,,,,,,,,,,U,174,circle,1,0,,3,,,,,,,,,,,,,,repeat,letter,lettRpt,f,1.2997,vtsPrac,8,0,8,0,1,,,,,,,,,,,,,,,,,,,,,,,
297775,2022-09-30_15h25.50.596,vts_reward_expectancy,2022.2.4,MacIntel,59.99880002,Chrome,1440,900,,,,,0,666,,,,,,,,,,,,,,,,,D,125,triangle,1,0,,3,,,,,,,,,,,,,,repeat,letter,lettRpt,d,1.0983,vtsPrac,9,0,9,0,1,,,,,,,,,,,,,,,,,,,,,,,
297775,2022-09-30_15h25.50.596,vts_reward_expectancy,2022.2.4,MacIntel,59.99880002,Chrome,1440,900,,,,,0,666,,,,,,,,,,,,,,,,,F,132,circle,1,0,,3,,,,,,,,,,,,,,repeat,letter,lettRpt,d,1.1119,vtsPrac,10,0,10,0,1,,,,,,,,,,,,,,,,,,,,,,,
297775,2022-09-30_15h25.50.596,vts_reward_expectancy,2022.2.4,MacIntel,59.99880002,Chrome,1440,900,,,,,0,666,,,,,,,,,,,,,,,,,W,139,hexagon,1,0,,3,,,,,,,,,,,,,,repeat,letter,lettRpt,f,1.4481,vtsPrac,11,0,11,0,1,,,,,,,,,,,,,,,,,,,,,,,
297775,2022-09-30_15h25.50.596,vts_reward_expectancy,2022.2.4,MacIntel,59.99880002,Chrome,1440,900,,,,,0,666,,,,,,,,,,,,,,,,,D,167,triangle,1,0,,3,,,,,,,,,,,,,,repeat,letter,lettRpt,d,1.0954,vtsPrac,12,0,12,0,1,,,,,,,,,,,,,,,,,,,,,,,
297775,2022-09-30_15h25.50.596,vts_reward_expectancy,2022.2.4,MacIntel,59.99880002,Chrome,1440,900,,,,,0,666,,,,,,,,,,,,,,,,,W,139,circle,1,0,,3,,,,,,,,,,,,,,switch,number,numSwt,j,1.2042,vtsPrac,13,0,13,0,1,,,,,,,,,,,,,,,,,,,,,,,
297775,2022-09-30_15h25.50.596,vts_reward_expectancy,2022.2.4,MacIntel,59.99880002,Chrome,1440,900,,,,,0,666,,,,,,,,,,,,,,,,,Y,132,star,1,0,,3,,,,,,,,,,,,,,switch,letter,lettSwt,f,0.9643,vtsPrac,14,0,14,0,1,,,,,,,,,,,,,,,,,,,,,,,
297775,2022-09-30_15h25.50.596,vts_reward_expectancy,2022.2.4,MacIntel,59.99880002,Chrome,1440,900,,,,,0,666,,,,,,,,,,,,,,,,,F,181,hexagon,1,0,,3,,,,,,,,,,,,,,repeat,letter,lettRpt,d,1.1185,vtsPrac,15,0,15,0,1,,,,,,,,,,,,,,,,,,,,,,,
297775,2022-09-30_15h25.50.596,vts_reward_expectancy,2022.2.4,MacIntel,59.99880002,Chrome,1440,900,,,,,,,,,,,,,,,,,,,,,,,,,,,,,,,,,,,,,,,,,,,,,,,,,,,,,,,,,,,,,,,,,,,,,,,,,,,,
297775,2022-09-30_15h25.50.596,vts_reward_expectancy,2022.2.4,MacIntel,59.99880002,Chrome,1440,900,,,,,,,,,,,,,,,,,,,,,,,,,,,,,,,,,,,,,,,,,,,,,,,,,,,,,,,,,,,,,,,,,,,,,,,,,,,,
297775,2022-09-30_15h25.50.596,vts_reward_expectancy,2022.2.4,MacIntel,59.99880002,Chrome,1440,900,,,,,0,666,,,,,,,,,,,,,,,,,S,174,circle,1,0,,,,,,,,,,,,,,,,repeat,letter,lettRpt,f,1.0784,noRew,,,,,,0,0,0,0,0,1,,,,,,,,,,,,,,,,,
297775,2022-09-30_15h25.50.596,vts_reward_expectancy,2022.2.4,MacIntel,59.99880002,Chrome,1440,900,,,,,0,666,,,,,,,,,,,,,,,,,H,132,triangle,1,0,,,,,,,,,,,,,,,,switch,number,numSwt,j,1.0507,noRew,,,,,,0,1,0,1,0,1,,,,,,,,,,,,,,,,,
297775,2022-09-30_15h25.50.596,vts_reward_expectancy,2022.2.4,MacIntel,59.99880002,Chrome,1440,900,,,,,0,666,,,,,,,,,,,,,,,,,Y,146,circle,1,0,,,,,,,,,,,,,,,,repeat,number,numRpt,j,1.7541,noRew,,,,,,0,2,0,2,0,1,,,,,,,,,,,,,,,,,
297775,2022-09-30_15h25.50.596,vts_reward_expectancy,2022.2.4,MacIntel,59.99880002,Chrome,1440,900,,,,,0,666,,,,,,,,,,,,,,,,,B,139,triangle,1,0,,,,,,,,,,,,,,,,switch,letter,lettSwt,d,0.9479,noRew,,,,,,0,3,0,3,0,1,,,,,,,,,,,,,,,,,
297775,2022-09-30_15h25.50.596,vts_reward_expectancy,2022.2.4,MacIntel,59.99880002,Chrome,1440,900,,,,,0,666,,,,,,,,,,,,,,,,,S,174,triangle,1,0,,,,,,,,,,,,,,,,repeat,letter,lettRpt,f,1.3328,noRew,,,,,,0,4,0,4,0,1,,,,,,,,,,,,,,,,,
297775,2022-09-30_15h25.50.596,vts_reward_expectancy,2022.2.4,MacIntel,59.99880002,Chrome,1440,900,,,,,0,666,,,,,,,,,,,,,,,,,H,132,hexagon,1,0,,,,,,,,,,,,,,,,repeat,letter,lettRpt,d,1.25,noRew,,,,,,0,5,0,5,0,1,,,,,,,,,,,,,,,,,
297775,2022-09-30_15h25.50.596,vts_reward_expectancy,2022.2.4,MacIntel,59.99880002,Chrome,1440,900,,,,,0,666,,,,,,,,,,,,,,,,,Y,146,star,0,0,,,,,,,,,,,,,,,,switch,number,NA,k,1.1803,noRew,,,,,,0,6,0,6,0,1,,,,,,,,,,,,,,,,,
297775,2022-09-30_15h25.50.596,vts_reward_expectancy,2022.2.4,MacIntel,59.99880002,Chrome,1440,900,,,,,0,666,,,,,,,,,,,,,,,,,B,139,circle,1,1,,,,,,,,,,,,,,,,repeat,number,numRpt,j,1.2502,noRew,,,,,,0,7,0,7,0,1,,,,,,,,,,,,,,,,,
297775,2022-09-30_15h25.50.596,vts_reward_expectancy,2022.2.4,MacIntel,59.99880002,Chrome,1440,900,,,,,0,666,,,,,,,,,,,,,,,,,H,132,triangle,1,0,,,,,,,,,,,,,,,,repeat,number,numRpt,j,1.393,noRew,,,,,,0,8,0,8,0,1,,,,,,,,,,,,,,,,,
297775,2022-09-30_15h25.50.596,vts_reward_expectancy,2022.2.4,MacIntel,59.99880002,Chrome,1440,900,,,,,0,666,,,,,,,,,,,,,,,,,D,174,hexagon,1,0,,,,,,,,,,,,,,,,repeat,number,numRpt,k,1.0331,noRew,,,,,,0,9,0,9,0,1,,,,,,,,,,,,,,,,,
297775,2022-09-30_15h25.50.596,vts_reward_expectancy,2022.2.4,MacIntel,59.99880002,Chrome,1440,900,,,,,0,666,,,,,,,,,,,,,,,,,F,167,circle,1,0,,,,,,,,,,,,,,,,repeat,number,numRpt,k,1.3313,noRew,,,,,,0,10,0,10,0,1,,,,,,,,,,,,,,,,,
297775,2022-09-30_15h25.50.596,vts_reward_expectancy,2022.2.4,MacIntel,59.99880002,Chrome,1440,900,,,,,0,666,,,,,,,,,,,,,,,,,U,181,triangle,1,0,,,,,,,,,,,,,,,,switch,letter,lettSwt,f,0.9634,noRew,,,,,,0,11,0,11,0,1,,,,,,,,,,,,,,,,,
297775,2022-09-30_15h25.50.596,vts_reward_expectancy,2022.2.4,MacIntel,59.99880002,Chrome,1440,900,,,,,0,666,,,,,,,,,,,,,,,,,Y,146,hexagon,1,0,,,,,,,,,,,,,,,,repeat,letter,lettRpt,f,1.13,noRew,,,,,,0,12,0,12,0,1,,,,,,,,,,,,,,,,,
297775,2022-09-30_15h25.50.596,vts_reward_expectancy,2022.2.4,MacIntel,59.99880002,Chrome,1440,900,,,,,0,666,,,,,,,,,,,,,,,,,H,125,triangle,1,0,,,,,,,,,,,,,,,,repeat,letter,lettRpt,d,2.1652,noRew,,,,,,0,13,0,13,0,1,,,,,,,,,,,,,,,,,
297775,2022-09-30_15h25.50.596,vts_reward_expectancy,2022.2.4,MacIntel,59.99880002,Chrome,1440,900,,,,,0,666,,,,,,,,,,,,,,,,,U,181,circle,1,0,,,,,,,,,,,,,,,,switch,number,numSwt,k,0.9816,noRew,,,,,,0,14,0,14,0,1,,,,,,,,,,,,,,,,,
297775,2022-09-30_15h25.50.596,vts_reward_expectancy,2022.2.4,MacIntel,59.99880002,Chrome,1440,900,,,,,0,666,,,,,,,,,,,,,,,,,D,174,star,1,0,,,,,,,,,,,,,,,,switch,letter,lettSwt,d,1.033,noRew,,,,,,0,15,0,15,0,1,,,,,,,,,,,,,,,,,
297775,2022-09-30_15h25.50.596,vts_reward_expectancy,2022.2.4,MacIntel,59.99880002,Chrome,1440,900,,,,,0,666,,,,,,,,,,,,,,,,,Y,174,hexagon,1,0,,,,,,,,,,,,,,,,switch,number,numSwt,k,1.2365,noRew,,,,,,0,16,0,16,0,1,,,,,,,,,,,,,,,,,
297775,2022-09-30_15h25.50.596,vts_reward_expectancy,2022.2.4,MacIntel,59.99880002,Chrome,1440,900,,,,,0,666,,,,,,,,,,,,,,,,,W,160,star,1,0,,,,,,,,,,,,,,,,repeat,number,numRpt,k,1.3686,noRew,,,,,,0,17,0,17,0,1,,,,,,,,,,,,,,,,,
297775,2022-09-30_15h25.50.596,vts_reward_expectancy,2022.2.4,MacIntel,59.99880002,Chrome,1440,900,,,,,0,666,,,,,,,,,,,,,,,,,F,139,star,1,0,,,,,,,,,,,,,,,,switch,letter,lettSwt,d,0.9472,noRew,,,,,,0,18,0,18,0,1,,,,,,,,,,,,,,,,,
297775,2022-09-30_15h25.50.596,vts_reward_expectancy,2022.2.4,MacIntel,59.99880002,Chrome,1440,900,,,,,0,666,,,,,,,,,,,,,,,,,U,132,triangle,1,0,,,,,,,,,,,,,,,,switch,number,numSwt,j,1.0626,noRew,,,,,,0,19,0,19,0,1,,,,,,,,,,,,,,,,,
297775,2022-09-30_15h25.50.596,vts_reward_expectancy,2022.2.4,MacIntel,59.99880002,Chrome,1440,900,,,,,0,666,,,,,,,,,,,,,,,,,U,146,hexagon,1,0,,,,,,,,,,,,,,,,repeat,number,numRpt,j,1.1307,noRew,,,,,,0,20,0,20,0,1,,,,,,,,,,,,,,,,,
297775,2022-09-30_15h25.50.596,vts_reward_expectancy,2022.2.4,MacIntel,59.99880002,Chrome,1440,900,,,,,0,666,,,,,,,,,,,,,,,,,F,125,star,1,0,,,,,,,,,,,,,,,,repeat,number,numRpt,j,1.079,noRew,,,,,,0,21,0,21,0,1,,,,,,,,,,,,,,,,,
297775,2022-09-30_15h25.50.596,vts_reward_expectancy,2022.2.4,MacIntel,59.99880002,Chrome,1440,900,,,,,0,666,,,,,,,,,,,,,,,,,S,132,star,1,0,,,,,,,,,,,,,,,,switch,letter,lettSwt,f,1.2513,noRew,,,,,,0,22,0,22,0,1,,,,,,,,,,,,,,,,,
297775,2022-09-30_15h25.50.596,vts_reward_expectancy,2022.2.4,MacIntel,59.99880002,Chrome,1440,900,,,,,0,666,,,,,,,,,,,,,,,,,B,174,hexagon,1,0,,,,,,,,,,,,,,,,repeat,letter,lettRpt,d,1.1199,noRew,,,,,,0,23,0,23,0,1,,,,,,,,,,,,,,,,,
297775,2022-09-30_15h25.50.596,vts_reward_expectancy,2022.2.4,MacIntel,59.99880002,Chrome,1440,900,,,,,0,666,,,,,,,,,,,,,,,,,U,174,circle,1,0,,,,,,,,,,,,,,,,switch,number,numSwt,k,1.4821,noRew,,,,,,0,24,0,24,0,1,,,,,,,,,,,,,,,,,
297775,2022-09-30_15h25.50.596,vts_reward_expectancy,2022.2.4,MacIntel,59.99880002,Chrome,1440,900,,,,,0,666,,,,,,,,,,,,,,,,,Y,146,star,1,0,,,,,,,,,,,,,,,,switch,letter,lettSwt,f,1.9127,noRew,,,,,,0,25,0,25,0,1,,,,,,,,,,,,,,,,,
297775,2022-09-30_15h25.50.596,vts_reward_expectancy,2022.2.4,MacIntel,59.99880002,Chrome,1440,900,,,,,0,666,,,,,,,,,,,,,,,,,S,160,star,1,0,,,,,,,,,,,,,,,,switch,number,numSwt,k,2.6524,noRew,,,,,,0,26,0,26,0,1,,,,,,,,,,,,,,,,,
297775,2022-09-30_15h25.50.596,vts_reward_expectancy,2022.2.4,MacIntel,59.99880002,Chrome,1440,900,,,,,0,666,,,,,,,,,,,,,,,,,H,125,hexagon,1,0,,,,,,,,,,,,,,,,repeat,number,numRpt,j,1.4982,noRew,,,,,,0,27,0,27,0,1,,,,,,,,,,,,,,,,,
297775,2022-09-30_15h25.50.596,vts_reward_expectancy,2022.2.4,MacIntel,59.99880002,Chrome,1440,900,,,,,0,666,,,,,,,,,,,,,,,,,U,146,star,1,0,,,,,,,,,,,,,,,,repeat,number,numRpt,j,1.5319,noRew,,,,,,0,28,0,28,0,1,,,,,,,,,,,,,,,,,
297775,2022-09-30_15h25.50.596,vts_reward_expectancy,2022.2.4,MacIntel,59.99880002,Chrome,1440,900,,,,,0,666,,,,,,,,,,,,,,,,,B,125,hexagon,1,0,,,,,,,,,,,,,,,,repeat,number,numRpt,j,0.9477,noRew,,,,,,0,29,0,29,0,1,,,,,,,,,,,,,,,,,
297775,2022-09-30_15h25.50.596,vts_reward_expectancy,2022.2.4,MacIntel,59.99880002,Chrome,1440,900,,,,,0,666,,,,,,,,,,,,,,,,,F,132,circle,1,0,,,,,,,,,,,,,,,,repeat,number,numRpt,j,1.0281,noRew,,,,,,0,30,0,30,0,1,,,,,,,,,,,,,,,,,
297775,2022-09-30_15h25.50.596,vts_reward_expectancy,2022.2.4,MacIntel,59.99880002,Chrome,1440,900,,,,,0,666,,,,,,,,,,,,,,,,,W,167,triangle,1,0,,,,,,,,,,,,,,,,repeat,number,numRpt,k,1.5122,noRew,,,,,,0,31,0,31,0,1,,,,,,,,,,,,,,,,,
297775,2022-09-30_15h25.50.596,vts_reward_expectancy,2022.2.4,MacIntel,59.99880002,Chrome,1440,900,,,,,0,666,,,,,,,,,,,,,,,,,H,132,triangle,1,0,,,,,,,,,,,,,,,,switch,letter,lettSwt,d,1.5634,noRew,,,,,,0,32,0,32,0,1,,,,,,,,,,,,,,,,,
297775,2022-09-30_15h25.50.596,vts_reward_expectancy,2022.2.4,MacIntel,59.99880002,Chrome,1440,900,,,,,0,666,,,,,,,,,,,,,,,,,W,167,circle,1,0,,,,,,,,,,,,,,,,switch,number,numSwt,k,1.0328,noRew,,,,,,0,33,0,33,0,1,,,,,,,,,,,,,,,,,
297775,2022-09-30_15h25.50.596,vts_reward_expectancy,2022.2.4,MacIntel,59.99880002,Chrome,1440,900,,,,,0,666,,,,,,,,,,,,,,,,,F,125,triangle,1,0,,,,,,,,,,,,,,,,repeat,number,numRpt,j,0.8648,noRew,,,,,,0,34,0,34,0,1,,,,,,,,,,,,,,,,,
297775,2022-09-30_15h25.50.596,vts_reward_expectancy,2022.2.4,MacIntel,59.99880002,Chrome,1440,900,,,,,0,666,,,,,,,,,,,,,,,,,S,160,circle,1,0,,,,,,,,,,,,,,,,switch,letter,lettSwt,f,1.0447,noRew,,,,,,0,35,0,35,0,1,,,,,,,,,,,,,,,,,
297775,2022-09-30_15h25.50.596,vts_reward_expectancy,2022.2.4,MacIntel,59.99880002,Chrome,1440,900,,,,,0,666,,,,,,,,,,,,,,,,,D,132,star,1,0,,,,,,,,,,,,,,,,repeat,letter,lettRpt,d,0.7871,noRew,,,,,,0,36,0,36,0,1,,,,,,,,,,,,,,,,,
297775,2022-09-30_15h25.50.596,vts_reward_expectancy,2022.2.4,MacIntel,59.99880002,Chrome,1440,900,,,,,0,666,,,,,,,,,,,,,,,,,H,174,circle,1,0,,,,,,,,,,,,,,,,switch,number,numSwt,k,1.0471,noRew,,,,,,0,37,0,37,0,1,,,,,,,,,,,,,,,,,
297775,2022-09-30_15h25.50.596,vts_reward_expectancy,2022.2.4,MacIntel,59.99880002,Chrome,1440,900,,,,,0,666,,,,,,,,,,,,,,,,,Y,125,triangle,1,0,,,,,,,,,,,,,,,,repeat,number,numRpt,j,1.1115,noRew,,,,,,0,38,0,38,0,1,,,,,,,,,,,,,,,,,
297775,2022-09-30_15h25.50.596,vts_reward_expectancy,2022.2.4,MacIntel,59.99880002,Chrome,1440,900,,,,,0,666,,,,,,,,,,,,,,,,,B,167,circle,1,0,,,,,,,,,,,,,,,,repeat,number,numRpt,k,1.0455,noRew,,,,,,0,39,0,39,0,1,,,,,,,,,,,,,,,,,
297775,2022-09-30_15h25.50.596,vts_reward_expectancy,2022.2.4,MacIntel,59.99880002,Chrome,1440,900,,,,,0,666,,,,,,,,,,,,,,,,,B,167,hexagon,1,0,,,,,,,,,,,,,,,,switch,letter,lettSwt,d,1.0516,noRew,,,,,,0,40,0,40,0,1,,,,,,,,,,,,,,,,,
297775,2022-09-30_15h25.50.596,vts_reward_expectancy,2022.2.4,MacIntel,59.99880002,Chrome,1440,900,,,,,0,666,,,,,,,,,,,,,,,,,W,160,circle,1,0,,,,,,,,,,,,,,,,switch,number,numSwt,k,1.3646,noRew,,,,,,0,41,0,41,0,1,,,,,,,,,,,,,,,,,
297775,2022-09-30_15h25.50.596,vts_reward_expectancy,2022.2.4,MacIntel,59.99880002,Chrome,1440,900,,,,,0,666,,,,,,,,,,,,,,,,,F,132,circle,1,0,,,,,,,,,,,,,,,,repeat,number,numRpt,j,1.0959,noRew,,,,,,0,42,0,42,0,1,,,,,,,,,,,,,,,,,
297775,2022-09-30_15h25.50.596,vts_reward_expectancy,2022.2.4,MacIntel,59.99880002,Chrome,1440,900,,,,,0,666,,,,,,,,,,,,,,,,,Y,125,triangle,1,0,,,,,,,,,,,,,,,,repeat,number,numRpt,j,1.1498,noRew,,,,,,0,43,0,43,0,1,,,,,,,,,,,,,,,,,
297775,2022-09-30_15h25.50.596,vts_reward_expectancy,2022.2.4,MacIntel,59.99880002,Chrome,1440,900,,,,,0,666,,,,,,,,,,,,,,,,,F,132,triangle,1,0,,,,,,,,,,,,,,,,repeat,number,numRpt,j,0.7821,noRew,,,,,,0,44,0,44,0,1,,,,,,,,,,,,,,,,,
297775,2022-09-30_15h25.50.596,vts_reward_expectancy,2022.2.4,MacIntel,59.99880002,Chrome,1440,900,,,,,0,666,,,,,,,,,,,,,,,,,S,167,circle,1,0,,,,,,,,,,,,,,,,switch,letter,lettSwt,f,0.9141,noRew,,,,,,0,45,0,45,0,1,,,,,,,,,,,,,,,,,
297775,2022-09-30_15h25.50.596,vts_reward_expectancy,2022.2.4,MacIntel,59.99880002,Chrome,1440,900,,,,,0,666,,,,,,,,,,,,,,,,,H,160,hexagon,1,0,,,,,,,,,,,,,,,,repeat,letter,lettRpt,d,1.4128,noRew,,,,,,0,46,0,46,0,1,,,,,,,,,,,,,,,,,
297775,2022-09-30_15h25.50.596,vts_reward_expectancy,2022.2.4,MacIntel,59.99880002,Chrome,1440,900,,,,,0,666,,,,,,,,,,,,,,,,,W,139,triangle,1,0,,,,,,,,,,,,,,,,switch,number,numSwt,j,1.1325,noRew,,,,,,0,47,0,47,0,1,,,,,,,,,,,,,,,,,
297775,2022-09-30_15h25.50.596,vts_reward_expectancy,2022.2.4,MacIntel,59.99880002,Chrome,1440,900,,,,,0,666,,,,,,,,,,,,,,,,,H,125,circle,1,0,,,,,,,,,,,,,,,,switch,letter,lettSwt,d,0.9339,noRew,,,,,,0,48,0,48,0,1,,,,,,,,,,,,,,,,,
297775,2022-09-30_15h25.50.596,vts_reward_expectancy,2022.2.4,MacIntel,59.99880002,Chrome,1440,900,,,,,0,666,,,,,,,,,,,,,,,,,D,174,hexagon,1,0,,,,,,,,,,,,,,,,switch,number,numSwt,k,1.2864,noRew,,,,,,0,49,0,49,0,1,,,,,,,,,,,,,,,,,
297775,2022-09-30_15h25.50.596,vts_reward_expectancy,2022.2.4,MacIntel,59.99880002,Chrome,1440,900,,,,,0,666,,,,,,,,,,,,,,,,,F,167,hexagon,1,0,,,,,,,,,,,,,,,,switch,letter,lettSwt,d,1.8001,noRew,,,,,,0,50,0,50,0,1,,,,,,,,,,,,,,,,,
297775,2022-09-30_15h25.50.596,vts_reward_expectancy,2022.2.4,MacIntel,59.99880002,Chrome,1440,900,,,,,0,666,,,,,,,,,,,,,,,,,Y,139,circle,1,0,,,,,,,,,,,,,,,,repeat,letter,lettRpt,f,1.2667,noRew,,,,,,0,51,0,51,0,1,,,,,,,,,,,,,,,,,
297775,2022-09-30_15h25.50.596,vts_reward_expectancy,2022.2.4,MacIntel,59.99880002,Chrome,1440,900,,,,,0,666,,,,,,,,,,,,,,,,,W,132,hexagon,1,0,,,,,,,,,,,,,,,,switch,number,numSwt,j,2.0544,noRew,,,,,,0,52,0,52,0,1,,,,,,,,,,,,,,,,,
297775,2022-09-30_15h25.50.596,vts_reward_expectancy,2022.2.4,MacIntel,59.99880002,Chrome,1440,900,,,,,0,666,,,,,,,,,,,,,,,,,Y,146,star,1,0,,,,,,,,,,,,,,,,switch,letter,lettSwt,f,1.5825,noRew,,,,,,0,53,0,53,0,1,,,,,,,,,,,,,,,,,
297775,2022-09-30_15h25.50.596,vts_reward_expectancy,2022.2.4,MacIntel,59.99880002,Chrome,1440,900,,,,,0,666,,,,,,,,,,,,,,,,,D,181,star,1,0,,,,,,,,,,,,,,,,repeat,letter,lettRpt,d,1.0819,noRew,,,,,,0,54,0,54,0,1,,,,,,,,,,,,,,,,,
297775,2022-09-30_15h25.50.596,vts_reward_expectancy,2022.2.4,MacIntel,59.99880002,Chrome,1440,900,,,,,0,666,,,,,,,,,,,,,,,,,B,125,triangle,1,0,,,,,,,,,,,,,,,,repeat,letter,lettRpt,d,0.9157,noRew,,,,,,0,55,0,55,0,1,,,,,,,,,,,,,,,,,
297775,2022-09-30_15h25.50.596,vts_reward_expectancy,2022.2.4,MacIntel,59.99880002,Chrome,1440,900,,,,,0,666,,,,,,,,,,,,,,,,,U,167,circle,1,0,,,,,,,,,,,,,,,,repeat,letter,lettRpt,f,0.9242,noRew,,,,,,0,56,0,56,0,1,,,,,,,,,,,,,,,,,
297775,2022-09-30_15h25.50.596,vts_reward_expectancy,2022.2.4,MacIntel,59.99880002,Chrome,1440,900,,,,,0,666,,,,,,,,,,,,,,,,,S,181,hexagon,0,0,,,,,,,,,,,,,,,,switch,number,NA,j,1.2479,noRew,,,,,,0,57,0,57,0,1,,,,,,,,,,,,,,,,,
297775,2022-09-30_15h25.50.596,vts_reward_expectancy,2022.2.4,MacIntel,59.99880002,Chrome,1440,900,,,,,0,666,,,,,,,,,,,,,,,,,H,160,circle,1,1,,,,,,,,,,,,,,,,repeat,number,numRpt,k,1.103,noRew,,,,,,0,58,0,58,0,1,,,,,,,,,,,,,,,,,
297775,2022-09-30_15h25.50.596,vts_reward_expectancy,2022.2.4,MacIntel,59.99880002,Chrome,1440,900,,,,,0,666,,,,,,,,,,,,,,,,,Y,174,triangle,1,0,,,,,,,,,,,,,,,,repeat,number,numRpt,k,1.0957,noRew,,,,,,0,59,0,59,0,1,,,,,,,,,,,,,,,,,
297775,2022-09-30_15h25.50.596,vts_reward_expectancy,2022.2.4,MacIntel,59.99880002,Chrome,1440,900,,,,,0,666,,,,,,,,,,,,,,,,,D,174,star,1,0,,,,,,,,,,,,,,,,repeat,number,numRpt,k,0.9965,noRew,,,,,,0,60,0,60,0,1,,,,,,,,,,,,,,,,,
297775,2022-09-30_15h25.50.596,vts_reward_expectancy,2022.2.4,MacIntel,59.99880002,Chrome,1440,900,,,,,0,666,,,,,,,,,,,,,,,,,H,167,hexagon,1,0,,,,,,,,,,,,,,,,switch,letter,lettSwt,d,1.2668,noRew,,,,,,0,61,0,61,0,1,,,,,,,,,,,,,,,,,
297775,2022-09-30_15h25.50.596,vts_reward_expectancy,2022.2.4,MacIntel,59.99880002,Chrome,1440,900,,,,,0,666,,,,,,,,,,,,,,,,,B,139,hexagon,1,0,,,,,,,,,,,,,,,,repeat,letter,lettRpt,d,0.7799,noRew,,,,,,0,62,0,62,0,1,,,,,,,,,,,,,,,,,
297775,2022-09-30_15h25.50.596,vts_reward_expectancy,2022.2.4,MacIntel,59.99880002,Chrome,1440,900,,,,,0,666,,,,,,,,,,,,,,,,,Y,160,circle,1,0,,,,,,,,,,,,,,,,switch,number,numSwt,k,1.0976,noRew,,,,,,0,63,0,63,0,1,,,,,,,,,,,,,,,,,
297775,2022-09-30_15h25.50.596,vts_reward_expectancy,2022.2.4,MacIntel,59.99880002,Chrome,1440,900,,,,,,,,,,,,,,,,,,,,,,,,,,,,,,,,,,,,,,,,,,,,,,,,,,,,,,,,,,,,,,,,,,,,,,,,,,,,
297775,2022-09-30_15h25.50.596,vts_reward_expectancy,2022.2.4,MacIntel,59.99880002,Chrome,1440,900,,,,,0,666,,,,,,,,,,,,,,,,,S,139,triangle,0,0,,,,,,,,,,,,,,,,switch,letter,NA,d,1.1132,noRew,,,,,,0,,,,,,space,9.8036,low,0,0,0,0,1,,,,,,,,,
297775,2022-09-30_15h25.50.596,vts_reward_expectancy,2022.2.4,MacIntel,59.99880002,Chrome,1440,900,,,,,0,666,,,,,,,,,,,,,,,,,W,174,star,1,1,,,,,,,,,,,,,,,,switch,number,numSwt,k,1.2144,Hi,,,,,,0,,,,,,,,low,1,0,1,0,1,,,,,,,,,
297775,2022-09-30_15h25.50.596,vts_reward_expectancy,2022.2.4,MacIntel,59.99880002,Chrome,1440,900,,,,,1,667,,,,,,,,,,,,,,,,,F,146,triangle,1,0,,,,,,,,,,,,,,,,repeat,number,numRpt,j,0.4809,Lo,,,,,,0,,,,,,,,low,2,0,2,0,1,,,,,,,,,
297775,2022-09-30_15h25.50.596,vts_reward_expectancy,2022.2.4,MacIntel,59.99880002,Chrome,1440,900,,,,,0,667,,,,,,,,,,,,,,,,,U,181,star,1,0,,,,,,,,,,,,,,,,switch,letter,lettSwt,f,1.1795,Hi,,,,,,0,,,,,,,,low,3,0,3,0,1,,,,,,,,,
297775,2022-09-30_15h25.50.596,vts_reward_expectancy,2022.2.4,MacIntel,59.99880002,Chrome,1440,900,,,,,0,667,,,,,,,,,,,,,,,,,H,160,triangle,0,0,,,,,,,,,,,,,,,,switch,number,NA,j,0.4381,Hi,,,,,,0,,,,,,,,low,4,0,4,0,1,,,,,,,,,
297775,2022-09-30_15h25.50.596,vts_reward_expectancy,2022.2.4,MacIntel,59.99880002,Chrome,1440,900,,,,,10,677,,,,,,,,,,,,,,,,,D,167,star,1,1,,,,,,,,,,,,,,,,repeat,number,numRpt,k,0.6822,Hi,,,,,,0,,,,,,,,low,5,0,5,0,1,,,,,,,,,
297775,2022-09-30_15h25.50.596,vts_reward_expectancy,2022.2.4,MacIntel,59.99880002,Chrome,1440,900,,,,,10,687,,,,,,,,,,,,,,,,,B,125,star,1,0,,,,,,,,,,,,,,,,switch,letter,lettSwt,d,0.6634,Hi,,,,,,0,,,,,,,,low,6,0,6,0,1,,,,,,,,,
297775,2022-09-30_15h25.50.596,vts_reward_expectancy,2022.2.4,MacIntel,59.99880002,Chrome,1440,900,,,,,1,688,,,,,,,,,,,,,,,,,Y,132,triangle,1,0,,,,,,,,,,,,,,,,switch,number,numSwt,j,1.2626,Lo,,,,,,0,,,,,,,,low,7,0,7,0,1,,,,,,,,,
297775,2022-09-30_15h25.50.596,vts_reward_expectancy,2022.2.4,MacIntel,59.99880002,Chrome,1440,900,,,,,0,688,,,,,,,,,,,,,,,,,S,139,star,1,0,,,,,,,,,,,,,,,,switch,letter,lettSwt,f,1.2323,Hi,,,,,,0,,,,,,,,low,8,0,8,0,1,,,,,,,,,
297775,2022-09-30_15h25.50.596,vts_reward_expectancy,2022.2.4,MacIntel,59.99880002,Chrome,1440,900,,,,,1,689,,,,,,,,,,,,,,,,,W,174,triangle,1,0,,,,,,,,,,,,,,,,repeat,letter,lettRpt,f,0.8662,Lo,,,,,,0,,,,,,,,low,9,0,9,0,1,,,,,,,,,
297775,2022-09-30_15h25.50.596,vts_reward_expectancy,2022.2.4,MacIntel,59.99880002,Chrome,1440,900,,,,,10,699,,,,,,,,,,,,,,,,,F,146,star,1,0,,,,,,,,,,,,,,,,repeat,letter,lettRpt,d,1.0507,Hi,,,,,,0,,,,,,,,low,10,0,10,0,1,,,,,,,,,
297775,2022-09-30_15h25.50.596,vts_reward_expectancy,2022.2.4,MacIntel,59.99880002,Chrome,1440,900,,,,,1,700,,,,,,,,,,,,,,,,,U,181,triangle,1,0,,,,,,,,,,,,,,,,switch,number,numSwt,k,1.0496,Lo,,,,,,0,,,,,,,,low,11,0,11,0,1,,,,,,,,,
297775,2022-09-30_15h25.50.596,vts_reward_expectancy,2022.2.4,MacIntel,59.99880002,Chrome,1440,900,,,,,1,701,,,,,,,,,,,,,,,,,H,160,triangle,1,0,,,,,,,,,,,,,,,,repeat,number,numRpt,k,0.5012,Lo,,,,,,0,,,,,,,,low,12,0,12,0,1,,,,,,,,,
297775,2022-09-30_15h25.50.596,vts_reward_expectancy,2022.2.4,MacIntel,59.99880002,Chrome,1440,900,,,,,10,711,,,,,,,,,,,,,,,,,D,167,star,1,0,,,,,,,,,,,,,,,,repeat,number,numRpt,k,0.6299,Hi,,,,,,0,,,,,,,,low,13,0,13,0,1,,,,,,,,,
297775,2022-09-30_15h25.50.596,vts_reward_expectancy,2022.2.4,MacIntel,59.99880002,Chrome,1440,900,,,,,0,711,,,,,,,,,,,,,,,,,B,125,star,1,0,,,,,,,,,,,,,,,,switch,letter,lettSwt,d,1.1396,Hi,,,,,,0,,,,,,,,low,14,0,14,0,1,,,,,,,,,
297775,2022-09-30_15h25.50.596,vts_reward_expectancy,2022.2.4,MacIntel,59.99880002,Chrome,1440,900,,,,,1,712,,,,,,,,,,,,,,,,,Y,132,triangle,1,0,,,,,,,,,,,,,,,,repeat,letter,lettRpt,f,0.8294,Lo,,,,,,0,,,,,,,,low,15,0,15,0,1,,,,,,,,,
297775,2022-09-30_15h25.50.596,vts_reward_expectancy,2022.2.4,MacIntel,59.99880002,Chrome,1440,900,,,,,0,712,,,,,,,,,,,,,,,,,B,160,star,1,0,,,,,,,,,,,,,,,,repeat,letter,lettRpt,d,1.6136,Hi,,,,,,0,,,,,,,,low,16,0,16,0,1,,,,,,,,,
297775,2022-09-30_15h25.50.596,vts_reward_expectancy,2022.2.4,MacIntel,59.99880002,Chrome,1440,900,,,,,0,712,,,,,,,,,,,,,,,,,F,167,triangle,0,0,,,,,,,,,,,,,,,,repeat,letter,NA,f,0.7302,Hi,,,,,,0,,,,,,,,low,17,0,17,0,1,,,,,,,,,
297775,2022-09-30_15h25.50.596,vts_reward_expectancy,2022.2.4,MacIntel,59.99880002,Chrome,1440,900,,,,,0,712,,,,,,,,,,,,,,,,,U,125,star,1,1,,,,,,,,,,,,,,,,repeat,letter,lettRpt,f,2.1315,Hi,,,,,,0,,,,,,,,low,18,0,18,0,1,,,,,,,,,
297775,2022-09-30_15h25.50.596,vts_reward_expectancy,2022.2.4,MacIntel,59.99880002,Chrome,1440,900,,,,,10,722,,,,,,,,,,,,,,,,,Y,139,triangle,1,0,,,,,,,,,,,,,,,,switch,number,numSwt,j,1.8974,Lo,,,,,,0,,,,,,,,low,19,0,19,0,1,,,,,,,,,
297775,2022-09-30_15h25.50.596,vts_reward_expectancy,2022.2.4,MacIntel,59.99880002,Chrome,1440,900,,,,,10,732,,,,,,,,,,,,,,,,,W,132,triangle,1,0,,,,,,,,,,,,,,,,repeat,number,numRpt,j,1.6136,Lo,,,,,,0,,,,,,,,low,20,0,20,0,1,,,,,,,,,
297775,2022-09-30_15h25.50.596,vts_reward_expectancy,2022.2.4,MacIntel,59.99880002,Chrome,1440,900,,,,,1,733,,,,,,,,,,,,,,,,,H,174,star,1,0,,,,,,,,,,,,,,,,repeat,number,numRpt,k,0.6961,Hi,,,,,,0,,,,,,,,low,21,0,21,0,1,,,,,,,,,
297775,2022-09-30_15h25.50.596,vts_reward_expectancy,2022.2.4,MacIntel,59.99880002,Chrome,1440,900,,,,,0,733,,,,,,,,,,,,,,,,,D,181,triangle,0,0,,,,,,,,,,,,,,,,repeat,number,NA,j,0.9152,Hi,,,,,,0,,,,,,,,low,22,0,22,0,1,,,,,,,,,
297775,2022-09-30_15h25.50.596,vts_reward_expectancy,2022.2.4,MacIntel,59.99880002,Chrome,1440,900,,,,,0,733,,,,,,,,,,,,,,,,,S,146,star,0,1,,,,,,,,,,,,,,,,repeat,number,NA,k,0.7463,Hi,,,,,,0,,,,,,,,low,23,0,23,0,1,,,,,,,,,
297775,2022-09-30_15h25.50.596,vts_reward_expectancy,2022.2.4,MacIntel,59.99880002,Chrome,1440,900,,,,,10,743,,,,,,,,,,,,,,,,,U,174,star,1,1,,,,,,,,,,,,,,,,switch,letter,lettSwt,f,0.8166,Hi,,,,,,0,,,,,,,,low,24,0,24,0,1,,,,,,,,,
297775,2022-09-30_15h25.50.596,vts_reward_expectancy,2022.2.4,MacIntel,59.99880002,Chrome,1440,900,,,,,10,753,,,,,,,,,,,,,,,,,S,167,triangle,1,0,,,,,,,,,,,,,,,,switch,number,numSwt,k,1.0141,Lo,,,,,,0,,,,,,,,low,25,0,25,0,1,,,,,,,,,
297775,2022-09-30_15h25.50.596,vts_reward_expectancy,2022.2.4,MacIntel,59.99880002,Chrome,1440,900,,,,,1,754,,,,,,,,,,,,,,,,,Y,146,star,1,0,,,,,,,,,,,,,,,,switch,letter,lettSwt,f,0.6179,Hi,,,,,,0,,,,,,,,low,26,0,26,0,1,,,,,,,,,
297775,2022-09-30_15h25.50.596,vts_reward_expectancy,2022.2.4,MacIntel,59.99880002,Chrome,1440,900,,,,,1,755,,,,,,,,,,,,,,,,,B,132,triangle,1,0,,,,,,,,,,,,,,,,repeat,letter,lettRpt,d,0.7317,Lo,,,,,,0,,,,,,,,low,27,0,27,0,1,,,,,,,,,
297775,2022-09-30_15h25.50.596,vts_reward_expectancy,2022.2.4,MacIntel,59.99880002,Chrome,1440,900,,,,,0,755,,,,,,,,,,,,,,,,,D,125,star,0,0,,,,,,,,,,,,,,,,repeat,letter,NA,f,0.7473,Lo,,,,,,0,,,,,,,,low,28,0,28,0,1,,,,,,,,,
297775,2022-09-30_15h25.50.596,vts_reward_expectancy,2022.2.4,MacIntel,59.99880002,Chrome,1440,900,,,,,10,765,,,,,,,,,,,,,,,,,H,181,triangle,1,1,,,,,,,,,,,,,,,,repeat,letter,lettRpt,d,0.7265,Lo,,,,,,0,,,,,,,,low,29,0,29,0,1,,,,,,,,,
297775,2022-09-30_15h25.50.596,vts_reward_expectancy,2022.2.4,MacIntel,59.99880002,Chrome,1440,900,,,,,1,766,,,,,,,,,,,,,,,,,F,139,triangle,1,0,,,,,,,,,,,,,,,,repeat,letter,lettRpt,d,0.6791,Lo,,,,,,0,,,,,,,,low,30,0,30,0,1,,,,,,,,,
297775,2022-09-30_15h25.50.596,vts_reward_expectancy,2022.2.4,MacIntel,59.99880002,Chrome,1440,900,,,,,1,767,,,,,,,,,,,,,,,,,W,160,star,1,0,,,,,,,,,,,,,,,,switch,number,numSwt,k,0.765,Hi,,,,,,0,,,,,,,,low,31,0,31,0,1,,,,,,,,,
297775,2022-09-30_15h25.50.596,vts_reward_expectancy,2022.2.4,MacIntel,59.99880002,Chrome,1440,900,,,,,0,767,,,,,,,,,,,,,,,,,F,146,circle,1,0,,,,,,,,,,,,,,,,switch,letter,lettSwt,d,0.963,Hi,,,,,,1,,,,,,space,2.14,high,0,0,0,0,1,,,,,,,,,
297775,2022-09-30_15h25.50.596,vts_reward_expectancy,2022.2.4,MacIntel,59.99880002,Chrome,1440,900,,,,,1,768,,,,,,,,,,,,,,,,,D,125,hexagon,1,0,,,,,,,,,,,,,,,,switch,number,numSwt,j,0.6802,Lo,,,,,,1,,,,,,,,high,1,0,1,0,1,,,,,,,,,
297775,2022-09-30_15h25.50.596,vts_reward_expectancy,2022.2.4,MacIntel,59.99880002,Chrome,1440,900,,,,,0,768,,,,,,,,,,,,,,,,,S,181,circle,1,0,,,,,,,,,,,,,,,,switch,letter,lettSwt,f,0.8218,Hi,,,,,,1,,,,,,,,high,2,0,2,0,1,,,,,,,,,
297775,2022-09-30_15h25.50.596,vts_reward_expectancy,2022.2.4,MacIntel,59.99880002,Chrome,1440,900,,,,,1,769,,,,,,,,,,,,,,,,,Y,160,hexagon,1,0,,,,,,,,,,,,,,,,switch,number,numSwt,k,0.7217,Lo,,,,,,1,,,,,,,,high,3,0,3,0,1,,,,,,,,,
297775,2022-09-30_15h25.50.596,vts_reward_expectancy,2022.2.4,MacIntel,59.99880002,Chrome,1440,900,,,,,10,779,,,,,,,,,,,,,,,,,U,139,circle,1,0,,,,,,,,,,,,,,,,switch,letter,lettSwt,f,0.65,Hi,,,,,,1,,,,,,,,high,4,0,4,0,1,,,,,,,,,
297775,2022-09-30_15h25.50.596,vts_reward_expectancy,2022.2.4,MacIntel,59.99880002,Chrome,1440,900,,,,,10,789,,,,,,,,,,,,,,,,,W,167,hexagon,1,0,,,,,,,,,,,,,,,,repeat,letter,lettRpt,f,0.6478,Lo,,,,,,1,,,,,,,,high,5,0,5,0,1,,,,,,,,,
297775,2022-09-30_15h25.50.596,vts_reward_expectancy,2022.2.4,MacIntel,59.99880002,Chrome,1440,900,,,,,0,789,,,,,,,,,,,,,,,,,H,132,hexagon,0,0,,,,,,,,,,,,,,,,repeat,letter,NA,f,0.447,Lo,,,,,,1,,,,,,,,high,6,0,6,0,1,,,,,,,,,
297775,2022-09-30_15h25.50.596,vts_reward_expectancy,2022.2.4,MacIntel,59.99880002,Chrome,1440,900,,,,,10,799,,,,,,,,,,,,,,,,,B,174,circle,1,1,,,,,,,,,,,,,,,,repeat,letter,lettRpt,d,0.7363,Hi,,,,,,1,,,,,,,,high,7,0,7,0,1,,,,,,,,,
297775,2022-09-30_15h25.50.596,vts_reward_expectancy,2022.2.4,MacIntel,59.99880002,Chrome,1440,900,,,,,0,799,,,,,,,,,,,,,,,,,F,146,circle,1,0,,,,,,,,,,,,,,,,repeat,letter,lettRpt,d,0.9802,Hi,,,,,,1,,,,,,,,high,8,0,8,0,1,,,,,,,,,
297775,2022-09-30_15h25.50.596,vts_reward_expectancy,2022.2.4,MacIntel,59.99880002,Chrome,1440,900,,,,,10,809,,,,,,,,,,,,,,,,,D,125,hexagon,1,0,,,,,,,,,,,,,,,,switch,number,numSwt,j,1.0489,Lo,,,,,,1,,,,,,,,high,9,0,9,0,1,,,,,,,,,
297775,2022-09-30_15h25.50.596,vts_reward_expectancy,2022.2.4,MacIntel,59.99880002,Chrome,1440,900,,,,,0,809,,,,,,,,,,,,,,,,,S,181,circle,1,0,,,,,,,,,,,,,,,,switch,letter,lettSwt,f,0.8975,Hi,,,,,,1,,,,,,,,high,10,0,10,0,1,,,,,,,,,
297775,2022-09-30_15h25.50.596,vts_reward_expectancy,2022.2.4,MacIntel,59.99880002,Chrome,1440,900,,,,,1,810,,,,,,,,,,,,,,,,,Y,160,hexagon,1,0,,,,,,,,,,,,,,,,switch,number,numSwt,k,0.8789,Lo,,,,,,1,,,,,,,,high,11,0,11,0,1,,,,,,,,,
297775,2022-09-30_15h25.50.596,vts_reward_expectancy,2022.2.4,MacIntel,59.99880002,Chrome,1440,900,,,,,1,811,,,,,,,,,,,,,,,,,U,139,hexagon,1,0,,,,,,,,,,,,,,,,repeat,number,numRpt,j,0.9805,Lo,,,,,,1,,,,,,,,high,12,0,12,0,1,,,,,,,,,
297775,2022-09-30_15h25.50.596,vts_reward_expectancy,2022.2.4,MacIntel,59.99880002,Chrome,1440,900,,,,,0,811,,,,,,,,,,,,,,,,,W,167,circle,1,0,,,,,,,,,,,,,,,,switch,letter,lettSwt,f,0.9975,Hi,,,,,,1,,,,,,,,high,13,0,13,0,1,,,,,,,,,
297775,2022-09-30_15h25.50.596,vts_reward_expectancy,2022.2.4,MacIntel,59.99880002,Chrome,1440,900,,,,,10,821,,,,,,,,,,,,,,,,,H,132,circle,1,0,,,,,,,,,,,,,,,,repeat,letter,lettRpt,d,0.6504,Hi,,,,,,1,,,,,,,,high,14,0,14,0,1,,,,,,,,,
297775,2022-09-30_15h25.50.596,vts_reward_expectancy,2022.2.4,MacIntel,59.99880002,Chrome,1440,900,,,,,1,822,,,,,,,,,,,,,,,,,B,174,hexagon,1,0,,,,,,,,,,,,,,,,repeat,letter,lettRpt,d,0.6163,Lo,,,,,,1,,,,,,,,high,15,0,15,0,1,,,,,,,,,
297775,2022-09-30_15h25.50.596,vts_reward_expectancy,2022.2.4,MacIntel,59.99880002,Chrome,1440,900,,,,,10,832,,,,,,,,,,,,,,,,,D,125,circle,1,0,,,,,,,,,,,,,,,,repeat,letter,lettRpt,d,0.6535,Hi,,,,,,1,,,,,,,,high,16,0,16,0,1,,,,,,,,,
297775,2022-09-30_15h25.50.596,vts_reward_expectancy,2022.2.4,MacIntel,59.99880002,Chrome,1440,900,,,,,10,842,,,,,,,,,,,,,,,,,W,146,hexagon,1,0,,,,,,,,,,,,,,,,repeat,letter,lettRpt,f,0.7807,Lo,,,,,,1,,,,,,,,high,17,0,17,0,1,,,,,,,,,
297775,2022-09-30_15h25.50.596,vts_reward_expectancy,2022.2.4,MacIntel,59.99880002,Chrome,1440,900,,,,,1,843,,,,,,,,,,,,,,,,,B,174,circle,1,0,,,,,,,,,,,,,,,,repeat,letter,lettRpt,d,0.5118,Hi,,,,,,1,,,,,,,,high,18,0,18,0,1,,,,,,,,,
297775,2022-09-30_15h25.50.596,vts_reward_expectancy,2022.2.4,MacIntel,59.99880002,Chrome,1440,900,,,,,10,853,,,,,,,,,,,,,,,,,U,167,hexagon,1,0,,,,,,,,,,,,,,,,repeat,letter,lettRpt,f,0.6671,Lo,,,,,,1,,,,,,,,high,19,0,19,0,1,,,,,,,,,
297775,2022-09-30_15h25.50.596,vts_reward_expectancy,2022.2.4,MacIntel,59.99880002,Chrome,1440,900,,,,,0,853,,,,,,,,,,,,,,,,,F,181,circle,1,0,,,,,,,,,,,,,,,,repeat,letter,lettRpt,d,0.999,Hi,,,,,,1,,,,,,,,high,20,0,20,0,1,,,,,,,,,
297775,2022-09-30_15h25.50.596,vts_reward_expectancy,2022.2.4,MacIntel,59.99880002,Chrome,1440,900,,,,,1,854,,,,,,,,,,,,,,,,,H,160,hexagon,1,0,,,,,,,,,,,,,,,,repeat,letter,lettRpt,d,0.7312,Lo,,,,,,1,,,,,,,,high,21,0,21,0,1,,,,,,,,,
297775,2022-09-30_15h25.50.596,vts_reward_expectancy,2022.2.4,MacIntel,59.99880002,Chrome,1440,900,,,,,1,855,,,,,,,,,,,,,,,,,S,132,circle,1,0,,,,,,,,,,,,,,,,repeat,letter,lettRpt,f,0.6476,Hi,,,,,,1,,,,,,,,high,22,0,22,0,1,,,,,,,,,
297775,2022-09-30_15h25.50.596,vts_reward_expectancy,2022.2.4,MacIntel,59.99880002,Chrome,1440,900,,,,,0,855,,,,,,,,,,,,,,,,,Y,139,hexagon,0,0,,,,,,,,,,,,,,,,switch,number,NA,k,0.6628,Hi,,,,,,1,,,,,,,,high,23,0,23,0,1,,,,,,,,,
297775,2022-09-30_15h25.50.596,vts_reward_expectancy,2022.2.4,MacIntel,59.99880002,Chrome,1440,900,,,,,10,865,,,,,,,,,,,,,,,,,B,139,circle,1,1,,,,,,,,,,,,,,,,switch,letter,lettSwt,d,0.6199,Hi,,,,,,1,,,,,,,,high,24,0,24,0,1,,,,,,,,,
297775,2022-09-30_15h25.50.596,vts_reward_expectancy,2022.2.4,MacIntel,59.99880002,Chrome,1440,900,,,,,0,865,,,,,,,,,,,,,,,,,D,174,hexagon,0,0,,,,,,,,,,,,,,,,repeat,letter,NA,f,0.6801,Hi,,,,,,1,,,,,,,,high,25,0,25,0,1,,,,,,,,,
297775,2022-09-30_15h25.50.596,vts_reward_expectancy,2022.2.4,MacIntel,59.99880002,Chrome,1440,900,,,,,10,875,,,,,,,,,,,,,,,,,Y,125,hexagon,1,1,,,,,,,,,,,,,,,,switch,number,numSwt,j,1.3802,Lo,,,,,,1,,,,,,,,high,26,0,26,0,1,,,,,,,,,
297775,2022-09-30_15h25.50.596,vts_reward_expectancy,2022.2.4,MacIntel,59.99880002,Chrome,1440,900,,,,,0,875,,,,,,,,,,,,,,,,,S,146,circle,0,0,,,,,,,,,,,,,,,,switch,letter,NA,d,0.7631,Lo,,,,,,1,,,,,,,,high,27,0,27,0,1,,,,,,,,,
297775,2022-09-30_15h25.50.596,vts_reward_expectancy,2022.2.4,MacIntel,59.99880002,Chrome,1440,900,,,,,0,875,,,,,,,,,,,,,,,,,U,160,hexagon,0,1,,,,,,,,,,,,,,,,switch,number,NA,j,0.7632,Lo,,,,,,1,,,,,,,,high,28,0,28,0,1,,,,,,,,,
297775,2022-09-30_15h25.50.596,vts_reward_expectancy,2022.2.4,MacIntel,59.99880002,Chrome,1440,900,,,,,0,875,,,,,,,,,,,,,,,,,W,167,circle,1,1,,,,,,,,,,,,,,,,switch,letter,lettSwt,f,0.98,Hi,,,,,,1,,,,,,,,high,29,0,29,0,1,,,,,,,,,
297775,2022-09-30_15h25.50.596,vts_reward_expectancy,2022.2.4,MacIntel,59.99880002,Chrome,1440,900,,,,,1,876,,,,,,,,,,,,,,,,,F,181,circle,1,0,,,,,,,,,,,,,,,,repeat,letter,lettRpt,d,0.7136,Hi,,,,,,1,,,,,,,,high,30,0,30,0,1,,,,,,,,,
297775,2022-09-30_15h25.50.596,vts_reward_expectancy,2022.2.4,MacIntel,59.99880002,Chrome,1440,900,,,,,10,886,,,,,,,,,,,,,,,,,H,132,hexagon,1,0,,,,,,,,,,,,,,,,switch,number,numSwt,j,0.7974,Lo,,,,,,1,,,,,,,,high,31,0,31,0,1,,,,,,,,,
297775,2022-09-30_15h25.50.596,vts_reward_expectancy,2022.2.4,MacIntel,59.99880002,Chrome,1440,900,,,,,0,886,,,,,,,,,,,,,,,,,U,174,star,0,0,,,,,,,,,,,,,,,,switch,letter,NA,d,0.447,Lo,,,,,,2,,,,,,space,1.0398,low,0,0,0,0,1,,,,,,,,,
297775,2022-09-30_15h25.50.596,vts_reward_expectancy,2022.2.4,MacIntel,59.99880002,Chrome,1440,900,,,,,10,896,,,,,,,,,,,,,,,,,W,139,triangle,1,1,,,,,,,,,,,,,,,,switch,number,numSwt,j,0.7973,Lo,,,,,,2,,,,,,,,low,1,0,1,0,1,,,,,,,,,
297775,2022-09-30_15h25.50.596,vts_reward_expectancy,2022.2.4,MacIntel,59.99880002,Chrome,1440,900,,,,,10,906,,,,,,,,,,,,,,,,,Y,132,star,1,0,,,,,,,,,,,,,,,,switch,letter,lettSwt,f,0.6789,Hi,,,,,,2,,,,,,,,low,2,0,2,0,1,,,,,,,,,
297775,2022-09-30_15h25.50.596,vts_reward_expectancy,2022.2.4,MacIntel,59.99880002,Chrome,1440,900,,,,,1,907,,,,,,,,,,,,,,,,,F,167,triangle,1,0,,,,,,,,,,,,,,,,switch,number,numSwt,k,0.9699,Lo,,,,,,2,,,,,,,,low,3,0,3,0,1,,,,,,,,,
297775,2022-09-30_15h25.50.596,vts_reward_expectancy,2022.2.4,MacIntel,59.99880002,Chrome,1440,900,,,,,10,917,,,,,,,,,,,,,,,,,H,181,triangle,1,0,,,,,,,,,,,,,,,,repeat,number,numRpt,k,0.7147,Lo,,,,,,2,,,,,,,,low,4,0,4,0,1,,,,,,,,,
297775,2022-09-30_15h25.50.596,vts_reward_expectancy,2022.2.4,MacIntel,59.99880002,Chrome,1440,900,,,,,1,918,,,,,,,,,,,,,,,,,S,160,star,1,0,,,,,,,,,,,,,,,,switch,letter,lettSwt,f,0.6992,Hi,,,,,,2,,,,,,,,low,5,0,5,0,1,,,,,,,,,
297775,2022-09-30_15h25.50.596,vts_reward_expectancy,2022.2.4,MacIntel,59.99880002,Chrome,1440,900,,,,,0,918,,,,,,,,,,,,,,,,,D,125,star,1,0,,,,,,,,,,,,,,,,repeat,letter,lettRpt,d,1.3164,Hi,,,,,,2,,,,,,,,low,6,0,6,0,1,,,,,,,,,
297775,2022-09-30_15h25.50.596,vts_reward_expectancy,2022.2.4,MacIntel,59.99880002,Chrome,1440,900,,,,,10,928,,,,,,,,,,,,,,,,,B,146,triangle,1,0,,,,,,,,,,,,,,,,repeat,letter,lettRpt,d,0.7525,Lo,,,,,,2,,,,,,,,low,7,0,7,0,1,,,,,,,,,
297775,2022-09-30_15h25.50.596,vts_reward_expectancy,2022.2.4,MacIntel,59.99880002,Chrome,1440,900,,,,,0,928,,,,,,,,,,,,,,,,,U,174,star,1,0,,,,,,,,,,,,,,,,switch,number,numSwt,k,1.0977,Hi,,,,,,2,,,,,,,,low,8,0,8,0,1,,,,,,,,,
297775,2022-09-30_15h25.50.596,vts_reward_expectancy,2022.2.4,MacIntel,59.99880002,Chrome,1440,900,,,,,0,928,,,,,,,,,,,,,,,,,W,139,triangle,0,0,,,,,,,,,,,,,,,,repeat,number,NA,k,0.2131,Hi,,,,,,2,,,,,,,,low,9,0,9,0,1,,,,,,,,,
297775,2022-09-30_15h25.50.596,vts_reward_expectancy,2022.2.4,MacIntel,59.99880002,Chrome,1440,900,,,,,10,938,,,,,,,,,,,,,,,,,Y,132,triangle,1,1,,,,,,,,,,,,,,,,switch,letter,lettSwt,f,0.2004,Lo,,,,,,2,,,,,,,,low,10,0,10,0,1,,,,,,,,,
297775,2022-09-30_15h25.50.596,vts_reward_expectancy,2022.2.4,MacIntel,59.99880002,Chrome,1440,900,,,,,10,948,,,,,,,,,,,,,,,,,F,167,star,1,0,,,,,,,,,,,,,,,,repeat,letter,lettRpt,d,0.0448,Hi,,,,,,2,,,,,,,,low,11,0,11,0,1,,,,,,,,,
297775,2022-09-30_15h25.50.596,vts_reward_expectancy,2022.2.4,MacIntel,59.99880002,Chrome,1440,900,,,,,0,948,,,,,,,,,,,,,,,,,H,181,star,0,0,,,,,,,,,,,,,,,,repeat,letter,NA,f,0.3136,Hi,,,,,,2,,,,,,,,low,12,0,12,0,1,,,,,,,,,
297775,2022-09-30_15h25.50.596,vts_reward_expectancy,2022.2.4,MacIntel,59.99880002,Chrome,1440,900,,,,,1,949,,,,,,,,,,,,,,,,,S,160,triangle,1,1,,,,,,,,,,,,,,,,switch,number,numSwt,k,0.0003,Lo,,,,,,2,,,,,,,,low,13,0,13,0,1,,,,,,,,,
297775,2022-09-30_15h25.50.596,vts_reward_expectancy,2022.2.4,MacIntel,59.99880002,Chrome,1440,900,,,,,0,949,,,,,,,,,,,,,,,,,D,125,triangle,0,0,,,,,,,,,,,,,,,,switch,letter,NA,f,0.0127,Lo,,,,,,2,,,,,,,,low,14,0,14,0,1,,,,,,,,,
297775,2022-09-30_15h25.50.596,vts_reward_expectancy,2022.2.4,MacIntel,59.99880002,Chrome,1440,900,,,,,1,950,,,,,,,,,,,,,,,,,B,146,star,1,1,,,,,,,,,,,,,,,,repeat,letter,lettRpt,d,0.1979,Hi,,,,,,2,,,,,,,,low,15,0,15,0,1,,,,,,,,,
297775,2022-09-30_15h25.50.596,vts_reward_expectancy,2022.2.4,MacIntel,59.99880002,Chrome,1440,900,,,,,1,951,,,,,,,,,,,,,,,,,U,146,triangle,1,0,,,,,,,,,,,,,,,,repeat,letter,lettRpt,f,0.0003,Lo,,,,,,2,,,,,,,,low,16,0,16,0,1,,,,,,,,,
297775,2022-09-30_15h25.50.596,vts_reward_expectancy,2022.2.4,MacIntel,59.99880002,Chrome,1440,900,,,,,10,961,,,,,,,,,,,,,,,,,H,160,star,1,0,,,,,,,,,,,,,,,,repeat,letter,lettRpt,d,0.0659,Hi,,,,,,2,,,,,,,,low,17,0,17,0,1,,,,,,,,,
297775,2022-09-30_15h25.50.596,vts_reward_expectancy,2022.2.4,MacIntel,59.99880002,Chrome,1440,900,,,,,1,962,,,,,,,,,,,,,,,,,Y,132,triangle,1,0,,,,,,,,,,,,,,,,switch,number,numSwt,j,0.0829,Lo,,,,,,2,,,,,,,,low,18,0,18,0,1,,,,,,,,,
297775,2022-09-30_15h25.50.596,vts_reward_expectancy,2022.2.4,MacIntel,59.99880002,Chrome,1440,900,,,,,0,962,,,,,,,,,,,,,,,,,S,125,star,0,0,,,,,,,,,,,,,,,,switch,letter,NA,d,0.0378,Lo,,,,,,2,,,,,,,,low,19,0,19,0,1,,,,,,,,,
297775,2022-09-30_15h25.50.596,vts_reward_expectancy,2022.2.4,MacIntel,59.99880002,Chrome,1440,900,,,,,0,962,,,,,,,,,,,,,,,,,D,181,triangle,0,1,,,,,,,,,,,,,,,,switch,number,NA,j,0.1311,Lo,,,,,,2,,,,,,,,low,20,0,20,0,1,,,,,,,,,
297775,2022-09-30_15h25.50.596,vts_reward_expectancy,2022.2.4,MacIntel,59.99880002,Chrome,1440,900,,,,,0,962,,,,,,,,,,,,,,,,,W,139,star,0,1,,,,,,,,,,,,,,,,repeat,number,NA,k,0.3161,Lo,,,,,,2,,,,,,,,low,21,0,21,0,1,,,,,,,,,
297775,2022-09-30_15h25.50.596,vts_reward_expectancy,2022.2.4,MacIntel,59.99880002,Chrome,1440,900,,,,,0,962,,,,,,,,,,,,,,,,,B,167,triangle,0,1,,,,,,,,,,,,,,,,repeat,number,NA,j,0.4367,Lo,,,,,,2,,,,,,,,low,22,0,22,0,1,,,,,,,,,
297775,2022-09-30_15h25.50.596,vts_reward_expectancy,2022.2.4,MacIntel,59.99880002,Chrome,1440,900,,,,,1,963,,,,,,,,,,,,,,,,,F,174,star,1,1,,,,,,,,,,,,,,,,repeat,number,numRpt,k,0.8638,Hi,,,,,,2,,,,,,,,low,23,0,23,0,1,,,,,,,,,
297775,2022-09-30_15h25.50.596,vts_reward_expectancy,2022.2.4,MacIntel,59.99880002,Chrome,1440,900,,,,,0,963,,,,,,,,,,,,,,,,,H,146,star,0,0,,,,,,,,,,,,,,,,repeat,number,NA,k,0.6213,Hi,,,,,,2,,,,,,,,low,24,0,24,0,1,,,,,,,,,
297775,2022-09-30_15h25.50.596,vts_reward_expectancy,2022.2.4,MacIntel,59.99880002,Chrome,1440,900,,,,,0,963,,,,,,,,,,,,,,,,,S,167,triangle,0,1,,,,,,,,,,,,,,,,switch,letter,NA,d,0.4878,Hi,,,,,,2,,,,,,,,low,25,0,25,0,1,,,,,,,,,
297775,2022-09-30_15h25.50.596,vts_reward_expectancy,2022.2.4,MacIntel,59.99880002,Chrome,1440,900,,,,,1,964,,,,,,,,,,,,,,,,,F,174,triangle,1,1,,,,,,,,,,,,,,,,switch,number,numSwt,k,0.9209,Lo,,,,,,2,,,,,,,,low,26,0,26,0,1,,,,,,,,,
297775,2022-09-30_15h25.50.596,vts_reward_expectancy,2022.2.4,MacIntel,59.99880002,Chrome,1440,900,,,,,0,964,,,,,,,,,,,,,,,,,B,139,star,0,0,,,,,,,,,,,,,,,,repeat,number,NA,k,0.7798,Lo,,,,,,2,,,,,,,,low,27,0,27,0,1,,,,,,,,,
297775,2022-09-30_15h25.50.596,vts_reward_expectancy,2022.2.4,MacIntel,59.99880002,Chrome,1440,900,,,,,0,964,,,,,,,,,,,,,,,,,Y,132,triangle,0,1,,,,,,,,,,,,,,,,repeat,number,NA,k,0.6803,Lo,,,,,,2,,,,,,,,low,28,0,28,0,1,,,,,,,,,
297775,2022-09-30_15h25.50.596,vts_reward_expectancy,2022.2.4,MacIntel,59.99880002,Chrome,1440,900,,,,,0,964,,,,,,,,,,,,,,,,,W,181,star,1,1,,,,,,,,,,,,,,,,repeat,number,numRpt,k,1.447,Hi,,,,,,2,,,,,,,,low,29,0,29,0,1,,,,,,,,,
297775,2022-09-30_15h25.50.596,vts_reward_expectancy,2022.2.4,MacIntel,59.99880002,Chrome,1440,900,,,,,10,974,,,,,,,,,,,,,,,,,U,160,triangle,1,0,,,,,,,,,,,,,,,,repeat,number,numRpt,k,0.9983,Lo,,,,,,2,,,,,,,,low,30,0,30,0,1,,,,,,,,,
297775,2022-09-30_15h25.50.596,vts_reward_expectancy,2022.2.4,MacIntel,59.99880002,Chrome,1440,900,,,,,0,974,,,,,,,,,,,,,,,,,D,125,star,1,0,,,,,,,,,,,,,,,,switch,letter,lettSwt,d,1.1797,Hi,,,,,,2,,,,,,,,low,31,0,31,0,1,,,,,,,,,
297775,2022-09-30_15h25.50.596,vts_reward_expectancy,2022.2.4,MacIntel,59.99880002,Chrome,1440,900,,,,,0,974,,,,,,,,,,,,,,,,,W,160,circle,1,0,,,,,,,,,,,,,,,,repeat,letter,lettRpt,f,0.9479,Hi,,,,,,3,,,,,,space,1.066,high,0,0,0,0,1,,,,,,,,,
297775,2022-09-30_15h25.50.596,vts_reward_expectancy,2022.2.4,MacIntel,59.99880002,Chrome,1440,900,,,,,1,975,,,,,,,,,,,,,,,,,B,146,hexagon,1,0,,,,,,,,,,,,,,,,repeat,letter,lettRpt,d,0.5984,Lo,,,,,,3,,,,,,,,high,1,0,1,0,1,,,,,,,,,
297775,2022-09-30_15h25.50.596,vts_reward_expectancy,2022.2.4,MacIntel,59.99880002,Chrome,1440,900,,,,,0,975,,,,,,,,,,,,,,,,,S,167,circle,1,0,,,,,,,,,,,,,,,,repeat,letter,lettRpt,f,0.7797,Hi,,,,,,3,,,,,,,,high,2,0,2,0,1,,,,,,,,,
297775,2022-09-30_15h25.50.596,vts_reward_expectancy,2022.2.4,MacIntel,59.99880002,Chrome,1440,900,,,,,10,985,,,,,,,,,,,,,,,,,H,125,hexagon,1,0,,,,,,,,,,,,,,,,switch,number,numSwt,j,0.8968,Lo,,,,,,3,,,,,,,,high,3,0,3,0,1,,,,,,,,,
297775,2022-09-30_15h25.50.596,vts_reward_expectancy,2022.2.4,MacIntel,59.99880002,Chrome,1440,900,,,,,1,986,,,,,,,,,,,,,,,,,D,139,hexagon,1,0,,,,,,,,,,,,,,,,repeat,number,numRpt,j,1.2158,Lo,,,,,,3,,,,,,,,high,4,0,4,0,1,,,,,,,,,
297775,2022-09-30_15h25.50.596,vts_reward_expectancy,2022.2.4,MacIntel,59.99880002,Chrome,1440,900,,,,,0,986,,,,,,,,,,,,,,,,,F,132,circle,1,0,,,,,,,,,,,,,,,,switch,letter,lettSwt,d,1.2305,Hi,,,,,,3,,,,,,,,high,5,0,5,0,1,,,,,,,,,
297775,2022-09-30_15h25.50.596,vts_reward_expectancy,2022.2.4,MacIntel,59.99880002,Chrome,1440,900,,,,,1,987,,,,,,,,,,,,,,,,,U,174,hexagon,1,0,,,,,,,,,,,,,,,,repeat,letter,lettRpt,f,2.0158,Lo,,,,,,3,,,,,,,,high,6,0,6,0,1,,,,,,,,,
297775,2022-09-30_15h25.50.596,vts_reward_expectancy,2022.2.4,MacIntel,59.99880002,Chrome,1440,900,,,,,0,987,,,,,,,,,,,,,,,,,Y,181,circle,1,0,,,,,,,,,,,,,,,,repeat,letter,lettRpt,f,1.1142,Hi,,,,,,3,,,,,,,,high,7,0,7,0,1,,,,,,,,,
297775,2022-09-30_15h25.50.596,vts_reward_expectancy,2022.2.4,MacIntel,59.99880002,Chrome,1440,900,,,,,1,988,,,,,,,,,,,,,,,,,W,160,hexagon,1,0,,,,,,,,,,,,,,,,switch,number,numSwt,k,0.8024,Lo,,,,,,3,,,,,,,,high,8,0,8,0,1,,,,,,,,,
297775,2022-09-30_15h25.50.596,vts_reward_expectancy,2022.2.4,MacIntel,59.99880002,Chrome,1440,900,,,,,10,998,,,,,,,,,,,,,,,,,B,146,circle,1,0,,,,,,,,,,,,,,,,repeat,number,numRpt,j,0.7013,Hi,,,,,,3,,,,,,,,high,9,0,9,0,1,,,,,,,,,
297775,2022-09-30_15h25.50.596,vts_reward_expectancy,2022.2.4,MacIntel,59.99880002,Chrome,1440,900,,,,,10,1008,,,,,,,,,,,,,,,,,S,167,circle,1,0,,,,,,,,,,,,,,,,repeat,number,numRpt,k,0.7149,Hi,,,,,,3,,,,,,,,high,10,0,10,0,1,,,,,,,,,
297775,2022-09-30_15h25.50.596,vts_reward_expectancy,2022.2.4,MacIntel,59.99880002,Chrome,1440,900,,,,,1,1009,,,,,,,,,,,,,,,,,H,125,hexagon,1,0,,,,,,,,,,,,,,,,switch,letter,lettSwt,d,0.7492,Lo,,,,,,3,,,,,,,,high,11,0,11,0,1,,,,,,,,,
297775,2022-09-30_15h25.50.596,vts_reward_expectancy,2022.2.4,MacIntel,59.99880002,Chrome,1440,900,,,,,1,1010,,,,,,,,,,,,,,,,,D,139,hexagon,1,0,,,,,,,,,,,,,,,,repeat,letter,lettRpt,d,0.6647,Lo,,,,,,3,,,,,,,,high,12,0,12,0,1,,,,,,,,,
297775,2022-09-30_15h25.50.596,vts_reward_expectancy,2022.2.4,MacIntel,59.99880002,Chrome,1440,900,,,,,0,1010,,,,,,,,,,,,,,,,,F,132,circle,1,0,,,,,,,,,,,,,,,,switch,number,numSwt,j,0.9452,Hi,,,,,,3,,,,,,,,high,13,0,13,0,1,,,,,,,,,
297775,2022-09-30_15h25.50.596,vts_reward_expectancy,2022.2.4,MacIntel,59.99880002,Chrome,1440,900,,,,,0,1010,,,,,,,,,,,,,,,,,U,174,hexagon,0,0,,,,,,,,,,,,,,,,repeat,number,NA,j,0.8796,Hi,,,,,,3,,,,,,,,high,14,0,14,0,1,,,,,,,,,
297775,2022-09-30_15h25.50.596,vts_reward_expectancy,2022.2.4,MacIntel,59.99880002,Chrome,1440,900,,,,,0,1010,,,,,,,,,,,,,,,,,Y,181,circle,0,1,,,,,,,,,,,,,,,,repeat,number,NA,j,0.3148,Hi,,,,,,3,,,,,,,,high,15,0,15,0,1,,,,,,,,,
297775,2022-09-30_15h25.50.596,vts_reward_expectancy,2022.2.4,MacIntel,59.99880002,Chrome,1440,900,,,,,1,1011,,,,,,,,,,,,,,,,,W,181,hexagon,1,1,,,,,,,,,,,,,,,,repeat,number,numRpt,k,0.1164,Lo,,,,,,3,,,,,,,,high,16,0,16,0,1,,,,,,,,,
297775,2022-09-30_15h25.50.596,vts_reward_expectancy,2022.2.4,MacIntel,59.99880002,Chrome,1440,900,,,,,10,1021,,,,,,,,,,,,,,,,,S,132,circle,1,0,,,,,,,,,,,,,,,,repeat,number,numRpt,j,0.1639,Hi,,,,,,3,,,,,,,,high,17,0,17,0,1,,,,,,,,,
297775,2022-09-30_15h25.50.596,vts_reward_expectancy,2022.2.4,MacIntel,59.99880002,Chrome,1440,900,,,,,0,1021,,,,,,,,,,,,,,,,,D,139,circle,0,0,,,,,,,,,,,,,,,,repeat,number,NA,k,0.4301,Hi,,,,,,3,,,,,,,,high,18,0,18,0,1,,,,,,,,,
297775,2022-09-30_15h25.50.596,vts_reward_expectancy,2022.2.4,MacIntel,59.99880002,Chrome,1440,900,,,,,1,1022,,,,,,,,,,,,,,,,,F,174,hexagon,1,1,,,,,,,,,,,,,,,,switch,letter,lettSwt,d,1.1967,Lo,,,,,,3,,,,,,,,high,19,0,19,0,1,,,,,,,,,
297775,2022-09-30_15h25.50.596,vts_reward_expectancy,2022.2.4,MacIntel,59.99880002,Chrome,1440,900,,,,,0,1022,,,,,,,,,,,,,,,,,Y,146,circle,1,0,,,,,,,,,,,,,,,,switch,number,numSwt,j,1.0983,Hi,,,,,,3,,,,,,,,high,20,0,20,0,1,,,,,,,,,
297775,2022-09-30_15h25.50.596,vts_reward_expectancy,2022.2.4,MacIntel,59.99880002,Chrome,1440,900,,,,,0,1022,,,,,,,,,,,,,,,,,B,125,hexagon,0,0,,,,,,,,,,,,,,,,switch,letter,NA,f,0.9891,Hi,,,,,,3,,,,,,,,high,21,0,21,0,1,,,,,,,,,
297775,2022-09-30_15h25.50.596,vts_reward_expectancy,2022.2.4,MacIntel,59.99880002,Chrome,1440,900,,,,,0,1022,,,,,,,,,,,,,,,,,H,160,circle,0,1,,,,,,,,,,,,,,,,switch,number,NA,j,1.0387,Hi,,,,,,3,,,,,,,,high,22,0,22,0,1,,,,,,,,,
297775,2022-09-30_15h25.50.596,vts_reward_expectancy,2022.2.4,MacIntel,59.99880002,Chrome,1440,900,,,,,1,1023,,,,,,,,,,,,,,,,,U,167,hexagon,1,1,,,,,,,,,,,,,,,,repeat,number,numRpt,k,0.9484,Lo,,,,,,3,,,,,,,,high,23,0,23,0,1,,,,,,,,,
297775,2022-09-30_15h25.50.596,vts_reward_expectancy,2022.2.4,MacIntel,59.99880002,Chrome,1440,900,,,,,1,1024,,,,,,,,,,,,,,,,,S,160,hexagon,1,0,,,,,,,,,,,,,,,,switch,letter,lettSwt,f,1.4222,Lo,,,,,,3,,,,,,,,high,24,0,24,0,1,,,,,,,,,
297775,2022-09-30_15h25.50.596,vts_reward_expectancy,2022.2.4,MacIntel,59.99880002,Chrome,1440,900,,,,,0,1024,,,,,,,,,,,,,,,,,F,132,circle,1,0,,,,,,,,,,,,,,,,switch,number,numSwt,j,0.9807,Hi,,,,,,3,,,,,,,,high,25,0,25,0,1,,,,,,,,,
297775,2022-09-30_15h25.50.596,vts_reward_expectancy,2022.2.4,MacIntel,59.99880002,Chrome,1440,900,,,,,0,1024,,,,,,,,,,,,,,,,,D,139,circle,1,0,,,,,,,,,,,,,,,,switch,letter,lettSwt,d,1.2313,Hi,,,,,,3,,,,,,,,high,26,0,26,0,1,,,,,,,,,
297775,2022-09-30_15h25.50.596,vts_reward_expectancy,2022.2.4,MacIntel,59.99880002,Chrome,1440,900,,,,,1,1025,,,,,,,,,,,,,,,,,U,167,hexagon,1,0,,,,,,,,,,,,,,,,switch,number,numSwt,k,0.9217,Lo,,,,,,3,,,,,,,,high,27,0,27,0,1,,,,,,,,,
297775,2022-09-30_15h25.50.596,vts_reward_expectancy,2022.2.4,MacIntel,59.99880002,Chrome,1440,900,,,,,0,1025,,,,,,,,,,,,,,,,,Y,125,hexagon,0,0,,,,,,,,,,,,,,,,repeat,number,NA,k,1.1122,Lo,,,,,,3,,,,,,,,high,28,0,28,0,1,,,,,,,,,
297775,2022-09-30_15h25.50.596,vts_reward_expectancy,2022.2.4,MacIntel,59.99880002,Chrome,1440,900,,,,,0,1025,,,,,,,,,,,,,,,,,W,146,circle,0,1,,,,,,,,,,,,,,,,repeat,number,NA,k,1.5054,Lo,,,,,,3,,,,,,,,high,29,0,29,0,1,,,,,,,,,
297775,2022-09-30_15h25.50.596,vts_reward_expectancy,2022.2.4,MacIntel,59.99880002,Chrome,1440,900,,,,,0,1025,,,,,,,,,,,,,,,,,H,181,circle,0,1,,,,,,,,,,,,,,,,switch,letter,NA,f,1.1639,Lo,,,,,,3,,,,,,,,high,30,0,30,0,1,,,,,,,,,
297775,2022-09-30_15h25.50.596,vts_reward_expectancy,2022.2.4,MacIntel,59.99880002,Chrome,1440,900,,,,,10,1035,,,,,,,,,,,,,,,,,B,174,hexagon,1,1,,,,,,,,,,,,,,,,repeat,letter,lettRpt,d,0.6671,Lo,,,,,,3,,,,,,,,high,31,0,31,0,1,,,,,,,,,
297775,2022-09-30_15h25.50.596,vts_reward_expectancy,2022.2.4,MacIntel,59.99880002,Chrome,1440,900,,,,,1,1036,,,,,,,,,,,,,,,,,S,174,hexagon,1,0,,,,,,,,,,,,,,,,repeat,letter,lettRpt,f,0.6638,Lo,,,,,,4,,,,,,space,0.756,high,0,0,0,0,1,,,,,,,,,
297775,2022-09-30_15h25.50.596,vts_reward_expectancy,2022.2.4,MacIntel,59.99880002,Chrome,1440,900,,,,,0,1036,,,,,,,,,,,,,,,,,F,132,circle,1,0,,,,,,,,,,,,,,,,repeat,letter,lettRpt,d,0.7989,Hi,,,,,,4,,,,,,,,high,1,0,1,0,1,,,,,,,,,
297775,2022-09-30_15h25.50.596,vts_reward_expectancy,2022.2.4,MacIntel,59.99880002,Chrome,1440,900,,,,,0,1036,,,,,,,,,,,,,,,,,D,181,hexagon,0,0,,,,,,,,,,,,,,,,switch,number,NA,j,0.8467,Hi,,,,,,4,,,,,,,,high,2,0,2,0,1,,,,,,,,,
297775,2022-09-30_15h25.50.596,vts_reward_expectancy,2022.2.4,MacIntel,59.99880002,Chrome,1440,900,,,,,10,1046,,,,,,,,,,,,,,,,,W,146,circle,1,1,,,,,,,,,,,,,,,,repeat,number,numRpt,j,0.0041,Hi,,,,,,4,,,,,,,,high,3,0,3,0,1,,,,,,,,,
297775,2022-09-30_15h25.50.596,vts_reward_expectancy,2022.2.4,MacIntel,59.99880002,Chrome,1440,900,,,,,0,1046,,,,,,,,,,,,,,,,,U,160,circle,0,0,,,,,,,,,,,,,,,,switch,letter,NA,d,0.1667,Hi,,,,,,4,,,,,,,,high,4,0,4,0,1,,,,,,,,,
297775,2022-09-30_15h25.50.596,vts_reward_expectancy,2022.2.4,MacIntel,59.99880002,Chrome,1440,900,,,,,0,1046,,,,,,,,,,,,,,,,,H,125,hexagon,0,1,,,,,,,,,,,,,,,,switch,number,NA,k,0.0508,Hi,,,,,,4,,,,,,,,high,5,0,5,0,1,,,,,,,,,
297775,2022-09-30_15h25.50.596,vts_reward_expectancy,2022.2.4,MacIntel,59.99880002,Chrome,1440,900,,,,,1,1047,,,,,,,,,,,,,,,,,Y,167,hexagon,1,1,,,,,,,,,,,,,,,,switch,letter,lettSwt,f,0.1203,Lo,,,,,,4,,,,,,,,high,6,0,6,0,1,,,,,,,,,
297775,2022-09-30_15h25.50.596,vts_reward_expectancy,2022.2.4,MacIntel,59.99880002,Chrome,1440,900,,,,,10,1057,,,,,,,,,,,,,,,,,B,139,circle,1,0,,,,,,,,,,,,,,,,repeat,letter,lettRpt,d,0.2027,Hi,,,,,,4,,,,,,,,high,7,0,7,0,1,,,,,,,,,
297775,2022-09-30_15h25.50.596,vts_reward_expectancy,2022.2.4,MacIntel,59.99880002,Chrome,1440,900,,,,,0,1057,,,,,,,,,,,,,,,,,S,174,hexagon,0,0,,,,,,,,,,,,,,,,switch,number,NA,j,0.0306,Hi,,,,,,4,,,,,,,,high,8,0,8,0,1,,,,,,,,,
297775,2022-09-30_15h25.50.596,vts_reward_expectancy,2022.2.4,MacIntel,59.99880002,Chrome,1440,900,,,,,0,1057,,,,,,,,,,,,,,,,,F,132,circle,1,1,,,,,,,,,,,,,,,,repeat,number,numRpt,j,0.7897,Hi,,,,,,4,,,,,,,,high,9,0,9,0,1,,,,,,,,,
297775,2022-09-30_15h25.50.596,vts_reward_expectancy,2022.2.4,MacIntel,59.99880002,Chrome,1440,900,,,,,1,1058,,,,,,,,,,,,,,,,,D,181,hexagon,1,0,,,,,,,,,,,,,,,,switch,letter,lettSwt,d,0.7666,Lo,,,,,,4,,,,,,,,high,10,0,10,0,1,,,,,,,,,
297775,2022-09-30_15h25.50.596,vts_reward_expectancy,2022.2.4,MacIntel,59.99880002,Chrome,1440,900,,,,,0,1058,,,,,,,,,,,,,,,,,W,146,circle,0,0,,,,,,,,,,,,,,,,switch,number,NA,k,1.2983,Lo,,,,,,4,,,,,,,,high,11,0,11,0,1,,,,,,,,,
297775,2022-09-30_15h25.50.596,vts_reward_expectancy,2022.2.4,MacIntel,59.99880002,Chrome,1440,900,,,,,1,1059,,,,,,,,,,,,,,,,,U,160,hexagon,1,1,,,,,,,,,,,,,,,,switch,letter,lettSwt,f,1.0056,Lo,,,,,,4,,,,,,,,high,12,0,12,0,1,,,,,,,,,
297775,2022-09-30_15h25.50.596,vts_reward_expectancy,2022.2.4,MacIntel,59.99880002,Chrome,1440,900,,,,,0,1059,,,,,,,,,,,,,,,,,H,125,circle,1,0,,,,,,,,,,,,,,,,repeat,letter,lettRpt,d,1.0975,Hi,,,,,,4,,,,,,,,high,13,0,13,0,1,,,,,,,,,
297775,2022-09-30_15h25.50.596,vts_reward_expectancy,2022.2.4,MacIntel,59.99880002,Chrome,1440,900,,,,,0,1059,,,,,,,,,,,,,,,,,Y,167,circle,1,0,,,,,,,,,,,,,,,,repeat,letter,lettRpt,f,0.898,Hi,,,,,,4,,,,,,,,high,14,0,14,0,1,,,,,,,,,
297775,2022-09-30_15h25.50.596,vts_reward_expectancy,2022.2.4,MacIntel,59.99880002,Chrome,1440,900,,,,,1,1060,,,,,,,,,,,,,,,,,B,139,hexagon,1,0,,,,,,,,,,,,,,,,repeat,letter,lettRpt,d,1.0326,Lo,,,,,,4,,,,,,,,high,15,0,15,0,1,,,,,,,,,
297775,2022-09-30_15h25.50.596,vts_reward_expectancy,2022.2.4,MacIntel,59.99880002,Chrome,1440,900,,,,,0,1060,,,,,,,,,,,,,,,,,W,167,circle,0,0,,,,,,,,,,,,,,,,switch,number,NA,j,0.0554,Lo,,,,,,4,,,,,,,,high,16,0,16,0,1,,,,,,,,,
297775,2022-09-30_15h25.50.596,vts_reward_expectancy,2022.2.4,MacIntel,59.99880002,Chrome,1440,900,,,,,10,1070,,,,,,,,,,,,,,,,,D,125,hexagon,1,1,,,,,,,,,,,,,,,,switch,letter,lettSwt,d,0.0842,Lo,,,,,,4,,,,,,,,high,17,0,17,0,1,,,,,,,,,
297775,2022-09-30_15h25.50.596,vts_reward_expectancy,2022.2.4,MacIntel,59.99880002,Chrome,1440,900,,,,,1,1071,,,,,,,,,,,,,,,,,H,132,hexagon,1,0,,,,,,,,,,,,,,,,switch,number,numSwt,j,0.3805,Lo,,,,,,4,,,,,,,,high,18,0,18,0,1,,,,,,,,,
297775,2022-09-30_15h25.50.596,vts_reward_expectancy,2022.2.4,MacIntel,59.99880002,Chrome,1440,900,,,,,0,1071,,,,,,,,,,,,,,,,,U,139,circle,0,0,,,,,,,,,,,,,,,,repeat,number,NA,k,0.2478,Lo,,,,,,4,,,,,,,,high,19,0,19,0,1,,,,,,,,,
297775,2022-09-30_15h25.50.596,vts_reward_expectancy,2022.2.4,MacIntel,59.99880002,Chrome,1440,900,,,,,0,1071,,,,,,,,,,,,,,,,,Y,174,hexagon,0,1,,,,,,,,,,,,,,,,switch,letter,NA,d,0.3991,Lo,,,,,,4,,,,,,,,high,20,0,20,0,1,,,,,,,,,
297775,2022-09-30_15h25.50.596,vts_reward_expectancy,2022.2.4,MacIntel,59.99880002,Chrome,1440,900,,,,,0,1071,,,,,,,,,,,,,,,,,F,160,circle,0,1,,,,,,,,,,,,,,,,switch,number,NA,j,0.2622,Lo,,,,,,4,,,,,,,,high,21,0,21,0,1,,,,,,,,,
297775,2022-09-30_15h25.50.596,vts_reward_expectancy,2022.2.4,MacIntel,59.99880002,Chrome,1440,900,,,,,10,1081,,,,,,,,,,,,,,,,,S,146,circle,1,1,,,,,,,,,,,,,,,,switch,letter,lettSwt,f,0.5193,Hi,,,,,,4,,,,,,,,high,22,0,22,0,1,,,,,,,,,
297775,2022-09-30_15h25.50.596,vts_reward_expectancy,2022.2.4,MacIntel,59.99880002,Chrome,1440,900,,,,,1,1082,,,,,,,,,,,,,,,,,B,181,hexagon,1,0,,,,,,,,,,,,,,,,repeat,letter,lettRpt,d,0.6791,Lo,,,,,,4,,,,,,,,high,23,0,23,0,1,,,,,,,,,
297775,2022-09-30_15h25.50.596,vts_reward_expectancy,2022.2.4,MacIntel,59.99880002,Chrome,1440,900,,,,,0,1082,,,,,,,,,,,,,,,,,U,125,circle,0,0,,,,,,,,,,,,,,,,repeat,letter,NA,d,0.6636,Lo,,,,,,4,,,,,,,,high,24,0,24,0,1,,,,,,,,,
297775,2022-09-30_15h25.50.596,vts_reward_expectancy,2022.2.4,MacIntel,59.99880002,Chrome,1440,900,,,,,1,1083,,,,,,,,,,,,,,,,,Y,167,hexagon,1,1,,,,,,,,,,,,,,,,repeat,letter,lettRpt,f,0.5878,Lo,,,,,,4,,,,,,,,high,25,0,25,0,1,,,,,,,,,
297775,2022-09-30_15h25.50.596,vts_reward_expectancy,2022.2.4,MacIntel,59.99880002,Chrome,1440,900,,,,,1,1084,,,,,,,,,,,,,,,,,W,181,hexagon,1,0,,,,,,,,,,,,,,,,switch,number,numSwt,k,1.2037,Lo,,,,,,4,,,,,,,,high,26,0,26,0,1,,,,,,,,,
297775,2022-09-30_15h25.50.596,vts_reward_expectancy,2022.2.4,MacIntel,59.99880002,Chrome,1440,900,,,,,1,1085,,,,,,,,,,,,,,,,,S,132,circle,1,0,,,,,,,,,,,,,,,,switch,letter,lettSwt,f,0.8709,Hi,,,,,,4,,,,,,,,high,27,0,27,0,1,,,,,,,,,
297775,2022-09-30_15h25.50.596,vts_reward_expectancy,2022.2.4,MacIntel,59.99880002,Chrome,1440,900,,,,,1,1086,,,,,,,,,,,,,,,,,B,146,hexagon,1,0,,,,,,,,,,,,,,,,repeat,letter,lettRpt,d,1.1965,Lo,,,,,,4,,,,,,,,high,28,0,28,0,1,,,,,,,,,
297775,2022-09-30_15h25.50.596,vts_reward_expectancy,2022.2.4,MacIntel,59.99880002,Chrome,1440,900,,,,,0,1086,,,,,,,,,,,,,,,,,F,139,circle,1,0,,,,,,,,,,,,,,,,repeat,letter,lettRpt,d,1.6147,Hi,,,,,,4,,,,,,,,high,29,0,29,0,1,,,,,,,,,
297775,2022-09-30_15h25.50.596,vts_reward_expectancy,2022.2.4,MacIntel,59.99880002,Chrome,1440,900,,,,,0,1086,,,,,,,,,,,,,,,,,H,160,hexagon,0,0,,,,,,,,,,,,,,,,repeat,letter,NA,f,1.0481,Hi,,,,,,4,,,,,,,,high,30,0,30,0,1,,,,,,,,,
297775,2022-09-30_15h25.50.596,vts_reward_expectancy,2022.2.4,MacIntel,59.99880002,Chrome,1440,900,,,,,0,1086,,,,,,,,,,,,,,,,,D,174,circle,1,1,,,,,,,,,,,,,,,,repeat,letter,lettRpt,d,0.7809,Hi,,,,,,4,,,,,,,,high,31,0,31,0,1,,,,,,,,,
297775,2022-09-30_15h25.50.596,vts_reward_expectancy,2022.2.4,MacIntel,59.99880002,Chrome,1440,900,,,,,1,1087,,,,,,,,,,,,,,,,,U,139,triangle,1,0,,,,,,,,,,,,,,,,repeat,letter,lettRpt,f,1.0799,Lo,,,,,,5,,,,,,space,0.4229,low,0,0,0,0,1,,,,,,,,,
297775,2022-09-30_15h25.50.596,vts_reward_expectancy,2022.2.4,MacIntel,59.99880002,Chrome,1440,900,,,,,0,1087,,,,,,,,,,,,,,,,,Y,132,star,1,0,,,,,,,,,,,,,,,,switch,number,numSwt,j,0.7481,Hi,,,,,,5,,,,,,,,low,1,0,1,0,1,,,,,,,,,
297775,2022-09-30_15h25.50.596,vts_reward_expectancy,2022.2.4,MacIntel,59.99880002,Chrome,1440,900,,,,,1,1088,,,,,,,,,,,,,,,,,H,160,triangle,1,0,,,,,,,,,,,,,,,,repeat,number,numRpt,k,0.7132,Lo,,,,,,5,,,,,,,,low,2,0,2,0,1,,,,,,,,,
297775,2022-09-30_15h25.50.596,vts_reward_expectancy,2022.2.4,MacIntel,59.99880002,Chrome,1440,900,,,,,0,1088,,,,,,,,,,,,,,,,,F,146,star,1,0,,,,,,,,,,,,,,,,switch,letter,lettSwt,d,0.8486,Hi,,,,,,5,,,,,,,,low,3,0,3,0,1,,,,,,,,,
297775,2022-09-30_15h25.50.596,vts_reward_expectancy,2022.2.4,MacIntel,59.99880002,Chrome,1440,900,,,,,10,1098,,,,,,,,,,,,,,,,,D,181,triangle,1,0,,,,,,,,,,,,,,,,repeat,letter,lettRpt,d,1.3318,Lo,,,,,,5,,,,,,,,low,4,0,4,0,1,,,,,,,,,
297775,2022-09-30_15h25.50.596,vts_reward_expectancy,2022.2.4,MacIntel,59.99880002,Chrome,1440,900,,,,,0,1098,,,,,,,,,,,,,,,,,S,125,star,1,0,,,,,,,,,,,,,,,,repeat,letter,lettRpt,f,1.0292,Hi,,,,,,5,,,,,,,,low,5,0,5,0,1,,,,,,,,,
297775,2022-09-30_15h25.50.596,vts_reward_expectancy,2022.2.4,MacIntel,59.99880002,Chrome,1440,900,,,,,1,1099,,,,,,,,,,,,,,,,,B,167,triangle,1,0,,,,,,,,,,,,,,,,repeat,letter,lettRpt,d,0.5652,Lo,,,,,,5,,,,,,,,low,6,0,6,0,1,,,,,,,,,
297775,2022-09-30_15h25.50.596,vts_reward_expectancy,2022.2.4,MacIntel,59.99880002,Chrome,1440,900,,,,,0,1099,,,,,,,,,,,,,,,,,W,174,star,1,0,,,,,,,,,,,,,,,,repeat,letter,lettRpt,f,0.7322,Hi,,,,,,5,,,,,,,,low,7,0,7,0,1,,,,,,,,,
297775,2022-09-30_15h25.50.596,vts_reward_expectancy,2022.2.4,MacIntel,59.99880002,Chrome,1440,900,,,,,0,1099,,,,,,,,,,,,,,,,,U,139,star,0,0,,,,,,,,,,,,,,,,repeat,letter,NA,d,0.7985,Hi,,,,,,5,,,,,,,,low,8,0,8,0,1,,,,,,,,,
297775,2022-09-30_15h25.50.596,vts_reward_expectancy,2022.2.4,MacIntel,59.99880002,Chrome,1440,900,,,,,10,1109,,,,,,,,,,,,,,,,,Y,132,triangle,1,1,,,,,,,,,,,,,,,,repeat,letter,lettRpt,f,0.6977,Lo,,,,,,5,,,,,,,,low,9,0,9,0,1,,,,,,,,,
297775,2022-09-30_15h25.50.596,vts_reward_expectancy,2022.2.4,MacIntel,59.99880002,Chrome,1440,900,,,,,0,1109,,,,,,,,,,,,,,,,,H,160,star,0,0,,,,,,,,,,,,,,,,repeat,letter,NA,f,0.8145,Lo,,,,,,5,,,,,,,,low,10,0,10,0,1,,,,,,,,,
297775,2022-09-30_15h25.50.596,vts_reward_expectancy,2022.2.4,MacIntel,59.99880002,Chrome,1440,900,,,,,1,1110,,,,,,,,,,,,,,,,,F,146,triangle,1,1,,,,,,,,,,,,,,,,repeat,letter,lettRpt,d,0.7195,Lo,,,,,,5,,,,,,,,low,11,0,11,0,1,,,,,,,,,
297775,2022-09-30_15h25.50.596,vts_reward_expectancy,2022.2.4,MacIntel,59.99880002,Chrome,1440,900,,,,,10,1120,,,,,,,,,,,,,,,,,D,181,triangle,1,0,,,,,,,,,,,,,,,,repeat,letter,lettRpt,d,0.5969,Lo,,,,,,5,,,,,,,,low,12,0,12,0,1,,,,,,,,,
297775,2022-09-30_15h25.50.596,vts_reward_expectancy,2022.2.4,MacIntel,59.99880002,Chrome,1440,900,,,,,0,1120,,,,,,,,,,,,,,,,,S,125,star,1,0,,,,,,,,,,,,,,,,repeat,letter,lettRpt,f,0.7304,Hi,,,,,,5,,,,,,,,low,13,0,13,0,1,,,,,,,,,
297775,2022-09-30_15h25.50.596,vts_reward_expectancy,2022.2.4,MacIntel,59.99880002,Chrome,1440,900,,,,,10,1130,,,,,,,,,,,,,,,,,B,167,triangle,1,0,,,,,,,,,,,,,,,,repeat,letter,lettRpt,d,0.7814,Lo,,,,,,5,,,,,,,,low,14,0,14,0,1,,,,,,,,,
297775,2022-09-30_15h25.50.596,vts_reward_expectancy,2022.2.4,MacIntel,59.99880002,Chrome,1440,900,,,,,0,1130,,,,,,,,,,,,,,,,,W,174,star,1,0,,,,,,,,,,,,,,,,switch,number,numSwt,k,0.9152,Hi,,,,,,5,,,,,,,,low,15,0,15,0,1,,,,,,,,,
297775,2022-09-30_15h25.50.596,vts_reward_expectancy,2022.2.4,MacIntel,59.99880002,Chrome,1440,900,,,,,10,1140,,,,,,,,,,,,,,,,,H,181,triangle,1,0,,,,,,,,,,,,,,,,switch,letter,lettSwt,d,0.8139,Lo,,,,,,5,,,,,,,,low,16,0,16,0,1,,,,,,,,,
297775,2022-09-30_15h25.50.596,vts_reward_expectancy,2022.2.4,MacIntel,59.99880002,Chrome,1440,900,,,,,0,1140,,,,,,,,,,,,,,,,,F,132,star,1,0,,,,,,,,,,,,,,,,repeat,letter,lettRpt,d,0.8436,Hi,,,,,,5,,,,,,,,low,17,0,17,0,1,,,,,,,,,
297775,2022-09-30_15h25.50.596,vts_reward_expectancy,2022.2.4,MacIntel,59.99880002,Chrome,1440,900,,,,,10,1150,,,,,,,,,,,,,,,,,S,160,triangle,1,0,,,,,,,,,,,,,,,,repeat,letter,lettRpt,f,0.6597,Lo,,,,,,5,,,,,,,,low,18,0,18,0,1,,,,,,,,,
297775,2022-09-30_15h25.50.596,vts_reward_expectancy,2022.2.4,MacIntel,59.99880002,Chrome,1440,900,,,,,0,1150,,,,,,,,,,,,,,,,,Y,146,star,0,0,,,,,,,,,,,,,,,,switch,number,NA,k,0.7713,Lo,,,,,,5,,,,,,,,low,19,0,19,0,1,,,,,,,,,
297775,2022-09-30_15h25.50.596,vts_reward_expectancy,2022.2.4,MacIntel,59.99880002,Chrome,1440,900,,,,,1,1151,,,,,,,,,,,,,,,,,B,139,triangle,1,1,,,,,,,,,,,,,,,,switch,letter,lettSwt,d,0.7983,Lo,,,,,,5,,,,,,,,low,20,0,20,0,1,,,,,,,,,
297775,2022-09-30_15h25.50.596,vts_reward_expectancy,2022.2.4,MacIntel,59.99880002,Chrome,1440,900,,,,,0,1151,,,,,,,,,,,,,,,,,U,174,star,0,0,,,,,,,,,,,,,,,,switch,number,NA,j,0.9882,Lo,,,,,,5,,,,,,,,low,21,0,21,0,1,,,,,,,,,
297775,2022-09-30_15h25.50.596,vts_reward_expectancy,2022.2.4,MacIntel,59.99880002,Chrome,1440,900,,,,,0,1151,,,,,,,,,,,,,,,,,W,167,star,1,1,,,,,,,,,,,,,,,,repeat,number,numRpt,k,0.615,Hi,,,,,,5,,,,,,,,low,22,0,22,0,1,,,,,,,,,
297775,2022-09-30_15h25.50.596,vts_reward_expectancy,2022.2.4,MacIntel,59.99880002,Chrome,1440,900,,,,,10,1161,,,,,,,,,,,,,,,,,D,125,triangle,1,0,,,,,,,,,,,,,,,,switch,letter,lettSwt,d,0.539,Lo,,,,,,5,,,,,,,,low,23,0,23,0,1,,,,,,,,,
297775,2022-09-30_15h25.50.596,vts_reward_expectancy,2022.2.4,MacIntel,59.99880002,Chrome,1440,900,,,,,10,1171,,,,,,,,,,,,,,,,,S,146,triangle,1,0,,,,,,,,,,,,,,,,repeat,letter,lettRpt,f,0.7522,Lo,,,,,,5,,,,,,,,low,24,0,24,0,1,,,,,,,,,
297775,2022-09-30_15h25.50.596,vts_reward_expectancy,2022.2.4,MacIntel,59.99880002,Chrome,1440,900,,,,,1,1172,,,,,,,,,,,,,,,,,D,167,star,1,0,,,,,,,,,,,,,,,,repeat,letter,lettRpt,d,0.6152,Hi,,,,,,5,,,,,,,,low,25,0,25,0,1,,,,,,,,,
297775,2022-09-30_15h25.50.596,vts_reward_expectancy,2022.2.4,MacIntel,59.99880002,Chrome,1440,900,,,,,10,1182,,,,,,,,,,,,,,,,,F,181,star,1,0,,,,,,,,,,,,,,,,repeat,letter,lettRpt,d,0.5662,Hi,,,,,,5,,,,,,,,low,26,0,26,0,1,,,,,,,,,
297775,2022-09-30_15h25.50.596,vts_reward_expectancy,2022.2.4,MacIntel,59.99880002,Chrome,1440,900,,,,,10,1192,,,,,,,,,,,,,,,,,W,139,triangle,1,0,,,,,,,,,,,,,,,,repeat,letter,lettRpt,f,0.6465,Lo,,,,,,5,,,,,,,,low,27,0,27,0,1,,,,,,,,,
297775,2022-09-30_15h25.50.596,vts_reward_expectancy,2022.2.4,MacIntel,59.99880002,Chrome,1440,900,,,,,10,1202,,,,,,,,,,,,,,,,,U,125,triangle,1,0,,,,,,,,,,,,,,,,repeat,letter,lettRpt,f,0.9299,Lo,,,,,,5,,,,,,,,low,28,0,28,0,1,,,,,,,,,
297775,2022-09-30_15h25.50.596,vts_reward_expectancy,2022.2.4,MacIntel,59.99880002,Chrome,1440,900,,,,,0,1202,,,,,,,,,,,,,,,,,H,132,star,1,0,,,,,,,,,,,,,,,,repeat,letter,lettRpt,d,1.0344,Hi,,,,,,5,,,,,,,,low,29,0,29,0,1,,,,,,,,,
297775,2022-09-30_15h25.50.596,vts_reward_expectancy,2022.2.4,MacIntel,59.99880002,Chrome,1440,900,,,,,10,1212,,,,,,,,,,,,,,,,,Y,174,triangle,1,0,,,,,,,,,,,,,,,,repeat,letter,lettRpt,f,0.7136,Lo,,,,,,5,,,,,,,,low,30,0,30,0,1,,,,,,,,,
297775,2022-09-30_15h25.50.596,vts_reward_expectancy,2022.2.4,MacIntel,59.99880002,Chrome,1440,900,,,,,10,1222,,,,,,,,,,,,,,,,,B,160,star,1,0,,,,,,,,,,,,,,,,repeat,letter,lettRpt,d,0.5977,Hi,,,,,,5,,,,,,,,low,31,0,31,0,1,,,,,,,,,
297775,2022-09-30_15h25.50.596,vts_reward_expectancy,2022.2.4,MacIntel,59.99880002,Chrome,1440,900,,,,,,,,,,,,,,,,,,,,,,,,,,,,,,,,,,,,,,,,,,,,,,,,,,,,,,6,,,,,,,,,,,,,,Pick the letters on the keyboard that go with the letters and numbers given,2,I would pick letters and it would tell me I wasn't responding fast enough,3,2,,2,1440,900
