participant,date,expName,psychopyVersion,OS,frameRate,browser,xResolution,yResolution,key_resp.keys,key_resp.rt,training_resp.keys,training_resp.rt,points_trial,points_cumul,trainBlock,training.thisRepN,training.thisTrialN,training.thisN,training.thisIndex,training.ran,LTriangleOpac,LCircleOpac,LHexagonOpac,LStarOpac,RTriangleOpac,RCircleOpac,RHexagonOpac,RStarOpac,LShape_ID,RShape_ID,curr_topStim,curr_bottStim,curr_shape,acc,E1,target_resp_prac1.keys,target_resp_prac1.rt,pracBlock,task1_prac_trials.thisRepN,task1_prac_trials.thisTrialN,task1_prac_trials.thisN,task1_prac_trials.thisIndex,task1_prac_trials.ran,target_resp_prac2.keys,target_resp_prac2.rt,task2_praac_trials.thisRepN,task2_praac_trials.thisTrialN,task2_praac_trials.thisN,task2_praac_trials.thisIndex,task2_praac_trials.ran,alt,task,condition,target_resp.keys,target_resp.rt,rewCond,vts_practice_trials.thisRepN,vts_practice_trials.thisTrialN,vts_practice_trials.thisN,vts_practice_trials.thisIndex,vts_practice_trials.ran,blockNum,trials_norew.thisRepN,trials_norew.thisTrialN,trials_norew.thisN,trials_norew.thisIndex,trials_norew.ran,key_resp_2.keys,key_resp_2.rt,rewExpect,trials_rew.thisRepN,trials_rew.thisTrialN,trials_rew.thisN,trials_rew.thisIndex,trials_rew.ran,Q1,Q2,Q2_text,Q3,Q4,Q5_text,Q5,xRes,yRes
293692,2022-10-06_13h32.28.867,vts_reward_expectancy,2022.2.4,MacIntel,60.0024001,Chrome,1440,900,,,,,,,,,,,,,,,,,,,,,,,,,,,,,,,,,,,,,,,,,,,,,,,,,,,,,,,,,,,,,,,,,,,,,,,,,,,,
293692,2022-10-06_13h32.28.867,vts_reward_expectancy,2022.2.4,MacIntel,60.0024001,Chrome,1440,900,space,0.9981,,,,,,,,,,,,,,,,,,,,,,,,,,,,,,,,,,,,,,,,,,,,,,,,,,,,,,,,,,,,,,,,,,,,,,,,,,
293692,2022-10-06_13h32.28.867,vts_reward_expectancy,2022.2.4,MacIntel,60.0024001,Chrome,1440,900,,,,,,,,,,,,,,,,,,,,,,,,,,,,,,,,,,,,,,,,,,,,,,,,,,,,,,,,,,,,,,,,,,,,,,,,,,,,
293692,2022-10-06_13h32.28.867,vts_reward_expectancy,2022.2.4,MacIntel,60.0024001,Chrome,1440,900,,,a,2.2691,10,10,0,0,0,0,3,1,0,1,0,0,1,0,0,0,circle,triangle,,,,,,,,,,,,,,,,,,,,,,,,,,,,,,,,,,,,,,,,,,,,,,,,,,,,,,
293692,2022-10-06_13h32.28.867,vts_reward_expectancy,2022.2.4,MacIntel,60.0024001,Chrome,1440,900,,,l,1.8356,1,11,0,0,1,1,2,1,1,0,0,0,0,0,0,1,triangle,star,,,,,,,,,,,,,,,,,,,,,,,,,,,,,,,,,,,,,,,,,,,,,,,,,,,,,,
293692,2022-10-06_13h32.28.867,vts_reward_expectancy,2022.2.4,MacIntel,60.0024001,Chrome,1440,900,,,a,1.4639,1,12,0,0,2,2,0,1,1,0,0,0,0,1,0,0,triangle,circle,,,,,,,,,,,,,,,,,,,,,,,,,,,,,,,,,,,,,,,,,,,,,,,,,,,,,,
293692,2022-10-06_13h32.28.867,vts_reward_expectancy,2022.2.4,MacIntel,60.0024001,Chrome,1440,900,,,a,2.9155,1,13,0,0,3,3,9,1,0,0,0,1,1,0,0,0,star,triangle,,,,,,,,,,,,,,,,,,,,,,,,,,,,,,,,,,,,,,,,,,,,,,,,,,,,,,
293692,2022-10-06_13h32.28.867,vts_reward_expectancy,2022.2.4,MacIntel,60.0024001,Chrome,1440,900,,,l,3.3659,1,14,0,0,4,4,7,1,0,0,1,0,0,1,0,0,hexagon,circle,,,,,,,,,,,,,,,,,,,,,,,,,,,,,,,,,,,,,,,,,,,,,,,,,,,,,,
293692,2022-10-06_13h32.28.867,vts_reward_expectancy,2022.2.4,MacIntel,60.0024001,Chrome,1440,900,,,a,1.4641,1,15,0,0,5,5,5,1,0,1,0,0,0,0,0,1,circle,star,,,,,,,,,,,,,,,,,,,,,,,,,,,,,,,,,,,,,,,,,,,,,,,,,,,,,,
293692,2022-10-06_13h32.28.867,vts_reward_expectancy,2022.2.4,MacIntel,60.0024001,Chrome,1440,900,,,a,1.7537,10,25,0,0,6,6,8,1,0,0,1,0,0,0,0,1,hexagon,star,,,,,,,,,,,,,,,,,,,,,,,,,,,,,,,,,,,,,,,,,,,,,,,,,,,,,,
293692,2022-10-06_13h32.28.867,vts_reward_expectancy,2022.2.4,MacIntel,60.0024001,Chrome,1440,900,,,a,2.0801,1,26,0,0,7,7,1,1,1,0,0,0,0,0,1,0,triangle,hexagon,,,,,,,,,,,,,,,,,,,,,,,,,,,,,,,,,,,,,,,,,,,,,,,,,,,,,,
293692,2022-10-06_13h32.28.867,vts_reward_expectancy,2022.2.4,MacIntel,60.0024001,Chrome,1440,900,,,l,1.0541,1,27,0,0,8,8,10,1,0,0,0,1,0,1,0,0,star ,circle,,,,,,,,,,,,,,,,,,,,,,,,,,,,,,,,,,,,,,,,,,,,,,,,,,,,,,
293692,2022-10-06_13h32.28.867,vts_reward_expectancy,2022.2.4,MacIntel,60.0024001,Chrome,1440,900,,,l,1.0238,1,28,0,0,9,9,6,1,0,0,1,0,1,0,0,0,hexagon,triangle,,,,,,,,,,,,,,,,,,,,,,,,,,,,,,,,,,,,,,,,,,,,,,,,,,,,,,
293692,2022-10-06_13h32.28.867,vts_reward_expectancy,2022.2.4,MacIntel,60.0024001,Chrome,1440,900,,,a,1.1442,10,38,0,0,10,10,4,1,0,1,0,0,0,0,1,0,circle,hexagon,,,,,,,,,,,,,,,,,,,,,,,,,,,,,,,,,,,,,,,,,,,,,,,,,,,,,,
293692,2022-10-06_13h32.28.867,vts_reward_expectancy,2022.2.4,MacIntel,60.0024001,Chrome,1440,900,,,a,1.7432,1,39,0,0,11,11,11,1,0,0,0,1,0,0,1,0,star,hexagon,,,,,,,,,,,,,,,,,,,,,,,,,,,,,,,,,,,,,,,,,,,,,,,,,,,,,,
293692,2022-10-06_13h32.28.867,vts_reward_expectancy,2022.2.4,MacIntel,60.0024001,Chrome,1440,900,,,a,1.105,1,40,0,1,0,12,11,1,0,0,0,1,0,0,1,0,star,hexagon,,,,,,,,,,,,,,,,,,,,,,,,,,,,,,,,,,,,,,,,,,,,,,,,,,,,,,
293692,2022-10-06_13h32.28.867,vts_reward_expectancy,2022.2.4,MacIntel,60.0024001,Chrome,1440,900,,,a,1.4657,1,41,0,1,1,13,5,1,0,1,0,0,0,0,0,1,circle,star,,,,,,,,,,,,,,,,,,,,,,,,,,,,,,,,,,,,,,,,,,,,,,,,,,,,,,
293692,2022-10-06_13h32.28.867,vts_reward_expectancy,2022.2.4,MacIntel,60.0024001,Chrome,1440,900,,,l,1.1123,1,42,0,1,2,14,6,1,0,0,1,0,1,0,0,0,hexagon,triangle,,,,,,,,,,,,,,,,,,,,,,,,,,,,,,,,,,,,,,,,,,,,,,,,,,,,,,
293692,2022-10-06_13h32.28.867,vts_reward_expectancy,2022.2.4,MacIntel,60.0024001,Chrome,1440,900,,,a,1.6502,1,43,0,1,3,15,3,1,0,1,0,0,1,0,0,0,circle,triangle,,,,,,,,,,,,,,,,,,,,,,,,,,,,,,,,,,,,,,,,,,,,,,,,,,,,,,
293692,2022-10-06_13h32.28.867,vts_reward_expectancy,2022.2.4,MacIntel,60.0024001,Chrome,1440,900,,,a,1.9312,1,44,0,1,4,16,10,1,0,0,0,1,0,1,0,0,star ,circle,,,,,,,,,,,,,,,,,,,,,,,,,,,,,,,,,,,,,,,,,,,,,,,,,,,,,,
293692,2022-10-06_13h32.28.867,vts_reward_expectancy,2022.2.4,MacIntel,60.0024001,Chrome,1440,900,,,a,4.1541,10,54,0,1,5,17,1,1,1,0,0,0,0,0,1,0,triangle,hexagon,,,,,,,,,,,,,,,,,,,,,,,,,,,,,,,,,,,,,,,,,,,,,,,,,,,,,,
293692,2022-10-06_13h32.28.867,vts_reward_expectancy,2022.2.4,MacIntel,60.0024001,Chrome,1440,900,,,l,1.183,1,55,0,1,6,18,7,1,0,0,1,0,0,1,0,0,hexagon,circle,,,,,,,,,,,,,,,,,,,,,,,,,,,,,,,,,,,,,,,,,,,,,,,,,,,,,,
293692,2022-10-06_13h32.28.867,vts_reward_expectancy,2022.2.4,MacIntel,60.0024001,Chrome,1440,900,,,a,1.4261,10,65,0,1,7,19,8,1,0,0,1,0,0,0,0,1,hexagon,star,,,,,,,,,,,,,,,,,,,,,,,,,,,,,,,,,,,,,,,,,,,,,,,,,,,,,,
293692,2022-10-06_13h32.28.867,vts_reward_expectancy,2022.2.4,MacIntel,60.0024001,Chrome,1440,900,,,l,1.8512,1,66,0,1,8,20,0,1,1,0,0,0,0,1,0,0,triangle,circle,,,,,,,,,,,,,,,,,,,,,,,,,,,,,,,,,,,,,,,,,,,,,,,,,,,,,,
293692,2022-10-06_13h32.28.867,vts_reward_expectancy,2022.2.4,MacIntel,60.0024001,Chrome,1440,900,,,l,0.8725,1,67,0,1,9,21,9,1,0,0,0,1,1,0,0,0,star,triangle,,,,,,,,,,,,,,,,,,,,,,,,,,,,,,,,,,,,,,,,,,,,,,,,,,,,,,
293692,2022-10-06_13h32.28.867,vts_reward_expectancy,2022.2.4,MacIntel,60.0024001,Chrome,1440,900,,,a,1.8067,10,77,0,1,10,22,2,1,1,0,0,0,0,0,0,1,triangle,star,,,,,,,,,,,,,,,,,,,,,,,,,,,,,,,,,,,,,,,,,,,,,,,,,,,,,,
293692,2022-10-06_13h32.28.867,vts_reward_expectancy,2022.2.4,MacIntel,60.0024001,Chrome,1440,900,,,l,2.0009,1,78,0,1,11,23,4,1,0,1,0,0,0,0,1,0,circle,hexagon,,,,,,,,,,,,,,,,,,,,,,,,,,,,,,,,,,,,,,,,,,,,,,,,,,,,,,
293692,2022-10-06_13h32.28.867,vts_reward_expectancy,2022.2.4,MacIntel,60.0024001,Chrome,1440,900,,,a,1.545,1,79,0,2,0,24,0,1,1,0,0,0,0,1,0,0,triangle,circle,,,,,,,,,,,,,,,,,,,,,,,,,,,,,,,,,,,,,,,,,,,,,,,,,,,,,,
293692,2022-10-06_13h32.28.867,vts_reward_expectancy,2022.2.4,MacIntel,60.0024001,Chrome,1440,900,,,a,1.2716,1,80,0,2,1,25,5,1,0,1,0,0,0,0,0,1,circle,star,,,,,,,,,,,,,,,,,,,,,,,,,,,,,,,,,,,,,,,,,,,,,,,,,,,,,,
293692,2022-10-06_13h32.28.867,vts_reward_expectancy,2022.2.4,MacIntel,60.0024001,Chrome,1440,900,,,a,1.1677,10,90,0,2,2,26,4,1,0,1,0,0,0,0,1,0,circle,hexagon,,,,,,,,,,,,,,,,,,,,,,,,,,,,,,,,,,,,,,,,,,,,,,,,,,,,,,
293692,2022-10-06_13h32.28.867,vts_reward_expectancy,2022.2.4,MacIntel,60.0024001,Chrome,1440,900,,,a,0.8333,10,100,0,2,3,27,1,1,1,0,0,0,0,0,1,0,triangle,hexagon,,,,,,,,,,,,,,,,,,,,,,,,,,,,,,,,,,,,,,,,,,,,,,,,,,,,,,
293692,2022-10-06_13h32.28.867,vts_reward_expectancy,2022.2.4,MacIntel,60.0024001,Chrome,1440,900,,,l,1.8388,10,110,0,2,4,28,9,1,0,0,0,1,1,0,0,0,star,triangle,,,,,,,,,,,,,,,,,,,,,,,,,,,,,,,,,,,,,,,,,,,,,,,,,,,,,,
293692,2022-10-06_13h32.28.867,vts_reward_expectancy,2022.2.4,MacIntel,60.0024001,Chrome,1440,900,,,a,0.7832,1,111,0,2,5,29,2,1,1,0,0,0,0,0,0,1,triangle,star,,,,,,,,,,,,,,,,,,,,,,,,,,,,,,,,,,,,,,,,,,,,,,,,,,,,,,
293692,2022-10-06_13h32.28.867,vts_reward_expectancy,2022.2.4,MacIntel,60.0024001,Chrome,1440,900,,,a,1.2367,1,112,0,2,6,30,3,1,0,1,0,0,1,0,0,0,circle,triangle,,,,,,,,,,,,,,,,,,,,,,,,,,,,,,,,,,,,,,,,,,,,,,,,,,,,,,
293692,2022-10-06_13h32.28.867,vts_reward_expectancy,2022.2.4,MacIntel,60.0024001,Chrome,1440,900,,,l,1.0708,1,113,0,2,7,31,8,1,0,0,1,0,0,0,0,1,hexagon,star,,,,,,,,,,,,,,,,,,,,,,,,,,,,,,,,,,,,,,,,,,,,,,,,,,,,,,
293692,2022-10-06_13h32.28.867,vts_reward_expectancy,2022.2.4,MacIntel,60.0024001,Chrome,1440,900,,,l,0.4992,10,123,0,2,8,32,10,1,0,0,0,1,0,1,0,0,star ,circle,,,,,,,,,,,,,,,,,,,,,,,,,,,,,,,,,,,,,,,,,,,,,,,,,,,,,,
293692,2022-10-06_13h32.28.867,vts_reward_expectancy,2022.2.4,MacIntel,60.0024001,Chrome,1440,900,,,l,0.8333,1,124,0,2,9,33,7,1,0,0,1,0,0,1,0,0,hexagon,circle,,,,,,,,,,,,,,,,,,,,,,,,,,,,,,,,,,,,,,,,,,,,,,,,,,,,,,
293692,2022-10-06_13h32.28.867,vts_reward_expectancy,2022.2.4,MacIntel,60.0024001,Chrome,1440,900,,,l,0.9321,10,134,0,2,10,34,6,1,0,0,1,0,1,0,0,0,hexagon,triangle,,,,,,,,,,,,,,,,,,,,,,,,,,,,,,,,,,,,,,,,,,,,,,,,,,,,,,
293692,2022-10-06_13h32.28.867,vts_reward_expectancy,2022.2.4,MacIntel,60.0024001,Chrome,1440,900,,,l,0.835,10,144,0,2,11,35,11,1,0,0,0,1,0,0,1,0,star,hexagon,,,,,,,,,,,,,,,,,,,,,,,,,,,,,,,,,,,,,,,,,,,,,,,,,,,,,,
293692,2022-10-06_13h32.28.867,vts_reward_expectancy,2022.2.4,MacIntel,60.0024001,Chrome,1440,900,,,a,2.3523,10,154,1,0,0,0,1,1,1,0,0,0,0,0,1,0,triangle,hexagon,,,,,,,,,,,,,,,,,,,,,,,,,,,,,,,,,,,,,,,,,,,,,,,,,,,,,,
293692,2022-10-06_13h32.28.867,vts_reward_expectancy,2022.2.4,MacIntel,60.0024001,Chrome,1440,900,,,a,0.717,1,155,1,0,1,1,4,1,0,1,0,0,0,0,1,0,circle,hexagon,,,,,,,,,,,,,,,,,,,,,,,,,,,,,,,,,,,,,,,,,,,,,,,,,,,,,,
293692,2022-10-06_13h32.28.867,vts_reward_expectancy,2022.2.4,MacIntel,60.0024001,Chrome,1440,900,,,l,0.9509,1,156,1,0,2,2,7,1,0,0,1,0,0,1,0,0,hexagon,circle,,,,,,,,,,,,,,,,,,,,,,,,,,,,,,,,,,,,,,,,,,,,,,,,,,,,,,
293692,2022-10-06_13h32.28.867,vts_reward_expectancy,2022.2.4,MacIntel,60.0024001,Chrome,1440,900,,,a,0.5037,10,166,1,0,3,3,8,1,0,0,1,0,0,0,0,1,hexagon,star,,,,,,,,,,,,,,,,,,,,,,,,,,,,,,,,,,,,,,,,,,,,,,,,,,,,,,
293692,2022-10-06_13h32.28.867,vts_reward_expectancy,2022.2.4,MacIntel,60.0024001,Chrome,1440,900,,,a,0.7233,1,167,1,0,4,4,5,1,0,1,0,0,0,0,0,1,circle,star,,,,,,,,,,,,,,,,,,,,,,,,,,,,,,,,,,,,,,,,,,,,,,,,,,,,,,
293692,2022-10-06_13h32.28.867,vts_reward_expectancy,2022.2.4,MacIntel,60.0024001,Chrome,1440,900,,,l,0.7489,1,168,1,0,5,5,10,1,0,0,0,1,0,1,0,0,star ,circle,,,,,,,,,,,,,,,,,,,,,,,,,,,,,,,,,,,,,,,,,,,,,,,,,,,,,,
293692,2022-10-06_13h32.28.867,vts_reward_expectancy,2022.2.4,MacIntel,60.0024001,Chrome,1440,900,,,a,0.3002,10,178,1,0,6,6,6,1,0,0,1,0,1,0,0,0,hexagon,triangle,,,,,,,,,,,,,,,,,,,,,,,,,,,,,,,,,,,,,,,,,,,,,,,,,,,,,,
293692,2022-10-06_13h32.28.867,vts_reward_expectancy,2022.2.4,MacIntel,60.0024001,Chrome,1440,900,,,a,5.0168,10,188,1,0,7,7,2,1,1,0,0,0,0,0,0,1,triangle,star,,,,,,,,,,,,,,,,,,,,,,,,,,,,,,,,,,,,,,,,,,,,,,,,,,,,,,
293692,2022-10-06_13h32.28.867,vts_reward_expectancy,2022.2.4,MacIntel,60.0024001,Chrome,1440,900,,,l,4.849,1,189,1,0,8,8,0,1,1,0,0,0,0,1,0,0,triangle,circle,,,,,,,,,,,,,,,,,,,,,,,,,,,,,,,,,,,,,,,,,,,,,,,,,,,,,,
293692,2022-10-06_13h32.28.867,vts_reward_expectancy,2022.2.4,MacIntel,60.0024001,Chrome,1440,900,,,a,0.5988,1,190,1,0,9,9,3,1,0,1,0,0,1,0,0,0,circle,triangle,,,,,,,,,,,,,,,,,,,,,,,,,,,,,,,,,,,,,,,,,,,,,,,,,,,,,,
293692,2022-10-06_13h32.28.867,vts_reward_expectancy,2022.2.4,MacIntel,60.0024001,Chrome,1440,900,,,l,0.5491,10,200,1,0,10,10,9,1,0,0,0,1,1,0,0,0,star,triangle,,,,,,,,,,,,,,,,,,,,,,,,,,,,,,,,,,,,,,,,,,,,,,,,,,,,,,
293692,2022-10-06_13h32.28.867,vts_reward_expectancy,2022.2.4,MacIntel,60.0024001,Chrome,1440,900,,,l,0.8746,1,201,1,0,11,11,11,1,0,0,0,1,0,0,1,0,star,hexagon,,,,,,,,,,,,,,,,,,,,,,,,,,,,,,,,,,,,,,,,,,,,,,,,,,,,,,
293692,2022-10-06_13h32.28.867,vts_reward_expectancy,2022.2.4,MacIntel,60.0024001,Chrome,1440,900,,,l,0.5891,1,202,1,1,0,12,9,1,0,0,0,1,1,0,0,0,star,triangle,,,,,,,,,,,,,,,,,,,,,,,,,,,,,,,,,,,,,,,,,,,,,,,,,,,,,,
293692,2022-10-06_13h32.28.867,vts_reward_expectancy,2022.2.4,MacIntel,60.0024001,Chrome,1440,900,,,a,1.2845,1,203,1,1,1,13,10,1,0,0,0,1,0,1,0,0,star ,circle,,,,,,,,,,,,,,,,,,,,,,,,,,,,,,,,,,,,,,,,,,,,,,,,,,,,,,
293692,2022-10-06_13h32.28.867,vts_reward_expectancy,2022.2.4,MacIntel,60.0024001,Chrome,1440,900,,,a,0.8828,10,213,1,1,2,14,8,1,0,0,1,0,0,0,0,1,hexagon,star,,,,,,,,,,,,,,,,,,,,,,,,,,,,,,,,,,,,,,,,,,,,,,,,,,,,,,
293692,2022-10-06_13h32.28.867,vts_reward_expectancy,2022.2.4,MacIntel,60.0024001,Chrome,1440,900,,,l,0.8786,10,223,1,1,3,15,5,1,0,1,0,0,0,0,0,1,circle,star,,,,,,,,,,,,,,,,,,,,,,,,,,,,,,,,,,,,,,,,,,,,,,,,,,,,,,
293692,2022-10-06_13h32.28.867,vts_reward_expectancy,2022.2.4,MacIntel,60.0024001,Chrome,1440,900,,,a,0.5891,1,224,1,1,4,16,2,1,1,0,0,0,0,0,0,1,triangle,star,,,,,,,,,,,,,,,,,,,,,,,,,,,,,,,,,,,,,,,,,,,,,,,,,,,,,,
293692,2022-10-06_13h32.28.867,vts_reward_expectancy,2022.2.4,MacIntel,60.0024001,Chrome,1440,900,,,l,0.7368,1,225,1,1,5,17,7,1,0,0,1,0,0,1,0,0,hexagon,circle,,,,,,,,,,,,,,,,,,,,,,,,,,,,,,,,,,,,,,,,,,,,,,,,,,,,,,
293692,2022-10-06_13h32.28.867,vts_reward_expectancy,2022.2.4,MacIntel,60.0024001,Chrome,1440,900,,,l,0.8524,1,226,1,1,6,18,6,1,0,0,1,0,1,0,0,0,hexagon,triangle,,,,,,,,,,,,,,,,,,,,,,,,,,,,,,,,,,,,,,,,,,,,,,,,,,,,,,
293692,2022-10-06_13h32.28.867,vts_reward_expectancy,2022.2.4,MacIntel,60.0024001,Chrome,1440,900,,,a,0.6847,1,227,1,1,7,19,4,1,0,1,0,0,0,0,1,0,circle,hexagon,,,,,,,,,,,,,,,,,,,,,,,,,,,,,,,,,,,,,,,,,,,,,,,,,,,,,,
293692,2022-10-06_13h32.28.867,vts_reward_expectancy,2022.2.4,MacIntel,60.0024001,Chrome,1440,900,,,l,0.7465,10,237,1,1,8,20,11,1,0,0,0,1,0,0,1,0,star,hexagon,,,,,,,,,,,,,,,,,,,,,,,,,,,,,,,,,,,,,,,,,,,,,,,,,,,,,,
293692,2022-10-06_13h32.28.867,vts_reward_expectancy,2022.2.4,MacIntel,60.0024001,Chrome,1440,900,,,a,0.7233,1,238,1,1,9,21,3,1,0,1,0,0,1,0,0,0,circle,triangle,,,,,,,,,,,,,,,,,,,,,,,,,,,,,,,,,,,,,,,,,,,,,,,,,,,,,,
293692,2022-10-06_13h32.28.867,vts_reward_expectancy,2022.2.4,MacIntel,60.0024001,Chrome,1440,900,,,l,0.8485,1,239,1,1,10,22,0,1,1,0,0,0,0,1,0,0,triangle,circle,,,,,,,,,,,,,,,,,,,,,,,,,,,,,,,,,,,,,,,,,,,,,,,,,,,,,,
293692,2022-10-06_13h32.28.867,vts_reward_expectancy,2022.2.4,MacIntel,60.0024001,Chrome,1440,900,,,a,0.5991,1,240,1,1,11,23,1,1,1,0,0,0,0,0,1,0,triangle,hexagon,,,,,,,,,,,,,,,,,,,,,,,,,,,,,,,,,,,,,,,,,,,,,,,,,,,,,,
293692,2022-10-06_13h32.28.867,vts_reward_expectancy,2022.2.4,MacIntel,60.0024001,Chrome,1440,900,,,l,0.6732,10,250,1,2,0,24,8,1,0,0,1,0,0,0,0,1,hexagon,star,,,,,,,,,,,,,,,,,,,,,,,,,,,,,,,,,,,,,,,,,,,,,,,,,,,,,,
293692,2022-10-06_13h32.28.867,vts_reward_expectancy,2022.2.4,MacIntel,60.0024001,Chrome,1440,900,,,l,1.0376,10,260,1,2,1,25,5,1,0,1,0,0,0,0,0,1,circle,star,,,,,,,,,,,,,,,,,,,,,,,,,,,,,,,,,,,,,,,,,,,,,,,,,,,,,,
293692,2022-10-06_13h32.28.867,vts_reward_expectancy,2022.2.4,MacIntel,60.0024001,Chrome,1440,900,,,l,1.9037,1,261,1,2,2,26,0,1,1,0,0,0,0,1,0,0,triangle,circle,,,,,,,,,,,,,,,,,,,,,,,,,,,,,,,,,,,,,,,,,,,,,,,,,,,,,,
293692,2022-10-06_13h32.28.867,vts_reward_expectancy,2022.2.4,MacIntel,60.0024001,Chrome,1440,900,,,a,0.8618,1,262,1,2,3,27,2,1,1,0,0,0,0,0,0,1,triangle,star,,,,,,,,,,,,,,,,,,,,,,,,,,,,,,,,,,,,,,,,,,,,,,,,,,,,,,
293692,2022-10-06_13h32.28.867,vts_reward_expectancy,2022.2.4,MacIntel,60.0024001,Chrome,1440,900,,,l,2.4504,10,272,1,2,4,28,6,1,0,0,1,0,1,0,0,0,hexagon,triangle,,,,,,,,,,,,,,,,,,,,,,,,,,,,,,,,,,,,,,,,,,,,,,,,,,,,,,
293692,2022-10-06_13h32.28.867,vts_reward_expectancy,2022.2.4,MacIntel,60.0024001,Chrome,1440,900,,,a,0.6593,10,282,1,2,5,29,1,1,1,0,0,0,0,0,1,0,triangle,hexagon,,,,,,,,,,,,,,,,,,,,,,,,,,,,,,,,,,,,,,,,,,,,,,,,,,,,,,
293692,2022-10-06_13h32.28.867,vts_reward_expectancy,2022.2.4,MacIntel,60.0024001,Chrome,1440,900,,,a,1.6355,1,283,1,2,6,30,3,1,0,1,0,0,1,0,0,0,circle,triangle,,,,,,,,,,,,,,,,,,,,,,,,,,,,,,,,,,,,,,,,,,,,,,,,,,,,,,
293692,2022-10-06_13h32.28.867,vts_reward_expectancy,2022.2.4,MacIntel,60.0024001,Chrome,1440,900,,,a,0.7707,1,284,1,2,7,31,4,1,0,1,0,0,0,0,1,0,circle,hexagon,,,,,,,,,,,,,,,,,,,,,,,,,,,,,,,,,,,,,,,,,,,,,,,,,,,,,,
293692,2022-10-06_13h32.28.867,vts_reward_expectancy,2022.2.4,MacIntel,60.0024001,Chrome,1440,900,,,l,0.2949,1,285,1,2,8,32,9,1,0,0,0,1,1,0,0,0,star,triangle,,,,,,,,,,,,,,,,,,,,,,,,,,,,,,,,,,,,,,,,,,,,,,,,,,,,,,
293692,2022-10-06_13h32.28.867,vts_reward_expectancy,2022.2.4,MacIntel,60.0024001,Chrome,1440,900,,,a,0.2681,1,286,1,2,9,33,10,1,0,0,0,1,0,1,0,0,star ,circle,,,,,,,,,,,,,,,,,,,,,,,,,,,,,,,,,,,,,,,,,,,,,,,,,,,,,,
293692,2022-10-06_13h32.28.867,vts_reward_expectancy,2022.2.4,MacIntel,60.0024001,Chrome,1440,900,,,a,1.0536,10,296,1,2,10,34,11,1,0,0,0,1,0,0,1,0,star,hexagon,,,,,,,,,,,,,,,,,,,,,,,,,,,,,,,,,,,,,,,,,,,,,,,,,,,,,,
293692,2022-10-06_13h32.28.867,vts_reward_expectancy,2022.2.4,MacIntel,60.0024001,Chrome,1440,900,,,l,0.7312,1,297,1,2,11,35,7,1,0,0,1,0,0,1,0,0,hexagon,circle,,,,,,,,,,,,,,,,,,,,,,,,,,,,,,,,,,,,,,,,,,,,,,,,,,,,,,
293692,2022-10-06_13h32.28.867,vts_reward_expectancy,2022.2.4,MacIntel,60.0024001,Chrome,1440,900,,,a,1.3326,10,307,2,0,0,0,6,1,0,0,1,0,1,0,0,0,hexagon,triangle,,,,,,,,,,,,,,,,,,,,,,,,,,,,,,,,,,,,,,,,,,,,,,,,,,,,,,
293692,2022-10-06_13h32.28.867,vts_reward_expectancy,2022.2.4,MacIntel,60.0024001,Chrome,1440,900,,,a,0.5819,10,317,2,0,1,1,8,1,0,0,1,0,0,0,0,1,hexagon,star,,,,,,,,,,,,,,,,,,,,,,,,,,,,,,,,,,,,,,,,,,,,,,,,,,,,,,
293692,2022-10-06_13h32.28.867,vts_reward_expectancy,2022.2.4,MacIntel,60.0024001,Chrome,1440,900,,,a,0.8995,10,327,2,0,2,2,5,1,0,1,0,0,0,0,0,1,circle,star,,,,,,,,,,,,,,,,,,,,,,,,,,,,,,,,,,,,,,,,,,,,,,,,,,,,,,
293692,2022-10-06_13h32.28.867,vts_reward_expectancy,2022.2.4,MacIntel,60.0024001,Chrome,1440,900,,,l,3.2941,10,337,2,0,3,3,9,1,0,0,0,1,1,0,0,0,star,triangle,,,,,,,,,,,,,,,,,,,,,,,,,,,,,,,,,,,,,,,,,,,,,,,,,,,,,,
293692,2022-10-06_13h32.28.867,vts_reward_expectancy,2022.2.4,MacIntel,60.0024001,Chrome,1440,900,,,l,0.6647,1,338,2,0,4,4,10,1,0,0,0,1,0,1,0,0,star ,circle,,,,,,,,,,,,,,,,,,,,,,,,,,,,,,,,,,,,,,,,,,,,,,,,,,,,,,
293692,2022-10-06_13h32.28.867,vts_reward_expectancy,2022.2.4,MacIntel,60.0024001,Chrome,1440,900,,,a,0.8167,10,348,2,0,5,5,3,1,0,1,0,0,1,0,0,0,circle,triangle,,,,,,,,,,,,,,,,,,,,,,,,,,,,,,,,,,,,,,,,,,,,,,,,,,,,,,
293692,2022-10-06_13h32.28.867,vts_reward_expectancy,2022.2.4,MacIntel,60.0024001,Chrome,1440,900,,,l,0.665,10,358,2,0,6,6,11,1,0,0,0,1,0,0,1,0,star,hexagon,,,,,,,,,,,,,,,,,,,,,,,,,,,,,,,,,,,,,,,,,,,,,,,,,,,,,,
293692,2022-10-06_13h32.28.867,vts_reward_expectancy,2022.2.4,MacIntel,60.0024001,Chrome,1440,900,,,l,0.7601,1,359,2,0,7,7,2,1,1,0,0,0,0,0,0,1,triangle,star,,,,,,,,,,,,,,,,,,,,,,,,,,,,,,,,,,,,,,,,,,,,,,,,,,,,,,
293692,2022-10-06_13h32.28.867,vts_reward_expectancy,2022.2.4,MacIntel,60.0024001,Chrome,1440,900,,,a,0.6201,1,360,2,0,8,8,0,1,1,0,0,0,0,1,0,0,triangle,circle,,,,,,,,,,,,,,,,,,,,,,,,,,,,,,,,,,,,,,,,,,,,,,,,,,,,,,
293692,2022-10-06_13h32.28.867,vts_reward_expectancy,2022.2.4,MacIntel,60.0024001,Chrome,1440,900,,,a,0.6318,1,361,2,0,9,9,4,1,0,1,0,0,0,0,1,0,circle,hexagon,,,,,,,,,,,,,,,,,,,,,,,,,,,,,,,,,,,,,,,,,,,,,,,,,,,,,,
293692,2022-10-06_13h32.28.867,vts_reward_expectancy,2022.2.4,MacIntel,60.0024001,Chrome,1440,900,,,l,1.4184,1,362,2,0,10,10,7,1,0,0,1,0,0,1,0,0,hexagon,circle,,,,,,,,,,,,,,,,,,,,,,,,,,,,,,,,,,,,,,,,,,,,,,,,,,,,,,
293692,2022-10-06_13h32.28.867,vts_reward_expectancy,2022.2.4,MacIntel,60.0024001,Chrome,1440,900,,,a,0.8998,1,363,2,0,11,11,1,1,1,0,0,0,0,0,1,0,triangle,hexagon,,,,,,,,,,,,,,,,,,,,,,,,,,,,,,,,,,,,,,,,,,,,,,,,,,,,,,
293692,2022-10-06_13h32.28.867,vts_reward_expectancy,2022.2.4,MacIntel,60.0024001,Chrome,1440,900,,,a,2.1327,10,373,2,1,0,12,6,1,0,0,1,0,1,0,0,0,hexagon,triangle,,,,,,,,,,,,,,,,,,,,,,,,,,,,,,,,,,,,,,,,,,,,,,,,,,,,,,
293692,2022-10-06_13h32.28.867,vts_reward_expectancy,2022.2.4,MacIntel,60.0024001,Chrome,1440,900,,,l,0.6815,1,374,2,1,1,13,1,1,1,0,0,0,0,0,1,0,triangle,hexagon,,,,,,,,,,,,,,,,,,,,,,,,,,,,,,,,,,,,,,,,,,,,,,,,,,,,,,
293692,2022-10-06_13h32.28.867,vts_reward_expectancy,2022.2.4,MacIntel,60.0024001,Chrome,1440,900,,,a,0.5187,1,375,2,1,2,14,5,1,0,1,0,0,0,0,0,1,circle,star,,,,,,,,,,,,,,,,,,,,,,,,,,,,,,,,,,,,,,,,,,,,,,,,,,,,,,
293692,2022-10-06_13h32.28.867,vts_reward_expectancy,2022.2.4,MacIntel,60.0024001,Chrome,1440,900,,,l,0.1006,10,385,2,1,3,15,8,1,0,0,1,0,0,0,0,1,hexagon,star,,,,,,,,,,,,,,,,,,,,,,,,,,,,,,,,,,,,,,,,,,,,,,,,,,,,,,
293692,2022-10-06_13h32.28.867,vts_reward_expectancy,2022.2.4,MacIntel,60.0024001,Chrome,1440,900,,,a,0.5883,10,395,2,1,4,16,10,1,0,0,0,1,0,1,0,0,star ,circle,,,,,,,,,,,,,,,,,,,,,,,,,,,,,,,,,,,,,,,,,,,,,,,,,,,,,,
293692,2022-10-06_13h32.28.867,vts_reward_expectancy,2022.2.4,MacIntel,60.0024001,Chrome,1440,900,,,l,0.5994,10,405,2,1,5,17,4,1,0,1,0,0,0,0,1,0,circle,hexagon,,,,,,,,,,,,,,,,,,,,,,,,,,,,,,,,,,,,,,,,,,,,,,,,,,,,,,
293692,2022-10-06_13h32.28.867,vts_reward_expectancy,2022.2.4,MacIntel,60.0024001,Chrome,1440,900,,,a,0.8052,1,406,2,1,6,18,3,1,0,1,0,0,1,0,0,0,circle,triangle,,,,,,,,,,,,,,,,,,,,,,,,,,,,,,,,,,,,,,,,,,,,,,,,,,,,,,
293692,2022-10-06_13h32.28.867,vts_reward_expectancy,2022.2.4,MacIntel,60.0024001,Chrome,1440,900,,,l,0.532,1,407,2,1,7,19,7,1,0,0,1,0,0,1,0,0,hexagon,circle,,,,,,,,,,,,,,,,,,,,,,,,,,,,,,,,,,,,,,,,,,,,,,,,,,,,,,
293692,2022-10-06_13h32.28.867,vts_reward_expectancy,2022.2.4,MacIntel,60.0024001,Chrome,1440,900,,,a,0.4496,1,408,2,1,8,20,2,1,1,0,0,0,0,0,0,1,triangle,star,,,,,,,,,,,,,,,,,,,,,,,,,,,,,,,,,,,,,,,,,,,,,,,,,,,,,,
293692,2022-10-06_13h32.28.867,vts_reward_expectancy,2022.2.4,MacIntel,60.0024001,Chrome,1440,900,,,a,0.622,10,418,2,1,9,21,9,1,0,0,0,1,1,0,0,0,star,triangle,,,,,,,,,,,,,,,,,,,,,,,,,,,,,,,,,,,,,,,,,,,,,,,,,,,,,,
293692,2022-10-06_13h32.28.867,vts_reward_expectancy,2022.2.4,MacIntel,60.0024001,Chrome,1440,900,,,a,0.6231,1,419,2,1,10,22,11,1,0,0,0,1,0,0,1,0,star,hexagon,,,,,,,,,,,,,,,,,,,,,,,,,,,,,,,,,,,,,,,,,,,,,,,,,,,,,,
293692,2022-10-06_13h32.28.867,vts_reward_expectancy,2022.2.4,MacIntel,60.0024001,Chrome,1440,900,,,l,0.7149,1,420,2,1,11,23,0,1,1,0,0,0,0,1,0,0,triangle,circle,,,,,,,,,,,,,,,,,,,,,,,,,,,,,,,,,,,,,,,,,,,,,,,,,,,,,,
293692,2022-10-06_13h32.28.867,vts_reward_expectancy,2022.2.4,MacIntel,60.0024001,Chrome,1440,900,,,a,0.2996,1,421,2,2,0,24,6,1,0,0,1,0,1,0,0,0,hexagon,triangle,,,,,,,,,,,,,,,,,,,,,,,,,,,,,,,,,,,,,,,,,,,,,,,,,,,,,,
293692,2022-10-06_13h32.28.867,vts_reward_expectancy,2022.2.4,MacIntel,60.0024001,Chrome,1440,900,,,l,1.0352,10,431,2,2,1,25,5,1,0,1,0,0,0,0,0,1,circle,star,,,,,,,,,,,,,,,,,,,,,,,,,,,,,,,,,,,,,,,,,,,,,,,,,,,,,,
293692,2022-10-06_13h32.28.867,vts_reward_expectancy,2022.2.4,MacIntel,60.0024001,Chrome,1440,900,,,a,1.0492,1,432,2,2,2,26,9,1,0,0,0,1,1,0,0,0,star,triangle,,,,,,,,,,,,,,,,,,,,,,,,,,,,,,,,,,,,,,,,,,,,,,,,,,,,,,
293692,2022-10-06_13h32.28.867,vts_reward_expectancy,2022.2.4,MacIntel,60.0024001,Chrome,1440,900,,,l,0.5008,10,442,2,2,3,27,4,1,0,1,0,0,0,0,1,0,circle,hexagon,,,,,,,,,,,,,,,,,,,,,,,,,,,,,,,,,,,,,,,,,,,,,,,,,,,,,,
293692,2022-10-06_13h32.28.867,vts_reward_expectancy,2022.2.4,MacIntel,60.0024001,Chrome,1440,900,,,l,1.7691,10,452,2,2,4,28,2,1,1,0,0,0,0,0,0,1,triangle,star,,,,,,,,,,,,,,,,,,,,,,,,,,,,,,,,,,,,,,,,,,,,,,,,,,,,,,
293692,2022-10-06_13h32.28.867,vts_reward_expectancy,2022.2.4,MacIntel,60.0024001,Chrome,1440,900,,,a,0.5153,1,453,2,2,5,29,3,1,0,1,0,0,1,0,0,0,circle,triangle,,,,,,,,,,,,,,,,,,,,,,,,,,,,,,,,,,,,,,,,,,,,,,,,,,,,,,
293692,2022-10-06_13h32.28.867,vts_reward_expectancy,2022.2.4,MacIntel,60.0024001,Chrome,1440,900,,,l,0.2559,10,463,2,2,6,30,1,1,1,0,0,0,0,0,1,0,triangle,hexagon,,,,,,,,,,,,,,,,,,,,,,,,,,,,,,,,,,,,,,,,,,,,,,,,,,,,,,
293692,2022-10-06_13h32.28.867,vts_reward_expectancy,2022.2.4,MacIntel,60.0024001,Chrome,1440,900,,,a,0.3346,1,464,2,2,7,31,7,1,0,0,1,0,0,1,0,0,hexagon,circle,,,,,,,,,,,,,,,,,,,,,,,,,,,,,,,,,,,,,,,,,,,,,,,,,,,,,,
293692,2022-10-06_13h32.28.867,vts_reward_expectancy,2022.2.4,MacIntel,60.0024001,Chrome,1440,900,,,l,0.5246,1,465,2,2,8,32,0,1,1,0,0,0,0,1,0,0,triangle,circle,,,,,,,,,,,,,,,,,,,,,,,,,,,,,,,,,,,,,,,,,,,,,,,,,,,,,,
293692,2022-10-06_13h32.28.867,vts_reward_expectancy,2022.2.4,MacIntel,60.0024001,Chrome,1440,900,,,a,0.1166,10,475,2,2,9,33,11,1,0,0,0,1,0,0,1,0,star,hexagon,,,,,,,,,,,,,,,,,,,,,,,,,,,,,,,,,,,,,,,,,,,,,,,,,,,,,,
293692,2022-10-06_13h32.28.867,vts_reward_expectancy,2022.2.4,MacIntel,60.0024001,Chrome,1440,900,,,a,0.3859,10,485,2,2,10,34,10,1,0,0,0,1,0,1,0,0,star ,circle,,,,,,,,,,,,,,,,,,,,,,,,,,,,,,,,,,,,,,,,,,,,,,,,,,,,,,
293692,2022-10-06_13h32.28.867,vts_reward_expectancy,2022.2.4,MacIntel,60.0024001,Chrome,1440,900,,,l,0.3999,10,495,2,2,11,35,8,1,0,0,1,0,0,0,0,1,hexagon,star,,,,,,,,,,,,,,,,,,,,,,,,,,,,,,,,,,,,,,,,,,,,,,,,,,,,,,
293692,2022-10-06_13h32.28.867,vts_reward_expectancy,2022.2.4,MacIntel,60.0024001,Chrome,1440,900,,,,,,,,,,,,,,,,,,,,,,,132,W,triangle,1,0,d,1.6146,0,0,0,0,0,1,,,,,,,,,,,,,,,,,,,,,,,,,,,,,,,,,,,,,,,,,
293692,2022-10-06_13h32.28.867,vts_reward_expectancy,2022.2.4,MacIntel,60.0024001,Chrome,1440,900,,,,,,,,,,,,,,,,,,,,,,,174,S,star,1,0,f,0.8101,0,1,0,1,0,1,,,,,,,,,,,,,,,,,,,,,,,,,,,,,,,,,,,,,,,,,
293692,2022-10-06_13h32.28.867,vts_reward_expectancy,2022.2.4,MacIntel,60.0024001,Chrome,1440,900,,,,,,,,,,,,,,,,,,,,,,,160,B,hexagon,1,0,f,0.6934,0,2,0,2,0,1,,,,,,,,,,,,,,,,,,,,,,,,,,,,,,,,,,,,,,,,,
293692,2022-10-06_13h32.28.867,vts_reward_expectancy,2022.2.4,MacIntel,60.0024001,Chrome,1440,900,,,,,,,,,,,,,,,,,,,,,,,125,F,circle,1,0,d,0.6845,0,3,0,3,0,1,,,,,,,,,,,,,,,,,,,,,,,,,,,,,,,,,,,,,,,,,
293692,2022-10-06_13h32.28.867,vts_reward_expectancy,2022.2.4,MacIntel,60.0024001,Chrome,1440,900,,,,,,,,,,,,,,,,,,,,,,,167,H,triangle,1,0,f,0.7647,0,4,0,4,0,1,,,,,,,,,,,,,,,,,,,,,,,,,,,,,,,,,,,,,,,,,
293692,2022-10-06_13h32.28.867,vts_reward_expectancy,2022.2.4,MacIntel,60.0024001,Chrome,1440,900,,,,,,,,,,,,,,,,,,,,,,,139,Y,star,1,0,d,1.0295,0,5,0,5,0,1,,,,,,,,,,,,,,,,,,,,,,,,,,,,,,,,,,,,,,,,,
293692,2022-10-06_13h32.28.867,vts_reward_expectancy,2022.2.4,MacIntel,60.0024001,Chrome,1440,900,,,,,,,,,,,,,,,,,,,,,,,146,D,hexagon,1,0,d,0.9701,0,6,0,6,0,1,,,,,,,,,,,,,,,,,,,,,,,,,,,,,,,,,,,,,,,,,
293692,2022-10-06_13h32.28.867,vts_reward_expectancy,2022.2.4,MacIntel,60.0024001,Chrome,1440,900,,,,,,,,,,,,,,,,,,,,,,,181,U,circle,1,0,f,0.6977,0,7,0,7,0,1,,,,,,,,,,,,,,,,,,,,,,,,,,,,,,,,,,,,,,,,,
293692,2022-10-06_13h32.28.867,vts_reward_expectancy,2022.2.4,MacIntel,60.0024001,Chrome,1440,900,,,,,,,,,,,,,,,,,,,,,,,132,W,triangle,1,0,d,0.6711,0,8,0,8,0,1,,,,,,,,,,,,,,,,,,,,,,,,,,,,,,,,,,,,,,,,,
293692,2022-10-06_13h32.28.867,vts_reward_expectancy,2022.2.4,MacIntel,60.0024001,Chrome,1440,900,,,,,,,,,,,,,,,,,,,,,,,174,S,hexagon,1,0,f,0.6491,0,9,0,9,0,1,,,,,,,,,,,,,,,,,,,,,,,,,,,,,,,,,,,,,,,,,
293692,2022-10-06_13h32.28.867,vts_reward_expectancy,2022.2.4,MacIntel,60.0024001,Chrome,1440,900,,,,,,,,,,,,,,,,,,,,,,,160,D,hexagon,1,0,,,1,,,,,,j,0.8134,0,0,0,0,1,,,,,,,,,,,,,,,,,,,,,,,,,,,,,,,,,,
293692,2022-10-06_13h32.28.867,vts_reward_expectancy,2022.2.4,MacIntel,60.0024001,Chrome,1440,900,,,,,,,,,,,,,,,,,,,,,,,146,U,star,1,0,,,1,,,,,,k,0.5848,1,0,1,0,1,,,,,,,,,,,,,,,,,,,,,,,,,,,,,,,,,,
293692,2022-10-06_13h32.28.867,vts_reward_expectancy,2022.2.4,MacIntel,60.0024001,Chrome,1440,900,,,,,,,,,,,,,,,,,,,,,,,132,F,triangle,1,0,,,1,,,,,,j,0.8516,2,0,2,0,1,,,,,,,,,,,,,,,,,,,,,,,,,,,,,,,,,,
293692,2022-10-06_13h32.28.867,vts_reward_expectancy,2022.2.4,MacIntel,60.0024001,Chrome,1440,900,,,,,,,,,,,,,,,,,,,,,,,174,B,circle,1,0,,,1,,,,,,j,0.6465,3,0,3,0,1,,,,,,,,,,,,,,,,,,,,,,,,,,,,,,,,,,
293692,2022-10-06_13h32.28.867,vts_reward_expectancy,2022.2.4,MacIntel,60.0024001,Chrome,1440,900,,,,,,,,,,,,,,,,,,,,,,,139,S,hexagon,1,0,,,1,,,,,,k,0.8307,4,0,4,0,1,,,,,,,,,,,,,,,,,,,,,,,,,,,,,,,,,,
293692,2022-10-06_13h32.28.867,vts_reward_expectancy,2022.2.4,MacIntel,60.0024001,Chrome,1440,900,,,,,,,,,,,,,,,,,,,,,,,181,H,star,1,0,,,1,,,,,,j,1.0917,5,0,5,0,1,,,,,,,,,,,,,,,,,,,,,,,,,,,,,,,,,,
293692,2022-10-06_13h32.28.867,vts_reward_expectancy,2022.2.4,MacIntel,60.0024001,Chrome,1440,900,,,,,,,,,,,,,,,,,,,,,,,167,W,triangle,1,0,,,1,,,,,,k,0.7834,6,0,6,0,1,,,,,,,,,,,,,,,,,,,,,,,,,,,,,,,,,,
293692,2022-10-06_13h32.28.867,vts_reward_expectancy,2022.2.4,MacIntel,60.0024001,Chrome,1440,900,,,,,,,,,,,,,,,,,,,,,,,125,Y,circle,0,0,,,1,,,,,,j,0.7522,7,0,7,0,1,,,,,,,,,,,,,,,,,,,,,,,,,,,,,,,,,,
293692,2022-10-06_13h32.28.867,vts_reward_expectancy,2022.2.4,MacIntel,60.0024001,Chrome,1440,900,,,,,,,,,,,,,,,,,,,,,,,160,D,hexagon,1,1,,,1,,,,,,j,0.6628,8,0,8,0,1,,,,,,,,,,,,,,,,,,,,,,,,,,,,,,,,,,
293692,2022-10-06_13h32.28.867,vts_reward_expectancy,2022.2.4,MacIntel,60.0024001,Chrome,1440,900,,,,,,,,,,,,,,,,,,,,,,,146,U,circle,1,0,,,1,,,,,,k,0.8296,9,0,9,0,1,,,,,,,,,,,,,,,,,,,,,,,,,,,,,,,,,,
293692,2022-10-06_13h32.28.867,vts_reward_expectancy,2022.2.4,MacIntel,60.0024001,Chrome,1440,900,,,,,0,495,,,,,,,,,,,,,,,,,125,U,star,1,0,,,2,,,,,,,,,,,,,-1,number,NA,d,2.9071,vtsPrac,0,0,0,0,1,,,,,,,,,,,,,,,,,,,,,,,
293692,2022-10-06_13h32.28.867,vts_reward_expectancy,2022.2.4,MacIntel,60.0024001,Chrome,1440,900,,,,,0,495,,,,,,,,,,,,,,,,,146,W,triangle,1,0,,,2,,,,,,,,,,,,,repeat,number,numRpt,d,1.0435,vtsPrac,1,0,1,0,1,,,,,,,,,,,,,,,,,,,,,,,
293692,2022-10-06_13h32.28.867,vts_reward_expectancy,2022.2.4,MacIntel,60.0024001,Chrome,1440,900,,,,,0,495,,,,,,,,,,,,,,,,,167,F,star,1,0,,,2,,,,,,,,,,,,,repeat,number,numRpt,f,0.5472,vtsPrac,2,0,2,0,1,,,,,,,,,,,,,,,,,,,,,,,
293692,2022-10-06_13h32.28.867,vts_reward_expectancy,2022.2.4,MacIntel,60.0024001,Chrome,1440,900,,,,,0,495,,,,,,,,,,,,,,,,,174,B,triangle,1,0,,,2,,,,,,,,,,,,,repeat,number,numRpt,f,0.6644,vtsPrac,3,0,3,0,1,,,,,,,,,,,,,,,,,,,,,,,
293692,2022-10-06_13h32.28.867,vts_reward_expectancy,2022.2.4,MacIntel,60.0024001,Chrome,1440,900,,,,,0,495,,,,,,,,,,,,,,,,,125,U,circle,1,0,,,2,,,,,,,,,,,,,repeat,number,numRpt,d,0.6485,vtsPrac,4,0,4,0,1,,,,,,,,,,,,,,,,,,,,,,,
293692,2022-10-06_13h32.28.867,vts_reward_expectancy,2022.2.4,MacIntel,60.0024001,Chrome,1440,900,,,,,0,495,,,,,,,,,,,,,,,,,146,W,star,1,0,,,2,,,,,,,,,,,,,repeat,number,numRpt,d,0.8179,vtsPrac,5,0,5,0,1,,,,,,,,,,,,,,,,,,,,,,,
293692,2022-10-06_13h32.28.867,vts_reward_expectancy,2022.2.4,MacIntel,60.0024001,Chrome,1440,900,,,,,0,495,,,,,,,,,,,,,,,,,167,F,star,1,0,,,2,,,,,,,,,,,,,repeat,number,numRpt,f,0.7883,vtsPrac,6,0,6,0,1,,,,,,,,,,,,,,,,,,,,,,,
293692,2022-10-06_13h32.28.867,vts_reward_expectancy,2022.2.4,MacIntel,60.0024001,Chrome,1440,900,,,,,0,495,,,,,,,,,,,,,,,,,174,B,hexagon,1,0,,,2,,,,,,,,,,,,,repeat,number,numRpt,f,0.8505,vtsPrac,7,0,7,0,1,,,,,,,,,,,,,,,,,,,,,,,
293692,2022-10-06_13h32.28.867,vts_reward_expectancy,2022.2.4,MacIntel,60.0024001,Chrome,1440,900,,,,,0,495,,,,,,,,,,,,,,,,,174,B,star,1,0,,,2,,,,,,,,,,,,,repeat,number,numRpt,f,0.5893,vtsPrac,8,0,8,0,1,,,,,,,,,,,,,,,,,,,,,,,
293692,2022-10-06_13h32.28.867,vts_reward_expectancy,2022.2.4,MacIntel,60.0024001,Chrome,1440,900,,,,,0,495,,,,,,,,,,,,,,,,,125,Y,circle,1,0,,,2,,,,,,,,,,,,,repeat,number,numRpt,d,0.6145,vtsPrac,9,0,9,0,1,,,,,,,,,,,,,,,,,,,,,,,
293692,2022-10-06_13h32.28.867,vts_reward_expectancy,2022.2.4,MacIntel,60.0024001,Chrome,1440,900,,,,,0,495,,,,,,,,,,,,,,,,,132,H,circle,1,0,,,2,,,,,,,,,,,,,repeat,number,numRpt,d,1.4296,vtsPrac,10,0,10,0,1,,,,,,,,,,,,,,,,,,,,,,,
293692,2022-10-06_13h32.28.867,vts_reward_expectancy,2022.2.4,MacIntel,60.0024001,Chrome,1440,900,,,,,0,495,,,,,,,,,,,,,,,,,139,U,hexagon,1,0,,,2,,,,,,,,,,,,,repeat,number,numRpt,d,0.85,vtsPrac,11,0,11,0,1,,,,,,,,,,,,,,,,,,,,,,,
293692,2022-10-06_13h32.28.867,vts_reward_expectancy,2022.2.4,MacIntel,60.0024001,Chrome,1440,900,,,,,0,495,,,,,,,,,,,,,,,,,146,H,hexagon,1,0,,,2,,,,,,,,,,,,,repeat,number,numRpt,d,0.7804,vtsPrac,12,0,12,0,1,,,,,,,,,,,,,,,,,,,,,,,
293692,2022-10-06_13h32.28.867,vts_reward_expectancy,2022.2.4,MacIntel,60.0024001,Chrome,1440,900,,,,,0,495,,,,,,,,,,,,,,,,,139,B,star,1,0,,,2,,,,,,,,,,,,,repeat,number,numRpt,d,0.6467,vtsPrac,13,0,13,0,1,,,,,,,,,,,,,,,,,,,,,,,
293692,2022-10-06_13h32.28.867,vts_reward_expectancy,2022.2.4,MacIntel,60.0024001,Chrome,1440,900,,,,,0,495,,,,,,,,,,,,,,,,,160,U,circle,1,0,,,2,,,,,,,,,,,,,repeat,number,numRpt,f,1.263,vtsPrac,14,0,14,0,1,,,,,,,,,,,,,,,,,,,,,,,
293692,2022-10-06_13h32.28.867,vts_reward_expectancy,2022.2.4,MacIntel,60.0024001,Chrome,1440,900,,,,,0,495,,,,,,,,,,,,,,,,,174,S,hexagon,1,0,,,2,,,,,,,,,,,,,repeat,number,numRpt,f,1.0642,vtsPrac,15,0,15,0,1,,,,,,,,,,,,,,,,,,,,,,,
293692,2022-10-06_13h32.28.867,vts_reward_expectancy,2022.2.4,MacIntel,60.0024001,Chrome,1440,900,,,,,0,495,,,,,,,,,,,,,,,,,139,S,hexagon,1,0,,,3,,,,,,,,,,,,,switch,letter,lettSwt,k,1.4307,vtsPrac,0,0,0,0,1,,,,,,,,,,,,,,,,,,,,,,,
293692,2022-10-06_13h32.28.867,vts_reward_expectancy,2022.2.4,MacIntel,60.0024001,Chrome,1440,900,,,,,0,495,,,,,,,,,,,,,,,,,174,U,circle,1,0,,,3,,,,,,,,,,,,,switch,number,numSwt,f,0.6808,vtsPrac,1,0,1,0,1,,,,,,,,,,,,,,,,,,,,,,,
293692,2022-10-06_13h32.28.867,vts_reward_expectancy,2022.2.4,MacIntel,60.0024001,Chrome,1440,900,,,,,0,495,,,,,,,,,,,,,,,,,167,W,hexagon,1,0,,,3,,,,,,,,,,,,,switch,letter,lettSwt,k,1.5802,vtsPrac,2,0,2,0,1,,,,,,,,,,,,,,,,,,,,,,,
293692,2022-10-06_13h32.28.867,vts_reward_expectancy,2022.2.4,MacIntel,60.0024001,Chrome,1440,900,,,,,0,495,,,,,,,,,,,,,,,,,160,Y,circle,1,0,,,3,,,,,,,,,,,,,switch,number,numSwt,f,2.2855,vtsPrac,3,0,3,0,1,,,,,,,,,,,,,,,,,,,,,,,
293692,2022-10-06_13h32.28.867,vts_reward_expectancy,2022.2.4,MacIntel,60.0024001,Chrome,1440,900,,,,,0,495,,,,,,,,,,,,,,,,,139,S,hexagon,1,0,,,3,,,,,,,,,,,,,repeat,number,numRpt,d,1.4827,vtsPrac,4,0,4,0,1,,,,,,,,,,,,,,,,,,,,,,,
293692,2022-10-06_13h32.28.867,vts_reward_expectancy,2022.2.4,MacIntel,60.0024001,Chrome,1440,900,,,,,0,495,,,,,,,,,,,,,,,,,174,U,circle,1,0,,,3,,,,,,,,,,,,,switch,letter,lettSwt,k,0.6774,vtsPrac,5,0,5,0,1,,,,,,,,,,,,,,,,,,,,,,,
293692,2022-10-06_13h32.28.867,vts_reward_expectancy,2022.2.4,MacIntel,60.0024001,Chrome,1440,900,,,,,0,495,,,,,,,,,,,,,,,,,167,W,circle,1,0,,,3,,,,,,,,,,,,,repeat,letter,lettRpt,k,1.1829,vtsPrac,6,0,6,0,1,,,,,,,,,,,,,,,,,,,,,,,
293692,2022-10-06_13h32.28.867,vts_reward_expectancy,2022.2.4,MacIntel,60.0024001,Chrome,1440,900,,,,,0,495,,,,,,,,,,,,,,,,,160,Y,hexagon,1,0,,,3,,,,,,,,,,,,,switch,number,numSwt,f,0.6475,vtsPrac,7,0,7,0,1,,,,,,,,,,,,,,,,,,,,,,,
293692,2022-10-06_13h32.28.867,vts_reward_expectancy,2022.2.4,MacIntel,60.0024001,Chrome,1440,900,,,,,0,495,,,,,,,,,,,,,,,,,139,B,circle,1,0,,,3,,,,,,,,,,,,,repeat,number,numRpt,d,0.7965,vtsPrac,8,0,8,0,1,,,,,,,,,,,,,,,,,,,,,,,
293692,2022-10-06_13h32.28.867,vts_reward_expectancy,2022.2.4,MacIntel,60.0024001,Chrome,1440,900,,,,,0,495,,,,,,,,,,,,,,,,,160,D,hexagon,1,0,,,3,,,,,,,,,,,,,repeat,number,numRpt,f,2.5984,vtsPrac,9,0,9,0,1,,,,,,,,,,,,,,,,,,,,,,,
293692,2022-10-06_13h32.28.867,vts_reward_expectancy,2022.2.4,MacIntel,60.0024001,Chrome,1440,900,,,,,0,495,,,,,,,,,,,,,,,,,146,H,triangle,1,0,,,3,,,,,,,,,,,,,repeat,number,numRpt,d,1.0144,vtsPrac,10,0,10,0,1,,,,,,,,,,,,,,,,,,,,,,,
293692,2022-10-06_13h32.28.867,vts_reward_expectancy,2022.2.4,MacIntel,60.0024001,Chrome,1440,900,,,,,0,495,,,,,,,,,,,,,,,,,167,W,star,1,0,,,3,,,,,,,,,,,,,switch,letter,lettSwt,k,1.4734,vtsPrac,11,0,11,0,1,,,,,,,,,,,,,,,,,,,,,,,
293692,2022-10-06_13h32.28.867,vts_reward_expectancy,2022.2.4,MacIntel,60.0024001,Chrome,1440,900,,,,,0,495,,,,,,,,,,,,,,,,,174,W,triangle,-1,0,,,3,,,,,,,,,,,,,switch,no_choice,NA,,,vtsPrac,12,0,12,0,1,,,,,,,,,,,,,,,,,,,,,,,
293692,2022-10-06_13h32.28.867,vts_reward_expectancy,2022.2.4,MacIntel,60.0024001,Chrome,1440,900,,,,,0,495,,,,,,,,,,,,,,,,,181,Y,hexagon,1,0,,,3,,,,,,,,,,,,,switch,letter,lettSwt,k,1.5448,vtsPrac,13,0,13,0,1,,,,,,,,,,,,,,,,,,,,,,,
293692,2022-10-06_13h32.28.867,vts_reward_expectancy,2022.2.4,MacIntel,60.0024001,Chrome,1440,900,,,,,0,495,,,,,,,,,,,,,,,,,160,U,circle,0,0,,,3,,,,,,,,,,,,,switch,number,NA,d,1.8126,vtsPrac,14,0,14,0,1,,,,,,,,,,,,,,,,,,,,,,,
293692,2022-10-06_13h32.28.867,vts_reward_expectancy,2022.2.4,MacIntel,60.0024001,Chrome,1440,900,,,,,0,495,,,,,,,,,,,,,,,,,146,S,hexagon,1,1,,,3,,,,,,,,,,,,,repeat,number,numRpt,d,2.4164,vtsPrac,15,0,15,0,1,,,,,,,,,,,,,,,,,,,,,,,
293692,2022-10-06_13h32.28.867,vts_reward_expectancy,2022.2.4,MacIntel,60.0024001,Chrome,1440,900,,,,,,,,,,,,,,,,,,,,,,,,,,,,,,,,,,,,,,,,,,,,,,,,,,,,,,,,,,,,,,,,,,,,,,,,,,,,
293692,2022-10-06_13h32.28.867,vts_reward_expectancy,2022.2.4,MacIntel,60.0024001,Chrome,1440,900,,,,,,,,,,,,,,,,,,,,,,,,,,,,,,,,,,,,,,,,,,,,,,,,,,,,,,,,,,,,,,,,,,,,,,,,,,,,
293692,2022-10-06_13h32.28.867,vts_reward_expectancy,2022.2.4,MacIntel,60.0024001,Chrome,1440,900,,,,,0,495,,,,,,,,,,,,,,,,,125,S,hexagon,1,0,,,,,,,,,,,,,,,,repeat,number,numRpt,d,0.9826,noRew,,,,,,0,0,0,0,0,1,,,,,,,,,,,,,,,,,
293692,2022-10-06_13h32.28.867,vts_reward_expectancy,2022.2.4,MacIntel,60.0024001,Chrome,1440,900,,,,,0,495,,,,,,,,,,,,,,,,,139,F,triangle,1,0,,,,,,,,,,,,,,,,switch,letter,lettSwt,j,0.6836,noRew,,,,,,0,1,0,1,0,1,,,,,,,,,,,,,,,,,
293692,2022-10-06_13h32.28.867,vts_reward_expectancy,2022.2.4,MacIntel,60.0024001,Chrome,1440,900,,,,,0,495,,,,,,,,,,,,,,,,,146,U,hexagon,1,0,,,,,,,,,,,,,,,,switch,number,numSwt,d,0.878,noRew,,,,,,0,2,0,2,0,1,,,,,,,,,,,,,,,,,
293692,2022-10-06_13h32.28.867,vts_reward_expectancy,2022.2.4,MacIntel,60.0024001,Chrome,1440,900,,,,,0,495,,,,,,,,,,,,,,,,,132,Y,triangle,1,0,,,,,,,,,,,,,,,,switch,letter,lettSwt,k,0.651,noRew,,,,,,0,3,0,3,0,1,,,,,,,,,,,,,,,,,
293692,2022-10-06_13h32.28.867,vts_reward_expectancy,2022.2.4,MacIntel,60.0024001,Chrome,1440,900,,,,,0,495,,,,,,,,,,,,,,,,,125,S,triangle,1,0,,,,,,,,,,,,,,,,switch,number,numSwt,d,0.7852,noRew,,,,,,0,4,0,4,0,1,,,,,,,,,,,,,,,,,
293692,2022-10-06_13h32.28.867,vts_reward_expectancy,2022.2.4,MacIntel,60.0024001,Chrome,1440,900,,,,,0,495,,,,,,,,,,,,,,,,,139,F,star,1,0,,,,,,,,,,,,,,,,switch,letter,lettSwt,j,0.8624,noRew,,,,,,0,5,0,5,0,1,,,,,,,,,,,,,,,,,
293692,2022-10-06_13h32.28.867,vts_reward_expectancy,2022.2.4,MacIntel,60.0024001,Chrome,1440,900,,,,,0,495,,,,,,,,,,,,,,,,,146,U,triangle,1,0,,,,,,,,,,,,,,,,switch,number,numSwt,d,0.5492,noRew,,,,,,0,6,0,6,0,1,,,,,,,,,,,,,,,,,
293692,2022-10-06_13h32.28.867,vts_reward_expectancy,2022.2.4,MacIntel,60.0024001,Chrome,1440,900,,,,,0,495,,,,,,,,,,,,,,,,,132,Y,hexagon,1,0,,,,,,,,,,,,,,,,switch,letter,lettSwt,k,0.5973,noRew,,,,,,0,7,0,7,0,1,,,,,,,,,,,,,,,,,
293692,2022-10-06_13h32.28.867,vts_reward_expectancy,2022.2.4,MacIntel,60.0024001,Chrome,1440,900,,,,,0,495,,,,,,,,,,,,,,,,,125,S,triangle,1,0,,,,,,,,,,,,,,,,switch,number,numSwt,d,0.4802,noRew,,,,,,0,8,0,8,0,1,,,,,,,,,,,,,,,,,
293692,2022-10-06_13h32.28.867,vts_reward_expectancy,2022.2.4,MacIntel,60.0024001,Chrome,1440,900,,,,,0,495,,,,,,,,,,,,,,,,,132,F,hexagon,0,0,,,,,,,,,,,,,,,,switch,letter,NA,k,0.5809,noRew,,,,,,0,9,0,9,0,1,,,,,,,,,,,,,,,,,
293692,2022-10-06_13h32.28.867,vts_reward_expectancy,2022.2.4,MacIntel,60.0024001,Chrome,1440,900,,,,,0,495,,,,,,,,,,,,,,,,,139,D,circle,1,1,,,,,,,,,,,,,,,,repeat,letter,lettRpt,j,0.9621,noRew,,,,,,0,10,0,10,0,1,,,,,,,,,,,,,,,,,
293692,2022-10-06_13h32.28.867,vts_reward_expectancy,2022.2.4,MacIntel,60.0024001,Chrome,1440,900,,,,,0,495,,,,,,,,,,,,,,,,,160,Y,triangle,1,0,,,,,,,,,,,,,,,,repeat,letter,lettRpt,k,0.9502,noRew,,,,,,0,11,0,11,0,1,,,,,,,,,,,,,,,,,
293692,2022-10-06_13h32.28.867,vts_reward_expectancy,2022.2.4,MacIntel,60.0024001,Chrome,1440,900,,,,,0,495,,,,,,,,,,,,,,,,,174,S,circle,1,0,,,,,,,,,,,,,,,,switch,number,numSwt,f,0.7146,noRew,,,,,,0,12,0,12,0,1,,,,,,,,,,,,,,,,,
293692,2022-10-06_13h32.28.867,vts_reward_expectancy,2022.2.4,MacIntel,60.0024001,Chrome,1440,900,,,,,0,495,,,,,,,,,,,,,,,,,167,B,triangle,1,0,,,,,,,,,,,,,,,,switch,letter,lettSwt,j,0.6147,noRew,,,,,,0,13,0,13,0,1,,,,,,,,,,,,,,,,,
293692,2022-10-06_13h32.28.867,vts_reward_expectancy,2022.2.4,MacIntel,60.0024001,Chrome,1440,900,,,,,0,495,,,,,,,,,,,,,,,,,125,U,triangle,1,0,,,,,,,,,,,,,,,,switch,number,numSwt,d,0.5772,noRew,,,,,,0,14,0,14,0,1,,,,,,,,,,,,,,,,,
293692,2022-10-06_13h32.28.867,vts_reward_expectancy,2022.2.4,MacIntel,60.0024001,Chrome,1440,900,,,,,0,495,,,,,,,,,,,,,,,,,146,F,circle,1,0,,,,,,,,,,,,,,,,switch,letter,lettSwt,j,0.6969,noRew,,,,,,0,15,0,15,0,1,,,,,,,,,,,,,,,,,
293692,2022-10-06_13h32.28.867,vts_reward_expectancy,2022.2.4,MacIntel,60.0024001,Chrome,1440,900,,,,,0,495,,,,,,,,,,,,,,,,,132,D,star,1,0,,,,,,,,,,,,,,,,switch,number,numSwt,d,1.1642,noRew,,,,,,0,16,0,16,0,1,,,,,,,,,,,,,,,,,
293692,2022-10-06_13h32.28.867,vts_reward_expectancy,2022.2.4,MacIntel,60.0024001,Chrome,1440,900,,,,,0,495,,,,,,,,,,,,,,,,,160,F,hexagon,1,0,,,,,,,,,,,,,,,,switch,letter,lettSwt,j,0.8028,noRew,,,,,,0,17,0,17,0,1,,,,,,,,,,,,,,,,,
293692,2022-10-06_13h32.28.867,vts_reward_expectancy,2022.2.4,MacIntel,60.0024001,Chrome,1440,900,,,,,0,495,,,,,,,,,,,,,,,,,125,U,star,1,0,,,,,,,,,,,,,,,,switch,number,numSwt,d,0.996,noRew,,,,,,0,18,0,18,0,1,,,,,,,,,,,,,,,,,
293692,2022-10-06_13h32.28.867,vts_reward_expectancy,2022.2.4,MacIntel,60.0024001,Chrome,1440,900,,,,,0,495,,,,,,,,,,,,,,,,,181,H,triangle,1,0,,,,,,,,,,,,,,,,switch,letter,lettSwt,j,0.7312,noRew,,,,,,0,19,0,19,0,1,,,,,,,,,,,,,,,,,
293692,2022-10-06_13h32.28.867,vts_reward_expectancy,2022.2.4,MacIntel,60.0024001,Chrome,1440,900,,,,,0,495,,,,,,,,,,,,,,,,,125,B,star,1,0,,,,,,,,,,,,,,,,switch,number,numSwt,d,0.9764,noRew,,,,,,0,20,0,20,0,1,,,,,,,,,,,,,,,,,
293692,2022-10-06_13h32.28.867,vts_reward_expectancy,2022.2.4,MacIntel,60.0024001,Chrome,1440,900,,,,,0,495,,,,,,,,,,,,,,,,,181,Y,hexagon,1,0,,,,,,,,,,,,,,,,switch,letter,lettSwt,k,0.6143,noRew,,,,,,0,21,0,21,0,1,,,,,,,,,,,,,,,,,
293692,2022-10-06_13h32.28.867,vts_reward_expectancy,2022.2.4,MacIntel,60.0024001,Chrome,1440,900,,,,,0,495,,,,,,,,,,,,,,,,,174,W,star,1,0,,,,,,,,,,,,,,,,switch,number,numSwt,f,1.5153,noRew,,,,,,0,22,0,22,0,1,,,,,,,,,,,,,,,,,
293692,2022-10-06_13h32.28.867,vts_reward_expectancy,2022.2.4,MacIntel,60.0024001,Chrome,1440,900,,,,,0,495,,,,,,,,,,,,,,,,,139,U,triangle,1,0,,,,,,,,,,,,,,,,switch,letter,lettSwt,k,1.4136,noRew,,,,,,0,23,0,23,0,1,,,,,,,,,,,,,,,,,
293692,2022-10-06_13h32.28.867,vts_reward_expectancy,2022.2.4,MacIntel,60.0024001,Chrome,1440,900,,,,,0,495,,,,,,,,,,,,,,,,,181,F,hexagon,1,0,,,,,,,,,,,,,,,,switch,number,numSwt,f,1.2102,noRew,,,,,,0,24,0,24,0,1,,,,,,,,,,,,,,,,,
293692,2022-10-06_13h32.28.867,vts_reward_expectancy,2022.2.4,MacIntel,60.0024001,Chrome,1440,900,,,,,0,495,,,,,,,,,,,,,,,,,132,Y,circle,1,0,,,,,,,,,,,,,,,,switch,letter,lettSwt,k,0.7976,noRew,,,,,,0,25,0,25,0,1,,,,,,,,,,,,,,,,,
293692,2022-10-06_13h32.28.867,vts_reward_expectancy,2022.2.4,MacIntel,60.0024001,Chrome,1440,900,,,,,0,495,,,,,,,,,,,,,,,,,160,S,star,1,0,,,,,,,,,,,,,,,,switch,number,numSwt,f,1.1779,noRew,,,,,,0,26,0,26,0,1,,,,,,,,,,,,,,,,,
293692,2022-10-06_13h32.28.867,vts_reward_expectancy,2022.2.4,MacIntel,60.0024001,Chrome,1440,900,,,,,0,495,,,,,,,,,,,,,,,,,139,B,hexagon,1,0,,,,,,,,,,,,,,,,switch,letter,lettSwt,j,1.2588,noRew,,,,,,0,27,0,27,0,1,,,,,,,,,,,,,,,,,
293692,2022-10-06_13h32.28.867,vts_reward_expectancy,2022.2.4,MacIntel,60.0024001,Chrome,1440,900,,,,,0,495,,,,,,,,,,,,,,,,,146,U,triangle,1,0,,,,,,,,,,,,,,,,switch,number,numSwt,d,1.1173,noRew,,,,,,0,28,0,28,0,1,,,,,,,,,,,,,,,,,
293692,2022-10-06_13h32.28.867,vts_reward_expectancy,2022.2.4,MacIntel,60.0024001,Chrome,1440,900,,,,,0,495,,,,,,,,,,,,,,,,,181,F,star,1,0,,,,,,,,,,,,,,,,switch,letter,lettSwt,j,1.5111,noRew,,,,,,0,29,0,29,0,1,,,,,,,,,,,,,,,,,
293692,2022-10-06_13h32.28.867,vts_reward_expectancy,2022.2.4,MacIntel,60.0024001,Chrome,1440,900,,,,,0,495,,,,,,,,,,,,,,,,,167,H,hexagon,1,0,,,,,,,,,,,,,,,,switch,number,numSwt,f,0.7969,noRew,,,,,,0,30,0,30,0,1,,,,,,,,,,,,,,,,,
293692,2022-10-06_13h32.28.867,vts_reward_expectancy,2022.2.4,MacIntel,60.0024001,Chrome,1440,900,,,,,0,495,,,,,,,,,,,,,,,,,174,B,triangle,1,0,,,,,,,,,,,,,,,,switch,letter,lettSwt,j,1.9031,noRew,,,,,,0,31,0,31,0,1,,,,,,,,,,,,,,,,,
293692,2022-10-06_13h32.28.867,vts_reward_expectancy,2022.2.4,MacIntel,60.0024001,Chrome,1440,900,,,,,0,495,,,,,,,,,,,,,,,,,167,B,circle,1,0,,,,,,,,,,,,,,,,switch,number,numSwt,f,1,noRew,,,,,,0,32,0,32,0,1,,,,,,,,,,,,,,,,,
293692,2022-10-06_13h32.28.867,vts_reward_expectancy,2022.2.4,MacIntel,60.0024001,Chrome,1440,900,,,,,0,495,,,,,,,,,,,,,,,,,139,F,hexagon,1,0,,,,,,,,,,,,,,,,switch,letter,lettSwt,j,0.7975,noRew,,,,,,0,33,0,33,0,1,,,,,,,,,,,,,,,,,
293692,2022-10-06_13h32.28.867,vts_reward_expectancy,2022.2.4,MacIntel,60.0024001,Chrome,1440,900,,,,,0,495,,,,,,,,,,,,,,,,,146,D,triangle,1,0,,,,,,,,,,,,,,,,repeat,letter,lettRpt,j,1.1371,noRew,,,,,,0,34,0,34,0,1,,,,,,,,,,,,,,,,,
293692,2022-10-06_13h32.28.867,vts_reward_expectancy,2022.2.4,MacIntel,60.0024001,Chrome,1440,900,,,,,0,495,,,,,,,,,,,,,,,,,174,U,hexagon,1,0,,,,,,,,,,,,,,,,switch,number,numSwt,f,1.031,noRew,,,,,,0,35,0,35,0,1,,,,,,,,,,,,,,,,,
293692,2022-10-06_13h32.28.867,vts_reward_expectancy,2022.2.4,MacIntel,60.0024001,Chrome,1440,900,,,,,0,495,,,,,,,,,,,,,,,,,125,F,hexagon,1,0,,,,,,,,,,,,,,,,switch,letter,lettSwt,j,0.6821,noRew,,,,,,0,36,0,36,0,1,,,,,,,,,,,,,,,,,
293692,2022-10-06_13h32.28.867,vts_reward_expectancy,2022.2.4,MacIntel,60.0024001,Chrome,1440,900,,,,,0,495,,,,,,,,,,,,,,,,,139,S,triangle,1,0,,,,,,,,,,,,,,,,switch,number,numSwt,d,0.9457,noRew,,,,,,0,37,0,37,0,1,,,,,,,,,,,,,,,,,
293692,2022-10-06_13h32.28.867,vts_reward_expectancy,2022.2.4,MacIntel,60.0024001,Chrome,1440,900,,,,,0,495,,,,,,,,,,,,,,,,,160,B,star,1,0,,,,,,,,,,,,,,,,switch,letter,lettSwt,j,0.7642,noRew,,,,,,0,38,0,38,0,1,,,,,,,,,,,,,,,,,
293692,2022-10-06_13h32.28.867,vts_reward_expectancy,2022.2.4,MacIntel,60.0024001,Chrome,1440,900,,,,,0,495,,,,,,,,,,,,,,,,,181,H,triangle,1,0,,,,,,,,,,,,,,,,switch,number,numSwt,f,0.7894,noRew,,,,,,0,39,0,39,0,1,,,,,,,,,,,,,,,,,
293692,2022-10-06_13h32.28.867,vts_reward_expectancy,2022.2.4,MacIntel,60.0024001,Chrome,1440,900,,,,,0,495,,,,,,,,,,,,,,,,,181,B,triangle,1,0,,,,,,,,,,,,,,,,switch,letter,lettSwt,j,1.2998,noRew,,,,,,0,40,0,40,0,1,,,,,,,,,,,,,,,,,
293692,2022-10-06_13h32.28.867,vts_reward_expectancy,2022.2.4,MacIntel,60.0024001,Chrome,1440,900,,,,,0,495,,,,,,,,,,,,,,,,,146,S,star,1,0,,,,,,,,,,,,,,,,switch,number,numSwt,d,0.8866,noRew,,,,,,0,41,0,41,0,1,,,,,,,,,,,,,,,,,
293692,2022-10-06_13h32.28.867,vts_reward_expectancy,2022.2.4,MacIntel,60.0024001,Chrome,1440,900,,,,,0,495,,,,,,,,,,,,,,,,,125,U,circle,1,0,,,,,,,,,,,,,,,,switch,letter,lettSwt,k,1.0327,noRew,,,,,,0,42,0,42,0,1,,,,,,,,,,,,,,,,,
293692,2022-10-06_13h32.28.867,vts_reward_expectancy,2022.2.4,MacIntel,60.0024001,Chrome,1440,900,,,,,0,495,,,,,,,,,,,,,,,,,160,Y,star,1,0,,,,,,,,,,,,,,,,switch,number,numSwt,f,1.2088,noRew,,,,,,0,43,0,43,0,1,,,,,,,,,,,,,,,,,
293692,2022-10-06_13h32.28.867,vts_reward_expectancy,2022.2.4,MacIntel,60.0024001,Chrome,1440,900,,,,,0,495,,,,,,,,,,,,,,,,,167,Y,hexagon,1,0,,,,,,,,,,,,,,,,switch,letter,lettSwt,k,0.9041,noRew,,,,,,0,44,0,44,0,1,,,,,,,,,,,,,,,,,
293692,2022-10-06_13h32.28.867,vts_reward_expectancy,2022.2.4,MacIntel,60.0024001,Chrome,1440,900,,,,,0,495,,,,,,,,,,,,,,,,,181,U,circle,1,0,,,,,,,,,,,,,,,,switch,number,numSwt,f,0.8937,noRew,,,,,,0,45,0,45,0,1,,,,,,,,,,,,,,,,,
293692,2022-10-06_13h32.28.867,vts_reward_expectancy,2022.2.4,MacIntel,60.0024001,Chrome,1440,900,,,,,0,495,,,,,,,,,,,,,,,,,132,B,circle,1,0,,,,,,,,,,,,,,,,switch,letter,lettSwt,j,0.8777,noRew,,,,,,0,46,0,46,0,1,,,,,,,,,,,,,,,,,
293692,2022-10-06_13h32.28.867,vts_reward_expectancy,2022.2.4,MacIntel,60.0024001,Chrome,1440,900,,,,,0,495,,,,,,,,,,,,,,,,,174,W,triangle,1,0,,,,,,,,,,,,,,,,switch,number,numSwt,f,1.0492,noRew,,,,,,0,47,0,47,0,1,,,,,,,,,,,,,,,,,
293692,2022-10-06_13h32.28.867,vts_reward_expectancy,2022.2.4,MacIntel,60.0024001,Chrome,1440,900,,,,,0,495,,,,,,,,,,,,,,,,,160,H,circle,1,0,,,,,,,,,,,,,,,,switch,letter,lettSwt,j,0.9473,noRew,,,,,,0,48,0,48,0,1,,,,,,,,,,,,,,,,,
293692,2022-10-06_13h32.28.867,vts_reward_expectancy,2022.2.4,MacIntel,60.0024001,Chrome,1440,900,,,,,0,495,,,,,,,,,,,,,,,,,146,F,triangle,1,0,,,,,,,,,,,,,,,,switch,number,numSwt,d,1.2756,noRew,,,,,,0,49,0,49,0,1,,,,,,,,,,,,,,,,,
293692,2022-10-06_13h32.28.867,vts_reward_expectancy,2022.2.4,MacIntel,60.0024001,Chrome,1440,900,,,,,0,495,,,,,,,,,,,,,,,,,125,W,circle,1,0,,,,,,,,,,,,,,,,switch,letter,lettSwt,k,1.4795,noRew,,,,,,0,50,0,50,0,1,,,,,,,,,,,,,,,,,
293692,2022-10-06_13h32.28.867,vts_reward_expectancy,2022.2.4,MacIntel,60.0024001,Chrome,1440,900,,,,,0,495,,,,,,,,,,,,,,,,,167,B,triangle,1,0,,,,,,,,,,,,,,,,switch,number,numSwt,f,0.8813,noRew,,,,,,0,51,0,51,0,1,,,,,,,,,,,,,,,,,
293692,2022-10-06_13h32.28.867,vts_reward_expectancy,2022.2.4,MacIntel,60.0024001,Chrome,1440,900,,,,,0,495,,,,,,,,,,,,,,,,,160,W,hexagon,1,0,,,,,,,,,,,,,,,,switch,letter,lettSwt,k,0.9858,noRew,,,,,,0,52,0,52,0,1,,,,,,,,,,,,,,,,,
293692,2022-10-06_13h32.28.867,vts_reward_expectancy,2022.2.4,MacIntel,60.0024001,Chrome,1440,900,,,,,0,495,,,,,,,,,,,,,,,,,146,F,triangle,1,0,,,,,,,,,,,,,,,,switch,number,numSwt,d,1.8971,noRew,,,,,,0,53,0,53,0,1,,,,,,,,,,,,,,,,,
293692,2022-10-06_13h32.28.867,vts_reward_expectancy,2022.2.4,MacIntel,60.0024001,Chrome,1440,900,,,,,0,495,,,,,,,,,,,,,,,,,132,B,triangle,-1,0,,,,,,,,,,,,,,,,switch,no_choice,NA,,,noRew,,,,,,0,54,0,54,0,1,,,,,,,,,,,,,,,,,
293692,2022-10-06_13h32.28.867,vts_reward_expectancy,2022.2.4,MacIntel,60.0024001,Chrome,1440,900,,,,,0,495,,,,,,,,,,,,,,,,,167,Y,star,1,0,,,,,,,,,,,,,,,,switch,letter,lettSwt,k,0.7363,noRew,,,,,,0,55,0,55,0,1,,,,,,,,,,,,,,,,,
293692,2022-10-06_13h32.28.867,vts_reward_expectancy,2022.2.4,MacIntel,60.0024001,Chrome,1440,900,,,,,0,495,,,,,,,,,,,,,,,,,167,Y,circle,1,0,,,,,,,,,,,,,,,,repeat,letter,lettRpt,k,0.6949,noRew,,,,,,0,56,0,56,0,1,,,,,,,,,,,,,,,,,
293692,2022-10-06_13h32.28.867,vts_reward_expectancy,2022.2.4,MacIntel,60.0024001,Chrome,1440,900,,,,,0,495,,,,,,,,,,,,,,,,,146,U,hexagon,1,0,,,,,,,,,,,,,,,,repeat,letter,lettRpt,k,0.7314,noRew,,,,,,0,57,0,57,0,1,,,,,,,,,,,,,,,,,
293692,2022-10-06_13h32.28.867,vts_reward_expectancy,2022.2.4,MacIntel,60.0024001,Chrome,1440,900,,,,,0,495,,,,,,,,,,,,,,,,,174,W,star,1,0,,,,,,,,,,,,,,,,repeat,letter,lettRpt,k,0.7014,noRew,,,,,,0,58,0,58,0,1,,,,,,,,,,,,,,,,,
293692,2022-10-06_13h32.28.867,vts_reward_expectancy,2022.2.4,MacIntel,60.0024001,Chrome,1440,900,,,,,0,495,,,,,,,,,,,,,,,,,132,H,triangle,1,0,,,,,,,,,,,,,,,,repeat,letter,lettRpt,j,1.032,noRew,,,,,,0,59,0,59,0,1,,,,,,,,,,,,,,,,,
293692,2022-10-06_13h32.28.867,vts_reward_expectancy,2022.2.4,MacIntel,60.0024001,Chrome,1440,900,,,,,0,495,,,,,,,,,,,,,,,,,139,S,hexagon,1,0,,,,,,,,,,,,,,,,switch,number,numSwt,d,0.9663,noRew,,,,,,0,60,0,60,0,1,,,,,,,,,,,,,,,,,
293692,2022-10-06_13h32.28.867,vts_reward_expectancy,2022.2.4,MacIntel,60.0024001,Chrome,1440,900,,,,,0,495,,,,,,,,,,,,,,,,,174,F,star,1,0,,,,,,,,,,,,,,,,switch,letter,lettSwt,j,1.5812,noRew,,,,,,0,61,0,61,0,1,,,,,,,,,,,,,,,,,
293692,2022-10-06_13h32.28.867,vts_reward_expectancy,2022.2.4,MacIntel,60.0024001,Chrome,1440,900,,,,,0,495,,,,,,,,,,,,,,,,,160,D,star,1,0,,,,,,,,,,,,,,,,repeat,letter,lettRpt,j,1.4115,noRew,,,,,,0,62,0,62,0,1,,,,,,,,,,,,,,,,,
293692,2022-10-06_13h32.28.867,vts_reward_expectancy,2022.2.4,MacIntel,60.0024001,Chrome,1440,900,,,,,0,495,,,,,,,,,,,,,,,,,132,U,circle,1,0,,,,,,,,,,,,,,,,repeat,letter,lettRpt,k,1.0789,noRew,,,,,,0,63,0,63,0,1,,,,,,,,,,,,,,,,,
293692,2022-10-06_13h32.28.867,vts_reward_expectancy,2022.2.4,MacIntel,60.0024001,Chrome,1440,900,,,,,,,,,,,,,,,,,,,,,,,,,,,,,,,,,,,,,,,,,,,,,,,,,,,,,,,,,,,,,,,,,,,,,,,,,,,,
293692,2022-10-06_13h32.28.867,vts_reward_expectancy,2022.2.4,MacIntel,60.0024001,Chrome,1440,900,,,,,1,496,,,,,,,,,,,,,,,,,181,H,triangle,1,0,,,,,,,,,,,,,,,,repeat,letter,lettRpt,j,1.4627,Lo,,,,,,0,,,,,,space,2.8644,low,0,0,0,0,1,,,,,,,,,
293692,2022-10-06_13h32.28.867,vts_reward_expectancy,2022.2.4,MacIntel,60.0024001,Chrome,1440,900,,,,,0,496,,,,,,,,,,,,,,,,,132,W,star,1,0,,,,,,,,,,,,,,,,switch,number,numSwt,d,0.8972,Hi,,,,,,0,,,,,,,,low,1,0,1,0,1,,,,,,,,,
293692,2022-10-06_13h32.28.867,vts_reward_expectancy,2022.2.4,MacIntel,60.0024001,Chrome,1440,900,,,,,1,497,,,,,,,,,,,,,,,,,125,F,triangle,1,0,,,,,,,,,,,,,,,,repeat,number,numRpt,d,0.4864,Lo,,,,,,0,,,,,,,,low,2,0,2,0,1,,,,,,,,,
293692,2022-10-06_13h32.28.867,vts_reward_expectancy,2022.2.4,MacIntel,60.0024001,Chrome,1440,900,,,,,10,507,,,,,,,,,,,,,,,,,167,D,star,1,0,,,,,,,,,,,,,,,,repeat,number,numRpt,f,0.431,Hi,,,,,,0,,,,,,,,low,3,0,3,0,1,,,,,,,,,
293692,2022-10-06_13h32.28.867,vts_reward_expectancy,2022.2.4,MacIntel,60.0024001,Chrome,1440,900,,,,,1,508,,,,,,,,,,,,,,,,,146,S,triangle,1,0,,,,,,,,,,,,,,,,switch,letter,lettSwt,k,0.7368,Lo,,,,,,0,,,,,,,,low,4,0,4,0,1,,,,,,,,,
293692,2022-10-06_13h32.28.867,vts_reward_expectancy,2022.2.4,MacIntel,60.0024001,Chrome,1440,900,,,,,1,509,,,,,,,,,,,,,,,,,139,U,star,1,0,,,,,,,,,,,,,,,,repeat,letter,lettRpt,k,0.8414,Hi,,,,,,0,,,,,,,,low,5,0,5,0,1,,,,,,,,,
293692,2022-10-06_13h32.28.867,vts_reward_expectancy,2022.2.4,MacIntel,60.0024001,Chrome,1440,900,,,,,10,519,,,,,,,,,,,,,,,,,160,Y,triangle,1,0,,,,,,,,,,,,,,,,switch,number,numSwt,f,0.8159,Lo,,,,,,0,,,,,,,,low,6,0,6,0,1,,,,,,,,,
293692,2022-10-06_13h32.28.867,vts_reward_expectancy,2022.2.4,MacIntel,60.0024001,Chrome,1440,900,,,,,10,529,,,,,,,,,,,,,,,,,174,B,star,1,0,,,,,,,,,,,,,,,,repeat,number,numRpt,f,0.78,Hi,,,,,,0,,,,,,,,low,7,0,7,0,1,,,,,,,,,
293692,2022-10-06_13h32.28.867,vts_reward_expectancy,2022.2.4,MacIntel,60.0024001,Chrome,1440,900,,,,,10,539,,,,,,,,,,,,,,,,,181,H,triangle,1,0,,,,,,,,,,,,,,,,repeat,number,numRpt,f,0.6635,Lo,,,,,,0,,,,,,,,low,8,0,8,0,1,,,,,,,,,
293692,2022-10-06_13h32.28.867,vts_reward_expectancy,2022.2.4,MacIntel,60.0024001,Chrome,1440,900,,,,,1,540,,,,,,,,,,,,,,,,,132,W,star,1,0,,,,,,,,,,,,,,,,repeat,number,numRpt,d,0.776,Hi,,,,,,0,,,,,,,,low,9,0,9,0,1,,,,,,,,,
293692,2022-10-06_13h32.28.867,vts_reward_expectancy,2022.2.4,MacIntel,60.0024001,Chrome,1440,900,,,,,10,550,,,,,,,,,,,,,,,,,125,F,triangle,1,0,,,,,,,,,,,,,,,,repeat,number,numRpt,d,1.2461,Lo,,,,,,0,,,,,,,,low,10,0,10,0,1,,,,,,,,,
293692,2022-10-06_13h32.28.867,vts_reward_expectancy,2022.2.4,MacIntel,60.0024001,Chrome,1440,900,,,,,10,560,,,,,,,,,,,,,,,,,167,D,star,1,0,,,,,,,,,,,,,,,,repeat,number,numRpt,f,0.7797,Hi,,,,,,0,,,,,,,,low,11,0,11,0,1,,,,,,,,,
293692,2022-10-06_13h32.28.867,vts_reward_expectancy,2022.2.4,MacIntel,60.0024001,Chrome,1440,900,,,,,10,570,,,,,,,,,,,,,,,,,146,S,triangle,1,0,,,,,,,,,,,,,,,,repeat,number,numRpt,d,0.7546,Lo,,,,,,0,,,,,,,,low,12,0,12,0,1,,,,,,,,,
293692,2022-10-06_13h32.28.867,vts_reward_expectancy,2022.2.4,MacIntel,60.0024001,Chrome,1440,900,,,,,10,580,,,,,,,,,,,,,,,,,139,U,star,1,0,,,,,,,,,,,,,,,,repeat,number,numRpt,d,0.6679,Hi,,,,,,0,,,,,,,,low,13,0,13,0,1,,,,,,,,,
293692,2022-10-06_13h32.28.867,vts_reward_expectancy,2022.2.4,MacIntel,60.0024001,Chrome,1440,900,,,,,0,580,,,,,,,,,,,,,,,,,160,Y,star,1,0,,,,,,,,,,,,,,,,repeat,number,numRpt,f,1.2322,Hi,,,,,,0,,,,,,,,low,14,0,14,0,1,,,,,,,,,
293692,2022-10-06_13h32.28.867,vts_reward_expectancy,2022.2.4,MacIntel,60.0024001,Chrome,1440,900,,,,,1,581,,,,,,,,,,,,,,,,,174,B,triangle,1,0,,,,,,,,,,,,,,,,repeat,number,numRpt,f,0.5926,Lo,,,,,,0,,,,,,,,low,15,0,15,0,1,,,,,,,,,
293692,2022-10-06_13h32.28.867,vts_reward_expectancy,2022.2.4,MacIntel,60.0024001,Chrome,1440,900,,,,,10,591,,,,,,,,,,,,,,,,,139,D,triangle,1,0,,,,,,,,,,,,,,,,repeat,number,numRpt,d,0.9098,Lo,,,,,,0,,,,,,,,low,16,0,16,0,1,,,,,,,,,
293692,2022-10-06_13h32.28.867,vts_reward_expectancy,2022.2.4,MacIntel,60.0024001,Chrome,1440,900,,,,,10,601,,,,,,,,,,,,,,,,,174,S,star,1,0,,,,,,,,,,,,,,,,repeat,number,numRpt,f,0.7949,Hi,,,,,,0,,,,,,,,low,17,0,17,0,1,,,,,,,,,
293692,2022-10-06_13h32.28.867,vts_reward_expectancy,2022.2.4,MacIntel,60.0024001,Chrome,1440,900,,,,,1,602,,,,,,,,,,,,,,,,,146,B,triangle,1,0,,,,,,,,,,,,,,,,repeat,number,numRpt,d,0.7807,Lo,,,,,,0,,,,,,,,low,18,0,18,0,1,,,,,,,,,
293692,2022-10-06_13h32.28.867,vts_reward_expectancy,2022.2.4,MacIntel,60.0024001,Chrome,1440,900,,,,,0,602,,,,,,,,,,,,,,,,,125,W,star,1,0,,,,,,,,,,,,,,,,repeat,number,numRpt,d,1.8826,Hi,,,,,,0,,,,,,,,low,19,0,19,0,1,,,,,,,,,
293692,2022-10-06_13h32.28.867,vts_reward_expectancy,2022.2.4,MacIntel,60.0024001,Chrome,1440,900,,,,,1,603,,,,,,,,,,,,,,,,,167,U,triangle,1,0,,,,,,,,,,,,,,,,switch,letter,lettSwt,k,0.7955,Lo,,,,,,0,,,,,,,,low,20,0,20,0,1,,,,,,,,,
293692,2022-10-06_13h32.28.867,vts_reward_expectancy,2022.2.4,MacIntel,60.0024001,Chrome,1440,900,,,,,0,603,,,,,,,,,,,,,,,,,181,Y,star,1,0,,,,,,,,,,,,,,,,repeat,letter,lettRpt,k,0.914,Hi,,,,,,0,,,,,,,,low,21,0,21,0,1,,,,,,,,,
293692,2022-10-06_13h32.28.867,vts_reward_expectancy,2022.2.4,MacIntel,60.0024001,Chrome,1440,900,,,,,0,603,,,,,,,,,,,,,,,,,160,H,triangle,0,0,,,,,,,,,,,,,,,,repeat,letter,NA,k,0.7814,Hi,,,,,,0,,,,,,,,low,22,0,22,0,1,,,,,,,,,
293692,2022-10-06_13h32.28.867,vts_reward_expectancy,2022.2.4,MacIntel,60.0024001,Chrome,1440,900,,,,,0,603,,,,,,,,,,,,,,,,,132,F,star,1,1,,,,,,,,,,,,,,,,repeat,letter,lettRpt,j,1.0132,Hi,,,,,,0,,,,,,,,low,23,0,23,0,1,,,,,,,,,
293692,2022-10-06_13h32.28.867,vts_reward_expectancy,2022.2.4,MacIntel,60.0024001,Chrome,1440,900,,,,,1,604,,,,,,,,,,,,,,,,,146,D,triangle,1,0,,,,,,,,,,,,,,,,repeat,letter,lettRpt,j,0.7638,Lo,,,,,,0,,,,,,,,low,24,0,24,0,1,,,,,,,,,
293692,2022-10-06_13h32.28.867,vts_reward_expectancy,2022.2.4,MacIntel,60.0024001,Chrome,1440,900,,,,,0,604,,,,,,,,,,,,,,,,,174,F,star,0,0,,,,,,,,,,,,,,,,switch,number,NA,d,0.8876,Lo,,,,,,0,,,,,,,,low,25,0,25,0,1,,,,,,,,,
293692,2022-10-06_13h32.28.867,vts_reward_expectancy,2022.2.4,MacIntel,60.0024001,Chrome,1440,900,,,,,0,604,,,,,,,,,,,,,,,,,160,B,star,1,1,,,,,,,,,,,,,,,,switch,letter,lettSwt,j,0.8497,Hi,,,,,,0,,,,,,,,low,26,0,26,0,1,,,,,,,,,
293692,2022-10-06_13h32.28.867,vts_reward_expectancy,2022.2.4,MacIntel,60.0024001,Chrome,1440,900,,,,,1,605,,,,,,,,,,,,,,,,,167,Y,triangle,1,0,,,,,,,,,,,,,,,,switch,number,numSwt,f,0.6148,Lo,,,,,,0,,,,,,,,low,27,0,27,0,1,,,,,,,,,
293692,2022-10-06_13h32.28.867,vts_reward_expectancy,2022.2.4,MacIntel,60.0024001,Chrome,1440,900,,,,,1,606,,,,,,,,,,,,,,,,,125,U,triangle,1,0,,,,,,,,,,,,,,,,switch,letter,lettSwt,k,1.0413,Lo,,,,,,0,,,,,,,,low,28,0,28,0,1,,,,,,,,,
293692,2022-10-06_13h32.28.867,vts_reward_expectancy,2022.2.4,MacIntel,60.0024001,Chrome,1440,900,,,,,1,607,,,,,,,,,,,,,,,,,139,S,star,1,0,,,,,,,,,,,,,,,,switch,number,numSwt,d,0.8665,Hi,,,,,,0,,,,,,,,low,29,0,29,0,1,,,,,,,,,
293692,2022-10-06_13h32.28.867,vts_reward_expectancy,2022.2.4,MacIntel,60.0024001,Chrome,1440,900,,,,,1,608,,,,,,,,,,,,,,,,,181,H,triangle,1,0,,,,,,,,,,,,,,,,repeat,number,numRpt,f,1.0212,Lo,,,,,,0,,,,,,,,low,30,0,30,0,1,,,,,,,,,
293692,2022-10-06_13h32.28.867,vts_reward_expectancy,2022.2.4,MacIntel,60.0024001,Chrome,1440,900,,,,,0,608,,,,,,,,,,,,,,,,,132,W,star,1,0,,,,,,,,,,,,,,,,switch,letter,lettSwt,k,0.8799,Hi,,,,,,0,,,,,,,,low,31,0,31,0,1,,,,,,,,,
293692,2022-10-06_13h32.28.867,vts_reward_expectancy,2022.2.4,MacIntel,60.0024001,Chrome,1440,900,,,,,1,609,,,,,,,,,,,,,,,,,160,S,circle,1,0,,,,,,,,,,,,,,,,switch,number,numSwt,f,1.3622,Lo,,,,,,1,,,,,,space,31.9723,high,0,0,0,0,1,,,,,,,,,
293692,2022-10-06_13h32.28.867,vts_reward_expectancy,2022.2.4,MacIntel,60.0024001,Chrome,1440,900,,,,,10,619,,,,,,,,,,,,,,,,,174,F,hexagon,1,0,,,,,,,,,,,,,,,,repeat,number,numRpt,f,0.7472,Hi,,,,,,1,,,,,,,,high,1,0,1,0,1,,,,,,,,,
293692,2022-10-06_13h32.28.867,vts_reward_expectancy,2022.2.4,MacIntel,60.0024001,Chrome,1440,900,,,,,1,620,,,,,,,,,,,,,,,,,181,D,circle,1,0,,,,,,,,,,,,,,,,repeat,number,numRpt,f,0.6959,Lo,,,,,,1,,,,,,,,high,2,0,2,0,1,,,,,,,,,
293692,2022-10-06_13h32.28.867,vts_reward_expectancy,2022.2.4,MacIntel,60.0024001,Chrome,1440,900,,,,,10,630,,,,,,,,,,,,,,,,,139,H,hexagon,1,0,,,,,,,,,,,,,,,,switch,letter,lettSwt,j,0.7634,Hi,,,,,,1,,,,,,,,high,3,0,3,0,1,,,,,,,,,
293692,2022-10-06_13h32.28.867,vts_reward_expectancy,2022.2.4,MacIntel,60.0024001,Chrome,1440,900,,,,,10,640,,,,,,,,,,,,,,,,,132,B,circle,1,0,,,,,,,,,,,,,,,,switch,number,numSwt,d,0.8784,Lo,,,,,,1,,,,,,,,high,4,0,4,0,1,,,,,,,,,
293692,2022-10-06_13h32.28.867,vts_reward_expectancy,2022.2.4,MacIntel,60.0024001,Chrome,1440,900,,,,,0,640,,,,,,,,,,,,,,,,,146,Y,hexagon,1,0,,,,,,,,,,,,,,,,repeat,number,numRpt,d,1.3322,Hi,,,,,,1,,,,,,,,high,5,0,5,0,1,,,,,,,,,
293692,2022-10-06_13h32.28.867,vts_reward_expectancy,2022.2.4,MacIntel,60.0024001,Chrome,1440,900,,,,,10,650,,,,,,,,,,,,,,,,,125,U,hexagon,1,0,,,,,,,,,,,,,,,,repeat,number,numRpt,d,0.6651,Hi,,,,,,1,,,,,,,,high,6,0,6,0,1,,,,,,,,,
293692,2022-10-06_13h32.28.867,vts_reward_expectancy,2022.2.4,MacIntel,60.0024001,Chrome,1440,900,,,,,0,650,,,,,,,,,,,,,,,,,167,W,circle,0,0,,,,,,,,,,,,,,,,repeat,number,NA,d,0.7644,Hi,,,,,,1,,,,,,,,high,7,0,7,0,1,,,,,,,,,
293692,2022-10-06_13h32.28.867,vts_reward_expectancy,2022.2.4,MacIntel,60.0024001,Chrome,1440,900,,,,,0,650,,,,,,,,,,,,,,,,,160,S,hexagon,1,1,,,,,,,,,,,,,,,,repeat,number,numRpt,f,0.8011,Hi,,,,,,1,,,,,,,,high,8,0,8,0,1,,,,,,,,,
293692,2022-10-06_13h32.28.867,vts_reward_expectancy,2022.2.4,MacIntel,60.0024001,Chrome,1440,900,,,,,1,651,,,,,,,,,,,,,,,,,174,F,circle,1,0,,,,,,,,,,,,,,,,repeat,number,numRpt,f,0.7791,Lo,,,,,,1,,,,,,,,high,9,0,9,0,1,,,,,,,,,
293692,2022-10-06_13h32.28.867,vts_reward_expectancy,2022.2.4,MacIntel,60.0024001,Chrome,1440,900,,,,,10,661,,,,,,,,,,,,,,,,,181,D,circle,1,0,,,,,,,,,,,,,,,,switch,letter,lettSwt,j,0.8146,Lo,,,,,,1,,,,,,,,high,10,0,10,0,1,,,,,,,,,
293692,2022-10-06_13h32.28.867,vts_reward_expectancy,2022.2.4,MacIntel,60.0024001,Chrome,1440,900,,,,,0,661,,,,,,,,,,,,,,,,,139,H,hexagon,1,0,,,,,,,,,,,,,,,,repeat,letter,lettRpt,j,1.2143,Hi,,,,,,1,,,,,,,,high,11,0,11,0,1,,,,,,,,,
293692,2022-10-06_13h32.28.867,vts_reward_expectancy,2022.2.4,MacIntel,60.0024001,Chrome,1440,900,,,,,0,661,,,,,,,,,,,,,,,,,132,B,hexagon,1,0,,,,,,,,,,,,,,,,switch,number,numSwt,d,0.988,Hi,,,,,,1,,,,,,,,high,12,0,12,0,1,,,,,,,,,
293692,2022-10-06_13h32.28.867,vts_reward_expectancy,2022.2.4,MacIntel,60.0024001,Chrome,1440,900,,,,,1,662,,,,,,,,,,,,,,,,,146,Y,circle,1,0,,,,,,,,,,,,,,,,repeat,number,numRpt,d,1.427,Lo,,,,,,1,,,,,,,,high,13,0,13,0,1,,,,,,,,,
293692,2022-10-06_13h32.28.867,vts_reward_expectancy,2022.2.4,MacIntel,60.0024001,Chrome,1440,900,,,,,1,663,,,,,,,,,,,,,,,,,125,U,circle,1,0,,,,,,,,,,,,,,,,repeat,number,numRpt,d,0.752,Lo,,,,,,1,,,,,,,,high,14,0,14,0,1,,,,,,,,,
293692,2022-10-06_13h32.28.867,vts_reward_expectancy,2022.2.4,MacIntel,60.0024001,Chrome,1440,900,,,,,0,663,,,,,,,,,,,,,,,,,167,W,hexagon,1,0,,,,,,,,,,,,,,,,switch,letter,lettSwt,k,0.8135,Hi,,,,,,1,,,,,,,,high,15,0,15,0,1,,,,,,,,,
293692,2022-10-06_13h32.28.867,vts_reward_expectancy,2022.2.4,MacIntel,60.0024001,Chrome,1440,900,,,,,1,664,,,,,,,,,,,,,,,,,181,D,circle,1,0,,,,,,,,,,,,,,,,repeat,letter,lettRpt,j,0.5316,Lo,,,,,,1,,,,,,,,high,16,0,16,0,1,,,,,,,,,
293692,2022-10-06_13h32.28.867,vts_reward_expectancy,2022.2.4,MacIntel,60.0024001,Chrome,1440,900,,,,,10,674,,,,,,,,,,,,,,,,,174,W,hexagon,1,0,,,,,,,,,,,,,,,,repeat,letter,lettRpt,k,0.581,Hi,,,,,,1,,,,,,,,high,17,0,17,0,1,,,,,,,,,
293692,2022-10-06_13h32.28.867,vts_reward_expectancy,2022.2.4,MacIntel,60.0024001,Chrome,1440,900,,,,,1,675,,,,,,,,,,,,,,,,,160,F,circle,1,0,,,,,,,,,,,,,,,,repeat,letter,lettRpt,j,0.7313,Lo,,,,,,1,,,,,,,,high,18,0,18,0,1,,,,,,,,,
293692,2022-10-06_13h32.28.867,vts_reward_expectancy,2022.2.4,MacIntel,60.0024001,Chrome,1440,900,,,,,0,675,,,,,,,,,,,,,,,,,139,Y,hexagon,1,0,,,,,,,,,,,,,,,,switch,number,numSwt,d,0.8665,Hi,,,,,,1,,,,,,,,high,19,0,19,0,1,,,,,,,,,
293692,2022-10-06_13h32.28.867,vts_reward_expectancy,2022.2.4,MacIntel,60.0024001,Chrome,1440,900,,,,,1,676,,,,,,,,,,,,,,,,,132,U,circle,1,0,,,,,,,,,,,,,,,,repeat,number,numRpt,d,1.0813,Lo,,,,,,1,,,,,,,,high,20,0,20,0,1,,,,,,,,,
293692,2022-10-06_13h32.28.867,vts_reward_expectancy,2022.2.4,MacIntel,60.0024001,Chrome,1440,900,,,,,1,677,,,,,,,,,,,,,,,,,146,S,hexagon,1,0,,,,,,,,,,,,,,,,switch,letter,lettSwt,k,0.6879,Hi,,,,,,1,,,,,,,,high,21,0,21,0,1,,,,,,,,,
293692,2022-10-06_13h32.28.867,vts_reward_expectancy,2022.2.4,MacIntel,60.0024001,Chrome,1440,900,,,,,1,678,,,,,,,,,,,,,,,,,167,B,hexagon,1,0,,,,,,,,,,,,,,,,repeat,letter,lettRpt,j,0.6767,Hi,,,,,,1,,,,,,,,high,22,0,22,0,1,,,,,,,,,
293692,2022-10-06_13h32.28.867,vts_reward_expectancy,2022.2.4,MacIntel,60.0024001,Chrome,1440,900,,,,,1,679,,,,,,,,,,,,,,,,,125,H,circle,1,0,,,,,,,,,,,,,,,,switch,number,numSwt,d,0.6577,Lo,,,,,,1,,,,,,,,high,23,0,23,0,1,,,,,,,,,
293692,2022-10-06_13h32.28.867,vts_reward_expectancy,2022.2.4,MacIntel,60.0024001,Chrome,1440,900,,,,,1,680,,,,,,,,,,,,,,,,,146,B,circle,1,0,,,,,,,,,,,,,,,,repeat,number,numRpt,d,0.6645,Lo,,,,,,1,,,,,,,,high,24,0,24,0,1,,,,,,,,,
293692,2022-10-06_13h32.28.867,vts_reward_expectancy,2022.2.4,MacIntel,60.0024001,Chrome,1440,900,,,,,0,680,,,,,,,,,,,,,,,,,167,U,hexagon,1,0,,,,,,,,,,,,,,,,repeat,number,numRpt,f,0.7598,Hi,,,,,,1,,,,,,,,high,25,0,25,0,1,,,,,,,,,
293692,2022-10-06_13h32.28.867,vts_reward_expectancy,2022.2.4,MacIntel,60.0024001,Chrome,1440,900,,,,,1,681,,,,,,,,,,,,,,,,,139,F,circle,1,0,,,,,,,,,,,,,,,,switch,letter,lettSwt,j,0.8636,Lo,,,,,,1,,,,,,,,high,26,0,26,0,1,,,,,,,,,
293692,2022-10-06_13h32.28.867,vts_reward_expectancy,2022.2.4,MacIntel,60.0024001,Chrome,1440,900,,,,,0,681,,,,,,,,,,,,,,,,,132,H,hexagon,1,0,,,,,,,,,,,,,,,,repeat,letter,lettRpt,j,0.9147,Hi,,,,,,1,,,,,,,,high,27,0,27,0,1,,,,,,,,,
293692,2022-10-06_13h32.28.867,vts_reward_expectancy,2022.2.4,MacIntel,60.0024001,Chrome,1440,900,,,,,1,682,,,,,,,,,,,,,,,,,125,Y,hexagon,1,0,,,,,,,,,,,,,,,,switch,number,numSwt,d,0.705,Hi,,,,,,1,,,,,,,,high,28,0,28,0,1,,,,,,,,,
293692,2022-10-06_13h32.28.867,vts_reward_expectancy,2022.2.4,MacIntel,60.0024001,Chrome,1440,900,,,,,1,683,,,,,,,,,,,,,,,,,160,S,circle,1,0,,,,,,,,,,,,,,,,repeat,number,numRpt,f,0.8809,Lo,,,,,,1,,,,,,,,high,29,0,29,0,1,,,,,,,,,
293692,2022-10-06_13h32.28.867,vts_reward_expectancy,2022.2.4,MacIntel,60.0024001,Chrome,1440,900,,,,,1,684,,,,,,,,,,,,,,,,,174,D,circle,1,0,,,,,,,,,,,,,,,,repeat,number,numRpt,f,0.8704,Lo,,,,,,1,,,,,,,,high,30,0,30,0,1,,,,,,,,,
293692,2022-10-06_13h32.28.867,vts_reward_expectancy,2022.2.4,MacIntel,60.0024001,Chrome,1440,900,,,,,10,694,,,,,,,,,,,,,,,,,181,W,hexagon,1,0,,,,,,,,,,,,,,,,repeat,number,numRpt,f,0.6602,Hi,,,,,,1,,,,,,,,high,31,0,31,0,1,,,,,,,,,
293692,2022-10-06_13h32.28.867,vts_reward_expectancy,2022.2.4,MacIntel,60.0024001,Chrome,1440,900,,,,,0,694,,,,,,,,,,,,,,,,,146,U,star,1,0,,,,,,,,,,,,,,,,repeat,number,numRpt,d,0.8468,Hi,,,,,,2,,,,,,space,37.156,low,0,0,0,0,1,,,,,,,,,
293692,2022-10-06_13h32.28.867,vts_reward_expectancy,2022.2.4,MacIntel,60.0024001,Chrome,1440,900,,,,,1,695,,,,,,,,,,,,,,,,,132,S,triangle,1,0,,,,,,,,,,,,,,,,repeat,number,numRpt,d,0.5648,Lo,,,,,,2,,,,,,,,low,1,0,1,0,1,,,,,,,,,
293692,2022-10-06_13h32.28.867,vts_reward_expectancy,2022.2.4,MacIntel,60.0024001,Chrome,1440,900,,,,,10,705,,,,,,,,,,,,,,,,,160,B,star,1,0,,,,,,,,,,,,,,,,switch,letter,lettSwt,j,0.5132,Hi,,,,,,2,,,,,,,,low,2,0,2,0,1,,,,,,,,,
293692,2022-10-06_13h32.28.867,vts_reward_expectancy,2022.2.4,MacIntel,60.0024001,Chrome,1440,900,,,,,0,705,,,,,,,,,,,,,,,,,167,Y,triangle,0,0,,,,,,,,,,,,,,,,switch,number,NA,d,0.4302,Hi,,,,,,2,,,,,,,,low,3,0,3,0,1,,,,,,,,,
293692,2022-10-06_13h32.28.867,vts_reward_expectancy,2022.2.4,MacIntel,60.0024001,Chrome,1440,900,,,,,1,706,,,,,,,,,,,,,,,,,139,W,star,1,1,,,,,,,,,,,,,,,,switch,letter,lettSwt,k,0.4644,Hi,,,,,,2,,,,,,,,low,4,0,4,0,1,,,,,,,,,
293692,2022-10-06_13h32.28.867,vts_reward_expectancy,2022.2.4,MacIntel,60.0024001,Chrome,1440,900,,,,,0,706,,,,,,,,,,,,,,,,,181,H,triangle,0,0,,,,,,,,,,,,,,,,repeat,letter,NA,k,0.5187,Hi,,,,,,2,,,,,,,,low,5,0,5,0,1,,,,,,,,,
293692,2022-10-06_13h32.28.867,vts_reward_expectancy,2022.2.4,MacIntel,60.0024001,Chrome,1440,900,,,,,1,707,,,,,,,,,,,,,,,,,125,D,star,1,1,,,,,,,,,,,,,,,,repeat,letter,lettRpt,j,0.4643,Hi,,,,,,2,,,,,,,,low,6,0,6,0,1,,,,,,,,,
293692,2022-10-06_13h32.28.867,vts_reward_expectancy,2022.2.4,MacIntel,60.0024001,Chrome,1440,900,,,,,0,707,,,,,,,,,,,,,,,,,174,F,triangle,0,0,,,,,,,,,,,,,,,,switch,number,NA,d,0.6144,Hi,,,,,,2,,,,,,,,low,7,0,7,0,1,,,,,,,,,
293692,2022-10-06_13h32.28.867,vts_reward_expectancy,2022.2.4,MacIntel,60.0024001,Chrome,1440,900,,,,,1,708,,,,,,,,,,,,,,,,,146,U,star,1,1,,,,,,,,,,,,,,,,switch,letter,lettSwt,k,0.5147,Hi,,,,,,2,,,,,,,,low,8,0,8,0,1,,,,,,,,,
293692,2022-10-06_13h32.28.867,vts_reward_expectancy,2022.2.4,MacIntel,60.0024001,Chrome,1440,900,,,,,10,718,,,,,,,,,,,,,,,,,132,S,triangle,1,0,,,,,,,,,,,,,,,,switch,number,numSwt,d,0.5526,Lo,,,,,,2,,,,,,,,low,9,0,9,0,1,,,,,,,,,
293692,2022-10-06_13h32.28.867,vts_reward_expectancy,2022.2.4,MacIntel,60.0024001,Chrome,1440,900,,,,,0,718,,,,,,,,,,,,,,,,,160,B,star,0,0,,,,,,,,,,,,,,,,switch,letter,NA,k,0.4293,Lo,,,,,,2,,,,,,,,low,10,0,10,0,1,,,,,,,,,
293692,2022-10-06_13h32.28.867,vts_reward_expectancy,2022.2.4,MacIntel,60.0024001,Chrome,1440,900,,,,,0,718,,,,,,,,,,,,,,,,,167,Y,triangle,0,1,,,,,,,,,,,,,,,,switch,number,NA,d,0.7296,Lo,,,,,,2,,,,,,,,low,11,0,11,0,1,,,,,,,,,
293692,2022-10-06_13h32.28.867,vts_reward_expectancy,2022.2.4,MacIntel,60.0024001,Chrome,1440,900,,,,,0,718,,,,,,,,,,,,,,,,,139,W,triangle,0,1,,,,,,,,,,,,,,,,switch,letter,NA,j,0.5968,Lo,,,,,,2,,,,,,,,low,12,0,12,0,1,,,,,,,,,
293692,2022-10-06_13h32.28.867,vts_reward_expectancy,2022.2.4,MacIntel,60.0024001,Chrome,1440,900,,,,,0,718,,,,,,,,,,,,,,,,,181,H,star,1,1,,,,,,,,,,,,,,,,repeat,letter,lettRpt,j,0.6465,Hi,,,,,,2,,,,,,,,low,13,0,13,0,1,,,,,,,,,
293692,2022-10-06_13h32.28.867,vts_reward_expectancy,2022.2.4,MacIntel,60.0024001,Chrome,1440,900,,,,,10,728,,,,,,,,,,,,,,,,,125,D,star,1,0,,,,,,,,,,,,,,,,repeat,letter,lettRpt,j,0.5198,Hi,,,,,,2,,,,,,,,low,14,0,14,0,1,,,,,,,,,
293692,2022-10-06_13h32.28.867,vts_reward_expectancy,2022.2.4,MacIntel,60.0024001,Chrome,1440,900,,,,,1,729,,,,,,,,,,,,,,,,,174,F,triangle,1,0,,,,,,,,,,,,,,,,repeat,letter,lettRpt,j,0.48,Lo,,,,,,2,,,,,,,,low,15,0,15,0,1,,,,,,,,,
293692,2022-10-06_13h32.28.867,vts_reward_expectancy,2022.2.4,MacIntel,60.0024001,Chrome,1440,900,,,,,10,739,,,,,,,,,,,,,,,,,125,B,star,1,0,,,,,,,,,,,,,,,,repeat,letter,lettRpt,j,0.468,Hi,,,,,,2,,,,,,,,low,16,0,16,0,1,,,,,,,,,
293692,2022-10-06_13h32.28.867,vts_reward_expectancy,2022.2.4,MacIntel,60.0024001,Chrome,1440,900,,,,,0,739,,,,,,,,,,,,,,,,,167,Y,triangle,0,0,,,,,,,,,,,,,,,,switch,number,NA,d,0.4391,Hi,,,,,,2,,,,,,,,low,17,0,17,0,1,,,,,,,,,
293692,2022-10-06_13h32.28.867,vts_reward_expectancy,2022.2.4,MacIntel,60.0024001,Chrome,1440,900,,,,,1,740,,,,,,,,,,,,,,,,,139,H,triangle,1,1,,,,,,,,,,,,,,,,switch,letter,lettSwt,j,0.5835,Lo,,,,,,2,,,,,,,,low,18,0,18,0,1,,,,,,,,,
293692,2022-10-06_13h32.28.867,vts_reward_expectancy,2022.2.4,MacIntel,60.0024001,Chrome,1440,900,,,,,0,740,,,,,,,,,,,,,,,,,146,F,star,0,0,,,,,,,,,,,,,,,,repeat,letter,NA,k,0.5161,Lo,,,,,,2,,,,,,,,low,19,0,19,0,1,,,,,,,,,
293692,2022-10-06_13h32.28.867,vts_reward_expectancy,2022.2.4,MacIntel,60.0024001,Chrome,1440,900,,,,,0,740,,,,,,,,,,,,,,,,,174,W,triangle,0,1,,,,,,,,,,,,,,,,repeat,letter,NA,j,0.448,Lo,,,,,,2,,,,,,,,low,20,0,20,0,1,,,,,,,,,
293692,2022-10-06_13h32.28.867,vts_reward_expectancy,2022.2.4,MacIntel,60.0024001,Chrome,1440,900,,,,,0,740,,,,,,,,,,,,,,,,,132,S,star,0,1,,,,,,,,,,,,,,,,repeat,letter,NA,j,0.3791,Lo,,,,,,2,,,,,,,,low,21,0,21,0,1,,,,,,,,,
293692,2022-10-06_13h32.28.867,vts_reward_expectancy,2022.2.4,MacIntel,60.0024001,Chrome,1440,900,,,,,1,741,,,,,,,,,,,,,,,,,181,U,triangle,1,1,,,,,,,,,,,,,,,,repeat,letter,lettRpt,k,0.6272,Lo,,,,,,2,,,,,,,,low,22,0,22,0,1,,,,,,,,,
293692,2022-10-06_13h32.28.867,vts_reward_expectancy,2022.2.4,MacIntel,60.0024001,Chrome,1440,900,,,,,1,742,,,,,,,,,,,,,,,,,160,D,star,1,0,,,,,,,,,,,,,,,,repeat,letter,lettRpt,j,0.6257,Hi,,,,,,2,,,,,,,,low,23,0,23,0,1,,,,,,,,,
293692,2022-10-06_13h32.28.867,vts_reward_expectancy,2022.2.4,MacIntel,60.0024001,Chrome,1440,900,,,,,1,743,,,,,,,,,,,,,,,,,160,H,star,1,0,,,,,,,,,,,,,,,,repeat,letter,lettRpt,j,0.5501,Hi,,,,,,2,,,,,,,,low,24,0,24,0,1,,,,,,,,,
293692,2022-10-06_13h32.28.867,vts_reward_expectancy,2022.2.4,MacIntel,60.0024001,Chrome,1440,900,,,,,0,743,,,,,,,,,,,,,,,,,125,S,triangle,0,0,,,,,,,,,,,,,,,,repeat,letter,NA,j,0.3813,Hi,,,,,,2,,,,,,,,low,25,0,25,0,1,,,,,,,,,
293692,2022-10-06_13h32.28.867,vts_reward_expectancy,2022.2.4,MacIntel,60.0024001,Chrome,1440,900,,,,,1,744,,,,,,,,,,,,,,,,,174,D,star,1,1,,,,,,,,,,,,,,,,repeat,letter,lettRpt,j,0.5166,Hi,,,,,,2,,,,,,,,low,26,0,26,0,1,,,,,,,,,
293692,2022-10-06_13h32.28.867,vts_reward_expectancy,2022.2.4,MacIntel,60.0024001,Chrome,1440,900,,,,,1,745,,,,,,,,,,,,,,,,,146,U,triangle,1,0,,,,,,,,,,,,,,,,switch,number,numSwt,d,0.5637,Lo,,,,,,2,,,,,,,,low,27,0,27,0,1,,,,,,,,,
293692,2022-10-06_13h32.28.867,vts_reward_expectancy,2022.2.4,MacIntel,60.0024001,Chrome,1440,900,,,,,1,746,,,,,,,,,,,,,,,,,139,Y,triangle,1,0,,,,,,,,,,,,,,,,repeat,number,numRpt,d,0.5652,Lo,,,,,,2,,,,,,,,low,28,0,28,0,1,,,,,,,,,
293692,2022-10-06_13h32.28.867,vts_reward_expectancy,2022.2.4,MacIntel,60.0024001,Chrome,1440,900,,,,,10,756,,,,,,,,,,,,,,,,,181,W,star,1,0,,,,,,,,,,,,,,,,repeat,number,numRpt,f,0.5491,Hi,,,,,,2,,,,,,,,low,29,0,29,0,1,,,,,,,,,
293692,2022-10-06_13h32.28.867,vts_reward_expectancy,2022.2.4,MacIntel,60.0024001,Chrome,1440,900,,,,,10,766,,,,,,,,,,,,,,,,,167,F,star,1,0,,,,,,,,,,,,,,,,switch,letter,lettSwt,j,0.5322,Hi,,,,,,2,,,,,,,,low,30,0,30,0,1,,,,,,,,,
293692,2022-10-06_13h32.28.867,vts_reward_expectancy,2022.2.4,MacIntel,60.0024001,Chrome,1440,900,,,,,0,766,,,,,,,,,,,,,,,,,132,B,triangle,0,0,,,,,,,,,,,,,,,,switch,number,NA,f,0.5161,Hi,,,,,,2,,,,,,,,low,31,0,31,0,1,,,,,,,,,
293692,2022-10-06_13h32.28.867,vts_reward_expectancy,2022.2.4,MacIntel,60.0024001,Chrome,1440,900,,,,,0,766,,,,,,,,,,,,,,,,,139,D,hexagon,1,1,,,,,,,,,,,,,,,,switch,letter,lettSwt,j,0.5153,Hi,,,,,,3,,,,,,space,1.4864,high,0,0,0,0,1,,,,,,,,,
293692,2022-10-06_13h32.28.867,vts_reward_expectancy,2022.2.4,MacIntel,60.0024001,Chrome,1440,900,,,,,1,767,,,,,,,,,,,,,,,,,181,B,circle,1,0,,,,,,,,,,,,,,,,repeat,letter,lettRpt,j,0.4133,Lo,,,,,,3,,,,,,,,high,1,0,1,0,1,,,,,,,,,
293692,2022-10-06_13h32.28.867,vts_reward_expectancy,2022.2.4,MacIntel,60.0024001,Chrome,1440,900,,,,,10,777,,,,,,,,,,,,,,,,,146,F,hexagon,1,0,,,,,,,,,,,,,,,,repeat,letter,lettRpt,j,0.4801,Hi,,,,,,3,,,,,,,,high,2,0,2,0,1,,,,,,,,,
293692,2022-10-06_13h32.28.867,vts_reward_expectancy,2022.2.4,MacIntel,60.0024001,Chrome,1440,900,,,,,1,778,,,,,,,,,,,,,,,,,167,S,circle,1,0,,,,,,,,,,,,,,,,switch,number,numSwt,f,0.449,Lo,,,,,,3,,,,,,,,high,3,0,3,0,1,,,,,,,,,
293692,2022-10-06_13h32.28.867,vts_reward_expectancy,2022.2.4,MacIntel,60.0024001,Chrome,1440,900,,,,,10,788,,,,,,,,,,,,,,,,,174,H,circle,1,0,,,,,,,,,,,,,,,,repeat,number,numRpt,f,0.5625,Lo,,,,,,3,,,,,,,,high,4,0,4,0,1,,,,,,,,,
293692,2022-10-06_13h32.28.867,vts_reward_expectancy,2022.2.4,MacIntel,60.0024001,Chrome,1440,900,,,,,0,788,,,,,,,,,,,,,,,,,132,W,hexagon,0,0,,,,,,,,,,,,,,,,repeat,number,NA,f,0.5934,Lo,,,,,,3,,,,,,,,high,5,0,5,0,1,,,,,,,,,
293692,2022-10-06_13h32.28.867,vts_reward_expectancy,2022.2.4,MacIntel,60.0024001,Chrome,1440,900,,,,,0,788,,,,,,,,,,,,,,,,,160,U,hexagon,1,1,,,,,,,,,,,,,,,,switch,letter,lettSwt,k,0.7038,Hi,,,,,,3,,,,,,,,high,6,0,6,0,1,,,,,,,,,
293692,2022-10-06_13h32.28.867,vts_reward_expectancy,2022.2.4,MacIntel,60.0024001,Chrome,1440,900,,,,,1,789,,,,,,,,,,,,,,,,,125,Y,circle,1,0,,,,,,,,,,,,,,,,switch,number,numSwt,d,0.4763,Lo,,,,,,3,,,,,,,,high,7,0,7,0,1,,,,,,,,,
293692,2022-10-06_13h32.28.867,vts_reward_expectancy,2022.2.4,MacIntel,60.0024001,Chrome,1440,900,,,,,0,789,,,,,,,,,,,,,,,,,139,D,hexagon,1,0,,,,,,,,,,,,,,,,repeat,number,numRpt,d,0.5795,Hi,,,,,,3,,,,,,,,high,8,0,8,0,1,,,,,,,,,
293692,2022-10-06_13h32.28.867,vts_reward_expectancy,2022.2.4,MacIntel,60.0024001,Chrome,1440,900,,,,,1,790,,,,,,,,,,,,,,,,,181,B,circle,1,0,,,,,,,,,,,,,,,,repeat,number,numRpt,f,0.7107,Lo,,,,,,3,,,,,,,,high,9,0,9,0,1,,,,,,,,,
293692,2022-10-06_13h32.28.867,vts_reward_expectancy,2022.2.4,MacIntel,60.0024001,Chrome,1440,900,,,,,1,791,,,,,,,,,,,,,,,,,146,F,circle,1,0,,,,,,,,,,,,,,,,repeat,number,numRpt,d,0.6281,Lo,,,,,,3,,,,,,,,high,10,0,10,0,1,,,,,,,,,
293692,2022-10-06_13h32.28.867,vts_reward_expectancy,2022.2.4,MacIntel,60.0024001,Chrome,1440,900,,,,,10,801,,,,,,,,,,,,,,,,,167,S,hexagon,1,0,,,,,,,,,,,,,,,,repeat,number,numRpt,f,0.5314,Hi,,,,,,3,,,,,,,,high,11,0,11,0,1,,,,,,,,,
293692,2022-10-06_13h32.28.867,vts_reward_expectancy,2022.2.4,MacIntel,60.0024001,Chrome,1440,900,,,,,1,802,,,,,,,,,,,,,,,,,174,H,hexagon,1,0,,,,,,,,,,,,,,,,repeat,number,numRpt,f,0.5115,Hi,,,,,,3,,,,,,,,high,12,0,12,0,1,,,,,,,,,
293692,2022-10-06_13h32.28.867,vts_reward_expectancy,2022.2.4,MacIntel,60.0024001,Chrome,1440,900,,,,,1,803,,,,,,,,,,,,,,,,,132,W,circle,1,0,,,,,,,,,,,,,,,,repeat,number,numRpt,d,0.4527,Lo,,,,,,3,,,,,,,,high,13,0,13,0,1,,,,,,,,,
293692,2022-10-06_13h32.28.867,vts_reward_expectancy,2022.2.4,MacIntel,60.0024001,Chrome,1440,900,,,,,1,804,,,,,,,,,,,,,,,,,160,U,circle,1,0,,,,,,,,,,,,,,,,switch,letter,lettSwt,k,0.6768,Lo,,,,,,3,,,,,,,,high,14,0,14,0,1,,,,,,,,,
293692,2022-10-06_13h32.28.867,vts_reward_expectancy,2022.2.4,MacIntel,60.0024001,Chrome,1440,900,,,,,0,804,,,,,,,,,,,,,,,,,125,Y,hexagon,1,0,,,,,,,,,,,,,,,,repeat,letter,lettRpt,k,0.7427,Hi,,,,,,3,,,,,,,,high,15,0,15,0,1,,,,,,,,,
293692,2022-10-06_13h32.28.867,vts_reward_expectancy,2022.2.4,MacIntel,60.0024001,Chrome,1440,900,,,,,0,804,,,,,,,,,,,,,,,,,160,H,hexagon,0,0,,,,,,,,,,,,,,,,repeat,letter,NA,k,0.4295,Hi,,,,,,3,,,,,,,,high,16,0,16,0,1,,,,,,,,,
293692,2022-10-06_13h32.28.867,vts_reward_expectancy,2022.2.4,MacIntel,60.0024001,Chrome,1440,900,,,,,0,804,,,,,,,,,,,,,,,,,167,F,circle,0,1,,,,,,,,,,,,,,,,repeat,letter,NA,k,0.5527,Hi,,,,,,3,,,,,,,,high,17,0,17,0,1,,,,,,,,,
293692,2022-10-06_13h32.28.867,vts_reward_expectancy,2022.2.4,MacIntel,60.0024001,Chrome,1440,900,,,,,1,805,,,,,,,,,,,,,,,,,132,D,circle,1,1,,,,,,,,,,,,,,,,switch,number,numSwt,d,0.7958,Lo,,,,,,3,,,,,,,,high,18,0,18,0,1,,,,,,,,,
293692,2022-10-06_13h32.28.867,vts_reward_expectancy,2022.2.4,MacIntel,60.0024001,Chrome,1440,900,,,,,10,815,,,,,,,,,,,,,,,,,146,Y,hexagon,1,0,,,,,,,,,,,,,,,,repeat,number,numRpt,d,0.5146,Hi,,,,,,3,,,,,,,,high,19,0,19,0,1,,,,,,,,,
293692,2022-10-06_13h32.28.867,vts_reward_expectancy,2022.2.4,MacIntel,60.0024001,Chrome,1440,900,,,,,10,825,,,,,,,,,,,,,,,,,125,U,hexagon,1,0,,,,,,,,,,,,,,,,repeat,number,numRpt,d,0.4791,Hi,,,,,,3,,,,,,,,high,20,0,20,0,1,,,,,,,,,
293692,2022-10-06_13h32.28.867,vts_reward_expectancy,2022.2.4,MacIntel,60.0024001,Chrome,1440,900,,,,,1,826,,,,,,,,,,,,,,,,,174,B,circle,1,0,,,,,,,,,,,,,,,,repeat,number,numRpt,f,0.5598,Lo,,,,,,3,,,,,,,,high,21,0,21,0,1,,,,,,,,,
293692,2022-10-06_13h32.28.867,vts_reward_expectancy,2022.2.4,MacIntel,60.0024001,Chrome,1440,900,,,,,10,836,,,,,,,,,,,,,,,,,139,S,hexagon,1,0,,,,,,,,,,,,,,,,repeat,number,numRpt,d,0.4526,Hi,,,,,,3,,,,,,,,high,22,0,22,0,1,,,,,,,,,
293692,2022-10-06_13h32.28.867,vts_reward_expectancy,2022.2.4,MacIntel,60.0024001,Chrome,1440,900,,,,,1,837,,,,,,,,,,,,,,,,,181,W,circle,1,0,,,,,,,,,,,,,,,,repeat,number,numRpt,f,0.7787,Lo,,,,,,3,,,,,,,,high,23,0,23,0,1,,,,,,,,,
293692,2022-10-06_13h32.28.867,vts_reward_expectancy,2022.2.4,MacIntel,60.0024001,Chrome,1440,900,,,,,1,838,,,,,,,,,,,,,,,,,181,B,hexagon,1,0,,,,,,,,,,,,,,,,repeat,number,numRpt,f,0.4946,Hi,,,,,,3,,,,,,,,high,24,0,24,0,1,,,,,,,,,
293692,2022-10-06_13h32.28.867,vts_reward_expectancy,2022.2.4,MacIntel,60.0024001,Chrome,1440,900,,,,,1,839,,,,,,,,,,,,,,,,,146,D,circle,1,0,,,,,,,,,,,,,,,,repeat,number,numRpt,d,0.5475,Lo,,,,,,3,,,,,,,,high,25,0,25,0,1,,,,,,,,,
293692,2022-10-06_13h32.28.867,vts_reward_expectancy,2022.2.4,MacIntel,60.0024001,Chrome,1440,900,,,,,1,840,,,,,,,,,,,,,,,,,125,F,hexagon,1,0,,,,,,,,,,,,,,,,repeat,number,numRpt,d,0.4972,Hi,,,,,,3,,,,,,,,high,26,0,26,0,1,,,,,,,,,
293692,2022-10-06_13h32.28.867,vts_reward_expectancy,2022.2.4,MacIntel,60.0024001,Chrome,1440,900,,,,,10,850,,,,,,,,,,,,,,,,,174,Y,circle,1,0,,,,,,,,,,,,,,,,repeat,number,numRpt,f,0.6967,Lo,,,,,,3,,,,,,,,high,27,0,27,0,1,,,,,,,,,
293692,2022-10-06_13h32.28.867,vts_reward_expectancy,2022.2.4,MacIntel,60.0024001,Chrome,1440,900,,,,,1,851,,,,,,,,,,,,,,,,,167,H,circle,1,0,,,,,,,,,,,,,,,,repeat,number,numRpt,f,0.5471,Lo,,,,,,3,,,,,,,,high,28,0,28,0,1,,,,,,,,,
293692,2022-10-06_13h32.28.867,vts_reward_expectancy,2022.2.4,MacIntel,60.0024001,Chrome,1440,900,,,,,10,861,,,,,,,,,,,,,,,,,132,W,hexagon,1,0,,,,,,,,,,,,,,,,repeat,number,numRpt,d,0.3849,Hi,,,,,,3,,,,,,,,high,29,0,29,0,1,,,,,,,,,
293692,2022-10-06_13h32.28.867,vts_reward_expectancy,2022.2.4,MacIntel,60.0024001,Chrome,1440,900,,,,,0,861,,,,,,,,,,,,,,,,,139,S,hexagon,0,0,,,,,,,,,,,,,,,,repeat,number,NA,f,0.5501,Hi,,,,,,3,,,,,,,,high,30,0,30,0,1,,,,,,,,,
293692,2022-10-06_13h32.28.867,vts_reward_expectancy,2022.2.4,MacIntel,60.0024001,Chrome,1440,900,,,,,1,862,,,,,,,,,,,,,,,,,160,U,circle,1,1,,,,,,,,,,,,,,,,switch,letter,lettSwt,k,0.6137,Lo,,,,,,3,,,,,,,,high,31,0,31,0,1,,,,,,,,,
293692,2022-10-06_13h32.28.867,vts_reward_expectancy,2022.2.4,MacIntel,60.0024001,Chrome,1440,900,,,,,0,862,,,,,,,,,,,,,,,,,139,U,star,1,0,,,,,,,,,,,,,,,,switch,number,numSwt,d,0.7834,Hi,,,,,,4,,,,,,space,1.6798,low,0,0,0,0,1,,,,,,,,,
293692,2022-10-06_13h32.28.867,vts_reward_expectancy,2022.2.4,MacIntel,60.0024001,Chrome,1440,900,,,,,1,863,,,,,,,,,,,,,,,,,160,D,triangle,1,0,,,,,,,,,,,,,,,,repeat,number,numRpt,f,0.5803,Lo,,,,,,4,,,,,,,,low,1,0,1,0,1,,,,,,,,,
293692,2022-10-06_13h32.28.867,vts_reward_expectancy,2022.2.4,MacIntel,60.0024001,Chrome,1440,900,,,,,10,873,,,,,,,,,,,,,,,,,146,F,star,1,0,,,,,,,,,,,,,,,,switch,letter,lettSwt,j,0.5488,Hi,,,,,,4,,,,,,,,low,2,0,2,0,1,,,,,,,,,
293692,2022-10-06_13h32.28.867,vts_reward_expectancy,2022.2.4,MacIntel,60.0024001,Chrome,1440,900,,,,,1,874,,,,,,,,,,,,,,,,,181,B,triangle,1,0,,,,,,,,,,,,,,,,repeat,letter,lettRpt,j,0.7482,Lo,,,,,,4,,,,,,,,low,3,0,3,0,1,,,,,,,,,
293692,2022-10-06_13h32.28.867,vts_reward_expectancy,2022.2.4,MacIntel,60.0024001,Chrome,1440,900,,,,,0,874,,,,,,,,,,,,,,,,,132,S,star,1,0,,,,,,,,,,,,,,,,repeat,letter,lettRpt,k,0.8192,Hi,,,,,,4,,,,,,,,low,4,0,4,0,1,,,,,,,,,
293692,2022-10-06_13h32.28.867,vts_reward_expectancy,2022.2.4,MacIntel,60.0024001,Chrome,1440,900,,,,,1,875,,,,,,,,,,,,,,,,,174,H,triangle,1,0,,,,,,,,,,,,,,,,repeat,letter,lettRpt,j,0.6472,Lo,,,,,,4,,,,,,,,low,5,0,5,0,1,,,,,,,,,
293692,2022-10-06_13h32.28.867,vts_reward_expectancy,2022.2.4,MacIntel,60.0024001,Chrome,1440,900,,,,,0,875,,,,,,,,,,,,,,,,,167,W,star,1,0,,,,,,,,,,,,,,,,repeat,letter,lettRpt,k,0.6682,Hi,,,,,,4,,,,,,,,low,6,0,6,0,1,,,,,,,,,
293692,2022-10-06_13h32.28.867,vts_reward_expectancy,2022.2.4,MacIntel,60.0024001,Chrome,1440,900,,,,,10,885,,,,,,,,,,,,,,,,,125,Y,triangle,1,0,,,,,,,,,,,,,,,,repeat,letter,lettRpt,k,0.6299,Lo,,,,,,4,,,,,,,,low,7,0,7,0,1,,,,,,,,,
293692,2022-10-06_13h32.28.867,vts_reward_expectancy,2022.2.4,MacIntel,60.0024001,Chrome,1440,900,,,,,0,885,,,,,,,,,,,,,,,,,139,U,star,1,0,,,,,,,,,,,,,,,,switch,number,numSwt,d,1.219,Hi,,,,,,4,,,,,,,,low,8,0,8,0,1,,,,,,,,,
293692,2022-10-06_13h32.28.867,vts_reward_expectancy,2022.2.4,MacIntel,60.0024001,Chrome,1440,900,,,,,10,895,,,,,,,,,,,,,,,,,160,D,triangle,1,0,,,,,,,,,,,,,,,,repeat,number,numRpt,f,0.7606,Lo,,,,,,4,,,,,,,,low,9,0,9,0,1,,,,,,,,,
293692,2022-10-06_13h32.28.867,vts_reward_expectancy,2022.2.4,MacIntel,60.0024001,Chrome,1440,900,,,,,10,905,,,,,,,,,,,,,,,,,146,F,triangle,1,0,,,,,,,,,,,,,,,,repeat,number,numRpt,d,0.8216,Lo,,,,,,4,,,,,,,,low,10,0,10,0,1,,,,,,,,,
293692,2022-10-06_13h32.28.867,vts_reward_expectancy,2022.2.4,MacIntel,60.0024001,Chrome,1440,900,,,,,0,905,,,,,,,,,,,,,,,,,181,B,star,1,0,,,,,,,,,,,,,,,,switch,letter,lettSwt,j,0.8985,Hi,,,,,,4,,,,,,,,low,11,0,11,0,1,,,,,,,,,
293692,2022-10-06_13h32.28.867,vts_reward_expectancy,2022.2.4,MacIntel,60.0024001,Chrome,1440,900,,,,,1,906,,,,,,,,,,,,,,,,,132,S,triangle,1,0,,,,,,,,,,,,,,,,repeat,letter,lettRpt,k,0.9637,Lo,,,,,,4,,,,,,,,low,12,0,12,0,1,,,,,,,,,
293692,2022-10-06_13h32.28.867,vts_reward_expectancy,2022.2.4,MacIntel,60.0024001,Chrome,1440,900,,,,,0,906,,,,,,,,,,,,,,,,,174,H,star,1,0,,,,,,,,,,,,,,,,repeat,letter,lettRpt,j,0.9256,Hi,,,,,,4,,,,,,,,low,13,0,13,0,1,,,,,,,,,
293692,2022-10-06_13h32.28.867,vts_reward_expectancy,2022.2.4,MacIntel,60.0024001,Chrome,1440,900,,,,,10,916,,,,,,,,,,,,,,,,,167,W,triangle,1,0,,,,,,,,,,,,,,,,switch,number,numSwt,f,0.9306,Lo,,,,,,4,,,,,,,,low,14,0,14,0,1,,,,,,,,,
293692,2022-10-06_13h32.28.867,vts_reward_expectancy,2022.2.4,MacIntel,60.0024001,Chrome,1440,900,,,,,0,916,,,,,,,,,,,,,,,,,125,Y,star,1,0,,,,,,,,,,,,,,,,repeat,number,numRpt,d,0.9623,Hi,,,,,,4,,,,,,,,low,15,0,15,0,1,,,,,,,,,
293692,2022-10-06_13h32.28.867,vts_reward_expectancy,2022.2.4,MacIntel,60.0024001,Chrome,1440,900,,,,,0,916,,,,,,,,,,,,,,,,,181,F,star,1,0,,,,,,,,,,,,,,,,repeat,number,numRpt,f,0.614,Hi,,,,,,4,,,,,,,,low,16,0,16,0,1,,,,,,,,,
293692,2022-10-06_13h32.28.867,vts_reward_expectancy,2022.2.4,MacIntel,60.0024001,Chrome,1440,900,,,,,1,917,,,,,,,,,,,,,,,,,146,S,triangle,1,0,,,,,,,,,,,,,,,,repeat,number,numRpt,d,0.5202,Lo,,,,,,4,,,,,,,,low,17,0,17,0,1,,,,,,,,,
293692,2022-10-06_13h32.28.867,vts_reward_expectancy,2022.2.4,MacIntel,60.0024001,Chrome,1440,900,,,,,1,918,,,,,,,,,,,,,,,,,125,U,triangle,1,0,,,,,,,,,,,,,,,,repeat,number,numRpt,d,0.5367,Lo,,,,,,4,,,,,,,,low,18,0,18,0,1,,,,,,,,,
293692,2022-10-06_13h32.28.867,vts_reward_expectancy,2022.2.4,MacIntel,60.0024001,Chrome,1440,900,,,,,0,918,,,,,,,,,,,,,,,,,139,Y,star,1,0,,,,,,,,,,,,,,,,repeat,number,numRpt,d,0.7469,Hi,,,,,,4,,,,,,,,low,19,0,19,0,1,,,,,,,,,
293692,2022-10-06_13h32.28.867,vts_reward_expectancy,2022.2.4,MacIntel,60.0024001,Chrome,1440,900,,,,,10,928,,,,,,,,,,,,,,,,,167,B,triangle,1,0,,,,,,,,,,,,,,,,switch,letter,lettSwt,j,0.4962,Lo,,,,,,4,,,,,,,,low,20,0,20,0,1,,,,,,,,,
293692,2022-10-06_13h32.28.867,vts_reward_expectancy,2022.2.4,MacIntel,60.0024001,Chrome,1440,900,,,,,0,928,,,,,,,,,,,,,,,,,174,D,star,1,0,,,,,,,,,,,,,,,,repeat,letter,lettRpt,j,0.6117,Hi,,,,,,4,,,,,,,,low,21,0,21,0,1,,,,,,,,,
293692,2022-10-06_13h32.28.867,vts_reward_expectancy,2022.2.4,MacIntel,60.0024001,Chrome,1440,900,,,,,0,928,,,,,,,,,,,,,,,,,132,H,star,1,0,,,,,,,,,,,,,,,,repeat,letter,lettRpt,j,0.7138,Hi,,,,,,4,,,,,,,,low,22,0,22,0,1,,,,,,,,,
293692,2022-10-06_13h32.28.867,vts_reward_expectancy,2022.2.4,MacIntel,60.0024001,Chrome,1440,900,,,,,1,929,,,,,,,,,,,,,,,,,160,W,triangle,1,0,,,,,,,,,,,,,,,,repeat,letter,lettRpt,k,0.4627,Lo,,,,,,4,,,,,,,,low,23,0,23,0,1,,,,,,,,,
293692,2022-10-06_13h32.28.867,vts_reward_expectancy,2022.2.4,MacIntel,60.0024001,Chrome,1440,900,,,,,0,929,,,,,,,,,,,,,,,,,174,U,star,1,0,,,,,,,,,,,,,,,,repeat,letter,lettRpt,k,0.5657,Hi,,,,,,4,,,,,,,,low,24,0,24,0,1,,,,,,,,,
293692,2022-10-06_13h32.28.867,vts_reward_expectancy,2022.2.4,MacIntel,60.0024001,Chrome,1440,900,,,,,0,929,,,,,,,,,,,,,,,,,181,H,triangle,0,0,,,,,,,,,,,,,,,,repeat,letter,NA,k,0.6807,Hi,,,,,,4,,,,,,,,low,25,0,25,0,1,,,,,,,,,
293692,2022-10-06_13h32.28.867,vts_reward_expectancy,2022.2.4,MacIntel,60.0024001,Chrome,1440,900,,,,,0,929,,,,,,,,,,,,,,,,,125,S,star,1,1,,,,,,,,,,,,,,,,repeat,letter,lettRpt,k,0.6139,Hi,,,,,,4,,,,,,,,low,26,0,26,0,1,,,,,,,,,
293692,2022-10-06_13h32.28.867,vts_reward_expectancy,2022.2.4,MacIntel,60.0024001,Chrome,1440,900,,,,,1,930,,,,,,,,,,,,,,,,,132,Y,triangle,1,0,,,,,,,,,,,,,,,,repeat,letter,lettRpt,k,0.6643,Lo,,,,,,4,,,,,,,,low,27,0,27,0,1,,,,,,,,,
293692,2022-10-06_13h32.28.867,vts_reward_expectancy,2022.2.4,MacIntel,60.0024001,Chrome,1440,900,,,,,0,930,,,,,,,,,,,,,,,,,167,F,star,1,0,,,,,,,,,,,,,,,,repeat,letter,lettRpt,j,0.8998,Hi,,,,,,4,,,,,,,,low,28,0,28,0,1,,,,,,,,,
293692,2022-10-06_13h32.28.867,vts_reward_expectancy,2022.2.4,MacIntel,60.0024001,Chrome,1440,900,,,,,10,940,,,,,,,,,,,,,,,,,139,B,triangle,1,0,,,,,,,,,,,,,,,,repeat,letter,lettRpt,j,0.6298,Lo,,,,,,4,,,,,,,,low,29,0,29,0,1,,,,,,,,,
293692,2022-10-06_13h32.28.867,vts_reward_expectancy,2022.2.4,MacIntel,60.0024001,Chrome,1440,900,,,,,0,940,,,,,,,,,,,,,,,,,146,W,star,1,0,,,,,,,,,,,,,,,,repeat,letter,lettRpt,k,0.8274,Hi,,,,,,4,,,,,,,,low,30,0,30,0,1,,,,,,,,,
293692,2022-10-06_13h32.28.867,vts_reward_expectancy,2022.2.4,MacIntel,60.0024001,Chrome,1440,900,,,,,1,941,,,,,,,,,,,,,,,,,160,D,triangle,1,0,,,,,,,,,,,,,,,,repeat,letter,lettRpt,j,0.6547,Lo,,,,,,4,,,,,,,,low,31,0,31,0,1,,,,,,,,,
293692,2022-10-06_13h32.28.867,vts_reward_expectancy,2022.2.4,MacIntel,60.0024001,Chrome,1440,900,,,,,0,941,,,,,,,,,,,,,,,,,174,D,hexagon,0,0,,,,,,,,,,,,,,,,repeat,letter,NA,k,0.4983,Lo,,,,,,5,,,,,,space,0.9137,high,0,0,0,0,1,,,,,,,,,
293692,2022-10-06_13h32.28.867,vts_reward_expectancy,2022.2.4,MacIntel,60.0024001,Chrome,1440,900,,,,,10,951,,,,,,,,,,,,,,,,,181,U,circle,1,1,,,,,,,,,,,,,,,,switch,number,numSwt,f,0.4971,Lo,,,,,,5,,,,,,,,high,1,0,1,0,1,,,,,,,,,
293692,2022-10-06_13h32.28.867,vts_reward_expectancy,2022.2.4,MacIntel,60.0024001,Chrome,1440,900,,,,,10,961,,,,,,,,,,,,,,,,,167,Y,hexagon,1,0,,,,,,,,,,,,,,,,repeat,number,numRpt,f,0.3968,Hi,,,,,,5,,,,,,,,high,2,0,2,0,1,,,,,,,,,
293692,2022-10-06_13h32.28.867,vts_reward_expectancy,2022.2.4,MacIntel,60.0024001,Chrome,1440,900,,,,,10,971,,,,,,,,,,,,,,,,,160,B,circle,1,0,,,,,,,,,,,,,,,,repeat,number,numRpt,f,0.3969,Lo,,,,,,5,,,,,,,,high,3,0,3,0,1,,,,,,,,,
293692,2022-10-06_13h32.28.867,vts_reward_expectancy,2022.2.4,MacIntel,60.0024001,Chrome,1440,900,,,,,0,971,,,,,,,,,,,,,,,,,125,S,hexagon,0,0,,,,,,,,,,,,,,,,repeat,number,NA,f,0.3639,Lo,,,,,,5,,,,,,,,high,4,0,4,0,1,,,,,,,,,
293692,2022-10-06_13h32.28.867,vts_reward_expectancy,2022.2.4,MacIntel,60.0024001,Chrome,1440,900,,,,,1,972,,,,,,,,,,,,,,,,,139,H,circle,1,1,,,,,,,,,,,,,,,,repeat,number,numRpt,d,0.4307,Lo,,,,,,5,,,,,,,,high,5,0,5,0,1,,,,,,,,,
293692,2022-10-06_13h32.28.867,vts_reward_expectancy,2022.2.4,MacIntel,60.0024001,Chrome,1440,900,,,,,0,972,,,,,,,,,,,,,,,,,146,F,circle,0,0,,,,,,,,,,,,,,,,repeat,number,NA,f,0.6313,Lo,,,,,,5,,,,,,,,high,6,0,6,0,1,,,,,,,,,
293692,2022-10-06_13h32.28.867,vts_reward_expectancy,2022.2.4,MacIntel,60.0024001,Chrome,1440,900,,,,,10,982,,,,,,,,,,,,,,,,,132,W,hexagon,1,1,,,,,,,,,,,,,,,,repeat,number,numRpt,d,0.4866,Hi,,,,,,5,,,,,,,,high,7,0,7,0,1,,,,,,,,,
293692,2022-10-06_13h32.28.867,vts_reward_expectancy,2022.2.4,MacIntel,60.0024001,Chrome,1440,900,,,,,10,992,,,,,,,,,,,,,,,,,174,D,hexagon,1,0,,,,,,,,,,,,,,,,switch,letter,lettSwt,j,0.0003,Hi,,,,,,5,,,,,,,,high,8,0,8,0,1,,,,,,,,,
293692,2022-10-06_13h32.28.867,vts_reward_expectancy,2022.2.4,MacIntel,60.0024001,Chrome,1440,900,,,,,1,993,,,,,,,,,,,,,,,,,181,U,circle,1,0,,,,,,,,,,,,,,,,switch,number,numSwt,f,0.4453,Lo,,,,,,5,,,,,,,,high,9,0,9,0,1,,,,,,,,,
293692,2022-10-06_13h32.28.867,vts_reward_expectancy,2022.2.4,MacIntel,60.0024001,Chrome,1440,900,,,,,10,1003,,,,,,,,,,,,,,,,,167,Y,circle,1,0,,,,,,,,,,,,,,,,switch,letter,lettSwt,k,0.537,Lo,,,,,,5,,,,,,,,high,10,0,10,0,1,,,,,,,,,
293692,2022-10-06_13h32.28.867,vts_reward_expectancy,2022.2.4,MacIntel,60.0024001,Chrome,1440,900,,,,,10,1013,,,,,,,,,,,,,,,,,160,B,hexagon,1,0,,,,,,,,,,,,,,,,repeat,letter,lettRpt,j,0.5633,Hi,,,,,,5,,,,,,,,high,11,0,11,0,1,,,,,,,,,
293692,2022-10-06_13h32.28.867,vts_reward_expectancy,2022.2.4,MacIntel,60.0024001,Chrome,1440,900,,,,,10,1023,,,,,,,,,,,,,,,,,125,S,hexagon,1,0,,,,,,,,,,,,,,,,switch,number,numSwt,d,0.4991,Hi,,,,,,5,,,,,,,,high,12,0,12,0,1,,,,,,,,,
293692,2022-10-06_13h32.28.867,vts_reward_expectancy,2022.2.4,MacIntel,60.0024001,Chrome,1440,900,,,,,1,1024,,,,,,,,,,,,,,,,,139,H,circle,1,0,,,,,,,,,,,,,,,,switch,letter,lettSwt,j,0.5127,Lo,,,,,,5,,,,,,,,high,13,0,13,0,1,,,,,,,,,
293692,2022-10-06_13h32.28.867,vts_reward_expectancy,2022.2.4,MacIntel,60.0024001,Chrome,1440,900,,,,,1,1025,,,,,,,,,,,,,,,,,146,F,hexagon,1,0,,,,,,,,,,,,,,,,switch,number,numSwt,d,0.4473,Hi,,,,,,5,,,,,,,,high,14,0,14,0,1,,,,,,,,,
293692,2022-10-06_13h32.28.867,vts_reward_expectancy,2022.2.4,MacIntel,60.0024001,Chrome,1440,900,,,,,1,1026,,,,,,,,,,,,,,,,,132,W,circle,1,0,,,,,,,,,,,,,,,,repeat,number,numRpt,d,0.404,Lo,,,,,,5,,,,,,,,high,15,0,15,0,1,,,,,,,,,
293692,2022-10-06_13h32.28.867,vts_reward_expectancy,2022.2.4,MacIntel,60.0024001,Chrome,1440,900,,,,,1,1027,,,,,,,,,,,,,,,,,146,D,hexagon,1,0,,,,,,,,,,,,,,,,repeat,number,numRpt,d,0.5167,Hi,,,,,,5,,,,,,,,high,16,0,16,0,1,,,,,,,,,
293692,2022-10-06_13h32.28.867,vts_reward_expectancy,2022.2.4,MacIntel,60.0024001,Chrome,1440,900,,,,,1,1028,,,,,,,,,,,,,,,,,174,H,circle,1,0,,,,,,,,,,,,,,,,switch,letter,lettSwt,j,0.5488,Lo,,,,,,5,,,,,,,,high,17,0,17,0,1,,,,,,,,,
293692,2022-10-06_13h32.28.867,vts_reward_expectancy,2022.2.4,MacIntel,60.0024001,Chrome,1440,900,,,,,0,1028,,,,,,,,,,,,,,,,,167,B,circle,0,0,,,,,,,,,,,,,,,,switch,number,NA,d,0.4529,Lo,,,,,,5,,,,,,,,high,18,0,18,0,1,,,,,,,,,
293692,2022-10-06_13h32.28.867,vts_reward_expectancy,2022.2.4,MacIntel,60.0024001,Chrome,1440,900,,,,,0,1028,,,,,,,,,,,,,,,,,181,Y,hexagon,1,1,,,,,,,,,,,,,,,,repeat,number,numRpt,f,0.6139,Hi,,,,,,5,,,,,,,,high,19,0,19,0,1,,,,,,,,,
293692,2022-10-06_13h32.28.867,vts_reward_expectancy,2022.2.4,MacIntel,60.0024001,Chrome,1440,900,,,,,1,1029,,,,,,,,,,,,,,,,,139,F,circle,1,0,,,,,,,,,,,,,,,,repeat,number,numRpt,d,0.443,Lo,,,,,,5,,,,,,,,high,20,0,20,0,1,,,,,,,,,
293692,2022-10-06_13h32.28.867,vts_reward_expectancy,2022.2.4,MacIntel,60.0024001,Chrome,1440,900,,,,,0,1029,,,,,,,,,,,,,,,,,160,U,hexagon,1,0,,,,,,,,,,,,,,,,switch,letter,lettSwt,k,1.0198,Hi,,,,,,5,,,,,,,,high,21,0,21,0,1,,,,,,,,,
293692,2022-10-06_13h32.28.867,vts_reward_expectancy,2022.2.4,MacIntel,60.0024001,Chrome,1440,900,,,,,0,1029,,,,,,,,,,,,,,,,,132,W,hexagon,1,0,,,,,,,,,,,,,,,,repeat,letter,lettRpt,k,0.6655,Hi,,,,,,5,,,,,,,,high,22,0,22,0,1,,,,,,,,,
293692,2022-10-06_13h32.28.867,vts_reward_expectancy,2022.2.4,MacIntel,60.0024001,Chrome,1440,900,,,,,10,1039,,,,,,,,,,,,,,,,,125,S,circle,1,0,,,,,,,,,,,,,,,,repeat,letter,lettRpt,k,0.4489,Lo,,,,,,5,,,,,,,,high,23,0,23,0,1,,,,,,,,,
293692,2022-10-06_13h32.28.867,vts_reward_expectancy,2022.2.4,MacIntel,60.0024001,Chrome,1440,900,,,,,1,1040,,,,,,,,,,,,,,,,,125,W,circle,1,0,,,,,,,,,,,,,,,,switch,number,numSwt,d,0.4437,Lo,,,,,,5,,,,,,,,high,24,0,24,0,1,,,,,,,,,
293692,2022-10-06_13h32.28.867,vts_reward_expectancy,2022.2.4,MacIntel,60.0024001,Chrome,1440,900,,,,,10,1050,,,,,,,,,,,,,,,,,139,H,hexagon,1,0,,,,,,,,,,,,,,,,repeat,number,numRpt,d,0.4677,Hi,,,,,,5,,,,,,,,high,25,0,25,0,1,,,,,,,,,
293692,2022-10-06_13h32.28.867,vts_reward_expectancy,2022.2.4,MacIntel,60.0024001,Chrome,1440,900,,,,,10,1060,,,,,,,,,,,,,,,,,181,Y,circle,1,0,,,,,,,,,,,,,,,,repeat,number,numRpt,f,0.4656,Lo,,,,,,5,,,,,,,,high,26,0,26,0,1,,,,,,,,,
293692,2022-10-06_13h32.28.867,vts_reward_expectancy,2022.2.4,MacIntel,60.0024001,Chrome,1440,900,,,,,0,1060,,,,,,,,,,,,,,,,,146,S,hexagon,0,0,,,,,,,,,,,,,,,,switch,letter,NA,j,0.1,Lo,,,,,,5,,,,,,,,high,27,0,27,0,1,,,,,,,,,
293692,2022-10-06_13h32.28.867,vts_reward_expectancy,2022.2.4,MacIntel,60.0024001,Chrome,1440,900,,,,,0,1060,,,,,,,,,,,,,,,,,167,F,hexagon,0,1,,,,,,,,,,,,,,,,switch,number,NA,d,0.4495,Lo,,,,,,5,,,,,,,,high,28,0,28,0,1,,,,,,,,,
293692,2022-10-06_13h32.28.867,vts_reward_expectancy,2022.2.4,MacIntel,60.0024001,Chrome,1440,900,,,,,1,1061,,,,,,,,,,,,,,,,,160,D,circle,1,1,,,,,,,,,,,,,,,,repeat,number,numRpt,f,0.4664,Lo,,,,,,5,,,,,,,,high,29,0,29,0,1,,,,,,,,,
293692,2022-10-06_13h32.28.867,vts_reward_expectancy,2022.2.4,MacIntel,60.0024001,Chrome,1440,900,,,,,1,1062,,,,,,,,,,,,,,,,,174,B,hexagon,1,0,,,,,,,,,,,,,,,,repeat,number,numRpt,f,0.4621,Hi,,,,,,5,,,,,,,,high,30,0,30,0,1,,,,,,,,,
293692,2022-10-06_13h32.28.867,vts_reward_expectancy,2022.2.4,MacIntel,60.0024001,Chrome,1440,900,,,,,1,1063,,,,,,,,,,,,,,,,,132,U,circle,1,0,,,,,,,,,,,,,,,,repeat,number,numRpt,d,0.4476,Lo,,,,,,5,,,,,,,,high,31,0,31,0,1,,,,,,,,,
293692,2022-10-06_13h32.28.867,vts_reward_expectancy,2022.2.4,MacIntel,60.0024001,Chrome,1440,900,,,,,,,,,,,,,,,,,,,,,,,,,,,,,,,,,,,,,,,,,,,,,,,,,,,,,,6,,,,,,,,,,,,,,"I was asked to use trial and error to determine the corresponding shapes to letters and numbers, as each shape determines point values. Furthermore, I was asked to choose whether the number was over or under 153, as well as choose if the letter was closer to A or Z.",1,,3,2,,2,1440,900
