participant,date,expName,psychopyVersion,OS,frameRate,browser,xResolution,yResolution,key_resp.keys,key_resp.rt,training_resp.keys,training_resp.rt,points_trial,points_cumul,trainBlock,training.thisRepN,training.thisTrialN,training.thisN,training.thisIndex,training.ran,LTriangleOpac,LCircleOpac,LHexagonOpac,LStarOpac,RTriangleOpac,RCircleOpac,RHexagonOpac,RStarOpac,LShape_ID,RShape_ID,curr_topStim,curr_bottStim,curr_shape,acc,E1,target_resp_prac1.keys,target_resp_prac1.rt,pracBlock,task1_prac_trials.thisRepN,task1_prac_trials.thisTrialN,task1_prac_trials.thisN,task1_prac_trials.thisIndex,task1_prac_trials.ran,target_resp_prac2.keys,task2_praac_trials.thisRepN,task2_praac_trials.thisTrialN,task2_praac_trials.thisN,task2_praac_trials.thisIndex,task2_praac_trials.ran,target_resp_prac2.rt,alt,task,condition,target_resp.keys,rewCond,vts_practice_trials.thisRepN,vts_practice_trials.thisTrialN,vts_practice_trials.thisN,vts_practice_trials.thisIndex,vts_practice_trials.ran,target_resp.rt,blockNum,trials_norew.thisRepN,trials_norew.thisTrialN,trials_norew.thisN,trials_norew.thisIndex,trials_norew.ran,key_resp_2.keys,key_resp_2.rt,rewExpect,trials_rew.thisRepN,trials_rew.thisTrialN,trials_rew.thisN,trials_rew.thisIndex,trials_rew.ran,Q1,Q2,Q2_text,Q3,Q4,Q5_text,Q5,xRes,yRes
294196,2022-10-05_12h56.23.793,vts_reward_expectancy,2022.2.4,Win32,60.12867537,Chrome,1536,960,,,,,,,,,,,,,,,,,,,,,,,,,,,,,,,,,,,,,,,,,,,,,,,,,,,,,,,,,,,,,,,,,,,,,,,,,,,,
294196,2022-10-05_12h56.23.793,vts_reward_expectancy,2022.2.4,Win32,60.12867537,Chrome,1536,960,space,200.3812,,,,,,,,,,,,,,,,,,,,,,,,,,,,,,,,,,,,,,,,,,,,,,,,,,,,,,,,,,,,,,,,,,,,,,,,,,
294196,2022-10-05_12h56.23.793,vts_reward_expectancy,2022.2.4,Win32,60.12867537,Chrome,1536,960,,,,,,,,,,,,,,,,,,,,,,,,,,,,,,,,,,,,,,,,,,,,,,,,,,,,,,,,,,,,,,,,,,,,,,,,,,,,
294196,2022-10-05_12h56.23.793,vts_reward_expectancy,2022.2.4,Win32,60.12867537,Chrome,1536,960,,,a,0.769,1,1,0,0,0,0,0,1,1,0,0,0,0,1,0,0,triangle,circle,,,,,,,,,,,,,,,,,,,,,,,,,,,,,,,,,,,,,,,,,,,,,,,,,,,,,,
294196,2022-10-05_12h56.23.793,vts_reward_expectancy,2022.2.4,Win32,60.12867537,Chrome,1536,960,,,a,0.4384,10,11,0,0,1,1,3,1,0,1,0,0,1,0,0,0,circle,triangle,,,,,,,,,,,,,,,,,,,,,,,,,,,,,,,,,,,,,,,,,,,,,,,,,,,,,,
294196,2022-10-05_12h56.23.793,vts_reward_expectancy,2022.2.4,Win32,60.12867537,Chrome,1536,960,,,a,0.4216,1,12,0,0,2,2,6,1,0,0,1,0,1,0,0,0,hexagon,triangle,,,,,,,,,,,,,,,,,,,,,,,,,,,,,,,,,,,,,,,,,,,,,,,,,,,,,,
294196,2022-10-05_12h56.23.793,vts_reward_expectancy,2022.2.4,Win32,60.12867537,Chrome,1536,960,,,l,0.7277,10,22,0,0,3,3,11,1,0,0,0,1,0,0,1,0,star,hexagon,,,,,,,,,,,,,,,,,,,,,,,,,,,,,,,,,,,,,,,,,,,,,,,,,,,,,,
294196,2022-10-05_12h56.23.793,vts_reward_expectancy,2022.2.4,Win32,60.12867537,Chrome,1536,960,,,l,0.6485,10,32,0,0,4,4,10,1,0,0,0,1,0,1,0,0,star ,circle,,,,,,,,,,,,,,,,,,,,,,,,,,,,,,,,,,,,,,,,,,,,,,,,,,,,,,
294196,2022-10-05_12h56.23.793,vts_reward_expectancy,2022.2.4,Win32,60.12867537,Chrome,1536,960,,,l,0.591,10,42,0,0,5,5,7,1,0,0,1,0,0,1,0,0,hexagon,circle,,,,,,,,,,,,,,,,,,,,,,,,,,,,,,,,,,,,,,,,,,,,,,,,,,,,,,
294196,2022-10-05_12h56.23.793,vts_reward_expectancy,2022.2.4,Win32,60.12867537,Chrome,1536,960,,,l,0.7731,10,52,0,0,6,6,9,1,0,0,0,1,1,0,0,0,star,triangle,,,,,,,,,,,,,,,,,,,,,,,,,,,,,,,,,,,,,,,,,,,,,,,,,,,,,,
294196,2022-10-05_12h56.23.793,vts_reward_expectancy,2022.2.4,Win32,60.12867537,Chrome,1536,960,,,a,0.5006,1,53,0,0,7,7,2,1,1,0,0,0,0,0,0,1,triangle,star,,,,,,,,,,,,,,,,,,,,,,,,,,,,,,,,,,,,,,,,,,,,,,,,,,,,,,
294196,2022-10-05_12h56.23.793,vts_reward_expectancy,2022.2.4,Win32,60.12867537,Chrome,1536,960,,,l,0.5493,10,63,0,0,8,8,5,1,0,1,0,0,0,0,0,1,circle,star,,,,,,,,,,,,,,,,,,,,,,,,,,,,,,,,,,,,,,,,,,,,,,,,,,,,,,
294196,2022-10-05_12h56.23.793,vts_reward_expectancy,2022.2.4,Win32,60.12867537,Chrome,1536,960,,,l,0.8411,10,73,0,0,9,9,1,1,1,0,0,0,0,0,1,0,triangle,hexagon,,,,,,,,,,,,,,,,,,,,,,,,,,,,,,,,,,,,,,,,,,,,,,,,,,,,,,
294196,2022-10-05_12h56.23.793,vts_reward_expectancy,2022.2.4,Win32,60.12867537,Chrome,1536,960,,,l,0.5397,10,83,0,0,10,10,8,1,0,0,1,0,0,0,0,1,hexagon,star,,,,,,,,,,,,,,,,,,,,,,,,,,,,,,,,,,,,,,,,,,,,,,,,,,,,,,
294196,2022-10-05_12h56.23.793,vts_reward_expectancy,2022.2.4,Win32,60.12867537,Chrome,1536,960,,,l,0.5506,10,93,0,0,11,11,4,1,0,1,0,0,0,0,1,0,circle,hexagon,,,,,,,,,,,,,,,,,,,,,,,,,,,,,,,,,,,,,,,,,,,,,,,,,,,,,,
294196,2022-10-05_12h56.23.793,vts_reward_expectancy,2022.2.4,Win32,60.12867537,Chrome,1536,960,,,a,0.5488,10,103,0,1,0,12,7,1,0,0,1,0,0,1,0,0,hexagon,circle,,,,,,,,,,,,,,,,,,,,,,,,,,,,,,,,,,,,,,,,,,,,,,,,,,,,,,
294196,2022-10-05_12h56.23.793,vts_reward_expectancy,2022.2.4,Win32,60.12867537,Chrome,1536,960,,,a,0.6691,10,113,0,1,1,13,10,1,0,0,0,1,0,1,0,0,star ,circle,,,,,,,,,,,,,,,,,,,,,,,,,,,,,,,,,,,,,,,,,,,,,,,,,,,,,,
294196,2022-10-05_12h56.23.793,vts_reward_expectancy,2022.2.4,Win32,60.12867537,Chrome,1536,960,,,l,0.5347,10,123,0,1,2,14,1,1,1,0,0,0,0,0,1,0,triangle,hexagon,,,,,,,,,,,,,,,,,,,,,,,,,,,,,,,,,,,,,,,,,,,,,,,,,,,,,,
294196,2022-10-05_12h56.23.793,vts_reward_expectancy,2022.2.4,Win32,60.12867537,Chrome,1536,960,,,l,0.4328,10,133,0,1,3,15,2,1,1,0,0,0,0,0,0,1,triangle,star,,,,,,,,,,,,,,,,,,,,,,,,,,,,,,,,,,,,,,,,,,,,,,,,,,,,,,
294196,2022-10-05_12h56.23.793,vts_reward_expectancy,2022.2.4,Win32,60.12867537,Chrome,1536,960,,,a,0.4045,1,134,0,1,4,16,6,1,0,0,1,0,1,0,0,0,hexagon,triangle,,,,,,,,,,,,,,,,,,,,,,,,,,,,,,,,,,,,,,,,,,,,,,,,,,,,,,
294196,2022-10-05_12h56.23.793,vts_reward_expectancy,2022.2.4,Win32,60.12867537,Chrome,1536,960,,,l,0.4556,10,144,0,1,5,17,9,1,0,0,0,1,1,0,0,0,star,triangle,,,,,,,,,,,,,,,,,,,,,,,,,,,,,,,,,,,,,,,,,,,,,,,,,,,,,,
294196,2022-10-05_12h56.23.793,vts_reward_expectancy,2022.2.4,Win32,60.12867537,Chrome,1536,960,,,l,0.6223,1,145,0,1,6,18,4,1,0,1,0,0,0,0,1,0,circle,hexagon,,,,,,,,,,,,,,,,,,,,,,,,,,,,,,,,,,,,,,,,,,,,,,,,,,,,,,
294196,2022-10-05_12h56.23.793,vts_reward_expectancy,2022.2.4,Win32,60.12867537,Chrome,1536,960,,,a,0.365,10,155,0,1,7,19,5,1,0,1,0,0,0,0,0,1,circle,star,,,,,,,,,,,,,,,,,,,,,,,,,,,,,,,,,,,,,,,,,,,,,,,,,,,,,,
294196,2022-10-05_12h56.23.793,vts_reward_expectancy,2022.2.4,Win32,60.12867537,Chrome,1536,960,,,l,0.3973,10,165,0,1,8,20,0,1,1,0,0,0,0,1,0,0,triangle,circle,,,,,,,,,,,,,,,,,,,,,,,,,,,,,,,,,,,,,,,,,,,,,,,,,,,,,,
294196,2022-10-05_12h56.23.793,vts_reward_expectancy,2022.2.4,Win32,60.12867537,Chrome,1536,960,,,a,0.8388,10,175,0,1,9,21,8,1,0,0,1,0,0,0,0,1,hexagon,star,,,,,,,,,,,,,,,,,,,,,,,,,,,,,,,,,,,,,,,,,,,,,,,,,,,,,,
294196,2022-10-05_12h56.23.793,vts_reward_expectancy,2022.2.4,Win32,60.12867537,Chrome,1536,960,,,a,0.5083,1,176,0,1,10,22,11,1,0,0,0,1,0,0,1,0,star,hexagon,,,,,,,,,,,,,,,,,,,,,,,,,,,,,,,,,,,,,,,,,,,,,,,,,,,,,,
294196,2022-10-05_12h56.23.793,vts_reward_expectancy,2022.2.4,Win32,60.12867537,Chrome,1536,960,,,a,0.5808,10,186,0,1,11,23,3,1,0,1,0,0,1,0,0,0,circle,triangle,,,,,,,,,,,,,,,,,,,,,,,,,,,,,,,,,,,,,,,,,,,,,,,,,,,,,,
294196,2022-10-05_12h56.23.793,vts_reward_expectancy,2022.2.4,Win32,60.12867537,Chrome,1536,960,,,l,0.4324,1,187,0,2,0,24,6,1,0,0,1,0,1,0,0,0,hexagon,triangle,,,,,,,,,,,,,,,,,,,,,,,,,,,,,,,,,,,,,,,,,,,,,,,,,,,,,,
294196,2022-10-05_12h56.23.793,vts_reward_expectancy,2022.2.4,Win32,60.12867537,Chrome,1536,960,,,a,0.3763,1,188,0,2,1,25,2,1,1,0,0,0,0,0,0,1,triangle,star,,,,,,,,,,,,,,,,,,,,,,,,,,,,,,,,,,,,,,,,,,,,,,,,,,,,,,
294196,2022-10-05_12h56.23.793,vts_reward_expectancy,2022.2.4,Win32,60.12867537,Chrome,1536,960,,,l,0.5925,1,189,0,2,2,26,11,1,0,0,0,1,0,0,1,0,star,hexagon,,,,,,,,,,,,,,,,,,,,,,,,,,,,,,,,,,,,,,,,,,,,,,,,,,,,,,
294196,2022-10-05_12h56.23.793,vts_reward_expectancy,2022.2.4,Win32,60.12867537,Chrome,1536,960,,,a,0.5083,1,190,0,2,3,27,9,1,0,0,0,1,1,0,0,0,star,triangle,,,,,,,,,,,,,,,,,,,,,,,,,,,,,,,,,,,,,,,,,,,,,,,,,,,,,,
294196,2022-10-05_12h56.23.793,vts_reward_expectancy,2022.2.4,Win32,60.12867537,Chrome,1536,960,,,l,0.4677,1,191,0,2,4,28,8,1,0,0,1,0,0,0,0,1,hexagon,star,,,,,,,,,,,,,,,,,,,,,,,,,,,,,,,,,,,,,,,,,,,,,,,,,,,,,,
294196,2022-10-05_12h56.23.793,vts_reward_expectancy,2022.2.4,Win32,60.12867537,Chrome,1536,960,,,a,0.2853,1,192,0,2,5,29,5,1,0,1,0,0,0,0,0,1,circle,star,,,,,,,,,,,,,,,,,,,,,,,,,,,,,,,,,,,,,,,,,,,,,,,,,,,,,,
294196,2022-10-05_12h56.23.793,vts_reward_expectancy,2022.2.4,Win32,60.12867537,Chrome,1536,960,,,l,0.329,1,193,0,2,6,30,0,1,1,0,0,0,0,1,0,0,triangle,circle,,,,,,,,,,,,,,,,,,,,,,,,,,,,,,,,,,,,,,,,,,,,,,,,,,,,,,
294196,2022-10-05_12h56.23.793,vts_reward_expectancy,2022.2.4,Win32,60.12867537,Chrome,1536,960,,,l,0.6651,1,194,0,2,7,31,3,1,0,1,0,0,1,0,0,0,circle,triangle,,,,,,,,,,,,,,,,,,,,,,,,,,,,,,,,,,,,,,,,,,,,,,,,,,,,,,
294196,2022-10-05_12h56.23.793,vts_reward_expectancy,2022.2.4,Win32,60.12867537,Chrome,1536,960,,,a,0.5991,10,204,0,2,8,32,7,1,0,0,1,0,0,1,0,0,hexagon,circle,,,,,,,,,,,,,,,,,,,,,,,,,,,,,,,,,,,,,,,,,,,,,,,,,,,,,,
294196,2022-10-05_12h56.23.793,vts_reward_expectancy,2022.2.4,Win32,60.12867537,Chrome,1536,960,,,l,0.4756,10,214,0,2,9,33,4,1,0,1,0,0,0,0,1,0,circle,hexagon,,,,,,,,,,,,,,,,,,,,,,,,,,,,,,,,,,,,,,,,,,,,,,,,,,,,,,
294196,2022-10-05_12h56.23.793,vts_reward_expectancy,2022.2.4,Win32,60.12867537,Chrome,1536,960,,,a,0.466,10,224,0,2,10,34,10,1,0,0,0,1,0,1,0,0,star ,circle,,,,,,,,,,,,,,,,,,,,,,,,,,,,,,,,,,,,,,,,,,,,,,,,,,,,,,
294196,2022-10-05_12h56.23.793,vts_reward_expectancy,2022.2.4,Win32,60.12867537,Chrome,1536,960,,,l,0.5421,10,234,0,2,11,35,1,1,1,0,0,0,0,0,1,0,triangle,hexagon,,,,,,,,,,,,,,,,,,,,,,,,,,,,,,,,,,,,,,,,,,,,,,,,,,,,,,
294196,2022-10-05_12h56.23.793,vts_reward_expectancy,2022.2.4,Win32,60.12867537,Chrome,1536,960,,,l,0.5682,1,235,1,0,0,0,1,1,1,0,0,0,0,0,1,0,triangle,hexagon,,,,,,,,,,,,,,,,,,,,,,,,,,,,,,,,,,,,,,,,,,,,,,,,,,,,,,
294196,2022-10-05_12h56.23.793,vts_reward_expectancy,2022.2.4,Win32,60.12867537,Chrome,1536,960,,,a,0.4514,1,236,1,0,1,1,11,1,0,0,0,1,0,0,1,0,star,hexagon,,,,,,,,,,,,,,,,,,,,,,,,,,,,,,,,,,,,,,,,,,,,,,,,,,,,,,
294196,2022-10-05_12h56.23.793,vts_reward_expectancy,2022.2.4,Win32,60.12867537,Chrome,1536,960,,,a,0.2056,1,237,1,0,2,2,3,1,0,1,0,0,1,0,0,0,circle,triangle,,,,,,,,,,,,,,,,,,,,,,,,,,,,,,,,,,,,,,,,,,,,,,,,,,,,,,
294196,2022-10-05_12h56.23.793,vts_reward_expectancy,2022.2.4,Win32,60.12867537,Chrome,1536,960,,,a,0.7744,1,238,1,0,3,3,10,1,0,0,0,1,0,1,0,0,star ,circle,,,,,,,,,,,,,,,,,,,,,,,,,,,,,,,,,,,,,,,,,,,,,,,,,,,,,,
294196,2022-10-05_12h56.23.793,vts_reward_expectancy,2022.2.4,Win32,60.12867537,Chrome,1536,960,,,a,1.0592,1,239,1,0,4,4,2,1,1,0,0,0,0,0,0,1,triangle,star,,,,,,,,,,,,,,,,,,,,,,,,,,,,,,,,,,,,,,,,,,,,,,,,,,,,,,
294196,2022-10-05_12h56.23.793,vts_reward_expectancy,2022.2.4,Win32,60.12867537,Chrome,1536,960,,,a,0.6501,1,240,1,0,5,5,9,1,0,0,0,1,1,0,0,0,star,triangle,,,,,,,,,,,,,,,,,,,,,,,,,,,,,,,,,,,,,,,,,,,,,,,,,,,,,,
294196,2022-10-05_12h56.23.793,vts_reward_expectancy,2022.2.4,Win32,60.12867537,Chrome,1536,960,,,l,0.8513,1,241,1,0,6,6,4,1,0,1,0,0,0,0,1,0,circle,hexagon,,,,,,,,,,,,,,,,,,,,,,,,,,,,,,,,,,,,,,,,,,,,,,,,,,,,,,
294196,2022-10-05_12h56.23.793,vts_reward_expectancy,2022.2.4,Win32,60.12867537,Chrome,1536,960,,,a,0.7181,10,251,1,0,7,7,6,1,0,0,1,0,1,0,0,0,hexagon,triangle,,,,,,,,,,,,,,,,,,,,,,,,,,,,,,,,,,,,,,,,,,,,,,,,,,,,,,
294196,2022-10-05_12h56.23.793,vts_reward_expectancy,2022.2.4,Win32,60.12867537,Chrome,1536,960,,,a,0.7112,10,261,1,0,8,8,8,1,0,0,1,0,0,0,0,1,hexagon,star,,,,,,,,,,,,,,,,,,,,,,,,,,,,,,,,,,,,,,,,,,,,,,,,,,,,,,
294196,2022-10-05_12h56.23.793,vts_reward_expectancy,2022.2.4,Win32,60.12867537,Chrome,1536,960,,,l,1.1186,1,262,1,0,9,9,0,1,1,0,0,0,0,1,0,0,triangle,circle,,,,,,,,,,,,,,,,,,,,,,,,,,,,,,,,,,,,,,,,,,,,,,,,,,,,,,
294196,2022-10-05_12h56.23.793,vts_reward_expectancy,2022.2.4,Win32,60.12867537,Chrome,1536,960,,,a,2.3531,1,263,1,0,10,10,7,1,0,0,1,0,0,1,0,0,hexagon,circle,,,,,,,,,,,,,,,,,,,,,,,,,,,,,,,,,,,,,,,,,,,,,,,,,,,,,,
294196,2022-10-05_12h56.23.793,vts_reward_expectancy,2022.2.4,Win32,60.12867537,Chrome,1536,960,,,l,0.6008,1,264,1,0,11,11,5,1,0,1,0,0,0,0,0,1,circle,star,,,,,,,,,,,,,,,,,,,,,,,,,,,,,,,,,,,,,,,,,,,,,,,,,,,,,,
294196,2022-10-05_12h56.23.793,vts_reward_expectancy,2022.2.4,Win32,60.12867537,Chrome,1536,960,,,l,1.0018,10,274,1,1,0,12,6,1,0,0,1,0,1,0,0,0,hexagon,triangle,,,,,,,,,,,,,,,,,,,,,,,,,,,,,,,,,,,,,,,,,,,,,,,,,,,,,,
294196,2022-10-05_12h56.23.793,vts_reward_expectancy,2022.2.4,Win32,60.12867537,Chrome,1536,960,,,l,0.7094,10,284,1,1,1,13,10,1,0,0,0,1,0,1,0,0,star ,circle,,,,,,,,,,,,,,,,,,,,,,,,,,,,,,,,,,,,,,,,,,,,,,,,,,,,,,
294196,2022-10-05_12h56.23.793,vts_reward_expectancy,2022.2.4,Win32,60.12867537,Chrome,1536,960,,,a,0.7007,10,294,1,1,2,14,1,1,1,0,0,0,0,0,1,0,triangle,hexagon,,,,,,,,,,,,,,,,,,,,,,,,,,,,,,,,,,,,,,,,,,,,,,,,,,,,,,
294196,2022-10-05_12h56.23.793,vts_reward_expectancy,2022.2.4,Win32,60.12867537,Chrome,1536,960,,,a,0.6032,1,295,1,1,3,15,2,1,1,0,0,0,0,0,0,1,triangle,star,,,,,,,,,,,,,,,,,,,,,,,,,,,,,,,,,,,,,,,,,,,,,,,,,,,,,,
294196,2022-10-05_12h56.23.793,vts_reward_expectancy,2022.2.4,Win32,60.12867537,Chrome,1536,960,,,l,0.918,10,305,1,1,4,16,0,1,1,0,0,0,0,1,0,0,triangle,circle,,,,,,,,,,,,,,,,,,,,,,,,,,,,,,,,,,,,,,,,,,,,,,,,,,,,,,
294196,2022-10-05_12h56.23.793,vts_reward_expectancy,2022.2.4,Win32,60.12867537,Chrome,1536,960,,,l,0.8571,1,306,1,1,5,17,9,1,0,0,0,1,1,0,0,0,star,triangle,,,,,,,,,,,,,,,,,,,,,,,,,,,,,,,,,,,,,,,,,,,,,,,,,,,,,,
294196,2022-10-05_12h56.23.793,vts_reward_expectancy,2022.2.4,Win32,60.12867537,Chrome,1536,960,,,l,0.9902,1,307,1,1,6,18,3,1,0,1,0,0,1,0,0,0,circle,triangle,,,,,,,,,,,,,,,,,,,,,,,,,,,,,,,,,,,,,,,,,,,,,,,,,,,,,,
294196,2022-10-05_12h56.23.793,vts_reward_expectancy,2022.2.4,Win32,60.12867537,Chrome,1536,960,,,a,0.3876,1,308,1,1,7,19,7,1,0,0,1,0,0,1,0,0,hexagon,circle,,,,,,,,,,,,,,,,,,,,,,,,,,,,,,,,,,,,,,,,,,,,,,,,,,,,,,
294196,2022-10-05_12h56.23.793,vts_reward_expectancy,2022.2.4,Win32,60.12867537,Chrome,1536,960,,,l,0.3714,1,309,1,1,8,20,8,1,0,0,1,0,0,0,0,1,hexagon,star,,,,,,,,,,,,,,,,,,,,,,,,,,,,,,,,,,,,,,,,,,,,,,,,,,,,,,
294196,2022-10-05_12h56.23.793,vts_reward_expectancy,2022.2.4,Win32,60.12867537,Chrome,1536,960,,,a,0.3839,1,310,1,1,9,21,4,1,0,1,0,0,0,0,1,0,circle,hexagon,,,,,,,,,,,,,,,,,,,,,,,,,,,,,,,,,,,,,,,,,,,,,,,,,,,,,,
294196,2022-10-05_12h56.23.793,vts_reward_expectancy,2022.2.4,Win32,60.12867537,Chrome,1536,960,,,l,0.6351,10,320,1,1,10,22,5,1,0,1,0,0,0,0,0,1,circle,star,,,,,,,,,,,,,,,,,,,,,,,,,,,,,,,,,,,,,,,,,,,,,,,,,,,,,,
294196,2022-10-05_12h56.23.793,vts_reward_expectancy,2022.2.4,Win32,60.12867537,Chrome,1536,960,,,l,0.3175,10,330,1,1,11,23,11,1,0,0,0,1,0,0,1,0,star,hexagon,,,,,,,,,,,,,,,,,,,,,,,,,,,,,,,,,,,,,,,,,,,,,,,,,,,,,,
294196,2022-10-05_12h56.23.793,vts_reward_expectancy,2022.2.4,Win32,60.12867537,Chrome,1536,960,,,a,0.6521,1,331,1,2,0,24,2,1,1,0,0,0,0,0,0,1,triangle,star,,,,,,,,,,,,,,,,,,,,,,,,,,,,,,,,,,,,,,,,,,,,,,,,,,,,,,
294196,2022-10-05_12h56.23.793,vts_reward_expectancy,2022.2.4,Win32,60.12867537,Chrome,1536,960,,,l,0.0333,10,341,1,2,1,25,10,1,0,0,0,1,0,1,0,0,star ,circle,,,,,,,,,,,,,,,,,,,,,,,,,,,,,,,,,,,,,,,,,,,,,,,,,,,,,,
294196,2022-10-05_12h56.23.793,vts_reward_expectancy,2022.2.4,Win32,60.12867537,Chrome,1536,960,,,l,0.1429,1,342,1,2,2,26,9,1,0,0,0,1,1,0,0,0,star,triangle,,,,,,,,,,,,,,,,,,,,,,,,,,,,,,,,,,,,,,,,,,,,,,,,,,,,,,
294196,2022-10-05_12h56.23.793,vts_reward_expectancy,2022.2.4,Win32,60.12867537,Chrome,1536,960,,,l,0.1055,10,352,1,2,3,27,4,1,0,1,0,0,0,0,1,0,circle,hexagon,,,,,,,,,,,,,,,,,,,,,,,,,,,,,,,,,,,,,,,,,,,,,,,,,,,,,,
294196,2022-10-05_12h56.23.793,vts_reward_expectancy,2022.2.4,Win32,60.12867537,Chrome,1536,960,,,l,0.0265,10,362,1,2,4,28,6,1,0,0,1,0,1,0,0,0,hexagon,triangle,,,,,,,,,,,,,,,,,,,,,,,,,,,,,,,,,,,,,,,,,,,,,,,,,,,,,,
294196,2022-10-05_12h56.23.793,vts_reward_expectancy,2022.2.4,Win32,60.12867537,Chrome,1536,960,,,l,0.0532,10,372,1,2,5,29,11,1,0,0,0,1,0,0,1,0,star,hexagon,,,,,,,,,,,,,,,,,,,,,,,,,,,,,,,,,,,,,,,,,,,,,,,,,,,,,,
294196,2022-10-05_12h56.23.793,vts_reward_expectancy,2022.2.4,Win32,60.12867537,Chrome,1536,960,,,l,0.1349,1,373,1,2,6,30,3,1,0,1,0,0,1,0,0,0,circle,triangle,,,,,,,,,,,,,,,,,,,,,,,,,,,,,,,,,,,,,,,,,,,,,,,,,,,,,,
294196,2022-10-05_12h56.23.793,vts_reward_expectancy,2022.2.4,Win32,60.12867537,Chrome,1536,960,,,l,0.1006,10,383,1,2,7,31,0,1,1,0,0,0,0,1,0,0,triangle,circle,,,,,,,,,,,,,,,,,,,,,,,,,,,,,,,,,,,,,,,,,,,,,,,,,,,,,,
294196,2022-10-05_12h56.23.793,vts_reward_expectancy,2022.2.4,Win32,60.12867537,Chrome,1536,960,,,a,0.0506,10,393,1,2,8,32,7,1,0,0,1,0,0,1,0,0,hexagon,circle,,,,,,,,,,,,,,,,,,,,,,,,,,,,,,,,,,,,,,,,,,,,,,,,,,,,,,
294196,2022-10-05_12h56.23.793,vts_reward_expectancy,2022.2.4,Win32,60.12867537,Chrome,1536,960,,,a,0.0224,1,394,1,2,9,33,1,1,1,0,0,0,0,0,1,0,triangle,hexagon,,,,,,,,,,,,,,,,,,,,,,,,,,,,,,,,,,,,,,,,,,,,,,,,,,,,,,
294196,2022-10-05_12h56.23.793,vts_reward_expectancy,2022.2.4,Win32,60.12867537,Chrome,1536,960,,,l,0.0147,10,404,1,2,10,34,5,1,0,1,0,0,0,0,0,1,circle,star,,,,,,,,,,,,,,,,,,,,,,,,,,,,,,,,,,,,,,,,,,,,,,,,,,,,,,
294196,2022-10-05_12h56.23.793,vts_reward_expectancy,2022.2.4,Win32,60.12867537,Chrome,1536,960,,,l,0.1542,1,405,1,2,11,35,8,1,0,0,1,0,0,0,0,1,hexagon,star,,,,,,,,,,,,,,,,,,,,,,,,,,,,,,,,,,,,,,,,,,,,,,,,,,,,,,
294196,2022-10-05_12h56.23.793,vts_reward_expectancy,2022.2.4,Win32,60.12867537,Chrome,1536,960,,,l,0.0819,1,406,2,0,0,0,4,1,0,1,0,0,0,0,1,0,circle,hexagon,,,,,,,,,,,,,,,,,,,,,,,,,,,,,,,,,,,,,,,,,,,,,,,,,,,,,,
294196,2022-10-05_12h56.23.793,vts_reward_expectancy,2022.2.4,Win32,60.12867537,Chrome,1536,960,,,a,0.1252,1,407,2,0,1,1,5,1,0,1,0,0,0,0,0,1,circle,star,,,,,,,,,,,,,,,,,,,,,,,,,,,,,,,,,,,,,,,,,,,,,,,,,,,,,,
294196,2022-10-05_12h56.23.793,vts_reward_expectancy,2022.2.4,Win32,60.12867537,Chrome,1536,960,,,l,0.0317,10,417,2,0,2,2,1,1,1,0,0,0,0,0,1,0,triangle,hexagon,,,,,,,,,,,,,,,,,,,,,,,,,,,,,,,,,,,,,,,,,,,,,,,,,,,,,,
294196,2022-10-05_12h56.23.793,vts_reward_expectancy,2022.2.4,Win32,60.12867537,Chrome,1536,960,,,a,0.0186,1,418,2,0,3,3,9,1,0,0,0,1,1,0,0,0,star,triangle,,,,,,,,,,,,,,,,,,,,,,,,,,,,,,,,,,,,,,,,,,,,,,,,,,,,,,
294196,2022-10-05_12h56.23.793,vts_reward_expectancy,2022.2.4,Win32,60.12867537,Chrome,1536,960,,,l,0.1002,10,428,2,0,4,4,11,1,0,0,0,1,0,0,1,0,star,hexagon,,,,,,,,,,,,,,,,,,,,,,,,,,,,,,,,,,,,,,,,,,,,,,,,,,,,,,
294196,2022-10-05_12h56.23.793,vts_reward_expectancy,2022.2.4,Win32,60.12867537,Chrome,1536,960,,,l,0.0936,1,429,2,0,5,5,6,1,0,0,1,0,1,0,0,0,hexagon,triangle,,,,,,,,,,,,,,,,,,,,,,,,,,,,,,,,,,,,,,,,,,,,,,,,,,,,,,
294196,2022-10-05_12h56.23.793,vts_reward_expectancy,2022.2.4,Win32,60.12867537,Chrome,1536,960,,,a,0.3562,1,430,2,0,6,6,7,1,0,0,1,0,0,1,0,0,hexagon,circle,,,,,,,,,,,,,,,,,,,,,,,,,,,,,,,,,,,,,,,,,,,,,,,,,,,,,,
294196,2022-10-05_12h56.23.793,vts_reward_expectancy,2022.2.4,Win32,60.12867537,Chrome,1536,960,,,a,0.0824,10,440,2,0,7,7,3,1,0,1,0,0,1,0,0,0,circle,triangle,,,,,,,,,,,,,,,,,,,,,,,,,,,,,,,,,,,,,,,,,,,,,,,,,,,,,,
294196,2022-10-05_12h56.23.793,vts_reward_expectancy,2022.2.4,Win32,60.12867537,Chrome,1536,960,,,l,0.1503,1,441,2,0,8,8,8,1,0,0,1,0,0,0,0,1,hexagon,star,,,,,,,,,,,,,,,,,,,,,,,,,,,,,,,,,,,,,,,,,,,,,,,,,,,,,,
294196,2022-10-05_12h56.23.793,vts_reward_expectancy,2022.2.4,Win32,60.12867537,Chrome,1536,960,,,l,0.0006,10,451,2,0,9,9,0,1,1,0,0,0,0,1,0,0,triangle,circle,,,,,,,,,,,,,,,,,,,,,,,,,,,,,,,,,,,,,,,,,,,,,,,,,,,,,,
294196,2022-10-05_12h56.23.793,vts_reward_expectancy,2022.2.4,Win32,60.12867537,Chrome,1536,960,,,l,0.0345,10,461,2,0,10,10,2,1,1,0,0,0,0,0,0,1,triangle,star,,,,,,,,,,,,,,,,,,,,,,,,,,,,,,,,,,,,,,,,,,,,,,,,,,,,,,
294196,2022-10-05_12h56.23.793,vts_reward_expectancy,2022.2.4,Win32,60.12867537,Chrome,1536,960,,,a,0.0418,10,471,2,0,11,11,10,1,0,0,0,1,0,1,0,0,star ,circle,,,,,,,,,,,,,,,,,,,,,,,,,,,,,,,,,,,,,,,,,,,,,,,,,,,,,,
294196,2022-10-05_12h56.23.793,vts_reward_expectancy,2022.2.4,Win32,60.12867537,Chrome,1536,960,,,l,0.1687,1,472,2,1,0,12,7,1,0,0,1,0,0,1,0,0,hexagon,circle,,,,,,,,,,,,,,,,,,,,,,,,,,,,,,,,,,,,,,,,,,,,,,,,,,,,,,
294196,2022-10-05_12h56.23.793,vts_reward_expectancy,2022.2.4,Win32,60.12867537,Chrome,1536,960,,,l,0.1979,1,473,2,1,1,13,3,1,0,1,0,0,1,0,0,0,circle,triangle,,,,,,,,,,,,,,,,,,,,,,,,,,,,,,,,,,,,,,,,,,,,,,,,,,,,,,
294196,2022-10-05_12h56.23.793,vts_reward_expectancy,2022.2.4,Win32,60.12867537,Chrome,1536,960,,,l,0.1855,1,474,2,1,2,14,5,1,0,1,0,0,0,0,0,1,circle,star,,,,,,,,,,,,,,,,,,,,,,,,,,,,,,,,,,,,,,,,,,,,,,,,,,,,,,
294196,2022-10-05_12h56.23.793,vts_reward_expectancy,2022.2.4,Win32,60.12867537,Chrome,1536,960,,,l,0.1654,10,484,2,1,3,15,1,1,1,0,0,0,0,0,1,0,triangle,hexagon,,,,,,,,,,,,,,,,,,,,,,,,,,,,,,,,,,,,,,,,,,,,,,,,,,,,,,
294196,2022-10-05_12h56.23.793,vts_reward_expectancy,2022.2.4,Win32,60.12867537,Chrome,1536,960,,,l,0.1074,1,485,2,1,4,16,6,1,0,0,1,0,1,0,0,0,hexagon,triangle,,,,,,,,,,,,,,,,,,,,,,,,,,,,,,,,,,,,,,,,,,,,,,,,,,,,,,
294196,2022-10-05_12h56.23.793,vts_reward_expectancy,2022.2.4,Win32,60.12867537,Chrome,1536,960,,,l,0.117,1,486,2,1,5,17,4,1,0,1,0,0,0,0,1,0,circle,hexagon,,,,,,,,,,,,,,,,,,,,,,,,,,,,,,,,,,,,,,,,,,,,,,,,,,,,,,
294196,2022-10-05_12h56.23.793,vts_reward_expectancy,2022.2.4,Win32,60.12867537,Chrome,1536,960,,,l,0.1014,1,487,2,1,6,18,2,1,1,0,0,0,0,0,0,1,triangle,star,,,,,,,,,,,,,,,,,,,,,,,,,,,,,,,,,,,,,,,,,,,,,,,,,,,,,,
294196,2022-10-05_12h56.23.793,vts_reward_expectancy,2022.2.4,Win32,60.12867537,Chrome,1536,960,,,l,0.0483,10,497,2,1,7,19,8,1,0,0,1,0,0,0,0,1,hexagon,star,,,,,,,,,,,,,,,,,,,,,,,,,,,,,,,,,,,,,,,,,,,,,,,,,,,,,,
294196,2022-10-05_12h56.23.793,vts_reward_expectancy,2022.2.4,Win32,60.12867537,Chrome,1536,960,,,l,0.0076,1,498,2,1,8,20,0,1,1,0,0,0,0,1,0,0,triangle,circle,,,,,,,,,,,,,,,,,,,,,,,,,,,,,,,,,,,,,,,,,,,,,,,,,,,,,,
294196,2022-10-05_12h56.23.793,vts_reward_expectancy,2022.2.4,Win32,60.12867537,Chrome,1536,960,,,l,0.0355,10,508,2,1,9,21,10,1,0,0,0,1,0,1,0,0,star ,circle,,,,,,,,,,,,,,,,,,,,,,,,,,,,,,,,,,,,,,,,,,,,,,,,,,,,,,
294196,2022-10-05_12h56.23.793,vts_reward_expectancy,2022.2.4,Win32,60.12867537,Chrome,1536,960,,,a,0.0004,10,518,2,1,10,22,11,1,0,0,0,1,0,0,1,0,star,hexagon,,,,,,,,,,,,,,,,,,,,,,,,,,,,,,,,,,,,,,,,,,,,,,,,,,,,,,
294196,2022-10-05_12h56.23.793,vts_reward_expectancy,2022.2.4,Win32,60.12867537,Chrome,1536,960,,,l,0.1845,1,519,2,1,11,23,9,1,0,0,0,1,1,0,0,0,star,triangle,,,,,,,,,,,,,,,,,,,,,,,,,,,,,,,,,,,,,,,,,,,,,,,,,,,,,,
294196,2022-10-05_12h56.23.793,vts_reward_expectancy,2022.2.4,Win32,60.12867537,Chrome,1536,960,,,a,0.1044,1,520,2,2,0,24,10,1,0,0,0,1,0,1,0,0,star ,circle,,,,,,,,,,,,,,,,,,,,,,,,,,,,,,,,,,,,,,,,,,,,,,,,,,,,,,
294196,2022-10-05_12h56.23.793,vts_reward_expectancy,2022.2.4,Win32,60.12867537,Chrome,1536,960,,,l,0.0882,1,521,2,2,1,25,8,1,0,0,1,0,0,0,0,1,hexagon,star,,,,,,,,,,,,,,,,,,,,,,,,,,,,,,,,,,,,,,,,,,,,,,,,,,,,,,
294196,2022-10-05_12h56.23.793,vts_reward_expectancy,2022.2.4,Win32,60.12867537,Chrome,1536,960,,,l,0.017,10,531,2,2,2,26,1,1,1,0,0,0,0,0,1,0,triangle,hexagon,,,,,,,,,,,,,,,,,,,,,,,,,,,,,,,,,,,,,,,,,,,,,,,,,,,,,,
294196,2022-10-05_12h56.23.793,vts_reward_expectancy,2022.2.4,Win32,60.12867537,Chrome,1536,960,,,a,0.382,10,541,2,2,3,27,9,1,0,0,0,1,1,0,0,0,star,triangle,,,,,,,,,,,,,,,,,,,,,,,,,,,,,,,,,,,,,,,,,,,,,,,,,,,,,,
294196,2022-10-05_12h56.23.793,vts_reward_expectancy,2022.2.4,Win32,60.12867537,Chrome,1536,960,,,l,0.4893,1,542,2,2,4,28,6,1,0,0,1,0,1,0,0,0,hexagon,triangle,,,,,,,,,,,,,,,,,,,,,,,,,,,,,,,,,,,,,,,,,,,,,,,,,,,,,,
294196,2022-10-05_12h56.23.793,vts_reward_expectancy,2022.2.4,Win32,60.12867537,Chrome,1536,960,,,l,0.4991,10,552,2,2,5,29,7,1,0,0,1,0,0,1,0,0,hexagon,circle,,,,,,,,,,,,,,,,,,,,,,,,,,,,,,,,,,,,,,,,,,,,,,,,,,,,,,
294196,2022-10-05_12h56.23.793,vts_reward_expectancy,2022.2.4,Win32,60.12867537,Chrome,1536,960,,,l,0.791,1,553,2,2,6,30,11,1,0,0,0,1,0,0,1,0,star,hexagon,,,,,,,,,,,,,,,,,,,,,,,,,,,,,,,,,,,,,,,,,,,,,,,,,,,,,,
294196,2022-10-05_12h56.23.793,vts_reward_expectancy,2022.2.4,Win32,60.12867537,Chrome,1536,960,,,a,0.4081,1,554,2,2,7,31,3,1,0,1,0,0,1,0,0,0,circle,triangle,,,,,,,,,,,,,,,,,,,,,,,,,,,,,,,,,,,,,,,,,,,,,,,,,,,,,,
294196,2022-10-05_12h56.23.793,vts_reward_expectancy,2022.2.4,Win32,60.12867537,Chrome,1536,960,,,l,1.1039,10,564,2,2,8,32,5,1,0,1,0,0,0,0,0,1,circle,star,,,,,,,,,,,,,,,,,,,,,,,,,,,,,,,,,,,,,,,,,,,,,,,,,,,,,,
294196,2022-10-05_12h56.23.793,vts_reward_expectancy,2022.2.4,Win32,60.12867537,Chrome,1536,960,,,a,4.4023,10,574,2,2,9,33,4,1,0,1,0,0,0,0,1,0,circle,hexagon,,,,,,,,,,,,,,,,,,,,,,,,,,,,,,,,,,,,,,,,,,,,,,,,,,,,,,
294196,2022-10-05_12h56.23.793,vts_reward_expectancy,2022.2.4,Win32,60.12867537,Chrome,1536,960,,,a,5.8126,1,575,2,2,10,34,0,1,1,0,0,0,0,1,0,0,triangle,circle,,,,,,,,,,,,,,,,,,,,,,,,,,,,,,,,,,,,,,,,,,,,,,,,,,,,,,
294196,2022-10-05_12h56.23.793,vts_reward_expectancy,2022.2.4,Win32,60.12867537,Chrome,1536,960,,,l,2.001,10,585,2,2,11,35,2,1,1,0,0,0,0,0,0,1,triangle,star,,,,,,,,,,,,,,,,,,,,,,,,,,,,,,,,,,,,,,,,,,,,,,,,,,,,,,
294196,2022-10-05_12h56.23.793,vts_reward_expectancy,2022.2.4,Win32,60.12867537,Chrome,1536,960,,,,,,,,,,,,,,,,,,,,,,,167,H,hexagon,0,0,d,2.5693,0,0,0,0,0,1,,,,,,,,,,,,,,,,,,,,,,,,,,,,,,,,,,,,,,,,,
294196,2022-10-05_12h56.23.793,vts_reward_expectancy,2022.2.4,Win32,60.12867537,Chrome,1536,960,,,,,,,,,,,,,,,,,,,,,,,132,S,star,1,1,d,0.9867,0,1,0,1,0,1,,,,,,,,,,,,,,,,,,,,,,,,,,,,,,,,,,,,,,,,,
294196,2022-10-05_12h56.23.793,vts_reward_expectancy,2022.2.4,Win32,60.12867537,Chrome,1536,960,,,,,,,,,,,,,,,,,,,,,,,146,F,triangle,1,0,d,0.6865,0,2,0,2,0,1,,,,,,,,,,,,,,,,,,,,,,,,,,,,,,,,,,,,,,,,,
294196,2022-10-05_12h56.23.793,vts_reward_expectancy,2022.2.4,Win32,60.12867537,Chrome,1536,960,,,,,,,,,,,,,,,,,,,,,,,139,Y,circle,1,0,d,1.1289,0,3,0,3,0,1,,,,,,,,,,,,,,,,,,,,,,,,,,,,,,,,,,,,,,,,,
294196,2022-10-05_12h56.23.793,vts_reward_expectancy,2022.2.4,Win32,60.12867537,Chrome,1536,960,,,,,,,,,,,,,,,,,,,,,,,181,U,hexagon,1,0,f,0.6624,0,4,0,4,0,1,,,,,,,,,,,,,,,,,,,,,,,,,,,,,,,,,,,,,,,,,
294196,2022-10-05_12h56.23.793,vts_reward_expectancy,2022.2.4,Win32,60.12867537,Chrome,1536,960,,,,,,,,,,,,,,,,,,,,,,,160,D,star,1,0,f,1.286,0,5,0,5,0,1,,,,,,,,,,,,,,,,,,,,,,,,,,,,,,,,,,,,,,,,,
294196,2022-10-05_12h56.23.793,vts_reward_expectancy,2022.2.4,Win32,60.12867537,Chrome,1536,960,,,,,,,,,,,,,,,,,,,,,,,174,W,triangle,1,0,f,0.8375,0,6,0,6,0,1,,,,,,,,,,,,,,,,,,,,,,,,,,,,,,,,,,,,,,,,,
294196,2022-10-05_12h56.23.793,vts_reward_expectancy,2022.2.4,Win32,60.12867537,Chrome,1536,960,,,,,,,,,,,,,,,,,,,,,,,125,B,circle,1,0,d,0.5836,0,7,0,7,0,1,,,,,,,,,,,,,,,,,,,,,,,,,,,,,,,,,,,,,,,,,
294196,2022-10-05_12h56.23.793,vts_reward_expectancy,2022.2.4,Win32,60.12867537,Chrome,1536,960,,,,,,,,,,,,,,,,,,,,,,,167,H,triangle,1,0,f,0.5994,0,8,0,8,0,1,,,,,,,,,,,,,,,,,,,,,,,,,,,,,,,,,,,,,,,,,
294196,2022-10-05_12h56.23.793,vts_reward_expectancy,2022.2.4,Win32,60.12867537,Chrome,1536,960,,,,,,,,,,,,,,,,,,,,,,,132,S,hexagon,1,0,d,0.6712,0,9,0,9,0,1,,,,,,,,,,,,,,,,,,,,,,,,,,,,,,,,,,,,,,,,,
294196,2022-10-05_12h56.23.793,vts_reward_expectancy,2022.2.4,Win32,60.12867537,Chrome,1536,960,,,,,,,,,,,,,,,,,,,,,,,132,S,circle,0,0,,,1,,,,,,,0,0,0,0,1,,,,,,,,,,,,,,,,,,,,,,,,,,,,,,,,,,,
294196,2022-10-05_12h56.23.793,vts_reward_expectancy,2022.2.4,Win32,60.12867537,Chrome,1536,960,,,,,,,,,,,,,,,,,,,,,,,160,F,hexagon,1,1,,,1,,,,,,j,1,0,1,0,1,0.8121,,,,,,,,,,,,,,,,,,,,,,,,,,,,,,,,,,
294196,2022-10-05_12h56.23.793,vts_reward_expectancy,2022.2.4,Win32,60.12867537,Chrome,1536,960,,,,,,,,,,,,,,,,,,,,,,,167,W,triangle,1,0,,,1,,,,,,k,2,0,2,0,1,0.6372,,,,,,,,,,,,,,,,,,,,,,,,,,,,,,,,,,
294196,2022-10-05_12h56.23.793,vts_reward_expectancy,2022.2.4,Win32,60.12867537,Chrome,1536,960,,,,,,,,,,,,,,,,,,,,,,,125,U,star,1,0,,,1,,,,,,k,3,0,3,0,1,0.7734,,,,,,,,,,,,,,,,,,,,,,,,,,,,,,,,,,
294196,2022-10-05_12h56.23.793,vts_reward_expectancy,2022.2.4,Win32,60.12867537,Chrome,1536,960,,,,,,,,,,,,,,,,,,,,,,,139,Y,circle,1,0,,,1,,,,,,k,4,0,4,0,1,1.0125,,,,,,,,,,,,,,,,,,,,,,,,,,,,,,,,,,
294196,2022-10-05_12h56.23.793,vts_reward_expectancy,2022.2.4,Win32,60.12867537,Chrome,1536,960,,,,,,,,,,,,,,,,,,,,,,,174,B,hexagon,1,0,,,1,,,,,,j,5,0,5,0,1,0.5165,,,,,,,,,,,,,,,,,,,,,,,,,,,,,,,,,,
294196,2022-10-05_12h56.23.793,vts_reward_expectancy,2022.2.4,Win32,60.12867537,Chrome,1536,960,,,,,,,,,,,,,,,,,,,,,,,181,H,triangle,0,0,,,1,,,,,,k,6,0,6,0,1,1.0164,,,,,,,,,,,,,,,,,,,,,,,,,,,,,,,,,,
294196,2022-10-05_12h56.23.793,vts_reward_expectancy,2022.2.4,Win32,60.12867537,Chrome,1536,960,,,,,,,,,,,,,,,,,,,,,,,146,D,star,1,1,,,1,,,,,,j,7,0,7,0,1,0.7562,,,,,,,,,,,,,,,,,,,,,,,,,,,,,,,,,,
294196,2022-10-05_12h56.23.793,vts_reward_expectancy,2022.2.4,Win32,60.12867537,Chrome,1536,960,,,,,,,,,,,,,,,,,,,,,,,132,S,triangle,0,0,,,1,,,,,,j,8,0,8,0,1,1.8988,,,,,,,,,,,,,,,,,,,,,,,,,,,,,,,,,,
294196,2022-10-05_12h56.23.793,vts_reward_expectancy,2022.2.4,Win32,60.12867537,Chrome,1536,960,,,,,,,,,,,,,,,,,,,,,,,160,F,circle,0,1,,,1,,,,,,,9,0,9,0,1,,,,,,,,,,,,,,,,,,,,,,,,,,,,,,,,,,,
294196,2022-10-05_12h56.23.793,vts_reward_expectancy,2022.2.4,Win32,60.12867537,Chrome,1536,960,,,,,,,,,,,,,,,,,,,,,,,160,H,star,1,1,,,2,,,,,,j,0,0,0,0,1,0.87,,,,,,,,,,,,,,,,,,,,,,,,,,,,,,,,,,
294196,2022-10-05_12h56.23.793,vts_reward_expectancy,2022.2.4,Win32,60.12867537,Chrome,1536,960,,,,,,,,,,,,,,,,,,,,,,,167,W,triangle,1,0,,,2,,,,,,k,1,0,1,0,1,0.6326,,,,,,,,,,,,,,,,,,,,,,,,,,,,,,,,,,
294196,2022-10-05_12h56.23.793,vts_reward_expectancy,2022.2.4,Win32,60.12867537,Chrome,1536,960,,,,,,,,,,,,,,,,,,,,,,,181,D,hexagon,1,0,,,2,,,,,,j,2,0,2,0,1,0.6373,,,,,,,,,,,,,,,,,,,,,,,,,,,,,,,,,,
294196,2022-10-05_12h56.23.793,vts_reward_expectancy,2022.2.4,Win32,60.12867537,Chrome,1536,960,,,,,,,,,,,,,,,,,,,,,,,125,S,circle,1,0,,,2,,,,,,k,3,0,3,0,1,0.8194,,,,,,,,,,,,,,,,,,,,,,,,,,,,,,,,,,
294196,2022-10-05_12h56.23.793,vts_reward_expectancy,2022.2.4,Win32,60.12867537,Chrome,1536,960,,,,,,,,,,,,,,,,,,,,,,,139,U,star,1,0,,,2,,,,,,k,4,0,4,0,1,0.6963,,,,,,,,,,,,,,,,,,,,,,,,,,,,,,,,,,
294196,2022-10-05_12h56.23.793,vts_reward_expectancy,2022.2.4,Win32,60.12867537,Chrome,1536,960,,,,,,,,,,,,,,,,,,,,,,,174,F,triangle,1,0,,,2,,,,,,j,5,0,5,0,1,1.0024,,,,,,,,,,,,,,,,,,,,,,,,,,,,,,,,,,
294196,2022-10-05_12h56.23.793,vts_reward_expectancy,2022.2.4,Win32,60.12867537,Chrome,1536,960,,,,,,,,,,,,,,,,,,,,,,,146,B,hexagon,1,0,,,2,,,,,,j,6,0,6,0,1,0.8642,,,,,,,,,,,,,,,,,,,,,,,,,,,,,,,,,,
294196,2022-10-05_12h56.23.793,vts_reward_expectancy,2022.2.4,Win32,60.12867537,Chrome,1536,960,,,,,,,,,,,,,,,,,,,,,,,132,Y,circle,1,0,,,2,,,,,,k,7,0,7,0,1,0.7964,,,,,,,,,,,,,,,,,,,,,,,,,,,,,,,,,,
294196,2022-10-05_12h56.23.793,vts_reward_expectancy,2022.2.4,Win32,60.12867537,Chrome,1536,960,,,,,,,,,,,,,,,,,,,,,,,160,H,hexagon,1,0,,,2,,,,,,j,8,0,8,0,1,1.2353,,,,,,,,,,,,,,,,,,,,,,,,,,,,,,,,,,
294196,2022-10-05_12h56.23.793,vts_reward_expectancy,2022.2.4,Win32,60.12867537,Chrome,1536,960,,,,,,,,,,,,,,,,,,,,,,,167,W,triangle,1,0,,,2,,,,,,k,9,0,9,0,1,0.7478,,,,,,,,,,,,,,,,,,,,,,,,,,,,,,,,,,
294196,2022-10-05_12h56.23.793,vts_reward_expectancy,2022.2.4,Win32,60.12867537,Chrome,1536,960,,,,,0,585,,,,,,,,,,,,,,,,,125,Y,hexagon,-1,0,,,3,,,,,,,,,,,,,-1,no_choice,NA,,vtsPrac,0,0,0,0,1,,,,,,,,,,,,,,,,,,,,,,,,
294196,2022-10-05_12h56.23.793,vts_reward_expectancy,2022.2.4,Win32,60.12867537,Chrome,1536,960,,,,,0,585,,,,,,,,,,,,,,,,,139,H,circle,1,0,,,3,,,,,,,,,,,,,switch,letter,lettSwt,j,vtsPrac,1,0,1,0,1,0.6026,,,,,,,,,,,,,,,,,,,,,,,
294196,2022-10-05_12h56.23.793,vts_reward_expectancy,2022.2.4,Win32,60.12867537,Chrome,1536,960,,,,,0,585,,,,,,,,,,,,,,,,,146,W,hexagon,0,0,,,3,,,,,,,,,,,,,switch,number,NA,f,vtsPrac,2,0,2,0,1,0.4459,,,,,,,,,,,,,,,,,,,,,,,
294196,2022-10-05_12h56.23.793,vts_reward_expectancy,2022.2.4,Win32,60.12867537,Chrome,1536,960,,,,,0,585,,,,,,,,,,,,,,,,,167,B,circle,1,1,,,3,,,,,,,,,,,,,switch,letter,lettSwt,j,vtsPrac,3,0,3,0,1,0.9383,,,,,,,,,,,,,,,,,,,,,,,
294196,2022-10-05_12h56.23.793,vts_reward_expectancy,2022.2.4,Win32,60.12867537,Chrome,1536,960,,,,,0,585,,,,,,,,,,,,,,,,,125,Y,circle,1,0,,,3,,,,,,,,,,,,,switch,number,numSwt,d,vtsPrac,4,0,4,0,1,0.7137,,,,,,,,,,,,,,,,,,,,,,,
294196,2022-10-05_12h56.23.793,vts_reward_expectancy,2022.2.4,Win32,60.12867537,Chrome,1536,960,,,,,0,585,,,,,,,,,,,,,,,,,139,H,hexagon,1,0,,,3,,,,,,,,,,,,,switch,letter,lettSwt,j,vtsPrac,5,0,5,0,1,0.8807,,,,,,,,,,,,,,,,,,,,,,,
294196,2022-10-05_12h56.23.793,vts_reward_expectancy,2022.2.4,Win32,60.12867537,Chrome,1536,960,,,,,0,585,,,,,,,,,,,,,,,,,146,W,circle,1,0,,,3,,,,,,,,,,,,,repeat,letter,lettRpt,k,vtsPrac,6,0,6,0,1,1.3977,,,,,,,,,,,,,,,,,,,,,,,
294196,2022-10-05_12h56.23.793,vts_reward_expectancy,2022.2.4,Win32,60.12867537,Chrome,1536,960,,,,,0,585,,,,,,,,,,,,,,,,,167,B,triangle,1,0,,,3,,,,,,,,,,,,,switch,number,numSwt,f,vtsPrac,7,0,7,0,1,0.6377,,,,,,,,,,,,,,,,,,,,,,,
294196,2022-10-05_12h56.23.793,vts_reward_expectancy,2022.2.4,Win32,60.12867537,Chrome,1536,960,,,,,0,585,,,,,,,,,,,,,,,,,139,U,star,1,0,,,3,,,,,,,,,,,,,switch,letter,lettSwt,k,vtsPrac,8,0,8,0,1,1.4643,,,,,,,,,,,,,,,,,,,,,,,
294196,2022-10-05_12h56.23.793,vts_reward_expectancy,2022.2.4,Win32,60.12867537,Chrome,1536,960,,,,,0,585,,,,,,,,,,,,,,,,,160,D,hexagon,1,0,,,3,,,,,,,,,,,,,repeat,letter,lettRpt,j,vtsPrac,9,0,9,0,1,0.8382,,,,,,,,,,,,,,,,,,,,,,,
294196,2022-10-05_12h56.23.793,vts_reward_expectancy,2022.2.4,Win32,60.12867537,Chrome,1536,960,,,,,0,585,,,,,,,,,,,,,,,,,181,W,star,1,0,,,3,,,,,,,,,,,,,switch,number,numSwt,f,vtsPrac,10,0,10,0,1,0.9471,,,,,,,,,,,,,,,,,,,,,,,
294196,2022-10-05_12h56.23.793,vts_reward_expectancy,2022.2.4,Win32,60.12867537,Chrome,1536,960,,,,,0,585,,,,,,,,,,,,,,,,,167,Y,triangle,1,0,,,3,,,,,,,,,,,,,switch,letter,lettSwt,k,vtsPrac,11,0,11,0,1,1.749,,,,,,,,,,,,,,,,,,,,,,,
294196,2022-10-05_12h56.23.793,vts_reward_expectancy,2022.2.4,Win32,60.12867537,Chrome,1536,960,,,,,0,585,,,,,,,,,,,,,,,,,139,S,hexagon,1,0,,,3,,,,,,,,,,,,,switch,number,numSwt,d,vtsPrac,12,0,12,0,1,0.7802,,,,,,,,,,,,,,,,,,,,,,,
294196,2022-10-05_12h56.23.793,vts_reward_expectancy,2022.2.4,Win32,60.12867537,Chrome,1536,960,,,,,0,585,,,,,,,,,,,,,,,,,125,Y,star,1,0,,,3,,,,,,,,,,,,,repeat,number,numRpt,d,vtsPrac,13,0,13,0,1,0.7811,,,,,,,,,,,,,,,,,,,,,,,
294196,2022-10-05_12h56.23.793,vts_reward_expectancy,2022.2.4,Win32,60.12867537,Chrome,1536,960,,,,,0,585,,,,,,,,,,,,,,,,,167,U,triangle,1,0,,,3,,,,,,,,,,,,,repeat,number,numRpt,f,vtsPrac,14,0,14,0,1,0.6546,,,,,,,,,,,,,,,,,,,,,,,
294196,2022-10-05_12h56.23.793,vts_reward_expectancy,2022.2.4,Win32,60.12867537,Chrome,1536,960,,,,,0,585,,,,,,,,,,,,,,,,,146,F,star,1,0,,,3,,,,,,,,,,,,,repeat,number,numRpt,d,vtsPrac,15,0,15,0,1,0.9994,,,,,,,,,,,,,,,,,,,,,,,
294196,2022-10-05_12h56.23.793,vts_reward_expectancy,2022.2.4,Win32,60.12867537,Chrome,1536,960,,,,,,,,,,,,,,,,,,,,,,,,,,,,,,,,,,,,,,,,,,,,,,,,,,,,,,,,,,,,,,,,,,,,,,,,,,,,
294196,2022-10-05_12h56.23.793,vts_reward_expectancy,2022.2.4,Win32,60.12867537,Chrome,1536,960,,,,,,,,,,,,,,,,,,,,,,,,,,,,,,,,,,,,,,,,,,,,,,,,,,,,,,,,,,,,,,,,,,,,,,,,,,,,
294196,2022-10-05_12h56.23.793,vts_reward_expectancy,2022.2.4,Win32,60.12867537,Chrome,1536,960,,,,,0,585,,,,,,,,,,,,,,,,,146,Y,circle,0,0,,,,,,,,,,,,,,,,repeat,number,NA,f,noRew,,,,,,0.6011,0,0,0,0,0,1,,,,,,,,,,,,,,,,,
294196,2022-10-05_12h56.23.793,vts_reward_expectancy,2022.2.4,Win32,60.12867537,Chrome,1536,960,,,,,0,585,,,,,,,,,,,,,,,,,132,U,star,1,1,,,,,,,,,,,,,,,,repeat,number,numRpt,d,noRew,,,,,,1.2189,0,1,0,1,0,1,,,,,,,,,,,,,,,,,
294196,2022-10-05_12h56.23.793,vts_reward_expectancy,2022.2.4,Win32,60.12867537,Chrome,1536,960,,,,,0,585,,,,,,,,,,,,,,,,,160,B,circle,0,0,,,,,,,,,,,,,,,,switch,letter,NA,k,noRew,,,,,,0.7938,0,2,0,2,0,1,,,,,,,,,,,,,,,,,
294196,2022-10-05_12h56.23.793,vts_reward_expectancy,2022.2.4,Win32,60.12867537,Chrome,1536,960,,,,,0,585,,,,,,,,,,,,,,,,,174,D,star,1,1,,,,,,,,,,,,,,,,switch,number,numSwt,f,noRew,,,,,,0.9345,0,3,0,3,0,1,,,,,,,,,,,,,,,,,
294196,2022-10-05_12h56.23.793,vts_reward_expectancy,2022.2.4,Win32,60.12867537,Chrome,1536,960,,,,,0,585,,,,,,,,,,,,,,,,,146,Y,circle,1,0,,,,,,,,,,,,,,,,switch,letter,lettSwt,k,noRew,,,,,,1.2018,0,4,0,4,0,1,,,,,,,,,,,,,,,,,
294196,2022-10-05_12h56.23.793,vts_reward_expectancy,2022.2.4,Win32,60.12867537,Chrome,1536,960,,,,,0,585,,,,,,,,,,,,,,,,,132,U,star,1,0,,,,,,,,,,,,,,,,switch,number,numSwt,d,noRew,,,,,,0.7373,0,5,0,5,0,1,,,,,,,,,,,,,,,,,
294196,2022-10-05_12h56.23.793,vts_reward_expectancy,2022.2.4,Win32,60.12867537,Chrome,1536,960,,,,,0,585,,,,,,,,,,,,,,,,,160,B,star,0,0,,,,,,,,,,,,,,,,switch,letter,NA,k,noRew,,,,,,2.9408,0,6,0,6,0,1,,,,,,,,,,,,,,,,,
294196,2022-10-05_12h56.23.793,vts_reward_expectancy,2022.2.4,Win32,60.12867537,Chrome,1536,960,,,,,0,585,,,,,,,,,,,,,,,,,174,D,triangle,1,1,,,,,,,,,,,,,,,,repeat,letter,lettRpt,j,noRew,,,,,,2.0901,0,7,0,7,0,1,,,,,,,,,,,,,,,,,
294196,2022-10-05_12h56.23.793,vts_reward_expectancy,2022.2.4,Win32,60.12867537,Chrome,1536,960,,,,,0,585,,,,,,,,,,,,,,,,,132,F,triangle,1,0,,,,,,,,,,,,,,,,switch,number,numSwt,d,noRew,,,,,,0.8853,0,8,0,8,0,1,,,,,,,,,,,,,,,,,
294196,2022-10-05_12h56.23.793,vts_reward_expectancy,2022.2.4,Win32,60.12867537,Chrome,1536,960,,,,,0,585,,,,,,,,,,,,,,,,,139,U,circle,1,0,,,,,,,,,,,,,,,,repeat,number,numRpt,d,noRew,,,,,,0.8278,0,9,0,9,0,1,,,,,,,,,,,,,,,,,
294196,2022-10-05_12h56.23.793,vts_reward_expectancy,2022.2.4,Win32,60.12867537,Chrome,1536,960,,,,,0,585,,,,,,,,,,,,,,,,,125,W,circle,0,0,,,,,,,,,,,,,,,,switch,letter,NA,j,noRew,,,,,,0.7346,0,10,0,10,0,1,,,,,,,,,,,,,,,,,
294196,2022-10-05_12h56.23.793,vts_reward_expectancy,2022.2.4,Win32,60.12867537,Chrome,1536,960,,,,,0,585,,,,,,,,,,,,,,,,,146,B,triangle,1,1,,,,,,,,,,,,,,,,switch,number,numSwt,d,noRew,,,,,,1.0184,0,11,0,11,0,1,,,,,,,,,,,,,,,,,
294196,2022-10-05_12h56.23.793,vts_reward_expectancy,2022.2.4,Win32,60.12867537,Chrome,1536,960,,,,,0,585,,,,,,,,,,,,,,,,,146,W,circle,1,0,,,,,,,,,,,,,,,,switch,letter,lettSwt,k,noRew,,,,,,2.4347,0,12,0,12,0,1,,,,,,,,,,,,,,,,,
294196,2022-10-05_12h56.23.793,vts_reward_expectancy,2022.2.4,Win32,60.12867537,Chrome,1536,960,,,,,0,585,,,,,,,,,,,,,,,,,181,S,triangle,1,0,,,,,,,,,,,,,,,,switch,number,numSwt,f,noRew,,,,,,0.967,0,13,0,13,0,1,,,,,,,,,,,,,,,,,
294196,2022-10-05_12h56.23.793,vts_reward_expectancy,2022.2.4,Win32,60.12867537,Chrome,1536,960,,,,,0,585,,,,,,,,,,,,,,,,,125,B,hexagon,1,0,,,,,,,,,,,,,,,,repeat,number,numRpt,d,noRew,,,,,,1.6023,0,14,0,14,0,1,,,,,,,,,,,,,,,,,
294196,2022-10-05_12h56.23.793,vts_reward_expectancy,2022.2.4,Win32,60.12867537,Chrome,1536,960,,,,,0,585,,,,,,,,,,,,,,,,,160,H,star,1,0,,,,,,,,,,,,,,,,repeat,number,numRpt,f,noRew,,,,,,1.8696,0,15,0,15,0,1,,,,,,,,,,,,,,,,,
294196,2022-10-05_12h56.23.793,vts_reward_expectancy,2022.2.4,Win32,60.12867537,Chrome,1536,960,,,,,0,585,,,,,,,,,,,,,,,,,181,H,triangle,1,0,,,,,,,,,,,,,,,,switch,letter,lettSwt,j,noRew,,,,,,1.5235,0,16,0,16,0,1,,,,,,,,,,,,,,,,,
294196,2022-10-05_12h56.23.793,vts_reward_expectancy,2022.2.4,Win32,60.12867537,Chrome,1536,960,,,,,0,585,,,,,,,,,,,,,,,,,139,U,hexagon,1,0,,,,,,,,,,,,,,,,repeat,letter,lettRpt,k,noRew,,,,,,0.7068,0,17,0,17,0,1,,,,,,,,,,,,,,,,,
294196,2022-10-05_12h56.23.793,vts_reward_expectancy,2022.2.4,Win32,60.12867537,Chrome,1536,960,,,,,0,585,,,,,,,,,,,,,,,,,160,W,triangle,1,0,,,,,,,,,,,,,,,,switch,number,numSwt,f,noRew,,,,,,1.583,0,18,0,18,0,1,,,,,,,,,,,,,,,,,
294196,2022-10-05_12h56.23.793,vts_reward_expectancy,2022.2.4,Win32,60.12867537,Chrome,1536,960,,,,,0,585,,,,,,,,,,,,,,,,,146,Y,circle,0,0,,,,,,,,,,,,,,,,repeat,number,NA,f,noRew,,,,,,1.3403,0,19,0,19,0,1,,,,,,,,,,,,,,,,,
294196,2022-10-05_12h56.23.793,vts_reward_expectancy,2022.2.4,Win32,60.12867537,Chrome,1536,960,,,,,0,585,,,,,,,,,,,,,,,,,146,W,hexagon,1,1,,,,,,,,,,,,,,,,repeat,number,numRpt,d,noRew,,,,,,2.2525,0,20,0,20,0,1,,,,,,,,,,,,,,,,,
294196,2022-10-05_12h56.23.793,vts_reward_expectancy,2022.2.4,Win32,60.12867537,Chrome,1536,960,,,,,0,585,,,,,,,,,,,,,,,,,181,H,circle,-1,0,,,,,,,,,,,,,,,,switch,no_choice,NA,,noRew,,,,,,,0,21,0,21,0,1,,,,,,,,,,,,,,,,,
294196,2022-10-05_12h56.23.793,vts_reward_expectancy,2022.2.4,Win32,60.12867537,Chrome,1536,960,,,,,0,585,,,,,,,,,,,,,,,,,139,Y,circle,1,0,,,,,,,,,,,,,,,,switch,number,numSwt,d,noRew,,,,,,0.7181,0,22,0,22,0,1,,,,,,,,,,,,,,,,,
294196,2022-10-05_12h56.23.793,vts_reward_expectancy,2022.2.4,Win32,60.12867537,Chrome,1536,960,,,,,0,585,,,,,,,,,,,,,,,,,125,U,hexagon,1,0,,,,,,,,,,,,,,,,repeat,number,numRpt,d,noRew,,,,,,0.8929,0,23,0,23,0,1,,,,,,,,,,,,,,,,,
294196,2022-10-05_12h56.23.793,vts_reward_expectancy,2022.2.4,Win32,60.12867537,Chrome,1536,960,,,,,0,585,,,,,,,,,,,,,,,,,132,U,triangle,1,0,,,,,,,,,,,,,,,,repeat,number,numRpt,d,noRew,,,,,,0.9517,0,24,0,24,0,1,,,,,,,,,,,,,,,,,
294196,2022-10-05_12h56.23.793,vts_reward_expectancy,2022.2.4,Win32,60.12867537,Chrome,1536,960,,,,,0,585,,,,,,,,,,,,,,,,,174,F,star,1,0,,,,,,,,,,,,,,,,switch,letter,lettSwt,j,noRew,,,,,,1.168,0,25,0,25,0,1,,,,,,,,,,,,,,,,,
294196,2022-10-05_12h56.23.793,vts_reward_expectancy,2022.2.4,Win32,60.12867537,Chrome,1536,960,,,,,0,585,,,,,,,,,,,,,,,,,146,S,hexagon,1,0,,,,,,,,,,,,,,,,switch,number,numSwt,d,noRew,,,,,,0.9513,0,26,0,26,0,1,,,,,,,,,,,,,,,,,
294196,2022-10-05_12h56.23.793,vts_reward_expectancy,2022.2.4,Win32,60.12867537,Chrome,1536,960,,,,,0,585,,,,,,,,,,,,,,,,,125,H,triangle,1,0,,,,,,,,,,,,,,,,repeat,number,numRpt,d,noRew,,,,,,1.0012,0,27,0,27,0,1,,,,,,,,,,,,,,,,,
294196,2022-10-05_12h56.23.793,vts_reward_expectancy,2022.2.4,Win32,60.12867537,Chrome,1536,960,,,,,0,585,,,,,,,,,,,,,,,,,125,H,circle,1,0,,,,,,,,,,,,,,,,switch,letter,lettSwt,j,noRew,,,,,,0.7056,0,28,0,28,0,1,,,,,,,,,,,,,,,,,
294196,2022-10-05_12h56.23.793,vts_reward_expectancy,2022.2.4,Win32,60.12867537,Chrome,1536,960,,,,,0,585,,,,,,,,,,,,,,,,,132,U,triangle,1,0,,,,,,,,,,,,,,,,repeat,letter,lettRpt,k,noRew,,,,,,0.9019,0,29,0,29,0,1,,,,,,,,,,,,,,,,,
294196,2022-10-05_12h56.23.793,vts_reward_expectancy,2022.2.4,Win32,60.12867537,Chrome,1536,960,,,,,0,585,,,,,,,,,,,,,,,,,167,S,triangle,1,0,,,,,,,,,,,,,,,,switch,number,numSwt,f,noRew,,,,,,0.7757,0,30,0,30,0,1,,,,,,,,,,,,,,,,,
294196,2022-10-05_12h56.23.793,vts_reward_expectancy,2022.2.4,Win32,60.12867537,Chrome,1536,960,,,,,0,585,,,,,,,,,,,,,,,,,146,W,circle,1,0,,,,,,,,,,,,,,,,repeat,number,numRpt,d,noRew,,,,,,2.6362,0,31,0,31,0,1,,,,,,,,,,,,,,,,,
294196,2022-10-05_12h56.23.793,vts_reward_expectancy,2022.2.4,Win32,60.12867537,Chrome,1536,960,,,,,0,585,,,,,,,,,,,,,,,,,146,F,circle,1,0,,,,,,,,,,,,,,,,repeat,number,numRpt,d,noRew,,,,,,1.0736,0,32,0,32,0,1,,,,,,,,,,,,,,,,,
294196,2022-10-05_12h56.23.793,vts_reward_expectancy,2022.2.4,Win32,60.12867537,Chrome,1536,960,,,,,0,585,,,,,,,,,,,,,,,,,125,B,triangle,-1,0,,,,,,,,,,,,,,,,switch,no_choice,NA,,noRew,,,,,,,0,33,0,33,0,1,,,,,,,,,,,,,,,,,
294196,2022-10-05_12h56.23.793,vts_reward_expectancy,2022.2.4,Win32,60.12867537,Chrome,1536,960,,,,,0,585,,,,,,,,,,,,,,,,,139,Y,circle,0,0,,,,,,,,,,,,,,,,switch,number,NA,f,noRew,,,,,,1.8351,0,34,0,34,0,1,,,,,,,,,,,,,,,,,
294196,2022-10-05_12h56.23.793,vts_reward_expectancy,2022.2.4,Win32,60.12867537,Chrome,1536,960,,,,,0,585,,,,,,,,,,,,,,,,,181,H,triangle,1,1,,,,,,,,,,,,,,,,repeat,number,numRpt,f,noRew,,,,,,0.8516,0,35,0,35,0,1,,,,,,,,,,,,,,,,,
294196,2022-10-05_12h56.23.793,vts_reward_expectancy,2022.2.4,Win32,60.12867537,Chrome,1536,960,,,,,0,585,,,,,,,,,,,,,,,,,181,H,circle,-1,0,,,,,,,,,,,,,,,,switch,no_choice,NA,,noRew,,,,,,,0,36,0,36,0,1,,,,,,,,,,,,,,,,,
294196,2022-10-05_12h56.23.793,vts_reward_expectancy,2022.2.4,Win32,60.12867537,Chrome,1536,960,,,,,0,585,,,,,,,,,,,,,,,,,132,D,triangle,-1,0,,,,,,,,,,,,,,,,repeat,no_choice,NA,,noRew,,,,,,,0,37,0,37,0,1,,,,,,,,,,,,,,,,,
294196,2022-10-05_12h56.23.793,vts_reward_expectancy,2022.2.4,Win32,60.12867537,Chrome,1536,960,,,,,0,585,,,,,,,,,,,,,,,,,167,Y,hexagon,-1,0,,,,,,,,,,,,,,,,repeat,no_choice,NA,,noRew,,,,,,,0,38,0,38,0,1,,,,,,,,,,,,,,,,,
294196,2022-10-05_12h56.23.793,vts_reward_expectancy,2022.2.4,Win32,60.12867537,Chrome,1536,960,,,,,0,585,,,,,,,,,,,,,,,,,160,W,star,1,0,,,,,,,,,,,,,,,,switch,number,numSwt,f,noRew,,,,,,1.1356,0,39,0,39,0,1,,,,,,,,,,,,,,,,,
294196,2022-10-05_12h56.23.793,vts_reward_expectancy,2022.2.4,Win32,60.12867537,Chrome,1536,960,,,,,0,585,,,,,,,,,,,,,,,,,160,D,circle,-1,0,,,,,,,,,,,,,,,,switch,no_choice,NA,,noRew,,,,,,,0,40,0,40,0,1,,,,,,,,,,,,,,,,,
294196,2022-10-05_12h56.23.793,vts_reward_expectancy,2022.2.4,Win32,60.12867537,Chrome,1536,960,,,,,0,585,,,,,,,,,,,,,,,,,146,F,hexagon,-1,0,,,,,,,,,,,,,,,,repeat,no_choice,NA,,noRew,,,,,,,0,41,0,41,0,1,,,,,,,,,,,,,,,,,
294196,2022-10-05_12h56.23.793,vts_reward_expectancy,2022.2.4,Win32,60.12867537,Chrome,1536,960,,,,,0,585,,,,,,,,,,,,,,,,,174,U,hexagon,-1,0,,,,,,,,,,,,,,,,repeat,no_choice,NA,,noRew,,,,,,,0,42,0,42,0,1,,,,,,,,,,,,,,,,,
294196,2022-10-05_12h56.23.793,vts_reward_expectancy,2022.2.4,Win32,60.12867537,Chrome,1536,960,,,,,0,585,,,,,,,,,,,,,,,,,181,S,star,-1,0,,,,,,,,,,,,,,,,repeat,no_choice,NA,,noRew,,,,,,,0,43,0,43,0,1,,,,,,,,,,,,,,,,,
294196,2022-10-05_12h56.23.793,vts_reward_expectancy,2022.2.4,Win32,60.12867537,Chrome,1536,960,,,,,0,585,,,,,,,,,,,,,,,,,132,S,triangle,-1,0,,,,,,,,,,,,,,,,repeat,no_choice,NA,,noRew,,,,,,,0,44,0,44,0,1,,,,,,,,,,,,,,,,,
294196,2022-10-05_12h56.23.793,vts_reward_expectancy,2022.2.4,Win32,60.12867537,Chrome,1536,960,,,,,0,585,,,,,,,,,,,,,,,,,160,W,hexagon,-1,0,,,,,,,,,,,,,,,,repeat,no_choice,NA,,noRew,,,,,,,0,45,0,45,0,1,,,,,,,,,,,,,,,,,
294196,2022-10-05_12h56.23.793,vts_reward_expectancy,2022.2.4,Win32,60.12867537,Chrome,1536,960,,,,,0,585,,,,,,,,,,,,,,,,,139,F,circle,-1,0,,,,,,,,,,,,,,,,repeat,no_choice,NA,,noRew,,,,,,,0,46,0,46,0,1,,,,,,,,,,,,,,,,,
294196,2022-10-05_12h56.23.793,vts_reward_expectancy,2022.2.4,Win32,60.12867537,Chrome,1536,960,,,,,0,585,,,,,,,,,,,,,,,,,174,B,triangle,-1,0,,,,,,,,,,,,,,,,repeat,no_choice,NA,,noRew,,,,,,,0,47,0,47,0,1,,,,,,,,,,,,,,,,,
294196,2022-10-05_12h56.23.793,vts_reward_expectancy,2022.2.4,Win32,60.12867537,Chrome,1536,960,,,,,0,585,,,,,,,,,,,,,,,,,139,D,circle,-1,0,,,,,,,,,,,,,,,,repeat,no_choice,NA,,noRew,,,,,,,0,48,0,48,0,1,,,,,,,,,,,,,,,,,
294196,2022-10-05_12h56.23.793,vts_reward_expectancy,2022.2.4,Win32,60.12867537,Chrome,1536,960,,,,,0,585,,,,,,,,,,,,,,,,,174,S,triangle,-1,0,,,,,,,,,,,,,,,,repeat,no_choice,NA,,noRew,,,,,,,0,49,0,49,0,1,,,,,,,,,,,,,,,,,
294196,2022-10-05_12h56.23.793,vts_reward_expectancy,2022.2.4,Win32,60.12867537,Chrome,1536,960,,,,,0,585,,,,,,,,,,,,,,,,,132,W,circle,-1,0,,,,,,,,,,,,,,,,repeat,no_choice,NA,,noRew,,,,,,,0,50,0,50,0,1,,,,,,,,,,,,,,,,,
294196,2022-10-05_12h56.23.793,vts_reward_expectancy,2022.2.4,Win32,60.12867537,Chrome,1536,960,,,,,0,585,,,,,,,,,,,,,,,,,181,F,triangle,-1,0,,,,,,,,,,,,,,,,repeat,no_choice,NA,,noRew,,,,,,,0,51,0,51,0,1,,,,,,,,,,,,,,,,,
294196,2022-10-05_12h56.23.793,vts_reward_expectancy,2022.2.4,Win32,60.12867537,Chrome,1536,960,,,,,0,585,,,,,,,,,,,,,,,,,146,F,star,-1,0,,,,,,,,,,,,,,,,repeat,no_choice,NA,,noRew,,,,,,,0,52,0,52,0,1,,,,,,,,,,,,,,,,,
294196,2022-10-05_12h56.23.793,vts_reward_expectancy,2022.2.4,Win32,60.12867537,Chrome,1536,960,,,,,0,585,,,,,,,,,,,,,,,,,132,H,triangle,-1,0,,,,,,,,,,,,,,,,repeat,no_choice,NA,,noRew,,,,,,,0,53,0,53,0,1,,,,,,,,,,,,,,,,,
294196,2022-10-05_12h56.23.793,vts_reward_expectancy,2022.2.4,Win32,60.12867537,Chrome,1536,960,,,,,0,585,,,,,,,,,,,,,,,,,160,Y,circle,-1,0,,,,,,,,,,,,,,,,repeat,no_choice,NA,,noRew,,,,,,,0,54,0,54,0,1,,,,,,,,,,,,,,,,,
294196,2022-10-05_12h56.23.793,vts_reward_expectancy,2022.2.4,Win32,60.12867537,Chrome,1536,960,,,,,0,585,,,,,,,,,,,,,,,,,139,U,triangle,-1,0,,,,,,,,,,,,,,,,repeat,no_choice,NA,,noRew,,,,,,,0,55,0,55,0,1,,,,,,,,,,,,,,,,,
294196,2022-10-05_12h56.23.793,vts_reward_expectancy,2022.2.4,Win32,60.12867537,Chrome,1536,960,,,,,0,585,,,,,,,,,,,,,,,,,174,H,circle,-1,0,,,,,,,,,,,,,,,,repeat,no_choice,NA,,noRew,,,,,,,0,56,0,56,0,1,,,,,,,,,,,,,,,,,
294196,2022-10-05_12h56.23.793,vts_reward_expectancy,2022.2.4,Win32,60.12867537,Chrome,1536,960,,,,,0,585,,,,,,,,,,,,,,,,,181,F,triangle,-1,0,,,,,,,,,,,,,,,,repeat,no_choice,NA,,noRew,,,,,,,0,57,0,57,0,1,,,,,,,,,,,,,,,,,
294196,2022-10-05_12h56.23.793,vts_reward_expectancy,2022.2.4,Win32,60.12867537,Chrome,1536,960,,,,,0,585,,,,,,,,,,,,,,,,,125,W,triangle,-1,0,,,,,,,,,,,,,,,,repeat,no_choice,NA,,noRew,,,,,,,0,58,0,58,0,1,,,,,,,,,,,,,,,,,
294196,2022-10-05_12h56.23.793,vts_reward_expectancy,2022.2.4,Win32,60.12867537,Chrome,1536,960,,,,,0,585,,,,,,,,,,,,,,,,,132,B,hexagon,-1,0,,,,,,,,,,,,,,,,repeat,no_choice,NA,,noRew,,,,,,,0,59,0,59,0,1,,,,,,,,,,,,,,,,,
294196,2022-10-05_12h56.23.793,vts_reward_expectancy,2022.2.4,Win32,60.12867537,Chrome,1536,960,,,,,0,585,,,,,,,,,,,,,,,,,160,D,triangle,-1,0,,,,,,,,,,,,,,,,repeat,no_choice,NA,,noRew,,,,,,,0,60,0,60,0,1,,,,,,,,,,,,,,,,,
294196,2022-10-05_12h56.23.793,vts_reward_expectancy,2022.2.4,Win32,60.12867537,Chrome,1536,960,,,,,0,585,,,,,,,,,,,,,,,,,181,W,hexagon,-1,0,,,,,,,,,,,,,,,,repeat,no_choice,NA,,noRew,,,,,,,0,61,0,61,0,1,,,,,,,,,,,,,,,,,
294196,2022-10-05_12h56.23.793,vts_reward_expectancy,2022.2.4,Win32,60.12867537,Chrome,1536,960,,,,,0,585,,,,,,,,,,,,,,,,,132,B,hexagon,-1,0,,,,,,,,,,,,,,,,repeat,no_choice,NA,,noRew,,,,,,,0,62,0,62,0,1,,,,,,,,,,,,,,,,,
294196,2022-10-05_12h56.23.793,vts_reward_expectancy,2022.2.4,Win32,60.12867537,Chrome,1536,960,,,,,0,585,,,,,,,,,,,,,,,,,174,U,triangle,-1,0,,,,,,,,,,,,,,,,repeat,no_choice,NA,,noRew,,,,,,,0,63,0,63,0,1,,,,,,,,,,,,,,,,,
294196,2022-10-05_12h56.23.793,vts_reward_expectancy,2022.2.4,Win32,60.12867537,Chrome,1536,960,,,,,,,,,,,,,,,,,,,,,,,,,,,,,,,,,,,,,,,,,,,,,,,,,,,,,,,,,,,,,,,,,,,,,,,,,,,,
294196,2022-10-05_12h56.23.793,vts_reward_expectancy,2022.2.4,Win32,60.12867537,Chrome,1536,960,,,,,0,585,,,,,,,,,,,,,,,,,146,W,circle,1,0,,,,,,,,,,,,,,,,switch,number,numSwt,d,Hi,,,,,,1.1981,0,,,,,,space,16.9033,high,0,0,0,0,1,,,,,,,,,
294196,2022-10-05_12h56.23.793,vts_reward_expectancy,2022.2.4,Win32,60.12867537,Chrome,1536,960,,,,,1,586,,,,,,,,,,,,,,,,,167,S,triangle,1,0,,,,,,,,,,,,,,,,repeat,number,numRpt,f,Lo,,,,,,0.5871,0,,,,,,,,high,1,0,1,0,1,,,,,,,,,
294196,2022-10-05_12h56.23.793,vts_reward_expectancy,2022.2.4,Win32,60.12867537,Chrome,1536,960,,,,,10,596,,,,,,,,,,,,,,,,,132,B,circle,1,0,,,,,,,,,,,,,,,,repeat,number,numRpt,d,Hi,,,,,,0.5629,0,,,,,,,,high,2,0,2,0,1,,,,,,,,,
294196,2022-10-05_12h56.23.793,vts_reward_expectancy,2022.2.4,Win32,60.12867537,Chrome,1536,960,,,,,10,606,,,,,,,,,,,,,,,,,181,D,triangle,1,0,,,,,,,,,,,,,,,,switch,letter,lettSwt,j,Lo,,,,,,0.7512,0,,,,,,,,high,3,0,3,0,1,,,,,,,,,
294196,2022-10-05_12h56.23.793,vts_reward_expectancy,2022.2.4,Win32,60.12867537,Chrome,1536,960,,,,,1,607,,,,,,,,,,,,,,,,,125,F,circle,1,0,,,,,,,,,,,,,,,,switch,number,numSwt,d,Hi,,,,,,0.5549,0,,,,,,,,high,4,0,4,0,1,,,,,,,,,
294196,2022-10-05_12h56.23.793,vts_reward_expectancy,2022.2.4,Win32,60.12867537,Chrome,1536,960,,,,,10,617,,,,,,,,,,,,,,,,,160,H,triangle,1,0,,,,,,,,,,,,,,,,repeat,number,numRpt,f,Lo,,,,,,0.8343,0,,,,,,,,high,5,0,5,0,1,,,,,,,,,
294196,2022-10-05_12h56.23.793,vts_reward_expectancy,2022.2.4,Win32,60.12867537,Chrome,1536,960,,,,,1,618,,,,,,,,,,,,,,,,,174,Y,triangle,1,0,,,,,,,,,,,,,,,,switch,letter,lettSwt,k,Lo,,,,,,0.661,0,,,,,,,,high,6,0,6,0,1,,,,,,,,,
294196,2022-10-05_12h56.23.793,vts_reward_expectancy,2022.2.4,Win32,60.12867537,Chrome,1536,960,,,,,10,628,,,,,,,,,,,,,,,,,139,U,circle,1,0,,,,,,,,,,,,,,,,switch,number,numSwt,d,Hi,,,,,,0.835,0,,,,,,,,high,7,0,7,0,1,,,,,,,,,
294196,2022-10-05_12h56.23.793,vts_reward_expectancy,2022.2.4,Win32,60.12867537,Chrome,1536,960,,,,,1,629,,,,,,,,,,,,,,,,,146,W,triangle,1,0,,,,,,,,,,,,,,,,repeat,number,numRpt,d,Lo,,,,,,0.8181,0,,,,,,,,high,8,0,8,0,1,,,,,,,,,
294196,2022-10-05_12h56.23.793,vts_reward_expectancy,2022.2.4,Win32,60.12867537,Chrome,1536,960,,,,,0,629,,,,,,,,,,,,,,,,,167,S,circle,1,0,,,,,,,,,,,,,,,,repeat,number,numRpt,f,Hi,,,,,,1.2348,0,,,,,,,,high,9,0,9,0,1,,,,,,,,,
294196,2022-10-05_12h56.23.793,vts_reward_expectancy,2022.2.4,Win32,60.12867537,Chrome,1536,960,,,,,10,639,,,,,,,,,,,,,,,,,132,B,circle,1,0,,,,,,,,,,,,,,,,repeat,number,numRpt,d,Hi,,,,,,0.6991,0,,,,,,,,high,10,0,10,0,1,,,,,,,,,
294196,2022-10-05_12h56.23.793,vts_reward_expectancy,2022.2.4,Win32,60.12867537,Chrome,1536,960,,,,,0,639,,,,,,,,,,,,,,,,,181,D,triangle,0,0,,,,,,,,,,,,,,,,repeat,number,NA,d,Hi,,,,,,1.101,0,,,,,,,,high,11,0,11,0,1,,,,,,,,,
294196,2022-10-05_12h56.23.793,vts_reward_expectancy,2022.2.4,Win32,60.12867537,Chrome,1536,960,,,,,10,649,,,,,,,,,,,,,,,,,125,F,circle,1,1,,,,,,,,,,,,,,,,repeat,number,numRpt,d,Hi,,,,,,0.7024,0,,,,,,,,high,12,0,12,0,1,,,,,,,,,
294196,2022-10-05_12h56.23.793,vts_reward_expectancy,2022.2.4,Win32,60.12867537,Chrome,1536,960,,,,,10,659,,,,,,,,,,,,,,,,,160,H,triangle,1,0,,,,,,,,,,,,,,,,repeat,number,numRpt,f,Lo,,,,,,1.6603,0,,,,,,,,high,13,0,13,0,1,,,,,,,,,
294196,2022-10-05_12h56.23.793,vts_reward_expectancy,2022.2.4,Win32,60.12867537,Chrome,1536,960,,,,,0,659,,,,,,,,,,,,,,,,,174,Y,triangle,0,0,,,,,,,,,,,,,,,,repeat,number,NA,d,Lo,,,,,,1.335,0,,,,,,,,high,14,0,14,0,1,,,,,,,,,
294196,2022-10-05_12h56.23.793,vts_reward_expectancy,2022.2.4,Win32,60.12867537,Chrome,1536,960,,,,,0,659,,,,,,,,,,,,,,,,,139,U,circle,1,1,,,,,,,,,,,,,,,,repeat,number,numRpt,d,Hi,,,,,,1.8692,0,,,,,,,,high,15,0,15,0,1,,,,,,,,,
294196,2022-10-05_12h56.23.793,vts_reward_expectancy,2022.2.4,Win32,60.12867537,Chrome,1536,960,,,,,1,660,,,,,,,,,,,,,,,,,125,W,triangle,1,0,,,,,,,,,,,,,,,,switch,letter,lettSwt,k,Lo,,,,,,0.6137,0,,,,,,,,high,16,0,16,0,1,,,,,,,,,
294196,2022-10-05_12h56.23.793,vts_reward_expectancy,2022.2.4,Win32,60.12867537,Chrome,1536,960,,,,,10,670,,,,,,,,,,,,,,,,,146,H,circle,1,0,,,,,,,,,,,,,,,,switch,number,numSwt,d,Hi,,,,,,0.5059,0,,,,,,,,high,17,0,17,0,1,,,,,,,,,
294196,2022-10-05_12h56.23.793,vts_reward_expectancy,2022.2.4,Win32,60.12867537,Chrome,1536,960,,,,,0,670,,,,,,,,,,,,,,,,,160,S,circle,1,0,,,,,,,,,,,,,,,,switch,letter,lettSwt,k,Hi,,,,,,1.4306,0,,,,,,,,high,18,0,18,0,1,,,,,,,,,
294196,2022-10-05_12h56.23.793,vts_reward_expectancy,2022.2.4,Win32,60.12867537,Chrome,1536,960,,,,,10,680,,,,,,,,,,,,,,,,,174,B,triangle,1,0,,,,,,,,,,,,,,,,switch,number,numSwt,f,Lo,,,,,,1.4049,0,,,,,,,,high,19,0,19,0,1,,,,,,,,,
294196,2022-10-05_12h56.23.793,vts_reward_expectancy,2022.2.4,Win32,60.12867537,Chrome,1536,960,,,,,1,681,,,,,,,,,,,,,,,,,139,D,triangle,1,0,,,,,,,,,,,,,,,,repeat,number,numRpt,d,Lo,,,,,,0.8294,0,,,,,,,,high,20,0,20,0,1,,,,,,,,,
294196,2022-10-05_12h56.23.793,vts_reward_expectancy,2022.2.4,Win32,60.12867537,Chrome,1536,960,,,,,10,691,,,,,,,,,,,,,,,,,132,Y,circle,1,0,,,,,,,,,,,,,,,,repeat,number,numRpt,d,Hi,,,,,,0.7352,0,,,,,,,,high,21,0,21,0,1,,,,,,,,,
294196,2022-10-05_12h56.23.793,vts_reward_expectancy,2022.2.4,Win32,60.12867537,Chrome,1536,960,,,,,0,691,,,,,,,,,,,,,,,,,167,U,circle,-1,0,,,,,,,,,,,,,,,,switch,no_choice,NA,,Hi,,,,,,,0,,,,,,,,high,22,0,22,0,1,,,,,,,,,
294196,2022-10-05_12h56.23.793,vts_reward_expectancy,2022.2.4,Win32,60.12867537,Chrome,1536,960,,,,,1,692,,,,,,,,,,,,,,,,,181,F,triangle,1,0,,,,,,,,,,,,,,,,switch,number,numSwt,f,Lo,,,,,,0.8134,0,,,,,,,,high,23,0,23,0,1,,,,,,,,,
294196,2022-10-05_12h56.23.793,vts_reward_expectancy,2022.2.4,Win32,60.12867537,Chrome,1536,960,,,,,10,702,,,,,,,,,,,,,,,,,146,U,circle,1,0,,,,,,,,,,,,,,,,repeat,number,numRpt,d,Hi,,,,,,0.712,0,,,,,,,,high,24,0,24,0,1,,,,,,,,,
294196,2022-10-05_12h56.23.793,vts_reward_expectancy,2022.2.4,Win32,60.12867537,Chrome,1536,960,,,,,1,703,,,,,,,,,,,,,,,,,181,S,triangle,1,0,,,,,,,,,,,,,,,,repeat,number,numRpt,f,Lo,,,,,,0.7883,0,,,,,,,,high,25,0,25,0,1,,,,,,,,,
294196,2022-10-05_12h56.23.793,vts_reward_expectancy,2022.2.4,Win32,60.12867537,Chrome,1536,960,,,,,10,713,,,,,,,,,,,,,,,,,160,H,triangle,1,0,,,,,,,,,,,,,,,,repeat,number,numRpt,f,Lo,,,,,,1.2717,0,,,,,,,,high,26,0,26,0,1,,,,,,,,,
294196,2022-10-05_12h56.23.793,vts_reward_expectancy,2022.2.4,Win32,60.12867537,Chrome,1536,960,,,,,1,714,,,,,,,,,,,,,,,,,139,Y,circle,1,0,,,,,,,,,,,,,,,,switch,letter,lettSwt,k,Hi,,,,,,0.9187,0,,,,,,,,high,27,0,27,0,1,,,,,,,,,
294196,2022-10-05_12h56.23.793,vts_reward_expectancy,2022.2.4,Win32,60.12867537,Chrome,1536,960,,,,,1,715,,,,,,,,,,,,,,,,,167,B,triangle,1,0,,,,,,,,,,,,,,,,switch,number,numSwt,f,Lo,,,,,,1.2811,0,,,,,,,,high,28,0,28,0,1,,,,,,,,,
294196,2022-10-05_12h56.23.793,vts_reward_expectancy,2022.2.4,Win32,60.12867537,Chrome,1536,960,,,,,0,715,,,,,,,,,,,,,,,,,125,D,circle,1,0,,,,,,,,,,,,,,,,repeat,number,numRpt,d,Hi,,,,,,1.0629,0,,,,,,,,high,29,0,29,0,1,,,,,,,,,
294196,2022-10-05_12h56.23.793,vts_reward_expectancy,2022.2.4,Win32,60.12867537,Chrome,1536,960,,,,,0,715,,,,,,,,,,,,,,,,,174,F,circle,1,0,,,,,,,,,,,,,,,,repeat,number,numRpt,f,Hi,,,,,,1.33,0,,,,,,,,high,30,0,30,0,1,,,,,,,,,
294196,2022-10-05_12h56.23.793,vts_reward_expectancy,2022.2.4,Win32,60.12867537,Chrome,1536,960,,,,,1,716,,,,,,,,,,,,,,,,,132,W,triangle,1,0,,,,,,,,,,,,,,,,repeat,number,numRpt,d,Lo,,,,,,1.0252,0,,,,,,,,high,31,0,31,0,1,,,,,,,,,
294196,2022-10-05_12h56.23.793,vts_reward_expectancy,2022.2.4,Win32,60.12867537,Chrome,1536,960,,,,,0,716,,,,,,,,,,,,,,,,,181,H,circle,1,0,,,,,,,,,,,,,,,,repeat,number,numRpt,f,Hi,,,,,,1.1788,1,,,,,,space,9.2267,high,0,0,0,0,1,,,,,,,,,
294196,2022-10-05_12h56.23.793,vts_reward_expectancy,2022.2.4,Win32,60.12867537,Chrome,1536,960,,,,,1,717,,,,,,,,,,,,,,,,,167,U,triangle,1,0,,,,,,,,,,,,,,,,repeat,number,numRpt,f,Lo,,,,,,0.933,1,,,,,,,,high,1,0,1,0,1,,,,,,,,,
294196,2022-10-05_12h56.23.793,vts_reward_expectancy,2022.2.4,Win32,60.12867537,Chrome,1536,960,,,,,0,717,,,,,,,,,,,,,,,,,125,W,circle,1,0,,,,,,,,,,,,,,,,switch,letter,lettSwt,k,Hi,,,,,,0.7752,1,,,,,,,,high,2,0,2,0,1,,,,,,,,,
294196,2022-10-05_12h56.23.793,vts_reward_expectancy,2022.2.4,Win32,60.12867537,Chrome,1536,960,,,,,1,718,,,,,,,,,,,,,,,,,146,Y,triangle,1,0,,,,,,,,,,,,,,,,switch,number,numSwt,d,Lo,,,,,,0.5902,1,,,,,,,,high,3,0,3,0,1,,,,,,,,,
294196,2022-10-05_12h56.23.793,vts_reward_expectancy,2022.2.4,Win32,60.12867537,Chrome,1536,960,,,,,10,728,,,,,,,,,,,,,,,,,174,F,triangle,1,0,,,,,,,,,,,,,,,,switch,letter,lettSwt,j,Lo,,,,,,1.0964,1,,,,,,,,high,4,0,4,0,1,,,,,,,,,
294196,2022-10-05_12h56.23.793,vts_reward_expectancy,2022.2.4,Win32,60.12867537,Chrome,1536,960,,,,,10,738,,,,,,,,,,,,,,,,,132,B,circle,1,0,,,,,,,,,,,,,,,,repeat,letter,lettRpt,j,Hi,,,,,,0.7608,1,,,,,,,,high,5,0,5,0,1,,,,,,,,,
294196,2022-10-05_12h56.23.793,vts_reward_expectancy,2022.2.4,Win32,60.12867537,Chrome,1536,960,,,,,10,748,,,,,,,,,,,,,,,,,139,D,triangle,1,0,,,,,,,,,,,,,,,,repeat,letter,lettRpt,j,Lo,,,,,,0.6788,1,,,,,,,,high,6,0,6,0,1,,,,,,,,,
294196,2022-10-05_12h56.23.793,vts_reward_expectancy,2022.2.4,Win32,60.12867537,Chrome,1536,960,,,,,0,748,,,,,,,,,,,,,,,,,160,S,circle,0,0,,,,,,,,,,,,,,,,repeat,letter,NA,j,Lo,,,,,,0.6797,1,,,,,,,,high,7,0,7,0,1,,,,,,,,,
294196,2022-10-05_12h56.23.793,vts_reward_expectancy,2022.2.4,Win32,60.12867537,Chrome,1536,960,,,,,1,749,,,,,,,,,,,,,,,,,181,H,circle,1,1,,,,,,,,,,,,,,,,repeat,letter,lettRpt,j,Hi,,,,,,0.8438,1,,,,,,,,high,8,0,8,0,1,,,,,,,,,
294196,2022-10-05_12h56.23.793,vts_reward_expectancy,2022.2.4,Win32,60.12867537,Chrome,1536,960,,,,,1,750,,,,,,,,,,,,,,,,,167,U,triangle,1,0,,,,,,,,,,,,,,,,repeat,letter,lettRpt,k,Lo,,,,,,0.9628,1,,,,,,,,high,9,0,9,0,1,,,,,,,,,
294196,2022-10-05_12h56.23.793,vts_reward_expectancy,2022.2.4,Win32,60.12867537,Chrome,1536,960,,,,,10,760,,,,,,,,,,,,,,,,,125,W,circle,1,0,,,,,,,,,,,,,,,,switch,number,numSwt,d,Hi,,,,,,0.7837,1,,,,,,,,high,10,0,10,0,1,,,,,,,,,
294196,2022-10-05_12h56.23.793,vts_reward_expectancy,2022.2.4,Win32,60.12867537,Chrome,1536,960,,,,,1,761,,,,,,,,,,,,,,,,,146,Y,triangle,1,0,,,,,,,,,,,,,,,,switch,letter,lettSwt,k,Lo,,,,,,0.9005,1,,,,,,,,high,11,0,11,0,1,,,,,,,,,
294196,2022-10-05_12h56.23.793,vts_reward_expectancy,2022.2.4,Win32,60.12867537,Chrome,1536,960,,,,,10,771,,,,,,,,,,,,,,,,,174,F,circle,1,0,,,,,,,,,,,,,,,,repeat,letter,lettRpt,j,Hi,,,,,,1.4069,1,,,,,,,,high,12,0,12,0,1,,,,,,,,,
294196,2022-10-05_12h56.23.793,vts_reward_expectancy,2022.2.4,Win32,60.12867537,Chrome,1536,960,,,,,1,772,,,,,,,,,,,,,,,,,132,B,triangle,1,0,,,,,,,,,,,,,,,,repeat,letter,lettRpt,j,Lo,,,,,,0.6572,1,,,,,,,,high,13,0,13,0,1,,,,,,,,,
294196,2022-10-05_12h56.23.793,vts_reward_expectancy,2022.2.4,Win32,60.12867537,Chrome,1536,960,,,,,10,782,,,,,,,,,,,,,,,,,139,D,triangle,1,0,,,,,,,,,,,,,,,,repeat,letter,lettRpt,j,Lo,,,,,,0.7647,1,,,,,,,,high,14,0,14,0,1,,,,,,,,,
294196,2022-10-05_12h56.23.793,vts_reward_expectancy,2022.2.4,Win32,60.12867537,Chrome,1536,960,,,,,10,792,,,,,,,,,,,,,,,,,160,S,circle,1,0,,,,,,,,,,,,,,,,repeat,letter,lettRpt,k,Hi,,,,,,0.8724,1,,,,,,,,high,15,0,15,0,1,,,,,,,,,
294196,2022-10-05_12h56.23.793,vts_reward_expectancy,2022.2.4,Win32,60.12867537,Chrome,1536,960,,,,,10,802,,,,,,,,,,,,,,,,,146,U,circle,1,0,,,,,,,,,,,,,,,,repeat,letter,lettRpt,k,Hi,,,,,,1.1667,1,,,,,,,,high,16,0,16,0,1,,,,,,,,,
294196,2022-10-05_12h56.23.793,vts_reward_expectancy,2022.2.4,Win32,60.12867537,Chrome,1536,960,,,,,1,803,,,,,,,,,,,,,,,,,139,Y,triangle,1,0,,,,,,,,,,,,,,,,repeat,letter,lettRpt,k,Lo,,,,,,0.7549,1,,,,,,,,high,17,0,17,0,1,,,,,,,,,
294196,2022-10-05_12h56.23.793,vts_reward_expectancy,2022.2.4,Win32,60.12867537,Chrome,1536,960,,,,,0,803,,,,,,,,,,,,,,,,,160,B,circle,1,0,,,,,,,,,,,,,,,,switch,number,numSwt,f,Hi,,,,,,0.8502,1,,,,,,,,high,18,0,18,0,1,,,,,,,,,
294196,2022-10-05_12h56.23.793,vts_reward_expectancy,2022.2.4,Win32,60.12867537,Chrome,1536,960,,,,,1,804,,,,,,,,,,,,,,,,,132,W,triangle,1,0,,,,,,,,,,,,,,,,repeat,number,numRpt,d,Lo,,,,,,1.3147,1,,,,,,,,high,19,0,19,0,1,,,,,,,,,
294196,2022-10-05_12h56.23.793,vts_reward_expectancy,2022.2.4,Win32,60.12867537,Chrome,1536,960,,,,,1,805,,,,,,,,,,,,,,,,,174,F,triangle,1,0,,,,,,,,,,,,,,,,repeat,number,numRpt,f,Lo,,,,,,0.9536,1,,,,,,,,high,20,0,20,0,1,,,,,,,,,
294196,2022-10-05_12h56.23.793,vts_reward_expectancy,2022.2.4,Win32,60.12867537,Chrome,1536,960,,,,,0,805,,,,,,,,,,,,,,,,,125,S,circle,1,0,,,,,,,,,,,,,,,,repeat,number,numRpt,d,Hi,,,,,,0.935,1,,,,,,,,high,21,0,21,0,1,,,,,,,,,
294196,2022-10-05_12h56.23.793,vts_reward_expectancy,2022.2.4,Win32,60.12867537,Chrome,1536,960,,,,,10,815,,,,,,,,,,,,,,,,,167,D,circle,1,0,,,,,,,,,,,,,,,,repeat,number,numRpt,f,Hi,,,,,,0.4598,1,,,,,,,,high,22,0,22,0,1,,,,,,,,,
294196,2022-10-05_12h56.23.793,vts_reward_expectancy,2022.2.4,Win32,60.12867537,Chrome,1536,960,,,,,10,825,,,,,,,,,,,,,,,,,181,H,triangle,1,0,,,,,,,,,,,,,,,,repeat,number,numRpt,f,Lo,,,,,,0.642,1,,,,,,,,high,23,0,23,0,1,,,,,,,,,
294196,2022-10-05_12h56.23.793,vts_reward_expectancy,2022.2.4,Win32,60.12867537,Chrome,1536,960,,,,,0,825,,,,,,,,,,,,,,,,,174,S,circle,0,0,,,,,,,,,,,,,,,,switch,letter,NA,j,Lo,,,,,,0.7187,1,,,,,,,,high,24,0,24,0,1,,,,,,,,,
294196,2022-10-05_12h56.23.793,vts_reward_expectancy,2022.2.4,Win32,60.12867537,Chrome,1536,960,,,,,1,826,,,,,,,,,,,,,,,,,167,B,triangle,1,1,,,,,,,,,,,,,,,,switch,number,numSwt,f,Lo,,,,,,0.4687,1,,,,,,,,high,25,0,25,0,1,,,,,,,,,
294196,2022-10-05_12h56.23.793,vts_reward_expectancy,2022.2.4,Win32,60.12867537,Chrome,1536,960,,,,,10,836,,,,,,,,,,,,,,,,,160,W,circle,1,0,,,,,,,,,,,,,,,,switch,letter,lettSwt,k,Hi,,,,,,0.5845,1,,,,,,,,high,26,0,26,0,1,,,,,,,,,
294196,2022-10-05_12h56.23.793,vts_reward_expectancy,2022.2.4,Win32,60.12867537,Chrome,1536,960,,,,,1,837,,,,,,,,,,,,,,,,,146,H,triangle,1,0,,,,,,,,,,,,,,,,repeat,letter,lettRpt,j,Lo,,,,,,1.1016,1,,,,,,,,high,27,0,27,0,1,,,,,,,,,
294196,2022-10-05_12h56.23.793,vts_reward_expectancy,2022.2.4,Win32,60.12867537,Chrome,1536,960,,,,,0,837,,,,,,,,,,,,,,,,,132,U,circle,1,0,,,,,,,,,,,,,,,,switch,number,numSwt,d,Hi,,,,,,1.0572,1,,,,,,,,high,28,0,28,0,1,,,,,,,,,
294196,2022-10-05_12h56.23.793,vts_reward_expectancy,2022.2.4,Win32,60.12867537,Chrome,1536,960,,,,,1,838,,,,,,,,,,,,,,,,,181,D,triangle,1,0,,,,,,,,,,,,,,,,repeat,number,numRpt,f,Lo,,,,,,1.2017,1,,,,,,,,high,29,0,29,0,1,,,,,,,,,
294196,2022-10-05_12h56.23.793,vts_reward_expectancy,2022.2.4,Win32,60.12867537,Chrome,1536,960,,,,,1,839,,,,,,,,,,,,,,,,,139,Y,triangle,1,0,,,,,,,,,,,,,,,,repeat,number,numRpt,d,Lo,,,,,,1.1375,1,,,,,,,,high,30,0,30,0,1,,,,,,,,,
294196,2022-10-05_12h56.23.793,vts_reward_expectancy,2022.2.4,Win32,60.12867537,Chrome,1536,960,,,,,0,839,,,,,,,,,,,,,,,,,125,F,circle,1,0,,,,,,,,,,,,,,,,repeat,number,numRpt,d,Hi,,,,,,0.7955,1,,,,,,,,high,31,0,31,0,1,,,,,,,,,
294196,2022-10-05_12h56.23.793,vts_reward_expectancy,2022.2.4,Win32,60.12867537,Chrome,1536,960,,,,,10,849,,,,,,,,,,,,,,,,,132,Y,hexagon,1,0,,,,,,,,,,,,,,,,repeat,number,numRpt,d,Hi,,,,,,0.618,2,,,,,,space,0.7692,low,0,0,0,0,1,,,,,,,,,
294196,2022-10-05_12h56.23.793,vts_reward_expectancy,2022.2.4,Win32,60.12867537,Chrome,1536,960,,,,,1,850,,,,,,,,,,,,,,,,,139,B,star,1,0,,,,,,,,,,,,,,,,switch,letter,lettSwt,j,Lo,,,,,,0.6509,2,,,,,,,,low,1,0,1,0,1,,,,,,,,,
294196,2022-10-05_12h56.23.793,vts_reward_expectancy,2022.2.4,Win32,60.12867537,Chrome,1536,960,,,,,0,850,,,,,,,,,,,,,,,,,167,S,hexagon,1,0,,,,,,,,,,,,,,,,switch,number,numSwt,f,Hi,,,,,,0.7373,2,,,,,,,,low,2,0,2,0,1,,,,,,,,,
294196,2022-10-05_12h56.23.793,vts_reward_expectancy,2022.2.4,Win32,60.12867537,Chrome,1536,960,,,,,1,851,,,,,,,,,,,,,,,,,181,H,star,1,0,,,,,,,,,,,,,,,,repeat,number,numRpt,f,Lo,,,,,,0.597,2,,,,,,,,low,3,0,3,0,1,,,,,,,,,
294196,2022-10-05_12h56.23.793,vts_reward_expectancy,2022.2.4,Win32,60.12867537,Chrome,1536,960,,,,,10,861,,,,,,,,,,,,,,,,,174,W,hexagon,1,0,,,,,,,,,,,,,,,,repeat,number,numRpt,f,Hi,,,,,,0.7379,2,,,,,,,,low,4,0,4,0,1,,,,,,,,,
294196,2022-10-05_12h56.23.793,vts_reward_expectancy,2022.2.4,Win32,60.12867537,Chrome,1536,960,,,,,0,861,,,,,,,,,,,,,,,,,160,U,star,0,0,,,,,,,,,,,,,,,,repeat,number,NA,d,Hi,,,,,,0.7976,2,,,,,,,,low,5,0,5,0,1,,,,,,,,,
294196,2022-10-05_12h56.23.793,vts_reward_expectancy,2022.2.4,Win32,60.12867537,Chrome,1536,960,,,,,1,862,,,,,,,,,,,,,,,,,146,F,star,1,1,,,,,,,,,,,,,,,,switch,letter,lettSwt,j,Lo,,,,,,1.2154,2,,,,,,,,low,6,0,6,0,1,,,,,,,,,
294196,2022-10-05_12h56.23.793,vts_reward_expectancy,2022.2.4,Win32,60.12867537,Chrome,1536,960,,,,,0,862,,,,,,,,,,,,,,,,,125,D,hexagon,1,0,,,,,,,,,,,,,,,,switch,number,numSwt,d,Hi,,,,,,0.7302,2,,,,,,,,low,7,0,7,0,1,,,,,,,,,
294196,2022-10-05_12h56.23.793,vts_reward_expectancy,2022.2.4,Win32,60.12867537,Chrome,1536,960,,,,,0,862,,,,,,,,,,,,,,,,,132,Y,hexagon,1,0,,,,,,,,,,,,,,,,repeat,number,numRpt,d,Hi,,,,,,1.3639,2,,,,,,,,low,8,0,8,0,1,,,,,,,,,
294196,2022-10-05_12h56.23.793,vts_reward_expectancy,2022.2.4,Win32,60.12867537,Chrome,1536,960,,,,,1,863,,,,,,,,,,,,,,,,,139,B,star,1,0,,,,,,,,,,,,,,,,repeat,number,numRpt,d,Lo,,,,,,0.9827,2,,,,,,,,low,9,0,9,0,1,,,,,,,,,
294196,2022-10-05_12h56.23.793,vts_reward_expectancy,2022.2.4,Win32,60.12867537,Chrome,1536,960,,,,,1,864,,,,,,,,,,,,,,,,,167,S,star,1,0,,,,,,,,,,,,,,,,repeat,number,numRpt,f,Lo,,,,,,0.8039,2,,,,,,,,low,10,0,10,0,1,,,,,,,,,
294196,2022-10-05_12h56.23.793,vts_reward_expectancy,2022.2.4,Win32,60.12867537,Chrome,1536,960,,,,,10,874,,,,,,,,,,,,,,,,,181,H,hexagon,1,0,,,,,,,,,,,,,,,,repeat,number,numRpt,f,Hi,,,,,,0.598,2,,,,,,,,low,11,0,11,0,1,,,,,,,,,
294196,2022-10-05_12h56.23.793,vts_reward_expectancy,2022.2.4,Win32,60.12867537,Chrome,1536,960,,,,,0,874,,,,,,,,,,,,,,,,,174,W,star,0,0,,,,,,,,,,,,,,,,repeat,number,NA,d,Hi,,,,,,1.0654,2,,,,,,,,low,12,0,12,0,1,,,,,,,,,
294196,2022-10-05_12h56.23.793,vts_reward_expectancy,2022.2.4,Win32,60.12867537,Chrome,1536,960,,,,,0,874,,,,,,,,,,,,,,,,,160,U,hexagon,1,1,,,,,,,,,,,,,,,,repeat,number,numRpt,f,Hi,,,,,,1.5035,2,,,,,,,,low,13,0,13,0,1,,,,,,,,,
294196,2022-10-05_12h56.23.793,vts_reward_expectancy,2022.2.4,Win32,60.12867537,Chrome,1536,960,,,,,10,884,,,,,,,,,,,,,,,,,146,F,hexagon,1,0,,,,,,,,,,,,,,,,repeat,number,numRpt,d,Hi,,,,,,0.8865,2,,,,,,,,low,14,0,14,0,1,,,,,,,,,
294196,2022-10-05_12h56.23.793,vts_reward_expectancy,2022.2.4,Win32,60.12867537,Chrome,1536,960,,,,,1,885,,,,,,,,,,,,,,,,,125,D,star,1,0,,,,,,,,,,,,,,,,repeat,number,numRpt,d,Lo,,,,,,0.7807,2,,,,,,,,low,15,0,15,0,1,,,,,,,,,
294196,2022-10-05_12h56.23.793,vts_reward_expectancy,2022.2.4,Win32,60.12867537,Chrome,1536,960,,,,,1,886,,,,,,,,,,,,,,,,,132,D,star,1,0,,,,,,,,,,,,,,,,repeat,number,numRpt,d,Lo,,,,,,0.7832,2,,,,,,,,low,16,0,16,0,1,,,,,,,,,
294196,2022-10-05_12h56.23.793,vts_reward_expectancy,2022.2.4,Win32,60.12867537,Chrome,1536,960,,,,,10,896,,,,,,,,,,,,,,,,,146,S,hexagon,1,0,,,,,,,,,,,,,,,,repeat,number,numRpt,d,Hi,,,,,,0.814,2,,,,,,,,low,17,0,17,0,1,,,,,,,,,
294196,2022-10-05_12h56.23.793,vts_reward_expectancy,2022.2.4,Win32,60.12867537,Chrome,1536,960,,,,,1,897,,,,,,,,,,,,,,,,,139,U,star,1,0,,,,,,,,,,,,,,,,repeat,number,numRpt,d,Lo,,,,,,1.3135,2,,,,,,,,low,18,0,18,0,1,,,,,,,,,
294196,2022-10-05_12h56.23.793,vts_reward_expectancy,2022.2.4,Win32,60.12867537,Chrome,1536,960,,,,,0,897,,,,,,,,,,,,,,,,,160,W,hexagon,0,0,,,,,,,,,,,,,,,,repeat,number,NA,d,Lo,,,,,,0.934,2,,,,,,,,low,19,0,19,0,1,,,,,,,,,
294196,2022-10-05_12h56.23.793,vts_reward_expectancy,2022.2.4,Win32,60.12867537,Chrome,1536,960,,,,,0,897,,,,,,,,,,,,,,,,,174,B,hexagon,1,1,,,,,,,,,,,,,,,,repeat,number,numRpt,f,Hi,,,,,,0.9521,2,,,,,,,,low,20,0,20,0,1,,,,,,,,,
294196,2022-10-05_12h56.23.793,vts_reward_expectancy,2022.2.4,Win32,60.12867537,Chrome,1536,960,,,,,1,898,,,,,,,,,,,,,,,,,181,H,star,1,0,,,,,,,,,,,,,,,,repeat,number,numRpt,f,Lo,,,,,,0.531,2,,,,,,,,low,21,0,21,0,1,,,,,,,,,
294196,2022-10-05_12h56.23.793,vts_reward_expectancy,2022.2.4,Win32,60.12867537,Chrome,1536,960,,,,,1,899,,,,,,,,,,,,,,,,,167,Y,star,1,0,,,,,,,,,,,,,,,,switch,letter,lettSwt,k,Lo,,,,,,0.7324,2,,,,,,,,low,22,0,22,0,1,,,,,,,,,
294196,2022-10-05_12h56.23.793,vts_reward_expectancy,2022.2.4,Win32,60.12867537,Chrome,1536,960,,,,,0,899,,,,,,,,,,,,,,,,,125,F,hexagon,1,0,,,,,,,,,,,,,,,,repeat,letter,lettRpt,j,Hi,,,,,,0.8967,2,,,,,,,,low,23,0,23,0,1,,,,,,,,,
294196,2022-10-05_12h56.23.793,vts_reward_expectancy,2022.2.4,Win32,60.12867537,Chrome,1536,960,,,,,0,899,,,,,,,,,,,,,,,,,146,U,star,0,0,,,,,,,,,,,,,,,,repeat,letter,NA,j,Hi,,,,,,0.7334,2,,,,,,,,low,24,0,24,0,1,,,,,,,,,
294196,2022-10-05_12h56.23.793,vts_reward_expectancy,2022.2.4,Win32,60.12867537,Chrome,1536,960,,,,,0,899,,,,,,,,,,,,,,,,,125,S,hexagon,1,1,,,,,,,,,,,,,,,,switch,number,numSwt,d,Hi,,,,,,0.7301,2,,,,,,,,low,25,0,25,0,1,,,,,,,,,
294196,2022-10-05_12h56.23.793,vts_reward_expectancy,2022.2.4,Win32,60.12867537,Chrome,1536,960,,,,,10,909,,,,,,,,,,,,,,,,,174,H,star,1,0,,,,,,,,,,,,,,,,repeat,number,numRpt,f,Lo,,,,,,0.605,2,,,,,,,,low,26,0,26,0,1,,,,,,,,,
294196,2022-10-05_12h56.23.793,vts_reward_expectancy,2022.2.4,Win32,60.12867537,Chrome,1536,960,,,,,1,910,,,,,,,,,,,,,,,,,181,D,hexagon,1,0,,,,,,,,,,,,,,,,repeat,number,numRpt,f,Hi,,,,,,0.7232,2,,,,,,,,low,27,0,27,0,1,,,,,,,,,
294196,2022-10-05_12h56.23.793,vts_reward_expectancy,2022.2.4,Win32,60.12867537,Chrome,1536,960,,,,,10,920,,,,,,,,,,,,,,,,,139,F,star,1,0,,,,,,,,,,,,,,,,repeat,number,numRpt,d,Lo,,,,,,1.0978,2,,,,,,,,low,28,0,28,0,1,,,,,,,,,
294196,2022-10-05_12h56.23.793,vts_reward_expectancy,2022.2.4,Win32,60.12867537,Chrome,1536,960,,,,,1,921,,,,,,,,,,,,,,,,,132,W,hexagon,1,0,,,,,,,,,,,,,,,,repeat,number,numRpt,d,Hi,,,,,,0.9156,2,,,,,,,,low,29,0,29,0,1,,,,,,,,,
294196,2022-10-05_12h56.23.793,vts_reward_expectancy,2022.2.4,Win32,60.12867537,Chrome,1536,960,,,,,1,922,,,,,,,,,,,,,,,,,167,Y,hexagon,1,0,,,,,,,,,,,,,,,,switch,letter,lettSwt,k,Hi,,,,,,0.6649,2,,,,,,,,low,30,0,30,0,1,,,,,,,,,
294196,2022-10-05_12h56.23.793,vts_reward_expectancy,2022.2.4,Win32,60.12867537,Chrome,1536,960,,,,,1,923,,,,,,,,,,,,,,,,,160,B,star,1,0,,,,,,,,,,,,,,,,switch,number,numSwt,f,Lo,,,,,,0.9009,2,,,,,,,,low,31,0,31,0,1,,,,,,,,,
294196,2022-10-05_12h56.23.793,vts_reward_expectancy,2022.2.4,Win32,60.12867537,Chrome,1536,960,,,,,0,923,,,,,,,,,,,,,,,,,139,S,circle,1,0,,,,,,,,,,,,,,,,repeat,number,numRpt,d,Hi,,,,,,0.8727,3,,,,,,space,1.5468,high,0,0,0,0,1,,,,,,,,,
294196,2022-10-05_12h56.23.793,vts_reward_expectancy,2022.2.4,Win32,60.12867537,Chrome,1536,960,,,,,1,924,,,,,,,,,,,,,,,,,174,U,triangle,1,0,,,,,,,,,,,,,,,,repeat,number,numRpt,f,Lo,,,,,,1.1485,3,,,,,,,,high,1,0,1,0,1,,,,,,,,,
294196,2022-10-05_12h56.23.793,vts_reward_expectancy,2022.2.4,Win32,60.12867537,Chrome,1536,960,,,,,0,924,,,,,,,,,,,,,,,,,160,W,circle,0,0,,,,,,,,,,,,,,,,repeat,number,NA,d,Lo,,,,,,0.9074,3,,,,,,,,high,2,0,2,0,1,,,,,,,,,
294196,2022-10-05_12h56.23.793,vts_reward_expectancy,2022.2.4,Win32,60.12867537,Chrome,1536,960,,,,,10,934,,,,,,,,,,,,,,,,,125,Y,triangle,1,1,,,,,,,,,,,,,,,,switch,letter,lettSwt,k,Lo,,,,,,0.4977,3,,,,,,,,high,3,0,3,0,1,,,,,,,,,
294196,2022-10-05_12h56.23.793,vts_reward_expectancy,2022.2.4,Win32,60.12867537,Chrome,1536,960,,,,,1,935,,,,,,,,,,,,,,,,,132,B,triangle,1,0,,,,,,,,,,,,,,,,switch,number,numSwt,d,Lo,,,,,,0.7405,3,,,,,,,,high,4,0,4,0,1,,,,,,,,,
294196,2022-10-05_12h56.23.793,vts_reward_expectancy,2022.2.4,Win32,60.12867537,Chrome,1536,960,,,,,0,935,,,,,,,,,,,,,,,,,181,F,circle,1,0,,,,,,,,,,,,,,,,switch,letter,lettSwt,j,Hi,,,,,,0.7512,3,,,,,,,,high,5,0,5,0,1,,,,,,,,,
294196,2022-10-05_12h56.23.793,vts_reward_expectancy,2022.2.4,Win32,60.12867537,Chrome,1536,960,,,,,10,945,,,,,,,,,,,,,,,,,146,D,triangle,1,0,,,,,,,,,,,,,,,,repeat,letter,lettRpt,j,Lo,,,,,,1.2473,3,,,,,,,,high,6,0,6,0,1,,,,,,,,,
294196,2022-10-05_12h56.23.793,vts_reward_expectancy,2022.2.4,Win32,60.12867537,Chrome,1536,960,,,,,0,945,,,,,,,,,,,,,,,,,167,H,circle,1,0,,,,,,,,,,,,,,,,switch,number,numSwt,f,Hi,,,,,,1.0217,3,,,,,,,,high,7,0,7,0,1,,,,,,,,,
294196,2022-10-05_12h56.23.793,vts_reward_expectancy,2022.2.4,Win32,60.12867537,Chrome,1536,960,,,,,0,945,,,,,,,,,,,,,,,,,139,S,circle,1,0,,,,,,,,,,,,,,,,switch,letter,lettSwt,k,Hi,,,,,,0.9799,3,,,,,,,,high,8,0,8,0,1,,,,,,,,,
294196,2022-10-05_12h56.23.793,vts_reward_expectancy,2022.2.4,Win32,60.12867537,Chrome,1536,960,,,,,1,946,,,,,,,,,,,,,,,,,174,U,triangle,1,0,,,,,,,,,,,,,,,,switch,number,numSwt,f,Lo,,,,,,0.8012,3,,,,,,,,high,9,0,9,0,1,,,,,,,,,
294196,2022-10-05_12h56.23.793,vts_reward_expectancy,2022.2.4,Win32,60.12867537,Chrome,1536,960,,,,,1,947,,,,,,,,,,,,,,,,,160,W,triangle,1,0,,,,,,,,,,,,,,,,repeat,number,numRpt,f,Lo,,,,,,0.77,3,,,,,,,,high,10,0,10,0,1,,,,,,,,,
294196,2022-10-05_12h56.23.793,vts_reward_expectancy,2022.2.4,Win32,60.12867537,Chrome,1536,960,,,,,10,957,,,,,,,,,,,,,,,,,125,Y,circle,1,0,,,,,,,,,,,,,,,,repeat,number,numRpt,d,Hi,,,,,,0.7009,3,,,,,,,,high,11,0,11,0,1,,,,,,,,,
294196,2022-10-05_12h56.23.793,vts_reward_expectancy,2022.2.4,Win32,60.12867537,Chrome,1536,960,,,,,0,957,,,,,,,,,,,,,,,,,132,B,circle,1,0,,,,,,,,,,,,,,,,repeat,number,numRpt,d,Hi,,,,,,0.7743,3,,,,,,,,high,12,0,12,0,1,,,,,,,,,
294196,2022-10-05_12h56.23.793,vts_reward_expectancy,2022.2.4,Win32,60.12867537,Chrome,1536,960,,,,,0,957,,,,,,,,,,,,,,,,,181,F,triangle,0,0,,,,,,,,,,,,,,,,repeat,number,NA,d,Hi,,,,,,0.9474,3,,,,,,,,high,13,0,13,0,1,,,,,,,,,
294196,2022-10-05_12h56.23.793,vts_reward_expectancy,2022.2.4,Win32,60.12867537,Chrome,1536,960,,,,,1,958,,,,,,,,,,,,,,,,,146,D,triangle,1,1,,,,,,,,,,,,,,,,repeat,number,numRpt,d,Lo,,,,,,0.7675,3,,,,,,,,high,14,0,14,0,1,,,,,,,,,
294196,2022-10-05_12h56.23.793,vts_reward_expectancy,2022.2.4,Win32,60.12867537,Chrome,1536,960,,,,,0,958,,,,,,,,,,,,,,,,,167,H,circle,1,0,,,,,,,,,,,,,,,,repeat,number,numRpt,f,Hi,,,,,,0.7536,3,,,,,,,,high,15,0,15,0,1,,,,,,,,,
294196,2022-10-05_12h56.23.793,vts_reward_expectancy,2022.2.4,Win32,60.12867537,Chrome,1536,960,,,,,10,968,,,,,,,,,,,,,,,,,132,H,triangle,1,0,,,,,,,,,,,,,,,,repeat,number,numRpt,d,Lo,,,,,,0.783,3,,,,,,,,high,16,0,16,0,1,,,,,,,,,
294196,2022-10-05_12h56.23.793,vts_reward_expectancy,2022.2.4,Win32,60.12867537,Chrome,1536,960,,,,,0,968,,,,,,,,,,,,,,,,,160,Y,circle,1,0,,,,,,,,,,,,,,,,switch,letter,lettSwt,k,Hi,,,,,,1.1649,3,,,,,,,,high,17,0,17,0,1,,,,,,,,,
294196,2022-10-05_12h56.23.793,vts_reward_expectancy,2022.2.4,Win32,60.12867537,Chrome,1536,960,,,,,1,969,,,,,,,,,,,,,,,,,146,B,triangle,1,0,,,,,,,,,,,,,,,,switch,number,numSwt,d,Lo,,,,,,1.1573,3,,,,,,,,high,18,0,18,0,1,,,,,,,,,
294196,2022-10-05_12h56.23.793,vts_reward_expectancy,2022.2.4,Win32,60.12867537,Chrome,1536,960,,,,,10,979,,,,,,,,,,,,,,,,,139,U,circle,1,0,,,,,,,,,,,,,,,,repeat,number,numRpt,d,Hi,,,,,,0.7012,3,,,,,,,,high,19,0,19,0,1,,,,,,,,,
294196,2022-10-05_12h56.23.793,vts_reward_expectancy,2022.2.4,Win32,60.12867537,Chrome,1536,960,,,,,1,980,,,,,,,,,,,,,,,,,167,S,triangle,1,0,,,,,,,,,,,,,,,,repeat,number,numRpt,f,Lo,,,,,,1.1518,3,,,,,,,,high,20,0,20,0,1,,,,,,,,,
294196,2022-10-05_12h56.23.793,vts_reward_expectancy,2022.2.4,Win32,60.12867537,Chrome,1536,960,,,,,0,980,,,,,,,,,,,,,,,,,181,W,circle,1,0,,,,,,,,,,,,,,,,repeat,number,numRpt,f,Hi,,,,,,0.8255,3,,,,,,,,high,21,0,21,0,1,,,,,,,,,
294196,2022-10-05_12h56.23.793,vts_reward_expectancy,2022.2.4,Win32,60.12867537,Chrome,1536,960,,,,,10,990,,,,,,,,,,,,,,,,,125,F,triangle,1,0,,,,,,,,,,,,,,,,repeat,number,numRpt,d,Lo,,,,,,0.7012,3,,,,,,,,high,22,0,22,0,1,,,,,,,,,
294196,2022-10-05_12h56.23.793,vts_reward_expectancy,2022.2.4,Win32,60.12867537,Chrome,1536,960,,,,,10,1000,,,,,,,,,,,,,,,,,174,D,circle,1,0,,,,,,,,,,,,,,,,repeat,number,numRpt,f,Hi,,,,,,0.7185,3,,,,,,,,high,23,0,23,0,1,,,,,,,,,
294196,2022-10-05_12h56.23.793,vts_reward_expectancy,2022.2.4,Win32,60.12867537,Chrome,1536,960,,,,,10,1010,,,,,,,,,,,,,,,,,132,U,circle,1,0,,,,,,,,,,,,,,,,repeat,number,numRpt,d,Hi,,,,,,0.6336,3,,,,,,,,high,24,0,24,0,1,,,,,,,,,
294196,2022-10-05_12h56.23.793,vts_reward_expectancy,2022.2.4,Win32,60.12867537,Chrome,1536,960,,,,,0,1010,,,,,,,,,,,,,,,,,174,S,triangle,0,0,,,,,,,,,,,,,,,,repeat,number,NA,d,Hi,,,,,,0.5841,3,,,,,,,,high,25,0,25,0,1,,,,,,,,,
294196,2022-10-05_12h56.23.793,vts_reward_expectancy,2022.2.4,Win32,60.12867537,Chrome,1536,960,,,,,1,1011,,,,,,,,,,,,,,,,,139,B,triangle,1,1,,,,,,,,,,,,,,,,switch,letter,lettSwt,j,Lo,,,,,,0.7182,3,,,,,,,,high,26,0,26,0,1,,,,,,,,,
294196,2022-10-05_12h56.23.793,vts_reward_expectancy,2022.2.4,Win32,60.12867537,Chrome,1536,960,,,,,0,1011,,,,,,,,,,,,,,,,,146,D,circle,1,0,,,,,,,,,,,,,,,,switch,number,numSwt,d,Hi,,,,,,0.8612,3,,,,,,,,high,27,0,27,0,1,,,,,,,,,
294196,2022-10-05_12h56.23.793,vts_reward_expectancy,2022.2.4,Win32,60.12867537,Chrome,1536,960,,,,,1,1012,,,,,,,,,,,,,,,,,181,Y,triangle,1,0,,,,,,,,,,,,,,,,repeat,number,numRpt,f,Lo,,,,,,0.8622,3,,,,,,,,high,28,0,28,0,1,,,,,,,,,
294196,2022-10-05_12h56.23.793,vts_reward_expectancy,2022.2.4,Win32,60.12867537,Chrome,1536,960,,,,,10,1022,,,,,,,,,,,,,,,,,125,F,circle,1,0,,,,,,,,,,,,,,,,repeat,number,numRpt,d,Hi,,,,,,0.6623,3,,,,,,,,high,29,0,29,0,1,,,,,,,,,
294196,2022-10-05_12h56.23.793,vts_reward_expectancy,2022.2.4,Win32,60.12867537,Chrome,1536,960,,,,,1,1023,,,,,,,,,,,,,,,,,160,H,triangle,1,0,,,,,,,,,,,,,,,,repeat,number,numRpt,f,Lo,,,,,,1.3013,3,,,,,,,,high,30,0,30,0,1,,,,,,,,,
294196,2022-10-05_12h56.23.793,vts_reward_expectancy,2022.2.4,Win32,60.12867537,Chrome,1536,960,,,,,0,1023,,,,,,,,,,,,,,,,,167,W,circle,1,0,,,,,,,,,,,,,,,,repeat,number,numRpt,f,Hi,,,,,,0.8349,3,,,,,,,,high,31,0,31,0,1,,,,,,,,,
294196,2022-10-05_12h56.23.793,vts_reward_expectancy,2022.2.4,Win32,60.12867537,Chrome,1536,960,,,,,10,1033,,,,,,,,,,,,,,,,,125,S,hexagon,1,0,,,,,,,,,,,,,,,,repeat,number,numRpt,d,Hi,,,,,,0.6567,4,,,,,,space,0.653,low,0,0,0,0,1,,,,,,,,,
294196,2022-10-05_12h56.23.793,vts_reward_expectancy,2022.2.4,Win32,60.12867537,Chrome,1536,960,,,,,1,1034,,,,,,,,,,,,,,,,,146,F,star,1,0,,,,,,,,,,,,,,,,repeat,number,numRpt,d,Lo,,,,,,1.3928,4,,,,,,,,low,1,0,1,0,1,,,,,,,,,
294196,2022-10-05_12h56.23.793,vts_reward_expectancy,2022.2.4,Win32,60.12867537,Chrome,1536,960,,,,,0,1034,,,,,,,,,,,,,,,,,160,W,hexagon,1,0,,,,,,,,,,,,,,,,repeat,number,numRpt,f,Hi,,,,,,0.8016,4,,,,,,,,low,2,0,2,0,1,,,,,,,,,
294196,2022-10-05_12h56.23.793,vts_reward_expectancy,2022.2.4,Win32,60.12867537,Chrome,1536,960,,,,,1,1035,,,,,,,,,,,,,,,,,132,H,star,1,0,,,,,,,,,,,,,,,,repeat,number,numRpt,d,Lo,,,,,,0.7849,4,,,,,,,,low,3,0,3,0,1,,,,,,,,,
294196,2022-10-05_12h56.23.793,vts_reward_expectancy,2022.2.4,Win32,60.12867537,Chrome,1536,960,,,,,1,1036,,,,,,,,,,,,,,,,,167,B,star,1,0,,,,,,,,,,,,,,,,switch,letter,lettSwt,j,Lo,,,,,,0.7344,4,,,,,,,,low,4,0,4,0,1,,,,,,,,,
294196,2022-10-05_12h56.23.793,vts_reward_expectancy,2022.2.4,Win32,60.12867537,Chrome,1536,960,,,,,0,1036,,,,,,,,,,,,,,,,,174,Y,hexagon,1,0,,,,,,,,,,,,,,,,switch,number,numSwt,f,Hi,,,,,,0.885,4,,,,,,,,low,5,0,5,0,1,,,,,,,,,
294196,2022-10-05_12h56.23.793,vts_reward_expectancy,2022.2.4,Win32,60.12867537,Chrome,1536,960,,,,,1,1037,,,,,,,,,,,,,,,,,181,U,hexagon,1,0,,,,,,,,,,,,,,,,repeat,number,numRpt,f,Hi,,,,,,0.5322,4,,,,,,,,low,6,0,6,0,1,,,,,,,,,
294196,2022-10-05_12h56.23.793,vts_reward_expectancy,2022.2.4,Win32,60.12867537,Chrome,1536,960,,,,,0,1037,,,,,,,,,,,,,,,,,139,D,star,0,0,,,,,,,,,,,,,,,,switch,letter,NA,k,Hi,,,,,,0.4067,4,,,,,,,,low,7,0,7,0,1,,,,,,,,,
294196,2022-10-05_12h56.23.793,vts_reward_expectancy,2022.2.4,Win32,60.12867537,Chrome,1536,960,,,,,1,1038,,,,,,,,,,,,,,,,,125,S,star,1,1,,,,,,,,,,,,,,,,repeat,letter,lettRpt,k,Lo,,,,,,0.8347,4,,,,,,,,low,8,0,8,0,1,,,,,,,,,
294196,2022-10-05_12h56.23.793,vts_reward_expectancy,2022.2.4,Win32,60.12867537,Chrome,1536,960,,,,,1,1039,,,,,,,,,,,,,,,,,146,F,hexagon,1,0,,,,,,,,,,,,,,,,switch,number,numSwt,d,Hi,,,,,,0.6182,4,,,,,,,,low,9,0,9,0,1,,,,,,,,,
294196,2022-10-05_12h56.23.793,vts_reward_expectancy,2022.2.4,Win32,60.12867537,Chrome,1536,960,,,,,0,1039,,,,,,,,,,,,,,,,,160,W,hexagon,1,0,,,,,,,,,,,,,,,,switch,letter,lettSwt,k,Hi,,,,,,0.8083,4,,,,,,,,low,10,0,10,0,1,,,,,,,,,
294196,2022-10-05_12h56.23.793,vts_reward_expectancy,2022.2.4,Win32,60.12867537,Chrome,1536,960,,,,,1,1040,,,,,,,,,,,,,,,,,132,H,star,1,0,,,,,,,,,,,,,,,,repeat,letter,lettRpt,j,Lo,,,,,,0.8342,4,,,,,,,,low,11,0,11,0,1,,,,,,,,,
294196,2022-10-05_12h56.23.793,vts_reward_expectancy,2022.2.4,Win32,60.12867537,Chrome,1536,960,,,,,10,1050,,,,,,,,,,,,,,,,,167,B,hexagon,1,0,,,,,,,,,,,,,,,,switch,number,numSwt,f,Hi,,,,,,0.5335,4,,,,,,,,low,12,0,12,0,1,,,,,,,,,
294196,2022-10-05_12h56.23.793,vts_reward_expectancy,2022.2.4,Win32,60.12867537,Chrome,1536,960,,,,,1,1051,,,,,,,,,,,,,,,,,174,Y,star,1,0,,,,,,,,,,,,,,,,repeat,number,numRpt,f,Lo,,,,,,0.8686,4,,,,,,,,low,13,0,13,0,1,,,,,,,,,
294196,2022-10-05_12h56.23.793,vts_reward_expectancy,2022.2.4,Win32,60.12867537,Chrome,1536,960,,,,,1,1052,,,,,,,,,,,,,,,,,181,U,hexagon,1,0,,,,,,,,,,,,,,,,repeat,number,numRpt,f,Hi,,,,,,0.7287,4,,,,,,,,low,14,0,14,0,1,,,,,,,,,
294196,2022-10-05_12h56.23.793,vts_reward_expectancy,2022.2.4,Win32,60.12867537,Chrome,1536,960,,,,,10,1062,,,,,,,,,,,,,,,,,139,D,star,1,0,,,,,,,,,,,,,,,,repeat,number,numRpt,d,Lo,,,,,,0.5781,4,,,,,,,,low,15,0,15,0,1,,,,,,,,,
294196,2022-10-05_12h56.23.793,vts_reward_expectancy,2022.2.4,Win32,60.12867537,Chrome,1536,960,,,,,0,1062,,,,,,,,,,,,,,,,,160,S,hexagon,1,0,,,,,,,,,,,,,,,,repeat,number,numRpt,f,Hi,,,,,,0.8867,4,,,,,,,,low,16,0,16,0,1,,,,,,,,,
294196,2022-10-05_12h56.23.793,vts_reward_expectancy,2022.2.4,Win32,60.12867537,Chrome,1536,960,,,,,10,1072,,,,,,,,,,,,,,,,,146,Y,star,1,0,,,,,,,,,,,,,,,,repeat,number,numRpt,d,Lo,,,,,,0.7347,4,,,,,,,,low,17,0,17,0,1,,,,,,,,,
294196,2022-10-05_12h56.23.793,vts_reward_expectancy,2022.2.4,Win32,60.12867537,Chrome,1536,960,,,,,10,1082,,,,,,,,,,,,,,,,,181,W,hexagon,1,0,,,,,,,,,,,,,,,,repeat,number,numRpt,f,Hi,,,,,,0.7213,4,,,,,,,,low,18,0,18,0,1,,,,,,,,,
294196,2022-10-05_12h56.23.793,vts_reward_expectancy,2022.2.4,Win32,60.12867537,Chrome,1536,960,,,,,1,1083,,,,,,,,,,,,,,,,,167,U,star,1,0,,,,,,,,,,,,,,,,repeat,number,numRpt,f,Lo,,,,,,0.8015,4,,,,,,,,low,19,0,19,0,1,,,,,,,,,
294196,2022-10-05_12h56.23.793,vts_reward_expectancy,2022.2.4,Win32,60.12867537,Chrome,1536,960,,,,,0,1083,,,,,,,,,,,,,,,,,132,F,hexagon,1,0,,,,,,,,,,,,,,,,repeat,number,numRpt,d,Hi,,,,,,0.8284,4,,,,,,,,low,20,0,20,0,1,,,,,,,,,
294196,2022-10-05_12h56.23.793,vts_reward_expectancy,2022.2.4,Win32,60.12867537,Chrome,1536,960,,,,,10,1093,,,,,,,,,,,,,,,,,125,D,star,1,0,,,,,,,,,,,,,,,,repeat,number,numRpt,d,Lo,,,,,,0.662,4,,,,,,,,low,21,0,21,0,1,,,,,,,,,
294196,2022-10-05_12h56.23.793,vts_reward_expectancy,2022.2.4,Win32,60.12867537,Chrome,1536,960,,,,,0,1093,,,,,,,,,,,,,,,,,139,H,hexagon,-1,0,,,,,,,,,,,,,,,,switch,no_choice,NA,,Lo,,,,,,,4,,,,,,,,low,22,0,22,0,1,,,,,,,,,
294196,2022-10-05_12h56.23.793,vts_reward_expectancy,2022.2.4,Win32,60.12867537,Chrome,1536,960,,,,,1,1094,,,,,,,,,,,,,,,,,174,B,star,1,0,,,,,,,,,,,,,,,,switch,number,numSwt,f,Lo,,,,,,1.141,4,,,,,,,,low,23,0,23,0,1,,,,,,,,,
294196,2022-10-05_12h56.23.793,vts_reward_expectancy,2022.2.4,Win32,60.12867537,Chrome,1536,960,,,,,0,1094,,,,,,,,,,,,,,,,,146,D,hexagon,1,0,,,,,,,,,,,,,,,,repeat,number,numRpt,d,Hi,,,,,,0.9337,4,,,,,,,,low,24,0,24,0,1,,,,,,,,,
294196,2022-10-05_12h56.23.793,vts_reward_expectancy,2022.2.4,Win32,60.12867537,Chrome,1536,960,,,,,10,1104,,,,,,,,,,,,,,,,,132,B,star,1,0,,,,,,,,,,,,,,,,repeat,number,numRpt,d,Lo,,,,,,0.8023,4,,,,,,,,low,25,0,25,0,1,,,,,,,,,
294196,2022-10-05_12h56.23.793,vts_reward_expectancy,2022.2.4,Win32,60.12867537,Chrome,1536,960,,,,,0,1104,,,,,,,,,,,,,,,,,160,F,hexagon,1,0,,,,,,,,,,,,,,,,repeat,number,numRpt,f,Hi,,,,,,0.9344,4,,,,,,,,low,26,0,26,0,1,,,,,,,,,
294196,2022-10-05_12h56.23.793,vts_reward_expectancy,2022.2.4,Win32,60.12867537,Chrome,1536,960,,,,,10,1114,,,,,,,,,,,,,,,,,139,Y,star,1,0,,,,,,,,,,,,,,,,repeat,number,numRpt,d,Lo,,,,,,0.6191,4,,,,,,,,low,27,0,27,0,1,,,,,,,,,
294196,2022-10-05_12h56.23.793,vts_reward_expectancy,2022.2.4,Win32,60.12867537,Chrome,1536,960,,,,,10,1124,,,,,,,,,,,,,,,,,125,H,star,1,0,,,,,,,,,,,,,,,,repeat,number,numRpt,d,Lo,,,,,,0.6736,4,,,,,,,,low,28,0,28,0,1,,,,,,,,,
294196,2022-10-05_12h56.23.793,vts_reward_expectancy,2022.2.4,Win32,60.12867537,Chrome,1536,960,,,,,0,1124,,,,,,,,,,,,,,,,,174,S,hexagon,1,0,,,,,,,,,,,,,,,,repeat,number,numRpt,f,Hi,,,,,,0.8377,4,,,,,,,,low,29,0,29,0,1,,,,,,,,,
294196,2022-10-05_12h56.23.793,vts_reward_expectancy,2022.2.4,Win32,60.12867537,Chrome,1536,960,,,,,0,1124,,,,,,,,,,,,,,,,,181,U,hexagon,1,0,,,,,,,,,,,,,,,,repeat,number,numRpt,f,Hi,,,,,,1.0065,4,,,,,,,,low,30,0,30,0,1,,,,,,,,,
294196,2022-10-05_12h56.23.793,vts_reward_expectancy,2022.2.4,Win32,60.12867537,Chrome,1536,960,,,,,10,1134,,,,,,,,,,,,,,,,,167,W,star,1,0,,,,,,,,,,,,,,,,repeat,number,numRpt,f,Lo,,,,,,0.8514,4,,,,,,,,low,31,0,31,0,1,,,,,,,,,
294196,2022-10-05_12h56.23.793,vts_reward_expectancy,2022.2.4,Win32,60.12867537,Chrome,1536,960,,,,,10,1144,,,,,,,,,,,,,,,,,181,S,hexagon,1,0,,,,,,,,,,,,,,,,repeat,number,numRpt,f,Hi,,,,,,0.6586,5,,,,,,space,1.0343,low,0,0,0,0,1,,,,,,,,,
294196,2022-10-05_12h56.23.793,vts_reward_expectancy,2022.2.4,Win32,60.12867537,Chrome,1536,960,,,,,1,1145,,,,,,,,,,,,,,,,,167,H,star,1,0,,,,,,,,,,,,,,,,repeat,number,numRpt,f,Lo,,,,,,0.5588,5,,,,,,,,low,1,0,1,0,1,,,,,,,,,
294196,2022-10-05_12h56.23.793,vts_reward_expectancy,2022.2.4,Win32,60.12867537,Chrome,1536,960,,,,,10,1155,,,,,,,,,,,,,,,,,125,W,hexagon,1,0,,,,,,,,,,,,,,,,switch,letter,lettSwt,k,Hi,,,,,,0.5513,5,,,,,,,,low,2,0,2,0,1,,,,,,,,,
294196,2022-10-05_12h56.23.793,vts_reward_expectancy,2022.2.4,Win32,60.12867537,Chrome,1536,960,,,,,1,1156,,,,,,,,,,,,,,,,,146,B,star,1,0,,,,,,,,,,,,,,,,repeat,letter,lettRpt,j,Lo,,,,,,0.618,5,,,,,,,,low,3,0,3,0,1,,,,,,,,,
294196,2022-10-05_12h56.23.793,vts_reward_expectancy,2022.2.4,Win32,60.12867537,Chrome,1536,960,,,,,0,1156,,,,,,,,,,,,,,,,,132,U,hexagon,1,0,,,,,,,,,,,,,,,,switch,number,numSwt,d,Hi,,,,,,0.6871,5,,,,,,,,low,4,0,4,0,1,,,,,,,,,
294196,2022-10-05_12h56.23.793,vts_reward_expectancy,2022.2.4,Win32,60.12867537,Chrome,1536,960,,,,,10,1166,,,,,,,,,,,,,,,,,160,D,star,1,0,,,,,,,,,,,,,,,,repeat,number,numRpt,f,Lo,,,,,,0.6694,5,,,,,,,,low,5,0,5,0,1,,,,,,,,,
294196,2022-10-05_12h56.23.793,vts_reward_expectancy,2022.2.4,Win32,60.12867537,Chrome,1536,960,,,,,10,1176,,,,,,,,,,,,,,,,,139,F,hexagon,1,0,,,,,,,,,,,,,,,,repeat,number,numRpt,d,Hi,,,,,,0.567,5,,,,,,,,low,6,0,6,0,1,,,,,,,,,
294196,2022-10-05_12h56.23.793,vts_reward_expectancy,2022.2.4,Win32,60.12867537,Chrome,1536,960,,,,,1,1177,,,,,,,,,,,,,,,,,174,Y,star,1,0,,,,,,,,,,,,,,,,repeat,number,numRpt,f,Lo,,,,,,0.8005,5,,,,,,,,low,7,0,7,0,1,,,,,,,,,
294196,2022-10-05_12h56.23.793,vts_reward_expectancy,2022.2.4,Win32,60.12867537,Chrome,1536,960,,,,,10,1187,,,,,,,,,,,,,,,,,181,S,star,1,0,,,,,,,,,,,,,,,,repeat,number,numRpt,f,Lo,,,,,,0.5929,5,,,,,,,,low,8,0,8,0,1,,,,,,,,,
294196,2022-10-05_12h56.23.793,vts_reward_expectancy,2022.2.4,Win32,60.12867537,Chrome,1536,960,,,,,1,1188,,,,,,,,,,,,,,,,,167,H,hexagon,1,0,,,,,,,,,,,,,,,,repeat,number,numRpt,f,Hi,,,,,,0.5754,5,,,,,,,,low,9,0,9,0,1,,,,,,,,,
294196,2022-10-05_12h56.23.793,vts_reward_expectancy,2022.2.4,Win32,60.12867537,Chrome,1536,960,,,,,0,1188,,,,,,,,,,,,,,,,,125,W,hexagon,1,0,,,,,,,,,,,,,,,,repeat,number,numRpt,d,Hi,,,,,,0.7388,5,,,,,,,,low,10,0,10,0,1,,,,,,,,,
294196,2022-10-05_12h56.23.793,vts_reward_expectancy,2022.2.4,Win32,60.12867537,Chrome,1536,960,,,,,10,1198,,,,,,,,,,,,,,,,,146,B,star,1,0,,,,,,,,,,,,,,,,repeat,number,numRpt,d,Lo,,,,,,0.8032,5,,,,,,,,low,11,0,11,0,1,,,,,,,,,
294196,2022-10-05_12h56.23.793,vts_reward_expectancy,2022.2.4,Win32,60.12867537,Chrome,1536,960,,,,,10,1208,,,,,,,,,,,,,,,,,132,U,hexagon,1,0,,,,,,,,,,,,,,,,repeat,number,numRpt,d,Hi,,,,,,0.7224,5,,,,,,,,low,12,0,12,0,1,,,,,,,,,
294196,2022-10-05_12h56.23.793,vts_reward_expectancy,2022.2.4,Win32,60.12867537,Chrome,1536,960,,,,,1,1209,,,,,,,,,,,,,,,,,160,D,star,1,0,,,,,,,,,,,,,,,,repeat,number,numRpt,f,Lo,,,,,,0.8181,5,,,,,,,,low,13,0,13,0,1,,,,,,,,,
294196,2022-10-05_12h56.23.793,vts_reward_expectancy,2022.2.4,Win32,60.12867537,Chrome,1536,960,,,,,10,1219,,,,,,,,,,,,,,,,,139,F,hexagon,1,0,,,,,,,,,,,,,,,,switch,letter,lettSwt,j,Hi,,,,,,0.7104,5,,,,,,,,low,14,0,14,0,1,,,,,,,,,
294196,2022-10-05_12h56.23.793,vts_reward_expectancy,2022.2.4,Win32,60.12867537,Chrome,1536,960,,,,,1,1220,,,,,,,,,,,,,,,,,174,Y,star,1,0,,,,,,,,,,,,,,,,repeat,letter,lettRpt,k,Lo,,,,,,0.6375,5,,,,,,,,low,15,0,15,0,1,,,,,,,,,
294196,2022-10-05_12h56.23.793,vts_reward_expectancy,2022.2.4,Win32,60.12867537,Chrome,1536,960,,,,,10,1230,,,,,,,,,,,,,,,,,146,B,hexagon,1,0,,,,,,,,,,,,,,,,switch,number,numSwt,d,Hi,,,,,,0.5499,5,,,,,,,,low,16,0,16,0,1,,,,,,,,,
294196,2022-10-05_12h56.23.793,vts_reward_expectancy,2022.2.4,Win32,60.12867537,Chrome,1536,960,,,,,1,1231,,,,,,,,,,,,,,,,,167,F,star,1,0,,,,,,,,,,,,,,,,switch,letter,lettSwt,j,Lo,,,,,,0.8753,5,,,,,,,,low,17,0,17,0,1,,,,,,,,,
294196,2022-10-05_12h56.23.793,vts_reward_expectancy,2022.2.4,Win32,60.12867537,Chrome,1536,960,,,,,0,1231,,,,,,,,,,,,,,,,,139,W,hexagon,1,0,,,,,,,,,,,,,,,,switch,number,numSwt,d,Hi,,,,,,0.7516,5,,,,,,,,low,18,0,18,0,1,,,,,,,,,
294196,2022-10-05_12h56.23.793,vts_reward_expectancy,2022.2.4,Win32,60.12867537,Chrome,1536,960,,,,,1,1232,,,,,,,,,,,,,,,,,181,Y,star,1,0,,,,,,,,,,,,,,,,repeat,number,numRpt,f,Lo,,,,,,0.8512,5,,,,,,,,low,19,0,19,0,1,,,,,,,,,
294196,2022-10-05_12h56.23.793,vts_reward_expectancy,2022.2.4,Win32,60.12867537,Chrome,1536,960,,,,,10,1242,,,,,,,,,,,,,,,,,132,H,star,1,0,,,,,,,,,,,,,,,,switch,letter,lettSwt,j,Lo,,,,,,0.7582,5,,,,,,,,low,20,0,20,0,1,,,,,,,,,
294196,2022-10-05_12h56.23.793,vts_reward_expectancy,2022.2.4,Win32,60.12867537,Chrome,1536,960,,,,,0,1242,,,,,,,,,,,,,,,,,174,D,hexagon,1,0,,,,,,,,,,,,,,,,switch,number,numSwt,f,Hi,,,,,,0.6179,5,,,,,,,,low,21,0,21,0,1,,,,,,,,,
294196,2022-10-05_12h56.23.793,vts_reward_expectancy,2022.2.4,Win32,60.12867537,Chrome,1536,960,,,,,1,1243,,,,,,,,,,,,,,,,,125,U,hexagon,1,0,,,,,,,,,,,,,,,,repeat,number,numRpt,d,Hi,,,,,,0.7153,5,,,,,,,,low,22,0,22,0,1,,,,,,,,,
294196,2022-10-05_12h56.23.793,vts_reward_expectancy,2022.2.4,Win32,60.12867537,Chrome,1536,960,,,,,1,1244,,,,,,,,,,,,,,,,,160,S,star,1,0,,,,,,,,,,,,,,,,repeat,number,numRpt,f,Lo,,,,,,0.7512,5,,,,,,,,low,23,0,23,0,1,,,,,,,,,
294196,2022-10-05_12h56.23.793,vts_reward_expectancy,2022.2.4,Win32,60.12867537,Chrome,1536,960,,,,,0,1244,,,,,,,,,,,,,,,,,125,Y,hexagon,1,0,,,,,,,,,,,,,,,,repeat,number,numRpt,d,Hi,,,,,,0.8342,5,,,,,,,,low,24,0,24,0,1,,,,,,,,,
294196,2022-10-05_12h56.23.793,vts_reward_expectancy,2022.2.4,Win32,60.12867537,Chrome,1536,960,,,,,10,1254,,,,,,,,,,,,,,,,,132,D,star,1,0,,,,,,,,,,,,,,,,repeat,number,numRpt,d,Lo,,,,,,0.6831,5,,,,,,,,low,25,0,25,0,1,,,,,,,,,
294196,2022-10-05_12h56.23.793,vts_reward_expectancy,2022.2.4,Win32,60.12867537,Chrome,1536,960,,,,,1,1255,,,,,,,,,,,,,,,,,139,B,hexagon,1,0,,,,,,,,,,,,,,,,repeat,number,numRpt,d,Hi,,,,,,0.7048,5,,,,,,,,low,26,0,26,0,1,,,,,,,,,
294196,2022-10-05_12h56.23.793,vts_reward_expectancy,2022.2.4,Win32,60.12867537,Chrome,1536,960,,,,,10,1265,,,,,,,,,,,,,,,,,174,W,star,1,0,,,,,,,,,,,,,,,,repeat,number,numRpt,f,Lo,,,,,,0.7679,5,,,,,,,,low,27,0,27,0,1,,,,,,,,,
294196,2022-10-05_12h56.23.793,vts_reward_expectancy,2022.2.4,Win32,60.12867537,Chrome,1536,960,,,,,0,1265,,,,,,,,,,,,,,,,,167,U,hexagon,1,0,,,,,,,,,,,,,,,,repeat,number,numRpt,f,Hi,,,,,,0.8012,5,,,,,,,,low,28,0,28,0,1,,,,,,,,,
294196,2022-10-05_12h56.23.793,vts_reward_expectancy,2022.2.4,Win32,60.12867537,Chrome,1536,960,,,,,1,1266,,,,,,,,,,,,,,,,,160,S,star,1,0,,,,,,,,,,,,,,,,repeat,number,numRpt,f,Lo,,,,,,0.7891,5,,,,,,,,low,29,0,29,0,1,,,,,,,,,
294196,2022-10-05_12h56.23.793,vts_reward_expectancy,2022.2.4,Win32,60.12867537,Chrome,1536,960,,,,,1,1267,,,,,,,,,,,,,,,,,181,H,star,1,0,,,,,,,,,,,,,,,,repeat,number,numRpt,f,Lo,,,,,,0.7182,5,,,,,,,,low,30,0,30,0,1,,,,,,,,,
294196,2022-10-05_12h56.23.793,vts_reward_expectancy,2022.2.4,Win32,60.12867537,Chrome,1536,960,,,,,0,1267,,,,,,,,,,,,,,,,,146,F,hexagon,0,0,,,,,,,,,,,,,,,,repeat,number,NA,f,Lo,,,,,,1.1185,5,,,,,,,,low,31,0,31,0,1,,,,,,,,,
294196,2022-10-05_12h56.23.793,vts_reward_expectancy,2022.2.4,Win32,60.12867537,Chrome,1536,960,,,,,,,,,,,,,,,,,,,,,,,,,,,,,,,,,,,,,,,,,,,,,,,,,,,,,,6,,,,,,,,,,,,,,"Look at shapes, numbers and letters.",2,,3,1,,2,1536,960
