participant,date,expName,psychopyVersion,OS,frameRate,browser,xResolution,yResolution,key_resp.keys,key_resp.rt,training_resp.keys,training_resp.rt,points_trial,points_cumul,trainBlock,training.thisRepN,training.thisTrialN,training.thisN,training.thisIndex,training.ran,LTriangleOpac,LCircleOpac,LHexagonOpac,LStarOpac,RTriangleOpac,RCircleOpac,RHexagonOpac,RStarOpac,LShape_ID,RShape_ID,curr_topStim,curr_bottStim,curr_shape,acc,E1,target_resp_prac1.keys,pracBlock,task1_prac_trials.thisRepN,task1_prac_trials.thisTrialN,task1_prac_trials.thisN,task1_prac_trials.thisIndex,task1_prac_trials.ran,target_resp_prac1.rt,target_resp_prac2.keys,target_resp_prac2.rt,task2_praac_trials.thisRepN,task2_praac_trials.thisTrialN,task2_praac_trials.thisN,task2_praac_trials.thisIndex,task2_praac_trials.ran,alt,task,condition,target_resp.keys,target_resp.rt,rewCond,vts_practice_trials.thisRepN,vts_practice_trials.thisTrialN,vts_practice_trials.thisN,vts_practice_trials.thisIndex,vts_practice_trials.ran,blockNum,trials_norew.thisRepN,trials_norew.thisTrialN,trials_norew.thisN,trials_norew.thisIndex,trials_norew.ran,key_resp_2.keys,key_resp_2.rt,rewExpect,trials_rew.thisRepN,trials_rew.thisTrialN,trials_rew.thisN,trials_rew.thisIndex,trials_rew.ran,Q1,Q2,Q2_text,Q3,Q4,Q5_text,Q5,xRes,yRes
297847,2022-10-06_23h48.55.340,vts_reward_expectancy,2022.2.4,MacIntel,120.0048002,Chrome,1728,1080,,,,,,,,,,,,,,,,,,,,,,,,,,,,,,,,,,,,,,,,,,,,,,,,,,,,,,,,,,,,,,,,,,,,,,,,,,,,
297847,2022-10-06_23h48.55.340,vts_reward_expectancy,2022.2.4,MacIntel,120.0048002,Chrome,1728,1080,space,15.5469,,,,,,,,,,,,,,,,,,,,,,,,,,,,,,,,,,,,,,,,,,,,,,,,,,,,,,,,,,,,,,,,,,,,,,,,,,
297847,2022-10-06_23h48.55.340,vts_reward_expectancy,2022.2.4,MacIntel,120.0048002,Chrome,1728,1080,,,,,,,,,,,,,,,,,,,,,,,,,,,,,,,,,,,,,,,,,,,,,,,,,,,,,,,,,,,,,,,,,,,,,,,,,,,,
297847,2022-10-06_23h48.55.340,vts_reward_expectancy,2022.2.4,MacIntel,120.0048002,Chrome,1728,1080,,,a,2.6457,0,0,0,0,0,0,10,1,0,0,0,1,0,1,0,0,star ,circle,,,,,,,,,,,,,,,,,,,,,,,,,,,,,,,,,,,,,,,,,,,,,,,,,,,,,,
297847,2022-10-06_23h48.55.340,vts_reward_expectancy,2022.2.4,MacIntel,120.0048002,Chrome,1728,1080,,,l,1.5863,1,1,0,0,1,1,9,1,0,0,0,1,1,0,0,0,star,triangle,,,,,,,,,,,,,,,,,,,,,,,,,,,,,,,,,,,,,,,,,,,,,,,,,,,,,,
297847,2022-10-06_23h48.55.340,vts_reward_expectancy,2022.2.4,MacIntel,120.0048002,Chrome,1728,1080,,,a,2.7624,1,2,0,0,2,2,3,1,0,1,0,0,1,0,0,0,circle,triangle,,,,,,,,,,,,,,,,,,,,,,,,,,,,,,,,,,,,,,,,,,,,,,,,,,,,,,
297847,2022-10-06_23h48.55.340,vts_reward_expectancy,2022.2.4,MacIntel,120.0048002,Chrome,1728,1080,,,l,1.9231,1,3,0,0,3,3,2,1,1,0,0,0,0,0,0,1,triangle,star,,,,,,,,,,,,,,,,,,,,,,,,,,,,,,,,,,,,,,,,,,,,,,,,,,,,,,
297847,2022-10-06_23h48.55.340,vts_reward_expectancy,2022.2.4,MacIntel,120.0048002,Chrome,1728,1080,,,a,2.15,1,4,0,0,4,4,6,1,0,0,1,0,1,0,0,0,hexagon,triangle,,,,,,,,,,,,,,,,,,,,,,,,,,,,,,,,,,,,,,,,,,,,,,,,,,,,,,
297847,2022-10-06_23h48.55.340,vts_reward_expectancy,2022.2.4,MacIntel,120.0048002,Chrome,1728,1080,,,l,1.7827,1,5,0,0,5,5,11,1,0,0,0,1,0,0,1,0,star,hexagon,,,,,,,,,,,,,,,,,,,,,,,,,,,,,,,,,,,,,,,,,,,,,,,,,,,,,,
297847,2022-10-06_23h48.55.340,vts_reward_expectancy,2022.2.4,MacIntel,120.0048002,Chrome,1728,1080,,,l,1.2407,10,15,0,0,6,6,1,1,1,0,0,0,0,0,1,0,triangle,hexagon,,,,,,,,,,,,,,,,,,,,,,,,,,,,,,,,,,,,,,,,,,,,,,,,,,,,,,
297847,2022-10-06_23h48.55.340,vts_reward_expectancy,2022.2.4,MacIntel,120.0048002,Chrome,1728,1080,,,a,3.6491,1,16,0,0,7,7,5,1,0,1,0,0,0,0,0,1,circle,star,,,,,,,,,,,,,,,,,,,,,,,,,,,,,,,,,,,,,,,,,,,,,,,,,,,,,,
297847,2022-10-06_23h48.55.340,vts_reward_expectancy,2022.2.4,MacIntel,120.0048002,Chrome,1728,1080,,,l,1.1927,10,26,0,0,8,8,0,1,1,0,0,0,0,1,0,0,triangle,circle,,,,,,,,,,,,,,,,,,,,,,,,,,,,,,,,,,,,,,,,,,,,,,,,,,,,,,
297847,2022-10-06_23h48.55.340,vts_reward_expectancy,2022.2.4,MacIntel,120.0048002,Chrome,1728,1080,,,a,2.3761,10,36,0,0,9,9,7,1,0,0,1,0,0,1,0,0,hexagon,circle,,,,,,,,,,,,,,,,,,,,,,,,,,,,,,,,,,,,,,,,,,,,,,,,,,,,,,
297847,2022-10-06_23h48.55.340,vts_reward_expectancy,2022.2.4,MacIntel,120.0048002,Chrome,1728,1080,,,l,1.6385,10,46,0,0,10,10,4,1,0,1,0,0,0,0,1,0,circle,hexagon,,,,,,,,,,,,,,,,,,,,,,,,,,,,,,,,,,,,,,,,,,,,,,,,,,,,,,
297847,2022-10-06_23h48.55.340,vts_reward_expectancy,2022.2.4,MacIntel,120.0048002,Chrome,1728,1080,,,a,2.2486,1,47,0,0,11,11,8,1,0,0,1,0,0,0,0,1,hexagon,star,,,,,,,,,,,,,,,,,,,,,,,,,,,,,,,,,,,,,,,,,,,,,,,,,,,,,,
297847,2022-10-06_23h48.55.340,vts_reward_expectancy,2022.2.4,MacIntel,120.0048002,Chrome,1728,1080,,,a,1.8651,10,57,0,1,0,12,7,1,0,0,1,0,0,1,0,0,hexagon,circle,,,,,,,,,,,,,,,,,,,,,,,,,,,,,,,,,,,,,,,,,,,,,,,,,,,,,,
297847,2022-10-06_23h48.55.340,vts_reward_expectancy,2022.2.4,MacIntel,120.0048002,Chrome,1728,1080,,,a,2.5173,1,58,0,1,1,13,9,1,0,0,0,1,1,0,0,0,star,triangle,,,,,,,,,,,,,,,,,,,,,,,,,,,,,,,,,,,,,,,,,,,,,,,,,,,,,,
297847,2022-10-06_23h48.55.340,vts_reward_expectancy,2022.2.4,MacIntel,120.0048002,Chrome,1728,1080,,,a,4.3741,1,59,0,1,2,14,10,1,0,0,0,1,0,1,0,0,star ,circle,,,,,,,,,,,,,,,,,,,,,,,,,,,,,,,,,,,,,,,,,,,,,,,,,,,,,,
297847,2022-10-06_23h48.55.340,vts_reward_expectancy,2022.2.4,MacIntel,120.0048002,Chrome,1728,1080,,,l,2.7895,1,60,0,1,3,15,11,1,0,0,0,1,0,0,1,0,star,hexagon,,,,,,,,,,,,,,,,,,,,,,,,,,,,,,,,,,,,,,,,,,,,,,,,,,,,,,
297847,2022-10-06_23h48.55.340,vts_reward_expectancy,2022.2.4,MacIntel,120.0048002,Chrome,1728,1080,,,l,1.4577,1,61,0,1,4,16,0,1,1,0,0,0,0,1,0,0,triangle,circle,,,,,,,,,,,,,,,,,,,,,,,,,,,,,,,,,,,,,,,,,,,,,,,,,,,,,,
297847,2022-10-06_23h48.55.340,vts_reward_expectancy,2022.2.4,MacIntel,120.0048002,Chrome,1728,1080,,,l,1.2783,1,62,0,1,5,17,1,1,1,0,0,0,0,0,1,0,triangle,hexagon,,,,,,,,,,,,,,,,,,,,,,,,,,,,,,,,,,,,,,,,,,,,,,,,,,,,,,
297847,2022-10-06_23h48.55.340,vts_reward_expectancy,2022.2.4,MacIntel,120.0048002,Chrome,1728,1080,,,l,1.7609,10,72,0,1,6,18,6,1,0,0,1,0,1,0,0,0,hexagon,triangle,,,,,,,,,,,,,,,,,,,,,,,,,,,,,,,,,,,,,,,,,,,,,,,,,,,,,,
297847,2022-10-06_23h48.55.340,vts_reward_expectancy,2022.2.4,MacIntel,120.0048002,Chrome,1728,1080,,,a,1.2518,1,73,0,1,7,19,8,1,0,0,1,0,0,0,0,1,hexagon,star,,,,,,,,,,,,,,,,,,,,,,,,,,,,,,,,,,,,,,,,,,,,,,,,,,,,,,
297847,2022-10-06_23h48.55.340,vts_reward_expectancy,2022.2.4,MacIntel,120.0048002,Chrome,1728,1080,,,l,2.4963,10,83,0,1,8,20,3,1,0,1,0,0,1,0,0,0,circle,triangle,,,,,,,,,,,,,,,,,,,,,,,,,,,,,,,,,,,,,,,,,,,,,,,,,,,,,,
297847,2022-10-06_23h48.55.340,vts_reward_expectancy,2022.2.4,MacIntel,120.0048002,Chrome,1728,1080,,,l,2.1933,1,84,0,1,9,21,2,1,1,0,0,0,0,0,0,1,triangle,star,,,,,,,,,,,,,,,,,,,,,,,,,,,,,,,,,,,,,,,,,,,,,,,,,,,,,,
297847,2022-10-06_23h48.55.340,vts_reward_expectancy,2022.2.4,MacIntel,120.0048002,Chrome,1728,1080,,,l,1.081,10,94,0,1,10,22,4,1,0,1,0,0,0,0,1,0,circle,hexagon,,,,,,,,,,,,,,,,,,,,,,,,,,,,,,,,,,,,,,,,,,,,,,,,,,,,,,
297847,2022-10-06_23h48.55.340,vts_reward_expectancy,2022.2.4,MacIntel,120.0048002,Chrome,1728,1080,,,l,2.8172,1,95,0,1,11,23,5,1,0,1,0,0,0,0,0,1,circle,star,,,,,,,,,,,,,,,,,,,,,,,,,,,,,,,,,,,,,,,,,,,,,,,,,,,,,,
297847,2022-10-06_23h48.55.340,vts_reward_expectancy,2022.2.4,MacIntel,120.0048002,Chrome,1728,1080,,,l,0.7981,10,105,0,2,0,24,9,1,0,0,0,1,1,0,0,0,star,triangle,,,,,,,,,,,,,,,,,,,,,,,,,,,,,,,,,,,,,,,,,,,,,,,,,,,,,,
297847,2022-10-06_23h48.55.340,vts_reward_expectancy,2022.2.4,MacIntel,120.0048002,Chrome,1728,1080,,,a,2.6301,10,115,0,2,1,25,3,1,0,1,0,0,1,0,0,0,circle,triangle,,,,,,,,,,,,,,,,,,,,,,,,,,,,,,,,,,,,,,,,,,,,,,,,,,,,,,
297847,2022-10-06_23h48.55.340,vts_reward_expectancy,2022.2.4,MacIntel,120.0048002,Chrome,1728,1080,,,l,1.0338,10,125,0,2,2,26,1,1,1,0,0,0,0,0,1,0,triangle,hexagon,,,,,,,,,,,,,,,,,,,,,,,,,,,,,,,,,,,,,,,,,,,,,,,,,,,,,,
297847,2022-10-06_23h48.55.340,vts_reward_expectancy,2022.2.4,MacIntel,120.0048002,Chrome,1728,1080,,,a,0.7837,1,126,0,2,3,27,6,1,0,0,1,0,1,0,0,0,hexagon,triangle,,,,,,,,,,,,,,,,,,,,,,,,,,,,,,,,,,,,,,,,,,,,,,,,,,,,,,
297847,2022-10-06_23h48.55.340,vts_reward_expectancy,2022.2.4,MacIntel,120.0048002,Chrome,1728,1080,,,a,0.9084,10,136,0,2,4,28,7,1,0,0,1,0,0,1,0,0,hexagon,circle,,,,,,,,,,,,,,,,,,,,,,,,,,,,,,,,,,,,,,,,,,,,,,,,,,,,,,
297847,2022-10-06_23h48.55.340,vts_reward_expectancy,2022.2.4,MacIntel,120.0048002,Chrome,1728,1080,,,a,1.1421,10,146,0,2,5,29,10,1,0,0,0,1,0,1,0,0,star ,circle,,,,,,,,,,,,,,,,,,,,,,,,,,,,,,,,,,,,,,,,,,,,,,,,,,,,,,
297847,2022-10-06_23h48.55.340,vts_reward_expectancy,2022.2.4,MacIntel,120.0048002,Chrome,1728,1080,,,l,1.0576,1,147,0,2,6,30,0,1,1,0,0,0,0,1,0,0,triangle,circle,,,,,,,,,,,,,,,,,,,,,,,,,,,,,,,,,,,,,,,,,,,,,,,,,,,,,,
297847,2022-10-06_23h48.55.340,vts_reward_expectancy,2022.2.4,MacIntel,120.0048002,Chrome,1728,1080,,,l,1.3787,10,157,0,2,7,31,11,1,0,0,0,1,0,0,1,0,star,hexagon,,,,,,,,,,,,,,,,,,,,,,,,,,,,,,,,,,,,,,,,,,,,,,,,,,,,,,
297847,2022-10-06_23h48.55.340,vts_reward_expectancy,2022.2.4,MacIntel,120.0048002,Chrome,1728,1080,,,l,1.7902,1,158,0,2,8,32,5,1,0,1,0,0,0,0,0,1,circle,star,,,,,,,,,,,,,,,,,,,,,,,,,,,,,,,,,,,,,,,,,,,,,,,,,,,,,,
297847,2022-10-06_23h48.55.340,vts_reward_expectancy,2022.2.4,MacIntel,120.0048002,Chrome,1728,1080,,,l,0.8706,10,168,0,2,9,33,4,1,0,1,0,0,0,0,1,0,circle,hexagon,,,,,,,,,,,,,,,,,,,,,,,,,,,,,,,,,,,,,,,,,,,,,,,,,,,,,,
297847,2022-10-06_23h48.55.340,vts_reward_expectancy,2022.2.4,MacIntel,120.0048002,Chrome,1728,1080,,,a,1.5059,10,178,0,2,10,34,2,1,1,0,0,0,0,0,0,1,triangle,star,,,,,,,,,,,,,,,,,,,,,,,,,,,,,,,,,,,,,,,,,,,,,,,,,,,,,,
297847,2022-10-06_23h48.55.340,vts_reward_expectancy,2022.2.4,MacIntel,120.0048002,Chrome,1728,1080,,,a,1.6162,1,179,0,2,11,35,8,1,0,0,1,0,0,0,0,1,hexagon,star,,,,,,,,,,,,,,,,,,,,,,,,,,,,,,,,,,,,,,,,,,,,,,,,,,,,,,
297847,2022-10-06_23h48.55.340,vts_reward_expectancy,2022.2.4,MacIntel,120.0048002,Chrome,1728,1080,,,a,1.2622,10,189,1,0,0,0,7,1,0,0,1,0,0,1,0,0,hexagon,circle,,,,,,,,,,,,,,,,,,,,,,,,,,,,,,,,,,,,,,,,,,,,,,,,,,,,,,
297847,2022-10-06_23h48.55.340,vts_reward_expectancy,2022.2.4,MacIntel,120.0048002,Chrome,1728,1080,,,l,1.1002,1,190,1,0,1,1,4,1,0,1,0,0,0,0,1,0,circle,hexagon,,,,,,,,,,,,,,,,,,,,,,,,,,,,,,,,,,,,,,,,,,,,,,,,,,,,,,
297847,2022-10-06_23h48.55.340,vts_reward_expectancy,2022.2.4,MacIntel,120.0048002,Chrome,1728,1080,,,l,2.2087,10,200,1,0,2,2,5,1,0,1,0,0,0,0,0,1,circle,star,,,,,,,,,,,,,,,,,,,,,,,,,,,,,,,,,,,,,,,,,,,,,,,,,,,,,,
297847,2022-10-06_23h48.55.340,vts_reward_expectancy,2022.2.4,MacIntel,120.0048002,Chrome,1728,1080,,,l,1.7298,1,201,1,0,3,3,8,1,0,0,1,0,0,0,0,1,hexagon,star,,,,,,,,,,,,,,,,,,,,,,,,,,,,,,,,,,,,,,,,,,,,,,,,,,,,,,
297847,2022-10-06_23h48.55.340,vts_reward_expectancy,2022.2.4,MacIntel,120.0048002,Chrome,1728,1080,,,a,1.3085,10,211,1,0,4,4,1,1,1,0,0,0,0,0,1,0,triangle,hexagon,,,,,,,,,,,,,,,,,,,,,,,,,,,,,,,,,,,,,,,,,,,,,,,,,,,,,,
297847,2022-10-06_23h48.55.340,vts_reward_expectancy,2022.2.4,MacIntel,120.0048002,Chrome,1728,1080,,,a,5.3068,1,212,1,0,5,5,11,1,0,0,0,1,0,0,1,0,star,hexagon,,,,,,,,,,,,,,,,,,,,,,,,,,,,,,,,,,,,,,,,,,,,,,,,,,,,,,
297847,2022-10-06_23h48.55.340,vts_reward_expectancy,2022.2.4,MacIntel,120.0048002,Chrome,1728,1080,,,a,2.6569,1,213,1,0,6,6,10,1,0,0,0,1,0,1,0,0,star ,circle,,,,,,,,,,,,,,,,,,,,,,,,,,,,,,,,,,,,,,,,,,,,,,,,,,,,,,
297847,2022-10-06_23h48.55.340,vts_reward_expectancy,2022.2.4,MacIntel,120.0048002,Chrome,1728,1080,,,l,1.6735,1,214,1,0,7,7,2,1,1,0,0,0,0,0,0,1,triangle,star,,,,,,,,,,,,,,,,,,,,,,,,,,,,,,,,,,,,,,,,,,,,,,,,,,,,,,
297847,2022-10-06_23h48.55.340,vts_reward_expectancy,2022.2.4,MacIntel,120.0048002,Chrome,1728,1080,,,a,1.091,10,224,1,0,8,8,6,1,0,0,1,0,1,0,0,0,hexagon,triangle,,,,,,,,,,,,,,,,,,,,,,,,,,,,,,,,,,,,,,,,,,,,,,,,,,,,,,
297847,2022-10-06_23h48.55.340,vts_reward_expectancy,2022.2.4,MacIntel,120.0048002,Chrome,1728,1080,,,l,1.3572,10,234,1,0,9,9,3,1,0,1,0,0,1,0,0,0,circle,triangle,,,,,,,,,,,,,,,,,,,,,,,,,,,,,,,,,,,,,,,,,,,,,,,,,,,,,,
297847,2022-10-06_23h48.55.340,vts_reward_expectancy,2022.2.4,MacIntel,120.0048002,Chrome,1728,1080,,,l,1.3002,10,244,1,0,10,10,9,1,0,0,0,1,1,0,0,0,star,triangle,,,,,,,,,,,,,,,,,,,,,,,,,,,,,,,,,,,,,,,,,,,,,,,,,,,,,,
297847,2022-10-06_23h48.55.340,vts_reward_expectancy,2022.2.4,MacIntel,120.0048002,Chrome,1728,1080,,,a,1.4263,1,245,1,0,11,11,0,1,1,0,0,0,0,1,0,0,triangle,circle,,,,,,,,,,,,,,,,,,,,,,,,,,,,,,,,,,,,,,,,,,,,,,,,,,,,,,
297847,2022-10-06_23h48.55.340,vts_reward_expectancy,2022.2.4,MacIntel,120.0048002,Chrome,1728,1080,,,l,1.9637,1,246,1,1,0,12,8,1,0,0,1,0,0,0,0,1,hexagon,star,,,,,,,,,,,,,,,,,,,,,,,,,,,,,,,,,,,,,,,,,,,,,,,,,,,,,,
297847,2022-10-06_23h48.55.340,vts_reward_expectancy,2022.2.4,MacIntel,120.0048002,Chrome,1728,1080,,,l,1.1095,10,256,1,1,1,13,4,1,0,1,0,0,0,0,1,0,circle,hexagon,,,,,,,,,,,,,,,,,,,,,,,,,,,,,,,,,,,,,,,,,,,,,,,,,,,,,,
297847,2022-10-06_23h48.55.340,vts_reward_expectancy,2022.2.4,MacIntel,120.0048002,Chrome,1728,1080,,,a,1.1839,1,257,1,1,2,14,11,1,0,0,0,1,0,0,1,0,star,hexagon,,,,,,,,,,,,,,,,,,,,,,,,,,,,,,,,,,,,,,,,,,,,,,,,,,,,,,
297847,2022-10-06_23h48.55.340,vts_reward_expectancy,2022.2.4,MacIntel,120.0048002,Chrome,1728,1080,,,l,1.2053,10,267,1,1,3,15,9,1,0,0,0,1,1,0,0,0,star,triangle,,,,,,,,,,,,,,,,,,,,,,,,,,,,,,,,,,,,,,,,,,,,,,,,,,,,,,
297847,2022-10-06_23h48.55.340,vts_reward_expectancy,2022.2.4,MacIntel,120.0048002,Chrome,1728,1080,,,l,0.8757,1,268,1,1,4,16,3,1,0,1,0,0,1,0,0,0,circle,triangle,,,,,,,,,,,,,,,,,,,,,,,,,,,,,,,,,,,,,,,,,,,,,,,,,,,,,,
297847,2022-10-06_23h48.55.340,vts_reward_expectancy,2022.2.4,MacIntel,120.0048002,Chrome,1728,1080,,,l,1.5356,1,269,1,1,5,17,5,1,0,1,0,0,0,0,0,1,circle,star,,,,,,,,,,,,,,,,,,,,,,,,,,,,,,,,,,,,,,,,,,,,,,,,,,,,,,
297847,2022-10-06_23h48.55.340,vts_reward_expectancy,2022.2.4,MacIntel,120.0048002,Chrome,1728,1080,,,a,1.912,1,270,1,1,6,18,6,1,0,0,1,0,1,0,0,0,hexagon,triangle,,,,,,,,,,,,,,,,,,,,,,,,,,,,,,,,,,,,,,,,,,,,,,,,,,,,,,
297847,2022-10-06_23h48.55.340,vts_reward_expectancy,2022.2.4,MacIntel,120.0048002,Chrome,1728,1080,,,a,1.0846,10,280,1,1,7,19,7,1,0,0,1,0,0,1,0,0,hexagon,circle,,,,,,,,,,,,,,,,,,,,,,,,,,,,,,,,,,,,,,,,,,,,,,,,,,,,,,
297847,2022-10-06_23h48.55.340,vts_reward_expectancy,2022.2.4,MacIntel,120.0048002,Chrome,1728,1080,,,l,3.0118,10,290,1,1,8,20,10,1,0,0,0,1,0,1,0,0,star ,circle,,,,,,,,,,,,,,,,,,,,,,,,,,,,,,,,,,,,,,,,,,,,,,,,,,,,,,
297847,2022-10-06_23h48.55.340,vts_reward_expectancy,2022.2.4,MacIntel,120.0048002,Chrome,1728,1080,,,a,1.385,1,291,1,1,9,21,0,1,1,0,0,0,0,1,0,0,triangle,circle,,,,,,,,,,,,,,,,,,,,,,,,,,,,,,,,,,,,,,,,,,,,,,,,,,,,,,
297847,2022-10-06_23h48.55.340,vts_reward_expectancy,2022.2.4,MacIntel,120.0048002,Chrome,1728,1080,,,l,1.9813,10,301,1,1,10,22,1,1,1,0,0,0,0,0,1,0,triangle,hexagon,,,,,,,,,,,,,,,,,,,,,,,,,,,,,,,,,,,,,,,,,,,,,,,,,,,,,,
297847,2022-10-06_23h48.55.340,vts_reward_expectancy,2022.2.4,MacIntel,120.0048002,Chrome,1728,1080,,,a,2.2343,10,311,1,1,11,23,2,1,1,0,0,0,0,0,0,1,triangle,star,,,,,,,,,,,,,,,,,,,,,,,,,,,,,,,,,,,,,,,,,,,,,,,,,,,,,,
297847,2022-10-06_23h48.55.340,vts_reward_expectancy,2022.2.4,MacIntel,120.0048002,Chrome,1728,1080,,,a,0.9851,10,321,1,2,0,24,0,1,1,0,0,0,0,1,0,0,triangle,circle,,,,,,,,,,,,,,,,,,,,,,,,,,,,,,,,,,,,,,,,,,,,,,,,,,,,,,
297847,2022-10-06_23h48.55.340,vts_reward_expectancy,2022.2.4,MacIntel,120.0048002,Chrome,1728,1080,,,l,1.2909,10,331,1,2,1,25,9,1,0,0,0,1,1,0,0,0,star,triangle,,,,,,,,,,,,,,,,,,,,,,,,,,,,,,,,,,,,,,,,,,,,,,,,,,,,,,
297847,2022-10-06_23h48.55.340,vts_reward_expectancy,2022.2.4,MacIntel,120.0048002,Chrome,1728,1080,,,a,2.0491,10,341,1,2,2,26,10,1,0,0,0,1,0,1,0,0,star ,circle,,,,,,,,,,,,,,,,,,,,,,,,,,,,,,,,,,,,,,,,,,,,,,,,,,,,,,
297847,2022-10-06_23h48.55.340,vts_reward_expectancy,2022.2.4,MacIntel,120.0048002,Chrome,1728,1080,,,l,1.301,10,351,1,2,3,27,4,1,0,1,0,0,0,0,1,0,circle,hexagon,,,,,,,,,,,,,,,,,,,,,,,,,,,,,,,,,,,,,,,,,,,,,,,,,,,,,,
297847,2022-10-06_23h48.55.340,vts_reward_expectancy,2022.2.4,MacIntel,120.0048002,Chrome,1728,1080,,,l,2.3511,10,361,1,2,4,28,6,1,0,0,1,0,1,0,0,0,hexagon,triangle,,,,,,,,,,,,,,,,,,,,,,,,,,,,,,,,,,,,,,,,,,,,,,,,,,,,,,
297847,2022-10-06_23h48.55.340,vts_reward_expectancy,2022.2.4,MacIntel,120.0048002,Chrome,1728,1080,,,a,1.8978,10,371,1,2,5,29,2,1,1,0,0,0,0,0,0,1,triangle,star,,,,,,,,,,,,,,,,,,,,,,,,,,,,,,,,,,,,,,,,,,,,,,,,,,,,,,
297847,2022-10-06_23h48.55.340,vts_reward_expectancy,2022.2.4,MacIntel,120.0048002,Chrome,1728,1080,,,l,2.3894,1,372,1,2,6,30,11,1,0,0,0,1,0,0,1,0,star,hexagon,,,,,,,,,,,,,,,,,,,,,,,,,,,,,,,,,,,,,,,,,,,,,,,,,,,,,,
297847,2022-10-06_23h48.55.340,vts_reward_expectancy,2022.2.4,MacIntel,120.0048002,Chrome,1728,1080,,,l,0.9813,1,373,1,2,7,31,3,1,0,1,0,0,1,0,0,0,circle,triangle,,,,,,,,,,,,,,,,,,,,,,,,,,,,,,,,,,,,,,,,,,,,,,,,,,,,,,
297847,2022-10-06_23h48.55.340,vts_reward_expectancy,2022.2.4,MacIntel,120.0048002,Chrome,1728,1080,,,a,1.5191,10,383,1,2,8,32,1,1,1,0,0,0,0,0,1,0,triangle,hexagon,,,,,,,,,,,,,,,,,,,,,,,,,,,,,,,,,,,,,,,,,,,,,,,,,,,,,,
297847,2022-10-06_23h48.55.340,vts_reward_expectancy,2022.2.4,MacIntel,120.0048002,Chrome,1728,1080,,,l,3.6668,1,384,1,2,9,33,5,1,0,1,0,0,0,0,0,1,circle,star,,,,,,,,,,,,,,,,,,,,,,,,,,,,,,,,,,,,,,,,,,,,,,,,,,,,,,
297847,2022-10-06_23h48.55.340,vts_reward_expectancy,2022.2.4,MacIntel,120.0048002,Chrome,1728,1080,,,a,1.0311,10,394,1,2,10,34,7,1,0,0,1,0,0,1,0,0,hexagon,circle,,,,,,,,,,,,,,,,,,,,,,,,,,,,,,,,,,,,,,,,,,,,,,,,,,,,,,
297847,2022-10-06_23h48.55.340,vts_reward_expectancy,2022.2.4,MacIntel,120.0048002,Chrome,1728,1080,,,l,1.9335,1,395,1,2,11,35,8,1,0,0,1,0,0,0,0,1,hexagon,star,,,,,,,,,,,,,,,,,,,,,,,,,,,,,,,,,,,,,,,,,,,,,,,,,,,,,,
297847,2022-10-06_23h48.55.340,vts_reward_expectancy,2022.2.4,MacIntel,120.0048002,Chrome,1728,1080,,,l,2.4958,10,405,2,0,0,0,2,1,1,0,0,0,0,0,0,1,triangle,star,,,,,,,,,,,,,,,,,,,,,,,,,,,,,,,,,,,,,,,,,,,,,,,,,,,,,,
297847,2022-10-06_23h48.55.340,vts_reward_expectancy,2022.2.4,MacIntel,120.0048002,Chrome,1728,1080,,,a,2.6847,1,406,2,0,1,1,8,1,0,0,1,0,0,0,0,1,hexagon,star,,,,,,,,,,,,,,,,,,,,,,,,,,,,,,,,,,,,,,,,,,,,,,,,,,,,,,
297847,2022-10-06_23h48.55.340,vts_reward_expectancy,2022.2.4,MacIntel,120.0048002,Chrome,1728,1080,,,l,2.1299,10,416,2,0,2,2,10,1,0,0,0,1,0,1,0,0,star ,circle,,,,,,,,,,,,,,,,,,,,,,,,,,,,,,,,,,,,,,,,,,,,,,,,,,,,,,
297847,2022-10-06_23h48.55.340,vts_reward_expectancy,2022.2.4,MacIntel,120.0048002,Chrome,1728,1080,,,l,4.7503,1,417,2,0,3,3,5,1,0,1,0,0,0,0,0,1,circle,star,,,,,,,,,,,,,,,,,,,,,,,,,,,,,,,,,,,,,,,,,,,,,,,,,,,,,,
297847,2022-10-06_23h48.55.340,vts_reward_expectancy,2022.2.4,MacIntel,120.0048002,Chrome,1728,1080,,,a,1.2398,1,418,2,0,4,4,9,1,0,0,0,1,1,0,0,0,star,triangle,,,,,,,,,,,,,,,,,,,,,,,,,,,,,,,,,,,,,,,,,,,,,,,,,,,,,,
297847,2022-10-06_23h48.55.340,vts_reward_expectancy,2022.2.4,MacIntel,120.0048002,Chrome,1728,1080,,,l,1.6324,1,419,2,0,5,5,6,1,0,0,1,0,1,0,0,0,hexagon,triangle,,,,,,,,,,,,,,,,,,,,,,,,,,,,,,,,,,,,,,,,,,,,,,,,,,,,,,
297847,2022-10-06_23h48.55.340,vts_reward_expectancy,2022.2.4,MacIntel,120.0048002,Chrome,1728,1080,,,l,1.0749,10,429,2,0,6,6,4,1,0,1,0,0,0,0,1,0,circle,hexagon,,,,,,,,,,,,,,,,,,,,,,,,,,,,,,,,,,,,,,,,,,,,,,,,,,,,,,
297847,2022-10-06_23h48.55.340,vts_reward_expectancy,2022.2.4,MacIntel,120.0048002,Chrome,1728,1080,,,a,1.4342,1,430,2,0,7,7,11,1,0,0,0,1,0,0,1,0,star,hexagon,,,,,,,,,,,,,,,,,,,,,,,,,,,,,,,,,,,,,,,,,,,,,,,,,,,,,,
297847,2022-10-06_23h48.55.340,vts_reward_expectancy,2022.2.4,MacIntel,120.0048002,Chrome,1728,1080,,,l,1.533,1,431,2,0,8,8,7,1,0,0,1,0,0,1,0,0,hexagon,circle,,,,,,,,,,,,,,,,,,,,,,,,,,,,,,,,,,,,,,,,,,,,,,,,,,,,,,
297847,2022-10-06_23h48.55.340,vts_reward_expectancy,2022.2.4,MacIntel,120.0048002,Chrome,1728,1080,,,l,0.5719,10,441,2,0,9,9,1,1,1,0,0,0,0,0,1,0,triangle,hexagon,,,,,,,,,,,,,,,,,,,,,,,,,,,,,,,,,,,,,,,,,,,,,,,,,,,,,,
297847,2022-10-06_23h48.55.340,vts_reward_expectancy,2022.2.4,MacIntel,120.0048002,Chrome,1728,1080,,,l,1.1327,10,451,2,0,10,10,3,1,0,1,0,0,1,0,0,0,circle,triangle,,,,,,,,,,,,,,,,,,,,,,,,,,,,,,,,,,,,,,,,,,,,,,,,,,,,,,
297847,2022-10-06_23h48.55.340,vts_reward_expectancy,2022.2.4,MacIntel,120.0048002,Chrome,1728,1080,,,a,1.0262,1,452,2,0,11,11,0,1,1,0,0,0,0,1,0,0,triangle,circle,,,,,,,,,,,,,,,,,,,,,,,,,,,,,,,,,,,,,,,,,,,,,,,,,,,,,,
297847,2022-10-06_23h48.55.340,vts_reward_expectancy,2022.2.4,MacIntel,120.0048002,Chrome,1728,1080,,,l,0.6502,10,462,2,1,0,12,3,1,0,1,0,0,1,0,0,0,circle,triangle,,,,,,,,,,,,,,,,,,,,,,,,,,,,,,,,,,,,,,,,,,,,,,,,,,,,,,
297847,2022-10-06_23h48.55.340,vts_reward_expectancy,2022.2.4,MacIntel,120.0048002,Chrome,1728,1080,,,l,1.3003,1,463,2,1,1,13,4,1,0,1,0,0,0,0,1,0,circle,hexagon,,,,,,,,,,,,,,,,,,,,,,,,,,,,,,,,,,,,,,,,,,,,,,,,,,,,,,
297847,2022-10-06_23h48.55.340,vts_reward_expectancy,2022.2.4,MacIntel,120.0048002,Chrome,1728,1080,,,l,1.192,1,464,2,1,2,14,7,1,0,0,1,0,0,1,0,0,hexagon,circle,,,,,,,,,,,,,,,,,,,,,,,,,,,,,,,,,,,,,,,,,,,,,,,,,,,,,,
297847,2022-10-06_23h48.55.340,vts_reward_expectancy,2022.2.4,MacIntel,120.0048002,Chrome,1728,1080,,,a,2.3636,10,474,2,1,3,15,0,1,1,0,0,0,0,1,0,0,triangle,circle,,,,,,,,,,,,,,,,,,,,,,,,,,,,,,,,,,,,,,,,,,,,,,,,,,,,,,
297847,2022-10-06_23h48.55.340,vts_reward_expectancy,2022.2.4,MacIntel,120.0048002,Chrome,1728,1080,,,l,4.1522,10,484,2,1,4,16,11,1,0,0,0,1,0,0,1,0,star,hexagon,,,,,,,,,,,,,,,,,,,,,,,,,,,,,,,,,,,,,,,,,,,,,,,,,,,,,,
297847,2022-10-06_23h48.55.340,vts_reward_expectancy,2022.2.4,MacIntel,120.0048002,Chrome,1728,1080,,,l,2.2413,10,494,2,1,5,17,2,1,1,0,0,0,0,0,0,1,triangle,star,,,,,,,,,,,,,,,,,,,,,,,,,,,,,,,,,,,,,,,,,,,,,,,,,,,,,,
297847,2022-10-06_23h48.55.340,vts_reward_expectancy,2022.2.4,MacIntel,120.0048002,Chrome,1728,1080,,,a,1.4672,1,495,2,1,6,18,9,1,0,0,0,1,1,0,0,0,star,triangle,,,,,,,,,,,,,,,,,,,,,,,,,,,,,,,,,,,,,,,,,,,,,,,,,,,,,,
297847,2022-10-06_23h48.55.340,vts_reward_expectancy,2022.2.4,MacIntel,120.0048002,Chrome,1728,1080,,,a,1.2406,10,505,2,1,7,19,5,1,0,1,0,0,0,0,0,1,circle,star,,,,,,,,,,,,,,,,,,,,,,,,,,,,,,,,,,,,,,,,,,,,,,,,,,,,,,
297847,2022-10-06_23h48.55.340,vts_reward_expectancy,2022.2.4,MacIntel,120.0048002,Chrome,1728,1080,,,a,3.0657,10,515,2,1,8,20,1,1,1,0,0,0,0,0,1,0,triangle,hexagon,,,,,,,,,,,,,,,,,,,,,,,,,,,,,,,,,,,,,,,,,,,,,,,,,,,,,,
297847,2022-10-06_23h48.55.340,vts_reward_expectancy,2022.2.4,MacIntel,120.0048002,Chrome,1728,1080,,,a,1.8087,10,525,2,1,9,21,10,1,0,0,0,1,0,1,0,0,star ,circle,,,,,,,,,,,,,,,,,,,,,,,,,,,,,,,,,,,,,,,,,,,,,,,,,,,,,,
297847,2022-10-06_23h48.55.340,vts_reward_expectancy,2022.2.4,MacIntel,120.0048002,Chrome,1728,1080,,,a,0.9167,1,526,2,1,10,22,8,1,0,0,1,0,0,0,0,1,hexagon,star,,,,,,,,,,,,,,,,,,,,,,,,,,,,,,,,,,,,,,,,,,,,,,,,,,,,,,
297847,2022-10-06_23h48.55.340,vts_reward_expectancy,2022.2.4,MacIntel,120.0048002,Chrome,1728,1080,,,l,2.5416,10,536,2,1,11,23,6,1,0,0,1,0,1,0,0,0,hexagon,triangle,,,,,,,,,,,,,,,,,,,,,,,,,,,,,,,,,,,,,,,,,,,,,,,,,,,,,,
297847,2022-10-06_23h48.55.340,vts_reward_expectancy,2022.2.4,MacIntel,120.0048002,Chrome,1728,1080,,,l,1.8243,1,537,2,2,0,24,4,1,0,1,0,0,0,0,1,0,circle,hexagon,,,,,,,,,,,,,,,,,,,,,,,,,,,,,,,,,,,,,,,,,,,,,,,,,,,,,,
297847,2022-10-06_23h48.55.340,vts_reward_expectancy,2022.2.4,MacIntel,120.0048002,Chrome,1728,1080,,,a,1.1418,1,538,2,2,1,25,5,1,0,1,0,0,0,0,0,1,circle,star,,,,,,,,,,,,,,,,,,,,,,,,,,,,,,,,,,,,,,,,,,,,,,,,,,,,,,
297847,2022-10-06_23h48.55.340,vts_reward_expectancy,2022.2.4,MacIntel,120.0048002,Chrome,1728,1080,,,l,1.4826,1,539,2,2,2,26,11,1,0,0,0,1,0,0,1,0,star,hexagon,,,,,,,,,,,,,,,,,,,,,,,,,,,,,,,,,,,,,,,,,,,,,,,,,,,,,,
297847,2022-10-06_23h48.55.340,vts_reward_expectancy,2022.2.4,MacIntel,120.0048002,Chrome,1728,1080,,,a,1.4486,1,540,2,2,3,27,9,1,0,0,0,1,1,0,0,0,star,triangle,,,,,,,,,,,,,,,,,,,,,,,,,,,,,,,,,,,,,,,,,,,,,,,,,,,,,,
297847,2022-10-06_23h48.55.340,vts_reward_expectancy,2022.2.4,MacIntel,120.0048002,Chrome,1728,1080,,,l,1.3161,10,550,2,2,4,28,10,1,0,0,0,1,0,1,0,0,star ,circle,,,,,,,,,,,,,,,,,,,,,,,,,,,,,,,,,,,,,,,,,,,,,,,,,,,,,,
297847,2022-10-06_23h48.55.340,vts_reward_expectancy,2022.2.4,MacIntel,120.0048002,Chrome,1728,1080,,,l,1.5676,1,551,2,2,5,29,8,1,0,0,1,0,0,0,0,1,hexagon,star,,,,,,,,,,,,,,,,,,,,,,,,,,,,,,,,,,,,,,,,,,,,,,,,,,,,,,
297847,2022-10-06_23h48.55.340,vts_reward_expectancy,2022.2.4,MacIntel,120.0048002,Chrome,1728,1080,,,l,0.6819,10,561,2,2,6,30,1,1,1,0,0,0,0,0,1,0,triangle,hexagon,,,,,,,,,,,,,,,,,,,,,,,,,,,,,,,,,,,,,,,,,,,,,,,,,,,,,,
297847,2022-10-06_23h48.55.340,vts_reward_expectancy,2022.2.4,MacIntel,120.0048002,Chrome,1728,1080,,,l,1.2686,1,562,2,2,7,31,2,1,1,0,0,0,0,0,0,1,triangle,star,,,,,,,,,,,,,,,,,,,,,,,,,,,,,,,,,,,,,,,,,,,,,,,,,,,,,,
297847,2022-10-06_23h48.55.340,vts_reward_expectancy,2022.2.4,MacIntel,120.0048002,Chrome,1728,1080,,,a,0.9802,10,572,2,2,8,32,3,1,0,1,0,0,1,0,0,0,circle,triangle,,,,,,,,,,,,,,,,,,,,,,,,,,,,,,,,,,,,,,,,,,,,,,,,,,,,,,
297847,2022-10-06_23h48.55.340,vts_reward_expectancy,2022.2.4,MacIntel,120.0048002,Chrome,1728,1080,,,l,1.2405,1,573,2,2,9,33,7,1,0,0,1,0,0,1,0,0,hexagon,circle,,,,,,,,,,,,,,,,,,,,,,,,,,,,,,,,,,,,,,,,,,,,,,,,,,,,,,
297847,2022-10-06_23h48.55.340,vts_reward_expectancy,2022.2.4,MacIntel,120.0048002,Chrome,1728,1080,,,l,1.2093,1,574,2,2,10,34,6,1,0,0,1,0,1,0,0,0,hexagon,triangle,,,,,,,,,,,,,,,,,,,,,,,,,,,,,,,,,,,,,,,,,,,,,,,,,,,,,,
297847,2022-10-06_23h48.55.340,vts_reward_expectancy,2022.2.4,MacIntel,120.0048002,Chrome,1728,1080,,,l,1.0481,1,575,2,2,11,35,0,1,1,0,0,0,0,1,0,0,triangle,circle,,,,,,,,,,,,,,,,,,,,,,,,,,,,,,,,,,,,,,,,,,,,,,,,,,,,,,
297847,2022-10-06_23h48.55.340,vts_reward_expectancy,2022.2.4,MacIntel,120.0048002,Chrome,1728,1080,,,,,,,,,,,,,,,,,,,,,,,S,174,star,0,0,,0,0,0,0,0,1,,,,,,,,,,,,,,,,,,,,,,,,,,,,,,,,,,,,,,,,,,
297847,2022-10-06_23h48.55.340,vts_reward_expectancy,2022.2.4,MacIntel,120.0048002,Chrome,1728,1080,,,,,,,,,,,,,,,,,,,,,,,H,181,circle,0,1,,0,1,0,1,0,1,,,,,,,,,,,,,,,,,,,,,,,,,,,,,,,,,,,,,,,,,,
297847,2022-10-06_23h48.55.340,vts_reward_expectancy,2022.2.4,MacIntel,120.0048002,Chrome,1728,1080,,,,,,,,,,,,,,,,,,,,,,,F,132,triangle,0,1,,0,2,0,2,0,1,,,,,,,,,,,,,,,,,,,,,,,,,,,,,,,,,,,,,,,,,,
297847,2022-10-06_23h48.55.340,vts_reward_expectancy,2022.2.4,MacIntel,120.0048002,Chrome,1728,1080,,,,,,,,,,,,,,,,,,,,,,,U,167,hexagon,0,1,,0,3,0,3,0,1,,,,,,,,,,,,,,,,,,,,,,,,,,,,,,,,,,,,,,,,,,
297847,2022-10-06_23h48.55.340,vts_reward_expectancy,2022.2.4,MacIntel,120.0048002,Chrome,1728,1080,,,,,,,,,,,,,,,,,,,,,,,D,160,star,0,1,,0,4,0,4,0,1,,,,,,,,,,,,,,,,,,,,,,,,,,,,,,,,,,,,,,,,,,
297847,2022-10-06_23h48.55.340,vts_reward_expectancy,2022.2.4,MacIntel,120.0048002,Chrome,1728,1080,,,,,,,,,,,,,,,,,,,,,,,B,146,circle,0,1,,0,5,0,5,0,1,,,,,,,,,,,,,,,,,,,,,,,,,,,,,,,,,,,,,,,,,,
297847,2022-10-06_23h48.55.340,vts_reward_expectancy,2022.2.4,MacIntel,120.0048002,Chrome,1728,1080,,,,,,,,,,,,,,,,,,,,,,,W,139,triangle,0,1,,0,6,0,6,0,1,,,,,,,,,,,,,,,,,,,,,,,,,,,,,,,,,,,,,,,,,,
297847,2022-10-06_23h48.55.340,vts_reward_expectancy,2022.2.4,MacIntel,120.0048002,Chrome,1728,1080,,,,,,,,,,,,,,,,,,,,,,,Y,125,hexagon,0,1,,0,7,0,7,0,1,,,,,,,,,,,,,,,,,,,,,,,,,,,,,,,,,,,,,,,,,,
297847,2022-10-06_23h48.55.340,vts_reward_expectancy,2022.2.4,MacIntel,120.0048002,Chrome,1728,1080,,,,,,,,,,,,,,,,,,,,,,,S,174,hexagon,0,1,,0,8,0,8,0,1,,,,,,,,,,,,,,,,,,,,,,,,,,,,,,,,,,,,,,,,,,
297847,2022-10-06_23h48.55.340,vts_reward_expectancy,2022.2.4,MacIntel,120.0048002,Chrome,1728,1080,,,,,,,,,,,,,,,,,,,,,,,H,181,triangle,0,1,,0,9,0,9,0,1,,,,,,,,,,,,,,,,,,,,,,,,,,,,,,,,,,,,,,,,,,
297847,2022-10-06_23h48.55.340,vts_reward_expectancy,2022.2.4,MacIntel,120.0048002,Chrome,1728,1080,,,,,,,,,,,,,,,,,,,,,,,Y,174,circle,1,1,f,1,0,0,0,0,1,0.9253,,,,,,,,,,,,,,,,,,,,,,,,,,,,,,,,,,,,,,,,,
297847,2022-10-06_23h48.55.340,vts_reward_expectancy,2022.2.4,MacIntel,120.0048002,Chrome,1728,1080,,,,,,,,,,,,,,,,,,,,,,,H,146,hexagon,1,0,d,1,1,0,1,0,1,0.9696,,,,,,,,,,,,,,,,,,,,,,,,,,,,,,,,,,,,,,,,,
297847,2022-10-06_23h48.55.340,vts_reward_expectancy,2022.2.4,MacIntel,120.0048002,Chrome,1728,1080,,,,,,,,,,,,,,,,,,,,,,,S,167,triangle,1,0,f,1,2,0,2,0,1,0.9565,,,,,,,,,,,,,,,,,,,,,,,,,,,,,,,,,,,,,,,,,
297847,2022-10-06_23h48.55.340,vts_reward_expectancy,2022.2.4,MacIntel,120.0048002,Chrome,1728,1080,,,,,,,,,,,,,,,,,,,,,,,U,160,star,1,0,f,1,3,0,3,0,1,1.2342,,,,,,,,,,,,,,,,,,,,,,,,,,,,,,,,,,,,,,,,,
297847,2022-10-06_23h48.55.340,vts_reward_expectancy,2022.2.4,MacIntel,120.0048002,Chrome,1728,1080,,,,,,,,,,,,,,,,,,,,,,,W,132,circle,1,0,f,1,4,0,4,0,1,0.7343,,,,,,,,,,,,,,,,,,,,,,,,,,,,,,,,,,,,,,,,,
297847,2022-10-06_23h48.55.340,vts_reward_expectancy,2022.2.4,MacIntel,120.0048002,Chrome,1728,1080,,,,,,,,,,,,,,,,,,,,,,,D,125,hexagon,1,0,d,1,5,0,5,0,1,0.7699,,,,,,,,,,,,,,,,,,,,,,,,,,,,,,,,,,,,,,,,,
297847,2022-10-06_23h48.55.340,vts_reward_expectancy,2022.2.4,MacIntel,120.0048002,Chrome,1728,1080,,,,,,,,,,,,,,,,,,,,,,,F,139,triangle,1,0,d,1,6,0,6,0,1,0.8852,,,,,,,,,,,,,,,,,,,,,,,,,,,,,,,,,,,,,,,,,
297847,2022-10-06_23h48.55.340,vts_reward_expectancy,2022.2.4,MacIntel,120.0048002,Chrome,1728,1080,,,,,,,,,,,,,,,,,,,,,,,B,181,star,1,0,d,1,7,0,7,0,1,0.7379,,,,,,,,,,,,,,,,,,,,,,,,,,,,,,,,,,,,,,,,,
297847,2022-10-06_23h48.55.340,vts_reward_expectancy,2022.2.4,MacIntel,120.0048002,Chrome,1728,1080,,,,,,,,,,,,,,,,,,,,,,,Y,174,hexagon,1,0,f,1,8,0,8,0,1,0.8028,,,,,,,,,,,,,,,,,,,,,,,,,,,,,,,,,,,,,,,,,
297847,2022-10-06_23h48.55.340,vts_reward_expectancy,2022.2.4,MacIntel,120.0048002,Chrome,1728,1080,,,,,,,,,,,,,,,,,,,,,,,H,146,star,1,0,d,1,9,0,9,0,1,0.761,,,,,,,,,,,,,,,,,,,,,,,,,,,,,,,,,,,,,,,,,
297847,2022-10-06_23h48.55.340,vts_reward_expectancy,2022.2.4,MacIntel,120.0048002,Chrome,1728,1080,,,,,,,,,,,,,,,,,,,,,,,H,160,circle,1,0,,2,,,,,,,k,0.6979,0,0,0,0,1,,,,,,,,,,,,,,,,,,,,,,,,,,,,,,,,,,
297847,2022-10-06_23h48.55.340,vts_reward_expectancy,2022.2.4,MacIntel,120.0048002,Chrome,1728,1080,,,,,,,,,,,,,,,,,,,,,,,Y,181,triangle,1,0,,2,,,,,,,k,0.9352,1,0,1,0,1,,,,,,,,,,,,,,,,,,,,,,,,,,,,,,,,,,
297847,2022-10-06_23h48.55.340,vts_reward_expectancy,2022.2.4,MacIntel,120.0048002,Chrome,1728,1080,,,,,,,,,,,,,,,,,,,,,,,S,139,star,1,0,,2,,,,,,,j,0.8313,2,0,2,0,1,,,,,,,,,,,,,,,,,,,,,,,,,,,,,,,,,,
297847,2022-10-06_23h48.55.340,vts_reward_expectancy,2022.2.4,MacIntel,120.0048002,Chrome,1728,1080,,,,,,,,,,,,,,,,,,,,,,,D,132,hexagon,1,0,,2,,,,,,,j,0.53,3,0,3,0,1,,,,,,,,,,,,,,,,,,,,,,,,,,,,,,,,,,
297847,2022-10-06_23h48.55.340,vts_reward_expectancy,2022.2.4,MacIntel,120.0048002,Chrome,1728,1080,,,,,,,,,,,,,,,,,,,,,,,U,146,circle,1,0,,2,,,,,,,j,0.6661,4,0,4,0,1,,,,,,,,,,,,,,,,,,,,,,,,,,,,,,,,,,
297847,2022-10-06_23h48.55.340,vts_reward_expectancy,2022.2.4,MacIntel,120.0048002,Chrome,1728,1080,,,,,,,,,,,,,,,,,,,,,,,F,167,triangle,1,0,,2,,,,,,,k,0.5623,5,0,5,0,1,,,,,,,,,,,,,,,,,,,,,,,,,,,,,,,,,,
297847,2022-10-06_23h48.55.340,vts_reward_expectancy,2022.2.4,MacIntel,120.0048002,Chrome,1728,1080,,,,,,,,,,,,,,,,,,,,,,,B,174,star,1,0,,2,,,,,,,k,0.794,6,0,6,0,1,,,,,,,,,,,,,,,,,,,,,,,,,,,,,,,,,,
297847,2022-10-06_23h48.55.340,vts_reward_expectancy,2022.2.4,MacIntel,120.0048002,Chrome,1728,1080,,,,,,,,,,,,,,,,,,,,,,,W,125,hexagon,1,0,,2,,,,,,,j,0.7271,7,0,7,0,1,,,,,,,,,,,,,,,,,,,,,,,,,,,,,,,,,,
297847,2022-10-06_23h48.55.340,vts_reward_expectancy,2022.2.4,MacIntel,120.0048002,Chrome,1728,1080,,,,,,,,,,,,,,,,,,,,,,,H,160,circle,1,0,,2,,,,,,,k,0.7495,8,0,8,0,1,,,,,,,,,,,,,,,,,,,,,,,,,,,,,,,,,,
297847,2022-10-06_23h48.55.340,vts_reward_expectancy,2022.2.4,MacIntel,120.0048002,Chrome,1728,1080,,,,,,,,,,,,,,,,,,,,,,,Y,181,star,1,0,,2,,,,,,,k,0.9856,9,0,9,0,1,,,,,,,,,,,,,,,,,,,,,,,,,,,,,,,,,,
297847,2022-10-06_23h48.55.340,vts_reward_expectancy,2022.2.4,MacIntel,120.0048002,Chrome,1728,1080,,,,,0,575,,,,,,,,,,,,,,,,,Y,146,circle,1,0,,3,,,,,,,,,,,,,,-1,letter,NA,f,1.009,vtsPrac,0,0,0,0,1,,,,,,,,,,,,,,,,,,,,,,,
297847,2022-10-06_23h48.55.340,vts_reward_expectancy,2022.2.4,MacIntel,120.0048002,Chrome,1728,1080,,,,,0,575,,,,,,,,,,,,,,,,,W,139,hexagon,1,0,,3,,,,,,,,,,,,,,repeat,letter,lettRpt,f,0.74,vtsPrac,1,0,1,0,1,,,,,,,,,,,,,,,,,,,,,,,
297847,2022-10-06_23h48.55.340,vts_reward_expectancy,2022.2.4,MacIntel,120.0048002,Chrome,1728,1080,,,,,0,575,,,,,,,,,,,,,,,,,B,160,circle,1,0,,3,,,,,,,,,,,,,,switch,number,numSwt,k,0.6556,vtsPrac,2,0,2,0,1,,,,,,,,,,,,,,,,,,,,,,,
297847,2022-10-06_23h48.55.340,vts_reward_expectancy,2022.2.4,MacIntel,120.0048002,Chrome,1728,1080,,,,,0,575,,,,,,,,,,,,,,,,,H,174,hexagon,1,0,,3,,,,,,,,,,,,,,switch,letter,lettSwt,d,0.9667,vtsPrac,3,0,3,0,1,,,,,,,,,,,,,,,,,,,,,,,
297847,2022-10-06_23h48.55.340,vts_reward_expectancy,2022.2.4,MacIntel,120.0048002,Chrome,1728,1080,,,,,0,575,,,,,,,,,,,,,,,,,Y,146,hexagon,1,0,,3,,,,,,,,,,,,,,repeat,letter,lettRpt,f,0.6233,vtsPrac,4,0,4,0,1,,,,,,,,,,,,,,,,,,,,,,,
297847,2022-10-06_23h48.55.340,vts_reward_expectancy,2022.2.4,MacIntel,120.0048002,Chrome,1728,1080,,,,,0,575,,,,,,,,,,,,,,,,,W,139,star,1,0,,3,,,,,,,,,,,,,,switch,number,numSwt,j,0.7468,vtsPrac,5,0,5,0,1,,,,,,,,,,,,,,,,,,,,,,,
297847,2022-10-06_23h48.55.340,vts_reward_expectancy,2022.2.4,MacIntel,120.0048002,Chrome,1728,1080,,,,,0,575,,,,,,,,,,,,,,,,,B,160,triangle,1,0,,3,,,,,,,,,,,,,,repeat,number,numRpt,k,0.946,vtsPrac,6,0,6,0,1,,,,,,,,,,,,,,,,,,,,,,,
297847,2022-10-06_23h48.55.340,vts_reward_expectancy,2022.2.4,MacIntel,120.0048002,Chrome,1728,1080,,,,,0,575,,,,,,,,,,,,,,,,,H,174,star,1,0,,3,,,,,,,,,,,,,,repeat,number,numRpt,k,0.6663,vtsPrac,7,0,7,0,1,,,,,,,,,,,,,,,,,,,,,,,
297847,2022-10-06_23h48.55.340,vts_reward_expectancy,2022.2.4,MacIntel,120.0048002,Chrome,1728,1080,,,,,0,575,,,,,,,,,,,,,,,,,H,181,triangle,1,0,,3,,,,,,,,,,,,,,switch,letter,lettSwt,d,0.6857,vtsPrac,8,0,8,0,1,,,,,,,,,,,,,,,,,,,,,,,
297847,2022-10-06_23h48.55.340,vts_reward_expectancy,2022.2.4,MacIntel,120.0048002,Chrome,1728,1080,,,,,0,575,,,,,,,,,,,,,,,,,B,146,circle,1,0,,3,,,,,,,,,,,,,,switch,number,numSwt,j,0.7141,vtsPrac,9,0,9,0,1,,,,,,,,,,,,,,,,,,,,,,,
297847,2022-10-06_23h48.55.340,vts_reward_expectancy,2022.2.4,MacIntel,120.0048002,Chrome,1728,1080,,,,,0,575,,,,,,,,,,,,,,,,,F,139,triangle,1,0,,3,,,,,,,,,,,,,,repeat,number,numRpt,j,0.5799,vtsPrac,10,0,10,0,1,,,,,,,,,,,,,,,,,,,,,,,
297847,2022-10-06_23h48.55.340,vts_reward_expectancy,2022.2.4,MacIntel,120.0048002,Chrome,1728,1080,,,,,0,575,,,,,,,,,,,,,,,,,D,174,hexagon,1,0,,3,,,,,,,,,,,,,,switch,letter,lettSwt,d,0.9038,vtsPrac,11,0,11,0,1,,,,,,,,,,,,,,,,,,,,,,,
297847,2022-10-06_23h48.55.340,vts_reward_expectancy,2022.2.4,MacIntel,120.0048002,Chrome,1728,1080,,,,,0,575,,,,,,,,,,,,,,,,,S,167,hexagon,1,0,,3,,,,,,,,,,,,,,repeat,letter,lettRpt,f,1.0403,vtsPrac,12,0,12,0,1,,,,,,,,,,,,,,,,,,,,,,,
297847,2022-10-06_23h48.55.340,vts_reward_expectancy,2022.2.4,MacIntel,120.0048002,Chrome,1728,1080,,,,,0,575,,,,,,,,,,,,,,,,,B,181,circle,1,0,,3,,,,,,,,,,,,,,repeat,letter,lettRpt,d,0.7629,vtsPrac,13,0,13,0,1,,,,,,,,,,,,,,,,,,,,,,,
297847,2022-10-06_23h48.55.340,vts_reward_expectancy,2022.2.4,MacIntel,120.0048002,Chrome,1728,1080,,,,,0,575,,,,,,,,,,,,,,,,,F,146,star,1,0,,3,,,,,,,,,,,,,,repeat,letter,lettRpt,d,0.8313,vtsPrac,14,0,14,0,1,,,,,,,,,,,,,,,,,,,,,,,
297847,2022-10-06_23h48.55.340,vts_reward_expectancy,2022.2.4,MacIntel,120.0048002,Chrome,1728,1080,,,,,0,575,,,,,,,,,,,,,,,,,U,174,hexagon,1,0,,3,,,,,,,,,,,,,,switch,number,numSwt,k,0.5867,vtsPrac,15,0,15,0,1,,,,,,,,,,,,,,,,,,,,,,,
297847,2022-10-06_23h48.55.340,vts_reward_expectancy,2022.2.4,MacIntel,120.0048002,Chrome,1728,1080,,,,,,,,,,,,,,,,,,,,,,,,,,,,,,,,,,,,,,,,,,,,,,,,,,,,,,,,,,,,,,,,,,,,,,,,,,,,
297847,2022-10-06_23h48.55.340,vts_reward_expectancy,2022.2.4,MacIntel,120.0048002,Chrome,1728,1080,,,,,,,,,,,,,,,,,,,,,,,,,,,,,,,,,,,,,,,,,,,,,,,,,,,,,,,,,,,,,,,,,,,,,,,,,,,,
297847,2022-10-06_23h48.55.340,vts_reward_expectancy,2022.2.4,MacIntel,120.0048002,Chrome,1728,1080,,,,,0,575,,,,,,,,,,,,,,,,,H,167,star,1,0,,,,,,,,,,,,,,,,switch,letter,lettSwt,d,0.9699,noRew,,,,,,0,0,0,0,0,1,,,,,,,,,,,,,,,,,
297847,2022-10-06_23h48.55.340,vts_reward_expectancy,2022.2.4,MacIntel,120.0048002,Chrome,1728,1080,,,,,0,575,,,,,,,,,,,,,,,,,S,181,hexagon,1,0,,,,,,,,,,,,,,,,repeat,letter,lettRpt,f,1.1035,noRew,,,,,,0,1,0,1,0,1,,,,,,,,,,,,,,,,,
297847,2022-10-06_23h48.55.340,vts_reward_expectancy,2022.2.4,MacIntel,120.0048002,Chrome,1728,1080,,,,,0,575,,,,,,,,,,,,,,,,,D,132,star,1,0,,,,,,,,,,,,,,,,repeat,letter,lettRpt,d,0.7263,noRew,,,,,,0,2,0,2,0,1,,,,,,,,,,,,,,,,,
297847,2022-10-06_23h48.55.340,vts_reward_expectancy,2022.2.4,MacIntel,120.0048002,Chrome,1728,1080,,,,,0,575,,,,,,,,,,,,,,,,,U,146,hexagon,1,0,,,,,,,,,,,,,,,,switch,number,numSwt,j,0.713,noRew,,,,,,0,3,0,3,0,1,,,,,,,,,,,,,,,,,
297847,2022-10-06_23h48.55.340,vts_reward_expectancy,2022.2.4,MacIntel,120.0048002,Chrome,1728,1080,,,,,0,575,,,,,,,,,,,,,,,,,H,167,circle,1,0,,,,,,,,,,,,,,,,repeat,number,numRpt,k,0.8178,noRew,,,,,,0,4,0,4,0,1,,,,,,,,,,,,,,,,,
297847,2022-10-06_23h48.55.340,vts_reward_expectancy,2022.2.4,MacIntel,120.0048002,Chrome,1728,1080,,,,,0,575,,,,,,,,,,,,,,,,,S,181,triangle,1,0,,,,,,,,,,,,,,,,switch,letter,lettSwt,f,0.9398,noRew,,,,,,0,5,0,5,0,1,,,,,,,,,,,,,,,,,
297847,2022-10-06_23h48.55.340,vts_reward_expectancy,2022.2.4,MacIntel,120.0048002,Chrome,1728,1080,,,,,0,575,,,,,,,,,,,,,,,,,D,132,hexagon,1,0,,,,,,,,,,,,,,,,repeat,letter,lettRpt,d,0.7616,noRew,,,,,,0,6,0,6,0,1,,,,,,,,,,,,,,,,,
297847,2022-10-06_23h48.55.340,vts_reward_expectancy,2022.2.4,MacIntel,120.0048002,Chrome,1728,1080,,,,,0,575,,,,,,,,,,,,,,,,,U,146,circle,1,0,,,,,,,,,,,,,,,,switch,number,numSwt,j,0.6644,noRew,,,,,,0,7,0,7,0,1,,,,,,,,,,,,,,,,,
297847,2022-10-06_23h48.55.340,vts_reward_expectancy,2022.2.4,MacIntel,120.0048002,Chrome,1728,1080,,,,,0,575,,,,,,,,,,,,,,,,,U,167,triangle,1,0,,,,,,,,,,,,,,,,repeat,number,numRpt,k,1.8645,noRew,,,,,,0,8,0,8,0,1,,,,,,,,,,,,,,,,,
297847,2022-10-06_23h48.55.340,vts_reward_expectancy,2022.2.4,MacIntel,120.0048002,Chrome,1728,1080,,,,,0,575,,,,,,,,,,,,,,,,,F,132,circle,1,0,,,,,,,,,,,,,,,,switch,letter,lettSwt,d,0.9451,noRew,,,,,,0,9,0,9,0,1,,,,,,,,,,,,,,,,,
297847,2022-10-06_23h48.55.340,vts_reward_expectancy,2022.2.4,MacIntel,120.0048002,Chrome,1728,1080,,,,,0,575,,,,,,,,,,,,,,,,,Y,139,circle,1,0,,,,,,,,,,,,,,,,switch,number,numSwt,j,1.146,noRew,,,,,,0,10,0,10,0,1,,,,,,,,,,,,,,,,,
297847,2022-10-06_23h48.55.340,vts_reward_expectancy,2022.2.4,MacIntel,120.0048002,Chrome,1728,1080,,,,,0,575,,,,,,,,,,,,,,,,,S,160,star,1,0,,,,,,,,,,,,,,,,switch,letter,lettSwt,f,1.4711,noRew,,,,,,0,11,0,11,0,1,,,,,,,,,,,,,,,,,
297847,2022-10-06_23h48.55.340,vts_reward_expectancy,2022.2.4,MacIntel,120.0048002,Chrome,1728,1080,,,,,0,575,,,,,,,,,,,,,,,,,F,125,hexagon,1,0,,,,,,,,,,,,,,,,repeat,letter,lettRpt,d,0.8522,noRew,,,,,,0,12,0,12,0,1,,,,,,,,,,,,,,,,,
297847,2022-10-06_23h48.55.340,vts_reward_expectancy,2022.2.4,MacIntel,120.0048002,Chrome,1728,1080,,,,,0,575,,,,,,,,,,,,,,,,,B,174,triangle,1,0,,,,,,,,,,,,,,,,repeat,letter,lettRpt,d,1.0478,noRew,,,,,,0,13,0,13,0,1,,,,,,,,,,,,,,,,,
297847,2022-10-06_23h48.55.340,vts_reward_expectancy,2022.2.4,MacIntel,120.0048002,Chrome,1728,1080,,,,,0,575,,,,,,,,,,,,,,,,,Y,146,circle,1,0,,,,,,,,,,,,,,,,switch,number,numSwt,j,1.3127,noRew,,,,,,0,14,0,14,0,1,,,,,,,,,,,,,,,,,
297847,2022-10-06_23h48.55.340,vts_reward_expectancy,2022.2.4,MacIntel,120.0048002,Chrome,1728,1080,,,,,0,575,,,,,,,,,,,,,,,,,S,181,triangle,1,0,,,,,,,,,,,,,,,,repeat,number,numRpt,k,0.629,noRew,,,,,,0,15,0,15,0,1,,,,,,,,,,,,,,,,,
297847,2022-10-06_23h48.55.340,vts_reward_expectancy,2022.2.4,MacIntel,120.0048002,Chrome,1728,1080,,,,,0,575,,,,,,,,,,,,,,,,,W,181,hexagon,1,0,,,,,,,,,,,,,,,,repeat,number,numRpt,k,0.6999,noRew,,,,,,0,16,0,16,0,1,,,,,,,,,,,,,,,,,
297847,2022-10-06_23h48.55.340,vts_reward_expectancy,2022.2.4,MacIntel,120.0048002,Chrome,1728,1080,,,,,0,575,,,,,,,,,,,,,,,,,S,139,circle,1,0,,,,,,,,,,,,,,,,switch,letter,lettSwt,f,0.9293,noRew,,,,,,0,17,0,17,0,1,,,,,,,,,,,,,,,,,
297847,2022-10-06_23h48.55.340,vts_reward_expectancy,2022.2.4,MacIntel,120.0048002,Chrome,1728,1080,,,,,0,575,,,,,,,,,,,,,,,,,F,125,circle,1,0,,,,,,,,,,,,,,,,repeat,letter,lettRpt,d,0.5712,noRew,,,,,,0,18,0,18,0,1,,,,,,,,,,,,,,,,,
297847,2022-10-06_23h48.55.340,vts_reward_expectancy,2022.2.4,MacIntel,120.0048002,Chrome,1728,1080,,,,,0,575,,,,,,,,,,,,,,,,,D,146,star,1,0,,,,,,,,,,,,,,,,switch,number,numSwt,j,0.8883,noRew,,,,,,0,19,0,19,0,1,,,,,,,,,,,,,,,,,
297847,2022-10-06_23h48.55.340,vts_reward_expectancy,2022.2.4,MacIntel,120.0048002,Chrome,1728,1080,,,,,0,575,,,,,,,,,,,,,,,,,U,132,hexagon,1,0,,,,,,,,,,,,,,,,repeat,number,numRpt,j,0.6542,noRew,,,,,,0,20,0,20,0,1,,,,,,,,,,,,,,,,,
297847,2022-10-06_23h48.55.340,vts_reward_expectancy,2022.2.4,MacIntel,120.0048002,Chrome,1728,1080,,,,,0,575,,,,,,,,,,,,,,,,,W,181,triangle,1,0,,,,,,,,,,,,,,,,switch,letter,lettSwt,f,0.5936,noRew,,,,,,0,21,0,21,0,1,,,,,,,,,,,,,,,,,
297847,2022-10-06_23h48.55.340,vts_reward_expectancy,2022.2.4,MacIntel,120.0048002,Chrome,1728,1080,,,,,0,575,,,,,,,,,,,,,,,,,Y,125,triangle,1,0,,,,,,,,,,,,,,,,repeat,letter,lettRpt,f,0.7151,noRew,,,,,,0,22,0,22,0,1,,,,,,,,,,,,,,,,,
297847,2022-10-06_23h48.55.340,vts_reward_expectancy,2022.2.4,MacIntel,120.0048002,Chrome,1728,1080,,,,,0,575,,,,,,,,,,,,,,,,,H,146,hexagon,1,0,,,,,,,,,,,,,,,,switch,number,numSwt,j,0.7199,noRew,,,,,,0,23,0,23,0,1,,,,,,,,,,,,,,,,,
297847,2022-10-06_23h48.55.340,vts_reward_expectancy,2022.2.4,MacIntel,120.0048002,Chrome,1728,1080,,,,,0,575,,,,,,,,,,,,,,,,,F,181,star,1,0,,,,,,,,,,,,,,,,repeat,number,numRpt,k,0.8048,noRew,,,,,,0,24,0,24,0,1,,,,,,,,,,,,,,,,,
297847,2022-10-06_23h48.55.340,vts_reward_expectancy,2022.2.4,MacIntel,120.0048002,Chrome,1728,1080,,,,,0,575,,,,,,,,,,,,,,,,,W,167,circle,1,0,,,,,,,,,,,,,,,,repeat,number,numRpt,k,0.9649,noRew,,,,,,0,25,0,25,0,1,,,,,,,,,,,,,,,,,
297847,2022-10-06_23h48.55.340,vts_reward_expectancy,2022.2.4,MacIntel,120.0048002,Chrome,1728,1080,,,,,0,575,,,,,,,,,,,,,,,,,D,139,circle,1,0,,,,,,,,,,,,,,,,switch,letter,lettSwt,d,1.2034,noRew,,,,,,0,26,0,26,0,1,,,,,,,,,,,,,,,,,
297847,2022-10-06_23h48.55.340,vts_reward_expectancy,2022.2.4,MacIntel,120.0048002,Chrome,1728,1080,,,,,0,575,,,,,,,,,,,,,,,,,U,160,star,1,0,,,,,,,,,,,,,,,,repeat,letter,lettRpt,f,1.9918,noRew,,,,,,0,27,0,27,0,1,,,,,,,,,,,,,,,,,
297847,2022-10-06_23h48.55.340,vts_reward_expectancy,2022.2.4,MacIntel,120.0048002,Chrome,1728,1080,,,,,0,575,,,,,,,,,,,,,,,,,S,146,triangle,1,0,,,,,,,,,,,,,,,,repeat,letter,lettRpt,f,1.164,noRew,,,,,,0,28,0,28,0,1,,,,,,,,,,,,,,,,,
297847,2022-10-06_23h48.55.340,vts_reward_expectancy,2022.2.4,MacIntel,120.0048002,Chrome,1728,1080,,,,,0,575,,,,,,,,,,,,,,,,,Y,167,hexagon,1,0,,,,,,,,,,,,,,,,switch,number,numSwt,k,0.7453,noRew,,,,,,0,29,0,29,0,1,,,,,,,,,,,,,,,,,
297847,2022-10-06_23h48.55.340,vts_reward_expectancy,2022.2.4,MacIntel,120.0048002,Chrome,1728,1080,,,,,0,575,,,,,,,,,,,,,,,,,W,160,star,1,0,,,,,,,,,,,,,,,,repeat,number,numRpt,k,1.1211,noRew,,,,,,0,30,0,30,0,1,,,,,,,,,,,,,,,,,
297847,2022-10-06_23h48.55.340,vts_reward_expectancy,2022.2.4,MacIntel,120.0048002,Chrome,1728,1080,,,,,0,575,,,,,,,,,,,,,,,,,U,181,circle,1,0,,,,,,,,,,,,,,,,repeat,number,numRpt,k,0.6918,noRew,,,,,,0,31,0,31,0,1,,,,,,,,,,,,,,,,,
297847,2022-10-06_23h48.55.340,vts_reward_expectancy,2022.2.4,MacIntel,120.0048002,Chrome,1728,1080,,,,,0,575,,,,,,,,,,,,,,,,,H,146,star,1,0,,,,,,,,,,,,,,,,switch,letter,lettSwt,d,1.0634,noRew,,,,,,0,32,0,32,0,1,,,,,,,,,,,,,,,,,
297847,2022-10-06_23h48.55.340,vts_reward_expectancy,2022.2.4,MacIntel,120.0048002,Chrome,1728,1080,,,,,0,575,,,,,,,,,,,,,,,,,Y,181,triangle,1,0,,,,,,,,,,,,,,,,repeat,letter,lettRpt,f,1.8022,noRew,,,,,,0,33,0,33,0,1,,,,,,,,,,,,,,,,,
297847,2022-10-06_23h48.55.340,vts_reward_expectancy,2022.2.4,MacIntel,120.0048002,Chrome,1728,1080,,,,,0,575,,,,,,,,,,,,,,,,,D,125,star,1,0,,,,,,,,,,,,,,,,repeat,letter,lettRpt,d,1.9791,noRew,,,,,,0,34,0,34,0,1,,,,,,,,,,,,,,,,,
297847,2022-10-06_23h48.55.340,vts_reward_expectancy,2022.2.4,MacIntel,120.0048002,Chrome,1728,1080,,,,,0,575,,,,,,,,,,,,,,,,,S,174,circle,1,0,,,,,,,,,,,,,,,,switch,number,numSwt,k,1.9545,noRew,,,,,,0,35,0,35,0,1,,,,,,,,,,,,,,,,,
297847,2022-10-06_23h48.55.340,vts_reward_expectancy,2022.2.4,MacIntel,120.0048002,Chrome,1728,1080,,,,,0,575,,,,,,,,,,,,,,,,,D,125,star,1,0,,,,,,,,,,,,,,,,switch,letter,lettSwt,d,1.3955,noRew,,,,,,0,36,0,36,0,1,,,,,,,,,,,,,,,,,
297847,2022-10-06_23h48.55.340,vts_reward_expectancy,2022.2.4,MacIntel,120.0048002,Chrome,1728,1080,,,,,0,575,,,,,,,,,,,,,,,,,H,146,hexagon,1,0,,,,,,,,,,,,,,,,switch,number,numSwt,j,1.8648,noRew,,,,,,0,37,0,37,0,1,,,,,,,,,,,,,,,,,
297847,2022-10-06_23h48.55.340,vts_reward_expectancy,2022.2.4,MacIntel,120.0048002,Chrome,1728,1080,,,,,0,575,,,,,,,,,,,,,,,,,S,181,circle,1,0,,,,,,,,,,,,,,,,repeat,number,numRpt,k,1.1984,noRew,,,,,,0,38,0,38,0,1,,,,,,,,,,,,,,,,,
297847,2022-10-06_23h48.55.340,vts_reward_expectancy,2022.2.4,MacIntel,120.0048002,Chrome,1728,1080,,,,,0,575,,,,,,,,,,,,,,,,,W,160,star,1,0,,,,,,,,,,,,,,,,repeat,number,numRpt,k,0.7959,noRew,,,,,,0,39,0,39,0,1,,,,,,,,,,,,,,,,,
297847,2022-10-06_23h48.55.340,vts_reward_expectancy,2022.2.4,MacIntel,120.0048002,Chrome,1728,1080,,,,,0,575,,,,,,,,,,,,,,,,,B,167,triangle,1,0,,,,,,,,,,,,,,,,repeat,number,numRpt,k,0.8134,noRew,,,,,,0,40,0,40,0,1,,,,,,,,,,,,,,,,,
297847,2022-10-06_23h48.55.340,vts_reward_expectancy,2022.2.4,MacIntel,120.0048002,Chrome,1728,1080,,,,,0,575,,,,,,,,,,,,,,,,,S,139,star,1,0,,,,,,,,,,,,,,,,repeat,number,numRpt,j,1.7932,noRew,,,,,,0,41,0,41,0,1,,,,,,,,,,,,,,,,,
297847,2022-10-06_23h48.55.340,vts_reward_expectancy,2022.2.4,MacIntel,120.0048002,Chrome,1728,1080,,,,,0,575,,,,,,,,,,,,,,,,,H,181,circle,1,0,,,,,,,,,,,,,,,,repeat,number,numRpt,k,0.9769,noRew,,,,,,0,42,0,42,0,1,,,,,,,,,,,,,,,,,
297847,2022-10-06_23h48.55.340,vts_reward_expectancy,2022.2.4,MacIntel,120.0048002,Chrome,1728,1080,,,,,0,575,,,,,,,,,,,,,,,,,F,160,triangle,1,0,,,,,,,,,,,,,,,,repeat,number,numRpt,k,1.3308,noRew,,,,,,0,43,0,43,0,1,,,,,,,,,,,,,,,,,
297847,2022-10-06_23h48.55.340,vts_reward_expectancy,2022.2.4,MacIntel,120.0048002,Chrome,1728,1080,,,,,0,575,,,,,,,,,,,,,,,,,F,167,circle,1,0,,,,,,,,,,,,,,,,switch,letter,lettSwt,d,1.14,noRew,,,,,,0,44,0,44,0,1,,,,,,,,,,,,,,,,,
297847,2022-10-06_23h48.55.340,vts_reward_expectancy,2022.2.4,MacIntel,120.0048002,Chrome,1728,1080,,,,,0,575,,,,,,,,,,,,,,,,,W,125,star,1,0,,,,,,,,,,,,,,,,repeat,letter,lettRpt,f,0.8447,noRew,,,,,,0,45,0,45,0,1,,,,,,,,,,,,,,,,,
297847,2022-10-06_23h48.55.340,vts_reward_expectancy,2022.2.4,MacIntel,120.0048002,Chrome,1728,1080,,,,,0,575,,,,,,,,,,,,,,,,,B,181,hexagon,1,0,,,,,,,,,,,,,,,,repeat,letter,lettRpt,d,0.746,noRew,,,,,,0,46,0,46,0,1,,,,,,,,,,,,,,,,,
297847,2022-10-06_23h48.55.340,vts_reward_expectancy,2022.2.4,MacIntel,120.0048002,Chrome,1728,1080,,,,,0,575,,,,,,,,,,,,,,,,,H,139,circle,1,0,,,,,,,,,,,,,,,,repeat,letter,lettRpt,d,0.7494,noRew,,,,,,0,47,0,47,0,1,,,,,,,,,,,,,,,,,
297847,2022-10-06_23h48.55.340,vts_reward_expectancy,2022.2.4,MacIntel,120.0048002,Chrome,1728,1080,,,,,0,575,,,,,,,,,,,,,,,,,Y,146,circle,1,0,,,,,,,,,,,,,,,,switch,number,numSwt,j,0.7667,noRew,,,,,,0,48,0,48,0,1,,,,,,,,,,,,,,,,,
297847,2022-10-06_23h48.55.340,vts_reward_expectancy,2022.2.4,MacIntel,120.0048002,Chrome,1728,1080,,,,,0,575,,,,,,,,,,,,,,,,,S,174,star,1,0,,,,,,,,,,,,,,,,repeat,number,numRpt,k,0.772,noRew,,,,,,0,49,0,49,0,1,,,,,,,,,,,,,,,,,
297847,2022-10-06_23h48.55.340,vts_reward_expectancy,2022.2.4,MacIntel,120.0048002,Chrome,1728,1080,,,,,0,575,,,,,,,,,,,,,,,,,W,181,hexagon,1,0,,,,,,,,,,,,,,,,repeat,number,numRpt,k,0.829,noRew,,,,,,0,50,0,50,0,1,,,,,,,,,,,,,,,,,
297847,2022-10-06_23h48.55.340,vts_reward_expectancy,2022.2.4,MacIntel,120.0048002,Chrome,1728,1080,,,,,0,575,,,,,,,,,,,,,,,,,F,160,triangle,1,0,,,,,,,,,,,,,,,,switch,letter,lettSwt,d,0.7024,noRew,,,,,,0,51,0,51,0,1,,,,,,,,,,,,,,,,,
297847,2022-10-06_23h48.55.340,vts_reward_expectancy,2022.2.4,MacIntel,120.0048002,Chrome,1728,1080,,,,,0,575,,,,,,,,,,,,,,,,,S,167,star,1,0,,,,,,,,,,,,,,,,repeat,letter,lettRpt,f,0.8004,noRew,,,,,,0,52,0,52,0,1,,,,,,,,,,,,,,,,,
297847,2022-10-06_23h48.55.340,vts_reward_expectancy,2022.2.4,MacIntel,120.0048002,Chrome,1728,1080,,,,,0,575,,,,,,,,,,,,,,,,,F,132,hexagon,1,0,,,,,,,,,,,,,,,,repeat,letter,lettRpt,d,1.0404,noRew,,,,,,0,53,0,53,0,1,,,,,,,,,,,,,,,,,
297847,2022-10-06_23h48.55.340,vts_reward_expectancy,2022.2.4,MacIntel,120.0048002,Chrome,1728,1080,,,,,0,575,,,,,,,,,,,,,,,,,H,181,star,1,0,,,,,,,,,,,,,,,,switch,number,numSwt,k,0.8798,noRew,,,,,,0,54,0,54,0,1,,,,,,,,,,,,,,,,,
297847,2022-10-06_23h48.55.340,vts_reward_expectancy,2022.2.4,MacIntel,120.0048002,Chrome,1728,1080,,,,,0,575,,,,,,,,,,,,,,,,,Y,160,triangle,1,0,,,,,,,,,,,,,,,,repeat,number,numRpt,k,0.9954,noRew,,,,,,0,55,0,55,0,1,,,,,,,,,,,,,,,,,
297847,2022-10-06_23h48.55.340,vts_reward_expectancy,2022.2.4,MacIntel,120.0048002,Chrome,1728,1080,,,,,0,575,,,,,,,,,,,,,,,,,F,125,triangle,1,0,,,,,,,,,,,,,,,,switch,letter,lettSwt,d,0.7297,noRew,,,,,,0,56,0,56,0,1,,,,,,,,,,,,,,,,,
297847,2022-10-06_23h48.55.340,vts_reward_expectancy,2022.2.4,MacIntel,120.0048002,Chrome,1728,1080,,,,,0,575,,,,,,,,,,,,,,,,,S,181,hexagon,1,0,,,,,,,,,,,,,,,,repeat,letter,lettRpt,f,0.9999,noRew,,,,,,0,57,0,57,0,1,,,,,,,,,,,,,,,,,
297847,2022-10-06_23h48.55.340,vts_reward_expectancy,2022.2.4,MacIntel,120.0048002,Chrome,1728,1080,,,,,0,575,,,,,,,,,,,,,,,,,U,174,triangle,1,0,,,,,,,,,,,,,,,,switch,number,numSwt,k,0.9477,noRew,,,,,,0,58,0,58,0,1,,,,,,,,,,,,,,,,,
297847,2022-10-06_23h48.55.340,vts_reward_expectancy,2022.2.4,MacIntel,120.0048002,Chrome,1728,1080,,,,,0,575,,,,,,,,,,,,,,,,,B,146,circle,1,0,,,,,,,,,,,,,,,,switch,letter,lettSwt,d,1.3135,noRew,,,,,,0,59,0,59,0,1,,,,,,,,,,,,,,,,,
297847,2022-10-06_23h48.55.340,vts_reward_expectancy,2022.2.4,MacIntel,120.0048002,Chrome,1728,1080,,,,,0,575,,,,,,,,,,,,,,,,,H,146,triangle,1,0,,,,,,,,,,,,,,,,switch,number,numSwt,j,0.9891,noRew,,,,,,0,60,0,60,0,1,,,,,,,,,,,,,,,,,
297847,2022-10-06_23h48.55.340,vts_reward_expectancy,2022.2.4,MacIntel,120.0048002,Chrome,1728,1080,,,,,0,575,,,,,,,,,,,,,,,,,F,125,star,1,0,,,,,,,,,,,,,,,,switch,letter,lettSwt,d,0.8192,noRew,,,,,,0,61,0,61,0,1,,,,,,,,,,,,,,,,,
297847,2022-10-06_23h48.55.340,vts_reward_expectancy,2022.2.4,MacIntel,120.0048002,Chrome,1728,1080,,,,,0,575,,,,,,,,,,,,,,,,,D,167,star,1,0,,,,,,,,,,,,,,,,switch,number,numSwt,k,1.1939,noRew,,,,,,0,62,0,62,0,1,,,,,,,,,,,,,,,,,
297847,2022-10-06_23h48.55.340,vts_reward_expectancy,2022.2.4,MacIntel,120.0048002,Chrome,1728,1080,,,,,0,575,,,,,,,,,,,,,,,,,W,139,triangle,1,0,,,,,,,,,,,,,,,,repeat,number,numRpt,j,0.8273,noRew,,,,,,0,63,0,63,0,1,,,,,,,,,,,,,,,,,
297847,2022-10-06_23h48.55.340,vts_reward_expectancy,2022.2.4,MacIntel,120.0048002,Chrome,1728,1080,,,,,,,,,,,,,,,,,,,,,,,,,,,,,,,,,,,,,,,,,,,,,,,,,,,,,,,,,,,,,,,,,,,,,,,,,,,,
297847,2022-10-06_23h48.55.340,vts_reward_expectancy,2022.2.4,MacIntel,120.0048002,Chrome,1728,1080,,,,,10,585,,,,,,,,,,,,,,,,,Y,160,circle,1,0,,,,,,,,,,,,,,,,switch,letter,lettSwt,f,0.636,Lo,,,,,,0,,,,,,space,4.4962,low,0,0,0,0,1,,,,,,,,,
297847,2022-10-06_23h48.55.340,vts_reward_expectancy,2022.2.4,MacIntel,120.0048002,Chrome,1728,1080,,,,,0,585,,,,,,,,,,,,,,,,,U,181,hexagon,1,0,,,,,,,,,,,,,,,,repeat,letter,lettRpt,f,0.8087,Hi,,,,,,0,,,,,,,,low,1,0,1,0,1,,,,,,,,,
297847,2022-10-06_23h48.55.340,vts_reward_expectancy,2022.2.4,MacIntel,120.0048002,Chrome,1728,1080,,,,,1,586,,,,,,,,,,,,,,,,,S,125,circle,1,0,,,,,,,,,,,,,,,,switch,number,numSwt,j,0.5697,Lo,,,,,,0,,,,,,,,low,2,0,2,0,1,,,,,,,,,
297847,2022-10-06_23h48.55.340,vts_reward_expectancy,2022.2.4,MacIntel,120.0048002,Chrome,1728,1080,,,,,10,596,,,,,,,,,,,,,,,,,W,146,hexagon,1,0,,,,,,,,,,,,,,,,switch,letter,lettSwt,f,0.6017,Hi,,,,,,0,,,,,,,,low,3,0,3,0,1,,,,,,,,,
297847,2022-10-06_23h48.55.340,vts_reward_expectancy,2022.2.4,MacIntel,120.0048002,Chrome,1728,1080,,,,,10,606,,,,,,,,,,,,,,,,,H,167,circle,1,0,,,,,,,,,,,,,,,,switch,number,numSwt,k,0.5457,Lo,,,,,,0,,,,,,,,low,4,0,4,0,1,,,,,,,,,
297847,2022-10-06_23h48.55.340,vts_reward_expectancy,2022.2.4,MacIntel,120.0048002,Chrome,1728,1080,,,,,10,616,,,,,,,,,,,,,,,,,F,174,hexagon,1,0,,,,,,,,,,,,,,,,repeat,number,numRpt,k,0.5143,Hi,,,,,,0,,,,,,,,low,5,0,5,0,1,,,,,,,,,
297847,2022-10-06_23h48.55.340,vts_reward_expectancy,2022.2.4,MacIntel,120.0048002,Chrome,1728,1080,,,,,1,617,,,,,,,,,,,,,,,,,B,139,circle,1,0,,,,,,,,,,,,,,,,switch,letter,lettSwt,d,0.4988,Lo,,,,,,0,,,,,,,,low,6,0,6,0,1,,,,,,,,,
297847,2022-10-06_23h48.55.340,vts_reward_expectancy,2022.2.4,MacIntel,120.0048002,Chrome,1728,1080,,,,,1,618,,,,,,,,,,,,,,,,,D,132,hexagon,1,0,,,,,,,,,,,,,,,,repeat,letter,lettRpt,d,0.6296,Hi,,,,,,0,,,,,,,,low,7,0,7,0,1,,,,,,,,,
297847,2022-10-06_23h48.55.340,vts_reward_expectancy,2022.2.4,MacIntel,120.0048002,Chrome,1728,1080,,,,,10,628,,,,,,,,,,,,,,,,,Y,160,hexagon,1,0,,,,,,,,,,,,,,,,repeat,letter,lettRpt,f,0.504,Hi,,,,,,0,,,,,,,,low,8,0,8,0,1,,,,,,,,,
297847,2022-10-06_23h48.55.340,vts_reward_expectancy,2022.2.4,MacIntel,120.0048002,Chrome,1728,1080,,,,,10,638,,,,,,,,,,,,,,,,,U,181,circle,1,0,,,,,,,,,,,,,,,,repeat,letter,lettRpt,f,0.6851,Lo,,,,,,0,,,,,,,,low,9,0,9,0,1,,,,,,,,,
297847,2022-10-06_23h48.55.340,vts_reward_expectancy,2022.2.4,MacIntel,120.0048002,Chrome,1728,1080,,,,,10,648,,,,,,,,,,,,,,,,,S,125,hexagon,1,0,,,,,,,,,,,,,,,,switch,number,numSwt,j,0.4436,Hi,,,,,,0,,,,,,,,low,10,0,10,0,1,,,,,,,,,
297847,2022-10-06_23h48.55.340,vts_reward_expectancy,2022.2.4,MacIntel,120.0048002,Chrome,1728,1080,,,,,10,658,,,,,,,,,,,,,,,,,W,146,circle,1,0,,,,,,,,,,,,,,,,repeat,number,numRpt,j,0.5605,Lo,,,,,,0,,,,,,,,low,11,0,11,0,1,,,,,,,,,
297847,2022-10-06_23h48.55.340,vts_reward_expectancy,2022.2.4,MacIntel,120.0048002,Chrome,1728,1080,,,,,10,668,,,,,,,,,,,,,,,,,H,167,hexagon,1,0,,,,,,,,,,,,,,,,repeat,number,numRpt,k,0.5576,Hi,,,,,,0,,,,,,,,low,12,0,12,0,1,,,,,,,,,
297847,2022-10-06_23h48.55.340,vts_reward_expectancy,2022.2.4,MacIntel,120.0048002,Chrome,1728,1080,,,,,10,678,,,,,,,,,,,,,,,,,F,174,circle,1,0,,,,,,,,,,,,,,,,switch,letter,lettSwt,d,0.6476,Lo,,,,,,0,,,,,,,,low,13,0,13,0,1,,,,,,,,,
297847,2022-10-06_23h48.55.340,vts_reward_expectancy,2022.2.4,MacIntel,120.0048002,Chrome,1728,1080,,,,,10,688,,,,,,,,,,,,,,,,,B,139,hexagon,1,0,,,,,,,,,,,,,,,,repeat,letter,lettRpt,d,0.4983,Hi,,,,,,0,,,,,,,,low,14,0,14,0,1,,,,,,,,,
297847,2022-10-06_23h48.55.340,vts_reward_expectancy,2022.2.4,MacIntel,120.0048002,Chrome,1728,1080,,,,,1,689,,,,,,,,,,,,,,,,,D,132,circle,1,0,,,,,,,,,,,,,,,,switch,number,numSwt,j,0.5249,Lo,,,,,,0,,,,,,,,low,15,0,15,0,1,,,,,,,,,
297847,2022-10-06_23h48.55.340,vts_reward_expectancy,2022.2.4,MacIntel,120.0048002,Chrome,1728,1080,,,,,1,690,,,,,,,,,,,,,,,,,B,167,hexagon,1,0,,,,,,,,,,,,,,,,switch,letter,lettSwt,d,0.4438,Hi,,,,,,0,,,,,,,,low,16,0,16,0,1,,,,,,,,,
297847,2022-10-06_23h48.55.340,vts_reward_expectancy,2022.2.4,MacIntel,120.0048002,Chrome,1728,1080,,,,,10,700,,,,,,,,,,,,,,,,,W,125,circle,1,0,,,,,,,,,,,,,,,,repeat,letter,lettRpt,f,0.5647,Lo,,,,,,0,,,,,,,,low,17,0,17,0,1,,,,,,,,,
297847,2022-10-06_23h48.55.340,vts_reward_expectancy,2022.2.4,MacIntel,120.0048002,Chrome,1728,1080,,,,,10,710,,,,,,,,,,,,,,,,,F,132,hexagon,1,0,,,,,,,,,,,,,,,,repeat,letter,lettRpt,d,0.6339,Hi,,,,,,0,,,,,,,,low,18,0,18,0,1,,,,,,,,,
297847,2022-10-06_23h48.55.340,vts_reward_expectancy,2022.2.4,MacIntel,120.0048002,Chrome,1728,1080,,,,,10,720,,,,,,,,,,,,,,,,,Y,139,circle,1,0,,,,,,,,,,,,,,,,repeat,letter,lettRpt,f,0.5531,Lo,,,,,,0,,,,,,,,low,19,0,19,0,1,,,,,,,,,
297847,2022-10-06_23h48.55.340,vts_reward_expectancy,2022.2.4,MacIntel,120.0048002,Chrome,1728,1080,,,,,10,730,,,,,,,,,,,,,,,,,D,174,hexagon,1,0,,,,,,,,,,,,,,,,switch,number,numSwt,k,0.5104,Hi,,,,,,0,,,,,,,,low,20,0,20,0,1,,,,,,,,,
297847,2022-10-06_23h48.55.340,vts_reward_expectancy,2022.2.4,MacIntel,120.0048002,Chrome,1728,1080,,,,,1,731,,,,,,,,,,,,,,,,,U,181,circle,1,0,,,,,,,,,,,,,,,,switch,letter,lettSwt,f,0.6987,Lo,,,,,,0,,,,,,,,low,21,0,21,0,1,,,,,,,,,
297847,2022-10-06_23h48.55.340,vts_reward_expectancy,2022.2.4,MacIntel,120.0048002,Chrome,1728,1080,,,,,1,732,,,,,,,,,,,,,,,,,S,146,circle,1,0,,,,,,,,,,,,,,,,repeat,letter,lettRpt,f,0.5415,Lo,,,,,,0,,,,,,,,low,22,0,22,0,1,,,,,,,,,
297847,2022-10-06_23h48.55.340,vts_reward_expectancy,2022.2.4,MacIntel,120.0048002,Chrome,1728,1080,,,,,0,732,,,,,,,,,,,,,,,,,H,160,hexagon,1,0,,,,,,,,,,,,,,,,repeat,letter,lettRpt,d,0.8321,Hi,,,,,,0,,,,,,,,low,23,0,23,0,1,,,,,,,,,
297847,2022-10-06_23h48.55.340,vts_reward_expectancy,2022.2.4,MacIntel,120.0048002,Chrome,1728,1080,,,,,10,742,,,,,,,,,,,,,,,,,F,181,circle,1,0,,,,,,,,,,,,,,,,switch,number,numSwt,k,0.7545,Lo,,,,,,0,,,,,,,,low,24,0,24,0,1,,,,,,,,,
297847,2022-10-06_23h48.55.340,vts_reward_expectancy,2022.2.4,MacIntel,120.0048002,Chrome,1728,1080,,,,,1,743,,,,,,,,,,,,,,,,,D,160,hexagon,1,0,,,,,,,,,,,,,,,,repeat,number,numRpt,k,0.6837,Hi,,,,,,0,,,,,,,,low,25,0,25,0,1,,,,,,,,,
297847,2022-10-06_23h48.55.340,vts_reward_expectancy,2022.2.4,MacIntel,120.0048002,Chrome,1728,1080,,,,,10,753,,,,,,,,,,,,,,,,,W,132,circle,1,0,,,,,,,,,,,,,,,,repeat,number,numRpt,j,0.6403,Lo,,,,,,0,,,,,,,,low,26,0,26,0,1,,,,,,,,,
297847,2022-10-06_23h48.55.340,vts_reward_expectancy,2022.2.4,MacIntel,120.0048002,Chrome,1728,1080,,,,,10,763,,,,,,,,,,,,,,,,,B,125,hexagon,1,0,,,,,,,,,,,,,,,,switch,letter,lettSwt,d,0.6094,Hi,,,,,,0,,,,,,,,low,27,0,27,0,1,,,,,,,,,
297847,2022-10-06_23h48.55.340,vts_reward_expectancy,2022.2.4,MacIntel,120.0048002,Chrome,1728,1080,,,,,10,773,,,,,,,,,,,,,,,,,S,174,hexagon,1,0,,,,,,,,,,,,,,,,repeat,letter,lettRpt,f,0.6462,Hi,,,,,,0,,,,,,,,low,28,0,28,0,1,,,,,,,,,
297847,2022-10-06_23h48.55.340,vts_reward_expectancy,2022.2.4,MacIntel,120.0048002,Chrome,1728,1080,,,,,10,783,,,,,,,,,,,,,,,,,U,167,circle,1,0,,,,,,,,,,,,,,,,switch,number,numSwt,k,0.7461,Lo,,,,,,0,,,,,,,,low,29,0,29,0,1,,,,,,,,,
297847,2022-10-06_23h48.55.340,vts_reward_expectancy,2022.2.4,MacIntel,120.0048002,Chrome,1728,1080,,,,,10,793,,,,,,,,,,,,,,,,,H,139,hexagon,1,0,,,,,,,,,,,,,,,,repeat,number,numRpt,j,0.6295,Hi,,,,,,0,,,,,,,,low,30,0,30,0,1,,,,,,,,,
297847,2022-10-06_23h48.55.340,vts_reward_expectancy,2022.2.4,MacIntel,120.0048002,Chrome,1728,1080,,,,,1,794,,,,,,,,,,,,,,,,,Y,146,circle,1,0,,,,,,,,,,,,,,,,switch,letter,lettSwt,f,0.5556,Lo,,,,,,0,,,,,,,,low,31,0,31,0,1,,,,,,,,,
297847,2022-10-06_23h48.55.340,vts_reward_expectancy,2022.2.4,MacIntel,120.0048002,Chrome,1728,1080,,,,,1,795,,,,,,,,,,,,,,,,,D,146,circle,1,0,,,,,,,,,,,,,,,,repeat,letter,lettRpt,d,0.6292,Lo,,,,,,1,,,,,,space,3.0791,low,0,0,0,0,1,,,,,,,,,
297847,2022-10-06_23h48.55.340,vts_reward_expectancy,2022.2.4,MacIntel,120.0048002,Chrome,1728,1080,,,,,0,795,,,,,,,,,,,,,,,,,F,125,hexagon,1,0,,,,,,,,,,,,,,,,repeat,letter,lettRpt,d,0.6512,Hi,,,,,,1,,,,,,,,low,1,0,1,0,1,,,,,,,,,
297847,2022-10-06_23h48.55.340,vts_reward_expectancy,2022.2.4,MacIntel,120.0048002,Chrome,1728,1080,,,,,1,796,,,,,,,,,,,,,,,,,S,181,circle,1,0,,,,,,,,,,,,,,,,repeat,letter,lettRpt,f,1.2987,Lo,,,,,,1,,,,,,,,low,2,0,2,0,1,,,,,,,,,
297847,2022-10-06_23h48.55.340,vts_reward_expectancy,2022.2.4,MacIntel,120.0048002,Chrome,1728,1080,,,,,0,796,,,,,,,,,,,,,,,,,B,160,hexagon,1,0,,,,,,,,,,,,,,,,switch,number,numSwt,k,0.7101,Hi,,,,,,1,,,,,,,,low,3,0,3,0,1,,,,,,,,,
297847,2022-10-06_23h48.55.340,vts_reward_expectancy,2022.2.4,MacIntel,120.0048002,Chrome,1728,1080,,,,,0,796,,,,,,,,,,,,,,,,,U,167,hexagon,1,0,,,,,,,,,,,,,,,,repeat,number,numRpt,k,0.5777,Hi,,,,,,1,,,,,,,,low,4,0,4,0,1,,,,,,,,,
297847,2022-10-06_23h48.55.340,vts_reward_expectancy,2022.2.4,MacIntel,120.0048002,Chrome,1728,1080,,,,,10,806,,,,,,,,,,,,,,,,,W,139,circle,1,0,,,,,,,,,,,,,,,,repeat,number,numRpt,j,0.5899,Lo,,,,,,1,,,,,,,,low,5,0,5,0,1,,,,,,,,,
297847,2022-10-06_23h48.55.340,vts_reward_expectancy,2022.2.4,MacIntel,120.0048002,Chrome,1728,1080,,,,,0,806,,,,,,,,,,,,,,,,,H,132,hexagon,1,0,,,,,,,,,,,,,,,,repeat,number,numRpt,j,0.7691,Hi,,,,,,1,,,,,,,,low,6,0,6,0,1,,,,,,,,,
297847,2022-10-06_23h48.55.340,vts_reward_expectancy,2022.2.4,MacIntel,120.0048002,Chrome,1728,1080,,,,,1,807,,,,,,,,,,,,,,,,,Y,174,circle,1,0,,,,,,,,,,,,,,,,repeat,number,numRpt,k,0.6107,Lo,,,,,,1,,,,,,,,low,7,0,7,0,1,,,,,,,,,
297847,2022-10-06_23h48.55.340,vts_reward_expectancy,2022.2.4,MacIntel,120.0048002,Chrome,1728,1080,,,,,0,807,,,,,,,,,,,,,,,,,D,146,hexagon,1,0,,,,,,,,,,,,,,,,switch,letter,lettSwt,d,0.6384,Hi,,,,,,1,,,,,,,,low,8,0,8,0,1,,,,,,,,,
297847,2022-10-06_23h48.55.340,vts_reward_expectancy,2022.2.4,MacIntel,120.0048002,Chrome,1728,1080,,,,,10,817,,,,,,,,,,,,,,,,,F,125,circle,1,0,,,,,,,,,,,,,,,,repeat,letter,lettRpt,d,0.6543,Lo,,,,,,1,,,,,,,,low,9,0,9,0,1,,,,,,,,,
297847,2022-10-06_23h48.55.340,vts_reward_expectancy,2022.2.4,MacIntel,120.0048002,Chrome,1728,1080,,,,,0,817,,,,,,,,,,,,,,,,,S,181,hexagon,1,0,,,,,,,,,,,,,,,,repeat,letter,lettRpt,f,0.6611,Hi,,,,,,1,,,,,,,,low,10,0,10,0,1,,,,,,,,,
297847,2022-10-06_23h48.55.340,vts_reward_expectancy,2022.2.4,MacIntel,120.0048002,Chrome,1728,1080,,,,,10,827,,,,,,,,,,,,,,,,,B,160,circle,1,0,,,,,,,,,,,,,,,,switch,number,numSwt,k,0.5186,Lo,,,,,,1,,,,,,,,low,11,0,11,0,1,,,,,,,,,
297847,2022-10-06_23h48.55.340,vts_reward_expectancy,2022.2.4,MacIntel,120.0048002,Chrome,1728,1080,,,,,0,827,,,,,,,,,,,,,,,,,U,167,hexagon,1,0,,,,,,,,,,,,,,,,switch,letter,lettSwt,f,0.5819,Hi,,,,,,1,,,,,,,,low,12,0,12,0,1,,,,,,,,,
297847,2022-10-06_23h48.55.340,vts_reward_expectancy,2022.2.4,MacIntel,120.0048002,Chrome,1728,1080,,,,,10,837,,,,,,,,,,,,,,,,,W,139,circle,1,0,,,,,,,,,,,,,,,,repeat,letter,lettRpt,f,0.4789,Lo,,,,,,1,,,,,,,,low,13,0,13,0,1,,,,,,,,,
297847,2022-10-06_23h48.55.340,vts_reward_expectancy,2022.2.4,MacIntel,120.0048002,Chrome,1728,1080,,,,,10,847,,,,,,,,,,,,,,,,,H,132,circle,1,0,,,,,,,,,,,,,,,,repeat,letter,lettRpt,d,0.8457,Lo,,,,,,1,,,,,,,,low,14,0,14,0,1,,,,,,,,,
297847,2022-10-06_23h48.55.340,vts_reward_expectancy,2022.2.4,MacIntel,120.0048002,Chrome,1728,1080,,,,,1,848,,,,,,,,,,,,,,,,,Y,174,hexagon,1,0,,,,,,,,,,,,,,,,switch,number,numSwt,k,0.4697,Hi,,,,,,1,,,,,,,,low,15,0,15,0,1,,,,,,,,,
297847,2022-10-06_23h48.55.340,vts_reward_expectancy,2022.2.4,MacIntel,120.0048002,Chrome,1728,1080,,,,,1,849,,,,,,,,,,,,,,,,,S,146,hexagon,1,0,,,,,,,,,,,,,,,,repeat,number,numRpt,j,0.466,Hi,,,,,,1,,,,,,,,low,16,0,16,0,1,,,,,,,,,
297847,2022-10-06_23h48.55.340,vts_reward_expectancy,2022.2.4,MacIntel,120.0048002,Chrome,1728,1080,,,,,10,859,,,,,,,,,,,,,,,,,D,132,circle,1,0,,,,,,,,,,,,,,,,repeat,number,numRpt,j,0.5441,Lo,,,,,,1,,,,,,,,low,17,0,17,0,1,,,,,,,,,
297847,2022-10-06_23h48.55.340,vts_reward_expectancy,2022.2.4,MacIntel,120.0048002,Chrome,1728,1080,,,,,1,860,,,,,,,,,,,,,,,,,F,174,circle,1,0,,,,,,,,,,,,,,,,repeat,number,numRpt,k,0.53,Lo,,,,,,1,,,,,,,,low,18,0,18,0,1,,,,,,,,,
297847,2022-10-06_23h48.55.340,vts_reward_expectancy,2022.2.4,MacIntel,120.0048002,Chrome,1728,1080,,,,,1,861,,,,,,,,,,,,,,,,,Y,160,hexagon,1,0,,,,,,,,,,,,,,,,switch,letter,lettSwt,f,0.5139,Hi,,,,,,1,,,,,,,,low,19,0,19,0,1,,,,,,,,,
297847,2022-10-06_23h48.55.340,vts_reward_expectancy,2022.2.4,MacIntel,120.0048002,Chrome,1728,1080,,,,,10,871,,,,,,,,,,,,,,,,,U,125,circle,1,0,,,,,,,,,,,,,,,,repeat,letter,lettRpt,f,0.6331,Lo,,,,,,1,,,,,,,,low,20,0,20,0,1,,,,,,,,,
297847,2022-10-06_23h48.55.340,vts_reward_expectancy,2022.2.4,MacIntel,120.0048002,Chrome,1728,1080,,,,,0,871,,,,,,,,,,,,,,,,,H,181,hexagon,1,0,,,,,,,,,,,,,,,,repeat,letter,lettRpt,d,0.6467,Hi,,,,,,1,,,,,,,,low,21,0,21,0,1,,,,,,,,,
297847,2022-10-06_23h48.55.340,vts_reward_expectancy,2022.2.4,MacIntel,120.0048002,Chrome,1728,1080,,,,,0,871,,,,,,,,,,,,,,,,,W,167,hexagon,1,0,,,,,,,,,,,,,,,,repeat,letter,lettRpt,f,0.9589,Hi,,,,,,1,,,,,,,,low,22,0,22,0,1,,,,,,,,,
297847,2022-10-06_23h48.55.340,vts_reward_expectancy,2022.2.4,MacIntel,120.0048002,Chrome,1728,1080,,,,,1,872,,,,,,,,,,,,,,,,,B,139,circle,1,0,,,,,,,,,,,,,,,,switch,number,numSwt,j,0.7015,Lo,,,,,,1,,,,,,,,low,23,0,23,0,1,,,,,,,,,
297847,2022-10-06_23h48.55.340,vts_reward_expectancy,2022.2.4,MacIntel,120.0048002,Chrome,1728,1080,,,,,1,873,,,,,,,,,,,,,,,,,D,160,circle,1,0,,,,,,,,,,,,,,,,repeat,number,numRpt,k,0.8619,Lo,,,,,,1,,,,,,,,low,24,0,24,0,1,,,,,,,,,
297847,2022-10-06_23h48.55.340,vts_reward_expectancy,2022.2.4,MacIntel,120.0048002,Chrome,1728,1080,,,,,0,873,,,,,,,,,,,,,,,,,F,139,hexagon,1,0,,,,,,,,,,,,,,,,repeat,number,numRpt,j,0.6683,Hi,,,,,,1,,,,,,,,low,25,0,25,0,1,,,,,,,,,
297847,2022-10-06_23h48.55.340,vts_reward_expectancy,2022.2.4,MacIntel,120.0048002,Chrome,1728,1080,,,,,10,883,,,,,,,,,,,,,,,,,B,146,circle,1,0,,,,,,,,,,,,,,,,switch,letter,lettSwt,d,0.5544,Lo,,,,,,1,,,,,,,,low,26,0,26,0,1,,,,,,,,,
297847,2022-10-06_23h48.55.340,vts_reward_expectancy,2022.2.4,MacIntel,120.0048002,Chrome,1728,1080,,,,,10,893,,,,,,,,,,,,,,,,,W,132,hexagon,1,0,,,,,,,,,,,,,,,,repeat,letter,lettRpt,f,0.4409,Hi,,,,,,1,,,,,,,,low,27,0,27,0,1,,,,,,,,,
297847,2022-10-06_23h48.55.340,vts_reward_expectancy,2022.2.4,MacIntel,120.0048002,Chrome,1728,1080,,,,,1,894,,,,,,,,,,,,,,,,,U,181,circle,1,0,,,,,,,,,,,,,,,,repeat,letter,lettRpt,f,0.6129,Lo,,,,,,1,,,,,,,,low,28,0,28,0,1,,,,,,,,,
297847,2022-10-06_23h48.55.340,vts_reward_expectancy,2022.2.4,MacIntel,120.0048002,Chrome,1728,1080,,,,,10,904,,,,,,,,,,,,,,,,,S,125,hexagon,1,0,,,,,,,,,,,,,,,,switch,number,numSwt,j,0.4964,Hi,,,,,,1,,,,,,,,low,29,0,29,0,1,,,,,,,,,
297847,2022-10-06_23h48.55.340,vts_reward_expectancy,2022.2.4,MacIntel,120.0048002,Chrome,1728,1080,,,,,1,905,,,,,,,,,,,,,,,,,Y,174,hexagon,1,0,,,,,,,,,,,,,,,,switch,letter,lettSwt,f,0.4779,Hi,,,,,,1,,,,,,,,low,30,0,30,0,1,,,,,,,,,
297847,2022-10-06_23h48.55.340,vts_reward_expectancy,2022.2.4,MacIntel,120.0048002,Chrome,1728,1080,,,,,10,915,,,,,,,,,,,,,,,,,H,167,circle,1,0,,,,,,,,,,,,,,,,repeat,letter,lettRpt,d,0.5691,Lo,,,,,,1,,,,,,,,low,31,0,31,0,1,,,,,,,,,
297847,2022-10-06_23h48.55.340,vts_reward_expectancy,2022.2.4,MacIntel,120.0048002,Chrome,1728,1080,,,,,10,925,,,,,,,,,,,,,,,,,W,160,star,1,0,,,,,,,,,,,,,,,,repeat,letter,lettRpt,f,0.5633,Lo,,,,,,2,,,,,,space,4.3294,high,0,0,0,0,1,,,,,,,,,
297847,2022-10-06_23h48.55.340,vts_reward_expectancy,2022.2.4,MacIntel,120.0048002,Chrome,1728,1080,,,,,1,926,,,,,,,,,,,,,,,,,H,139,triangle,1,0,,,,,,,,,,,,,,,,switch,number,numSwt,j,0.4936,Hi,,,,,,2,,,,,,,,high,1,0,1,0,1,,,,,,,,,
297847,2022-10-06_23h48.55.340,vts_reward_expectancy,2022.2.4,MacIntel,120.0048002,Chrome,1728,1080,,,,,1,927,,,,,,,,,,,,,,,,,U,125,star,1,0,,,,,,,,,,,,,,,,repeat,number,numRpt,j,0.4201,Lo,,,,,,2,,,,,,,,high,2,0,2,0,1,,,,,,,,,
297847,2022-10-06_23h48.55.340,vts_reward_expectancy,2022.2.4,MacIntel,120.0048002,Chrome,1728,1080,,,,,0,927,,,,,,,,,,,,,,,,,Y,146,triangle,1,0,,,,,,,,,,,,,,,,repeat,number,numRpt,j,1.2257,Hi,,,,,,2,,,,,,,,high,3,0,3,0,1,,,,,,,,,
297847,2022-10-06_23h48.55.340,vts_reward_expectancy,2022.2.4,MacIntel,120.0048002,Chrome,1728,1080,,,,,10,937,,,,,,,,,,,,,,,,,B,181,triangle,1,0,,,,,,,,,,,,,,,,repeat,number,numRpt,k,0.3632,Hi,,,,,,2,,,,,,,,high,4,0,4,0,1,,,,,,,,,
297847,2022-10-06_23h48.55.340,vts_reward_expectancy,2022.2.4,MacIntel,120.0048002,Chrome,1728,1080,,,,,1,938,,,,,,,,,,,,,,,,,D,132,star,1,0,,,,,,,,,,,,,,,,repeat,number,numRpt,j,0.4967,Lo,,,,,,2,,,,,,,,high,5,0,5,0,1,,,,,,,,,
297847,2022-10-06_23h48.55.340,vts_reward_expectancy,2022.2.4,MacIntel,120.0048002,Chrome,1728,1080,,,,,1,939,,,,,,,,,,,,,,,,,F,174,star,1,0,,,,,,,,,,,,,,,,repeat,number,numRpt,k,1.0708,Lo,,,,,,2,,,,,,,,high,6,0,6,0,1,,,,,,,,,
297847,2022-10-06_23h48.55.340,vts_reward_expectancy,2022.2.4,MacIntel,120.0048002,Chrome,1728,1080,,,,,0,939,,,,,,,,,,,,,,,,,S,167,triangle,1,0,,,,,,,,,,,,,,,,switch,letter,lettSwt,f,0.8134,Hi,,,,,,2,,,,,,,,high,7,0,7,0,1,,,,,,,,,
297847,2022-10-06_23h48.55.340,vts_reward_expectancy,2022.2.4,MacIntel,120.0048002,Chrome,1728,1080,,,,,0,939,,,,,,,,,,,,,,,,,W,160,star,0,0,,,,,,,,,,,,,,,,repeat,letter,NA,d,0.5623,Hi,,,,,,2,,,,,,,,high,8,0,8,0,1,,,,,,,,,
297847,2022-10-06_23h48.55.340,vts_reward_expectancy,2022.2.4,MacIntel,120.0048002,Chrome,1728,1080,,,,,0,939,,,,,,,,,,,,,,,,,H,139,triangle,1,1,,,,,,,,,,,,,,,,repeat,letter,lettRpt,d,1.0145,Hi,,,,,,2,,,,,,,,high,9,0,9,0,1,,,,,,,,,
297847,2022-10-06_23h48.55.340,vts_reward_expectancy,2022.2.4,MacIntel,120.0048002,Chrome,1728,1080,,,,,1,940,,,,,,,,,,,,,,,,,U,125,star,1,0,,,,,,,,,,,,,,,,repeat,letter,lettRpt,f,0.7938,Lo,,,,,,2,,,,,,,,high,10,0,10,0,1,,,,,,,,,
297847,2022-10-06_23h48.55.340,vts_reward_expectancy,2022.2.4,MacIntel,120.0048002,Chrome,1728,1080,,,,,0,940,,,,,,,,,,,,,,,,,Y,146,triangle,0,0,,,,,,,,,,,,,,,,switch,number,NA,k,0.6542,Lo,,,,,,2,,,,,,,,high,11,0,11,0,1,,,,,,,,,
297847,2022-10-06_23h48.55.340,vts_reward_expectancy,2022.2.4,MacIntel,120.0048002,Chrome,1728,1080,,,,,1,941,,,,,,,,,,,,,,,,,B,181,star,1,1,,,,,,,,,,,,,,,,switch,letter,lettSwt,d,0.8403,Lo,,,,,,2,,,,,,,,high,12,0,12,0,1,,,,,,,,,
297847,2022-10-06_23h48.55.340,vts_reward_expectancy,2022.2.4,MacIntel,120.0048002,Chrome,1728,1080,,,,,10,951,,,,,,,,,,,,,,,,,D,132,triangle,1,0,,,,,,,,,,,,,,,,repeat,letter,lettRpt,d,0.5475,Hi,,,,,,2,,,,,,,,high,13,0,13,0,1,,,,,,,,,
297847,2022-10-06_23h48.55.340,vts_reward_expectancy,2022.2.4,MacIntel,120.0048002,Chrome,1728,1080,,,,,1,952,,,,,,,,,,,,,,,,,F,174,star,1,0,,,,,,,,,,,,,,,,repeat,letter,lettRpt,d,0.462,Lo,,,,,,2,,,,,,,,high,14,0,14,0,1,,,,,,,,,
297847,2022-10-06_23h48.55.340,vts_reward_expectancy,2022.2.4,MacIntel,120.0048002,Chrome,1728,1080,,,,,10,962,,,,,,,,,,,,,,,,,S,167,triangle,1,0,,,,,,,,,,,,,,,,switch,number,numSwt,k,0.4286,Hi,,,,,,2,,,,,,,,high,15,0,15,0,1,,,,,,,,,
297847,2022-10-06_23h48.55.340,vts_reward_expectancy,2022.2.4,MacIntel,120.0048002,Chrome,1728,1080,,,,,1,963,,,,,,,,,,,,,,,,,U,181,star,1,0,,,,,,,,,,,,,,,,repeat,number,numRpt,k,0.5222,Lo,,,,,,2,,,,,,,,high,16,0,16,0,1,,,,,,,,,
297847,2022-10-06_23h48.55.340,vts_reward_expectancy,2022.2.4,MacIntel,120.0048002,Chrome,1728,1080,,,,,0,963,,,,,,,,,,,,,,,,,D,167,triangle,1,0,,,,,,,,,,,,,,,,repeat,number,numRpt,k,0.5937,Hi,,,,,,2,,,,,,,,high,17,0,17,0,1,,,,,,,,,
297847,2022-10-06_23h48.55.340,vts_reward_expectancy,2022.2.4,MacIntel,120.0048002,Chrome,1728,1080,,,,,10,973,,,,,,,,,,,,,,,,,W,174,star,1,0,,,,,,,,,,,,,,,,repeat,number,numRpt,k,0.5266,Lo,,,,,,2,,,,,,,,high,18,0,18,0,1,,,,,,,,,
297847,2022-10-06_23h48.55.340,vts_reward_expectancy,2022.2.4,MacIntel,120.0048002,Chrome,1728,1080,,,,,0,973,,,,,,,,,,,,,,,,,B,139,triangle,0,0,,,,,,,,,,,,,,,,repeat,number,NA,k,0.4882,Lo,,,,,,2,,,,,,,,high,19,0,19,0,1,,,,,,,,,
297847,2022-10-06_23h48.55.340,vts_reward_expectancy,2022.2.4,MacIntel,120.0048002,Chrome,1728,1080,,,,,1,974,,,,,,,,,,,,,,,,,F,132,star,1,1,,,,,,,,,,,,,,,,switch,letter,lettSwt,d,0.6165,Lo,,,,,,2,,,,,,,,high,20,0,20,0,1,,,,,,,,,
297847,2022-10-06_23h48.55.340,vts_reward_expectancy,2022.2.4,MacIntel,120.0048002,Chrome,1728,1080,,,,,10,984,,,,,,,,,,,,,,,,,Y,125,triangle,1,0,,,,,,,,,,,,,,,,repeat,letter,lettRpt,f,0.6029,Hi,,,,,,2,,,,,,,,high,21,0,21,0,1,,,,,,,,,
297847,2022-10-06_23h48.55.340,vts_reward_expectancy,2022.2.4,MacIntel,120.0048002,Chrome,1728,1080,,,,,0,984,,,,,,,,,,,,,,,,,S,146,triangle,1,0,,,,,,,,,,,,,,,,repeat,letter,lettRpt,f,0.8714,Hi,,,,,,2,,,,,,,,high,22,0,22,0,1,,,,,,,,,
297847,2022-10-06_23h48.55.340,vts_reward_expectancy,2022.2.4,MacIntel,120.0048002,Chrome,1728,1080,,,,,1,985,,,,,,,,,,,,,,,,,H,160,star,1,0,,,,,,,,,,,,,,,,repeat,letter,lettRpt,d,0.5938,Lo,,,,,,2,,,,,,,,high,23,0,23,0,1,,,,,,,,,
297847,2022-10-06_23h48.55.340,vts_reward_expectancy,2022.2.4,MacIntel,120.0048002,Chrome,1728,1080,,,,,10,995,,,,,,,,,,,,,,,,,F,125,star,1,0,,,,,,,,,,,,,,,,repeat,letter,lettRpt,d,0.6056,Lo,,,,,,2,,,,,,,,high,24,0,24,0,1,,,,,,,,,
297847,2022-10-06_23h48.55.340,vts_reward_expectancy,2022.2.4,MacIntel,120.0048002,Chrome,1728,1080,,,,,0,995,,,,,,,,,,,,,,,,,U,132,triangle,1,0,,,,,,,,,,,,,,,,repeat,letter,lettRpt,f,0.689,Hi,,,,,,2,,,,,,,,high,25,0,25,0,1,,,,,,,,,
297847,2022-10-06_23h48.55.340,vts_reward_expectancy,2022.2.4,MacIntel,120.0048002,Chrome,1728,1080,,,,,0,995,,,,,,,,,,,,,,,,,B,146,triangle,1,0,,,,,,,,,,,,,,,,repeat,letter,lettRpt,d,0.646,Hi,,,,,,2,,,,,,,,high,26,0,26,0,1,,,,,,,,,
297847,2022-10-06_23h48.55.340,vts_reward_expectancy,2022.2.4,MacIntel,120.0048002,Chrome,1728,1080,,,,,1,996,,,,,,,,,,,,,,,,,D,181,star,1,0,,,,,,,,,,,,,,,,switch,number,numSwt,k,0.9766,Lo,,,,,,2,,,,,,,,high,27,0,27,0,1,,,,,,,,,
297847,2022-10-06_23h48.55.340,vts_reward_expectancy,2022.2.4,MacIntel,120.0048002,Chrome,1728,1080,,,,,1,997,,,,,,,,,,,,,,,,,H,139,triangle,1,0,,,,,,,,,,,,,,,,repeat,number,numRpt,j,0.4568,Hi,,,,,,2,,,,,,,,high,28,0,28,0,1,,,,,,,,,
297847,2022-10-06_23h48.55.340,vts_reward_expectancy,2022.2.4,MacIntel,120.0048002,Chrome,1728,1080,,,,,1,998,,,,,,,,,,,,,,,,,S,160,star,1,0,,,,,,,,,,,,,,,,repeat,number,numRpt,k,0.5955,Lo,,,,,,2,,,,,,,,high,29,0,29,0,1,,,,,,,,,
297847,2022-10-06_23h48.55.340,vts_reward_expectancy,2022.2.4,MacIntel,120.0048002,Chrome,1728,1080,,,,,10,1008,,,,,,,,,,,,,,,,,W,167,star,1,0,,,,,,,,,,,,,,,,repeat,number,numRpt,k,0.7729,Lo,,,,,,2,,,,,,,,high,30,0,30,0,1,,,,,,,,,
297847,2022-10-06_23h48.55.340,vts_reward_expectancy,2022.2.4,MacIntel,120.0048002,Chrome,1728,1080,,,,,0,1008,,,,,,,,,,,,,,,,,Y,174,triangle,1,0,,,,,,,,,,,,,,,,switch,letter,lettSwt,f,0.7066,Hi,,,,,,2,,,,,,,,high,31,0,31,0,1,,,,,,,,,
297847,2022-10-06_23h48.55.340,vts_reward_expectancy,2022.2.4,MacIntel,120.0048002,Chrome,1728,1080,,,,,1,1009,,,,,,,,,,,,,,,,,Y,174,hexagon,1,0,,,,,,,,,,,,,,,,repeat,letter,lettRpt,f,0.5256,Hi,,,,,,3,,,,,,space,2.4548,low,0,0,0,0,1,,,,,,,,,
297847,2022-10-06_23h48.55.340,vts_reward_expectancy,2022.2.4,MacIntel,120.0048002,Chrome,1728,1080,,,,,1,1010,,,,,,,,,,,,,,,,,U,125,circle,1,0,,,,,,,,,,,,,,,,repeat,letter,lettRpt,f,0.5691,Lo,,,,,,3,,,,,,,,low,1,0,1,0,1,,,,,,,,,
297847,2022-10-06_23h48.55.340,vts_reward_expectancy,2022.2.4,MacIntel,120.0048002,Chrome,1728,1080,,,,,10,1020,,,,,,,,,,,,,,,,,F,181,hexagon,1,0,,,,,,,,,,,,,,,,switch,number,numSwt,k,0.4459,Hi,,,,,,3,,,,,,,,low,2,0,2,0,1,,,,,,,,,
297847,2022-10-06_23h48.55.340,vts_reward_expectancy,2022.2.4,MacIntel,120.0048002,Chrome,1728,1080,,,,,10,1030,,,,,,,,,,,,,,,,,D,167,circle,1,0,,,,,,,,,,,,,,,,repeat,number,numRpt,k,0.4938,Lo,,,,,,3,,,,,,,,low,3,0,3,0,1,,,,,,,,,
297847,2022-10-06_23h48.55.340,vts_reward_expectancy,2022.2.4,MacIntel,120.0048002,Chrome,1728,1080,,,,,1,1031,,,,,,,,,,,,,,,,,B,146,circle,1,0,,,,,,,,,,,,,,,,repeat,number,numRpt,j,0.6419,Lo,,,,,,3,,,,,,,,low,4,0,4,0,1,,,,,,,,,
297847,2022-10-06_23h48.55.340,vts_reward_expectancy,2022.2.4,MacIntel,120.0048002,Chrome,1728,1080,,,,,0,1031,,,,,,,,,,,,,,,,,S,160,hexagon,1,0,,,,,,,,,,,,,,,,switch,letter,lettSwt,f,0.8262,Hi,,,,,,3,,,,,,,,low,5,0,5,0,1,,,,,,,,,
297847,2022-10-06_23h48.55.340,vts_reward_expectancy,2022.2.4,MacIntel,120.0048002,Chrome,1728,1080,,,,,1,1032,,,,,,,,,,,,,,,,,W,132,circle,1,0,,,,,,,,,,,,,,,,repeat,letter,lettRpt,f,1.3637,Lo,,,,,,3,,,,,,,,low,6,0,6,0,1,,,,,,,,,
297847,2022-10-06_23h48.55.340,vts_reward_expectancy,2022.2.4,MacIntel,120.0048002,Chrome,1728,1080,,,,,0,1032,,,,,,,,,,,,,,,,,H,139,hexagon,1,0,,,,,,,,,,,,,,,,switch,number,numSwt,j,0.6533,Hi,,,,,,3,,,,,,,,low,7,0,7,0,1,,,,,,,,,
297847,2022-10-06_23h48.55.340,vts_reward_expectancy,2022.2.4,MacIntel,120.0048002,Chrome,1728,1080,,,,,0,1032,,,,,,,,,,,,,,,,,Y,174,hexagon,1,0,,,,,,,,,,,,,,,,repeat,number,numRpt,k,0.6116,Hi,,,,,,3,,,,,,,,low,8,0,8,0,1,,,,,,,,,
297847,2022-10-06_23h48.55.340,vts_reward_expectancy,2022.2.4,MacIntel,120.0048002,Chrome,1728,1080,,,,,0,1032,,,,,,,,,,,,,,,,,U,125,circle,0,0,,,,,,,,,,,,,,,,switch,letter,NA,d,0.9106,Hi,,,,,,3,,,,,,,,low,9,0,9,0,1,,,,,,,,,
297847,2022-10-06_23h48.55.340,vts_reward_expectancy,2022.2.4,MacIntel,120.0048002,Chrome,1728,1080,,,,,0,1032,,,,,,,,,,,,,,,,,F,181,hexagon,1,1,,,,,,,,,,,,,,,,switch,number,numSwt,k,1.1008,Hi,,,,,,3,,,,,,,,low,10,0,10,0,1,,,,,,,,,
297847,2022-10-06_23h48.55.340,vts_reward_expectancy,2022.2.4,MacIntel,120.0048002,Chrome,1728,1080,,,,,0,1032,,,,,,,,,,,,,,,,,D,167,circle,0,0,,,,,,,,,,,,,,,,switch,letter,NA,f,0.7793,Hi,,,,,,3,,,,,,,,low,11,0,11,0,1,,,,,,,,,
297847,2022-10-06_23h48.55.340,vts_reward_expectancy,2022.2.4,MacIntel,120.0048002,Chrome,1728,1080,,,,,10,1042,,,,,,,,,,,,,,,,,B,146,circle,1,1,,,,,,,,,,,,,,,,repeat,letter,lettRpt,d,0.6115,Lo,,,,,,3,,,,,,,,low,12,0,12,0,1,,,,,,,,,
297847,2022-10-06_23h48.55.340,vts_reward_expectancy,2022.2.4,MacIntel,120.0048002,Chrome,1728,1080,,,,,10,1052,,,,,,,,,,,,,,,,,S,160,hexagon,1,0,,,,,,,,,,,,,,,,repeat,letter,lettRpt,f,0.5761,Hi,,,,,,3,,,,,,,,low,13,0,13,0,1,,,,,,,,,
297847,2022-10-06_23h48.55.340,vts_reward_expectancy,2022.2.4,MacIntel,120.0048002,Chrome,1728,1080,,,,,0,1052,,,,,,,,,,,,,,,,,W,132,hexagon,1,0,,,,,,,,,,,,,,,,switch,number,numSwt,j,0.5982,Hi,,,,,,3,,,,,,,,low,14,0,14,0,1,,,,,,,,,
297847,2022-10-06_23h48.55.340,vts_reward_expectancy,2022.2.4,MacIntel,120.0048002,Chrome,1728,1080,,,,,10,1062,,,,,,,,,,,,,,,,,H,139,circle,1,0,,,,,,,,,,,,,,,,repeat,number,numRpt,j,0.4249,Lo,,,,,,3,,,,,,,,low,15,0,15,0,1,,,,,,,,,
297847,2022-10-06_23h48.55.340,vts_reward_expectancy,2022.2.4,MacIntel,120.0048002,Chrome,1728,1080,,,,,0,1062,,,,,,,,,,,,,,,,,H,181,hexagon,1,0,,,,,,,,,,,,,,,,repeat,number,numRpt,k,0.5257,Hi,,,,,,3,,,,,,,,low,16,0,16,0,1,,,,,,,,,
297847,2022-10-06_23h48.55.340,vts_reward_expectancy,2022.2.4,MacIntel,120.0048002,Chrome,1728,1080,,,,,1,1063,,,,,,,,,,,,,,,,,F,146,circle,1,0,,,,,,,,,,,,,,,,repeat,number,numRpt,j,0.5794,Lo,,,,,,3,,,,,,,,low,17,0,17,0,1,,,,,,,,,
297847,2022-10-06_23h48.55.340,vts_reward_expectancy,2022.2.4,MacIntel,120.0048002,Chrome,1728,1080,,,,,1,1064,,,,,,,,,,,,,,,,,W,167,circle,1,0,,,,,,,,,,,,,,,,switch,letter,lettSwt,f,0.493,Lo,,,,,,3,,,,,,,,low,18,0,18,0,1,,,,,,,,,
297847,2022-10-06_23h48.55.340,vts_reward_expectancy,2022.2.4,MacIntel,120.0048002,Chrome,1728,1080,,,,,0,1064,,,,,,,,,,,,,,,,,S,174,hexagon,1,0,,,,,,,,,,,,,,,,switch,number,numSwt,k,0.5945,Hi,,,,,,3,,,,,,,,low,19,0,19,0,1,,,,,,,,,
297847,2022-10-06_23h48.55.340,vts_reward_expectancy,2022.2.4,MacIntel,120.0048002,Chrome,1728,1080,,,,,0,1064,,,,,,,,,,,,,,,,,Y,132,hexagon,1,0,,,,,,,,,,,,,,,,repeat,number,numRpt,j,0.617,Hi,,,,,,3,,,,,,,,low,20,0,20,0,1,,,,,,,,,
297847,2022-10-06_23h48.55.340,vts_reward_expectancy,2022.2.4,MacIntel,120.0048002,Chrome,1728,1080,,,,,1,1065,,,,,,,,,,,,,,,,,B,125,circle,1,0,,,,,,,,,,,,,,,,repeat,number,numRpt,j,0.9975,Lo,,,,,,3,,,,,,,,low,21,0,21,0,1,,,,,,,,,
297847,2022-10-06_23h48.55.340,vts_reward_expectancy,2022.2.4,MacIntel,120.0048002,Chrome,1728,1080,,,,,1,1066,,,,,,,,,,,,,,,,,D,160,circle,1,0,,,,,,,,,,,,,,,,switch,letter,lettSwt,d,0.0414,Lo,,,,,,3,,,,,,,,low,22,0,22,0,1,,,,,,,,,
297847,2022-10-06_23h48.55.340,vts_reward_expectancy,2022.2.4,MacIntel,120.0048002,Chrome,1728,1080,,,,,0,1066,,,,,,,,,,,,,,,,,U,139,hexagon,1,0,,,,,,,,,,,,,,,,repeat,letter,lettRpt,f,0.7561,Hi,,,,,,3,,,,,,,,low,23,0,23,0,1,,,,,,,,,
297847,2022-10-06_23h48.55.340,vts_reward_expectancy,2022.2.4,MacIntel,120.0048002,Chrome,1728,1080,,,,,1,1067,,,,,,,,,,,,,,,,,H,181,circle,1,0,,,,,,,,,,,,,,,,switch,number,numSwt,k,0.9879,Lo,,,,,,3,,,,,,,,low,24,0,24,0,1,,,,,,,,,
297847,2022-10-06_23h48.55.340,vts_reward_expectancy,2022.2.4,MacIntel,120.0048002,Chrome,1728,1080,,,,,1,1068,,,,,,,,,,,,,,,,,Y,125,hexagon,1,0,,,,,,,,,,,,,,,,repeat,number,numRpt,j,0.4777,Hi,,,,,,3,,,,,,,,low,25,0,25,0,1,,,,,,,,,
297847,2022-10-06_23h48.55.340,vts_reward_expectancy,2022.2.4,MacIntel,120.0048002,Chrome,1728,1080,,,,,1,1069,,,,,,,,,,,,,,,,,U,167,circle,1,0,,,,,,,,,,,,,,,,repeat,number,numRpt,k,0.5281,Lo,,,,,,3,,,,,,,,low,26,0,26,0,1,,,,,,,,,
297847,2022-10-06_23h48.55.340,vts_reward_expectancy,2022.2.4,MacIntel,120.0048002,Chrome,1728,1080,,,,,0,1069,,,,,,,,,,,,,,,,,F,132,hexagon,1,0,,,,,,,,,,,,,,,,repeat,number,numRpt,j,0.6021,Hi,,,,,,3,,,,,,,,low,27,0,27,0,1,,,,,,,,,
297847,2022-10-06_23h48.55.340,vts_reward_expectancy,2022.2.4,MacIntel,120.0048002,Chrome,1728,1080,,,,,0,1069,,,,,,,,,,,,,,,,,B,160,hexagon,1,0,,,,,,,,,,,,,,,,repeat,number,numRpt,k,0.5194,Hi,,,,,,3,,,,,,,,low,28,0,28,0,1,,,,,,,,,
297847,2022-10-06_23h48.55.340,vts_reward_expectancy,2022.2.4,MacIntel,120.0048002,Chrome,1728,1080,,,,,10,1079,,,,,,,,,,,,,,,,,D,174,circle,1,0,,,,,,,,,,,,,,,,switch,letter,lettSwt,d,0.4238,Lo,,,,,,3,,,,,,,,low,29,0,29,0,1,,,,,,,,,
297847,2022-10-06_23h48.55.340,vts_reward_expectancy,2022.2.4,MacIntel,120.0048002,Chrome,1728,1080,,,,,10,1089,,,,,,,,,,,,,,,,,W,146,circle,1,0,,,,,,,,,,,,,,,,switch,number,numSwt,j,0.5145,Lo,,,,,,3,,,,,,,,low,30,0,30,0,1,,,,,,,,,
297847,2022-10-06_23h48.55.340,vts_reward_expectancy,2022.2.4,MacIntel,120.0048002,Chrome,1728,1080,,,,,10,1099,,,,,,,,,,,,,,,,,S,139,hexagon,1,0,,,,,,,,,,,,,,,,switch,letter,lettSwt,f,0.52,Hi,,,,,,3,,,,,,,,low,31,0,31,0,1,,,,,,,,,
297847,2022-10-06_23h48.55.340,vts_reward_expectancy,2022.2.4,MacIntel,120.0048002,Chrome,1728,1080,,,,,1,1100,,,,,,,,,,,,,,,,,B,132,star,1,0,,,,,,,,,,,,,,,,repeat,letter,lettRpt,d,0.4387,Lo,,,,,,4,,,,,,space,1.0109,high,0,0,0,0,1,,,,,,,,,
297847,2022-10-06_23h48.55.340,vts_reward_expectancy,2022.2.4,MacIntel,120.0048002,Chrome,1728,1080,,,,,0,1100,,,,,,,,,,,,,,,,,H,125,triangle,1,0,,,,,,,,,,,,,,,,repeat,letter,lettRpt,d,0.6547,Hi,,,,,,4,,,,,,,,high,1,0,1,0,1,,,,,,,,,
297847,2022-10-06_23h48.55.340,vts_reward_expectancy,2022.2.4,MacIntel,120.0048002,Chrome,1728,1080,,,,,1,1101,,,,,,,,,,,,,,,,,S,167,star,1,0,,,,,,,,,,,,,,,,switch,number,numSwt,k,0.552,Lo,,,,,,4,,,,,,,,high,2,0,2,0,1,,,,,,,,,
297847,2022-10-06_23h48.55.340,vts_reward_expectancy,2022.2.4,MacIntel,120.0048002,Chrome,1728,1080,,,,,1,1102,,,,,,,,,,,,,,,,,W,146,triangle,1,0,,,,,,,,,,,,,,,,repeat,number,numRpt,j,0.4245,Hi,,,,,,4,,,,,,,,high,3,0,3,0,1,,,,,,,,,
297847,2022-10-06_23h48.55.340,vts_reward_expectancy,2022.2.4,MacIntel,120.0048002,Chrome,1728,1080,,,,,1,1103,,,,,,,,,,,,,,,,,Y,139,star,1,0,,,,,,,,,,,,,,,,repeat,number,numRpt,j,0.4447,Lo,,,,,,4,,,,,,,,high,4,0,4,0,1,,,,,,,,,
297847,2022-10-06_23h48.55.340,vts_reward_expectancy,2022.2.4,MacIntel,120.0048002,Chrome,1728,1080,,,,,1,1104,,,,,,,,,,,,,,,,,U,181,triangle,1,0,,,,,,,,,,,,,,,,repeat,number,numRpt,k,0.5085,Hi,,,,,,4,,,,,,,,high,5,0,5,0,1,,,,,,,,,
297847,2022-10-06_23h48.55.340,vts_reward_expectancy,2022.2.4,MacIntel,120.0048002,Chrome,1728,1080,,,,,0,1104,,,,,,,,,,,,,,,,,D,174,triangle,1,0,,,,,,,,,,,,,,,,repeat,number,numRpt,k,0.5253,Hi,,,,,,4,,,,,,,,high,6,0,6,0,1,,,,,,,,,
297847,2022-10-06_23h48.55.340,vts_reward_expectancy,2022.2.4,MacIntel,120.0048002,Chrome,1728,1080,,,,,1,1105,,,,,,,,,,,,,,,,,F,160,star,1,0,,,,,,,,,,,,,,,,repeat,number,numRpt,k,0.8183,Lo,,,,,,4,,,,,,,,high,7,0,7,0,1,,,,,,,,,
297847,2022-10-06_23h48.55.340,vts_reward_expectancy,2022.2.4,MacIntel,120.0048002,Chrome,1728,1080,,,,,10,1115,,,,,,,,,,,,,,,,,B,132,triangle,1,0,,,,,,,,,,,,,,,,repeat,number,numRpt,j,0.5108,Hi,,,,,,4,,,,,,,,high,8,0,8,0,1,,,,,,,,,
297847,2022-10-06_23h48.55.340,vts_reward_expectancy,2022.2.4,MacIntel,120.0048002,Chrome,1728,1080,,,,,10,1125,,,,,,,,,,,,,,,,,H,125,star,1,0,,,,,,,,,,,,,,,,repeat,number,numRpt,j,0.3779,Lo,,,,,,4,,,,,,,,high,9,0,9,0,1,,,,,,,,,
297847,2022-10-06_23h48.55.340,vts_reward_expectancy,2022.2.4,MacIntel,120.0048002,Chrome,1728,1080,,,,,1,1126,,,,,,,,,,,,,,,,,S,167,star,1,0,,,,,,,,,,,,,,,,repeat,number,numRpt,k,0.68,Lo,,,,,,4,,,,,,,,high,10,0,10,0,1,,,,,,,,,
297847,2022-10-06_23h48.55.340,vts_reward_expectancy,2022.2.4,MacIntel,120.0048002,Chrome,1728,1080,,,,,0,1126,,,,,,,,,,,,,,,,,W,146,triangle,1,0,,,,,,,,,,,,,,,,switch,letter,lettSwt,f,1.0973,Hi,,,,,,4,,,,,,,,high,11,0,11,0,1,,,,,,,,,
297847,2022-10-06_23h48.55.340,vts_reward_expectancy,2022.2.4,MacIntel,120.0048002,Chrome,1728,1080,,,,,0,1126,,,,,,,,,,,,,,,,,Y,139,triangle,1,0,,,,,,,,,,,,,,,,repeat,letter,lettRpt,f,0.8388,Hi,,,,,,4,,,,,,,,high,12,0,12,0,1,,,,,,,,,
297847,2022-10-06_23h48.55.340,vts_reward_expectancy,2022.2.4,MacIntel,120.0048002,Chrome,1728,1080,,,,,1,1127,,,,,,,,,,,,,,,,,U,181,star,1,0,,,,,,,,,,,,,,,,switch,number,numSwt,k,0.6372,Lo,,,,,,4,,,,,,,,high,13,0,13,0,1,,,,,,,,,
297847,2022-10-06_23h48.55.340,vts_reward_expectancy,2022.2.4,MacIntel,120.0048002,Chrome,1728,1080,,,,,1,1128,,,,,,,,,,,,,,,,,D,174,star,1,0,,,,,,,,,,,,,,,,repeat,number,numRpt,k,0.7911,Lo,,,,,,4,,,,,,,,high,14,0,14,0,1,,,,,,,,,
297847,2022-10-06_23h48.55.340,vts_reward_expectancy,2022.2.4,MacIntel,120.0048002,Chrome,1728,1080,,,,,0,1128,,,,,,,,,,,,,,,,,F,160,triangle,0,0,,,,,,,,,,,,,,,,switch,letter,NA,f,0.8221,Lo,,,,,,4,,,,,,,,high,15,0,15,0,1,,,,,,,,,
297847,2022-10-06_23h48.55.340,vts_reward_expectancy,2022.2.4,MacIntel,120.0048002,Chrome,1728,1080,,,,,0,1128,,,,,,,,,,,,,,,,,W,174,triangle,1,1,,,,,,,,,,,,,,,,repeat,letter,lettRpt,f,0.8158,Hi,,,,,,4,,,,,,,,high,16,0,16,0,1,,,,,,,,,
297847,2022-10-06_23h48.55.340,vts_reward_expectancy,2022.2.4,MacIntel,120.0048002,Chrome,1728,1080,,,,,0,1128,,,,,,,,,,,,,,,,,D,160,star,0,0,,,,,,,,,,,,,,,,repeat,letter,NA,f,0.6126,Hi,,,,,,4,,,,,,,,high,17,0,17,0,1,,,,,,,,,
297847,2022-10-06_23h48.55.340,vts_reward_expectancy,2022.2.4,MacIntel,120.0048002,Chrome,1728,1080,,,,,10,1138,,,,,,,,,,,,,,,,,S,181,triangle,1,1,,,,,,,,,,,,,,,,switch,number,numSwt,k,0.5364,Hi,,,,,,4,,,,,,,,high,18,0,18,0,1,,,,,,,,,
297847,2022-10-06_23h48.55.340,vts_reward_expectancy,2022.2.4,MacIntel,120.0048002,Chrome,1728,1080,,,,,1,1139,,,,,,,,,,,,,,,,,F,167,star,1,0,,,,,,,,,,,,,,,,repeat,number,numRpt,k,0.4635,Lo,,,,,,4,,,,,,,,high,19,0,19,0,1,,,,,,,,,
297847,2022-10-06_23h48.55.340,vts_reward_expectancy,2022.2.4,MacIntel,120.0048002,Chrome,1728,1080,,,,,0,1139,,,,,,,,,,,,,,,,,Y,139,triangle,1,0,,,,,,,,,,,,,,,,repeat,number,numRpt,j,0.5286,Hi,,,,,,4,,,,,,,,high,20,0,20,0,1,,,,,,,,,
297847,2022-10-06_23h48.55.340,vts_reward_expectancy,2022.2.4,MacIntel,120.0048002,Chrome,1728,1080,,,,,1,1140,,,,,,,,,,,,,,,,,B,125,star,1,0,,,,,,,,,,,,,,,,repeat,number,numRpt,j,0.4568,Lo,,,,,,4,,,,,,,,high,21,0,21,0,1,,,,,,,,,
297847,2022-10-06_23h48.55.340,vts_reward_expectancy,2022.2.4,MacIntel,120.0048002,Chrome,1728,1080,,,,,1,1141,,,,,,,,,,,,,,,,,U,146,star,1,0,,,,,,,,,,,,,,,,repeat,number,numRpt,j,0.5103,Lo,,,,,,4,,,,,,,,high,22,0,22,0,1,,,,,,,,,
297847,2022-10-06_23h48.55.340,vts_reward_expectancy,2022.2.4,MacIntel,120.0048002,Chrome,1728,1080,,,,,0,1141,,,,,,,,,,,,,,,,,H,132,triangle,1,0,,,,,,,,,,,,,,,,repeat,number,numRpt,j,0.7787,Hi,,,,,,4,,,,,,,,high,23,0,23,0,1,,,,,,,,,
297847,2022-10-06_23h48.55.340,vts_reward_expectancy,2022.2.4,MacIntel,120.0048002,Chrome,1728,1080,,,,,10,1151,,,,,,,,,,,,,,,,,W,167,triangle,1,0,,,,,,,,,,,,,,,,repeat,number,numRpt,k,0.43,Hi,,,,,,4,,,,,,,,high,24,0,24,0,1,,,,,,,,,
297847,2022-10-06_23h48.55.340,vts_reward_expectancy,2022.2.4,MacIntel,120.0048002,Chrome,1728,1080,,,,,10,1161,,,,,,,,,,,,,,,,,S,174,star,1,0,,,,,,,,,,,,,,,,repeat,number,numRpt,k,0.5576,Lo,,,,,,4,,,,,,,,high,25,0,25,0,1,,,,,,,,,
297847,2022-10-06_23h48.55.340,vts_reward_expectancy,2022.2.4,MacIntel,120.0048002,Chrome,1728,1080,,,,,0,1161,,,,,,,,,,,,,,,,,U,160,triangle,0,0,,,,,,,,,,,,,,,,repeat,number,NA,j,0.6633,Lo,,,,,,4,,,,,,,,high,26,0,26,0,1,,,,,,,,,
297847,2022-10-06_23h48.55.340,vts_reward_expectancy,2022.2.4,MacIntel,120.0048002,Chrome,1728,1080,,,,,10,1171,,,,,,,,,,,,,,,,,F,146,star,1,1,,,,,,,,,,,,,,,,repeat,number,numRpt,j,0.7321,Lo,,,,,,4,,,,,,,,high,27,0,27,0,1,,,,,,,,,
297847,2022-10-06_23h48.55.340,vts_reward_expectancy,2022.2.4,MacIntel,120.0048002,Chrome,1728,1080,,,,,1,1172,,,,,,,,,,,,,,,,,B,139,star,1,0,,,,,,,,,,,,,,,,repeat,number,numRpt,j,0.7232,Lo,,,,,,4,,,,,,,,high,28,0,28,0,1,,,,,,,,,
297847,2022-10-06_23h48.55.340,vts_reward_expectancy,2022.2.4,MacIntel,120.0048002,Chrome,1728,1080,,,,,0,1172,,,,,,,,,,,,,,,,,D,132,triangle,1,0,,,,,,,,,,,,,,,,repeat,number,numRpt,j,0.6506,Hi,,,,,,4,,,,,,,,high,29,0,29,0,1,,,,,,,,,
297847,2022-10-06_23h48.55.340,vts_reward_expectancy,2022.2.4,MacIntel,120.0048002,Chrome,1728,1080,,,,,0,1172,,,,,,,,,,,,,,,,,H,181,triangle,1,0,,,,,,,,,,,,,,,,switch,letter,lettSwt,d,0.8344,Hi,,,,,,4,,,,,,,,high,30,0,30,0,1,,,,,,,,,
297847,2022-10-06_23h48.55.340,vts_reward_expectancy,2022.2.4,MacIntel,120.0048002,Chrome,1728,1080,,,,,1,1173,,,,,,,,,,,,,,,,,Y,125,star,1,0,,,,,,,,,,,,,,,,repeat,letter,lettRpt,f,0.5707,Lo,,,,,,4,,,,,,,,high,31,0,31,0,1,,,,,,,,,
297847,2022-10-06_23h48.55.340,vts_reward_expectancy,2022.2.4,MacIntel,120.0048002,Chrome,1728,1080,,,,,1,1174,,,,,,,,,,,,,,,,,D,139,star,1,0,,,,,,,,,,,,,,,,switch,number,numSwt,j,0.5701,Lo,,,,,,5,,,,,,space,0.9081,high,0,0,0,0,1,,,,,,,,,
297847,2022-10-06_23h48.55.340,vts_reward_expectancy,2022.2.4,MacIntel,120.0048002,Chrome,1728,1080,,,,,0,1174,,,,,,,,,,,,,,,,,B,146,triangle,1,0,,,,,,,,,,,,,,,,repeat,number,numRpt,j,0.6699,Hi,,,,,,5,,,,,,,,high,1,0,1,0,1,,,,,,,,,
297847,2022-10-06_23h48.55.340,vts_reward_expectancy,2022.2.4,MacIntel,120.0048002,Chrome,1728,1080,,,,,1,1175,,,,,,,,,,,,,,,,,S,132,star,1,0,,,,,,,,,,,,,,,,repeat,number,numRpt,j,0.5263,Lo,,,,,,5,,,,,,,,high,2,0,2,0,1,,,,,,,,,
297847,2022-10-06_23h48.55.340,vts_reward_expectancy,2022.2.4,MacIntel,120.0048002,Chrome,1728,1080,,,,,1,1176,,,,,,,,,,,,,,,,,U,181,triangle,1,0,,,,,,,,,,,,,,,,switch,letter,lettSwt,f,0.5458,Hi,,,,,,5,,,,,,,,high,3,0,3,0,1,,,,,,,,,
297847,2022-10-06_23h48.55.340,vts_reward_expectancy,2022.2.4,MacIntel,120.0048002,Chrome,1728,1080,,,,,10,1186,,,,,,,,,,,,,,,,,H,160,triangle,1,0,,,,,,,,,,,,,,,,switch,number,numSwt,k,0.5325,Hi,,,,,,5,,,,,,,,high,4,0,4,0,1,,,,,,,,,
297847,2022-10-06_23h48.55.340,vts_reward_expectancy,2022.2.4,MacIntel,120.0048002,Chrome,1728,1080,,,,,1,1187,,,,,,,,,,,,,,,,,W,167,star,1,0,,,,,,,,,,,,,,,,repeat,number,numRpt,k,0.574,Lo,,,,,,5,,,,,,,,high,5,0,5,0,1,,,,,,,,,
297847,2022-10-06_23h48.55.340,vts_reward_expectancy,2022.2.4,MacIntel,120.0048002,Chrome,1728,1080,,,,,0,1187,,,,,,,,,,,,,,,,,Y,174,triangle,1,0,,,,,,,,,,,,,,,,repeat,number,numRpt,k,0.7208,Hi,,,,,,5,,,,,,,,high,6,0,6,0,1,,,,,,,,,
297847,2022-10-06_23h48.55.340,vts_reward_expectancy,2022.2.4,MacIntel,120.0048002,Chrome,1728,1080,,,,,1,1188,,,,,,,,,,,,,,,,,F,125,star,1,0,,,,,,,,,,,,,,,,repeat,number,numRpt,j,0.633,Lo,,,,,,5,,,,,,,,high,7,0,7,0,1,,,,,,,,,
297847,2022-10-06_23h48.55.340,vts_reward_expectancy,2022.2.4,MacIntel,120.0048002,Chrome,1728,1080,,,,,0,1188,,,,,,,,,,,,,,,,,D,139,triangle,1,0,,,,,,,,,,,,,,,,repeat,number,numRpt,j,0.8114,Hi,,,,,,5,,,,,,,,high,8,0,8,0,1,,,,,,,,,
297847,2022-10-06_23h48.55.340,vts_reward_expectancy,2022.2.4,MacIntel,120.0048002,Chrome,1728,1080,,,,,1,1189,,,,,,,,,,,,,,,,,B,146,star,1,0,,,,,,,,,,,,,,,,repeat,number,numRpt,j,0.8615,Lo,,,,,,5,,,,,,,,high,9,0,9,0,1,,,,,,,,,
297847,2022-10-06_23h48.55.340,vts_reward_expectancy,2022.2.4,MacIntel,120.0048002,Chrome,1728,1080,,,,,1,1190,,,,,,,,,,,,,,,,,S,132,star,1,0,,,,,,,,,,,,,,,,repeat,number,numRpt,j,0.6794,Lo,,,,,,5,,,,,,,,high,10,0,10,0,1,,,,,,,,,
297847,2022-10-06_23h48.55.340,vts_reward_expectancy,2022.2.4,MacIntel,120.0048002,Chrome,1728,1080,,,,,0,1190,,,,,,,,,,,,,,,,,U,181,triangle,1,0,,,,,,,,,,,,,,,,repeat,number,numRpt,k,0.7949,Hi,,,,,,5,,,,,,,,high,11,0,11,0,1,,,,,,,,,
297847,2022-10-06_23h48.55.340,vts_reward_expectancy,2022.2.4,MacIntel,120.0048002,Chrome,1728,1080,,,,,1,1191,,,,,,,,,,,,,,,,,H,160,star,1,0,,,,,,,,,,,,,,,,repeat,number,numRpt,k,0.7806,Lo,,,,,,5,,,,,,,,high,12,0,12,0,1,,,,,,,,,
297847,2022-10-06_23h48.55.340,vts_reward_expectancy,2022.2.4,MacIntel,120.0048002,Chrome,1728,1080,,,,,0,1191,,,,,,,,,,,,,,,,,W,167,triangle,1,0,,,,,,,,,,,,,,,,repeat,number,numRpt,k,0.5921,Hi,,,,,,5,,,,,,,,high,13,0,13,0,1,,,,,,,,,
297847,2022-10-06_23h48.55.340,vts_reward_expectancy,2022.2.4,MacIntel,120.0048002,Chrome,1728,1080,,,,,10,1201,,,,,,,,,,,,,,,,,Y,174,star,1,0,,,,,,,,,,,,,,,,repeat,number,numRpt,k,0.5723,Lo,,,,,,5,,,,,,,,high,14,0,14,0,1,,,,,,,,,
297847,2022-10-06_23h48.55.340,vts_reward_expectancy,2022.2.4,MacIntel,120.0048002,Chrome,1728,1080,,,,,0,1201,,,,,,,,,,,,,,,,,F,125,triangle,1,0,,,,,,,,,,,,,,,,repeat,number,numRpt,j,0.5773,Hi,,,,,,5,,,,,,,,high,15,0,15,0,1,,,,,,,,,
297847,2022-10-06_23h48.55.340,vts_reward_expectancy,2022.2.4,MacIntel,120.0048002,Chrome,1728,1080,,,,,1,1202,,,,,,,,,,,,,,,,,W,125,star,1,0,,,,,,,,,,,,,,,,repeat,number,numRpt,j,0.5301,Lo,,,,,,5,,,,,,,,high,16,0,16,0,1,,,,,,,,,
297847,2022-10-06_23h48.55.340,vts_reward_expectancy,2022.2.4,MacIntel,120.0048002,Chrome,1728,1080,,,,,0,1202,,,,,,,,,,,,,,,,,U,167,triangle,1,0,,,,,,,,,,,,,,,,repeat,number,numRpt,k,0.5632,Hi,,,,,,5,,,,,,,,high,17,0,17,0,1,,,,,,,,,
297847,2022-10-06_23h48.55.340,vts_reward_expectancy,2022.2.4,MacIntel,120.0048002,Chrome,1728,1080,,,,,1,1203,,,,,,,,,,,,,,,,,D,146,star,1,0,,,,,,,,,,,,,,,,repeat,number,numRpt,j,0.4691,Lo,,,,,,5,,,,,,,,high,18,0,18,0,1,,,,,,,,,
297847,2022-10-06_23h48.55.340,vts_reward_expectancy,2022.2.4,MacIntel,120.0048002,Chrome,1728,1080,,,,,10,1213,,,,,,,,,,,,,,,,,B,174,triangle,1,0,,,,,,,,,,,,,,,,switch,letter,lettSwt,d,0.4635,Hi,,,,,,5,,,,,,,,high,19,0,19,0,1,,,,,,,,,
297847,2022-10-06_23h48.55.340,vts_reward_expectancy,2022.2.4,MacIntel,120.0048002,Chrome,1728,1080,,,,,1,1214,,,,,,,,,,,,,,,,,H,132,triangle,1,0,,,,,,,,,,,,,,,,repeat,letter,lettRpt,d,0.5387,Hi,,,,,,5,,,,,,,,high,20,0,20,0,1,,,,,,,,,
297847,2022-10-06_23h48.55.340,vts_reward_expectancy,2022.2.4,MacIntel,120.0048002,Chrome,1728,1080,,,,,1,1215,,,,,,,,,,,,,,,,,Y,160,star,1,0,,,,,,,,,,,,,,,,repeat,letter,lettRpt,f,0.7815,Lo,,,,,,5,,,,,,,,high,21,0,21,0,1,,,,,,,,,
297847,2022-10-06_23h48.55.340,vts_reward_expectancy,2022.2.4,MacIntel,120.0048002,Chrome,1728,1080,,,,,0,1215,,,,,,,,,,,,,,,,,S,139,triangle,1,0,,,,,,,,,,,,,,,,repeat,letter,lettRpt,f,0.6093,Hi,,,,,,5,,,,,,,,high,22,0,22,0,1,,,,,,,,,
297847,2022-10-06_23h48.55.340,vts_reward_expectancy,2022.2.4,MacIntel,120.0048002,Chrome,1728,1080,,,,,1,1216,,,,,,,,,,,,,,,,,F,181,star,1,0,,,,,,,,,,,,,,,,switch,number,numSwt,k,0.4945,Lo,,,,,,5,,,,,,,,high,23,0,23,0,1,,,,,,,,,
297847,2022-10-06_23h48.55.340,vts_reward_expectancy,2022.2.4,MacIntel,120.0048002,Chrome,1728,1080,,,,,0,1216,,,,,,,,,,,,,,,,,U,167,triangle,1,0,,,,,,,,,,,,,,,,repeat,number,numRpt,k,0.8079,Hi,,,,,,5,,,,,,,,high,24,0,24,0,1,,,,,,,,,
297847,2022-10-06_23h48.55.340,vts_reward_expectancy,2022.2.4,MacIntel,120.0048002,Chrome,1728,1080,,,,,1,1217,,,,,,,,,,,,,,,,,Y,146,star,1,0,,,,,,,,,,,,,,,,repeat,number,numRpt,j,0.586,Lo,,,,,,5,,,,,,,,high,25,0,25,0,1,,,,,,,,,
297847,2022-10-06_23h48.55.340,vts_reward_expectancy,2022.2.4,MacIntel,120.0048002,Chrome,1728,1080,,,,,1,1218,,,,,,,,,,,,,,,,,B,181,star,1,0,,,,,,,,,,,,,,,,repeat,number,numRpt,k,0.539,Lo,,,,,,5,,,,,,,,high,26,0,26,0,1,,,,,,,,,
297847,2022-10-06_23h48.55.340,vts_reward_expectancy,2022.2.4,MacIntel,120.0048002,Chrome,1728,1080,,,,,0,1218,,,,,,,,,,,,,,,,,H,174,triangle,1,0,,,,,,,,,,,,,,,,repeat,number,numRpt,k,0.6304,Hi,,,,,,5,,,,,,,,high,27,0,27,0,1,,,,,,,,,
297847,2022-10-06_23h48.55.340,vts_reward_expectancy,2022.2.4,MacIntel,120.0048002,Chrome,1728,1080,,,,,0,1218,,,,,,,,,,,,,,,,,S,125,triangle,1,0,,,,,,,,,,,,,,,,repeat,number,numRpt,j,0.5203,Hi,,,,,,5,,,,,,,,high,28,0,28,0,1,,,,,,,,,
297847,2022-10-06_23h48.55.340,vts_reward_expectancy,2022.2.4,MacIntel,120.0048002,Chrome,1728,1080,,,,,1,1219,,,,,,,,,,,,,,,,,D,139,star,1,0,,,,,,,,,,,,,,,,repeat,number,numRpt,j,0.5026,Lo,,,,,,5,,,,,,,,high,29,0,29,0,1,,,,,,,,,
297847,2022-10-06_23h48.55.340,vts_reward_expectancy,2022.2.4,MacIntel,120.0048002,Chrome,1728,1080,,,,,1,1220,,,,,,,,,,,,,,,,,F,160,star,1,0,,,,,,,,,,,,,,,,repeat,number,numRpt,k,0.4904,Lo,,,,,,5,,,,,,,,high,30,0,30,0,1,,,,,,,,,
297847,2022-10-06_23h48.55.340,vts_reward_expectancy,2022.2.4,MacIntel,120.0048002,Chrome,1728,1080,,,,,10,1230,,,,,,,,,,,,,,,,,W,132,triangle,1,0,,,,,,,,,,,,,,,,repeat,number,numRpt,j,0.4843,Hi,,,,,,5,,,,,,,,high,31,0,31,0,1,,,,,,,,,
297847,2022-10-06_23h48.55.340,vts_reward_expectancy,2022.2.4,MacIntel,120.0048002,Chrome,1728,1080,,,,,,,,,,,,,,,,,,,,,,,,,,,,,,,,,,,,,,,,,,,,,,,,,,,,,,6,,,,,,,,,,,,,,to pick between certain shapes abd between numbers depending on their value,2,The shapes part,5,3,,2,1728,1080
