participant,date,expName,psychopyVersion,OS,frameRate,browser,xResolution,yResolution,key_resp.keys,key_resp.rt,training_resp.keys,training_resp.rt,points_trial,points_cumul,trainBlock,training.thisRepN,training.thisTrialN,training.thisN,training.thisIndex,training.ran,LTriangleOpac,LCircleOpac,LHexagonOpac,LStarOpac,RTriangleOpac,RCircleOpac,RHexagonOpac,RStarOpac,LShape_ID,RShape_ID,curr_topStim,curr_bottStim,curr_shape,acc,E1,target_resp_prac1.keys,target_resp_prac1.rt,pracBlock,task1_prac_trials.thisRepN,task1_prac_trials.thisTrialN,task1_prac_trials.thisN,task1_prac_trials.thisIndex,task1_prac_trials.ran,target_resp_prac2.keys,task2_praac_trials.thisRepN,task2_praac_trials.thisTrialN,task2_praac_trials.thisN,task2_praac_trials.thisIndex,task2_praac_trials.ran,target_resp_prac2.rt,alt,task,condition,target_resp.keys,target_resp.rt,rewCond,vts_practice_trials.thisRepN,vts_practice_trials.thisTrialN,vts_practice_trials.thisN,vts_practice_trials.thisIndex,vts_practice_trials.ran,blockNum,trials_norew.thisRepN,trials_norew.thisTrialN,trials_norew.thisN,trials_norew.thisIndex,trials_norew.ran,key_resp_2.keys,key_resp_2.rt,rewExpect,trials_rew.thisRepN,trials_rew.thisTrialN,trials_rew.thisN,trials_rew.thisIndex,trials_rew.ran,Q1,Q2,Q2_text,Q3,Q4,Q5,Q5_text,xRes,yRes
297484,2022-09-25_15h40.03.818,vts_reward_expectancy,2022.2.4,Win32,59.96282305,Chrome,1280,720,,,,,,,,,,,,,,,,,,,,,,,,,,,,,,,,,,,,,,,,,,,,,,,,,,,,,,,,,,,,,,,,,,,,,,,,,,,,
297484,2022-09-25_15h40.03.818,vts_reward_expectancy,2022.2.4,Win32,59.96282305,Chrome,1280,720,space,13.0932,,,,,,,,,,,,,,,,,,,,,,,,,,,,,,,,,,,,,,,,,,,,,,,,,,,,,,,,,,,,,,,,,,,,,,,,,,
297484,2022-09-25_15h40.03.818,vts_reward_expectancy,2022.2.4,Win32,59.96282305,Chrome,1280,720,,,,,,,,,,,,,,,,,,,,,,,,,,,,,,,,,,,,,,,,,,,,,,,,,,,,,,,,,,,,,,,,,,,,,,,,,,,,
297484,2022-09-25_15h40.03.818,vts_reward_expectancy,2022.2.4,Win32,59.96282305,Chrome,1280,720,,,l,3.6288,10,10,0,0,0,0,2,1,1,0,0,0,0,0,0,1,triangle,star,,,,,,,,,,,,,,,,,,,,,,,,,,,,,,,,,,,,,,,,,,,,,,,,,,,,,,
297484,2022-09-25_15h40.03.818,vts_reward_expectancy,2022.2.4,Win32,59.96282305,Chrome,1280,720,,,l,3.1646,10,20,0,0,1,1,10,1,0,0,0,1,0,1,0,0,star ,circle,,,,,,,,,,,,,,,,,,,,,,,,,,,,,,,,,,,,,,,,,,,,,,,,,,,,,,
297484,2022-09-25_15h40.03.818,vts_reward_expectancy,2022.2.4,Win32,59.96282305,Chrome,1280,720,,,a,1.3488,10,30,0,0,2,2,0,1,1,0,0,0,0,1,0,0,triangle,circle,,,,,,,,,,,,,,,,,,,,,,,,,,,,,,,,,,,,,,,,,,,,,,,,,,,,,,
297484,2022-09-25_15h40.03.818,vts_reward_expectancy,2022.2.4,Win32,59.96282305,Chrome,1280,720,,,a,1.7419,10,40,0,0,3,3,9,1,0,0,0,1,1,0,0,0,star,triangle,,,,,,,,,,,,,,,,,,,,,,,,,,,,,,,,,,,,,,,,,,,,,,,,,,,,,,
297484,2022-09-25_15h40.03.818,vts_reward_expectancy,2022.2.4,Win32,59.96282305,Chrome,1280,720,,,l,1.1346,10,50,0,0,4,4,5,1,0,1,0,0,0,0,0,1,circle,star,,,,,,,,,,,,,,,,,,,,,,,,,,,,,,,,,,,,,,,,,,,,,,,,,,,,,,
297484,2022-09-25_15h40.03.818,vts_reward_expectancy,2022.2.4,Win32,59.96282305,Chrome,1280,720,,,a,1.8102,10,60,0,0,5,5,8,1,0,0,1,0,0,0,0,1,hexagon,star,,,,,,,,,,,,,,,,,,,,,,,,,,,,,,,,,,,,,,,,,,,,,,,,,,,,,,
297484,2022-09-25_15h40.03.818,vts_reward_expectancy,2022.2.4,Win32,59.96282305,Chrome,1280,720,,,l,1.134,1,61,0,0,6,6,4,1,0,1,0,0,0,0,1,0,circle,hexagon,,,,,,,,,,,,,,,,,,,,,,,,,,,,,,,,,,,,,,,,,,,,,,,,,,,,,,
297484,2022-09-25_15h40.03.818,vts_reward_expectancy,2022.2.4,Win32,59.96282305,Chrome,1280,720,,,a,2.4231,1,62,0,0,7,7,6,1,0,0,1,0,1,0,0,0,hexagon,triangle,,,,,,,,,,,,,,,,,,,,,,,,,,,,,,,,,,,,,,,,,,,,,,,,,,,,,,
297484,2022-09-25_15h40.03.818,vts_reward_expectancy,2022.2.4,Win32,59.96282305,Chrome,1280,720,,,a,1.4687,10,72,0,0,8,8,11,1,0,0,0,1,0,0,1,0,star,hexagon,,,,,,,,,,,,,,,,,,,,,,,,,,,,,,,,,,,,,,,,,,,,,,,,,,,,,,
297484,2022-09-25_15h40.03.818,vts_reward_expectancy,2022.2.4,Win32,59.96282305,Chrome,1280,720,,,l,0.6995,1,73,0,0,9,9,1,1,1,0,0,0,0,0,1,0,triangle,hexagon,,,,,,,,,,,,,,,,,,,,,,,,,,,,,,,,,,,,,,,,,,,,,,,,,,,,,,
297484,2022-09-25_15h40.03.818,vts_reward_expectancy,2022.2.4,Win32,59.96282305,Chrome,1280,720,,,a,1.1693,1,74,0,0,10,10,7,1,0,0,1,0,0,1,0,0,hexagon,circle,,,,,,,,,,,,,,,,,,,,,,,,,,,,,,,,,,,,,,,,,,,,,,,,,,,,,,
297484,2022-09-25_15h40.03.818,vts_reward_expectancy,2022.2.4,Win32,59.96282305,Chrome,1280,720,,,l,1.4147,1,75,0,0,11,11,3,1,0,1,0,0,1,0,0,0,circle,triangle,,,,,,,,,,,,,,,,,,,,,,,,,,,,,,,,,,,,,,,,,,,,,,,,,,,,,,
297484,2022-09-25_15h40.03.818,vts_reward_expectancy,2022.2.4,Win32,59.96282305,Chrome,1280,720,,,l,2.0684,1,76,0,1,0,12,11,1,0,0,0,1,0,0,1,0,star,hexagon,,,,,,,,,,,,,,,,,,,,,,,,,,,,,,,,,,,,,,,,,,,,,,,,,,,,,,
297484,2022-09-25_15h40.03.818,vts_reward_expectancy,2022.2.4,Win32,59.96282305,Chrome,1280,720,,,l,1.398,10,86,0,1,1,13,5,1,0,1,0,0,0,0,0,1,circle,star,,,,,,,,,,,,,,,,,,,,,,,,,,,,,,,,,,,,,,,,,,,,,,,,,,,,,,
297484,2022-09-25_15h40.03.818,vts_reward_expectancy,2022.2.4,Win32,59.96282305,Chrome,1280,720,,,l,1.0337,1,87,0,1,2,14,1,1,1,0,0,0,0,0,1,0,triangle,hexagon,,,,,,,,,,,,,,,,,,,,,,,,,,,,,,,,,,,,,,,,,,,,,,,,,,,,,,
297484,2022-09-25_15h40.03.818,vts_reward_expectancy,2022.2.4,Win32,59.96282305,Chrome,1280,720,,,l,0.8036,10,97,0,1,3,15,8,1,0,0,1,0,0,0,0,1,hexagon,star,,,,,,,,,,,,,,,,,,,,,,,,,,,,,,,,,,,,,,,,,,,,,,,,,,,,,,
297484,2022-09-25_15h40.03.818,vts_reward_expectancy,2022.2.4,Win32,59.96282305,Chrome,1280,720,,,a,1.1535,1,98,0,1,4,16,7,1,0,0,1,0,0,1,0,0,hexagon,circle,,,,,,,,,,,,,,,,,,,,,,,,,,,,,,,,,,,,,,,,,,,,,,,,,,,,,,
297484,2022-09-25_15h40.03.818,vts_reward_expectancy,2022.2.4,Win32,59.96282305,Chrome,1280,720,,,a,0.9386,10,108,0,1,5,17,4,1,0,1,0,0,0,0,1,0,circle,hexagon,,,,,,,,,,,,,,,,,,,,,,,,,,,,,,,,,,,,,,,,,,,,,,,,,,,,,,
297484,2022-09-25_15h40.03.818,vts_reward_expectancy,2022.2.4,Win32,59.96282305,Chrome,1280,720,,,l,0.9309,10,118,0,1,6,18,2,1,1,0,0,0,0,0,0,1,triangle,star,,,,,,,,,,,,,,,,,,,,,,,,,,,,,,,,,,,,,,,,,,,,,,,,,,,,,,
297484,2022-09-25_15h40.03.818,vts_reward_expectancy,2022.2.4,Win32,59.96282305,Chrome,1280,720,,,a,0.9169,10,128,0,1,7,19,10,1,0,0,0,1,0,1,0,0,star ,circle,,,,,,,,,,,,,,,,,,,,,,,,,,,,,,,,,,,,,,,,,,,,,,,,,,,,,,
297484,2022-09-25_15h40.03.818,vts_reward_expectancy,2022.2.4,Win32,59.96282305,Chrome,1280,720,,,a,1.2394,10,138,0,1,8,20,9,1,0,0,0,1,1,0,0,0,star,triangle,,,,,,,,,,,,,,,,,,,,,,,,,,,,,,,,,,,,,,,,,,,,,,,,,,,,,,
297484,2022-09-25_15h40.03.818,vts_reward_expectancy,2022.2.4,Win32,59.96282305,Chrome,1280,720,,,l,1.6877,10,148,0,1,9,21,6,1,0,0,1,0,1,0,0,0,hexagon,triangle,,,,,,,,,,,,,,,,,,,,,,,,,,,,,,,,,,,,,,,,,,,,,,,,,,,,,,
297484,2022-09-25_15h40.03.818,vts_reward_expectancy,2022.2.4,Win32,59.96282305,Chrome,1280,720,,,l,2.0235,10,158,0,1,10,22,0,1,1,0,0,0,0,1,0,0,triangle,circle,,,,,,,,,,,,,,,,,,,,,,,,,,,,,,,,,,,,,,,,,,,,,,,,,,,,,,
297484,2022-09-25_15h40.03.818,vts_reward_expectancy,2022.2.4,Win32,59.96282305,Chrome,1280,720,,,a,1.1994,1,159,0,1,11,23,3,1,0,1,0,0,1,0,0,0,circle,triangle,,,,,,,,,,,,,,,,,,,,,,,,,,,,,,,,,,,,,,,,,,,,,,,,,,,,,,
297484,2022-09-25_15h40.03.818,vts_reward_expectancy,2022.2.4,Win32,59.96282305,Chrome,1280,720,,,l,1.0011,10,169,0,2,0,24,5,1,0,1,0,0,0,0,0,1,circle,star,,,,,,,,,,,,,,,,,,,,,,,,,,,,,,,,,,,,,,,,,,,,,,,,,,,,,,
297484,2022-09-25_15h40.03.818,vts_reward_expectancy,2022.2.4,Win32,59.96282305,Chrome,1280,720,,,l,1.4974,1,170,0,2,1,25,7,1,0,0,1,0,0,1,0,0,hexagon,circle,,,,,,,,,,,,,,,,,,,,,,,,,,,,,,,,,,,,,,,,,,,,,,,,,,,,,,
297484,2022-09-25_15h40.03.818,vts_reward_expectancy,2022.2.4,Win32,59.96282305,Chrome,1280,720,,,a,1.4933,10,180,0,2,2,26,0,1,1,0,0,0,0,1,0,0,triangle,circle,,,,,,,,,,,,,,,,,,,,,,,,,,,,,,,,,,,,,,,,,,,,,,,,,,,,,,
297484,2022-09-25_15h40.03.818,vts_reward_expectancy,2022.2.4,Win32,59.96282305,Chrome,1280,720,,,l,1.6555,1,181,0,2,3,27,4,1,0,1,0,0,0,0,1,0,circle,hexagon,,,,,,,,,,,,,,,,,,,,,,,,,,,,,,,,,,,,,,,,,,,,,,,,,,,,,,
297484,2022-09-25_15h40.03.818,vts_reward_expectancy,2022.2.4,Win32,59.96282305,Chrome,1280,720,,,a,1.0509,10,191,0,2,4,28,11,1,0,0,0,1,0,0,1,0,star,hexagon,,,,,,,,,,,,,,,,,,,,,,,,,,,,,,,,,,,,,,,,,,,,,,,,,,,,,,
297484,2022-09-25_15h40.03.818,vts_reward_expectancy,2022.2.4,Win32,59.96282305,Chrome,1280,720,,,l,1.2415,10,201,0,2,5,29,2,1,1,0,0,0,0,0,0,1,triangle,star,,,,,,,,,,,,,,,,,,,,,,,,,,,,,,,,,,,,,,,,,,,,,,,,,,,,,,
297484,2022-09-25_15h40.03.818,vts_reward_expectancy,2022.2.4,Win32,59.96282305,Chrome,1280,720,,,a,0.6983,1,202,0,2,6,30,9,1,0,0,0,1,1,0,0,0,star,triangle,,,,,,,,,,,,,,,,,,,,,,,,,,,,,,,,,,,,,,,,,,,,,,,,,,,,,,
297484,2022-09-25_15h40.03.818,vts_reward_expectancy,2022.2.4,Win32,59.96282305,Chrome,1280,720,,,l,6.1016,1,203,0,2,7,31,6,1,0,0,1,0,1,0,0,0,hexagon,triangle,,,,,,,,,,,,,,,,,,,,,,,,,,,,,,,,,,,,,,,,,,,,,,,,,,,,,,
297484,2022-09-25_15h40.03.818,vts_reward_expectancy,2022.2.4,Win32,59.96282305,Chrome,1280,720,,,l,0.7843,10,213,0,2,8,32,8,1,0,0,1,0,0,0,0,1,hexagon,star,,,,,,,,,,,,,,,,,,,,,,,,,,,,,,,,,,,,,,,,,,,,,,,,,,,,,,
297484,2022-09-25_15h40.03.818,vts_reward_expectancy,2022.2.4,Win32,59.96282305,Chrome,1280,720,,,a,1.4745,10,223,0,2,9,33,3,1,0,1,0,0,1,0,0,0,circle,triangle,,,,,,,,,,,,,,,,,,,,,,,,,,,,,,,,,,,,,,,,,,,,,,,,,,,,,,
297484,2022-09-25_15h40.03.818,vts_reward_expectancy,2022.2.4,Win32,59.96282305,Chrome,1280,720,,,l,0.9642,10,233,0,2,10,34,1,1,1,0,0,0,0,0,1,0,triangle,hexagon,,,,,,,,,,,,,,,,,,,,,,,,,,,,,,,,,,,,,,,,,,,,,,,,,,,,,,
297484,2022-09-25_15h40.03.818,vts_reward_expectancy,2022.2.4,Win32,59.96282305,Chrome,1280,720,,,a,0.9675,10,243,0,2,11,35,10,1,0,0,0,1,0,1,0,0,star ,circle,,,,,,,,,,,,,,,,,,,,,,,,,,,,,,,,,,,,,,,,,,,,,,,,,,,,,,
297484,2022-09-25_15h40.03.818,vts_reward_expectancy,2022.2.4,Win32,59.96282305,Chrome,1280,720,,,a,2.0392,10,253,1,0,0,0,4,1,0,1,0,0,0,0,1,0,circle,hexagon,,,,,,,,,,,,,,,,,,,,,,,,,,,,,,,,,,,,,,,,,,,,,,,,,,,,,,
297484,2022-09-25_15h40.03.818,vts_reward_expectancy,2022.2.4,Win32,59.96282305,Chrome,1280,720,,,l,1.0743,1,254,1,0,1,1,3,1,0,1,0,0,1,0,0,0,circle,triangle,,,,,,,,,,,,,,,,,,,,,,,,,,,,,,,,,,,,,,,,,,,,,,,,,,,,,,
297484,2022-09-25_15h40.03.818,vts_reward_expectancy,2022.2.4,Win32,59.96282305,Chrome,1280,720,,,l,0.5923,10,264,1,0,2,2,2,1,1,0,0,0,0,0,0,1,triangle,star,,,,,,,,,,,,,,,,,,,,,,,,,,,,,,,,,,,,,,,,,,,,,,,,,,,,,,
297484,2022-09-25_15h40.03.818,vts_reward_expectancy,2022.2.4,Win32,59.96282305,Chrome,1280,720,,,a,0.8367,10,274,1,0,3,3,11,1,0,0,0,1,0,0,1,0,star,hexagon,,,,,,,,,,,,,,,,,,,,,,,,,,,,,,,,,,,,,,,,,,,,,,,,,,,,,,
297484,2022-09-25_15h40.03.818,vts_reward_expectancy,2022.2.4,Win32,59.96282305,Chrome,1280,720,,,a,1.1711,1,275,1,0,4,4,1,1,1,0,0,0,0,0,1,0,triangle,hexagon,,,,,,,,,,,,,,,,,,,,,,,,,,,,,,,,,,,,,,,,,,,,,,,,,,,,,,
297484,2022-09-25_15h40.03.818,vts_reward_expectancy,2022.2.4,Win32,59.96282305,Chrome,1280,720,,,l,0.765,10,285,1,0,5,5,5,1,0,1,0,0,0,0,0,1,circle,star,,,,,,,,,,,,,,,,,,,,,,,,,,,,,,,,,,,,,,,,,,,,,,,,,,,,,,
297484,2022-09-25_15h40.03.818,vts_reward_expectancy,2022.2.4,Win32,59.96282305,Chrome,1280,720,,,l,0.7043,1,286,1,0,6,6,8,1,0,0,1,0,0,0,0,1,hexagon,star,,,,,,,,,,,,,,,,,,,,,,,,,,,,,,,,,,,,,,,,,,,,,,,,,,,,,,
297484,2022-09-25_15h40.03.818,vts_reward_expectancy,2022.2.4,Win32,59.96282305,Chrome,1280,720,,,l,1.843,1,287,1,0,7,7,0,1,1,0,0,0,0,1,0,0,triangle,circle,,,,,,,,,,,,,,,,,,,,,,,,,,,,,,,,,,,,,,,,,,,,,,,,,,,,,,
297484,2022-09-25_15h40.03.818,vts_reward_expectancy,2022.2.4,Win32,59.96282305,Chrome,1280,720,,,a,1.2158,1,288,1,0,8,8,6,1,0,0,1,0,1,0,0,0,hexagon,triangle,,,,,,,,,,,,,,,,,,,,,,,,,,,,,,,,,,,,,,,,,,,,,,,,,,,,,,
297484,2022-09-25_15h40.03.818,vts_reward_expectancy,2022.2.4,Win32,59.96282305,Chrome,1280,720,,,a,1.651,1,289,1,0,9,9,7,1,0,0,1,0,0,1,0,0,hexagon,circle,,,,,,,,,,,,,,,,,,,,,,,,,,,,,,,,,,,,,,,,,,,,,,,,,,,,,,
297484,2022-09-25_15h40.03.818,vts_reward_expectancy,2022.2.4,Win32,59.96282305,Chrome,1280,720,,,a,0.8363,1,290,1,0,10,10,9,1,0,0,0,1,1,0,0,0,star,triangle,,,,,,,,,,,,,,,,,,,,,,,,,,,,,,,,,,,,,,,,,,,,,,,,,,,,,,
297484,2022-09-25_15h40.03.818,vts_reward_expectancy,2022.2.4,Win32,59.96282305,Chrome,1280,720,,,a,0.7507,1,291,1,0,11,11,10,1,0,0,0,1,0,1,0,0,star ,circle,,,,,,,,,,,,,,,,,,,,,,,,,,,,,,,,,,,,,,,,,,,,,,,,,,,,,,
297484,2022-09-25_15h40.03.818,vts_reward_expectancy,2022.2.4,Win32,59.96282305,Chrome,1280,720,,,l,2.2028,1,292,1,1,0,12,7,1,0,0,1,0,0,1,0,0,hexagon,circle,,,,,,,,,,,,,,,,,,,,,,,,,,,,,,,,,,,,,,,,,,,,,,,,,,,,,,
297484,2022-09-25_15h40.03.818,vts_reward_expectancy,2022.2.4,Win32,59.96282305,Chrome,1280,720,,,a,21.5013,1,293,1,1,1,13,10,1,0,0,0,1,0,1,0,0,star ,circle,,,,,,,,,,,,,,,,,,,,,,,,,,,,,,,,,,,,,,,,,,,,,,,,,,,,,,
297484,2022-09-25_15h40.03.818,vts_reward_expectancy,2022.2.4,Win32,59.96282305,Chrome,1280,720,,,l,59.6285,10,303,1,1,2,14,0,1,1,0,0,0,0,1,0,0,triangle,circle,,,,,,,,,,,,,,,,,,,,,,,,,,,,,,,,,,,,,,,,,,,,,,,,,,,,,,
297484,2022-09-25_15h40.03.818,vts_reward_expectancy,2022.2.4,Win32,59.96282305,Chrome,1280,720,,,a,1.4525,10,313,1,1,3,15,11,1,0,0,0,1,0,0,1,0,star,hexagon,,,,,,,,,,,,,,,,,,,,,,,,,,,,,,,,,,,,,,,,,,,,,,,,,,,,,,
297484,2022-09-25_15h40.03.818,vts_reward_expectancy,2022.2.4,Win32,59.96282305,Chrome,1280,720,,,l,1.3602,1,314,1,1,4,16,2,1,1,0,0,0,0,0,0,1,triangle,star,,,,,,,,,,,,,,,,,,,,,,,,,,,,,,,,,,,,,,,,,,,,,,,,,,,,,,
297484,2022-09-25_15h40.03.818,vts_reward_expectancy,2022.2.4,Win32,59.96282305,Chrome,1280,720,,,l,0.9408,10,324,1,1,5,17,3,1,0,1,0,0,1,0,0,0,circle,triangle,,,,,,,,,,,,,,,,,,,,,,,,,,,,,,,,,,,,,,,,,,,,,,,,,,,,,,
297484,2022-09-25_15h40.03.818,vts_reward_expectancy,2022.2.4,Win32,59.96282305,Chrome,1280,720,,,l,0.9978,10,334,1,1,6,18,8,1,0,0,1,0,0,0,0,1,hexagon,star,,,,,,,,,,,,,,,,,,,,,,,,,,,,,,,,,,,,,,,,,,,,,,,,,,,,,,
297484,2022-09-25_15h40.03.818,vts_reward_expectancy,2022.2.4,Win32,59.96282305,Chrome,1280,720,,,a,1.1662,10,344,1,1,7,19,1,1,1,0,0,0,0,0,1,0,triangle,hexagon,,,,,,,,,,,,,,,,,,,,,,,,,,,,,,,,,,,,,,,,,,,,,,,,,,,,,,
297484,2022-09-25_15h40.03.818,vts_reward_expectancy,2022.2.4,Win32,59.96282305,Chrome,1280,720,,,l,0.9345,10,354,1,1,8,20,6,1,0,0,1,0,1,0,0,0,hexagon,triangle,,,,,,,,,,,,,,,,,,,,,,,,,,,,,,,,,,,,,,,,,,,,,,,,,,,,,,
297484,2022-09-25_15h40.03.818,vts_reward_expectancy,2022.2.4,Win32,59.96282305,Chrome,1280,720,,,a,0.6753,1,355,1,1,9,21,9,1,0,0,0,1,1,0,0,0,star,triangle,,,,,,,,,,,,,,,,,,,,,,,,,,,,,,,,,,,,,,,,,,,,,,,,,,,,,,
297484,2022-09-25_15h40.03.818,vts_reward_expectancy,2022.2.4,Win32,59.96282305,Chrome,1280,720,,,l,1.1988,10,365,1,1,10,22,5,1,0,1,0,0,0,0,0,1,circle,star,,,,,,,,,,,,,,,,,,,,,,,,,,,,,,,,,,,,,,,,,,,,,,,,,,,,,,
297484,2022-09-25_15h40.03.818,vts_reward_expectancy,2022.2.4,Win32,59.96282305,Chrome,1280,720,,,l,1.3027,1,366,1,1,11,23,4,1,0,1,0,0,0,0,1,0,circle,hexagon,,,,,,,,,,,,,,,,,,,,,,,,,,,,,,,,,,,,,,,,,,,,,,,,,,,,,,
297484,2022-09-25_15h40.03.818,vts_reward_expectancy,2022.2.4,Win32,59.96282305,Chrome,1280,720,,,a,1.1096,1,367,1,2,0,24,4,1,0,1,0,0,0,0,1,0,circle,hexagon,,,,,,,,,,,,,,,,,,,,,,,,,,,,,,,,,,,,,,,,,,,,,,,,,,,,,,
297484,2022-09-25_15h40.03.818,vts_reward_expectancy,2022.2.4,Win32,59.96282305,Chrome,1280,720,,,a,1.0548,10,377,1,2,1,25,11,1,0,0,0,1,0,0,1,0,star,hexagon,,,,,,,,,,,,,,,,,,,,,,,,,,,,,,,,,,,,,,,,,,,,,,,,,,,,,,
297484,2022-09-25_15h40.03.818,vts_reward_expectancy,2022.2.4,Win32,59.96282305,Chrome,1280,720,,,a,1.5339,1,378,1,2,2,26,9,1,0,0,0,1,1,0,0,0,star,triangle,,,,,,,,,,,,,,,,,,,,,,,,,,,,,,,,,,,,,,,,,,,,,,,,,,,,,,
297484,2022-09-25_15h40.03.818,vts_reward_expectancy,2022.2.4,Win32,59.96282305,Chrome,1280,720,,,l,1.2823,10,388,1,2,3,27,7,1,0,0,1,0,0,1,0,0,hexagon,circle,,,,,,,,,,,,,,,,,,,,,,,,,,,,,,,,,,,,,,,,,,,,,,,,,,,,,,
297484,2022-09-25_15h40.03.818,vts_reward_expectancy,2022.2.4,Win32,59.96282305,Chrome,1280,720,,,a,1.4722,10,398,1,2,4,28,6,1,0,0,1,0,1,0,0,0,hexagon,triangle,,,,,,,,,,,,,,,,,,,,,,,,,,,,,,,,,,,,,,,,,,,,,,,,,,,,,,
297484,2022-09-25_15h40.03.818,vts_reward_expectancy,2022.2.4,Win32,59.96282305,Chrome,1280,720,,,l,0.815,10,408,1,2,5,29,2,1,1,0,0,0,0,0,0,1,triangle,star,,,,,,,,,,,,,,,,,,,,,,,,,,,,,,,,,,,,,,,,,,,,,,,,,,,,,,
297484,2022-09-25_15h40.03.818,vts_reward_expectancy,2022.2.4,Win32,59.96282305,Chrome,1280,720,,,l,1.1851,1,409,1,2,6,30,1,1,1,0,0,0,0,0,1,0,triangle,hexagon,,,,,,,,,,,,,,,,,,,,,,,,,,,,,,,,,,,,,,,,,,,,,,,,,,,,,,
297484,2022-09-25_15h40.03.818,vts_reward_expectancy,2022.2.4,Win32,59.96282305,Chrome,1280,720,,,l,0.5176,10,419,1,2,7,31,8,1,0,0,1,0,0,0,0,1,hexagon,star,,,,,,,,,,,,,,,,,,,,,,,,,,,,,,,,,,,,,,,,,,,,,,,,,,,,,,
297484,2022-09-25_15h40.03.818,vts_reward_expectancy,2022.2.4,Win32,59.96282305,Chrome,1280,720,,,a,0.8397,1,420,1,2,8,32,0,1,1,0,0,0,0,1,0,0,triangle,circle,,,,,,,,,,,,,,,,,,,,,,,,,,,,,,,,,,,,,,,,,,,,,,,,,,,,,,
297484,2022-09-25_15h40.03.818,vts_reward_expectancy,2022.2.4,Win32,59.96282305,Chrome,1280,720,,,a,1.3949,10,430,1,2,9,33,3,1,0,1,0,0,1,0,0,0,circle,triangle,,,,,,,,,,,,,,,,,,,,,,,,,,,,,,,,,,,,,,,,,,,,,,,,,,,,,,
297484,2022-09-25_15h40.03.818,vts_reward_expectancy,2022.2.4,Win32,59.96282305,Chrome,1280,720,,,l,0.5544,10,440,1,2,10,34,5,1,0,1,0,0,0,0,0,1,circle,star,,,,,,,,,,,,,,,,,,,,,,,,,,,,,,,,,,,,,,,,,,,,,,,,,,,,,,
297484,2022-09-25_15h40.03.818,vts_reward_expectancy,2022.2.4,Win32,59.96282305,Chrome,1280,720,,,l,0.8339,1,441,1,2,11,35,10,1,0,0,0,1,0,1,0,0,star ,circle,,,,,,,,,,,,,,,,,,,,,,,,,,,,,,,,,,,,,,,,,,,,,,,,,,,,,,
297484,2022-09-25_15h40.03.818,vts_reward_expectancy,2022.2.4,Win32,59.96282305,Chrome,1280,720,,,l,0.9583,10,451,2,0,0,0,8,1,0,0,1,0,0,0,0,1,hexagon,star,,,,,,,,,,,,,,,,,,,,,,,,,,,,,,,,,,,,,,,,,,,,,,,,,,,,,,
297484,2022-09-25_15h40.03.818,vts_reward_expectancy,2022.2.4,Win32,59.96282305,Chrome,1280,720,,,l,1.1439,1,452,2,0,1,1,9,1,0,0,0,1,1,0,0,0,star,triangle,,,,,,,,,,,,,,,,,,,,,,,,,,,,,,,,,,,,,,,,,,,,,,,,,,,,,,
297484,2022-09-25_15h40.03.818,vts_reward_expectancy,2022.2.4,Win32,59.96282305,Chrome,1280,720,,,l,0.8032,1,453,2,0,2,2,5,1,0,1,0,0,0,0,0,1,circle,star,,,,,,,,,,,,,,,,,,,,,,,,,,,,,,,,,,,,,,,,,,,,,,,,,,,,,,
297484,2022-09-25_15h40.03.818,vts_reward_expectancy,2022.2.4,Win32,59.96282305,Chrome,1280,720,,,a,51.3418,10,463,2,0,3,3,11,1,0,0,0,1,0,0,1,0,star,hexagon,,,,,,,,,,,,,,,,,,,,,,,,,,,,,,,,,,,,,,,,,,,,,,,,,,,,,,
297484,2022-09-25_15h40.03.818,vts_reward_expectancy,2022.2.4,Win32,59.96282305,Chrome,1280,720,,,l,0.6878,10,473,2,0,4,4,2,1,1,0,0,0,0,0,0,1,triangle,star,,,,,,,,,,,,,,,,,,,,,,,,,,,,,,,,,,,,,,,,,,,,,,,,,,,,,,
297484,2022-09-25_15h40.03.818,vts_reward_expectancy,2022.2.4,Win32,59.96282305,Chrome,1280,720,,,a,1.3423,1,474,2,0,5,5,7,1,0,0,1,0,0,1,0,0,hexagon,circle,,,,,,,,,,,,,,,,,,,,,,,,,,,,,,,,,,,,,,,,,,,,,,,,,,,,,,
297484,2022-09-25_15h40.03.818,vts_reward_expectancy,2022.2.4,Win32,59.96282305,Chrome,1280,720,,,a,1.0326,1,475,2,0,6,6,4,1,0,1,0,0,0,0,1,0,circle,hexagon,,,,,,,,,,,,,,,,,,,,,,,,,,,,,,,,,,,,,,,,,,,,,,,,,,,,,,
297484,2022-09-25_15h40.03.818,vts_reward_expectancy,2022.2.4,Win32,59.96282305,Chrome,1280,720,,,l,1.106,10,485,2,0,7,7,6,1,0,0,1,0,1,0,0,0,hexagon,triangle,,,,,,,,,,,,,,,,,,,,,,,,,,,,,,,,,,,,,,,,,,,,,,,,,,,,,,
297484,2022-09-25_15h40.03.818,vts_reward_expectancy,2022.2.4,Win32,59.96282305,Chrome,1280,720,,,l,0.7557,1,486,2,0,8,8,3,1,0,1,0,0,1,0,0,0,circle,triangle,,,,,,,,,,,,,,,,,,,,,,,,,,,,,,,,,,,,,,,,,,,,,,,,,,,,,,
297484,2022-09-25_15h40.03.818,vts_reward_expectancy,2022.2.4,Win32,59.96282305,Chrome,1280,720,,,l,0.7791,1,487,2,0,9,9,1,1,1,0,0,0,0,0,1,0,triangle,hexagon,,,,,,,,,,,,,,,,,,,,,,,,,,,,,,,,,,,,,,,,,,,,,,,,,,,,,,
297484,2022-09-25_15h40.03.818,vts_reward_expectancy,2022.2.4,Win32,59.96282305,Chrome,1280,720,,,a,2.1834,1,488,2,0,10,10,10,1,0,0,0,1,0,1,0,0,star ,circle,,,,,,,,,,,,,,,,,,,,,,,,,,,,,,,,,,,,,,,,,,,,,,,,,,,,,,
297484,2022-09-25_15h40.03.818,vts_reward_expectancy,2022.2.4,Win32,59.96282305,Chrome,1280,720,,,l,3.3229,1,489,2,0,11,11,0,1,1,0,0,0,0,1,0,0,triangle,circle,,,,,,,,,,,,,,,,,,,,,,,,,,,,,,,,,,,,,,,,,,,,,,,,,,,,,,
297484,2022-09-25_15h40.03.818,vts_reward_expectancy,2022.2.4,Win32,59.96282305,Chrome,1280,720,,,l,0.7686,10,499,2,1,0,12,5,1,0,1,0,0,0,0,0,1,circle,star,,,,,,,,,,,,,,,,,,,,,,,,,,,,,,,,,,,,,,,,,,,,,,,,,,,,,,
297484,2022-09-25_15h40.03.818,vts_reward_expectancy,2022.2.4,Win32,59.96282305,Chrome,1280,720,,,a,0.6667,10,509,2,1,1,13,11,1,0,0,0,1,0,0,1,0,star,hexagon,,,,,,,,,,,,,,,,,,,,,,,,,,,,,,,,,,,,,,,,,,,,,,,,,,,,,,
297484,2022-09-25_15h40.03.818,vts_reward_expectancy,2022.2.4,Win32,59.96282305,Chrome,1280,720,,,l,0.582,1,510,2,1,2,14,2,1,1,0,0,0,0,0,0,1,triangle,star,,,,,,,,,,,,,,,,,,,,,,,,,,,,,,,,,,,,,,,,,,,,,,,,,,,,,,
297484,2022-09-25_15h40.03.818,vts_reward_expectancy,2022.2.4,Win32,59.96282305,Chrome,1280,720,,,l,1.3653,1,511,2,1,3,15,7,1,0,0,1,0,0,1,0,0,hexagon,circle,,,,,,,,,,,,,,,,,,,,,,,,,,,,,,,,,,,,,,,,,,,,,,,,,,,,,,
297484,2022-09-25_15h40.03.818,vts_reward_expectancy,2022.2.4,Win32,59.96282305,Chrome,1280,720,,,l,2.4998,1,512,2,1,4,16,3,1,0,1,0,0,1,0,0,0,circle,triangle,,,,,,,,,,,,,,,,,,,,,,,,,,,,,,,,,,,,,,,,,,,,,,,,,,,,,,
297484,2022-09-25_15h40.03.818,vts_reward_expectancy,2022.2.4,Win32,59.96282305,Chrome,1280,720,,,l,2.0731,10,522,2,1,5,17,8,1,0,0,1,0,0,0,0,1,hexagon,star,,,,,,,,,,,,,,,,,,,,,,,,,,,,,,,,,,,,,,,,,,,,,,,,,,,,,,
297484,2022-09-25_15h40.03.818,vts_reward_expectancy,2022.2.4,Win32,59.96282305,Chrome,1280,720,,,a,0.9364,1,523,2,1,6,18,0,1,1,0,0,0,0,1,0,0,triangle,circle,,,,,,,,,,,,,,,,,,,,,,,,,,,,,,,,,,,,,,,,,,,,,,,,,,,,,,
297484,2022-09-25_15h40.03.818,vts_reward_expectancy,2022.2.4,Win32,59.96282305,Chrome,1280,720,,,a,0.6434,10,533,2,1,7,19,9,1,0,0,0,1,1,0,0,0,star,triangle,,,,,,,,,,,,,,,,,,,,,,,,,,,,,,,,,,,,,,,,,,,,,,,,,,,,,,
297484,2022-09-25_15h40.03.818,vts_reward_expectancy,2022.2.4,Win32,59.96282305,Chrome,1280,720,,,l,0.711,1,534,2,1,8,20,1,1,1,0,0,0,0,0,1,0,triangle,hexagon,,,,,,,,,,,,,,,,,,,,,,,,,,,,,,,,,,,,,,,,,,,,,,,,,,,,,,
297484,2022-09-25_15h40.03.818,vts_reward_expectancy,2022.2.4,Win32,59.96282305,Chrome,1280,720,,,a,0.9483,1,535,2,1,9,21,10,1,0,0,0,1,0,1,0,0,star ,circle,,,,,,,,,,,,,,,,,,,,,,,,,,,,,,,,,,,,,,,,,,,,,,,,,,,,,,
297484,2022-09-25_15h40.03.818,vts_reward_expectancy,2022.2.4,Win32,59.96282305,Chrome,1280,720,,,l,0.5845,10,545,2,1,10,22,4,1,0,1,0,0,0,0,1,0,circle,hexagon,,,,,,,,,,,,,,,,,,,,,,,,,,,,,,,,,,,,,,,,,,,,,,,,,,,,,,
297484,2022-09-25_15h40.03.818,vts_reward_expectancy,2022.2.4,Win32,59.96282305,Chrome,1280,720,,,a,1.4657,1,546,2,1,11,23,6,1,0,0,1,0,1,0,0,0,hexagon,triangle,,,,,,,,,,,,,,,,,,,,,,,,,,,,,,,,,,,,,,,,,,,,,,,,,,,,,,
297484,2022-09-25_15h40.03.818,vts_reward_expectancy,2022.2.4,Win32,59.96282305,Chrome,1280,720,,,l,0.4665,10,556,2,2,0,24,5,1,0,1,0,0,0,0,0,1,circle,star,,,,,,,,,,,,,,,,,,,,,,,,,,,,,,,,,,,,,,,,,,,,,,,,,,,,,,
297484,2022-09-25_15h40.03.818,vts_reward_expectancy,2022.2.4,Win32,59.96282305,Chrome,1280,720,,,a,0.7768,10,566,2,2,1,25,11,1,0,0,0,1,0,0,1,0,star,hexagon,,,,,,,,,,,,,,,,,,,,,,,,,,,,,,,,,,,,,,,,,,,,,,,,,,,,,,
297484,2022-09-25_15h40.03.818,vts_reward_expectancy,2022.2.4,Win32,59.96282305,Chrome,1280,720,,,l,0.7733,10,576,2,2,2,26,7,1,0,0,1,0,0,1,0,0,hexagon,circle,,,,,,,,,,,,,,,,,,,,,,,,,,,,,,,,,,,,,,,,,,,,,,,,,,,,,,
297484,2022-09-25_15h40.03.818,vts_reward_expectancy,2022.2.4,Win32,59.96282305,Chrome,1280,720,,,l,0.971,10,586,2,2,3,27,8,1,0,0,1,0,0,0,0,1,hexagon,star,,,,,,,,,,,,,,,,,,,,,,,,,,,,,,,,,,,,,,,,,,,,,,,,,,,,,,
297484,2022-09-25_15h40.03.818,vts_reward_expectancy,2022.2.4,Win32,59.96282305,Chrome,1280,720,,,l,0.4664,1,587,2,2,4,28,2,1,1,0,0,0,0,0,0,1,triangle,star,,,,,,,,,,,,,,,,,,,,,,,,,,,,,,,,,,,,,,,,,,,,,,,,,,,,,,
297484,2022-09-25_15h40.03.818,vts_reward_expectancy,2022.2.4,Win32,59.96282305,Chrome,1280,720,,,a,1.7199,1,588,2,2,5,29,3,1,0,1,0,0,1,0,0,0,circle,triangle,,,,,,,,,,,,,,,,,,,,,,,,,,,,,,,,,,,,,,,,,,,,,,,,,,,,,,
297484,2022-09-25_15h40.03.818,vts_reward_expectancy,2022.2.4,Win32,59.96282305,Chrome,1280,720,,,l,1.8479,10,598,2,2,6,30,1,1,1,0,0,0,0,0,1,0,triangle,hexagon,,,,,,,,,,,,,,,,,,,,,,,,,,,,,,,,,,,,,,,,,,,,,,,,,,,,,,
297484,2022-09-25_15h40.03.818,vts_reward_expectancy,2022.2.4,Win32,59.96282305,Chrome,1280,720,,,a,0.8665,10,608,2,2,7,31,10,1,0,0,0,1,0,1,0,0,star ,circle,,,,,,,,,,,,,,,,,,,,,,,,,,,,,,,,,,,,,,,,,,,,,,,,,,,,,,
297484,2022-09-25_15h40.03.818,vts_reward_expectancy,2022.2.4,Win32,59.96282305,Chrome,1280,720,,,l,1.1502,10,618,2,2,8,32,9,1,0,0,0,1,1,0,0,0,star,triangle,,,,,,,,,,,,,,,,,,,,,,,,,,,,,,,,,,,,,,,,,,,,,,,,,,,,,,
297484,2022-09-25_15h40.03.818,vts_reward_expectancy,2022.2.4,Win32,59.96282305,Chrome,1280,720,,,l,0.7321,10,628,2,2,9,33,6,1,0,0,1,0,1,0,0,0,hexagon,triangle,,,,,,,,,,,,,,,,,,,,,,,,,,,,,,,,,,,,,,,,,,,,,,,,,,,,,,
297484,2022-09-25_15h40.03.818,vts_reward_expectancy,2022.2.4,Win32,59.96282305,Chrome,1280,720,,,l,1.328,1,629,2,2,10,34,0,1,1,0,0,0,0,1,0,0,triangle,circle,,,,,,,,,,,,,,,,,,,,,,,,,,,,,,,,,,,,,,,,,,,,,,,,,,,,,,
297484,2022-09-25_15h40.03.818,vts_reward_expectancy,2022.2.4,Win32,59.96282305,Chrome,1280,720,,,a,1.1894,10,639,2,2,11,35,4,1,0,1,0,0,0,0,1,0,circle,hexagon,,,,,,,,,,,,,,,,,,,,,,,,,,,,,,,,,,,,,,,,,,,,,,,,,,,,,,
297484,2022-09-25_15h40.03.818,vts_reward_expectancy,2022.2.4,Win32,59.96282305,Chrome,1280,720,,,,,,,,,,,,,,,,,,,,,,,174,D,circle,1,0,f,1.6793,0,0,0,0,0,1,,,,,,,,,,,,,,,,,,,,,,,,,,,,,,,,,,,,,,,,,
297484,2022-09-25_15h40.03.818,vts_reward_expectancy,2022.2.4,Win32,59.96282305,Chrome,1280,720,,,,,,,,,,,,,,,,,,,,,,,139,F,star,1,0,d,0.733,0,1,0,1,0,1,,,,,,,,,,,,,,,,,,,,,,,,,,,,,,,,,,,,,,,,,
297484,2022-09-25_15h40.03.818,vts_reward_expectancy,2022.2.4,Win32,59.96282305,Chrome,1280,720,,,,,,,,,,,,,,,,,,,,,,,160,W,hexagon,1,0,f,0.7813,0,2,0,2,0,1,,,,,,,,,,,,,,,,,,,,,,,,,,,,,,,,,,,,,,,,,
297484,2022-09-25_15h40.03.818,vts_reward_expectancy,2022.2.4,Win32,59.96282305,Chrome,1280,720,,,,,,,,,,,,,,,,,,,,,,,146,S,triangle,1,0,d,0.6992,0,3,0,3,0,1,,,,,,,,,,,,,,,,,,,,,,,,,,,,,,,,,,,,,,,,,
297484,2022-09-25_15h40.03.818,vts_reward_expectancy,2022.2.4,Win32,59.96282305,Chrome,1280,720,,,,,,,,,,,,,,,,,,,,,,,125,B,circle,1,0,d,1.0067,0,4,0,4,0,1,,,,,,,,,,,,,,,,,,,,,,,,,,,,,,,,,,,,,,,,,
297484,2022-09-25_15h40.03.818,vts_reward_expectancy,2022.2.4,Win32,59.96282305,Chrome,1280,720,,,,,,,,,,,,,,,,,,,,,,,132,U,star,1,0,d,0.7659,0,5,0,5,0,1,,,,,,,,,,,,,,,,,,,,,,,,,,,,,,,,,,,,,,,,,
297484,2022-09-25_15h40.03.818,vts_reward_expectancy,2022.2.4,Win32,59.96282305,Chrome,1280,720,,,,,,,,,,,,,,,,,,,,,,,167,Y,hexagon,1,0,f,1.067,0,6,0,6,0,1,,,,,,,,,,,,,,,,,,,,,,,,,,,,,,,,,,,,,,,,,
297484,2022-09-25_15h40.03.818,vts_reward_expectancy,2022.2.4,Win32,59.96282305,Chrome,1280,720,,,,,,,,,,,,,,,,,,,,,,,181,H,triangle,1,0,f,0.7862,0,7,0,7,0,1,,,,,,,,,,,,,,,,,,,,,,,,,,,,,,,,,,,,,,,,,
297484,2022-09-25_15h40.03.818,vts_reward_expectancy,2022.2.4,Win32,59.96282305,Chrome,1280,720,,,,,,,,,,,,,,,,,,,,,,,174,D,star,1,0,f,0.9645,0,8,0,8,0,1,,,,,,,,,,,,,,,,,,,,,,,,,,,,,,,,,,,,,,,,,
297484,2022-09-25_15h40.03.818,vts_reward_expectancy,2022.2.4,Win32,59.96282305,Chrome,1280,720,,,,,,,,,,,,,,,,,,,,,,,139,F,circle,1,0,d,1.0658,0,9,0,9,0,1,,,,,,,,,,,,,,,,,,,,,,,,,,,,,,,,,,,,,,,,,
297484,2022-09-25_15h40.03.818,vts_reward_expectancy,2022.2.4,Win32,59.96282305,Chrome,1280,720,,,,,,,,,,,,,,,,,,,,,,,125,D,triangle,0,0,,,1,,,,,,,0,0,0,0,1,,,,,,,,,,,,,,,,,,,,,,,,,,,,,,,,,,,
297484,2022-09-25_15h40.03.818,vts_reward_expectancy,2022.2.4,Win32,59.96282305,Chrome,1280,720,,,,,,,,,,,,,,,,,,,,,,,167,W,circle,2,1,,,1,,,,,,f,1,0,1,0,1,0.8685,,,,,,,,,,,,,,,,,,,,,,,,,,,,,,,,,,
297484,2022-09-25_15h40.03.818,vts_reward_expectancy,2022.2.4,Win32,59.96282305,Chrome,1280,720,,,,,,,,,,,,,,,,,,,,,,,174,S,star,1,0,,,1,,,,,,k,2,0,2,0,1,1.4216,,,,,,,,,,,,,,,,,,,,,,,,,,,,,,,,,,
297484,2022-09-25_15h40.03.818,vts_reward_expectancy,2022.2.4,Win32,59.96282305,Chrome,1280,720,,,,,,,,,,,,,,,,,,,,,,,139,Y,hexagon,1,0,,,1,,,,,,k,3,0,3,0,1,1.1539,,,,,,,,,,,,,,,,,,,,,,,,,,,,,,,,,,
297484,2022-09-25_15h40.03.818,vts_reward_expectancy,2022.2.4,Win32,59.96282305,Chrome,1280,720,,,,,,,,,,,,,,,,,,,,,,,181,F,triangle,0,0,,,1,,,,,,k,4,0,4,0,1,0.7136,,,,,,,,,,,,,,,,,,,,,,,,,,,,,,,,,,
297484,2022-09-25_15h40.03.818,vts_reward_expectancy,2022.2.4,Win32,59.96282305,Chrome,1280,720,,,,,,,,,,,,,,,,,,,,,,,146,B,circle,1,1,,,1,,,,,,j,5,0,5,0,1,1.0294,,,,,,,,,,,,,,,,,,,,,,,,,,,,,,,,,,
297484,2022-09-25_15h40.03.818,vts_reward_expectancy,2022.2.4,Win32,59.96282305,Chrome,1280,720,,,,,,,,,,,,,,,,,,,,,,,132,H,star,1,0,,,1,,,,,,j,6,0,6,0,1,1.2813,,,,,,,,,,,,,,,,,,,,,,,,,,,,,,,,,,
297484,2022-09-25_15h40.03.818,vts_reward_expectancy,2022.2.4,Win32,59.96282305,Chrome,1280,720,,,,,,,,,,,,,,,,,,,,,,,160,U,hexagon,0,0,,,1,,,,,,j,7,0,7,0,1,2.4751,,,,,,,,,,,,,,,,,,,,,,,,,,,,,,,,,,
297484,2022-09-25_15h40.03.818,vts_reward_expectancy,2022.2.4,Win32,59.96282305,Chrome,1280,720,,,,,,,,,,,,,,,,,,,,,,,125,D,star,1,1,,,1,,,,,,j,8,0,8,0,1,0.8292,,,,,,,,,,,,,,,,,,,,,,,,,,,,,,,,,,
297484,2022-09-25_15h40.03.818,vts_reward_expectancy,2022.2.4,Win32,59.96282305,Chrome,1280,720,,,,,,,,,,,,,,,,,,,,,,,167,W,triangle,1,0,,,1,,,,,,k,9,0,9,0,1,0.8834,,,,,,,,,,,,,,,,,,,,,,,,,,,,,,,,,,
297484,2022-09-25_15h40.03.818,vts_reward_expectancy,2022.2.4,Win32,59.96282305,Chrome,1280,720,,,,,,,,,,,,,,,,,,,,,,,160,U,hexagon,1,0,,,2,,,,,,k,0,0,0,0,1,0.9321,,,,,,,,,,,,,,,,,,,,,,,,,,,,,,,,,,
297484,2022-09-25_15h40.03.818,vts_reward_expectancy,2022.2.4,Win32,59.96282305,Chrome,1280,720,,,,,,,,,,,,,,,,,,,,,,,167,B,star,1,0,,,2,,,,,,j,1,0,1,0,1,0.6575,,,,,,,,,,,,,,,,,,,,,,,,,,,,,,,,,,
297484,2022-09-25_15h40.03.818,vts_reward_expectancy,2022.2.4,Win32,59.96282305,Chrome,1280,720,,,,,,,,,,,,,,,,,,,,,,,146,H,circle,0,0,,,2,,,,,,k,2,0,2,0,1,0.8474,,,,,,,,,,,,,,,,,,,,,,,,,,,,,,,,,,
297484,2022-09-25_15h40.03.818,vts_reward_expectancy,2022.2.4,Win32,59.96282305,Chrome,1280,720,,,,,,,,,,,,,,,,,,,,,,,181,D,triangle,1,1,,,2,,,,,,j,3,0,3,0,1,0.7495,,,,,,,,,,,,,,,,,,,,,,,,,,,,,,,,,,
297484,2022-09-25_15h40.03.818,vts_reward_expectancy,2022.2.4,Win32,59.96282305,Chrome,1280,720,,,,,,,,,,,,,,,,,,,,,,,125,W,hexagon,1,0,,,2,,,,,,k,4,0,4,0,1,1.0629,,,,,,,,,,,,,,,,,,,,,,,,,,,,,,,,,,
297484,2022-09-25_15h40.03.818,vts_reward_expectancy,2022.2.4,Win32,59.96282305,Chrome,1280,720,,,,,,,,,,,,,,,,,,,,,,,132,S,star,0,0,,,2,,,,,,j,5,0,5,0,1,2.0271,,,,,,,,,,,,,,,,,,,,,,,,,,,,,,,,,,
297484,2022-09-25_15h40.03.818,vts_reward_expectancy,2022.2.4,Win32,59.96282305,Chrome,1280,720,,,,,,,,,,,,,,,,,,,,,,,139,F,circle,0,1,,,2,,,,,,k,6,0,6,0,1,1.537,,,,,,,,,,,,,,,,,,,,,,,,,,,,,,,,,,
297484,2022-09-25_15h40.03.818,vts_reward_expectancy,2022.2.4,Win32,59.96282305,Chrome,1280,720,,,,,,,,,,,,,,,,,,,,,,,174,Y,triangle,1,1,,,2,,,,,,k,7,0,7,0,1,0.9531,,,,,,,,,,,,,,,,,,,,,,,,,,,,,,,,,,
297484,2022-09-25_15h40.03.818,vts_reward_expectancy,2022.2.4,Win32,59.96282305,Chrome,1280,720,,,,,,,,,,,,,,,,,,,,,,,160,U,circle,0,0,,,2,,,,,,j,8,0,8,0,1,2.7326,,,,,,,,,,,,,,,,,,,,,,,,,,,,,,,,,,
297484,2022-09-25_15h40.03.818,vts_reward_expectancy,2022.2.4,Win32,59.96282305,Chrome,1280,720,,,,,,,,,,,,,,,,,,,,,,,167,B,triangle,1,1,,,2,,,,,,j,9,0,9,0,1,0.6651,,,,,,,,,,,,,,,,,,,,,,,,,,,,,,,,,,
297484,2022-09-25_15h40.03.818,vts_reward_expectancy,2022.2.4,Win32,59.96282305,Chrome,1280,720,,,,,,,,,,,,,,,,,,,,,,,125,W,circle,1,0,,,3,,,,,,k,0,0,0,0,1,0.8252,,,,,,,,,,,,,,,,,,,,,,,,,,,,,,,,,,
297484,2022-09-25_15h40.03.818,vts_reward_expectancy,2022.2.4,Win32,59.96282305,Chrome,1280,720,,,,,,,,,,,,,,,,,,,,,,,146,F,star,1,0,,,3,,,,,,j,1,0,1,0,1,1.7803,,,,,,,,,,,,,,,,,,,,,,,,,,,,,,,,,,
297484,2022-09-25_15h40.03.818,vts_reward_expectancy,2022.2.4,Win32,59.96282305,Chrome,1280,720,,,,,,,,,,,,,,,,,,,,,,,174,S,hexagon,0,0,,,3,,,,,,j,2,0,2,0,1,1.3625,,,,,,,,,,,,,,,,,,,,,,,,,,,,,,,,,,
297484,2022-09-25_15h40.03.818,vts_reward_expectancy,2022.2.4,Win32,59.96282305,Chrome,1280,720,,,,,,,,,,,,,,,,,,,,,,,139,D,triangle,1,1,,,3,,,,,,j,3,0,3,0,1,0.9826,,,,,,,,,,,,,,,,,,,,,,,,,,,,,,,,,,
297484,2022-09-25_15h40.03.818,vts_reward_expectancy,2022.2.4,Win32,59.96282305,Chrome,1280,720,,,,,,,,,,,,,,,,,,,,,,,181,H,circle,1,0,,,3,,,,,,j,4,0,4,0,1,2.7666,,,,,,,,,,,,,,,,,,,,,,,,,,,,,,,,,,
297484,2022-09-25_15h40.03.818,vts_reward_expectancy,2022.2.4,Win32,59.96282305,Chrome,1280,720,,,,,,,,,,,,,,,,,,,,,,,167,B,star,1,0,,,3,,,,,,j,5,0,5,0,1,0.7969,,,,,,,,,,,,,,,,,,,,,,,,,,,,,,,,,,
297484,2022-09-25_15h40.03.818,vts_reward_expectancy,2022.2.4,Win32,59.96282305,Chrome,1280,720,,,,,,,,,,,,,,,,,,,,,,,160,U,hexagon,1,0,,,3,,,,,,k,6,0,6,0,1,2.9359,,,,,,,,,,,,,,,,,,,,,,,,,,,,,,,,,,
297484,2022-09-25_15h40.03.818,vts_reward_expectancy,2022.2.4,Win32,59.96282305,Chrome,1280,720,,,,,,,,,,,,,,,,,,,,,,,132,Y,triangle,1,0,,,3,,,,,,k,7,0,7,0,1,0.7911,,,,,,,,,,,,,,,,,,,,,,,,,,,,,,,,,,
297484,2022-09-25_15h40.03.818,vts_reward_expectancy,2022.2.4,Win32,59.96282305,Chrome,1280,720,,,,,,,,,,,,,,,,,,,,,,,125,W,star,1,0,,,3,,,,,,k,8,0,8,0,1,0.7054,,,,,,,,,,,,,,,,,,,,,,,,,,,,,,,,,,
297484,2022-09-25_15h40.03.818,vts_reward_expectancy,2022.2.4,Win32,59.96282305,Chrome,1280,720,,,,,,,,,,,,,,,,,,,,,,,146,F,triangle,1,0,,,3,,,,,,j,9,0,9,0,1,2.4768,,,,,,,,,,,,,,,,,,,,,,,,,,,,,,,,,,
297484,2022-09-25_15h40.03.818,vts_reward_expectancy,2022.2.4,Win32,59.96282305,Chrome,1280,720,,,,,0,639,,,,,,,,,,,,,,,,,146,H,circle,1,0,,,4,,,,,,,,,,,,,-1,number,NA,d,0.9744,vtsPrac,0,0,0,0,1,,,,,,,,,,,,,,,,,,,,,,,
297484,2022-09-25_15h40.03.818,vts_reward_expectancy,2022.2.4,Win32,59.96282305,Chrome,1280,720,,,,,0,639,,,,,,,,,,,,,,,,,139,F,triangle,0,0,,,4,,,,,,,,,,,,,switch,letter,NA,k,2.7947,vtsPrac,1,0,1,0,1,,,,,,,,,,,,,,,,,,,,,,,
297484,2022-09-25_15h40.03.818,vts_reward_expectancy,2022.2.4,Win32,59.96282305,Chrome,1280,720,,,,,0,639,,,,,,,,,,,,,,,,,160,B,circle,0,1,,,4,,,,,,,,,,,,,repeat,letter,NA,k,1.9511,vtsPrac,2,0,2,0,1,,,,,,,,,,,,,,,,,,,,,,,
297484,2022-09-25_15h40.03.818,vts_reward_expectancy,2022.2.4,Win32,59.96282305,Chrome,1280,720,,,,,0,639,,,,,,,,,,,,,,,,,181,Y,triangle,1,1,,,4,,,,,,,,,,,,,repeat,letter,lettRpt,k,0.7732,vtsPrac,3,0,3,0,1,,,,,,,,,,,,,,,,,,,,,,,
297484,2022-09-25_15h40.03.818,vts_reward_expectancy,2022.2.4,Win32,59.96282305,Chrome,1280,720,,,,,0,639,,,,,,,,,,,,,,,,,146,H,circle,-1,0,,,4,,,,,,,,,,,,,switch,no_choice,NA,,,vtsPrac,4,0,4,0,1,,,,,,,,,,,,,,,,,,,,,,,
297484,2022-09-25_15h40.03.818,vts_reward_expectancy,2022.2.4,Win32,59.96282305,Chrome,1280,720,,,,,0,639,,,,,,,,,,,,,,,,,139,F,triangle,1,0,,,4,,,,,,,,,,,,,switch,letter,lettSwt,j,1.5059,vtsPrac,5,0,5,0,1,,,,,,,,,,,,,,,,,,,,,,,
297484,2022-09-25_15h40.03.818,vts_reward_expectancy,2022.2.4,Win32,59.96282305,Chrome,1280,720,,,,,0,639,,,,,,,,,,,,,,,,,160,B,triangle,1,0,,,4,,,,,,,,,,,,,switch,number,numSwt,f,1.2735,vtsPrac,6,0,6,0,1,,,,,,,,,,,,,,,,,,,,,,,
297484,2022-09-25_15h40.03.818,vts_reward_expectancy,2022.2.4,Win32,59.96282305,Chrome,1280,720,,,,,0,639,,,,,,,,,,,,,,,,,181,Y,circle,1,0,,,4,,,,,,,,,,,,,switch,letter,lettSwt,k,1.0645,vtsPrac,7,0,7,0,1,,,,,,,,,,,,,,,,,,,,,,,
297484,2022-09-25_15h40.03.818,vts_reward_expectancy,2022.2.4,Win32,59.96282305,Chrome,1280,720,,,,,0,639,,,,,,,,,,,,,,,,,139,H,hexagon,1,0,,,4,,,,,,,,,,,,,switch,number,numSwt,d,1.0912,vtsPrac,8,0,8,0,1,,,,,,,,,,,,,,,,,,,,,,,
297484,2022-09-25_15h40.03.818,vts_reward_expectancy,2022.2.4,Win32,59.96282305,Chrome,1280,720,,,,,0,639,,,,,,,,,,,,,,,,,160,S,triangle,1,0,,,4,,,,,,,,,,,,,repeat,number,numRpt,f,2.1873,vtsPrac,9,0,9,0,1,,,,,,,,,,,,,,,,,,,,,,,
297484,2022-09-25_15h40.03.818,vts_reward_expectancy,2022.2.4,Win32,59.96282305,Chrome,1280,720,,,,,0,639,,,,,,,,,,,,,,,,,125,W,hexagon,1,0,,,4,,,,,,,,,,,,,switch,letter,lettSwt,k,2.3685,vtsPrac,10,0,10,0,1,,,,,,,,,,,,,,,,,,,,,,,
297484,2022-09-25_15h40.03.818,vts_reward_expectancy,2022.2.4,Win32,59.96282305,Chrome,1280,720,,,,,0,639,,,,,,,,,,,,,,,,,181,Y,circle,1,0,,,4,,,,,,,,,,,,,repeat,letter,lettRpt,k,1.0184,vtsPrac,11,0,11,0,1,,,,,,,,,,,,,,,,,,,,,,,
297484,2022-09-25_15h40.03.818,vts_reward_expectancy,2022.2.4,Win32,59.96282305,Chrome,1280,720,,,,,0,639,,,,,,,,,,,,,,,,,167,B,circle,1,0,,,4,,,,,,,,,,,,,switch,number,numSwt,f,0.7646,vtsPrac,12,0,12,0,1,,,,,,,,,,,,,,,,,,,,,,,
297484,2022-09-25_15h40.03.818,vts_reward_expectancy,2022.2.4,Win32,59.96282305,Chrome,1280,720,,,,,0,639,,,,,,,,,,,,,,,,,174,F,triangle,0,0,,,4,,,,,,,,,,,,,switch,letter,NA,k,1.5933,vtsPrac,13,0,13,0,1,,,,,,,,,,,,,,,,,,,,,,,
297484,2022-09-25_15h40.03.818,vts_reward_expectancy,2022.2.4,Win32,59.96282305,Chrome,1280,720,,,,,0,639,,,,,,,,,,,,,,,,,139,D,hexagon,1,1,,,4,,,,,,,,,,,,,switch,number,numSwt,d,1.0997,vtsPrac,14,0,14,0,1,,,,,,,,,,,,,,,,,,,,,,,
297484,2022-09-25_15h40.03.818,vts_reward_expectancy,2022.2.4,Win32,59.96282305,Chrome,1280,720,,,,,0,639,,,,,,,,,,,,,,,,,146,W,triangle,1,0,,,4,,,,,,,,,,,,,switch,letter,lettSwt,k,0.7406,vtsPrac,15,0,15,0,1,,,,,,,,,,,,,,,,,,,,,,,
297484,2022-09-25_15h40.03.818,vts_reward_expectancy,2022.2.4,Win32,59.96282305,Chrome,1280,720,,,,,0,639,,,,,,,,,,,,,,,,,125,Y,hexagon,1,0,,,5,,,,,,,,,,,,,switch,number,numSwt,d,1.2132,vtsPrac,0,0,0,0,1,,,,,,,,,,,,,,,,,,,,,,,
297484,2022-09-25_15h40.03.818,vts_reward_expectancy,2022.2.4,Win32,59.96282305,Chrome,1280,720,,,,,0,639,,,,,,,,,,,,,,,,,167,B,triangle,1,0,,,5,,,,,,,,,,,,,switch,letter,lettSwt,j,0.9886,vtsPrac,1,0,1,0,1,,,,,,,,,,,,,,,,,,,,,,,
297484,2022-09-25_15h40.03.818,vts_reward_expectancy,2022.2.4,Win32,59.96282305,Chrome,1280,720,,,,,0,639,,,,,,,,,,,,,,,,,132,D,hexagon,1,0,,,5,,,,,,,,,,,,,repeat,letter,lettRpt,j,0.9303,vtsPrac,2,0,2,0,1,,,,,,,,,,,,,,,,,,,,,,,
297484,2022-09-25_15h40.03.818,vts_reward_expectancy,2022.2.4,Win32,59.96282305,Chrome,1280,720,,,,,0,639,,,,,,,,,,,,,,,,,160,F,triangle,1,0,,,5,,,,,,,,,,,,,switch,number,numSwt,f,0.935,vtsPrac,3,0,3,0,1,,,,,,,,,,,,,,,,,,,,,,,
297484,2022-09-25_15h40.03.818,vts_reward_expectancy,2022.2.4,Win32,59.96282305,Chrome,1280,720,,,,,0,639,,,,,,,,,,,,,,,,,125,Y,star,1,0,,,5,,,,,,,,,,,,,repeat,number,numRpt,d,1.7421,vtsPrac,4,0,4,0,1,,,,,,,,,,,,,,,,,,,,,,,
297484,2022-09-25_15h40.03.818,vts_reward_expectancy,2022.2.4,Win32,59.96282305,Chrome,1280,720,,,,,0,639,,,,,,,,,,,,,,,,,167,B,triangle,1,0,,,5,,,,,,,,,,,,,switch,letter,lettSwt,j,0.7424,vtsPrac,5,0,5,0,1,,,,,,,,,,,,,,,,,,,,,,,
297484,2022-09-25_15h40.03.818,vts_reward_expectancy,2022.2.4,Win32,59.96282305,Chrome,1280,720,,,,,0,639,,,,,,,,,,,,,,,,,132,D,circle,1,0,,,5,,,,,,,,,,,,,repeat,letter,lettRpt,j,0.7976,vtsPrac,6,0,6,0,1,,,,,,,,,,,,,,,,,,,,,,,
297484,2022-09-25_15h40.03.818,vts_reward_expectancy,2022.2.4,Win32,59.96282305,Chrome,1280,720,,,,,0,639,,,,,,,,,,,,,,,,,160,F,triangle,1,0,,,5,,,,,,,,,,,,,repeat,letter,lettRpt,j,1.2727,vtsPrac,7,0,7,0,1,,,,,,,,,,,,,,,,,,,,,,,
297484,2022-09-25_15h40.03.818,vts_reward_expectancy,2022.2.4,Win32,59.96282305,Chrome,1280,720,,,,,0,639,,,,,,,,,,,,,,,,,174,W,circle,1,0,,,5,,,,,,,,,,,,,repeat,letter,lettRpt,k,0.9376,vtsPrac,8,0,8,0,1,,,,,,,,,,,,,,,,,,,,,,,
297484,2022-09-25_15h40.03.818,vts_reward_expectancy,2022.2.4,Win32,59.96282305,Chrome,1280,720,,,,,0,639,,,,,,,,,,,,,,,,,160,D,triangle,1,0,,,5,,,,,,,,,,,,,switch,number,numSwt,f,0.6983,vtsPrac,9,0,9,0,1,,,,,,,,,,,,,,,,,,,,,,,
297484,2022-09-25_15h40.03.818,vts_reward_expectancy,2022.2.4,Win32,59.96282305,Chrome,1280,720,,,,,0,639,,,,,,,,,,,,,,,,,132,B,star,1,0,,,5,,,,,,,,,,,,,switch,letter,lettSwt,j,0.8375,vtsPrac,10,0,10,0,1,,,,,,,,,,,,,,,,,,,,,,,
297484,2022-09-25_15h40.03.818,vts_reward_expectancy,2022.2.4,Win32,59.96282305,Chrome,1280,720,,,,,0,639,,,,,,,,,,,,,,,,,146,F,hexagon,1,0,,,5,,,,,,,,,,,,,switch,number,numSwt,d,2.0378,vtsPrac,11,0,11,0,1,,,,,,,,,,,,,,,,,,,,,,,
297484,2022-09-25_15h40.03.818,vts_reward_expectancy,2022.2.4,Win32,59.96282305,Chrome,1280,720,,,,,0,639,,,,,,,,,,,,,,,,,174,U,triangle,1,0,,,5,,,,,,,,,,,,,repeat,number,numRpt,f,1.1189,vtsPrac,12,0,12,0,1,,,,,,,,,,,,,,,,,,,,,,,
297484,2022-09-25_15h40.03.818,vts_reward_expectancy,2022.2.4,Win32,59.96282305,Chrome,1280,720,,,,,0,639,,,,,,,,,,,,,,,,,167,S,hexagon,1,0,,,5,,,,,,,,,,,,,repeat,number,numRpt,f,1.6353,vtsPrac,13,0,13,0,1,,,,,,,,,,,,,,,,,,,,,,,
297484,2022-09-25_15h40.03.818,vts_reward_expectancy,2022.2.4,Win32,59.96282305,Chrome,1280,720,,,,,0,639,,,,,,,,,,,,,,,,,181,B,circle,1,0,,,5,,,,,,,,,,,,,switch,letter,lettSwt,j,1.1673,vtsPrac,14,0,14,0,1,,,,,,,,,,,,,,,,,,,,,,,
297484,2022-09-25_15h40.03.818,vts_reward_expectancy,2022.2.4,Win32,59.96282305,Chrome,1280,720,,,,,0,639,,,,,,,,,,,,,,,,,160,H,triangle,1,0,,,5,,,,,,,,,,,,,switch,number,numSwt,f,1.8396,vtsPrac,15,0,15,0,1,,,,,,,,,,,,,,,,,,,,,,,
297484,2022-09-25_15h40.03.818,vts_reward_expectancy,2022.2.4,Win32,59.96282305,Chrome,1280,720,,,,,,,,,,,,,,,,,,,,,,,,,,,,,,,,,,,,,,,,,,,,,,,,,,,,,,,,,,,,,,,,,,,,,,,,,,,,
297484,2022-09-25_15h40.03.818,vts_reward_expectancy,2022.2.4,Win32,59.96282305,Chrome,1280,720,,,,,,,,,,,,,,,,,,,,,,,,,,,,,,,,,,,,,,,,,,,,,,,,,,,,,,,,,,,,,,,,,,,,,,,,,,,,
297484,2022-09-25_15h40.03.818,vts_reward_expectancy,2022.2.4,Win32,59.96282305,Chrome,1280,720,,,,,0,639,,,,,,,,,,,,,,,,,174,Y,hexagon,1,0,,,,,,,,,,,,,,,,repeat,number,numRpt,f,0.899,noRew,,,,,,0,0,0,0,0,1,,,,,,,,,,,,,,,,,
297484,2022-09-25_15h40.03.818,vts_reward_expectancy,2022.2.4,Win32,59.96282305,Chrome,1280,720,,,,,0,639,,,,,,,,,,,,,,,,,160,F,triangle,1,0,,,,,,,,,,,,,,,,switch,letter,lettSwt,j,1.2303,noRew,,,,,,0,1,0,1,0,1,,,,,,,,,,,,,,,,,
297484,2022-09-25_15h40.03.818,vts_reward_expectancy,2022.2.4,Win32,59.96282305,Chrome,1280,720,,,,,0,639,,,,,,,,,,,,,,,,,125,W,hexagon,1,0,,,,,,,,,,,,,,,,switch,number,numSwt,d,0.7059,noRew,,,,,,0,2,0,2,0,1,,,,,,,,,,,,,,,,,
297484,2022-09-25_15h40.03.818,vts_reward_expectancy,2022.2.4,Win32,59.96282305,Chrome,1280,720,,,,,0,639,,,,,,,,,,,,,,,,,146,U,triangle,1,0,,,,,,,,,,,,,,,,repeat,number,numRpt,d,2.0616,noRew,,,,,,0,3,0,3,0,1,,,,,,,,,,,,,,,,,
297484,2022-09-25_15h40.03.818,vts_reward_expectancy,2022.2.4,Win32,59.96282305,Chrome,1280,720,,,,,0,639,,,,,,,,,,,,,,,,,174,Y,circle,1,0,,,,,,,,,,,,,,,,repeat,number,numRpt,f,2.2005,noRew,,,,,,0,4,0,4,0,1,,,,,,,,,,,,,,,,,
297484,2022-09-25_15h40.03.818,vts_reward_expectancy,2022.2.4,Win32,59.96282305,Chrome,1280,720,,,,,0,639,,,,,,,,,,,,,,,,,160,F,triangle,1,0,,,,,,,,,,,,,,,,switch,letter,lettSwt,j,1.3756,noRew,,,,,,0,5,0,5,0,1,,,,,,,,,,,,,,,,,
297484,2022-09-25_15h40.03.818,vts_reward_expectancy,2022.2.4,Win32,59.96282305,Chrome,1280,720,,,,,0,639,,,,,,,,,,,,,,,,,125,W,triangle,1,0,,,,,,,,,,,,,,,,repeat,letter,lettRpt,k,2.2481,noRew,,,,,,0,6,0,6,0,1,,,,,,,,,,,,,,,,,
297484,2022-09-25_15h40.03.818,vts_reward_expectancy,2022.2.4,Win32,59.96282305,Chrome,1280,720,,,,,0,639,,,,,,,,,,,,,,,,,146,U,circle,-1,0,,,,,,,,,,,,,,,,switch,no_choice,NA,,,noRew,,,,,,0,7,0,7,0,1,,,,,,,,,,,,,,,,,
297484,2022-09-25_15h40.03.818,vts_reward_expectancy,2022.2.4,Win32,59.96282305,Chrome,1280,720,,,,,0,639,,,,,,,,,,,,,,,,,146,D,star,1,0,,,,,,,,,,,,,,,,switch,letter,lettSwt,j,1.2419,noRew,,,,,,0,8,0,8,0,1,,,,,,,,,,,,,,,,,
297484,2022-09-25_15h40.03.818,vts_reward_expectancy,2022.2.4,Win32,59.96282305,Chrome,1280,720,,,,,0,639,,,,,,,,,,,,,,,,,160,B,circle,1,0,,,,,,,,,,,,,,,,repeat,letter,lettRpt,j,1.2854,noRew,,,,,,0,9,0,9,0,1,,,,,,,,,,,,,,,,,
297484,2022-09-25_15h40.03.818,vts_reward_expectancy,2022.2.4,Win32,59.96282305,Chrome,1280,720,,,,,0,639,,,,,,,,,,,,,,,,,167,F,hexagon,1,0,,,,,,,,,,,,,,,,switch,number,numSwt,f,1.0851,noRew,,,,,,0,10,0,10,0,1,,,,,,,,,,,,,,,,,
297484,2022-09-25_15h40.03.818,vts_reward_expectancy,2022.2.4,Win32,59.96282305,Chrome,1280,720,,,,,0,639,,,,,,,,,,,,,,,,,139,U,triangle,1,0,,,,,,,,,,,,,,,,repeat,number,numRpt,d,1.4301,noRew,,,,,,0,11,0,11,0,1,,,,,,,,,,,,,,,,,
297484,2022-09-25_15h40.03.818,vts_reward_expectancy,2022.2.4,Win32,59.96282305,Chrome,1280,720,,,,,0,639,,,,,,,,,,,,,,,,,125,W,star,1,0,,,,,,,,,,,,,,,,switch,letter,lettSwt,k,0.7999,noRew,,,,,,0,12,0,12,0,1,,,,,,,,,,,,,,,,,
297484,2022-09-25_15h40.03.818,vts_reward_expectancy,2022.2.4,Win32,59.96282305,Chrome,1280,720,,,,,0,639,,,,,,,,,,,,,,,,,167,D,circle,1,0,,,,,,,,,,,,,,,,repeat,letter,lettRpt,j,0.6226,noRew,,,,,,0,13,0,13,0,1,,,,,,,,,,,,,,,,,
297484,2022-09-25_15h40.03.818,vts_reward_expectancy,2022.2.4,Win32,59.96282305,Chrome,1280,720,,,,,0,639,,,,,,,,,,,,,,,,,160,U,star,1,0,,,,,,,,,,,,,,,,switch,number,numSwt,f,1.8062,noRew,,,,,,0,14,0,14,0,1,,,,,,,,,,,,,,,,,
297484,2022-09-25_15h40.03.818,vts_reward_expectancy,2022.2.4,Win32,59.96282305,Chrome,1280,720,,,,,0,639,,,,,,,,,,,,,,,,,132,B,hexagon,1,0,,,,,,,,,,,,,,,,repeat,number,numRpt,d,1.6664,noRew,,,,,,0,15,0,15,0,1,,,,,,,,,,,,,,,,,
297484,2022-09-25_15h40.03.818,vts_reward_expectancy,2022.2.4,Win32,59.96282305,Chrome,1280,720,,,,,0,639,,,,,,,,,,,,,,,,,146,F,hexagon,1,0,,,,,,,,,,,,,,,,repeat,number,numRpt,d,2.548,noRew,,,,,,0,16,0,16,0,1,,,,,,,,,,,,,,,,,
297484,2022-09-25_15h40.03.818,vts_reward_expectancy,2022.2.4,Win32,59.96282305,Chrome,1280,720,,,,,0,639,,,,,,,,,,,,,,,,,125,H,triangle,1,0,,,,,,,,,,,,,,,,switch,letter,lettSwt,j,1.0382,noRew,,,,,,0,17,0,17,0,1,,,,,,,,,,,,,,,,,
297484,2022-09-25_15h40.03.818,vts_reward_expectancy,2022.2.4,Win32,59.96282305,Chrome,1280,720,,,,,0,639,,,,,,,,,,,,,,,,,174,B,triangle,1,0,,,,,,,,,,,,,,,,repeat,letter,lettRpt,j,1.9163,noRew,,,,,,0,18,0,18,0,1,,,,,,,,,,,,,,,,,
297484,2022-09-25_15h40.03.818,vts_reward_expectancy,2022.2.4,Win32,59.96282305,Chrome,1280,720,,,,,0,639,,,,,,,,,,,,,,,,,160,D,star,1,0,,,,,,,,,,,,,,,,repeat,letter,lettRpt,j,1.5632,noRew,,,,,,0,19,0,19,0,1,,,,,,,,,,,,,,,,,
297484,2022-09-25_15h40.03.818,vts_reward_expectancy,2022.2.4,Win32,59.96282305,Chrome,1280,720,,,,,0,639,,,,,,,,,,,,,,,,,181,W,circle,1,0,,,,,,,,,,,,,,,,switch,number,numSwt,f,1.4251,noRew,,,,,,0,20,0,20,0,1,,,,,,,,,,,,,,,,,
297484,2022-09-25_15h40.03.818,vts_reward_expectancy,2022.2.4,Win32,59.96282305,Chrome,1280,720,,,,,0,639,,,,,,,,,,,,,,,,,125,S,triangle,1,0,,,,,,,,,,,,,,,,repeat,number,numRpt,d,2.3174,noRew,,,,,,0,21,0,21,0,1,,,,,,,,,,,,,,,,,
297484,2022-09-25_15h40.03.818,vts_reward_expectancy,2022.2.4,Win32,59.96282305,Chrome,1280,720,,,,,0,639,,,,,,,,,,,,,,,,,132,B,circle,1,0,,,,,,,,,,,,,,,,switch,letter,lettSwt,j,0.9605,noRew,,,,,,0,22,0,22,0,1,,,,,,,,,,,,,,,,,
297484,2022-09-25_15h40.03.818,vts_reward_expectancy,2022.2.4,Win32,59.96282305,Chrome,1280,720,,,,,0,639,,,,,,,,,,,,,,,,,146,U,star,1,0,,,,,,,,,,,,,,,,switch,number,numSwt,d,1.7974,noRew,,,,,,0,23,0,23,0,1,,,,,,,,,,,,,,,,,
297484,2022-09-25_15h40.03.818,vts_reward_expectancy,2022.2.4,Win32,59.96282305,Chrome,1280,720,,,,,0,639,,,,,,,,,,,,,,,,,181,D,circle,1,0,,,,,,,,,,,,,,,,switch,letter,lettSwt,j,1.6846,noRew,,,,,,0,24,0,24,0,1,,,,,,,,,,,,,,,,,
297484,2022-09-25_15h40.03.818,vts_reward_expectancy,2022.2.4,Win32,59.96282305,Chrome,1280,720,,,,,0,639,,,,,,,,,,,,,,,,,146,H,star,1,0,,,,,,,,,,,,,,,,switch,number,numSwt,d,2.054,noRew,,,,,,0,25,0,25,0,1,,,,,,,,,,,,,,,,,
297484,2022-09-25_15h40.03.818,vts_reward_expectancy,2022.2.4,Win32,59.96282305,Chrome,1280,720,,,,,0,639,,,,,,,,,,,,,,,,,132,Y,hexagon,1,0,,,,,,,,,,,,,,,,switch,letter,lettSwt,k,0.9158,noRew,,,,,,0,26,0,26,0,1,,,,,,,,,,,,,,,,,
297484,2022-09-25_15h40.03.818,vts_reward_expectancy,2022.2.4,Win32,59.96282305,Chrome,1280,720,,,,,0,639,,,,,,,,,,,,,,,,,167,W,circle,1,0,,,,,,,,,,,,,,,,repeat,letter,lettRpt,k,0.7075,noRew,,,,,,0,27,0,27,0,1,,,,,,,,,,,,,,,,,
297484,2022-09-25_15h40.03.818,vts_reward_expectancy,2022.2.4,Win32,59.96282305,Chrome,1280,720,,,,,0,639,,,,,,,,,,,,,,,,,146,D,hexagon,1,0,,,,,,,,,,,,,,,,switch,number,numSwt,d,0.7077,noRew,,,,,,0,28,0,28,0,1,,,,,,,,,,,,,,,,,
297484,2022-09-25_15h40.03.818,vts_reward_expectancy,2022.2.4,Win32,59.96282305,Chrome,1280,720,,,,,0,639,,,,,,,,,,,,,,,,,167,F,star,1,0,,,,,,,,,,,,,,,,switch,letter,lettSwt,j,1.436,noRew,,,,,,0,29,0,29,0,1,,,,,,,,,,,,,,,,,
297484,2022-09-25_15h40.03.818,vts_reward_expectancy,2022.2.4,Win32,59.96282305,Chrome,1280,720,,,,,0,639,,,,,,,,,,,,,,,,,160,B,triangle,1,0,,,,,,,,,,,,,,,,switch,number,numSwt,f,1.3495,noRew,,,,,,0,30,0,30,0,1,,,,,,,,,,,,,,,,,
297484,2022-09-25_15h40.03.818,vts_reward_expectancy,2022.2.4,Win32,59.96282305,Chrome,1280,720,,,,,0,639,,,,,,,,,,,,,,,,,125,H,circle,1,0,,,,,,,,,,,,,,,,repeat,number,numRpt,d,1.5143,noRew,,,,,,0,31,0,31,0,1,,,,,,,,,,,,,,,,,
297484,2022-09-25_15h40.03.818,vts_reward_expectancy,2022.2.4,Win32,59.96282305,Chrome,1280,720,,,,,0,639,,,,,,,,,,,,,,,,,146,B,hexagon,1,0,,,,,,,,,,,,,,,,switch,letter,lettSwt,j,0.9435,noRew,,,,,,0,32,0,32,0,1,,,,,,,,,,,,,,,,,
297484,2022-09-25_15h40.03.818,vts_reward_expectancy,2022.2.4,Win32,59.96282305,Chrome,1280,720,,,,,0,639,,,,,,,,,,,,,,,,,132,S,circle,1,0,,,,,,,,,,,,,,,,switch,number,numSwt,d,1.151,noRew,,,,,,0,33,0,33,0,1,,,,,,,,,,,,,,,,,
297484,2022-09-25_15h40.03.818,vts_reward_expectancy,2022.2.4,Win32,59.96282305,Chrome,1280,720,,,,,0,639,,,,,,,,,,,,,,,,,174,F,hexagon,1,0,,,,,,,,,,,,,,,,switch,letter,lettSwt,j,1.0076,noRew,,,,,,0,34,0,34,0,1,,,,,,,,,,,,,,,,,
297484,2022-09-25_15h40.03.818,vts_reward_expectancy,2022.2.4,Win32,59.96282305,Chrome,1280,720,,,,,0,639,,,,,,,,,,,,,,,,,167,D,triangle,1,0,,,,,,,,,,,,,,,,repeat,letter,lettRpt,j,0.6866,noRew,,,,,,0,35,0,35,0,1,,,,,,,,,,,,,,,,,
297484,2022-09-25_15h40.03.818,vts_reward_expectancy,2022.2.4,Win32,59.96282305,Chrome,1280,720,,,,,0,639,,,,,,,,,,,,,,,,,125,Y,hexagon,1,0,,,,,,,,,,,,,,,,switch,number,numSwt,d,0.9041,noRew,,,,,,0,36,0,36,0,1,,,,,,,,,,,,,,,,,
297484,2022-09-25_15h40.03.818,vts_reward_expectancy,2022.2.4,Win32,59.96282305,Chrome,1280,720,,,,,0,639,,,,,,,,,,,,,,,,,139,B,circle,1,0,,,,,,,,,,,,,,,,switch,letter,lettSwt,j,0.8471,noRew,,,,,,0,37,0,37,0,1,,,,,,,,,,,,,,,,,
297484,2022-09-25_15h40.03.818,vts_reward_expectancy,2022.2.4,Win32,59.96282305,Chrome,1280,720,,,,,0,639,,,,,,,,,,,,,,,,,181,U,circle,1,0,,,,,,,,,,,,,,,,switch,number,numSwt,f,1.4693,noRew,,,,,,0,38,0,38,0,1,,,,,,,,,,,,,,,,,
297484,2022-09-25_15h40.03.818,vts_reward_expectancy,2022.2.4,Win32,59.96282305,Chrome,1280,720,,,,,0,639,,,,,,,,,,,,,,,,,132,D,triangle,1,0,,,,,,,,,,,,,,,,switch,letter,lettSwt,j,0.758,noRew,,,,,,0,39,0,39,0,1,,,,,,,,,,,,,,,,,
297484,2022-09-25_15h40.03.818,vts_reward_expectancy,2022.2.4,Win32,59.96282305,Chrome,1280,720,,,,,0,639,,,,,,,,,,,,,,,,,146,U,star,1,0,,,,,,,,,,,,,,,,switch,number,numSwt,d,1.9659,noRew,,,,,,0,40,0,40,0,1,,,,,,,,,,,,,,,,,
297484,2022-09-25_15h40.03.818,vts_reward_expectancy,2022.2.4,Win32,59.96282305,Chrome,1280,720,,,,,0,639,,,,,,,,,,,,,,,,,160,W,triangle,1,0,,,,,,,,,,,,,,,,switch,letter,lettSwt,k,1.4847,noRew,,,,,,0,41,0,41,0,1,,,,,,,,,,,,,,,,,
297484,2022-09-25_15h40.03.818,vts_reward_expectancy,2022.2.4,Win32,59.96282305,Chrome,1280,720,,,,,0,639,,,,,,,,,,,,,,,,,181,F,circle,1,0,,,,,,,,,,,,,,,,repeat,letter,lettRpt,j,1.6648,noRew,,,,,,0,42,0,42,0,1,,,,,,,,,,,,,,,,,
297484,2022-09-25_15h40.03.818,vts_reward_expectancy,2022.2.4,Win32,59.96282305,Chrome,1280,720,,,,,0,639,,,,,,,,,,,,,,,,,174,H,triangle,1,0,,,,,,,,,,,,,,,,switch,number,numSwt,f,1.7796,noRew,,,,,,0,43,0,43,0,1,,,,,,,,,,,,,,,,,
297484,2022-09-25_15h40.03.818,vts_reward_expectancy,2022.2.4,Win32,59.96282305,Chrome,1280,720,,,,,0,639,,,,,,,,,,,,,,,,,181,D,triangle,1,0,,,,,,,,,,,,,,,,switch,letter,lettSwt,j,0.9763,noRew,,,,,,0,44,0,44,0,1,,,,,,,,,,,,,,,,,
297484,2022-09-25_15h40.03.818,vts_reward_expectancy,2022.2.4,Win32,59.96282305,Chrome,1280,720,,,,,0,639,,,,,,,,,,,,,,,,,132,S,star,1,0,,,,,,,,,,,,,,,,switch,number,numSwt,d,1.4073,noRew,,,,,,0,45,0,45,0,1,,,,,,,,,,,,,,,,,
297484,2022-09-25_15h40.03.818,vts_reward_expectancy,2022.2.4,Win32,59.96282305,Chrome,1280,720,,,,,0,639,,,,,,,,,,,,,,,,,146,F,star,1,0,,,,,,,,,,,,,,,,switch,letter,lettSwt,j,1.1654,noRew,,,,,,0,46,0,46,0,1,,,,,,,,,,,,,,,,,
297484,2022-09-25_15h40.03.818,vts_reward_expectancy,2022.2.4,Win32,59.96282305,Chrome,1280,720,,,,,0,639,,,,,,,,,,,,,,,,,125,Y,circle,1,0,,,,,,,,,,,,,,,,switch,number,numSwt,d,2.197,noRew,,,,,,0,47,0,47,0,1,,,,,,,,,,,,,,,,,
297484,2022-09-25_15h40.03.818,vts_reward_expectancy,2022.2.4,Win32,59.96282305,Chrome,1280,720,,,,,0,639,,,,,,,,,,,,,,,,,160,W,star,1,0,,,,,,,,,,,,,,,,switch,letter,lettSwt,k,0.7997,noRew,,,,,,0,48,0,48,0,1,,,,,,,,,,,,,,,,,
297484,2022-09-25_15h40.03.818,vts_reward_expectancy,2022.2.4,Win32,59.96282305,Chrome,1280,720,,,,,0,639,,,,,,,,,,,,,,,,,132,Y,circle,1,0,,,,,,,,,,,,,,,,switch,number,numSwt,d,0.9404,noRew,,,,,,0,49,0,49,0,1,,,,,,,,,,,,,,,,,
297484,2022-09-25_15h40.03.818,vts_reward_expectancy,2022.2.4,Win32,59.96282305,Chrome,1280,720,,,,,0,639,,,,,,,,,,,,,,,,,167,H,hexagon,1,0,,,,,,,,,,,,,,,,repeat,number,numRpt,f,1.4086,noRew,,,,,,0,50,0,50,0,1,,,,,,,,,,,,,,,,,
297484,2022-09-25_15h40.03.818,vts_reward_expectancy,2022.2.4,Win32,59.96282305,Chrome,1280,720,,,,,0,639,,,,,,,,,,,,,,,,,181,U,circle,1,0,,,,,,,,,,,,,,,,repeat,number,numRpt,f,1.4066,noRew,,,,,,0,51,0,51,0,1,,,,,,,,,,,,,,,,,
297484,2022-09-25_15h40.03.818,vts_reward_expectancy,2022.2.4,Win32,59.96282305,Chrome,1280,720,,,,,0,639,,,,,,,,,,,,,,,,,181,U,star,1,0,,,,,,,,,,,,,,,,repeat,number,numRpt,f,0.9724,noRew,,,,,,0,52,0,52,0,1,,,,,,,,,,,,,,,,,
297484,2022-09-25_15h40.03.818,vts_reward_expectancy,2022.2.4,Win32,59.96282305,Chrome,1280,720,,,,,0,639,,,,,,,,,,,,,,,,,132,W,circle,1,0,,,,,,,,,,,,,,,,switch,letter,lettSwt,k,1.137,noRew,,,,,,0,53,0,53,0,1,,,,,,,,,,,,,,,,,
297484,2022-09-25_15h40.03.818,vts_reward_expectancy,2022.2.4,Win32,59.96282305,Chrome,1280,720,,,,,0,639,,,,,,,,,,,,,,,,,160,Y,star,0,0,,,,,,,,,,,,,,,,switch,number,NA,d,2.7829,noRew,,,,,,0,54,0,54,0,1,,,,,,,,,,,,,,,,,
297484,2022-09-25_15h40.03.818,vts_reward_expectancy,2022.2.4,Win32,59.96282305,Chrome,1280,720,,,,,0,639,,,,,,,,,,,,,,,,,174,F,hexagon,-1,1,,,,,,,,,,,,,,,,switch,no_choice,NA,,,noRew,,,,,,0,55,0,55,0,1,,,,,,,,,,,,,,,,,
297484,2022-09-25_15h40.03.818,vts_reward_expectancy,2022.2.4,Win32,59.96282305,Chrome,1280,720,,,,,0,639,,,,,,,,,,,,,,,,,146,W,triangle,1,0,,,,,,,,,,,,,,,,switch,number,numSwt,d,2.5743,noRew,,,,,,0,56,0,56,0,1,,,,,,,,,,,,,,,,,
297484,2022-09-25_15h40.03.818,vts_reward_expectancy,2022.2.4,Win32,59.96282305,Chrome,1280,720,,,,,0,639,,,,,,,,,,,,,,,,,167,D,hexagon,1,0,,,,,,,,,,,,,,,,repeat,number,numRpt,f,1.9963,noRew,,,,,,0,57,0,57,0,1,,,,,,,,,,,,,,,,,
297484,2022-09-25_15h40.03.818,vts_reward_expectancy,2022.2.4,Win32,59.96282305,Chrome,1280,720,,,,,0,639,,,,,,,,,,,,,,,,,132,F,circle,1,0,,,,,,,,,,,,,,,,repeat,number,numRpt,d,0.6421,noRew,,,,,,0,58,0,58,0,1,,,,,,,,,,,,,,,,,
297484,2022-09-25_15h40.03.818,vts_reward_expectancy,2022.2.4,Win32,59.96282305,Chrome,1280,720,,,,,0,639,,,,,,,,,,,,,,,,,125,U,star,1,0,,,,,,,,,,,,,,,,repeat,number,numRpt,d,1.847,noRew,,,,,,0,59,0,59,0,1,,,,,,,,,,,,,,,,,
297484,2022-09-25_15h40.03.818,vts_reward_expectancy,2022.2.4,Win32,59.96282305,Chrome,1280,720,,,,,0,639,,,,,,,,,,,,,,,,,181,H,hexagon,1,0,,,,,,,,,,,,,,,,repeat,number,numRpt,f,1.0424,noRew,,,,,,0,60,0,60,0,1,,,,,,,,,,,,,,,,,
297484,2022-09-25_15h40.03.818,vts_reward_expectancy,2022.2.4,Win32,59.96282305,Chrome,1280,720,,,,,0,639,,,,,,,,,,,,,,,,,125,F,circle,1,0,,,,,,,,,,,,,,,,repeat,number,numRpt,d,1.2847,noRew,,,,,,0,61,0,61,0,1,,,,,,,,,,,,,,,,,
297484,2022-09-25_15h40.03.818,vts_reward_expectancy,2022.2.4,Win32,59.96282305,Chrome,1280,720,,,,,0,639,,,,,,,,,,,,,,,,,132,B,hexagon,1,0,,,,,,,,,,,,,,,,repeat,number,numRpt,d,0.8973,noRew,,,,,,0,62,0,62,0,1,,,,,,,,,,,,,,,,,
297484,2022-09-25_15h40.03.818,vts_reward_expectancy,2022.2.4,Win32,59.96282305,Chrome,1280,720,,,,,0,639,,,,,,,,,,,,,,,,,174,S,star,1,0,,,,,,,,,,,,,,,,repeat,number,numRpt,f,0.5207,noRew,,,,,,0,63,0,63,0,1,,,,,,,,,,,,,,,,,
297484,2022-09-25_15h40.03.818,vts_reward_expectancy,2022.2.4,Win32,59.96282305,Chrome,1280,720,,,,,,,,,,,,,,,,,,,,,,,,,,,,,,,,,,,,,,,,,,,,,,,,,,,,,,,,,,,,,,,,,,,,,,,,,,,,
297484,2022-09-25_15h40.03.818,vts_reward_expectancy,2022.2.4,Win32,59.96282305,Chrome,1280,720,,,,,1,640,,,,,,,,,,,,,,,,,125,U,circle,1,0,,,,,,,,,,,,,,,,repeat,number,numRpt,d,0.8814,Hi,,,,,,0,,,,,,space,12.8916,low,0,0,0,0,1,,,,,,,,,
297484,2022-09-25_15h40.03.818,vts_reward_expectancy,2022.2.4,Win32,59.96282305,Chrome,1280,720,,,,,0,640,,,,,,,,,,,,,,,,,181,F,triangle,0,0,,,,,,,,,,,,,,,,repeat,number,NA,d,1.0483,Hi,,,,,,0,,,,,,,,low,1,0,1,0,1,,,,,,,,,
297484,2022-09-25_15h40.03.818,vts_reward_expectancy,2022.2.4,Win32,59.96282305,Chrome,1280,720,,,,,0,640,,,,,,,,,,,,,,,,,174,D,circle,1,1,,,,,,,,,,,,,,,,repeat,number,numRpt,f,1.646,Hi,,,,,,0,,,,,,,,low,2,0,2,0,1,,,,,,,,,
297484,2022-09-25_15h40.03.818,vts_reward_expectancy,2022.2.4,Win32,59.96282305,Chrome,1280,720,,,,,1,641,,,,,,,,,,,,,,,,,167,H,triangle,1,0,,,,,,,,,,,,,,,,repeat,number,numRpt,f,0.8968,Lo,,,,,,0,,,,,,,,low,3,0,3,0,1,,,,,,,,,
297484,2022-09-25_15h40.03.818,vts_reward_expectancy,2022.2.4,Win32,59.96282305,Chrome,1280,720,,,,,10,651,,,,,,,,,,,,,,,,,139,B,circle,1,0,,,,,,,,,,,,,,,,switch,letter,lettSwt,j,0.7669,Hi,,,,,,0,,,,,,,,low,4,0,4,0,1,,,,,,,,,
297484,2022-09-25_15h40.03.818,vts_reward_expectancy,2022.2.4,Win32,59.96282305,Chrome,1280,720,,,,,1,652,,,,,,,,,,,,,,,,,146,Y,triangle,1,0,,,,,,,,,,,,,,,,switch,number,numSwt,d,0.8435,Lo,,,,,,0,,,,,,,,low,5,0,5,0,1,,,,,,,,,
297484,2022-09-25_15h40.03.818,vts_reward_expectancy,2022.2.4,Win32,59.96282305,Chrome,1280,720,,,,,1,653,,,,,,,,,,,,,,,,,132,S,circle,1,0,,,,,,,,,,,,,,,,repeat,number,numRpt,d,0.7308,Hi,,,,,,0,,,,,,,,low,6,0,6,0,1,,,,,,,,,
297484,2022-09-25_15h40.03.818,vts_reward_expectancy,2022.2.4,Win32,59.96282305,Chrome,1280,720,,,,,1,654,,,,,,,,,,,,,,,,,160,W,triangle,1,0,,,,,,,,,,,,,,,,switch,letter,lettSwt,k,1.2148,Lo,,,,,,0,,,,,,,,low,7,0,7,0,1,,,,,,,,,
297484,2022-09-25_15h40.03.818,vts_reward_expectancy,2022.2.4,Win32,59.96282305,Chrome,1280,720,,,,,1,655,,,,,,,,,,,,,,,,,125,U,triangle,1,0,,,,,,,,,,,,,,,,switch,number,numSwt,d,2.4099,Lo,,,,,,0,,,,,,,,low,8,0,8,0,1,,,,,,,,,
297484,2022-09-25_15h40.03.818,vts_reward_expectancy,2022.2.4,Win32,59.96282305,Chrome,1280,720,,,,,0,655,,,,,,,,,,,,,,,,,181,F,circle,1,0,,,,,,,,,,,,,,,,repeat,number,numRpt,f,2.4519,Hi,,,,,,0,,,,,,,,low,9,0,9,0,1,,,,,,,,,
297484,2022-09-25_15h40.03.818,vts_reward_expectancy,2022.2.4,Win32,59.96282305,Chrome,1280,720,,,,,1,656,,,,,,,,,,,,,,,,,174,D,triangle,1,0,,,,,,,,,,,,,,,,repeat,number,numRpt,f,1.0203,Lo,,,,,,0,,,,,,,,low,10,0,10,0,1,,,,,,,,,
297484,2022-09-25_15h40.03.818,vts_reward_expectancy,2022.2.4,Win32,59.96282305,Chrome,1280,720,,,,,10,666,,,,,,,,,,,,,,,,,167,H,circle,1,0,,,,,,,,,,,,,,,,repeat,number,numRpt,f,0.9973,Hi,,,,,,0,,,,,,,,low,11,0,11,0,1,,,,,,,,,
297484,2022-09-25_15h40.03.818,vts_reward_expectancy,2022.2.4,Win32,59.96282305,Chrome,1280,720,,,,,10,676,,,,,,,,,,,,,,,,,139,B,circle,1,0,,,,,,,,,,,,,,,,switch,letter,lettSwt,j,0.5895,Hi,,,,,,0,,,,,,,,low,12,0,12,0,1,,,,,,,,,
297484,2022-09-25_15h40.03.818,vts_reward_expectancy,2022.2.4,Win32,59.96282305,Chrome,1280,720,,,,,1,677,,,,,,,,,,,,,,,,,146,Y,triangle,1,0,,,,,,,,,,,,,,,,repeat,letter,lettRpt,k,1.092,Lo,,,,,,0,,,,,,,,low,13,0,13,0,1,,,,,,,,,
297484,2022-09-25_15h40.03.818,vts_reward_expectancy,2022.2.4,Win32,59.96282305,Chrome,1280,720,,,,,1,678,,,,,,,,,,,,,,,,,132,S,triangle,1,0,,,,,,,,,,,,,,,,switch,number,numSwt,d,0.9368,Lo,,,,,,0,,,,,,,,low,14,0,14,0,1,,,,,,,,,
297484,2022-09-25_15h40.03.818,vts_reward_expectancy,2022.2.4,Win32,59.96282305,Chrome,1280,720,,,,,0,678,,,,,,,,,,,,,,,,,160,W,circle,0,0,,,,,,,,,,,,,,,,switch,letter,NA,j,1.3257,Lo,,,,,,0,,,,,,,,low,15,0,15,0,1,,,,,,,,,
297484,2022-09-25_15h40.03.818,vts_reward_expectancy,2022.2.4,Win32,59.96282305,Chrome,1280,720,,,,,0,678,,,,,,,,,,,,,,,,,167,B,circle,1,1,,,,,,,,,,,,,,,,repeat,letter,lettRpt,j,2.0304,Hi,,,,,,0,,,,,,,,low,16,0,16,0,1,,,,,,,,,
297484,2022-09-25_15h40.03.818,vts_reward_expectancy,2022.2.4,Win32,59.96282305,Chrome,1280,720,,,,,10,688,,,,,,,,,,,,,,,,,160,W,triangle,1,0,,,,,,,,,,,,,,,,repeat,letter,lettRpt,k,0.814,Lo,,,,,,0,,,,,,,,low,17,0,17,0,1,,,,,,,,,
297484,2022-09-25_15h40.03.818,vts_reward_expectancy,2022.2.4,Win32,59.96282305,Chrome,1280,720,,,,,0,688,,,,,,,,,,,,,,,,,125,Y,circle,1,0,,,,,,,,,,,,,,,,repeat,letter,lettRpt,k,1.0138,Hi,,,,,,0,,,,,,,,low,18,0,18,0,1,,,,,,,,,
297484,2022-09-25_15h40.03.818,vts_reward_expectancy,2022.2.4,Win32,59.96282305,Chrome,1280,720,,,,,10,698,,,,,,,,,,,,,,,,,146,U,triangle,1,0,,,,,,,,,,,,,,,,repeat,letter,lettRpt,k,2.5816,Lo,,,,,,0,,,,,,,,low,19,0,19,0,1,,,,,,,,,
297484,2022-09-25_15h40.03.818,vts_reward_expectancy,2022.2.4,Win32,59.96282305,Chrome,1280,720,,,,,0,698,,,,,,,,,,,,,,,,,139,D,circle,1,0,,,,,,,,,,,,,,,,repeat,letter,lettRpt,j,1.118,Hi,,,,,,0,,,,,,,,low,20,0,20,0,1,,,,,,,,,
297484,2022-09-25_15h40.03.818,vts_reward_expectancy,2022.2.4,Win32,59.96282305,Chrome,1280,720,,,,,1,699,,,,,,,,,,,,,,,,,174,H,triangle,1,0,,,,,,,,,,,,,,,,switch,number,numSwt,f,1.6515,Lo,,,,,,0,,,,,,,,low,21,0,21,0,1,,,,,,,,,
297484,2022-09-25_15h40.03.818,vts_reward_expectancy,2022.2.4,Win32,59.96282305,Chrome,1280,720,,,,,10,709,,,,,,,,,,,,,,,,,181,S,triangle,1,0,,,,,,,,,,,,,,,,repeat,number,numRpt,f,1.5663,Lo,,,,,,0,,,,,,,,low,22,0,22,0,1,,,,,,,,,
297484,2022-09-25_15h40.03.818,vts_reward_expectancy,2022.2.4,Win32,59.96282305,Chrome,1280,720,,,,,0,709,,,,,,,,,,,,,,,,,132,F,circle,1,0,,,,,,,,,,,,,,,,switch,letter,lettSwt,j,1.2847,Hi,,,,,,0,,,,,,,,low,23,0,23,0,1,,,,,,,,,
297484,2022-09-25_15h40.03.818,vts_reward_expectancy,2022.2.4,Win32,59.96282305,Chrome,1280,720,,,,,1,710,,,,,,,,,,,,,,,,,146,H,triangle,1,0,,,,,,,,,,,,,,,,switch,number,numSwt,d,2.2254,Lo,,,,,,0,,,,,,,,low,24,0,24,0,1,,,,,,,,,
297484,2022-09-25_15h40.03.818,vts_reward_expectancy,2022.2.4,Win32,59.96282305,Chrome,1280,720,,,,,0,710,,,,,,,,,,,,,,,,,132,U,circle,1,0,,,,,,,,,,,,,,,,repeat,number,numRpt,d,1.8903,Hi,,,,,,0,,,,,,,,low,25,0,25,0,1,,,,,,,,,
297484,2022-09-25_15h40.03.818,vts_reward_expectancy,2022.2.4,Win32,59.96282305,Chrome,1280,720,,,,,1,711,,,,,,,,,,,,,,,,,160,F,triangle,1,0,,,,,,,,,,,,,,,,repeat,number,numRpt,f,1.1959,Lo,,,,,,0,,,,,,,,low,26,0,26,0,1,,,,,,,,,
297484,2022-09-25_15h40.03.818,vts_reward_expectancy,2022.2.4,Win32,59.96282305,Chrome,1280,720,,,,,1,712,,,,,,,,,,,,,,,,,125,S,circle,1,0,,,,,,,,,,,,,,,,repeat,number,numRpt,d,0.68,Hi,,,,,,0,,,,,,,,low,27,0,27,0,1,,,,,,,,,
297484,2022-09-25_15h40.03.818,vts_reward_expectancy,2022.2.4,Win32,59.96282305,Chrome,1280,720,,,,,1,713,,,,,,,,,,,,,,,,,139,B,triangle,1,0,,,,,,,,,,,,,,,,repeat,number,numRpt,d,1.4014,Lo,,,,,,0,,,,,,,,low,28,0,28,0,1,,,,,,,,,
297484,2022-09-25_15h40.03.818,vts_reward_expectancy,2022.2.4,Win32,59.96282305,Chrome,1280,720,,,,,0,713,,,,,,,,,,,,,,,,,174,Y,circle,1,0,,,,,,,,,,,,,,,,switch,letter,lettSwt,k,1.225,Hi,,,,,,0,,,,,,,,low,29,0,29,0,1,,,,,,,,,
297484,2022-09-25_15h40.03.818,vts_reward_expectancy,2022.2.4,Win32,59.96282305,Chrome,1280,720,,,,,1,714,,,,,,,,,,,,,,,,,181,D,circle,1,0,,,,,,,,,,,,,,,,repeat,letter,lettRpt,j,0.7516,Hi,,,,,,0,,,,,,,,low,30,0,30,0,1,,,,,,,,,
297484,2022-09-25_15h40.03.818,vts_reward_expectancy,2022.2.4,Win32,59.96282305,Chrome,1280,720,,,,,0,714,,,,,,,,,,,,,,,,,167,W,triangle,0,0,,,,,,,,,,,,,,,,repeat,letter,NA,j,1.1478,Hi,,,,,,0,,,,,,,,low,31,0,31,0,1,,,,,,,,,
297484,2022-09-25_15h40.03.818,vts_reward_expectancy,2022.2.4,Win32,59.96282305,Chrome,1280,720,,,,,10,724,,,,,,,,,,,,,,,,,160,D,triangle,1,1,,,,,,,,,,,,,,,,switch,number,numSwt,f,1.1804,Lo,,,,,,1,,,,,,space,5.5076,low,0,0,0,0,1,,,,,,,,,
297484,2022-09-25_15h40.03.818,vts_reward_expectancy,2022.2.4,Win32,59.96282305,Chrome,1280,720,,,,,1,725,,,,,,,,,,,,,,,,,167,W,circle,1,0,,,,,,,,,,,,,,,,switch,letter,lettSwt,k,0.691,Hi,,,,,,1,,,,,,,,low,1,0,1,0,1,,,,,,,,,
297484,2022-09-25_15h40.03.818,vts_reward_expectancy,2022.2.4,Win32,59.96282305,Chrome,1280,720,,,,,10,735,,,,,,,,,,,,,,,,,132,F,triangle,1,0,,,,,,,,,,,,,,,,repeat,letter,lettRpt,j,1.6913,Lo,,,,,,1,,,,,,,,low,2,0,2,0,1,,,,,,,,,
297484,2022-09-25_15h40.03.818,vts_reward_expectancy,2022.2.4,Win32,59.96282305,Chrome,1280,720,,,,,10,745,,,,,,,,,,,,,,,,,139,B,circle,1,0,,,,,,,,,,,,,,,,switch,number,numSwt,d,0.6848,Hi,,,,,,1,,,,,,,,low,3,0,3,0,1,,,,,,,,,
297484,2022-09-25_15h40.03.818,vts_reward_expectancy,2022.2.4,Win32,59.96282305,Chrome,1280,720,,,,,0,745,,,,,,,,,,,,,,,,,146,U,circle,1,0,,,,,,,,,,,,,,,,repeat,number,numRpt,d,1.997,Hi,,,,,,1,,,,,,,,low,4,0,4,0,1,,,,,,,,,
297484,2022-09-25_15h40.03.818,vts_reward_expectancy,2022.2.4,Win32,59.96282305,Chrome,1280,720,,,,,0,745,,,,,,,,,,,,,,,,,174,H,triangle,0,0,,,,,,,,,,,,,,,,repeat,number,NA,d,1.5181,Hi,,,,,,1,,,,,,,,low,5,0,5,0,1,,,,,,,,,
297484,2022-09-25_15h40.03.818,vts_reward_expectancy,2022.2.4,Win32,59.96282305,Chrome,1280,720,,,,,1,746,,,,,,,,,,,,,,,,,125,Y,triangle,1,1,,,,,,,,,,,,,,,,repeat,number,numRpt,d,0.5696,Lo,,,,,,1,,,,,,,,low,6,0,6,0,1,,,,,,,,,
297484,2022-09-25_15h40.03.818,vts_reward_expectancy,2022.2.4,Win32,59.96282305,Chrome,1280,720,,,,,0,746,,,,,,,,,,,,,,,,,181,S,circle,1,0,,,,,,,,,,,,,,,,repeat,number,numRpt,f,1.3812,Hi,,,,,,1,,,,,,,,low,7,0,7,0,1,,,,,,,,,
297484,2022-09-25_15h40.03.818,vts_reward_expectancy,2022.2.4,Win32,59.96282305,Chrome,1280,720,,,,,10,756,,,,,,,,,,,,,,,,,160,D,triangle,1,0,,,,,,,,,,,,,,,,switch,letter,lettSwt,j,0.7763,Lo,,,,,,1,,,,,,,,low,8,0,8,0,1,,,,,,,,,
297484,2022-09-25_15h40.03.818,vts_reward_expectancy,2022.2.4,Win32,59.96282305,Chrome,1280,720,,,,,0,756,,,,,,,,,,,,,,,,,167,W,circle,1,0,,,,,,,,,,,,,,,,repeat,letter,lettRpt,k,1.3429,Hi,,,,,,1,,,,,,,,low,9,0,9,0,1,,,,,,,,,
297484,2022-09-25_15h40.03.818,vts_reward_expectancy,2022.2.4,Win32,59.96282305,Chrome,1280,720,,,,,10,766,,,,,,,,,,,,,,,,,132,F,triangle,1,0,,,,,,,,,,,,,,,,repeat,letter,lettRpt,j,1.1467,Lo,,,,,,1,,,,,,,,low,10,0,10,0,1,,,,,,,,,
297484,2022-09-25_15h40.03.818,vts_reward_expectancy,2022.2.4,Win32,59.96282305,Chrome,1280,720,,,,,1,767,,,,,,,,,,,,,,,,,139,B,circle,1,0,,,,,,,,,,,,,,,,repeat,letter,lettRpt,j,0.7651,Hi,,,,,,1,,,,,,,,low,11,0,11,0,1,,,,,,,,,
297484,2022-09-25_15h40.03.818,vts_reward_expectancy,2022.2.4,Win32,59.96282305,Chrome,1280,720,,,,,0,767,,,,,,,,,,,,,,,,,146,U,circle,0,0,,,,,,,,,,,,,,,,switch,number,NA,f,0.8715,Hi,,,,,,1,,,,,,,,low,12,0,12,0,1,,,,,,,,,
297484,2022-09-25_15h40.03.818,vts_reward_expectancy,2022.2.4,Win32,59.96282305,Chrome,1280,720,,,,,1,768,,,,,,,,,,,,,,,,,174,H,triangle,1,1,,,,,,,,,,,,,,,,repeat,number,numRpt,f,0.8879,Lo,,,,,,1,,,,,,,,low,13,0,13,0,1,,,,,,,,,
297484,2022-09-25_15h40.03.818,vts_reward_expectancy,2022.2.4,Win32,59.96282305,Chrome,1280,720,,,,,1,769,,,,,,,,,,,,,,,,,125,Y,circle,1,0,,,,,,,,,,,,,,,,repeat,number,numRpt,d,0.9578,Hi,,,,,,1,,,,,,,,low,14,0,14,0,1,,,,,,,,,
297484,2022-09-25_15h40.03.818,vts_reward_expectancy,2022.2.4,Win32,59.96282305,Chrome,1280,720,,,,,1,770,,,,,,,,,,,,,,,,,181,S,triangle,1,0,,,,,,,,,,,,,,,,repeat,number,numRpt,f,1.5718,Lo,,,,,,1,,,,,,,,low,15,0,15,0,1,,,,,,,,,
297484,2022-09-25_15h40.03.818,vts_reward_expectancy,2022.2.4,Win32,59.96282305,Chrome,1280,720,,,,,1,771,,,,,,,,,,,,,,,,,146,B,triangle,1,0,,,,,,,,,,,,,,,,switch,letter,lettSwt,j,1.1095,Lo,,,,,,1,,,,,,,,low,16,0,16,0,1,,,,,,,,,
297484,2022-09-25_15h40.03.818,vts_reward_expectancy,2022.2.4,Win32,59.96282305,Chrome,1280,720,,,,,10,781,,,,,,,,,,,,,,,,,139,Y,circle,1,0,,,,,,,,,,,,,,,,switch,number,numSwt,d,1.0997,Hi,,,,,,1,,,,,,,,low,17,0,17,0,1,,,,,,,,,
297484,2022-09-25_15h40.03.818,vts_reward_expectancy,2022.2.4,Win32,59.96282305,Chrome,1280,720,,,,,0,781,,,,,,,,,,,,,,,,,174,H,circle,1,0,,,,,,,,,,,,,,,,repeat,number,numRpt,f,2.7236,Hi,,,,,,1,,,,,,,,low,18,0,18,0,1,,,,,,,,,
297484,2022-09-25_15h40.03.818,vts_reward_expectancy,2022.2.4,Win32,59.96282305,Chrome,1280,720,,,,,1,782,,,,,,,,,,,,,,,,,160,W,triangle,1,0,,,,,,,,,,,,,,,,switch,letter,lettSwt,k,1.5484,Lo,,,,,,1,,,,,,,,low,19,0,19,0,1,,,,,,,,,
297484,2022-09-25_15h40.03.818,vts_reward_expectancy,2022.2.4,Win32,59.96282305,Chrome,1280,720,,,,,0,782,,,,,,,,,,,,,,,,,132,F,triangle,0,0,,,,,,,,,,,,,,,,repeat,letter,NA,k,1.0065,Lo,,,,,,1,,,,,,,,low,20,0,20,0,1,,,,,,,,,
297484,2022-09-25_15h40.03.818,vts_reward_expectancy,2022.2.4,Win32,59.96282305,Chrome,1280,720,,,,,0,782,,,,,,,,,,,,,,,,,181,U,circle,1,1,,,,,,,,,,,,,,,,switch,number,numSwt,f,2.19,Hi,,,,,,1,,,,,,,,low,21,0,21,0,1,,,,,,,,,
297484,2022-09-25_15h40.03.818,vts_reward_expectancy,2022.2.4,Win32,59.96282305,Chrome,1280,720,,,,,1,783,,,,,,,,,,,,,,,,,125,S,triangle,1,0,,,,,,,,,,,,,,,,repeat,number,numRpt,d,0.7512,Lo,,,,,,1,,,,,,,,low,22,0,22,0,1,,,,,,,,,
297484,2022-09-25_15h40.03.818,vts_reward_expectancy,2022.2.4,Win32,59.96282305,Chrome,1280,720,,,,,0,783,,,,,,,,,,,,,,,,,167,D,circle,1,0,,,,,,,,,,,,,,,,repeat,number,numRpt,f,2.4851,Hi,,,,,,1,,,,,,,,low,23,0,23,0,1,,,,,,,,,
297484,2022-09-25_15h40.03.818,vts_reward_expectancy,2022.2.4,Win32,59.96282305,Chrome,1280,720,,,,,0,783,,,,,,,,,,,,,,,,,132,S,circle,1,0,,,,,,,,,,,,,,,,repeat,number,numRpt,d,1.3528,Hi,,,,,,1,,,,,,,,low,24,0,24,0,1,,,,,,,,,
297484,2022-09-25_15h40.03.818,vts_reward_expectancy,2022.2.4,Win32,59.96282305,Chrome,1280,720,,,,,1,784,,,,,,,,,,,,,,,,,125,B,triangle,1,0,,,,,,,,,,,,,,,,repeat,number,numRpt,d,0.6991,Lo,,,,,,1,,,,,,,,low,25,0,25,0,1,,,,,,,,,
297484,2022-09-25_15h40.03.818,vts_reward_expectancy,2022.2.4,Win32,59.96282305,Chrome,1280,720,,,,,0,784,,,,,,,,,,,,,,,,,146,H,circle,1,0,,,,,,,,,,,,,,,,switch,letter,lettSwt,j,1.2637,Hi,,,,,,1,,,,,,,,low,26,0,26,0,1,,,,,,,,,
297484,2022-09-25_15h40.03.818,vts_reward_expectancy,2022.2.4,Win32,59.96282305,Chrome,1280,720,,,,,1,785,,,,,,,,,,,,,,,,,167,U,triangle,1,0,,,,,,,,,,,,,,,,switch,number,numSwt,f,1.2568,Lo,,,,,,1,,,,,,,,low,27,0,27,0,1,,,,,,,,,
297484,2022-09-25_15h40.03.818,vts_reward_expectancy,2022.2.4,Win32,59.96282305,Chrome,1280,720,,,,,1,786,,,,,,,,,,,,,,,,,174,W,circle,1,0,,,,,,,,,,,,,,,,repeat,number,numRpt,f,0.6898,Hi,,,,,,1,,,,,,,,low,28,0,28,0,1,,,,,,,,,
297484,2022-09-25_15h40.03.818,vts_reward_expectancy,2022.2.4,Win32,59.96282305,Chrome,1280,720,,,,,1,787,,,,,,,,,,,,,,,,,139,F,triangle,1,0,,,,,,,,,,,,,,,,repeat,number,numRpt,d,0.8035,Lo,,,,,,1,,,,,,,,low,29,0,29,0,1,,,,,,,,,
297484,2022-09-25_15h40.03.818,vts_reward_expectancy,2022.2.4,Win32,59.96282305,Chrome,1280,720,,,,,1,788,,,,,,,,,,,,,,,,,181,Y,circle,1,0,,,,,,,,,,,,,,,,repeat,number,numRpt,f,0.6554,Hi,,,,,,1,,,,,,,,low,30,0,30,0,1,,,,,,,,,
297484,2022-09-25_15h40.03.818,vts_reward_expectancy,2022.2.4,Win32,59.96282305,Chrome,1280,720,,,,,1,789,,,,,,,,,,,,,,,,,160,D,triangle,1,0,,,,,,,,,,,,,,,,repeat,number,numRpt,f,0.7139,Lo,,,,,,1,,,,,,,,low,31,0,31,0,1,,,,,,,,,
297484,2022-09-25_15h40.03.818,vts_reward_expectancy,2022.2.4,Win32,59.96282305,Chrome,1280,720,,,,,1,790,,,,,,,,,,,,,,,,,160,U,hexagon,1,0,,,,,,,,,,,,,,,,repeat,number,numRpt,f,1.1103,Lo,,,,,,2,,,,,,space,1.2129,high,0,0,0,0,1,,,,,,,,,
297484,2022-09-25_15h40.03.818,vts_reward_expectancy,2022.2.4,Win32,59.96282305,Chrome,1280,720,,,,,10,800,,,,,,,,,,,,,,,,,139,B,star,1,0,,,,,,,,,,,,,,,,switch,letter,lettSwt,j,0.5476,Hi,,,,,,2,,,,,,,,high,1,0,1,0,1,,,,,,,,,
297484,2022-09-25_15h40.03.818,vts_reward_expectancy,2022.2.4,Win32,59.96282305,Chrome,1280,720,,,,,0,800,,,,,,,,,,,,,,,,,174,Y,hexagon,0,0,,,,,,,,,,,,,,,,repeat,letter,NA,j,0.692,Hi,,,,,,2,,,,,,,,high,2,0,2,0,1,,,,,,,,,
297484,2022-09-25_15h40.03.818,vts_reward_expectancy,2022.2.4,Win32,59.96282305,Chrome,1280,720,,,,,1,801,,,,,,,,,,,,,,,,,167,D,star,1,1,,,,,,,,,,,,,,,,repeat,letter,lettRpt,j,0.8806,Hi,,,,,,2,,,,,,,,high,3,0,3,0,1,,,,,,,,,
297484,2022-09-25_15h40.03.818,vts_reward_expectancy,2022.2.4,Win32,59.96282305,Chrome,1280,720,,,,,0,801,,,,,,,,,,,,,,,,,125,H,star,1,0,,,,,,,,,,,,,,,,switch,number,numSwt,d,1.4771,Hi,,,,,,2,,,,,,,,high,4,0,4,0,1,,,,,,,,,
297484,2022-09-25_15h40.03.818,vts_reward_expectancy,2022.2.4,Win32,59.96282305,Chrome,1280,720,,,,,1,802,,,,,,,,,,,,,,,,,132,S,hexagon,1,0,,,,,,,,,,,,,,,,repeat,number,numRpt,d,0.8008,Lo,,,,,,2,,,,,,,,high,5,0,5,0,1,,,,,,,,,
297484,2022-09-25_15h40.03.818,vts_reward_expectancy,2022.2.4,Win32,59.96282305,Chrome,1280,720,,,,,1,803,,,,,,,,,,,,,,,,,181,F,hexagon,1,0,,,,,,,,,,,,,,,,switch,letter,lettSwt,j,1.052,Lo,,,,,,2,,,,,,,,high,6,0,6,0,1,,,,,,,,,
297484,2022-09-25_15h40.03.818,vts_reward_expectancy,2022.2.4,Win32,59.96282305,Chrome,1280,720,,,,,0,803,,,,,,,,,,,,,,,,,146,W,star,0,0,,,,,,,,,,,,,,,,repeat,letter,NA,j,1.1363,Lo,,,,,,2,,,,,,,,high,7,0,7,0,1,,,,,,,,,
297484,2022-09-25_15h40.03.818,vts_reward_expectancy,2022.2.4,Win32,59.96282305,Chrome,1280,720,,,,,0,803,,,,,,,,,,,,,,,,,160,U,star,1,1,,,,,,,,,,,,,,,,switch,number,numSwt,f,1.4414,Hi,,,,,,2,,,,,,,,high,8,0,8,0,1,,,,,,,,,
297484,2022-09-25_15h40.03.818,vts_reward_expectancy,2022.2.4,Win32,59.96282305,Chrome,1280,720,,,,,1,804,,,,,,,,,,,,,,,,,139,B,hexagon,1,0,,,,,,,,,,,,,,,,switch,letter,lettSwt,j,0.7176,Lo,,,,,,2,,,,,,,,high,9,0,9,0,1,,,,,,,,,
297484,2022-09-25_15h40.03.818,vts_reward_expectancy,2022.2.4,Win32,59.96282305,Chrome,1280,720,,,,,1,805,,,,,,,,,,,,,,,,,174,Y,hexagon,1,0,,,,,,,,,,,,,,,,repeat,letter,lettRpt,k,1.2156,Lo,,,,,,2,,,,,,,,high,10,0,10,0,1,,,,,,,,,
297484,2022-09-25_15h40.03.818,vts_reward_expectancy,2022.2.4,Win32,59.96282305,Chrome,1280,720,,,,,10,815,,,,,,,,,,,,,,,,,167,D,star,1,0,,,,,,,,,,,,,,,,repeat,letter,lettRpt,j,0.7221,Hi,,,,,,2,,,,,,,,high,11,0,11,0,1,,,,,,,,,
297484,2022-09-25_15h40.03.818,vts_reward_expectancy,2022.2.4,Win32,59.96282305,Chrome,1280,720,,,,,0,815,,,,,,,,,,,,,,,,,125,H,hexagon,0,0,,,,,,,,,,,,,,,,repeat,letter,NA,k,1.0513,Hi,,,,,,2,,,,,,,,high,12,0,12,0,1,,,,,,,,,
297484,2022-09-25_15h40.03.818,vts_reward_expectancy,2022.2.4,Win32,59.96282305,Chrome,1280,720,,,,,0,815,,,,,,,,,,,,,,,,,132,S,star,1,1,,,,,,,,,,,,,,,,switch,number,numSwt,d,1.2537,Hi,,,,,,2,,,,,,,,high,13,0,13,0,1,,,,,,,,,
297484,2022-09-25_15h40.03.818,vts_reward_expectancy,2022.2.4,Win32,59.96282305,Chrome,1280,720,,,,,1,816,,,,,,,,,,,,,,,,,181,F,hexagon,1,0,,,,,,,,,,,,,,,,switch,letter,lettSwt,j,1.3483,Lo,,,,,,2,,,,,,,,high,14,0,14,0,1,,,,,,,,,
297484,2022-09-25_15h40.03.818,vts_reward_expectancy,2022.2.4,Win32,59.96282305,Chrome,1280,720,,,,,1,817,,,,,,,,,,,,,,,,,146,W,star,1,0,,,,,,,,,,,,,,,,repeat,letter,lettRpt,k,0.7407,Hi,,,,,,2,,,,,,,,high,15,0,15,0,1,,,,,,,,,
297484,2022-09-25_15h40.03.818,vts_reward_expectancy,2022.2.4,Win32,59.96282305,Chrome,1280,720,,,,,1,818,,,,,,,,,,,,,,,,,146,B,hexagon,1,0,,,,,,,,,,,,,,,,repeat,letter,lettRpt,j,1.5315,Lo,,,,,,2,,,,,,,,high,16,0,16,0,1,,,,,,,,,
297484,2022-09-25_15h40.03.818,vts_reward_expectancy,2022.2.4,Win32,59.96282305,Chrome,1280,720,,,,,10,828,,,,,,,,,,,,,,,,,174,F,star,1,0,,,,,,,,,,,,,,,,repeat,letter,lettRpt,j,0.7817,Hi,,,,,,2,,,,,,,,high,17,0,17,0,1,,,,,,,,,
297484,2022-09-25_15h40.03.818,vts_reward_expectancy,2022.2.4,Win32,59.96282305,Chrome,1280,720,,,,,0,828,,,,,,,,,,,,,,,,,132,U,hexagon,0,0,,,,,,,,,,,,,,,,repeat,letter,NA,j,1.3297,Hi,,,,,,2,,,,,,,,high,18,0,18,0,1,,,,,,,,,
297484,2022-09-25_15h40.03.818,vts_reward_expectancy,2022.2.4,Win32,59.96282305,Chrome,1280,720,,,,,10,838,,,,,,,,,,,,,,,,,139,W,star,1,1,,,,,,,,,,,,,,,,repeat,letter,lettRpt,k,0.9074,Hi,,,,,,2,,,,,,,,high,19,0,19,0,1,,,,,,,,,
297484,2022-09-25_15h40.03.818,vts_reward_expectancy,2022.2.4,Win32,59.96282305,Chrome,1280,720,,,,,10,848,,,,,,,,,,,,,,,,,167,S,hexagon,1,0,,,,,,,,,,,,,,,,switch,number,numSwt,f,1.2317,Lo,,,,,,2,,,,,,,,high,20,0,20,0,1,,,,,,,,,
297484,2022-09-25_15h40.03.818,vts_reward_expectancy,2022.2.4,Win32,59.96282305,Chrome,1280,720,,,,,0,848,,,,,,,,,,,,,,,,,125,H,star,1,0,,,,,,,,,,,,,,,,repeat,number,numRpt,d,1.1734,Hi,,,,,,2,,,,,,,,high,21,0,21,0,1,,,,,,,,,
297484,2022-09-25_15h40.03.818,vts_reward_expectancy,2022.2.4,Win32,59.96282305,Chrome,1280,720,,,,,0,848,,,,,,,,,,,,,,,,,160,Y,star,1,0,,,,,,,,,,,,,,,,repeat,number,numRpt,f,0.932,Hi,,,,,,2,,,,,,,,high,22,0,22,0,1,,,,,,,,,
297484,2022-09-25_15h40.03.818,vts_reward_expectancy,2022.2.4,Win32,59.96282305,Chrome,1280,720,,,,,1,849,,,,,,,,,,,,,,,,,181,D,hexagon,1,0,,,,,,,,,,,,,,,,repeat,number,numRpt,f,0.9633,Lo,,,,,,2,,,,,,,,high,23,0,23,0,1,,,,,,,,,
297484,2022-09-25_15h40.03.818,vts_reward_expectancy,2022.2.4,Win32,59.96282305,Chrome,1280,720,,,,,1,850,,,,,,,,,,,,,,,,,132,U,hexagon,1,0,,,,,,,,,,,,,,,,repeat,number,numRpt,d,1.5342,Lo,,,,,,2,,,,,,,,high,24,0,24,0,1,,,,,,,,,
297484,2022-09-25_15h40.03.818,vts_reward_expectancy,2022.2.4,Win32,59.96282305,Chrome,1280,720,,,,,0,850,,,,,,,,,,,,,,,,,125,H,star,1,0,,,,,,,,,,,,,,,,repeat,number,numRpt,d,1.0327,Hi,,,,,,2,,,,,,,,high,25,0,25,0,1,,,,,,,,,
297484,2022-09-25_15h40.03.818,vts_reward_expectancy,2022.2.4,Win32,59.96282305,Chrome,1280,720,,,,,1,851,,,,,,,,,,,,,,,,,139,S,hexagon,1,0,,,,,,,,,,,,,,,,repeat,number,numRpt,d,0.8044,Lo,,,,,,2,,,,,,,,high,26,0,26,0,1,,,,,,,,,
297484,2022-09-25_15h40.03.818,vts_reward_expectancy,2022.2.4,Win32,59.96282305,Chrome,1280,720,,,,,0,851,,,,,,,,,,,,,,,,,174,Y,star,0,0,,,,,,,,,,,,,,,,repeat,number,NA,d,1.4557,Lo,,,,,,2,,,,,,,,high,27,0,27,0,1,,,,,,,,,
297484,2022-09-25_15h40.03.818,vts_reward_expectancy,2022.2.4,Win32,59.96282305,Chrome,1280,720,,,,,1,852,,,,,,,,,,,,,,,,,181,F,hexagon,1,1,,,,,,,,,,,,,,,,repeat,number,numRpt,f,0.697,Lo,,,,,,2,,,,,,,,high,28,0,28,0,1,,,,,,,,,
297484,2022-09-25_15h40.03.818,vts_reward_expectancy,2022.2.4,Win32,59.96282305,Chrome,1280,720,,,,,0,852,,,,,,,,,,,,,,,,,160,D,star,1,0,,,,,,,,,,,,,,,,switch,letter,lettSwt,j,0.891,Hi,,,,,,2,,,,,,,,high,29,0,29,0,1,,,,,,,,,
297484,2022-09-25_15h40.03.818,vts_reward_expectancy,2022.2.4,Win32,59.96282305,Chrome,1280,720,,,,,1,853,,,,,,,,,,,,,,,,,146,B,hexagon,1,0,,,,,,,,,,,,,,,,repeat,letter,lettRpt,j,0.5662,Lo,,,,,,2,,,,,,,,high,30,0,30,0,1,,,,,,,,,
297484,2022-09-25_15h40.03.818,vts_reward_expectancy,2022.2.4,Win32,59.96282305,Chrome,1280,720,,,,,10,863,,,,,,,,,,,,,,,,,167,W,star,1,0,,,,,,,,,,,,,,,,repeat,letter,lettRpt,k,0.6755,Hi,,,,,,2,,,,,,,,high,31,0,31,0,1,,,,,,,,,
297484,2022-09-25_15h40.03.818,vts_reward_expectancy,2022.2.4,Win32,59.96282305,Chrome,1280,720,,,,,1,864,,,,,,,,,,,,,,,,,181,Y,hexagon,1,0,,,,,,,,,,,,,,,,switch,number,numSwt,f,1.4467,Lo,,,,,,3,,,,,,space,0.4656,high,0,0,0,0,1,,,,,,,,,
297484,2022-09-25_15h40.03.818,vts_reward_expectancy,2022.2.4,Win32,59.96282305,Chrome,1280,720,,,,,10,874,,,,,,,,,,,,,,,,,167,B,star,1,0,,,,,,,,,,,,,,,,repeat,number,numRpt,f,0.8103,Hi,,,,,,3,,,,,,,,high,1,0,1,0,1,,,,,,,,,
297484,2022-09-25_15h40.03.818,vts_reward_expectancy,2022.2.4,Win32,59.96282305,Chrome,1280,720,,,,,1,875,,,,,,,,,,,,,,,,,174,F,hexagon,1,0,,,,,,,,,,,,,,,,switch,letter,lettSwt,j,0.9915,Lo,,,,,,3,,,,,,,,high,2,0,2,0,1,,,,,,,,,
297484,2022-09-25_15h40.03.818,vts_reward_expectancy,2022.2.4,Win32,59.96282305,Chrome,1280,720,,,,,10,885,,,,,,,,,,,,,,,,,132,S,star,1,0,,,,,,,,,,,,,,,,switch,number,numSwt,d,1.2065,Hi,,,,,,3,,,,,,,,high,3,0,3,0,1,,,,,,,,,
297484,2022-09-25_15h40.03.818,vts_reward_expectancy,2022.2.4,Win32,59.96282305,Chrome,1280,720,,,,,1,886,,,,,,,,,,,,,,,,,146,D,hexagon,1,0,,,,,,,,,,,,,,,,switch,letter,lettSwt,j,1.0717,Lo,,,,,,3,,,,,,,,high,4,0,4,0,1,,,,,,,,,
297484,2022-09-25_15h40.03.818,vts_reward_expectancy,2022.2.4,Win32,59.96282305,Chrome,1280,720,,,,,10,896,,,,,,,,,,,,,,,,,125,U,star,1,0,,,,,,,,,,,,,,,,switch,number,numSwt,d,0.7638,Hi,,,,,,3,,,,,,,,high,5,0,5,0,1,,,,,,,,,
297484,2022-09-25_15h40.03.818,vts_reward_expectancy,2022.2.4,Win32,59.96282305,Chrome,1280,720,,,,,10,906,,,,,,,,,,,,,,,,,160,W,star,1,0,,,,,,,,,,,,,,,,repeat,number,numRpt,f,0.7468,Hi,,,,,,3,,,,,,,,high,6,0,6,0,1,,,,,,,,,
297484,2022-09-25_15h40.03.818,vts_reward_expectancy,2022.2.4,Win32,59.96282305,Chrome,1280,720,,,,,1,907,,,,,,,,,,,,,,,,,139,H,hexagon,1,0,,,,,,,,,,,,,,,,switch,letter,lettSwt,j,1.1033,Lo,,,,,,3,,,,,,,,high,7,0,7,0,1,,,,,,,,,
297484,2022-09-25_15h40.03.818,vts_reward_expectancy,2022.2.4,Win32,59.96282305,Chrome,1280,720,,,,,0,907,,,,,,,,,,,,,,,,,181,Y,star,1,0,,,,,,,,,,,,,,,,repeat,letter,lettRpt,k,1.0087,Hi,,,,,,3,,,,,,,,high,8,0,8,0,1,,,,,,,,,
297484,2022-09-25_15h40.03.818,vts_reward_expectancy,2022.2.4,Win32,59.96282305,Chrome,1280,720,,,,,1,908,,,,,,,,,,,,,,,,,167,B,hexagon,1,0,,,,,,,,,,,,,,,,switch,number,numSwt,f,1.1723,Lo,,,,,,3,,,,,,,,high,9,0,9,0,1,,,,,,,,,
297484,2022-09-25_15h40.03.818,vts_reward_expectancy,2022.2.4,Win32,59.96282305,Chrome,1280,720,,,,,10,918,,,,,,,,,,,,,,,,,174,F,star,1,0,,,,,,,,,,,,,,,,repeat,number,numRpt,f,0.7718,Hi,,,,,,3,,,,,,,,high,10,0,10,0,1,,,,,,,,,
297484,2022-09-25_15h40.03.818,vts_reward_expectancy,2022.2.4,Win32,59.96282305,Chrome,1280,720,,,,,0,918,,,,,,,,,,,,,,,,,132,S,hexagon,0,0,,,,,,,,,,,,,,,,repeat,number,NA,f,1.4326,Hi,,,,,,3,,,,,,,,high,11,0,11,0,1,,,,,,,,,
297484,2022-09-25_15h40.03.818,vts_reward_expectancy,2022.2.4,Win32,59.96282305,Chrome,1280,720,,,,,1,919,,,,,,,,,,,,,,,,,146,D,hexagon,1,1,,,,,,,,,,,,,,,,repeat,number,numRpt,d,1.2863,Lo,,,,,,3,,,,,,,,high,12,0,12,0,1,,,,,,,,,
297484,2022-09-25_15h40.03.818,vts_reward_expectancy,2022.2.4,Win32,59.96282305,Chrome,1280,720,,,,,0,919,,,,,,,,,,,,,,,,,125,U,star,0,0,,,,,,,,,,,,,,,,switch,letter,NA,j,1.0899,Lo,,,,,,3,,,,,,,,high,13,0,13,0,1,,,,,,,,,
297484,2022-09-25_15h40.03.818,vts_reward_expectancy,2022.2.4,Win32,59.96282305,Chrome,1280,720,,,,,10,929,,,,,,,,,,,,,,,,,160,W,hexagon,1,1,,,,,,,,,,,,,,,,repeat,letter,lettRpt,k,0.7639,Lo,,,,,,3,,,,,,,,high,14,0,14,0,1,,,,,,,,,
297484,2022-09-25_15h40.03.818,vts_reward_expectancy,2022.2.4,Win32,59.96282305,Chrome,1280,720,,,,,0,929,,,,,,,,,,,,,,,,,139,H,star,1,0,,,,,,,,,,,,,,,,switch,number,numSwt,d,1.9627,Hi,,,,,,3,,,,,,,,high,15,0,15,0,1,,,,,,,,,
297484,2022-09-25_15h40.03.818,vts_reward_expectancy,2022.2.4,Win32,59.96282305,Chrome,1280,720,,,,,10,939,,,,,,,,,,,,,,,,,139,U,star,1,0,,,,,,,,,,,,,,,,repeat,number,numRpt,d,0.6705,Hi,,,,,,3,,,,,,,,high,16,0,16,0,1,,,,,,,,,
297484,2022-09-25_15h40.03.818,vts_reward_expectancy,2022.2.4,Win32,59.96282305,Chrome,1280,720,,,,,1,940,,,,,,,,,,,,,,,,,146,F,hexagon,1,0,,,,,,,,,,,,,,,,repeat,number,numRpt,d,1.1856,Lo,,,,,,3,,,,,,,,high,17,0,17,0,1,,,,,,,,,
297484,2022-09-25_15h40.03.818,vts_reward_expectancy,2022.2.4,Win32,59.96282305,Chrome,1280,720,,,,,10,950,,,,,,,,,,,,,,,,,132,Y,star,1,0,,,,,,,,,,,,,,,,repeat,number,numRpt,d,0.5786,Hi,,,,,,3,,,,,,,,high,18,0,18,0,1,,,,,,,,,
297484,2022-09-25_15h40.03.818,vts_reward_expectancy,2022.2.4,Win32,59.96282305,Chrome,1280,720,,,,,1,951,,,,,,,,,,,,,,,,,167,B,hexagon,1,0,,,,,,,,,,,,,,,,repeat,number,numRpt,f,0.9814,Lo,,,,,,3,,,,,,,,high,19,0,19,0,1,,,,,,,,,
297484,2022-09-25_15h40.03.818,vts_reward_expectancy,2022.2.4,Win32,59.96282305,Chrome,1280,720,,,,,1,952,,,,,,,,,,,,,,,,,181,H,hexagon,1,0,,,,,,,,,,,,,,,,repeat,number,numRpt,f,1.0725,Lo,,,,,,3,,,,,,,,high,20,0,20,0,1,,,,,,,,,
297484,2022-09-25_15h40.03.818,vts_reward_expectancy,2022.2.4,Win32,59.96282305,Chrome,1280,720,,,,,10,962,,,,,,,,,,,,,,,,,125,W,star,1,0,,,,,,,,,,,,,,,,repeat,number,numRpt,d,0.6151,Hi,,,,,,3,,,,,,,,high,21,0,21,0,1,,,,,,,,,
297484,2022-09-25_15h40.03.818,vts_reward_expectancy,2022.2.4,Win32,59.96282305,Chrome,1280,720,,,,,1,963,,,,,,,,,,,,,,,,,174,D,hexagon,1,0,,,,,,,,,,,,,,,,switch,letter,lettSwt,j,1.7529,Lo,,,,,,3,,,,,,,,high,22,0,22,0,1,,,,,,,,,
297484,2022-09-25_15h40.03.818,vts_reward_expectancy,2022.2.4,Win32,59.96282305,Chrome,1280,720,,,,,10,973,,,,,,,,,,,,,,,,,160,S,star,1,0,,,,,,,,,,,,,,,,switch,number,numSwt,f,0.753,Hi,,,,,,3,,,,,,,,high,23,0,23,0,1,,,,,,,,,
297484,2022-09-25_15h40.03.818,vts_reward_expectancy,2022.2.4,Win32,59.96282305,Chrome,1280,720,,,,,10,983,,,,,,,,,,,,,,,,,174,Y,star,1,0,,,,,,,,,,,,,,,,repeat,number,numRpt,f,0.8081,Hi,,,,,,3,,,,,,,,high,24,0,24,0,1,,,,,,,,,
297484,2022-09-25_15h40.03.818,vts_reward_expectancy,2022.2.4,Win32,59.96282305,Chrome,1280,720,,,,,1,984,,,,,,,,,,,,,,,,,132,W,hexagon,1,0,,,,,,,,,,,,,,,,repeat,number,numRpt,d,0.6147,Lo,,,,,,3,,,,,,,,high,25,0,25,0,1,,,,,,,,,
297484,2022-09-25_15h40.03.818,vts_reward_expectancy,2022.2.4,Win32,59.96282305,Chrome,1280,720,,,,,10,994,,,,,,,,,,,,,,,,,160,U,star,1,0,,,,,,,,,,,,,,,,repeat,number,numRpt,f,0.7392,Hi,,,,,,3,,,,,,,,high,26,0,26,0,1,,,,,,,,,
297484,2022-09-25_15h40.03.818,vts_reward_expectancy,2022.2.4,Win32,59.96282305,Chrome,1280,720,,,,,1,995,,,,,,,,,,,,,,,,,167,D,hexagon,1,0,,,,,,,,,,,,,,,,repeat,number,numRpt,f,1.0166,Lo,,,,,,3,,,,,,,,high,27,0,27,0,1,,,,,,,,,
297484,2022-09-25_15h40.03.818,vts_reward_expectancy,2022.2.4,Win32,59.96282305,Chrome,1280,720,,,,,0,995,,,,,,,,,,,,,,,,,146,F,star,1,0,,,,,,,,,,,,,,,,switch,letter,lettSwt,j,0.8982,Hi,,,,,,3,,,,,,,,high,28,0,28,0,1,,,,,,,,,
297484,2022-09-25_15h40.03.818,vts_reward_expectancy,2022.2.4,Win32,59.96282305,Chrome,1280,720,,,,,1,996,,,,,,,,,,,,,,,,,181,B,hexagon,1,0,,,,,,,,,,,,,,,,switch,number,numSwt,f,1.4695,Lo,,,,,,3,,,,,,,,high,29,0,29,0,1,,,,,,,,,
297484,2022-09-25_15h40.03.818,vts_reward_expectancy,2022.2.4,Win32,59.96282305,Chrome,1280,720,,,,,1,997,,,,,,,,,,,,,,,,,139,S,hexagon,1,0,,,,,,,,,,,,,,,,repeat,number,numRpt,d,1.2063,Lo,,,,,,3,,,,,,,,high,30,0,30,0,1,,,,,,,,,
297484,2022-09-25_15h40.03.818,vts_reward_expectancy,2022.2.4,Win32,59.96282305,Chrome,1280,720,,,,,0,997,,,,,,,,,,,,,,,,,125,H,star,1,0,,,,,,,,,,,,,,,,switch,letter,lettSwt,j,0.7981,Hi,,,,,,3,,,,,,,,high,31,0,31,0,1,,,,,,,,,
297484,2022-09-25_15h40.03.818,vts_reward_expectancy,2022.2.4,Win32,59.96282305,Chrome,1280,720,,,,,0,997,,,,,,,,,,,,,,,,,167,Y,circle,0,0,,,,,,,,,,,,,,,,switch,number,NA,d,1.3487,Hi,,,,,,4,,,,,,space,3.5104,low,0,0,0,0,1,,,,,,,,,
297484,2022-09-25_15h40.03.818,vts_reward_expectancy,2022.2.4,Win32,59.96282305,Chrome,1280,720,,,,,1,998,,,,,,,,,,,,,,,,,160,S,triangle,1,1,,,,,,,,,,,,,,,,repeat,number,numRpt,f,0.6353,Lo,,,,,,4,,,,,,,,low,1,0,1,0,1,,,,,,,,,
297484,2022-09-25_15h40.03.818,vts_reward_expectancy,2022.2.4,Win32,59.96282305,Chrome,1280,720,,,,,1,999,,,,,,,,,,,,,,,,,146,B,circle,1,0,,,,,,,,,,,,,,,,switch,letter,lettSwt,j,0.9387,Hi,,,,,,4,,,,,,,,low,2,0,2,0,1,,,,,,,,,
297484,2022-09-25_15h40.03.818,vts_reward_expectancy,2022.2.4,Win32,59.96282305,Chrome,1280,720,,,,,1,1000,,,,,,,,,,,,,,,,,181,D,triangle,1,0,,,,,,,,,,,,,,,,repeat,letter,lettRpt,j,0.8239,Lo,,,,,,4,,,,,,,,low,3,0,3,0,1,,,,,,,,,
297484,2022-09-25_15h40.03.818,vts_reward_expectancy,2022.2.4,Win32,59.96282305,Chrome,1280,720,,,,,1,1001,,,,,,,,,,,,,,,,,125,U,triangle,1,0,,,,,,,,,,,,,,,,switch,number,numSwt,d,1.067,Lo,,,,,,4,,,,,,,,low,4,0,4,0,1,,,,,,,,,
297484,2022-09-25_15h40.03.818,vts_reward_expectancy,2022.2.4,Win32,59.96282305,Chrome,1280,720,,,,,0,1001,,,,,,,,,,,,,,,,,132,F,circle,1,0,,,,,,,,,,,,,,,,switch,letter,lettSwt,j,1.4308,Hi,,,,,,4,,,,,,,,low,5,0,5,0,1,,,,,,,,,
297484,2022-09-25_15h40.03.818,vts_reward_expectancy,2022.2.4,Win32,59.96282305,Chrome,1280,720,,,,,1,1002,,,,,,,,,,,,,,,,,174,H,circle,1,0,,,,,,,,,,,,,,,,switch,number,numSwt,f,0.8762,Hi,,,,,,4,,,,,,,,low,6,0,6,0,1,,,,,,,,,
297484,2022-09-25_15h40.03.818,vts_reward_expectancy,2022.2.4,Win32,59.96282305,Chrome,1280,720,,,,,1,1003,,,,,,,,,,,,,,,,,139,W,triangle,1,0,,,,,,,,,,,,,,,,repeat,number,numRpt,d,0.6474,Lo,,,,,,4,,,,,,,,low,7,0,7,0,1,,,,,,,,,
297484,2022-09-25_15h40.03.818,vts_reward_expectancy,2022.2.4,Win32,59.96282305,Chrome,1280,720,,,,,1,1004,,,,,,,,,,,,,,,,,167,Y,triangle,1,0,,,,,,,,,,,,,,,,repeat,number,numRpt,f,0.7969,Lo,,,,,,4,,,,,,,,low,8,0,8,0,1,,,,,,,,,
297484,2022-09-25_15h40.03.818,vts_reward_expectancy,2022.2.4,Win32,59.96282305,Chrome,1280,720,,,,,0,1004,,,,,,,,,,,,,,,,,160,S,circle,1,0,,,,,,,,,,,,,,,,repeat,number,numRpt,f,0.8167,Hi,,,,,,4,,,,,,,,low,9,0,9,0,1,,,,,,,,,
297484,2022-09-25_15h40.03.818,vts_reward_expectancy,2022.2.4,Win32,59.96282305,Chrome,1280,720,,,,,1,1005,,,,,,,,,,,,,,,,,146,B,triangle,1,0,,,,,,,,,,,,,,,,repeat,number,numRpt,d,0.7884,Lo,,,,,,4,,,,,,,,low,10,0,10,0,1,,,,,,,,,
297484,2022-09-25_15h40.03.818,vts_reward_expectancy,2022.2.4,Win32,59.96282305,Chrome,1280,720,,,,,0,1005,,,,,,,,,,,,,,,,,181,D,circle,1,0,,,,,,,,,,,,,,,,repeat,number,numRpt,f,1.335,Hi,,,,,,4,,,,,,,,low,11,0,11,0,1,,,,,,,,,
297484,2022-09-25_15h40.03.818,vts_reward_expectancy,2022.2.4,Win32,59.96282305,Chrome,1280,720,,,,,0,1005,,,,,,,,,,,,,,,,,125,U,circle,1,0,,,,,,,,,,,,,,,,repeat,number,numRpt,d,0.8224,Hi,,,,,,4,,,,,,,,low,12,0,12,0,1,,,,,,,,,
297484,2022-09-25_15h40.03.818,vts_reward_expectancy,2022.2.4,Win32,59.96282305,Chrome,1280,720,,,,,1,1006,,,,,,,,,,,,,,,,,132,F,triangle,1,0,,,,,,,,,,,,,,,,repeat,number,numRpt,d,0.9487,Lo,,,,,,4,,,,,,,,low,13,0,13,0,1,,,,,,,,,
297484,2022-09-25_15h40.03.818,vts_reward_expectancy,2022.2.4,Win32,59.96282305,Chrome,1280,720,,,,,0,1006,,,,,,,,,,,,,,,,,174,H,circle,1,0,,,,,,,,,,,,,,,,repeat,number,numRpt,f,1.3008,Hi,,,,,,4,,,,,,,,low,14,0,14,0,1,,,,,,,,,
297484,2022-09-25_15h40.03.818,vts_reward_expectancy,2022.2.4,Win32,59.96282305,Chrome,1280,720,,,,,10,1016,,,,,,,,,,,,,,,,,139,W,triangle,1,0,,,,,,,,,,,,,,,,repeat,number,numRpt,d,0.6125,Lo,,,,,,4,,,,,,,,low,15,0,15,0,1,,,,,,,,,
297484,2022-09-25_15h40.03.818,vts_reward_expectancy,2022.2.4,Win32,59.96282305,Chrome,1280,720,,,,,0,1016,,,,,,,,,,,,,,,,,125,D,circle,1,0,,,,,,,,,,,,,,,,switch,letter,lettSwt,j,1.3181,Hi,,,,,,4,,,,,,,,low,16,0,16,0,1,,,,,,,,,
297484,2022-09-25_15h40.03.818,vts_reward_expectancy,2022.2.4,Win32,59.96282305,Chrome,1280,720,,,,,1,1017,,,,,,,,,,,,,,,,,139,W,triangle,1,0,,,,,,,,,,,,,,,,switch,number,numSwt,d,1.2147,Lo,,,,,,4,,,,,,,,low,17,0,17,0,1,,,,,,,,,
297484,2022-09-25_15h40.03.818,vts_reward_expectancy,2022.2.4,Win32,59.96282305,Chrome,1280,720,,,,,1,1018,,,,,,,,,,,,,,,,,174,H,circle,1,0,,,,,,,,,,,,,,,,repeat,number,numRpt,f,0.7328,Hi,,,,,,4,,,,,,,,low,18,0,18,0,1,,,,,,,,,
297484,2022-09-25_15h40.03.818,vts_reward_expectancy,2022.2.4,Win32,59.96282305,Chrome,1280,720,,,,,1,1019,,,,,,,,,,,,,,,,,160,F,triangle,1,0,,,,,,,,,,,,,,,,repeat,number,numRpt,f,0.553,Lo,,,,,,4,,,,,,,,low,19,0,19,0,1,,,,,,,,,
297484,2022-09-25_15h40.03.818,vts_reward_expectancy,2022.2.4,Win32,59.96282305,Chrome,1280,720,,,,,0,1019,,,,,,,,,,,,,,,,,146,Y,triangle,0,0,,,,,,,,,,,,,,,,switch,letter,NA,j,0.5856,Lo,,,,,,4,,,,,,,,low,20,0,20,0,1,,,,,,,,,
297484,2022-09-25_15h40.03.818,vts_reward_expectancy,2022.2.4,Win32,59.96282305,Chrome,1280,720,,,,,0,1019,,,,,,,,,,,,,,,,,167,S,circle,0,1,,,,,,,,,,,,,,,,switch,number,NA,d,1.3142,Lo,,,,,,4,,,,,,,,low,21,0,21,0,1,,,,,,,,,
297484,2022-09-25_15h40.03.818,vts_reward_expectancy,2022.2.4,Win32,59.96282305,Chrome,1280,720,,,,,1,1020,,,,,,,,,,,,,,,,,181,B,triangle,1,1,,,,,,,,,,,,,,,,repeat,number,numRpt,f,0.5892,Lo,,,,,,4,,,,,,,,low,22,0,22,0,1,,,,,,,,,
297484,2022-09-25_15h40.03.818,vts_reward_expectancy,2022.2.4,Win32,59.96282305,Chrome,1280,720,,,,,0,1020,,,,,,,,,,,,,,,,,132,U,circle,0,0,,,,,,,,,,,,,,,,switch,letter,NA,j,0.8824,Lo,,,,,,4,,,,,,,,low,23,0,23,0,1,,,,,,,,,
297484,2022-09-25_15h40.03.818,vts_reward_expectancy,2022.2.4,Win32,59.96282305,Chrome,1280,720,,,,,10,1030,,,,,,,,,,,,,,,,,139,D,triangle,1,1,,,,,,,,,,,,,,,,repeat,letter,lettRpt,j,1.1886,Lo,,,,,,4,,,,,,,,low,24,0,24,0,1,,,,,,,,,
297484,2022-09-25_15h40.03.818,vts_reward_expectancy,2022.2.4,Win32,59.96282305,Chrome,1280,720,,,,,0,1030,,,,,,,,,,,,,,,,,167,F,circle,1,0,,,,,,,,,,,,,,,,repeat,letter,lettRpt,j,1.2332,Hi,,,,,,4,,,,,,,,low,25,0,25,0,1,,,,,,,,,
297484,2022-09-25_15h40.03.818,vts_reward_expectancy,2022.2.4,Win32,59.96282305,Chrome,1280,720,,,,,10,1040,,,,,,,,,,,,,,,,,132,W,triangle,1,0,,,,,,,,,,,,,,,,repeat,letter,lettRpt,k,0.8823,Lo,,,,,,4,,,,,,,,low,26,0,26,0,1,,,,,,,,,
297484,2022-09-25_15h40.03.818,vts_reward_expectancy,2022.2.4,Win32,59.96282305,Chrome,1280,720,,,,,0,1040,,,,,,,,,,,,,,,,,174,Y,circle,0,0,,,,,,,,,,,,,,,,repeat,letter,NA,j,0.6888,Lo,,,,,,4,,,,,,,,low,27,0,27,0,1,,,,,,,,,
297484,2022-09-25_15h40.03.818,vts_reward_expectancy,2022.2.4,Win32,59.96282305,Chrome,1280,720,,,,,0,1040,,,,,,,,,,,,,,,,,181,S,circle,0,1,,,,,,,,,,,,,,,,switch,number,NA,d,1.0471,Lo,,,,,,4,,,,,,,,low,28,0,28,0,1,,,,,,,,,
297484,2022-09-25_15h40.03.818,vts_reward_expectancy,2022.2.4,Win32,59.96282305,Chrome,1280,720,,,,,10,1050,,,,,,,,,,,,,,,,,125,H,triangle,1,1,,,,,,,,,,,,,,,,repeat,number,numRpt,d,0.7143,Lo,,,,,,4,,,,,,,,low,29,0,29,0,1,,,,,,,,,
297484,2022-09-25_15h40.03.818,vts_reward_expectancy,2022.2.4,Win32,59.96282305,Chrome,1280,720,,,,,10,1060,,,,,,,,,,,,,,,,,160,U,triangle,1,0,,,,,,,,,,,,,,,,repeat,number,numRpt,f,0.8467,Lo,,,,,,4,,,,,,,,low,30,0,30,0,1,,,,,,,,,
297484,2022-09-25_15h40.03.818,vts_reward_expectancy,2022.2.4,Win32,59.96282305,Chrome,1280,720,,,,,10,1070,,,,,,,,,,,,,,,,,146,B,circle,1,0,,,,,,,,,,,,,,,,repeat,number,numRpt,d,0.6538,Hi,,,,,,4,,,,,,,,low,31,0,31,0,1,,,,,,,,,
297484,2022-09-25_15h40.03.818,vts_reward_expectancy,2022.2.4,Win32,59.96282305,Chrome,1280,720,,,,,0,1070,,,,,,,,,,,,,,,,,146,W,star,1,0,,,,,,,,,,,,,,,,repeat,number,numRpt,d,0.9327,Hi,,,,,,5,,,,,,space,2.9156,high,0,0,0,0,1,,,,,,,,,
297484,2022-09-25_15h40.03.818,vts_reward_expectancy,2022.2.4,Win32,59.96282305,Chrome,1280,720,,,,,10,1080,,,,,,,,,,,,,,,,,174,Y,hexagon,1,0,,,,,,,,,,,,,,,,repeat,number,numRpt,f,0.5712,Lo,,,,,,5,,,,,,,,high,1,0,1,0,1,,,,,,,,,
297484,2022-09-25_15h40.03.818,vts_reward_expectancy,2022.2.4,Win32,59.96282305,Chrome,1280,720,,,,,10,1090,,,,,,,,,,,,,,,,,181,S,star,1,0,,,,,,,,,,,,,,,,repeat,number,numRpt,f,0.4854,Hi,,,,,,5,,,,,,,,high,2,0,2,0,1,,,,,,,,,
297484,2022-09-25_15h40.03.818,vts_reward_expectancy,2022.2.4,Win32,59.96282305,Chrome,1280,720,,,,,1,1091,,,,,,,,,,,,,,,,,167,B,hexagon,1,0,,,,,,,,,,,,,,,,switch,letter,lettSwt,j,0.332,Lo,,,,,,5,,,,,,,,high,3,0,3,0,1,,,,,,,,,
297484,2022-09-25_15h40.03.818,vts_reward_expectancy,2022.2.4,Win32,59.96282305,Chrome,1280,720,,,,,10,1101,,,,,,,,,,,,,,,,,139,H,star,1,0,,,,,,,,,,,,,,,,switch,number,numSwt,d,0.5144,Hi,,,,,,5,,,,,,,,high,4,0,4,0,1,,,,,,,,,
297484,2022-09-25_15h40.03.818,vts_reward_expectancy,2022.2.4,Win32,59.96282305,Chrome,1280,720,,,,,0,1101,,,,,,,,,,,,,,,,,125,U,hexagon,0,0,,,,,,,,,,,,,,,,repeat,number,NA,f,1.064,Hi,,,,,,5,,,,,,,,high,5,0,5,0,1,,,,,,,,,
297484,2022-09-25_15h40.03.818,vts_reward_expectancy,2022.2.4,Win32,59.96282305,Chrome,1280,720,,,,,0,1101,,,,,,,,,,,,,,,,,132,F,star,1,1,,,,,,,,,,,,,,,,repeat,number,numRpt,d,0.7974,Hi,,,,,,5,,,,,,,,high,6,0,6,0,1,,,,,,,,,
297484,2022-09-25_15h40.03.818,vts_reward_expectancy,2022.2.4,Win32,59.96282305,Chrome,1280,720,,,,,1,1102,,,,,,,,,,,,,,,,,160,D,hexagon,1,0,,,,,,,,,,,,,,,,repeat,number,numRpt,f,0.5808,Lo,,,,,,5,,,,,,,,high,7,0,7,0,1,,,,,,,,,
297484,2022-09-25_15h40.03.818,vts_reward_expectancy,2022.2.4,Win32,59.96282305,Chrome,1280,720,,,,,1,1103,,,,,,,,,,,,,,,,,146,W,hexagon,1,0,,,,,,,,,,,,,,,,repeat,number,numRpt,d,0.666,Lo,,,,,,5,,,,,,,,high,8,0,8,0,1,,,,,,,,,
297484,2022-09-25_15h40.03.818,vts_reward_expectancy,2022.2.4,Win32,59.96282305,Chrome,1280,720,,,,,0,1103,,,,,,,,,,,,,,,,,174,Y,star,0,0,,,,,,,,,,,,,,,,switch,letter,NA,j,0.8027,Lo,,,,,,5,,,,,,,,high,9,0,9,0,1,,,,,,,,,
297484,2022-09-25_15h40.03.818,vts_reward_expectancy,2022.2.4,Win32,59.96282305,Chrome,1280,720,,,,,0,1103,,,,,,,,,,,,,,,,,181,S,star,1,1,,,,,,,,,,,,,,,,switch,number,numSwt,f,1.2759,Hi,,,,,,5,,,,,,,,high,10,0,10,0,1,,,,,,,,,
297484,2022-09-25_15h40.03.818,vts_reward_expectancy,2022.2.4,Win32,59.96282305,Chrome,1280,720,,,,,1,1104,,,,,,,,,,,,,,,,,167,B,hexagon,1,0,,,,,,,,,,,,,,,,repeat,number,numRpt,f,0.8309,Lo,,,,,,5,,,,,,,,high,11,0,11,0,1,,,,,,,,,
297484,2022-09-25_15h40.03.818,vts_reward_expectancy,2022.2.4,Win32,59.96282305,Chrome,1280,720,,,,,0,1104,,,,,,,,,,,,,,,,,139,H,star,1,0,,,,,,,,,,,,,,,,repeat,number,numRpt,d,0.6696,Hi,,,,,,5,,,,,,,,high,12,0,12,0,1,,,,,,,,,
297484,2022-09-25_15h40.03.818,vts_reward_expectancy,2022.2.4,Win32,59.96282305,Chrome,1280,720,,,,,1,1105,,,,,,,,,,,,,,,,,125,U,hexagon,1,0,,,,,,,,,,,,,,,,repeat,number,numRpt,d,0.6222,Lo,,,,,,5,,,,,,,,high,13,0,13,0,1,,,,,,,,,
297484,2022-09-25_15h40.03.818,vts_reward_expectancy,2022.2.4,Win32,59.96282305,Chrome,1280,720,,,,,1,1106,,,,,,,,,,,,,,,,,132,F,hexagon,1,0,,,,,,,,,,,,,,,,switch,letter,lettSwt,j,0.8484,Lo,,,,,,5,,,,,,,,high,14,0,14,0,1,,,,,,,,,
297484,2022-09-25_15h40.03.818,vts_reward_expectancy,2022.2.4,Win32,59.96282305,Chrome,1280,720,,,,,1,1107,,,,,,,,,,,,,,,,,160,D,star,1,0,,,,,,,,,,,,,,,,switch,number,numSwt,f,0.8216,Hi,,,,,,5,,,,,,,,high,15,0,15,0,1,,,,,,,,,
297484,2022-09-25_15h40.03.818,vts_reward_expectancy,2022.2.4,Win32,59.96282305,Chrome,1280,720,,,,,0,1107,,,,,,,,,,,,,,,,,125,H,star,1,0,,,,,,,,,,,,,,,,repeat,number,numRpt,d,0.9763,Hi,,,,,,5,,,,,,,,high,16,0,16,0,1,,,,,,,,,
297484,2022-09-25_15h40.03.818,vts_reward_expectancy,2022.2.4,Win32,59.96282305,Chrome,1280,720,,,,,1,1108,,,,,,,,,,,,,,,,,167,Y,hexagon,1,0,,,,,,,,,,,,,,,,repeat,number,numRpt,f,0.9639,Lo,,,,,,5,,,,,,,,high,17,0,17,0,1,,,,,,,,,
297484,2022-09-25_15h40.03.818,vts_reward_expectancy,2022.2.4,Win32,59.96282305,Chrome,1280,720,,,,,0,1108,,,,,,,,,,,,,,,,,181,U,star,1,0,,,,,,,,,,,,,,,,repeat,number,numRpt,f,0.7484,Hi,,,,,,5,,,,,,,,high,18,0,18,0,1,,,,,,,,,
297484,2022-09-25_15h40.03.818,vts_reward_expectancy,2022.2.4,Win32,59.96282305,Chrome,1280,720,,,,,1,1109,,,,,,,,,,,,,,,,,132,B,hexagon,1,0,,,,,,,,,,,,,,,,repeat,number,numRpt,d,1.3406,Lo,,,,,,5,,,,,,,,high,19,0,19,0,1,,,,,,,,,
297484,2022-09-25_15h40.03.818,vts_reward_expectancy,2022.2.4,Win32,59.96282305,Chrome,1280,720,,,,,1,1110,,,,,,,,,,,,,,,,,146,W,hexagon,1,0,,,,,,,,,,,,,,,,repeat,number,numRpt,d,0.6332,Lo,,,,,,5,,,,,,,,high,20,0,20,0,1,,,,,,,,,
297484,2022-09-25_15h40.03.818,vts_reward_expectancy,2022.2.4,Win32,59.96282305,Chrome,1280,720,,,,,0,1110,,,,,,,,,,,,,,,,,139,S,star,1,0,,,,,,,,,,,,,,,,repeat,number,numRpt,d,1.3131,Hi,,,,,,5,,,,,,,,high,21,0,21,0,1,,,,,,,,,
297484,2022-09-25_15h40.03.818,vts_reward_expectancy,2022.2.4,Win32,59.96282305,Chrome,1280,720,,,,,0,1110,,,,,,,,,,,,,,,,,160,F,hexagon,0,0,,,,,,,,,,,,,,,,switch,letter,NA,k,0.7422,Hi,,,,,,5,,,,,,,,high,22,0,22,0,1,,,,,,,,,
297484,2022-09-25_15h40.03.818,vts_reward_expectancy,2022.2.4,Win32,59.96282305,Chrome,1280,720,,,,,10,1120,,,,,,,,,,,,,,,,,174,D,star,1,1,,,,,,,,,,,,,,,,repeat,letter,lettRpt,j,0.7344,Hi,,,,,,5,,,,,,,,high,23,0,23,0,1,,,,,,,,,
297484,2022-09-25_15h40.03.818,vts_reward_expectancy,2022.2.4,Win32,59.96282305,Chrome,1280,720,,,,,0,1120,,,,,,,,,,,,,,,,,125,S,star,1,0,,,,,,,,,,,,,,,,switch,number,numSwt,d,1.085,Hi,,,,,,5,,,,,,,,high,24,0,24,0,1,,,,,,,,,
297484,2022-09-25_15h40.03.818,vts_reward_expectancy,2022.2.4,Win32,59.96282305,Chrome,1280,720,,,,,1,1121,,,,,,,,,,,,,,,,,167,D,hexagon,1,0,,,,,,,,,,,,,,,,repeat,number,numRpt,f,0.7687,Lo,,,,,,5,,,,,,,,high,25,0,25,0,1,,,,,,,,,
297484,2022-09-25_15h40.03.818,vts_reward_expectancy,2022.2.4,Win32,59.96282305,Chrome,1280,720,,,,,10,1131,,,,,,,,,,,,,,,,,139,Y,hexagon,1,0,,,,,,,,,,,,,,,,repeat,number,numRpt,d,0.7045,Lo,,,,,,5,,,,,,,,high,26,0,26,0,1,,,,,,,,,
297484,2022-09-25_15h40.03.818,vts_reward_expectancy,2022.2.4,Win32,59.96282305,Chrome,1280,720,,,,,0,1131,,,,,,,,,,,,,,,,,181,F,star,1,0,,,,,,,,,,,,,,,,repeat,number,numRpt,f,0.9406,Hi,,,,,,5,,,,,,,,high,27,0,27,0,1,,,,,,,,,
297484,2022-09-25_15h40.03.818,vts_reward_expectancy,2022.2.4,Win32,59.96282305,Chrome,1280,720,,,,,1,1132,,,,,,,,,,,,,,,,,160,W,hexagon,1,0,,,,,,,,,,,,,,,,repeat,number,numRpt,f,0.9312,Lo,,,,,,5,,,,,,,,high,28,0,28,0,1,,,,,,,,,
297484,2022-09-25_15h40.03.818,vts_reward_expectancy,2022.2.4,Win32,59.96282305,Chrome,1280,720,,,,,0,1132,,,,,,,,,,,,,,,,,132,B,star,1,0,,,,,,,,,,,,,,,,repeat,number,numRpt,d,1.1987,Hi,,,,,,5,,,,,,,,high,29,0,29,0,1,,,,,,,,,
297484,2022-09-25_15h40.03.818,vts_reward_expectancy,2022.2.4,Win32,59.96282305,Chrome,1280,720,,,,,10,1142,,,,,,,,,,,,,,,,,146,U,star,1,0,,,,,,,,,,,,,,,,repeat,number,numRpt,d,0.6196,Hi,,,,,,5,,,,,,,,high,30,0,30,0,1,,,,,,,,,
297484,2022-09-25_15h40.03.818,vts_reward_expectancy,2022.2.4,Win32,59.96282305,Chrome,1280,720,,,,,10,1152,,,,,,,,,,,,,,,,,174,H,hexagon,1,0,,,,,,,,,,,,,,,,repeat,number,numRpt,f,0.8409,Lo,,,,,,5,,,,,,,,high,31,0,31,0,1,,,,,,,,,
297484,2022-09-25_15h40.03.818,vts_reward_expectancy,2022.2.4,Win32,59.96282305,Chrome,1280,720,,,,,,,,,,,,,,,,,,,,,,,,,,,,,,,,,,,,,,,,,,,,,,,,,,,,,,6,,,,,,,,,,,,,,"Choose between shapes, numbers and letters",1,,4,2,1,the time out thing isn't the same for each question,1280,720
