participant,date,expName,psychopyVersion,OS,frameRate,browser,xResolution,yResolution,key_resp.keys,key_resp.rt,training_resp.keys,training_resp.rt,points_trial,points_cumul,trainBlock,training.thisRepN,training.thisTrialN,training.thisN,training.thisIndex,training.ran,LTriangleOpac,LCircleOpac,LHexagonOpac,LStarOpac,RTriangleOpac,RCircleOpac,RHexagonOpac,RStarOpac,LShape_ID,RShape_ID,curr_topStim,curr_bottStim,curr_shape,acc,E1,target_resp_prac1.keys,pracBlock,task1_prac_trials.thisRepN,task1_prac_trials.thisTrialN,task1_prac_trials.thisN,task1_prac_trials.thisIndex,task1_prac_trials.ran,target_resp_prac1.rt,target_resp_prac2.keys,target_resp_prac2.rt,task2_praac_trials.thisRepN,task2_praac_trials.thisTrialN,task2_praac_trials.thisN,task2_praac_trials.thisIndex,task2_praac_trials.ran,alt,task,condition,target_resp.keys,target_resp.rt,rewCond,vts_practice_trials.thisRepN,vts_practice_trials.thisTrialN,vts_practice_trials.thisN,vts_practice_trials.thisIndex,vts_practice_trials.ran,blockNum,trials_norew.thisRepN,trials_norew.thisTrialN,trials_norew.thisN,trials_norew.thisIndex,trials_norew.ran,key_resp_2.keys,key_resp_2.rt,rewExpect,trials_rew.thisRepN,trials_rew.thisTrialN,trials_rew.thisN,trials_rew.thisIndex,trials_rew.ran,Q1,Q2,Q2_text,Q3,Q4,Q5_text,Q5,xRes,yRes
293293,2022-09-25_21h37.56.102,vts_reward_expectancy,2022.2.4,Win32,59.68367651,Chrome,1504,1003,,,,,,,,,,,,,,,,,,,,,,,,,,,,,,,,,,,,,,,,,,,,,,,,,,,,,,,,,,,,,,,,,,,,,,,,,,,,
293293,2022-09-25_21h37.56.102,vts_reward_expectancy,2022.2.4,Win32,59.68367651,Chrome,1504,1003,space,12.8748,,,,,,,,,,,,,,,,,,,,,,,,,,,,,,,,,,,,,,,,,,,,,,,,,,,,,,,,,,,,,,,,,,,,,,,,,,
293293,2022-09-25_21h37.56.102,vts_reward_expectancy,2022.2.4,Win32,59.68367651,Chrome,1504,1003,,,,,,,,,,,,,,,,,,,,,,,,,,,,,,,,,,,,,,,,,,,,,,,,,,,,,,,,,,,,,,,,,,,,,,,,,,,,
293293,2022-09-25_21h37.56.102,vts_reward_expectancy,2022.2.4,Win32,59.68367651,Chrome,1504,1003,,,a,9.0195,1,1,0,0,0,0,7,1,0,0,1,0,0,1,0,0,hexagon,circle,,,,,,,,,,,,,,,,,,,,,,,,,,,,,,,,,,,,,,,,,,,,,,,,,,,,,,
293293,2022-09-25_21h37.56.102,vts_reward_expectancy,2022.2.4,Win32,59.68367651,Chrome,1504,1003,,,l,3.3112,1,2,0,0,1,1,5,1,0,1,0,0,0,0,0,1,circle,star,,,,,,,,,,,,,,,,,,,,,,,,,,,,,,,,,,,,,,,,,,,,,,,,,,,,,,
293293,2022-09-25_21h37.56.102,vts_reward_expectancy,2022.2.4,Win32,59.68367651,Chrome,1504,1003,,,l,7.8511,10,12,0,0,2,2,1,1,1,0,0,0,0,0,1,0,triangle,hexagon,,,,,,,,,,,,,,,,,,,,,,,,,,,,,,,,,,,,,,,,,,,,,,,,,,,,,,
293293,2022-09-25_21h37.56.102,vts_reward_expectancy,2022.2.4,Win32,59.68367651,Chrome,1504,1003,,,a,1.1589,10,22,0,0,3,3,11,1,0,0,0,1,0,0,1,0,star,hexagon,,,,,,,,,,,,,,,,,,,,,,,,,,,,,,,,,,,,,,,,,,,,,,,,,,,,,,
293293,2022-09-25_21h37.56.102,vts_reward_expectancy,2022.2.4,Win32,59.68367651,Chrome,1504,1003,,,l,0.5042,1,23,0,0,4,4,10,1,0,0,0,1,0,1,0,0,star ,circle,,,,,,,,,,,,,,,,,,,,,,,,,,,,,,,,,,,,,,,,,,,,,,,,,,,,,,
293293,2022-09-25_21h37.56.102,vts_reward_expectancy,2022.2.4,Win32,59.68367651,Chrome,1504,1003,,,a,0.7161,10,33,0,0,5,5,6,1,0,0,1,0,1,0,0,0,hexagon,triangle,,,,,,,,,,,,,,,,,,,,,,,,,,,,,,,,,,,,,,,,,,,,,,,,,,,,,,
293293,2022-09-25_21h37.56.102,vts_reward_expectancy,2022.2.4,Win32,59.68367651,Chrome,1504,1003,,,a,0.9998,10,43,0,0,6,6,8,1,0,0,1,0,0,0,0,1,hexagon,star,,,,,,,,,,,,,,,,,,,,,,,,,,,,,,,,,,,,,,,,,,,,,,,,,,,,,,
293293,2022-09-25_21h37.56.102,vts_reward_expectancy,2022.2.4,Win32,59.68367651,Chrome,1504,1003,,,l,1.1573,1,44,0,0,7,7,9,1,0,0,0,1,1,0,0,0,star,triangle,,,,,,,,,,,,,,,,,,,,,,,,,,,,,,,,,,,,,,,,,,,,,,,,,,,,,,
293293,2022-09-25_21h37.56.102,vts_reward_expectancy,2022.2.4,Win32,59.68367651,Chrome,1504,1003,,,a,1.2899,1,45,0,0,8,8,4,1,0,1,0,0,0,0,1,0,circle,hexagon,,,,,,,,,,,,,,,,,,,,,,,,,,,,,,,,,,,,,,,,,,,,,,,,,,,,,,
293293,2022-09-25_21h37.56.102,vts_reward_expectancy,2022.2.4,Win32,59.68367651,Chrome,1504,1003,,,a,1.05,10,55,0,0,9,9,2,1,1,0,0,0,0,0,0,1,triangle,star,,,,,,,,,,,,,,,,,,,,,,,,,,,,,,,,,,,,,,,,,,,,,,,,,,,,,,
293293,2022-09-25_21h37.56.102,vts_reward_expectancy,2022.2.4,Win32,59.68367651,Chrome,1504,1003,,,l,0.7028,1,56,0,0,10,10,3,1,0,1,0,0,1,0,0,0,circle,triangle,,,,,,,,,,,,,,,,,,,,,,,,,,,,,,,,,,,,,,,,,,,,,,,,,,,,,,
293293,2022-09-25_21h37.56.102,vts_reward_expectancy,2022.2.4,Win32,59.68367651,Chrome,1504,1003,,,l,0.9496,10,66,0,0,11,11,0,1,1,0,0,0,0,1,0,0,triangle,circle,,,,,,,,,,,,,,,,,,,,,,,,,,,,,,,,,,,,,,,,,,,,,,,,,,,,,,
293293,2022-09-25_21h37.56.102,vts_reward_expectancy,2022.2.4,Win32,59.68367651,Chrome,1504,1003,,,a,0.5526,1,67,0,1,0,12,5,1,0,1,0,0,0,0,0,1,circle,star,,,,,,,,,,,,,,,,,,,,,,,,,,,,,,,,,,,,,,,,,,,,,,,,,,,,,,
293293,2022-09-25_21h37.56.102,vts_reward_expectancy,2022.2.4,Win32,59.68367651,Chrome,1504,1003,,,l,0.6718,10,77,0,1,1,13,8,1,0,0,1,0,0,0,0,1,hexagon,star,,,,,,,,,,,,,,,,,,,,,,,,,,,,,,,,,,,,,,,,,,,,,,,,,,,,,,
293293,2022-09-25_21h37.56.102,vts_reward_expectancy,2022.2.4,Win32,59.68367651,Chrome,1504,1003,,,l,0.7686,1,78,0,1,2,14,9,1,0,0,0,1,1,0,0,0,star,triangle,,,,,,,,,,,,,,,,,,,,,,,,,,,,,,,,,,,,,,,,,,,,,,,,,,,,,,
293293,2022-09-25_21h37.56.102,vts_reward_expectancy,2022.2.4,Win32,59.68367651,Chrome,1504,1003,,,a,0.7385,1,79,0,1,3,15,1,1,1,0,0,0,0,0,1,0,triangle,hexagon,,,,,,,,,,,,,,,,,,,,,,,,,,,,,,,,,,,,,,,,,,,,,,,,,,,,,,
293293,2022-09-25_21h37.56.102,vts_reward_expectancy,2022.2.4,Win32,59.68367651,Chrome,1504,1003,,,a,0.6089,10,89,0,1,4,16,6,1,0,0,1,0,1,0,0,0,hexagon,triangle,,,,,,,,,,,,,,,,,,,,,,,,,,,,,,,,,,,,,,,,,,,,,,,,,,,,,,
293293,2022-09-25_21h37.56.102,vts_reward_expectancy,2022.2.4,Win32,59.68367651,Chrome,1504,1003,,,a,0.5872,10,99,0,1,5,17,7,1,0,0,1,0,0,1,0,0,hexagon,circle,,,,,,,,,,,,,,,,,,,,,,,,,,,,,,,,,,,,,,,,,,,,,,,,,,,,,,
293293,2022-09-25_21h37.56.102,vts_reward_expectancy,2022.2.4,Win32,59.68367651,Chrome,1504,1003,,,l,1.1184,1,100,0,1,6,18,0,1,1,0,0,0,0,1,0,0,triangle,circle,,,,,,,,,,,,,,,,,,,,,,,,,,,,,,,,,,,,,,,,,,,,,,,,,,,,,,
293293,2022-09-25_21h37.56.102,vts_reward_expectancy,2022.2.4,Win32,59.68367651,Chrome,1504,1003,,,l,1.556,1,101,0,1,7,19,10,1,0,0,0,1,0,1,0,0,star ,circle,,,,,,,,,,,,,,,,,,,,,,,,,,,,,,,,,,,,,,,,,,,,,,,,,,,,,,
293293,2022-09-25_21h37.56.102,vts_reward_expectancy,2022.2.4,Win32,59.68367651,Chrome,1504,1003,,,a,1.633,1,102,0,1,8,20,4,1,0,1,0,0,0,0,1,0,circle,hexagon,,,,,,,,,,,,,,,,,,,,,,,,,,,,,,,,,,,,,,,,,,,,,,,,,,,,,,
293293,2022-09-25_21h37.56.102,vts_reward_expectancy,2022.2.4,Win32,59.68367651,Chrome,1504,1003,,,l,2.0681,1,103,0,1,9,21,3,1,0,1,0,0,1,0,0,0,circle,triangle,,,,,,,,,,,,,,,,,,,,,,,,,,,,,,,,,,,,,,,,,,,,,,,,,,,,,,
293293,2022-09-25_21h37.56.102,vts_reward_expectancy,2022.2.4,Win32,59.68367651,Chrome,1504,1003,,,l,0.9365,10,113,0,1,10,22,11,1,0,0,0,1,0,0,1,0,star,hexagon,,,,,,,,,,,,,,,,,,,,,,,,,,,,,,,,,,,,,,,,,,,,,,,,,,,,,,
293293,2022-09-25_21h37.56.102,vts_reward_expectancy,2022.2.4,Win32,59.68367651,Chrome,1504,1003,,,a,2.2882,1,114,0,1,11,23,2,1,1,0,0,0,0,0,0,1,triangle,star,,,,,,,,,,,,,,,,,,,,,,,,,,,,,,,,,,,,,,,,,,,,,,,,,,,,,,
293293,2022-09-25_21h37.56.102,vts_reward_expectancy,2022.2.4,Win32,59.68367651,Chrome,1504,1003,,,l,0.7347,1,115,0,2,0,24,0,1,1,0,0,0,0,1,0,0,triangle,circle,,,,,,,,,,,,,,,,,,,,,,,,,,,,,,,,,,,,,,,,,,,,,,,,,,,,,,
293293,2022-09-25_21h37.56.102,vts_reward_expectancy,2022.2.4,Win32,59.68367651,Chrome,1504,1003,,,l,1.2016,10,125,0,2,1,25,1,1,1,0,0,0,0,0,1,0,triangle,hexagon,,,,,,,,,,,,,,,,,,,,,,,,,,,,,,,,,,,,,,,,,,,,,,,,,,,,,,
293293,2022-09-25_21h37.56.102,vts_reward_expectancy,2022.2.4,Win32,59.68367651,Chrome,1504,1003,,,a,4.8159,1,126,0,2,2,26,5,1,0,1,0,0,0,0,0,1,circle,star,,,,,,,,,,,,,,,,,,,,,,,,,,,,,,,,,,,,,,,,,,,,,,,,,,,,,,
293293,2022-09-25_21h37.56.102,vts_reward_expectancy,2022.2.4,Win32,59.68367651,Chrome,1504,1003,,,l,0.2789,1,127,0,2,3,27,9,1,0,0,0,1,1,0,0,0,star,triangle,,,,,,,,,,,,,,,,,,,,,,,,,,,,,,,,,,,,,,,,,,,,,,,,,,,,,,
293293,2022-09-25_21h37.56.102,vts_reward_expectancy,2022.2.4,Win32,59.68367651,Chrome,1504,1003,,,l,0.566,10,137,0,2,4,28,6,1,0,0,1,0,1,0,0,0,hexagon,triangle,,,,,,,,,,,,,,,,,,,,,,,,,,,,,,,,,,,,,,,,,,,,,,,,,,,,,,
293293,2022-09-25_21h37.56.102,vts_reward_expectancy,2022.2.4,Win32,59.68367651,Chrome,1504,1003,,,l,0.0007,1,138,0,2,5,29,3,1,0,1,0,0,1,0,0,0,circle,triangle,,,,,,,,,,,,,,,,,,,,,,,,,,,,,,,,,,,,,,,,,,,,,,,,,,,,,,
293293,2022-09-25_21h37.56.102,vts_reward_expectancy,2022.2.4,Win32,59.68367651,Chrome,1504,1003,,,l,0.1037,1,139,0,2,6,30,10,1,0,0,0,1,0,1,0,0,star ,circle,,,,,,,,,,,,,,,,,,,,,,,,,,,,,,,,,,,,,,,,,,,,,,,,,,,,,,
293293,2022-09-25_21h37.56.102,vts_reward_expectancy,2022.2.4,Win32,59.68367651,Chrome,1504,1003,,,a,0.1371,1,140,0,2,7,31,8,1,0,0,1,0,0,0,0,1,hexagon,star,,,,,,,,,,,,,,,,,,,,,,,,,,,,,,,,,,,,,,,,,,,,,,,,,,,,,,
293293,2022-09-25_21h37.56.102,vts_reward_expectancy,2022.2.4,Win32,59.68367651,Chrome,1504,1003,,,l,0.7813,10,150,0,2,8,32,11,1,0,0,0,1,0,0,1,0,star,hexagon,,,,,,,,,,,,,,,,,,,,,,,,,,,,,,,,,,,,,,,,,,,,,,,,,,,,,,
293293,2022-09-25_21h37.56.102,vts_reward_expectancy,2022.2.4,Win32,59.68367651,Chrome,1504,1003,,,l,0.7937,10,160,0,2,9,33,4,1,0,1,0,0,0,0,1,0,circle,hexagon,,,,,,,,,,,,,,,,,,,,,,,,,,,,,,,,,,,,,,,,,,,,,,,,,,,,,,
293293,2022-09-25_21h37.56.102,vts_reward_expectancy,2022.2.4,Win32,59.68367651,Chrome,1504,1003,,,a,1.1537,1,161,0,2,10,34,2,1,1,0,0,0,0,0,0,1,triangle,star,,,,,,,,,,,,,,,,,,,,,,,,,,,,,,,,,,,,,,,,,,,,,,,,,,,,,,
293293,2022-09-25_21h37.56.102,vts_reward_expectancy,2022.2.4,Win32,59.68367651,Chrome,1504,1003,,,a,0.8847,10,171,0,2,11,35,7,1,0,0,1,0,0,1,0,0,hexagon,circle,,,,,,,,,,,,,,,,,,,,,,,,,,,,,,,,,,,,,,,,,,,,,,,,,,,,,,
293293,2022-09-25_21h37.56.102,vts_reward_expectancy,2022.2.4,Win32,59.68367651,Chrome,1504,1003,,,a,3.6666,10,181,1,0,0,0,4,1,0,1,0,0,0,0,1,0,circle,hexagon,,,,,,,,,,,,,,,,,,,,,,,,,,,,,,,,,,,,,,,,,,,,,,,,,,,,,,
293293,2022-09-25_21h37.56.102,vts_reward_expectancy,2022.2.4,Win32,59.68367651,Chrome,1504,1003,,,a,0.5551,10,191,1,0,1,1,6,1,0,0,1,0,1,0,0,0,hexagon,triangle,,,,,,,,,,,,,,,,,,,,,,,,,,,,,,,,,,,,,,,,,,,,,,,,,,,,,,
293293,2022-09-25_21h37.56.102,vts_reward_expectancy,2022.2.4,Win32,59.68367651,Chrome,1504,1003,,,a,1.5175,1,192,1,0,2,2,5,1,0,1,0,0,0,0,0,1,circle,star,,,,,,,,,,,,,,,,,,,,,,,,,,,,,,,,,,,,,,,,,,,,,,,,,,,,,,
293293,2022-09-25_21h37.56.102,vts_reward_expectancy,2022.2.4,Win32,59.68367651,Chrome,1504,1003,,,a,0.3041,1,193,1,0,3,3,10,1,0,0,0,1,0,1,0,0,star ,circle,,,,,,,,,,,,,,,,,,,,,,,,,,,,,,,,,,,,,,,,,,,,,,,,,,,,,,
293293,2022-09-25_21h37.56.102,vts_reward_expectancy,2022.2.4,Win32,59.68367651,Chrome,1504,1003,,,a,0.1608,1,194,1,0,4,4,2,1,1,0,0,0,0,0,0,1,triangle,star,,,,,,,,,,,,,,,,,,,,,,,,,,,,,,,,,,,,,,,,,,,,,,,,,,,,,,
293293,2022-09-25_21h37.56.102,vts_reward_expectancy,2022.2.4,Win32,59.68367651,Chrome,1504,1003,,,a,0.3881,1,195,1,0,5,5,3,1,0,1,0,0,1,0,0,0,circle,triangle,,,,,,,,,,,,,,,,,,,,,,,,,,,,,,,,,,,,,,,,,,,,,,,,,,,,,,
293293,2022-09-25_21h37.56.102,vts_reward_expectancy,2022.2.4,Win32,59.68367651,Chrome,1504,1003,,,a,1.3675,10,205,1,0,6,6,0,1,1,0,0,0,0,1,0,0,triangle,circle,,,,,,,,,,,,,,,,,,,,,,,,,,,,,,,,,,,,,,,,,,,,,,,,,,,,,,
293293,2022-09-25_21h37.56.102,vts_reward_expectancy,2022.2.4,Win32,59.68367651,Chrome,1504,1003,,,a,0.2891,10,215,1,0,7,7,8,1,0,0,1,0,0,0,0,1,hexagon,star,,,,,,,,,,,,,,,,,,,,,,,,,,,,,,,,,,,,,,,,,,,,,,,,,,,,,,
293293,2022-09-25_21h37.56.102,vts_reward_expectancy,2022.2.4,Win32,59.68367651,Chrome,1504,1003,,,a,0.4665,1,216,1,0,8,8,1,1,1,0,0,0,0,0,1,0,triangle,hexagon,,,,,,,,,,,,,,,,,,,,,,,,,,,,,,,,,,,,,,,,,,,,,,,,,,,,,,
293293,2022-09-25_21h37.56.102,vts_reward_expectancy,2022.2.4,Win32,59.68367651,Chrome,1504,1003,,,l,0.3741,1,217,1,0,9,9,11,1,0,0,0,1,0,0,1,0,star,hexagon,,,,,,,,,,,,,,,,,,,,,,,,,,,,,,,,,,,,,,,,,,,,,,,,,,,,,,
293293,2022-09-25_21h37.56.102,vts_reward_expectancy,2022.2.4,Win32,59.68367651,Chrome,1504,1003,,,a,2.918,10,227,1,0,10,10,7,1,0,0,1,0,0,1,0,0,hexagon,circle,,,,,,,,,,,,,,,,,,,,,,,,,,,,,,,,,,,,,,,,,,,,,,,,,,,,,,
293293,2022-09-25_21h37.56.102,vts_reward_expectancy,2022.2.4,Win32,59.68367651,Chrome,1504,1003,,,l,1.3164,1,228,1,0,11,11,9,1,0,0,0,1,1,0,0,0,star,triangle,,,,,,,,,,,,,,,,,,,,,,,,,,,,,,,,,,,,,,,,,,,,,,,,,,,,,,
293293,2022-09-25_21h37.56.102,vts_reward_expectancy,2022.2.4,Win32,59.68367651,Chrome,1504,1003,,,a,0.8523,1,229,1,1,0,12,6,1,0,0,1,0,1,0,0,0,hexagon,triangle,,,,,,,,,,,,,,,,,,,,,,,,,,,,,,,,,,,,,,,,,,,,,,,,,,,,,,
293293,2022-09-25_21h37.56.102,vts_reward_expectancy,2022.2.4,Win32,59.68367651,Chrome,1504,1003,,,a,0.6874,1,230,1,1,1,13,2,1,1,0,0,0,0,0,0,1,triangle,star,,,,,,,,,,,,,,,,,,,,,,,,,,,,,,,,,,,,,,,,,,,,,,,,,,,,,,
293293,2022-09-25_21h37.56.102,vts_reward_expectancy,2022.2.4,Win32,59.68367651,Chrome,1504,1003,,,l,0.2839,1,231,1,1,2,14,1,1,1,0,0,0,0,0,1,0,triangle,hexagon,,,,,,,,,,,,,,,,,,,,,,,,,,,,,,,,,,,,,,,,,,,,,,,,,,,,,,
293293,2022-09-25_21h37.56.102,vts_reward_expectancy,2022.2.4,Win32,59.68367651,Chrome,1504,1003,,,a,1.4745,1,232,1,1,3,15,5,1,0,1,0,0,0,0,0,1,circle,star,,,,,,,,,,,,,,,,,,,,,,,,,,,,,,,,,,,,,,,,,,,,,,,,,,,,,,
293293,2022-09-25_21h37.56.102,vts_reward_expectancy,2022.2.4,Win32,59.68367651,Chrome,1504,1003,,,l,0.5676,10,242,1,1,4,16,11,1,0,0,0,1,0,0,1,0,star,hexagon,,,,,,,,,,,,,,,,,,,,,,,,,,,,,,,,,,,,,,,,,,,,,,,,,,,,,,
293293,2022-09-25_21h37.56.102,vts_reward_expectancy,2022.2.4,Win32,59.68367651,Chrome,1504,1003,,,a,0.8437,10,252,1,1,5,17,7,1,0,0,1,0,0,1,0,0,hexagon,circle,,,,,,,,,,,,,,,,,,,,,,,,,,,,,,,,,,,,,,,,,,,,,,,,,,,,,,
293293,2022-09-25_21h37.56.102,vts_reward_expectancy,2022.2.4,Win32,59.68367651,Chrome,1504,1003,,,a,0.818,1,253,1,1,6,18,3,1,0,1,0,0,1,0,0,0,circle,triangle,,,,,,,,,,,,,,,,,,,,,,,,,,,,,,,,,,,,,,,,,,,,,,,,,,,,,,
293293,2022-09-25_21h37.56.102,vts_reward_expectancy,2022.2.4,Win32,59.68367651,Chrome,1504,1003,,,a,3.3121,1,254,1,1,7,19,10,1,0,0,0,1,0,1,0,0,star ,circle,,,,,,,,,,,,,,,,,,,,,,,,,,,,,,,,,,,,,,,,,,,,,,,,,,,,,,
293293,2022-09-25_21h37.56.102,vts_reward_expectancy,2022.2.4,Win32,59.68367651,Chrome,1504,1003,,,l,3.8852,1,255,1,1,8,20,8,1,0,0,1,0,0,0,0,1,hexagon,star,,,,,,,,,,,,,,,,,,,,,,,,,,,,,,,,,,,,,,,,,,,,,,,,,,,,,,
293293,2022-09-25_21h37.56.102,vts_reward_expectancy,2022.2.4,Win32,59.68367651,Chrome,1504,1003,,,a,1.1846,1,256,1,1,9,21,9,1,0,0,0,1,1,0,0,0,star,triangle,,,,,,,,,,,,,,,,,,,,,,,,,,,,,,,,,,,,,,,,,,,,,,,,,,,,,,
293293,2022-09-25_21h37.56.102,vts_reward_expectancy,2022.2.4,Win32,59.68367651,Chrome,1504,1003,,,a,3.2727,10,266,1,1,10,22,4,1,0,1,0,0,0,0,1,0,circle,hexagon,,,,,,,,,,,,,,,,,,,,,,,,,,,,,,,,,,,,,,,,,,,,,,,,,,,,,,
293293,2022-09-25_21h37.56.102,vts_reward_expectancy,2022.2.4,Win32,59.68367651,Chrome,1504,1003,,,l,1.2573,1,267,1,1,11,23,0,1,1,0,0,0,0,1,0,0,triangle,circle,,,,,,,,,,,,,,,,,,,,,,,,,,,,,,,,,,,,,,,,,,,,,,,,,,,,,,
293293,2022-09-25_21h37.56.102,vts_reward_expectancy,2022.2.4,Win32,59.68367651,Chrome,1504,1003,,,a,3.9347,10,277,1,2,0,24,6,1,0,0,1,0,1,0,0,0,hexagon,triangle,,,,,,,,,,,,,,,,,,,,,,,,,,,,,,,,,,,,,,,,,,,,,,,,,,,,,,
293293,2022-09-25_21h37.56.102,vts_reward_expectancy,2022.2.4,Win32,59.68367651,Chrome,1504,1003,,,l,0.9008,10,287,1,2,1,25,11,1,0,0,0,1,0,0,1,0,star,hexagon,,,,,,,,,,,,,,,,,,,,,,,,,,,,,,,,,,,,,,,,,,,,,,,,,,,,,,
293293,2022-09-25_21h37.56.102,vts_reward_expectancy,2022.2.4,Win32,59.68367651,Chrome,1504,1003,,,a,0.3512,10,297,1,2,2,26,0,1,1,0,0,0,0,1,0,0,triangle,circle,,,,,,,,,,,,,,,,,,,,,,,,,,,,,,,,,,,,,,,,,,,,,,,,,,,,,,
293293,2022-09-25_21h37.56.102,vts_reward_expectancy,2022.2.4,Win32,59.68367651,Chrome,1504,1003,,,l,0.3265,10,307,1,2,3,27,9,1,0,0,0,1,1,0,0,0,star,triangle,,,,,,,,,,,,,,,,,,,,,,,,,,,,,,,,,,,,,,,,,,,,,,,,,,,,,,
293293,2022-09-25_21h37.56.102,vts_reward_expectancy,2022.2.4,Win32,59.68367651,Chrome,1504,1003,,,a,0.2745,1,308,1,2,4,28,5,1,0,1,0,0,0,0,0,1,circle,star,,,,,,,,,,,,,,,,,,,,,,,,,,,,,,,,,,,,,,,,,,,,,,,,,,,,,,
293293,2022-09-25_21h37.56.102,vts_reward_expectancy,2022.2.4,Win32,59.68367651,Chrome,1504,1003,,,l,0.3048,10,318,1,2,5,29,1,1,1,0,0,0,0,0,1,0,triangle,hexagon,,,,,,,,,,,,,,,,,,,,,,,,,,,,,,,,,,,,,,,,,,,,,,,,,,,,,,
293293,2022-09-25_21h37.56.102,vts_reward_expectancy,2022.2.4,Win32,59.68367651,Chrome,1504,1003,,,a,0.3727,1,319,1,2,6,30,7,1,0,0,1,0,0,1,0,0,hexagon,circle,,,,,,,,,,,,,,,,,,,,,,,,,,,,,,,,,,,,,,,,,,,,,,,,,,,,,,
293293,2022-09-25_21h37.56.102,vts_reward_expectancy,2022.2.4,Win32,59.68367651,Chrome,1504,1003,,,l,0.3223,1,320,1,2,7,31,10,1,0,0,0,1,0,1,0,0,star ,circle,,,,,,,,,,,,,,,,,,,,,,,,,,,,,,,,,,,,,,,,,,,,,,,,,,,,,,
293293,2022-09-25_21h37.56.102,vts_reward_expectancy,2022.2.4,Win32,59.68367651,Chrome,1504,1003,,,a,0.3329,10,330,1,2,8,32,4,1,0,1,0,0,0,0,1,0,circle,hexagon,,,,,,,,,,,,,,,,,,,,,,,,,,,,,,,,,,,,,,,,,,,,,,,,,,,,,,
293293,2022-09-25_21h37.56.102,vts_reward_expectancy,2022.2.4,Win32,59.68367651,Chrome,1504,1003,,,l,0.1922,1,331,1,2,9,33,3,1,0,1,0,0,1,0,0,0,circle,triangle,,,,,,,,,,,,,,,,,,,,,,,,,,,,,,,,,,,,,,,,,,,,,,,,,,,,,,
293293,2022-09-25_21h37.56.102,vts_reward_expectancy,2022.2.4,Win32,59.68367651,Chrome,1504,1003,,,a,0.3157,1,332,1,2,10,34,2,1,1,0,0,0,0,0,0,1,triangle,star,,,,,,,,,,,,,,,,,,,,,,,,,,,,,,,,,,,,,,,,,,,,,,,,,,,,,,
293293,2022-09-25_21h37.56.102,vts_reward_expectancy,2022.2.4,Win32,59.68367651,Chrome,1504,1003,,,l,0.3681,1,333,1,2,11,35,8,1,0,0,1,0,0,0,0,1,hexagon,star,,,,,,,,,,,,,,,,,,,,,,,,,,,,,,,,,,,,,,,,,,,,,,,,,,,,,,
293293,2022-09-25_21h37.56.102,vts_reward_expectancy,2022.2.4,Win32,59.68367651,Chrome,1504,1003,,,a,0.9987,1,334,2,0,0,0,5,1,0,1,0,0,0,0,0,1,circle,star,,,,,,,,,,,,,,,,,,,,,,,,,,,,,,,,,,,,,,,,,,,,,,,,,,,,,,
293293,2022-09-25_21h37.56.102,vts_reward_expectancy,2022.2.4,Win32,59.68367651,Chrome,1504,1003,,,l,0.4015,1,335,2,0,1,1,3,1,0,1,0,0,1,0,0,0,circle,triangle,,,,,,,,,,,,,,,,,,,,,,,,,,,,,,,,,,,,,,,,,,,,,,,,,,,,,,
293293,2022-09-25_21h37.56.102,vts_reward_expectancy,2022.2.4,Win32,59.68367651,Chrome,1504,1003,,,l,0.4838,1,336,2,0,2,2,8,1,0,0,1,0,0,0,0,1,hexagon,star,,,,,,,,,,,,,,,,,,,,,,,,,,,,,,,,,,,,,,,,,,,,,,,,,,,,,,
293293,2022-09-25_21h37.56.102,vts_reward_expectancy,2022.2.4,Win32,59.68367651,Chrome,1504,1003,,,a,0.3554,10,346,2,0,3,3,6,1,0,0,1,0,1,0,0,0,hexagon,triangle,,,,,,,,,,,,,,,,,,,,,,,,,,,,,,,,,,,,,,,,,,,,,,,,,,,,,,
293293,2022-09-25_21h37.56.102,vts_reward_expectancy,2022.2.4,Win32,59.68367651,Chrome,1504,1003,,,l,0.3678,1,347,2,0,4,4,9,1,0,0,0,1,1,0,0,0,star,triangle,,,,,,,,,,,,,,,,,,,,,,,,,,,,,,,,,,,,,,,,,,,,,,,,,,,,,,
293293,2022-09-25_21h37.56.102,vts_reward_expectancy,2022.2.4,Win32,59.68367651,Chrome,1504,1003,,,a,0.3407,1,348,2,0,5,5,10,1,0,0,0,1,0,1,0,0,star ,circle,,,,,,,,,,,,,,,,,,,,,,,,,,,,,,,,,,,,,,,,,,,,,,,,,,,,,,
293293,2022-09-25_21h37.56.102,vts_reward_expectancy,2022.2.4,Win32,59.68367651,Chrome,1504,1003,,,l,0.3494,10,358,2,0,6,6,0,1,1,0,0,0,0,1,0,0,triangle,circle,,,,,,,,,,,,,,,,,,,,,,,,,,,,,,,,,,,,,,,,,,,,,,,,,,,,,,
293293,2022-09-25_21h37.56.102,vts_reward_expectancy,2022.2.4,Win32,59.68367651,Chrome,1504,1003,,,a,0.8684,10,368,2,0,7,7,4,1,0,1,0,0,0,0,1,0,circle,hexagon,,,,,,,,,,,,,,,,,,,,,,,,,,,,,,,,,,,,,,,,,,,,,,,,,,,,,,
293293,2022-09-25_21h37.56.102,vts_reward_expectancy,2022.2.4,Win32,59.68367651,Chrome,1504,1003,,,l,1.2841,10,378,2,0,8,8,1,1,1,0,0,0,0,0,1,0,triangle,hexagon,,,,,,,,,,,,,,,,,,,,,,,,,,,,,,,,,,,,,,,,,,,,,,,,,,,,,,
293293,2022-09-25_21h37.56.102,vts_reward_expectancy,2022.2.4,Win32,59.68367651,Chrome,1504,1003,,,a,0.7498,10,388,2,0,9,9,11,1,0,0,0,1,0,0,1,0,star,hexagon,,,,,,,,,,,,,,,,,,,,,,,,,,,,,,,,,,,,,,,,,,,,,,,,,,,,,,
293293,2022-09-25_21h37.56.102,vts_reward_expectancy,2022.2.4,Win32,59.68367651,Chrome,1504,1003,,,l,0.4519,10,398,2,0,10,10,7,1,0,0,1,0,0,1,0,0,hexagon,circle,,,,,,,,,,,,,,,,,,,,,,,,,,,,,,,,,,,,,,,,,,,,,,,,,,,,,,
293293,2022-09-25_21h37.56.102,vts_reward_expectancy,2022.2.4,Win32,59.68367651,Chrome,1504,1003,,,a,0.3999,10,408,2,0,11,11,2,1,1,0,0,0,0,0,0,1,triangle,star,,,,,,,,,,,,,,,,,,,,,,,,,,,,,,,,,,,,,,,,,,,,,,,,,,,,,,
293293,2022-09-25_21h37.56.102,vts_reward_expectancy,2022.2.4,Win32,59.68367651,Chrome,1504,1003,,,l,0.3151,1,409,2,1,0,12,5,1,0,1,0,0,0,0,0,1,circle,star,,,,,,,,,,,,,,,,,,,,,,,,,,,,,,,,,,,,,,,,,,,,,,,,,,,,,,
293293,2022-09-25_21h37.56.102,vts_reward_expectancy,2022.2.4,Win32,59.68367651,Chrome,1504,1003,,,a,0.3355,1,410,2,1,1,13,3,1,0,1,0,0,1,0,0,0,circle,triangle,,,,,,,,,,,,,,,,,,,,,,,,,,,,,,,,,,,,,,,,,,,,,,,,,,,,,,
293293,2022-09-25_21h37.56.102,vts_reward_expectancy,2022.2.4,Win32,59.68367651,Chrome,1504,1003,,,l,0.1997,1,411,2,1,2,14,7,1,0,0,1,0,0,1,0,0,hexagon,circle,,,,,,,,,,,,,,,,,,,,,,,,,,,,,,,,,,,,,,,,,,,,,,,,,,,,,,
293293,2022-09-25_21h37.56.102,vts_reward_expectancy,2022.2.4,Win32,59.68367651,Chrome,1504,1003,,,l,0.3097,10,421,2,1,3,15,11,1,0,0,0,1,0,0,1,0,star,hexagon,,,,,,,,,,,,,,,,,,,,,,,,,,,,,,,,,,,,,,,,,,,,,,,,,,,,,,
293293,2022-09-25_21h37.56.102,vts_reward_expectancy,2022.2.4,Win32,59.68367651,Chrome,1504,1003,,,a,0.255,1,422,2,1,4,16,0,1,1,0,0,0,0,1,0,0,triangle,circle,,,,,,,,,,,,,,,,,,,,,,,,,,,,,,,,,,,,,,,,,,,,,,,,,,,,,,
293293,2022-09-25_21h37.56.102,vts_reward_expectancy,2022.2.4,Win32,59.68367651,Chrome,1504,1003,,,l,0.5058,1,423,2,1,5,17,8,1,0,0,1,0,0,0,0,1,hexagon,star,,,,,,,,,,,,,,,,,,,,,,,,,,,,,,,,,,,,,,,,,,,,,,,,,,,,,,
293293,2022-09-25_21h37.56.102,vts_reward_expectancy,2022.2.4,Win32,59.68367651,Chrome,1504,1003,,,a,0.4079,10,433,2,1,6,18,4,1,0,1,0,0,0,0,1,0,circle,hexagon,,,,,,,,,,,,,,,,,,,,,,,,,,,,,,,,,,,,,,,,,,,,,,,,,,,,,,
293293,2022-09-25_21h37.56.102,vts_reward_expectancy,2022.2.4,Win32,59.68367651,Chrome,1504,1003,,,l,0.4282,10,443,2,1,7,19,2,1,1,0,0,0,0,0,0,1,triangle,star,,,,,,,,,,,,,,,,,,,,,,,,,,,,,,,,,,,,,,,,,,,,,,,,,,,,,,
293293,2022-09-25_21h37.56.102,vts_reward_expectancy,2022.2.4,Win32,59.68367651,Chrome,1504,1003,,,a,0.4364,10,453,2,1,8,20,9,1,0,0,0,1,1,0,0,0,star,triangle,,,,,,,,,,,,,,,,,,,,,,,,,,,,,,,,,,,,,,,,,,,,,,,,,,,,,,
293293,2022-09-25_21h37.56.102,vts_reward_expectancy,2022.2.4,Win32,59.68367651,Chrome,1504,1003,,,l,0.5509,10,463,2,1,9,21,10,1,0,0,0,1,0,1,0,0,star ,circle,,,,,,,,,,,,,,,,,,,,,,,,,,,,,,,,,,,,,,,,,,,,,,,,,,,,,,
293293,2022-09-25_21h37.56.102,vts_reward_expectancy,2022.2.4,Win32,59.68367651,Chrome,1504,1003,,,a,0.423,10,473,2,1,10,22,1,1,1,0,0,0,0,0,1,0,triangle,hexagon,,,,,,,,,,,,,,,,,,,,,,,,,,,,,,,,,,,,,,,,,,,,,,,,,,,,,,
293293,2022-09-25_21h37.56.102,vts_reward_expectancy,2022.2.4,Win32,59.68367651,Chrome,1504,1003,,,l,0.3395,1,474,2,1,11,23,6,1,0,0,1,0,1,0,0,0,hexagon,triangle,,,,,,,,,,,,,,,,,,,,,,,,,,,,,,,,,,,,,,,,,,,,,,,,,,,,,,
293293,2022-09-25_21h37.56.102,vts_reward_expectancy,2022.2.4,Win32,59.68367651,Chrome,1504,1003,,,a,0.46,1,475,2,2,0,24,4,1,0,1,0,0,0,0,1,0,circle,hexagon,,,,,,,,,,,,,,,,,,,,,,,,,,,,,,,,,,,,,,,,,,,,,,,,,,,,,,
293293,2022-09-25_21h37.56.102,vts_reward_expectancy,2022.2.4,Win32,59.68367651,Chrome,1504,1003,,,l,0.2669,10,485,2,2,1,25,7,1,0,0,1,0,0,1,0,0,hexagon,circle,,,,,,,,,,,,,,,,,,,,,,,,,,,,,,,,,,,,,,,,,,,,,,,,,,,,,,
293293,2022-09-25_21h37.56.102,vts_reward_expectancy,2022.2.4,Win32,59.68367651,Chrome,1504,1003,,,a,0.3356,1,486,2,2,2,26,1,1,1,0,0,0,0,0,1,0,triangle,hexagon,,,,,,,,,,,,,,,,,,,,,,,,,,,,,,,,,,,,,,,,,,,,,,,,,,,,,,
293293,2022-09-25_21h37.56.102,vts_reward_expectancy,2022.2.4,Win32,59.68367651,Chrome,1504,1003,,,l,0.3363,1,487,2,2,3,27,3,1,0,1,0,0,1,0,0,0,circle,triangle,,,,,,,,,,,,,,,,,,,,,,,,,,,,,,,,,,,,,,,,,,,,,,,,,,,,,,
293293,2022-09-25_21h37.56.102,vts_reward_expectancy,2022.2.4,Win32,59.68367651,Chrome,1504,1003,,,a,0.3156,1,488,2,2,4,28,0,1,1,0,0,0,0,1,0,0,triangle,circle,,,,,,,,,,,,,,,,,,,,,,,,,,,,,,,,,,,,,,,,,,,,,,,,,,,,,,
293293,2022-09-25_21h37.56.102,vts_reward_expectancy,2022.2.4,Win32,59.68367651,Chrome,1504,1003,,,l,0.3754,10,498,2,2,5,29,6,1,0,0,1,0,1,0,0,0,hexagon,triangle,,,,,,,,,,,,,,,,,,,,,,,,,,,,,,,,,,,,,,,,,,,,,,,,,,,,,,
293293,2022-09-25_21h37.56.102,vts_reward_expectancy,2022.2.4,Win32,59.68367651,Chrome,1504,1003,,,a,0.3385,1,499,2,2,6,30,8,1,0,0,1,0,0,0,0,1,hexagon,star,,,,,,,,,,,,,,,,,,,,,,,,,,,,,,,,,,,,,,,,,,,,,,,,,,,,,,
293293,2022-09-25_21h37.56.102,vts_reward_expectancy,2022.2.4,Win32,59.68367651,Chrome,1504,1003,,,l,0.4028,1,500,2,2,7,31,10,1,0,0,0,1,0,1,0,0,star ,circle,,,,,,,,,,,,,,,,,,,,,,,,,,,,,,,,,,,,,,,,,,,,,,,,,,,,,,
293293,2022-09-25_21h37.56.102,vts_reward_expectancy,2022.2.4,Win32,59.68367651,Chrome,1504,1003,,,l,0.2754,1,501,2,2,8,32,9,1,0,0,0,1,1,0,0,0,star,triangle,,,,,,,,,,,,,,,,,,,,,,,,,,,,,,,,,,,,,,,,,,,,,,,,,,,,,,
293293,2022-09-25_21h37.56.102,vts_reward_expectancy,2022.2.4,Win32,59.68367651,Chrome,1504,1003,,,l,0.386,10,511,2,2,9,33,11,1,0,0,0,1,0,0,1,0,star,hexagon,,,,,,,,,,,,,,,,,,,,,,,,,,,,,,,,,,,,,,,,,,,,,,,,,,,,,,
293293,2022-09-25_21h37.56.102,vts_reward_expectancy,2022.2.4,Win32,59.68367651,Chrome,1504,1003,,,a,0.2837,10,521,2,2,10,34,5,1,0,1,0,0,0,0,0,1,circle,star,,,,,,,,,,,,,,,,,,,,,,,,,,,,,,,,,,,,,,,,,,,,,,,,,,,,,,
293293,2022-09-25_21h37.56.102,vts_reward_expectancy,2022.2.4,Win32,59.68367651,Chrome,1504,1003,,,l,0.308,10,531,2,2,11,35,2,1,1,0,0,0,0,0,0,1,triangle,star,,,,,,,,,,,,,,,,,,,,,,,,,,,,,,,,,,,,,,,,,,,,,,,,,,,,,,
293293,2022-09-25_21h37.56.102,vts_reward_expectancy,2022.2.4,Win32,59.68367651,Chrome,1504,1003,,,,,,,,,,,,,,,,,,,,,,,W,167,circle,0,0,,0,0,0,0,0,1,,,,,,,,,,,,,,,,,,,,,,,,,,,,,,,,,,,,,,,,,,
293293,2022-09-25_21h37.56.102,vts_reward_expectancy,2022.2.4,Win32,59.68367651,Chrome,1504,1003,,,,,,,,,,,,,,,,,,,,,,,S,146,triangle,1,1,f,0,1,0,1,0,1,1.2155,,,,,,,,,,,,,,,,,,,,,,,,,,,,,,,,,,,,,,,,,
293293,2022-09-25_21h37.56.102,vts_reward_expectancy,2022.2.4,Win32,59.68367651,Chrome,1504,1003,,,,,,,,,,,,,,,,,,,,,,,Y,174,star,1,0,f,0,2,0,2,0,1,0.7621,,,,,,,,,,,,,,,,,,,,,,,,,,,,,,,,,,,,,,,,,
293293,2022-09-25_21h37.56.102,vts_reward_expectancy,2022.2.4,Win32,59.68367651,Chrome,1504,1003,,,,,,,,,,,,,,,,,,,,,,,D,181,hexagon,1,0,d,0,3,0,3,0,1,0.65,,,,,,,,,,,,,,,,,,,,,,,,,,,,,,,,,,,,,,,,,
293293,2022-09-25_21h37.56.102,vts_reward_expectancy,2022.2.4,Win32,59.68367651,Chrome,1504,1003,,,,,,,,,,,,,,,,,,,,,,,F,132,circle,1,0,d,0,4,0,4,0,1,0.9849,,,,,,,,,,,,,,,,,,,,,,,,,,,,,,,,,,,,,,,,,
293293,2022-09-25_21h37.56.102,vts_reward_expectancy,2022.2.4,Win32,59.68367651,Chrome,1504,1003,,,,,,,,,,,,,,,,,,,,,,,U,139,triangle,1,0,f,0,5,0,5,0,1,0.5492,,,,,,,,,,,,,,,,,,,,,,,,,,,,,,,,,,,,,,,,,
293293,2022-09-25_21h37.56.102,vts_reward_expectancy,2022.2.4,Win32,59.68367651,Chrome,1504,1003,,,,,,,,,,,,,,,,,,,,,,,H,160,star,0,0,f,0,6,0,6,0,1,1.0524,,,,,,,,,,,,,,,,,,,,,,,,,,,,,,,,,,,,,,,,,
293293,2022-09-25_21h37.56.102,vts_reward_expectancy,2022.2.4,Win32,59.68367651,Chrome,1504,1003,,,,,,,,,,,,,,,,,,,,,,,B,125,hexagon,1,1,d,0,7,0,7,0,1,0.6994,,,,,,,,,,,,,,,,,,,,,,,,,,,,,,,,,,,,,,,,,
293293,2022-09-25_21h37.56.102,vts_reward_expectancy,2022.2.4,Win32,59.68367651,Chrome,1504,1003,,,,,,,,,,,,,,,,,,,,,,,W,167,hexagon,1,0,f,0,8,0,8,0,1,0.6265,,,,,,,,,,,,,,,,,,,,,,,,,,,,,,,,,,,,,,,,,
293293,2022-09-25_21h37.56.102,vts_reward_expectancy,2022.2.4,Win32,59.68367651,Chrome,1504,1003,,,,,,,,,,,,,,,,,,,,,,,S,146,triangle,1,0,f,0,9,0,9,0,1,1.124,,,,,,,,,,,,,,,,,,,,,,,,,,,,,,,,,,,,,,,,,
293293,2022-09-25_21h37.56.102,vts_reward_expectancy,2022.2.4,Win32,59.68367651,Chrome,1504,1003,,,,,,,,,,,,,,,,,,,,,,,H,139,triangle,0,0,f,1,0,0,0,0,1,1.0484,,,,,,,,,,,,,,,,,,,,,,,,,,,,,,,,,,,,,,,,,
293293,2022-09-25_21h37.56.102,vts_reward_expectancy,2022.2.4,Win32,59.68367651,Chrome,1504,1003,,,,,,,,,,,,,,,,,,,,,,,W,132,circle,1,1,f,1,1,0,1,0,1,1.4001,,,,,,,,,,,,,,,,,,,,,,,,,,,,,,,,,,,,,,,,,
293293,2022-09-25_21h37.56.102,vts_reward_expectancy,2022.2.4,Win32,59.68367651,Chrome,1504,1003,,,,,,,,,,,,,,,,,,,,,,,S,160,star,1,0,f,1,2,0,2,0,1,0.6904,,,,,,,,,,,,,,,,,,,,,,,,,,,,,,,,,,,,,,,,,
293293,2022-09-25_21h37.56.102,vts_reward_expectancy,2022.2.4,Win32,59.68367651,Chrome,1504,1003,,,,,,,,,,,,,,,,,,,,,,,F,146,hexagon,1,0,d,1,3,0,3,0,1,0.9373,,,,,,,,,,,,,,,,,,,,,,,,,,,,,,,,,,,,,,,,,
293293,2022-09-25_21h37.56.102,vts_reward_expectancy,2022.2.4,Win32,59.68367651,Chrome,1504,1003,,,,,,,,,,,,,,,,,,,,,,,Y,181,triangle,1,0,f,1,4,0,4,0,1,0.8372,,,,,,,,,,,,,,,,,,,,,,,,,,,,,,,,,,,,,,,,,
293293,2022-09-25_21h37.56.102,vts_reward_expectancy,2022.2.4,Win32,59.68367651,Chrome,1504,1003,,,,,,,,,,,,,,,,,,,,,,,D,125,circle,1,0,d,1,5,0,5,0,1,0.851,,,,,,,,,,,,,,,,,,,,,,,,,,,,,,,,,,,,,,,,,
293293,2022-09-25_21h37.56.102,vts_reward_expectancy,2022.2.4,Win32,59.68367651,Chrome,1504,1003,,,,,,,,,,,,,,,,,,,,,,,U,174,star,1,0,f,1,6,0,6,0,1,0.6491,,,,,,,,,,,,,,,,,,,,,,,,,,,,,,,,,,,,,,,,,
293293,2022-09-25_21h37.56.102,vts_reward_expectancy,2022.2.4,Win32,59.68367651,Chrome,1504,1003,,,,,,,,,,,,,,,,,,,,,,,B,167,hexagon,1,0,d,1,7,0,7,0,1,0.7505,,,,,,,,,,,,,,,,,,,,,,,,,,,,,,,,,,,,,,,,,
293293,2022-09-25_21h37.56.102,vts_reward_expectancy,2022.2.4,Win32,59.68367651,Chrome,1504,1003,,,,,,,,,,,,,,,,,,,,,,,H,139,hexagon,0,0,f,1,8,0,8,0,1,0.7168,,,,,,,,,,,,,,,,,,,,,,,,,,,,,,,,,,,,,,,,,
293293,2022-09-25_21h37.56.102,vts_reward_expectancy,2022.2.4,Win32,59.68367651,Chrome,1504,1003,,,,,,,,,,,,,,,,,,,,,,,W,132,triangle,1,1,f,1,9,0,9,0,1,0.5988,,,,,,,,,,,,,,,,,,,,,,,,,,,,,,,,,,,,,,,,,
293293,2022-09-25_21h37.56.102,vts_reward_expectancy,2022.2.4,Win32,59.68367651,Chrome,1504,1003,,,,,,,,,,,,,,,,,,,,,,,F,132,hexagon,1,0,d,2,0,0,0,0,1,0.8829,,,,,,,,,,,,,,,,,,,,,,,,,,,,,,,,,,,,,,,,,
293293,2022-09-25_21h37.56.102,vts_reward_expectancy,2022.2.4,Win32,59.68367651,Chrome,1504,1003,,,,,,,,,,,,,,,,,,,,,,,D,125,circle,1,0,d,2,1,0,1,0,1,0.5501,,,,,,,,,,,,,,,,,,,,,,,,,,,,,,,,,,,,,,,,,
293293,2022-09-25_21h37.56.102,vts_reward_expectancy,2022.2.4,Win32,59.68367651,Chrome,1504,1003,,,,,,,,,,,,,,,,,,,,,,,S,181,triangle,1,0,f,2,2,0,2,0,1,0.7072,,,,,,,,,,,,,,,,,,,,,,,,,,,,,,,,,,,,,,,,,
293293,2022-09-25_21h37.56.102,vts_reward_expectancy,2022.2.4,Win32,59.68367651,Chrome,1504,1003,,,,,,,,,,,,,,,,,,,,,,,H,167,star,0,0,f,2,3,0,3,0,1,0.7099,,,,,,,,,,,,,,,,,,,,,,,,,,,,,,,,,,,,,,,,,
293293,2022-09-25_21h37.56.102,vts_reward_expectancy,2022.2.4,Win32,59.68367651,Chrome,1504,1003,,,,,,,,,,,,,,,,,,,,,,,W,146,hexagon,1,1,f,2,4,0,4,0,1,0.9681,,,,,,,,,,,,,,,,,,,,,,,,,,,,,,,,,,,,,,,,,
293293,2022-09-25_21h37.56.102,vts_reward_expectancy,2022.2.4,Win32,59.68367651,Chrome,1504,1003,,,,,,,,,,,,,,,,,,,,,,,B,139,circle,1,0,d,2,5,0,5,0,1,0.5882,,,,,,,,,,,,,,,,,,,,,,,,,,,,,,,,,,,,,,,,,
293293,2022-09-25_21h37.56.102,vts_reward_expectancy,2022.2.4,Win32,59.68367651,Chrome,1504,1003,,,,,,,,,,,,,,,,,,,,,,,U,174,triangle,1,0,f,2,6,0,6,0,1,0.7065,,,,,,,,,,,,,,,,,,,,,,,,,,,,,,,,,,,,,,,,,
293293,2022-09-25_21h37.56.102,vts_reward_expectancy,2022.2.4,Win32,59.68367651,Chrome,1504,1003,,,,,,,,,,,,,,,,,,,,,,,Y,160,star,1,0,f,2,7,0,7,0,1,0.6324,,,,,,,,,,,,,,,,,,,,,,,,,,,,,,,,,,,,,,,,,
293293,2022-09-25_21h37.56.102,vts_reward_expectancy,2022.2.4,Win32,59.68367651,Chrome,1504,1003,,,,,,,,,,,,,,,,,,,,,,,F,132,circle,0,0,f,2,8,0,8,0,1,0.951,,,,,,,,,,,,,,,,,,,,,,,,,,,,,,,,,,,,,,,,,
293293,2022-09-25_21h37.56.102,vts_reward_expectancy,2022.2.4,Win32,59.68367651,Chrome,1504,1003,,,,,,,,,,,,,,,,,,,,,,,D,125,hexagon,1,1,d,2,9,0,9,0,1,0.7829,,,,,,,,,,,,,,,,,,,,,,,,,,,,,,,,,,,,,,,,,
293293,2022-09-25_21h37.56.102,vts_reward_expectancy,2022.2.4,Win32,59.68367651,Chrome,1504,1003,,,,,,,,,,,,,,,,,,,,,,,S,167,triangle,1,0,,3,,,,,,,k,0.682,0,0,0,0,1,,,,,,,,,,,,,,,,,,,,,,,,,,,,,,,,,,
293293,2022-09-25_21h37.56.102,vts_reward_expectancy,2022.2.4,Win32,59.68367651,Chrome,1504,1003,,,,,,,,,,,,,,,,,,,,,,,B,132,circle,1,0,,3,,,,,,,j,0.5567,1,0,1,0,1,,,,,,,,,,,,,,,,,,,,,,,,,,,,,,,,,,
293293,2022-09-25_21h37.56.102,vts_reward_expectancy,2022.2.4,Win32,59.68367651,Chrome,1504,1003,,,,,,,,,,,,,,,,,,,,,,,U,146,hexagon,1,0,,3,,,,,,,j,1.2175,2,0,2,0,1,,,,,,,,,,,,,,,,,,,,,,,,,,,,,,,,,,
293293,2022-09-25_21h37.56.102,vts_reward_expectancy,2022.2.4,Win32,59.68367651,Chrome,1504,1003,,,,,,,,,,,,,,,,,,,,,,,Y,174,star,1,0,,3,,,,,,,k,0.5495,3,0,3,0,1,,,,,,,,,,,,,,,,,,,,,,,,,,,,,,,,,,
293293,2022-09-25_21h37.56.102,vts_reward_expectancy,2022.2.4,Win32,59.68367651,Chrome,1504,1003,,,,,,,,,,,,,,,,,,,,,,,W,160,triangle,1,0,,3,,,,,,,k,0.6754,4,0,4,0,1,,,,,,,,,,,,,,,,,,,,,,,,,,,,,,,,,,
293293,2022-09-25_21h37.56.102,vts_reward_expectancy,2022.2.4,Win32,59.68367651,Chrome,1504,1003,,,,,,,,,,,,,,,,,,,,,,,F,139,circle,1,0,,3,,,,,,,j,0.7498,5,0,5,0,1,,,,,,,,,,,,,,,,,,,,,,,,,,,,,,,,,,
293293,2022-09-25_21h37.56.102,vts_reward_expectancy,2022.2.4,Win32,59.68367651,Chrome,1504,1003,,,,,,,,,,,,,,,,,,,,,,,H,181,hexagon,1,0,,3,,,,,,,k,0.5331,6,0,6,0,1,,,,,,,,,,,,,,,,,,,,,,,,,,,,,,,,,,
293293,2022-09-25_21h37.56.102,vts_reward_expectancy,2022.2.4,Win32,59.68367651,Chrome,1504,1003,,,,,,,,,,,,,,,,,,,,,,,D,125,star,1,0,,3,,,,,,,j,0.6164,7,0,7,0,1,,,,,,,,,,,,,,,,,,,,,,,,,,,,,,,,,,
293293,2022-09-25_21h37.56.102,vts_reward_expectancy,2022.2.4,Win32,59.68367651,Chrome,1504,1003,,,,,,,,,,,,,,,,,,,,,,,S,167,triangle,1,0,,3,,,,,,,k,0.7149,8,0,8,0,1,,,,,,,,,,,,,,,,,,,,,,,,,,,,,,,,,,
293293,2022-09-25_21h37.56.102,vts_reward_expectancy,2022.2.4,Win32,59.68367651,Chrome,1504,1003,,,,,,,,,,,,,,,,,,,,,,,B,132,circle,1,0,,3,,,,,,,j,0.4655,9,0,9,0,1,,,,,,,,,,,,,,,,,,,,,,,,,,,,,,,,,,
293293,2022-09-25_21h37.56.102,vts_reward_expectancy,2022.2.4,Win32,59.68367651,Chrome,1504,1003,,,,,0,531,,,,,,,,,,,,,,,,,H,167,circle,0,0,,4,,,,,,,,,,,,,,-1,letter,NA,f,1.7702,vtsPrac,0,0,0,0,1,,,,,,,,,,,,,,,,,,,,,,,
293293,2022-09-25_21h37.56.102,vts_reward_expectancy,2022.2.4,Win32,59.68367651,Chrome,1504,1003,,,,,0,531,,,,,,,,,,,,,,,,,U,139,star,0,1,,4,,,,,,,,,,,,,,switch,number,NA,k,1.8313,vtsPrac,1,0,1,0,1,,,,,,,,,,,,,,,,,,,,,,,
293293,2022-09-25_21h37.56.102,vts_reward_expectancy,2022.2.4,Win32,59.68367651,Chrome,1504,1003,,,,,0,531,,,,,,,,,,,,,,,,,W,160,circle,1,1,,4,,,,,,,,,,,,,,switch,letter,lettSwt,f,1.7574,vtsPrac,2,0,2,0,1,,,,,,,,,,,,,,,,,,,,,,,
293293,2022-09-25_21h37.56.102,vts_reward_expectancy,2022.2.4,Win32,59.68367651,Chrome,1504,1003,,,,,0,531,,,,,,,,,,,,,,,,,B,125,star,0,0,,4,,,,,,,,,,,,,,switch,number,NA,k,1.3838,vtsPrac,3,0,3,0,1,,,,,,,,,,,,,,,,,,,,,,,
293293,2022-09-25_21h37.56.102,vts_reward_expectancy,2022.2.4,Win32,59.68367651,Chrome,1504,1003,,,,,0,531,,,,,,,,,,,,,,,,,H,167,hexagon,0,1,,4,,,,,,,,,,,,,,switch,letter,NA,f,0.6218,vtsPrac,4,0,4,0,1,,,,,,,,,,,,,,,,,,,,,,,
293293,2022-09-25_21h37.56.102,vts_reward_expectancy,2022.2.4,Win32,59.68367651,Chrome,1504,1003,,,,,0,531,,,,,,,,,,,,,,,,,U,139,star,1,1,,4,,,,,,,,,,,,,,repeat,letter,lettRpt,f,0.8524,vtsPrac,5,0,5,0,1,,,,,,,,,,,,,,,,,,,,,,,
293293,2022-09-25_21h37.56.102,vts_reward_expectancy,2022.2.4,Win32,59.68367651,Chrome,1504,1003,,,,,0,531,,,,,,,,,,,,,,,,,W,160,circle,1,0,,4,,,,,,,,,,,,,,repeat,letter,lettRpt,f,1.1891,vtsPrac,6,0,6,0,1,,,,,,,,,,,,,,,,,,,,,,,
293293,2022-09-25_21h37.56.102,vts_reward_expectancy,2022.2.4,Win32,59.68367651,Chrome,1504,1003,,,,,0,531,,,,,,,,,,,,,,,,,B,125,star,1,0,,4,,,,,,,,,,,,,,repeat,letter,lettRpt,d,1.149,vtsPrac,7,0,7,0,1,,,,,,,,,,,,,,,,,,,,,,,
293293,2022-09-25_21h37.56.102,vts_reward_expectancy,2022.2.4,Win32,59.68367651,Chrome,1504,1003,,,,,0,531,,,,,,,,,,,,,,,,,D,146,hexagon,1,0,,4,,,,,,,,,,,,,,repeat,letter,lettRpt,d,1.2306,vtsPrac,8,0,8,0,1,,,,,,,,,,,,,,,,,,,,,,,
293293,2022-09-25_21h37.56.102,vts_reward_expectancy,2022.2.4,Win32,59.68367651,Chrome,1504,1003,,,,,0,531,,,,,,,,,,,,,,,,,S,125,triangle,1,0,,4,,,,,,,,,,,,,,repeat,letter,lettRpt,f,0.8672,vtsPrac,9,0,9,0,1,,,,,,,,,,,,,,,,,,,,,,,
293293,2022-09-25_21h37.56.102,vts_reward_expectancy,2022.2.4,Win32,59.68367651,Chrome,1504,1003,,,,,0,531,,,,,,,,,,,,,,,,,B,174,triangle,1,0,,4,,,,,,,,,,,,,,repeat,letter,lettRpt,d,0.9755,vtsPrac,10,0,10,0,1,,,,,,,,,,,,,,,,,,,,,,,
293293,2022-09-25_21h37.56.102,vts_reward_expectancy,2022.2.4,Win32,59.68367651,Chrome,1504,1003,,,,,0,531,,,,,,,,,,,,,,,,,F,132,hexagon,0,0,,4,,,,,,,,,,,,,,repeat,letter,NA,f,1.0174,vtsPrac,11,0,11,0,1,,,,,,,,,,,,,,,,,,,,,,,
293293,2022-09-25_21h37.56.102,vts_reward_expectancy,2022.2.4,Win32,59.68367651,Chrome,1504,1003,,,,,0,531,,,,,,,,,,,,,,,,,D,132,triangle,1,1,,4,,,,,,,,,,,,,,repeat,letter,lettRpt,d,0.7375,vtsPrac,12,0,12,0,1,,,,,,,,,,,,,,,,,,,,,,,
293293,2022-09-25_21h37.56.102,vts_reward_expectancy,2022.2.4,Win32,59.68367651,Chrome,1504,1003,,,,,0,531,,,,,,,,,,,,,,,,,S,139,circle,1,0,,4,,,,,,,,,,,,,,repeat,letter,lettRpt,f,1.16,vtsPrac,13,0,13,0,1,,,,,,,,,,,,,,,,,,,,,,,
293293,2022-09-25_21h37.56.102,vts_reward_expectancy,2022.2.4,Win32,59.68367651,Chrome,1504,1003,,,,,0,531,,,,,,,,,,,,,,,,,U,160,triangle,1,0,,4,,,,,,,,,,,,,,repeat,letter,lettRpt,f,1.1657,vtsPrac,14,0,14,0,1,,,,,,,,,,,,,,,,,,,,,,,
293293,2022-09-25_21h37.56.102,vts_reward_expectancy,2022.2.4,Win32,59.68367651,Chrome,1504,1003,,,,,0,531,,,,,,,,,,,,,,,,,W,181,circle,1,0,,4,,,,,,,,,,,,,,repeat,letter,lettRpt,f,0.8513,vtsPrac,15,0,15,0,1,,,,,,,,,,,,,,,,,,,,,,,
293293,2022-09-25_21h37.56.102,vts_reward_expectancy,2022.2.4,Win32,59.68367651,Chrome,1504,1003,,,,,0,531,,,,,,,,,,,,,,,,,S,174,hexagon,1,0,,5,,,,,,,,,,,,,,switch,number,numSwt,k,1.1507,vtsPrac,0,0,0,0,1,,,,,,,,,,,,,,,,,,,,,,,
293293,2022-09-25_21h37.56.102,vts_reward_expectancy,2022.2.4,Win32,59.68367651,Chrome,1504,1003,,,,,0,531,,,,,,,,,,,,,,,,,Y,167,triangle,1,0,,5,,,,,,,,,,,,,,repeat,number,numRpt,k,0.8826,vtsPrac,1,0,1,0,1,,,,,,,,,,,,,,,,,,,,,,,
293293,2022-09-25_21h37.56.102,vts_reward_expectancy,2022.2.4,Win32,59.68367651,Chrome,1504,1003,,,,,0,531,,,,,,,,,,,,,,,,,B,160,hexagon,1,0,,5,,,,,,,,,,,,,,switch,letter,lettSwt,d,0.6253,vtsPrac,2,0,2,0,1,,,,,,,,,,,,,,,,,,,,,,,
293293,2022-09-25_21h37.56.102,vts_reward_expectancy,2022.2.4,Win32,59.68367651,Chrome,1504,1003,,,,,0,531,,,,,,,,,,,,,,,,,W,139,triangle,1,0,,5,,,,,,,,,,,,,,switch,number,numSwt,j,0.8486,vtsPrac,3,0,3,0,1,,,,,,,,,,,,,,,,,,,,,,,
293293,2022-09-25_21h37.56.102,vts_reward_expectancy,2022.2.4,Win32,59.68367651,Chrome,1504,1003,,,,,0,531,,,,,,,,,,,,,,,,,S,174,star,1,0,,5,,,,,,,,,,,,,,repeat,number,numRpt,k,0.5325,vtsPrac,4,0,4,0,1,,,,,,,,,,,,,,,,,,,,,,,
293293,2022-09-25_21h37.56.102,vts_reward_expectancy,2022.2.4,Win32,59.68367651,Chrome,1504,1003,,,,,0,531,,,,,,,,,,,,,,,,,Y,167,circle,1,0,,5,,,,,,,,,,,,,,repeat,number,numRpt,k,1.2832,vtsPrac,5,0,5,0,1,,,,,,,,,,,,,,,,,,,,,,,
293293,2022-09-25_21h37.56.102,vts_reward_expectancy,2022.2.4,Win32,59.68367651,Chrome,1504,1003,,,,,0,531,,,,,,,,,,,,,,,,,B,160,triangle,1,0,,5,,,,,,,,,,,,,,repeat,number,numRpt,k,0.7135,vtsPrac,6,0,6,0,1,,,,,,,,,,,,,,,,,,,,,,,
293293,2022-09-25_21h37.56.102,vts_reward_expectancy,2022.2.4,Win32,59.68367651,Chrome,1504,1003,,,,,0,531,,,,,,,,,,,,,,,,,W,139,circle,1,0,,5,,,,,,,,,,,,,,switch,letter,lettSwt,f,1.2408,vtsPrac,7,0,7,0,1,,,,,,,,,,,,,,,,,,,,,,,
293293,2022-09-25_21h37.56.102,vts_reward_expectancy,2022.2.4,Win32,59.68367651,Chrome,1504,1003,,,,,0,531,,,,,,,,,,,,,,,,,H,160,circle,0,0,,5,,,,,,,,,,,,,,repeat,letter,NA,f,1.8597,vtsPrac,8,0,8,0,1,,,,,,,,,,,,,,,,,,,,,,,
293293,2022-09-25_21h37.56.102,vts_reward_expectancy,2022.2.4,Win32,59.68367651,Chrome,1504,1003,,,,,0,531,,,,,,,,,,,,,,,,,U,174,triangle,1,1,,5,,,,,,,,,,,,,,repeat,letter,lettRpt,f,1.1501,vtsPrac,9,0,9,0,1,,,,,,,,,,,,,,,,,,,,,,,
293293,2022-09-25_21h37.56.102,vts_reward_expectancy,2022.2.4,Win32,59.68367651,Chrome,1504,1003,,,,,0,531,,,,,,,,,,,,,,,,,S,146,star,0,0,,5,,,,,,,,,,,,,,switch,number,NA,k,2.1151,vtsPrac,10,0,10,0,1,,,,,,,,,,,,,,,,,,,,,,,
293293,2022-09-25_21h37.56.102,vts_reward_expectancy,2022.2.4,Win32,59.68367651,Chrome,1504,1003,,,,,0,531,,,,,,,,,,,,,,,,,W,139,triangle,1,1,,5,,,,,,,,,,,,,,repeat,number,numRpt,j,2.3597,vtsPrac,11,0,11,0,1,,,,,,,,,,,,,,,,,,,,,,,
293293,2022-09-25_21h37.56.102,vts_reward_expectancy,2022.2.4,Win32,59.68367651,Chrome,1504,1003,,,,,0,531,,,,,,,,,,,,,,,,,S,181,hexagon,1,0,,5,,,,,,,,,,,,,,switch,letter,lettSwt,f,1.0929,vtsPrac,12,0,12,0,1,,,,,,,,,,,,,,,,,,,,,,,
293293,2022-09-25_21h37.56.102,vts_reward_expectancy,2022.2.4,Win32,59.68367651,Chrome,1504,1003,,,,,0,531,,,,,,,,,,,,,,,,,U,132,star,1,0,,5,,,,,,,,,,,,,,repeat,letter,lettRpt,f,0.8332,vtsPrac,13,0,13,0,1,,,,,,,,,,,,,,,,,,,,,,,
293293,2022-09-25_21h37.56.102,vts_reward_expectancy,2022.2.4,Win32,59.68367651,Chrome,1504,1003,,,,,0,531,,,,,,,,,,,,,,,,,D,139,hexagon,1,0,,5,,,,,,,,,,,,,,repeat,letter,lettRpt,d,1.2049,vtsPrac,14,0,14,0,1,,,,,,,,,,,,,,,,,,,,,,,
293293,2022-09-25_21h37.56.102,vts_reward_expectancy,2022.2.4,Win32,59.68367651,Chrome,1504,1003,,,,,0,531,,,,,,,,,,,,,,,,,H,167,circle,1,0,,5,,,,,,,,,,,,,,switch,number,numSwt,k,0.883,vtsPrac,15,0,15,0,1,,,,,,,,,,,,,,,,,,,,,,,
293293,2022-09-25_21h37.56.102,vts_reward_expectancy,2022.2.4,Win32,59.68367651,Chrome,1504,1003,,,,,,,,,,,,,,,,,,,,,,,,,,,,,,,,,,,,,,,,,,,,,,,,,,,,,,,,,,,,,,,,,,,,,,,,,,,,
293293,2022-09-25_21h37.56.102,vts_reward_expectancy,2022.2.4,Win32,59.68367651,Chrome,1504,1003,,,,,,,,,,,,,,,,,,,,,,,,,,,,,,,,,,,,,,,,,,,,,,,,,,,,,,,,,,,,,,,,,,,,,,,,,,,,
293293,2022-09-25_21h37.56.102,vts_reward_expectancy,2022.2.4,Win32,59.68367651,Chrome,1504,1003,,,,,0,531,,,,,,,,,,,,,,,,,D,125,star,1,0,,,,,,,,,,,,,,,,repeat,number,numRpt,j,0.7174,noRew,,,,,,0,0,0,0,0,1,,,,,,,,,,,,,,,,,
293293,2022-09-25_21h37.56.102,vts_reward_expectancy,2022.2.4,Win32,59.68367651,Chrome,1504,1003,,,,,0,531,,,,,,,,,,,,,,,,,H,132,hexagon,1,0,,,,,,,,,,,,,,,,repeat,number,numRpt,j,0.7825,noRew,,,,,,0,1,0,1,0,1,,,,,,,,,,,,,,,,,
293293,2022-09-25_21h37.56.102,vts_reward_expectancy,2022.2.4,Win32,59.68367651,Chrome,1504,1003,,,,,0,531,,,,,,,,,,,,,,,,,B,174,star,1,0,,,,,,,,,,,,,,,,repeat,number,numRpt,k,0.6327,noRew,,,,,,0,2,0,2,0,1,,,,,,,,,,,,,,,,,
293293,2022-09-25_21h37.56.102,vts_reward_expectancy,2022.2.4,Win32,59.68367651,Chrome,1504,1003,,,,,0,531,,,,,,,,,,,,,,,,,Y,167,hexagon,1,0,,,,,,,,,,,,,,,,repeat,number,numRpt,k,0.8328,noRew,,,,,,0,3,0,3,0,1,,,,,,,,,,,,,,,,,
293293,2022-09-25_21h37.56.102,vts_reward_expectancy,2022.2.4,Win32,59.68367651,Chrome,1504,1003,,,,,0,531,,,,,,,,,,,,,,,,,D,125,star,1,0,,,,,,,,,,,,,,,,repeat,number,numRpt,j,0.4824,noRew,,,,,,0,4,0,4,0,1,,,,,,,,,,,,,,,,,
293293,2022-09-25_21h37.56.102,vts_reward_expectancy,2022.2.4,Win32,59.68367651,Chrome,1504,1003,,,,,0,531,,,,,,,,,,,,,,,,,H,132,hexagon,1,0,,,,,,,,,,,,,,,,repeat,number,numRpt,j,1.1334,noRew,,,,,,0,5,0,5,0,1,,,,,,,,,,,,,,,,,
293293,2022-09-25_21h37.56.102,vts_reward_expectancy,2022.2.4,Win32,59.68367651,Chrome,1504,1003,,,,,0,531,,,,,,,,,,,,,,,,,B,174,circle,1,0,,,,,,,,,,,,,,,,switch,letter,lettSwt,d,0.717,noRew,,,,,,0,6,0,6,0,1,,,,,,,,,,,,,,,,,
293293,2022-09-25_21h37.56.102,vts_reward_expectancy,2022.2.4,Win32,59.68367651,Chrome,1504,1003,,,,,0,531,,,,,,,,,,,,,,,,,Y,167,star,1,0,,,,,,,,,,,,,,,,repeat,letter,lettRpt,f,0.6758,noRew,,,,,,0,7,0,7,0,1,,,,,,,,,,,,,,,,,
293293,2022-09-25_21h37.56.102,vts_reward_expectancy,2022.2.4,Win32,59.68367651,Chrome,1504,1003,,,,,0,531,,,,,,,,,,,,,,,,,W,132,hexagon,1,0,,,,,,,,,,,,,,,,switch,number,numSwt,j,1.3897,noRew,,,,,,0,8,0,8,0,1,,,,,,,,,,,,,,,,,
293293,2022-09-25_21h37.56.102,vts_reward_expectancy,2022.2.4,Win32,59.68367651,Chrome,1504,1003,,,,,0,531,,,,,,,,,,,,,,,,,H,139,circle,1,0,,,,,,,,,,,,,,,,repeat,number,numRpt,j,1.3158,noRew,,,,,,0,9,0,9,0,1,,,,,,,,,,,,,,,,,
293293,2022-09-25_21h37.56.102,vts_reward_expectancy,2022.2.4,Win32,59.68367651,Chrome,1504,1003,,,,,0,531,,,,,,,,,,,,,,,,,Y,174,circle,1,0,,,,,,,,,,,,,,,,switch,letter,lettSwt,f,1.2502,noRew,,,,,,0,10,0,10,0,1,,,,,,,,,,,,,,,,,
293293,2022-09-25_21h37.56.102,vts_reward_expectancy,2022.2.4,Win32,59.68367651,Chrome,1504,1003,,,,,0,531,,,,,,,,,,,,,,,,,B,125,triangle,1,0,,,,,,,,,,,,,,,,repeat,letter,lettRpt,d,0.5821,noRew,,,,,,0,11,0,11,0,1,,,,,,,,,,,,,,,,,
293293,2022-09-25_21h37.56.102,vts_reward_expectancy,2022.2.4,Win32,59.68367651,Chrome,1504,1003,,,,,0,531,,,,,,,,,,,,,,,,,B,174,triangle,1,0,,,,,,,,,,,,,,,,repeat,letter,lettRpt,d,0.6662,noRew,,,,,,0,12,0,12,0,1,,,,,,,,,,,,,,,,,
293293,2022-09-25_21h37.56.102,vts_reward_expectancy,2022.2.4,Win32,59.68367651,Chrome,1504,1003,,,,,0,531,,,,,,,,,,,,,,,,,U,146,star,1,0,,,,,,,,,,,,,,,,switch,number,numSwt,j,1.4163,noRew,,,,,,0,13,0,13,0,1,,,,,,,,,,,,,,,,,
293293,2022-09-25_21h37.56.102,vts_reward_expectancy,2022.2.4,Win32,59.68367651,Chrome,1504,1003,,,,,0,531,,,,,,,,,,,,,,,,,W,181,circle,1,0,,,,,,,,,,,,,,,,repeat,number,numRpt,k,1.1657,noRew,,,,,,0,14,0,14,0,1,,,,,,,,,,,,,,,,,
293293,2022-09-25_21h37.56.102,vts_reward_expectancy,2022.2.4,Win32,59.68367651,Chrome,1504,1003,,,,,0,531,,,,,,,,,,,,,,,,,Y,125,hexagon,1,0,,,,,,,,,,,,,,,,switch,letter,lettSwt,f,0.8677,noRew,,,,,,0,15,0,15,0,1,,,,,,,,,,,,,,,,,
293293,2022-09-25_21h37.56.102,vts_reward_expectancy,2022.2.4,Win32,59.68367651,Chrome,1504,1003,,,,,0,531,,,,,,,,,,,,,,,,,W,181,hexagon,1,0,,,,,,,,,,,,,,,,repeat,letter,lettRpt,f,1.1695,noRew,,,,,,0,16,0,16,0,1,,,,,,,,,,,,,,,,,
293293,2022-09-25_21h37.56.102,vts_reward_expectancy,2022.2.4,Win32,59.68367651,Chrome,1504,1003,,,,,0,531,,,,,,,,,,,,,,,,,U,167,triangle,1,0,,,,,,,,,,,,,,,,repeat,letter,lettRpt,f,0.8328,noRew,,,,,,0,17,0,17,0,1,,,,,,,,,,,,,,,,,
293293,2022-09-25_21h37.56.102,vts_reward_expectancy,2022.2.4,Win32,59.68367651,Chrome,1504,1003,,,,,0,531,,,,,,,,,,,,,,,,,D,139,triangle,1,0,,,,,,,,,,,,,,,,repeat,letter,lettRpt,d,0.7321,noRew,,,,,,0,18,0,18,0,1,,,,,,,,,,,,,,,,,
293293,2022-09-25_21h37.56.102,vts_reward_expectancy,2022.2.4,Win32,59.68367651,Chrome,1504,1003,,,,,0,531,,,,,,,,,,,,,,,,,S,125,hexagon,1,0,,,,,,,,,,,,,,,,switch,number,numSwt,j,1.6903,noRew,,,,,,0,19,0,19,0,1,,,,,,,,,,,,,,,,,
293293,2022-09-25_21h37.56.102,vts_reward_expectancy,2022.2.4,Win32,59.68367651,Chrome,1504,1003,,,,,0,531,,,,,,,,,,,,,,,,,S,146,triangle,1,0,,,,,,,,,,,,,,,,repeat,number,numRpt,j,1.6178,noRew,,,,,,0,20,0,20,0,1,,,,,,,,,,,,,,,,,
293293,2022-09-25_21h37.56.102,vts_reward_expectancy,2022.2.4,Win32,59.68367651,Chrome,1504,1003,,,,,0,531,,,,,,,,,,,,,,,,,U,167,star,1,0,,,,,,,,,,,,,,,,repeat,number,numRpt,k,1.5496,noRew,,,,,,0,21,0,21,0,1,,,,,,,,,,,,,,,,,
293293,2022-09-25_21h37.56.102,vts_reward_expectancy,2022.2.4,Win32,59.68367651,Chrome,1504,1003,,,,,0,531,,,,,,,,,,,,,,,,,B,160,star,1,0,,,,,,,,,,,,,,,,switch,letter,lettSwt,d,0.7848,noRew,,,,,,0,22,0,22,0,1,,,,,,,,,,,,,,,,,
293293,2022-09-25_21h37.56.102,vts_reward_expectancy,2022.2.4,Win32,59.68367651,Chrome,1504,1003,,,,,0,531,,,,,,,,,,,,,,,,,F,139,circle,1,0,,,,,,,,,,,,,,,,repeat,letter,lettRpt,d,1.5503,noRew,,,,,,0,23,0,23,0,1,,,,,,,,,,,,,,,,,
293293,2022-09-25_21h37.56.102,vts_reward_expectancy,2022.2.4,Win32,59.68367651,Chrome,1504,1003,,,,,0,531,,,,,,,,,,,,,,,,,W,146,circle,1,0,,,,,,,,,,,,,,,,switch,number,numSwt,j,1.6756,noRew,,,,,,0,24,0,24,0,1,,,,,,,,,,,,,,,,,
293293,2022-09-25_21h37.56.102,vts_reward_expectancy,2022.2.4,Win32,59.68367651,Chrome,1504,1003,,,,,0,531,,,,,,,,,,,,,,,,,D,167,triangle,1,0,,,,,,,,,,,,,,,,switch,letter,lettSwt,d,1.9848,noRew,,,,,,0,25,0,25,0,1,,,,,,,,,,,,,,,,,
293293,2022-09-25_21h37.56.102,vts_reward_expectancy,2022.2.4,Win32,59.68367651,Chrome,1504,1003,,,,,0,531,,,,,,,,,,,,,,,,,B,125,triangle,1,0,,,,,,,,,,,,,,,,repeat,letter,lettRpt,d,0.6002,noRew,,,,,,0,26,0,26,0,1,,,,,,,,,,,,,,,,,
293293,2022-09-25_21h37.56.102,vts_reward_expectancy,2022.2.4,Win32,59.68367651,Chrome,1504,1003,,,,,0,531,,,,,,,,,,,,,,,,,S,139,star,1,0,,,,,,,,,,,,,,,,switch,number,numSwt,j,1.5847,noRew,,,,,,0,27,0,27,0,1,,,,,,,,,,,,,,,,,
293293,2022-09-25_21h37.56.102,vts_reward_expectancy,2022.2.4,Win32,59.68367651,Chrome,1504,1003,,,,,0,531,,,,,,,,,,,,,,,,,D,160,star,1,0,,,,,,,,,,,,,,,,switch,letter,lettSwt,d,0.636,noRew,,,,,,0,28,0,28,0,1,,,,,,,,,,,,,,,,,
293293,2022-09-25_21h37.56.102,vts_reward_expectancy,2022.2.4,Win32,59.68367651,Chrome,1504,1003,,,,,0,531,,,,,,,,,,,,,,,,,W,181,triangle,1,0,,,,,,,,,,,,,,,,switch,number,numSwt,k,1.2831,noRew,,,,,,0,29,0,29,0,1,,,,,,,,,,,,,,,,,
293293,2022-09-25_21h37.56.102,vts_reward_expectancy,2022.2.4,Win32,59.68367651,Chrome,1504,1003,,,,,0,531,,,,,,,,,,,,,,,,,B,125,hexagon,1,0,,,,,,,,,,,,,,,,switch,letter,lettSwt,d,0.8169,noRew,,,,,,0,30,0,30,0,1,,,,,,,,,,,,,,,,,
293293,2022-09-25_21h37.56.102,vts_reward_expectancy,2022.2.4,Win32,59.68367651,Chrome,1504,1003,,,,,0,531,,,,,,,,,,,,,,,,,U,139,star,1,0,,,,,,,,,,,,,,,,switch,number,numSwt,j,1.517,noRew,,,,,,0,31,0,31,0,1,,,,,,,,,,,,,,,,,
293293,2022-09-25_21h37.56.102,vts_reward_expectancy,2022.2.4,Win32,59.68367651,Chrome,1504,1003,,,,,0,531,,,,,,,,,,,,,,,,,B,139,star,1,0,,,,,,,,,,,,,,,,switch,letter,lettSwt,d,0.7979,noRew,,,,,,0,32,0,32,0,1,,,,,,,,,,,,,,,,,
293293,2022-09-25_21h37.56.102,vts_reward_expectancy,2022.2.4,Win32,59.68367651,Chrome,1504,1003,,,,,0,531,,,,,,,,,,,,,,,,,Y,167,circle,1,0,,,,,,,,,,,,,,,,repeat,letter,lettRpt,f,0.949,noRew,,,,,,0,33,0,33,0,1,,,,,,,,,,,,,,,,,
293293,2022-09-25_21h37.56.102,vts_reward_expectancy,2022.2.4,Win32,59.68367651,Chrome,1504,1003,,,,,0,531,,,,,,,,,,,,,,,,,U,125,star,1,0,,,,,,,,,,,,,,,,switch,number,numSwt,j,1.5096,noRew,,,,,,0,34,0,34,0,1,,,,,,,,,,,,,,,,,
293293,2022-09-25_21h37.56.102,vts_reward_expectancy,2022.2.4,Win32,59.68367651,Chrome,1504,1003,,,,,0,531,,,,,,,,,,,,,,,,,D,174,circle,1,0,,,,,,,,,,,,,,,,switch,letter,lettSwt,d,1.0235,noRew,,,,,,0,35,0,35,0,1,,,,,,,,,,,,,,,,,
293293,2022-09-25_21h37.56.102,vts_reward_expectancy,2022.2.4,Win32,59.68367651,Chrome,1504,1003,,,,,0,531,,,,,,,,,,,,,,,,,W,160,hexagon,1,0,,,,,,,,,,,,,,,,switch,number,numSwt,k,1.2062,noRew,,,,,,0,36,0,36,0,1,,,,,,,,,,,,,,,,,
293293,2022-09-25_21h37.56.102,vts_reward_expectancy,2022.2.4,Win32,59.68367651,Chrome,1504,1003,,,,,0,531,,,,,,,,,,,,,,,,,F,167,circle,1,0,,,,,,,,,,,,,,,,switch,letter,lettSwt,d,1.204,noRew,,,,,,0,37,0,37,0,1,,,,,,,,,,,,,,,,,
293293,2022-09-25_21h37.56.102,vts_reward_expectancy,2022.2.4,Win32,59.68367651,Chrome,1504,1003,,,,,0,531,,,,,,,,,,,,,,,,,B,139,hexagon,1,0,,,,,,,,,,,,,,,,repeat,letter,lettRpt,d,0.6489,noRew,,,,,,0,38,0,38,0,1,,,,,,,,,,,,,,,,,
293293,2022-09-25_21h37.56.102,vts_reward_expectancy,2022.2.4,Win32,59.68367651,Chrome,1504,1003,,,,,0,531,,,,,,,,,,,,,,,,,H,146,star,1,0,,,,,,,,,,,,,,,,switch,number,numSwt,j,1.7493,noRew,,,,,,0,39,0,39,0,1,,,,,,,,,,,,,,,,,
293293,2022-09-25_21h37.56.102,vts_reward_expectancy,2022.2.4,Win32,59.68367651,Chrome,1504,1003,,,,,0,531,,,,,,,,,,,,,,,,,B,174,circle,1,0,,,,,,,,,,,,,,,,switch,letter,lettSwt,d,0.6321,noRew,,,,,,0,40,0,40,0,1,,,,,,,,,,,,,,,,,
293293,2022-09-25_21h37.56.102,vts_reward_expectancy,2022.2.4,Win32,59.68367651,Chrome,1504,1003,,,,,0,531,,,,,,,,,,,,,,,,,F,167,hexagon,1,0,,,,,,,,,,,,,,,,repeat,letter,lettRpt,d,0.8169,noRew,,,,,,0,41,0,41,0,1,,,,,,,,,,,,,,,,,
293293,2022-09-25_21h37.56.102,vts_reward_expectancy,2022.2.4,Win32,59.68367651,Chrome,1504,1003,,,,,0,531,,,,,,,,,,,,,,,,,D,132,triangle,1,0,,,,,,,,,,,,,,,,repeat,letter,lettRpt,d,0.6393,noRew,,,,,,0,42,0,42,0,1,,,,,,,,,,,,,,,,,
293293,2022-09-25_21h37.56.102,vts_reward_expectancy,2022.2.4,Win32,59.68367651,Chrome,1504,1003,,,,,0,531,,,,,,,,,,,,,,,,,H,125,circle,1,0,,,,,,,,,,,,,,,,switch,number,numSwt,j,1.3006,noRew,,,,,,0,43,0,43,0,1,,,,,,,,,,,,,,,,,
293293,2022-09-25_21h37.56.102,vts_reward_expectancy,2022.2.4,Win32,59.68367651,Chrome,1504,1003,,,,,0,531,,,,,,,,,,,,,,,,,U,167,star,1,0,,,,,,,,,,,,,,,,switch,letter,lettSwt,f,0.9911,noRew,,,,,,0,44,0,44,0,1,,,,,,,,,,,,,,,,,
293293,2022-09-25_21h37.56.102,vts_reward_expectancy,2022.2.4,Win32,59.68367651,Chrome,1504,1003,,,,,0,531,,,,,,,,,,,,,,,,,F,139,circle,1,0,,,,,,,,,,,,,,,,repeat,letter,lettRpt,d,1.3983,noRew,,,,,,0,45,0,45,0,1,,,,,,,,,,,,,,,,,
293293,2022-09-25_21h37.56.102,vts_reward_expectancy,2022.2.4,Win32,59.68367651,Chrome,1504,1003,,,,,0,531,,,,,,,,,,,,,,,,,Y,160,triangle,1,0,,,,,,,,,,,,,,,,switch,number,numSwt,k,1.1657,noRew,,,,,,0,46,0,46,0,1,,,,,,,,,,,,,,,,,
293293,2022-09-25_21h37.56.102,vts_reward_expectancy,2022.2.4,Win32,59.68367651,Chrome,1504,1003,,,,,0,531,,,,,,,,,,,,,,,,,B,125,star,1,0,,,,,,,,,,,,,,,,switch,letter,lettSwt,d,1.0488,noRew,,,,,,0,47,0,47,0,1,,,,,,,,,,,,,,,,,
293293,2022-09-25_21h37.56.102,vts_reward_expectancy,2022.2.4,Win32,59.68367651,Chrome,1504,1003,,,,,0,531,,,,,,,,,,,,,,,,,D,174,star,1,0,,,,,,,,,,,,,,,,repeat,letter,lettRpt,d,0.7092,noRew,,,,,,0,48,0,48,0,1,,,,,,,,,,,,,,,,,
293293,2022-09-25_21h37.56.102,vts_reward_expectancy,2022.2.4,Win32,59.68367651,Chrome,1504,1003,,,,,0,531,,,,,,,,,,,,,,,,,B,181,hexagon,1,0,,,,,,,,,,,,,,,,repeat,letter,lettRpt,d,0.5766,noRew,,,,,,0,49,0,49,0,1,,,,,,,,,,,,,,,,,
293293,2022-09-25_21h37.56.102,vts_reward_expectancy,2022.2.4,Win32,59.68367651,Chrome,1504,1003,,,,,0,531,,,,,,,,,,,,,,,,,W,160,star,1,0,,,,,,,,,,,,,,,,switch,number,numSwt,k,1.5433,noRew,,,,,,0,50,0,50,0,1,,,,,,,,,,,,,,,,,
293293,2022-09-25_21h37.56.102,vts_reward_expectancy,2022.2.4,Win32,59.68367651,Chrome,1504,1003,,,,,0,531,,,,,,,,,,,,,,,,,Y,167,hexagon,1,0,,,,,,,,,,,,,,,,repeat,number,numRpt,k,1.196,noRew,,,,,,0,51,0,51,0,1,,,,,,,,,,,,,,,,,
293293,2022-09-25_21h37.56.102,vts_reward_expectancy,2022.2.4,Win32,59.68367651,Chrome,1504,1003,,,,,0,531,,,,,,,,,,,,,,,,,W,167,triangle,1,0,,,,,,,,,,,,,,,,repeat,number,numRpt,k,1.0833,noRew,,,,,,0,52,0,52,0,1,,,,,,,,,,,,,,,,,
293293,2022-09-25_21h37.56.102,vts_reward_expectancy,2022.2.4,Win32,59.68367651,Chrome,1504,1003,,,,,0,531,,,,,,,,,,,,,,,,,Y,160,circle,1,0,,,,,,,,,,,,,,,,repeat,number,numRpt,k,1.5961,noRew,,,,,,0,53,0,53,0,1,,,,,,,,,,,,,,,,,
293293,2022-09-25_21h37.56.102,vts_reward_expectancy,2022.2.4,Win32,59.68367651,Chrome,1504,1003,,,,,0,531,,,,,,,,,,,,,,,,,H,132,star,1,0,,,,,,,,,,,,,,,,repeat,number,numRpt,j,1.0674,noRew,,,,,,0,54,0,54,0,1,,,,,,,,,,,,,,,,,
293293,2022-09-25_21h37.56.102,vts_reward_expectancy,2022.2.4,Win32,59.68367651,Chrome,1504,1003,,,,,0,531,,,,,,,,,,,,,,,,,S,174,hexagon,1,0,,,,,,,,,,,,,,,,repeat,number,numRpt,k,1.0509,noRew,,,,,,0,55,0,55,0,1,,,,,,,,,,,,,,,,,
293293,2022-09-25_21h37.56.102,vts_reward_expectancy,2022.2.4,Win32,59.68367651,Chrome,1504,1003,,,,,0,531,,,,,,,,,,,,,,,,,D,132,triangle,1,0,,,,,,,,,,,,,,,,switch,letter,lettSwt,d,1.0333,noRew,,,,,,0,56,0,56,0,1,,,,,,,,,,,,,,,,,
293293,2022-09-25_21h37.56.102,vts_reward_expectancy,2022.2.4,Win32,59.68367651,Chrome,1504,1003,,,,,0,531,,,,,,,,,,,,,,,,,U,139,circle,1,0,,,,,,,,,,,,,,,,switch,number,numSwt,j,1.2675,noRew,,,,,,0,57,0,57,0,1,,,,,,,,,,,,,,,,,
293293,2022-09-25_21h37.56.102,vts_reward_expectancy,2022.2.4,Win32,59.68367651,Chrome,1504,1003,,,,,0,531,,,,,,,,,,,,,,,,,W,181,hexagon,1,0,,,,,,,,,,,,,,,,repeat,number,numRpt,k,1.1333,noRew,,,,,,0,58,0,58,0,1,,,,,,,,,,,,,,,,,
293293,2022-09-25_21h37.56.102,vts_reward_expectancy,2022.2.4,Win32,59.68367651,Chrome,1504,1003,,,,,0,531,,,,,,,,,,,,,,,,,B,167,circle,1,0,,,,,,,,,,,,,,,,switch,letter,lettSwt,d,0.6538,noRew,,,,,,0,59,0,59,0,1,,,,,,,,,,,,,,,,,
293293,2022-09-25_21h37.56.102,vts_reward_expectancy,2022.2.4,Win32,59.68367651,Chrome,1504,1003,,,,,0,531,,,,,,,,,,,,,,,,,U,181,star,1,0,,,,,,,,,,,,,,,,switch,number,numSwt,k,0.9323,noRew,,,,,,0,60,0,60,0,1,,,,,,,,,,,,,,,,,
293293,2022-09-25_21h37.56.102,vts_reward_expectancy,2022.2.4,Win32,59.68367651,Chrome,1504,1003,,,,,0,531,,,,,,,,,,,,,,,,,B,167,circle,1,0,,,,,,,,,,,,,,,,switch,letter,lettSwt,d,0.6661,noRew,,,,,,0,61,0,61,0,1,,,,,,,,,,,,,,,,,
293293,2022-09-25_21h37.56.102,vts_reward_expectancy,2022.2.4,Win32,59.68367651,Chrome,1504,1003,,,,,0,531,,,,,,,,,,,,,,,,,D,125,triangle,1,0,,,,,,,,,,,,,,,,repeat,letter,lettRpt,d,0.6163,noRew,,,,,,0,62,0,62,0,1,,,,,,,,,,,,,,,,,
293293,2022-09-25_21h37.56.102,vts_reward_expectancy,2022.2.4,Win32,59.68367651,Chrome,1504,1003,,,,,0,531,,,,,,,,,,,,,,,,,W,139,circle,1,0,,,,,,,,,,,,,,,,switch,number,numSwt,j,1.0672,noRew,,,,,,0,63,0,63,0,1,,,,,,,,,,,,,,,,,
293293,2022-09-25_21h37.56.102,vts_reward_expectancy,2022.2.4,Win32,59.68367651,Chrome,1504,1003,,,,,,,,,,,,,,,,,,,,,,,,,,,,,,,,,,,,,,,,,,,,,,,,,,,,,,,,,,,,,,,,,,,,,,,,,,,,
293293,2022-09-25_21h37.56.102,vts_reward_expectancy,2022.2.4,Win32,59.68367651,Chrome,1504,1003,,,,,10,541,,,,,,,,,,,,,,,,,B,146,circle,1,0,,,,,,,,,,,,,,,,switch,letter,lettSwt,d,0.6321,Lo,,,,,,0,,,,,,space,3.6605,low,0,0,0,0,1,,,,,,,,,
293293,2022-09-25_21h37.56.102,vts_reward_expectancy,2022.2.4,Win32,59.68367651,Chrome,1504,1003,,,,,1,542,,,,,,,,,,,,,,,,,U,174,star,1,0,,,,,,,,,,,,,,,,switch,number,numSwt,k,1.0859,Hi,,,,,,0,,,,,,,,low,1,0,1,0,1,,,,,,,,,
293293,2022-09-25_21h37.56.102,vts_reward_expectancy,2022.2.4,Win32,59.68367651,Chrome,1504,1003,,,,,10,552,,,,,,,,,,,,,,,,,S,139,circle,1,0,,,,,,,,,,,,,,,,repeat,number,numRpt,j,1.1162,Lo,,,,,,0,,,,,,,,low,2,0,2,0,1,,,,,,,,,
293293,2022-09-25_21h37.56.102,vts_reward_expectancy,2022.2.4,Win32,59.68367651,Chrome,1504,1003,,,,,0,552,,,,,,,,,,,,,,,,,F,160,star,1,0,,,,,,,,,,,,,,,,switch,letter,lettSwt,d,0.9522,Hi,,,,,,0,,,,,,,,low,3,0,3,0,1,,,,,,,,,
293293,2022-09-25_21h37.56.102,vts_reward_expectancy,2022.2.4,Win32,59.68367651,Chrome,1504,1003,,,,,1,553,,,,,,,,,,,,,,,,,H,132,circle,1,0,,,,,,,,,,,,,,,,switch,number,numSwt,j,0.9154,Lo,,,,,,0,,,,,,,,low,4,0,4,0,1,,,,,,,,,
293293,2022-09-25_21h37.56.102,vts_reward_expectancy,2022.2.4,Win32,59.68367651,Chrome,1504,1003,,,,,0,553,,,,,,,,,,,,,,,,,W,181,star,0,0,,,,,,,,,,,,,,,,repeat,number,NA,j,0.8153,Lo,,,,,,0,,,,,,,,low,5,0,5,0,1,,,,,,,,,
293293,2022-09-25_21h37.56.102,vts_reward_expectancy,2022.2.4,Win32,59.68367651,Chrome,1504,1003,,,,,10,563,,,,,,,,,,,,,,,,,D,125,star,1,1,,,,,,,,,,,,,,,,switch,letter,lettSwt,d,0.6333,Hi,,,,,,0,,,,,,,,low,6,0,6,0,1,,,,,,,,,
293293,2022-09-25_21h37.56.102,vts_reward_expectancy,2022.2.4,Win32,59.68367651,Chrome,1504,1003,,,,,10,573,,,,,,,,,,,,,,,,,Y,167,circle,1,0,,,,,,,,,,,,,,,,switch,number,numSwt,k,0.7036,Lo,,,,,,0,,,,,,,,low,7,0,7,0,1,,,,,,,,,
293293,2022-09-25_21h37.56.102,vts_reward_expectancy,2022.2.4,Win32,59.68367651,Chrome,1504,1003,,,,,10,583,,,,,,,,,,,,,,,,,B,146,circle,1,0,,,,,,,,,,,,,,,,switch,letter,lettSwt,d,0.5567,Lo,,,,,,0,,,,,,,,low,8,0,8,0,1,,,,,,,,,
293293,2022-09-25_21h37.56.102,vts_reward_expectancy,2022.2.4,Win32,59.68367651,Chrome,1504,1003,,,,,10,593,,,,,,,,,,,,,,,,,U,174,star,1,0,,,,,,,,,,,,,,,,switch,number,numSwt,k,0.7097,Hi,,,,,,0,,,,,,,,low,9,0,9,0,1,,,,,,,,,
293293,2022-09-25_21h37.56.102,vts_reward_expectancy,2022.2.4,Win32,59.68367651,Chrome,1504,1003,,,,,0,593,,,,,,,,,,,,,,,,,S,139,circle,0,0,,,,,,,,,,,,,,,,repeat,number,NA,k,0.9001,Hi,,,,,,0,,,,,,,,low,10,0,10,0,1,,,,,,,,,
293293,2022-09-25_21h37.56.102,vts_reward_expectancy,2022.2.4,Win32,59.68367651,Chrome,1504,1003,,,,,1,594,,,,,,,,,,,,,,,,,F,160,star,1,1,,,,,,,,,,,,,,,,repeat,number,numRpt,k,0.5862,Hi,,,,,,0,,,,,,,,low,11,0,11,0,1,,,,,,,,,
293293,2022-09-25_21h37.56.102,vts_reward_expectancy,2022.2.4,Win32,59.68367651,Chrome,1504,1003,,,,,10,604,,,,,,,,,,,,,,,,,H,132,circle,1,0,,,,,,,,,,,,,,,,repeat,number,numRpt,j,0.5815,Lo,,,,,,0,,,,,,,,low,12,0,12,0,1,,,,,,,,,
293293,2022-09-25_21h37.56.102,vts_reward_expectancy,2022.2.4,Win32,59.68367651,Chrome,1504,1003,,,,,10,614,,,,,,,,,,,,,,,,,W,181,star,1,0,,,,,,,,,,,,,,,,repeat,number,numRpt,k,0.6362,Hi,,,,,,0,,,,,,,,low,13,0,13,0,1,,,,,,,,,
293293,2022-09-25_21h37.56.102,vts_reward_expectancy,2022.2.4,Win32,59.68367651,Chrome,1504,1003,,,,,1,615,,,,,,,,,,,,,,,,,D,125,circle,1,0,,,,,,,,,,,,,,,,repeat,number,numRpt,j,0.412,Lo,,,,,,0,,,,,,,,low,14,0,14,0,1,,,,,,,,,
293293,2022-09-25_21h37.56.102,vts_reward_expectancy,2022.2.4,Win32,59.68367651,Chrome,1504,1003,,,,,10,625,,,,,,,,,,,,,,,,,Y,167,star,1,0,,,,,,,,,,,,,,,,repeat,number,numRpt,k,0.432,Hi,,,,,,0,,,,,,,,low,15,0,15,0,1,,,,,,,,,
293293,2022-09-25_21h37.56.102,vts_reward_expectancy,2022.2.4,Win32,59.68367651,Chrome,1504,1003,,,,,0,625,,,,,,,,,,,,,,,,,Y,160,circle,0,0,,,,,,,,,,,,,,,,repeat,number,NA,j,0.3975,Hi,,,,,,0,,,,,,,,low,16,0,16,0,1,,,,,,,,,
293293,2022-09-25_21h37.56.102,vts_reward_expectancy,2022.2.4,Win32,59.68367651,Chrome,1504,1003,,,,,10,635,,,,,,,,,,,,,,,,,B,146,star,1,1,,,,,,,,,,,,,,,,repeat,number,numRpt,j,0.6548,Hi,,,,,,0,,,,,,,,low,17,0,17,0,1,,,,,,,,,
293293,2022-09-25_21h37.56.102,vts_reward_expectancy,2022.2.4,Win32,59.68367651,Chrome,1504,1003,,,,,10,645,,,,,,,,,,,,,,,,,F,139,circle,1,0,,,,,,,,,,,,,,,,repeat,number,numRpt,j,0.4966,Lo,,,,,,0,,,,,,,,low,18,0,18,0,1,,,,,,,,,
293293,2022-09-25_21h37.56.102,vts_reward_expectancy,2022.2.4,Win32,59.68367651,Chrome,1504,1003,,,,,10,655,,,,,,,,,,,,,,,,,W,132,star,1,0,,,,,,,,,,,,,,,,repeat,number,numRpt,j,0.4794,Hi,,,,,,0,,,,,,,,low,19,0,19,0,1,,,,,,,,,
293293,2022-09-25_21h37.56.102,vts_reward_expectancy,2022.2.4,Win32,59.68367651,Chrome,1504,1003,,,,,1,656,,,,,,,,,,,,,,,,,D,174,circle,1,0,,,,,,,,,,,,,,,,repeat,number,numRpt,k,0.7461,Lo,,,,,,0,,,,,,,,low,20,0,20,0,1,,,,,,,,,
293293,2022-09-25_21h37.56.102,vts_reward_expectancy,2022.2.4,Win32,59.68367651,Chrome,1504,1003,,,,,10,666,,,,,,,,,,,,,,,,,H,125,star,1,0,,,,,,,,,,,,,,,,repeat,number,numRpt,j,0.5858,Hi,,,,,,0,,,,,,,,low,21,0,21,0,1,,,,,,,,,
293293,2022-09-25_21h37.56.102,vts_reward_expectancy,2022.2.4,Win32,59.68367651,Chrome,1504,1003,,,,,0,666,,,,,,,,,,,,,,,,,U,181,circle,0,0,,,,,,,,,,,,,,,,repeat,number,NA,j,0.5295,Hi,,,,,,0,,,,,,,,low,22,0,22,0,1,,,,,,,,,
293293,2022-09-25_21h37.56.102,vts_reward_expectancy,2022.2.4,Win32,59.68367651,Chrome,1504,1003,,,,,10,676,,,,,,,,,,,,,,,,,S,167,star,1,1,,,,,,,,,,,,,,,,repeat,number,numRpt,k,0.5627,Hi,,,,,,0,,,,,,,,low,23,0,23,0,1,,,,,,,,,
293293,2022-09-25_21h37.56.102,vts_reward_expectancy,2022.2.4,Win32,59.68367651,Chrome,1504,1003,,,,,10,686,,,,,,,,,,,,,,,,,W,146,star,1,0,,,,,,,,,,,,,,,,repeat,number,numRpt,j,0.4961,Hi,,,,,,0,,,,,,,,low,24,0,24,0,1,,,,,,,,,
293293,2022-09-25_21h37.56.102,vts_reward_expectancy,2022.2.4,Win32,59.68367651,Chrome,1504,1003,,,,,10,696,,,,,,,,,,,,,,,,,S,160,circle,1,0,,,,,,,,,,,,,,,,repeat,number,numRpt,k,0.5971,Lo,,,,,,0,,,,,,,,low,25,0,25,0,1,,,,,,,,,
293293,2022-09-25_21h37.56.102,vts_reward_expectancy,2022.2.4,Win32,59.68367651,Chrome,1504,1003,,,,,1,697,,,,,,,,,,,,,,,,,B,181,star,1,0,,,,,,,,,,,,,,,,repeat,number,numRpt,k,0.5138,Hi,,,,,,0,,,,,,,,low,26,0,26,0,1,,,,,,,,,
293293,2022-09-25_21h37.56.102,vts_reward_expectancy,2022.2.4,Win32,59.68367651,Chrome,1504,1003,,,,,1,698,,,,,,,,,,,,,,,,,D,167,circle,1,0,,,,,,,,,,,,,,,,repeat,number,numRpt,k,0.5285,Lo,,,,,,0,,,,,,,,low,27,0,27,0,1,,,,,,,,,
293293,2022-09-25_21h37.56.102,vts_reward_expectancy,2022.2.4,Win32,59.68367651,Chrome,1504,1003,,,,,1,699,,,,,,,,,,,,,,,,,F,132,circle,1,0,,,,,,,,,,,,,,,,repeat,number,numRpt,j,0.4003,Lo,,,,,,0,,,,,,,,low,28,0,28,0,1,,,,,,,,,
293293,2022-09-25_21h37.56.102,vts_reward_expectancy,2022.2.4,Win32,59.68367651,Chrome,1504,1003,,,,,10,709,,,,,,,,,,,,,,,,,Y,139,star,1,0,,,,,,,,,,,,,,,,repeat,number,numRpt,j,0.5118,Hi,,,,,,0,,,,,,,,low,29,0,29,0,1,,,,,,,,,
293293,2022-09-25_21h37.56.102,vts_reward_expectancy,2022.2.4,Win32,59.68367651,Chrome,1504,1003,,,,,10,719,,,,,,,,,,,,,,,,,U,125,star,1,0,,,,,,,,,,,,,,,,repeat,number,numRpt,j,0.4507,Hi,,,,,,0,,,,,,,,low,30,0,30,0,1,,,,,,,,,
293293,2022-09-25_21h37.56.102,vts_reward_expectancy,2022.2.4,Win32,59.68367651,Chrome,1504,1003,,,,,1,720,,,,,,,,,,,,,,,,,H,174,circle,1,0,,,,,,,,,,,,,,,,repeat,number,numRpt,k,0.5296,Lo,,,,,,0,,,,,,,,low,31,0,31,0,1,,,,,,,,,
293293,2022-09-25_21h37.56.102,vts_reward_expectancy,2022.2.4,Win32,59.68367651,Chrome,1504,1003,,,,,10,730,,,,,,,,,,,,,,,,,U,139,hexagon,1,0,,,,,,,,,,,,,,,,repeat,number,numRpt,j,0.5004,Hi,,,,,,1,,,,,,space,1.4198,high,0,0,0,0,1,,,,,,,,,
293293,2022-09-25_21h37.56.102,vts_reward_expectancy,2022.2.4,Win32,59.68367651,Chrome,1504,1003,,,,,1,731,,,,,,,,,,,,,,,,,W,132,triangle,1,0,,,,,,,,,,,,,,,,repeat,number,numRpt,j,0.429,Lo,,,,,,1,,,,,,,,high,1,0,1,0,1,,,,,,,,,
293293,2022-09-25_21h37.56.102,vts_reward_expectancy,2022.2.4,Win32,59.68367651,Chrome,1504,1003,,,,,0,731,,,,,,,,,,,,,,,,,D,174,hexagon,1,0,,,,,,,,,,,,,,,,repeat,number,numRpt,k,0.5954,Hi,,,,,,1,,,,,,,,high,2,0,2,0,1,,,,,,,,,
293293,2022-09-25_21h37.56.102,vts_reward_expectancy,2022.2.4,Win32,59.68367651,Chrome,1504,1003,,,,,1,732,,,,,,,,,,,,,,,,,F,146,triangle,1,0,,,,,,,,,,,,,,,,repeat,number,numRpt,j,0.6312,Lo,,,,,,1,,,,,,,,high,3,0,3,0,1,,,,,,,,,
293293,2022-09-25_21h37.56.102,vts_reward_expectancy,2022.2.4,Win32,59.68367651,Chrome,1504,1003,,,,,0,732,,,,,,,,,,,,,,,,,H,167,hexagon,0,0,,,,,,,,,,,,,,,,repeat,number,NA,j,0.3718,Lo,,,,,,1,,,,,,,,high,4,0,4,0,1,,,,,,,,,
293293,2022-09-25_21h37.56.102,vts_reward_expectancy,2022.2.4,Win32,59.68367651,Chrome,1504,1003,,,,,0,732,,,,,,,,,,,,,,,,,S,181,triangle,0,1,,,,,,,,,,,,,,,,repeat,number,NA,j,0.3449,Lo,,,,,,1,,,,,,,,high,5,0,5,0,1,,,,,,,,,
293293,2022-09-25_21h37.56.102,vts_reward_expectancy,2022.2.4,Win32,59.68367651,Chrome,1504,1003,,,,,0,732,,,,,,,,,,,,,,,,,B,125,triangle,0,1,,,,,,,,,,,,,,,,repeat,number,NA,k,0.4949,Lo,,,,,,1,,,,,,,,high,6,0,6,0,1,,,,,,,,,
293293,2022-09-25_21h37.56.102,vts_reward_expectancy,2022.2.4,Win32,59.68367651,Chrome,1504,1003,,,,,0,732,,,,,,,,,,,,,,,,,Y,160,hexagon,0,1,,,,,,,,,,,,,,,,repeat,number,NA,j,0.579,Lo,,,,,,1,,,,,,,,high,7,0,7,0,1,,,,,,,,,
293293,2022-09-25_21h37.56.102,vts_reward_expectancy,2022.2.4,Win32,59.68367651,Chrome,1504,1003,,,,,0,732,,,,,,,,,,,,,,,,,U,139,triangle,0,1,,,,,,,,,,,,,,,,repeat,number,NA,k,0.5555,Lo,,,,,,1,,,,,,,,high,8,0,8,0,1,,,,,,,,,
293293,2022-09-25_21h37.56.102,vts_reward_expectancy,2022.2.4,Win32,59.68367651,Chrome,1504,1003,,,,,10,742,,,,,,,,,,,,,,,,,W,132,hexagon,1,1,,,,,,,,,,,,,,,,repeat,number,numRpt,j,0.496,Hi,,,,,,1,,,,,,,,high,9,0,9,0,1,,,,,,,,,
293293,2022-09-25_21h37.56.102,vts_reward_expectancy,2022.2.4,Win32,59.68367651,Chrome,1504,1003,,,,,0,742,,,,,,,,,,,,,,,,,D,174,hexagon,1,0,,,,,,,,,,,,,,,,repeat,number,numRpt,k,0.5471,Hi,,,,,,1,,,,,,,,high,10,0,10,0,1,,,,,,,,,
293293,2022-09-25_21h37.56.102,vts_reward_expectancy,2022.2.4,Win32,59.68367651,Chrome,1504,1003,,,,,0,742,,,,,,,,,,,,,,,,,F,146,triangle,0,0,,,,,,,,,,,,,,,,repeat,number,NA,k,0.5766,Hi,,,,,,1,,,,,,,,high,11,0,11,0,1,,,,,,,,,
293293,2022-09-25_21h37.56.102,vts_reward_expectancy,2022.2.4,Win32,59.68367651,Chrome,1504,1003,,,,,0,742,,,,,,,,,,,,,,,,,H,167,hexagon,1,1,,,,,,,,,,,,,,,,repeat,number,numRpt,k,0.5461,Hi,,,,,,1,,,,,,,,high,12,0,12,0,1,,,,,,,,,
293293,2022-09-25_21h37.56.102,vts_reward_expectancy,2022.2.4,Win32,59.68367651,Chrome,1504,1003,,,,,0,742,,,,,,,,,,,,,,,,,S,181,triangle,0,0,,,,,,,,,,,,,,,,repeat,number,NA,j,0.3183,Hi,,,,,,1,,,,,,,,high,13,0,13,0,1,,,,,,,,,
293293,2022-09-25_21h37.56.102,vts_reward_expectancy,2022.2.4,Win32,59.68367651,Chrome,1504,1003,,,,,1,743,,,,,,,,,,,,,,,,,B,125,triangle,1,1,,,,,,,,,,,,,,,,repeat,number,numRpt,j,0.5959,Lo,,,,,,1,,,,,,,,high,14,0,14,0,1,,,,,,,,,
293293,2022-09-25_21h37.56.102,vts_reward_expectancy,2022.2.4,Win32,59.68367651,Chrome,1504,1003,,,,,10,753,,,,,,,,,,,,,,,,,Y,160,hexagon,1,0,,,,,,,,,,,,,,,,repeat,number,numRpt,k,0.4118,Hi,,,,,,1,,,,,,,,high,15,0,15,0,1,,,,,,,,,
293293,2022-09-25_21h37.56.102,vts_reward_expectancy,2022.2.4,Win32,59.68367651,Chrome,1504,1003,,,,,1,754,,,,,,,,,,,,,,,,,U,181,triangle,1,0,,,,,,,,,,,,,,,,repeat,number,numRpt,k,0.4628,Lo,,,,,,1,,,,,,,,high,16,0,16,0,1,,,,,,,,,
293293,2022-09-25_21h37.56.102,vts_reward_expectancy,2022.2.4,Win32,59.68367651,Chrome,1504,1003,,,,,0,754,,,,,,,,,,,,,,,,,S,132,hexagon,0,0,,,,,,,,,,,,,,,,repeat,number,NA,k,0.4476,Lo,,,,,,1,,,,,,,,high,17,0,17,0,1,,,,,,,,,
293293,2022-09-25_21h37.56.102,vts_reward_expectancy,2022.2.4,Win32,59.68367651,Chrome,1504,1003,,,,,0,754,,,,,,,,,,,,,,,,,B,125,hexagon,0,1,,,,,,,,,,,,,,,,repeat,number,NA,k,0.916,Lo,,,,,,1,,,,,,,,high,18,0,18,0,1,,,,,,,,,
293293,2022-09-25_21h37.56.102,vts_reward_expectancy,2022.2.4,Win32,59.68367651,Chrome,1504,1003,,,,,1,755,,,,,,,,,,,,,,,,,W,174,triangle,1,1,,,,,,,,,,,,,,,,repeat,number,numRpt,k,0.8301,Lo,,,,,,1,,,,,,,,high,19,0,19,0,1,,,,,,,,,
293293,2022-09-25_21h37.56.102,vts_reward_expectancy,2022.2.4,Win32,59.68367651,Chrome,1504,1003,,,,,0,755,,,,,,,,,,,,,,,,,D,167,hexagon,1,0,,,,,,,,,,,,,,,,repeat,number,numRpt,k,0.5639,Hi,,,,,,1,,,,,,,,high,20,0,20,0,1,,,,,,,,,
293293,2022-09-25_21h37.56.102,vts_reward_expectancy,2022.2.4,Win32,59.68367651,Chrome,1504,1003,,,,,1,756,,,,,,,,,,,,,,,,,Y,139,triangle,1,0,,,,,,,,,,,,,,,,repeat,number,numRpt,j,0.4626,Lo,,,,,,1,,,,,,,,high,21,0,21,0,1,,,,,,,,,
293293,2022-09-25_21h37.56.102,vts_reward_expectancy,2022.2.4,Win32,59.68367651,Chrome,1504,1003,,,,,1,757,,,,,,,,,,,,,,,,,H,146,triangle,1,0,,,,,,,,,,,,,,,,repeat,number,numRpt,j,0.7211,Lo,,,,,,1,,,,,,,,high,22,0,22,0,1,,,,,,,,,
293293,2022-09-25_21h37.56.102,vts_reward_expectancy,2022.2.4,Win32,59.68367651,Chrome,1504,1003,,,,,0,757,,,,,,,,,,,,,,,,,F,160,hexagon,1,0,,,,,,,,,,,,,,,,repeat,number,numRpt,k,0.6368,Hi,,,,,,1,,,,,,,,high,23,0,23,0,1,,,,,,,,,
293293,2022-09-25_21h37.56.102,vts_reward_expectancy,2022.2.4,Win32,59.68367651,Chrome,1504,1003,,,,,10,767,,,,,,,,,,,,,,,,,B,160,triangle,1,0,,,,,,,,,,,,,,,,repeat,number,numRpt,k,0.5389,Lo,,,,,,1,,,,,,,,high,24,0,24,0,1,,,,,,,,,
293293,2022-09-25_21h37.56.102,vts_reward_expectancy,2022.2.4,Win32,59.68367651,Chrome,1504,1003,,,,,0,767,,,,,,,,,,,,,,,,,F,174,hexagon,0,0,,,,,,,,,,,,,,,,repeat,number,NA,j,0.3806,Lo,,,,,,1,,,,,,,,high,25,0,25,0,1,,,,,,,,,
293293,2022-09-25_21h37.56.102,vts_reward_expectancy,2022.2.4,Win32,59.68367651,Chrome,1504,1003,,,,,0,767,,,,,,,,,,,,,,,,,U,181,hexagon,1,1,,,,,,,,,,,,,,,,repeat,number,numRpt,k,0.5496,Hi,,,,,,1,,,,,,,,high,26,0,26,0,1,,,,,,,,,
293293,2022-09-25_21h37.56.102,vts_reward_expectancy,2022.2.4,Win32,59.68367651,Chrome,1504,1003,,,,,10,777,,,,,,,,,,,,,,,,,W,125,triangle,1,0,,,,,,,,,,,,,,,,repeat,number,numRpt,j,0.6889,Lo,,,,,,1,,,,,,,,high,27,0,27,0,1,,,,,,,,,
293293,2022-09-25_21h37.56.102,vts_reward_expectancy,2022.2.4,Win32,59.68367651,Chrome,1504,1003,,,,,0,777,,,,,,,,,,,,,,,,,D,139,triangle,0,0,,,,,,,,,,,,,,,,repeat,number,NA,k,0.5628,Lo,,,,,,1,,,,,,,,high,28,0,28,0,1,,,,,,,,,
293293,2022-09-25_21h37.56.102,vts_reward_expectancy,2022.2.4,Win32,59.68367651,Chrome,1504,1003,,,,,0,777,,,,,,,,,,,,,,,,,H,167,hexagon,1,1,,,,,,,,,,,,,,,,repeat,number,numRpt,k,0.7983,Hi,,,,,,1,,,,,,,,high,29,0,29,0,1,,,,,,,,,
293293,2022-09-25_21h37.56.102,vts_reward_expectancy,2022.2.4,Win32,59.68367651,Chrome,1504,1003,,,,,10,787,,,,,,,,,,,,,,,,,Y,146,triangle,1,0,,,,,,,,,,,,,,,,repeat,number,numRpt,j,0.5465,Lo,,,,,,1,,,,,,,,high,30,0,30,0,1,,,,,,,,,
293293,2022-09-25_21h37.56.102,vts_reward_expectancy,2022.2.4,Win32,59.68367651,Chrome,1504,1003,,,,,0,787,,,,,,,,,,,,,,,,,S,132,hexagon,1,0,,,,,,,,,,,,,,,,repeat,number,numRpt,j,0.5288,Hi,,,,,,1,,,,,,,,high,31,0,31,0,1,,,,,,,,,
293293,2022-09-25_21h37.56.102,vts_reward_expectancy,2022.2.4,Win32,59.68367651,Chrome,1504,1003,,,,,0,787,,,,,,,,,,,,,,,,,S,146,star,1,0,,,,,,,,,,,,,,,,repeat,number,numRpt,j,0.7535,Hi,,,,,,2,,,,,,space,0.1501,low,0,0,0,0,1,,,,,,,,,
293293,2022-09-25_21h37.56.102,vts_reward_expectancy,2022.2.4,Win32,59.68367651,Chrome,1504,1003,,,,,1,788,,,,,,,,,,,,,,,,,U,132,circle,1,0,,,,,,,,,,,,,,,,repeat,number,numRpt,j,1.0188,Lo,,,,,,2,,,,,,,,low,1,0,1,0,1,,,,,,,,,
293293,2022-09-25_21h37.56.102,vts_reward_expectancy,2022.2.4,Win32,59.68367651,Chrome,1504,1003,,,,,0,788,,,,,,,,,,,,,,,,,H,125,star,0,0,,,,,,,,,,,,,,,,repeat,number,NA,k,0.9107,Lo,,,,,,2,,,,,,,,low,2,0,2,0,1,,,,,,,,,
293293,2022-09-25_21h37.56.102,vts_reward_expectancy,2022.2.4,Win32,59.68367651,Chrome,1504,1003,,,,,1,789,,,,,,,,,,,,,,,,,Y,167,circle,1,1,,,,,,,,,,,,,,,,repeat,number,numRpt,k,0.5041,Lo,,,,,,2,,,,,,,,low,3,0,3,0,1,,,,,,,,,
293293,2022-09-25_21h37.56.102,vts_reward_expectancy,2022.2.4,Win32,59.68367651,Chrome,1504,1003,,,,,10,799,,,,,,,,,,,,,,,,,D,160,star,1,0,,,,,,,,,,,,,,,,repeat,number,numRpt,k,0.4359,Hi,,,,,,2,,,,,,,,low,4,0,4,0,1,,,,,,,,,
293293,2022-09-25_21h37.56.102,vts_reward_expectancy,2022.2.4,Win32,59.68367651,Chrome,1504,1003,,,,,10,809,,,,,,,,,,,,,,,,,W,181,circle,1,0,,,,,,,,,,,,,,,,repeat,number,numRpt,k,0.4626,Lo,,,,,,2,,,,,,,,low,5,0,5,0,1,,,,,,,,,
293293,2022-09-25_21h37.56.102,vts_reward_expectancy,2022.2.4,Win32,59.68367651,Chrome,1504,1003,,,,,10,819,,,,,,,,,,,,,,,,,B,174,star,1,0,,,,,,,,,,,,,,,,repeat,number,numRpt,k,0.445,Hi,,,,,,2,,,,,,,,low,6,0,6,0,1,,,,,,,,,
293293,2022-09-25_21h37.56.102,vts_reward_expectancy,2022.2.4,Win32,59.68367651,Chrome,1504,1003,,,,,1,820,,,,,,,,,,,,,,,,,F,139,circle,1,0,,,,,,,,,,,,,,,,repeat,number,numRpt,j,0.5002,Lo,,,,,,2,,,,,,,,low,7,0,7,0,1,,,,,,,,,
293293,2022-09-25_21h37.56.102,vts_reward_expectancy,2022.2.4,Win32,59.68367651,Chrome,1504,1003,,,,,1,821,,,,,,,,,,,,,,,,,S,146,star,1,0,,,,,,,,,,,,,,,,repeat,number,numRpt,j,0.4848,Hi,,,,,,2,,,,,,,,low,8,0,8,0,1,,,,,,,,,
293293,2022-09-25_21h37.56.102,vts_reward_expectancy,2022.2.4,Win32,59.68367651,Chrome,1504,1003,,,,,0,821,,,,,,,,,,,,,,,,,U,132,circle,0,0,,,,,,,,,,,,,,,,repeat,number,NA,k,0.3112,Hi,,,,,,2,,,,,,,,low,9,0,9,0,1,,,,,,,,,
293293,2022-09-25_21h37.56.102,vts_reward_expectancy,2022.2.4,Win32,59.68367651,Chrome,1504,1003,,,,,10,831,,,,,,,,,,,,,,,,,H,125,star,1,1,,,,,,,,,,,,,,,,repeat,number,numRpt,j,0.4317,Hi,,,,,,2,,,,,,,,low,10,0,10,0,1,,,,,,,,,
293293,2022-09-25_21h37.56.102,vts_reward_expectancy,2022.2.4,Win32,59.68367651,Chrome,1504,1003,,,,,0,831,,,,,,,,,,,,,,,,,Y,167,circle,0,0,,,,,,,,,,,,,,,,repeat,number,NA,j,0.4622,Hi,,,,,,2,,,,,,,,low,11,0,11,0,1,,,,,,,,,
293293,2022-09-25_21h37.56.102,vts_reward_expectancy,2022.2.4,Win32,59.68367651,Chrome,1504,1003,,,,,10,841,,,,,,,,,,,,,,,,,D,160,circle,1,1,,,,,,,,,,,,,,,,repeat,number,numRpt,k,0.5968,Lo,,,,,,2,,,,,,,,low,12,0,12,0,1,,,,,,,,,
293293,2022-09-25_21h37.56.102,vts_reward_expectancy,2022.2.4,Win32,59.68367651,Chrome,1504,1003,,,,,1,842,,,,,,,,,,,,,,,,,W,181,star,1,0,,,,,,,,,,,,,,,,repeat,number,numRpt,k,0.3956,Hi,,,,,,2,,,,,,,,low,13,0,13,0,1,,,,,,,,,
293293,2022-09-25_21h37.56.102,vts_reward_expectancy,2022.2.4,Win32,59.68367651,Chrome,1504,1003,,,,,0,842,,,,,,,,,,,,,,,,,B,174,circle,0,0,,,,,,,,,,,,,,,,repeat,number,NA,j,0.4936,Hi,,,,,,2,,,,,,,,low,14,0,14,0,1,,,,,,,,,
293293,2022-09-25_21h37.56.102,vts_reward_expectancy,2022.2.4,Win32,59.68367651,Chrome,1504,1003,,,,,0,842,,,,,,,,,,,,,,,,,F,139,star,1,1,,,,,,,,,,,,,,,,repeat,number,numRpt,j,0.6654,Hi,,,,,,2,,,,,,,,low,15,0,15,0,1,,,,,,,,,
293293,2022-09-25_21h37.56.102,vts_reward_expectancy,2022.2.4,Win32,59.68367651,Chrome,1504,1003,,,,,0,842,,,,,,,,,,,,,,,,,W,167,circle,0,0,,,,,,,,,,,,,,,,repeat,number,NA,j,0.4018,Hi,,,,,,2,,,,,,,,low,16,0,16,0,1,,,,,,,,,
293293,2022-09-25_21h37.56.102,vts_reward_expectancy,2022.2.4,Win32,59.68367651,Chrome,1504,1003,,,,,10,852,,,,,,,,,,,,,,,,,B,125,star,1,1,,,,,,,,,,,,,,,,repeat,number,numRpt,j,0.4119,Hi,,,,,,2,,,,,,,,low,17,0,17,0,1,,,,,,,,,
293293,2022-09-25_21h37.56.102,vts_reward_expectancy,2022.2.4,Win32,59.68367651,Chrome,1504,1003,,,,,1,853,,,,,,,,,,,,,,,,,S,146,circle,1,0,,,,,,,,,,,,,,,,repeat,number,numRpt,j,0.5957,Lo,,,,,,2,,,,,,,,low,18,0,18,0,1,,,,,,,,,
293293,2022-09-25_21h37.56.102,vts_reward_expectancy,2022.2.4,Win32,59.68367651,Chrome,1504,1003,,,,,10,863,,,,,,,,,,,,,,,,,Y,160,star,1,0,,,,,,,,,,,,,,,,repeat,number,numRpt,k,0.4967,Hi,,,,,,2,,,,,,,,low,19,0,19,0,1,,,,,,,,,
293293,2022-09-25_21h37.56.102,vts_reward_expectancy,2022.2.4,Win32,59.68367651,Chrome,1504,1003,,,,,0,863,,,,,,,,,,,,,,,,,U,174,star,0,0,,,,,,,,,,,,,,,,repeat,number,NA,j,0.3631,Hi,,,,,,2,,,,,,,,low,20,0,20,0,1,,,,,,,,,
293293,2022-09-25_21h37.56.102,vts_reward_expectancy,2022.2.4,Win32,59.68367651,Chrome,1504,1003,,,,,10,873,,,,,,,,,,,,,,,,,H,132,circle,1,1,,,,,,,,,,,,,,,,repeat,number,numRpt,j,0.4976,Lo,,,,,,2,,,,,,,,low,21,0,21,0,1,,,,,,,,,
293293,2022-09-25_21h37.56.102,vts_reward_expectancy,2022.2.4,Win32,59.68367651,Chrome,1504,1003,,,,,1,874,,,,,,,,,,,,,,,,,F,139,circle,1,0,,,,,,,,,,,,,,,,repeat,number,numRpt,j,0.4619,Lo,,,,,,2,,,,,,,,low,22,0,22,0,1,,,,,,,,,
293293,2022-09-25_21h37.56.102,vts_reward_expectancy,2022.2.4,Win32,59.68367651,Chrome,1504,1003,,,,,10,884,,,,,,,,,,,,,,,,,D,181,star,1,0,,,,,,,,,,,,,,,,repeat,number,numRpt,k,0.4015,Hi,,,,,,2,,,,,,,,low,23,0,23,0,1,,,,,,,,,
293293,2022-09-25_21h37.56.102,vts_reward_expectancy,2022.2.4,Win32,59.68367651,Chrome,1504,1003,,,,,1,885,,,,,,,,,,,,,,,,,U,146,star,1,0,,,,,,,,,,,,,,,,repeat,number,numRpt,j,0.3798,Hi,,,,,,2,,,,,,,,low,24,0,24,0,1,,,,,,,,,
293293,2022-09-25_21h37.56.102,vts_reward_expectancy,2022.2.4,Win32,59.68367651,Chrome,1504,1003,,,,,10,895,,,,,,,,,,,,,,,,,H,167,circle,1,0,,,,,,,,,,,,,,,,repeat,number,numRpt,k,0.4141,Lo,,,,,,2,,,,,,,,low,25,0,25,0,1,,,,,,,,,
293293,2022-09-25_21h37.56.102,vts_reward_expectancy,2022.2.4,Win32,59.68367651,Chrome,1504,1003,,,,,10,905,,,,,,,,,,,,,,,,,B,181,circle,1,0,,,,,,,,,,,,,,,,repeat,number,numRpt,k,0.4984,Lo,,,,,,2,,,,,,,,low,26,0,26,0,1,,,,,,,,,
293293,2022-09-25_21h37.56.102,vts_reward_expectancy,2022.2.4,Win32,59.68367651,Chrome,1504,1003,,,,,10,915,,,,,,,,,,,,,,,,,S,132,star,1,0,,,,,,,,,,,,,,,,repeat,number,numRpt,j,0.4292,Hi,,,,,,2,,,,,,,,low,27,0,27,0,1,,,,,,,,,
293293,2022-09-25_21h37.56.102,vts_reward_expectancy,2022.2.4,Win32,59.68367651,Chrome,1504,1003,,,,,10,925,,,,,,,,,,,,,,,,,D,125,star,1,0,,,,,,,,,,,,,,,,repeat,number,numRpt,j,0.3644,Hi,,,,,,2,,,,,,,,low,28,0,28,0,1,,,,,,,,,
293293,2022-09-25_21h37.56.102,vts_reward_expectancy,2022.2.4,Win32,59.68367651,Chrome,1504,1003,,,,,1,926,,,,,,,,,,,,,,,,,W,160,circle,1,0,,,,,,,,,,,,,,,,repeat,number,numRpt,k,0.7302,Lo,,,,,,2,,,,,,,,low,29,0,29,0,1,,,,,,,,,
293293,2022-09-25_21h37.56.102,vts_reward_expectancy,2022.2.4,Win32,59.68367651,Chrome,1504,1003,,,,,1,927,,,,,,,,,,,,,,,,,Y,174,circle,1,0,,,,,,,,,,,,,,,,repeat,number,numRpt,k,0.5787,Lo,,,,,,2,,,,,,,,low,30,0,30,0,1,,,,,,,,,
293293,2022-09-25_21h37.56.102,vts_reward_expectancy,2022.2.4,Win32,59.68367651,Chrome,1504,1003,,,,,10,937,,,,,,,,,,,,,,,,,F,139,star,1,0,,,,,,,,,,,,,,,,repeat,number,numRpt,j,0.53,Hi,,,,,,2,,,,,,,,low,31,0,31,0,1,,,,,,,,,
293293,2022-09-25_21h37.56.102,vts_reward_expectancy,2022.2.4,Win32,59.68367651,Chrome,1504,1003,,,,,0,937,,,,,,,,,,,,,,,,,Y,146,circle,0,0,,,,,,,,,,,,,,,,repeat,number,NA,k,0.8188,Hi,,,,,,3,,,,,,space,8.3312,low,0,0,0,0,1,,,,,,,,,
293293,2022-09-25_21h37.56.102,vts_reward_expectancy,2022.2.4,Win32,59.68367651,Chrome,1504,1003,,,,,0,937,,,,,,,,,,,,,,,,,F,167,star,1,1,,,,,,,,,,,,,,,,repeat,number,numRpt,k,0.5781,Hi,,,,,,3,,,,,,,,low,1,0,1,0,1,,,,,,,,,
293293,2022-09-25_21h37.56.102,vts_reward_expectancy,2022.2.4,Win32,59.68367651,Chrome,1504,1003,,,,,10,947,,,,,,,,,,,,,,,,,S,139,circle,1,0,,,,,,,,,,,,,,,,repeat,number,numRpt,j,0.388,Lo,,,,,,3,,,,,,,,low,2,0,2,0,1,,,,,,,,,
293293,2022-09-25_21h37.56.102,vts_reward_expectancy,2022.2.4,Win32,59.68367651,Chrome,1504,1003,,,,,0,947,,,,,,,,,,,,,,,,,H,181,star,0,0,,,,,,,,,,,,,,,,repeat,number,NA,j,0.4957,Lo,,,,,,3,,,,,,,,low,3,0,3,0,1,,,,,,,,,
293293,2022-09-25_21h37.56.102,vts_reward_expectancy,2022.2.4,Win32,59.68367651,Chrome,1504,1003,,,,,0,947,,,,,,,,,,,,,,,,,W,174,star,1,1,,,,,,,,,,,,,,,,repeat,number,numRpt,k,0.5792,Hi,,,,,,3,,,,,,,,low,4,0,4,0,1,,,,,,,,,
293293,2022-09-25_21h37.56.102,vts_reward_expectancy,2022.2.4,Win32,59.68367651,Chrome,1504,1003,,,,,0,947,,,,,,,,,,,,,,,,,D,160,circle,0,0,,,,,,,,,,,,,,,,repeat,number,NA,j,0.3322,Hi,,,,,,3,,,,,,,,low,5,0,5,0,1,,,,,,,,,
293293,2022-09-25_21h37.56.102,vts_reward_expectancy,2022.2.4,Win32,59.68367651,Chrome,1504,1003,,,,,10,957,,,,,,,,,,,,,,,,,U,132,star,1,1,,,,,,,,,,,,,,,,repeat,number,numRpt,j,0.365,Hi,,,,,,3,,,,,,,,low,6,0,6,0,1,,,,,,,,,
293293,2022-09-25_21h37.56.102,vts_reward_expectancy,2022.2.4,Win32,59.68367651,Chrome,1504,1003,,,,,0,957,,,,,,,,,,,,,,,,,B,125,circle,0,0,,,,,,,,,,,,,,,,repeat,number,NA,k,0.3704,Hi,,,,,,3,,,,,,,,low,7,0,7,0,1,,,,,,,,,
293293,2022-09-25_21h37.56.102,vts_reward_expectancy,2022.2.4,Win32,59.68367651,Chrome,1504,1003,,,,,0,957,,,,,,,,,,,,,,,,,Y,146,circle,0,1,,,,,,,,,,,,,,,,repeat,number,NA,k,0.5015,Hi,,,,,,3,,,,,,,,low,8,0,8,0,1,,,,,,,,,
293293,2022-09-25_21h37.56.102,vts_reward_expectancy,2022.2.4,Win32,59.68367651,Chrome,1504,1003,,,,,0,957,,,,,,,,,,,,,,,,,F,167,star,0,1,,,,,,,,,,,,,,,,repeat,number,NA,j,0.2535,Hi,,,,,,3,,,,,,,,low,9,0,9,0,1,,,,,,,,,
293293,2022-09-25_21h37.56.102,vts_reward_expectancy,2022.2.4,Win32,59.68367651,Chrome,1504,1003,,,,,1,958,,,,,,,,,,,,,,,,,S,139,circle,1,1,,,,,,,,,,,,,,,,repeat,number,numRpt,j,0.3971,Lo,,,,,,3,,,,,,,,low,10,0,10,0,1,,,,,,,,,
293293,2022-09-25_21h37.56.102,vts_reward_expectancy,2022.2.4,Win32,59.68367651,Chrome,1504,1003,,,,,0,958,,,,,,,,,,,,,,,,,H,181,star,1,0,,,,,,,,,,,,,,,,repeat,number,numRpt,k,0.5519,Hi,,,,,,3,,,,,,,,low,11,0,11,0,1,,,,,,,,,
293293,2022-09-25_21h37.56.102,vts_reward_expectancy,2022.2.4,Win32,59.68367651,Chrome,1504,1003,,,,,0,958,,,,,,,,,,,,,,,,,W,174,star,1,0,,,,,,,,,,,,,,,,repeat,number,numRpt,k,0.5111,Hi,,,,,,3,,,,,,,,low,12,0,12,0,1,,,,,,,,,
293293,2022-09-25_21h37.56.102,vts_reward_expectancy,2022.2.4,Win32,59.68367651,Chrome,1504,1003,,,,,1,959,,,,,,,,,,,,,,,,,D,160,circle,1,0,,,,,,,,,,,,,,,,repeat,number,numRpt,k,0.5505,Lo,,,,,,3,,,,,,,,low,13,0,13,0,1,,,,,,,,,
293293,2022-09-25_21h37.56.102,vts_reward_expectancy,2022.2.4,Win32,59.68367651,Chrome,1504,1003,,,,,0,959,,,,,,,,,,,,,,,,,U,132,star,1,0,,,,,,,,,,,,,,,,repeat,number,numRpt,j,0.5283,Hi,,,,,,3,,,,,,,,low,14,0,14,0,1,,,,,,,,,
293293,2022-09-25_21h37.56.102,vts_reward_expectancy,2022.2.4,Win32,59.68367651,Chrome,1504,1003,,,,,0,959,,,,,,,,,,,,,,,,,B,125,circle,0,0,,,,,,,,,,,,,,,,repeat,number,NA,k,0.5791,Hi,,,,,,3,,,,,,,,low,15,0,15,0,1,,,,,,,,,
293293,2022-09-25_21h37.56.102,vts_reward_expectancy,2022.2.4,Win32,59.68367651,Chrome,1504,1003,,,,,1,960,,,,,,,,,,,,,,,,,U,125,circle,1,1,,,,,,,,,,,,,,,,repeat,number,numRpt,j,0.5299,Lo,,,,,,3,,,,,,,,low,16,0,16,0,1,,,,,,,,,
293293,2022-09-25_21h37.56.102,vts_reward_expectancy,2022.2.4,Win32,59.68367651,Chrome,1504,1003,,,,,10,970,,,,,,,,,,,,,,,,,Y,139,star,1,0,,,,,,,,,,,,,,,,repeat,number,numRpt,j,0.3793,Hi,,,,,,3,,,,,,,,low,17,0,17,0,1,,,,,,,,,
293293,2022-09-25_21h37.56.102,vts_reward_expectancy,2022.2.4,Win32,59.68367651,Chrome,1504,1003,,,,,0,970,,,,,,,,,,,,,,,,,B,174,circle,0,0,,,,,,,,,,,,,,,,repeat,number,NA,j,0.6549,Hi,,,,,,3,,,,,,,,low,18,0,18,0,1,,,,,,,,,
293293,2022-09-25_21h37.56.102,vts_reward_expectancy,2022.2.4,Win32,59.68367651,Chrome,1504,1003,,,,,0,970,,,,,,,,,,,,,,,,,W,181,star,1,1,,,,,,,,,,,,,,,,repeat,number,numRpt,k,0.5471,Hi,,,,,,3,,,,,,,,low,19,0,19,0,1,,,,,,,,,
293293,2022-09-25_21h37.56.102,vts_reward_expectancy,2022.2.4,Win32,59.68367651,Chrome,1504,1003,,,,,10,980,,,,,,,,,,,,,,,,,D,132,circle,1,0,,,,,,,,,,,,,,,,repeat,number,numRpt,j,0.5015,Lo,,,,,,3,,,,,,,,low,20,0,20,0,1,,,,,,,,,
293293,2022-09-25_21h37.56.102,vts_reward_expectancy,2022.2.4,Win32,59.68367651,Chrome,1504,1003,,,,,0,980,,,,,,,,,,,,,,,,,H,167,star,1,0,,,,,,,,,,,,,,,,repeat,number,numRpt,k,0.6623,Hi,,,,,,3,,,,,,,,low,21,0,21,0,1,,,,,,,,,
293293,2022-09-25_21h37.56.102,vts_reward_expectancy,2022.2.4,Win32,59.68367651,Chrome,1504,1003,,,,,0,980,,,,,,,,,,,,,,,,,F,160,star,1,0,,,,,,,,,,,,,,,,repeat,number,numRpt,k,0.4471,Hi,,,,,,3,,,,,,,,low,22,0,22,0,1,,,,,,,,,
293293,2022-09-25_21h37.56.102,vts_reward_expectancy,2022.2.4,Win32,59.68367651,Chrome,1504,1003,,,,,1,981,,,,,,,,,,,,,,,,,S,146,circle,1,0,,,,,,,,,,,,,,,,repeat,number,numRpt,j,0.319,Lo,,,,,,3,,,,,,,,low,23,0,23,0,1,,,,,,,,,
293293,2022-09-25_21h37.56.102,vts_reward_expectancy,2022.2.4,Win32,59.68367651,Chrome,1504,1003,,,,,1,982,,,,,,,,,,,,,,,,,H,125,star,1,0,,,,,,,,,,,,,,,,repeat,number,numRpt,j,0.4136,Hi,,,,,,3,,,,,,,,low,24,0,24,0,1,,,,,,,,,
293293,2022-09-25_21h37.56.102,vts_reward_expectancy,2022.2.4,Win32,59.68367651,Chrome,1504,1003,,,,,0,982,,,,,,,,,,,,,,,,,S,167,circle,0,0,,,,,,,,,,,,,,,,repeat,number,NA,j,0.4687,Hi,,,,,,3,,,,,,,,low,25,0,25,0,1,,,,,,,,,
293293,2022-09-25_21h37.56.102,vts_reward_expectancy,2022.2.4,Win32,59.68367651,Chrome,1504,1003,,,,,0,982,,,,,,,,,,,,,,,,,W,139,star,1,1,,,,,,,,,,,,,,,,repeat,number,numRpt,j,0.4471,Hi,,,,,,3,,,,,,,,low,26,0,26,0,1,,,,,,,,,
293293,2022-09-25_21h37.56.102,vts_reward_expectancy,2022.2.4,Win32,59.68367651,Chrome,1504,1003,,,,,0,982,,,,,,,,,,,,,,,,,Y,174,circle,0,0,,,,,,,,,,,,,,,,repeat,number,NA,j,0.3716,Hi,,,,,,3,,,,,,,,low,27,0,27,0,1,,,,,,,,,
293293,2022-09-25_21h37.56.102,vts_reward_expectancy,2022.2.4,Win32,59.68367651,Chrome,1504,1003,,,,,10,992,,,,,,,,,,,,,,,,,U,160,star,1,1,,,,,,,,,,,,,,,,repeat,number,numRpt,k,0.4288,Hi,,,,,,3,,,,,,,,low,28,0,28,0,1,,,,,,,,,
293293,2022-09-25_21h37.56.102,vts_reward_expectancy,2022.2.4,Win32,59.68367651,Chrome,1504,1003,,,,,1,993,,,,,,,,,,,,,,,,,B,132,circle,1,0,,,,,,,,,,,,,,,,repeat,number,numRpt,j,0.4137,Lo,,,,,,3,,,,,,,,low,29,0,29,0,1,,,,,,,,,
293293,2022-09-25_21h37.56.102,vts_reward_expectancy,2022.2.4,Win32,59.68367651,Chrome,1504,1003,,,,,10,1003,,,,,,,,,,,,,,,,,F,181,star,1,0,,,,,,,,,,,,,,,,repeat,number,numRpt,k,0.3212,Hi,,,,,,3,,,,,,,,low,30,0,30,0,1,,,,,,,,,
293293,2022-09-25_21h37.56.102,vts_reward_expectancy,2022.2.4,Win32,59.68367651,Chrome,1504,1003,,,,,0,1003,,,,,,,,,,,,,,,,,D,146,circle,0,0,,,,,,,,,,,,,,,,repeat,number,NA,k,0.4614,Hi,,,,,,3,,,,,,,,low,31,0,31,0,1,,,,,,,,,
293293,2022-09-25_21h37.56.102,vts_reward_expectancy,2022.2.4,Win32,59.68367651,Chrome,1504,1003,,,,,1,1004,,,,,,,,,,,,,,,,,W,132,triangle,1,1,,,,,,,,,,,,,,,,repeat,number,numRpt,j,0.4275,Lo,,,,,,4,,,,,,space,105.1423,high,0,0,0,0,1,,,,,,,,,
293293,2022-09-25_21h37.56.102,vts_reward_expectancy,2022.2.4,Win32,59.68367651,Chrome,1504,1003,,,,,0,1004,,,,,,,,,,,,,,,,,D,146,hexagon,0,0,,,,,,,,,,,,,,,,repeat,number,NA,k,0.4287,Lo,,,,,,4,,,,,,,,high,1,0,1,0,1,,,,,,,,,
293293,2022-09-25_21h37.56.102,vts_reward_expectancy,2022.2.4,Win32,59.68367651,Chrome,1504,1003,,,,,1,1005,,,,,,,,,,,,,,,,,H,125,triangle,1,1,,,,,,,,,,,,,,,,repeat,number,numRpt,j,0.5127,Lo,,,,,,4,,,,,,,,high,2,0,2,0,1,,,,,,,,,
293293,2022-09-25_21h37.56.102,vts_reward_expectancy,2022.2.4,Win32,59.68367651,Chrome,1504,1003,,,,,0,1005,,,,,,,,,,,,,,,,,U,139,hexagon,1,0,,,,,,,,,,,,,,,,repeat,number,numRpt,j,0.5833,Hi,,,,,,4,,,,,,,,high,3,0,3,0,1,,,,,,,,,
293293,2022-09-25_21h37.56.102,vts_reward_expectancy,2022.2.4,Win32,59.68367651,Chrome,1504,1003,,,,,0,1005,,,,,,,,,,,,,,,,,Y,167,hexagon,1,0,,,,,,,,,,,,,,,,repeat,number,numRpt,k,0.4315,Hi,,,,,,4,,,,,,,,high,4,0,4,0,1,,,,,,,,,
293293,2022-09-25_21h37.56.102,vts_reward_expectancy,2022.2.4,Win32,59.68367651,Chrome,1504,1003,,,,,0,1005,,,,,,,,,,,,,,,,,S,174,triangle,0,0,,,,,,,,,,,,,,,,repeat,number,NA,j,0.3946,Hi,,,,,,4,,,,,,,,high,5,0,5,0,1,,,,,,,,,
293293,2022-09-25_21h37.56.102,vts_reward_expectancy,2022.2.4,Win32,59.68367651,Chrome,1504,1003,,,,,0,1005,,,,,,,,,,,,,,,,,F,160,hexagon,1,1,,,,,,,,,,,,,,,,repeat,number,numRpt,k,0.579,Hi,,,,,,4,,,,,,,,high,6,0,6,0,1,,,,,,,,,
293293,2022-09-25_21h37.56.102,vts_reward_expectancy,2022.2.4,Win32,59.68367651,Chrome,1504,1003,,,,,0,1005,,,,,,,,,,,,,,,,,B,181,triangle,0,0,,,,,,,,,,,,,,,,repeat,number,NA,j,0.5881,Hi,,,,,,4,,,,,,,,high,7,0,7,0,1,,,,,,,,,
293293,2022-09-25_21h37.56.102,vts_reward_expectancy,2022.2.4,Win32,59.68367651,Chrome,1504,1003,,,,,1,1006,,,,,,,,,,,,,,,,,W,132,triangle,1,1,,,,,,,,,,,,,,,,repeat,number,numRpt,j,0.5878,Lo,,,,,,4,,,,,,,,high,8,0,8,0,1,,,,,,,,,
293293,2022-09-25_21h37.56.102,vts_reward_expectancy,2022.2.4,Win32,59.68367651,Chrome,1504,1003,,,,,0,1006,,,,,,,,,,,,,,,,,D,146,hexagon,0,0,,,,,,,,,,,,,,,,repeat,number,NA,k,0.4334,Lo,,,,,,4,,,,,,,,high,9,0,9,0,1,,,,,,,,,
293293,2022-09-25_21h37.56.102,vts_reward_expectancy,2022.2.4,Win32,59.68367651,Chrome,1504,1003,,,,,0,1006,,,,,,,,,,,,,,,,,H,125,hexagon,1,1,,,,,,,,,,,,,,,,repeat,number,numRpt,j,0.5295,Hi,,,,,,4,,,,,,,,high,10,0,10,0,1,,,,,,,,,
293293,2022-09-25_21h37.56.102,vts_reward_expectancy,2022.2.4,Win32,59.68367651,Chrome,1504,1003,,,,,1,1007,,,,,,,,,,,,,,,,,U,139,triangle,1,0,,,,,,,,,,,,,,,,repeat,number,numRpt,j,0.4642,Lo,,,,,,4,,,,,,,,high,11,0,11,0,1,,,,,,,,,
293293,2022-09-25_21h37.56.102,vts_reward_expectancy,2022.2.4,Win32,59.68367651,Chrome,1504,1003,,,,,10,1017,,,,,,,,,,,,,,,,,Y,167,triangle,1,0,,,,,,,,,,,,,,,,repeat,number,numRpt,k,0.7143,Lo,,,,,,4,,,,,,,,high,12,0,12,0,1,,,,,,,,,
293293,2022-09-25_21h37.56.102,vts_reward_expectancy,2022.2.4,Win32,59.68367651,Chrome,1504,1003,,,,,0,1017,,,,,,,,,,,,,,,,,S,174,hexagon,0,0,,,,,,,,,,,,,,,,repeat,number,NA,j,0.4433,Lo,,,,,,4,,,,,,,,high,13,0,13,0,1,,,,,,,,,
293293,2022-09-25_21h37.56.102,vts_reward_expectancy,2022.2.4,Win32,59.68367651,Chrome,1504,1003,,,,,1,1018,,,,,,,,,,,,,,,,,F,160,triangle,1,1,,,,,,,,,,,,,,,,repeat,number,numRpt,k,0.5297,Lo,,,,,,4,,,,,,,,high,14,0,14,0,1,,,,,,,,,
293293,2022-09-25_21h37.56.102,vts_reward_expectancy,2022.2.4,Win32,59.68367651,Chrome,1504,1003,,,,,0,1018,,,,,,,,,,,,,,,,,B,181,hexagon,1,0,,,,,,,,,,,,,,,,repeat,number,numRpt,k,0.4218,Hi,,,,,,4,,,,,,,,high,15,0,15,0,1,,,,,,,,,
293293,2022-09-25_21h37.56.102,vts_reward_expectancy,2022.2.4,Win32,59.68367651,Chrome,1504,1003,,,,,0,1018,,,,,,,,,,,,,,,,,F,139,hexagon,0,0,,,,,,,,,,,,,,,,repeat,number,NA,k,0.3013,Hi,,,,,,4,,,,,,,,high,16,0,16,0,1,,,,,,,,,
293293,2022-09-25_21h37.56.102,vts_reward_expectancy,2022.2.4,Win32,59.68367651,Chrome,1504,1003,,,,,0,1018,,,,,,,,,,,,,,,,,D,174,triangle,0,1,,,,,,,,,,,,,,,,repeat,number,NA,j,0.4467,Hi,,,,,,4,,,,,,,,high,17,0,17,0,1,,,,,,,,,
293293,2022-09-25_21h37.56.102,vts_reward_expectancy,2022.2.4,Win32,59.68367651,Chrome,1504,1003,,,,,0,1018,,,,,,,,,,,,,,,,,H,125,triangle,0,1,,,,,,,,,,,,,,,,repeat,number,NA,k,0.4863,Hi,,,,,,4,,,,,,,,high,18,0,18,0,1,,,,,,,,,
293293,2022-09-25_21h37.56.102,vts_reward_expectancy,2022.2.4,Win32,59.68367651,Chrome,1504,1003,,,,,0,1018,,,,,,,,,,,,,,,,,U,167,hexagon,1,1,,,,,,,,,,,,,,,,repeat,number,numRpt,k,0.4448,Hi,,,,,,4,,,,,,,,high,19,0,19,0,1,,,,,,,,,
293293,2022-09-25_21h37.56.102,vts_reward_expectancy,2022.2.4,Win32,59.68367651,Chrome,1504,1003,,,,,1,1019,,,,,,,,,,,,,,,,,B,132,triangle,1,0,,,,,,,,,,,,,,,,repeat,number,numRpt,j,0.4804,Lo,,,,,,4,,,,,,,,high,20,0,20,0,1,,,,,,,,,
293293,2022-09-25_21h37.56.102,vts_reward_expectancy,2022.2.4,Win32,59.68367651,Chrome,1504,1003,,,,,0,1019,,,,,,,,,,,,,,,,,S,146,hexagon,0,0,,,,,,,,,,,,,,,,repeat,number,NA,k,0.4467,Lo,,,,,,4,,,,,,,,high,21,0,21,0,1,,,,,,,,,
293293,2022-09-25_21h37.56.102,vts_reward_expectancy,2022.2.4,Win32,59.68367651,Chrome,1504,1003,,,,,1,1020,,,,,,,,,,,,,,,,,Y,160,triangle,1,1,,,,,,,,,,,,,,,,repeat,number,numRpt,k,0.4806,Lo,,,,,,4,,,,,,,,high,22,0,22,0,1,,,,,,,,,
293293,2022-09-25_21h37.56.102,vts_reward_expectancy,2022.2.4,Win32,59.68367651,Chrome,1504,1003,,,,,0,1020,,,,,,,,,,,,,,,,,W,181,hexagon,0,0,,,,,,,,,,,,,,,,repeat,number,NA,j,0.4137,Lo,,,,,,4,,,,,,,,high,23,0,23,0,1,,,,,,,,,
293293,2022-09-25_21h37.56.102,vts_reward_expectancy,2022.2.4,Win32,59.68367651,Chrome,1504,1003,,,,,10,1030,,,,,,,,,,,,,,,,,W,125,triangle,1,1,,,,,,,,,,,,,,,,repeat,number,numRpt,j,0.5482,Lo,,,,,,4,,,,,,,,high,24,0,24,0,1,,,,,,,,,
293293,2022-09-25_21h37.56.102,vts_reward_expectancy,2022.2.4,Win32,59.68367651,Chrome,1504,1003,,,,,0,1030,,,,,,,,,,,,,,,,,S,132,hexagon,0,0,,,,,,,,,,,,,,,,repeat,number,NA,k,0.6628,Lo,,,,,,4,,,,,,,,high,25,0,25,0,1,,,,,,,,,
293293,2022-09-25_21h37.56.102,vts_reward_expectancy,2022.2.4,Win32,59.68367651,Chrome,1504,1003,,,,,0,1030,,,,,,,,,,,,,,,,,F,167,hexagon,1,1,,,,,,,,,,,,,,,,repeat,number,numRpt,k,0.5679,Hi,,,,,,4,,,,,,,,high,26,0,26,0,1,,,,,,,,,
293293,2022-09-25_21h37.56.102,vts_reward_expectancy,2022.2.4,Win32,59.68367651,Chrome,1504,1003,,,,,1,1031,,,,,,,,,,,,,,,,,U,181,triangle,1,0,,,,,,,,,,,,,,,,repeat,number,numRpt,k,0.797,Lo,,,,,,4,,,,,,,,high,27,0,27,0,1,,,,,,,,,
293293,2022-09-25_21h37.56.102,vts_reward_expectancy,2022.2.4,Win32,59.68367651,Chrome,1504,1003,,,,,0,1031,,,,,,,,,,,,,,,,,B,139,hexagon,1,0,,,,,,,,,,,,,,,,repeat,number,numRpt,j,0.7329,Hi,,,,,,4,,,,,,,,high,28,0,28,0,1,,,,,,,,,
293293,2022-09-25_21h37.56.102,vts_reward_expectancy,2022.2.4,Win32,59.68367651,Chrome,1504,1003,,,,,10,1041,,,,,,,,,,,,,,,,,H,146,triangle,1,0,,,,,,,,,,,,,,,,repeat,number,numRpt,j,0.6877,Lo,,,,,,4,,,,,,,,high,29,0,29,0,1,,,,,,,,,
293293,2022-09-25_21h37.56.102,vts_reward_expectancy,2022.2.4,Win32,59.68367651,Chrome,1504,1003,,,,,0,1041,,,,,,,,,,,,,,,,,Y,160,triangle,0,0,,,,,,,,,,,,,,,,repeat,number,NA,j,0.5008,Lo,,,,,,4,,,,,,,,high,30,0,30,0,1,,,,,,,,,
293293,2022-09-25_21h37.56.102,vts_reward_expectancy,2022.2.4,Win32,59.68367651,Chrome,1504,1003,,,,,0,1041,,,,,,,,,,,,,,,,,D,174,hexagon,1,1,,,,,,,,,,,,,,,,repeat,number,numRpt,k,0.6122,Hi,,,,,,4,,,,,,,,high,31,0,31,0,1,,,,,,,,,
293293,2022-09-25_21h37.56.102,vts_reward_expectancy,2022.2.4,Win32,59.68367651,Chrome,1504,1003,,,,,1,1042,,,,,,,,,,,,,,,,,Y,139,triangle,1,0,,,,,,,,,,,,,,,,repeat,number,numRpt,j,1.0432,Lo,,,,,,5,,,,,,space,3.0069,high,0,0,0,0,1,,,,,,,,,
293293,2022-09-25_21h37.56.102,vts_reward_expectancy,2022.2.4,Win32,59.68367651,Chrome,1504,1003,,,,,0,1042,,,,,,,,,,,,,,,,,B,146,hexagon,1,0,,,,,,,,,,,,,,,,repeat,number,numRpt,j,0.5121,Hi,,,,,,5,,,,,,,,high,1,0,1,0,1,,,,,,,,,
293293,2022-09-25_21h37.56.102,vts_reward_expectancy,2022.2.4,Win32,59.68367651,Chrome,1504,1003,,,,,10,1052,,,,,,,,,,,,,,,,,H,132,triangle,1,0,,,,,,,,,,,,,,,,repeat,number,numRpt,j,0.4615,Lo,,,,,,5,,,,,,,,high,2,0,2,0,1,,,,,,,,,
293293,2022-09-25_21h37.56.102,vts_reward_expectancy,2022.2.4,Win32,59.68367651,Chrome,1504,1003,,,,,10,1062,,,,,,,,,,,,,,,,,S,125,hexagon,1,0,,,,,,,,,,,,,,,,repeat,number,numRpt,j,0.4506,Hi,,,,,,5,,,,,,,,high,3,0,3,0,1,,,,,,,,,
293293,2022-09-25_21h37.56.102,vts_reward_expectancy,2022.2.4,Win32,59.68367651,Chrome,1504,1003,,,,,10,1072,,,,,,,,,,,,,,,,,D,167,hexagon,1,0,,,,,,,,,,,,,,,,repeat,number,numRpt,k,0.4296,Hi,,,,,,5,,,,,,,,high,4,0,4,0,1,,,,,,,,,
293293,2022-09-25_21h37.56.102,vts_reward_expectancy,2022.2.4,Win32,59.68367651,Chrome,1504,1003,,,,,1,1073,,,,,,,,,,,,,,,,,W,174,triangle,1,0,,,,,,,,,,,,,,,,repeat,number,numRpt,k,0.4616,Lo,,,,,,5,,,,,,,,high,5,0,5,0,1,,,,,,,,,
293293,2022-09-25_21h37.56.102,vts_reward_expectancy,2022.2.4,Win32,59.68367651,Chrome,1504,1003,,,,,10,1083,,,,,,,,,,,,,,,,,U,160,hexagon,1,0,,,,,,,,,,,,,,,,repeat,number,numRpt,k,0.4666,Hi,,,,,,5,,,,,,,,high,6,0,6,0,1,,,,,,,,,
293293,2022-09-25_21h37.56.102,vts_reward_expectancy,2022.2.4,Win32,59.68367651,Chrome,1504,1003,,,,,1,1084,,,,,,,,,,,,,,,,,F,181,triangle,1,0,,,,,,,,,,,,,,,,repeat,number,numRpt,k,0.5321,Lo,,,,,,5,,,,,,,,high,7,0,7,0,1,,,,,,,,,
293293,2022-09-25_21h37.56.102,vts_reward_expectancy,2022.2.4,Win32,59.68367651,Chrome,1504,1003,,,,,0,1084,,,,,,,,,,,,,,,,,Y,139,hexagon,0,0,,,,,,,,,,,,,,,,repeat,number,NA,k,0.7294,Lo,,,,,,5,,,,,,,,high,8,0,8,0,1,,,,,,,,,
293293,2022-09-25_21h37.56.102,vts_reward_expectancy,2022.2.4,Win32,59.68367651,Chrome,1504,1003,,,,,0,1084,,,,,,,,,,,,,,,,,B,146,triangle,0,1,,,,,,,,,,,,,,,,repeat,number,NA,k,0.4529,Lo,,,,,,5,,,,,,,,high,9,0,9,0,1,,,,,,,,,
293293,2022-09-25_21h37.56.102,vts_reward_expectancy,2022.2.4,Win32,59.68367651,Chrome,1504,1003,,,,,0,1084,,,,,,,,,,,,,,,,,H,132,hexagon,0,1,,,,,,,,,,,,,,,,repeat,number,NA,k,0.6318,Lo,,,,,,5,,,,,,,,high,10,0,10,0,1,,,,,,,,,
293293,2022-09-25_21h37.56.102,vts_reward_expectancy,2022.2.4,Win32,59.68367651,Chrome,1504,1003,,,,,0,1084,,,,,,,,,,,,,,,,,S,125,triangle,0,1,,,,,,,,,,,,,,,,repeat,number,NA,k,0.5788,Lo,,,,,,5,,,,,,,,high,11,0,11,0,1,,,,,,,,,
293293,2022-09-25_21h37.56.102,vts_reward_expectancy,2022.2.4,Win32,59.68367651,Chrome,1504,1003,,,,,10,1094,,,,,,,,,,,,,,,,,D,167,triangle,1,1,,,,,,,,,,,,,,,,repeat,number,numRpt,k,0.5129,Lo,,,,,,5,,,,,,,,high,12,0,12,0,1,,,,,,,,,
293293,2022-09-25_21h37.56.102,vts_reward_expectancy,2022.2.4,Win32,59.68367651,Chrome,1504,1003,,,,,0,1094,,,,,,,,,,,,,,,,,W,174,hexagon,0,0,,,,,,,,,,,,,,,,repeat,number,NA,j,0.5371,Lo,,,,,,5,,,,,,,,high,13,0,13,0,1,,,,,,,,,
293293,2022-09-25_21h37.56.102,vts_reward_expectancy,2022.2.4,Win32,59.68367651,Chrome,1504,1003,,,,,1,1095,,,,,,,,,,,,,,,,,U,160,triangle,1,1,,,,,,,,,,,,,,,,repeat,number,numRpt,k,0.8787,Lo,,,,,,5,,,,,,,,high,14,0,14,0,1,,,,,,,,,
293293,2022-09-25_21h37.56.102,vts_reward_expectancy,2022.2.4,Win32,59.68367651,Chrome,1504,1003,,,,,10,1105,,,,,,,,,,,,,,,,,F,181,hexagon,1,0,,,,,,,,,,,,,,,,repeat,number,numRpt,k,0.4783,Hi,,,,,,5,,,,,,,,high,15,0,15,0,1,,,,,,,,,
293293,2022-09-25_21h37.56.102,vts_reward_expectancy,2022.2.4,Win32,59.68367651,Chrome,1504,1003,,,,,10,1115,,,,,,,,,,,,,,,,,H,174,hexagon,1,0,,,,,,,,,,,,,,,,repeat,number,numRpt,k,0.431,Hi,,,,,,5,,,,,,,,high,16,0,16,0,1,,,,,,,,,
293293,2022-09-25_21h37.56.102,vts_reward_expectancy,2022.2.4,Win32,59.68367651,Chrome,1504,1003,,,,,1,1116,,,,,,,,,,,,,,,,,B,167,triangle,1,0,,,,,,,,,,,,,,,,repeat,number,numRpt,k,0.4688,Lo,,,,,,5,,,,,,,,high,17,0,17,0,1,,,,,,,,,
293293,2022-09-25_21h37.56.102,vts_reward_expectancy,2022.2.4,Win32,59.68367651,Chrome,1504,1003,,,,,1,1117,,,,,,,,,,,,,,,,,D,181,hexagon,1,0,,,,,,,,,,,,,,,,repeat,number,numRpt,k,0.479,Hi,,,,,,5,,,,,,,,high,18,0,18,0,1,,,,,,,,,
293293,2022-09-25_21h37.56.102,vts_reward_expectancy,2022.2.4,Win32,59.68367651,Chrome,1504,1003,,,,,1,1118,,,,,,,,,,,,,,,,,F,132,triangle,1,0,,,,,,,,,,,,,,,,repeat,number,numRpt,j,0.5995,Lo,,,,,,5,,,,,,,,high,19,0,19,0,1,,,,,,,,,
293293,2022-09-25_21h37.56.102,vts_reward_expectancy,2022.2.4,Win32,59.68367651,Chrome,1504,1003,,,,,1,1119,,,,,,,,,,,,,,,,,Y,160,triangle,1,0,,,,,,,,,,,,,,,,repeat,number,numRpt,k,0.6039,Lo,,,,,,5,,,,,,,,high,20,0,20,0,1,,,,,,,,,
293293,2022-09-25_21h37.56.102,vts_reward_expectancy,2022.2.4,Win32,59.68367651,Chrome,1504,1003,,,,,0,1119,,,,,,,,,,,,,,,,,W,139,hexagon,1,0,,,,,,,,,,,,,,,,repeat,number,numRpt,j,0.5787,Hi,,,,,,5,,,,,,,,high,21,0,21,0,1,,,,,,,,,
293293,2022-09-25_21h37.56.102,vts_reward_expectancy,2022.2.4,Win32,59.68367651,Chrome,1504,1003,,,,,0,1119,,,,,,,,,,,,,,,,,S,146,triangle,0,0,,,,,,,,,,,,,,,,repeat,number,NA,k,0.7148,Hi,,,,,,5,,,,,,,,high,22,0,22,0,1,,,,,,,,,
293293,2022-09-25_21h37.56.102,vts_reward_expectancy,2022.2.4,Win32,59.68367651,Chrome,1504,1003,,,,,0,1119,,,,,,,,,,,,,,,,,U,125,hexagon,1,1,,,,,,,,,,,,,,,,repeat,number,numRpt,j,0.8635,Hi,,,,,,5,,,,,,,,high,23,0,23,0,1,,,,,,,,,
293293,2022-09-25_21h37.56.102,vts_reward_expectancy,2022.2.4,Win32,59.68367651,Chrome,1504,1003,,,,,1,1120,,,,,,,,,,,,,,,,,W,132,triangle,1,0,,,,,,,,,,,,,,,,repeat,number,numRpt,j,0.4691,Lo,,,,,,5,,,,,,,,high,24,0,24,0,1,,,,,,,,,
293293,2022-09-25_21h37.56.102,vts_reward_expectancy,2022.2.4,Win32,59.68367651,Chrome,1504,1003,,,,,0,1120,,,,,,,,,,,,,,,,,H,181,hexagon,1,0,,,,,,,,,,,,,,,,repeat,number,numRpt,k,0.6352,Hi,,,,,,5,,,,,,,,high,25,0,25,0,1,,,,,,,,,
293293,2022-09-25_21h37.56.102,vts_reward_expectancy,2022.2.4,Win32,59.68367651,Chrome,1504,1003,,,,,0,1120,,,,,,,,,,,,,,,,,F,125,hexagon,1,0,,,,,,,,,,,,,,,,repeat,number,numRpt,j,0.6509,Hi,,,,,,5,,,,,,,,high,26,0,26,0,1,,,,,,,,,
293293,2022-09-25_21h37.56.102,vts_reward_expectancy,2022.2.4,Win32,59.68367651,Chrome,1504,1003,,,,,1,1121,,,,,,,,,,,,,,,,,U,160,triangle,1,0,,,,,,,,,,,,,,,,repeat,number,numRpt,k,0.6249,Lo,,,,,,5,,,,,,,,high,27,0,27,0,1,,,,,,,,,
293293,2022-09-25_21h37.56.102,vts_reward_expectancy,2022.2.4,Win32,59.68367651,Chrome,1504,1003,,,,,1,1122,,,,,,,,,,,,,,,,,Y,146,triangle,1,0,,,,,,,,,,,,,,,,repeat,number,numRpt,j,0.3507,Lo,,,,,,5,,,,,,,,high,28,0,28,0,1,,,,,,,,,
293293,2022-09-25_21h37.56.102,vts_reward_expectancy,2022.2.4,Win32,59.68367651,Chrome,1504,1003,,,,,0,1122,,,,,,,,,,,,,,,,,S,139,hexagon,0,0,,,,,,,,,,,,,,,,repeat,number,NA,k,0.5871,Lo,,,,,,5,,,,,,,,high,29,0,29,0,1,,,,,,,,,
293293,2022-09-25_21h37.56.102,vts_reward_expectancy,2022.2.4,Win32,59.68367651,Chrome,1504,1003,,,,,1,1123,,,,,,,,,,,,,,,,,D,167,triangle,1,1,,,,,,,,,,,,,,,,repeat,number,numRpt,k,0.6997,Lo,,,,,,5,,,,,,,,high,30,0,30,0,1,,,,,,,,,
293293,2022-09-25_21h37.56.102,vts_reward_expectancy,2022.2.4,Win32,59.68367651,Chrome,1504,1003,,,,,10,1133,,,,,,,,,,,,,,,,,B,174,hexagon,1,0,,,,,,,,,,,,,,,,repeat,number,numRpt,k,0.4883,Hi,,,,,,5,,,,,,,,high,31,0,31,0,1,,,,,,,,,
293293,2022-09-25_21h37.56.102,vts_reward_expectancy,2022.2.4,Win32,59.68367651,Chrome,1504,1003,,,,,,,,,,,,,,,,,,,,,,,,,,,,,,,,,,,,,,,,,,,,,,,,,,,,,,6,,,,,,,,,,,,,,I was asked to make determinations between letters and numbers and choose which ever I wanted on a spectrum.,2,The training introduction with the shapes.,5,3,,2,1504,1003
