participant,date,expName,psychopyVersion,OS,frameRate,browser,xResolution,yResolution,key_resp.keys,key_resp.rt,training_resp.keys,training_resp.rt,points_trial,points_cumul,trainBlock,training.thisRepN,training.thisTrialN,training.thisN,training.thisIndex,training.ran,LTriangleOpac,LCircleOpac,LHexagonOpac,LStarOpac,RTriangleOpac,RCircleOpac,RHexagonOpac,RStarOpac,LShape_ID,RShape_ID,curr_topStim,curr_bottStim,curr_shape,acc,E1,target_resp_prac1.keys,target_resp_prac1.rt,pracBlock,task1_prac_trials.thisRepN,task1_prac_trials.thisTrialN,task1_prac_trials.thisN,task1_prac_trials.thisIndex,task1_prac_trials.ran,target_resp_prac2.keys,target_resp_prac2.rt,task2_praac_trials.thisRepN,task2_praac_trials.thisTrialN,task2_praac_trials.thisN,task2_praac_trials.thisIndex,task2_praac_trials.ran,alt,task,condition,target_resp.keys,target_resp.rt,rewCond,vts_practice_trials.thisRepN,vts_practice_trials.thisTrialN,vts_practice_trials.thisN,vts_practice_trials.thisIndex,vts_practice_trials.ran,blockNum,trials_norew.thisRepN,trials_norew.thisTrialN,trials_norew.thisN,trials_norew.thisIndex,trials_norew.ran,key_resp_2.keys,key_resp_2.rt,rewExpect,trials_rew.thisRepN,trials_rew.thisTrialN,trials_rew.thisN,trials_rew.thisIndex,trials_rew.ran,Q1,Q2,Q2_text,Q3,Q4,Q5_text,Q5,xRes,yRes
296203,2022-10-07_14h05.01.862,vts_reward_expectancy,2022.2.4,Win32,60.12506013,Chrome,1536,864,,,,,,,,,,,,,,,,,,,,,,,,,,,,,,,,,,,,,,,,,,,,,,,,,,,,,,,,,,,,,,,,,,,,,,,,,,,,
296203,2022-10-07_14h05.01.862,vts_reward_expectancy,2022.2.4,Win32,60.12506013,Chrome,1536,864,space,5.8271,,,,,,,,,,,,,,,,,,,,,,,,,,,,,,,,,,,,,,,,,,,,,,,,,,,,,,,,,,,,,,,,,,,,,,,,,,
296203,2022-10-07_14h05.01.862,vts_reward_expectancy,2022.2.4,Win32,60.12506013,Chrome,1536,864,,,,,,,,,,,,,,,,,,,,,,,,,,,,,,,,,,,,,,,,,,,,,,,,,,,,,,,,,,,,,,,,,,,,,,,,,,,,
296203,2022-10-07_14h05.01.862,vts_reward_expectancy,2022.2.4,Win32,60.12506013,Chrome,1536,864,,,l,2.3339,1,1,0,0,0,0,5,1,0,1,0,0,0,0,0,1,circle,star,,,,,,,,,,,,,,,,,,,,,,,,,,,,,,,,,,,,,,,,,,,,,,,,,,,,,,
296203,2022-10-07_14h05.01.862,vts_reward_expectancy,2022.2.4,Win32,60.12506013,Chrome,1536,864,,,l,1.4158,10,11,0,0,1,1,11,1,0,0,0,1,0,0,1,0,star,hexagon,,,,,,,,,,,,,,,,,,,,,,,,,,,,,,,,,,,,,,,,,,,,,,,,,,,,,,
296203,2022-10-07_14h05.01.862,vts_reward_expectancy,2022.2.4,Win32,60.12506013,Chrome,1536,864,,,a,1.118,10,21,0,0,2,2,2,1,1,0,0,0,0,0,0,1,triangle,star,,,,,,,,,,,,,,,,,,,,,,,,,,,,,,,,,,,,,,,,,,,,,,,,,,,,,,
296203,2022-10-07_14h05.01.862,vts_reward_expectancy,2022.2.4,Win32,60.12506013,Chrome,1536,864,,,l,0.4885,10,31,0,0,3,3,10,1,0,0,0,1,0,1,0,0,star ,circle,,,,,,,,,,,,,,,,,,,,,,,,,,,,,,,,,,,,,,,,,,,,,,,,,,,,,,
296203,2022-10-07_14h05.01.862,vts_reward_expectancy,2022.2.4,Win32,60.12506013,Chrome,1536,864,,,l,0.8003,1,32,0,0,4,4,9,1,0,0,0,1,1,0,0,0,star,triangle,,,,,,,,,,,,,,,,,,,,,,,,,,,,,,,,,,,,,,,,,,,,,,,,,,,,,,
296203,2022-10-07_14h05.01.862,vts_reward_expectancy,2022.2.4,Win32,60.12506013,Chrome,1536,864,,,l,0.6754,1,33,0,0,5,5,8,1,0,0,1,0,0,0,0,1,hexagon,star,,,,,,,,,,,,,,,,,,,,,,,,,,,,,,,,,,,,,,,,,,,,,,,,,,,,,,
296203,2022-10-07_14h05.01.862,vts_reward_expectancy,2022.2.4,Win32,60.12506013,Chrome,1536,864,,,a,2.0716,1,34,0,0,6,6,7,1,0,0,1,0,0,1,0,0,hexagon,circle,,,,,,,,,,,,,,,,,,,,,,,,,,,,,,,,,,,,,,,,,,,,,,,,,,,,,,
296203,2022-10-07_14h05.01.862,vts_reward_expectancy,2022.2.4,Win32,60.12506013,Chrome,1536,864,,,a,2.8439,1,35,0,0,7,7,4,1,0,1,0,0,0,0,1,0,circle,hexagon,,,,,,,,,,,,,,,,,,,,,,,,,,,,,,,,,,,,,,,,,,,,,,,,,,,,,,
296203,2022-10-07_14h05.01.862,vts_reward_expectancy,2022.2.4,Win32,60.12506013,Chrome,1536,864,,,a,2.0173,10,45,0,0,8,8,1,1,1,0,0,0,0,0,1,0,triangle,hexagon,,,,,,,,,,,,,,,,,,,,,,,,,,,,,,,,,,,,,,,,,,,,,,,,,,,,,,
296203,2022-10-07_14h05.01.862,vts_reward_expectancy,2022.2.4,Win32,60.12506013,Chrome,1536,864,,,l,2.0376,10,55,0,0,9,9,3,1,0,1,0,0,1,0,0,0,circle,triangle,,,,,,,,,,,,,,,,,,,,,,,,,,,,,,,,,,,,,,,,,,,,,,,,,,,,,,
296203,2022-10-07_14h05.01.862,vts_reward_expectancy,2022.2.4,Win32,60.12506013,Chrome,1536,864,,,l,1.8013,1,56,0,0,10,10,0,1,1,0,0,0,0,1,0,0,triangle,circle,,,,,,,,,,,,,,,,,,,,,,,,,,,,,,,,,,,,,,,,,,,,,,,,,,,,,,
296203,2022-10-07_14h05.01.862,vts_reward_expectancy,2022.2.4,Win32,60.12506013,Chrome,1536,864,,,a,0.5247,1,57,0,0,11,11,6,1,0,0,1,0,1,0,0,0,hexagon,triangle,,,,,,,,,,,,,,,,,,,,,,,,,,,,,,,,,,,,,,,,,,,,,,,,,,,,,,
296203,2022-10-07_14h05.01.862,vts_reward_expectancy,2022.2.4,Win32,60.12506013,Chrome,1536,864,,,l,2.8675,10,67,0,1,0,12,4,1,0,1,0,0,0,0,1,0,circle,hexagon,,,,,,,,,,,,,,,,,,,,,,,,,,,,,,,,,,,,,,,,,,,,,,,,,,,,,,
296203,2022-10-07_14h05.01.862,vts_reward_expectancy,2022.2.4,Win32,60.12506013,Chrome,1536,864,,,l,2.3097,1,68,0,1,1,13,8,1,0,0,1,0,0,0,0,1,hexagon,star,,,,,,,,,,,,,,,,,,,,,,,,,,,,,,,,,,,,,,,,,,,,,,,,,,,,,,
296203,2022-10-07_14h05.01.862,vts_reward_expectancy,2022.2.4,Win32,60.12506013,Chrome,1536,864,,,a,0.9674,10,78,0,1,2,14,6,1,0,0,1,0,1,0,0,0,hexagon,triangle,,,,,,,,,,,,,,,,,,,,,,,,,,,,,,,,,,,,,,,,,,,,,,,,,,,,,,
296203,2022-10-07_14h05.01.862,vts_reward_expectancy,2022.2.4,Win32,60.12506013,Chrome,1536,864,,,l,3.35,10,88,0,1,3,15,11,1,0,0,0,1,0,0,1,0,star,hexagon,,,,,,,,,,,,,,,,,,,,,,,,,,,,,,,,,,,,,,,,,,,,,,,,,,,,,,
296203,2022-10-07_14h05.01.862,vts_reward_expectancy,2022.2.4,Win32,60.12506013,Chrome,1536,864,,,a,1.1418,10,98,0,1,4,16,3,1,0,1,0,0,1,0,0,0,circle,triangle,,,,,,,,,,,,,,,,,,,,,,,,,,,,,,,,,,,,,,,,,,,,,,,,,,,,,,
296203,2022-10-07_14h05.01.862,vts_reward_expectancy,2022.2.4,Win32,60.12506013,Chrome,1536,864,,,l,1.4516,10,108,0,1,5,17,9,1,0,0,0,1,1,0,0,0,star,triangle,,,,,,,,,,,,,,,,,,,,,,,,,,,,,,,,,,,,,,,,,,,,,,,,,,,,,,
296203,2022-10-07_14h05.01.862,vts_reward_expectancy,2022.2.4,Win32,60.12506013,Chrome,1536,864,,,l,1.6792,10,118,0,1,6,18,1,1,1,0,0,0,0,0,1,0,triangle,hexagon,,,,,,,,,,,,,,,,,,,,,,,,,,,,,,,,,,,,,,,,,,,,,,,,,,,,,,
296203,2022-10-07_14h05.01.862,vts_reward_expectancy,2022.2.4,Win32,60.12506013,Chrome,1536,864,,,a,1.0512,1,119,0,1,7,19,5,1,0,1,0,0,0,0,0,1,circle,star,,,,,,,,,,,,,,,,,,,,,,,,,,,,,,,,,,,,,,,,,,,,,,,,,,,,,,
296203,2022-10-07_14h05.01.862,vts_reward_expectancy,2022.2.4,Win32,60.12506013,Chrome,1536,864,,,l,5.4736,10,129,0,1,8,20,0,1,1,0,0,0,0,1,0,0,triangle,circle,,,,,,,,,,,,,,,,,,,,,,,,,,,,,,,,,,,,,,,,,,,,,,,,,,,,,,
296203,2022-10-07_14h05.01.862,vts_reward_expectancy,2022.2.4,Win32,60.12506013,Chrome,1536,864,,,l,1.1333,1,130,0,1,9,21,2,1,1,0,0,0,0,0,0,1,triangle,star,,,,,,,,,,,,,,,,,,,,,,,,,,,,,,,,,,,,,,,,,,,,,,,,,,,,,,
296203,2022-10-07_14h05.01.862,vts_reward_expectancy,2022.2.4,Win32,60.12506013,Chrome,1536,864,,,a,1.5383,1,131,0,1,10,22,7,1,0,0,1,0,0,1,0,0,hexagon,circle,,,,,,,,,,,,,,,,,,,,,,,,,,,,,,,,,,,,,,,,,,,,,,,,,,,,,,
296203,2022-10-07_14h05.01.862,vts_reward_expectancy,2022.2.4,Win32,60.12506013,Chrome,1536,864,,,a,0.7347,1,132,0,1,11,23,10,1,0,0,0,1,0,1,0,0,star ,circle,,,,,,,,,,,,,,,,,,,,,,,,,,,,,,,,,,,,,,,,,,,,,,,,,,,,,,
296203,2022-10-07_14h05.01.862,vts_reward_expectancy,2022.2.4,Win32,60.12506013,Chrome,1536,864,,,l,2.4994,1,133,0,2,0,24,6,1,0,0,1,0,1,0,0,0,hexagon,triangle,,,,,,,,,,,,,,,,,,,,,,,,,,,,,,,,,,,,,,,,,,,,,,,,,,,,,,
296203,2022-10-07_14h05.01.862,vts_reward_expectancy,2022.2.4,Win32,60.12506013,Chrome,1536,864,,,l,0.8334,10,143,0,2,1,25,9,1,0,0,0,1,1,0,0,0,star,triangle,,,,,,,,,,,,,,,,,,,,,,,,,,,,,,,,,,,,,,,,,,,,,,,,,,,,,,
296203,2022-10-07_14h05.01.862,vts_reward_expectancy,2022.2.4,Win32,60.12506013,Chrome,1536,864,,,l,0.8676,10,153,0,2,2,26,10,1,0,0,0,1,0,1,0,0,star ,circle,,,,,,,,,,,,,,,,,,,,,,,,,,,,,,,,,,,,,,,,,,,,,,,,,,,,,,
296203,2022-10-07_14h05.01.862,vts_reward_expectancy,2022.2.4,Win32,60.12506013,Chrome,1536,864,,,l,1.9656,1,154,0,2,3,27,7,1,0,0,1,0,0,1,0,0,hexagon,circle,,,,,,,,,,,,,,,,,,,,,,,,,,,,,,,,,,,,,,,,,,,,,,,,,,,,,,
296203,2022-10-07_14h05.01.862,vts_reward_expectancy,2022.2.4,Win32,60.12506013,Chrome,1536,864,,,a,1.5063,1,155,0,2,4,28,5,1,0,1,0,0,0,0,0,1,circle,star,,,,,,,,,,,,,,,,,,,,,,,,,,,,,,,,,,,,,,,,,,,,,,,,,,,,,,
296203,2022-10-07_14h05.01.862,vts_reward_expectancy,2022.2.4,Win32,60.12506013,Chrome,1536,864,,,l,1.8585,1,156,0,2,5,29,11,1,0,0,0,1,0,0,1,0,star,hexagon,,,,,,,,,,,,,,,,,,,,,,,,,,,,,,,,,,,,,,,,,,,,,,,,,,,,,,
296203,2022-10-07_14h05.01.862,vts_reward_expectancy,2022.2.4,Win32,60.12506013,Chrome,1536,864,,,l,4.1338,10,166,0,2,6,30,3,1,0,1,0,0,1,0,0,0,circle,triangle,,,,,,,,,,,,,,,,,,,,,,,,,,,,,,,,,,,,,,,,,,,,,,,,,,,,,,
296203,2022-10-07_14h05.01.862,vts_reward_expectancy,2022.2.4,Win32,60.12506013,Chrome,1536,864,,,a,1.1413,10,176,0,2,7,31,8,1,0,0,1,0,0,0,0,1,hexagon,star,,,,,,,,,,,,,,,,,,,,,,,,,,,,,,,,,,,,,,,,,,,,,,,,,,,,,,
296203,2022-10-07_14h05.01.862,vts_reward_expectancy,2022.2.4,Win32,60.12506013,Chrome,1536,864,,,l,3.6517,1,177,0,2,8,32,1,1,1,0,0,0,0,0,1,0,triangle,hexagon,,,,,,,,,,,,,,,,,,,,,,,,,,,,,,,,,,,,,,,,,,,,,,,,,,,,,,
296203,2022-10-07_14h05.01.862,vts_reward_expectancy,2022.2.4,Win32,60.12506013,Chrome,1536,864,,,a,4.3341,1,178,0,2,9,33,4,1,0,1,0,0,0,0,1,0,circle,hexagon,,,,,,,,,,,,,,,,,,,,,,,,,,,,,,,,,,,,,,,,,,,,,,,,,,,,,,
296203,2022-10-07_14h05.01.862,vts_reward_expectancy,2022.2.4,Win32,60.12506013,Chrome,1536,864,,,l,2.8342,1,179,0,2,10,34,0,1,1,0,0,0,0,1,0,0,triangle,circle,,,,,,,,,,,,,,,,,,,,,,,,,,,,,,,,,,,,,,,,,,,,,,,,,,,,,,
296203,2022-10-07_14h05.01.862,vts_reward_expectancy,2022.2.4,Win32,60.12506013,Chrome,1536,864,,,a,0.7341,10,189,0,2,11,35,2,1,1,0,0,0,0,0,0,1,triangle,star,,,,,,,,,,,,,,,,,,,,,,,,,,,,,,,,,,,,,,,,,,,,,,,,,,,,,,
296203,2022-10-07_14h05.01.862,vts_reward_expectancy,2022.2.4,Win32,60.12506013,Chrome,1536,864,,,a,1.334,1,190,1,0,0,0,5,1,0,1,0,0,0,0,0,1,circle,star,,,,,,,,,,,,,,,,,,,,,,,,,,,,,,,,,,,,,,,,,,,,,,,,,,,,,,
296203,2022-10-07_14h05.01.862,vts_reward_expectancy,2022.2.4,Win32,60.12506013,Chrome,1536,864,,,a,4.9059,10,200,1,0,1,1,8,1,0,0,1,0,0,0,0,1,hexagon,star,,,,,,,,,,,,,,,,,,,,,,,,,,,,,,,,,,,,,,,,,,,,,,,,,,,,,,
296203,2022-10-07_14h05.01.862,vts_reward_expectancy,2022.2.4,Win32,60.12506013,Chrome,1536,864,,,l,1.4514,1,201,1,0,2,2,7,1,0,0,1,0,0,1,0,0,hexagon,circle,,,,,,,,,,,,,,,,,,,,,,,,,,,,,,,,,,,,,,,,,,,,,,,,,,,,,,
296203,2022-10-07_14h05.01.862,vts_reward_expectancy,2022.2.4,Win32,60.12506013,Chrome,1536,864,,,a,1.1499,1,202,1,0,3,3,3,1,0,1,0,0,1,0,0,0,circle,triangle,,,,,,,,,,,,,,,,,,,,,,,,,,,,,,,,,,,,,,,,,,,,,,,,,,,,,,
296203,2022-10-07_14h05.01.862,vts_reward_expectancy,2022.2.4,Win32,60.12506013,Chrome,1536,864,,,l,1.2669,10,212,1,0,4,4,9,1,0,0,0,1,1,0,0,0,star,triangle,,,,,,,,,,,,,,,,,,,,,,,,,,,,,,,,,,,,,,,,,,,,,,,,,,,,,,
296203,2022-10-07_14h05.01.862,vts_reward_expectancy,2022.2.4,Win32,60.12506013,Chrome,1536,864,,,a,0.5831,1,213,1,0,5,5,6,1,0,0,1,0,1,0,0,0,hexagon,triangle,,,,,,,,,,,,,,,,,,,,,,,,,,,,,,,,,,,,,,,,,,,,,,,,,,,,,,
296203,2022-10-07_14h05.01.862,vts_reward_expectancy,2022.2.4,Win32,60.12506013,Chrome,1536,864,,,l,1.1957,10,223,1,0,6,6,10,1,0,0,0,1,0,1,0,0,star ,circle,,,,,,,,,,,,,,,,,,,,,,,,,,,,,,,,,,,,,,,,,,,,,,,,,,,,,,
296203,2022-10-07_14h05.01.862,vts_reward_expectancy,2022.2.4,Win32,60.12506013,Chrome,1536,864,,,l,1.2206,10,233,1,0,7,7,0,1,1,0,0,0,0,1,0,0,triangle,circle,,,,,,,,,,,,,,,,,,,,,,,,,,,,,,,,,,,,,,,,,,,,,,,,,,,,,,
296203,2022-10-07_14h05.01.862,vts_reward_expectancy,2022.2.4,Win32,60.12506013,Chrome,1536,864,,,l,0.7978,10,243,1,0,8,8,4,1,0,1,0,0,0,0,1,0,circle,hexagon,,,,,,,,,,,,,,,,,,,,,,,,,,,,,,,,,,,,,,,,,,,,,,,,,,,,,,
296203,2022-10-07_14h05.01.862,vts_reward_expectancy,2022.2.4,Win32,60.12506013,Chrome,1536,864,,,l,0.684,10,253,1,0,9,9,11,1,0,0,0,1,0,0,1,0,star,hexagon,,,,,,,,,,,,,,,,,,,,,,,,,,,,,,,,,,,,,,,,,,,,,,,,,,,,,,
296203,2022-10-07_14h05.01.862,vts_reward_expectancy,2022.2.4,Win32,60.12506013,Chrome,1536,864,,,a,0.5019,10,263,1,0,10,10,2,1,1,0,0,0,0,0,0,1,triangle,star,,,,,,,,,,,,,,,,,,,,,,,,,,,,,,,,,,,,,,,,,,,,,,,,,,,,,,
296203,2022-10-07_14h05.01.862,vts_reward_expectancy,2022.2.4,Win32,60.12506013,Chrome,1536,864,,,a,0.4355,10,273,1,0,11,11,1,1,1,0,0,0,0,0,1,0,triangle,hexagon,,,,,,,,,,,,,,,,,,,,,,,,,,,,,,,,,,,,,,,,,,,,,,,,,,,,,,
296203,2022-10-07_14h05.01.862,vts_reward_expectancy,2022.2.4,Win32,60.12506013,Chrome,1536,864,,,a,2.9995,1,274,1,1,0,12,8,1,0,0,1,0,0,0,0,1,hexagon,star,,,,,,,,,,,,,,,,,,,,,,,,,,,,,,,,,,,,,,,,,,,,,,,,,,,,,,
296203,2022-10-07_14h05.01.862,vts_reward_expectancy,2022.2.4,Win32,60.12506013,Chrome,1536,864,,,a,0.4926,1,275,1,1,1,13,9,1,0,0,0,1,1,0,0,0,star,triangle,,,,,,,,,,,,,,,,,,,,,,,,,,,,,,,,,,,,,,,,,,,,,,,,,,,,,,
296203,2022-10-07_14h05.01.862,vts_reward_expectancy,2022.2.4,Win32,60.12506013,Chrome,1536,864,,,a,1.8016,10,285,1,1,2,14,5,1,0,1,0,0,0,0,0,1,circle,star,,,,,,,,,,,,,,,,,,,,,,,,,,,,,,,,,,,,,,,,,,,,,,,,,,,,,,
296203,2022-10-07_14h05.01.862,vts_reward_expectancy,2022.2.4,Win32,60.12506013,Chrome,1536,864,,,a,2.7676,10,295,1,1,3,15,1,1,1,0,0,0,0,0,1,0,triangle,hexagon,,,,,,,,,,,,,,,,,,,,,,,,,,,,,,,,,,,,,,,,,,,,,,,,,,,,,,
296203,2022-10-07_14h05.01.862,vts_reward_expectancy,2022.2.4,Win32,60.12506013,Chrome,1536,864,,,l,0.5829,1,296,1,1,4,16,2,1,1,0,0,0,0,0,0,1,triangle,star,,,,,,,,,,,,,,,,,,,,,,,,,,,,,,,,,,,,,,,,,,,,,,,,,,,,,,
296203,2022-10-07_14h05.01.862,vts_reward_expectancy,2022.2.4,Win32,60.12506013,Chrome,1536,864,,,a,1.3198,1,297,1,1,5,17,4,1,0,1,0,0,0,0,1,0,circle,hexagon,,,,,,,,,,,,,,,,,,,,,,,,,,,,,,,,,,,,,,,,,,,,,,,,,,,,,,
296203,2022-10-07_14h05.01.862,vts_reward_expectancy,2022.2.4,Win32,60.12506013,Chrome,1536,864,,,a,51.4704,10,307,1,1,6,18,11,1,0,0,0,1,0,0,1,0,star,hexagon,,,,,,,,,,,,,,,,,,,,,,,,,,,,,,,,,,,,,,,,,,,,,,,,,,,,,,
296203,2022-10-07_14h05.01.862,vts_reward_expectancy,2022.2.4,Win32,60.12506013,Chrome,1536,864,,,l,0.4517,1,308,1,1,7,19,6,1,0,0,1,0,1,0,0,0,hexagon,triangle,,,,,,,,,,,,,,,,,,,,,,,,,,,,,,,,,,,,,,,,,,,,,,,,,,,,,,
296203,2022-10-07_14h05.01.862,vts_reward_expectancy,2022.2.4,Win32,60.12506013,Chrome,1536,864,,,l,1.1048,1,309,1,1,8,20,10,1,0,0,0,1,0,1,0,0,star ,circle,,,,,,,,,,,,,,,,,,,,,,,,,,,,,,,,,,,,,,,,,,,,,,,,,,,,,,
296203,2022-10-07_14h05.01.862,vts_reward_expectancy,2022.2.4,Win32,60.12506013,Chrome,1536,864,,,l,1.2715,10,319,1,1,9,21,3,1,0,1,0,0,1,0,0,0,circle,triangle,,,,,,,,,,,,,,,,,,,,,,,,,,,,,,,,,,,,,,,,,,,,,,,,,,,,,,
296203,2022-10-07_14h05.01.862,vts_reward_expectancy,2022.2.4,Win32,60.12506013,Chrome,1536,864,,,a,1.6583,10,329,1,1,10,22,7,1,0,0,1,0,0,1,0,0,hexagon,circle,,,,,,,,,,,,,,,,,,,,,,,,,,,,,,,,,,,,,,,,,,,,,,,,,,,,,,
296203,2022-10-07_14h05.01.862,vts_reward_expectancy,2022.2.4,Win32,60.12506013,Chrome,1536,864,,,l,0.8677,10,339,1,1,11,23,0,1,1,0,0,0,0,1,0,0,triangle,circle,,,,,,,,,,,,,,,,,,,,,,,,,,,,,,,,,,,,,,,,,,,,,,,,,,,,,,
296203,2022-10-07_14h05.01.862,vts_reward_expectancy,2022.2.4,Win32,60.12506013,Chrome,1536,864,,,a,1.0018,10,349,1,2,0,24,0,1,1,0,0,0,0,1,0,0,triangle,circle,,,,,,,,,,,,,,,,,,,,,,,,,,,,,,,,,,,,,,,,,,,,,,,,,,,,,,
296203,2022-10-07_14h05.01.862,vts_reward_expectancy,2022.2.4,Win32,60.12506013,Chrome,1536,864,,,a,3.2592,1,350,1,2,1,25,7,1,0,0,1,0,0,1,0,0,hexagon,circle,,,,,,,,,,,,,,,,,,,,,,,,,,,,,,,,,,,,,,,,,,,,,,,,,,,,,,
296203,2022-10-07_14h05.01.862,vts_reward_expectancy,2022.2.4,Win32,60.12506013,Chrome,1536,864,,,l,1.9123,1,351,1,2,2,26,1,1,1,0,0,0,0,0,1,0,triangle,hexagon,,,,,,,,,,,,,,,,,,,,,,,,,,,,,,,,,,,,,,,,,,,,,,,,,,,,,,
296203,2022-10-07_14h05.01.862,vts_reward_expectancy,2022.2.4,Win32,60.12506013,Chrome,1536,864,,,a,3.762,10,361,1,2,3,27,3,1,0,1,0,0,1,0,0,0,circle,triangle,,,,,,,,,,,,,,,,,,,,,,,,,,,,,,,,,,,,,,,,,,,,,,,,,,,,,,
296203,2022-10-07_14h05.01.862,vts_reward_expectancy,2022.2.4,Win32,60.12506013,Chrome,1536,864,,,a,0.8836,1,362,1,2,4,28,11,1,0,0,0,1,0,0,1,0,star,hexagon,,,,,,,,,,,,,,,,,,,,,,,,,,,,,,,,,,,,,,,,,,,,,,,,,,,,,,
296203,2022-10-07_14h05.01.862,vts_reward_expectancy,2022.2.4,Win32,60.12506013,Chrome,1536,864,,,a,1.383,1,363,1,2,5,29,5,1,0,1,0,0,0,0,0,1,circle,star,,,,,,,,,,,,,,,,,,,,,,,,,,,,,,,,,,,,,,,,,,,,,,,,,,,,,,
296203,2022-10-07_14h05.01.862,vts_reward_expectancy,2022.2.4,Win32,60.12506013,Chrome,1536,864,,,l,1.792,10,373,1,2,6,30,4,1,0,1,0,0,0,0,1,0,circle,hexagon,,,,,,,,,,,,,,,,,,,,,,,,,,,,,,,,,,,,,,,,,,,,,,,,,,,,,,
296203,2022-10-07_14h05.01.862,vts_reward_expectancy,2022.2.4,Win32,60.12506013,Chrome,1536,864,,,a,0.8349,1,374,1,2,7,31,9,1,0,0,0,1,1,0,0,0,star,triangle,,,,,,,,,,,,,,,,,,,,,,,,,,,,,,,,,,,,,,,,,,,,,,,,,,,,,,
296203,2022-10-07_14h05.01.862,vts_reward_expectancy,2022.2.4,Win32,60.12506013,Chrome,1536,864,,,l,0.5498,10,384,1,2,8,32,6,1,0,0,1,0,1,0,0,0,hexagon,triangle,,,,,,,,,,,,,,,,,,,,,,,,,,,,,,,,,,,,,,,,,,,,,,,,,,,,,,
296203,2022-10-07_14h05.01.862,vts_reward_expectancy,2022.2.4,Win32,60.12506013,Chrome,1536,864,,,a,2.159,10,394,1,2,9,33,2,1,1,0,0,0,0,0,0,1,triangle,star,,,,,,,,,,,,,,,,,,,,,,,,,,,,,,,,,,,,,,,,,,,,,,,,,,,,,,
296203,2022-10-07_14h05.01.862,vts_reward_expectancy,2022.2.4,Win32,60.12506013,Chrome,1536,864,,,l,1.4455,1,395,1,2,10,34,8,1,0,0,1,0,0,0,0,1,hexagon,star,,,,,,,,,,,,,,,,,,,,,,,,,,,,,,,,,,,,,,,,,,,,,,,,,,,,,,
296203,2022-10-07_14h05.01.862,vts_reward_expectancy,2022.2.4,Win32,60.12506013,Chrome,1536,864,,,a,0.6041,1,396,1,2,11,35,10,1,0,0,0,1,0,1,0,0,star ,circle,,,,,,,,,,,,,,,,,,,,,,,,,,,,,,,,,,,,,,,,,,,,,,,,,,,,,,
296203,2022-10-07_14h05.01.862,vts_reward_expectancy,2022.2.4,Win32,60.12506013,Chrome,1536,864,,,l,4.6826,10,406,2,0,0,0,9,1,0,0,0,1,1,0,0,0,star,triangle,,,,,,,,,,,,,,,,,,,,,,,,,,,,,,,,,,,,,,,,,,,,,,,,,,,,,,
296203,2022-10-07_14h05.01.862,vts_reward_expectancy,2022.2.4,Win32,60.12506013,Chrome,1536,864,,,l,0.4327,10,416,2,0,1,1,3,1,0,1,0,0,1,0,0,0,circle,triangle,,,,,,,,,,,,,,,,,,,,,,,,,,,,,,,,,,,,,,,,,,,,,,,,,,,,,,
296203,2022-10-07_14h05.01.862,vts_reward_expectancy,2022.2.4,Win32,60.12506013,Chrome,1536,864,,,a,0.3982,1,417,2,0,2,2,4,1,0,1,0,0,0,0,1,0,circle,hexagon,,,,,,,,,,,,,,,,,,,,,,,,,,,,,,,,,,,,,,,,,,,,,,,,,,,,,,
296203,2022-10-07_14h05.01.862,vts_reward_expectancy,2022.2.4,Win32,60.12506013,Chrome,1536,864,,,a,0.4879,10,427,2,0,3,3,6,1,0,0,1,0,1,0,0,0,hexagon,triangle,,,,,,,,,,,,,,,,,,,,,,,,,,,,,,,,,,,,,,,,,,,,,,,,,,,,,,
296203,2022-10-07_14h05.01.862,vts_reward_expectancy,2022.2.4,Win32,60.12506013,Chrome,1536,864,,,l,1.0058,10,437,2,0,4,4,10,1,0,0,0,1,0,1,0,0,star ,circle,,,,,,,,,,,,,,,,,,,,,,,,,,,,,,,,,,,,,,,,,,,,,,,,,,,,,,
296203,2022-10-07_14h05.01.862,vts_reward_expectancy,2022.2.4,Win32,60.12506013,Chrome,1536,864,,,a,0.6826,10,447,2,0,5,5,5,1,0,1,0,0,0,0,0,1,circle,star,,,,,,,,,,,,,,,,,,,,,,,,,,,,,,,,,,,,,,,,,,,,,,,,,,,,,,
296203,2022-10-07_14h05.01.862,vts_reward_expectancy,2022.2.4,Win32,60.12506013,Chrome,1536,864,,,l,0.465,10,457,2,0,6,6,2,1,1,0,0,0,0,0,0,1,triangle,star,,,,,,,,,,,,,,,,,,,,,,,,,,,,,,,,,,,,,,,,,,,,,,,,,,,,,,
296203,2022-10-07_14h05.01.862,vts_reward_expectancy,2022.2.4,Win32,60.12506013,Chrome,1536,864,,,a,1.6161,10,467,2,0,7,7,1,1,1,0,0,0,0,0,1,0,triangle,hexagon,,,,,,,,,,,,,,,,,,,,,,,,,,,,,,,,,,,,,,,,,,,,,,,,,,,,,,
296203,2022-10-07_14h05.01.862,vts_reward_expectancy,2022.2.4,Win32,60.12506013,Chrome,1536,864,,,a,3.1485,10,477,2,0,8,8,8,1,0,0,1,0,0,0,0,1,hexagon,star,,,,,,,,,,,,,,,,,,,,,,,,,,,,,,,,,,,,,,,,,,,,,,,,,,,,,,
296203,2022-10-07_14h05.01.862,vts_reward_expectancy,2022.2.4,Win32,60.12506013,Chrome,1536,864,,,l,0.6993,1,478,2,0,9,9,7,1,0,0,1,0,0,1,0,0,hexagon,circle,,,,,,,,,,,,,,,,,,,,,,,,,,,,,,,,,,,,,,,,,,,,,,,,,,,,,,
296203,2022-10-07_14h05.01.862,vts_reward_expectancy,2022.2.4,Win32,60.12506013,Chrome,1536,864,,,a,0.6055,1,479,2,0,10,10,11,1,0,0,0,1,0,0,1,0,star,hexagon,,,,,,,,,,,,,,,,,,,,,,,,,,,,,,,,,,,,,,,,,,,,,,,,,,,,,,
296203,2022-10-07_14h05.01.862,vts_reward_expectancy,2022.2.4,Win32,60.12506013,Chrome,1536,864,,,a,10.5162,10,489,2,0,11,11,0,1,1,0,0,0,0,1,0,0,triangle,circle,,,,,,,,,,,,,,,,,,,,,,,,,,,,,,,,,,,,,,,,,,,,,,,,,,,,,,
296203,2022-10-07_14h05.01.862,vts_reward_expectancy,2022.2.4,Win32,60.12506013,Chrome,1536,864,,,a,0.5181,10,499,2,1,0,12,2,1,1,0,0,0,0,0,0,1,triangle,star,,,,,,,,,,,,,,,,,,,,,,,,,,,,,,,,,,,,,,,,,,,,,,,,,,,,,,
296203,2022-10-07_14h05.01.862,vts_reward_expectancy,2022.2.4,Win32,60.12506013,Chrome,1536,864,,,a,0.9399,1,500,2,1,1,13,9,1,0,0,0,1,1,0,0,0,star,triangle,,,,,,,,,,,,,,,,,,,,,,,,,,,,,,,,,,,,,,,,,,,,,,,,,,,,,,
296203,2022-10-07_14h05.01.862,vts_reward_expectancy,2022.2.4,Win32,60.12506013,Chrome,1536,864,,,l,1.685,10,510,2,1,2,14,11,1,0,0,0,1,0,0,1,0,star,hexagon,,,,,,,,,,,,,,,,,,,,,,,,,,,,,,,,,,,,,,,,,,,,,,,,,,,,,,
296203,2022-10-07_14h05.01.862,vts_reward_expectancy,2022.2.4,Win32,60.12506013,Chrome,1536,864,,,l,1.1487,1,511,2,1,3,15,10,1,0,0,0,1,0,1,0,0,star ,circle,,,,,,,,,,,,,,,,,,,,,,,,,,,,,,,,,,,,,,,,,,,,,,,,,,,,,,
296203,2022-10-07_14h05.01.862,vts_reward_expectancy,2022.2.4,Win32,60.12506013,Chrome,1536,864,,,a,1.2354,10,521,2,1,4,16,0,1,1,0,0,0,0,1,0,0,triangle,circle,,,,,,,,,,,,,,,,,,,,,,,,,,,,,,,,,,,,,,,,,,,,,,,,,,,,,,
296203,2022-10-07_14h05.01.862,vts_reward_expectancy,2022.2.4,Win32,60.12506013,Chrome,1536,864,,,l,1.6992,1,522,2,1,5,17,5,1,0,1,0,0,0,0,0,1,circle,star,,,,,,,,,,,,,,,,,,,,,,,,,,,,,,,,,,,,,,,,,,,,,,,,,,,,,,
296203,2022-10-07_14h05.01.862,vts_reward_expectancy,2022.2.4,Win32,60.12506013,Chrome,1536,864,,,a,1.1235,1,523,2,1,6,18,8,1,0,0,1,0,0,0,0,1,hexagon,star,,,,,,,,,,,,,,,,,,,,,,,,,,,,,,,,,,,,,,,,,,,,,,,,,,,,,,
296203,2022-10-07_14h05.01.862,vts_reward_expectancy,2022.2.4,Win32,60.12506013,Chrome,1536,864,,,l,1.2505,1,524,2,1,7,19,4,1,0,1,0,0,0,0,1,0,circle,hexagon,,,,,,,,,,,,,,,,,,,,,,,,,,,,,,,,,,,,,,,,,,,,,,,,,,,,,,
296203,2022-10-07_14h05.01.862,vts_reward_expectancy,2022.2.4,Win32,60.12506013,Chrome,1536,864,,,l,0.4817,10,534,2,1,8,20,6,1,0,0,1,0,1,0,0,0,hexagon,triangle,,,,,,,,,,,,,,,,,,,,,,,,,,,,,,,,,,,,,,,,,,,,,,,,,,,,,,
296203,2022-10-07_14h05.01.862,vts_reward_expectancy,2022.2.4,Win32,60.12506013,Chrome,1536,864,,,a,3.4426,10,544,2,1,9,21,7,1,0,0,1,0,0,1,0,0,hexagon,circle,,,,,,,,,,,,,,,,,,,,,,,,,,,,,,,,,,,,,,,,,,,,,,,,,,,,,,
296203,2022-10-07_14h05.01.862,vts_reward_expectancy,2022.2.4,Win32,60.12506013,Chrome,1536,864,,,a,1.0563,10,554,2,1,10,22,1,1,1,0,0,0,0,0,1,0,triangle,hexagon,,,,,,,,,,,,,,,,,,,,,,,,,,,,,,,,,,,,,,,,,,,,,,,,,,,,,,
296203,2022-10-07_14h05.01.862,vts_reward_expectancy,2022.2.4,Win32,60.12506013,Chrome,1536,864,,,l,1.0491,10,564,2,1,11,23,3,1,0,1,0,0,1,0,0,0,circle,triangle,,,,,,,,,,,,,,,,,,,,,,,,,,,,,,,,,,,,,,,,,,,,,,,,,,,,,,
296203,2022-10-07_14h05.01.862,vts_reward_expectancy,2022.2.4,Win32,60.12506013,Chrome,1536,864,,,a,0.5691,10,574,2,2,0,24,1,1,1,0,0,0,0,0,1,0,triangle,hexagon,,,,,,,,,,,,,,,,,,,,,,,,,,,,,,,,,,,,,,,,,,,,,,,,,,,,,,
296203,2022-10-07_14h05.01.862,vts_reward_expectancy,2022.2.4,Win32,60.12506013,Chrome,1536,864,,,l,1.3185,1,575,2,2,1,25,5,1,0,1,0,0,0,0,0,1,circle,star,,,,,,,,,,,,,,,,,,,,,,,,,,,,,,,,,,,,,,,,,,,,,,,,,,,,,,
296203,2022-10-07_14h05.01.862,vts_reward_expectancy,2022.2.4,Win32,60.12506013,Chrome,1536,864,,,a,0.565,10,585,2,2,2,26,0,1,1,0,0,0,0,1,0,0,triangle,circle,,,,,,,,,,,,,,,,,,,,,,,,,,,,,,,,,,,,,,,,,,,,,,,,,,,,,,
296203,2022-10-07_14h05.01.862,vts_reward_expectancy,2022.2.4,Win32,60.12506013,Chrome,1536,864,,,a,1.0483,10,595,2,2,3,27,2,1,1,0,0,0,0,0,0,1,triangle,star,,,,,,,,,,,,,,,,,,,,,,,,,,,,,,,,,,,,,,,,,,,,,,,,,,,,,,
296203,2022-10-07_14h05.01.862,vts_reward_expectancy,2022.2.4,Win32,60.12506013,Chrome,1536,864,,,a,2.0809,10,605,2,2,4,28,10,1,0,0,0,1,0,1,0,0,star ,circle,,,,,,,,,,,,,,,,,,,,,,,,,,,,,,,,,,,,,,,,,,,,,,,,,,,,,,
296203,2022-10-07_14h05.01.862,vts_reward_expectancy,2022.2.4,Win32,60.12506013,Chrome,1536,864,,,l,0.9598,10,615,2,2,5,29,9,1,0,0,0,1,1,0,0,0,star,triangle,,,,,,,,,,,,,,,,,,,,,,,,,,,,,,,,,,,,,,,,,,,,,,,,,,,,,,
296203,2022-10-07_14h05.01.862,vts_reward_expectancy,2022.2.4,Win32,60.12506013,Chrome,1536,864,,,l,0.5653,1,616,2,2,6,30,11,1,0,0,0,1,0,0,1,0,star,hexagon,,,,,,,,,,,,,,,,,,,,,,,,,,,,,,,,,,,,,,,,,,,,,,,,,,,,,,
296203,2022-10-07_14h05.01.862,vts_reward_expectancy,2022.2.4,Win32,60.12506013,Chrome,1536,864,,,l,0.4519,10,626,2,2,7,31,3,1,0,1,0,0,1,0,0,0,circle,triangle,,,,,,,,,,,,,,,,,,,,,,,,,,,,,,,,,,,,,,,,,,,,,,,,,,,,,,
296203,2022-10-07_14h05.01.862,vts_reward_expectancy,2022.2.4,Win32,60.12506013,Chrome,1536,864,,,a,2.4656,10,636,2,2,8,32,8,1,0,0,1,0,0,0,0,1,hexagon,star,,,,,,,,,,,,,,,,,,,,,,,,,,,,,,,,,,,,,,,,,,,,,,,,,,,,,,
296203,2022-10-07_14h05.01.862,vts_reward_expectancy,2022.2.4,Win32,60.12506013,Chrome,1536,864,,,a,3.8008,1,637,2,2,9,33,7,1,0,0,1,0,0,1,0,0,hexagon,circle,,,,,,,,,,,,,,,,,,,,,,,,,,,,,,,,,,,,,,,,,,,,,,,,,,,,,,
296203,2022-10-07_14h05.01.862,vts_reward_expectancy,2022.2.4,Win32,60.12506013,Chrome,1536,864,,,l,1.3186,1,638,2,2,10,34,4,1,0,1,0,0,0,0,1,0,circle,hexagon,,,,,,,,,,,,,,,,,,,,,,,,,,,,,,,,,,,,,,,,,,,,,,,,,,,,,,
296203,2022-10-07_14h05.01.862,vts_reward_expectancy,2022.2.4,Win32,60.12506013,Chrome,1536,864,,,l,0.9203,10,648,2,2,11,35,6,1,0,0,1,0,1,0,0,0,hexagon,triangle,,,,,,,,,,,,,,,,,,,,,,,,,,,,,,,,,,,,,,,,,,,,,,,,,,,,,,
296203,2022-10-07_14h05.01.862,vts_reward_expectancy,2022.2.4,Win32,60.12506013,Chrome,1536,864,,,,,,,,,,,,,,,,,,,,,,,D,174,circle,1,0,d,2.3265,0,0,0,0,0,1,,,,,,,,,,,,,,,,,,,,,,,,,,,,,,,,,,,,,,,,,
296203,2022-10-07_14h05.01.862,vts_reward_expectancy,2022.2.4,Win32,60.12506013,Chrome,1536,864,,,,,,,,,,,,,,,,,,,,,,,H,181,triangle,1,0,d,1.5697,0,1,0,1,0,1,,,,,,,,,,,,,,,,,,,,,,,,,,,,,,,,,,,,,,,,,
296203,2022-10-07_14h05.01.862,vts_reward_expectancy,2022.2.4,Win32,60.12506013,Chrome,1536,864,,,,,,,,,,,,,,,,,,,,,,,S,139,hexagon,1,0,f,0.7924,0,2,0,2,0,1,,,,,,,,,,,,,,,,,,,,,,,,,,,,,,,,,,,,,,,,,
296203,2022-10-07_14h05.01.862,vts_reward_expectancy,2022.2.4,Win32,60.12506013,Chrome,1536,864,,,,,,,,,,,,,,,,,,,,,,,Y,160,star,1,0,f,0.6164,0,3,0,3,0,1,,,,,,,,,,,,,,,,,,,,,,,,,,,,,,,,,,,,,,,,,
296203,2022-10-07_14h05.01.862,vts_reward_expectancy,2022.2.4,Win32,60.12506013,Chrome,1536,864,,,,,,,,,,,,,,,,,,,,,,,U,146,circle,1,0,f,0.6713,0,4,0,4,0,1,,,,,,,,,,,,,,,,,,,,,,,,,,,,,,,,,,,,,,,,,
296203,2022-10-07_14h05.01.862,vts_reward_expectancy,2022.2.4,Win32,60.12506013,Chrome,1536,864,,,,,,,,,,,,,,,,,,,,,,,F,125,triangle,1,0,d,0.7809,0,5,0,5,0,1,,,,,,,,,,,,,,,,,,,,,,,,,,,,,,,,,,,,,,,,,
296203,2022-10-07_14h05.01.862,vts_reward_expectancy,2022.2.4,Win32,60.12506013,Chrome,1536,864,,,,,,,,,,,,,,,,,,,,,,,W,132,hexagon,1,0,f,0.5783,0,6,0,6,0,1,,,,,,,,,,,,,,,,,,,,,,,,,,,,,,,,,,,,,,,,,
296203,2022-10-07_14h05.01.862,vts_reward_expectancy,2022.2.4,Win32,60.12506013,Chrome,1536,864,,,,,,,,,,,,,,,,,,,,,,,B,167,star,1,0,d,0.8378,0,7,0,7,0,1,,,,,,,,,,,,,,,,,,,,,,,,,,,,,,,,,,,,,,,,,
296203,2022-10-07_14h05.01.862,vts_reward_expectancy,2022.2.4,Win32,60.12506013,Chrome,1536,864,,,,,,,,,,,,,,,,,,,,,,,D,174,circle,1,0,d,0.6192,0,8,0,8,0,1,,,,,,,,,,,,,,,,,,,,,,,,,,,,,,,,,,,,,,,,,
296203,2022-10-07_14h05.01.862,vts_reward_expectancy,2022.2.4,Win32,60.12506013,Chrome,1536,864,,,,,,,,,,,,,,,,,,,,,,,H,181,star,1,0,d,1.0224,0,9,0,9,0,1,,,,,,,,,,,,,,,,,,,,,,,,,,,,,,,,,,,,,,,,,
296203,2022-10-07_14h05.01.862,vts_reward_expectancy,2022.2.4,Win32,60.12506013,Chrome,1536,864,,,,,,,,,,,,,,,,,,,,,,,U,139,triangle,1,0,,,1,,,,,,j,1.4829,0,0,0,0,1,,,,,,,,,,,,,,,,,,,,,,,,,,,,,,,,,,
296203,2022-10-07_14h05.01.862,vts_reward_expectancy,2022.2.4,Win32,60.12506013,Chrome,1536,864,,,,,,,,,,,,,,,,,,,,,,,F,167,hexagon,1,0,,,1,,,,,,k,0.5364,1,0,1,0,1,,,,,,,,,,,,,,,,,,,,,,,,,,,,,,,,,,
296203,2022-10-07_14h05.01.862,vts_reward_expectancy,2022.2.4,Win32,60.12506013,Chrome,1536,864,,,,,,,,,,,,,,,,,,,,,,,H,132,star,1,0,,,1,,,,,,j,1.2178,2,0,2,0,1,,,,,,,,,,,,,,,,,,,,,,,,,,,,,,,,,,
296203,2022-10-07_14h05.01.862,vts_reward_expectancy,2022.2.4,Win32,60.12506013,Chrome,1536,864,,,,,,,,,,,,,,,,,,,,,,,B,160,circle,1,0,,,1,,,,,,k,0.6747,3,0,3,0,1,,,,,,,,,,,,,,,,,,,,,,,,,,,,,,,,,,
296203,2022-10-07_14h05.01.862,vts_reward_expectancy,2022.2.4,Win32,60.12506013,Chrome,1536,864,,,,,,,,,,,,,,,,,,,,,,,Y,146,triangle,1,0,,,1,,,,,,j,0.7628,4,0,4,0,1,,,,,,,,,,,,,,,,,,,,,,,,,,,,,,,,,,
296203,2022-10-07_14h05.01.862,vts_reward_expectancy,2022.2.4,Win32,60.12506013,Chrome,1536,864,,,,,,,,,,,,,,,,,,,,,,,S,174,hexagon,1,0,,,1,,,,,,k,1.0855,5,0,5,0,1,,,,,,,,,,,,,,,,,,,,,,,,,,,,,,,,,,
296203,2022-10-07_14h05.01.862,vts_reward_expectancy,2022.2.4,Win32,60.12506013,Chrome,1536,864,,,,,,,,,,,,,,,,,,,,,,,D,181,star,1,0,,,1,,,,,,k,0.7342,6,0,6,0,1,,,,,,,,,,,,,,,,,,,,,,,,,,,,,,,,,,
296203,2022-10-07_14h05.01.862,vts_reward_expectancy,2022.2.4,Win32,60.12506013,Chrome,1536,864,,,,,,,,,,,,,,,,,,,,,,,W,125,circle,1,0,,,1,,,,,,j,0.8757,7,0,7,0,1,,,,,,,,,,,,,,,,,,,,,,,,,,,,,,,,,,
296203,2022-10-07_14h05.01.862,vts_reward_expectancy,2022.2.4,Win32,60.12506013,Chrome,1536,864,,,,,,,,,,,,,,,,,,,,,,,U,139,hexagon,1,0,,,1,,,,,,j,0.8669,8,0,8,0,1,,,,,,,,,,,,,,,,,,,,,,,,,,,,,,,,,,
296203,2022-10-07_14h05.01.862,vts_reward_expectancy,2022.2.4,Win32,60.12506013,Chrome,1536,864,,,,,,,,,,,,,,,,,,,,,,,F,167,circle,1,0,,,1,,,,,,k,0.8888,9,0,9,0,1,,,,,,,,,,,,,,,,,,,,,,,,,,,,,,,,,,
296203,2022-10-07_14h05.01.862,vts_reward_expectancy,2022.2.4,Win32,60.12506013,Chrome,1536,864,,,,,0,648,,,,,,,,,,,,,,,,,F,174,hexagon,1,0,,,2,,,,,,,,,,,,,-1,letter,NA,d,2.0706,vtsPrac,0,0,0,0,1,,,,,,,,,,,,,,,,,,,,,,,
296203,2022-10-07_14h05.01.862,vts_reward_expectancy,2022.2.4,Win32,60.12506013,Chrome,1536,864,,,,,0,648,,,,,,,,,,,,,,,,,S,139,triangle,1,0,,,2,,,,,,,,,,,,,repeat,letter,lettRpt,f,0.9615,vtsPrac,1,0,1,0,1,,,,,,,,,,,,,,,,,,,,,,,
296203,2022-10-07_14h05.01.862,vts_reward_expectancy,2022.2.4,Win32,60.12506013,Chrome,1536,864,,,,,0,648,,,,,,,,,,,,,,,,,D,181,hexagon,1,0,,,2,,,,,,,,,,,,,switch,number,numSwt,k,0.7843,vtsPrac,2,0,2,0,1,,,,,,,,,,,,,,,,,,,,,,,
296203,2022-10-07_14h05.01.862,vts_reward_expectancy,2022.2.4,Win32,60.12506013,Chrome,1536,864,,,,,0,648,,,,,,,,,,,,,,,,,Y,132,triangle,1,0,,,2,,,,,,,,,,,,,switch,letter,lettSwt,f,0.8289,vtsPrac,3,0,3,0,1,,,,,,,,,,,,,,,,,,,,,,,
296203,2022-10-07_14h05.01.862,vts_reward_expectancy,2022.2.4,Win32,60.12506013,Chrome,1536,864,,,,,0,648,,,,,,,,,,,,,,,,,F,174,hexagon,1,0,,,2,,,,,,,,,,,,,switch,number,numSwt,k,1.1524,vtsPrac,4,0,4,0,1,,,,,,,,,,,,,,,,,,,,,,,
296203,2022-10-07_14h05.01.862,vts_reward_expectancy,2022.2.4,Win32,60.12506013,Chrome,1536,864,,,,,0,648,,,,,,,,,,,,,,,,,S,139,circle,1,0,,,2,,,,,,,,,,,,,repeat,number,numRpt,j,1.1435,vtsPrac,5,0,5,0,1,,,,,,,,,,,,,,,,,,,,,,,
296203,2022-10-07_14h05.01.862,vts_reward_expectancy,2022.2.4,Win32,60.12506013,Chrome,1536,864,,,,,0,648,,,,,,,,,,,,,,,,,D,181,triangle,1,0,,,2,,,,,,,,,,,,,repeat,number,numRpt,k,0.6934,vtsPrac,6,0,6,0,1,,,,,,,,,,,,,,,,,,,,,,,
296203,2022-10-07_14h05.01.862,vts_reward_expectancy,2022.2.4,Win32,60.12506013,Chrome,1536,864,,,,,0,648,,,,,,,,,,,,,,,,,Y,132,circle,1,0,,,2,,,,,,,,,,,,,switch,letter,lettSwt,f,1.2717,vtsPrac,7,0,7,0,1,,,,,,,,,,,,,,,,,,,,,,,
296203,2022-10-07_14h05.01.862,vts_reward_expectancy,2022.2.4,Win32,60.12506013,Chrome,1536,864,,,,,0,648,,,,,,,,,,,,,,,,,D,174,circle,1,0,,,2,,,,,,,,,,,,,switch,number,numSwt,k,1.2962,vtsPrac,8,0,8,0,1,,,,,,,,,,,,,,,,,,,,,,,
296203,2022-10-07_14h05.01.862,vts_reward_expectancy,2022.2.4,Win32,60.12506013,Chrome,1536,864,,,,,0,648,,,,,,,,,,,,,,,,,U,160,hexagon,1,0,,,2,,,,,,,,,,,,,switch,letter,lettSwt,f,1.4964,vtsPrac,9,0,9,0,1,,,,,,,,,,,,,,,,,,,,,,,
296203,2022-10-07_14h05.01.862,vts_reward_expectancy,2022.2.4,Win32,60.12506013,Chrome,1536,864,,,,,0,648,,,,,,,,,,,,,,,,,H,139,circle,1,0,,,2,,,,,,,,,,,,,repeat,letter,lettRpt,d,1.6372,vtsPrac,10,0,10,0,1,,,,,,,,,,,,,,,,,,,,,,,
296203,2022-10-07_14h05.01.862,vts_reward_expectancy,2022.2.4,Win32,60.12506013,Chrome,1536,864,,,,,0,648,,,,,,,,,,,,,,,,,Y,146,hexagon,1,0,,,2,,,,,,,,,,,,,switch,number,numSwt,j,1.286,vtsPrac,11,0,11,0,1,,,,,,,,,,,,,,,,,,,,,,,
296203,2022-10-07_14h05.01.862,vts_reward_expectancy,2022.2.4,Win32,60.12506013,Chrome,1536,864,,,,,0,648,,,,,,,,,,,,,,,,,H,167,circle,1,0,,,2,,,,,,,,,,,,,repeat,number,numRpt,k,1.8126,vtsPrac,12,0,12,0,1,,,,,,,,,,,,,,,,,,,,,,,
296203,2022-10-07_14h05.01.862,vts_reward_expectancy,2022.2.4,Win32,60.12506013,Chrome,1536,864,,,,,0,648,,,,,,,,,,,,,,,,,U,139,triangle,1,0,,,2,,,,,,,,,,,,,switch,letter,lettSwt,f,1.2486,vtsPrac,13,0,13,0,1,,,,,,,,,,,,,,,,,,,,,,,
296203,2022-10-07_14h05.01.862,vts_reward_expectancy,2022.2.4,Win32,60.12506013,Chrome,1536,864,,,,,0,648,,,,,,,,,,,,,,,,,F,174,star,1,0,,,2,,,,,,,,,,,,,repeat,letter,lettRpt,d,1.994,vtsPrac,14,0,14,0,1,,,,,,,,,,,,,,,,,,,,,,,
296203,2022-10-07_14h05.01.862,vts_reward_expectancy,2022.2.4,Win32,60.12506013,Chrome,1536,864,,,,,0,648,,,,,,,,,,,,,,,,,B,146,triangle,1,0,,,2,,,,,,,,,,,,,switch,number,numSwt,j,2.6196,vtsPrac,15,0,15,0,1,,,,,,,,,,,,,,,,,,,,,,,
296203,2022-10-07_14h05.01.862,vts_reward_expectancy,2022.2.4,Win32,60.12506013,Chrome,1536,864,,,,,,,,,,,,,,,,,,,,,,,,,,,,,,,,,,,,,,,,,,,,,,,,,,,,,,,,,,,,,,,,,,,,,,,,,,,,
296203,2022-10-07_14h05.01.862,vts_reward_expectancy,2022.2.4,Win32,60.12506013,Chrome,1536,864,,,,,,,,,,,,,,,,,,,,,,,,,,,,,,,,,,,,,,,,,,,,,,,,,,,,,,,,,,,,,,,,,,,,,,,,,,,,
296203,2022-10-07_14h05.01.862,vts_reward_expectancy,2022.2.4,Win32,60.12506013,Chrome,1536,864,,,,,0,648,,,,,,,,,,,,,,,,,U,139,star,0,0,,,,,,,,,,,,,,,,switch,letter,NA,d,0.8388,noRew,,,,,,0,0,0,0,0,1,,,,,,,,,,,,,,,,,
296203,2022-10-07_14h05.01.862,vts_reward_expectancy,2022.2.4,Win32,60.12506013,Chrome,1536,864,,,,,0,648,,,,,,,,,,,,,,,,,D,146,hexagon,1,1,,,,,,,,,,,,,,,,repeat,letter,lettRpt,d,2.8204,noRew,,,,,,0,1,0,1,0,1,,,,,,,,,,,,,,,,,
296203,2022-10-07_14h05.01.862,vts_reward_expectancy,2022.2.4,Win32,60.12506013,Chrome,1536,864,,,,,0,648,,,,,,,,,,,,,,,,,Y,160,star,1,0,,,,,,,,,,,,,,,,switch,number,numSwt,k,1.523,noRew,,,,,,0,2,0,2,0,1,,,,,,,,,,,,,,,,,
296203,2022-10-07_14h05.01.862,vts_reward_expectancy,2022.2.4,Win32,60.12506013,Chrome,1536,864,,,,,0,648,,,,,,,,,,,,,,,,,W,181,hexagon,1,0,,,,,,,,,,,,,,,,repeat,number,numRpt,k,1.3713,noRew,,,,,,0,3,0,3,0,1,,,,,,,,,,,,,,,,,
296203,2022-10-07_14h05.01.862,vts_reward_expectancy,2022.2.4,Win32,60.12506013,Chrome,1536,864,,,,,0,648,,,,,,,,,,,,,,,,,U,139,triangle,1,0,,,,,,,,,,,,,,,,repeat,number,numRpt,j,0.5943,noRew,,,,,,0,4,0,4,0,1,,,,,,,,,,,,,,,,,
296203,2022-10-07_14h05.01.862,vts_reward_expectancy,2022.2.4,Win32,60.12506013,Chrome,1536,864,,,,,0,648,,,,,,,,,,,,,,,,,D,146,hexagon,1,0,,,,,,,,,,,,,,,,repeat,number,numRpt,j,1.1075,noRew,,,,,,0,5,0,5,0,1,,,,,,,,,,,,,,,,,
296203,2022-10-07_14h05.01.862,vts_reward_expectancy,2022.2.4,Win32,60.12506013,Chrome,1536,864,,,,,0,648,,,,,,,,,,,,,,,,,Y,160,circle,1,0,,,,,,,,,,,,,,,,switch,letter,lettSwt,f,1.4845,noRew,,,,,,0,6,0,6,0,1,,,,,,,,,,,,,,,,,
296203,2022-10-07_14h05.01.862,vts_reward_expectancy,2022.2.4,Win32,60.12506013,Chrome,1536,864,,,,,0,648,,,,,,,,,,,,,,,,,W,181,star,1,0,,,,,,,,,,,,,,,,repeat,letter,lettRpt,f,0.6943,noRew,,,,,,0,7,0,7,0,1,,,,,,,,,,,,,,,,,
296203,2022-10-07_14h05.01.862,vts_reward_expectancy,2022.2.4,Win32,60.12506013,Chrome,1536,864,,,,,0,648,,,,,,,,,,,,,,,,,S,181,circle,1,0,,,,,,,,,,,,,,,,repeat,letter,lettRpt,f,0.8252,noRew,,,,,,0,8,0,8,0,1,,,,,,,,,,,,,,,,,
296203,2022-10-07_14h05.01.862,vts_reward_expectancy,2022.2.4,Win32,60.12506013,Chrome,1536,864,,,,,0,648,,,,,,,,,,,,,,,,,H,132,star,1,0,,,,,,,,,,,,,,,,repeat,letter,lettRpt,d,1.7001,noRew,,,,,,0,9,0,9,0,1,,,,,,,,,,,,,,,,,
296203,2022-10-07_14h05.01.862,vts_reward_expectancy,2022.2.4,Win32,60.12506013,Chrome,1536,864,,,,,0,648,,,,,,,,,,,,,,,,,U,139,circle,1,0,,,,,,,,,,,,,,,,switch,number,numSwt,j,1.6394,noRew,,,,,,0,10,0,10,0,1,,,,,,,,,,,,,,,,,
296203,2022-10-07_14h05.01.862,vts_reward_expectancy,2022.2.4,Win32,60.12506013,Chrome,1536,864,,,,,0,648,,,,,,,,,,,,,,,,,B,160,hexagon,1,0,,,,,,,,,,,,,,,,repeat,number,numRpt,k,2.0957,noRew,,,,,,0,11,0,11,0,1,,,,,,,,,,,,,,,,,
296203,2022-10-07_14h05.01.862,vts_reward_expectancy,2022.2.4,Win32,60.12506013,Chrome,1536,864,,,,,0,648,,,,,,,,,,,,,,,,,Y,146,star,1,0,,,,,,,,,,,,,,,,switch,letter,lettSwt,f,1.0162,noRew,,,,,,0,12,0,12,0,1,,,,,,,,,,,,,,,,,
296203,2022-10-07_14h05.01.862,vts_reward_expectancy,2022.2.4,Win32,60.12506013,Chrome,1536,864,,,,,0,648,,,,,,,,,,,,,,,,,W,132,hexagon,1,0,,,,,,,,,,,,,,,,switch,number,numSwt,j,1.7454,noRew,,,,,,0,13,0,13,0,1,,,,,,,,,,,,,,,,,
296203,2022-10-07_14h05.01.862,vts_reward_expectancy,2022.2.4,Win32,60.12506013,Chrome,1536,864,,,,,0,648,,,,,,,,,,,,,,,,,U,181,star,1,0,,,,,,,,,,,,,,,,repeat,number,numRpt,k,2.232,noRew,,,,,,0,14,0,14,0,1,,,,,,,,,,,,,,,,,
296203,2022-10-07_14h05.01.862,vts_reward_expectancy,2022.2.4,Win32,60.12506013,Chrome,1536,864,,,,,0,648,,,,,,,,,,,,,,,,,H,139,hexagon,1,0,,,,,,,,,,,,,,,,switch,letter,lettSwt,d,1.4008,noRew,,,,,,0,15,0,15,0,1,,,,,,,,,,,,,,,,,
296203,2022-10-07_14h05.01.862,vts_reward_expectancy,2022.2.4,Win32,60.12506013,Chrome,1536,864,,,,,0,648,,,,,,,,,,,,,,,,,B,139,star,1,0,,,,,,,,,,,,,,,,repeat,letter,lettRpt,d,0.6838,noRew,,,,,,0,16,0,16,0,1,,,,,,,,,,,,,,,,,
296203,2022-10-07_14h05.01.862,vts_reward_expectancy,2022.2.4,Win32,60.12506013,Chrome,1536,864,,,,,0,648,,,,,,,,,,,,,,,,,S,167,triangle,1,0,,,,,,,,,,,,,,,,switch,number,numSwt,k,2.1053,noRew,,,,,,0,17,0,17,0,1,,,,,,,,,,,,,,,,,
296203,2022-10-07_14h05.01.862,vts_reward_expectancy,2022.2.4,Win32,60.12506013,Chrome,1536,864,,,,,0,648,,,,,,,,,,,,,,,,,D,125,hexagon,1,0,,,,,,,,,,,,,,,,switch,letter,lettSwt,d,0.8112,noRew,,,,,,0,18,0,18,0,1,,,,,,,,,,,,,,,,,
296203,2022-10-07_14h05.01.862,vts_reward_expectancy,2022.2.4,Win32,60.12506013,Chrome,1536,864,,,,,0,648,,,,,,,,,,,,,,,,,Y,146,star,1,0,,,,,,,,,,,,,,,,switch,number,numSwt,j,1.0336,noRew,,,,,,0,19,0,19,0,1,,,,,,,,,,,,,,,,,
296203,2022-10-07_14h05.01.862,vts_reward_expectancy,2022.2.4,Win32,60.12506013,Chrome,1536,864,,,,,0,648,,,,,,,,,,,,,,,,,W,139,circle,1,0,,,,,,,,,,,,,,,,repeat,number,numRpt,j,1.6857,noRew,,,,,,0,20,0,20,0,1,,,,,,,,,,,,,,,,,
296203,2022-10-07_14h05.01.862,vts_reward_expectancy,2022.2.4,Win32,60.12506013,Chrome,1536,864,,,,,0,648,,,,,,,,,,,,,,,,,Y,146,triangle,1,0,,,,,,,,,,,,,,,,repeat,number,numRpt,j,1.3917,noRew,,,,,,0,21,0,21,0,1,,,,,,,,,,,,,,,,,
296203,2022-10-07_14h05.01.862,vts_reward_expectancy,2022.2.4,Win32,60.12506013,Chrome,1536,864,,,,,0,648,,,,,,,,,,,,,,,,,S,160,circle,0,0,,,,,,,,,,,,,,,,repeat,number,NA,j,1.9846,noRew,,,,,,0,22,0,22,0,1,,,,,,,,,,,,,,,,,
296203,2022-10-07_14h05.01.862,vts_reward_expectancy,2022.2.4,Win32,60.12506013,Chrome,1536,864,,,,,0,648,,,,,,,,,,,,,,,,,B,125,hexagon,1,1,,,,,,,,,,,,,,,,switch,letter,lettSwt,d,0.6675,noRew,,,,,,0,23,0,23,0,1,,,,,,,,,,,,,,,,,
296203,2022-10-07_14h05.01.862,vts_reward_expectancy,2022.2.4,Win32,60.12506013,Chrome,1536,864,,,,,0,648,,,,,,,,,,,,,,,,,Y,146,star,1,0,,,,,,,,,,,,,,,,repeat,letter,lettRpt,f,1.5902,noRew,,,,,,0,24,0,24,0,1,,,,,,,,,,,,,,,,,
296203,2022-10-07_14h05.01.862,vts_reward_expectancy,2022.2.4,Win32,60.12506013,Chrome,1536,864,,,,,0,648,,,,,,,,,,,,,,,,,S,181,triangle,1,0,,,,,,,,,,,,,,,,repeat,letter,lettRpt,f,0.7605,noRew,,,,,,0,25,0,25,0,1,,,,,,,,,,,,,,,,,
296203,2022-10-07_14h05.01.862,vts_reward_expectancy,2022.2.4,Win32,60.12506013,Chrome,1536,864,,,,,0,648,,,,,,,,,,,,,,,,,D,125,circle,1,0,,,,,,,,,,,,,,,,switch,number,numSwt,j,0.6279,noRew,,,,,,0,26,0,26,0,1,,,,,,,,,,,,,,,,,
296203,2022-10-07_14h05.01.862,vts_reward_expectancy,2022.2.4,Win32,60.12506013,Chrome,1536,864,,,,,0,648,,,,,,,,,,,,,,,,,W,139,star,1,0,,,,,,,,,,,,,,,,switch,letter,lettSwt,f,0.9508,noRew,,,,,,0,27,0,27,0,1,,,,,,,,,,,,,,,,,
296203,2022-10-07_14h05.01.862,vts_reward_expectancy,2022.2.4,Win32,60.12506013,Chrome,1536,864,,,,,0,648,,,,,,,,,,,,,,,,,U,139,star,1,0,,,,,,,,,,,,,,,,switch,number,numSwt,j,0.9518,noRew,,,,,,0,28,0,28,0,1,,,,,,,,,,,,,,,,,
296203,2022-10-07_14h05.01.862,vts_reward_expectancy,2022.2.4,Win32,60.12506013,Chrome,1536,864,,,,,0,648,,,,,,,,,,,,,,,,,H,125,triangle,1,0,,,,,,,,,,,,,,,,repeat,number,numRpt,j,0.8678,noRew,,,,,,0,29,0,29,0,1,,,,,,,,,,,,,,,,,
296203,2022-10-07_14h05.01.862,vts_reward_expectancy,2022.2.4,Win32,60.12506013,Chrome,1536,864,,,,,0,648,,,,,,,,,,,,,,,,,D,167,triangle,1,0,,,,,,,,,,,,,,,,repeat,number,numRpt,k,0.9336,noRew,,,,,,0,30,0,30,0,1,,,,,,,,,,,,,,,,,
296203,2022-10-07_14h05.01.862,vts_reward_expectancy,2022.2.4,Win32,60.12506013,Chrome,1536,864,,,,,0,648,,,,,,,,,,,,,,,,,F,146,star,1,0,,,,,,,,,,,,,,,,switch,letter,lettSwt,d,2.8407,noRew,,,,,,0,31,0,31,0,1,,,,,,,,,,,,,,,,,
296203,2022-10-07_14h05.01.862,vts_reward_expectancy,2022.2.4,Win32,60.12506013,Chrome,1536,864,,,,,0,648,,,,,,,,,,,,,,,,,W,174,triangle,1,0,,,,,,,,,,,,,,,,repeat,letter,lettRpt,f,0.8254,noRew,,,,,,0,32,0,32,0,1,,,,,,,,,,,,,,,,,
296203,2022-10-07_14h05.01.862,vts_reward_expectancy,2022.2.4,Win32,60.12506013,Chrome,1536,864,,,,,0,648,,,,,,,,,,,,,,,,,F,139,star,1,0,,,,,,,,,,,,,,,,switch,number,numSwt,j,0.6778,noRew,,,,,,0,33,0,33,0,1,,,,,,,,,,,,,,,,,
296203,2022-10-07_14h05.01.862,vts_reward_expectancy,2022.2.4,Win32,60.12506013,Chrome,1536,864,,,,,0,648,,,,,,,,,,,,,,,,,U,160,star,1,0,,,,,,,,,,,,,,,,switch,letter,lettSwt,f,0.8326,noRew,,,,,,0,34,0,34,0,1,,,,,,,,,,,,,,,,,
296203,2022-10-07_14h05.01.862,vts_reward_expectancy,2022.2.4,Win32,60.12506013,Chrome,1536,864,,,,,0,648,,,,,,,,,,,,,,,,,D,125,triangle,1,0,,,,,,,,,,,,,,,,repeat,letter,lettRpt,d,0.6677,noRew,,,,,,0,35,0,35,0,1,,,,,,,,,,,,,,,,,
296203,2022-10-07_14h05.01.862,vts_reward_expectancy,2022.2.4,Win32,60.12506013,Chrome,1536,864,,,,,0,648,,,,,,,,,,,,,,,,,F,139,star,1,0,,,,,,,,,,,,,,,,repeat,letter,lettRpt,d,0.8782,noRew,,,,,,0,36,0,36,0,1,,,,,,,,,,,,,,,,,
296203,2022-10-07_14h05.01.862,vts_reward_expectancy,2022.2.4,Win32,60.12506013,Chrome,1536,864,,,,,0,648,,,,,,,,,,,,,,,,,W,125,triangle,1,0,,,,,,,,,,,,,,,,switch,number,numSwt,j,1.1589,noRew,,,,,,0,37,0,37,0,1,,,,,,,,,,,,,,,,,
296203,2022-10-07_14h05.01.862,vts_reward_expectancy,2022.2.4,Win32,60.12506013,Chrome,1536,864,,,,,0,648,,,,,,,,,,,,,,,,,D,181,star,1,0,,,,,,,,,,,,,,,,repeat,number,numRpt,k,1.794,noRew,,,,,,0,38,0,38,0,1,,,,,,,,,,,,,,,,,
296203,2022-10-07_14h05.01.862,vts_reward_expectancy,2022.2.4,Win32,60.12506013,Chrome,1536,864,,,,,0,648,,,,,,,,,,,,,,,,,B,174,hexagon,1,0,,,,,,,,,,,,,,,,repeat,number,numRpt,k,1.3156,noRew,,,,,,0,39,0,39,0,1,,,,,,,,,,,,,,,,,
296203,2022-10-07_14h05.01.862,vts_reward_expectancy,2022.2.4,Win32,60.12506013,Chrome,1536,864,,,,,0,648,,,,,,,,,,,,,,,,,Y,181,triangle,1,0,,,,,,,,,,,,,,,,switch,letter,lettSwt,f,2.0344,noRew,,,,,,0,40,0,40,0,1,,,,,,,,,,,,,,,,,
296203,2022-10-07_14h05.01.862,vts_reward_expectancy,2022.2.4,Win32,60.12506013,Chrome,1536,864,,,,,0,648,,,,,,,,,,,,,,,,,D,167,star,1,0,,,,,,,,,,,,,,,,repeat,letter,lettRpt,d,0.8187,noRew,,,,,,0,41,0,41,0,1,,,,,,,,,,,,,,,,,
296203,2022-10-07_14h05.01.862,vts_reward_expectancy,2022.2.4,Win32,60.12506013,Chrome,1536,864,,,,,0,648,,,,,,,,,,,,,,,,,U,146,triangle,1,0,,,,,,,,,,,,,,,,repeat,letter,lettRpt,f,1.1841,noRew,,,,,,0,42,0,42,0,1,,,,,,,,,,,,,,,,,
296203,2022-10-07_14h05.01.862,vts_reward_expectancy,2022.2.4,Win32,60.12506013,Chrome,1536,864,,,,,0,648,,,,,,,,,,,,,,,,,W,125,circle,1,0,,,,,,,,,,,,,,,,repeat,letter,lettRpt,f,0.956,noRew,,,,,,0,43,0,43,0,1,,,,,,,,,,,,,,,,,
296203,2022-10-07_14h05.01.862,vts_reward_expectancy,2022.2.4,Win32,60.12506013,Chrome,1536,864,,,,,0,648,,,,,,,,,,,,,,,,,U,139,triangle,1,0,,,,,,,,,,,,,,,,repeat,letter,lettRpt,f,0.6626,noRew,,,,,,0,44,0,44,0,1,,,,,,,,,,,,,,,,,
296203,2022-10-07_14h05.01.862,vts_reward_expectancy,2022.2.4,Win32,60.12506013,Chrome,1536,864,,,,,0,648,,,,,,,,,,,,,,,,,B,160,hexagon,1,0,,,,,,,,,,,,,,,,switch,number,numSwt,k,1.9757,noRew,,,,,,0,45,0,45,0,1,,,,,,,,,,,,,,,,,
296203,2022-10-07_14h05.01.862,vts_reward_expectancy,2022.2.4,Win32,60.12506013,Chrome,1536,864,,,,,0,648,,,,,,,,,,,,,,,,,S,146,circle,1,0,,,,,,,,,,,,,,,,repeat,number,numRpt,j,0.8615,noRew,,,,,,0,46,0,46,0,1,,,,,,,,,,,,,,,,,
296203,2022-10-07_14h05.01.862,vts_reward_expectancy,2022.2.4,Win32,60.12506013,Chrome,1536,864,,,,,0,648,,,,,,,,,,,,,,,,,D,167,hexagon,1,0,,,,,,,,,,,,,,,,repeat,number,numRpt,k,0.951,noRew,,,,,,0,47,0,47,0,1,,,,,,,,,,,,,,,,,
296203,2022-10-07_14h05.01.862,vts_reward_expectancy,2022.2.4,Win32,60.12506013,Chrome,1536,864,,,,,0,648,,,,,,,,,,,,,,,,,W,132,triangle,1,0,,,,,,,,,,,,,,,,repeat,number,numRpt,j,1.4356,noRew,,,,,,0,48,0,48,0,1,,,,,,,,,,,,,,,,,
296203,2022-10-07_14h05.01.862,vts_reward_expectancy,2022.2.4,Win32,60.12506013,Chrome,1536,864,,,,,0,648,,,,,,,,,,,,,,,,,S,174,star,1,0,,,,,,,,,,,,,,,,repeat,number,numRpt,k,1.3245,noRew,,,,,,0,49,0,49,0,1,,,,,,,,,,,,,,,,,
296203,2022-10-07_14h05.01.862,vts_reward_expectancy,2022.2.4,Win32,60.12506013,Chrome,1536,864,,,,,0,648,,,,,,,,,,,,,,,,,H,139,circle,1,0,,,,,,,,,,,,,,,,switch,letter,lettSwt,d,1.5449,noRew,,,,,,0,50,0,50,0,1,,,,,,,,,,,,,,,,,
296203,2022-10-07_14h05.01.862,vts_reward_expectancy,2022.2.4,Win32,60.12506013,Chrome,1536,864,,,,,0,648,,,,,,,,,,,,,,,,,F,125,star,1,0,,,,,,,,,,,,,,,,repeat,letter,lettRpt,d,1.0114,noRew,,,,,,0,51,0,51,0,1,,,,,,,,,,,,,,,,,
296203,2022-10-07_14h05.01.862,vts_reward_expectancy,2022.2.4,Win32,60.12506013,Chrome,1536,864,,,,,0,648,,,,,,,,,,,,,,,,,Y,146,star,1,0,,,,,,,,,,,,,,,,switch,number,numSwt,j,1.2029,noRew,,,,,,0,52,0,52,0,1,,,,,,,,,,,,,,,,,
296203,2022-10-07_14h05.01.862,vts_reward_expectancy,2022.2.4,Win32,60.12506013,Chrome,1536,864,,,,,0,648,,,,,,,,,,,,,,,,,B,139,triangle,1,0,,,,,,,,,,,,,,,,repeat,number,numRpt,j,2.6864,noRew,,,,,,0,53,0,53,0,1,,,,,,,,,,,,,,,,,
296203,2022-10-07_14h05.01.862,vts_reward_expectancy,2022.2.4,Win32,60.12506013,Chrome,1536,864,,,,,0,648,,,,,,,,,,,,,,,,,D,167,circle,1,0,,,,,,,,,,,,,,,,switch,letter,lettSwt,d,1.8168,noRew,,,,,,0,54,0,54,0,1,,,,,,,,,,,,,,,,,
296203,2022-10-07_14h05.01.862,vts_reward_expectancy,2022.2.4,Win32,60.12506013,Chrome,1536,864,,,,,0,648,,,,,,,,,,,,,,,,,W,160,triangle,-1,0,,,,,,,,,,,,,,,,switch,no_choice,NA,,,noRew,,,,,,0,55,0,55,0,1,,,,,,,,,,,,,,,,,
296203,2022-10-07_14h05.01.862,vts_reward_expectancy,2022.2.4,Win32,60.12506013,Chrome,1536,864,,,,,0,648,,,,,,,,,,,,,,,,,H,181,triangle,1,0,,,,,,,,,,,,,,,,switch,number,numSwt,k,2.011,noRew,,,,,,0,56,0,56,0,1,,,,,,,,,,,,,,,,,
296203,2022-10-07_14h05.01.862,vts_reward_expectancy,2022.2.4,Win32,60.12506013,Chrome,1536,864,,,,,0,648,,,,,,,,,,,,,,,,,Y,146,star,1,0,,,,,,,,,,,,,,,,switch,letter,lettSwt,f,0.7676,noRew,,,,,,0,57,0,57,0,1,,,,,,,,,,,,,,,,,
296203,2022-10-07_14h05.01.862,vts_reward_expectancy,2022.2.4,Win32,60.12506013,Chrome,1536,864,,,,,0,648,,,,,,,,,,,,,,,,,U,132,hexagon,1,0,,,,,,,,,,,,,,,,repeat,letter,lettRpt,f,0.6932,noRew,,,,,,0,58,0,58,0,1,,,,,,,,,,,,,,,,,
296203,2022-10-07_14h05.01.862,vts_reward_expectancy,2022.2.4,Win32,60.12506013,Chrome,1536,864,,,,,0,648,,,,,,,,,,,,,,,,,W,125,star,1,0,,,,,,,,,,,,,,,,switch,number,numSwt,j,0.8919,noRew,,,,,,0,59,0,59,0,1,,,,,,,,,,,,,,,,,
296203,2022-10-07_14h05.01.862,vts_reward_expectancy,2022.2.4,Win32,60.12506013,Chrome,1536,864,,,,,0,648,,,,,,,,,,,,,,,,,U,139,star,1,0,,,,,,,,,,,,,,,,repeat,number,numRpt,j,0.8163,noRew,,,,,,0,60,0,60,0,1,,,,,,,,,,,,,,,,,
296203,2022-10-07_14h05.01.862,vts_reward_expectancy,2022.2.4,Win32,60.12506013,Chrome,1536,864,,,,,0,648,,,,,,,,,,,,,,,,,S,160,hexagon,1,0,,,,,,,,,,,,,,,,repeat,number,numRpt,k,1.0503,noRew,,,,,,0,61,0,61,0,1,,,,,,,,,,,,,,,,,
296203,2022-10-07_14h05.01.862,vts_reward_expectancy,2022.2.4,Win32,60.12506013,Chrome,1536,864,,,,,0,648,,,,,,,,,,,,,,,,,Y,174,hexagon,1,0,,,,,,,,,,,,,,,,repeat,number,numRpt,k,0.7167,noRew,,,,,,0,62,0,62,0,1,,,,,,,,,,,,,,,,,
296203,2022-10-07_14h05.01.862,vts_reward_expectancy,2022.2.4,Win32,60.12506013,Chrome,1536,864,,,,,0,648,,,,,,,,,,,,,,,,,H,181,triangle,1,0,,,,,,,,,,,,,,,,switch,letter,lettSwt,d,0.7046,noRew,,,,,,0,63,0,63,0,1,,,,,,,,,,,,,,,,,
296203,2022-10-07_14h05.01.862,vts_reward_expectancy,2022.2.4,Win32,60.12506013,Chrome,1536,864,,,,,,,,,,,,,,,,,,,,,,,,,,,,,,,,,,,,,,,,,,,,,,,,,,,,,,,,,,,,,,,,,,,,,,,,,,,,
296203,2022-10-07_14h05.01.862,vts_reward_expectancy,2022.2.4,Win32,60.12506013,Chrome,1536,864,,,,,10,658,,,,,,,,,,,,,,,,,B,160,triangle,1,0,,,,,,,,,,,,,,,,repeat,letter,lettRpt,d,0.7457,Hi,,,,,,0,,,,,,space,6.7047,high,0,0,0,0,1,,,,,,,,,
296203,2022-10-07_14h05.01.862,vts_reward_expectancy,2022.2.4,Win32,60.12506013,Chrome,1536,864,,,,,1,659,,,,,,,,,,,,,,,,,S,174,star,1,0,,,,,,,,,,,,,,,,switch,number,numSwt,k,0.9075,Lo,,,,,,0,,,,,,,,high,1,0,1,0,1,,,,,,,,,
296203,2022-10-07_14h05.01.862,vts_reward_expectancy,2022.2.4,Win32,60.12506013,Chrome,1536,864,,,,,0,659,,,,,,,,,,,,,,,,,D,167,triangle,1,0,,,,,,,,,,,,,,,,switch,letter,lettSwt,d,0.9043,Hi,,,,,,0,,,,,,,,high,2,0,2,0,1,,,,,,,,,
296203,2022-10-07_14h05.01.862,vts_reward_expectancy,2022.2.4,Win32,60.12506013,Chrome,1536,864,,,,,1,660,,,,,,,,,,,,,,,,,H,132,star,1,0,,,,,,,,,,,,,,,,switch,number,numSwt,j,1.0755,Lo,,,,,,0,,,,,,,,high,3,0,3,0,1,,,,,,,,,
296203,2022-10-07_14h05.01.862,vts_reward_expectancy,2022.2.4,Win32,60.12506013,Chrome,1536,864,,,,,0,660,,,,,,,,,,,,,,,,,W,139,triangle,1,0,,,,,,,,,,,,,,,,repeat,number,numRpt,j,1.3284,Hi,,,,,,0,,,,,,,,high,4,0,4,0,1,,,,,,,,,
296203,2022-10-07_14h05.01.862,vts_reward_expectancy,2022.2.4,Win32,60.12506013,Chrome,1536,864,,,,,1,661,,,,,,,,,,,,,,,,,Y,181,star,1,0,,,,,,,,,,,,,,,,switch,letter,lettSwt,f,0.5361,Lo,,,,,,0,,,,,,,,high,5,0,5,0,1,,,,,,,,,
296203,2022-10-07_14h05.01.862,vts_reward_expectancy,2022.2.4,Win32,60.12506013,Chrome,1536,864,,,,,1,662,,,,,,,,,,,,,,,,,F,146,star,1,0,,,,,,,,,,,,,,,,switch,number,numSwt,j,1.6319,Lo,,,,,,0,,,,,,,,high,6,0,6,0,1,,,,,,,,,
296203,2022-10-07_14h05.01.862,vts_reward_expectancy,2022.2.4,Win32,60.12506013,Chrome,1536,864,,,,,10,672,,,,,,,,,,,,,,,,,U,125,triangle,1,0,,,,,,,,,,,,,,,,switch,letter,lettSwt,f,0.5403,Hi,,,,,,0,,,,,,,,high,7,0,7,0,1,,,,,,,,,
296203,2022-10-07_14h05.01.862,vts_reward_expectancy,2022.2.4,Win32,60.12506013,Chrome,1536,864,,,,,1,673,,,,,,,,,,,,,,,,,B,160,star,1,0,,,,,,,,,,,,,,,,switch,number,numSwt,k,1.8339,Lo,,,,,,0,,,,,,,,high,8,0,8,0,1,,,,,,,,,
296203,2022-10-07_14h05.01.862,vts_reward_expectancy,2022.2.4,Win32,60.12506013,Chrome,1536,864,,,,,10,683,,,,,,,,,,,,,,,,,S,174,triangle,1,0,,,,,,,,,,,,,,,,repeat,number,numRpt,k,0.6502,Hi,,,,,,0,,,,,,,,high,9,0,9,0,1,,,,,,,,,
296203,2022-10-07_14h05.01.862,vts_reward_expectancy,2022.2.4,Win32,60.12506013,Chrome,1536,864,,,,,10,693,,,,,,,,,,,,,,,,,D,167,triangle,1,0,,,,,,,,,,,,,,,,repeat,number,numRpt,k,0.6666,Hi,,,,,,0,,,,,,,,high,10,0,10,0,1,,,,,,,,,
296203,2022-10-07_14h05.01.862,vts_reward_expectancy,2022.2.4,Win32,60.12506013,Chrome,1536,864,,,,,1,694,,,,,,,,,,,,,,,,,H,132,star,1,0,,,,,,,,,,,,,,,,repeat,number,numRpt,j,1.0999,Lo,,,,,,0,,,,,,,,high,11,0,11,0,1,,,,,,,,,
296203,2022-10-07_14h05.01.862,vts_reward_expectancy,2022.2.4,Win32,60.12506013,Chrome,1536,864,,,,,1,695,,,,,,,,,,,,,,,,,W,139,star,1,0,,,,,,,,,,,,,,,,repeat,number,numRpt,j,0.5341,Lo,,,,,,0,,,,,,,,high,12,0,12,0,1,,,,,,,,,
296203,2022-10-07_14h05.01.862,vts_reward_expectancy,2022.2.4,Win32,60.12506013,Chrome,1536,864,,,,,10,705,,,,,,,,,,,,,,,,,Y,181,triangle,1,0,,,,,,,,,,,,,,,,switch,letter,lettSwt,f,0.5172,Hi,,,,,,0,,,,,,,,high,13,0,13,0,1,,,,,,,,,
296203,2022-10-07_14h05.01.862,vts_reward_expectancy,2022.2.4,Win32,60.12506013,Chrome,1536,864,,,,,1,706,,,,,,,,,,,,,,,,,F,146,star,1,0,,,,,,,,,,,,,,,,repeat,letter,lettRpt,d,1.0344,Lo,,,,,,0,,,,,,,,high,14,0,14,0,1,,,,,,,,,
296203,2022-10-07_14h05.01.862,vts_reward_expectancy,2022.2.4,Win32,60.12506013,Chrome,1536,864,,,,,10,716,,,,,,,,,,,,,,,,,U,125,triangle,1,0,,,,,,,,,,,,,,,,repeat,letter,lettRpt,f,0.6328,Hi,,,,,,0,,,,,,,,high,15,0,15,0,1,,,,,,,,,
296203,2022-10-07_14h05.01.862,vts_reward_expectancy,2022.2.4,Win32,60.12506013,Chrome,1536,864,,,,,0,716,,,,,,,,,,,,,,,,,U,160,triangle,1,0,,,,,,,,,,,,,,,,repeat,letter,lettRpt,f,0.8183,Hi,,,,,,0,,,,,,,,high,16,0,16,0,1,,,,,,,,,
296203,2022-10-07_14h05.01.862,vts_reward_expectancy,2022.2.4,Win32,60.12506013,Chrome,1536,864,,,,,1,717,,,,,,,,,,,,,,,,,Y,174,star,1,0,,,,,,,,,,,,,,,,repeat,letter,lettRpt,f,0.8441,Lo,,,,,,0,,,,,,,,high,17,0,17,0,1,,,,,,,,,
296203,2022-10-07_14h05.01.862,vts_reward_expectancy,2022.2.4,Win32,60.12506013,Chrome,1536,864,,,,,1,718,,,,,,,,,,,,,,,,,W,181,star,1,0,,,,,,,,,,,,,,,,switch,number,numSwt,k,0.5784,Lo,,,,,,0,,,,,,,,high,18,0,18,0,1,,,,,,,,,
296203,2022-10-07_14h05.01.862,vts_reward_expectancy,2022.2.4,Win32,60.12506013,Chrome,1536,864,,,,,10,728,,,,,,,,,,,,,,,,,B,167,triangle,1,0,,,,,,,,,,,,,,,,repeat,number,numRpt,k,0.5147,Hi,,,,,,0,,,,,,,,high,19,0,19,0,1,,,,,,,,,
296203,2022-10-07_14h05.01.862,vts_reward_expectancy,2022.2.4,Win32,60.12506013,Chrome,1536,864,,,,,10,738,,,,,,,,,,,,,,,,,F,146,triangle,1,0,,,,,,,,,,,,,,,,repeat,number,numRpt,j,0.428,Hi,,,,,,0,,,,,,,,high,20,0,20,0,1,,,,,,,,,
296203,2022-10-07_14h05.01.862,vts_reward_expectancy,2022.2.4,Win32,60.12506013,Chrome,1536,864,,,,,1,739,,,,,,,,,,,,,,,,,H,139,star,1,0,,,,,,,,,,,,,,,,switch,letter,lettSwt,d,0.6617,Lo,,,,,,0,,,,,,,,high,21,0,21,0,1,,,,,,,,,
296203,2022-10-07_14h05.01.862,vts_reward_expectancy,2022.2.4,Win32,60.12506013,Chrome,1536,864,,,,,1,740,,,,,,,,,,,,,,,,,D,132,triangle,1,0,,,,,,,,,,,,,,,,repeat,letter,lettRpt,d,0.555,Hi,,,,,,0,,,,,,,,high,22,0,22,0,1,,,,,,,,,
296203,2022-10-07_14h05.01.862,vts_reward_expectancy,2022.2.4,Win32,60.12506013,Chrome,1536,864,,,,,1,741,,,,,,,,,,,,,,,,,S,125,star,1,0,,,,,,,,,,,,,,,,repeat,letter,lettRpt,f,2.4476,Lo,,,,,,0,,,,,,,,high,23,0,23,0,1,,,,,,,,,
296203,2022-10-07_14h05.01.862,vts_reward_expectancy,2022.2.4,Win32,60.12506013,Chrome,1536,864,,,,,1,742,,,,,,,,,,,,,,,,,H,160,star,1,0,,,,,,,,,,,,,,,,switch,number,numSwt,k,2.2015,Lo,,,,,,0,,,,,,,,high,24,0,24,0,1,,,,,,,,,
296203,2022-10-07_14h05.01.862,vts_reward_expectancy,2022.2.4,Win32,60.12506013,Chrome,1536,864,,,,,10,752,,,,,,,,,,,,,,,,,Y,139,triangle,1,0,,,,,,,,,,,,,,,,switch,letter,lettSwt,f,0.4653,Hi,,,,,,0,,,,,,,,high,25,0,25,0,1,,,,,,,,,
296203,2022-10-07_14h05.01.862,vts_reward_expectancy,2022.2.4,Win32,60.12506013,Chrome,1536,864,,,,,0,752,,,,,,,,,,,,,,,,,F,132,star,-1,0,,,,,,,,,,,,,,,,switch,no_choice,NA,,,Hi,,,,,,0,,,,,,,,high,26,0,26,0,1,,,,,,,,,
296203,2022-10-07_14h05.01.862,vts_reward_expectancy,2022.2.4,Win32,60.12506013,Chrome,1536,864,,,,,0,752,,,,,,,,,,,,,,,,,B,146,triangle,0,0,,,,,,,,,,,,,,,,switch,letter,NA,f,0.5582,Hi,,,,,,0,,,,,,,,high,27,0,27,0,1,,,,,,,,,
296203,2022-10-07_14h05.01.862,vts_reward_expectancy,2022.2.4,Win32,60.12506013,Chrome,1536,864,,,,,10,762,,,,,,,,,,,,,,,,,D,167,triangle,1,1,,,,,,,,,,,,,,,,repeat,letter,lettRpt,d,0.5782,Hi,,,,,,0,,,,,,,,high,28,0,28,0,1,,,,,,,,,
296203,2022-10-07_14h05.01.862,vts_reward_expectancy,2022.2.4,Win32,60.12506013,Chrome,1536,864,,,,,1,763,,,,,,,,,,,,,,,,,U,125,star,1,0,,,,,,,,,,,,,,,,switch,number,numSwt,j,0.5343,Lo,,,,,,0,,,,,,,,high,29,0,29,0,1,,,,,,,,,
296203,2022-10-07_14h05.01.862,vts_reward_expectancy,2022.2.4,Win32,60.12506013,Chrome,1536,864,,,,,1,764,,,,,,,,,,,,,,,,,S,174,star,1,0,,,,,,,,,,,,,,,,switch,letter,lettSwt,f,1.1166,Lo,,,,,,0,,,,,,,,high,30,0,30,0,1,,,,,,,,,
296203,2022-10-07_14h05.01.862,vts_reward_expectancy,2022.2.4,Win32,60.12506013,Chrome,1536,864,,,,,10,774,,,,,,,,,,,,,,,,,W,181,triangle,1,0,,,,,,,,,,,,,,,,switch,number,numSwt,k,0.5671,Hi,,,,,,0,,,,,,,,high,31,0,31,0,1,,,,,,,,,
296203,2022-10-07_14h05.01.862,vts_reward_expectancy,2022.2.4,Win32,60.12506013,Chrome,1536,864,,,,,1,775,,,,,,,,,,,,,,,,,U,139,circle,1,0,,,,,,,,,,,,,,,,switch,letter,lettSwt,f,0.5507,Lo,,,,,,1,,,,,,space,5.8803,low,0,0,0,0,1,,,,,,,,,
296203,2022-10-07_14h05.01.862,vts_reward_expectancy,2022.2.4,Win32,60.12506013,Chrome,1536,864,,,,,10,785,,,,,,,,,,,,,,,,,Y,181,hexagon,1,0,,,,,,,,,,,,,,,,repeat,letter,lettRpt,f,0.4756,Hi,,,,,,1,,,,,,,,low,1,0,1,0,1,,,,,,,,,
296203,2022-10-07_14h05.01.862,vts_reward_expectancy,2022.2.4,Win32,60.12506013,Chrome,1536,864,,,,,10,795,,,,,,,,,,,,,,,,,B,132,circle,1,0,,,,,,,,,,,,,,,,switch,number,numSwt,j,0.5671,Lo,,,,,,1,,,,,,,,low,2,0,2,0,1,,,,,,,,,
296203,2022-10-07_14h05.01.862,vts_reward_expectancy,2022.2.4,Win32,60.12506013,Chrome,1536,864,,,,,0,795,,,,,,,,,,,,,,,,,D,125,hexagon,1,0,,,,,,,,,,,,,,,,repeat,number,numRpt,j,0.686,Hi,,,,,,1,,,,,,,,low,3,0,3,0,1,,,,,,,,,
296203,2022-10-07_14h05.01.862,vts_reward_expectancy,2022.2.4,Win32,60.12506013,Chrome,1536,864,,,,,10,805,,,,,,,,,,,,,,,,,S,167,hexagon,1,0,,,,,,,,,,,,,,,,switch,letter,lettSwt,f,0.5007,Hi,,,,,,1,,,,,,,,low,4,0,4,0,1,,,,,,,,,
296203,2022-10-07_14h05.01.862,vts_reward_expectancy,2022.2.4,Win32,60.12506013,Chrome,1536,864,,,,,1,806,,,,,,,,,,,,,,,,,F,174,circle,1,0,,,,,,,,,,,,,,,,switch,number,numSwt,k,0.6176,Lo,,,,,,1,,,,,,,,low,5,0,5,0,1,,,,,,,,,
296203,2022-10-07_14h05.01.862,vts_reward_expectancy,2022.2.4,Win32,60.12506013,Chrome,1536,864,,,,,1,807,,,,,,,,,,,,,,,,,W,146,circle,1,0,,,,,,,,,,,,,,,,repeat,number,numRpt,j,0.5507,Lo,,,,,,1,,,,,,,,low,6,0,6,0,1,,,,,,,,,
296203,2022-10-07_14h05.01.862,vts_reward_expectancy,2022.2.4,Win32,60.12506013,Chrome,1536,864,,,,,0,807,,,,,,,,,,,,,,,,,H,160,hexagon,1,0,,,,,,,,,,,,,,,,switch,letter,lettSwt,d,0.5666,Hi,,,,,,1,,,,,,,,low,7,0,7,0,1,,,,,,,,,
296203,2022-10-07_14h05.01.862,vts_reward_expectancy,2022.2.4,Win32,60.12506013,Chrome,1536,864,,,,,0,807,,,,,,,,,,,,,,,,,U,139,hexagon,1,0,,,,,,,,,,,,,,,,switch,number,numSwt,j,0.7175,Hi,,,,,,1,,,,,,,,low,8,0,8,0,1,,,,,,,,,
296203,2022-10-07_14h05.01.862,vts_reward_expectancy,2022.2.4,Win32,60.12506013,Chrome,1536,864,,,,,10,817,,,,,,,,,,,,,,,,,Y,181,circle,1,0,,,,,,,,,,,,,,,,repeat,number,numRpt,k,0.4618,Lo,,,,,,1,,,,,,,,low,9,0,9,0,1,,,,,,,,,
296203,2022-10-07_14h05.01.862,vts_reward_expectancy,2022.2.4,Win32,60.12506013,Chrome,1536,864,,,,,0,817,,,,,,,,,,,,,,,,,B,132,hexagon,0,0,,,,,,,,,,,,,,,,switch,letter,NA,f,0.4385,Lo,,,,,,1,,,,,,,,low,10,0,10,0,1,,,,,,,,,
296203,2022-10-07_14h05.01.862,vts_reward_expectancy,2022.2.4,Win32,60.12506013,Chrome,1536,864,,,,,10,827,,,,,,,,,,,,,,,,,D,125,circle,1,1,,,,,,,,,,,,,,,,switch,number,numSwt,j,0.6666,Lo,,,,,,1,,,,,,,,low,11,0,11,0,1,,,,,,,,,
296203,2022-10-07_14h05.01.862,vts_reward_expectancy,2022.2.4,Win32,60.12506013,Chrome,1536,864,,,,,10,837,,,,,,,,,,,,,,,,,S,167,circle,1,0,,,,,,,,,,,,,,,,repeat,number,numRpt,k,0.5011,Lo,,,,,,1,,,,,,,,low,12,0,12,0,1,,,,,,,,,
296203,2022-10-07_14h05.01.862,vts_reward_expectancy,2022.2.4,Win32,60.12506013,Chrome,1536,864,,,,,10,847,,,,,,,,,,,,,,,,,F,174,hexagon,1,0,,,,,,,,,,,,,,,,switch,letter,lettSwt,d,0.5078,Hi,,,,,,1,,,,,,,,low,13,0,13,0,1,,,,,,,,,
296203,2022-10-07_14h05.01.862,vts_reward_expectancy,2022.2.4,Win32,60.12506013,Chrome,1536,864,,,,,10,857,,,,,,,,,,,,,,,,,W,146,circle,1,0,,,,,,,,,,,,,,,,switch,number,numSwt,j,0.4947,Lo,,,,,,1,,,,,,,,low,14,0,14,0,1,,,,,,,,,
296203,2022-10-07_14h05.01.862,vts_reward_expectancy,2022.2.4,Win32,60.12506013,Chrome,1536,864,,,,,0,857,,,,,,,,,,,,,,,,,H,160,hexagon,1,0,,,,,,,,,,,,,,,,switch,letter,lettSwt,d,0.5665,Hi,,,,,,1,,,,,,,,low,15,0,15,0,1,,,,,,,,,
296203,2022-10-07_14h05.01.862,vts_reward_expectancy,2022.2.4,Win32,60.12506013,Chrome,1536,864,,,,,1,858,,,,,,,,,,,,,,,,,U,132,hexagon,1,0,,,,,,,,,,,,,,,,repeat,letter,lettRpt,f,0.461,Hi,,,,,,1,,,,,,,,low,16,0,16,0,1,,,,,,,,,
296203,2022-10-07_14h05.01.862,vts_reward_expectancy,2022.2.4,Win32,60.12506013,Chrome,1536,864,,,,,10,868,,,,,,,,,,,,,,,,,Y,139,circle,1,0,,,,,,,,,,,,,,,,switch,number,numSwt,j,0.486,Lo,,,,,,1,,,,,,,,low,17,0,17,0,1,,,,,,,,,
296203,2022-10-07_14h05.01.862,vts_reward_expectancy,2022.2.4,Win32,60.12506013,Chrome,1536,864,,,,,1,869,,,,,,,,,,,,,,,,,F,160,hexagon,1,0,,,,,,,,,,,,,,,,switch,letter,lettSwt,d,0.4005,Hi,,,,,,1,,,,,,,,low,18,0,18,0,1,,,,,,,,,
296203,2022-10-07_14h05.01.862,vts_reward_expectancy,2022.2.4,Win32,60.12506013,Chrome,1536,864,,,,,1,870,,,,,,,,,,,,,,,,,H,146,circle,1,0,,,,,,,,,,,,,,,,switch,number,numSwt,j,0.4331,Lo,,,,,,1,,,,,,,,low,19,0,19,0,1,,,,,,,,,
296203,2022-10-07_14h05.01.862,vts_reward_expectancy,2022.2.4,Win32,60.12506013,Chrome,1536,864,,,,,10,880,,,,,,,,,,,,,,,,,B,181,circle,1,0,,,,,,,,,,,,,,,,repeat,number,numRpt,k,0.4265,Lo,,,,,,1,,,,,,,,low,20,0,20,0,1,,,,,,,,,
296203,2022-10-07_14h05.01.862,vts_reward_expectancy,2022.2.4,Win32,60.12506013,Chrome,1536,864,,,,,0,880,,,,,,,,,,,,,,,,,S,174,hexagon,0,0,,,,,,,,,,,,,,,,switch,letter,NA,d,0.7679,Lo,,,,,,1,,,,,,,,low,21,0,21,0,1,,,,,,,,,
296203,2022-10-07_14h05.01.862,vts_reward_expectancy,2022.2.4,Win32,60.12506013,Chrome,1536,864,,,,,0,880,,,,,,,,,,,,,,,,,D,167,hexagon,1,1,,,,,,,,,,,,,,,,repeat,letter,lettRpt,d,0.7831,Hi,,,,,,1,,,,,,,,low,22,0,22,0,1,,,,,,,,,
296203,2022-10-07_14h05.01.862,vts_reward_expectancy,2022.2.4,Win32,60.12506013,Chrome,1536,864,,,,,10,890,,,,,,,,,,,,,,,,,W,125,circle,1,0,,,,,,,,,,,,,,,,switch,number,numSwt,j,0.5171,Lo,,,,,,1,,,,,,,,low,23,0,23,0,1,,,,,,,,,
296203,2022-10-07_14h05.01.862,vts_reward_expectancy,2022.2.4,Win32,60.12506013,Chrome,1536,864,,,,,0,890,,,,,,,,,,,,,,,,,F,174,circle,0,0,,,,,,,,,,,,,,,,repeat,number,NA,j,0.6207,Lo,,,,,,1,,,,,,,,low,24,0,24,0,1,,,,,,,,,
296203,2022-10-07_14h05.01.862,vts_reward_expectancy,2022.2.4,Win32,60.12506013,Chrome,1536,864,,,,,0,890,,,,,,,,,,,,,,,,,W,181,hexagon,1,1,,,,,,,,,,,,,,,,repeat,number,numRpt,k,0.606,Hi,,,,,,1,,,,,,,,low,25,0,25,0,1,,,,,,,,,
296203,2022-10-07_14h05.01.862,vts_reward_expectancy,2022.2.4,Win32,60.12506013,Chrome,1536,864,,,,,10,900,,,,,,,,,,,,,,,,,S,139,circle,1,0,,,,,,,,,,,,,,,,repeat,number,numRpt,j,0.4055,Lo,,,,,,1,,,,,,,,low,26,0,26,0,1,,,,,,,,,
296203,2022-10-07_14h05.01.862,vts_reward_expectancy,2022.2.4,Win32,60.12506013,Chrome,1536,864,,,,,10,910,,,,,,,,,,,,,,,,,D,160,hexagon,1,0,,,,,,,,,,,,,,,,switch,letter,lettSwt,d,0.5167,Hi,,,,,,1,,,,,,,,low,27,0,27,0,1,,,,,,,,,
296203,2022-10-07_14h05.01.862,vts_reward_expectancy,2022.2.4,Win32,60.12506013,Chrome,1536,864,,,,,1,911,,,,,,,,,,,,,,,,,Y,125,circle,1,0,,,,,,,,,,,,,,,,switch,number,numSwt,j,0.3917,Lo,,,,,,1,,,,,,,,low,28,0,28,0,1,,,,,,,,,
296203,2022-10-07_14h05.01.862,vts_reward_expectancy,2022.2.4,Win32,60.12506013,Chrome,1536,864,,,,,10,921,,,,,,,,,,,,,,,,,H,132,hexagon,1,0,,,,,,,,,,,,,,,,switch,letter,lettSwt,d,0.4004,Hi,,,,,,1,,,,,,,,low,29,0,29,0,1,,,,,,,,,
296203,2022-10-07_14h05.01.862,vts_reward_expectancy,2022.2.4,Win32,60.12506013,Chrome,1536,864,,,,,1,922,,,,,,,,,,,,,,,,,U,146,hexagon,1,0,,,,,,,,,,,,,,,,repeat,letter,lettRpt,f,0.5509,Hi,,,,,,1,,,,,,,,low,30,0,30,0,1,,,,,,,,,
296203,2022-10-07_14h05.01.862,vts_reward_expectancy,2022.2.4,Win32,60.12506013,Chrome,1536,864,,,,,10,932,,,,,,,,,,,,,,,,,B,167,circle,1,0,,,,,,,,,,,,,,,,switch,number,numSwt,k,0.4174,Lo,,,,,,1,,,,,,,,low,31,0,31,0,1,,,,,,,,,
296203,2022-10-07_14h05.01.862,vts_reward_expectancy,2022.2.4,Win32,60.12506013,Chrome,1536,864,,,,,0,932,,,,,,,,,,,,,,,,,Y,125,hexagon,1,0,,,,,,,,,,,,,,,,repeat,number,numRpt,j,0.6346,Hi,,,,,,2,,,,,,space,3.2652,low,0,0,0,0,1,,,,,,,,,
296203,2022-10-07_14h05.01.862,vts_reward_expectancy,2022.2.4,Win32,60.12506013,Chrome,1536,864,,,,,10,942,,,,,,,,,,,,,,,,,D,139,circle,1,0,,,,,,,,,,,,,,,,repeat,number,numRpt,j,0.4246,Lo,,,,,,2,,,,,,,,low,1,0,1,0,1,,,,,,,,,
296203,2022-10-07_14h05.01.862,vts_reward_expectancy,2022.2.4,Win32,60.12506013,Chrome,1536,864,,,,,0,942,,,,,,,,,,,,,,,,,U,181,hexagon,1,0,,,,,,,,,,,,,,,,switch,letter,lettSwt,f,0.5179,Hi,,,,,,2,,,,,,,,low,2,0,2,0,1,,,,,,,,,
296203,2022-10-07_14h05.01.862,vts_reward_expectancy,2022.2.4,Win32,60.12506013,Chrome,1536,864,,,,,1,943,,,,,,,,,,,,,,,,,F,174,circle,1,0,,,,,,,,,,,,,,,,switch,number,numSwt,k,0.4222,Lo,,,,,,2,,,,,,,,low,3,0,3,0,1,,,,,,,,,
296203,2022-10-07_14h05.01.862,vts_reward_expectancy,2022.2.4,Win32,60.12506013,Chrome,1536,864,,,,,10,953,,,,,,,,,,,,,,,,,H,146,hexagon,1,0,,,,,,,,,,,,,,,,switch,letter,lettSwt,d,0.4721,Hi,,,,,,2,,,,,,,,low,4,0,4,0,1,,,,,,,,,
296203,2022-10-07_14h05.01.862,vts_reward_expectancy,2022.2.4,Win32,60.12506013,Chrome,1536,864,,,,,10,963,,,,,,,,,,,,,,,,,W,167,circle,1,0,,,,,,,,,,,,,,,,switch,number,numSwt,k,0.5035,Lo,,,,,,2,,,,,,,,low,5,0,5,0,1,,,,,,,,,
296203,2022-10-07_14h05.01.862,vts_reward_expectancy,2022.2.4,Win32,60.12506013,Chrome,1536,864,,,,,1,964,,,,,,,,,,,,,,,,,B,132,circle,1,0,,,,,,,,,,,,,,,,repeat,number,numRpt,j,0.4661,Lo,,,,,,2,,,,,,,,low,6,0,6,0,1,,,,,,,,,
296203,2022-10-07_14h05.01.862,vts_reward_expectancy,2022.2.4,Win32,60.12506013,Chrome,1536,864,,,,,0,964,,,,,,,,,,,,,,,,,S,160,hexagon,1,0,,,,,,,,,,,,,,,,switch,letter,lettSwt,f,0.6186,Hi,,,,,,2,,,,,,,,low,7,0,7,0,1,,,,,,,,,
296203,2022-10-07_14h05.01.862,vts_reward_expectancy,2022.2.4,Win32,60.12506013,Chrome,1536,864,,,,,1,965,,,,,,,,,,,,,,,,,Y,125,circle,1,0,,,,,,,,,,,,,,,,switch,number,numSwt,j,0.4664,Lo,,,,,,2,,,,,,,,low,8,0,8,0,1,,,,,,,,,
296203,2022-10-07_14h05.01.862,vts_reward_expectancy,2022.2.4,Win32,60.12506013,Chrome,1536,864,,,,,0,965,,,,,,,,,,,,,,,,,D,139,hexagon,1,0,,,,,,,,,,,,,,,,repeat,number,numRpt,j,0.4875,Hi,,,,,,2,,,,,,,,low,9,0,9,0,1,,,,,,,,,
296203,2022-10-07_14h05.01.862,vts_reward_expectancy,2022.2.4,Win32,60.12506013,Chrome,1536,864,,,,,1,966,,,,,,,,,,,,,,,,,U,181,circle,1,0,,,,,,,,,,,,,,,,switch,letter,lettSwt,f,0.5406,Lo,,,,,,2,,,,,,,,low,10,0,10,0,1,,,,,,,,,
296203,2022-10-07_14h05.01.862,vts_reward_expectancy,2022.2.4,Win32,60.12506013,Chrome,1536,864,,,,,1,967,,,,,,,,,,,,,,,,,F,174,hexagon,1,0,,,,,,,,,,,,,,,,repeat,letter,lettRpt,d,0.3611,Hi,,,,,,2,,,,,,,,low,11,0,11,0,1,,,,,,,,,
296203,2022-10-07_14h05.01.862,vts_reward_expectancy,2022.2.4,Win32,60.12506013,Chrome,1536,864,,,,,10,977,,,,,,,,,,,,,,,,,H,146,circle,1,0,,,,,,,,,,,,,,,,switch,number,numSwt,j,0.4989,Lo,,,,,,2,,,,,,,,low,12,0,12,0,1,,,,,,,,,
296203,2022-10-07_14h05.01.862,vts_reward_expectancy,2022.2.4,Win32,60.12506013,Chrome,1536,864,,,,,10,987,,,,,,,,,,,,,,,,,W,167,hexagon,1,0,,,,,,,,,,,,,,,,switch,letter,lettSwt,f,0.4092,Hi,,,,,,2,,,,,,,,low,13,0,13,0,1,,,,,,,,,
296203,2022-10-07_14h05.01.862,vts_reward_expectancy,2022.2.4,Win32,60.12506013,Chrome,1536,864,,,,,1,988,,,,,,,,,,,,,,,,,B,132,circle,1,0,,,,,,,,,,,,,,,,switch,number,numSwt,j,0.3734,Lo,,,,,,2,,,,,,,,low,14,0,14,0,1,,,,,,,,,
296203,2022-10-07_14h05.01.862,vts_reward_expectancy,2022.2.4,Win32,60.12506013,Chrome,1536,864,,,,,10,998,,,,,,,,,,,,,,,,,S,160,hexagon,1,0,,,,,,,,,,,,,,,,switch,letter,lettSwt,f,0.4483,Hi,,,,,,2,,,,,,,,low,15,0,15,0,1,,,,,,,,,
296203,2022-10-07_14h05.01.862,vts_reward_expectancy,2022.2.4,Win32,60.12506013,Chrome,1536,864,,,,,10,1008,,,,,,,,,,,,,,,,,D,139,hexagon,1,0,,,,,,,,,,,,,,,,repeat,letter,lettRpt,d,0.4357,Hi,,,,,,2,,,,,,,,low,16,0,16,0,1,,,,,,,,,
296203,2022-10-07_14h05.01.862,vts_reward_expectancy,2022.2.4,Win32,60.12506013,Chrome,1536,864,,,,,1,1009,,,,,,,,,,,,,,,,,W,146,circle,1,0,,,,,,,,,,,,,,,,switch,number,numSwt,j,0.4407,Lo,,,,,,2,,,,,,,,low,17,0,17,0,1,,,,,,,,,
296203,2022-10-07_14h05.01.862,vts_reward_expectancy,2022.2.4,Win32,60.12506013,Chrome,1536,864,,,,,10,1019,,,,,,,,,,,,,,,,,U,125,hexagon,1,0,,,,,,,,,,,,,,,,switch,letter,lettSwt,f,0.4581,Hi,,,,,,2,,,,,,,,low,18,0,18,0,1,,,,,,,,,
296203,2022-10-07_14h05.01.862,vts_reward_expectancy,2022.2.4,Win32,60.12506013,Chrome,1536,864,,,,,0,1019,,,,,,,,,,,,,,,,,H,174,circle,0,0,,,,,,,,,,,,,,,,switch,number,NA,j,0.3448,Hi,,,,,,2,,,,,,,,low,19,0,19,0,1,,,,,,,,,
296203,2022-10-07_14h05.01.862,vts_reward_expectancy,2022.2.4,Win32,60.12506013,Chrome,1536,864,,,,,1,1020,,,,,,,,,,,,,,,,,F,167,hexagon,1,1,,,,,,,,,,,,,,,,switch,letter,lettSwt,d,0.4544,Hi,,,,,,2,,,,,,,,low,20,0,20,0,1,,,,,,,,,
296203,2022-10-07_14h05.01.862,vts_reward_expectancy,2022.2.4,Win32,60.12506013,Chrome,1536,864,,,,,0,1020,,,,,,,,,,,,,,,,,S,160,circle,0,0,,,,,,,,,,,,,,,,switch,number,NA,j,0.5666,Hi,,,,,,2,,,,,,,,low,21,0,21,0,1,,,,,,,,,
296203,2022-10-07_14h05.01.862,vts_reward_expectancy,2022.2.4,Win32,60.12506013,Chrome,1536,864,,,,,1,1021,,,,,,,,,,,,,,,,,Y,181,circle,1,1,,,,,,,,,,,,,,,,repeat,number,numRpt,k,0.4739,Lo,,,,,,2,,,,,,,,low,22,0,22,0,1,,,,,,,,,
296203,2022-10-07_14h05.01.862,vts_reward_expectancy,2022.2.4,Win32,60.12506013,Chrome,1536,864,,,,,10,1031,,,,,,,,,,,,,,,,,B,132,hexagon,1,0,,,,,,,,,,,,,,,,switch,letter,lettSwt,d,0.4838,Hi,,,,,,2,,,,,,,,low,23,0,23,0,1,,,,,,,,,
296203,2022-10-07_14h05.01.862,vts_reward_expectancy,2022.2.4,Win32,60.12506013,Chrome,1536,864,,,,,0,1031,,,,,,,,,,,,,,,,,H,139,circle,0,0,,,,,,,,,,,,,,,,switch,number,NA,k,0.4121,Hi,,,,,,2,,,,,,,,low,24,0,24,0,1,,,,,,,,,
296203,2022-10-07_14h05.01.862,vts_reward_expectancy,2022.2.4,Win32,60.12506013,Chrome,1536,864,,,,,10,1041,,,,,,,,,,,,,,,,,F,167,hexagon,1,1,,,,,,,,,,,,,,,,switch,letter,lettSwt,d,0.4357,Hi,,,,,,2,,,,,,,,low,25,0,25,0,1,,,,,,,,,
296203,2022-10-07_14h05.01.862,vts_reward_expectancy,2022.2.4,Win32,60.12506013,Chrome,1536,864,,,,,1,1042,,,,,,,,,,,,,,,,,U,174,circle,1,0,,,,,,,,,,,,,,,,switch,number,numSwt,k,0.4854,Lo,,,,,,2,,,,,,,,low,26,0,26,0,1,,,,,,,,,
296203,2022-10-07_14h05.01.862,vts_reward_expectancy,2022.2.4,Win32,60.12506013,Chrome,1536,864,,,,,0,1042,,,,,,,,,,,,,,,,,Y,146,hexagon,1,0,,,,,,,,,,,,,,,,switch,letter,lettSwt,f,0.5194,Hi,,,,,,2,,,,,,,,low,27,0,27,0,1,,,,,,,,,
296203,2022-10-07_14h05.01.862,vts_reward_expectancy,2022.2.4,Win32,60.12506013,Chrome,1536,864,,,,,10,1052,,,,,,,,,,,,,,,,,D,132,hexagon,1,0,,,,,,,,,,,,,,,,repeat,letter,lettRpt,d,0.3176,Hi,,,,,,2,,,,,,,,low,28,0,28,0,1,,,,,,,,,
296203,2022-10-07_14h05.01.862,vts_reward_expectancy,2022.2.4,Win32,60.12506013,Chrome,1536,864,,,,,0,1052,,,,,,,,,,,,,,,,,S,125,circle,0,0,,,,,,,,,,,,,,,,switch,number,NA,k,0.2493,Hi,,,,,,2,,,,,,,,low,29,0,29,0,1,,,,,,,,,
296203,2022-10-07_14h05.01.862,vts_reward_expectancy,2022.2.4,Win32,60.12506013,Chrome,1536,864,,,,,10,1062,,,,,,,,,,,,,,,,,W,160,hexagon,1,1,,,,,,,,,,,,,,,,switch,letter,lettSwt,f,0.2835,Hi,,,,,,2,,,,,,,,low,30,0,30,0,1,,,,,,,,,
296203,2022-10-07_14h05.01.862,vts_reward_expectancy,2022.2.4,Win32,60.12506013,Chrome,1536,864,,,,,10,1072,,,,,,,,,,,,,,,,,B,181,circle,1,0,,,,,,,,,,,,,,,,switch,number,numSwt,k,0.3497,Lo,,,,,,2,,,,,,,,low,31,0,31,0,1,,,,,,,,,
296203,2022-10-07_14h05.01.862,vts_reward_expectancy,2022.2.4,Win32,60.12506013,Chrome,1536,864,,,,,0,1072,,,,,,,,,,,,,,,,,F,167,hexagon,0,0,,,,,,,,,,,,,,,,switch,letter,NA,f,0.3843,Lo,,,,,,3,,,,,,space,9.0173,low,0,0,0,0,1,,,,,,,,,
296203,2022-10-07_14h05.01.862,vts_reward_expectancy,2022.2.4,Win32,60.12506013,Chrome,1536,864,,,,,0,1072,,,,,,,,,,,,,,,,,Y,146,circle,0,1,,,,,,,,,,,,,,,,switch,number,NA,k,0.4428,Lo,,,,,,3,,,,,,,,low,1,0,1,0,1,,,,,,,,,
296203,2022-10-07_14h05.01.862,vts_reward_expectancy,2022.2.4,Win32,60.12506013,Chrome,1536,864,,,,,0,1072,,,,,,,,,,,,,,,,,H,174,hexagon,0,1,,,,,,,,,,,,,,,,switch,letter,NA,f,0.3581,Lo,,,,,,3,,,,,,,,low,2,0,2,0,1,,,,,,,,,
296203,2022-10-07_14h05.01.862,vts_reward_expectancy,2022.2.4,Win32,60.12506013,Chrome,1536,864,,,,,1,1073,,,,,,,,,,,,,,,,,S,139,circle,1,1,,,,,,,,,,,,,,,,switch,number,numSwt,j,0.3917,Lo,,,,,,3,,,,,,,,low,3,0,3,0,1,,,,,,,,,
296203,2022-10-07_14h05.01.862,vts_reward_expectancy,2022.2.4,Win32,60.12506013,Chrome,1536,864,,,,,1,1074,,,,,,,,,,,,,,,,,D,160,circle,1,0,,,,,,,,,,,,,,,,repeat,number,numRpt,k,0.4119,Lo,,,,,,3,,,,,,,,low,4,0,4,0,1,,,,,,,,,
296203,2022-10-07_14h05.01.862,vts_reward_expectancy,2022.2.4,Win32,60.12506013,Chrome,1536,864,,,,,0,1074,,,,,,,,,,,,,,,,,U,125,hexagon,1,0,,,,,,,,,,,,,,,,switch,letter,lettSwt,f,0.5836,Hi,,,,,,3,,,,,,,,low,5,0,5,0,1,,,,,,,,,
296203,2022-10-07_14h05.01.862,vts_reward_expectancy,2022.2.4,Win32,60.12506013,Chrome,1536,864,,,,,1,1075,,,,,,,,,,,,,,,,,W,132,circle,1,0,,,,,,,,,,,,,,,,switch,number,numSwt,j,0.4012,Lo,,,,,,3,,,,,,,,low,6,0,6,0,1,,,,,,,,,
296203,2022-10-07_14h05.01.862,vts_reward_expectancy,2022.2.4,Win32,60.12506013,Chrome,1536,864,,,,,10,1085,,,,,,,,,,,,,,,,,B,181,hexagon,1,0,,,,,,,,,,,,,,,,switch,letter,lettSwt,d,0.3164,Hi,,,,,,3,,,,,,,,low,7,0,7,0,1,,,,,,,,,
296203,2022-10-07_14h05.01.862,vts_reward_expectancy,2022.2.4,Win32,60.12506013,Chrome,1536,864,,,,,0,1085,,,,,,,,,,,,,,,,,F,167,hexagon,1,0,,,,,,,,,,,,,,,,repeat,letter,lettRpt,d,0.4775,Hi,,,,,,3,,,,,,,,low,8,0,8,0,1,,,,,,,,,
296203,2022-10-07_14h05.01.862,vts_reward_expectancy,2022.2.4,Win32,60.12506013,Chrome,1536,864,,,,,0,1085,,,,,,,,,,,,,,,,,Y,146,circle,0,0,,,,,,,,,,,,,,,,switch,number,NA,k,0.4003,Hi,,,,,,3,,,,,,,,low,9,0,9,0,1,,,,,,,,,
296203,2022-10-07_14h05.01.862,vts_reward_expectancy,2022.2.4,Win32,60.12506013,Chrome,1536,864,,,,,10,1095,,,,,,,,,,,,,,,,,H,174,circle,1,1,,,,,,,,,,,,,,,,repeat,number,numRpt,k,0.4254,Lo,,,,,,3,,,,,,,,low,10,0,10,0,1,,,,,,,,,
296203,2022-10-07_14h05.01.862,vts_reward_expectancy,2022.2.4,Win32,60.12506013,Chrome,1536,864,,,,,0,1095,,,,,,,,,,,,,,,,,S,139,hexagon,0,0,,,,,,,,,,,,,,,,switch,letter,NA,d,0.3614,Lo,,,,,,3,,,,,,,,low,11,0,11,0,1,,,,,,,,,
296203,2022-10-07_14h05.01.862,vts_reward_expectancy,2022.2.4,Win32,60.12506013,Chrome,1536,864,,,,,0,1095,,,,,,,,,,,,,,,,,D,160,hexagon,1,1,,,,,,,,,,,,,,,,repeat,letter,lettRpt,d,0.3501,Hi,,,,,,3,,,,,,,,low,12,0,12,0,1,,,,,,,,,
296203,2022-10-07_14h05.01.862,vts_reward_expectancy,2022.2.4,Win32,60.12506013,Chrome,1536,864,,,,,1,1096,,,,,,,,,,,,,,,,,U,125,circle,1,0,,,,,,,,,,,,,,,,switch,number,numSwt,j,0.3903,Lo,,,,,,3,,,,,,,,low,13,0,13,0,1,,,,,,,,,
296203,2022-10-07_14h05.01.862,vts_reward_expectancy,2022.2.4,Win32,60.12506013,Chrome,1536,864,,,,,10,1106,,,,,,,,,,,,,,,,,W,132,circle,1,0,,,,,,,,,,,,,,,,repeat,number,numRpt,j,0.52,Lo,,,,,,3,,,,,,,,low,14,0,14,0,1,,,,,,,,,
296203,2022-10-07_14h05.01.862,vts_reward_expectancy,2022.2.4,Win32,60.12506013,Chrome,1536,864,,,,,0,1106,,,,,,,,,,,,,,,,,B,181,hexagon,0,0,,,,,,,,,,,,,,,,switch,letter,NA,f,0.3824,Lo,,,,,,3,,,,,,,,low,15,0,15,0,1,,,,,,,,,
296203,2022-10-07_14h05.01.862,vts_reward_expectancy,2022.2.4,Win32,60.12506013,Chrome,1536,864,,,,,1,1107,,,,,,,,,,,,,,,,,Y,160,circle,1,1,,,,,,,,,,,,,,,,switch,number,numSwt,k,0.3924,Lo,,,,,,3,,,,,,,,low,16,0,16,0,1,,,,,,,,,
296203,2022-10-07_14h05.01.862,vts_reward_expectancy,2022.2.4,Win32,60.12506013,Chrome,1536,864,,,,,1,1108,,,,,,,,,,,,,,,,,D,181,hexagon,1,0,,,,,,,,,,,,,,,,switch,letter,lettSwt,d,0.3497,Hi,,,,,,3,,,,,,,,low,17,0,17,0,1,,,,,,,,,
296203,2022-10-07_14h05.01.862,vts_reward_expectancy,2022.2.4,Win32,60.12506013,Chrome,1536,864,,,,,0,1108,,,,,,,,,,,,,,,,,U,167,hexagon,1,0,,,,,,,,,,,,,,,,repeat,letter,lettRpt,f,0.5861,Hi,,,,,,3,,,,,,,,low,18,0,18,0,1,,,,,,,,,
296203,2022-10-07_14h05.01.862,vts_reward_expectancy,2022.2.4,Win32,60.12506013,Chrome,1536,864,,,,,10,1118,,,,,,,,,,,,,,,,,B,132,circle,1,0,,,,,,,,,,,,,,,,switch,number,numSwt,j,0.5495,Lo,,,,,,3,,,,,,,,low,19,0,19,0,1,,,,,,,,,
296203,2022-10-07_14h05.01.862,vts_reward_expectancy,2022.2.4,Win32,60.12506013,Chrome,1536,864,,,,,0,1118,,,,,,,,,,,,,,,,,H,146,circle,0,0,,,,,,,,,,,,,,,,repeat,number,NA,k,0.3667,Lo,,,,,,3,,,,,,,,low,20,0,20,0,1,,,,,,,,,
296203,2022-10-07_14h05.01.862,vts_reward_expectancy,2022.2.4,Win32,60.12506013,Chrome,1536,864,,,,,1,1119,,,,,,,,,,,,,,,,,W,174,hexagon,1,1,,,,,,,,,,,,,,,,switch,letter,lettSwt,f,0.434,Hi,,,,,,3,,,,,,,,low,21,0,21,0,1,,,,,,,,,
296203,2022-10-07_14h05.01.862,vts_reward_expectancy,2022.2.4,Win32,60.12506013,Chrome,1536,864,,,,,1,1120,,,,,,,,,,,,,,,,,F,125,circle,1,0,,,,,,,,,,,,,,,,switch,number,numSwt,j,0.4166,Lo,,,,,,3,,,,,,,,low,22,0,22,0,1,,,,,,,,,
296203,2022-10-07_14h05.01.862,vts_reward_expectancy,2022.2.4,Win32,60.12506013,Chrome,1536,864,,,,,0,1120,,,,,,,,,,,,,,,,,S,139,hexagon,0,0,,,,,,,,,,,,,,,,switch,letter,NA,d,0.4785,Lo,,,,,,3,,,,,,,,low,23,0,23,0,1,,,,,,,,,
296203,2022-10-07_14h05.01.862,vts_reward_expectancy,2022.2.4,Win32,60.12506013,Chrome,1536,864,,,,,10,1130,,,,,,,,,,,,,,,,,U,174,circle,1,1,,,,,,,,,,,,,,,,switch,number,numSwt,k,0.5013,Lo,,,,,,3,,,,,,,,low,24,0,24,0,1,,,,,,,,,
296203,2022-10-07_14h05.01.862,vts_reward_expectancy,2022.2.4,Win32,60.12506013,Chrome,1536,864,,,,,0,1130,,,,,,,,,,,,,,,,,W,139,hexagon,1,0,,,,,,,,,,,,,,,,switch,letter,lettSwt,f,0.4836,Hi,,,,,,3,,,,,,,,low,25,0,25,0,1,,,,,,,,,
296203,2022-10-07_14h05.01.862,vts_reward_expectancy,2022.2.4,Win32,60.12506013,Chrome,1536,864,,,,,0,1130,,,,,,,,,,,,,,,,,Y,160,hexagon,1,0,,,,,,,,,,,,,,,,repeat,letter,lettRpt,f,0.5114,Hi,,,,,,3,,,,,,,,low,26,0,26,0,1,,,,,,,,,
296203,2022-10-07_14h05.01.862,vts_reward_expectancy,2022.2.4,Win32,60.12506013,Chrome,1536,864,,,,,1,1131,,,,,,,,,,,,,,,,,F,132,circle,1,0,,,,,,,,,,,,,,,,switch,number,numSwt,j,0.386,Lo,,,,,,3,,,,,,,,low,27,0,27,0,1,,,,,,,,,
296203,2022-10-07_14h05.01.862,vts_reward_expectancy,2022.2.4,Win32,60.12506013,Chrome,1536,864,,,,,10,1141,,,,,,,,,,,,,,,,,H,167,circle,1,0,,,,,,,,,,,,,,,,repeat,number,numRpt,k,0.5039,Lo,,,,,,3,,,,,,,,low,28,0,28,0,1,,,,,,,,,
296203,2022-10-07_14h05.01.862,vts_reward_expectancy,2022.2.4,Win32,60.12506013,Chrome,1536,864,,,,,10,1151,,,,,,,,,,,,,,,,,B,181,hexagon,1,0,,,,,,,,,,,,,,,,switch,letter,lettSwt,d,0.4338,Hi,,,,,,3,,,,,,,,low,29,0,29,0,1,,,,,,,,,
296203,2022-10-07_14h05.01.862,vts_reward_expectancy,2022.2.4,Win32,60.12506013,Chrome,1536,864,,,,,10,1161,,,,,,,,,,,,,,,,,D,125,circle,1,0,,,,,,,,,,,,,,,,switch,number,numSwt,j,0.4397,Lo,,,,,,3,,,,,,,,low,30,0,30,0,1,,,,,,,,,
296203,2022-10-07_14h05.01.862,vts_reward_expectancy,2022.2.4,Win32,60.12506013,Chrome,1536,864,,,,,1,1162,,,,,,,,,,,,,,,,,S,146,hexagon,1,0,,,,,,,,,,,,,,,,switch,letter,lettSwt,f,0.3836,Hi,,,,,,3,,,,,,,,low,31,0,31,0,1,,,,,,,,,
296203,2022-10-07_14h05.01.862,vts_reward_expectancy,2022.2.4,Win32,60.12506013,Chrome,1536,864,,,,,10,1172,,,,,,,,,,,,,,,,,W,132,triangle,1,0,,,,,,,,,,,,,,,,repeat,letter,lettRpt,f,0.4348,Hi,,,,,,4,,,,,,space,3.2153,high,0,0,0,0,1,,,,,,,,,
296203,2022-10-07_14h05.01.862,vts_reward_expectancy,2022.2.4,Win32,60.12506013,Chrome,1536,864,,,,,1,1173,,,,,,,,,,,,,,,,,F,160,star,1,0,,,,,,,,,,,,,,,,switch,number,numSwt,k,0.403,Lo,,,,,,4,,,,,,,,high,1,0,1,0,1,,,,,,,,,
296203,2022-10-07_14h05.01.862,vts_reward_expectancy,2022.2.4,Win32,60.12506013,Chrome,1536,864,,,,,0,1173,,,,,,,,,,,,,,,,,D,125,triangle,0,0,,,,,,,,,,,,,,,,switch,letter,NA,f,0.4342,Lo,,,,,,4,,,,,,,,high,2,0,2,0,1,,,,,,,,,
296203,2022-10-07_14h05.01.862,vts_reward_expectancy,2022.2.4,Win32,60.12506013,Chrome,1536,864,,,,,1,1174,,,,,,,,,,,,,,,,,S,181,star,1,1,,,,,,,,,,,,,,,,switch,number,numSwt,k,0.435,Lo,,,,,,4,,,,,,,,high,3,0,3,0,1,,,,,,,,,
296203,2022-10-07_14h05.01.862,vts_reward_expectancy,2022.2.4,Win32,60.12506013,Chrome,1536,864,,,,,0,1174,,,,,,,,,,,,,,,,,U,174,star,0,0,,,,,,,,,,,,,,,,repeat,number,NA,j,0.3187,Lo,,,,,,4,,,,,,,,high,4,0,4,0,1,,,,,,,,,
296203,2022-10-07_14h05.01.862,vts_reward_expectancy,2022.2.4,Win32,60.12506013,Chrome,1536,864,,,,,0,1174,,,,,,,,,,,,,,,,,H,167,triangle,1,1,,,,,,,,,,,,,,,,switch,letter,lettSwt,d,0.5026,Hi,,,,,,4,,,,,,,,high,5,0,5,0,1,,,,,,,,,
296203,2022-10-07_14h05.01.862,vts_reward_expectancy,2022.2.4,Win32,60.12506013,Chrome,1536,864,,,,,1,1175,,,,,,,,,,,,,,,,,Y,139,triangle,1,0,,,,,,,,,,,,,,,,repeat,letter,lettRpt,f,0.4007,Hi,,,,,,4,,,,,,,,high,6,0,6,0,1,,,,,,,,,
296203,2022-10-07_14h05.01.862,vts_reward_expectancy,2022.2.4,Win32,60.12506013,Chrome,1536,864,,,,,1,1176,,,,,,,,,,,,,,,,,B,146,star,1,0,,,,,,,,,,,,,,,,switch,number,numSwt,j,0.4661,Lo,,,,,,4,,,,,,,,high,7,0,7,0,1,,,,,,,,,
296203,2022-10-07_14h05.01.862,vts_reward_expectancy,2022.2.4,Win32,60.12506013,Chrome,1536,864,,,,,1,1177,,,,,,,,,,,,,,,,,W,132,star,1,0,,,,,,,,,,,,,,,,repeat,number,numRpt,j,0.4351,Lo,,,,,,4,,,,,,,,high,8,0,8,0,1,,,,,,,,,
296203,2022-10-07_14h05.01.862,vts_reward_expectancy,2022.2.4,Win32,60.12506013,Chrome,1536,864,,,,,0,1177,,,,,,,,,,,,,,,,,F,160,triangle,1,0,,,,,,,,,,,,,,,,switch,letter,lettSwt,d,0.5036,Hi,,,,,,4,,,,,,,,high,9,0,9,0,1,,,,,,,,,
296203,2022-10-07_14h05.01.862,vts_reward_expectancy,2022.2.4,Win32,60.12506013,Chrome,1536,864,,,,,0,1177,,,,,,,,,,,,,,,,,D,125,triangle,1,0,,,,,,,,,,,,,,,,switch,number,numSwt,j,0.587,Hi,,,,,,4,,,,,,,,high,10,0,10,0,1,,,,,,,,,
296203,2022-10-07_14h05.01.862,vts_reward_expectancy,2022.2.4,Win32,60.12506013,Chrome,1536,864,,,,,1,1178,,,,,,,,,,,,,,,,,S,181,star,1,0,,,,,,,,,,,,,,,,switch,letter,lettSwt,f,0.6,Lo,,,,,,4,,,,,,,,high,11,0,11,0,1,,,,,,,,,
296203,2022-10-07_14h05.01.862,vts_reward_expectancy,2022.2.4,Win32,60.12506013,Chrome,1536,864,,,,,0,1178,,,,,,,,,,,,,,,,,U,174,star,0,0,,,,,,,,,,,,,,,,repeat,letter,NA,d,0.5798,Lo,,,,,,4,,,,,,,,high,12,0,12,0,1,,,,,,,,,
296203,2022-10-07_14h05.01.862,vts_reward_expectancy,2022.2.4,Win32,60.12506013,Chrome,1536,864,,,,,0,1178,,,,,,,,,,,,,,,,,H,167,triangle,1,1,,,,,,,,,,,,,,,,switch,number,numSwt,k,0.4905,Hi,,,,,,4,,,,,,,,high,13,0,13,0,1,,,,,,,,,
296203,2022-10-07_14h05.01.862,vts_reward_expectancy,2022.2.4,Win32,60.12506013,Chrome,1536,864,,,,,1,1179,,,,,,,,,,,,,,,,,Y,139,star,1,0,,,,,,,,,,,,,,,,repeat,number,numRpt,j,0.653,Lo,,,,,,4,,,,,,,,high,14,0,14,0,1,,,,,,,,,
296203,2022-10-07_14h05.01.862,vts_reward_expectancy,2022.2.4,Win32,60.12506013,Chrome,1536,864,,,,,0,1179,,,,,,,,,,,,,,,,,B,146,triangle,1,0,,,,,,,,,,,,,,,,switch,letter,lettSwt,d,0.4504,Hi,,,,,,4,,,,,,,,high,15,0,15,0,1,,,,,,,,,
296203,2022-10-07_14h05.01.862,vts_reward_expectancy,2022.2.4,Win32,60.12506013,Chrome,1536,864,,,,,10,1189,,,,,,,,,,,,,,,,,W,139,triangle,1,0,,,,,,,,,,,,,,,,repeat,letter,lettRpt,f,0.4018,Hi,,,,,,4,,,,,,,,high,16,0,16,0,1,,,,,,,,,
296203,2022-10-07_14h05.01.862,vts_reward_expectancy,2022.2.4,Win32,60.12506013,Chrome,1536,864,,,,,1,1190,,,,,,,,,,,,,,,,,B,125,star,1,0,,,,,,,,,,,,,,,,switch,number,numSwt,j,0.4177,Lo,,,,,,4,,,,,,,,high,17,0,17,0,1,,,,,,,,,
296203,2022-10-07_14h05.01.862,vts_reward_expectancy,2022.2.4,Win32,60.12506013,Chrome,1536,864,,,,,0,1190,,,,,,,,,,,,,,,,,U,160,triangle,1,0,,,,,,,,,,,,,,,,switch,letter,lettSwt,f,0.534,Hi,,,,,,4,,,,,,,,high,18,0,18,0,1,,,,,,,,,
296203,2022-10-07_14h05.01.862,vts_reward_expectancy,2022.2.4,Win32,60.12506013,Chrome,1536,864,,,,,1,1191,,,,,,,,,,,,,,,,,Y,181,star,1,0,,,,,,,,,,,,,,,,switch,number,numSwt,k,0.3679,Lo,,,,,,4,,,,,,,,high,19,0,19,0,1,,,,,,,,,
296203,2022-10-07_14h05.01.862,vts_reward_expectancy,2022.2.4,Win32,60.12506013,Chrome,1536,864,,,,,0,1191,,,,,,,,,,,,,,,,,D,132,triangle,1,0,,,,,,,,,,,,,,,,switch,letter,lettSwt,d,0.3994,Hi,,,,,,4,,,,,,,,high,20,0,20,0,1,,,,,,,,,
296203,2022-10-07_14h05.01.862,vts_reward_expectancy,2022.2.4,Win32,60.12506013,Chrome,1536,864,,,,,0,1191,,,,,,,,,,,,,,,,,F,167,star,0,0,,,,,,,,,,,,,,,,switch,number,NA,j,0.3177,Hi,,,,,,4,,,,,,,,high,21,0,21,0,1,,,,,,,,,
296203,2022-10-07_14h05.01.862,vts_reward_expectancy,2022.2.4,Win32,60.12506013,Chrome,1536,864,,,,,0,1191,,,,,,,,,,,,,,,,,H,146,triangle,1,1,,,,,,,,,,,,,,,,switch,letter,lettSwt,d,0.384,Hi,,,,,,4,,,,,,,,high,22,0,22,0,1,,,,,,,,,
296203,2022-10-07_14h05.01.862,vts_reward_expectancy,2022.2.4,Win32,60.12506013,Chrome,1536,864,,,,,1,1192,,,,,,,,,,,,,,,,,S,174,star,1,0,,,,,,,,,,,,,,,,switch,number,numSwt,k,0.4178,Lo,,,,,,4,,,,,,,,high,23,0,23,0,1,,,,,,,,,
296203,2022-10-07_14h05.01.862,vts_reward_expectancy,2022.2.4,Win32,60.12506013,Chrome,1536,864,,,,,1,1193,,,,,,,,,,,,,,,,,U,125,star,1,0,,,,,,,,,,,,,,,,repeat,number,numRpt,j,0.3135,Lo,,,,,,4,,,,,,,,high,24,0,24,0,1,,,,,,,,,
296203,2022-10-07_14h05.01.862,vts_reward_expectancy,2022.2.4,Win32,60.12506013,Chrome,1536,864,,,,,0,1193,,,,,,,,,,,,,,,,,W,139,triangle,0,0,,,,,,,,,,,,,,,,switch,letter,NA,d,0.3575,Lo,,,,,,4,,,,,,,,high,25,0,25,0,1,,,,,,,,,
296203,2022-10-07_14h05.01.862,vts_reward_expectancy,2022.2.4,Win32,60.12506013,Chrome,1536,864,,,,,1,1194,,,,,,,,,,,,,,,,,F,132,star,1,1,,,,,,,,,,,,,,,,switch,number,numSwt,j,0.3839,Lo,,,,,,4,,,,,,,,high,26,0,26,0,1,,,,,,,,,
296203,2022-10-07_14h05.01.862,vts_reward_expectancy,2022.2.4,Win32,60.12506013,Chrome,1536,864,,,,,0,1194,,,,,,,,,,,,,,,,,Y,146,triangle,1,0,,,,,,,,,,,,,,,,switch,letter,lettSwt,f,0.4836,Hi,,,,,,4,,,,,,,,high,27,0,27,0,1,,,,,,,,,
296203,2022-10-07_14h05.01.862,vts_reward_expectancy,2022.2.4,Win32,60.12506013,Chrome,1536,864,,,,,1,1195,,,,,,,,,,,,,,,,,S,160,triangle,1,0,,,,,,,,,,,,,,,,repeat,letter,lettRpt,f,0.4287,Hi,,,,,,4,,,,,,,,high,28,0,28,0,1,,,,,,,,,
296203,2022-10-07_14h05.01.862,vts_reward_expectancy,2022.2.4,Win32,60.12506013,Chrome,1536,864,,,,,1,1196,,,,,,,,,,,,,,,,,H,167,star,1,0,,,,,,,,,,,,,,,,switch,number,numSwt,k,0.4761,Lo,,,,,,4,,,,,,,,high,29,0,29,0,1,,,,,,,,,
296203,2022-10-07_14h05.01.862,vts_reward_expectancy,2022.2.4,Win32,60.12506013,Chrome,1536,864,,,,,10,1206,,,,,,,,,,,,,,,,,D,181,triangle,1,0,,,,,,,,,,,,,,,,switch,letter,lettSwt,d,0.3501,Hi,,,,,,4,,,,,,,,high,30,0,30,0,1,,,,,,,,,
296203,2022-10-07_14h05.01.862,vts_reward_expectancy,2022.2.4,Win32,60.12506013,Chrome,1536,864,,,,,1,1207,,,,,,,,,,,,,,,,,B,174,star,1,0,,,,,,,,,,,,,,,,switch,number,numSwt,k,0.5838,Lo,,,,,,4,,,,,,,,high,31,0,31,0,1,,,,,,,,,
296203,2022-10-07_14h05.01.862,vts_reward_expectancy,2022.2.4,Win32,60.12506013,Chrome,1536,864,,,,,0,1207,,,,,,,,,,,,,,,,,H,167,star,0,0,,,,,,,,,,,,,,,,repeat,number,NA,j,0.395,Lo,,,,,,5,,,,,,space,1.0315,high,0,0,0,0,1,,,,,,,,,
296203,2022-10-07_14h05.01.862,vts_reward_expectancy,2022.2.4,Win32,60.12506013,Chrome,1536,864,,,,,0,1207,,,,,,,,,,,,,,,,,W,139,triangle,1,1,,,,,,,,,,,,,,,,switch,letter,lettSwt,f,0.5918,Hi,,,,,,5,,,,,,,,high,1,0,1,0,1,,,,,,,,,
296203,2022-10-07_14h05.01.862,vts_reward_expectancy,2022.2.4,Win32,60.12506013,Chrome,1536,864,,,,,1,1208,,,,,,,,,,,,,,,,,F,181,star,1,0,,,,,,,,,,,,,,,,switch,number,numSwt,k,0.476,Lo,,,,,,5,,,,,,,,high,2,0,2,0,1,,,,,,,,,
296203,2022-10-07_14h05.01.862,vts_reward_expectancy,2022.2.4,Win32,60.12506013,Chrome,1536,864,,,,,0,1208,,,,,,,,,,,,,,,,,B,146,triangle,1,0,,,,,,,,,,,,,,,,repeat,number,numRpt,j,0.4871,Hi,,,,,,5,,,,,,,,high,3,0,3,0,1,,,,,,,,,
296203,2022-10-07_14h05.01.862,vts_reward_expectancy,2022.2.4,Win32,60.12506013,Chrome,1536,864,,,,,1,1209,,,,,,,,,,,,,,,,,D,174,star,1,0,,,,,,,,,,,,,,,,switch,letter,lettSwt,d,0.5078,Lo,,,,,,5,,,,,,,,high,4,0,4,0,1,,,,,,,,,
296203,2022-10-07_14h05.01.862,vts_reward_expectancy,2022.2.4,Win32,60.12506013,Chrome,1536,864,,,,,1,1210,,,,,,,,,,,,,,,,,U,160,triangle,1,0,,,,,,,,,,,,,,,,repeat,letter,lettRpt,f,0.389,Hi,,,,,,5,,,,,,,,high,5,0,5,0,1,,,,,,,,,
296203,2022-10-07_14h05.01.862,vts_reward_expectancy,2022.2.4,Win32,60.12506013,Chrome,1536,864,,,,,0,1210,,,,,,,,,,,,,,,,,Y,125,triangle,0,0,,,,,,,,,,,,,,,,repeat,letter,NA,d,0.3248,Hi,,,,,,5,,,,,,,,high,6,0,6,0,1,,,,,,,,,
296203,2022-10-07_14h05.01.862,vts_reward_expectancy,2022.2.4,Win32,60.12506013,Chrome,1536,864,,,,,1,1211,,,,,,,,,,,,,,,,,S,132,star,1,1,,,,,,,,,,,,,,,,switch,number,numSwt,j,0.4177,Lo,,,,,,5,,,,,,,,high,7,0,7,0,1,,,,,,,,,
296203,2022-10-07_14h05.01.862,vts_reward_expectancy,2022.2.4,Win32,60.12506013,Chrome,1536,864,,,,,10,1221,,,,,,,,,,,,,,,,,H,167,star,1,0,,,,,,,,,,,,,,,,repeat,number,numRpt,k,0.3688,Lo,,,,,,5,,,,,,,,high,8,0,8,0,1,,,,,,,,,
296203,2022-10-07_14h05.01.862,vts_reward_expectancy,2022.2.4,Win32,60.12506013,Chrome,1536,864,,,,,0,1221,,,,,,,,,,,,,,,,,W,139,triangle,0,0,,,,,,,,,,,,,,,,switch,letter,NA,d,0.4369,Lo,,,,,,5,,,,,,,,high,9,0,9,0,1,,,,,,,,,
296203,2022-10-07_14h05.01.862,vts_reward_expectancy,2022.2.4,Win32,60.12506013,Chrome,1536,864,,,,,0,1221,,,,,,,,,,,,,,,,,F,181,star,0,1,,,,,,,,,,,,,,,,switch,number,NA,j,0.2337,Lo,,,,,,5,,,,,,,,high,10,0,10,0,1,,,,,,,,,
296203,2022-10-07_14h05.01.862,vts_reward_expectancy,2022.2.4,Win32,60.12506013,Chrome,1536,864,,,,,10,1231,,,,,,,,,,,,,,,,,B,146,triangle,1,1,,,,,,,,,,,,,,,,switch,letter,lettSwt,d,0.251,Hi,,,,,,5,,,,,,,,high,11,0,11,0,1,,,,,,,,,
296203,2022-10-07_14h05.01.862,vts_reward_expectancy,2022.2.4,Win32,60.12506013,Chrome,1536,864,,,,,0,1231,,,,,,,,,,,,,,,,,D,174,triangle,0,0,,,,,,,,,,,,,,,,repeat,letter,NA,f,0.3838,Hi,,,,,,5,,,,,,,,high,12,0,12,0,1,,,,,,,,,
296203,2022-10-07_14h05.01.862,vts_reward_expectancy,2022.2.4,Win32,60.12506013,Chrome,1536,864,,,,,1,1232,,,,,,,,,,,,,,,,,U,160,star,1,1,,,,,,,,,,,,,,,,switch,number,numSwt,k,0.3684,Lo,,,,,,5,,,,,,,,high,13,0,13,0,1,,,,,,,,,
296203,2022-10-07_14h05.01.862,vts_reward_expectancy,2022.2.4,Win32,60.12506013,Chrome,1536,864,,,,,0,1232,,,,,,,,,,,,,,,,,Y,125,star,0,0,,,,,,,,,,,,,,,,repeat,number,NA,k,0.1074,Lo,,,,,,5,,,,,,,,high,14,0,14,0,1,,,,,,,,,
296203,2022-10-07_14h05.01.862,vts_reward_expectancy,2022.2.4,Win32,60.12506013,Chrome,1536,864,,,,,10,1242,,,,,,,,,,,,,,,,,S,132,triangle,1,1,,,,,,,,,,,,,,,,switch,letter,lettSwt,f,0.2514,Hi,,,,,,5,,,,,,,,high,15,0,15,0,1,,,,,,,,,
296203,2022-10-07_14h05.01.862,vts_reward_expectancy,2022.2.4,Win32,60.12506013,Chrome,1536,864,,,,,0,1242,,,,,,,,,,,,,,,,,D,132,triangle,0,0,,,,,,,,,,,,,,,,repeat,letter,NA,f,0.2431,Hi,,,,,,5,,,,,,,,high,16,0,16,0,1,,,,,,,,,
296203,2022-10-07_14h05.01.862,vts_reward_expectancy,2022.2.4,Win32,60.12506013,Chrome,1536,864,,,,,1,1243,,,,,,,,,,,,,,,,,H,181,star,1,1,,,,,,,,,,,,,,,,switch,number,numSwt,k,0.3897,Lo,,,,,,5,,,,,,,,high,17,0,17,0,1,,,,,,,,,
296203,2022-10-07_14h05.01.862,vts_reward_expectancy,2022.2.4,Win32,60.12506013,Chrome,1536,864,,,,,0,1243,,,,,,,,,,,,,,,,,B,174,star,0,0,,,,,,,,,,,,,,,,repeat,number,NA,j,0.3675,Lo,,,,,,5,,,,,,,,high,18,0,18,0,1,,,,,,,,,
296203,2022-10-07_14h05.01.862,vts_reward_expectancy,2022.2.4,Win32,60.12506013,Chrome,1536,864,,,,,10,1253,,,,,,,,,,,,,,,,,S,160,triangle,1,1,,,,,,,,,,,,,,,,switch,letter,lettSwt,f,0.4292,Hi,,,,,,5,,,,,,,,high,19,0,19,0,1,,,,,,,,,
296203,2022-10-07_14h05.01.862,vts_reward_expectancy,2022.2.4,Win32,60.12506013,Chrome,1536,864,,,,,1,1254,,,,,,,,,,,,,,,,,W,146,star,1,0,,,,,,,,,,,,,,,,switch,number,numSwt,j,0.4675,Lo,,,,,,5,,,,,,,,high,20,0,20,0,1,,,,,,,,,
296203,2022-10-07_14h05.01.862,vts_reward_expectancy,2022.2.4,Win32,60.12506013,Chrome,1536,864,,,,,0,1254,,,,,,,,,,,,,,,,,F,139,triangle,0,0,,,,,,,,,,,,,,,,switch,letter,NA,f,0.361,Lo,,,,,,5,,,,,,,,high,21,0,21,0,1,,,,,,,,,
296203,2022-10-07_14h05.01.862,vts_reward_expectancy,2022.2.4,Win32,60.12506013,Chrome,1536,864,,,,,1,1255,,,,,,,,,,,,,,,,,Y,125,star,1,1,,,,,,,,,,,,,,,,switch,number,numSwt,j,0.2728,Lo,,,,,,5,,,,,,,,high,22,0,22,0,1,,,,,,,,,
296203,2022-10-07_14h05.01.862,vts_reward_expectancy,2022.2.4,Win32,60.12506013,Chrome,1536,864,,,,,10,1265,,,,,,,,,,,,,,,,,U,167,triangle,1,0,,,,,,,,,,,,,,,,switch,letter,lettSwt,f,0.2283,Hi,,,,,,5,,,,,,,,high,23,0,23,0,1,,,,,,,,,
296203,2022-10-07_14h05.01.862,vts_reward_expectancy,2022.2.4,Win32,60.12506013,Chrome,1536,864,,,,,0,1265,,,,,,,,,,,,,,,,,W,146,star,0,0,,,,,,,,,,,,,,,,switch,number,NA,k,0.2742,Hi,,,,,,5,,,,,,,,high,24,0,24,0,1,,,,,,,,,
296203,2022-10-07_14h05.01.862,vts_reward_expectancy,2022.2.4,Win32,60.12506013,Chrome,1536,864,,,,,0,1265,,,,,,,,,,,,,,,,,B,167,triangle,1,1,,,,,,,,,,,,,,,,switch,letter,lettSwt,d,0.5,Hi,,,,,,5,,,,,,,,high,25,0,25,0,1,,,,,,,,,
296203,2022-10-07_14h05.01.862,vts_reward_expectancy,2022.2.4,Win32,60.12506013,Chrome,1536,864,,,,,0,1265,,,,,,,,,,,,,,,,,S,174,triangle,0,0,,,,,,,,,,,,,,,,repeat,letter,NA,d,0.183,Hi,,,,,,5,,,,,,,,high,26,0,26,0,1,,,,,,,,,
296203,2022-10-07_14h05.01.862,vts_reward_expectancy,2022.2.4,Win32,60.12506013,Chrome,1536,864,,,,,0,1265,,,,,,,,,,,,,,,,,D,132,star,0,1,,,,,,,,,,,,,,,,switch,number,NA,k,0.2539,Hi,,,,,,5,,,,,,,,high,27,0,27,0,1,,,,,,,,,
296203,2022-10-07_14h05.01.862,vts_reward_expectancy,2022.2.4,Win32,60.12506013,Chrome,1536,864,,,,,0,1265,,,,,,,,,,,,,,,,,Y,139,star,0,1,,,,,,,,,,,,,,,,repeat,number,NA,k,0.3095,Hi,,,,,,5,,,,,,,,high,28,0,28,0,1,,,,,,,,,
296203,2022-10-07_14h05.01.862,vts_reward_expectancy,2022.2.4,Win32,60.12506013,Chrome,1536,864,,,,,0,1265,,,,,,,,,,,,,,,,,F,160,triangle,0,1,,,,,,,,,,,,,,,,switch,letter,NA,f,0.2348,Hi,,,,,,5,,,,,,,,high,29,0,29,0,1,,,,,,,,,
296203,2022-10-07_14h05.01.862,vts_reward_expectancy,2022.2.4,Win32,60.12506013,Chrome,1536,864,,,,,1,1266,,,,,,,,,,,,,,,,,H,181,star,1,1,,,,,,,,,,,,,,,,switch,number,numSwt,k,0.377,Lo,,,,,,5,,,,,,,,high,30,0,30,0,1,,,,,,,,,
296203,2022-10-07_14h05.01.862,vts_reward_expectancy,2022.2.4,Win32,60.12506013,Chrome,1536,864,,,,,1,1267,,,,,,,,,,,,,,,,,U,125,triangle,1,0,,,,,,,,,,,,,,,,switch,letter,lettSwt,f,0.3568,Hi,,,,,,5,,,,,,,,high,31,0,31,0,1,,,,,,,,,
296203,2022-10-07_14h05.01.862,vts_reward_expectancy,2022.2.4,Win32,60.12506013,Chrome,1536,864,,,,,,,,,,,,,,,,,,,,,,,,,,,,,,,,,,,,,,,,,,,,,,,,,,,,,,6,,,,,,,,,,,,,,answer the questions asked rapidly,1,,4,3,,2,1536,864
