participant,date,expName,psychopyVersion,OS,frameRate,browser,xResolution,yResolution,key_resp.keys,key_resp.rt,training_resp.keys,training_resp.rt,points_trial,points_cumul,trainBlock,training.thisRepN,training.thisTrialN,training.thisN,training.thisIndex,training.ran,LTriangleOpac,LCircleOpac,LHexagonOpac,LStarOpac,RTriangleOpac,RCircleOpac,RHexagonOpac,RStarOpac,LShape_ID,RShape_ID,curr_topStim,curr_bottStim,curr_shape,acc,E1,target_resp_prac1.keys,target_resp_prac1.rt,pracBlock,task1_prac_trials.thisRepN,task1_prac_trials.thisTrialN,task1_prac_trials.thisN,task1_prac_trials.thisIndex,task1_prac_trials.ran,target_resp_prac2.keys,target_resp_prac2.rt,task2_praac_trials.thisRepN,task2_praac_trials.thisTrialN,task2_praac_trials.thisN,task2_praac_trials.thisIndex,task2_praac_trials.ran,alt,task,condition,target_resp.keys,target_resp.rt,rewCond,vts_practice_trials.thisRepN,vts_practice_trials.thisTrialN,vts_practice_trials.thisN,vts_practice_trials.thisIndex,vts_practice_trials.ran,blockNum,trials_norew.thisRepN,trials_norew.thisTrialN,trials_norew.thisN,trials_norew.thisIndex,trials_norew.ran,key_resp_2.keys,key_resp_2.rt,rewExpect,trials_rew.thisRepN,trials_rew.thisTrialN,trials_rew.thisN,trials_rew.thisIndex,trials_rew.ran,Q1,Q2,Q2_text,Q3,Q4,Q5_text,Q5,xRes,yRes
293770,2022-10-05_11h00.14.634,vts_reward_expectancy,2022.2.4,MacIntel,59.99880002,Chrome,1440,900,,,,,,,,,,,,,,,,,,,,,,,,,,,,,,,,,,,,,,,,,,,,,,,,,,,,,,,,,,,,,,,,,,,,,,,,,,,,
293770,2022-10-05_11h00.14.634,vts_reward_expectancy,2022.2.4,MacIntel,59.99880002,Chrome,1440,900,space,10.2181,,,,,,,,,,,,,,,,,,,,,,,,,,,,,,,,,,,,,,,,,,,,,,,,,,,,,,,,,,,,,,,,,,,,,,,,,,
293770,2022-10-05_11h00.14.634,vts_reward_expectancy,2022.2.4,MacIntel,59.99880002,Chrome,1440,900,,,,,,,,,,,,,,,,,,,,,,,,,,,,,,,,,,,,,,,,,,,,,,,,,,,,,,,,,,,,,,,,,,,,,,,,,,,,
293770,2022-10-05_11h00.14.634,vts_reward_expectancy,2022.2.4,MacIntel,59.99880002,Chrome,1440,900,,,a,38.1688,10,10,0,0,0,0,8,1,0,0,1,0,0,0,0,1,hexagon,star,,,,,,,,,,,,,,,,,,,,,,,,,,,,,,,,,,,,,,,,,,,,,,,,,,,,,,
293770,2022-10-05_11h00.14.634,vts_reward_expectancy,2022.2.4,MacIntel,59.99880002,Chrome,1440,900,,,a,0.6506,1,11,0,0,1,1,1,1,1,0,0,0,0,0,1,0,triangle,hexagon,,,,,,,,,,,,,,,,,,,,,,,,,,,,,,,,,,,,,,,,,,,,,,,,,,,,,,
293770,2022-10-05_11h00.14.634,vts_reward_expectancy,2022.2.4,MacIntel,59.99880002,Chrome,1440,900,,,a,1.2978,1,12,0,0,2,2,10,1,0,0,0,1,0,1,0,0,star ,circle,,,,,,,,,,,,,,,,,,,,,,,,,,,,,,,,,,,,,,,,,,,,,,,,,,,,,,
293770,2022-10-05_11h00.14.634,vts_reward_expectancy,2022.2.4,MacIntel,59.99880002,Chrome,1440,900,,,a,0.2328,1,13,0,0,3,3,3,1,0,1,0,0,1,0,0,0,circle,triangle,,,,,,,,,,,,,,,,,,,,,,,,,,,,,,,,,,,,,,,,,,,,,,,,,,,,,,
293770,2022-10-05_11h00.14.634,vts_reward_expectancy,2022.2.4,MacIntel,59.99880002,Chrome,1440,900,,,a,0.4313,10,23,0,0,4,4,2,1,1,0,0,0,0,0,0,1,triangle,star,,,,,,,,,,,,,,,,,,,,,,,,,,,,,,,,,,,,,,,,,,,,,,,,,,,,,,
293770,2022-10-05_11h00.14.634,vts_reward_expectancy,2022.2.4,MacIntel,59.99880002,Chrome,1440,900,,,a,0.532,10,33,0,0,5,5,9,1,0,0,0,1,1,0,0,0,star,triangle,,,,,,,,,,,,,,,,,,,,,,,,,,,,,,,,,,,,,,,,,,,,,,,,,,,,,,
293770,2022-10-05_11h00.14.634,vts_reward_expectancy,2022.2.4,MacIntel,59.99880002,Chrome,1440,900,,,a,0.2872,1,34,0,0,6,6,0,1,1,0,0,0,0,1,0,0,triangle,circle,,,,,,,,,,,,,,,,,,,,,,,,,,,,,,,,,,,,,,,,,,,,,,,,,,,,,,
293770,2022-10-05_11h00.14.634,vts_reward_expectancy,2022.2.4,MacIntel,59.99880002,Chrome,1440,900,,,a,0.5193,1,35,0,0,7,7,6,1,0,0,1,0,1,0,0,0,hexagon,triangle,,,,,,,,,,,,,,,,,,,,,,,,,,,,,,,,,,,,,,,,,,,,,,,,,,,,,,
293770,2022-10-05_11h00.14.634,vts_reward_expectancy,2022.2.4,MacIntel,59.99880002,Chrome,1440,900,,,a,0.7189,1,36,0,0,8,8,4,1,0,1,0,0,0,0,1,0,circle,hexagon,,,,,,,,,,,,,,,,,,,,,,,,,,,,,,,,,,,,,,,,,,,,,,,,,,,,,,
293770,2022-10-05_11h00.14.634,vts_reward_expectancy,2022.2.4,MacIntel,59.99880002,Chrome,1440,900,,,a,0.2899,1,37,0,0,9,9,7,1,0,0,1,0,0,1,0,0,hexagon,circle,,,,,,,,,,,,,,,,,,,,,,,,,,,,,,,,,,,,,,,,,,,,,,,,,,,,,,
293770,2022-10-05_11h00.14.634,vts_reward_expectancy,2022.2.4,MacIntel,59.99880002,Chrome,1440,900,,,l,0.2869,10,47,0,0,10,10,5,1,0,1,0,0,0,0,0,1,circle,star,,,,,,,,,,,,,,,,,,,,,,,,,,,,,,,,,,,,,,,,,,,,,,,,,,,,,,
293770,2022-10-05_11h00.14.634,vts_reward_expectancy,2022.2.4,MacIntel,59.99880002,Chrome,1440,900,,,a,0.351,10,57,0,0,11,11,11,1,0,0,0,1,0,0,1,0,star,hexagon,,,,,,,,,,,,,,,,,,,,,,,,,,,,,,,,,,,,,,,,,,,,,,,,,,,,,,
293770,2022-10-05_11h00.14.634,vts_reward_expectancy,2022.2.4,MacIntel,59.99880002,Chrome,1440,900,,,l,0.3664,10,67,0,1,0,12,8,1,0,0,1,0,0,0,0,1,hexagon,star,,,,,,,,,,,,,,,,,,,,,,,,,,,,,,,,,,,,,,,,,,,,,,,,,,,,,,
293770,2022-10-05_11h00.14.634,vts_reward_expectancy,2022.2.4,MacIntel,59.99880002,Chrome,1440,900,,,a,0.4026,1,68,0,1,1,13,9,1,0,0,0,1,1,0,0,0,star,triangle,,,,,,,,,,,,,,,,,,,,,,,,,,,,,,,,,,,,,,,,,,,,,,,,,,,,,,
293770,2022-10-05_11h00.14.634,vts_reward_expectancy,2022.2.4,MacIntel,59.99880002,Chrome,1440,900,,,a,0.6512,1,69,0,1,2,14,0,1,1,0,0,0,0,1,0,0,triangle,circle,,,,,,,,,,,,,,,,,,,,,,,,,,,,,,,,,,,,,,,,,,,,,,,,,,,,,,
293770,2022-10-05_11h00.14.634,vts_reward_expectancy,2022.2.4,MacIntel,59.99880002,Chrome,1440,900,,,a,0.3989,10,79,0,1,3,15,2,1,1,0,0,0,0,0,0,1,triangle,star,,,,,,,,,,,,,,,,,,,,,,,,,,,,,,,,,,,,,,,,,,,,,,,,,,,,,,
293770,2022-10-05_11h00.14.634,vts_reward_expectancy,2022.2.4,MacIntel,59.99880002,Chrome,1440,900,,,a,0.4382,1,80,0,1,4,16,3,1,0,1,0,0,1,0,0,0,circle,triangle,,,,,,,,,,,,,,,,,,,,,,,,,,,,,,,,,,,,,,,,,,,,,,,,,,,,,,
293770,2022-10-05_11h00.14.634,vts_reward_expectancy,2022.2.4,MacIntel,59.99880002,Chrome,1440,900,,,l,0.4077,10,90,0,1,5,17,1,1,1,0,0,0,0,0,1,0,triangle,hexagon,,,,,,,,,,,,,,,,,,,,,,,,,,,,,,,,,,,,,,,,,,,,,,,,,,,,,,
293770,2022-10-05_11h00.14.634,vts_reward_expectancy,2022.2.4,MacIntel,59.99880002,Chrome,1440,900,,,l,0.4147,1,91,0,1,6,18,6,1,0,0,1,0,1,0,0,0,hexagon,triangle,,,,,,,,,,,,,,,,,,,,,,,,,,,,,,,,,,,,,,,,,,,,,,,,,,,,,,
293770,2022-10-05_11h00.14.634,vts_reward_expectancy,2022.2.4,MacIntel,59.99880002,Chrome,1440,900,,,a,0.3996,10,101,0,1,7,19,7,1,0,0,1,0,0,1,0,0,hexagon,circle,,,,,,,,,,,,,,,,,,,,,,,,,,,,,,,,,,,,,,,,,,,,,,,,,,,,,,
293770,2022-10-05_11h00.14.634,vts_reward_expectancy,2022.2.4,MacIntel,59.99880002,Chrome,1440,900,,,a,0.3687,1,102,0,1,8,20,11,1,0,0,0,1,0,0,1,0,star,hexagon,,,,,,,,,,,,,,,,,,,,,,,,,,,,,,,,,,,,,,,,,,,,,,,,,,,,,,
293770,2022-10-05_11h00.14.634,vts_reward_expectancy,2022.2.4,MacIntel,59.99880002,Chrome,1440,900,,,l,0.3668,1,103,0,1,9,21,4,1,0,1,0,0,0,0,1,0,circle,hexagon,,,,,,,,,,,,,,,,,,,,,,,,,,,,,,,,,,,,,,,,,,,,,,,,,,,,,,
293770,2022-10-05_11h00.14.634,vts_reward_expectancy,2022.2.4,MacIntel,59.99880002,Chrome,1440,900,,,l,0.35,10,113,0,1,10,22,5,1,0,1,0,0,0,0,0,1,circle,star,,,,,,,,,,,,,,,,,,,,,,,,,,,,,,,,,,,,,,,,,,,,,,,,,,,,,,
293770,2022-10-05_11h00.14.634,vts_reward_expectancy,2022.2.4,MacIntel,59.99880002,Chrome,1440,900,,,a,0.2882,10,123,0,1,11,23,10,1,0,0,0,1,0,1,0,0,star ,circle,,,,,,,,,,,,,,,,,,,,,,,,,,,,,,,,,,,,,,,,,,,,,,,,,,,,,,
293770,2022-10-05_11h00.14.634,vts_reward_expectancy,2022.2.4,MacIntel,59.99880002,Chrome,1440,900,,,l,0.0004,10,133,0,2,0,24,3,1,0,1,0,0,1,0,0,0,circle,triangle,,,,,,,,,,,,,,,,,,,,,,,,,,,,,,,,,,,,,,,,,,,,,,,,,,,,,,
293770,2022-10-05_11h00.14.634,vts_reward_expectancy,2022.2.4,MacIntel,59.99880002,Chrome,1440,900,,,a,0.1507,1,134,0,2,1,25,6,1,0,0,1,0,1,0,0,0,hexagon,triangle,,,,,,,,,,,,,,,,,,,,,,,,,,,,,,,,,,,,,,,,,,,,,,,,,,,,,,
293770,2022-10-05_11h00.14.634,vts_reward_expectancy,2022.2.4,MacIntel,59.99880002,Chrome,1440,900,,,l,0.265,10,144,0,2,2,26,10,1,0,0,0,1,0,1,0,0,star ,circle,,,,,,,,,,,,,,,,,,,,,,,,,,,,,,,,,,,,,,,,,,,,,,,,,,,,,,
293770,2022-10-05_11h00.14.634,vts_reward_expectancy,2022.2.4,MacIntel,59.99880002,Chrome,1440,900,,,l,0.2824,1,145,0,2,3,27,0,1,1,0,0,0,0,1,0,0,triangle,circle,,,,,,,,,,,,,,,,,,,,,,,,,,,,,,,,,,,,,,,,,,,,,,,,,,,,,,
293770,2022-10-05_11h00.14.634,vts_reward_expectancy,2022.2.4,MacIntel,59.99880002,Chrome,1440,900,,,a,0.3702,1,146,0,2,4,28,11,1,0,0,0,1,0,0,1,0,star,hexagon,,,,,,,,,,,,,,,,,,,,,,,,,,,,,,,,,,,,,,,,,,,,,,,,,,,,,,
293770,2022-10-05_11h00.14.634,vts_reward_expectancy,2022.2.4,MacIntel,59.99880002,Chrome,1440,900,,,l,0.2736,1,147,0,2,5,29,1,1,1,0,0,0,0,0,1,0,triangle,hexagon,,,,,,,,,,,,,,,,,,,,,,,,,,,,,,,,,,,,,,,,,,,,,,,,,,,,,,
293770,2022-10-05_11h00.14.634,vts_reward_expectancy,2022.2.4,MacIntel,59.99880002,Chrome,1440,900,,,a,0.5314,10,157,0,2,6,30,7,1,0,0,1,0,0,1,0,0,hexagon,circle,,,,,,,,,,,,,,,,,,,,,,,,,,,,,,,,,,,,,,,,,,,,,,,,,,,,,,
293770,2022-10-05_11h00.14.634,vts_reward_expectancy,2022.2.4,MacIntel,59.99880002,Chrome,1440,900,,,l,0.2665,10,167,0,2,7,31,5,1,0,1,0,0,0,0,0,1,circle,star,,,,,,,,,,,,,,,,,,,,,,,,,,,,,,,,,,,,,,,,,,,,,,,,,,,,,,
293770,2022-10-05_11h00.14.634,vts_reward_expectancy,2022.2.4,MacIntel,59.99880002,Chrome,1440,900,,,l,0.2677,10,177,0,2,8,32,2,1,1,0,0,0,0,0,0,1,triangle,star,,,,,,,,,,,,,,,,,,,,,,,,,,,,,,,,,,,,,,,,,,,,,,,,,,,,,,
293770,2022-10-05_11h00.14.634,vts_reward_expectancy,2022.2.4,MacIntel,59.99880002,Chrome,1440,900,,,l,0.0742,10,187,0,2,9,33,9,1,0,0,0,1,1,0,0,0,star,triangle,,,,,,,,,,,,,,,,,,,,,,,,,,,,,,,,,,,,,,,,,,,,,,,,,,,,,,
293770,2022-10-05_11h00.14.634,vts_reward_expectancy,2022.2.4,MacIntel,59.99880002,Chrome,1440,900,,,l,0.382,1,188,0,2,10,34,4,1,0,1,0,0,0,0,1,0,circle,hexagon,,,,,,,,,,,,,,,,,,,,,,,,,,,,,,,,,,,,,,,,,,,,,,,,,,,,,,
293770,2022-10-05_11h00.14.634,vts_reward_expectancy,2022.2.4,MacIntel,59.99880002,Chrome,1440,900,,,l,0.2494,10,198,0,2,11,35,8,1,0,0,1,0,0,0,0,1,hexagon,star,,,,,,,,,,,,,,,,,,,,,,,,,,,,,,,,,,,,,,,,,,,,,,,,,,,,,,
293770,2022-10-05_11h00.14.634,vts_reward_expectancy,2022.2.4,MacIntel,59.99880002,Chrome,1440,900,,,a,0.4169,10,208,1,0,0,0,10,1,0,0,0,1,0,1,0,0,star ,circle,,,,,,,,,,,,,,,,,,,,,,,,,,,,,,,,,,,,,,,,,,,,,,,,,,,,,,
293770,2022-10-05_11h00.14.634,vts_reward_expectancy,2022.2.4,MacIntel,59.99880002,Chrome,1440,900,,,l,0.6829,10,218,1,0,1,1,1,1,1,0,0,0,0,0,1,0,triangle,hexagon,,,,,,,,,,,,,,,,,,,,,,,,,,,,,,,,,,,,,,,,,,,,,,,,,,,,,,
293770,2022-10-05_11h00.14.634,vts_reward_expectancy,2022.2.4,MacIntel,59.99880002,Chrome,1440,900,,,a,0.2175,1,219,1,0,2,2,4,1,0,1,0,0,0,0,1,0,circle,hexagon,,,,,,,,,,,,,,,,,,,,,,,,,,,,,,,,,,,,,,,,,,,,,,,,,,,,,,
293770,2022-10-05_11h00.14.634,vts_reward_expectancy,2022.2.4,MacIntel,59.99880002,Chrome,1440,900,,,a,0.2661,10,229,1,0,3,3,2,1,1,0,0,0,0,0,0,1,triangle,star,,,,,,,,,,,,,,,,,,,,,,,,,,,,,,,,,,,,,,,,,,,,,,,,,,,,,,
293770,2022-10-05_11h00.14.634,vts_reward_expectancy,2022.2.4,MacIntel,59.99880002,Chrome,1440,900,,,l,0.2391,1,230,1,0,4,4,7,1,0,0,1,0,0,1,0,0,hexagon,circle,,,,,,,,,,,,,,,,,,,,,,,,,,,,,,,,,,,,,,,,,,,,,,,,,,,,,,
293770,2022-10-05_11h00.14.634,vts_reward_expectancy,2022.2.4,MacIntel,59.99880002,Chrome,1440,900,,,a,0.3822,10,240,1,0,5,5,11,1,0,0,0,1,0,0,1,0,star,hexagon,,,,,,,,,,,,,,,,,,,,,,,,,,,,,,,,,,,,,,,,,,,,,,,,,,,,,,
293770,2022-10-05_11h00.14.634,vts_reward_expectancy,2022.2.4,MacIntel,59.99880002,Chrome,1440,900,,,l,0.4171,1,241,1,0,6,6,6,1,0,0,1,0,1,0,0,0,hexagon,triangle,,,,,,,,,,,,,,,,,,,,,,,,,,,,,,,,,,,,,,,,,,,,,,,,,,,,,,
293770,2022-10-05_11h00.14.634,vts_reward_expectancy,2022.2.4,MacIntel,59.99880002,Chrome,1440,900,,,l,0.3971,10,251,1,0,7,7,0,1,1,0,0,0,0,1,0,0,triangle,circle,,,,,,,,,,,,,,,,,,,,,,,,,,,,,,,,,,,,,,,,,,,,,,,,,,,,,,
293770,2022-10-05_11h00.14.634,vts_reward_expectancy,2022.2.4,MacIntel,59.99880002,Chrome,1440,900,,,l,0.365,10,261,1,0,8,8,8,1,0,0,1,0,0,0,0,1,hexagon,star,,,,,,,,,,,,,,,,,,,,,,,,,,,,,,,,,,,,,,,,,,,,,,,,,,,,,,
293770,2022-10-05_11h00.14.634,vts_reward_expectancy,2022.2.4,MacIntel,59.99880002,Chrome,1440,900,,,l,0.4003,10,271,1,0,9,9,5,1,0,1,0,0,0,0,0,1,circle,star,,,,,,,,,,,,,,,,,,,,,,,,,,,,,,,,,,,,,,,,,,,,,,,,,,,,,,
293770,2022-10-05_11h00.14.634,vts_reward_expectancy,2022.2.4,MacIntel,59.99880002,Chrome,1440,900,,,l,0.4012,10,281,1,0,10,10,9,1,0,0,0,1,1,0,0,0,star,triangle,,,,,,,,,,,,,,,,,,,,,,,,,,,,,,,,,,,,,,,,,,,,,,,,,,,,,,
293770,2022-10-05_11h00.14.634,vts_reward_expectancy,2022.2.4,MacIntel,59.99880002,Chrome,1440,900,,,l,0.264,1,282,1,0,11,11,3,1,0,1,0,0,1,0,0,0,circle,triangle,,,,,,,,,,,,,,,,,,,,,,,,,,,,,,,,,,,,,,,,,,,,,,,,,,,,,,
293770,2022-10-05_11h00.14.634,vts_reward_expectancy,2022.2.4,MacIntel,59.99880002,Chrome,1440,900,,,l,0.3009,10,292,1,1,0,12,3,1,0,1,0,0,1,0,0,0,circle,triangle,,,,,,,,,,,,,,,,,,,,,,,,,,,,,,,,,,,,,,,,,,,,,,,,,,,,,,
293770,2022-10-05_11h00.14.634,vts_reward_expectancy,2022.2.4,MacIntel,59.99880002,Chrome,1440,900,,,l,0.2871,1,293,1,1,1,13,9,1,0,0,0,1,1,0,0,0,star,triangle,,,,,,,,,,,,,,,,,,,,,,,,,,,,,,,,,,,,,,,,,,,,,,,,,,,,,,
293770,2022-10-05_11h00.14.634,vts_reward_expectancy,2022.2.4,MacIntel,59.99880002,Chrome,1440,900,,,a,0.3505,1,294,1,1,2,14,11,1,0,0,0,1,0,0,1,0,star,hexagon,,,,,,,,,,,,,,,,,,,,,,,,,,,,,,,,,,,,,,,,,,,,,,,,,,,,,,
293770,2022-10-05_11h00.14.634,vts_reward_expectancy,2022.2.4,MacIntel,59.99880002,Chrome,1440,900,,,l,0.3004,10,304,1,1,3,15,10,1,0,0,0,1,0,1,0,0,star ,circle,,,,,,,,,,,,,,,,,,,,,,,,,,,,,,,,,,,,,,,,,,,,,,,,,,,,,,
293770,2022-10-05_11h00.14.634,vts_reward_expectancy,2022.2.4,MacIntel,59.99880002,Chrome,1440,900,,,l,0.3167,10,314,1,1,4,16,8,1,0,0,1,0,0,0,0,1,hexagon,star,,,,,,,,,,,,,,,,,,,,,,,,,,,,,,,,,,,,,,,,,,,,,,,,,,,,,,
293770,2022-10-05_11h00.14.634,vts_reward_expectancy,2022.2.4,MacIntel,59.99880002,Chrome,1440,900,,,l,0.3235,10,324,1,1,5,17,2,1,1,0,0,0,0,0,0,1,triangle,star,,,,,,,,,,,,,,,,,,,,,,,,,,,,,,,,,,,,,,,,,,,,,,,,,,,,,,
293770,2022-10-05_11h00.14.634,vts_reward_expectancy,2022.2.4,MacIntel,59.99880002,Chrome,1440,900,,,l,0.2156,1,325,1,1,6,18,7,1,0,0,1,0,0,1,0,0,hexagon,circle,,,,,,,,,,,,,,,,,,,,,,,,,,,,,,,,,,,,,,,,,,,,,,,,,,,,,,
293770,2022-10-05_11h00.14.634,vts_reward_expectancy,2022.2.4,MacIntel,59.99880002,Chrome,1440,900,,,l,0.334,10,335,1,1,7,19,4,1,0,1,0,0,0,0,1,0,circle,hexagon,,,,,,,,,,,,,,,,,,,,,,,,,,,,,,,,,,,,,,,,,,,,,,,,,,,,,,
293770,2022-10-05_11h00.14.634,vts_reward_expectancy,2022.2.4,MacIntel,59.99880002,Chrome,1440,900,,,a,0.2515,1,336,1,1,8,20,1,1,1,0,0,0,0,0,1,0,triangle,hexagon,,,,,,,,,,,,,,,,,,,,,,,,,,,,,,,,,,,,,,,,,,,,,,,,,,,,,,
293770,2022-10-05_11h00.14.634,vts_reward_expectancy,2022.2.4,MacIntel,59.99880002,Chrome,1440,900,,,l,0.231,1,337,1,1,9,21,6,1,0,0,1,0,1,0,0,0,hexagon,triangle,,,,,,,,,,,,,,,,,,,,,,,,,,,,,,,,,,,,,,,,,,,,,,,,,,,,,,
293770,2022-10-05_11h00.14.634,vts_reward_expectancy,2022.2.4,MacIntel,59.99880002,Chrome,1440,900,,,l,0.2152,1,338,1,1,10,22,0,1,1,0,0,0,0,1,0,0,triangle,circle,,,,,,,,,,,,,,,,,,,,,,,,,,,,,,,,,,,,,,,,,,,,,,,,,,,,,,
293770,2022-10-05_11h00.14.634,vts_reward_expectancy,2022.2.4,MacIntel,59.99880002,Chrome,1440,900,,,a,0.1647,1,339,1,1,11,23,5,1,0,1,0,0,0,0,0,1,circle,star,,,,,,,,,,,,,,,,,,,,,,,,,,,,,,,,,,,,,,,,,,,,,,,,,,,,,,
293770,2022-10-05_11h00.14.634,vts_reward_expectancy,2022.2.4,MacIntel,59.99880002,Chrome,1440,900,,,l,0.1916,10,349,1,2,0,24,8,1,0,0,1,0,0,0,0,1,hexagon,star,,,,,,,,,,,,,,,,,,,,,,,,,,,,,,,,,,,,,,,,,,,,,,,,,,,,,,
293770,2022-10-05_11h00.14.634,vts_reward_expectancy,2022.2.4,MacIntel,59.99880002,Chrome,1440,900,,,l,0.3018,10,359,1,2,1,25,2,1,1,0,0,0,0,0,0,1,triangle,star,,,,,,,,,,,,,,,,,,,,,,,,,,,,,,,,,,,,,,,,,,,,,,,,,,,,,,
293770,2022-10-05_11h00.14.634,vts_reward_expectancy,2022.2.4,MacIntel,59.99880002,Chrome,1440,900,,,a,0.4668,10,369,1,2,2,26,0,1,1,0,0,0,0,1,0,0,triangle,circle,,,,,,,,,,,,,,,,,,,,,,,,,,,,,,,,,,,,,,,,,,,,,,,,,,,,,,
293770,2022-10-05_11h00.14.634,vts_reward_expectancy,2022.2.4,MacIntel,59.99880002,Chrome,1440,900,,,l,0.3339,10,379,1,2,3,27,3,1,0,1,0,0,1,0,0,0,circle,triangle,,,,,,,,,,,,,,,,,,,,,,,,,,,,,,,,,,,,,,,,,,,,,,,,,,,,,,
293770,2022-10-05_11h00.14.634,vts_reward_expectancy,2022.2.4,MacIntel,59.99880002,Chrome,1440,900,,,a,0.3669,10,389,1,2,4,28,10,1,0,0,0,1,0,1,0,0,star ,circle,,,,,,,,,,,,,,,,,,,,,,,,,,,,,,,,,,,,,,,,,,,,,,,,,,,,,,
293770,2022-10-05_11h00.14.634,vts_reward_expectancy,2022.2.4,MacIntel,59.99880002,Chrome,1440,900,,,a,0.5668,1,390,1,2,5,29,5,1,0,1,0,0,0,0,0,1,circle,star,,,,,,,,,,,,,,,,,,,,,,,,,,,,,,,,,,,,,,,,,,,,,,,,,,,,,,
293770,2022-10-05_11h00.14.634,vts_reward_expectancy,2022.2.4,MacIntel,59.99880002,Chrome,1440,900,,,a,0.4965,10,400,1,2,6,30,6,1,0,0,1,0,1,0,0,0,hexagon,triangle,,,,,,,,,,,,,,,,,,,,,,,,,,,,,,,,,,,,,,,,,,,,,,,,,,,,,,
293770,2022-10-05_11h00.14.634,vts_reward_expectancy,2022.2.4,MacIntel,59.99880002,Chrome,1440,900,,,l,0.3072,1,401,1,2,7,31,9,1,0,0,0,1,1,0,0,0,star,triangle,,,,,,,,,,,,,,,,,,,,,,,,,,,,,,,,,,,,,,,,,,,,,,,,,,,,,,
293770,2022-10-05_11h00.14.634,vts_reward_expectancy,2022.2.4,MacIntel,59.99880002,Chrome,1440,900,,,a,0.3178,10,411,1,2,8,32,7,1,0,0,1,0,0,1,0,0,hexagon,circle,,,,,,,,,,,,,,,,,,,,,,,,,,,,,,,,,,,,,,,,,,,,,,,,,,,,,,
293770,2022-10-05_11h00.14.634,vts_reward_expectancy,2022.2.4,MacIntel,59.99880002,Chrome,1440,900,,,l,0.3491,1,412,1,2,9,33,11,1,0,0,0,1,0,0,1,0,star,hexagon,,,,,,,,,,,,,,,,,,,,,,,,,,,,,,,,,,,,,,,,,,,,,,,,,,,,,,
293770,2022-10-05_11h00.14.634,vts_reward_expectancy,2022.2.4,MacIntel,59.99880002,Chrome,1440,900,,,a,0.325,1,413,1,2,10,34,1,1,1,0,0,0,0,0,1,0,triangle,hexagon,,,,,,,,,,,,,,,,,,,,,,,,,,,,,,,,,,,,,,,,,,,,,,,,,,,,,,
293770,2022-10-05_11h00.14.634,vts_reward_expectancy,2022.2.4,MacIntel,59.99880002,Chrome,1440,900,,,l,0.3998,10,423,1,2,11,35,4,1,0,1,0,0,0,0,1,0,circle,hexagon,,,,,,,,,,,,,,,,,,,,,,,,,,,,,,,,,,,,,,,,,,,,,,,,,,,,,,
293770,2022-10-05_11h00.14.634,vts_reward_expectancy,2022.2.4,MacIntel,59.99880002,Chrome,1440,900,,,l,0.4495,10,433,2,0,0,0,11,1,0,0,0,1,0,0,1,0,star,hexagon,,,,,,,,,,,,,,,,,,,,,,,,,,,,,,,,,,,,,,,,,,,,,,,,,,,,,,
293770,2022-10-05_11h00.14.634,vts_reward_expectancy,2022.2.4,MacIntel,59.99880002,Chrome,1440,900,,,a,0.3396,10,443,2,0,1,1,10,1,0,0,0,1,0,1,0,0,star ,circle,,,,,,,,,,,,,,,,,,,,,,,,,,,,,,,,,,,,,,,,,,,,,,,,,,,,,,
293770,2022-10-05_11h00.14.634,vts_reward_expectancy,2022.2.4,MacIntel,59.99880002,Chrome,1440,900,,,l,0.2898,1,444,2,0,2,2,9,1,0,0,0,1,1,0,0,0,star,triangle,,,,,,,,,,,,,,,,,,,,,,,,,,,,,,,,,,,,,,,,,,,,,,,,,,,,,,
293770,2022-10-05_11h00.14.634,vts_reward_expectancy,2022.2.4,MacIntel,59.99880002,Chrome,1440,900,,,a,0.2162,10,454,2,0,3,3,3,1,0,1,0,0,1,0,0,0,circle,triangle,,,,,,,,,,,,,,,,,,,,,,,,,,,,,,,,,,,,,,,,,,,,,,,,,,,,,,
293770,2022-10-05_11h00.14.634,vts_reward_expectancy,2022.2.4,MacIntel,59.99880002,Chrome,1440,900,,,a,0.2498,10,464,2,0,4,4,1,1,1,0,0,0,0,0,1,0,triangle,hexagon,,,,,,,,,,,,,,,,,,,,,,,,,,,,,,,,,,,,,,,,,,,,,,,,,,,,,,
293770,2022-10-05_11h00.14.634,vts_reward_expectancy,2022.2.4,MacIntel,59.99880002,Chrome,1440,900,,,a,0.3376,1,465,2,0,5,5,8,1,0,0,1,0,0,0,0,1,hexagon,star,,,,,,,,,,,,,,,,,,,,,,,,,,,,,,,,,,,,,,,,,,,,,,,,,,,,,,
293770,2022-10-05_11h00.14.634,vts_reward_expectancy,2022.2.4,MacIntel,59.99880002,Chrome,1440,900,,,a,0.4673,10,475,2,0,6,6,6,1,0,0,1,0,1,0,0,0,hexagon,triangle,,,,,,,,,,,,,,,,,,,,,,,,,,,,,,,,,,,,,,,,,,,,,,,,,,,,,,
293770,2022-10-05_11h00.14.634,vts_reward_expectancy,2022.2.4,MacIntel,59.99880002,Chrome,1440,900,,,l,0.3311,10,485,2,0,7,7,5,1,0,1,0,0,0,0,0,1,circle,star,,,,,,,,,,,,,,,,,,,,,,,,,,,,,,,,,,,,,,,,,,,,,,,,,,,,,,
293770,2022-10-05_11h00.14.634,vts_reward_expectancy,2022.2.4,MacIntel,59.99880002,Chrome,1440,900,,,l,0.25,1,486,2,0,8,8,4,1,0,1,0,0,0,0,1,0,circle,hexagon,,,,,,,,,,,,,,,,,,,,,,,,,,,,,,,,,,,,,,,,,,,,,,,,,,,,,,
293770,2022-10-05_11h00.14.634,vts_reward_expectancy,2022.2.4,MacIntel,59.99880002,Chrome,1440,900,,,a,0.1318,10,496,2,0,9,9,0,1,1,0,0,0,0,1,0,0,triangle,circle,,,,,,,,,,,,,,,,,,,,,,,,,,,,,,,,,,,,,,,,,,,,,,,,,,,,,,
293770,2022-10-05_11h00.14.634,vts_reward_expectancy,2022.2.4,MacIntel,59.99880002,Chrome,1440,900,,,l,0.3509,10,506,2,0,10,10,2,1,1,0,0,0,0,0,0,1,triangle,star,,,,,,,,,,,,,,,,,,,,,,,,,,,,,,,,,,,,,,,,,,,,,,,,,,,,,,
293770,2022-10-05_11h00.14.634,vts_reward_expectancy,2022.2.4,MacIntel,59.99880002,Chrome,1440,900,,,a,0.2698,10,516,2,0,11,11,7,1,0,0,1,0,0,1,0,0,hexagon,circle,,,,,,,,,,,,,,,,,,,,,,,,,,,,,,,,,,,,,,,,,,,,,,,,,,,,,,
293770,2022-10-05_11h00.14.634,vts_reward_expectancy,2022.2.4,MacIntel,59.99880002,Chrome,1440,900,,,l,0.2208,10,526,2,1,0,12,8,1,0,0,1,0,0,0,0,1,hexagon,star,,,,,,,,,,,,,,,,,,,,,,,,,,,,,,,,,,,,,,,,,,,,,,,,,,,,,,
293770,2022-10-05_11h00.14.634,vts_reward_expectancy,2022.2.4,MacIntel,59.99880002,Chrome,1440,900,,,a,0.1993,10,536,2,1,1,13,1,1,1,0,0,0,0,0,1,0,triangle,hexagon,,,,,,,,,,,,,,,,,,,,,,,,,,,,,,,,,,,,,,,,,,,,,,,,,,,,,,
293770,2022-10-05_11h00.14.634,vts_reward_expectancy,2022.2.4,MacIntel,59.99880002,Chrome,1440,900,,,l,0.0554,1,537,2,1,2,14,2,1,1,0,0,0,0,0,0,1,triangle,star,,,,,,,,,,,,,,,,,,,,,,,,,,,,,,,,,,,,,,,,,,,,,,,,,,,,,,
293770,2022-10-05_11h00.14.634,vts_reward_expectancy,2022.2.4,MacIntel,59.99880002,Chrome,1440,900,,,a,0.2997,1,538,2,1,3,15,10,1,0,0,0,1,0,1,0,0,star ,circle,,,,,,,,,,,,,,,,,,,,,,,,,,,,,,,,,,,,,,,,,,,,,,,,,,,,,,
293770,2022-10-05_11h00.14.634,vts_reward_expectancy,2022.2.4,MacIntel,59.99880002,Chrome,1440,900,,,l,0.2496,1,539,2,1,4,16,0,1,1,0,0,0,0,1,0,0,triangle,circle,,,,,,,,,,,,,,,,,,,,,,,,,,,,,,,,,,,,,,,,,,,,,,,,,,,,,,
293770,2022-10-05_11h00.14.634,vts_reward_expectancy,2022.2.4,MacIntel,59.99880002,Chrome,1440,900,,,l,0.2976,1,540,2,1,5,17,11,1,0,0,0,1,0,0,1,0,star,hexagon,,,,,,,,,,,,,,,,,,,,,,,,,,,,,,,,,,,,,,,,,,,,,,,,,,,,,,
293770,2022-10-05_11h00.14.634,vts_reward_expectancy,2022.2.4,MacIntel,59.99880002,Chrome,1440,900,,,l,0.4668,10,550,2,1,6,18,5,1,0,1,0,0,0,0,0,1,circle,star,,,,,,,,,,,,,,,,,,,,,,,,,,,,,,,,,,,,,,,,,,,,,,,,,,,,,,
293770,2022-10-05_11h00.14.634,vts_reward_expectancy,2022.2.4,MacIntel,59.99880002,Chrome,1440,900,,,a,0.2164,10,560,2,1,7,19,7,1,0,0,1,0,0,1,0,0,hexagon,circle,,,,,,,,,,,,,,,,,,,,,,,,,,,,,,,,,,,,,,,,,,,,,,,,,,,,,,
293770,2022-10-05_11h00.14.634,vts_reward_expectancy,2022.2.4,MacIntel,59.99880002,Chrome,1440,900,,,l,0.3168,1,561,2,1,8,20,6,1,0,0,1,0,1,0,0,0,hexagon,triangle,,,,,,,,,,,,,,,,,,,,,,,,,,,,,,,,,,,,,,,,,,,,,,,,,,,,,,
293770,2022-10-05_11h00.14.634,vts_reward_expectancy,2022.2.4,MacIntel,59.99880002,Chrome,1440,900,,,l,0.4185,1,562,2,1,9,21,4,1,0,1,0,0,0,0,1,0,circle,hexagon,,,,,,,,,,,,,,,,,,,,,,,,,,,,,,,,,,,,,,,,,,,,,,,,,,,,,,
293770,2022-10-05_11h00.14.634,vts_reward_expectancy,2022.2.4,MacIntel,59.99880002,Chrome,1440,900,,,a,0.3211,1,563,2,1,10,22,3,1,0,1,0,0,1,0,0,0,circle,triangle,,,,,,,,,,,,,,,,,,,,,,,,,,,,,,,,,,,,,,,,,,,,,,,,,,,,,,
293770,2022-10-05_11h00.14.634,vts_reward_expectancy,2022.2.4,MacIntel,59.99880002,Chrome,1440,900,,,a,0.6039,10,573,2,1,11,23,9,1,0,0,0,1,1,0,0,0,star,triangle,,,,,,,,,,,,,,,,,,,,,,,,,,,,,,,,,,,,,,,,,,,,,,,,,,,,,,
293770,2022-10-05_11h00.14.634,vts_reward_expectancy,2022.2.4,MacIntel,59.99880002,Chrome,1440,900,,,l,0.5033,10,583,2,2,0,24,3,1,0,1,0,0,1,0,0,0,circle,triangle,,,,,,,,,,,,,,,,,,,,,,,,,,,,,,,,,,,,,,,,,,,,,,,,,,,,,,
293770,2022-10-05_11h00.14.634,vts_reward_expectancy,2022.2.4,MacIntel,59.99880002,Chrome,1440,900,,,a,0.4904,1,584,2,2,1,25,6,1,0,0,1,0,1,0,0,0,hexagon,triangle,,,,,,,,,,,,,,,,,,,,,,,,,,,,,,,,,,,,,,,,,,,,,,,,,,,,,,
293770,2022-10-05_11h00.14.634,vts_reward_expectancy,2022.2.4,MacIntel,59.99880002,Chrome,1440,900,,,l,0.4334,10,594,2,2,2,26,1,1,1,0,0,0,0,0,1,0,triangle,hexagon,,,,,,,,,,,,,,,,,,,,,,,,,,,,,,,,,,,,,,,,,,,,,,,,,,,,,,
293770,2022-10-05_11h00.14.634,vts_reward_expectancy,2022.2.4,MacIntel,59.99880002,Chrome,1440,900,,,a,0.3148,1,595,2,2,3,27,5,1,0,1,0,0,0,0,0,1,circle,star,,,,,,,,,,,,,,,,,,,,,,,,,,,,,,,,,,,,,,,,,,,,,,,,,,,,,,
293770,2022-10-05_11h00.14.634,vts_reward_expectancy,2022.2.4,MacIntel,59.99880002,Chrome,1440,900,,,l,0.2671,1,596,2,2,4,28,4,1,0,1,0,0,0,0,1,0,circle,hexagon,,,,,,,,,,,,,,,,,,,,,,,,,,,,,,,,,,,,,,,,,,,,,,,,,,,,,,
293770,2022-10-05_11h00.14.634,vts_reward_expectancy,2022.2.4,MacIntel,59.99880002,Chrome,1440,900,,,l,0.2898,10,606,2,2,5,29,8,1,0,0,1,0,0,0,0,1,hexagon,star,,,,,,,,,,,,,,,,,,,,,,,,,,,,,,,,,,,,,,,,,,,,,,,,,,,,,,
293770,2022-10-05_11h00.14.634,vts_reward_expectancy,2022.2.4,MacIntel,59.99880002,Chrome,1440,900,,,a,0.4,10,616,2,2,6,30,11,1,0,0,0,1,0,0,1,0,star,hexagon,,,,,,,,,,,,,,,,,,,,,,,,,,,,,,,,,,,,,,,,,,,,,,,,,,,,,,
293770,2022-10-05_11h00.14.634,vts_reward_expectancy,2022.2.4,MacIntel,59.99880002,Chrome,1440,900,,,l,0.3073,10,626,2,2,7,31,2,1,1,0,0,0,0,0,0,1,triangle,star,,,,,,,,,,,,,,,,,,,,,,,,,,,,,,,,,,,,,,,,,,,,,,,,,,,,,,
293770,2022-10-05_11h00.14.634,vts_reward_expectancy,2022.2.4,MacIntel,59.99880002,Chrome,1440,900,,,l,0.2835,1,627,2,2,8,32,7,1,0,0,1,0,0,1,0,0,hexagon,circle,,,,,,,,,,,,,,,,,,,,,,,,,,,,,,,,,,,,,,,,,,,,,,,,,,,,,,
293770,2022-10-05_11h00.14.634,vts_reward_expectancy,2022.2.4,MacIntel,59.99880002,Chrome,1440,900,,,a,0.3191,1,628,2,2,9,33,9,1,0,0,0,1,1,0,0,0,star,triangle,,,,,,,,,,,,,,,,,,,,,,,,,,,,,,,,,,,,,,,,,,,,,,,,,,,,,,
293770,2022-10-05_11h00.14.634,vts_reward_expectancy,2022.2.4,MacIntel,59.99880002,Chrome,1440,900,,,l,0.5306,1,629,2,2,10,34,0,1,1,0,0,0,0,1,0,0,triangle,circle,,,,,,,,,,,,,,,,,,,,,,,,,,,,,,,,,,,,,,,,,,,,,,,,,,,,,,
293770,2022-10-05_11h00.14.634,vts_reward_expectancy,2022.2.4,MacIntel,59.99880002,Chrome,1440,900,,,a,0.3336,1,630,2,2,11,35,10,1,0,0,0,1,0,1,0,0,star ,circle,,,,,,,,,,,,,,,,,,,,,,,,,,,,,,,,,,,,,,,,,,,,,,,,,,,,,,
293770,2022-10-05_11h00.14.634,vts_reward_expectancy,2022.2.4,MacIntel,59.99880002,Chrome,1440,900,,,,,,,,,,,,,,,,,,,,,,,125,F,hexagon,1,0,d,0.8639,0,0,0,0,0,1,,,,,,,,,,,,,,,,,,,,,,,,,,,,,,,,,,,,,,,,,
293770,2022-10-05_11h00.14.634,vts_reward_expectancy,2022.2.4,MacIntel,59.99880002,Chrome,1440,900,,,,,,,,,,,,,,,,,,,,,,,181,S,circle,1,0,f,0.499,0,1,0,1,0,1,,,,,,,,,,,,,,,,,,,,,,,,,,,,,,,,,,,,,,,,,
293770,2022-10-05_11h00.14.634,vts_reward_expectancy,2022.2.4,MacIntel,59.99880002,Chrome,1440,900,,,,,,,,,,,,,,,,,,,,,,,160,B,triangle,1,0,f,0.5637,0,2,0,2,0,1,,,,,,,,,,,,,,,,,,,,,,,,,,,,,,,,,,,,,,,,,
293770,2022-10-05_11h00.14.634,vts_reward_expectancy,2022.2.4,MacIntel,59.99880002,Chrome,1440,900,,,,,,,,,,,,,,,,,,,,,,,146,H,star,1,0,d,0.6137,0,3,0,3,0,1,,,,,,,,,,,,,,,,,,,,,,,,,,,,,,,,,,,,,,,,,
293770,2022-10-05_11h00.14.634,vts_reward_expectancy,2022.2.4,MacIntel,59.99880002,Chrome,1440,900,,,,,,,,,,,,,,,,,,,,,,,167,D,hexagon,1,0,f,0.564,0,4,0,4,0,1,,,,,,,,,,,,,,,,,,,,,,,,,,,,,,,,,,,,,,,,,
293770,2022-10-05_11h00.14.634,vts_reward_expectancy,2022.2.4,MacIntel,59.99880002,Chrome,1440,900,,,,,,,,,,,,,,,,,,,,,,,174,W,circle,1,0,f,0.5463,0,5,0,5,0,1,,,,,,,,,,,,,,,,,,,,,,,,,,,,,,,,,,,,,,,,,
293770,2022-10-05_11h00.14.634,vts_reward_expectancy,2022.2.4,MacIntel,59.99880002,Chrome,1440,900,,,,,,,,,,,,,,,,,,,,,,,139,Y,triangle,1,0,d,0.5459,0,6,0,6,0,1,,,,,,,,,,,,,,,,,,,,,,,,,,,,,,,,,,,,,,,,,
293770,2022-10-05_11h00.14.634,vts_reward_expectancy,2022.2.4,MacIntel,59.99880002,Chrome,1440,900,,,,,,,,,,,,,,,,,,,,,,,132,U,star,1,0,d,0.5969,0,7,0,7,0,1,,,,,,,,,,,,,,,,,,,,,,,,,,,,,,,,,,,,,,,,,
293770,2022-10-05_11h00.14.634,vts_reward_expectancy,2022.2.4,MacIntel,59.99880002,Chrome,1440,900,,,,,,,,,,,,,,,,,,,,,,,125,F,hexagon,1,0,d,0.4812,0,8,0,8,0,1,,,,,,,,,,,,,,,,,,,,,,,,,,,,,,,,,,,,,,,,,
293770,2022-10-05_11h00.14.634,vts_reward_expectancy,2022.2.4,MacIntel,59.99880002,Chrome,1440,900,,,,,,,,,,,,,,,,,,,,,,,181,S,star,1,0,f,0.7498,0,9,0,9,0,1,,,,,,,,,,,,,,,,,,,,,,,,,,,,,,,,,,,,,,,,,
293770,2022-10-05_11h00.14.634,vts_reward_expectancy,2022.2.4,MacIntel,59.99880002,Chrome,1440,900,,,,,,,,,,,,,,,,,,,,,,,160,B,circle,1,0,,,1,,,,,,j,0.6479,0,0,0,0,1,,,,,,,,,,,,,,,,,,,,,,,,,,,,,,,,,,
293770,2022-10-05_11h00.14.634,vts_reward_expectancy,2022.2.4,MacIntel,59.99880002,Chrome,1440,900,,,,,,,,,,,,,,,,,,,,,,,139,H,triangle,0,0,,,1,,,,,,k,0.4322,1,0,1,0,1,,,,,,,,,,,,,,,,,,,,,,,,,,,,,,,,,,
293770,2022-10-05_11h00.14.634,vts_reward_expectancy,2022.2.4,MacIntel,59.99880002,Chrome,1440,900,,,,,,,,,,,,,,,,,,,,,,,125,W,star,1,1,,,1,,,,,,k,0.4186,2,0,2,0,1,,,,,,,,,,,,,,,,,,,,,,,,,,,,,,,,,,
293770,2022-10-05_11h00.14.634,vts_reward_expectancy,2022.2.4,MacIntel,59.99880002,Chrome,1440,900,,,,,,,,,,,,,,,,,,,,,,,132,S,hexagon,1,0,,,1,,,,,,k,0.6288,3,0,3,0,1,,,,,,,,,,,,,,,,,,,,,,,,,,,,,,,,,,
293770,2022-10-05_11h00.14.634,vts_reward_expectancy,2022.2.4,MacIntel,59.99880002,Chrome,1440,900,,,,,,,,,,,,,,,,,,,,,,,174,Y,circle,1,0,,,1,,,,,,k,0.6298,4,0,4,0,1,,,,,,,,,,,,,,,,,,,,,,,,,,,,,,,,,,
293770,2022-10-05_11h00.14.634,vts_reward_expectancy,2022.2.4,MacIntel,59.99880002,Chrome,1440,900,,,,,,,,,,,,,,,,,,,,,,,167,D,triangle,1,0,,,1,,,,,,j,0.8131,5,0,5,0,1,,,,,,,,,,,,,,,,,,,,,,,,,,,,,,,,,,
293770,2022-10-05_11h00.14.634,vts_reward_expectancy,2022.2.4,MacIntel,59.99880002,Chrome,1440,900,,,,,,,,,,,,,,,,,,,,,,,146,F,star,0,0,,,1,,,,,,k,0.5965,6,0,6,0,1,,,,,,,,,,,,,,,,,,,,,,,,,,,,,,,,,,
293770,2022-10-05_11h00.14.634,vts_reward_expectancy,2022.2.4,MacIntel,59.99880002,Chrome,1440,900,,,,,,,,,,,,,,,,,,,,,,,181,U,hexagon,1,1,,,1,,,,,,k,0.3976,7,0,7,0,1,,,,,,,,,,,,,,,,,,,,,,,,,,,,,,,,,,
293770,2022-10-05_11h00.14.634,vts_reward_expectancy,2022.2.4,MacIntel,59.99880002,Chrome,1440,900,,,,,,,,,,,,,,,,,,,,,,,160,B,triangle,1,0,,,1,,,,,,j,0.6149,8,0,8,0,1,,,,,,,,,,,,,,,,,,,,,,,,,,,,,,,,,,
293770,2022-10-05_11h00.14.634,vts_reward_expectancy,2022.2.4,MacIntel,59.99880002,Chrome,1440,900,,,,,,,,,,,,,,,,,,,,,,,139,H,circle,1,0,,,1,,,,,,j,0.6794,9,0,9,0,1,,,,,,,,,,,,,,,,,,,,,,,,,,,,,,,,,,
293770,2022-10-05_11h00.14.634,vts_reward_expectancy,2022.2.4,MacIntel,59.99880002,Chrome,1440,900,,,,,,,,,,,,,,,,,,,,,,,146,D,circle,1,0,,,2,,,,,,j,0.7688,0,0,0,0,1,,,,,,,,,,,,,,,,,,,,,,,,,,,,,,,,,,
293770,2022-10-05_11h00.14.634,vts_reward_expectancy,2022.2.4,MacIntel,59.99880002,Chrome,1440,900,,,,,,,,,,,,,,,,,,,,,,,167,H,triangle,1,0,,,2,,,,,,j,0.6328,1,0,1,0,1,,,,,,,,,,,,,,,,,,,,,,,,,,,,,,,,,,
293770,2022-10-05_11h00.14.634,vts_reward_expectancy,2022.2.4,MacIntel,59.99880002,Chrome,1440,900,,,,,,,,,,,,,,,,,,,,,,,174,S,star,1,0,,,2,,,,,,k,0.414,2,0,2,0,1,,,,,,,,,,,,,,,,,,,,,,,,,,,,,,,,,,
293770,2022-10-05_11h00.14.634,vts_reward_expectancy,2022.2.4,MacIntel,59.99880002,Chrome,1440,900,,,,,,,,,,,,,,,,,,,,,,,132,Y,hexagon,1,0,,,2,,,,,,k,0.65,3,0,3,0,1,,,,,,,,,,,,,,,,,,,,,,,,,,,,,,,,,,
293770,2022-10-05_11h00.14.634,vts_reward_expectancy,2022.2.4,MacIntel,59.99880002,Chrome,1440,900,,,,,,,,,,,,,,,,,,,,,,,125,U,circle,1,0,,,2,,,,,,k,0.5955,4,0,4,0,1,,,,,,,,,,,,,,,,,,,,,,,,,,,,,,,,,,
293770,2022-10-05_11h00.14.634,vts_reward_expectancy,2022.2.4,MacIntel,59.99880002,Chrome,1440,900,,,,,,,,,,,,,,,,,,,,,,,160,W,triangle,1,0,,,2,,,,,,k,0.6127,5,0,5,0,1,,,,,,,,,,,,,,,,,,,,,,,,,,,,,,,,,,
293770,2022-10-05_11h00.14.634,vts_reward_expectancy,2022.2.4,MacIntel,59.99880002,Chrome,1440,900,,,,,,,,,,,,,,,,,,,,,,,181,F,star,1,0,,,2,,,,,,j,0.9491,6,0,6,0,1,,,,,,,,,,,,,,,,,,,,,,,,,,,,,,,,,,
293770,2022-10-05_11h00.14.634,vts_reward_expectancy,2022.2.4,MacIntel,59.99880002,Chrome,1440,900,,,,,,,,,,,,,,,,,,,,,,,139,B,hexagon,1,0,,,2,,,,,,j,0.8012,7,0,7,0,1,,,,,,,,,,,,,,,,,,,,,,,,,,,,,,,,,,
293770,2022-10-05_11h00.14.634,vts_reward_expectancy,2022.2.4,MacIntel,59.99880002,Chrome,1440,900,,,,,,,,,,,,,,,,,,,,,,,146,D,hexagon,1,0,,,2,,,,,,j,0.7833,8,0,8,0,1,,,,,,,,,,,,,,,,,,,,,,,,,,,,,,,,,,
293770,2022-10-05_11h00.14.634,vts_reward_expectancy,2022.2.4,MacIntel,59.99880002,Chrome,1440,900,,,,,,,,,,,,,,,,,,,,,,,167,H,circle,1,0,,,2,,,,,,j,0.612,9,0,9,0,1,,,,,,,,,,,,,,,,,,,,,,,,,,,,,,,,,,
293770,2022-10-05_11h00.14.634,vts_reward_expectancy,2022.2.4,MacIntel,59.99880002,Chrome,1440,900,,,,,0,630,,,,,,,,,,,,,,,,,146,D,star,1,0,,,3,,,,,,,,,,,,,-1,number,NA,d,0.5775,vtsPrac,0,0,0,0,1,,,,,,,,,,,,,,,,,,,,,,,
293770,2022-10-05_11h00.14.634,vts_reward_expectancy,2022.2.4,MacIntel,59.99880002,Chrome,1440,900,,,,,0,630,,,,,,,,,,,,,,,,,125,B,circle,1,0,,,3,,,,,,,,,,,,,repeat,number,numRpt,d,0.4801,vtsPrac,1,0,1,0,1,,,,,,,,,,,,,,,,,,,,,,,
293770,2022-10-05_11h00.14.634,vts_reward_expectancy,2022.2.4,MacIntel,59.99880002,Chrome,1440,900,,,,,0,630,,,,,,,,,,,,,,,,,139,U,star,1,0,,,3,,,,,,,,,,,,,repeat,number,numRpt,d,0.5512,vtsPrac,2,0,2,0,1,,,,,,,,,,,,,,,,,,,,,,,
293770,2022-10-05_11h00.14.634,vts_reward_expectancy,2022.2.4,MacIntel,59.99880002,Chrome,1440,900,,,,,0,630,,,,,,,,,,,,,,,,,160,W,circle,1,0,,,3,,,,,,,,,,,,,repeat,number,numRpt,f,0.7794,vtsPrac,3,0,3,0,1,,,,,,,,,,,,,,,,,,,,,,,
293770,2022-10-05_11h00.14.634,vts_reward_expectancy,2022.2.4,MacIntel,59.99880002,Chrome,1440,900,,,,,0,630,,,,,,,,,,,,,,,,,146,D,star,1,0,,,3,,,,,,,,,,,,,repeat,number,numRpt,d,0.6652,vtsPrac,4,0,4,0,1,,,,,,,,,,,,,,,,,,,,,,,
293770,2022-10-05_11h00.14.634,vts_reward_expectancy,2022.2.4,MacIntel,59.99880002,Chrome,1440,900,,,,,0,630,,,,,,,,,,,,,,,,,125,B,hexagon,1,0,,,3,,,,,,,,,,,,,repeat,number,numRpt,d,0.5354,vtsPrac,5,0,5,0,1,,,,,,,,,,,,,,,,,,,,,,,
293770,2022-10-05_11h00.14.634,vts_reward_expectancy,2022.2.4,MacIntel,59.99880002,Chrome,1440,900,,,,,0,630,,,,,,,,,,,,,,,,,139,U,star,0,0,,,3,,,,,,,,,,,,,repeat,number,NA,f,0.3799,vtsPrac,6,0,6,0,1,,,,,,,,,,,,,,,,,,,,,,,
293770,2022-10-05_11h00.14.634,vts_reward_expectancy,2022.2.4,MacIntel,59.99880002,Chrome,1440,900,,,,,0,630,,,,,,,,,,,,,,,,,160,W,hexagon,1,1,,,3,,,,,,,,,,,,,repeat,number,numRpt,f,0.6968,vtsPrac,7,0,7,0,1,,,,,,,,,,,,,,,,,,,,,,,
293770,2022-10-05_11h00.14.634,vts_reward_expectancy,2022.2.4,MacIntel,59.99880002,Chrome,1440,900,,,,,0,630,,,,,,,,,,,,,,,,,125,F,triangle,1,0,,,3,,,,,,,,,,,,,repeat,number,numRpt,d,0.4978,vtsPrac,8,0,8,0,1,,,,,,,,,,,,,,,,,,,,,,,
293770,2022-10-05_11h00.14.634,vts_reward_expectancy,2022.2.4,MacIntel,59.99880002,Chrome,1440,900,,,,,0,630,,,,,,,,,,,,,,,,,174,U,circle,1,0,,,3,,,,,,,,,,,,,repeat,number,numRpt,f,0.563,vtsPrac,9,0,9,0,1,,,,,,,,,,,,,,,,,,,,,,,
293770,2022-10-05_11h00.14.634,vts_reward_expectancy,2022.2.4,MacIntel,59.99880002,Chrome,1440,900,,,,,0,630,,,,,,,,,,,,,,,,,139,W,circle,1,0,,,3,,,,,,,,,,,,,repeat,number,numRpt,d,0.5639,vtsPrac,10,0,10,0,1,,,,,,,,,,,,,,,,,,,,,,,
293770,2022-10-05_11h00.14.634,vts_reward_expectancy,2022.2.4,MacIntel,59.99880002,Chrome,1440,900,,,,,0,630,,,,,,,,,,,,,,,,,167,B,hexagon,1,0,,,3,,,,,,,,,,,,,repeat,number,numRpt,f,0.5463,vtsPrac,11,0,11,0,1,,,,,,,,,,,,,,,,,,,,,,,
293770,2022-10-05_11h00.14.634,vts_reward_expectancy,2022.2.4,MacIntel,59.99880002,Chrome,1440,900,,,,,0,630,,,,,,,,,,,,,,,,,132,D,circle,1,0,,,3,,,,,,,,,,,,,repeat,number,numRpt,d,0.5814,vtsPrac,12,0,12,0,1,,,,,,,,,,,,,,,,,,,,,,,
293770,2022-10-05_11h00.14.634,vts_reward_expectancy,2022.2.4,MacIntel,59.99880002,Chrome,1440,900,,,,,0,630,,,,,,,,,,,,,,,,,181,H,hexagon,1,0,,,3,,,,,,,,,,,,,repeat,number,numRpt,f,0.4319,vtsPrac,13,0,13,0,1,,,,,,,,,,,,,,,,,,,,,,,
293770,2022-10-05_11h00.14.634,vts_reward_expectancy,2022.2.4,MacIntel,59.99880002,Chrome,1440,900,,,,,0,630,,,,,,,,,,,,,,,,,125,S,circle,1,0,,,3,,,,,,,,,,,,,repeat,number,numRpt,d,0.3635,vtsPrac,14,0,14,0,1,,,,,,,,,,,,,,,,,,,,,,,
293770,2022-10-05_11h00.14.634,vts_reward_expectancy,2022.2.4,MacIntel,59.99880002,Chrome,1440,900,,,,,0,630,,,,,,,,,,,,,,,,,160,Y,star,1,0,,,3,,,,,,,,,,,,,repeat,number,numRpt,f,0.4468,vtsPrac,15,0,15,0,1,,,,,,,,,,,,,,,,,,,,,,,
293770,2022-10-05_11h00.14.634,vts_reward_expectancy,2022.2.4,MacIntel,59.99880002,Chrome,1440,900,,,,,0,630,,,,,,,,,,,,,,,,,181,H,star,1,0,,,4,,,,,,,,,,,,,switch,letter,lettSwt,j,0.8855,vtsPrac,0,0,0,0,1,,,,,,,,,,,,,,,,,,,,,,,
293770,2022-10-05_11h00.14.634,vts_reward_expectancy,2022.2.4,MacIntel,59.99880002,Chrome,1440,900,,,,,0,630,,,,,,,,,,,,,,,,,125,U,hexagon,-1,0,,,4,,,,,,,,,,,,,switch,no_choice,NA,,,vtsPrac,1,0,1,0,1,,,,,,,,,,,,,,,,,,,,,,,
293770,2022-10-05_11h00.14.634,vts_reward_expectancy,2022.2.4,MacIntel,59.99880002,Chrome,1440,900,,,,,0,630,,,,,,,,,,,,,,,,,132,Y,star,1,0,,,4,,,,,,,,,,,,,switch,number,numSwt,d,1.5131,vtsPrac,2,0,2,0,1,,,,,,,,,,,,,,,,,,,,,,,
293770,2022-10-05_11h00.14.634,vts_reward_expectancy,2022.2.4,MacIntel,59.99880002,Chrome,1440,900,,,,,0,630,,,,,,,,,,,,,,,,,167,S,hexagon,1,0,,,4,,,,,,,,,,,,,switch,letter,lettSwt,k,0.7806,vtsPrac,3,0,3,0,1,,,,,,,,,,,,,,,,,,,,,,,
293770,2022-10-05_11h00.14.634,vts_reward_expectancy,2022.2.4,MacIntel,59.99880002,Chrome,1440,900,,,,,0,630,,,,,,,,,,,,,,,,,181,H,star,0,0,,,4,,,,,,,,,,,,,switch,number,NA,d,0.5468,vtsPrac,4,0,4,0,1,,,,,,,,,,,,,,,,,,,,,,,
293770,2022-10-05_11h00.14.634,vts_reward_expectancy,2022.2.4,MacIntel,59.99880002,Chrome,1440,900,,,,,0,630,,,,,,,,,,,,,,,,,125,U,hexagon,1,1,,,4,,,,,,,,,,,,,repeat,number,numRpt,d,0.8368,vtsPrac,5,0,5,0,1,,,,,,,,,,,,,,,,,,,,,,,
293770,2022-10-05_11h00.14.634,vts_reward_expectancy,2022.2.4,MacIntel,59.99880002,Chrome,1440,900,,,,,0,630,,,,,,,,,,,,,,,,,132,Y,hexagon,1,0,,,4,,,,,,,,,,,,,switch,letter,lettSwt,k,0.5478,vtsPrac,6,0,6,0,1,,,,,,,,,,,,,,,,,,,,,,,
293770,2022-10-05_11h00.14.634,vts_reward_expectancy,2022.2.4,MacIntel,59.99880002,Chrome,1440,900,,,,,0,630,,,,,,,,,,,,,,,,,167,S,triangle,1,0,,,4,,,,,,,,,,,,,switch,number,numSwt,f,0.4473,vtsPrac,7,0,7,0,1,,,,,,,,,,,,,,,,,,,,,,,
293770,2022-10-05_11h00.14.634,vts_reward_expectancy,2022.2.4,MacIntel,59.99880002,Chrome,1440,900,,,,,0,630,,,,,,,,,,,,,,,,,146,F,triangle,1,0,,,4,,,,,,,,,,,,,switch,letter,lettSwt,j,1.1334,vtsPrac,8,0,8,0,1,,,,,,,,,,,,,,,,,,,,,,,
293770,2022-10-05_11h00.14.634,vts_reward_expectancy,2022.2.4,MacIntel,59.99880002,Chrome,1440,900,,,,,0,630,,,,,,,,,,,,,,,,,181,Y,circle,1,0,,,4,,,,,,,,,,,,,switch,number,numSwt,f,0.5139,vtsPrac,9,0,9,0,1,,,,,,,,,,,,,,,,,,,,,,,
293770,2022-10-05_11h00.14.634,vts_reward_expectancy,2022.2.4,MacIntel,59.99880002,Chrome,1440,900,,,,,0,630,,,,,,,,,,,,,,,,,174,H,circle,1,0,,,4,,,,,,,,,,,,,switch,letter,lettSwt,j,0.7979,vtsPrac,10,0,10,0,1,,,,,,,,,,,,,,,,,,,,,,,
293770,2022-10-05_11h00.14.634,vts_reward_expectancy,2022.2.4,MacIntel,59.99880002,Chrome,1440,900,,,,,0,630,,,,,,,,,,,,,,,,,125,B,hexagon,1,0,,,4,,,,,,,,,,,,,repeat,letter,lettRpt,j,0.5287,vtsPrac,11,0,11,0,1,,,,,,,,,,,,,,,,,,,,,,,
293770,2022-10-05_11h00.14.634,vts_reward_expectancy,2022.2.4,MacIntel,59.99880002,Chrome,1440,900,,,,,0,630,,,,,,,,,,,,,,,,,181,Y,circle,1,0,,,4,,,,,,,,,,,,,switch,number,numSwt,f,0.697,vtsPrac,12,0,12,0,1,,,,,,,,,,,,,,,,,,,,,,,
293770,2022-10-05_11h00.14.634,vts_reward_expectancy,2022.2.4,MacIntel,59.99880002,Chrome,1440,900,,,,,0,630,,,,,,,,,,,,,,,,,146,W,triangle,1,0,,,4,,,,,,,,,,,,,switch,letter,lettSwt,k,0.716,vtsPrac,13,0,13,0,1,,,,,,,,,,,,,,,,,,,,,,,
293770,2022-10-05_11h00.14.634,vts_reward_expectancy,2022.2.4,MacIntel,59.99880002,Chrome,1440,900,,,,,0,630,,,,,,,,,,,,,,,,,167,B,star,1,0,,,4,,,,,,,,,,,,,switch,number,numSwt,f,0.58,vtsPrac,14,0,14,0,1,,,,,,,,,,,,,,,,,,,,,,,
293770,2022-10-05_11h00.14.634,vts_reward_expectancy,2022.2.4,MacIntel,59.99880002,Chrome,1440,900,,,,,0,630,,,,,,,,,,,,,,,,,174,S,circle,1,0,,,4,,,,,,,,,,,,,switch,letter,lettSwt,k,0.7138,vtsPrac,15,0,15,0,1,,,,,,,,,,,,,,,,,,,,,,,
293770,2022-10-05_11h00.14.634,vts_reward_expectancy,2022.2.4,MacIntel,59.99880002,Chrome,1440,900,,,,,0,630,,,,,,,,,,,,,,,,,125,H,hexagon,1,0,,,5,,,,,,,,,,,,,switch,number,numSwt,d,0.5495,vtsPrac,0,0,0,0,1,,,,,,,,,,,,,,,,,,,,,,,
293770,2022-10-05_11h00.14.634,vts_reward_expectancy,2022.2.4,MacIntel,59.99880002,Chrome,1440,900,,,,,0,630,,,,,,,,,,,,,,,,,146,B,circle,1,0,,,5,,,,,,,,,,,,,switch,letter,lettSwt,j,0.5484,vtsPrac,1,0,1,0,1,,,,,,,,,,,,,,,,,,,,,,,
293770,2022-10-05_11h00.14.634,vts_reward_expectancy,2022.2.4,MacIntel,59.99880002,Chrome,1440,900,,,,,0,630,,,,,,,,,,,,,,,,,160,W,hexagon,1,0,,,5,,,,,,,,,,,,,switch,number,numSwt,f,0.5967,vtsPrac,2,0,2,0,1,,,,,,,,,,,,,,,,,,,,,,,
293770,2022-10-05_11h00.14.634,vts_reward_expectancy,2022.2.4,MacIntel,59.99880002,Chrome,1440,900,,,,,0,630,,,,,,,,,,,,,,,,,132,F,circle,1,0,,,5,,,,,,,,,,,,,switch,letter,lettSwt,j,0.8663,vtsPrac,3,0,3,0,1,,,,,,,,,,,,,,,,,,,,,,,
293770,2022-10-05_11h00.14.634,vts_reward_expectancy,2022.2.4,MacIntel,59.99880002,Chrome,1440,900,,,,,0,630,,,,,,,,,,,,,,,,,125,H,hexagon,1,0,,,5,,,,,,,,,,,,,repeat,letter,lettRpt,j,0.654,vtsPrac,4,0,4,0,1,,,,,,,,,,,,,,,,,,,,,,,
293770,2022-10-05_11h00.14.634,vts_reward_expectancy,2022.2.4,MacIntel,59.99880002,Chrome,1440,900,,,,,0,630,,,,,,,,,,,,,,,,,146,B,circle,1,0,,,5,,,,,,,,,,,,,switch,number,numSwt,d,0.7996,vtsPrac,5,0,5,0,1,,,,,,,,,,,,,,,,,,,,,,,
293770,2022-10-05_11h00.14.634,vts_reward_expectancy,2022.2.4,MacIntel,59.99880002,Chrome,1440,900,,,,,0,630,,,,,,,,,,,,,,,,,160,W,circle,1,0,,,5,,,,,,,,,,,,,repeat,number,numRpt,f,0.7299,vtsPrac,6,0,6,0,1,,,,,,,,,,,,,,,,,,,,,,,
293770,2022-10-05_11h00.14.634,vts_reward_expectancy,2022.2.4,MacIntel,59.99880002,Chrome,1440,900,,,,,0,630,,,,,,,,,,,,,,,,,132,F,star,1,0,,,5,,,,,,,,,,,,,switch,letter,lettSwt,j,0.7053,vtsPrac,7,0,7,0,1,,,,,,,,,,,,,,,,,,,,,,,
293770,2022-10-05_11h00.14.634,vts_reward_expectancy,2022.2.4,MacIntel,59.99880002,Chrome,1440,900,,,,,0,630,,,,,,,,,,,,,,,,,132,D,circle,1,0,,,5,,,,,,,,,,,,,switch,number,numSwt,d,0.706,vtsPrac,8,0,8,0,1,,,,,,,,,,,,,,,,,,,,,,,
293770,2022-10-05_11h00.14.634,vts_reward_expectancy,2022.2.4,MacIntel,59.99880002,Chrome,1440,900,,,,,0,630,,,,,,,,,,,,,,,,,146,Y,hexagon,1,0,,,5,,,,,,,,,,,,,switch,letter,lettSwt,k,0.7685,vtsPrac,9,0,9,0,1,,,,,,,,,,,,,,,,,,,,,,,
293770,2022-10-05_11h00.14.634,vts_reward_expectancy,2022.2.4,MacIntel,59.99880002,Chrome,1440,900,,,,,0,630,,,,,,,,,,,,,,,,,174,S,hexagon,1,0,,,5,,,,,,,,,,,,,switch,number,numSwt,f,0.8805,vtsPrac,10,0,10,0,1,,,,,,,,,,,,,,,,,,,,,,,
293770,2022-10-05_11h00.14.634,vts_reward_expectancy,2022.2.4,MacIntel,59.99880002,Chrome,1440,900,,,,,0,630,,,,,,,,,,,,,,,,,139,B,star,1,0,,,5,,,,,,,,,,,,,switch,letter,lettSwt,j,0.5809,vtsPrac,11,0,11,0,1,,,,,,,,,,,,,,,,,,,,,,,
293770,2022-10-05_11h00.14.634,vts_reward_expectancy,2022.2.4,MacIntel,59.99880002,Chrome,1440,900,,,,,0,630,,,,,,,,,,,,,,,,,174,F,star,1,0,,,5,,,,,,,,,,,,,switch,number,numSwt,f,0.4978,vtsPrac,12,0,12,0,1,,,,,,,,,,,,,,,,,,,,,,,
293770,2022-10-05_11h00.14.634,vts_reward_expectancy,2022.2.4,MacIntel,59.99880002,Chrome,1440,900,,,,,0,630,,,,,,,,,,,,,,,,,125,B,triangle,1,0,,,5,,,,,,,,,,,,,repeat,number,numRpt,d,0.4345,vtsPrac,13,0,13,0,1,,,,,,,,,,,,,,,,,,,,,,,
293770,2022-10-05_11h00.14.634,vts_reward_expectancy,2022.2.4,MacIntel,59.99880002,Chrome,1440,900,,,,,0,630,,,,,,,,,,,,,,,,,160,D,triangle,1,0,,,5,,,,,,,,,,,,,repeat,number,numRpt,f,0.7807,vtsPrac,14,0,14,0,1,,,,,,,,,,,,,,,,,,,,,,,
293770,2022-10-05_11h00.14.634,vts_reward_expectancy,2022.2.4,MacIntel,59.99880002,Chrome,1440,900,,,,,0,630,,,,,,,,,,,,,,,,,181,U,circle,1,0,,,5,,,,,,,,,,,,,switch,letter,lettSwt,k,0.661,vtsPrac,15,0,15,0,1,,,,,,,,,,,,,,,,,,,,,,,
293770,2022-10-05_11h00.14.634,vts_reward_expectancy,2022.2.4,MacIntel,59.99880002,Chrome,1440,900,,,,,,,,,,,,,,,,,,,,,,,,,,,,,,,,,,,,,,,,,,,,,,,,,,,,,,,,,,,,,,,,,,,,,,,,,,,,
293770,2022-10-05_11h00.14.634,vts_reward_expectancy,2022.2.4,MacIntel,59.99880002,Chrome,1440,900,,,,,,,,,,,,,,,,,,,,,,,,,,,,,,,,,,,,,,,,,,,,,,,,,,,,,,,,,,,,,,,,,,,,,,,,,,,,
293770,2022-10-05_11h00.14.634,vts_reward_expectancy,2022.2.4,MacIntel,59.99880002,Chrome,1440,900,,,,,0,630,,,,,,,,,,,,,,,,,125,W,hexagon,1,0,,,,,,,,,,,,,,,,switch,number,numSwt,d,0.7132,noRew,,,,,,0,0,0,0,0,1,,,,,,,,,,,,,,,,,
293770,2022-10-05_11h00.14.634,vts_reward_expectancy,2022.2.4,MacIntel,59.99880002,Chrome,1440,900,,,,,0,630,,,,,,,,,,,,,,,,,139,D,circle,1,0,,,,,,,,,,,,,,,,repeat,number,numRpt,d,1.032,noRew,,,,,,0,1,0,1,0,1,,,,,,,,,,,,,,,,,
293770,2022-10-05_11h00.14.634,vts_reward_expectancy,2022.2.4,MacIntel,59.99880002,Chrome,1440,900,,,,,0,630,,,,,,,,,,,,,,,,,132,F,hexagon,1,0,,,,,,,,,,,,,,,,switch,letter,lettSwt,j,0.9642,noRew,,,,,,0,2,0,2,0,1,,,,,,,,,,,,,,,,,
293770,2022-10-05_11h00.14.634,vts_reward_expectancy,2022.2.4,MacIntel,59.99880002,Chrome,1440,900,,,,,0,630,,,,,,,,,,,,,,,,,146,H,circle,1,0,,,,,,,,,,,,,,,,switch,number,numSwt,d,0.6994,noRew,,,,,,0,3,0,3,0,1,,,,,,,,,,,,,,,,,
293770,2022-10-05_11h00.14.634,vts_reward_expectancy,2022.2.4,MacIntel,59.99880002,Chrome,1440,900,,,,,0,630,,,,,,,,,,,,,,,,,125,W,circle,1,0,,,,,,,,,,,,,,,,switch,letter,lettSwt,k,0.7685,noRew,,,,,,0,4,0,4,0,1,,,,,,,,,,,,,,,,,
293770,2022-10-05_11h00.14.634,vts_reward_expectancy,2022.2.4,MacIntel,59.99880002,Chrome,1440,900,,,,,0,630,,,,,,,,,,,,,,,,,139,D,triangle,1,0,,,,,,,,,,,,,,,,repeat,letter,lettRpt,j,0.6824,noRew,,,,,,0,5,0,5,0,1,,,,,,,,,,,,,,,,,
293770,2022-10-05_11h00.14.634,vts_reward_expectancy,2022.2.4,MacIntel,59.99880002,Chrome,1440,900,,,,,0,630,,,,,,,,,,,,,,,,,132,F,triangle,1,0,,,,,,,,,,,,,,,,repeat,letter,lettRpt,j,0.7814,noRew,,,,,,0,6,0,6,0,1,,,,,,,,,,,,,,,,,
293770,2022-10-05_11h00.14.634,vts_reward_expectancy,2022.2.4,MacIntel,59.99880002,Chrome,1440,900,,,,,0,630,,,,,,,,,,,,,,,,,146,H,star,1,0,,,,,,,,,,,,,,,,switch,number,numSwt,d,0.9681,noRew,,,,,,0,7,0,7,0,1,,,,,,,,,,,,,,,,,
293770,2022-10-05_11h00.14.634,vts_reward_expectancy,2022.2.4,MacIntel,59.99880002,Chrome,1440,900,,,,,0,630,,,,,,,,,,,,,,,,,174,B,circle,1,0,,,,,,,,,,,,,,,,switch,letter,lettSwt,j,0.7485,noRew,,,,,,0,8,0,8,0,1,,,,,,,,,,,,,,,,,
293770,2022-10-05_11h00.14.634,vts_reward_expectancy,2022.2.4,MacIntel,59.99880002,Chrome,1440,900,,,,,0,630,,,,,,,,,,,,,,,,,181,U,hexagon,0,0,,,,,,,,,,,,,,,,switch,number,NA,d,0.6637,noRew,,,,,,0,9,0,9,0,1,,,,,,,,,,,,,,,,,
293770,2022-10-05_11h00.14.634,vts_reward_expectancy,2022.2.4,MacIntel,59.99880002,Chrome,1440,900,,,,,0,630,,,,,,,,,,,,,,,,,167,F,triangle,1,1,,,,,,,,,,,,,,,,repeat,number,numRpt,f,0.9475,noRew,,,,,,0,10,0,10,0,1,,,,,,,,,,,,,,,,,
293770,2022-10-05_11h00.14.634,vts_reward_expectancy,2022.2.4,MacIntel,59.99880002,Chrome,1440,900,,,,,0,630,,,,,,,,,,,,,,,,,160,S,star,1,0,,,,,,,,,,,,,,,,switch,letter,lettSwt,k,0.6976,noRew,,,,,,0,11,0,11,0,1,,,,,,,,,,,,,,,,,
293770,2022-10-05_11h00.14.634,vts_reward_expectancy,2022.2.4,MacIntel,59.99880002,Chrome,1440,900,,,,,0,630,,,,,,,,,,,,,,,,,132,U,hexagon,1,0,,,,,,,,,,,,,,,,switch,number,numSwt,d,0.6851,noRew,,,,,,0,12,0,12,0,1,,,,,,,,,,,,,,,,,
293770,2022-10-05_11h00.14.634,vts_reward_expectancy,2022.2.4,MacIntel,59.99880002,Chrome,1440,900,,,,,0,630,,,,,,,,,,,,,,,,,160,F,star,1,0,,,,,,,,,,,,,,,,repeat,number,numRpt,f,0.7146,noRew,,,,,,0,13,0,13,0,1,,,,,,,,,,,,,,,,,
293770,2022-10-05_11h00.14.634,vts_reward_expectancy,2022.2.4,MacIntel,59.99880002,Chrome,1440,900,,,,,0,630,,,,,,,,,,,,,,,,,139,H,triangle,1,0,,,,,,,,,,,,,,,,switch,letter,lettSwt,j,0.7297,noRew,,,,,,0,14,0,14,0,1,,,,,,,,,,,,,,,,,
293770,2022-10-05_11h00.14.634,vts_reward_expectancy,2022.2.4,MacIntel,59.99880002,Chrome,1440,900,,,,,0,630,,,,,,,,,,,,,,,,,167,S,circle,1,0,,,,,,,,,,,,,,,,repeat,letter,lettRpt,k,0.8656,noRew,,,,,,0,15,0,15,0,1,,,,,,,,,,,,,,,,,
293770,2022-10-05_11h00.14.634,vts_reward_expectancy,2022.2.4,MacIntel,59.99880002,Chrome,1440,900,,,,,0,630,,,,,,,,,,,,,,,,,125,S,circle,1,0,,,,,,,,,,,,,,,,switch,number,numSwt,d,0.6154,noRew,,,,,,0,16,0,16,0,1,,,,,,,,,,,,,,,,,
293770,2022-10-05_11h00.14.634,vts_reward_expectancy,2022.2.4,MacIntel,59.99880002,Chrome,1440,900,,,,,0,630,,,,,,,,,,,,,,,,,139,F,triangle,1,0,,,,,,,,,,,,,,,,repeat,number,numRpt,d,0.7294,noRew,,,,,,0,17,0,17,0,1,,,,,,,,,,,,,,,,,
293770,2022-10-05_11h00.14.634,vts_reward_expectancy,2022.2.4,MacIntel,59.99880002,Chrome,1440,900,,,,,0,630,,,,,,,,,,,,,,,,,160,D,star,1,0,,,,,,,,,,,,,,,,switch,letter,lettSwt,j,0.8133,noRew,,,,,,0,18,0,18,0,1,,,,,,,,,,,,,,,,,
293770,2022-10-05_11h00.14.634,vts_reward_expectancy,2022.2.4,MacIntel,59.99880002,Chrome,1440,900,,,,,0,630,,,,,,,,,,,,,,,,,181,Y,hexagon,1,0,,,,,,,,,,,,,,,,switch,number,numSwt,f,0.8874,noRew,,,,,,0,19,0,19,0,1,,,,,,,,,,,,,,,,,
293770,2022-10-05_11h00.14.634,vts_reward_expectancy,2022.2.4,MacIntel,59.99880002,Chrome,1440,900,,,,,0,630,,,,,,,,,,,,,,,,,167,W,hexagon,1,0,,,,,,,,,,,,,,,,switch,letter,lettSwt,k,0.6651,noRew,,,,,,0,20,0,20,0,1,,,,,,,,,,,,,,,,,
293770,2022-10-05_11h00.14.634,vts_reward_expectancy,2022.2.4,MacIntel,59.99880002,Chrome,1440,900,,,,,0,630,,,,,,,,,,,,,,,,,181,S,triangle,1,0,,,,,,,,,,,,,,,,repeat,letter,lettRpt,k,0.7354,noRew,,,,,,0,21,0,21,0,1,,,,,,,,,,,,,,,,,
293770,2022-10-05_11h00.14.634,vts_reward_expectancy,2022.2.4,MacIntel,59.99880002,Chrome,1440,900,,,,,0,630,,,,,,,,,,,,,,,,,160,Y,circle,1,0,,,,,,,,,,,,,,,,repeat,letter,lettRpt,k,0.7468,noRew,,,,,,0,22,0,22,0,1,,,,,,,,,,,,,,,,,
293770,2022-10-05_11h00.14.634,vts_reward_expectancy,2022.2.4,MacIntel,59.99880002,Chrome,1440,900,,,,,0,630,,,,,,,,,,,,,,,,,125,H,star,1,0,,,,,,,,,,,,,,,,switch,number,numSwt,d,0.83,noRew,,,,,,0,23,0,23,0,1,,,,,,,,,,,,,,,,,
293770,2022-10-05_11h00.14.634,vts_reward_expectancy,2022.2.4,MacIntel,59.99880002,Chrome,1440,900,,,,,0,630,,,,,,,,,,,,,,,,,167,Y,hexagon,1,0,,,,,,,,,,,,,,,,repeat,number,numRpt,f,0.6472,noRew,,,,,,0,24,0,24,0,1,,,,,,,,,,,,,,,,,
293770,2022-10-05_11h00.14.634,vts_reward_expectancy,2022.2.4,MacIntel,59.99880002,Chrome,1440,900,,,,,0,630,,,,,,,,,,,,,,,,,132,H,triangle,1,0,,,,,,,,,,,,,,,,repeat,number,numRpt,d,0.5817,noRew,,,,,,0,25,0,25,0,1,,,,,,,,,,,,,,,,,
293770,2022-10-05_11h00.14.634,vts_reward_expectancy,2022.2.4,MacIntel,59.99880002,Chrome,1440,900,,,,,0,630,,,,,,,,,,,,,,,,,146,F,star,1,0,,,,,,,,,,,,,,,,switch,letter,lettSwt,j,0.62,noRew,,,,,,0,26,0,26,0,1,,,,,,,,,,,,,,,,,
293770,2022-10-05_11h00.14.634,vts_reward_expectancy,2022.2.4,MacIntel,59.99880002,Chrome,1440,900,,,,,0,630,,,,,,,,,,,,,,,,,139,S,circle,1,0,,,,,,,,,,,,,,,,switch,number,numSwt,d,0.897,noRew,,,,,,0,27,0,27,0,1,,,,,,,,,,,,,,,,,
293770,2022-10-05_11h00.14.634,vts_reward_expectancy,2022.2.4,MacIntel,59.99880002,Chrome,1440,900,,,,,0,630,,,,,,,,,,,,,,,,,139,S,hexagon,1,0,,,,,,,,,,,,,,,,repeat,number,numRpt,d,0.7365,noRew,,,,,,0,28,0,28,0,1,,,,,,,,,,,,,,,,,
293770,2022-10-05_11h00.14.634,vts_reward_expectancy,2022.2.4,MacIntel,59.99880002,Chrome,1440,900,,,,,0,630,,,,,,,,,,,,,,,,,181,B,circle,1,0,,,,,,,,,,,,,,,,repeat,number,numRpt,f,1.2288,noRew,,,,,,0,29,0,29,0,1,,,,,,,,,,,,,,,,,
293770,2022-10-05_11h00.14.634,vts_reward_expectancy,2022.2.4,MacIntel,59.99880002,Chrome,1440,900,,,,,0,630,,,,,,,,,,,,,,,,,146,Y,star,1,0,,,,,,,,,,,,,,,,switch,letter,lettSwt,k,0.748,noRew,,,,,,0,30,0,30,0,1,,,,,,,,,,,,,,,,,
293770,2022-10-05_11h00.14.634,vts_reward_expectancy,2022.2.4,MacIntel,59.99880002,Chrome,1440,900,,,,,0,630,,,,,,,,,,,,,,,,,160,D,hexagon,1,0,,,,,,,,,,,,,,,,repeat,letter,lettRpt,j,0.8805,noRew,,,,,,0,31,0,31,0,1,,,,,,,,,,,,,,,,,
293770,2022-10-05_11h00.14.634,vts_reward_expectancy,2022.2.4,MacIntel,59.99880002,Chrome,1440,900,,,,,0,630,,,,,,,,,,,,,,,,,139,U,circle,1,0,,,,,,,,,,,,,,,,switch,number,numSwt,d,1.6651,noRew,,,,,,0,32,0,32,0,1,,,,,,,,,,,,,,,,,
293770,2022-10-05_11h00.14.634,vts_reward_expectancy,2022.2.4,MacIntel,59.99880002,Chrome,1440,900,,,,,0,630,,,,,,,,,,,,,,,,,181,H,star,1,0,,,,,,,,,,,,,,,,switch,letter,lettSwt,j,1.0828,noRew,,,,,,0,33,0,33,0,1,,,,,,,,,,,,,,,,,
293770,2022-10-05_11h00.14.634,vts_reward_expectancy,2022.2.4,MacIntel,59.99880002,Chrome,1440,900,,,,,0,630,,,,,,,,,,,,,,,,,132,B,triangle,1,0,,,,,,,,,,,,,,,,switch,number,numSwt,d,1.1123,noRew,,,,,,0,34,0,34,0,1,,,,,,,,,,,,,,,,,
293770,2022-10-05_11h00.14.634,vts_reward_expectancy,2022.2.4,MacIntel,59.99880002,Chrome,1440,900,,,,,0,630,,,,,,,,,,,,,,,,,125,D,hexagon,1,0,,,,,,,,,,,,,,,,repeat,number,numRpt,d,0.6305,noRew,,,,,,0,35,0,35,0,1,,,,,,,,,,,,,,,,,
293770,2022-10-05_11h00.14.634,vts_reward_expectancy,2022.2.4,MacIntel,59.99880002,Chrome,1440,900,,,,,0,630,,,,,,,,,,,,,,,,,160,S,triangle,1,0,,,,,,,,,,,,,,,,switch,letter,lettSwt,k,0.797,noRew,,,,,,0,36,0,36,0,1,,,,,,,,,,,,,,,,,
293770,2022-10-05_11h00.14.634,vts_reward_expectancy,2022.2.4,MacIntel,59.99880002,Chrome,1440,900,,,,,0,630,,,,,,,,,,,,,,,,,174,U,star,1,0,,,,,,,,,,,,,,,,repeat,letter,lettRpt,k,0.7307,noRew,,,,,,0,37,0,37,0,1,,,,,,,,,,,,,,,,,
293770,2022-10-05_11h00.14.634,vts_reward_expectancy,2022.2.4,MacIntel,59.99880002,Chrome,1440,900,,,,,0,630,,,,,,,,,,,,,,,,,125,B,star,1,0,,,,,,,,,,,,,,,,switch,number,numSwt,d,0.5647,noRew,,,,,,0,38,0,38,0,1,,,,,,,,,,,,,,,,,
293770,2022-10-05_11h00.14.634,vts_reward_expectancy,2022.2.4,MacIntel,59.99880002,Chrome,1440,900,,,,,0,630,,,,,,,,,,,,,,,,,167,H,hexagon,1,0,,,,,,,,,,,,,,,,switch,letter,lettSwt,j,2.0802,noRew,,,,,,0,39,0,39,0,1,,,,,,,,,,,,,,,,,
293770,2022-10-05_11h00.14.634,vts_reward_expectancy,2022.2.4,MacIntel,59.99880002,Chrome,1440,900,,,,,0,630,,,,,,,,,,,,,,,,,132,B,circle,1,0,,,,,,,,,,,,,,,,switch,number,numSwt,d,0.6304,noRew,,,,,,0,40,0,40,0,1,,,,,,,,,,,,,,,,,
293770,2022-10-05_11h00.14.634,vts_reward_expectancy,2022.2.4,MacIntel,59.99880002,Chrome,1440,900,,,,,0,630,,,,,,,,,,,,,,,,,125,W,triangle,1,0,,,,,,,,,,,,,,,,repeat,number,numRpt,d,0.898,noRew,,,,,,0,41,0,41,0,1,,,,,,,,,,,,,,,,,
293770,2022-10-05_11h00.14.634,vts_reward_expectancy,2022.2.4,MacIntel,59.99880002,Chrome,1440,900,,,,,0,630,,,,,,,,,,,,,,,,,181,F,hexagon,1,0,,,,,,,,,,,,,,,,switch,letter,lettSwt,j,0.8473,noRew,,,,,,0,42,0,42,0,1,,,,,,,,,,,,,,,,,
293770,2022-10-05_11h00.14.634,vts_reward_expectancy,2022.2.4,MacIntel,59.99880002,Chrome,1440,900,,,,,0,630,,,,,,,,,,,,,,,,,146,H,circle,1,0,,,,,,,,,,,,,,,,repeat,letter,lettRpt,j,1.2987,noRew,,,,,,0,43,0,43,0,1,,,,,,,,,,,,,,,,,
293770,2022-10-05_11h00.14.634,vts_reward_expectancy,2022.2.4,MacIntel,59.99880002,Chrome,1440,900,,,,,0,630,,,,,,,,,,,,,,,,,181,B,circle,1,0,,,,,,,,,,,,,,,,switch,number,numSwt,f,0.9157,noRew,,,,,,0,44,0,44,0,1,,,,,,,,,,,,,,,,,
293770,2022-10-05_11h00.14.634,vts_reward_expectancy,2022.2.4,MacIntel,59.99880002,Chrome,1440,900,,,,,0,630,,,,,,,,,,,,,,,,,125,W,hexagon,1,0,,,,,,,,,,,,,,,,switch,letter,lettSwt,k,0.6817,noRew,,,,,,0,45,0,45,0,1,,,,,,,,,,,,,,,,,
293770,2022-10-05_11h00.14.634,vts_reward_expectancy,2022.2.4,MacIntel,59.99880002,Chrome,1440,900,,,,,0,630,,,,,,,,,,,,,,,,,167,Y,hexagon,1,0,,,,,,,,,,,,,,,,repeat,letter,lettRpt,k,0.7961,noRew,,,,,,0,46,0,46,0,1,,,,,,,,,,,,,,,,,
293770,2022-10-05_11h00.14.634,vts_reward_expectancy,2022.2.4,MacIntel,59.99880002,Chrome,1440,900,,,,,0,630,,,,,,,,,,,,,,,,,160,S,triangle,1,0,,,,,,,,,,,,,,,,switch,number,numSwt,f,0.9183,noRew,,,,,,0,47,0,47,0,1,,,,,,,,,,,,,,,,,
293770,2022-10-05_11h00.14.634,vts_reward_expectancy,2022.2.4,MacIntel,59.99880002,Chrome,1440,900,,,,,0,630,,,,,,,,,,,,,,,,,132,W,star,1,0,,,,,,,,,,,,,,,,switch,letter,lettSwt,k,0.683,noRew,,,,,,0,48,0,48,0,1,,,,,,,,,,,,,,,,,
293770,2022-10-05_11h00.14.634,vts_reward_expectancy,2022.2.4,MacIntel,59.99880002,Chrome,1440,900,,,,,0,630,,,,,,,,,,,,,,,,,167,U,triangle,1,0,,,,,,,,,,,,,,,,switch,number,numSwt,f,0.8466,noRew,,,,,,0,49,0,49,0,1,,,,,,,,,,,,,,,,,
293770,2022-10-05_11h00.14.634,vts_reward_expectancy,2022.2.4,MacIntel,59.99880002,Chrome,1440,900,,,,,0,630,,,,,,,,,,,,,,,,,146,H,star,1,0,,,,,,,,,,,,,,,,repeat,number,numRpt,d,0.6624,noRew,,,,,,0,50,0,50,0,1,,,,,,,,,,,,,,,,,
293770,2022-10-05_11h00.14.634,vts_reward_expectancy,2022.2.4,MacIntel,59.99880002,Chrome,1440,900,,,,,0,630,,,,,,,,,,,,,,,,,125,D,circle,1,0,,,,,,,,,,,,,,,,switch,letter,lettSwt,j,0.5964,noRew,,,,,,0,51,0,51,0,1,,,,,,,,,,,,,,,,,
293770,2022-10-05_11h00.14.634,vts_reward_expectancy,2022.2.4,MacIntel,59.99880002,Chrome,1440,900,,,,,0,630,,,,,,,,,,,,,,,,,139,F,star,1,0,,,,,,,,,,,,,,,,repeat,letter,lettRpt,j,0.9642,noRew,,,,,,0,52,0,52,0,1,,,,,,,,,,,,,,,,,
293770,2022-10-05_11h00.14.634,vts_reward_expectancy,2022.2.4,MacIntel,59.99880002,Chrome,1440,900,,,,,0,630,,,,,,,,,,,,,,,,,181,H,triangle,1,0,,,,,,,,,,,,,,,,switch,number,numSwt,f,0.771,noRew,,,,,,0,53,0,53,0,1,,,,,,,,,,,,,,,,,
293770,2022-10-05_11h00.14.634,vts_reward_expectancy,2022.2.4,MacIntel,59.99880002,Chrome,1440,900,,,,,0,630,,,,,,,,,,,,,,,,,132,B,hexagon,1,0,,,,,,,,,,,,,,,,switch,letter,lettSwt,j,0.6031,noRew,,,,,,0,54,0,54,0,1,,,,,,,,,,,,,,,,,
293770,2022-10-05_11h00.14.634,vts_reward_expectancy,2022.2.4,MacIntel,59.99880002,Chrome,1440,900,,,,,0,630,,,,,,,,,,,,,,,,,174,S,star,1,0,,,,,,,,,,,,,,,,repeat,letter,lettRpt,k,0.6355,noRew,,,,,,0,55,0,55,0,1,,,,,,,,,,,,,,,,,
293770,2022-10-05_11h00.14.634,vts_reward_expectancy,2022.2.4,MacIntel,59.99880002,Chrome,1440,900,,,,,0,630,,,,,,,,,,,,,,,,,146,F,triangle,1,0,,,,,,,,,,,,,,,,switch,number,numSwt,d,1.4146,noRew,,,,,,0,56,0,56,0,1,,,,,,,,,,,,,,,,,
293770,2022-10-05_11h00.14.634,vts_reward_expectancy,2022.2.4,MacIntel,59.99880002,Chrome,1440,900,,,,,0,630,,,,,,,,,,,,,,,,,139,U,star,1,0,,,,,,,,,,,,,,,,repeat,number,numRpt,d,0.6962,noRew,,,,,,0,57,0,57,0,1,,,,,,,,,,,,,,,,,
293770,2022-10-05_11h00.14.634,vts_reward_expectancy,2022.2.4,MacIntel,59.99880002,Chrome,1440,900,,,,,0,630,,,,,,,,,,,,,,,,,160,B,hexagon,1,0,,,,,,,,,,,,,,,,switch,letter,lettSwt,j,0.9437,noRew,,,,,,0,58,0,58,0,1,,,,,,,,,,,,,,,,,
293770,2022-10-05_11h00.14.634,vts_reward_expectancy,2022.2.4,MacIntel,59.99880002,Chrome,1440,900,,,,,0,630,,,,,,,,,,,,,,,,,125,Y,star,1,0,,,,,,,,,,,,,,,,switch,number,numSwt,d,0.8802,noRew,,,,,,0,59,0,59,0,1,,,,,,,,,,,,,,,,,
293770,2022-10-05_11h00.14.634,vts_reward_expectancy,2022.2.4,MacIntel,59.99880002,Chrome,1440,900,,,,,0,630,,,,,,,,,,,,,,,,,167,F,circle,1,0,,,,,,,,,,,,,,,,repeat,number,numRpt,f,1.0295,noRew,,,,,,0,60,0,60,0,1,,,,,,,,,,,,,,,,,
293770,2022-10-05_11h00.14.634,vts_reward_expectancy,2022.2.4,MacIntel,59.99880002,Chrome,1440,900,,,,,0,630,,,,,,,,,,,,,,,,,160,B,hexagon,1,0,,,,,,,,,,,,,,,,repeat,number,numRpt,f,0.7796,noRew,,,,,,0,61,0,61,0,1,,,,,,,,,,,,,,,,,
293770,2022-10-05_11h00.14.634,vts_reward_expectancy,2022.2.4,MacIntel,59.99880002,Chrome,1440,900,,,,,0,630,,,,,,,,,,,,,,,,,146,D,star,1,0,,,,,,,,,,,,,,,,repeat,number,numRpt,d,0.7147,noRew,,,,,,0,62,0,62,0,1,,,,,,,,,,,,,,,,,
293770,2022-10-05_11h00.14.634,vts_reward_expectancy,2022.2.4,MacIntel,59.99880002,Chrome,1440,900,,,,,0,630,,,,,,,,,,,,,,,,,139,S,circle,1,0,,,,,,,,,,,,,,,,repeat,number,numRpt,d,0.6802,noRew,,,,,,0,63,0,63,0,1,,,,,,,,,,,,,,,,,
293770,2022-10-05_11h00.14.634,vts_reward_expectancy,2022.2.4,MacIntel,59.99880002,Chrome,1440,900,,,,,,,,,,,,,,,,,,,,,,,,,,,,,,,,,,,,,,,,,,,,,,,,,,,,,,,,,,,,,,,,,,,,,,,,,,,,
293770,2022-10-05_11h00.14.634,vts_reward_expectancy,2022.2.4,MacIntel,59.99880002,Chrome,1440,900,,,,,0,630,,,,,,,,,,,,,,,,,160,F,circle,0,0,,,,,,,,,,,,,,,,repeat,number,NA,d,0.6346,noRew,,,,,,0,,,,,,space,7.8364,high,0,0,0,0,1,,,,,,,,,
293770,2022-10-05_11h00.14.634,vts_reward_expectancy,2022.2.4,MacIntel,59.99880002,Chrome,1440,900,,,,,10,640,,,,,,,,,,,,,,,,,167,H,star,1,1,,,,,,,,,,,,,,,,repeat,number,numRpt,f,0.6777,Hi,,,,,,0,,,,,,,,high,1,0,1,0,1,,,,,,,,,
293770,2022-10-05_11h00.14.634,vts_reward_expectancy,2022.2.4,MacIntel,59.99880002,Chrome,1440,900,,,,,1,641,,,,,,,,,,,,,,,,,174,W,circle,1,0,,,,,,,,,,,,,,,,repeat,number,numRpt,f,0.7637,Lo,,,,,,0,,,,,,,,high,2,0,2,0,1,,,,,,,,,
293770,2022-10-05_11h00.14.634,vts_reward_expectancy,2022.2.4,MacIntel,59.99880002,Chrome,1440,900,,,,,0,641,,,,,,,,,,,,,,,,,125,U,star,0,0,,,,,,,,,,,,,,,,repeat,number,NA,f,0.6644,Lo,,,,,,0,,,,,,,,high,3,0,3,0,1,,,,,,,,,
293770,2022-10-05_11h00.14.634,vts_reward_expectancy,2022.2.4,MacIntel,59.99880002,Chrome,1440,900,,,,,10,651,,,,,,,,,,,,,,,,,139,Y,star,1,1,,,,,,,,,,,,,,,,switch,letter,lettSwt,k,0.456,Hi,,,,,,0,,,,,,,,high,4,0,4,0,1,,,,,,,,,
293770,2022-10-05_11h00.14.634,vts_reward_expectancy,2022.2.4,MacIntel,59.99880002,Chrome,1440,900,,,,,1,652,,,,,,,,,,,,,,,,,132,D,circle,1,0,,,,,,,,,,,,,,,,repeat,letter,lettRpt,j,1.2808,Lo,,,,,,0,,,,,,,,high,5,0,5,0,1,,,,,,,,,
293770,2022-10-05_11h00.14.634,vts_reward_expectancy,2022.2.4,MacIntel,59.99880002,Chrome,1440,900,,,,,1,653,,,,,,,,,,,,,,,,,181,B,star,1,0,,,,,,,,,,,,,,,,repeat,letter,lettRpt,j,0.6035,Hi,,,,,,0,,,,,,,,high,6,0,6,0,1,,,,,,,,,
293770,2022-10-05_11h00.14.634,vts_reward_expectancy,2022.2.4,MacIntel,59.99880002,Chrome,1440,900,,,,,1,654,,,,,,,,,,,,,,,,,146,S,circle,1,0,,,,,,,,,,,,,,,,switch,number,numSwt,d,0.8706,Lo,,,,,,0,,,,,,,,high,7,0,7,0,1,,,,,,,,,
293770,2022-10-05_11h00.14.634,vts_reward_expectancy,2022.2.4,MacIntel,59.99880002,Chrome,1440,900,,,,,1,655,,,,,,,,,,,,,,,,,160,F,circle,1,0,,,,,,,,,,,,,,,,switch,letter,lettSwt,j,0.8772,Lo,,,,,,0,,,,,,,,high,8,0,8,0,1,,,,,,,,,
293770,2022-10-05_11h00.14.634,vts_reward_expectancy,2022.2.4,MacIntel,59.99880002,Chrome,1440,900,,,,,10,665,,,,,,,,,,,,,,,,,167,H,star,1,0,,,,,,,,,,,,,,,,switch,number,numSwt,f,0.5458,Hi,,,,,,0,,,,,,,,high,9,0,9,0,1,,,,,,,,,
293770,2022-10-05_11h00.14.634,vts_reward_expectancy,2022.2.4,MacIntel,59.99880002,Chrome,1440,900,,,,,1,666,,,,,,,,,,,,,,,,,174,W,circle,1,0,,,,,,,,,,,,,,,,repeat,number,numRpt,f,0.6715,Lo,,,,,,0,,,,,,,,high,10,0,10,0,1,,,,,,,,,
293770,2022-10-05_11h00.14.634,vts_reward_expectancy,2022.2.4,MacIntel,59.99880002,Chrome,1440,900,,,,,1,667,,,,,,,,,,,,,,,,,125,U,star,1,0,,,,,,,,,,,,,,,,repeat,number,numRpt,d,0.6302,Hi,,,,,,0,,,,,,,,high,11,0,11,0,1,,,,,,,,,
293770,2022-10-05_11h00.14.634,vts_reward_expectancy,2022.2.4,MacIntel,59.99880002,Chrome,1440,900,,,,,0,667,,,,,,,,,,,,,,,,,139,Y,star,1,0,,,,,,,,,,,,,,,,switch,letter,lettSwt,k,0.7364,Hi,,,,,,0,,,,,,,,high,12,0,12,0,1,,,,,,,,,
293770,2022-10-05_11h00.14.634,vts_reward_expectancy,2022.2.4,MacIntel,59.99880002,Chrome,1440,900,,,,,10,677,,,,,,,,,,,,,,,,,132,D,circle,1,0,,,,,,,,,,,,,,,,repeat,letter,lettRpt,j,0.5781,Lo,,,,,,0,,,,,,,,high,13,0,13,0,1,,,,,,,,,
293770,2022-10-05_11h00.14.634,vts_reward_expectancy,2022.2.4,MacIntel,59.99880002,Chrome,1440,900,,,,,1,678,,,,,,,,,,,,,,,,,181,B,star,1,0,,,,,,,,,,,,,,,,repeat,letter,lettRpt,j,0.5527,Hi,,,,,,0,,,,,,,,high,14,0,14,0,1,,,,,,,,,
293770,2022-10-05_11h00.14.634,vts_reward_expectancy,2022.2.4,MacIntel,59.99880002,Chrome,1440,900,,,,,1,679,,,,,,,,,,,,,,,,,146,S,circle,1,0,,,,,,,,,,,,,,,,switch,number,numSwt,d,0.564,Lo,,,,,,0,,,,,,,,high,15,0,15,0,1,,,,,,,,,
293770,2022-10-05_11h00.14.634,vts_reward_expectancy,2022.2.4,MacIntel,59.99880002,Chrome,1440,900,,,,,1,680,,,,,,,,,,,,,,,,,174,B,circle,1,0,,,,,,,,,,,,,,,,repeat,number,numRpt,f,0.5063,Lo,,,,,,0,,,,,,,,high,16,0,16,0,1,,,,,,,,,
293770,2022-10-05_11h00.14.634,vts_reward_expectancy,2022.2.4,MacIntel,59.99880002,Chrome,1440,900,,,,,1,681,,,,,,,,,,,,,,,,,167,U,star,1,0,,,,,,,,,,,,,,,,switch,letter,lettSwt,k,0.6056,Hi,,,,,,0,,,,,,,,high,17,0,17,0,1,,,,,,,,,
293770,2022-10-05_11h00.14.634,vts_reward_expectancy,2022.2.4,MacIntel,59.99880002,Chrome,1440,900,,,,,10,691,,,,,,,,,,,,,,,,,132,W,circle,1,0,,,,,,,,,,,,,,,,repeat,letter,lettRpt,k,0.902,Lo,,,,,,0,,,,,,,,high,18,0,18,0,1,,,,,,,,,
293770,2022-10-05_11h00.14.634,vts_reward_expectancy,2022.2.4,MacIntel,59.99880002,Chrome,1440,900,,,,,0,691,,,,,,,,,,,,,,,,,160,Y,star,1,0,,,,,,,,,,,,,,,,switch,number,numSwt,f,1.2716,Hi,,,,,,0,,,,,,,,high,19,0,19,0,1,,,,,,,,,
293770,2022-10-05_11h00.14.634,vts_reward_expectancy,2022.2.4,MacIntel,59.99880002,Chrome,1440,900,,,,,1,692,,,,,,,,,,,,,,,,,146,S,star,1,0,,,,,,,,,,,,,,,,repeat,number,numRpt,d,0.6463,Hi,,,,,,0,,,,,,,,high,20,0,20,0,1,,,,,,,,,
293770,2022-10-05_11h00.14.634,vts_reward_expectancy,2022.2.4,MacIntel,59.99880002,Chrome,1440,900,,,,,1,693,,,,,,,,,,,,,,,,,181,D,circle,1,0,,,,,,,,,,,,,,,,switch,letter,lettSwt,j,0.5948,Lo,,,,,,0,,,,,,,,high,21,0,21,0,1,,,,,,,,,
293770,2022-10-05_11h00.14.634,vts_reward_expectancy,2022.2.4,MacIntel,59.99880002,Chrome,1440,900,,,,,1,694,,,,,,,,,,,,,,,,,139,F,circle,1,0,,,,,,,,,,,,,,,,switch,number,numSwt,d,0.7478,Lo,,,,,,0,,,,,,,,high,22,0,22,0,1,,,,,,,,,
293770,2022-10-05_11h00.14.634,vts_reward_expectancy,2022.2.4,MacIntel,59.99880002,Chrome,1440,900,,,,,1,695,,,,,,,,,,,,,,,,,125,H,star,1,0,,,,,,,,,,,,,,,,repeat,number,numRpt,d,0.5771,Hi,,,,,,0,,,,,,,,high,23,0,23,0,1,,,,,,,,,
293770,2022-10-05_11h00.14.634,vts_reward_expectancy,2022.2.4,MacIntel,59.99880002,Chrome,1440,900,,,,,1,696,,,,,,,,,,,,,,,,,160,H,circle,1,0,,,,,,,,,,,,,,,,repeat,number,numRpt,f,0.5325,Lo,,,,,,0,,,,,,,,high,24,0,24,0,1,,,,,,,,,
293770,2022-10-05_11h00.14.634,vts_reward_expectancy,2022.2.4,MacIntel,59.99880002,Chrome,1440,900,,,,,0,696,,,,,,,,,,,,,,,,,146,Y,star,1,0,,,,,,,,,,,,,,,,switch,letter,lettSwt,k,0.7361,Hi,,,,,,0,,,,,,,,high,25,0,25,0,1,,,,,,,,,
293770,2022-10-05_11h00.14.634,vts_reward_expectancy,2022.2.4,MacIntel,59.99880002,Chrome,1440,900,,,,,1,697,,,,,,,,,,,,,,,,,125,F,circle,1,0,,,,,,,,,,,,,,,,repeat,letter,lettRpt,j,0.6144,Lo,,,,,,0,,,,,,,,high,26,0,26,0,1,,,,,,,,,
293770,2022-10-05_11h00.14.634,vts_reward_expectancy,2022.2.4,MacIntel,59.99880002,Chrome,1440,900,,,,,0,697,,,,,,,,,,,,,,,,,167,U,star,0,0,,,,,,,,,,,,,,,,repeat,letter,NA,j,0.4346,Lo,,,,,,0,,,,,,,,high,27,0,27,0,1,,,,,,,,,
293770,2022-10-05_11h00.14.634,vts_reward_expectancy,2022.2.4,MacIntel,59.99880002,Chrome,1440,900,,,,,0,697,,,,,,,,,,,,,,,,,181,D,star,1,1,,,,,,,,,,,,,,,,repeat,letter,lettRpt,j,0.832,Hi,,,,,,0,,,,,,,,high,28,0,28,0,1,,,,,,,,,
293770,2022-10-05_11h00.14.634,vts_reward_expectancy,2022.2.4,MacIntel,59.99880002,Chrome,1440,900,,,,,1,698,,,,,,,,,,,,,,,,,174,W,circle,1,0,,,,,,,,,,,,,,,,repeat,letter,lettRpt,k,0.6966,Lo,,,,,,0,,,,,,,,high,29,0,29,0,1,,,,,,,,,
293770,2022-10-05_11h00.14.634,vts_reward_expectancy,2022.2.4,MacIntel,59.99880002,Chrome,1440,900,,,,,1,699,,,,,,,,,,,,,,,,,132,B,circle,1,0,,,,,,,,,,,,,,,,switch,number,numSwt,d,0.5683,Lo,,,,,,0,,,,,,,,high,30,0,30,0,1,,,,,,,,,
293770,2022-10-05_11h00.14.634,vts_reward_expectancy,2022.2.4,MacIntel,59.99880002,Chrome,1440,900,,,,,0,699,,,,,,,,,,,,,,,,,139,S,star,1,0,,,,,,,,,,,,,,,,repeat,number,numRpt,d,0.7127,Hi,,,,,,0,,,,,,,,high,31,0,31,0,1,,,,,,,,,
293770,2022-10-05_11h00.14.634,vts_reward_expectancy,2022.2.4,MacIntel,59.99880002,Chrome,1440,900,,,,,1,700,,,,,,,,,,,,,,,,,174,Y,star,1,0,,,,,,,,,,,,,,,,repeat,number,numRpt,f,0.5168,Hi,,,,,,1,,,,,,space,2.9875,high,0,0,0,0,1,,,,,,,,,
293770,2022-10-05_11h00.14.634,vts_reward_expectancy,2022.2.4,MacIntel,59.99880002,Chrome,1440,900,,,,,1,701,,,,,,,,,,,,,,,,,132,F,circle,1,0,,,,,,,,,,,,,,,,repeat,number,numRpt,d,0.5405,Lo,,,,,,1,,,,,,,,high,1,0,1,0,1,,,,,,,,,
293770,2022-10-05_11h00.14.634,vts_reward_expectancy,2022.2.4,MacIntel,59.99880002,Chrome,1440,900,,,,,0,701,,,,,,,,,,,,,,,,,181,B,star,1,0,,,,,,,,,,,,,,,,repeat,number,numRpt,f,0.7345,Hi,,,,,,1,,,,,,,,high,2,0,2,0,1,,,,,,,,,
293770,2022-10-05_11h00.14.634,vts_reward_expectancy,2022.2.4,MacIntel,59.99880002,Chrome,1440,900,,,,,10,711,,,,,,,,,,,,,,,,,139,U,circle,1,0,,,,,,,,,,,,,,,,switch,letter,lettSwt,k,0.7012,Lo,,,,,,1,,,,,,,,high,3,0,3,0,1,,,,,,,,,
293770,2022-10-05_11h00.14.634,vts_reward_expectancy,2022.2.4,MacIntel,59.99880002,Chrome,1440,900,,,,,1,712,,,,,,,,,,,,,,,,,125,W,circle,1,0,,,,,,,,,,,,,,,,repeat,letter,lettRpt,k,0.5105,Lo,,,,,,1,,,,,,,,high,4,0,4,0,1,,,,,,,,,
293770,2022-10-05_11h00.14.634,vts_reward_expectancy,2022.2.4,MacIntel,59.99880002,Chrome,1440,900,,,,,0,712,,,,,,,,,,,,,,,,,160,H,star,1,0,,,,,,,,,,,,,,,,switch,number,numSwt,f,0.671,Hi,,,,,,1,,,,,,,,high,5,0,5,0,1,,,,,,,,,
293770,2022-10-05_11h00.14.634,vts_reward_expectancy,2022.2.4,MacIntel,59.99880002,Chrome,1440,900,,,,,1,713,,,,,,,,,,,,,,,,,167,D,circle,1,0,,,,,,,,,,,,,,,,repeat,number,numRpt,f,0.621,Lo,,,,,,1,,,,,,,,high,6,0,6,0,1,,,,,,,,,
293770,2022-10-05_11h00.14.634,vts_reward_expectancy,2022.2.4,MacIntel,59.99880002,Chrome,1440,900,,,,,0,713,,,,,,,,,,,,,,,,,146,S,star,0,0,,,,,,,,,,,,,,,,switch,letter,NA,j,0.4619,Lo,,,,,,1,,,,,,,,high,7,0,7,0,1,,,,,,,,,
293770,2022-10-05_11h00.14.634,vts_reward_expectancy,2022.2.4,MacIntel,59.99880002,Chrome,1440,900,,,,,0,713,,,,,,,,,,,,,,,,,174,Y,star,1,1,,,,,,,,,,,,,,,,switch,number,numSwt,f,0.5984,Hi,,,,,,1,,,,,,,,high,8,0,8,0,1,,,,,,,,,
293770,2022-10-05_11h00.14.634,vts_reward_expectancy,2022.2.4,MacIntel,59.99880002,Chrome,1440,900,,,,,10,723,,,,,,,,,,,,,,,,,132,F,circle,1,0,,,,,,,,,,,,,,,,repeat,number,numRpt,d,0.5953,Lo,,,,,,1,,,,,,,,high,9,0,9,0,1,,,,,,,,,
293770,2022-10-05_11h00.14.634,vts_reward_expectancy,2022.2.4,MacIntel,59.99880002,Chrome,1440,900,,,,,0,723,,,,,,,,,,,,,,,,,181,B,star,1,0,,,,,,,,,,,,,,,,repeat,number,numRpt,f,0.6175,Hi,,,,,,1,,,,,,,,high,10,0,10,0,1,,,,,,,,,
293770,2022-10-05_11h00.14.634,vts_reward_expectancy,2022.2.4,MacIntel,59.99880002,Chrome,1440,900,,,,,1,724,,,,,,,,,,,,,,,,,139,U,circle,1,0,,,,,,,,,,,,,,,,repeat,number,numRpt,d,0.6153,Lo,,,,,,1,,,,,,,,high,11,0,11,0,1,,,,,,,,,
293770,2022-10-05_11h00.14.634,vts_reward_expectancy,2022.2.4,MacIntel,59.99880002,Chrome,1440,900,,,,,1,725,,,,,,,,,,,,,,,,,125,W,circle,1,0,,,,,,,,,,,,,,,,switch,letter,lettSwt,k,0.4181,Lo,,,,,,1,,,,,,,,high,12,0,12,0,1,,,,,,,,,
293770,2022-10-05_11h00.14.634,vts_reward_expectancy,2022.2.4,MacIntel,59.99880002,Chrome,1440,900,,,,,10,735,,,,,,,,,,,,,,,,,160,H,star,1,0,,,,,,,,,,,,,,,,repeat,letter,lettRpt,j,0.3813,Hi,,,,,,1,,,,,,,,high,13,0,13,0,1,,,,,,,,,
293770,2022-10-05_11h00.14.634,vts_reward_expectancy,2022.2.4,MacIntel,59.99880002,Chrome,1440,900,,,,,1,736,,,,,,,,,,,,,,,,,167,D,circle,1,0,,,,,,,,,,,,,,,,switch,number,numSwt,f,0.5475,Lo,,,,,,1,,,,,,,,high,14,0,14,0,1,,,,,,,,,
293770,2022-10-05_11h00.14.634,vts_reward_expectancy,2022.2.4,MacIntel,59.99880002,Chrome,1440,900,,,,,0,736,,,,,,,,,,,,,,,,,146,S,star,0,0,,,,,,,,,,,,,,,,switch,letter,NA,j,0.3772,Lo,,,,,,1,,,,,,,,high,15,0,15,0,1,,,,,,,,,
293770,2022-10-05_11h00.14.634,vts_reward_expectancy,2022.2.4,MacIntel,59.99880002,Chrome,1440,900,,,,,1,737,,,,,,,,,,,,,,,,,174,U,circle,1,1,,,,,,,,,,,,,,,,switch,number,numSwt,f,1.0326,Lo,,,,,,1,,,,,,,,high,16,0,16,0,1,,,,,,,,,
293770,2022-10-05_11h00.14.634,vts_reward_expectancy,2022.2.4,MacIntel,59.99880002,Chrome,1440,900,,,,,0,737,,,,,,,,,,,,,,,,,181,F,star,1,0,,,,,,,,,,,,,,,,repeat,number,numRpt,f,0.6778,Hi,,,,,,1,,,,,,,,high,17,0,17,0,1,,,,,,,,,
293770,2022-10-05_11h00.14.634,vts_reward_expectancy,2022.2.4,MacIntel,59.99880002,Chrome,1440,900,,,,,1,738,,,,,,,,,,,,,,,,,167,D,circle,1,0,,,,,,,,,,,,,,,,repeat,number,numRpt,f,0.5188,Lo,,,,,,1,,,,,,,,high,18,0,18,0,1,,,,,,,,,
293770,2022-10-05_11h00.14.634,vts_reward_expectancy,2022.2.4,MacIntel,59.99880002,Chrome,1440,900,,,,,1,739,,,,,,,,,,,,,,,,,160,B,star,1,0,,,,,,,,,,,,,,,,switch,letter,lettSwt,j,0.3807,Hi,,,,,,1,,,,,,,,high,19,0,19,0,1,,,,,,,,,
293770,2022-10-05_11h00.14.634,vts_reward_expectancy,2022.2.4,MacIntel,59.99880002,Chrome,1440,900,,,,,0,739,,,,,,,,,,,,,,,,,125,H,star,1,0,,,,,,,,,,,,,,,,switch,number,numSwt,d,0.606,Hi,,,,,,1,,,,,,,,high,20,0,20,0,1,,,,,,,,,
293770,2022-10-05_11h00.14.634,vts_reward_expectancy,2022.2.4,MacIntel,59.99880002,Chrome,1440,900,,,,,1,740,,,,,,,,,,,,,,,,,132,S,circle,1,0,,,,,,,,,,,,,,,,repeat,number,numRpt,d,0.6224,Lo,,,,,,1,,,,,,,,high,21,0,21,0,1,,,,,,,,,
293770,2022-10-05_11h00.14.634,vts_reward_expectancy,2022.2.4,MacIntel,59.99880002,Chrome,1440,900,,,,,1,741,,,,,,,,,,,,,,,,,146,W,circle,1,0,,,,,,,,,,,,,,,,repeat,number,numRpt,d,0.5387,Lo,,,,,,1,,,,,,,,high,22,0,22,0,1,,,,,,,,,
293770,2022-10-05_11h00.14.634,vts_reward_expectancy,2022.2.4,MacIntel,59.99880002,Chrome,1440,900,,,,,1,742,,,,,,,,,,,,,,,,,139,Y,star,1,0,,,,,,,,,,,,,,,,switch,letter,lettSwt,k,0.5006,Hi,,,,,,1,,,,,,,,high,23,0,23,0,1,,,,,,,,,
293770,2022-10-05_11h00.14.634,vts_reward_expectancy,2022.2.4,MacIntel,59.99880002,Chrome,1440,900,,,,,10,752,,,,,,,,,,,,,,,,,181,D,circle,1,0,,,,,,,,,,,,,,,,repeat,letter,lettRpt,j,0.6121,Lo,,,,,,1,,,,,,,,high,24,0,24,0,1,,,,,,,,,
293770,2022-10-05_11h00.14.634,vts_reward_expectancy,2022.2.4,MacIntel,59.99880002,Chrome,1440,900,,,,,1,753,,,,,,,,,,,,,,,,,146,F,star,1,0,,,,,,,,,,,,,,,,switch,number,numSwt,d,0.5648,Hi,,,,,,1,,,,,,,,high,25,0,25,0,1,,,,,,,,,
293770,2022-10-05_11h00.14.634,vts_reward_expectancy,2022.2.4,MacIntel,59.99880002,Chrome,1440,900,,,,,10,763,,,,,,,,,,,,,,,,,160,S,star,1,0,,,,,,,,,,,,,,,,repeat,number,numRpt,f,0.5155,Hi,,,,,,1,,,,,,,,high,26,0,26,0,1,,,,,,,,,
293770,2022-10-05_11h00.14.634,vts_reward_expectancy,2022.2.4,MacIntel,59.99880002,Chrome,1440,900,,,,,10,773,,,,,,,,,,,,,,,,,174,B,circle,1,0,,,,,,,,,,,,,,,,switch,letter,lettSwt,j,0.5531,Lo,,,,,,1,,,,,,,,high,27,0,27,0,1,,,,,,,,,
293770,2022-10-05_11h00.14.634,vts_reward_expectancy,2022.2.4,MacIntel,59.99880002,Chrome,1440,900,,,,,0,773,,,,,,,,,,,,,,,,,139,U,star,1,0,,,,,,,,,,,,,,,,repeat,letter,lettRpt,k,0.8661,Hi,,,,,,1,,,,,,,,high,28,0,28,0,1,,,,,,,,,
293770,2022-10-05_11h00.14.634,vts_reward_expectancy,2022.2.4,MacIntel,59.99880002,Chrome,1440,900,,,,,1,774,,,,,,,,,,,,,,,,,132,Y,circle,1,0,,,,,,,,,,,,,,,,repeat,letter,lettRpt,k,0.6353,Lo,,,,,,1,,,,,,,,high,29,0,29,0,1,,,,,,,,,
293770,2022-10-05_11h00.14.634,vts_reward_expectancy,2022.2.4,MacIntel,59.99880002,Chrome,1440,900,,,,,10,784,,,,,,,,,,,,,,,,,125,W,star,1,0,,,,,,,,,,,,,,,,repeat,letter,lettRpt,k,0.5483,Hi,,,,,,1,,,,,,,,high,30,0,30,0,1,,,,,,,,,
293770,2022-10-05_11h00.14.634,vts_reward_expectancy,2022.2.4,MacIntel,59.99880002,Chrome,1440,900,,,,,0,784,,,,,,,,,,,,,,,,,167,H,circle,0,0,,,,,,,,,,,,,,,,repeat,letter,NA,k,0.5382,Hi,,,,,,1,,,,,,,,high,31,0,31,0,1,,,,,,,,,
293770,2022-10-05_11h00.14.634,vts_reward_expectancy,2022.2.4,MacIntel,59.99880002,Chrome,1440,900,,,,,10,794,,,,,,,,,,,,,,,,,160,D,star,1,1,,,,,,,,,,,,,,,,switch,number,numSwt,f,0.5622,Hi,,,,,,2,,,,,,space,65.6414,high,0,0,0,0,1,,,,,,,,,
293770,2022-10-05_11h00.14.634,vts_reward_expectancy,2022.2.4,MacIntel,59.99880002,Chrome,1440,900,,,,,1,795,,,,,,,,,,,,,,,,,174,S,circle,1,0,,,,,,,,,,,,,,,,repeat,number,numRpt,f,0.5272,Lo,,,,,,2,,,,,,,,high,1,0,1,0,1,,,,,,,,,
293770,2022-10-05_11h00.14.634,vts_reward_expectancy,2022.2.4,MacIntel,59.99880002,Chrome,1440,900,,,,,1,796,,,,,,,,,,,,,,,,,181,Y,star,1,0,,,,,,,,,,,,,,,,repeat,number,numRpt,f,0.5122,Hi,,,,,,2,,,,,,,,high,2,0,2,0,1,,,,,,,,,
293770,2022-10-05_11h00.14.634,vts_reward_expectancy,2022.2.4,MacIntel,59.99880002,Chrome,1440,900,,,,,1,797,,,,,,,,,,,,,,,,,139,W,circle,1,0,,,,,,,,,,,,,,,,switch,letter,lettSwt,k,0.4215,Lo,,,,,,2,,,,,,,,high,3,0,3,0,1,,,,,,,,,
293770,2022-10-05_11h00.14.634,vts_reward_expectancy,2022.2.4,MacIntel,59.99880002,Chrome,1440,900,,,,,0,797,,,,,,,,,,,,,,,,,167,F,star,1,0,,,,,,,,,,,,,,,,repeat,letter,lettRpt,j,0.6771,Hi,,,,,,2,,,,,,,,high,4,0,4,0,1,,,,,,,,,
293770,2022-10-05_11h00.14.634,vts_reward_expectancy,2022.2.4,MacIntel,59.99880002,Chrome,1440,900,,,,,1,798,,,,,,,,,,,,,,,,,125,H,circle,1,0,,,,,,,,,,,,,,,,switch,number,numSwt,d,0.6117,Lo,,,,,,2,,,,,,,,high,5,0,5,0,1,,,,,,,,,
293770,2022-10-05_11h00.14.634,vts_reward_expectancy,2022.2.4,MacIntel,59.99880002,Chrome,1440,900,,,,,1,799,,,,,,,,,,,,,,,,,132,U,star,1,0,,,,,,,,,,,,,,,,repeat,number,numRpt,d,0.515,Hi,,,,,,2,,,,,,,,high,6,0,6,0,1,,,,,,,,,
293770,2022-10-05_11h00.14.634,vts_reward_expectancy,2022.2.4,MacIntel,59.99880002,Chrome,1440,900,,,,,10,809,,,,,,,,,,,,,,,,,146,B,circle,1,0,,,,,,,,,,,,,,,,switch,letter,lettSwt,j,0.486,Lo,,,,,,2,,,,,,,,high,7,0,7,0,1,,,,,,,,,
293770,2022-10-05_11h00.14.634,vts_reward_expectancy,2022.2.4,MacIntel,59.99880002,Chrome,1440,900,,,,,0,809,,,,,,,,,,,,,,,,,160,D,star,1,0,,,,,,,,,,,,,,,,repeat,letter,lettRpt,j,0.6686,Hi,,,,,,2,,,,,,,,high,8,0,8,0,1,,,,,,,,,
293770,2022-10-05_11h00.14.634,vts_reward_expectancy,2022.2.4,MacIntel,59.99880002,Chrome,1440,900,,,,,0,809,,,,,,,,,,,,,,,,,174,S,circle,0,0,,,,,,,,,,,,,,,,repeat,letter,NA,j,0.6992,Hi,,,,,,2,,,,,,,,high,9,0,9,0,1,,,,,,,,,
293770,2022-10-05_11h00.14.634,vts_reward_expectancy,2022.2.4,MacIntel,59.99880002,Chrome,1440,900,,,,,1,810,,,,,,,,,,,,,,,,,181,Y,circle,1,1,,,,,,,,,,,,,,,,repeat,letter,lettRpt,k,0.583,Lo,,,,,,2,,,,,,,,high,10,0,10,0,1,,,,,,,,,
293770,2022-10-05_11h00.14.634,vts_reward_expectancy,2022.2.4,MacIntel,59.99880002,Chrome,1440,900,,,,,0,810,,,,,,,,,,,,,,,,,139,W,star,1,0,,,,,,,,,,,,,,,,switch,number,numSwt,d,0.5997,Hi,,,,,,2,,,,,,,,high,11,0,11,0,1,,,,,,,,,
293770,2022-10-05_11h00.14.634,vts_reward_expectancy,2022.2.4,MacIntel,59.99880002,Chrome,1440,900,,,,,0,810,,,,,,,,,,,,,,,,,167,F,star,1,0,,,,,,,,,,,,,,,,repeat,number,numRpt,f,0.565,Hi,,,,,,2,,,,,,,,high,12,0,12,0,1,,,,,,,,,
293770,2022-10-05_11h00.14.634,vts_reward_expectancy,2022.2.4,MacIntel,59.99880002,Chrome,1440,900,,,,,1,811,,,,,,,,,,,,,,,,,125,H,circle,1,0,,,,,,,,,,,,,,,,repeat,number,numRpt,d,0.5771,Lo,,,,,,2,,,,,,,,high,13,0,13,0,1,,,,,,,,,
293770,2022-10-05_11h00.14.634,vts_reward_expectancy,2022.2.4,MacIntel,59.99880002,Chrome,1440,900,,,,,10,821,,,,,,,,,,,,,,,,,132,U,star,1,0,,,,,,,,,,,,,,,,repeat,number,numRpt,d,0.5307,Hi,,,,,,2,,,,,,,,high,14,0,14,0,1,,,,,,,,,
293770,2022-10-05_11h00.14.634,vts_reward_expectancy,2022.2.4,MacIntel,59.99880002,Chrome,1440,900,,,,,10,831,,,,,,,,,,,,,,,,,146,B,circle,1,0,,,,,,,,,,,,,,,,switch,letter,lettSwt,j,0.4141,Lo,,,,,,2,,,,,,,,high,15,0,15,0,1,,,,,,,,,
293770,2022-10-05_11h00.14.634,vts_reward_expectancy,2022.2.4,MacIntel,59.99880002,Chrome,1440,900,,,,,0,831,,,,,,,,,,,,,,,,,167,F,star,1,0,,,,,,,,,,,,,,,,switch,number,numSwt,f,0.6275,Hi,,,,,,2,,,,,,,,high,16,0,16,0,1,,,,,,,,,
293770,2022-10-05_11h00.14.634,vts_reward_expectancy,2022.2.4,MacIntel,59.99880002,Chrome,1440,900,,,,,10,841,,,,,,,,,,,,,,,,,125,S,circle,1,0,,,,,,,,,,,,,,,,repeat,number,numRpt,d,0.399,Lo,,,,,,2,,,,,,,,high,17,0,17,0,1,,,,,,,,,
293770,2022-10-05_11h00.14.634,vts_reward_expectancy,2022.2.4,MacIntel,59.99880002,Chrome,1440,900,,,,,0,841,,,,,,,,,,,,,,,,,174,B,star,1,0,,,,,,,,,,,,,,,,switch,letter,lettSwt,j,0.578,Hi,,,,,,2,,,,,,,,high,18,0,18,0,1,,,,,,,,,
293770,2022-10-05_11h00.14.634,vts_reward_expectancy,2022.2.4,MacIntel,59.99880002,Chrome,1440,900,,,,,0,841,,,,,,,,,,,,,,,,,146,U,circle,0,0,,,,,,,,,,,,,,,,repeat,letter,NA,j,0.4962,Hi,,,,,,2,,,,,,,,high,19,0,19,0,1,,,,,,,,,
293770,2022-10-05_11h00.14.634,vts_reward_expectancy,2022.2.4,MacIntel,59.99880002,Chrome,1440,900,,,,,0,841,,,,,,,,,,,,,,,,,160,H,star,1,1,,,,,,,,,,,,,,,,repeat,letter,lettRpt,j,0.632,Hi,,,,,,2,,,,,,,,high,20,0,20,0,1,,,,,,,,,
293770,2022-10-05_11h00.14.634,vts_reward_expectancy,2022.2.4,MacIntel,59.99880002,Chrome,1440,900,,,,,0,841,,,,,,,,,,,,,,,,,132,D,circle,0,0,,,,,,,,,,,,,,,,switch,number,NA,f,0.4708,Hi,,,,,,2,,,,,,,,high,21,0,21,0,1,,,,,,,,,
293770,2022-10-05_11h00.14.634,vts_reward_expectancy,2022.2.4,MacIntel,59.99880002,Chrome,1440,900,,,,,0,841,,,,,,,,,,,,,,,,,181,W,star,1,1,,,,,,,,,,,,,,,,switch,letter,lettSwt,k,0.5379,Hi,,,,,,2,,,,,,,,high,22,0,22,0,1,,,,,,,,,
293770,2022-10-05_11h00.14.634,vts_reward_expectancy,2022.2.4,MacIntel,59.99880002,Chrome,1440,900,,,,,0,841,,,,,,,,,,,,,,,,,139,Y,circle,0,0,,,,,,,,,,,,,,,,repeat,letter,NA,j,0.4032,Hi,,,,,,2,,,,,,,,high,23,0,23,0,1,,,,,,,,,
293770,2022-10-05_11h00.14.634,vts_reward_expectancy,2022.2.4,MacIntel,59.99880002,Chrome,1440,900,,,,,0,841,,,,,,,,,,,,,,,,,174,H,star,1,1,,,,,,,,,,,,,,,,repeat,letter,lettRpt,j,0.6216,Hi,,,,,,2,,,,,,,,high,24,0,24,0,1,,,,,,,,,
293770,2022-10-05_11h00.14.634,vts_reward_expectancy,2022.2.4,MacIntel,59.99880002,Chrome,1440,900,,,,,1,842,,,,,,,,,,,,,,,,,160,U,circle,1,0,,,,,,,,,,,,,,,,switch,number,numSwt,f,0.5973,Lo,,,,,,2,,,,,,,,high,25,0,25,0,1,,,,,,,,,
293770,2022-10-05_11h00.14.634,vts_reward_expectancy,2022.2.4,MacIntel,59.99880002,Chrome,1440,900,,,,,0,842,,,,,,,,,,,,,,,,,139,B,star,1,0,,,,,,,,,,,,,,,,repeat,number,numRpt,d,0.678,Hi,,,,,,2,,,,,,,,high,26,0,26,0,1,,,,,,,,,
293770,2022-10-05_11h00.14.634,vts_reward_expectancy,2022.2.4,MacIntel,59.99880002,Chrome,1440,900,,,,,1,843,,,,,,,,,,,,,,,,,146,D,circle,1,0,,,,,,,,,,,,,,,,repeat,number,numRpt,d,0.7146,Lo,,,,,,2,,,,,,,,high,27,0,27,0,1,,,,,,,,,
293770,2022-10-05_11h00.14.634,vts_reward_expectancy,2022.2.4,MacIntel,59.99880002,Chrome,1440,900,,,,,1,844,,,,,,,,,,,,,,,,,167,S,circle,1,0,,,,,,,,,,,,,,,,repeat,number,numRpt,f,0.3812,Lo,,,,,,2,,,,,,,,high,28,0,28,0,1,,,,,,,,,
293770,2022-10-05_11h00.14.634,vts_reward_expectancy,2022.2.4,MacIntel,59.99880002,Chrome,1440,900,,,,,10,854,,,,,,,,,,,,,,,,,125,W,star,1,0,,,,,,,,,,,,,,,,repeat,number,numRpt,d,0.3602,Hi,,,,,,2,,,,,,,,high,29,0,29,0,1,,,,,,,,,
293770,2022-10-05_11h00.14.634,vts_reward_expectancy,2022.2.4,MacIntel,59.99880002,Chrome,1440,900,,,,,10,864,,,,,,,,,,,,,,,,,132,Y,star,1,0,,,,,,,,,,,,,,,,switch,letter,lettSwt,k,0.4012,Hi,,,,,,2,,,,,,,,high,30,0,30,0,1,,,,,,,,,
293770,2022-10-05_11h00.14.634,vts_reward_expectancy,2022.2.4,MacIntel,59.99880002,Chrome,1440,900,,,,,1,865,,,,,,,,,,,,,,,,,181,F,circle,1,0,,,,,,,,,,,,,,,,repeat,letter,lettRpt,j,0.514,Lo,,,,,,2,,,,,,,,high,31,0,31,0,1,,,,,,,,,
293770,2022-10-05_11h00.14.634,vts_reward_expectancy,2022.2.4,MacIntel,59.99880002,Chrome,1440,900,,,,,1,866,,,,,,,,,,,,,,,,,167,B,triangle,1,0,,,,,,,,,,,,,,,,switch,number,numSwt,f,0.5465,Lo,,,,,,3,,,,,,space,3.2238,low,0,0,0,0,1,,,,,,,,,
293770,2022-10-05_11h00.14.634,vts_reward_expectancy,2022.2.4,MacIntel,59.99880002,Chrome,1440,900,,,,,0,866,,,,,,,,,,,,,,,,,125,H,hexagon,1,0,,,,,,,,,,,,,,,,switch,letter,lettSwt,j,0.5831,Hi,,,,,,3,,,,,,,,low,1,0,1,0,1,,,,,,,,,
293770,2022-10-05_11h00.14.634,vts_reward_expectancy,2022.2.4,MacIntel,59.99880002,Chrome,1440,900,,,,,1,867,,,,,,,,,,,,,,,,,174,Y,triangle,1,0,,,,,,,,,,,,,,,,repeat,letter,lettRpt,k,0.3634,Lo,,,,,,3,,,,,,,,low,2,0,2,0,1,,,,,,,,,
293770,2022-10-05_11h00.14.634,vts_reward_expectancy,2022.2.4,MacIntel,59.99880002,Chrome,1440,900,,,,,0,867,,,,,,,,,,,,,,,,,139,F,hexagon,0,0,,,,,,,,,,,,,,,,switch,number,NA,f,0.6543,Lo,,,,,,3,,,,,,,,low,3,0,3,0,1,,,,,,,,,
293770,2022-10-05_11h00.14.634,vts_reward_expectancy,2022.2.4,MacIntel,59.99880002,Chrome,1440,900,,,,,0,867,,,,,,,,,,,,,,,,,160,D,hexagon,1,1,,,,,,,,,,,,,,,,repeat,number,numRpt,f,0.7231,Hi,,,,,,3,,,,,,,,low,4,0,4,0,1,,,,,,,,,
293770,2022-10-05_11h00.14.634,vts_reward_expectancy,2022.2.4,MacIntel,59.99880002,Chrome,1440,900,,,,,1,868,,,,,,,,,,,,,,,,,132,W,triangle,1,0,,,,,,,,,,,,,,,,repeat,number,numRpt,d,0.4127,Lo,,,,,,3,,,,,,,,low,5,0,5,0,1,,,,,,,,,
293770,2022-10-05_11h00.14.634,vts_reward_expectancy,2022.2.4,MacIntel,59.99880002,Chrome,1440,900,,,,,0,868,,,,,,,,,,,,,,,,,146,S,triangle,0,0,,,,,,,,,,,,,,,,switch,letter,NA,j,0.5211,Lo,,,,,,3,,,,,,,,low,6,0,6,0,1,,,,,,,,,
293770,2022-10-05_11h00.14.634,vts_reward_expectancy,2022.2.4,MacIntel,59.99880002,Chrome,1440,900,,,,,0,868,,,,,,,,,,,,,,,,,181,U,hexagon,1,1,,,,,,,,,,,,,,,,repeat,letter,lettRpt,k,0.6219,Hi,,,,,,3,,,,,,,,low,7,0,7,0,1,,,,,,,,,
293770,2022-10-05_11h00.14.634,vts_reward_expectancy,2022.2.4,MacIntel,59.99880002,Chrome,1440,900,,,,,0,868,,,,,,,,,,,,,,,,,167,B,hexagon,1,0,,,,,,,,,,,,,,,,repeat,letter,lettRpt,j,0.6316,Hi,,,,,,3,,,,,,,,low,8,0,8,0,1,,,,,,,,,
293770,2022-10-05_11h00.14.634,vts_reward_expectancy,2022.2.4,MacIntel,59.99880002,Chrome,1440,900,,,,,10,878,,,,,,,,,,,,,,,,,125,H,triangle,1,0,,,,,,,,,,,,,,,,repeat,letter,lettRpt,j,0.4304,Lo,,,,,,3,,,,,,,,low,9,0,9,0,1,,,,,,,,,
293770,2022-10-05_11h00.14.634,vts_reward_expectancy,2022.2.4,MacIntel,59.99880002,Chrome,1440,900,,,,,10,888,,,,,,,,,,,,,,,,,174,Y,hexagon,1,0,,,,,,,,,,,,,,,,switch,number,numSwt,f,0.4968,Hi,,,,,,3,,,,,,,,low,10,0,10,0,1,,,,,,,,,
293770,2022-10-05_11h00.14.634,vts_reward_expectancy,2022.2.4,MacIntel,59.99880002,Chrome,1440,900,,,,,10,898,,,,,,,,,,,,,,,,,139,F,triangle,1,0,,,,,,,,,,,,,,,,switch,letter,lettSwt,j,0.5166,Lo,,,,,,3,,,,,,,,low,11,0,11,0,1,,,,,,,,,
293770,2022-10-05_11h00.14.634,vts_reward_expectancy,2022.2.4,MacIntel,59.99880002,Chrome,1440,900,,,,,10,908,,,,,,,,,,,,,,,,,160,D,hexagon,1,0,,,,,,,,,,,,,,,,switch,number,numSwt,f,0.5,Hi,,,,,,3,,,,,,,,low,12,0,12,0,1,,,,,,,,,
293770,2022-10-05_11h00.14.634,vts_reward_expectancy,2022.2.4,MacIntel,59.99880002,Chrome,1440,900,,,,,1,909,,,,,,,,,,,,,,,,,132,W,triangle,1,0,,,,,,,,,,,,,,,,repeat,number,numRpt,d,0.5688,Lo,,,,,,3,,,,,,,,low,13,0,13,0,1,,,,,,,,,
293770,2022-10-05_11h00.14.634,vts_reward_expectancy,2022.2.4,MacIntel,59.99880002,Chrome,1440,900,,,,,0,909,,,,,,,,,,,,,,,,,146,S,hexagon,1,0,,,,,,,,,,,,,,,,repeat,number,numRpt,d,0.5798,Hi,,,,,,3,,,,,,,,low,14,0,14,0,1,,,,,,,,,
293770,2022-10-05_11h00.14.634,vts_reward_expectancy,2022.2.4,MacIntel,59.99880002,Chrome,1440,900,,,,,10,919,,,,,,,,,,,,,,,,,181,U,triangle,1,0,,,,,,,,,,,,,,,,repeat,number,numRpt,f,0.6309,Lo,,,,,,3,,,,,,,,low,15,0,15,0,1,,,,,,,,,
293770,2022-10-05_11h00.14.634,vts_reward_expectancy,2022.2.4,MacIntel,59.99880002,Chrome,1440,900,,,,,0,919,,,,,,,,,,,,,,,,,125,B,hexagon,1,0,,,,,,,,,,,,,,,,repeat,number,numRpt,d,0.5806,Hi,,,,,,3,,,,,,,,low,16,0,16,0,1,,,,,,,,,
293770,2022-10-05_11h00.14.634,vts_reward_expectancy,2022.2.4,MacIntel,59.99880002,Chrome,1440,900,,,,,10,929,,,,,,,,,,,,,,,,,132,F,triangle,1,0,,,,,,,,,,,,,,,,switch,letter,lettSwt,j,0.4645,Lo,,,,,,3,,,,,,,,low,17,0,17,0,1,,,,,,,,,
293770,2022-10-05_11h00.14.634,vts_reward_expectancy,2022.2.4,MacIntel,59.99880002,Chrome,1440,900,,,,,10,939,,,,,,,,,,,,,,,,,174,W,triangle,1,0,,,,,,,,,,,,,,,,repeat,letter,lettRpt,k,0.3969,Lo,,,,,,3,,,,,,,,low,18,0,18,0,1,,,,,,,,,
293770,2022-10-05_11h00.14.634,vts_reward_expectancy,2022.2.4,MacIntel,59.99880002,Chrome,1440,900,,,,,0,939,,,,,,,,,,,,,,,,,167,S,hexagon,1,0,,,,,,,,,,,,,,,,repeat,letter,lettRpt,k,0.6496,Hi,,,,,,3,,,,,,,,low,19,0,19,0,1,,,,,,,,,
293770,2022-10-05_11h00.14.634,vts_reward_expectancy,2022.2.4,MacIntel,59.99880002,Chrome,1440,900,,,,,10,949,,,,,,,,,,,,,,,,,181,D,triangle,1,0,,,,,,,,,,,,,,,,switch,number,numSwt,f,0.4856,Lo,,,,,,3,,,,,,,,low,20,0,20,0,1,,,,,,,,,
293770,2022-10-05_11h00.14.634,vts_reward_expectancy,2022.2.4,MacIntel,59.99880002,Chrome,1440,900,,,,,0,949,,,,,,,,,,,,,,,,,139,U,hexagon,1,0,,,,,,,,,,,,,,,,switch,letter,lettSwt,k,0.484,Hi,,,,,,3,,,,,,,,low,21,0,21,0,1,,,,,,,,,
293770,2022-10-05_11h00.14.634,vts_reward_expectancy,2022.2.4,MacIntel,59.99880002,Chrome,1440,900,,,,,0,949,,,,,,,,,,,,,,,,,160,Y,hexagon,0,0,,,,,,,,,,,,,,,,repeat,letter,NA,j,0.3645,Hi,,,,,,3,,,,,,,,low,22,0,22,0,1,,,,,,,,,
293770,2022-10-05_11h00.14.634,vts_reward_expectancy,2022.2.4,MacIntel,59.99880002,Chrome,1440,900,,,,,10,959,,,,,,,,,,,,,,,,,146,H,triangle,1,1,,,,,,,,,,,,,,,,repeat,letter,lettRpt,j,0.5801,Lo,,,,,,3,,,,,,,,low,23,0,23,0,1,,,,,,,,,
293770,2022-10-05_11h00.14.634,vts_reward_expectancy,2022.2.4,MacIntel,59.99880002,Chrome,1440,900,,,,,1,960,,,,,,,,,,,,,,,,,139,D,triangle,1,0,,,,,,,,,,,,,,,,switch,number,numSwt,d,0.6796,Lo,,,,,,3,,,,,,,,low,24,0,24,0,1,,,,,,,,,
293770,2022-10-05_11h00.14.634,vts_reward_expectancy,2022.2.4,MacIntel,59.99880002,Chrome,1440,900,,,,,0,960,,,,,,,,,,,,,,,,,125,Y,hexagon,1,0,,,,,,,,,,,,,,,,repeat,number,numRpt,d,0.5304,Hi,,,,,,3,,,,,,,,low,25,0,25,0,1,,,,,,,,,
293770,2022-10-05_11h00.14.634,vts_reward_expectancy,2022.2.4,MacIntel,59.99880002,Chrome,1440,900,,,,,1,961,,,,,,,,,,,,,,,,,132,W,hexagon,1,0,,,,,,,,,,,,,,,,repeat,number,numRpt,d,0.5017,Hi,,,,,,3,,,,,,,,low,26,0,26,0,1,,,,,,,,,
293770,2022-10-05_11h00.14.634,vts_reward_expectancy,2022.2.4,MacIntel,59.99880002,Chrome,1440,900,,,,,10,971,,,,,,,,,,,,,,,,,174,B,triangle,1,0,,,,,,,,,,,,,,,,switch,letter,lettSwt,j,0.4475,Lo,,,,,,3,,,,,,,,low,27,0,27,0,1,,,,,,,,,
293770,2022-10-05_11h00.14.634,vts_reward_expectancy,2022.2.4,MacIntel,59.99880002,Chrome,1440,900,,,,,1,972,,,,,,,,,,,,,,,,,181,F,triangle,1,0,,,,,,,,,,,,,,,,switch,number,numSwt,f,0.5312,Lo,,,,,,3,,,,,,,,low,28,0,28,0,1,,,,,,,,,
293770,2022-10-05_11h00.14.634,vts_reward_expectancy,2022.2.4,MacIntel,59.99880002,Chrome,1440,900,,,,,0,972,,,,,,,,,,,,,,,,,160,U,hexagon,1,0,,,,,,,,,,,,,,,,switch,letter,lettSwt,k,0.54,Hi,,,,,,3,,,,,,,,low,29,0,29,0,1,,,,,,,,,
293770,2022-10-05_11h00.14.634,vts_reward_expectancy,2022.2.4,MacIntel,59.99880002,Chrome,1440,900,,,,,1,973,,,,,,,,,,,,,,,,,167,H,triangle,1,0,,,,,,,,,,,,,,,,repeat,letter,lettRpt,j,0.5357,Lo,,,,,,3,,,,,,,,low,30,0,30,0,1,,,,,,,,,
293770,2022-10-05_11h00.14.634,vts_reward_expectancy,2022.2.4,MacIntel,59.99880002,Chrome,1440,900,,,,,0,973,,,,,,,,,,,,,,,,,146,S,hexagon,1,0,,,,,,,,,,,,,,,,switch,number,numSwt,d,0.6794,Hi,,,,,,3,,,,,,,,low,31,0,31,0,1,,,,,,,,,
293770,2022-10-05_11h00.14.634,vts_reward_expectancy,2022.2.4,MacIntel,59.99880002,Chrome,1440,900,,,,,1,974,,,,,,,,,,,,,,,,,125,Y,hexagon,1,0,,,,,,,,,,,,,,,,repeat,number,numRpt,d,0.4645,Hi,,,,,,4,,,,,,space,1.5242,low,0,0,0,0,1,,,,,,,,,
293770,2022-10-05_11h00.14.634,vts_reward_expectancy,2022.2.4,MacIntel,59.99880002,Chrome,1440,900,,,,,10,984,,,,,,,,,,,,,,,,,167,F,triangle,1,0,,,,,,,,,,,,,,,,repeat,number,numRpt,f,0.4457,Lo,,,,,,4,,,,,,,,low,1,0,1,0,1,,,,,,,,,
293770,2022-10-05_11h00.14.634,vts_reward_expectancy,2022.2.4,MacIntel,59.99880002,Chrome,1440,900,,,,,0,984,,,,,,,,,,,,,,,,,132,U,hexagon,1,0,,,,,,,,,,,,,,,,repeat,number,numRpt,d,0.6147,Hi,,,,,,4,,,,,,,,low,2,0,2,0,1,,,,,,,,,
293770,2022-10-05_11h00.14.634,vts_reward_expectancy,2022.2.4,MacIntel,59.99880002,Chrome,1440,900,,,,,10,994,,,,,,,,,,,,,,,,,160,S,triangle,1,0,,,,,,,,,,,,,,,,switch,letter,lettSwt,k,0.561,Lo,,,,,,4,,,,,,,,low,3,0,3,0,1,,,,,,,,,
293770,2022-10-05_11h00.14.634,vts_reward_expectancy,2022.2.4,MacIntel,59.99880002,Chrome,1440,900,,,,,0,994,,,,,,,,,,,,,,,,,181,H,hexagon,1,0,,,,,,,,,,,,,,,,repeat,letter,lettRpt,j,0.5614,Hi,,,,,,4,,,,,,,,low,4,0,4,0,1,,,,,,,,,
293770,2022-10-05_11h00.14.634,vts_reward_expectancy,2022.2.4,MacIntel,59.99880002,Chrome,1440,900,,,,,0,994,,,,,,,,,,,,,,,,,174,D,triangle,0,0,,,,,,,,,,,,,,,,repeat,letter,NA,k,0.5129,Hi,,,,,,4,,,,,,,,low,5,0,5,0,1,,,,,,,,,
293770,2022-10-05_11h00.14.634,vts_reward_expectancy,2022.2.4,MacIntel,59.99880002,Chrome,1440,900,,,,,1,995,,,,,,,,,,,,,,,,,139,B,triangle,1,1,,,,,,,,,,,,,,,,repeat,letter,lettRpt,j,0.5457,Lo,,,,,,4,,,,,,,,low,6,0,6,0,1,,,,,,,,,
293770,2022-10-05_11h00.14.634,vts_reward_expectancy,2022.2.4,MacIntel,59.99880002,Chrome,1440,900,,,,,0,995,,,,,,,,,,,,,,,,,146,W,hexagon,0,0,,,,,,,,,,,,,,,,switch,number,NA,f,0.543,Lo,,,,,,4,,,,,,,,low,7,0,7,0,1,,,,,,,,,
293770,2022-10-05_11h00.14.634,vts_reward_expectancy,2022.2.4,MacIntel,59.99880002,Chrome,1440,900,,,,,10,1005,,,,,,,,,,,,,,,,,125,Y,triangle,1,1,,,,,,,,,,,,,,,,repeat,number,numRpt,d,0.4864,Lo,,,,,,4,,,,,,,,low,8,0,8,0,1,,,,,,,,,
293770,2022-10-05_11h00.14.634,vts_reward_expectancy,2022.2.4,MacIntel,59.99880002,Chrome,1440,900,,,,,0,1005,,,,,,,,,,,,,,,,,167,F,hexagon,1,0,,,,,,,,,,,,,,,,repeat,number,numRpt,f,0.5451,Hi,,,,,,4,,,,,,,,low,9,0,9,0,1,,,,,,,,,
293770,2022-10-05_11h00.14.634,vts_reward_expectancy,2022.2.4,MacIntel,59.99880002,Chrome,1440,900,,,,,1,1006,,,,,,,,,,,,,,,,,132,U,hexagon,1,0,,,,,,,,,,,,,,,,repeat,number,numRpt,d,0.5375,Hi,,,,,,4,,,,,,,,low,10,0,10,0,1,,,,,,,,,
293770,2022-10-05_11h00.14.634,vts_reward_expectancy,2022.2.4,MacIntel,59.99880002,Chrome,1440,900,,,,,10,1016,,,,,,,,,,,,,,,,,160,S,triangle,1,0,,,,,,,,,,,,,,,,repeat,number,numRpt,f,0.5024,Lo,,,,,,4,,,,,,,,low,11,0,11,0,1,,,,,,,,,
293770,2022-10-05_11h00.14.634,vts_reward_expectancy,2022.2.4,MacIntel,59.99880002,Chrome,1440,900,,,,,0,1016,,,,,,,,,,,,,,,,,181,H,hexagon,1,0,,,,,,,,,,,,,,,,switch,letter,lettSwt,j,0.6857,Hi,,,,,,4,,,,,,,,low,12,0,12,0,1,,,,,,,,,
293770,2022-10-05_11h00.14.634,vts_reward_expectancy,2022.2.4,MacIntel,59.99880002,Chrome,1440,900,,,,,0,1016,,,,,,,,,,,,,,,,,174,D,triangle,0,0,,,,,,,,,,,,,,,,repeat,letter,NA,k,0.3857,Hi,,,,,,4,,,,,,,,low,13,0,13,0,1,,,,,,,,,
293770,2022-10-05_11h00.14.634,vts_reward_expectancy,2022.2.4,MacIntel,59.99880002,Chrome,1440,900,,,,,1,1017,,,,,,,,,,,,,,,,,139,B,triangle,1,1,,,,,,,,,,,,,,,,repeat,letter,lettRpt,j,0.3976,Lo,,,,,,4,,,,,,,,low,14,0,14,0,1,,,,,,,,,
293770,2022-10-05_11h00.14.634,vts_reward_expectancy,2022.2.4,MacIntel,59.99880002,Chrome,1440,900,,,,,0,1017,,,,,,,,,,,,,,,,,146,W,hexagon,1,0,,,,,,,,,,,,,,,,repeat,letter,lettRpt,k,0.5305,Hi,,,,,,4,,,,,,,,low,15,0,15,0,1,,,,,,,,,
293770,2022-10-05_11h00.14.634,vts_reward_expectancy,2022.2.4,MacIntel,59.99880002,Chrome,1440,900,,,,,0,1017,,,,,,,,,,,,,,,,,146,H,hexagon,1,0,,,,,,,,,,,,,,,,switch,number,numSwt,d,0.7494,Hi,,,,,,4,,,,,,,,low,16,0,16,0,1,,,,,,,,,
293770,2022-10-05_11h00.14.634,vts_reward_expectancy,2022.2.4,MacIntel,59.99880002,Chrome,1440,900,,,,,1,1018,,,,,,,,,,,,,,,,,181,Y,triangle,1,0,,,,,,,,,,,,,,,,repeat,number,numRpt,f,0.4887,Lo,,,,,,4,,,,,,,,low,17,0,17,0,1,,,,,,,,,
293770,2022-10-05_11h00.14.634,vts_reward_expectancy,2022.2.4,MacIntel,59.99880002,Chrome,1440,900,,,,,1,1019,,,,,,,,,,,,,,,,,132,S,triangle,1,0,,,,,,,,,,,,,,,,repeat,number,numRpt,d,0.38,Lo,,,,,,4,,,,,,,,low,18,0,18,0,1,,,,,,,,,
293770,2022-10-05_11h00.14.634,vts_reward_expectancy,2022.2.4,MacIntel,59.99880002,Chrome,1440,900,,,,,0,1019,,,,,,,,,,,,,,,,,125,U,hexagon,0,0,,,,,,,,,,,,,,,,switch,letter,NA,j,0.3864,Lo,,,,,,4,,,,,,,,low,19,0,19,0,1,,,,,,,,,
293770,2022-10-05_11h00.14.634,vts_reward_expectancy,2022.2.4,MacIntel,59.99880002,Chrome,1440,900,,,,,0,1019,,,,,,,,,,,,,,,,,167,B,hexagon,1,1,,,,,,,,,,,,,,,,repeat,letter,lettRpt,j,0.4813,Hi,,,,,,4,,,,,,,,low,20,0,20,0,1,,,,,,,,,
293770,2022-10-05_11h00.14.634,vts_reward_expectancy,2022.2.4,MacIntel,59.99880002,Chrome,1440,900,,,,,1,1020,,,,,,,,,,,,,,,,,160,D,triangle,1,0,,,,,,,,,,,,,,,,repeat,letter,lettRpt,j,0.4117,Lo,,,,,,4,,,,,,,,low,21,0,21,0,1,,,,,,,,,
293770,2022-10-05_11h00.14.634,vts_reward_expectancy,2022.2.4,MacIntel,59.99880002,Chrome,1440,900,,,,,10,1030,,,,,,,,,,,,,,,,,139,F,triangle,1,0,,,,,,,,,,,,,,,,repeat,letter,lettRpt,j,0.4802,Lo,,,,,,4,,,,,,,,low,22,0,22,0,1,,,,,,,,,
293770,2022-10-05_11h00.14.634,vts_reward_expectancy,2022.2.4,MacIntel,59.99880002,Chrome,1440,900,,,,,1,1031,,,,,,,,,,,,,,,,,174,W,hexagon,1,0,,,,,,,,,,,,,,,,repeat,letter,lettRpt,k,0.3705,Hi,,,,,,4,,,,,,,,low,23,0,23,0,1,,,,,,,,,
293770,2022-10-05_11h00.14.634,vts_reward_expectancy,2022.2.4,MacIntel,59.99880002,Chrome,1440,900,,,,,10,1041,,,,,,,,,,,,,,,,,139,D,triangle,1,0,,,,,,,,,,,,,,,,repeat,letter,lettRpt,j,0.53,Lo,,,,,,4,,,,,,,,low,24,0,24,0,1,,,,,,,,,
293770,2022-10-05_11h00.14.634,vts_reward_expectancy,2022.2.4,MacIntel,59.99880002,Chrome,1440,900,,,,,10,1051,,,,,,,,,,,,,,,,,181,F,hexagon,1,0,,,,,,,,,,,,,,,,switch,number,numSwt,f,0.4476,Hi,,,,,,4,,,,,,,,low,25,0,25,0,1,,,,,,,,,
293770,2022-10-05_11h00.14.634,vts_reward_expectancy,2022.2.4,MacIntel,59.99880002,Chrome,1440,900,,,,,1,1052,,,,,,,,,,,,,,,,,125,B,hexagon,1,0,,,,,,,,,,,,,,,,repeat,number,numRpt,d,0.3842,Hi,,,,,,4,,,,,,,,low,26,0,26,0,1,,,,,,,,,
293770,2022-10-05_11h00.14.634,vts_reward_expectancy,2022.2.4,MacIntel,59.99880002,Chrome,1440,900,,,,,0,1052,,,,,,,,,,,,,,,,,132,S,triangle,0,0,,,,,,,,,,,,,,,,repeat,number,NA,f,0.3804,Hi,,,,,,4,,,,,,,,low,27,0,27,0,1,,,,,,,,,
293770,2022-10-05_11h00.14.634,vts_reward_expectancy,2022.2.4,MacIntel,59.99880002,Chrome,1440,900,,,,,0,1052,,,,,,,,,,,,,,,,,146,Y,hexagon,1,1,,,,,,,,,,,,,,,,repeat,number,numRpt,d,0.6293,Hi,,,,,,4,,,,,,,,low,28,0,28,0,1,,,,,,,,,
293770,2022-10-05_11h00.14.634,vts_reward_expectancy,2022.2.4,MacIntel,59.99880002,Chrome,1440,900,,,,,1,1053,,,,,,,,,,,,,,,,,174,W,triangle,1,0,,,,,,,,,,,,,,,,repeat,number,numRpt,f,0.5547,Lo,,,,,,4,,,,,,,,low,29,0,29,0,1,,,,,,,,,
293770,2022-10-05_11h00.14.634,vts_reward_expectancy,2022.2.4,MacIntel,59.99880002,Chrome,1440,900,,,,,1,1054,,,,,,,,,,,,,,,,,160,H,hexagon,1,0,,,,,,,,,,,,,,,,repeat,number,numRpt,f,0.5144,Hi,,,,,,4,,,,,,,,low,30,0,30,0,1,,,,,,,,,
293770,2022-10-05_11h00.14.634,vts_reward_expectancy,2022.2.4,MacIntel,59.99880002,Chrome,1440,900,,,,,10,1064,,,,,,,,,,,,,,,,,167,U,triangle,1,0,,,,,,,,,,,,,,,,switch,letter,lettSwt,k,0.3318,Lo,,,,,,4,,,,,,,,low,31,0,31,0,1,,,,,,,,,
293770,2022-10-05_11h00.14.634,vts_reward_expectancy,2022.2.4,MacIntel,59.99880002,Chrome,1440,900,,,,,0,1064,,,,,,,,,,,,,,,,,139,H,triangle,0,0,,,,,,,,,,,,,,,,repeat,letter,NA,k,0.5464,Lo,,,,,,5,,,,,,space,1.9911,low,0,0,0,0,1,,,,,,,,,
293770,2022-10-05_11h00.14.634,vts_reward_expectancy,2022.2.4,MacIntel,59.99880002,Chrome,1440,900,,,,,0,1064,,,,,,,,,,,,,,,,,167,D,hexagon,1,1,,,,,,,,,,,,,,,,repeat,letter,lettRpt,j,0.7472,Hi,,,,,,5,,,,,,,,low,1,0,1,0,1,,,,,,,,,
293770,2022-10-05_11h00.14.634,vts_reward_expectancy,2022.2.4,MacIntel,59.99880002,Chrome,1440,900,,,,,0,1064,,,,,,,,,,,,,,,,,132,W,triangle,0,0,,,,,,,,,,,,,,,,repeat,letter,NA,j,0.6298,Hi,,,,,,5,,,,,,,,low,2,0,2,0,1,,,,,,,,,
293770,2022-10-05_11h00.14.634,vts_reward_expectancy,2022.2.4,MacIntel,59.99880002,Chrome,1440,900,,,,,0,1064,,,,,,,,,,,,,,,,,174,B,hexagon,0,1,,,,,,,,,,,,,,,,repeat,letter,NA,k,0.3483,Hi,,,,,,5,,,,,,,,low,3,0,3,0,1,,,,,,,,,
293770,2022-10-05_11h00.14.634,vts_reward_expectancy,2022.2.4,MacIntel,59.99880002,Chrome,1440,900,,,,,0,1064,,,,,,,,,,,,,,,,,125,F,hexagon,0,1,,,,,,,,,,,,,,,,repeat,letter,NA,k,0.4142,Hi,,,,,,5,,,,,,,,low,4,0,4,0,1,,,,,,,,,
293770,2022-10-05_11h00.14.634,vts_reward_expectancy,2022.2.4,MacIntel,59.99880002,Chrome,1440,900,,,,,1,1065,,,,,,,,,,,,,,,,,181,Y,triangle,1,1,,,,,,,,,,,,,,,,repeat,letter,lettRpt,k,0.597,Lo,,,,,,5,,,,,,,,low,5,0,5,0,1,,,,,,,,,
293770,2022-10-05_11h00.14.634,vts_reward_expectancy,2022.2.4,MacIntel,59.99880002,Chrome,1440,900,,,,,10,1075,,,,,,,,,,,,,,,,,146,U,triangle,1,0,,,,,,,,,,,,,,,,switch,number,numSwt,d,0.4816,Lo,,,,,,5,,,,,,,,low,6,0,6,0,1,,,,,,,,,
293770,2022-10-05_11h00.14.634,vts_reward_expectancy,2022.2.4,MacIntel,59.99880002,Chrome,1440,900,,,,,10,1085,,,,,,,,,,,,,,,,,160,S,hexagon,1,0,,,,,,,,,,,,,,,,repeat,number,numRpt,f,0.4646,Hi,,,,,,5,,,,,,,,low,7,0,7,0,1,,,,,,,,,
293770,2022-10-05_11h00.14.634,vts_reward_expectancy,2022.2.4,MacIntel,59.99880002,Chrome,1440,900,,,,,1,1086,,,,,,,,,,,,,,,,,139,H,triangle,1,0,,,,,,,,,,,,,,,,repeat,number,numRpt,d,0.3814,Lo,,,,,,5,,,,,,,,low,8,0,8,0,1,,,,,,,,,
293770,2022-10-05_11h00.14.634,vts_reward_expectancy,2022.2.4,MacIntel,59.99880002,Chrome,1440,900,,,,,10,1096,,,,,,,,,,,,,,,,,167,D,hexagon,1,0,,,,,,,,,,,,,,,,repeat,number,numRpt,f,0.4388,Hi,,,,,,5,,,,,,,,low,9,0,9,0,1,,,,,,,,,
293770,2022-10-05_11h00.14.634,vts_reward_expectancy,2022.2.4,MacIntel,59.99880002,Chrome,1440,900,,,,,10,1106,,,,,,,,,,,,,,,,,132,W,triangle,1,0,,,,,,,,,,,,,,,,repeat,number,numRpt,d,0.5953,Lo,,,,,,5,,,,,,,,low,10,0,10,0,1,,,,,,,,,
293770,2022-10-05_11h00.14.634,vts_reward_expectancy,2022.2.4,MacIntel,59.99880002,Chrome,1440,900,,,,,10,1116,,,,,,,,,,,,,,,,,174,B,hexagon,1,0,,,,,,,,,,,,,,,,switch,letter,lettSwt,j,0.4291,Hi,,,,,,5,,,,,,,,low,11,0,11,0,1,,,,,,,,,
293770,2022-10-05_11h00.14.634,vts_reward_expectancy,2022.2.4,MacIntel,59.99880002,Chrome,1440,900,,,,,0,1116,,,,,,,,,,,,,,,,,125,F,hexagon,1,0,,,,,,,,,,,,,,,,repeat,letter,lettRpt,j,0.653,Hi,,,,,,5,,,,,,,,low,12,0,12,0,1,,,,,,,,,
293770,2022-10-05_11h00.14.634,vts_reward_expectancy,2022.2.4,MacIntel,59.99880002,Chrome,1440,900,,,,,0,1116,,,,,,,,,,,,,,,,,181,Y,triangle,0,0,,,,,,,,,,,,,,,,repeat,letter,NA,j,0.4141,Hi,,,,,,5,,,,,,,,low,13,0,13,0,1,,,,,,,,,
293770,2022-10-05_11h00.14.634,vts_reward_expectancy,2022.2.4,MacIntel,59.99880002,Chrome,1440,900,,,,,0,1116,,,,,,,,,,,,,,,,,146,U,hexagon,0,1,,,,,,,,,,,,,,,,repeat,letter,NA,j,0.3799,Hi,,,,,,5,,,,,,,,low,14,0,14,0,1,,,,,,,,,
293770,2022-10-05_11h00.14.634,vts_reward_expectancy,2022.2.4,MacIntel,59.99880002,Chrome,1440,900,,,,,0,1116,,,,,,,,,,,,,,,,,160,S,triangle,0,1,,,,,,,,,,,,,,,,repeat,letter,NA,j,0.3814,Hi,,,,,,5,,,,,,,,low,15,0,15,0,1,,,,,,,,,
293770,2022-10-05_11h00.14.634,vts_reward_expectancy,2022.2.4,MacIntel,59.99880002,Chrome,1440,900,,,,,1,1117,,,,,,,,,,,,,,,,,181,H,triangle,1,1,,,,,,,,,,,,,,,,repeat,letter,lettRpt,j,0.5798,Lo,,,,,,5,,,,,,,,low,16,0,16,0,1,,,,,,,,,
293770,2022-10-05_11h00.14.634,vts_reward_expectancy,2022.2.4,MacIntel,59.99880002,Chrome,1440,900,,,,,1,1118,,,,,,,,,,,,,,,,,160,S,hexagon,1,0,,,,,,,,,,,,,,,,repeat,letter,lettRpt,k,0.4464,Hi,,,,,,5,,,,,,,,low,17,0,17,0,1,,,,,,,,,
293770,2022-10-05_11h00.14.634,vts_reward_expectancy,2022.2.4,MacIntel,59.99880002,Chrome,1440,900,,,,,1,1119,,,,,,,,,,,,,,,,,132,D,hexagon,1,0,,,,,,,,,,,,,,,,repeat,letter,lettRpt,j,0.3814,Hi,,,,,,5,,,,,,,,low,18,0,18,0,1,,,,,,,,,
293770,2022-10-05_11h00.14.634,vts_reward_expectancy,2022.2.4,MacIntel,59.99880002,Chrome,1440,900,,,,,1,1120,,,,,,,,,,,,,,,,,167,W,triangle,1,0,,,,,,,,,,,,,,,,repeat,letter,lettRpt,k,0.3696,Lo,,,,,,5,,,,,,,,low,19,0,19,0,1,,,,,,,,,
293770,2022-10-05_11h00.14.634,vts_reward_expectancy,2022.2.4,MacIntel,59.99880002,Chrome,1440,900,,,,,0,1120,,,,,,,,,,,,,,,,,174,B,hexagon,0,0,,,,,,,,,,,,,,,,switch,number,NA,d,0.4617,Lo,,,,,,5,,,,,,,,low,20,0,20,0,1,,,,,,,,,
293770,2022-10-05_11h00.14.634,vts_reward_expectancy,2022.2.4,MacIntel,59.99880002,Chrome,1440,900,,,,,1,1121,,,,,,,,,,,,,,,,,146,Y,triangle,1,1,,,,,,,,,,,,,,,,repeat,number,numRpt,d,0.453,Lo,,,,,,5,,,,,,,,low,21,0,21,0,1,,,,,,,,,
293770,2022-10-05_11h00.14.634,vts_reward_expectancy,2022.2.4,MacIntel,59.99880002,Chrome,1440,900,,,,,10,1131,,,,,,,,,,,,,,,,,139,U,hexagon,1,0,,,,,,,,,,,,,,,,repeat,number,numRpt,d,0.3965,Hi,,,,,,5,,,,,,,,low,22,0,22,0,1,,,,,,,,,
293770,2022-10-05_11h00.14.634,vts_reward_expectancy,2022.2.4,MacIntel,59.99880002,Chrome,1440,900,,,,,10,1141,,,,,,,,,,,,,,,,,125,F,triangle,1,0,,,,,,,,,,,,,,,,switch,letter,lettSwt,j,0.4314,Lo,,,,,,5,,,,,,,,low,23,0,23,0,1,,,,,,,,,
