participant,date,expName,psychopyVersion,OS,frameRate,browser,xResolution,yResolution,key_resp.keys,key_resp.rt,training_resp.keys,training_resp.rt,points_trial,points_cumul,trainBlock,training.thisRepN,training.thisTrialN,training.thisN,training.thisIndex,training.ran,LTriangleOpac,LCircleOpac,LHexagonOpac,LStarOpac,RTriangleOpac,RCircleOpac,RHexagonOpac,RStarOpac,LShape_ID,RShape_ID,curr_topStim,curr_bottStim,curr_shape,acc,E1,target_resp_prac1.keys,pracBlock,task1_prac_trials.thisRepN,task1_prac_trials.thisTrialN,task1_prac_trials.thisN,task1_prac_trials.thisIndex,task1_prac_trials.ran,target_resp_prac1.rt,target_resp_prac2.keys,target_resp_prac2.rt,task2_praac_trials.thisRepN,task2_praac_trials.thisTrialN,task2_praac_trials.thisN,task2_praac_trials.thisIndex,task2_praac_trials.ran,alt,task,condition,target_resp.keys,target_resp.rt,rewCond,vts_practice_trials.thisRepN,vts_practice_trials.thisTrialN,vts_practice_trials.thisN,vts_practice_trials.thisIndex,vts_practice_trials.ran,blockNum,trials_norew.thisRepN,trials_norew.thisTrialN,trials_norew.thisN,trials_norew.thisIndex,trials_norew.ran,key_resp_2.keys,key_resp_2.rt,rewExpect,trials_rew.thisRepN,trials_rew.thisTrialN,trials_rew.thisN,trials_rew.thisIndex,trials_rew.ran,Q1,Q2,Q2_text,Q3,Q4,Q5_text,Q5,xRes,yRes
292732,2022-10-07_08h28.02.156,vts_reward_expectancy,2022.2.4,MacIntel,60.0024001,Chrome,1440,900,,,,,,,,,,,,,,,,,,,,,,,,,,,,,,,,,,,,,,,,,,,,,,,,,,,,,,,,,,,,,,,,,,,,,,,,,,,,
292732,2022-10-07_08h28.02.156,vts_reward_expectancy,2022.2.4,MacIntel,60.0024001,Chrome,1440,900,space,17.3569,,,,,,,,,,,,,,,,,,,,,,,,,,,,,,,,,,,,,,,,,,,,,,,,,,,,,,,,,,,,,,,,,,,,,,,,,,
292732,2022-10-07_08h28.02.156,vts_reward_expectancy,2022.2.4,MacIntel,60.0024001,Chrome,1440,900,,,,,,,,,,,,,,,,,,,,,,,,,,,,,,,,,,,,,,,,,,,,,,,,,,,,,,,,,,,,,,,,,,,,,,,,,,,,
292732,2022-10-07_08h28.02.156,vts_reward_expectancy,2022.2.4,MacIntel,60.0024001,Chrome,1440,900,,,l,1.7988,10,10,0,0,0,0,5,1,0,1,0,0,0,0,0,1,circle,star,,,,,,,,,,,,,,,,,,,,,,,,,,,,,,,,,,,,,,,,,,,,,,,,,,,,,,
292732,2022-10-07_08h28.02.156,vts_reward_expectancy,2022.2.4,MacIntel,60.0024001,Chrome,1440,900,,,a,2.5496,10,20,0,0,1,1,9,1,0,0,0,1,1,0,0,0,star,triangle,,,,,,,,,,,,,,,,,,,,,,,,,,,,,,,,,,,,,,,,,,,,,,,,,,,,,,
292732,2022-10-07_08h28.02.156,vts_reward_expectancy,2022.2.4,MacIntel,60.0024001,Chrome,1440,900,,,a,1.1552,10,30,0,0,2,2,11,1,0,0,0,1,0,0,1,0,star,hexagon,,,,,,,,,,,,,,,,,,,,,,,,,,,,,,,,,,,,,,,,,,,,,,,,,,,,,,
292732,2022-10-07_08h28.02.156,vts_reward_expectancy,2022.2.4,MacIntel,60.0024001,Chrome,1440,900,,,l,0.9479,10,40,0,0,3,3,2,1,1,0,0,0,0,0,0,1,triangle,star,,,,,,,,,,,,,,,,,,,,,,,,,,,,,,,,,,,,,,,,,,,,,,,,,,,,,,
292732,2022-10-07_08h28.02.156,vts_reward_expectancy,2022.2.4,MacIntel,60.0024001,Chrome,1440,900,,,a,2.3978,10,50,0,0,4,4,4,1,0,1,0,0,0,0,1,0,circle,hexagon,,,,,,,,,,,,,,,,,,,,,,,,,,,,,,,,,,,,,,,,,,,,,,,,,,,,,,
292732,2022-10-07_08h28.02.156,vts_reward_expectancy,2022.2.4,MacIntel,60.0024001,Chrome,1440,900,,,a,1.1341,10,60,0,0,5,5,3,1,0,1,0,0,1,0,0,0,circle,triangle,,,,,,,,,,,,,,,,,,,,,,,,,,,,,,,,,,,,,,,,,,,,,,,,,,,,,,
292732,2022-10-07_08h28.02.156,vts_reward_expectancy,2022.2.4,MacIntel,60.0024001,Chrome,1440,900,,,l,0.8495,10,70,0,0,6,6,8,1,0,0,1,0,0,0,0,1,hexagon,star,,,,,,,,,,,,,,,,,,,,,,,,,,,,,,,,,,,,,,,,,,,,,,,,,,,,,,
292732,2022-10-07_08h28.02.156,vts_reward_expectancy,2022.2.4,MacIntel,60.0024001,Chrome,1440,900,,,a,0.7673,1,71,0,0,7,7,7,1,0,0,1,0,0,1,0,0,hexagon,circle,,,,,,,,,,,,,,,,,,,,,,,,,,,,,,,,,,,,,,,,,,,,,,,,,,,,,,
292732,2022-10-07_08h28.02.156,vts_reward_expectancy,2022.2.4,MacIntel,60.0024001,Chrome,1440,900,,,a,1.5335,1,72,0,0,8,8,6,1,0,0,1,0,1,0,0,0,hexagon,triangle,,,,,,,,,,,,,,,,,,,,,,,,,,,,,,,,,,,,,,,,,,,,,,,,,,,,,,
292732,2022-10-07_08h28.02.156,vts_reward_expectancy,2022.2.4,MacIntel,60.0024001,Chrome,1440,900,,,l,2.3485,1,73,0,0,9,9,10,1,0,0,0,1,0,1,0,0,star ,circle,,,,,,,,,,,,,,,,,,,,,,,,,,,,,,,,,,,,,,,,,,,,,,,,,,,,,,
292732,2022-10-07_08h28.02.156,vts_reward_expectancy,2022.2.4,MacIntel,60.0024001,Chrome,1440,900,,,l,1.2665,1,74,0,0,10,10,0,1,1,0,0,0,0,1,0,0,triangle,circle,,,,,,,,,,,,,,,,,,,,,,,,,,,,,,,,,,,,,,,,,,,,,,,,,,,,,,
292732,2022-10-07_08h28.02.156,vts_reward_expectancy,2022.2.4,MacIntel,60.0024001,Chrome,1440,900,,,l,1.5325,10,84,0,0,11,11,1,1,1,0,0,0,0,0,1,0,triangle,hexagon,,,,,,,,,,,,,,,,,,,,,,,,,,,,,,,,,,,,,,,,,,,,,,,,,,,,,,
292732,2022-10-07_08h28.02.156,vts_reward_expectancy,2022.2.4,MacIntel,60.0024001,Chrome,1440,900,,,a,0.9491,1,85,0,1,0,12,7,1,0,0,1,0,0,1,0,0,hexagon,circle,,,,,,,,,,,,,,,,,,,,,,,,,,,,,,,,,,,,,,,,,,,,,,,,,,,,,,
292732,2022-10-07_08h28.02.156,vts_reward_expectancy,2022.2.4,MacIntel,60.0024001,Chrome,1440,900,,,l,0.6828,10,95,0,1,1,13,5,1,0,1,0,0,0,0,0,1,circle,star,,,,,,,,,,,,,,,,,,,,,,,,,,,,,,,,,,,,,,,,,,,,,,,,,,,,,,
292732,2022-10-07_08h28.02.156,vts_reward_expectancy,2022.2.4,MacIntel,60.0024001,Chrome,1440,900,,,l,0.9654,10,105,0,1,2,14,0,1,1,0,0,0,0,1,0,0,triangle,circle,,,,,,,,,,,,,,,,,,,,,,,,,,,,,,,,,,,,,,,,,,,,,,,,,,,,,,
292732,2022-10-07_08h28.02.156,vts_reward_expectancy,2022.2.4,MacIntel,60.0024001,Chrome,1440,900,,,l,1.2826,1,106,0,1,3,15,1,1,1,0,0,0,0,0,1,0,triangle,hexagon,,,,,,,,,,,,,,,,,,,,,,,,,,,,,,,,,,,,,,,,,,,,,,,,,,,,,,
292732,2022-10-07_08h28.02.156,vts_reward_expectancy,2022.2.4,MacIntel,60.0024001,Chrome,1440,900,,,a,0.8987,10,116,0,1,4,16,3,1,0,1,0,0,1,0,0,0,circle,triangle,,,,,,,,,,,,,,,,,,,,,,,,,,,,,,,,,,,,,,,,,,,,,,,,,,,,,,
292732,2022-10-07_08h28.02.156,vts_reward_expectancy,2022.2.4,MacIntel,60.0024001,Chrome,1440,900,,,a,1.0478,10,126,0,1,5,17,10,1,0,0,0,1,0,1,0,0,star ,circle,,,,,,,,,,,,,,,,,,,,,,,,,,,,,,,,,,,,,,,,,,,,,,,,,,,,,,
292732,2022-10-07_08h28.02.156,vts_reward_expectancy,2022.2.4,MacIntel,60.0024001,Chrome,1440,900,,,a,0.5656,1,127,0,1,6,18,9,1,0,0,0,1,1,0,0,0,star,triangle,,,,,,,,,,,,,,,,,,,,,,,,,,,,,,,,,,,,,,,,,,,,,,,,,,,,,,
292732,2022-10-07_08h28.02.156,vts_reward_expectancy,2022.2.4,MacIntel,60.0024001,Chrome,1440,900,,,a,0.4988,1,128,0,1,7,19,11,1,0,0,0,1,0,0,1,0,star,hexagon,,,,,,,,,,,,,,,,,,,,,,,,,,,,,,,,,,,,,,,,,,,,,,,,,,,,,,
292732,2022-10-07_08h28.02.156,vts_reward_expectancy,2022.2.4,MacIntel,60.0024001,Chrome,1440,900,,,a,1.5329,1,129,0,1,8,20,6,1,0,0,1,0,1,0,0,0,hexagon,triangle,,,,,,,,,,,,,,,,,,,,,,,,,,,,,,,,,,,,,,,,,,,,,,,,,,,,,,
292732,2022-10-07_08h28.02.156,vts_reward_expectancy,2022.2.4,MacIntel,60.0024001,Chrome,1440,900,,,a,0.9556,10,139,0,1,9,21,4,1,0,1,0,0,0,0,1,0,circle,hexagon,,,,,,,,,,,,,,,,,,,,,,,,,,,,,,,,,,,,,,,,,,,,,,,,,,,,,,
292732,2022-10-07_08h28.02.156,vts_reward_expectancy,2022.2.4,MacIntel,60.0024001,Chrome,1440,900,,,l,0.5657,10,149,0,1,10,22,8,1,0,0,1,0,0,0,0,1,hexagon,star,,,,,,,,,,,,,,,,,,,,,,,,,,,,,,,,,,,,,,,,,,,,,,,,,,,,,,
292732,2022-10-07_08h28.02.156,vts_reward_expectancy,2022.2.4,MacIntel,60.0024001,Chrome,1440,900,,,l,0.6624,10,159,0,1,11,23,2,1,1,0,0,0,0,0,0,1,triangle,star,,,,,,,,,,,,,,,,,,,,,,,,,,,,,,,,,,,,,,,,,,,,,,,,,,,,,,
292732,2022-10-07_08h28.02.156,vts_reward_expectancy,2022.2.4,MacIntel,60.0024001,Chrome,1440,900,,,a,0.4669,10,169,0,2,0,24,11,1,0,0,0,1,0,0,1,0,star,hexagon,,,,,,,,,,,,,,,,,,,,,,,,,,,,,,,,,,,,,,,,,,,,,,,,,,,,,,
292732,2022-10-07_08h28.02.156,vts_reward_expectancy,2022.2.4,MacIntel,60.0024001,Chrome,1440,900,,,a,0.5726,10,179,0,2,1,25,9,1,0,0,0,1,1,0,0,0,star,triangle,,,,,,,,,,,,,,,,,,,,,,,,,,,,,,,,,,,,,,,,,,,,,,,,,,,,,,
292732,2022-10-07_08h28.02.156,vts_reward_expectancy,2022.2.4,MacIntel,60.0024001,Chrome,1440,900,,,a,2.3695,10,189,0,2,2,26,4,1,0,1,0,0,0,0,1,0,circle,hexagon,,,,,,,,,,,,,,,,,,,,,,,,,,,,,,,,,,,,,,,,,,,,,,,,,,,,,,
292732,2022-10-07_08h28.02.156,vts_reward_expectancy,2022.2.4,MacIntel,60.0024001,Chrome,1440,900,,,a,0.8504,10,199,0,2,3,27,6,1,0,0,1,0,1,0,0,0,hexagon,triangle,,,,,,,,,,,,,,,,,,,,,,,,,,,,,,,,,,,,,,,,,,,,,,,,,,,,,,
292732,2022-10-07_08h28.02.156,vts_reward_expectancy,2022.2.4,MacIntel,60.0024001,Chrome,1440,900,,,l,1.049,10,209,0,2,4,28,0,1,1,0,0,0,0,1,0,0,triangle,circle,,,,,,,,,,,,,,,,,,,,,,,,,,,,,,,,,,,,,,,,,,,,,,,,,,,,,,
292732,2022-10-07_08h28.02.156,vts_reward_expectancy,2022.2.4,MacIntel,60.0024001,Chrome,1440,900,,,l,0.4996,10,219,0,2,5,29,2,1,1,0,0,0,0,0,0,1,triangle,star,,,,,,,,,,,,,,,,,,,,,,,,,,,,,,,,,,,,,,,,,,,,,,,,,,,,,,
292732,2022-10-07_08h28.02.156,vts_reward_expectancy,2022.2.4,MacIntel,60.0024001,Chrome,1440,900,,,l,0.4668,10,229,0,2,6,30,5,1,0,1,0,0,0,0,0,1,circle,star,,,,,,,,,,,,,,,,,,,,,,,,,,,,,,,,,,,,,,,,,,,,,,,,,,,,,,
292732,2022-10-07_08h28.02.156,vts_reward_expectancy,2022.2.4,MacIntel,60.0024001,Chrome,1440,900,,,a,0.7038,10,239,0,2,7,31,3,1,0,1,0,0,1,0,0,0,circle,triangle,,,,,,,,,,,,,,,,,,,,,,,,,,,,,,,,,,,,,,,,,,,,,,,,,,,,,,
292732,2022-10-07_08h28.02.156,vts_reward_expectancy,2022.2.4,MacIntel,60.0024001,Chrome,1440,900,,,l,0.5973,1,240,0,2,8,32,7,1,0,0,1,0,0,1,0,0,hexagon,circle,,,,,,,,,,,,,,,,,,,,,,,,,,,,,,,,,,,,,,,,,,,,,,,,,,,,,,
292732,2022-10-07_08h28.02.156,vts_reward_expectancy,2022.2.4,MacIntel,60.0024001,Chrome,1440,900,,,l,0.718,10,250,0,2,9,33,1,1,1,0,0,0,0,0,1,0,triangle,hexagon,,,,,,,,,,,,,,,,,,,,,,,,,,,,,,,,,,,,,,,,,,,,,,,,,,,,,,
292732,2022-10-07_08h28.02.156,vts_reward_expectancy,2022.2.4,MacIntel,60.0024001,Chrome,1440,900,,,a,0.7044,10,260,0,2,10,34,10,1,0,0,0,1,0,1,0,0,star ,circle,,,,,,,,,,,,,,,,,,,,,,,,,,,,,,,,,,,,,,,,,,,,,,,,,,,,,,
292732,2022-10-07_08h28.02.156,vts_reward_expectancy,2022.2.4,MacIntel,60.0024001,Chrome,1440,900,,,l,0.6517,10,270,0,2,11,35,8,1,0,0,1,0,0,0,0,1,hexagon,star,,,,,,,,,,,,,,,,,,,,,,,,,,,,,,,,,,,,,,,,,,,,,,,,,,,,,,
292732,2022-10-07_08h28.02.156,vts_reward_expectancy,2022.2.4,MacIntel,60.0024001,Chrome,1440,900,,,l,0.816,10,280,1,0,0,0,5,1,0,1,0,0,0,0,0,1,circle,star,,,,,,,,,,,,,,,,,,,,,,,,,,,,,,,,,,,,,,,,,,,,,,,,,,,,,,
292732,2022-10-07_08h28.02.156,vts_reward_expectancy,2022.2.4,MacIntel,60.0024001,Chrome,1440,900,,,a,1.6531,10,290,1,0,1,1,11,1,0,0,0,1,0,0,1,0,star,hexagon,,,,,,,,,,,,,,,,,,,,,,,,,,,,,,,,,,,,,,,,,,,,,,,,,,,,,,
292732,2022-10-07_08h28.02.156,vts_reward_expectancy,2022.2.4,MacIntel,60.0024001,Chrome,1440,900,,,l,1.301,1,291,1,0,2,2,1,1,1,0,0,0,0,0,1,0,triangle,hexagon,,,,,,,,,,,,,,,,,,,,,,,,,,,,,,,,,,,,,,,,,,,,,,,,,,,,,,
292732,2022-10-07_08h28.02.156,vts_reward_expectancy,2022.2.4,MacIntel,60.0024001,Chrome,1440,900,,,a,0.6664,10,301,1,0,3,3,9,1,0,0,0,1,1,0,0,0,star,triangle,,,,,,,,,,,,,,,,,,,,,,,,,,,,,,,,,,,,,,,,,,,,,,,,,,,,,,
292732,2022-10-07_08h28.02.156,vts_reward_expectancy,2022.2.4,MacIntel,60.0024001,Chrome,1440,900,,,a,0.5171,10,311,1,0,4,4,3,1,0,1,0,0,1,0,0,0,circle,triangle,,,,,,,,,,,,,,,,,,,,,,,,,,,,,,,,,,,,,,,,,,,,,,,,,,,,,,
292732,2022-10-07_08h28.02.156,vts_reward_expectancy,2022.2.4,MacIntel,60.0024001,Chrome,1440,900,,,a,0.7326,10,321,1,0,5,5,6,1,0,0,1,0,1,0,0,0,hexagon,triangle,,,,,,,,,,,,,,,,,,,,,,,,,,,,,,,,,,,,,,,,,,,,,,,,,,,,,,
292732,2022-10-07_08h28.02.156,vts_reward_expectancy,2022.2.4,MacIntel,60.0024001,Chrome,1440,900,,,l,0.5324,1,322,1,0,6,6,2,1,1,0,0,0,0,0,0,1,triangle,star,,,,,,,,,,,,,,,,,,,,,,,,,,,,,,,,,,,,,,,,,,,,,,,,,,,,,,
292732,2022-10-07_08h28.02.156,vts_reward_expectancy,2022.2.4,MacIntel,60.0024001,Chrome,1440,900,,,l,0.4514,10,332,1,0,7,7,8,1,0,0,1,0,0,0,0,1,hexagon,star,,,,,,,,,,,,,,,,,,,,,,,,,,,,,,,,,,,,,,,,,,,,,,,,,,,,,,
292732,2022-10-07_08h28.02.156,vts_reward_expectancy,2022.2.4,MacIntel,60.0024001,Chrome,1440,900,,,a,1.5823,1,333,1,0,8,8,0,1,1,0,0,0,0,1,0,0,triangle,circle,,,,,,,,,,,,,,,,,,,,,,,,,,,,,,,,,,,,,,,,,,,,,,,,,,,,,,
292732,2022-10-07_08h28.02.156,vts_reward_expectancy,2022.2.4,MacIntel,60.0024001,Chrome,1440,900,,,a,0.6498,1,334,1,0,9,9,10,1,0,0,0,1,0,1,0,0,star ,circle,,,,,,,,,,,,,,,,,,,,,,,,,,,,,,,,,,,,,,,,,,,,,,,,,,,,,,
292732,2022-10-07_08h28.02.156,vts_reward_expectancy,2022.2.4,MacIntel,60.0024001,Chrome,1440,900,,,l,0.5364,10,344,1,0,10,10,7,1,0,0,1,0,0,1,0,0,hexagon,circle,,,,,,,,,,,,,,,,,,,,,,,,,,,,,,,,,,,,,,,,,,,,,,,,,,,,,,
292732,2022-10-07_08h28.02.156,vts_reward_expectancy,2022.2.4,MacIntel,60.0024001,Chrome,1440,900,,,a,0.6514,1,345,1,0,11,11,4,1,0,1,0,0,0,0,1,0,circle,hexagon,,,,,,,,,,,,,,,,,,,,,,,,,,,,,,,,,,,,,,,,,,,,,,,,,,,,,,
292732,2022-10-07_08h28.02.156,vts_reward_expectancy,2022.2.4,MacIntel,60.0024001,Chrome,1440,900,,,l,0.6981,10,355,1,1,0,12,5,1,0,1,0,0,0,0,0,1,circle,star,,,,,,,,,,,,,,,,,,,,,,,,,,,,,,,,,,,,,,,,,,,,,,,,,,,,,,
292732,2022-10-07_08h28.02.156,vts_reward_expectancy,2022.2.4,MacIntel,60.0024001,Chrome,1440,900,,,l,0.5832,10,365,1,1,1,13,8,1,0,0,1,0,0,0,0,1,hexagon,star,,,,,,,,,,,,,,,,,,,,,,,,,,,,,,,,,,,,,,,,,,,,,,,,,,,,,,
292732,2022-10-07_08h28.02.156,vts_reward_expectancy,2022.2.4,MacIntel,60.0024001,Chrome,1440,900,,,a,1.1716,10,375,1,1,2,14,10,1,0,0,0,1,0,1,0,0,star ,circle,,,,,,,,,,,,,,,,,,,,,,,,,,,,,,,,,,,,,,,,,,,,,,,,,,,,,,
292732,2022-10-07_08h28.02.156,vts_reward_expectancy,2022.2.4,MacIntel,60.0024001,Chrome,1440,900,,,l,1.5388,10,385,1,1,3,15,0,1,1,0,0,0,0,1,0,0,triangle,circle,,,,,,,,,,,,,,,,,,,,,,,,,,,,,,,,,,,,,,,,,,,,,,,,,,,,,,
292732,2022-10-07_08h28.02.156,vts_reward_expectancy,2022.2.4,MacIntel,60.0024001,Chrome,1440,900,,,a,0.7506,10,395,1,1,4,16,11,1,0,0,0,1,0,0,1,0,star,hexagon,,,,,,,,,,,,,,,,,,,,,,,,,,,,,,,,,,,,,,,,,,,,,,,,,,,,,,
292732,2022-10-07_08h28.02.156,vts_reward_expectancy,2022.2.4,MacIntel,60.0024001,Chrome,1440,900,,,a,0.9335,10,405,1,1,5,17,9,1,0,0,0,1,1,0,0,0,star,triangle,,,,,,,,,,,,,,,,,,,,,,,,,,,,,,,,,,,,,,,,,,,,,,,,,,,,,,
292732,2022-10-07_08h28.02.156,vts_reward_expectancy,2022.2.4,MacIntel,60.0024001,Chrome,1440,900,,,l,0.6337,10,415,1,1,6,18,7,1,0,0,1,0,0,1,0,0,hexagon,circle,,,,,,,,,,,,,,,,,,,,,,,,,,,,,,,,,,,,,,,,,,,,,,,,,,,,,,
292732,2022-10-07_08h28.02.156,vts_reward_expectancy,2022.2.4,MacIntel,60.0024001,Chrome,1440,900,,,l,0.5488,1,416,1,1,7,19,2,1,1,0,0,0,0,0,0,1,triangle,star,,,,,,,,,,,,,,,,,,,,,,,,,,,,,,,,,,,,,,,,,,,,,,,,,,,,,,
292732,2022-10-07_08h28.02.156,vts_reward_expectancy,2022.2.4,MacIntel,60.0024001,Chrome,1440,900,,,a,0.5491,1,417,1,1,8,20,3,1,0,1,0,0,1,0,0,0,circle,triangle,,,,,,,,,,,,,,,,,,,,,,,,,,,,,,,,,,,,,,,,,,,,,,,,,,,,,,
292732,2022-10-07_08h28.02.156,vts_reward_expectancy,2022.2.4,MacIntel,60.0024001,Chrome,1440,900,,,l,0.8813,10,427,1,1,9,21,1,1,1,0,0,0,0,0,1,0,triangle,hexagon,,,,,,,,,,,,,,,,,,,,,,,,,,,,,,,,,,,,,,,,,,,,,,,,,,,,,,
292732,2022-10-07_08h28.02.156,vts_reward_expectancy,2022.2.4,MacIntel,60.0024001,Chrome,1440,900,,,l,0.5667,10,437,1,1,10,22,4,1,0,1,0,0,0,0,1,0,circle,hexagon,,,,,,,,,,,,,,,,,,,,,,,,,,,,,,,,,,,,,,,,,,,,,,,,,,,,,,
292732,2022-10-07_08h28.02.156,vts_reward_expectancy,2022.2.4,MacIntel,60.0024001,Chrome,1440,900,,,a,0.7,10,447,1,1,11,23,6,1,0,0,1,0,1,0,0,0,hexagon,triangle,,,,,,,,,,,,,,,,,,,,,,,,,,,,,,,,,,,,,,,,,,,,,,,,,,,,,,
292732,2022-10-07_08h28.02.156,vts_reward_expectancy,2022.2.4,MacIntel,60.0024001,Chrome,1440,900,,,l,0.5563,10,457,1,2,0,24,2,1,1,0,0,0,0,0,0,1,triangle,star,,,,,,,,,,,,,,,,,,,,,,,,,,,,,,,,,,,,,,,,,,,,,,,,,,,,,,
292732,2022-10-07_08h28.02.156,vts_reward_expectancy,2022.2.4,MacIntel,60.0024001,Chrome,1440,900,,,l,0.8391,10,467,1,2,1,25,0,1,1,0,0,0,0,1,0,0,triangle,circle,,,,,,,,,,,,,,,,,,,,,,,,,,,,,,,,,,,,,,,,,,,,,,,,,,,,,,
292732,2022-10-07_08h28.02.156,vts_reward_expectancy,2022.2.4,MacIntel,60.0024001,Chrome,1440,900,,,a,1.5507,1,468,1,2,2,26,5,1,0,1,0,0,0,0,0,1,circle,star,,,,,,,,,,,,,,,,,,,,,,,,,,,,,,,,,,,,,,,,,,,,,,,,,,,,,,
292732,2022-10-07_08h28.02.156,vts_reward_expectancy,2022.2.4,MacIntel,60.0024001,Chrome,1440,900,,,l,0.5161,1,469,1,2,3,27,7,1,0,0,1,0,0,1,0,0,hexagon,circle,,,,,,,,,,,,,,,,,,,,,,,,,,,,,,,,,,,,,,,,,,,,,,,,,,,,,,
292732,2022-10-07_08h28.02.156,vts_reward_expectancy,2022.2.4,MacIntel,60.0024001,Chrome,1440,900,,,l,0.5328,10,479,1,2,4,28,8,1,0,0,1,0,0,0,0,1,hexagon,star,,,,,,,,,,,,,,,,,,,,,,,,,,,,,,,,,,,,,,,,,,,,,,,,,,,,,,
292732,2022-10-07_08h28.02.156,vts_reward_expectancy,2022.2.4,MacIntel,60.0024001,Chrome,1440,900,,,a,0.6819,1,480,1,2,5,29,4,1,0,1,0,0,0,0,1,0,circle,hexagon,,,,,,,,,,,,,,,,,,,,,,,,,,,,,,,,,,,,,,,,,,,,,,,,,,,,,,
292732,2022-10-07_08h28.02.156,vts_reward_expectancy,2022.2.4,MacIntel,60.0024001,Chrome,1440,900,,,a,0.8863,10,490,1,2,6,30,6,1,0,0,1,0,1,0,0,0,hexagon,triangle,,,,,,,,,,,,,,,,,,,,,,,,,,,,,,,,,,,,,,,,,,,,,,,,,,,,,,
292732,2022-10-07_08h28.02.156,vts_reward_expectancy,2022.2.4,MacIntel,60.0024001,Chrome,1440,900,,,a,0.5158,10,500,1,2,7,31,3,1,0,1,0,0,1,0,0,0,circle,triangle,,,,,,,,,,,,,,,,,,,,,,,,,,,,,,,,,,,,,,,,,,,,,,,,,,,,,,
292732,2022-10-07_08h28.02.156,vts_reward_expectancy,2022.2.4,MacIntel,60.0024001,Chrome,1440,900,,,a,0.7066,10,510,1,2,8,32,11,1,0,0,0,1,0,0,1,0,star,hexagon,,,,,,,,,,,,,,,,,,,,,,,,,,,,,,,,,,,,,,,,,,,,,,,,,,,,,,
292732,2022-10-07_08h28.02.156,vts_reward_expectancy,2022.2.4,MacIntel,60.0024001,Chrome,1440,900,,,l,1.5227,10,520,1,2,9,33,1,1,1,0,0,0,0,0,1,0,triangle,hexagon,,,,,,,,,,,,,,,,,,,,,,,,,,,,,,,,,,,,,,,,,,,,,,,,,,,,,,
292732,2022-10-07_08h28.02.156,vts_reward_expectancy,2022.2.4,MacIntel,60.0024001,Chrome,1440,900,,,a,0.6161,10,530,1,2,10,34,9,1,0,0,0,1,1,0,0,0,star,triangle,,,,,,,,,,,,,,,,,,,,,,,,,,,,,,,,,,,,,,,,,,,,,,,,,,,,,,
292732,2022-10-07_08h28.02.156,vts_reward_expectancy,2022.2.4,MacIntel,60.0024001,Chrome,1440,900,,,l,0.8162,10,540,1,2,11,35,10,1,0,0,0,1,0,1,0,0,star ,circle,,,,,,,,,,,,,,,,,,,,,,,,,,,,,,,,,,,,,,,,,,,,,,,,,,,,,,
292732,2022-10-07_08h28.02.156,vts_reward_expectancy,2022.2.4,MacIntel,60.0024001,Chrome,1440,900,,,l,0.8917,10,550,2,0,0,0,0,1,1,0,0,0,0,1,0,0,triangle,circle,,,,,,,,,,,,,,,,,,,,,,,,,,,,,,,,,,,,,,,,,,,,,,,,,,,,,,
292732,2022-10-07_08h28.02.156,vts_reward_expectancy,2022.2.4,MacIntel,60.0024001,Chrome,1440,900,,,l,0.7744,1,551,2,0,1,1,8,1,0,0,1,0,0,0,0,1,hexagon,star,,,,,,,,,,,,,,,,,,,,,,,,,,,,,,,,,,,,,,,,,,,,,,,,,,,,,,
292732,2022-10-07_08h28.02.156,vts_reward_expectancy,2022.2.4,MacIntel,60.0024001,Chrome,1440,900,,,a,0.5619,10,561,2,0,2,2,11,1,0,0,0,1,0,0,1,0,star,hexagon,,,,,,,,,,,,,,,,,,,,,,,,,,,,,,,,,,,,,,,,,,,,,,,,,,,,,,
292732,2022-10-07_08h28.02.156,vts_reward_expectancy,2022.2.4,MacIntel,60.0024001,Chrome,1440,900,,,a,1.1835,10,571,2,0,3,3,7,1,0,0,1,0,0,1,0,0,hexagon,circle,,,,,,,,,,,,,,,,,,,,,,,,,,,,,,,,,,,,,,,,,,,,,,,,,,,,,,
292732,2022-10-07_08h28.02.156,vts_reward_expectancy,2022.2.4,MacIntel,60.0024001,Chrome,1440,900,,,a,0.7043,10,581,2,0,4,4,10,1,0,0,0,1,0,1,0,0,star ,circle,,,,,,,,,,,,,,,,,,,,,,,,,,,,,,,,,,,,,,,,,,,,,,,,,,,,,,
292732,2022-10-07_08h28.02.156,vts_reward_expectancy,2022.2.4,MacIntel,60.0024001,Chrome,1440,900,,,a,0.5643,10,591,2,0,5,5,3,1,0,1,0,0,1,0,0,0,circle,triangle,,,,,,,,,,,,,,,,,,,,,,,,,,,,,,,,,,,,,,,,,,,,,,,,,,,,,,
292732,2022-10-07_08h28.02.156,vts_reward_expectancy,2022.2.4,MacIntel,60.0024001,Chrome,1440,900,,,l,0.6491,10,601,2,0,6,6,2,1,1,0,0,0,0,0,0,1,triangle,star,,,,,,,,,,,,,,,,,,,,,,,,,,,,,,,,,,,,,,,,,,,,,,,,,,,,,,
292732,2022-10-07_08h28.02.156,vts_reward_expectancy,2022.2.4,MacIntel,60.0024001,Chrome,1440,900,,,a,0.6719,10,611,2,0,7,7,9,1,0,0,0,1,1,0,0,0,star,triangle,,,,,,,,,,,,,,,,,,,,,,,,,,,,,,,,,,,,,,,,,,,,,,,,,,,,,,
292732,2022-10-07_08h28.02.156,vts_reward_expectancy,2022.2.4,MacIntel,60.0024001,Chrome,1440,900,,,l,1.2489,10,621,2,0,8,8,4,1,0,1,0,0,0,0,1,0,circle,hexagon,,,,,,,,,,,,,,,,,,,,,,,,,,,,,,,,,,,,,,,,,,,,,,,,,,,,,,
292732,2022-10-07_08h28.02.156,vts_reward_expectancy,2022.2.4,MacIntel,60.0024001,Chrome,1440,900,,,a,0.6327,1,622,2,0,9,9,6,1,0,0,1,0,1,0,0,0,hexagon,triangle,,,,,,,,,,,,,,,,,,,,,,,,,,,,,,,,,,,,,,,,,,,,,,,,,,,,,,
292732,2022-10-07_08h28.02.156,vts_reward_expectancy,2022.2.4,MacIntel,60.0024001,Chrome,1440,900,,,l,1.1328,1,623,2,0,10,10,5,1,0,1,0,0,0,0,0,1,circle,star,,,,,,,,,,,,,,,,,,,,,,,,,,,,,,,,,,,,,,,,,,,,,,,,,,,,,,
292732,2022-10-07_08h28.02.156,vts_reward_expectancy,2022.2.4,MacIntel,60.0024001,Chrome,1440,900,,,l,0.8193,1,624,2,0,11,11,1,1,1,0,0,0,0,0,1,0,triangle,hexagon,,,,,,,,,,,,,,,,,,,,,,,,,,,,,,,,,,,,,,,,,,,,,,,,,,,,,,
292732,2022-10-07_08h28.02.156,vts_reward_expectancy,2022.2.4,MacIntel,60.0024001,Chrome,1440,900,,,a,1.4994,1,625,2,1,0,12,7,1,0,0,1,0,0,1,0,0,hexagon,circle,,,,,,,,,,,,,,,,,,,,,,,,,,,,,,,,,,,,,,,,,,,,,,,,,,,,,,
292732,2022-10-07_08h28.02.156,vts_reward_expectancy,2022.2.4,MacIntel,60.0024001,Chrome,1440,900,,,a,0.615,10,635,2,1,1,13,11,1,0,0,0,1,0,0,1,0,star,hexagon,,,,,,,,,,,,,,,,,,,,,,,,,,,,,,,,,,,,,,,,,,,,,,,,,,,,,,
292732,2022-10-07_08h28.02.156,vts_reward_expectancy,2022.2.4,MacIntel,60.0024001,Chrome,1440,900,,,l,1.0013,1,636,2,1,2,14,4,1,0,1,0,0,0,0,1,0,circle,hexagon,,,,,,,,,,,,,,,,,,,,,,,,,,,,,,,,,,,,,,,,,,,,,,,,,,,,,,
292732,2022-10-07_08h28.02.156,vts_reward_expectancy,2022.2.4,MacIntel,60.0024001,Chrome,1440,900,,,l,1.2152,10,646,2,1,3,15,0,1,1,0,0,0,0,1,0,0,triangle,circle,,,,,,,,,,,,,,,,,,,,,,,,,,,,,,,,,,,,,,,,,,,,,,,,,,,,,,
292732,2022-10-07_08h28.02.156,vts_reward_expectancy,2022.2.4,MacIntel,60.0024001,Chrome,1440,900,,,a,0.5683,10,656,2,1,4,16,9,1,0,0,0,1,1,0,0,0,star,triangle,,,,,,,,,,,,,,,,,,,,,,,,,,,,,,,,,,,,,,,,,,,,,,,,,,,,,,
292732,2022-10-07_08h28.02.156,vts_reward_expectancy,2022.2.4,MacIntel,60.0024001,Chrome,1440,900,,,a,0.4716,10,666,2,1,5,17,3,1,0,1,0,0,1,0,0,0,circle,triangle,,,,,,,,,,,,,,,,,,,,,,,,,,,,,,,,,,,,,,,,,,,,,,,,,,,,,,
292732,2022-10-07_08h28.02.156,vts_reward_expectancy,2022.2.4,MacIntel,60.0024001,Chrome,1440,900,,,l,0.6663,10,676,2,1,6,18,8,1,0,0,1,0,0,0,0,1,hexagon,star,,,,,,,,,,,,,,,,,,,,,,,,,,,,,,,,,,,,,,,,,,,,,,,,,,,,,,
292732,2022-10-07_08h28.02.156,vts_reward_expectancy,2022.2.4,MacIntel,60.0024001,Chrome,1440,900,,,a,1.4189,10,686,2,1,7,19,10,1,0,0,0,1,0,1,0,0,star ,circle,,,,,,,,,,,,,,,,,,,,,,,,,,,,,,,,,,,,,,,,,,,,,,,,,,,,,,
292732,2022-10-07_08h28.02.156,vts_reward_expectancy,2022.2.4,MacIntel,60.0024001,Chrome,1440,900,,,a,0.7075,10,696,2,1,8,20,6,1,0,0,1,0,1,0,0,0,hexagon,triangle,,,,,,,,,,,,,,,,,,,,,,,,,,,,,,,,,,,,,,,,,,,,,,,,,,,,,,
292732,2022-10-07_08h28.02.156,vts_reward_expectancy,2022.2.4,MacIntel,60.0024001,Chrome,1440,900,,,l,0.6857,10,706,2,1,9,21,5,1,0,1,0,0,0,0,0,1,circle,star,,,,,,,,,,,,,,,,,,,,,,,,,,,,,,,,,,,,,,,,,,,,,,,,,,,,,,
292732,2022-10-07_08h28.02.156,vts_reward_expectancy,2022.2.4,MacIntel,60.0024001,Chrome,1440,900,,,l,0.5492,10,716,2,1,10,22,2,1,1,0,0,0,0,0,0,1,triangle,star,,,,,,,,,,,,,,,,,,,,,,,,,,,,,,,,,,,,,,,,,,,,,,,,,,,,,,
292732,2022-10-07_08h28.02.156,vts_reward_expectancy,2022.2.4,MacIntel,60.0024001,Chrome,1440,900,,,l,0.7006,1,717,2,1,11,23,1,1,1,0,0,0,0,0,1,0,triangle,hexagon,,,,,,,,,,,,,,,,,,,,,,,,,,,,,,,,,,,,,,,,,,,,,,,,,,,,,,
292732,2022-10-07_08h28.02.156,vts_reward_expectancy,2022.2.4,MacIntel,60.0024001,Chrome,1440,900,,,l,1.0474,10,727,2,2,0,24,4,1,0,1,0,0,0,0,1,0,circle,hexagon,,,,,,,,,,,,,,,,,,,,,,,,,,,,,,,,,,,,,,,,,,,,,,,,,,,,,,
292732,2022-10-07_08h28.02.156,vts_reward_expectancy,2022.2.4,MacIntel,60.0024001,Chrome,1440,900,,,l,0.5809,10,737,2,2,1,25,7,1,0,0,1,0,0,1,0,0,hexagon,circle,,,,,,,,,,,,,,,,,,,,,,,,,,,,,,,,,,,,,,,,,,,,,,,,,,,,,,
292732,2022-10-07_08h28.02.156,vts_reward_expectancy,2022.2.4,MacIntel,60.0024001,Chrome,1440,900,,,a,0.7151,10,747,2,2,2,26,10,1,0,0,0,1,0,1,0,0,star ,circle,,,,,,,,,,,,,,,,,,,,,,,,,,,,,,,,,,,,,,,,,,,,,,,,,,,,,,
292732,2022-10-07_08h28.02.156,vts_reward_expectancy,2022.2.4,MacIntel,60.0024001,Chrome,1440,900,,,a,1.599,10,757,2,2,3,27,0,1,1,0,0,0,0,1,0,0,triangle,circle,,,,,,,,,,,,,,,,,,,,,,,,,,,,,,,,,,,,,,,,,,,,,,,,,,,,,,
292732,2022-10-07_08h28.02.156,vts_reward_expectancy,2022.2.4,MacIntel,60.0024001,Chrome,1440,900,,,a,0.7654,1,758,2,2,4,28,5,1,0,1,0,0,0,0,0,1,circle,star,,,,,,,,,,,,,,,,,,,,,,,,,,,,,,,,,,,,,,,,,,,,,,,,,,,,,,
292732,2022-10-07_08h28.02.156,vts_reward_expectancy,2022.2.4,MacIntel,60.0024001,Chrome,1440,900,,,l,0.5838,10,768,2,2,5,29,8,1,0,0,1,0,0,0,0,1,hexagon,star,,,,,,,,,,,,,,,,,,,,,,,,,,,,,,,,,,,,,,,,,,,,,,,,,,,,,,
292732,2022-10-07_08h28.02.156,vts_reward_expectancy,2022.2.4,MacIntel,60.0024001,Chrome,1440,900,,,l,0.7041,10,778,2,2,6,30,2,1,1,0,0,0,0,0,0,1,triangle,star,,,,,,,,,,,,,,,,,,,,,,,,,,,,,,,,,,,,,,,,,,,,,,,,,,,,,,
292732,2022-10-07_08h28.02.156,vts_reward_expectancy,2022.2.4,MacIntel,60.0024001,Chrome,1440,900,,,a,0.5957,10,788,2,2,7,31,9,1,0,0,0,1,1,0,0,0,star,triangle,,,,,,,,,,,,,,,,,,,,,,,,,,,,,,,,,,,,,,,,,,,,,,,,,,,,,,
292732,2022-10-07_08h28.02.156,vts_reward_expectancy,2022.2.4,MacIntel,60.0024001,Chrome,1440,900,,,a,1.3831,1,789,2,2,8,32,6,1,0,0,1,0,1,0,0,0,hexagon,triangle,,,,,,,,,,,,,,,,,,,,,,,,,,,,,,,,,,,,,,,,,,,,,,,,,,,,,,
292732,2022-10-07_08h28.02.156,vts_reward_expectancy,2022.2.4,MacIntel,60.0024001,Chrome,1440,900,,,l,0.616,1,790,2,2,9,33,1,1,1,0,0,0,0,0,1,0,triangle,hexagon,,,,,,,,,,,,,,,,,,,,,,,,,,,,,,,,,,,,,,,,,,,,,,,,,,,,,,
292732,2022-10-07_08h28.02.156,vts_reward_expectancy,2022.2.4,MacIntel,60.0024001,Chrome,1440,900,,,a,0.5494,1,791,2,2,10,34,11,1,0,0,0,1,0,0,1,0,star,hexagon,,,,,,,,,,,,,,,,,,,,,,,,,,,,,,,,,,,,,,,,,,,,,,,,,,,,,,
292732,2022-10-07_08h28.02.156,vts_reward_expectancy,2022.2.4,MacIntel,60.0024001,Chrome,1440,900,,,a,0.5643,1,792,2,2,11,35,3,1,0,1,0,0,1,0,0,0,circle,triangle,,,,,,,,,,,,,,,,,,,,,,,,,,,,,,,,,,,,,,,,,,,,,,,,,,,,,,
292732,2022-10-07_08h28.02.156,vts_reward_expectancy,2022.2.4,MacIntel,60.0024001,Chrome,1440,900,,,,,,,,,,,,,,,,,,,,,,,174,F,triangle,0,0,,0,0,0,0,0,1,,,,,,,,,,,,,,,,,,,,,,,,,,,,,,,,,,,,,,,,,,
292732,2022-10-07_08h28.02.156,vts_reward_expectancy,2022.2.4,MacIntel,60.0024001,Chrome,1440,900,,,,,,,,,,,,,,,,,,,,,,,139,W,star,1,1,d,0,1,0,1,0,1,0.8618,,,,,,,,,,,,,,,,,,,,,,,,,,,,,,,,,,,,,,,,,
292732,2022-10-07_08h28.02.156,vts_reward_expectancy,2022.2.4,MacIntel,60.0024001,Chrome,1440,900,,,,,,,,,,,,,,,,,,,,,,,167,Y,circle,1,0,f,0,2,0,2,0,1,0.6307,,,,,,,,,,,,,,,,,,,,,,,,,,,,,,,,,,,,,,,,,
292732,2022-10-07_08h28.02.156,vts_reward_expectancy,2022.2.4,MacIntel,60.0024001,Chrome,1440,900,,,,,,,,,,,,,,,,,,,,,,,160,B,hexagon,1,0,f,0,3,0,3,0,1,1.7988,,,,,,,,,,,,,,,,,,,,,,,,,,,,,,,,,,,,,,,,,
292732,2022-10-07_08h28.02.156,vts_reward_expectancy,2022.2.4,MacIntel,60.0024001,Chrome,1440,900,,,,,,,,,,,,,,,,,,,,,,,132,S,triangle,1,0,d,0,4,0,4,0,1,0.7464,,,,,,,,,,,,,,,,,,,,,,,,,,,,,,,,,,,,,,,,,
292732,2022-10-07_08h28.02.156,vts_reward_expectancy,2022.2.4,MacIntel,60.0024001,Chrome,1440,900,,,,,,,,,,,,,,,,,,,,,,,146,U,star,1,0,d,0,5,0,5,0,1,0.9307,,,,,,,,,,,,,,,,,,,,,,,,,,,,,,,,,,,,,,,,,
292732,2022-10-07_08h28.02.156,vts_reward_expectancy,2022.2.4,MacIntel,60.0024001,Chrome,1440,900,,,,,,,,,,,,,,,,,,,,,,,181,D,circle,1,0,f,0,6,0,6,0,1,0.9144,,,,,,,,,,,,,,,,,,,,,,,,,,,,,,,,,,,,,,,,,
292732,2022-10-07_08h28.02.156,vts_reward_expectancy,2022.2.4,MacIntel,60.0024001,Chrome,1440,900,,,,,,,,,,,,,,,,,,,,,,,125,H,hexagon,1,0,d,0,7,0,7,0,1,0.7472,,,,,,,,,,,,,,,,,,,,,,,,,,,,,,,,,,,,,,,,,
292732,2022-10-07_08h28.02.156,vts_reward_expectancy,2022.2.4,MacIntel,60.0024001,Chrome,1440,900,,,,,,,,,,,,,,,,,,,,,,,174,F,triangle,1,0,f,0,8,0,8,0,1,0.6308,,,,,,,,,,,,,,,,,,,,,,,,,,,,,,,,,,,,,,,,,
292732,2022-10-07_08h28.02.156,vts_reward_expectancy,2022.2.4,MacIntel,60.0024001,Chrome,1440,900,,,,,,,,,,,,,,,,,,,,,,,139,W,circle,1,0,d,0,9,0,9,0,1,0.6167,,,,,,,,,,,,,,,,,,,,,,,,,,,,,,,,,,,,,,,,,
292732,2022-10-07_08h28.02.156,vts_reward_expectancy,2022.2.4,MacIntel,60.0024001,Chrome,1440,900,,,,,,,,,,,,,,,,,,,,,,,146,B,star,1,0,,1,,,,,,,j,1.6462,0,0,0,0,1,,,,,,,,,,,,,,,,,,,,,,,,,,,,,,,,,,
292732,2022-10-07_08h28.02.156,vts_reward_expectancy,2022.2.4,MacIntel,60.0024001,Chrome,1440,900,,,,,,,,,,,,,,,,,,,,,,,181,W,hexagon,1,0,,1,,,,,,,k,0.8209,1,0,1,0,1,,,,,,,,,,,,,,,,,,,,,,,,,,,,,,,,,,
292732,2022-10-07_08h28.02.156,vts_reward_expectancy,2022.2.4,MacIntel,60.0024001,Chrome,1440,900,,,,,,,,,,,,,,,,,,,,,,,132,F,circle,1,0,,1,,,,,,,j,0.7164,2,0,2,0,1,,,,,,,,,,,,,,,,,,,,,,,,,,,,,,,,,,
292732,2022-10-07_08h28.02.156,vts_reward_expectancy,2022.2.4,MacIntel,60.0024001,Chrome,1440,900,,,,,,,,,,,,,,,,,,,,,,,139,S,triangle,1,0,,1,,,,,,,k,1.1375,3,0,3,0,1,,,,,,,,,,,,,,,,,,,,,,,,,,,,,,,,,,
292732,2022-10-07_08h28.02.156,vts_reward_expectancy,2022.2.4,MacIntel,60.0024001,Chrome,1440,900,,,,,,,,,,,,,,,,,,,,,,,125,U,star,1,0,,1,,,,,,,k,0.7126,4,0,4,0,1,,,,,,,,,,,,,,,,,,,,,,,,,,,,,,,,,,
292732,2022-10-07_08h28.02.156,vts_reward_expectancy,2022.2.4,MacIntel,60.0024001,Chrome,1440,900,,,,,,,,,,,,,,,,,,,,,,,174,D,hexagon,1,0,,1,,,,,,,j,0.6154,5,0,5,0,1,,,,,,,,,,,,,,,,,,,,,,,,,,,,,,,,,,
292732,2022-10-07_08h28.02.156,vts_reward_expectancy,2022.2.4,MacIntel,60.0024001,Chrome,1440,900,,,,,,,,,,,,,,,,,,,,,,,167,Y,circle,1,0,,1,,,,,,,k,0.754,6,0,6,0,1,,,,,,,,,,,,,,,,,,,,,,,,,,,,,,,,,,
292732,2022-10-07_08h28.02.156,vts_reward_expectancy,2022.2.4,MacIntel,60.0024001,Chrome,1440,900,,,,,,,,,,,,,,,,,,,,,,,160,H,triangle,1,0,,1,,,,,,,j,0.6293,7,0,7,0,1,,,,,,,,,,,,,,,,,,,,,,,,,,,,,,,,,,
292732,2022-10-07_08h28.02.156,vts_reward_expectancy,2022.2.4,MacIntel,60.0024001,Chrome,1440,900,,,,,,,,,,,,,,,,,,,,,,,146,B,circle,1,0,,1,,,,,,,j,0.5696,8,0,8,0,1,,,,,,,,,,,,,,,,,,,,,,,,,,,,,,,,,,
292732,2022-10-07_08h28.02.156,vts_reward_expectancy,2022.2.4,MacIntel,60.0024001,Chrome,1440,900,,,,,,,,,,,,,,,,,,,,,,,181,W,star,1,0,,1,,,,,,,k,2.1475,9,0,9,0,1,,,,,,,,,,,,,,,,,,,,,,,,,,,,,,,,,,
292732,2022-10-07_08h28.02.156,vts_reward_expectancy,2022.2.4,MacIntel,60.0024001,Chrome,1440,900,,,,,0,792,,,,,,,,,,,,,,,,,160,H,triangle,1,0,,2,,,,,,,,,,,,,,-1,number,NA,f,1.6948,vtsPrac,0,0,0,0,1,,,,,,,,,,,,,,,,,,,,,,,
292732,2022-10-07_08h28.02.156,vts_reward_expectancy,2022.2.4,MacIntel,60.0024001,Chrome,1440,900,,,,,0,792,,,,,,,,,,,,,,,,,139,U,circle,1,0,,2,,,,,,,,,,,,,,repeat,number,numRpt,d,1.0634,vtsPrac,1,0,1,0,1,,,,,,,,,,,,,,,,,,,,,,,
292732,2022-10-07_08h28.02.156,vts_reward_expectancy,2022.2.4,MacIntel,60.0024001,Chrome,1440,900,,,,,0,792,,,,,,,,,,,,,,,,,167,W,triangle,1,0,,2,,,,,,,,,,,,,,switch,letter,lettSwt,k,1.0415,vtsPrac,2,0,2,0,1,,,,,,,,,,,,,,,,,,,,,,,
292732,2022-10-07_08h28.02.156,vts_reward_expectancy,2022.2.4,MacIntel,60.0024001,Chrome,1440,900,,,,,0,792,,,,,,,,,,,,,,,,,132,Y,circle,1,0,,2,,,,,,,,,,,,,,repeat,letter,lettRpt,k,0.8518,vtsPrac,3,0,3,0,1,,,,,,,,,,,,,,,,,,,,,,,
292732,2022-10-07_08h28.02.156,vts_reward_expectancy,2022.2.4,MacIntel,60.0024001,Chrome,1440,900,,,,,0,792,,,,,,,,,,,,,,,,,160,H,star,1,0,,2,,,,,,,,,,,,,,switch,number,numSwt,f,1.2648,vtsPrac,4,0,4,0,1,,,,,,,,,,,,,,,,,,,,,,,
292732,2022-10-07_08h28.02.156,vts_reward_expectancy,2022.2.4,MacIntel,60.0024001,Chrome,1440,900,,,,,0,792,,,,,,,,,,,,,,,,,139,U,hexagon,1,0,,2,,,,,,,,,,,,,,switch,letter,lettSwt,k,0.6141,vtsPrac,5,0,5,0,1,,,,,,,,,,,,,,,,,,,,,,,
292732,2022-10-07_08h28.02.156,vts_reward_expectancy,2022.2.4,MacIntel,60.0024001,Chrome,1440,900,,,,,0,792,,,,,,,,,,,,,,,,,167,W,hexagon,1,0,,2,,,,,,,,,,,,,,switch,number,numSwt,f,0.755,vtsPrac,6,0,6,0,1,,,,,,,,,,,,,,,,,,,,,,,
292732,2022-10-07_08h28.02.156,vts_reward_expectancy,2022.2.4,MacIntel,60.0024001,Chrome,1440,900,,,,,0,792,,,,,,,,,,,,,,,,,132,Y,star,1,0,,2,,,,,,,,,,,,,,switch,letter,lettSwt,k,1.4304,vtsPrac,7,0,7,0,1,,,,,,,,,,,,,,,,,,,,,,,
292732,2022-10-07_08h28.02.156,vts_reward_expectancy,2022.2.4,MacIntel,60.0024001,Chrome,1440,900,,,,,0,792,,,,,,,,,,,,,,,,,125,W,star,1,0,,2,,,,,,,,,,,,,,switch,number,numSwt,d,0.7289,vtsPrac,8,0,8,0,1,,,,,,,,,,,,,,,,,,,,,,,
292732,2022-10-07_08h28.02.156,vts_reward_expectancy,2022.2.4,MacIntel,60.0024001,Chrome,1440,900,,,,,0,792,,,,,,,,,,,,,,,,,132,Y,triangle,1,0,,2,,,,,,,,,,,,,,switch,letter,lettSwt,k,0.9146,vtsPrac,9,0,9,0,1,,,,,,,,,,,,,,,,,,,,,,,
292732,2022-10-07_08h28.02.156,vts_reward_expectancy,2022.2.4,MacIntel,60.0024001,Chrome,1440,900,,,,,0,792,,,,,,,,,,,,,,,,,174,F,triangle,1,0,,2,,,,,,,,,,,,,,switch,number,numSwt,f,1.2488,vtsPrac,10,0,10,0,1,,,,,,,,,,,,,,,,,,,,,,,
292732,2022-10-07_08h28.02.156,vts_reward_expectancy,2022.2.4,MacIntel,60.0024001,Chrome,1440,900,,,,,0,792,,,,,,,,,,,,,,,,,181,H,circle,1,0,,2,,,,,,,,,,,,,,switch,letter,lettSwt,j,2.0926,vtsPrac,11,0,11,0,1,,,,,,,,,,,,,,,,,,,,,,,
292732,2022-10-07_08h28.02.156,vts_reward_expectancy,2022.2.4,MacIntel,60.0024001,Chrome,1440,900,,,,,0,792,,,,,,,,,,,,,,,,,181,U,circle,1,0,,2,,,,,,,,,,,,,,switch,number,numSwt,f,1.5996,vtsPrac,12,0,12,0,1,,,,,,,,,,,,,,,,,,,,,,,
292732,2022-10-07_08h28.02.156,vts_reward_expectancy,2022.2.4,MacIntel,60.0024001,Chrome,1440,900,,,,,0,792,,,,,,,,,,,,,,,,,160,B,hexagon,1,0,,2,,,,,,,,,,,,,,switch,letter,lettSwt,j,1.1815,vtsPrac,13,0,13,0,1,,,,,,,,,,,,,,,,,,,,,,,
292732,2022-10-07_08h28.02.156,vts_reward_expectancy,2022.2.4,MacIntel,60.0024001,Chrome,1440,900,,,,,0,792,,,,,,,,,,,,,,,,,125,F,star,1,0,,2,,,,,,,,,,,,,,switch,number,numSwt,d,1.001,vtsPrac,14,0,14,0,1,,,,,,,,,,,,,,,,,,,,,,,
292732,2022-10-07_08h28.02.156,vts_reward_expectancy,2022.2.4,MacIntel,60.0024001,Chrome,1440,900,,,,,0,792,,,,,,,,,,,,,,,,,146,H,hexagon,1,0,,2,,,,,,,,,,,,,,switch,letter,lettSwt,j,1.5145,vtsPrac,15,0,15,0,1,,,,,,,,,,,,,,,,,,,,,,,
292732,2022-10-07_08h28.02.156,vts_reward_expectancy,2022.2.4,MacIntel,60.0024001,Chrome,1440,900,,,,,0,792,,,,,,,,,,,,,,,,,139,B,triangle,1,0,,3,,,,,,,,,,,,,,switch,number,numSwt,d,1.4646,vtsPrac,0,0,0,0,1,,,,,,,,,,,,,,,,,,,,,,,
292732,2022-10-07_08h28.02.156,vts_reward_expectancy,2022.2.4,MacIntel,60.0024001,Chrome,1440,900,,,,,0,792,,,,,,,,,,,,,,,,,174,Y,circle,1,0,,3,,,,,,,,,,,,,,repeat,number,numRpt,f,1.1696,vtsPrac,1,0,1,0,1,,,,,,,,,,,,,,,,,,,,,,,
292732,2022-10-07_08h28.02.156,vts_reward_expectancy,2022.2.4,MacIntel,60.0024001,Chrome,1440,900,,,,,0,792,,,,,,,,,,,,,,,,,125,D,triangle,1,0,,3,,,,,,,,,,,,,,switch,letter,lettSwt,j,0.9979,vtsPrac,2,0,2,0,1,,,,,,,,,,,,,,,,,,,,,,,
292732,2022-10-07_08h28.02.156,vts_reward_expectancy,2022.2.4,MacIntel,60.0024001,Chrome,1440,900,,,,,0,792,,,,,,,,,,,,,,,,,167,U,circle,1,0,,3,,,,,,,,,,,,,,switch,number,numSwt,f,1.0488,vtsPrac,3,0,3,0,1,,,,,,,,,,,,,,,,,,,,,,,
292732,2022-10-07_08h28.02.156,vts_reward_expectancy,2022.2.4,MacIntel,60.0024001,Chrome,1440,900,,,,,0,792,,,,,,,,,,,,,,,,,139,B,star,1,0,,3,,,,,,,,,,,,,,switch,letter,lettSwt,j,0.9807,vtsPrac,4,0,4,0,1,,,,,,,,,,,,,,,,,,,,,,,
292732,2022-10-07_08h28.02.156,vts_reward_expectancy,2022.2.4,MacIntel,60.0024001,Chrome,1440,900,,,,,0,792,,,,,,,,,,,,,,,,,174,Y,triangle,1,0,,3,,,,,,,,,,,,,,repeat,letter,lettRpt,k,0.8317,vtsPrac,5,0,5,0,1,,,,,,,,,,,,,,,,,,,,,,,
292732,2022-10-07_08h28.02.156,vts_reward_expectancy,2022.2.4,MacIntel,60.0024001,Chrome,1440,900,,,,,0,792,,,,,,,,,,,,,,,,,125,D,triangle,1,0,,3,,,,,,,,,,,,,,repeat,letter,lettRpt,j,0.9274,vtsPrac,6,0,6,0,1,,,,,,,,,,,,,,,,,,,,,,,
292732,2022-10-07_08h28.02.156,vts_reward_expectancy,2022.2.4,MacIntel,60.0024001,Chrome,1440,900,,,,,0,792,,,,,,,,,,,,,,,,,167,U,circle,1,0,,3,,,,,,,,,,,,,,repeat,letter,lettRpt,k,0.6531,vtsPrac,7,0,7,0,1,,,,,,,,,,,,,,,,,,,,,,,
292732,2022-10-07_08h28.02.156,vts_reward_expectancy,2022.2.4,MacIntel,60.0024001,Chrome,1440,900,,,,,0,792,,,,,,,,,,,,,,,,,146,S,circle,1,0,,3,,,,,,,,,,,,,,switch,number,numSwt,d,1.0157,vtsPrac,8,0,8,0,1,,,,,,,,,,,,,,,,,,,,,,,
292732,2022-10-07_08h28.02.156,vts_reward_expectancy,2022.2.4,MacIntel,60.0024001,Chrome,1440,900,,,,,0,792,,,,,,,,,,,,,,,,,167,W,hexagon,1,0,,3,,,,,,,,,,,,,,switch,letter,lettSwt,k,1.2688,vtsPrac,9,0,9,0,1,,,,,,,,,,,,,,,,,,,,,,,
292732,2022-10-07_08h28.02.156,vts_reward_expectancy,2022.2.4,MacIntel,60.0024001,Chrome,1440,900,,,,,0,792,,,,,,,,,,,,,,,,,139,Y,hexagon,1,0,,3,,,,,,,,,,,,,,switch,number,numSwt,d,0.648,vtsPrac,10,0,10,0,1,,,,,,,,,,,,,,,,,,,,,,,
292732,2022-10-07_08h28.02.156,vts_reward_expectancy,2022.2.4,MacIntel,60.0024001,Chrome,1440,900,,,,,0,792,,,,,,,,,,,,,,,,,132,F,triangle,1,0,,3,,,,,,,,,,,,,,repeat,number,numRpt,d,0.7463,vtsPrac,11,0,11,0,1,,,,,,,,,,,,,,,,,,,,,,,
292732,2022-10-07_08h28.02.156,vts_reward_expectancy,2022.2.4,MacIntel,60.0024001,Chrome,1440,900,,,,,0,792,,,,,,,,,,,,,,,,,167,W,triangle,1,0,,3,,,,,,,,,,,,,,repeat,number,numRpt,f,1.0692,vtsPrac,12,0,12,0,1,,,,,,,,,,,,,,,,,,,,,,,
292732,2022-10-07_08h28.02.156,vts_reward_expectancy,2022.2.4,MacIntel,60.0024001,Chrome,1440,900,,,,,0,792,,,,,,,,,,,,,,,,,139,H,circle,1,0,,3,,,,,,,,,,,,,,switch,letter,lettSwt,j,0.9393,vtsPrac,13,0,13,0,1,,,,,,,,,,,,,,,,,,,,,,,
292732,2022-10-07_08h28.02.156,vts_reward_expectancy,2022.2.4,MacIntel,60.0024001,Chrome,1440,900,,,,,0,792,,,,,,,,,,,,,,,,,160,Y,hexagon,1,0,,3,,,,,,,,,,,,,,switch,number,numSwt,f,0.8265,vtsPrac,14,0,14,0,1,,,,,,,,,,,,,,,,,,,,,,,
292732,2022-10-07_08h28.02.156,vts_reward_expectancy,2022.2.4,MacIntel,60.0024001,Chrome,1440,900,,,,,0,792,,,,,,,,,,,,,,,,,132,D,circle,1,0,,3,,,,,,,,,,,,,,repeat,number,numRpt,d,0.7827,vtsPrac,15,0,15,0,1,,,,,,,,,,,,,,,,,,,,,,,
292732,2022-10-07_08h28.02.156,vts_reward_expectancy,2022.2.4,MacIntel,60.0024001,Chrome,1440,900,,,,,,,,,,,,,,,,,,,,,,,,,,,,,,,,,,,,,,,,,,,,,,,,,,,,,,,,,,,,,,,,,,,,,,,,,,,,
292732,2022-10-07_08h28.02.156,vts_reward_expectancy,2022.2.4,MacIntel,60.0024001,Chrome,1440,900,,,,,,,,,,,,,,,,,,,,,,,,,,,,,,,,,,,,,,,,,,,,,,,,,,,,,,,,,,,,,,,,,,,,,,,,,,,,
292732,2022-10-07_08h28.02.156,vts_reward_expectancy,2022.2.4,MacIntel,60.0024001,Chrome,1440,900,,,,,0,792,,,,,,,,,,,,,,,,,181,F,hexagon,1,0,,,,,,,,,,,,,,,,switch,letter,lettSwt,j,1.3339,noRew,,,,,,0,0,0,0,0,1,,,,,,,,,,,,,,,,,
292732,2022-10-07_08h28.02.156,vts_reward_expectancy,2022.2.4,MacIntel,60.0024001,Chrome,1440,900,,,,,0,792,,,,,,,,,,,,,,,,,132,H,triangle,1,0,,,,,,,,,,,,,,,,repeat,letter,lettRpt,j,0.965,noRew,,,,,,0,1,0,1,0,1,,,,,,,,,,,,,,,,,
292732,2022-10-07_08h28.02.156,vts_reward_expectancy,2022.2.4,MacIntel,60.0024001,Chrome,1440,900,,,,,0,792,,,,,,,,,,,,,,,,,167,W,hexagon,1,0,,,,,,,,,,,,,,,,switch,number,numSwt,f,1.3358,noRew,,,,,,0,2,0,2,0,1,,,,,,,,,,,,,,,,,
292732,2022-10-07_08h28.02.156,vts_reward_expectancy,2022.2.4,MacIntel,60.0024001,Chrome,1440,900,,,,,0,792,,,,,,,,,,,,,,,,,139,Y,triangle,1,0,,,,,,,,,,,,,,,,switch,letter,lettSwt,k,0.7647,noRew,,,,,,0,3,0,3,0,1,,,,,,,,,,,,,,,,,
292732,2022-10-07_08h28.02.156,vts_reward_expectancy,2022.2.4,MacIntel,60.0024001,Chrome,1440,900,,,,,0,792,,,,,,,,,,,,,,,,,181,F,triangle,1,0,,,,,,,,,,,,,,,,switch,number,numSwt,f,1.0479,noRew,,,,,,0,4,0,4,0,1,,,,,,,,,,,,,,,,,
292732,2022-10-07_08h28.02.156,vts_reward_expectancy,2022.2.4,MacIntel,60.0024001,Chrome,1440,900,,,,,0,792,,,,,,,,,,,,,,,,,132,H,circle,1,0,,,,,,,,,,,,,,,,repeat,number,numRpt,d,0.8796,noRew,,,,,,0,5,0,5,0,1,,,,,,,,,,,,,,,,,
292732,2022-10-07_08h28.02.156,vts_reward_expectancy,2022.2.4,MacIntel,60.0024001,Chrome,1440,900,,,,,0,792,,,,,,,,,,,,,,,,,167,W,triangle,1,0,,,,,,,,,,,,,,,,repeat,number,numRpt,f,1.1464,noRew,,,,,,0,6,0,6,0,1,,,,,,,,,,,,,,,,,
292732,2022-10-07_08h28.02.156,vts_reward_expectancy,2022.2.4,MacIntel,60.0024001,Chrome,1440,900,,,,,0,792,,,,,,,,,,,,,,,,,139,Y,hexagon,1,0,,,,,,,,,,,,,,,,switch,letter,lettSwt,k,0.8889,noRew,,,,,,0,7,0,7,0,1,,,,,,,,,,,,,,,,,
292732,2022-10-07_08h28.02.156,vts_reward_expectancy,2022.2.4,MacIntel,60.0024001,Chrome,1440,900,,,,,0,792,,,,,,,,,,,,,,,,,132,H,hexagon,1,0,,,,,,,,,,,,,,,,switch,number,numSwt,d,0.7487,noRew,,,,,,0,8,0,8,0,1,,,,,,,,,,,,,,,,,
292732,2022-10-07_08h28.02.156,vts_reward_expectancy,2022.2.4,MacIntel,60.0024001,Chrome,1440,900,,,,,0,792,,,,,,,,,,,,,,,,,174,F,triangle,0,0,,,,,,,,,,,,,,,,repeat,number,NA,d,0.9077,noRew,,,,,,0,9,0,9,0,1,,,,,,,,,,,,,,,,,
292732,2022-10-07_08h28.02.156,vts_reward_expectancy,2022.2.4,MacIntel,60.0024001,Chrome,1440,900,,,,,0,792,,,,,,,,,,,,,,,,,139,S,star,1,1,,,,,,,,,,,,,,,,switch,letter,lettSwt,k,1.0447,noRew,,,,,,0,10,0,10,0,1,,,,,,,,,,,,,,,,,
292732,2022-10-07_08h28.02.156,vts_reward_expectancy,2022.2.4,MacIntel,60.0024001,Chrome,1440,900,,,,,0,792,,,,,,,,,,,,,,,,,160,Y,hexagon,1,0,,,,,,,,,,,,,,,,repeat,letter,lettRpt,k,0.615,noRew,,,,,,0,11,0,11,0,1,,,,,,,,,,,,,,,,,
292732,2022-10-07_08h28.02.156,vts_reward_expectancy,2022.2.4,MacIntel,60.0024001,Chrome,1440,900,,,,,0,792,,,,,,,,,,,,,,,,,167,Y,triangle,1,0,,,,,,,,,,,,,,,,repeat,letter,lettRpt,k,0.6882,noRew,,,,,,0,12,0,12,0,1,,,,,,,,,,,,,,,,,
292732,2022-10-07_08h28.02.156,vts_reward_expectancy,2022.2.4,MacIntel,60.0024001,Chrome,1440,900,,,,,0,792,,,,,,,,,,,,,,,,,160,H,star,1,0,,,,,,,,,,,,,,,,repeat,letter,lettRpt,j,2.4456,noRew,,,,,,0,13,0,13,0,1,,,,,,,,,,,,,,,,,
292732,2022-10-07_08h28.02.156,vts_reward_expectancy,2022.2.4,MacIntel,60.0024001,Chrome,1440,900,,,,,0,792,,,,,,,,,,,,,,,,,132,W,star,1,0,,,,,,,,,,,,,,,,switch,number,numSwt,d,1.2654,noRew,,,,,,0,14,0,14,0,1,,,,,,,,,,,,,,,,,
292732,2022-10-07_08h28.02.156,vts_reward_expectancy,2022.2.4,MacIntel,60.0024001,Chrome,1440,900,,,,,0,792,,,,,,,,,,,,,,,,,125,D,hexagon,1,0,,,,,,,,,,,,,,,,repeat,number,numRpt,d,0.7956,noRew,,,,,,0,15,0,15,0,1,,,,,,,,,,,,,,,,,
292732,2022-10-07_08h28.02.156,vts_reward_expectancy,2022.2.4,MacIntel,60.0024001,Chrome,1440,900,,,,,0,792,,,,,,,,,,,,,,,,,146,H,hexagon,1,0,,,,,,,,,,,,,,,,repeat,number,numRpt,d,2.3151,noRew,,,,,,0,16,0,16,0,1,,,,,,,,,,,,,,,,,
292732,2022-10-07_08h28.02.156,vts_reward_expectancy,2022.2.4,MacIntel,60.0024001,Chrome,1440,900,,,,,0,792,,,,,,,,,,,,,,,,,167,B,circle,1,0,,,,,,,,,,,,,,,,switch,letter,lettSwt,j,1.1651,noRew,,,,,,0,17,0,17,0,1,,,,,,,,,,,,,,,,,
292732,2022-10-07_08h28.02.156,vts_reward_expectancy,2022.2.4,MacIntel,60.0024001,Chrome,1440,900,,,,,0,792,,,,,,,,,,,,,,,,,125,D,star,1,0,,,,,,,,,,,,,,,,switch,number,numSwt,d,0.6814,noRew,,,,,,0,18,0,18,0,1,,,,,,,,,,,,,,,,,
292732,2022-10-07_08h28.02.156,vts_reward_expectancy,2022.2.4,MacIntel,60.0024001,Chrome,1440,900,,,,,0,792,,,,,,,,,,,,,,,,,139,S,hexagon,1,0,,,,,,,,,,,,,,,,switch,letter,lettSwt,k,1.1318,noRew,,,,,,0,19,0,19,0,1,,,,,,,,,,,,,,,,,
292732,2022-10-07_08h28.02.156,vts_reward_expectancy,2022.2.4,MacIntel,60.0024001,Chrome,1440,900,,,,,0,792,,,,,,,,,,,,,,,,,146,W,star,1,0,,,,,,,,,,,,,,,,repeat,letter,lettRpt,k,0.7128,noRew,,,,,,0,20,0,20,0,1,,,,,,,,,,,,,,,,,
292732,2022-10-07_08h28.02.156,vts_reward_expectancy,2022.2.4,MacIntel,60.0024001,Chrome,1440,900,,,,,0,792,,,,,,,,,,,,,,,,,174,B,circle,1,0,,,,,,,,,,,,,,,,repeat,letter,lettRpt,j,0.785,noRew,,,,,,0,21,0,21,0,1,,,,,,,,,,,,,,,,,
292732,2022-10-07_08h28.02.156,vts_reward_expectancy,2022.2.4,MacIntel,60.0024001,Chrome,1440,900,,,,,0,792,,,,,,,,,,,,,,,,,167,F,circle,1,0,,,,,,,,,,,,,,,,switch,number,numSwt,f,1.0504,noRew,,,,,,0,22,0,22,0,1,,,,,,,,,,,,,,,,,
292732,2022-10-07_08h28.02.156,vts_reward_expectancy,2022.2.4,MacIntel,60.0024001,Chrome,1440,900,,,,,0,792,,,,,,,,,,,,,,,,,181,Y,hexagon,1,0,,,,,,,,,,,,,,,,repeat,number,numRpt,f,0.9179,noRew,,,,,,0,23,0,23,0,1,,,,,,,,,,,,,,,,,
292732,2022-10-07_08h28.02.156,vts_reward_expectancy,2022.2.4,MacIntel,60.0024001,Chrome,1440,900,,,,,0,792,,,,,,,,,,,,,,,,,167,B,circle,1,0,,,,,,,,,,,,,,,,switch,letter,lettSwt,j,0.695,noRew,,,,,,0,24,0,24,0,1,,,,,,,,,,,,,,,,,
292732,2022-10-07_08h28.02.156,vts_reward_expectancy,2022.2.4,MacIntel,60.0024001,Chrome,1440,900,,,,,0,792,,,,,,,,,,,,,,,,,146,W,star,1,0,,,,,,,,,,,,,,,,repeat,letter,lettRpt,k,0.8204,noRew,,,,,,0,25,0,25,0,1,,,,,,,,,,,,,,,,,
292732,2022-10-07_08h28.02.156,vts_reward_expectancy,2022.2.4,MacIntel,60.0024001,Chrome,1440,900,,,,,0,792,,,,,,,,,,,,,,,,,181,Y,circle,1,0,,,,,,,,,,,,,,,,repeat,letter,lettRpt,k,0.5473,noRew,,,,,,0,26,0,26,0,1,,,,,,,,,,,,,,,,,
292732,2022-10-07_08h28.02.156,vts_reward_expectancy,2022.2.4,MacIntel,60.0024001,Chrome,1440,900,,,,,0,792,,,,,,,,,,,,,,,,,125,F,triangle,1,0,,,,,,,,,,,,,,,,switch,number,numSwt,d,0.6962,noRew,,,,,,0,27,0,27,0,1,,,,,,,,,,,,,,,,,
292732,2022-10-07_08h28.02.156,vts_reward_expectancy,2022.2.4,MacIntel,60.0024001,Chrome,1440,900,,,,,0,792,,,,,,,,,,,,,,,,,132,B,circle,1,0,,,,,,,,,,,,,,,,repeat,number,numRpt,d,0.7811,noRew,,,,,,0,28,0,28,0,1,,,,,,,,,,,,,,,,,
292732,2022-10-07_08h28.02.156,vts_reward_expectancy,2022.2.4,MacIntel,60.0024001,Chrome,1440,900,,,,,0,792,,,,,,,,,,,,,,,,,146,Y,star,1,0,,,,,,,,,,,,,,,,switch,letter,lettSwt,k,0.564,noRew,,,,,,0,29,0,29,0,1,,,,,,,,,,,,,,,,,
292732,2022-10-07_08h28.02.156,vts_reward_expectancy,2022.2.4,MacIntel,60.0024001,Chrome,1440,900,,,,,0,792,,,,,,,,,,,,,,,,,160,D,triangle,1,0,,,,,,,,,,,,,,,,switch,number,numSwt,f,0.9806,noRew,,,,,,0,30,0,30,0,1,,,,,,,,,,,,,,,,,
292732,2022-10-07_08h28.02.156,vts_reward_expectancy,2022.2.4,MacIntel,60.0024001,Chrome,1440,900,,,,,0,792,,,,,,,,,,,,,,,,,174,S,star,1,0,,,,,,,,,,,,,,,,switch,letter,lettSwt,k,1.7143,noRew,,,,,,0,31,0,31,0,1,,,,,,,,,,,,,,,,,
292732,2022-10-07_08h28.02.156,vts_reward_expectancy,2022.2.4,MacIntel,60.0024001,Chrome,1440,900,,,,,0,792,,,,,,,,,,,,,,,,,167,F,star,1,0,,,,,,,,,,,,,,,,repeat,letter,lettRpt,j,0.7517,noRew,,,,,,0,32,0,32,0,1,,,,,,,,,,,,,,,,,
292732,2022-10-07_08h28.02.156,vts_reward_expectancy,2022.2.4,MacIntel,60.0024001,Chrome,1440,900,,,,,0,792,,,,,,,,,,,,,,,,,160,B,circle,1,0,,,,,,,,,,,,,,,,switch,number,numSwt,f,0.6655,noRew,,,,,,0,33,0,33,0,1,,,,,,,,,,,,,,,,,
292732,2022-10-07_08h28.02.156,vts_reward_expectancy,2022.2.4,MacIntel,60.0024001,Chrome,1440,900,,,,,0,792,,,,,,,,,,,,,,,,,181,S,star,1,0,,,,,,,,,,,,,,,,switch,letter,lettSwt,k,0.8263,noRew,,,,,,0,34,0,34,0,1,,,,,,,,,,,,,,,,,
292732,2022-10-07_08h28.02.156,vts_reward_expectancy,2022.2.4,MacIntel,60.0024001,Chrome,1440,900,,,,,0,792,,,,,,,,,,,,,,,,,125,D,hexagon,1,0,,,,,,,,,,,,,,,,switch,number,numSwt,d,1.0308,noRew,,,,,,0,35,0,35,0,1,,,,,,,,,,,,,,,,,
292732,2022-10-07_08h28.02.156,vts_reward_expectancy,2022.2.4,MacIntel,60.0024001,Chrome,1440,900,,,,,0,792,,,,,,,,,,,,,,,,,132,B,circle,1,0,,,,,,,,,,,,,,,,repeat,number,numRpt,d,0.9952,noRew,,,,,,0,36,0,36,0,1,,,,,,,,,,,,,,,,,
292732,2022-10-07_08h28.02.156,vts_reward_expectancy,2022.2.4,MacIntel,60.0024001,Chrome,1440,900,,,,,0,792,,,,,,,,,,,,,,,,,174,Y,hexagon,1,0,,,,,,,,,,,,,,,,switch,letter,lettSwt,k,0.7794,noRew,,,,,,0,37,0,37,0,1,,,,,,,,,,,,,,,,,
292732,2022-10-07_08h28.02.156,vts_reward_expectancy,2022.2.4,MacIntel,60.0024001,Chrome,1440,900,,,,,0,792,,,,,,,,,,,,,,,,,139,H,star,1,0,,,,,,,,,,,,,,,,switch,number,numSwt,d,1.2797,noRew,,,,,,0,38,0,38,0,1,,,,,,,,,,,,,,,,,
292732,2022-10-07_08h28.02.156,vts_reward_expectancy,2022.2.4,MacIntel,60.0024001,Chrome,1440,900,,,,,0,792,,,,,,,,,,,,,,,,,146,S,circle,1,0,,,,,,,,,,,,,,,,repeat,number,numRpt,d,0.5475,noRew,,,,,,0,39,0,39,0,1,,,,,,,,,,,,,,,,,
292732,2022-10-07_08h28.02.156,vts_reward_expectancy,2022.2.4,MacIntel,60.0024001,Chrome,1440,900,,,,,0,792,,,,,,,,,,,,,,,,,181,D,hexagon,1,0,,,,,,,,,,,,,,,,repeat,number,numRpt,f,0.8151,noRew,,,,,,0,40,0,40,0,1,,,,,,,,,,,,,,,,,
292732,2022-10-07_08h28.02.156,vts_reward_expectancy,2022.2.4,MacIntel,60.0024001,Chrome,1440,900,,,,,0,792,,,,,,,,,,,,,,,,,160,S,triangle,1,0,,,,,,,,,,,,,,,,switch,letter,lettSwt,k,1.164,noRew,,,,,,0,41,0,41,0,1,,,,,,,,,,,,,,,,,
292732,2022-10-07_08h28.02.156,vts_reward_expectancy,2022.2.4,MacIntel,60.0024001,Chrome,1440,900,,,,,0,792,,,,,,,,,,,,,,,,,132,F,hexagon,1,0,,,,,,,,,,,,,,,,repeat,letter,lettRpt,j,1.5026,noRew,,,,,,0,42,0,42,0,1,,,,,,,,,,,,,,,,,
292732,2022-10-07_08h28.02.156,vts_reward_expectancy,2022.2.4,MacIntel,60.0024001,Chrome,1440,900,,,,,0,792,,,,,,,,,,,,,,,,,146,U,triangle,1,0,,,,,,,,,,,,,,,,repeat,letter,lettRpt,k,0.6479,noRew,,,,,,0,43,0,43,0,1,,,,,,,,,,,,,,,,,
292732,2022-10-07_08h28.02.156,vts_reward_expectancy,2022.2.4,MacIntel,60.0024001,Chrome,1440,900,,,,,0,792,,,,,,,,,,,,,,,,,160,W,triangle,1,0,,,,,,,,,,,,,,,,repeat,letter,lettRpt,k,1.4213,noRew,,,,,,0,44,0,44,0,1,,,,,,,,,,,,,,,,,
292732,2022-10-07_08h28.02.156,vts_reward_expectancy,2022.2.4,MacIntel,60.0024001,Chrome,1440,900,,,,,0,792,,,,,,,,,,,,,,,,,167,F,star,1,0,,,,,,,,,,,,,,,,switch,number,numSwt,f,1.597,noRew,,,,,,0,45,0,45,0,1,,,,,,,,,,,,,,,,,
292732,2022-10-07_08h28.02.156,vts_reward_expectancy,2022.2.4,MacIntel,60.0024001,Chrome,1440,900,,,,,0,792,,,,,,,,,,,,,,,,,181,Y,hexagon,1,0,,,,,,,,,,,,,,,,repeat,number,numRpt,f,1.0199,noRew,,,,,,0,46,0,46,0,1,,,,,,,,,,,,,,,,,
292732,2022-10-07_08h28.02.156,vts_reward_expectancy,2022.2.4,MacIntel,60.0024001,Chrome,1440,900,,,,,0,792,,,,,,,,,,,,,,,,,132,B,star,1,0,,,,,,,,,,,,,,,,switch,letter,lettSwt,j,0.7966,noRew,,,,,,0,47,0,47,0,1,,,,,,,,,,,,,,,,,
292732,2022-10-07_08h28.02.156,vts_reward_expectancy,2022.2.4,MacIntel,60.0024001,Chrome,1440,900,,,,,0,792,,,,,,,,,,,,,,,,,174,H,triangle,1,0,,,,,,,,,,,,,,,,switch,number,numSwt,f,1.4026,noRew,,,,,,0,48,0,48,0,1,,,,,,,,,,,,,,,,,
292732,2022-10-07_08h28.02.156,vts_reward_expectancy,2022.2.4,MacIntel,60.0024001,Chrome,1440,900,,,,,0,792,,,,,,,,,,,,,,,,,139,U,star,1,0,,,,,,,,,,,,,,,,repeat,number,numRpt,d,0.7358,noRew,,,,,,0,49,0,49,0,1,,,,,,,,,,,,,,,,,
292732,2022-10-07_08h28.02.156,vts_reward_expectancy,2022.2.4,MacIntel,60.0024001,Chrome,1440,900,,,,,0,792,,,,,,,,,,,,,,,,,132,D,circle,1,0,,,,,,,,,,,,,,,,switch,letter,lettSwt,j,0.6298,noRew,,,,,,0,50,0,50,0,1,,,,,,,,,,,,,,,,,
292732,2022-10-07_08h28.02.156,vts_reward_expectancy,2022.2.4,MacIntel,60.0024001,Chrome,1440,900,,,,,0,792,,,,,,,,,,,,,,,,,125,Y,hexagon,1,0,,,,,,,,,,,,,,,,repeat,letter,lettRpt,k,0.6121,noRew,,,,,,0,51,0,51,0,1,,,,,,,,,,,,,,,,,
292732,2022-10-07_08h28.02.156,vts_reward_expectancy,2022.2.4,MacIntel,60.0024001,Chrome,1440,900,,,,,0,792,,,,,,,,,,,,,,,,,125,Y,star,1,0,,,,,,,,,,,,,,,,switch,number,numSwt,d,0.852,noRew,,,,,,0,52,0,52,0,1,,,,,,,,,,,,,,,,,
292732,2022-10-07_08h28.02.156,vts_reward_expectancy,2022.2.4,MacIntel,60.0024001,Chrome,1440,900,,,,,0,792,,,,,,,,,,,,,,,,,139,F,hexagon,1,0,,,,,,,,,,,,,,,,repeat,number,numRpt,d,1.1854,noRew,,,,,,0,53,0,53,0,1,,,,,,,,,,,,,,,,,
292732,2022-10-07_08h28.02.156,vts_reward_expectancy,2022.2.4,MacIntel,60.0024001,Chrome,1440,900,,,,,0,792,,,,,,,,,,,,,,,,,174,S,circle,1,0,,,,,,,,,,,,,,,,repeat,number,numRpt,f,1.5142,noRew,,,,,,0,54,0,54,0,1,,,,,,,,,,,,,,,,,
292732,2022-10-07_08h28.02.156,vts_reward_expectancy,2022.2.4,MacIntel,60.0024001,Chrome,1440,900,,,,,0,792,,,,,,,,,,,,,,,,,160,D,triangle,1,0,,,,,,,,,,,,,,,,switch,letter,lettSwt,j,1.8128,noRew,,,,,,0,55,0,55,0,1,,,,,,,,,,,,,,,,,
292732,2022-10-07_08h28.02.156,vts_reward_expectancy,2022.2.4,MacIntel,60.0024001,Chrome,1440,900,,,,,0,792,,,,,,,,,,,,,,,,,146,S,triangle,1,0,,,,,,,,,,,,,,,,switch,number,numSwt,d,1.2619,noRew,,,,,,0,56,0,56,0,1,,,,,,,,,,,,,,,,,
292732,2022-10-07_08h28.02.156,vts_reward_expectancy,2022.2.4,MacIntel,60.0024001,Chrome,1440,900,,,,,0,792,,,,,,,,,,,,,,,,,125,U,star,1,0,,,,,,,,,,,,,,,,switch,letter,lettSwt,k,0.8151,noRew,,,,,,0,57,0,57,0,1,,,,,,,,,,,,,,,,,
292732,2022-10-07_08h28.02.156,vts_reward_expectancy,2022.2.4,MacIntel,60.0024001,Chrome,1440,900,,,,,0,792,,,,,,,,,,,,,,,,,181,D,circle,-1,0,,,,,,,,,,,,,,,,switch,no_choice,NA,,,noRew,,,,,,0,58,0,58,0,1,,,,,,,,,,,,,,,,,
292732,2022-10-07_08h28.02.156,vts_reward_expectancy,2022.2.4,MacIntel,60.0024001,Chrome,1440,900,,,,,0,792,,,,,,,,,,,,,,,,,167,F,star,1,0,,,,,,,,,,,,,,,,switch,number,numSwt,f,0.8964,noRew,,,,,,0,59,0,59,0,1,,,,,,,,,,,,,,,,,
292732,2022-10-07_08h28.02.156,vts_reward_expectancy,2022.2.4,MacIntel,60.0024001,Chrome,1440,900,,,,,0,792,,,,,,,,,,,,,,,,,146,S,triangle,1,0,,,,,,,,,,,,,,,,switch,letter,lettSwt,k,0.836,noRew,,,,,,0,60,0,60,0,1,,,,,,,,,,,,,,,,,
292732,2022-10-07_08h28.02.156,vts_reward_expectancy,2022.2.4,MacIntel,60.0024001,Chrome,1440,900,,,,,0,792,,,,,,,,,,,,,,,,,160,H,star,1,0,,,,,,,,,,,,,,,,switch,number,numSwt,f,0.8799,noRew,,,,,,0,61,0,61,0,1,,,,,,,,,,,,,,,,,
292732,2022-10-07_08h28.02.156,vts_reward_expectancy,2022.2.4,MacIntel,60.0024001,Chrome,1440,900,,,,,0,792,,,,,,,,,,,,,,,,,132,W,circle,1,0,,,,,,,,,,,,,,,,repeat,number,numRpt,d,0.7992,noRew,,,,,,0,62,0,62,0,1,,,,,,,,,,,,,,,,,
292732,2022-10-07_08h28.02.156,vts_reward_expectancy,2022.2.4,MacIntel,60.0024001,Chrome,1440,900,,,,,0,792,,,,,,,,,,,,,,,,,125,D,triangle,1,0,,,,,,,,,,,,,,,,switch,letter,lettSwt,j,0.717,noRew,,,,,,0,63,0,63,0,1,,,,,,,,,,,,,,,,,
292732,2022-10-07_08h28.02.156,vts_reward_expectancy,2022.2.4,MacIntel,60.0024001,Chrome,1440,900,,,,,,,,,,,,,,,,,,,,,,,,,,,,,,,,,,,,,,,,,,,,,,,,,,,,,,,,,,,,,,,,,,,,,,,,,,,,
292732,2022-10-07_08h28.02.156,vts_reward_expectancy,2022.2.4,MacIntel,60.0024001,Chrome,1440,900,,,,,10,802,,,,,,,,,,,,,,,,,132,U,triangle,1,0,,,,,,,,,,,,,,,,switch,number,numSwt,d,1.3189,Lo,,,,,,0,,,,,,space,5.369,high,0,0,0,0,1,,,,,,,,,
292732,2022-10-07_08h28.02.156,vts_reward_expectancy,2022.2.4,MacIntel,60.0024001,Chrome,1440,900,,,,,0,802,,,,,,,,,,,,,,,,,181,Y,star,1,0,,,,,,,,,,,,,,,,switch,letter,lettSwt,k,1.2681,Hi,,,,,,0,,,,,,,,high,1,0,1,0,1,,,,,,,,,
292732,2022-10-07_08h28.02.156,vts_reward_expectancy,2022.2.4,MacIntel,60.0024001,Chrome,1440,900,,,,,1,803,,,,,,,,,,,,,,,,,174,H,triangle,1,0,,,,,,,,,,,,,,,,repeat,letter,lettRpt,j,0.5547,Lo,,,,,,0,,,,,,,,high,2,0,2,0,1,,,,,,,,,
292732,2022-10-07_08h28.02.156,vts_reward_expectancy,2022.2.4,MacIntel,60.0024001,Chrome,1440,900,,,,,0,803,,,,,,,,,,,,,,,,,139,B,star,0,0,,,,,,,,,,,,,,,,switch,number,NA,f,1.2296,Lo,,,,,,0,,,,,,,,high,3,0,3,0,1,,,,,,,,,
292732,2022-10-07_08h28.02.156,vts_reward_expectancy,2022.2.4,MacIntel,60.0024001,Chrome,1440,900,,,,,0,803,,,,,,,,,,,,,,,,,146,W,star,1,1,,,,,,,,,,,,,,,,repeat,number,numRpt,d,0.9215,Hi,,,,,,0,,,,,,,,high,4,0,4,0,1,,,,,,,,,
292732,2022-10-07_08h28.02.156,vts_reward_expectancy,2022.2.4,MacIntel,60.0024001,Chrome,1440,900,,,,,1,804,,,,,,,,,,,,,,,,,167,S,triangle,1,0,,,,,,,,,,,,,,,,switch,letter,lettSwt,k,1.8982,Lo,,,,,,0,,,,,,,,high,5,0,5,0,1,,,,,,,,,
292732,2022-10-07_08h28.02.156,vts_reward_expectancy,2022.2.4,MacIntel,60.0024001,Chrome,1440,900,,,,,0,804,,,,,,,,,,,,,,,,,160,F,star,1,0,,,,,,,,,,,,,,,,repeat,letter,lettRpt,j,0.7664,Hi,,,,,,0,,,,,,,,high,6,0,6,0,1,,,,,,,,,
292732,2022-10-07_08h28.02.156,vts_reward_expectancy,2022.2.4,MacIntel,60.0024001,Chrome,1440,900,,,,,1,805,,,,,,,,,,,,,,,,,125,D,triangle,1,0,,,,,,,,,,,,,,,,switch,number,numSwt,d,1.1801,Lo,,,,,,0,,,,,,,,high,7,0,7,0,1,,,,,,,,,
292732,2022-10-07_08h28.02.156,vts_reward_expectancy,2022.2.4,MacIntel,60.0024001,Chrome,1440,900,,,,,0,805,,,,,,,,,,,,,,,,,132,U,star,1,0,,,,,,,,,,,,,,,,repeat,number,numRpt,d,1.1145,Hi,,,,,,0,,,,,,,,high,8,0,8,0,1,,,,,,,,,
292732,2022-10-07_08h28.02.156,vts_reward_expectancy,2022.2.4,MacIntel,60.0024001,Chrome,1440,900,,,,,1,806,,,,,,,,,,,,,,,,,181,Y,triangle,1,0,,,,,,,,,,,,,,,,switch,letter,lettSwt,k,0.8064,Lo,,,,,,0,,,,,,,,high,9,0,9,0,1,,,,,,,,,
292732,2022-10-07_08h28.02.156,vts_reward_expectancy,2022.2.4,MacIntel,60.0024001,Chrome,1440,900,,,,,0,806,,,,,,,,,,,,,,,,,174,H,star,1,0,,,,,,,,,,,,,,,,switch,number,numSwt,f,1.1308,Hi,,,,,,0,,,,,,,,high,10,0,10,0,1,,,,,,,,,
292732,2022-10-07_08h28.02.156,vts_reward_expectancy,2022.2.4,MacIntel,60.0024001,Chrome,1440,900,,,,,1,807,,,,,,,,,,,,,,,,,139,B,triangle,1,0,,,,,,,,,,,,,,,,repeat,number,numRpt,d,0.7319,Lo,,,,,,0,,,,,,,,high,11,0,11,0,1,,,,,,,,,
292732,2022-10-07_08h28.02.156,vts_reward_expectancy,2022.2.4,MacIntel,60.0024001,Chrome,1440,900,,,,,1,808,,,,,,,,,,,,,,,,,146,W,star,1,0,,,,,,,,,,,,,,,,repeat,number,numRpt,d,0.7486,Hi,,,,,,0,,,,,,,,high,12,0,12,0,1,,,,,,,,,
292732,2022-10-07_08h28.02.156,vts_reward_expectancy,2022.2.4,MacIntel,60.0024001,Chrome,1440,900,,,,,10,818,,,,,,,,,,,,,,,,,167,S,triangle,1,0,,,,,,,,,,,,,,,,switch,letter,lettSwt,k,0.9476,Lo,,,,,,0,,,,,,,,high,13,0,13,0,1,,,,,,,,,
292732,2022-10-07_08h28.02.156,vts_reward_expectancy,2022.2.4,MacIntel,60.0024001,Chrome,1440,900,,,,,0,818,,,,,,,,,,,,,,,,,160,F,star,1,0,,,,,,,,,,,,,,,,repeat,letter,lettRpt,j,1.3456,Hi,,,,,,0,,,,,,,,high,14,0,14,0,1,,,,,,,,,
292732,2022-10-07_08h28.02.156,vts_reward_expectancy,2022.2.4,MacIntel,60.0024001,Chrome,1440,900,,,,,1,819,,,,,,,,,,,,,,,,,125,D,triangle,1,0,,,,,,,,,,,,,,,,switch,number,numSwt,d,0.803,Lo,,,,,,0,,,,,,,,high,15,0,15,0,1,,,,,,,,,
292732,2022-10-07_08h28.02.156,vts_reward_expectancy,2022.2.4,MacIntel,60.0024001,Chrome,1440,900,,,,,10,829,,,,,,,,,,,,,,,,,132,S,triangle,1,0,,,,,,,,,,,,,,,,switch,letter,lettSwt,k,0.9638,Lo,,,,,,0,,,,,,,,high,16,0,16,0,1,,,,,,,,,
292732,2022-10-07_08h28.02.156,vts_reward_expectancy,2022.2.4,MacIntel,60.0024001,Chrome,1440,900,,,,,10,839,,,,,,,,,,,,,,,,,181,Y,star,1,0,,,,,,,,,,,,,,,,switch,number,numSwt,f,0.6181,Hi,,,,,,0,,,,,,,,high,17,0,17,0,1,,,,,,,,,
292732,2022-10-07_08h28.02.156,vts_reward_expectancy,2022.2.4,MacIntel,60.0024001,Chrome,1440,900,,,,,0,839,,,,,,,,,,,,,,,,,125,H,star,0,0,,,,,,,,,,,,,,,,repeat,number,NA,f,0.6647,Hi,,,,,,0,,,,,,,,high,18,0,18,0,1,,,,,,,,,
292732,2022-10-07_08h28.02.156,vts_reward_expectancy,2022.2.4,MacIntel,60.0024001,Chrome,1440,900,,,,,1,840,,,,,,,,,,,,,,,,,146,B,triangle,1,1,,,,,,,,,,,,,,,,repeat,number,numRpt,d,1.1304,Lo,,,,,,0,,,,,,,,high,19,0,19,0,1,,,,,,,,,
292732,2022-10-07_08h28.02.156,vts_reward_expectancy,2022.2.4,MacIntel,60.0024001,Chrome,1440,900,,,,,0,840,,,,,,,,,,,,,,,,,160,W,star,1,0,,,,,,,,,,,,,,,,repeat,number,numRpt,f,1.1306,Hi,,,,,,0,,,,,,,,high,20,0,20,0,1,,,,,,,,,
292732,2022-10-07_08h28.02.156,vts_reward_expectancy,2022.2.4,MacIntel,60.0024001,Chrome,1440,900,,,,,1,841,,,,,,,,,,,,,,,,,174,D,triangle,1,0,,,,,,,,,,,,,,,,switch,letter,lettSwt,j,0.6134,Lo,,,,,,0,,,,,,,,high,21,0,21,0,1,,,,,,,,,
292732,2022-10-07_08h28.02.156,vts_reward_expectancy,2022.2.4,MacIntel,60.0024001,Chrome,1440,900,,,,,10,851,,,,,,,,,,,,,,,,,139,U,star,1,0,,,,,,,,,,,,,,,,repeat,letter,lettRpt,k,0.513,Hi,,,,,,0,,,,,,,,high,22,0,22,0,1,,,,,,,,,
292732,2022-10-07_08h28.02.156,vts_reward_expectancy,2022.2.4,MacIntel,60.0024001,Chrome,1440,900,,,,,1,852,,,,,,,,,,,,,,,,,167,F,triangle,1,0,,,,,,,,,,,,,,,,repeat,letter,lettRpt,j,1.0377,Lo,,,,,,0,,,,,,,,high,23,0,23,0,1,,,,,,,,,
292732,2022-10-07_08h28.02.156,vts_reward_expectancy,2022.2.4,MacIntel,60.0024001,Chrome,1440,900,,,,,10,862,,,,,,,,,,,,,,,,,181,F,star,1,0,,,,,,,,,,,,,,,,repeat,letter,lettRpt,j,0.6333,Hi,,,,,,0,,,,,,,,high,24,0,24,0,1,,,,,,,,,
292732,2022-10-07_08h28.02.156,vts_reward_expectancy,2022.2.4,MacIntel,60.0024001,Chrome,1440,900,,,,,1,863,,,,,,,,,,,,,,,,,160,H,triangle,1,0,,,,,,,,,,,,,,,,switch,number,numSwt,f,0.6188,Lo,,,,,,0,,,,,,,,high,25,0,25,0,1,,,,,,,,,
292732,2022-10-07_08h28.02.156,vts_reward_expectancy,2022.2.4,MacIntel,60.0024001,Chrome,1440,900,,,,,10,873,,,,,,,,,,,,,,,,,132,S,triangle,1,0,,,,,,,,,,,,,,,,repeat,number,numRpt,d,0.7691,Lo,,,,,,0,,,,,,,,high,26,0,26,0,1,,,,,,,,,
292732,2022-10-07_08h28.02.156,vts_reward_expectancy,2022.2.4,MacIntel,60.0024001,Chrome,1440,900,,,,,10,883,,,,,,,,,,,,,,,,,146,B,star,1,0,,,,,,,,,,,,,,,,repeat,number,numRpt,d,0.6996,Hi,,,,,,0,,,,,,,,high,27,0,27,0,1,,,,,,,,,
292732,2022-10-07_08h28.02.156,vts_reward_expectancy,2022.2.4,MacIntel,60.0024001,Chrome,1440,900,,,,,10,893,,,,,,,,,,,,,,,,,139,Y,star,1,0,,,,,,,,,,,,,,,,switch,letter,lettSwt,k,0.6481,Hi,,,,,,0,,,,,,,,high,28,0,28,0,1,,,,,,,,,
292732,2022-10-07_08h28.02.156,vts_reward_expectancy,2022.2.4,MacIntel,60.0024001,Chrome,1440,900,,,,,0,893,,,,,,,,,,,,,,,,,174,W,triangle,0,0,,,,,,,,,,,,,,,,repeat,letter,NA,j,0.5641,Hi,,,,,,0,,,,,,,,high,29,0,29,0,1,,,,,,,,,
292732,2022-10-07_08h28.02.156,vts_reward_expectancy,2022.2.4,MacIntel,60.0024001,Chrome,1440,900,,,,,1,894,,,,,,,,,,,,,,,,,167,D,triangle,1,1,,,,,,,,,,,,,,,,repeat,letter,lettRpt,j,0.6632,Lo,,,,,,0,,,,,,,,high,30,0,30,0,1,,,,,,,,,
292732,2022-10-07_08h28.02.156,vts_reward_expectancy,2022.2.4,MacIntel,60.0024001,Chrome,1440,900,,,,,10,904,,,,,,,,,,,,,,,,,125,U,star,1,0,,,,,,,,,,,,,,,,repeat,letter,lettRpt,k,0.6552,Hi,,,,,,0,,,,,,,,high,31,0,31,0,1,,,,,,,,,
292732,2022-10-07_08h28.02.156,vts_reward_expectancy,2022.2.4,MacIntel,60.0024001,Chrome,1440,900,,,,,10,914,,,,,,,,,,,,,,,,,132,H,triangle,1,0,,,,,,,,,,,,,,,,repeat,letter,lettRpt,j,0.93,Lo,,,,,,1,,,,,,space,1.7352,high,0,0,0,0,1,,,,,,,,,
292732,2022-10-07_08h28.02.156,vts_reward_expectancy,2022.2.4,MacIntel,60.0024001,Chrome,1440,900,,,,,1,915,,,,,,,,,,,,,,,,,139,U,star,1,0,,,,,,,,,,,,,,,,repeat,letter,lettRpt,k,0.6129,Hi,,,,,,1,,,,,,,,high,1,0,1,0,1,,,,,,,,,
292732,2022-10-07_08h28.02.156,vts_reward_expectancy,2022.2.4,MacIntel,60.0024001,Chrome,1440,900,,,,,10,925,,,,,,,,,,,,,,,,,125,F,triangle,1,0,,,,,,,,,,,,,,,,switch,number,numSwt,d,0.7973,Lo,,,,,,1,,,,,,,,high,2,0,2,0,1,,,,,,,,,
292732,2022-10-07_08h28.02.156,vts_reward_expectancy,2022.2.4,MacIntel,60.0024001,Chrome,1440,900,,,,,10,935,,,,,,,,,,,,,,,,,146,W,star,1,0,,,,,,,,,,,,,,,,switch,letter,lettSwt,k,0.747,Hi,,,,,,1,,,,,,,,high,3,0,3,0,1,,,,,,,,,
292732,2022-10-07_08h28.02.156,vts_reward_expectancy,2022.2.4,MacIntel,60.0024001,Chrome,1440,900,,,,,1,936,,,,,,,,,,,,,,,,,167,B,triangle,1,0,,,,,,,,,,,,,,,,repeat,letter,lettRpt,j,0.5655,Lo,,,,,,1,,,,,,,,high,4,0,4,0,1,,,,,,,,,
292732,2022-10-07_08h28.02.156,vts_reward_expectancy,2022.2.4,MacIntel,60.0024001,Chrome,1440,900,,,,,0,936,,,,,,,,,,,,,,,,,174,Y,star,1,0,,,,,,,,,,,,,,,,switch,number,numSwt,f,0.8112,Hi,,,,,,1,,,,,,,,high,5,0,5,0,1,,,,,,,,,
292732,2022-10-07_08h28.02.156,vts_reward_expectancy,2022.2.4,MacIntel,60.0024001,Chrome,1440,900,,,,,1,937,,,,,,,,,,,,,,,,,160,D,star,1,0,,,,,,,,,,,,,,,,repeat,number,numRpt,f,0.596,Hi,,,,,,1,,,,,,,,high,6,0,6,0,1,,,,,,,,,
292732,2022-10-07_08h28.02.156,vts_reward_expectancy,2022.2.4,MacIntel,60.0024001,Chrome,1440,900,,,,,1,938,,,,,,,,,,,,,,,,,181,S,triangle,1,0,,,,,,,,,,,,,,,,repeat,number,numRpt,f,0.8551,Lo,,,,,,1,,,,,,,,high,7,0,7,0,1,,,,,,,,,
292732,2022-10-07_08h28.02.156,vts_reward_expectancy,2022.2.4,MacIntel,60.0024001,Chrome,1440,900,,,,,10,948,,,,,,,,,,,,,,,,,132,H,star,1,0,,,,,,,,,,,,,,,,switch,letter,lettSwt,j,0.7632,Hi,,,,,,1,,,,,,,,high,8,0,8,0,1,,,,,,,,,
292732,2022-10-07_08h28.02.156,vts_reward_expectancy,2022.2.4,MacIntel,60.0024001,Chrome,1440,900,,,,,1,949,,,,,,,,,,,,,,,,,139,U,triangle,1,0,,,,,,,,,,,,,,,,switch,number,numSwt,d,0.8491,Lo,,,,,,1,,,,,,,,high,9,0,9,0,1,,,,,,,,,
292732,2022-10-07_08h28.02.156,vts_reward_expectancy,2022.2.4,MacIntel,60.0024001,Chrome,1440,900,,,,,10,959,,,,,,,,,,,,,,,,,125,F,star,1,0,,,,,,,,,,,,,,,,switch,letter,lettSwt,j,0.596,Hi,,,,,,1,,,,,,,,high,10,0,10,0,1,,,,,,,,,
292732,2022-10-07_08h28.02.156,vts_reward_expectancy,2022.2.4,MacIntel,60.0024001,Chrome,1440,900,,,,,10,969,,,,,,,,,,,,,,,,,146,W,triangle,1,0,,,,,,,,,,,,,,,,switch,number,numSwt,d,1.1903,Lo,,,,,,1,,,,,,,,high,11,0,11,0,1,,,,,,,,,
292732,2022-10-07_08h28.02.156,vts_reward_expectancy,2022.2.4,MacIntel,60.0024001,Chrome,1440,900,,,,,10,979,,,,,,,,,,,,,,,,,167,B,star,1,0,,,,,,,,,,,,,,,,repeat,number,numRpt,f,0.7135,Hi,,,,,,1,,,,,,,,high,12,0,12,0,1,,,,,,,,,
292732,2022-10-07_08h28.02.156,vts_reward_expectancy,2022.2.4,MacIntel,60.0024001,Chrome,1440,900,,,,,10,989,,,,,,,,,,,,,,,,,174,Y,triangle,1,0,,,,,,,,,,,,,,,,repeat,number,numRpt,f,0.7807,Lo,,,,,,1,,,,,,,,high,13,0,13,0,1,,,,,,,,,
292732,2022-10-07_08h28.02.156,vts_reward_expectancy,2022.2.4,MacIntel,60.0024001,Chrome,1440,900,,,,,1,990,,,,,,,,,,,,,,,,,160,D,triangle,1,0,,,,,,,,,,,,,,,,repeat,number,numRpt,f,0.9325,Lo,,,,,,1,,,,,,,,high,14,0,14,0,1,,,,,,,,,
292732,2022-10-07_08h28.02.156,vts_reward_expectancy,2022.2.4,MacIntel,60.0024001,Chrome,1440,900,,,,,1,991,,,,,,,,,,,,,,,,,181,S,star,1,0,,,,,,,,,,,,,,,,switch,letter,lettSwt,k,0.7136,Hi,,,,,,1,,,,,,,,high,15,0,15,0,1,,,,,,,,,
292732,2022-10-07_08h28.02.156,vts_reward_expectancy,2022.2.4,MacIntel,60.0024001,Chrome,1440,900,,,,,1,992,,,,,,,,,,,,,,,,,139,S,triangle,1,0,,,,,,,,,,,,,,,,repeat,letter,lettRpt,k,0.9993,Lo,,,,,,1,,,,,,,,high,16,0,16,0,1,,,,,,,,,
292732,2022-10-07_08h28.02.156,vts_reward_expectancy,2022.2.4,MacIntel,60.0024001,Chrome,1440,900,,,,,0,992,,,,,,,,,,,,,,,,,146,H,star,1,0,,,,,,,,,,,,,,,,repeat,letter,lettRpt,j,1.0811,Hi,,,,,,1,,,,,,,,high,17,0,17,0,1,,,,,,,,,
292732,2022-10-07_08h28.02.156,vts_reward_expectancy,2022.2.4,MacIntel,60.0024001,Chrome,1440,900,,,,,1,993,,,,,,,,,,,,,,,,,132,U,triangle,1,0,,,,,,,,,,,,,,,,repeat,letter,lettRpt,k,0.7504,Lo,,,,,,1,,,,,,,,high,18,0,18,0,1,,,,,,,,,
292732,2022-10-07_08h28.02.156,vts_reward_expectancy,2022.2.4,MacIntel,60.0024001,Chrome,1440,900,,,,,0,993,,,,,,,,,,,,,,,,,167,Y,star,1,0,,,,,,,,,,,,,,,,repeat,letter,lettRpt,k,0.6878,Hi,,,,,,1,,,,,,,,high,19,0,19,0,1,,,,,,,,,
292732,2022-10-07_08h28.02.156,vts_reward_expectancy,2022.2.4,MacIntel,60.0024001,Chrome,1440,900,,,,,10,1003,,,,,,,,,,,,,,,,,160,W,triangle,1,0,,,,,,,,,,,,,,,,repeat,letter,lettRpt,k,0.7301,Lo,,,,,,1,,,,,,,,high,20,0,20,0,1,,,,,,,,,
292732,2022-10-07_08h28.02.156,vts_reward_expectancy,2022.2.4,MacIntel,60.0024001,Chrome,1440,900,,,,,0,1003,,,,,,,,,,,,,,,,,174,D,star,1,0,,,,,,,,,,,,,,,,repeat,letter,lettRpt,j,0.7976,Hi,,,,,,1,,,,,,,,high,21,0,21,0,1,,,,,,,,,
292732,2022-10-07_08h28.02.156,vts_reward_expectancy,2022.2.4,MacIntel,60.0024001,Chrome,1440,900,,,,,1,1004,,,,,,,,,,,,,,,,,181,F,star,1,0,,,,,,,,,,,,,,,,switch,number,numSwt,f,0.5238,Hi,,,,,,1,,,,,,,,high,22,0,22,0,1,,,,,,,,,
292732,2022-10-07_08h28.02.156,vts_reward_expectancy,2022.2.4,MacIntel,60.0024001,Chrome,1440,900,,,,,1,1005,,,,,,,,,,,,,,,,,125,B,triangle,1,0,,,,,,,,,,,,,,,,switch,letter,lettSwt,j,0.6965,Lo,,,,,,1,,,,,,,,high,23,0,23,0,1,,,,,,,,,
292732,2022-10-07_08h28.02.156,vts_reward_expectancy,2022.2.4,MacIntel,60.0024001,Chrome,1440,900,,,,,1,1006,,,,,,,,,,,,,,,,,174,Y,triangle,1,0,,,,,,,,,,,,,,,,switch,number,numSwt,f,0.6593,Lo,,,,,,1,,,,,,,,high,24,0,24,0,1,,,,,,,,,
292732,2022-10-07_08h28.02.156,vts_reward_expectancy,2022.2.4,MacIntel,60.0024001,Chrome,1440,900,,,,,0,1006,,,,,,,,,,,,,,,,,146,S,star,1,0,,,,,,,,,,,,,,,,repeat,number,numRpt,d,0.9544,Hi,,,,,,1,,,,,,,,high,25,0,25,0,1,,,,,,,,,
292732,2022-10-07_08h28.02.156,vts_reward_expectancy,2022.2.4,MacIntel,60.0024001,Chrome,1440,900,,,,,10,1016,,,,,,,,,,,,,,,,,139,B,star,1,0,,,,,,,,,,,,,,,,switch,letter,lettSwt,j,0.4636,Hi,,,,,,1,,,,,,,,high,26,0,26,0,1,,,,,,,,,
292732,2022-10-07_08h28.02.156,vts_reward_expectancy,2022.2.4,MacIntel,60.0024001,Chrome,1440,900,,,,,1,1017,,,,,,,,,,,,,,,,,181,W,triangle,1,0,,,,,,,,,,,,,,,,repeat,letter,lettRpt,k,0.796,Lo,,,,,,1,,,,,,,,high,27,0,27,0,1,,,,,,,,,
292732,2022-10-07_08h28.02.156,vts_reward_expectancy,2022.2.4,MacIntel,60.0024001,Chrome,1440,900,,,,,10,1027,,,,,,,,,,,,,,,,,125,U,star,1,0,,,,,,,,,,,,,,,,repeat,letter,lettRpt,k,0.6294,Hi,,,,,,1,,,,,,,,high,28,0,28,0,1,,,,,,,,,
292732,2022-10-07_08h28.02.156,vts_reward_expectancy,2022.2.4,MacIntel,60.0024001,Chrome,1440,900,,,,,10,1037,,,,,,,,,,,,,,,,,160,F,triangle,1,0,,,,,,,,,,,,,,,,switch,number,numSwt,f,0.7132,Lo,,,,,,1,,,,,,,,high,29,0,29,0,1,,,,,,,,,
292732,2022-10-07_08h28.02.156,vts_reward_expectancy,2022.2.4,MacIntel,60.0024001,Chrome,1440,900,,,,,1,1038,,,,,,,,,,,,,,,,,132,D,triangle,1,0,,,,,,,,,,,,,,,,repeat,number,numRpt,d,0.6963,Lo,,,,,,1,,,,,,,,high,30,0,30,0,1,,,,,,,,,
292732,2022-10-07_08h28.02.156,vts_reward_expectancy,2022.2.4,MacIntel,60.0024001,Chrome,1440,900,,,,,10,1048,,,,,,,,,,,,,,,,,167,H,star,1,0,,,,,,,,,,,,,,,,switch,letter,lettSwt,j,0.4995,Hi,,,,,,1,,,,,,,,high,31,0,31,0,1,,,,,,,,,
292732,2022-10-07_08h28.02.156,vts_reward_expectancy,2022.2.4,MacIntel,60.0024001,Chrome,1440,900,,,,,0,1048,,,,,,,,,,,,,,,,,132,S,circle,1,0,,,,,,,,,,,,,,,,switch,number,numSwt,d,0.8116,Hi,,,,,,2,,,,,,space,1.2913,low,0,0,0,0,1,,,,,,,,,
292732,2022-10-07_08h28.02.156,vts_reward_expectancy,2022.2.4,MacIntel,60.0024001,Chrome,1440,900,,,,,10,1058,,,,,,,,,,,,,,,,,160,Y,hexagon,1,0,,,,,,,,,,,,,,,,switch,letter,lettSwt,k,0.5467,Lo,,,,,,2,,,,,,,,low,1,0,1,0,1,,,,,,,,,
292732,2022-10-07_08h28.02.156,vts_reward_expectancy,2022.2.4,MacIntel,60.0024001,Chrome,1440,900,,,,,1,1059,,,,,,,,,,,,,,,,,174,U,circle,1,0,,,,,,,,,,,,,,,,repeat,letter,lettRpt,k,0.5986,Hi,,,,,,2,,,,,,,,low,2,0,2,0,1,,,,,,,,,
292732,2022-10-07_08h28.02.156,vts_reward_expectancy,2022.2.4,MacIntel,60.0024001,Chrome,1440,900,,,,,1,1060,,,,,,,,,,,,,,,,,139,H,hexagon,1,0,,,,,,,,,,,,,,,,repeat,letter,lettRpt,j,1.7999,Lo,,,,,,2,,,,,,,,low,3,0,3,0,1,,,,,,,,,
292732,2022-10-07_08h28.02.156,vts_reward_expectancy,2022.2.4,MacIntel,60.0024001,Chrome,1440,900,,,,,1,1061,,,,,,,,,,,,,,,,,125,D,hexagon,1,0,,,,,,,,,,,,,,,,repeat,letter,lettRpt,j,0.6657,Lo,,,,,,2,,,,,,,,low,4,0,4,0,1,,,,,,,,,
292732,2022-10-07_08h28.02.156,vts_reward_expectancy,2022.2.4,MacIntel,60.0024001,Chrome,1440,900,,,,,10,1071,,,,,,,,,,,,,,,,,181,F,circle,1,0,,,,,,,,,,,,,,,,repeat,letter,lettRpt,j,0.5975,Hi,,,,,,2,,,,,,,,low,5,0,5,0,1,,,,,,,,,
292732,2022-10-07_08h28.02.156,vts_reward_expectancy,2022.2.4,MacIntel,60.0024001,Chrome,1440,900,,,,,0,1071,,,,,,,,,,,,,,,,,167,W,circle,1,0,,,,,,,,,,,,,,,,repeat,letter,lettRpt,k,0.7298,Hi,,,,,,2,,,,,,,,low,6,0,6,0,1,,,,,,,,,
292732,2022-10-07_08h28.02.156,vts_reward_expectancy,2022.2.4,MacIntel,60.0024001,Chrome,1440,900,,,,,10,1081,,,,,,,,,,,,,,,,,146,B,hexagon,1,0,,,,,,,,,,,,,,,,switch,number,numSwt,d,1.1517,Lo,,,,,,2,,,,,,,,low,7,0,7,0,1,,,,,,,,,
292732,2022-10-07_08h28.02.156,vts_reward_expectancy,2022.2.4,MacIntel,60.0024001,Chrome,1440,900,,,,,0,1081,,,,,,,,,,,,,,,,,132,S,circle,1,0,,,,,,,,,,,,,,,,repeat,number,numRpt,d,0.8129,Hi,,,,,,2,,,,,,,,low,8,0,8,0,1,,,,,,,,,
292732,2022-10-07_08h28.02.156,vts_reward_expectancy,2022.2.4,MacIntel,60.0024001,Chrome,1440,900,,,,,10,1091,,,,,,,,,,,,,,,,,160,Y,hexagon,1,0,,,,,,,,,,,,,,,,switch,letter,lettSwt,k,0.7307,Lo,,,,,,2,,,,,,,,low,9,0,9,0,1,,,,,,,,,
292732,2022-10-07_08h28.02.156,vts_reward_expectancy,2022.2.4,MacIntel,60.0024001,Chrome,1440,900,,,,,0,1091,,,,,,,,,,,,,,,,,174,U,circle,1,0,,,,,,,,,,,,,,,,repeat,letter,lettRpt,k,0.7546,Hi,,,,,,2,,,,,,,,low,10,0,10,0,1,,,,,,,,,
292732,2022-10-07_08h28.02.156,vts_reward_expectancy,2022.2.4,MacIntel,60.0024001,Chrome,1440,900,,,,,1,1092,,,,,,,,,,,,,,,,,139,H,hexagon,1,0,,,,,,,,,,,,,,,,switch,number,numSwt,d,0.6352,Lo,,,,,,2,,,,,,,,low,11,0,11,0,1,,,,,,,,,
292732,2022-10-07_08h28.02.156,vts_reward_expectancy,2022.2.4,MacIntel,60.0024001,Chrome,1440,900,,,,,10,1102,,,,,,,,,,,,,,,,,125,D,hexagon,1,0,,,,,,,,,,,,,,,,switch,letter,lettSwt,j,0.6194,Lo,,,,,,2,,,,,,,,low,12,0,12,0,1,,,,,,,,,
292732,2022-10-07_08h28.02.156,vts_reward_expectancy,2022.2.4,MacIntel,60.0024001,Chrome,1440,900,,,,,1,1103,,,,,,,,,,,,,,,,,181,F,circle,1,0,,,,,,,,,,,,,,,,switch,number,numSwt,f,0.5339,Hi,,,,,,2,,,,,,,,low,13,0,13,0,1,,,,,,,,,
292732,2022-10-07_08h28.02.156,vts_reward_expectancy,2022.2.4,MacIntel,60.0024001,Chrome,1440,900,,,,,0,1103,,,,,,,,,,,,,,,,,167,W,circle,0,0,,,,,,,,,,,,,,,,repeat,number,NA,d,1.3483,Hi,,,,,,2,,,,,,,,low,14,0,14,0,1,,,,,,,,,
292732,2022-10-07_08h28.02.156,vts_reward_expectancy,2022.2.4,MacIntel,60.0024001,Chrome,1440,900,,,,,10,1113,,,,,,,,,,,,,,,,,146,B,hexagon,1,1,,,,,,,,,,,,,,,,repeat,number,numRpt,d,0.6083,Lo,,,,,,2,,,,,,,,low,15,0,15,0,1,,,,,,,,,
292732,2022-10-07_08h28.02.156,vts_reward_expectancy,2022.2.4,MacIntel,60.0024001,Chrome,1440,900,,,,,1,1114,,,,,,,,,,,,,,,,,160,S,hexagon,1,0,,,,,,,,,,,,,,,,switch,letter,lettSwt,k,0.5667,Lo,,,,,,2,,,,,,,,low,16,0,16,0,1,,,,,,,,,
292732,2022-10-07_08h28.02.156,vts_reward_expectancy,2022.2.4,MacIntel,60.0024001,Chrome,1440,900,,,,,10,1124,,,,,,,,,,,,,,,,,125,U,circle,1,0,,,,,,,,,,,,,,,,switch,number,numSwt,d,0.5347,Hi,,,,,,2,,,,,,,,low,17,0,17,0,1,,,,,,,,,
292732,2022-10-07_08h28.02.156,vts_reward_expectancy,2022.2.4,MacIntel,60.0024001,Chrome,1440,900,,,,,10,1134,,,,,,,,,,,,,,,,,146,Y,hexagon,1,0,,,,,,,,,,,,,,,,switch,letter,lettSwt,k,0.6984,Lo,,,,,,2,,,,,,,,low,18,0,18,0,1,,,,,,,,,
292732,2022-10-07_08h28.02.156,vts_reward_expectancy,2022.2.4,MacIntel,60.0024001,Chrome,1440,900,,,,,10,1144,,,,,,,,,,,,,,,,,181,W,circle,1,0,,,,,,,,,,,,,,,,repeat,letter,lettRpt,k,0.6298,Hi,,,,,,2,,,,,,,,low,19,0,19,0,1,,,,,,,,,
292732,2022-10-07_08h28.02.156,vts_reward_expectancy,2022.2.4,MacIntel,60.0024001,Chrome,1440,900,,,,,10,1154,,,,,,,,,,,,,,,,,139,D,circle,1,0,,,,,,,,,,,,,,,,repeat,letter,lettRpt,j,0.5284,Hi,,,,,,2,,,,,,,,low,20,0,20,0,1,,,,,,,,,
292732,2022-10-07_08h28.02.156,vts_reward_expectancy,2022.2.4,MacIntel,60.0024001,Chrome,1440,900,,,,,1,1155,,,,,,,,,,,,,,,,,132,B,hexagon,1,0,,,,,,,,,,,,,,,,switch,number,numSwt,d,0.5132,Lo,,,,,,2,,,,,,,,low,21,0,21,0,1,,,,,,,,,
292732,2022-10-07_08h28.02.156,vts_reward_expectancy,2022.2.4,MacIntel,60.0024001,Chrome,1440,900,,,,,10,1165,,,,,,,,,,,,,,,,,174,F,hexagon,1,0,,,,,,,,,,,,,,,,switch,letter,lettSwt,j,0.6965,Lo,,,,,,2,,,,,,,,low,22,0,22,0,1,,,,,,,,,
292732,2022-10-07_08h28.02.156,vts_reward_expectancy,2022.2.4,MacIntel,60.0024001,Chrome,1440,900,,,,,0,1165,,,,,,,,,,,,,,,,,167,H,circle,0,0,,,,,,,,,,,,,,,,switch,number,NA,d,0.8454,Lo,,,,,,2,,,,,,,,low,23,0,23,0,1,,,,,,,,,
292732,2022-10-07_08h28.02.156,vts_reward_expectancy,2022.2.4,MacIntel,60.0024001,Chrome,1440,900,,,,,10,1175,,,,,,,,,,,,,,,,,125,W,hexagon,1,1,,,,,,,,,,,,,,,,repeat,number,numRpt,d,0.6987,Lo,,,,,,2,,,,,,,,low,24,0,24,0,1,,,,,,,,,
292732,2022-10-07_08h28.02.156,vts_reward_expectancy,2022.2.4,MacIntel,60.0024001,Chrome,1440,900,,,,,0,1175,,,,,,,,,,,,,,,,,146,S,circle,1,0,,,,,,,,,,,,,,,,repeat,number,numRpt,d,1.4208,Hi,,,,,,2,,,,,,,,low,25,0,25,0,1,,,,,,,,,
292732,2022-10-07_08h28.02.156,vts_reward_expectancy,2022.2.4,MacIntel,60.0024001,Chrome,1440,900,,,,,1,1176,,,,,,,,,,,,,,,,,160,H,hexagon,1,0,,,,,,,,,,,,,,,,switch,letter,lettSwt,j,0.6055,Lo,,,,,,2,,,,,,,,low,26,0,26,0,1,,,,,,,,,
292732,2022-10-07_08h28.02.156,vts_reward_expectancy,2022.2.4,MacIntel,60.0024001,Chrome,1440,900,,,,,10,1186,,,,,,,,,,,,,,,,,132,D,circle,1,0,,,,,,,,,,,,,,,,repeat,letter,lettRpt,j,0.5289,Hi,,,,,,2,,,,,,,,low,27,0,27,0,1,,,,,,,,,
292732,2022-10-07_08h28.02.156,vts_reward_expectancy,2022.2.4,MacIntel,60.0024001,Chrome,1440,900,,,,,10,1196,,,,,,,,,,,,,,,,,181,Y,circle,1,0,,,,,,,,,,,,,,,,repeat,letter,lettRpt,k,0.4999,Hi,,,,,,2,,,,,,,,low,28,0,28,0,1,,,,,,,,,
292732,2022-10-07_08h28.02.156,vts_reward_expectancy,2022.2.4,MacIntel,60.0024001,Chrome,1440,900,,,,,1,1197,,,,,,,,,,,,,,,,,174,U,hexagon,1,0,,,,,,,,,,,,,,,,switch,number,numSwt,f,0.5365,Lo,,,,,,2,,,,,,,,low,29,0,29,0,1,,,,,,,,,
292732,2022-10-07_08h28.02.156,vts_reward_expectancy,2022.2.4,MacIntel,60.0024001,Chrome,1440,900,,,,,0,1197,,,,,,,,,,,,,,,,,139,F,circle,1,0,,,,,,,,,,,,,,,,repeat,number,numRpt,d,1.1626,Hi,,,,,,2,,,,,,,,low,30,0,30,0,1,,,,,,,,,
292732,2022-10-07_08h28.02.156,vts_reward_expectancy,2022.2.4,MacIntel,60.0024001,Chrome,1440,900,,,,,1,1198,,,,,,,,,,,,,,,,,167,B,hexagon,1,0,,,,,,,,,,,,,,,,repeat,number,numRpt,f,0.9847,Lo,,,,,,2,,,,,,,,low,31,0,31,0,1,,,,,,,,,
292732,2022-10-07_08h28.02.156,vts_reward_expectancy,2022.2.4,MacIntel,60.0024001,Chrome,1440,900,,,,,10,1208,,,,,,,,,,,,,,,,,125,W,circle,1,0,,,,,,,,,,,,,,,,repeat,number,numRpt,d,0.7205,Hi,,,,,,3,,,,,,space,0.6994,low,0,0,0,0,1,,,,,,,,,
292732,2022-10-07_08h28.02.156,vts_reward_expectancy,2022.2.4,MacIntel,60.0024001,Chrome,1440,900,,,,,10,1218,,,,,,,,,,,,,,,,,174,D,hexagon,1,0,,,,,,,,,,,,,,,,switch,letter,lettSwt,j,0.5638,Lo,,,,,,3,,,,,,,,low,1,0,1,0,1,,,,,,,,,
292732,2022-10-07_08h28.02.156,vts_reward_expectancy,2022.2.4,MacIntel,60.0024001,Chrome,1440,900,,,,,10,1228,,,,,,,,,,,,,,,,,160,B,circle,1,0,,,,,,,,,,,,,,,,repeat,letter,lettRpt,j,0.5655,Hi,,,,,,3,,,,,,,,low,2,0,2,0,1,,,,,,,,,
292732,2022-10-07_08h28.02.156,vts_reward_expectancy,2022.2.4,MacIntel,60.0024001,Chrome,1440,900,,,,,1,1229,,,,,,,,,,,,,,,,,139,Y,hexagon,1,0,,,,,,,,,,,,,,,,repeat,letter,lettRpt,k,0.6135,Lo,,,,,,3,,,,,,,,low,3,0,3,0,1,,,,,,,,,
292732,2022-10-07_08h28.02.156,vts_reward_expectancy,2022.2.4,MacIntel,60.0024001,Chrome,1440,900,,,,,10,1239,,,,,,,,,,,,,,,,,181,U,hexagon,1,0,,,,,,,,,,,,,,,,switch,number,numSwt,f,1.8804,Lo,,,,,,3,,,,,,,,low,4,0,4,0,1,,,,,,,,,
292732,2022-10-07_08h28.02.156,vts_reward_expectancy,2022.2.4,MacIntel,60.0024001,Chrome,1440,900,,,,,0,1239,,,,,,,,,,,,,,,,,167,S,circle,0,0,,,,,,,,,,,,,,,,repeat,number,NA,d,1.064,Lo,,,,,,3,,,,,,,,low,5,0,5,0,1,,,,,,,,,
292732,2022-10-07_08h28.02.156,vts_reward_expectancy,2022.2.4,MacIntel,60.0024001,Chrome,1440,900,,,,,0,1239,,,,,,,,,,,,,,,,,132,H,circle,1,1,,,,,,,,,,,,,,,,switch,letter,lettSwt,j,1.2597,Hi,,,,,,3,,,,,,,,low,6,0,6,0,1,,,,,,,,,
292732,2022-10-07_08h28.02.156,vts_reward_expectancy,2022.2.4,MacIntel,60.0024001,Chrome,1440,900,,,,,10,1249,,,,,,,,,,,,,,,,,146,F,hexagon,1,0,,,,,,,,,,,,,,,,repeat,letter,lettRpt,j,1.3056,Lo,,,,,,3,,,,,,,,low,7,0,7,0,1,,,,,,,,,
292732,2022-10-07_08h28.02.156,vts_reward_expectancy,2022.2.4,MacIntel,60.0024001,Chrome,1440,900,,,,,0,1249,,,,,,,,,,,,,,,,,125,W,circle,1,0,,,,,,,,,,,,,,,,switch,number,numSwt,d,0.8492,Hi,,,,,,3,,,,,,,,low,8,0,8,0,1,,,,,,,,,
292732,2022-10-07_08h28.02.156,vts_reward_expectancy,2022.2.4,MacIntel,60.0024001,Chrome,1440,900,,,,,1,1250,,,,,,,,,,,,,,,,,174,D,hexagon,1,0,,,,,,,,,,,,,,,,repeat,number,numRpt,f,0.6808,Lo,,,,,,3,,,,,,,,low,9,0,9,0,1,,,,,,,,,
292732,2022-10-07_08h28.02.156,vts_reward_expectancy,2022.2.4,MacIntel,60.0024001,Chrome,1440,900,,,,,10,1260,,,,,,,,,,,,,,,,,160,B,hexagon,1,0,,,,,,,,,,,,,,,,repeat,number,numRpt,f,0.7479,Lo,,,,,,3,,,,,,,,low,10,0,10,0,1,,,,,,,,,
292732,2022-10-07_08h28.02.156,vts_reward_expectancy,2022.2.4,MacIntel,60.0024001,Chrome,1440,900,,,,,0,1260,,,,,,,,,,,,,,,,,139,Y,circle,1,0,,,,,,,,,,,,,,,,switch,letter,lettSwt,k,0.7041,Hi,,,,,,3,,,,,,,,low,11,0,11,0,1,,,,,,,,,
292732,2022-10-07_08h28.02.156,vts_reward_expectancy,2022.2.4,MacIntel,60.0024001,Chrome,1440,900,,,,,10,1270,,,,,,,,,,,,,,,,,181,U,hexagon,1,0,,,,,,,,,,,,,,,,repeat,letter,lettRpt,k,0.562,Lo,,,,,,3,,,,,,,,low,12,0,12,0,1,,,,,,,,,
292732,2022-10-07_08h28.02.156,vts_reward_expectancy,2022.2.4,MacIntel,60.0024001,Chrome,1440,900,,,,,0,1270,,,,,,,,,,,,,,,,,167,S,circle,1,0,,,,,,,,,,,,,,,,switch,number,numSwt,f,0.5799,Hi,,,,,,3,,,,,,,,low,13,0,13,0,1,,,,,,,,,
292732,2022-10-07_08h28.02.156,vts_reward_expectancy,2022.2.4,MacIntel,60.0024001,Chrome,1440,900,,,,,10,1280,,,,,,,,,,,,,,,,,132,H,hexagon,1,0,,,,,,,,,,,,,,,,repeat,number,numRpt,d,0.7394,Lo,,,,,,3,,,,,,,,low,14,0,14,0,1,,,,,,,,,
292732,2022-10-07_08h28.02.156,vts_reward_expectancy,2022.2.4,MacIntel,60.0024001,Chrome,1440,900,,,,,1,1281,,,,,,,,,,,,,,,,,146,F,circle,1,0,,,,,,,,,,,,,,,,switch,letter,lettSwt,j,0.5124,Hi,,,,,,3,,,,,,,,low,15,0,15,0,1,,,,,,,,,
292732,2022-10-07_08h28.02.156,vts_reward_expectancy,2022.2.4,MacIntel,60.0024001,Chrome,1440,900,,,,,0,1281,,,,,,,,,,,,,,,,,160,H,circle,1,0,,,,,,,,,,,,,,,,switch,number,numSwt,f,0.6643,Hi,,,,,,3,,,,,,,,low,16,0,16,0,1,,,,,,,,,
292732,2022-10-07_08h28.02.156,vts_reward_expectancy,2022.2.4,MacIntel,60.0024001,Chrome,1440,900,,,,,1,1282,,,,,,,,,,,,,,,,,174,U,hexagon,1,0,,,,,,,,,,,,,,,,switch,letter,lettSwt,k,0.6475,Lo,,,,,,3,,,,,,,,low,17,0,17,0,1,,,,,,,,,
292732,2022-10-07_08h28.02.156,vts_reward_expectancy,2022.2.4,MacIntel,60.0024001,Chrome,1440,900,,,,,1,1283,,,,,,,,,,,,,,,,,181,D,hexagon,1,0,,,,,,,,,,,,,,,,repeat,letter,lettRpt,j,0.6001,Lo,,,,,,3,,,,,,,,low,18,0,18,0,1,,,,,,,,,
292732,2022-10-07_08h28.02.156,vts_reward_expectancy,2022.2.4,MacIntel,60.0024001,Chrome,1440,900,,,,,10,1293,,,,,,,,,,,,,,,,,146,S,circle,1,0,,,,,,,,,,,,,,,,repeat,letter,lettRpt,k,0.5152,Hi,,,,,,3,,,,,,,,low,19,0,19,0,1,,,,,,,,,
292732,2022-10-07_08h28.02.156,vts_reward_expectancy,2022.2.4,MacIntel,60.0024001,Chrome,1440,900,,,,,10,1303,,,,,,,,,,,,,,,,,167,B,hexagon,1,0,,,,,,,,,,,,,,,,switch,number,numSwt,f,0.63,Lo,,,,,,3,,,,,,,,low,20,0,20,0,1,,,,,,,,,
292732,2022-10-07_08h28.02.156,vts_reward_expectancy,2022.2.4,MacIntel,60.0024001,Chrome,1440,900,,,,,1,1304,,,,,,,,,,,,,,,,,125,F,circle,1,0,,,,,,,,,,,,,,,,switch,letter,lettSwt,j,0.5556,Hi,,,,,,3,,,,,,,,low,21,0,21,0,1,,,,,,,,,
292732,2022-10-07_08h28.02.156,vts_reward_expectancy,2022.2.4,MacIntel,60.0024001,Chrome,1440,900,,,,,1,1305,,,,,,,,,,,,,,,,,139,Y,hexagon,1,0,,,,,,,,,,,,,,,,repeat,letter,lettRpt,k,0.6378,Lo,,,,,,3,,,,,,,,low,22,0,22,0,1,,,,,,,,,
292732,2022-10-07_08h28.02.156,vts_reward_expectancy,2022.2.4,MacIntel,60.0024001,Chrome,1440,900,,,,,10,1315,,,,,,,,,,,,,,,,,132,W,circle,1,0,,,,,,,,,,,,,,,,switch,number,numSwt,d,0.4987,Hi,,,,,,3,,,,,,,,low,23,0,23,0,1,,,,,,,,,
292732,2022-10-07_08h28.02.156,vts_reward_expectancy,2022.2.4,MacIntel,60.0024001,Chrome,1440,900,,,,,10,1325,,,,,,,,,,,,,,,,,174,D,hexagon,1,0,,,,,,,,,,,,,,,,switch,letter,lettSwt,j,0.9032,Lo,,,,,,3,,,,,,,,low,24,0,24,0,1,,,,,,,,,
292732,2022-10-07_08h28.02.156,vts_reward_expectancy,2022.2.4,MacIntel,60.0024001,Chrome,1440,900,,,,,0,1325,,,,,,,,,,,,,,,,,167,S,circle,0,0,,,,,,,,,,,,,,,,repeat,letter,NA,j,0.4308,Lo,,,,,,3,,,,,,,,low,25,0,25,0,1,,,,,,,,,
292732,2022-10-07_08h28.02.156,vts_reward_expectancy,2022.2.4,MacIntel,60.0024001,Chrome,1440,900,,,,,0,1325,,,,,,,,,,,,,,,,,181,B,circle,0,1,,,,,,,,,,,,,,,,repeat,letter,NA,k,0.65,Lo,,,,,,3,,,,,,,,low,26,0,26,0,1,,,,,,,,,
292732,2022-10-07_08h28.02.156,vts_reward_expectancy,2022.2.4,MacIntel,60.0024001,Chrome,1440,900,,,,,10,1335,,,,,,,,,,,,,,,,,132,F,hexagon,1,1,,,,,,,,,,,,,,,,switch,number,numSwt,d,0.6973,Lo,,,,,,3,,,,,,,,low,27,0,27,0,1,,,,,,,,,
292732,2022-10-07_08h28.02.156,vts_reward_expectancy,2022.2.4,MacIntel,60.0024001,Chrome,1440,900,,,,,10,1345,,,,,,,,,,,,,,,,,146,U,circle,1,0,,,,,,,,,,,,,,,,switch,letter,lettSwt,k,0.5685,Hi,,,,,,3,,,,,,,,low,28,0,28,0,1,,,,,,,,,
292732,2022-10-07_08h28.02.156,vts_reward_expectancy,2022.2.4,MacIntel,60.0024001,Chrome,1440,900,,,,,1,1346,,,,,,,,,,,,,,,,,160,H,hexagon,1,0,,,,,,,,,,,,,,,,switch,number,numSwt,f,0.531,Lo,,,,,,3,,,,,,,,low,29,0,29,0,1,,,,,,,,,
292732,2022-10-07_08h28.02.156,vts_reward_expectancy,2022.2.4,MacIntel,60.0024001,Chrome,1440,900,,,,,1,1347,,,,,,,,,,,,,,,,,139,W,hexagon,1,0,,,,,,,,,,,,,,,,repeat,number,numRpt,d,1.1803,Lo,,,,,,3,,,,,,,,low,30,0,30,0,1,,,,,,,,,
292732,2022-10-07_08h28.02.156,vts_reward_expectancy,2022.2.4,MacIntel,60.0024001,Chrome,1440,900,,,,,1,1348,,,,,,,,,,,,,,,,,125,Y,circle,1,0,,,,,,,,,,,,,,,,switch,letter,lettSwt,k,0.5631,Hi,,,,,,3,,,,,,,,low,31,0,31,0,1,,,,,,,,,
292732,2022-10-07_08h28.02.156,vts_reward_expectancy,2022.2.4,MacIntel,60.0024001,Chrome,1440,900,,,,,1,1349,,,,,,,,,,,,,,,,,139,F,hexagon,1,0,,,,,,,,,,,,,,,,repeat,letter,lettRpt,j,0.6902,Lo,,,,,,4,,,,,,space,0.8421,low,0,0,0,0,1,,,,,,,,,
292732,2022-10-07_08h28.02.156,vts_reward_expectancy,2022.2.4,MacIntel,60.0024001,Chrome,1440,900,,,,,0,1349,,,,,,,,,,,,,,,,,174,B,circle,1,0,,,,,,,,,,,,,,,,repeat,letter,lettRpt,j,0.6388,Hi,,,,,,4,,,,,,,,low,1,0,1,0,1,,,,,,,,,
292732,2022-10-07_08h28.02.156,vts_reward_expectancy,2022.2.4,MacIntel,60.0024001,Chrome,1440,900,,,,,1,1350,,,,,,,,,,,,,,,,,181,U,hexagon,1,0,,,,,,,,,,,,,,,,switch,number,numSwt,f,1.0263,Lo,,,,,,4,,,,,,,,low,2,0,2,0,1,,,,,,,,,
292732,2022-10-07_08h28.02.156,vts_reward_expectancy,2022.2.4,MacIntel,60.0024001,Chrome,1440,900,,,,,10,1360,,,,,,,,,,,,,,,,,125,W,circle,1,0,,,,,,,,,,,,,,,,repeat,number,numRpt,d,0.598,Hi,,,,,,4,,,,,,,,low,3,0,3,0,1,,,,,,,,,
292732,2022-10-07_08h28.02.156,vts_reward_expectancy,2022.2.4,MacIntel,60.0024001,Chrome,1440,900,,,,,0,1360,,,,,,,,,,,,,,,,,160,Y,circle,1,0,,,,,,,,,,,,,,,,switch,letter,lettSwt,k,0.6485,Hi,,,,,,4,,,,,,,,low,4,0,4,0,1,,,,,,,,,
292732,2022-10-07_08h28.02.156,vts_reward_expectancy,2022.2.4,MacIntel,60.0024001,Chrome,1440,900,,,,,10,1370,,,,,,,,,,,,,,,,,132,H,hexagon,1,0,,,,,,,,,,,,,,,,repeat,letter,lettRpt,j,0.8636,Lo,,,,,,4,,,,,,,,low,5,0,5,0,1,,,,,,,,,
292732,2022-10-07_08h28.02.156,vts_reward_expectancy,2022.2.4,MacIntel,60.0024001,Chrome,1440,900,,,,,0,1370,,,,,,,,,,,,,,,,,146,S,circle,1,0,,,,,,,,,,,,,,,,repeat,letter,lettRpt,k,0.6802,Hi,,,,,,4,,,,,,,,low,6,0,6,0,1,,,,,,,,,
292732,2022-10-07_08h28.02.156,vts_reward_expectancy,2022.2.4,MacIntel,60.0024001,Chrome,1440,900,,,,,10,1380,,,,,,,,,,,,,,,,,167,D,hexagon,1,0,,,,,,,,,,,,,,,,switch,number,numSwt,f,0.9812,Lo,,,,,,4,,,,,,,,low,7,0,7,0,1,,,,,,,,,
292732,2022-10-07_08h28.02.156,vts_reward_expectancy,2022.2.4,MacIntel,60.0024001,Chrome,1440,900,,,,,10,1390,,,,,,,,,,,,,,,,,139,F,circle,1,0,,,,,,,,,,,,,,,,switch,letter,lettSwt,j,0.4978,Hi,,,,,,4,,,,,,,,low,8,0,8,0,1,,,,,,,,,
292732,2022-10-07_08h28.02.156,vts_reward_expectancy,2022.2.4,MacIntel,60.0024001,Chrome,1440,900,,,,,1,1391,,,,,,,,,,,,,,,,,174,B,hexagon,1,0,,,,,,,,,,,,,,,,switch,number,numSwt,f,0.7809,Lo,,,,,,4,,,,,,,,low,9,0,9,0,1,,,,,,,,,
292732,2022-10-07_08h28.02.156,vts_reward_expectancy,2022.2.4,MacIntel,60.0024001,Chrome,1440,900,,,,,10,1401,,,,,,,,,,,,,,,,,181,U,circle,1,0,,,,,,,,,,,,,,,,repeat,number,numRpt,f,0.6882,Hi,,,,,,4,,,,,,,,low,10,0,10,0,1,,,,,,,,,
292732,2022-10-07_08h28.02.156,vts_reward_expectancy,2022.2.4,MacIntel,60.0024001,Chrome,1440,900,,,,,10,1411,,,,,,,,,,,,,,,,,125,W,hexagon,1,0,,,,,,,,,,,,,,,,switch,letter,lettSwt,k,0.706,Lo,,,,,,4,,,,,,,,low,11,0,11,0,1,,,,,,,,,
292732,2022-10-07_08h28.02.156,vts_reward_expectancy,2022.2.4,MacIntel,60.0024001,Chrome,1440,900,,,,,10,1421,,,,,,,,,,,,,,,,,160,Y,hexagon,1,0,,,,,,,,,,,,,,,,switch,number,numSwt,f,0.556,Lo,,,,,,4,,,,,,,,low,12,0,12,0,1,,,,,,,,,
292732,2022-10-07_08h28.02.156,vts_reward_expectancy,2022.2.4,MacIntel,60.0024001,Chrome,1440,900,,,,,1,1422,,,,,,,,,,,,,,,,,132,H,circle,1,0,,,,,,,,,,,,,,,,repeat,number,numRpt,d,0.5134,Hi,,,,,,4,,,,,,,,low,13,0,13,0,1,,,,,,,,,
292732,2022-10-07_08h28.02.156,vts_reward_expectancy,2022.2.4,MacIntel,60.0024001,Chrome,1440,900,,,,,1,1423,,,,,,,,,,,,,,,,,146,S,circle,1,0,,,,,,,,,,,,,,,,switch,letter,lettSwt,k,0.5466,Hi,,,,,,4,,,,,,,,low,14,0,14,0,1,,,,,,,,,
292732,2022-10-07_08h28.02.156,vts_reward_expectancy,2022.2.4,MacIntel,60.0024001,Chrome,1440,900,,,,,10,1433,,,,,,,,,,,,,,,,,167,D,hexagon,1,0,,,,,,,,,,,,,,,,switch,number,numSwt,f,0.5813,Lo,,,,,,4,,,,,,,,low,15,0,15,0,1,,,,,,,,,
292732,2022-10-07_08h28.02.156,vts_reward_expectancy,2022.2.4,MacIntel,60.0024001,Chrome,1440,900,,,,,10,1443,,,,,,,,,,,,,,,,,139,D,hexagon,1,0,,,,,,,,,,,,,,,,switch,letter,lettSwt,j,0.6498,Lo,,,,,,4,,,,,,,,low,16,0,16,0,1,,,,,,,,,
292732,2022-10-07_08h28.02.156,vts_reward_expectancy,2022.2.4,MacIntel,60.0024001,Chrome,1440,900,,,,,1,1444,,,,,,,,,,,,,,,,,174,Y,circle,1,0,,,,,,,,,,,,,,,,repeat,letter,lettRpt,k,0.4665,Hi,,,,,,4,,,,,,,,low,17,0,17,0,1,,,,,,,,,
292732,2022-10-07_08h28.02.156,vts_reward_expectancy,2022.2.4,MacIntel,60.0024001,Chrome,1440,900,,,,,1,1445,,,,,,,,,,,,,,,,,167,W,hexagon,1,0,,,,,,,,,,,,,,,,switch,number,numSwt,f,0.72,Lo,,,,,,4,,,,,,,,low,18,0,18,0,1,,,,,,,,,
292732,2022-10-07_08h28.02.156,vts_reward_expectancy,2022.2.4,MacIntel,60.0024001,Chrome,1440,900,,,,,10,1455,,,,,,,,,,,,,,,,,146,F,circle,1,0,,,,,,,,,,,,,,,,repeat,number,numRpt,d,0.4336,Hi,,,,,,4,,,,,,,,low,19,0,19,0,1,,,,,,,,,
292732,2022-10-07_08h28.02.156,vts_reward_expectancy,2022.2.4,MacIntel,60.0024001,Chrome,1440,900,,,,,10,1465,,,,,,,,,,,,,,,,,132,H,hexagon,1,0,,,,,,,,,,,,,,,,switch,letter,lettSwt,j,0.6187,Lo,,,,,,4,,,,,,,,low,20,0,20,0,1,,,,,,,,,
292732,2022-10-07_08h28.02.156,vts_reward_expectancy,2022.2.4,MacIntel,60.0024001,Chrome,1440,900,,,,,1,1466,,,,,,,,,,,,,,,,,160,U,circle,1,0,,,,,,,,,,,,,,,,switch,number,numSwt,f,0.5202,Hi,,,,,,4,,,,,,,,low,21,0,21,0,1,,,,,,,,,
292732,2022-10-07_08h28.02.156,vts_reward_expectancy,2022.2.4,MacIntel,60.0024001,Chrome,1440,900,,,,,0,1466,,,,,,,,,,,,,,,,,125,S,hexagon,0,0,,,,,,,,,,,,,,,,switch,letter,NA,j,0.5466,Hi,,,,,,4,,,,,,,,low,22,0,22,0,1,,,,,,,,,
292732,2022-10-07_08h28.02.156,vts_reward_expectancy,2022.2.4,MacIntel,60.0024001,Chrome,1440,900,,,,,1,1467,,,,,,,,,,,,,,,,,181,B,circle,1,1,,,,,,,,,,,,,,,,repeat,letter,lettRpt,j,0.5021,Hi,,,,,,4,,,,,,,,low,23,0,23,0,1,,,,,,,,,
292732,2022-10-07_08h28.02.156,vts_reward_expectancy,2022.2.4,MacIntel,60.0024001,Chrome,1440,900,,,,,1,1468,,,,,,,,,,,,,,,,,181,D,hexagon,1,0,,,,,,,,,,,,,,,,repeat,letter,lettRpt,j,0.5831,Lo,,,,,,4,,,,,,,,low,24,0,24,0,1,,,,,,,,,
292732,2022-10-07_08h28.02.156,vts_reward_expectancy,2022.2.4,MacIntel,60.0024001,Chrome,1440,900,,,,,10,1478,,,,,,,,,,,,,,,,,160,Y,circle,1,0,,,,,,,,,,,,,,,,switch,number,numSwt,f,0.5129,Hi,,,,,,4,,,,,,,,low,25,0,25,0,1,,,,,,,,,
292732,2022-10-07_08h28.02.156,vts_reward_expectancy,2022.2.4,MacIntel,60.0024001,Chrome,1440,900,,,,,10,1488,,,,,,,,,,,,,,,,,139,U,hexagon,1,0,,,,,,,,,,,,,,,,switch,letter,lettSwt,k,0.8792,Lo,,,,,,4,,,,,,,,low,26,0,26,0,1,,,,,,,,,
292732,2022-10-07_08h28.02.156,vts_reward_expectancy,2022.2.4,MacIntel,60.0024001,Chrome,1440,900,,,,,0,1488,,,,,,,,,,,,,,,,,125,H,circle,1,0,,,,,,,,,,,,,,,,repeat,letter,lettRpt,j,0.8982,Hi,,,,,,4,,,,,,,,low,27,0,27,0,1,,,,,,,,,
292732,2022-10-07_08h28.02.156,vts_reward_expectancy,2022.2.4,MacIntel,60.0024001,Chrome,1440,900,,,,,0,1488,,,,,,,,,,,,,,,,,167,S,circle,1,0,,,,,,,,,,,,,,,,switch,number,numSwt,f,0.7842,Hi,,,,,,4,,,,,,,,low,28,0,28,0,1,,,,,,,,,
292732,2022-10-07_08h28.02.156,vts_reward_expectancy,2022.2.4,MacIntel,60.0024001,Chrome,1440,900,,,,,1,1489,,,,,,,,,,,,,,,,,146,B,hexagon,1,0,,,,,,,,,,,,,,,,switch,letter,lettSwt,j,1.213,Lo,,,,,,4,,,,,,,,low,29,0,29,0,1,,,,,,,,,
292732,2022-10-07_08h28.02.156,vts_reward_expectancy,2022.2.4,MacIntel,60.0024001,Chrome,1440,900,,,,,1,1490,,,,,,,,,,,,,,,,,174,W,hexagon,1,0,,,,,,,,,,,,,,,,repeat,letter,lettRpt,k,0.7136,Lo,,,,,,4,,,,,,,,low,30,0,30,0,1,,,,,,,,,
292732,2022-10-07_08h28.02.156,vts_reward_expectancy,2022.2.4,MacIntel,60.0024001,Chrome,1440,900,,,,,0,1490,,,,,,,,,,,,,,,,,132,F,circle,1,0,,,,,,,,,,,,,,,,switch,number,numSwt,d,0.6349,Hi,,,,,,4,,,,,,,,low,31,0,31,0,1,,,,,,,,,
292732,2022-10-07_08h28.02.156,vts_reward_expectancy,2022.2.4,MacIntel,60.0024001,Chrome,1440,900,,,,,1,1491,,,,,,,,,,,,,,,,,160,D,triangle,1,0,,,,,,,,,,,,,,,,switch,letter,lettSwt,j,0.8212,Lo,,,,,,5,,,,,,space,0.6557,high,0,0,0,0,1,,,,,,,,,
292732,2022-10-07_08h28.02.156,vts_reward_expectancy,2022.2.4,MacIntel,60.0024001,Chrome,1440,900,,,,,0,1491,,,,,,,,,,,,,,,,,125,H,star,1,0,,,,,,,,,,,,,,,,repeat,letter,lettRpt,j,0.8183,Hi,,,,,,5,,,,,,,,high,1,0,1,0,1,,,,,,,,,
292732,2022-10-07_08h28.02.156,vts_reward_expectancy,2022.2.4,MacIntel,60.0024001,Chrome,1440,900,,,,,0,1491,,,,,,,,,,,,,,,,,146,U,triangle,0,0,,,,,,,,,,,,,,,,switch,number,NA,f,1.0315,Hi,,,,,,5,,,,,,,,high,2,0,2,0,1,,,,,,,,,
292732,2022-10-07_08h28.02.156,vts_reward_expectancy,2022.2.4,MacIntel,60.0024001,Chrome,1440,900,,,,,0,1491,,,,,,,,,,,,,,,,,181,W,star,1,1,,,,,,,,,,,,,,,,repeat,number,numRpt,f,0.5989,Hi,,,,,,5,,,,,,,,high,3,0,3,0,1,,,,,,,,,
292732,2022-10-07_08h28.02.156,vts_reward_expectancy,2022.2.4,MacIntel,60.0024001,Chrome,1440,900,,,,,0,1491,,,,,,,,,,,,,,,,,167,B,star,1,0,,,,,,,,,,,,,,,,repeat,number,numRpt,f,0.6315,Hi,,,,,,5,,,,,,,,high,4,0,4,0,1,,,,,,,,,
292732,2022-10-07_08h28.02.156,vts_reward_expectancy,2022.2.4,MacIntel,60.0024001,Chrome,1440,900,,,,,1,1492,,,,,,,,,,,,,,,,,132,Y,triangle,1,0,,,,,,,,,,,,,,,,switch,letter,lettSwt,k,0.5007,Lo,,,,,,5,,,,,,,,high,5,0,5,0,1,,,,,,,,,
292732,2022-10-07_08h28.02.156,vts_reward_expectancy,2022.2.4,MacIntel,60.0024001,Chrome,1440,900,,,,,0,1492,,,,,,,,,,,,,,,,,174,S,star,1,0,,,,,,,,,,,,,,,,switch,number,numSwt,f,0.6632,Hi,,,,,,5,,,,,,,,high,6,0,6,0,1,,,,,,,,,
292732,2022-10-07_08h28.02.156,vts_reward_expectancy,2022.2.4,MacIntel,60.0024001,Chrome,1440,900,,,,,1,1493,,,,,,,,,,,,,,,,,139,F,triangle,1,0,,,,,,,,,,,,,,,,switch,letter,lettSwt,j,0.9305,Lo,,,,,,5,,,,,,,,high,7,0,7,0,1,,,,,,,,,
292732,2022-10-07_08h28.02.156,vts_reward_expectancy,2022.2.4,MacIntel,60.0024001,Chrome,1440,900,,,,,1,1494,,,,,,,,,,,,,,,,,160,D,triangle,1,0,,,,,,,,,,,,,,,,repeat,letter,lettRpt,j,0.5973,Lo,,,,,,5,,,,,,,,high,8,0,8,0,1,,,,,,,,,
292732,2022-10-07_08h28.02.156,vts_reward_expectancy,2022.2.4,MacIntel,60.0024001,Chrome,1440,900,,,,,10,1504,,,,,,,,,,,,,,,,,125,H,star,1,0,,,,,,,,,,,,,,,,switch,number,numSwt,d,0.532,Hi,,,,,,5,,,,,,,,high,9,0,9,0,1,,,,,,,,,
292732,2022-10-07_08h28.02.156,vts_reward_expectancy,2022.2.4,MacIntel,60.0024001,Chrome,1440,900,,,,,1,1505,,,,,,,,,,,,,,,,,146,U,triangle,1,0,,,,,,,,,,,,,,,,switch,letter,lettSwt,k,0.7992,Lo,,,,,,5,,,,,,,,high,10,0,10,0,1,,,,,,,,,
292732,2022-10-07_08h28.02.156,vts_reward_expectancy,2022.2.4,MacIntel,60.0024001,Chrome,1440,900,,,,,0,1505,,,,,,,,,,,,,,,,,181,W,star,1,0,,,,,,,,,,,,,,,,switch,number,numSwt,f,0.6034,Hi,,,,,,5,,,,,,,,high,11,0,11,0,1,,,,,,,,,
292732,2022-10-07_08h28.02.156,vts_reward_expectancy,2022.2.4,MacIntel,60.0024001,Chrome,1440,900,,,,,1,1506,,,,,,,,,,,,,,,,,167,B,triangle,1,0,,,,,,,,,,,,,,,,repeat,number,numRpt,f,0.8794,Lo,,,,,,5,,,,,,,,high,12,0,12,0,1,,,,,,,,,
292732,2022-10-07_08h28.02.156,vts_reward_expectancy,2022.2.4,MacIntel,60.0024001,Chrome,1440,900,,,,,10,1516,,,,,,,,,,,,,,,,,132,Y,star,1,0,,,,,,,,,,,,,,,,switch,letter,lettSwt,k,0.4575,Hi,,,,,,5,,,,,,,,high,13,0,13,0,1,,,,,,,,,
292732,2022-10-07_08h28.02.156,vts_reward_expectancy,2022.2.4,MacIntel,60.0024001,Chrome,1440,900,,,,,1,1517,,,,,,,,,,,,,,,,,174,S,triangle,1,0,,,,,,,,,,,,,,,,repeat,letter,lettRpt,k,0.6059,Lo,,,,,,5,,,,,,,,high,14,0,14,0,1,,,,,,,,,
292732,2022-10-07_08h28.02.156,vts_reward_expectancy,2022.2.4,MacIntel,60.0024001,Chrome,1440,900,,,,,1,1518,,,,,,,,,,,,,,,,,139,F,star,1,0,,,,,,,,,,,,,,,,repeat,letter,lettRpt,j,0.566,Hi,,,,,,5,,,,,,,,high,15,0,15,0,1,,,,,,,,,
292732,2022-10-07_08h28.02.156,vts_reward_expectancy,2022.2.4,MacIntel,60.0024001,Chrome,1440,900,,,,,1,1519,,,,,,,,,,,,,,,,,167,Y,triangle,1,0,,,,,,,,,,,,,,,,switch,number,numSwt,f,1.181,Lo,,,,,,5,,,,,,,,high,16,0,16,0,1,,,,,,,,,
292732,2022-10-07_08h28.02.156,vts_reward_expectancy,2022.2.4,MacIntel,60.0024001,Chrome,1440,900,,,,,10,1529,,,,,,,,,,,,,,,,,181,F,star,1,0,,,,,,,,,,,,,,,,repeat,number,numRpt,f,0.4792,Hi,,,,,,5,,,,,,,,high,17,0,17,0,1,,,,,,,,,
292732,2022-10-07_08h28.02.156,vts_reward_expectancy,2022.2.4,MacIntel,60.0024001,Chrome,1440,900,,,,,10,1539,,,,,,,,,,,,,,,,,174,S,star,1,0,,,,,,,,,,,,,,,,switch,letter,lettSwt,k,0.5661,Hi,,,,,,5,,,,,,,,high,18,0,18,0,1,,,,,,,,,
292732,2022-10-07_08h28.02.156,vts_reward_expectancy,2022.2.4,MacIntel,60.0024001,Chrome,1440,900,,,,,1,1540,,,,,,,,,,,,,,,,,132,H,triangle,1,0,,,,,,,,,,,,,,,,repeat,letter,lettRpt,j,0.6499,Lo,,,,,,5,,,,,,,,high,19,0,19,0,1,,,,,,,,,
292732,2022-10-07_08h28.02.156,vts_reward_expectancy,2022.2.4,MacIntel,60.0024001,Chrome,1440,900,,,,,1,1541,,,,,,,,,,,,,,,,,146,W,triangle,1,0,,,,,,,,,,,,,,,,switch,number,numSwt,d,0.7474,Lo,,,,,,5,,,,,,,,high,20,0,20,0,1,,,,,,,,,
292732,2022-10-07_08h28.02.156,vts_reward_expectancy,2022.2.4,MacIntel,60.0024001,Chrome,1440,900,,,,,0,1541,,,,,,,,,,,,,,,,,139,B,star,1,0,,,,,,,,,,,,,,,,repeat,number,numRpt,d,0.7152,Hi,,,,,,5,,,,,,,,high,21,0,21,0,1,,,,,,,,,
292732,2022-10-07_08h28.02.156,vts_reward_expectancy,2022.2.4,MacIntel,60.0024001,Chrome,1440,900,,,,,10,1551,,,,,,,,,,,,,,,,,160,U,star,1,0,,,,,,,,,,,,,,,,switch,letter,lettSwt,k,0.5617,Hi,,,,,,5,,,,,,,,high,22,0,22,0,1,,,,,,,,,
292732,2022-10-07_08h28.02.156,vts_reward_expectancy,2022.2.4,MacIntel,60.0024001,Chrome,1440,900,,,,,1,1552,,,,,,,,,,,,,,,,,125,D,triangle,1,0,,,,,,,,,,,,,,,,repeat,letter,lettRpt,j,0.7137,Lo,,,,,,5,,,,,,,,high,23,0,23,0,1,,,,,,,,,
292732,2022-10-07_08h28.02.156,vts_reward_expectancy,2022.2.4,MacIntel,60.0024001,Chrome,1440,900,,,,,1,1553,,,,,,,,,,,,,,,,,160,F,triangle,1,0,,,,,,,,,,,,,,,,repeat,letter,lettRpt,j,0.5803,Lo,,,,,,5,,,,,,,,high,24,0,24,0,1,,,,,,,,,
292732,2022-10-07_08h28.02.156,vts_reward_expectancy,2022.2.4,MacIntel,60.0024001,Chrome,1440,900,,,,,10,1563,,,,,,,,,,,,,,,,,125,D,star,1,0,,,,,,,,,,,,,,,,switch,number,numSwt,d,0.4808,Hi,,,,,,5,,,,,,,,high,25,0,25,0,1,,,,,,,,,
292732,2022-10-07_08h28.02.156,vts_reward_expectancy,2022.2.4,MacIntel,60.0024001,Chrome,1440,900,,,,,0,1563,,,,,,,,,,,,,,,,,146,U,star,0,0,,,,,,,,,,,,,,,,switch,letter,NA,j,0.6216,Hi,,,,,,5,,,,,,,,high,26,0,26,0,1,,,,,,,,,
292732,2022-10-07_08h28.02.156,vts_reward_expectancy,2022.2.4,MacIntel,60.0024001,Chrome,1440,900,,,,,1,1564,,,,,,,,,,,,,,,,,167,H,triangle,1,1,,,,,,,,,,,,,,,,switch,number,numSwt,f,0.9791,Lo,,,,,,5,,,,,,,,high,27,0,27,0,1,,,,,,,,,
292732,2022-10-07_08h28.02.156,vts_reward_expectancy,2022.2.4,MacIntel,60.0024001,Chrome,1440,900,,,,,1,1565,,,,,,,,,,,,,,,,,139,Y,triangle,1,0,,,,,,,,,,,,,,,,switch,letter,lettSwt,k,0.5339,Lo,,,,,,5,,,,,,,,high,28,0,28,0,1,,,,,,,,,
292732,2022-10-07_08h28.02.156,vts_reward_expectancy,2022.2.4,MacIntel,60.0024001,Chrome,1440,900,,,,,10,1575,,,,,,,,,,,,,,,,,132,B,star,1,0,,,,,,,,,,,,,,,,repeat,letter,lettRpt,j,0.5299,Hi,,,,,,5,,,,,,,,high,29,0,29,0,1,,,,,,,,,
292732,2022-10-07_08h28.02.156,vts_reward_expectancy,2022.2.4,MacIntel,60.0024001,Chrome,1440,900,,,,,1,1576,,,,,,,,,,,,,,,,,174,S,triangle,1,0,,,,,,,,,,,,,,,,repeat,letter,lettRpt,k,0.6487,Lo,,,,,,5,,,,,,,,high,30,0,30,0,1,,,,,,,,,
292732,2022-10-07_08h28.02.156,vts_reward_expectancy,2022.2.4,MacIntel,60.0024001,Chrome,1440,900,,,,,10,1586,,,,,,,,,,,,,,,,,181,W,star,1,0,,,,,,,,,,,,,,,,repeat,letter,lettRpt,k,0.5452,Hi,,,,,,5,,,,,,,,high,31,0,31,0,1,,,,,,,,,
292732,2022-10-07_08h28.02.156,vts_reward_expectancy,2022.2.4,MacIntel,60.0024001,Chrome,1440,900,,,,,,,,,,,,,,,,,,,,,,,,,,,,,,,,,,,,,,,,,,,,,,,,,,,,,,6,,,,,,,,,,,,,,"When given a number and letter, I was to choose one to determine if it was over or under 153 and closer to A or Z in the alphabet. Depending on the shape flashed before, there was a different reward. ",1,,4,4,,2,1440,900
