participant,date,expName,psychopyVersion,OS,frameRate,browser,xResolution,yResolution,key_resp.keys,key_resp.rt,training_resp.keys,training_resp.rt,points_trial,points_cumul,trainBlock,training.thisRepN,training.thisTrialN,training.thisN,training.thisIndex,training.ran,LTriangleOpac,LCircleOpac,LHexagonOpac,LStarOpac,RTriangleOpac,RCircleOpac,RHexagonOpac,RStarOpac,LShape_ID,RShape_ID,curr_topStim,curr_bottStim,curr_shape,acc,E1,target_resp_prac1.keys,pracBlock,task1_prac_trials.thisRepN,task1_prac_trials.thisTrialN,task1_prac_trials.thisN,task1_prac_trials.thisIndex,task1_prac_trials.ran,target_resp_prac1.rt,target_resp_prac2.keys,target_resp_prac2.rt,task2_praac_trials.thisRepN,task2_praac_trials.thisTrialN,task2_praac_trials.thisN,task2_praac_trials.thisIndex,task2_praac_trials.ran,alt,task,condition,target_resp.keys,target_resp.rt,rewCond,vts_practice_trials.thisRepN,vts_practice_trials.thisTrialN,vts_practice_trials.thisN,vts_practice_trials.thisIndex,vts_practice_trials.ran,blockNum,trials_norew.thisRepN,trials_norew.thisTrialN,trials_norew.thisN,trials_norew.thisIndex,trials_norew.ran,key_resp_2.keys,key_resp_2.rt,rewExpect,trials_rew.thisRepN,trials_rew.thisTrialN,trials_rew.thisN,trials_rew.thisIndex,trials_rew.ran,Q1,Q2,Q2_text,Q3,Q4,Q5_text,Q5,xRes,yRes
295516,2022-10-03_10h51.29.225,vts_reward_expectancy,2022.2.4,MacIntel,62.5,Safari,1440,900,,,,,,,,,,,,,,,,,,,,,,,,,,,,,,,,,,,,,,,,,,,,,,,,,,,,,,,,,,,,,,,,,,,,,,,,,,,,
295516,2022-10-03_10h51.29.225,vts_reward_expectancy,2022.2.4,MacIntel,62.5,Safari,1440,900,space,2.07,,,,,,,,,,,,,,,,,,,,,,,,,,,,,,,,,,,,,,,,,,,,,,,,,,,,,,,,,,,,,,,,,,,,,,,,,,
295516,2022-10-03_10h51.29.225,vts_reward_expectancy,2022.2.4,MacIntel,62.5,Safari,1440,900,,,,,,,,,,,,,,,,,,,,,,,,,,,,,,,,,,,,,,,,,,,,,,,,,,,,,,,,,,,,,,,,,,,,,,,,,,,,
295516,2022-10-03_10h51.29.225,vts_reward_expectancy,2022.2.4,MacIntel,62.5,Safari,1440,900,,,l,1.846,1,1,0,0,0,0,2,1,1,0,0,0,0,0,0,1,triangle,star,,,,,,,,,,,,,,,,,,,,,,,,,,,,,,,,,,,,,,,,,,,,,,,,,,,,,,
295516,2022-10-03_10h51.29.225,vts_reward_expectancy,2022.2.4,MacIntel,62.5,Safari,1440,900,,,a,5.663,1,2,0,0,1,1,0,1,1,0,0,0,0,1,0,0,triangle,circle,,,,,,,,,,,,,,,,,,,,,,,,,,,,,,,,,,,,,,,,,,,,,,,,,,,,,,
295516,2022-10-03_10h51.29.225,vts_reward_expectancy,2022.2.4,MacIntel,62.5,Safari,1440,900,,,a,11.934,1,3,0,0,2,2,6,1,0,0,1,0,1,0,0,0,hexagon,triangle,,,,,,,,,,,,,,,,,,,,,,,,,,,,,,,,,,,,,,,,,,,,,,,,,,,,,,
295516,2022-10-03_10h51.29.225,vts_reward_expectancy,2022.2.4,MacIntel,62.5,Safari,1440,900,,,a,24.314,1,4,0,0,3,3,11,1,0,0,0,1,0,0,1,0,star,hexagon,,,,,,,,,,,,,,,,,,,,,,,,,,,,,,,,,,,,,,,,,,,,,,,,,,,,,,
295516,2022-10-03_10h51.29.225,vts_reward_expectancy,2022.2.4,MacIntel,62.5,Safari,1440,900,,,a,5.616,1,5,0,0,4,4,9,1,0,0,0,1,1,0,0,0,star,triangle,,,,,,,,,,,,,,,,,,,,,,,,,,,,,,,,,,,,,,,,,,,,,,,,,,,,,,
295516,2022-10-03_10h51.29.225,vts_reward_expectancy,2022.2.4,MacIntel,62.5,Safari,1440,900,,,l,11.937,1,6,0,0,5,5,3,1,0,1,0,0,1,0,0,0,circle,triangle,,,,,,,,,,,,,,,,,,,,,,,,,,,,,,,,,,,,,,,,,,,,,,,,,,,,,,
295516,2022-10-03_10h51.29.225,vts_reward_expectancy,2022.2.4,MacIntel,62.5,Safari,1440,900,,,l,0.851,10,16,0,0,6,6,10,1,0,0,0,1,0,1,0,0,star ,circle,,,,,,,,,,,,,,,,,,,,,,,,,,,,,,,,,,,,,,,,,,,,,,,,,,,,,,
295516,2022-10-03_10h51.29.225,vts_reward_expectancy,2022.2.4,MacIntel,62.5,Safari,1440,900,,,a,19.188,10,26,0,0,7,7,4,1,0,1,0,0,0,0,1,0,circle,hexagon,,,,,,,,,,,,,,,,,,,,,,,,,,,,,,,,,,,,,,,,,,,,,,,,,,,,,,
295516,2022-10-03_10h51.29.225,vts_reward_expectancy,2022.2.4,MacIntel,62.5,Safari,1440,900,,,a,7.586,10,36,0,0,8,8,1,1,1,0,0,0,0,0,1,0,triangle,hexagon,,,,,,,,,,,,,,,,,,,,,,,,,,,,,,,,,,,,,,,,,,,,,,,,,,,,,,
295516,2022-10-03_10h51.29.225,vts_reward_expectancy,2022.2.4,MacIntel,62.5,Safari,1440,900,,,a,23.133,10,46,0,0,9,9,7,1,0,0,1,0,0,1,0,0,hexagon,circle,,,,,,,,,,,,,,,,,,,,,,,,,,,,,,,,,,,,,,,,,,,,,,,,,,,,,,
295516,2022-10-03_10h51.29.225,vts_reward_expectancy,2022.2.4,MacIntel,62.5,Safari,1440,900,,,l,6.514,1,47,0,0,10,10,5,1,0,1,0,0,0,0,0,1,circle,star,,,,,,,,,,,,,,,,,,,,,,,,,,,,,,,,,,,,,,,,,,,,,,,,,,,,,,
295516,2022-10-03_10h51.29.225,vts_reward_expectancy,2022.2.4,MacIntel,62.5,Safari,1440,900,,,l,21.425,1,48,0,0,11,11,8,1,0,0,1,0,0,0,0,1,hexagon,star,,,,,,,,,,,,,,,,,,,,,,,,,,,,,,,,,,,,,,,,,,,,,,,,,,,,,,
295516,2022-10-03_10h51.29.225,vts_reward_expectancy,2022.2.4,MacIntel,62.5,Safari,1440,900,,,l,2.37,10,58,0,1,0,12,6,1,0,0,1,0,1,0,0,0,hexagon,triangle,,,,,,,,,,,,,,,,,,,,,,,,,,,,,,,,,,,,,,,,,,,,,,,,,,,,,,
295516,2022-10-03_10h51.29.225,vts_reward_expectancy,2022.2.4,MacIntel,62.5,Safari,1440,900,,,a,5.616,1,59,0,1,1,13,11,1,0,0,0,1,0,0,1,0,star,hexagon,,,,,,,,,,,,,,,,,,,,,,,,,,,,,,,,,,,,,,,,,,,,,,,,,,,,,,
295516,2022-10-03_10h51.29.225,vts_reward_expectancy,2022.2.4,MacIntel,62.5,Safari,1440,900,,,l,4.336,10,69,0,1,2,14,2,1,1,0,0,0,0,0,0,1,triangle,star,,,,,,,,,,,,,,,,,,,,,,,,,,,,,,,,,,,,,,,,,,,,,,,,,,,,,,
295516,2022-10-03_10h51.29.225,vts_reward_expectancy,2022.2.4,MacIntel,62.5,Safari,1440,900,,,a,2.184,1,70,0,1,3,15,1,1,1,0,0,0,0,0,1,0,triangle,hexagon,,,,,,,,,,,,,,,,,,,,,,,,,,,,,,,,,,,,,,,,,,,,,,,,,,,,,,
295516,2022-10-03_10h51.29.225,vts_reward_expectancy,2022.2.4,MacIntel,62.5,Safari,1440,900,,,a,8.283,1,71,0,1,4,16,8,1,0,0,1,0,0,0,0,1,hexagon,star,,,,,,,,,,,,,,,,,,,,,,,,,,,,,,,,,,,,,,,,,,,,,,,,,,,,,,
295516,2022-10-03_10h51.29.225,vts_reward_expectancy,2022.2.4,MacIntel,62.5,Safari,1440,900,,,a,5.766,10,81,0,1,5,17,5,1,0,1,0,0,0,0,0,1,circle,star,,,,,,,,,,,,,,,,,,,,,,,,,,,,,,,,,,,,,,,,,,,,,,,,,,,,,,
295516,2022-10-03_10h51.29.225,vts_reward_expectancy,2022.2.4,MacIntel,62.5,Safari,1440,900,,,a,13.517,10,91,0,1,6,18,9,1,0,0,0,1,1,0,0,0,star,triangle,,,,,,,,,,,,,,,,,,,,,,,,,,,,,,,,,,,,,,,,,,,,,,,,,,,,,,
295516,2022-10-03_10h51.29.225,vts_reward_expectancy,2022.2.4,MacIntel,62.5,Safari,1440,900,,,a,8.837,1,92,0,1,7,19,4,1,0,1,0,0,0,0,1,0,circle,hexagon,,,,,,,,,,,,,,,,,,,,,,,,,,,,,,,,,,,,,,,,,,,,,,,,,,,,,,
295516,2022-10-03_10h51.29.225,vts_reward_expectancy,2022.2.4,MacIntel,62.5,Safari,1440,900,,,a,4.851,1,93,0,1,8,20,7,1,0,0,1,0,0,1,0,0,hexagon,circle,,,,,,,,,,,,,,,,,,,,,,,,,,,,,,,,,,,,,,,,,,,,,,,,,,,,,,
295516,2022-10-03_10h51.29.225,vts_reward_expectancy,2022.2.4,MacIntel,62.5,Safari,1440,900,,,l,9.405,1,94,0,1,9,21,0,1,1,0,0,0,0,1,0,0,triangle,circle,,,,,,,,,,,,,,,,,,,,,,,,,,,,,,,,,,,,,,,,,,,,,,,,,,,,,,
295516,2022-10-03_10h51.29.225,vts_reward_expectancy,2022.2.4,MacIntel,62.5,Safari,1440,900,,,a,5.621,10,104,0,1,10,22,3,1,0,1,0,0,1,0,0,0,circle,triangle,,,,,,,,,,,,,,,,,,,,,,,,,,,,,,,,,,,,,,,,,,,,,,,,,,,,,,
295516,2022-10-03_10h51.29.225,vts_reward_expectancy,2022.2.4,MacIntel,62.5,Safari,1440,900,,,a,8.417,10,114,0,1,11,23,10,1,0,0,0,1,0,1,0,0,star ,circle,,,,,,,,,,,,,,,,,,,,,,,,,,,,,,,,,,,,,,,,,,,,,,,,,,,,,,
295516,2022-10-03_10h51.29.225,vts_reward_expectancy,2022.2.4,MacIntel,62.5,Safari,1440,900,,,a,7.441,10,124,0,2,0,24,2,1,1,0,0,0,0,0,0,1,triangle,star,,,,,,,,,,,,,,,,,,,,,,,,,,,,,,,,,,,,,,,,,,,,,,,,,,,,,,
295516,2022-10-03_10h51.29.225,vts_reward_expectancy,2022.2.4,MacIntel,62.5,Safari,1440,900,,,a,4.552,10,134,0,2,1,25,5,1,0,1,0,0,0,0,0,1,circle,star,,,,,,,,,,,,,,,,,,,,,,,,,,,,,,,,,,,,,,,,,,,,,,,,,,,,,,
295516,2022-10-03_10h51.29.225,vts_reward_expectancy,2022.2.4,MacIntel,62.5,Safari,1440,900,,,a,4.153,10,144,0,2,2,26,3,1,0,1,0,0,1,0,0,0,circle,triangle,,,,,,,,,,,,,,,,,,,,,,,,,,,,,,,,,,,,,,,,,,,,,,,,,,,,,,
295516,2022-10-03_10h51.29.225,vts_reward_expectancy,2022.2.4,MacIntel,62.5,Safari,1440,900,,,a,10.956,1,145,0,2,3,27,11,1,0,0,0,1,0,0,1,0,star,hexagon,,,,,,,,,,,,,,,,,,,,,,,,,,,,,,,,,,,,,,,,,,,,,,,,,,,,,,
295516,2022-10-03_10h51.29.225,vts_reward_expectancy,2022.2.4,MacIntel,62.5,Safari,1440,900,,,l,6.752,1,146,0,2,4,28,0,1,1,0,0,0,0,1,0,0,triangle,circle,,,,,,,,,,,,,,,,,,,,,,,,,,,,,,,,,,,,,,,,,,,,,,,,,,,,,,
295516,2022-10-03_10h51.29.225,vts_reward_expectancy,2022.2.4,MacIntel,62.5,Safari,1440,900,,,a,1.052,1,147,0,2,5,29,7,1,0,0,1,0,0,1,0,0,hexagon,circle,,,,,,,,,,,,,,,,,,,,,,,,,,,,,,,,,,,,,,,,,,,,,,,,,,,,,,
295516,2022-10-03_10h51.29.225,vts_reward_expectancy,2022.2.4,MacIntel,62.5,Safari,1440,900,,,a,0.675,10,157,0,2,6,30,6,1,0,0,1,0,1,0,0,0,hexagon,triangle,,,,,,,,,,,,,,,,,,,,,,,,,,,,,,,,,,,,,,,,,,,,,,,,,,,,,,
295516,2022-10-03_10h51.29.225,vts_reward_expectancy,2022.2.4,MacIntel,62.5,Safari,1440,900,,,a,1.757,1,158,0,2,7,31,9,1,0,0,0,1,1,0,0,0,star,triangle,,,,,,,,,,,,,,,,,,,,,,,,,,,,,,,,,,,,,,,,,,,,,,,,,,,,,,
295516,2022-10-03_10h51.29.225,vts_reward_expectancy,2022.2.4,MacIntel,62.5,Safari,1440,900,,,a,1.108,10,168,0,2,8,32,1,1,1,0,0,0,0,0,1,0,triangle,hexagon,,,,,,,,,,,,,,,,,,,,,,,,,,,,,,,,,,,,,,,,,,,,,,,,,,,,,,
295516,2022-10-03_10h51.29.225,vts_reward_expectancy,2022.2.4,MacIntel,62.5,Safari,1440,900,,,l,1.384,10,178,0,2,9,33,10,1,0,0,0,1,0,1,0,0,star ,circle,,,,,,,,,,,,,,,,,,,,,,,,,,,,,,,,,,,,,,,,,,,,,,,,,,,,,,
295516,2022-10-03_10h51.29.225,vts_reward_expectancy,2022.2.4,MacIntel,62.5,Safari,1440,900,,,a,4.425,1,179,0,2,10,34,8,1,0,0,1,0,0,0,0,1,hexagon,star,,,,,,,,,,,,,,,,,,,,,,,,,,,,,,,,,,,,,,,,,,,,,,,,,,,,,,
295516,2022-10-03_10h51.29.225,vts_reward_expectancy,2022.2.4,MacIntel,62.5,Safari,1440,900,,,a,8.272,10,189,0,2,11,35,4,1,0,1,0,0,0,0,1,0,circle,hexagon,,,,,,,,,,,,,,,,,,,,,,,,,,,,,,,,,,,,,,,,,,,,,,,,,,,,,,
295516,2022-10-03_10h51.29.225,vts_reward_expectancy,2022.2.4,MacIntel,62.5,Safari,1440,900,,,a,44.724,10,199,1,0,0,0,3,1,0,1,0,0,1,0,0,0,circle,triangle,,,,,,,,,,,,,,,,,,,,,,,,,,,,,,,,,,,,,,,,,,,,,,,,,,,,,,
295516,2022-10-03_10h51.29.225,vts_reward_expectancy,2022.2.4,MacIntel,62.5,Safari,1440,900,,,a,50.406,10,209,1,0,1,1,8,1,0,0,1,0,0,0,0,1,hexagon,star,,,,,,,,,,,,,,,,,,,,,,,,,,,,,,,,,,,,,,,,,,,,,,,,,,,,,,
295516,2022-10-03_10h51.29.225,vts_reward_expectancy,2022.2.4,MacIntel,62.5,Safari,1440,900,,,a,14.667,10,219,1,0,2,2,2,1,1,0,0,0,0,0,0,1,triangle,star,,,,,,,,,,,,,,,,,,,,,,,,,,,,,,,,,,,,,,,,,,,,,,,,,,,,,,
295516,2022-10-03_10h51.29.225,vts_reward_expectancy,2022.2.4,MacIntel,62.5,Safari,1440,900,,,a,8.357,10,229,1,0,3,3,11,1,0,0,0,1,0,0,1,0,star,hexagon,,,,,,,,,,,,,,,,,,,,,,,,,,,,,,,,,,,,,,,,,,,,,,,,,,,,,,
295516,2022-10-03_10h51.29.225,vts_reward_expectancy,2022.2.4,MacIntel,62.5,Safari,1440,900,,,a,27.602,10,239,1,0,4,4,4,1,0,1,0,0,0,0,1,0,circle,hexagon,,,,,,,,,,,,,,,,,,,,,,,,,,,,,,,,,,,,,,,,,,,,,,,,,,,,,,
295516,2022-10-03_10h51.29.225,vts_reward_expectancy,2022.2.4,MacIntel,62.5,Safari,1440,900,,,a,22.353,10,249,1,0,5,5,5,1,0,1,0,0,0,0,0,1,circle,star,,,,,,,,,,,,,,,,,,,,,,,,,,,,,,,,,,,,,,,,,,,,,,,,,,,,,,
295516,2022-10-03_10h51.29.225,vts_reward_expectancy,2022.2.4,MacIntel,62.5,Safari,1440,900,,,a,23.119,10,259,1,0,6,6,0,1,1,0,0,0,0,1,0,0,triangle,circle,,,,,,,,,,,,,,,,,,,,,,,,,,,,,,,,,,,,,,,,,,,,,,,,,,,,,,
295516,2022-10-03_10h51.29.225,vts_reward_expectancy,2022.2.4,MacIntel,62.5,Safari,1440,900,,,a,19.034,10,269,1,0,7,7,9,1,0,0,0,1,1,0,0,0,star,triangle,,,,,,,,,,,,,,,,,,,,,,,,,,,,,,,,,,,,,,,,,,,,,,,,,,,,,,
295516,2022-10-03_10h51.29.225,vts_reward_expectancy,2022.2.4,MacIntel,62.5,Safari,1440,900,,,a,8,1,270,1,0,8,8,6,1,0,0,1,0,1,0,0,0,hexagon,triangle,,,,,,,,,,,,,,,,,,,,,,,,,,,,,,,,,,,,,,,,,,,,,,,,,,,,,,
295516,2022-10-03_10h51.29.225,vts_reward_expectancy,2022.2.4,MacIntel,62.5,Safari,1440,900,,,a,18.635,1,271,1,0,9,9,10,1,0,0,0,1,0,1,0,0,star ,circle,,,,,,,,,,,,,,,,,,,,,,,,,,,,,,,,,,,,,,,,,,,,,,,,,,,,,,
295516,2022-10-03_10h51.29.225,vts_reward_expectancy,2022.2.4,MacIntel,62.5,Safari,1440,900,,,l,0.586,10,281,1,0,10,10,7,1,0,0,1,0,0,1,0,0,hexagon,circle,,,,,,,,,,,,,,,,,,,,,,,,,,,,,,,,,,,,,,,,,,,,,,,,,,,,,,
295516,2022-10-03_10h51.29.225,vts_reward_expectancy,2022.2.4,MacIntel,62.5,Safari,1440,900,,,l,40.074,1,282,1,0,11,11,1,1,1,0,0,0,0,0,1,0,triangle,hexagon,,,,,,,,,,,,,,,,,,,,,,,,,,,,,,,,,,,,,,,,,,,,,,,,,,,,,,
295516,2022-10-03_10h51.29.225,vts_reward_expectancy,2022.2.4,MacIntel,62.5,Safari,1440,900,,,l,0.25,1,283,1,1,0,12,8,1,0,0,1,0,0,0,0,1,hexagon,star,,,,,,,,,,,,,,,,,,,,,,,,,,,,,,,,,,,,,,,,,,,,,,,,,,,,,,
295516,2022-10-03_10h51.29.225,vts_reward_expectancy,2022.2.4,MacIntel,62.5,Safari,1440,900,,,a,3.392,10,293,1,1,1,13,0,1,1,0,0,0,0,1,0,0,triangle,circle,,,,,,,,,,,,,,,,,,,,,,,,,,,,,,,,,,,,,,,,,,,,,,,,,,,,,,
295516,2022-10-03_10h51.29.225,vts_reward_expectancy,2022.2.4,MacIntel,62.5,Safari,1440,900,,,a,9.606,10,303,1,1,2,14,1,1,1,0,0,0,0,0,1,0,triangle,hexagon,,,,,,,,,,,,,,,,,,,,,,,,,,,,,,,,,,,,,,,,,,,,,,,,,,,,,,
295516,2022-10-03_10h51.29.225,vts_reward_expectancy,2022.2.4,MacIntel,62.5,Safari,1440,900,,,a,19.552,1,304,1,1,3,15,7,1,0,0,1,0,0,1,0,0,hexagon,circle,,,,,,,,,,,,,,,,,,,,,,,,,,,,,,,,,,,,,,,,,,,,,,,,,,,,,,
295516,2022-10-03_10h51.29.225,vts_reward_expectancy,2022.2.4,MacIntel,62.5,Safari,1440,900,,,l,0.25,10,314,1,1,4,16,4,1,0,1,0,0,0,0,1,0,circle,hexagon,,,,,,,,,,,,,,,,,,,,,,,,,,,,,,,,,,,,,,,,,,,,,,,,,,,,,,
295516,2022-10-03_10h51.29.225,vts_reward_expectancy,2022.2.4,MacIntel,62.5,Safari,1440,900,,,l,25.565,1,315,1,1,5,17,11,1,0,0,0,1,0,0,1,0,star,hexagon,,,,,,,,,,,,,,,,,,,,,,,,,,,,,,,,,,,,,,,,,,,,,,,,,,,,,,
295516,2022-10-03_10h51.29.225,vts_reward_expectancy,2022.2.4,MacIntel,62.5,Safari,1440,900,,,a,0.217,1,316,1,1,6,18,9,1,0,0,0,1,1,0,0,0,star,triangle,,,,,,,,,,,,,,,,,,,,,,,,,,,,,,,,,,,,,,,,,,,,,,,,,,,,,,
295516,2022-10-03_10h51.29.225,vts_reward_expectancy,2022.2.4,MacIntel,62.5,Safari,1440,900,,,l,5.801,1,317,1,1,7,19,3,1,0,1,0,0,1,0,0,0,circle,triangle,,,,,,,,,,,,,,,,,,,,,,,,,,,,,,,,,,,,,,,,,,,,,,,,,,,,,,
295516,2022-10-03_10h51.29.225,vts_reward_expectancy,2022.2.4,MacIntel,62.5,Safari,1440,900,,,l,0.252,1,318,1,1,8,20,2,1,1,0,0,0,0,0,0,1,triangle,star,,,,,,,,,,,,,,,,,,,,,,,,,,,,,,,,,,,,,,,,,,,,,,,,,,,,,,
295516,2022-10-03_10h51.29.225,vts_reward_expectancy,2022.2.4,MacIntel,62.5,Safari,1440,900,,,l,0.35,1,319,1,1,9,21,5,1,0,1,0,0,0,0,0,1,circle,star,,,,,,,,,,,,,,,,,,,,,,,,,,,,,,,,,,,,,,,,,,,,,,,,,,,,,,
295516,2022-10-03_10h51.29.225,vts_reward_expectancy,2022.2.4,MacIntel,62.5,Safari,1440,900,,,l,0.558,10,329,1,1,10,22,10,1,0,0,0,1,0,1,0,0,star ,circle,,,,,,,,,,,,,,,,,,,,,,,,,,,,,,,,,,,,,,,,,,,,,,,,,,,,,,
295516,2022-10-03_10h51.29.225,vts_reward_expectancy,2022.2.4,MacIntel,62.5,Safari,1440,900,,,a,1.198,10,339,1,1,11,23,6,1,0,0,1,0,1,0,0,0,hexagon,triangle,,,,,,,,,,,,,,,,,,,,,,,,,,,,,,,,,,,,,,,,,,,,,,,,,,,,,,
295516,2022-10-03_10h51.29.225,vts_reward_expectancy,2022.2.4,MacIntel,62.5,Safari,1440,900,,,l,1.418,10,349,1,2,0,24,3,1,0,1,0,0,1,0,0,0,circle,triangle,,,,,,,,,,,,,,,,,,,,,,,,,,,,,,,,,,,,,,,,,,,,,,,,,,,,,,
295516,2022-10-03_10h51.29.225,vts_reward_expectancy,2022.2.4,MacIntel,62.5,Safari,1440,900,,,l,0.756,10,359,1,2,1,25,4,1,0,1,0,0,0,0,1,0,circle,hexagon,,,,,,,,,,,,,,,,,,,,,,,,,,,,,,,,,,,,,,,,,,,,,,,,,,,,,,
295516,2022-10-03_10h51.29.225,vts_reward_expectancy,2022.2.4,MacIntel,62.5,Safari,1440,900,,,a,1.672,10,369,1,2,2,26,2,1,1,0,0,0,0,0,0,1,triangle,star,,,,,,,,,,,,,,,,,,,,,,,,,,,,,,,,,,,,,,,,,,,,,,,,,,,,,,
295516,2022-10-03_10h51.29.225,vts_reward_expectancy,2022.2.4,MacIntel,62.5,Safari,1440,900,,,l,1.184,10,379,1,2,3,27,9,1,0,0,0,1,1,0,0,0,star,triangle,,,,,,,,,,,,,,,,,,,,,,,,,,,,,,,,,,,,,,,,,,,,,,,,,,,,,,
295516,2022-10-03_10h51.29.225,vts_reward_expectancy,2022.2.4,MacIntel,62.5,Safari,1440,900,,,a,1.233,1,380,1,2,4,28,7,1,0,0,1,0,0,1,0,0,hexagon,circle,,,,,,,,,,,,,,,,,,,,,,,,,,,,,,,,,,,,,,,,,,,,,,,,,,,,,,
295516,2022-10-03_10h51.29.225,vts_reward_expectancy,2022.2.4,MacIntel,62.5,Safari,1440,900,,,l,0.451,10,390,1,2,5,29,10,1,0,0,0,1,0,1,0,0,star ,circle,,,,,,,,,,,,,,,,,,,,,,,,,,,,,,,,,,,,,,,,,,,,,,,,,,,,,,
295516,2022-10-03_10h51.29.225,vts_reward_expectancy,2022.2.4,MacIntel,62.5,Safari,1440,900,,,l,0.517,10,400,1,2,6,30,0,1,1,0,0,0,0,1,0,0,triangle,circle,,,,,,,,,,,,,,,,,,,,,,,,,,,,,,,,,,,,,,,,,,,,,,,,,,,,,,
295516,2022-10-03_10h51.29.225,vts_reward_expectancy,2022.2.4,MacIntel,62.5,Safari,1440,900,,,l,1.505,1,401,1,2,7,31,1,1,1,0,0,0,0,0,1,0,triangle,hexagon,,,,,,,,,,,,,,,,,,,,,,,,,,,,,,,,,,,,,,,,,,,,,,,,,,,,,,
295516,2022-10-03_10h51.29.225,vts_reward_expectancy,2022.2.4,MacIntel,62.5,Safari,1440,900,,,l,3.35,10,411,1,2,8,32,11,1,0,0,0,1,0,0,1,0,star,hexagon,,,,,,,,,,,,,,,,,,,,,,,,,,,,,,,,,,,,,,,,,,,,,,,,,,,,,,
295516,2022-10-03_10h51.29.225,vts_reward_expectancy,2022.2.4,MacIntel,62.5,Safari,1440,900,,,a,1.335,1,412,1,2,9,33,8,1,0,0,1,0,0,0,0,1,hexagon,star,,,,,,,,,,,,,,,,,,,,,,,,,,,,,,,,,,,,,,,,,,,,,,,,,,,,,,
295516,2022-10-03_10h51.29.225,vts_reward_expectancy,2022.2.4,MacIntel,62.5,Safari,1440,900,,,a,7.468,1,413,1,2,10,34,6,1,0,0,1,0,1,0,0,0,hexagon,triangle,,,,,,,,,,,,,,,,,,,,,,,,,,,,,,,,,,,,,,,,,,,,,,,,,,,,,,
295516,2022-10-03_10h51.29.225,vts_reward_expectancy,2022.2.4,MacIntel,62.5,Safari,1440,900,,,a,7.969,10,423,1,2,11,35,5,1,0,1,0,0,0,0,0,1,circle,star,,,,,,,,,,,,,,,,,,,,,,,,,,,,,,,,,,,,,,,,,,,,,,,,,,,,,,
295516,2022-10-03_10h51.29.225,vts_reward_expectancy,2022.2.4,MacIntel,62.5,Safari,1440,900,,,l,0.833,10,433,2,0,0,0,0,1,1,0,0,0,0,1,0,0,triangle,circle,,,,,,,,,,,,,,,,,,,,,,,,,,,,,,,,,,,,,,,,,,,,,,,,,,,,,,
295516,2022-10-03_10h51.29.225,vts_reward_expectancy,2022.2.4,MacIntel,62.5,Safari,1440,900,,,a,5.785,1,434,2,0,1,1,8,1,0,0,1,0,0,0,0,1,hexagon,star,,,,,,,,,,,,,,,,,,,,,,,,,,,,,,,,,,,,,,,,,,,,,,,,,,,,,,
295516,2022-10-03_10h51.29.225,vts_reward_expectancy,2022.2.4,MacIntel,62.5,Safari,1440,900,,,a,17.774,1,435,2,0,2,2,3,1,0,1,0,0,1,0,0,0,circle,triangle,,,,,,,,,,,,,,,,,,,,,,,,,,,,,,,,,,,,,,,,,,,,,,,,,,,,,,
295516,2022-10-03_10h51.29.225,vts_reward_expectancy,2022.2.4,MacIntel,62.5,Safari,1440,900,,,a,10.318,10,445,2,0,3,3,1,1,1,0,0,0,0,0,1,0,triangle,hexagon,,,,,,,,,,,,,,,,,,,,,,,,,,,,,,,,,,,,,,,,,,,,,,,,,,,,,,
295516,2022-10-03_10h51.29.225,vts_reward_expectancy,2022.2.4,MacIntel,62.5,Safari,1440,900,,,a,18.817,1,446,2,0,4,4,4,1,0,1,0,0,0,0,1,0,circle,hexagon,,,,,,,,,,,,,,,,,,,,,,,,,,,,,,,,,,,,,,,,,,,,,,,,,,,,,,
295516,2022-10-03_10h51.29.225,vts_reward_expectancy,2022.2.4,MacIntel,62.5,Safari,1440,900,,,l,6.651,1,447,2,0,5,5,2,1,1,0,0,0,0,0,0,1,triangle,star,,,,,,,,,,,,,,,,,,,,,,,,,,,,,,,,,,,,,,,,,,,,,,,,,,,,,,
295516,2022-10-03_10h51.29.225,vts_reward_expectancy,2022.2.4,MacIntel,62.5,Safari,1440,900,,,a,1.117,1,448,2,0,6,6,7,1,0,0,1,0,0,1,0,0,hexagon,circle,,,,,,,,,,,,,,,,,,,,,,,,,,,,,,,,,,,,,,,,,,,,,,,,,,,,,,
295516,2022-10-03_10h51.29.225,vts_reward_expectancy,2022.2.4,MacIntel,62.5,Safari,1440,900,,,l,1.858,10,458,2,0,7,7,11,1,0,0,0,1,0,0,1,0,star,hexagon,,,,,,,,,,,,,,,,,,,,,,,,,,,,,,,,,,,,,,,,,,,,,,,,,,,,,,
295516,2022-10-03_10h51.29.225,vts_reward_expectancy,2022.2.4,MacIntel,62.5,Safari,1440,900,,,a,5.3,10,468,2,0,8,8,10,1,0,0,0,1,0,1,0,0,star ,circle,,,,,,,,,,,,,,,,,,,,,,,,,,,,,,,,,,,,,,,,,,,,,,,,,,,,,,
295516,2022-10-03_10h51.29.225,vts_reward_expectancy,2022.2.4,MacIntel,62.5,Safari,1440,900,,,a,21.416,10,478,2,0,9,9,9,1,0,0,0,1,1,0,0,0,star,triangle,,,,,,,,,,,,,,,,,,,,,,,,,,,,,,,,,,,,,,,,,,,,,,,,,,,,,,
295516,2022-10-03_10h51.29.225,vts_reward_expectancy,2022.2.4,MacIntel,62.5,Safari,1440,900,,,a,4.516,10,488,2,0,10,10,5,1,0,1,0,0,0,0,0,1,circle,star,,,,,,,,,,,,,,,,,,,,,,,,,,,,,,,,,,,,,,,,,,,,,,,,,,,,,,
295516,2022-10-03_10h51.29.225,vts_reward_expectancy,2022.2.4,MacIntel,62.5,Safari,1440,900,,,a,28.174,10,498,2,0,11,11,6,1,0,0,1,0,1,0,0,0,hexagon,triangle,,,,,,,,,,,,,,,,,,,,,,,,,,,,,,,,,,,,,,,,,,,,,,,,,,,,,,
295516,2022-10-03_10h51.29.225,vts_reward_expectancy,2022.2.4,MacIntel,62.5,Safari,1440,900,,,l,4.135,10,508,2,1,0,12,9,1,0,0,0,1,1,0,0,0,star,triangle,,,,,,,,,,,,,,,,,,,,,,,,,,,,,,,,,,,,,,,,,,,,,,,,,,,,,,
295516,2022-10-03_10h51.29.225,vts_reward_expectancy,2022.2.4,MacIntel,62.5,Safari,1440,900,,,a,29.534,10,518,2,1,1,13,10,1,0,0,0,1,0,1,0,0,star ,circle,,,,,,,,,,,,,,,,,,,,,,,,,,,,,,,,,,,,,,,,,,,,,,,,,,,,,,
295516,2022-10-03_10h51.29.225,vts_reward_expectancy,2022.2.4,MacIntel,62.5,Safari,1440,900,,,l,8.808,10,528,2,1,2,14,7,1,0,0,1,0,0,1,0,0,hexagon,circle,,,,,,,,,,,,,,,,,,,,,,,,,,,,,,,,,,,,,,,,,,,,,,,,,,,,,,
295516,2022-10-03_10h51.29.225,vts_reward_expectancy,2022.2.4,MacIntel,62.5,Safari,1440,900,,,a,0.301,10,538,2,1,3,15,0,1,1,0,0,0,0,1,0,0,triangle,circle,,,,,,,,,,,,,,,,,,,,,,,,,,,,,,,,,,,,,,,,,,,,,,,,,,,,,,
295516,2022-10-03_10h51.29.225,vts_reward_expectancy,2022.2.4,MacIntel,62.5,Safari,1440,900,,,a,0.302,10,548,2,1,4,16,5,1,0,1,0,0,0,0,0,1,circle,star,,,,,,,,,,,,,,,,,,,,,,,,,,,,,,,,,,,,,,,,,,,,,,,,,,,,,,
295516,2022-10-03_10h51.29.225,vts_reward_expectancy,2022.2.4,MacIntel,62.5,Safari,1440,900,,,a,0.3,10,558,2,1,5,17,2,1,1,0,0,0,0,0,0,1,triangle,star,,,,,,,,,,,,,,,,,,,,,,,,,,,,,,,,,,,,,,,,,,,,,,,,,,,,,,
295516,2022-10-03_10h51.29.225,vts_reward_expectancy,2022.2.4,MacIntel,62.5,Safari,1440,900,,,a,0.32,10,568,2,1,6,18,11,1,0,0,0,1,0,0,1,0,star,hexagon,,,,,,,,,,,,,,,,,,,,,,,,,,,,,,,,,,,,,,,,,,,,,,,,,,,,,,
295516,2022-10-03_10h51.29.225,vts_reward_expectancy,2022.2.4,MacIntel,62.5,Safari,1440,900,,,l,0.317,1,569,2,1,7,19,4,1,0,1,0,0,0,0,1,0,circle,hexagon,,,,,,,,,,,,,,,,,,,,,,,,,,,,,,,,,,,,,,,,,,,,,,,,,,,,,,
295516,2022-10-03_10h51.29.225,vts_reward_expectancy,2022.2.4,MacIntel,62.5,Safari,1440,900,,,a,0.238,1,570,2,1,8,20,8,1,0,0,1,0,0,0,0,1,hexagon,star,,,,,,,,,,,,,,,,,,,,,,,,,,,,,,,,,,,,,,,,,,,,,,,,,,,,,,
295516,2022-10-03_10h51.29.225,vts_reward_expectancy,2022.2.4,MacIntel,62.5,Safari,1440,900,,,l,0.25,1,571,2,1,9,21,3,1,0,1,0,0,1,0,0,0,circle,triangle,,,,,,,,,,,,,,,,,,,,,,,,,,,,,,,,,,,,,,,,,,,,,,,,,,,,,,
295516,2022-10-03_10h51.29.225,vts_reward_expectancy,2022.2.4,MacIntel,62.5,Safari,1440,900,,,l,0.297,1,572,2,1,10,22,1,1,1,0,0,0,0,0,1,0,triangle,hexagon,,,,,,,,,,,,,,,,,,,,,,,,,,,,,,,,,,,,,,,,,,,,,,,,,,,,,,
295516,2022-10-03_10h51.29.225,vts_reward_expectancy,2022.2.4,MacIntel,62.5,Safari,1440,900,,,l,0.141,10,582,2,1,11,23,6,1,0,0,1,0,1,0,0,0,hexagon,triangle,,,,,,,,,,,,,,,,,,,,,,,,,,,,,,,,,,,,,,,,,,,,,,,,,,,,,,
295516,2022-10-03_10h51.29.225,vts_reward_expectancy,2022.2.4,MacIntel,62.5,Safari,1440,900,,,l,0.305,10,592,2,2,0,24,0,1,1,0,0,0,0,1,0,0,triangle,circle,,,,,,,,,,,,,,,,,,,,,,,,,,,,,,,,,,,,,,,,,,,,,,,,,,,,,,
295516,2022-10-03_10h51.29.225,vts_reward_expectancy,2022.2.4,MacIntel,62.5,Safari,1440,900,,,l,0.3,1,593,2,2,1,25,2,1,1,0,0,0,0,0,0,1,triangle,star,,,,,,,,,,,,,,,,,,,,,,,,,,,,,,,,,,,,,,,,,,,,,,,,,,,,,,
295516,2022-10-03_10h51.29.225,vts_reward_expectancy,2022.2.4,MacIntel,62.5,Safari,1440,900,,,l,0.236,10,603,2,2,2,26,10,1,0,0,0,1,0,1,0,0,star ,circle,,,,,,,,,,,,,,,,,,,,,,,,,,,,,,,,,,,,,,,,,,,,,,,,,,,,,,
295516,2022-10-03_10h51.29.225,vts_reward_expectancy,2022.2.4,MacIntel,62.5,Safari,1440,900,,,l,0.284,10,613,2,2,3,27,6,1,0,0,1,0,1,0,0,0,hexagon,triangle,,,,,,,,,,,,,,,,,,,,,,,,,,,,,,,,,,,,,,,,,,,,,,,,,,,,,,
295516,2022-10-03_10h51.29.225,vts_reward_expectancy,2022.2.4,MacIntel,62.5,Safari,1440,900,,,a,0.124,10,623,2,2,4,28,3,1,0,1,0,0,1,0,0,0,circle,triangle,,,,,,,,,,,,,,,,,,,,,,,,,,,,,,,,,,,,,,,,,,,,,,,,,,,,,,
295516,2022-10-03_10h51.29.225,vts_reward_expectancy,2022.2.4,MacIntel,62.5,Safari,1440,900,,,a,0.233,1,624,2,2,5,29,7,1,0,0,1,0,0,1,0,0,hexagon,circle,,,,,,,,,,,,,,,,,,,,,,,,,,,,,,,,,,,,,,,,,,,,,,,,,,,,,,
295516,2022-10-03_10h51.29.225,vts_reward_expectancy,2022.2.4,MacIntel,62.5,Safari,1440,900,,,a,0.27,10,634,2,2,6,30,4,1,0,1,0,0,0,0,1,0,circle,hexagon,,,,,,,,,,,,,,,,,,,,,,,,,,,,,,,,,,,,,,,,,,,,,,,,,,,,,,
295516,2022-10-03_10h51.29.225,vts_reward_expectancy,2022.2.4,MacIntel,62.5,Safari,1440,900,,,l,0.15,10,644,2,2,7,31,1,1,1,0,0,0,0,0,1,0,triangle,hexagon,,,,,,,,,,,,,,,,,,,,,,,,,,,,,,,,,,,,,,,,,,,,,,,,,,,,,,
295516,2022-10-03_10h51.29.225,vts_reward_expectancy,2022.2.4,MacIntel,62.5,Safari,1440,900,,,a,0.267,1,645,2,2,8,32,11,1,0,0,0,1,0,0,1,0,star,hexagon,,,,,,,,,,,,,,,,,,,,,,,,,,,,,,,,,,,,,,,,,,,,,,,,,,,,,,
295516,2022-10-03_10h51.29.225,vts_reward_expectancy,2022.2.4,MacIntel,62.5,Safari,1440,900,,,a,0.172,1,646,2,2,9,33,5,1,0,1,0,0,0,0,0,1,circle,star,,,,,,,,,,,,,,,,,,,,,,,,,,,,,,,,,,,,,,,,,,,,,,,,,,,,,,
295516,2022-10-03_10h51.29.225,vts_reward_expectancy,2022.2.4,MacIntel,62.5,Safari,1440,900,,,a,0.24,1,647,2,2,10,34,8,1,0,0,1,0,0,0,0,1,hexagon,star,,,,,,,,,,,,,,,,,,,,,,,,,,,,,,,,,,,,,,,,,,,,,,,,,,,,,,
295516,2022-10-03_10h51.29.225,vts_reward_expectancy,2022.2.4,MacIntel,62.5,Safari,1440,900,,,a,0.253,1,648,2,2,11,35,9,1,0,0,0,1,1,0,0,0,star,triangle,,,,,,,,,,,,,,,,,,,,,,,,,,,,,,,,,,,,,,,,,,,,,,,,,,,,,,
295516,2022-10-03_10h51.29.225,vts_reward_expectancy,2022.2.4,MacIntel,62.5,Safari,1440,900,,,,,,,,,,,,,,,,,,,,,,,125,U,circle,0,0,,0,0,0,0,0,1,,,,,,,,,,,,,,,,,,,,,,,,,,,,,,,,,,,,,,,,,,
295516,2022-10-03_10h51.29.225,vts_reward_expectancy,2022.2.4,MacIntel,62.5,Safari,1440,900,,,,,,,,,,,,,,,,,,,,,,,139,F,star,1,1,d,0,1,0,1,0,1,0.997,,,,,,,,,,,,,,,,,,,,,,,,,,,,,,,,,,,,,,,,,
295516,2022-10-03_10h51.29.225,vts_reward_expectancy,2022.2.4,MacIntel,62.5,Safari,1440,900,,,,,,,,,,,,,,,,,,,,,,,132,H,triangle,1,0,d,0,2,0,2,0,1,0.697,,,,,,,,,,,,,,,,,,,,,,,,,,,,,,,,,,,,,,,,,
295516,2022-10-03_10h51.29.225,vts_reward_expectancy,2022.2.4,MacIntel,62.5,Safari,1440,900,,,,,,,,,,,,,,,,,,,,,,,160,Y,hexagon,1,0,f,0,3,0,3,0,1,0.93,,,,,,,,,,,,,,,,,,,,,,,,,,,,,,,,,,,,,,,,,
295516,2022-10-03_10h51.29.225,vts_reward_expectancy,2022.2.4,MacIntel,62.5,Safari,1440,900,,,,,,,,,,,,,,,,,,,,,,,146,W,circle,1,0,d,0,4,0,4,0,1,0.552,,,,,,,,,,,,,,,,,,,,,,,,,,,,,,,,,,,,,,,,,
295516,2022-10-03_10h51.29.225,vts_reward_expectancy,2022.2.4,MacIntel,62.5,Safari,1440,900,,,,,,,,,,,,,,,,,,,,,,,174,S,star,1,0,f,0,5,0,5,0,1,0.671,,,,,,,,,,,,,,,,,,,,,,,,,,,,,,,,,,,,,,,,,
295516,2022-10-03_10h51.29.225,vts_reward_expectancy,2022.2.4,MacIntel,62.5,Safari,1440,900,,,,,,,,,,,,,,,,,,,,,,,167,D,triangle,1,0,f,0,6,0,6,0,1,0.852,,,,,,,,,,,,,,,,,,,,,,,,,,,,,,,,,,,,,,,,,
295516,2022-10-03_10h51.29.225,vts_reward_expectancy,2022.2.4,MacIntel,62.5,Safari,1440,900,,,,,,,,,,,,,,,,,,,,,,,181,B,hexagon,1,0,f,0,7,0,7,0,1,0.635,,,,,,,,,,,,,,,,,,,,,,,,,,,,,,,,,,,,,,,,,
295516,2022-10-03_10h51.29.225,vts_reward_expectancy,2022.2.4,MacIntel,62.5,Safari,1440,900,,,,,,,,,,,,,,,,,,,,,,,125,U,star,1,0,d,0,8,0,8,0,1,0.646,,,,,,,,,,,,,,,,,,,,,,,,,,,,,,,,,,,,,,,,,
295516,2022-10-03_10h51.29.225,vts_reward_expectancy,2022.2.4,MacIntel,62.5,Safari,1440,900,,,,,,,,,,,,,,,,,,,,,,,139,F,hexagon,1,0,d,0,9,0,9,0,1,0.902,,,,,,,,,,,,,,,,,,,,,,,,,,,,,,,,,,,,,,,,,
295516,2022-10-03_10h51.29.225,vts_reward_expectancy,2022.2.4,MacIntel,62.5,Safari,1440,900,,,,,,,,,,,,,,,,,,,,,,,146,B,hexagon,1,0,,1,,,,,,,j,1.098,0,0,0,0,1,,,,,,,,,,,,,,,,,,,,,,,,,,,,,,,,,,
295516,2022-10-03_10h51.29.225,vts_reward_expectancy,2022.2.4,MacIntel,62.5,Safari,1440,900,,,,,,,,,,,,,,,,,,,,,,,167,H,triangle,1,0,,1,,,,,,,j,0.846,1,0,1,0,1,,,,,,,,,,,,,,,,,,,,,,,,,,,,,,,,,,
295516,2022-10-03_10h51.29.225,vts_reward_expectancy,2022.2.4,MacIntel,62.5,Safari,1440,900,,,,,,,,,,,,,,,,,,,,,,,181,D,star,1,0,,1,,,,,,,j,0.737,2,0,2,0,1,,,,,,,,,,,,,,,,,,,,,,,,,,,,,,,,,,
295516,2022-10-03_10h51.29.225,vts_reward_expectancy,2022.2.4,MacIntel,62.5,Safari,1440,900,,,,,,,,,,,,,,,,,,,,,,,132,S,circle,1,0,,1,,,,,,,k,0.831,3,0,3,0,1,,,,,,,,,,,,,,,,,,,,,,,,,,,,,,,,,,
295516,2022-10-03_10h51.29.225,vts_reward_expectancy,2022.2.4,MacIntel,62.5,Safari,1440,900,,,,,,,,,,,,,,,,,,,,,,,174,Y,hexagon,1,0,,1,,,,,,,k,0.547,4,0,4,0,1,,,,,,,,,,,,,,,,,,,,,,,,,,,,,,,,,,
295516,2022-10-03_10h51.29.225,vts_reward_expectancy,2022.2.4,MacIntel,62.5,Safari,1440,900,,,,,,,,,,,,,,,,,,,,,,,139,F,triangle,1,0,,1,,,,,,,j,0.963,5,0,5,0,1,,,,,,,,,,,,,,,,,,,,,,,,,,,,,,,,,,
295516,2022-10-03_10h51.29.225,vts_reward_expectancy,2022.2.4,MacIntel,62.5,Safari,1440,900,,,,,,,,,,,,,,,,,,,,,,,125,W,star,1,0,,1,,,,,,,k,0.697,6,0,6,0,1,,,,,,,,,,,,,,,,,,,,,,,,,,,,,,,,,,
295516,2022-10-03_10h51.29.225,vts_reward_expectancy,2022.2.4,MacIntel,62.5,Safari,1440,900,,,,,,,,,,,,,,,,,,,,,,,160,U,circle,1,0,,1,,,,,,,k,0.832,7,0,7,0,1,,,,,,,,,,,,,,,,,,,,,,,,,,,,,,,,,,
295516,2022-10-03_10h51.29.225,vts_reward_expectancy,2022.2.4,MacIntel,62.5,Safari,1440,900,,,,,,,,,,,,,,,,,,,,,,,146,B,star,1,0,,1,,,,,,,j,0.766,8,0,8,0,1,,,,,,,,,,,,,,,,,,,,,,,,,,,,,,,,,,
295516,2022-10-03_10h51.29.225,vts_reward_expectancy,2022.2.4,MacIntel,62.5,Safari,1440,900,,,,,,,,,,,,,,,,,,,,,,,167,H,triangle,1,0,,1,,,,,,,j,0.681,9,0,9,0,1,,,,,,,,,,,,,,,,,,,,,,,,,,,,,,,,,,
295516,2022-10-03_10h51.29.225,vts_reward_expectancy,2022.2.4,MacIntel,62.5,Safari,1440,900,,,,,0,648,,,,,,,,,,,,,,,,,160,B,hexagon,0,0,,2,,,,,,,,,,,,,,-1,number,NA,d,1.56,vtsPrac,0,0,0,0,1,,,,,,,,,,,,,,,,,,,,,,,
295516,2022-10-03_10h51.29.225,vts_reward_expectancy,2022.2.4,MacIntel,62.5,Safari,1440,900,,,,,0,648,,,,,,,,,,,,,,,,,132,H,circle,1,1,,2,,,,,,,,,,,,,,repeat,number,numRpt,d,0.754,vtsPrac,1,0,1,0,1,,,,,,,,,,,,,,,,,,,,,,,
295516,2022-10-03_10h51.29.225,vts_reward_expectancy,2022.2.4,MacIntel,62.5,Safari,1440,900,,,,,0,648,,,,,,,,,,,,,,,,,174,U,hexagon,1,0,,2,,,,,,,,,,,,,,switch,letter,lettSwt,k,0.647,vtsPrac,2,0,2,0,1,,,,,,,,,,,,,,,,,,,,,,,
295516,2022-10-03_10h51.29.225,vts_reward_expectancy,2022.2.4,MacIntel,62.5,Safari,1440,900,,,,,0,648,,,,,,,,,,,,,,,,,139,Y,circle,1,0,,2,,,,,,,,,,,,,,repeat,letter,lettRpt,k,0.614,vtsPrac,3,0,3,0,1,,,,,,,,,,,,,,,,,,,,,,,
295516,2022-10-03_10h51.29.225,vts_reward_expectancy,2022.2.4,MacIntel,62.5,Safari,1440,900,,,,,0,648,,,,,,,,,,,,,,,,,160,B,star,1,0,,2,,,,,,,,,,,,,,switch,number,numSwt,f,0.982,vtsPrac,4,0,4,0,1,,,,,,,,,,,,,,,,,,,,,,,
295516,2022-10-03_10h51.29.225,vts_reward_expectancy,2022.2.4,MacIntel,62.5,Safari,1440,900,,,,,0,648,,,,,,,,,,,,,,,,,132,H,triangle,1,0,,2,,,,,,,,,,,,,,repeat,number,numRpt,d,0.764,vtsPrac,5,0,5,0,1,,,,,,,,,,,,,,,,,,,,,,,
295516,2022-10-03_10h51.29.225,vts_reward_expectancy,2022.2.4,MacIntel,62.5,Safari,1440,900,,,,,0,648,,,,,,,,,,,,,,,,,174,U,star,1,0,,2,,,,,,,,,,,,,,repeat,number,numRpt,f,0.766,vtsPrac,6,0,6,0,1,,,,,,,,,,,,,,,,,,,,,,,
295516,2022-10-03_10h51.29.225,vts_reward_expectancy,2022.2.4,MacIntel,62.5,Safari,1440,900,,,,,0,648,,,,,,,,,,,,,,,,,139,Y,triangle,1,0,,2,,,,,,,,,,,,,,switch,letter,lettSwt,k,0.731,vtsPrac,7,0,7,0,1,,,,,,,,,,,,,,,,,,,,,,,
295516,2022-10-03_10h51.29.225,vts_reward_expectancy,2022.2.4,MacIntel,62.5,Safari,1440,900,,,,,0,648,,,,,,,,,,,,,,,,,160,F,triangle,1,0,,2,,,,,,,,,,,,,,repeat,letter,lettRpt,j,0.754,vtsPrac,8,0,8,0,1,,,,,,,,,,,,,,,,,,,,,,,
295516,2022-10-03_10h51.29.225,vts_reward_expectancy,2022.2.4,MacIntel,62.5,Safari,1440,900,,,,,0,648,,,,,,,,,,,,,,,,,132,B,circle,1,0,,2,,,,,,,,,,,,,,switch,number,numSwt,d,0.502,vtsPrac,9,0,9,0,1,,,,,,,,,,,,,,,,,,,,,,,
295516,2022-10-03_10h51.29.225,vts_reward_expectancy,2022.2.4,MacIntel,62.5,Safari,1440,900,,,,,0,648,,,,,,,,,,,,,,,,,139,U,circle,1,0,,2,,,,,,,,,,,,,,switch,letter,lettSwt,k,0.832,vtsPrac,10,0,10,0,1,,,,,,,,,,,,,,,,,,,,,,,
295516,2022-10-03_10h51.29.225,vts_reward_expectancy,2022.2.4,MacIntel,62.5,Safari,1440,900,,,,,0,648,,,,,,,,,,,,,,,,,174,W,triangle,1,0,,2,,,,,,,,,,,,,,switch,number,numSwt,f,0.631,vtsPrac,11,0,11,0,1,,,,,,,,,,,,,,,,,,,,,,,
295516,2022-10-03_10h51.29.225,vts_reward_expectancy,2022.2.4,MacIntel,62.5,Safari,1440,900,,,,,0,648,,,,,,,,,,,,,,,,,132,Y,circle,1,0,,2,,,,,,,,,,,,,,repeat,number,numRpt,d,0.881,vtsPrac,12,0,12,0,1,,,,,,,,,,,,,,,,,,,,,,,
295516,2022-10-03_10h51.29.225,vts_reward_expectancy,2022.2.4,MacIntel,62.5,Safari,1440,900,,,,,0,648,,,,,,,,,,,,,,,,,181,U,star,1,0,,2,,,,,,,,,,,,,,repeat,number,numRpt,f,0.569,vtsPrac,13,0,13,0,1,,,,,,,,,,,,,,,,,,,,,,,
295516,2022-10-03_10h51.29.225,vts_reward_expectancy,2022.2.4,MacIntel,62.5,Safari,1440,900,,,,,0,648,,,,,,,,,,,,,,,,,167,H,triangle,1,0,,2,,,,,,,,,,,,,,switch,letter,lettSwt,j,0.813,vtsPrac,14,0,14,0,1,,,,,,,,,,,,,,,,,,,,,,,
295516,2022-10-03_10h51.29.225,vts_reward_expectancy,2022.2.4,MacIntel,62.5,Safari,1440,900,,,,,0,648,,,,,,,,,,,,,,,,,146,F,circle,1,0,,2,,,,,,,,,,,,,,repeat,letter,lettRpt,j,0.813,vtsPrac,15,0,15,0,1,,,,,,,,,,,,,,,,,,,,,,,
295516,2022-10-03_10h51.29.225,vts_reward_expectancy,2022.2.4,MacIntel,62.5,Safari,1440,900,,,,,,,,,,,,,,,,,,,,,,,,,,,,,,,,,,,,,,,,,,,,,,,,,,,,,,,,,,,,,,,,,,,,,,,,,,,,
295516,2022-10-03_10h51.29.225,vts_reward_expectancy,2022.2.4,MacIntel,62.5,Safari,1440,900,,,,,,,,,,,,,,,,,,,,,,,,,,,,,,,,,,,,,,,,,,,,,,,,,,,,,,,,,,,,,,,,,,,,,,,,,,,,
295516,2022-10-03_10h51.29.225,vts_reward_expectancy,2022.2.4,MacIntel,62.5,Safari,1440,900,,,,,0,648,,,,,,,,,,,,,,,,,160,D,star,1,0,,,,,,,,,,,,,,,,switch,number,numSwt,f,1,noRew,,,,,,0,0,0,0,0,1,,,,,,,,,,,,,,,,,
295516,2022-10-03_10h51.29.225,vts_reward_expectancy,2022.2.4,MacIntel,62.5,Safari,1440,900,,,,,0,648,,,,,,,,,,,,,,,,,174,Y,hexagon,1,0,,,,,,,,,,,,,,,,repeat,number,numRpt,f,0.835,noRew,,,,,,0,1,0,1,0,1,,,,,,,,,,,,,,,,,
295516,2022-10-03_10h51.29.225,vts_reward_expectancy,2022.2.4,MacIntel,62.5,Safari,1440,900,,,,,0,648,,,,,,,,,,,,,,,,,125,B,star,1,0,,,,,,,,,,,,,,,,repeat,number,numRpt,d,0.63,noRew,,,,,,0,2,0,2,0,1,,,,,,,,,,,,,,,,,
295516,2022-10-03_10h51.29.225,vts_reward_expectancy,2022.2.4,MacIntel,62.5,Safari,1440,900,,,,,0,648,,,,,,,,,,,,,,,,,132,F,hexagon,1,0,,,,,,,,,,,,,,,,switch,letter,lettSwt,j,0.682,noRew,,,,,,0,3,0,3,0,1,,,,,,,,,,,,,,,,,
295516,2022-10-03_10h51.29.225,vts_reward_expectancy,2022.2.4,MacIntel,62.5,Safari,1440,900,,,,,0,648,,,,,,,,,,,,,,,,,160,D,circle,1,0,,,,,,,,,,,,,,,,switch,number,numSwt,f,0.782,noRew,,,,,,0,4,0,4,0,1,,,,,,,,,,,,,,,,,
295516,2022-10-03_10h51.29.225,vts_reward_expectancy,2022.2.4,MacIntel,62.5,Safari,1440,900,,,,,0,648,,,,,,,,,,,,,,,,,174,Y,triangle,1,0,,,,,,,,,,,,,,,,switch,letter,lettSwt,k,0.766,noRew,,,,,,0,5,0,5,0,1,,,,,,,,,,,,,,,,,
295516,2022-10-03_10h51.29.225,vts_reward_expectancy,2022.2.4,MacIntel,62.5,Safari,1440,900,,,,,0,648,,,,,,,,,,,,,,,,,125,B,triangle,1,0,,,,,,,,,,,,,,,,repeat,letter,lettRpt,j,0.764,noRew,,,,,,0,6,0,6,0,1,,,,,,,,,,,,,,,,,
295516,2022-10-03_10h51.29.225,vts_reward_expectancy,2022.2.4,MacIntel,62.5,Safari,1440,900,,,,,0,648,,,,,,,,,,,,,,,,,132,F,circle,1,0,,,,,,,,,,,,,,,,switch,number,numSwt,d,0.83,noRew,,,,,,0,7,0,7,0,1,,,,,,,,,,,,,,,,,
295516,2022-10-03_10h51.29.225,vts_reward_expectancy,2022.2.4,MacIntel,62.5,Safari,1440,900,,,,,0,648,,,,,,,,,,,,,,,,,181,D,star,1,0,,,,,,,,,,,,,,,,switch,letter,lettSwt,j,1.013,noRew,,,,,,0,8,0,8,0,1,,,,,,,,,,,,,,,,,
295516,2022-10-03_10h51.29.225,vts_reward_expectancy,2022.2.4,MacIntel,62.5,Safari,1440,900,,,,,0,648,,,,,,,,,,,,,,,,,132,B,circle,1,0,,,,,,,,,,,,,,,,repeat,letter,lettRpt,j,0.806,noRew,,,,,,0,9,0,9,0,1,,,,,,,,,,,,,,,,,
295516,2022-10-03_10h51.29.225,vts_reward_expectancy,2022.2.4,MacIntel,62.5,Safari,1440,900,,,,,0,648,,,,,,,,,,,,,,,,,174,Y,triangle,1,0,,,,,,,,,,,,,,,,switch,number,numSwt,f,0.698,noRew,,,,,,0,10,0,10,0,1,,,,,,,,,,,,,,,,,
295516,2022-10-03_10h51.29.225,vts_reward_expectancy,2022.2.4,MacIntel,62.5,Safari,1440,900,,,,,0,648,,,,,,,,,,,,,,,,,139,W,circle,1,0,,,,,,,,,,,,,,,,repeat,number,numRpt,d,1.08,noRew,,,,,,0,11,0,11,0,1,,,,,,,,,,,,,,,,,
295516,2022-10-03_10h51.29.225,vts_reward_expectancy,2022.2.4,MacIntel,62.5,Safari,1440,900,,,,,0,648,,,,,,,,,,,,,,,,,174,H,hexagon,1,0,,,,,,,,,,,,,,,,switch,letter,lettSwt,j,1.487,noRew,,,,,,0,12,0,12,0,1,,,,,,,,,,,,,,,,,
295516,2022-10-03_10h51.29.225,vts_reward_expectancy,2022.2.4,MacIntel,62.5,Safari,1440,900,,,,,0,648,,,,,,,,,,,,,,,,,146,W,circle,1,0,,,,,,,,,,,,,,,,repeat,letter,lettRpt,k,1.748,noRew,,,,,,0,13,0,13,0,1,,,,,,,,,,,,,,,,,
295516,2022-10-03_10h51.29.225,vts_reward_expectancy,2022.2.4,MacIntel,62.5,Safari,1440,900,,,,,0,648,,,,,,,,,,,,,,,,,160,F,hexagon,1,0,,,,,,,,,,,,,,,,switch,number,numSwt,f,1.813,noRew,,,,,,0,14,0,14,0,1,,,,,,,,,,,,,,,,,
295516,2022-10-03_10h51.29.225,vts_reward_expectancy,2022.2.4,MacIntel,62.5,Safari,1440,900,,,,,0,648,,,,,,,,,,,,,,,,,181,B,star,1,0,,,,,,,,,,,,,,,,switch,letter,lettSwt,j,0.538,noRew,,,,,,0,15,0,15,0,1,,,,,,,,,,,,,,,,,
295516,2022-10-03_10h51.29.225,vts_reward_expectancy,2022.2.4,MacIntel,62.5,Safari,1440,900,,,,,0,648,,,,,,,,,,,,,,,,,146,S,hexagon,1,0,,,,,,,,,,,,,,,,switch,number,numSwt,d,1.697,noRew,,,,,,0,16,0,16,0,1,,,,,,,,,,,,,,,,,
295516,2022-10-03_10h51.29.225,vts_reward_expectancy,2022.2.4,MacIntel,62.5,Safari,1440,900,,,,,0,648,,,,,,,,,,,,,,,,,181,U,star,1,0,,,,,,,,,,,,,,,,repeat,number,numRpt,f,0.73,noRew,,,,,,0,17,0,17,0,1,,,,,,,,,,,,,,,,,
295516,2022-10-03_10h51.29.225,vts_reward_expectancy,2022.2.4,MacIntel,62.5,Safari,1440,900,,,,,0,648,,,,,,,,,,,,,,,,,174,Y,triangle,1,0,,,,,,,,,,,,,,,,switch,letter,lettSwt,k,1.154,noRew,,,,,,0,18,0,18,0,1,,,,,,,,,,,,,,,,,
295516,2022-10-03_10h51.29.225,vts_reward_expectancy,2022.2.4,MacIntel,62.5,Safari,1440,900,,,,,0,648,,,,,,,,,,,,,,,,,132,D,hexagon,1,0,,,,,,,,,,,,,,,,switch,number,numSwt,d,1.183,noRew,,,,,,0,19,0,19,0,1,,,,,,,,,,,,,,,,,
295516,2022-10-03_10h51.29.225,vts_reward_expectancy,2022.2.4,MacIntel,62.5,Safari,1440,900,,,,,0,648,,,,,,,,,,,,,,,,,181,S,triangle,1,0,,,,,,,,,,,,,,,,repeat,number,numRpt,f,0.969,noRew,,,,,,0,20,0,20,0,1,,,,,,,,,,,,,,,,,
295516,2022-10-03_10h51.29.225,vts_reward_expectancy,2022.2.4,MacIntel,62.5,Safari,1440,900,,,,,0,648,,,,,,,,,,,,,,,,,132,H,circle,1,0,,,,,,,,,,,,,,,,switch,letter,lettSwt,j,1.23,noRew,,,,,,0,21,0,21,0,1,,,,,,,,,,,,,,,,,
295516,2022-10-03_10h51.29.225,vts_reward_expectancy,2022.2.4,MacIntel,62.5,Safari,1440,900,,,,,0,648,,,,,,,,,,,,,,,,,160,D,star,0,0,,,,,,,,,,,,,,,,repeat,letter,NA,k,0.546,noRew,,,,,,0,22,0,22,0,1,,,,,,,,,,,,,,,,,
295516,2022-10-03_10h51.29.225,vts_reward_expectancy,2022.2.4,MacIntel,62.5,Safari,1440,900,,,,,0,648,,,,,,,,,,,,,,,,,174,F,hexagon,1,1,,,,,,,,,,,,,,,,repeat,letter,lettRpt,j,1.596,noRew,,,,,,0,23,0,23,0,1,,,,,,,,,,,,,,,,,
295516,2022-10-03_10h51.29.225,vts_reward_expectancy,2022.2.4,MacIntel,62.5,Safari,1440,900,,,,,0,648,,,,,,,,,,,,,,,,,167,U,star,1,0,,,,,,,,,,,,,,,,repeat,letter,lettRpt,k,1.047,noRew,,,,,,0,24,0,24,0,1,,,,,,,,,,,,,,,,,
295516,2022-10-03_10h51.29.225,vts_reward_expectancy,2022.2.4,MacIntel,62.5,Safari,1440,900,,,,,0,648,,,,,,,,,,,,,,,,,146,S,circle,1,0,,,,,,,,,,,,,,,,switch,number,numSwt,d,1.003,noRew,,,,,,0,25,0,25,0,1,,,,,,,,,,,,,,,,,
295516,2022-10-03_10h51.29.225,vts_reward_expectancy,2022.2.4,MacIntel,62.5,Safari,1440,900,,,,,0,648,,,,,,,,,,,,,,,,,174,Y,triangle,1,0,,,,,,,,,,,,,,,,repeat,number,numRpt,f,0.813,noRew,,,,,,0,26,0,26,0,1,,,,,,,,,,,,,,,,,
295516,2022-10-03_10h51.29.225,vts_reward_expectancy,2022.2.4,MacIntel,62.5,Safari,1440,900,,,,,0,648,,,,,,,,,,,,,,,,,132,F,star,1,0,,,,,,,,,,,,,,,,repeat,number,numRpt,d,1.133,noRew,,,,,,0,27,0,27,0,1,,,,,,,,,,,,,,,,,
295516,2022-10-03_10h51.29.225,vts_reward_expectancy,2022.2.4,MacIntel,62.5,Safari,1440,900,,,,,0,648,,,,,,,,,,,,,,,,,146,W,star,1,0,,,,,,,,,,,,,,,,repeat,number,numRpt,d,0.749,noRew,,,,,,0,28,0,28,0,1,,,,,,,,,,,,,,,,,
295516,2022-10-03_10h51.29.225,vts_reward_expectancy,2022.2.4,MacIntel,62.5,Safari,1440,900,,,,,0,648,,,,,,,,,,,,,,,,,174,Y,circle,1,0,,,,,,,,,,,,,,,,switch,letter,lettSwt,k,0.713,noRew,,,,,,0,29,0,29,0,1,,,,,,,,,,,,,,,,,
295516,2022-10-03_10h51.29.225,vts_reward_expectancy,2022.2.4,MacIntel,62.5,Safari,1440,900,,,,,0,648,,,,,,,,,,,,,,,,,181,F,hexagon,1,0,,,,,,,,,,,,,,,,repeat,letter,lettRpt,j,0.83,noRew,,,,,,0,30,0,30,0,1,,,,,,,,,,,,,,,,,
295516,2022-10-03_10h51.29.225,vts_reward_expectancy,2022.2.4,MacIntel,62.5,Safari,1440,900,,,,,0,648,,,,,,,,,,,,,,,,,125,B,star,1,0,,,,,,,,,,,,,,,,switch,number,numSwt,d,0.83,noRew,,,,,,0,31,0,31,0,1,,,,,,,,,,,,,,,,,
295516,2022-10-03_10h51.29.225,vts_reward_expectancy,2022.2.4,MacIntel,62.5,Safari,1440,900,,,,,0,648,,,,,,,,,,,,,,,,,125,W,triangle,1,0,,,,,,,,,,,,,,,,switch,letter,lettSwt,k,0.732,noRew,,,,,,0,32,0,32,0,1,,,,,,,,,,,,,,,,,
295516,2022-10-03_10h51.29.225,vts_reward_expectancy,2022.2.4,MacIntel,62.5,Safari,1440,900,,,,,0,648,,,,,,,,,,,,,,,,,181,D,circle,1,0,,,,,,,,,,,,,,,,switch,number,numSwt,f,0.748,noRew,,,,,,0,33,0,33,0,1,,,,,,,,,,,,,,,,,
295516,2022-10-03_10h51.29.225,vts_reward_expectancy,2022.2.4,MacIntel,62.5,Safari,1440,900,,,,,0,648,,,,,,,,,,,,,,,,,139,B,circle,1,0,,,,,,,,,,,,,,,,repeat,number,numRpt,d,1.147,noRew,,,,,,0,34,0,34,0,1,,,,,,,,,,,,,,,,,
295516,2022-10-03_10h51.29.225,vts_reward_expectancy,2022.2.4,MacIntel,62.5,Safari,1440,900,,,,,0,648,,,,,,,,,,,,,,,,,174,U,star,1,0,,,,,,,,,,,,,,,,repeat,number,numRpt,f,0.553,noRew,,,,,,0,35,0,35,0,1,,,,,,,,,,,,,,,,,
295516,2022-10-03_10h51.29.225,vts_reward_expectancy,2022.2.4,MacIntel,62.5,Safari,1440,900,,,,,0,648,,,,,,,,,,,,,,,,,167,S,hexagon,1,0,,,,,,,,,,,,,,,,repeat,number,numRpt,f,1.031,noRew,,,,,,0,36,0,36,0,1,,,,,,,,,,,,,,,,,
295516,2022-10-03_10h51.29.225,vts_reward_expectancy,2022.2.4,MacIntel,62.5,Safari,1440,900,,,,,0,648,,,,,,,,,,,,,,,,,160,D,triangle,0,0,,,,,,,,,,,,,,,,switch,letter,NA,k,0.954,noRew,,,,,,0,37,0,37,0,1,,,,,,,,,,,,,,,,,
295516,2022-10-03_10h51.29.225,vts_reward_expectancy,2022.2.4,MacIntel,62.5,Safari,1440,900,,,,,0,648,,,,,,,,,,,,,,,,,181,W,circle,1,1,,,,,,,,,,,,,,,,repeat,letter,lettRpt,k,1.53,noRew,,,,,,0,38,0,38,0,1,,,,,,,,,,,,,,,,,
295516,2022-10-03_10h51.29.225,vts_reward_expectancy,2022.2.4,MacIntel,62.5,Safari,1440,900,,,,,0,648,,,,,,,,,,,,,,,,,139,F,star,1,0,,,,,,,,,,,,,,,,repeat,letter,lettRpt,j,1.587,noRew,,,,,,0,39,0,39,0,1,,,,,,,,,,,,,,,,,
295516,2022-10-03_10h51.29.225,vts_reward_expectancy,2022.2.4,MacIntel,62.5,Safari,1440,900,,,,,0,648,,,,,,,,,,,,,,,,,167,D,circle,1,0,,,,,,,,,,,,,,,,switch,number,numSwt,f,0.787,noRew,,,,,,0,40,0,40,0,1,,,,,,,,,,,,,,,,,
295516,2022-10-03_10h51.29.225,vts_reward_expectancy,2022.2.4,MacIntel,62.5,Safari,1440,900,,,,,0,648,,,,,,,,,,,,,,,,,181,F,star,1,0,,,,,,,,,,,,,,,,repeat,number,numRpt,f,1.581,noRew,,,,,,0,41,0,41,0,1,,,,,,,,,,,,,,,,,
295516,2022-10-03_10h51.29.225,vts_reward_expectancy,2022.2.4,MacIntel,62.5,Safari,1440,900,,,,,0,648,,,,,,,,,,,,,,,,,146,U,circle,1,0,,,,,,,,,,,,,,,,repeat,number,numRpt,d,0.787,noRew,,,,,,0,42,0,42,0,1,,,,,,,,,,,,,,,,,
295516,2022-10-03_10h51.29.225,vts_reward_expectancy,2022.2.4,MacIntel,62.5,Safari,1440,900,,,,,0,648,,,,,,,,,,,,,,,,,160,B,star,1,0,,,,,,,,,,,,,,,,switch,letter,lettSwt,j,1.446,noRew,,,,,,0,43,0,43,0,1,,,,,,,,,,,,,,,,,
295516,2022-10-03_10h51.29.225,vts_reward_expectancy,2022.2.4,MacIntel,62.5,Safari,1440,900,,,,,0,648,,,,,,,,,,,,,,,,,167,Y,circle,1,0,,,,,,,,,,,,,,,,repeat,letter,lettRpt,k,1.013,noRew,,,,,,0,44,0,44,0,1,,,,,,,,,,,,,,,,,
295516,2022-10-03_10h51.29.225,vts_reward_expectancy,2022.2.4,MacIntel,62.5,Safari,1440,900,,,,,0,648,,,,,,,,,,,,,,,,,160,D,star,1,0,,,,,,,,,,,,,,,,repeat,letter,lettRpt,j,1.031,noRew,,,,,,0,45,0,45,0,1,,,,,,,,,,,,,,,,,
295516,2022-10-03_10h51.29.225,vts_reward_expectancy,2022.2.4,MacIntel,62.5,Safari,1440,900,,,,,0,648,,,,,,,,,,,,,,,,,125,B,hexagon,1,0,,,,,,,,,,,,,,,,switch,number,numSwt,d,1.114,noRew,,,,,,0,46,0,46,0,1,,,,,,,,,,,,,,,,,
295516,2022-10-03_10h51.29.225,vts_reward_expectancy,2022.2.4,MacIntel,62.5,Safari,1440,900,,,,,0,648,,,,,,,,,,,,,,,,,181,U,star,1,0,,,,,,,,,,,,,,,,switch,letter,lettSwt,k,0.482,noRew,,,,,,0,47,0,47,0,1,,,,,,,,,,,,,,,,,
295516,2022-10-03_10h51.29.225,vts_reward_expectancy,2022.2.4,MacIntel,62.5,Safari,1440,900,,,,,0,648,,,,,,,,,,,,,,,,,132,Y,circle,0,0,,,,,,,,,,,,,,,,repeat,letter,NA,j,1.032,noRew,,,,,,0,48,0,48,0,1,,,,,,,,,,,,,,,,,
295516,2022-10-03_10h51.29.225,vts_reward_expectancy,2022.2.4,MacIntel,62.5,Safari,1440,900,,,,,0,648,,,,,,,,,,,,,,,,,125,W,triangle,1,1,,,,,,,,,,,,,,,,repeat,letter,lettRpt,k,1.148,noRew,,,,,,0,49,0,49,0,1,,,,,,,,,,,,,,,,,
295516,2022-10-03_10h51.29.225,vts_reward_expectancy,2022.2.4,MacIntel,62.5,Safari,1440,900,,,,,0,648,,,,,,,,,,,,,,,,,174,U,hexagon,1,0,,,,,,,,,,,,,,,,repeat,letter,lettRpt,k,1.322,noRew,,,,,,0,50,0,50,0,1,,,,,,,,,,,,,,,,,
295516,2022-10-03_10h51.29.225,vts_reward_expectancy,2022.2.4,MacIntel,62.5,Safari,1440,900,,,,,0,648,,,,,,,,,,,,,,,,,167,F,triangle,1,0,,,,,,,,,,,,,,,,switch,number,numSwt,f,1.263,noRew,,,,,,0,51,0,51,0,1,,,,,,,,,,,,,,,,,
295516,2022-10-03_10h51.29.225,vts_reward_expectancy,2022.2.4,MacIntel,62.5,Safari,1440,900,,,,,0,648,,,,,,,,,,,,,,,,,125,B,hexagon,1,0,,,,,,,,,,,,,,,,repeat,number,numRpt,d,0.719,noRew,,,,,,0,52,0,52,0,1,,,,,,,,,,,,,,,,,
295516,2022-10-03_10h51.29.225,vts_reward_expectancy,2022.2.4,MacIntel,62.5,Safari,1440,900,,,,,0,648,,,,,,,,,,,,,,,,,167,H,circle,1,0,,,,,,,,,,,,,,,,repeat,number,numRpt,f,0.981,noRew,,,,,,0,53,0,53,0,1,,,,,,,,,,,,,,,,,
295516,2022-10-03_10h51.29.225,vts_reward_expectancy,2022.2.4,MacIntel,62.5,Safari,1440,900,,,,,0,648,,,,,,,,,,,,,,,,,160,F,star,1,0,,,,,,,,,,,,,,,,repeat,number,numRpt,f,0.602,noRew,,,,,,0,54,0,54,0,1,,,,,,,,,,,,,,,,,
295516,2022-10-03_10h51.29.225,vts_reward_expectancy,2022.2.4,MacIntel,62.5,Safari,1440,900,,,,,0,648,,,,,,,,,,,,,,,,,146,D,triangle,1,0,,,,,,,,,,,,,,,,switch,letter,lettSwt,j,0.621,noRew,,,,,,0,55,0,55,0,1,,,,,,,,,,,,,,,,,
295516,2022-10-03_10h51.29.225,vts_reward_expectancy,2022.2.4,MacIntel,62.5,Safari,1440,900,,,,,0,648,,,,,,,,,,,,,,,,,181,S,triangle,1,0,,,,,,,,,,,,,,,,repeat,letter,lettRpt,k,1.414,noRew,,,,,,0,56,0,56,0,1,,,,,,,,,,,,,,,,,
295516,2022-10-03_10h51.29.225,vts_reward_expectancy,2022.2.4,MacIntel,62.5,Safari,1440,900,,,,,0,648,,,,,,,,,,,,,,,,,125,Y,circle,1,0,,,,,,,,,,,,,,,,repeat,letter,lettRpt,k,0.704,noRew,,,,,,0,57,0,57,0,1,,,,,,,,,,,,,,,,,
295516,2022-10-03_10h51.29.225,vts_reward_expectancy,2022.2.4,MacIntel,62.5,Safari,1440,900,,,,,0,648,,,,,,,,,,,,,,,,,167,D,star,1,0,,,,,,,,,,,,,,,,switch,number,numSwt,f,0.938,noRew,,,,,,0,58,0,58,0,1,,,,,,,,,,,,,,,,,
295516,2022-10-03_10h51.29.225,vts_reward_expectancy,2022.2.4,MacIntel,62.5,Safari,1440,900,,,,,0,648,,,,,,,,,,,,,,,,,146,W,circle,1,0,,,,,,,,,,,,,,,,switch,letter,lettSwt,k,0.981,noRew,,,,,,0,59,0,59,0,1,,,,,,,,,,,,,,,,,
295516,2022-10-03_10h51.29.225,vts_reward_expectancy,2022.2.4,MacIntel,62.5,Safari,1440,900,,,,,0,648,,,,,,,,,,,,,,,,,160,D,star,1,0,,,,,,,,,,,,,,,,repeat,letter,lettRpt,j,0.747,noRew,,,,,,0,60,0,60,0,1,,,,,,,,,,,,,,,,,
295516,2022-10-03_10h51.29.225,vts_reward_expectancy,2022.2.4,MacIntel,62.5,Safari,1440,900,,,,,0,648,,,,,,,,,,,,,,,,,139,H,circle,1,0,,,,,,,,,,,,,,,,switch,number,numSwt,d,1.116,noRew,,,,,,0,61,0,61,0,1,,,,,,,,,,,,,,,,,
295516,2022-10-03_10h51.29.225,vts_reward_expectancy,2022.2.4,MacIntel,62.5,Safari,1440,900,,,,,0,648,,,,,,,,,,,,,,,,,174,B,star,1,0,,,,,,,,,,,,,,,,repeat,number,numRpt,f,0.714,noRew,,,,,,0,62,0,62,0,1,,,,,,,,,,,,,,,,,
295516,2022-10-03_10h51.29.225,vts_reward_expectancy,2022.2.4,MacIntel,62.5,Safari,1440,900,,,,,0,648,,,,,,,,,,,,,,,,,125,W,hexagon,1,0,,,,,,,,,,,,,,,,repeat,number,numRpt,d,0.92,noRew,,,,,,0,63,0,63,0,1,,,,,,,,,,,,,,,,,
295516,2022-10-03_10h51.29.225,vts_reward_expectancy,2022.2.4,MacIntel,62.5,Safari,1440,900,,,,,,,,,,,,,,,,,,,,,,,,,,,,,,,,,,,,,,,,,,,,,,,,,,,,,,,,,,,,,,,,,,,,,,,,,,,,
295516,2022-10-03_10h51.29.225,vts_reward_expectancy,2022.2.4,MacIntel,62.5,Safari,1440,900,,,,,10,658,,,,,,,,,,,,,,,,,132,U,circle,1,0,,,,,,,,,,,,,,,,repeat,number,numRpt,d,0.531,Hi,,,,,,0,,,,,,space,6.731,high,0,0,0,0,1,,,,,,,,,
295516,2022-10-03_10h51.29.225,vts_reward_expectancy,2022.2.4,MacIntel,62.5,Safari,1440,900,,,,,1,659,,,,,,,,,,,,,,,,,167,W,star,1,0,,,,,,,,,,,,,,,,repeat,number,numRpt,f,0.604,Lo,,,,,,0,,,,,,,,high,1,0,1,0,1,,,,,,,,,
295516,2022-10-03_10h51.29.225,vts_reward_expectancy,2022.2.4,MacIntel,62.5,Safari,1440,900,,,,,10,669,,,,,,,,,,,,,,,,,174,D,circle,1,0,,,,,,,,,,,,,,,,switch,letter,lettSwt,j,0.649,Hi,,,,,,0,,,,,,,,high,2,0,2,0,1,,,,,,,,,
295516,2022-10-03_10h51.29.225,vts_reward_expectancy,2022.2.4,MacIntel,62.5,Safari,1440,900,,,,,1,670,,,,,,,,,,,,,,,,,146,F,star,1,0,,,,,,,,,,,,,,,,switch,number,numSwt,d,0.921,Lo,,,,,,0,,,,,,,,high,3,0,3,0,1,,,,,,,,,
295516,2022-10-03_10h51.29.225,vts_reward_expectancy,2022.2.4,MacIntel,62.5,Safari,1440,900,,,,,10,680,,,,,,,,,,,,,,,,,139,Y,circle,1,0,,,,,,,,,,,,,,,,switch,letter,lettSwt,k,0.533,Hi,,,,,,0,,,,,,,,high,4,0,4,0,1,,,,,,,,,
295516,2022-10-03_10h51.29.225,vts_reward_expectancy,2022.2.4,MacIntel,62.5,Safari,1440,900,,,,,10,690,,,,,,,,,,,,,,,,,160,S,star,1,0,,,,,,,,,,,,,,,,repeat,letter,lettRpt,k,0.687,Lo,,,,,,0,,,,,,,,high,5,0,5,0,1,,,,,,,,,
295516,2022-10-03_10h51.29.225,vts_reward_expectancy,2022.2.4,MacIntel,62.5,Safari,1440,900,,,,,0,690,,,,,,,,,,,,,,,,,181,H,circle,1,0,,,,,,,,,,,,,,,,repeat,letter,lettRpt,j,1.031,Hi,,,,,,0,,,,,,,,high,6,0,6,0,1,,,,,,,,,
295516,2022-10-03_10h51.29.225,vts_reward_expectancy,2022.2.4,MacIntel,62.5,Safari,1440,900,,,,,1,691,,,,,,,,,,,,,,,,,125,B,star,1,0,,,,,,,,,,,,,,,,switch,number,numSwt,d,0.498,Lo,,,,,,0,,,,,,,,high,7,0,7,0,1,,,,,,,,,
295516,2022-10-03_10h51.29.225,vts_reward_expectancy,2022.2.4,MacIntel,62.5,Safari,1440,900,,,,,1,692,,,,,,,,,,,,,,,,,132,U,circle,1,0,,,,,,,,,,,,,,,,switch,letter,lettSwt,k,0.567,Hi,,,,,,0,,,,,,,,high,8,0,8,0,1,,,,,,,,,
295516,2022-10-03_10h51.29.225,vts_reward_expectancy,2022.2.4,MacIntel,62.5,Safari,1440,900,,,,,1,693,,,,,,,,,,,,,,,,,167,W,star,1,0,,,,,,,,,,,,,,,,switch,number,numSwt,f,0.803,Lo,,,,,,0,,,,,,,,high,9,0,9,0,1,,,,,,,,,
295516,2022-10-03_10h51.29.225,vts_reward_expectancy,2022.2.4,MacIntel,62.5,Safari,1440,900,,,,,10,703,,,,,,,,,,,,,,,,,174,D,circle,1,0,,,,,,,,,,,,,,,,repeat,number,numRpt,f,0.467,Hi,,,,,,0,,,,,,,,high,10,0,10,0,1,,,,,,,,,
295516,2022-10-03_10h51.29.225,vts_reward_expectancy,2022.2.4,MacIntel,62.5,Safari,1440,900,,,,,0,703,,,,,,,,,,,,,,,,,146,F,star,0,0,,,,,,,,,,,,,,,,switch,letter,NA,k,0.419,Hi,,,,,,0,,,,,,,,high,11,0,11,0,1,,,,,,,,,
295516,2022-10-03_10h51.29.225,vts_reward_expectancy,2022.2.4,MacIntel,62.5,Safari,1440,900,,,,,1,704,,,,,,,,,,,,,,,,,139,Y,circle,1,1,,,,,,,,,,,,,,,,repeat,letter,lettRpt,k,0.531,Hi,,,,,,0,,,,,,,,high,12,0,12,0,1,,,,,,,,,
295516,2022-10-03_10h51.29.225,vts_reward_expectancy,2022.2.4,MacIntel,62.5,Safari,1440,900,,,,,1,705,,,,,,,,,,,,,,,,,160,S,star,1,0,,,,,,,,,,,,,,,,switch,number,numSwt,f,0.663,Lo,,,,,,0,,,,,,,,high,13,0,13,0,1,,,,,,,,,
295516,2022-10-03_10h51.29.225,vts_reward_expectancy,2022.2.4,MacIntel,62.5,Safari,1440,900,,,,,1,706,,,,,,,,,,,,,,,,,181,H,star,1,0,,,,,,,,,,,,,,,,repeat,number,numRpt,f,0.554,Lo,,,,,,0,,,,,,,,high,14,0,14,0,1,,,,,,,,,
295516,2022-10-03_10h51.29.225,vts_reward_expectancy,2022.2.4,MacIntel,62.5,Safari,1440,900,,,,,10,716,,,,,,,,,,,,,,,,,125,B,circle,1,0,,,,,,,,,,,,,,,,switch,letter,lettSwt,j,0.581,Hi,,,,,,0,,,,,,,,high,15,0,15,0,1,,,,,,,,,
295516,2022-10-03_10h51.29.225,vts_reward_expectancy,2022.2.4,MacIntel,62.5,Safari,1440,900,,,,,1,717,,,,,,,,,,,,,,,,,132,F,star,1,0,,,,,,,,,,,,,,,,repeat,letter,lettRpt,j,0.453,Lo,,,,,,0,,,,,,,,high,16,0,16,0,1,,,,,,,,,
295516,2022-10-03_10h51.29.225,vts_reward_expectancy,2022.2.4,MacIntel,62.5,Safari,1440,900,,,,,10,727,,,,,,,,,,,,,,,,,160,W,circle,1,0,,,,,,,,,,,,,,,,switch,number,numSwt,f,0.652,Hi,,,,,,0,,,,,,,,high,17,0,17,0,1,,,,,,,,,
295516,2022-10-03_10h51.29.225,vts_reward_expectancy,2022.2.4,MacIntel,62.5,Safari,1440,900,,,,,1,728,,,,,,,,,,,,,,,,,181,H,star,1,0,,,,,,,,,,,,,,,,switch,letter,lettSwt,j,0.714,Lo,,,,,,0,,,,,,,,high,18,0,18,0,1,,,,,,,,,
295516,2022-10-03_10h51.29.225,vts_reward_expectancy,2022.2.4,MacIntel,62.5,Safari,1440,900,,,,,10,738,,,,,,,,,,,,,,,,,174,D,circle,1,0,,,,,,,,,,,,,,,,switch,number,numSwt,f,0.633,Hi,,,,,,0,,,,,,,,high,19,0,19,0,1,,,,,,,,,
295516,2022-10-03_10h51.29.225,vts_reward_expectancy,2022.2.4,MacIntel,62.5,Safari,1440,900,,,,,0,738,,,,,,,,,,,,,,,,,146,B,circle,1,0,,,,,,,,,,,,,,,,repeat,number,numRpt,d,1.288,Hi,,,,,,0,,,,,,,,high,20,0,20,0,1,,,,,,,,,
295516,2022-10-03_10h51.29.225,vts_reward_expectancy,2022.2.4,MacIntel,62.5,Safari,1440,900,,,,,1,739,,,,,,,,,,,,,,,,,167,U,star,1,0,,,,,,,,,,,,,,,,repeat,number,numRpt,f,0.769,Lo,,,,,,0,,,,,,,,high,21,0,21,0,1,,,,,,,,,
295516,2022-10-03_10h51.29.225,vts_reward_expectancy,2022.2.4,MacIntel,62.5,Safari,1440,900,,,,,1,740,,,,,,,,,,,,,,,,,139,Y,star,1,0,,,,,,,,,,,,,,,,repeat,number,numRpt,d,1.237,Lo,,,,,,0,,,,,,,,high,22,0,22,0,1,,,,,,,,,
295516,2022-10-03_10h51.29.225,vts_reward_expectancy,2022.2.4,MacIntel,62.5,Safari,1440,900,,,,,0,740,,,,,,,,,,,,,,,,,125,S,circle,1,0,,,,,,,,,,,,,,,,switch,letter,lettSwt,k,0.82,Hi,,,,,,0,,,,,,,,high,23,0,23,0,1,,,,,,,,,
295516,2022-10-03_10h51.29.225,vts_reward_expectancy,2022.2.4,MacIntel,62.5,Safari,1440,900,,,,,10,750,,,,,,,,,,,,,,,,,160,B,circle,1,0,,,,,,,,,,,,,,,,switch,number,numSwt,f,0.531,Hi,,,,,,0,,,,,,,,high,24,0,24,0,1,,,,,,,,,
295516,2022-10-03_10h51.29.225,vts_reward_expectancy,2022.2.4,MacIntel,62.5,Safari,1440,900,,,,,10,760,,,,,,,,,,,,,,,,,125,D,star,1,0,,,,,,,,,,,,,,,,repeat,number,numRpt,d,0.565,Lo,,,,,,0,,,,,,,,high,25,0,25,0,1,,,,,,,,,
295516,2022-10-03_10h51.29.225,vts_reward_expectancy,2022.2.4,MacIntel,62.5,Safari,1440,900,,,,,10,770,,,,,,,,,,,,,,,,,146,S,circle,1,0,,,,,,,,,,,,,,,,repeat,number,numRpt,d,0.581,Hi,,,,,,0,,,,,,,,high,26,0,26,0,1,,,,,,,,,
295516,2022-10-03_10h51.29.225,vts_reward_expectancy,2022.2.4,MacIntel,62.5,Safari,1440,900,,,,,1,771,,,,,,,,,,,,,,,,,167,H,star,1,0,,,,,,,,,,,,,,,,repeat,number,numRpt,f,0.533,Lo,,,,,,0,,,,,,,,high,27,0,27,0,1,,,,,,,,,
295516,2022-10-03_10h51.29.225,vts_reward_expectancy,2022.2.4,MacIntel,62.5,Safari,1440,900,,,,,10,781,,,,,,,,,,,,,,,,,132,U,star,1,0,,,,,,,,,,,,,,,,switch,letter,lettSwt,k,0.517,Lo,,,,,,0,,,,,,,,high,28,0,28,0,1,,,,,,,,,
295516,2022-10-03_10h51.29.225,vts_reward_expectancy,2022.2.4,MacIntel,62.5,Safari,1440,900,,,,,0,781,,,,,,,,,,,,,,,,,181,F,circle,1,0,,,,,,,,,,,,,,,,repeat,letter,lettRpt,j,0.997,Hi,,,,,,0,,,,,,,,high,29,0,29,0,1,,,,,,,,,
295516,2022-10-03_10h51.29.225,vts_reward_expectancy,2022.2.4,MacIntel,62.5,Safari,1440,900,,,,,1,782,,,,,,,,,,,,,,,,,174,W,star,1,0,,,,,,,,,,,,,,,,repeat,letter,lettRpt,k,0.53,Lo,,,,,,0,,,,,,,,high,30,0,30,0,1,,,,,,,,,
295516,2022-10-03_10h51.29.225,vts_reward_expectancy,2022.2.4,MacIntel,62.5,Safari,1440,900,,,,,10,792,,,,,,,,,,,,,,,,,139,Y,circle,1,0,,,,,,,,,,,,,,,,repeat,letter,lettRpt,k,0.565,Hi,,,,,,0,,,,,,,,high,31,0,31,0,1,,,,,,,,,
295516,2022-10-03_10h51.29.225,vts_reward_expectancy,2022.2.4,MacIntel,62.5,Safari,1440,900,,,,,10,802,,,,,,,,,,,,,,,,,181,D,triangle,1,0,,,,,,,,,,,,,,,,switch,number,numSwt,f,0.615,Hi,,,,,,1,,,,,,space,4.516,low,0,0,0,0,1,,,,,,,,,
295516,2022-10-03_10h51.29.225,vts_reward_expectancy,2022.2.4,MacIntel,62.5,Safari,1440,900,,,,,1,803,,,,,,,,,,,,,,,,,174,F,hexagon,1,0,,,,,,,,,,,,,,,,repeat,number,numRpt,f,0.481,Lo,,,,,,1,,,,,,,,low,1,0,1,0,1,,,,,,,,,
295516,2022-10-03_10h51.29.225,vts_reward_expectancy,2022.2.4,MacIntel,62.5,Safari,1440,900,,,,,10,813,,,,,,,,,,,,,,,,,160,U,triangle,1,0,,,,,,,,,,,,,,,,switch,letter,lettSwt,k,0.531,Hi,,,,,,1,,,,,,,,low,2,0,2,0,1,,,,,,,,,
295516,2022-10-03_10h51.29.225,vts_reward_expectancy,2022.2.4,MacIntel,62.5,Safari,1440,900,,,,,0,813,,,,,,,,,,,,,,,,,146,H,hexagon,0,0,,,,,,,,,,,,,,,,repeat,letter,NA,k,0.587,Hi,,,,,,1,,,,,,,,low,3,0,3,0,1,,,,,,,,,
295516,2022-10-03_10h51.29.225,vts_reward_expectancy,2022.2.4,MacIntel,62.5,Safari,1440,900,,,,,0,813,,,,,,,,,,,,,,,,,139,B,triangle,1,1,,,,,,,,,,,,,,,,repeat,letter,lettRpt,j,0.699,Hi,,,,,,1,,,,,,,,low,4,0,4,0,1,,,,,,,,,
295516,2022-10-03_10h51.29.225,vts_reward_expectancy,2022.2.4,MacIntel,62.5,Safari,1440,900,,,,,1,814,,,,,,,,,,,,,,,,,167,S,hexagon,1,0,,,,,,,,,,,,,,,,switch,number,numSwt,f,0.664,Lo,,,,,,1,,,,,,,,low,5,0,5,0,1,,,,,,,,,
295516,2022-10-03_10h51.29.225,vts_reward_expectancy,2022.2.4,MacIntel,62.5,Safari,1440,900,,,,,1,815,,,,,,,,,,,,,,,,,125,Y,hexagon,1,0,,,,,,,,,,,,,,,,repeat,number,numRpt,d,0.797,Lo,,,,,,1,,,,,,,,low,6,0,6,0,1,,,,,,,,,
295516,2022-10-03_10h51.29.225,vts_reward_expectancy,2022.2.4,MacIntel,62.5,Safari,1440,900,,,,,0,815,,,,,,,,,,,,,,,,,132,W,triangle,1,0,,,,,,,,,,,,,,,,switch,letter,lettSwt,k,0.949,Hi,,,,,,1,,,,,,,,low,7,0,7,0,1,,,,,,,,,
295516,2022-10-03_10h51.29.225,vts_reward_expectancy,2022.2.4,MacIntel,62.5,Safari,1440,900,,,,,0,815,,,,,,,,,,,,,,,,,181,D,triangle,0,0,,,,,,,,,,,,,,,,repeat,letter,NA,k,0.37,Hi,,,,,,1,,,,,,,,low,8,0,8,0,1,,,,,,,,,
295516,2022-10-03_10h51.29.225,vts_reward_expectancy,2022.2.4,MacIntel,62.5,Safari,1440,900,,,,,1,816,,,,,,,,,,,,,,,,,174,F,hexagon,1,1,,,,,,,,,,,,,,,,repeat,letter,lettRpt,j,0.351,Lo,,,,,,1,,,,,,,,low,9,0,9,0,1,,,,,,,,,
295516,2022-10-03_10h51.29.225,vts_reward_expectancy,2022.2.4,MacIntel,62.5,Safari,1440,900,,,,,10,826,,,,,,,,,,,,,,,,,160,U,hexagon,1,0,,,,,,,,,,,,,,,,switch,number,numSwt,f,0.285,Lo,,,,,,1,,,,,,,,low,10,0,10,0,1,,,,,,,,,
295516,2022-10-03_10h51.29.225,vts_reward_expectancy,2022.2.4,MacIntel,62.5,Safari,1440,900,,,,,10,836,,,,,,,,,,,,,,,,,146,H,triangle,1,0,,,,,,,,,,,,,,,,repeat,number,numRpt,d,0.3,Hi,,,,,,1,,,,,,,,low,11,0,11,0,1,,,,,,,,,
295516,2022-10-03_10h51.29.225,vts_reward_expectancy,2022.2.4,MacIntel,62.5,Safari,1440,900,,,,,10,846,,,,,,,,,,,,,,,,,139,B,hexagon,1,0,,,,,,,,,,,,,,,,switch,letter,lettSwt,j,0.664,Lo,,,,,,1,,,,,,,,low,12,0,12,0,1,,,,,,,,,
295516,2022-10-03_10h51.29.225,vts_reward_expectancy,2022.2.4,MacIntel,62.5,Safari,1440,900,,,,,0,846,,,,,,,,,,,,,,,,,167,S,triangle,0,0,,,,,,,,,,,,,,,,repeat,letter,NA,j,0.714,Lo,,,,,,1,,,,,,,,low,13,0,13,0,1,,,,,,,,,
295516,2022-10-03_10h51.29.225,vts_reward_expectancy,2022.2.4,MacIntel,62.5,Safari,1440,900,,,,,0,846,,,,,,,,,,,,,,,,,125,Y,hexagon,0,1,,,,,,,,,,,,,,,,switch,number,NA,f,0.564,Lo,,,,,,1,,,,,,,,low,14,0,14,0,1,,,,,,,,,
295516,2022-10-03_10h51.29.225,vts_reward_expectancy,2022.2.4,MacIntel,62.5,Safari,1440,900,,,,,1,847,,,,,,,,,,,,,,,,,132,W,triangle,1,1,,,,,,,,,,,,,,,,repeat,number,numRpt,d,0.514,Hi,,,,,,1,,,,,,,,low,15,0,15,0,1,,,,,,,,,
295516,2022-10-03_10h51.29.225,vts_reward_expectancy,2022.2.4,MacIntel,62.5,Safari,1440,900,,,,,1,848,,,,,,,,,,,,,,,,,174,W,triangle,1,0,,,,,,,,,,,,,,,,repeat,number,numRpt,f,0.486,Hi,,,,,,1,,,,,,,,low,16,0,16,0,1,,,,,,,,,
295516,2022-10-03_10h51.29.225,vts_reward_expectancy,2022.2.4,MacIntel,62.5,Safari,1440,900,,,,,1,849,,,,,,,,,,,,,,,,,146,U,hexagon,1,0,,,,,,,,,,,,,,,,repeat,number,numRpt,d,0.697,Lo,,,,,,1,,,,,,,,low,17,0,17,0,1,,,,,,,,,
295516,2022-10-03_10h51.29.225,vts_reward_expectancy,2022.2.4,MacIntel,62.5,Safari,1440,900,,,,,0,849,,,,,,,,,,,,,,,,,139,F,hexagon,0,0,,,,,,,,,,,,,,,,switch,letter,NA,k,1.047,Lo,,,,,,1,,,,,,,,low,18,0,18,0,1,,,,,,,,,
295516,2022-10-03_10h51.29.225,vts_reward_expectancy,2022.2.4,MacIntel,62.5,Safari,1440,900,,,,,0,849,,,,,,,,,,,,,,,,,181,B,triangle,1,1,,,,,,,,,,,,,,,,repeat,letter,lettRpt,j,0.654,Hi,,,,,,1,,,,,,,,low,19,0,19,0,1,,,,,,,,,
295516,2022-10-03_10h51.29.225,vts_reward_expectancy,2022.2.4,MacIntel,62.5,Safari,1440,900,,,,,0,849,,,,,,,,,,,,,,,,,167,H,triangle,1,0,,,,,,,,,,,,,,,,repeat,letter,lettRpt,j,0.569,Hi,,,,,,1,,,,,,,,low,20,0,20,0,1,,,,,,,,,
295516,2022-10-03_10h51.29.225,vts_reward_expectancy,2022.2.4,MacIntel,62.5,Safari,1440,900,,,,,10,859,,,,,,,,,,,,,,,,,125,D,hexagon,1,0,,,,,,,,,,,,,,,,repeat,letter,lettRpt,j,0.616,Lo,,,,,,1,,,,,,,,low,21,0,21,0,1,,,,,,,,,
295516,2022-10-03_10h51.29.225,vts_reward_expectancy,2022.2.4,MacIntel,62.5,Safari,1440,900,,,,,10,869,,,,,,,,,,,,,,,,,160,Y,hexagon,1,0,,,,,,,,,,,,,,,,switch,number,numSwt,f,0.43,Lo,,,,,,1,,,,,,,,low,22,0,22,0,1,,,,,,,,,
295516,2022-10-03_10h51.29.225,vts_reward_expectancy,2022.2.4,MacIntel,62.5,Safari,1440,900,,,,,10,879,,,,,,,,,,,,,,,,,132,S,triangle,1,0,,,,,,,,,,,,,,,,repeat,number,numRpt,d,0.263,Hi,,,,,,1,,,,,,,,low,23,0,23,0,1,,,,,,,,,
295516,2022-10-03_10h51.29.225,vts_reward_expectancy,2022.2.4,MacIntel,62.5,Safari,1440,900,,,,,1,880,,,,,,,,,,,,,,,,,174,Y,hexagon,1,0,,,,,,,,,,,,,,,,repeat,number,numRpt,f,0.297,Lo,,,,,,1,,,,,,,,low,24,0,24,0,1,,,,,,,,,
295516,2022-10-03_10h51.29.225,vts_reward_expectancy,2022.2.4,MacIntel,62.5,Safari,1440,900,,,,,0,880,,,,,,,,,,,,,,,,,125,D,triangle,0,0,,,,,,,,,,,,,,,,switch,letter,NA,k,0.314,Lo,,,,,,1,,,,,,,,low,25,0,25,0,1,,,,,,,,,
295516,2022-10-03_10h51.29.225,vts_reward_expectancy,2022.2.4,MacIntel,62.5,Safari,1440,900,,,,,0,880,,,,,,,,,,,,,,,,,146,B,triangle,0,1,,,,,,,,,,,,,,,,repeat,letter,NA,k,0.3,Lo,,,,,,1,,,,,,,,low,26,0,26,0,1,,,,,,,,,
295516,2022-10-03_10h51.29.225,vts_reward_expectancy,2022.2.4,MacIntel,62.5,Safari,1440,900,,,,,0,880,,,,,,,,,,,,,,,,,139,U,hexagon,0,1,,,,,,,,,,,,,,,,repeat,letter,NA,j,0.371,Lo,,,,,,1,,,,,,,,low,27,0,27,0,1,,,,,,,,,
295516,2022-10-03_10h51.29.225,vts_reward_expectancy,2022.2.4,MacIntel,62.5,Safari,1440,900,,,,,1,881,,,,,,,,,,,,,,,,,167,H,hexagon,1,1,,,,,,,,,,,,,,,,repeat,letter,lettRpt,j,0.265,Lo,,,,,,1,,,,,,,,low,28,0,28,0,1,,,,,,,,,
295516,2022-10-03_10h51.29.225,vts_reward_expectancy,2022.2.4,MacIntel,62.5,Safari,1440,900,,,,,1,882,,,,,,,,,,,,,,,,,181,S,triangle,1,0,,,,,,,,,,,,,,,,switch,number,numSwt,f,0.13,Hi,,,,,,1,,,,,,,,low,29,0,29,0,1,,,,,,,,,
295516,2022-10-03_10h51.29.225,vts_reward_expectancy,2022.2.4,MacIntel,62.5,Safari,1440,900,,,,,1,883,,,,,,,,,,,,,,,,,160,W,hexagon,1,0,,,,,,,,,,,,,,,,repeat,number,numRpt,f,0.63,Lo,,,,,,1,,,,,,,,low,30,0,30,0,1,,,,,,,,,
295516,2022-10-03_10h51.29.225,vts_reward_expectancy,2022.2.4,MacIntel,62.5,Safari,1440,900,,,,,10,893,,,,,,,,,,,,,,,,,132,F,triangle,1,0,,,,,,,,,,,,,,,,repeat,number,numRpt,d,0.313,Hi,,,,,,1,,,,,,,,low,31,0,31,0,1,,,,,,,,,
295516,2022-10-03_10h51.29.225,vts_reward_expectancy,2022.2.4,MacIntel,62.5,Safari,1440,900,,,,,0,893,,,,,,,,,,,,,,,,,146,H,circle,0,0,,,,,,,,,,,,,,,,switch,letter,NA,k,0.304,Hi,,,,,,2,,,,,,space,1.599,high,0,0,0,0,1,,,,,,,,,
295516,2022-10-03_10h51.29.225,vts_reward_expectancy,2022.2.4,MacIntel,62.5,Safari,1440,900,,,,,1,894,,,,,,,,,,,,,,,,,139,Y,star,1,1,,,,,,,,,,,,,,,,repeat,letter,lettRpt,k,0.332,Lo,,,,,,2,,,,,,,,high,1,0,1,0,1,,,,,,,,,
295516,2022-10-03_10h51.29.225,vts_reward_expectancy,2022.2.4,MacIntel,62.5,Safari,1440,900,,,,,0,894,,,,,,,,,,,,,,,,,174,F,circle,1,0,,,,,,,,,,,,,,,,repeat,letter,lettRpt,j,0.664,Hi,,,,,,2,,,,,,,,high,2,0,2,0,1,,,,,,,,,
295516,2022-10-03_10h51.29.225,vts_reward_expectancy,2022.2.4,MacIntel,62.5,Safari,1440,900,,,,,1,895,,,,,,,,,,,,,,,,,167,B,star,1,0,,,,,,,,,,,,,,,,switch,number,numSwt,f,0.264,Lo,,,,,,2,,,,,,,,high,3,0,3,0,1,,,,,,,,,
295516,2022-10-03_10h51.29.225,vts_reward_expectancy,2022.2.4,MacIntel,62.5,Safari,1440,900,,,,,0,895,,,,,,,,,,,,,,,,,160,S,circle,0,0,,,,,,,,,,,,,,,,repeat,number,NA,d,0.248,Lo,,,,,,2,,,,,,,,high,4,0,4,0,1,,,,,,,,,
295516,2022-10-03_10h51.29.225,vts_reward_expectancy,2022.2.4,MacIntel,62.5,Safari,1440,900,,,,,0,895,,,,,,,,,,,,,,,,,181,U,star,0,1,,,,,,,,,,,,,,,,repeat,number,NA,d,0.287,Lo,,,,,,2,,,,,,,,high,5,0,5,0,1,,,,,,,,,
295516,2022-10-03_10h51.29.225,vts_reward_expectancy,2022.2.4,MacIntel,62.5,Safari,1440,900,,,,,0,895,,,,,,,,,,,,,,,,,125,W,star,0,1,,,,,,,,,,,,,,,,repeat,number,NA,f,0.298,Lo,,,,,,2,,,,,,,,high,6,0,6,0,1,,,,,,,,,
295516,2022-10-03_10h51.29.225,vts_reward_expectancy,2022.2.4,MacIntel,62.5,Safari,1440,900,,,,,10,905,,,,,,,,,,,,,,,,,132,D,circle,1,1,,,,,,,,,,,,,,,,switch,letter,lettSwt,j,0.081,Hi,,,,,,2,,,,,,,,high,7,0,7,0,1,,,,,,,,,
295516,2022-10-03_10h51.29.225,vts_reward_expectancy,2022.2.4,MacIntel,62.5,Safari,1440,900,,,,,0,905,,,,,,,,,,,,,,,,,146,H,star,0,0,,,,,,,,,,,,,,,,repeat,letter,NA,k,0.271,Hi,,,,,,2,,,,,,,,high,8,0,8,0,1,,,,,,,,,
295516,2022-10-03_10h51.29.225,vts_reward_expectancy,2022.2.4,MacIntel,62.5,Safari,1440,900,,,,,1,906,,,,,,,,,,,,,,,,,139,Y,circle,1,1,,,,,,,,,,,,,,,,repeat,letter,lettRpt,k,0.33,Hi,,,,,,2,,,,,,,,high,9,0,9,0,1,,,,,,,,,
295516,2022-10-03_10h51.29.225,vts_reward_expectancy,2022.2.4,MacIntel,62.5,Safari,1440,900,,,,,0,906,,,,,,,,,,,,,,,,,174,F,circle,1,0,,,,,,,,,,,,,,,,switch,number,numSwt,f,0.714,Hi,,,,,,2,,,,,,,,high,10,0,10,0,1,,,,,,,,,
295516,2022-10-03_10h51.29.225,vts_reward_expectancy,2022.2.4,MacIntel,62.5,Safari,1440,900,,,,,0,906,,,,,,,,,,,,,,,,,167,B,star,0,0,,,,,,,,,,,,,,,,repeat,number,NA,d,0.266,Hi,,,,,,2,,,,,,,,high,11,0,11,0,1,,,,,,,,,
295516,2022-10-03_10h51.29.225,vts_reward_expectancy,2022.2.4,MacIntel,62.5,Safari,1440,900,,,,,0,906,,,,,,,,,,,,,,,,,160,S,circle,0,1,,,,,,,,,,,,,,,,repeat,number,NA,d,0.302,Hi,,,,,,2,,,,,,,,high,12,0,12,0,1,,,,,,,,,
295516,2022-10-03_10h51.29.225,vts_reward_expectancy,2022.2.4,MacIntel,62.5,Safari,1440,900,,,,,0,906,,,,,,,,,,,,,,,,,181,U,star,0,1,,,,,,,,,,,,,,,,switch,letter,NA,j,0.331,Hi,,,,,,2,,,,,,,,high,13,0,13,0,1,,,,,,,,,
295516,2022-10-03_10h51.29.225,vts_reward_expectancy,2022.2.4,MacIntel,62.5,Safari,1440,900,,,,,1,907,,,,,,,,,,,,,,,,,125,W,star,1,1,,,,,,,,,,,,,,,,repeat,letter,lettRpt,k,0.265,Lo,,,,,,2,,,,,,,,high,14,0,14,0,1,,,,,,,,,
295516,2022-10-03_10h51.29.225,vts_reward_expectancy,2022.2.4,MacIntel,62.5,Safari,1440,900,,,,,0,907,,,,,,,,,,,,,,,,,132,D,circle,0,0,,,,,,,,,,,,,,,,repeat,letter,NA,k,0.186,Lo,,,,,,2,,,,,,,,high,15,0,15,0,1,,,,,,,,,
295516,2022-10-03_10h51.29.225,vts_reward_expectancy,2022.2.4,MacIntel,62.5,Safari,1440,900,,,,,1,908,,,,,,,,,,,,,,,,,160,B,star,1,1,,,,,,,,,,,,,,,,switch,number,numSwt,f,0.305,Lo,,,,,,2,,,,,,,,high,16,0,16,0,1,,,,,,,,,
295516,2022-10-03_10h51.29.225,vts_reward_expectancy,2022.2.4,MacIntel,62.5,Safari,1440,900,,,,,0,908,,,,,,,,,,,,,,,,,146,H,circle,0,0,,,,,,,,,,,,,,,,repeat,number,NA,f,0.284,Lo,,,,,,2,,,,,,,,high,17,0,17,0,1,,,,,,,,,
295516,2022-10-03_10h51.29.225,vts_reward_expectancy,2022.2.4,MacIntel,62.5,Safari,1440,900,,,,,1,909,,,,,,,,,,,,,,,,,174,Y,star,1,1,,,,,,,,,,,,,,,,repeat,number,numRpt,f,0.067,Lo,,,,,,2,,,,,,,,high,18,0,18,0,1,,,,,,,,,
295516,2022-10-03_10h51.29.225,vts_reward_expectancy,2022.2.4,MacIntel,62.5,Safari,1440,900,,,,,10,919,,,,,,,,,,,,,,,,,167,D,circle,1,0,,,,,,,,,,,,,,,,switch,letter,lettSwt,j,0.269,Hi,,,,,,2,,,,,,,,high,19,0,19,0,1,,,,,,,,,
295516,2022-10-03_10h51.29.225,vts_reward_expectancy,2022.2.4,MacIntel,62.5,Safari,1440,900,,,,,0,919,,,,,,,,,,,,,,,,,132,U,circle,0,0,,,,,,,,,,,,,,,,repeat,letter,NA,j,0.93,Hi,,,,,,2,,,,,,,,high,20,0,20,0,1,,,,,,,,,
295516,2022-10-03_10h51.29.225,vts_reward_expectancy,2022.2.4,MacIntel,62.5,Safari,1440,900,,,,,0,919,,,,,,,,,,,,,,,,,139,F,star,0,1,,,,,,,,,,,,,,,,repeat,letter,NA,k,0.037,Hi,,,,,,2,,,,,,,,high,21,0,21,0,1,,,,,,,,,
295516,2022-10-03_10h51.29.225,vts_reward_expectancy,2022.2.4,MacIntel,62.5,Safari,1440,900,,,,,0,919,,,,,,,,,,,,,,,,,125,S,star,0,1,,,,,,,,,,,,,,,,repeat,letter,NA,j,0.414,Hi,,,,,,2,,,,,,,,high,22,0,22,0,1,,,,,,,,,
295516,2022-10-03_10h51.29.225,vts_reward_expectancy,2022.2.4,MacIntel,62.5,Safari,1440,900,,,,,0,919,,,,,,,,,,,,,,,,,181,W,circle,0,1,,,,,,,,,,,,,,,,repeat,letter,NA,j,0.314,Hi,,,,,,2,,,,,,,,high,23,0,23,0,1,,,,,,,,,
295516,2022-10-03_10h51.29.225,vts_reward_expectancy,2022.2.4,MacIntel,62.5,Safari,1440,900,,,,,0,919,,,,,,,,,,,,,,,,,160,D,circle,0,1,,,,,,,,,,,,,,,,repeat,letter,NA,k,0.531,Hi,,,,,,2,,,,,,,,high,24,0,24,0,1,,,,,,,,,
295516,2022-10-03_10h51.29.225,vts_reward_expectancy,2022.2.4,MacIntel,62.5,Safari,1440,900,,,,,0,919,,,,,,,,,,,,,,,,,139,W,star,0,1,,,,,,,,,,,,,,,,repeat,letter,NA,j,0.247,Hi,,,,,,2,,,,,,,,high,25,0,25,0,1,,,,,,,,,
295516,2022-10-03_10h51.29.225,vts_reward_expectancy,2022.2.4,MacIntel,62.5,Safari,1440,900,,,,,1,920,,,,,,,,,,,,,,,,,167,H,star,1,1,,,,,,,,,,,,,,,,repeat,letter,lettRpt,j,0.364,Lo,,,,,,2,,,,,,,,high,26,0,26,0,1,,,,,,,,,
295516,2022-10-03_10h51.29.225,vts_reward_expectancy,2022.2.4,MacIntel,62.5,Safari,1440,900,,,,,10,930,,,,,,,,,,,,,,,,,181,F,circle,1,0,,,,,,,,,,,,,,,,switch,number,numSwt,f,0.279,Hi,,,,,,2,,,,,,,,high,27,0,27,0,1,,,,,,,,,
295516,2022-10-03_10h51.29.225,vts_reward_expectancy,2022.2.4,MacIntel,62.5,Safari,1440,900,,,,,10,940,,,,,,,,,,,,,,,,,125,B,star,1,0,,,,,,,,,,,,,,,,repeat,number,numRpt,d,0.681,Lo,,,,,,2,,,,,,,,high,28,0,28,0,1,,,,,,,,,
295516,2022-10-03_10h51.29.225,vts_reward_expectancy,2022.2.4,MacIntel,62.5,Safari,1440,900,,,,,0,940,,,,,,,,,,,,,,,,,174,Y,circle,1,0,,,,,,,,,,,,,,,,repeat,number,numRpt,f,0.55,Hi,,,,,,2,,,,,,,,high,29,0,29,0,1,,,,,,,,,
295516,2022-10-03_10h51.29.225,vts_reward_expectancy,2022.2.4,MacIntel,62.5,Safari,1440,900,,,,,0,940,,,,,,,,,,,,,,,,,132,S,circle,0,0,,,,,,,,,,,,,,,,repeat,number,NA,f,0.287,Hi,,,,,,2,,,,,,,,high,30,0,30,0,1,,,,,,,,,
295516,2022-10-03_10h51.29.225,vts_reward_expectancy,2022.2.4,MacIntel,62.5,Safari,1440,900,,,,,10,950,,,,,,,,,,,,,,,,,146,U,star,1,1,,,,,,,,,,,,,,,,repeat,number,numRpt,d,0.63,Lo,,,,,,2,,,,,,,,high,31,0,31,0,1,,,,,,,,,
295516,2022-10-03_10h51.29.225,vts_reward_expectancy,2022.2.4,MacIntel,62.5,Safari,1440,900,,,,,0,950,,,,,,,,,,,,,,,,,160,U,triangle,0,0,,,,,,,,,,,,,,,,switch,letter,NA,j,0.615,Lo,,,,,,3,,,,,,space,2.831,low,0,0,0,0,1,,,,,,,,,
295516,2022-10-03_10h51.29.225,vts_reward_expectancy,2022.2.4,MacIntel,62.5,Safari,1440,900,,,,,1,951,,,,,,,,,,,,,,,,,132,H,hexagon,1,1,,,,,,,,,,,,,,,,repeat,letter,lettRpt,j,0.397,Lo,,,,,,3,,,,,,,,low,1,0,1,0,1,,,,,,,,,
295516,2022-10-03_10h51.29.225,vts_reward_expectancy,2022.2.4,MacIntel,62.5,Safari,1440,900,,,,,0,951,,,,,,,,,,,,,,,,,174,W,triangle,1,0,,,,,,,,,,,,,,,,repeat,letter,lettRpt,k,0.547,Hi,,,,,,3,,,,,,,,low,2,0,2,0,1,,,,,,,,,
295516,2022-10-03_10h51.29.225,vts_reward_expectancy,2022.2.4,MacIntel,62.5,Safari,1440,900,,,,,1,952,,,,,,,,,,,,,,,,,125,S,hexagon,1,0,,,,,,,,,,,,,,,,switch,number,numSwt,d,0.53,Lo,,,,,,3,,,,,,,,low,3,0,3,0,1,,,,,,,,,
295516,2022-10-03_10h51.29.225,vts_reward_expectancy,2022.2.4,MacIntel,62.5,Safari,1440,900,,,,,0,952,,,,,,,,,,,,,,,,,139,B,triangle,1,0,,,,,,,,,,,,,,,,repeat,number,numRpt,d,0.563,Hi,,,,,,3,,,,,,,,low,4,0,4,0,1,,,,,,,,,
295516,2022-10-03_10h51.29.225,vts_reward_expectancy,2022.2.4,MacIntel,62.5,Safari,1440,900,,,,,1,953,,,,,,,,,,,,,,,,,167,F,hexagon,1,0,,,,,,,,,,,,,,,,repeat,number,numRpt,f,0.432,Lo,,,,,,3,,,,,,,,low,5,0,5,0,1,,,,,,,,,
295516,2022-10-03_10h51.29.225,vts_reward_expectancy,2022.2.4,MacIntel,62.5,Safari,1440,900,,,,,10,963,,,,,,,,,,,,,,,,,181,D,hexagon,1,0,,,,,,,,,,,,,,,,repeat,number,numRpt,f,0.447,Lo,,,,,,3,,,,,,,,low,6,0,6,0,1,,,,,,,,,
295516,2022-10-03_10h51.29.225,vts_reward_expectancy,2022.2.4,MacIntel,62.5,Safari,1440,900,,,,,0,963,,,,,,,,,,,,,,,,,146,Y,triangle,1,0,,,,,,,,,,,,,,,,repeat,number,numRpt,d,0.555,Hi,,,,,,3,,,,,,,,low,7,0,7,0,1,,,,,,,,,
295516,2022-10-03_10h51.29.225,vts_reward_expectancy,2022.2.4,MacIntel,62.5,Safari,1440,900,,,,,1,964,,,,,,,,,,,,,,,,,160,U,hexagon,1,0,,,,,,,,,,,,,,,,repeat,number,numRpt,f,0.604,Lo,,,,,,3,,,,,,,,low,8,0,8,0,1,,,,,,,,,
295516,2022-10-03_10h51.29.225,vts_reward_expectancy,2022.2.4,MacIntel,62.5,Safari,1440,900,,,,,0,964,,,,,,,,,,,,,,,,,132,H,triangle,1,0,,,,,,,,,,,,,,,,switch,letter,lettSwt,j,0.667,Hi,,,,,,3,,,,,,,,low,9,0,9,0,1,,,,,,,,,
295516,2022-10-03_10h51.29.225,vts_reward_expectancy,2022.2.4,MacIntel,62.5,Safari,1440,900,,,,,0,964,,,,,,,,,,,,,,,,,174,W,triangle,1,0,,,,,,,,,,,,,,,,repeat,letter,lettRpt,k,0.714,Hi,,,,,,3,,,,,,,,low,10,0,10,0,1,,,,,,,,,
295516,2022-10-03_10h51.29.225,vts_reward_expectancy,2022.2.4,MacIntel,62.5,Safari,1440,900,,,,,0,964,,,,,,,,,,,,,,,,,125,S,hexagon,0,0,,,,,,,,,,,,,,,,repeat,letter,NA,j,0.348,Hi,,,,,,3,,,,,,,,low,11,0,11,0,1,,,,,,,,,
295516,2022-10-03_10h51.29.225,vts_reward_expectancy,2022.2.4,MacIntel,62.5,Safari,1440,900,,,,,0,964,,,,,,,,,,,,,,,,,139,B,hexagon,0,1,,,,,,,,,,,,,,,,repeat,letter,NA,k,0.836,Hi,,,,,,3,,,,,,,,low,12,0,12,0,1,,,,,,,,,
295516,2022-10-03_10h51.29.225,vts_reward_expectancy,2022.2.4,MacIntel,62.5,Safari,1440,900,,,,,0,964,,,,,,,,,,,,,,,,,167,F,triangle,1,1,,,,,,,,,,,,,,,,repeat,letter,lettRpt,j,0.765,Hi,,,,,,3,,,,,,,,low,13,0,13,0,1,,,,,,,,,
295516,2022-10-03_10h51.29.225,vts_reward_expectancy,2022.2.4,MacIntel,62.5,Safari,1440,900,,,,,1,965,,,,,,,,,,,,,,,,,181,D,hexagon,1,0,,,,,,,,,,,,,,,,repeat,letter,lettRpt,j,0.702,Lo,,,,,,3,,,,,,,,low,14,0,14,0,1,,,,,,,,,
295516,2022-10-03_10h51.29.225,vts_reward_expectancy,2022.2.4,MacIntel,62.5,Safari,1440,900,,,,,0,965,,,,,,,,,,,,,,,,,146,Y,triangle,1,0,,,,,,,,,,,,,,,,switch,number,numSwt,d,0.467,Hi,,,,,,3,,,,,,,,low,15,0,15,0,1,,,,,,,,,
295516,2022-10-03_10h51.29.225,vts_reward_expectancy,2022.2.4,MacIntel,62.5,Safari,1440,900,,,,,1,966,,,,,,,,,,,,,,,,,160,Y,hexagon,1,0,,,,,,,,,,,,,,,,switch,letter,lettSwt,k,0.487,Lo,,,,,,3,,,,,,,,low,16,0,16,0,1,,,,,,,,,
295516,2022-10-03_10h51.29.225,vts_reward_expectancy,2022.2.4,MacIntel,62.5,Safari,1440,900,,,,,0,966,,,,,,,,,,,,,,,,,181,B,triangle,1,0,,,,,,,,,,,,,,,,switch,number,numSwt,f,0.965,Hi,,,,,,3,,,,,,,,low,17,0,17,0,1,,,,,,,,,
295516,2022-10-03_10h51.29.225,vts_reward_expectancy,2022.2.4,MacIntel,62.5,Safari,1440,900,,,,,10,976,,,,,,,,,,,,,,,,,146,D,triangle,1,0,,,,,,,,,,,,,,,,repeat,number,numRpt,d,0.363,Hi,,,,,,3,,,,,,,,low,18,0,18,0,1,,,,,,,,,
295516,2022-10-03_10h51.29.225,vts_reward_expectancy,2022.2.4,MacIntel,62.5,Safari,1440,900,,,,,1,977,,,,,,,,,,,,,,,,,167,S,hexagon,1,0,,,,,,,,,,,,,,,,repeat,number,numRpt,f,0.521,Lo,,,,,,3,,,,,,,,low,19,0,19,0,1,,,,,,,,,
295516,2022-10-03_10h51.29.225,vts_reward_expectancy,2022.2.4,MacIntel,62.5,Safari,1440,900,,,,,0,977,,,,,,,,,,,,,,,,,139,W,triangle,1,0,,,,,,,,,,,,,,,,repeat,number,numRpt,d,0.587,Hi,,,,,,3,,,,,,,,low,20,0,20,0,1,,,,,,,,,
295516,2022-10-03_10h51.29.225,vts_reward_expectancy,2022.2.4,MacIntel,62.5,Safari,1440,900,,,,,10,987,,,,,,,,,,,,,,,,,132,F,hexagon,1,0,,,,,,,,,,,,,,,,repeat,number,numRpt,d,0.45,Lo,,,,,,3,,,,,,,,low,21,0,21,0,1,,,,,,,,,
295516,2022-10-03_10h51.29.225,vts_reward_expectancy,2022.2.4,MacIntel,62.5,Safari,1440,900,,,,,1,988,,,,,,,,,,,,,,,,,174,U,hexagon,1,0,,,,,,,,,,,,,,,,repeat,number,numRpt,f,0.514,Lo,,,,,,3,,,,,,,,low,22,0,22,0,1,,,,,,,,,
295516,2022-10-03_10h51.29.225,vts_reward_expectancy,2022.2.4,MacIntel,62.5,Safari,1440,900,,,,,10,998,,,,,,,,,,,,,,,,,125,H,triangle,1,0,,,,,,,,,,,,,,,,repeat,number,numRpt,d,0.414,Hi,,,,,,3,,,,,,,,low,23,0,23,0,1,,,,,,,,,
295516,2022-10-03_10h51.29.225,vts_reward_expectancy,2022.2.4,MacIntel,62.5,Safari,1440,900,,,,,0,998,,,,,,,,,,,,,,,,,146,Y,triangle,0,0,,,,,,,,,,,,,,,,repeat,number,NA,f,0.73,Hi,,,,,,3,,,,,,,,low,24,0,24,0,1,,,,,,,,,
295516,2022-10-03_10h51.29.225,vts_reward_expectancy,2022.2.4,MacIntel,62.5,Safari,1440,900,,,,,10,1008,,,,,,,,,,,,,,,,,160,F,hexagon,1,1,,,,,,,,,,,,,,,,repeat,number,numRpt,f,0.537,Lo,,,,,,3,,,,,,,,low,25,0,25,0,1,,,,,,,,,
295516,2022-10-03_10h51.29.225,vts_reward_expectancy,2022.2.4,MacIntel,62.5,Safari,1440,900,,,,,10,1018,,,,,,,,,,,,,,,,,125,H,hexagon,1,0,,,,,,,,,,,,,,,,repeat,number,numRpt,d,0.747,Lo,,,,,,3,,,,,,,,low,26,0,26,0,1,,,,,,,,,
295516,2022-10-03_10h51.29.225,vts_reward_expectancy,2022.2.4,MacIntel,62.5,Safari,1440,900,,,,,0,1018,,,,,,,,,,,,,,,,,181,W,triangle,1,0,,,,,,,,,,,,,,,,repeat,number,numRpt,f,0.563,Hi,,,,,,3,,,,,,,,low,27,0,27,0,1,,,,,,,,,
295516,2022-10-03_10h51.29.225,vts_reward_expectancy,2022.2.4,MacIntel,62.5,Safari,1440,900,,,,,0,1018,,,,,,,,,,,,,,,,,167,D,triangle,1,0,,,,,,,,,,,,,,,,repeat,number,numRpt,f,0.815,Hi,,,,,,3,,,,,,,,low,28,0,28,0,1,,,,,,,,,
295516,2022-10-03_10h51.29.225,vts_reward_expectancy,2022.2.4,MacIntel,62.5,Safari,1440,900,,,,,10,1028,,,,,,,,,,,,,,,,,174,B,hexagon,1,0,,,,,,,,,,,,,,,,repeat,number,numRpt,f,0.533,Lo,,,,,,3,,,,,,,,low,29,0,29,0,1,,,,,,,,,
295516,2022-10-03_10h51.29.225,vts_reward_expectancy,2022.2.4,MacIntel,62.5,Safari,1440,900,,,,,10,1038,,,,,,,,,,,,,,,,,132,S,hexagon,1,0,,,,,,,,,,,,,,,,repeat,number,numRpt,d,0.569,Lo,,,,,,3,,,,,,,,low,30,0,30,0,1,,,,,,,,,
295516,2022-10-03_10h51.29.225,vts_reward_expectancy,2022.2.4,MacIntel,62.5,Safari,1440,900,,,,,0,1038,,,,,,,,,,,,,,,,,139,U,triangle,0,0,,,,,,,,,,,,,,,,repeat,number,NA,f,0.496,Lo,,,,,,3,,,,,,,,low,31,0,31,0,1,,,,,,,,,
295516,2022-10-03_10h51.29.225,vts_reward_expectancy,2022.2.4,MacIntel,62.5,Safari,1440,900,,,,,0,1038,,,,,,,,,,,,,,,,,139,B,triangle,1,1,,,,,,,,,,,,,,,,repeat,number,numRpt,d,0.816,Hi,,,,,,4,,,,,,space,29.783,low,0,0,0,0,1,,,,,,,,,
295516,2022-10-03_10h51.29.225,vts_reward_expectancy,2022.2.4,MacIntel,62.5,Safari,1440,900,,,,,0,1038,,,,,,,,,,,,,,,,,146,Y,hexagon,0,0,,,,,,,,,,,,,,,,switch,letter,NA,j,1.866,Hi,,,,,,4,,,,,,,,low,1,0,1,0,1,,,,,,,,,
295516,2022-10-03_10h51.29.225,vts_reward_expectancy,2022.2.4,MacIntel,62.5,Safari,1440,900,,,,,0,1038,,,,,,,,,,,,,,,,,181,D,triangle,1,1,,,,,,,,,,,,,,,,repeat,letter,lettRpt,j,0.697,Hi,,,,,,4,,,,,,,,low,2,0,2,0,1,,,,,,,,,
295516,2022-10-03_10h51.29.225,vts_reward_expectancy,2022.2.4,MacIntel,62.5,Safari,1440,900,,,,,10,1048,,,,,,,,,,,,,,,,,174,H,hexagon,1,0,,,,,,,,,,,,,,,,repeat,letter,lettRpt,j,0.814,Lo,,,,,,4,,,,,,,,low,3,0,3,0,1,,,,,,,,,
295516,2022-10-03_10h51.29.225,vts_reward_expectancy,2022.2.4,MacIntel,62.5,Safari,1440,900,,,,,0,1048,,,,,,,,,,,,,,,,,160,W,triangle,1,0,,,,,,,,,,,,,,,,repeat,letter,lettRpt,k,0.747,Hi,,,,,,4,,,,,,,,low,4,0,4,0,1,,,,,,,,,
295516,2022-10-03_10h51.29.225,vts_reward_expectancy,2022.2.4,MacIntel,62.5,Safari,1440,900,,,,,0,1048,,,,,,,,,,,,,,,,,167,S,hexagon,0,0,,,,,,,,,,,,,,,,repeat,letter,NA,j,0.882,Hi,,,,,,4,,,,,,,,low,5,0,5,0,1,,,,,,,,,
295516,2022-10-03_10h51.29.225,vts_reward_expectancy,2022.2.4,MacIntel,62.5,Safari,1440,900,,,,,1,1049,,,,,,,,,,,,,,,,,125,F,hexagon,1,1,,,,,,,,,,,,,,,,repeat,letter,lettRpt,j,0.634,Lo,,,,,,4,,,,,,,,low,6,0,6,0,1,,,,,,,,,
295516,2022-10-03_10h51.29.225,vts_reward_expectancy,2022.2.4,MacIntel,62.5,Safari,1440,900,,,,,0,1049,,,,,,,,,,,,,,,,,132,U,triangle,1,0,,,,,,,,,,,,,,,,repeat,letter,lettRpt,k,0.697,Hi,,,,,,4,,,,,,,,low,7,0,7,0,1,,,,,,,,,
295516,2022-10-03_10h51.29.225,vts_reward_expectancy,2022.2.4,MacIntel,62.5,Safari,1440,900,,,,,10,1059,,,,,,,,,,,,,,,,,139,B,hexagon,1,0,,,,,,,,,,,,,,,,switch,number,numSwt,d,0.731,Lo,,,,,,4,,,,,,,,low,8,0,8,0,1,,,,,,,,,
295516,2022-10-03_10h51.29.225,vts_reward_expectancy,2022.2.4,MacIntel,62.5,Safari,1440,900,,,,,0,1059,,,,,,,,,,,,,,,,,146,Y,triangle,1,0,,,,,,,,,,,,,,,,repeat,number,numRpt,d,0.65,Hi,,,,,,4,,,,,,,,low,9,0,9,0,1,,,,,,,,,
295516,2022-10-03_10h51.29.225,vts_reward_expectancy,2022.2.4,MacIntel,62.5,Safari,1440,900,,,,,0,1059,,,,,,,,,,,,,,,,,181,D,triangle,1,0,,,,,,,,,,,,,,,,repeat,number,numRpt,f,0.77,Hi,,,,,,4,,,,,,,,low,10,0,10,0,1,,,,,,,,,
295516,2022-10-03_10h51.29.225,vts_reward_expectancy,2022.2.4,MacIntel,62.5,Safari,1440,900,,,,,1,1060,,,,,,,,,,,,,,,,,174,H,hexagon,1,0,,,,,,,,,,,,,,,,repeat,number,numRpt,f,0.964,Lo,,,,,,4,,,,,,,,low,11,0,11,0,1,,,,,,,,,
295516,2022-10-03_10h51.29.225,vts_reward_expectancy,2022.2.4,MacIntel,62.5,Safari,1440,900,,,,,1,1061,,,,,,,,,,,,,,,,,160,W,hexagon,1,0,,,,,,,,,,,,,,,,repeat,number,numRpt,f,1.02,Lo,,,,,,4,,,,,,,,low,12,0,12,0,1,,,,,,,,,
295516,2022-10-03_10h51.29.225,vts_reward_expectancy,2022.2.4,MacIntel,62.5,Safari,1440,900,,,,,0,1061,,,,,,,,,,,,,,,,,167,S,triangle,1,0,,,,,,,,,,,,,,,,repeat,number,numRpt,f,1.267,Hi,,,,,,4,,,,,,,,low,13,0,13,0,1,,,,,,,,,
295516,2022-10-03_10h51.29.225,vts_reward_expectancy,2022.2.4,MacIntel,62.5,Safari,1440,900,,,,,0,1061,,,,,,,,,,,,,,,,,125,F,hexagon,0,0,,,,,,,,,,,,,,,,switch,letter,NA,k,0.354,Hi,,,,,,4,,,,,,,,low,14,0,14,0,1,,,,,,,,,
295516,2022-10-03_10h51.29.225,vts_reward_expectancy,2022.2.4,MacIntel,62.5,Safari,1440,900,,,,,0,1061,,,,,,,,,,,,,,,,,132,U,triangle,1,1,,,,,,,,,,,,,,,,repeat,letter,lettRpt,k,1.031,Hi,,,,,,4,,,,,,,,low,15,0,15,0,1,,,,,,,,,
295516,2022-10-03_10h51.29.225,vts_reward_expectancy,2022.2.4,MacIntel,62.5,Safari,1440,900,,,,,0,1061,,,,,,,,,,,,,,,,,146,S,triangle,1,0,,,,,,,,,,,,,,,,repeat,letter,lettRpt,k,0.814,Hi,,,,,,4,,,,,,,,low,16,0,16,0,1,,,,,,,,,
295516,2022-10-03_10h51.29.225,vts_reward_expectancy,2022.2.4,MacIntel,62.5,Safari,1440,900,,,,,1,1062,,,,,,,,,,,,,,,,,139,D,hexagon,1,0,,,,,,,,,,,,,,,,repeat,letter,lettRpt,j,0.632,Lo,,,,,,4,,,,,,,,low,17,0,17,0,1,,,,,,,,,
295516,2022-10-03_10h51.29.225,vts_reward_expectancy,2022.2.4,MacIntel,62.5,Safari,1440,900,,,,,0,1062,,,,,,,,,,,,,,,,,181,B,hexagon,0,0,,,,,,,,,,,,,,,,repeat,letter,NA,k,1.048,Lo,,,,,,4,,,,,,,,low,18,0,18,0,1,,,,,,,,,
295516,2022-10-03_10h51.29.225,vts_reward_expectancy,2022.2.4,MacIntel,62.5,Safari,1440,900,,,,,0,1062,,,,,,,,,,,,,,,,,125,F,triangle,1,1,,,,,,,,,,,,,,,,repeat,letter,lettRpt,j,0.738,Hi,,,,,,4,,,,,,,,low,19,0,19,0,1,,,,,,,,,
295516,2022-10-03_10h51.29.225,vts_reward_expectancy,2022.2.4,MacIntel,62.5,Safari,1440,900,,,,,10,1072,,,,,,,,,,,,,,,,,160,W,triangle,1,0,,,,,,,,,,,,,,,,repeat,letter,lettRpt,k,0.548,Hi,,,,,,4,,,,,,,,low,20,0,20,0,1,,,,,,,,,
295516,2022-10-03_10h51.29.225,vts_reward_expectancy,2022.2.4,MacIntel,62.5,Safari,1440,900,,,,,10,1082,,,,,,,,,,,,,,,,,167,Y,hexagon,1,0,,,,,,,,,,,,,,,,repeat,letter,lettRpt,k,0.664,Lo,,,,,,4,,,,,,,,low,21,0,21,0,1,,,,,,,,,
295516,2022-10-03_10h51.29.225,vts_reward_expectancy,2022.2.4,MacIntel,62.5,Safari,1440,900,,,,,10,1092,,,,,,,,,,,,,,,,,174,U,triangle,1,0,,,,,,,,,,,,,,,,repeat,letter,lettRpt,k,0.555,Hi,,,,,,4,,,,,,,,low,22,0,22,0,1,,,,,,,,,
295516,2022-10-03_10h51.29.225,vts_reward_expectancy,2022.2.4,MacIntel,62.5,Safari,1440,900,,,,,10,1102,,,,,,,,,,,,,,,,,132,H,hexagon,1,0,,,,,,,,,,,,,,,,repeat,letter,lettRpt,j,0.651,Lo,,,,,,4,,,,,,,,low,23,0,23,0,1,,,,,,,,,
295516,2022-10-03_10h51.29.225,vts_reward_expectancy,2022.2.4,MacIntel,62.5,Safari,1440,900,,,,,10,1112,,,,,,,,,,,,,,,,,167,U,triangle,1,0,,,,,,,,,,,,,,,,repeat,letter,lettRpt,k,0.582,Hi,,,,,,4,,,,,,,,low,24,0,24,0,1,,,,,,,,,
295516,2022-10-03_10h51.29.225,vts_reward_expectancy,2022.2.4,MacIntel,62.5,Safari,1440,900,,,,,10,1122,,,,,,,,,,,,,,,,,174,B,hexagon,1,0,,,,,,,,,,,,,,,,repeat,letter,lettRpt,j,0.565,Lo,,,,,,4,,,,,,,,low,25,0,25,0,1,,,,,,,,,
295516,2022-10-03_10h51.29.225,vts_reward_expectancy,2022.2.4,MacIntel,62.5,Safari,1440,900,,,,,0,1122,,,,,,,,,,,,,,,,,160,D,hexagon,0,0,,,,,,,,,,,,,,,,repeat,letter,NA,k,0.481,Lo,,,,,,4,,,,,,,,low,26,0,26,0,1,,,,,,,,,
295516,2022-10-03_10h51.29.225,vts_reward_expectancy,2022.2.4,MacIntel,62.5,Safari,1440,900,,,,,0,1122,,,,,,,,,,,,,,,,,132,W,triangle,1,1,,,,,,,,,,,,,,,,repeat,letter,lettRpt,k,0.671,Hi,,,,,,4,,,,,,,,low,27,0,27,0,1,,,,,,,,,
295516,2022-10-03_10h51.29.225,vts_reward_expectancy,2022.2.4,MacIntel,62.5,Safari,1440,900,,,,,0,1122,,,,,,,,,,,,,,,,,146,F,triangle,1,0,,,,,,,,,,,,,,,,switch,number,numSwt,d,0.704,Hi,,,,,,4,,,,,,,,low,28,0,28,0,1,,,,,,,,,
295516,2022-10-03_10h51.29.225,vts_reward_expectancy,2022.2.4,MacIntel,62.5,Safari,1440,900,,,,,1,1123,,,,,,,,,,,,,,,,,181,Y,hexagon,1,0,,,,,,,,,,,,,,,,repeat,number,numRpt,f,0.615,Lo,,,,,,4,,,,,,,,low,29,0,29,0,1,,,,,,,,,
295516,2022-10-03_10h51.29.225,vts_reward_expectancy,2022.2.4,MacIntel,62.5,Safari,1440,900,,,,,10,1133,,,,,,,,,,,,,,,,,139,H,hexagon,1,0,,,,,,,,,,,,,,,,repeat,number,numRpt,d,0.596,Lo,,,,,,4,,,,,,,,low,30,0,30,0,1,,,,,,,,,
295516,2022-10-03_10h51.29.225,vts_reward_expectancy,2022.2.4,MacIntel,62.5,Safari,1440,900,,,,,0,1133,,,,,,,,,,,,,,,,,125,S,triangle,1,0,,,,,,,,,,,,,,,,repeat,number,numRpt,d,0.833,Hi,,,,,,4,,,,,,,,low,31,0,31,0,1,,,,,,,,,
295516,2022-10-03_10h51.29.225,vts_reward_expectancy,2022.2.4,MacIntel,62.5,Safari,1440,900,,,,,10,1143,,,,,,,,,,,,,,,,,139,F,circle,1,0,,,,,,,,,,,,,,,,repeat,number,numRpt,d,0.7,Hi,,,,,,5,,,,,,space,8.911,high,0,0,0,0,1,,,,,,,,,
295516,2022-10-03_10h51.29.225,vts_reward_expectancy,2022.2.4,MacIntel,62.5,Safari,1440,900,,,,,0,1143,,,,,,,,,,,,,,,,,132,W,star,0,0,,,,,,,,,,,,,,,,repeat,number,NA,f,1.083,Hi,,,,,,5,,,,,,,,high,1,0,1,0,1,,,,,,,,,
295516,2022-10-03_10h51.29.225,vts_reward_expectancy,2022.2.4,MacIntel,62.5,Safari,1440,900,,,,,0,1143,,,,,,,,,,,,,,,,,167,D,circle,1,1,,,,,,,,,,,,,,,,repeat,number,numRpt,f,0.814,Hi,,,,,,5,,,,,,,,high,2,0,2,0,1,,,,,,,,,
295516,2022-10-03_10h51.29.225,vts_reward_expectancy,2022.2.4,MacIntel,62.5,Safari,1440,900,,,,,1,1144,,,,,,,,,,,,,,,,,181,Y,star,1,0,,,,,,,,,,,,,,,,repeat,number,numRpt,f,0.764,Lo,,,,,,5,,,,,,,,high,3,0,3,0,1,,,,,,,,,
295516,2022-10-03_10h51.29.225,vts_reward_expectancy,2022.2.4,MacIntel,62.5,Safari,1440,900,,,,,10,1154,,,,,,,,,,,,,,,,,174,S,star,1,0,,,,,,,,,,,,,,,,repeat,number,numRpt,f,0.618,Lo,,,,,,5,,,,,,,,high,4,0,4,0,1,,,,,,,,,
295516,2022-10-03_10h51.29.225,vts_reward_expectancy,2022.2.4,MacIntel,62.5,Safari,1440,900,,,,,0,1154,,,,,,,,,,,,,,,,,160,H,circle,1,0,,,,,,,,,,,,,,,,repeat,number,numRpt,f,0.78,Hi,,,,,,5,,,,,,,,high,5,0,5,0,1,,,,,,,,,
295516,2022-10-03_10h51.29.225,vts_reward_expectancy,2022.2.4,MacIntel,62.5,Safari,1440,900,,,,,1,1155,,,,,,,,,,,,,,,,,146,B,star,1,0,,,,,,,,,,,,,,,,repeat,number,numRpt,d,0.864,Lo,,,,,,5,,,,,,,,high,6,0,6,0,1,,,,,,,,,
295516,2022-10-03_10h51.29.225,vts_reward_expectancy,2022.2.4,MacIntel,62.5,Safari,1440,900,,,,,0,1155,,,,,,,,,,,,,,,,,125,U,circle,1,0,,,,,,,,,,,,,,,,repeat,number,numRpt,d,0.788,Hi,,,,,,5,,,,,,,,high,7,0,7,0,1,,,,,,,,,
295516,2022-10-03_10h51.29.225,vts_reward_expectancy,2022.2.4,MacIntel,62.5,Safari,1440,900,,,,,0,1155,,,,,,,,,,,,,,,,,139,F,circle,1,0,,,,,,,,,,,,,,,,repeat,number,numRpt,d,0.887,Hi,,,,,,5,,,,,,,,high,8,0,8,0,1,,,,,,,,,
295516,2022-10-03_10h51.29.225,vts_reward_expectancy,2022.2.4,MacIntel,62.5,Safari,1440,900,,,,,1,1156,,,,,,,,,,,,,,,,,132,W,star,1,0,,,,,,,,,,,,,,,,repeat,number,numRpt,d,0.805,Lo,,,,,,5,,,,,,,,high,9,0,9,0,1,,,,,,,,,
295516,2022-10-03_10h51.29.225,vts_reward_expectancy,2022.2.4,MacIntel,62.5,Safari,1440,900,,,,,10,1166,,,,,,,,,,,,,,,,,167,D,star,1,0,,,,,,,,,,,,,,,,repeat,number,numRpt,f,0.898,Lo,,,,,,5,,,,,,,,high,10,0,10,0,1,,,,,,,,,
295516,2022-10-03_10h51.29.225,vts_reward_expectancy,2022.2.4,MacIntel,62.5,Safari,1440,900,,,,,0,1166,,,,,,,,,,,,,,,,,181,Y,circle,1,0,,,,,,,,,,,,,,,,repeat,number,numRpt,f,0.787,Hi,,,,,,5,,,,,,,,high,11,0,11,0,1,,,,,,,,,
295516,2022-10-03_10h51.29.225,vts_reward_expectancy,2022.2.4,MacIntel,62.5,Safari,1440,900,,,,,10,1176,,,,,,,,,,,,,,,,,174,S,circle,1,0,,,,,,,,,,,,,,,,repeat,number,numRpt,f,0.682,Hi,,,,,,5,,,,,,,,high,12,0,12,0,1,,,,,,,,,
295516,2022-10-03_10h51.29.225,vts_reward_expectancy,2022.2.4,MacIntel,62.5,Safari,1440,900,,,,,1,1177,,,,,,,,,,,,,,,,,160,H,star,1,0,,,,,,,,,,,,,,,,repeat,number,numRpt,f,0.881,Lo,,,,,,5,,,,,,,,high,13,0,13,0,1,,,,,,,,,
295516,2022-10-03_10h51.29.225,vts_reward_expectancy,2022.2.4,MacIntel,62.5,Safari,1440,900,,,,,1,1178,,,,,,,,,,,,,,,,,146,B,star,1,0,,,,,,,,,,,,,,,,repeat,number,numRpt,d,1.055,Lo,,,,,,5,,,,,,,,high,14,0,14,0,1,,,,,,,,,
295516,2022-10-03_10h51.29.225,vts_reward_expectancy,2022.2.4,MacIntel,62.5,Safari,1440,900,,,,,0,1178,,,,,,,,,,,,,,,,,125,U,circle,1,0,,,,,,,,,,,,,,,,repeat,number,numRpt,d,0.864,Hi,,,,,,5,,,,,,,,high,15,0,15,0,1,,,,,,,,,
295516,2022-10-03_10h51.29.225,vts_reward_expectancy,2022.2.4,MacIntel,62.5,Safari,1440,900,,,,,1,1179,,,,,,,,,,,,,,,,,167,U,star,1,0,,,,,,,,,,,,,,,,repeat,number,numRpt,f,0.685,Lo,,,,,,5,,,,,,,,high,16,0,16,0,1,,,,,,,,,
295516,2022-10-03_10h51.29.225,vts_reward_expectancy,2022.2.4,MacIntel,62.5,Safari,1440,900,,,,,0,1179,,,,,,,,,,,,,,,,,125,Y,circle,1,0,,,,,,,,,,,,,,,,repeat,number,numRpt,d,0.752,Hi,,,,,,5,,,,,,,,high,17,0,17,0,1,,,,,,,,,
295516,2022-10-03_10h51.29.225,vts_reward_expectancy,2022.2.4,MacIntel,62.5,Safari,1440,900,,,,,1,1180,,,,,,,,,,,,,,,,,160,W,star,1,0,,,,,,,,,,,,,,,,repeat,number,numRpt,f,0.637,Lo,,,,,,5,,,,,,,,high,18,0,18,0,1,,,,,,,,,
295516,2022-10-03_10h51.29.225,vts_reward_expectancy,2022.2.4,MacIntel,62.5,Safari,1440,900,,,,,0,1180,,,,,,,,,,,,,,,,,181,S,circle,1,0,,,,,,,,,,,,,,,,repeat,number,numRpt,f,0.981,Hi,,,,,,5,,,,,,,,high,19,0,19,0,1,,,,,,,,,
295516,2022-10-03_10h51.29.225,vts_reward_expectancy,2022.2.4,MacIntel,62.5,Safari,1440,900,,,,,1,1181,,,,,,,,,,,,,,,,,139,H,star,1,0,,,,,,,,,,,,,,,,repeat,number,numRpt,d,0.882,Lo,,,,,,5,,,,,,,,high,20,0,20,0,1,,,,,,,,,
295516,2022-10-03_10h51.29.225,vts_reward_expectancy,2022.2.4,MacIntel,62.5,Safari,1440,900,,,,,0,1181,,,,,,,,,,,,,,,,,174,D,circle,1,0,,,,,,,,,,,,,,,,repeat,number,numRpt,f,0.733,Hi,,,,,,5,,,,,,,,high,21,0,21,0,1,,,,,,,,,
295516,2022-10-03_10h51.29.225,vts_reward_expectancy,2022.2.4,MacIntel,62.5,Safari,1440,900,,,,,0,1181,,,,,,,,,,,,,,,,,146,F,circle,1,0,,,,,,,,,,,,,,,,repeat,number,numRpt,d,0.881,Hi,,,,,,5,,,,,,,,high,22,0,22,0,1,,,,,,,,,
295516,2022-10-03_10h51.29.225,vts_reward_expectancy,2022.2.4,MacIntel,62.5,Safari,1440,900,,,,,1,1182,,,,,,,,,,,,,,,,,132,B,star,1,0,,,,,,,,,,,,,,,,repeat,number,numRpt,d,0.597,Lo,,,,,,5,,,,,,,,high,23,0,23,0,1,,,,,,,,,
295516,2022-10-03_10h51.29.225,vts_reward_expectancy,2022.2.4,MacIntel,62.5,Safari,1440,900,,,,,0,1182,,,,,,,,,,,,,,,,,174,H,star,0,0,,,,,,,,,,,,,,,,repeat,number,NA,d,1.281,Lo,,,,,,5,,,,,,,,high,24,0,24,0,1,,,,,,,,,
295516,2022-10-03_10h51.29.225,vts_reward_expectancy,2022.2.4,MacIntel,62.5,Safari,1440,900,,,,,0,1182,,,,,,,,,,,,,,,,,139,F,circle,1,1,,,,,,,,,,,,,,,,repeat,number,numRpt,d,1.647,Hi,,,,,,5,,,,,,,,high,25,0,25,0,1,,,,,,,,,
295516,2022-10-03_10h51.29.225,vts_reward_expectancy,2022.2.4,MacIntel,62.5,Safari,1440,900,,,,,10,1192,,,,,,,,,,,,,,,,,167,B,star,1,0,,,,,,,,,,,,,,,,repeat,number,numRpt,f,1.149,Lo,,,,,,5,,,,,,,,high,26,0,26,0,1,,,,,,,,,
295516,2022-10-03_10h51.29.225,vts_reward_expectancy,2022.2.4,MacIntel,62.5,Safari,1440,900,,,,,0,1192,,,,,,,,,,,,,,,,,146,S,circle,1,0,,,,,,,,,,,,,,,,repeat,number,numRpt,d,0.822,Hi,,,,,,5,,,,,,,,high,27,0,27,0,1,,,,,,,,,
295516,2022-10-03_10h51.29.225,vts_reward_expectancy,2022.2.4,MacIntel,62.5,Safari,1440,900,,,,,10,1202,,,,,,,,,,,,,,,,,181,D,star,1,0,,,,,,,,,,,,,,,,repeat,number,numRpt,f,0.853,Lo,,,,,,5,,,,,,,,high,28,0,28,0,1,,,,,,,,,
295516,2022-10-03_10h51.29.225,vts_reward_expectancy,2022.2.4,MacIntel,62.5,Safari,1440,900,,,,,0,1202,,,,,,,,,,,,,,,,,160,Y,circle,1,0,,,,,,,,,,,,,,,,repeat,number,numRpt,f,1.764,Hi,,,,,,5,,,,,,,,high,29,0,29,0,1,,,,,,,,,
295516,2022-10-03_10h51.29.225,vts_reward_expectancy,2022.2.4,MacIntel,62.5,Safari,1440,900,,,,,0,1202,,,,,,,,,,,,,,,,,132,W,circle,1,0,,,,,,,,,,,,,,,,repeat,number,numRpt,d,0.837,Hi,,,,,,5,,,,,,,,high,30,0,30,0,1,,,,,,,,,
295516,2022-10-03_10h51.29.225,vts_reward_expectancy,2022.2.4,MacIntel,62.5,Safari,1440,900,,,,,0,1202,,,,,,,,,,,,,,,,,125,U,star,0,0,,,,,,,,,,,,,,,,repeat,number,NA,f,0.721,Hi,,,,,,5,,,,,,,,high,31,0,31,0,1,,,,,,,,,
295516,2022-10-03_10h51.29.225,vts_reward_expectancy,2022.2.4,MacIntel,62.5,Safari,1440,900,,,,,,,,,,,,,,,,,,,,,,,,,,,,,,,,,,,,,,,,,,,,,,,,,,,,,,6,,,,,,,,,,,,,,pick high or low for numbers and close to a or z,1,,3,1,,2,1440,900
