participant,date,expName,psychopyVersion,OS,frameRate,browser,xResolution,yResolution,key_resp.keys,key_resp.rt,training_resp.keys,training_resp.rt,points_trial,points_cumul,trainBlock,training.thisRepN,training.thisTrialN,training.thisN,training.thisIndex,training.ran,LTriangleOpac,LCircleOpac,LHexagonOpac,LStarOpac,RTriangleOpac,RCircleOpac,RHexagonOpac,RStarOpac,LShape_ID,RShape_ID,curr_topStim,curr_bottStim,curr_shape,acc,E1,target_resp_prac1.keys,target_resp_prac1.rt,pracBlock,task1_prac_trials.thisRepN,task1_prac_trials.thisTrialN,task1_prac_trials.thisN,task1_prac_trials.thisIndex,task1_prac_trials.ran,target_resp_prac2.keys,target_resp_prac2.rt,task2_praac_trials.thisRepN,task2_praac_trials.thisTrialN,task2_praac_trials.thisN,task2_praac_trials.thisIndex,task2_praac_trials.ran,alt,task,condition,target_resp.keys,target_resp.rt,rewCond,vts_practice_trials.thisRepN,vts_practice_trials.thisTrialN,vts_practice_trials.thisN,vts_practice_trials.thisIndex,vts_practice_trials.ran,blockNum,trials_norew.thisRepN,trials_norew.thisTrialN,trials_norew.thisN,trials_norew.thisIndex,trials_norew.ran,key_resp_2.keys,key_resp_2.rt,rewExpectancy,trials_rew.thisRepN,trials_rew.thisTrialN,trials_rew.thisN,trials_rew.thisIndex,trials_rew.ran,Q1,Q2,Q2_text,Q3,Q4,Q5,Q5_text,xRes,yRes
,2022-11-15_11h38.16.108,vts_reward_expectancy_bt,2022.2.4,Win32,60.0348202,Chrome,1383,864,,,,,,,,,,,,,,,,,,,,,,,,,,,,,,,,,,,,,,,,,,,,,,,,,,,,,,,,,,,,,,,,,,,,,,,,,,,,
,2022-11-15_11h38.16.108,vts_reward_expectancy_bt,2022.2.4,Win32,60.0348202,Chrome,1383,864,space,26.698,,,,,,,,,,,,,,,,,,,,,,,,,,,,,,,,,,,,,,,,,,,,,,,,,,,,,,,,,,,,,,,,,,,,,,,,,,
,2022-11-15_11h38.16.108,vts_reward_expectancy_bt,2022.2.4,Win32,60.0348202,Chrome,1383,864,,,,,,,,,,,,,,,,,,,,,,,,,,,,,,,,,,,,,,,,,,,,,,,,,,,,,,,,,,,,,,,,,,,,,,,,,,,,
,2022-11-15_11h38.16.108,vts_reward_expectancy_bt,2022.2.4,Win32,60.0348202,Chrome,1383,864,,,l,0.9417,10,10,0,0,0,0,6,1,0,0,1,0,1,0,0,0,hexagon,triangle,,,,,,,,,,,,,,,,,,,,,,,,,,,,,,,,,,,,,,,,,,,,,,,,,,,,,,
,2022-11-15_11h38.16.108,vts_reward_expectancy_bt,2022.2.4,Win32,60.0348202,Chrome,1383,864,,,a,0.8305,1,11,0,0,1,1,1,1,1,0,0,0,0,0,1,0,triangle,hexagon,,,,,,,,,,,,,,,,,,,,,,,,,,,,,,,,,,,,,,,,,,,,,,,,,,,,,,
,2022-11-15_11h38.16.108,vts_reward_expectancy_bt,2022.2.4,Win32,60.0348202,Chrome,1383,864,,,a,0.5974,1,12,0,0,2,2,0,1,1,0,0,0,0,1,0,0,triangle,circle,,,,,,,,,,,,,,,,,,,,,,,,,,,,,,,,,,,,,,,,,,,,,,,,,,,,,,
,2022-11-15_11h38.16.108,vts_reward_expectancy_bt,2022.2.4,Win32,60.0348202,Chrome,1383,864,,,l,0.562,10,22,0,0,3,3,9,1,0,0,0,1,1,0,0,0,star,triangle,,,,,,,,,,,,,,,,,,,,,,,,,,,,,,,,,,,,,,,,,,,,,,,,,,,,,,
,2022-11-15_11h38.16.108,vts_reward_expectancy_bt,2022.2.4,Win32,60.0348202,Chrome,1383,864,,,l,1.1442,10,32,0,0,4,4,8,1,0,0,1,0,0,0,0,1,hexagon,star,,,,,,,,,,,,,,,,,,,,,,,,,,,,,,,,,,,,,,,,,,,,,,,,,,,,,,
,2022-11-15_11h38.16.108,vts_reward_expectancy_bt,2022.2.4,Win32,60.0348202,Chrome,1383,864,,,l,0.8593,1,33,0,0,5,5,5,1,0,1,0,0,0,0,0,1,circle,star,,,,,,,,,,,,,,,,,,,,,,,,,,,,,,,,,,,,,,,,,,,,,,,,,,,,,,
,2022-11-15_11h38.16.108,vts_reward_expectancy_bt,2022.2.4,Win32,60.0348202,Chrome,1383,864,,,l,1.6292,1,34,0,0,6,6,10,1,0,0,0,1,0,1,0,0,star ,circle,,,,,,,,,,,,,,,,,,,,,,,,,,,,,,,,,,,,,,,,,,,,,,,,,,,,,,
,2022-11-15_11h38.16.108,vts_reward_expectancy_bt,2022.2.4,Win32,60.0348202,Chrome,1383,864,,,l,1.4677,1,35,0,0,7,7,2,1,1,0,0,0,0,0,0,1,triangle,star,,,,,,,,,,,,,,,,,,,,,,,,,,,,,,,,,,,,,,,,,,,,,,,,,,,,,,
,2022-11-15_11h38.16.108,vts_reward_expectancy_bt,2022.2.4,Win32,60.0348202,Chrome,1383,864,,,a,1.1188,1,36,0,0,8,8,11,1,0,0,0,1,0,0,1,0,star,hexagon,,,,,,,,,,,,,,,,,,,,,,,,,,,,,,,,,,,,,,,,,,,,,,,,,,,,,,
,2022-11-15_11h38.16.108,vts_reward_expectancy_bt,2022.2.4,Win32,60.0348202,Chrome,1383,864,,,l,0.7371,1,37,0,0,9,9,3,1,0,1,0,0,1,0,0,0,circle,triangle,,,,,,,,,,,,,,,,,,,,,,,,,,,,,,,,,,,,,,,,,,,,,,,,,,,,,,
,2022-11-15_11h38.16.108,vts_reward_expectancy_bt,2022.2.4,Win32,60.0348202,Chrome,1383,864,,,a,2.1985,10,47,0,0,10,10,7,1,0,0,1,0,0,1,0,0,hexagon,circle,,,,,,,,,,,,,,,,,,,,,,,,,,,,,,,,,,,,,,,,,,,,,,,,,,,,,,
,2022-11-15_11h38.16.108,vts_reward_expectancy_bt,2022.2.4,Win32,60.0348202,Chrome,1383,864,,,l,0.8321,10,57,0,0,11,11,4,1,0,1,0,0,0,0,1,0,circle,hexagon,,,,,,,,,,,,,,,,,,,,,,,,,,,,,,,,,,,,,,,,,,,,,,,,,,,,,,
,2022-11-15_11h38.16.108,vts_reward_expectancy_bt,2022.2.4,Win32,60.0348202,Chrome,1383,864,,,a,1.3151,10,67,0,1,0,12,10,1,0,0,0,1,0,1,0,0,star ,circle,,,,,,,,,,,,,,,,,,,,,,,,,,,,,,,,,,,,,,,,,,,,,,,,,,,,,,
,2022-11-15_11h38.16.108,vts_reward_expectancy_bt,2022.2.4,Win32,60.0348202,Chrome,1383,864,,,l,1.3007,1,68,0,1,1,13,3,1,0,1,0,0,1,0,0,0,circle,triangle,,,,,,,,,,,,,,,,,,,,,,,,,,,,,,,,,,,,,,,,,,,,,,,,,,,,,,
,2022-11-15_11h38.16.108,vts_reward_expectancy_bt,2022.2.4,Win32,60.0348202,Chrome,1383,864,,,a,1.5008,1,69,0,1,2,14,2,1,1,0,0,0,0,0,0,1,triangle,star,,,,,,,,,,,,,,,,,,,,,,,,,,,,,,,,,,,,,,,,,,,,,,,,,,,,,,
,2022-11-15_11h38.16.108,vts_reward_expectancy_bt,2022.2.4,Win32,60.0348202,Chrome,1383,864,,,a,1.0515,1,70,0,1,3,15,0,1,1,0,0,0,0,1,0,0,triangle,circle,,,,,,,,,,,,,,,,,,,,,,,,,,,,,,,,,,,,,,,,,,,,,,,,,,,,,,
,2022-11-15_11h38.16.108,vts_reward_expectancy_bt,2022.2.4,Win32,60.0348202,Chrome,1383,864,,,a,1.1225,10,80,0,1,4,16,6,1,0,0,1,0,1,0,0,0,hexagon,triangle,,,,,,,,,,,,,,,,,,,,,,,,,,,,,,,,,,,,,,,,,,,,,,,,,,,,,,
,2022-11-15_11h38.16.108,vts_reward_expectancy_bt,2022.2.4,Win32,60.0348202,Chrome,1383,864,,,a,0.5661,1,81,0,1,5,17,8,1,0,0,1,0,0,0,0,1,hexagon,star,,,,,,,,,,,,,,,,,,,,,,,,,,,,,,,,,,,,,,,,,,,,,,,,,,,,,,
,2022-11-15_11h38.16.108,vts_reward_expectancy_bt,2022.2.4,Win32,60.0348202,Chrome,1383,864,,,l,1.0512,10,91,0,1,6,18,11,1,0,0,0,1,0,0,1,0,star,hexagon,,,,,,,,,,,,,,,,,,,,,,,,,,,,,,,,,,,,,,,,,,,,,,,,,,,,,,
,2022-11-15_11h38.16.108,vts_reward_expectancy_bt,2022.2.4,Win32,60.0348202,Chrome,1383,864,,,l,2.4163,1,92,0,1,7,19,9,1,0,0,0,1,1,0,0,0,star,triangle,,,,,,,,,,,,,,,,,,,,,,,,,,,,,,,,,,,,,,,,,,,,,,,,,,,,,,
,2022-11-15_11h38.16.108,vts_reward_expectancy_bt,2022.2.4,Win32,60.0348202,Chrome,1383,864,,,l,0.9009,10,102,0,1,8,20,1,1,1,0,0,0,0,0,1,0,triangle,hexagon,,,,,,,,,,,,,,,,,,,,,,,,,,,,,,,,,,,,,,,,,,,,,,,,,,,,,,
,2022-11-15_11h38.16.108,vts_reward_expectancy_bt,2022.2.4,Win32,60.0348202,Chrome,1383,864,,,a,1.6835,10,112,0,1,9,21,7,1,0,0,1,0,0,1,0,0,hexagon,circle,,,,,,,,,,,,,,,,,,,,,,,,,,,,,,,,,,,,,,,,,,,,,,,,,,,,,,
,2022-11-15_11h38.16.108,vts_reward_expectancy_bt,2022.2.4,Win32,60.0348202,Chrome,1383,864,,,l,0.7495,1,113,0,1,10,22,4,1,0,1,0,0,0,0,1,0,circle,hexagon,,,,,,,,,,,,,,,,,,,,,,,,,,,,,,,,,,,,,,,,,,,,,,,,,,,,,,
,2022-11-15_11h38.16.108,vts_reward_expectancy_bt,2022.2.4,Win32,60.0348202,Chrome,1383,864,,,a,2.6704,10,123,0,1,11,23,5,1,0,1,0,0,0,0,0,1,circle,star,,,,,,,,,,,,,,,,,,,,,,,,,,,,,,,,,,,,,,,,,,,,,,,,,,,,,,
,2022-11-15_11h38.16.108,vts_reward_expectancy_bt,2022.2.4,Win32,60.0348202,Chrome,1383,864,,,a,1.4176,1,124,0,2,0,24,7,1,0,0,1,0,0,1,0,0,hexagon,circle,,,,,,,,,,,,,,,,,,,,,,,,,,,,,,,,,,,,,,,,,,,,,,,,,,,,,,
,2022-11-15_11h38.16.108,vts_reward_expectancy_bt,2022.2.4,Win32,60.0348202,Chrome,1383,864,,,a,1.8989,10,134,0,2,1,25,3,1,0,1,0,0,1,0,0,0,circle,triangle,,,,,,,,,,,,,,,,,,,,,,,,,,,,,,,,,,,,,,,,,,,,,,,,,,,,,,
,2022-11-15_11h38.16.108,vts_reward_expectancy_bt,2022.2.4,Win32,60.0348202,Chrome,1383,864,,,l,1.8363,1,135,0,2,2,26,1,1,1,0,0,0,0,0,1,0,triangle,hexagon,,,,,,,,,,,,,,,,,,,,,,,,,,,,,,,,,,,,,,,,,,,,,,,,,,,,,,
,2022-11-15_11h38.16.108,vts_reward_expectancy_bt,2022.2.4,Win32,60.0348202,Chrome,1383,864,,,a,0.6508,10,145,0,2,3,27,6,1,0,0,1,0,1,0,0,0,hexagon,triangle,,,,,,,,,,,,,,,,,,,,,,,,,,,,,,,,,,,,,,,,,,,,,,,,,,,,,,
,2022-11-15_11h38.16.108,vts_reward_expectancy_bt,2022.2.4,Win32,60.0348202,Chrome,1383,864,,,l,1.7482,10,155,0,2,4,28,0,1,1,0,0,0,0,1,0,0,triangle,circle,,,,,,,,,,,,,,,,,,,,,,,,,,,,,,,,,,,,,,,,,,,,,,,,,,,,,,
,2022-11-15_11h38.16.108,vts_reward_expectancy_bt,2022.2.4,Win32,60.0348202,Chrome,1383,864,,,l,2.2404,1,156,0,2,5,29,4,1,0,1,0,0,0,0,1,0,circle,hexagon,,,,,,,,,,,,,,,,,,,,,,,,,,,,,,,,,,,,,,,,,,,,,,,,,,,,,,
,2022-11-15_11h38.16.108,vts_reward_expectancy_bt,2022.2.4,Win32,60.0348202,Chrome,1383,864,,,a,1.577,10,166,0,2,6,30,5,1,0,1,0,0,0,0,0,1,circle,star,,,,,,,,,,,,,,,,,,,,,,,,,,,,,,,,,,,,,,,,,,,,,,,,,,,,,,
,2022-11-15_11h38.16.108,vts_reward_expectancy_bt,2022.2.4,Win32,60.0348202,Chrome,1383,864,,,a,1.5518,10,176,0,2,7,31,8,1,0,0,1,0,0,0,0,1,hexagon,star,,,,,,,,,,,,,,,,,,,,,,,,,,,,,,,,,,,,,,,,,,,,,,,,,,,,,,
,2022-11-15_11h38.16.108,vts_reward_expectancy_bt,2022.2.4,Win32,60.0348202,Chrome,1383,864,,,l,3.8007,10,186,0,2,8,32,2,1,1,0,0,0,0,0,0,1,triangle,star,,,,,,,,,,,,,,,,,,,,,,,,,,,,,,,,,,,,,,,,,,,,,,,,,,,,,,
,2022-11-15_11h38.16.108,vts_reward_expectancy_bt,2022.2.4,Win32,60.0348202,Chrome,1383,864,,,a,1.3514,10,196,0,2,9,33,9,1,0,0,0,1,1,0,0,0,star,triangle,,,,,,,,,,,,,,,,,,,,,,,,,,,,,,,,,,,,,,,,,,,,,,,,,,,,,,
,2022-11-15_11h38.16.108,vts_reward_expectancy_bt,2022.2.4,Win32,60.0348202,Chrome,1383,864,,,l,2.4654,10,206,0,2,10,34,10,1,0,0,0,1,0,1,0,0,star ,circle,,,,,,,,,,,,,,,,,,,,,,,,,,,,,,,,,,,,,,,,,,,,,,,,,,,,,,
,2022-11-15_11h38.16.108,vts_reward_expectancy_bt,2022.2.4,Win32,60.0348202,Chrome,1383,864,,,l,1.1015,1,207,0,2,11,35,11,1,0,0,0,1,0,0,1,0,star,hexagon,,,,,,,,,,,,,,,,,,,,,,,,,,,,,,,,,,,,,,,,,,,,,,,,,,,,,,
,2022-11-15_11h38.16.108,vts_reward_expectancy_bt,2022.2.4,Win32,60.0348202,Chrome,1383,864,,,a,2.1985,10,217,1,0,0,0,3,1,0,1,0,0,1,0,0,0,circle,triangle,,,,,,,,,,,,,,,,,,,,,,,,,,,,,,,,,,,,,,,,,,,,,,,,,,,,,,
,2022-11-15_11h38.16.108,vts_reward_expectancy_bt,2022.2.4,Win32,60.0348202,Chrome,1383,864,,,a,2.0849,1,218,1,0,1,1,9,1,0,0,0,1,1,0,0,0,star,triangle,,,,,,,,,,,,,,,,,,,,,,,,,,,,,,,,,,,,,,,,,,,,,,,,,,,,,,
,2022-11-15_11h38.16.108,vts_reward_expectancy_bt,2022.2.4,Win32,60.0348202,Chrome,1383,864,,,a,1.8023,1,219,1,0,2,2,8,1,0,0,1,0,0,0,0,1,hexagon,star,,,,,,,,,,,,,,,,,,,,,,,,,,,,,,,,,,,,,,,,,,,,,,,,,,,,,,
,2022-11-15_11h38.16.108,vts_reward_expectancy_bt,2022.2.4,Win32,60.0348202,Chrome,1383,864,,,a,1.8174,1,220,1,0,3,3,7,1,0,0,1,0,0,1,0,0,hexagon,circle,,,,,,,,,,,,,,,,,,,,,,,,,,,,,,,,,,,,,,,,,,,,,,,,,,,,,,
,2022-11-15_11h38.16.108,vts_reward_expectancy_bt,2022.2.4,Win32,60.0348202,Chrome,1383,864,,,a,1.4015,1,221,1,0,4,4,6,1,0,0,1,0,1,0,0,0,hexagon,triangle,,,,,,,,,,,,,,,,,,,,,,,,,,,,,,,,,,,,,,,,,,,,,,,,,,,,,,
,2022-11-15_11h38.16.108,vts_reward_expectancy_bt,2022.2.4,Win32,60.0348202,Chrome,1383,864,,,a,2.353,1,222,1,0,5,5,11,1,0,0,0,1,0,0,1,0,star,hexagon,,,,,,,,,,,,,,,,,,,,,,,,,,,,,,,,,,,,,,,,,,,,,,,,,,,,,,
,2022-11-15_11h38.16.108,vts_reward_expectancy_bt,2022.2.4,Win32,60.0348202,Chrome,1383,864,,,a,1.8992,1,223,1,0,6,6,2,1,1,0,0,0,0,0,0,1,triangle,star,,,,,,,,,,,,,,,,,,,,,,,,,,,,,,,,,,,,,,,,,,,,,,,,,,,,,,
,2022-11-15_11h38.16.108,vts_reward_expectancy_bt,2022.2.4,Win32,60.0348202,Chrome,1383,864,,,l,2.3011,1,224,1,0,7,7,1,1,1,0,0,0,0,0,1,0,triangle,hexagon,,,,,,,,,,,,,,,,,,,,,,,,,,,,,,,,,,,,,,,,,,,,,,,,,,,,,,
,2022-11-15_11h38.16.108,vts_reward_expectancy_bt,2022.2.4,Win32,60.0348202,Chrome,1383,864,,,l,1.3982,10,234,1,0,8,8,0,1,1,0,0,0,0,1,0,0,triangle,circle,,,,,,,,,,,,,,,,,,,,,,,,,,,,,,,,,,,,,,,,,,,,,,,,,,,,,,
,2022-11-15_11h38.16.108,vts_reward_expectancy_bt,2022.2.4,Win32,60.0348202,Chrome,1383,864,,,l,1.0661,10,244,1,0,9,9,10,1,0,0,0,1,0,1,0,0,star ,circle,,,,,,,,,,,,,,,,,,,,,,,,,,,,,,,,,,,,,,,,,,,,,,,,,,,,,,
,2022-11-15_11h38.16.108,vts_reward_expectancy_bt,2022.2.4,Win32,60.0348202,Chrome,1383,864,,,a,1.099,10,254,1,0,10,10,5,1,0,1,0,0,0,0,0,1,circle,star,,,,,,,,,,,,,,,,,,,,,,,,,,,,,,,,,,,,,,,,,,,,,,,,,,,,,,
,2022-11-15_11h38.16.108,vts_reward_expectancy_bt,2022.2.4,Win32,60.0348202,Chrome,1383,864,,,a,1.8511,1,255,1,0,11,11,4,1,0,1,0,0,0,0,1,0,circle,hexagon,,,,,,,,,,,,,,,,,,,,,,,,,,,,,,,,,,,,,,,,,,,,,,,,,,,,,,
,2022-11-15_11h38.16.108,vts_reward_expectancy_bt,2022.2.4,Win32,60.0348202,Chrome,1383,864,,,a,3.1176,1,256,1,1,0,12,1,1,1,0,0,0,0,0,1,0,triangle,hexagon,,,,,,,,,,,,,,,,,,,,,,,,,,,,,,,,,,,,,,,,,,,,,,,,,,,,,,
,2022-11-15_11h38.16.108,vts_reward_expectancy_bt,2022.2.4,Win32,60.0348202,Chrome,1383,864,,,l,1.1987,10,266,1,1,1,13,10,1,0,0,0,1,0,1,0,0,star ,circle,,,,,,,,,,,,,,,,,,,,,,,,,,,,,,,,,,,,,,,,,,,,,,,,,,,,,,
,2022-11-15_11h38.16.108,vts_reward_expectancy_bt,2022.2.4,Win32,60.0348202,Chrome,1383,864,,,l,2.4519,10,276,1,1,2,14,9,1,0,0,0,1,1,0,0,0,star,triangle,,,,,,,,,,,,,,,,,,,,,,,,,,,,,,,,,,,,,,,,,,,,,,,,,,,,,,
,2022-11-15_11h38.16.108,vts_reward_expectancy_bt,2022.2.4,Win32,60.0348202,Chrome,1383,864,,,l,1.4519,1,277,1,1,3,15,0,1,1,0,0,0,0,1,0,0,triangle,circle,,,,,,,,,,,,,,,,,,,,,,,,,,,,,,,,,,,,,,,,,,,,,,,,,,,,,,
,2022-11-15_11h38.16.108,vts_reward_expectancy_bt,2022.2.4,Win32,60.0348202,Chrome,1383,864,,,l,0.4837,1,278,1,1,4,16,8,1,0,0,1,0,0,0,0,1,hexagon,star,,,,,,,,,,,,,,,,,,,,,,,,,,,,,,,,,,,,,,,,,,,,,,,,,,,,,,
,2022-11-15_11h38.16.108,vts_reward_expectancy_bt,2022.2.4,Win32,60.0348202,Chrome,1383,864,,,a,2.3978,10,288,1,1,5,17,2,1,1,0,0,0,0,0,0,1,triangle,star,,,,,,,,,,,,,,,,,,,,,,,,,,,,,,,,,,,,,,,,,,,,,,,,,,,,,,
,2022-11-15_11h38.16.108,vts_reward_expectancy_bt,2022.2.4,Win32,60.0348202,Chrome,1383,864,,,l,2.9362,10,298,1,1,6,18,6,1,0,0,1,0,1,0,0,0,hexagon,triangle,,,,,,,,,,,,,,,,,,,,,,,,,,,,,,,,,,,,,,,,,,,,,,,,,,,,,,
,2022-11-15_11h38.16.108,vts_reward_expectancy_bt,2022.2.4,Win32,60.0348202,Chrome,1383,864,,,a,1.9155,10,308,1,1,7,19,5,1,0,1,0,0,0,0,0,1,circle,star,,,,,,,,,,,,,,,,,,,,,,,,,,,,,,,,,,,,,,,,,,,,,,,,,,,,,,
,2022-11-15_11h38.16.108,vts_reward_expectancy_bt,2022.2.4,Win32,60.0348202,Chrome,1383,864,,,l,1.8817,10,318,1,1,8,20,7,1,0,0,1,0,0,1,0,0,hexagon,circle,,,,,,,,,,,,,,,,,,,,,,,,,,,,,,,,,,,,,,,,,,,,,,,,,,,,,,
,2022-11-15_11h38.16.108,vts_reward_expectancy_bt,2022.2.4,Win32,60.0348202,Chrome,1383,864,,,a,2.0313,10,328,1,1,9,21,3,1,0,1,0,0,1,0,0,0,circle,triangle,,,,,,,,,,,,,,,,,,,,,,,,,,,,,,,,,,,,,,,,,,,,,,,,,,,,,,
,2022-11-15_11h38.16.108,vts_reward_expectancy_bt,2022.2.4,Win32,60.0348202,Chrome,1383,864,,,l,3.184,10,338,1,1,10,22,11,1,0,0,0,1,0,0,1,0,star,hexagon,,,,,,,,,,,,,,,,,,,,,,,,,,,,,,,,,,,,,,,,,,,,,,,,,,,,,,
,2022-11-15_11h38.16.108,vts_reward_expectancy_bt,2022.2.4,Win32,60.0348202,Chrome,1383,864,,,a,1.8161,1,339,1,1,11,23,4,1,0,1,0,0,0,0,1,0,circle,hexagon,,,,,,,,,,,,,,,,,,,,,,,,,,,,,,,,,,,,,,,,,,,,,,,,,,,,,,
,2022-11-15_11h38.16.108,vts_reward_expectancy_bt,2022.2.4,Win32,60.0348202,Chrome,1383,864,,,a,3.2167,1,340,1,2,0,24,8,1,0,0,1,0,0,0,0,1,hexagon,star,,,,,,,,,,,,,,,,,,,,,,,,,,,,,,,,,,,,,,,,,,,,,,,,,,,,,,
,2022-11-15_11h38.16.108,vts_reward_expectancy_bt,2022.2.4,Win32,60.0348202,Chrome,1383,864,,,l,2.9344,10,350,1,2,1,25,11,1,0,0,0,1,0,0,1,0,star,hexagon,,,,,,,,,,,,,,,,,,,,,,,,,,,,,,,,,,,,,,,,,,,,,,,,,,,,,,
,2022-11-15_11h38.16.108,vts_reward_expectancy_bt,2022.2.4,Win32,60.0348202,Chrome,1383,864,,,a,2.2984,10,360,1,2,2,26,9,1,0,0,0,1,1,0,0,0,star,triangle,,,,,,,,,,,,,,,,,,,,,,,,,,,,,,,,,,,,,,,,,,,,,,,,,,,,,,
,2022-11-15_11h38.16.108,vts_reward_expectancy_bt,2022.2.4,Win32,60.0348202,Chrome,1383,864,,,l,1.7146,1,361,1,2,3,27,1,1,1,0,0,0,0,0,1,0,triangle,hexagon,,,,,,,,,,,,,,,,,,,,,,,,,,,,,,,,,,,,,,,,,,,,,,,,,,,,,,
,2022-11-15_11h38.16.108,vts_reward_expectancy_bt,2022.2.4,Win32,60.0348202,Chrome,1383,864,,,a,1.8868,1,362,1,2,4,28,3,1,0,1,0,0,1,0,0,0,circle,triangle,,,,,,,,,,,,,,,,,,,,,,,,,,,,,,,,,,,,,,,,,,,,,,,,,,,,,,
,2022-11-15_11h38.16.108,vts_reward_expectancy_bt,2022.2.4,Win32,60.0348202,Chrome,1383,864,,,l,1.5677,10,372,1,2,5,29,10,1,0,0,0,1,0,1,0,0,star ,circle,,,,,,,,,,,,,,,,,,,,,,,,,,,,,,,,,,,,,,,,,,,,,,,,,,,,,,
,2022-11-15_11h38.16.108,vts_reward_expectancy_bt,2022.2.4,Win32,60.0348202,Chrome,1383,864,,,l,1.1515,1,373,1,2,6,30,7,1,0,0,1,0,0,1,0,0,hexagon,circle,,,,,,,,,,,,,,,,,,,,,,,,,,,,,,,,,,,,,,,,,,,,,,,,,,,,,,
,2022-11-15_11h38.16.108,vts_reward_expectancy_bt,2022.2.4,Win32,60.0348202,Chrome,1383,864,,,l,1.118,1,374,1,2,7,31,0,1,1,0,0,0,0,1,0,0,triangle,circle,,,,,,,,,,,,,,,,,,,,,,,,,,,,,,,,,,,,,,,,,,,,,,,,,,,,,,
,2022-11-15_11h38.16.108,vts_reward_expectancy_bt,2022.2.4,Win32,60.0348202,Chrome,1383,864,,,a,2.0498,10,384,1,2,8,32,2,1,1,0,0,0,0,0,0,1,triangle,star,,,,,,,,,,,,,,,,,,,,,,,,,,,,,,,,,,,,,,,,,,,,,,,,,,,,,,
,2022-11-15_11h38.16.108,vts_reward_expectancy_bt,2022.2.4,Win32,60.0348202,Chrome,1383,864,,,a,1.65,1,385,1,2,9,33,4,1,0,1,0,0,0,0,1,0,circle,hexagon,,,,,,,,,,,,,,,,,,,,,,,,,,,,,,,,,,,,,,,,,,,,,,,,,,,,,,
,2022-11-15_11h38.16.108,vts_reward_expectancy_bt,2022.2.4,Win32,60.0348202,Chrome,1383,864,,,l,2.8794,1,386,1,2,10,34,6,1,0,0,1,0,1,0,0,0,hexagon,triangle,,,,,,,,,,,,,,,,,,,,,,,,,,,,,,,,,,,,,,,,,,,,,,,,,,,,,,
,2022-11-15_11h38.16.108,vts_reward_expectancy_bt,2022.2.4,Win32,60.0348202,Chrome,1383,864,,,a,1.1795,1,387,1,2,11,35,5,1,0,1,0,0,0,0,0,1,circle,star,,,,,,,,,,,,,,,,,,,,,,,,,,,,,,,,,,,,,,,,,,,,,,,,,,,,,,
,2022-11-15_11h38.16.108,vts_reward_expectancy_bt,2022.2.4,Win32,60.0348202,Chrome,1383,864,,,l,1.0151,1,388,2,0,0,0,11,1,0,0,0,1,0,0,1,0,star,hexagon,,,,,,,,,,,,,,,,,,,,,,,,,,,,,,,,,,,,,,,,,,,,,,,,,,,,,,
,2022-11-15_11h38.16.108,vts_reward_expectancy_bt,2022.2.4,Win32,60.0348202,Chrome,1383,864,,,l,1.017,1,389,2,0,1,1,0,1,1,0,0,0,0,1,0,0,triangle,circle,,,,,,,,,,,,,,,,,,,,,,,,,,,,,,,,,,,,,,,,,,,,,,,,,,,,,,
,2022-11-15_11h38.16.108,vts_reward_expectancy_bt,2022.2.4,Win32,60.0348202,Chrome,1383,864,,,a,0.8121,10,399,2,0,2,2,9,1,0,0,0,1,1,0,0,0,star,triangle,,,,,,,,,,,,,,,,,,,,,,,,,,,,,,,,,,,,,,,,,,,,,,,,,,,,,,
,2022-11-15_11h38.16.108,vts_reward_expectancy_bt,2022.2.4,Win32,60.0348202,Chrome,1383,864,,,l,0.6508,10,409,2,0,3,3,2,1,1,0,0,0,0,0,0,1,triangle,star,,,,,,,,,,,,,,,,,,,,,,,,,,,,,,,,,,,,,,,,,,,,,,,,,,,,,,
,2022-11-15_11h38.16.108,vts_reward_expectancy_bt,2022.2.4,Win32,60.0348202,Chrome,1383,864,,,l,0.5513,10,419,2,0,4,4,5,1,0,1,0,0,0,0,0,1,circle,star,,,,,,,,,,,,,,,,,,,,,,,,,,,,,,,,,,,,,,,,,,,,,,,,,,,,,,
,2022-11-15_11h38.16.108,vts_reward_expectancy_bt,2022.2.4,Win32,60.0348202,Chrome,1383,864,,,a,1.0164,10,429,2,0,5,5,6,1,0,0,1,0,1,0,0,0,hexagon,triangle,,,,,,,,,,,,,,,,,,,,,,,,,,,,,,,,,,,,,,,,,,,,,,,,,,,,,,
,2022-11-15_11h38.16.108,vts_reward_expectancy_bt,2022.2.4,Win32,60.0348202,Chrome,1383,864,,,a,1.6341,10,439,2,0,6,6,3,1,0,1,0,0,1,0,0,0,circle,triangle,,,,,,,,,,,,,,,,,,,,,,,,,,,,,,,,,,,,,,,,,,,,,,,,,,,,,,
,2022-11-15_11h38.16.108,vts_reward_expectancy_bt,2022.2.4,Win32,60.0348202,Chrome,1383,864,,,a,2.4285,1,440,2,0,7,7,1,1,1,0,0,0,0,0,1,0,triangle,hexagon,,,,,,,,,,,,,,,,,,,,,,,,,,,,,,,,,,,,,,,,,,,,,,,,,,,,,,
,2022-11-15_11h38.16.108,vts_reward_expectancy_bt,2022.2.4,Win32,60.0348202,Chrome,1383,864,,,a,1.9833,1,441,2,0,8,8,4,1,0,1,0,0,0,0,1,0,circle,hexagon,,,,,,,,,,,,,,,,,,,,,,,,,,,,,,,,,,,,,,,,,,,,,,,,,,,,,,
,2022-11-15_11h38.16.108,vts_reward_expectancy_bt,2022.2.4,Win32,60.0348202,Chrome,1383,864,,,a,1.829,10,451,2,0,9,9,7,1,0,0,1,0,0,1,0,0,hexagon,circle,,,,,,,,,,,,,,,,,,,,,,,,,,,,,,,,,,,,,,,,,,,,,,,,,,,,,,
,2022-11-15_11h38.16.108,vts_reward_expectancy_bt,2022.2.4,Win32,60.0348202,Chrome,1383,864,,,l,1.7676,10,461,2,0,10,10,10,1,0,0,0,1,0,1,0,0,star ,circle,,,,,,,,,,,,,,,,,,,,,,,,,,,,,,,,,,,,,,,,,,,,,,,,,,,,,,
,2022-11-15_11h38.16.108,vts_reward_expectancy_bt,2022.2.4,Win32,60.0348202,Chrome,1383,864,,,l,1.0671,1,462,2,0,11,11,8,1,0,0,1,0,0,0,0,1,hexagon,star,,,,,,,,,,,,,,,,,,,,,,,,,,,,,,,,,,,,,,,,,,,,,,,,,,,,,,
,2022-11-15_11h38.16.108,vts_reward_expectancy_bt,2022.2.4,Win32,60.0348202,Chrome,1383,864,,,a,2.0827,10,472,2,1,0,12,4,1,0,1,0,0,0,0,1,0,circle,hexagon,,,,,,,,,,,,,,,,,,,,,,,,,,,,,,,,,,,,,,,,,,,,,,,,,,,,,,
,2022-11-15_11h38.16.108,vts_reward_expectancy_bt,2022.2.4,Win32,60.0348202,Chrome,1383,864,,,l,1.1351,10,482,2,1,1,13,2,1,1,0,0,0,0,0,0,1,triangle,star,,,,,,,,,,,,,,,,,,,,,,,,,,,,,,,,,,,,,,,,,,,,,,,,,,,,,,
,2022-11-15_11h38.16.108,vts_reward_expectancy_bt,2022.2.4,Win32,60.0348202,Chrome,1383,864,,,l,2.1833,1,483,2,1,2,14,1,1,1,0,0,0,0,0,1,0,triangle,hexagon,,,,,,,,,,,,,,,,,,,,,,,,,,,,,,,,,,,,,,,,,,,,,,,,,,,,,,
,2022-11-15_11h38.16.108,vts_reward_expectancy_bt,2022.2.4,Win32,60.0348202,Chrome,1383,864,,,a,1.3486,10,493,2,1,3,15,11,1,0,0,0,1,0,0,1,0,star,hexagon,,,,,,,,,,,,,,,,,,,,,,,,,,,,,,,,,,,,,,,,,,,,,,,,,,,,,,
,2022-11-15_11h38.16.108,vts_reward_expectancy_bt,2022.2.4,Win32,60.0348202,Chrome,1383,864,,,a,0.985,10,503,2,1,4,16,9,1,0,0,0,1,1,0,0,0,star,triangle,,,,,,,,,,,,,,,,,,,,,,,,,,,,,,,,,,,,,,,,,,,,,,,,,,,,,,
,2022-11-15_11h38.16.108,vts_reward_expectancy_bt,2022.2.4,Win32,60.0348202,Chrome,1383,864,,,l,1.0785,1,504,2,1,5,17,8,1,0,0,1,0,0,0,0,1,hexagon,star,,,,,,,,,,,,,,,,,,,,,,,,,,,,,,,,,,,,,,,,,,,,,,,,,,,,,,
,2022-11-15_11h38.16.108,vts_reward_expectancy_bt,2022.2.4,Win32,60.0348202,Chrome,1383,864,,,l,1.3497,10,514,2,1,6,18,0,1,1,0,0,0,0,1,0,0,triangle,circle,,,,,,,,,,,,,,,,,,,,,,,,,,,,,,,,,,,,,,,,,,,,,,,,,,,,,,
,2022-11-15_11h38.16.108,vts_reward_expectancy_bt,2022.2.4,Win32,60.0348202,Chrome,1383,864,,,a,0.6664,10,524,2,1,7,19,6,1,0,0,1,0,1,0,0,0,hexagon,triangle,,,,,,,,,,,,,,,,,,,,,,,,,,,,,,,,,,,,,,,,,,,,,,,,,,,,,,
,2022-11-15_11h38.16.108,vts_reward_expectancy_bt,2022.2.4,Win32,60.0348202,Chrome,1383,864,,,a,2.1337,10,534,2,1,8,20,10,1,0,0,0,1,0,1,0,0,star ,circle,,,,,,,,,,,,,,,,,,,,,,,,,,,,,,,,,,,,,,,,,,,,,,,,,,,,,,
,2022-11-15_11h38.16.108,vts_reward_expectancy_bt,2022.2.4,Win32,60.0348202,Chrome,1383,864,,,a,0.6788,1,535,2,1,9,21,3,1,0,1,0,0,1,0,0,0,circle,triangle,,,,,,,,,,,,,,,,,,,,,,,,,,,,,,,,,,,,,,,,,,,,,,,,,,,,,,
,2022-11-15_11h38.16.108,vts_reward_expectancy_bt,2022.2.4,Win32,60.0348202,Chrome,1383,864,,,l,1.8662,10,545,2,1,10,22,5,1,0,1,0,0,0,0,0,1,circle,star,,,,,,,,,,,,,,,,,,,,,,,,,,,,,,,,,,,,,,,,,,,,,,,,,,,,,,
,2022-11-15_11h38.16.108,vts_reward_expectancy_bt,2022.2.4,Win32,60.0348202,Chrome,1383,864,,,a,3.1509,10,555,2,1,11,23,7,1,0,0,1,0,0,1,0,0,hexagon,circle,,,,,,,,,,,,,,,,,,,,,,,,,,,,,,,,,,,,,,,,,,,,,,,,,,,,,,
,2022-11-15_11h38.16.108,vts_reward_expectancy_bt,2022.2.4,Win32,60.0348202,Chrome,1383,864,,,a,2.6298,1,556,2,2,0,24,11,1,0,0,0,1,0,0,1,0,star,hexagon,,,,,,,,,,,,,,,,,,,,,,,,,,,,,,,,,,,,,,,,,,,,,,,,,,,,,,
,2022-11-15_11h38.16.108,vts_reward_expectancy_bt,2022.2.4,Win32,60.0348202,Chrome,1383,864,,,l,1.7484,10,566,2,2,1,25,0,1,1,0,0,0,0,1,0,0,triangle,circle,,,,,,,,,,,,,,,,,,,,,,,,,,,,,,,,,,,,,,,,,,,,,,,,,,,,,,
,2022-11-15_11h38.16.108,vts_reward_expectancy_bt,2022.2.4,Win32,60.0348202,Chrome,1383,864,,,a,1.8843,10,576,2,2,2,26,10,1,0,0,0,1,0,1,0,0,star ,circle,,,,,,,,,,,,,,,,,,,,,,,,,,,,,,,,,,,,,,,,,,,,,,,,,,,,,,
,2022-11-15_11h38.16.108,vts_reward_expectancy_bt,2022.2.4,Win32,60.0348202,Chrome,1383,864,,,l,1.7674,10,586,2,2,3,27,2,1,1,0,0,0,0,0,0,1,triangle,star,,,,,,,,,,,,,,,,,,,,,,,,,,,,,,,,,,,,,,,,,,,,,,,,,,,,,,
,2022-11-15_11h38.16.108,vts_reward_expectancy_bt,2022.2.4,Win32,60.0348202,Chrome,1383,864,,,a,3.0845,1,587,2,2,4,28,4,1,0,1,0,0,0,0,1,0,circle,hexagon,,,,,,,,,,,,,,,,,,,,,,,,,,,,,,,,,,,,,,,,,,,,,,,,,,,,,,
,2022-11-15_11h38.16.108,vts_reward_expectancy_bt,2022.2.4,Win32,60.0348202,Chrome,1383,864,,,a,1.133,1,588,2,2,5,29,9,1,0,0,0,1,1,0,0,0,star,triangle,,,,,,,,,,,,,,,,,,,,,,,,,,,,,,,,,,,,,,,,,,,,,,,,,,,,,,
,2022-11-15_11h38.16.108,vts_reward_expectancy_bt,2022.2.4,Win32,60.0348202,Chrome,1383,864,,,l,1.4673,1,589,2,2,6,30,8,1,0,0,1,0,0,0,0,1,hexagon,star,,,,,,,,,,,,,,,,,,,,,,,,,,,,,,,,,,,,,,,,,,,,,,,,,,,,,,
,2022-11-15_11h38.16.108,vts_reward_expectancy_bt,2022.2.4,Win32,60.0348202,Chrome,1383,864,,,l,1.8341,1,590,2,2,7,31,1,1,1,0,0,0,0,0,1,0,triangle,hexagon,,,,,,,,,,,,,,,,,,,,,,,,,,,,,,,,,,,,,,,,,,,,,,,,,,,,,,
,2022-11-15_11h38.16.108,vts_reward_expectancy_bt,2022.2.4,Win32,60.0348202,Chrome,1383,864,,,a,1.0669,10,600,2,2,8,32,6,1,0,0,1,0,1,0,0,0,hexagon,triangle,,,,,,,,,,,,,,,,,,,,,,,,,,,,,,,,,,,,,,,,,,,,,,,,,,,,,,
,2022-11-15_11h38.16.108,vts_reward_expectancy_bt,2022.2.4,Win32,60.0348202,Chrome,1383,864,,,l,0.8627,10,610,2,2,9,33,5,1,0,1,0,0,0,0,0,1,circle,star,,,,,,,,,,,,,,,,,,,,,,,,,,,,,,,,,,,,,,,,,,,,,,,,,,,,,,
,2022-11-15_11h38.16.108,vts_reward_expectancy_bt,2022.2.4,Win32,60.0348202,Chrome,1383,864,,,a,0.9342,1,611,2,2,10,34,7,1,0,0,1,0,0,1,0,0,hexagon,circle,,,,,,,,,,,,,,,,,,,,,,,,,,,,,,,,,,,,,,,,,,,,,,,,,,,,,,
,2022-11-15_11h38.16.108,vts_reward_expectancy_bt,2022.2.4,Win32,60.0348202,Chrome,1383,864,,,a,1.4008,10,621,2,2,11,35,3,1,0,1,0,0,1,0,0,0,circle,triangle,,,,,,,,,,,,,,,,,,,,,,,,,,,,,,,,,,,,,,,,,,,,,,,,,,,,,,
,2022-11-15_11h38.16.108,vts_reward_expectancy_bt,2022.2.4,Win32,60.0348202,Chrome,1383,864,,,,,,,,,,,,,,,,,,,,,,,H,167,star,1,0,d,1.1996,0,0,0,0,0,1,,,,,,,,,,,,,,,,,,,,,,,,,,,,,,,,,,,,,,,,,
,2022-11-15_11h38.16.108,vts_reward_expectancy_bt,2022.2.4,Win32,60.0348202,Chrome,1383,864,,,,,,,,,,,,,,,,,,,,,,,D,125,circle,1,0,d,0.7669,0,1,0,1,0,1,,,,,,,,,,,,,,,,,,,,,,,,,,,,,,,,,,,,,,,,,
,2022-11-15_11h38.16.108,vts_reward_expectancy_bt,2022.2.4,Win32,60.0348202,Chrome,1383,864,,,,,,,,,,,,,,,,,,,,,,,W,139,triangle,1,0,f,0.6996,0,2,0,2,0,1,,,,,,,,,,,,,,,,,,,,,,,,,,,,,,,,,,,,,,,,,
,2022-11-15_11h38.16.108,vts_reward_expectancy_bt,2022.2.4,Win32,60.0348202,Chrome,1383,864,,,,,,,,,,,,,,,,,,,,,,,Y,174,hexagon,1,0,f,0.7173,0,3,0,3,0,1,,,,,,,,,,,,,,,,,,,,,,,,,,,,,,,,,,,,,,,,,
,2022-11-15_11h38.16.108,vts_reward_expectancy_bt,2022.2.4,Win32,60.0348202,Chrome,1383,864,,,,,,,,,,,,,,,,,,,,,,,S,181,star,1,0,f,0.7507,0,4,0,4,0,1,,,,,,,,,,,,,,,,,,,,,,,,,,,,,,,,,,,,,,,,,
,2022-11-15_11h38.16.108,vts_reward_expectancy_bt,2022.2.4,Win32,60.0348202,Chrome,1383,864,,,,,,,,,,,,,,,,,,,,,,,F,132,circle,1,0,d,1.0172,0,5,0,5,0,1,,,,,,,,,,,,,,,,,,,,,,,,,,,,,,,,,,,,,,,,,
,2022-11-15_11h38.16.108,vts_reward_expectancy_bt,2022.2.4,Win32,60.0348202,Chrome,1383,864,,,,,,,,,,,,,,,,,,,,,,,B,160,triangle,1,0,d,0.6339,0,6,0,6,0,1,,,,,,,,,,,,,,,,,,,,,,,,,,,,,,,,,,,,,,,,,
,2022-11-15_11h38.16.108,vts_reward_expectancy_bt,2022.2.4,Win32,60.0348202,Chrome,1383,864,,,,,,,,,,,,,,,,,,,,,,,U,146,hexagon,1,0,f,1.0841,0,7,0,7,0,1,,,,,,,,,,,,,,,,,,,,,,,,,,,,,,,,,,,,,,,,,
,2022-11-15_11h38.16.108,vts_reward_expectancy_bt,2022.2.4,Win32,60.0348202,Chrome,1383,864,,,,,,,,,,,,,,,,,,,,,,,H,167,triangle,1,0,d,0.8649,0,8,0,8,0,1,,,,,,,,,,,,,,,,,,,,,,,,,,,,,,,,,,,,,,,,,
,2022-11-15_11h38.16.108,vts_reward_expectancy_bt,2022.2.4,Win32,60.0348202,Chrome,1383,864,,,,,,,,,,,,,,,,,,,,,,,D,125,star,1,0,d,0.7675,0,9,0,9,0,1,,,,,,,,,,,,,,,,,,,,,,,,,,,,,,,,,,,,,,,,,
,2022-11-15_11h38.16.108,vts_reward_expectancy_bt,2022.2.4,Win32,60.0348202,Chrome,1383,864,,,,,,,,,,,,,,,,,,,,,,,H,139,circle,0,0,,,1,,,,,,k,0.9348,0,0,0,0,1,,,,,,,,,,,,,,,,,,,,,,,,,,,,,,,,,,
,2022-11-15_11h38.16.108,vts_reward_expectancy_bt,2022.2.4,Win32,60.0348202,Chrome,1383,864,,,,,,,,,,,,,,,,,,,,,,,S,132,triangle,1,1,,,1,,,,,,j,1.0324,1,0,1,0,1,,,,,,,,,,,,,,,,,,,,,,,,,,,,,,,,,,
,2022-11-15_11h38.16.108,vts_reward_expectancy_bt,2022.2.4,Win32,60.0348202,Chrome,1383,864,,,,,,,,,,,,,,,,,,,,,,,U,160,star,1,0,,,1,,,,,,k,0.7009,2,0,2,0,1,,,,,,,,,,,,,,,,,,,,,,,,,,,,,,,,,,
,2022-11-15_11h38.16.108,vts_reward_expectancy_bt,2022.2.4,Win32,60.0348202,Chrome,1383,864,,,,,,,,,,,,,,,,,,,,,,,B,125,hexagon,1,0,,,1,,,,,,j,0.6342,3,0,3,0,1,,,,,,,,,,,,,,,,,,,,,,,,,,,,,,,,,,
,2022-11-15_11h38.16.108,vts_reward_expectancy_bt,2022.2.4,Win32,60.0348202,Chrome,1383,864,,,,,,,,,,,,,,,,,,,,,,,Y,146,circle,1,0,,,1,,,,,,j,0.7837,4,0,4,0,1,,,,,,,,,,,,,,,,,,,,,,,,,,,,,,,,,,
,2022-11-15_11h38.16.108,vts_reward_expectancy_bt,2022.2.4,Win32,60.0348202,Chrome,1383,864,,,,,,,,,,,,,,,,,,,,,,,F,181,triangle,1,0,,,1,,,,,,k,0.7185,5,0,5,0,1,,,,,,,,,,,,,,,,,,,,,,,,,,,,,,,,,,
,2022-11-15_11h38.16.108,vts_reward_expectancy_bt,2022.2.4,Win32,60.0348202,Chrome,1383,864,,,,,,,,,,,,,,,,,,,,,,,W,167,star,1,0,,,1,,,,,,k,0.6502,6,0,6,0,1,,,,,,,,,,,,,,,,,,,,,,,,,,,,,,,,,,
,2022-11-15_11h38.16.108,vts_reward_expectancy_bt,2022.2.4,Win32,60.0348202,Chrome,1383,864,,,,,,,,,,,,,,,,,,,,,,,D,174,hexagon,1,0,,,1,,,,,,k,0.9344,7,0,7,0,1,,,,,,,,,,,,,,,,,,,,,,,,,,,,,,,,,,
,2022-11-15_11h38.16.108,vts_reward_expectancy_bt,2022.2.4,Win32,60.0348202,Chrome,1383,864,,,,,,,,,,,,,,,,,,,,,,,H,139,hexagon,1,0,,,1,,,,,,j,0.8511,8,0,8,0,1,,,,,,,,,,,,,,,,,,,,,,,,,,,,,,,,,,
,2022-11-15_11h38.16.108,vts_reward_expectancy_bt,2022.2.4,Win32,60.0348202,Chrome,1383,864,,,,,,,,,,,,,,,,,,,,,,,S,132,star,1,0,,,1,,,,,,j,1.101,9,0,9,0,1,,,,,,,,,,,,,,,,,,,,,,,,,,,,,,,,,,
,2022-11-15_11h38.16.108,vts_reward_expectancy_bt,2022.2.4,Win32,60.0348202,Chrome,1383,864,,,,,0,621,,,,,,,,,,,,,,,,,W,139,hexagon,1,0,,,2,,,,,,,,,,,,,-1,letter,NA,f,2.7011,vtsPrac,0,0,0,0,1,,,,,,,,,,,,,,,,,,,,,,,
,2022-11-15_11h38.16.108,vts_reward_expectancy_bt,2022.2.4,Win32,60.0348202,Chrome,1383,864,,,,,0,621,,,,,,,,,,,,,,,,,Y,160,triangle,1,0,,,2,,,,,,,,,,,,,switch,number,numSwt,k,1.0841,vtsPrac,1,0,1,0,1,,,,,,,,,,,,,,,,,,,,,,,
,2022-11-15_11h38.16.108,vts_reward_expectancy_bt,2022.2.4,Win32,60.0348202,Chrome,1383,864,,,,,0,621,,,,,,,,,,,,,,,,,S,174,hexagon,1,0,,,2,,,,,,,,,,,,,switch,letter,lettSwt,f,0.8844,vtsPrac,2,0,2,0,1,,,,,,,,,,,,,,,,,,,,,,,
,2022-11-15_11h38.16.108,vts_reward_expectancy_bt,2022.2.4,Win32,60.0348202,Chrome,1383,864,,,,,0,621,,,,,,,,,,,,,,,,,F,125,triangle,1,0,,,2,,,,,,,,,,,,,switch,number,numSwt,j,0.601,vtsPrac,3,0,3,0,1,,,,,,,,,,,,,,,,,,,,,,,
,2022-11-15_11h38.16.108,vts_reward_expectancy_bt,2022.2.4,Win32,60.0348202,Chrome,1383,864,,,,,0,621,,,,,,,,,,,,,,,,,W,139,star,1,0,,,2,,,,,,,,,,,,,switch,letter,lettSwt,f,0.8495,vtsPrac,4,0,4,0,1,,,,,,,,,,,,,,,,,,,,,,,
,2022-11-15_11h38.16.108,vts_reward_expectancy_bt,2022.2.4,Win32,60.0348202,Chrome,1383,864,,,,,0,621,,,,,,,,,,,,,,,,,Y,160,triangle,1,0,,,2,,,,,,,,,,,,,switch,number,numSwt,k,0.5661,vtsPrac,5,0,5,0,1,,,,,,,,,,,,,,,,,,,,,,,
,2022-11-15_11h38.16.108,vts_reward_expectancy_bt,2022.2.4,Win32,60.0348202,Chrome,1383,864,,,,,0,621,,,,,,,,,,,,,,,,,S,174,hexagon,1,0,,,2,,,,,,,,,,,,,switch,letter,lettSwt,f,0.6997,vtsPrac,6,0,6,0,1,,,,,,,,,,,,,,,,,,,,,,,
,2022-11-15_11h38.16.108,vts_reward_expectancy_bt,2022.2.4,Win32,60.0348202,Chrome,1383,864,,,,,0,621,,,,,,,,,,,,,,,,,F,125,star,1,0,,,2,,,,,,,,,,,,,switch,number,numSwt,j,0.6826,vtsPrac,7,0,7,0,1,,,,,,,,,,,,,,,,,,,,,,,
,2022-11-15_11h38.16.108,vts_reward_expectancy_bt,2022.2.4,Win32,60.0348202,Chrome,1383,864,,,,,0,621,,,,,,,,,,,,,,,,,U,139,hexagon,1,0,,,2,,,,,,,,,,,,,switch,letter,lettSwt,f,0.9336,vtsPrac,8,0,8,0,1,,,,,,,,,,,,,,,,,,,,,,,
,2022-11-15_11h38.16.108,vts_reward_expectancy_bt,2022.2.4,Win32,60.0348202,Chrome,1383,864,,,,,0,621,,,,,,,,,,,,,,,,,B,146,circle,1,0,,,2,,,,,,,,,,,,,repeat,letter,lettRpt,d,0.8328,vtsPrac,9,0,9,0,1,,,,,,,,,,,,,,,,,,,,,,,
,2022-11-15_11h38.16.108,vts_reward_expectancy_bt,2022.2.4,Win32,60.0348202,Chrome,1383,864,,,,,0,621,,,,,,,,,,,,,,,,,S,160,hexagon,1,0,,,2,,,,,,,,,,,,,switch,number,numSwt,k,0.7495,vtsPrac,10,0,10,0,1,,,,,,,,,,,,,,,,,,,,,,,
,2022-11-15_11h38.16.108,vts_reward_expectancy_bt,2022.2.4,Win32,60.0348202,Chrome,1383,864,,,,,0,621,,,,,,,,,,,,,,,,,D,174,circle,1,0,,,2,,,,,,,,,,,,,switch,letter,lettSwt,d,0.7829,vtsPrac,11,0,11,0,1,,,,,,,,,,,,,,,,,,,,,,,
,2022-11-15_11h38.16.108,vts_reward_expectancy_bt,2022.2.4,Win32,60.0348202,Chrome,1383,864,,,,,0,621,,,,,,,,,,,,,,,,,U,167,hexagon,1,0,,,2,,,,,,,,,,,,,switch,number,numSwt,k,0.733,vtsPrac,12,0,12,0,1,,,,,,,,,,,,,,,,,,,,,,,
,2022-11-15_11h38.16.108,vts_reward_expectancy_bt,2022.2.4,Win32,60.0348202,Chrome,1383,864,,,,,0,621,,,,,,,,,,,,,,,,,B,181,circle,1,0,,,2,,,,,,,,,,,,,repeat,number,numRpt,k,0.616,vtsPrac,13,0,13,0,1,,,,,,,,,,,,,,,,,,,,,,,
,2022-11-15_11h38.16.108,vts_reward_expectancy_bt,2022.2.4,Win32,60.0348202,Chrome,1383,864,,,,,0,621,,,,,,,,,,,,,,,,,S,160,triangle,1,0,,,2,,,,,,,,,,,,,switch,letter,lettSwt,f,0.5504,vtsPrac,14,0,14,0,1,,,,,,,,,,,,,,,,,,,,,,,
,2022-11-15_11h38.16.108,vts_reward_expectancy_bt,2022.2.4,Win32,60.0348202,Chrome,1383,864,,,,,0,621,,,,,,,,,,,,,,,,,H,146,hexagon,1,0,,,2,,,,,,,,,,,,,switch,number,numSwt,j,0.8162,vtsPrac,15,0,15,0,1,,,,,,,,,,,,,,,,,,,,,,,
,2022-11-15_11h38.16.108,vts_reward_expectancy_bt,2022.2.4,Win32,60.0348202,Chrome,1383,864,,,,,0,621,,,,,,,,,,,,,,,,,S,125,hexagon,1,0,,,2,,,,,,,,,,,,,switch,letter,lettSwt,f,0.5661,vtsPrac,16,0,16,0,1,,,,,,,,,,,,,,,,,,,,,,,
,2022-11-15_11h38.16.108,vts_reward_expectancy_bt,2022.2.4,Win32,60.0348202,Chrome,1383,864,,,,,0,621,,,,,,,,,,,,,,,,,B,132,triangle,1,0,,,2,,,,,,,,,,,,,switch,number,numSwt,j,0.7005,vtsPrac,17,0,17,0,1,,,,,,,,,,,,,,,,,,,,,,,
,2022-11-15_11h38.16.108,vts_reward_expectancy_bt,2022.2.4,Win32,60.0348202,Chrome,1383,864,,,,,0,621,,,,,,,,,,,,,,,,,H,139,triangle,1,0,,,2,,,,,,,,,,,,,switch,letter,lettSwt,d,0.9502,vtsPrac,18,0,18,0,1,,,,,,,,,,,,,,,,,,,,,,,
,2022-11-15_11h38.16.108,vts_reward_expectancy_bt,2022.2.4,Win32,60.0348202,Chrome,1383,864,,,,,0,621,,,,,,,,,,,,,,,,,Y,146,star,1,0,,,2,,,,,,,,,,,,,switch,number,numSwt,j,0.9505,vtsPrac,19,0,19,0,1,,,,,,,,,,,,,,,,,,,,,,,
,2022-11-15_11h38.16.108,vts_reward_expectancy_bt,2022.2.4,Win32,60.0348202,Chrome,1383,864,,,,,0,621,,,,,,,,,,,,,,,,,S,132,circle,1,0,,,2,,,,,,,,,,,,,switch,letter,lettSwt,f,0.5667,vtsPrac,20,0,20,0,1,,,,,,,,,,,,,,,,,,,,,,,
,2022-11-15_11h38.16.108,vts_reward_expectancy_bt,2022.2.4,Win32,60.0348202,Chrome,1383,864,,,,,0,621,,,,,,,,,,,,,,,,,Y,181,star,1,0,,,2,,,,,,,,,,,,,switch,number,numSwt,k,0.6998,vtsPrac,21,0,21,0,1,,,,,,,,,,,,,,,,,,,,,,,
,2022-11-15_11h38.16.108,vts_reward_expectancy_bt,2022.2.4,Win32,60.0348202,Chrome,1383,864,,,,,0,621,,,,,,,,,,,,,,,,,B,125,hexagon,1,0,,,2,,,,,,,,,,,,,switch,letter,lettSwt,d,1.8006,vtsPrac,22,0,22,0,1,,,,,,,,,,,,,,,,,,,,,,,
,2022-11-15_11h38.16.108,vts_reward_expectancy_bt,2022.2.4,Win32,60.0348202,Chrome,1383,864,,,,,0,621,,,,,,,,,,,,,,,,,F,139,circle,1,0,,,2,,,,,,,,,,,,,switch,number,numSwt,j,0.7328,vtsPrac,23,0,23,0,1,,,,,,,,,,,,,,,,,,,,,,,
,2022-11-15_11h38.16.108,vts_reward_expectancy_bt,2022.2.4,Win32,60.0348202,Chrome,1383,864,,,,,0,621,,,,,,,,,,,,,,,,,S,132,triangle,1,0,,,2,,,,,,,,,,,,,switch,letter,lettSwt,f,0.716,vtsPrac,24,0,24,0,1,,,,,,,,,,,,,,,,,,,,,,,
,2022-11-15_11h38.16.108,vts_reward_expectancy_bt,2022.2.4,Win32,60.0348202,Chrome,1383,864,,,,,0,621,,,,,,,,,,,,,,,,,Y,139,hexagon,1,0,,,2,,,,,,,,,,,,,switch,number,numSwt,j,0.7815,vtsPrac,25,0,25,0,1,,,,,,,,,,,,,,,,,,,,,,,
,2022-11-15_11h38.16.108,vts_reward_expectancy_bt,2022.2.4,Win32,60.0348202,Chrome,1383,864,,,,,0,621,,,,,,,,,,,,,,,,,B,125,triangle,1,0,,,2,,,,,,,,,,,,,switch,letter,lettSwt,d,0.6341,vtsPrac,26,0,26,0,1,,,,,,,,,,,,,,,,,,,,,,,
,2022-11-15_11h38.16.108,vts_reward_expectancy_bt,2022.2.4,Win32,60.0348202,Chrome,1383,864,,,,,0,621,,,,,,,,,,,,,,,,,F,146,star,1,0,,,2,,,,,,,,,,,,,switch,number,numSwt,j,1.6996,vtsPrac,27,0,27,0,1,,,,,,,,,,,,,,,,,,,,,,,
,2022-11-15_11h38.16.108,vts_reward_expectancy_bt,2022.2.4,Win32,60.0348202,Chrome,1383,864,,,,,0,621,,,,,,,,,,,,,,,,,H,174,star,1,0,,,2,,,,,,,,,,,,,switch,letter,lettSwt,d,1.0999,vtsPrac,28,0,28,0,1,,,,,,,,,,,,,,,,,,,,,,,
,2022-11-15_11h38.16.108,vts_reward_expectancy_bt,2022.2.4,Win32,60.0348202,Chrome,1383,864,,,,,0,621,,,,,,,,,,,,,,,,,F,146,hexagon,1,0,,,2,,,,,,,,,,,,,switch,number,numSwt,j,0.7666,vtsPrac,29,0,29,0,1,,,,,,,,,,,,,,,,,,,,,,,
,2022-11-15_11h38.16.108,vts_reward_expectancy_bt,2022.2.4,Win32,60.0348202,Chrome,1383,864,,,,,0,621,,,,,,,,,,,,,,,,,B,125,triangle,1,0,,,2,,,,,,,,,,,,,switch,letter,lettSwt,d,0.6831,vtsPrac,30,0,30,0,1,,,,,,,,,,,,,,,,,,,,,,,
,2022-11-15_11h38.16.108,vts_reward_expectancy_bt,2022.2.4,Win32,60.0348202,Chrome,1383,864,,,,,0,621,,,,,,,,,,,,,,,,,D,160,hexagon,1,0,,,2,,,,,,,,,,,,,switch,number,numSwt,k,2.1839,vtsPrac,31,0,31,0,1,,,,,,,,,,,,,,,,,,,,,,,
,2022-11-15_11h38.16.108,vts_reward_expectancy_bt,2022.2.4,Win32,60.0348202,Chrome,1383,864,,,,,0,621,,,,,,,,,,,,,,,,,S,167,star,1,0,,,3,,,,,,,,,,,,,switch,letter,lettSwt,f,0.9842,vtsPrac,0,0,0,0,1,,,,,,,,,,,,,,,,,,,,,,,
,2022-11-15_11h38.16.108,vts_reward_expectancy_bt,2022.2.4,Win32,60.0348202,Chrome,1383,864,,,,,0,621,,,,,,,,,,,,,,,,,U,146,triangle,1,0,,,3,,,,,,,,,,,,,repeat,letter,lettRpt,f,0.9818,vtsPrac,1,0,1,0,1,,,,,,,,,,,,,,,,,,,,,,,
,2022-11-15_11h38.16.108,vts_reward_expectancy_bt,2022.2.4,Win32,60.0348202,Chrome,1383,864,,,,,0,621,,,,,,,,,,,,,,,,,Y,160,star,1,0,,,3,,,,,,,,,,,,,repeat,letter,lettRpt,f,0.8662,vtsPrac,2,0,2,0,1,,,,,,,,,,,,,,,,,,,,,,,
,2022-11-15_11h38.16.108,vts_reward_expectancy_bt,2022.2.4,Win32,60.0348202,Chrome,1383,864,,,,,0,621,,,,,,,,,,,,,,,,,D,181,triangle,1,0,,,3,,,,,,,,,,,,,switch,number,numSwt,k,1.1618,vtsPrac,3,0,3,0,1,,,,,,,,,,,,,,,,,,,,,,,
,2022-11-15_11h38.16.108,vts_reward_expectancy_bt,2022.2.4,Win32,60.0348202,Chrome,1383,864,,,,,0,621,,,,,,,,,,,,,,,,,S,167,circle,1,0,,,3,,,,,,,,,,,,,switch,letter,lettSwt,f,0.6346,vtsPrac,4,0,4,0,1,,,,,,,,,,,,,,,,,,,,,,,
,2022-11-15_11h38.16.108,vts_reward_expectancy_bt,2022.2.4,Win32,60.0348202,Chrome,1383,864,,,,,0,621,,,,,,,,,,,,,,,,,U,146,star,1,0,,,3,,,,,,,,,,,,,repeat,letter,lettRpt,f,0.7999,vtsPrac,5,0,5,0,1,,,,,,,,,,,,,,,,,,,,,,,
,2022-11-15_11h38.16.108,vts_reward_expectancy_bt,2022.2.4,Win32,60.0348202,Chrome,1383,864,,,,,0,621,,,,,,,,,,,,,,,,,Y,160,hexagon,1,0,,,3,,,,,,,,,,,,,switch,number,numSwt,k,1.2126,vtsPrac,6,0,6,0,1,,,,,,,,,,,,,,,,,,,,,,,
,2022-11-15_11h38.16.108,vts_reward_expectancy_bt,2022.2.4,Win32,60.0348202,Chrome,1383,864,,,,,0,621,,,,,,,,,,,,,,,,,D,181,star,1,0,,,3,,,,,,,,,,,,,repeat,number,numRpt,k,0.7837,vtsPrac,7,0,7,0,1,,,,,,,,,,,,,,,,,,,,,,,
,2022-11-15_11h38.16.108,vts_reward_expectancy_bt,2022.2.4,Win32,60.0348202,Chrome,1383,864,,,,,0,621,,,,,,,,,,,,,,,,,U,132,circle,1,0,,,3,,,,,,,,,,,,,repeat,number,numRpt,j,0.8212,vtsPrac,8,0,8,0,1,,,,,,,,,,,,,,,,,,,,,,,
,2022-11-15_11h38.16.108,vts_reward_expectancy_bt,2022.2.4,Win32,60.0348202,Chrome,1383,864,,,,,0,621,,,,,,,,,,,,,,,,,Y,146,triangle,1,0,,,3,,,,,,,,,,,,,repeat,number,numRpt,j,0.6888,vtsPrac,9,0,9,0,1,,,,,,,,,,,,,,,,,,,,,,,
,2022-11-15_11h38.16.108,vts_reward_expectancy_bt,2022.2.4,Win32,60.0348202,Chrome,1383,864,,,,,0,621,,,,,,,,,,,,,,,,,H,160,star,1,0,,,3,,,,,,,,,,,,,switch,letter,lettSwt,d,0.7178,vtsPrac,10,0,10,0,1,,,,,,,,,,,,,,,,,,,,,,,
,2022-11-15_11h38.16.108,vts_reward_expectancy_bt,2022.2.4,Win32,60.0348202,Chrome,1383,864,,,,,0,621,,,,,,,,,,,,,,,,,D,167,circle,1,0,,,3,,,,,,,,,,,,,repeat,letter,lettRpt,d,1.0846,vtsPrac,11,0,11,0,1,,,,,,,,,,,,,,,,,,,,,,,
,2022-11-15_11h38.16.108,vts_reward_expectancy_bt,2022.2.4,Win32,60.0348202,Chrome,1383,864,,,,,0,621,,,,,,,,,,,,,,,,,Y,132,star,1,0,,,3,,,,,,,,,,,,,switch,number,numSwt,j,0.7165,vtsPrac,12,0,12,0,1,,,,,,,,,,,,,,,,,,,,,,,
,2022-11-15_11h38.16.108,vts_reward_expectancy_bt,2022.2.4,Win32,60.0348202,Chrome,1383,864,,,,,0,621,,,,,,,,,,,,,,,,,S,181,triangle,1,0,,,3,,,,,,,,,,,,,switch,letter,lettSwt,f,0.7822,vtsPrac,13,0,13,0,1,,,,,,,,,,,,,,,,,,,,,,,
,2022-11-15_11h38.16.108,vts_reward_expectancy_bt,2022.2.4,Win32,60.0348202,Chrome,1383,864,,,,,0,621,,,,,,,,,,,,,,,,,U,160,circle,1,0,,,3,,,,,,,,,,,,,repeat,letter,lettRpt,f,1.3681,vtsPrac,14,0,14,0,1,,,,,,,,,,,,,,,,,,,,,,,
,2022-11-15_11h38.16.108,vts_reward_expectancy_bt,2022.2.4,Win32,60.0348202,Chrome,1383,864,,,,,0,621,,,,,,,,,,,,,,,,,D,146,triangle,1,0,,,3,,,,,,,,,,,,,switch,number,numSwt,j,1.2022,vtsPrac,15,0,15,0,1,,,,,,,,,,,,,,,,,,,,,,,
,2022-11-15_11h38.16.108,vts_reward_expectancy_bt,2022.2.4,Win32,60.0348202,Chrome,1383,864,,,,,0,621,,,,,,,,,,,,,,,,,B,181,circle,1,0,,,3,,,,,,,,,,,,,switch,letter,lettSwt,d,0.7016,vtsPrac,16,0,16,0,1,,,,,,,,,,,,,,,,,,,,,,,
,2022-11-15_11h38.16.108,vts_reward_expectancy_bt,2022.2.4,Win32,60.0348202,Chrome,1383,864,,,,,0,621,,,,,,,,,,,,,,,,,D,146,star,1,0,,,3,,,,,,,,,,,,,switch,number,numSwt,j,0.8506,vtsPrac,17,0,17,0,1,,,,,,,,,,,,,,,,,,,,,,,
,2022-11-15_11h38.16.108,vts_reward_expectancy_bt,2022.2.4,Win32,60.0348202,Chrome,1383,864,,,,,0,621,,,,,,,,,,,,,,,,,H,125,star,1,0,,,3,,,,,,,,,,,,,switch,letter,lettSwt,d,0.6712,vtsPrac,18,0,18,0,1,,,,,,,,,,,,,,,,,,,,,,,
,2022-11-15_11h38.16.108,vts_reward_expectancy_bt,2022.2.4,Win32,60.0348202,Chrome,1383,864,,,,,0,621,,,,,,,,,,,,,,,,,U,160,circle,1,0,,,3,,,,,,,,,,,,,repeat,letter,lettRpt,f,1.3,vtsPrac,19,0,19,0,1,,,,,,,,,,,,,,,,,,,,,,,
,2022-11-15_11h38.16.108,vts_reward_expectancy_bt,2022.2.4,Win32,60.0348202,Chrome,1383,864,,,,,0,621,,,,,,,,,,,,,,,,,U,132,triangle,1,0,,,3,,,,,,,,,,,,,switch,number,numSwt,j,0.7339,vtsPrac,20,0,20,0,1,,,,,,,,,,,,,,,,,,,,,,,
,2022-11-15_11h38.16.108,vts_reward_expectancy_bt,2022.2.4,Win32,60.0348202,Chrome,1383,864,,,,,0,621,,,,,,,,,,,,,,,,,Y,146,circle,1,0,,,3,,,,,,,,,,,,,repeat,number,numRpt,j,1.2325,vtsPrac,21,0,21,0,1,,,,,,,,,,,,,,,,,,,,,,,
,2022-11-15_11h38.16.108,vts_reward_expectancy_bt,2022.2.4,Win32,60.0348202,Chrome,1383,864,,,,,0,621,,,,,,,,,,,,,,,,,S,181,star,1,0,,,3,,,,,,,,,,,,,switch,letter,lettSwt,f,0.9194,vtsPrac,22,0,22,0,1,,,,,,,,,,,,,,,,,,,,,,,
,2022-11-15_11h38.16.108,vts_reward_expectancy_bt,2022.2.4,Win32,60.0348202,Chrome,1383,864,,,,,0,621,,,,,,,,,,,,,,,,,H,125,hexagon,1,0,,,3,,,,,,,,,,,,,switch,number,numSwt,j,0.7483,vtsPrac,23,0,23,0,1,,,,,,,,,,,,,,,,,,,,,,,
,2022-11-15_11h38.16.108,vts_reward_expectancy_bt,2022.2.4,Win32,60.0348202,Chrome,1383,864,,,,,0,621,,,,,,,,,,,,,,,,,U,132,hexagon,1,0,,,3,,,,,,,,,,,,,repeat,number,numRpt,j,1.117,vtsPrac,24,0,24,0,1,,,,,,,,,,,,,,,,,,,,,,,
,2022-11-15_11h38.16.108,vts_reward_expectancy_bt,2022.2.4,Win32,60.0348202,Chrome,1383,864,,,,,0,621,,,,,,,,,,,,,,,,,B,174,star,1,0,,,3,,,,,,,,,,,,,switch,letter,lettSwt,d,0.8007,vtsPrac,25,0,25,0,1,,,,,,,,,,,,,,,,,,,,,,,
,2022-11-15_11h38.16.108,vts_reward_expectancy_bt,2022.2.4,Win32,60.0348202,Chrome,1383,864,,,,,0,621,,,,,,,,,,,,,,,,,D,125,circle,1,0,,,3,,,,,,,,,,,,,switch,number,numSwt,j,0.7869,vtsPrac,26,0,26,0,1,,,,,,,,,,,,,,,,,,,,,,,
,2022-11-15_11h38.16.108,vts_reward_expectancy_bt,2022.2.4,Win32,60.0348202,Chrome,1383,864,,,,,0,621,,,,,,,,,,,,,,,,,F,146,triangle,1,0,,,3,,,,,,,,,,,,,repeat,number,numRpt,j,0.8669,vtsPrac,27,0,27,0,1,,,,,,,,,,,,,,,,,,,,,,,
,2022-11-15_11h38.16.108,vts_reward_expectancy_bt,2022.2.4,Win32,60.0348202,Chrome,1383,864,,,,,0,621,,,,,,,,,,,,,,,,,D,146,triangle,1,0,,,3,,,,,,,,,,,,,switch,letter,lettSwt,d,0.5835,vtsPrac,28,0,28,0,1,,,,,,,,,,,,,,,,,,,,,,,
,2022-11-15_11h38.16.108,vts_reward_expectancy_bt,2022.2.4,Win32,60.0348202,Chrome,1383,864,,,,,0,621,,,,,,,,,,,,,,,,,S,139,hexagon,1,0,,,3,,,,,,,,,,,,,switch,number,numSwt,j,0.8514,vtsPrac,29,0,29,0,1,,,,,,,,,,,,,,,,,,,,,,,
,2022-11-15_11h38.16.108,vts_reward_expectancy_bt,2022.2.4,Win32,60.0348202,Chrome,1383,864,,,,,0,621,,,,,,,,,,,,,,,,,B,181,triangle,1,0,,,3,,,,,,,,,,,,,repeat,number,numRpt,k,1.0835,vtsPrac,30,0,30,0,1,,,,,,,,,,,,,,,,,,,,,,,
,2022-11-15_11h38.16.108,vts_reward_expectancy_bt,2022.2.4,Win32,60.0348202,Chrome,1383,864,,,,,0,621,,,,,,,,,,,,,,,,,U,167,star,1,0,,,3,,,,,,,,,,,,,repeat,number,numRpt,k,0.7174,vtsPrac,31,0,31,0,1,,,,,,,,,,,,,,,,,,,,,,,
,2022-11-15_11h38.16.108,vts_reward_expectancy_bt,2022.2.4,Win32,60.0348202,Chrome,1383,864,,,,,,,,,,,,,,,,,,,,,,,,,,,,,,,,,,,,,,,,,,,,,,,,,,,,,,,,,,,,,,,,,,,,,,,,,,,,
,2022-11-15_11h38.16.108,vts_reward_expectancy_bt,2022.2.4,Win32,60.0348202,Chrome,1383,864,,,,,,,,,,,,,,,,,,,,,,,,,,,,,,,,,,,,,,,,,,,,,,,,,,,,,,,,,,,,,,,,,,,,,,,,,,,,
,2022-11-15_11h38.16.108,vts_reward_expectancy_bt,2022.2.4,Win32,60.0348202,Chrome,1383,864,,,,,0,621,,,,,,,,,,,,,,,,,F,181,star,1,0,,,,,,,,,,,,,,,,switch,letter,lettSwt,d,0.7848,noRew,,,,,,0,0,0,0,0,1,,,,,,,,,,,,,,,,,
,2022-11-15_11h38.16.108,vts_reward_expectancy_bt,2022.2.4,Win32,60.0348202,Chrome,1383,864,,,,,0,621,,,,,,,,,,,,,,,,,Y,139,circle,1,0,,,,,,,,,,,,,,,,repeat,letter,lettRpt,f,0.8849,noRew,,,,,,0,1,0,1,0,1,,,,,,,,,,,,,,,,,
,2022-11-15_11h38.16.108,vts_reward_expectancy_bt,2022.2.4,Win32,60.0348202,Chrome,1383,864,,,,,0,621,,,,,,,,,,,,,,,,,D,174,star,1,0,,,,,,,,,,,,,,,,switch,number,numSwt,k,0.9329,noRew,,,,,,0,2,0,2,0,1,,,,,,,,,,,,,,,,,
,2022-11-15_11h38.16.108,vts_reward_expectancy_bt,2022.2.4,Win32,60.0348202,Chrome,1383,864,,,,,0,621,,,,,,,,,,,,,,,,,H,146,circle,1,0,,,,,,,,,,,,,,,,switch,letter,lettSwt,d,1.2175,noRew,,,,,,0,3,0,3,0,1,,,,,,,,,,,,,,,,,
,2022-11-15_11h38.16.108,vts_reward_expectancy_bt,2022.2.4,Win32,60.0348202,Chrome,1383,864,,,,,0,621,,,,,,,,,,,,,,,,,F,181,hexagon,1,0,,,,,,,,,,,,,,,,switch,number,numSwt,k,0.7843,noRew,,,,,,0,4,0,4,0,1,,,,,,,,,,,,,,,,,
,2022-11-15_11h38.16.108,vts_reward_expectancy_bt,2022.2.4,Win32,60.0348202,Chrome,1383,864,,,,,0,621,,,,,,,,,,,,,,,,,Y,139,star,1,0,,,,,,,,,,,,,,,,repeat,number,numRpt,j,0.7532,noRew,,,,,,0,5,0,5,0,1,,,,,,,,,,,,,,,,,
,2022-11-15_11h38.16.108,vts_reward_expectancy_bt,2022.2.4,Win32,60.0348202,Chrome,1383,864,,,,,0,621,,,,,,,,,,,,,,,,,D,174,circle,1,0,,,,,,,,,,,,,,,,switch,letter,lettSwt,d,1.1358,noRew,,,,,,0,6,0,6,0,1,,,,,,,,,,,,,,,,,
,2022-11-15_11h38.16.108,vts_reward_expectancy_bt,2022.2.4,Win32,60.0348202,Chrome,1383,864,,,,,0,621,,,,,,,,,,,,,,,,,H,146,hexagon,1,0,,,,,,,,,,,,,,,,switch,number,numSwt,j,0.6661,noRew,,,,,,0,7,0,7,0,1,,,,,,,,,,,,,,,,,
,2022-11-15_11h38.16.108,vts_reward_expectancy_bt,2022.2.4,Win32,60.0348202,Chrome,1383,864,,,,,0,621,,,,,,,,,,,,,,,,,Y,160,star,1,0,,,,,,,,,,,,,,,,repeat,number,numRpt,k,0.8675,noRew,,,,,,0,8,0,8,0,1,,,,,,,,,,,,,,,,,
,2022-11-15_11h38.16.108,vts_reward_expectancy_bt,2022.2.4,Win32,60.0348202,Chrome,1383,864,,,,,0,621,,,,,,,,,,,,,,,,,F,146,circle,1,0,,,,,,,,,,,,,,,,switch,letter,lettSwt,d,0.8514,noRew,,,,,,0,9,0,9,0,1,,,,,,,,,,,,,,,,,
,2022-11-15_11h38.16.108,vts_reward_expectancy_bt,2022.2.4,Win32,60.0348202,Chrome,1383,864,,,,,0,621,,,,,,,,,,,,,,,,,B,181,star,1,0,,,,,,,,,,,,,,,,repeat,letter,lettRpt,d,1.1352,noRew,,,,,,0,10,0,10,0,1,,,,,,,,,,,,,,,,,
,2022-11-15_11h38.16.108,vts_reward_expectancy_bt,2022.2.4,Win32,60.0348202,Chrome,1383,864,,,,,0,621,,,,,,,,,,,,,,,,,D,125,hexagon,1,0,,,,,,,,,,,,,,,,repeat,letter,lettRpt,d,0.6838,noRew,,,,,,0,11,0,11,0,1,,,,,,,,,,,,,,,,,
,2022-11-15_11h38.16.108,vts_reward_expectancy_bt,2022.2.4,Win32,60.0348202,Chrome,1383,864,,,,,0,621,,,,,,,,,,,,,,,,,W,167,triangle,1,0,,,,,,,,,,,,,,,,switch,number,numSwt,k,1.4346,noRew,,,,,,0,12,0,12,0,1,,,,,,,,,,,,,,,,,
,2022-11-15_11h38.16.108,vts_reward_expectancy_bt,2022.2.4,Win32,60.0348202,Chrome,1383,864,,,,,0,621,,,,,,,,,,,,,,,,,D,181,hexagon,1,0,,,,,,,,,,,,,,,,switch,letter,lettSwt,d,0.6519,noRew,,,,,,0,13,0,13,0,1,,,,,,,,,,,,,,,,,
,2022-11-15_11h38.16.108,vts_reward_expectancy_bt,2022.2.4,Win32,60.0348202,Chrome,1383,864,,,,,0,621,,,,,,,,,,,,,,,,,Y,174,star,1,0,,,,,,,,,,,,,,,,repeat,letter,lettRpt,f,1.0515,noRew,,,,,,0,14,0,14,0,1,,,,,,,,,,,,,,,,,
,2022-11-15_11h38.16.108,vts_reward_expectancy_bt,2022.2.4,Win32,60.0348202,Chrome,1383,864,,,,,0,621,,,,,,,,,,,,,,,,,H,139,triangle,1,0,,,,,,,,,,,,,,,,repeat,letter,lettRpt,d,0.7832,noRew,,,,,,0,15,0,15,0,1,,,,,,,,,,,,,,,,,
,2022-11-15_11h38.16.108,vts_reward_expectancy_bt,2022.2.4,Win32,60.0348202,Chrome,1383,864,,,,,0,621,,,,,,,,,,,,,,,,,W,139,star,1,0,,,,,,,,,,,,,,,,repeat,letter,lettRpt,f,0.8336,noRew,,,,,,0,16,0,16,0,1,,,,,,,,,,,,,,,,,
,2022-11-15_11h38.16.108,vts_reward_expectancy_bt,2022.2.4,Win32,60.0348202,Chrome,1383,864,,,,,0,621,,,,,,,,,,,,,,,,,S,181,circle,1,0,,,,,,,,,,,,,,,,switch,number,numSwt,k,0.9683,noRew,,,,,,0,17,0,17,0,1,,,,,,,,,,,,,,,,,
,2022-11-15_11h38.16.108,vts_reward_expectancy_bt,2022.2.4,Win32,60.0348202,Chrome,1383,864,,,,,0,621,,,,,,,,,,,,,,,,,F,174,star,1,0,,,,,,,,,,,,,,,,repeat,number,numRpt,k,0.8178,noRew,,,,,,0,18,0,18,0,1,,,,,,,,,,,,,,,,,
,2022-11-15_11h38.16.108,vts_reward_expectancy_bt,2022.2.4,Win32,60.0348202,Chrome,1383,864,,,,,0,621,,,,,,,,,,,,,,,,,U,146,triangle,1,0,,,,,,,,,,,,,,,,repeat,number,numRpt,j,0.8173,noRew,,,,,,0,19,0,19,0,1,,,,,,,,,,,,,,,,,
,2022-11-15_11h38.16.108,vts_reward_expectancy_bt,2022.2.4,Win32,60.0348202,Chrome,1383,864,,,,,0,621,,,,,,,,,,,,,,,,,S,181,star,1,0,,,,,,,,,,,,,,,,repeat,number,numRpt,k,0.784,noRew,,,,,,0,20,0,20,0,1,,,,,,,,,,,,,,,,,
,2022-11-15_11h38.16.108,vts_reward_expectancy_bt,2022.2.4,Win32,60.0348202,Chrome,1383,864,,,,,0,621,,,,,,,,,,,,,,,,,D,146,hexagon,1,0,,,,,,,,,,,,,,,,repeat,number,numRpt,j,0.5332,noRew,,,,,,0,21,0,21,0,1,,,,,,,,,,,,,,,,,
,2022-11-15_11h38.16.108,vts_reward_expectancy_bt,2022.2.4,Win32,60.0348202,Chrome,1383,864,,,,,0,621,,,,,,,,,,,,,,,,,W,160,hexagon,1,0,,,,,,,,,,,,,,,,switch,letter,lettSwt,f,0.6672,noRew,,,,,,0,22,0,22,0,1,,,,,,,,,,,,,,,,,
,2022-11-15_11h38.16.108,vts_reward_expectancy_bt,2022.2.4,Win32,60.0348202,Chrome,1383,864,,,,,0,621,,,,,,,,,,,,,,,,,U,139,triangle,1,0,,,,,,,,,,,,,,,,switch,number,numSwt,j,0.8,noRew,,,,,,0,23,0,23,0,1,,,,,,,,,,,,,,,,,
,2022-11-15_11h38.16.108,vts_reward_expectancy_bt,2022.2.4,Win32,60.0348202,Chrome,1383,864,,,,,0,621,,,,,,,,,,,,,,,,,W,160,hexagon,1,0,,,,,,,,,,,,,,,,repeat,number,numRpt,k,0.7002,noRew,,,,,,0,24,0,24,0,1,,,,,,,,,,,,,,,,,
,2022-11-15_11h38.16.108,vts_reward_expectancy_bt,2022.2.4,Win32,60.0348202,Chrome,1383,864,,,,,0,621,,,,,,,,,,,,,,,,,D,167,triangle,1,0,,,,,,,,,,,,,,,,repeat,number,numRpt,k,0.9515,noRew,,,,,,0,25,0,25,0,1,,,,,,,,,,,,,,,,,
,2022-11-15_11h38.16.108,vts_reward_expectancy_bt,2022.2.4,Win32,60.0348202,Chrome,1383,864,,,,,0,621,,,,,,,,,,,,,,,,,U,139,star,1,0,,,,,,,,,,,,,,,,switch,letter,lettSwt,f,0.8999,noRew,,,,,,0,26,0,26,0,1,,,,,,,,,,,,,,,,,
,2022-11-15_11h38.16.108,vts_reward_expectancy_bt,2022.2.4,Win32,60.0348202,Chrome,1383,864,,,,,0,621,,,,,,,,,,,,,,,,,F,174,circle,1,0,,,,,,,,,,,,,,,,repeat,letter,lettRpt,d,1.9685,noRew,,,,,,0,27,0,27,0,1,,,,,,,,,,,,,,,,,
,2022-11-15_11h38.16.108,vts_reward_expectancy_bt,2022.2.4,Win32,60.0348202,Chrome,1383,864,,,,,0,621,,,,,,,,,,,,,,,,,Y,139,star,1,0,,,,,,,,,,,,,,,,switch,number,numSwt,j,1.2835,noRew,,,,,,0,28,0,28,0,1,,,,,,,,,,,,,,,,,
,2022-11-15_11h38.16.108,vts_reward_expectancy_bt,2022.2.4,Win32,60.0348202,Chrome,1383,864,,,,,0,621,,,,,,,,,,,,,,,,,B,125,triangle,1,0,,,,,,,,,,,,,,,,switch,letter,lettSwt,d,0.7662,noRew,,,,,,0,29,0,29,0,1,,,,,,,,,,,,,,,,,
,2022-11-15_11h38.16.108,vts_reward_expectancy_bt,2022.2.4,Win32,60.0348202,Chrome,1383,864,,,,,0,621,,,,,,,,,,,,,,,,,F,132,hexagon,1,0,,,,,,,,,,,,,,,,repeat,letter,lettRpt,d,1.0511,noRew,,,,,,0,30,0,30,0,1,,,,,,,,,,,,,,,,,
,2022-11-15_11h38.16.108,vts_reward_expectancy_bt,2022.2.4,Win32,60.0348202,Chrome,1383,864,,,,,0,621,,,,,,,,,,,,,,,,,U,160,triangle,1,0,,,,,,,,,,,,,,,,repeat,letter,lettRpt,f,1.486,noRew,,,,,,0,31,0,31,0,1,,,,,,,,,,,,,,,,,
,2022-11-15_11h38.16.108,vts_reward_expectancy_bt,2022.2.4,Win32,60.0348202,Chrome,1383,864,,,,,0,621,,,,,,,,,,,,,,,,,D,132,hexagon,1,0,,,,,,,,,,,,,,,,switch,number,numSwt,j,0.6002,noRew,,,,,,0,32,0,32,0,1,,,,,,,,,,,,,,,,,
,2022-11-15_11h38.16.108,vts_reward_expectancy_bt,2022.2.4,Win32,60.0348202,Chrome,1383,864,,,,,0,621,,,,,,,,,,,,,,,,,U,174,triangle,1,0,,,,,,,,,,,,,,,,switch,letter,lettSwt,f,1.4343,noRew,,,,,,0,33,0,33,0,1,,,,,,,,,,,,,,,,,
,2022-11-15_11h38.16.108,vts_reward_expectancy_bt,2022.2.4,Win32,60.0348202,Chrome,1383,864,,,,,0,621,,,,,,,,,,,,,,,,,F,125,circle,1,0,,,,,,,,,,,,,,,,repeat,letter,lettRpt,d,1.9846,noRew,,,,,,0,34,0,34,0,1,,,,,,,,,,,,,,,,,
,2022-11-15_11h38.16.108,vts_reward_expectancy_bt,2022.2.4,Win32,60.0348202,Chrome,1383,864,,,,,0,621,,,,,,,,,,,,,,,,,W,160,triangle,1,0,,,,,,,,,,,,,,,,repeat,letter,lettRpt,f,0.8995,noRew,,,,,,0,35,0,35,0,1,,,,,,,,,,,,,,,,,
,2022-11-15_11h38.16.108,vts_reward_expectancy_bt,2022.2.4,Win32,60.0348202,Chrome,1383,864,,,,,0,621,,,,,,,,,,,,,,,,,Y,160,hexagon,1,0,,,,,,,,,,,,,,,,switch,number,numSwt,k,1.2667,noRew,,,,,,0,36,0,36,0,1,,,,,,,,,,,,,,,,,
,2022-11-15_11h38.16.108,vts_reward_expectancy_bt,2022.2.4,Win32,60.0348202,Chrome,1383,864,,,,,0,621,,,,,,,,,,,,,,,,,F,167,star,1,0,,,,,,,,,,,,,,,,repeat,number,numRpt,k,0.8669,noRew,,,,,,0,37,0,37,0,1,,,,,,,,,,,,,,,,,
,2022-11-15_11h38.16.108,vts_reward_expectancy_bt,2022.2.4,Win32,60.0348202,Chrome,1383,864,,,,,0,621,,,,,,,,,,,,,,,,,D,139,circle,1,0,,,,,,,,,,,,,,,,repeat,number,numRpt,j,0.8827,noRew,,,,,,0,38,0,38,0,1,,,,,,,,,,,,,,,,,
,2022-11-15_11h38.16.108,vts_reward_expectancy_bt,2022.2.4,Win32,60.0348202,Chrome,1383,864,,,,,0,621,,,,,,,,,,,,,,,,,H,132,hexagon,1,0,,,,,,,,,,,,,,,,repeat,number,numRpt,j,0.8336,noRew,,,,,,0,39,0,39,0,1,,,,,,,,,,,,,,,,,
,2022-11-15_11h38.16.108,vts_reward_expectancy_bt,2022.2.4,Win32,60.0348202,Chrome,1383,864,,,,,0,621,,,,,,,,,,,,,,,,,U,146,triangle,1,0,,,,,,,,,,,,,,,,switch,letter,lettSwt,f,0.8993,noRew,,,,,,0,40,0,40,0,1,,,,,,,,,,,,,,,,,
,2022-11-15_11h38.16.108,vts_reward_expectancy_bt,2022.2.4,Win32,60.0348202,Chrome,1383,864,,,,,0,621,,,,,,,,,,,,,,,,,Y,160,circle,1,0,,,,,,,,,,,,,,,,repeat,letter,lettRpt,f,0.7004,noRew,,,,,,0,41,0,41,0,1,,,,,,,,,,,,,,,,,
,2022-11-15_11h38.16.108,vts_reward_expectancy_bt,2022.2.4,Win32,60.0348202,Chrome,1383,864,,,,,0,621,,,,,,,,,,,,,,,,,D,174,hexagon,1,0,,,,,,,,,,,,,,,,repeat,letter,lettRpt,d,0.6991,noRew,,,,,,0,42,0,42,0,1,,,,,,,,,,,,,,,,,
,2022-11-15_11h38.16.108,vts_reward_expectancy_bt,2022.2.4,Win32,60.0348202,Chrome,1383,864,,,,,0,621,,,,,,,,,,,,,,,,,H,181,circle,1,0,,,,,,,,,,,,,,,,switch,number,numSwt,k,0.7175,noRew,,,,,,0,43,0,43,0,1,,,,,,,,,,,,,,,,,
,2022-11-15_11h38.16.108,vts_reward_expectancy_bt,2022.2.4,Win32,60.0348202,Chrome,1383,864,,,,,0,621,,,,,,,,,,,,,,,,,H,181,triangle,1,0,,,,,,,,,,,,,,,,switch,letter,lettSwt,d,0.9339,noRew,,,,,,0,44,0,44,0,1,,,,,,,,,,,,,,,,,
,2022-11-15_11h38.16.108,vts_reward_expectancy_bt,2022.2.4,Win32,60.0348202,Chrome,1383,864,,,,,0,621,,,,,,,,,,,,,,,,,B,167,circle,1,0,,,,,,,,,,,,,,,,repeat,letter,lettRpt,d,0.8488,noRew,,,,,,0,45,0,45,0,1,,,,,,,,,,,,,,,,,
,2022-11-15_11h38.16.108,vts_reward_expectancy_bt,2022.2.4,Win32,60.0348202,Chrome,1383,864,,,,,0,621,,,,,,,,,,,,,,,,,Y,146,circle,1,0,,,,,,,,,,,,,,,,switch,number,numSwt,j,0.9184,noRew,,,,,,0,46,0,46,0,1,,,,,,,,,,,,,,,,,
,2022-11-15_11h38.16.108,vts_reward_expectancy_bt,2022.2.4,Win32,60.0348202,Chrome,1383,864,,,,,0,621,,,,,,,,,,,,,,,,,D,132,triangle,1,0,,,,,,,,,,,,,,,,switch,letter,lettSwt,d,0.8342,noRew,,,,,,0,47,0,47,0,1,,,,,,,,,,,,,,,,,
,2022-11-15_11h38.16.108,vts_reward_expectancy_bt,2022.2.4,Win32,60.0348202,Chrome,1383,864,,,,,0,621,,,,,,,,,,,,,,,,,S,125,hexagon,1,0,,,,,,,,,,,,,,,,repeat,letter,lettRpt,f,1.5507,noRew,,,,,,0,48,0,48,0,1,,,,,,,,,,,,,,,,,
,2022-11-15_11h38.16.108,vts_reward_expectancy_bt,2022.2.4,Win32,60.0348202,Chrome,1383,864,,,,,0,621,,,,,,,,,,,,,,,,,U,139,triangle,1,0,,,,,,,,,,,,,,,,switch,number,numSwt,j,1.5004,noRew,,,,,,0,49,0,49,0,1,,,,,,,,,,,,,,,,,
,2022-11-15_11h38.16.108,vts_reward_expectancy_bt,2022.2.4,Win32,60.0348202,Chrome,1383,864,,,,,0,621,,,,,,,,,,,,,,,,,B,146,circle,1,0,,,,,,,,,,,,,,,,repeat,number,numRpt,j,0.8331,noRew,,,,,,0,50,0,50,0,1,,,,,,,,,,,,,,,,,
,2022-11-15_11h38.16.108,vts_reward_expectancy_bt,2022.2.4,Win32,60.0348202,Chrome,1383,864,,,,,0,621,,,,,,,,,,,,,,,,,D,174,triangle,1,0,,,,,,,,,,,,,,,,switch,letter,lettSwt,d,0.6169,noRew,,,,,,0,51,0,51,0,1,,,,,,,,,,,,,,,,,
,2022-11-15_11h38.16.108,vts_reward_expectancy_bt,2022.2.4,Win32,60.0348202,Chrome,1383,864,,,,,0,621,,,,,,,,,,,,,,,,,W,125,hexagon,1,0,,,,,,,,,,,,,,,,repeat,letter,lettRpt,f,0.8334,noRew,,,,,,0,52,0,52,0,1,,,,,,,,,,,,,,,,,
,2022-11-15_11h38.16.108,vts_reward_expectancy_bt,2022.2.4,Win32,60.0348202,Chrome,1383,864,,,,,0,621,,,,,,,,,,,,,,,,,Y,167,star,1,0,,,,,,,,,,,,,,,,switch,number,numSwt,k,0.7671,noRew,,,,,,0,53,0,53,0,1,,,,,,,,,,,,,,,,,
,2022-11-15_11h38.16.108,vts_reward_expectancy_bt,2022.2.4,Win32,60.0348202,Chrome,1383,864,,,,,0,621,,,,,,,,,,,,,,,,,F,132,triangle,1,0,,,,,,,,,,,,,,,,repeat,number,numRpt,j,0.6696,noRew,,,,,,0,54,0,54,0,1,,,,,,,,,,,,,,,,,
,2022-11-15_11h38.16.108,vts_reward_expectancy_bt,2022.2.4,Win32,60.0348202,Chrome,1383,864,,,,,0,621,,,,,,,,,,,,,,,,,D,160,hexagon,1,0,,,,,,,,,,,,,,,,repeat,number,numRpt,k,0.8157,noRew,,,,,,0,55,0,55,0,1,,,,,,,,,,,,,,,,,
,2022-11-15_11h38.16.108,vts_reward_expectancy_bt,2022.2.4,Win32,60.0348202,Chrome,1383,864,,,,,0,621,,,,,,,,,,,,,,,,,B,125,star,1,0,,,,,,,,,,,,,,,,switch,letter,lettSwt,d,0.702,noRew,,,,,,0,56,0,56,0,1,,,,,,,,,,,,,,,,,
,2022-11-15_11h38.16.108,vts_reward_expectancy_bt,2022.2.4,Win32,60.0348202,Chrome,1383,864,,,,,0,621,,,,,,,,,,,,,,,,,U,167,circle,1,0,,,,,,,,,,,,,,,,switch,number,numSwt,k,2.1338,noRew,,,,,,0,57,0,57,0,1,,,,,,,,,,,,,,,,,
,2022-11-15_11h38.16.108,vts_reward_expectancy_bt,2022.2.4,Win32,60.0348202,Chrome,1383,864,,,,,0,621,,,,,,,,,,,,,,,,,D,139,hexagon,1,0,,,,,,,,,,,,,,,,switch,letter,lettSwt,d,1.5177,noRew,,,,,,0,58,0,58,0,1,,,,,,,,,,,,,,,,,
,2022-11-15_11h38.16.108,vts_reward_expectancy_bt,2022.2.4,Win32,60.0348202,Chrome,1383,864,,,,,0,621,,,,,,,,,,,,,,,,,H,174,circle,1,0,,,,,,,,,,,,,,,,switch,number,numSwt,k,1.1504,noRew,,,,,,0,59,0,59,0,1,,,,,,,,,,,,,,,,,
,2022-11-15_11h38.16.108,vts_reward_expectancy_bt,2022.2.4,Win32,60.0348202,Chrome,1383,864,,,,,0,621,,,,,,,,,,,,,,,,,B,167,hexagon,1,0,,,,,,,,,,,,,,,,switch,letter,lettSwt,d,0.6663,noRew,,,,,,0,60,0,60,0,1,,,,,,,,,,,,,,,,,
,2022-11-15_11h38.16.108,vts_reward_expectancy_bt,2022.2.4,Win32,60.0348202,Chrome,1383,864,,,,,0,621,,,,,,,,,,,,,,,,,H,125,star,1,0,,,,,,,,,,,,,,,,repeat,letter,lettRpt,d,0.7166,noRew,,,,,,0,61,0,61,0,1,,,,,,,,,,,,,,,,,
,2022-11-15_11h38.16.108,vts_reward_expectancy_bt,2022.2.4,Win32,60.0348202,Chrome,1383,864,,,,,0,621,,,,,,,,,,,,,,,,,U,160,star,1,0,,,,,,,,,,,,,,,,repeat,letter,lettRpt,f,0.6497,noRew,,,,,,0,62,0,62,0,1,,,,,,,,,,,,,,,,,
,2022-11-15_11h38.16.108,vts_reward_expectancy_bt,2022.2.4,Win32,60.0348202,Chrome,1383,864,,,,,0,621,,,,,,,,,,,,,,,,,W,132,hexagon,1,0,,,,,,,,,,,,,,,,switch,number,numSwt,j,1.201,noRew,,,,,,0,63,0,63,0,1,,,,,,,,,,,,,,,,,
,2022-11-15_11h38.16.108,vts_reward_expectancy_bt,2022.2.4,Win32,60.0348202,Chrome,1383,864,,,,,,,,,,,,,,,,,,,,,,,,,,,,,,,,,,,,,,,,,,,,,,,,,,,,,,,,,,,,,,,,,,,,,,,,,,,,
,2022-11-15_11h38.16.108,vts_reward_expectancy_bt,2022.2.4,Win32,60.0348202,Chrome,1383,864,,,,,0,621,,,,,,,,,,,,,,,,,Y,181,circle,1,0,,,,,,,,,,,,,,,,switch,letter,lettSwt,f,1.3333,Hi,,,,,,0,,,,,,space,9.9355,low,0,0,0,0,1,,,,,,,,,
,2022-11-15_11h38.16.108,vts_reward_expectancy_bt,2022.2.4,Win32,60.0348202,Chrome,1383,864,,,,,1,622,,,,,,,,,,,,,,,,,H,167,triangle,1,0,,,,,,,,,,,,,,,,repeat,letter,lettRpt,d,0.583,Lo,,,,,,0,,,,,,,,low,1,0,1,0,1,,,,,,,,,
,2022-11-15_11h38.16.108,vts_reward_expectancy_bt,2022.2.4,Win32,60.0348202,Chrome,1383,864,,,,,10,632,,,,,,,,,,,,,,,,,S,139,star,1,0,,,,,,,,,,,,,,,,switch,number,numSwt,j,0.4657,Hi,,,,,,0,,,,,,,,low,2,0,2,0,1,,,,,,,,,
,2022-11-15_11h38.16.108,vts_reward_expectancy_bt,2022.2.4,Win32,60.0348202,Chrome,1383,864,,,,,10,642,,,,,,,,,,,,,,,,,U,160,hexagon,1,0,,,,,,,,,,,,,,,,repeat,number,numRpt,k,0.5322,Lo,,,,,,0,,,,,,,,low,3,0,3,0,1,,,,,,,,,
,2022-11-15_11h38.16.108,vts_reward_expectancy_bt,2022.2.4,Win32,60.0348202,Chrome,1383,864,,,,,10,652,,,,,,,,,,,,,,,,,B,125,circle,1,0,,,,,,,,,,,,,,,,switch,letter,lettSwt,d,0.4171,Hi,,,,,,0,,,,,,,,low,4,0,4,0,1,,,,,,,,,
,2022-11-15_11h38.16.108,vts_reward_expectancy_bt,2022.2.4,Win32,60.0348202,Chrome,1383,864,,,,,10,662,,,,,,,,,,,,,,,,,W,132,triangle,1,0,,,,,,,,,,,,,,,,switch,number,numSwt,j,0.4504,Lo,,,,,,0,,,,,,,,low,5,0,5,0,1,,,,,,,,,
,2022-11-15_11h38.16.108,vts_reward_expectancy_bt,2022.2.4,Win32,60.0348202,Chrome,1383,864,,,,,10,672,,,,,,,,,,,,,,,,,F,174,star,1,0,,,,,,,,,,,,,,,,switch,letter,lettSwt,d,0.599,Hi,,,,,,0,,,,,,,,low,6,0,6,0,1,,,,,,,,,
,2022-11-15_11h38.16.108,vts_reward_expectancy_bt,2022.2.4,Win32,60.0348202,Chrome,1383,864,,,,,1,673,,,,,,,,,,,,,,,,,D,146,hexagon,1,0,,,,,,,,,,,,,,,,switch,number,numSwt,j,0.5838,Lo,,,,,,0,,,,,,,,low,7,0,7,0,1,,,,,,,,,
,2022-11-15_11h38.16.108,vts_reward_expectancy_bt,2022.2.4,Win32,60.0348202,Chrome,1383,864,,,,,1,674,,,,,,,,,,,,,,,,,Y,181,hexagon,1,0,,,,,,,,,,,,,,,,switch,letter,lettSwt,f,0.5001,Lo,,,,,,0,,,,,,,,low,8,0,8,0,1,,,,,,,,,
,2022-11-15_11h38.16.108,vts_reward_expectancy_bt,2022.2.4,Win32,60.0348202,Chrome,1383,864,,,,,1,675,,,,,,,,,,,,,,,,,H,167,circle,1,0,,,,,,,,,,,,,,,,switch,number,numSwt,k,0.5682,Hi,,,,,,0,,,,,,,,low,9,0,9,0,1,,,,,,,,,
,2022-11-15_11h38.16.108,vts_reward_expectancy_bt,2022.2.4,Win32,60.0348202,Chrome,1383,864,,,,,1,676,,,,,,,,,,,,,,,,,S,139,triangle,1,0,,,,,,,,,,,,,,,,repeat,number,numRpt,j,0.3833,Lo,,,,,,0,,,,,,,,low,10,0,10,0,1,,,,,,,,,
,2022-11-15_11h38.16.108,vts_reward_expectancy_bt,2022.2.4,Win32,60.0348202,Chrome,1383,864,,,,,10,686,,,,,,,,,,,,,,,,,U,160,star,1,0,,,,,,,,,,,,,,,,repeat,number,numRpt,k,0.415,Hi,,,,,,0,,,,,,,,low,11,0,11,0,1,,,,,,,,,
,2022-11-15_11h38.16.108,vts_reward_expectancy_bt,2022.2.4,Win32,60.0348202,Chrome,1383,864,,,,,10,696,,,,,,,,,,,,,,,,,B,125,circle,1,0,,,,,,,,,,,,,,,,switch,letter,lettSwt,d,0.4511,Hi,,,,,,0,,,,,,,,low,12,0,12,0,1,,,,,,,,,
,2022-11-15_11h38.16.108,vts_reward_expectancy_bt,2022.2.4,Win32,60.0348202,Chrome,1383,864,,,,,1,697,,,,,,,,,,,,,,,,,W,132,triangle,1,0,,,,,,,,,,,,,,,,repeat,letter,lettRpt,f,0.5818,Lo,,,,,,0,,,,,,,,low,13,0,13,0,1,,,,,,,,,
,2022-11-15_11h38.16.108,vts_reward_expectancy_bt,2022.2.4,Win32,60.0348202,Chrome,1383,864,,,,,1,698,,,,,,,,,,,,,,,,,F,174,hexagon,1,0,,,,,,,,,,,,,,,,repeat,letter,lettRpt,d,0.5668,Lo,,,,,,0,,,,,,,,low,14,0,14,0,1,,,,,,,,,
,2022-11-15_11h38.16.108,vts_reward_expectancy_bt,2022.2.4,Win32,60.0348202,Chrome,1383,864,,,,,1,699,,,,,,,,,,,,,,,,,D,146,star,1,0,,,,,,,,,,,,,,,,switch,number,numSwt,j,0.5165,Hi,,,,,,0,,,,,,,,low,15,0,15,0,1,,,,,,,,,
,2022-11-15_11h38.16.108,vts_reward_expectancy_bt,2022.2.4,Win32,60.0348202,Chrome,1383,864,,,,,1,700,,,,,,,,,,,,,,,,,H,181,star,1,0,,,,,,,,,,,,,,,,repeat,number,numRpt,k,0.5325,Hi,,,,,,0,,,,,,,,low,16,0,16,0,1,,,,,,,,,
,2022-11-15_11h38.16.108,vts_reward_expectancy_bt,2022.2.4,Win32,60.0348202,Chrome,1383,864,,,,,1,701,,,,,,,,,,,,,,,,,S,160,hexagon,1,0,,,,,,,,,,,,,,,,switch,letter,lettSwt,f,0.5341,Lo,,,,,,0,,,,,,,,low,17,0,17,0,1,,,,,,,,,
,2022-11-15_11h38.16.108,vts_reward_expectancy_bt,2022.2.4,Win32,60.0348202,Chrome,1383,864,,,,,10,711,,,,,,,,,,,,,,,,,B,125,circle,1,0,,,,,,,,,,,,,,,,repeat,letter,lettRpt,d,0.4861,Hi,,,,,,0,,,,,,,,low,18,0,18,0,1,,,,,,,,,
,2022-11-15_11h38.16.108,vts_reward_expectancy_bt,2022.2.4,Win32,60.0348202,Chrome,1383,864,,,,,10,721,,,,,,,,,,,,,,,,,D,139,triangle,1,0,,,,,,,,,,,,,,,,switch,number,numSwt,j,0.7683,Lo,,,,,,0,,,,,,,,low,19,0,19,0,1,,,,,,,,,
,2022-11-15_11h38.16.108,vts_reward_expectancy_bt,2022.2.4,Win32,60.0348202,Chrome,1383,864,,,,,10,731,,,,,,,,,,,,,,,,,F,174,hexagon,1,0,,,,,,,,,,,,,,,,repeat,number,numRpt,k,0.5337,Lo,,,,,,0,,,,,,,,low,20,0,20,0,1,,,,,,,,,
,2022-11-15_11h38.16.108,vts_reward_expectancy_bt,2022.2.4,Win32,60.0348202,Chrome,1383,864,,,,,1,732,,,,,,,,,,,,,,,,,U,132,triangle,1,0,,,,,,,,,,,,,,,,switch,letter,lettSwt,f,0.9171,Lo,,,,,,0,,,,,,,,low,21,0,21,0,1,,,,,,,,,
,2022-11-15_11h38.16.108,vts_reward_expectancy_bt,2022.2.4,Win32,60.0348202,Chrome,1383,864,,,,,1,733,,,,,,,,,,,,,,,,,Y,167,circle,1,0,,,,,,,,,,,,,,,,repeat,letter,lettRpt,f,0.7302,Hi,,,,,,0,,,,,,,,low,22,0,22,0,1,,,,,,,,,
,2022-11-15_11h38.16.108,vts_reward_expectancy_bt,2022.2.4,Win32,60.0348202,Chrome,1383,864,,,,,10,743,,,,,,,,,,,,,,,,,W,146,star,1,0,,,,,,,,,,,,,,,,switch,number,numSwt,j,0.7177,Hi,,,,,,0,,,,,,,,low,23,0,23,0,1,,,,,,,,,
,2022-11-15_11h38.16.108,vts_reward_expectancy_bt,2022.2.4,Win32,60.0348202,Chrome,1383,864,,,,,1,744,,,,,,,,,,,,,,,,,B,132,star,1,0,,,,,,,,,,,,,,,,repeat,number,numRpt,j,0.7341,Hi,,,,,,0,,,,,,,,low,24,0,24,0,1,,,,,,,,,
,2022-11-15_11h38.16.108,vts_reward_expectancy_bt,2022.2.4,Win32,60.0348202,Chrome,1383,864,,,,,1,745,,,,,,,,,,,,,,,,,U,146,triangle,1,0,,,,,,,,,,,,,,,,switch,letter,lettSwt,f,0.8992,Lo,,,,,,0,,,,,,,,low,25,0,25,0,1,,,,,,,,,
,2022-11-15_11h38.16.108,vts_reward_expectancy_bt,2022.2.4,Win32,60.0348202,Chrome,1383,864,,,,,0,745,,,,,,,,,,,,,,,,,H,174,hexagon,0,0,,,,,,,,,,,,,,,,repeat,letter,NA,f,1.2179,Lo,,,,,,0,,,,,,,,low,26,0,26,0,1,,,,,,,,,
,2022-11-15_11h38.16.108,vts_reward_expectancy_bt,2022.2.4,Win32,60.0348202,Chrome,1383,864,,,,,10,755,,,,,,,,,,,,,,,,,W,139,circle,1,1,,,,,,,,,,,,,,,,switch,number,numSwt,j,0.6693,Hi,,,,,,0,,,,,,,,low,27,0,27,0,1,,,,,,,,,
,2022-11-15_11h38.16.108,vts_reward_expectancy_bt,2022.2.4,Win32,60.0348202,Chrome,1383,864,,,,,1,756,,,,,,,,,,,,,,,,,D,125,triangle,1,0,,,,,,,,,,,,,,,,switch,letter,lettSwt,d,0.6013,Lo,,,,,,0,,,,,,,,low,28,0,28,0,1,,,,,,,,,
,2022-11-15_11h38.16.108,vts_reward_expectancy_bt,2022.2.4,Win32,60.0348202,Chrome,1383,864,,,,,1,757,,,,,,,,,,,,,,,,,F,160,hexagon,1,0,,,,,,,,,,,,,,,,switch,number,numSwt,k,0.8335,Lo,,,,,,0,,,,,,,,low,29,0,29,0,1,,,,,,,,,
,2022-11-15_11h38.16.108,vts_reward_expectancy_bt,2022.2.4,Win32,60.0348202,Chrome,1383,864,,,,,10,767,,,,,,,,,,,,,,,,,Y,181,circle,1,0,,,,,,,,,,,,,,,,repeat,number,numRpt,k,0.7003,Hi,,,,,,0,,,,,,,,low,30,0,30,0,1,,,,,,,,,
,2022-11-15_11h38.16.108,vts_reward_expectancy_bt,2022.2.4,Win32,60.0348202,Chrome,1383,864,,,,,10,777,,,,,,,,,,,,,,,,,S,167,star,1,0,,,,,,,,,,,,,,,,switch,letter,lettSwt,f,0.5989,Hi,,,,,,0,,,,,,,,low,31,0,31,0,1,,,,,,,,,
,2022-11-15_11h38.16.108,vts_reward_expectancy_bt,2022.2.4,Win32,60.0348202,Chrome,1383,864,,,,,1,778,,,,,,,,,,,,,,,,,D,139,hexagon,1,0,,,,,,,,,,,,,,,,repeat,letter,lettRpt,d,0.9851,Lo,,,,,,1,,,,,,space,2.6819,low,0,0,0,0,1,,,,,,,,,
,2022-11-15_11h38.16.108,vts_reward_expectancy_bt,2022.2.4,Win32,60.0348202,Chrome,1383,864,,,,,1,779,,,,,,,,,,,,,,,,,W,132,triangle,1,0,,,,,,,,,,,,,,,,switch,number,numSwt,j,0.618,Lo,,,,,,1,,,,,,,,low,1,0,1,0,1,,,,,,,,,
,2022-11-15_11h38.16.108,vts_reward_expectancy_bt,2022.2.4,Win32,60.0348202,Chrome,1383,864,,,,,0,779,,,,,,,,,,,,,,,,,Y,160,star,1,0,,,,,,,,,,,,,,,,repeat,number,numRpt,k,0.6817,Hi,,,,,,1,,,,,,,,low,2,0,2,0,1,,,,,,,,,
,2022-11-15_11h38.16.108,vts_reward_expectancy_bt,2022.2.4,Win32,60.0348202,Chrome,1383,864,,,,,0,779,,,,,,,,,,,,,,,,,S,181,circle,1,0,,,,,,,,,,,,,,,,repeat,number,numRpt,k,0.6005,Hi,,,,,,1,,,,,,,,low,3,0,3,0,1,,,,,,,,,
,2022-11-15_11h38.16.108,vts_reward_expectancy_bt,2022.2.4,Win32,60.0348202,Chrome,1383,864,,,,,10,789,,,,,,,,,,,,,,,,,H,125,hexagon,1,0,,,,,,,,,,,,,,,,switch,letter,lettSwt,d,0.3834,Lo,,,,,,1,,,,,,,,low,4,0,4,0,1,,,,,,,,,
,2022-11-15_11h38.16.108,vts_reward_expectancy_bt,2022.2.4,Win32,60.0348202,Chrome,1383,864,,,,,10,799,,,,,,,,,,,,,,,,,U,174,triangle,1,0,,,,,,,,,,,,,,,,repeat,letter,lettRpt,f,0.6678,Lo,,,,,,1,,,,,,,,low,5,0,5,0,1,,,,,,,,,
,2022-11-15_11h38.16.108,vts_reward_expectancy_bt,2022.2.4,Win32,60.0348202,Chrome,1383,864,,,,,10,809,,,,,,,,,,,,,,,,,F,167,star,1,0,,,,,,,,,,,,,,,,switch,number,numSwt,k,0.5178,Hi,,,,,,1,,,,,,,,low,6,0,6,0,1,,,,,,,,,
,2022-11-15_11h38.16.108,vts_reward_expectancy_bt,2022.2.4,Win32,60.0348202,Chrome,1383,864,,,,,0,809,,,,,,,,,,,,,,,,,B,146,circle,1,0,,,,,,,,,,,,,,,,repeat,number,numRpt,j,0.5676,Hi,,,,,,1,,,,,,,,low,7,0,7,0,1,,,,,,,,,
,2022-11-15_11h38.16.108,vts_reward_expectancy_bt,2022.2.4,Win32,60.0348202,Chrome,1383,864,,,,,0,809,,,,,,,,,,,,,,,,,D,139,hexagon,0,0,,,,,,,,,,,,,,,,switch,letter,NA,f,0.4505,Hi,,,,,,1,,,,,,,,low,8,0,8,0,1,,,,,,,,,
,2022-11-15_11h38.16.108,vts_reward_expectancy_bt,2022.2.4,Win32,60.0348202,Chrome,1383,864,,,,,1,810,,,,,,,,,,,,,,,,,W,132,star,1,1,,,,,,,,,,,,,,,,switch,number,numSwt,j,0.3178,Hi,,,,,,1,,,,,,,,low,9,0,9,0,1,,,,,,,,,
,2022-11-15_11h38.16.108,vts_reward_expectancy_bt,2022.2.4,Win32,60.0348202,Chrome,1383,864,,,,,0,810,,,,,,,,,,,,,,,,,Y,160,circle,1,0,,,,,,,,,,,,,,,,switch,letter,lettSwt,f,0.5855,Hi,,,,,,1,,,,,,,,low,10,0,10,0,1,,,,,,,,,
,2022-11-15_11h38.16.108,vts_reward_expectancy_bt,2022.2.4,Win32,60.0348202,Chrome,1383,864,,,,,10,820,,,,,,,,,,,,,,,,,S,181,triangle,1,0,,,,,,,,,,,,,,,,repeat,letter,lettRpt,f,0.5675,Lo,,,,,,1,,,,,,,,low,11,0,11,0,1,,,,,,,,,
,2022-11-15_11h38.16.108,vts_reward_expectancy_bt,2022.2.4,Win32,60.0348202,Chrome,1383,864,,,,,10,830,,,,,,,,,,,,,,,,,H,125,circle,1,0,,,,,,,,,,,,,,,,repeat,letter,lettRpt,d,0.4336,Hi,,,,,,1,,,,,,,,low,12,0,12,0,1,,,,,,,,,
,2022-11-15_11h38.16.108,vts_reward_expectancy_bt,2022.2.4,Win32,60.0348202,Chrome,1383,864,,,,,1,831,,,,,,,,,,,,,,,,,U,174,hexagon,1,0,,,,,,,,,,,,,,,,switch,number,numSwt,k,0.4162,Lo,,,,,,1,,,,,,,,low,13,0,13,0,1,,,,,,,,,
,2022-11-15_11h38.16.108,vts_reward_expectancy_bt,2022.2.4,Win32,60.0348202,Chrome,1383,864,,,,,1,832,,,,,,,,,,,,,,,,,F,167,star,1,0,,,,,,,,,,,,,,,,repeat,number,numRpt,k,0.5016,Hi,,,,,,1,,,,,,,,low,14,0,14,0,1,,,,,,,,,
,2022-11-15_11h38.16.108,vts_reward_expectancy_bt,2022.2.4,Win32,60.0348202,Chrome,1383,864,,,,,1,833,,,,,,,,,,,,,,,,,B,146,triangle,1,0,,,,,,,,,,,,,,,,switch,letter,lettSwt,d,0.4498,Lo,,,,,,1,,,,,,,,low,15,0,15,0,1,,,,,,,,,
,2022-11-15_11h38.16.108,vts_reward_expectancy_bt,2022.2.4,Win32,60.0348202,Chrome,1383,864,,,,,0,833,,,,,,,,,,,,,,,,,H,174,star,1,0,,,,,,,,,,,,,,,,switch,number,numSwt,k,0.616,Hi,,,,,,1,,,,,,,,low,16,0,16,0,1,,,,,,,,,
,2022-11-15_11h38.16.108,vts_reward_expectancy_bt,2022.2.4,Win32,60.0348202,Chrome,1383,864,,,,,1,834,,,,,,,,,,,,,,,,,U,132,hexagon,1,0,,,,,,,,,,,,,,,,repeat,number,numRpt,j,0.5847,Lo,,,,,,1,,,,,,,,low,17,0,17,0,1,,,,,,,,,
,2022-11-15_11h38.16.108,vts_reward_expectancy_bt,2022.2.4,Win32,60.0348202,Chrome,1383,864,,,,,1,835,,,,,,,,,,,,,,,,,D,167,triangle,1,0,,,,,,,,,,,,,,,,repeat,number,numRpt,k,0.567,Lo,,,,,,1,,,,,,,,low,18,0,18,0,1,,,,,,,,,
,2022-11-15_11h38.16.108,vts_reward_expectancy_bt,2022.2.4,Win32,60.0348202,Chrome,1383,864,,,,,0,835,,,,,,,,,,,,,,,,,F,146,circle,0,0,,,,,,,,,,,,,,,,switch,letter,NA,f,0.6841,Lo,,,,,,1,,,,,,,,low,19,0,19,0,1,,,,,,,,,
,2022-11-15_11h38.16.108,vts_reward_expectancy_bt,2022.2.4,Win32,60.0348202,Chrome,1383,864,,,,,0,835,,,,,,,,,,,,,,,,,Y,160,hexagon,0,1,,,,,,,,,,,,,,,,repeat,letter,NA,d,0.3847,Lo,,,,,,1,,,,,,,,low,20,0,20,0,1,,,,,,,,,
,2022-11-15_11h38.16.108,vts_reward_expectancy_bt,2022.2.4,Win32,60.0348202,Chrome,1383,864,,,,,0,835,,,,,,,,,,,,,,,,,B,139,star,0,1,,,,,,,,,,,,,,,,repeat,letter,NA,f,0.0005,Lo,,,,,,1,,,,,,,,low,21,0,21,0,1,,,,,,,,,
,2022-11-15_11h38.16.108,vts_reward_expectancy_bt,2022.2.4,Win32,60.0348202,Chrome,1383,864,,,,,0,835,,,,,,,,,,,,,,,,,W,125,circle,0,1,,,,,,,,,,,,,,,,repeat,letter,NA,d,0.0335,Lo,,,,,,1,,,,,,,,low,22,0,22,0,1,,,,,,,,,
,2022-11-15_11h38.16.108,vts_reward_expectancy_bt,2022.2.4,Win32,60.0348202,Chrome,1383,864,,,,,0,835,,,,,,,,,,,,,,,,,S,181,triangle,0,1,,,,,,,,,,,,,,,,switch,number,NA,j,0.0006,Lo,,,,,,1,,,,,,,,low,23,0,23,0,1,,,,,,,,,
,2022-11-15_11h38.16.108,vts_reward_expectancy_bt,2022.2.4,Win32,60.0348202,Chrome,1383,864,,,,,0,835,,,,,,,,,,,,,,,,,W,167,star,0,1,,,,,,,,,,,,,,,,repeat,number,NA,j,0.0504,Lo,,,,,,1,,,,,,,,low,24,0,24,0,1,,,,,,,,,
,2022-11-15_11h38.16.108,vts_reward_expectancy_bt,2022.2.4,Win32,60.0348202,Chrome,1383,864,,,,,1,836,,,,,,,,,,,,,,,,,H,146,circle,1,1,,,,,,,,,,,,,,,,repeat,number,numRpt,j,0.0165,Hi,,,,,,1,,,,,,,,low,25,0,25,0,1,,,,,,,,,
,2022-11-15_11h38.16.108,vts_reward_expectancy_bt,2022.2.4,Win32,60.0348202,Chrome,1383,864,,,,,0,836,,,,,,,,,,,,,,,,,Y,174,triangle,0,0,,,,,,,,,,,,,,,,repeat,number,NA,j,0.0005,Hi,,,,,,1,,,,,,,,low,26,0,26,0,1,,,,,,,,,
,2022-11-15_11h38.16.108,vts_reward_expectancy_bt,2022.2.4,Win32,60.0348202,Chrome,1383,864,,,,,10,846,,,,,,,,,,,,,,,,,B,132,hexagon,1,1,,,,,,,,,,,,,,,,repeat,number,numRpt,j,0.0676,Lo,,,,,,1,,,,,,,,low,27,0,27,0,1,,,,,,,,,
,2022-11-15_11h38.16.108,vts_reward_expectancy_bt,2022.2.4,Win32,60.0348202,Chrome,1383,864,,,,,0,846,,,,,,,,,,,,,,,,,U,160,circle,0,0,,,,,,,,,,,,,,,,repeat,number,NA,j,0.2166,Lo,,,,,,1,,,,,,,,low,28,0,28,0,1,,,,,,,,,
,2022-11-15_11h38.16.108,vts_reward_expectancy_bt,2022.2.4,Win32,60.0348202,Chrome,1383,864,,,,,0,846,,,,,,,,,,,,,,,,,D,139,triangle,0,1,,,,,,,,,,,,,,,,switch,letter,NA,f,0.1331,Lo,,,,,,1,,,,,,,,low,29,0,29,0,1,,,,,,,,,
,2022-11-15_11h38.16.108,vts_reward_expectancy_bt,2022.2.4,Win32,60.0348202,Chrome,1383,864,,,,,0,846,,,,,,,,,,,,,,,,,F,181,hexagon,0,1,,,,,,,,,,,,,,,,repeat,letter,NA,f,0.2171,Lo,,,,,,1,,,,,,,,low,30,0,30,0,1,,,,,,,,,
,2022-11-15_11h38.16.108,vts_reward_expectancy_bt,2022.2.4,Win32,60.0348202,Chrome,1383,864,,,,,1,847,,,,,,,,,,,,,,,,,S,125,star,1,1,,,,,,,,,,,,,,,,repeat,letter,lettRpt,f,0.433,Hi,,,,,,1,,,,,,,,low,31,0,31,0,1,,,,,,,,,
,2022-11-15_11h38.16.108,vts_reward_expectancy_bt,2022.2.4,Win32,60.0348202,Chrome,1383,864,,,,,1,848,,,,,,,,,,,,,,,,,Y,139,hexagon,1,0,,,,,,,,,,,,,,,,repeat,letter,lettRpt,f,0.1007,Lo,,,,,,2,,,,,,space,1.3973,low,0,0,0,0,1,,,,,,,,,
,2022-11-15_11h38.16.108,vts_reward_expectancy_bt,2022.2.4,Win32,60.0348202,Chrome,1383,864,,,,,0,848,,,,,,,,,,,,,,,,,D,160,triangle,0,0,,,,,,,,,,,,,,,,repeat,letter,NA,f,1.3007,Lo,,,,,,2,,,,,,,,low,1,0,1,0,1,,,,,,,,,
,2022-11-15_11h38.16.108,vts_reward_expectancy_bt,2022.2.4,Win32,60.0348202,Chrome,1383,864,,,,,0,848,,,,,,,,,,,,,,,,,W,146,circle,-1,1,,,,,,,,,,,,,,,,switch,no_choice,NA,,,Lo,,,,,,2,,,,,,,,low,2,0,2,0,1,,,,,,,,,
,2022-11-15_11h38.16.108,vts_reward_expectancy_bt,2022.2.4,Win32,60.0348202,Chrome,1383,864,,,,,0,848,,,,,,,,,,,,,,,,,H,174,star,0,0,,,,,,,,,,,,,,,,switch,letter,NA,f,0.184,Lo,,,,,,2,,,,,,,,low,3,0,3,0,1,,,,,,,,,
,2022-11-15_11h38.16.108,vts_reward_expectancy_bt,2022.2.4,Win32,60.0348202,Chrome,1383,864,,,,,0,848,,,,,,,,,,,,,,,,,B,167,hexagon,0,1,,,,,,,,,,,,,,,,repeat,letter,NA,f,0.0004,Lo,,,,,,2,,,,,,,,low,4,0,4,0,1,,,,,,,,,
,2022-11-15_11h38.16.108,vts_reward_expectancy_bt,2022.2.4,Win32,60.0348202,Chrome,1383,864,,,,,0,848,,,,,,,,,,,,,,,,,F,132,triangle,0,1,,,,,,,,,,,,,,,,repeat,letter,NA,f,0.3183,Lo,,,,,,2,,,,,,,,low,5,0,5,0,1,,,,,,,,,
,2022-11-15_11h38.16.108,vts_reward_expectancy_bt,2022.2.4,Win32,60.0348202,Chrome,1383,864,,,,,10,858,,,,,,,,,,,,,,,,,U,181,circle,1,1,,,,,,,,,,,,,,,,repeat,letter,lettRpt,f,0.2674,Hi,,,,,,2,,,,,,,,low,6,0,6,0,1,,,,,,,,,
,2022-11-15_11h38.16.108,vts_reward_expectancy_bt,2022.2.4,Win32,60.0348202,Chrome,1383,864,,,,,0,858,,,,,,,,,,,,,,,,,S,125,star,1,0,,,,,,,,,,,,,,,,repeat,letter,lettRpt,f,0.8666,Hi,,,,,,2,,,,,,,,low,7,0,7,0,1,,,,,,,,,
,2022-11-15_11h38.16.108,vts_reward_expectancy_bt,2022.2.4,Win32,60.0348202,Chrome,1383,864,,,,,10,868,,,,,,,,,,,,,,,,,Y,139,star,1,0,,,,,,,,,,,,,,,,repeat,letter,lettRpt,f,0.3342,Hi,,,,,,2,,,,,,,,low,8,0,8,0,1,,,,,,,,,
,2022-11-15_11h38.16.108,vts_reward_expectancy_bt,2022.2.4,Win32,60.0348202,Chrome,1383,864,,,,,0,868,,,,,,,,,,,,,,,,,D,160,hexagon,0,0,,,,,,,,,,,,,,,,repeat,letter,NA,f,0.501,Hi,,,,,,2,,,,,,,,low,9,0,9,0,1,,,,,,,,,
,2022-11-15_11h38.16.108,vts_reward_expectancy_bt,2022.2.4,Win32,60.0348202,Chrome,1383,864,,,,,1,869,,,,,,,,,,,,,,,,,W,146,triangle,1,1,,,,,,,,,,,,,,,,repeat,letter,lettRpt,f,2.2007,Lo,,,,,,2,,,,,,,,low,10,0,10,0,1,,,,,,,,,
,2022-11-15_11h38.16.108,vts_reward_expectancy_bt,2022.2.4,Win32,60.0348202,Chrome,1383,864,,,,,0,869,,,,,,,,,,,,,,,,,H,174,circle,0,0,,,,,,,,,,,,,,,,repeat,letter,NA,f,0.217,Lo,,,,,,2,,,,,,,,low,11,0,11,0,1,,,,,,,,,
,2022-11-15_11h38.16.108,vts_reward_expectancy_bt,2022.2.4,Win32,60.0348202,Chrome,1383,864,,,,,0,869,,,,,,,,,,,,,,,,,B,167,circle,-1,1,,,,,,,,,,,,,,,,switch,no_choice,NA,,,Lo,,,,,,2,,,,,,,,low,12,0,12,0,1,,,,,,,,,
,2022-11-15_11h38.16.108,vts_reward_expectancy_bt,2022.2.4,Win32,60.0348202,Chrome,1383,864,,,,,0,869,,,,,,,,,,,,,,,,,F,132,triangle,-1,0,,,,,,,,,,,,,,,,repeat,no_choice,NA,,,Lo,,,,,,2,,,,,,,,low,13,0,13,0,1,,,,,,,,,
,2022-11-15_11h38.16.108,vts_reward_expectancy_bt,2022.2.4,Win32,60.0348202,Chrome,1383,864,,,,,1,870,,,,,,,,,,,,,,,,,U,181,hexagon,1,0,,,,,,,,,,,,,,,,switch,letter,lettSwt,f,0.834,Lo,,,,,,2,,,,,,,,low,14,0,14,0,1,,,,,,,,,
,2022-11-15_11h38.16.108,vts_reward_expectancy_bt,2022.2.4,Win32,60.0348202,Chrome,1383,864,,,,,0,870,,,,,,,,,,,,,,,,,S,125,star,1,0,,,,,,,,,,,,,,,,repeat,letter,lettRpt,f,2.3839,Hi,,,,,,2,,,,,,,,low,15,0,15,0,1,,,,,,,,,
,2022-11-15_11h38.16.108,vts_reward_expectancy_bt,2022.2.4,Win32,60.0348202,Chrome,1383,864,,,,,0,870,,,,,,,,,,,,,,,,,H,132,hexagon,0,0,,,,,,,,,,,,,,,,repeat,letter,NA,f,0.733,Hi,,,,,,2,,,,,,,,low,16,0,16,0,1,,,,,,,,,
,2022-11-15_11h38.16.108,vts_reward_expectancy_bt,2022.2.4,Win32,60.0348202,Chrome,1383,864,,,,,10,880,,,,,,,,,,,,,,,,,S,146,circle,1,1,,,,,,,,,,,,,,,,repeat,letter,lettRpt,f,0.0992,Hi,,,,,,2,,,,,,,,low,17,0,17,0,1,,,,,,,,,
,2022-11-15_11h38.16.108,vts_reward_expectancy_bt,2022.2.4,Win32,60.0348202,Chrome,1383,864,,,,,1,881,,,,,,,,,,,,,,,,,F,167,star,1,0,,,,,,,,,,,,,,,,repeat,letter,lettRpt,d,0.1013,Hi,,,,,,2,,,,,,,,low,18,0,18,0,1,,,,,,,,,
,2022-11-15_11h38.16.108,vts_reward_expectancy_bt,2022.2.4,Win32,60.0348202,Chrome,1383,864,,,,,10,891,,,,,,,,,,,,,,,,,U,160,triangle,1,0,,,,,,,,,,,,,,,,repeat,letter,lettRpt,f,0.0329,Lo,,,,,,2,,,,,,,,low,19,0,19,0,1,,,,,,,,,
,2022-11-15_11h38.16.108,vts_reward_expectancy_bt,2022.2.4,Win32,60.0348202,Chrome,1383,864,,,,,1,892,,,,,,,,,,,,,,,,,D,174,hexagon,1,0,,,,,,,,,,,,,,,,repeat,letter,lettRpt,d,0.1511,Lo,,,,,,2,,,,,,,,low,20,0,20,0,1,,,,,,,,,
,2022-11-15_11h38.16.108,vts_reward_expectancy_bt,2022.2.4,Win32,60.0348202,Chrome,1383,864,,,,,10,902,,,,,,,,,,,,,,,,,Y,125,star,1,0,,,,,,,,,,,,,,,,repeat,letter,lettRpt,f,0.1843,Hi,,,,,,2,,,,,,,,low,21,0,21,0,1,,,,,,,,,
,2022-11-15_11h38.16.108,vts_reward_expectancy_bt,2022.2.4,Win32,60.0348202,Chrome,1383,864,,,,,1,903,,,,,,,,,,,,,,,,,B,181,triangle,1,0,,,,,,,,,,,,,,,,repeat,letter,lettRpt,d,0.3174,Lo,,,,,,2,,,,,,,,low,22,0,22,0,1,,,,,,,,,
,2022-11-15_11h38.16.108,vts_reward_expectancy_bt,2022.2.4,Win32,60.0348202,Chrome,1383,864,,,,,1,904,,,,,,,,,,,,,,,,,W,139,circle,1,0,,,,,,,,,,,,,,,,repeat,letter,lettRpt,f,0.0993,Hi,,,,,,2,,,,,,,,low,23,0,23,0,1,,,,,,,,,
,2022-11-15_11h38.16.108,vts_reward_expectancy_bt,2022.2.4,Win32,60.0348202,Chrome,1383,864,,,,,10,914,,,,,,,,,,,,,,,,,S,160,star,1,0,,,,,,,,,,,,,,,,repeat,letter,lettRpt,f,0.1165,Hi,,,,,,2,,,,,,,,low,24,0,24,0,1,,,,,,,,,
,2022-11-15_11h38.16.108,vts_reward_expectancy_bt,2022.2.4,Win32,60.0348202,Chrome,1383,864,,,,,0,914,,,,,,,,,,,,,,,,,D,132,circle,0,0,,,,,,,,,,,,,,,,repeat,letter,NA,f,0.0506,Hi,,,,,,2,,,,,,,,low,25,0,25,0,1,,,,,,,,,
,2022-11-15_11h38.16.108,vts_reward_expectancy_bt,2022.2.4,Win32,60.0348202,Chrome,1383,864,,,,,1,915,,,,,,,,,,,,,,,,,U,146,triangle,1,1,,,,,,,,,,,,,,,,repeat,letter,lettRpt,f,0.3994,Lo,,,,,,2,,,,,,,,low,26,0,26,0,1,,,,,,,,,
,2022-11-15_11h38.16.108,vts_reward_expectancy_bt,2022.2.4,Win32,60.0348202,Chrome,1383,864,,,,,0,915,,,,,,,,,,,,,,,,,H,125,hexagon,0,0,,,,,,,,,,,,,,,,repeat,letter,NA,f,1.701,Lo,,,,,,2,,,,,,,,low,27,0,27,0,1,,,,,,,,,
,2022-11-15_11h38.16.108,vts_reward_expectancy_bt,2022.2.4,Win32,60.0348202,Chrome,1383,864,,,,,0,915,,,,,,,,,,,,,,,,,F,174,hexagon,0,1,,,,,,,,,,,,,,,,repeat,letter,NA,f,0.3839,Lo,,,,,,2,,,,,,,,low,28,0,28,0,1,,,,,,,,,
,2022-11-15_11h38.16.108,vts_reward_expectancy_bt,2022.2.4,Win32,60.0348202,Chrome,1383,864,,,,,0,915,,,,,,,,,,,,,,,,,Y,139,triangle,0,1,,,,,,,,,,,,,,,,repeat,letter,NA,d,0.2161,Lo,,,,,,2,,,,,,,,low,29,0,29,0,1,,,,,,,,,
,2022-11-15_11h38.16.108,vts_reward_expectancy_bt,2022.2.4,Win32,60.0348202,Chrome,1383,864,,,,,0,915,,,,,,,,,,,,,,,,,B,181,star,0,1,,,,,,,,,,,,,,,,repeat,letter,NA,f,2.1506,Lo,,,,,,2,,,,,,,,low,30,0,30,0,1,,,,,,,,,
,2022-11-15_11h38.16.108,vts_reward_expectancy_bt,2022.2.4,Win32,60.0348202,Chrome,1383,864,,,,,0,915,,,,,,,,,,,,,,,,,W,167,circle,1,1,,,,,,,,,,,,,,,,repeat,letter,lettRpt,f,1.8827,Hi,,,,,,2,,,,,,,,low,31,0,31,0,1,,,,,,,,,
,2022-11-15_11h38.16.108,vts_reward_expectancy_bt,2022.2.4,Win32,60.0348202,Chrome,1383,864,,,,,0,915,,,,,,,,,,,,,,,,,Y,174,circle,1,0,,,,,,,,,,,,,,,,repeat,letter,lettRpt,f,0.1496,Hi,,,,,,3,,,,,,space,2.5157,low,0,0,0,0,1,,,,,,,,,
,2022-11-15_11h38.16.108,vts_reward_expectancy_bt,2022.2.4,Win32,60.0348202,Chrome,1383,864,,,,,0,915,,,,,,,,,,,,,,,,,B,146,triangle,-1,0,,,,,,,,,,,,,,,,switch,no_choice,NA,,,Hi,,,,,,3,,,,,,,,low,1,0,1,0,1,,,,,,,,,
,2022-11-15_11h38.16.108,vts_reward_expectancy_bt,2022.2.4,Win32,60.0348202,Chrome,1383,864,,,,,0,915,,,,,,,,,,,,,,,,,F,160,hexagon,0,0,,,,,,,,,,,,,,,,switch,letter,NA,f,2.1994,Hi,,,,,,3,,,,,,,,low,2,0,2,0,1,,,,,,,,,
,2022-11-15_11h38.16.108,vts_reward_expectancy_bt,2022.2.4,Win32,60.0348202,Chrome,1383,864,,,,,0,915,,,,,,,,,,,,,,,,,D,132,star,0,1,,,,,,,,,,,,,,,,repeat,letter,NA,f,0.583,Hi,,,,,,3,,,,,,,,low,3,0,3,0,1,,,,,,,,,
,2022-11-15_11h38.16.108,vts_reward_expectancy_bt,2022.2.4,Win32,60.0348202,Chrome,1383,864,,,,,0,915,,,,,,,,,,,,,,,,,U,167,circle,1,1,,,,,,,,,,,,,,,,repeat,letter,lettRpt,f,0.2674,Hi,,,,,,3,,,,,,,,low,4,0,4,0,1,,,,,,,,,
,2022-11-15_11h38.16.108,vts_reward_expectancy_bt,2022.2.4,Win32,60.0348202,Chrome,1383,864,,,,,0,915,,,,,,,,,,,,,,,,,H,139,triangle,0,0,,,,,,,,,,,,,,,,repeat,letter,NA,f,0.0505,Hi,,,,,,3,,,,,,,,low,5,0,5,0,1,,,,,,,,,
,2022-11-15_11h38.16.108,vts_reward_expectancy_bt,2022.2.4,Win32,60.0348202,Chrome,1383,864,,,,,1,916,,,,,,,,,,,,,,,,,S,181,hexagon,1,1,,,,,,,,,,,,,,,,repeat,letter,lettRpt,f,0.1511,Lo,,,,,,3,,,,,,,,low,6,0,6,0,1,,,,,,,,,
,2022-11-15_11h38.16.108,vts_reward_expectancy_bt,2022.2.4,Win32,60.0348202,Chrome,1383,864,,,,,1,917,,,,,,,,,,,,,,,,,W,125,star,1,0,,,,,,,,,,,,,,,,repeat,letter,lettRpt,f,0.0004,Hi,,,,,,3,,,,,,,,low,7,0,7,0,1,,,,,,,,,
,2022-11-15_11h38.16.108,vts_reward_expectancy_bt,2022.2.4,Win32,60.0348202,Chrome,1383,864,,,,,0,917,,,,,,,,,,,,,,,,,Y,174,star,1,0,,,,,,,,,,,,,,,,repeat,letter,lettRpt,f,1.7675,Hi,,,,,,3,,,,,,,,low,8,0,8,0,1,,,,,,,,,
,2022-11-15_11h38.16.108,vts_reward_expectancy_bt,2022.2.4,Win32,60.0348202,Chrome,1383,864,,,,,0,917,,,,,,,,,,,,,,,,,B,146,circle,0,0,,,,,,,,,,,,,,,,repeat,letter,NA,f,0.5655,Hi,,,,,,3,,,,,,,,low,9,0,9,0,1,,,,,,,,,
,2022-11-15_11h38.16.108,vts_reward_expectancy_bt,2022.2.4,Win32,60.0348202,Chrome,1383,864,,,,,0,917,,,,,,,,,,,,,,,,,F,160,triangle,0,1,,,,,,,,,,,,,,,,repeat,letter,NA,f,1.018,Hi,,,,,,3,,,,,,,,low,10,0,10,0,1,,,,,,,,,
,2022-11-15_11h38.16.108,vts_reward_expectancy_bt,2022.2.4,Win32,60.0348202,Chrome,1383,864,,,,,0,917,,,,,,,,,,,,,,,,,D,132,hexagon,0,1,,,,,,,,,,,,,,,,repeat,letter,NA,f,0.3175,Hi,,,,,,3,,,,,,,,low,11,0,11,0,1,,,,,,,,,
,2022-11-15_11h38.16.108,vts_reward_expectancy_bt,2022.2.4,Win32,60.0348202,Chrome,1383,864,,,,,10,927,,,,,,,,,,,,,,,,,U,167,triangle,1,1,,,,,,,,,,,,,,,,repeat,letter,lettRpt,f,0.4504,Lo,,,,,,3,,,,,,,,low,12,0,12,0,1,,,,,,,,,
,2022-11-15_11h38.16.108,vts_reward_expectancy_bt,2022.2.4,Win32,60.0348202,Chrome,1383,864,,,,,0,927,,,,,,,,,,,,,,,,,H,139,circle,0,0,,,,,,,,,,,,,,,,repeat,letter,NA,f,0.1515,Lo,,,,,,3,,,,,,,,low,13,0,13,0,1,,,,,,,,,
,2022-11-15_11h38.16.108,vts_reward_expectancy_bt,2022.2.4,Win32,60.0348202,Chrome,1383,864,,,,,1,928,,,,,,,,,,,,,,,,,S,181,hexagon,1,1,,,,,,,,,,,,,,,,repeat,letter,lettRpt,f,0.2173,Lo,,,,,,3,,,,,,,,low,14,0,14,0,1,,,,,,,,,
,2022-11-15_11h38.16.108,vts_reward_expectancy_bt,2022.2.4,Win32,60.0348202,Chrome,1383,864,,,,,10,938,,,,,,,,,,,,,,,,,W,125,star,1,0,,,,,,,,,,,,,,,,repeat,letter,lettRpt,f,0.0681,Hi,,,,,,3,,,,,,,,low,15,0,15,0,1,,,,,,,,,
,2022-11-15_11h38.16.108,vts_reward_expectancy_bt,2022.2.4,Win32,60.0348202,Chrome,1383,864,,,,,0,938,,,,,,,,,,,,,,,,,U,139,circle,1,0,,,,,,,,,,,,,,,,repeat,letter,lettRpt,f,0.2667,Hi,,,,,,3,,,,,,,,low,16,0,16,0,1,,,,,,,,,
,2022-11-15_11h38.16.108,vts_reward_expectancy_bt,2022.2.4,Win32,60.0348202,Chrome,1383,864,,,,,0,938,,,,,,,,,,,,,,,,,H,174,star,0,0,,,,,,,,,,,,,,,,repeat,letter,NA,f,0.4834,Hi,,,,,,3,,,,,,,,low,17,0,17,0,1,,,,,,,,,
,2022-11-15_11h38.16.108,vts_reward_expectancy_bt,2022.2.4,Win32,60.0348202,Chrome,1383,864,,,,,0,938,,,,,,,,,,,,,,,,,S,167,triangle,-1,1,,,,,,,,,,,,,,,,switch,no_choice,NA,,,Hi,,,,,,3,,,,,,,,low,18,0,18,0,1,,,,,,,,,
,2022-11-15_11h38.16.108,vts_reward_expectancy_bt,2022.2.4,Win32,60.0348202,Chrome,1383,864,,,,,0,938,,,,,,,,,,,,,,,,,D,125,hexagon,0,0,,,,,,,,,,,,,,,,switch,letter,NA,f,0.0503,Hi,,,,,,3,,,,,,,,low,19,0,19,0,1,,,,,,,,,
,2022-11-15_11h38.16.108,vts_reward_expectancy_bt,2022.2.4,Win32,60.0348202,Chrome,1383,864,,,,,0,938,,,,,,,,,,,,,,,,,F,146,hexagon,0,1,,,,,,,,,,,,,,,,repeat,letter,NA,f,0.1205,Hi,,,,,,3,,,,,,,,low,20,0,20,0,1,,,,,,,,,
,2022-11-15_11h38.16.108,vts_reward_expectancy_bt,2022.2.4,Win32,60.0348202,Chrome,1383,864,,,,,1,939,,,,,,,,,,,,,,,,,Y,181,triangle,1,1,,,,,,,,,,,,,,,,repeat,letter,lettRpt,f,0.0983,Lo,,,,,,3,,,,,,,,low,21,0,21,0,1,,,,,,,,,
,2022-11-15_11h38.16.108,vts_reward_expectancy_bt,2022.2.4,Win32,60.0348202,Chrome,1383,864,,,,,0,939,,,,,,,,,,,,,,,,,B,132,star,0,0,,,,,,,,,,,,,,,,repeat,letter,NA,f,0.0999,Lo,,,,,,3,,,,,,,,low,22,0,22,0,1,,,,,,,,,
,2022-11-15_11h38.16.108,vts_reward_expectancy_bt,2022.2.4,Win32,60.0348202,Chrome,1383,864,,,,,0,939,,,,,,,,,,,,,,,,,W,160,circle,1,1,,,,,,,,,,,,,,,,repeat,letter,lettRpt,f,0.1498,Hi,,,,,,3,,,,,,,,low,23,0,23,0,1,,,,,,,,,
,2022-11-15_11h38.16.108,vts_reward_expectancy_bt,2022.2.4,Win32,60.0348202,Chrome,1383,864,,,,,0,939,,,,,,,,,,,,,,,,,S,125,triangle,0,0,,,,,,,,,,,,,,,,repeat,letter,NA,d,0.4991,Hi,,,,,,3,,,,,,,,low,24,0,24,0,1,,,,,,,,,
,2022-11-15_11h38.16.108,vts_reward_expectancy_bt,2022.2.4,Win32,60.0348202,Chrome,1383,864,,,,,1,940,,,,,,,,,,,,,,,,,H,181,hexagon,1,1,,,,,,,,,,,,,,,,repeat,letter,lettRpt,d,0.1494,Lo,,,,,,3,,,,,,,,low,25,0,25,0,1,,,,,,,,,
,2022-11-15_11h38.16.108,vts_reward_expectancy_bt,2022.2.4,Win32,60.0348202,Chrome,1383,864,,,,,0,940,,,,,,,,,,,,,,,,,U,139,star,0,0,,,,,,,,,,,,,,,,repeat,letter,NA,d,0.0989,Lo,,,,,,3,,,,,,,,low,26,0,26,0,1,,,,,,,,,
,2022-11-15_11h38.16.108,vts_reward_expectancy_bt,2022.2.4,Win32,60.0348202,Chrome,1383,864,,,,,0,940,,,,,,,,,,,,,,,,,F,132,circle,0,1,,,,,,,,,,,,,,,,repeat,letter,NA,f,0.1676,Lo,,,,,,3,,,,,,,,low,27,0,27,0,1,,,,,,,,,
,2022-11-15_11h38.16.108,vts_reward_expectancy_bt,2022.2.4,Win32,60.0348202,Chrome,1383,864,,,,,0,940,,,,,,,,,,,,,,,,,W,160,triangle,0,1,,,,,,,,,,,,,,,,repeat,letter,NA,d,0.056,Lo,,,,,,3,,,,,,,,low,28,0,28,0,1,,,,,,,,,
,2022-11-15_11h38.16.108,vts_reward_expectancy_bt,2022.2.4,Win32,60.0348202,Chrome,1383,864,,,,,0,940,,,,,,,,,,,,,,,,,B,174,star,0,1,,,,,,,,,,,,,,,,repeat,letter,NA,f,0.2164,Lo,,,,,,3,,,,,,,,low,29,0,29,0,1,,,,,,,,,
,2022-11-15_11h38.16.108,vts_reward_expectancy_bt,2022.2.4,Win32,60.0348202,Chrome,1383,864,,,,,0,940,,,,,,,,,,,,,,,,,D,167,circle,0,1,,,,,,,,,,,,,,,,repeat,letter,NA,f,0.1175,Lo,,,,,,3,,,,,,,,low,30,0,30,0,1,,,,,,,,,
,2022-11-15_11h38.16.108,vts_reward_expectancy_bt,2022.2.4,Win32,60.0348202,Chrome,1383,864,,,,,10,950,,,,,,,,,,,,,,,,,Y,146,hexagon,1,1,,,,,,,,,,,,,,,,repeat,letter,lettRpt,f,0.1688,Lo,,,,,,3,,,,,,,,low,31,0,31,0,1,,,,,,,,,
,2022-11-15_11h38.16.108,vts_reward_expectancy_bt,2022.2.4,Win32,60.0348202,Chrome,1383,864,,,,,0,950,,,,,,,,,,,,,,,,,U,174,circle,1,0,,,,,,,,,,,,,,,,repeat,letter,lettRpt,f,1.8002,Hi,,,,,,4,,,,,,space,1.3173,low,0,0,0,0,1,,,,,,,,,
,2022-11-15_11h38.16.108,vts_reward_expectancy_bt,2022.2.4,Win32,60.0348202,Chrome,1383,864,,,,,0,950,,,,,,,,,,,,,,,,,H,146,triangle,-1,0,,,,,,,,,,,,,,,,switch,no_choice,NA,,,Hi,,,,,,4,,,,,,,,low,1,0,1,0,1,,,,,,,,,
,2022-11-15_11h38.16.108,vts_reward_expectancy_bt,2022.2.4,Win32,60.0348202,Chrome,1383,864,,,,,10,960,,,,,,,,,,,,,,,,,D,167,star,1,0,,,,,,,,,,,,,,,,switch,letter,lettSwt,d,0.8014,Hi,,,,,,4,,,,,,,,low,2,0,2,0,1,,,,,,,,,
,2022-11-15_11h38.16.108,vts_reward_expectancy_bt,2022.2.4,Win32,60.0348202,Chrome,1383,864,,,,,0,960,,,,,,,,,,,,,,,,,S,181,hexagon,-1,0,,,,,,,,,,,,,,,,switch,no_choice,NA,,,Hi,,,,,,4,,,,,,,,low,3,0,3,0,1,,,,,,,,,
,2022-11-15_11h38.16.108,vts_reward_expectancy_bt,2022.2.4,Win32,60.0348202,Chrome,1383,864,,,,,0,960,,,,,,,,,,,,,,,,,F,132,circle,0,0,,,,,,,,,,,,,,,,switch,letter,NA,f,1.418,Hi,,,,,,4,,,,,,,,low,4,0,4,0,1,,,,,,,,,
,2022-11-15_11h38.16.108,vts_reward_expectancy_bt,2022.2.4,Win32,60.0348202,Chrome,1383,864,,,,,10,970,,,,,,,,,,,,,,,,,B,160,triangle,1,1,,,,,,,,,,,,,,,,repeat,letter,lettRpt,d,0.0668,Lo,,,,,,4,,,,,,,,low,5,0,5,0,1,,,,,,,,,
,2022-11-15_11h38.16.108,vts_reward_expectancy_bt,2022.2.4,Win32,60.0348202,Chrome,1383,864,,,,,1,971,,,,,,,,,,,,,,,,,W,125,star,1,0,,,,,,,,,,,,,,,,repeat,letter,lettRpt,f,0.0232,Hi,,,,,,4,,,,,,,,low,6,0,6,0,1,,,,,,,,,
,2022-11-15_11h38.16.108,vts_reward_expectancy_bt,2022.2.4,Win32,60.0348202,Chrome,1383,864,,,,,0,971,,,,,,,,,,,,,,,,,Y,139,hexagon,0,0,,,,,,,,,,,,,,,,repeat,letter,NA,d,0.1991,Hi,,,,,,4,,,,,,,,low,7,0,7,0,1,,,,,,,,,
,2022-11-15_11h38.16.108,vts_reward_expectancy_bt,2022.2.4,Win32,60.0348202,Chrome,1383,864,,,,,0,971,,,,,,,,,,,,,,,,,U,174,star,1,1,,,,,,,,,,,,,,,,repeat,letter,lettRpt,f,0.3505,Hi,,,,,,4,,,,,,,,low,8,0,8,0,1,,,,,,,,,
,2022-11-15_11h38.16.108,vts_reward_expectancy_bt,2022.2.4,Win32,60.0348202,Chrome,1383,864,,,,,0,971,,,,,,,,,,,,,,,,,H,146,triangle,0,0,,,,,,,,,,,,,,,,repeat,letter,NA,f,0.0661,Hi,,,,,,4,,,,,,,,low,9,0,9,0,1,,,,,,,,,
,2022-11-15_11h38.16.108,vts_reward_expectancy_bt,2022.2.4,Win32,60.0348202,Chrome,1383,864,,,,,0,971,,,,,,,,,,,,,,,,,D,167,hexagon,0,1,,,,,,,,,,,,,,,,repeat,letter,NA,f,0.0379,Hi,,,,,,4,,,,,,,,low,10,0,10,0,1,,,,,,,,,
,2022-11-15_11h38.16.108,vts_reward_expectancy_bt,2022.2.4,Win32,60.0348202,Chrome,1383,864,,,,,0,971,,,,,,,,,,,,,,,,,S,181,circle,1,1,,,,,,,,,,,,,,,,repeat,letter,lettRpt,f,1.0669,Hi,,,,,,4,,,,,,,,low,11,0,11,0,1,,,,,,,,,
,2022-11-15_11h38.16.108,vts_reward_expectancy_bt,2022.2.4,Win32,60.0348202,Chrome,1383,864,,,,,0,971,,,,,,,,,,,,,,,,,F,132,star,0,0,,,,,,,,,,,,,,,,repeat,letter,NA,f,0.067,Hi,,,,,,4,,,,,,,,low,12,0,12,0,1,,,,,,,,,
,2022-11-15_11h38.16.108,vts_reward_expectancy_bt,2022.2.4,Win32,60.0348202,Chrome,1383,864,,,,,1,972,,,,,,,,,,,,,,,,,B,160,hexagon,1,1,,,,,,,,,,,,,,,,repeat,letter,lettRpt,d,0.1505,Lo,,,,,,4,,,,,,,,low,13,0,13,0,1,,,,,,,,,
,2022-11-15_11h38.16.108,vts_reward_expectancy_bt,2022.2.4,Win32,60.0348202,Chrome,1383,864,,,,,0,972,,,,,,,,,,,,,,,,,W,125,circle,0,0,,,,,,,,,,,,,,,,repeat,letter,NA,d,1.0862,Lo,,,,,,4,,,,,,,,low,14,0,14,0,1,,,,,,,,,
,2022-11-15_11h38.16.108,vts_reward_expectancy_bt,2022.2.4,Win32,60.0348202,Chrome,1383,864,,,,,1,973,,,,,,,,,,,,,,,,,Y,139,triangle,1,1,,,,,,,,,,,,,,,,repeat,letter,lettRpt,f,0.037,Lo,,,,,,4,,,,,,,,low,15,0,15,0,1,,,,,,,,,
,2022-11-15_11h38.16.108,vts_reward_expectancy_bt,2022.2.4,Win32,60.0348202,Chrome,1383,864,,,,,0,973,,,,,,,,,,,,,,,,,D,167,triangle,0,0,,,,,,,,,,,,,,,,repeat,letter,NA,f,2.397,Lo,,,,,,4,,,,,,,,low,16,0,16,0,1,,,,,,,,,
,2022-11-15_11h38.16.108,vts_reward_expectancy_bt,2022.2.4,Win32,60.0348202,Chrome,1383,864,,,,,0,973,,,,,,,,,,,,,,,,,W,146,circle,1,1,,,,,,,,,,,,,,,,repeat,letter,lettRpt,f,0.4166,Hi,,,,,,4,,,,,,,,low,17,0,17,0,1,,,,,,,,,
,2022-11-15_11h38.16.108,vts_reward_expectancy_bt,2022.2.4,Win32,60.0348202,Chrome,1383,864,,,,,1,974,,,,,,,,,,,,,,,,,F,181,hexagon,1,0,,,,,,,,,,,,,,,,repeat,letter,lettRpt,d,0.0236,Lo,,,,,,4,,,,,,,,low,18,0,18,0,1,,,,,,,,,
,2022-11-15_11h38.16.108,vts_reward_expectancy_bt,2022.2.4,Win32,60.0348202,Chrome,1383,864,,,,,0,974,,,,,,,,,,,,,,,,,Y,139,star,1,0,,,,,,,,,,,,,,,,repeat,letter,lettRpt,f,0.233,Hi,,,,,,4,,,,,,,,low,19,0,19,0,1,,,,,,,,,
,2022-11-15_11h38.16.108,vts_reward_expectancy_bt,2022.2.4,Win32,60.0348202,Chrome,1383,864,,,,,0,974,,,,,,,,,,,,,,,,,H,174,star,0,0,,,,,,,,,,,,,,,,repeat,letter,NA,f,0.1988,Hi,,,,,,4,,,,,,,,low,20,0,20,0,1,,,,,,,,,
,2022-11-15_11h38.16.108,vts_reward_expectancy_bt,2022.2.4,Win32,60.0348202,Chrome,1383,864,,,,,0,974,,,,,,,,,,,,,,,,,S,160,circle,1,1,,,,,,,,,,,,,,,,repeat,letter,lettRpt,f,0.2677,Hi,,,,,,4,,,,,,,,low,21,0,21,0,1,,,,,,,,,
,2022-11-15_11h38.16.108,vts_reward_expectancy_bt,2022.2.4,Win32,60.0348202,Chrome,1383,864,,,,,0,974,,,,,,,,,,,,,,,,,B,125,triangle,0,0,,,,,,,,,,,,,,,,repeat,letter,NA,f,0.1672,Hi,,,,,,4,,,,,,,,low,22,0,22,0,1,,,,,,,,,
,2022-11-15_11h38.16.108,vts_reward_expectancy_bt,2022.2.4,Win32,60.0348202,Chrome,1383,864,,,,,0,974,,,,,,,,,,,,,,,,,U,132,hexagon,0,1,,,,,,,,,,,,,,,,repeat,letter,NA,d,0.2491,Hi,,,,,,4,,,,,,,,low,23,0,23,0,1,,,,,,,,,
,2022-11-15_11h38.16.108,vts_reward_expectancy_bt,2022.2.4,Win32,60.0348202,Chrome,1383,864,,,,,0,974,,,,,,,,,,,,,,,,,Y,181,star,1,1,,,,,,,,,,,,,,,,repeat,letter,lettRpt,f,0.2009,Hi,,,,,,4,,,,,,,,low,24,0,24,0,1,,,,,,,,,
,2022-11-15_11h38.16.108,vts_reward_expectancy_bt,2022.2.4,Win32,60.0348202,Chrome,1383,864,,,,,0,974,,,,,,,,,,,,,,,,,U,125,circle,0,0,,,,,,,,,,,,,,,,repeat,letter,NA,d,0.6837,Hi,,,,,,4,,,,,,,,low,25,0,25,0,1,,,,,,,,,
,2022-11-15_11h38.16.108,vts_reward_expectancy_bt,2022.2.4,Win32,60.0348202,Chrome,1383,864,,,,,0,974,,,,,,,,,,,,,,,,,S,146,hexagon,0,1,,,,,,,,,,,,,,,,repeat,letter,NA,d,0.3339,Hi,,,,,,4,,,,,,,,low,26,0,26,0,1,,,,,,,,,
,2022-11-15_11h38.16.108,vts_reward_expectancy_bt,2022.2.4,Win32,60.0348202,Chrome,1383,864,,,,,0,974,,,,,,,,,,,,,,,,,F,174,triangle,0,1,,,,,,,,,,,,,,,,repeat,letter,NA,f,0.3498,Hi,,,,,,4,,,,,,,,low,27,0,27,0,1,,,,,,,,,
,2022-11-15_11h38.16.108,vts_reward_expectancy_bt,2022.2.4,Win32,60.0348202,Chrome,1383,864,,,,,0,974,,,,,,,,,,,,,,,,,B,132,star,0,1,,,,,,,,,,,,,,,,repeat,letter,NA,f,0.009,Hi,,,,,,4,,,,,,,,low,28,0,28,0,1,,,,,,,,,
,2022-11-15_11h38.16.108,vts_reward_expectancy_bt,2022.2.4,Win32,60.0348202,Chrome,1383,864,,,,,0,974,,,,,,,,,,,,,,,,,D,167,hexagon,0,1,,,,,,,,,,,,,,,,repeat,letter,NA,f,0.0837,Hi,,,,,,4,,,,,,,,low,29,0,29,0,1,,,,,,,,,
,2022-11-15_11h38.16.108,vts_reward_expectancy_bt,2022.2.4,Win32,60.0348202,Chrome,1383,864,,,,,10,984,,,,,,,,,,,,,,,,,W,160,circle,1,1,,,,,,,,,,,,,,,,repeat,letter,lettRpt,f,0.0009,Hi,,,,,,4,,,,,,,,low,30,0,30,0,1,,,,,,,,,
,2022-11-15_11h38.16.108,vts_reward_expectancy_bt,2022.2.4,Win32,60.0348202,Chrome,1383,864,,,,,0,984,,,,,,,,,,,,,,,,,H,139,triangle,0,0,,,,,,,,,,,,,,,,repeat,letter,NA,f,0.1541,Hi,,,,,,4,,,,,,,,low,31,0,31,0,1,,,,,,,,,
,2022-11-15_11h38.16.108,vts_reward_expectancy_bt,2022.2.4,Win32,60.0348202,Chrome,1383,864,,,,,0,984,,,,,,,,,,,,,,,,,Y,139,star,0,1,,,,,,,,,,,,,,,,repeat,letter,NA,d,0.1709,Hi,,,,,,5,,,,,,space,1.0328,low,0,0,0,0,1,,,,,,,,,
,2022-11-15_11h38.16.108,vts_reward_expectancy_bt,2022.2.4,Win32,60.0348202,Chrome,1383,864,,,,,0,984,,,,,,,,,,,,,,,,,S,125,hexagon,0,1,,,,,,,,,,,,,,,,repeat,letter,NA,d,0.5177,Hi,,,,,,5,,,,,,,,low,1,0,1,0,1,,,,,,,,,
,2022-11-15_11h38.16.108,vts_reward_expectancy_bt,2022.2.4,Win32,60.0348202,Chrome,1383,864,,,,,0,984,,,,,,,,,,,,,,,,,B,146,triangle,0,1,,,,,,,,,,,,,,,,repeat,letter,NA,f,0.0365,Hi,,,,,,5,,,,,,,,low,2,0,2,0,1,,,,,,,,,
,2022-11-15_11h38.16.108,vts_reward_expectancy_bt,2022.2.4,Win32,60.0348202,Chrome,1383,864,,,,,0,984,,,,,,,,,,,,,,,,,W,160,circle,0,1,,,,,,,,,,,,,,,,repeat,letter,NA,d,0.17,Hi,,,,,,5,,,,,,,,low,3,0,3,0,1,,,,,,,,,
,2022-11-15_11h38.16.108,vts_reward_expectancy_bt,2022.2.4,Win32,60.0348202,Chrome,1383,864,,,,,10,994,,,,,,,,,,,,,,,,,U,174,star,1,1,,,,,,,,,,,,,,,,repeat,letter,lettRpt,f,0.0003,Hi,,,,,,5,,,,,,,,low,4,0,4,0,1,,,,,,,,,
,2022-11-15_11h38.16.108,vts_reward_expectancy_bt,2022.2.4,Win32,60.0348202,Chrome,1383,864,,,,,0,994,,,,,,,,,,,,,,,,,F,167,hexagon,0,0,,,,,,,,,,,,,,,,repeat,letter,NA,f,0.0845,Hi,,,,,,5,,,,,,,,low,5,0,5,0,1,,,,,,,,,
,2022-11-15_11h38.16.108,vts_reward_expectancy_bt,2022.2.4,Win32,60.0348202,Chrome,1383,864,,,,,0,994,,,,,,,,,,,,,,,,,D,181,triangle,0,1,,,,,,,,,,,,,,,,repeat,letter,NA,f,0.1346,Hi,,,,,,5,,,,,,,,low,6,0,6,0,1,,,,,,,,,
,2022-11-15_11h38.16.108,vts_reward_expectancy_bt,2022.2.4,Win32,60.0348202,Chrome,1383,864,,,,,0,994,,,,,,,,,,,,,,,,,H,132,circle,0,1,,,,,,,,,,,,,,,,repeat,letter,NA,f,0.051,Hi,,,,,,5,,,,,,,,low,7,0,7,0,1,,,,,,,,,
,2022-11-15_11h38.16.108,vts_reward_expectancy_bt,2022.2.4,Win32,60.0348202,Chrome,1383,864,,,,,1,995,,,,,,,,,,,,,,,,,Y,139,triangle,1,1,,,,,,,,,,,,,,,,repeat,letter,lettRpt,f,0.1343,Lo,,,,,,5,,,,,,,,low,8,0,8,0,1,,,,,,,,,
,2022-11-15_11h38.16.108,vts_reward_expectancy_bt,2022.2.4,Win32,60.0348202,Chrome,1383,864,,,,,1,996,,,,,,,,,,,,,,,,,S,125,hexagon,1,0,,,,,,,,,,,,,,,,repeat,letter,lettRpt,f,0.4353,Lo,,,,,,5,,,,,,,,low,9,0,9,0,1,,,,,,,,,
,2022-11-15_11h38.16.108,vts_reward_expectancy_bt,2022.2.4,Win32,60.0348202,Chrome,1383,864,,,,,0,996,,,,,,,,,,,,,,,,,B,146,star,1,0,,,,,,,,,,,,,,,,repeat,letter,lettRpt,d,0.0998,Hi,,,,,,5,,,,,,,,low,10,0,10,0,1,,,,,,,,,
,2022-11-15_11h38.16.108,vts_reward_expectancy_bt,2022.2.4,Win32,60.0348202,Chrome,1383,864,,,,,0,996,,,,,,,,,,,,,,,,,W,160,circle,1,0,,,,,,,,,,,,,,,,repeat,letter,lettRpt,f,0.068,Hi,,,,,,5,,,,,,,,low,11,0,11,0,1,,,,,,,,,
,2022-11-15_11h38.16.108,vts_reward_expectancy_bt,2022.2.4,Win32,60.0348202,Chrome,1383,864,,,,,1,997,,,,,,,,,,,,,,,,,U,174,hexagon,1,0,,,,,,,,,,,,,,,,repeat,letter,lettRpt,f,0.1178,Lo,,,,,,5,,,,,,,,low,12,0,12,0,1,,,,,,,,,
,2022-11-15_11h38.16.108,vts_reward_expectancy_bt,2022.2.4,Win32,60.0348202,Chrome,1383,864,,,,,0,997,,,,,,,,,,,,,,,,,F,167,circle,0,0,,,,,,,,,,,,,,,,repeat,letter,NA,f,0.0498,Lo,,,,,,5,,,,,,,,low,13,0,13,0,1,,,,,,,,,
,2022-11-15_11h38.16.108,vts_reward_expectancy_bt,2022.2.4,Win32,60.0348202,Chrome,1383,864,,,,,0,997,,,,,,,,,,,,,,,,,D,181,star,1,1,,,,,,,,,,,,,,,,repeat,letter,lettRpt,d,0.7503,Hi,,,,,,5,,,,,,,,low,14,0,14,0,1,,,,,,,,,
,2022-11-15_11h38.16.108,vts_reward_expectancy_bt,2022.2.4,Win32,60.0348202,Chrome,1383,864,,,,,1,998,,,,,,,,,,,,,,,,,H,132,triangle,1,0,,,,,,,,,,,,,,,,repeat,letter,lettRpt,d,1.2005,Lo,,,,,,5,,,,,,,,low,15,0,15,0,1,,,,,,,,,
,2022-11-15_11h38.16.108,vts_reward_expectancy_bt,2022.2.4,Win32,60.0348202,Chrome,1383,864,,,,,0,998,,,,,,,,,,,,,,,,,Y,146,circle,1,0,,,,,,,,,,,,,,,,repeat,letter,lettRpt,f,0.1012,Hi,,,,,,5,,,,,,,,low,16,0,16,0,1,,,,,,,,,
,2022-11-15_11h38.16.108,vts_reward_expectancy_bt,2022.2.4,Win32,60.0348202,Chrome,1383,864,,,,,0,998,,,,,,,,,,,,,,,,,F,181,triangle,0,0,,,,,,,,,,,,,,,,repeat,letter,NA,f,0.267,Hi,,,,,,5,,,,,,,,low,17,0,17,0,1,,,,,,,,,
,2022-11-15_11h38.16.108,vts_reward_expectancy_bt,2022.2.4,Win32,60.0348202,Chrome,1383,864,,,,,0,998,,,,,,,,,,,,,,,,,W,132,hexagon,0,1,,,,,,,,,,,,,,,,repeat,letter,NA,d,0.0165,Hi,,,,,,5,,,,,,,,low,18,0,18,0,1,,,,,,,,,
,2022-11-15_11h38.16.108,vts_reward_expectancy_bt,2022.2.4,Win32,60.0348202,Chrome,1383,864,,,,,0,998,,,,,,,,,,,,,,,,,S,125,star,0,1,,,,,,,,,,,,,,,,repeat,letter,NA,d,0.1332,Hi,,,,,,5,,,,,,,,low,19,0,19,0,1,,,,,,,,,
,2022-11-15_11h38.16.108,vts_reward_expectancy_bt,2022.2.4,Win32,60.0348202,Chrome,1383,864,,,,,0,998,,,,,,,,,,,,,,,,,D,160,triangle,0,1,,,,,,,,,,,,,,,,repeat,letter,NA,f,0.0167,Hi,,,,,,5,,,,,,,,low,20,0,20,0,1,,,,,,,,,
,2022-11-15_11h38.16.108,vts_reward_expectancy_bt,2022.2.4,Win32,60.0348202,Chrome,1383,864,,,,,0,998,,,,,,,,,,,,,,,,,H,167,star,0,1,,,,,,,,,,,,,,,,repeat,letter,NA,f,0.0339,Hi,,,,,,5,,,,,,,,low,21,0,21,0,1,,,,,,,,,
,2022-11-15_11h38.16.108,vts_reward_expectancy_bt,2022.2.4,Win32,60.0348202,Chrome,1383,864,,,,,0,998,,,,,,,,,,,,,,,,,B,139,hexagon,0,1,,,,,,,,,,,,,,,,repeat,letter,NA,f,0.0003,Hi,,,,,,5,,,,,,,,low,22,0,22,0,1,,,,,,,,,
,2022-11-15_11h38.16.108,vts_reward_expectancy_bt,2022.2.4,Win32,60.0348202,Chrome,1383,864,,,,,0,998,,,,,,,,,,,,,,,,,U,174,circle,1,1,,,,,,,,,,,,,,,,repeat,letter,lettRpt,f,0.0842,Hi,,,,,,5,,,,,,,,low,23,0,23,0,1,,,,,,,,,
,2022-11-15_11h38.16.108,vts_reward_expectancy_bt,2022.2.4,Win32,60.0348202,Chrome,1383,864,,,,,0,998,,,,,,,,,,,,,,,,,W,132,star,1,0,,,,,,,,,,,,,,,,repeat,letter,lettRpt,f,0.3679,Hi,,,,,,5,,,,,,,,low,24,0,24,0,1,,,,,,,,,
,2022-11-15_11h38.16.108,vts_reward_expectancy_bt,2022.2.4,Win32,60.0348202,Chrome,1383,864,,,,,0,998,,,,,,,,,,,,,,,,,D,160,triangle,0,0,,,,,,,,,,,,,,,,repeat,letter,NA,f,0.45,Hi,,,,,,5,,,,,,,,low,25,0,25,0,1,,,,,,,,,
,2022-11-15_11h38.16.108,vts_reward_expectancy_bt,2022.2.4,Win32,60.0348202,Chrome,1383,864,,,,,0,998,,,,,,,,,,,,,,,,,B,181,circle,0,1,,,,,,,,,,,,,,,,repeat,letter,NA,f,0.0671,Hi,,,,,,5,,,,,,,,low,26,0,26,0,1,,,,,,,,,
,2022-11-15_11h38.16.108,vts_reward_expectancy_bt,2022.2.4,Win32,60.0348202,Chrome,1383,864,,,,,0,998,,,,,,,,,,,,,,,,,H,174,hexagon,0,1,,,,,,,,,,,,,,,,repeat,letter,NA,f,0.0337,Hi,,,,,,5,,,,,,,,low,27,0,27,0,1,,,,,,,,,
,2022-11-15_11h38.16.108,vts_reward_expectancy_bt,2022.2.4,Win32,60.0348202,Chrome,1383,864,,,,,0,998,,,,,,,,,,,,,,,,,F,167,triangle,0,1,,,,,,,,,,,,,,,,repeat,letter,NA,f,0.1009,Hi,,,,,,5,,,,,,,,low,28,0,28,0,1,,,,,,,,,
,2022-11-15_11h38.16.108,vts_reward_expectancy_bt,2022.2.4,Win32,60.0348202,Chrome,1383,864,,,,,1,999,,,,,,,,,,,,,,,,,U,139,hexagon,1,1,,,,,,,,,,,,,,,,repeat,letter,lettRpt,f,0.3837,Lo,,,,,,5,,,,,,,,low,29,0,29,0,1,,,,,,,,,
,2022-11-15_11h38.16.108,vts_reward_expectancy_bt,2022.2.4,Win32,60.0348202,Chrome,1383,864,,,,,1,1000,,,,,,,,,,,,,,,,,Y,146,star,1,0,,,,,,,,,,,,,,,,repeat,letter,lettRpt,f,0.0166,Hi,,,,,,5,,,,,,,,low,30,0,30,0,1,,,,,,,,,
,2022-11-15_11h38.16.108,vts_reward_expectancy_bt,2022.2.4,Win32,60.0348202,Chrome,1383,864,,,,,0,1000,,,,,,,,,,,,,,,,,S,125,circle,1,0,,,,,,,,,,,,,,,,repeat,letter,lettRpt,f,0.0667,Hi,,,,,,5,,,,,,,,low,31,0,31,0,1,,,,,,,,,
