participant,date,expName,psychopyVersion,OS,frameRate,browser,xResolution,yResolution,key_resp.keys,key_resp.rt,training_resp.keys,training_resp.rt,points_trial,points_cumul,trainBlock,training.thisRepN,training.thisTrialN,training.thisN,training.thisIndex,training.ran,LTriangleOpac,LCircleOpac,LHexagonOpac,LStarOpac,RTriangleOpac,RCircleOpac,RHexagonOpac,RStarOpac,LShape_ID,RShape_ID,curr_topStim,curr_bottStim,curr_shape,acc,E1,target_resp_prac1.keys,target_resp_prac1.rt,pracBlock,task1_prac_trials.thisRepN,task1_prac_trials.thisTrialN,task1_prac_trials.thisN,task1_prac_trials.thisIndex,task1_prac_trials.ran,target_resp_prac2.keys,target_resp_prac2.rt,task2_praac_trials.thisRepN,task2_praac_trials.thisTrialN,task2_praac_trials.thisN,task2_praac_trials.thisIndex,task2_praac_trials.ran,alt,task,condition,target_resp.keys,target_resp.rt,rewCond,vts_practice_trials.thisRepN,vts_practice_trials.thisTrialN,vts_practice_trials.thisN,vts_practice_trials.thisIndex,vts_practice_trials.ran,blockNum,trials_norew.thisRepN,trials_norew.thisTrialN,trials_norew.thisN,trials_norew.thisIndex,trials_norew.ran,key_resp_2.keys,key_resp_2.rt,rewExpect,trials_rew.thisRepN,trials_rew.thisTrialN,trials_rew.thisN,trials_rew.thisIndex,trials_rew.ran,Q1,Q2,Q2_text,Q3,Q4,Q5_text,Q5,xRes,yRes
295435,2022-09-25_16h05.37.962,vts_reward_expectancy,2022.2.4,Win32,8.252459233,Chrome,2560,1440,,,,,,,,,,,,,,,,,,,,,,,,,,,,,,,,,,,,,,,,,,,,,,,,,,,,,,,,,,,,,,,,,,,,,,,,,,,,
295435,2022-09-25_16h05.37.962,vts_reward_expectancy,2022.2.4,Win32,8.252459233,Chrome,2560,1440,space,51.3151,,,,,,,,,,,,,,,,,,,,,,,,,,,,,,,,,,,,,,,,,,,,,,,,,,,,,,,,,,,,,,,,,,,,,,,,,,
295435,2022-09-25_16h05.37.962,vts_reward_expectancy,2022.2.4,Win32,8.252459233,Chrome,2560,1440,,,,,,,,,,,,,,,,,,,,,,,,,,,,,,,,,,,,,,,,,,,,,,,,,,,,,,,,,,,,,,,,,,,,,,,,,,,,
295435,2022-09-25_16h05.37.962,vts_reward_expectancy,2022.2.4,Win32,8.252459233,Chrome,2560,1440,,,a,1.7515,10,10,0,0,0,0,1,1,1,0,0,0,0,0,1,0,triangle,hexagon,,,,,,,,,,,,,,,,,,,,,,,,,,,,,,,,,,,,,,,,,,,,,,,,,,,,,,
295435,2022-09-25_16h05.37.962,vts_reward_expectancy,2022.2.4,Win32,8.252459233,Chrome,2560,1440,,,l,1.4631,10,20,0,0,1,1,8,1,0,0,1,0,0,0,0,1,hexagon,star,,,,,,,,,,,,,,,,,,,,,,,,,,,,,,,,,,,,,,,,,,,,,,,,,,,,,,
295435,2022-09-25_16h05.37.962,vts_reward_expectancy,2022.2.4,Win32,8.252459233,Chrome,2560,1440,,,l,1.3331,10,30,0,0,2,2,5,1,0,1,0,0,0,0,0,1,circle,star,,,,,,,,,,,,,,,,,,,,,,,,,,,,,,,,,,,,,,,,,,,,,,,,,,,,,,
295435,2022-09-25_16h05.37.962,vts_reward_expectancy,2022.2.4,Win32,8.252459233,Chrome,2560,1440,,,l,1.8663,1,31,0,0,3,3,3,1,0,1,0,0,1,0,0,0,circle,triangle,,,,,,,,,,,,,,,,,,,,,,,,,,,,,,,,,,,,,,,,,,,,,,,,,,,,,,
295435,2022-09-25_16h05.37.962,vts_reward_expectancy,2022.2.4,Win32,8.252459233,Chrome,2560,1440,,,l,1.0906,10,41,0,0,4,4,2,1,1,0,0,0,0,0,0,1,triangle,star,,,,,,,,,,,,,,,,,,,,,,,,,,,,,,,,,,,,,,,,,,,,,,,,,,,,,,
295435,2022-09-25_16h05.37.962,vts_reward_expectancy,2022.2.4,Win32,8.252459233,Chrome,2560,1440,,,a,2.9066,10,51,0,0,5,5,9,1,0,0,0,1,1,0,0,0,star,triangle,,,,,,,,,,,,,,,,,,,,,,,,,,,,,,,,,,,,,,,,,,,,,,,,,,,,,,
295435,2022-09-25_16h05.37.962,vts_reward_expectancy,2022.2.4,Win32,8.252459233,Chrome,2560,1440,,,a,2.1419,10,61,0,0,6,6,6,1,0,0,1,0,1,0,0,0,hexagon,triangle,,,,,,,,,,,,,,,,,,,,,,,,,,,,,,,,,,,,,,,,,,,,,,,,,,,,,,
295435,2022-09-25_16h05.37.962,vts_reward_expectancy,2022.2.4,Win32,8.252459233,Chrome,2560,1440,,,a,0.93,10,71,0,0,7,7,10,1,0,0,0,1,0,1,0,0,star ,circle,,,,,,,,,,,,,,,,,,,,,,,,,,,,,,,,,,,,,,,,,,,,,,,,,,,,,,
295435,2022-09-25_16h05.37.962,vts_reward_expectancy,2022.2.4,Win32,8.252459233,Chrome,2560,1440,,,a,2.9224,10,81,0,0,8,8,4,1,0,1,0,0,0,0,1,0,circle,hexagon,,,,,,,,,,,,,,,,,,,,,,,,,,,,,,,,,,,,,,,,,,,,,,,,,,,,,,
295435,2022-09-25_16h05.37.962,vts_reward_expectancy,2022.2.4,Win32,8.252459233,Chrome,2560,1440,,,l,3.7329,10,91,0,0,9,9,7,1,0,0,1,0,0,1,0,0,hexagon,circle,,,,,,,,,,,,,,,,,,,,,,,,,,,,,,,,,,,,,,,,,,,,,,,,,,,,,,
295435,2022-09-25_16h05.37.962,vts_reward_expectancy,2022.2.4,Win32,8.252459233,Chrome,2560,1440,,,l,1.4575,10,101,0,0,10,10,0,1,1,0,0,0,0,1,0,0,triangle,circle,,,,,,,,,,,,,,,,,,,,,,,,,,,,,,,,,,,,,,,,,,,,,,,,,,,,,,
295435,2022-09-25_16h05.37.962,vts_reward_expectancy,2022.2.4,Win32,8.252459233,Chrome,2560,1440,,,a,1.2389,10,111,0,0,11,11,11,1,0,0,0,1,0,0,1,0,star,hexagon,,,,,,,,,,,,,,,,,,,,,,,,,,,,,,,,,,,,,,,,,,,,,,,,,,,,,,
295435,2022-09-25_16h05.37.962,vts_reward_expectancy,2022.2.4,Win32,8.252459233,Chrome,2560,1440,,,a,0.9105,10,121,0,1,0,12,10,1,0,0,0,1,0,1,0,0,star ,circle,,,,,,,,,,,,,,,,,,,,,,,,,,,,,,,,,,,,,,,,,,,,,,,,,,,,,,
295435,2022-09-25_16h05.37.962,vts_reward_expectancy,2022.2.4,Win32,8.252459233,Chrome,2560,1440,,,a,2.0115,1,122,0,1,1,13,3,1,0,1,0,0,1,0,0,0,circle,triangle,,,,,,,,,,,,,,,,,,,,,,,,,,,,,,,,,,,,,,,,,,,,,,,,,,,,,,
295435,2022-09-25_16h05.37.962,vts_reward_expectancy,2022.2.4,Win32,8.252459233,Chrome,2560,1440,,,l,1.3403,10,132,0,1,2,14,2,1,1,0,0,0,0,0,0,1,triangle,star,,,,,,,,,,,,,,,,,,,,,,,,,,,,,,,,,,,,,,,,,,,,,,,,,,,,,,
295435,2022-09-25_16h05.37.962,vts_reward_expectancy,2022.2.4,Win32,8.252459233,Chrome,2560,1440,,,a,1.0542,10,142,0,1,3,15,11,1,0,0,0,1,0,0,1,0,star,hexagon,,,,,,,,,,,,,,,,,,,,,,,,,,,,,,,,,,,,,,,,,,,,,,,,,,,,,,
295435,2022-09-25_16h05.37.962,vts_reward_expectancy,2022.2.4,Win32,8.252459233,Chrome,2560,1440,,,l,0.7765,10,152,0,1,4,16,5,1,0,1,0,0,0,0,0,1,circle,star,,,,,,,,,,,,,,,,,,,,,,,,,,,,,,,,,,,,,,,,,,,,,,,,,,,,,,
295435,2022-09-25_16h05.37.962,vts_reward_expectancy,2022.2.4,Win32,8.252459233,Chrome,2560,1440,,,a,1.3125,1,153,0,1,5,17,0,1,1,0,0,0,0,1,0,0,triangle,circle,,,,,,,,,,,,,,,,,,,,,,,,,,,,,,,,,,,,,,,,,,,,,,,,,,,,,,
295435,2022-09-25_16h05.37.962,vts_reward_expectancy,2022.2.4,Win32,8.252459233,Chrome,2560,1440,,,l,1.2052,1,154,0,1,6,18,7,1,0,0,1,0,0,1,0,0,hexagon,circle,,,,,,,,,,,,,,,,,,,,,,,,,,,,,,,,,,,,,,,,,,,,,,,,,,,,,,
295435,2022-09-25_16h05.37.962,vts_reward_expectancy,2022.2.4,Win32,8.252459233,Chrome,2560,1440,,,a,2.9536,1,155,0,1,7,19,6,1,0,0,1,0,1,0,0,0,hexagon,triangle,,,,,,,,,,,,,,,,,,,,,,,,,,,,,,,,,,,,,,,,,,,,,,,,,,,,,,
295435,2022-09-25_16h05.37.962,vts_reward_expectancy,2022.2.4,Win32,8.252459233,Chrome,2560,1440,,,a,1.2138,10,165,0,1,8,20,4,1,0,1,0,0,0,0,1,0,circle,hexagon,,,,,,,,,,,,,,,,,,,,,,,,,,,,,,,,,,,,,,,,,,,,,,,,,,,,,,
295435,2022-09-25_16h05.37.962,vts_reward_expectancy,2022.2.4,Win32,8.252459233,Chrome,2560,1440,,,l,0.8145,1,166,0,1,9,21,9,1,0,0,0,1,1,0,0,0,star,triangle,,,,,,,,,,,,,,,,,,,,,,,,,,,,,,,,,,,,,,,,,,,,,,,,,,,,,,
295435,2022-09-25_16h05.37.962,vts_reward_expectancy,2022.2.4,Win32,8.252459233,Chrome,2560,1440,,,a,2.8292,1,167,0,1,10,22,1,1,1,0,0,0,0,0,1,0,triangle,hexagon,,,,,,,,,,,,,,,,,,,,,,,,,,,,,,,,,,,,,,,,,,,,,,,,,,,,,,
295435,2022-09-25_16h05.37.962,vts_reward_expectancy,2022.2.4,Win32,8.252459233,Chrome,2560,1440,,,l,1.0834,10,177,0,1,11,23,8,1,0,0,1,0,0,0,0,1,hexagon,star,,,,,,,,,,,,,,,,,,,,,,,,,,,,,,,,,,,,,,,,,,,,,,,,,,,,,,
295435,2022-09-25_16h05.37.962,vts_reward_expectancy,2022.2.4,Win32,8.252459233,Chrome,2560,1440,,,l,0.939,10,187,0,2,0,24,8,1,0,0,1,0,0,0,0,1,hexagon,star,,,,,,,,,,,,,,,,,,,,,,,,,,,,,,,,,,,,,,,,,,,,,,,,,,,,,,
295435,2022-09-25_16h05.37.962,vts_reward_expectancy,2022.2.4,Win32,8.252459233,Chrome,2560,1440,,,a,0.8189,1,188,0,2,1,25,0,1,1,0,0,0,0,1,0,0,triangle,circle,,,,,,,,,,,,,,,,,,,,,,,,,,,,,,,,,,,,,,,,,,,,,,,,,,,,,,
295435,2022-09-25_16h05.37.962,vts_reward_expectancy,2022.2.4,Win32,8.252459233,Chrome,2560,1440,,,l,0.6618,10,198,0,2,2,26,5,1,0,1,0,0,0,0,0,1,circle,star,,,,,,,,,,,,,,,,,,,,,,,,,,,,,,,,,,,,,,,,,,,,,,,,,,,,,,
295435,2022-09-25_16h05.37.962,vts_reward_expectancy,2022.2.4,Win32,8.252459233,Chrome,2560,1440,,,l,0.8207,1,199,0,2,3,27,9,1,0,0,0,1,1,0,0,0,star,triangle,,,,,,,,,,,,,,,,,,,,,,,,,,,,,,,,,,,,,,,,,,,,,,,,,,,,,,
295435,2022-09-25_16h05.37.962,vts_reward_expectancy,2022.2.4,Win32,8.252459233,Chrome,2560,1440,,,a,1.4735,1,200,0,2,4,28,10,1,0,0,0,1,0,1,0,0,star ,circle,,,,,,,,,,,,,,,,,,,,,,,,,,,,,,,,,,,,,,,,,,,,,,,,,,,,,,
295435,2022-09-25_16h05.37.962,vts_reward_expectancy,2022.2.4,Win32,8.252459233,Chrome,2560,1440,,,l,2.2123,1,201,0,2,5,29,7,1,0,0,1,0,0,1,0,0,hexagon,circle,,,,,,,,,,,,,,,,,,,,,,,,,,,,,,,,,,,,,,,,,,,,,,,,,,,,,,
295435,2022-09-25_16h05.37.962,vts_reward_expectancy,2022.2.4,Win32,8.252459233,Chrome,2560,1440,,,a,1.3677,10,211,0,2,6,30,6,1,0,0,1,0,1,0,0,0,hexagon,triangle,,,,,,,,,,,,,,,,,,,,,,,,,,,,,,,,,,,,,,,,,,,,,,,,,,,,,,
295435,2022-09-25_16h05.37.962,vts_reward_expectancy,2022.2.4,Win32,8.252459233,Chrome,2560,1440,,,l,0.8062,10,221,0,2,7,31,2,1,1,0,0,0,0,0,0,1,triangle,star,,,,,,,,,,,,,,,,,,,,,,,,,,,,,,,,,,,,,,,,,,,,,,,,,,,,,,
295435,2022-09-25_16h05.37.962,vts_reward_expectancy,2022.2.4,Win32,8.252459233,Chrome,2560,1440,,,a,1.228,10,231,0,2,8,32,1,1,1,0,0,0,0,0,1,0,triangle,hexagon,,,,,,,,,,,,,,,,,,,,,,,,,,,,,,,,,,,,,,,,,,,,,,,,,,,,,,
295435,2022-09-25_16h05.37.962,vts_reward_expectancy,2022.2.4,Win32,8.252459233,Chrome,2560,1440,,,a,1.5981,1,232,0,2,9,33,3,1,0,1,0,0,1,0,0,0,circle,triangle,,,,,,,,,,,,,,,,,,,,,,,,,,,,,,,,,,,,,,,,,,,,,,,,,,,,,,
295435,2022-09-25_16h05.37.962,vts_reward_expectancy,2022.2.4,Win32,8.252459233,Chrome,2560,1440,,,a,0.9736,10,242,0,2,10,34,11,1,0,0,0,1,0,0,1,0,star,hexagon,,,,,,,,,,,,,,,,,,,,,,,,,,,,,,,,,,,,,,,,,,,,,,,,,,,,,,
295435,2022-09-25_16h05.37.962,vts_reward_expectancy,2022.2.4,Win32,8.252459233,Chrome,2560,1440,,,a,1.0584,1,243,0,2,11,35,4,1,0,1,0,0,0,0,1,0,circle,hexagon,,,,,,,,,,,,,,,,,,,,,,,,,,,,,,,,,,,,,,,,,,,,,,,,,,,,,,
295435,2022-09-25_16h05.37.962,vts_reward_expectancy,2022.2.4,Win32,8.252459233,Chrome,2560,1440,,,a,1.218,10,253,1,0,0,0,4,1,0,1,0,0,0,0,1,0,circle,hexagon,,,,,,,,,,,,,,,,,,,,,,,,,,,,,,,,,,,,,,,,,,,,,,,,,,,,,,
295435,2022-09-25_16h05.37.962,vts_reward_expectancy,2022.2.4,Win32,8.252459233,Chrome,2560,1440,,,a,0.5482,10,263,1,0,1,1,5,1,0,1,0,0,0,0,0,1,circle,star,,,,,,,,,,,,,,,,,,,,,,,,,,,,,,,,,,,,,,,,,,,,,,,,,,,,,,
295435,2022-09-25_16h05.37.962,vts_reward_expectancy,2022.2.4,Win32,8.252459233,Chrome,2560,1440,,,l,1.4752,1,264,1,0,2,2,6,1,0,0,1,0,1,0,0,0,hexagon,triangle,,,,,,,,,,,,,,,,,,,,,,,,,,,,,,,,,,,,,,,,,,,,,,,,,,,,,,
295435,2022-09-25_16h05.37.962,vts_reward_expectancy,2022.2.4,Win32,8.252459233,Chrome,2560,1440,,,l,0.9563,10,274,1,0,3,3,8,1,0,0,1,0,0,0,0,1,hexagon,star,,,,,,,,,,,,,,,,,,,,,,,,,,,,,,,,,,,,,,,,,,,,,,,,,,,,,,
295435,2022-09-25_16h05.37.962,vts_reward_expectancy,2022.2.4,Win32,8.252459233,Chrome,2560,1440,,,a,2.1774,1,275,1,0,4,4,1,1,1,0,0,0,0,0,1,0,triangle,hexagon,,,,,,,,,,,,,,,,,,,,,,,,,,,,,,,,,,,,,,,,,,,,,,,,,,,,,,
295435,2022-09-25_16h05.37.962,vts_reward_expectancy,2022.2.4,Win32,8.252459233,Chrome,2560,1440,,,l,1.2057,1,276,1,0,5,5,0,1,1,0,0,0,0,1,0,0,triangle,circle,,,,,,,,,,,,,,,,,,,,,,,,,,,,,,,,,,,,,,,,,,,,,,,,,,,,,,
295435,2022-09-25_16h05.37.962,vts_reward_expectancy,2022.2.4,Win32,8.252459233,Chrome,2560,1440,,,l,1.2117,1,277,1,0,6,6,2,1,1,0,0,0,0,0,0,1,triangle,star,,,,,,,,,,,,,,,,,,,,,,,,,,,,,,,,,,,,,,,,,,,,,,,,,,,,,,
295435,2022-09-25_16h05.37.962,vts_reward_expectancy,2022.2.4,Win32,8.252459233,Chrome,2560,1440,,,l,1.879,1,278,1,0,7,7,9,1,0,0,0,1,1,0,0,0,star,triangle,,,,,,,,,,,,,,,,,,,,,,,,,,,,,,,,,,,,,,,,,,,,,,,,,,,,,,
295435,2022-09-25_16h05.37.962,vts_reward_expectancy,2022.2.4,Win32,8.252459233,Chrome,2560,1440,,,a,0.6914,10,288,1,0,8,8,11,1,0,0,0,1,0,0,1,0,star,hexagon,,,,,,,,,,,,,,,,,,,,,,,,,,,,,,,,,,,,,,,,,,,,,,,,,,,,,,
295435,2022-09-25_16h05.37.962,vts_reward_expectancy,2022.2.4,Win32,8.252459233,Chrome,2560,1440,,,a,1.3144,1,289,1,0,9,9,3,1,0,1,0,0,1,0,0,0,circle,triangle,,,,,,,,,,,,,,,,,,,,,,,,,,,,,,,,,,,,,,,,,,,,,,,,,,,,,,
295435,2022-09-25_16h05.37.962,vts_reward_expectancy,2022.2.4,Win32,8.252459233,Chrome,2560,1440,,,a,0.9114,1,290,1,0,10,10,10,1,0,0,0,1,0,1,0,0,star ,circle,,,,,,,,,,,,,,,,,,,,,,,,,,,,,,,,,,,,,,,,,,,,,,,,,,,,,,
295435,2022-09-25_16h05.37.962,vts_reward_expectancy,2022.2.4,Win32,8.252459233,Chrome,2560,1440,,,l,0.9411,10,300,1,0,11,11,7,1,0,0,1,0,0,1,0,0,hexagon,circle,,,,,,,,,,,,,,,,,,,,,,,,,,,,,,,,,,,,,,,,,,,,,,,,,,,,,,
295435,2022-09-25_16h05.37.962,vts_reward_expectancy,2022.2.4,Win32,8.252459233,Chrome,2560,1440,,,l,0.6603,10,310,1,1,0,12,5,1,0,1,0,0,0,0,0,1,circle,star,,,,,,,,,,,,,,,,,,,,,,,,,,,,,,,,,,,,,,,,,,,,,,,,,,,,,,
295435,2022-09-25_16h05.37.962,vts_reward_expectancy,2022.2.4,Win32,8.252459233,Chrome,2560,1440,,,l,2.4948,10,320,1,1,1,13,0,1,1,0,0,0,0,1,0,0,triangle,circle,,,,,,,,,,,,,,,,,,,,,,,,,,,,,,,,,,,,,,,,,,,,,,,,,,,,,,
295435,2022-09-25_16h05.37.962,vts_reward_expectancy,2022.2.4,Win32,8.252459233,Chrome,2560,1440,,,a,0.9366,10,330,1,1,2,14,4,1,0,1,0,0,0,0,1,0,circle,hexagon,,,,,,,,,,,,,,,,,,,,,,,,,,,,,,,,,,,,,,,,,,,,,,,,,,,,,,
295435,2022-09-25_16h05.37.962,vts_reward_expectancy,2022.2.4,Win32,8.252459233,Chrome,2560,1440,,,a,2.1222,1,331,1,1,3,15,2,1,1,0,0,0,0,0,0,1,triangle,star,,,,,,,,,,,,,,,,,,,,,,,,,,,,,,,,,,,,,,,,,,,,,,,,,,,,,,
295435,2022-09-25_16h05.37.962,vts_reward_expectancy,2022.2.4,Win32,8.252459233,Chrome,2560,1440,,,a,1.0704,10,341,1,1,4,16,3,1,0,1,0,0,1,0,0,0,circle,triangle,,,,,,,,,,,,,,,,,,,,,,,,,,,,,,,,,,,,,,,,,,,,,,,,,,,,,,
295435,2022-09-25_16h05.37.962,vts_reward_expectancy,2022.2.4,Win32,8.252459233,Chrome,2560,1440,,,a,2.3079,1,342,1,1,5,17,8,1,0,0,1,0,0,0,0,1,hexagon,star,,,,,,,,,,,,,,,,,,,,,,,,,,,,,,,,,,,,,,,,,,,,,,,,,,,,,,
295435,2022-09-25_16h05.37.962,vts_reward_expectancy,2022.2.4,Win32,8.252459233,Chrome,2560,1440,,,l,1.4761,1,343,1,1,6,18,10,1,0,0,0,1,0,1,0,0,star ,circle,,,,,,,,,,,,,,,,,,,,,,,,,,,,,,,,,,,,,,,,,,,,,,,,,,,,,,
295435,2022-09-25_16h05.37.962,vts_reward_expectancy,2022.2.4,Win32,8.252459233,Chrome,2560,1440,,,l,0.9184,1,344,1,1,7,19,7,1,0,0,1,0,0,1,0,0,hexagon,circle,,,,,,,,,,,,,,,,,,,,,,,,,,,,,,,,,,,,,,,,,,,,,,,,,,,,,,
295435,2022-09-25_16h05.37.962,vts_reward_expectancy,2022.2.4,Win32,8.252459233,Chrome,2560,1440,,,a,1.0678,10,354,1,1,8,20,11,1,0,0,0,1,0,0,1,0,star,hexagon,,,,,,,,,,,,,,,,,,,,,,,,,,,,,,,,,,,,,,,,,,,,,,,,,,,,,,
295435,2022-09-25_16h05.37.962,vts_reward_expectancy,2022.2.4,Win32,8.252459233,Chrome,2560,1440,,,a,0.5546,10,364,1,1,9,21,9,1,0,0,0,1,1,0,0,0,star,triangle,,,,,,,,,,,,,,,,,,,,,,,,,,,,,,,,,,,,,,,,,,,,,,,,,,,,,,
295435,2022-09-25_16h05.37.962,vts_reward_expectancy,2022.2.4,Win32,8.252459233,Chrome,2560,1440,,,a,1.8835,1,365,1,1,10,22,6,1,0,0,1,0,1,0,0,0,hexagon,triangle,,,,,,,,,,,,,,,,,,,,,,,,,,,,,,,,,,,,,,,,,,,,,,,,,,,,,,
295435,2022-09-25_16h05.37.962,vts_reward_expectancy,2022.2.4,Win32,8.252459233,Chrome,2560,1440,,,l,2.334,1,366,1,1,11,23,1,1,1,0,0,0,0,0,1,0,triangle,hexagon,,,,,,,,,,,,,,,,,,,,,,,,,,,,,,,,,,,,,,,,,,,,,,,,,,,,,,
295435,2022-09-25_16h05.37.962,vts_reward_expectancy,2022.2.4,Win32,8.252459233,Chrome,2560,1440,,,l,1.9,10,376,1,2,0,24,2,1,1,0,0,0,0,0,0,1,triangle,star,,,,,,,,,,,,,,,,,,,,,,,,,,,,,,,,,,,,,,,,,,,,,,,,,,,,,,
295435,2022-09-25_16h05.37.962,vts_reward_expectancy,2022.2.4,Win32,8.252459233,Chrome,2560,1440,,,l,1.8508,1,377,1,2,1,25,0,1,1,0,0,0,0,1,0,0,triangle,circle,,,,,,,,,,,,,,,,,,,,,,,,,,,,,,,,,,,,,,,,,,,,,,,,,,,,,,
295435,2022-09-25_16h05.37.962,vts_reward_expectancy,2022.2.4,Win32,8.252459233,Chrome,2560,1440,,,a,1.4666,1,378,1,2,2,26,4,1,0,1,0,0,0,0,1,0,circle,hexagon,,,,,,,,,,,,,,,,,,,,,,,,,,,,,,,,,,,,,,,,,,,,,,,,,,,,,,
295435,2022-09-25_16h05.37.962,vts_reward_expectancy,2022.2.4,Win32,8.252459233,Chrome,2560,1440,,,l,0.6661,10,388,1,2,3,27,5,1,0,1,0,0,0,0,0,1,circle,star,,,,,,,,,,,,,,,,,,,,,,,,,,,,,,,,,,,,,,,,,,,,,,,,,,,,,,
295435,2022-09-25_16h05.37.962,vts_reward_expectancy,2022.2.4,Win32,8.252459233,Chrome,2560,1440,,,a,0.5418,10,398,1,2,4,28,11,1,0,0,0,1,0,0,1,0,star,hexagon,,,,,,,,,,,,,,,,,,,,,,,,,,,,,,,,,,,,,,,,,,,,,,,,,,,,,,
295435,2022-09-25_16h05.37.962,vts_reward_expectancy,2022.2.4,Win32,8.252459233,Chrome,2560,1440,,,a,0.6931,10,408,1,2,5,29,10,1,0,0,0,1,0,1,0,0,star ,circle,,,,,,,,,,,,,,,,,,,,,,,,,,,,,,,,,,,,,,,,,,,,,,,,,,,,,,
295435,2022-09-25_16h05.37.962,vts_reward_expectancy,2022.2.4,Win32,8.252459233,Chrome,2560,1440,,,l,1.3148,1,409,1,2,6,30,7,1,0,0,1,0,0,1,0,0,hexagon,circle,,,,,,,,,,,,,,,,,,,,,,,,,,,,,,,,,,,,,,,,,,,,,,,,,,,,,,
295435,2022-09-25_16h05.37.962,vts_reward_expectancy,2022.2.4,Win32,8.252459233,Chrome,2560,1440,,,a,0.6823,10,419,1,2,7,31,9,1,0,0,0,1,1,0,0,0,star,triangle,,,,,,,,,,,,,,,,,,,,,,,,,,,,,,,,,,,,,,,,,,,,,,,,,,,,,,
295435,2022-09-25_16h05.37.962,vts_reward_expectancy,2022.2.4,Win32,8.252459233,Chrome,2560,1440,,,a,0.6855,10,429,1,2,8,32,6,1,0,0,1,0,1,0,0,0,hexagon,triangle,,,,,,,,,,,,,,,,,,,,,,,,,,,,,,,,,,,,,,,,,,,,,,,,,,,,,,
295435,2022-09-25_16h05.37.962,vts_reward_expectancy,2022.2.4,Win32,8.252459233,Chrome,2560,1440,,,a,1.9752,1,430,1,2,9,33,3,1,0,1,0,0,1,0,0,0,circle,triangle,,,,,,,,,,,,,,,,,,,,,,,,,,,,,,,,,,,,,,,,,,,,,,,,,,,,,,
295435,2022-09-25_16h05.37.962,vts_reward_expectancy,2022.2.4,Win32,8.252459233,Chrome,2560,1440,,,l,0.8329,10,440,1,2,10,34,1,1,1,0,0,0,0,0,1,0,triangle,hexagon,,,,,,,,,,,,,,,,,,,,,,,,,,,,,,,,,,,,,,,,,,,,,,,,,,,,,,
295435,2022-09-25_16h05.37.962,vts_reward_expectancy,2022.2.4,Win32,8.252459233,Chrome,2560,1440,,,l,0.8206,10,450,1,2,11,35,8,1,0,0,1,0,0,0,0,1,hexagon,star,,,,,,,,,,,,,,,,,,,,,,,,,,,,,,,,,,,,,,,,,,,,,,,,,,,,,,
295435,2022-09-25_16h05.37.962,vts_reward_expectancy,2022.2.4,Win32,8.252459233,Chrome,2560,1440,,,a,0.8131,10,460,2,0,0,0,9,1,0,0,0,1,1,0,0,0,star,triangle,,,,,,,,,,,,,,,,,,,,,,,,,,,,,,,,,,,,,,,,,,,,,,,,,,,,,,
295435,2022-09-25_16h05.37.962,vts_reward_expectancy,2022.2.4,Win32,8.252459233,Chrome,2560,1440,,,a,0.6545,10,470,2,0,1,1,10,1,0,0,0,1,0,1,0,0,star ,circle,,,,,,,,,,,,,,,,,,,,,,,,,,,,,,,,,,,,,,,,,,,,,,,,,,,,,,
295435,2022-09-25_16h05.37.962,vts_reward_expectancy,2022.2.4,Win32,8.252459233,Chrome,2560,1440,,,a,0.6688,10,480,2,0,2,2,11,1,0,0,0,1,0,0,1,0,star,hexagon,,,,,,,,,,,,,,,,,,,,,,,,,,,,,,,,,,,,,,,,,,,,,,,,,,,,,,
295435,2022-09-25_16h05.37.962,vts_reward_expectancy,2022.2.4,Win32,8.252459233,Chrome,2560,1440,,,a,0.9499,10,490,2,0,3,3,6,1,0,0,1,0,1,0,0,0,hexagon,triangle,,,,,,,,,,,,,,,,,,,,,,,,,,,,,,,,,,,,,,,,,,,,,,,,,,,,,,
295435,2022-09-25_16h05.37.962,vts_reward_expectancy,2022.2.4,Win32,8.252459233,Chrome,2560,1440,,,a,1.2035,10,500,2,0,4,4,7,1,0,0,1,0,0,1,0,0,hexagon,circle,,,,,,,,,,,,,,,,,,,,,,,,,,,,,,,,,,,,,,,,,,,,,,,,,,,,,,
295435,2022-09-25_16h05.37.962,vts_reward_expectancy,2022.2.4,Win32,8.252459233,Chrome,2560,1440,,,l,0.9356,10,510,2,0,5,5,4,1,0,1,0,0,0,0,1,0,circle,hexagon,,,,,,,,,,,,,,,,,,,,,,,,,,,,,,,,,,,,,,,,,,,,,,,,,,,,,,
295435,2022-09-25_16h05.37.962,vts_reward_expectancy,2022.2.4,Win32,8.252459233,Chrome,2560,1440,,,a,2.1674,1,511,2,0,6,6,0,1,1,0,0,0,0,1,0,0,triangle,circle,,,,,,,,,,,,,,,,,,,,,,,,,,,,,,,,,,,,,,,,,,,,,,,,,,,,,,
295435,2022-09-25_16h05.37.962,vts_reward_expectancy,2022.2.4,Win32,8.252459233,Chrome,2560,1440,,,l,1.0614,10,521,2,0,7,7,5,1,0,1,0,0,0,0,0,1,circle,star,,,,,,,,,,,,,,,,,,,,,,,,,,,,,,,,,,,,,,,,,,,,,,,,,,,,,,
295435,2022-09-25_16h05.37.962,vts_reward_expectancy,2022.2.4,Win32,8.252459233,Chrome,2560,1440,,,l,2.9147,1,522,2,0,8,8,3,1,0,1,0,0,1,0,0,0,circle,triangle,,,,,,,,,,,,,,,,,,,,,,,,,,,,,,,,,,,,,,,,,,,,,,,,,,,,,,
295435,2022-09-25_16h05.37.962,vts_reward_expectancy,2022.2.4,Win32,8.252459233,Chrome,2560,1440,,,l,0.6804,10,532,2,0,9,9,8,1,0,0,1,0,0,0,0,1,hexagon,star,,,,,,,,,,,,,,,,,,,,,,,,,,,,,,,,,,,,,,,,,,,,,,,,,,,,,,
295435,2022-09-25_16h05.37.962,vts_reward_expectancy,2022.2.4,Win32,8.252459233,Chrome,2560,1440,,,l,0.6632,10,542,2,0,10,10,2,1,1,0,0,0,0,0,0,1,triangle,star,,,,,,,,,,,,,,,,,,,,,,,,,,,,,,,,,,,,,,,,,,,,,,,,,,,,,,
295435,2022-09-25_16h05.37.962,vts_reward_expectancy,2022.2.4,Win32,8.252459233,Chrome,2560,1440,,,l,1.6294,10,552,2,0,11,11,1,1,1,0,0,0,0,0,1,0,triangle,hexagon,,,,,,,,,,,,,,,,,,,,,,,,,,,,,,,,,,,,,,,,,,,,,,,,,,,,,,
295435,2022-09-25_16h05.37.962,vts_reward_expectancy,2022.2.4,Win32,8.252459233,Chrome,2560,1440,,,a,2.656,1,553,2,1,0,12,0,1,1,0,0,0,0,1,0,0,triangle,circle,,,,,,,,,,,,,,,,,,,,,,,,,,,,,,,,,,,,,,,,,,,,,,,,,,,,,,
295435,2022-09-25_16h05.37.962,vts_reward_expectancy,2022.2.4,Win32,8.252459233,Chrome,2560,1440,,,a,0.9505,1,554,2,1,1,13,11,1,0,0,0,1,0,0,1,0,star,hexagon,,,,,,,,,,,,,,,,,,,,,,,,,,,,,,,,,,,,,,,,,,,,,,,,,,,,,,
295435,2022-09-25_16h05.37.962,vts_reward_expectancy,2022.2.4,Win32,8.252459233,Chrome,2560,1440,,,a,1.329,1,555,2,1,2,14,10,1,0,0,0,1,0,1,0,0,star ,circle,,,,,,,,,,,,,,,,,,,,,,,,,,,,,,,,,,,,,,,,,,,,,,,,,,,,,,
295435,2022-09-25_16h05.37.962,vts_reward_expectancy,2022.2.4,Win32,8.252459233,Chrome,2560,1440,,,a,0.8445,10,565,2,1,3,15,6,1,0,0,1,0,1,0,0,0,hexagon,triangle,,,,,,,,,,,,,,,,,,,,,,,,,,,,,,,,,,,,,,,,,,,,,,,,,,,,,,
295435,2022-09-25_16h05.37.962,vts_reward_expectancy,2022.2.4,Win32,8.252459233,Chrome,2560,1440,,,l,1.0655,1,566,2,1,4,16,4,1,0,1,0,0,0,0,1,0,circle,hexagon,,,,,,,,,,,,,,,,,,,,,,,,,,,,,,,,,,,,,,,,,,,,,,,,,,,,,,
295435,2022-09-25_16h05.37.962,vts_reward_expectancy,2022.2.4,Win32,8.252459233,Chrome,2560,1440,,,l,0.8219,1,567,2,1,5,17,1,1,1,0,0,0,0,0,1,0,triangle,hexagon,,,,,,,,,,,,,,,,,,,,,,,,,,,,,,,,,,,,,,,,,,,,,,,,,,,,,,
295435,2022-09-25_16h05.37.962,vts_reward_expectancy,2022.2.4,Win32,8.252459233,Chrome,2560,1440,,,a,0.7885,1,568,2,1,6,18,3,1,0,1,0,0,1,0,0,0,circle,triangle,,,,,,,,,,,,,,,,,,,,,,,,,,,,,,,,,,,,,,,,,,,,,,,,,,,,,,
295435,2022-09-25_16h05.37.962,vts_reward_expectancy,2022.2.4,Win32,8.252459233,Chrome,2560,1440,,,a,2.7595,10,578,2,1,7,19,7,1,0,0,1,0,0,1,0,0,hexagon,circle,,,,,,,,,,,,,,,,,,,,,,,,,,,,,,,,,,,,,,,,,,,,,,,,,,,,,,
295435,2022-09-25_16h05.37.962,vts_reward_expectancy,2022.2.4,Win32,8.252459233,Chrome,2560,1440,,,l,1.4877,10,588,2,1,8,20,8,1,0,0,1,0,0,0,0,1,hexagon,star,,,,,,,,,,,,,,,,,,,,,,,,,,,,,,,,,,,,,,,,,,,,,,,,,,,,,,
295435,2022-09-25_16h05.37.962,vts_reward_expectancy,2022.2.4,Win32,8.252459233,Chrome,2560,1440,,,l,1.071,10,598,2,1,9,21,2,1,1,0,0,0,0,0,0,1,triangle,star,,,,,,,,,,,,,,,,,,,,,,,,,,,,,,,,,,,,,,,,,,,,,,,,,,,,,,
295435,2022-09-25_16h05.37.962,vts_reward_expectancy,2022.2.4,Win32,8.252459233,Chrome,2560,1440,,,a,1.0791,10,608,2,1,10,22,9,1,0,0,0,1,1,0,0,0,star,triangle,,,,,,,,,,,,,,,,,,,,,,,,,,,,,,,,,,,,,,,,,,,,,,,,,,,,,,
295435,2022-09-25_16h05.37.962,vts_reward_expectancy,2022.2.4,Win32,8.252459233,Chrome,2560,1440,,,l,1.8323,10,618,2,1,11,23,5,1,0,1,0,0,0,0,0,1,circle,star,,,,,,,,,,,,,,,,,,,,,,,,,,,,,,,,,,,,,,,,,,,,,,,,,,,,,,
295435,2022-09-25_16h05.37.962,vts_reward_expectancy,2022.2.4,Win32,8.252459233,Chrome,2560,1440,,,l,2.2979,10,628,2,2,0,24,8,1,0,0,1,0,0,0,0,1,hexagon,star,,,,,,,,,,,,,,,,,,,,,,,,,,,,,,,,,,,,,,,,,,,,,,,,,,,,,,
295435,2022-09-25_16h05.37.962,vts_reward_expectancy,2022.2.4,Win32,8.252459233,Chrome,2560,1440,,,a,2.3868,1,629,2,2,1,25,4,1,0,1,0,0,0,0,1,0,circle,hexagon,,,,,,,,,,,,,,,,,,,,,,,,,,,,,,,,,,,,,,,,,,,,,,,,,,,,,,
295435,2022-09-25_16h05.37.962,vts_reward_expectancy,2022.2.4,Win32,8.252459233,Chrome,2560,1440,,,a,0.9494,10,639,2,2,2,26,9,1,0,0,0,1,1,0,0,0,star,triangle,,,,,,,,,,,,,,,,,,,,,,,,,,,,,,,,,,,,,,,,,,,,,,,,,,,,,,
295435,2022-09-25_16h05.37.962,vts_reward_expectancy,2022.2.4,Win32,8.252459233,Chrome,2560,1440,,,a,2.5467,10,649,2,2,3,27,0,1,1,0,0,0,0,1,0,0,triangle,circle,,,,,,,,,,,,,,,,,,,,,,,,,,,,,,,,,,,,,,,,,,,,,,,,,,,,,,
295435,2022-09-25_16h05.37.962,vts_reward_expectancy,2022.2.4,Win32,8.252459233,Chrome,2560,1440,,,l,1.8546,1,650,2,2,4,28,5,1,0,1,0,0,0,0,0,1,circle,star,,,,,,,,,,,,,,,,,,,,,,,,,,,,,,,,,,,,,,,,,,,,,,,,,,,,,,
295435,2022-09-25_16h05.37.962,vts_reward_expectancy,2022.2.4,Win32,8.252459233,Chrome,2560,1440,,,a,1.07,1,651,2,2,5,29,7,1,0,0,1,0,0,1,0,0,hexagon,circle,,,,,,,,,,,,,,,,,,,,,,,,,,,,,,,,,,,,,,,,,,,,,,,,,,,,,,
295435,2022-09-25_16h05.37.962,vts_reward_expectancy,2022.2.4,Win32,8.252459233,Chrome,2560,1440,,,a,1.0791,1,652,2,2,6,30,11,1,0,0,0,1,0,0,1,0,star,hexagon,,,,,,,,,,,,,,,,,,,,,,,,,,,,,,,,,,,,,,,,,,,,,,,,,,,,,,
295435,2022-09-25_16h05.37.962,vts_reward_expectancy,2022.2.4,Win32,8.252459233,Chrome,2560,1440,,,l,0.802,10,662,2,2,7,31,10,1,0,0,0,1,0,1,0,0,star ,circle,,,,,,,,,,,,,,,,,,,,,,,,,,,,,,,,,,,,,,,,,,,,,,,,,,,,,,
295435,2022-09-25_16h05.37.962,vts_reward_expectancy,2022.2.4,Win32,8.252459233,Chrome,2560,1440,,,l,1.5941,10,672,2,2,8,32,1,1,1,0,0,0,0,0,1,0,triangle,hexagon,,,,,,,,,,,,,,,,,,,,,,,,,,,,,,,,,,,,,,,,,,,,,,,,,,,,,,
295435,2022-09-25_16h05.37.962,vts_reward_expectancy,2022.2.4,Win32,8.252459233,Chrome,2560,1440,,,a,1.8634,10,682,2,2,9,33,3,1,0,1,0,0,1,0,0,0,circle,triangle,,,,,,,,,,,,,,,,,,,,,,,,,,,,,,,,,,,,,,,,,,,,,,,,,,,,,,
295435,2022-09-25_16h05.37.962,vts_reward_expectancy,2022.2.4,Win32,8.252459233,Chrome,2560,1440,,,a,1.4724,10,692,2,2,10,34,6,1,0,0,1,0,1,0,0,0,hexagon,triangle,,,,,,,,,,,,,,,,,,,,,,,,,,,,,,,,,,,,,,,,,,,,,,,,,,,,,,
295435,2022-09-25_16h05.37.962,vts_reward_expectancy,2022.2.4,Win32,8.252459233,Chrome,2560,1440,,,l,1.3433,10,702,2,2,11,35,2,1,1,0,0,0,0,0,0,1,triangle,star,,,,,,,,,,,,,,,,,,,,,,,,,,,,,,,,,,,,,,,,,,,,,,,,,,,,,,
295435,2022-09-25_16h05.37.962,vts_reward_expectancy,2022.2.4,Win32,8.252459233,Chrome,2560,1440,,,,,,,,,,,,,,,,,,,,,,,W,125,hexagon,1,0,f,0.9343,0,0,0,0,0,1,,,,,,,,,,,,,,,,,,,,,,,,,,,,,,,,,,,,,,,,,
295435,2022-09-25_16h05.37.962,vts_reward_expectancy,2022.2.4,Win32,8.252459233,Chrome,2560,1440,,,,,,,,,,,,,,,,,,,,,,,F,181,star,1,0,d,0.6845,0,1,0,1,0,1,,,,,,,,,,,,,,,,,,,,,,,,,,,,,,,,,,,,,,,,,
295435,2022-09-25_16h05.37.962,vts_reward_expectancy,2022.2.4,Win32,8.252459233,Chrome,2560,1440,,,,,,,,,,,,,,,,,,,,,,,U,139,triangle,1,0,f,0.6993,0,2,0,2,0,1,,,,,,,,,,,,,,,,,,,,,,,,,,,,,,,,,,,,,,,,,
295435,2022-09-25_16h05.37.962,vts_reward_expectancy,2022.2.4,Win32,8.252459233,Chrome,2560,1440,,,,,,,,,,,,,,,,,,,,,,,S,160,circle,1,0,f,0.9404,0,3,0,3,0,1,,,,,,,,,,,,,,,,,,,,,,,,,,,,,,,,,,,,,,,,,
295435,2022-09-25_16h05.37.962,vts_reward_expectancy,2022.2.4,Win32,8.252459233,Chrome,2560,1440,,,,,,,,,,,,,,,,,,,,,,,D,167,hexagon,1,0,d,0.6796,0,4,0,4,0,1,,,,,,,,,,,,,,,,,,,,,,,,,,,,,,,,,,,,,,,,,
295435,2022-09-25_16h05.37.962,vts_reward_expectancy,2022.2.4,Win32,8.252459233,Chrome,2560,1440,,,,,,,,,,,,,,,,,,,,,,,H,174,star,1,0,d,0.9364,0,5,0,5,0,1,,,,,,,,,,,,,,,,,,,,,,,,,,,,,,,,,,,,,,,,,
295435,2022-09-25_16h05.37.962,vts_reward_expectancy,2022.2.4,Win32,8.252459233,Chrome,2560,1440,,,,,,,,,,,,,,,,,,,,,,,Y,132,triangle,1,0,f,0.6755,0,6,0,6,0,1,,,,,,,,,,,,,,,,,,,,,,,,,,,,,,,,,,,,,,,,,
295435,2022-09-25_16h05.37.962,vts_reward_expectancy,2022.2.4,Win32,8.252459233,Chrome,2560,1440,,,,,,,,,,,,,,,,,,,,,,,B,146,circle,1,0,d,0.6675,0,7,0,7,0,1,,,,,,,,,,,,,,,,,,,,,,,,,,,,,,,,,,,,,,,,,
295435,2022-09-25_16h05.37.962,vts_reward_expectancy,2022.2.4,Win32,8.252459233,Chrome,2560,1440,,,,,,,,,,,,,,,,,,,,,,,W,125,star,1,0,f,0.6944,0,8,0,8,0,1,,,,,,,,,,,,,,,,,,,,,,,,,,,,,,,,,,,,,,,,,
295435,2022-09-25_16h05.37.962,vts_reward_expectancy,2022.2.4,Win32,8.252459233,Chrome,2560,1440,,,,,,,,,,,,,,,,,,,,,,,F,181,hexagon,1,0,d,0.5429,0,9,0,9,0,1,,,,,,,,,,,,,,,,,,,,,,,,,,,,,,,,,,,,,,,,,
295435,2022-09-25_16h05.37.962,vts_reward_expectancy,2022.2.4,Win32,8.252459233,Chrome,2560,1440,,,,,,,,,,,,,,,,,,,,,,,S,146,star,1,0,,,1,,,,,,j,0.937,0,0,0,0,1,,,,,,,,,,,,,,,,,,,,,,,,,,,,,,,,,,
295435,2022-09-25_16h05.37.962,vts_reward_expectancy,2022.2.4,Win32,8.252459233,Chrome,2560,1440,,,,,,,,,,,,,,,,,,,,,,,U,174,triangle,1,0,,,1,,,,,,k,0.548,1,0,1,0,1,,,,,,,,,,,,,,,,,,,,,,,,,,,,,,,,,,
295435,2022-09-25_16h05.37.962,vts_reward_expectancy,2022.2.4,Win32,8.252459233,Chrome,2560,1440,,,,,,,,,,,,,,,,,,,,,,,H,167,hexagon,1,0,,,1,,,,,,k,0.6992,2,0,2,0,1,,,,,,,,,,,,,,,,,,,,,,,,,,,,,,,,,,
295435,2022-09-25_16h05.37.962,vts_reward_expectancy,2022.2.4,Win32,8.252459233,Chrome,2560,1440,,,,,,,,,,,,,,,,,,,,,,,Y,160,circle,1,0,,,1,,,,,,k,0.6695,3,0,3,0,1,,,,,,,,,,,,,,,,,,,,,,,,,,,,,,,,,,
295435,2022-09-25_16h05.37.962,vts_reward_expectancy,2022.2.4,Win32,8.252459233,Chrome,2560,1440,,,,,,,,,,,,,,,,,,,,,,,W,125,star,1,0,,,1,,,,,,j,0.6713,4,0,4,0,1,,,,,,,,,,,,,,,,,,,,,,,,,,,,,,,,,,
295435,2022-09-25_16h05.37.962,vts_reward_expectancy,2022.2.4,Win32,8.252459233,Chrome,2560,1440,,,,,,,,,,,,,,,,,,,,,,,F,181,triangle,1,0,,,1,,,,,,k,0.8119,5,0,5,0,1,,,,,,,,,,,,,,,,,,,,,,,,,,,,,,,,,,
295435,2022-09-25_16h05.37.962,vts_reward_expectancy,2022.2.4,Win32,8.252459233,Chrome,2560,1440,,,,,,,,,,,,,,,,,,,,,,,B,132,hexagon,1,0,,,1,,,,,,j,0.698,6,0,6,0,1,,,,,,,,,,,,,,,,,,,,,,,,,,,,,,,,,,
295435,2022-09-25_16h05.37.962,vts_reward_expectancy,2022.2.4,Win32,8.252459233,Chrome,2560,1440,,,,,,,,,,,,,,,,,,,,,,,D,139,circle,1,0,,,1,,,,,,j,0.5597,7,0,7,0,1,,,,,,,,,,,,,,,,,,,,,,,,,,,,,,,,,,
295435,2022-09-25_16h05.37.962,vts_reward_expectancy,2022.2.4,Win32,8.252459233,Chrome,2560,1440,,,,,,,,,,,,,,,,,,,,,,,S,146,star,1,0,,,1,,,,,,j,0.7006,8,0,8,0,1,,,,,,,,,,,,,,,,,,,,,,,,,,,,,,,,,,
295435,2022-09-25_16h05.37.962,vts_reward_expectancy,2022.2.4,Win32,8.252459233,Chrome,2560,1440,,,,,,,,,,,,,,,,,,,,,,,U,174,hexagon,1,0,,,1,,,,,,k,0.6664,9,0,9,0,1,,,,,,,,,,,,,,,,,,,,,,,,,,,,,,,,,,
295435,2022-09-25_16h05.37.962,vts_reward_expectancy,2022.2.4,Win32,8.252459233,Chrome,2560,1440,,,,,0,702,,,,,,,,,,,,,,,,,Y,167,triangle,0,0,,,2,,,,,,,,,,,,,-1,letter,NA,d,1.7469,vtsPrac,0,0,0,0,1,,,,,,,,,,,,,,,,,,,,,,,
295435,2022-09-25_16h05.37.962,vts_reward_expectancy,2022.2.4,Win32,8.252459233,Chrome,2560,1440,,,,,0,702,,,,,,,,,,,,,,,,,S,125,star,0,1,,,2,,,,,,,,,,,,,repeat,letter,NA,d,1.7408,vtsPrac,1,0,1,0,1,,,,,,,,,,,,,,,,,,,,,,,
295435,2022-09-25_16h05.37.962,vts_reward_expectancy,2022.2.4,Win32,8.252459233,Chrome,2560,1440,,,,,0,702,,,,,,,,,,,,,,,,,H,160,triangle,1,1,,,2,,,,,,,,,,,,,repeat,letter,lettRpt,d,0.9754,vtsPrac,2,0,2,0,1,,,,,,,,,,,,,,,,,,,,,,,
295435,2022-09-25_16h05.37.962,vts_reward_expectancy,2022.2.4,Win32,8.252459233,Chrome,2560,1440,,,,,0,702,,,,,,,,,,,,,,,,,W,146,star,1,0,,,2,,,,,,,,,,,,,switch,number,numSwt,j,0.9513,vtsPrac,3,0,3,0,1,,,,,,,,,,,,,,,,,,,,,,,
295435,2022-09-25_16h05.37.962,vts_reward_expectancy,2022.2.4,Win32,8.252459233,Chrome,2560,1440,,,,,0,702,,,,,,,,,,,,,,,,,Y,167,circle,1,0,,,2,,,,,,,,,,,,,switch,letter,lettSwt,f,1.2072,vtsPrac,4,0,4,0,1,,,,,,,,,,,,,,,,,,,,,,,
295435,2022-09-25_16h05.37.962,vts_reward_expectancy,2022.2.4,Win32,8.252459233,Chrome,2560,1440,,,,,0,702,,,,,,,,,,,,,,,,,S,125,triangle,1,0,,,2,,,,,,,,,,,,,repeat,letter,lettRpt,f,0.8546,vtsPrac,5,0,5,0,1,,,,,,,,,,,,,,,,,,,,,,,
295435,2022-09-25_16h05.37.962,vts_reward_expectancy,2022.2.4,Win32,8.252459233,Chrome,2560,1440,,,,,0,702,,,,,,,,,,,,,,,,,H,160,star,1,0,,,2,,,,,,,,,,,,,switch,number,numSwt,k,0.9744,vtsPrac,6,0,6,0,1,,,,,,,,,,,,,,,,,,,,,,,
295435,2022-09-25_16h05.37.962,vts_reward_expectancy,2022.2.4,Win32,8.252459233,Chrome,2560,1440,,,,,0,702,,,,,,,,,,,,,,,,,W,146,hexagon,1,0,,,2,,,,,,,,,,,,,repeat,number,numRpt,j,0.8464,vtsPrac,7,0,7,0,1,,,,,,,,,,,,,,,,,,,,,,,
295435,2022-09-25_16h05.37.962,vts_reward_expectancy,2022.2.4,Win32,8.252459233,Chrome,2560,1440,,,,,0,702,,,,,,,,,,,,,,,,,U,167,star,1,0,,,2,,,,,,,,,,,,,repeat,number,numRpt,k,0.809,vtsPrac,8,0,8,0,1,,,,,,,,,,,,,,,,,,,,,,,
295435,2022-09-25_16h05.37.962,vts_reward_expectancy,2022.2.4,Win32,8.252459233,Chrome,2560,1440,,,,,0,702,,,,,,,,,,,,,,,,,S,139,hexagon,1,0,,,2,,,,,,,,,,,,,switch,letter,lettSwt,f,0.8387,vtsPrac,9,0,9,0,1,,,,,,,,,,,,,,,,,,,,,,,
295435,2022-09-25_16h05.37.962,vts_reward_expectancy,2022.2.4,Win32,8.252459233,Chrome,2560,1440,,,,,0,702,,,,,,,,,,,,,,,,,Y,174,circle,1,0,,,2,,,,,,,,,,,,,repeat,letter,lettRpt,f,0.8218,vtsPrac,10,0,10,0,1,,,,,,,,,,,,,,,,,,,,,,,
295435,2022-09-25_16h05.37.962,vts_reward_expectancy,2022.2.4,Win32,8.252459233,Chrome,2560,1440,,,,,0,702,,,,,,,,,,,,,,,,,B,146,star,1,0,,,2,,,,,,,,,,,,,repeat,letter,lettRpt,d,0.5541,vtsPrac,11,0,11,0,1,,,,,,,,,,,,,,,,,,,,,,,
295435,2022-09-25_16h05.37.962,vts_reward_expectancy,2022.2.4,Win32,8.252459233,Chrome,2560,1440,,,,,0,702,,,,,,,,,,,,,,,,,W,174,star,1,0,,,2,,,,,,,,,,,,,switch,number,numSwt,k,0.9586,vtsPrac,12,0,12,0,1,,,,,,,,,,,,,,,,,,,,,,,
295435,2022-09-25_16h05.37.962,vts_reward_expectancy,2022.2.4,Win32,8.252459233,Chrome,2560,1440,,,,,0,702,,,,,,,,,,,,,,,,,D,132,circle,1,0,,,2,,,,,,,,,,,,,repeat,number,numRpt,j,0.5619,vtsPrac,13,0,13,0,1,,,,,,,,,,,,,,,,,,,,,,,
295435,2022-09-25_16h05.37.962,vts_reward_expectancy,2022.2.4,Win32,8.252459233,Chrome,2560,1440,,,,,0,702,,,,,,,,,,,,,,,,,U,181,hexagon,1,0,,,2,,,,,,,,,,,,,repeat,number,numRpt,k,0.9534,vtsPrac,14,0,14,0,1,,,,,,,,,,,,,,,,,,,,,,,
295435,2022-09-25_16h05.37.962,vts_reward_expectancy,2022.2.4,Win32,8.252459233,Chrome,2560,1440,,,,,0,702,,,,,,,,,,,,,,,,,Y,146,circle,1,0,,,2,,,,,,,,,,,,,repeat,number,numRpt,j,0.6911,vtsPrac,15,0,15,0,1,,,,,,,,,,,,,,,,,,,,,,,
295435,2022-09-25_16h05.37.962,vts_reward_expectancy,2022.2.4,Win32,8.252459233,Chrome,2560,1440,,,,,,,,,,,,,,,,,,,,,,,,,,,,,,,,,,,,,,,,,,,,,,,,,,,,,,,,,,,,,,,,,,,,,,,,,,,,
295435,2022-09-25_16h05.37.962,vts_reward_expectancy,2022.2.4,Win32,8.252459233,Chrome,2560,1440,,,,,,,,,,,,,,,,,,,,,,,,,,,,,,,,,,,,,,,,,,,,,,,,,,,,,,,,,,,,,,,,,,,,,,,,,,,,
295435,2022-09-25_16h05.37.962,vts_reward_expectancy,2022.2.4,Win32,8.252459233,Chrome,2560,1440,,,,,0,702,,,,,,,,,,,,,,,,,U,139,hexagon,1,0,,,,,,,,,,,,,,,,switch,letter,lettSwt,f,0.9658,noRew,,,,,,0,0,0,0,0,1,,,,,,,,,,,,,,,,,
295435,2022-09-25_16h05.37.962,vts_reward_expectancy,2022.2.4,Win32,8.252459233,Chrome,2560,1440,,,,,0,702,,,,,,,,,,,,,,,,,Y,132,circle,1,0,,,,,,,,,,,,,,,,repeat,letter,lettRpt,f,0.695,noRew,,,,,,0,1,0,1,0,1,,,,,,,,,,,,,,,,,
295435,2022-09-25_16h05.37.962,vts_reward_expectancy,2022.2.4,Win32,8.252459233,Chrome,2560,1440,,,,,0,702,,,,,,,,,,,,,,,,,W,174,hexagon,1,0,,,,,,,,,,,,,,,,switch,number,numSwt,k,1.0855,noRew,,,,,,0,2,0,2,0,1,,,,,,,,,,,,,,,,,
295435,2022-09-25_16h05.37.962,vts_reward_expectancy,2022.2.4,Win32,8.252459233,Chrome,2560,1440,,,,,0,702,,,,,,,,,,,,,,,,,B,146,circle,1,0,,,,,,,,,,,,,,,,repeat,number,numRpt,j,0.9644,noRew,,,,,,0,3,0,3,0,1,,,,,,,,,,,,,,,,,
295435,2022-09-25_16h05.37.962,vts_reward_expectancy,2022.2.4,Win32,8.252459233,Chrome,2560,1440,,,,,0,702,,,,,,,,,,,,,,,,,U,139,star,1,0,,,,,,,,,,,,,,,,switch,letter,lettSwt,f,0.8287,noRew,,,,,,0,4,0,4,0,1,,,,,,,,,,,,,,,,,
295435,2022-09-25_16h05.37.962,vts_reward_expectancy,2022.2.4,Win32,8.252459233,Chrome,2560,1440,,,,,0,702,,,,,,,,,,,,,,,,,Y,132,circle,1,0,,,,,,,,,,,,,,,,switch,number,numSwt,j,0.803,noRew,,,,,,0,5,0,5,0,1,,,,,,,,,,,,,,,,,
295435,2022-09-25_16h05.37.962,vts_reward_expectancy,2022.2.4,Win32,8.252459233,Chrome,2560,1440,,,,,0,702,,,,,,,,,,,,,,,,,W,174,star,1,0,,,,,,,,,,,,,,,,switch,letter,lettSwt,f,0.81,noRew,,,,,,0,6,0,6,0,1,,,,,,,,,,,,,,,,,
295435,2022-09-25_16h05.37.962,vts_reward_expectancy,2022.2.4,Win32,8.252459233,Chrome,2560,1440,,,,,0,702,,,,,,,,,,,,,,,,,B,146,hexagon,1,0,,,,,,,,,,,,,,,,repeat,letter,lettRpt,d,0.6731,noRew,,,,,,0,7,0,7,0,1,,,,,,,,,,,,,,,,,
295435,2022-09-25_16h05.37.962,vts_reward_expectancy,2022.2.4,Win32,8.252459233,Chrome,2560,1440,,,,,0,702,,,,,,,,,,,,,,,,,U,125,circle,1,0,,,,,,,,,,,,,,,,switch,number,numSwt,j,1.4932,noRew,,,,,,0,8,0,8,0,1,,,,,,,,,,,,,,,,,
295435,2022-09-25_16h05.37.962,vts_reward_expectancy,2022.2.4,Win32,8.252459233,Chrome,2560,1440,,,,,0,702,,,,,,,,,,,,,,,,,S,160,triangle,1,0,,,,,,,,,,,,,,,,repeat,number,numRpt,k,1.6665,noRew,,,,,,0,9,0,9,0,1,,,,,,,,,,,,,,,,,
295435,2022-09-25_16h05.37.962,vts_reward_expectancy,2022.2.4,Win32,8.252459233,Chrome,2560,1440,,,,,0,702,,,,,,,,,,,,,,,,,W,132,hexagon,1,0,,,,,,,,,,,,,,,,repeat,number,numRpt,j,0.6805,noRew,,,,,,0,10,0,10,0,1,,,,,,,,,,,,,,,,,
295435,2022-09-25_16h05.37.962,vts_reward_expectancy,2022.2.4,Win32,8.252459233,Chrome,2560,1440,,,,,0,702,,,,,,,,,,,,,,,,,D,167,star,1,0,,,,,,,,,,,,,,,,switch,letter,lettSwt,d,0.8055,noRew,,,,,,0,11,0,11,0,1,,,,,,,,,,,,,,,,,
295435,2022-09-25_16h05.37.962,vts_reward_expectancy,2022.2.4,Win32,8.252459233,Chrome,2560,1440,,,,,0,702,,,,,,,,,,,,,,,,,U,181,triangle,1,0,,,,,,,,,,,,,,,,repeat,letter,lettRpt,f,0.547,noRew,,,,,,0,12,0,12,0,1,,,,,,,,,,,,,,,,,
295435,2022-09-25_16h05.37.962,vts_reward_expectancy,2022.2.4,Win32,8.252459233,Chrome,2560,1440,,,,,0,702,,,,,,,,,,,,,,,,,H,125,hexagon,1,0,,,,,,,,,,,,,,,,repeat,letter,lettRpt,d,1.2192,noRew,,,,,,0,13,0,13,0,1,,,,,,,,,,,,,,,,,
295435,2022-09-25_16h05.37.962,vts_reward_expectancy,2022.2.4,Win32,8.252459233,Chrome,2560,1440,,,,,0,702,,,,,,,,,,,,,,,,,B,174,star,1,0,,,,,,,,,,,,,,,,switch,number,numSwt,k,0.6865,noRew,,,,,,0,14,0,14,0,1,,,,,,,,,,,,,,,,,
295435,2022-09-25_16h05.37.962,vts_reward_expectancy,2022.2.4,Win32,8.252459233,Chrome,2560,1440,,,,,0,702,,,,,,,,,,,,,,,,,F,146,hexagon,1,0,,,,,,,,,,,,,,,,switch,letter,lettSwt,d,1.3655,noRew,,,,,,0,15,0,15,0,1,,,,,,,,,,,,,,,,,
295435,2022-09-25_16h05.37.962,vts_reward_expectancy,2022.2.4,Win32,8.252459233,Chrome,2560,1440,,,,,0,702,,,,,,,,,,,,,,,,,B,167,triangle,1,0,,,,,,,,,,,,,,,,repeat,letter,lettRpt,d,0.6904,noRew,,,,,,0,16,0,16,0,1,,,,,,,,,,,,,,,,,
295435,2022-09-25_16h05.37.962,vts_reward_expectancy,2022.2.4,Win32,8.252459233,Chrome,2560,1440,,,,,0,702,,,,,,,,,,,,,,,,,U,174,hexagon,1,0,,,,,,,,,,,,,,,,switch,number,numSwt,k,0.8314,noRew,,,,,,0,17,0,17,0,1,,,,,,,,,,,,,,,,,
295435,2022-09-25_16h05.37.962,vts_reward_expectancy,2022.2.4,Win32,8.252459233,Chrome,2560,1440,,,,,0,702,,,,,,,,,,,,,,,,,D,160,triangle,1,0,,,,,,,,,,,,,,,,repeat,number,numRpt,k,0.8223,noRew,,,,,,0,18,0,18,0,1,,,,,,,,,,,,,,,,,
295435,2022-09-25_16h05.37.962,vts_reward_expectancy,2022.2.4,Win32,8.252459233,Chrome,2560,1440,,,,,0,702,,,,,,,,,,,,,,,,,Y,132,circle,1,0,,,,,,,,,,,,,,,,repeat,number,numRpt,j,0.8027,noRew,,,,,,0,19,0,19,0,1,,,,,,,,,,,,,,,,,
295435,2022-09-25_16h05.37.962,vts_reward_expectancy,2022.2.4,Win32,8.252459233,Chrome,2560,1440,,,,,0,702,,,,,,,,,,,,,,,,,H,139,circle,1,0,,,,,,,,,,,,,,,,switch,letter,lettSwt,d,0.815,noRew,,,,,,0,20,0,20,0,1,,,,,,,,,,,,,,,,,
295435,2022-09-25_16h05.37.962,vts_reward_expectancy,2022.2.4,Win32,8.252459233,Chrome,2560,1440,,,,,0,702,,,,,,,,,,,,,,,,,W,181,hexagon,1,0,,,,,,,,,,,,,,,,switch,number,numSwt,k,0.8336,noRew,,,,,,0,21,0,21,0,1,,,,,,,,,,,,,,,,,
295435,2022-09-25_16h05.37.962,vts_reward_expectancy,2022.2.4,Win32,8.252459233,Chrome,2560,1440,,,,,0,702,,,,,,,,,,,,,,,,,F,167,star,1,0,,,,,,,,,,,,,,,,repeat,number,numRpt,k,1.0922,noRew,,,,,,0,22,0,22,0,1,,,,,,,,,,,,,,,,,
295435,2022-09-25_16h05.37.962,vts_reward_expectancy,2022.2.4,Win32,8.252459233,Chrome,2560,1440,,,,,0,702,,,,,,,,,,,,,,,,,Y,160,triangle,1,0,,,,,,,,,,,,,,,,switch,letter,lettSwt,f,1.0805,noRew,,,,,,0,23,0,23,0,1,,,,,,,,,,,,,,,,,
295435,2022-09-25_16h05.37.962,vts_reward_expectancy,2022.2.4,Win32,8.252459233,Chrome,2560,1440,,,,,0,702,,,,,,,,,,,,,,,,,B,125,triangle,1,0,,,,,,,,,,,,,,,,repeat,letter,lettRpt,d,0.8255,noRew,,,,,,0,24,0,24,0,1,,,,,,,,,,,,,,,,,
295435,2022-09-25_16h05.37.962,vts_reward_expectancy,2022.2.4,Win32,8.252459233,Chrome,2560,1440,,,,,0,702,,,,,,,,,,,,,,,,,U,146,circle,1,0,,,,,,,,,,,,,,,,repeat,letter,lettRpt,f,0.5363,noRew,,,,,,0,25,0,25,0,1,,,,,,,,,,,,,,,,,
295435,2022-09-25_16h05.37.962,vts_reward_expectancy,2022.2.4,Win32,8.252459233,Chrome,2560,1440,,,,,0,702,,,,,,,,,,,,,,,,,H,167,triangle,1,0,,,,,,,,,,,,,,,,switch,number,numSwt,k,0.8242,noRew,,,,,,0,26,0,26,0,1,,,,,,,,,,,,,,,,,
295435,2022-09-25_16h05.37.962,vts_reward_expectancy,2022.2.4,Win32,8.252459233,Chrome,2560,1440,,,,,0,702,,,,,,,,,,,,,,,,,F,174,star,1,0,,,,,,,,,,,,,,,,repeat,number,numRpt,k,0.6736,noRew,,,,,,0,27,0,27,0,1,,,,,,,,,,,,,,,,,
295435,2022-09-25_16h05.37.962,vts_reward_expectancy,2022.2.4,Win32,8.252459233,Chrome,2560,1440,,,,,0,702,,,,,,,,,,,,,,,,,S,125,hexagon,1,0,,,,,,,,,,,,,,,,repeat,number,numRpt,j,1.474,noRew,,,,,,0,28,0,28,0,1,,,,,,,,,,,,,,,,,
295435,2022-09-25_16h05.37.962,vts_reward_expectancy,2022.2.4,Win32,8.252459233,Chrome,2560,1440,,,,,0,702,,,,,,,,,,,,,,,,,W,139,circle,1,0,,,,,,,,,,,,,,,,switch,letter,lettSwt,f,1.9112,noRew,,,,,,0,29,0,29,0,1,,,,,,,,,,,,,,,,,
295435,2022-09-25_16h05.37.962,vts_reward_expectancy,2022.2.4,Win32,8.252459233,Chrome,2560,1440,,,,,0,702,,,,,,,,,,,,,,,,,D,146,circle,1,0,,,,,,,,,,,,,,,,repeat,letter,lettRpt,d,0.695,noRew,,,,,,0,30,0,30,0,1,,,,,,,,,,,,,,,,,
295435,2022-09-25_16h05.37.962,vts_reward_expectancy,2022.2.4,Win32,8.252459233,Chrome,2560,1440,,,,,0,702,,,,,,,,,,,,,,,,,F,181,triangle,1,0,,,,,,,,,,,,,,,,repeat,letter,lettRpt,d,0.6824,noRew,,,,,,0,31,0,31,0,1,,,,,,,,,,,,,,,,,
295435,2022-09-25_16h05.37.962,vts_reward_expectancy,2022.2.4,Win32,8.252459233,Chrome,2560,1440,,,,,0,702,,,,,,,,,,,,,,,,,F,146,circle,1,0,,,,,,,,,,,,,,,,switch,number,numSwt,j,0.9435,noRew,,,,,,0,32,0,32,0,1,,,,,,,,,,,,,,,,,
295435,2022-09-25_16h05.37.962,vts_reward_expectancy,2022.2.4,Win32,8.252459233,Chrome,2560,1440,,,,,0,702,,,,,,,,,,,,,,,,,S,139,triangle,1,0,,,,,,,,,,,,,,,,switch,letter,lettSwt,f,0.8059,noRew,,,,,,0,33,0,33,0,1,,,,,,,,,,,,,,,,,
295435,2022-09-25_16h05.37.962,vts_reward_expectancy,2022.2.4,Win32,8.252459233,Chrome,2560,1440,,,,,0,702,,,,,,,,,,,,,,,,,B,125,hexagon,1,0,,,,,,,,,,,,,,,,repeat,letter,lettRpt,d,0.8015,noRew,,,,,,0,34,0,34,0,1,,,,,,,,,,,,,,,,,
295435,2022-09-25_16h05.37.962,vts_reward_expectancy,2022.2.4,Win32,8.252459233,Chrome,2560,1440,,,,,0,702,,,,,,,,,,,,,,,,,D,132,star,1,0,,,,,,,,,,,,,,,,switch,number,numSwt,j,1.2095,noRew,,,,,,0,35,0,35,0,1,,,,,,,,,,,,,,,,,
295435,2022-09-25_16h05.37.962,vts_reward_expectancy,2022.2.4,Win32,8.252459233,Chrome,2560,1440,,,,,0,702,,,,,,,,,,,,,,,,,B,160,triangle,1,0,,,,,,,,,,,,,,,,switch,letter,lettSwt,d,1.5992,noRew,,,,,,0,36,0,36,0,1,,,,,,,,,,,,,,,,,
295435,2022-09-25_16h05.37.962,vts_reward_expectancy,2022.2.4,Win32,8.252459233,Chrome,2560,1440,,,,,0,702,,,,,,,,,,,,,,,,,S,139,star,1,0,,,,,,,,,,,,,,,,switch,number,numSwt,j,0.9768,noRew,,,,,,0,37,0,37,0,1,,,,,,,,,,,,,,,,,
295435,2022-09-25_16h05.37.962,vts_reward_expectancy,2022.2.4,Win32,8.252459233,Chrome,2560,1440,,,,,0,702,,,,,,,,,,,,,,,,,H,125,hexagon,1,0,,,,,,,,,,,,,,,,repeat,number,numRpt,j,0.9622,noRew,,,,,,0,38,0,38,0,1,,,,,,,,,,,,,,,,,
295435,2022-09-25_16h05.37.962,vts_reward_expectancy,2022.2.4,Win32,8.252459233,Chrome,2560,1440,,,,,0,702,,,,,,,,,,,,,,,,,Y,181,circle,1,0,,,,,,,,,,,,,,,,repeat,number,numRpt,k,0.6805,noRew,,,,,,0,39,0,39,0,1,,,,,,,,,,,,,,,,,
295435,2022-09-25_16h05.37.962,vts_reward_expectancy,2022.2.4,Win32,8.252459233,Chrome,2560,1440,,,,,0,702,,,,,,,,,,,,,,,,,D,132,hexagon,1,0,,,,,,,,,,,,,,,,switch,letter,lettSwt,d,0.6855,noRew,,,,,,0,40,0,40,0,1,,,,,,,,,,,,,,,,,
295435,2022-09-25_16h05.37.962,vts_reward_expectancy,2022.2.4,Win32,8.252459233,Chrome,2560,1440,,,,,0,702,,,,,,,,,,,,,,,,,S,174,circle,1,0,,,,,,,,,,,,,,,,repeat,letter,lettRpt,f,0.9668,noRew,,,,,,0,41,0,41,0,1,,,,,,,,,,,,,,,,,
295435,2022-09-25_16h05.37.962,vts_reward_expectancy,2022.2.4,Win32,8.252459233,Chrome,2560,1440,,,,,0,702,,,,,,,,,,,,,,,,,H,146,star,1,0,,,,,,,,,,,,,,,,repeat,letter,lettRpt,d,1.0873,noRew,,,,,,0,42,0,42,0,1,,,,,,,,,,,,,,,,,
295435,2022-09-25_16h05.37.962,vts_reward_expectancy,2022.2.4,Win32,8.252459233,Chrome,2560,1440,,,,,0,702,,,,,,,,,,,,,,,,,U,167,triangle,1,0,,,,,,,,,,,,,,,,repeat,letter,lettRpt,f,0.8035,noRew,,,,,,0,43,0,43,0,1,,,,,,,,,,,,,,,,,
295435,2022-09-25_16h05.37.962,vts_reward_expectancy,2022.2.4,Win32,8.252459233,Chrome,2560,1440,,,,,0,702,,,,,,,,,,,,,,,,,F,146,triangle,1,0,,,,,,,,,,,,,,,,switch,number,numSwt,j,0.8015,noRew,,,,,,0,44,0,44,0,1,,,,,,,,,,,,,,,,,
295435,2022-09-25_16h05.37.962,vts_reward_expectancy,2022.2.4,Win32,8.252459233,Chrome,2560,1440,,,,,0,702,,,,,,,,,,,,,,,,,U,160,hexagon,1,0,,,,,,,,,,,,,,,,repeat,number,numRpt,k,0.9468,noRew,,,,,,0,45,0,45,0,1,,,,,,,,,,,,,,,,,
295435,2022-09-25_16h05.37.962,vts_reward_expectancy,2022.2.4,Win32,8.252459233,Chrome,2560,1440,,,,,0,702,,,,,,,,,,,,,,,,,H,125,circle,1,0,,,,,,,,,,,,,,,,switch,letter,lettSwt,d,0.8291,noRew,,,,,,0,46,0,46,0,1,,,,,,,,,,,,,,,,,
295435,2022-09-25_16h05.37.962,vts_reward_expectancy,2022.2.4,Win32,8.252459233,Chrome,2560,1440,,,,,0,702,,,,,,,,,,,,,,,,,S,181,star,1,0,,,,,,,,,,,,,,,,switch,number,numSwt,k,0.9588,noRew,,,,,,0,47,0,47,0,1,,,,,,,,,,,,,,,,,
295435,2022-09-25_16h05.37.962,vts_reward_expectancy,2022.2.4,Win32,8.252459233,Chrome,2560,1440,,,,,0,702,,,,,,,,,,,,,,,,,B,132,star,1,0,,,,,,,,,,,,,,,,switch,letter,lettSwt,d,0.8061,noRew,,,,,,0,48,0,48,0,1,,,,,,,,,,,,,,,,,
295435,2022-09-25_16h05.37.962,vts_reward_expectancy,2022.2.4,Win32,8.252459233,Chrome,2560,1440,,,,,0,702,,,,,,,,,,,,,,,,,S,174,hexagon,1,0,,,,,,,,,,,,,,,,repeat,letter,lettRpt,f,0.6993,noRew,,,,,,0,49,0,49,0,1,,,,,,,,,,,,,,,,,
295435,2022-09-25_16h05.37.962,vts_reward_expectancy,2022.2.4,Win32,8.252459233,Chrome,2560,1440,,,,,0,702,,,,,,,,,,,,,,,,,H,160,hexagon,1,0,,,,,,,,,,,,,,,,repeat,letter,lettRpt,d,0.9593,noRew,,,,,,0,50,0,50,0,1,,,,,,,,,,,,,,,,,
295435,2022-09-25_16h05.37.962,vts_reward_expectancy,2022.2.4,Win32,8.252459233,Chrome,2560,1440,,,,,0,702,,,,,,,,,,,,,,,,,F,181,triangle,1,0,,,,,,,,,,,,,,,,switch,number,numSwt,k,0.6867,noRew,,,,,,0,51,0,51,0,1,,,,,,,,,,,,,,,,,
295435,2022-09-25_16h05.37.962,vts_reward_expectancy,2022.2.4,Win32,8.252459233,Chrome,2560,1440,,,,,0,702,,,,,,,,,,,,,,,,,B,146,star,1,0,,,,,,,,,,,,,,,,repeat,number,numRpt,j,0.8322,noRew,,,,,,0,52,0,52,0,1,,,,,,,,,,,,,,,,,
295435,2022-09-25_16h05.37.962,vts_reward_expectancy,2022.2.4,Win32,8.252459233,Chrome,2560,1440,,,,,0,702,,,,,,,,,,,,,,,,,S,174,hexagon,1,0,,,,,,,,,,,,,,,,switch,letter,lettSwt,f,0.8065,noRew,,,,,,0,53,0,53,0,1,,,,,,,,,,,,,,,,,
295435,2022-09-25_16h05.37.962,vts_reward_expectancy,2022.2.4,Win32,8.252459233,Chrome,2560,1440,,,,,0,702,,,,,,,,,,,,,,,,,H,160,star,1,0,,,,,,,,,,,,,,,,switch,number,numSwt,k,1.4878,noRew,,,,,,0,54,0,54,0,1,,,,,,,,,,,,,,,,,
295435,2022-09-25_16h05.37.962,vts_reward_expectancy,2022.2.4,Win32,8.252459233,Chrome,2560,1440,,,,,0,702,,,,,,,,,,,,,,,,,D,181,triangle,1,0,,,,,,,,,,,,,,,,switch,letter,lettSwt,d,0.8128,noRew,,,,,,0,55,0,55,0,1,,,,,,,,,,,,,,,,,
295435,2022-09-25_16h05.37.962,vts_reward_expectancy,2022.2.4,Win32,8.252459233,Chrome,2560,1440,,,,,0,702,,,,,,,,,,,,,,,,,S,167,triangle,1,0,,,,,,,,,,,,,,,,repeat,letter,lettRpt,f,0.9723,noRew,,,,,,0,56,0,56,0,1,,,,,,,,,,,,,,,,,
295435,2022-09-25_16h05.37.962,vts_reward_expectancy,2022.2.4,Win32,8.252459233,Chrome,2560,1440,,,,,0,702,,,,,,,,,,,,,,,,,H,174,star,1,0,,,,,,,,,,,,,,,,switch,number,numSwt,k,0.9535,noRew,,,,,,0,57,0,57,0,1,,,,,,,,,,,,,,,,,
295435,2022-09-25_16h05.37.962,vts_reward_expectancy,2022.2.4,Win32,8.252459233,Chrome,2560,1440,,,,,0,702,,,,,,,,,,,,,,,,,U,125,star,1,0,,,,,,,,,,,,,,,,switch,letter,lettSwt,f,1.4765,noRew,,,,,,0,58,0,58,0,1,,,,,,,,,,,,,,,,,
295435,2022-09-25_16h05.37.962,vts_reward_expectancy,2022.2.4,Win32,8.252459233,Chrome,2560,1440,,,,,0,702,,,,,,,,,,,,,,,,,Y,181,hexagon,1,0,,,,,,,,,,,,,,,,repeat,letter,lettRpt,f,1.0754,noRew,,,,,,0,59,0,59,0,1,,,,,,,,,,,,,,,,,
295435,2022-09-25_16h05.37.962,vts_reward_expectancy,2022.2.4,Win32,8.252459233,Chrome,2560,1440,,,,,0,702,,,,,,,,,,,,,,,,,Y,167,circle,1,0,,,,,,,,,,,,,,,,repeat,letter,lettRpt,f,0.8187,noRew,,,,,,0,60,0,60,0,1,,,,,,,,,,,,,,,,,
295435,2022-09-25_16h05.37.962,vts_reward_expectancy,2022.2.4,Win32,8.252459233,Chrome,2560,1440,,,,,0,702,,,,,,,,,,,,,,,,,B,146,star,1,0,,,,,,,,,,,,,,,,repeat,letter,lettRpt,d,0.9401,noRew,,,,,,0,61,0,61,0,1,,,,,,,,,,,,,,,,,
295435,2022-09-25_16h05.37.962,vts_reward_expectancy,2022.2.4,Win32,8.252459233,Chrome,2560,1440,,,,,0,702,,,,,,,,,,,,,,,,,S,181,triangle,1,0,,,,,,,,,,,,,,,,switch,number,numSwt,k,1.3611,noRew,,,,,,0,62,0,62,0,1,,,,,,,,,,,,,,,,,
295435,2022-09-25_16h05.37.962,vts_reward_expectancy,2022.2.4,Win32,8.252459233,Chrome,2560,1440,,,,,0,702,,,,,,,,,,,,,,,,,D,139,hexagon,1,0,,,,,,,,,,,,,,,,repeat,number,numRpt,j,1.4015,noRew,,,,,,0,63,0,63,0,1,,,,,,,,,,,,,,,,,
295435,2022-09-25_16h05.37.962,vts_reward_expectancy,2022.2.4,Win32,8.252459233,Chrome,2560,1440,,,,,,,,,,,,,,,,,,,,,,,,,,,,,,,,,,,,,,,,,,,,,,,,,,,,,,,,,,,,,,,,,,,,,,,,,,,,
295435,2022-09-25_16h05.37.962,vts_reward_expectancy,2022.2.4,Win32,8.252459233,Chrome,2560,1440,,,,,0,702,,,,,,,,,,,,,,,,,D,181,hexagon,1,0,,,,,,,,,,,,,,,,switch,letter,lettSwt,d,1.062,Hi,,,,,,0,,,,,,space,8.8812,low,0,0,0,0,1,,,,,,,,,
295435,2022-09-25_16h05.37.962,vts_reward_expectancy,2022.2.4,Win32,8.252459233,Chrome,2560,1440,,,,,1,703,,,,,,,,,,,,,,,,,S,174,circle,1,0,,,,,,,,,,,,,,,,repeat,letter,lettRpt,f,0.9651,Lo,,,,,,0,,,,,,,,low,1,0,1,0,1,,,,,,,,,
295435,2022-09-25_16h05.37.962,vts_reward_expectancy,2022.2.4,Win32,8.252459233,Chrome,2560,1440,,,,,10,713,,,,,,,,,,,,,,,,,Y,139,hexagon,1,0,,,,,,,,,,,,,,,,switch,number,numSwt,j,0.6681,Hi,,,,,,0,,,,,,,,low,2,0,2,0,1,,,,,,,,,
295435,2022-09-25_16h05.37.962,vts_reward_expectancy,2022.2.4,Win32,8.252459233,Chrome,2560,1440,,,,,1,714,,,,,,,,,,,,,,,,,U,125,circle,1,0,,,,,,,,,,,,,,,,repeat,number,numRpt,j,0.4219,Lo,,,,,,0,,,,,,,,low,3,0,3,0,1,,,,,,,,,
295435,2022-09-25_16h05.37.962,vts_reward_expectancy,2022.2.4,Win32,8.252459233,Chrome,2560,1440,,,,,0,714,,,,,,,,,,,,,,,,,F,160,hexagon,1,0,,,,,,,,,,,,,,,,switch,letter,lettSwt,d,0.8168,Hi,,,,,,0,,,,,,,,low,4,0,4,0,1,,,,,,,,,
295435,2022-09-25_16h05.37.962,vts_reward_expectancy,2022.2.4,Win32,8.252459233,Chrome,2560,1440,,,,,0,714,,,,,,,,,,,,,,,,,H,132,circle,0,0,,,,,,,,,,,,,,,,repeat,letter,NA,f,0.8268,Hi,,,,,,0,,,,,,,,low,5,0,5,0,1,,,,,,,,,
295435,2022-09-25_16h05.37.962,vts_reward_expectancy,2022.2.4,Win32,8.252459233,Chrome,2560,1440,,,,,10,724,,,,,,,,,,,,,,,,,W,167,hexagon,1,1,,,,,,,,,,,,,,,,switch,number,numSwt,k,0.5497,Hi,,,,,,0,,,,,,,,low,6,0,6,0,1,,,,,,,,,
295435,2022-09-25_16h05.37.962,vts_reward_expectancy,2022.2.4,Win32,8.252459233,Chrome,2560,1440,,,,,1,725,,,,,,,,,,,,,,,,,B,146,circle,1,0,,,,,,,,,,,,,,,,switch,letter,lettSwt,d,0.8252,Lo,,,,,,0,,,,,,,,low,7,0,7,0,1,,,,,,,,,
295435,2022-09-25_16h05.37.962,vts_reward_expectancy,2022.2.4,Win32,8.252459233,Chrome,2560,1440,,,,,10,735,,,,,,,,,,,,,,,,,D,181,hexagon,1,0,,,,,,,,,,,,,,,,switch,number,numSwt,k,0.6968,Hi,,,,,,0,,,,,,,,low,8,0,8,0,1,,,,,,,,,
295435,2022-09-25_16h05.37.962,vts_reward_expectancy,2022.2.4,Win32,8.252459233,Chrome,2560,1440,,,,,1,736,,,,,,,,,,,,,,,,,S,174,circle,1,0,,,,,,,,,,,,,,,,switch,letter,lettSwt,f,0.9221,Lo,,,,,,0,,,,,,,,low,9,0,9,0,1,,,,,,,,,
295435,2022-09-25_16h05.37.962,vts_reward_expectancy,2022.2.4,Win32,8.252459233,Chrome,2560,1440,,,,,0,736,,,,,,,,,,,,,,,,,Y,139,hexagon,0,0,,,,,,,,,,,,,,,,repeat,letter,NA,d,1.2523,Lo,,,,,,0,,,,,,,,low,10,0,10,0,1,,,,,,,,,
295435,2022-09-25_16h05.37.962,vts_reward_expectancy,2022.2.4,Win32,8.252459233,Chrome,2560,1440,,,,,0,736,,,,,,,,,,,,,,,,,U,125,circle,0,1,,,,,,,,,,,,,,,,switch,number,NA,k,1.3624,Lo,,,,,,0,,,,,,,,low,11,0,11,0,1,,,,,,,,,
295435,2022-09-25_16h05.37.962,vts_reward_expectancy,2022.2.4,Win32,8.252459233,Chrome,2560,1440,,,,,10,746,,,,,,,,,,,,,,,,,F,160,hexagon,1,1,,,,,,,,,,,,,,,,repeat,number,numRpt,k,0.5436,Hi,,,,,,0,,,,,,,,low,12,0,12,0,1,,,,,,,,,
295435,2022-09-25_16h05.37.962,vts_reward_expectancy,2022.2.4,Win32,8.252459233,Chrome,2560,1440,,,,,1,747,,,,,,,,,,,,,,,,,H,132,circle,1,0,,,,,,,,,,,,,,,,repeat,number,numRpt,j,0.6716,Lo,,,,,,0,,,,,,,,low,13,0,13,0,1,,,,,,,,,
295435,2022-09-25_16h05.37.962,vts_reward_expectancy,2022.2.4,Win32,8.252459233,Chrome,2560,1440,,,,,1,748,,,,,,,,,,,,,,,,,W,167,hexagon,1,0,,,,,,,,,,,,,,,,repeat,number,numRpt,k,0.669,Hi,,,,,,0,,,,,,,,low,14,0,14,0,1,,,,,,,,,
295435,2022-09-25_16h05.37.962,vts_reward_expectancy,2022.2.4,Win32,8.252459233,Chrome,2560,1440,,,,,1,749,,,,,,,,,,,,,,,,,B,146,circle,1,0,,,,,,,,,,,,,,,,switch,letter,lettSwt,d,0.8192,Lo,,,,,,0,,,,,,,,low,15,0,15,0,1,,,,,,,,,
295435,2022-09-25_16h05.37.962,vts_reward_expectancy,2022.2.4,Win32,8.252459233,Chrome,2560,1440,,,,,10,759,,,,,,,,,,,,,,,,,F,146,hexagon,1,0,,,,,,,,,,,,,,,,switch,number,numSwt,j,0.8126,Hi,,,,,,0,,,,,,,,low,16,0,16,0,1,,,,,,,,,
295435,2022-09-25_16h05.37.962,vts_reward_expectancy,2022.2.4,Win32,8.252459233,Chrome,2560,1440,,,,,1,760,,,,,,,,,,,,,,,,,S,125,circle,1,0,,,,,,,,,,,,,,,,switch,letter,lettSwt,f,0.9524,Lo,,,,,,0,,,,,,,,low,17,0,17,0,1,,,,,,,,,
295435,2022-09-25_16h05.37.962,vts_reward_expectancy,2022.2.4,Win32,8.252459233,Chrome,2560,1440,,,,,0,760,,,,,,,,,,,,,,,,,D,160,hexagon,1,0,,,,,,,,,,,,,,,,switch,number,numSwt,k,0.9964,Hi,,,,,,0,,,,,,,,low,18,0,18,0,1,,,,,,,,,
295435,2022-09-25_16h05.37.962,vts_reward_expectancy,2022.2.4,Win32,8.252459233,Chrome,2560,1440,,,,,0,760,,,,,,,,,,,,,,,,,B,167,circle,0,0,,,,,,,,,,,,,,,,repeat,number,NA,j,0.6632,Hi,,,,,,0,,,,,,,,low,19,0,19,0,1,,,,,,,,,
295435,2022-09-25_16h05.37.962,vts_reward_expectancy,2022.2.4,Win32,8.252459233,Chrome,2560,1440,,,,,10,770,,,,,,,,,,,,,,,,,U,139,hexagon,1,1,,,,,,,,,,,,,,,,repeat,number,numRpt,j,0.5416,Hi,,,,,,0,,,,,,,,low,20,0,20,0,1,,,,,,,,,
295435,2022-09-25_16h05.37.962,vts_reward_expectancy,2022.2.4,Win32,8.252459233,Chrome,2560,1440,,,,,10,780,,,,,,,,,,,,,,,,,Y,174,circle,1,0,,,,,,,,,,,,,,,,repeat,number,numRpt,k,0.6734,Lo,,,,,,0,,,,,,,,low,21,0,21,0,1,,,,,,,,,
295435,2022-09-25_16h05.37.962,vts_reward_expectancy,2022.2.4,Win32,8.252459233,Chrome,2560,1440,,,,,1,781,,,,,,,,,,,,,,,,,W,181,hexagon,1,0,,,,,,,,,,,,,,,,repeat,number,numRpt,k,0.5417,Hi,,,,,,0,,,,,,,,low,22,0,22,0,1,,,,,,,,,
295435,2022-09-25_16h05.37.962,vts_reward_expectancy,2022.2.4,Win32,8.252459233,Chrome,2560,1440,,,,,1,782,,,,,,,,,,,,,,,,,H,132,circle,1,0,,,,,,,,,,,,,,,,switch,letter,lettSwt,d,0.8347,Lo,,,,,,0,,,,,,,,low,23,0,23,0,1,,,,,,,,,
295435,2022-09-25_16h05.37.962,vts_reward_expectancy,2022.2.4,Win32,8.252459233,Chrome,2560,1440,,,,,10,792,,,,,,,,,,,,,,,,,H,160,circle,1,0,,,,,,,,,,,,,,,,switch,number,numSwt,k,0.5417,Lo,,,,,,0,,,,,,,,low,24,0,24,0,1,,,,,,,,,
295435,2022-09-25_16h05.37.962,vts_reward_expectancy,2022.2.4,Win32,8.252459233,Chrome,2560,1440,,,,,10,802,,,,,,,,,,,,,,,,,D,174,hexagon,1,0,,,,,,,,,,,,,,,,repeat,number,numRpt,k,0.5438,Hi,,,,,,0,,,,,,,,low,25,0,25,0,1,,,,,,,,,
295435,2022-09-25_16h05.37.962,vts_reward_expectancy,2022.2.4,Win32,8.252459233,Chrome,2560,1440,,,,,1,803,,,,,,,,,,,,,,,,,F,139,hexagon,1,0,,,,,,,,,,,,,,,,repeat,number,numRpt,j,0.6921,Hi,,,,,,0,,,,,,,,low,26,0,26,0,1,,,,,,,,,
295435,2022-09-25_16h05.37.962,vts_reward_expectancy,2022.2.4,Win32,8.252459233,Chrome,2560,1440,,,,,1,804,,,,,,,,,,,,,,,,,S,181,circle,1,0,,,,,,,,,,,,,,,,repeat,number,numRpt,k,0.5423,Lo,,,,,,0,,,,,,,,low,27,0,27,0,1,,,,,,,,,
295435,2022-09-25_16h05.37.962,vts_reward_expectancy,2022.2.4,Win32,8.252459233,Chrome,2560,1440,,,,,10,814,,,,,,,,,,,,,,,,,W,146,hexagon,1,0,,,,,,,,,,,,,,,,switch,letter,lettSwt,f,0.8095,Hi,,,,,,0,,,,,,,,low,28,0,28,0,1,,,,,,,,,
295435,2022-09-25_16h05.37.962,vts_reward_expectancy,2022.2.4,Win32,8.252459233,Chrome,2560,1440,,,,,1,815,,,,,,,,,,,,,,,,,Y,132,circle,1,0,,,,,,,,,,,,,,,,repeat,letter,lettRpt,f,0.6819,Lo,,,,,,0,,,,,,,,low,29,0,29,0,1,,,,,,,,,
295435,2022-09-25_16h05.37.962,vts_reward_expectancy,2022.2.4,Win32,8.252459233,Chrome,2560,1440,,,,,1,816,,,,,,,,,,,,,,,,,U,167,hexagon,1,0,,,,,,,,,,,,,,,,switch,number,numSwt,k,0.5622,Hi,,,,,,0,,,,,,,,low,30,0,30,0,1,,,,,,,,,
295435,2022-09-25_16h05.37.962,vts_reward_expectancy,2022.2.4,Win32,8.252459233,Chrome,2560,1440,,,,,10,826,,,,,,,,,,,,,,,,,B,125,circle,1,0,,,,,,,,,,,,,,,,repeat,number,numRpt,j,0.552,Lo,,,,,,0,,,,,,,,low,31,0,31,0,1,,,,,,,,,
295435,2022-09-25_16h05.37.962,vts_reward_expectancy,2022.2.4,Win32,8.252459233,Chrome,2560,1440,,,,,0,826,,,,,,,,,,,,,,,,,F,160,triangle,0,0,,,,,,,,,,,,,,,,repeat,number,NA,j,0.8069,Lo,,,,,,1,,,,,,space,3.3396,high,0,0,0,0,1,,,,,,,,,
295435,2022-09-25_16h05.37.962,vts_reward_expectancy,2022.2.4,Win32,8.252459233,Chrome,2560,1440,,,,,0,826,,,,,,,,,,,,,,,,,S,181,star,1,1,,,,,,,,,,,,,,,,repeat,number,numRpt,k,0.5731,Hi,,,,,,1,,,,,,,,high,1,0,1,0,1,,,,,,,,,
295435,2022-09-25_16h05.37.962,vts_reward_expectancy,2022.2.4,Win32,8.252459233,Chrome,2560,1440,,,,,0,826,,,,,,,,,,,,,,,,,W,132,triangle,0,0,,,,,,,,,,,,,,,,switch,letter,NA,d,0.8113,Hi,,,,,,1,,,,,,,,high,2,0,2,0,1,,,,,,,,,
295435,2022-09-25_16h05.37.962,vts_reward_expectancy,2022.2.4,Win32,8.252459233,Chrome,2560,1440,,,,,10,836,,,,,,,,,,,,,,,,,B,146,star,1,1,,,,,,,,,,,,,,,,repeat,letter,lettRpt,d,0.7276,Hi,,,,,,1,,,,,,,,high,3,0,3,0,1,,,,,,,,,
295435,2022-09-25_16h05.37.962,vts_reward_expectancy,2022.2.4,Win32,8.252459233,Chrome,2560,1440,,,,,1,837,,,,,,,,,,,,,,,,,D,125,triangle,1,0,,,,,,,,,,,,,,,,repeat,letter,lettRpt,d,0.936,Lo,,,,,,1,,,,,,,,high,4,0,4,0,1,,,,,,,,,
295435,2022-09-25_16h05.37.962,vts_reward_expectancy,2022.2.4,Win32,8.252459233,Chrome,2560,1440,,,,,10,847,,,,,,,,,,,,,,,,,H,139,star,1,0,,,,,,,,,,,,,,,,repeat,letter,lettRpt,d,0.8159,Hi,,,,,,1,,,,,,,,high,5,0,5,0,1,,,,,,,,,
295435,2022-09-25_16h05.37.962,vts_reward_expectancy,2022.2.4,Win32,8.252459233,Chrome,2560,1440,,,,,10,857,,,,,,,,,,,,,,,,,Y,167,star,1,0,,,,,,,,,,,,,,,,repeat,letter,lettRpt,f,0.5456,Hi,,,,,,1,,,,,,,,high,6,0,6,0,1,,,,,,,,,
295435,2022-09-25_16h05.37.962,vts_reward_expectancy,2022.2.4,Win32,8.252459233,Chrome,2560,1440,,,,,10,867,,,,,,,,,,,,,,,,,U,174,triangle,1,0,,,,,,,,,,,,,,,,switch,number,numSwt,k,1.0907,Lo,,,,,,1,,,,,,,,high,7,0,7,0,1,,,,,,,,,
295435,2022-09-25_16h05.37.962,vts_reward_expectancy,2022.2.4,Win32,8.252459233,Chrome,2560,1440,,,,,10,877,,,,,,,,,,,,,,,,,F,160,star,1,0,,,,,,,,,,,,,,,,switch,letter,lettSwt,d,0.8148,Hi,,,,,,1,,,,,,,,high,8,0,8,0,1,,,,,,,,,
295435,2022-09-25_16h05.37.962,vts_reward_expectancy,2022.2.4,Win32,8.252459233,Chrome,2560,1440,,,,,10,887,,,,,,,,,,,,,,,,,S,181,triangle,1,0,,,,,,,,,,,,,,,,switch,number,numSwt,k,0.9361,Lo,,,,,,1,,,,,,,,high,9,0,9,0,1,,,,,,,,,
295435,2022-09-25_16h05.37.962,vts_reward_expectancy,2022.2.4,Win32,8.252459233,Chrome,2560,1440,,,,,10,897,,,,,,,,,,,,,,,,,W,132,star,1,0,,,,,,,,,,,,,,,,switch,letter,lettSwt,f,0.8148,Hi,,,,,,1,,,,,,,,high,10,0,10,0,1,,,,,,,,,
295435,2022-09-25_16h05.37.962,vts_reward_expectancy,2022.2.4,Win32,8.252459233,Chrome,2560,1440,,,,,1,898,,,,,,,,,,,,,,,,,B,146,triangle,1,0,,,,,,,,,,,,,,,,switch,number,numSwt,j,0.6787,Lo,,,,,,1,,,,,,,,high,11,0,11,0,1,,,,,,,,,
295435,2022-09-25_16h05.37.962,vts_reward_expectancy,2022.2.4,Win32,8.252459233,Chrome,2560,1440,,,,,1,899,,,,,,,,,,,,,,,,,D,125,triangle,1,0,,,,,,,,,,,,,,,,repeat,number,numRpt,j,1.3776,Lo,,,,,,1,,,,,,,,high,12,0,12,0,1,,,,,,,,,
295435,2022-09-25_16h05.37.962,vts_reward_expectancy,2022.2.4,Win32,8.252459233,Chrome,2560,1440,,,,,10,909,,,,,,,,,,,,,,,,,H,139,star,1,0,,,,,,,,,,,,,,,,switch,letter,lettSwt,d,0.5511,Hi,,,,,,1,,,,,,,,high,13,0,13,0,1,,,,,,,,,
295435,2022-09-25_16h05.37.962,vts_reward_expectancy,2022.2.4,Win32,8.252459233,Chrome,2560,1440,,,,,1,910,,,,,,,,,,,,,,,,,Y,167,triangle,1,0,,,,,,,,,,,,,,,,switch,number,numSwt,k,0.6903,Lo,,,,,,1,,,,,,,,high,14,0,14,0,1,,,,,,,,,
295435,2022-09-25_16h05.37.962,vts_reward_expectancy,2022.2.4,Win32,8.252459233,Chrome,2560,1440,,,,,0,910,,,,,,,,,,,,,,,,,U,174,star,0,0,,,,,,,,,,,,,,,,switch,letter,NA,d,0.8192,Lo,,,,,,1,,,,,,,,high,15,0,15,0,1,,,,,,,,,
295435,2022-09-25_16h05.37.962,vts_reward_expectancy,2022.2.4,Win32,8.252459233,Chrome,2560,1440,,,,,10,920,,,,,,,,,,,,,,,,,B,125,star,1,1,,,,,,,,,,,,,,,,repeat,letter,lettRpt,d,0.6887,Hi,,,,,,1,,,,,,,,high,16,0,16,0,1,,,,,,,,,
295435,2022-09-25_16h05.37.962,vts_reward_expectancy,2022.2.4,Win32,8.252459233,Chrome,2560,1440,,,,,1,921,,,,,,,,,,,,,,,,,U,181,triangle,1,0,,,,,,,,,,,,,,,,switch,number,numSwt,k,0.6715,Lo,,,,,,1,,,,,,,,high,17,0,17,0,1,,,,,,,,,
295435,2022-09-25_16h05.37.962,vts_reward_expectancy,2022.2.4,Win32,8.252459233,Chrome,2560,1440,,,,,0,921,,,,,,,,,,,,,,,,,Y,174,star,1,0,,,,,,,,,,,,,,,,switch,letter,lettSwt,f,0.8319,Hi,,,,,,1,,,,,,,,high,18,0,18,0,1,,,,,,,,,
295435,2022-09-25_16h05.37.962,vts_reward_expectancy,2022.2.4,Win32,8.252459233,Chrome,2560,1440,,,,,1,922,,,,,,,,,,,,,,,,,F,132,triangle,1,0,,,,,,,,,,,,,,,,switch,number,numSwt,j,0.8185,Lo,,,,,,1,,,,,,,,high,19,0,19,0,1,,,,,,,,,
295435,2022-09-25_16h05.37.962,vts_reward_expectancy,2022.2.4,Win32,8.252459233,Chrome,2560,1440,,,,,0,922,,,,,,,,,,,,,,,,,S,139,star,1,0,,,,,,,,,,,,,,,,switch,letter,lettSwt,f,0.8619,Hi,,,,,,1,,,,,,,,high,20,0,20,0,1,,,,,,,,,
295435,2022-09-25_16h05.37.962,vts_reward_expectancy,2022.2.4,Win32,8.252459233,Chrome,2560,1440,,,,,1,923,,,,,,,,,,,,,,,,,H,167,triangle,1,0,,,,,,,,,,,,,,,,repeat,letter,lettRpt,d,1.077,Lo,,,,,,1,,,,,,,,high,21,0,21,0,1,,,,,,,,,
295435,2022-09-25_16h05.37.962,vts_reward_expectancy,2022.2.4,Win32,8.252459233,Chrome,2560,1440,,,,,1,924,,,,,,,,,,,,,,,,,W,146,triangle,1,0,,,,,,,,,,,,,,,,repeat,letter,lettRpt,f,0.6694,Lo,,,,,,1,,,,,,,,high,22,0,22,0,1,,,,,,,,,
295435,2022-09-25_16h05.37.962,vts_reward_expectancy,2022.2.4,Win32,8.252459233,Chrome,2560,1440,,,,,0,924,,,,,,,,,,,,,,,,,D,160,star,1,0,,,,,,,,,,,,,,,,switch,number,numSwt,k,0.6757,Hi,,,,,,1,,,,,,,,high,23,0,23,0,1,,,,,,,,,
295435,2022-09-25_16h05.37.962,vts_reward_expectancy,2022.2.4,Win32,8.252459233,Chrome,2560,1440,,,,,0,924,,,,,,,,,,,,,,,,,B,160,triangle,0,0,,,,,,,,,,,,,,,,switch,letter,NA,f,0.672,Hi,,,,,,1,,,,,,,,high,24,0,24,0,1,,,,,,,,,
295435,2022-09-25_16h05.37.962,vts_reward_expectancy,2022.2.4,Win32,8.252459233,Chrome,2560,1440,,,,,10,934,,,,,,,,,,,,,,,,,D,174,star,1,1,,,,,,,,,,,,,,,,repeat,letter,lettRpt,d,0.7107,Hi,,,,,,1,,,,,,,,high,25,0,25,0,1,,,,,,,,,
295435,2022-09-25_16h05.37.962,vts_reward_expectancy,2022.2.4,Win32,8.252459233,Chrome,2560,1440,,,,,1,935,,,,,,,,,,,,,,,,,U,146,triangle,1,0,,,,,,,,,,,,,,,,switch,number,numSwt,j,0.9462,Lo,,,,,,1,,,,,,,,high,26,0,26,0,1,,,,,,,,,
295435,2022-09-25_16h05.37.962,vts_reward_expectancy,2022.2.4,Win32,8.252459233,Chrome,2560,1440,,,,,10,945,,,,,,,,,,,,,,,,,H,181,star,1,0,,,,,,,,,,,,,,,,switch,letter,lettSwt,d,0.701,Hi,,,,,,1,,,,,,,,high,27,0,27,0,1,,,,,,,,,
295435,2022-09-25_16h05.37.962,vts_reward_expectancy,2022.2.4,Win32,8.252459233,Chrome,2560,1440,,,,,10,955,,,,,,,,,,,,,,,,,F,167,star,1,0,,,,,,,,,,,,,,,,repeat,letter,lettRpt,d,0.5367,Hi,,,,,,1,,,,,,,,high,28,0,28,0,1,,,,,,,,,
295435,2022-09-25_16h05.37.962,vts_reward_expectancy,2022.2.4,Win32,8.252459233,Chrome,2560,1440,,,,,10,965,,,,,,,,,,,,,,,,,Y,132,triangle,1,0,,,,,,,,,,,,,,,,repeat,letter,lettRpt,f,1.2171,Lo,,,,,,1,,,,,,,,high,29,0,29,0,1,,,,,,,,,
295435,2022-09-25_16h05.37.962,vts_reward_expectancy,2022.2.4,Win32,8.252459233,Chrome,2560,1440,,,,,10,975,,,,,,,,,,,,,,,,,W,139,star,1,0,,,,,,,,,,,,,,,,repeat,letter,lettRpt,f,0.8546,Hi,,,,,,1,,,,,,,,high,30,0,30,0,1,,,,,,,,,
295435,2022-09-25_16h05.37.962,vts_reward_expectancy,2022.2.4,Win32,8.252459233,Chrome,2560,1440,,,,,1,976,,,,,,,,,,,,,,,,,S,125,triangle,1,0,,,,,,,,,,,,,,,,repeat,letter,lettRpt,f,0.9457,Lo,,,,,,1,,,,,,,,high,31,0,31,0,1,,,,,,,,,
295435,2022-09-25_16h05.37.962,vts_reward_expectancy,2022.2.4,Win32,8.252459233,Chrome,2560,1440,,,,,0,976,,,,,,,,,,,,,,,,,W,181,hexagon,1,0,,,,,,,,,,,,,,,,switch,number,numSwt,k,0.8437,Hi,,,,,,2,,,,,,space,1.7052,low,0,0,0,0,1,,,,,,,,,
295435,2022-09-25_16h05.37.962,vts_reward_expectancy,2022.2.4,Win32,8.252459233,Chrome,2560,1440,,,,,10,986,,,,,,,,,,,,,,,,,S,174,circle,1,0,,,,,,,,,,,,,,,,repeat,number,numRpt,k,0.6791,Lo,,,,,,2,,,,,,,,low,1,0,1,0,1,,,,,,,,,
295435,2022-09-25_16h05.37.962,vts_reward_expectancy,2022.2.4,Win32,8.252459233,Chrome,2560,1440,,,,,1,987,,,,,,,,,,,,,,,,,B,132,hexagon,1,0,,,,,,,,,,,,,,,,switch,letter,lettSwt,d,0.5512,Hi,,,,,,2,,,,,,,,low,2,0,2,0,1,,,,,,,,,
295435,2022-09-25_16h05.37.962,vts_reward_expectancy,2022.2.4,Win32,8.252459233,Chrome,2560,1440,,,,,0,987,,,,,,,,,,,,,,,,,H,146,circle,0,0,,,,,,,,,,,,,,,,switch,number,NA,k,0.699,Hi,,,,,,2,,,,,,,,low,3,0,3,0,1,,,,,,,,,
295435,2022-09-25_16h05.37.962,vts_reward_expectancy,2022.2.4,Win32,8.252459233,Chrome,2560,1440,,,,,1,988,,,,,,,,,,,,,,,,,U,125,circle,1,1,,,,,,,,,,,,,,,,repeat,number,numRpt,j,0.4236,Lo,,,,,,2,,,,,,,,low,4,0,4,0,1,,,,,,,,,
295435,2022-09-25_16h05.37.962,vts_reward_expectancy,2022.2.4,Win32,8.252459233,Chrome,2560,1440,,,,,0,988,,,,,,,,,,,,,,,,,Y,167,hexagon,1,0,,,,,,,,,,,,,,,,repeat,number,numRpt,k,0.7007,Hi,,,,,,2,,,,,,,,low,5,0,5,0,1,,,,,,,,,
295435,2022-09-25_16h05.37.962,vts_reward_expectancy,2022.2.4,Win32,8.252459233,Chrome,2560,1440,,,,,1,989,,,,,,,,,,,,,,,,,F,160,circle,1,0,,,,,,,,,,,,,,,,switch,letter,lettSwt,d,0.5465,Lo,,,,,,2,,,,,,,,low,6,0,6,0,1,,,,,,,,,
295435,2022-09-25_16h05.37.962,vts_reward_expectancy,2022.2.4,Win32,8.252459233,Chrome,2560,1440,,,,,1,990,,,,,,,,,,,,,,,,,D,139,hexagon,1,0,,,,,,,,,,,,,,,,repeat,letter,lettRpt,d,0.6782,Hi,,,,,,2,,,,,,,,low,7,0,7,0,1,,,,,,,,,
295435,2022-09-25_16h05.37.962,vts_reward_expectancy,2022.2.4,Win32,8.252459233,Chrome,2560,1440,,,,,0,990,,,,,,,,,,,,,,,,,W,181,hexagon,1,0,,,,,,,,,,,,,,,,switch,number,numSwt,k,0.6892,Hi,,,,,,2,,,,,,,,low,8,0,8,0,1,,,,,,,,,
295435,2022-09-25_16h05.37.962,vts_reward_expectancy,2022.2.4,Win32,8.252459233,Chrome,2560,1440,,,,,1,991,,,,,,,,,,,,,,,,,S,174,circle,1,0,,,,,,,,,,,,,,,,repeat,number,numRpt,k,1.0911,Lo,,,,,,2,,,,,,,,low,9,0,9,0,1,,,,,,,,,
295435,2022-09-25_16h05.37.962,vts_reward_expectancy,2022.2.4,Win32,8.252459233,Chrome,2560,1440,,,,,10,1001,,,,,,,,,,,,,,,,,B,132,circle,1,0,,,,,,,,,,,,,,,,switch,letter,lettSwt,d,0.7014,Lo,,,,,,2,,,,,,,,low,10,0,10,0,1,,,,,,,,,
295435,2022-09-25_16h05.37.962,vts_reward_expectancy,2022.2.4,Win32,8.252459233,Chrome,2560,1440,,,,,10,1011,,,,,,,,,,,,,,,,,H,146,hexagon,1,0,,,,,,,,,,,,,,,,switch,number,numSwt,j,0.559,Hi,,,,,,2,,,,,,,,low,11,0,11,0,1,,,,,,,,,
295435,2022-09-25_16h05.37.962,vts_reward_expectancy,2022.2.4,Win32,8.252459233,Chrome,2560,1440,,,,,0,1011,,,,,,,,,,,,,,,,,U,125,hexagon,1,0,,,,,,,,,,,,,,,,switch,letter,lettSwt,f,0.819,Hi,,,,,,2,,,,,,,,low,12,0,12,0,1,,,,,,,,,
295435,2022-09-25_16h05.37.962,vts_reward_expectancy,2022.2.4,Win32,8.252459233,Chrome,2560,1440,,,,,1,1012,,,,,,,,,,,,,,,,,Y,167,circle,1,0,,,,,,,,,,,,,,,,switch,number,numSwt,k,0.9764,Lo,,,,,,2,,,,,,,,low,13,0,13,0,1,,,,,,,,,
295435,2022-09-25_16h05.37.962,vts_reward_expectancy,2022.2.4,Win32,8.252459233,Chrome,2560,1440,,,,,0,1012,,,,,,,,,,,,,,,,,F,160,hexagon,1,0,,,,,,,,,,,,,,,,switch,letter,lettSwt,d,1.4903,Hi,,,,,,2,,,,,,,,low,14,0,14,0,1,,,,,,,,,
295435,2022-09-25_16h05.37.962,vts_reward_expectancy,2022.2.4,Win32,8.252459233,Chrome,2560,1440,,,,,1,1013,,,,,,,,,,,,,,,,,D,139,circle,1,0,,,,,,,,,,,,,,,,repeat,letter,lettRpt,d,0.6827,Lo,,,,,,2,,,,,,,,low,15,0,15,0,1,,,,,,,,,
295435,2022-09-25_16h05.37.962,vts_reward_expectancy,2022.2.4,Win32,8.252459233,Chrome,2560,1440,,,,,1,1014,,,,,,,,,,,,,,,,,B,167,hexagon,1,0,,,,,,,,,,,,,,,,repeat,letter,lettRpt,d,0.6921,Hi,,,,,,2,,,,,,,,low,16,0,16,0,1,,,,,,,,,
295435,2022-09-25_16h05.37.962,vts_reward_expectancy,2022.2.4,Win32,8.252459233,Chrome,2560,1440,,,,,1,1015,,,,,,,,,,,,,,,,,W,132,circle,1,0,,,,,,,,,,,,,,,,switch,number,numSwt,j,0.9381,Lo,,,,,,2,,,,,,,,low,17,0,17,0,1,,,,,,,,,
295435,2022-09-25_16h05.37.962,vts_reward_expectancy,2022.2.4,Win32,8.252459233,Chrome,2560,1440,,,,,1,1016,,,,,,,,,,,,,,,,,S,174,circle,1,0,,,,,,,,,,,,,,,,switch,letter,lettSwt,f,0.6651,Lo,,,,,,2,,,,,,,,low,18,0,18,0,1,,,,,,,,,
295435,2022-09-25_16h05.37.962,vts_reward_expectancy,2022.2.4,Win32,8.252459233,Chrome,2560,1440,,,,,0,1016,,,,,,,,,,,,,,,,,D,146,hexagon,1,0,,,,,,,,,,,,,,,,repeat,letter,lettRpt,d,0.9433,Hi,,,,,,2,,,,,,,,low,19,0,19,0,1,,,,,,,,,
295435,2022-09-25_16h05.37.962,vts_reward_expectancy,2022.2.4,Win32,8.252459233,Chrome,2560,1440,,,,,0,1016,,,,,,,,,,,,,,,,,U,181,hexagon,1,0,,,,,,,,,,,,,,,,switch,number,numSwt,k,0.6829,Hi,,,,,,2,,,,,,,,low,20,0,20,0,1,,,,,,,,,
295435,2022-09-25_16h05.37.962,vts_reward_expectancy,2022.2.4,Win32,8.252459233,Chrome,2560,1440,,,,,1,1017,,,,,,,,,,,,,,,,,F,160,circle,1,0,,,,,,,,,,,,,,,,repeat,number,numRpt,k,0.6906,Lo,,,,,,2,,,,,,,,low,21,0,21,0,1,,,,,,,,,
295435,2022-09-25_16h05.37.962,vts_reward_expectancy,2022.2.4,Win32,8.252459233,Chrome,2560,1440,,,,,0,1017,,,,,,,,,,,,,,,,,Y,139,hexagon,1,0,,,,,,,,,,,,,,,,repeat,number,numRpt,j,0.5844,Hi,,,,,,2,,,,,,,,low,22,0,22,0,1,,,,,,,,,
295435,2022-09-25_16h05.37.962,vts_reward_expectancy,2022.2.4,Win32,8.252459233,Chrome,2560,1440,,,,,10,1027,,,,,,,,,,,,,,,,,H,125,circle,1,0,,,,,,,,,,,,,,,,switch,letter,lettSwt,d,0.6856,Lo,,,,,,2,,,,,,,,low,23,0,23,0,1,,,,,,,,,
295435,2022-09-25_16h05.37.962,vts_reward_expectancy,2022.2.4,Win32,8.252459233,Chrome,2560,1440,,,,,1,1028,,,,,,,,,,,,,,,,,Y,132,circle,1,0,,,,,,,,,,,,,,,,repeat,letter,lettRpt,f,0.6844,Lo,,,,,,2,,,,,,,,low,24,0,24,0,1,,,,,,,,,
295435,2022-09-25_16h05.37.962,vts_reward_expectancy,2022.2.4,Win32,8.252459233,Chrome,2560,1440,,,,,0,1028,,,,,,,,,,,,,,,,,B,174,hexagon,1,0,,,,,,,,,,,,,,,,switch,number,numSwt,k,0.7005,Hi,,,,,,2,,,,,,,,low,25,0,25,0,1,,,,,,,,,
295435,2022-09-25_16h05.37.962,vts_reward_expectancy,2022.2.4,Win32,8.252459233,Chrome,2560,1440,,,,,0,1028,,,,,,,,,,,,,,,,,H,125,hexagon,1,0,,,,,,,,,,,,,,,,switch,letter,lettSwt,d,0.8339,Hi,,,,,,2,,,,,,,,low,26,0,26,0,1,,,,,,,,,
295435,2022-09-25_16h05.37.962,vts_reward_expectancy,2022.2.4,Win32,8.252459233,Chrome,2560,1440,,,,,1,1029,,,,,,,,,,,,,,,,,W,160,circle,1,0,,,,,,,,,,,,,,,,repeat,letter,lettRpt,f,0.5428,Lo,,,,,,2,,,,,,,,low,27,0,27,0,1,,,,,,,,,
295435,2022-09-25_16h05.37.962,vts_reward_expectancy,2022.2.4,Win32,8.252459233,Chrome,2560,1440,,,,,1,1030,,,,,,,,,,,,,,,,,U,146,circle,1,0,,,,,,,,,,,,,,,,repeat,letter,lettRpt,f,0.8172,Lo,,,,,,2,,,,,,,,low,28,0,28,0,1,,,,,,,,,
295435,2022-09-25_16h05.37.962,vts_reward_expectancy,2022.2.4,Win32,8.252459233,Chrome,2560,1440,,,,,1,1031,,,,,,,,,,,,,,,,,S,139,hexagon,1,0,,,,,,,,,,,,,,,,repeat,letter,lettRpt,f,0.5493,Hi,,,,,,2,,,,,,,,low,29,0,29,0,1,,,,,,,,,
295435,2022-09-25_16h05.37.962,vts_reward_expectancy,2022.2.4,Win32,8.252459233,Chrome,2560,1440,,,,,10,1041,,,,,,,,,,,,,,,,,D,167,circle,1,0,,,,,,,,,,,,,,,,switch,number,numSwt,k,0.6671,Lo,,,,,,2,,,,,,,,low,30,0,30,0,1,,,,,,,,,
295435,2022-09-25_16h05.37.962,vts_reward_expectancy,2022.2.4,Win32,8.252459233,Chrome,2560,1440,,,,,10,1051,,,,,,,,,,,,,,,,,F,181,hexagon,1,0,,,,,,,,,,,,,,,,switch,letter,lettSwt,d,0.6999,Hi,,,,,,2,,,,,,,,low,31,0,31,0,1,,,,,,,,,
295435,2022-09-25_16h05.37.962,vts_reward_expectancy,2022.2.4,Win32,8.252459233,Chrome,2560,1440,,,,,1,1052,,,,,,,,,,,,,,,,,W,181,triangle,1,0,,,,,,,,,,,,,,,,repeat,letter,lettRpt,f,0.9576,Lo,,,,,,3,,,,,,space,2.007,high,0,0,0,0,1,,,,,,,,,
295435,2022-09-25_16h05.37.962,vts_reward_expectancy,2022.2.4,Win32,8.252459233,Chrome,2560,1440,,,,,0,1052,,,,,,,,,,,,,,,,,D,125,star,1,0,,,,,,,,,,,,,,,,repeat,letter,lettRpt,d,0.8305,Hi,,,,,,3,,,,,,,,high,1,0,1,0,1,,,,,,,,,
295435,2022-09-25_16h05.37.962,vts_reward_expectancy,2022.2.4,Win32,8.252459233,Chrome,2560,1440,,,,,1,1053,,,,,,,,,,,,,,,,,Y,139,triangle,1,0,,,,,,,,,,,,,,,,switch,number,numSwt,j,0.5466,Lo,,,,,,3,,,,,,,,high,2,0,2,0,1,,,,,,,,,
295435,2022-09-25_16h05.37.962,vts_reward_expectancy,2022.2.4,Win32,8.252459233,Chrome,2560,1440,,,,,10,1063,,,,,,,,,,,,,,,,,S,174,star,1,0,,,,,,,,,,,,,,,,repeat,number,numRpt,k,0.5553,Hi,,,,,,3,,,,,,,,high,3,0,3,0,1,,,,,,,,,
295435,2022-09-25_16h05.37.962,vts_reward_expectancy,2022.2.4,Win32,8.252459233,Chrome,2560,1440,,,,,1,1064,,,,,,,,,,,,,,,,,B,146,triangle,1,0,,,,,,,,,,,,,,,,repeat,number,numRpt,j,0.6877,Lo,,,,,,3,,,,,,,,high,4,0,4,0,1,,,,,,,,,
295435,2022-09-25_16h05.37.962,vts_reward_expectancy,2022.2.4,Win32,8.252459233,Chrome,2560,1440,,,,,0,1064,,,,,,,,,,,,,,,,,H,132,star,1,0,,,,,,,,,,,,,,,,repeat,number,numRpt,j,0.6758,Hi,,,,,,3,,,,,,,,high,5,0,5,0,1,,,,,,,,,
295435,2022-09-25_16h05.37.962,vts_reward_expectancy,2022.2.4,Win32,8.252459233,Chrome,2560,1440,,,,,10,1074,,,,,,,,,,,,,,,,,U,167,triangle,1,0,,,,,,,,,,,,,,,,repeat,number,numRpt,k,0.7134,Lo,,,,,,3,,,,,,,,high,6,0,6,0,1,,,,,,,,,
295435,2022-09-25_16h05.37.962,vts_reward_expectancy,2022.2.4,Win32,8.252459233,Chrome,2560,1440,,,,,0,1074,,,,,,,,,,,,,,,,,F,160,star,1,0,,,,,,,,,,,,,,,,repeat,number,numRpt,k,0.6865,Hi,,,,,,3,,,,,,,,high,7,0,7,0,1,,,,,,,,,
295435,2022-09-25_16h05.37.962,vts_reward_expectancy,2022.2.4,Win32,8.252459233,Chrome,2560,1440,,,,,0,1074,,,,,,,,,,,,,,,,,W,181,star,1,0,,,,,,,,,,,,,,,,repeat,number,numRpt,k,0.9641,Hi,,,,,,3,,,,,,,,high,8,0,8,0,1,,,,,,,,,
295435,2022-09-25_16h05.37.962,vts_reward_expectancy,2022.2.4,Win32,8.252459233,Chrome,2560,1440,,,,,1,1075,,,,,,,,,,,,,,,,,D,125,triangle,1,0,,,,,,,,,,,,,,,,switch,letter,lettSwt,d,0.5594,Lo,,,,,,3,,,,,,,,high,9,0,9,0,1,,,,,,,,,
295435,2022-09-25_16h05.37.962,vts_reward_expectancy,2022.2.4,Win32,8.252459233,Chrome,2560,1440,,,,,0,1075,,,,,,,,,,,,,,,,,Y,139,star,1,0,,,,,,,,,,,,,,,,switch,number,numSwt,j,0.6933,Hi,,,,,,3,,,,,,,,high,10,0,10,0,1,,,,,,,,,
295435,2022-09-25_16h05.37.962,vts_reward_expectancy,2022.2.4,Win32,8.252459233,Chrome,2560,1440,,,,,0,1075,,,,,,,,,,,,,,,,,S,174,triangle,0,0,,,,,,,,,,,,,,,,switch,letter,NA,d,0.6718,Hi,,,,,,3,,,,,,,,high,11,0,11,0,1,,,,,,,,,
295435,2022-09-25_16h05.37.962,vts_reward_expectancy,2022.2.4,Win32,8.252459233,Chrome,2560,1440,,,,,0,1075,,,,,,,,,,,,,,,,,B,146,star,1,1,,,,,,,,,,,,,,,,repeat,letter,lettRpt,d,0.6979,Hi,,,,,,3,,,,,,,,high,12,0,12,0,1,,,,,,,,,
295435,2022-09-25_16h05.37.962,vts_reward_expectancy,2022.2.4,Win32,8.252459233,Chrome,2560,1440,,,,,1,1076,,,,,,,,,,,,,,,,,H,132,triangle,1,0,,,,,,,,,,,,,,,,switch,number,numSwt,j,0.4294,Lo,,,,,,3,,,,,,,,high,13,0,13,0,1,,,,,,,,,
295435,2022-09-25_16h05.37.962,vts_reward_expectancy,2022.2.4,Win32,8.252459233,Chrome,2560,1440,,,,,1,1077,,,,,,,,,,,,,,,,,U,167,star,1,0,,,,,,,,,,,,,,,,repeat,number,numRpt,k,0.5489,Hi,,,,,,3,,,,,,,,high,14,0,14,0,1,,,,,,,,,
295435,2022-09-25_16h05.37.962,vts_reward_expectancy,2022.2.4,Win32,8.252459233,Chrome,2560,1440,,,,,1,1078,,,,,,,,,,,,,,,,,F,160,triangle,1,0,,,,,,,,,,,,,,,,switch,letter,lettSwt,d,0.5468,Lo,,,,,,3,,,,,,,,high,15,0,15,0,1,,,,,,,,,
295435,2022-09-25_16h05.37.962,vts_reward_expectancy,2022.2.4,Win32,8.252459233,Chrome,2560,1440,,,,,10,1088,,,,,,,,,,,,,,,,,D,132,star,1,0,,,,,,,,,,,,,,,,switch,number,numSwt,j,0.4077,Hi,,,,,,3,,,,,,,,high,16,0,16,0,1,,,,,,,,,
295435,2022-09-25_16h05.37.962,vts_reward_expectancy,2022.2.4,Win32,8.252459233,Chrome,2560,1440,,,,,1,1089,,,,,,,,,,,,,,,,,F,160,triangle,1,0,,,,,,,,,,,,,,,,repeat,number,numRpt,k,0.5539,Lo,,,,,,3,,,,,,,,high,17,0,17,0,1,,,,,,,,,
295435,2022-09-25_16h05.37.962,vts_reward_expectancy,2022.2.4,Win32,8.252459233,Chrome,2560,1440,,,,,1,1090,,,,,,,,,,,,,,,,,U,139,triangle,1,0,,,,,,,,,,,,,,,,repeat,number,numRpt,j,0.6816,Lo,,,,,,3,,,,,,,,high,18,0,18,0,1,,,,,,,,,
295435,2022-09-25_16h05.37.962,vts_reward_expectancy,2022.2.4,Win32,8.252459233,Chrome,2560,1440,,,,,10,1100,,,,,,,,,,,,,,,,,H,167,star,1,0,,,,,,,,,,,,,,,,switch,letter,lettSwt,d,0.5377,Hi,,,,,,3,,,,,,,,high,19,0,19,0,1,,,,,,,,,
295435,2022-09-25_16h05.37.962,vts_reward_expectancy,2022.2.4,Win32,8.252459233,Chrome,2560,1440,,,,,1,1101,,,,,,,,,,,,,,,,,Y,125,triangle,1,0,,,,,,,,,,,,,,,,repeat,letter,lettRpt,f,0.6868,Lo,,,,,,3,,,,,,,,high,20,0,20,0,1,,,,,,,,,
295435,2022-09-25_16h05.37.962,vts_reward_expectancy,2022.2.4,Win32,8.252459233,Chrome,2560,1440,,,,,10,1111,,,,,,,,,,,,,,,,,B,146,star,1,0,,,,,,,,,,,,,,,,repeat,letter,lettRpt,d,0.4304,Hi,,,,,,3,,,,,,,,high,21,0,21,0,1,,,,,,,,,
295435,2022-09-25_16h05.37.962,vts_reward_expectancy,2022.2.4,Win32,8.252459233,Chrome,2560,1440,,,,,1,1112,,,,,,,,,,,,,,,,,W,174,triangle,1,0,,,,,,,,,,,,,,,,repeat,letter,lettRpt,f,0.8038,Lo,,,,,,3,,,,,,,,high,22,0,22,0,1,,,,,,,,,
295435,2022-09-25_16h05.37.962,vts_reward_expectancy,2022.2.4,Win32,8.252459233,Chrome,2560,1440,,,,,0,1112,,,,,,,,,,,,,,,,,S,181,star,0,0,,,,,,,,,,,,,,,,switch,number,NA,j,1.0885,Lo,,,,,,3,,,,,,,,high,23,0,23,0,1,,,,,,,,,
295435,2022-09-25_16h05.37.962,vts_reward_expectancy,2022.2.4,Win32,8.252459233,Chrome,2560,1440,,,,,1,1113,,,,,,,,,,,,,,,,,W,167,triangle,1,1,,,,,,,,,,,,,,,,repeat,number,numRpt,k,1.2452,Lo,,,,,,3,,,,,,,,high,24,0,24,0,1,,,,,,,,,
295435,2022-09-25_16h05.37.962,vts_reward_expectancy,2022.2.4,Win32,8.252459233,Chrome,2560,1440,,,,,0,1113,,,,,,,,,,,,,,,,,S,125,star,0,0,,,,,,,,,,,,,,,,repeat,number,NA,k,1.2331,Lo,,,,,,3,,,,,,,,high,25,0,25,0,1,,,,,,,,,
295435,2022-09-25_16h05.37.962,vts_reward_expectancy,2022.2.4,Win32,8.252459233,Chrome,2560,1440,,,,,10,1123,,,,,,,,,,,,,,,,,D,174,triangle,1,1,,,,,,,,,,,,,,,,repeat,number,numRpt,k,0.7187,Lo,,,,,,3,,,,,,,,high,26,0,26,0,1,,,,,,,,,
295435,2022-09-25_16h05.37.962,vts_reward_expectancy,2022.2.4,Win32,8.252459233,Chrome,2560,1440,,,,,1,1124,,,,,,,,,,,,,,,,,F,132,star,1,0,,,,,,,,,,,,,,,,switch,letter,lettSwt,d,0.5608,Hi,,,,,,3,,,,,,,,high,27,0,27,0,1,,,,,,,,,
295435,2022-09-25_16h05.37.962,vts_reward_expectancy,2022.2.4,Win32,8.252459233,Chrome,2560,1440,,,,,0,1124,,,,,,,,,,,,,,,,,B,160,star,1,0,,,,,,,,,,,,,,,,repeat,letter,lettRpt,d,0.8165,Hi,,,,,,3,,,,,,,,high,28,0,28,0,1,,,,,,,,,
295435,2022-09-25_16h05.37.962,vts_reward_expectancy,2022.2.4,Win32,8.252459233,Chrome,2560,1440,,,,,1,1125,,,,,,,,,,,,,,,,,Y,146,triangle,1,0,,,,,,,,,,,,,,,,switch,number,numSwt,j,0.5644,Lo,,,,,,3,,,,,,,,high,29,0,29,0,1,,,,,,,,,
295435,2022-09-25_16h05.37.962,vts_reward_expectancy,2022.2.4,Win32,8.252459233,Chrome,2560,1440,,,,,10,1135,,,,,,,,,,,,,,,,,H,139,triangle,1,0,,,,,,,,,,,,,,,,repeat,number,numRpt,j,0.6984,Lo,,,,,,3,,,,,,,,high,30,0,30,0,1,,,,,,,,,
295435,2022-09-25_16h05.37.962,vts_reward_expectancy,2022.2.4,Win32,8.252459233,Chrome,2560,1440,,,,,0,1135,,,,,,,,,,,,,,,,,U,181,star,1,0,,,,,,,,,,,,,,,,repeat,number,numRpt,k,0.805,Hi,,,,,,3,,,,,,,,high,31,0,31,0,1,,,,,,,,,
295435,2022-09-25_16h05.37.962,vts_reward_expectancy,2022.2.4,Win32,8.252459233,Chrome,2560,1440,,,,,1,1136,,,,,,,,,,,,,,,,,F,181,triangle,1,0,,,,,,,,,,,,,,,,repeat,number,numRpt,k,0.6981,Lo,,,,,,4,,,,,,space,2.5476,high,0,0,0,0,1,,,,,,,,,
295435,2022-09-25_16h05.37.962,vts_reward_expectancy,2022.2.4,Win32,8.252459233,Chrome,2560,1440,,,,,0,1136,,,,,,,,,,,,,,,,,W,146,star,1,0,,,,,,,,,,,,,,,,switch,letter,lettSwt,f,0.6741,Hi,,,,,,4,,,,,,,,high,1,0,1,0,1,,,,,,,,,
295435,2022-09-25_16h05.37.962,vts_reward_expectancy,2022.2.4,Win32,8.252459233,Chrome,2560,1440,,,,,10,1146,,,,,,,,,,,,,,,,,H,125,triangle,1,0,,,,,,,,,,,,,,,,switch,number,numSwt,j,0.5698,Lo,,,,,,4,,,,,,,,high,2,0,2,0,1,,,,,,,,,
295435,2022-09-25_16h05.37.962,vts_reward_expectancy,2022.2.4,Win32,8.252459233,Chrome,2560,1440,,,,,0,1146,,,,,,,,,,,,,,,,,U,160,star,1,0,,,,,,,,,,,,,,,,switch,letter,lettSwt,f,1.1091,Hi,,,,,,4,,,,,,,,high,3,0,3,0,1,,,,,,,,,
295435,2022-09-25_16h05.37.962,vts_reward_expectancy,2022.2.4,Win32,8.252459233,Chrome,2560,1440,,,,,10,1156,,,,,,,,,,,,,,,,,S,132,triangle,1,0,,,,,,,,,,,,,,,,switch,number,numSwt,j,0.5515,Lo,,,,,,4,,,,,,,,high,4,0,4,0,1,,,,,,,,,
295435,2022-09-25_16h05.37.962,vts_reward_expectancy,2022.2.4,Win32,8.252459233,Chrome,2560,1440,,,,,0,1156,,,,,,,,,,,,,,,,,D,139,star,1,0,,,,,,,,,,,,,,,,switch,letter,lettSwt,d,0.8112,Hi,,,,,,4,,,,,,,,high,5,0,5,0,1,,,,,,,,,
295435,2022-09-25_16h05.37.962,vts_reward_expectancy,2022.2.4,Win32,8.252459233,Chrome,2560,1440,,,,,1,1157,,,,,,,,,,,,,,,,,B,167,triangle,1,0,,,,,,,,,,,,,,,,repeat,letter,lettRpt,d,1.3684,Lo,,,,,,4,,,,,,,,high,6,0,6,0,1,,,,,,,,,
295435,2022-09-25_16h05.37.962,vts_reward_expectancy,2022.2.4,Win32,8.252459233,Chrome,2560,1440,,,,,0,1157,,,,,,,,,,,,,,,,,Y,174,star,1,0,,,,,,,,,,,,,,,,switch,number,numSwt,k,0.956,Hi,,,,,,4,,,,,,,,high,7,0,7,0,1,,,,,,,,,
295435,2022-09-25_16h05.37.962,vts_reward_expectancy,2022.2.4,Win32,8.252459233,Chrome,2560,1440,,,,,1,1158,,,,,,,,,,,,,,,,,F,181,triangle,1,0,,,,,,,,,,,,,,,,repeat,number,numRpt,k,1.108,Lo,,,,,,4,,,,,,,,high,8,0,8,0,1,,,,,,,,,
295435,2022-09-25_16h05.37.962,vts_reward_expectancy,2022.2.4,Win32,8.252459233,Chrome,2560,1440,,,,,0,1158,,,,,,,,,,,,,,,,,W,146,star,1,0,,,,,,,,,,,,,,,,switch,letter,lettSwt,f,1.1037,Hi,,,,,,4,,,,,,,,high,9,0,9,0,1,,,,,,,,,
295435,2022-09-25_16h05.37.962,vts_reward_expectancy,2022.2.4,Win32,8.252459233,Chrome,2560,1440,,,,,0,1158,,,,,,,,,,,,,,,,,H,125,star,1,0,,,,,,,,,,,,,,,,switch,number,numSwt,j,0.8179,Hi,,,,,,4,,,,,,,,high,10,0,10,0,1,,,,,,,,,
295435,2022-09-25_16h05.37.962,vts_reward_expectancy,2022.2.4,Win32,8.252459233,Chrome,2560,1440,,,,,0,1158,,,,,,,,,,,,,,,,,U,160,triangle,0,0,,,,,,,,,,,,,,,,switch,letter,NA,d,0.8402,Hi,,,,,,4,,,,,,,,high,11,0,11,0,1,,,,,,,,,
295435,2022-09-25_16h05.37.962,vts_reward_expectancy,2022.2.4,Win32,8.252459233,Chrome,2560,1440,,,,,0,1158,,,,,,,,,,,,,,,,,S,132,star,1,1,,,,,,,,,,,,,,,,switch,number,numSwt,j,1.07,Hi,,,,,,4,,,,,,,,high,12,0,12,0,1,,,,,,,,,
295435,2022-09-25_16h05.37.962,vts_reward_expectancy,2022.2.4,Win32,8.252459233,Chrome,2560,1440,,,,,1,1159,,,,,,,,,,,,,,,,,D,139,triangle,1,0,,,,,,,,,,,,,,,,repeat,number,numRpt,j,0.4144,Lo,,,,,,4,,,,,,,,high,13,0,13,0,1,,,,,,,,,
295435,2022-09-25_16h05.37.962,vts_reward_expectancy,2022.2.4,Win32,8.252459233,Chrome,2560,1440,,,,,0,1159,,,,,,,,,,,,,,,,,B,167,star,1,0,,,,,,,,,,,,,,,,switch,letter,lettSwt,d,0.6861,Hi,,,,,,4,,,,,,,,high,14,0,14,0,1,,,,,,,,,
295435,2022-09-25_16h05.37.962,vts_reward_expectancy,2022.2.4,Win32,8.252459233,Chrome,2560,1440,,,,,0,1159,,,,,,,,,,,,,,,,,Y,174,triangle,0,0,,,,,,,,,,,,,,,,repeat,letter,NA,d,0.4157,Hi,,,,,,4,,,,,,,,high,15,0,15,0,1,,,,,,,,,
295435,2022-09-25_16h05.37.962,vts_reward_expectancy,2022.2.4,Win32,8.252459233,Chrome,2560,1440,,,,,10,1169,,,,,,,,,,,,,,,,,Y,125,triangle,1,1,,,,,,,,,,,,,,,,repeat,letter,lettRpt,f,0.2869,Lo,,,,,,4,,,,,,,,high,16,0,16,0,1,,,,,,,,,
295435,2022-09-25_16h05.37.962,vts_reward_expectancy,2022.2.4,Win32,8.252459233,Chrome,2560,1440,,,,,0,1169,,,,,,,,,,,,,,,,,S,181,star,0,0,,,,,,,,,,,,,,,,switch,number,NA,j,0.8142,Lo,,,,,,4,,,,,,,,high,17,0,17,0,1,,,,,,,,,
295435,2022-09-25_16h05.37.962,vts_reward_expectancy,2022.2.4,Win32,8.252459233,Chrome,2560,1440,,,,,0,1169,,,,,,,,,,,,,,,,,B,132,star,1,1,,,,,,,,,,,,,,,,repeat,number,numRpt,j,0.6887,Hi,,,,,,4,,,,,,,,high,18,0,18,0,1,,,,,,,,,
295435,2022-09-25_16h05.37.962,vts_reward_expectancy,2022.2.4,Win32,8.252459233,Chrome,2560,1440,,,,,0,1169,,,,,,,,,,,,,,,,,W,146,triangle,0,0,,,,,,,,,,,,,,,,repeat,number,NA,k,0.2768,Hi,,,,,,4,,,,,,,,high,19,0,19,0,1,,,,,,,,,
295435,2022-09-25_16h05.37.962,vts_reward_expectancy,2022.2.4,Win32,8.252459233,Chrome,2560,1440,,,,,0,1169,,,,,,,,,,,,,,,,,F,174,star,0,1,,,,,,,,,,,,,,,,switch,letter,NA,f,0.418,Hi,,,,,,4,,,,,,,,high,20,0,20,0,1,,,,,,,,,
295435,2022-09-25_16h05.37.962,vts_reward_expectancy,2022.2.4,Win32,8.252459233,Chrome,2560,1440,,,,,1,1170,,,,,,,,,,,,,,,,,H,167,triangle,1,1,,,,,,,,,,,,,,,,switch,number,numSwt,k,1.0917,Lo,,,,,,4,,,,,,,,high,21,0,21,0,1,,,,,,,,,
295435,2022-09-25_16h05.37.962,vts_reward_expectancy,2022.2.4,Win32,8.252459233,Chrome,2560,1440,,,,,1,1171,,,,,,,,,,,,,,,,,D,160,triangle,1,0,,,,,,,,,,,,,,,,switch,letter,lettSwt,d,0.4153,Lo,,,,,,4,,,,,,,,high,22,0,22,0,1,,,,,,,,,
295435,2022-09-25_16h05.37.962,vts_reward_expectancy,2022.2.4,Win32,8.252459233,Chrome,2560,1440,,,,,0,1171,,,,,,,,,,,,,,,,,U,139,star,1,0,,,,,,,,,,,,,,,,switch,number,numSwt,j,0.537,Hi,,,,,,4,,,,,,,,high,23,0,23,0,1,,,,,,,,,
295435,2022-09-25_16h05.37.962,vts_reward_expectancy,2022.2.4,Win32,8.252459233,Chrome,2560,1440,,,,,1,1172,,,,,,,,,,,,,,,,,U,146,triangle,1,0,,,,,,,,,,,,,,,,repeat,number,numRpt,j,0.5475,Lo,,,,,,4,,,,,,,,high,24,0,24,0,1,,,,,,,,,
295435,2022-09-25_16h05.37.962,vts_reward_expectancy,2022.2.4,Win32,8.252459233,Chrome,2560,1440,,,,,0,1172,,,,,,,,,,,,,,,,,Y,181,star,1,0,,,,,,,,,,,,,,,,switch,letter,lettSwt,f,0.5801,Hi,,,,,,4,,,,,,,,high,25,0,25,0,1,,,,,,,,,
295435,2022-09-25_16h05.37.962,vts_reward_expectancy,2022.2.4,Win32,8.252459233,Chrome,2560,1440,,,,,10,1182,,,,,,,,,,,,,,,,,S,139,star,1,0,,,,,,,,,,,,,,,,repeat,letter,lettRpt,f,0.5633,Hi,,,,,,4,,,,,,,,high,26,0,26,0,1,,,,,,,,,
295435,2022-09-25_16h05.37.962,vts_reward_expectancy,2022.2.4,Win32,8.252459233,Chrome,2560,1440,,,,,1,1183,,,,,,,,,,,,,,,,,B,174,triangle,1,0,,,,,,,,,,,,,,,,switch,number,numSwt,k,0.8386,Lo,,,,,,4,,,,,,,,high,27,0,27,0,1,,,,,,,,,
295435,2022-09-25_16h05.37.962,vts_reward_expectancy,2022.2.4,Win32,8.252459233,Chrome,2560,1440,,,,,1,1184,,,,,,,,,,,,,,,,,D,160,triangle,1,0,,,,,,,,,,,,,,,,switch,letter,lettSwt,d,0.8371,Lo,,,,,,4,,,,,,,,high,28,0,28,0,1,,,,,,,,,
295435,2022-09-25_16h05.37.962,vts_reward_expectancy,2022.2.4,Win32,8.252459233,Chrome,2560,1440,,,,,10,1194,,,,,,,,,,,,,,,,,F,125,star,1,0,,,,,,,,,,,,,,,,repeat,letter,lettRpt,d,0.6768,Hi,,,,,,4,,,,,,,,high,29,0,29,0,1,,,,,,,,,
295435,2022-09-25_16h05.37.962,vts_reward_expectancy,2022.2.4,Win32,8.252459233,Chrome,2560,1440,,,,,10,1204,,,,,,,,,,,,,,,,,W,167,star,1,0,,,,,,,,,,,,,,,,repeat,letter,lettRpt,f,0.6623,Hi,,,,,,4,,,,,,,,high,30,0,30,0,1,,,,,,,,,
295435,2022-09-25_16h05.37.962,vts_reward_expectancy,2022.2.4,Win32,8.252459233,Chrome,2560,1440,,,,,10,1214,,,,,,,,,,,,,,,,,H,132,triangle,1,0,,,,,,,,,,,,,,,,switch,number,numSwt,j,0.4037,Lo,,,,,,4,,,,,,,,high,31,0,31,0,1,,,,,,,,,
295435,2022-09-25_16h05.37.962,vts_reward_expectancy,2022.2.4,Win32,8.252459233,Chrome,2560,1440,,,,,0,1214,,,,,,,,,,,,,,,,,F,132,hexagon,1,0,,,,,,,,,,,,,,,,switch,letter,lettSwt,d,1.122,Hi,,,,,,5,,,,,,space,1.5295,low,0,0,0,0,1,,,,,,,,,
295435,2022-09-25_16h05.37.962,vts_reward_expectancy,2022.2.4,Win32,8.252459233,Chrome,2560,1440,,,,,10,1224,,,,,,,,,,,,,,,,,W,181,circle,1,0,,,,,,,,,,,,,,,,repeat,letter,lettRpt,f,0.5378,Lo,,,,,,5,,,,,,,,low,1,0,1,0,1,,,,,,,,,
295435,2022-09-25_16h05.37.962,vts_reward_expectancy,2022.2.4,Win32,8.252459233,Chrome,2560,1440,,,,,0,1224,,,,,,,,,,,,,,,,,S,160,hexagon,1,0,,,,,,,,,,,,,,,,switch,number,numSwt,k,0.6772,Hi,,,,,,5,,,,,,,,low,2,0,2,0,1,,,,,,,,,
295435,2022-09-25_16h05.37.962,vts_reward_expectancy,2022.2.4,Win32,8.252459233,Chrome,2560,1440,,,,,10,1234,,,,,,,,,,,,,,,,,B,174,circle,1,0,,,,,,,,,,,,,,,,switch,letter,lettSwt,d,0.8334,Lo,,,,,,5,,,,,,,,low,3,0,3,0,1,,,,,,,,,
295435,2022-09-25_16h05.37.962,vts_reward_expectancy,2022.2.4,Win32,8.252459233,Chrome,2560,1440,,,,,0,1234,,,,,,,,,,,,,,,,,Y,146,hexagon,1,0,,,,,,,,,,,,,,,,switch,number,numSwt,j,0.6835,Hi,,,,,,5,,,,,,,,low,4,0,4,0,1,,,,,,,,,
295435,2022-09-25_16h05.37.962,vts_reward_expectancy,2022.2.4,Win32,8.252459233,Chrome,2560,1440,,,,,1,1235,,,,,,,,,,,,,,,,,U,125,circle,1,0,,,,,,,,,,,,,,,,switch,letter,lettSwt,f,0.6827,Lo,,,,,,5,,,,,,,,low,5,0,5,0,1,,,,,,,,,
295435,2022-09-25_16h05.37.962,vts_reward_expectancy,2022.2.4,Win32,8.252459233,Chrome,2560,1440,,,,,0,1235,,,,,,,,,,,,,,,,,H,167,circle,0,0,,,,,,,,,,,,,,,,switch,number,NA,j,1.2167,Lo,,,,,,5,,,,,,,,low,6,0,6,0,1,,,,,,,,,
295435,2022-09-25_16h05.37.962,vts_reward_expectancy,2022.2.4,Win32,8.252459233,Chrome,2560,1440,,,,,10,1245,,,,,,,,,,,,,,,,,D,139,hexagon,1,1,,,,,,,,,,,,,,,,switch,letter,lettSwt,d,0.5557,Hi,,,,,,5,,,,,,,,low,7,0,7,0,1,,,,,,,,,
295435,2022-09-25_16h05.37.962,vts_reward_expectancy,2022.2.4,Win32,8.252459233,Chrome,2560,1440,,,,,10,1255,,,,,,,,,,,,,,,,,F,132,circle,1,0,,,,,,,,,,,,,,,,switch,number,numSwt,j,0.6894,Lo,,,,,,5,,,,,,,,low,8,0,8,0,1,,,,,,,,,
295435,2022-09-25_16h05.37.962,vts_reward_expectancy,2022.2.4,Win32,8.252459233,Chrome,2560,1440,,,,,0,1255,,,,,,,,,,,,,,,,,W,181,hexagon,1,0,,,,,,,,,,,,,,,,repeat,number,numRpt,k,1.2255,Hi,,,,,,5,,,,,,,,low,9,0,9,0,1,,,,,,,,,
295435,2022-09-25_16h05.37.962,vts_reward_expectancy,2022.2.4,Win32,8.252459233,Chrome,2560,1440,,,,,0,1255,,,,,,,,,,,,,,,,,S,160,hexagon,1,0,,,,,,,,,,,,,,,,repeat,number,numRpt,k,0.8222,Hi,,,,,,5,,,,,,,,low,10,0,10,0,1,,,,,,,,,
295435,2022-09-25_16h05.37.962,vts_reward_expectancy,2022.2.4,Win32,8.252459233,Chrome,2560,1440,,,,,1,1256,,,,,,,,,,,,,,,,,B,174,circle,1,0,,,,,,,,,,,,,,,,switch,letter,lettSwt,d,0.6713,Lo,,,,,,5,,,,,,,,low,11,0,11,0,1,,,,,,,,,
295435,2022-09-25_16h05.37.962,vts_reward_expectancy,2022.2.4,Win32,8.252459233,Chrome,2560,1440,,,,,1,1257,,,,,,,,,,,,,,,,,Y,146,circle,1,0,,,,,,,,,,,,,,,,repeat,letter,lettRpt,f,0.6986,Lo,,,,,,5,,,,,,,,low,12,0,12,0,1,,,,,,,,,
295435,2022-09-25_16h05.37.962,vts_reward_expectancy,2022.2.4,Win32,8.252459233,Chrome,2560,1440,,,,,0,1257,,,,,,,,,,,,,,,,,U,125,hexagon,1,0,,,,,,,,,,,,,,,,switch,number,numSwt,j,1.0956,Hi,,,,,,5,,,,,,,,low,13,0,13,0,1,,,,,,,,,
295435,2022-09-25_16h05.37.962,vts_reward_expectancy,2022.2.4,Win32,8.252459233,Chrome,2560,1440,,,,,10,1267,,,,,,,,,,,,,,,,,H,167,hexagon,1,0,,,,,,,,,,,,,,,,repeat,number,numRpt,k,0.5885,Hi,,,,,,5,,,,,,,,low,14,0,14,0,1,,,,,,,,,
295435,2022-09-25_16h05.37.962,vts_reward_expectancy,2022.2.4,Win32,8.252459233,Chrome,2560,1440,,,,,1,1268,,,,,,,,,,,,,,,,,D,139,circle,1,0,,,,,,,,,,,,,,,,switch,letter,lettSwt,d,0.4358,Lo,,,,,,5,,,,,,,,low,15,0,15,0,1,,,,,,,,,
295435,2022-09-25_16h05.37.962,vts_reward_expectancy,2022.2.4,Win32,8.252459233,Chrome,2560,1440,,,,,10,1278,,,,,,,,,,,,,,,,,S,139,circle,1,0,,,,,,,,,,,,,,,,repeat,letter,lettRpt,f,0.5634,Lo,,,,,,5,,,,,,,,low,16,0,16,0,1,,,,,,,,,
295435,2022-09-25_16h05.37.962,vts_reward_expectancy,2022.2.4,Win32,8.252459233,Chrome,2560,1440,,,,,0,1278,,,,,,,,,,,,,,,,,D,174,hexagon,0,0,,,,,,,,,,,,,,,,repeat,letter,NA,f,0.9755,Lo,,,,,,5,,,,,,,,low,17,0,17,0,1,,,,,,,,,
295435,2022-09-25_16h05.37.962,vts_reward_expectancy,2022.2.4,Win32,8.252459233,Chrome,2560,1440,,,,,10,1288,,,,,,,,,,,,,,,,,W,167,circle,1,1,,,,,,,,,,,,,,,,repeat,letter,lettRpt,f,0.8276,Lo,,,,,,5,,,,,,,,low,18,0,18,0,1,,,,,,,,,
295435,2022-09-25_16h05.37.962,vts_reward_expectancy,2022.2.4,Win32,8.252459233,Chrome,2560,1440,,,,,0,1288,,,,,,,,,,,,,,,,,Y,160,hexagon,1,0,,,,,,,,,,,,,,,,switch,number,numSwt,k,0.9449,Hi,,,,,,5,,,,,,,,low,19,0,19,0,1,,,,,,,,,
295435,2022-09-25_16h05.37.962,vts_reward_expectancy,2022.2.4,Win32,8.252459233,Chrome,2560,1440,,,,,0,1288,,,,,,,,,,,,,,,,,U,181,hexagon,0,0,,,,,,,,,,,,,,,,switch,letter,NA,d,0.6666,Hi,,,,,,5,,,,,,,,low,20,0,20,0,1,,,,,,,,,
295435,2022-09-25_16h05.37.962,vts_reward_expectancy,2022.2.4,Win32,8.252459233,Chrome,2560,1440,,,,,1,1289,,,,,,,,,,,,,,,,,F,146,circle,1,1,,,,,,,,,,,,,,,,repeat,letter,lettRpt,d,0.5456,Lo,,,,,,5,,,,,,,,low,21,0,21,0,1,,,,,,,,,
295435,2022-09-25_16h05.37.962,vts_reward_expectancy,2022.2.4,Win32,8.252459233,Chrome,2560,1440,,,,,0,1289,,,,,,,,,,,,,,,,,B,132,hexagon,1,0,,,,,,,,,,,,,,,,switch,number,numSwt,j,0.6837,Hi,,,,,,5,,,,,,,,low,22,0,22,0,1,,,,,,,,,
295435,2022-09-25_16h05.37.962,vts_reward_expectancy,2022.2.4,Win32,8.252459233,Chrome,2560,1440,,,,,0,1289,,,,,,,,,,,,,,,,,H,125,circle,0,0,,,,,,,,,,,,,,,,switch,letter,NA,f,0.7103,Hi,,,,,,5,,,,,,,,low,23,0,23,0,1,,,,,,,,,
295435,2022-09-25_16h05.37.962,vts_reward_expectancy,2022.2.4,Win32,8.252459233,Chrome,2560,1440,,,,,1,1290,,,,,,,,,,,,,,,,,W,132,circle,1,1,,,,,,,,,,,,,,,,repeat,letter,lettRpt,f,0.6869,Lo,,,,,,5,,,,,,,,low,24,0,24,0,1,,,,,,,,,
295435,2022-09-25_16h05.37.962,vts_reward_expectancy,2022.2.4,Win32,8.252459233,Chrome,2560,1440,,,,,0,1290,,,,,,,,,,,,,,,,,B,146,hexagon,1,0,,,,,,,,,,,,,,,,repeat,letter,lettRpt,d,0.6642,Hi,,,,,,5,,,,,,,,low,25,0,25,0,1,,,,,,,,,
295435,2022-09-25_16h05.37.962,vts_reward_expectancy,2022.2.4,Win32,8.252459233,Chrome,2560,1440,,,,,1,1291,,,,,,,,,,,,,,,,,H,181,circle,1,0,,,,,,,,,,,,,,,,switch,number,numSwt,k,0.8424,Lo,,,,,,5,,,,,,,,low,26,0,26,0,1,,,,,,,,,
295435,2022-09-25_16h05.37.962,vts_reward_expectancy,2022.2.4,Win32,8.252459233,Chrome,2560,1440,,,,,10,1301,,,,,,,,,,,,,,,,,S,125,hexagon,1,0,,,,,,,,,,,,,,,,repeat,number,numRpt,j,0.4081,Hi,,,,,,5,,,,,,,,low,27,0,27,0,1,,,,,,,,,
295435,2022-09-25_16h05.37.962,vts_reward_expectancy,2022.2.4,Win32,8.252459233,Chrome,2560,1440,,,,,0,1301,,,,,,,,,,,,,,,,,Y,139,hexagon,1,0,,,,,,,,,,,,,,,,repeat,number,numRpt,j,0.6925,Hi,,,,,,5,,,,,,,,low,28,0,28,0,1,,,,,,,,,
295435,2022-09-25_16h05.37.962,vts_reward_expectancy,2022.2.4,Win32,8.252459233,Chrome,2560,1440,,,,,0,1301,,,,,,,,,,,,,,,,,U,160,circle,0,0,,,,,,,,,,,,,,,,switch,letter,NA,d,0.5454,Hi,,,,,,5,,,,,,,,low,29,0,29,0,1,,,,,,,,,
295435,2022-09-25_16h05.37.962,vts_reward_expectancy,2022.2.4,Win32,8.252459233,Chrome,2560,1440,,,,,0,1301,,,,,,,,,,,,,,,,,F,174,hexagon,1,1,,,,,,,,,,,,,,,,switch,number,numSwt,k,0.6794,Hi,,,,,,5,,,,,,,,low,30,0,30,0,1,,,,,,,,,
295435,2022-09-25_16h05.37.962,vts_reward_expectancy,2022.2.4,Win32,8.252459233,Chrome,2560,1440,,,,,1,1302,,,,,,,,,,,,,,,,,D,167,circle,1,0,,,,,,,,,,,,,,,,switch,letter,lettSwt,d,0.6902,Lo,,,,,,5,,,,,,,,low,31,0,31,0,1,,,,,,,,,
295435,2022-09-25_16h05.37.962,vts_reward_expectancy,2022.2.4,Win32,8.252459233,Chrome,2560,1440,,,,,,,,,,,,,,,,,,,,,,,,,,,,,,,,,,,,,,,,,,,,,,,,,,,,,,6,,,,,,,,,,,,,,I was asked to look at the screen and decide if letter where closer to A or to Z or  whether numbers wewre greater than of less than 153 using my keys.,1,,4,3,,2,2560,1440
