participant,date,expName,psychopyVersion,OS,frameRate,browser,xResolution,yResolution,key_resp.keys,key_resp.rt,training_resp.keys,training_resp.rt,points_trial,points_cumul,trainBlock,training.thisRepN,training.thisTrialN,training.thisN,training.thisIndex,training.ran,LTriangleOpac,LCircleOpac,LHexagonOpac,LStarOpac,RTriangleOpac,RCircleOpac,RHexagonOpac,RStarOpac,LShape_ID,RShape_ID,curr_topStim,curr_bottStim,curr_shape,acc,E1,target_resp_prac1.keys,target_resp_prac1.rt,pracBlock,task1_prac_trials.thisRepN,task1_prac_trials.thisTrialN,task1_prac_trials.thisN,task1_prac_trials.thisIndex,task1_prac_trials.ran,target_resp_prac2.keys,target_resp_prac2.rt,task2_praac_trials.thisRepN,task2_praac_trials.thisTrialN,task2_praac_trials.thisN,task2_praac_trials.thisIndex,task2_praac_trials.ran,alt,task,condition,target_resp.keys,target_resp.rt,rewCond,vts_practice_trials.thisRepN,vts_practice_trials.thisTrialN,vts_practice_trials.thisN,vts_practice_trials.thisIndex,vts_practice_trials.ran,blockNum,trials_norew.thisRepN,trials_norew.thisTrialN,trials_norew.thisN,trials_norew.thisIndex,trials_norew.ran,key_resp_2.keys,key_resp_2.rt,rewExpect,trials_rew.thisRepN,trials_rew.thisTrialN,trials_rew.thisN,trials_rew.thisIndex,trials_rew.ran,Q1,Q2,Q2_text,Q3,Q4,Q5_text,Q5,xRes,yRes
294301,2022-09-30_12h37.38.767,vts_reward_expectancy,2022.2.4,MacIntel,60.0024001,Chrome,1680,1050,,,,,,,,,,,,,,,,,,,,,,,,,,,,,,,,,,,,,,,,,,,,,,,,,,,,,,,,,,,,,,,,,,,,,,,,,,,,
294301,2022-09-30_12h37.38.767,vts_reward_expectancy,2022.2.4,MacIntel,60.0024001,Chrome,1680,1050,space,1.8758,,,,,,,,,,,,,,,,,,,,,,,,,,,,,,,,,,,,,,,,,,,,,,,,,,,,,,,,,,,,,,,,,,,,,,,,,,
294301,2022-09-30_12h37.38.767,vts_reward_expectancy,2022.2.4,MacIntel,60.0024001,Chrome,1680,1050,,,,,,,,,,,,,,,,,,,,,,,,,,,,,,,,,,,,,,,,,,,,,,,,,,,,,,,,,,,,,,,,,,,,,,,,,,,,
294301,2022-09-30_12h37.38.767,vts_reward_expectancy,2022.2.4,MacIntel,60.0024001,Chrome,1680,1050,,,l,2.5191,10,10,0,0,0,0,8,1,0,0,1,0,0,0,0,1,hexagon,star,,,,,,,,,,,,,,,,,,,,,,,,,,,,,,,,,,,,,,,,,,,,,,,,,,,,,,
294301,2022-09-30_12h37.38.767,vts_reward_expectancy,2022.2.4,MacIntel,60.0024001,Chrome,1680,1050,,,a,1.2375,10,20,0,0,1,1,3,1,0,1,0,0,1,0,0,0,circle,triangle,,,,,,,,,,,,,,,,,,,,,,,,,,,,,,,,,,,,,,,,,,,,,,,,,,,,,,
294301,2022-09-30_12h37.38.767,vts_reward_expectancy,2022.2.4,MacIntel,60.0024001,Chrome,1680,1050,,,l,0.7151,1,21,0,0,2,2,7,1,0,0,1,0,0,1,0,0,hexagon,circle,,,,,,,,,,,,,,,,,,,,,,,,,,,,,,,,,,,,,,,,,,,,,,,,,,,,,,
294301,2022-09-30_12h37.38.767,vts_reward_expectancy,2022.2.4,MacIntel,60.0024001,Chrome,1680,1050,,,a,0.8347,10,31,0,0,3,3,0,1,1,0,0,0,0,1,0,0,triangle,circle,,,,,,,,,,,,,,,,,,,,,,,,,,,,,,,,,,,,,,,,,,,,,,,,,,,,,,
294301,2022-09-30_12h37.38.767,vts_reward_expectancy,2022.2.4,MacIntel,60.0024001,Chrome,1680,1050,,,l,0.6631,10,41,0,0,4,4,5,1,0,1,0,0,0,0,0,1,circle,star,,,,,,,,,,,,,,,,,,,,,,,,,,,,,,,,,,,,,,,,,,,,,,,,,,,,,,
294301,2022-09-30_12h37.38.767,vts_reward_expectancy,2022.2.4,MacIntel,60.0024001,Chrome,1680,1050,,,a,0.6866,10,51,0,0,5,5,10,1,0,0,0,1,0,1,0,0,star ,circle,,,,,,,,,,,,,,,,,,,,,,,,,,,,,,,,,,,,,,,,,,,,,,,,,,,,,,
294301,2022-09-30_12h37.38.767,vts_reward_expectancy,2022.2.4,MacIntel,60.0024001,Chrome,1680,1050,,,l,0.9508,10,61,0,0,6,6,1,1,1,0,0,0,0,0,1,0,triangle,hexagon,,,,,,,,,,,,,,,,,,,,,,,,,,,,,,,,,,,,,,,,,,,,,,,,,,,,,,
294301,2022-09-30_12h37.38.767,vts_reward_expectancy,2022.2.4,MacIntel,60.0024001,Chrome,1680,1050,,,a,0.6505,10,71,0,0,7,7,9,1,0,0,0,1,1,0,0,0,star,triangle,,,,,,,,,,,,,,,,,,,,,,,,,,,,,,,,,,,,,,,,,,,,,,,,,,,,,,
294301,2022-09-30_12h37.38.767,vts_reward_expectancy,2022.2.4,MacIntel,60.0024001,Chrome,1680,1050,,,l,0.6656,10,81,0,0,8,8,4,1,0,1,0,0,0,0,1,0,circle,hexagon,,,,,,,,,,,,,,,,,,,,,,,,,,,,,,,,,,,,,,,,,,,,,,,,,,,,,,
294301,2022-09-30_12h37.38.767,vts_reward_expectancy,2022.2.4,MacIntel,60.0024001,Chrome,1680,1050,,,a,0.5821,10,91,0,0,9,9,11,1,0,0,0,1,0,0,1,0,star,hexagon,,,,,,,,,,,,,,,,,,,,,,,,,,,,,,,,,,,,,,,,,,,,,,,,,,,,,,
294301,2022-09-30_12h37.38.767,vts_reward_expectancy,2022.2.4,MacIntel,60.0024001,Chrome,1680,1050,,,a,1.0314,10,101,0,0,10,10,6,1,0,0,1,0,1,0,0,0,hexagon,triangle,,,,,,,,,,,,,,,,,,,,,,,,,,,,,,,,,,,,,,,,,,,,,,,,,,,,,,
294301,2022-09-30_12h37.38.767,vts_reward_expectancy,2022.2.4,MacIntel,60.0024001,Chrome,1680,1050,,,l,0.7087,10,111,0,0,11,11,2,1,1,0,0,0,0,0,0,1,triangle,star,,,,,,,,,,,,,,,,,,,,,,,,,,,,,,,,,,,,,,,,,,,,,,,,,,,,,,
294301,2022-09-30_12h37.38.767,vts_reward_expectancy,2022.2.4,MacIntel,60.0024001,Chrome,1680,1050,,,a,0.6807,10,121,0,1,0,12,7,1,0,0,1,0,0,1,0,0,hexagon,circle,,,,,,,,,,,,,,,,,,,,,,,,,,,,,,,,,,,,,,,,,,,,,,,,,,,,,,
294301,2022-09-30_12h37.38.767,vts_reward_expectancy,2022.2.4,MacIntel,60.0024001,Chrome,1680,1050,,,l,0.4736,10,131,0,1,1,13,1,1,1,0,0,0,0,0,1,0,triangle,hexagon,,,,,,,,,,,,,,,,,,,,,,,,,,,,,,,,,,,,,,,,,,,,,,,,,,,,,,
294301,2022-09-30_12h37.38.767,vts_reward_expectancy,2022.2.4,MacIntel,60.0024001,Chrome,1680,1050,,,l,0.4857,10,141,0,1,2,14,5,1,0,1,0,0,0,0,0,1,circle,star,,,,,,,,,,,,,,,,,,,,,,,,,,,,,,,,,,,,,,,,,,,,,,,,,,,,,,
294301,2022-09-30_12h37.38.767,vts_reward_expectancy,2022.2.4,MacIntel,60.0024001,Chrome,1680,1050,,,l,0.4667,1,142,0,1,3,15,2,1,1,0,0,0,0,0,0,1,triangle,star,,,,,,,,,,,,,,,,,,,,,,,,,,,,,,,,,,,,,,,,,,,,,,,,,,,,,,
294301,2022-09-30_12h37.38.767,vts_reward_expectancy,2022.2.4,MacIntel,60.0024001,Chrome,1680,1050,,,l,0.8864,10,152,0,1,4,16,8,1,0,0,1,0,0,0,0,1,hexagon,star,,,,,,,,,,,,,,,,,,,,,,,,,,,,,,,,,,,,,,,,,,,,,,,,,,,,,,
294301,2022-09-30_12h37.38.767,vts_reward_expectancy,2022.2.4,MacIntel,60.0024001,Chrome,1680,1050,,,a,0.5656,10,162,0,1,5,17,10,1,0,0,0,1,0,1,0,0,star ,circle,,,,,,,,,,,,,,,,,,,,,,,,,,,,,,,,,,,,,,,,,,,,,,,,,,,,,,
294301,2022-09-30_12h37.38.767,vts_reward_expectancy,2022.2.4,MacIntel,60.0024001,Chrome,1680,1050,,,a,0.5837,10,172,0,1,6,18,11,1,0,0,0,1,0,0,1,0,star,hexagon,,,,,,,,,,,,,,,,,,,,,,,,,,,,,,,,,,,,,,,,,,,,,,,,,,,,,,
294301,2022-09-30_12h37.38.767,vts_reward_expectancy,2022.2.4,MacIntel,60.0024001,Chrome,1680,1050,,,l,0.7628,1,173,0,1,7,19,4,1,0,1,0,0,0,0,1,0,circle,hexagon,,,,,,,,,,,,,,,,,,,,,,,,,,,,,,,,,,,,,,,,,,,,,,,,,,,,,,
294301,2022-09-30_12h37.38.767,vts_reward_expectancy,2022.2.4,MacIntel,60.0024001,Chrome,1680,1050,,,a,0.6511,1,174,0,1,8,20,9,1,0,0,0,1,1,0,0,0,star,triangle,,,,,,,,,,,,,,,,,,,,,,,,,,,,,,,,,,,,,,,,,,,,,,,,,,,,,,
294301,2022-09-30_12h37.38.767,vts_reward_expectancy,2022.2.4,MacIntel,60.0024001,Chrome,1680,1050,,,a,1.0494,10,184,0,1,9,21,0,1,1,0,0,0,0,1,0,0,triangle,circle,,,,,,,,,,,,,,,,,,,,,,,,,,,,,,,,,,,,,,,,,,,,,,,,,,,,,,
294301,2022-09-30_12h37.38.767,vts_reward_expectancy,2022.2.4,MacIntel,60.0024001,Chrome,1680,1050,,,a,0.8716,10,194,0,1,10,22,6,1,0,0,1,0,1,0,0,0,hexagon,triangle,,,,,,,,,,,,,,,,,,,,,,,,,,,,,,,,,,,,,,,,,,,,,,,,,,,,,,
294301,2022-09-30_12h37.38.767,vts_reward_expectancy,2022.2.4,MacIntel,60.0024001,Chrome,1680,1050,,,l,0.532,10,204,0,1,11,23,3,1,0,1,0,0,1,0,0,0,circle,triangle,,,,,,,,,,,,,,,,,,,,,,,,,,,,,,,,,,,,,,,,,,,,,,,,,,,,,,
294301,2022-09-30_12h37.38.767,vts_reward_expectancy,2022.2.4,MacIntel,60.0024001,Chrome,1680,1050,,,l,0.775,10,214,0,2,0,24,4,1,0,1,0,0,0,0,1,0,circle,hexagon,,,,,,,,,,,,,,,,,,,,,,,,,,,,,,,,,,,,,,,,,,,,,,,,,,,,,,
294301,2022-09-30_12h37.38.767,vts_reward_expectancy,2022.2.4,MacIntel,60.0024001,Chrome,1680,1050,,,a,0.5322,1,215,0,2,1,25,9,1,0,0,0,1,1,0,0,0,star,triangle,,,,,,,,,,,,,,,,,,,,,,,,,,,,,,,,,,,,,,,,,,,,,,,,,,,,,,
294301,2022-09-30_12h37.38.767,vts_reward_expectancy,2022.2.4,MacIntel,60.0024001,Chrome,1680,1050,,,l,0.4182,1,216,0,2,2,26,3,1,0,1,0,0,1,0,0,0,circle,triangle,,,,,,,,,,,,,,,,,,,,,,,,,,,,,,,,,,,,,,,,,,,,,,,,,,,,,,
294301,2022-09-30_12h37.38.767,vts_reward_expectancy,2022.2.4,MacIntel,60.0024001,Chrome,1680,1050,,,l,0.3489,10,226,0,2,3,27,6,1,0,0,1,0,1,0,0,0,hexagon,triangle,,,,,,,,,,,,,,,,,,,,,,,,,,,,,,,,,,,,,,,,,,,,,,,,,,,,,,
294301,2022-09-30_12h37.38.767,vts_reward_expectancy,2022.2.4,MacIntel,60.0024001,Chrome,1680,1050,,,l,0.2685,1,227,0,2,4,28,8,1,0,0,1,0,0,0,0,1,hexagon,star,,,,,,,,,,,,,,,,,,,,,,,,,,,,,,,,,,,,,,,,,,,,,,,,,,,,,,
294301,2022-09-30_12h37.38.767,vts_reward_expectancy,2022.2.4,MacIntel,60.0024001,Chrome,1680,1050,,,a,0.1576,10,237,0,2,5,29,0,1,1,0,0,0,0,1,0,0,triangle,circle,,,,,,,,,,,,,,,,,,,,,,,,,,,,,,,,,,,,,,,,,,,,,,,,,,,,,,
294301,2022-09-30_12h37.38.767,vts_reward_expectancy,2022.2.4,MacIntel,60.0024001,Chrome,1680,1050,,,l,0.1488,1,238,0,2,6,30,10,1,0,0,0,1,0,1,0,0,star ,circle,,,,,,,,,,,,,,,,,,,,,,,,,,,,,,,,,,,,,,,,,,,,,,,,,,,,,,
294301,2022-09-30_12h37.38.767,vts_reward_expectancy,2022.2.4,MacIntel,60.0024001,Chrome,1680,1050,,,a,0.2006,10,248,0,2,7,31,1,1,1,0,0,0,0,0,1,0,triangle,hexagon,,,,,,,,,,,,,,,,,,,,,,,,,,,,,,,,,,,,,,,,,,,,,,,,,,,,,,
294301,2022-09-30_12h37.38.767,vts_reward_expectancy,2022.2.4,MacIntel,60.0024001,Chrome,1680,1050,,,l,0.081,1,249,0,2,8,32,7,1,0,0,1,0,0,1,0,0,hexagon,circle,,,,,,,,,,,,,,,,,,,,,,,,,,,,,,,,,,,,,,,,,,,,,,,,,,,,,,
294301,2022-09-30_12h37.38.767,vts_reward_expectancy,2022.2.4,MacIntel,60.0024001,Chrome,1680,1050,,,l,0.2848,1,250,0,2,9,33,2,1,1,0,0,0,0,0,0,1,triangle,star,,,,,,,,,,,,,,,,,,,,,,,,,,,,,,,,,,,,,,,,,,,,,,,,,,,,,,
294301,2022-09-30_12h37.38.767,vts_reward_expectancy,2022.2.4,MacIntel,60.0024001,Chrome,1680,1050,,,a,0.7743,1,251,0,2,10,34,5,1,0,1,0,0,0,0,0,1,circle,star,,,,,,,,,,,,,,,,,,,,,,,,,,,,,,,,,,,,,,,,,,,,,,,,,,,,,,
294301,2022-09-30_12h37.38.767,vts_reward_expectancy,2022.2.4,MacIntel,60.0024001,Chrome,1680,1050,,,l,0.8991,1,252,0,2,11,35,11,1,0,0,0,1,0,0,1,0,star,hexagon,,,,,,,,,,,,,,,,,,,,,,,,,,,,,,,,,,,,,,,,,,,,,,,,,,,,,,
294301,2022-09-30_12h37.38.767,vts_reward_expectancy,2022.2.4,MacIntel,60.0024001,Chrome,1680,1050,,,a,0.9326,1,253,1,0,0,0,10,1,0,0,0,1,0,1,0,0,star ,circle,,,,,,,,,,,,,,,,,,,,,,,,,,,,,,,,,,,,,,,,,,,,,,,,,,,,,,
294301,2022-09-30_12h37.38.767,vts_reward_expectancy,2022.2.4,MacIntel,60.0024001,Chrome,1680,1050,,,a,0.5831,1,254,1,0,1,1,3,1,0,1,0,0,1,0,0,0,circle,triangle,,,,,,,,,,,,,,,,,,,,,,,,,,,,,,,,,,,,,,,,,,,,,,,,,,,,,,
294301,2022-09-30_12h37.38.767,vts_reward_expectancy,2022.2.4,MacIntel,60.0024001,Chrome,1680,1050,,,a,0.5908,10,264,1,0,2,2,11,1,0,0,0,1,0,0,1,0,star,hexagon,,,,,,,,,,,,,,,,,,,,,,,,,,,,,,,,,,,,,,,,,,,,,,,,,,,,,,
294301,2022-09-30_12h37.38.767,vts_reward_expectancy,2022.2.4,MacIntel,60.0024001,Chrome,1680,1050,,,l,0.4835,1,265,1,0,3,3,6,1,0,0,1,0,1,0,0,0,hexagon,triangle,,,,,,,,,,,,,,,,,,,,,,,,,,,,,,,,,,,,,,,,,,,,,,,,,,,,,,
294301,2022-09-30_12h37.38.767,vts_reward_expectancy,2022.2.4,MacIntel,60.0024001,Chrome,1680,1050,,,l,0.4864,10,275,1,0,4,4,8,1,0,0,1,0,0,0,0,1,hexagon,star,,,,,,,,,,,,,,,,,,,,,,,,,,,,,,,,,,,,,,,,,,,,,,,,,,,,,,
294301,2022-09-30_12h37.38.767,vts_reward_expectancy,2022.2.4,MacIntel,60.0024001,Chrome,1680,1050,,,a,0.4682,10,285,1,0,5,5,9,1,0,0,0,1,1,0,0,0,star,triangle,,,,,,,,,,,,,,,,,,,,,,,,,,,,,,,,,,,,,,,,,,,,,,,,,,,,,,
294301,2022-09-30_12h37.38.767,vts_reward_expectancy,2022.2.4,MacIntel,60.0024001,Chrome,1680,1050,,,a,1.4196,1,286,1,0,6,6,0,1,1,0,0,0,0,1,0,0,triangle,circle,,,,,,,,,,,,,,,,,,,,,,,,,,,,,,,,,,,,,,,,,,,,,,,,,,,,,,
294301,2022-09-30_12h37.38.767,vts_reward_expectancy,2022.2.4,MacIntel,60.0024001,Chrome,1680,1050,,,l,0.3844,10,296,1,0,7,7,1,1,1,0,0,0,0,0,1,0,triangle,hexagon,,,,,,,,,,,,,,,,,,,,,,,,,,,,,,,,,,,,,,,,,,,,,,,,,,,,,,
294301,2022-09-30_12h37.38.767,vts_reward_expectancy,2022.2.4,MacIntel,60.0024001,Chrome,1680,1050,,,l,0.4541,1,297,1,0,8,8,2,1,1,0,0,0,0,0,0,1,triangle,star,,,,,,,,,,,,,,,,,,,,,,,,,,,,,,,,,,,,,,,,,,,,,,,,,,,,,,
294301,2022-09-30_12h37.38.767,vts_reward_expectancy,2022.2.4,MacIntel,60.0024001,Chrome,1680,1050,,,l,0.7148,1,298,1,0,9,9,4,1,0,1,0,0,0,0,1,0,circle,hexagon,,,,,,,,,,,,,,,,,,,,,,,,,,,,,,,,,,,,,,,,,,,,,,,,,,,,,,
294301,2022-09-30_12h37.38.767,vts_reward_expectancy,2022.2.4,MacIntel,60.0024001,Chrome,1680,1050,,,a,0.4174,1,299,1,0,10,10,7,1,0,0,1,0,0,1,0,0,hexagon,circle,,,,,,,,,,,,,,,,,,,,,,,,,,,,,,,,,,,,,,,,,,,,,,,,,,,,,,
294301,2022-09-30_12h37.38.767,vts_reward_expectancy,2022.2.4,MacIntel,60.0024001,Chrome,1680,1050,,,l,0.4188,10,309,1,0,11,11,5,1,0,1,0,0,0,0,0,1,circle,star,,,,,,,,,,,,,,,,,,,,,,,,,,,,,,,,,,,,,,,,,,,,,,,,,,,,,,
294301,2022-09-30_12h37.38.767,vts_reward_expectancy,2022.2.4,MacIntel,60.0024001,Chrome,1680,1050,,,a,0.4402,1,310,1,1,0,12,11,1,0,0,0,1,0,0,1,0,star,hexagon,,,,,,,,,,,,,,,,,,,,,,,,,,,,,,,,,,,,,,,,,,,,,,,,,,,,,,
294301,2022-09-30_12h37.38.767,vts_reward_expectancy,2022.2.4,MacIntel,60.0024001,Chrome,1680,1050,,,l,0.2977,1,311,1,1,1,13,7,1,0,0,1,0,0,1,0,0,hexagon,circle,,,,,,,,,,,,,,,,,,,,,,,,,,,,,,,,,,,,,,,,,,,,,,,,,,,,,,
294301,2022-09-30_12h37.38.767,vts_reward_expectancy,2022.2.4,MacIntel,60.0024001,Chrome,1680,1050,,,a,0.072,10,321,1,1,2,14,0,1,1,0,0,0,0,1,0,0,triangle,circle,,,,,,,,,,,,,,,,,,,,,,,,,,,,,,,,,,,,,,,,,,,,,,,,,,,,,,
294301,2022-09-30_12h37.38.767,vts_reward_expectancy,2022.2.4,MacIntel,60.0024001,Chrome,1680,1050,,,l,0.517,1,322,1,1,3,15,4,1,0,1,0,0,0,0,1,0,circle,hexagon,,,,,,,,,,,,,,,,,,,,,,,,,,,,,,,,,,,,,,,,,,,,,,,,,,,,,,
294301,2022-09-30_12h37.38.767,vts_reward_expectancy,2022.2.4,MacIntel,60.0024001,Chrome,1680,1050,,,l,0.4675,1,323,1,1,4,16,10,1,0,0,0,1,0,1,0,0,star ,circle,,,,,,,,,,,,,,,,,,,,,,,,,,,,,,,,,,,,,,,,,,,,,,,,,,,,,,
294301,2022-09-30_12h37.38.767,vts_reward_expectancy,2022.2.4,MacIntel,60.0024001,Chrome,1680,1050,,,l,0.1589,10,333,1,1,5,17,9,1,0,0,0,1,1,0,0,0,star,triangle,,,,,,,,,,,,,,,,,,,,,,,,,,,,,,,,,,,,,,,,,,,,,,,,,,,,,,
294301,2022-09-30_12h37.38.767,vts_reward_expectancy,2022.2.4,MacIntel,60.0024001,Chrome,1680,1050,,,a,0.1991,10,343,1,1,6,18,6,1,0,0,1,0,1,0,0,0,hexagon,triangle,,,,,,,,,,,,,,,,,,,,,,,,,,,,,,,,,,,,,,,,,,,,,,,,,,,,,,
294301,2022-09-30_12h37.38.767,vts_reward_expectancy,2022.2.4,MacIntel,60.0024001,Chrome,1680,1050,,,a,0.2185,1,344,1,1,7,19,3,1,0,1,0,0,1,0,0,0,circle,triangle,,,,,,,,,,,,,,,,,,,,,,,,,,,,,,,,,,,,,,,,,,,,,,,,,,,,,,
294301,2022-09-30_12h37.38.767,vts_reward_expectancy,2022.2.4,MacIntel,60.0024001,Chrome,1680,1050,,,a,0.2007,1,345,1,1,8,20,5,1,0,1,0,0,0,0,0,1,circle,star,,,,,,,,,,,,,,,,,,,,,,,,,,,,,,,,,,,,,,,,,,,,,,,,,,,,,,
294301,2022-09-30_12h37.38.767,vts_reward_expectancy,2022.2.4,MacIntel,60.0024001,Chrome,1680,1050,,,l,0.3738,10,355,1,1,9,21,8,1,0,0,1,0,0,0,0,1,hexagon,star,,,,,,,,,,,,,,,,,,,,,,,,,,,,,,,,,,,,,,,,,,,,,,,,,,,,,,
294301,2022-09-30_12h37.38.767,vts_reward_expectancy,2022.2.4,MacIntel,60.0024001,Chrome,1680,1050,,,l,0.2711,10,365,1,1,10,22,1,1,1,0,0,0,0,0,1,0,triangle,hexagon,,,,,,,,,,,,,,,,,,,,,,,,,,,,,,,,,,,,,,,,,,,,,,,,,,,,,,
294301,2022-09-30_12h37.38.767,vts_reward_expectancy,2022.2.4,MacIntel,60.0024001,Chrome,1680,1050,,,l,0.1074,10,375,1,1,11,23,2,1,1,0,0,0,0,0,0,1,triangle,star,,,,,,,,,,,,,,,,,,,,,,,,,,,,,,,,,,,,,,,,,,,,,,,,,,,,,,
294301,2022-09-30_12h37.38.767,vts_reward_expectancy,2022.2.4,MacIntel,60.0024001,Chrome,1680,1050,,,l,0.3196,10,385,1,2,0,24,9,1,0,0,0,1,1,0,0,0,star,triangle,,,,,,,,,,,,,,,,,,,,,,,,,,,,,,,,,,,,,,,,,,,,,,,,,,,,,,
294301,2022-09-30_12h37.38.767,vts_reward_expectancy,2022.2.4,MacIntel,60.0024001,Chrome,1680,1050,,,l,0.3565,10,395,1,2,1,25,2,1,1,0,0,0,0,0,0,1,triangle,star,,,,,,,,,,,,,,,,,,,,,,,,,,,,,,,,,,,,,,,,,,,,,,,,,,,,,,
294301,2022-09-30_12h37.38.767,vts_reward_expectancy,2022.2.4,MacIntel,60.0024001,Chrome,1680,1050,,,l,0.159,10,405,1,2,2,26,1,1,1,0,0,0,0,0,1,0,triangle,hexagon,,,,,,,,,,,,,,,,,,,,,,,,,,,,,,,,,,,,,,,,,,,,,,,,,,,,,,
294301,2022-09-30_12h37.38.767,vts_reward_expectancy,2022.2.4,MacIntel,60.0024001,Chrome,1680,1050,,,a,0.5853,10,415,1,2,3,27,11,1,0,0,0,1,0,0,1,0,star,hexagon,,,,,,,,,,,,,,,,,,,,,,,,,,,,,,,,,,,,,,,,,,,,,,,,,,,,,,
294301,2022-09-30_12h37.38.767,vts_reward_expectancy,2022.2.4,MacIntel,60.0024001,Chrome,1680,1050,,,a,0.5198,1,416,1,2,4,28,4,1,0,1,0,0,0,0,1,0,circle,hexagon,,,,,,,,,,,,,,,,,,,,,,,,,,,,,,,,,,,,,,,,,,,,,,,,,,,,,,
294301,2022-09-30_12h37.38.767,vts_reward_expectancy,2022.2.4,MacIntel,60.0024001,Chrome,1680,1050,,,l,0.4013,1,417,1,2,5,29,8,1,0,0,1,0,0,0,0,1,hexagon,star,,,,,,,,,,,,,,,,,,,,,,,,,,,,,,,,,,,,,,,,,,,,,,,,,,,,,,
294301,2022-09-30_12h37.38.767,vts_reward_expectancy,2022.2.4,MacIntel,60.0024001,Chrome,1680,1050,,,a,0.7513,10,427,1,2,6,30,6,1,0,0,1,0,1,0,0,0,hexagon,triangle,,,,,,,,,,,,,,,,,,,,,,,,,,,,,,,,,,,,,,,,,,,,,,,,,,,,,,
294301,2022-09-30_12h37.38.767,vts_reward_expectancy,2022.2.4,MacIntel,60.0024001,Chrome,1680,1050,,,l,0.6163,10,437,1,2,7,31,5,1,0,1,0,0,0,0,0,1,circle,star,,,,,,,,,,,,,,,,,,,,,,,,,,,,,,,,,,,,,,,,,,,,,,,,,,,,,,
294301,2022-09-30_12h37.38.767,vts_reward_expectancy,2022.2.4,MacIntel,60.0024001,Chrome,1680,1050,,,l,0.7017,10,447,1,2,8,32,3,1,0,1,0,0,1,0,0,0,circle,triangle,,,,,,,,,,,,,,,,,,,,,,,,,,,,,,,,,,,,,,,,,,,,,,,,,,,,,,
294301,2022-09-30_12h37.38.767,vts_reward_expectancy,2022.2.4,MacIntel,60.0024001,Chrome,1680,1050,,,a,0.6028,10,457,1,2,9,33,0,1,1,0,0,0,0,1,0,0,triangle,circle,,,,,,,,,,,,,,,,,,,,,,,,,,,,,,,,,,,,,,,,,,,,,,,,,,,,,,
294301,2022-09-30_12h37.38.767,vts_reward_expectancy,2022.2.4,MacIntel,60.0024001,Chrome,1680,1050,,,a,0.5844,10,467,1,2,10,34,7,1,0,0,1,0,0,1,0,0,hexagon,circle,,,,,,,,,,,,,,,,,,,,,,,,,,,,,,,,,,,,,,,,,,,,,,,,,,,,,,
294301,2022-09-30_12h37.38.767,vts_reward_expectancy,2022.2.4,MacIntel,60.0024001,Chrome,1680,1050,,,a,0.4897,10,477,1,2,11,35,10,1,0,0,0,1,0,1,0,0,star ,circle,,,,,,,,,,,,,,,,,,,,,,,,,,,,,,,,,,,,,,,,,,,,,,,,,,,,,,
294301,2022-09-30_12h37.38.767,vts_reward_expectancy,2022.2.4,MacIntel,60.0024001,Chrome,1680,1050,,,l,0.5027,1,478,2,0,0,0,3,1,0,1,0,0,1,0,0,0,circle,triangle,,,,,,,,,,,,,,,,,,,,,,,,,,,,,,,,,,,,,,,,,,,,,,,,,,,,,,
294301,2022-09-30_12h37.38.767,vts_reward_expectancy,2022.2.4,MacIntel,60.0024001,Chrome,1680,1050,,,a,0.0367,10,488,2,0,1,1,8,1,0,0,1,0,0,0,0,1,hexagon,star,,,,,,,,,,,,,,,,,,,,,,,,,,,,,,,,,,,,,,,,,,,,,,,,,,,,,,
294301,2022-09-30_12h37.38.767,vts_reward_expectancy,2022.2.4,MacIntel,60.0024001,Chrome,1680,1050,,,l,0.2972,10,498,2,0,2,2,0,1,1,0,0,0,0,1,0,0,triangle,circle,,,,,,,,,,,,,,,,,,,,,,,,,,,,,,,,,,,,,,,,,,,,,,,,,,,,,,
294301,2022-09-30_12h37.38.767,vts_reward_expectancy,2022.2.4,MacIntel,60.0024001,Chrome,1680,1050,,,a,0.417,10,508,2,0,3,3,11,1,0,0,0,1,0,0,1,0,star,hexagon,,,,,,,,,,,,,,,,,,,,,,,,,,,,,,,,,,,,,,,,,,,,,,,,,,,,,,
294301,2022-09-30_12h37.38.767,vts_reward_expectancy,2022.2.4,MacIntel,60.0024001,Chrome,1680,1050,,,l,0.3343,1,509,2,0,4,4,1,1,1,0,0,0,0,0,1,0,triangle,hexagon,,,,,,,,,,,,,,,,,,,,,,,,,,,,,,,,,,,,,,,,,,,,,,,,,,,,,,
294301,2022-09-30_12h37.38.767,vts_reward_expectancy,2022.2.4,MacIntel,60.0024001,Chrome,1680,1050,,,a,0.0048,1,510,2,0,5,5,6,1,0,0,1,0,1,0,0,0,hexagon,triangle,,,,,,,,,,,,,,,,,,,,,,,,,,,,,,,,,,,,,,,,,,,,,,,,,,,,,,
294301,2022-09-30_12h37.38.767,vts_reward_expectancy,2022.2.4,MacIntel,60.0024001,Chrome,1680,1050,,,a,0.133,1,511,2,0,6,6,7,1,0,0,1,0,0,1,0,0,hexagon,circle,,,,,,,,,,,,,,,,,,,,,,,,,,,,,,,,,,,,,,,,,,,,,,,,,,,,,,
294301,2022-09-30_12h37.38.767,vts_reward_expectancy,2022.2.4,MacIntel,60.0024001,Chrome,1680,1050,,,l,0.2377,1,512,2,0,7,7,4,1,0,1,0,0,0,0,1,0,circle,hexagon,,,,,,,,,,,,,,,,,,,,,,,,,,,,,,,,,,,,,,,,,,,,,,,,,,,,,,
294301,2022-09-30_12h37.38.767,vts_reward_expectancy,2022.2.4,MacIntel,60.0024001,Chrome,1680,1050,,,a,0.319,1,513,2,0,8,8,5,1,0,1,0,0,0,0,0,1,circle,star,,,,,,,,,,,,,,,,,,,,,,,,,,,,,,,,,,,,,,,,,,,,,,,,,,,,,,
294301,2022-09-30_12h37.38.767,vts_reward_expectancy,2022.2.4,MacIntel,60.0024001,Chrome,1680,1050,,,l,0.205,10,523,2,0,9,9,9,1,0,0,0,1,1,0,0,0,star,triangle,,,,,,,,,,,,,,,,,,,,,,,,,,,,,,,,,,,,,,,,,,,,,,,,,,,,,,
294301,2022-09-30_12h37.38.767,vts_reward_expectancy,2022.2.4,MacIntel,60.0024001,Chrome,1680,1050,,,a,0.3982,10,533,2,0,10,10,2,1,1,0,0,0,0,0,0,1,triangle,star,,,,,,,,,,,,,,,,,,,,,,,,,,,,,,,,,,,,,,,,,,,,,,,,,,,,,,
294301,2022-09-30_12h37.38.767,vts_reward_expectancy,2022.2.4,MacIntel,60.0024001,Chrome,1680,1050,,,l,0.5228,10,543,2,0,11,11,10,1,0,0,0,1,0,1,0,0,star ,circle,,,,,,,,,,,,,,,,,,,,,,,,,,,,,,,,,,,,,,,,,,,,,,,,,,,,,,
294301,2022-09-30_12h37.38.767,vts_reward_expectancy,2022.2.4,MacIntel,60.0024001,Chrome,1680,1050,,,l,0.2999,1,544,2,1,0,12,0,1,1,0,0,0,0,1,0,0,triangle,circle,,,,,,,,,,,,,,,,,,,,,,,,,,,,,,,,,,,,,,,,,,,,,,,,,,,,,,
294301,2022-09-30_12h37.38.767,vts_reward_expectancy,2022.2.4,MacIntel,60.0024001,Chrome,1680,1050,,,a,0.3854,10,554,2,1,1,13,11,1,0,0,0,1,0,0,1,0,star,hexagon,,,,,,,,,,,,,,,,,,,,,,,,,,,,,,,,,,,,,,,,,,,,,,,,,,,,,,
294301,2022-09-30_12h37.38.767,vts_reward_expectancy,2022.2.4,MacIntel,60.0024001,Chrome,1680,1050,,,a,0.3166,1,555,2,1,2,14,6,1,0,0,1,0,1,0,0,0,hexagon,triangle,,,,,,,,,,,,,,,,,,,,,,,,,,,,,,,,,,,,,,,,,,,,,,,,,,,,,,
294301,2022-09-30_12h37.38.767,vts_reward_expectancy,2022.2.4,MacIntel,60.0024001,Chrome,1680,1050,,,l,0.3948,10,565,2,1,3,15,3,1,0,1,0,0,1,0,0,0,circle,triangle,,,,,,,,,,,,,,,,,,,,,,,,,,,,,,,,,,,,,,,,,,,,,,,,,,,,,,
294301,2022-09-30_12h37.38.767,vts_reward_expectancy,2022.2.4,MacIntel,60.0024001,Chrome,1680,1050,,,a,0.4075,10,575,2,1,4,16,9,1,0,0,0,1,1,0,0,0,star,triangle,,,,,,,,,,,,,,,,,,,,,,,,,,,,,,,,,,,,,,,,,,,,,,,,,,,,,,
294301,2022-09-30_12h37.38.767,vts_reward_expectancy,2022.2.4,MacIntel,60.0024001,Chrome,1680,1050,,,l,0.4656,1,576,2,1,5,17,1,1,1,0,0,0,0,0,1,0,triangle,hexagon,,,,,,,,,,,,,,,,,,,,,,,,,,,,,,,,,,,,,,,,,,,,,,,,,,,,,,
294301,2022-09-30_12h37.38.767,vts_reward_expectancy,2022.2.4,MacIntel,60.0024001,Chrome,1680,1050,,,a,0.052,1,577,2,1,6,18,4,1,0,1,0,0,0,0,1,0,circle,hexagon,,,,,,,,,,,,,,,,,,,,,,,,,,,,,,,,,,,,,,,,,,,,,,,,,,,,,,
294301,2022-09-30_12h37.38.767,vts_reward_expectancy,2022.2.4,MacIntel,60.0024001,Chrome,1680,1050,,,l,0.2856,1,578,2,1,7,19,10,1,0,0,0,1,0,1,0,0,star ,circle,,,,,,,,,,,,,,,,,,,,,,,,,,,,,,,,,,,,,,,,,,,,,,,,,,,,,,
294301,2022-09-30_12h37.38.767,vts_reward_expectancy,2022.2.4,MacIntel,60.0024001,Chrome,1680,1050,,,a,0.2689,10,588,2,1,8,20,8,1,0,0,1,0,0,0,0,1,hexagon,star,,,,,,,,,,,,,,,,,,,,,,,,,,,,,,,,,,,,,,,,,,,,,,,,,,,,,,
294301,2022-09-30_12h37.38.767,vts_reward_expectancy,2022.2.4,MacIntel,60.0024001,Chrome,1680,1050,,,a,0.3252,1,589,2,1,9,21,2,1,1,0,0,0,0,0,0,1,triangle,star,,,,,,,,,,,,,,,,,,,,,,,,,,,,,,,,,,,,,,,,,,,,,,,,,,,,,,
294301,2022-09-30_12h37.38.767,vts_reward_expectancy,2022.2.4,MacIntel,60.0024001,Chrome,1680,1050,,,l,0.4704,1,590,2,1,10,22,7,1,0,0,1,0,0,1,0,0,hexagon,circle,,,,,,,,,,,,,,,,,,,,,,,,,,,,,,,,,,,,,,,,,,,,,,,,,,,,,,
294301,2022-09-30_12h37.38.767,vts_reward_expectancy,2022.2.4,MacIntel,60.0024001,Chrome,1680,1050,,,l,0.4205,1,591,2,1,11,23,5,1,0,1,0,0,0,0,0,1,circle,star,,,,,,,,,,,,,,,,,,,,,,,,,,,,,,,,,,,,,,,,,,,,,,,,,,,,,,
294301,2022-09-30_12h37.38.767,vts_reward_expectancy,2022.2.4,MacIntel,60.0024001,Chrome,1680,1050,,,a,0.5675,10,601,2,2,0,24,0,1,1,0,0,0,0,1,0,0,triangle,circle,,,,,,,,,,,,,,,,,,,,,,,,,,,,,,,,,,,,,,,,,,,,,,,,,,,,,,
294301,2022-09-30_12h37.38.767,vts_reward_expectancy,2022.2.4,MacIntel,60.0024001,Chrome,1680,1050,,,a,0.6711,1,602,2,2,1,25,9,1,0,0,0,1,1,0,0,0,star,triangle,,,,,,,,,,,,,,,,,,,,,,,,,,,,,,,,,,,,,,,,,,,,,,,,,,,,,,
294301,2022-09-30_12h37.38.767,vts_reward_expectancy,2022.2.4,MacIntel,60.0024001,Chrome,1680,1050,,,l,0.4374,10,612,2,2,2,26,2,1,1,0,0,0,0,0,0,1,triangle,star,,,,,,,,,,,,,,,,,,,,,,,,,,,,,,,,,,,,,,,,,,,,,,,,,,,,,,
294301,2022-09-30_12h37.38.767,vts_reward_expectancy,2022.2.4,MacIntel,60.0024001,Chrome,1680,1050,,,a,0.5028,1,613,2,2,3,27,6,1,0,0,1,0,1,0,0,0,hexagon,triangle,,,,,,,,,,,,,,,,,,,,,,,,,,,,,,,,,,,,,,,,,,,,,,,,,,,,,,
294301,2022-09-30_12h37.38.767,vts_reward_expectancy,2022.2.4,MacIntel,60.0024001,Chrome,1680,1050,,,l,0.4516,1,614,2,2,4,28,7,1,0,0,1,0,0,1,0,0,hexagon,circle,,,,,,,,,,,,,,,,,,,,,,,,,,,,,,,,,,,,,,,,,,,,,,,,,,,,,,
294301,2022-09-30_12h37.38.767,vts_reward_expectancy,2022.2.4,MacIntel,60.0024001,Chrome,1680,1050,,,a,0.389,1,615,2,2,5,29,8,1,0,0,1,0,0,0,0,1,hexagon,star,,,,,,,,,,,,,,,,,,,,,,,,,,,,,,,,,,,,,,,,,,,,,,,,,,,,,,
294301,2022-09-30_12h37.38.767,vts_reward_expectancy,2022.2.4,MacIntel,60.0024001,Chrome,1680,1050,,,a,0.4533,1,616,2,2,6,30,10,1,0,0,0,1,0,1,0,0,star ,circle,,,,,,,,,,,,,,,,,,,,,,,,,,,,,,,,,,,,,,,,,,,,,,,,,,,,,,
294301,2022-09-30_12h37.38.767,vts_reward_expectancy,2022.2.4,MacIntel,60.0024001,Chrome,1680,1050,,,l,0.4523,1,617,2,2,7,31,5,1,0,1,0,0,0,0,0,1,circle,star,,,,,,,,,,,,,,,,,,,,,,,,,,,,,,,,,,,,,,,,,,,,,,,,,,,,,,
294301,2022-09-30_12h37.38.767,vts_reward_expectancy,2022.2.4,MacIntel,60.0024001,Chrome,1680,1050,,,a,0.7049,10,627,2,2,8,32,1,1,1,0,0,0,0,0,1,0,triangle,hexagon,,,,,,,,,,,,,,,,,,,,,,,,,,,,,,,,,,,,,,,,,,,,,,,,,,,,,,
294301,2022-09-30_12h37.38.767,vts_reward_expectancy,2022.2.4,MacIntel,60.0024001,Chrome,1680,1050,,,l,0.565,10,637,2,2,9,33,3,1,0,1,0,0,1,0,0,0,circle,triangle,,,,,,,,,,,,,,,,,,,,,,,,,,,,,,,,,,,,,,,,,,,,,,,,,,,,,,
294301,2022-09-30_12h37.38.767,vts_reward_expectancy,2022.2.4,MacIntel,60.0024001,Chrome,1680,1050,,,a,0.3047,1,638,2,2,10,34,4,1,0,1,0,0,0,0,1,0,circle,hexagon,,,,,,,,,,,,,,,,,,,,,,,,,,,,,,,,,,,,,,,,,,,,,,,,,,,,,,
294301,2022-09-30_12h37.38.767,vts_reward_expectancy,2022.2.4,MacIntel,60.0024001,Chrome,1680,1050,,,a,1.4527,1,639,2,2,11,35,11,1,0,0,0,1,0,0,1,0,star,hexagon,,,,,,,,,,,,,,,,,,,,,,,,,,,,,,,,,,,,,,,,,,,,,,,,,,,,,,
294301,2022-09-30_12h37.38.767,vts_reward_expectancy,2022.2.4,MacIntel,60.0024001,Chrome,1680,1050,,,,,,,,,,,,,,,,,,,,,,,S,160,circle,0,0,d,1.1377,0,0,0,0,0,1,,,,,,,,,,,,,,,,,,,,,,,,,,,,,,,,,,,,,,,,,
294301,2022-09-30_12h37.38.767,vts_reward_expectancy,2022.2.4,MacIntel,60.0024001,Chrome,1680,1050,,,,,,,,,,,,,,,,,,,,,,,D,132,triangle,1,1,d,1.2887,0,1,0,1,0,1,,,,,,,,,,,,,,,,,,,,,,,,,,,,,,,,,,,,,,,,,
294301,2022-09-30_12h37.38.767,vts_reward_expectancy,2022.2.4,MacIntel,60.0024001,Chrome,1680,1050,,,,,,,,,,,,,,,,,,,,,,,F,167,star,1,0,d,1.0401,0,2,0,2,0,1,,,,,,,,,,,,,,,,,,,,,,,,,,,,,,,,,,,,,,,,,
294301,2022-09-30_12h37.38.767,vts_reward_expectancy,2022.2.4,MacIntel,60.0024001,Chrome,1680,1050,,,,,,,,,,,,,,,,,,,,,,,H,174,hexagon,1,0,d,0.9092,0,3,0,3,0,1,,,,,,,,,,,,,,,,,,,,,,,,,,,,,,,,,,,,,,,,,
294301,2022-09-30_12h37.38.767,vts_reward_expectancy,2022.2.4,MacIntel,60.0024001,Chrome,1680,1050,,,,,,,,,,,,,,,,,,,,,,,U,139,circle,1,0,f,0.6376,0,4,0,4,0,1,,,,,,,,,,,,,,,,,,,,,,,,,,,,,,,,,,,,,,,,,
294301,2022-09-30_12h37.38.767,vts_reward_expectancy,2022.2.4,MacIntel,60.0024001,Chrome,1680,1050,,,,,,,,,,,,,,,,,,,,,,,B,146,triangle,1,0,d,0.8576,0,5,0,5,0,1,,,,,,,,,,,,,,,,,,,,,,,,,,,,,,,,,,,,,,,,,
294301,2022-09-30_12h37.38.767,vts_reward_expectancy,2022.2.4,MacIntel,60.0024001,Chrome,1680,1050,,,,,,,,,,,,,,,,,,,,,,,Y,125,star,1,0,f,0.7036,0,6,0,6,0,1,,,,,,,,,,,,,,,,,,,,,,,,,,,,,,,,,,,,,,,,,
294301,2022-09-30_12h37.38.767,vts_reward_expectancy,2022.2.4,MacIntel,60.0024001,Chrome,1680,1050,,,,,,,,,,,,,,,,,,,,,,,W,181,hexagon,1,0,f,1.2888,0,7,0,7,0,1,,,,,,,,,,,,,,,,,,,,,,,,,,,,,,,,,,,,,,,,,
294301,2022-09-30_12h37.38.767,vts_reward_expectancy,2022.2.4,MacIntel,60.0024001,Chrome,1680,1050,,,,,,,,,,,,,,,,,,,,,,,S,160,star,1,0,f,1.7075,0,8,0,8,0,1,,,,,,,,,,,,,,,,,,,,,,,,,,,,,,,,,,,,,,,,,
294301,2022-09-30_12h37.38.767,vts_reward_expectancy,2022.2.4,MacIntel,60.0024001,Chrome,1680,1050,,,,,,,,,,,,,,,,,,,,,,,D,132,triangle,1,0,d,0.9412,0,9,0,9,0,1,,,,,,,,,,,,,,,,,,,,,,,,,,,,,,,,,,,,,,,,,
294301,2022-09-30_12h37.38.767,vts_reward_expectancy,2022.2.4,MacIntel,60.0024001,Chrome,1680,1050,,,,,,,,,,,,,,,,,,,,,,,Y,132,circle,1,0,,,1,,,,,,j,1.6041,0,0,0,0,1,,,,,,,,,,,,,,,,,,,,,,,,,,,,,,,,,,
294301,2022-09-30_12h37.38.767,vts_reward_expectancy,2022.2.4,MacIntel,60.0024001,Chrome,1680,1050,,,,,,,,,,,,,,,,,,,,,,,F,167,triangle,1,0,,,1,,,,,,k,0.9366,1,0,1,0,1,,,,,,,,,,,,,,,,,,,,,,,,,,,,,,,,,,
294301,2022-09-30_12h37.38.767,vts_reward_expectancy,2022.2.4,MacIntel,60.0024001,Chrome,1680,1050,,,,,,,,,,,,,,,,,,,,,,,S,146,star,1,0,,,1,,,,,,j,1.3745,2,0,2,0,1,,,,,,,,,,,,,,,,,,,,,,,,,,,,,,,,,,
294301,2022-09-30_12h37.38.767,vts_reward_expectancy,2022.2.4,MacIntel,60.0024001,Chrome,1680,1050,,,,,,,,,,,,,,,,,,,,,,,H,160,hexagon,1,0,,,1,,,,,,k,2.0027,3,0,3,0,1,,,,,,,,,,,,,,,,,,,,,,,,,,,,,,,,,,
294301,2022-09-30_12h37.38.767,vts_reward_expectancy,2022.2.4,MacIntel,60.0024001,Chrome,1680,1050,,,,,,,,,,,,,,,,,,,,,,,D,125,circle,1,0,,,1,,,,,,j,0.8616,4,0,4,0,1,,,,,,,,,,,,,,,,,,,,,,,,,,,,,,,,,,
294301,2022-09-30_12h37.38.767,vts_reward_expectancy,2022.2.4,MacIntel,60.0024001,Chrome,1680,1050,,,,,,,,,,,,,,,,,,,,,,,U,139,triangle,1,0,,,1,,,,,,j,1.2748,5,0,5,0,1,,,,,,,,,,,,,,,,,,,,,,,,,,,,,,,,,,
294301,2022-09-30_12h37.38.767,vts_reward_expectancy,2022.2.4,MacIntel,60.0024001,Chrome,1680,1050,,,,,,,,,,,,,,,,,,,,,,,B,181,star,1,0,,,1,,,,,,k,0.7852,6,0,6,0,1,,,,,,,,,,,,,,,,,,,,,,,,,,,,,,,,,,
294301,2022-09-30_12h37.38.767,vts_reward_expectancy,2022.2.4,MacIntel,60.0024001,Chrome,1680,1050,,,,,,,,,,,,,,,,,,,,,,,W,174,hexagon,0,0,,,1,,,,,,j,0.9053,7,0,7,0,1,,,,,,,,,,,,,,,,,,,,,,,,,,,,,,,,,,
294301,2022-09-30_12h37.38.767,vts_reward_expectancy,2022.2.4,MacIntel,60.0024001,Chrome,1680,1050,,,,,,,,,,,,,,,,,,,,,,,Y,132,star,1,1,,,1,,,,,,j,0.6379,8,0,8,0,1,,,,,,,,,,,,,,,,,,,,,,,,,,,,,,,,,,
294301,2022-09-30_12h37.38.767,vts_reward_expectancy,2022.2.4,MacIntel,60.0024001,Chrome,1680,1050,,,,,,,,,,,,,,,,,,,,,,,F,167,circle,1,0,,,1,,,,,,k,2.002,9,0,9,0,1,,,,,,,,,,,,,,,,,,,,,,,,,,,,,,,,,,
294301,2022-09-30_12h37.38.767,vts_reward_expectancy,2022.2.4,MacIntel,60.0024001,Chrome,1680,1050,,,,,0,639,,,,,,,,,,,,,,,,,S,139,triangle,0,0,,,2,,,,,,,,,,,,,-1,number,NA,k,0.9184,vtsPrac,0,0,0,0,1,,,,,,,,,,,,,,,,,,,,,,,
294301,2022-09-30_12h37.38.767,vts_reward_expectancy,2022.2.4,MacIntel,60.0024001,Chrome,1680,1050,,,,,0,639,,,,,,,,,,,,,,,,,H,167,star,-1,1,,,2,,,,,,,,,,,,,switch,no_choice,NA,,,vtsPrac,1,0,1,0,1,,,,,,,,,,,,,,,,,,,,,,,
294301,2022-09-30_12h37.38.767,vts_reward_expectancy,2022.2.4,MacIntel,60.0024001,Chrome,1680,1050,,,,,0,639,,,,,,,,,,,,,,,,,U,125,triangle,0,0,,,2,,,,,,,,,,,,,switch,letter,NA,d,0.7908,vtsPrac,2,0,2,0,1,,,,,,,,,,,,,,,,,,,,,,,
294301,2022-09-30_12h37.38.767,vts_reward_expectancy,2022.2.4,MacIntel,60.0024001,Chrome,1680,1050,,,,,0,639,,,,,,,,,,,,,,,,,B,181,star,1,1,,,2,,,,,,,,,,,,,switch,number,numSwt,k,0.7711,vtsPrac,3,0,3,0,1,,,,,,,,,,,,,,,,,,,,,,,
294301,2022-09-30_12h37.38.767,vts_reward_expectancy,2022.2.4,MacIntel,60.0024001,Chrome,1680,1050,,,,,0,639,,,,,,,,,,,,,,,,,S,139,triangle,0,0,,,2,,,,,,,,,,,,,repeat,number,NA,k,0.952,vtsPrac,4,0,4,0,1,,,,,,,,,,,,,,,,,,,,,,,
294301,2022-09-30_12h37.38.767,vts_reward_expectancy,2022.2.4,MacIntel,60.0024001,Chrome,1680,1050,,,,,0,639,,,,,,,,,,,,,,,,,H,167,hexagon,1,1,,,2,,,,,,,,,,,,,switch,letter,lettSwt,d,0.2238,vtsPrac,5,0,5,0,1,,,,,,,,,,,,,,,,,,,,,,,
294301,2022-09-30_12h37.38.767,vts_reward_expectancy,2022.2.4,MacIntel,60.0024001,Chrome,1680,1050,,,,,0,639,,,,,,,,,,,,,,,,,U,125,circle,0,0,,,2,,,,,,,,,,,,,repeat,letter,NA,d,0.6053,vtsPrac,6,0,6,0,1,,,,,,,,,,,,,,,,,,,,,,,
294301,2022-09-30_12h37.38.767,vts_reward_expectancy,2022.2.4,MacIntel,60.0024001,Chrome,1680,1050,,,,,0,639,,,,,,,,,,,,,,,,,B,181,star,1,1,,,2,,,,,,,,,,,,,repeat,letter,lettRpt,d,0.653,vtsPrac,7,0,7,0,1,,,,,,,,,,,,,,,,,,,,,,,
294301,2022-09-30_12h37.38.767,vts_reward_expectancy,2022.2.4,MacIntel,60.0024001,Chrome,1680,1050,,,,,0,639,,,,,,,,,,,,,,,,,F,167,star,1,0,,,2,,,,,,,,,,,,,repeat,letter,lettRpt,d,0.6246,vtsPrac,8,0,8,0,1,,,,,,,,,,,,,,,,,,,,,,,
294301,2022-09-30_12h37.38.767,vts_reward_expectancy,2022.2.4,MacIntel,60.0024001,Chrome,1680,1050,,,,,0,639,,,,,,,,,,,,,,,,,B,160,hexagon,1,0,,,2,,,,,,,,,,,,,repeat,letter,lettRpt,d,0.4915,vtsPrac,9,0,9,0,1,,,,,,,,,,,,,,,,,,,,,,,
294301,2022-09-30_12h37.38.767,vts_reward_expectancy,2022.2.4,MacIntel,60.0024001,Chrome,1680,1050,,,,,0,639,,,,,,,,,,,,,,,,,D,139,star,1,0,,,2,,,,,,,,,,,,,repeat,letter,lettRpt,d,0.5527,vtsPrac,10,0,10,0,1,,,,,,,,,,,,,,,,,,,,,,,
294301,2022-09-30_12h37.38.767,vts_reward_expectancy,2022.2.4,MacIntel,60.0024001,Chrome,1680,1050,,,,,0,639,,,,,,,,,,,,,,,,,W,146,triangle,0,0,,,2,,,,,,,,,,,,,repeat,letter,NA,d,0.7765,vtsPrac,11,0,11,0,1,,,,,,,,,,,,,,,,,,,,,,,
294301,2022-09-30_12h37.38.767,vts_reward_expectancy,2022.2.4,MacIntel,60.0024001,Chrome,1680,1050,,,,,0,639,,,,,,,,,,,,,,,,,W,167,circle,0,1,,,2,,,,,,,,,,,,,repeat,letter,NA,d,0.7715,vtsPrac,12,0,12,0,1,,,,,,,,,,,,,,,,,,,,,,,
294301,2022-09-30_12h37.38.767,vts_reward_expectancy,2022.2.4,MacIntel,60.0024001,Chrome,1680,1050,,,,,0,639,,,,,,,,,,,,,,,,,U,146,triangle,1,1,,,2,,,,,,,,,,,,,repeat,letter,lettRpt,f,1.0058,vtsPrac,13,0,13,0,1,,,,,,,,,,,,,,,,,,,,,,,
294301,2022-09-30_12h37.38.767,vts_reward_expectancy,2022.2.4,MacIntel,60.0024001,Chrome,1680,1050,,,,,0,639,,,,,,,,,,,,,,,,,D,132,triangle,1,0,,,2,,,,,,,,,,,,,repeat,letter,lettRpt,d,0.5871,vtsPrac,14,0,14,0,1,,,,,,,,,,,,,,,,,,,,,,,
294301,2022-09-30_12h37.38.767,vts_reward_expectancy,2022.2.4,MacIntel,60.0024001,Chrome,1680,1050,,,,,0,639,,,,,,,,,,,,,,,,,S,125,circle,0,0,,,2,,,,,,,,,,,,,switch,number,NA,k,0.7685,vtsPrac,15,0,15,0,1,,,,,,,,,,,,,,,,,,,,,,,
294301,2022-09-30_12h37.38.767,vts_reward_expectancy,2022.2.4,MacIntel,60.0024001,Chrome,1680,1050,,,,,0,639,,,,,,,,,,,,,,,,,U,160,star,1,1,,,3,,,,,,,,,,,,,switch,letter,lettSwt,f,1.5984,vtsPrac,0,0,0,0,1,,,,,,,,,,,,,,,,,,,,,,,
294301,2022-09-30_12h37.38.767,vts_reward_expectancy,2022.2.4,MacIntel,60.0024001,Chrome,1680,1050,,,,,0,639,,,,,,,,,,,,,,,,,D,132,triangle,1,0,,,3,,,,,,,,,,,,,switch,number,numSwt,j,1.1991,vtsPrac,1,0,1,0,1,,,,,,,,,,,,,,,,,,,,,,,
294301,2022-09-30_12h37.38.767,vts_reward_expectancy,2022.2.4,MacIntel,60.0024001,Chrome,1680,1050,,,,,0,639,,,,,,,,,,,,,,,,,S,125,star,1,0,,,3,,,,,,,,,,,,,switch,letter,lettSwt,f,0.9033,vtsPrac,2,0,2,0,1,,,,,,,,,,,,,,,,,,,,,,,
294301,2022-09-30_12h37.38.767,vts_reward_expectancy,2022.2.4,MacIntel,60.0024001,Chrome,1680,1050,,,,,0,639,,,,,,,,,,,,,,,,,B,167,triangle,1,0,,,3,,,,,,,,,,,,,switch,number,numSwt,k,0.7085,vtsPrac,3,0,3,0,1,,,,,,,,,,,,,,,,,,,,,,,
294301,2022-09-30_12h37.38.767,vts_reward_expectancy,2022.2.4,MacIntel,60.0024001,Chrome,1680,1050,,,,,0,639,,,,,,,,,,,,,,,,,U,160,circle,1,0,,,3,,,,,,,,,,,,,switch,letter,lettSwt,f,0.7414,vtsPrac,4,0,4,0,1,,,,,,,,,,,,,,,,,,,,,,,
294301,2022-09-30_12h37.38.767,vts_reward_expectancy,2022.2.4,MacIntel,60.0024001,Chrome,1680,1050,,,,,0,639,,,,,,,,,,,,,,,,,D,132,star,1,0,,,3,,,,,,,,,,,,,switch,number,numSwt,j,0.802,vtsPrac,5,0,5,0,1,,,,,,,,,,,,,,,,,,,,,,,
294301,2022-09-30_12h37.38.767,vts_reward_expectancy,2022.2.4,MacIntel,60.0024001,Chrome,1680,1050,,,,,0,639,,,,,,,,,,,,,,,,,S,125,star,1,0,,,3,,,,,,,,,,,,,switch,letter,lettSwt,f,0.8597,vtsPrac,6,0,6,0,1,,,,,,,,,,,,,,,,,,,,,,,
294301,2022-09-30_12h37.38.767,vts_reward_expectancy,2022.2.4,MacIntel,60.0024001,Chrome,1680,1050,,,,,0,639,,,,,,,,,,,,,,,,,B,167,circle,1,0,,,3,,,,,,,,,,,,,switch,number,numSwt,k,0.9413,vtsPrac,7,0,7,0,1,,,,,,,,,,,,,,,,,,,,,,,
294301,2022-09-30_12h37.38.767,vts_reward_expectancy,2022.2.4,MacIntel,60.0024001,Chrome,1680,1050,,,,,0,639,,,,,,,,,,,,,,,,,Y,181,star,1,0,,,3,,,,,,,,,,,,,switch,letter,lettSwt,f,1.0719,vtsPrac,8,0,8,0,1,,,,,,,,,,,,,,,,,,,,,,,
294301,2022-09-30_12h37.38.767,vts_reward_expectancy,2022.2.4,MacIntel,60.0024001,Chrome,1680,1050,,,,,0,639,,,,,,,,,,,,,,,,,W,174,hexagon,1,0,,,3,,,,,,,,,,,,,switch,number,numSwt,k,0.7515,vtsPrac,9,0,9,0,1,,,,,,,,,,,,,,,,,,,,,,,
294301,2022-09-30_12h37.38.767,vts_reward_expectancy,2022.2.4,MacIntel,60.0024001,Chrome,1680,1050,,,,,0,639,,,,,,,,,,,,,,,,,D,132,circle,1,0,,,3,,,,,,,,,,,,,switch,letter,lettSwt,d,1.5394,vtsPrac,10,0,10,0,1,,,,,,,,,,,,,,,,,,,,,,,
294301,2022-09-30_12h37.38.767,vts_reward_expectancy,2022.2.4,MacIntel,60.0024001,Chrome,1680,1050,,,,,0,639,,,,,,,,,,,,,,,,,H,167,star,1,0,,,3,,,,,,,,,,,,,switch,number,numSwt,k,1.4718,vtsPrac,11,0,11,0,1,,,,,,,,,,,,,,,,,,,,,,,
294301,2022-09-30_12h37.38.767,vts_reward_expectancy,2022.2.4,MacIntel,60.0024001,Chrome,1680,1050,,,,,0,639,,,,,,,,,,,,,,,,,U,174,triangle,1,0,,,3,,,,,,,,,,,,,switch,letter,lettSwt,f,1.0899,vtsPrac,12,0,12,0,1,,,,,,,,,,,,,,,,,,,,,,,
294301,2022-09-30_12h37.38.767,vts_reward_expectancy,2022.2.4,MacIntel,60.0024001,Chrome,1680,1050,,,,,0,639,,,,,,,,,,,,,,,,,W,139,star,1,0,,,3,,,,,,,,,,,,,switch,number,numSwt,j,1.323,vtsPrac,13,0,13,0,1,,,,,,,,,,,,,,,,,,,,,,,
294301,2022-09-30_12h37.38.767,vts_reward_expectancy,2022.2.4,MacIntel,60.0024001,Chrome,1680,1050,,,,,0,639,,,,,,,,,,,,,,,,,Y,125,star,1,0,,,3,,,,,,,,,,,,,switch,letter,lettSwt,f,1.2427,vtsPrac,14,0,14,0,1,,,,,,,,,,,,,,,,,,,,,,,
294301,2022-09-30_12h37.38.767,vts_reward_expectancy,2022.2.4,MacIntel,60.0024001,Chrome,1680,1050,,,,,0,639,,,,,,,,,,,,,,,,,H,146,triangle,1,0,,,3,,,,,,,,,,,,,switch,number,numSwt,j,1.7056,vtsPrac,15,0,15,0,1,,,,,,,,,,,,,,,,,,,,,,,
294301,2022-09-30_12h37.38.767,vts_reward_expectancy,2022.2.4,MacIntel,60.0024001,Chrome,1680,1050,,,,,0,639,,,,,,,,,,,,,,,,,U,174,triangle,0,0,,,4,,,,,,,,,,,,,repeat,number,NA,j,1.1781,vtsPrac,0,0,0,0,1,,,,,,,,,,,,,,,,,,,,,,,
294301,2022-09-30_12h37.38.767,vts_reward_expectancy,2022.2.4,MacIntel,60.0024001,Chrome,1680,1050,,,,,0,639,,,,,,,,,,,,,,,,,B,125,circle,1,1,,,4,,,,,,,,,,,,,repeat,number,numRpt,j,1.8568,vtsPrac,1,0,1,0,1,,,,,,,,,,,,,,,,,,,,,,,
294301,2022-09-30_12h37.38.767,vts_reward_expectancy,2022.2.4,MacIntel,60.0024001,Chrome,1680,1050,,,,,0,639,,,,,,,,,,,,,,,,,D,139,triangle,1,0,,,4,,,,,,,,,,,,,switch,letter,lettSwt,d,0.9744,vtsPrac,2,0,2,0,1,,,,,,,,,,,,,,,,,,,,,,,
294301,2022-09-30_12h37.38.767,vts_reward_expectancy,2022.2.4,MacIntel,60.0024001,Chrome,1680,1050,,,,,0,639,,,,,,,,,,,,,,,,,H,167,circle,1,0,,,4,,,,,,,,,,,,,switch,number,numSwt,k,1.2089,vtsPrac,3,0,3,0,1,,,,,,,,,,,,,,,,,,,,,,,
294301,2022-09-30_12h37.38.767,vts_reward_expectancy,2022.2.4,MacIntel,60.0024001,Chrome,1680,1050,,,,,0,639,,,,,,,,,,,,,,,,,U,174,star,0,0,,,4,,,,,,,,,,,,,switch,letter,NA,d,2.1886,vtsPrac,4,0,4,0,1,,,,,,,,,,,,,,,,,,,,,,,
294301,2022-09-30_12h37.38.767,vts_reward_expectancy,2022.2.4,MacIntel,60.0024001,Chrome,1680,1050,,,,,0,639,,,,,,,,,,,,,,,,,B,125,hexagon,1,1,,,4,,,,,,,,,,,,,switch,number,numSwt,j,1.3868,vtsPrac,5,0,5,0,1,,,,,,,,,,,,,,,,,,,,,,,
294301,2022-09-30_12h37.38.767,vts_reward_expectancy,2022.2.4,MacIntel,60.0024001,Chrome,1680,1050,,,,,0,639,,,,,,,,,,,,,,,,,D,139,star,0,0,,,4,,,,,,,,,,,,,switch,letter,NA,f,0.9444,vtsPrac,6,0,6,0,1,,,,,,,,,,,,,,,,,,,,,,,
294301,2022-09-30_12h37.38.767,vts_reward_expectancy,2022.2.4,MacIntel,60.0024001,Chrome,1680,1050,,,,,0,639,,,,,,,,,,,,,,,,,H,167,hexagon,1,1,,,4,,,,,,,,,,,,,repeat,letter,lettRpt,d,1.0234,vtsPrac,7,0,7,0,1,,,,,,,,,,,,,,,,,,,,,,,
294301,2022-09-30_12h37.38.767,vts_reward_expectancy,2022.2.4,MacIntel,60.0024001,Chrome,1680,1050,,,,,0,639,,,,,,,,,,,,,,,,,W,139,hexagon,1,0,,,4,,,,,,,,,,,,,switch,number,numSwt,j,1.6747,vtsPrac,8,0,8,0,1,,,,,,,,,,,,,,,,,,,,,,,
294301,2022-09-30_12h37.38.767,vts_reward_expectancy,2022.2.4,MacIntel,60.0024001,Chrome,1680,1050,,,,,0,639,,,,,,,,,,,,,,,,,F,146,star,1,0,,,4,,,,,,,,,,,,,repeat,number,numRpt,j,1.0395,vtsPrac,9,0,9,0,1,,,,,,,,,,,,,,,,,,,,,,,
294301,2022-09-30_12h37.38.767,vts_reward_expectancy,2022.2.4,MacIntel,60.0024001,Chrome,1680,1050,,,,,0,639,,,,,,,,,,,,,,,,,U,132,triangle,1,0,,,4,,,,,,,,,,,,,switch,letter,lettSwt,f,0.7077,vtsPrac,10,0,10,0,1,,,,,,,,,,,,,,,,,,,,,,,
294301,2022-09-30_12h37.38.767,vts_reward_expectancy,2022.2.4,MacIntel,60.0024001,Chrome,1680,1050,,,,,0,639,,,,,,,,,,,,,,,,,S,174,hexagon,1,0,,,4,,,,,,,,,,,,,repeat,letter,lettRpt,f,1.4192,vtsPrac,11,0,11,0,1,,,,,,,,,,,,,,,,,,,,,,,
294301,2022-09-30_12h37.38.767,vts_reward_expectancy,2022.2.4,MacIntel,60.0024001,Chrome,1680,1050,,,,,0,639,,,,,,,,,,,,,,,,,W,167,hexagon,1,0,,,4,,,,,,,,,,,,,switch,number,numSwt,k,1.3544,vtsPrac,12,0,12,0,1,,,,,,,,,,,,,,,,,,,,,,,
294301,2022-09-30_12h37.38.767,vts_reward_expectancy,2022.2.4,MacIntel,60.0024001,Chrome,1680,1050,,,,,0,639,,,,,,,,,,,,,,,,,S,132,star,1,0,,,4,,,,,,,,,,,,,repeat,number,numRpt,j,1.4784,vtsPrac,13,0,13,0,1,,,,,,,,,,,,,,,,,,,,,,,
294301,2022-09-30_12h37.38.767,vts_reward_expectancy,2022.2.4,MacIntel,60.0024001,Chrome,1680,1050,,,,,0,639,,,,,,,,,,,,,,,,,B,139,hexagon,1,0,,,4,,,,,,,,,,,,,switch,letter,lettSwt,d,0.8386,vtsPrac,14,0,14,0,1,,,,,,,,,,,,,,,,,,,,,,,
294301,2022-09-30_12h37.38.767,vts_reward_expectancy,2022.2.4,MacIntel,60.0024001,Chrome,1680,1050,,,,,0,639,,,,,,,,,,,,,,,,,Y,181,triangle,1,0,,,4,,,,,,,,,,,,,repeat,letter,lettRpt,f,0.772,vtsPrac,15,0,15,0,1,,,,,,,,,,,,,,,,,,,,,,,
294301,2022-09-30_12h37.38.767,vts_reward_expectancy,2022.2.4,MacIntel,60.0024001,Chrome,1680,1050,,,,,,,,,,,,,,,,,,,,,,,,,,,,,,,,,,,,,,,,,,,,,,,,,,,,,,,,,,,,,,,,,,,,,,,,,,,,
294301,2022-09-30_12h37.38.767,vts_reward_expectancy,2022.2.4,MacIntel,60.0024001,Chrome,1680,1050,,,,,,,,,,,,,,,,,,,,,,,,,,,,,,,,,,,,,,,,,,,,,,,,,,,,,,,,,,,,,,,,,,,,,,,,,,,,
294301,2022-09-30_12h37.38.767,vts_reward_expectancy,2022.2.4,MacIntel,60.0024001,Chrome,1680,1050,,,,,0,639,,,,,,,,,,,,,,,,,U,125,circle,1,0,,,,,,,,,,,,,,,,repeat,letter,lettRpt,f,0.8403,noRew,,,,,,0,0,0,0,0,1,,,,,,,,,,,,,,,,,
294301,2022-09-30_12h37.38.767,vts_reward_expectancy,2022.2.4,MacIntel,60.0024001,Chrome,1680,1050,,,,,0,639,,,,,,,,,,,,,,,,,Y,132,hexagon,1,0,,,,,,,,,,,,,,,,repeat,letter,lettRpt,f,1.275,noRew,,,,,,0,1,0,1,0,1,,,,,,,,,,,,,,,,,
294301,2022-09-30_12h37.38.767,vts_reward_expectancy,2022.2.4,MacIntel,60.0024001,Chrome,1680,1050,,,,,0,639,,,,,,,,,,,,,,,,,S,160,circle,1,0,,,,,,,,,,,,,,,,switch,number,numSwt,k,0.6889,noRew,,,,,,0,2,0,2,0,1,,,,,,,,,,,,,,,,,
294301,2022-09-30_12h37.38.767,vts_reward_expectancy,2022.2.4,MacIntel,60.0024001,Chrome,1680,1050,,,,,0,639,,,,,,,,,,,,,,,,,B,139,hexagon,1,0,,,,,,,,,,,,,,,,repeat,number,numRpt,j,1.0527,noRew,,,,,,0,3,0,3,0,1,,,,,,,,,,,,,,,,,
294301,2022-09-30_12h37.38.767,vts_reward_expectancy,2022.2.4,MacIntel,60.0024001,Chrome,1680,1050,,,,,0,639,,,,,,,,,,,,,,,,,U,125,triangle,1,0,,,,,,,,,,,,,,,,switch,letter,lettSwt,f,0.6582,noRew,,,,,,0,4,0,4,0,1,,,,,,,,,,,,,,,,,
294301,2022-09-30_12h37.38.767,vts_reward_expectancy,2022.2.4,MacIntel,60.0024001,Chrome,1680,1050,,,,,0,639,,,,,,,,,,,,,,,,,Y,132,hexagon,1,0,,,,,,,,,,,,,,,,repeat,letter,lettRpt,f,0.6719,noRew,,,,,,0,5,0,5,0,1,,,,,,,,,,,,,,,,,
294301,2022-09-30_12h37.38.767,vts_reward_expectancy,2022.2.4,MacIntel,60.0024001,Chrome,1680,1050,,,,,0,639,,,,,,,,,,,,,,,,,S,160,triangle,1,0,,,,,,,,,,,,,,,,switch,number,numSwt,k,1.3072,noRew,,,,,,0,6,0,6,0,1,,,,,,,,,,,,,,,,,
294301,2022-09-30_12h37.38.767,vts_reward_expectancy,2022.2.4,MacIntel,60.0024001,Chrome,1680,1050,,,,,0,639,,,,,,,,,,,,,,,,,B,139,hexagon,1,0,,,,,,,,,,,,,,,,repeat,number,numRpt,j,1.0194,noRew,,,,,,0,7,0,7,0,1,,,,,,,,,,,,,,,,,
294301,2022-09-30_12h37.38.767,vts_reward_expectancy,2022.2.4,MacIntel,60.0024001,Chrome,1680,1050,,,,,0,639,,,,,,,,,,,,,,,,,H,125,hexagon,1,0,,,,,,,,,,,,,,,,switch,letter,lettSwt,d,0.953,noRew,,,,,,0,8,0,8,0,1,,,,,,,,,,,,,,,,,
294301,2022-09-30_12h37.38.767,vts_reward_expectancy,2022.2.4,MacIntel,60.0024001,Chrome,1680,1050,,,,,0,639,,,,,,,,,,,,,,,,,B,167,triangle,1,0,,,,,,,,,,,,,,,,repeat,letter,lettRpt,d,1.3433,noRew,,,,,,0,9,0,9,0,1,,,,,,,,,,,,,,,,,
294301,2022-09-30_12h37.38.767,vts_reward_expectancy,2022.2.4,MacIntel,60.0024001,Chrome,1680,1050,,,,,0,639,,,,,,,,,,,,,,,,,W,160,star,1,0,,,,,,,,,,,,,,,,switch,number,numSwt,k,0.8912,noRew,,,,,,0,10,0,10,0,1,,,,,,,,,,,,,,,,,
294301,2022-09-30_12h37.38.767,vts_reward_expectancy,2022.2.4,MacIntel,60.0024001,Chrome,1680,1050,,,,,0,639,,,,,,,,,,,,,,,,,D,146,hexagon,1,0,,,,,,,,,,,,,,,,repeat,number,numRpt,j,1.1099,noRew,,,,,,0,11,0,11,0,1,,,,,,,,,,,,,,,,,
294301,2022-09-30_12h37.38.767,vts_reward_expectancy,2022.2.4,MacIntel,60.0024001,Chrome,1680,1050,,,,,0,639,,,,,,,,,,,,,,,,,S,181,hexagon,1,0,,,,,,,,,,,,,,,,switch,letter,lettSwt,f,0.9862,noRew,,,,,,0,12,0,12,0,1,,,,,,,,,,,,,,,,,
294301,2022-09-30_12h37.38.767,vts_reward_expectancy,2022.2.4,MacIntel,60.0024001,Chrome,1680,1050,,,,,0,639,,,,,,,,,,,,,,,,,W,125,star,1,0,,,,,,,,,,,,,,,,repeat,letter,lettRpt,f,0.7759,noRew,,,,,,0,13,0,13,0,1,,,,,,,,,,,,,,,,,
294301,2022-09-30_12h37.38.767,vts_reward_expectancy,2022.2.4,MacIntel,60.0024001,Chrome,1680,1050,,,,,0,639,,,,,,,,,,,,,,,,,U,160,circle,1,0,,,,,,,,,,,,,,,,switch,number,numSwt,k,1.1382,noRew,,,,,,0,14,0,14,0,1,,,,,,,,,,,,,,,,,
294301,2022-09-30_12h37.38.767,vts_reward_expectancy,2022.2.4,MacIntel,60.0024001,Chrome,1680,1050,,,,,0,639,,,,,,,,,,,,,,,,,D,139,star,1,0,,,,,,,,,,,,,,,,repeat,number,numRpt,j,0.9239,noRew,,,,,,0,15,0,15,0,1,,,,,,,,,,,,,,,,,
294301,2022-09-30_12h37.38.767,vts_reward_expectancy,2022.2.4,MacIntel,60.0024001,Chrome,1680,1050,,,,,0,639,,,,,,,,,,,,,,,,,H,146,hexagon,1,0,,,,,,,,,,,,,,,,switch,letter,lettSwt,d,1.4432,noRew,,,,,,0,16,0,16,0,1,,,,,,,,,,,,,,,,,
294301,2022-09-30_12h37.38.767,vts_reward_expectancy,2022.2.4,MacIntel,60.0024001,Chrome,1680,1050,,,,,0,639,,,,,,,,,,,,,,,,,F,125,triangle,1,0,,,,,,,,,,,,,,,,switch,number,numSwt,j,0.9566,noRew,,,,,,0,17,0,17,0,1,,,,,,,,,,,,,,,,,
294301,2022-09-30_12h37.38.767,vts_reward_expectancy,2022.2.4,MacIntel,60.0024001,Chrome,1680,1050,,,,,0,639,,,,,,,,,,,,,,,,,Y,167,star,1,0,,,,,,,,,,,,,,,,switch,letter,lettSwt,f,0.9592,noRew,,,,,,0,18,0,18,0,1,,,,,,,,,,,,,,,,,
294301,2022-09-30_12h37.38.767,vts_reward_expectancy,2022.2.4,MacIntel,60.0024001,Chrome,1680,1050,,,,,0,639,,,,,,,,,,,,,,,,,S,174,circle,1,0,,,,,,,,,,,,,,,,switch,number,numSwt,k,1.5253,noRew,,,,,,0,19,0,19,0,1,,,,,,,,,,,,,,,,,
294301,2022-09-30_12h37.38.767,vts_reward_expectancy,2022.2.4,MacIntel,60.0024001,Chrome,1680,1050,,,,,0,639,,,,,,,,,,,,,,,,,B,160,star,1,0,,,,,,,,,,,,,,,,repeat,number,numRpt,k,1.0861,noRew,,,,,,0,20,0,20,0,1,,,,,,,,,,,,,,,,,
294301,2022-09-30_12h37.38.767,vts_reward_expectancy,2022.2.4,MacIntel,60.0024001,Chrome,1680,1050,,,,,0,639,,,,,,,,,,,,,,,,,U,167,triangle,1,0,,,,,,,,,,,,,,,,switch,letter,lettSwt,f,0.9892,noRew,,,,,,0,21,0,21,0,1,,,,,,,,,,,,,,,,,
294301,2022-09-30_12h37.38.767,vts_reward_expectancy,2022.2.4,MacIntel,60.0024001,Chrome,1680,1050,,,,,0,639,,,,,,,,,,,,,,,,,D,146,circle,1,0,,,,,,,,,,,,,,,,repeat,letter,lettRpt,d,0.9858,noRew,,,,,,0,22,0,22,0,1,,,,,,,,,,,,,,,,,
294301,2022-09-30_12h37.38.767,vts_reward_expectancy,2022.2.4,MacIntel,60.0024001,Chrome,1680,1050,,,,,0,639,,,,,,,,,,,,,,,,,H,181,hexagon,1,0,,,,,,,,,,,,,,,,switch,number,numSwt,k,1.2216,noRew,,,,,,0,23,0,23,0,1,,,,,,,,,,,,,,,,,
294301,2022-09-30_12h37.38.767,vts_reward_expectancy,2022.2.4,MacIntel,60.0024001,Chrome,1680,1050,,,,,0,639,,,,,,,,,,,,,,,,,Y,160,triangle,1,0,,,,,,,,,,,,,,,,switch,letter,lettSwt,f,1.2384,noRew,,,,,,0,24,0,24,0,1,,,,,,,,,,,,,,,,,
294301,2022-09-30_12h37.38.767,vts_reward_expectancy,2022.2.4,MacIntel,60.0024001,Chrome,1680,1050,,,,,0,639,,,,,,,,,,,,,,,,,H,125,circle,1,0,,,,,,,,,,,,,,,,switch,number,numSwt,j,0.8717,noRew,,,,,,0,25,0,25,0,1,,,,,,,,,,,,,,,,,
294301,2022-09-30_12h37.38.767,vts_reward_expectancy,2022.2.4,MacIntel,60.0024001,Chrome,1680,1050,,,,,0,639,,,,,,,,,,,,,,,,,D,174,circle,1,0,,,,,,,,,,,,,,,,switch,letter,lettSwt,d,1.0588,noRew,,,,,,0,26,0,26,0,1,,,,,,,,,,,,,,,,,
294301,2022-09-30_12h37.38.767,vts_reward_expectancy,2022.2.4,MacIntel,60.0024001,Chrome,1680,1050,,,,,0,639,,,,,,,,,,,,,,,,,S,181,hexagon,1,0,,,,,,,,,,,,,,,,repeat,letter,lettRpt,f,0.8559,noRew,,,,,,0,27,0,27,0,1,,,,,,,,,,,,,,,,,
294301,2022-09-30_12h37.38.767,vts_reward_expectancy,2022.2.4,MacIntel,60.0024001,Chrome,1680,1050,,,,,0,639,,,,,,,,,,,,,,,,,D,160,circle,1,0,,,,,,,,,,,,,,,,repeat,letter,lettRpt,d,1.0692,noRew,,,,,,0,28,0,28,0,1,,,,,,,,,,,,,,,,,
294301,2022-09-30_12h37.38.767,vts_reward_expectancy,2022.2.4,MacIntel,60.0024001,Chrome,1680,1050,,,,,0,639,,,,,,,,,,,,,,,,,Y,181,star,1,0,,,,,,,,,,,,,,,,switch,number,numSwt,k,0.8357,noRew,,,,,,0,29,0,29,0,1,,,,,,,,,,,,,,,,,
294301,2022-09-30_12h37.38.767,vts_reward_expectancy,2022.2.4,MacIntel,60.0024001,Chrome,1680,1050,,,,,0,639,,,,,,,,,,,,,,,,,S,174,circle,1,0,,,,,,,,,,,,,,,,repeat,number,numRpt,k,0.9571,noRew,,,,,,0,30,0,30,0,1,,,,,,,,,,,,,,,,,
294301,2022-09-30_12h37.38.767,vts_reward_expectancy,2022.2.4,MacIntel,60.0024001,Chrome,1680,1050,,,,,0,639,,,,,,,,,,,,,,,,,W,132,triangle,1,0,,,,,,,,,,,,,,,,repeat,number,numRpt,j,0.8556,noRew,,,,,,0,31,0,31,0,1,,,,,,,,,,,,,,,,,
294301,2022-09-30_12h37.38.767,vts_reward_expectancy,2022.2.4,MacIntel,60.0024001,Chrome,1680,1050,,,,,0,639,,,,,,,,,,,,,,,,,U,160,triangle,1,0,,,,,,,,,,,,,,,,repeat,number,numRpt,k,0.8061,noRew,,,,,,0,32,0,32,0,1,,,,,,,,,,,,,,,,,
294301,2022-09-30_12h37.38.767,vts_reward_expectancy,2022.2.4,MacIntel,60.0024001,Chrome,1680,1050,,,,,0,639,,,,,,,,,,,,,,,,,F,125,star,1,0,,,,,,,,,,,,,,,,switch,letter,lettSwt,d,1.2416,noRew,,,,,,0,33,0,33,0,1,,,,,,,,,,,,,,,,,
294301,2022-09-30_12h37.38.767,vts_reward_expectancy,2022.2.4,MacIntel,60.0024001,Chrome,1680,1050,,,,,0,639,,,,,,,,,,,,,,,,,Y,132,hexagon,0,0,,,,,,,,,,,,,,,,switch,number,NA,k,0.8217,noRew,,,,,,0,34,0,34,0,1,,,,,,,,,,,,,,,,,
294301,2022-09-30_12h37.38.767,vts_reward_expectancy,2022.2.4,MacIntel,60.0024001,Chrome,1680,1050,,,,,0,639,,,,,,,,,,,,,,,,,B,146,circle,1,1,,,,,,,,,,,,,,,,switch,letter,lettSwt,d,0.9953,noRew,,,,,,0,35,0,35,0,1,,,,,,,,,,,,,,,,,
294301,2022-09-30_12h37.38.767,vts_reward_expectancy,2022.2.4,MacIntel,60.0024001,Chrome,1680,1050,,,,,0,639,,,,,,,,,,,,,,,,,D,125,hexagon,1,0,,,,,,,,,,,,,,,,repeat,letter,lettRpt,d,0.9108,noRew,,,,,,0,36,0,36,0,1,,,,,,,,,,,,,,,,,
294301,2022-09-30_12h37.38.767,vts_reward_expectancy,2022.2.4,MacIntel,60.0024001,Chrome,1680,1050,,,,,0,639,,,,,,,,,,,,,,,,,S,167,triangle,0,0,,,,,,,,,,,,,,,,repeat,letter,NA,d,1.5421,noRew,,,,,,0,37,0,37,0,1,,,,,,,,,,,,,,,,,
294301,2022-09-30_12h37.38.767,vts_reward_expectancy,2022.2.4,MacIntel,60.0024001,Chrome,1680,1050,,,,,0,639,,,,,,,,,,,,,,,,,U,181,star,1,1,,,,,,,,,,,,,,,,repeat,letter,lettRpt,f,0.8387,noRew,,,,,,0,38,0,38,0,1,,,,,,,,,,,,,,,,,
294301,2022-09-30_12h37.38.767,vts_reward_expectancy,2022.2.4,MacIntel,60.0024001,Chrome,1680,1050,,,,,0,639,,,,,,,,,,,,,,,,,H,160,circle,1,0,,,,,,,,,,,,,,,,switch,number,numSwt,k,1.4387,noRew,,,,,,0,39,0,39,0,1,,,,,,,,,,,,,,,,,
294301,2022-09-30_12h37.38.767,vts_reward_expectancy,2022.2.4,MacIntel,60.0024001,Chrome,1680,1050,,,,,0,639,,,,,,,,,,,,,,,,,B,174,circle,1,0,,,,,,,,,,,,,,,,switch,letter,lettSwt,d,1.7893,noRew,,,,,,0,40,0,40,0,1,,,,,,,,,,,,,,,,,
294301,2022-09-30_12h37.38.767,vts_reward_expectancy,2022.2.4,MacIntel,60.0024001,Chrome,1680,1050,,,,,0,639,,,,,,,,,,,,,,,,,W,125,star,1,0,,,,,,,,,,,,,,,,repeat,letter,lettRpt,f,1.2281,noRew,,,,,,0,41,0,41,0,1,,,,,,,,,,,,,,,,,
294301,2022-09-30_12h37.38.767,vts_reward_expectancy,2022.2.4,MacIntel,60.0024001,Chrome,1680,1050,,,,,0,639,,,,,,,,,,,,,,,,,F,167,hexagon,1,0,,,,,,,,,,,,,,,,repeat,letter,lettRpt,d,0.9229,noRew,,,,,,0,42,0,42,0,1,,,,,,,,,,,,,,,,,
294301,2022-09-30_12h37.38.767,vts_reward_expectancy,2022.2.4,MacIntel,60.0024001,Chrome,1680,1050,,,,,0,639,,,,,,,,,,,,,,,,,U,181,triangle,1,0,,,,,,,,,,,,,,,,switch,number,numSwt,k,1.1063,noRew,,,,,,0,43,0,43,0,1,,,,,,,,,,,,,,,,,
294301,2022-09-30_12h37.38.767,vts_reward_expectancy,2022.2.4,MacIntel,60.0024001,Chrome,1680,1050,,,,,0,639,,,,,,,,,,,,,,,,,D,146,circle,1,0,,,,,,,,,,,,,,,,switch,letter,lettSwt,d,1.0693,noRew,,,,,,0,44,0,44,0,1,,,,,,,,,,,,,,,,,
294301,2022-09-30_12h37.38.767,vts_reward_expectancy,2022.2.4,MacIntel,60.0024001,Chrome,1680,1050,,,,,0,639,,,,,,,,,,,,,,,,,W,181,hexagon,1,0,,,,,,,,,,,,,,,,repeat,letter,lettRpt,f,1.4419,noRew,,,,,,0,45,0,45,0,1,,,,,,,,,,,,,,,,,
294301,2022-09-30_12h37.38.767,vts_reward_expectancy,2022.2.4,MacIntel,60.0024001,Chrome,1680,1050,,,,,0,639,,,,,,,,,,,,,,,,,B,167,star,1,0,,,,,,,,,,,,,,,,repeat,letter,lettRpt,d,0.879,noRew,,,,,,0,46,0,46,0,1,,,,,,,,,,,,,,,,,
294301,2022-09-30_12h37.38.767,vts_reward_expectancy,2022.2.4,MacIntel,60.0024001,Chrome,1680,1050,,,,,0,639,,,,,,,,,,,,,,,,,S,139,triangle,1,0,,,,,,,,,,,,,,,,switch,number,numSwt,j,1.6702,noRew,,,,,,0,47,0,47,0,1,,,,,,,,,,,,,,,,,
294301,2022-09-30_12h37.38.767,vts_reward_expectancy,2022.2.4,MacIntel,60.0024001,Chrome,1680,1050,,,,,0,639,,,,,,,,,,,,,,,,,S,132,star,1,0,,,,,,,,,,,,,,,,repeat,number,numRpt,j,0.892,noRew,,,,,,0,48,0,48,0,1,,,,,,,,,,,,,,,,,
294301,2022-09-30_12h37.38.767,vts_reward_expectancy,2022.2.4,MacIntel,60.0024001,Chrome,1680,1050,,,,,0,639,,,,,,,,,,,,,,,,,W,146,hexagon,1,0,,,,,,,,,,,,,,,,repeat,number,numRpt,j,1.127,noRew,,,,,,0,49,0,49,0,1,,,,,,,,,,,,,,,,,
294301,2022-09-30_12h37.38.767,vts_reward_expectancy,2022.2.4,MacIntel,60.0024001,Chrome,1680,1050,,,,,0,639,,,,,,,,,,,,,,,,,F,125,circle,1,0,,,,,,,,,,,,,,,,repeat,number,numRpt,j,0.8368,noRew,,,,,,0,50,0,50,0,1,,,,,,,,,,,,,,,,,
294301,2022-09-30_12h37.38.767,vts_reward_expectancy,2022.2.4,MacIntel,60.0024001,Chrome,1680,1050,,,,,0,639,,,,,,,,,,,,,,,,,D,167,star,1,0,,,,,,,,,,,,,,,,switch,letter,lettSwt,d,1.055,noRew,,,,,,0,51,0,51,0,1,,,,,,,,,,,,,,,,,
294301,2022-09-30_12h37.38.767,vts_reward_expectancy,2022.2.4,MacIntel,60.0024001,Chrome,1680,1050,,,,,0,639,,,,,,,,,,,,,,,,,F,181,triangle,1,0,,,,,,,,,,,,,,,,repeat,letter,lettRpt,d,1.0888,noRew,,,,,,0,52,0,52,0,1,,,,,,,,,,,,,,,,,
294301,2022-09-30_12h37.38.767,vts_reward_expectancy,2022.2.4,MacIntel,60.0024001,Chrome,1680,1050,,,,,0,639,,,,,,,,,,,,,,,,,B,132,hexagon,1,0,,,,,,,,,,,,,,,,switch,number,numSwt,j,1.9936,noRew,,,,,,0,53,0,53,0,1,,,,,,,,,,,,,,,,,
294301,2022-09-30_12h37.38.767,vts_reward_expectancy,2022.2.4,MacIntel,60.0024001,Chrome,1680,1050,,,,,0,639,,,,,,,,,,,,,,,,,U,125,circle,1,0,,,,,,,,,,,,,,,,switch,letter,lettSwt,f,1.62,noRew,,,,,,0,54,0,54,0,1,,,,,,,,,,,,,,,,,
294301,2022-09-30_12h37.38.767,vts_reward_expectancy,2022.2.4,MacIntel,60.0024001,Chrome,1680,1050,,,,,0,639,,,,,,,,,,,,,,,,,W,139,triangle,1,0,,,,,,,,,,,,,,,,repeat,letter,lettRpt,f,1.5357,noRew,,,,,,0,55,0,55,0,1,,,,,,,,,,,,,,,,,
294301,2022-09-30_12h37.38.767,vts_reward_expectancy,2022.2.4,MacIntel,60.0024001,Chrome,1680,1050,,,,,0,639,,,,,,,,,,,,,,,,,D,146,circle,1,0,,,,,,,,,,,,,,,,repeat,letter,lettRpt,d,0.9394,noRew,,,,,,0,56,0,56,0,1,,,,,,,,,,,,,,,,,
294301,2022-09-30_12h37.38.767,vts_reward_expectancy,2022.2.4,MacIntel,60.0024001,Chrome,1680,1050,,,,,0,639,,,,,,,,,,,,,,,,,Y,167,hexagon,0,0,,,,,,,,,,,,,,,,repeat,letter,NA,d,1.1433,noRew,,,,,,0,57,0,57,0,1,,,,,,,,,,,,,,,,,
294301,2022-09-30_12h37.38.767,vts_reward_expectancy,2022.2.4,MacIntel,60.0024001,Chrome,1680,1050,,,,,0,639,,,,,,,,,,,,,,,,,H,181,triangle,0,1,,,,,,,,,,,,,,,,repeat,letter,NA,f,1.4579,noRew,,,,,,0,58,0,58,0,1,,,,,,,,,,,,,,,,,
294301,2022-09-30_12h37.38.767,vts_reward_expectancy,2022.2.4,MacIntel,60.0024001,Chrome,1680,1050,,,,,0,639,,,,,,,,,,,,,,,,,W,125,hexagon,1,1,,,,,,,,,,,,,,,,switch,number,numSwt,j,1.9435,noRew,,,,,,0,59,0,59,0,1,,,,,,,,,,,,,,,,,
294301,2022-09-30_12h37.38.767,vts_reward_expectancy,2022.2.4,MacIntel,60.0024001,Chrome,1680,1050,,,,,0,639,,,,,,,,,,,,,,,,,W,167,hexagon,1,0,,,,,,,,,,,,,,,,switch,letter,lettSwt,f,1.6287,noRew,,,,,,0,60,0,60,0,1,,,,,,,,,,,,,,,,,
294301,2022-09-30_12h37.38.767,vts_reward_expectancy,2022.2.4,MacIntel,60.0024001,Chrome,1680,1050,,,,,0,639,,,,,,,,,,,,,,,,,D,181,circle,1,0,,,,,,,,,,,,,,,,repeat,letter,lettRpt,d,1.0387,noRew,,,,,,0,61,0,61,0,1,,,,,,,,,,,,,,,,,
294301,2022-09-30_12h37.38.767,vts_reward_expectancy,2022.2.4,MacIntel,60.0024001,Chrome,1680,1050,,,,,0,639,,,,,,,,,,,,,,,,,H,132,hexagon,1,0,,,,,,,,,,,,,,,,repeat,letter,lettRpt,d,1.275,noRew,,,,,,0,62,0,62,0,1,,,,,,,,,,,,,,,,,
294301,2022-09-30_12h37.38.767,vts_reward_expectancy,2022.2.4,MacIntel,60.0024001,Chrome,1680,1050,,,,,0,639,,,,,,,,,,,,,,,,,F,146,triangle,1,0,,,,,,,,,,,,,,,,repeat,letter,lettRpt,d,0.8915,noRew,,,,,,0,63,0,63,0,1,,,,,,,,,,,,,,,,,
294301,2022-09-30_12h37.38.767,vts_reward_expectancy,2022.2.4,MacIntel,60.0024001,Chrome,1680,1050,,,,,,,,,,,,,,,,,,,,,,,,,,,,,,,,,,,,,,,,,,,,,,,,,,,,,,,,,,,,,,,,,,,,,,,,,,,,
294301,2022-09-30_12h37.38.767,vts_reward_expectancy,2022.2.4,MacIntel,60.0024001,Chrome,1680,1050,,,,,10,649,,,,,,,,,,,,,,,,,H,125,triangle,1,0,,,,,,,,,,,,,,,,switch,number,numSwt,j,0.7012,Hi,,,,,,0,,,,,,space,1.809,high,0,0,0,0,1,,,,,,,,,
294301,2022-09-30_12h37.38.767,vts_reward_expectancy,2022.2.4,MacIntel,60.0024001,Chrome,1680,1050,,,,,1,650,,,,,,,,,,,,,,,,,D,167,circle,1,0,,,,,,,,,,,,,,,,repeat,number,numRpt,k,0.9882,Lo,,,,,,0,,,,,,,,high,1,0,1,0,1,,,,,,,,,
294301,2022-09-30_12h37.38.767,vts_reward_expectancy,2022.2.4,MacIntel,60.0024001,Chrome,1680,1050,,,,,0,650,,,,,,,,,,,,,,,,,U,139,triangle,1,0,,,,,,,,,,,,,,,,switch,letter,lettSwt,f,1.1079,Hi,,,,,,0,,,,,,,,high,2,0,2,0,1,,,,,,,,,
294301,2022-09-30_12h37.38.767,vts_reward_expectancy,2022.2.4,MacIntel,60.0024001,Chrome,1680,1050,,,,,0,650,,,,,,,,,,,,,,,,,Y,132,circle,0,0,,,,,,,,,,,,,,,,switch,number,NA,k,0.6747,Hi,,,,,,0,,,,,,,,high,3,0,3,0,1,,,,,,,,,
294301,2022-09-30_12h37.38.767,vts_reward_expectancy,2022.2.4,MacIntel,60.0024001,Chrome,1680,1050,,,,,10,660,,,,,,,,,,,,,,,,,S,160,triangle,1,1,,,,,,,,,,,,,,,,repeat,number,numRpt,k,0.6694,Hi,,,,,,0,,,,,,,,high,4,0,4,0,1,,,,,,,,,
294301,2022-09-30_12h37.38.767,vts_reward_expectancy,2022.2.4,MacIntel,60.0024001,Chrome,1680,1050,,,,,1,661,,,,,,,,,,,,,,,,,W,174,circle,1,0,,,,,,,,,,,,,,,,switch,letter,lettSwt,f,0.5554,Lo,,,,,,0,,,,,,,,high,5,0,5,0,1,,,,,,,,,
294301,2022-09-30_12h37.38.767,vts_reward_expectancy,2022.2.4,MacIntel,60.0024001,Chrome,1680,1050,,,,,1,662,,,,,,,,,,,,,,,,,F,181,circle,1,0,,,,,,,,,,,,,,,,switch,number,numSwt,k,0.7914,Lo,,,,,,0,,,,,,,,high,6,0,6,0,1,,,,,,,,,
294301,2022-09-30_12h37.38.767,vts_reward_expectancy,2022.2.4,MacIntel,60.0024001,Chrome,1680,1050,,,,,0,662,,,,,,,,,,,,,,,,,B,146,triangle,0,0,,,,,,,,,,,,,,,,repeat,number,NA,k,1.01,Lo,,,,,,0,,,,,,,,high,7,0,7,0,1,,,,,,,,,
294301,2022-09-30_12h37.38.767,vts_reward_expectancy,2022.2.4,MacIntel,60.0024001,Chrome,1680,1050,,,,,0,662,,,,,,,,,,,,,,,,,H,125,triangle,1,1,,,,,,,,,,,,,,,,switch,letter,lettSwt,d,1.1717,Hi,,,,,,0,,,,,,,,high,8,0,8,0,1,,,,,,,,,
294301,2022-09-30_12h37.38.767,vts_reward_expectancy,2022.2.4,MacIntel,60.0024001,Chrome,1680,1050,,,,,1,663,,,,,,,,,,,,,,,,,D,167,circle,1,0,,,,,,,,,,,,,,,,switch,number,numSwt,k,0.6431,Lo,,,,,,0,,,,,,,,high,9,0,9,0,1,,,,,,,,,
294301,2022-09-30_12h37.38.767,vts_reward_expectancy,2022.2.4,MacIntel,60.0024001,Chrome,1680,1050,,,,,10,673,,,,,,,,,,,,,,,,,U,139,triangle,1,0,,,,,,,,,,,,,,,,switch,letter,lettSwt,f,0.8934,Hi,,,,,,0,,,,,,,,high,10,0,10,0,1,,,,,,,,,
294301,2022-09-30_12h37.38.767,vts_reward_expectancy,2022.2.4,MacIntel,60.0024001,Chrome,1680,1050,,,,,1,674,,,,,,,,,,,,,,,,,Y,132,circle,1,0,,,,,,,,,,,,,,,,switch,number,numSwt,j,1.1195,Lo,,,,,,0,,,,,,,,high,11,0,11,0,1,,,,,,,,,
294301,2022-09-30_12h37.38.767,vts_reward_expectancy,2022.2.4,MacIntel,60.0024001,Chrome,1680,1050,,,,,10,684,,,,,,,,,,,,,,,,,S,160,triangle,1,0,,,,,,,,,,,,,,,,repeat,number,numRpt,k,0.8265,Hi,,,,,,0,,,,,,,,high,12,0,12,0,1,,,,,,,,,
294301,2022-09-30_12h37.38.767,vts_reward_expectancy,2022.2.4,MacIntel,60.0024001,Chrome,1680,1050,,,,,1,685,,,,,,,,,,,,,,,,,W,174,circle,1,0,,,,,,,,,,,,,,,,repeat,number,numRpt,k,0.889,Lo,,,,,,0,,,,,,,,high,13,0,13,0,1,,,,,,,,,
294301,2022-09-30_12h37.38.767,vts_reward_expectancy,2022.2.4,MacIntel,60.0024001,Chrome,1680,1050,,,,,1,686,,,,,,,,,,,,,,,,,F,181,circle,1,0,,,,,,,,,,,,,,,,repeat,number,numRpt,k,0.7524,Lo,,,,,,0,,,,,,,,high,14,0,14,0,1,,,,,,,,,
294301,2022-09-30_12h37.38.767,vts_reward_expectancy,2022.2.4,MacIntel,60.0024001,Chrome,1680,1050,,,,,0,686,,,,,,,,,,,,,,,,,B,146,triangle,1,0,,,,,,,,,,,,,,,,repeat,number,numRpt,j,1.2224,Hi,,,,,,0,,,,,,,,high,15,0,15,0,1,,,,,,,,,
294301,2022-09-30_12h37.38.767,vts_reward_expectancy,2022.2.4,MacIntel,60.0024001,Chrome,1680,1050,,,,,0,686,,,,,,,,,,,,,,,,,Y,181,circle,0,0,,,,,,,,,,,,,,,,repeat,number,NA,j,0.688,Hi,,,,,,0,,,,,,,,high,16,0,16,0,1,,,,,,,,,
294301,2022-09-30_12h37.38.767,vts_reward_expectancy,2022.2.4,MacIntel,60.0024001,Chrome,1680,1050,,,,,0,686,,,,,,,,,,,,,,,,,F,146,triangle,0,1,,,,,,,,,,,,,,,,repeat,number,NA,k,0.5803,Hi,,,,,,0,,,,,,,,high,17,0,17,0,1,,,,,,,,,
294301,2022-09-30_12h37.38.767,vts_reward_expectancy,2022.2.4,MacIntel,60.0024001,Chrome,1680,1050,,,,,10,696,,,,,,,,,,,,,,,,,D,174,circle,1,1,,,,,,,,,,,,,,,,repeat,number,numRpt,k,1.5613,Lo,,,,,,0,,,,,,,,high,18,0,18,0,1,,,,,,,,,
294301,2022-09-30_12h37.38.767,vts_reward_expectancy,2022.2.4,MacIntel,60.0024001,Chrome,1680,1050,,,,,10,706,,,,,,,,,,,,,,,,,B,125,triangle,1,0,,,,,,,,,,,,,,,,repeat,number,numRpt,j,0.8572,Hi,,,,,,0,,,,,,,,high,19,0,19,0,1,,,,,,,,,
294301,2022-09-30_12h37.38.767,vts_reward_expectancy,2022.2.4,MacIntel,60.0024001,Chrome,1680,1050,,,,,0,706,,,,,,,,,,,,,,,,,H,139,triangle,1,0,,,,,,,,,,,,,,,,switch,letter,lettSwt,d,2.2148,Hi,,,,,,0,,,,,,,,high,20,0,20,0,1,,,,,,,,,
294301,2022-09-30_12h37.38.767,vts_reward_expectancy,2022.2.4,MacIntel,60.0024001,Chrome,1680,1050,,,,,0,706,,,,,,,,,,,,,,,,,S,167,circle,0,0,,,,,,,,,,,,,,,,repeat,letter,NA,d,0.056,Hi,,,,,,0,,,,,,,,high,21,0,21,0,1,,,,,,,,,
294301,2022-09-30_12h37.38.767,vts_reward_expectancy,2022.2.4,MacIntel,60.0024001,Chrome,1680,1050,,,,,10,716,,,,,,,,,,,,,,,,,U,132,triangle,1,1,,,,,,,,,,,,,,,,repeat,letter,lettRpt,f,0.0723,Hi,,,,,,0,,,,,,,,high,22,0,22,0,1,,,,,,,,,
294301,2022-09-30_12h37.38.767,vts_reward_expectancy,2022.2.4,MacIntel,60.0024001,Chrome,1680,1050,,,,,0,716,,,,,,,,,,,,,,,,,W,160,circle,0,0,,,,,,,,,,,,,,,,repeat,letter,NA,d,0.0717,Hi,,,,,,0,,,,,,,,high,23,0,23,0,1,,,,,,,,,
294301,2022-09-30_12h37.38.767,vts_reward_expectancy,2022.2.4,MacIntel,60.0024001,Chrome,1680,1050,,,,,1,717,,,,,,,,,,,,,,,,,B,160,circle,1,1,,,,,,,,,,,,,,,,switch,number,numSwt,k,0.0565,Lo,,,,,,0,,,,,,,,high,24,0,24,0,1,,,,,,,,,
294301,2022-09-30_12h37.38.767,vts_reward_expectancy,2022.2.4,MacIntel,60.0024001,Chrome,1680,1050,,,,,10,727,,,,,,,,,,,,,,,,,H,125,triangle,1,0,,,,,,,,,,,,,,,,switch,letter,lettSwt,d,0.0221,Hi,,,,,,0,,,,,,,,high,25,0,25,0,1,,,,,,,,,
294301,2022-09-30_12h37.38.767,vts_reward_expectancy,2022.2.4,MacIntel,60.0024001,Chrome,1680,1050,,,,,10,737,,,,,,,,,,,,,,,,,W,146,circle,1,0,,,,,,,,,,,,,,,,repeat,letter,lettRpt,f,0.0512,Lo,,,,,,0,,,,,,,,high,26,0,26,0,1,,,,,,,,,
294301,2022-09-30_12h37.38.767,vts_reward_expectancy,2022.2.4,MacIntel,60.0024001,Chrome,1680,1050,,,,,0,737,,,,,,,,,,,,,,,,,Y,174,triangle,0,0,,,,,,,,,,,,,,,,repeat,letter,NA,d,0.0006,Lo,,,,,,0,,,,,,,,high,27,0,27,0,1,,,,,,,,,
294301,2022-09-30_12h37.38.767,vts_reward_expectancy,2022.2.4,MacIntel,60.0024001,Chrome,1680,1050,,,,,0,737,,,,,,,,,,,,,,,,,U,132,triangle,0,1,,,,,,,,,,,,,,,,switch,number,NA,k,0.0088,Lo,,,,,,0,,,,,,,,high,28,0,28,0,1,,,,,,,,,
294301,2022-09-30_12h37.38.767,vts_reward_expectancy,2022.2.4,MacIntel,60.0024001,Chrome,1680,1050,,,,,0,737,,,,,,,,,,,,,,,,,D,181,circle,0,1,,,,,,,,,,,,,,,,switch,letter,NA,f,0.0007,Lo,,,,,,0,,,,,,,,high,29,0,29,0,1,,,,,,,,,
294301,2022-09-30_12h37.38.767,vts_reward_expectancy,2022.2.4,MacIntel,60.0024001,Chrome,1680,1050,,,,,1,738,,,,,,,,,,,,,,,,,F,139,circle,1,1,,,,,,,,,,,,,,,,repeat,letter,lettRpt,d,0.0085,Lo,,,,,,0,,,,,,,,high,30,0,30,0,1,,,,,,,,,
294301,2022-09-30_12h37.38.767,vts_reward_expectancy,2022.2.4,MacIntel,60.0024001,Chrome,1680,1050,,,,,0,738,,,,,,,,,,,,,,,,,S,167,triangle,0,0,,,,,,,,,,,,,,,,switch,number,NA,j,0.0957,Lo,,,,,,0,,,,,,,,high,31,0,31,0,1,,,,,,,,,
294301,2022-09-30_12h37.38.767,vts_reward_expectancy,2022.2.4,MacIntel,60.0024001,Chrome,1680,1050,,,,,0,738,,,,,,,,,,,,,,,,,B,146,triangle,0,1,,,,,,,,,,,,,,,,repeat,number,NA,k,0.7897,Lo,,,,,,1,,,,,,space,30.4383,high,0,0,0,0,1,,,,,,,,,
294301,2022-09-30_12h37.38.767,vts_reward_expectancy,2022.2.4,MacIntel,60.0024001,Chrome,1680,1050,,,,,1,739,,,,,,,,,,,,,,,,,S,132,circle,1,1,,,,,,,,,,,,,,,,switch,letter,lettSwt,f,0.7031,Lo,,,,,,1,,,,,,,,high,1,0,1,0,1,,,,,,,,,
294301,2022-09-30_12h37.38.767,vts_reward_expectancy,2022.2.4,MacIntel,60.0024001,Chrome,1680,1050,,,,,0,739,,,,,,,,,,,,,,,,,Y,125,triangle,1,0,,,,,,,,,,,,,,,,switch,number,numSwt,j,0.92,Hi,,,,,,1,,,,,,,,high,2,0,2,0,1,,,,,,,,,
294301,2022-09-30_12h37.38.767,vts_reward_expectancy,2022.2.4,MacIntel,60.0024001,Chrome,1680,1050,,,,,1,740,,,,,,,,,,,,,,,,,F,181,circle,1,0,,,,,,,,,,,,,,,,repeat,number,numRpt,k,0.9593,Lo,,,,,,1,,,,,,,,high,3,0,3,0,1,,,,,,,,,
294301,2022-09-30_12h37.38.767,vts_reward_expectancy,2022.2.4,MacIntel,60.0024001,Chrome,1680,1050,,,,,10,750,,,,,,,,,,,,,,,,,U,174,triangle,1,0,,,,,,,,,,,,,,,,repeat,number,numRpt,k,0.7853,Hi,,,,,,1,,,,,,,,high,4,0,4,0,1,,,,,,,,,
294301,2022-09-30_12h37.38.767,vts_reward_expectancy,2022.2.4,MacIntel,60.0024001,Chrome,1680,1050,,,,,10,760,,,,,,,,,,,,,,,,,W,139,circle,1,0,,,,,,,,,,,,,,,,repeat,number,numRpt,j,1.2949,Lo,,,,,,1,,,,,,,,high,5,0,5,0,1,,,,,,,,,
294301,2022-09-30_12h37.38.767,vts_reward_expectancy,2022.2.4,MacIntel,60.0024001,Chrome,1680,1050,,,,,0,760,,,,,,,,,,,,,,,,,H,167,triangle,1,0,,,,,,,,,,,,,,,,repeat,number,numRpt,k,0.9059,Hi,,,,,,1,,,,,,,,high,6,0,6,0,1,,,,,,,,,
294301,2022-09-30_12h37.38.767,vts_reward_expectancy,2022.2.4,MacIntel,60.0024001,Chrome,1680,1050,,,,,1,761,,,,,,,,,,,,,,,,,D,160,circle,1,0,,,,,,,,,,,,,,,,repeat,number,numRpt,k,0.5912,Lo,,,,,,1,,,,,,,,high,7,0,7,0,1,,,,,,,,,
294301,2022-09-30_12h37.38.767,vts_reward_expectancy,2022.2.4,MacIntel,60.0024001,Chrome,1680,1050,,,,,0,761,,,,,,,,,,,,,,,,,B,146,triangle,1,0,,,,,,,,,,,,,,,,repeat,number,numRpt,j,1.0479,Hi,,,,,,1,,,,,,,,high,8,0,8,0,1,,,,,,,,,
294301,2022-09-30_12h37.38.767,vts_reward_expectancy,2022.2.4,MacIntel,60.0024001,Chrome,1680,1050,,,,,10,771,,,,,,,,,,,,,,,,,S,132,circle,1,0,,,,,,,,,,,,,,,,repeat,number,numRpt,j,0.6744,Lo,,,,,,1,,,,,,,,high,9,0,9,0,1,,,,,,,,,
294301,2022-09-30_12h37.38.767,vts_reward_expectancy,2022.2.4,MacIntel,60.0024001,Chrome,1680,1050,,,,,10,781,,,,,,,,,,,,,,,,,Y,125,triangle,1,0,,,,,,,,,,,,,,,,repeat,number,numRpt,j,0.7887,Hi,,,,,,1,,,,,,,,high,10,0,10,0,1,,,,,,,,,
294301,2022-09-30_12h37.38.767,vts_reward_expectancy,2022.2.4,MacIntel,60.0024001,Chrome,1680,1050,,,,,0,781,,,,,,,,,,,,,,,,,F,181,circle,0,0,,,,,,,,,,,,,,,,repeat,number,NA,j,0.7053,Hi,,,,,,1,,,,,,,,high,11,0,11,0,1,,,,,,,,,
294301,2022-09-30_12h37.38.767,vts_reward_expectancy,2022.2.4,MacIntel,60.0024001,Chrome,1680,1050,,,,,1,782,,,,,,,,,,,,,,,,,U,174,circle,1,1,,,,,,,,,,,,,,,,repeat,number,numRpt,k,0.8631,Lo,,,,,,1,,,,,,,,high,12,0,12,0,1,,,,,,,,,
294301,2022-09-30_12h37.38.767,vts_reward_expectancy,2022.2.4,MacIntel,60.0024001,Chrome,1680,1050,,,,,0,782,,,,,,,,,,,,,,,,,W,139,triangle,0,0,,,,,,,,,,,,,,,,repeat,number,NA,k,0.722,Lo,,,,,,1,,,,,,,,high,13,0,13,0,1,,,,,,,,,
294301,2022-09-30_12h37.38.767,vts_reward_expectancy,2022.2.4,MacIntel,60.0024001,Chrome,1680,1050,,,,,10,792,,,,,,,,,,,,,,,,,H,167,triangle,1,1,,,,,,,,,,,,,,,,repeat,number,numRpt,k,0.8196,Hi,,,,,,1,,,,,,,,high,14,0,14,0,1,,,,,,,,,
294301,2022-09-30_12h37.38.767,vts_reward_expectancy,2022.2.4,MacIntel,60.0024001,Chrome,1680,1050,,,,,1,793,,,,,,,,,,,,,,,,,D,160,circle,1,0,,,,,,,,,,,,,,,,repeat,number,numRpt,k,0.8071,Lo,,,,,,1,,,,,,,,high,15,0,15,0,1,,,,,,,,,
294301,2022-09-30_12h37.38.767,vts_reward_expectancy,2022.2.4,MacIntel,60.0024001,Chrome,1680,1050,,,,,0,793,,,,,,,,,,,,,,,,,B,125,circle,0,0,,,,,,,,,,,,,,,,repeat,number,NA,k,0.7682,Lo,,,,,,1,,,,,,,,high,16,0,16,0,1,,,,,,,,,
294301,2022-09-30_12h37.38.767,vts_reward_expectancy,2022.2.4,MacIntel,60.0024001,Chrome,1680,1050,,,,,1,794,,,,,,,,,,,,,,,,,F,167,triangle,1,1,,,,,,,,,,,,,,,,repeat,number,numRpt,k,0.7028,Hi,,,,,,1,,,,,,,,high,17,0,17,0,1,,,,,,,,,
294301,2022-09-30_12h37.38.767,vts_reward_expectancy,2022.2.4,MacIntel,60.0024001,Chrome,1680,1050,,,,,10,804,,,,,,,,,,,,,,,,,H,181,triangle,1,0,,,,,,,,,,,,,,,,repeat,number,numRpt,k,0.7382,Hi,,,,,,1,,,,,,,,high,18,0,18,0,1,,,,,,,,,
294301,2022-09-30_12h37.38.767,vts_reward_expectancy,2022.2.4,MacIntel,60.0024001,Chrome,1680,1050,,,,,1,805,,,,,,,,,,,,,,,,,S,160,circle,1,0,,,,,,,,,,,,,,,,switch,letter,lettSwt,f,0.8582,Lo,,,,,,1,,,,,,,,high,19,0,19,0,1,,,,,,,,,
294301,2022-09-30_12h37.38.767,vts_reward_expectancy,2022.2.4,MacIntel,60.0024001,Chrome,1680,1050,,,,,0,805,,,,,,,,,,,,,,,,,D,174,triangle,1,0,,,,,,,,,,,,,,,,repeat,letter,lettRpt,d,0.7763,Hi,,,,,,1,,,,,,,,high,20,0,20,0,1,,,,,,,,,
294301,2022-09-30_12h37.38.767,vts_reward_expectancy,2022.2.4,MacIntel,60.0024001,Chrome,1680,1050,,,,,1,806,,,,,,,,,,,,,,,,,W,132,circle,1,0,,,,,,,,,,,,,,,,repeat,letter,lettRpt,f,0.0004,Lo,,,,,,1,,,,,,,,high,21,0,21,0,1,,,,,,,,,
294301,2022-09-30_12h37.38.767,vts_reward_expectancy,2022.2.4,MacIntel,60.0024001,Chrome,1680,1050,,,,,0,806,,,,,,,,,,,,,,,,,U,146,triangle,0,0,,,,,,,,,,,,,,,,switch,number,NA,k,0.0576,Lo,,,,,,1,,,,,,,,high,22,0,22,0,1,,,,,,,,,
294301,2022-09-30_12h37.38.767,vts_reward_expectancy,2022.2.4,MacIntel,60.0024001,Chrome,1680,1050,,,,,1,807,,,,,,,,,,,,,,,,,Y,139,circle,1,1,,,,,,,,,,,,,,,,repeat,number,numRpt,j,0.0624,Lo,,,,,,1,,,,,,,,high,23,0,23,0,1,,,,,,,,,
294301,2022-09-30_12h37.38.767,vts_reward_expectancy,2022.2.4,MacIntel,60.0024001,Chrome,1680,1050,,,,,10,817,,,,,,,,,,,,,,,,,U,181,triangle,1,0,,,,,,,,,,,,,,,,switch,letter,lettSwt,f,0.1049,Hi,,,,,,1,,,,,,,,high,24,0,24,0,1,,,,,,,,,
294301,2022-09-30_12h37.38.767,vts_reward_expectancy,2022.2.4,MacIntel,60.0024001,Chrome,1680,1050,,,,,0,817,,,,,,,,,,,,,,,,,H,132,circle,0,0,,,,,,,,,,,,,,,,repeat,letter,NA,f,0.5197,Hi,,,,,,1,,,,,,,,high,25,0,25,0,1,,,,,,,,,
294301,2022-09-30_12h37.38.767,vts_reward_expectancy,2022.2.4,MacIntel,60.0024001,Chrome,1680,1050,,,,,1,818,,,,,,,,,,,,,,,,,S,146,circle,1,1,,,,,,,,,,,,,,,,switch,number,numSwt,j,0.5532,Lo,,,,,,1,,,,,,,,high,26,0,26,0,1,,,,,,,,,
294301,2022-09-30_12h37.38.767,vts_reward_expectancy,2022.2.4,MacIntel,60.0024001,Chrome,1680,1050,,,,,0,818,,,,,,,,,,,,,,,,,W,125,triangle,0,0,,,,,,,,,,,,,,,,repeat,number,NA,k,0.5248,Lo,,,,,,1,,,,,,,,high,27,0,27,0,1,,,,,,,,,
294301,2022-09-30_12h37.38.767,vts_reward_expectancy,2022.2.4,MacIntel,60.0024001,Chrome,1680,1050,,,,,10,828,,,,,,,,,,,,,,,,,F,160,circle,1,1,,,,,,,,,,,,,,,,repeat,number,numRpt,k,0.4595,Lo,,,,,,1,,,,,,,,high,28,0,28,0,1,,,,,,,,,
294301,2022-09-30_12h37.38.767,vts_reward_expectancy,2022.2.4,MacIntel,60.0024001,Chrome,1680,1050,,,,,10,838,,,,,,,,,,,,,,,,,B,167,triangle,1,0,,,,,,,,,,,,,,,,repeat,number,numRpt,k,0.0411,Hi,,,,,,1,,,,,,,,high,29,0,29,0,1,,,,,,,,,
294301,2022-09-30_12h37.38.767,vts_reward_expectancy,2022.2.4,MacIntel,60.0024001,Chrome,1680,1050,,,,,0,838,,,,,,,,,,,,,,,,,Y,139,triangle,0,0,,,,,,,,,,,,,,,,repeat,number,NA,k,0.1192,Hi,,,,,,1,,,,,,,,high,30,0,30,0,1,,,,,,,,,
294301,2022-09-30_12h37.38.767,vts_reward_expectancy,2022.2.4,MacIntel,60.0024001,Chrome,1680,1050,,,,,1,839,,,,,,,,,,,,,,,,,D,174,circle,1,1,,,,,,,,,,,,,,,,repeat,number,numRpt,k,0.6116,Lo,,,,,,1,,,,,,,,high,31,0,31,0,1,,,,,,,,,
294301,2022-09-30_12h37.38.767,vts_reward_expectancy,2022.2.4,MacIntel,60.0024001,Chrome,1680,1050,,,,,10,849,,,,,,,,,,,,,,,,,B,174,star,1,0,,,,,,,,,,,,,,,,switch,letter,lettSwt,d,0.1124,Hi,,,,,,2,,,,,,space,2.0212,low,0,0,0,0,1,,,,,,,,,
294301,2022-09-30_12h37.38.767,vts_reward_expectancy,2022.2.4,MacIntel,60.0024001,Chrome,1680,1050,,,,,1,850,,,,,,,,,,,,,,,,,Y,125,hexagon,1,0,,,,,,,,,,,,,,,,switch,number,numSwt,j,0.0441,Lo,,,,,,2,,,,,,,,low,1,0,1,0,1,,,,,,,,,
294301,2022-09-30_12h37.38.767,vts_reward_expectancy,2022.2.4,MacIntel,60.0024001,Chrome,1680,1050,,,,,0,850,,,,,,,,,,,,,,,,,D,167,star,0,0,,,,,,,,,,,,,,,,switch,letter,NA,f,0.0525,Lo,,,,,,2,,,,,,,,low,2,0,2,0,1,,,,,,,,,
294301,2022-09-30_12h37.38.767,vts_reward_expectancy,2022.2.4,MacIntel,60.0024001,Chrome,1680,1050,,,,,0,850,,,,,,,,,,,,,,,,,H,132,hexagon,0,1,,,,,,,,,,,,,,,,switch,number,NA,k,0.109,Lo,,,,,,2,,,,,,,,low,3,0,3,0,1,,,,,,,,,
294301,2022-09-30_12h37.38.767,vts_reward_expectancy,2022.2.4,MacIntel,60.0024001,Chrome,1680,1050,,,,,1,851,,,,,,,,,,,,,,,,,F,146,star,1,1,,,,,,,,,,,,,,,,repeat,number,numRpt,j,0.5386,Hi,,,,,,2,,,,,,,,low,4,0,4,0,1,,,,,,,,,
294301,2022-09-30_12h37.38.767,vts_reward_expectancy,2022.2.4,MacIntel,60.0024001,Chrome,1680,1050,,,,,0,851,,,,,,,,,,,,,,,,,S,139,hexagon,0,0,,,,,,,,,,,,,,,,repeat,number,NA,k,0.2773,Hi,,,,,,2,,,,,,,,low,5,0,5,0,1,,,,,,,,,
294301,2022-09-30_12h37.38.767,vts_reward_expectancy,2022.2.4,MacIntel,60.0024001,Chrome,1680,1050,,,,,1,852,,,,,,,,,,,,,,,,,W,160,star,1,1,,,,,,,,,,,,,,,,switch,letter,lettSwt,f,0.3747,Hi,,,,,,2,,,,,,,,low,6,0,6,0,1,,,,,,,,,
294301,2022-09-30_12h37.38.767,vts_reward_expectancy,2022.2.4,MacIntel,60.0024001,Chrome,1680,1050,,,,,1,853,,,,,,,,,,,,,,,,,U,181,hexagon,1,0,,,,,,,,,,,,,,,,switch,number,numSwt,k,0.1064,Lo,,,,,,2,,,,,,,,low,7,0,7,0,1,,,,,,,,,
294301,2022-09-30_12h37.38.767,vts_reward_expectancy,2022.2.4,MacIntel,60.0024001,Chrome,1680,1050,,,,,0,853,,,,,,,,,,,,,,,,,B,174,star,0,0,,,,,,,,,,,,,,,,repeat,number,NA,j,0.2744,Lo,,,,,,2,,,,,,,,low,8,0,8,0,1,,,,,,,,,
294301,2022-09-30_12h37.38.767,vts_reward_expectancy,2022.2.4,MacIntel,60.0024001,Chrome,1680,1050,,,,,0,853,,,,,,,,,,,,,,,,,Y,125,hexagon,0,1,,,,,,,,,,,,,,,,repeat,number,NA,k,0.2752,Lo,,,,,,2,,,,,,,,low,9,0,9,0,1,,,,,,,,,
294301,2022-09-30_12h37.38.767,vts_reward_expectancy,2022.2.4,MacIntel,60.0024001,Chrome,1680,1050,,,,,0,853,,,,,,,,,,,,,,,,,D,167,star,0,1,,,,,,,,,,,,,,,,repeat,number,NA,j,0.2389,Lo,,,,,,2,,,,,,,,low,10,0,10,0,1,,,,,,,,,
294301,2022-09-30_12h37.38.767,vts_reward_expectancy,2022.2.4,MacIntel,60.0024001,Chrome,1680,1050,,,,,0,853,,,,,,,,,,,,,,,,,H,132,hexagon,0,1,,,,,,,,,,,,,,,,repeat,number,NA,k,0.369,Lo,,,,,,2,,,,,,,,low,11,0,11,0,1,,,,,,,,,
294301,2022-09-30_12h37.38.767,vts_reward_expectancy,2022.2.4,MacIntel,60.0024001,Chrome,1680,1050,,,,,0,853,,,,,,,,,,,,,,,,,F,146,hexagon,0,1,,,,,,,,,,,,,,,,switch,letter,NA,f,0.1287,Lo,,,,,,2,,,,,,,,low,12,0,12,0,1,,,,,,,,,
294301,2022-09-30_12h37.38.767,vts_reward_expectancy,2022.2.4,MacIntel,60.0024001,Chrome,1680,1050,,,,,0,853,,,,,,,,,,,,,,,,,S,139,star,1,1,,,,,,,,,,,,,,,,switch,number,numSwt,j,1.1184,Hi,,,,,,2,,,,,,,,low,13,0,13,0,1,,,,,,,,,
294301,2022-09-30_12h37.38.767,vts_reward_expectancy,2022.2.4,MacIntel,60.0024001,Chrome,1680,1050,,,,,1,854,,,,,,,,,,,,,,,,,W,160,hexagon,1,0,,,,,,,,,,,,,,,,repeat,number,numRpt,k,0.5663,Lo,,,,,,2,,,,,,,,low,14,0,14,0,1,,,,,,,,,
294301,2022-09-30_12h37.38.767,vts_reward_expectancy,2022.2.4,MacIntel,60.0024001,Chrome,1680,1050,,,,,10,864,,,,,,,,,,,,,,,,,U,181,star,1,0,,,,,,,,,,,,,,,,repeat,number,numRpt,k,0.6455,Hi,,,,,,2,,,,,,,,low,15,0,15,0,1,,,,,,,,,
294301,2022-09-30_12h37.38.767,vts_reward_expectancy,2022.2.4,MacIntel,60.0024001,Chrome,1680,1050,,,,,1,865,,,,,,,,,,,,,,,,,Y,132,hexagon,1,0,,,,,,,,,,,,,,,,repeat,number,numRpt,j,0.8036,Lo,,,,,,2,,,,,,,,low,16,0,16,0,1,,,,,,,,,
294301,2022-09-30_12h37.38.767,vts_reward_expectancy,2022.2.4,MacIntel,60.0024001,Chrome,1680,1050,,,,,0,865,,,,,,,,,,,,,,,,,F,125,star,1,0,,,,,,,,,,,,,,,,repeat,number,numRpt,j,0.852,Hi,,,,,,2,,,,,,,,low,17,0,17,0,1,,,,,,,,,
294301,2022-09-30_12h37.38.767,vts_reward_expectancy,2022.2.4,MacIntel,60.0024001,Chrome,1680,1050,,,,,0,865,,,,,,,,,,,,,,,,,S,181,star,1,0,,,,,,,,,,,,,,,,repeat,number,numRpt,k,0.8036,Hi,,,,,,2,,,,,,,,low,18,0,18,0,1,,,,,,,,,
294301,2022-09-30_12h37.38.767,vts_reward_expectancy,2022.2.4,MacIntel,60.0024001,Chrome,1680,1050,,,,,1,866,,,,,,,,,,,,,,,,,B,167,hexagon,1,0,,,,,,,,,,,,,,,,repeat,number,numRpt,k,0.8763,Lo,,,,,,2,,,,,,,,low,19,0,19,0,1,,,,,,,,,
294301,2022-09-30_12h37.38.767,vts_reward_expectancy,2022.2.4,MacIntel,60.0024001,Chrome,1680,1050,,,,,10,876,,,,,,,,,,,,,,,,,U,139,hexagon,1,0,,,,,,,,,,,,,,,,repeat,number,numRpt,j,1.3692,Lo,,,,,,2,,,,,,,,low,20,0,20,0,1,,,,,,,,,
294301,2022-09-30_12h37.38.767,vts_reward_expectancy,2022.2.4,MacIntel,60.0024001,Chrome,1680,1050,,,,,0,876,,,,,,,,,,,,,,,,,W,146,star,1,0,,,,,,,,,,,,,,,,repeat,number,numRpt,j,0.8233,Hi,,,,,,2,,,,,,,,low,21,0,21,0,1,,,,,,,,,
294301,2022-09-30_12h37.38.767,vts_reward_expectancy,2022.2.4,MacIntel,60.0024001,Chrome,1680,1050,,,,,0,876,,,,,,,,,,,,,,,,,H,174,star,0,0,,,,,,,,,,,,,,,,repeat,number,NA,j,2.0836,Hi,,,,,,2,,,,,,,,low,22,0,22,0,1,,,,,,,,,
294301,2022-09-30_12h37.38.767,vts_reward_expectancy,2022.2.4,MacIntel,60.0024001,Chrome,1680,1050,,,,,0,876,,,,,,,,,,,,,,,,,D,160,hexagon,0,1,,,,,,,,,,,,,,,,repeat,number,NA,j,1.0281,Hi,,,,,,2,,,,,,,,low,23,0,23,0,1,,,,,,,,,
294301,2022-09-30_12h37.38.767,vts_reward_expectancy,2022.2.4,MacIntel,60.0024001,Chrome,1680,1050,,,,,0,876,,,,,,,,,,,,,,,,,W,181,hexagon,0,1,,,,,,,,,,,,,,,,repeat,number,NA,j,1.6353,Hi,,,,,,2,,,,,,,,low,24,0,24,0,1,,,,,,,,,
294301,2022-09-30_12h37.38.767,vts_reward_expectancy,2022.2.4,MacIntel,60.0024001,Chrome,1680,1050,,,,,0,876,,,,,,,,,,,,,,,,,B,132,star,0,1,,,,,,,,,,,,,,,,repeat,number,NA,k,1.5759,Hi,,,,,,2,,,,,,,,low,25,0,25,0,1,,,,,,,,,
294301,2022-09-30_12h37.38.767,vts_reward_expectancy,2022.2.4,MacIntel,60.0024001,Chrome,1680,1050,,,,,0,876,,,,,,,,,,,,,,,,,U,174,hexagon,0,1,,,,,,,,,,,,,,,,repeat,number,NA,j,0.8833,Hi,,,,,,2,,,,,,,,low,26,0,26,0,1,,,,,,,,,
294301,2022-09-30_12h37.38.767,vts_reward_expectancy,2022.2.4,MacIntel,60.0024001,Chrome,1680,1050,,,,,0,876,,,,,,,,,,,,,,,,,D,167,star,-1,1,,,,,,,,,,,,,,,,switch,no_choice,NA,,,Hi,,,,,,2,,,,,,,,low,27,0,27,0,1,,,,,,,,,
294301,2022-09-30_12h37.38.767,vts_reward_expectancy,2022.2.4,MacIntel,60.0024001,Chrome,1680,1050,,,,,0,876,,,,,,,,,,,,,,,,,S,125,star,1,0,,,,,,,,,,,,,,,,switch,number,numSwt,j,1.2555,Hi,,,,,,2,,,,,,,,low,28,0,28,0,1,,,,,,,,,
294301,2022-09-30_12h37.38.767,vts_reward_expectancy,2022.2.4,MacIntel,60.0024001,Chrome,1680,1050,,,,,1,877,,,,,,,,,,,,,,,,,Y,160,hexagon,1,0,,,,,,,,,,,,,,,,repeat,number,numRpt,k,0.6098,Lo,,,,,,2,,,,,,,,low,29,0,29,0,1,,,,,,,,,
294301,2022-09-30_12h37.38.767,vts_reward_expectancy,2022.2.4,MacIntel,60.0024001,Chrome,1680,1050,,,,,0,877,,,,,,,,,,,,,,,,,H,139,star,1,0,,,,,,,,,,,,,,,,repeat,number,numRpt,j,0.7094,Hi,,,,,,2,,,,,,,,low,30,0,30,0,1,,,,,,,,,
294301,2022-09-30_12h37.38.767,vts_reward_expectancy,2022.2.4,MacIntel,60.0024001,Chrome,1680,1050,,,,,10,887,,,,,,,,,,,,,,,,,F,146,hexagon,1,0,,,,,,,,,,,,,,,,repeat,number,numRpt,j,1.2365,Lo,,,,,,2,,,,,,,,low,31,0,31,0,1,,,,,,,,,
294301,2022-09-30_12h37.38.767,vts_reward_expectancy,2022.2.4,MacIntel,60.0024001,Chrome,1680,1050,,,,,10,897,,,,,,,,,,,,,,,,,W,167,hexagon,1,0,,,,,,,,,,,,,,,,repeat,number,numRpt,k,1.0035,Lo,,,,,,3,,,,,,space,0.789,low,0,0,0,0,1,,,,,,,,,
294301,2022-09-30_12h37.38.767,vts_reward_expectancy,2022.2.4,MacIntel,60.0024001,Chrome,1680,1050,,,,,0,897,,,,,,,,,,,,,,,,,U,160,star,0,0,,,,,,,,,,,,,,,,repeat,number,NA,j,1.1192,Lo,,,,,,3,,,,,,,,low,1,0,1,0,1,,,,,,,,,
294301,2022-09-30_12h37.38.767,vts_reward_expectancy,2022.2.4,MacIntel,60.0024001,Chrome,1680,1050,,,,,10,907,,,,,,,,,,,,,,,,,D,174,hexagon,1,1,,,,,,,,,,,,,,,,repeat,number,numRpt,k,0.6534,Lo,,,,,,3,,,,,,,,low,2,0,2,0,1,,,,,,,,,
294301,2022-09-30_12h37.38.767,vts_reward_expectancy,2022.2.4,MacIntel,60.0024001,Chrome,1680,1050,,,,,0,907,,,,,,,,,,,,,,,,,H,146,star,1,0,,,,,,,,,,,,,,,,repeat,number,numRpt,j,0.8586,Hi,,,,,,3,,,,,,,,low,3,0,3,0,1,,,,,,,,,
294301,2022-09-30_12h37.38.767,vts_reward_expectancy,2022.2.4,MacIntel,60.0024001,Chrome,1680,1050,,,,,10,917,,,,,,,,,,,,,,,,,Y,125,hexagon,1,0,,,,,,,,,,,,,,,,repeat,number,numRpt,j,1.019,Lo,,,,,,3,,,,,,,,low,4,0,4,0,1,,,,,,,,,
294301,2022-09-30_12h37.38.767,vts_reward_expectancy,2022.2.4,MacIntel,60.0024001,Chrome,1680,1050,,,,,0,917,,,,,,,,,,,,,,,,,B,181,star,1,0,,,,,,,,,,,,,,,,repeat,number,numRpt,k,0.8105,Hi,,,,,,3,,,,,,,,low,5,0,5,0,1,,,,,,,,,
294301,2022-09-30_12h37.38.767,vts_reward_expectancy,2022.2.4,MacIntel,60.0024001,Chrome,1680,1050,,,,,0,917,,,,,,,,,,,,,,,,,F,132,star,1,0,,,,,,,,,,,,,,,,switch,letter,lettSwt,d,0.6344,Hi,,,,,,3,,,,,,,,low,6,0,6,0,1,,,,,,,,,
294301,2022-09-30_12h37.38.767,vts_reward_expectancy,2022.2.4,MacIntel,60.0024001,Chrome,1680,1050,,,,,0,917,,,,,,,,,,,,,,,,,S,139,hexagon,0,0,,,,,,,,,,,,,,,,repeat,letter,NA,d,1.3111,Hi,,,,,,3,,,,,,,,low,7,0,7,0,1,,,,,,,,,
294301,2022-09-30_12h37.38.767,vts_reward_expectancy,2022.2.4,MacIntel,60.0024001,Chrome,1680,1050,,,,,10,927,,,,,,,,,,,,,,,,,W,167,hexagon,1,1,,,,,,,,,,,,,,,,repeat,letter,lettRpt,f,0.6726,Lo,,,,,,3,,,,,,,,low,8,0,8,0,1,,,,,,,,,
294301,2022-09-30_12h37.38.767,vts_reward_expectancy,2022.2.4,MacIntel,60.0024001,Chrome,1680,1050,,,,,10,937,,,,,,,,,,,,,,,,,U,160,star,1,0,,,,,,,,,,,,,,,,repeat,letter,lettRpt,f,0.6992,Hi,,,,,,3,,,,,,,,low,9,0,9,0,1,,,,,,,,,
294301,2022-09-30_12h37.38.767,vts_reward_expectancy,2022.2.4,MacIntel,60.0024001,Chrome,1680,1050,,,,,0,937,,,,,,,,,,,,,,,,,D,174,star,0,0,,,,,,,,,,,,,,,,repeat,letter,NA,f,1.2378,Hi,,,,,,3,,,,,,,,low,10,0,10,0,1,,,,,,,,,
294301,2022-09-30_12h37.38.767,vts_reward_expectancy,2022.2.4,MacIntel,60.0024001,Chrome,1680,1050,,,,,0,937,,,,,,,,,,,,,,,,,H,146,hexagon,0,1,,,,,,,,,,,,,,,,repeat,letter,NA,f,1.0519,Hi,,,,,,3,,,,,,,,low,11,0,11,0,1,,,,,,,,,
294301,2022-09-30_12h37.38.767,vts_reward_expectancy,2022.2.4,MacIntel,60.0024001,Chrome,1680,1050,,,,,0,937,,,,,,,,,,,,,,,,,Y,125,star,1,1,,,,,,,,,,,,,,,,switch,number,numSwt,j,0.805,Hi,,,,,,3,,,,,,,,low,12,0,12,0,1,,,,,,,,,
294301,2022-09-30_12h37.38.767,vts_reward_expectancy,2022.2.4,MacIntel,60.0024001,Chrome,1680,1050,,,,,1,938,,,,,,,,,,,,,,,,,B,181,hexagon,1,0,,,,,,,,,,,,,,,,repeat,number,numRpt,k,0.6443,Lo,,,,,,3,,,,,,,,low,13,0,13,0,1,,,,,,,,,
294301,2022-09-30_12h37.38.767,vts_reward_expectancy,2022.2.4,MacIntel,60.0024001,Chrome,1680,1050,,,,,0,938,,,,,,,,,,,,,,,,,F,132,hexagon,0,0,,,,,,,,,,,,,,,,repeat,number,NA,k,0.7342,Lo,,,,,,3,,,,,,,,low,14,0,14,0,1,,,,,,,,,
294301,2022-09-30_12h37.38.767,vts_reward_expectancy,2022.2.4,MacIntel,60.0024001,Chrome,1680,1050,,,,,0,938,,,,,,,,,,,,,,,,,S,139,star,0,1,,,,,,,,,,,,,,,,switch,letter,NA,d,1.2027,Lo,,,,,,3,,,,,,,,low,15,0,15,0,1,,,,,,,,,
294301,2022-09-30_12h37.38.767,vts_reward_expectancy,2022.2.4,MacIntel,60.0024001,Chrome,1680,1050,,,,,0,938,,,,,,,,,,,,,,,,,Y,167,star,1,1,,,,,,,,,,,,,,,,switch,number,numSwt,k,1.1751,Hi,,,,,,3,,,,,,,,low,16,0,16,0,1,,,,,,,,,
294301,2022-09-30_12h37.38.767,vts_reward_expectancy,2022.2.4,MacIntel,60.0024001,Chrome,1680,1050,,,,,0,938,,,,,,,,,,,,,,,,,F,181,hexagon,0,0,,,,,,,,,,,,,,,,repeat,number,NA,j,1.5515,Hi,,,,,,3,,,,,,,,low,17,0,17,0,1,,,,,,,,,
294301,2022-09-30_12h37.38.767,vts_reward_expectancy,2022.2.4,MacIntel,60.0024001,Chrome,1680,1050,,,,,10,948,,,,,,,,,,,,,,,,,W,160,hexagon,1,1,,,,,,,,,,,,,,,,repeat,number,numRpt,k,0.6156,Lo,,,,,,3,,,,,,,,low,18,0,18,0,1,,,,,,,,,
294301,2022-09-30_12h37.38.767,vts_reward_expectancy,2022.2.4,MacIntel,60.0024001,Chrome,1680,1050,,,,,0,948,,,,,,,,,,,,,,,,,B,174,star,1,0,,,,,,,,,,,,,,,,repeat,number,numRpt,k,0.7391,Hi,,,,,,3,,,,,,,,low,19,0,19,0,1,,,,,,,,,
294301,2022-09-30_12h37.38.767,vts_reward_expectancy,2022.2.4,MacIntel,60.0024001,Chrome,1680,1050,,,,,10,958,,,,,,,,,,,,,,,,,S,139,star,1,0,,,,,,,,,,,,,,,,repeat,number,numRpt,j,0.2115,Hi,,,,,,3,,,,,,,,low,20,0,20,0,1,,,,,,,,,
294301,2022-09-30_12h37.38.767,vts_reward_expectancy,2022.2.4,MacIntel,60.0024001,Chrome,1680,1050,,,,,1,959,,,,,,,,,,,,,,,,,H,125,hexagon,1,0,,,,,,,,,,,,,,,,repeat,number,numRpt,j,1.3409,Lo,,,,,,3,,,,,,,,low,21,0,21,0,1,,,,,,,,,
294301,2022-09-30_12h37.38.767,vts_reward_expectancy,2022.2.4,MacIntel,60.0024001,Chrome,1680,1050,,,,,1,960,,,,,,,,,,,,,,,,,U,146,hexagon,1,0,,,,,,,,,,,,,,,,repeat,number,numRpt,j,0.5439,Lo,,,,,,3,,,,,,,,low,22,0,22,0,1,,,,,,,,,
294301,2022-09-30_12h37.38.767,vts_reward_expectancy,2022.2.4,MacIntel,60.0024001,Chrome,1680,1050,,,,,0,960,,,,,,,,,,,,,,,,,D,132,star,1,0,,,,,,,,,,,,,,,,repeat,number,numRpt,j,0.825,Hi,,,,,,3,,,,,,,,low,23,0,23,0,1,,,,,,,,,
294301,2022-09-30_12h37.38.767,vts_reward_expectancy,2022.2.4,MacIntel,60.0024001,Chrome,1680,1050,,,,,10,970,,,,,,,,,,,,,,,,,B,160,hexagon,1,0,,,,,,,,,,,,,,,,repeat,number,numRpt,k,0.7154,Lo,,,,,,3,,,,,,,,low,24,0,24,0,1,,,,,,,,,
294301,2022-09-30_12h37.38.767,vts_reward_expectancy,2022.2.4,MacIntel,60.0024001,Chrome,1680,1050,,,,,10,980,,,,,,,,,,,,,,,,,Y,174,star,1,0,,,,,,,,,,,,,,,,repeat,number,numRpt,k,0.685,Hi,,,,,,3,,,,,,,,low,25,0,25,0,1,,,,,,,,,
294301,2022-09-30_12h37.38.767,vts_reward_expectancy,2022.2.4,MacIntel,60.0024001,Chrome,1680,1050,,,,,10,990,,,,,,,,,,,,,,,,,W,125,hexagon,1,0,,,,,,,,,,,,,,,,switch,letter,lettSwt,f,0.7641,Lo,,,,,,3,,,,,,,,low,26,0,26,0,1,,,,,,,,,
294301,2022-09-30_12h37.38.767,vts_reward_expectancy,2022.2.4,MacIntel,60.0024001,Chrome,1680,1050,,,,,1,991,,,,,,,,,,,,,,,,,D,181,star,1,0,,,,,,,,,,,,,,,,repeat,letter,lettRpt,d,0.7363,Hi,,,,,,3,,,,,,,,low,27,0,27,0,1,,,,,,,,,
294301,2022-09-30_12h37.38.767,vts_reward_expectancy,2022.2.4,MacIntel,60.0024001,Chrome,1680,1050,,,,,0,991,,,,,,,,,,,,,,,,,F,132,hexagon,0,0,,,,,,,,,,,,,,,,repeat,letter,NA,f,1.0348,Hi,,,,,,3,,,,,,,,low,28,0,28,0,1,,,,,,,,,
294301,2022-09-30_12h37.38.767,vts_reward_expectancy,2022.2.4,MacIntel,60.0024001,Chrome,1680,1050,,,,,0,991,,,,,,,,,,,,,,,,,U,167,star,0,1,,,,,,,,,,,,,,,,repeat,letter,NA,d,0.6939,Hi,,,,,,3,,,,,,,,low,29,0,29,0,1,,,,,,,,,
294301,2022-09-30_12h37.38.767,vts_reward_expectancy,2022.2.4,MacIntel,60.0024001,Chrome,1680,1050,,,,,0,991,,,,,,,,,,,,,,,,,S,139,star,0,1,,,,,,,,,,,,,,,,repeat,letter,NA,d,0.7872,Hi,,,,,,3,,,,,,,,low,30,0,30,0,1,,,,,,,,,
294301,2022-09-30_12h37.38.767,vts_reward_expectancy,2022.2.4,MacIntel,60.0024001,Chrome,1680,1050,,,,,10,1001,,,,,,,,,,,,,,,,,H,146,hexagon,1,1,,,,,,,,,,,,,,,,repeat,letter,lettRpt,d,0.9793,Lo,,,,,,3,,,,,,,,low,31,0,31,0,1,,,,,,,,,
294301,2022-09-30_12h37.38.767,vts_reward_expectancy,2022.2.4,MacIntel,60.0024001,Chrome,1680,1050,,,,,10,1011,,,,,,,,,,,,,,,,,B,132,circle,1,0,,,,,,,,,,,,,,,,repeat,letter,lettRpt,d,0.0728,Lo,,,,,,4,,,,,,space,1.0924,high,0,0,0,0,1,,,,,,,,,
294301,2022-09-30_12h37.38.767,vts_reward_expectancy,2022.2.4,MacIntel,60.0024001,Chrome,1680,1050,,,,,1,1012,,,,,,,,,,,,,,,,,F,174,triangle,1,0,,,,,,,,,,,,,,,,repeat,letter,lettRpt,d,0.0004,Hi,,,,,,4,,,,,,,,high,1,0,1,0,1,,,,,,,,,
294301,2022-09-30_12h37.38.767,vts_reward_expectancy,2022.2.4,MacIntel,60.0024001,Chrome,1680,1050,,,,,1,1013,,,,,,,,,,,,,,,,,Y,146,circle,1,0,,,,,,,,,,,,,,,,repeat,letter,lettRpt,f,0.0004,Lo,,,,,,4,,,,,,,,high,2,0,2,0,1,,,,,,,,,
294301,2022-09-30_12h37.38.767,vts_reward_expectancy,2022.2.4,MacIntel,60.0024001,Chrome,1680,1050,,,,,1,1014,,,,,,,,,,,,,,,,,D,160,triangle,1,0,,,,,,,,,,,,,,,,repeat,letter,lettRpt,d,0.0094,Hi,,,,,,4,,,,,,,,high,3,0,3,0,1,,,,,,,,,
294301,2022-09-30_12h37.38.767,vts_reward_expectancy,2022.2.4,MacIntel,60.0024001,Chrome,1680,1050,,,,,10,1024,,,,,,,,,,,,,,,,,H,181,triangle,1,0,,,,,,,,,,,,,,,,switch,number,numSwt,k,0.0006,Hi,,,,,,4,,,,,,,,high,4,0,4,0,1,,,,,,,,,
294301,2022-09-30_12h37.38.767,vts_reward_expectancy,2022.2.4,MacIntel,60.0024001,Chrome,1680,1050,,,,,0,1024,,,,,,,,,,,,,,,,,W,167,circle,0,0,,,,,,,,,,,,,,,,switch,letter,NA,d,0.0117,Hi,,,,,,4,,,,,,,,high,5,0,5,0,1,,,,,,,,,
294301,2022-09-30_12h37.38.767,vts_reward_expectancy,2022.2.4,MacIntel,60.0024001,Chrome,1680,1050,,,,,0,1024,,,,,,,,,,,,,,,,,U,125,circle,0,1,,,,,,,,,,,,,,,,repeat,letter,NA,d,0.0555,Hi,,,,,,4,,,,,,,,high,6,0,6,0,1,,,,,,,,,
294301,2022-09-30_12h37.38.767,vts_reward_expectancy,2022.2.4,MacIntel,60.0024001,Chrome,1680,1050,,,,,10,1034,,,,,,,,,,,,,,,,,S,139,triangle,1,1,,,,,,,,,,,,,,,,switch,number,numSwt,j,0.0166,Hi,,,,,,4,,,,,,,,high,7,0,7,0,1,,,,,,,,,
294301,2022-09-30_12h37.38.767,vts_reward_expectancy,2022.2.4,MacIntel,60.0024001,Chrome,1680,1050,,,,,1,1035,,,,,,,,,,,,,,,,,B,132,circle,1,0,,,,,,,,,,,,,,,,repeat,number,numRpt,j,0.0363,Lo,,,,,,4,,,,,,,,high,8,0,8,0,1,,,,,,,,,
294301,2022-09-30_12h37.38.767,vts_reward_expectancy,2022.2.4,MacIntel,60.0024001,Chrome,1680,1050,,,,,0,1035,,,,,,,,,,,,,,,,,F,174,triangle,0,0,,,,,,,,,,,,,,,,switch,letter,NA,f,0.0949,Lo,,,,,,4,,,,,,,,high,9,0,9,0,1,,,,,,,,,
294301,2022-09-30_12h37.38.767,vts_reward_expectancy,2022.2.4,MacIntel,60.0024001,Chrome,1680,1050,,,,,1,1036,,,,,,,,,,,,,,,,,Y,146,circle,1,1,,,,,,,,,,,,,,,,switch,number,numSwt,j,0.0007,Lo,,,,,,4,,,,,,,,high,10,0,10,0,1,,,,,,,,,
294301,2022-09-30_12h37.38.767,vts_reward_expectancy,2022.2.4,MacIntel,60.0024001,Chrome,1680,1050,,,,,10,1046,,,,,,,,,,,,,,,,,D,160,triangle,1,0,,,,,,,,,,,,,,,,repeat,number,numRpt,k,0.0977,Hi,,,,,,4,,,,,,,,high,11,0,11,0,1,,,,,,,,,
294301,2022-09-30_12h37.38.767,vts_reward_expectancy,2022.2.4,MacIntel,60.0024001,Chrome,1680,1050,,,,,10,1056,,,,,,,,,,,,,,,,,H,181,circle,1,0,,,,,,,,,,,,,,,,repeat,number,numRpt,k,0.0659,Lo,,,,,,4,,,,,,,,high,12,0,12,0,1,,,,,,,,,
294301,2022-09-30_12h37.38.767,vts_reward_expectancy,2022.2.4,MacIntel,60.0024001,Chrome,1680,1050,,,,,0,1056,,,,,,,,,,,,,,,,,W,167,triangle,0,0,,,,,,,,,,,,,,,,switch,letter,NA,d,0.0545,Lo,,,,,,4,,,,,,,,high,13,0,13,0,1,,,,,,,,,
294301,2022-09-30_12h37.38.767,vts_reward_expectancy,2022.2.4,MacIntel,60.0024001,Chrome,1680,1050,,,,,0,1056,,,,,,,,,,,,,,,,,U,125,triangle,0,1,,,,,,,,,,,,,,,,repeat,letter,NA,d,0.0413,Lo,,,,,,4,,,,,,,,high,14,0,14,0,1,,,,,,,,,
294301,2022-09-30_12h37.38.767,vts_reward_expectancy,2022.2.4,MacIntel,60.0024001,Chrome,1680,1050,,,,,1,1057,,,,,,,,,,,,,,,,,S,139,circle,1,1,,,,,,,,,,,,,,,,repeat,letter,lettRpt,f,0.0077,Lo,,,,,,4,,,,,,,,high,15,0,15,0,1,,,,,,,,,
294301,2022-09-30_12h37.38.767,vts_reward_expectancy,2022.2.4,MacIntel,60.0024001,Chrome,1680,1050,,,,,0,1057,,,,,,,,,,,,,,,,,Y,132,circle,0,0,,,,,,,,,,,,,,,,switch,number,NA,k,0.0004,Lo,,,,,,4,,,,,,,,high,16,0,16,0,1,,,,,,,,,
294301,2022-09-30_12h37.38.767,vts_reward_expectancy,2022.2.4,MacIntel,60.0024001,Chrome,1680,1050,,,,,0,1057,,,,,,,,,,,,,,,,,U,167,triangle,0,1,,,,,,,,,,,,,,,,switch,letter,NA,d,0.0186,Lo,,,,,,4,,,,,,,,high,17,0,17,0,1,,,,,,,,,
294301,2022-09-30_12h37.38.767,vts_reward_expectancy,2022.2.4,MacIntel,60.0024001,Chrome,1680,1050,,,,,10,1067,,,,,,,,,,,,,,,,,B,139,circle,1,1,,,,,,,,,,,,,,,,repeat,letter,lettRpt,d,0.1024,Lo,,,,,,4,,,,,,,,high,18,0,18,0,1,,,,,,,,,
294301,2022-09-30_12h37.38.767,vts_reward_expectancy,2022.2.4,MacIntel,60.0024001,Chrome,1680,1050,,,,,1,1068,,,,,,,,,,,,,,,,,F,174,triangle,1,0,,,,,,,,,,,,,,,,switch,number,numSwt,k,0.085,Hi,,,,,,4,,,,,,,,high,19,0,19,0,1,,,,,,,,,
294301,2022-09-30_12h37.38.767,vts_reward_expectancy,2022.2.4,MacIntel,60.0024001,Chrome,1680,1050,,,,,0,1068,,,,,,,,,,,,,,,,,W,181,circle,0,0,,,,,,,,,,,,,,,,switch,letter,NA,d,0.0209,Hi,,,,,,4,,,,,,,,high,20,0,20,0,1,,,,,,,,,
294301,2022-09-30_12h37.38.767,vts_reward_expectancy,2022.2.4,MacIntel,60.0024001,Chrome,1680,1050,,,,,0,1068,,,,,,,,,,,,,,,,,S,160,triangle,0,1,,,,,,,,,,,,,,,,repeat,letter,NA,d,0.0179,Hi,,,,,,4,,,,,,,,high,21,0,21,0,1,,,,,,,,,
294301,2022-09-30_12h37.38.767,vts_reward_expectancy,2022.2.4,MacIntel,60.0024001,Chrome,1680,1050,,,,,1,1069,,,,,,,,,,,,,,,,,D,125,circle,1,1,,,,,,,,,,,,,,,,switch,number,numSwt,j,0.0193,Lo,,,,,,4,,,,,,,,high,22,0,22,0,1,,,,,,,,,
294301,2022-09-30_12h37.38.767,vts_reward_expectancy,2022.2.4,MacIntel,60.0024001,Chrome,1680,1050,,,,,1,1070,,,,,,,,,,,,,,,,,H,146,triangle,1,0,,,,,,,,,,,,,,,,switch,letter,lettSwt,d,0.0244,Hi,,,,,,4,,,,,,,,high,23,0,23,0,1,,,,,,,,,
294301,2022-09-30_12h37.38.767,vts_reward_expectancy,2022.2.4,MacIntel,60.0024001,Chrome,1680,1050,,,,,0,1070,,,,,,,,,,,,,,,,,H,132,triangle,0,0,,,,,,,,,,,,,,,,repeat,letter,NA,f,0.0623,Hi,,,,,,4,,,,,,,,high,24,0,24,0,1,,,,,,,,,
294301,2022-09-30_12h37.38.767,vts_reward_expectancy,2022.2.4,MacIntel,60.0024001,Chrome,1680,1050,,,,,10,1080,,,,,,,,,,,,,,,,,Y,160,circle,1,1,,,,,,,,,,,,,,,,repeat,letter,lettRpt,f,0.0074,Lo,,,,,,4,,,,,,,,high,25,0,25,0,1,,,,,,,,,
294301,2022-09-30_12h37.38.767,vts_reward_expectancy,2022.2.4,MacIntel,60.0024001,Chrome,1680,1050,,,,,0,1080,,,,,,,,,,,,,,,,,W,174,triangle,0,0,,,,,,,,,,,,,,,,switch,number,NA,j,0.0286,Lo,,,,,,4,,,,,,,,high,26,0,26,0,1,,,,,,,,,
294301,2022-09-30_12h37.38.767,vts_reward_expectancy,2022.2.4,MacIntel,60.0024001,Chrome,1680,1050,,,,,0,1080,,,,,,,,,,,,,,,,,S,146,circle,0,1,,,,,,,,,,,,,,,,repeat,number,NA,k,0.0688,Lo,,,,,,4,,,,,,,,high,27,0,27,0,1,,,,,,,,,
294301,2022-09-30_12h37.38.767,vts_reward_expectancy,2022.2.4,MacIntel,60.0024001,Chrome,1680,1050,,,,,0,1080,,,,,,,,,,,,,,,,,B,181,circle,0,1,,,,,,,,,,,,,,,,switch,letter,NA,f,0.022,Lo,,,,,,4,,,,,,,,high,28,0,28,0,1,,,,,,,,,
294301,2022-09-30_12h37.38.767,vts_reward_expectancy,2022.2.4,MacIntel,60.0024001,Chrome,1680,1050,,,,,0,1080,,,,,,,,,,,,,,,,,U,125,triangle,0,1,,,,,,,,,,,,,,,,switch,number,NA,k,0.0342,Lo,,,,,,4,,,,,,,,high,29,0,29,0,1,,,,,,,,,
294301,2022-09-30_12h37.38.767,vts_reward_expectancy,2022.2.4,MacIntel,60.0024001,Chrome,1680,1050,,,,,0,1080,,,,,,,,,,,,,,,,,F,139,triangle,0,1,,,,,,,,,,,,,,,,repeat,number,NA,k,0.5753,Lo,,,,,,4,,,,,,,,high,30,0,30,0,1,,,,,,,,,
294301,2022-09-30_12h37.38.767,vts_reward_expectancy,2022.2.4,MacIntel,60.0024001,Chrome,1680,1050,,,,,0,1080,,,,,,,,,,,,,,,,,D,167,circle,0,1,,,,,,,,,,,,,,,,repeat,number,NA,j,1.0061,Lo,,,,,,4,,,,,,,,high,31,0,31,0,1,,,,,,,,,
294301,2022-09-30_12h37.38.767,vts_reward_expectancy,2022.2.4,MacIntel,60.0024001,Chrome,1680,1050,,,,,0,1080,,,,,,,,,,,,,,,,,H,174,star,0,1,,,,,,,,,,,,,,,,repeat,number,NA,j,0.1355,Lo,,,,,,5,,,,,,space,0.9722,low,0,0,0,0,1,,,,,,,,,
294301,2022-09-30_12h37.38.767,vts_reward_expectancy,2022.2.4,MacIntel,60.0024001,Chrome,1680,1050,,,,,1,1081,,,,,,,,,,,,,,,,,S,146,hexagon,1,1,,,,,,,,,,,,,,,,switch,letter,lettSwt,f,0.1528,Lo,,,,,,5,,,,,,,,low,1,0,1,0,1,,,,,,,,,
294301,2022-09-30_12h37.38.767,vts_reward_expectancy,2022.2.4,MacIntel,60.0024001,Chrome,1680,1050,,,,,0,1081,,,,,,,,,,,,,,,,,Y,160,star,0,0,,,,,,,,,,,,,,,,repeat,letter,NA,d,0.1693,Lo,,,,,,5,,,,,,,,low,2,0,2,0,1,,,,,,,,,
294301,2022-09-30_12h37.38.767,vts_reward_expectancy,2022.2.4,MacIntel,60.0024001,Chrome,1680,1050,,,,,0,1081,,,,,,,,,,,,,,,,,W,132,hexagon,0,1,,,,,,,,,,,,,,,,switch,number,NA,k,0.0603,Lo,,,,,,5,,,,,,,,low,3,0,3,0,1,,,,,,,,,
294301,2022-09-30_12h37.38.767,vts_reward_expectancy,2022.2.4,MacIntel,60.0024001,Chrome,1680,1050,,,,,0,1081,,,,,,,,,,,,,,,,,D,167,hexagon,0,1,,,,,,,,,,,,,,,,switch,letter,NA,f,0.0698,Lo,,,,,,5,,,,,,,,low,4,0,4,0,1,,,,,,,,,
294301,2022-09-30_12h37.38.767,vts_reward_expectancy,2022.2.4,MacIntel,60.0024001,Chrome,1680,1050,,,,,0,1081,,,,,,,,,,,,,,,,,F,181,star,0,1,,,,,,,,,,,,,,,,repeat,letter,NA,f,0.022,Lo,,,,,,5,,,,,,,,low,5,0,5,0,1,,,,,,,,,
294301,2022-09-30_12h37.38.767,vts_reward_expectancy,2022.2.4,MacIntel,60.0024001,Chrome,1680,1050,,,,,0,1081,,,,,,,,,,,,,,,,,U,125,star,0,1,,,,,,,,,,,,,,,,switch,number,NA,k,0.6881,Lo,,,,,,5,,,,,,,,low,6,0,6,0,1,,,,,,,,,
294301,2022-09-30_12h37.38.767,vts_reward_expectancy,2022.2.4,MacIntel,60.0024001,Chrome,1680,1050,,,,,10,1091,,,,,,,,,,,,,,,,,B,139,hexagon,1,1,,,,,,,,,,,,,,,,repeat,number,numRpt,j,0.8068,Lo,,,,,,5,,,,,,,,low,7,0,7,0,1,,,,,,,,,
294301,2022-09-30_12h37.38.767,vts_reward_expectancy,2022.2.4,MacIntel,60.0024001,Chrome,1680,1050,,,,,1,1092,,,,,,,,,,,,,,,,,H,174,hexagon,1,0,,,,,,,,,,,,,,,,repeat,number,numRpt,k,1.0543,Lo,,,,,,5,,,,,,,,low,8,0,8,0,1,,,,,,,,,
294301,2022-09-30_12h37.38.767,vts_reward_expectancy,2022.2.4,MacIntel,60.0024001,Chrome,1680,1050,,,,,0,1092,,,,,,,,,,,,,,,,,S,146,star,1,0,,,,,,,,,,,,,,,,repeat,number,numRpt,j,1.185,Hi,,,,,,5,,,,,,,,low,9,0,9,0,1,,,,,,,,,
294301,2022-09-30_12h37.38.767,vts_reward_expectancy,2022.2.4,MacIntel,60.0024001,Chrome,1680,1050,,,,,1,1093,,,,,,,,,,,,,,,,,Y,160,hexagon,1,0,,,,,,,,,,,,,,,,switch,letter,lettSwt,f,0.0377,Lo,,,,,,5,,,,,,,,low,10,0,10,0,1,,,,,,,,,
294301,2022-09-30_12h37.38.767,vts_reward_expectancy,2022.2.4,MacIntel,60.0024001,Chrome,1680,1050,,,,,0,1093,,,,,,,,,,,,,,,,,W,132,star,0,0,,,,,,,,,,,,,,,,switch,number,NA,k,0.0007,Lo,,,,,,5,,,,,,,,low,11,0,11,0,1,,,,,,,,,
294301,2022-09-30_12h37.38.767,vts_reward_expectancy,2022.2.4,MacIntel,60.0024001,Chrome,1680,1050,,,,,0,1093,,,,,,,,,,,,,,,,,D,167,star,0,1,,,,,,,,,,,,,,,,switch,letter,NA,f,0.0519,Lo,,,,,,5,,,,,,,,low,12,0,12,0,1,,,,,,,,,
294301,2022-09-30_12h37.38.767,vts_reward_expectancy,2022.2.4,MacIntel,60.0024001,Chrome,1680,1050,,,,,0,1093,,,,,,,,,,,,,,,,,F,181,hexagon,0,1,,,,,,,,,,,,,,,,switch,number,NA,j,0.31,Lo,,,,,,5,,,,,,,,low,13,0,13,0,1,,,,,,,,,
294301,2022-09-30_12h37.38.767,vts_reward_expectancy,2022.2.4,MacIntel,60.0024001,Chrome,1680,1050,,,,,0,1093,,,,,,,,,,,,,,,,,U,125,star,0,1,,,,,,,,,,,,,,,,switch,letter,NA,d,0.3732,Lo,,,,,,5,,,,,,,,low,14,0,14,0,1,,,,,,,,,
294301,2022-09-30_12h37.38.767,vts_reward_expectancy,2022.2.4,MacIntel,60.0024001,Chrome,1680,1050,,,,,1,1094,,,,,,,,,,,,,,,,,B,139,hexagon,1,1,,,,,,,,,,,,,,,,repeat,letter,lettRpt,d,0.7929,Lo,,,,,,5,,,,,,,,low,15,0,15,0,1,,,,,,,,,
294301,2022-09-30_12h37.38.767,vts_reward_expectancy,2022.2.4,MacIntel,60.0024001,Chrome,1680,1050,,,,,0,1094,,,,,,,,,,,,,,,,,Y,139,hexagon,-1,0,,,,,,,,,,,,,,,,switch,no_choice,NA,,,Lo,,,,,,5,,,,,,,,low,16,0,16,0,1,,,,,,,,,
294301,2022-09-30_12h37.38.767,vts_reward_expectancy,2022.2.4,MacIntel,60.0024001,Chrome,1680,1050,,,,,0,1094,,,,,,,,,,,,,,,,,B,174,star,0,0,,,,,,,,,,,,,,,,switch,letter,NA,f,0.0574,Lo,,,,,,5,,,,,,,,low,17,0,17,0,1,,,,,,,,,
294301,2022-09-30_12h37.38.767,vts_reward_expectancy,2022.2.4,MacIntel,60.0024001,Chrome,1680,1050,,,,,0,1094,,,,,,,,,,,,,,,,,D,167,star,0,1,,,,,,,,,,,,,,,,repeat,letter,NA,f,0.0006,Lo,,,,,,5,,,,,,,,low,18,0,18,0,1,,,,,,,,,
294301,2022-09-30_12h37.38.767,vts_reward_expectancy,2022.2.4,MacIntel,60.0024001,Chrome,1680,1050,,,,,1,1095,,,,,,,,,,,,,,,,,U,160,hexagon,1,1,,,,,,,,,,,,,,,,repeat,letter,lettRpt,f,1.8608,Lo,,,,,,5,,,,,,,,low,19,0,19,0,1,,,,,,,,,
294301,2022-09-30_12h37.38.767,vts_reward_expectancy,2022.2.4,MacIntel,60.0024001,Chrome,1680,1050,,,,,10,1105,,,,,,,,,,,,,,,,,H,181,hexagon,1,0,,,,,,,,,,,,,,,,repeat,letter,lettRpt,d,0.7193,Lo,,,,,,5,,,,,,,,low,20,0,20,0,1,,,,,,,,,
294301,2022-09-30_12h37.38.767,vts_reward_expectancy,2022.2.4,MacIntel,60.0024001,Chrome,1680,1050,,,,,0,1105,,,,,,,,,,,,,,,,,W,125,star,0,0,,,,,,,,,,,,,,,,switch,number,NA,k,0.0218,Lo,,,,,,5,,,,,,,,low,21,0,21,0,1,,,,,,,,,
294301,2022-09-30_12h37.38.767,vts_reward_expectancy,2022.2.4,MacIntel,60.0024001,Chrome,1680,1050,,,,,0,1105,,,,,,,,,,,,,,,,,F,132,hexagon,0,1,,,,,,,,,,,,,,,,switch,letter,NA,f,0.0454,Lo,,,,,,5,,,,,,,,low,22,0,22,0,1,,,,,,,,,
294301,2022-09-30_12h37.38.767,vts_reward_expectancy,2022.2.4,MacIntel,60.0024001,Chrome,1680,1050,,,,,0,1105,,,,,,,,,,,,,,,,,S,146,star,0,1,,,,,,,,,,,,,,,,repeat,letter,NA,d,0.6366,Lo,,,,,,5,,,,,,,,low,23,0,23,0,1,,,,,,,,,
294301,2022-09-30_12h37.38.767,vts_reward_expectancy,2022.2.4,MacIntel,60.0024001,Chrome,1680,1050,,,,,10,1115,,,,,,,,,,,,,,,,,H,139,hexagon,1,1,,,,,,,,,,,,,,,,repeat,letter,lettRpt,d,0.6418,Lo,,,,,,5,,,,,,,,low,24,0,24,0,1,,,,,,,,,
294301,2022-09-30_12h37.38.767,vts_reward_expectancy,2022.2.4,MacIntel,60.0024001,Chrome,1680,1050,,,,,0,1115,,,,,,,,,,,,,,,,,W,146,star,0,0,,,,,,,,,,,,,,,,repeat,letter,NA,d,0.3211,Lo,,,,,,5,,,,,,,,low,25,0,25,0,1,,,,,,,,,
294301,2022-09-30_12h37.38.767,vts_reward_expectancy,2022.2.4,MacIntel,60.0024001,Chrome,1680,1050,,,,,1,1116,,,,,,,,,,,,,,,,,U,160,hexagon,1,1,,,,,,,,,,,,,,,,repeat,letter,lettRpt,f,0.6697,Lo,,,,,,5,,,,,,,,low,26,0,26,0,1,,,,,,,,,
294301,2022-09-30_12h37.38.767,vts_reward_expectancy,2022.2.4,MacIntel,60.0024001,Chrome,1680,1050,,,,,0,1116,,,,,,,,,,,,,,,,,Y,167,star,0,0,,,,,,,,,,,,,,,,repeat,letter,NA,d,0.6407,Lo,,,,,,5,,,,,,,,low,27,0,27,0,1,,,,,,,,,
294301,2022-09-30_12h37.38.767,vts_reward_expectancy,2022.2.4,MacIntel,60.0024001,Chrome,1680,1050,,,,,0,1116,,,,,,,,,,,,,,,,,F,125,hexagon,0,1,,,,,,,,,,,,,,,,repeat,letter,NA,f,0.754,Lo,,,,,,5,,,,,,,,low,28,0,28,0,1,,,,,,,,,
294301,2022-09-30_12h37.38.767,vts_reward_expectancy,2022.2.4,MacIntel,60.0024001,Chrome,1680,1050,,,,,0,1116,,,,,,,,,,,,,,,,,D,174,star,1,1,,,,,,,,,,,,,,,,repeat,letter,lettRpt,d,0.7572,Hi,,,,,,5,,,,,,,,low,29,0,29,0,1,,,,,,,,,
294301,2022-09-30_12h37.38.767,vts_reward_expectancy,2022.2.4,MacIntel,60.0024001,Chrome,1680,1050,,,,,0,1116,,,,,,,,,,,,,,,,,S,181,star,0,0,,,,,,,,,,,,,,,,repeat,letter,NA,d,0.675,Hi,,,,,,5,,,,,,,,low,30,0,30,0,1,,,,,,,,,
294301,2022-09-30_12h37.38.767,vts_reward_expectancy,2022.2.4,MacIntel,60.0024001,Chrome,1680,1050,,,,,1,1117,,,,,,,,,,,,,,,,,B,132,hexagon,1,1,,,,,,,,,,,,,,,,repeat,letter,lettRpt,d,0.8731,Lo,,,,,,5,,,,,,,,low,31,0,31,0,1,,,,,,,,,
294301,2022-09-30_12h37.38.767,vts_reward_expectancy,2022.2.4,MacIntel,60.0024001,Chrome,1680,1050,,,,,,,,,,,,,,,,,,,,,,,,,,,,,,,,,,,,,,,,,,,,,,,,,,,,,,6,,,,,,,,,,,,,,Ignore the shapes D and F A closes pick D Z closes pick F and J and K J represents the number lower than 153 and K represents higher number than 153 and I pick which one I see first,1,,1,2,,2,1680,1050
