participant,date,expName,psychopyVersion,OS,frameRate,browser,xResolution,yResolution,key_resp.keys,key_resp.rt,training_resp.keys,training_resp.rt,points_trial,points_cumul,trainBlock,training.thisRepN,training.thisTrialN,training.thisN,training.thisIndex,training.ran,LTriangleOpac,LCircleOpac,LHexagonOpac,LStarOpac,RTriangleOpac,RCircleOpac,RHexagonOpac,RStarOpac,LShape_ID,RShape_ID,curr_topStim,curr_bottStim,curr_shape,acc,E1,target_resp_prac1.keys,target_resp_prac1.rt,pracBlock,task1_prac_trials.thisRepN,task1_prac_trials.thisTrialN,task1_prac_trials.thisN,task1_prac_trials.thisIndex,task1_prac_trials.ran,target_resp_prac2.keys,target_resp_prac2.rt,task2_praac_trials.thisRepN,task2_praac_trials.thisTrialN,task2_praac_trials.thisN,task2_praac_trials.thisIndex,task2_praac_trials.ran,alt,task,condition,target_resp.keys,target_resp.rt,rewCond,vts_practice_trials.thisRepN,vts_practice_trials.thisTrialN,vts_practice_trials.thisN,vts_practice_trials.thisIndex,vts_practice_trials.ran,blockNum,trials_norew.thisRepN,trials_norew.thisTrialN,trials_norew.thisN,trials_norew.thisIndex,trials_norew.ran,key_resp_2.keys,key_resp_2.rt,rewExpect,trials_rew.thisRepN,trials_rew.thisTrialN,trials_rew.thisN,trials_rew.thisIndex,trials_rew.ran,Q1,Q2,Q2_text,Q3,Q4,Q5_text,Q5,xRes,yRes
293782,2022-10-06_16h10.50.743,vts_reward_expectancy,2022.2.4,Win32,120.6418145,Chrome,1536,960,,,,,,,,,,,,,,,,,,,,,,,,,,,,,,,,,,,,,,,,,,,,,,,,,,,,,,,,,,,,,,,,,,,,,,,,,,,,
293782,2022-10-06_16h10.50.743,vts_reward_expectancy,2022.2.4,Win32,120.6418145,Chrome,1536,960,space,3.2992,,,,,,,,,,,,,,,,,,,,,,,,,,,,,,,,,,,,,,,,,,,,,,,,,,,,,,,,,,,,,,,,,,,,,,,,,,
293782,2022-10-06_16h10.50.743,vts_reward_expectancy,2022.2.4,Win32,120.6418145,Chrome,1536,960,,,,,,,,,,,,,,,,,,,,,,,,,,,,,,,,,,,,,,,,,,,,,,,,,,,,,,,,,,,,,,,,,,,,,,,,,,,,
293782,2022-10-06_16h10.50.743,vts_reward_expectancy,2022.2.4,Win32,120.6418145,Chrome,1536,960,,,a,25.5927,10,10,0,0,0,0,6,1,0,0,1,0,1,0,0,0,hexagon,triangle,,,,,,,,,,,,,,,,,,,,,,,,,,,,,,,,,,,,,,,,,,,,,,,,,,,,,,
293782,2022-10-06_16h10.50.743,vts_reward_expectancy,2022.2.4,Win32,120.6418145,Chrome,1536,960,,,a,2.3598,1,11,0,0,1,1,3,1,0,1,0,0,1,0,0,0,circle,triangle,,,,,,,,,,,,,,,,,,,,,,,,,,,,,,,,,,,,,,,,,,,,,,,,,,,,,,
293782,2022-10-06_16h10.50.743,vts_reward_expectancy,2022.2.4,Win32,120.6418145,Chrome,1536,960,,,l,4.1501,10,21,0,0,2,2,0,1,1,0,0,0,0,1,0,0,triangle,circle,,,,,,,,,,,,,,,,,,,,,,,,,,,,,,,,,,,,,,,,,,,,,,,,,,,,,,
293782,2022-10-06_16h10.50.743,vts_reward_expectancy,2022.2.4,Win32,120.6418145,Chrome,1536,960,,,l,2.9565,1,22,0,0,3,3,2,1,1,0,0,0,0,0,0,1,triangle,star,,,,,,,,,,,,,,,,,,,,,,,,,,,,,,,,,,,,,,,,,,,,,,,,,,,,,,
293782,2022-10-06_16h10.50.743,vts_reward_expectancy,2022.2.4,Win32,120.6418145,Chrome,1536,960,,,a,0.2063,1,23,0,0,4,4,10,1,0,0,0,1,0,1,0,0,star ,circle,,,,,,,,,,,,,,,,,,,,,,,,,,,,,,,,,,,,,,,,,,,,,,,,,,,,,,
293782,2022-10-06_16h10.50.743,vts_reward_expectancy,2022.2.4,Win32,120.6418145,Chrome,1536,960,,,a,4.4001,10,33,0,0,5,5,8,1,0,0,1,0,0,0,0,1,hexagon,star,,,,,,,,,,,,,,,,,,,,,,,,,,,,,,,,,,,,,,,,,,,,,,,,,,,,,,
293782,2022-10-06_16h10.50.743,vts_reward_expectancy,2022.2.4,Win32,120.6418145,Chrome,1536,960,,,a,1.9707,1,34,0,0,6,6,9,1,0,0,0,1,1,0,0,0,star,triangle,,,,,,,,,,,,,,,,,,,,,,,,,,,,,,,,,,,,,,,,,,,,,,,,,,,,,,
293782,2022-10-06_16h10.50.743,vts_reward_expectancy,2022.2.4,Win32,120.6418145,Chrome,1536,960,,,a,8.1849,1,35,0,0,7,7,1,1,1,0,0,0,0,0,1,0,triangle,hexagon,,,,,,,,,,,,,,,,,,,,,,,,,,,,,,,,,,,,,,,,,,,,,,,,,,,,,,
293782,2022-10-06_16h10.50.743,vts_reward_expectancy,2022.2.4,Win32,120.6418145,Chrome,1536,960,,,a,1.0247,10,45,0,0,8,8,4,1,0,1,0,0,0,0,1,0,circle,hexagon,,,,,,,,,,,,,,,,,,,,,,,,,,,,,,,,,,,,,,,,,,,,,,,,,,,,,,
293782,2022-10-06_16h10.50.743,vts_reward_expectancy,2022.2.4,Win32,120.6418145,Chrome,1536,960,,,a,1.2771,1,46,0,0,9,9,11,1,0,0,0,1,0,0,1,0,star,hexagon,,,,,,,,,,,,,,,,,,,,,,,,,,,,,,,,,,,,,,,,,,,,,,,,,,,,,,
293782,2022-10-06_16h10.50.743,vts_reward_expectancy,2022.2.4,Win32,120.6418145,Chrome,1536,960,,,a,0.536,10,56,0,0,10,10,5,1,0,1,0,0,0,0,0,1,circle,star,,,,,,,,,,,,,,,,,,,,,,,,,,,,,,,,,,,,,,,,,,,,,,,,,,,,,,
293782,2022-10-06_16h10.50.743,vts_reward_expectancy,2022.2.4,Win32,120.6418145,Chrome,1536,960,,,a,1.742,10,66,0,0,11,11,7,1,0,0,1,0,0,1,0,0,hexagon,circle,,,,,,,,,,,,,,,,,,,,,,,,,,,,,,,,,,,,,,,,,,,,,,,,,,,,,,
293782,2022-10-06_16h10.50.743,vts_reward_expectancy,2022.2.4,Win32,120.6418145,Chrome,1536,960,,,a,1.238,1,67,0,1,0,12,2,1,1,0,0,0,0,0,0,1,triangle,star,,,,,,,,,,,,,,,,,,,,,,,,,,,,,,,,,,,,,,,,,,,,,,,,,,,,,,
293782,2022-10-06_16h10.50.743,vts_reward_expectancy,2022.2.4,Win32,120.6418145,Chrome,1536,960,,,a,15.3374,10,77,0,1,1,13,11,1,0,0,0,1,0,0,1,0,star,hexagon,,,,,,,,,,,,,,,,,,,,,,,,,,,,,,,,,,,,,,,,,,,,,,,,,,,,,,
293782,2022-10-06_16h10.50.743,vts_reward_expectancy,2022.2.4,Win32,120.6418145,Chrome,1536,960,,,a,0.0006,1,78,0,1,2,14,6,1,0,0,1,0,1,0,0,0,hexagon,triangle,,,,,,,,,,,,,,,,,,,,,,,,,,,,,,,,,,,,,,,,,,,,,,,,,,,,,,
293782,2022-10-06_16h10.50.743,vts_reward_expectancy,2022.2.4,Win32,120.6418145,Chrome,1536,960,,,a,0.1601,1,79,0,1,3,15,10,1,0,0,0,1,0,1,0,0,star ,circle,,,,,,,,,,,,,,,,,,,,,,,,,,,,,,,,,,,,,,,,,,,,,,,,,,,,,,
293782,2022-10-06_16h10.50.743,vts_reward_expectancy,2022.2.4,Win32,120.6418145,Chrome,1536,960,,,a,0.2429,1,80,0,1,4,16,9,1,0,0,0,1,1,0,0,0,star,triangle,,,,,,,,,,,,,,,,,,,,,,,,,,,,,,,,,,,,,,,,,,,,,,,,,,,,,,
293782,2022-10-06_16h10.50.743,vts_reward_expectancy,2022.2.4,Win32,120.6418145,Chrome,1536,960,,,a,0.102,10,90,0,1,5,17,5,1,0,1,0,0,0,0,0,1,circle,star,,,,,,,,,,,,,,,,,,,,,,,,,,,,,,,,,,,,,,,,,,,,,,,,,,,,,,
293782,2022-10-06_16h10.50.743,vts_reward_expectancy,2022.2.4,Win32,120.6418145,Chrome,1536,960,,,a,0.2749,1,91,0,1,6,18,3,1,0,1,0,0,1,0,0,0,circle,triangle,,,,,,,,,,,,,,,,,,,,,,,,,,,,,,,,,,,,,,,,,,,,,,,,,,,,,,
293782,2022-10-06_16h10.50.743,vts_reward_expectancy,2022.2.4,Win32,120.6418145,Chrome,1536,960,,,a,0.1613,1,92,0,1,7,19,0,1,1,0,0,0,0,1,0,0,triangle,circle,,,,,,,,,,,,,,,,,,,,,,,,,,,,,,,,,,,,,,,,,,,,,,,,,,,,,,
293782,2022-10-06_16h10.50.743,vts_reward_expectancy,2022.2.4,Win32,120.6418145,Chrome,1536,960,,,a,0.167,10,102,0,1,8,20,7,1,0,0,1,0,0,1,0,0,hexagon,circle,,,,,,,,,,,,,,,,,,,,,,,,,,,,,,,,,,,,,,,,,,,,,,,,,,,,,,
293782,2022-10-06_16h10.50.743,vts_reward_expectancy,2022.2.4,Win32,120.6418145,Chrome,1536,960,,,a,0.7335,1,103,0,1,9,21,4,1,0,1,0,0,0,0,1,0,circle,hexagon,,,,,,,,,,,,,,,,,,,,,,,,,,,,,,,,,,,,,,,,,,,,,,,,,,,,,,
293782,2022-10-06_16h10.50.743,vts_reward_expectancy,2022.2.4,Win32,120.6418145,Chrome,1536,960,,,a,0.9943,10,113,0,1,10,22,8,1,0,0,1,0,0,0,0,1,hexagon,star,,,,,,,,,,,,,,,,,,,,,,,,,,,,,,,,,,,,,,,,,,,,,,,,,,,,,,
293782,2022-10-06_16h10.50.743,vts_reward_expectancy,2022.2.4,Win32,120.6418145,Chrome,1536,960,,,a,0.7622,1,114,0,1,11,23,1,1,1,0,0,0,0,0,1,0,triangle,hexagon,,,,,,,,,,,,,,,,,,,,,,,,,,,,,,,,,,,,,,,,,,,,,,,,,,,,,,
293782,2022-10-06_16h10.50.743,vts_reward_expectancy,2022.2.4,Win32,120.6418145,Chrome,1536,960,,,a,1.6361,1,115,0,2,0,24,6,1,0,0,1,0,1,0,0,0,hexagon,triangle,,,,,,,,,,,,,,,,,,,,,,,,,,,,,,,,,,,,,,,,,,,,,,,,,,,,,,
293782,2022-10-06_16h10.50.743,vts_reward_expectancy,2022.2.4,Win32,120.6418145,Chrome,1536,960,,,a,0.0252,1,116,0,2,1,25,10,1,0,0,0,1,0,1,0,0,star ,circle,,,,,,,,,,,,,,,,,,,,,,,,,,,,,,,,,,,,,,,,,,,,,,,,,,,,,,
293782,2022-10-06_16h10.50.743,vts_reward_expectancy,2022.2.4,Win32,120.6418145,Chrome,1536,960,,,a,0.5433,1,117,0,2,2,26,9,1,0,0,0,1,1,0,0,0,star,triangle,,,,,,,,,,,,,,,,,,,,,,,,,,,,,,,,,,,,,,,,,,,,,,,,,,,,,,
293782,2022-10-06_16h10.50.743,vts_reward_expectancy,2022.2.4,Win32,120.6418145,Chrome,1536,960,,,a,0.2341,1,118,0,2,3,27,5,1,0,1,0,0,0,0,0,1,circle,star,,,,,,,,,,,,,,,,,,,,,,,,,,,,,,,,,,,,,,,,,,,,,,,,,,,,,,
293782,2022-10-06_16h10.50.743,vts_reward_expectancy,2022.2.4,Win32,120.6418145,Chrome,1536,960,,,a,0.4858,10,128,0,2,4,28,8,1,0,0,1,0,0,0,0,1,hexagon,star,,,,,,,,,,,,,,,,,,,,,,,,,,,,,,,,,,,,,,,,,,,,,,,,,,,,,,
293782,2022-10-06_16h10.50.743,vts_reward_expectancy,2022.2.4,Win32,120.6418145,Chrome,1536,960,,,a,0.1671,1,129,0,2,5,29,4,1,0,1,0,0,0,0,1,0,circle,hexagon,,,,,,,,,,,,,,,,,,,,,,,,,,,,,,,,,,,,,,,,,,,,,,,,,,,,,,
293782,2022-10-06_16h10.50.743,vts_reward_expectancy,2022.2.4,Win32,120.6418145,Chrome,1536,960,,,a,0.3849,1,130,0,2,6,30,0,1,1,0,0,0,0,1,0,0,triangle,circle,,,,,,,,,,,,,,,,,,,,,,,,,,,,,,,,,,,,,,,,,,,,,,,,,,,,,,
293782,2022-10-06_16h10.50.743,vts_reward_expectancy,2022.2.4,Win32,120.6418145,Chrome,1536,960,,,a,0.0339,10,140,0,2,7,31,1,1,1,0,0,0,0,0,1,0,triangle,hexagon,,,,,,,,,,,,,,,,,,,,,,,,,,,,,,,,,,,,,,,,,,,,,,,,,,,,,,
293782,2022-10-06_16h10.50.743,vts_reward_expectancy,2022.2.4,Win32,120.6418145,Chrome,1536,960,,,a,0.4199,10,150,0,2,8,32,11,1,0,0,0,1,0,0,1,0,star,hexagon,,,,,,,,,,,,,,,,,,,,,,,,,,,,,,,,,,,,,,,,,,,,,,,,,,,,,,
293782,2022-10-06_16h10.50.743,vts_reward_expectancy,2022.2.4,Win32,120.6418145,Chrome,1536,960,,,a,0.2946,10,160,0,2,9,33,7,1,0,0,1,0,0,1,0,0,hexagon,circle,,,,,,,,,,,,,,,,,,,,,,,,,,,,,,,,,,,,,,,,,,,,,,,,,,,,,,
293782,2022-10-06_16h10.50.743,vts_reward_expectancy,2022.2.4,Win32,120.6418145,Chrome,1536,960,,,a,1.7553,10,170,0,2,10,34,3,1,0,1,0,0,1,0,0,0,circle,triangle,,,,,,,,,,,,,,,,,,,,,,,,,,,,,,,,,,,,,,,,,,,,,,,,,,,,,,
293782,2022-10-06_16h10.50.743,vts_reward_expectancy,2022.2.4,Win32,120.6418145,Chrome,1536,960,,,a,0.5177,10,180,0,2,11,35,2,1,1,0,0,0,0,0,0,1,triangle,star,,,,,,,,,,,,,,,,,,,,,,,,,,,,,,,,,,,,,,,,,,,,,,,,,,,,,,
293782,2022-10-06_16h10.50.743,vts_reward_expectancy,2022.2.4,Win32,120.6418145,Chrome,1536,960,,,l,1.2115,10,190,1,0,0,0,11,1,0,0,0,1,0,0,1,0,star,hexagon,,,,,,,,,,,,,,,,,,,,,,,,,,,,,,,,,,,,,,,,,,,,,,,,,,,,,,
293782,2022-10-06_16h10.50.743,vts_reward_expectancy,2022.2.4,Win32,120.6418145,Chrome,1536,960,,,a,0.4938,1,191,1,0,1,1,0,1,1,0,0,0,0,1,0,0,triangle,circle,,,,,,,,,,,,,,,,,,,,,,,,,,,,,,,,,,,,,,,,,,,,,,,,,,,,,,
293782,2022-10-06_16h10.50.743,vts_reward_expectancy,2022.2.4,Win32,120.6418145,Chrome,1536,960,,,a,0.0572,10,201,1,0,2,2,3,1,0,1,0,0,1,0,0,0,circle,triangle,,,,,,,,,,,,,,,,,,,,,,,,,,,,,,,,,,,,,,,,,,,,,,,,,,,,,,
293782,2022-10-06_16h10.50.743,vts_reward_expectancy,2022.2.4,Win32,120.6418145,Chrome,1536,960,,,l,0.7163,1,202,1,0,3,3,4,1,0,1,0,0,0,0,1,0,circle,hexagon,,,,,,,,,,,,,,,,,,,,,,,,,,,,,,,,,,,,,,,,,,,,,,,,,,,,,,
293782,2022-10-06_16h10.50.743,vts_reward_expectancy,2022.2.4,Win32,120.6418145,Chrome,1536,960,,,a,0.2938,1,203,1,0,4,4,10,1,0,0,0,1,0,1,0,0,star ,circle,,,,,,,,,,,,,,,,,,,,,,,,,,,,,,,,,,,,,,,,,,,,,,,,,,,,,,
293782,2022-10-06_16h10.50.743,vts_reward_expectancy,2022.2.4,Win32,120.6418145,Chrome,1536,960,,,a,0.151,10,213,1,0,5,5,8,1,0,0,1,0,0,0,0,1,hexagon,star,,,,,,,,,,,,,,,,,,,,,,,,,,,,,,,,,,,,,,,,,,,,,,,,,,,,,,
293782,2022-10-06_16h10.50.743,vts_reward_expectancy,2022.2.4,Win32,120.6418145,Chrome,1536,960,,,l,0.1272,10,223,1,0,6,6,9,1,0,0,0,1,1,0,0,0,star,triangle,,,,,,,,,,,,,,,,,,,,,,,,,,,,,,,,,,,,,,,,,,,,,,,,,,,,,,
293782,2022-10-06_16h10.50.743,vts_reward_expectancy,2022.2.4,Win32,120.6418145,Chrome,1536,960,,,a,0.0816,1,224,1,0,7,7,6,1,0,0,1,0,1,0,0,0,hexagon,triangle,,,,,,,,,,,,,,,,,,,,,,,,,,,,,,,,,,,,,,,,,,,,,,,,,,,,,,
293782,2022-10-06_16h10.50.743,vts_reward_expectancy,2022.2.4,Win32,120.6418145,Chrome,1536,960,,,l,0.024,1,225,1,0,8,8,2,1,1,0,0,0,0,0,0,1,triangle,star,,,,,,,,,,,,,,,,,,,,,,,,,,,,,,,,,,,,,,,,,,,,,,,,,,,,,,
293782,2022-10-06_16h10.50.743,vts_reward_expectancy,2022.2.4,Win32,120.6418145,Chrome,1536,960,,,l,0.952,1,226,1,0,9,9,7,1,0,0,1,0,0,1,0,0,hexagon,circle,,,,,,,,,,,,,,,,,,,,,,,,,,,,,,,,,,,,,,,,,,,,,,,,,,,,,,
293782,2022-10-06_16h10.50.743,vts_reward_expectancy,2022.2.4,Win32,120.6418145,Chrome,1536,960,,,a,0.8354,1,227,1,0,10,10,5,1,0,1,0,0,0,0,0,1,circle,star,,,,,,,,,,,,,,,,,,,,,,,,,,,,,,,,,,,,,,,,,,,,,,,,,,,,,,
293782,2022-10-06_16h10.50.743,vts_reward_expectancy,2022.2.4,Win32,120.6418145,Chrome,1536,960,,,l,0.7192,10,237,1,0,11,11,1,1,1,0,0,0,0,0,1,0,triangle,hexagon,,,,,,,,,,,,,,,,,,,,,,,,,,,,,,,,,,,,,,,,,,,,,,,,,,,,,,
293782,2022-10-06_16h10.50.743,vts_reward_expectancy,2022.2.4,Win32,120.6418145,Chrome,1536,960,,,l,0.9781,10,247,1,1,0,12,4,1,0,1,0,0,0,0,1,0,circle,hexagon,,,,,,,,,,,,,,,,,,,,,,,,,,,,,,,,,,,,,,,,,,,,,,,,,,,,,,
293782,2022-10-06_16h10.50.743,vts_reward_expectancy,2022.2.4,Win32,120.6418145,Chrome,1536,960,,,l,0.9695,10,257,1,1,1,13,5,1,0,1,0,0,0,0,0,1,circle,star,,,,,,,,,,,,,,,,,,,,,,,,,,,,,,,,,,,,,,,,,,,,,,,,,,,,,,
293782,2022-10-06_16h10.50.743,vts_reward_expectancy,2022.2.4,Win32,120.6418145,Chrome,1536,960,,,a,0.6655,1,258,1,1,2,14,2,1,1,0,0,0,0,0,0,1,triangle,star,,,,,,,,,,,,,,,,,,,,,,,,,,,,,,,,,,,,,,,,,,,,,,,,,,,,,,
293782,2022-10-06_16h10.50.743,vts_reward_expectancy,2022.2.4,Win32,120.6418145,Chrome,1536,960,,,a,0.7467,1,259,1,1,3,15,9,1,0,0,0,1,1,0,0,0,star,triangle,,,,,,,,,,,,,,,,,,,,,,,,,,,,,,,,,,,,,,,,,,,,,,,,,,,,,,
293782,2022-10-06_16h10.50.743,vts_reward_expectancy,2022.2.4,Win32,120.6418145,Chrome,1536,960,,,l,1.1127,1,260,1,1,4,16,3,1,0,1,0,0,1,0,0,0,circle,triangle,,,,,,,,,,,,,,,,,,,,,,,,,,,,,,,,,,,,,,,,,,,,,,,,,,,,,,
293782,2022-10-06_16h10.50.743,vts_reward_expectancy,2022.2.4,Win32,120.6418145,Chrome,1536,960,,,a,1.4599,1,261,1,1,5,17,10,1,0,0,0,1,0,1,0,0,star ,circle,,,,,,,,,,,,,,,,,,,,,,,,,,,,,,,,,,,,,,,,,,,,,,,,,,,,,,
293782,2022-10-06_16h10.50.743,vts_reward_expectancy,2022.2.4,Win32,120.6418145,Chrome,1536,960,,,l,0.4079,10,271,1,1,6,18,7,1,0,0,1,0,0,1,0,0,hexagon,circle,,,,,,,,,,,,,,,,,,,,,,,,,,,,,,,,,,,,,,,,,,,,,,,,,,,,,,
293782,2022-10-06_16h10.50.743,vts_reward_expectancy,2022.2.4,Win32,120.6418145,Chrome,1536,960,,,a,0.8337,10,281,1,1,7,19,6,1,0,0,1,0,1,0,0,0,hexagon,triangle,,,,,,,,,,,,,,,,,,,,,,,,,,,,,,,,,,,,,,,,,,,,,,,,,,,,,,
293782,2022-10-06_16h10.50.743,vts_reward_expectancy,2022.2.4,Win32,120.6418145,Chrome,1536,960,,,a,0.959,1,282,1,1,8,20,8,1,0,0,1,0,0,0,0,1,hexagon,star,,,,,,,,,,,,,,,,,,,,,,,,,,,,,,,,,,,,,,,,,,,,,,,,,,,,,,
293782,2022-10-06_16h10.50.743,vts_reward_expectancy,2022.2.4,Win32,120.6418145,Chrome,1536,960,,,l,1.2101,1,283,1,1,9,21,11,1,0,0,0,1,0,0,1,0,star,hexagon,,,,,,,,,,,,,,,,,,,,,,,,,,,,,,,,,,,,,,,,,,,,,,,,,,,,,,
293782,2022-10-06_16h10.50.743,vts_reward_expectancy,2022.2.4,Win32,120.6418145,Chrome,1536,960,,,a,1.1452,1,284,1,1,10,22,1,1,1,0,0,0,0,0,1,0,triangle,hexagon,,,,,,,,,,,,,,,,,,,,,,,,,,,,,,,,,,,,,,,,,,,,,,,,,,,,,,
293782,2022-10-06_16h10.50.743,vts_reward_expectancy,2022.2.4,Win32,120.6418145,Chrome,1536,960,,,l,0.635,10,294,1,1,11,23,0,1,1,0,0,0,0,1,0,0,triangle,circle,,,,,,,,,,,,,,,,,,,,,,,,,,,,,,,,,,,,,,,,,,,,,,,,,,,,,,
293782,2022-10-06_16h10.50.743,vts_reward_expectancy,2022.2.4,Win32,120.6418145,Chrome,1536,960,,,l,1.3205,1,295,1,2,0,24,3,1,0,1,0,0,1,0,0,0,circle,triangle,,,,,,,,,,,,,,,,,,,,,,,,,,,,,,,,,,,,,,,,,,,,,,,,,,,,,,
293782,2022-10-06_16h10.50.743,vts_reward_expectancy,2022.2.4,Win32,120.6418145,Chrome,1536,960,,,a,0.895,10,305,1,2,1,25,5,1,0,1,0,0,0,0,0,1,circle,star,,,,,,,,,,,,,,,,,,,,,,,,,,,,,,,,,,,,,,,,,,,,,,,,,,,,,,
293782,2022-10-06_16h10.50.743,vts_reward_expectancy,2022.2.4,Win32,120.6418145,Chrome,1536,960,,,a,1.6959,10,315,1,2,2,26,4,1,0,1,0,0,0,0,1,0,circle,hexagon,,,,,,,,,,,,,,,,,,,,,,,,,,,,,,,,,,,,,,,,,,,,,,,,,,,,,,
293782,2022-10-06_16h10.50.743,vts_reward_expectancy,2022.2.4,Win32,120.6418145,Chrome,1536,960,,,l,0.6683,10,325,1,2,3,27,1,1,1,0,0,0,0,0,1,0,triangle,hexagon,,,,,,,,,,,,,,,,,,,,,,,,,,,,,,,,,,,,,,,,,,,,,,,,,,,,,,
293782,2022-10-06_16h10.50.743,vts_reward_expectancy,2022.2.4,Win32,120.6418145,Chrome,1536,960,,,a,1.1209,10,335,1,2,4,28,0,1,1,0,0,0,0,1,0,0,triangle,circle,,,,,,,,,,,,,,,,,,,,,,,,,,,,,,,,,,,,,,,,,,,,,,,,,,,,,,
293782,2022-10-06_16h10.50.743,vts_reward_expectancy,2022.2.4,Win32,120.6418145,Chrome,1536,960,,,l,1.0205,1,336,1,2,5,29,9,1,0,0,0,1,1,0,0,0,star,triangle,,,,,,,,,,,,,,,,,,,,,,,,,,,,,,,,,,,,,,,,,,,,,,,,,,,,,,
293782,2022-10-06_16h10.50.743,vts_reward_expectancy,2022.2.4,Win32,120.6418145,Chrome,1536,960,,,a,1.6473,1,337,1,2,6,30,10,1,0,0,0,1,0,1,0,0,star ,circle,,,,,,,,,,,,,,,,,,,,,,,,,,,,,,,,,,,,,,,,,,,,,,,,,,,,,,
293782,2022-10-06_16h10.50.743,vts_reward_expectancy,2022.2.4,Win32,120.6418145,Chrome,1536,960,,,a,0.8186,10,347,1,2,7,31,7,1,0,0,1,0,0,1,0,0,hexagon,circle,,,,,,,,,,,,,,,,,,,,,,,,,,,,,,,,,,,,,,,,,,,,,,,,,,,,,,
293782,2022-10-06_16h10.50.743,vts_reward_expectancy,2022.2.4,Win32,120.6418145,Chrome,1536,960,,,l,1.389,10,357,1,2,8,32,2,1,1,0,0,0,0,0,0,1,triangle,star,,,,,,,,,,,,,,,,,,,,,,,,,,,,,,,,,,,,,,,,,,,,,,,,,,,,,,
293782,2022-10-06_16h10.50.743,vts_reward_expectancy,2022.2.4,Win32,120.6418145,Chrome,1536,960,,,a,0.7852,10,367,1,2,9,33,6,1,0,0,1,0,1,0,0,0,hexagon,triangle,,,,,,,,,,,,,,,,,,,,,,,,,,,,,,,,,,,,,,,,,,,,,,,,,,,,,,
293782,2022-10-06_16h10.50.743,vts_reward_expectancy,2022.2.4,Win32,120.6418145,Chrome,1536,960,,,l,0.7437,10,377,1,2,10,34,11,1,0,0,0,1,0,0,1,0,star,hexagon,,,,,,,,,,,,,,,,,,,,,,,,,,,,,,,,,,,,,,,,,,,,,,,,,,,,,,
293782,2022-10-06_16h10.50.743,vts_reward_expectancy,2022.2.4,Win32,120.6418145,Chrome,1536,960,,,a,0.6482,10,387,1,2,11,35,8,1,0,0,1,0,0,0,0,1,hexagon,star,,,,,,,,,,,,,,,,,,,,,,,,,,,,,,,,,,,,,,,,,,,,,,,,,,,,,,
293782,2022-10-06_16h10.50.743,vts_reward_expectancy,2022.2.4,Win32,120.6418145,Chrome,1536,960,,,a,0.819,10,397,2,0,0,0,11,1,0,0,0,1,0,0,1,0,star,hexagon,,,,,,,,,,,,,,,,,,,,,,,,,,,,,,,,,,,,,,,,,,,,,,,,,,,,,,
293782,2022-10-06_16h10.50.743,vts_reward_expectancy,2022.2.4,Win32,120.6418145,Chrome,1536,960,,,a,0.9838,10,407,2,0,1,1,4,1,0,1,0,0,0,0,1,0,circle,hexagon,,,,,,,,,,,,,,,,,,,,,,,,,,,,,,,,,,,,,,,,,,,,,,,,,,,,,,
293782,2022-10-06_16h10.50.743,vts_reward_expectancy,2022.2.4,Win32,120.6418145,Chrome,1536,960,,,a,0.5277,10,417,2,0,2,2,5,1,0,1,0,0,0,0,0,1,circle,star,,,,,,,,,,,,,,,,,,,,,,,,,,,,,,,,,,,,,,,,,,,,,,,,,,,,,,
293782,2022-10-06_16h10.50.743,vts_reward_expectancy,2022.2.4,Win32,120.6418145,Chrome,1536,960,,,l,1.1615,1,418,2,0,3,3,9,1,0,0,0,1,1,0,0,0,star,triangle,,,,,,,,,,,,,,,,,,,,,,,,,,,,,,,,,,,,,,,,,,,,,,,,,,,,,,
293782,2022-10-06_16h10.50.743,vts_reward_expectancy,2022.2.4,Win32,120.6418145,Chrome,1536,960,,,a,0.5681,10,428,2,0,4,4,8,1,0,0,1,0,0,0,0,1,hexagon,star,,,,,,,,,,,,,,,,,,,,,,,,,,,,,,,,,,,,,,,,,,,,,,,,,,,,,,
293782,2022-10-06_16h10.50.743,vts_reward_expectancy,2022.2.4,Win32,120.6418145,Chrome,1536,960,,,l,0.6033,1,429,2,0,5,5,0,1,1,0,0,0,0,1,0,0,triangle,circle,,,,,,,,,,,,,,,,,,,,,,,,,,,,,,,,,,,,,,,,,,,,,,,,,,,,,,
293782,2022-10-06_16h10.50.743,vts_reward_expectancy,2022.2.4,Win32,120.6418145,Chrome,1536,960,,,a,0.5612,1,430,2,0,6,6,10,1,0,0,0,1,0,1,0,0,star ,circle,,,,,,,,,,,,,,,,,,,,,,,,,,,,,,,,,,,,,,,,,,,,,,,,,,,,,,
293782,2022-10-06_16h10.50.743,vts_reward_expectancy,2022.2.4,Win32,120.6418145,Chrome,1536,960,,,l,0.3344,10,440,2,0,7,7,7,1,0,0,1,0,0,1,0,0,hexagon,circle,,,,,,,,,,,,,,,,,,,,,,,,,,,,,,,,,,,,,,,,,,,,,,,,,,,,,,
293782,2022-10-06_16h10.50.743,vts_reward_expectancy,2022.2.4,Win32,120.6418145,Chrome,1536,960,,,a,0.427,10,450,2,0,8,8,3,1,0,1,0,0,1,0,0,0,circle,triangle,,,,,,,,,,,,,,,,,,,,,,,,,,,,,,,,,,,,,,,,,,,,,,,,,,,,,,
293782,2022-10-06_16h10.50.743,vts_reward_expectancy,2022.2.4,Win32,120.6418145,Chrome,1536,960,,,l,1.0433,1,451,2,0,9,9,2,1,1,0,0,0,0,0,0,1,triangle,star,,,,,,,,,,,,,,,,,,,,,,,,,,,,,,,,,,,,,,,,,,,,,,,,,,,,,,
293782,2022-10-06_16h10.50.743,vts_reward_expectancy,2022.2.4,Win32,120.6418145,Chrome,1536,960,,,l,0.1668,1,452,2,0,10,10,1,1,1,0,0,0,0,0,1,0,triangle,hexagon,,,,,,,,,,,,,,,,,,,,,,,,,,,,,,,,,,,,,,,,,,,,,,,,,,,,,,
293782,2022-10-06_16h10.50.743,vts_reward_expectancy,2022.2.4,Win32,120.6418145,Chrome,1536,960,,,l,0.0523,1,453,2,0,11,11,6,1,0,0,1,0,1,0,0,0,hexagon,triangle,,,,,,,,,,,,,,,,,,,,,,,,,,,,,,,,,,,,,,,,,,,,,,,,,,,,,,
293782,2022-10-06_16h10.50.743,vts_reward_expectancy,2022.2.4,Win32,120.6418145,Chrome,1536,960,,,l,0.0497,1,454,2,1,0,12,6,1,0,0,1,0,1,0,0,0,hexagon,triangle,,,,,,,,,,,,,,,,,,,,,,,,,,,,,,,,,,,,,,,,,,,,,,,,,,,,,,
293782,2022-10-06_16h10.50.743,vts_reward_expectancy,2022.2.4,Win32,120.6418145,Chrome,1536,960,,,a,0.1291,10,464,2,1,1,13,4,1,0,1,0,0,0,0,1,0,circle,hexagon,,,,,,,,,,,,,,,,,,,,,,,,,,,,,,,,,,,,,,,,,,,,,,,,,,,,,,
293782,2022-10-06_16h10.50.743,vts_reward_expectancy,2022.2.4,Win32,120.6418145,Chrome,1536,960,,,a,0.0003,1,465,2,1,2,14,3,1,0,1,0,0,1,0,0,0,circle,triangle,,,,,,,,,,,,,,,,,,,,,,,,,,,,,,,,,,,,,,,,,,,,,,,,,,,,,,
293782,2022-10-06_16h10.50.743,vts_reward_expectancy,2022.2.4,Win32,120.6418145,Chrome,1536,960,,,l,0.1089,1,466,2,1,3,15,9,1,0,0,0,1,1,0,0,0,star,triangle,,,,,,,,,,,,,,,,,,,,,,,,,,,,,,,,,,,,,,,,,,,,,,,,,,,,,,
293782,2022-10-06_16h10.50.743,vts_reward_expectancy,2022.2.4,Win32,120.6418145,Chrome,1536,960,,,a,0.2005,1,467,2,1,4,16,10,1,0,0,0,1,0,1,0,0,star ,circle,,,,,,,,,,,,,,,,,,,,,,,,,,,,,,,,,,,,,,,,,,,,,,,,,,,,,,
293782,2022-10-06_16h10.50.743,vts_reward_expectancy,2022.2.4,Win32,120.6418145,Chrome,1536,960,,,l,0.2514,1,468,2,1,5,17,11,1,0,0,0,1,0,0,1,0,star,hexagon,,,,,,,,,,,,,,,,,,,,,,,,,,,,,,,,,,,,,,,,,,,,,,,,,,,,,,
293782,2022-10-06_16h10.50.743,vts_reward_expectancy,2022.2.4,Win32,120.6418145,Chrome,1536,960,,,l,0.1081,10,478,2,1,6,18,1,1,1,0,0,0,0,0,1,0,triangle,hexagon,,,,,,,,,,,,,,,,,,,,,,,,,,,,,,,,,,,,,,,,,,,,,,,,,,,,,,
293782,2022-10-06_16h10.50.743,vts_reward_expectancy,2022.2.4,Win32,120.6418145,Chrome,1536,960,,,l,0.2285,1,479,2,1,7,19,2,1,1,0,0,0,0,0,0,1,triangle,star,,,,,,,,,,,,,,,,,,,,,,,,,,,,,,,,,,,,,,,,,,,,,,,,,,,,,,
293782,2022-10-06_16h10.50.743,vts_reward_expectancy,2022.2.4,Win32,120.6418145,Chrome,1536,960,,,l,0.0006,10,489,2,1,8,20,0,1,1,0,0,0,0,1,0,0,triangle,circle,,,,,,,,,,,,,,,,,,,,,,,,,,,,,,,,,,,,,,,,,,,,,,,,,,,,,,
293782,2022-10-06_16h10.50.743,vts_reward_expectancy,2022.2.4,Win32,120.6418145,Chrome,1536,960,,,a,0.0526,1,490,2,1,9,21,5,1,0,1,0,0,0,0,0,1,circle,star,,,,,,,,,,,,,,,,,,,,,,,,,,,,,,,,,,,,,,,,,,,,,,,,,,,,,,
293782,2022-10-06_16h10.50.743,vts_reward_expectancy,2022.2.4,Win32,120.6418145,Chrome,1536,960,,,l,0.0932,1,491,2,1,10,22,8,1,0,0,1,0,0,0,0,1,hexagon,star,,,,,,,,,,,,,,,,,,,,,,,,,,,,,,,,,,,,,,,,,,,,,,,,,,,,,,
293782,2022-10-06_16h10.50.743,vts_reward_expectancy,2022.2.4,Win32,120.6418145,Chrome,1536,960,,,a,0.1263,10,501,2,1,11,23,7,1,0,0,1,0,0,1,0,0,hexagon,circle,,,,,,,,,,,,,,,,,,,,,,,,,,,,,,,,,,,,,,,,,,,,,,,,,,,,,,
293782,2022-10-06_16h10.50.743,vts_reward_expectancy,2022.2.4,Win32,120.6418145,Chrome,1536,960,,,a,0.4735,10,511,2,2,0,24,3,1,0,1,0,0,1,0,0,0,circle,triangle,,,,,,,,,,,,,,,,,,,,,,,,,,,,,,,,,,,,,,,,,,,,,,,,,,,,,,
293782,2022-10-06_16h10.50.743,vts_reward_expectancy,2022.2.4,Win32,120.6418145,Chrome,1536,960,,,a,0.046,10,521,2,2,1,25,8,1,0,0,1,0,0,0,0,1,hexagon,star,,,,,,,,,,,,,,,,,,,,,,,,,,,,,,,,,,,,,,,,,,,,,,,,,,,,,,
293782,2022-10-06_16h10.50.743,vts_reward_expectancy,2022.2.4,Win32,120.6418145,Chrome,1536,960,,,l,0.1123,10,531,2,2,2,26,5,1,0,1,0,0,0,0,0,1,circle,star,,,,,,,,,,,,,,,,,,,,,,,,,,,,,,,,,,,,,,,,,,,,,,,,,,,,,,
293782,2022-10-06_16h10.50.743,vts_reward_expectancy,2022.2.4,Win32,120.6418145,Chrome,1536,960,,,a,0.0238,10,541,2,2,3,27,11,1,0,0,0,1,0,0,1,0,star,hexagon,,,,,,,,,,,,,,,,,,,,,,,,,,,,,,,,,,,,,,,,,,,,,,,,,,,,,,
293782,2022-10-06_16h10.50.743,vts_reward_expectancy,2022.2.4,Win32,120.6418145,Chrome,1536,960,,,a,0.0429,1,542,2,2,4,28,7,1,0,0,1,0,0,1,0,0,hexagon,circle,,,,,,,,,,,,,,,,,,,,,,,,,,,,,,,,,,,,,,,,,,,,,,,,,,,,,,
293782,2022-10-06_16h10.50.743,vts_reward_expectancy,2022.2.4,Win32,120.6418145,Chrome,1536,960,,,l,0.1,10,552,2,2,5,29,4,1,0,1,0,0,0,0,1,0,circle,hexagon,,,,,,,,,,,,,,,,,,,,,,,,,,,,,,,,,,,,,,,,,,,,,,,,,,,,,,
293782,2022-10-06_16h10.50.743,vts_reward_expectancy,2022.2.4,Win32,120.6418145,Chrome,1536,960,,,a,0.0487,10,562,2,2,6,30,10,1,0,0,0,1,0,1,0,0,star ,circle,,,,,,,,,,,,,,,,,,,,,,,,,,,,,,,,,,,,,,,,,,,,,,,,,,,,,,
293782,2022-10-06_16h10.50.743,vts_reward_expectancy,2022.2.4,Win32,120.6418145,Chrome,1536,960,,,l,0.0094,1,563,2,2,7,31,6,1,0,0,1,0,1,0,0,0,hexagon,triangle,,,,,,,,,,,,,,,,,,,,,,,,,,,,,,,,,,,,,,,,,,,,,,,,,,,,,,
293782,2022-10-06_16h10.50.743,vts_reward_expectancy,2022.2.4,Win32,120.6418145,Chrome,1536,960,,,l,0.05,10,573,2,2,8,32,1,1,1,0,0,0,0,0,1,0,triangle,hexagon,,,,,,,,,,,,,,,,,,,,,,,,,,,,,,,,,,,,,,,,,,,,,,,,,,,,,,
293782,2022-10-06_16h10.50.743,vts_reward_expectancy,2022.2.4,Win32,120.6418145,Chrome,1536,960,,,l,0.0173,1,574,2,2,9,33,2,1,1,0,0,0,0,0,0,1,triangle,star,,,,,,,,,,,,,,,,,,,,,,,,,,,,,,,,,,,,,,,,,,,,,,,,,,,,,,
293782,2022-10-06_16h10.50.743,vts_reward_expectancy,2022.2.4,Win32,120.6418145,Chrome,1536,960,,,a,0.1017,1,575,2,2,10,34,0,1,1,0,0,0,0,1,0,0,triangle,circle,,,,,,,,,,,,,,,,,,,,,,,,,,,,,,,,,,,,,,,,,,,,,,,,,,,,,,
293782,2022-10-06_16h10.50.743,vts_reward_expectancy,2022.2.4,Win32,120.6418145,Chrome,1536,960,,,l,0.0005,10,585,2,2,11,35,9,1,0,0,0,1,1,0,0,0,star,triangle,,,,,,,,,,,,,,,,,,,,,,,,,,,,,,,,,,,,,,,,,,,,,,,,,,,,,,
293782,2022-10-06_16h10.50.743,vts_reward_expectancy,2022.2.4,Win32,120.6418145,Chrome,1536,960,,,,,,,,,,,,,,,,,,,,,,,181,H,hexagon,0,0,d,1.5426,0,0,0,0,0,1,,,,,,,,,,,,,,,,,,,,,,,,,,,,,,,,,,,,,,,,,
293782,2022-10-06_16h10.50.743,vts_reward_expectancy,2022.2.4,Win32,120.6418145,Chrome,1536,960,,,,,,,,,,,,,,,,,,,,,,,132,Y,triangle,0,1,f,0.7585,0,1,0,1,0,1,,,,,,,,,,,,,,,,,,,,,,,,,,,,,,,,,,,,,,,,,
293782,2022-10-06_16h10.50.743,vts_reward_expectancy,2022.2.4,Win32,120.6418145,Chrome,1536,960,,,,,,,,,,,,,,,,,,,,,,,160,F,star,1,1,f,0.5864,0,2,0,2,0,1,,,,,,,,,,,,,,,,,,,,,,,,,,,,,,,,,,,,,,,,,
293782,2022-10-06_16h10.50.743,vts_reward_expectancy,2022.2.4,Win32,120.6418145,Chrome,1536,960,,,,,,,,,,,,,,,,,,,,,,,167,W,circle,1,0,f,0.692,0,3,0,3,0,1,,,,,,,,,,,,,,,,,,,,,,,,,,,,,,,,,,,,,,,,,
293782,2022-10-06_16h10.50.743,vts_reward_expectancy,2022.2.4,Win32,120.6418145,Chrome,1536,960,,,,,,,,,,,,,,,,,,,,,,,125,U,hexagon,0,0,f,0.5716,0,4,0,4,0,1,,,,,,,,,,,,,,,,,,,,,,,,,,,,,,,,,,,,,,,,,
293782,2022-10-06_16h10.50.743,vts_reward_expectancy,2022.2.4,Win32,120.6418145,Chrome,1536,960,,,,,,,,,,,,,,,,,,,,,,,146,B,triangle,1,1,d,0.4771,0,5,0,5,0,1,,,,,,,,,,,,,,,,,,,,,,,,,,,,,,,,,,,,,,,,,
293782,2022-10-06_16h10.50.743,vts_reward_expectancy,2022.2.4,Win32,120.6418145,Chrome,1536,960,,,,,,,,,,,,,,,,,,,,,,,139,S,star,1,0,d,0.6384,0,6,0,6,0,1,,,,,,,,,,,,,,,,,,,,,,,,,,,,,,,,,,,,,,,,,
293782,2022-10-06_16h10.50.743,vts_reward_expectancy,2022.2.4,Win32,120.6418145,Chrome,1536,960,,,,,,,,,,,,,,,,,,,,,,,174,D,circle,1,0,f,0.3995,0,7,0,7,0,1,,,,,,,,,,,,,,,,,,,,,,,,,,,,,,,,,,,,,,,,,
293782,2022-10-06_16h10.50.743,vts_reward_expectancy,2022.2.4,Win32,120.6418145,Chrome,1536,960,,,,,,,,,,,,,,,,,,,,,,,181,H,hexagon,0,0,d,0.6013,0,8,0,8,0,1,,,,,,,,,,,,,,,,,,,,,,,,,,,,,,,,,,,,,,,,,
293782,2022-10-06_16h10.50.743,vts_reward_expectancy,2022.2.4,Win32,120.6418145,Chrome,1536,960,,,,,,,,,,,,,,,,,,,,,,,132,Y,star,1,1,d,0.4824,0,9,0,9,0,1,,,,,,,,,,,,,,,,,,,,,,,,,,,,,,,,,,,,,,,,,
293782,2022-10-06_16h10.50.743,vts_reward_expectancy,2022.2.4,Win32,120.6418145,Chrome,1536,960,,,,,,,,,,,,,,,,,,,,,,,167,H,triangle,1,0,f,1.1825,1,0,0,0,0,1,,,,,,,,,,,,,,,,,,,,,,,,,,,,,,,,,,,,,,,,,
293782,2022-10-06_16h10.50.743,vts_reward_expectancy,2022.2.4,Win32,120.6418145,Chrome,1536,960,,,,,,,,,,,,,,,,,,,,,,,146,B,star,0,0,f,1.522,1,1,0,1,0,1,,,,,,,,,,,,,,,,,,,,,,,,,,,,,,,,,,,,,,,,,
293782,2022-10-06_16h10.50.743,vts_reward_expectancy,2022.2.4,Win32,120.6418145,Chrome,1536,960,,,,,,,,,,,,,,,,,,,,,,,139,U,circle,0,1,f,1.3576,1,2,0,2,0,1,,,,,,,,,,,,,,,,,,,,,,,,,,,,,,,,,,,,,,,,,
293782,2022-10-06_16h10.50.743,vts_reward_expectancy,2022.2.4,Win32,120.6418145,Chrome,1536,960,,,,,,,,,,,,,,,,,,,,,,,181,D,hexagon,1,1,f,0.6363,1,3,0,3,0,1,,,,,,,,,,,,,,,,,,,,,,,,,,,,,,,,,,,,,,,,,
293782,2022-10-06_16h10.50.743,vts_reward_expectancy,2022.2.4,Win32,120.6418145,Chrome,1536,960,,,,,,,,,,,,,,,,,,,,,,,174,Y,triangle,1,0,f,0.9511,1,4,0,4,0,1,,,,,,,,,,,,,,,,,,,,,,,,,,,,,,,,,,,,,,,,,
293782,2022-10-06_16h10.50.743,vts_reward_expectancy,2022.2.4,Win32,120.6418145,Chrome,1536,960,,,,,,,,,,,,,,,,,,,,,,,160,S,star,0,0,d,1.1544,1,5,0,5,0,1,,,,,,,,,,,,,,,,,,,,,,,,,,,,,,,,,,,,,,,,,
293782,2022-10-06_16h10.50.743,vts_reward_expectancy,2022.2.4,Win32,120.6418145,Chrome,1536,960,,,,,,,,,,,,,,,,,,,,,,,125,W,circle,1,1,d,0.8452,1,6,0,6,0,1,,,,,,,,,,,,,,,,,,,,,,,,,,,,,,,,,,,,,,,,,
293782,2022-10-06_16h10.50.743,vts_reward_expectancy,2022.2.4,Win32,120.6418145,Chrome,1536,960,,,,,,,,,,,,,,,,,,,,,,,132,F,hexagon,1,0,d,1.2376,1,7,0,7,0,1,,,,,,,,,,,,,,,,,,,,,,,,,,,,,,,,,,,,,,,,,
293782,2022-10-06_16h10.50.743,vts_reward_expectancy,2022.2.4,Win32,120.6418145,Chrome,1536,960,,,,,,,,,,,,,,,,,,,,,,,167,H,hexagon,1,0,f,1.0439,1,8,0,8,0,1,,,,,,,,,,,,,,,,,,,,,,,,,,,,,,,,,,,,,,,,,
293782,2022-10-06_16h10.50.743,vts_reward_expectancy,2022.2.4,Win32,120.6418145,Chrome,1536,960,,,,,,,,,,,,,,,,,,,,,,,146,B,triangle,1,0,d,0.845,1,9,0,9,0,1,,,,,,,,,,,,,,,,,,,,,,,,,,,,,,,,,,,,,,,,,
293782,2022-10-06_16h10.50.743,vts_reward_expectancy,2022.2.4,Win32,120.6418145,Chrome,1536,960,,,,,,,,,,,,,,,,,,,,,,,125,S,star,1,0,d,2.8731,2,0,0,0,0,1,,,,,,,,,,,,,,,,,,,,,,,,,,,,,,,,,,,,,,,,,
293782,2022-10-06_16h10.50.743,vts_reward_expectancy,2022.2.4,Win32,120.6418145,Chrome,1536,960,,,,,,,,,,,,,,,,,,,,,,,181,B,circle,1,0,f,0.9025,2,1,0,1,0,1,,,,,,,,,,,,,,,,,,,,,,,,,,,,,,,,,,,,,,,,,
293782,2022-10-06_16h10.50.743,vts_reward_expectancy,2022.2.4,Win32,120.6418145,Chrome,1536,960,,,,,,,,,,,,,,,,,,,,,,,160,W,hexagon,1,0,f,0.9511,2,2,0,2,0,1,,,,,,,,,,,,,,,,,,,,,,,,,,,,,,,,,,,,,,,,,
293782,2022-10-06_16h10.50.743,vts_reward_expectancy,2022.2.4,Win32,120.6418145,Chrome,1536,960,,,,,,,,,,,,,,,,,,,,,,,146,U,triangle,1,0,d,2.02,2,3,0,3,0,1,,,,,,,,,,,,,,,,,,,,,,,,,,,,,,,,,,,,,,,,,
293782,2022-10-06_16h10.50.743,vts_reward_expectancy,2022.2.4,Win32,120.6418145,Chrome,1536,960,,,,,,,,,,,,,,,,,,,,,,,174,Y,star,1,0,f,0.9605,2,4,0,4,0,1,,,,,,,,,,,,,,,,,,,,,,,,,,,,,,,,,,,,,,,,,
293782,2022-10-06_16h10.50.743,vts_reward_expectancy,2022.2.4,Win32,120.6418145,Chrome,1536,960,,,,,,,,,,,,,,,,,,,,,,,139,H,circle,1,0,d,0.792,2,5,0,5,0,1,,,,,,,,,,,,,,,,,,,,,,,,,,,,,,,,,,,,,,,,,
293782,2022-10-06_16h10.50.743,vts_reward_expectancy,2022.2.4,Win32,120.6418145,Chrome,1536,960,,,,,,,,,,,,,,,,,,,,,,,167,D,hexagon,1,0,f,0.9418,2,6,0,6,0,1,,,,,,,,,,,,,,,,,,,,,,,,,,,,,,,,,,,,,,,,,
293782,2022-10-06_16h10.50.743,vts_reward_expectancy,2022.2.4,Win32,120.6418145,Chrome,1536,960,,,,,,,,,,,,,,,,,,,,,,,132,F,triangle,1,0,d,0.6543,2,7,0,7,0,1,,,,,,,,,,,,,,,,,,,,,,,,,,,,,,,,,,,,,,,,,
293782,2022-10-06_16h10.50.743,vts_reward_expectancy,2022.2.4,Win32,120.6418145,Chrome,1536,960,,,,,,,,,,,,,,,,,,,,,,,125,S,hexagon,0,0,f,2.181,2,8,0,8,0,1,,,,,,,,,,,,,,,,,,,,,,,,,,,,,,,,,,,,,,,,,
293782,2022-10-06_16h10.50.743,vts_reward_expectancy,2022.2.4,Win32,120.6418145,Chrome,1536,960,,,,,,,,,,,,,,,,,,,,,,,181,B,star,1,1,f,0.6618,2,9,0,9,0,1,,,,,,,,,,,,,,,,,,,,,,,,,,,,,,,,,,,,,,,,,
293782,2022-10-06_16h10.50.743,vts_reward_expectancy,2022.2.4,Win32,120.6418145,Chrome,1536,960,,,,,,,,,,,,,,,,,,,,,,,174,F,triangle,1,0,,,3,,,,,,j,0.5344,0,0,0,0,1,,,,,,,,,,,,,,,,,,,,,,,,,,,,,,,,,,
293782,2022-10-06_16h10.50.743,vts_reward_expectancy,2022.2.4,Win32,120.6418145,Chrome,1536,960,,,,,,,,,,,,,,,,,,,,,,,139,U,star,1,0,,,3,,,,,,k,0.629,1,0,1,0,1,,,,,,,,,,,,,,,,,,,,,,,,,,,,,,,,,,
293782,2022-10-06_16h10.50.743,vts_reward_expectancy,2022.2.4,Win32,120.6418145,Chrome,1536,960,,,,,,,,,,,,,,,,,,,,,,,132,B,hexagon,0,0,,,3,,,,,,k,1.3014,2,0,2,0,1,,,,,,,,,,,,,,,,,,,,,,,,,,,,,,,,,,
293782,2022-10-06_16h10.50.743,vts_reward_expectancy,2022.2.4,Win32,120.6418145,Chrome,1536,960,,,,,,,,,,,,,,,,,,,,,,,160,W,circle,1,1,,,3,,,,,,k,2.1733,3,0,3,0,1,,,,,,,,,,,,,,,,,,,,,,,,,,,,,,,,,,
293782,2022-10-06_16h10.50.743,vts_reward_expectancy,2022.2.4,Win32,120.6418145,Chrome,1536,960,,,,,,,,,,,,,,,,,,,,,,,181,S,triangle,0,0,,,3,,,,,,j,1.6239,4,0,4,0,1,,,,,,,,,,,,,,,,,,,,,,,,,,,,,,,,,,
293782,2022-10-06_16h10.50.743,vts_reward_expectancy,2022.2.4,Win32,120.6418145,Chrome,1536,960,,,,,,,,,,,,,,,,,,,,,,,146,D,star,0,1,,,3,,,,,,k,0.4917,5,0,5,0,1,,,,,,,,,,,,,,,,,,,,,,,,,,,,,,,,,,
293782,2022-10-06_16h10.50.743,vts_reward_expectancy,2022.2.4,Win32,120.6418145,Chrome,1536,960,,,,,,,,,,,,,,,,,,,,,,,167,H,hexagon,1,1,,,3,,,,,,j,0.3929,6,0,6,0,1,,,,,,,,,,,,,,,,,,,,,,,,,,,,,,,,,,
293782,2022-10-06_16h10.50.743,vts_reward_expectancy,2022.2.4,Win32,120.6418145,Chrome,1536,960,,,,,,,,,,,,,,,,,,,,,,,125,Y,circle,1,0,,,3,,,,,,k,2.0967,7,0,7,0,1,,,,,,,,,,,,,,,,,,,,,,,,,,,,,,,,,,
293782,2022-10-06_16h10.50.743,vts_reward_expectancy,2022.2.4,Win32,120.6418145,Chrome,1536,960,,,,,,,,,,,,,,,,,,,,,,,174,F,hexagon,0,0,,,3,,,,,,k,1.7204,8,0,8,0,1,,,,,,,,,,,,,,,,,,,,,,,,,,,,,,,,,,
293782,2022-10-06_16h10.50.743,vts_reward_expectancy,2022.2.4,Win32,120.6418145,Chrome,1536,960,,,,,,,,,,,,,,,,,,,,,,,139,U,circle,0,1,,,3,,,,,,j,0.6353,9,0,9,0,1,,,,,,,,,,,,,,,,,,,,,,,,,,,,,,,,,,
293782,2022-10-06_16h10.50.743,vts_reward_expectancy,2022.2.4,Win32,120.6418145,Chrome,1536,960,,,,,,,,,,,,,,,,,,,,,,,139,U,hexagon,0,1,,,4,,,,,,,,0,0,0,0,1,,,,,,,,,,,,,,,,,,,,,,,,,,,,,,,,,,
293782,2022-10-06_16h10.50.743,vts_reward_expectancy,2022.2.4,Win32,120.6418145,Chrome,1536,960,,,,,,,,,,,,,,,,,,,,,,,167,W,triangle,1,1,,,4,,,,,,k,2.1786,1,0,1,0,1,,,,,,,,,,,,,,,,,,,,,,,,,,,,,,,,,,
293782,2022-10-06_16h10.50.743,vts_reward_expectancy,2022.2.4,Win32,120.6418145,Chrome,1536,960,,,,,,,,,,,,,,,,,,,,,,,132,F,star,1,0,,,4,,,,,,j,1.2256,2,0,2,0,1,,,,,,,,,,,,,,,,,,,,,,,,,,,,,,,,,,
293782,2022-10-06_16h10.50.743,vts_reward_expectancy,2022.2.4,Win32,120.6418145,Chrome,1536,960,,,,,,,,,,,,,,,,,,,,,,,181,H,circle,0,0,,,4,,,,,,k,1.5359,3,0,3,0,1,,,,,,,,,,,,,,,,,,,,,,,,,,,,,,,,,,
293782,2022-10-06_16h10.50.743,vts_reward_expectancy,2022.2.4,Win32,120.6418145,Chrome,1536,960,,,,,,,,,,,,,,,,,,,,,,,146,S,hexagon,1,1,,,4,,,,,,k,1.6048,4,0,4,0,1,,,,,,,,,,,,,,,,,,,,,,,,,,,,,,,,,,
293782,2022-10-06_16h10.50.743,vts_reward_expectancy,2022.2.4,Win32,120.6418145,Chrome,1536,960,,,,,,,,,,,,,,,,,,,,,,,160,B,triangle,1,0,,,4,,,,,,j,0.9984,5,0,5,0,1,,,,,,,,,,,,,,,,,,,,,,,,,,,,,,,,,,
293782,2022-10-06_16h10.50.743,vts_reward_expectancy,2022.2.4,Win32,120.6418145,Chrome,1536,960,,,,,,,,,,,,,,,,,,,,,,,174,D,star,1,0,,,4,,,,,,j,0.8987,6,0,6,0,1,,,,,,,,,,,,,,,,,,,,,,,,,,,,,,,,,,
293782,2022-10-06_16h10.50.743,vts_reward_expectancy,2022.2.4,Win32,120.6418145,Chrome,1536,960,,,,,,,,,,,,,,,,,,,,,,,125,Y,circle,1,0,,,4,,,,,,k,1.4627,7,0,7,0,1,,,,,,,,,,,,,,,,,,,,,,,,,,,,,,,,,,
293782,2022-10-06_16h10.50.743,vts_reward_expectancy,2022.2.4,Win32,120.6418145,Chrome,1536,960,,,,,,,,,,,,,,,,,,,,,,,139,U,circle,1,0,,,4,,,,,,k,2.3537,8,0,8,0,1,,,,,,,,,,,,,,,,,,,,,,,,,,,,,,,,,,
293782,2022-10-06_16h10.50.743,vts_reward_expectancy,2022.2.4,Win32,120.6418145,Chrome,1536,960,,,,,,,,,,,,,,,,,,,,,,,167,W,hexagon,1,0,,,4,,,,,,k,1.8276,9,0,9,0,1,,,,,,,,,,,,,,,,,,,,,,,,,,,,,,,,,,
293782,2022-10-06_16h10.50.743,vts_reward_expectancy,2022.2.4,Win32,120.6418145,Chrome,1536,960,,,,,,,,,,,,,,,,,,,,,,,139,Y,hexagon,1,0,,,5,,,,,,k,1.2877,0,0,0,0,1,,,,,,,,,,,,,,,,,,,,,,,,,,,,,,,,,,
293782,2022-10-06_16h10.50.743,vts_reward_expectancy,2022.2.4,Win32,120.6418145,Chrome,1536,960,,,,,,,,,,,,,,,,,,,,,,,160,U,star,1,0,,,5,,,,,,k,1.5023,1,0,1,0,1,,,,,,,,,,,,,,,,,,,,,,,,,,,,,,,,,,
293782,2022-10-06_16h10.50.743,vts_reward_expectancy,2022.2.4,Win32,120.6418145,Chrome,1536,960,,,,,,,,,,,,,,,,,,,,,,,181,W,circle,1,0,,,5,,,,,,k,1.06,2,0,2,0,1,,,,,,,,,,,,,,,,,,,,,,,,,,,,,,,,,,
293782,2022-10-06_16h10.50.743,vts_reward_expectancy,2022.2.4,Win32,120.6418145,Chrome,1536,960,,,,,,,,,,,,,,,,,,,,,,,125,B,triangle,1,0,,,5,,,,,,j,0.6336,3,0,3,0,1,,,,,,,,,,,,,,,,,,,,,,,,,,,,,,,,,,
293782,2022-10-06_16h10.50.743,vts_reward_expectancy,2022.2.4,Win32,120.6418145,Chrome,1536,960,,,,,,,,,,,,,,,,,,,,,,,132,F,hexagon,1,0,,,5,,,,,,j,1.4293,4,0,4,0,1,,,,,,,,,,,,,,,,,,,,,,,,,,,,,,,,,,
293782,2022-10-06_16h10.50.743,vts_reward_expectancy,2022.2.4,Win32,120.6418145,Chrome,1536,960,,,,,,,,,,,,,,,,,,,,,,,174,S,star,1,0,,,5,,,,,,k,0.8853,5,0,5,0,1,,,,,,,,,,,,,,,,,,,,,,,,,,,,,,,,,,
293782,2022-10-06_16h10.50.743,vts_reward_expectancy,2022.2.4,Win32,120.6418145,Chrome,1536,960,,,,,,,,,,,,,,,,,,,,,,,167,H,circle,1,0,,,5,,,,,,j,1.2189,6,0,6,0,1,,,,,,,,,,,,,,,,,,,,,,,,,,,,,,,,,,
293782,2022-10-06_16h10.50.743,vts_reward_expectancy,2022.2.4,Win32,120.6418145,Chrome,1536,960,,,,,,,,,,,,,,,,,,,,,,,146,D,triangle,1,0,,,5,,,,,,j,0.8167,7,0,7,0,1,,,,,,,,,,,,,,,,,,,,,,,,,,,,,,,,,,
293782,2022-10-06_16h10.50.743,vts_reward_expectancy,2022.2.4,Win32,120.6418145,Chrome,1536,960,,,,,,,,,,,,,,,,,,,,,,,139,Y,hexagon,1,0,,,5,,,,,,k,1.144,8,0,8,0,1,,,,,,,,,,,,,,,,,,,,,,,,,,,,,,,,,,
293782,2022-10-06_16h10.50.743,vts_reward_expectancy,2022.2.4,Win32,120.6418145,Chrome,1536,960,,,,,,,,,,,,,,,,,,,,,,,160,U,triangle,1,0,,,5,,,,,,k,1.5532,9,0,9,0,1,,,,,,,,,,,,,,,,,,,,,,,,,,,,,,,,,,
293782,2022-10-06_16h10.50.743,vts_reward_expectancy,2022.2.4,Win32,120.6418145,Chrome,1536,960,,,,,0,585,,,,,,,,,,,,,,,,,139,W,star,1,0,,,6,,,,,,,,,,,,,-1,letter,NA,k,2.7382,vtsPrac,0,0,0,0,1,,,,,,,,,,,,,,,,,,,,,,,
293782,2022-10-06_16h10.50.743,vts_reward_expectancy,2022.2.4,Win32,120.6418145,Chrome,1536,960,,,,,0,585,,,,,,,,,,,,,,,,,146,F,triangle,-1,0,,,6,,,,,,,,,,,,,switch,no_choice,NA,,,vtsPrac,1,0,1,0,1,,,,,,,,,,,,,,,,,,,,,,,
293782,2022-10-06_16h10.50.743,vts_reward_expectancy,2022.2.4,Win32,120.6418145,Chrome,1536,960,,,,,0,585,,,,,,,,,,,,,,,,,160,H,star,1,0,,,6,,,,,,,,,,,,,switch,letter,lettSwt,j,0.9921,vtsPrac,2,0,2,0,1,,,,,,,,,,,,,,,,,,,,,,,
293782,2022-10-06_16h10.50.743,vts_reward_expectancy,2022.2.4,Win32,120.6418145,Chrome,1536,960,,,,,0,585,,,,,,,,,,,,,,,,,125,S,triangle,1,0,,,6,,,,,,,,,,,,,repeat,letter,lettRpt,k,0.8344,vtsPrac,3,0,3,0,1,,,,,,,,,,,,,,,,,,,,,,,
293782,2022-10-06_16h10.50.743,vts_reward_expectancy,2022.2.4,Win32,120.6418145,Chrome,1536,960,,,,,0,585,,,,,,,,,,,,,,,,,139,W,hexagon,1,0,,,6,,,,,,,,,,,,,repeat,letter,lettRpt,k,1.9668,vtsPrac,4,0,4,0,1,,,,,,,,,,,,,,,,,,,,,,,
293782,2022-10-06_16h10.50.743,vts_reward_expectancy,2022.2.4,Win32,120.6418145,Chrome,1536,960,,,,,0,585,,,,,,,,,,,,,,,,,146,F,triangle,1,0,,,6,,,,,,,,,,,,,repeat,letter,lettRpt,j,1.0455,vtsPrac,5,0,5,0,1,,,,,,,,,,,,,,,,,,,,,,,
293782,2022-10-06_16h10.50.743,vts_reward_expectancy,2022.2.4,Win32,120.6418145,Chrome,1536,960,,,,,0,585,,,,,,,,,,,,,,,,,160,H,star,1,0,,,6,,,,,,,,,,,,,repeat,letter,lettRpt,j,0.9779,vtsPrac,6,0,6,0,1,,,,,,,,,,,,,,,,,,,,,,,
293782,2022-10-06_16h10.50.743,vts_reward_expectancy,2022.2.4,Win32,120.6418145,Chrome,1536,960,,,,,0,585,,,,,,,,,,,,,,,,,125,S,triangle,1,0,,,6,,,,,,,,,,,,,repeat,letter,lettRpt,k,1.4415,vtsPrac,7,0,7,0,1,,,,,,,,,,,,,,,,,,,,,,,
293782,2022-10-06_16h10.50.743,vts_reward_expectancy,2022.2.4,Win32,120.6418145,Chrome,1536,960,,,,,0,585,,,,,,,,,,,,,,,,,181,F,star,1,0,,,6,,,,,,,,,,,,,repeat,letter,lettRpt,j,1.034,vtsPrac,8,0,8,0,1,,,,,,,,,,,,,,,,,,,,,,,
293782,2022-10-06_16h10.50.743,vts_reward_expectancy,2022.2.4,Win32,120.6418145,Chrome,1536,960,,,,,0,585,,,,,,,,,,,,,,,,,174,D,circle,1,0,,,6,,,,,,,,,,,,,repeat,letter,lettRpt,j,1.2279,vtsPrac,9,0,9,0,1,,,,,,,,,,,,,,,,,,,,,,,
293782,2022-10-06_16h10.50.743,vts_reward_expectancy,2022.2.4,Win32,120.6418145,Chrome,1536,960,,,,,0,585,,,,,,,,,,,,,,,,,146,B,hexagon,1,0,,,6,,,,,,,,,,,,,repeat,letter,lettRpt,j,1.0397,vtsPrac,10,0,10,0,1,,,,,,,,,,,,,,,,,,,,,,,
293782,2022-10-06_16h10.50.743,vts_reward_expectancy,2022.2.4,Win32,120.6418145,Chrome,1536,960,,,,,0,585,,,,,,,,,,,,,,,,,125,S,star,1,0,,,6,,,,,,,,,,,,,repeat,letter,lettRpt,k,1.6019,vtsPrac,11,0,11,0,1,,,,,,,,,,,,,,,,,,,,,,,
293782,2022-10-06_16h10.50.743,vts_reward_expectancy,2022.2.4,Win32,120.6418145,Chrome,1536,960,,,,,0,585,,,,,,,,,,,,,,,,,132,F,circle,1,0,,,6,,,,,,,,,,,,,repeat,letter,lettRpt,j,0.7621,vtsPrac,12,0,12,0,1,,,,,,,,,,,,,,,,,,,,,,,
293782,2022-10-06_16h10.50.743,vts_reward_expectancy,2022.2.4,Win32,120.6418145,Chrome,1536,960,,,,,0,585,,,,,,,,,,,,,,,,,125,U,triangle,1,0,,,6,,,,,,,,,,,,,repeat,letter,lettRpt,k,1.0788,vtsPrac,13,0,13,0,1,,,,,,,,,,,,,,,,,,,,,,,
293782,2022-10-06_16h10.50.743,vts_reward_expectancy,2022.2.4,Win32,120.6418145,Chrome,1536,960,,,,,0,585,,,,,,,,,,,,,,,,,160,D,circle,1,0,,,6,,,,,,,,,,,,,repeat,letter,lettRpt,j,0.8685,vtsPrac,14,0,14,0,1,,,,,,,,,,,,,,,,,,,,,,,
293782,2022-10-06_16h10.50.743,vts_reward_expectancy,2022.2.4,Win32,120.6418145,Chrome,1536,960,,,,,0,585,,,,,,,,,,,,,,,,,167,S,triangle,1,0,,,6,,,,,,,,,,,,,repeat,letter,lettRpt,k,0.8412,vtsPrac,15,0,15,0,1,,,,,,,,,,,,,,,,,,,,,,,
293782,2022-10-06_16h10.50.743,vts_reward_expectancy,2022.2.4,Win32,120.6418145,Chrome,1536,960,,,,,0,585,,,,,,,,,,,,,,,,,181,W,star,1,0,,,7,,,,,,,,,,,,,switch,number,numSwt,f,1.7105,vtsPrac,0,0,0,0,1,,,,,,,,,,,,,,,,,,,,,,,
293782,2022-10-06_16h10.50.743,vts_reward_expectancy,2022.2.4,Win32,120.6418145,Chrome,1536,960,,,,,0,585,,,,,,,,,,,,,,,,,167,H,hexagon,0,0,,,7,,,,,,,,,,,,,switch,letter,NA,k,2.4483,vtsPrac,1,0,1,0,1,,,,,,,,,,,,,,,,,,,,,,,
293782,2022-10-06_16h10.50.743,vts_reward_expectancy,2022.2.4,Win32,120.6418145,Chrome,1536,960,,,,,0,585,,,,,,,,,,,,,,,,,174,D,star,1,1,,,7,,,,,,,,,,,,,repeat,letter,lettRpt,j,1.4536,vtsPrac,2,0,2,0,1,,,,,,,,,,,,,,,,,,,,,,,
293782,2022-10-06_16h10.50.743,vts_reward_expectancy,2022.2.4,Win32,120.6418145,Chrome,1536,960,,,,,0,585,,,,,,,,,,,,,,,,,139,B,hexagon,1,0,,,7,,,,,,,,,,,,,switch,number,numSwt,d,0.5503,vtsPrac,3,0,3,0,1,,,,,,,,,,,,,,,,,,,,,,,
293782,2022-10-06_16h10.50.743,vts_reward_expectancy,2022.2.4,Win32,120.6418145,Chrome,1536,960,,,,,0,585,,,,,,,,,,,,,,,,,181,W,hexagon,1,0,,,7,,,,,,,,,,,,,switch,letter,lettSwt,k,0.9035,vtsPrac,4,0,4,0,1,,,,,,,,,,,,,,,,,,,,,,,
293782,2022-10-06_16h10.50.743,vts_reward_expectancy,2022.2.4,Win32,120.6418145,Chrome,1536,960,,,,,0,585,,,,,,,,,,,,,,,,,167,H,star,0,0,,,7,,,,,,,,,,,,,switch,number,NA,d,1.1774,vtsPrac,5,0,5,0,1,,,,,,,,,,,,,,,,,,,,,,,
293782,2022-10-06_16h10.50.743,vts_reward_expectancy,2022.2.4,Win32,120.6418145,Chrome,1536,960,,,,,0,585,,,,,,,,,,,,,,,,,174,D,hexagon,1,1,,,7,,,,,,,,,,,,,switch,letter,lettSwt,j,1.5445,vtsPrac,6,0,6,0,1,,,,,,,,,,,,,,,,,,,,,,,
293782,2022-10-06_16h10.50.743,vts_reward_expectancy,2022.2.4,Win32,120.6418145,Chrome,1536,960,,,,,0,585,,,,,,,,,,,,,,,,,139,B,circle,1,0,,,7,,,,,,,,,,,,,switch,number,numSwt,d,0.8646,vtsPrac,7,0,7,0,1,,,,,,,,,,,,,,,,,,,,,,,
293782,2022-10-06_16h10.50.743,vts_reward_expectancy,2022.2.4,Win32,120.6418145,Chrome,1536,960,,,,,0,585,,,,,,,,,,,,,,,,,125,H,star,1,0,,,7,,,,,,,,,,,,,repeat,number,numRpt,d,0.8342,vtsPrac,8,0,8,0,1,,,,,,,,,,,,,,,,,,,,,,,
293782,2022-10-06_16h10.50.743,vts_reward_expectancy,2022.2.4,Win32,120.6418145,Chrome,1536,960,,,,,0,585,,,,,,,,,,,,,,,,,139,F,hexagon,1,0,,,7,,,,,,,,,,,,,switch,letter,lettSwt,j,1.5208,vtsPrac,9,0,9,0,1,,,,,,,,,,,,,,,,,,,,,,,
293782,2022-10-06_16h10.50.743,vts_reward_expectancy,2022.2.4,Win32,120.6418145,Chrome,1536,960,,,,,0,585,,,,,,,,,,,,,,,,,174,B,hexagon,1,0,,,7,,,,,,,,,,,,,switch,number,numSwt,f,1.3425,vtsPrac,10,0,10,0,1,,,,,,,,,,,,,,,,,,,,,,,
293782,2022-10-06_16h10.50.743,vts_reward_expectancy,2022.2.4,Win32,120.6418145,Chrome,1536,960,,,,,0,585,,,,,,,,,,,,,,,,,181,W,circle,1,0,,,7,,,,,,,,,,,,,switch,letter,lettSwt,k,0.9251,vtsPrac,11,0,11,0,1,,,,,,,,,,,,,,,,,,,,,,,
293782,2022-10-06_16h10.50.743,vts_reward_expectancy,2022.2.4,Win32,120.6418145,Chrome,1536,960,,,,,0,585,,,,,,,,,,,,,,,,,146,U,triangle,1,0,,,7,,,,,,,,,,,,,switch,number,numSwt,d,2.1782,vtsPrac,12,0,12,0,1,,,,,,,,,,,,,,,,,,,,,,,
293782,2022-10-06_16h10.50.743,vts_reward_expectancy,2022.2.4,Win32,120.6418145,Chrome,1536,960,,,,,0,585,,,,,,,,,,,,,,,,,132,D,circle,1,0,,,7,,,,,,,,,,,,,switch,letter,lettSwt,j,0.7622,vtsPrac,13,0,13,0,1,,,,,,,,,,,,,,,,,,,,,,,
293782,2022-10-06_16h10.50.743,vts_reward_expectancy,2022.2.4,Win32,120.6418145,Chrome,1536,960,,,,,0,585,,,,,,,,,,,,,,,,,174,H,circle,1,0,,,7,,,,,,,,,,,,,switch,number,numSwt,f,1.601,vtsPrac,14,0,14,0,1,,,,,,,,,,,,,,,,,,,,,,,
293782,2022-10-06_16h10.50.743,vts_reward_expectancy,2022.2.4,Win32,120.6418145,Chrome,1536,960,,,,,0,585,,,,,,,,,,,,,,,,,181,F,hexagon,1,0,,,7,,,,,,,,,,,,,repeat,number,numRpt,f,1.7206,vtsPrac,15,0,15,0,1,,,,,,,,,,,,,,,,,,,,,,,
293782,2022-10-06_16h10.50.743,vts_reward_expectancy,2022.2.4,Win32,120.6418145,Chrome,1536,960,,,,,0,585,,,,,,,,,,,,,,,,,139,F,circle,1,0,,,8,,,,,,,,,,,,,repeat,number,numRpt,d,0.8119,vtsPrac,0,0,0,0,1,,,,,,,,,,,,,,,,,,,,,,,
293782,2022-10-06_16h10.50.743,vts_reward_expectancy,2022.2.4,Win32,120.6418145,Chrome,1536,960,,,,,0,585,,,,,,,,,,,,,,,,,167,S,hexagon,1,0,,,8,,,,,,,,,,,,,switch,letter,lettSwt,k,2.8117,vtsPrac,1,0,1,0,1,,,,,,,,,,,,,,,,,,,,,,,
293782,2022-10-06_16h10.50.743,vts_reward_expectancy,2022.2.4,Win32,120.6418145,Chrome,1536,960,,,,,0,585,,,,,,,,,,,,,,,,,181,D,circle,1,0,,,8,,,,,,,,,,,,,repeat,letter,lettRpt,j,1.3576,vtsPrac,2,0,2,0,1,,,,,,,,,,,,,,,,,,,,,,,
293782,2022-10-06_16h10.50.743,vts_reward_expectancy,2022.2.4,Win32,120.6418145,Chrome,1536,960,,,,,0,585,,,,,,,,,,,,,,,,,125,Y,hexagon,1,0,,,8,,,,,,,,,,,,,switch,number,numSwt,d,1.1154,vtsPrac,3,0,3,0,1,,,,,,,,,,,,,,,,,,,,,,,
293782,2022-10-06_16h10.50.743,vts_reward_expectancy,2022.2.4,Win32,120.6418145,Chrome,1536,960,,,,,0,585,,,,,,,,,,,,,,,,,139,F,star,1,0,,,8,,,,,,,,,,,,,switch,letter,lettSwt,j,1.5113,vtsPrac,4,0,4,0,1,,,,,,,,,,,,,,,,,,,,,,,
293782,2022-10-06_16h10.50.743,vts_reward_expectancy,2022.2.4,Win32,120.6418145,Chrome,1536,960,,,,,0,585,,,,,,,,,,,,,,,,,167,S,circle,1,0,,,8,,,,,,,,,,,,,switch,number,numSwt,f,0.6477,vtsPrac,5,0,5,0,1,,,,,,,,,,,,,,,,,,,,,,,
293782,2022-10-06_16h10.50.743,vts_reward_expectancy,2022.2.4,Win32,120.6418145,Chrome,1536,960,,,,,0,585,,,,,,,,,,,,,,,,,181,D,star,1,0,,,8,,,,,,,,,,,,,switch,letter,lettSwt,j,0.9734,vtsPrac,6,0,6,0,1,,,,,,,,,,,,,,,,,,,,,,,
293782,2022-10-06_16h10.50.743,vts_reward_expectancy,2022.2.4,Win32,120.6418145,Chrome,1536,960,,,,,0,585,,,,,,,,,,,,,,,,,125,Y,circle,1,0,,,8,,,,,,,,,,,,,switch,number,numSwt,d,0.7514,vtsPrac,7,0,7,0,1,,,,,,,,,,,,,,,,,,,,,,,
293782,2022-10-06_16h10.50.743,vts_reward_expectancy,2022.2.4,Win32,120.6418145,Chrome,1536,960,,,,,0,585,,,,,,,,,,,,,,,,,139,D,hexagon,1,0,,,8,,,,,,,,,,,,,switch,letter,lettSwt,j,0.7106,vtsPrac,8,0,8,0,1,,,,,,,,,,,,,,,,,,,,,,,
293782,2022-10-06_16h10.50.743,vts_reward_expectancy,2022.2.4,Win32,120.6418145,Chrome,1536,960,,,,,0,585,,,,,,,,,,,,,,,,,181,S,triangle,1,0,,,8,,,,,,,,,,,,,switch,number,numSwt,f,1.6785,vtsPrac,9,0,9,0,1,,,,,,,,,,,,,,,,,,,,,,,
293782,2022-10-06_16h10.50.743,vts_reward_expectancy,2022.2.4,Win32,120.6418145,Chrome,1536,960,,,,,0,585,,,,,,,,,,,,,,,,,146,W,star,1,0,,,8,,,,,,,,,,,,,switch,letter,lettSwt,k,1.653,vtsPrac,10,0,10,0,1,,,,,,,,,,,,,,,,,,,,,,,
293782,2022-10-06_16h10.50.743,vts_reward_expectancy,2022.2.4,Win32,120.6418145,Chrome,1536,960,,,,,0,585,,,,,,,,,,,,,,,,,167,Y,triangle,1,0,,,8,,,,,,,,,,,,,repeat,letter,lettRpt,k,0.9447,vtsPrac,11,0,11,0,1,,,,,,,,,,,,,,,,,,,,,,,
293782,2022-10-06_16h10.50.743,vts_reward_expectancy,2022.2.4,Win32,120.6418145,Chrome,1536,960,,,,,0,585,,,,,,,,,,,,,,,,,125,B,hexagon,1,0,,,8,,,,,,,,,,,,,switch,number,numSwt,d,0.4618,vtsPrac,12,0,12,0,1,,,,,,,,,,,,,,,,,,,,,,,
293782,2022-10-06_16h10.50.743,vts_reward_expectancy,2022.2.4,Win32,120.6418145,Chrome,1536,960,,,,,0,585,,,,,,,,,,,,,,,,,132,H,triangle,1,0,,,8,,,,,,,,,,,,,repeat,number,numRpt,d,1.3426,vtsPrac,13,0,13,0,1,,,,,,,,,,,,,,,,,,,,,,,
293782,2022-10-06_16h10.50.743,vts_reward_expectancy,2022.2.4,Win32,120.6418145,Chrome,1536,960,,,,,0,585,,,,,,,,,,,,,,,,,181,S,triangle,1,0,,,8,,,,,,,,,,,,,switch,letter,lettSwt,k,1.1206,vtsPrac,14,0,14,0,1,,,,,,,,,,,,,,,,,,,,,,,
293782,2022-10-06_16h10.50.743,vts_reward_expectancy,2022.2.4,Win32,120.6418145,Chrome,1536,960,,,,,0,585,,,,,,,,,,,,,,,,,146,Y,star,1,0,,,8,,,,,,,,,,,,,repeat,letter,lettRpt,k,0.8263,vtsPrac,15,0,15,0,1,,,,,,,,,,,,,,,,,,,,,,,
293782,2022-10-06_16h10.50.743,vts_reward_expectancy,2022.2.4,Win32,120.6418145,Chrome,1536,960,,,,,,,,,,,,,,,,,,,,,,,,,,,,,,,,,,,,,,,,,,,,,,,,,,,,,,,,,,,,,,,,,,,,,,,,,,,,
293782,2022-10-06_16h10.50.743,vts_reward_expectancy,2022.2.4,Win32,120.6418145,Chrome,1536,960,,,,,,,,,,,,,,,,,,,,,,,,,,,,,,,,,,,,,,,,,,,,,,,,,,,,,,,,,,,,,,,,,,,,,,,,,,,,
293782,2022-10-06_16h10.50.743,vts_reward_expectancy,2022.2.4,Win32,120.6418145,Chrome,1536,960,,,,,0,585,,,,,,,,,,,,,,,,,167,H,triangle,1,0,,,,,,,,,,,,,,,,switch,number,numSwt,f,1.7367,noRew,,,,,,0,0,0,0,0,1,,,,,,,,,,,,,,,,,
293782,2022-10-06_16h10.50.743,vts_reward_expectancy,2022.2.4,Win32,120.6418145,Chrome,1536,960,,,,,0,585,,,,,,,,,,,,,,,,,174,B,hexagon,1,0,,,,,,,,,,,,,,,,switch,letter,lettSwt,j,0.7692,noRew,,,,,,0,1,0,1,0,1,,,,,,,,,,,,,,,,,
293782,2022-10-06_16h10.50.743,vts_reward_expectancy,2022.2.4,Win32,120.6418145,Chrome,1536,960,,,,,0,585,,,,,,,,,,,,,,,,,125,F,triangle,0,0,,,,,,,,,,,,,,,,repeat,letter,NA,k,0.7667,noRew,,,,,,0,2,0,2,0,1,,,,,,,,,,,,,,,,,
293782,2022-10-06_16h10.50.743,vts_reward_expectancy,2022.2.4,Win32,120.6418145,Chrome,1536,960,,,,,0,585,,,,,,,,,,,,,,,,,132,U,hexagon,1,1,,,,,,,,,,,,,,,,repeat,letter,lettRpt,k,0.9963,noRew,,,,,,0,3,0,3,0,1,,,,,,,,,,,,,,,,,
293782,2022-10-06_16h10.50.743,vts_reward_expectancy,2022.2.4,Win32,120.6418145,Chrome,1536,960,,,,,0,585,,,,,,,,,,,,,,,,,167,H,hexagon,1,0,,,,,,,,,,,,,,,,switch,number,numSwt,f,0.6503,noRew,,,,,,0,4,0,4,0,1,,,,,,,,,,,,,,,,,
293782,2022-10-06_16h10.50.743,vts_reward_expectancy,2022.2.4,Win32,120.6418145,Chrome,1536,960,,,,,0,585,,,,,,,,,,,,,,,,,174,B,triangle,1,0,,,,,,,,,,,,,,,,switch,letter,lettSwt,j,0.7027,noRew,,,,,,0,5,0,5,0,1,,,,,,,,,,,,,,,,,
293782,2022-10-06_16h10.50.743,vts_reward_expectancy,2022.2.4,Win32,120.6418145,Chrome,1536,960,,,,,0,585,,,,,,,,,,,,,,,,,125,F,circle,1,0,,,,,,,,,,,,,,,,repeat,letter,lettRpt,j,1.0341,noRew,,,,,,0,6,0,6,0,1,,,,,,,,,,,,,,,,,
293782,2022-10-06_16h10.50.743,vts_reward_expectancy,2022.2.4,Win32,120.6418145,Chrome,1536,960,,,,,0,585,,,,,,,,,,,,,,,,,132,U,triangle,0,0,,,,,,,,,,,,,,,,repeat,letter,NA,j,1.1697,noRew,,,,,,0,7,0,7,0,1,,,,,,,,,,,,,,,,,
293782,2022-10-06_16h10.50.743,vts_reward_expectancy,2022.2.4,Win32,120.6418145,Chrome,1536,960,,,,,0,585,,,,,,,,,,,,,,,,,125,Y,circle,1,1,,,,,,,,,,,,,,,,repeat,letter,lettRpt,k,1.2253,noRew,,,,,,0,8,0,8,0,1,,,,,,,,,,,,,,,,,
293782,2022-10-06_16h10.50.743,vts_reward_expectancy,2022.2.4,Win32,120.6418145,Chrome,1536,960,,,,,0,585,,,,,,,,,,,,,,,,,132,B,triangle,1,0,,,,,,,,,,,,,,,,switch,number,numSwt,d,0.73,noRew,,,,,,0,9,0,9,0,1,,,,,,,,,,,,,,,,,
293782,2022-10-06_16h10.50.743,vts_reward_expectancy,2022.2.4,Win32,120.6418145,Chrome,1536,960,,,,,0,585,,,,,,,,,,,,,,,,,160,U,circle,1,0,,,,,,,,,,,,,,,,repeat,number,numRpt,f,0.8009,noRew,,,,,,0,10,0,10,0,1,,,,,,,,,,,,,,,,,
293782,2022-10-06_16h10.50.743,vts_reward_expectancy,2022.2.4,Win32,120.6418145,Chrome,1536,960,,,,,0,585,,,,,,,,,,,,,,,,,146,F,triangle,1,0,,,,,,,,,,,,,,,,repeat,number,numRpt,d,1.2858,noRew,,,,,,0,11,0,11,0,1,,,,,,,,,,,,,,,,,
293782,2022-10-06_16h10.50.743,vts_reward_expectancy,2022.2.4,Win32,120.6418145,Chrome,1536,960,,,,,0,585,,,,,,,,,,,,,,,,,181,U,star,1,0,,,,,,,,,,,,,,,,switch,letter,lettSwt,k,1.7189,noRew,,,,,,0,12,0,12,0,1,,,,,,,,,,,,,,,,,
293782,2022-10-06_16h10.50.743,vts_reward_expectancy,2022.2.4,Win32,120.6418145,Chrome,1536,960,,,,,0,585,,,,,,,,,,,,,,,,,146,Y,hexagon,1,0,,,,,,,,,,,,,,,,repeat,letter,lettRpt,k,1.6235,noRew,,,,,,0,13,0,13,0,1,,,,,,,,,,,,,,,,,
293782,2022-10-06_16h10.50.743,vts_reward_expectancy,2022.2.4,Win32,120.6418145,Chrome,1536,960,,,,,0,585,,,,,,,,,,,,,,,,,132,W,triangle,1,0,,,,,,,,,,,,,,,,switch,number,numSwt,d,1.0931,noRew,,,,,,0,14,0,14,0,1,,,,,,,,,,,,,,,,,
293782,2022-10-06_16h10.50.743,vts_reward_expectancy,2022.2.4,Win32,120.6418145,Chrome,1536,960,,,,,0,585,,,,,,,,,,,,,,,,,160,F,circle,0,0,,,,,,,,,,,,,,,,switch,letter,NA,k,1.0023,noRew,,,,,,0,15,0,15,0,1,,,,,,,,,,,,,,,,,
293782,2022-10-06_16h10.50.743,vts_reward_expectancy,2022.2.4,Win32,120.6418145,Chrome,1536,960,,,,,0,585,,,,,,,,,,,,,,,,,146,D,star,1,1,,,,,,,,,,,,,,,,repeat,letter,lettRpt,j,1.0351,noRew,,,,,,0,16,0,16,0,1,,,,,,,,,,,,,,,,,
293782,2022-10-06_16h10.50.743,vts_reward_expectancy,2022.2.4,Win32,120.6418145,Chrome,1536,960,,,,,0,585,,,,,,,,,,,,,,,,,174,F,triangle,1,0,,,,,,,,,,,,,,,,repeat,letter,lettRpt,j,1.5355,noRew,,,,,,0,17,0,17,0,1,,,,,,,,,,,,,,,,,
293782,2022-10-06_16h10.50.743,vts_reward_expectancy,2022.2.4,Win32,120.6418145,Chrome,1536,960,,,,,0,585,,,,,,,,,,,,,,,,,160,Y,triangle,1,0,,,,,,,,,,,,,,,,switch,number,numSwt,f,0.8949,noRew,,,,,,0,18,0,18,0,1,,,,,,,,,,,,,,,,,
293782,2022-10-06_16h10.50.743,vts_reward_expectancy,2022.2.4,Win32,120.6418145,Chrome,1536,960,,,,,0,585,,,,,,,,,,,,,,,,,167,S,star,1,0,,,,,,,,,,,,,,,,repeat,number,numRpt,f,1.0784,noRew,,,,,,0,19,0,19,0,1,,,,,,,,,,,,,,,,,
293782,2022-10-06_16h10.50.743,vts_reward_expectancy,2022.2.4,Win32,120.6418145,Chrome,1536,960,,,,,0,585,,,,,,,,,,,,,,,,,139,Y,hexagon,1,0,,,,,,,,,,,,,,,,switch,letter,lettSwt,k,1.6445,noRew,,,,,,0,20,0,20,0,1,,,,,,,,,,,,,,,,,
293782,2022-10-06_16h10.50.743,vts_reward_expectancy,2022.2.4,Win32,120.6418145,Chrome,1536,960,,,,,0,585,,,,,,,,,,,,,,,,,160,F,triangle,1,0,,,,,,,,,,,,,,,,switch,number,numSwt,f,1.8705,noRew,,,,,,0,21,0,21,0,1,,,,,,,,,,,,,,,,,
293782,2022-10-06_16h10.50.743,vts_reward_expectancy,2022.2.4,Win32,120.6418145,Chrome,1536,960,,,,,0,585,,,,,,,,,,,,,,,,,174,B,hexagon,1,0,,,,,,,,,,,,,,,,switch,letter,lettSwt,j,0.9764,noRew,,,,,,0,22,0,22,0,1,,,,,,,,,,,,,,,,,
293782,2022-10-06_16h10.50.743,vts_reward_expectancy,2022.2.4,Win32,120.6418145,Chrome,1536,960,,,,,0,585,,,,,,,,,,,,,,,,,181,S,star,1,0,,,,,,,,,,,,,,,,switch,number,numSwt,f,1.764,noRew,,,,,,0,23,0,23,0,1,,,,,,,,,,,,,,,,,
293782,2022-10-06_16h10.50.743,vts_reward_expectancy,2022.2.4,Win32,120.6418145,Chrome,1536,960,,,,,0,585,,,,,,,,,,,,,,,,,167,Y,circle,1,0,,,,,,,,,,,,,,,,switch,letter,lettSwt,k,1.1257,noRew,,,,,,0,24,0,24,0,1,,,,,,,,,,,,,,,,,
293782,2022-10-06_16h10.50.743,vts_reward_expectancy,2022.2.4,Win32,120.6418145,Chrome,1536,960,,,,,0,585,,,,,,,,,,,,,,,,,146,F,star,1,0,,,,,,,,,,,,,,,,repeat,letter,lettRpt,j,0.9677,noRew,,,,,,0,25,0,25,0,1,,,,,,,,,,,,,,,,,
293782,2022-10-06_16h10.50.743,vts_reward_expectancy,2022.2.4,Win32,120.6418145,Chrome,1536,960,,,,,0,585,,,,,,,,,,,,,,,,,125,S,triangle,1,0,,,,,,,,,,,,,,,,switch,number,numSwt,d,1.0102,noRew,,,,,,0,26,0,26,0,1,,,,,,,,,,,,,,,,,
293782,2022-10-06_16h10.50.743,vts_reward_expectancy,2022.2.4,Win32,120.6418145,Chrome,1536,960,,,,,0,585,,,,,,,,,,,,,,,,,181,D,circle,1,0,,,,,,,,,,,,,,,,switch,letter,lettSwt,j,1.1603,noRew,,,,,,0,27,0,27,0,1,,,,,,,,,,,,,,,,,
293782,2022-10-06_16h10.50.743,vts_reward_expectancy,2022.2.4,Win32,120.6418145,Chrome,1536,960,,,,,0,585,,,,,,,,,,,,,,,,,181,F,triangle,1,0,,,,,,,,,,,,,,,,repeat,letter,lettRpt,j,1.6996,noRew,,,,,,0,28,0,28,0,1,,,,,,,,,,,,,,,,,
293782,2022-10-06_16h10.50.743,vts_reward_expectancy,2022.2.4,Win32,120.6418145,Chrome,1536,960,,,,,0,585,,,,,,,,,,,,,,,,,167,U,hexagon,1,0,,,,,,,,,,,,,,,,switch,number,numSwt,f,1.3216,noRew,,,,,,0,29,0,29,0,1,,,,,,,,,,,,,,,,,
293782,2022-10-06_16h10.50.743,vts_reward_expectancy,2022.2.4,Win32,120.6418145,Chrome,1536,960,,,,,0,585,,,,,,,,,,,,,,,,,146,S,star,1,0,,,,,,,,,,,,,,,,repeat,number,numRpt,d,1.6639,noRew,,,,,,0,30,0,30,0,1,,,,,,,,,,,,,,,,,
293782,2022-10-06_16h10.50.743,vts_reward_expectancy,2022.2.4,Win32,120.6418145,Chrome,1536,960,,,,,0,585,,,,,,,,,,,,,,,,,174,W,circle,1,0,,,,,,,,,,,,,,,,switch,letter,lettSwt,k,1.9871,noRew,,,,,,0,31,0,31,0,1,,,,,,,,,,,,,,,,,
293782,2022-10-06_16h10.50.743,vts_reward_expectancy,2022.2.4,Win32,120.6418145,Chrome,1536,960,,,,,0,585,,,,,,,,,,,,,,,,,132,F,hexagon,1,0,,,,,,,,,,,,,,,,repeat,letter,lettRpt,j,1.1095,noRew,,,,,,0,32,0,32,0,1,,,,,,,,,,,,,,,,,
293782,2022-10-06_16h10.50.743,vts_reward_expectancy,2022.2.4,Win32,120.6418145,Chrome,1536,960,,,,,0,585,,,,,,,,,,,,,,,,,181,W,circle,1,0,,,,,,,,,,,,,,,,switch,number,numSwt,f,1.3183,noRew,,,,,,0,33,0,33,0,1,,,,,,,,,,,,,,,,,
293782,2022-10-06_16h10.50.743,vts_reward_expectancy,2022.2.4,Win32,120.6418145,Chrome,1536,960,,,,,0,585,,,,,,,,,,,,,,,,,146,U,triangle,1,0,,,,,,,,,,,,,,,,repeat,number,numRpt,d,1.9904,noRew,,,,,,0,34,0,34,0,1,,,,,,,,,,,,,,,,,
293782,2022-10-06_16h10.50.743,vts_reward_expectancy,2022.2.4,Win32,120.6418145,Chrome,1536,960,,,,,0,585,,,,,,,,,,,,,,,,,125,Y,circle,1,0,,,,,,,,,,,,,,,,switch,letter,lettSwt,k,0.8673,noRew,,,,,,0,35,0,35,0,1,,,,,,,,,,,,,,,,,
293782,2022-10-06_16h10.50.743,vts_reward_expectancy,2022.2.4,Win32,120.6418145,Chrome,1536,960,,,,,0,585,,,,,,,,,,,,,,,,,125,D,hexagon,1,0,,,,,,,,,,,,,,,,repeat,letter,lettRpt,j,0.951,noRew,,,,,,0,36,0,36,0,1,,,,,,,,,,,,,,,,,
293782,2022-10-06_16h10.50.743,vts_reward_expectancy,2022.2.4,Win32,120.6418145,Chrome,1536,960,,,,,0,585,,,,,,,,,,,,,,,,,139,U,triangle,1,0,,,,,,,,,,,,,,,,switch,number,numSwt,d,1.4686,noRew,,,,,,0,37,0,37,0,1,,,,,,,,,,,,,,,,,
293782,2022-10-06_16h10.50.743,vts_reward_expectancy,2022.2.4,Win32,120.6418145,Chrome,1536,960,,,,,0,585,,,,,,,,,,,,,,,,,181,B,circle,1,0,,,,,,,,,,,,,,,,switch,letter,lettSwt,j,0.8459,noRew,,,,,,0,38,0,38,0,1,,,,,,,,,,,,,,,,,
293782,2022-10-06_16h10.50.743,vts_reward_expectancy,2022.2.4,Win32,120.6418145,Chrome,1536,960,,,,,0,585,,,,,,,,,,,,,,,,,167,F,hexagon,1,0,,,,,,,,,,,,,,,,switch,number,numSwt,f,0.881,noRew,,,,,,0,39,0,39,0,1,,,,,,,,,,,,,,,,,
293782,2022-10-06_16h10.50.743,vts_reward_expectancy,2022.2.4,Win32,120.6418145,Chrome,1536,960,,,,,0,585,,,,,,,,,,,,,,,,,167,F,triangle,1,0,,,,,,,,,,,,,,,,switch,letter,lettSwt,j,1.4052,noRew,,,,,,0,40,0,40,0,1,,,,,,,,,,,,,,,,,
293782,2022-10-06_16h10.50.743,vts_reward_expectancy,2022.2.4,Win32,120.6418145,Chrome,1536,960,,,,,0,585,,,,,,,,,,,,,,,,,174,H,circle,1,0,,,,,,,,,,,,,,,,repeat,letter,lettRpt,j,2.8309,noRew,,,,,,0,41,0,41,0,1,,,,,,,,,,,,,,,,,
293782,2022-10-06_16h10.50.743,vts_reward_expectancy,2022.2.4,Win32,120.6418145,Chrome,1536,960,,,,,0,585,,,,,,,,,,,,,,,,,181,Y,hexagon,1,0,,,,,,,,,,,,,,,,repeat,letter,lettRpt,k,1.5318,noRew,,,,,,0,42,0,42,0,1,,,,,,,,,,,,,,,,,
293782,2022-10-06_16h10.50.743,vts_reward_expectancy,2022.2.4,Win32,120.6418145,Chrome,1536,960,,,,,0,585,,,,,,,,,,,,,,,,,125,D,triangle,1,0,,,,,,,,,,,,,,,,repeat,letter,lettRpt,j,1.2194,noRew,,,,,,0,43,0,43,0,1,,,,,,,,,,,,,,,,,
293782,2022-10-06_16h10.50.743,vts_reward_expectancy,2022.2.4,Win32,120.6418145,Chrome,1536,960,,,,,0,585,,,,,,,,,,,,,,,,,160,W,circle,1,0,,,,,,,,,,,,,,,,switch,number,numSwt,f,0.8348,noRew,,,,,,0,44,0,44,0,1,,,,,,,,,,,,,,,,,
293782,2022-10-06_16h10.50.743,vts_reward_expectancy,2022.2.4,Win32,120.6418145,Chrome,1536,960,,,,,0,585,,,,,,,,,,,,,,,,,139,D,hexagon,1,0,,,,,,,,,,,,,,,,repeat,number,numRpt,d,0.7378,noRew,,,,,,0,45,0,45,0,1,,,,,,,,,,,,,,,,,
293782,2022-10-06_16h10.50.743,vts_reward_expectancy,2022.2.4,Win32,120.6418145,Chrome,1536,960,,,,,0,585,,,,,,,,,,,,,,,,,167,S,star,1,0,,,,,,,,,,,,,,,,repeat,number,numRpt,f,0.7764,noRew,,,,,,0,46,0,46,0,1,,,,,,,,,,,,,,,,,
293782,2022-10-06_16h10.50.743,vts_reward_expectancy,2022.2.4,Win32,120.6418145,Chrome,1536,960,,,,,0,585,,,,,,,,,,,,,,,,,132,B,circle,1,0,,,,,,,,,,,,,,,,switch,letter,lettSwt,j,0.5801,noRew,,,,,,0,47,0,47,0,1,,,,,,,,,,,,,,,,,
293782,2022-10-06_16h10.50.743,vts_reward_expectancy,2022.2.4,Win32,120.6418145,Chrome,1536,960,,,,,0,585,,,,,,,,,,,,,,,,,146,W,triangle,1,0,,,,,,,,,,,,,,,,switch,number,numSwt,d,1.2352,noRew,,,,,,0,48,0,48,0,1,,,,,,,,,,,,,,,,,
293782,2022-10-06_16h10.50.743,vts_reward_expectancy,2022.2.4,Win32,120.6418145,Chrome,1536,960,,,,,0,585,,,,,,,,,,,,,,,,,132,B,hexagon,1,0,,,,,,,,,,,,,,,,switch,letter,lettSwt,j,1.2538,noRew,,,,,,0,49,0,49,0,1,,,,,,,,,,,,,,,,,
293782,2022-10-06_16h10.50.743,vts_reward_expectancy,2022.2.4,Win32,120.6418145,Chrome,1536,960,,,,,0,585,,,,,,,,,,,,,,,,,174,H,triangle,1,0,,,,,,,,,,,,,,,,repeat,letter,lettRpt,j,1.6516,noRew,,,,,,0,50,0,50,0,1,,,,,,,,,,,,,,,,,
293782,2022-10-06_16h10.50.743,vts_reward_expectancy,2022.2.4,Win32,120.6418145,Chrome,1536,960,,,,,0,585,,,,,,,,,,,,,,,,,181,F,star,1,0,,,,,,,,,,,,,,,,repeat,letter,lettRpt,j,1.6694,noRew,,,,,,0,51,0,51,0,1,,,,,,,,,,,,,,,,,
293782,2022-10-06_16h10.50.743,vts_reward_expectancy,2022.2.4,Win32,120.6418145,Chrome,1536,960,,,,,0,585,,,,,,,,,,,,,,,,,132,H,hexagon,1,0,,,,,,,,,,,,,,,,repeat,letter,lettRpt,j,1.778,noRew,,,,,,0,52,0,52,0,1,,,,,,,,,,,,,,,,,
293782,2022-10-06_16h10.50.743,vts_reward_expectancy,2022.2.4,Win32,120.6418145,Chrome,1536,960,,,,,0,585,,,,,,,,,,,,,,,,,125,Y,star,1,0,,,,,,,,,,,,,,,,repeat,letter,lettRpt,k,0.894,noRew,,,,,,0,53,0,53,0,1,,,,,,,,,,,,,,,,,
293782,2022-10-06_16h10.50.743,vts_reward_expectancy,2022.2.4,Win32,120.6418145,Chrome,1536,960,,,,,0,585,,,,,,,,,,,,,,,,,160,W,circle,1,0,,,,,,,,,,,,,,,,switch,number,numSwt,f,1.7244,noRew,,,,,,0,54,0,54,0,1,,,,,,,,,,,,,,,,,
293782,2022-10-06_16h10.50.743,vts_reward_expectancy,2022.2.4,Win32,120.6418145,Chrome,1536,960,,,,,0,585,,,,,,,,,,,,,,,,,181,F,star,1,0,,,,,,,,,,,,,,,,repeat,number,numRpt,f,1.042,noRew,,,,,,0,55,0,55,0,1,,,,,,,,,,,,,,,,,
293782,2022-10-06_16h10.50.743,vts_reward_expectancy,2022.2.4,Win32,120.6418145,Chrome,1536,960,,,,,0,585,,,,,,,,,,,,,,,,,125,H,triangle,1,0,,,,,,,,,,,,,,,,repeat,number,numRpt,d,0.5853,noRew,,,,,,0,56,0,56,0,1,,,,,,,,,,,,,,,,,
293782,2022-10-06_16h10.50.743,vts_reward_expectancy,2022.2.4,Win32,120.6418145,Chrome,1536,960,,,,,0,585,,,,,,,,,,,,,,,,,167,D,star,1,0,,,,,,,,,,,,,,,,repeat,number,numRpt,f,1.0638,noRew,,,,,,0,57,0,57,0,1,,,,,,,,,,,,,,,,,
293782,2022-10-06_16h10.50.743,vts_reward_expectancy,2022.2.4,Win32,120.6418145,Chrome,1536,960,,,,,0,585,,,,,,,,,,,,,,,,,181,Y,star,1,0,,,,,,,,,,,,,,,,repeat,number,numRpt,f,0.6103,noRew,,,,,,0,58,0,58,0,1,,,,,,,,,,,,,,,,,
293782,2022-10-06_16h10.50.743,vts_reward_expectancy,2022.2.4,Win32,120.6418145,Chrome,1536,960,,,,,0,585,,,,,,,,,,,,,,,,,132,W,circle,1,0,,,,,,,,,,,,,,,,repeat,number,numRpt,d,0.9038,noRew,,,,,,0,59,0,59,0,1,,,,,,,,,,,,,,,,,
293782,2022-10-06_16h10.50.743,vts_reward_expectancy,2022.2.4,Win32,120.6418145,Chrome,1536,960,,,,,0,585,,,,,,,,,,,,,,,,,174,S,triangle,1,0,,,,,,,,,,,,,,,,switch,letter,lettSwt,k,1.5794,noRew,,,,,,0,60,0,60,0,1,,,,,,,,,,,,,,,,,
293782,2022-10-06_16h10.50.743,vts_reward_expectancy,2022.2.4,Win32,120.6418145,Chrome,1536,960,,,,,0,585,,,,,,,,,,,,,,,,,160,Y,star,1,0,,,,,,,,,,,,,,,,repeat,letter,lettRpt,k,1.1507,noRew,,,,,,0,61,0,61,0,1,,,,,,,,,,,,,,,,,
293782,2022-10-06_16h10.50.743,vts_reward_expectancy,2022.2.4,Win32,120.6418145,Chrome,1536,960,,,,,0,585,,,,,,,,,,,,,,,,,139,H,hexagon,1,0,,,,,,,,,,,,,,,,repeat,letter,lettRpt,j,2.7326,noRew,,,,,,0,62,0,62,0,1,,,,,,,,,,,,,,,,,
293782,2022-10-06_16h10.50.743,vts_reward_expectancy,2022.2.4,Win32,120.6418145,Chrome,1536,960,,,,,0,585,,,,,,,,,,,,,,,,,181,U,star,1,0,,,,,,,,,,,,,,,,repeat,letter,lettRpt,k,1.7365,noRew,,,,,,0,63,0,63,0,1,,,,,,,,,,,,,,,,,
293782,2022-10-06_16h10.50.743,vts_reward_expectancy,2022.2.4,Win32,120.6418145,Chrome,1536,960,,,,,,,,,,,,,,,,,,,,,,,,,,,,,,,,,,,,,,,,,,,,,,,,,,,,,,,,,,,,,,,,,,,,,,,,,,,,
293782,2022-10-06_16h10.50.743,vts_reward_expectancy,2022.2.4,Win32,120.6418145,Chrome,1536,960,,,,,1,586,,,,,,,,,,,,,,,,,132,Y,triangle,1,0,,,,,,,,,,,,,,,,switch,number,numSwt,d,0.8949,Lo,,,,,,0,,,,,,space,11.3224,high,0,0,0,0,1,,,,,,,,,
293782,2022-10-06_16h10.50.743,vts_reward_expectancy,2022.2.4,Win32,120.6418145,Chrome,1536,960,,,,,0,586,,,,,,,,,,,,,,,,,139,D,hexagon,0,0,,,,,,,,,,,,,,,,switch,letter,NA,k,1.4652,Lo,,,,,,0,,,,,,,,high,1,0,1,0,1,,,,,,,,,
293782,2022-10-06_16h10.50.743,vts_reward_expectancy,2022.2.4,Win32,120.6418145,Chrome,1536,960,,,,,1,587,,,,,,,,,,,,,,,,,146,U,triangle,1,1,,,,,,,,,,,,,,,,repeat,letter,lettRpt,k,1.5532,Lo,,,,,,0,,,,,,,,high,2,0,2,0,1,,,,,,,,,
293782,2022-10-06_16h10.50.743,vts_reward_expectancy,2022.2.4,Win32,120.6418145,Chrome,1536,960,,,,,0,587,,,,,,,,,,,,,,,,,174,S,hexagon,1,0,,,,,,,,,,,,,,,,switch,number,numSwt,f,1.2287,Hi,,,,,,0,,,,,,,,high,3,0,3,0,1,,,,,,,,,
293782,2022-10-06_16h10.50.743,vts_reward_expectancy,2022.2.4,Win32,120.6418145,Chrome,1536,960,,,,,10,597,,,,,,,,,,,,,,,,,181,B,hexagon,1,0,,,,,,,,,,,,,,,,switch,letter,lettSwt,j,0.4874,Hi,,,,,,0,,,,,,,,high,4,0,4,0,1,,,,,,,,,
293782,2022-10-06_16h10.50.743,vts_reward_expectancy,2022.2.4,Win32,120.6418145,Chrome,1536,960,,,,,10,607,,,,,,,,,,,,,,,,,125,W,triangle,1,0,,,,,,,,,,,,,,,,switch,number,numSwt,d,0.2946,Lo,,,,,,0,,,,,,,,high,5,0,5,0,1,,,,,,,,,
293782,2022-10-06_16h10.50.743,vts_reward_expectancy,2022.2.4,Win32,120.6418145,Chrome,1536,960,,,,,0,607,,,,,,,,,,,,,,,,,167,F,triangle,0,0,,,,,,,,,,,,,,,,switch,letter,NA,k,0.6866,Lo,,,,,,0,,,,,,,,high,6,0,6,0,1,,,,,,,,,
293782,2022-10-06_16h10.50.743,vts_reward_expectancy,2022.2.4,Win32,120.6418145,Chrome,1536,960,,,,,0,607,,,,,,,,,,,,,,,,,160,H,hexagon,0,1,,,,,,,,,,,,,,,,repeat,letter,NA,k,0.8921,Lo,,,,,,0,,,,,,,,high,7,0,7,0,1,,,,,,,,,
293782,2022-10-06_16h10.50.743,vts_reward_expectancy,2022.2.4,Win32,120.6418145,Chrome,1536,960,,,,,10,617,,,,,,,,,,,,,,,,,132,Y,hexagon,1,1,,,,,,,,,,,,,,,,repeat,letter,lettRpt,k,0.6306,Hi,,,,,,0,,,,,,,,high,8,0,8,0,1,,,,,,,,,
293782,2022-10-06_16h10.50.743,vts_reward_expectancy,2022.2.4,Win32,120.6418145,Chrome,1536,960,,,,,10,627,,,,,,,,,,,,,,,,,139,D,triangle,1,0,,,,,,,,,,,,,,,,switch,number,numSwt,d,0.6382,Lo,,,,,,0,,,,,,,,high,9,0,9,0,1,,,,,,,,,
293782,2022-10-06_16h10.50.743,vts_reward_expectancy,2022.2.4,Win32,120.6418145,Chrome,1536,960,,,,,0,627,,,,,,,,,,,,,,,,,146,U,triangle,0,0,,,,,,,,,,,,,,,,repeat,number,NA,f,0.2837,Lo,,,,,,0,,,,,,,,high,10,0,10,0,1,,,,,,,,,
293782,2022-10-06_16h10.50.743,vts_reward_expectancy,2022.2.4,Win32,120.6418145,Chrome,1536,960,,,,,10,637,,,,,,,,,,,,,,,,,174,S,hexagon,1,1,,,,,,,,,,,,,,,,repeat,number,numRpt,f,0.6523,Hi,,,,,,0,,,,,,,,high,11,0,11,0,1,,,,,,,,,
293782,2022-10-06_16h10.50.743,vts_reward_expectancy,2022.2.4,Win32,120.6418145,Chrome,1536,960,,,,,1,638,,,,,,,,,,,,,,,,,181,B,hexagon,1,0,,,,,,,,,,,,,,,,switch,letter,lettSwt,j,0.4255,Hi,,,,,,0,,,,,,,,high,12,0,12,0,1,,,,,,,,,
293782,2022-10-06_16h10.50.743,vts_reward_expectancy,2022.2.4,Win32,120.6418145,Chrome,1536,960,,,,,1,639,,,,,,,,,,,,,,,,,125,W,triangle,1,0,,,,,,,,,,,,,,,,repeat,letter,lettRpt,k,0.6937,Lo,,,,,,0,,,,,,,,high,13,0,13,0,1,,,,,,,,,
293782,2022-10-06_16h10.50.743,vts_reward_expectancy,2022.2.4,Win32,120.6418145,Chrome,1536,960,,,,,0,639,,,,,,,,,,,,,,,,,167,F,hexagon,0,0,,,,,,,,,,,,,,,,repeat,letter,NA,k,0.6215,Lo,,,,,,0,,,,,,,,high,14,0,14,0,1,,,,,,,,,
293782,2022-10-06_16h10.50.743,vts_reward_expectancy,2022.2.4,Win32,120.6418145,Chrome,1536,960,,,,,0,639,,,,,,,,,,,,,,,,,160,H,triangle,0,1,,,,,,,,,,,,,,,,repeat,letter,NA,k,0.937,Lo,,,,,,0,,,,,,,,high,15,0,15,0,1,,,,,,,,,
293782,2022-10-06_16h10.50.743,vts_reward_expectancy,2022.2.4,Win32,120.6418145,Chrome,1536,960,,,,,10,649,,,,,,,,,,,,,,,,,174,Y,hexagon,1,1,,,,,,,,,,,,,,,,repeat,letter,lettRpt,k,0.8137,Hi,,,,,,0,,,,,,,,high,16,0,16,0,1,,,,,,,,,
293782,2022-10-06_16h10.50.743,vts_reward_expectancy,2022.2.4,Win32,120.6418145,Chrome,1536,960,,,,,1,650,,,,,,,,,,,,,,,,,181,F,triangle,1,0,,,,,,,,,,,,,,,,switch,number,numSwt,f,0.9836,Lo,,,,,,0,,,,,,,,high,17,0,17,0,1,,,,,,,,,
293782,2022-10-06_16h10.50.743,vts_reward_expectancy,2022.2.4,Win32,120.6418145,Chrome,1536,960,,,,,0,650,,,,,,,,,,,,,,,,,146,H,triangle,0,0,,,,,,,,,,,,,,,,switch,letter,NA,k,0.7768,Lo,,,,,,0,,,,,,,,high,18,0,18,0,1,,,,,,,,,
293782,2022-10-06_16h10.50.743,vts_reward_expectancy,2022.2.4,Win32,120.6418145,Chrome,1536,960,,,,,10,660,,,,,,,,,,,,,,,,,132,B,hexagon,1,1,,,,,,,,,,,,,,,,switch,number,numSwt,d,0.7302,Hi,,,,,,0,,,,,,,,high,19,0,19,0,1,,,,,,,,,
293782,2022-10-06_16h10.50.743,vts_reward_expectancy,2022.2.4,Win32,120.6418145,Chrome,1536,960,,,,,1,661,,,,,,,,,,,,,,,,,167,D,triangle,1,0,,,,,,,,,,,,,,,,switch,letter,lettSwt,j,0.8296,Lo,,,,,,0,,,,,,,,high,20,0,20,0,1,,,,,,,,,
293782,2022-10-06_16h10.50.743,vts_reward_expectancy,2022.2.4,Win32,120.6418145,Chrome,1536,960,,,,,0,661,,,,,,,,,,,,,,,,,139,W,hexagon,0,0,,,,,,,,,,,,,,,,repeat,letter,NA,j,1.0679,Lo,,,,,,0,,,,,,,,high,21,0,21,0,1,,,,,,,,,
293782,2022-10-06_16h10.50.743,vts_reward_expectancy,2022.2.4,Win32,120.6418145,Chrome,1536,960,,,,,0,661,,,,,,,,,,,,,,,,,125,S,hexagon,1,1,,,,,,,,,,,,,,,,switch,number,numSwt,d,1.0198,Hi,,,,,,0,,,,,,,,high,22,0,22,0,1,,,,,,,,,
293782,2022-10-06_16h10.50.743,vts_reward_expectancy,2022.2.4,Win32,120.6418145,Chrome,1536,960,,,,,1,662,,,,,,,,,,,,,,,,,160,U,triangle,1,0,,,,,,,,,,,,,,,,repeat,number,numRpt,f,0.7196,Lo,,,,,,0,,,,,,,,high,23,0,23,0,1,,,,,,,,,
293782,2022-10-06_16h10.50.743,vts_reward_expectancy,2022.2.4,Win32,120.6418145,Chrome,1536,960,,,,,0,662,,,,,,,,,,,,,,,,,139,D,hexagon,1,0,,,,,,,,,,,,,,,,switch,letter,lettSwt,j,1.0206,Hi,,,,,,0,,,,,,,,high,24,0,24,0,1,,,,,,,,,
293782,2022-10-06_16h10.50.743,vts_reward_expectancy,2022.2.4,Win32,120.6418145,Chrome,1536,960,,,,,1,663,,,,,,,,,,,,,,,,,125,W,triangle,1,0,,,,,,,,,,,,,,,,switch,number,numSwt,d,0.7913,Lo,,,,,,0,,,,,,,,high,25,0,25,0,1,,,,,,,,,
293782,2022-10-06_16h10.50.743,vts_reward_expectancy,2022.2.4,Win32,120.6418145,Chrome,1536,960,,,,,1,664,,,,,,,,,,,,,,,,,160,B,triangle,1,0,,,,,,,,,,,,,,,,switch,letter,lettSwt,j,0.4582,Lo,,,,,,0,,,,,,,,high,26,0,26,0,1,,,,,,,,,
293782,2022-10-06_16h10.50.743,vts_reward_expectancy,2022.2.4,Win32,120.6418145,Chrome,1536,960,,,,,10,674,,,,,,,,,,,,,,,,,146,H,hexagon,1,0,,,,,,,,,,,,,,,,switch,number,numSwt,d,0.6001,Hi,,,,,,0,,,,,,,,high,27,0,27,0,1,,,,,,,,,
293782,2022-10-06_16h10.50.743,vts_reward_expectancy,2022.2.4,Win32,120.6418145,Chrome,1536,960,,,,,1,675,,,,,,,,,,,,,,,,,132,Y,triangle,1,0,,,,,,,,,,,,,,,,repeat,number,numRpt,d,0.4924,Lo,,,,,,0,,,,,,,,high,28,0,28,0,1,,,,,,,,,
293782,2022-10-06_16h10.50.743,vts_reward_expectancy,2022.2.4,Win32,120.6418145,Chrome,1536,960,,,,,0,675,,,,,,,,,,,,,,,,,181,S,hexagon,1,0,,,,,,,,,,,,,,,,repeat,number,numRpt,f,1.1169,Hi,,,,,,0,,,,,,,,high,29,0,29,0,1,,,,,,,,,
293782,2022-10-06_16h10.50.743,vts_reward_expectancy,2022.2.4,Win32,120.6418145,Chrome,1536,960,,,,,1,676,,,,,,,,,,,,,,,,,174,U,triangle,1,0,,,,,,,,,,,,,,,,repeat,number,numRpt,f,0.6196,Lo,,,,,,0,,,,,,,,high,30,0,30,0,1,,,,,,,,,
293782,2022-10-06_16h10.50.743,vts_reward_expectancy,2022.2.4,Win32,120.6418145,Chrome,1536,960,,,,,0,676,,,,,,,,,,,,,,,,,167,F,hexagon,0,0,,,,,,,,,,,,,,,,switch,letter,NA,k,0.5347,Lo,,,,,,0,,,,,,,,high,31,0,31,0,1,,,,,,,,,
293782,2022-10-06_16h10.50.743,vts_reward_expectancy,2022.2.4,Win32,120.6418145,Chrome,1536,960,,,,,10,686,,,,,,,,,,,,,,,,,139,F,star,1,1,,,,,,,,,,,,,,,,switch,number,numSwt,d,0.5518,Lo,,,,,,1,,,,,,space,3.8429,low,0,0,0,0,1,,,,,,,,,
293782,2022-10-06_16h10.50.743,vts_reward_expectancy,2022.2.4,Win32,120.6418145,Chrome,1536,960,,,,,1,687,,,,,,,,,,,,,,,,,160,D,circle,1,0,,,,,,,,,,,,,,,,repeat,number,numRpt,f,0.3693,Hi,,,,,,1,,,,,,,,low,1,0,1,0,1,,,,,,,,,
293782,2022-10-06_16h10.50.743,vts_reward_expectancy,2022.2.4,Win32,120.6418145,Chrome,1536,960,,,,,1,688,,,,,,,,,,,,,,,,,167,B,star,1,0,,,,,,,,,,,,,,,,switch,letter,lettSwt,j,0.4855,Lo,,,,,,1,,,,,,,,low,2,0,2,0,1,,,,,,,,,
293782,2022-10-06_16h10.50.743,vts_reward_expectancy,2022.2.4,Win32,120.6418145,Chrome,1536,960,,,,,0,688,,,,,,,,,,,,,,,,,125,H,circle,0,0,,,,,,,,,,,,,,,,repeat,letter,NA,k,0.8168,Lo,,,,,,1,,,,,,,,low,3,0,3,0,1,,,,,,,,,
293782,2022-10-06_16h10.50.743,vts_reward_expectancy,2022.2.4,Win32,120.6418145,Chrome,1536,960,,,,,10,698,,,,,,,,,,,,,,,,,146,W,circle,1,1,,,,,,,,,,,,,,,,repeat,letter,lettRpt,k,0.0341,Hi,,,,,,1,,,,,,,,low,4,0,4,0,1,,,,,,,,,
293782,2022-10-06_16h10.50.743,vts_reward_expectancy,2022.2.4,Win32,120.6418145,Chrome,1536,960,,,,,1,699,,,,,,,,,,,,,,,,,132,U,star,1,0,,,,,,,,,,,,,,,,repeat,letter,lettRpt,k,0.0003,Lo,,,,,,1,,,,,,,,low,5,0,5,0,1,,,,,,,,,
293782,2022-10-06_16h10.50.743,vts_reward_expectancy,2022.2.4,Win32,120.6418145,Chrome,1536,960,,,,,0,699,,,,,,,,,,,,,,,,,181,S,circle,0,0,,,,,,,,,,,,,,,,repeat,letter,NA,j,0.1088,Lo,,,,,,1,,,,,,,,low,6,0,6,0,1,,,,,,,,,
293782,2022-10-06_16h10.50.743,vts_reward_expectancy,2022.2.4,Win32,120.6418145,Chrome,1536,960,,,,,0,699,,,,,,,,,,,,,,,,,174,Y,star,0,1,,,,,,,,,,,,,,,,switch,number,NA,d,0.0768,Lo,,,,,,1,,,,,,,,low,7,0,7,0,1,,,,,,,,,
293782,2022-10-06_16h10.50.743,vts_reward_expectancy,2022.2.4,Win32,120.6418145,Chrome,1536,960,,,,,1,700,,,,,,,,,,,,,,,,,139,F,star,1,1,,,,,,,,,,,,,,,,switch,letter,lettSwt,j,0.1248,Lo,,,,,,1,,,,,,,,low,8,0,8,0,1,,,,,,,,,
293782,2022-10-06_16h10.50.743,vts_reward_expectancy,2022.2.4,Win32,120.6418145,Chrome,1536,960,,,,,1,701,,,,,,,,,,,,,,,,,160,D,circle,1,0,,,,,,,,,,,,,,,,switch,number,numSwt,f,0.0037,Hi,,,,,,1,,,,,,,,low,9,0,9,0,1,,,,,,,,,
293782,2022-10-06_16h10.50.743,vts_reward_expectancy,2022.2.4,Win32,120.6418145,Chrome,1536,960,,,,,1,702,,,,,,,,,,,,,,,,,167,B,star,1,0,,,,,,,,,,,,,,,,repeat,number,numRpt,f,0.0113,Lo,,,,,,1,,,,,,,,low,10,0,10,0,1,,,,,,,,,
293782,2022-10-06_16h10.50.743,vts_reward_expectancy,2022.2.4,Win32,120.6418145,Chrome,1536,960,,,,,0,702,,,,,,,,,,,,,,,,,125,H,circle,0,0,,,,,,,,,,,,,,,,switch,letter,NA,k,0.0999,Lo,,,,,,1,,,,,,,,low,11,0,11,0,1,,,,,,,,,
293782,2022-10-06_16h10.50.743,vts_reward_expectancy,2022.2.4,Win32,120.6418145,Chrome,1536,960,,,,,0,702,,,,,,,,,,,,,,,,,146,W,star,0,1,,,,,,,,,,,,,,,,repeat,letter,NA,j,0.0254,Lo,,,,,,1,,,,,,,,low,12,0,12,0,1,,,,,,,,,
293782,2022-10-06_16h10.50.743,vts_reward_expectancy,2022.2.4,Win32,120.6418145,Chrome,1536,960,,,,,1,703,,,,,,,,,,,,,,,,,132,U,circle,1,1,,,,,,,,,,,,,,,,switch,number,numSwt,d,0.0086,Hi,,,,,,1,,,,,,,,low,13,0,13,0,1,,,,,,,,,
293782,2022-10-06_16h10.50.743,vts_reward_expectancy,2022.2.4,Win32,120.6418145,Chrome,1536,960,,,,,0,703,,,,,,,,,,,,,,,,,181,S,star,0,0,,,,,,,,,,,,,,,,switch,letter,NA,j,0.0223,Hi,,,,,,1,,,,,,,,low,14,0,14,0,1,,,,,,,,,
293782,2022-10-06_16h10.50.743,vts_reward_expectancy,2022.2.4,Win32,120.6418145,Chrome,1536,960,,,,,1,704,,,,,,,,,,,,,,,,,174,Y,circle,1,1,,,,,,,,,,,,,,,,repeat,letter,lettRpt,k,0.0336,Hi,,,,,,1,,,,,,,,low,15,0,15,0,1,,,,,,,,,
293782,2022-10-06_16h10.50.743,vts_reward_expectancy,2022.2.4,Win32,120.6418145,Chrome,1536,960,,,,,0,704,,,,,,,,,,,,,,,,,132,W,star,0,0,,,,,,,,,,,,,,,,repeat,letter,NA,j,0.0604,Hi,,,,,,1,,,,,,,,low,16,0,16,0,1,,,,,,,,,
293782,2022-10-06_16h10.50.743,vts_reward_expectancy,2022.2.4,Win32,120.6418145,Chrome,1536,960,,,,,0,704,,,,,,,,,,,,,,,,,174,D,circle,0,1,,,,,,,,,,,,,,,,repeat,letter,NA,k,0.1915,Hi,,,,,,1,,,,,,,,low,17,0,17,0,1,,,,,,,,,
293782,2022-10-06_16h10.50.743,vts_reward_expectancy,2022.2.4,Win32,120.6418145,Chrome,1536,960,,,,,0,704,,,,,,,,,,,,,,,,,125,F,circle,0,1,,,,,,,,,,,,,,,,repeat,letter,NA,k,0.0253,Hi,,,,,,1,,,,,,,,low,18,0,18,0,1,,,,,,,,,
293782,2022-10-06_16h10.50.743,vts_reward_expectancy,2022.2.4,Win32,120.6418145,Chrome,1536,960,,,,,0,704,,,,,,,,,,,,,,,,,167,H,star,0,1,,,,,,,,,,,,,,,,switch,number,NA,d,0.0405,Hi,,,,,,1,,,,,,,,low,19,0,19,0,1,,,,,,,,,
293782,2022-10-06_16h10.50.743,vts_reward_expectancy,2022.2.4,Win32,120.6418145,Chrome,1536,960,,,,,0,704,,,,,,,,,,,,,,,,,160,Y,circle,0,1,,,,,,,,,,,,,,,,repeat,number,NA,d,0.0327,Hi,,,,,,1,,,,,,,,low,20,0,20,0,1,,,,,,,,,
293782,2022-10-06_16h10.50.743,vts_reward_expectancy,2022.2.4,Win32,120.6418145,Chrome,1536,960,,,,,1,705,,,,,,,,,,,,,,,,,139,B,star,1,1,,,,,,,,,,,,,,,,repeat,number,numRpt,d,0.3522,Lo,,,,,,1,,,,,,,,low,21,0,21,0,1,,,,,,,,,
293782,2022-10-06_16h10.50.743,vts_reward_expectancy,2022.2.4,Win32,120.6418145,Chrome,1536,960,,,,,10,715,,,,,,,,,,,,,,,,,146,S,star,1,0,,,,,,,,,,,,,,,,switch,letter,lettSwt,k,0.4736,Lo,,,,,,1,,,,,,,,low,22,0,22,0,1,,,,,,,,,
293782,2022-10-06_16h10.50.743,vts_reward_expectancy,2022.2.4,Win32,120.6418145,Chrome,1536,960,,,,,0,715,,,,,,,,,,,,,,,,,181,U,circle,0,0,,,,,,,,,,,,,,,,repeat,letter,NA,j,0.4742,Lo,,,,,,1,,,,,,,,low,23,0,23,0,1,,,,,,,,,
293782,2022-10-06_16h10.50.743,vts_reward_expectancy,2022.2.4,Win32,120.6418145,Chrome,1536,960,,,,,10,725,,,,,,,,,,,,,,,,,139,S,star,1,1,,,,,,,,,,,,,,,,switch,number,numSwt,d,0.4618,Lo,,,,,,1,,,,,,,,low,24,0,24,0,1,,,,,,,,,
293782,2022-10-06_16h10.50.743,vts_reward_expectancy,2022.2.4,Win32,120.6418145,Chrome,1536,960,,,,,0,725,,,,,,,,,,,,,,,,,132,F,circle,0,0,,,,,,,,,,,,,,,,switch,letter,NA,k,0.5796,Lo,,,,,,1,,,,,,,,low,25,0,25,0,1,,,,,,,,,
293782,2022-10-06_16h10.50.743,vts_reward_expectancy,2022.2.4,Win32,120.6418145,Chrome,1536,960,,,,,0,725,,,,,,,,,,,,,,,,,167,W,star,0,1,,,,,,,,,,,,,,,,switch,number,NA,d,0.7006,Lo,,,,,,1,,,,,,,,low,26,0,26,0,1,,,,,,,,,
293782,2022-10-06_16h10.50.743,vts_reward_expectancy,2022.2.4,Win32,120.6418145,Chrome,1536,960,,,,,10,735,,,,,,,,,,,,,,,,,181,Y,circle,1,1,,,,,,,,,,,,,,,,repeat,number,numRpt,f,0.5038,Hi,,,,,,1,,,,,,,,low,27,0,27,0,1,,,,,,,,,
293782,2022-10-06_16h10.50.743,vts_reward_expectancy,2022.2.4,Win32,120.6418145,Chrome,1536,960,,,,,0,735,,,,,,,,,,,,,,,,,174,D,circle,1,0,,,,,,,,,,,,,,,,repeat,number,numRpt,f,0.6622,Hi,,,,,,1,,,,,,,,low,28,0,28,0,1,,,,,,,,,
293782,2022-10-06_16h10.50.743,vts_reward_expectancy,2022.2.4,Win32,120.6418145,Chrome,1536,960,,,,,1,736,,,,,,,,,,,,,,,,,160,H,star,1,0,,,,,,,,,,,,,,,,switch,letter,lettSwt,j,0.0601,Lo,,,,,,1,,,,,,,,low,29,0,29,0,1,,,,,,,,,
293782,2022-10-06_16h10.50.743,vts_reward_expectancy,2022.2.4,Win32,120.6418145,Chrome,1536,960,,,,,10,746,,,,,,,,,,,,,,,,,146,B,circle,1,0,,,,,,,,,,,,,,,,switch,number,numSwt,d,0.0421,Hi,,,,,,1,,,,,,,,low,30,0,30,0,1,,,,,,,,,
293782,2022-10-06_16h10.50.743,vts_reward_expectancy,2022.2.4,Win32,120.6418145,Chrome,1536,960,,,,,0,746,,,,,,,,,,,,,,,,,125,U,star,0,0,,,,,,,,,,,,,,,,switch,letter,NA,j,0.0123,Hi,,,,,,1,,,,,,,,low,31,0,31,0,1,,,,,,,,,
293782,2022-10-06_16h10.50.743,vts_reward_expectancy,2022.2.4,Win32,120.6418145,Chrome,1536,960,,,,,10,756,,,,,,,,,,,,,,,,,125,S,hexagon,1,1,,,,,,,,,,,,,,,,switch,number,numSwt,d,0.0135,Hi,,,,,,2,,,,,,space,1.7828,high,0,0,0,0,1,,,,,,,,,
293782,2022-10-06_16h10.50.743,vts_reward_expectancy,2022.2.4,Win32,120.6418145,Chrome,1536,960,,,,,0,756,,,,,,,,,,,,,,,,,160,Y,triangle,0,0,,,,,,,,,,,,,,,,repeat,number,NA,d,0.0006,Hi,,,,,,2,,,,,,,,high,1,0,1,0,1,,,,,,,,,
293782,2022-10-06_16h10.50.743,vts_reward_expectancy,2022.2.4,Win32,120.6418145,Chrome,1536,960,,,,,10,766,,,,,,,,,,,,,,,,,132,B,hexagon,1,1,,,,,,,,,,,,,,,,repeat,number,numRpt,d,0.027,Hi,,,,,,2,,,,,,,,high,2,0,2,0,1,,,,,,,,,
293782,2022-10-06_16h10.50.743,vts_reward_expectancy,2022.2.4,Win32,120.6418145,Chrome,1536,960,,,,,0,766,,,,,,,,,,,,,,,,,167,U,triangle,0,0,,,,,,,,,,,,,,,,switch,letter,NA,j,0.0309,Hi,,,,,,2,,,,,,,,high,3,0,3,0,1,,,,,,,,,
293782,2022-10-06_16h10.50.743,vts_reward_expectancy,2022.2.4,Win32,120.6418145,Chrome,1536,960,,,,,0,766,,,,,,,,,,,,,,,,,174,F,hexagon,0,1,,,,,,,,,,,,,,,,repeat,letter,NA,k,0.0782,Hi,,,,,,2,,,,,,,,high,4,0,4,0,1,,,,,,,,,
293782,2022-10-06_16h10.50.743,vts_reward_expectancy,2022.2.4,Win32,120.6418145,Chrome,1536,960,,,,,1,767,,,,,,,,,,,,,,,,,139,W,triangle,1,1,,,,,,,,,,,,,,,,repeat,letter,lettRpt,k,0.0085,Lo,,,,,,2,,,,,,,,high,5,0,5,0,1,,,,,,,,,
293782,2022-10-06_16h10.50.743,vts_reward_expectancy,2022.2.4,Win32,120.6418145,Chrome,1536,960,,,,,1,768,,,,,,,,,,,,,,,,,146,D,triangle,1,0,,,,,,,,,,,,,,,,repeat,letter,lettRpt,j,0.1346,Lo,,,,,,2,,,,,,,,high,6,0,6,0,1,,,,,,,,,
293782,2022-10-06_16h10.50.743,vts_reward_expectancy,2022.2.4,Win32,120.6418145,Chrome,1536,960,,,,,0,768,,,,,,,,,,,,,,,,,181,H,hexagon,0,0,,,,,,,,,,,,,,,,switch,number,NA,d,0.1006,Lo,,,,,,2,,,,,,,,high,7,0,7,0,1,,,,,,,,,
293782,2022-10-06_16h10.50.743,vts_reward_expectancy,2022.2.4,Win32,120.6418145,Chrome,1536,960,,,,,0,768,,,,,,,,,,,,,,,,,125,S,hexagon,0,1,,,,,,,,,,,,,,,,switch,letter,NA,j,0.0007,Lo,,,,,,2,,,,,,,,high,8,0,8,0,1,,,,,,,,,
293782,2022-10-06_16h10.50.743,vts_reward_expectancy,2022.2.4,Win32,120.6418145,Chrome,1536,960,,,,,0,768,,,,,,,,,,,,,,,,,160,Y,triangle,0,1,,,,,,,,,,,,,,,,switch,number,NA,d,0.0874,Lo,,,,,,2,,,,,,,,high,9,0,9,0,1,,,,,,,,,
293782,2022-10-06_16h10.50.743,vts_reward_expectancy,2022.2.4,Win32,120.6418145,Chrome,1536,960,,,,,0,768,,,,,,,,,,,,,,,,,132,B,hexagon,0,1,,,,,,,,,,,,,,,,switch,letter,NA,k,0.2209,Lo,,,,,,2,,,,,,,,high,10,0,10,0,1,,,,,,,,,
293782,2022-10-06_16h10.50.743,vts_reward_expectancy,2022.2.4,Win32,120.6418145,Chrome,1536,960,,,,,1,769,,,,,,,,,,,,,,,,,167,U,triangle,1,1,,,,,,,,,,,,,,,,switch,number,numSwt,f,0.0833,Lo,,,,,,2,,,,,,,,high,11,0,11,0,1,,,,,,,,,
293782,2022-10-06_16h10.50.743,vts_reward_expectancy,2022.2.4,Win32,120.6418145,Chrome,1536,960,,,,,10,779,,,,,,,,,,,,,,,,,174,F,triangle,1,0,,,,,,,,,,,,,,,,repeat,number,numRpt,f,0.1512,Lo,,,,,,2,,,,,,,,high,12,0,12,0,1,,,,,,,,,
293782,2022-10-06_16h10.50.743,vts_reward_expectancy,2022.2.4,Win32,120.6418145,Chrome,1536,960,,,,,1,780,,,,,,,,,,,,,,,,,139,W,hexagon,1,0,,,,,,,,,,,,,,,,repeat,number,numRpt,d,0.0004,Hi,,,,,,2,,,,,,,,high,13,0,13,0,1,,,,,,,,,
293782,2022-10-06_16h10.50.743,vts_reward_expectancy,2022.2.4,Win32,120.6418145,Chrome,1536,960,,,,,0,780,,,,,,,,,,,,,,,,,146,D,triangle,0,0,,,,,,,,,,,,,,,,repeat,number,NA,f,0.041,Hi,,,,,,2,,,,,,,,high,14,0,14,0,1,,,,,,,,,
293782,2022-10-06_16h10.50.743,vts_reward_expectancy,2022.2.4,Win32,120.6418145,Chrome,1536,960,,,,,0,780,,,,,,,,,,,,,,,,,181,H,hexagon,0,1,,,,,,,,,,,,,,,,switch,letter,NA,k,0.0033,Hi,,,,,,2,,,,,,,,high,15,0,15,0,1,,,,,,,,,
293782,2022-10-06_16h10.50.743,vts_reward_expectancy,2022.2.4,Win32,120.6418145,Chrome,1536,960,,,,,0,780,,,,,,,,,,,,,,,,,132,S,triangle,0,1,,,,,,,,,,,,,,,,repeat,letter,NA,j,0.0848,Hi,,,,,,2,,,,,,,,high,16,0,16,0,1,,,,,,,,,
293782,2022-10-06_16h10.50.743,vts_reward_expectancy,2022.2.4,Win32,120.6418145,Chrome,1536,960,,,,,0,780,,,,,,,,,,,,,,,,,174,H,hexagon,0,1,,,,,,,,,,,,,,,,repeat,letter,NA,k,0.3926,Hi,,,,,,2,,,,,,,,high,17,0,17,0,1,,,,,,,,,
293782,2022-10-06_16h10.50.743,vts_reward_expectancy,2022.2.4,Win32,120.6418145,Chrome,1536,960,,,,,0,780,,,,,,,,,,,,,,,,,146,D,triangle,0,1,,,,,,,,,,,,,,,,repeat,letter,NA,k,0.3797,Hi,,,,,,2,,,,,,,,high,18,0,18,0,1,,,,,,,,,
293782,2022-10-06_16h10.50.743,vts_reward_expectancy,2022.2.4,Win32,120.6418145,Chrome,1536,960,,,,,0,780,,,,,,,,,,,,,,,,,139,B,hexagon,0,1,,,,,,,,,,,,,,,,repeat,letter,NA,k,0.0767,Hi,,,,,,2,,,,,,,,high,19,0,19,0,1,,,,,,,,,
293782,2022-10-06_16h10.50.743,vts_reward_expectancy,2022.2.4,Win32,120.6418145,Chrome,1536,960,,,,,0,780,,,,,,,,,,,,,,,,,167,U,hexagon,0,1,,,,,,,,,,,,,,,,repeat,letter,NA,j,0.0006,Hi,,,,,,2,,,,,,,,high,20,0,20,0,1,,,,,,,,,
293782,2022-10-06_16h10.50.743,vts_reward_expectancy,2022.2.4,Win32,120.6418145,Chrome,1536,960,,,,,1,781,,,,,,,,,,,,,,,,,125,Y,triangle,1,1,,,,,,,,,,,,,,,,repeat,letter,lettRpt,k,0.0998,Lo,,,,,,2,,,,,,,,high,21,0,21,0,1,,,,,,,,,
293782,2022-10-06_16h10.50.743,vts_reward_expectancy,2022.2.4,Win32,120.6418145,Chrome,1536,960,,,,,0,781,,,,,,,,,,,,,,,,,181,W,triangle,0,0,,,,,,,,,,,,,,,,repeat,letter,NA,j,0.0074,Lo,,,,,,2,,,,,,,,high,22,0,22,0,1,,,,,,,,,
293782,2022-10-06_16h10.50.743,vts_reward_expectancy,2022.2.4,Win32,120.6418145,Chrome,1536,960,,,,,0,781,,,,,,,,,,,,,,,,,160,F,hexagon,1,1,,,,,,,,,,,,,,,,repeat,letter,lettRpt,j,0.0268,Hi,,,,,,2,,,,,,,,high,23,0,23,0,1,,,,,,,,,
293782,2022-10-06_16h10.50.743,vts_reward_expectancy,2022.2.4,Win32,120.6418145,Chrome,1536,960,,,,,0,781,,,,,,,,,,,,,,,,,181,Y,hexagon,0,0,,,,,,,,,,,,,,,,repeat,letter,NA,j,0.0944,Hi,,,,,,2,,,,,,,,high,24,0,24,0,1,,,,,,,,,
293782,2022-10-06_16h10.50.743,vts_reward_expectancy,2022.2.4,Win32,120.6418145,Chrome,1536,960,,,,,1,782,,,,,,,,,,,,,,,,,132,U,triangle,1,1,,,,,,,,,,,,,,,,switch,number,numSwt,d,0.5438,Lo,,,,,,2,,,,,,,,high,25,0,25,0,1,,,,,,,,,
293782,2022-10-06_16h10.50.743,vts_reward_expectancy,2022.2.4,Win32,120.6418145,Chrome,1536,960,,,,,0,782,,,,,,,,,,,,,,,,,125,S,hexagon,1,0,,,,,,,,,,,,,,,,switch,letter,lettSwt,k,0.1687,Hi,,,,,,2,,,,,,,,high,26,0,26,0,1,,,,,,,,,
293782,2022-10-06_16h10.50.743,vts_reward_expectancy,2022.2.4,Win32,120.6418145,Chrome,1536,960,,,,,10,792,,,,,,,,,,,,,,,,,139,H,triangle,1,0,,,,,,,,,,,,,,,,switch,number,numSwt,d,1.0184,Lo,,,,,,2,,,,,,,,high,27,0,27,0,1,,,,,,,,,
293782,2022-10-06_16h10.50.743,vts_reward_expectancy,2022.2.4,Win32,120.6418145,Chrome,1536,960,,,,,1,793,,,,,,,,,,,,,,,,,167,D,triangle,1,0,,,,,,,,,,,,,,,,repeat,number,numRpt,f,0.7858,Lo,,,,,,2,,,,,,,,high,28,0,28,0,1,,,,,,,,,
293782,2022-10-06_16h10.50.743,vts_reward_expectancy,2022.2.4,Win32,120.6418145,Chrome,1536,960,,,,,10,803,,,,,,,,,,,,,,,,,146,F,hexagon,1,0,,,,,,,,,,,,,,,,repeat,number,numRpt,d,0.3007,Hi,,,,,,2,,,,,,,,high,29,0,29,0,1,,,,,,,,,
293782,2022-10-06_16h10.50.743,vts_reward_expectancy,2022.2.4,Win32,120.6418145,Chrome,1536,960,,,,,1,804,,,,,,,,,,,,,,,,,160,W,triangle,1,0,,,,,,,,,,,,,,,,repeat,number,numRpt,f,0.4282,Lo,,,,,,2,,,,,,,,high,30,0,30,0,1,,,,,,,,,
293782,2022-10-06_16h10.50.743,vts_reward_expectancy,2022.2.4,Win32,120.6418145,Chrome,1536,960,,,,,0,804,,,,,,,,,,,,,,,,,174,B,hexagon,1,0,,,,,,,,,,,,,,,,switch,letter,lettSwt,j,0.9271,Hi,,,,,,2,,,,,,,,high,31,0,31,0,1,,,,,,,,,
293782,2022-10-06_16h10.50.743,vts_reward_expectancy,2022.2.4,Win32,120.6418145,Chrome,1536,960,,,,,0,804,,,,,,,,,,,,,,,,,132,F,circle,0,0,,,,,,,,,,,,,,,,switch,number,NA,f,0.1006,Hi,,,,,,3,,,,,,space,2.6326,low,0,0,0,0,1,,,,,,,,,
293782,2022-10-06_16h10.50.743,vts_reward_expectancy,2022.2.4,Win32,120.6418145,Chrome,1536,960,,,,,0,804,,,,,,,,,,,,,,,,,174,H,star,0,1,,,,,,,,,,,,,,,,switch,letter,NA,k,0.0064,Hi,,,,,,3,,,,,,,,low,1,0,1,0,1,,,,,,,,,
293782,2022-10-06_16h10.50.743,vts_reward_expectancy,2022.2.4,Win32,120.6418145,Chrome,1536,960,,,,,0,804,,,,,,,,,,,,,,,,,160,Y,circle,1,1,,,,,,,,,,,,,,,,repeat,letter,lettRpt,k,0.1428,Hi,,,,,,3,,,,,,,,low,2,0,2,0,1,,,,,,,,,
293782,2022-10-06_16h10.50.743,vts_reward_expectancy,2022.2.4,Win32,120.6418145,Chrome,1536,960,,,,,0,804,,,,,,,,,,,,,,,,,167,W,star,0,0,,,,,,,,,,,,,,,,repeat,letter,NA,j,0.026,Hi,,,,,,3,,,,,,,,low,3,0,3,0,1,,,,,,,,,
293782,2022-10-06_16h10.50.743,vts_reward_expectancy,2022.2.4,Win32,120.6418145,Chrome,1536,960,,,,,0,804,,,,,,,,,,,,,,,,,139,S,circle,0,1,,,,,,,,,,,,,,,,switch,number,NA,f,0.0189,Hi,,,,,,3,,,,,,,,low,4,0,4,0,1,,,,,,,,,
293782,2022-10-06_16h10.50.743,vts_reward_expectancy,2022.2.4,Win32,120.6418145,Chrome,1536,960,,,,,0,804,,,,,,,,,,,,,,,,,125,B,star,0,1,,,,,,,,,,,,,,,,switch,letter,NA,k,0.1347,Hi,,,,,,3,,,,,,,,low,5,0,5,0,1,,,,,,,,,
293782,2022-10-06_16h10.50.743,vts_reward_expectancy,2022.2.4,Win32,120.6418145,Chrome,1536,960,,,,,10,814,,,,,,,,,,,,,,,,,146,U,circle,1,1,,,,,,,,,,,,,,,,repeat,letter,lettRpt,k,0.0005,Hi,,,,,,3,,,,,,,,low,6,0,6,0,1,,,,,,,,,
293782,2022-10-06_16h10.50.743,vts_reward_expectancy,2022.2.4,Win32,120.6418145,Chrome,1536,960,,,,,10,824,,,,,,,,,,,,,,,,,181,D,star,1,0,,,,,,,,,,,,,,,,switch,number,numSwt,f,0.0324,Lo,,,,,,3,,,,,,,,low,7,0,7,0,1,,,,,,,,,
293782,2022-10-06_16h10.50.743,vts_reward_expectancy,2022.2.4,Win32,120.6418145,Chrome,1536,960,,,,,0,824,,,,,,,,,,,,,,,,,132,F,star,0,0,,,,,,,,,,,,,,,,switch,letter,NA,k,0.0266,Lo,,,,,,3,,,,,,,,low,8,0,8,0,1,,,,,,,,,
293782,2022-10-06_16h10.50.743,vts_reward_expectancy,2022.2.4,Win32,120.6418145,Chrome,1536,960,,,,,0,824,,,,,,,,,,,,,,,,,174,H,circle,0,1,,,,,,,,,,,,,,,,repeat,letter,NA,k,0.1083,Lo,,,,,,3,,,,,,,,low,9,0,9,0,1,,,,,,,,,
293782,2022-10-06_16h10.50.743,vts_reward_expectancy,2022.2.4,Win32,120.6418145,Chrome,1536,960,,,,,1,825,,,,,,,,,,,,,,,,,160,Y,star,1,1,,,,,,,,,,,,,,,,switch,number,numSwt,f,0.017,Lo,,,,,,3,,,,,,,,low,10,0,10,0,1,,,,,,,,,
293782,2022-10-06_16h10.50.743,vts_reward_expectancy,2022.2.4,Win32,120.6418145,Chrome,1536,960,,,,,0,825,,,,,,,,,,,,,,,,,167,W,circle,0,0,,,,,,,,,,,,,,,,switch,letter,NA,j,0.065,Lo,,,,,,3,,,,,,,,low,11,0,11,0,1,,,,,,,,,
293782,2022-10-06_16h10.50.743,vts_reward_expectancy,2022.2.4,Win32,120.6418145,Chrome,1536,960,,,,,1,826,,,,,,,,,,,,,,,,,139,S,star,1,1,,,,,,,,,,,,,,,,repeat,letter,lettRpt,k,0.0018,Lo,,,,,,3,,,,,,,,low,12,0,12,0,1,,,,,,,,,
293782,2022-10-06_16h10.50.743,vts_reward_expectancy,2022.2.4,Win32,120.6418145,Chrome,1536,960,,,,,0,826,,,,,,,,,,,,,,,,,125,B,circle,1,0,,,,,,,,,,,,,,,,repeat,letter,lettRpt,j,0.0723,Hi,,,,,,3,,,,,,,,low,13,0,13,0,1,,,,,,,,,
293782,2022-10-06_16h10.50.743,vts_reward_expectancy,2022.2.4,Win32,120.6418145,Chrome,1536,960,,,,,0,826,,,,,,,,,,,,,,,,,146,U,star,0,0,,,,,,,,,,,,,,,,switch,number,NA,f,0.0069,Hi,,,,,,3,,,,,,,,low,14,0,14,0,1,,,,,,,,,
293782,2022-10-06_16h10.50.743,vts_reward_expectancy,2022.2.4,Win32,120.6418145,Chrome,1536,960,,,,,0,826,,,,,,,,,,,,,,,,,181,D,circle,0,1,,,,,,,,,,,,,,,,repeat,number,NA,d,0.5255,Hi,,,,,,3,,,,,,,,low,15,0,15,0,1,,,,,,,,,
293782,2022-10-06_16h10.50.743,vts_reward_expectancy,2022.2.4,Win32,120.6418145,Chrome,1536,960,,,,,0,826,,,,,,,,,,,,,,,,,125,H,star,0,1,,,,,,,,,,,,,,,,repeat,number,NA,f,0.3272,Hi,,,,,,3,,,,,,,,low,16,0,16,0,1,,,,,,,,,
293782,2022-10-06_16h10.50.743,vts_reward_expectancy,2022.2.4,Win32,120.6418145,Chrome,1536,960,,,,,0,826,,,,,,,,,,,,,,,,,132,U,circle,0,1,,,,,,,,,,,,,,,,repeat,number,NA,f,0.3531,Hi,,,,,,3,,,,,,,,low,17,0,17,0,1,,,,,,,,,
293782,2022-10-06_16h10.50.743,vts_reward_expectancy,2022.2.4,Win32,120.6418145,Chrome,1536,960,,,,,1,827,,,,,,,,,,,,,,,,,160,B,star,1,1,,,,,,,,,,,,,,,,repeat,number,numRpt,f,0.3793,Lo,,,,,,3,,,,,,,,low,18,0,18,0,1,,,,,,,,,
293782,2022-10-06_16h10.50.743,vts_reward_expectancy,2022.2.4,Win32,120.6418145,Chrome,1536,960,,,,,0,827,,,,,,,,,,,,,,,,,146,S,circle,1,0,,,,,,,,,,,,,,,,switch,letter,lettSwt,k,0.5346,Hi,,,,,,3,,,,,,,,low,19,0,19,0,1,,,,,,,,,
293782,2022-10-06_16h10.50.743,vts_reward_expectancy,2022.2.4,Win32,120.6418145,Chrome,1536,960,,,,,0,827,,,,,,,,,,,,,,,,,139,Y,circle,0,0,,,,,,,,,,,,,,,,repeat,letter,NA,j,0.0337,Hi,,,,,,3,,,,,,,,low,20,0,20,0,1,,,,,,,,,
293782,2022-10-06_16h10.50.743,vts_reward_expectancy,2022.2.4,Win32,120.6418145,Chrome,1536,960,,,,,0,827,,,,,,,,,,,,,,,,,167,D,star,0,1,,,,,,,,,,,,,,,,switch,number,NA,d,0.1188,Hi,,,,,,3,,,,,,,,low,21,0,21,0,1,,,,,,,,,
293782,2022-10-06_16h10.50.743,vts_reward_expectancy,2022.2.4,Win32,120.6418145,Chrome,1536,960,,,,,0,827,,,,,,,,,,,,,,,,,181,F,circle,1,1,,,,,,,,,,,,,,,,repeat,number,numRpt,f,0.1179,Hi,,,,,,3,,,,,,,,low,22,0,22,0,1,,,,,,,,,
293782,2022-10-06_16h10.50.743,vts_reward_expectancy,2022.2.4,Win32,120.6418145,Chrome,1536,960,,,,,10,837,,,,,,,,,,,,,,,,,174,W,star,1,0,,,,,,,,,,,,,,,,repeat,number,numRpt,f,0.008,Lo,,,,,,3,,,,,,,,low,23,0,23,0,1,,,,,,,,,
293782,2022-10-06_16h10.50.743,vts_reward_expectancy,2022.2.4,Win32,120.6418145,Chrome,1536,960,,,,,10,847,,,,,,,,,,,,,,,,,132,Y,circle,1,0,,,,,,,,,,,,,,,,repeat,number,numRpt,d,0.0253,Hi,,,,,,3,,,,,,,,low,24,0,24,0,1,,,,,,,,,
293782,2022-10-06_16h10.50.743,vts_reward_expectancy,2022.2.4,Win32,120.6418145,Chrome,1536,960,,,,,1,848,,,,,,,,,,,,,,,,,181,W,star,1,0,,,,,,,,,,,,,,,,switch,letter,lettSwt,k,0.0216,Lo,,,,,,3,,,,,,,,low,25,0,25,0,1,,,,,,,,,
293782,2022-10-06_16h10.50.743,vts_reward_expectancy,2022.2.4,Win32,120.6418145,Chrome,1536,960,,,,,0,848,,,,,,,,,,,,,,,,,139,U,circle,0,0,,,,,,,,,,,,,,,,switch,number,NA,f,0.017,Lo,,,,,,3,,,,,,,,low,26,0,26,0,1,,,,,,,,,
293782,2022-10-06_16h10.50.743,vts_reward_expectancy,2022.2.4,Win32,120.6418145,Chrome,1536,960,,,,,0,848,,,,,,,,,,,,,,,,,160,F,star,0,1,,,,,,,,,,,,,,,,switch,letter,NA,k,0.1325,Lo,,,,,,3,,,,,,,,low,27,0,27,0,1,,,,,,,,,
293782,2022-10-06_16h10.50.743,vts_reward_expectancy,2022.2.4,Win32,120.6418145,Chrome,1536,960,,,,,0,848,,,,,,,,,,,,,,,,,125,B,star,0,1,,,,,,,,,,,,,,,,repeat,letter,NA,k,0.2278,Lo,,,,,,3,,,,,,,,low,28,0,28,0,1,,,,,,,,,
293782,2022-10-06_16h10.50.743,vts_reward_expectancy,2022.2.4,Win32,120.6418145,Chrome,1536,960,,,,,0,848,,,,,,,,,,,,,,,,,146,H,circle,0,1,,,,,,,,,,,,,,,,repeat,letter,NA,k,0.3022,Lo,,,,,,3,,,,,,,,low,29,0,29,0,1,,,,,,,,,
293782,2022-10-06_16h10.50.743,vts_reward_expectancy,2022.2.4,Win32,120.6418145,Chrome,1536,960,,,,,0,848,,,,,,,,,,,,,,,,,167,S,circle,0,1,,,,,,,,,,,,,,,,repeat,letter,NA,j,0.0114,Lo,,,,,,3,,,,,,,,low,30,0,30,0,1,,,,,,,,,
293782,2022-10-06_16h10.50.743,vts_reward_expectancy,2022.2.4,Win32,120.6418145,Chrome,1536,960,,,,,10,858,,,,,,,,,,,,,,,,,174,D,star,1,1,,,,,,,,,,,,,,,,switch,number,numSwt,f,0.4511,Lo,,,,,,3,,,,,,,,low,31,0,31,0,1,,,,,,,,,
293782,2022-10-06_16h10.50.743,vts_reward_expectancy,2022.2.4,Win32,120.6418145,Chrome,1536,960,,,,,0,858,,,,,,,,,,,,,,,,,146,U,hexagon,1,0,,,,,,,,,,,,,,,,switch,letter,lettSwt,k,1.0681,Hi,,,,,,4,,,,,,space,0.7847,high,0,0,0,0,1,,,,,,,,,
293782,2022-10-06_16h10.50.743,vts_reward_expectancy,2022.2.4,Win32,120.6418145,Chrome,1536,960,,,,,0,858,,,,,,,,,,,,,,,,,181,H,triangle,0,0,,,,,,,,,,,,,,,,repeat,letter,NA,k,0.2169,Hi,,,,,,4,,,,,,,,high,1,0,1,0,1,,,,,,,,,
293782,2022-10-06_16h10.50.743,vts_reward_expectancy,2022.2.4,Win32,120.6418145,Chrome,1536,960,,,,,0,858,,,,,,,,,,,,,,,,,125,W,hexagon,1,1,,,,,,,,,,,,,,,,repeat,letter,lettRpt,k,0.2501,Hi,,,,,,4,,,,,,,,high,2,0,2,0,1,,,,,,,,,
293782,2022-10-06_16h10.50.743,vts_reward_expectancy,2022.2.4,Win32,120.6418145,Chrome,1536,960,,,,,0,858,,,,,,,,,,,,,,,,,139,F,triangle,0,0,,,,,,,,,,,,,,,,repeat,letter,NA,k,0.5228,Hi,,,,,,4,,,,,,,,high,3,0,3,0,1,,,,,,,,,
293782,2022-10-06_16h10.50.743,vts_reward_expectancy,2022.2.4,Win32,120.6418145,Chrome,1536,960,,,,,0,858,,,,,,,,,,,,,,,,,132,D,triangle,0,1,,,,,,,,,,,,,,,,switch,number,NA,f,0.0312,Hi,,,,,,4,,,,,,,,high,4,0,4,0,1,,,,,,,,,
293782,2022-10-06_16h10.50.743,vts_reward_expectancy,2022.2.4,Win32,120.6418145,Chrome,1536,960,,,,,0,858,,,,,,,,,,,,,,,,,160,B,hexagon,1,1,,,,,,,,,,,,,,,,repeat,number,numRpt,f,0.0755,Hi,,,,,,4,,,,,,,,high,5,0,5,0,1,,,,,,,,,
293782,2022-10-06_16h10.50.743,vts_reward_expectancy,2022.2.4,Win32,120.6418145,Chrome,1536,960,,,,,0,858,,,,,,,,,,,,,,,,,174,S,hexagon,0,0,,,,,,,,,,,,,,,,repeat,number,NA,d,0.0004,Hi,,,,,,4,,,,,,,,high,6,0,6,0,1,,,,,,,,,
293782,2022-10-06_16h10.50.743,vts_reward_expectancy,2022.2.4,Win32,120.6418145,Chrome,1536,960,,,,,1,859,,,,,,,,,,,,,,,,,167,Y,triangle,1,1,,,,,,,,,,,,,,,,switch,letter,lettSwt,k,0.0266,Lo,,,,,,4,,,,,,,,high,7,0,7,0,1,,,,,,,,,
293782,2022-10-06_16h10.50.743,vts_reward_expectancy,2022.2.4,Win32,120.6418145,Chrome,1536,960,,,,,0,859,,,,,,,,,,,,,,,,,146,U,hexagon,0,0,,,,,,,,,,,,,,,,switch,number,NA,f,0.0028,Lo,,,,,,4,,,,,,,,high,8,0,8,0,1,,,,,,,,,
293782,2022-10-06_16h10.50.743,vts_reward_expectancy,2022.2.4,Win32,120.6418145,Chrome,1536,960,,,,,0,859,,,,,,,,,,,,,,,,,181,H,triangle,0,1,,,,,,,,,,,,,,,,repeat,number,NA,d,0.0423,Lo,,,,,,4,,,,,,,,high,9,0,9,0,1,,,,,,,,,
293782,2022-10-06_16h10.50.743,vts_reward_expectancy,2022.2.4,Win32,120.6418145,Chrome,1536,960,,,,,10,869,,,,,,,,,,,,,,,,,125,W,hexagon,1,1,,,,,,,,,,,,,,,,repeat,number,numRpt,d,0.0043,Hi,,,,,,4,,,,,,,,high,10,0,10,0,1,,,,,,,,,
293782,2022-10-06_16h10.50.743,vts_reward_expectancy,2022.2.4,Win32,120.6418145,Chrome,1536,960,,,,,1,870,,,,,,,,,,,,,,,,,139,F,triangle,1,0,,,,,,,,,,,,,,,,repeat,number,numRpt,d,0.0437,Lo,,,,,,4,,,,,,,,high,11,0,11,0,1,,,,,,,,,
293782,2022-10-06_16h10.50.743,vts_reward_expectancy,2022.2.4,Win32,120.6418145,Chrome,1536,960,,,,,0,870,,,,,,,,,,,,,,,,,132,D,hexagon,1,0,,,,,,,,,,,,,,,,repeat,number,numRpt,d,0.1688,Hi,,,,,,4,,,,,,,,high,12,0,12,0,1,,,,,,,,,
293782,2022-10-06_16h10.50.743,vts_reward_expectancy,2022.2.4,Win32,120.6418145,Chrome,1536,960,,,,,1,871,,,,,,,,,,,,,,,,,160,B,triangle,1,0,,,,,,,,,,,,,,,,switch,letter,lettSwt,j,0.0552,Lo,,,,,,4,,,,,,,,high,13,0,13,0,1,,,,,,,,,
293782,2022-10-06_16h10.50.743,vts_reward_expectancy,2022.2.4,Win32,120.6418145,Chrome,1536,960,,,,,10,881,,,,,,,,,,,,,,,,,174,S,triangle,1,0,,,,,,,,,,,,,,,,switch,number,numSwt,f,0.0242,Lo,,,,,,4,,,,,,,,high,14,0,14,0,1,,,,,,,,,
293782,2022-10-06_16h10.50.743,vts_reward_expectancy,2022.2.4,Win32,120.6418145,Chrome,1536,960,,,,,0,881,,,,,,,,,,,,,,,,,167,Y,hexagon,0,0,,,,,,,,,,,,,,,,switch,letter,NA,j,0.1257,Lo,,,,,,4,,,,,,,,high,15,0,15,0,1,,,,,,,,,
293782,2022-10-06_16h10.50.743,vts_reward_expectancy,2022.2.4,Win32,120.6418145,Chrome,1536,960,,,,,0,881,,,,,,,,,,,,,,,,,174,B,triangle,0,1,,,,,,,,,,,,,,,,switch,number,NA,d,0.0182,Lo,,,,,,4,,,,,,,,high,16,0,16,0,1,,,,,,,,,
293782,2022-10-06_16h10.50.743,vts_reward_expectancy,2022.2.4,Win32,120.6418145,Chrome,1536,960,,,,,1,882,,,,,,,,,,,,,,,,,181,U,hexagon,1,1,,,,,,,,,,,,,,,,repeat,number,numRpt,f,0.0181,Hi,,,,,,4,,,,,,,,high,17,0,17,0,1,,,,,,,,,
293782,2022-10-06_16h10.50.743,vts_reward_expectancy,2022.2.4,Win32,120.6418145,Chrome,1536,960,,,,,0,882,,,,,,,,,,,,,,,,,146,Y,triangle,0,0,,,,,,,,,,,,,,,,repeat,number,NA,f,0.0249,Hi,,,,,,4,,,,,,,,high,18,0,18,0,1,,,,,,,,,
293782,2022-10-06_16h10.50.743,vts_reward_expectancy,2022.2.4,Win32,120.6418145,Chrome,1536,960,,,,,0,882,,,,,,,,,,,,,,,,,125,F,hexagon,0,1,,,,,,,,,,,,,,,,switch,letter,NA,k,0.0678,Hi,,,,,,4,,,,,,,,high,19,0,19,0,1,,,,,,,,,
293782,2022-10-06_16h10.50.743,vts_reward_expectancy,2022.2.4,Win32,120.6418145,Chrome,1536,960,,,,,0,882,,,,,,,,,,,,,,,,,132,S,hexagon,1,1,,,,,,,,,,,,,,,,switch,number,numSwt,d,0.3169,Hi,,,,,,4,,,,,,,,high,20,0,20,0,1,,,,,,,,,
293782,2022-10-06_16h10.50.743,vts_reward_expectancy,2022.2.4,Win32,120.6418145,Chrome,1536,960,,,,,1,883,,,,,,,,,,,,,,,,,160,W,triangle,1,0,,,,,,,,,,,,,,,,repeat,number,numRpt,f,0.0005,Lo,,,,,,4,,,,,,,,high,21,0,21,0,1,,,,,,,,,
293782,2022-10-06_16h10.50.743,vts_reward_expectancy,2022.2.4,Win32,120.6418145,Chrome,1536,960,,,,,10,893,,,,,,,,,,,,,,,,,167,D,hexagon,1,0,,,,,,,,,,,,,,,,repeat,number,numRpt,f,0.0091,Hi,,,,,,4,,,,,,,,high,22,0,22,0,1,,,,,,,,,
293782,2022-10-06_16h10.50.743,vts_reward_expectancy,2022.2.4,Win32,120.6418145,Chrome,1536,960,,,,,1,894,,,,,,,,,,,,,,,,,139,H,triangle,1,0,,,,,,,,,,,,,,,,switch,letter,lettSwt,j,0.0005,Lo,,,,,,4,,,,,,,,high,23,0,23,0,1,,,,,,,,,
293782,2022-10-06_16h10.50.743,vts_reward_expectancy,2022.2.4,Win32,120.6418145,Chrome,1536,960,,,,,0,894,,,,,,,,,,,,,,,,,181,F,triangle,0,0,,,,,,,,,,,,,,,,switch,number,NA,d,0.0429,Lo,,,,,,4,,,,,,,,high,24,0,24,0,1,,,,,,,,,
293782,2022-10-06_16h10.50.743,vts_reward_expectancy,2022.2.4,Win32,120.6418145,Chrome,1536,960,,,,,10,904,,,,,,,,,,,,,,,,,146,S,hexagon,1,1,,,,,,,,,,,,,,,,switch,letter,lettSwt,k,0.051,Hi,,,,,,4,,,,,,,,high,25,0,25,0,1,,,,,,,,,
293782,2022-10-06_16h10.50.743,vts_reward_expectancy,2022.2.4,Win32,120.6418145,Chrome,1536,960,,,,,0,904,,,,,,,,,,,,,,,,,160,Y,hexagon,1,0,,,,,,,,,,,,,,,,repeat,letter,lettRpt,k,0.0318,Hi,,,,,,4,,,,,,,,high,26,0,26,0,1,,,,,,,,,
293782,2022-10-06_16h10.50.743,vts_reward_expectancy,2022.2.4,Win32,120.6418145,Chrome,1536,960,,,,,1,905,,,,,,,,,,,,,,,,,139,W,triangle,1,0,,,,,,,,,,,,,,,,switch,number,numSwt,d,0.0113,Lo,,,,,,4,,,,,,,,high,27,0,27,0,1,,,,,,,,,
293782,2022-10-06_16h10.50.743,vts_reward_expectancy,2022.2.4,Win32,120.6418145,Chrome,1536,960,,,,,10,915,,,,,,,,,,,,,,,,,167,B,hexagon,1,0,,,,,,,,,,,,,,,,switch,letter,lettSwt,j,0.1019,Hi,,,,,,4,,,,,,,,high,28,0,28,0,1,,,,,,,,,
293782,2022-10-06_16h10.50.743,vts_reward_expectancy,2022.2.4,Win32,120.6418145,Chrome,1536,960,,,,,1,916,,,,,,,,,,,,,,,,,125,H,triangle,1,0,,,,,,,,,,,,,,,,repeat,letter,lettRpt,j,0.0088,Lo,,,,,,4,,,,,,,,high,29,0,29,0,1,,,,,,,,,
293782,2022-10-06_16h10.50.743,vts_reward_expectancy,2022.2.4,Win32,120.6418145,Chrome,1536,960,,,,,0,916,,,,,,,,,,,,,,,,,174,U,hexagon,1,0,,,,,,,,,,,,,,,,repeat,letter,lettRpt,k,0.0155,Hi,,,,,,4,,,,,,,,high,30,0,30,0,1,,,,,,,,,
293782,2022-10-06_16h10.50.743,vts_reward_expectancy,2022.2.4,Win32,120.6418145,Chrome,1536,960,,,,,0,916,,,,,,,,,,,,,,,,,132,D,triangle,0,0,,,,,,,,,,,,,,,,switch,number,NA,f,0.0318,Hi,,,,,,4,,,,,,,,high,31,0,31,0,1,,,,,,,,,
293782,2022-10-06_16h10.50.743,vts_reward_expectancy,2022.2.4,Win32,120.6418145,Chrome,1536,960,,,,,0,916,,,,,,,,,,,,,,,,,139,D,circle,0,1,,,,,,,,,,,,,,,,repeat,number,NA,f,0.0004,Hi,,,,,,5,,,,,,space,0.717,low,0,0,0,0,1,,,,,,,,,
293782,2022-10-06_16h10.50.743,vts_reward_expectancy,2022.2.4,Win32,120.6418145,Chrome,1536,960,,,,,0,916,,,,,,,,,,,,,,,,,132,W,star,0,1,,,,,,,,,,,,,,,,repeat,number,NA,f,0.0084,Hi,,,,,,5,,,,,,,,low,1,0,1,0,1,,,,,,,,,
293782,2022-10-06_16h10.50.743,vts_reward_expectancy,2022.2.4,Win32,120.6418145,Chrome,1536,960,,,,,0,916,,,,,,,,,,,,,,,,,167,F,circle,1,1,,,,,,,,,,,,,,,,switch,letter,lettSwt,j,0.047,Hi,,,,,,5,,,,,,,,low,2,0,2,0,1,,,,,,,,,
293782,2022-10-06_16h10.50.743,vts_reward_expectancy,2022.2.4,Win32,120.6418145,Chrome,1536,960,,,,,10,926,,,,,,,,,,,,,,,,,125,B,star,1,0,,,,,,,,,,,,,,,,repeat,letter,lettRpt,j,0.0251,Lo,,,,,,5,,,,,,,,low,3,0,3,0,1,,,,,,,,,
293782,2022-10-06_16h10.50.743,vts_reward_expectancy,2022.2.4,Win32,120.6418145,Chrome,1536,960,,,,,10,936,,,,,,,,,,,,,,,,,174,S,star,1,0,,,,,,,,,,,,,,,,switch,number,numSwt,f,0.0166,Lo,,,,,,5,,,,,,,,low,4,0,4,0,1,,,,,,,,,
