participant,date,expName,psychopyVersion,OS,frameRate,browser,xResolution,yResolution,key_resp.keys,key_resp.rt,training_resp.keys,training_resp.rt,points_trial,points_cumul,trainBlock,training.thisRepN,training.thisTrialN,training.thisN,training.thisIndex,training.ran,LTriangleOpac,LCircleOpac,LHexagonOpac,LStarOpac,RTriangleOpac,RCircleOpac,RHexagonOpac,RStarOpac,LShape_ID,RShape_ID,curr_topStim,curr_bottStim,curr_shape,acc,E1,target_resp_prac1.keys,pracBlock,task1_prac_trials.thisRepN,task1_prac_trials.thisTrialN,task1_prac_trials.thisN,task1_prac_trials.thisIndex,task1_prac_trials.ran,target_resp_prac1.rt,target_resp_prac2.keys,task2_praac_trials.thisRepN,task2_praac_trials.thisTrialN,task2_praac_trials.thisN,task2_praac_trials.thisIndex,task2_praac_trials.ran,target_resp_prac2.rt,alt,task,condition,target_resp.keys,target_resp.rt,rewCond,vts_practice_trials.thisRepN,vts_practice_trials.thisTrialN,vts_practice_trials.thisN,vts_practice_trials.thisIndex,vts_practice_trials.ran,blockNum,trials_norew.thisRepN,trials_norew.thisTrialN,trials_norew.thisN,trials_norew.thisIndex,trials_norew.ran,key_resp_2.keys,key_resp_2.rt,rewExpect,trials_rew.thisRepN,trials_rew.thisTrialN,trials_rew.thisN,trials_rew.thisIndex,trials_rew.ran,Q1,Q2,Q2_text,Q3,Q4,Q5_text,Q5,xRes,yRes
296044,2022-10-04_15h05.39.851,vts_reward_expectancy,2022.2.4,MacIntel,60.0024001,Chrome,1440,900,,,,,,,,,,,,,,,,,,,,,,,,,,,,,,,,,,,,,,,,,,,,,,,,,,,,,,,,,,,,,,,,,,,,,,,,,,,,
296044,2022-10-04_15h05.39.851,vts_reward_expectancy,2022.2.4,MacIntel,60.0024001,Chrome,1440,900,space,4.9141,,,,,,,,,,,,,,,,,,,,,,,,,,,,,,,,,,,,,,,,,,,,,,,,,,,,,,,,,,,,,,,,,,,,,,,,,,
296044,2022-10-04_15h05.39.851,vts_reward_expectancy,2022.2.4,MacIntel,60.0024001,Chrome,1440,900,,,,,,,,,,,,,,,,,,,,,,,,,,,,,,,,,,,,,,,,,,,,,,,,,,,,,,,,,,,,,,,,,,,,,,,,,,,,
296044,2022-10-04_15h05.39.851,vts_reward_expectancy,2022.2.4,MacIntel,60.0024001,Chrome,1440,900,,,a,4.043,10,10,0,0,0,0,0,1,1,0,0,0,0,1,0,0,triangle,circle,,,,,,,,,,,,,,,,,,,,,,,,,,,,,,,,,,,,,,,,,,,,,,,,,,,,,,
296044,2022-10-04_15h05.39.851,vts_reward_expectancy,2022.2.4,MacIntel,60.0024001,Chrome,1440,900,,,l,1.6072,10,20,0,0,1,1,4,1,0,1,0,0,0,0,1,0,circle,hexagon,,,,,,,,,,,,,,,,,,,,,,,,,,,,,,,,,,,,,,,,,,,,,,,,,,,,,,
296044,2022-10-04_15h05.39.851,vts_reward_expectancy,2022.2.4,MacIntel,60.0024001,Chrome,1440,900,,,a,1.0154,1,21,0,0,2,2,8,1,0,0,1,0,0,0,0,1,hexagon,star,,,,,,,,,,,,,,,,,,,,,,,,,,,,,,,,,,,,,,,,,,,,,,,,,,,,,,
296044,2022-10-04_15h05.39.851,vts_reward_expectancy,2022.2.4,MacIntel,60.0024001,Chrome,1440,900,,,l,0.44,10,31,0,0,3,3,9,1,0,0,0,1,1,0,0,0,star,triangle,,,,,,,,,,,,,,,,,,,,,,,,,,,,,,,,,,,,,,,,,,,,,,,,,,,,,,
296044,2022-10-04_15h05.39.851,vts_reward_expectancy,2022.2.4,MacIntel,60.0024001,Chrome,1440,900,,,l,0.6011,10,41,0,0,4,4,11,1,0,0,0,1,0,0,1,0,star,hexagon,,,,,,,,,,,,,,,,,,,,,,,,,,,,,,,,,,,,,,,,,,,,,,,,,,,,,,
296044,2022-10-04_15h05.39.851,vts_reward_expectancy,2022.2.4,MacIntel,60.0024001,Chrome,1440,900,,,a,1.05,10,51,0,0,5,5,1,1,1,0,0,0,0,0,1,0,triangle,hexagon,,,,,,,,,,,,,,,,,,,,,,,,,,,,,,,,,,,,,,,,,,,,,,,,,,,,,,
296044,2022-10-04_15h05.39.851,vts_reward_expectancy,2022.2.4,MacIntel,60.0024001,Chrome,1440,900,,,a,0.7005,10,61,0,0,6,6,2,1,1,0,0,0,0,0,0,1,triangle,star,,,,,,,,,,,,,,,,,,,,,,,,,,,,,,,,,,,,,,,,,,,,,,,,,,,,,,
296044,2022-10-04_15h05.39.851,vts_reward_expectancy,2022.2.4,MacIntel,60.0024001,Chrome,1440,900,,,l,0.5999,10,71,0,0,7,7,6,1,0,0,1,0,1,0,0,0,hexagon,triangle,,,,,,,,,,,,,,,,,,,,,,,,,,,,,,,,,,,,,,,,,,,,,,,,,,,,,,
296044,2022-10-04_15h05.39.851,vts_reward_expectancy,2022.2.4,MacIntel,60.0024001,Chrome,1440,900,,,a,0.5535,10,81,0,0,8,8,5,1,0,1,0,0,0,0,0,1,circle,star,,,,,,,,,,,,,,,,,,,,,,,,,,,,,,,,,,,,,,,,,,,,,,,,,,,,,,
296044,2022-10-04_15h05.39.851,vts_reward_expectancy,2022.2.4,MacIntel,60.0024001,Chrome,1440,900,,,a,0.8872,10,91,0,0,9,9,3,1,0,1,0,0,1,0,0,0,circle,triangle,,,,,,,,,,,,,,,,,,,,,,,,,,,,,,,,,,,,,,,,,,,,,,,,,,,,,,
296044,2022-10-04_15h05.39.851,vts_reward_expectancy,2022.2.4,MacIntel,60.0024001,Chrome,1440,900,,,l,0.6838,10,101,0,0,10,10,10,1,0,0,0,1,0,1,0,0,star ,circle,,,,,,,,,,,,,,,,,,,,,,,,,,,,,,,,,,,,,,,,,,,,,,,,,,,,,,
296044,2022-10-04_15h05.39.851,vts_reward_expectancy,2022.2.4,MacIntel,60.0024001,Chrome,1440,900,,,l,0.4493,10,111,0,0,11,11,7,1,0,0,1,0,0,1,0,0,hexagon,circle,,,,,,,,,,,,,,,,,,,,,,,,,,,,,,,,,,,,,,,,,,,,,,,,,,,,,,
296044,2022-10-04_15h05.39.851,vts_reward_expectancy,2022.2.4,MacIntel,60.0024001,Chrome,1440,900,,,a,0.4846,1,112,0,1,0,12,4,1,0,1,0,0,0,0,1,0,circle,hexagon,,,,,,,,,,,,,,,,,,,,,,,,,,,,,,,,,,,,,,,,,,,,,,,,,,,,,,
296044,2022-10-04_15h05.39.851,vts_reward_expectancy,2022.2.4,MacIntel,60.0024001,Chrome,1440,900,,,l,0.4721,10,122,0,1,1,13,11,1,0,0,0,1,0,0,1,0,star,hexagon,,,,,,,,,,,,,,,,,,,,,,,,,,,,,,,,,,,,,,,,,,,,,,,,,,,,,,
296044,2022-10-04_15h05.39.851,vts_reward_expectancy,2022.2.4,MacIntel,60.0024001,Chrome,1440,900,,,l,0.5065,1,123,0,1,2,14,7,1,0,0,1,0,0,1,0,0,hexagon,circle,,,,,,,,,,,,,,,,,,,,,,,,,,,,,,,,,,,,,,,,,,,,,,,,,,,,,,
296044,2022-10-04_15h05.39.851,vts_reward_expectancy,2022.2.4,MacIntel,60.0024001,Chrome,1440,900,,,a,0.667,1,124,0,1,3,15,6,1,0,0,1,0,1,0,0,0,hexagon,triangle,,,,,,,,,,,,,,,,,,,,,,,,,,,,,,,,,,,,,,,,,,,,,,,,,,,,,,
296044,2022-10-04_15h05.39.851,vts_reward_expectancy,2022.2.4,MacIntel,60.0024001,Chrome,1440,900,,,a,0.9196,10,134,0,1,4,16,8,1,0,0,1,0,0,0,0,1,hexagon,star,,,,,,,,,,,,,,,,,,,,,,,,,,,,,,,,,,,,,,,,,,,,,,,,,,,,,,
296044,2022-10-04_15h05.39.851,vts_reward_expectancy,2022.2.4,MacIntel,60.0024001,Chrome,1440,900,,,a,1.0818,10,144,0,1,5,17,3,1,0,1,0,0,1,0,0,0,circle,triangle,,,,,,,,,,,,,,,,,,,,,,,,,,,,,,,,,,,,,,,,,,,,,,,,,,,,,,
296044,2022-10-04_15h05.39.851,vts_reward_expectancy,2022.2.4,MacIntel,60.0024001,Chrome,1440,900,,,l,0.785,10,154,0,1,6,18,1,1,1,0,0,0,0,0,1,0,triangle,hexagon,,,,,,,,,,,,,,,,,,,,,,,,,,,,,,,,,,,,,,,,,,,,,,,,,,,,,,
296044,2022-10-04_15h05.39.851,vts_reward_expectancy,2022.2.4,MacIntel,60.0024001,Chrome,1440,900,,,a,0.6218,10,164,0,1,7,19,2,1,1,0,0,0,0,0,0,1,triangle,star,,,,,,,,,,,,,,,,,,,,,,,,,,,,,,,,,,,,,,,,,,,,,,,,,,,,,,
296044,2022-10-04_15h05.39.851,vts_reward_expectancy,2022.2.4,MacIntel,60.0024001,Chrome,1440,900,,,l,0.6153,1,165,0,1,8,20,0,1,1,0,0,0,0,1,0,0,triangle,circle,,,,,,,,,,,,,,,,,,,,,,,,,,,,,,,,,,,,,,,,,,,,,,,,,,,,,,
296044,2022-10-04_15h05.39.851,vts_reward_expectancy,2022.2.4,MacIntel,60.0024001,Chrome,1440,900,,,l,0.5493,10,175,0,1,9,21,10,1,0,0,0,1,0,1,0,0,star ,circle,,,,,,,,,,,,,,,,,,,,,,,,,,,,,,,,,,,,,,,,,,,,,,,,,,,,,,
296044,2022-10-04_15h05.39.851,vts_reward_expectancy,2022.2.4,MacIntel,60.0024001,Chrome,1440,900,,,l,0.4504,10,185,0,1,10,22,9,1,0,0,0,1,1,0,0,0,star,triangle,,,,,,,,,,,,,,,,,,,,,,,,,,,,,,,,,,,,,,,,,,,,,,,,,,,,,,
296044,2022-10-04_15h05.39.851,vts_reward_expectancy,2022.2.4,MacIntel,60.0024001,Chrome,1440,900,,,a,0.4857,1,186,0,1,11,23,5,1,0,1,0,0,0,0,0,1,circle,star,,,,,,,,,,,,,,,,,,,,,,,,,,,,,,,,,,,,,,,,,,,,,,,,,,,,,,
296044,2022-10-04_15h05.39.851,vts_reward_expectancy,2022.2.4,MacIntel,60.0024001,Chrome,1440,900,,,l,0.1154,1,187,0,2,0,24,2,1,1,0,0,0,0,0,0,1,triangle,star,,,,,,,,,,,,,,,,,,,,,,,,,,,,,,,,,,,,,,,,,,,,,,,,,,,,,,
296044,2022-10-04_15h05.39.851,vts_reward_expectancy,2022.2.4,MacIntel,60.0024001,Chrome,1440,900,,,a,0.3165,10,197,0,2,1,25,3,1,0,1,0,0,1,0,0,0,circle,triangle,,,,,,,,,,,,,,,,,,,,,,,,,,,,,,,,,,,,,,,,,,,,,,,,,,,,,,
296044,2022-10-04_15h05.39.851,vts_reward_expectancy,2022.2.4,MacIntel,60.0024001,Chrome,1440,900,,,l,0.6816,1,198,0,2,2,26,1,1,1,0,0,0,0,0,1,0,triangle,hexagon,,,,,,,,,,,,,,,,,,,,,,,,,,,,,,,,,,,,,,,,,,,,,,,,,,,,,,
296044,2022-10-04_15h05.39.851,vts_reward_expectancy,2022.2.4,MacIntel,60.0024001,Chrome,1440,900,,,l,0.5162,10,208,0,2,3,27,9,1,0,0,0,1,1,0,0,0,star,triangle,,,,,,,,,,,,,,,,,,,,,,,,,,,,,,,,,,,,,,,,,,,,,,,,,,,,,,
296044,2022-10-04_15h05.39.851,vts_reward_expectancy,2022.2.4,MacIntel,60.0024001,Chrome,1440,900,,,l,0.4659,1,209,0,2,4,28,7,1,0,0,1,0,0,1,0,0,hexagon,circle,,,,,,,,,,,,,,,,,,,,,,,,,,,,,,,,,,,,,,,,,,,,,,,,,,,,,,
296044,2022-10-04_15h05.39.851,vts_reward_expectancy,2022.2.4,MacIntel,60.0024001,Chrome,1440,900,,,a,0.3491,1,210,0,2,5,29,6,1,0,0,1,0,1,0,0,0,hexagon,triangle,,,,,,,,,,,,,,,,,,,,,,,,,,,,,,,,,,,,,,,,,,,,,,,,,,,,,,
296044,2022-10-04_15h05.39.851,vts_reward_expectancy,2022.2.4,MacIntel,60.0024001,Chrome,1440,900,,,l,0.5997,10,220,0,2,6,30,8,1,0,0,1,0,0,0,0,1,hexagon,star,,,,,,,,,,,,,,,,,,,,,,,,,,,,,,,,,,,,,,,,,,,,,,,,,,,,,,
296044,2022-10-04_15h05.39.851,vts_reward_expectancy,2022.2.4,MacIntel,60.0024001,Chrome,1440,900,,,l,0.3489,10,230,0,2,7,31,4,1,0,1,0,0,0,0,1,0,circle,hexagon,,,,,,,,,,,,,,,,,,,,,,,,,,,,,,,,,,,,,,,,,,,,,,,,,,,,,,
296044,2022-10-04_15h05.39.851,vts_reward_expectancy,2022.2.4,MacIntel,60.0024001,Chrome,1440,900,,,a,0.3382,10,240,0,2,8,32,0,1,1,0,0,0,0,1,0,0,triangle,circle,,,,,,,,,,,,,,,,,,,,,,,,,,,,,,,,,,,,,,,,,,,,,,,,,,,,,,
296044,2022-10-04_15h05.39.851,vts_reward_expectancy,2022.2.4,MacIntel,60.0024001,Chrome,1440,900,,,l,0.5732,10,250,0,2,9,33,11,1,0,0,0,1,0,0,1,0,star,hexagon,,,,,,,,,,,,,,,,,,,,,,,,,,,,,,,,,,,,,,,,,,,,,,,,,,,,,,
296044,2022-10-04_15h05.39.851,vts_reward_expectancy,2022.2.4,MacIntel,60.0024001,Chrome,1440,900,,,l,0.2993,1,251,0,2,10,34,5,1,0,1,0,0,0,0,0,1,circle,star,,,,,,,,,,,,,,,,,,,,,,,,,,,,,,,,,,,,,,,,,,,,,,,,,,,,,,
296044,2022-10-04_15h05.39.851,vts_reward_expectancy,2022.2.4,MacIntel,60.0024001,Chrome,1440,900,,,l,0.2157,1,252,0,2,11,35,10,1,0,0,0,1,0,1,0,0,star ,circle,,,,,,,,,,,,,,,,,,,,,,,,,,,,,,,,,,,,,,,,,,,,,,,,,,,,,,
296044,2022-10-04_15h05.39.851,vts_reward_expectancy,2022.2.4,MacIntel,60.0024001,Chrome,1440,900,,,a,0.4326,1,253,1,0,0,0,8,1,0,0,1,0,0,0,0,1,hexagon,star,,,,,,,,,,,,,,,,,,,,,,,,,,,,,,,,,,,,,,,,,,,,,,,,,,,,,,
296044,2022-10-04_15h05.39.851,vts_reward_expectancy,2022.2.4,MacIntel,60.0024001,Chrome,1440,900,,,l,0.3168,10,263,1,0,1,1,4,1,0,1,0,0,0,0,1,0,circle,hexagon,,,,,,,,,,,,,,,,,,,,,,,,,,,,,,,,,,,,,,,,,,,,,,,,,,,,,,
296044,2022-10-04_15h05.39.851,vts_reward_expectancy,2022.2.4,MacIntel,60.0024001,Chrome,1440,900,,,l,0.2675,1,264,1,0,2,2,10,1,0,0,0,1,0,1,0,0,star ,circle,,,,,,,,,,,,,,,,,,,,,,,,,,,,,,,,,,,,,,,,,,,,,,,,,,,,,,
296044,2022-10-04_15h05.39.851,vts_reward_expectancy,2022.2.4,MacIntel,60.0024001,Chrome,1440,900,,,a,0.2995,10,274,1,0,3,3,1,1,1,0,0,0,0,0,1,0,triangle,hexagon,,,,,,,,,,,,,,,,,,,,,,,,,,,,,,,,,,,,,,,,,,,,,,,,,,,,,,
296044,2022-10-04_15h05.39.851,vts_reward_expectancy,2022.2.4,MacIntel,60.0024001,Chrome,1440,900,,,l,0.4664,1,275,1,0,4,4,7,1,0,0,1,0,0,1,0,0,hexagon,circle,,,,,,,,,,,,,,,,,,,,,,,,,,,,,,,,,,,,,,,,,,,,,,,,,,,,,,
296044,2022-10-04_15h05.39.851,vts_reward_expectancy,2022.2.4,MacIntel,60.0024001,Chrome,1440,900,,,a,0.2486,1,276,1,0,5,5,3,1,0,1,0,0,1,0,0,0,circle,triangle,,,,,,,,,,,,,,,,,,,,,,,,,,,,,,,,,,,,,,,,,,,,,,,,,,,,,,
296044,2022-10-04_15h05.39.851,vts_reward_expectancy,2022.2.4,MacIntel,60.0024001,Chrome,1440,900,,,a,0.2664,1,277,1,0,6,6,0,1,1,0,0,0,0,1,0,0,triangle,circle,,,,,,,,,,,,,,,,,,,,,,,,,,,,,,,,,,,,,,,,,,,,,,,,,,,,,,
296044,2022-10-04_15h05.39.851,vts_reward_expectancy,2022.2.4,MacIntel,60.0024001,Chrome,1440,900,,,l,0.3502,10,287,1,0,7,7,11,1,0,0,0,1,0,0,1,0,star,hexagon,,,,,,,,,,,,,,,,,,,,,,,,,,,,,,,,,,,,,,,,,,,,,,,,,,,,,,
296044,2022-10-04_15h05.39.851,vts_reward_expectancy,2022.2.4,MacIntel,60.0024001,Chrome,1440,900,,,l,0.2668,1,288,1,0,8,8,5,1,0,1,0,0,0,0,0,1,circle,star,,,,,,,,,,,,,,,,,,,,,,,,,,,,,,,,,,,,,,,,,,,,,,,,,,,,,,
296044,2022-10-04_15h05.39.851,vts_reward_expectancy,2022.2.4,MacIntel,60.0024001,Chrome,1440,900,,,a,0.333,10,298,1,0,9,9,6,1,0,0,1,0,1,0,0,0,hexagon,triangle,,,,,,,,,,,,,,,,,,,,,,,,,,,,,,,,,,,,,,,,,,,,,,,,,,,,,,
296044,2022-10-04_15h05.39.851,vts_reward_expectancy,2022.2.4,MacIntel,60.0024001,Chrome,1440,900,,,a,0.3159,10,308,1,0,10,10,9,1,0,0,0,1,1,0,0,0,star,triangle,,,,,,,,,,,,,,,,,,,,,,,,,,,,,,,,,,,,,,,,,,,,,,,,,,,,,,
296044,2022-10-04_15h05.39.851,vts_reward_expectancy,2022.2.4,MacIntel,60.0024001,Chrome,1440,900,,,a,0.4154,1,309,1,0,11,11,2,1,1,0,0,0,0,0,0,1,triangle,star,,,,,,,,,,,,,,,,,,,,,,,,,,,,,,,,,,,,,,,,,,,,,,,,,,,,,,
296044,2022-10-04_15h05.39.851,vts_reward_expectancy,2022.2.4,MacIntel,60.0024001,Chrome,1440,900,,,l,0.7901,1,310,1,1,0,12,7,1,0,0,1,0,0,1,0,0,hexagon,circle,,,,,,,,,,,,,,,,,,,,,,,,,,,,,,,,,,,,,,,,,,,,,,,,,,,,,,
296044,2022-10-04_15h05.39.851,vts_reward_expectancy,2022.2.4,MacIntel,60.0024001,Chrome,1440,900,,,l,0.3668,1,311,1,1,1,13,5,1,0,1,0,0,0,0,0,1,circle,star,,,,,,,,,,,,,,,,,,,,,,,,,,,,,,,,,,,,,,,,,,,,,,,,,,,,,,
296044,2022-10-04_15h05.39.851,vts_reward_expectancy,2022.2.4,MacIntel,60.0024001,Chrome,1440,900,,,l,0.6001,1,312,1,1,2,14,10,1,0,0,0,1,0,1,0,0,star ,circle,,,,,,,,,,,,,,,,,,,,,,,,,,,,,,,,,,,,,,,,,,,,,,,,,,,,,,
296044,2022-10-04_15h05.39.851,vts_reward_expectancy,2022.2.4,MacIntel,60.0024001,Chrome,1440,900,,,a,0.2319,10,322,1,1,3,15,11,1,0,0,0,1,0,0,1,0,star,hexagon,,,,,,,,,,,,,,,,,,,,,,,,,,,,,,,,,,,,,,,,,,,,,,,,,,,,,,
296044,2022-10-04_15h05.39.851,vts_reward_expectancy,2022.2.4,MacIntel,60.0024001,Chrome,1440,900,,,a,0.2828,10,332,1,1,4,16,8,1,0,0,1,0,0,0,0,1,hexagon,star,,,,,,,,,,,,,,,,,,,,,,,,,,,,,,,,,,,,,,,,,,,,,,,,,,,,,,
296044,2022-10-04_15h05.39.851,vts_reward_expectancy,2022.2.4,MacIntel,60.0024001,Chrome,1440,900,,,a,0.2733,10,342,1,1,5,17,2,1,1,0,0,0,0,0,0,1,triangle,star,,,,,,,,,,,,,,,,,,,,,,,,,,,,,,,,,,,,,,,,,,,,,,,,,,,,,,
296044,2022-10-04_15h05.39.851,vts_reward_expectancy,2022.2.4,MacIntel,60.0024001,Chrome,1440,900,,,a,0.4003,1,343,1,1,6,18,6,1,0,0,1,0,1,0,0,0,hexagon,triangle,,,,,,,,,,,,,,,,,,,,,,,,,,,,,,,,,,,,,,,,,,,,,,,,,,,,,,
296044,2022-10-04_15h05.39.851,vts_reward_expectancy,2022.2.4,MacIntel,60.0024001,Chrome,1440,900,,,l,0.4636,10,353,1,1,7,19,9,1,0,0,0,1,1,0,0,0,star,triangle,,,,,,,,,,,,,,,,,,,,,,,,,,,,,,,,,,,,,,,,,,,,,,,,,,,,,,
296044,2022-10-04_15h05.39.851,vts_reward_expectancy,2022.2.4,MacIntel,60.0024001,Chrome,1440,900,,,l,0.3524,1,354,1,1,8,20,3,1,0,1,0,0,1,0,0,0,circle,triangle,,,,,,,,,,,,,,,,,,,,,,,,,,,,,,,,,,,,,,,,,,,,,,,,,,,,,,
296044,2022-10-04_15h05.39.851,vts_reward_expectancy,2022.2.4,MacIntel,60.0024001,Chrome,1440,900,,,a,0.4676,1,355,1,1,9,21,4,1,0,1,0,0,0,0,1,0,circle,hexagon,,,,,,,,,,,,,,,,,,,,,,,,,,,,,,,,,,,,,,,,,,,,,,,,,,,,,,
296044,2022-10-04_15h05.39.851,vts_reward_expectancy,2022.2.4,MacIntel,60.0024001,Chrome,1440,900,,,a,0.4334,10,365,1,1,10,22,0,1,1,0,0,0,0,1,0,0,triangle,circle,,,,,,,,,,,,,,,,,,,,,,,,,,,,,,,,,,,,,,,,,,,,,,,,,,,,,,
296044,2022-10-04_15h05.39.851,vts_reward_expectancy,2022.2.4,MacIntel,60.0024001,Chrome,1440,900,,,a,0.9841,10,375,1,1,11,23,1,1,1,0,0,0,0,0,1,0,triangle,hexagon,,,,,,,,,,,,,,,,,,,,,,,,,,,,,,,,,,,,,,,,,,,,,,,,,,,,,,
296044,2022-10-04_15h05.39.851,vts_reward_expectancy,2022.2.4,MacIntel,60.0024001,Chrome,1440,900,,,a,0.8328,10,385,1,2,0,24,8,1,0,0,1,0,0,0,0,1,hexagon,star,,,,,,,,,,,,,,,,,,,,,,,,,,,,,,,,,,,,,,,,,,,,,,,,,,,,,,
296044,2022-10-04_15h05.39.851,vts_reward_expectancy,2022.2.4,MacIntel,60.0024001,Chrome,1440,900,,,a,0.2248,1,386,1,2,1,25,9,1,0,0,0,1,1,0,0,0,star,triangle,,,,,,,,,,,,,,,,,,,,,,,,,,,,,,,,,,,,,,,,,,,,,,,,,,,,,,
296044,2022-10-04_15h05.39.851,vts_reward_expectancy,2022.2.4,MacIntel,60.0024001,Chrome,1440,900,,,l,0.8826,1,387,1,2,2,26,11,1,0,0,0,1,0,0,1,0,star,hexagon,,,,,,,,,,,,,,,,,,,,,,,,,,,,,,,,,,,,,,,,,,,,,,,,,,,,,,
296044,2022-10-04_15h05.39.851,vts_reward_expectancy,2022.2.4,MacIntel,60.0024001,Chrome,1440,900,,,a,0.6335,10,397,1,2,3,27,2,1,1,0,0,0,0,0,0,1,triangle,star,,,,,,,,,,,,,,,,,,,,,,,,,,,,,,,,,,,,,,,,,,,,,,,,,,,,,,
296044,2022-10-04_15h05.39.851,vts_reward_expectancy,2022.2.4,MacIntel,60.0024001,Chrome,1440,900,,,a,0.1369,10,407,1,2,4,28,10,1,0,0,0,1,0,1,0,0,star ,circle,,,,,,,,,,,,,,,,,,,,,,,,,,,,,,,,,,,,,,,,,,,,,,,,,,,,,,
296044,2022-10-04_15h05.39.851,vts_reward_expectancy,2022.2.4,MacIntel,60.0024001,Chrome,1440,900,,,a,0.4152,1,408,1,2,5,29,5,1,0,1,0,0,0,0,0,1,circle,star,,,,,,,,,,,,,,,,,,,,,,,,,,,,,,,,,,,,,,,,,,,,,,,,,,,,,,
296044,2022-10-04_15h05.39.851,vts_reward_expectancy,2022.2.4,MacIntel,60.0024001,Chrome,1440,900,,,a,0.3823,10,418,1,2,6,30,4,1,0,1,0,0,0,0,1,0,circle,hexagon,,,,,,,,,,,,,,,,,,,,,,,,,,,,,,,,,,,,,,,,,,,,,,,,,,,,,,
296044,2022-10-04_15h05.39.851,vts_reward_expectancy,2022.2.4,MacIntel,60.0024001,Chrome,1440,900,,,l,0.5049,10,428,1,2,7,31,1,1,1,0,0,0,0,0,1,0,triangle,hexagon,,,,,,,,,,,,,,,,,,,,,,,,,,,,,,,,,,,,,,,,,,,,,,,,,,,,,,
296044,2022-10-04_15h05.39.851,vts_reward_expectancy,2022.2.4,MacIntel,60.0024001,Chrome,1440,900,,,l,0.3338,1,429,1,2,8,32,7,1,0,0,1,0,0,1,0,0,hexagon,circle,,,,,,,,,,,,,,,,,,,,,,,,,,,,,,,,,,,,,,,,,,,,,,,,,,,,,,
296044,2022-10-04_15h05.39.851,vts_reward_expectancy,2022.2.4,MacIntel,60.0024001,Chrome,1440,900,,,l,0.1508,1,430,1,2,9,33,0,1,1,0,0,0,0,1,0,0,triangle,circle,,,,,,,,,,,,,,,,,,,,,,,,,,,,,,,,,,,,,,,,,,,,,,,,,,,,,,
296044,2022-10-04_15h05.39.851,vts_reward_expectancy,2022.2.4,MacIntel,60.0024001,Chrome,1440,900,,,a,2.7213,1,431,1,2,10,34,3,1,0,1,0,0,1,0,0,0,circle,triangle,,,,,,,,,,,,,,,,,,,,,,,,,,,,,,,,,,,,,,,,,,,,,,,,,,,,,,
296044,2022-10-04_15h05.39.851,vts_reward_expectancy,2022.2.4,MacIntel,60.0024001,Chrome,1440,900,,,a,0.8083,10,441,1,2,11,35,6,1,0,0,1,0,1,0,0,0,hexagon,triangle,,,,,,,,,,,,,,,,,,,,,,,,,,,,,,,,,,,,,,,,,,,,,,,,,,,,,,
296044,2022-10-04_15h05.39.851,vts_reward_expectancy,2022.2.4,MacIntel,60.0024001,Chrome,1440,900,,,l,1.0837,10,451,2,0,0,0,11,1,0,0,0,1,0,0,1,0,star,hexagon,,,,,,,,,,,,,,,,,,,,,,,,,,,,,,,,,,,,,,,,,,,,,,,,,,,,,,
296044,2022-10-04_15h05.39.851,vts_reward_expectancy,2022.2.4,MacIntel,60.0024001,Chrome,1440,900,,,l,0.5002,1,452,2,0,1,1,10,1,0,0,0,1,0,1,0,0,star ,circle,,,,,,,,,,,,,,,,,,,,,,,,,,,,,,,,,,,,,,,,,,,,,,,,,,,,,,
296044,2022-10-04_15h05.39.851,vts_reward_expectancy,2022.2.4,MacIntel,60.0024001,Chrome,1440,900,,,a,0.366,1,453,2,0,2,2,8,1,0,0,1,0,0,0,0,1,hexagon,star,,,,,,,,,,,,,,,,,,,,,,,,,,,,,,,,,,,,,,,,,,,,,,,,,,,,,,
296044,2022-10-04_15h05.39.851,vts_reward_expectancy,2022.2.4,MacIntel,60.0024001,Chrome,1440,900,,,l,0.3001,1,454,2,0,3,3,0,1,1,0,0,0,0,1,0,0,triangle,circle,,,,,,,,,,,,,,,,,,,,,,,,,,,,,,,,,,,,,,,,,,,,,,,,,,,,,,
296044,2022-10-04_15h05.39.851,vts_reward_expectancy,2022.2.4,MacIntel,60.0024001,Chrome,1440,900,,,a,0.3165,1,455,2,0,4,4,2,1,1,0,0,0,0,0,0,1,triangle,star,,,,,,,,,,,,,,,,,,,,,,,,,,,,,,,,,,,,,,,,,,,,,,,,,,,,,,
296044,2022-10-04_15h05.39.851,vts_reward_expectancy,2022.2.4,MacIntel,60.0024001,Chrome,1440,900,,,l,0.2313,10,465,2,0,5,5,7,1,0,0,1,0,0,1,0,0,hexagon,circle,,,,,,,,,,,,,,,,,,,,,,,,,,,,,,,,,,,,,,,,,,,,,,,,,,,,,,
296044,2022-10-04_15h05.39.851,vts_reward_expectancy,2022.2.4,MacIntel,60.0024001,Chrome,1440,900,,,l,0.3014,10,475,2,0,6,6,9,1,0,0,0,1,1,0,0,0,star,triangle,,,,,,,,,,,,,,,,,,,,,,,,,,,,,,,,,,,,,,,,,,,,,,,,,,,,,,
296044,2022-10-04_15h05.39.851,vts_reward_expectancy,2022.2.4,MacIntel,60.0024001,Chrome,1440,900,,,a,0.3206,1,476,2,0,7,7,6,1,0,0,1,0,1,0,0,0,hexagon,triangle,,,,,,,,,,,,,,,,,,,,,,,,,,,,,,,,,,,,,,,,,,,,,,,,,,,,,,
296044,2022-10-04_15h05.39.851,vts_reward_expectancy,2022.2.4,MacIntel,60.0024001,Chrome,1440,900,,,l,0.3626,10,486,2,0,8,8,5,1,0,1,0,0,0,0,0,1,circle,star,,,,,,,,,,,,,,,,,,,,,,,,,,,,,,,,,,,,,,,,,,,,,,,,,,,,,,
296044,2022-10-04_15h05.39.851,vts_reward_expectancy,2022.2.4,MacIntel,60.0024001,Chrome,1440,900,,,l,0.3074,1,487,2,0,9,9,1,1,1,0,0,0,0,0,1,0,triangle,hexagon,,,,,,,,,,,,,,,,,,,,,,,,,,,,,,,,,,,,,,,,,,,,,,,,,,,,,,
296044,2022-10-04_15h05.39.851,vts_reward_expectancy,2022.2.4,MacIntel,60.0024001,Chrome,1440,900,,,a,0.2673,1,488,2,0,10,10,3,1,0,1,0,0,1,0,0,0,circle,triangle,,,,,,,,,,,,,,,,,,,,,,,,,,,,,,,,,,,,,,,,,,,,,,,,,,,,,,
296044,2022-10-04_15h05.39.851,vts_reward_expectancy,2022.2.4,MacIntel,60.0024001,Chrome,1440,900,,,l,0.3323,1,489,2,0,11,11,4,1,0,1,0,0,0,0,1,0,circle,hexagon,,,,,,,,,,,,,,,,,,,,,,,,,,,,,,,,,,,,,,,,,,,,,,,,,,,,,,
296044,2022-10-04_15h05.39.851,vts_reward_expectancy,2022.2.4,MacIntel,60.0024001,Chrome,1440,900,,,a,0.4646,1,490,2,1,0,12,6,1,0,0,1,0,1,0,0,0,hexagon,triangle,,,,,,,,,,,,,,,,,,,,,,,,,,,,,,,,,,,,,,,,,,,,,,,,,,,,,,
296044,2022-10-04_15h05.39.851,vts_reward_expectancy,2022.2.4,MacIntel,60.0024001,Chrome,1440,900,,,l,0.5474,1,491,2,1,1,13,7,1,0,0,1,0,0,1,0,0,hexagon,circle,,,,,,,,,,,,,,,,,,,,,,,,,,,,,,,,,,,,,,,,,,,,,,,,,,,,,,
296044,2022-10-04_15h05.39.851,vts_reward_expectancy,2022.2.4,MacIntel,60.0024001,Chrome,1440,900,,,a,0.3037,10,501,2,1,2,14,9,1,0,0,0,1,1,0,0,0,star,triangle,,,,,,,,,,,,,,,,,,,,,,,,,,,,,,,,,,,,,,,,,,,,,,,,,,,,,,
296044,2022-10-04_15h05.39.851,vts_reward_expectancy,2022.2.4,MacIntel,60.0024001,Chrome,1440,900,,,l,1.2983,10,511,2,1,3,15,1,1,1,0,0,0,0,0,1,0,triangle,hexagon,,,,,,,,,,,,,,,,,,,,,,,,,,,,,,,,,,,,,,,,,,,,,,,,,,,,,,
296044,2022-10-04_15h05.39.851,vts_reward_expectancy,2022.2.4,MacIntel,60.0024001,Chrome,1440,900,,,l,0.586,1,512,2,1,4,16,5,1,0,1,0,0,0,0,0,1,circle,star,,,,,,,,,,,,,,,,,,,,,,,,,,,,,,,,,,,,,,,,,,,,,,,,,,,,,,
296044,2022-10-04_15h05.39.851,vts_reward_expectancy,2022.2.4,MacIntel,60.0024001,Chrome,1440,900,,,l,0.4494,1,513,2,1,5,17,2,1,1,0,0,0,0,0,0,1,triangle,star,,,,,,,,,,,,,,,,,,,,,,,,,,,,,,,,,,,,,,,,,,,,,,,,,,,,,,
296044,2022-10-04_15h05.39.851,vts_reward_expectancy,2022.2.4,MacIntel,60.0024001,Chrome,1440,900,,,a,0.3657,10,523,2,1,6,18,8,1,0,0,1,0,0,0,0,1,hexagon,star,,,,,,,,,,,,,,,,,,,,,,,,,,,,,,,,,,,,,,,,,,,,,,,,,,,,,,
296044,2022-10-04_15h05.39.851,vts_reward_expectancy,2022.2.4,MacIntel,60.0024001,Chrome,1440,900,,,a,0.4827,1,524,2,1,7,19,3,1,0,1,0,0,1,0,0,0,circle,triangle,,,,,,,,,,,,,,,,,,,,,,,,,,,,,,,,,,,,,,,,,,,,,,,,,,,,,,
296044,2022-10-04_15h05.39.851,vts_reward_expectancy,2022.2.4,MacIntel,60.0024001,Chrome,1440,900,,,a,0.5671,10,534,2,1,8,20,4,1,0,1,0,0,0,0,1,0,circle,hexagon,,,,,,,,,,,,,,,,,,,,,,,,,,,,,,,,,,,,,,,,,,,,,,,,,,,,,,
296044,2022-10-04_15h05.39.851,vts_reward_expectancy,2022.2.4,MacIntel,60.0024001,Chrome,1440,900,,,a,0.2333,1,535,2,1,9,21,11,1,0,0,0,1,0,0,1,0,star,hexagon,,,,,,,,,,,,,,,,,,,,,,,,,,,,,,,,,,,,,,,,,,,,,,,,,,,,,,
296044,2022-10-04_15h05.39.851,vts_reward_expectancy,2022.2.4,MacIntel,60.0024001,Chrome,1440,900,,,a,0.4153,1,536,2,1,10,22,10,1,0,0,0,1,0,1,0,0,star ,circle,,,,,,,,,,,,,,,,,,,,,,,,,,,,,,,,,,,,,,,,,,,,,,,,,,,,,,
296044,2022-10-04_15h05.39.851,vts_reward_expectancy,2022.2.4,MacIntel,60.0024001,Chrome,1440,900,,,a,0.6328,1,537,2,1,11,23,0,1,1,0,0,0,0,1,0,0,triangle,circle,,,,,,,,,,,,,,,,,,,,,,,,,,,,,,,,,,,,,,,,,,,,,,,,,,,,,,
296044,2022-10-04_15h05.39.851,vts_reward_expectancy,2022.2.4,MacIntel,60.0024001,Chrome,1440,900,,,a,1.6408,1,538,2,2,0,24,10,1,0,0,0,1,0,1,0,0,star ,circle,,,,,,,,,,,,,,,,,,,,,,,,,,,,,,,,,,,,,,,,,,,,,,,,,,,,,,
296044,2022-10-04_15h05.39.851,vts_reward_expectancy,2022.2.4,MacIntel,60.0024001,Chrome,1440,900,,,a,2.8513,1,539,2,2,1,25,5,1,0,1,0,0,0,0,0,1,circle,star,,,,,,,,,,,,,,,,,,,,,,,,,,,,,,,,,,,,,,,,,,,,,,,,,,,,,,
296044,2022-10-04_15h05.39.851,vts_reward_expectancy,2022.2.4,MacIntel,60.0024001,Chrome,1440,900,,,a,1.2174,1,540,2,2,2,26,11,1,0,0,0,1,0,0,1,0,star,hexagon,,,,,,,,,,,,,,,,,,,,,,,,,,,,,,,,,,,,,,,,,,,,,,,,,,,,,,
296044,2022-10-04_15h05.39.851,vts_reward_expectancy,2022.2.4,MacIntel,60.0024001,Chrome,1440,900,,,a,0.0181,1,541,2,2,3,27,9,1,0,0,0,1,1,0,0,0,star,triangle,,,,,,,,,,,,,,,,,,,,,,,,,,,,,,,,,,,,,,,,,,,,,,,,,,,,,,
296044,2022-10-04_15h05.39.851,vts_reward_expectancy,2022.2.4,MacIntel,60.0024001,Chrome,1440,900,,,a,0.2001,10,551,2,2,4,28,8,1,0,0,1,0,0,0,0,1,hexagon,star,,,,,,,,,,,,,,,,,,,,,,,,,,,,,,,,,,,,,,,,,,,,,,,,,,,,,,
296044,2022-10-04_15h05.39.851,vts_reward_expectancy,2022.2.4,MacIntel,60.0024001,Chrome,1440,900,,,a,2.1,1,552,2,2,5,29,6,1,0,0,1,0,1,0,0,0,hexagon,triangle,,,,,,,,,,,,,,,,,,,,,,,,,,,,,,,,,,,,,,,,,,,,,,,,,,,,,,
296044,2022-10-04_15h05.39.851,vts_reward_expectancy,2022.2.4,MacIntel,60.0024001,Chrome,1440,900,,,a,0.5194,1,553,2,2,6,30,3,1,0,1,0,0,1,0,0,0,circle,triangle,,,,,,,,,,,,,,,,,,,,,,,,,,,,,,,,,,,,,,,,,,,,,,,,,,,,,,
296044,2022-10-04_15h05.39.851,vts_reward_expectancy,2022.2.4,MacIntel,60.0024001,Chrome,1440,900,,,a,0.6813,10,563,2,2,7,31,7,1,0,0,1,0,0,1,0,0,hexagon,circle,,,,,,,,,,,,,,,,,,,,,,,,,,,,,,,,,,,,,,,,,,,,,,,,,,,,,,
296044,2022-10-04_15h05.39.851,vts_reward_expectancy,2022.2.4,MacIntel,60.0024001,Chrome,1440,900,,,a,0.4508,10,573,2,2,8,32,0,1,1,0,0,0,0,1,0,0,triangle,circle,,,,,,,,,,,,,,,,,,,,,,,,,,,,,,,,,,,,,,,,,,,,,,,,,,,,,,
296044,2022-10-04_15h05.39.851,vts_reward_expectancy,2022.2.4,MacIntel,60.0024001,Chrome,1440,900,,,a,0.5167,10,583,2,2,9,33,2,1,1,0,0,0,0,0,0,1,triangle,star,,,,,,,,,,,,,,,,,,,,,,,,,,,,,,,,,,,,,,,,,,,,,,,,,,,,,,
296044,2022-10-04_15h05.39.851,vts_reward_expectancy,2022.2.4,MacIntel,60.0024001,Chrome,1440,900,,,a,0.3675,10,593,2,2,10,34,4,1,0,1,0,0,0,0,1,0,circle,hexagon,,,,,,,,,,,,,,,,,,,,,,,,,,,,,,,,,,,,,,,,,,,,,,,,,,,,,,
296044,2022-10-04_15h05.39.851,vts_reward_expectancy,2022.2.4,MacIntel,60.0024001,Chrome,1440,900,,,a,0.303,1,594,2,2,11,35,1,1,1,0,0,0,0,0,1,0,triangle,hexagon,,,,,,,,,,,,,,,,,,,,,,,,,,,,,,,,,,,,,,,,,,,,,,,,,,,,,,
296044,2022-10-04_15h05.39.851,vts_reward_expectancy,2022.2.4,MacIntel,60.0024001,Chrome,1440,900,,,,,,,,,,,,,,,,,,,,,,,174,Y,triangle,0,0,,0,0,0,0,0,1,,,,,,,,,,,,,,,,,,,,,,,,,,,,,,,,,,,,,,,,,,
296044,2022-10-04_15h05.39.851,vts_reward_expectancy,2022.2.4,MacIntel,60.0024001,Chrome,1440,900,,,,,,,,,,,,,,,,,,,,,,,139,W,hexagon,1,1,d,0,1,0,1,0,1,1.3656,,,,,,,,,,,,,,,,,,,,,,,,,,,,,,,,,,,,,,,,,
296044,2022-10-04_15h05.39.851,vts_reward_expectancy,2022.2.4,MacIntel,60.0024001,Chrome,1440,900,,,,,,,,,,,,,,,,,,,,,,,146,H,circle,0,0,f,0,2,0,2,0,1,1.049,,,,,,,,,,,,,,,,,,,,,,,,,,,,,,,,,,,,,,,,,
296044,2022-10-04_15h05.39.851,vts_reward_expectancy,2022.2.4,MacIntel,60.0024001,Chrome,1440,900,,,,,,,,,,,,,,,,,,,,,,,160,B,star,1,1,f,0,3,0,3,0,1,1.5206,,,,,,,,,,,,,,,,,,,,,,,,,,,,,,,,,,,,,,,,,
296044,2022-10-04_15h05.39.851,vts_reward_expectancy,2022.2.4,MacIntel,60.0024001,Chrome,1440,900,,,,,,,,,,,,,,,,,,,,,,,167,F,triangle,1,0,f,0,4,0,4,0,1,0.8843,,,,,,,,,,,,,,,,,,,,,,,,,,,,,,,,,,,,,,,,,
296044,2022-10-04_15h05.39.851,vts_reward_expectancy,2022.2.4,MacIntel,60.0024001,Chrome,1440,900,,,,,,,,,,,,,,,,,,,,,,,125,U,hexagon,1,0,d,0,5,0,5,0,1,1.2703,,,,,,,,,,,,,,,,,,,,,,,,,,,,,,,,,,,,,,,,,
296044,2022-10-04_15h05.39.851,vts_reward_expectancy,2022.2.4,MacIntel,60.0024001,Chrome,1440,900,,,,,,,,,,,,,,,,,,,,,,,181,S,circle,1,0,f,0,6,0,6,0,1,0.9392,,,,,,,,,,,,,,,,,,,,,,,,,,,,,,,,,,,,,,,,,
296044,2022-10-04_15h05.39.851,vts_reward_expectancy,2022.2.4,MacIntel,60.0024001,Chrome,1440,900,,,,,,,,,,,,,,,,,,,,,,,132,D,star,1,0,d,0,7,0,7,0,1,0.5801,,,,,,,,,,,,,,,,,,,,,,,,,,,,,,,,,,,,,,,,,
296044,2022-10-04_15h05.39.851,vts_reward_expectancy,2022.2.4,MacIntel,60.0024001,Chrome,1440,900,,,,,,,,,,,,,,,,,,,,,,,174,Y,star,1,0,f,0,8,0,8,0,1,0.9635,,,,,,,,,,,,,,,,,,,,,,,,,,,,,,,,,,,,,,,,,
296044,2022-10-04_15h05.39.851,vts_reward_expectancy,2022.2.4,MacIntel,60.0024001,Chrome,1440,900,,,,,,,,,,,,,,,,,,,,,,,139,W,circle,1,0,d,0,9,0,9,0,1,0.7138,,,,,,,,,,,,,,,,,,,,,,,,,,,,,,,,,,,,,,,,,
296044,2022-10-04_15h05.39.851,vts_reward_expectancy,2022.2.4,MacIntel,60.0024001,Chrome,1440,900,,,,,,,,,,,,,,,,,,,,,,,174,S,hexagon,1,0,f,1,0,0,0,0,1,1.1173,,,,,,,,,,,,,,,,,,,,,,,,,,,,,,,,,,,,,,,,,
296044,2022-10-04_15h05.39.851,vts_reward_expectancy,2022.2.4,MacIntel,60.0024001,Chrome,1440,900,,,,,,,,,,,,,,,,,,,,,,,167,D,triangle,1,0,f,1,1,0,1,0,1,0.9809,,,,,,,,,,,,,,,,,,,,,,,,,,,,,,,,,,,,,,,,,
296044,2022-10-04_15h05.39.851,vts_reward_expectancy,2022.2.4,MacIntel,60.0024001,Chrome,1440,900,,,,,,,,,,,,,,,,,,,,,,,125,Y,star,1,0,d,1,2,0,2,0,1,0.6308,,,,,,,,,,,,,,,,,,,,,,,,,,,,,,,,,,,,,,,,,
296044,2022-10-04_15h05.39.851,vts_reward_expectancy,2022.2.4,MacIntel,60.0024001,Chrome,1440,900,,,,,,,,,,,,,,,,,,,,,,,181,U,circle,1,0,f,1,3,0,3,0,1,0.697,,,,,,,,,,,,,,,,,,,,,,,,,,,,,,,,,,,,,,,,,
296044,2022-10-04_15h05.39.851,vts_reward_expectancy,2022.2.4,MacIntel,60.0024001,Chrome,1440,900,,,,,,,,,,,,,,,,,,,,,,,139,W,hexagon,1,0,d,1,4,0,4,0,1,0.6644,,,,,,,,,,,,,,,,,,,,,,,,,,,,,,,,,,,,,,,,,
296044,2022-10-04_15h05.39.851,vts_reward_expectancy,2022.2.4,MacIntel,60.0024001,Chrome,1440,900,,,,,,,,,,,,,,,,,,,,,,,146,B,triangle,1,0,d,1,5,0,5,0,1,0.7962,,,,,,,,,,,,,,,,,,,,,,,,,,,,,,,,,,,,,,,,,
296044,2022-10-04_15h05.39.851,vts_reward_expectancy,2022.2.4,MacIntel,60.0024001,Chrome,1440,900,,,,,,,,,,,,,,,,,,,,,,,132,H,star,1,0,d,1,6,0,6,0,1,0.6962,,,,,,,,,,,,,,,,,,,,,,,,,,,,,,,,,,,,,,,,,
296044,2022-10-04_15h05.39.851,vts_reward_expectancy,2022.2.4,MacIntel,60.0024001,Chrome,1440,900,,,,,,,,,,,,,,,,,,,,,,,160,F,circle,1,0,f,1,7,0,7,0,1,1.0318,,,,,,,,,,,,,,,,,,,,,,,,,,,,,,,,,,,,,,,,,
296044,2022-10-04_15h05.39.851,vts_reward_expectancy,2022.2.4,MacIntel,60.0024001,Chrome,1440,900,,,,,,,,,,,,,,,,,,,,,,,174,S,star,1,0,f,1,8,0,8,0,1,0.7004,,,,,,,,,,,,,,,,,,,,,,,,,,,,,,,,,,,,,,,,,
296044,2022-10-04_15h05.39.851,vts_reward_expectancy,2022.2.4,MacIntel,60.0024001,Chrome,1440,900,,,,,,,,,,,,,,,,,,,,,,,167,D,hexagon,1,0,f,1,9,0,9,0,1,0.6814,,,,,,,,,,,,,,,,,,,,,,,,,,,,,,,,,,,,,,,,,
296044,2022-10-04_15h05.39.851,vts_reward_expectancy,2022.2.4,MacIntel,60.0024001,Chrome,1440,900,,,,,,,,,,,,,,,,,,,,,,,174,U,circle,0,0,,2,,,,,,,,0,0,0,0,1,,,,,,,,,,,,,,,,,,,,,,,,,,,,,,,,,,,
296044,2022-10-04_15h05.39.851,vts_reward_expectancy,2022.2.4,MacIntel,60.0024001,Chrome,1440,900,,,,,,,,,,,,,,,,,,,,,,,125,W,triangle,1,1,,2,,,,,,,k,1,0,1,0,1,1.3975,,,,,,,,,,,,,,,,,,,,,,,,,,,,,,,,,,
296044,2022-10-04_15h05.39.851,vts_reward_expectancy,2022.2.4,MacIntel,60.0024001,Chrome,1440,900,,,,,,,,,,,,,,,,,,,,,,,167,Y,star,1,0,,2,,,,,,,k,2,0,2,0,1,0.6648,,,,,,,,,,,,,,,,,,,,,,,,,,,,,,,,,,
296044,2022-10-04_15h05.39.851,vts_reward_expectancy,2022.2.4,MacIntel,60.0024001,Chrome,1440,900,,,,,,,,,,,,,,,,,,,,,,,139,F,hexagon,1,0,,2,,,,,,,j,3,0,3,0,1,0.6809,,,,,,,,,,,,,,,,,,,,,,,,,,,,,,,,,,
296044,2022-10-04_15h05.39.851,vts_reward_expectancy,2022.2.4,MacIntel,60.0024001,Chrome,1440,900,,,,,,,,,,,,,,,,,,,,,,,132,B,circle,1,0,,2,,,,,,,j,4,0,4,0,1,0.666,,,,,,,,,,,,,,,,,,,,,,,,,,,,,,,,,,
296044,2022-10-04_15h05.39.851,vts_reward_expectancy,2022.2.4,MacIntel,60.0024001,Chrome,1440,900,,,,,,,,,,,,,,,,,,,,,,,146,S,triangle,1,0,,2,,,,,,,k,5,0,5,0,1,0.981,,,,,,,,,,,,,,,,,,,,,,,,,,,,,,,,,,
296044,2022-10-04_15h05.39.851,vts_reward_expectancy,2022.2.4,MacIntel,60.0024001,Chrome,1440,900,,,,,,,,,,,,,,,,,,,,,,,160,H,star,1,0,,2,,,,,,,j,6,0,6,0,1,1.5166,,,,,,,,,,,,,,,,,,,,,,,,,,,,,,,,,,
296044,2022-10-04_15h05.39.851,vts_reward_expectancy,2022.2.4,MacIntel,60.0024001,Chrome,1440,900,,,,,,,,,,,,,,,,,,,,,,,181,D,hexagon,1,0,,2,,,,,,,j,7,0,7,0,1,1.0808,,,,,,,,,,,,,,,,,,,,,,,,,,,,,,,,,,
296044,2022-10-04_15h05.39.851,vts_reward_expectancy,2022.2.4,MacIntel,60.0024001,Chrome,1440,900,,,,,,,,,,,,,,,,,,,,,,,174,U,hexagon,1,0,,2,,,,,,,k,8,0,8,0,1,0.9479,,,,,,,,,,,,,,,,,,,,,,,,,,,,,,,,,,
296044,2022-10-04_15h05.39.851,vts_reward_expectancy,2022.2.4,MacIntel,60.0024001,Chrome,1440,900,,,,,,,,,,,,,,,,,,,,,,,125,W,circle,1,0,,2,,,,,,,k,9,0,9,0,1,1.0309,,,,,,,,,,,,,,,,,,,,,,,,,,,,,,,,,,
296044,2022-10-04_15h05.39.851,vts_reward_expectancy,2022.2.4,MacIntel,60.0024001,Chrome,1440,900,,,,,0,594,,,,,,,,,,,,,,,,,174,F,star,0,0,,3,,,,,,,,,,,,,,-1,number,NA,d,0.2633,vtsPrac,0,0,0,0,1,,,,,,,,,,,,,,,,,,,,,,,
296044,2022-10-04_15h05.39.851,vts_reward_expectancy,2022.2.4,MacIntel,60.0024001,Chrome,1440,900,,,,,0,594,,,,,,,,,,,,,,,,,181,D,hexagon,1,1,,3,,,,,,,,,,,,,,switch,letter,lettSwt,j,0.1794,vtsPrac,1,0,1,0,1,,,,,,,,,,,,,,,,,,,,,,,
296044,2022-10-04_15h05.39.851,vts_reward_expectancy,2022.2.4,MacIntel,60.0024001,Chrome,1440,900,,,,,0,594,,,,,,,,,,,,,,,,,132,U,star,1,0,,3,,,,,,,,,,,,,,repeat,letter,lettRpt,k,0.746,vtsPrac,2,0,2,0,1,,,,,,,,,,,,,,,,,,,,,,,
296044,2022-10-04_15h05.39.851,vts_reward_expectancy,2022.2.4,MacIntel,60.0024001,Chrome,1440,900,,,,,0,594,,,,,,,,,,,,,,,,,167,H,hexagon,1,0,,3,,,,,,,,,,,,,,switch,number,numSwt,f,0.947,vtsPrac,3,0,3,0,1,,,,,,,,,,,,,,,,,,,,,,,
296044,2022-10-04_15h05.39.851,vts_reward_expectancy,2022.2.4,MacIntel,60.0024001,Chrome,1440,900,,,,,0,594,,,,,,,,,,,,,,,,,174,F,triangle,1,0,,3,,,,,,,,,,,,,,switch,letter,lettSwt,j,0.7394,vtsPrac,4,0,4,0,1,,,,,,,,,,,,,,,,,,,,,,,
296044,2022-10-04_15h05.39.851,vts_reward_expectancy,2022.2.4,MacIntel,60.0024001,Chrome,1440,900,,,,,0,594,,,,,,,,,,,,,,,,,181,D,star,1,0,,3,,,,,,,,,,,,,,switch,number,numSwt,f,0.634,vtsPrac,5,0,5,0,1,,,,,,,,,,,,,,,,,,,,,,,
296044,2022-10-04_15h05.39.851,vts_reward_expectancy,2022.2.4,MacIntel,60.0024001,Chrome,1440,900,,,,,0,594,,,,,,,,,,,,,,,,,132,U,triangle,1,0,,3,,,,,,,,,,,,,,repeat,number,numRpt,d,1.6813,vtsPrac,6,0,6,0,1,,,,,,,,,,,,,,,,,,,,,,,
296044,2022-10-04_15h05.39.851,vts_reward_expectancy,2022.2.4,MacIntel,60.0024001,Chrome,1440,900,,,,,0,594,,,,,,,,,,,,,,,,,167,H,hexagon,1,0,,3,,,,,,,,,,,,,,repeat,number,numRpt,f,0.5808,vtsPrac,7,0,7,0,1,,,,,,,,,,,,,,,,,,,,,,,
296044,2022-10-04_15h05.39.851,vts_reward_expectancy,2022.2.4,MacIntel,60.0024001,Chrome,1440,900,,,,,0,594,,,,,,,,,,,,,,,,,160,B,circle,1,0,,3,,,,,,,,,,,,,,switch,letter,lettSwt,j,0.613,vtsPrac,8,0,8,0,1,,,,,,,,,,,,,,,,,,,,,,,
296044,2022-10-04_15h05.39.851,vts_reward_expectancy,2022.2.4,MacIntel,60.0024001,Chrome,1440,900,,,,,0,594,,,,,,,,,,,,,,,,,146,F,hexagon,1,0,,3,,,,,,,,,,,,,,repeat,letter,lettRpt,j,0.7963,vtsPrac,9,0,9,0,1,,,,,,,,,,,,,,,,,,,,,,,
296044,2022-10-04_15h05.39.851,vts_reward_expectancy,2022.2.4,MacIntel,60.0024001,Chrome,1440,900,,,,,0,594,,,,,,,,,,,,,,,,,167,U,triangle,1,0,,3,,,,,,,,,,,,,,switch,number,numSwt,f,0.9127,vtsPrac,10,0,10,0,1,,,,,,,,,,,,,,,,,,,,,,,
296044,2022-10-04_15h05.39.851,vts_reward_expectancy,2022.2.4,MacIntel,60.0024001,Chrome,1440,900,,,,,0,594,,,,,,,,,,,,,,,,,125,Y,hexagon,1,0,,3,,,,,,,,,,,,,,switch,letter,lettSwt,k,1.0463,vtsPrac,11,0,11,0,1,,,,,,,,,,,,,,,,,,,,,,,
296044,2022-10-04_15h05.39.851,vts_reward_expectancy,2022.2.4,MacIntel,60.0024001,Chrome,1440,900,,,,,0,594,,,,,,,,,,,,,,,,,125,D,star,1,0,,3,,,,,,,,,,,,,,switch,number,numSwt,d,1.4679,vtsPrac,12,0,12,0,1,,,,,,,,,,,,,,,,,,,,,,,
296044,2022-10-04_15h05.39.851,vts_reward_expectancy,2022.2.4,MacIntel,60.0024001,Chrome,1440,900,,,,,0,594,,,,,,,,,,,,,,,,,174,Y,circle,1,0,,3,,,,,,,,,,,,,,switch,letter,lettSwt,k,0.6219,vtsPrac,13,0,13,0,1,,,,,,,,,,,,,,,,,,,,,,,
296044,2022-10-04_15h05.39.851,vts_reward_expectancy,2022.2.4,MacIntel,60.0024001,Chrome,1440,900,,,,,0,594,,,,,,,,,,,,,,,,,146,B,star,1,0,,3,,,,,,,,,,,,,,repeat,letter,lettRpt,j,0.6066,vtsPrac,14,0,14,0,1,,,,,,,,,,,,,,,,,,,,,,,
296044,2022-10-04_15h05.39.851,vts_reward_expectancy,2022.2.4,MacIntel,60.0024001,Chrome,1440,900,,,,,0,594,,,,,,,,,,,,,,,,,181,H,circle,1,0,,3,,,,,,,,,,,,,,switch,number,numSwt,f,0.6638,vtsPrac,15,0,15,0,1,,,,,,,,,,,,,,,,,,,,,,,
296044,2022-10-04_15h05.39.851,vts_reward_expectancy,2022.2.4,MacIntel,60.0024001,Chrome,1440,900,,,,,,,,,,,,,,,,,,,,,,,,,,,,,,,,,,,,,,,,,,,,,,,,,,,,,,,,,,,,,,,,,,,,,,,,,,,,
296044,2022-10-04_15h05.39.851,vts_reward_expectancy,2022.2.4,MacIntel,60.0024001,Chrome,1440,900,,,,,,,,,,,,,,,,,,,,,,,,,,,,,,,,,,,,,,,,,,,,,,,,,,,,,,,,,,,,,,,,,,,,,,,,,,,,
296044,2022-10-04_15h05.39.851,vts_reward_expectancy,2022.2.4,MacIntel,60.0024001,Chrome,1440,900,,,,,0,594,,,,,,,,,,,,,,,,,132,W,star,1,0,,,,,,,,,,,,,,,,switch,letter,lettSwt,k,0.7835,noRew,,,,,,0,0,0,0,0,1,,,,,,,,,,,,,,,,,
296044,2022-10-04_15h05.39.851,vts_reward_expectancy,2022.2.4,MacIntel,60.0024001,Chrome,1440,900,,,,,0,594,,,,,,,,,,,,,,,,,174,S,circle,1,0,,,,,,,,,,,,,,,,repeat,letter,lettRpt,k,1.1655,noRew,,,,,,0,1,0,1,0,1,,,,,,,,,,,,,,,,,
296044,2022-10-04_15h05.39.851,vts_reward_expectancy,2022.2.4,MacIntel,60.0024001,Chrome,1440,900,,,,,0,594,,,,,,,,,,,,,,,,,139,B,star,1,0,,,,,,,,,,,,,,,,switch,number,numSwt,d,1.1138,noRew,,,,,,0,2,0,2,0,1,,,,,,,,,,,,,,,,,
296044,2022-10-04_15h05.39.851,vts_reward_expectancy,2022.2.4,MacIntel,60.0024001,Chrome,1440,900,,,,,0,594,,,,,,,,,,,,,,,,,181,H,circle,0,0,,,,,,,,,,,,,,,,repeat,number,NA,d,1.2893,noRew,,,,,,0,3,0,3,0,1,,,,,,,,,,,,,,,,,
296044,2022-10-04_15h05.39.851,vts_reward_expectancy,2022.2.4,MacIntel,60.0024001,Chrome,1440,900,,,,,0,594,,,,,,,,,,,,,,,,,132,W,star,1,1,,,,,,,,,,,,,,,,switch,letter,lettSwt,k,1.2967,noRew,,,,,,0,4,0,4,0,1,,,,,,,,,,,,,,,,,
296044,2022-10-04_15h05.39.851,vts_reward_expectancy,2022.2.4,MacIntel,60.0024001,Chrome,1440,900,,,,,0,594,,,,,,,,,,,,,,,,,174,S,hexagon,1,0,,,,,,,,,,,,,,,,switch,number,numSwt,f,1.2143,noRew,,,,,,0,5,0,5,0,1,,,,,,,,,,,,,,,,,
296044,2022-10-04_15h05.39.851,vts_reward_expectancy,2022.2.4,MacIntel,60.0024001,Chrome,1440,900,,,,,0,594,,,,,,,,,,,,,,,,,139,B,star,1,0,,,,,,,,,,,,,,,,repeat,number,numRpt,d,0.7466,noRew,,,,,,0,6,0,6,0,1,,,,,,,,,,,,,,,,,
296044,2022-10-04_15h05.39.851,vts_reward_expectancy,2022.2.4,MacIntel,60.0024001,Chrome,1440,900,,,,,0,594,,,,,,,,,,,,,,,,,181,H,triangle,1,0,,,,,,,,,,,,,,,,switch,letter,lettSwt,j,0.7463,noRew,,,,,,0,7,0,7,0,1,,,,,,,,,,,,,,,,,
296044,2022-10-04_15h05.39.851,vts_reward_expectancy,2022.2.4,MacIntel,60.0024001,Chrome,1440,900,,,,,0,594,,,,,,,,,,,,,,,,,132,D,star,1,0,,,,,,,,,,,,,,,,repeat,letter,lettRpt,j,1.1475,noRew,,,,,,0,8,0,8,0,1,,,,,,,,,,,,,,,,,
296044,2022-10-04_15h05.39.851,vts_reward_expectancy,2022.2.4,MacIntel,60.0024001,Chrome,1440,900,,,,,0,594,,,,,,,,,,,,,,,,,167,W,hexagon,0,0,,,,,,,,,,,,,,,,switch,number,NA,d,0.7959,noRew,,,,,,0,9,0,9,0,1,,,,,,,,,,,,,,,,,
296044,2022-10-04_15h05.39.851,vts_reward_expectancy,2022.2.4,MacIntel,60.0024001,Chrome,1440,900,,,,,0,594,,,,,,,,,,,,,,,,,181,H,triangle,1,1,,,,,,,,,,,,,,,,repeat,number,numRpt,f,1.1813,noRew,,,,,,0,10,0,10,0,1,,,,,,,,,,,,,,,,,
296044,2022-10-04_15h05.39.851,vts_reward_expectancy,2022.2.4,MacIntel,60.0024001,Chrome,1440,900,,,,,0,594,,,,,,,,,,,,,,,,,160,S,hexagon,1,0,,,,,,,,,,,,,,,,switch,letter,lettSwt,k,0.7473,noRew,,,,,,0,11,0,11,0,1,,,,,,,,,,,,,,,,,
296044,2022-10-04_15h05.39.851,vts_reward_expectancy,2022.2.4,MacIntel,60.0024001,Chrome,1440,900,,,,,0,594,,,,,,,,,,,,,,,,,174,D,star,1,0,,,,,,,,,,,,,,,,switch,number,numSwt,f,0.9302,noRew,,,,,,0,12,0,12,0,1,,,,,,,,,,,,,,,,,
296044,2022-10-04_15h05.39.851,vts_reward_expectancy,2022.2.4,MacIntel,60.0024001,Chrome,1440,900,,,,,0,594,,,,,,,,,,,,,,,,,132,W,triangle,1,0,,,,,,,,,,,,,,,,switch,letter,lettSwt,k,0.648,noRew,,,,,,0,13,0,13,0,1,,,,,,,,,,,,,,,,,
296044,2022-10-04_15h05.39.851,vts_reward_expectancy,2022.2.4,MacIntel,60.0024001,Chrome,1440,900,,,,,0,594,,,,,,,,,,,,,,,,,181,Y,circle,1,0,,,,,,,,,,,,,,,,switch,number,numSwt,f,0.4966,noRew,,,,,,0,14,0,14,0,1,,,,,,,,,,,,,,,,,
296044,2022-10-04_15h05.39.851,vts_reward_expectancy,2022.2.4,MacIntel,60.0024001,Chrome,1440,900,,,,,0,594,,,,,,,,,,,,,,,,,160,B,star,1,0,,,,,,,,,,,,,,,,switch,letter,lettSwt,j,0.5236,noRew,,,,,,0,15,0,15,0,1,,,,,,,,,,,,,,,,,
296044,2022-10-04_15h05.39.851,vts_reward_expectancy,2022.2.4,MacIntel,60.0024001,Chrome,1440,900,,,,,0,594,,,,,,,,,,,,,,,,,160,U,circle,1,0,,,,,,,,,,,,,,,,switch,number,numSwt,f,0.6854,noRew,,,,,,0,16,0,16,0,1,,,,,,,,,,,,,,,,,
296044,2022-10-04_15h05.39.851,vts_reward_expectancy,2022.2.4,MacIntel,60.0024001,Chrome,1440,900,,,,,0,594,,,,,,,,,,,,,,,,,181,F,triangle,1,0,,,,,,,,,,,,,,,,switch,letter,lettSwt,j,0.9236,noRew,,,,,,0,17,0,17,0,1,,,,,,,,,,,,,,,,,
296044,2022-10-04_15h05.39.851,vts_reward_expectancy,2022.2.4,MacIntel,60.0024001,Chrome,1440,900,,,,,0,594,,,,,,,,,,,,,,,,,125,W,triangle,1,0,,,,,,,,,,,,,,,,switch,number,numSwt,d,0.6666,noRew,,,,,,0,18,0,18,0,1,,,,,,,,,,,,,,,,,
296044,2022-10-04_15h05.39.851,vts_reward_expectancy,2022.2.4,MacIntel,60.0024001,Chrome,1440,900,,,,,0,594,,,,,,,,,,,,,,,,,146,D,circle,1,0,,,,,,,,,,,,,,,,switch,letter,lettSwt,j,0.7558,noRew,,,,,,0,19,0,19,0,1,,,,,,,,,,,,,,,,,
296044,2022-10-04_15h05.39.851,vts_reward_expectancy,2022.2.4,MacIntel,60.0024001,Chrome,1440,900,,,,,0,594,,,,,,,,,,,,,,,,,132,D,hexagon,1,0,,,,,,,,,,,,,,,,switch,number,numSwt,d,0.5579,noRew,,,,,,0,20,0,20,0,1,,,,,,,,,,,,,,,,,
296044,2022-10-04_15h05.39.851,vts_reward_expectancy,2022.2.4,MacIntel,60.0024001,Chrome,1440,900,,,,,0,594,,,,,,,,,,,,,,,,,125,S,circle,1,0,,,,,,,,,,,,,,,,switch,letter,lettSwt,k,1.0462,noRew,,,,,,0,21,0,21,0,1,,,,,,,,,,,,,,,,,
296044,2022-10-04_15h05.39.851,vts_reward_expectancy,2022.2.4,MacIntel,60.0024001,Chrome,1440,900,,,,,0,594,,,,,,,,,,,,,,,,,146,H,hexagon,1,0,,,,,,,,,,,,,,,,switch,number,numSwt,d,0.8307,noRew,,,,,,0,22,0,22,0,1,,,,,,,,,,,,,,,,,
296044,2022-10-04_15h05.39.851,vts_reward_expectancy,2022.2.4,MacIntel,60.0024001,Chrome,1440,900,,,,,0,594,,,,,,,,,,,,,,,,,139,F,star,1,0,,,,,,,,,,,,,,,,switch,letter,lettSwt,j,1.2641,noRew,,,,,,0,23,0,23,0,1,,,,,,,,,,,,,,,,,
296044,2022-10-04_15h05.39.851,vts_reward_expectancy,2022.2.4,MacIntel,60.0024001,Chrome,1440,900,,,,,0,594,,,,,,,,,,,,,,,,,125,D,triangle,1,0,,,,,,,,,,,,,,,,switch,number,numSwt,d,1.0394,noRew,,,,,,0,24,0,24,0,1,,,,,,,,,,,,,,,,,
296044,2022-10-04_15h05.39.851,vts_reward_expectancy,2022.2.4,MacIntel,60.0024001,Chrome,1440,900,,,,,0,594,,,,,,,,,,,,,,,,,160,H,circle,1,0,,,,,,,,,,,,,,,,switch,letter,lettSwt,j,0.8808,noRew,,,,,,0,25,0,25,0,1,,,,,,,,,,,,,,,,,
296044,2022-10-04_15h05.39.851,vts_reward_expectancy,2022.2.4,MacIntel,60.0024001,Chrome,1440,900,,,,,0,594,,,,,,,,,,,,,,,,,139,F,triangle,1,0,,,,,,,,,,,,,,,,switch,number,numSwt,d,0.6023,noRew,,,,,,0,26,0,26,0,1,,,,,,,,,,,,,,,,,
296044,2022-10-04_15h05.39.851,vts_reward_expectancy,2022.2.4,MacIntel,60.0024001,Chrome,1440,900,,,,,0,594,,,,,,,,,,,,,,,,,132,B,star,1,0,,,,,,,,,,,,,,,,switch,letter,lettSwt,j,0.6808,noRew,,,,,,0,27,0,27,0,1,,,,,,,,,,,,,,,,,
296044,2022-10-04_15h05.39.851,vts_reward_expectancy,2022.2.4,MacIntel,60.0024001,Chrome,1440,900,,,,,0,594,,,,,,,,,,,,,,,,,174,B,hexagon,1,0,,,,,,,,,,,,,,,,switch,number,numSwt,f,0.7727,noRew,,,,,,0,28,0,28,0,1,,,,,,,,,,,,,,,,,
296044,2022-10-04_15h05.39.851,vts_reward_expectancy,2022.2.4,MacIntel,60.0024001,Chrome,1440,900,,,,,0,594,,,,,,,,,,,,,,,,,181,W,star,1,0,,,,,,,,,,,,,,,,switch,letter,lettSwt,k,1.1193,noRew,,,,,,0,29,0,29,0,1,,,,,,,,,,,,,,,,,
296044,2022-10-04_15h05.39.851,vts_reward_expectancy,2022.2.4,MacIntel,60.0024001,Chrome,1440,900,,,,,0,594,,,,,,,,,,,,,,,,,132,S,triangle,0,0,,,,,,,,,,,,,,,,repeat,letter,NA,j,0.8474,noRew,,,,,,0,30,0,30,0,1,,,,,,,,,,,,,,,,,
296044,2022-10-04_15h05.39.851,vts_reward_expectancy,2022.2.4,MacIntel,60.0024001,Chrome,1440,900,,,,,0,594,,,,,,,,,,,,,,,,,160,D,hexagon,1,1,,,,,,,,,,,,,,,,switch,number,numSwt,f,1.1462,noRew,,,,,,0,31,0,31,0,1,,,,,,,,,,,,,,,,,
296044,2022-10-04_15h05.39.851,vts_reward_expectancy,2022.2.4,MacIntel,60.0024001,Chrome,1440,900,,,,,0,594,,,,,,,,,,,,,,,,,167,D,hexagon,1,0,,,,,,,,,,,,,,,,switch,letter,lettSwt,j,0.5821,noRew,,,,,,0,32,0,32,0,1,,,,,,,,,,,,,,,,,
296044,2022-10-04_15h05.39.851,vts_reward_expectancy,2022.2.4,MacIntel,60.0024001,Chrome,1440,900,,,,,0,594,,,,,,,,,,,,,,,,,174,Y,circle,1,0,,,,,,,,,,,,,,,,switch,number,numSwt,f,1.0355,noRew,,,,,,0,33,0,33,0,1,,,,,,,,,,,,,,,,,
296044,2022-10-04_15h05.39.851,vts_reward_expectancy,2022.2.4,MacIntel,60.0024001,Chrome,1440,900,,,,,0,594,,,,,,,,,,,,,,,,,160,H,hexagon,1,0,,,,,,,,,,,,,,,,switch,letter,lettSwt,j,0.9157,noRew,,,,,,0,34,0,34,0,1,,,,,,,,,,,,,,,,,
296044,2022-10-04_15h05.39.851,vts_reward_expectancy,2022.2.4,MacIntel,60.0024001,Chrome,1440,900,,,,,0,594,,,,,,,,,,,,,,,,,146,W,triangle,1,0,,,,,,,,,,,,,,,,switch,number,numSwt,d,2,noRew,,,,,,0,35,0,35,0,1,,,,,,,,,,,,,,,,,
296044,2022-10-04_15h05.39.851,vts_reward_expectancy,2022.2.4,MacIntel,60.0024001,Chrome,1440,900,,,,,0,594,,,,,,,,,,,,,,,,,146,Y,circle,1,0,,,,,,,,,,,,,,,,switch,letter,lettSwt,k,0.6054,noRew,,,,,,0,36,0,36,0,1,,,,,,,,,,,,,,,,,
296044,2022-10-04_15h05.39.851,vts_reward_expectancy,2022.2.4,MacIntel,60.0024001,Chrome,1440,900,,,,,0,594,,,,,,,,,,,,,,,,,132,D,hexagon,1,0,,,,,,,,,,,,,,,,switch,number,numSwt,d,0.9471,noRew,,,,,,0,37,0,37,0,1,,,,,,,,,,,,,,,,,
296044,2022-10-04_15h05.39.851,vts_reward_expectancy,2022.2.4,MacIntel,60.0024001,Chrome,1440,900,,,,,0,594,,,,,,,,,,,,,,,,,125,S,hexagon,1,0,,,,,,,,,,,,,,,,switch,letter,lettSwt,k,1.2428,noRew,,,,,,0,38,0,38,0,1,,,,,,,,,,,,,,,,,
296044,2022-10-04_15h05.39.851,vts_reward_expectancy,2022.2.4,MacIntel,60.0024001,Chrome,1440,900,,,,,0,594,,,,,,,,,,,,,,,,,167,F,star,1,0,,,,,,,,,,,,,,,,switch,number,numSwt,f,0.5477,noRew,,,,,,0,39,0,39,0,1,,,,,,,,,,,,,,,,,
296044,2022-10-04_15h05.39.851,vts_reward_expectancy,2022.2.4,MacIntel,60.0024001,Chrome,1440,900,,,,,0,594,,,,,,,,,,,,,,,,,160,S,star,1,0,,,,,,,,,,,,,,,,switch,letter,lettSwt,k,0.7324,noRew,,,,,,0,40,0,40,0,1,,,,,,,,,,,,,,,,,
296044,2022-10-04_15h05.39.851,vts_reward_expectancy,2022.2.4,MacIntel,60.0024001,Chrome,1440,900,,,,,0,594,,,,,,,,,,,,,,,,,132,H,triangle,1,0,,,,,,,,,,,,,,,,switch,number,numSwt,d,0.5645,noRew,,,,,,0,41,0,41,0,1,,,,,,,,,,,,,,,,,
296044,2022-10-04_15h05.39.851,vts_reward_expectancy,2022.2.4,MacIntel,60.0024001,Chrome,1440,900,,,,,0,594,,,,,,,,,,,,,,,,,174,W,star,1,0,,,,,,,,,,,,,,,,switch,letter,lettSwt,k,1.0367,noRew,,,,,,0,42,0,42,0,1,,,,,,,,,,,,,,,,,
296044,2022-10-04_15h05.39.851,vts_reward_expectancy,2022.2.4,MacIntel,60.0024001,Chrome,1440,900,,,,,0,594,,,,,,,,,,,,,,,,,146,B,hexagon,1,0,,,,,,,,,,,,,,,,switch,number,numSwt,d,0.6837,noRew,,,,,,0,43,0,43,0,1,,,,,,,,,,,,,,,,,
296044,2022-10-04_15h05.39.851,vts_reward_expectancy,2022.2.4,MacIntel,60.0024001,Chrome,1440,900,,,,,0,594,,,,,,,,,,,,,,,,,181,D,star,1,0,,,,,,,,,,,,,,,,switch,letter,lettSwt,j,1.4478,noRew,,,,,,0,44,0,44,0,1,,,,,,,,,,,,,,,,,
296044,2022-10-04_15h05.39.851,vts_reward_expectancy,2022.2.4,MacIntel,60.0024001,Chrome,1440,900,,,,,0,594,,,,,,,,,,,,,,,,,139,W,triangle,1,0,,,,,,,,,,,,,,,,switch,number,numSwt,d,0.8503,noRew,,,,,,0,45,0,45,0,1,,,,,,,,,,,,,,,,,
296044,2022-10-04_15h05.39.851,vts_reward_expectancy,2022.2.4,MacIntel,60.0024001,Chrome,1440,900,,,,,0,594,,,,,,,,,,,,,,,,,174,F,hexagon,1,0,,,,,,,,,,,,,,,,switch,letter,lettSwt,j,1.0395,noRew,,,,,,0,46,0,46,0,1,,,,,,,,,,,,,,,,,
296044,2022-10-04_15h05.39.851,vts_reward_expectancy,2022.2.4,MacIntel,60.0024001,Chrome,1440,900,,,,,0,594,,,,,,,,,,,,,,,,,167,U,circle,1,0,,,,,,,,,,,,,,,,switch,number,numSwt,f,2.1976,noRew,,,,,,0,47,0,47,0,1,,,,,,,,,,,,,,,,,
296044,2022-10-04_15h05.39.851,vts_reward_expectancy,2022.2.4,MacIntel,60.0024001,Chrome,1440,900,,,,,0,594,,,,,,,,,,,,,,,,,125,D,hexagon,1,0,,,,,,,,,,,,,,,,switch,letter,lettSwt,j,0.7469,noRew,,,,,,0,48,0,48,0,1,,,,,,,,,,,,,,,,,
296044,2022-10-04_15h05.39.851,vts_reward_expectancy,2022.2.4,MacIntel,60.0024001,Chrome,1440,900,,,,,0,594,,,,,,,,,,,,,,,,,174,F,triangle,1,0,,,,,,,,,,,,,,,,switch,number,numSwt,f,0.4979,noRew,,,,,,0,49,0,49,0,1,,,,,,,,,,,,,,,,,
296044,2022-10-04_15h05.39.851,vts_reward_expectancy,2022.2.4,MacIntel,60.0024001,Chrome,1440,900,,,,,0,594,,,,,,,,,,,,,,,,,160,H,star,0,0,,,,,,,,,,,,,,,,repeat,number,NA,d,1.2108,noRew,,,,,,0,50,0,50,0,1,,,,,,,,,,,,,,,,,
296044,2022-10-04_15h05.39.851,vts_reward_expectancy,2022.2.4,MacIntel,60.0024001,Chrome,1440,900,,,,,0,594,,,,,,,,,,,,,,,,,132,Y,circle,1,1,,,,,,,,,,,,,,,,switch,letter,lettSwt,k,0.7822,noRew,,,,,,0,51,0,51,0,1,,,,,,,,,,,,,,,,,
296044,2022-10-04_15h05.39.851,vts_reward_expectancy,2022.2.4,MacIntel,60.0024001,Chrome,1440,900,,,,,0,594,,,,,,,,,,,,,,,,,139,Y,star,1,0,,,,,,,,,,,,,,,,switch,number,numSwt,d,0.7003,noRew,,,,,,0,52,0,52,0,1,,,,,,,,,,,,,,,,,
296044,2022-10-04_15h05.39.851,vts_reward_expectancy,2022.2.4,MacIntel,60.0024001,Chrome,1440,900,,,,,0,594,,,,,,,,,,,,,,,,,146,H,circle,1,0,,,,,,,,,,,,,,,,switch,letter,lettSwt,j,1.0479,noRew,,,,,,0,53,0,53,0,1,,,,,,,,,,,,,,,,,
296044,2022-10-04_15h05.39.851,vts_reward_expectancy,2022.2.4,MacIntel,60.0024001,Chrome,1440,900,,,,,0,594,,,,,,,,,,,,,,,,,160,S,circle,1,0,,,,,,,,,,,,,,,,repeat,letter,lettRpt,k,0.9383,noRew,,,,,,0,54,0,54,0,1,,,,,,,,,,,,,,,,,
296044,2022-10-04_15h05.39.851,vts_reward_expectancy,2022.2.4,MacIntel,60.0024001,Chrome,1440,900,,,,,0,594,,,,,,,,,,,,,,,,,125,B,triangle,1,0,,,,,,,,,,,,,,,,switch,number,numSwt,d,1.0309,noRew,,,,,,0,55,0,55,0,1,,,,,,,,,,,,,,,,,
296044,2022-10-04_15h05.39.851,vts_reward_expectancy,2022.2.4,MacIntel,60.0024001,Chrome,1440,900,,,,,0,594,,,,,,,,,,,,,,,,,146,W,triangle,1,0,,,,,,,,,,,,,,,,repeat,number,numRpt,d,1.4139,noRew,,,,,,0,56,0,56,0,1,,,,,,,,,,,,,,,,,
296044,2022-10-04_15h05.39.851,vts_reward_expectancy,2022.2.4,MacIntel,60.0024001,Chrome,1440,900,,,,,0,594,,,,,,,,,,,,,,,,,174,D,hexagon,1,0,,,,,,,,,,,,,,,,switch,letter,lettSwt,j,0.7857,noRew,,,,,,0,57,0,57,0,1,,,,,,,,,,,,,,,,,
296044,2022-10-04_15h05.39.851,vts_reward_expectancy,2022.2.4,MacIntel,60.0024001,Chrome,1440,900,,,,,0,594,,,,,,,,,,,,,,,,,132,U,triangle,1,0,,,,,,,,,,,,,,,,switch,number,numSwt,d,1.0145,noRew,,,,,,0,58,0,58,0,1,,,,,,,,,,,,,,,,,
296044,2022-10-04_15h05.39.851,vts_reward_expectancy,2022.2.4,MacIntel,60.0024001,Chrome,1440,900,,,,,0,594,,,,,,,,,,,,,,,,,167,S,star,1,0,,,,,,,,,,,,,,,,switch,letter,lettSwt,k,1.3135,noRew,,,,,,0,59,0,59,0,1,,,,,,,,,,,,,,,,,
296044,2022-10-04_15h05.39.851,vts_reward_expectancy,2022.2.4,MacIntel,60.0024001,Chrome,1440,900,,,,,0,594,,,,,,,,,,,,,,,,,167,Y,hexagon,1,0,,,,,,,,,,,,,,,,switch,number,numSwt,f,1.6002,noRew,,,,,,0,60,0,60,0,1,,,,,,,,,,,,,,,,,
296044,2022-10-04_15h05.39.851,vts_reward_expectancy,2022.2.4,MacIntel,60.0024001,Chrome,1440,900,,,,,0,594,,,,,,,,,,,,,,,,,174,H,triangle,1,0,,,,,,,,,,,,,,,,switch,letter,lettSwt,j,0.6147,noRew,,,,,,0,61,0,61,0,1,,,,,,,,,,,,,,,,,
296044,2022-10-04_15h05.39.851,vts_reward_expectancy,2022.2.4,MacIntel,60.0024001,Chrome,1440,900,,,,,0,594,,,,,,,,,,,,,,,,,125,B,triangle,1,0,,,,,,,,,,,,,,,,switch,number,numSwt,d,1.5399,noRew,,,,,,0,62,0,62,0,1,,,,,,,,,,,,,,,,,
296044,2022-10-04_15h05.39.851,vts_reward_expectancy,2022.2.4,MacIntel,60.0024001,Chrome,1440,900,,,,,0,594,,,,,,,,,,,,,,,,,132,W,circle,1,0,,,,,,,,,,,,,,,,switch,letter,lettSwt,k,0.6674,noRew,,,,,,0,63,0,63,0,1,,,,,,,,,,,,,,,,,
296044,2022-10-04_15h05.39.851,vts_reward_expectancy,2022.2.4,MacIntel,60.0024001,Chrome,1440,900,,,,,,,,,,,,,,,,,,,,,,,,,,,,,,,,,,,,,,,,,,,,,,,,,,,,,,,,,,,,,,,,,,,,,,,,,,,,
296044,2022-10-04_15h05.39.851,vts_reward_expectancy,2022.2.4,MacIntel,60.0024001,Chrome,1440,900,,,,,0,594,,,,,,,,,,,,,,,,,181,U,triangle,1,0,,,,,,,,,,,,,,,,repeat,letter,lettRpt,k,1.1483,Hi,,,,,,0,,,,,,space,11.331,high,0,0,0,0,1,,,,,,,,,
296044,2022-10-04_15h05.39.851,vts_reward_expectancy,2022.2.4,MacIntel,60.0024001,Chrome,1440,900,,,,,1,595,,,,,,,,,,,,,,,,,125,B,star,1,0,,,,,,,,,,,,,,,,switch,number,numSwt,d,0.6795,Lo,,,,,,0,,,,,,,,high,1,0,1,0,1,,,,,,,,,
296044,2022-10-04_15h05.39.851,vts_reward_expectancy,2022.2.4,MacIntel,60.0024001,Chrome,1440,900,,,,,0,595,,,,,,,,,,,,,,,,,167,H,triangle,1,0,,,,,,,,,,,,,,,,switch,letter,lettSwt,j,0.814,Hi,,,,,,0,,,,,,,,high,2,0,2,0,1,,,,,,,,,
296044,2022-10-04_15h05.39.851,vts_reward_expectancy,2022.2.4,MacIntel,60.0024001,Chrome,1440,900,,,,,1,596,,,,,,,,,,,,,,,,,146,S,star,1,0,,,,,,,,,,,,,,,,repeat,letter,lettRpt,k,0.5487,Lo,,,,,,0,,,,,,,,high,3,0,3,0,1,,,,,,,,,
296044,2022-10-04_15h05.39.851,vts_reward_expectancy,2022.2.4,MacIntel,60.0024001,Chrome,1440,900,,,,,10,606,,,,,,,,,,,,,,,,,139,D,triangle,1,0,,,,,,,,,,,,,,,,switch,number,numSwt,d,0.6141,Hi,,,,,,0,,,,,,,,high,4,0,4,0,1,,,,,,,,,
296044,2022-10-04_15h05.39.851,vts_reward_expectancy,2022.2.4,MacIntel,60.0024001,Chrome,1440,900,,,,,10,616,,,,,,,,,,,,,,,,,132,Y,star,1,0,,,,,,,,,,,,,,,,repeat,number,numRpt,d,0.5143,Lo,,,,,,0,,,,,,,,high,5,0,5,0,1,,,,,,,,,
296044,2022-10-04_15h05.39.851,vts_reward_expectancy,2022.2.4,MacIntel,60.0024001,Chrome,1440,900,,,,,1,617,,,,,,,,,,,,,,,,,174,W,star,1,0,,,,,,,,,,,,,,,,switch,letter,lettSwt,k,0.546,Lo,,,,,,0,,,,,,,,high,6,0,6,0,1,,,,,,,,,
296044,2022-10-04_15h05.39.851,vts_reward_expectancy,2022.2.4,MacIntel,60.0024001,Chrome,1440,900,,,,,10,627,,,,,,,,,,,,,,,,,160,F,triangle,1,0,,,,,,,,,,,,,,,,repeat,letter,lettRpt,j,0.7112,Hi,,,,,,0,,,,,,,,high,7,0,7,0,1,,,,,,,,,
296044,2022-10-04_15h05.39.851,vts_reward_expectancy,2022.2.4,MacIntel,60.0024001,Chrome,1440,900,,,,,1,628,,,,,,,,,,,,,,,,,181,U,star,1,0,,,,,,,,,,,,,,,,repeat,letter,lettRpt,k,0.6187,Lo,,,,,,0,,,,,,,,high,8,0,8,0,1,,,,,,,,,
296044,2022-10-04_15h05.39.851,vts_reward_expectancy,2022.2.4,MacIntel,60.0024001,Chrome,1440,900,,,,,10,638,,,,,,,,,,,,,,,,,125,B,triangle,1,0,,,,,,,,,,,,,,,,switch,number,numSwt,d,0.5672,Hi,,,,,,0,,,,,,,,high,9,0,9,0,1,,,,,,,,,
296044,2022-10-04_15h05.39.851,vts_reward_expectancy,2022.2.4,MacIntel,60.0024001,Chrome,1440,900,,,,,1,639,,,,,,,,,,,,,,,,,167,H,star,1,0,,,,,,,,,,,,,,,,repeat,number,numRpt,f,0.5542,Lo,,,,,,0,,,,,,,,high,10,0,10,0,1,,,,,,,,,
296044,2022-10-04_15h05.39.851,vts_reward_expectancy,2022.2.4,MacIntel,60.0024001,Chrome,1440,900,,,,,0,639,,,,,,,,,,,,,,,,,146,S,triangle,1,0,,,,,,,,,,,,,,,,switch,letter,lettSwt,k,1.0553,Hi,,,,,,0,,,,,,,,high,11,0,11,0,1,,,,,,,,,
296044,2022-10-04_15h05.39.851,vts_reward_expectancy,2022.2.4,MacIntel,60.0024001,Chrome,1440,900,,,,,1,640,,,,,,,,,,,,,,,,,139,D,triangle,1,0,,,,,,,,,,,,,,,,switch,number,numSwt,d,0.5137,Hi,,,,,,0,,,,,,,,high,12,0,12,0,1,,,,,,,,,
296044,2022-10-04_15h05.39.851,vts_reward_expectancy,2022.2.4,MacIntel,60.0024001,Chrome,1440,900,,,,,1,641,,,,,,,,,,,,,,,,,132,Y,star,1,0,,,,,,,,,,,,,,,,switch,letter,lettSwt,k,0.5191,Lo,,,,,,0,,,,,,,,high,13,0,13,0,1,,,,,,,,,
296044,2022-10-04_15h05.39.851,vts_reward_expectancy,2022.2.4,MacIntel,60.0024001,Chrome,1440,900,,,,,0,641,,,,,,,,,,,,,,,,,174,W,triangle,0,0,,,,,,,,,,,,,,,,repeat,letter,NA,j,0.3897,Lo,,,,,,0,,,,,,,,high,14,0,14,0,1,,,,,,,,,
296044,2022-10-04_15h05.39.851,vts_reward_expectancy,2022.2.4,MacIntel,60.0024001,Chrome,1440,900,,,,,1,642,,,,,,,,,,,,,,,,,160,F,star,1,1,,,,,,,,,,,,,,,,repeat,letter,lettRpt,j,0.5454,Lo,,,,,,0,,,,,,,,high,15,0,15,0,1,,,,,,,,,
296044,2022-10-04_15h05.39.851,vts_reward_expectancy,2022.2.4,MacIntel,60.0024001,Chrome,1440,900,,,,,0,642,,,,,,,,,,,,,,,,,174,F,star,0,0,,,,,,,,,,,,,,,,switch,number,NA,d,0.7146,Lo,,,,,,0,,,,,,,,high,16,0,16,0,1,,,,,,,,,
296044,2022-10-04_15h05.39.851,vts_reward_expectancy,2022.2.4,MacIntel,60.0024001,Chrome,1440,900,,,,,10,652,,,,,,,,,,,,,,,,,181,H,triangle,1,1,,,,,,,,,,,,,,,,repeat,number,numRpt,f,0.7144,Hi,,,,,,0,,,,,,,,high,17,0,17,0,1,,,,,,,,,
296044,2022-10-04_15h05.39.851,vts_reward_expectancy,2022.2.4,MacIntel,60.0024001,Chrome,1440,900,,,,,1,653,,,,,,,,,,,,,,,,,146,B,star,1,0,,,,,,,,,,,,,,,,repeat,number,numRpt,d,0.8345,Lo,,,,,,0,,,,,,,,high,18,0,18,0,1,,,,,,,,,
296044,2022-10-04_15h05.39.851,vts_reward_expectancy,2022.2.4,MacIntel,60.0024001,Chrome,1440,900,,,,,0,653,,,,,,,,,,,,,,,,,139,D,triangle,0,0,,,,,,,,,,,,,,,,repeat,number,NA,f,0.3125,Lo,,,,,,0,,,,,,,,high,19,0,19,0,1,,,,,,,,,
296044,2022-10-04_15h05.39.851,vts_reward_expectancy,2022.2.4,MacIntel,60.0024001,Chrome,1440,900,,,,,10,663,,,,,,,,,,,,,,,,,167,W,star,1,1,,,,,,,,,,,,,,,,repeat,number,numRpt,f,0.5475,Lo,,,,,,0,,,,,,,,high,20,0,20,0,1,,,,,,,,,
296044,2022-10-04_15h05.39.851,vts_reward_expectancy,2022.2.4,MacIntel,60.0024001,Chrome,1440,900,,,,,1,664,,,,,,,,,,,,,,,,,160,U,triangle,1,0,,,,,,,,,,,,,,,,repeat,number,numRpt,f,0.6985,Hi,,,,,,0,,,,,,,,high,21,0,21,0,1,,,,,,,,,
296044,2022-10-04_15h05.39.851,vts_reward_expectancy,2022.2.4,MacIntel,60.0024001,Chrome,1440,900,,,,,0,664,,,,,,,,,,,,,,,,,132,Y,star,0,0,,,,,,,,,,,,,,,,repeat,number,NA,f,0.5144,Hi,,,,,,0,,,,,,,,high,22,0,22,0,1,,,,,,,,,
296044,2022-10-04_15h05.39.851,vts_reward_expectancy,2022.2.4,MacIntel,60.0024001,Chrome,1440,900,,,,,10,674,,,,,,,,,,,,,,,,,125,S,triangle,1,1,,,,,,,,,,,,,,,,switch,letter,lettSwt,k,0.5848,Hi,,,,,,0,,,,,,,,high,23,0,23,0,1,,,,,,,,,
296044,2022-10-04_15h05.39.851,vts_reward_expectancy,2022.2.4,MacIntel,60.0024001,Chrome,1440,900,,,,,10,684,,,,,,,,,,,,,,,,,139,D,triangle,1,0,,,,,,,,,,,,,,,,repeat,letter,lettRpt,j,0.6985,Hi,,,,,,0,,,,,,,,high,24,0,24,0,1,,,,,,,,,
296044,2022-10-04_15h05.39.851,vts_reward_expectancy,2022.2.4,MacIntel,60.0024001,Chrome,1440,900,,,,,1,685,,,,,,,,,,,,,,,,,160,B,star,1,0,,,,,,,,,,,,,,,,repeat,letter,lettRpt,j,0.4361,Lo,,,,,,0,,,,,,,,high,25,0,25,0,1,,,,,,,,,
296044,2022-10-04_15h05.39.851,vts_reward_expectancy,2022.2.4,MacIntel,60.0024001,Chrome,1440,900,,,,,10,695,,,,,,,,,,,,,,,,,125,S,star,1,0,,,,,,,,,,,,,,,,repeat,letter,lettRpt,k,0.5471,Lo,,,,,,0,,,,,,,,high,26,0,26,0,1,,,,,,,,,
296044,2022-10-04_15h05.39.851,vts_reward_expectancy,2022.2.4,MacIntel,60.0024001,Chrome,1440,900,,,,,10,705,,,,,,,,,,,,,,,,,174,U,triangle,1,0,,,,,,,,,,,,,,,,switch,number,numSwt,f,0.5138,Hi,,,,,,0,,,,,,,,high,27,0,27,0,1,,,,,,,,,
296044,2022-10-04_15h05.39.851,vts_reward_expectancy,2022.2.4,MacIntel,60.0024001,Chrome,1440,900,,,,,1,706,,,,,,,,,,,,,,,,,132,H,star,1,0,,,,,,,,,,,,,,,,repeat,number,numRpt,d,0.3969,Lo,,,,,,0,,,,,,,,high,28,0,28,0,1,,,,,,,,,
296044,2022-10-04_15h05.39.851,vts_reward_expectancy,2022.2.4,MacIntel,60.0024001,Chrome,1440,900,,,,,10,716,,,,,,,,,,,,,,,,,181,F,triangle,1,0,,,,,,,,,,,,,,,,repeat,number,numRpt,f,0.4158,Hi,,,,,,0,,,,,,,,high,29,0,29,0,1,,,,,,,,,
296044,2022-10-04_15h05.39.851,vts_reward_expectancy,2022.2.4,MacIntel,60.0024001,Chrome,1440,900,,,,,10,726,,,,,,,,,,,,,,,,,167,W,triangle,1,0,,,,,,,,,,,,,,,,switch,letter,lettSwt,k,0.4448,Hi,,,,,,0,,,,,,,,high,30,0,30,0,1,,,,,,,,,
296044,2022-10-04_15h05.39.851,vts_reward_expectancy,2022.2.4,MacIntel,60.0024001,Chrome,1440,900,,,,,10,736,,,,,,,,,,,,,,,,,146,Y,star,1,0,,,,,,,,,,,,,,,,repeat,letter,lettRpt,k,0.5814,Lo,,,,,,0,,,,,,,,high,31,0,31,0,1,,,,,,,,,
296044,2022-10-04_15h05.39.851,vts_reward_expectancy,2022.2.4,MacIntel,60.0024001,Chrome,1440,900,,,,,0,736,,,,,,,,,,,,,,,,,125,U,hexagon,1,0,,,,,,,,,,,,,,,,switch,number,numSwt,d,0.5625,Hi,,,,,,1,,,,,,space,5.2522,low,0,0,0,0,1,,,,,,,,,
296044,2022-10-04_15h05.39.851,vts_reward_expectancy,2022.2.4,MacIntel,60.0024001,Chrome,1440,900,,,,,1,737,,,,,,,,,,,,,,,,,132,F,circle,1,0,,,,,,,,,,,,,,,,switch,letter,lettSwt,j,0.6486,Lo,,,,,,1,,,,,,,,low,1,0,1,0,1,,,,,,,,,
296044,2022-10-04_15h05.39.851,vts_reward_expectancy,2022.2.4,MacIntel,60.0024001,Chrome,1440,900,,,,,10,747,,,,,,,,,,,,,,,,,174,B,hexagon,1,0,,,,,,,,,,,,,,,,repeat,letter,lettRpt,j,0.4479,Hi,,,,,,1,,,,,,,,low,2,0,2,0,1,,,,,,,,,
296044,2022-10-04_15h05.39.851,vts_reward_expectancy,2022.2.4,MacIntel,60.0024001,Chrome,1440,900,,,,,10,757,,,,,,,,,,,,,,,,,167,S,circle,1,0,,,,,,,,,,,,,,,,repeat,letter,lettRpt,k,0.7633,Lo,,,,,,1,,,,,,,,low,3,0,3,0,1,,,,,,,,,
296044,2022-10-04_15h05.39.851,vts_reward_expectancy,2022.2.4,MacIntel,60.0024001,Chrome,1440,900,,,,,10,767,,,,,,,,,,,,,,,,,160,Y,circle,1,0,,,,,,,,,,,,,,,,switch,number,numSwt,f,0.5492,Lo,,,,,,1,,,,,,,,low,4,0,4,0,1,,,,,,,,,
296044,2022-10-04_15h05.39.851,vts_reward_expectancy,2022.2.4,MacIntel,60.0024001,Chrome,1440,900,,,,,0,767,,,,,,,,,,,,,,,,,181,W,hexagon,0,0,,,,,,,,,,,,,,,,repeat,number,NA,d,0.6178,Lo,,,,,,1,,,,,,,,low,5,0,5,0,1,,,,,,,,,
296044,2022-10-04_15h05.39.851,vts_reward_expectancy,2022.2.4,MacIntel,60.0024001,Chrome,1440,900,,,,,0,767,,,,,,,,,,,,,,,,,146,D,hexagon,1,1,,,,,,,,,,,,,,,,switch,letter,lettSwt,j,0.6525,Hi,,,,,,1,,,,,,,,low,6,0,6,0,1,,,,,,,,,
296044,2022-10-04_15h05.39.851,vts_reward_expectancy,2022.2.4,MacIntel,60.0024001,Chrome,1440,900,,,,,10,777,,,,,,,,,,,,,,,,,139,H,circle,1,0,,,,,,,,,,,,,,,,switch,number,numSwt,d,0.5301,Lo,,,,,,1,,,,,,,,low,7,0,7,0,1,,,,,,,,,
296044,2022-10-04_15h05.39.851,vts_reward_expectancy,2022.2.4,MacIntel,60.0024001,Chrome,1440,900,,,,,0,777,,,,,,,,,,,,,,,,,125,U,hexagon,1,0,,,,,,,,,,,,,,,,repeat,number,numRpt,d,2.8034,Hi,,,,,,1,,,,,,,,low,8,0,8,0,1,,,,,,,,,
296044,2022-10-04_15h05.39.851,vts_reward_expectancy,2022.2.4,MacIntel,60.0024001,Chrome,1440,900,,,,,1,778,,,,,,,,,,,,,,,,,132,F,circle,1,0,,,,,,,,,,,,,,,,switch,letter,lettSwt,j,0.5466,Lo,,,,,,1,,,,,,,,low,9,0,9,0,1,,,,,,,,,
296044,2022-10-04_15h05.39.851,vts_reward_expectancy,2022.2.4,MacIntel,60.0024001,Chrome,1440,900,,,,,1,779,,,,,,,,,,,,,,,,,174,B,circle,1,0,,,,,,,,,,,,,,,,repeat,letter,lettRpt,j,0.5977,Lo,,,,,,1,,,,,,,,low,10,0,10,0,1,,,,,,,,,
296044,2022-10-04_15h05.39.851,vts_reward_expectancy,2022.2.4,MacIntel,60.0024001,Chrome,1440,900,,,,,0,779,,,,,,,,,,,,,,,,,167,S,hexagon,1,0,,,,,,,,,,,,,,,,switch,number,numSwt,f,0.798,Hi,,,,,,1,,,,,,,,low,11,0,11,0,1,,,,,,,,,
296044,2022-10-04_15h05.39.851,vts_reward_expectancy,2022.2.4,MacIntel,60.0024001,Chrome,1440,900,,,,,0,779,,,,,,,,,,,,,,,,,160,Y,hexagon,1,0,,,,,,,,,,,,,,,,switch,letter,lettSwt,k,0.6306,Hi,,,,,,1,,,,,,,,low,12,0,12,0,1,,,,,,,,,
296044,2022-10-04_15h05.39.851,vts_reward_expectancy,2022.2.4,MacIntel,60.0024001,Chrome,1440,900,,,,,1,780,,,,,,,,,,,,,,,,,181,W,circle,1,0,,,,,,,,,,,,,,,,switch,number,numSwt,f,0.5799,Lo,,,,,,1,,,,,,,,low,13,0,13,0,1,,,,,,,,,
296044,2022-10-04_15h05.39.851,vts_reward_expectancy,2022.2.4,MacIntel,60.0024001,Chrome,1440,900,,,,,0,780,,,,,,,,,,,,,,,,,146,D,hexagon,0,0,,,,,,,,,,,,,,,,switch,letter,NA,k,0.5907,Lo,,,,,,1,,,,,,,,low,14,0,14,0,1,,,,,,,,,
296044,2022-10-04_15h05.39.851,vts_reward_expectancy,2022.2.4,MacIntel,60.0024001,Chrome,1440,900,,,,,10,790,,,,,,,,,,,,,,,,,139,H,circle,1,1,,,,,,,,,,,,,,,,repeat,letter,lettRpt,j,0.1969,Lo,,,,,,1,,,,,,,,low,15,0,15,0,1,,,,,,,,,
296044,2022-10-04_15h05.39.851,vts_reward_expectancy,2022.2.4,MacIntel,60.0024001,Chrome,1440,900,,,,,10,800,,,,,,,,,,,,,,,,,139,Y,circle,1,0,,,,,,,,,,,,,,,,switch,number,numSwt,d,0.2347,Lo,,,,,,1,,,,,,,,low,16,0,16,0,1,,,,,,,,,
296044,2022-10-04_15h05.39.851,vts_reward_expectancy,2022.2.4,MacIntel,60.0024001,Chrome,1440,900,,,,,0,800,,,,,,,,,,,,,,,,,132,S,hexagon,0,0,,,,,,,,,,,,,,,,switch,letter,NA,j,0.2974,Lo,,,,,,1,,,,,,,,low,17,0,17,0,1,,,,,,,,,
296044,2022-10-04_15h05.39.851,vts_reward_expectancy,2022.2.4,MacIntel,60.0024001,Chrome,1440,900,,,,,0,800,,,,,,,,,,,,,,,,,167,U,hexagon,1,1,,,,,,,,,,,,,,,,switch,number,numSwt,f,0.748,Hi,,,,,,1,,,,,,,,low,18,0,18,0,1,,,,,,,,,
296044,2022-10-04_15h05.39.851,vts_reward_expectancy,2022.2.4,MacIntel,60.0024001,Chrome,1440,900,,,,,0,800,,,,,,,,,,,,,,,,,125,H,circle,0,0,,,,,,,,,,,,,,,,switch,letter,NA,k,0.2986,Hi,,,,,,1,,,,,,,,low,19,0,19,0,1,,,,,,,,,
296044,2022-10-04_15h05.39.851,vts_reward_expectancy,2022.2.4,MacIntel,60.0024001,Chrome,1440,900,,,,,1,801,,,,,,,,,,,,,,,,,160,B,circle,1,1,,,,,,,,,,,,,,,,repeat,letter,lettRpt,j,0.1806,Lo,,,,,,1,,,,,,,,low,20,0,20,0,1,,,,,,,,,
296044,2022-10-04_15h05.39.851,vts_reward_expectancy,2022.2.4,MacIntel,60.0024001,Chrome,1440,900,,,,,1,802,,,,,,,,,,,,,,,,,181,W,hexagon,1,0,,,,,,,,,,,,,,,,switch,number,numSwt,f,0.1481,Hi,,,,,,1,,,,,,,,low,21,0,21,0,1,,,,,,,,,
296044,2022-10-04_15h05.39.851,vts_reward_expectancy,2022.2.4,MacIntel,60.0024001,Chrome,1440,900,,,,,0,802,,,,,,,,,,,,,,,,,146,D,hexagon,1,0,,,,,,,,,,,,,,,,repeat,number,numRpt,d,0.5344,Hi,,,,,,1,,,,,,,,low,22,0,22,0,1,,,,,,,,,
296044,2022-10-04_15h05.39.851,vts_reward_expectancy,2022.2.4,MacIntel,60.0024001,Chrome,1440,900,,,,,0,802,,,,,,,,,,,,,,,,,174,F,circle,0,0,,,,,,,,,,,,,,,,switch,letter,NA,k,0.2473,Hi,,,,,,1,,,,,,,,low,23,0,23,0,1,,,,,,,,,
296044,2022-10-04_15h05.39.851,vts_reward_expectancy,2022.2.4,MacIntel,60.0024001,Chrome,1440,900,,,,,0,802,,,,,,,,,,,,,,,,,125,F,circle,0,1,,,,,,,,,,,,,,,,repeat,letter,NA,k,0.3469,Hi,,,,,,1,,,,,,,,low,24,0,24,0,1,,,,,,,,,
296044,2022-10-04_15h05.39.851,vts_reward_expectancy,2022.2.4,MacIntel,60.0024001,Chrome,1440,900,,,,,0,802,,,,,,,,,,,,,,,,,181,Y,hexagon,0,1,,,,,,,,,,,,,,,,repeat,letter,NA,j,1.1314,Hi,,,,,,1,,,,,,,,low,25,0,25,0,1,,,,,,,,,
296044,2022-10-04_15h05.39.851,vts_reward_expectancy,2022.2.4,MacIntel,60.0024001,Chrome,1440,900,,,,,10,812,,,,,,,,,,,,,,,,,132,W,circle,1,1,,,,,,,,,,,,,,,,switch,number,numSwt,d,0.5299,Lo,,,,,,1,,,,,,,,low,26,0,26,0,1,,,,,,,,,
296044,2022-10-04_15h05.39.851,vts_reward_expectancy,2022.2.4,MacIntel,60.0024001,Chrome,1440,900,,,,,0,812,,,,,,,,,,,,,,,,,167,D,hexagon,0,0,,,,,,,,,,,,,,,,repeat,number,NA,d,0.1816,Lo,,,,,,1,,,,,,,,low,27,0,27,0,1,,,,,,,,,
296044,2022-10-04_15h05.39.851,vts_reward_expectancy,2022.2.4,MacIntel,60.0024001,Chrome,1440,900,,,,,1,813,,,,,,,,,,,,,,,,,146,S,circle,1,1,,,,,,,,,,,,,,,,switch,letter,lettSwt,k,0.4468,Lo,,,,,,1,,,,,,,,low,28,0,28,0,1,,,,,,,,,
296044,2022-10-04_15h05.39.851,vts_reward_expectancy,2022.2.4,MacIntel,60.0024001,Chrome,1440,900,,,,,10,823,,,,,,,,,,,,,,,,,139,B,hexagon,1,0,,,,,,,,,,,,,,,,repeat,letter,lettRpt,j,0.1041,Hi,,,,,,1,,,,,,,,low,29,0,29,0,1,,,,,,,,,
296044,2022-10-04_15h05.39.851,vts_reward_expectancy,2022.2.4,MacIntel,60.0024001,Chrome,1440,900,,,,,0,823,,,,,,,,,,,,,,,,,174,H,circle,0,0,,,,,,,,,,,,,,,,switch,number,NA,d,0.1481,Hi,,,,,,1,,,,,,,,low,30,0,30,0,1,,,,,,,,,
296044,2022-10-04_15h05.39.851,vts_reward_expectancy,2022.2.4,MacIntel,60.0024001,Chrome,1440,900,,,,,10,833,,,,,,,,,,,,,,,,,160,U,hexagon,1,1,,,,,,,,,,,,,,,,repeat,number,numRpt,f,0.2471,Hi,,,,,,1,,,,,,,,low,31,0,31,0,1,,,,,,,,,
296044,2022-10-04_15h05.39.851,vts_reward_expectancy,2022.2.4,MacIntel,60.0024001,Chrome,1440,900,,,,,0,833,,,,,,,,,,,,,,,,,181,U,star,0,0,,,,,,,,,,,,,,,,repeat,number,NA,d,0.0056,Hi,,,,,,2,,,,,,space,1.9715,high,0,0,0,0,1,,,,,,,,,
296044,2022-10-04_15h05.39.851,vts_reward_expectancy,2022.2.4,MacIntel,60.0024001,Chrome,1440,900,,,,,10,843,,,,,,,,,,,,,,,,,160,W,triangle,1,1,,,,,,,,,,,,,,,,switch,letter,lettSwt,k,0.1992,Hi,,,,,,2,,,,,,,,high,1,0,1,0,1,,,,,,,,,
296044,2022-10-04_15h05.39.851,vts_reward_expectancy,2022.2.4,MacIntel,60.0024001,Chrome,1440,900,,,,,1,844,,,,,,,,,,,,,,,,,132,F,star,1,0,,,,,,,,,,,,,,,,repeat,letter,lettRpt,j,0.2634,Lo,,,,,,2,,,,,,,,high,2,0,2,0,1,,,,,,,,,
296044,2022-10-04_15h05.39.851,vts_reward_expectancy,2022.2.4,MacIntel,60.0024001,Chrome,1440,900,,,,,10,854,,,,,,,,,,,,,,,,,167,B,triangle,1,0,,,,,,,,,,,,,,,,switch,number,numSwt,f,0.2017,Hi,,,,,,2,,,,,,,,high,3,0,3,0,1,,,,,,,,,
296044,2022-10-04_15h05.39.851,vts_reward_expectancy,2022.2.4,MacIntel,60.0024001,Chrome,1440,900,,,,,0,854,,,,,,,,,,,,,,,,,125,Y,triangle,0,0,,,,,,,,,,,,,,,,repeat,number,NA,f,0.1137,Hi,,,,,,2,,,,,,,,high,4,0,4,0,1,,,,,,,,,
296044,2022-10-04_15h05.39.851,vts_reward_expectancy,2022.2.4,MacIntel,60.0024001,Chrome,1440,900,,,,,0,854,,,,,,,,,,,,,,,,,146,D,star,0,1,,,,,,,,,,,,,,,,switch,letter,NA,k,0.1887,Hi,,,,,,2,,,,,,,,high,5,0,5,0,1,,,,,,,,,
296044,2022-10-04_15h05.39.851,vts_reward_expectancy,2022.2.4,MacIntel,60.0024001,Chrome,1440,900,,,,,0,854,,,,,,,,,,,,,,,,,174,S,triangle,0,1,,,,,,,,,,,,,,,,switch,number,NA,d,0.4978,Hi,,,,,,2,,,,,,,,high,6,0,6,0,1,,,,,,,,,
296044,2022-10-04_15h05.39.851,vts_reward_expectancy,2022.2.4,MacIntel,60.0024001,Chrome,1440,900,,,,,0,854,,,,,,,,,,,,,,,,,139,H,star,0,1,,,,,,,,,,,,,,,,repeat,number,NA,f,0.2871,Hi,,,,,,2,,,,,,,,high,7,0,7,0,1,,,,,,,,,
296044,2022-10-04_15h05.39.851,vts_reward_expectancy,2022.2.4,MacIntel,60.0024001,Chrome,1440,900,,,,,1,855,,,,,,,,,,,,,,,,,181,U,triangle,1,1,,,,,,,,,,,,,,,,switch,letter,lettSwt,k,0.3149,Hi,,,,,,2,,,,,,,,high,8,0,8,0,1,,,,,,,,,
296044,2022-10-04_15h05.39.851,vts_reward_expectancy,2022.2.4,MacIntel,60.0024001,Chrome,1440,900,,,,,0,855,,,,,,,,,,,,,,,,,160,W,star,0,0,,,,,,,,,,,,,,,,repeat,letter,NA,j,0.2901,Hi,,,,,,2,,,,,,,,high,9,0,9,0,1,,,,,,,,,
296044,2022-10-04_15h05.39.851,vts_reward_expectancy,2022.2.4,MacIntel,60.0024001,Chrome,1440,900,,,,,0,855,,,,,,,,,,,,,,,,,132,F,star,0,1,,,,,,,,,,,,,,,,switch,number,NA,f,0.3041,Hi,,,,,,2,,,,,,,,high,10,0,10,0,1,,,,,,,,,
296044,2022-10-04_15h05.39.851,vts_reward_expectancy,2022.2.4,MacIntel,60.0024001,Chrome,1440,900,,,,,0,855,,,,,,,,,,,,,,,,,167,B,triangle,0,1,,,,,,,,,,,,,,,,repeat,number,NA,d,0.2478,Hi,,,,,,2,,,,,,,,high,11,0,11,0,1,,,,,,,,,
296044,2022-10-04_15h05.39.851,vts_reward_expectancy,2022.2.4,MacIntel,60.0024001,Chrome,1440,900,,,,,0,855,,,,,,,,,,,,,,,,,125,Y,star,0,1,,,,,,,,,,,,,,,,switch,letter,NA,j,0.0705,Hi,,,,,,2,,,,,,,,high,12,0,12,0,1,,,,,,,,,
296044,2022-10-04_15h05.39.851,vts_reward_expectancy,2022.2.4,MacIntel,60.0024001,Chrome,1440,900,,,,,0,855,,,,,,,,,,,,,,,,,146,D,triangle,0,1,,,,,,,,,,,,,,,,repeat,letter,NA,k,0.2666,Hi,,,,,,2,,,,,,,,high,13,0,13,0,1,,,,,,,,,
296044,2022-10-04_15h05.39.851,vts_reward_expectancy,2022.2.4,MacIntel,60.0024001,Chrome,1440,900,,,,,1,856,,,,,,,,,,,,,,,,,174,S,star,1,1,,,,,,,,,,,,,,,,switch,number,numSwt,f,0.3022,Lo,,,,,,2,,,,,,,,high,14,0,14,0,1,,,,,,,,,
296044,2022-10-04_15h05.39.851,vts_reward_expectancy,2022.2.4,MacIntel,60.0024001,Chrome,1440,900,,,,,0,856,,,,,,,,,,,,,,,,,139,H,triangle,0,0,,,,,,,,,,,,,,,,switch,letter,NA,k,0.0979,Lo,,,,,,2,,,,,,,,high,15,0,15,0,1,,,,,,,,,
296044,2022-10-04_15h05.39.851,vts_reward_expectancy,2022.2.4,MacIntel,60.0024001,Chrome,1440,900,,,,,0,856,,,,,,,,,,,,,,,,,146,H,triangle,1,1,,,,,,,,,,,,,,,,repeat,letter,lettRpt,j,0.341,Hi,,,,,,2,,,,,,,,high,16,0,16,0,1,,,,,,,,,
296044,2022-10-04_15h05.39.851,vts_reward_expectancy,2022.2.4,MacIntel,60.0024001,Chrome,1440,900,,,,,0,856,,,,,,,,,,,,,,,,,160,B,star,0,0,,,,,,,,,,,,,,,,switch,number,NA,d,0.3797,Hi,,,,,,2,,,,,,,,high,17,0,17,0,1,,,,,,,,,
296044,2022-10-04_15h05.39.851,vts_reward_expectancy,2022.2.4,MacIntel,60.0024001,Chrome,1440,900,,,,,0,856,,,,,,,,,,,,,,,,,132,W,triangle,0,1,,,,,,,,,,,,,,,,repeat,number,NA,f,0.131,Hi,,,,,,2,,,,,,,,high,18,0,18,0,1,,,,,,,,,
296044,2022-10-04_15h05.39.851,vts_reward_expectancy,2022.2.4,MacIntel,60.0024001,Chrome,1440,900,,,,,1,857,,,,,,,,,,,,,,,,,167,U,star,1,1,,,,,,,,,,,,,,,,switch,letter,lettSwt,k,0.5034,Lo,,,,,,2,,,,,,,,high,19,0,19,0,1,,,,,,,,,
296044,2022-10-04_15h05.39.851,vts_reward_expectancy,2022.2.4,MacIntel,60.0024001,Chrome,1440,900,,,,,1,858,,,,,,,,,,,,,,,,,174,D,star,1,0,,,,,,,,,,,,,,,,repeat,letter,lettRpt,j,0.1307,Lo,,,,,,2,,,,,,,,high,20,0,20,0,1,,,,,,,,,
296044,2022-10-04_15h05.39.851,vts_reward_expectancy,2022.2.4,MacIntel,60.0024001,Chrome,1440,900,,,,,0,858,,,,,,,,,,,,,,,,,181,F,triangle,0,0,,,,,,,,,,,,,,,,repeat,letter,NA,k,0.3648,Lo,,,,,,2,,,,,,,,high,21,0,21,0,1,,,,,,,,,
296044,2022-10-04_15h05.39.851,vts_reward_expectancy,2022.2.4,MacIntel,60.0024001,Chrome,1440,900,,,,,0,858,,,,,,,,,,,,,,,,,125,S,star,0,1,,,,,,,,,,,,,,,,switch,number,NA,f,0.5974,Lo,,,,,,2,,,,,,,,high,22,0,22,0,1,,,,,,,,,
296044,2022-10-04_15h05.39.851,vts_reward_expectancy,2022.2.4,MacIntel,60.0024001,Chrome,1440,900,,,,,0,858,,,,,,,,,,,,,,,,,139,Y,triangle,1,1,,,,,,,,,,,,,,,,repeat,number,numRpt,d,0.5039,Hi,,,,,,2,,,,,,,,high,23,0,23,0,1,,,,,,,,,
296044,2022-10-04_15h05.39.851,vts_reward_expectancy,2022.2.4,MacIntel,60.0024001,Chrome,1440,900,,,,,0,858,,,,,,,,,,,,,,,,,125,B,star,0,0,,,,,,,,,,,,,,,,switch,letter,NA,k,0.1723,Hi,,,,,,2,,,,,,,,high,24,0,24,0,1,,,,,,,,,
296044,2022-10-04_15h05.39.851,vts_reward_expectancy,2022.2.4,MacIntel,60.0024001,Chrome,1440,900,,,,,0,858,,,,,,,,,,,,,,,,,146,F,triangle,1,1,,,,,,,,,,,,,,,,repeat,letter,lettRpt,j,0.2816,Hi,,,,,,2,,,,,,,,high,25,0,25,0,1,,,,,,,,,
296044,2022-10-04_15h05.39.851,vts_reward_expectancy,2022.2.4,MacIntel,60.0024001,Chrome,1440,900,,,,,10,868,,,,,,,,,,,,,,,,,181,D,star,1,0,,,,,,,,,,,,,,,,switch,number,numSwt,f,0.3303,Lo,,,,,,2,,,,,,,,high,26,0,26,0,1,,,,,,,,,
296044,2022-10-04_15h05.39.851,vts_reward_expectancy,2022.2.4,MacIntel,60.0024001,Chrome,1440,900,,,,,1,869,,,,,,,,,,,,,,,,,160,H,triangle,1,0,,,,,,,,,,,,,,,,switch,letter,lettSwt,j,0.4893,Hi,,,,,,2,,,,,,,,high,27,0,27,0,1,,,,,,,,,
296044,2022-10-04_15h05.39.851,vts_reward_expectancy,2022.2.4,MacIntel,60.0024001,Chrome,1440,900,,,,,10,879,,,,,,,,,,,,,,,,,167,S,triangle,1,0,,,,,,,,,,,,,,,,switch,number,numSwt,f,0.2972,Hi,,,,,,2,,,,,,,,high,28,0,28,0,1,,,,,,,,,
296044,2022-10-04_15h05.39.851,vts_reward_expectancy,2022.2.4,MacIntel,60.0024001,Chrome,1440,900,,,,,1,880,,,,,,,,,,,,,,,,,139,W,star,1,0,,,,,,,,,,,,,,,,switch,letter,lettSwt,k,0.3145,Lo,,,,,,2,,,,,,,,high,29,0,29,0,1,,,,,,,,,
296044,2022-10-04_15h05.39.851,vts_reward_expectancy,2022.2.4,MacIntel,60.0024001,Chrome,1440,900,,,,,10,890,,,,,,,,,,,,,,,,,174,U,star,1,0,,,,,,,,,,,,,,,,repeat,letter,lettRpt,k,0.4799,Lo,,,,,,2,,,,,,,,high,30,0,30,0,1,,,,,,,,,
296044,2022-10-04_15h05.39.851,vts_reward_expectancy,2022.2.4,MacIntel,60.0024001,Chrome,1440,900,,,,,0,890,,,,,,,,,,,,,,,,,132,Y,triangle,1,0,,,,,,,,,,,,,,,,switch,number,numSwt,d,0.5806,Hi,,,,,,2,,,,,,,,high,31,0,31,0,1,,,,,,,,,
296044,2022-10-04_15h05.39.851,vts_reward_expectancy,2022.2.4,MacIntel,60.0024001,Chrome,1440,900,,,,,1,891,,,,,,,,,,,,,,,,,125,H,hexagon,1,0,,,,,,,,,,,,,,,,repeat,number,numRpt,d,0.3154,Hi,,,,,,3,,,,,,space,1.1879,low,0,0,0,0,1,,,,,,,,,
296044,2022-10-04_15h05.39.851,vts_reward_expectancy,2022.2.4,MacIntel,60.0024001,Chrome,1440,900,,,,,0,891,,,,,,,,,,,,,,,,,146,B,circle,0,0,,,,,,,,,,,,,,,,switch,letter,NA,k,0.1304,Hi,,,,,,3,,,,,,,,low,1,0,1,0,1,,,,,,,,,
296044,2022-10-04_15h05.39.851,vts_reward_expectancy,2022.2.4,MacIntel,60.0024001,Chrome,1440,900,,,,,0,891,,,,,,,,,,,,,,,,,139,F,hexagon,1,1,,,,,,,,,,,,,,,,repeat,letter,lettRpt,j,1.2184,Hi,,,,,,3,,,,,,,,low,2,0,2,0,1,,,,,,,,,
296044,2022-10-04_15h05.39.851,vts_reward_expectancy,2022.2.4,MacIntel,60.0024001,Chrome,1440,900,,,,,0,891,,,,,,,,,,,,,,,,,167,D,circle,0,0,,,,,,,,,,,,,,,,switch,number,NA,d,0.2557,Hi,,,,,,3,,,,,,,,low,3,0,3,0,1,,,,,,,,,
296044,2022-10-04_15h05.39.851,vts_reward_expectancy,2022.2.4,MacIntel,60.0024001,Chrome,1440,900,,,,,1,892,,,,,,,,,,,,,,,,,181,Y,hexagon,1,1,,,,,,,,,,,,,,,,repeat,number,numRpt,f,0.2972,Hi,,,,,,3,,,,,,,,low,4,0,4,0,1,,,,,,,,,
296044,2022-10-04_15h05.39.851,vts_reward_expectancy,2022.2.4,MacIntel,60.0024001,Chrome,1440,900,,,,,1,893,,,,,,,,,,,,,,,,,174,S,circle,1,0,,,,,,,,,,,,,,,,switch,letter,lettSwt,k,0.4803,Lo,,,,,,3,,,,,,,,low,5,0,5,0,1,,,,,,,,,
296044,2022-10-04_15h05.39.851,vts_reward_expectancy,2022.2.4,MacIntel,60.0024001,Chrome,1440,900,,,,,0,893,,,,,,,,,,,,,,,,,160,W,hexagon,0,0,,,,,,,,,,,,,,,,repeat,letter,NA,j,0.3314,Lo,,,,,,3,,,,,,,,low,6,0,6,0,1,,,,,,,,,
296044,2022-10-04_15h05.39.851,vts_reward_expectancy,2022.2.4,MacIntel,60.0024001,Chrome,1440,900,,,,,10,903,,,,,,,,,,,,,,,,,132,U,circle,1,1,,,,,,,,,,,,,,,,switch,number,numSwt,d,0.2311,Lo,,,,,,3,,,,,,,,low,7,0,7,0,1,,,,,,,,,
296044,2022-10-04_15h05.39.851,vts_reward_expectancy,2022.2.4,MacIntel,60.0024001,Chrome,1440,900,,,,,0,903,,,,,,,,,,,,,,,,,125,H,hexagon,0,0,,,,,,,,,,,,,,,,switch,letter,NA,k,0.3544,Lo,,,,,,3,,,,,,,,low,8,0,8,0,1,,,,,,,,,
296044,2022-10-04_15h05.39.851,vts_reward_expectancy,2022.2.4,MacIntel,60.0024001,Chrome,1440,900,,,,,10,913,,,,,,,,,,,,,,,,,146,B,circle,1,1,,,,,,,,,,,,,,,,repeat,letter,lettRpt,j,0.3151,Lo,,,,,,3,,,,,,,,low,9,0,9,0,1,,,,,,,,,
296044,2022-10-04_15h05.39.851,vts_reward_expectancy,2022.2.4,MacIntel,60.0024001,Chrome,1440,900,,,,,10,923,,,,,,,,,,,,,,,,,139,F,circle,1,0,,,,,,,,,,,,,,,,switch,number,numSwt,d,0.2339,Lo,,,,,,3,,,,,,,,low,10,0,10,0,1,,,,,,,,,
296044,2022-10-04_15h05.39.851,vts_reward_expectancy,2022.2.4,MacIntel,60.0024001,Chrome,1440,900,,,,,0,923,,,,,,,,,,,,,,,,,167,D,hexagon,0,0,,,,,,,,,,,,,,,,switch,letter,NA,k,0.7137,Lo,,,,,,3,,,,,,,,low,11,0,11,0,1,,,,,,,,,
296044,2022-10-04_15h05.39.851,vts_reward_expectancy,2022.2.4,MacIntel,60.0024001,Chrome,1440,900,,,,,0,923,,,,,,,,,,,,,,,,,181,Y,hexagon,0,1,,,,,,,,,,,,,,,,repeat,letter,NA,j,0.0805,Lo,,,,,,3,,,,,,,,low,12,0,12,0,1,,,,,,,,,
296044,2022-10-04_15h05.39.851,vts_reward_expectancy,2022.2.4,MacIntel,60.0024001,Chrome,1440,900,,,,,0,923,,,,,,,,,,,,,,,,,174,S,circle,0,1,,,,,,,,,,,,,,,,switch,number,NA,d,0.3148,Lo,,,,,,3,,,,,,,,low,13,0,13,0,1,,,,,,,,,
296044,2022-10-04_15h05.39.851,vts_reward_expectancy,2022.2.4,MacIntel,60.0024001,Chrome,1440,900,,,,,10,933,,,,,,,,,,,,,,,,,160,W,circle,1,1,,,,,,,,,,,,,,,,switch,letter,lettSwt,k,0.3325,Lo,,,,,,3,,,,,,,,low,14,0,14,0,1,,,,,,,,,
296044,2022-10-04_15h05.39.851,vts_reward_expectancy,2022.2.4,MacIntel,60.0024001,Chrome,1440,900,,,,,0,933,,,,,,,,,,,,,,,,,132,U,hexagon,1,0,,,,,,,,,,,,,,,,switch,number,numSwt,d,0.4644,Hi,,,,,,3,,,,,,,,low,15,0,15,0,1,,,,,,,,,
296044,2022-10-04_15h05.39.851,vts_reward_expectancy,2022.2.4,MacIntel,60.0024001,Chrome,1440,900,,,,,0,933,,,,,,,,,,,,,,,,,174,H,hexagon,0,0,,,,,,,,,,,,,,,,switch,letter,NA,k,0.4844,Hi,,,,,,3,,,,,,,,low,16,0,16,0,1,,,,,,,,,
296044,2022-10-04_15h05.39.851,vts_reward_expectancy,2022.2.4,MacIntel,60.0024001,Chrome,1440,900,,,,,0,933,,,,,,,,,,,,,,,,,160,W,circle,0,1,,,,,,,,,,,,,,,,switch,number,NA,d,0.3845,Hi,,,,,,3,,,,,,,,low,17,0,17,0,1,,,,,,,,,
296044,2022-10-04_15h05.39.851,vts_reward_expectancy,2022.2.4,MacIntel,60.0024001,Chrome,1440,900,,,,,0,933,,,,,,,,,,,,,,,,,139,B,hexagon,0,1,,,,,,,,,,,,,,,,switch,letter,NA,k,0.5627,Hi,,,,,,3,,,,,,,,low,18,0,18,0,1,,,,,,,,,
296044,2022-10-04_15h05.39.851,vts_reward_expectancy,2022.2.4,MacIntel,60.0024001,Chrome,1440,900,,,,,1,934,,,,,,,,,,,,,,,,,125,Y,circle,1,1,,,,,,,,,,,,,,,,switch,number,numSwt,d,0.3137,Lo,,,,,,3,,,,,,,,low,19,0,19,0,1,,,,,,,,,
296044,2022-10-04_15h05.39.851,vts_reward_expectancy,2022.2.4,MacIntel,60.0024001,Chrome,1440,900,,,,,0,934,,,,,,,,,,,,,,,,,146,D,circle,0,0,,,,,,,,,,,,,,,,repeat,number,NA,f,0.2133,Lo,,,,,,3,,,,,,,,low,20,0,20,0,1,,,,,,,,,
296044,2022-10-04_15h05.39.851,vts_reward_expectancy,2022.2.4,MacIntel,60.0024001,Chrome,1440,900,,,,,0,934,,,,,,,,,,,,,,,,,167,F,hexagon,0,1,,,,,,,,,,,,,,,,switch,letter,NA,k,0.0034,Lo,,,,,,3,,,,,,,,low,21,0,21,0,1,,,,,,,,,
296044,2022-10-04_15h05.39.851,vts_reward_expectancy,2022.2.4,MacIntel,60.0024001,Chrome,1440,900,,,,,0,934,,,,,,,,,,,,,,,,,181,U,hexagon,0,1,,,,,,,,,,,,,,,,repeat,letter,NA,j,0.3479,Lo,,,,,,3,,,,,,,,low,22,0,22,0,1,,,,,,,,,
296044,2022-10-04_15h05.39.851,vts_reward_expectancy,2022.2.4,MacIntel,60.0024001,Chrome,1440,900,,,,,1,935,,,,,,,,,,,,,,,,,132,S,circle,1,1,,,,,,,,,,,,,,,,repeat,letter,lettRpt,k,0.3297,Lo,,,,,,3,,,,,,,,low,23,0,23,0,1,,,,,,,,,
296044,2022-10-04_15h05.39.851,vts_reward_expectancy,2022.2.4,MacIntel,60.0024001,Chrome,1440,900,,,,,0,935,,,,,,,,,,,,,,,,,125,S,circle,0,0,,,,,,,,,,,,,,,,repeat,letter,NA,j,0.2063,Lo,,,,,,3,,,,,,,,low,24,0,24,0,1,,,,,,,,,
296044,2022-10-04_15h05.39.851,vts_reward_expectancy,2022.2.4,MacIntel,60.0024001,Chrome,1440,900,,,,,10,945,,,,,,,,,,,,,,,,,139,D,hexagon,1,1,,,,,,,,,,,,,,,,switch,number,numSwt,d,0.1965,Hi,,,,,,3,,,,,,,,low,25,0,25,0,1,,,,,,,,,
296044,2022-10-04_15h05.39.851,vts_reward_expectancy,2022.2.4,MacIntel,60.0024001,Chrome,1440,900,,,,,10,955,,,,,,,,,,,,,,,,,181,W,circle,1,0,,,,,,,,,,,,,,,,repeat,number,numRpt,f,0.455,Lo,,,,,,3,,,,,,,,low,26,0,26,0,1,,,,,,,,,
296044,2022-10-04_15h05.39.851,vts_reward_expectancy,2022.2.4,MacIntel,60.0024001,Chrome,1440,900,,,,,10,965,,,,,,,,,,,,,,,,,132,B,hexagon,1,0,,,,,,,,,,,,,,,,switch,letter,lettSwt,j,0.0937,Hi,,,,,,3,,,,,,,,low,27,0,27,0,1,,,,,,,,,
296044,2022-10-04_15h05.39.851,vts_reward_expectancy,2022.2.4,MacIntel,60.0024001,Chrome,1440,900,,,,,0,965,,,,,,,,,,,,,,,,,167,F,hexagon,0,0,,,,,,,,,,,,,,,,switch,number,NA,d,0.0831,Hi,,,,,,3,,,,,,,,low,28,0,28,0,1,,,,,,,,,
296044,2022-10-04_15h05.39.851,vts_reward_expectancy,2022.2.4,MacIntel,60.0024001,Chrome,1440,900,,,,,0,965,,,,,,,,,,,,,,,,,160,H,circle,0,1,,,,,,,,,,,,,,,,switch,letter,NA,k,1.035,Hi,,,,,,3,,,,,,,,low,29,0,29,0,1,,,,,,,,,
296044,2022-10-04_15h05.39.851,vts_reward_expectancy,2022.2.4,MacIntel,60.0024001,Chrome,1440,900,,,,,0,965,,,,,,,,,,,,,,,,,146,U,hexagon,1,1,,,,,,,,,,,,,,,,switch,number,numSwt,d,0.3399,Hi,,,,,,3,,,,,,,,low,30,0,30,0,1,,,,,,,,,
296044,2022-10-04_15h05.39.851,vts_reward_expectancy,2022.2.4,MacIntel,60.0024001,Chrome,1440,900,,,,,1,966,,,,,,,,,,,,,,,,,174,Y,circle,1,0,,,,,,,,,,,,,,,,switch,letter,lettSwt,k,0.4067,Lo,,,,,,3,,,,,,,,low,31,0,31,0,1,,,,,,,,,
296044,2022-10-04_15h05.39.851,vts_reward_expectancy,2022.2.4,MacIntel,60.0024001,Chrome,1440,900,,,,,0,966,,,,,,,,,,,,,,,,,139,F,triangle,1,0,,,,,,,,,,,,,,,,switch,number,numSwt,d,0.7402,Hi,,,,,,4,,,,,,space,2.3886,high,0,0,0,0,1,,,,,,,,,
296044,2022-10-04_15h05.39.851,vts_reward_expectancy,2022.2.4,MacIntel,60.0024001,Chrome,1440,900,,,,,1,967,,,,,,,,,,,,,,,,,160,U,star,1,0,,,,,,,,,,,,,,,,switch,letter,lettSwt,k,0.9509,Lo,,,,,,4,,,,,,,,high,1,0,1,0,1,,,,,,,,,
296044,2022-10-04_15h05.39.851,vts_reward_expectancy,2022.2.4,MacIntel,60.0024001,Chrome,1440,900,,,,,0,967,,,,,,,,,,,,,,,,,174,B,triangle,0,0,,,,,,,,,,,,,,,,switch,number,NA,d,0.3491,Lo,,,,,,4,,,,,,,,high,2,0,2,0,1,,,,,,,,,
296044,2022-10-04_15h05.39.851,vts_reward_expectancy,2022.2.4,MacIntel,60.0024001,Chrome,1440,900,,,,,0,967,,,,,,,,,,,,,,,,,125,D,star,0,1,,,,,,,,,,,,,,,,switch,letter,NA,k,0.4633,Lo,,,,,,4,,,,,,,,high,3,0,3,0,1,,,,,,,,,
296044,2022-10-04_15h05.39.851,vts_reward_expectancy,2022.2.4,MacIntel,60.0024001,Chrome,1440,900,,,,,0,967,,,,,,,,,,,,,,,,,181,S,triangle,1,1,,,,,,,,,,,,,,,,repeat,letter,lettRpt,k,0.4818,Hi,,,,,,4,,,,,,,,high,4,0,4,0,1,,,,,,,,,
296044,2022-10-04_15h05.39.851,vts_reward_expectancy,2022.2.4,MacIntel,60.0024001,Chrome,1440,900,,,,,1,968,,,,,,,,,,,,,,,,,167,Y,star,1,0,,,,,,,,,,,,,,,,switch,number,numSwt,f,1.1142,Lo,,,,,,4,,,,,,,,high,5,0,5,0,1,,,,,,,,,
296044,2022-10-04_15h05.39.851,vts_reward_expectancy,2022.2.4,MacIntel,60.0024001,Chrome,1440,900,,,,,1,969,,,,,,,,,,,,,,,,,132,W,star,1,0,,,,,,,,,,,,,,,,switch,letter,lettSwt,k,0.2146,Lo,,,,,,4,,,,,,,,high,6,0,6,0,1,,,,,,,,,
296044,2022-10-04_15h05.39.851,vts_reward_expectancy,2022.2.4,MacIntel,60.0024001,Chrome,1440,900,,,,,10,979,,,,,,,,,,,,,,,,,146,H,triangle,1,0,,,,,,,,,,,,,,,,repeat,letter,lettRpt,j,0.2892,Hi,,,,,,4,,,,,,,,high,7,0,7,0,1,,,,,,,,,
296044,2022-10-04_15h05.39.851,vts_reward_expectancy,2022.2.4,MacIntel,60.0024001,Chrome,1440,900,,,,,1,980,,,,,,,,,,,,,,,,,139,F,star,1,0,,,,,,,,,,,,,,,,switch,number,numSwt,d,0.8806,Lo,,,,,,4,,,,,,,,high,8,0,8,0,1,,,,,,,,,
296044,2022-10-04_15h05.39.851,vts_reward_expectancy,2022.2.4,MacIntel,60.0024001,Chrome,1440,900,,,,,10,990,,,,,,,,,,,,,,,,,160,U,triangle,1,0,,,,,,,,,,,,,,,,switch,letter,lettSwt,k,0.298,Hi,,,,,,4,,,,,,,,high,9,0,9,0,1,,,,,,,,,
296044,2022-10-04_15h05.39.851,vts_reward_expectancy,2022.2.4,MacIntel,60.0024001,Chrome,1440,900,,,,,0,990,,,,,,,,,,,,,,,,,174,B,triangle,0,0,,,,,,,,,,,,,,,,switch,number,NA,d,0.1983,Hi,,,,,,4,,,,,,,,high,10,0,10,0,1,,,,,,,,,
296044,2022-10-04_15h05.39.851,vts_reward_expectancy,2022.2.4,MacIntel,60.0024001,Chrome,1440,900,,,,,0,990,,,,,,,,,,,,,,,,,125,D,star,0,1,,,,,,,,,,,,,,,,switch,letter,NA,k,0.2174,Hi,,,,,,4,,,,,,,,high,11,0,11,0,1,,,,,,,,,
296044,2022-10-04_15h05.39.851,vts_reward_expectancy,2022.2.4,MacIntel,60.0024001,Chrome,1440,900,,,,,0,990,,,,,,,,,,,,,,,,,181,S,triangle,0,1,,,,,,,,,,,,,,,,repeat,letter,NA,j,0.4466,Hi,,,,,,4,,,,,,,,high,12,0,12,0,1,,,,,,,,,
296044,2022-10-04_15h05.39.851,vts_reward_expectancy,2022.2.4,MacIntel,60.0024001,Chrome,1440,900,,,,,0,990,,,,,,,,,,,,,,,,,167,Y,star,0,1,,,,,,,,,,,,,,,,switch,number,NA,d,0.6991,Hi,,,,,,4,,,,,,,,high,13,0,13,0,1,,,,,,,,,
296044,2022-10-04_15h05.39.851,vts_reward_expectancy,2022.2.4,MacIntel,60.0024001,Chrome,1440,900,,,,,0,990,,,,,,,,,,,,,,,,,132,W,star,0,1,,,,,,,,,,,,,,,,switch,letter,NA,j,0.4644,Hi,,,,,,4,,,,,,,,high,14,0,14,0,1,,,,,,,,,
296044,2022-10-04_15h05.39.851,vts_reward_expectancy,2022.2.4,MacIntel,60.0024001,Chrome,1440,900,,,,,0,990,,,,,,,,,,,,,,,,,146,H,triangle,0,1,,,,,,,,,,,,,,,,repeat,letter,NA,k,0.5853,Hi,,,,,,4,,,,,,,,high,15,0,15,0,1,,,,,,,,,
296044,2022-10-04_15h05.39.851,vts_reward_expectancy,2022.2.4,MacIntel,60.0024001,Chrome,1440,900,,,,,0,990,,,,,,,,,,,,,,,,,167,W,star,0,1,,,,,,,,,,,,,,,,switch,number,NA,d,0.3128,Hi,,,,,,4,,,,,,,,high,16,0,16,0,1,,,,,,,,,
296044,2022-10-04_15h05.39.851,vts_reward_expectancy,2022.2.4,MacIntel,60.0024001,Chrome,1440,900,,,,,0,990,,,,,,,,,,,,,,,,,125,H,triangle,0,1,,,,,,,,,,,,,,,,switch,letter,NA,k,0.3736,Hi,,,,,,4,,,,,,,,high,17,0,17,0,1,,,,,,,,,
296044,2022-10-04_15h05.39.851,vts_reward_expectancy,2022.2.4,MacIntel,60.0024001,Chrome,1440,900,,,,,0,990,,,,,,,,,,,,,,,,,132,F,triangle,1,1,,,,,,,,,,,,,,,,repeat,letter,lettRpt,j,0.4693,Hi,,,,,,4,,,,,,,,high,18,0,18,0,1,,,,,,,,,
296044,2022-10-04_15h05.39.851,vts_reward_expectancy,2022.2.4,MacIntel,60.0024001,Chrome,1440,900,,,,,0,990,,,,,,,,,,,,,,,,,181,S,star,0,0,,,,,,,,,,,,,,,,switch,number,NA,d,0.1302,Hi,,,,,,4,,,,,,,,high,19,0,19,0,1,,,,,,,,,
296044,2022-10-04_15h05.39.851,vts_reward_expectancy,2022.2.4,MacIntel,60.0024001,Chrome,1440,900,,,,,1,991,,,,,,,,,,,,,,,,,139,D,star,1,1,,,,,,,,,,,,,,,,repeat,number,numRpt,d,0.4804,Lo,,,,,,4,,,,,,,,high,20,0,20,0,1,,,,,,,,,
296044,2022-10-04_15h05.39.851,vts_reward_expectancy,2022.2.4,MacIntel,60.0024001,Chrome,1440,900,,,,,0,991,,,,,,,,,,,,,,,,,146,U,triangle,1,0,,,,,,,,,,,,,,,,switch,letter,lettSwt,k,0.565,Hi,,,,,,4,,,,,,,,high,21,0,21,0,1,,,,,,,,,
296044,2022-10-04_15h05.39.851,vts_reward_expectancy,2022.2.4,MacIntel,60.0024001,Chrome,1440,900,,,,,0,991,,,,,,,,,,,,,,,,,160,Y,triangle,0,0,,,,,,,,,,,,,,,,repeat,letter,NA,j,0.3848,Hi,,,,,,4,,,,,,,,high,22,0,22,0,1,,,,,,,,,
296044,2022-10-04_15h05.39.851,vts_reward_expectancy,2022.2.4,MacIntel,60.0024001,Chrome,1440,900,,,,,1,992,,,,,,,,,,,,,,,,,174,B,star,1,1,,,,,,,,,,,,,,,,repeat,letter,lettRpt,j,0.5979,Lo,,,,,,4,,,,,,,,high,23,0,23,0,1,,,,,,,,,
296044,2022-10-04_15h05.39.851,vts_reward_expectancy,2022.2.4,MacIntel,60.0024001,Chrome,1440,900,,,,,10,1002,,,,,,,,,,,,,,,,,125,Y,star,1,0,,,,,,,,,,,,,,,,switch,number,numSwt,d,0.6408,Lo,,,,,,4,,,,,,,,high,24,0,24,0,1,,,,,,,,,
296044,2022-10-04_15h05.39.851,vts_reward_expectancy,2022.2.4,MacIntel,60.0024001,Chrome,1440,900,,,,,0,1002,,,,,,,,,,,,,,,,,139,U,triangle,1,0,,,,,,,,,,,,,,,,repeat,number,numRpt,d,0.5978,Hi,,,,,,4,,,,,,,,high,25,0,25,0,1,,,,,,,,,
296044,2022-10-04_15h05.39.851,vts_reward_expectancy,2022.2.4,MacIntel,60.0024001,Chrome,1440,900,,,,,0,1002,,,,,,,,,,,,,,,,,146,D,triangle,1,0,,,,,,,,,,,,,,,,switch,letter,lettSwt,j,0.7301,Hi,,,,,,4,,,,,,,,high,26,0,26,0,1,,,,,,,,,
296044,2022-10-04_15h05.39.851,vts_reward_expectancy,2022.2.4,MacIntel,60.0024001,Chrome,1440,900,,,,,1,1003,,,,,,,,,,,,,,,,,174,S,star,1,0,,,,,,,,,,,,,,,,switch,number,numSwt,f,0.2663,Lo,,,,,,4,,,,,,,,high,27,0,27,0,1,,,,,,,,,
296044,2022-10-04_15h05.39.851,vts_reward_expectancy,2022.2.4,MacIntel,60.0024001,Chrome,1440,900,,,,,0,1003,,,,,,,,,,,,,,,,,167,W,triangle,1,0,,,,,,,,,,,,,,,,switch,letter,lettSwt,k,0.4515,Hi,,,,,,4,,,,,,,,high,28,0,28,0,1,,,,,,,,,
296044,2022-10-04_15h05.39.851,vts_reward_expectancy,2022.2.4,MacIntel,60.0024001,Chrome,1440,900,,,,,1,1004,,,,,,,,,,,,,,,,,181,F,star,1,0,,,,,,,,,,,,,,,,switch,number,numSwt,f,0.2801,Lo,,,,,,4,,,,,,,,high,29,0,29,0,1,,,,,,,,,
296044,2022-10-04_15h05.39.851,vts_reward_expectancy,2022.2.4,MacIntel,60.0024001,Chrome,1440,900,,,,,1,1005,,,,,,,,,,,,,,,,,132,B,star,1,0,,,,,,,,,,,,,,,,repeat,number,numRpt,d,0.0115,Lo,,,,,,4,,,,,,,,high,30,0,30,0,1,,,,,,,,,
296044,2022-10-04_15h05.39.851,vts_reward_expectancy,2022.2.4,MacIntel,60.0024001,Chrome,1440,900,,,,,0,1005,,,,,,,,,,,,,,,,,160,H,triangle,0,0,,,,,,,,,,,,,,,,switch,letter,NA,k,0.2967,Lo,,,,,,4,,,,,,,,high,31,0,31,0,1,,,,,,,,,
296044,2022-10-04_15h05.39.851,vts_reward_expectancy,2022.2.4,MacIntel,60.0024001,Chrome,1440,900,,,,,0,1005,,,,,,,,,,,,,,,,,174,W,hexagon,1,1,,,,,,,,,,,,,,,,repeat,letter,lettRpt,k,0.6479,Hi,,,,,,5,,,,,,space,2.8558,low,0,0,0,0,1,,,,,,,,,
296044,2022-10-04_15h05.39.851,vts_reward_expectancy,2022.2.4,MacIntel,60.0024001,Chrome,1440,900,,,,,1,1006,,,,,,,,,,,,,,,,,132,B,circle,1,0,,,,,,,,,,,,,,,,switch,number,numSwt,d,0.0484,Lo,,,,,,5,,,,,,,,low,1,0,1,0,1,,,,,,,,,
296044,2022-10-04_15h05.39.851,vts_reward_expectancy,2022.2.4,MacIntel,60.0024001,Chrome,1440,900,,,,,0,1006,,,,,,,,,,,,,,,,,181,F,hexagon,1,0,,,,,,,,,,,,,,,,switch,letter,lettSwt,j,0.6129,Hi,,,,,,5,,,,,,,,low,2,0,2,0,1,,,,,,,,,
296044,2022-10-04_15h05.39.851,vts_reward_expectancy,2022.2.4,MacIntel,60.0024001,Chrome,1440,900,,,,,1,1007,,,,,,,,,,,,,,,,,146,D,circle,1,0,,,,,,,,,,,,,,,,switch,number,numSwt,d,0.9664,Lo,,,,,,5,,,,,,,,low,3,0,3,0,1,,,,,,,,,
296044,2022-10-04_15h05.39.851,vts_reward_expectancy,2022.2.4,MacIntel,60.0024001,Chrome,1440,900,,,,,0,1007,,,,,,,,,,,,,,,,,125,H,circle,0,0,,,,,,,,,,,,,,,,switch,letter,NA,k,0.5031,Lo,,,,,,5,,,,,,,,low,4,0,4,0,1,,,,,,,,,
296044,2022-10-04_15h05.39.851,vts_reward_expectancy,2022.2.4,MacIntel,60.0024001,Chrome,1440,900,,,,,0,1007,,,,,,,,,,,,,,,,,160,U,hexagon,1,1,,,,,,,,,,,,,,,,switch,number,numSwt,f,0.5643,Hi,,,,,,5,,,,,,,,low,5,0,5,0,1,,,,,,,,,
296044,2022-10-04_15h05.39.851,vts_reward_expectancy,2022.2.4,MacIntel,60.0024001,Chrome,1440,900,,,,,1,1008,,,,,,,,,,,,,,,,,167,Y,circle,1,0,,,,,,,,,,,,,,,,switch,letter,lettSwt,k,0.5969,Lo,,,,,,5,,,,,,,,low,6,0,6,0,1,,,,,,,,,
296044,2022-10-04_15h05.39.851,vts_reward_expectancy,2022.2.4,MacIntel,60.0024001,Chrome,1440,900,,,,,0,1008,,,,,,,,,,,,,,,,,139,S,hexagon,1,0,,,,,,,,,,,,,,,,repeat,letter,lettRpt,k,0.6902,Hi,,,,,,5,,,,,,,,low,7,0,7,0,1,,,,,,,,,
296044,2022-10-04_15h05.39.851,vts_reward_expectancy,2022.2.4,MacIntel,60.0024001,Chrome,1440,900,,,,,1,1009,,,,,,,,,,,,,,,,,174,W,circle,1,0,,,,,,,,,,,,,,,,switch,number,numSwt,f,0.5203,Lo,,,,,,5,,,,,,,,low,8,0,8,0,1,,,,,,,,,
296044,2022-10-04_15h05.39.851,vts_reward_expectancy,2022.2.4,MacIntel,60.0024001,Chrome,1440,900,,,,,0,1009,,,,,,,,,,,,,,,,,132,B,hexagon,1,0,,,,,,,,,,,,,,,,repeat,number,numRpt,d,0.6816,Hi,,,,,,5,,,,,,,,low,9,0,9,0,1,,,,,,,,,
296044,2022-10-04_15h05.39.851,vts_reward_expectancy,2022.2.4,MacIntel,60.0024001,Chrome,1440,900,,,,,10,1019,,,,,,,,,,,,,,,,,181,F,circle,1,0,,,,,,,,,,,,,,,,switch,letter,lettSwt,j,1.0137,Lo,,,,,,5,,,,,,,,low,10,0,10,0,1,,,,,,,,,
296044,2022-10-04_15h05.39.851,vts_reward_expectancy,2022.2.4,MacIntel,60.0024001,Chrome,1440,900,,,,,0,1019,,,,,,,,,,,,,,,,,146,D,hexagon,1,0,,,,,,,,,,,,,,,,switch,number,numSwt,d,0.8468,Hi,,,,,,5,,,,,,,,low,11,0,11,0,1,,,,,,,,,
296044,2022-10-04_15h05.39.851,vts_reward_expectancy,2022.2.4,MacIntel,60.0024001,Chrome,1440,900,,,,,0,1019,,,,,,,,,,,,,,,,,125,H,circle,0,0,,,,,,,,,,,,,,,,switch,letter,NA,k,0.3317,Hi,,,,,,5,,,,,,,,low,12,0,12,0,1,,,,,,,,,
296044,2022-10-04_15h05.39.851,vts_reward_expectancy,2022.2.4,MacIntel,60.0024001,Chrome,1440,900,,,,,0,1019,,,,,,,,,,,,,,,,,160,U,hexagon,1,1,,,,,,,,,,,,,,,,switch,number,numSwt,f,0.5481,Hi,,,,,,5,,,,,,,,low,13,0,13,0,1,,,,,,,,,
296044,2022-10-04_15h05.39.851,vts_reward_expectancy,2022.2.4,MacIntel,60.0024001,Chrome,1440,900,,,,,10,1029,,,,,,,,,,,,,,,,,167,Y,hexagon,1,0,,,,,,,,,,,,,,,,repeat,number,numRpt,f,0.2034,Hi,,,,,,5,,,,,,,,low,14,0,14,0,1,,,,,,,,,
296044,2022-10-04_15h05.39.851,vts_reward_expectancy,2022.2.4,MacIntel,60.0024001,Chrome,1440,900,,,,,10,1039,,,,,,,,,,,,,,,,,139,S,circle,1,0,,,,,,,,,,,,,,,,repeat,number,numRpt,d,0.3471,Lo,,,,,,5,,,,,,,,low,15,0,15,0,1,,,,,,,,,
296044,2022-10-04_15h05.39.851,vts_reward_expectancy,2022.2.4,MacIntel,60.0024001,Chrome,1440,900,,,,,0,1039,,,,,,,,,,,,,,,,,146,B,hexagon,0,0,,,,,,,,,,,,,,,,switch,letter,NA,k,0.3151,Lo,,,,,,5,,,,,,,,low,16,0,16,0,1,,,,,,,,,
296044,2022-10-04_15h05.39.851,vts_reward_expectancy,2022.2.4,MacIntel,60.0024001,Chrome,1440,900,,,,,10,1049,,,,,,,,,,,,,,,,,174,H,circle,1,1,,,,,,,,,,,,,,,,repeat,letter,lettRpt,j,0.2521,Lo,,,,,,5,,,,,,,,low,17,0,17,0,1,,,,,,,,,
296044,2022-10-04_15h05.39.851,vts_reward_expectancy,2022.2.4,MacIntel,60.0024001,Chrome,1440,900,,,,,0,1049,,,,,,,,,,,,,,,,,167,S,hexagon,1,0,,,,,,,,,,,,,,,,repeat,letter,lettRpt,k,0.6815,Hi,,,,,,5,,,,,,,,low,18,0,18,0,1,,,,,,,,,
296044,2022-10-04_15h05.39.851,vts_reward_expectancy,2022.2.4,MacIntel,60.0024001,Chrome,1440,900,,,,,0,1049,,,,,,,,,,,,,,,,,139,W,circle,0,0,,,,,,,,,,,,,,,,repeat,letter,NA,j,0.4798,Hi,,,,,,5,,,,,,,,low,19,0,19,0,1,,,,,,,,,
296044,2022-10-04_15h05.39.851,vts_reward_expectancy,2022.2.4,MacIntel,60.0024001,Chrome,1440,900,,,,,10,1059,,,,,,,,,,,,,,,,,125,D,circle,1,1,,,,,,,,,,,,,,,,repeat,letter,lettRpt,j,0.6805,Lo,,,,,,5,,,,,,,,low,20,0,20,0,1,,,,,,,,,
296044,2022-10-04_15h05.39.851,vts_reward_expectancy,2022.2.4,MacIntel,60.0024001,Chrome,1440,900,,,,,0,1059,,,,,,,,,,,,,,,,,132,U,hexagon,1,0,,,,,,,,,,,,,,,,repeat,letter,lettRpt,k,1.0185,Hi,,,,,,5,,,,,,,,low,21,0,21,0,1,,,,,,,,,
296044,2022-10-04_15h05.39.851,vts_reward_expectancy,2022.2.4,MacIntel,60.0024001,Chrome,1440,900,,,,,0,1059,,,,,,,,,,,,,,,,,160,Y,hexagon,0,0,,,,,,,,,,,,,,,,switch,number,NA,d,0.2635,Hi,,,,,,5,,,,,,,,low,22,0,22,0,1,,,,,,,,,
296044,2022-10-04_15h05.39.851,vts_reward_expectancy,2022.2.4,MacIntel,60.0024001,Chrome,1440,900,,,,,1,1060,,,,,,,,,,,,,,,,,181,F,circle,1,1,,,,,,,,,,,,,,,,repeat,number,numRpt,f,0.5831,Lo,,,,,,5,,,,,,,,low,23,0,23,0,1,,,,,,,,,
296044,2022-10-04_15h05.39.851,vts_reward_expectancy,2022.2.4,MacIntel,60.0024001,Chrome,1440,900,,,,,0,1060,,,,,,,,,,,,,,,,,132,S,hexagon,1,0,,,,,,,,,,,,,,,,repeat,number,numRpt,d,0.5481,Hi,,,,,,5,,,,,,,,low,24,0,24,0,1,,,,,,,,,
296044,2022-10-04_15h05.39.851,vts_reward_expectancy,2022.2.4,MacIntel,60.0024001,Chrome,1440,900,,,,,1,1061,,,,,,,,,,,,,,,,,181,F,circle,1,0,,,,,,,,,,,,,,,,switch,letter,lettSwt,j,0.714,Lo,,,,,,5,,,,,,,,low,25,0,25,0,1,,,,,,,,,
296044,2022-10-04_15h05.39.851,vts_reward_expectancy,2022.2.4,MacIntel,60.0024001,Chrome,1440,900,,,,,1,1062,,,,,,,,,,,,,,,,,167,B,circle,1,0,,,,,,,,,,,,,,,,repeat,letter,lettRpt,j,0.5688,Lo,,,,,,5,,,,,,,,low,26,0,26,0,1,,,,,,,,,
296044,2022-10-04_15h05.39.851,vts_reward_expectancy,2022.2.4,MacIntel,60.0024001,Chrome,1440,900,,,,,0,1062,,,,,,,,,,,,,,,,,160,H,hexagon,1,0,,,,,,,,,,,,,,,,repeat,letter,lettRpt,j,0.748,Hi,,,,,,5,,,,,,,,low,27,0,27,0,1,,,,,,,,,
296044,2022-10-04_15h05.39.851,vts_reward_expectancy,2022.2.4,MacIntel,60.0024001,Chrome,1440,900,,,,,1,1063,,,,,,,,,,,,,,,,,146,U,circle,1,0,,,,,,,,,,,,,,,,switch,number,numSwt,d,0.6637,Lo,,,,,,5,,,,,,,,low,28,0,28,0,1,,,,,,,,,
296044,2022-10-04_15h05.39.851,vts_reward_expectancy,2022.2.4,MacIntel,60.0024001,Chrome,1440,900,,,,,0,1063,,,,,,,,,,,,,,,,,139,D,hexagon,1,0,,,,,,,,,,,,,,,,switch,letter,lettSwt,j,1.1485,Hi,,,,,,5,,,,,,,,low,29,0,29,0,1,,,,,,,,,
296044,2022-10-04_15h05.39.851,vts_reward_expectancy,2022.2.4,MacIntel,60.0024001,Chrome,1440,900,,,,,0,1063,,,,,,,,,,,,,,,,,125,Y,hexagon,0,0,,,,,,,,,,,,,,,,repeat,letter,NA,j,0.2811,Hi,,,,,,5,,,,,,,,low,30,0,30,0,1,,,,,,,,,
296044,2022-10-04_15h05.39.851,vts_reward_expectancy,2022.2.4,MacIntel,60.0024001,Chrome,1440,900,,,,,1,1064,,,,,,,,,,,,,,,,,174,W,circle,1,1,,,,,,,,,,,,,,,,repeat,letter,lettRpt,k,0.524,Lo,,,,,,5,,,,,,,,low,31,0,31,0,1,,,,,,,,,
296044,2022-10-04_15h05.39.851,vts_reward_expectancy,2022.2.4,MacIntel,60.0024001,Chrome,1440,900,,,,,,,,,,,,,,,,,,,,,,,,,,,,,,,,,,,,,,,,,,,,,,,,,,,,,,6,,,,,,,,,,,,,,"click d for under 153 and f for over 153, then j for a letter closer to a and k for a letter closer to z",1,,4,2,,2,1440,900
