participant,date,expName,psychopyVersion,OS,frameRate,browser,xResolution,yResolution,key_resp.keys,key_resp.rt,training_resp.keys,training_resp.rt,points_trial,points_cumul,trainBlock,training.thisRepN,training.thisTrialN,training.thisN,training.thisIndex,training.ran,LTriangleOpac,LCircleOpac,LHexagonOpac,LStarOpac,RTriangleOpac,RCircleOpac,RHexagonOpac,RStarOpac,LShape_ID,RShape_ID,curr_topStim,curr_bottStim,curr_shape,acc,E1,target_resp_prac1.keys,target_resp_prac1.rt,pracBlock,task1_prac_trials.thisRepN,task1_prac_trials.thisTrialN,task1_prac_trials.thisN,task1_prac_trials.thisIndex,task1_prac_trials.ran,target_resp_prac2.keys,target_resp_prac2.rt,task2_praac_trials.thisRepN,task2_praac_trials.thisTrialN,task2_praac_trials.thisN,task2_praac_trials.thisIndex,task2_praac_trials.ran,alt,task,condition,target_resp.keys,target_resp.rt,rewCond,vts_practice_trials.thisRepN,vts_practice_trials.thisTrialN,vts_practice_trials.thisN,vts_practice_trials.thisIndex,vts_practice_trials.ran,blockNum,trials_norew.thisRepN,trials_norew.thisTrialN,trials_norew.thisN,trials_norew.thisIndex,trials_norew.ran,key_resp_2.keys,key_resp_2.rt,rewExpect,trials_rew.thisRepN,trials_rew.thisTrialN,trials_rew.thisN,trials_rew.thisIndex,trials_rew.ran,Q1,Q2,Q2_text,Q3,Q4,Q5_text,Q5,xRes,yRes
293503,2022-10-03_14h28.17.514,vts_reward_expectancy,2022.2.4,MacIntel,59.84082341,Chrome,1440,900,,,,,,,,,,,,,,,,,,,,,,,,,,,,,,,,,,,,,,,,,,,,,,,,,,,,,,,,,,,,,,,,,,,,,,,,,,,,
293503,2022-10-03_14h28.17.514,vts_reward_expectancy,2022.2.4,MacIntel,59.84082341,Chrome,1440,900,space,6.3986,,,,,,,,,,,,,,,,,,,,,,,,,,,,,,,,,,,,,,,,,,,,,,,,,,,,,,,,,,,,,,,,,,,,,,,,,,
293503,2022-10-03_14h28.17.514,vts_reward_expectancy,2022.2.4,MacIntel,59.84082341,Chrome,1440,900,,,,,,,,,,,,,,,,,,,,,,,,,,,,,,,,,,,,,,,,,,,,,,,,,,,,,,,,,,,,,,,,,,,,,,,,,,,,
293503,2022-10-03_14h28.17.514,vts_reward_expectancy,2022.2.4,MacIntel,59.84082341,Chrome,1440,900,,,a,3.4672,10,10,0,0,0,0,11,1,0,0,0,1,0,0,1,0,star,hexagon,,,,,,,,,,,,,,,,,,,,,,,,,,,,,,,,,,,,,,,,,,,,,,,,,,,,,,
293503,2022-10-03_14h28.17.514,vts_reward_expectancy,2022.2.4,MacIntel,59.84082341,Chrome,1440,900,,,a,4.4746,1,11,0,0,1,1,3,1,0,1,0,0,1,0,0,0,circle,triangle,,,,,,,,,,,,,,,,,,,,,,,,,,,,,,,,,,,,,,,,,,,,,,,,,,,,,,
293503,2022-10-03_14h28.17.514,vts_reward_expectancy,2022.2.4,MacIntel,59.84082341,Chrome,1440,900,,,a,0.7352,10,21,0,0,2,2,5,1,0,1,0,0,0,0,0,1,circle,star,,,,,,,,,,,,,,,,,,,,,,,,,,,,,,,,,,,,,,,,,,,,,,,,,,,,,,
293503,2022-10-03_14h28.17.514,vts_reward_expectancy,2022.2.4,MacIntel,59.84082341,Chrome,1440,900,,,a,2.2865,1,22,0,0,3,3,1,1,1,0,0,0,0,0,1,0,triangle,hexagon,,,,,,,,,,,,,,,,,,,,,,,,,,,,,,,,,,,,,,,,,,,,,,,,,,,,,,
293503,2022-10-03_14h28.17.514,vts_reward_expectancy,2022.2.4,MacIntel,59.84082341,Chrome,1440,900,,,a,1.5045,10,32,0,0,4,4,9,1,0,0,0,1,1,0,0,0,star,triangle,,,,,,,,,,,,,,,,,,,,,,,,,,,,,,,,,,,,,,,,,,,,,,,,,,,,,,
293503,2022-10-03_14h28.17.514,vts_reward_expectancy,2022.2.4,MacIntel,59.84082341,Chrome,1440,900,,,a,0.5084,1,33,0,0,5,5,6,1,0,0,1,0,1,0,0,0,hexagon,triangle,,,,,,,,,,,,,,,,,,,,,,,,,,,,,,,,,,,,,,,,,,,,,,,,,,,,,,
293503,2022-10-03_14h28.17.514,vts_reward_expectancy,2022.2.4,MacIntel,59.84082341,Chrome,1440,900,,,a,1.236,1,34,0,0,6,6,4,1,0,1,0,0,0,0,1,0,circle,hexagon,,,,,,,,,,,,,,,,,,,,,,,,,,,,,,,,,,,,,,,,,,,,,,,,,,,,,,
293503,2022-10-03_14h28.17.514,vts_reward_expectancy,2022.2.4,MacIntel,59.84082341,Chrome,1440,900,,,a,3.9105,1,35,0,0,7,7,8,1,0,0,1,0,0,0,0,1,hexagon,star,,,,,,,,,,,,,,,,,,,,,,,,,,,,,,,,,,,,,,,,,,,,,,,,,,,,,,
293503,2022-10-03_14h28.17.514,vts_reward_expectancy,2022.2.4,MacIntel,59.84082341,Chrome,1440,900,,,a,3.4787,1,36,0,0,8,8,7,1,0,0,1,0,0,1,0,0,hexagon,circle,,,,,,,,,,,,,,,,,,,,,,,,,,,,,,,,,,,,,,,,,,,,,,,,,,,,,,
293503,2022-10-03_14h28.17.514,vts_reward_expectancy,2022.2.4,MacIntel,59.84082341,Chrome,1440,900,,,a,0.4511,1,37,0,0,9,9,0,1,1,0,0,0,0,1,0,0,triangle,circle,,,,,,,,,,,,,,,,,,,,,,,,,,,,,,,,,,,,,,,,,,,,,,,,,,,,,,
293503,2022-10-03_14h28.17.514,vts_reward_expectancy,2022.2.4,MacIntel,59.84082341,Chrome,1440,900,,,a,0.8367,10,47,0,0,10,10,2,1,1,0,0,0,0,0,0,1,triangle,star,,,,,,,,,,,,,,,,,,,,,,,,,,,,,,,,,,,,,,,,,,,,,,,,,,,,,,
293503,2022-10-03_14h28.17.514,vts_reward_expectancy,2022.2.4,MacIntel,59.84082341,Chrome,1440,900,,,a,0.5901,10,57,0,0,11,11,10,1,0,0,0,1,0,1,0,0,star ,circle,,,,,,,,,,,,,,,,,,,,,,,,,,,,,,,,,,,,,,,,,,,,,,,,,,,,,,
293503,2022-10-03_14h28.17.514,vts_reward_expectancy,2022.2.4,MacIntel,59.84082341,Chrome,1440,900,,,a,0.9436,1,58,0,1,0,12,6,1,0,0,1,0,1,0,0,0,hexagon,triangle,,,,,,,,,,,,,,,,,,,,,,,,,,,,,,,,,,,,,,,,,,,,,,,,,,,,,,
293503,2022-10-03_14h28.17.514,vts_reward_expectancy,2022.2.4,MacIntel,59.84082341,Chrome,1440,900,,,a,0.7719,10,68,0,1,1,13,7,1,0,0,1,0,0,1,0,0,hexagon,circle,,,,,,,,,,,,,,,,,,,,,,,,,,,,,,,,,,,,,,,,,,,,,,,,,,,,,,
293503,2022-10-03_14h28.17.514,vts_reward_expectancy,2022.2.4,MacIntel,59.84082341,Chrome,1440,900,,,a,0.2215,10,78,0,1,2,14,0,1,1,0,0,0,0,1,0,0,triangle,circle,,,,,,,,,,,,,,,,,,,,,,,,,,,,,,,,,,,,,,,,,,,,,,,,,,,,,,
293503,2022-10-03_14h28.17.514,vts_reward_expectancy,2022.2.4,MacIntel,59.84082341,Chrome,1440,900,,,a,0.3182,10,88,0,1,3,15,2,1,1,0,0,0,0,0,0,1,triangle,star,,,,,,,,,,,,,,,,,,,,,,,,,,,,,,,,,,,,,,,,,,,,,,,,,,,,,,
293503,2022-10-03_14h28.17.514,vts_reward_expectancy,2022.2.4,MacIntel,59.84082341,Chrome,1440,900,,,a,0.8648,10,98,0,1,4,16,4,1,0,1,0,0,0,0,1,0,circle,hexagon,,,,,,,,,,,,,,,,,,,,,,,,,,,,,,,,,,,,,,,,,,,,,,,,,,,,,,
293503,2022-10-03_14h28.17.514,vts_reward_expectancy,2022.2.4,MacIntel,59.84082341,Chrome,1440,900,,,a,0.3515,10,108,0,1,5,17,1,1,1,0,0,0,0,0,1,0,triangle,hexagon,,,,,,,,,,,,,,,,,,,,,,,,,,,,,,,,,,,,,,,,,,,,,,,,,,,,,,
293503,2022-10-03_14h28.17.514,vts_reward_expectancy,2022.2.4,MacIntel,59.84082341,Chrome,1440,900,,,a,0.3062,1,109,0,1,6,18,3,1,0,1,0,0,1,0,0,0,circle,triangle,,,,,,,,,,,,,,,,,,,,,,,,,,,,,,,,,,,,,,,,,,,,,,,,,,,,,,
293503,2022-10-03_14h28.17.514,vts_reward_expectancy,2022.2.4,MacIntel,59.84082341,Chrome,1440,900,,,a,0.7172,1,110,0,1,7,19,10,1,0,0,0,1,0,1,0,0,star ,circle,,,,,,,,,,,,,,,,,,,,,,,,,,,,,,,,,,,,,,,,,,,,,,,,,,,,,,
293503,2022-10-03_14h28.17.514,vts_reward_expectancy,2022.2.4,MacIntel,59.84082341,Chrome,1440,900,,,a,0.8116,10,120,0,1,8,20,5,1,0,1,0,0,0,0,0,1,circle,star,,,,,,,,,,,,,,,,,,,,,,,,,,,,,,,,,,,,,,,,,,,,,,,,,,,,,,
293503,2022-10-03_14h28.17.514,vts_reward_expectancy,2022.2.4,MacIntel,59.84082341,Chrome,1440,900,,,a,0.5666,10,130,0,1,9,21,8,1,0,0,1,0,0,0,0,1,hexagon,star,,,,,,,,,,,,,,,,,,,,,,,,,,,,,,,,,,,,,,,,,,,,,,,,,,,,,,
293503,2022-10-03_14h28.17.514,vts_reward_expectancy,2022.2.4,MacIntel,59.84082341,Chrome,1440,900,,,a,0.4523,10,140,0,1,10,22,9,1,0,0,0,1,1,0,0,0,star,triangle,,,,,,,,,,,,,,,,,,,,,,,,,,,,,,,,,,,,,,,,,,,,,,,,,,,,,,
293503,2022-10-03_14h28.17.514,vts_reward_expectancy,2022.2.4,MacIntel,59.84082341,Chrome,1440,900,,,a,0.569,10,150,0,1,11,23,11,1,0,0,0,1,0,0,1,0,star,hexagon,,,,,,,,,,,,,,,,,,,,,,,,,,,,,,,,,,,,,,,,,,,,,,,,,,,,,,
293503,2022-10-03_14h28.17.514,vts_reward_expectancy,2022.2.4,MacIntel,59.84082341,Chrome,1440,900,,,a,4.4173,1,151,0,2,0,24,8,1,0,0,1,0,0,0,0,1,hexagon,star,,,,,,,,,,,,,,,,,,,,,,,,,,,,,,,,,,,,,,,,,,,,,,,,,,,,,,
293503,2022-10-03_14h28.17.514,vts_reward_expectancy,2022.2.4,MacIntel,59.84082341,Chrome,1440,900,,,a,0.2996,1,152,0,2,1,25,10,1,0,0,0,1,0,1,0,0,star ,circle,,,,,,,,,,,,,,,,,,,,,,,,,,,,,,,,,,,,,,,,,,,,,,,,,,,,,,
293503,2022-10-03_14h28.17.514,vts_reward_expectancy,2022.2.4,MacIntel,59.84082341,Chrome,1440,900,,,a,0.5656,1,153,0,2,2,26,4,1,0,1,0,0,0,0,1,0,circle,hexagon,,,,,,,,,,,,,,,,,,,,,,,,,,,,,,,,,,,,,,,,,,,,,,,,,,,,,,
293503,2022-10-03_14h28.17.514,vts_reward_expectancy,2022.2.4,MacIntel,59.84082341,Chrome,1440,900,,,a,0.6527,1,154,0,2,3,27,2,1,1,0,0,0,0,0,0,1,triangle,star,,,,,,,,,,,,,,,,,,,,,,,,,,,,,,,,,,,,,,,,,,,,,,,,,,,,,,
293503,2022-10-03_14h28.17.514,vts_reward_expectancy,2022.2.4,MacIntel,59.84082341,Chrome,1440,900,,,a,1.4046,1,155,0,2,4,28,3,1,0,1,0,0,1,0,0,0,circle,triangle,,,,,,,,,,,,,,,,,,,,,,,,,,,,,,,,,,,,,,,,,,,,,,,,,,,,,,
293503,2022-10-03_14h28.17.514,vts_reward_expectancy,2022.2.4,MacIntel,59.84082341,Chrome,1440,900,,,a,0.14,10,165,0,2,5,29,11,1,0,0,0,1,0,0,1,0,star,hexagon,,,,,,,,,,,,,,,,,,,,,,,,,,,,,,,,,,,,,,,,,,,,,,,,,,,,,,
293503,2022-10-03_14h28.17.514,vts_reward_expectancy,2022.2.4,MacIntel,59.84082341,Chrome,1440,900,,,a,0.1051,1,166,0,2,6,30,5,1,0,1,0,0,0,0,0,1,circle,star,,,,,,,,,,,,,,,,,,,,,,,,,,,,,,,,,,,,,,,,,,,,,,,,,,,,,,
293503,2022-10-03_14h28.17.514,vts_reward_expectancy,2022.2.4,MacIntel,59.84082341,Chrome,1440,900,,,a,0.6714,1,167,0,2,7,31,0,1,1,0,0,0,0,1,0,0,triangle,circle,,,,,,,,,,,,,,,,,,,,,,,,,,,,,,,,,,,,,,,,,,,,,,,,,,,,,,
293503,2022-10-03_14h28.17.514,vts_reward_expectancy,2022.2.4,MacIntel,59.84082341,Chrome,1440,900,,,a,0.3233,1,168,0,2,8,32,6,1,0,0,1,0,1,0,0,0,hexagon,triangle,,,,,,,,,,,,,,,,,,,,,,,,,,,,,,,,,,,,,,,,,,,,,,,,,,,,,,
293503,2022-10-03_14h28.17.514,vts_reward_expectancy,2022.2.4,MacIntel,59.84082341,Chrome,1440,900,,,a,0.2339,10,178,0,2,9,33,9,1,0,0,0,1,1,0,0,0,star,triangle,,,,,,,,,,,,,,,,,,,,,,,,,,,,,,,,,,,,,,,,,,,,,,,,,,,,,,
293503,2022-10-03_14h28.17.514,vts_reward_expectancy,2022.2.4,MacIntel,59.84082341,Chrome,1440,900,,,a,1.0366,1,179,0,2,10,34,1,1,1,0,0,0,0,0,1,0,triangle,hexagon,,,,,,,,,,,,,,,,,,,,,,,,,,,,,,,,,,,,,,,,,,,,,,,,,,,,,,
293503,2022-10-03_14h28.17.514,vts_reward_expectancy,2022.2.4,MacIntel,59.84082341,Chrome,1440,900,,,a,0.7046,10,189,0,2,11,35,7,1,0,0,1,0,0,1,0,0,hexagon,circle,,,,,,,,,,,,,,,,,,,,,,,,,,,,,,,,,,,,,,,,,,,,,,,,,,,,,,
293503,2022-10-03_14h28.17.514,vts_reward_expectancy,2022.2.4,MacIntel,59.84082341,Chrome,1440,900,,,a,0.6674,10,199,1,0,0,0,9,1,0,0,0,1,1,0,0,0,star,triangle,,,,,,,,,,,,,,,,,,,,,,,,,,,,,,,,,,,,,,,,,,,,,,,,,,,,,,
293503,2022-10-03_14h28.17.514,vts_reward_expectancy,2022.2.4,MacIntel,59.84082341,Chrome,1440,900,,,l,0.4181,1,200,1,0,1,1,3,1,0,1,0,0,1,0,0,0,circle,triangle,,,,,,,,,,,,,,,,,,,,,,,,,,,,,,,,,,,,,,,,,,,,,,,,,,,,,,
293503,2022-10-03_14h28.17.514,vts_reward_expectancy,2022.2.4,MacIntel,59.84082341,Chrome,1440,900,,,l,0.5689,10,210,1,0,2,2,2,1,1,0,0,0,0,0,0,1,triangle,star,,,,,,,,,,,,,,,,,,,,,,,,,,,,,,,,,,,,,,,,,,,,,,,,,,,,,,
293503,2022-10-03_14h28.17.514,vts_reward_expectancy,2022.2.4,MacIntel,59.84082341,Chrome,1440,900,,,a,0.6522,10,220,1,0,3,3,1,1,1,0,0,0,0,0,1,0,triangle,hexagon,,,,,,,,,,,,,,,,,,,,,,,,,,,,,,,,,,,,,,,,,,,,,,,,,,,,,,
293503,2022-10-03_14h28.17.514,vts_reward_expectancy,2022.2.4,MacIntel,59.84082341,Chrome,1440,900,,,l,0.3196,10,230,1,0,4,4,4,1,0,1,0,0,0,0,1,0,circle,hexagon,,,,,,,,,,,,,,,,,,,,,,,,,,,,,,,,,,,,,,,,,,,,,,,,,,,,,,
293503,2022-10-03_14h28.17.514,vts_reward_expectancy,2022.2.4,MacIntel,59.84082341,Chrome,1440,900,,,a,0.3181,1,231,1,0,5,5,6,1,0,0,1,0,1,0,0,0,hexagon,triangle,,,,,,,,,,,,,,,,,,,,,,,,,,,,,,,,,,,,,,,,,,,,,,,,,,,,,,
293503,2022-10-03_14h28.17.514,vts_reward_expectancy,2022.2.4,MacIntel,59.84082341,Chrome,1440,900,,,l,0.4185,1,232,1,0,6,6,11,1,0,0,0,1,0,0,1,0,star,hexagon,,,,,,,,,,,,,,,,,,,,,,,,,,,,,,,,,,,,,,,,,,,,,,,,,,,,,,
293503,2022-10-03_14h28.17.514,vts_reward_expectancy,2022.2.4,MacIntel,59.84082341,Chrome,1440,900,,,a,0.4224,1,233,1,0,7,7,0,1,1,0,0,0,0,1,0,0,triangle,circle,,,,,,,,,,,,,,,,,,,,,,,,,,,,,,,,,,,,,,,,,,,,,,,,,,,,,,
293503,2022-10-03_14h28.17.514,vts_reward_expectancy,2022.2.4,MacIntel,59.84082341,Chrome,1440,900,,,l,0.2586,1,234,1,0,8,8,7,1,0,0,1,0,0,1,0,0,hexagon,circle,,,,,,,,,,,,,,,,,,,,,,,,,,,,,,,,,,,,,,,,,,,,,,,,,,,,,,
293503,2022-10-03_14h28.17.514,vts_reward_expectancy,2022.2.4,MacIntel,59.84082341,Chrome,1440,900,,,l,0.6191,10,244,1,0,9,9,5,1,0,1,0,0,0,0,0,1,circle,star,,,,,,,,,,,,,,,,,,,,,,,,,,,,,,,,,,,,,,,,,,,,,,,,,,,,,,
293503,2022-10-03_14h28.17.514,vts_reward_expectancy,2022.2.4,MacIntel,59.84082341,Chrome,1440,900,,,l,0.4916,10,254,1,0,10,10,8,1,0,0,1,0,0,0,0,1,hexagon,star,,,,,,,,,,,,,,,,,,,,,,,,,,,,,,,,,,,,,,,,,,,,,,,,,,,,,,
293503,2022-10-03_14h28.17.514,vts_reward_expectancy,2022.2.4,MacIntel,59.84082341,Chrome,1440,900,,,a,0.718,10,264,1,0,11,11,10,1,0,0,0,1,0,1,0,0,star ,circle,,,,,,,,,,,,,,,,,,,,,,,,,,,,,,,,,,,,,,,,,,,,,,,,,,,,,,
293503,2022-10-03_14h28.17.514,vts_reward_expectancy,2022.2.4,MacIntel,59.84082341,Chrome,1440,900,,,l,0.42,10,274,1,1,0,12,2,1,1,0,0,0,0,0,0,1,triangle,star,,,,,,,,,,,,,,,,,,,,,,,,,,,,,,,,,,,,,,,,,,,,,,,,,,,,,,
293503,2022-10-03_14h28.17.514,vts_reward_expectancy,2022.2.4,MacIntel,59.84082341,Chrome,1440,900,,,l,0.7179,1,275,1,1,1,13,3,1,0,1,0,0,1,0,0,0,circle,triangle,,,,,,,,,,,,,,,,,,,,,,,,,,,,,,,,,,,,,,,,,,,,,,,,,,,,,,
293503,2022-10-03_14h28.17.514,vts_reward_expectancy,2022.2.4,MacIntel,59.84082341,Chrome,1440,900,,,a,0.6532,1,276,1,1,2,14,6,1,0,0,1,0,1,0,0,0,hexagon,triangle,,,,,,,,,,,,,,,,,,,,,,,,,,,,,,,,,,,,,,,,,,,,,,,,,,,,,,
293503,2022-10-03_14h28.17.514,vts_reward_expectancy,2022.2.4,MacIntel,59.84082341,Chrome,1440,900,,,l,0.4026,10,286,1,1,3,15,8,1,0,0,1,0,0,0,0,1,hexagon,star,,,,,,,,,,,,,,,,,,,,,,,,,,,,,,,,,,,,,,,,,,,,,,,,,,,,,,
293503,2022-10-03_14h28.17.514,vts_reward_expectancy,2022.2.4,MacIntel,59.84082341,Chrome,1440,900,,,l,0.5071,1,287,1,1,4,16,5,1,0,1,0,0,0,0,0,1,circle,star,,,,,,,,,,,,,,,,,,,,,,,,,,,,,,,,,,,,,,,,,,,,,,,,,,,,,,
293503,2022-10-03_14h28.17.514,vts_reward_expectancy,2022.2.4,MacIntel,59.84082341,Chrome,1440,900,,,a,0.56,10,297,1,1,5,17,11,1,0,0,0,1,0,0,1,0,star,hexagon,,,,,,,,,,,,,,,,,,,,,,,,,,,,,,,,,,,,,,,,,,,,,,,,,,,,,,
293503,2022-10-03_14h28.17.514,vts_reward_expectancy,2022.2.4,MacIntel,59.84082341,Chrome,1440,900,,,l,0.058,10,307,1,1,6,18,1,1,1,0,0,0,0,0,1,0,triangle,hexagon,,,,,,,,,,,,,,,,,,,,,,,,,,,,,,,,,,,,,,,,,,,,,,,,,,,,,,
293503,2022-10-03_14h28.17.514,vts_reward_expectancy,2022.2.4,MacIntel,59.84082341,Chrome,1440,900,,,a,0.521,10,317,1,1,7,19,7,1,0,0,1,0,0,1,0,0,hexagon,circle,,,,,,,,,,,,,,,,,,,,,,,,,,,,,,,,,,,,,,,,,,,,,,,,,,,,,,
293503,2022-10-03_14h28.17.514,vts_reward_expectancy,2022.2.4,MacIntel,59.84082341,Chrome,1440,900,,,l,0.3211,1,318,1,1,8,20,9,1,0,0,0,1,1,0,0,0,star,triangle,,,,,,,,,,,,,,,,,,,,,,,,,,,,,,,,,,,,,,,,,,,,,,,,,,,,,,
293503,2022-10-03_14h28.17.514,vts_reward_expectancy,2022.2.4,MacIntel,59.84082341,Chrome,1440,900,,,l,1.4879,1,319,1,1,9,21,0,1,1,0,0,0,0,1,0,0,triangle,circle,,,,,,,,,,,,,,,,,,,,,,,,,,,,,,,,,,,,,,,,,,,,,,,,,,,,,,
293503,2022-10-03_14h28.17.514,vts_reward_expectancy,2022.2.4,MacIntel,59.84082341,Chrome,1440,900,,,l,0.551,1,320,1,1,10,22,4,1,0,1,0,0,0,0,1,0,circle,hexagon,,,,,,,,,,,,,,,,,,,,,,,,,,,,,,,,,,,,,,,,,,,,,,,,,,,,,,
293503,2022-10-03_14h28.17.514,vts_reward_expectancy,2022.2.4,MacIntel,59.84082341,Chrome,1440,900,,,a,0.3403,1,321,1,1,11,23,10,1,0,0,0,1,0,1,0,0,star ,circle,,,,,,,,,,,,,,,,,,,,,,,,,,,,,,,,,,,,,,,,,,,,,,,,,,,,,,
293503,2022-10-03_14h28.17.514,vts_reward_expectancy,2022.2.4,MacIntel,59.84082341,Chrome,1440,900,,,l,0.3843,10,331,1,2,0,24,5,1,0,1,0,0,0,0,0,1,circle,star,,,,,,,,,,,,,,,,,,,,,,,,,,,,,,,,,,,,,,,,,,,,,,,,,,,,,,
293503,2022-10-03_14h28.17.514,vts_reward_expectancy,2022.2.4,MacIntel,59.84082341,Chrome,1440,900,,,a,0.6831,10,341,1,2,1,25,11,1,0,0,0,1,0,0,1,0,star,hexagon,,,,,,,,,,,,,,,,,,,,,,,,,,,,,,,,,,,,,,,,,,,,,,,,,,,,,,
293503,2022-10-03_14h28.17.514,vts_reward_expectancy,2022.2.4,MacIntel,59.84082341,Chrome,1440,900,,,l,0.3375,1,342,1,2,2,26,7,1,0,0,1,0,0,1,0,0,hexagon,circle,,,,,,,,,,,,,,,,,,,,,,,,,,,,,,,,,,,,,,,,,,,,,,,,,,,,,,
293503,2022-10-03_14h28.17.514,vts_reward_expectancy,2022.2.4,MacIntel,59.84082341,Chrome,1440,900,,,a,0.1053,10,352,1,2,3,27,6,1,0,0,1,0,1,0,0,0,hexagon,triangle,,,,,,,,,,,,,,,,,,,,,,,,,,,,,,,,,,,,,,,,,,,,,,,,,,,,,,
293503,2022-10-03_14h28.17.514,vts_reward_expectancy,2022.2.4,MacIntel,59.84082341,Chrome,1440,900,,,l,0.0379,10,362,1,2,4,28,3,1,0,1,0,0,1,0,0,0,circle,triangle,,,,,,,,,,,,,,,,,,,,,,,,,,,,,,,,,,,,,,,,,,,,,,,,,,,,,,
293503,2022-10-03_14h28.17.514,vts_reward_expectancy,2022.2.4,MacIntel,59.84082341,Chrome,1440,900,,,a,0.0523,10,372,1,2,5,29,1,1,1,0,0,0,0,0,1,0,triangle,hexagon,,,,,,,,,,,,,,,,,,,,,,,,,,,,,,,,,,,,,,,,,,,,,,,,,,,,,,
293503,2022-10-03_14h28.17.514,vts_reward_expectancy,2022.2.4,MacIntel,59.84082341,Chrome,1440,900,,,l,0.0513,1,373,1,2,6,30,2,1,1,0,0,0,0,0,0,1,triangle,star,,,,,,,,,,,,,,,,,,,,,,,,,,,,,,,,,,,,,,,,,,,,,,,,,,,,,,
293503,2022-10-03_14h28.17.514,vts_reward_expectancy,2022.2.4,MacIntel,59.84082341,Chrome,1440,900,,,l,0.523,10,383,1,2,7,31,8,1,0,0,1,0,0,0,0,1,hexagon,star,,,,,,,,,,,,,,,,,,,,,,,,,,,,,,,,,,,,,,,,,,,,,,,,,,,,,,
293503,2022-10-03_14h28.17.514,vts_reward_expectancy,2022.2.4,MacIntel,59.84082341,Chrome,1440,900,,,a,0.4697,10,393,1,2,8,32,9,1,0,0,0,1,1,0,0,0,star,triangle,,,,,,,,,,,,,,,,,,,,,,,,,,,,,,,,,,,,,,,,,,,,,,,,,,,,,,
293503,2022-10-03_14h28.17.514,vts_reward_expectancy,2022.2.4,MacIntel,59.84082341,Chrome,1440,900,,,a,0.4346,10,403,1,2,9,33,10,1,0,0,0,1,0,1,0,0,star ,circle,,,,,,,,,,,,,,,,,,,,,,,,,,,,,,,,,,,,,,,,,,,,,,,,,,,,,,
293503,2022-10-03_14h28.17.514,vts_reward_expectancy,2022.2.4,MacIntel,59.84082341,Chrome,1440,900,,,l,0.5686,10,413,1,2,10,34,4,1,0,1,0,0,0,0,1,0,circle,hexagon,,,,,,,,,,,,,,,,,,,,,,,,,,,,,,,,,,,,,,,,,,,,,,,,,,,,,,
293503,2022-10-03_14h28.17.514,vts_reward_expectancy,2022.2.4,MacIntel,59.84082341,Chrome,1440,900,,,a,0.5995,1,414,1,2,11,35,0,1,1,0,0,0,0,1,0,0,triangle,circle,,,,,,,,,,,,,,,,,,,,,,,,,,,,,,,,,,,,,,,,,,,,,,,,,,,,,,
293503,2022-10-03_14h28.17.514,vts_reward_expectancy,2022.2.4,MacIntel,59.84082341,Chrome,1440,900,,,l,0.4169,1,415,2,0,0,0,3,1,0,1,0,0,1,0,0,0,circle,triangle,,,,,,,,,,,,,,,,,,,,,,,,,,,,,,,,,,,,,,,,,,,,,,,,,,,,,,
293503,2022-10-03_14h28.17.514,vts_reward_expectancy,2022.2.4,MacIntel,59.84082341,Chrome,1440,900,,,a,0.3841,10,425,2,0,1,1,9,1,0,0,0,1,1,0,0,0,star,triangle,,,,,,,,,,,,,,,,,,,,,,,,,,,,,,,,,,,,,,,,,,,,,,,,,,,,,,
293503,2022-10-03_14h28.17.514,vts_reward_expectancy,2022.2.4,MacIntel,59.84082341,Chrome,1440,900,,,l,0.3192,1,426,2,0,2,2,10,1,0,0,0,1,0,1,0,0,star ,circle,,,,,,,,,,,,,,,,,,,,,,,,,,,,,,,,,,,,,,,,,,,,,,,,,,,,,,
293503,2022-10-03_14h28.17.514,vts_reward_expectancy,2022.2.4,MacIntel,59.84082341,Chrome,1440,900,,,l,0.4061,10,436,2,0,3,3,5,1,0,1,0,0,0,0,0,1,circle,star,,,,,,,,,,,,,,,,,,,,,,,,,,,,,,,,,,,,,,,,,,,,,,,,,,,,,,
293503,2022-10-03_14h28.17.514,vts_reward_expectancy,2022.2.4,MacIntel,59.84082341,Chrome,1440,900,,,l,0.7902,1,437,2,0,4,4,4,1,0,1,0,0,0,0,1,0,circle,hexagon,,,,,,,,,,,,,,,,,,,,,,,,,,,,,,,,,,,,,,,,,,,,,,,,,,,,,,
293503,2022-10-03_14h28.17.514,vts_reward_expectancy,2022.2.4,MacIntel,59.84082341,Chrome,1440,900,,,a,0.6718,1,438,2,0,5,5,7,1,0,0,1,0,0,1,0,0,hexagon,circle,,,,,,,,,,,,,,,,,,,,,,,,,,,,,,,,,,,,,,,,,,,,,,,,,,,,,,
293503,2022-10-03_14h28.17.514,vts_reward_expectancy,2022.2.4,MacIntel,59.84082341,Chrome,1440,900,,,a,1.2089,10,448,2,0,6,6,1,1,1,0,0,0,0,0,1,0,triangle,hexagon,,,,,,,,,,,,,,,,,,,,,,,,,,,,,,,,,,,,,,,,,,,,,,,,,,,,,,
293503,2022-10-03_14h28.17.514,vts_reward_expectancy,2022.2.4,MacIntel,59.84082341,Chrome,1440,900,,,l,1.0869,10,458,2,0,7,7,6,1,0,0,1,0,1,0,0,0,hexagon,triangle,,,,,,,,,,,,,,,,,,,,,,,,,,,,,,,,,,,,,,,,,,,,,,,,,,,,,,
293503,2022-10-03_14h28.17.514,vts_reward_expectancy,2022.2.4,MacIntel,59.84082341,Chrome,1440,900,,,a,0.9359,1,459,2,0,8,8,11,1,0,0,0,1,0,0,1,0,star,hexagon,,,,,,,,,,,,,,,,,,,,,,,,,,,,,,,,,,,,,,,,,,,,,,,,,,,,,,
293503,2022-10-03_14h28.17.514,vts_reward_expectancy,2022.2.4,MacIntel,59.84082341,Chrome,1440,900,,,a,1.1577,1,460,2,0,9,9,0,1,1,0,0,0,0,1,0,0,triangle,circle,,,,,,,,,,,,,,,,,,,,,,,,,,,,,,,,,,,,,,,,,,,,,,,,,,,,,,
293503,2022-10-03_14h28.17.514,vts_reward_expectancy,2022.2.4,MacIntel,59.84082341,Chrome,1440,900,,,l,0.2711,1,461,2,0,10,10,2,1,1,0,0,0,0,0,0,1,triangle,star,,,,,,,,,,,,,,,,,,,,,,,,,,,,,,,,,,,,,,,,,,,,,,,,,,,,,,
293503,2022-10-03_14h28.17.514,vts_reward_expectancy,2022.2.4,MacIntel,59.84082341,Chrome,1440,900,,,l,0.5093,10,471,2,0,11,11,8,1,0,0,1,0,0,0,0,1,hexagon,star,,,,,,,,,,,,,,,,,,,,,,,,,,,,,,,,,,,,,,,,,,,,,,,,,,,,,,
293503,2022-10-03_14h28.17.514,vts_reward_expectancy,2022.2.4,MacIntel,59.84082341,Chrome,1440,900,,,a,0.6527,1,472,2,1,0,12,7,1,0,0,1,0,0,1,0,0,hexagon,circle,,,,,,,,,,,,,,,,,,,,,,,,,,,,,,,,,,,,,,,,,,,,,,,,,,,,,,
293503,2022-10-03_14h28.17.514,vts_reward_expectancy,2022.2.4,MacIntel,59.84082341,Chrome,1440,900,,,l,0.3865,1,473,2,1,1,13,10,1,0,0,0,1,0,1,0,0,star ,circle,,,,,,,,,,,,,,,,,,,,,,,,,,,,,,,,,,,,,,,,,,,,,,,,,,,,,,
293503,2022-10-03_14h28.17.514,vts_reward_expectancy,2022.2.4,MacIntel,59.84082341,Chrome,1440,900,,,l,0.872,10,483,2,1,2,14,4,1,0,1,0,0,0,0,1,0,circle,hexagon,,,,,,,,,,,,,,,,,,,,,,,,,,,,,,,,,,,,,,,,,,,,,,,,,,,,,,
293503,2022-10-03_14h28.17.514,vts_reward_expectancy,2022.2.4,MacIntel,59.84082341,Chrome,1440,900,,,a,0.4673,10,493,2,1,3,15,0,1,1,0,0,0,0,1,0,0,triangle,circle,,,,,,,,,,,,,,,,,,,,,,,,,,,,,,,,,,,,,,,,,,,,,,,,,,,,,,
293503,2022-10-03_14h28.17.514,vts_reward_expectancy,2022.2.4,MacIntel,59.84082341,Chrome,1440,900,,,a,0.6029,10,503,2,1,4,16,11,1,0,0,0,1,0,0,1,0,star,hexagon,,,,,,,,,,,,,,,,,,,,,,,,,,,,,,,,,,,,,,,,,,,,,,,,,,,,,,
293503,2022-10-03_14h28.17.514,vts_reward_expectancy,2022.2.4,MacIntel,59.84082341,Chrome,1440,900,,,l,0.4358,1,504,2,1,5,17,1,1,1,0,0,0,0,0,1,0,triangle,hexagon,,,,,,,,,,,,,,,,,,,,,,,,,,,,,,,,,,,,,,,,,,,,,,,,,,,,,,
293503,2022-10-03_14h28.17.514,vts_reward_expectancy,2022.2.4,MacIntel,59.84082341,Chrome,1440,900,,,a,0.2527,10,514,2,1,6,18,9,1,0,0,0,1,1,0,0,0,star,triangle,,,,,,,,,,,,,,,,,,,,,,,,,,,,,,,,,,,,,,,,,,,,,,,,,,,,,,
293503,2022-10-03_14h28.17.514,vts_reward_expectancy,2022.2.4,MacIntel,59.84082341,Chrome,1440,900,,,l,0.1226,10,524,2,1,7,19,8,1,0,0,1,0,0,0,0,1,hexagon,star,,,,,,,,,,,,,,,,,,,,,,,,,,,,,,,,,,,,,,,,,,,,,,,,,,,,,,
293503,2022-10-03_14h28.17.514,vts_reward_expectancy,2022.2.4,MacIntel,59.84082341,Chrome,1440,900,,,a,0.2836,1,525,2,1,8,20,5,1,0,1,0,0,0,0,0,1,circle,star,,,,,,,,,,,,,,,,,,,,,,,,,,,,,,,,,,,,,,,,,,,,,,,,,,,,,,
293503,2022-10-03_14h28.17.514,vts_reward_expectancy,2022.2.4,MacIntel,59.84082341,Chrome,1440,900,,,l,0.4231,10,535,2,1,9,21,6,1,0,0,1,0,1,0,0,0,hexagon,triangle,,,,,,,,,,,,,,,,,,,,,,,,,,,,,,,,,,,,,,,,,,,,,,,,,,,,,,
293503,2022-10-03_14h28.17.514,vts_reward_expectancy,2022.2.4,MacIntel,59.84082341,Chrome,1440,900,,,a,1.1358,1,536,2,1,10,22,3,1,0,1,0,0,1,0,0,0,circle,triangle,,,,,,,,,,,,,,,,,,,,,,,,,,,,,,,,,,,,,,,,,,,,,,,,,,,,,,
293503,2022-10-03_14h28.17.514,vts_reward_expectancy,2022.2.4,MacIntel,59.84082341,Chrome,1440,900,,,l,0.2484,10,546,2,1,11,23,2,1,1,0,0,0,0,0,0,1,triangle,star,,,,,,,,,,,,,,,,,,,,,,,,,,,,,,,,,,,,,,,,,,,,,,,,,,,,,,
293503,2022-10-03_14h28.17.514,vts_reward_expectancy,2022.2.4,MacIntel,59.84082341,Chrome,1440,900,,,a,0.435,10,556,2,2,0,24,10,1,0,0,0,1,0,1,0,0,star ,circle,,,,,,,,,,,,,,,,,,,,,,,,,,,,,,,,,,,,,,,,,,,,,,,,,,,,,,
293503,2022-10-03_14h28.17.514,vts_reward_expectancy,2022.2.4,MacIntel,59.84082341,Chrome,1440,900,,,l,0.4338,10,566,2,2,1,25,2,1,1,0,0,0,0,0,0,1,triangle,star,,,,,,,,,,,,,,,,,,,,,,,,,,,,,,,,,,,,,,,,,,,,,,,,,,,,,,
293503,2022-10-03_14h28.17.514,vts_reward_expectancy,2022.2.4,MacIntel,59.84082341,Chrome,1440,900,,,l,1.0535,10,576,2,2,2,26,1,1,1,0,0,0,0,0,1,0,triangle,hexagon,,,,,,,,,,,,,,,,,,,,,,,,,,,,,,,,,,,,,,,,,,,,,,,,,,,,,,
293503,2022-10-03_14h28.17.514,vts_reward_expectancy,2022.2.4,MacIntel,59.84082341,Chrome,1440,900,,,a,0.501,1,577,2,2,3,27,0,1,1,0,0,0,0,1,0,0,triangle,circle,,,,,,,,,,,,,,,,,,,,,,,,,,,,,,,,,,,,,,,,,,,,,,,,,,,,,,
293503,2022-10-03_14h28.17.514,vts_reward_expectancy,2022.2.4,MacIntel,59.84082341,Chrome,1440,900,,,l,1.0329,1,578,2,2,4,28,4,1,0,1,0,0,0,0,1,0,circle,hexagon,,,,,,,,,,,,,,,,,,,,,,,,,,,,,,,,,,,,,,,,,,,,,,,,,,,,,,
293503,2022-10-03_14h28.17.514,vts_reward_expectancy,2022.2.4,MacIntel,59.84082341,Chrome,1440,900,,,l,0.8534,10,588,2,2,5,29,8,1,0,0,1,0,0,0,0,1,hexagon,star,,,,,,,,,,,,,,,,,,,,,,,,,,,,,,,,,,,,,,,,,,,,,,,,,,,,,,
293503,2022-10-03_14h28.17.514,vts_reward_expectancy,2022.2.4,MacIntel,59.84082341,Chrome,1440,900,,,a,0.5726,10,598,2,2,6,30,9,1,0,0,0,1,1,0,0,0,star,triangle,,,,,,,,,,,,,,,,,,,,,,,,,,,,,,,,,,,,,,,,,,,,,,,,,,,,,,
293503,2022-10-03_14h28.17.514,vts_reward_expectancy,2022.2.4,MacIntel,59.84082341,Chrome,1440,900,,,l,0.5544,1,599,2,2,7,31,7,1,0,0,1,0,0,1,0,0,hexagon,circle,,,,,,,,,,,,,,,,,,,,,,,,,,,,,,,,,,,,,,,,,,,,,,,,,,,,,,
293503,2022-10-03_14h28.17.514,vts_reward_expectancy,2022.2.4,MacIntel,59.84082341,Chrome,1440,900,,,a,0.1547,10,609,2,2,8,32,6,1,0,0,1,0,1,0,0,0,hexagon,triangle,,,,,,,,,,,,,,,,,,,,,,,,,,,,,,,,,,,,,,,,,,,,,,,,,,,,,,
293503,2022-10-03_14h28.17.514,vts_reward_expectancy,2022.2.4,MacIntel,59.84082341,Chrome,1440,900,,,a,0.6555,1,610,2,2,9,33,3,1,0,1,0,0,1,0,0,0,circle,triangle,,,,,,,,,,,,,,,,,,,,,,,,,,,,,,,,,,,,,,,,,,,,,,,,,,,,,,
293503,2022-10-03_14h28.17.514,vts_reward_expectancy,2022.2.4,MacIntel,59.84082341,Chrome,1440,900,,,l,0.2684,10,620,2,2,10,34,5,1,0,1,0,0,0,0,0,1,circle,star,,,,,,,,,,,,,,,,,,,,,,,,,,,,,,,,,,,,,,,,,,,,,,,,,,,,,,
293503,2022-10-03_14h28.17.514,vts_reward_expectancy,2022.2.4,MacIntel,59.84082341,Chrome,1440,900,,,a,0.3384,10,630,2,2,11,35,11,1,0,0,0,1,0,0,1,0,star,hexagon,,,,,,,,,,,,,,,,,,,,,,,,,,,,,,,,,,,,,,,,,,,,,,,,,,,,,,
293503,2022-10-03_14h28.17.514,vts_reward_expectancy,2022.2.4,MacIntel,59.84082341,Chrome,1440,900,,,,,,,,,,,,,,,,,,,,,,,Y,146,triangle,1,0,f,2.2375,0,0,0,0,0,1,,,,,,,,,,,,,,,,,,,,,,,,,,,,,,,,,,,,,,,,,
293503,2022-10-03_14h28.17.514,vts_reward_expectancy,2022.2.4,MacIntel,59.84082341,Chrome,1440,900,,,,,,,,,,,,,,,,,,,,,,,W,160,star,1,0,f,0.916,0,1,0,1,0,1,,,,,,,,,,,,,,,,,,,,,,,,,,,,,,,,,,,,,,,,,
293503,2022-10-03_14h28.17.514,vts_reward_expectancy,2022.2.4,MacIntel,59.84082341,Chrome,1440,900,,,,,,,,,,,,,,,,,,,,,,,B,167,circle,1,0,d,0.7158,0,2,0,2,0,1,,,,,,,,,,,,,,,,,,,,,,,,,,,,,,,,,,,,,,,,,
293503,2022-10-03_14h28.17.514,vts_reward_expectancy,2022.2.4,MacIntel,59.84082341,Chrome,1440,900,,,,,,,,,,,,,,,,,,,,,,,S,181,hexagon,1,0,f,0.9596,0,3,0,3,0,1,,,,,,,,,,,,,,,,,,,,,,,,,,,,,,,,,,,,,,,,,
293503,2022-10-03_14h28.17.514,vts_reward_expectancy,2022.2.4,MacIntel,59.84082341,Chrome,1440,900,,,,,,,,,,,,,,,,,,,,,,,U,139,triangle,1,0,f,0.7124,0,4,0,4,0,1,,,,,,,,,,,,,,,,,,,,,,,,,,,,,,,,,,,,,,,,,
293503,2022-10-03_14h28.17.514,vts_reward_expectancy,2022.2.4,MacIntel,59.84082341,Chrome,1440,900,,,,,,,,,,,,,,,,,,,,,,,H,125,star,1,0,d,1.0491,0,5,0,5,0,1,,,,,,,,,,,,,,,,,,,,,,,,,,,,,,,,,,,,,,,,,
293503,2022-10-03_14h28.17.514,vts_reward_expectancy,2022.2.4,MacIntel,59.84082341,Chrome,1440,900,,,,,,,,,,,,,,,,,,,,,,,F,132,circle,1,0,d,0.8486,0,6,0,6,0,1,,,,,,,,,,,,,,,,,,,,,,,,,,,,,,,,,,,,,,,,,
293503,2022-10-03_14h28.17.514,vts_reward_expectancy,2022.2.4,MacIntel,59.84082341,Chrome,1440,900,,,,,,,,,,,,,,,,,,,,,,,D,174,hexagon,1,0,d,0.9479,0,7,0,7,0,1,,,,,,,,,,,,,,,,,,,,,,,,,,,,,,,,,,,,,,,,,
293503,2022-10-03_14h28.17.514,vts_reward_expectancy,2022.2.4,MacIntel,59.84082341,Chrome,1440,900,,,,,,,,,,,,,,,,,,,,,,,Y,146,star,1,0,f,0.9332,0,8,0,8,0,1,,,,,,,,,,,,,,,,,,,,,,,,,,,,,,,,,,,,,,,,,
293503,2022-10-03_14h28.17.514,vts_reward_expectancy,2022.2.4,MacIntel,59.84082341,Chrome,1440,900,,,,,,,,,,,,,,,,,,,,,,,W,160,triangle,1,0,f,0.6304,0,9,0,9,0,1,,,,,,,,,,,,,,,,,,,,,,,,,,,,,,,,,,,,,,,,,
293503,2022-10-03_14h28.17.514,vts_reward_expectancy,2022.2.4,MacIntel,59.84082341,Chrome,1440,900,,,,,,,,,,,,,,,,,,,,,,,B,125,triangle,1,0,,,1,,,,,,j,0.5651,0,0,0,0,1,,,,,,,,,,,,,,,,,,,,,,,,,,,,,,,,,,
293503,2022-10-03_14h28.17.514,vts_reward_expectancy,2022.2.4,MacIntel,59.84082341,Chrome,1440,900,,,,,,,,,,,,,,,,,,,,,,,H,160,star,1,0,,,1,,,,,,k,0.5642,1,0,1,0,1,,,,,,,,,,,,,,,,,,,,,,,,,,,,,,,,,,
293503,2022-10-03_14h28.17.514,vts_reward_expectancy,2022.2.4,MacIntel,59.84082341,Chrome,1440,900,,,,,,,,,,,,,,,,,,,,,,,Y,167,hexagon,1,0,,,1,,,,,,k,0.7158,2,0,2,0,1,,,,,,,,,,,,,,,,,,,,,,,,,,,,,,,,,,
293503,2022-10-03_14h28.17.514,vts_reward_expectancy,2022.2.4,MacIntel,59.84082341,Chrome,1440,900,,,,,,,,,,,,,,,,,,,,,,,U,181,circle,1,0,,,1,,,,,,k,1.525,3,0,3,0,1,,,,,,,,,,,,,,,,,,,,,,,,,,,,,,,,,,
293503,2022-10-03_14h28.17.514,vts_reward_expectancy,2022.2.4,MacIntel,59.84082341,Chrome,1440,900,,,,,,,,,,,,,,,,,,,,,,,W,132,triangle,1,0,,,1,,,,,,j,0.631,4,0,4,0,1,,,,,,,,,,,,,,,,,,,,,,,,,,,,,,,,,,
293503,2022-10-03_14h28.17.514,vts_reward_expectancy,2022.2.4,MacIntel,59.84082341,Chrome,1440,900,,,,,,,,,,,,,,,,,,,,,,,D,139,star,1,0,,,1,,,,,,j,1.4207,5,0,5,0,1,,,,,,,,,,,,,,,,,,,,,,,,,,,,,,,,,,
293503,2022-10-03_14h28.17.514,vts_reward_expectancy,2022.2.4,MacIntel,59.84082341,Chrome,1440,900,,,,,,,,,,,,,,,,,,,,,,,S,174,hexagon,1,0,,,1,,,,,,k,0.8175,6,0,6,0,1,,,,,,,,,,,,,,,,,,,,,,,,,,,,,,,,,,
293503,2022-10-03_14h28.17.514,vts_reward_expectancy,2022.2.4,MacIntel,59.84082341,Chrome,1440,900,,,,,,,,,,,,,,,,,,,,,,,F,146,circle,1,0,,,1,,,,,,j,0.534,7,0,7,0,1,,,,,,,,,,,,,,,,,,,,,,,,,,,,,,,,,,
293503,2022-10-03_14h28.17.514,vts_reward_expectancy,2022.2.4,MacIntel,59.84082341,Chrome,1440,900,,,,,,,,,,,,,,,,,,,,,,,B,125,hexagon,1,0,,,1,,,,,,j,0.7977,8,0,8,0,1,,,,,,,,,,,,,,,,,,,,,,,,,,,,,,,,,,
293503,2022-10-03_14h28.17.514,vts_reward_expectancy,2022.2.4,MacIntel,59.84082341,Chrome,1440,900,,,,,,,,,,,,,,,,,,,,,,,H,160,star,1,0,,,1,,,,,,k,1.468,9,0,9,0,1,,,,,,,,,,,,,,,,,,,,,,,,,,,,,,,,,,
293503,2022-10-03_14h28.17.514,vts_reward_expectancy,2022.2.4,MacIntel,59.84082341,Chrome,1440,900,,,,,0,630,,,,,,,,,,,,,,,,,D,167,hexagon,1,0,,,2,,,,,,,,,,,,,-1,letter,NA,d,2.9127,vtsPrac,0,0,0,0,1,,,,,,,,,,,,,,,,,,,,,,,
293503,2022-10-03_14h28.17.514,vts_reward_expectancy,2022.2.4,MacIntel,59.84082341,Chrome,1440,900,,,,,0,630,,,,,,,,,,,,,,,,,W,146,star,0,0,,,2,,,,,,,,,,,,,switch,number,NA,k,0.9519,vtsPrac,1,0,1,0,1,,,,,,,,,,,,,,,,,,,,,,,
293503,2022-10-03_14h28.17.514,vts_reward_expectancy,2022.2.4,MacIntel,59.84082341,Chrome,1440,900,,,,,0,630,,,,,,,,,,,,,,,,,H,125,hexagon,1,1,,,2,,,,,,,,,,,,,switch,letter,lettSwt,d,1.5171,vtsPrac,2,0,2,0,1,,,,,,,,,,,,,,,,,,,,,,,
293503,2022-10-03_14h28.17.514,vts_reward_expectancy,2022.2.4,MacIntel,59.84082341,Chrome,1440,900,,,,,0,630,,,,,,,,,,,,,,,,,U,139,star,1,0,,,2,,,,,,,,,,,,,switch,number,numSwt,j,1.4024,vtsPrac,3,0,3,0,1,,,,,,,,,,,,,,,,,,,,,,,
293503,2022-10-03_14h28.17.514,vts_reward_expectancy,2022.2.4,MacIntel,59.84082341,Chrome,1440,900,,,,,0,630,,,,,,,,,,,,,,,,,D,167,hexagon,1,0,,,2,,,,,,,,,,,,,switch,letter,lettSwt,d,1.0497,vtsPrac,4,0,4,0,1,,,,,,,,,,,,,,,,,,,,,,,
293503,2022-10-03_14h28.17.514,vts_reward_expectancy,2022.2.4,MacIntel,59.84082341,Chrome,1440,900,,,,,0,630,,,,,,,,,,,,,,,,,W,146,circle,1,0,,,2,,,,,,,,,,,,,switch,number,numSwt,j,1.8199,vtsPrac,5,0,5,0,1,,,,,,,,,,,,,,,,,,,,,,,
293503,2022-10-03_14h28.17.514,vts_reward_expectancy,2022.2.4,MacIntel,59.84082341,Chrome,1440,900,,,,,0,630,,,,,,,,,,,,,,,,,H,125,triangle,-1,0,,,2,,,,,,,,,,,,,switch,no_choice,NA,,,vtsPrac,6,0,6,0,1,,,,,,,,,,,,,,,,,,,,,,,
293503,2022-10-03_14h28.17.514,vts_reward_expectancy,2022.2.4,MacIntel,59.84082341,Chrome,1440,900,,,,,0,630,,,,,,,,,,,,,,,,,U,139,hexagon,1,0,,,2,,,,,,,,,,,,,switch,number,numSwt,j,1.5015,vtsPrac,7,0,7,0,1,,,,,,,,,,,,,,,,,,,,,,,
293503,2022-10-03_14h28.17.514,vts_reward_expectancy,2022.2.4,MacIntel,59.84082341,Chrome,1440,900,,,,,0,630,,,,,,,,,,,,,,,,,Y,160,star,1,0,,,2,,,,,,,,,,,,,switch,letter,lettSwt,f,1.1668,vtsPrac,8,0,8,0,1,,,,,,,,,,,,,,,,,,,,,,,
293503,2022-10-03_14h28.17.514,vts_reward_expectancy,2022.2.4,MacIntel,59.84082341,Chrome,1440,900,,,,,0,630,,,,,,,,,,,,,,,,,H,132,circle,1,0,,,2,,,,,,,,,,,,,switch,number,numSwt,j,0.9819,vtsPrac,9,0,9,0,1,,,,,,,,,,,,,,,,,,,,,,,
293503,2022-10-03_14h28.17.514,vts_reward_expectancy,2022.2.4,MacIntel,59.84082341,Chrome,1440,900,,,,,0,630,,,,,,,,,,,,,,,,,B,139,circle,1,0,,,2,,,,,,,,,,,,,repeat,number,numRpt,j,0.8165,vtsPrac,10,0,10,0,1,,,,,,,,,,,,,,,,,,,,,,,
293503,2022-10-03_14h28.17.514,vts_reward_expectancy,2022.2.4,MacIntel,59.84082341,Chrome,1440,900,,,,,0,630,,,,,,,,,,,,,,,,,F,174,triangle,1,0,,,2,,,,,,,,,,,,,switch,letter,lettSwt,d,0.6323,vtsPrac,11,0,11,0,1,,,,,,,,,,,,,,,,,,,,,,,
293503,2022-10-03_14h28.17.514,vts_reward_expectancy,2022.2.4,MacIntel,59.84082341,Chrome,1440,900,,,,,0,630,,,,,,,,,,,,,,,,,Y,132,hexagon,1,0,,,2,,,,,,,,,,,,,switch,number,numSwt,j,0.5508,vtsPrac,12,0,12,0,1,,,,,,,,,,,,,,,,,,,,,,,
293503,2022-10-03_14h28.17.514,vts_reward_expectancy,2022.2.4,MacIntel,59.84082341,Chrome,1440,900,,,,,0,630,,,,,,,,,,,,,,,,,U,174,circle,1,0,,,2,,,,,,,,,,,,,repeat,number,numRpt,k,0.4792,vtsPrac,13,0,13,0,1,,,,,,,,,,,,,,,,,,,,,,,
293503,2022-10-03_14h28.17.514,vts_reward_expectancy,2022.2.4,MacIntel,59.84082341,Chrome,1440,900,,,,,0,630,,,,,,,,,,,,,,,,,H,146,star,1,0,,,2,,,,,,,,,,,,,switch,letter,lettSwt,d,0.8331,vtsPrac,14,0,14,0,1,,,,,,,,,,,,,,,,,,,,,,,
293503,2022-10-03_14h28.17.514,vts_reward_expectancy,2022.2.4,MacIntel,59.84082341,Chrome,1440,900,,,,,0,630,,,,,,,,,,,,,,,,,B,160,circle,1,0,,,2,,,,,,,,,,,,,switch,number,numSwt,k,0.5825,vtsPrac,15,0,15,0,1,,,,,,,,,,,,,,,,,,,,,,,
293503,2022-10-03_14h28.17.514,vts_reward_expectancy,2022.2.4,MacIntel,59.84082341,Chrome,1440,900,,,,,0,630,,,,,,,,,,,,,,,,,F,125,circle,1,0,,,3,,,,,,,,,,,,,switch,letter,lettSwt,d,2.0518,vtsPrac,0,0,0,0,1,,,,,,,,,,,,,,,,,,,,,,,
293503,2022-10-03_14h28.17.514,vts_reward_expectancy,2022.2.4,MacIntel,59.84082341,Chrome,1440,900,,,,,0,630,,,,,,,,,,,,,,,,,D,146,star,1,0,,,3,,,,,,,,,,,,,repeat,letter,lettRpt,d,1.3177,vtsPrac,1,0,1,0,1,,,,,,,,,,,,,,,,,,,,,,,
293503,2022-10-03_14h28.17.514,vts_reward_expectancy,2022.2.4,MacIntel,59.84082341,Chrome,1440,900,,,,,0,630,,,,,,,,,,,,,,,,,H,160,circle,1,0,,,3,,,,,,,,,,,,,repeat,letter,lettRpt,d,0.6806,vtsPrac,2,0,2,0,1,,,,,,,,,,,,,,,,,,,,,,,
293503,2022-10-03_14h28.17.514,vts_reward_expectancy,2022.2.4,MacIntel,59.84082341,Chrome,1440,900,,,,,0,630,,,,,,,,,,,,,,,,,S,181,star,1,0,,,3,,,,,,,,,,,,,switch,number,numSwt,k,1.051,vtsPrac,3,0,3,0,1,,,,,,,,,,,,,,,,,,,,,,,
293503,2022-10-03_14h28.17.514,vts_reward_expectancy,2022.2.4,MacIntel,59.84082341,Chrome,1440,900,,,,,0,630,,,,,,,,,,,,,,,,,F,125,hexagon,1,0,,,3,,,,,,,,,,,,,switch,letter,lettSwt,d,0.9978,vtsPrac,4,0,4,0,1,,,,,,,,,,,,,,,,,,,,,,,
293503,2022-10-03_14h28.17.514,vts_reward_expectancy,2022.2.4,MacIntel,59.84082341,Chrome,1440,900,,,,,0,630,,,,,,,,,,,,,,,,,D,146,star,1,0,,,3,,,,,,,,,,,,,switch,number,numSwt,j,1.6198,vtsPrac,5,0,5,0,1,,,,,,,,,,,,,,,,,,,,,,,
293503,2022-10-03_14h28.17.514,vts_reward_expectancy,2022.2.4,MacIntel,59.84082341,Chrome,1440,900,,,,,0,630,,,,,,,,,,,,,,,,,H,160,star,1,0,,,3,,,,,,,,,,,,,repeat,number,numRpt,k,0.8663,vtsPrac,6,0,6,0,1,,,,,,,,,,,,,,,,,,,,,,,
293503,2022-10-03_14h28.17.514,vts_reward_expectancy,2022.2.4,MacIntel,59.84082341,Chrome,1440,900,,,,,0,630,,,,,,,,,,,,,,,,,S,181,triangle,1,0,,,3,,,,,,,,,,,,,repeat,number,numRpt,k,0.7358,vtsPrac,7,0,7,0,1,,,,,,,,,,,,,,,,,,,,,,,
293503,2022-10-03_14h28.17.514,vts_reward_expectancy,2022.2.4,MacIntel,59.84082341,Chrome,1440,900,,,,,0,630,,,,,,,,,,,,,,,,,D,174,triangle,1,0,,,3,,,,,,,,,,,,,switch,letter,lettSwt,d,0.8859,vtsPrac,8,0,8,0,1,,,,,,,,,,,,,,,,,,,,,,,
293503,2022-10-03_14h28.17.514,vts_reward_expectancy,2022.2.4,MacIntel,59.84082341,Chrome,1440,900,,,,,0,630,,,,,,,,,,,,,,,,,B,167,star,1,0,,,3,,,,,,,,,,,,,switch,number,numSwt,k,1.6529,vtsPrac,9,0,9,0,1,,,,,,,,,,,,,,,,,,,,,,,
293503,2022-10-03_14h28.17.514,vts_reward_expectancy,2022.2.4,MacIntel,59.84082341,Chrome,1440,900,,,,,0,630,,,,,,,,,,,,,,,,,U,181,hexagon,1,0,,,3,,,,,,,,,,,,,switch,letter,lettSwt,f,0.8849,vtsPrac,10,0,10,0,1,,,,,,,,,,,,,,,,,,,,,,,
293503,2022-10-03_14h28.17.514,vts_reward_expectancy,2022.2.4,MacIntel,59.84082341,Chrome,1440,900,,,,,0,630,,,,,,,,,,,,,,,,,H,125,star,1,0,,,3,,,,,,,,,,,,,repeat,letter,lettRpt,d,0.5804,vtsPrac,11,0,11,0,1,,,,,,,,,,,,,,,,,,,,,,,
293503,2022-10-03_14h28.17.514,vts_reward_expectancy,2022.2.4,MacIntel,59.84082341,Chrome,1440,900,,,,,0,630,,,,,,,,,,,,,,,,,F,181,hexagon,1,0,,,3,,,,,,,,,,,,,repeat,letter,lettRpt,d,0.7181,vtsPrac,12,0,12,0,1,,,,,,,,,,,,,,,,,,,,,,,
293503,2022-10-03_14h28.17.514,vts_reward_expectancy,2022.2.4,MacIntel,59.84082341,Chrome,1440,900,,,,,0,630,,,,,,,,,,,,,,,,,S,146,circle,1,0,,,3,,,,,,,,,,,,,switch,number,numSwt,j,0.6246,vtsPrac,13,0,13,0,1,,,,,,,,,,,,,,,,,,,,,,,
293503,2022-10-03_14h28.17.514,vts_reward_expectancy,2022.2.4,MacIntel,59.84082341,Chrome,1440,900,,,,,0,630,,,,,,,,,,,,,,,,,D,132,circle,1,0,,,3,,,,,,,,,,,,,switch,letter,lettSwt,d,0.7641,vtsPrac,14,0,14,0,1,,,,,,,,,,,,,,,,,,,,,,,
293503,2022-10-03_14h28.17.514,vts_reward_expectancy,2022.2.4,MacIntel,59.84082341,Chrome,1440,900,,,,,0,630,,,,,,,,,,,,,,,,,W,167,triangle,1,0,,,3,,,,,,,,,,,,,switch,number,numSwt,k,0.9324,vtsPrac,15,0,15,0,1,,,,,,,,,,,,,,,,,,,,,,,
293503,2022-10-03_14h28.17.514,vts_reward_expectancy,2022.2.4,MacIntel,59.84082341,Chrome,1440,900,,,,,,,,,,,,,,,,,,,,,,,,,,,,,,,,,,,,,,,,,,,,,,,,,,,,,,,,,,,,,,,,,,,,,,,,,,,,
293503,2022-10-03_14h28.17.514,vts_reward_expectancy,2022.2.4,MacIntel,59.84082341,Chrome,1440,900,,,,,,,,,,,,,,,,,,,,,,,,,,,,,,,,,,,,,,,,,,,,,,,,,,,,,,,,,,,,,,,,,,,,,,,,,,,,
293503,2022-10-03_14h28.17.514,vts_reward_expectancy,2022.2.4,MacIntel,59.84082341,Chrome,1440,900,,,,,0,630,,,,,,,,,,,,,,,,,B,146,star,1,0,,,,,,,,,,,,,,,,switch,letter,lettSwt,d,1.4717,noRew,,,,,,0,0,0,0,0,1,,,,,,,,,,,,,,,,,
293503,2022-10-03_14h28.17.514,vts_reward_expectancy,2022.2.4,MacIntel,59.84082341,Chrome,1440,900,,,,,0,630,,,,,,,,,,,,,,,,,H,125,circle,1,0,,,,,,,,,,,,,,,,switch,number,numSwt,j,2.2512,noRew,,,,,,0,1,0,1,0,1,,,,,,,,,,,,,,,,,
293503,2022-10-03_14h28.17.514,vts_reward_expectancy,2022.2.4,MacIntel,59.84082341,Chrome,1440,900,,,,,0,630,,,,,,,,,,,,,,,,,U,160,star,1,0,,,,,,,,,,,,,,,,repeat,number,numRpt,k,1.8048,noRew,,,,,,0,2,0,2,0,1,,,,,,,,,,,,,,,,,
293503,2022-10-03_14h28.17.514,vts_reward_expectancy,2022.2.4,MacIntel,59.84082341,Chrome,1440,900,,,,,0,630,,,,,,,,,,,,,,,,,D,139,circle,1,0,,,,,,,,,,,,,,,,switch,letter,lettSwt,d,0.8495,noRew,,,,,,0,3,0,3,0,1,,,,,,,,,,,,,,,,,
293503,2022-10-03_14h28.17.514,vts_reward_expectancy,2022.2.4,MacIntel,59.84082341,Chrome,1440,900,,,,,0,630,,,,,,,,,,,,,,,,,B,146,hexagon,1,0,,,,,,,,,,,,,,,,repeat,letter,lettRpt,d,0.8996,noRew,,,,,,0,4,0,4,0,1,,,,,,,,,,,,,,,,,
293503,2022-10-03_14h28.17.514,vts_reward_expectancy,2022.2.4,MacIntel,59.84082341,Chrome,1440,900,,,,,0,630,,,,,,,,,,,,,,,,,H,125,star,1,0,,,,,,,,,,,,,,,,switch,number,numSwt,j,0.8504,noRew,,,,,,0,5,0,5,0,1,,,,,,,,,,,,,,,,,
293503,2022-10-03_14h28.17.514,vts_reward_expectancy,2022.2.4,MacIntel,59.84082341,Chrome,1440,900,,,,,0,630,,,,,,,,,,,,,,,,,U,160,star,1,0,,,,,,,,,,,,,,,,switch,letter,lettSwt,f,0.9864,noRew,,,,,,0,6,0,6,0,1,,,,,,,,,,,,,,,,,
293503,2022-10-03_14h28.17.514,vts_reward_expectancy,2022.2.4,MacIntel,59.84082341,Chrome,1440,900,,,,,0,630,,,,,,,,,,,,,,,,,D,139,hexagon,1,0,,,,,,,,,,,,,,,,repeat,letter,lettRpt,d,0.7172,noRew,,,,,,0,7,0,7,0,1,,,,,,,,,,,,,,,,,
293503,2022-10-03_14h28.17.514,vts_reward_expectancy,2022.2.4,MacIntel,59.84082341,Chrome,1440,900,,,,,0,630,,,,,,,,,,,,,,,,,W,167,triangle,1,0,,,,,,,,,,,,,,,,switch,number,numSwt,k,1.2384,noRew,,,,,,0,8,0,8,0,1,,,,,,,,,,,,,,,,,
293503,2022-10-03_14h28.17.514,vts_reward_expectancy,2022.2.4,MacIntel,59.84082341,Chrome,1440,900,,,,,0,630,,,,,,,,,,,,,,,,,F,132,hexagon,1,0,,,,,,,,,,,,,,,,repeat,number,numRpt,j,1.5212,noRew,,,,,,0,9,0,9,0,1,,,,,,,,,,,,,,,,,
293503,2022-10-03_14h28.17.514,vts_reward_expectancy,2022.2.4,MacIntel,59.84082341,Chrome,1440,900,,,,,0,630,,,,,,,,,,,,,,,,,S,139,hexagon,1,0,,,,,,,,,,,,,,,,repeat,number,numRpt,j,1.835,noRew,,,,,,0,10,0,10,0,1,,,,,,,,,,,,,,,,,
293503,2022-10-03_14h28.17.514,vts_reward_expectancy,2022.2.4,MacIntel,59.84082341,Chrome,1440,900,,,,,0,630,,,,,,,,,,,,,,,,,H,160,star,1,0,,,,,,,,,,,,,,,,switch,letter,lettSwt,d,0.9323,noRew,,,,,,0,11,0,11,0,1,,,,,,,,,,,,,,,,,
293503,2022-10-03_14h28.17.514,vts_reward_expectancy,2022.2.4,MacIntel,59.84082341,Chrome,1440,900,,,,,0,630,,,,,,,,,,,,,,,,,D,174,circle,1,0,,,,,,,,,,,,,,,,repeat,letter,lettRpt,d,0.803,noRew,,,,,,0,12,0,12,0,1,,,,,,,,,,,,,,,,,
293503,2022-10-03_14h28.17.514,vts_reward_expectancy,2022.2.4,MacIntel,59.84082341,Chrome,1440,900,,,,,0,630,,,,,,,,,,,,,,,,,W,160,triangle,1,0,,,,,,,,,,,,,,,,switch,number,numSwt,k,0.9663,noRew,,,,,,0,13,0,13,0,1,,,,,,,,,,,,,,,,,
293503,2022-10-03_14h28.17.514,vts_reward_expectancy,2022.2.4,MacIntel,59.84082341,Chrome,1440,900,,,,,0,630,,,,,,,,,,,,,,,,,H,181,star,1,0,,,,,,,,,,,,,,,,switch,letter,lettSwt,d,1.3669,noRew,,,,,,0,14,0,14,0,1,,,,,,,,,,,,,,,,,
293503,2022-10-03_14h28.17.514,vts_reward_expectancy,2022.2.4,MacIntel,59.84082341,Chrome,1440,900,,,,,0,630,,,,,,,,,,,,,,,,,S,146,triangle,1,0,,,,,,,,,,,,,,,,switch,number,numSwt,j,1.0168,noRew,,,,,,0,15,0,15,0,1,,,,,,,,,,,,,,,,,
293503,2022-10-03_14h28.17.514,vts_reward_expectancy,2022.2.4,MacIntel,59.84082341,Chrome,1440,900,,,,,0,630,,,,,,,,,,,,,,,,,W,181,hexagon,1,0,,,,,,,,,,,,,,,,repeat,number,numRpt,k,2.1013,noRew,,,,,,0,16,0,16,0,1,,,,,,,,,,,,,,,,,
293503,2022-10-03_14h28.17.514,vts_reward_expectancy,2022.2.4,MacIntel,59.84082341,Chrome,1440,900,,,,,0,630,,,,,,,,,,,,,,,,,H,160,circle,1,0,,,,,,,,,,,,,,,,switch,letter,lettSwt,d,1.0331,noRew,,,,,,0,17,0,17,0,1,,,,,,,,,,,,,,,,,
293503,2022-10-03_14h28.17.514,vts_reward_expectancy,2022.2.4,MacIntel,59.84082341,Chrome,1440,900,,,,,0,630,,,,,,,,,,,,,,,,,B,167,circle,1,0,,,,,,,,,,,,,,,,switch,number,numSwt,k,1.6393,noRew,,,,,,0,18,0,18,0,1,,,,,,,,,,,,,,,,,
293503,2022-10-03_14h28.17.514,vts_reward_expectancy,2022.2.4,MacIntel,59.84082341,Chrome,1440,900,,,,,0,630,,,,,,,,,,,,,,,,,F,125,star,1,0,,,,,,,,,,,,,,,,repeat,number,numRpt,j,1.8534,noRew,,,,,,0,19,0,19,0,1,,,,,,,,,,,,,,,,,
293503,2022-10-03_14h28.17.514,vts_reward_expectancy,2022.2.4,MacIntel,59.84082341,Chrome,1440,900,,,,,0,630,,,,,,,,,,,,,,,,,Y,132,triangle,1,0,,,,,,,,,,,,,,,,switch,letter,lettSwt,f,0.8675,noRew,,,,,,0,20,0,20,0,1,,,,,,,,,,,,,,,,,
293503,2022-10-03_14h28.17.514,vts_reward_expectancy,2022.2.4,MacIntel,59.84082341,Chrome,1440,900,,,,,0,630,,,,,,,,,,,,,,,,,D,125,circle,1,0,,,,,,,,,,,,,,,,repeat,letter,lettRpt,d,1.6344,noRew,,,,,,0,21,0,21,0,1,,,,,,,,,,,,,,,,,
293503,2022-10-03_14h28.17.514,vts_reward_expectancy,2022.2.4,MacIntel,59.84082341,Chrome,1440,900,,,,,0,630,,,,,,,,,,,,,,,,,B,146,triangle,1,0,,,,,,,,,,,,,,,,repeat,letter,lettRpt,d,0.6987,noRew,,,,,,0,22,0,22,0,1,,,,,,,,,,,,,,,,,
293503,2022-10-03_14h28.17.514,vts_reward_expectancy,2022.2.4,MacIntel,59.84082341,Chrome,1440,900,,,,,0,630,,,,,,,,,,,,,,,,,U,181,circle,1,0,,,,,,,,,,,,,,,,switch,number,numSwt,k,0.684,noRew,,,,,,0,23,0,23,0,1,,,,,,,,,,,,,,,,,
293503,2022-10-03_14h28.17.514,vts_reward_expectancy,2022.2.4,MacIntel,59.84082341,Chrome,1440,900,,,,,0,630,,,,,,,,,,,,,,,,,B,174,triangle,1,0,,,,,,,,,,,,,,,,repeat,number,numRpt,k,1.7237,noRew,,,,,,0,24,0,24,0,1,,,,,,,,,,,,,,,,,
293503,2022-10-03_14h28.17.514,vts_reward_expectancy,2022.2.4,MacIntel,59.84082341,Chrome,1440,900,,,,,0,630,,,,,,,,,,,,,,,,,W,139,circle,1,0,,,,,,,,,,,,,,,,switch,letter,lettSwt,f,1.285,noRew,,,,,,0,25,0,25,0,1,,,,,,,,,,,,,,,,,
293503,2022-10-03_14h28.17.514,vts_reward_expectancy,2022.2.4,MacIntel,59.84082341,Chrome,1440,900,,,,,0,630,,,,,,,,,,,,,,,,,F,132,circle,1,0,,,,,,,,,,,,,,,,repeat,letter,lettRpt,d,1.1988,noRew,,,,,,0,26,0,26,0,1,,,,,,,,,,,,,,,,,
293503,2022-10-03_14h28.17.514,vts_reward_expectancy,2022.2.4,MacIntel,59.84082341,Chrome,1440,900,,,,,0,630,,,,,,,,,,,,,,,,,U,160,star,-1,0,,,,,,,,,,,,,,,,switch,no_choice,NA,,,noRew,,,,,,0,27,0,27,0,1,,,,,,,,,,,,,,,,,
293503,2022-10-03_14h28.17.514,vts_reward_expectancy,2022.2.4,MacIntel,59.84082341,Chrome,1440,900,,,,,0,630,,,,,,,,,,,,,,,,,Y,132,hexagon,1,0,,,,,,,,,,,,,,,,switch,number,numSwt,j,0.6676,noRew,,,,,,0,28,0,28,0,1,,,,,,,,,,,,,,,,,
293503,2022-10-03_14h28.17.514,vts_reward_expectancy,2022.2.4,MacIntel,59.84082341,Chrome,1440,900,,,,,0,630,,,,,,,,,,,,,,,,,S,139,star,1,0,,,,,,,,,,,,,,,,switch,letter,lettSwt,f,2.0191,noRew,,,,,,0,29,0,29,0,1,,,,,,,,,,,,,,,,,
293503,2022-10-03_14h28.17.514,vts_reward_expectancy,2022.2.4,MacIntel,59.84082341,Chrome,1440,900,,,,,0,630,,,,,,,,,,,,,,,,,W,174,hexagon,1,0,,,,,,,,,,,,,,,,switch,number,numSwt,k,0.9694,noRew,,,,,,0,30,0,30,0,1,,,,,,,,,,,,,,,,,
293503,2022-10-03_14h28.17.514,vts_reward_expectancy,2022.2.4,MacIntel,59.84082341,Chrome,1440,900,,,,,0,630,,,,,,,,,,,,,,,,,H,146,circle,1,0,,,,,,,,,,,,,,,,switch,letter,lettSwt,d,1.0215,noRew,,,,,,0,31,0,31,0,1,,,,,,,,,,,,,,,,,
293503,2022-10-03_14h28.17.514,vts_reward_expectancy,2022.2.4,MacIntel,59.84082341,Chrome,1440,900,,,,,0,630,,,,,,,,,,,,,,,,,D,125,triangle,1,0,,,,,,,,,,,,,,,,repeat,letter,lettRpt,d,0.6152,noRew,,,,,,0,32,0,32,0,1,,,,,,,,,,,,,,,,,
293503,2022-10-03_14h28.17.514,vts_reward_expectancy,2022.2.4,MacIntel,59.84082341,Chrome,1440,900,,,,,0,630,,,,,,,,,,,,,,,,,Y,167,hexagon,1,0,,,,,,,,,,,,,,,,switch,number,numSwt,k,0.7674,noRew,,,,,,0,33,0,33,0,1,,,,,,,,,,,,,,,,,
293503,2022-10-03_14h28.17.514,vts_reward_expectancy,2022.2.4,MacIntel,59.84082341,Chrome,1440,900,,,,,0,630,,,,,,,,,,,,,,,,,B,146,star,1,0,,,,,,,,,,,,,,,,switch,letter,lettSwt,d,0.8145,noRew,,,,,,0,34,0,34,0,1,,,,,,,,,,,,,,,,,
293503,2022-10-03_14h28.17.514,vts_reward_expectancy,2022.2.4,MacIntel,59.84082341,Chrome,1440,900,,,,,0,630,,,,,,,,,,,,,,,,,F,132,triangle,1,0,,,,,,,,,,,,,,,,repeat,letter,lettRpt,d,0.8663,noRew,,,,,,0,35,0,35,0,1,,,,,,,,,,,,,,,,,
293503,2022-10-03_14h28.17.514,vts_reward_expectancy,2022.2.4,MacIntel,59.84082341,Chrome,1440,900,,,,,0,630,,,,,,,,,,,,,,,,,U,146,circle,1,0,,,,,,,,,,,,,,,,switch,number,numSwt,j,1.5171,noRew,,,,,,0,36,0,36,0,1,,,,,,,,,,,,,,,,,
293503,2022-10-03_14h28.17.514,vts_reward_expectancy,2022.2.4,MacIntel,59.84082341,Chrome,1440,900,,,,,0,630,,,,,,,,,,,,,,,,,F,174,hexagon,0,0,,,,,,,,,,,,,,,,repeat,number,NA,j,0.582,noRew,,,,,,0,37,0,37,0,1,,,,,,,,,,,,,,,,,
293503,2022-10-03_14h28.17.514,vts_reward_expectancy,2022.2.4,MacIntel,59.84082341,Chrome,1440,900,,,,,0,630,,,,,,,,,,,,,,,,,W,160,circle,1,1,,,,,,,,,,,,,,,,repeat,number,numRpt,k,1.8493,noRew,,,,,,0,38,0,38,0,1,,,,,,,,,,,,,,,,,
293503,2022-10-03_14h28.17.514,vts_reward_expectancy,2022.2.4,MacIntel,59.84082341,Chrome,1440,900,,,,,0,630,,,,,,,,,,,,,,,,,B,125,star,1,0,,,,,,,,,,,,,,,,switch,letter,lettSwt,d,0.8342,noRew,,,,,,0,39,0,39,0,1,,,,,,,,,,,,,,,,,
293503,2022-10-03_14h28.17.514,vts_reward_expectancy,2022.2.4,MacIntel,59.84082341,Chrome,1440,900,,,,,0,630,,,,,,,,,,,,,,,,,Y,132,hexagon,1,0,,,,,,,,,,,,,,,,repeat,letter,lettRpt,f,1.3048,noRew,,,,,,0,40,0,40,0,1,,,,,,,,,,,,,,,,,
293503,2022-10-03_14h28.17.514,vts_reward_expectancy,2022.2.4,MacIntel,59.84082341,Chrome,1440,900,,,,,0,630,,,,,,,,,,,,,,,,,F,146,triangle,1,0,,,,,,,,,,,,,,,,switch,number,numSwt,j,0.9366,noRew,,,,,,0,41,0,41,0,1,,,,,,,,,,,,,,,,,
293503,2022-10-03_14h28.17.514,vts_reward_expectancy,2022.2.4,MacIntel,59.84082341,Chrome,1440,900,,,,,0,630,,,,,,,,,,,,,,,,,D,174,star,1,0,,,,,,,,,,,,,,,,switch,letter,lettSwt,d,1.1018,noRew,,,,,,0,42,0,42,0,1,,,,,,,,,,,,,,,,,
293503,2022-10-03_14h28.17.514,vts_reward_expectancy,2022.2.4,MacIntel,59.84082341,Chrome,1440,900,,,,,0,630,,,,,,,,,,,,,,,,,S,160,circle,1,0,,,,,,,,,,,,,,,,switch,number,numSwt,k,0.5326,noRew,,,,,,0,43,0,43,0,1,,,,,,,,,,,,,,,,,
293503,2022-10-03_14h28.17.514,vts_reward_expectancy,2022.2.4,MacIntel,59.84082341,Chrome,1440,900,,,,,0,630,,,,,,,,,,,,,,,,,S,132,circle,1,0,,,,,,,,,,,,,,,,repeat,number,numRpt,j,1.0258,noRew,,,,,,0,44,0,44,0,1,,,,,,,,,,,,,,,,,
293503,2022-10-03_14h28.17.514,vts_reward_expectancy,2022.2.4,MacIntel,59.84082341,Chrome,1440,900,,,,,0,630,,,,,,,,,,,,,,,,,F,125,triangle,1,0,,,,,,,,,,,,,,,,switch,letter,lettSwt,d,0.9024,noRew,,,,,,0,45,0,45,0,1,,,,,,,,,,,,,,,,,
293503,2022-10-03_14h28.17.514,vts_reward_expectancy,2022.2.4,MacIntel,59.84082341,Chrome,1440,900,,,,,0,630,,,,,,,,,,,,,,,,,U,167,triangle,1,0,,,,,,,,,,,,,,,,repeat,letter,lettRpt,f,1.2488,noRew,,,,,,0,46,0,46,0,1,,,,,,,,,,,,,,,,,
293503,2022-10-03_14h28.17.514,vts_reward_expectancy,2022.2.4,MacIntel,59.84082341,Chrome,1440,900,,,,,0,630,,,,,,,,,,,,,,,,,H,139,hexagon,1,0,,,,,,,,,,,,,,,,switch,number,numSwt,j,0.7312,noRew,,,,,,0,47,0,47,0,1,,,,,,,,,,,,,,,,,
293503,2022-10-03_14h28.17.514,vts_reward_expectancy,2022.2.4,MacIntel,59.84082341,Chrome,1440,900,,,,,0,630,,,,,,,,,,,,,,,,,F,146,hexagon,1,0,,,,,,,,,,,,,,,,switch,letter,lettSwt,d,0.9508,noRew,,,,,,0,48,0,48,0,1,,,,,,,,,,,,,,,,,
293503,2022-10-03_14h28.17.514,vts_reward_expectancy,2022.2.4,MacIntel,59.84082341,Chrome,1440,900,,,,,0,630,,,,,,,,,,,,,,,,,B,167,circle,1,0,,,,,,,,,,,,,,,,repeat,letter,lettRpt,d,1.4518,noRew,,,,,,0,49,0,49,0,1,,,,,,,,,,,,,,,,,
293503,2022-10-03_14h28.17.514,vts_reward_expectancy,2022.2.4,MacIntel,59.84082341,Chrome,1440,900,,,,,0,630,,,,,,,,,,,,,,,,,S,125,star,1,0,,,,,,,,,,,,,,,,switch,number,numSwt,j,1.0671,noRew,,,,,,0,50,0,50,0,1,,,,,,,,,,,,,,,,,
293503,2022-10-03_14h28.17.514,vts_reward_expectancy,2022.2.4,MacIntel,59.84082341,Chrome,1440,900,,,,,0,630,,,,,,,,,,,,,,,,,W,139,circle,0,0,,,,,,,,,,,,,,,,repeat,number,NA,k,0.9183,noRew,,,,,,0,51,0,51,0,1,,,,,,,,,,,,,,,,,
293503,2022-10-03_14h28.17.514,vts_reward_expectancy,2022.2.4,MacIntel,59.84082341,Chrome,1440,900,,,,,0,630,,,,,,,,,,,,,,,,,D,181,hexagon,1,1,,,,,,,,,,,,,,,,repeat,number,numRpt,k,1.7412,noRew,,,,,,0,52,0,52,0,1,,,,,,,,,,,,,,,,,
293503,2022-10-03_14h28.17.514,vts_reward_expectancy,2022.2.4,MacIntel,59.84082341,Chrome,1440,900,,,,,0,630,,,,,,,,,,,,,,,,,F,132,star,1,0,,,,,,,,,,,,,,,,switch,letter,lettSwt,d,1.0822,noRew,,,,,,0,53,0,53,0,1,,,,,,,,,,,,,,,,,
293503,2022-10-03_14h28.17.514,vts_reward_expectancy,2022.2.4,MacIntel,59.84082341,Chrome,1440,900,,,,,0,630,,,,,,,,,,,,,,,,,H,174,star,1,0,,,,,,,,,,,,,,,,repeat,letter,lettRpt,d,0.653,noRew,,,,,,0,54,0,54,0,1,,,,,,,,,,,,,,,,,
293503,2022-10-03_14h28.17.514,vts_reward_expectancy,2022.2.4,MacIntel,59.84082341,Chrome,1440,900,,,,,0,630,,,,,,,,,,,,,,,,,U,139,hexagon,1,0,,,,,,,,,,,,,,,,switch,number,numSwt,j,1.0363,noRew,,,,,,0,55,0,55,0,1,,,,,,,,,,,,,,,,,
293503,2022-10-03_14h28.17.514,vts_reward_expectancy,2022.2.4,MacIntel,59.84082341,Chrome,1440,900,,,,,0,630,,,,,,,,,,,,,,,,,Y,146,star,1,0,,,,,,,,,,,,,,,,repeat,number,numRpt,j,1.1149,noRew,,,,,,0,56,0,56,0,1,,,,,,,,,,,,,,,,,
293503,2022-10-03_14h28.17.514,vts_reward_expectancy,2022.2.4,MacIntel,59.84082341,Chrome,1440,900,,,,,0,630,,,,,,,,,,,,,,,,,H,181,hexagon,1,0,,,,,,,,,,,,,,,,switch,letter,lettSwt,d,1.6873,noRew,,,,,,0,57,0,57,0,1,,,,,,,,,,,,,,,,,
293503,2022-10-03_14h28.17.514,vts_reward_expectancy,2022.2.4,MacIntel,59.84082341,Chrome,1440,900,,,,,0,630,,,,,,,,,,,,,,,,,D,125,triangle,1,0,,,,,,,,,,,,,,,,switch,number,numSwt,j,0.6222,noRew,,,,,,0,58,0,58,0,1,,,,,,,,,,,,,,,,,
293503,2022-10-03_14h28.17.514,vts_reward_expectancy,2022.2.4,MacIntel,59.84082341,Chrome,1440,900,,,,,0,630,,,,,,,,,,,,,,,,,F,160,hexagon,1,0,,,,,,,,,,,,,,,,switch,letter,lettSwt,d,1.0662,noRew,,,,,,0,59,0,59,0,1,,,,,,,,,,,,,,,,,
293503,2022-10-03_14h28.17.514,vts_reward_expectancy,2022.2.4,MacIntel,59.84082341,Chrome,1440,900,,,,,0,630,,,,,,,,,,,,,,,,,Y,181,circle,1,0,,,,,,,,,,,,,,,,repeat,letter,lettRpt,f,1.6694,noRew,,,,,,0,60,0,60,0,1,,,,,,,,,,,,,,,,,
293503,2022-10-03_14h28.17.514,vts_reward_expectancy,2022.2.4,MacIntel,59.84082341,Chrome,1440,900,,,,,0,630,,,,,,,,,,,,,,,,,H,139,hexagon,1,0,,,,,,,,,,,,,,,,repeat,letter,lettRpt,d,2.0009,noRew,,,,,,0,61,0,61,0,1,,,,,,,,,,,,,,,,,
293503,2022-10-03_14h28.17.514,vts_reward_expectancy,2022.2.4,MacIntel,59.84082341,Chrome,1440,900,,,,,0,630,,,,,,,,,,,,,,,,,W,125,circle,1,0,,,,,,,,,,,,,,,,repeat,letter,lettRpt,f,1.0317,noRew,,,,,,0,62,0,62,0,1,,,,,,,,,,,,,,,,,
293503,2022-10-03_14h28.17.514,vts_reward_expectancy,2022.2.4,MacIntel,59.84082341,Chrome,1440,900,,,,,0,630,,,,,,,,,,,,,,,,,D,146,triangle,1,0,,,,,,,,,,,,,,,,switch,number,numSwt,j,1.2837,noRew,,,,,,0,63,0,63,0,1,,,,,,,,,,,,,,,,,
293503,2022-10-03_14h28.17.514,vts_reward_expectancy,2022.2.4,MacIntel,59.84082341,Chrome,1440,900,,,,,,,,,,,,,,,,,,,,,,,,,,,,,,,,,,,,,,,,,,,,,,,,,,,,,,,,,,,,,,,,,,,,,,,,,,,,
293503,2022-10-03_14h28.17.514,vts_reward_expectancy,2022.2.4,MacIntel,59.84082341,Chrome,1440,900,,,,,0,630,,,,,,,,,,,,,,,,,W,146,hexagon,1,0,,,,,,,,,,,,,,,,switch,letter,lettSwt,f,2.4543,Hi,,,,,,0,,,,,,space,5.5334,low,0,0,0,0,1,,,,,,,,,
293503,2022-10-03_14h28.17.514,vts_reward_expectancy,2022.2.4,MacIntel,59.84082341,Chrome,1440,900,,,,,10,640,,,,,,,,,,,,,,,,,S,125,triangle,1,0,,,,,,,,,,,,,,,,switch,number,numSwt,j,0.7835,Lo,,,,,,0,,,,,,,,low,1,0,1,0,1,,,,,,,,,
293503,2022-10-03_14h28.17.514,vts_reward_expectancy,2022.2.4,MacIntel,59.84082341,Chrome,1440,900,,,,,0,640,,,,,,,,,,,,,,,,,F,139,hexagon,1,0,,,,,,,,,,,,,,,,switch,letter,lettSwt,d,1.0996,Hi,,,,,,0,,,,,,,,low,2,0,2,0,1,,,,,,,,,
293503,2022-10-03_14h28.17.514,vts_reward_expectancy,2022.2.4,MacIntel,59.84082341,Chrome,1440,900,,,,,10,650,,,,,,,,,,,,,,,,,U,160,triangle,1,0,,,,,,,,,,,,,,,,switch,number,numSwt,k,0.6009,Lo,,,,,,0,,,,,,,,low,3,0,3,0,1,,,,,,,,,
293503,2022-10-03_14h28.17.514,vts_reward_expectancy,2022.2.4,MacIntel,59.84082341,Chrome,1440,900,,,,,1,651,,,,,,,,,,,,,,,,,Y,167,triangle,1,0,,,,,,,,,,,,,,,,switch,letter,lettSwt,f,1.0671,Lo,,,,,,0,,,,,,,,low,4,0,4,0,1,,,,,,,,,
293503,2022-10-03_14h28.17.514,vts_reward_expectancy,2022.2.4,MacIntel,59.84082341,Chrome,1440,900,,,,,0,651,,,,,,,,,,,,,,,,,D,132,hexagon,1,0,,,,,,,,,,,,,,,,repeat,letter,lettRpt,d,2.2579,Hi,,,,,,0,,,,,,,,low,5,0,5,0,1,,,,,,,,,
293503,2022-10-03_14h28.17.514,vts_reward_expectancy,2022.2.4,MacIntel,59.84082341,Chrome,1440,900,,,,,0,651,,,,,,,,,,,,,,,,,B,181,hexagon,1,0,,,,,,,,,,,,,,,,switch,number,numSwt,k,1.0371,Hi,,,,,,0,,,,,,,,low,6,0,6,0,1,,,,,,,,,
293503,2022-10-03_14h28.17.514,vts_reward_expectancy,2022.2.4,MacIntel,59.84082341,Chrome,1440,900,,,,,1,652,,,,,,,,,,,,,,,,,H,174,triangle,1,0,,,,,,,,,,,,,,,,repeat,number,numRpt,k,1.0579,Lo,,,,,,0,,,,,,,,low,7,0,7,0,1,,,,,,,,,
293503,2022-10-03_14h28.17.514,vts_reward_expectancy,2022.2.4,MacIntel,59.84082341,Chrome,1440,900,,,,,0,652,,,,,,,,,,,,,,,,,W,146,hexagon,1,0,,,,,,,,,,,,,,,,switch,letter,lettSwt,f,1.0902,Hi,,,,,,0,,,,,,,,low,8,0,8,0,1,,,,,,,,,
293503,2022-10-03_14h28.17.514,vts_reward_expectancy,2022.2.4,MacIntel,59.84082341,Chrome,1440,900,,,,,1,653,,,,,,,,,,,,,,,,,S,125,triangle,1,0,,,,,,,,,,,,,,,,repeat,letter,lettRpt,f,0.6322,Lo,,,,,,0,,,,,,,,low,9,0,9,0,1,,,,,,,,,
293503,2022-10-03_14h28.17.514,vts_reward_expectancy,2022.2.4,MacIntel,59.84082341,Chrome,1440,900,,,,,0,653,,,,,,,,,,,,,,,,,F,139,hexagon,1,0,,,,,,,,,,,,,,,,repeat,letter,lettRpt,d,0.9325,Hi,,,,,,0,,,,,,,,low,10,0,10,0,1,,,,,,,,,
293503,2022-10-03_14h28.17.514,vts_reward_expectancy,2022.2.4,MacIntel,59.84082341,Chrome,1440,900,,,,,1,654,,,,,,,,,,,,,,,,,U,160,triangle,1,0,,,,,,,,,,,,,,,,switch,number,numSwt,k,0.5304,Lo,,,,,,0,,,,,,,,low,11,0,11,0,1,,,,,,,,,
293503,2022-10-03_14h28.17.514,vts_reward_expectancy,2022.2.4,MacIntel,59.84082341,Chrome,1440,900,,,,,1,655,,,,,,,,,,,,,,,,,Y,167,triangle,1,0,,,,,,,,,,,,,,,,switch,letter,lettSwt,f,0.6689,Lo,,,,,,0,,,,,,,,low,12,0,12,0,1,,,,,,,,,
293503,2022-10-03_14h28.17.514,vts_reward_expectancy,2022.2.4,MacIntel,59.84082341,Chrome,1440,900,,,,,10,665,,,,,,,,,,,,,,,,,D,132,hexagon,1,0,,,,,,,,,,,,,,,,switch,number,numSwt,j,0.5829,Hi,,,,,,0,,,,,,,,low,13,0,13,0,1,,,,,,,,,
293503,2022-10-03_14h28.17.514,vts_reward_expectancy,2022.2.4,MacIntel,59.84082341,Chrome,1440,900,,,,,10,675,,,,,,,,,,,,,,,,,B,181,triangle,1,0,,,,,,,,,,,,,,,,repeat,number,numRpt,k,0.5655,Lo,,,,,,0,,,,,,,,low,14,0,14,0,1,,,,,,,,,
293503,2022-10-03_14h28.17.514,vts_reward_expectancy,2022.2.4,MacIntel,59.84082341,Chrome,1440,900,,,,,10,685,,,,,,,,,,,,,,,,,H,174,hexagon,1,0,,,,,,,,,,,,,,,,switch,letter,lettSwt,d,0.4476,Hi,,,,,,0,,,,,,,,low,15,0,15,0,1,,,,,,,,,
293503,2022-10-03_14h28.17.514,vts_reward_expectancy,2022.2.4,MacIntel,59.84082341,Chrome,1440,900,,,,,0,685,,,,,,,,,,,,,,,,,U,174,hexagon,0,0,,,,,,,,,,,,,,,,repeat,letter,NA,d,0.5395,Hi,,,,,,0,,,,,,,,low,16,0,16,0,1,,,,,,,,,
293503,2022-10-03_14h28.17.514,vts_reward_expectancy,2022.2.4,MacIntel,59.84082341,Chrome,1440,900,,,,,1,686,,,,,,,,,,,,,,,,,W,167,triangle,1,1,,,,,,,,,,,,,,,,repeat,letter,lettRpt,f,0.8858,Lo,,,,,,0,,,,,,,,low,17,0,17,0,1,,,,,,,,,
293503,2022-10-03_14h28.17.514,vts_reward_expectancy,2022.2.4,MacIntel,59.84082341,Chrome,1440,900,,,,,1,687,,,,,,,,,,,,,,,,,B,160,hexagon,1,0,,,,,,,,,,,,,,,,repeat,letter,lettRpt,d,0.749,Hi,,,,,,0,,,,,,,,low,18,0,18,0,1,,,,,,,,,
293503,2022-10-03_14h28.17.514,vts_reward_expectancy,2022.2.4,MacIntel,59.84082341,Chrome,1440,900,,,,,10,697,,,,,,,,,,,,,,,,,F,146,triangle,1,0,,,,,,,,,,,,,,,,switch,number,numSwt,j,0.717,Lo,,,,,,0,,,,,,,,low,19,0,19,0,1,,,,,,,,,
293503,2022-10-03_14h28.17.514,vts_reward_expectancy,2022.2.4,MacIntel,59.84082341,Chrome,1440,900,,,,,10,707,,,,,,,,,,,,,,,,,H,132,hexagon,1,0,,,,,,,,,,,,,,,,switch,letter,lettSwt,d,0.9052,Hi,,,,,,0,,,,,,,,low,20,0,20,0,1,,,,,,,,,
293503,2022-10-03_14h28.17.514,vts_reward_expectancy,2022.2.4,MacIntel,59.84082341,Chrome,1440,900,,,,,10,717,,,,,,,,,,,,,,,,,Y,125,triangle,1,0,,,,,,,,,,,,,,,,repeat,letter,lettRpt,f,0.7827,Lo,,,,,,0,,,,,,,,low,21,0,21,0,1,,,,,,,,,
293503,2022-10-03_14h28.17.514,vts_reward_expectancy,2022.2.4,MacIntel,59.84082341,Chrome,1440,900,,,,,1,718,,,,,,,,,,,,,,,,,S,139,hexagon,1,0,,,,,,,,,,,,,,,,switch,number,numSwt,j,0.6229,Hi,,,,,,0,,,,,,,,low,22,0,22,0,1,,,,,,,,,
293503,2022-10-03_14h28.17.514,vts_reward_expectancy,2022.2.4,MacIntel,59.84082341,Chrome,1440,900,,,,,1,719,,,,,,,,,,,,,,,,,D,181,triangle,1,0,,,,,,,,,,,,,,,,repeat,number,numRpt,k,0.8985,Lo,,,,,,0,,,,,,,,low,23,0,23,0,1,,,,,,,,,
293503,2022-10-03_14h28.17.514,vts_reward_expectancy,2022.2.4,MacIntel,59.84082341,Chrome,1440,900,,,,,10,729,,,,,,,,,,,,,,,,,D,125,hexagon,1,0,,,,,,,,,,,,,,,,switch,letter,lettSwt,d,0.9191,Hi,,,,,,0,,,,,,,,low,24,0,24,0,1,,,,,,,,,
293503,2022-10-03_14h28.17.514,vts_reward_expectancy,2022.2.4,MacIntel,59.84082341,Chrome,1440,900,,,,,1,730,,,,,,,,,,,,,,,,,F,174,triangle,1,0,,,,,,,,,,,,,,,,switch,number,numSwt,k,0.6192,Lo,,,,,,0,,,,,,,,low,25,0,25,0,1,,,,,,,,,
293503,2022-10-03_14h28.17.514,vts_reward_expectancy,2022.2.4,MacIntel,59.84082341,Chrome,1440,900,,,,,1,731,,,,,,,,,,,,,,,,,U,146,hexagon,1,0,,,,,,,,,,,,,,,,repeat,number,numRpt,j,0.7021,Hi,,,,,,0,,,,,,,,low,26,0,26,0,1,,,,,,,,,
293503,2022-10-03_14h28.17.514,vts_reward_expectancy,2022.2.4,MacIntel,59.84082341,Chrome,1440,900,,,,,10,741,,,,,,,,,,,,,,,,,B,139,triangle,1,0,,,,,,,,,,,,,,,,repeat,number,numRpt,j,0.7153,Lo,,,,,,0,,,,,,,,low,27,0,27,0,1,,,,,,,,,
293503,2022-10-03_14h28.17.514,vts_reward_expectancy,2022.2.4,MacIntel,59.84082341,Chrome,1440,900,,,,,0,741,,,,,,,,,,,,,,,,,S,167,hexagon,0,0,,,,,,,,,,,,,,,,switch,letter,NA,d,0.6022,Lo,,,,,,0,,,,,,,,low,28,0,28,0,1,,,,,,,,,
293503,2022-10-03_14h28.17.514,vts_reward_expectancy,2022.2.4,MacIntel,59.84082341,Chrome,1440,900,,,,,0,741,,,,,,,,,,,,,,,,,H,160,triangle,0,1,,,,,,,,,,,,,,,,repeat,letter,NA,f,1.7569,Lo,,,,,,0,,,,,,,,low,29,0,29,0,1,,,,,,,,,
293503,2022-10-03_14h28.17.514,vts_reward_expectancy,2022.2.4,MacIntel,59.84082341,Chrome,1440,900,,,,,1,742,,,,,,,,,,,,,,,,,Y,132,triangle,1,1,,,,,,,,,,,,,,,,repeat,letter,lettRpt,f,1.0986,Lo,,,,,,0,,,,,,,,low,30,0,30,0,1,,,,,,,,,
293503,2022-10-03_14h28.17.514,vts_reward_expectancy,2022.2.4,MacIntel,59.84082341,Chrome,1440,900,,,,,10,752,,,,,,,,,,,,,,,,,W,181,hexagon,1,0,,,,,,,,,,,,,,,,repeat,letter,lettRpt,f,0.6999,Hi,,,,,,0,,,,,,,,low,31,0,31,0,1,,,,,,,,,
293503,2022-10-03_14h28.17.514,vts_reward_expectancy,2022.2.4,MacIntel,59.84082341,Chrome,1440,900,,,,,10,762,,,,,,,,,,,,,,,,,B,146,triangle,1,0,,,,,,,,,,,,,,,,repeat,letter,lettRpt,d,0.6642,Lo,,,,,,1,,,,,,space,1.3586,low,0,0,0,0,1,,,,,,,,,
293503,2022-10-03_14h28.17.514,vts_reward_expectancy,2022.2.4,MacIntel,59.84082341,Chrome,1440,900,,,,,0,762,,,,,,,,,,,,,,,,,Y,174,hexagon,1,0,,,,,,,,,,,,,,,,switch,number,numSwt,k,0.6695,Hi,,,,,,1,,,,,,,,low,1,0,1,0,1,,,,,,,,,
293503,2022-10-03_14h28.17.514,vts_reward_expectancy,2022.2.4,MacIntel,59.84082341,Chrome,1440,900,,,,,1,763,,,,,,,,,,,,,,,,,S,160,triangle,1,0,,,,,,,,,,,,,,,,repeat,number,numRpt,k,0.5483,Lo,,,,,,1,,,,,,,,low,2,0,2,0,1,,,,,,,,,
293503,2022-10-03_14h28.17.514,vts_reward_expectancy,2022.2.4,MacIntel,59.84082341,Chrome,1440,900,,,,,0,763,,,,,,,,,,,,,,,,,U,167,hexagon,0,0,,,,,,,,,,,,,,,,switch,letter,NA,d,0.5152,Lo,,,,,,1,,,,,,,,low,3,0,3,0,1,,,,,,,,,
293503,2022-10-03_14h28.17.514,vts_reward_expectancy,2022.2.4,MacIntel,59.84082341,Chrome,1440,900,,,,,1,764,,,,,,,,,,,,,,,,,F,181,triangle,1,1,,,,,,,,,,,,,,,,switch,number,numSwt,k,0.7008,Lo,,,,,,1,,,,,,,,low,4,0,4,0,1,,,,,,,,,
293503,2022-10-03_14h28.17.514,vts_reward_expectancy,2022.2.4,MacIntel,59.84082341,Chrome,1440,900,,,,,1,765,,,,,,,,,,,,,,,,,W,132,hexagon,1,0,,,,,,,,,,,,,,,,switch,letter,lettSwt,f,0.6878,Hi,,,,,,1,,,,,,,,low,5,0,5,0,1,,,,,,,,,
293503,2022-10-03_14h28.17.514,vts_reward_expectancy,2022.2.4,MacIntel,59.84082341,Chrome,1440,900,,,,,0,765,,,,,,,,,,,,,,,,,H,139,hexagon,1,0,,,,,,,,,,,,,,,,switch,number,numSwt,j,0.8154,Hi,,,,,,1,,,,,,,,low,6,0,6,0,1,,,,,,,,,
293503,2022-10-03_14h28.17.514,vts_reward_expectancy,2022.2.4,MacIntel,59.84082341,Chrome,1440,900,,,,,1,766,,,,,,,,,,,,,,,,,D,125,triangle,1,0,,,,,,,,,,,,,,,,switch,letter,lettSwt,d,0.5318,Lo,,,,,,1,,,,,,,,low,7,0,7,0,1,,,,,,,,,
293503,2022-10-03_14h28.17.514,vts_reward_expectancy,2022.2.4,MacIntel,59.84082341,Chrome,1440,900,,,,,10,776,,,,,,,,,,,,,,,,,B,146,triangle,1,0,,,,,,,,,,,,,,,,switch,number,numSwt,j,0.6526,Lo,,,,,,1,,,,,,,,low,8,0,8,0,1,,,,,,,,,
293503,2022-10-03_14h28.17.514,vts_reward_expectancy,2022.2.4,MacIntel,59.84082341,Chrome,1440,900,,,,,10,786,,,,,,,,,,,,,,,,,Y,174,hexagon,1,0,,,,,,,,,,,,,,,,repeat,number,numRpt,k,0.6464,Hi,,,,,,1,,,,,,,,low,9,0,9,0,1,,,,,,,,,
293503,2022-10-03_14h28.17.514,vts_reward_expectancy,2022.2.4,MacIntel,59.84082341,Chrome,1440,900,,,,,1,787,,,,,,,,,,,,,,,,,S,160,triangle,1,0,,,,,,,,,,,,,,,,switch,letter,lettSwt,f,0.5837,Lo,,,,,,1,,,,,,,,low,10,0,10,0,1,,,,,,,,,
293503,2022-10-03_14h28.17.514,vts_reward_expectancy,2022.2.4,MacIntel,59.84082341,Chrome,1440,900,,,,,0,787,,,,,,,,,,,,,,,,,U,167,hexagon,1,0,,,,,,,,,,,,,,,,switch,number,numSwt,k,0.7183,Hi,,,,,,1,,,,,,,,low,11,0,11,0,1,,,,,,,,,
293503,2022-10-03_14h28.17.514,vts_reward_expectancy,2022.2.4,MacIntel,59.84082341,Chrome,1440,900,,,,,1,788,,,,,,,,,,,,,,,,,F,181,hexagon,1,0,,,,,,,,,,,,,,,,repeat,number,numRpt,k,0.4812,Hi,,,,,,1,,,,,,,,low,12,0,12,0,1,,,,,,,,,
293503,2022-10-03_14h28.17.514,vts_reward_expectancy,2022.2.4,MacIntel,59.84082341,Chrome,1440,900,,,,,1,789,,,,,,,,,,,,,,,,,W,132,triangle,1,0,,,,,,,,,,,,,,,,switch,letter,lettSwt,f,0.6984,Lo,,,,,,1,,,,,,,,low,13,0,13,0,1,,,,,,,,,
293503,2022-10-03_14h28.17.514,vts_reward_expectancy,2022.2.4,MacIntel,59.84082341,Chrome,1440,900,,,,,10,799,,,,,,,,,,,,,,,,,H,139,hexagon,1,0,,,,,,,,,,,,,,,,repeat,letter,lettRpt,d,0.5663,Hi,,,,,,1,,,,,,,,low,14,0,14,0,1,,,,,,,,,
293503,2022-10-03_14h28.17.514,vts_reward_expectancy,2022.2.4,MacIntel,59.84082341,Chrome,1440,900,,,,,10,809,,,,,,,,,,,,,,,,,D,125,triangle,1,0,,,,,,,,,,,,,,,,switch,number,numSwt,j,0.4334,Lo,,,,,,1,,,,,,,,low,15,0,15,0,1,,,,,,,,,
293503,2022-10-03_14h28.17.514,vts_reward_expectancy,2022.2.4,MacIntel,59.84082341,Chrome,1440,900,,,,,10,819,,,,,,,,,,,,,,,,,F,160,hexagon,1,0,,,,,,,,,,,,,,,,switch,letter,lettSwt,d,0.7152,Hi,,,,,,1,,,,,,,,low,16,0,16,0,1,,,,,,,,,
293503,2022-10-03_14h28.17.514,vts_reward_expectancy,2022.2.4,MacIntel,59.84082341,Chrome,1440,900,,,,,0,819,,,,,,,,,,,,,,,,,B,174,triangle,0,0,,,,,,,,,,,,,,,,switch,number,NA,j,0.6666,Hi,,,,,,1,,,,,,,,low,17,0,17,0,1,,,,,,,,,
293503,2022-10-03_14h28.17.514,vts_reward_expectancy,2022.2.4,MacIntel,59.84082341,Chrome,1440,900,,,,,1,820,,,,,,,,,,,,,,,,,U,167,triangle,1,1,,,,,,,,,,,,,,,,repeat,number,numRpt,k,0.731,Lo,,,,,,1,,,,,,,,low,18,0,18,0,1,,,,,,,,,
293503,2022-10-03_14h28.17.514,vts_reward_expectancy,2022.2.4,MacIntel,59.84082341,Chrome,1440,900,,,,,10,830,,,,,,,,,,,,,,,,,H,146,hexagon,1,0,,,,,,,,,,,,,,,,switch,letter,lettSwt,d,0.8848,Hi,,,,,,1,,,,,,,,low,19,0,19,0,1,,,,,,,,,
293503,2022-10-03_14h28.17.514,vts_reward_expectancy,2022.2.4,MacIntel,59.84082341,Chrome,1440,900,,,,,10,840,,,,,,,,,,,,,,,,,W,181,hexagon,1,0,,,,,,,,,,,,,,,,repeat,letter,lettRpt,f,0.6824,Hi,,,,,,1,,,,,,,,low,20,0,20,0,1,,,,,,,,,
293503,2022-10-03_14h28.17.514,vts_reward_expectancy,2022.2.4,MacIntel,59.84082341,Chrome,1440,900,,,,,1,841,,,,,,,,,,,,,,,,,S,132,triangle,1,0,,,,,,,,,,,,,,,,repeat,letter,lettRpt,f,0.8661,Lo,,,,,,1,,,,,,,,low,21,0,21,0,1,,,,,,,,,
293503,2022-10-03_14h28.17.514,vts_reward_expectancy,2022.2.4,MacIntel,59.84082341,Chrome,1440,900,,,,,0,841,,,,,,,,,,,,,,,,,D,125,hexagon,1,0,,,,,,,,,,,,,,,,repeat,letter,lettRpt,d,0.9666,Hi,,,,,,1,,,,,,,,low,22,0,22,0,1,,,,,,,,,
293503,2022-10-03_14h28.17.514,vts_reward_expectancy,2022.2.4,MacIntel,59.84082341,Chrome,1440,900,,,,,10,851,,,,,,,,,,,,,,,,,Y,139,triangle,1,0,,,,,,,,,,,,,,,,switch,number,numSwt,j,0.5664,Lo,,,,,,1,,,,,,,,low,23,0,23,0,1,,,,,,,,,
293503,2022-10-03_14h28.17.514,vts_reward_expectancy,2022.2.4,MacIntel,59.84082341,Chrome,1440,900,,,,,1,852,,,,,,,,,,,,,,,,,U,174,triangle,1,0,,,,,,,,,,,,,,,,repeat,number,numRpt,k,0.5146,Lo,,,,,,1,,,,,,,,low,24,0,24,0,1,,,,,,,,,
293503,2022-10-03_14h28.17.514,vts_reward_expectancy,2022.2.4,MacIntel,59.84082341,Chrome,1440,900,,,,,1,853,,,,,,,,,,,,,,,,,S,132,hexagon,1,0,,,,,,,,,,,,,,,,switch,letter,lettSwt,f,0.7507,Hi,,,,,,1,,,,,,,,low,25,0,25,0,1,,,,,,,,,
293503,2022-10-03_14h28.17.514,vts_reward_expectancy,2022.2.4,MacIntel,59.84082341,Chrome,1440,900,,,,,0,853,,,,,,,,,,,,,,,,,F,146,hexagon,1,0,,,,,,,,,,,,,,,,switch,number,numSwt,j,0.6502,Hi,,,,,,1,,,,,,,,low,26,0,26,0,1,,,,,,,,,
293503,2022-10-03_14h28.17.514,vts_reward_expectancy,2022.2.4,MacIntel,59.84082341,Chrome,1440,900,,,,,10,863,,,,,,,,,,,,,,,,,D,125,triangle,1,0,,,,,,,,,,,,,,,,switch,letter,lettSwt,d,0.2999,Lo,,,,,,1,,,,,,,,low,27,0,27,0,1,,,,,,,,,
293503,2022-10-03_14h28.17.514,vts_reward_expectancy,2022.2.4,MacIntel,59.84082341,Chrome,1440,900,,,,,1,864,,,,,,,,,,,,,,,,,Y,167,triangle,1,0,,,,,,,,,,,,,,,,repeat,letter,lettRpt,f,0.5644,Lo,,,,,,1,,,,,,,,low,28,0,28,0,1,,,,,,,,,
293503,2022-10-03_14h28.17.514,vts_reward_expectancy,2022.2.4,MacIntel,59.84082341,Chrome,1440,900,,,,,0,864,,,,,,,,,,,,,,,,,B,160,hexagon,1,0,,,,,,,,,,,,,,,,switch,number,numSwt,k,1.0013,Hi,,,,,,1,,,,,,,,low,29,0,29,0,1,,,,,,,,,
293503,2022-10-03_14h28.17.514,vts_reward_expectancy,2022.2.4,MacIntel,59.84082341,Chrome,1440,900,,,,,1,865,,,,,,,,,,,,,,,,,H,139,triangle,1,0,,,,,,,,,,,,,,,,repeat,number,numRpt,j,0.5827,Lo,,,,,,1,,,,,,,,low,30,0,30,0,1,,,,,,,,,
293503,2022-10-03_14h28.17.514,vts_reward_expectancy,2022.2.4,MacIntel,59.84082341,Chrome,1440,900,,,,,10,875,,,,,,,,,,,,,,,,,W,181,hexagon,1,0,,,,,,,,,,,,,,,,switch,letter,lettSwt,f,0.7684,Hi,,,,,,1,,,,,,,,low,31,0,31,0,1,,,,,,,,,
293503,2022-10-03_14h28.17.514,vts_reward_expectancy,2022.2.4,MacIntel,59.84082341,Chrome,1440,900,,,,,1,876,,,,,,,,,,,,,,,,,U,167,circle,1,0,,,,,,,,,,,,,,,,switch,number,numSwt,k,0.9651,Lo,,,,,,2,,,,,,space,3.0237,high,0,0,0,0,1,,,,,,,,,
293503,2022-10-03_14h28.17.514,vts_reward_expectancy,2022.2.4,MacIntel,59.84082341,Chrome,1440,900,,,,,0,876,,,,,,,,,,,,,,,,,Y,132,star,1,0,,,,,,,,,,,,,,,,switch,letter,lettSwt,f,0.7665,Hi,,,,,,2,,,,,,,,high,1,0,1,0,1,,,,,,,,,
293503,2022-10-03_14h28.17.514,vts_reward_expectancy,2022.2.4,MacIntel,59.84082341,Chrome,1440,900,,,,,1,877,,,,,,,,,,,,,,,,,H,174,circle,1,0,,,,,,,,,,,,,,,,switch,number,numSwt,k,0.5496,Lo,,,,,,2,,,,,,,,high,2,0,2,0,1,,,,,,,,,
293503,2022-10-03_14h28.17.514,vts_reward_expectancy,2022.2.4,MacIntel,59.84082341,Chrome,1440,900,,,,,10,887,,,,,,,,,,,,,,,,,F,139,star,1,0,,,,,,,,,,,,,,,,switch,letter,lettSwt,d,0.5222,Hi,,,,,,2,,,,,,,,high,3,0,3,0,1,,,,,,,,,
293503,2022-10-03_14h28.17.514,vts_reward_expectancy,2022.2.4,MacIntel,59.84082341,Chrome,1440,900,,,,,0,887,,,,,,,,,,,,,,,,,B,146,star,1,0,,,,,,,,,,,,,,,,repeat,letter,lettRpt,d,0.8704,Hi,,,,,,2,,,,,,,,high,4,0,4,0,1,,,,,,,,,
293503,2022-10-03_14h28.17.514,vts_reward_expectancy,2022.2.4,MacIntel,59.84082341,Chrome,1440,900,,,,,1,888,,,,,,,,,,,,,,,,,S,160,circle,1,0,,,,,,,,,,,,,,,,switch,number,numSwt,k,0.9829,Lo,,,,,,2,,,,,,,,high,5,0,5,0,1,,,,,,,,,
293503,2022-10-03_14h28.17.514,vts_reward_expectancy,2022.2.4,MacIntel,59.84082341,Chrome,1440,900,,,,,10,898,,,,,,,,,,,,,,,,,W,125,star,1,0,,,,,,,,,,,,,,,,switch,letter,lettSwt,f,0.5357,Hi,,,,,,2,,,,,,,,high,6,0,6,0,1,,,,,,,,,
293503,2022-10-03_14h28.17.514,vts_reward_expectancy,2022.2.4,MacIntel,59.84082341,Chrome,1440,900,,,,,1,899,,,,,,,,,,,,,,,,,D,181,circle,1,0,,,,,,,,,,,,,,,,switch,number,numSwt,k,0.5845,Lo,,,,,,2,,,,,,,,high,7,0,7,0,1,,,,,,,,,
293503,2022-10-03_14h28.17.514,vts_reward_expectancy,2022.2.4,MacIntel,59.84082341,Chrome,1440,900,,,,,0,899,,,,,,,,,,,,,,,,,U,167,star,1,0,,,,,,,,,,,,,,,,switch,letter,lettSwt,f,0.9036,Hi,,,,,,2,,,,,,,,high,8,0,8,0,1,,,,,,,,,
293503,2022-10-03_14h28.17.514,vts_reward_expectancy,2022.2.4,MacIntel,59.84082341,Chrome,1440,900,,,,,1,900,,,,,,,,,,,,,,,,,Y,132,circle,1,0,,,,,,,,,,,,,,,,repeat,letter,lettRpt,f,0.6304,Lo,,,,,,2,,,,,,,,high,9,0,9,0,1,,,,,,,,,
293503,2022-10-03_14h28.17.514,vts_reward_expectancy,2022.2.4,MacIntel,59.84082341,Chrome,1440,900,,,,,0,900,,,,,,,,,,,,,,,,,H,174,star,1,0,,,,,,,,,,,,,,,,repeat,letter,lettRpt,d,0.6491,Hi,,,,,,2,,,,,,,,high,10,0,10,0,1,,,,,,,,,
293503,2022-10-03_14h28.17.514,vts_reward_expectancy,2022.2.4,MacIntel,59.84082341,Chrome,1440,900,,,,,1,901,,,,,,,,,,,,,,,,,F,139,circle,1,0,,,,,,,,,,,,,,,,repeat,letter,lettRpt,d,0.7163,Lo,,,,,,2,,,,,,,,high,11,0,11,0,1,,,,,,,,,
293503,2022-10-03_14h28.17.514,vts_reward_expectancy,2022.2.4,MacIntel,59.84082341,Chrome,1440,900,,,,,10,911,,,,,,,,,,,,,,,,,B,146,star,1,0,,,,,,,,,,,,,,,,switch,number,numSwt,j,0.6231,Hi,,,,,,2,,,,,,,,high,12,0,12,0,1,,,,,,,,,
293503,2022-10-03_14h28.17.514,vts_reward_expectancy,2022.2.4,MacIntel,59.84082341,Chrome,1440,900,,,,,10,921,,,,,,,,,,,,,,,,,S,160,circle,1,0,,,,,,,,,,,,,,,,repeat,number,numRpt,k,0.4512,Lo,,,,,,2,,,,,,,,high,13,0,13,0,1,,,,,,,,,
293503,2022-10-03_14h28.17.514,vts_reward_expectancy,2022.2.4,MacIntel,59.84082341,Chrome,1440,900,,,,,0,921,,,,,,,,,,,,,,,,,W,125,star,1,0,,,,,,,,,,,,,,,,switch,letter,lettSwt,f,0.6514,Hi,,,,,,2,,,,,,,,high,14,0,14,0,1,,,,,,,,,
293503,2022-10-03_14h28.17.514,vts_reward_expectancy,2022.2.4,MacIntel,59.84082341,Chrome,1440,900,,,,,1,922,,,,,,,,,,,,,,,,,D,181,circle,1,0,,,,,,,,,,,,,,,,repeat,letter,lettRpt,d,0.4868,Lo,,,,,,2,,,,,,,,high,15,0,15,0,1,,,,,,,,,
293503,2022-10-03_14h28.17.514,vts_reward_expectancy,2022.2.4,MacIntel,59.84082341,Chrome,1440,900,,,,,1,923,,,,,,,,,,,,,,,,,Y,174,circle,1,0,,,,,,,,,,,,,,,,repeat,letter,lettRpt,f,0.5301,Lo,,,,,,2,,,,,,,,high,16,0,16,0,1,,,,,,,,,
293503,2022-10-03_14h28.17.514,vts_reward_expectancy,2022.2.4,MacIntel,59.84082341,Chrome,1440,900,,,,,0,923,,,,,,,,,,,,,,,,,U,167,star,0,0,,,,,,,,,,,,,,,,repeat,letter,NA,d,0.6325,Lo,,,,,,2,,,,,,,,high,17,0,17,0,1,,,,,,,,,
293503,2022-10-03_14h28.17.514,vts_reward_expectancy,2022.2.4,MacIntel,59.84082341,Chrome,1440,900,,,,,1,924,,,,,,,,,,,,,,,,,W,139,circle,1,1,,,,,,,,,,,,,,,,switch,number,numSwt,j,0.6192,Lo,,,,,,2,,,,,,,,high,18,0,18,0,1,,,,,,,,,
293503,2022-10-03_14h28.17.514,vts_reward_expectancy,2022.2.4,MacIntel,59.84082341,Chrome,1440,900,,,,,10,934,,,,,,,,,,,,,,,,,S,125,star,1,0,,,,,,,,,,,,,,,,switch,letter,lettSwt,f,0.5189,Hi,,,,,,2,,,,,,,,high,19,0,19,0,1,,,,,,,,,
293503,2022-10-03_14h28.17.514,vts_reward_expectancy,2022.2.4,MacIntel,59.84082341,Chrome,1440,900,,,,,1,935,,,,,,,,,,,,,,,,,D,146,star,1,0,,,,,,,,,,,,,,,,repeat,letter,lettRpt,d,0.501,Hi,,,,,,2,,,,,,,,high,20,0,20,0,1,,,,,,,,,
293503,2022-10-03_14h28.17.514,vts_reward_expectancy,2022.2.4,MacIntel,59.84082341,Chrome,1440,900,,,,,1,936,,,,,,,,,,,,,,,,,H,181,circle,1,0,,,,,,,,,,,,,,,,switch,number,numSwt,k,0.4326,Lo,,,,,,2,,,,,,,,high,21,0,21,0,1,,,,,,,,,
293503,2022-10-03_14h28.17.514,vts_reward_expectancy,2022.2.4,MacIntel,59.84082341,Chrome,1440,900,,,,,1,937,,,,,,,,,,,,,,,,,F,132,circle,1,0,,,,,,,,,,,,,,,,repeat,number,numRpt,j,0.4987,Lo,,,,,,2,,,,,,,,high,22,0,22,0,1,,,,,,,,,
293503,2022-10-03_14h28.17.514,vts_reward_expectancy,2022.2.4,MacIntel,59.84082341,Chrome,1440,900,,,,,0,937,,,,,,,,,,,,,,,,,B,160,star,1,0,,,,,,,,,,,,,,,,repeat,number,numRpt,k,0.7,Hi,,,,,,2,,,,,,,,high,23,0,23,0,1,,,,,,,,,
293503,2022-10-03_14h28.17.514,vts_reward_expectancy,2022.2.4,MacIntel,59.84082341,Chrome,1440,900,,,,,10,947,,,,,,,,,,,,,,,,,H,167,star,1,0,,,,,,,,,,,,,,,,switch,letter,lettSwt,d,0.4346,Hi,,,,,,2,,,,,,,,high,24,0,24,0,1,,,,,,,,,
293503,2022-10-03_14h28.17.514,vts_reward_expectancy,2022.2.4,MacIntel,59.84082341,Chrome,1440,900,,,,,1,948,,,,,,,,,,,,,,,,,W,174,circle,1,0,,,,,,,,,,,,,,,,switch,number,numSwt,k,0.3663,Lo,,,,,,2,,,,,,,,high,25,0,25,0,1,,,,,,,,,
293503,2022-10-03_14h28.17.514,vts_reward_expectancy,2022.2.4,MacIntel,59.84082341,Chrome,1440,900,,,,,0,948,,,,,,,,,,,,,,,,,Y,160,star,1,0,,,,,,,,,,,,,,,,repeat,number,numRpt,k,0.7161,Hi,,,,,,2,,,,,,,,high,26,0,26,0,1,,,,,,,,,
293503,2022-10-03_14h28.17.514,vts_reward_expectancy,2022.2.4,MacIntel,59.84082341,Chrome,1440,900,,,,,10,958,,,,,,,,,,,,,,,,,F,132,circle,1,0,,,,,,,,,,,,,,,,switch,letter,lettSwt,d,0.7483,Lo,,,,,,2,,,,,,,,high,27,0,27,0,1,,,,,,,,,
293503,2022-10-03_14h28.17.514,vts_reward_expectancy,2022.2.4,MacIntel,59.84082341,Chrome,1440,900,,,,,1,959,,,,,,,,,,,,,,,,,D,125,circle,1,0,,,,,,,,,,,,,,,,switch,number,numSwt,j,0.3659,Lo,,,,,,2,,,,,,,,high,28,0,28,0,1,,,,,,,,,
293503,2022-10-03_14h28.17.514,vts_reward_expectancy,2022.2.4,MacIntel,59.84082341,Chrome,1440,900,,,,,0,959,,,,,,,,,,,,,,,,,U,146,star,1,0,,,,,,,,,,,,,,,,switch,letter,lettSwt,f,0.9353,Hi,,,,,,2,,,,,,,,high,29,0,29,0,1,,,,,,,,,
293503,2022-10-03_14h28.17.514,vts_reward_expectancy,2022.2.4,MacIntel,59.84082341,Chrome,1440,900,,,,,10,969,,,,,,,,,,,,,,,,,B,139,star,1,0,,,,,,,,,,,,,,,,repeat,letter,lettRpt,d,0.431,Hi,,,,,,2,,,,,,,,high,30,0,30,0,1,,,,,,,,,
293503,2022-10-03_14h28.17.514,vts_reward_expectancy,2022.2.4,MacIntel,59.84082341,Chrome,1440,900,,,,,1,970,,,,,,,,,,,,,,,,,S,181,circle,1,0,,,,,,,,,,,,,,,,switch,number,numSwt,k,0.6341,Lo,,,,,,2,,,,,,,,high,31,0,31,0,1,,,,,,,,,
293503,2022-10-03_14h28.17.514,vts_reward_expectancy,2022.2.4,MacIntel,59.84082341,Chrome,1440,900,,,,,1,971,,,,,,,,,,,,,,,,,F,139,circle,1,0,,,,,,,,,,,,,,,,switch,letter,lettSwt,d,1.1857,Lo,,,,,,3,,,,,,space,1.2638,high,0,0,0,0,1,,,,,,,,,
293503,2022-10-03_14h28.17.514,vts_reward_expectancy,2022.2.4,MacIntel,59.84082341,Chrome,1440,900,,,,,0,971,,,,,,,,,,,,,,,,,D,125,star,1,0,,,,,,,,,,,,,,,,switch,number,numSwt,j,0.6145,Hi,,,,,,3,,,,,,,,high,1,0,1,0,1,,,,,,,,,
293503,2022-10-03_14h28.17.514,vts_reward_expectancy,2022.2.4,MacIntel,59.84082341,Chrome,1440,900,,,,,0,971,,,,,,,,,,,,,,,,,S,174,circle,0,0,,,,,,,,,,,,,,,,repeat,number,NA,j,0.4642,Hi,,,,,,3,,,,,,,,high,2,0,2,0,1,,,,,,,,,
293503,2022-10-03_14h28.17.514,vts_reward_expectancy,2022.2.4,MacIntel,59.84082341,Chrome,1440,900,,,,,0,971,,,,,,,,,,,,,,,,,U,132,star,1,1,,,,,,,,,,,,,,,,switch,letter,lettSwt,f,0.7039,Hi,,,,,,3,,,,,,,,high,3,0,3,0,1,,,,,,,,,
293503,2022-10-03_14h28.17.514,vts_reward_expectancy,2022.2.4,MacIntel,59.84082341,Chrome,1440,900,,,,,1,972,,,,,,,,,,,,,,,,,H,146,circle,1,0,,,,,,,,,,,,,,,,switch,number,numSwt,j,0.6342,Lo,,,,,,3,,,,,,,,high,4,0,4,0,1,,,,,,,,,
293503,2022-10-03_14h28.17.514,vts_reward_expectancy,2022.2.4,MacIntel,59.84082341,Chrome,1440,900,,,,,0,972,,,,,,,,,,,,,,,,,Y,160,star,1,0,,,,,,,,,,,,,,,,repeat,number,numRpt,k,0.6504,Hi,,,,,,3,,,,,,,,high,5,0,5,0,1,,,,,,,,,
293503,2022-10-03_14h28.17.514,vts_reward_expectancy,2022.2.4,MacIntel,59.84082341,Chrome,1440,900,,,,,0,972,,,,,,,,,,,,,,,,,W,181,star,1,0,,,,,,,,,,,,,,,,switch,letter,lettSwt,f,0.917,Hi,,,,,,3,,,,,,,,high,6,0,6,0,1,,,,,,,,,
293503,2022-10-03_14h28.17.514,vts_reward_expectancy,2022.2.4,MacIntel,59.84082341,Chrome,1440,900,,,,,0,972,,,,,,,,,,,,,,,,,B,167,circle,0,0,,,,,,,,,,,,,,,,switch,number,NA,j,0.7516,Hi,,,,,,3,,,,,,,,high,7,0,7,0,1,,,,,,,,,
293503,2022-10-03_14h28.17.514,vts_reward_expectancy,2022.2.4,MacIntel,59.84082341,Chrome,1440,900,,,,,1,973,,,,,,,,,,,,,,,,,F,139,circle,1,1,,,,,,,,,,,,,,,,switch,letter,lettSwt,d,0.7817,Lo,,,,,,3,,,,,,,,high,8,0,8,0,1,,,,,,,,,
293503,2022-10-03_14h28.17.514,vts_reward_expectancy,2022.2.4,MacIntel,59.84082341,Chrome,1440,900,,,,,0,973,,,,,,,,,,,,,,,,,D,125,star,1,0,,,,,,,,,,,,,,,,switch,number,numSwt,j,0.7022,Hi,,,,,,3,,,,,,,,high,9,0,9,0,1,,,,,,,,,
293503,2022-10-03_14h28.17.514,vts_reward_expectancy,2022.2.4,MacIntel,59.84082341,Chrome,1440,900,,,,,1,974,,,,,,,,,,,,,,,,,S,174,circle,1,0,,,,,,,,,,,,,,,,repeat,number,numRpt,k,1.0382,Lo,,,,,,3,,,,,,,,high,10,0,10,0,1,,,,,,,,,
293503,2022-10-03_14h28.17.514,vts_reward_expectancy,2022.2.4,MacIntel,59.84082341,Chrome,1440,900,,,,,0,974,,,,,,,,,,,,,,,,,U,132,star,1,0,,,,,,,,,,,,,,,,switch,letter,lettSwt,f,0.5815,Hi,,,,,,3,,,,,,,,high,11,0,11,0,1,,,,,,,,,
293503,2022-10-03_14h28.17.514,vts_reward_expectancy,2022.2.4,MacIntel,59.84082341,Chrome,1440,900,,,,,10,984,,,,,,,,,,,,,,,,,H,146,circle,1,0,,,,,,,,,,,,,,,,repeat,letter,lettRpt,d,0.6563,Lo,,,,,,3,,,,,,,,high,12,0,12,0,1,,,,,,,,,
293503,2022-10-03_14h28.17.514,vts_reward_expectancy,2022.2.4,MacIntel,59.84082341,Chrome,1440,900,,,,,0,984,,,,,,,,,,,,,,,,,Y,160,star,1,0,,,,,,,,,,,,,,,,switch,number,numSwt,k,1.1025,Hi,,,,,,3,,,,,,,,high,13,0,13,0,1,,,,,,,,,
293503,2022-10-03_14h28.17.514,vts_reward_expectancy,2022.2.4,MacIntel,59.84082341,Chrome,1440,900,,,,,1,985,,,,,,,,,,,,,,,,,W,181,circle,1,0,,,,,,,,,,,,,,,,switch,letter,lettSwt,f,0.8325,Lo,,,,,,3,,,,,,,,high,14,0,14,0,1,,,,,,,,,
293503,2022-10-03_14h28.17.514,vts_reward_expectancy,2022.2.4,MacIntel,59.84082341,Chrome,1440,900,,,,,0,985,,,,,,,,,,,,,,,,,B,167,star,1,0,,,,,,,,,,,,,,,,switch,number,numSwt,k,0.7162,Hi,,,,,,3,,,,,,,,high,15,0,15,0,1,,,,,,,,,
293503,2022-10-03_14h28.17.514,vts_reward_expectancy,2022.2.4,MacIntel,59.84082341,Chrome,1440,900,,,,,0,985,,,,,,,,,,,,,,,,,F,181,star,1,0,,,,,,,,,,,,,,,,switch,letter,lettSwt,d,0.8172,Hi,,,,,,3,,,,,,,,high,16,0,16,0,1,,,,,,,,,
293503,2022-10-03_14h28.17.514,vts_reward_expectancy,2022.2.4,MacIntel,59.84082341,Chrome,1440,900,,,,,1,986,,,,,,,,,,,,,,,,,D,125,circle,1,0,,,,,,,,,,,,,,,,repeat,letter,lettRpt,d,0.6487,Lo,,,,,,3,,,,,,,,high,17,0,17,0,1,,,,,,,,,
293503,2022-10-03_14h28.17.514,vts_reward_expectancy,2022.2.4,MacIntel,59.84082341,Chrome,1440,900,,,,,0,986,,,,,,,,,,,,,,,,,Y,146,star,1,0,,,,,,,,,,,,,,,,switch,number,numSwt,j,0.9009,Hi,,,,,,3,,,,,,,,high,18,0,18,0,1,,,,,,,,,
293503,2022-10-03_14h28.17.514,vts_reward_expectancy,2022.2.4,MacIntel,59.84082341,Chrome,1440,900,,,,,1,987,,,,,,,,,,,,,,,,,U,174,circle,1,0,,,,,,,,,,,,,,,,repeat,number,numRpt,k,0.4536,Lo,,,,,,3,,,,,,,,high,19,0,19,0,1,,,,,,,,,
293503,2022-10-03_14h28.17.514,vts_reward_expectancy,2022.2.4,MacIntel,59.84082341,Chrome,1440,900,,,,,1,988,,,,,,,,,,,,,,,,,W,167,circle,1,0,,,,,,,,,,,,,,,,repeat,number,numRpt,k,0.5808,Lo,,,,,,3,,,,,,,,high,20,0,20,0,1,,,,,,,,,
293503,2022-10-03_14h28.17.514,vts_reward_expectancy,2022.2.4,MacIntel,59.84082341,Chrome,1440,900,,,,,0,988,,,,,,,,,,,,,,,,,H,160,star,1,0,,,,,,,,,,,,,,,,switch,letter,lettSwt,d,0.6695,Hi,,,,,,3,,,,,,,,high,21,0,21,0,1,,,,,,,,,
293503,2022-10-03_14h28.17.514,vts_reward_expectancy,2022.2.4,MacIntel,59.84082341,Chrome,1440,900,,,,,0,988,,,,,,,,,,,,,,,,,S,132,star,1,0,,,,,,,,,,,,,,,,repeat,letter,lettRpt,f,0.6169,Hi,,,,,,3,,,,,,,,high,22,0,22,0,1,,,,,,,,,
293503,2022-10-03_14h28.17.514,vts_reward_expectancy,2022.2.4,MacIntel,59.84082341,Chrome,1440,900,,,,,1,989,,,,,,,,,,,,,,,,,B,139,circle,1,0,,,,,,,,,,,,,,,,repeat,letter,lettRpt,d,0.652,Lo,,,,,,3,,,,,,,,high,23,0,23,0,1,,,,,,,,,
293503,2022-10-03_14h28.17.514,vts_reward_expectancy,2022.2.4,MacIntel,59.84082341,Chrome,1440,900,,,,,10,999,,,,,,,,,,,,,,,,,W,139,star,1,0,,,,,,,,,,,,,,,,switch,number,numSwt,j,0.4189,Hi,,,,,,3,,,,,,,,high,24,0,24,0,1,,,,,,,,,
293503,2022-10-03_14h28.17.514,vts_reward_expectancy,2022.2.4,MacIntel,59.84082341,Chrome,1440,900,,,,,1,1000,,,,,,,,,,,,,,,,,U,167,circle,1,0,,,,,,,,,,,,,,,,repeat,number,numRpt,k,0.583,Lo,,,,,,3,,,,,,,,high,25,0,25,0,1,,,,,,,,,
293503,2022-10-03_14h28.17.514,vts_reward_expectancy,2022.2.4,MacIntel,59.84082341,Chrome,1440,900,,,,,1,1001,,,,,,,,,,,,,,,,,H,160,circle,1,0,,,,,,,,,,,,,,,,switch,letter,lettSwt,d,0.5221,Lo,,,,,,3,,,,,,,,high,26,0,26,0,1,,,,,,,,,
293503,2022-10-03_14h28.17.514,vts_reward_expectancy,2022.2.4,MacIntel,59.84082341,Chrome,1440,900,,,,,0,1001,,,,,,,,,,,,,,,,,D,132,star,1,0,,,,,,,,,,,,,,,,repeat,letter,lettRpt,d,0.5963,Hi,,,,,,3,,,,,,,,high,27,0,27,0,1,,,,,,,,,
293503,2022-10-03_14h28.17.514,vts_reward_expectancy,2022.2.4,MacIntel,59.84082341,Chrome,1440,900,,,,,0,1001,,,,,,,,,,,,,,,,,Y,146,star,0,0,,,,,,,,,,,,,,,,switch,number,NA,k,0.5493,Hi,,,,,,3,,,,,,,,high,28,0,28,0,1,,,,,,,,,
293503,2022-10-03_14h28.17.514,vts_reward_expectancy,2022.2.4,MacIntel,59.84082341,Chrome,1440,900,,,,,1,1002,,,,,,,,,,,,,,,,,F,181,circle,1,1,,,,,,,,,,,,,,,,repeat,number,numRpt,k,0.4322,Lo,,,,,,3,,,,,,,,high,29,0,29,0,1,,,,,,,,,
293503,2022-10-03_14h28.17.514,vts_reward_expectancy,2022.2.4,MacIntel,59.84082341,Chrome,1440,900,,,,,1,1003,,,,,,,,,,,,,,,,,B,174,circle,1,0,,,,,,,,,,,,,,,,switch,letter,lettSwt,d,0.5985,Lo,,,,,,3,,,,,,,,high,30,0,30,0,1,,,,,,,,,
293503,2022-10-03_14h28.17.514,vts_reward_expectancy,2022.2.4,MacIntel,59.84082341,Chrome,1440,900,,,,,0,1003,,,,,,,,,,,,,,,,,S,125,star,1,0,,,,,,,,,,,,,,,,switch,number,numSwt,j,0.732,Hi,,,,,,3,,,,,,,,high,31,0,31,0,1,,,,,,,,,
293503,2022-10-03_14h28.17.514,vts_reward_expectancy,2022.2.4,MacIntel,59.84082341,Chrome,1440,900,,,,,10,1013,,,,,,,,,,,,,,,,,S,139,hexagon,1,0,,,,,,,,,,,,,,,,switch,letter,lettSwt,f,0.6185,Hi,,,,,,4,,,,,,space,1.4776,low,0,0,0,0,1,,,,,,,,,
293503,2022-10-03_14h28.17.514,vts_reward_expectancy,2022.2.4,MacIntel,59.84082341,Chrome,1440,900,,,,,10,1023,,,,,,,,,,,,,,,,,B,174,triangle,1,0,,,,,,,,,,,,,,,,switch,number,numSwt,k,0.548,Lo,,,,,,4,,,,,,,,low,1,0,1,0,1,,,,,,,,,
293503,2022-10-03_14h28.17.514,vts_reward_expectancy,2022.2.4,MacIntel,59.84082341,Chrome,1440,900,,,,,0,1023,,,,,,,,,,,,,,,,,U,146,hexagon,0,0,,,,,,,,,,,,,,,,repeat,number,NA,k,0.4491,Lo,,,,,,4,,,,,,,,low,2,0,2,0,1,,,,,,,,,
293503,2022-10-03_14h28.17.514,vts_reward_expectancy,2022.2.4,MacIntel,59.84082341,Chrome,1440,900,,,,,1,1024,,,,,,,,,,,,,,,,,D,132,triangle,1,1,,,,,,,,,,,,,,,,repeat,number,numRpt,j,0.4331,Lo,,,,,,4,,,,,,,,low,3,0,3,0,1,,,,,,,,,
293503,2022-10-03_14h28.17.514,vts_reward_expectancy,2022.2.4,MacIntel,59.84082341,Chrome,1440,900,,,,,10,1034,,,,,,,,,,,,,,,,,W,167,hexagon,1,0,,,,,,,,,,,,,,,,switch,letter,lettSwt,f,0.4868,Hi,,,,,,4,,,,,,,,low,4,0,4,0,1,,,,,,,,,
293503,2022-10-03_14h28.17.514,vts_reward_expectancy,2022.2.4,MacIntel,59.84082341,Chrome,1440,900,,,,,1,1035,,,,,,,,,,,,,,,,,H,181,triangle,1,0,,,,,,,,,,,,,,,,repeat,letter,lettRpt,d,0.7009,Lo,,,,,,4,,,,,,,,low,5,0,5,0,1,,,,,,,,,
293503,2022-10-03_14h28.17.514,vts_reward_expectancy,2022.2.4,MacIntel,59.84082341,Chrome,1440,900,,,,,1,1036,,,,,,,,,,,,,,,,,F,125,hexagon,1,0,,,,,,,,,,,,,,,,switch,number,numSwt,j,0.6313,Hi,,,,,,4,,,,,,,,low,6,0,6,0,1,,,,,,,,,
293503,2022-10-03_14h28.17.514,vts_reward_expectancy,2022.2.4,MacIntel,59.84082341,Chrome,1440,900,,,,,1,1037,,,,,,,,,,,,,,,,,Y,160,triangle,1,0,,,,,,,,,,,,,,,,switch,letter,lettSwt,f,0.5505,Lo,,,,,,4,,,,,,,,low,7,0,7,0,1,,,,,,,,,
293503,2022-10-03_14h28.17.514,vts_reward_expectancy,2022.2.4,MacIntel,59.84082341,Chrome,1440,900,,,,,10,1047,,,,,,,,,,,,,,,,,S,139,hexagon,1,0,,,,,,,,,,,,,,,,switch,number,numSwt,j,0.5324,Hi,,,,,,4,,,,,,,,low,8,0,8,0,1,,,,,,,,,
293503,2022-10-03_14h28.17.514,vts_reward_expectancy,2022.2.4,MacIntel,59.84082341,Chrome,1440,900,,,,,1,1048,,,,,,,,,,,,,,,,,B,174,triangle,1,0,,,,,,,,,,,,,,,,switch,letter,lettSwt,d,0.733,Lo,,,,,,4,,,,,,,,low,9,0,9,0,1,,,,,,,,,
293503,2022-10-03_14h28.17.514,vts_reward_expectancy,2022.2.4,MacIntel,59.84082341,Chrome,1440,900,,,,,10,1058,,,,,,,,,,,,,,,,,U,146,hexagon,1,0,,,,,,,,,,,,,,,,repeat,letter,lettRpt,f,0.5157,Hi,,,,,,4,,,,,,,,low,10,0,10,0,1,,,,,,,,,
293503,2022-10-03_14h28.17.514,vts_reward_expectancy,2022.2.4,MacIntel,59.84082341,Chrome,1440,900,,,,,1,1059,,,,,,,,,,,,,,,,,D,132,triangle,1,0,,,,,,,,,,,,,,,,switch,number,numSwt,j,0.6512,Lo,,,,,,4,,,,,,,,low,11,0,11,0,1,,,,,,,,,
293503,2022-10-03_14h28.17.514,vts_reward_expectancy,2022.2.4,MacIntel,59.84082341,Chrome,1440,900,,,,,0,1059,,,,,,,,,,,,,,,,,W,167,hexagon,1,0,,,,,,,,,,,,,,,,repeat,number,numRpt,k,0.649,Hi,,,,,,4,,,,,,,,low,12,0,12,0,1,,,,,,,,,
293503,2022-10-03_14h28.17.514,vts_reward_expectancy,2022.2.4,MacIntel,59.84082341,Chrome,1440,900,,,,,1,1060,,,,,,,,,,,,,,,,,H,181,triangle,1,0,,,,,,,,,,,,,,,,switch,letter,lettSwt,d,0.5846,Lo,,,,,,4,,,,,,,,low,13,0,13,0,1,,,,,,,,,
293503,2022-10-03_14h28.17.514,vts_reward_expectancy,2022.2.4,MacIntel,59.84082341,Chrome,1440,900,,,,,10,1070,,,,,,,,,,,,,,,,,F,125,hexagon,1,0,,,,,,,,,,,,,,,,switch,number,numSwt,j,0.5333,Hi,,,,,,4,,,,,,,,low,14,0,14,0,1,,,,,,,,,
293503,2022-10-03_14h28.17.514,vts_reward_expectancy,2022.2.4,MacIntel,59.84082341,Chrome,1440,900,,,,,10,1080,,,,,,,,,,,,,,,,,Y,160,triangle,1,0,,,,,,,,,,,,,,,,repeat,number,numRpt,k,1.768,Lo,,,,,,4,,,,,,,,low,15,0,15,0,1,,,,,,,,,
293503,2022-10-03_14h28.17.514,vts_reward_expectancy,2022.2.4,MacIntel,59.84082341,Chrome,1440,900,,,,,0,1080,,,,,,,,,,,,,,,,,S,167,hexagon,0,0,,,,,,,,,,,,,,,,repeat,number,NA,j,0.8162,Lo,,,,,,4,,,,,,,,low,16,0,16,0,1,,,,,,,,,
293503,2022-10-03_14h28.17.514,vts_reward_expectancy,2022.2.4,MacIntel,59.84082341,Chrome,1440,900,,,,,1,1081,,,,,,,,,,,,,,,,,B,132,triangle,1,1,,,,,,,,,,,,,,,,repeat,number,numRpt,j,0.7153,Lo,,,,,,4,,,,,,,,low,17,0,17,0,1,,,,,,,,,
293503,2022-10-03_14h28.17.514,vts_reward_expectancy,2022.2.4,MacIntel,59.84082341,Chrome,1440,900,,,,,0,1081,,,,,,,,,,,,,,,,,U,139,triangle,0,0,,,,,,,,,,,,,,,,repeat,number,NA,k,0.7489,Lo,,,,,,4,,,,,,,,low,18,0,18,0,1,,,,,,,,,
293503,2022-10-03_14h28.17.514,vts_reward_expectancy,2022.2.4,MacIntel,59.84082341,Chrome,1440,900,,,,,0,1081,,,,,,,,,,,,,,,,,F,146,hexagon,1,1,,,,,,,,,,,,,,,,switch,letter,lettSwt,d,0.8539,Hi,,,,,,4,,,,,,,,low,19,0,19,0,1,,,,,,,,,
293503,2022-10-03_14h28.17.514,vts_reward_expectancy,2022.2.4,MacIntel,59.84082341,Chrome,1440,900,,,,,0,1081,,,,,,,,,,,,,,,,,D,160,hexagon,1,0,,,,,,,,,,,,,,,,repeat,letter,lettRpt,d,0.7224,Hi,,,,,,4,,,,,,,,low,20,0,20,0,1,,,,,,,,,
293503,2022-10-03_14h28.17.514,vts_reward_expectancy,2022.2.4,MacIntel,59.84082341,Chrome,1440,900,,,,,10,1091,,,,,,,,,,,,,,,,,W,174,triangle,1,0,,,,,,,,,,,,,,,,switch,number,numSwt,k,0.5546,Lo,,,,,,4,,,,,,,,low,21,0,21,0,1,,,,,,,,,
293503,2022-10-03_14h28.17.514,vts_reward_expectancy,2022.2.4,MacIntel,59.84082341,Chrome,1440,900,,,,,10,1101,,,,,,,,,,,,,,,,,H,181,hexagon,1,0,,,,,,,,,,,,,,,,switch,letter,lettSwt,d,0.4833,Hi,,,,,,4,,,,,,,,low,22,0,22,0,1,,,,,,,,,
293503,2022-10-03_14h28.17.514,vts_reward_expectancy,2022.2.4,MacIntel,59.84082341,Chrome,1440,900,,,,,10,1111,,,,,,,,,,,,,,,,,Y,125,triangle,1,0,,,,,,,,,,,,,,,,switch,number,numSwt,j,0.8318,Lo,,,,,,4,,,,,,,,low,23,0,23,0,1,,,,,,,,,
293503,2022-10-03_14h28.17.514,vts_reward_expectancy,2022.2.4,MacIntel,59.84082341,Chrome,1440,900,,,,,10,1121,,,,,,,,,,,,,,,,,D,181,hexagon,1,0,,,,,,,,,,,,,,,,switch,letter,lettSwt,d,0.5002,Hi,,,,,,4,,,,,,,,low,24,0,24,0,1,,,,,,,,,
293503,2022-10-03_14h28.17.514,vts_reward_expectancy,2022.2.4,MacIntel,59.84082341,Chrome,1440,900,,,,,1,1122,,,,,,,,,,,,,,,,,W,167,triangle,1,0,,,,,,,,,,,,,,,,switch,number,numSwt,k,0.5682,Lo,,,,,,4,,,,,,,,low,25,0,25,0,1,,,,,,,,,
293503,2022-10-03_14h28.17.514,vts_reward_expectancy,2022.2.4,MacIntel,59.84082341,Chrome,1440,900,,,,,1,1123,,,,,,,,,,,,,,,,,F,125,triangle,1,0,,,,,,,,,,,,,,,,switch,letter,lettSwt,d,0.8821,Lo,,,,,,4,,,,,,,,low,26,0,26,0,1,,,,,,,,,
293503,2022-10-03_14h28.17.514,vts_reward_expectancy,2022.2.4,MacIntel,59.84082341,Chrome,1440,900,,,,,0,1123,,,,,,,,,,,,,,,,,S,139,hexagon,1,0,,,,,,,,,,,,,,,,repeat,letter,lettRpt,f,0.6837,Hi,,,,,,4,,,,,,,,low,27,0,27,0,1,,,,,,,,,
293503,2022-10-03_14h28.17.514,vts_reward_expectancy,2022.2.4,MacIntel,59.84082341,Chrome,1440,900,,,,,1,1124,,,,,,,,,,,,,,,,,H,146,triangle,1,0,,,,,,,,,,,,,,,,switch,number,numSwt,j,0.6538,Lo,,,,,,4,,,,,,,,low,28,0,28,0,1,,,,,,,,,
293503,2022-10-03_14h28.17.514,vts_reward_expectancy,2022.2.4,MacIntel,59.84082341,Chrome,1440,900,,,,,0,1124,,,,,,,,,,,,,,,,,U,174,hexagon,1,0,,,,,,,,,,,,,,,,repeat,number,numRpt,k,1.0985,Hi,,,,,,4,,,,,,,,low,29,0,29,0,1,,,,,,,,,
293503,2022-10-03_14h28.17.514,vts_reward_expectancy,2022.2.4,MacIntel,59.84082341,Chrome,1440,900,,,,,0,1124,,,,,,,,,,,,,,,,,Y,132,triangle,0,0,,,,,,,,,,,,,,,,repeat,number,NA,k,0.6363,Hi,,,,,,4,,,,,,,,low,30,0,30,0,1,,,,,,,,,
293503,2022-10-03_14h28.17.514,vts_reward_expectancy,2022.2.4,MacIntel,59.84082341,Chrome,1440,900,,,,,0,1124,,,,,,,,,,,,,,,,,B,160,hexagon,1,1,,,,,,,,,,,,,,,,switch,letter,lettSwt,d,1.1353,Hi,,,,,,4,,,,,,,,low,31,0,31,0,1,,,,,,,,,
293503,2022-10-03_14h28.17.514,vts_reward_expectancy,2022.2.4,MacIntel,59.84082341,Chrome,1440,900,,,,,0,1124,,,,,,,,,,,,,,,,,H,160,star,1,0,,,,,,,,,,,,,,,,repeat,letter,lettRpt,d,1.3183,Hi,,,,,,5,,,,,,space,1.1615,high,0,0,0,0,1,,,,,,,,,
293503,2022-10-03_14h28.17.514,vts_reward_expectancy,2022.2.4,MacIntel,59.84082341,Chrome,1440,900,,,,,1,1125,,,,,,,,,,,,,,,,,D,181,circle,1,0,,,,,,,,,,,,,,,,repeat,letter,lettRpt,d,0.7662,Lo,,,,,,5,,,,,,,,high,1,0,1,0,1,,,,,,,,,
293503,2022-10-03_14h28.17.514,vts_reward_expectancy,2022.2.4,MacIntel,59.84082341,Chrome,1440,900,,,,,0,1125,,,,,,,,,,,,,,,,,B,167,star,1,0,,,,,,,,,,,,,,,,switch,number,numSwt,k,0.604,Hi,,,,,,5,,,,,,,,high,2,0,2,0,1,,,,,,,,,
293503,2022-10-03_14h28.17.514,vts_reward_expectancy,2022.2.4,MacIntel,59.84082341,Chrome,1440,900,,,,,10,1135,,,,,,,,,,,,,,,,,W,132,circle,1,0,,,,,,,,,,,,,,,,repeat,number,numRpt,j,1.1563,Lo,,,,,,5,,,,,,,,high,3,0,3,0,1,,,,,,,,,
293503,2022-10-03_14h28.17.514,vts_reward_expectancy,2022.2.4,MacIntel,59.84082341,Chrome,1440,900,,,,,10,1145,,,,,,,,,,,,,,,,,U,146,circle,1,0,,,,,,,,,,,,,,,,repeat,number,numRpt,j,0.8839,Lo,,,,,,5,,,,,,,,high,4,0,4,0,1,,,,,,,,,
293503,2022-10-03_14h28.17.514,vts_reward_expectancy,2022.2.4,MacIntel,59.84082341,Chrome,1440,900,,,,,0,1145,,,,,,,,,,,,,,,,,S,174,star,1,0,,,,,,,,,,,,,,,,repeat,number,numRpt,k,0.736,Hi,,,,,,5,,,,,,,,high,5,0,5,0,1,,,,,,,,,
293503,2022-10-03_14h28.17.514,vts_reward_expectancy,2022.2.4,MacIntel,59.84082341,Chrome,1440,900,,,,,0,1145,,,,,,,,,,,,,,,,,F,139,star,1,0,,,,,,,,,,,,,,,,switch,letter,lettSwt,d,0.5726,Hi,,,,,,5,,,,,,,,high,6,0,6,0,1,,,,,,,,,
293503,2022-10-03_14h28.17.514,vts_reward_expectancy,2022.2.4,MacIntel,59.84082341,Chrome,1440,900,,,,,1,1146,,,,,,,,,,,,,,,,,Y,125,circle,1,0,,,,,,,,,,,,,,,,repeat,letter,lettRpt,f,0.6152,Lo,,,,,,5,,,,,,,,high,7,0,7,0,1,,,,,,,,,
293503,2022-10-03_14h28.17.514,vts_reward_expectancy,2022.2.4,MacIntel,59.84082341,Chrome,1440,900,,,,,1,1147,,,,,,,,,,,,,,,,,H,160,circle,1,0,,,,,,,,,,,,,,,,repeat,letter,lettRpt,d,0.6178,Lo,,,,,,5,,,,,,,,high,8,0,8,0,1,,,,,,,,,
293503,2022-10-03_14h28.17.514,vts_reward_expectancy,2022.2.4,MacIntel,59.84082341,Chrome,1440,900,,,,,10,1157,,,,,,,,,,,,,,,,,D,181,star,1,0,,,,,,,,,,,,,,,,switch,number,numSwt,k,0.4997,Hi,,,,,,5,,,,,,,,high,9,0,9,0,1,,,,,,,,,
293503,2022-10-03_14h28.17.514,vts_reward_expectancy,2022.2.4,MacIntel,59.84082341,Chrome,1440,900,,,,,1,1158,,,,,,,,,,,,,,,,,B,167,circle,1,0,,,,,,,,,,,,,,,,repeat,number,numRpt,k,0.4826,Lo,,,,,,5,,,,,,,,high,10,0,10,0,1,,,,,,,,,
293503,2022-10-03_14h28.17.514,vts_reward_expectancy,2022.2.4,MacIntel,59.84082341,Chrome,1440,900,,,,,10,1168,,,,,,,,,,,,,,,,,W,132,star,1,0,,,,,,,,,,,,,,,,switch,letter,lettSwt,f,0.4971,Hi,,,,,,5,,,,,,,,high,11,0,11,0,1,,,,,,,,,
293503,2022-10-03_14h28.17.514,vts_reward_expectancy,2022.2.4,MacIntel,59.84082341,Chrome,1440,900,,,,,1,1169,,,,,,,,,,,,,,,,,U,146,circle,1,0,,,,,,,,,,,,,,,,repeat,letter,lettRpt,f,0.8553,Lo,,,,,,5,,,,,,,,high,12,0,12,0,1,,,,,,,,,
293503,2022-10-03_14h28.17.514,vts_reward_expectancy,2022.2.4,MacIntel,59.84082341,Chrome,1440,900,,,,,10,1179,,,,,,,,,,,,,,,,,S,174,star,1,0,,,,,,,,,,,,,,,,switch,number,numSwt,k,0.5209,Hi,,,,,,5,,,,,,,,high,13,0,13,0,1,,,,,,,,,
293503,2022-10-03_14h28.17.514,vts_reward_expectancy,2022.2.4,MacIntel,59.84082341,Chrome,1440,900,,,,,0,1179,,,,,,,,,,,,,,,,,F,139,star,1,0,,,,,,,,,,,,,,,,switch,letter,lettSwt,d,0.683,Hi,,,,,,5,,,,,,,,high,14,0,14,0,1,,,,,,,,,
293503,2022-10-03_14h28.17.514,vts_reward_expectancy,2022.2.4,MacIntel,59.84082341,Chrome,1440,900,,,,,0,1179,,,,,,,,,,,,,,,,,Y,125,circle,0,0,,,,,,,,,,,,,,,,repeat,letter,NA,d,0.8324,Hi,,,,,,5,,,,,,,,high,15,0,15,0,1,,,,,,,,,
293503,2022-10-03_14h28.17.514,vts_reward_expectancy,2022.2.4,MacIntel,59.84082341,Chrome,1440,900,,,,,1,1180,,,,,,,,,,,,,,,,,W,167,circle,1,1,,,,,,,,,,,,,,,,repeat,letter,lettRpt,f,0.4977,Lo,,,,,,5,,,,,,,,high,16,0,16,0,1,,,,,,,,,
293503,2022-10-03_14h28.17.514,vts_reward_expectancy,2022.2.4,MacIntel,59.84082341,Chrome,1440,900,,,,,1,1181,,,,,,,,,,,,,,,,,U,139,star,1,0,,,,,,,,,,,,,,,,switch,number,numSwt,j,0.5293,Hi,,,,,,5,,,,,,,,high,17,0,17,0,1,,,,,,,,,
293503,2022-10-03_14h28.17.514,vts_reward_expectancy,2022.2.4,MacIntel,59.84082341,Chrome,1440,900,,,,,0,1181,,,,,,,,,,,,,,,,,S,181,star,0,0,,,,,,,,,,,,,,,,repeat,number,NA,j,0.6544,Hi,,,,,,5,,,,,,,,high,18,0,18,0,1,,,,,,,,,
293503,2022-10-03_14h28.17.514,vts_reward_expectancy,2022.2.4,MacIntel,59.84082341,Chrome,1440,900,,,,,10,1191,,,,,,,,,,,,,,,,,D,174,circle,1,1,,,,,,,,,,,,,,,,repeat,number,numRpt,k,0.4643,Lo,,,,,,5,,,,,,,,high,19,0,19,0,1,,,,,,,,,
293503,2022-10-03_14h28.17.514,vts_reward_expectancy,2022.2.4,MacIntel,59.84082341,Chrome,1440,900,,,,,1,1192,,,,,,,,,,,,,,,,,Y,146,circle,1,0,,,,,,,,,,,,,,,,repeat,number,numRpt,j,0.6161,Lo,,,,,,5,,,,,,,,high,20,0,20,0,1,,,,,,,,,
293503,2022-10-03_14h28.17.514,vts_reward_expectancy,2022.2.4,MacIntel,59.84082341,Chrome,1440,900,,,,,0,1192,,,,,,,,,,,,,,,,,F,160,star,1,0,,,,,,,,,,,,,,,,switch,letter,lettSwt,d,0.5656,Hi,,,,,,5,,,,,,,,high,21,0,21,0,1,,,,,,,,,
293503,2022-10-03_14h28.17.514,vts_reward_expectancy,2022.2.4,MacIntel,59.84082341,Chrome,1440,900,,,,,1,1193,,,,,,,,,,,,,,,,,H,125,circle,1,0,,,,,,,,,,,,,,,,repeat,letter,lettRpt,d,0.6061,Lo,,,,,,5,,,,,,,,high,22,0,22,0,1,,,,,,,,,
293503,2022-10-03_14h28.17.514,vts_reward_expectancy,2022.2.4,MacIntel,59.84082341,Chrome,1440,900,,,,,10,1203,,,,,,,,,,,,,,,,,B,132,star,1,0,,,,,,,,,,,,,,,,repeat,letter,lettRpt,d,0.5149,Hi,,,,,,5,,,,,,,,high,23,0,23,0,1,,,,,,,,,
293503,2022-10-03_14h28.17.514,vts_reward_expectancy,2022.2.4,MacIntel,59.84082341,Chrome,1440,900,,,,,1,1204,,,,,,,,,,,,,,,,,F,181,circle,1,0,,,,,,,,,,,,,,,,switch,number,numSwt,k,0.6373,Lo,,,,,,5,,,,,,,,high,24,0,24,0,1,,,,,,,,,
293503,2022-10-03_14h28.17.514,vts_reward_expectancy,2022.2.4,MacIntel,59.84082341,Chrome,1440,900,,,,,0,1204,,,,,,,,,,,,,,,,,D,146,star,1,0,,,,,,,,,,,,,,,,switch,letter,lettSwt,d,0.5554,Hi,,,,,,5,,,,,,,,high,25,0,25,0,1,,,,,,,,,
293503,2022-10-03_14h28.17.514,vts_reward_expectancy,2022.2.4,MacIntel,59.84082341,Chrome,1440,900,,,,,1,1205,,,,,,,,,,,,,,,,,H,132,star,1,0,,,,,,,,,,,,,,,,repeat,letter,lettRpt,d,0.5999,Hi,,,,,,5,,,,,,,,high,26,0,26,0,1,,,,,,,,,
293503,2022-10-03_14h28.17.514,vts_reward_expectancy,2022.2.4,MacIntel,59.84082341,Chrome,1440,900,,,,,0,1205,,,,,,,,,,,,,,,,,W,174,circle,0,0,,,,,,,,,,,,,,,,repeat,letter,NA,d,0.7042,Hi,,,,,,5,,,,,,,,high,27,0,27,0,1,,,,,,,,,
293503,2022-10-03_14h28.17.514,vts_reward_expectancy,2022.2.4,MacIntel,59.84082341,Chrome,1440,900,,,,,0,1205,,,,,,,,,,,,,,,,,B,139,star,1,1,,,,,,,,,,,,,,,,switch,number,numSwt,j,0.6201,Hi,,,,,,5,,,,,,,,high,28,0,28,0,1,,,,,,,,,
293503,2022-10-03_14h28.17.514,vts_reward_expectancy,2022.2.4,MacIntel,59.84082341,Chrome,1440,900,,,,,1,1206,,,,,,,,,,,,,,,,,U,167,circle,1,0,,,,,,,,,,,,,,,,repeat,number,numRpt,k,0.5159,Lo,,,,,,5,,,,,,,,high,29,0,29,0,1,,,,,,,,,
293503,2022-10-03_14h28.17.514,vts_reward_expectancy,2022.2.4,MacIntel,59.84082341,Chrome,1440,900,,,,,0,1206,,,,,,,,,,,,,,,,,Y,160,star,0,0,,,,,,,,,,,,,,,,repeat,number,NA,j,0.7542,Lo,,,,,,5,,,,,,,,high,30,0,30,0,1,,,,,,,,,
293503,2022-10-03_14h28.17.514,vts_reward_expectancy,2022.2.4,MacIntel,59.84082341,Chrome,1440,900,,,,,0,1206,,,,,,,,,,,,,,,,,S,125,circle,0,1,,,,,,,,,,,,,,,,repeat,number,NA,k,0.7494,Lo,,,,,,5,,,,,,,,high,31,0,31,0,1,,,,,,,,,
293503,2022-10-03_14h28.17.514,vts_reward_expectancy,2022.2.4,MacIntel,59.84082341,Chrome,1440,900,,,,,,,,,,,,,,,,,,,,,,,,,,,,,,,,,,,,,,,,,,,,,,,,,,,,,,6,,,,,,,,,,,,,,"differentiate between letters and numbers, then categorize e them",1,,3,2,,2,1440,900
